startup.started,startup.stopped,Prolific ID*,date,expName,psychopyVersion,OS,frameRate,participant,study_id,session,stimpositions.started,stimpositions.stopped,hardcoded_stimulus_positions.thisRepN,hardcoded_stimulus_positions.thisTrialN,hardcoded_stimulus_positions.thisN,hardcoded_stimulus_positions.thisIndex,hardcoded_stimulus_positions.ran,StimulusPos,stimorientation.started,stimorientation.stopped,prac_stimorientation_import_loop.thisRepN,prac_stimorientation_import_loop.thisTrialN,prac_stimorientation_import_loop.thisN,prac_stimorientation_import_loop.thisIndex,prac_stimorientation_import_loop.ran,Stimorientation,welcome_instr.started,welcome_instr.stopped,key_resp.keys,key_resp.rt,key_resp.duration,response_steppedout_1.started,response_steppedout_1.stopped,key_resp_20.keys,key_resp_20.rt,key_resp_20.duration,response_steppedout_2.started,response_steppedout_2.stopped,key_resp_19.keys,key_resp_19.rt,key_resp_19.duration,stim_response_instr.started,stim_response_instr.stopped,key_resp_15.keys,key_resp_15.rt,key_resp_15.duration,direction_instr_2.started,direction_instr_2.stopped,key_resp_9.keys,key_resp_9.rt,key_resp_9.duration,instr_prac.started,instr_prac.stopped,key_resp_10.keys,key_resp_10.rt,key_resp_10.duration,Stim1_display_prac.started,Stim1_display_prac.stopped,Ecc,Circle1_ori,Circle2_ori,response_prac.started,similarity,response_time,response_prac.stopped,mouse_5.x,mouse_5.y,mouse_5.leftButton,mouse_5.midButton,mouse_5.rightButton,mouse_5.clicked_name,responseprac_feedback.started,responseprac_feedback.stopped,summary2_prac.started,summary2_prac.stopped,mouse_6.x,mouse_6.y,mouse_6.leftButton,mouse_6.midButton,mouse_6.rightButton,mouse_6.clicked_name,duringprac.thisRepN,duringprac.thisTrialN,duringprac.thisN,duringprac.thisIndex,duringprac.ran,begin.started,begin.stopped,key_resp_22.keys,key_resp_22.rt,key_resp_22.duration,Stim1_display.started,Stim1_display.stopped,circle1_ori,circle2_ori,circle1_SF,circle2_SF,response.started,response.stopped,mouse.x,mouse.y,mouse.leftButton,mouse.midButton,mouse.rightButton,mouse.clicked_name,trialnumber,double_pass.thisRepN,double_pass.thisTrialN,double_pass.thisN,double_pass.thisIndex,double_pass.ran,double_pass.order,main_trial.thisRepN,main_trial.thisTrialN,main_trial.thisN,main_trial.thisIndex,main_trial.ran,main_trial.order,Trial_Counter,Catch,Frequencies,response_2.started,response_2.stopped,mouse_2.x,mouse_2.y,mouse_2.leftButton,mouse_2.midButton,mouse_2.rightButton,mouse_2.clicked_name,special_trial.started,special_trial.stopped,catch_1.started,catch_1.stopped,mouse_3.x,mouse_3.y,mouse_3.leftButton,mouse_3.midButton,mouse_3.rightButton,catchresponse,catchnumber,response_time_catch,response_sum.started,response_sum.stopped,mouse_11.x,mouse_11.y,mouse_11.leftButton,mouse_11.midButton,mouse_11.rightButton,flip_presentation_sequence_for_double_pass.started,flip_presentation_sequence_for_double_pass.stopped,goodbye.started,goodbye.stopped,key_resp_3.keys,key_resp_3.rt,key_resp_3.duration
0.0002,0.0003,5a732956f660ae0001a9b011,2026-03-17_15h08.54.692,kallum_motion_pilot_GIST_update_2,2026.1.1,Win32,59.52380952,5a732956f660ae0001a9b011,69b95efdef24cd8a694e89ee,69b95ffe19e871b7812a8d5c,,,,,,,,,,,,,,,,,,,,,,,,,,,,,,,,,,,,,,,,,,,,,,,,,,,,,,,,,,,,,,,,,,,,,,,,,,,,,,,,,,,,,,,,,,,,,,,,,,,,,,,,,,,,,,,,,,,,,,,,,,,,,,,,,,,,,,,,,,,,,,,,,
,,5a732956f660ae0001a9b011,2026-03-17_15h08.54.692,kallum_motion_pilot_GIST_update_2,2026.1.1,Win32,59.52380952,5a732956f660ae0001a9b011,69b95efdef24cd8a694e89ee,69b95ffe19e871b7812a8d5c,0.0163,0.0164,0,0,0,110,1,eightsix,,,,,,,,,,,,,,,,,,,,,,,,,,,,,,,,,,,,,,,,,,,,,,,,,,,,,,,,,,,,,,,,,,,,,,,,,,,,,,,,,,,,,,,,,,,,,,,,,,,,,,,,,,,,,,,,,,,,,,,,,,,,,,,,,,,,,,,,,
,,5a732956f660ae0001a9b011,2026-03-17_15h08.54.692,kallum_motion_pilot_GIST_update_2,2026.1.1,Win32,59.52380952,5a732956f660ae0001a9b011,69b95efdef24cd8a694e89ee,69b95ffe19e871b7812a8d5c,0.0167,0.0167,0,1,1,153,1,fiveseven,,,,,,,,,,,,,,,,,,,,,,,,,,,,,,,,,,,,,,,,,,,,,,,,,,,,,,,,,,,,,,,,,,,,,,,,,,,,,,,,,,,,,,,,,,,,,,,,,,,,,,,,,,,,,,,,,,,,,,,,,,,,,,,,,,,,,,,,,
,,5a732956f660ae0001a9b011,2026-03-17_15h08.54.692,kallum_motion_pilot_GIST_update_2,2026.1.1,Win32,59.52380952,5a732956f660ae0001a9b011,69b95efdef24cd8a694e89ee,69b95ffe19e871b7812a8d5c,0.0169,0.0169,0,2,2,159,1,eightseven,,,,,,,,,,,,,,,,,,,,,,,,,,,,,,,,,,,,,,,,,,,,,,,,,,,,,,,,,,,,,,,,,,,,,,,,,,,,,,,,,,,,,,,,,,,,,,,,,,,,,,,,,,,,,,,,,,,,,,,,,,,,,,,,,,,,,,,,,
,,5a732956f660ae0001a9b011,2026-03-17_15h08.54.692,kallum_motion_pilot_GIST_update_2,2026.1.1,Win32,59.52380952,5a732956f660ae0001a9b011,69b95efdef24cd8a694e89ee,69b95ffe19e871b7812a8d5c,0.017,0.0171,0,3,3,115,1,sixeight,,,,,,,,,,,,,,,,,,,,,,,,,,,,,,,,,,,,,,,,,,,,,,,,,,,,,,,,,,,,,,,,,,,,,,,,,,,,,,,,,,,,,,,,,,,,,,,,,,,,,,,,,,,,,,,,,,,,,,,,,,,,,,,,,,,,,,,,,
,,5a732956f660ae0001a9b011,2026-03-17_15h08.54.692,kallum_motion_pilot_GIST_update_2,2026.1.1,Win32,59.52380952,5a732956f660ae0001a9b011,69b95efdef24cd8a694e89ee,69b95ffe19e871b7812a8d5c,0.0172,0.0173,0,4,4,137,1,fiveseven,,,,,,,,,,,,,,,,,,,,,,,,,,,,,,,,,,,,,,,,,,,,,,,,,,,,,,,,,,,,,,,,,,,,,,,,,,,,,,,,,,,,,,,,,,,,,,,,,,,,,,,,,,,,,,,,,,,,,,,,,,,,,,,,,,,,,,,,,
,,5a732956f660ae0001a9b011,2026-03-17_15h08.54.692,kallum_motion_pilot_GIST_update_2,2026.1.1,Win32,59.52380952,5a732956f660ae0001a9b011,69b95efdef24cd8a694e89ee,69b95ffe19e871b7812a8d5c,0.0175,0.0175,0,5,5,46,1,fourtwo,,,,,,,,,,,,,,,,,,,,,,,,,,,,,,,,,,,,,,,,,,,,,,,,,,,,,,,,,,,,,,,,,,,,,,,,,,,,,,,,,,,,,,,,,,,,,,,,,,,,,,,,,,,,,,,,,,,,,,,,,,,,,,,,,,,,,,,,,
,,5a732956f660ae0001a9b011,2026-03-17_15h08.54.692,kallum_motion_pilot_GIST_update_2,2026.1.1,Win32,59.52380952,5a732956f660ae0001a9b011,69b95efdef24cd8a694e89ee,69b95ffe19e871b7812a8d5c,0.0176,0.0176,0,6,6,134,1,eightsix,,,,,,,,,,,,,,,,,,,,,,,,,,,,,,,,,,,,,,,,,,,,,,,,,,,,,,,,,,,,,,,,,,,,,,,,,,,,,,,,,,,,,,,,,,,,,,,,,,,,,,,,,,,,,,,,,,,,,,,,,,,,,,,,,,,,,,,,,
,,5a732956f660ae0001a9b011,2026-03-17_15h08.54.692,kallum_motion_pilot_GIST_update_2,2026.1.1,Win32,59.52380952,5a732956f660ae0001a9b011,69b95efdef24cd8a694e89ee,69b95ffe19e871b7812a8d5c,0.0178,0.0178,0,7,7,88,1,fivesix,,,,,,,,,,,,,,,,,,,,,,,,,,,,,,,,,,,,,,,,,,,,,,,,,,,,,,,,,,,,,,,,,,,,,,,,,,,,,,,,,,,,,,,,,,,,,,,,,,,,,,,,,,,,,,,,,,,,,,,,,,,,,,,,,,,,,,,,,
,,5a732956f660ae0001a9b011,2026-03-17_15h08.54.692,kallum_motion_pilot_GIST_update_2,2026.1.1,Win32,59.52380952,5a732956f660ae0001a9b011,69b95efdef24cd8a694e89ee,69b95ffe19e871b7812a8d5c,0.018,0.0181,0,8,8,54,1,fourtwo,,,,,,,,,,,,,,,,,,,,,,,,,,,,,,,,,,,,,,,,,,,,,,,,,,,,,,,,,,,,,,,,,,,,,,,,,,,,,,,,,,,,,,,,,,,,,,,,,,,,,,,,,,,,,,,,,,,,,,,,,,,,,,,,,,,,,,,,,
,,5a732956f660ae0001a9b011,2026-03-17_15h08.54.692,kallum_motion_pilot_GIST_update_2,2026.1.1,Win32,59.52380952,5a732956f660ae0001a9b011,69b95efdef24cd8a694e89ee,69b95ffe19e871b7812a8d5c,0.0182,0.0182,0,9,9,27,1,twofour,,,,,,,,,,,,,,,,,,,,,,,,,,,,,,,,,,,,,,,,,,,,,,,,,,,,,,,,,,,,,,,,,,,,,,,,,,,,,,,,,,,,,,,,,,,,,,,,,,,,,,,,,,,,,,,,,,,,,,,,,,,,,,,,,,,,,,,,,
,,5a732956f660ae0001a9b011,2026-03-17_15h08.54.692,kallum_motion_pilot_GIST_update_2,2026.1.1,Win32,59.52380952,5a732956f660ae0001a9b011,69b95efdef24cd8a694e89ee,69b95ffe19e871b7812a8d5c,0.0183,0.0183,0,10,10,37,1,threefour,,,,,,,,,,,,,,,,,,,,,,,,,,,,,,,,,,,,,,,,,,,,,,,,,,,,,,,,,,,,,,,,,,,,,,,,,,,,,,,,,,,,,,,,,,,,,,,,,,,,,,,,,,,,,,,,,,,,,,,,,,,,,,,,,,,,,,,,,
,,5a732956f660ae0001a9b011,2026-03-17_15h08.54.692,kallum_motion_pilot_GIST_update_2,2026.1.1,Win32,59.52380952,5a732956f660ae0001a9b011,69b95efdef24cd8a694e89ee,69b95ffe19e871b7812a8d5c,0.0185,0.0185,0,11,11,143,1,eightseven,,,,,,,,,,,,,,,,,,,,,,,,,,,,,,,,,,,,,,,,,,,,,,,,,,,,,,,,,,,,,,,,,,,,,,,,,,,,,,,,,,,,,,,,,,,,,,,,,,,,,,,,,,,,,,,,,,,,,,,,,,,,,,,,,,,,,,,,,
,,5a732956f660ae0001a9b011,2026-03-17_15h08.54.692,kallum_motion_pilot_GIST_update_2,2026.1.1,Win32,59.52380952,5a732956f660ae0001a9b011,69b95efdef24cd8a694e89ee,69b95ffe19e871b7812a8d5c,0.0187,0.0187,0,12,12,141,1,seveneight,,,,,,,,,,,,,,,,,,,,,,,,,,,,,,,,,,,,,,,,,,,,,,,,,,,,,,,,,,,,,,,,,,,,,,,,,,,,,,,,,,,,,,,,,,,,,,,,,,,,,,,,,,,,,,,,,,,,,,,,,,,,,,,,,,,,,,,,,
,,5a732956f660ae0001a9b011,2026-03-17_15h08.54.692,kallum_motion_pilot_GIST_update_2,2026.1.1,Win32,59.52380952,5a732956f660ae0001a9b011,69b95efdef24cd8a694e89ee,69b95ffe19e871b7812a8d5c,0.0189,0.0189,0,13,13,111,1,eightseven,,,,,,,,,,,,,,,,,,,,,,,,,,,,,,,,,,,,,,,,,,,,,,,,,,,,,,,,,,,,,,,,,,,,,,,,,,,,,,,,,,,,,,,,,,,,,,,,,,,,,,,,,,,,,,,,,,,,,,,,,,,,,,,,,,,,,,,,,
,,5a732956f660ae0001a9b011,2026-03-17_15h08.54.692,kallum_motion_pilot_GIST_update_2,2026.1.1,Win32,59.52380952,5a732956f660ae0001a9b011,69b95efdef24cd8a694e89ee,69b95ffe19e871b7812a8d5c,0.019,0.019,0,14,14,8,1,onetwo,,,,,,,,,,,,,,,,,,,,,,,,,,,,,,,,,,,,,,,,,,,,,,,,,,,,,,,,,,,,,,,,,,,,,,,,,,,,,,,,,,,,,,,,,,,,,,,,,,,,,,,,,,,,,,,,,,,,,,,,,,,,,,,,,,,,,,,,,
,,5a732956f660ae0001a9b011,2026-03-17_15h08.54.692,kallum_motion_pilot_GIST_update_2,2026.1.1,Win32,59.52380952,5a732956f660ae0001a9b011,69b95efdef24cd8a694e89ee,69b95ffe19e871b7812a8d5c,0.0192,0.0192,0,15,15,12,1,threeone,,,,,,,,,,,,,,,,,,,,,,,,,,,,,,,,,,,,,,,,,,,,,,,,,,,,,,,,,,,,,,,,,,,,,,,,,,,,,,,,,,,,,,,,,,,,,,,,,,,,,,,,,,,,,,,,,,,,,,,,,,,,,,,,,,,,,,,,,
,,5a732956f660ae0001a9b011,2026-03-17_15h08.54.692,kallum_motion_pilot_GIST_update_2,2026.1.1,Win32,59.52380952,5a732956f660ae0001a9b011,69b95efdef24cd8a694e89ee,69b95ffe19e871b7812a8d5c,0.0194,0.0194,0,16,16,139,1,sixeight,,,,,,,,,,,,,,,,,,,,,,,,,,,,,,,,,,,,,,,,,,,,,,,,,,,,,,,,,,,,,,,,,,,,,,,,,,,,,,,,,,,,,,,,,,,,,,,,,,,,,,,,,,,,,,,,,,,,,,,,,,,,,,,,,,,,,,,,,
,,5a732956f660ae0001a9b011,2026-03-17_15h08.54.692,kallum_motion_pilot_GIST_update_2,2026.1.1,Win32,59.52380952,5a732956f660ae0001a9b011,69b95efdef24cd8a694e89ee,69b95ffe19e871b7812a8d5c,0.0195,0.0195,0,17,17,95,1,eightseven,,,,,,,,,,,,,,,,,,,,,,,,,,,,,,,,,,,,,,,,,,,,,,,,,,,,,,,,,,,,,,,,,,,,,,,,,,,,,,,,,,,,,,,,,,,,,,,,,,,,,,,,,,,,,,,,,,,,,,,,,,,,,,,,,,,,,,,,,
,,5a732956f660ae0001a9b011,2026-03-17_15h08.54.692,kallum_motion_pilot_GIST_update_2,2026.1.1,Win32,59.52380952,5a732956f660ae0001a9b011,69b95efdef24cd8a694e89ee,69b95ffe19e871b7812a8d5c,0.0196,0.0197,0,18,18,20,1,threeone,,,,,,,,,,,,,,,,,,,,,,,,,,,,,,,,,,,,,,,,,,,,,,,,,,,,,,,,,,,,,,,,,,,,,,,,,,,,,,,,,,,,,,,,,,,,,,,,,,,,,,,,,,,,,,,,,,,,,,,,,,,,,,,,,,,,,,,,,
,,5a732956f660ae0001a9b011,2026-03-17_15h08.54.692,kallum_motion_pilot_GIST_update_2,2026.1.1,Win32,59.52380952,5a732956f660ae0001a9b011,69b95efdef24cd8a694e89ee,69b95ffe19e871b7812a8d5c,0.0198,0.0198,0,19,19,142,1,eightsix,,,,,,,,,,,,,,,,,,,,,,,,,,,,,,,,,,,,,,,,,,,,,,,,,,,,,,,,,,,,,,,,,,,,,,,,,,,,,,,,,,,,,,,,,,,,,,,,,,,,,,,,,,,,,,,,,,,,,,,,,,,,,,,,,,,,,,,,,
,,5a732956f660ae0001a9b011,2026-03-17_15h08.54.692,kallum_motion_pilot_GIST_update_2,2026.1.1,Win32,59.52380952,5a732956f660ae0001a9b011,69b95efdef24cd8a694e89ee,69b95ffe19e871b7812a8d5c,0.02,0.02,0,20,20,18,1,twoone,,,,,,,,,,,,,,,,,,,,,,,,,,,,,,,,,,,,,,,,,,,,,,,,,,,,,,,,,,,,,,,,,,,,,,,,,,,,,,,,,,,,,,,,,,,,,,,,,,,,,,,,,,,,,,,,,,,,,,,,,,,,,,,,,,,,,,,,,
,,5a732956f660ae0001a9b011,2026-03-17_15h08.54.692,kallum_motion_pilot_GIST_update_2,2026.1.1,Win32,59.52380952,5a732956f660ae0001a9b011,69b95efdef24cd8a694e89ee,69b95ffe19e871b7812a8d5c,0.0202,0.0202,0,21,21,63,1,fourthree,,,,,,,,,,,,,,,,,,,,,,,,,,,,,,,,,,,,,,,,,,,,,,,,,,,,,,,,,,,,,,,,,,,,,,,,,,,,,,,,,,,,,,,,,,,,,,,,,,,,,,,,,,,,,,,,,,,,,,,,,,,,,,,,,,,,,,,,,
,,5a732956f660ae0001a9b011,2026-03-17_15h08.54.692,kallum_motion_pilot_GIST_update_2,2026.1.1,Win32,59.52380952,5a732956f660ae0001a9b011,69b95efdef24cd8a694e89ee,69b95ffe19e871b7812a8d5c,0.0203,0.0203,0,22,22,82,1,sixfive,,,,,,,,,,,,,,,,,,,,,,,,,,,,,,,,,,,,,,,,,,,,,,,,,,,,,,,,,,,,,,,,,,,,,,,,,,,,,,,,,,,,,,,,,,,,,,,,,,,,,,,,,,,,,,,,,,,,,,,,,,,,,,,,,,,,,,,,,
,,5a732956f660ae0001a9b011,2026-03-17_15h08.54.692,kallum_motion_pilot_GIST_update_2,2026.1.1,Win32,59.52380952,5a732956f660ae0001a9b011,69b95efdef24cd8a694e89ee,69b95ffe19e871b7812a8d5c,0.0205,0.0205,0,23,23,81,1,fiveseven,,,,,,,,,,,,,,,,,,,,,,,,,,,,,,,,,,,,,,,,,,,,,,,,,,,,,,,,,,,,,,,,,,,,,,,,,,,,,,,,,,,,,,,,,,,,,,,,,,,,,,,,,,,,,,,,,,,,,,,,,,,,,,,,,,,,,,,,,
,,5a732956f660ae0001a9b011,2026-03-17_15h08.54.692,kallum_motion_pilot_GIST_update_2,2026.1.1,Win32,59.52380952,5a732956f660ae0001a9b011,69b95efdef24cd8a694e89ee,69b95ffe19e871b7812a8d5c,0.0206,0.0206,0,24,24,2,1,twoone,,,,,,,,,,,,,,,,,,,,,,,,,,,,,,,,,,,,,,,,,,,,,,,,,,,,,,,,,,,,,,,,,,,,,,,,,,,,,,,,,,,,,,,,,,,,,,,,,,,,,,,,,,,,,,,,,,,,,,,,,,,,,,,,,,,,,,,,,
,,5a732956f660ae0001a9b011,2026-03-17_15h08.54.692,kallum_motion_pilot_GIST_update_2,2026.1.1,Win32,59.52380952,5a732956f660ae0001a9b011,69b95efdef24cd8a694e89ee,69b95ffe19e871b7812a8d5c,0.0208,0.0208,0,25,25,79,1,eightseven,,,,,,,,,,,,,,,,,,,,,,,,,,,,,,,,,,,,,,,,,,,,,,,,,,,,,,,,,,,,,,,,,,,,,,,,,,,,,,,,,,,,,,,,,,,,,,,,,,,,,,,,,,,,,,,,,,,,,,,,,,,,,,,,,,,,,,,,,
,,5a732956f660ae0001a9b011,2026-03-17_15h08.54.692,kallum_motion_pilot_GIST_update_2,2026.1.1,Win32,59.52380952,5a732956f660ae0001a9b011,69b95efdef24cd8a694e89ee,69b95ffe19e871b7812a8d5c,0.021,0.021,0,26,26,154,1,sixfive,,,,,,,,,,,,,,,,,,,,,,,,,,,,,,,,,,,,,,,,,,,,,,,,,,,,,,,,,,,,,,,,,,,,,,,,,,,,,,,,,,,,,,,,,,,,,,,,,,,,,,,,,,,,,,,,,,,,,,,,,,,,,,,,,,,,,,,,,
,,5a732956f660ae0001a9b011,2026-03-17_15h08.54.692,kallum_motion_pilot_GIST_update_2,2026.1.1,Win32,59.52380952,5a732956f660ae0001a9b011,69b95efdef24cd8a694e89ee,69b95ffe19e871b7812a8d5c,0.0212,0.0212,0,27,27,90,1,sixfive,,,,,,,,,,,,,,,,,,,,,,,,,,,,,,,,,,,,,,,,,,,,,,,,,,,,,,,,,,,,,,,,,,,,,,,,,,,,,,,,,,,,,,,,,,,,,,,,,,,,,,,,,,,,,,,,,,,,,,,,,,,,,,,,,,,,,,,,,
,,5a732956f660ae0001a9b011,2026-03-17_15h08.54.692,kallum_motion_pilot_GIST_update_2,2026.1.1,Win32,59.52380952,5a732956f660ae0001a9b011,69b95efdef24cd8a694e89ee,69b95ffe19e871b7812a8d5c,0.0213,0.0213,0,28,28,34,1,twoone,,,,,,,,,,,,,,,,,,,,,,,,,,,,,,,,,,,,,,,,,,,,,,,,,,,,,,,,,,,,,,,,,,,,,,,,,,,,,,,,,,,,,,,,,,,,,,,,,,,,,,,,,,,,,,,,,,,,,,,,,,,,,,,,,,,,,,,,,
,,5a732956f660ae0001a9b011,2026-03-17_15h08.54.692,kallum_motion_pilot_GIST_update_2,2026.1.1,Win32,59.52380952,5a732956f660ae0001a9b011,69b95efdef24cd8a694e89ee,69b95ffe19e871b7812a8d5c,0.0214,0.0214,0,29,29,132,1,sevenfive,,,,,,,,,,,,,,,,,,,,,,,,,,,,,,,,,,,,,,,,,,,,,,,,,,,,,,,,,,,,,,,,,,,,,,,,,,,,,,,,,,,,,,,,,,,,,,,,,,,,,,,,,,,,,,,,,,,,,,,,,,,,,,,,,,,,,,,,,
,,5a732956f660ae0001a9b011,2026-03-17_15h08.54.692,kallum_motion_pilot_GIST_update_2,2026.1.1,Win32,59.52380952,5a732956f660ae0001a9b011,69b95efdef24cd8a694e89ee,69b95ffe19e871b7812a8d5c,0.0216,0.0216,0,30,30,118,1,eightsix,,,,,,,,,,,,,,,,,,,,,,,,,,,,,,,,,,,,,,,,,,,,,,,,,,,,,,,,,,,,,,,,,,,,,,,,,,,,,,,,,,,,,,,,,,,,,,,,,,,,,,,,,,,,,,,,,,,,,,,,,,,,,,,,,,,,,,,,,
,,5a732956f660ae0001a9b011,2026-03-17_15h08.54.692,kallum_motion_pilot_GIST_update_2,2026.1.1,Win32,59.52380952,5a732956f660ae0001a9b011,69b95efdef24cd8a694e89ee,69b95ffe19e871b7812a8d5c,0.0218,0.0218,0,31,31,47,1,fourthree,,,,,,,,,,,,,,,,,,,,,,,,,,,,,,,,,,,,,,,,,,,,,,,,,,,,,,,,,,,,,,,,,,,,,,,,,,,,,,,,,,,,,,,,,,,,,,,,,,,,,,,,,,,,,,,,,,,,,,,,,,,,,,,,,,,,,,,,,
,,5a732956f660ae0001a9b011,2026-03-17_15h08.54.692,kallum_motion_pilot_GIST_update_2,2026.1.1,Win32,59.52380952,5a732956f660ae0001a9b011,69b95efdef24cd8a694e89ee,69b95ffe19e871b7812a8d5c,0.0219,0.022,0,32,32,101,1,seveneight,,,,,,,,,,,,,,,,,,,,,,,,,,,,,,,,,,,,,,,,,,,,,,,,,,,,,,,,,,,,,,,,,,,,,,,,,,,,,,,,,,,,,,,,,,,,,,,,,,,,,,,,,,,,,,,,,,,,,,,,,,,,,,,,,,,,,,,,,
,,5a732956f660ae0001a9b011,2026-03-17_15h08.54.692,kallum_motion_pilot_GIST_update_2,2026.1.1,Win32,59.52380952,5a732956f660ae0001a9b011,69b95efdef24cd8a694e89ee,69b95ffe19e871b7812a8d5c,0.0221,0.0221,0,33,33,93,1,seveneight,,,,,,,,,,,,,,,,,,,,,,,,,,,,,,,,,,,,,,,,,,,,,,,,,,,,,,,,,,,,,,,,,,,,,,,,,,,,,,,,,,,,,,,,,,,,,,,,,,,,,,,,,,,,,,,,,,,,,,,,,,,,,,,,,,,,,,,,,
,,5a732956f660ae0001a9b011,2026-03-17_15h08.54.692,kallum_motion_pilot_GIST_update_2,2026.1.1,Win32,59.52380952,5a732956f660ae0001a9b011,69b95efdef24cd8a694e89ee,69b95ffe19e871b7812a8d5c,0.0222,0.0222,0,34,34,98,1,sixfive,,,,,,,,,,,,,,,,,,,,,,,,,,,,,,,,,,,,,,,,,,,,,,,,,,,,,,,,,,,,,,,,,,,,,,,,,,,,,,,,,,,,,,,,,,,,,,,,,,,,,,,,,,,,,,,,,,,,,,,,,,,,,,,,,,,,,,,,,
,,5a732956f660ae0001a9b011,2026-03-17_15h08.54.692,kallum_motion_pilot_GIST_update_2,2026.1.1,Win32,59.52380952,5a732956f660ae0001a9b011,69b95efdef24cd8a694e89ee,69b95ffe19e871b7812a8d5c,0.0225,0.0225,0,35,35,75,1,twofour,,,,,,,,,,,,,,,,,,,,,,,,,,,,,,,,,,,,,,,,,,,,,,,,,,,,,,,,,,,,,,,,,,,,,,,,,,,,,,,,,,,,,,,,,,,,,,,,,,,,,,,,,,,,,,,,,,,,,,,,,,,,,,,,,,,,,,,,,
,,5a732956f660ae0001a9b011,2026-03-17_15h08.54.692,kallum_motion_pilot_GIST_update_2,2026.1.1,Win32,59.52380952,5a732956f660ae0001a9b011,69b95efdef24cd8a694e89ee,69b95ffe19e871b7812a8d5c,0.0227,0.0227,0,36,36,144,1,fivesix,,,,,,,,,,,,,,,,,,,,,,,,,,,,,,,,,,,,,,,,,,,,,,,,,,,,,,,,,,,,,,,,,,,,,,,,,,,,,,,,,,,,,,,,,,,,,,,,,,,,,,,,,,,,,,,,,,,,,,,,,,,,,,,,,,,,,,,,,
,,5a732956f660ae0001a9b011,2026-03-17_15h08.54.692,kallum_motion_pilot_GIST_update_2,2026.1.1,Win32,59.52380952,5a732956f660ae0001a9b011,69b95efdef24cd8a694e89ee,69b95ffe19e871b7812a8d5c,0.0228,0.0228,0,37,37,91,1,sixeight,,,,,,,,,,,,,,,,,,,,,,,,,,,,,,,,,,,,,,,,,,,,,,,,,,,,,,,,,,,,,,,,,,,,,,,,,,,,,,,,,,,,,,,,,,,,,,,,,,,,,,,,,,,,,,,,,,,,,,,,,,,,,,,,,,,,,,,,,
,,5a732956f660ae0001a9b011,2026-03-17_15h08.54.692,kallum_motion_pilot_GIST_update_2,2026.1.1,Win32,59.52380952,5a732956f660ae0001a9b011,69b95efdef24cd8a694e89ee,69b95ffe19e871b7812a8d5c,0.023,0.023,0,38,38,127,1,eightseven,,,,,,,,,,,,,,,,,,,,,,,,,,,,,,,,,,,,,,,,,,,,,,,,,,,,,,,,,,,,,,,,,,,,,,,,,,,,,,,,,,,,,,,,,,,,,,,,,,,,,,,,,,,,,,,,,,,,,,,,,,,,,,,,,,,,,,,,,
,,5a732956f660ae0001a9b011,2026-03-17_15h08.54.692,kallum_motion_pilot_GIST_update_2,2026.1.1,Win32,59.52380952,5a732956f660ae0001a9b011,69b95efdef24cd8a694e89ee,69b95ffe19e871b7812a8d5c,0.0231,0.0231,0,39,39,24,1,onetwo,,,,,,,,,,,,,,,,,,,,,,,,,,,,,,,,,,,,,,,,,,,,,,,,,,,,,,,,,,,,,,,,,,,,,,,,,,,,,,,,,,,,,,,,,,,,,,,,,,,,,,,,,,,,,,,,,,,,,,,,,,,,,,,,,,,,,,,,,
,,5a732956f660ae0001a9b011,2026-03-17_15h08.54.692,kallum_motion_pilot_GIST_update_2,2026.1.1,Win32,59.52380952,5a732956f660ae0001a9b011,69b95efdef24cd8a694e89ee,69b95ffe19e871b7812a8d5c,0.0233,0.0233,0,40,40,113,1,fiveseven,,,,,,,,,,,,,,,,,,,,,,,,,,,,,,,,,,,,,,,,,,,,,,,,,,,,,,,,,,,,,,,,,,,,,,,,,,,,,,,,,,,,,,,,,,,,,,,,,,,,,,,,,,,,,,,,,,,,,,,,,,,,,,,,,,,,,,,,,
,,5a732956f660ae0001a9b011,2026-03-17_15h08.54.692,kallum_motion_pilot_GIST_update_2,2026.1.1,Win32,59.52380952,5a732956f660ae0001a9b011,69b95efdef24cd8a694e89ee,69b95ffe19e871b7812a8d5c,0.0235,0.0235,0,41,41,99,1,sixeight,,,,,,,,,,,,,,,,,,,,,,,,,,,,,,,,,,,,,,,,,,,,,,,,,,,,,,,,,,,,,,,,,,,,,,,,,,,,,,,,,,,,,,,,,,,,,,,,,,,,,,,,,,,,,,,,,,,,,,,,,,,,,,,,,,,,,,,,,
,,5a732956f660ae0001a9b011,2026-03-17_15h08.54.692,kallum_motion_pilot_GIST_update_2,2026.1.1,Win32,59.52380952,5a732956f660ae0001a9b011,69b95efdef24cd8a694e89ee,69b95ffe19e871b7812a8d5c,0.0237,0.0237,0,42,42,78,1,fourtwo,,,,,,,,,,,,,,,,,,,,,,,,,,,,,,,,,,,,,,,,,,,,,,,,,,,,,,,,,,,,,,,,,,,,,,,,,,,,,,,,,,,,,,,,,,,,,,,,,,,,,,,,,,,,,,,,,,,,,,,,,,,,,,,,,,,,,,,,,
,,5a732956f660ae0001a9b011,2026-03-17_15h08.54.692,kallum_motion_pilot_GIST_update_2,2026.1.1,Win32,59.52380952,5a732956f660ae0001a9b011,69b95efdef24cd8a694e89ee,69b95ffe19e871b7812a8d5c,0.0238,0.0238,0,43,43,92,1,sevenfive,,,,,,,,,,,,,,,,,,,,,,,,,,,,,,,,,,,,,,,,,,,,,,,,,,,,,,,,,,,,,,,,,,,,,,,,,,,,,,,,,,,,,,,,,,,,,,,,,,,,,,,,,,,,,,,,,,,,,,,,,,,,,,,,,,,,,,,,,
,,5a732956f660ae0001a9b011,2026-03-17_15h08.54.692,kallum_motion_pilot_GIST_update_2,2026.1.1,Win32,59.52380952,5a732956f660ae0001a9b011,69b95efdef24cd8a694e89ee,69b95ffe19e871b7812a8d5c,0.024,0.024,0,44,44,87,1,eightseven,,,,,,,,,,,,,,,,,,,,,,,,,,,,,,,,,,,,,,,,,,,,,,,,,,,,,,,,,,,,,,,,,,,,,,,,,,,,,,,,,,,,,,,,,,,,,,,,,,,,,,,,,,,,,,,,,,,,,,,,,,,,,,,,,,,,,,,,,
,,5a732956f660ae0001a9b011,2026-03-17_15h08.54.692,kallum_motion_pilot_GIST_update_2,2026.1.1,Win32,59.52380952,5a732956f660ae0001a9b011,69b95efdef24cd8a694e89ee,69b95ffe19e871b7812a8d5c,0.0242,0.0242,0,45,45,131,1,sixeight,,,,,,,,,,,,,,,,,,,,,,,,,,,,,,,,,,,,,,,,,,,,,,,,,,,,,,,,,,,,,,,,,,,,,,,,,,,,,,,,,,,,,,,,,,,,,,,,,,,,,,,,,,,,,,,,,,,,,,,,,,,,,,,,,,,,,,,,,
,,5a732956f660ae0001a9b011,2026-03-17_15h08.54.692,kallum_motion_pilot_GIST_update_2,2026.1.1,Win32,59.52380952,5a732956f660ae0001a9b011,69b95efdef24cd8a694e89ee,69b95ffe19e871b7812a8d5c,0.0243,0.0244,0,46,46,86,1,eightsix,,,,,,,,,,,,,,,,,,,,,,,,,,,,,,,,,,,,,,,,,,,,,,,,,,,,,,,,,,,,,,,,,,,,,,,,,,,,,,,,,,,,,,,,,,,,,,,,,,,,,,,,,,,,,,,,,,,,,,,,,,,,,,,,,,,,,,,,,
,,5a732956f660ae0001a9b011,2026-03-17_15h08.54.692,kallum_motion_pilot_GIST_update_2,2026.1.1,Win32,59.52380952,5a732956f660ae0001a9b011,69b95efdef24cd8a694e89ee,69b95ffe19e871b7812a8d5c,0.0245,0.0245,0,47,47,13,1,threefour,,,,,,,,,,,,,,,,,,,,,,,,,,,,,,,,,,,,,,,,,,,,,,,,,,,,,,,,,,,,,,,,,,,,,,,,,,,,,,,,,,,,,,,,,,,,,,,,,,,,,,,,,,,,,,,,,,,,,,,,,,,,,,,,,,,,,,,,,
,,5a732956f660ae0001a9b011,2026-03-17_15h08.54.692,kallum_motion_pilot_GIST_update_2,2026.1.1,Win32,59.52380952,5a732956f660ae0001a9b011,69b95efdef24cd8a694e89ee,69b95ffe19e871b7812a8d5c,0.0248,0.0248,0,48,48,56,1,onetwo,,,,,,,,,,,,,,,,,,,,,,,,,,,,,,,,,,,,,,,,,,,,,,,,,,,,,,,,,,,,,,,,,,,,,,,,,,,,,,,,,,,,,,,,,,,,,,,,,,,,,,,,,,,,,,,,,,,,,,,,,,,,,,,,,,,,,,,,,
,,5a732956f660ae0001a9b011,2026-03-17_15h08.54.692,kallum_motion_pilot_GIST_update_2,2026.1.1,Win32,59.52380952,5a732956f660ae0001a9b011,69b95efdef24cd8a694e89ee,69b95ffe19e871b7812a8d5c,0.025,0.025,0,49,49,150,1,eightsix,,,,,,,,,,,,,,,,,,,,,,,,,,,,,,,,,,,,,,,,,,,,,,,,,,,,,,,,,,,,,,,,,,,,,,,,,,,,,,,,,,,,,,,,,,,,,,,,,,,,,,,,,,,,,,,,,,,,,,,,,,,,,,,,,,,,,,,,,
,,5a732956f660ae0001a9b011,2026-03-17_15h08.54.692,kallum_motion_pilot_GIST_update_2,2026.1.1,Win32,59.52380952,5a732956f660ae0001a9b011,69b95efdef24cd8a694e89ee,69b95ffe19e871b7812a8d5c,0.0252,0.0252,0,50,50,136,1,fivesix,,,,,,,,,,,,,,,,,,,,,,,,,,,,,,,,,,,,,,,,,,,,,,,,,,,,,,,,,,,,,,,,,,,,,,,,,,,,,,,,,,,,,,,,,,,,,,,,,,,,,,,,,,,,,,,,,,,,,,,,,,,,,,,,,,,,,,,,,
,,5a732956f660ae0001a9b011,2026-03-17_15h08.54.692,kallum_motion_pilot_GIST_update_2,2026.1.1,Win32,59.52380952,5a732956f660ae0001a9b011,69b95efdef24cd8a694e89ee,69b95ffe19e871b7812a8d5c,0.0253,0.0253,0,51,51,112,1,fivesix,,,,,,,,,,,,,,,,,,,,,,,,,,,,,,,,,,,,,,,,,,,,,,,,,,,,,,,,,,,,,,,,,,,,,,,,,,,,,,,,,,,,,,,,,,,,,,,,,,,,,,,,,,,,,,,,,,,,,,,,,,,,,,,,,,,,,,,,,
,,5a732956f660ae0001a9b011,2026-03-17_15h08.54.692,kallum_motion_pilot_GIST_update_2,2026.1.1,Win32,59.52380952,5a732956f660ae0001a9b011,69b95efdef24cd8a694e89ee,69b95ffe19e871b7812a8d5c,0.0255,0.0256,0,52,52,84,1,sevenfive,,,,,,,,,,,,,,,,,,,,,,,,,,,,,,,,,,,,,,,,,,,,,,,,,,,,,,,,,,,,,,,,,,,,,,,,,,,,,,,,,,,,,,,,,,,,,,,,,,,,,,,,,,,,,,,,,,,,,,,,,,,,,,,,,,,,,,,,,
,,5a732956f660ae0001a9b011,2026-03-17_15h08.54.692,kallum_motion_pilot_GIST_update_2,2026.1.1,Win32,59.52380952,5a732956f660ae0001a9b011,69b95efdef24cd8a694e89ee,69b95ffe19e871b7812a8d5c,0.0257,0.0258,0,53,53,19,1,twofour,,,,,,,,,,,,,,,,,,,,,,,,,,,,,,,,,,,,,,,,,,,,,,,,,,,,,,,,,,,,,,,,,,,,,,,,,,,,,,,,,,,,,,,,,,,,,,,,,,,,,,,,,,,,,,,,,,,,,,,,,,,,,,,,,,,,,,,,,
,,5a732956f660ae0001a9b011,2026-03-17_15h08.54.692,kallum_motion_pilot_GIST_update_2,2026.1.1,Win32,59.52380952,5a732956f660ae0001a9b011,69b95efdef24cd8a694e89ee,69b95ffe19e871b7812a8d5c,0.0261,0.0261,0,54,54,21,1,threefour,,,,,,,,,,,,,,,,,,,,,,,,,,,,,,,,,,,,,,,,,,,,,,,,,,,,,,,,,,,,,,,,,,,,,,,,,,,,,,,,,,,,,,,,,,,,,,,,,,,,,,,,,,,,,,,,,,,,,,,,,,,,,,,,,,,,,,,,,
,,5a732956f660ae0001a9b011,2026-03-17_15h08.54.692,kallum_motion_pilot_GIST_update_2,2026.1.1,Win32,59.52380952,5a732956f660ae0001a9b011,69b95efdef24cd8a694e89ee,69b95ffe19e871b7812a8d5c,0.0264,0.0264,0,55,55,36,1,threeone,,,,,,,,,,,,,,,,,,,,,,,,,,,,,,,,,,,,,,,,,,,,,,,,,,,,,,,,,,,,,,,,,,,,,,,,,,,,,,,,,,,,,,,,,,,,,,,,,,,,,,,,,,,,,,,,,,,,,,,,,,,,,,,,,,,,,,,,,
,,5a732956f660ae0001a9b011,2026-03-17_15h08.54.692,kallum_motion_pilot_GIST_update_2,2026.1.1,Win32,59.52380952,5a732956f660ae0001a9b011,69b95efdef24cd8a694e89ee,69b95ffe19e871b7812a8d5c,0.0266,0.0266,0,56,56,62,1,fourtwo,,,,,,,,,,,,,,,,,,,,,,,,,,,,,,,,,,,,,,,,,,,,,,,,,,,,,,,,,,,,,,,,,,,,,,,,,,,,,,,,,,,,,,,,,,,,,,,,,,,,,,,,,,,,,,,,,,,,,,,,,,,,,,,,,,,,,,,,,
,,5a732956f660ae0001a9b011,2026-03-17_15h08.54.692,kallum_motion_pilot_GIST_update_2,2026.1.1,Win32,59.52380952,5a732956f660ae0001a9b011,69b95efdef24cd8a694e89ee,69b95ffe19e871b7812a8d5c,0.0268,0.0268,0,57,57,49,1,onethree,,,,,,,,,,,,,,,,,,,,,,,,,,,,,,,,,,,,,,,,,,,,,,,,,,,,,,,,,,,,,,,,,,,,,,,,,,,,,,,,,,,,,,,,,,,,,,,,,,,,,,,,,,,,,,,,,,,,,,,,,,,,,,,,,,,,,,,,,
,,5a732956f660ae0001a9b011,2026-03-17_15h08.54.692,kallum_motion_pilot_GIST_update_2,2026.1.1,Win32,59.52380952,5a732956f660ae0001a9b011,69b95efdef24cd8a694e89ee,69b95ffe19e871b7812a8d5c,0.027,0.027,0,58,58,116,1,sevenfive,,,,,,,,,,,,,,,,,,,,,,,,,,,,,,,,,,,,,,,,,,,,,,,,,,,,,,,,,,,,,,,,,,,,,,,,,,,,,,,,,,,,,,,,,,,,,,,,,,,,,,,,,,,,,,,,,,,,,,,,,,,,,,,,,,,,,,,,,
,,5a732956f660ae0001a9b011,2026-03-17_15h08.54.692,kallum_motion_pilot_GIST_update_2,2026.1.1,Win32,59.52380952,5a732956f660ae0001a9b011,69b95efdef24cd8a694e89ee,69b95ffe19e871b7812a8d5c,0.0273,0.0273,0,59,59,14,1,fourtwo,,,,,,,,,,,,,,,,,,,,,,,,,,,,,,,,,,,,,,,,,,,,,,,,,,,,,,,,,,,,,,,,,,,,,,,,,,,,,,,,,,,,,,,,,,,,,,,,,,,,,,,,,,,,,,,,,,,,,,,,,,,,,,,,,,,,,,,,,
,,5a732956f660ae0001a9b011,2026-03-17_15h08.54.692,kallum_motion_pilot_GIST_update_2,2026.1.1,Win32,59.52380952,5a732956f660ae0001a9b011,69b95efdef24cd8a694e89ee,69b95ffe19e871b7812a8d5c,0.0275,0.0275,0,60,60,109,1,seveneight,,,,,,,,,,,,,,,,,,,,,,,,,,,,,,,,,,,,,,,,,,,,,,,,,,,,,,,,,,,,,,,,,,,,,,,,,,,,,,,,,,,,,,,,,,,,,,,,,,,,,,,,,,,,,,,,,,,,,,,,,,,,,,,,,,,,,,,,,
,,5a732956f660ae0001a9b011,2026-03-17_15h08.54.692,kallum_motion_pilot_GIST_update_2,2026.1.1,Win32,59.52380952,5a732956f660ae0001a9b011,69b95efdef24cd8a694e89ee,69b95ffe19e871b7812a8d5c,0.0277,0.0277,0,61,61,30,1,fourtwo,,,,,,,,,,,,,,,,,,,,,,,,,,,,,,,,,,,,,,,,,,,,,,,,,,,,,,,,,,,,,,,,,,,,,,,,,,,,,,,,,,,,,,,,,,,,,,,,,,,,,,,,,,,,,,,,,,,,,,,,,,,,,,,,,,,,,,,,,
,,5a732956f660ae0001a9b011,2026-03-17_15h08.54.692,kallum_motion_pilot_GIST_update_2,2026.1.1,Win32,59.52380952,5a732956f660ae0001a9b011,69b95efdef24cd8a694e89ee,69b95ffe19e871b7812a8d5c,0.0278,0.0278,0,62,62,157,1,seveneight,,,,,,,,,,,,,,,,,,,,,,,,,,,,,,,,,,,,,,,,,,,,,,,,,,,,,,,,,,,,,,,,,,,,,,,,,,,,,,,,,,,,,,,,,,,,,,,,,,,,,,,,,,,,,,,,,,,,,,,,,,,,,,,,,,,,,,,,,
,,5a732956f660ae0001a9b011,2026-03-17_15h08.54.692,kallum_motion_pilot_GIST_update_2,2026.1.1,Win32,59.52380952,5a732956f660ae0001a9b011,69b95efdef24cd8a694e89ee,69b95ffe19e871b7812a8d5c,0.0281,0.0281,0,63,63,28,1,threeone,,,,,,,,,,,,,,,,,,,,,,,,,,,,,,,,,,,,,,,,,,,,,,,,,,,,,,,,,,,,,,,,,,,,,,,,,,,,,,,,,,,,,,,,,,,,,,,,,,,,,,,,,,,,,,,,,,,,,,,,,,,,,,,,,,,,,,,,,
,,5a732956f660ae0001a9b011,2026-03-17_15h08.54.692,kallum_motion_pilot_GIST_update_2,2026.1.1,Win32,59.52380952,5a732956f660ae0001a9b011,69b95efdef24cd8a694e89ee,69b95ffe19e871b7812a8d5c,0.0283,0.0283,0,64,64,117,1,seveneight,,,,,,,,,,,,,,,,,,,,,,,,,,,,,,,,,,,,,,,,,,,,,,,,,,,,,,,,,,,,,,,,,,,,,,,,,,,,,,,,,,,,,,,,,,,,,,,,,,,,,,,,,,,,,,,,,,,,,,,,,,,,,,,,,,,,,,,,,
,,5a732956f660ae0001a9b011,2026-03-17_15h08.54.692,kallum_motion_pilot_GIST_update_2,2026.1.1,Win32,59.52380952,5a732956f660ae0001a9b011,69b95efdef24cd8a694e89ee,69b95ffe19e871b7812a8d5c,0.0285,0.0285,0,65,65,161,1,fiveseven,,,,,,,,,,,,,,,,,,,,,,,,,,,,,,,,,,,,,,,,,,,,,,,,,,,,,,,,,,,,,,,,,,,,,,,,,,,,,,,,,,,,,,,,,,,,,,,,,,,,,,,,,,,,,,,,,,,,,,,,,,,,,,,,,,,,,,,,,
,,5a732956f660ae0001a9b011,2026-03-17_15h08.54.692,kallum_motion_pilot_GIST_update_2,2026.1.1,Win32,59.52380952,5a732956f660ae0001a9b011,69b95efdef24cd8a694e89ee,69b95ffe19e871b7812a8d5c,0.0288,0.0288,0,66,66,29,1,threefour,,,,,,,,,,,,,,,,,,,,,,,,,,,,,,,,,,,,,,,,,,,,,,,,,,,,,,,,,,,,,,,,,,,,,,,,,,,,,,,,,,,,,,,,,,,,,,,,,,,,,,,,,,,,,,,,,,,,,,,,,,,,,,,,,,,,,,,,,
,,5a732956f660ae0001a9b011,2026-03-17_15h08.54.692,kallum_motion_pilot_GIST_update_2,2026.1.1,Win32,59.52380952,5a732956f660ae0001a9b011,69b95efdef24cd8a694e89ee,69b95ffe19e871b7812a8d5c,0.029,0.029,0,67,67,48,1,onetwo,,,,,,,,,,,,,,,,,,,,,,,,,,,,,,,,,,,,,,,,,,,,,,,,,,,,,,,,,,,,,,,,,,,,,,,,,,,,,,,,,,,,,,,,,,,,,,,,,,,,,,,,,,,,,,,,,,,,,,,,,,,,,,,,,,,,,,,,,
,,5a732956f660ae0001a9b011,2026-03-17_15h08.54.692,kallum_motion_pilot_GIST_update_2,2026.1.1,Win32,59.52380952,5a732956f660ae0001a9b011,69b95efdef24cd8a694e89ee,69b95ffe19e871b7812a8d5c,0.0292,0.0292,0,68,68,53,1,threefour,,,,,,,,,,,,,,,,,,,,,,,,,,,,,,,,,,,,,,,,,,,,,,,,,,,,,,,,,,,,,,,,,,,,,,,,,,,,,,,,,,,,,,,,,,,,,,,,,,,,,,,,,,,,,,,,,,,,,,,,,,,,,,,,,,,,,,,,,
,,5a732956f660ae0001a9b011,2026-03-17_15h08.54.692,kallum_motion_pilot_GIST_update_2,2026.1.1,Win32,59.52380952,5a732956f660ae0001a9b011,69b95efdef24cd8a694e89ee,69b95ffe19e871b7812a8d5c,0.0293,0.0294,0,69,69,10,1,twoone,,,,,,,,,,,,,,,,,,,,,,,,,,,,,,,,,,,,,,,,,,,,,,,,,,,,,,,,,,,,,,,,,,,,,,,,,,,,,,,,,,,,,,,,,,,,,,,,,,,,,,,,,,,,,,,,,,,,,,,,,,,,,,,,,,,,,,,,,
,,5a732956f660ae0001a9b011,2026-03-17_15h08.54.692,kallum_motion_pilot_GIST_update_2,2026.1.1,Win32,59.52380952,5a732956f660ae0001a9b011,69b95efdef24cd8a694e89ee,69b95ffe19e871b7812a8d5c,0.0296,0.0296,0,70,70,152,1,fivesix,,,,,,,,,,,,,,,,,,,,,,,,,,,,,,,,,,,,,,,,,,,,,,,,,,,,,,,,,,,,,,,,,,,,,,,,,,,,,,,,,,,,,,,,,,,,,,,,,,,,,,,,,,,,,,,,,,,,,,,,,,,,,,,,,,,,,,,,,
,,5a732956f660ae0001a9b011,2026-03-17_15h08.54.692,kallum_motion_pilot_GIST_update_2,2026.1.1,Win32,59.52380952,5a732956f660ae0001a9b011,69b95efdef24cd8a694e89ee,69b95ffe19e871b7812a8d5c,0.0298,0.0298,0,71,71,67,1,twofour,,,,,,,,,,,,,,,,,,,,,,,,,,,,,,,,,,,,,,,,,,,,,,,,,,,,,,,,,,,,,,,,,,,,,,,,,,,,,,,,,,,,,,,,,,,,,,,,,,,,,,,,,,,,,,,,,,,,,,,,,,,,,,,,,,,,,,,,,
,,5a732956f660ae0001a9b011,2026-03-17_15h08.54.692,kallum_motion_pilot_GIST_update_2,2026.1.1,Win32,59.52380952,5a732956f660ae0001a9b011,69b95efdef24cd8a694e89ee,69b95ffe19e871b7812a8d5c,0.0299,0.03,0,72,72,155,1,sixeight,,,,,,,,,,,,,,,,,,,,,,,,,,,,,,,,,,,,,,,,,,,,,,,,,,,,,,,,,,,,,,,,,,,,,,,,,,,,,,,,,,,,,,,,,,,,,,,,,,,,,,,,,,,,,,,,,,,,,,,,,,,,,,,,,,,,,,,,,
,,5a732956f660ae0001a9b011,2026-03-17_15h08.54.692,kallum_motion_pilot_GIST_update_2,2026.1.1,Win32,59.52380952,5a732956f660ae0001a9b011,69b95efdef24cd8a694e89ee,69b95ffe19e871b7812a8d5c,0.0301,0.0301,0,73,73,80,1,fivesix,,,,,,,,,,,,,,,,,,,,,,,,,,,,,,,,,,,,,,,,,,,,,,,,,,,,,,,,,,,,,,,,,,,,,,,,,,,,,,,,,,,,,,,,,,,,,,,,,,,,,,,,,,,,,,,,,,,,,,,,,,,,,,,,,,,,,,,,,
,,5a732956f660ae0001a9b011,2026-03-17_15h08.54.692,kallum_motion_pilot_GIST_update_2,2026.1.1,Win32,59.52380952,5a732956f660ae0001a9b011,69b95efdef24cd8a694e89ee,69b95ffe19e871b7812a8d5c,0.0303,0.0303,0,74,74,35,1,twofour,,,,,,,,,,,,,,,,,,,,,,,,,,,,,,,,,,,,,,,,,,,,,,,,,,,,,,,,,,,,,,,,,,,,,,,,,,,,,,,,,,,,,,,,,,,,,,,,,,,,,,,,,,,,,,,,,,,,,,,,,,,,,,,,,,,,,,,,,
,,5a732956f660ae0001a9b011,2026-03-17_15h08.54.692,kallum_motion_pilot_GIST_update_2,2026.1.1,Win32,59.52380952,5a732956f660ae0001a9b011,69b95efdef24cd8a694e89ee,69b95ffe19e871b7812a8d5c,0.0304,0.0304,0,75,75,108,1,sevenfive,,,,,,,,,,,,,,,,,,,,,,,,,,,,,,,,,,,,,,,,,,,,,,,,,,,,,,,,,,,,,,,,,,,,,,,,,,,,,,,,,,,,,,,,,,,,,,,,,,,,,,,,,,,,,,,,,,,,,,,,,,,,,,,,,,,,,,,,,
,,5a732956f660ae0001a9b011,2026-03-17_15h08.54.692,kallum_motion_pilot_GIST_update_2,2026.1.1,Win32,59.52380952,5a732956f660ae0001a9b011,69b95efdef24cd8a694e89ee,69b95ffe19e871b7812a8d5c,0.0306,0.0306,0,76,76,96,1,fivesix,,,,,,,,,,,,,,,,,,,,,,,,,,,,,,,,,,,,,,,,,,,,,,,,,,,,,,,,,,,,,,,,,,,,,,,,,,,,,,,,,,,,,,,,,,,,,,,,,,,,,,,,,,,,,,,,,,,,,,,,,,,,,,,,,,,,,,,,,
,,5a732956f660ae0001a9b011,2026-03-17_15h08.54.692,kallum_motion_pilot_GIST_update_2,2026.1.1,Win32,59.52380952,5a732956f660ae0001a9b011,69b95efdef24cd8a694e89ee,69b95ffe19e871b7812a8d5c,0.0307,0.0308,0,77,77,61,1,threefour,,,,,,,,,,,,,,,,,,,,,,,,,,,,,,,,,,,,,,,,,,,,,,,,,,,,,,,,,,,,,,,,,,,,,,,,,,,,,,,,,,,,,,,,,,,,,,,,,,,,,,,,,,,,,,,,,,,,,,,,,,,,,,,,,,,,,,,,,
,,5a732956f660ae0001a9b011,2026-03-17_15h08.54.692,kallum_motion_pilot_GIST_update_2,2026.1.1,Win32,59.52380952,5a732956f660ae0001a9b011,69b95efdef24cd8a694e89ee,69b95ffe19e871b7812a8d5c,0.0309,0.031,0,78,78,71,1,fourthree,,,,,,,,,,,,,,,,,,,,,,,,,,,,,,,,,,,,,,,,,,,,,,,,,,,,,,,,,,,,,,,,,,,,,,,,,,,,,,,,,,,,,,,,,,,,,,,,,,,,,,,,,,,,,,,,,,,,,,,,,,,,,,,,,,,,,,,,,
,,5a732956f660ae0001a9b011,2026-03-17_15h08.54.692,kallum_motion_pilot_GIST_update_2,2026.1.1,Win32,59.52380952,5a732956f660ae0001a9b011,69b95efdef24cd8a694e89ee,69b95ffe19e871b7812a8d5c,0.0312,0.0312,0,79,79,119,1,eightseven,,,,,,,,,,,,,,,,,,,,,,,,,,,,,,,,,,,,,,,,,,,,,,,,,,,,,,,,,,,,,,,,,,,,,,,,,,,,,,,,,,,,,,,,,,,,,,,,,,,,,,,,,,,,,,,,,,,,,,,,,,,,,,,,,,,,,,,,,
,,5a732956f660ae0001a9b011,2026-03-17_15h08.54.692,kallum_motion_pilot_GIST_update_2,2026.1.1,Win32,59.52380952,5a732956f660ae0001a9b011,69b95efdef24cd8a694e89ee,69b95ffe19e871b7812a8d5c,0.0313,0.0313,0,80,80,94,1,eightsix,,,,,,,,,,,,,,,,,,,,,,,,,,,,,,,,,,,,,,,,,,,,,,,,,,,,,,,,,,,,,,,,,,,,,,,,,,,,,,,,,,,,,,,,,,,,,,,,,,,,,,,,,,,,,,,,,,,,,,,,,,,,,,,,,,,,,,,,,
,,5a732956f660ae0001a9b011,2026-03-17_15h08.54.692,kallum_motion_pilot_GIST_update_2,2026.1.1,Win32,59.52380952,5a732956f660ae0001a9b011,69b95efdef24cd8a694e89ee,69b95ffe19e871b7812a8d5c,0.0315,0.0315,0,81,81,120,1,fivesix,,,,,,,,,,,,,,,,,,,,,,,,,,,,,,,,,,,,,,,,,,,,,,,,,,,,,,,,,,,,,,,,,,,,,,,,,,,,,,,,,,,,,,,,,,,,,,,,,,,,,,,,,,,,,,,,,,,,,,,,,,,,,,,,,,,,,,,,,
,,5a732956f660ae0001a9b011,2026-03-17_15h08.54.692,kallum_motion_pilot_GIST_update_2,2026.1.1,Win32,59.52380952,5a732956f660ae0001a9b011,69b95efdef24cd8a694e89ee,69b95ffe19e871b7812a8d5c,0.0317,0.0317,0,82,82,64,1,onetwo,,,,,,,,,,,,,,,,,,,,,,,,,,,,,,,,,,,,,,,,,,,,,,,,,,,,,,,,,,,,,,,,,,,,,,,,,,,,,,,,,,,,,,,,,,,,,,,,,,,,,,,,,,,,,,,,,,,,,,,,,,,,,,,,,,,,,,,,,
,,5a732956f660ae0001a9b011,2026-03-17_15h08.54.692,kallum_motion_pilot_GIST_update_2,2026.1.1,Win32,59.52380952,5a732956f660ae0001a9b011,69b95efdef24cd8a694e89ee,69b95ffe19e871b7812a8d5c,0.0318,0.0319,0,83,83,125,1,seveneight,,,,,,,,,,,,,,,,,,,,,,,,,,,,,,,,,,,,,,,,,,,,,,,,,,,,,,,,,,,,,,,,,,,,,,,,,,,,,,,,,,,,,,,,,,,,,,,,,,,,,,,,,,,,,,,,,,,,,,,,,,,,,,,,,,,,,,,,,
,,5a732956f660ae0001a9b011,2026-03-17_15h08.54.692,kallum_motion_pilot_GIST_update_2,2026.1.1,Win32,59.52380952,5a732956f660ae0001a9b011,69b95efdef24cd8a694e89ee,69b95ffe19e871b7812a8d5c,0.032,0.032,0,84,84,100,1,sevenfive,,,,,,,,,,,,,,,,,,,,,,,,,,,,,,,,,,,,,,,,,,,,,,,,,,,,,,,,,,,,,,,,,,,,,,,,,,,,,,,,,,,,,,,,,,,,,,,,,,,,,,,,,,,,,,,,,,,,,,,,,,,,,,,,,,,,,,,,,
,,5a732956f660ae0001a9b011,2026-03-17_15h08.54.692,kallum_motion_pilot_GIST_update_2,2026.1.1,Win32,59.52380952,5a732956f660ae0001a9b011,69b95efdef24cd8a694e89ee,69b95ffe19e871b7812a8d5c,0.0322,0.0322,0,85,85,104,1,fivesix,,,,,,,,,,,,,,,,,,,,,,,,,,,,,,,,,,,,,,,,,,,,,,,,,,,,,,,,,,,,,,,,,,,,,,,,,,,,,,,,,,,,,,,,,,,,,,,,,,,,,,,,,,,,,,,,,,,,,,,,,,,,,,,,,,,,,,,,,
,,5a732956f660ae0001a9b011,2026-03-17_15h08.54.692,kallum_motion_pilot_GIST_update_2,2026.1.1,Win32,59.52380952,5a732956f660ae0001a9b011,69b95efdef24cd8a694e89ee,69b95ffe19e871b7812a8d5c,0.0324,0.0324,0,86,86,138,1,sixfive,,,,,,,,,,,,,,,,,,,,,,,,,,,,,,,,,,,,,,,,,,,,,,,,,,,,,,,,,,,,,,,,,,,,,,,,,,,,,,,,,,,,,,,,,,,,,,,,,,,,,,,,,,,,,,,,,,,,,,,,,,,,,,,,,,,,,,,,,
,,5a732956f660ae0001a9b011,2026-03-17_15h08.54.692,kallum_motion_pilot_GIST_update_2,2026.1.1,Win32,59.52380952,5a732956f660ae0001a9b011,69b95efdef24cd8a694e89ee,69b95ffe19e871b7812a8d5c,0.0325,0.0325,0,87,87,44,1,threeone,,,,,,,,,,,,,,,,,,,,,,,,,,,,,,,,,,,,,,,,,,,,,,,,,,,,,,,,,,,,,,,,,,,,,,,,,,,,,,,,,,,,,,,,,,,,,,,,,,,,,,,,,,,,,,,,,,,,,,,,,,,,,,,,,,,,,,,,,
,,5a732956f660ae0001a9b011,2026-03-17_15h08.54.692,kallum_motion_pilot_GIST_update_2,2026.1.1,Win32,59.52380952,5a732956f660ae0001a9b011,69b95efdef24cd8a694e89ee,69b95ffe19e871b7812a8d5c,0.0327,0.0327,0,88,88,15,1,fourthree,,,,,,,,,,,,,,,,,,,,,,,,,,,,,,,,,,,,,,,,,,,,,,,,,,,,,,,,,,,,,,,,,,,,,,,,,,,,,,,,,,,,,,,,,,,,,,,,,,,,,,,,,,,,,,,,,,,,,,,,,,,,,,,,,,,,,,,,,
,,5a732956f660ae0001a9b011,2026-03-17_15h08.54.692,kallum_motion_pilot_GIST_update_2,2026.1.1,Win32,59.52380952,5a732956f660ae0001a9b011,69b95efdef24cd8a694e89ee,69b95ffe19e871b7812a8d5c,0.0329,0.0329,0,89,89,68,1,threeone,,,,,,,,,,,,,,,,,,,,,,,,,,,,,,,,,,,,,,,,,,,,,,,,,,,,,,,,,,,,,,,,,,,,,,,,,,,,,,,,,,,,,,,,,,,,,,,,,,,,,,,,,,,,,,,,,,,,,,,,,,,,,,,,,,,,,,,,,
,,5a732956f660ae0001a9b011,2026-03-17_15h08.54.692,kallum_motion_pilot_GIST_update_2,2026.1.1,Win32,59.52380952,5a732956f660ae0001a9b011,69b95efdef24cd8a694e89ee,69b95ffe19e871b7812a8d5c,0.033,0.033,0,90,90,73,1,onethree,,,,,,,,,,,,,,,,,,,,,,,,,,,,,,,,,,,,,,,,,,,,,,,,,,,,,,,,,,,,,,,,,,,,,,,,,,,,,,,,,,,,,,,,,,,,,,,,,,,,,,,,,,,,,,,,,,,,,,,,,,,,,,,,,,,,,,,,,
,,5a732956f660ae0001a9b011,2026-03-17_15h08.54.692,kallum_motion_pilot_GIST_update_2,2026.1.1,Win32,59.52380952,5a732956f660ae0001a9b011,69b95efdef24cd8a694e89ee,69b95ffe19e871b7812a8d5c,0.0332,0.0333,0,91,91,158,1,eightsix,,,,,,,,,,,,,,,,,,,,,,,,,,,,,,,,,,,,,,,,,,,,,,,,,,,,,,,,,,,,,,,,,,,,,,,,,,,,,,,,,,,,,,,,,,,,,,,,,,,,,,,,,,,,,,,,,,,,,,,,,,,,,,,,,,,,,,,,,
,,5a732956f660ae0001a9b011,2026-03-17_15h08.54.692,kallum_motion_pilot_GIST_update_2,2026.1.1,Win32,59.52380952,5a732956f660ae0001a9b011,69b95efdef24cd8a694e89ee,69b95ffe19e871b7812a8d5c,0.0334,0.0334,0,92,92,16,1,onetwo,,,,,,,,,,,,,,,,,,,,,,,,,,,,,,,,,,,,,,,,,,,,,,,,,,,,,,,,,,,,,,,,,,,,,,,,,,,,,,,,,,,,,,,,,,,,,,,,,,,,,,,,,,,,,,,,,,,,,,,,,,,,,,,,,,,,,,,,,
,,5a732956f660ae0001a9b011,2026-03-17_15h08.54.692,kallum_motion_pilot_GIST_update_2,2026.1.1,Win32,59.52380952,5a732956f660ae0001a9b011,69b95efdef24cd8a694e89ee,69b95ffe19e871b7812a8d5c,0.0336,0.0336,0,93,93,124,1,sevenfive,,,,,,,,,,,,,,,,,,,,,,,,,,,,,,,,,,,,,,,,,,,,,,,,,,,,,,,,,,,,,,,,,,,,,,,,,,,,,,,,,,,,,,,,,,,,,,,,,,,,,,,,,,,,,,,,,,,,,,,,,,,,,,,,,,,,,,,,,
,,5a732956f660ae0001a9b011,2026-03-17_15h08.54.692,kallum_motion_pilot_GIST_update_2,2026.1.1,Win32,59.52380952,5a732956f660ae0001a9b011,69b95efdef24cd8a694e89ee,69b95ffe19e871b7812a8d5c,0.0337,0.0337,0,94,94,66,1,twoone,,,,,,,,,,,,,,,,,,,,,,,,,,,,,,,,,,,,,,,,,,,,,,,,,,,,,,,,,,,,,,,,,,,,,,,,,,,,,,,,,,,,,,,,,,,,,,,,,,,,,,,,,,,,,,,,,,,,,,,,,,,,,,,,,,,,,,,,,
,,5a732956f660ae0001a9b011,2026-03-17_15h08.54.692,kallum_motion_pilot_GIST_update_2,2026.1.1,Win32,59.52380952,5a732956f660ae0001a9b011,69b95efdef24cd8a694e89ee,69b95ffe19e871b7812a8d5c,0.0339,0.034,0,95,95,156,1,sevenfive,,,,,,,,,,,,,,,,,,,,,,,,,,,,,,,,,,,,,,,,,,,,,,,,,,,,,,,,,,,,,,,,,,,,,,,,,,,,,,,,,,,,,,,,,,,,,,,,,,,,,,,,,,,,,,,,,,,,,,,,,,,,,,,,,,,,,,,,,
,,5a732956f660ae0001a9b011,2026-03-17_15h08.54.692,kallum_motion_pilot_GIST_update_2,2026.1.1,Win32,59.52380952,5a732956f660ae0001a9b011,69b95efdef24cd8a694e89ee,69b95ffe19e871b7812a8d5c,0.0341,0.0341,0,96,96,160,1,fivesix,,,,,,,,,,,,,,,,,,,,,,,,,,,,,,,,,,,,,,,,,,,,,,,,,,,,,,,,,,,,,,,,,,,,,,,,,,,,,,,,,,,,,,,,,,,,,,,,,,,,,,,,,,,,,,,,,,,,,,,,,,,,,,,,,,,,,,,,,
,,5a732956f660ae0001a9b011,2026-03-17_15h08.54.692,kallum_motion_pilot_GIST_update_2,2026.1.1,Win32,59.52380952,5a732956f660ae0001a9b011,69b95efdef24cd8a694e89ee,69b95ffe19e871b7812a8d5c,0.0343,0.0343,0,97,97,60,1,threeone,,,,,,,,,,,,,,,,,,,,,,,,,,,,,,,,,,,,,,,,,,,,,,,,,,,,,,,,,,,,,,,,,,,,,,,,,,,,,,,,,,,,,,,,,,,,,,,,,,,,,,,,,,,,,,,,,,,,,,,,,,,,,,,,,,,,,,,,,
,,5a732956f660ae0001a9b011,2026-03-17_15h08.54.692,kallum_motion_pilot_GIST_update_2,2026.1.1,Win32,59.52380952,5a732956f660ae0001a9b011,69b95efdef24cd8a694e89ee,69b95ffe19e871b7812a8d5c,0.0344,0.0345,0,98,98,114,1,sixfive,,,,,,,,,,,,,,,,,,,,,,,,,,,,,,,,,,,,,,,,,,,,,,,,,,,,,,,,,,,,,,,,,,,,,,,,,,,,,,,,,,,,,,,,,,,,,,,,,,,,,,,,,,,,,,,,,,,,,,,,,,,,,,,,,,,,,,,,,
,,5a732956f660ae0001a9b011,2026-03-17_15h08.54.692,kallum_motion_pilot_GIST_update_2,2026.1.1,Win32,59.52380952,5a732956f660ae0001a9b011,69b95efdef24cd8a694e89ee,69b95ffe19e871b7812a8d5c,0.0347,0.0347,0,99,99,17,1,onethree,,,,,,,,,,,,,,,,,,,,,,,,,,,,,,,,,,,,,,,,,,,,,,,,,,,,,,,,,,,,,,,,,,,,,,,,,,,,,,,,,,,,,,,,,,,,,,,,,,,,,,,,,,,,,,,,,,,,,,,,,,,,,,,,,,,,,,,,,
,,5a732956f660ae0001a9b011,2026-03-17_15h08.54.692,kallum_motion_pilot_GIST_update_2,2026.1.1,Win32,59.52380952,5a732956f660ae0001a9b011,69b95efdef24cd8a694e89ee,69b95ffe19e871b7812a8d5c,0.0349,0.0349,0,100,100,51,1,twofour,,,,,,,,,,,,,,,,,,,,,,,,,,,,,,,,,,,,,,,,,,,,,,,,,,,,,,,,,,,,,,,,,,,,,,,,,,,,,,,,,,,,,,,,,,,,,,,,,,,,,,,,,,,,,,,,,,,,,,,,,,,,,,,,,,,,,,,,,
,,5a732956f660ae0001a9b011,2026-03-17_15h08.54.692,kallum_motion_pilot_GIST_update_2,2026.1.1,Win32,59.52380952,5a732956f660ae0001a9b011,69b95efdef24cd8a694e89ee,69b95ffe19e871b7812a8d5c,0.035,0.035,0,101,101,148,1,sevenfive,,,,,,,,,,,,,,,,,,,,,,,,,,,,,,,,,,,,,,,,,,,,,,,,,,,,,,,,,,,,,,,,,,,,,,,,,,,,,,,,,,,,,,,,,,,,,,,,,,,,,,,,,,,,,,,,,,,,,,,,,,,,,,,,,,,,,,,,,
,,5a732956f660ae0001a9b011,2026-03-17_15h08.54.692,kallum_motion_pilot_GIST_update_2,2026.1.1,Win32,59.52380952,5a732956f660ae0001a9b011,69b95efdef24cd8a694e89ee,69b95ffe19e871b7812a8d5c,0.0353,0.0353,0,102,102,105,1,fiveseven,,,,,,,,,,,,,,,,,,,,,,,,,,,,,,,,,,,,,,,,,,,,,,,,,,,,,,,,,,,,,,,,,,,,,,,,,,,,,,,,,,,,,,,,,,,,,,,,,,,,,,,,,,,,,,,,,,,,,,,,,,,,,,,,,,,,,,,,,
,,5a732956f660ae0001a9b011,2026-03-17_15h08.54.692,kallum_motion_pilot_GIST_update_2,2026.1.1,Win32,59.52380952,5a732956f660ae0001a9b011,69b95efdef24cd8a694e89ee,69b95ffe19e871b7812a8d5c,0.0354,0.0354,0,103,103,72,1,onetwo,,,,,,,,,,,,,,,,,,,,,,,,,,,,,,,,,,,,,,,,,,,,,,,,,,,,,,,,,,,,,,,,,,,,,,,,,,,,,,,,,,,,,,,,,,,,,,,,,,,,,,,,,,,,,,,,,,,,,,,,,,,,,,,,,,,,,,,,,
,,5a732956f660ae0001a9b011,2026-03-17_15h08.54.692,kallum_motion_pilot_GIST_update_2,2026.1.1,Win32,59.52380952,5a732956f660ae0001a9b011,69b95efdef24cd8a694e89ee,69b95ffe19e871b7812a8d5c,0.0356,0.0356,0,104,104,123,1,sixeight,,,,,,,,,,,,,,,,,,,,,,,,,,,,,,,,,,,,,,,,,,,,,,,,,,,,,,,,,,,,,,,,,,,,,,,,,,,,,,,,,,,,,,,,,,,,,,,,,,,,,,,,,,,,,,,,,,,,,,,,,,,,,,,,,,,,,,,,,
,,5a732956f660ae0001a9b011,2026-03-17_15h08.54.692,kallum_motion_pilot_GIST_update_2,2026.1.1,Win32,59.52380952,5a732956f660ae0001a9b011,69b95efdef24cd8a694e89ee,69b95ffe19e871b7812a8d5c,0.0357,0.0358,0,105,105,33,1,onethree,,,,,,,,,,,,,,,,,,,,,,,,,,,,,,,,,,,,,,,,,,,,,,,,,,,,,,,,,,,,,,,,,,,,,,,,,,,,,,,,,,,,,,,,,,,,,,,,,,,,,,,,,,,,,,,,,,,,,,,,,,,,,,,,,,,,,,,,,
,,5a732956f660ae0001a9b011,2026-03-17_15h08.54.692,kallum_motion_pilot_GIST_update_2,2026.1.1,Win32,59.52380952,5a732956f660ae0001a9b011,69b95efdef24cd8a694e89ee,69b95ffe19e871b7812a8d5c,0.036,0.036,0,106,106,43,1,twofour,,,,,,,,,,,,,,,,,,,,,,,,,,,,,,,,,,,,,,,,,,,,,,,,,,,,,,,,,,,,,,,,,,,,,,,,,,,,,,,,,,,,,,,,,,,,,,,,,,,,,,,,,,,,,,,,,,,,,,,,,,,,,,,,,,,,,,,,,
,,5a732956f660ae0001a9b011,2026-03-17_15h08.54.692,kallum_motion_pilot_GIST_update_2,2026.1.1,Win32,59.52380952,5a732956f660ae0001a9b011,69b95efdef24cd8a694e89ee,69b95ffe19e871b7812a8d5c,0.0362,0.0362,0,107,107,6,1,fourtwo,,,,,,,,,,,,,,,,,,,,,,,,,,,,,,,,,,,,,,,,,,,,,,,,,,,,,,,,,,,,,,,,,,,,,,,,,,,,,,,,,,,,,,,,,,,,,,,,,,,,,,,,,,,,,,,,,,,,,,,,,,,,,,,,,,,,,,,,,
,,5a732956f660ae0001a9b011,2026-03-17_15h08.54.692,kallum_motion_pilot_GIST_update_2,2026.1.1,Win32,59.52380952,5a732956f660ae0001a9b011,69b95efdef24cd8a694e89ee,69b95ffe19e871b7812a8d5c,0.0363,0.0364,0,108,108,129,1,fiveseven,,,,,,,,,,,,,,,,,,,,,,,,,,,,,,,,,,,,,,,,,,,,,,,,,,,,,,,,,,,,,,,,,,,,,,,,,,,,,,,,,,,,,,,,,,,,,,,,,,,,,,,,,,,,,,,,,,,,,,,,,,,,,,,,,,,,,,,,,
,,5a732956f660ae0001a9b011,2026-03-17_15h08.54.692,kallum_motion_pilot_GIST_update_2,2026.1.1,Win32,59.52380952,5a732956f660ae0001a9b011,69b95efdef24cd8a694e89ee,69b95ffe19e871b7812a8d5c,0.0365,0.0365,0,109,109,11,1,twofour,,,,,,,,,,,,,,,,,,,,,,,,,,,,,,,,,,,,,,,,,,,,,,,,,,,,,,,,,,,,,,,,,,,,,,,,,,,,,,,,,,,,,,,,,,,,,,,,,,,,,,,,,,,,,,,,,,,,,,,,,,,,,,,,,,,,,,,,,
,,5a732956f660ae0001a9b011,2026-03-17_15h08.54.692,kallum_motion_pilot_GIST_update_2,2026.1.1,Win32,59.52380952,5a732956f660ae0001a9b011,69b95efdef24cd8a694e89ee,69b95ffe19e871b7812a8d5c,0.0366,0.0367,0,110,110,5,1,threefour,,,,,,,,,,,,,,,,,,,,,,,,,,,,,,,,,,,,,,,,,,,,,,,,,,,,,,,,,,,,,,,,,,,,,,,,,,,,,,,,,,,,,,,,,,,,,,,,,,,,,,,,,,,,,,,,,,,,,,,,,,,,,,,,,,,,,,,,,
,,5a732956f660ae0001a9b011,2026-03-17_15h08.54.692,kallum_motion_pilot_GIST_update_2,2026.1.1,Win32,59.52380952,5a732956f660ae0001a9b011,69b95efdef24cd8a694e89ee,69b95ffe19e871b7812a8d5c,0.0369,0.0369,0,111,111,3,1,twofour,,,,,,,,,,,,,,,,,,,,,,,,,,,,,,,,,,,,,,,,,,,,,,,,,,,,,,,,,,,,,,,,,,,,,,,,,,,,,,,,,,,,,,,,,,,,,,,,,,,,,,,,,,,,,,,,,,,,,,,,,,,,,,,,,,,,,,,,,
,,5a732956f660ae0001a9b011,2026-03-17_15h08.54.692,kallum_motion_pilot_GIST_update_2,2026.1.1,Win32,59.52380952,5a732956f660ae0001a9b011,69b95efdef24cd8a694e89ee,69b95ffe19e871b7812a8d5c,0.037,0.037,0,112,112,1,1,onethree,,,,,,,,,,,,,,,,,,,,,,,,,,,,,,,,,,,,,,,,,,,,,,,,,,,,,,,,,,,,,,,,,,,,,,,,,,,,,,,,,,,,,,,,,,,,,,,,,,,,,,,,,,,,,,,,,,,,,,,,,,,,,,,,,,,,,,,,,
,,5a732956f660ae0001a9b011,2026-03-17_15h08.54.692,kallum_motion_pilot_GIST_update_2,2026.1.1,Win32,59.52380952,5a732956f660ae0001a9b011,69b95efdef24cd8a694e89ee,69b95ffe19e871b7812a8d5c,0.0372,0.0372,0,113,113,58,1,twoone,,,,,,,,,,,,,,,,,,,,,,,,,,,,,,,,,,,,,,,,,,,,,,,,,,,,,,,,,,,,,,,,,,,,,,,,,,,,,,,,,,,,,,,,,,,,,,,,,,,,,,,,,,,,,,,,,,,,,,,,,,,,,,,,,,,,,,,,,
,,5a732956f660ae0001a9b011,2026-03-17_15h08.54.692,kallum_motion_pilot_GIST_update_2,2026.1.1,Win32,59.52380952,5a732956f660ae0001a9b011,69b95efdef24cd8a694e89ee,69b95ffe19e871b7812a8d5c,0.0374,0.0374,0,114,114,74,1,twoone,,,,,,,,,,,,,,,,,,,,,,,,,,,,,,,,,,,,,,,,,,,,,,,,,,,,,,,,,,,,,,,,,,,,,,,,,,,,,,,,,,,,,,,,,,,,,,,,,,,,,,,,,,,,,,,,,,,,,,,,,,,,,,,,,,,,,,,,,
,,5a732956f660ae0001a9b011,2026-03-17_15h08.54.692,kallum_motion_pilot_GIST_update_2,2026.1.1,Win32,59.52380952,5a732956f660ae0001a9b011,69b95efdef24cd8a694e89ee,69b95ffe19e871b7812a8d5c,0.0375,0.0376,0,115,115,59,1,twofour,,,,,,,,,,,,,,,,,,,,,,,,,,,,,,,,,,,,,,,,,,,,,,,,,,,,,,,,,,,,,,,,,,,,,,,,,,,,,,,,,,,,,,,,,,,,,,,,,,,,,,,,,,,,,,,,,,,,,,,,,,,,,,,,,,,,,,,,,
,,5a732956f660ae0001a9b011,2026-03-17_15h08.54.692,kallum_motion_pilot_GIST_update_2,2026.1.1,Win32,59.52380952,5a732956f660ae0001a9b011,69b95efdef24cd8a694e89ee,69b95ffe19e871b7812a8d5c,0.0378,0.0378,0,116,116,147,1,sixeight,,,,,,,,,,,,,,,,,,,,,,,,,,,,,,,,,,,,,,,,,,,,,,,,,,,,,,,,,,,,,,,,,,,,,,,,,,,,,,,,,,,,,,,,,,,,,,,,,,,,,,,,,,,,,,,,,,,,,,,,,,,,,,,,,,,,,,,,,
,,5a732956f660ae0001a9b011,2026-03-17_15h08.54.692,kallum_motion_pilot_GIST_update_2,2026.1.1,Win32,59.52380952,5a732956f660ae0001a9b011,69b95efdef24cd8a694e89ee,69b95ffe19e871b7812a8d5c,0.0379,0.0379,0,117,117,135,1,eightseven,,,,,,,,,,,,,,,,,,,,,,,,,,,,,,,,,,,,,,,,,,,,,,,,,,,,,,,,,,,,,,,,,,,,,,,,,,,,,,,,,,,,,,,,,,,,,,,,,,,,,,,,,,,,,,,,,,,,,,,,,,,,,,,,,,,,,,,,,
,,5a732956f660ae0001a9b011,2026-03-17_15h08.54.692,kallum_motion_pilot_GIST_update_2,2026.1.1,Win32,59.52380952,5a732956f660ae0001a9b011,69b95efdef24cd8a694e89ee,69b95ffe19e871b7812a8d5c,0.0381,0.0381,0,118,118,38,1,fourtwo,,,,,,,,,,,,,,,,,,,,,,,,,,,,,,,,,,,,,,,,,,,,,,,,,,,,,,,,,,,,,,,,,,,,,,,,,,,,,,,,,,,,,,,,,,,,,,,,,,,,,,,,,,,,,,,,,,,,,,,,,,,,,,,,,,,,,,,,,
,,5a732956f660ae0001a9b011,2026-03-17_15h08.54.692,kallum_motion_pilot_GIST_update_2,2026.1.1,Win32,59.52380952,5a732956f660ae0001a9b011,69b95efdef24cd8a694e89ee,69b95ffe19e871b7812a8d5c,0.0383,0.0383,0,119,119,126,1,eightsix,,,,,,,,,,,,,,,,,,,,,,,,,,,,,,,,,,,,,,,,,,,,,,,,,,,,,,,,,,,,,,,,,,,,,,,,,,,,,,,,,,,,,,,,,,,,,,,,,,,,,,,,,,,,,,,,,,,,,,,,,,,,,,,,,,,,,,,,,
,,5a732956f660ae0001a9b011,2026-03-17_15h08.54.692,kallum_motion_pilot_GIST_update_2,2026.1.1,Win32,59.52380952,5a732956f660ae0001a9b011,69b95efdef24cd8a694e89ee,69b95ffe19e871b7812a8d5c,0.0384,0.0385,0,120,120,4,1,threeone,,,,,,,,,,,,,,,,,,,,,,,,,,,,,,,,,,,,,,,,,,,,,,,,,,,,,,,,,,,,,,,,,,,,,,,,,,,,,,,,,,,,,,,,,,,,,,,,,,,,,,,,,,,,,,,,,,,,,,,,,,,,,,,,,,,,,,,,,
,,5a732956f660ae0001a9b011,2026-03-17_15h08.54.692,kallum_motion_pilot_GIST_update_2,2026.1.1,Win32,59.52380952,5a732956f660ae0001a9b011,69b95efdef24cd8a694e89ee,69b95ffe19e871b7812a8d5c,0.0387,0.0387,0,121,121,107,1,sixeight,,,,,,,,,,,,,,,,,,,,,,,,,,,,,,,,,,,,,,,,,,,,,,,,,,,,,,,,,,,,,,,,,,,,,,,,,,,,,,,,,,,,,,,,,,,,,,,,,,,,,,,,,,,,,,,,,,,,,,,,,,,,,,,,,,,,,,,,,
,,5a732956f660ae0001a9b011,2026-03-17_15h08.54.692,kallum_motion_pilot_GIST_update_2,2026.1.1,Win32,59.52380952,5a732956f660ae0001a9b011,69b95efdef24cd8a694e89ee,69b95ffe19e871b7812a8d5c,0.0389,0.0389,0,122,122,40,1,onetwo,,,,,,,,,,,,,,,,,,,,,,,,,,,,,,,,,,,,,,,,,,,,,,,,,,,,,,,,,,,,,,,,,,,,,,,,,,,,,,,,,,,,,,,,,,,,,,,,,,,,,,,,,,,,,,,,,,,,,,,,,,,,,,,,,,,,,,,,,
,,5a732956f660ae0001a9b011,2026-03-17_15h08.54.692,kallum_motion_pilot_GIST_update_2,2026.1.1,Win32,59.52380952,5a732956f660ae0001a9b011,69b95efdef24cd8a694e89ee,69b95ffe19e871b7812a8d5c,0.0391,0.0391,0,123,123,0,1,onetwo,,,,,,,,,,,,,,,,,,,,,,,,,,,,,,,,,,,,,,,,,,,,,,,,,,,,,,,,,,,,,,,,,,,,,,,,,,,,,,,,,,,,,,,,,,,,,,,,,,,,,,,,,,,,,,,,,,,,,,,,,,,,,,,,,,,,,,,,,
,,5a732956f660ae0001a9b011,2026-03-17_15h08.54.692,kallum_motion_pilot_GIST_update_2,2026.1.1,Win32,59.52380952,5a732956f660ae0001a9b011,69b95efdef24cd8a694e89ee,69b95ffe19e871b7812a8d5c,0.0392,0.0393,0,124,124,69,1,threefour,,,,,,,,,,,,,,,,,,,,,,,,,,,,,,,,,,,,,,,,,,,,,,,,,,,,,,,,,,,,,,,,,,,,,,,,,,,,,,,,,,,,,,,,,,,,,,,,,,,,,,,,,,,,,,,,,,,,,,,,,,,,,,,,,,,,,,,,,
,,5a732956f660ae0001a9b011,2026-03-17_15h08.54.692,kallum_motion_pilot_GIST_update_2,2026.1.1,Win32,59.52380952,5a732956f660ae0001a9b011,69b95efdef24cd8a694e89ee,69b95ffe19e871b7812a8d5c,0.0395,0.0395,0,125,125,151,1,eightseven,,,,,,,,,,,,,,,,,,,,,,,,,,,,,,,,,,,,,,,,,,,,,,,,,,,,,,,,,,,,,,,,,,,,,,,,,,,,,,,,,,,,,,,,,,,,,,,,,,,,,,,,,,,,,,,,,,,,,,,,,,,,,,,,,,,,,,,,,
,,5a732956f660ae0001a9b011,2026-03-17_15h08.54.692,kallum_motion_pilot_GIST_update_2,2026.1.1,Win32,59.52380952,5a732956f660ae0001a9b011,69b95efdef24cd8a694e89ee,69b95ffe19e871b7812a8d5c,0.0396,0.0397,0,126,126,122,1,sixfive,,,,,,,,,,,,,,,,,,,,,,,,,,,,,,,,,,,,,,,,,,,,,,,,,,,,,,,,,,,,,,,,,,,,,,,,,,,,,,,,,,,,,,,,,,,,,,,,,,,,,,,,,,,,,,,,,,,,,,,,,,,,,,,,,,,,,,,,,
,,5a732956f660ae0001a9b011,2026-03-17_15h08.54.692,kallum_motion_pilot_GIST_update_2,2026.1.1,Win32,59.52380952,5a732956f660ae0001a9b011,69b95efdef24cd8a694e89ee,69b95ffe19e871b7812a8d5c,0.0399,0.0399,0,127,127,31,1,fourthree,,,,,,,,,,,,,,,,,,,,,,,,,,,,,,,,,,,,,,,,,,,,,,,,,,,,,,,,,,,,,,,,,,,,,,,,,,,,,,,,,,,,,,,,,,,,,,,,,,,,,,,,,,,,,,,,,,,,,,,,,,,,,,,,,,,,,,,,,
,,5a732956f660ae0001a9b011,2026-03-17_15h08.54.692,kallum_motion_pilot_GIST_update_2,2026.1.1,Win32,59.52380952,5a732956f660ae0001a9b011,69b95efdef24cd8a694e89ee,69b95ffe19e871b7812a8d5c,0.04,0.04,0,128,128,145,1,fiveseven,,,,,,,,,,,,,,,,,,,,,,,,,,,,,,,,,,,,,,,,,,,,,,,,,,,,,,,,,,,,,,,,,,,,,,,,,,,,,,,,,,,,,,,,,,,,,,,,,,,,,,,,,,,,,,,,,,,,,,,,,,,,,,,,,,,,,,,,,
,,5a732956f660ae0001a9b011,2026-03-17_15h08.54.692,kallum_motion_pilot_GIST_update_2,2026.1.1,Win32,59.52380952,5a732956f660ae0001a9b011,69b95efdef24cd8a694e89ee,69b95ffe19e871b7812a8d5c,0.0402,0.0402,0,129,129,42,1,twoone,,,,,,,,,,,,,,,,,,,,,,,,,,,,,,,,,,,,,,,,,,,,,,,,,,,,,,,,,,,,,,,,,,,,,,,,,,,,,,,,,,,,,,,,,,,,,,,,,,,,,,,,,,,,,,,,,,,,,,,,,,,,,,,,,,,,,,,,,
,,5a732956f660ae0001a9b011,2026-03-17_15h08.54.692,kallum_motion_pilot_GIST_update_2,2026.1.1,Win32,59.52380952,5a732956f660ae0001a9b011,69b95efdef24cd8a694e89ee,69b95ffe19e871b7812a8d5c,0.0404,0.0404,0,130,130,9,1,onethree,,,,,,,,,,,,,,,,,,,,,,,,,,,,,,,,,,,,,,,,,,,,,,,,,,,,,,,,,,,,,,,,,,,,,,,,,,,,,,,,,,,,,,,,,,,,,,,,,,,,,,,,,,,,,,,,,,,,,,,,,,,,,,,,,,,,,,,,,
,,5a732956f660ae0001a9b011,2026-03-17_15h08.54.692,kallum_motion_pilot_GIST_update_2,2026.1.1,Win32,59.52380952,5a732956f660ae0001a9b011,69b95efdef24cd8a694e89ee,69b95ffe19e871b7812a8d5c,0.0405,0.0406,0,131,131,97,1,fiveseven,,,,,,,,,,,,,,,,,,,,,,,,,,,,,,,,,,,,,,,,,,,,,,,,,,,,,,,,,,,,,,,,,,,,,,,,,,,,,,,,,,,,,,,,,,,,,,,,,,,,,,,,,,,,,,,,,,,,,,,,,,,,,,,,,,,,,,,,,
,,5a732956f660ae0001a9b011,2026-03-17_15h08.54.692,kallum_motion_pilot_GIST_update_2,2026.1.1,Win32,59.52380952,5a732956f660ae0001a9b011,69b95efdef24cd8a694e89ee,69b95ffe19e871b7812a8d5c,0.0407,0.0407,0,132,132,32,1,onetwo,,,,,,,,,,,,,,,,,,,,,,,,,,,,,,,,,,,,,,,,,,,,,,,,,,,,,,,,,,,,,,,,,,,,,,,,,,,,,,,,,,,,,,,,,,,,,,,,,,,,,,,,,,,,,,,,,,,,,,,,,,,,,,,,,,,,,,,,,
,,5a732956f660ae0001a9b011,2026-03-17_15h08.54.692,kallum_motion_pilot_GIST_update_2,2026.1.1,Win32,59.52380952,5a732956f660ae0001a9b011,69b95efdef24cd8a694e89ee,69b95ffe19e871b7812a8d5c,0.0409,0.0409,0,133,133,52,1,threeone,,,,,,,,,,,,,,,,,,,,,,,,,,,,,,,,,,,,,,,,,,,,,,,,,,,,,,,,,,,,,,,,,,,,,,,,,,,,,,,,,,,,,,,,,,,,,,,,,,,,,,,,,,,,,,,,,,,,,,,,,,,,,,,,,,,,,,,,,
,,5a732956f660ae0001a9b011,2026-03-17_15h08.54.692,kallum_motion_pilot_GIST_update_2,2026.1.1,Win32,59.52380952,5a732956f660ae0001a9b011,69b95efdef24cd8a694e89ee,69b95ffe19e871b7812a8d5c,0.041,0.0411,0,134,134,50,1,twoone,,,,,,,,,,,,,,,,,,,,,,,,,,,,,,,,,,,,,,,,,,,,,,,,,,,,,,,,,,,,,,,,,,,,,,,,,,,,,,,,,,,,,,,,,,,,,,,,,,,,,,,,,,,,,,,,,,,,,,,,,,,,,,,,,,,,,,,,,
,,5a732956f660ae0001a9b011,2026-03-17_15h08.54.692,kallum_motion_pilot_GIST_update_2,2026.1.1,Win32,59.52380952,5a732956f660ae0001a9b011,69b95efdef24cd8a694e89ee,69b95ffe19e871b7812a8d5c,0.0413,0.0413,0,135,135,22,1,fourtwo,,,,,,,,,,,,,,,,,,,,,,,,,,,,,,,,,,,,,,,,,,,,,,,,,,,,,,,,,,,,,,,,,,,,,,,,,,,,,,,,,,,,,,,,,,,,,,,,,,,,,,,,,,,,,,,,,,,,,,,,,,,,,,,,,,,,,,,,,
,,5a732956f660ae0001a9b011,2026-03-17_15h08.54.692,kallum_motion_pilot_GIST_update_2,2026.1.1,Win32,59.52380952,5a732956f660ae0001a9b011,69b95efdef24cd8a694e89ee,69b95ffe19e871b7812a8d5c,0.0414,0.0414,0,136,136,149,1,seveneight,,,,,,,,,,,,,,,,,,,,,,,,,,,,,,,,,,,,,,,,,,,,,,,,,,,,,,,,,,,,,,,,,,,,,,,,,,,,,,,,,,,,,,,,,,,,,,,,,,,,,,,,,,,,,,,,,,,,,,,,,,,,,,,,,,,,,,,,,
,,5a732956f660ae0001a9b011,2026-03-17_15h08.54.692,kallum_motion_pilot_GIST_update_2,2026.1.1,Win32,59.52380952,5a732956f660ae0001a9b011,69b95efdef24cd8a694e89ee,69b95ffe19e871b7812a8d5c,0.0417,0.0417,0,137,137,103,1,eightseven,,,,,,,,,,,,,,,,,,,,,,,,,,,,,,,,,,,,,,,,,,,,,,,,,,,,,,,,,,,,,,,,,,,,,,,,,,,,,,,,,,,,,,,,,,,,,,,,,,,,,,,,,,,,,,,,,,,,,,,,,,,,,,,,,,,,,,,,,
,,5a732956f660ae0001a9b011,2026-03-17_15h08.54.692,kallum_motion_pilot_GIST_update_2,2026.1.1,Win32,59.52380952,5a732956f660ae0001a9b011,69b95efdef24cd8a694e89ee,69b95ffe19e871b7812a8d5c,0.0419,0.0419,0,138,138,7,1,fourthree,,,,,,,,,,,,,,,,,,,,,,,,,,,,,,,,,,,,,,,,,,,,,,,,,,,,,,,,,,,,,,,,,,,,,,,,,,,,,,,,,,,,,,,,,,,,,,,,,,,,,,,,,,,,,,,,,,,,,,,,,,,,,,,,,,,,,,,,,
,,5a732956f660ae0001a9b011,2026-03-17_15h08.54.692,kallum_motion_pilot_GIST_update_2,2026.1.1,Win32,59.52380952,5a732956f660ae0001a9b011,69b95efdef24cd8a694e89ee,69b95ffe19e871b7812a8d5c,0.0422,0.0422,0,139,139,128,1,fivesix,,,,,,,,,,,,,,,,,,,,,,,,,,,,,,,,,,,,,,,,,,,,,,,,,,,,,,,,,,,,,,,,,,,,,,,,,,,,,,,,,,,,,,,,,,,,,,,,,,,,,,,,,,,,,,,,,,,,,,,,,,,,,,,,,,,,,,,,,
,,5a732956f660ae0001a9b011,2026-03-17_15h08.54.692,kallum_motion_pilot_GIST_update_2,2026.1.1,Win32,59.52380952,5a732956f660ae0001a9b011,69b95efdef24cd8a694e89ee,69b95ffe19e871b7812a8d5c,0.0423,0.0423,0,140,140,39,1,fourthree,,,,,,,,,,,,,,,,,,,,,,,,,,,,,,,,,,,,,,,,,,,,,,,,,,,,,,,,,,,,,,,,,,,,,,,,,,,,,,,,,,,,,,,,,,,,,,,,,,,,,,,,,,,,,,,,,,,,,,,,,,,,,,,,,,,,,,,,,
,,5a732956f660ae0001a9b011,2026-03-17_15h08.54.692,kallum_motion_pilot_GIST_update_2,2026.1.1,Win32,59.52380952,5a732956f660ae0001a9b011,69b95efdef24cd8a694e89ee,69b95ffe19e871b7812a8d5c,0.0427,0.0427,0,141,141,25,1,onethree,,,,,,,,,,,,,,,,,,,,,,,,,,,,,,,,,,,,,,,,,,,,,,,,,,,,,,,,,,,,,,,,,,,,,,,,,,,,,,,,,,,,,,,,,,,,,,,,,,,,,,,,,,,,,,,,,,,,,,,,,,,,,,,,,,,,,,,,,
,,5a732956f660ae0001a9b011,2026-03-17_15h08.54.692,kallum_motion_pilot_GIST_update_2,2026.1.1,Win32,59.52380952,5a732956f660ae0001a9b011,69b95efdef24cd8a694e89ee,69b95ffe19e871b7812a8d5c,0.0429,0.0429,0,142,142,41,1,onethree,,,,,,,,,,,,,,,,,,,,,,,,,,,,,,,,,,,,,,,,,,,,,,,,,,,,,,,,,,,,,,,,,,,,,,,,,,,,,,,,,,,,,,,,,,,,,,,,,,,,,,,,,,,,,,,,,,,,,,,,,,,,,,,,,,,,,,,,,
,,5a732956f660ae0001a9b011,2026-03-17_15h08.54.692,kallum_motion_pilot_GIST_update_2,2026.1.1,Win32,59.52380952,5a732956f660ae0001a9b011,69b95efdef24cd8a694e89ee,69b95ffe19e871b7812a8d5c,0.0432,0.0432,0,143,143,146,1,sixfive,,,,,,,,,,,,,,,,,,,,,,,,,,,,,,,,,,,,,,,,,,,,,,,,,,,,,,,,,,,,,,,,,,,,,,,,,,,,,,,,,,,,,,,,,,,,,,,,,,,,,,,,,,,,,,,,,,,,,,,,,,,,,,,,,,,,,,,,,
,,5a732956f660ae0001a9b011,2026-03-17_15h08.54.692,kallum_motion_pilot_GIST_update_2,2026.1.1,Win32,59.52380952,5a732956f660ae0001a9b011,69b95efdef24cd8a694e89ee,69b95ffe19e871b7812a8d5c,0.0434,0.0434,0,144,144,77,1,threefour,,,,,,,,,,,,,,,,,,,,,,,,,,,,,,,,,,,,,,,,,,,,,,,,,,,,,,,,,,,,,,,,,,,,,,,,,,,,,,,,,,,,,,,,,,,,,,,,,,,,,,,,,,,,,,,,,,,,,,,,,,,,,,,,,,,,,,,,,
,,5a732956f660ae0001a9b011,2026-03-17_15h08.54.692,kallum_motion_pilot_GIST_update_2,2026.1.1,Win32,59.52380952,5a732956f660ae0001a9b011,69b95efdef24cd8a694e89ee,69b95ffe19e871b7812a8d5c,0.0436,0.0436,0,145,145,76,1,threeone,,,,,,,,,,,,,,,,,,,,,,,,,,,,,,,,,,,,,,,,,,,,,,,,,,,,,,,,,,,,,,,,,,,,,,,,,,,,,,,,,,,,,,,,,,,,,,,,,,,,,,,,,,,,,,,,,,,,,,,,,,,,,,,,,,,,,,,,,
,,5a732956f660ae0001a9b011,2026-03-17_15h08.54.692,kallum_motion_pilot_GIST_update_2,2026.1.1,Win32,59.52380952,5a732956f660ae0001a9b011,69b95efdef24cd8a694e89ee,69b95ffe19e871b7812a8d5c,0.0439,0.0439,0,146,146,55,1,fourthree,,,,,,,,,,,,,,,,,,,,,,,,,,,,,,,,,,,,,,,,,,,,,,,,,,,,,,,,,,,,,,,,,,,,,,,,,,,,,,,,,,,,,,,,,,,,,,,,,,,,,,,,,,,,,,,,,,,,,,,,,,,,,,,,,,,,,,,,,
,,5a732956f660ae0001a9b011,2026-03-17_15h08.54.692,kallum_motion_pilot_GIST_update_2,2026.1.1,Win32,59.52380952,5a732956f660ae0001a9b011,69b95efdef24cd8a694e89ee,69b95ffe19e871b7812a8d5c,0.0441,0.0441,0,147,147,140,1,sevenfive,,,,,,,,,,,,,,,,,,,,,,,,,,,,,,,,,,,,,,,,,,,,,,,,,,,,,,,,,,,,,,,,,,,,,,,,,,,,,,,,,,,,,,,,,,,,,,,,,,,,,,,,,,,,,,,,,,,,,,,,,,,,,,,,,,,,,,,,,
,,5a732956f660ae0001a9b011,2026-03-17_15h08.54.692,kallum_motion_pilot_GIST_update_2,2026.1.1,Win32,59.52380952,5a732956f660ae0001a9b011,69b95efdef24cd8a694e89ee,69b95ffe19e871b7812a8d5c,0.0443,0.0443,0,148,148,26,1,twoone,,,,,,,,,,,,,,,,,,,,,,,,,,,,,,,,,,,,,,,,,,,,,,,,,,,,,,,,,,,,,,,,,,,,,,,,,,,,,,,,,,,,,,,,,,,,,,,,,,,,,,,,,,,,,,,,,,,,,,,,,,,,,,,,,,,,,,,,,
,,5a732956f660ae0001a9b011,2026-03-17_15h08.54.692,kallum_motion_pilot_GIST_update_2,2026.1.1,Win32,59.52380952,5a732956f660ae0001a9b011,69b95efdef24cd8a694e89ee,69b95ffe19e871b7812a8d5c,0.0445,0.0445,0,149,149,83,1,sixeight,,,,,,,,,,,,,,,,,,,,,,,,,,,,,,,,,,,,,,,,,,,,,,,,,,,,,,,,,,,,,,,,,,,,,,,,,,,,,,,,,,,,,,,,,,,,,,,,,,,,,,,,,,,,,,,,,,,,,,,,,,,,,,,,,,,,,,,,,
,,5a732956f660ae0001a9b011,2026-03-17_15h08.54.692,kallum_motion_pilot_GIST_update_2,2026.1.1,Win32,59.52380952,5a732956f660ae0001a9b011,69b95efdef24cd8a694e89ee,69b95ffe19e871b7812a8d5c,0.0447,0.0447,0,150,150,133,1,seveneight,,,,,,,,,,,,,,,,,,,,,,,,,,,,,,,,,,,,,,,,,,,,,,,,,,,,,,,,,,,,,,,,,,,,,,,,,,,,,,,,,,,,,,,,,,,,,,,,,,,,,,,,,,,,,,,,,,,,,,,,,,,,,,,,,,,,,,,,,
,,5a732956f660ae0001a9b011,2026-03-17_15h08.54.692,kallum_motion_pilot_GIST_update_2,2026.1.1,Win32,59.52380952,5a732956f660ae0001a9b011,69b95efdef24cd8a694e89ee,69b95ffe19e871b7812a8d5c,0.0449,0.0449,0,151,151,23,1,fourthree,,,,,,,,,,,,,,,,,,,,,,,,,,,,,,,,,,,,,,,,,,,,,,,,,,,,,,,,,,,,,,,,,,,,,,,,,,,,,,,,,,,,,,,,,,,,,,,,,,,,,,,,,,,,,,,,,,,,,,,,,,,,,,,,,,,,,,,,,
,,5a732956f660ae0001a9b011,2026-03-17_15h08.54.692,kallum_motion_pilot_GIST_update_2,2026.1.1,Win32,59.52380952,5a732956f660ae0001a9b011,69b95efdef24cd8a694e89ee,69b95ffe19e871b7812a8d5c,0.0451,0.0451,0,152,152,130,1,sixfive,,,,,,,,,,,,,,,,,,,,,,,,,,,,,,,,,,,,,,,,,,,,,,,,,,,,,,,,,,,,,,,,,,,,,,,,,,,,,,,,,,,,,,,,,,,,,,,,,,,,,,,,,,,,,,,,,,,,,,,,,,,,,,,,,,,,,,,,,
,,5a732956f660ae0001a9b011,2026-03-17_15h08.54.692,kallum_motion_pilot_GIST_update_2,2026.1.1,Win32,59.52380952,5a732956f660ae0001a9b011,69b95efdef24cd8a694e89ee,69b95ffe19e871b7812a8d5c,0.0453,0.0453,0,153,153,57,1,onethree,,,,,,,,,,,,,,,,,,,,,,,,,,,,,,,,,,,,,,,,,,,,,,,,,,,,,,,,,,,,,,,,,,,,,,,,,,,,,,,,,,,,,,,,,,,,,,,,,,,,,,,,,,,,,,,,,,,,,,,,,,,,,,,,,,,,,,,,,
,,5a732956f660ae0001a9b011,2026-03-17_15h08.54.692,kallum_motion_pilot_GIST_update_2,2026.1.1,Win32,59.52380952,5a732956f660ae0001a9b011,69b95efdef24cd8a694e89ee,69b95ffe19e871b7812a8d5c,0.0455,0.0455,0,154,154,102,1,eightsix,,,,,,,,,,,,,,,,,,,,,,,,,,,,,,,,,,,,,,,,,,,,,,,,,,,,,,,,,,,,,,,,,,,,,,,,,,,,,,,,,,,,,,,,,,,,,,,,,,,,,,,,,,,,,,,,,,,,,,,,,,,,,,,,,,,,,,,,,
,,5a732956f660ae0001a9b011,2026-03-17_15h08.54.692,kallum_motion_pilot_GIST_update_2,2026.1.1,Win32,59.52380952,5a732956f660ae0001a9b011,69b95efdef24cd8a694e89ee,69b95ffe19e871b7812a8d5c,0.0457,0.0458,0,155,155,45,1,threefour,,,,,,,,,,,,,,,,,,,,,,,,,,,,,,,,,,,,,,,,,,,,,,,,,,,,,,,,,,,,,,,,,,,,,,,,,,,,,,,,,,,,,,,,,,,,,,,,,,,,,,,,,,,,,,,,,,,,,,,,,,,,,,,,,,,,,,,,,
,,5a732956f660ae0001a9b011,2026-03-17_15h08.54.692,kallum_motion_pilot_GIST_update_2,2026.1.1,Win32,59.52380952,5a732956f660ae0001a9b011,69b95efdef24cd8a694e89ee,69b95ffe19e871b7812a8d5c,0.0458,0.0459,0,156,156,89,1,fiveseven,,,,,,,,,,,,,,,,,,,,,,,,,,,,,,,,,,,,,,,,,,,,,,,,,,,,,,,,,,,,,,,,,,,,,,,,,,,,,,,,,,,,,,,,,,,,,,,,,,,,,,,,,,,,,,,,,,,,,,,,,,,,,,,,,,,,,,,,,
,,5a732956f660ae0001a9b011,2026-03-17_15h08.54.692,kallum_motion_pilot_GIST_update_2,2026.1.1,Win32,59.52380952,5a732956f660ae0001a9b011,69b95efdef24cd8a694e89ee,69b95ffe19e871b7812a8d5c,0.0461,0.0461,0,157,157,65,1,onethree,,,,,,,,,,,,,,,,,,,,,,,,,,,,,,,,,,,,,,,,,,,,,,,,,,,,,,,,,,,,,,,,,,,,,,,,,,,,,,,,,,,,,,,,,,,,,,,,,,,,,,,,,,,,,,,,,,,,,,,,,,,,,,,,,,,,,,,,,
,,5a732956f660ae0001a9b011,2026-03-17_15h08.54.692,kallum_motion_pilot_GIST_update_2,2026.1.1,Win32,59.52380952,5a732956f660ae0001a9b011,69b95efdef24cd8a694e89ee,69b95ffe19e871b7812a8d5c,0.0463,0.0463,0,158,158,85,1,seveneight,,,,,,,,,,,,,,,,,,,,,,,,,,,,,,,,,,,,,,,,,,,,,,,,,,,,,,,,,,,,,,,,,,,,,,,,,,,,,,,,,,,,,,,,,,,,,,,,,,,,,,,,,,,,,,,,,,,,,,,,,,,,,,,,,,,,,,,,,
,,5a732956f660ae0001a9b011,2026-03-17_15h08.54.692,kallum_motion_pilot_GIST_update_2,2026.1.1,Win32,59.52380952,5a732956f660ae0001a9b011,69b95efdef24cd8a694e89ee,69b95ffe19e871b7812a8d5c,0.0464,0.0464,0,159,159,70,1,fourtwo,,,,,,,,,,,,,,,,,,,,,,,,,,,,,,,,,,,,,,,,,,,,,,,,,,,,,,,,,,,,,,,,,,,,,,,,,,,,,,,,,,,,,,,,,,,,,,,,,,,,,,,,,,,,,,,,,,,,,,,,,,,,,,,,,,,,,,,,,
,,5a732956f660ae0001a9b011,2026-03-17_15h08.54.692,kallum_motion_pilot_GIST_update_2,2026.1.1,Win32,59.52380952,5a732956f660ae0001a9b011,69b95efdef24cd8a694e89ee,69b95ffe19e871b7812a8d5c,0.0472,0.0472,0,160,160,121,1,fiveseven,,,,,,,,,,,,,,,,,,,,,,,,,,,,,,,,,,,,,,,,,,,,,,,,,,,,,,,,,,,,,,,,,,,,,,,,,,,,,,,,,,,,,,,,,,,,,,,,,,,,,,,,,,,,,,,,,,,,,,,,,,,,,,,,,,,,,,,,,
,,5a732956f660ae0001a9b011,2026-03-17_15h08.54.692,kallum_motion_pilot_GIST_update_2,2026.1.1,Win32,59.52380952,5a732956f660ae0001a9b011,69b95efdef24cd8a694e89ee,69b95ffe19e871b7812a8d5c,0.0474,0.0474,0,161,161,106,1,sixfive,,,,,,,,,,,,,,,,,,,,,,,,,,,,,,,,,,,,,,,,,,,,,,,,,,,,,,,,,,,,,,,,,,,,,,,,,,,,,,,,,,,,,,,,,,,,,,,,,,,,,,,,,,,,,,,,,,,,,,,,,,,,,,,,,,,,,,,,,
,,5a732956f660ae0001a9b011,2026-03-17_15h08.54.692,kallum_motion_pilot_GIST_update_2,2026.1.1,Win32,59.52380952,5a732956f660ae0001a9b011,69b95efdef24cd8a694e89ee,69b95ffe19e871b7812a8d5c,0.0476,0.0476,1,0,162,13,1,threefour,,,,,,,,,,,,,,,,,,,,,,,,,,,,,,,,,,,,,,,,,,,,,,,,,,,,,,,,,,,,,,,,,,,,,,,,,,,,,,,,,,,,,,,,,,,,,,,,,,,,,,,,,,,,,,,,,,,,,,,,,,,,,,,,,,,,,,,,,
,,5a732956f660ae0001a9b011,2026-03-17_15h08.54.692,kallum_motion_pilot_GIST_update_2,2026.1.1,Win32,59.52380952,5a732956f660ae0001a9b011,69b95efdef24cd8a694e89ee,69b95ffe19e871b7812a8d5c,0.0477,0.0478,1,1,163,134,1,eightsix,,,,,,,,,,,,,,,,,,,,,,,,,,,,,,,,,,,,,,,,,,,,,,,,,,,,,,,,,,,,,,,,,,,,,,,,,,,,,,,,,,,,,,,,,,,,,,,,,,,,,,,,,,,,,,,,,,,,,,,,,,,,,,,,,,,,,,,,,
,,5a732956f660ae0001a9b011,2026-03-17_15h08.54.692,kallum_motion_pilot_GIST_update_2,2026.1.1,Win32,59.52380952,5a732956f660ae0001a9b011,69b95efdef24cd8a694e89ee,69b95ffe19e871b7812a8d5c,0.0479,0.0479,1,2,164,67,1,twofour,,,,,,,,,,,,,,,,,,,,,,,,,,,,,,,,,,,,,,,,,,,,,,,,,,,,,,,,,,,,,,,,,,,,,,,,,,,,,,,,,,,,,,,,,,,,,,,,,,,,,,,,,,,,,,,,,,,,,,,,,,,,,,,,,,,,,,,,,
,,5a732956f660ae0001a9b011,2026-03-17_15h08.54.692,kallum_motion_pilot_GIST_update_2,2026.1.1,Win32,59.52380952,5a732956f660ae0001a9b011,69b95efdef24cd8a694e89ee,69b95ffe19e871b7812a8d5c,0.0481,0.0481,1,3,165,148,1,sevenfive,,,,,,,,,,,,,,,,,,,,,,,,,,,,,,,,,,,,,,,,,,,,,,,,,,,,,,,,,,,,,,,,,,,,,,,,,,,,,,,,,,,,,,,,,,,,,,,,,,,,,,,,,,,,,,,,,,,,,,,,,,,,,,,,,,,,,,,,,
,,5a732956f660ae0001a9b011,2026-03-17_15h08.54.692,kallum_motion_pilot_GIST_update_2,2026.1.1,Win32,59.52380952,5a732956f660ae0001a9b011,69b95efdef24cd8a694e89ee,69b95ffe19e871b7812a8d5c,0.0483,0.0483,1,4,166,130,1,sixfive,,,,,,,,,,,,,,,,,,,,,,,,,,,,,,,,,,,,,,,,,,,,,,,,,,,,,,,,,,,,,,,,,,,,,,,,,,,,,,,,,,,,,,,,,,,,,,,,,,,,,,,,,,,,,,,,,,,,,,,,,,,,,,,,,,,,,,,,,
,,5a732956f660ae0001a9b011,2026-03-17_15h08.54.692,kallum_motion_pilot_GIST_update_2,2026.1.1,Win32,59.52380952,5a732956f660ae0001a9b011,69b95efdef24cd8a694e89ee,69b95ffe19e871b7812a8d5c,0.0485,0.0485,1,5,167,84,1,sevenfive,,,,,,,,,,,,,,,,,,,,,,,,,,,,,,,,,,,,,,,,,,,,,,,,,,,,,,,,,,,,,,,,,,,,,,,,,,,,,,,,,,,,,,,,,,,,,,,,,,,,,,,,,,,,,,,,,,,,,,,,,,,,,,,,,,,,,,,,,
,,5a732956f660ae0001a9b011,2026-03-17_15h08.54.692,kallum_motion_pilot_GIST_update_2,2026.1.1,Win32,59.52380952,5a732956f660ae0001a9b011,69b95efdef24cd8a694e89ee,69b95ffe19e871b7812a8d5c,0.0487,0.0487,1,6,168,24,1,onetwo,,,,,,,,,,,,,,,,,,,,,,,,,,,,,,,,,,,,,,,,,,,,,,,,,,,,,,,,,,,,,,,,,,,,,,,,,,,,,,,,,,,,,,,,,,,,,,,,,,,,,,,,,,,,,,,,,,,,,,,,,,,,,,,,,,,,,,,,,
,,5a732956f660ae0001a9b011,2026-03-17_15h08.54.692,kallum_motion_pilot_GIST_update_2,2026.1.1,Win32,59.52380952,5a732956f660ae0001a9b011,69b95efdef24cd8a694e89ee,69b95ffe19e871b7812a8d5c,0.0488,0.0488,1,7,169,15,1,fourthree,,,,,,,,,,,,,,,,,,,,,,,,,,,,,,,,,,,,,,,,,,,,,,,,,,,,,,,,,,,,,,,,,,,,,,,,,,,,,,,,,,,,,,,,,,,,,,,,,,,,,,,,,,,,,,,,,,,,,,,,,,,,,,,,,,,,,,,,,
,,5a732956f660ae0001a9b011,2026-03-17_15h08.54.692,kallum_motion_pilot_GIST_update_2,2026.1.1,Win32,59.52380952,5a732956f660ae0001a9b011,69b95efdef24cd8a694e89ee,69b95ffe19e871b7812a8d5c,0.0491,0.0491,1,8,170,99,1,sixeight,,,,,,,,,,,,,,,,,,,,,,,,,,,,,,,,,,,,,,,,,,,,,,,,,,,,,,,,,,,,,,,,,,,,,,,,,,,,,,,,,,,,,,,,,,,,,,,,,,,,,,,,,,,,,,,,,,,,,,,,,,,,,,,,,,,,,,,,,
,,5a732956f660ae0001a9b011,2026-03-17_15h08.54.692,kallum_motion_pilot_GIST_update_2,2026.1.1,Win32,59.52380952,5a732956f660ae0001a9b011,69b95efdef24cd8a694e89ee,69b95ffe19e871b7812a8d5c,0.0492,0.0493,1,9,171,39,1,fourthree,,,,,,,,,,,,,,,,,,,,,,,,,,,,,,,,,,,,,,,,,,,,,,,,,,,,,,,,,,,,,,,,,,,,,,,,,,,,,,,,,,,,,,,,,,,,,,,,,,,,,,,,,,,,,,,,,,,,,,,,,,,,,,,,,,,,,,,,,
,,5a732956f660ae0001a9b011,2026-03-17_15h08.54.692,kallum_motion_pilot_GIST_update_2,2026.1.1,Win32,59.52380952,5a732956f660ae0001a9b011,69b95efdef24cd8a694e89ee,69b95ffe19e871b7812a8d5c,0.0494,0.0494,1,10,172,35,1,twofour,,,,,,,,,,,,,,,,,,,,,,,,,,,,,,,,,,,,,,,,,,,,,,,,,,,,,,,,,,,,,,,,,,,,,,,,,,,,,,,,,,,,,,,,,,,,,,,,,,,,,,,,,,,,,,,,,,,,,,,,,,,,,,,,,,,,,,,,,
,,5a732956f660ae0001a9b011,2026-03-17_15h08.54.692,kallum_motion_pilot_GIST_update_2,2026.1.1,Win32,59.52380952,5a732956f660ae0001a9b011,69b95efdef24cd8a694e89ee,69b95ffe19e871b7812a8d5c,0.0496,0.0496,1,11,173,133,1,seveneight,,,,,,,,,,,,,,,,,,,,,,,,,,,,,,,,,,,,,,,,,,,,,,,,,,,,,,,,,,,,,,,,,,,,,,,,,,,,,,,,,,,,,,,,,,,,,,,,,,,,,,,,,,,,,,,,,,,,,,,,,,,,,,,,,,,,,,,,,
,,5a732956f660ae0001a9b011,2026-03-17_15h08.54.692,kallum_motion_pilot_GIST_update_2,2026.1.1,Win32,59.52380952,5a732956f660ae0001a9b011,69b95efdef24cd8a694e89ee,69b95ffe19e871b7812a8d5c,0.0498,0.0498,1,12,174,7,1,fourthree,,,,,,,,,,,,,,,,,,,,,,,,,,,,,,,,,,,,,,,,,,,,,,,,,,,,,,,,,,,,,,,,,,,,,,,,,,,,,,,,,,,,,,,,,,,,,,,,,,,,,,,,,,,,,,,,,,,,,,,,,,,,,,,,,,,,,,,,,
,,5a732956f660ae0001a9b011,2026-03-17_15h08.54.692,kallum_motion_pilot_GIST_update_2,2026.1.1,Win32,59.52380952,5a732956f660ae0001a9b011,69b95efdef24cd8a694e89ee,69b95ffe19e871b7812a8d5c,0.0499,0.0499,1,13,175,2,1,twoone,,,,,,,,,,,,,,,,,,,,,,,,,,,,,,,,,,,,,,,,,,,,,,,,,,,,,,,,,,,,,,,,,,,,,,,,,,,,,,,,,,,,,,,,,,,,,,,,,,,,,,,,,,,,,,,,,,,,,,,,,,,,,,,,,,,,,,,,,
,,5a732956f660ae0001a9b011,2026-03-17_15h08.54.692,kallum_motion_pilot_GIST_update_2,2026.1.1,Win32,59.52380952,5a732956f660ae0001a9b011,69b95efdef24cd8a694e89ee,69b95ffe19e871b7812a8d5c,0.0501,0.0501,1,14,176,96,1,fivesix,,,,,,,,,,,,,,,,,,,,,,,,,,,,,,,,,,,,,,,,,,,,,,,,,,,,,,,,,,,,,,,,,,,,,,,,,,,,,,,,,,,,,,,,,,,,,,,,,,,,,,,,,,,,,,,,,,,,,,,,,,,,,,,,,,,,,,,,,
,,5a732956f660ae0001a9b011,2026-03-17_15h08.54.692,kallum_motion_pilot_GIST_update_2,2026.1.1,Win32,59.52380952,5a732956f660ae0001a9b011,69b95efdef24cd8a694e89ee,69b95ffe19e871b7812a8d5c,0.0503,0.0503,1,15,177,105,1,fiveseven,,,,,,,,,,,,,,,,,,,,,,,,,,,,,,,,,,,,,,,,,,,,,,,,,,,,,,,,,,,,,,,,,,,,,,,,,,,,,,,,,,,,,,,,,,,,,,,,,,,,,,,,,,,,,,,,,,,,,,,,,,,,,,,,,,,,,,,,,
,,5a732956f660ae0001a9b011,2026-03-17_15h08.54.692,kallum_motion_pilot_GIST_update_2,2026.1.1,Win32,59.52380952,5a732956f660ae0001a9b011,69b95efdef24cd8a694e89ee,69b95ffe19e871b7812a8d5c,0.0505,0.0505,1,16,178,28,1,threeone,,,,,,,,,,,,,,,,,,,,,,,,,,,,,,,,,,,,,,,,,,,,,,,,,,,,,,,,,,,,,,,,,,,,,,,,,,,,,,,,,,,,,,,,,,,,,,,,,,,,,,,,,,,,,,,,,,,,,,,,,,,,,,,,,,,,,,,,,
,,5a732956f660ae0001a9b011,2026-03-17_15h08.54.692,kallum_motion_pilot_GIST_update_2,2026.1.1,Win32,59.52380952,5a732956f660ae0001a9b011,69b95efdef24cd8a694e89ee,69b95ffe19e871b7812a8d5c,0.0506,0.0507,1,17,179,154,1,sixfive,,,,,,,,,,,,,,,,,,,,,,,,,,,,,,,,,,,,,,,,,,,,,,,,,,,,,,,,,,,,,,,,,,,,,,,,,,,,,,,,,,,,,,,,,,,,,,,,,,,,,,,,,,,,,,,,,,,,,,,,,,,,,,,,,,,,,,,,,
,,5a732956f660ae0001a9b011,2026-03-17_15h08.54.692,kallum_motion_pilot_GIST_update_2,2026.1.1,Win32,59.52380952,5a732956f660ae0001a9b011,69b95efdef24cd8a694e89ee,69b95ffe19e871b7812a8d5c,0.0508,0.0509,1,18,180,125,1,seveneight,,,,,,,,,,,,,,,,,,,,,,,,,,,,,,,,,,,,,,,,,,,,,,,,,,,,,,,,,,,,,,,,,,,,,,,,,,,,,,,,,,,,,,,,,,,,,,,,,,,,,,,,,,,,,,,,,,,,,,,,,,,,,,,,,,,,,,,,,
,,5a732956f660ae0001a9b011,2026-03-17_15h08.54.692,kallum_motion_pilot_GIST_update_2,2026.1.1,Win32,59.52380952,5a732956f660ae0001a9b011,69b95efdef24cd8a694e89ee,69b95ffe19e871b7812a8d5c,0.051,0.051,1,19,181,31,1,fourthree,,,,,,,,,,,,,,,,,,,,,,,,,,,,,,,,,,,,,,,,,,,,,,,,,,,,,,,,,,,,,,,,,,,,,,,,,,,,,,,,,,,,,,,,,,,,,,,,,,,,,,,,,,,,,,,,,,,,,,,,,,,,,,,,,,,,,,,,,
,,5a732956f660ae0001a9b011,2026-03-17_15h08.54.692,kallum_motion_pilot_GIST_update_2,2026.1.1,Win32,59.52380952,5a732956f660ae0001a9b011,69b95efdef24cd8a694e89ee,69b95ffe19e871b7812a8d5c,0.0511,0.0512,1,20,182,14,1,fourtwo,,,,,,,,,,,,,,,,,,,,,,,,,,,,,,,,,,,,,,,,,,,,,,,,,,,,,,,,,,,,,,,,,,,,,,,,,,,,,,,,,,,,,,,,,,,,,,,,,,,,,,,,,,,,,,,,,,,,,,,,,,,,,,,,,,,,,,,,,
,,5a732956f660ae0001a9b011,2026-03-17_15h08.54.692,kallum_motion_pilot_GIST_update_2,2026.1.1,Win32,59.52380952,5a732956f660ae0001a9b011,69b95efdef24cd8a694e89ee,69b95ffe19e871b7812a8d5c,0.0513,0.0514,1,21,183,109,1,seveneight,,,,,,,,,,,,,,,,,,,,,,,,,,,,,,,,,,,,,,,,,,,,,,,,,,,,,,,,,,,,,,,,,,,,,,,,,,,,,,,,,,,,,,,,,,,,,,,,,,,,,,,,,,,,,,,,,,,,,,,,,,,,,,,,,,,,,,,,,
,,5a732956f660ae0001a9b011,2026-03-17_15h08.54.692,kallum_motion_pilot_GIST_update_2,2026.1.1,Win32,59.52380952,5a732956f660ae0001a9b011,69b95efdef24cd8a694e89ee,69b95ffe19e871b7812a8d5c,0.0516,0.0516,1,22,184,106,1,sixfive,,,,,,,,,,,,,,,,,,,,,,,,,,,,,,,,,,,,,,,,,,,,,,,,,,,,,,,,,,,,,,,,,,,,,,,,,,,,,,,,,,,,,,,,,,,,,,,,,,,,,,,,,,,,,,,,,,,,,,,,,,,,,,,,,,,,,,,,,
,,5a732956f660ae0001a9b011,2026-03-17_15h08.54.692,kallum_motion_pilot_GIST_update_2,2026.1.1,Win32,59.52380952,5a732956f660ae0001a9b011,69b95efdef24cd8a694e89ee,69b95ffe19e871b7812a8d5c,0.0517,0.0517,1,23,185,124,1,sevenfive,,,,,,,,,,,,,,,,,,,,,,,,,,,,,,,,,,,,,,,,,,,,,,,,,,,,,,,,,,,,,,,,,,,,,,,,,,,,,,,,,,,,,,,,,,,,,,,,,,,,,,,,,,,,,,,,,,,,,,,,,,,,,,,,,,,,,,,,,
,,5a732956f660ae0001a9b011,2026-03-17_15h08.54.692,kallum_motion_pilot_GIST_update_2,2026.1.1,Win32,59.52380952,5a732956f660ae0001a9b011,69b95efdef24cd8a694e89ee,69b95ffe19e871b7812a8d5c,0.0519,0.0519,1,24,186,107,1,sixeight,,,,,,,,,,,,,,,,,,,,,,,,,,,,,,,,,,,,,,,,,,,,,,,,,,,,,,,,,,,,,,,,,,,,,,,,,,,,,,,,,,,,,,,,,,,,,,,,,,,,,,,,,,,,,,,,,,,,,,,,,,,,,,,,,,,,,,,,,
,,5a732956f660ae0001a9b011,2026-03-17_15h08.54.692,kallum_motion_pilot_GIST_update_2,2026.1.1,Win32,59.52380952,5a732956f660ae0001a9b011,69b95efdef24cd8a694e89ee,69b95ffe19e871b7812a8d5c,0.0522,0.0522,1,25,187,44,1,threeone,,,,,,,,,,,,,,,,,,,,,,,,,,,,,,,,,,,,,,,,,,,,,,,,,,,,,,,,,,,,,,,,,,,,,,,,,,,,,,,,,,,,,,,,,,,,,,,,,,,,,,,,,,,,,,,,,,,,,,,,,,,,,,,,,,,,,,,,,
,,5a732956f660ae0001a9b011,2026-03-17_15h08.54.692,kallum_motion_pilot_GIST_update_2,2026.1.1,Win32,59.52380952,5a732956f660ae0001a9b011,69b95efdef24cd8a694e89ee,69b95ffe19e871b7812a8d5c,0.0525,0.0525,1,26,188,97,1,fiveseven,,,,,,,,,,,,,,,,,,,,,,,,,,,,,,,,,,,,,,,,,,,,,,,,,,,,,,,,,,,,,,,,,,,,,,,,,,,,,,,,,,,,,,,,,,,,,,,,,,,,,,,,,,,,,,,,,,,,,,,,,,,,,,,,,,,,,,,,,
,,5a732956f660ae0001a9b011,2026-03-17_15h08.54.692,kallum_motion_pilot_GIST_update_2,2026.1.1,Win32,59.52380952,5a732956f660ae0001a9b011,69b95efdef24cd8a694e89ee,69b95ffe19e871b7812a8d5c,0.0526,0.0527,1,27,189,62,1,fourtwo,,,,,,,,,,,,,,,,,,,,,,,,,,,,,,,,,,,,,,,,,,,,,,,,,,,,,,,,,,,,,,,,,,,,,,,,,,,,,,,,,,,,,,,,,,,,,,,,,,,,,,,,,,,,,,,,,,,,,,,,,,,,,,,,,,,,,,,,,
,,5a732956f660ae0001a9b011,2026-03-17_15h08.54.692,kallum_motion_pilot_GIST_update_2,2026.1.1,Win32,59.52380952,5a732956f660ae0001a9b011,69b95efdef24cd8a694e89ee,69b95ffe19e871b7812a8d5c,0.0529,0.0529,1,28,190,21,1,threefour,,,,,,,,,,,,,,,,,,,,,,,,,,,,,,,,,,,,,,,,,,,,,,,,,,,,,,,,,,,,,,,,,,,,,,,,,,,,,,,,,,,,,,,,,,,,,,,,,,,,,,,,,,,,,,,,,,,,,,,,,,,,,,,,,,,,,,,,,
,,5a732956f660ae0001a9b011,2026-03-17_15h08.54.692,kallum_motion_pilot_GIST_update_2,2026.1.1,Win32,59.52380952,5a732956f660ae0001a9b011,69b95efdef24cd8a694e89ee,69b95ffe19e871b7812a8d5c,0.053,0.053,1,29,191,72,1,onetwo,,,,,,,,,,,,,,,,,,,,,,,,,,,,,,,,,,,,,,,,,,,,,,,,,,,,,,,,,,,,,,,,,,,,,,,,,,,,,,,,,,,,,,,,,,,,,,,,,,,,,,,,,,,,,,,,,,,,,,,,,,,,,,,,,,,,,,,,,
,,5a732956f660ae0001a9b011,2026-03-17_15h08.54.692,kallum_motion_pilot_GIST_update_2,2026.1.1,Win32,59.52380952,5a732956f660ae0001a9b011,69b95efdef24cd8a694e89ee,69b95ffe19e871b7812a8d5c,0.0532,0.0532,1,30,192,78,1,fourtwo,,,,,,,,,,,,,,,,,,,,,,,,,,,,,,,,,,,,,,,,,,,,,,,,,,,,,,,,,,,,,,,,,,,,,,,,,,,,,,,,,,,,,,,,,,,,,,,,,,,,,,,,,,,,,,,,,,,,,,,,,,,,,,,,,,,,,,,,,
,,5a732956f660ae0001a9b011,2026-03-17_15h08.54.692,kallum_motion_pilot_GIST_update_2,2026.1.1,Win32,59.52380952,5a732956f660ae0001a9b011,69b95efdef24cd8a694e89ee,69b95ffe19e871b7812a8d5c,0.0533,0.0534,1,31,193,114,1,sixfive,,,,,,,,,,,,,,,,,,,,,,,,,,,,,,,,,,,,,,,,,,,,,,,,,,,,,,,,,,,,,,,,,,,,,,,,,,,,,,,,,,,,,,,,,,,,,,,,,,,,,,,,,,,,,,,,,,,,,,,,,,,,,,,,,,,,,,,,,
,,5a732956f660ae0001a9b011,2026-03-17_15h08.54.692,kallum_motion_pilot_GIST_update_2,2026.1.1,Win32,59.52380952,5a732956f660ae0001a9b011,69b95efdef24cd8a694e89ee,69b95ffe19e871b7812a8d5c,0.0536,0.0536,1,32,194,110,1,eightsix,,,,,,,,,,,,,,,,,,,,,,,,,,,,,,,,,,,,,,,,,,,,,,,,,,,,,,,,,,,,,,,,,,,,,,,,,,,,,,,,,,,,,,,,,,,,,,,,,,,,,,,,,,,,,,,,,,,,,,,,,,,,,,,,,,,,,,,,,
,,5a732956f660ae0001a9b011,2026-03-17_15h08.54.692,kallum_motion_pilot_GIST_update_2,2026.1.1,Win32,59.52380952,5a732956f660ae0001a9b011,69b95efdef24cd8a694e89ee,69b95ffe19e871b7812a8d5c,0.0539,0.0539,1,33,195,101,1,seveneight,,,,,,,,,,,,,,,,,,,,,,,,,,,,,,,,,,,,,,,,,,,,,,,,,,,,,,,,,,,,,,,,,,,,,,,,,,,,,,,,,,,,,,,,,,,,,,,,,,,,,,,,,,,,,,,,,,,,,,,,,,,,,,,,,,,,,,,,,
,,5a732956f660ae0001a9b011,2026-03-17_15h08.54.692,kallum_motion_pilot_GIST_update_2,2026.1.1,Win32,59.52380952,5a732956f660ae0001a9b011,69b95efdef24cd8a694e89ee,69b95ffe19e871b7812a8d5c,0.0541,0.0541,1,34,196,85,1,seveneight,,,,,,,,,,,,,,,,,,,,,,,,,,,,,,,,,,,,,,,,,,,,,,,,,,,,,,,,,,,,,,,,,,,,,,,,,,,,,,,,,,,,,,,,,,,,,,,,,,,,,,,,,,,,,,,,,,,,,,,,,,,,,,,,,,,,,,,,,
,,5a732956f660ae0001a9b011,2026-03-17_15h08.54.692,kallum_motion_pilot_GIST_update_2,2026.1.1,Win32,59.52380952,5a732956f660ae0001a9b011,69b95efdef24cd8a694e89ee,69b95ffe19e871b7812a8d5c,0.0543,0.0543,1,35,197,53,1,threefour,,,,,,,,,,,,,,,,,,,,,,,,,,,,,,,,,,,,,,,,,,,,,,,,,,,,,,,,,,,,,,,,,,,,,,,,,,,,,,,,,,,,,,,,,,,,,,,,,,,,,,,,,,,,,,,,,,,,,,,,,,,,,,,,,,,,,,,,,
,,5a732956f660ae0001a9b011,2026-03-17_15h08.54.692,kallum_motion_pilot_GIST_update_2,2026.1.1,Win32,59.52380952,5a732956f660ae0001a9b011,69b95efdef24cd8a694e89ee,69b95ffe19e871b7812a8d5c,0.0545,0.0545,1,36,198,155,1,sixeight,,,,,,,,,,,,,,,,,,,,,,,,,,,,,,,,,,,,,,,,,,,,,,,,,,,,,,,,,,,,,,,,,,,,,,,,,,,,,,,,,,,,,,,,,,,,,,,,,,,,,,,,,,,,,,,,,,,,,,,,,,,,,,,,,,,,,,,,,
,,5a732956f660ae0001a9b011,2026-03-17_15h08.54.692,kallum_motion_pilot_GIST_update_2,2026.1.1,Win32,59.52380952,5a732956f660ae0001a9b011,69b95efdef24cd8a694e89ee,69b95ffe19e871b7812a8d5c,0.0546,0.0547,1,37,199,3,1,twofour,,,,,,,,,,,,,,,,,,,,,,,,,,,,,,,,,,,,,,,,,,,,,,,,,,,,,,,,,,,,,,,,,,,,,,,,,,,,,,,,,,,,,,,,,,,,,,,,,,,,,,,,,,,,,,,,,,,,,,,,,,,,,,,,,,,,,,,,,
,,5a732956f660ae0001a9b011,2026-03-17_15h08.54.692,kallum_motion_pilot_GIST_update_2,2026.1.1,Win32,59.52380952,5a732956f660ae0001a9b011,69b95efdef24cd8a694e89ee,69b95ffe19e871b7812a8d5c,0.0549,0.0549,1,38,200,128,1,fivesix,,,,,,,,,,,,,,,,,,,,,,,,,,,,,,,,,,,,,,,,,,,,,,,,,,,,,,,,,,,,,,,,,,,,,,,,,,,,,,,,,,,,,,,,,,,,,,,,,,,,,,,,,,,,,,,,,,,,,,,,,,,,,,,,,,,,,,,,,
,,5a732956f660ae0001a9b011,2026-03-17_15h08.54.692,kallum_motion_pilot_GIST_update_2,2026.1.1,Win32,59.52380952,5a732956f660ae0001a9b011,69b95efdef24cd8a694e89ee,69b95ffe19e871b7812a8d5c,0.055,0.0551,1,39,201,136,1,fivesix,,,,,,,,,,,,,,,,,,,,,,,,,,,,,,,,,,,,,,,,,,,,,,,,,,,,,,,,,,,,,,,,,,,,,,,,,,,,,,,,,,,,,,,,,,,,,,,,,,,,,,,,,,,,,,,,,,,,,,,,,,,,,,,,,,,,,,,,,
,,5a732956f660ae0001a9b011,2026-03-17_15h08.54.692,kallum_motion_pilot_GIST_update_2,2026.1.1,Win32,59.52380952,5a732956f660ae0001a9b011,69b95efdef24cd8a694e89ee,69b95ffe19e871b7812a8d5c,0.0552,0.0552,1,40,202,120,1,fivesix,,,,,,,,,,,,,,,,,,,,,,,,,,,,,,,,,,,,,,,,,,,,,,,,,,,,,,,,,,,,,,,,,,,,,,,,,,,,,,,,,,,,,,,,,,,,,,,,,,,,,,,,,,,,,,,,,,,,,,,,,,,,,,,,,,,,,,,,,
,,5a732956f660ae0001a9b011,2026-03-17_15h08.54.692,kallum_motion_pilot_GIST_update_2,2026.1.1,Win32,59.52380952,5a732956f660ae0001a9b011,69b95efdef24cd8a694e89ee,69b95ffe19e871b7812a8d5c,0.0554,0.0554,1,41,203,123,1,sixeight,,,,,,,,,,,,,,,,,,,,,,,,,,,,,,,,,,,,,,,,,,,,,,,,,,,,,,,,,,,,,,,,,,,,,,,,,,,,,,,,,,,,,,,,,,,,,,,,,,,,,,,,,,,,,,,,,,,,,,,,,,,,,,,,,,,,,,,,,
,,5a732956f660ae0001a9b011,2026-03-17_15h08.54.692,kallum_motion_pilot_GIST_update_2,2026.1.1,Win32,59.52380952,5a732956f660ae0001a9b011,69b95efdef24cd8a694e89ee,69b95ffe19e871b7812a8d5c,0.0556,0.0556,1,42,204,65,1,onethree,,,,,,,,,,,,,,,,,,,,,,,,,,,,,,,,,,,,,,,,,,,,,,,,,,,,,,,,,,,,,,,,,,,,,,,,,,,,,,,,,,,,,,,,,,,,,,,,,,,,,,,,,,,,,,,,,,,,,,,,,,,,,,,,,,,,,,,,,
,,5a732956f660ae0001a9b011,2026-03-17_15h08.54.692,kallum_motion_pilot_GIST_update_2,2026.1.1,Win32,59.52380952,5a732956f660ae0001a9b011,69b95efdef24cd8a694e89ee,69b95ffe19e871b7812a8d5c,0.0558,0.0558,1,43,205,119,1,eightseven,,,,,,,,,,,,,,,,,,,,,,,,,,,,,,,,,,,,,,,,,,,,,,,,,,,,,,,,,,,,,,,,,,,,,,,,,,,,,,,,,,,,,,,,,,,,,,,,,,,,,,,,,,,,,,,,,,,,,,,,,,,,,,,,,,,,,,,,,
,,5a732956f660ae0001a9b011,2026-03-17_15h08.54.692,kallum_motion_pilot_GIST_update_2,2026.1.1,Win32,59.52380952,5a732956f660ae0001a9b011,69b95efdef24cd8a694e89ee,69b95ffe19e871b7812a8d5c,0.056,0.056,1,44,206,90,1,sixfive,,,,,,,,,,,,,,,,,,,,,,,,,,,,,,,,,,,,,,,,,,,,,,,,,,,,,,,,,,,,,,,,,,,,,,,,,,,,,,,,,,,,,,,,,,,,,,,,,,,,,,,,,,,,,,,,,,,,,,,,,,,,,,,,,,,,,,,,,
,,5a732956f660ae0001a9b011,2026-03-17_15h08.54.692,kallum_motion_pilot_GIST_update_2,2026.1.1,Win32,59.52380952,5a732956f660ae0001a9b011,69b95efdef24cd8a694e89ee,69b95ffe19e871b7812a8d5c,0.0562,0.0562,1,45,207,17,1,onethree,,,,,,,,,,,,,,,,,,,,,,,,,,,,,,,,,,,,,,,,,,,,,,,,,,,,,,,,,,,,,,,,,,,,,,,,,,,,,,,,,,,,,,,,,,,,,,,,,,,,,,,,,,,,,,,,,,,,,,,,,,,,,,,,,,,,,,,,,
,,5a732956f660ae0001a9b011,2026-03-17_15h08.54.692,kallum_motion_pilot_GIST_update_2,2026.1.1,Win32,59.52380952,5a732956f660ae0001a9b011,69b95efdef24cd8a694e89ee,69b95ffe19e871b7812a8d5c,0.0563,0.0563,1,46,208,6,1,fourtwo,,,,,,,,,,,,,,,,,,,,,,,,,,,,,,,,,,,,,,,,,,,,,,,,,,,,,,,,,,,,,,,,,,,,,,,,,,,,,,,,,,,,,,,,,,,,,,,,,,,,,,,,,,,,,,,,,,,,,,,,,,,,,,,,,,,,,,,,,
,,5a732956f660ae0001a9b011,2026-03-17_15h08.54.692,kallum_motion_pilot_GIST_update_2,2026.1.1,Win32,59.52380952,5a732956f660ae0001a9b011,69b95efdef24cd8a694e89ee,69b95ffe19e871b7812a8d5c,0.0565,0.0566,1,47,209,100,1,sevenfive,,,,,,,,,,,,,,,,,,,,,,,,,,,,,,,,,,,,,,,,,,,,,,,,,,,,,,,,,,,,,,,,,,,,,,,,,,,,,,,,,,,,,,,,,,,,,,,,,,,,,,,,,,,,,,,,,,,,,,,,,,,,,,,,,,,,,,,,,
,,5a732956f660ae0001a9b011,2026-03-17_15h08.54.692,kallum_motion_pilot_GIST_update_2,2026.1.1,Win32,59.52380952,5a732956f660ae0001a9b011,69b95efdef24cd8a694e89ee,69b95ffe19e871b7812a8d5c,0.0568,0.0568,1,48,210,70,1,fourtwo,,,,,,,,,,,,,,,,,,,,,,,,,,,,,,,,,,,,,,,,,,,,,,,,,,,,,,,,,,,,,,,,,,,,,,,,,,,,,,,,,,,,,,,,,,,,,,,,,,,,,,,,,,,,,,,,,,,,,,,,,,,,,,,,,,,,,,,,,
,,5a732956f660ae0001a9b011,2026-03-17_15h08.54.692,kallum_motion_pilot_GIST_update_2,2026.1.1,Win32,59.52380952,5a732956f660ae0001a9b011,69b95efdef24cd8a694e89ee,69b95ffe19e871b7812a8d5c,0.057,0.057,1,49,211,26,1,twoone,,,,,,,,,,,,,,,,,,,,,,,,,,,,,,,,,,,,,,,,,,,,,,,,,,,,,,,,,,,,,,,,,,,,,,,,,,,,,,,,,,,,,,,,,,,,,,,,,,,,,,,,,,,,,,,,,,,,,,,,,,,,,,,,,,,,,,,,,
,,5a732956f660ae0001a9b011,2026-03-17_15h08.54.692,kallum_motion_pilot_GIST_update_2,2026.1.1,Win32,59.52380952,5a732956f660ae0001a9b011,69b95efdef24cd8a694e89ee,69b95ffe19e871b7812a8d5c,0.0572,0.0572,1,50,212,59,1,twofour,,,,,,,,,,,,,,,,,,,,,,,,,,,,,,,,,,,,,,,,,,,,,,,,,,,,,,,,,,,,,,,,,,,,,,,,,,,,,,,,,,,,,,,,,,,,,,,,,,,,,,,,,,,,,,,,,,,,,,,,,,,,,,,,,,,,,,,,,
,,5a732956f660ae0001a9b011,2026-03-17_15h08.54.692,kallum_motion_pilot_GIST_update_2,2026.1.1,Win32,59.52380952,5a732956f660ae0001a9b011,69b95efdef24cd8a694e89ee,69b95ffe19e871b7812a8d5c,0.0573,0.0574,1,51,213,122,1,sixfive,,,,,,,,,,,,,,,,,,,,,,,,,,,,,,,,,,,,,,,,,,,,,,,,,,,,,,,,,,,,,,,,,,,,,,,,,,,,,,,,,,,,,,,,,,,,,,,,,,,,,,,,,,,,,,,,,,,,,,,,,,,,,,,,,,,,,,,,,
,,5a732956f660ae0001a9b011,2026-03-17_15h08.54.692,kallum_motion_pilot_GIST_update_2,2026.1.1,Win32,59.52380952,5a732956f660ae0001a9b011,69b95efdef24cd8a694e89ee,69b95ffe19e871b7812a8d5c,0.0576,0.0576,1,52,214,0,1,onetwo,,,,,,,,,,,,,,,,,,,,,,,,,,,,,,,,,,,,,,,,,,,,,,,,,,,,,,,,,,,,,,,,,,,,,,,,,,,,,,,,,,,,,,,,,,,,,,,,,,,,,,,,,,,,,,,,,,,,,,,,,,,,,,,,,,,,,,,,,
,,5a732956f660ae0001a9b011,2026-03-17_15h08.54.692,kallum_motion_pilot_GIST_update_2,2026.1.1,Win32,59.52380952,5a732956f660ae0001a9b011,69b95efdef24cd8a694e89ee,69b95ffe19e871b7812a8d5c,0.0578,0.0578,1,53,215,145,1,fiveseven,,,,,,,,,,,,,,,,,,,,,,,,,,,,,,,,,,,,,,,,,,,,,,,,,,,,,,,,,,,,,,,,,,,,,,,,,,,,,,,,,,,,,,,,,,,,,,,,,,,,,,,,,,,,,,,,,,,,,,,,,,,,,,,,,,,,,,,,,
,,5a732956f660ae0001a9b011,2026-03-17_15h08.54.692,kallum_motion_pilot_GIST_update_2,2026.1.1,Win32,59.52380952,5a732956f660ae0001a9b011,69b95efdef24cd8a694e89ee,69b95ffe19e871b7812a8d5c,0.058,0.058,1,54,216,19,1,twofour,,,,,,,,,,,,,,,,,,,,,,,,,,,,,,,,,,,,,,,,,,,,,,,,,,,,,,,,,,,,,,,,,,,,,,,,,,,,,,,,,,,,,,,,,,,,,,,,,,,,,,,,,,,,,,,,,,,,,,,,,,,,,,,,,,,,,,,,,
,,5a732956f660ae0001a9b011,2026-03-17_15h08.54.692,kallum_motion_pilot_GIST_update_2,2026.1.1,Win32,59.52380952,5a732956f660ae0001a9b011,69b95efdef24cd8a694e89ee,69b95ffe19e871b7812a8d5c,0.0583,0.0583,1,55,217,69,1,threefour,,,,,,,,,,,,,,,,,,,,,,,,,,,,,,,,,,,,,,,,,,,,,,,,,,,,,,,,,,,,,,,,,,,,,,,,,,,,,,,,,,,,,,,,,,,,,,,,,,,,,,,,,,,,,,,,,,,,,,,,,,,,,,,,,,,,,,,,,
,,5a732956f660ae0001a9b011,2026-03-17_15h08.54.692,kallum_motion_pilot_GIST_update_2,2026.1.1,Win32,59.52380952,5a732956f660ae0001a9b011,69b95efdef24cd8a694e89ee,69b95ffe19e871b7812a8d5c,0.0585,0.0585,1,56,218,83,1,sixeight,,,,,,,,,,,,,,,,,,,,,,,,,,,,,,,,,,,,,,,,,,,,,,,,,,,,,,,,,,,,,,,,,,,,,,,,,,,,,,,,,,,,,,,,,,,,,,,,,,,,,,,,,,,,,,,,,,,,,,,,,,,,,,,,,,,,,,,,,
,,5a732956f660ae0001a9b011,2026-03-17_15h08.54.692,kallum_motion_pilot_GIST_update_2,2026.1.1,Win32,59.52380952,5a732956f660ae0001a9b011,69b95efdef24cd8a694e89ee,69b95ffe19e871b7812a8d5c,0.0587,0.0587,1,57,219,42,1,twoone,,,,,,,,,,,,,,,,,,,,,,,,,,,,,,,,,,,,,,,,,,,,,,,,,,,,,,,,,,,,,,,,,,,,,,,,,,,,,,,,,,,,,,,,,,,,,,,,,,,,,,,,,,,,,,,,,,,,,,,,,,,,,,,,,,,,,,,,,
,,5a732956f660ae0001a9b011,2026-03-17_15h08.54.692,kallum_motion_pilot_GIST_update_2,2026.1.1,Win32,59.52380952,5a732956f660ae0001a9b011,69b95efdef24cd8a694e89ee,69b95ffe19e871b7812a8d5c,0.0589,0.0589,1,58,220,1,1,onethree,,,,,,,,,,,,,,,,,,,,,,,,,,,,,,,,,,,,,,,,,,,,,,,,,,,,,,,,,,,,,,,,,,,,,,,,,,,,,,,,,,,,,,,,,,,,,,,,,,,,,,,,,,,,,,,,,,,,,,,,,,,,,,,,,,,,,,,,,
,,5a732956f660ae0001a9b011,2026-03-17_15h08.54.692,kallum_motion_pilot_GIST_update_2,2026.1.1,Win32,59.52380952,5a732956f660ae0001a9b011,69b95efdef24cd8a694e89ee,69b95ffe19e871b7812a8d5c,0.059,0.059,1,59,221,63,1,fourthree,,,,,,,,,,,,,,,,,,,,,,,,,,,,,,,,,,,,,,,,,,,,,,,,,,,,,,,,,,,,,,,,,,,,,,,,,,,,,,,,,,,,,,,,,,,,,,,,,,,,,,,,,,,,,,,,,,,,,,,,,,,,,,,,,,,,,,,,,
,,5a732956f660ae0001a9b011,2026-03-17_15h08.54.692,kallum_motion_pilot_GIST_update_2,2026.1.1,Win32,59.52380952,5a732956f660ae0001a9b011,69b95efdef24cd8a694e89ee,69b95ffe19e871b7812a8d5c,0.0594,0.0594,1,60,222,32,1,onetwo,,,,,,,,,,,,,,,,,,,,,,,,,,,,,,,,,,,,,,,,,,,,,,,,,,,,,,,,,,,,,,,,,,,,,,,,,,,,,,,,,,,,,,,,,,,,,,,,,,,,,,,,,,,,,,,,,,,,,,,,,,,,,,,,,,,,,,,,,
,,5a732956f660ae0001a9b011,2026-03-17_15h08.54.692,kallum_motion_pilot_GIST_update_2,2026.1.1,Win32,59.52380952,5a732956f660ae0001a9b011,69b95efdef24cd8a694e89ee,69b95ffe19e871b7812a8d5c,0.0596,0.0596,1,61,223,94,1,eightsix,,,,,,,,,,,,,,,,,,,,,,,,,,,,,,,,,,,,,,,,,,,,,,,,,,,,,,,,,,,,,,,,,,,,,,,,,,,,,,,,,,,,,,,,,,,,,,,,,,,,,,,,,,,,,,,,,,,,,,,,,,,,,,,,,,,,,,,,,
,,5a732956f660ae0001a9b011,2026-03-17_15h08.54.692,kallum_motion_pilot_GIST_update_2,2026.1.1,Win32,59.52380952,5a732956f660ae0001a9b011,69b95efdef24cd8a694e89ee,69b95ffe19e871b7812a8d5c,0.0598,0.0598,1,62,224,113,1,fiveseven,,,,,,,,,,,,,,,,,,,,,,,,,,,,,,,,,,,,,,,,,,,,,,,,,,,,,,,,,,,,,,,,,,,,,,,,,,,,,,,,,,,,,,,,,,,,,,,,,,,,,,,,,,,,,,,,,,,,,,,,,,,,,,,,,,,,,,,,,
,,5a732956f660ae0001a9b011,2026-03-17_15h08.54.692,kallum_motion_pilot_GIST_update_2,2026.1.1,Win32,59.52380952,5a732956f660ae0001a9b011,69b95efdef24cd8a694e89ee,69b95ffe19e871b7812a8d5c,0.06,0.06,1,63,225,93,1,seveneight,,,,,,,,,,,,,,,,,,,,,,,,,,,,,,,,,,,,,,,,,,,,,,,,,,,,,,,,,,,,,,,,,,,,,,,,,,,,,,,,,,,,,,,,,,,,,,,,,,,,,,,,,,,,,,,,,,,,,,,,,,,,,,,,,,,,,,,,,
,,5a732956f660ae0001a9b011,2026-03-17_15h08.54.692,kallum_motion_pilot_GIST_update_2,2026.1.1,Win32,59.52380952,5a732956f660ae0001a9b011,69b95efdef24cd8a694e89ee,69b95ffe19e871b7812a8d5c,0.0601,0.0601,1,64,226,98,1,sixfive,,,,,,,,,,,,,,,,,,,,,,,,,,,,,,,,,,,,,,,,,,,,,,,,,,,,,,,,,,,,,,,,,,,,,,,,,,,,,,,,,,,,,,,,,,,,,,,,,,,,,,,,,,,,,,,,,,,,,,,,,,,,,,,,,,,,,,,,,
,,5a732956f660ae0001a9b011,2026-03-17_15h08.54.692,kallum_motion_pilot_GIST_update_2,2026.1.1,Win32,59.52380952,5a732956f660ae0001a9b011,69b95efdef24cd8a694e89ee,69b95ffe19e871b7812a8d5c,0.0604,0.0604,1,65,227,150,1,eightsix,,,,,,,,,,,,,,,,,,,,,,,,,,,,,,,,,,,,,,,,,,,,,,,,,,,,,,,,,,,,,,,,,,,,,,,,,,,,,,,,,,,,,,,,,,,,,,,,,,,,,,,,,,,,,,,,,,,,,,,,,,,,,,,,,,,,,,,,,
,,5a732956f660ae0001a9b011,2026-03-17_15h08.54.692,kallum_motion_pilot_GIST_update_2,2026.1.1,Win32,59.52380952,5a732956f660ae0001a9b011,69b95efdef24cd8a694e89ee,69b95ffe19e871b7812a8d5c,0.0606,0.0606,1,66,228,20,1,threeone,,,,,,,,,,,,,,,,,,,,,,,,,,,,,,,,,,,,,,,,,,,,,,,,,,,,,,,,,,,,,,,,,,,,,,,,,,,,,,,,,,,,,,,,,,,,,,,,,,,,,,,,,,,,,,,,,,,,,,,,,,,,,,,,,,,,,,,,,
,,5a732956f660ae0001a9b011,2026-03-17_15h08.54.692,kallum_motion_pilot_GIST_update_2,2026.1.1,Win32,59.52380952,5a732956f660ae0001a9b011,69b95efdef24cd8a694e89ee,69b95ffe19e871b7812a8d5c,0.0607,0.0608,1,67,229,160,1,fivesix,,,,,,,,,,,,,,,,,,,,,,,,,,,,,,,,,,,,,,,,,,,,,,,,,,,,,,,,,,,,,,,,,,,,,,,,,,,,,,,,,,,,,,,,,,,,,,,,,,,,,,,,,,,,,,,,,,,,,,,,,,,,,,,,,,,,,,,,,
,,5a732956f660ae0001a9b011,2026-03-17_15h08.54.692,kallum_motion_pilot_GIST_update_2,2026.1.1,Win32,59.52380952,5a732956f660ae0001a9b011,69b95efdef24cd8a694e89ee,69b95ffe19e871b7812a8d5c,0.0609,0.061,1,68,230,52,1,threeone,,,,,,,,,,,,,,,,,,,,,,,,,,,,,,,,,,,,,,,,,,,,,,,,,,,,,,,,,,,,,,,,,,,,,,,,,,,,,,,,,,,,,,,,,,,,,,,,,,,,,,,,,,,,,,,,,,,,,,,,,,,,,,,,,,,,,,,,,
,,5a732956f660ae0001a9b011,2026-03-17_15h08.54.692,kallum_motion_pilot_GIST_update_2,2026.1.1,Win32,59.52380952,5a732956f660ae0001a9b011,69b95efdef24cd8a694e89ee,69b95ffe19e871b7812a8d5c,0.0611,0.0611,1,69,231,103,1,eightseven,,,,,,,,,,,,,,,,,,,,,,,,,,,,,,,,,,,,,,,,,,,,,,,,,,,,,,,,,,,,,,,,,,,,,,,,,,,,,,,,,,,,,,,,,,,,,,,,,,,,,,,,,,,,,,,,,,,,,,,,,,,,,,,,,,,,,,,,,
,,5a732956f660ae0001a9b011,2026-03-17_15h08.54.692,kallum_motion_pilot_GIST_update_2,2026.1.1,Win32,59.52380952,5a732956f660ae0001a9b011,69b95efdef24cd8a694e89ee,69b95ffe19e871b7812a8d5c,0.0613,0.0613,1,70,232,64,1,onetwo,,,,,,,,,,,,,,,,,,,,,,,,,,,,,,,,,,,,,,,,,,,,,,,,,,,,,,,,,,,,,,,,,,,,,,,,,,,,,,,,,,,,,,,,,,,,,,,,,,,,,,,,,,,,,,,,,,,,,,,,,,,,,,,,,,,,,,,,,
,,5a732956f660ae0001a9b011,2026-03-17_15h08.54.692,kallum_motion_pilot_GIST_update_2,2026.1.1,Win32,59.52380952,5a732956f660ae0001a9b011,69b95efdef24cd8a694e89ee,69b95ffe19e871b7812a8d5c,0.0615,0.0615,1,71,233,51,1,twofour,,,,,,,,,,,,,,,,,,,,,,,,,,,,,,,,,,,,,,,,,,,,,,,,,,,,,,,,,,,,,,,,,,,,,,,,,,,,,,,,,,,,,,,,,,,,,,,,,,,,,,,,,,,,,,,,,,,,,,,,,,,,,,,,,,,,,,,,,
,,5a732956f660ae0001a9b011,2026-03-17_15h08.54.692,kallum_motion_pilot_GIST_update_2,2026.1.1,Win32,59.52380952,5a732956f660ae0001a9b011,69b95efdef24cd8a694e89ee,69b95ffe19e871b7812a8d5c,0.0617,0.0617,1,72,234,149,1,seveneight,,,,,,,,,,,,,,,,,,,,,,,,,,,,,,,,,,,,,,,,,,,,,,,,,,,,,,,,,,,,,,,,,,,,,,,,,,,,,,,,,,,,,,,,,,,,,,,,,,,,,,,,,,,,,,,,,,,,,,,,,,,,,,,,,,,,,,,,,
,,5a732956f660ae0001a9b011,2026-03-17_15h08.54.692,kallum_motion_pilot_GIST_update_2,2026.1.1,Win32,59.52380952,5a732956f660ae0001a9b011,69b95efdef24cd8a694e89ee,69b95ffe19e871b7812a8d5c,0.0619,0.0619,1,73,235,48,1,onetwo,,,,,,,,,,,,,,,,,,,,,,,,,,,,,,,,,,,,,,,,,,,,,,,,,,,,,,,,,,,,,,,,,,,,,,,,,,,,,,,,,,,,,,,,,,,,,,,,,,,,,,,,,,,,,,,,,,,,,,,,,,,,,,,,,,,,,,,,,
,,5a732956f660ae0001a9b011,2026-03-17_15h08.54.692,kallum_motion_pilot_GIST_update_2,2026.1.1,Win32,59.52380952,5a732956f660ae0001a9b011,69b95efdef24cd8a694e89ee,69b95ffe19e871b7812a8d5c,0.0621,0.0621,1,74,236,76,1,threeone,,,,,,,,,,,,,,,,,,,,,,,,,,,,,,,,,,,,,,,,,,,,,,,,,,,,,,,,,,,,,,,,,,,,,,,,,,,,,,,,,,,,,,,,,,,,,,,,,,,,,,,,,,,,,,,,,,,,,,,,,,,,,,,,,,,,,,,,,
,,5a732956f660ae0001a9b011,2026-03-17_15h08.54.692,kallum_motion_pilot_GIST_update_2,2026.1.1,Win32,59.52380952,5a732956f660ae0001a9b011,69b95efdef24cd8a694e89ee,69b95ffe19e871b7812a8d5c,0.0623,0.0623,1,75,237,87,1,eightseven,,,,,,,,,,,,,,,,,,,,,,,,,,,,,,,,,,,,,,,,,,,,,,,,,,,,,,,,,,,,,,,,,,,,,,,,,,,,,,,,,,,,,,,,,,,,,,,,,,,,,,,,,,,,,,,,,,,,,,,,,,,,,,,,,,,,,,,,,
,,5a732956f660ae0001a9b011,2026-03-17_15h08.54.692,kallum_motion_pilot_GIST_update_2,2026.1.1,Win32,59.52380952,5a732956f660ae0001a9b011,69b95efdef24cd8a694e89ee,69b95ffe19e871b7812a8d5c,0.0625,0.0625,1,76,238,82,1,sixfive,,,,,,,,,,,,,,,,,,,,,,,,,,,,,,,,,,,,,,,,,,,,,,,,,,,,,,,,,,,,,,,,,,,,,,,,,,,,,,,,,,,,,,,,,,,,,,,,,,,,,,,,,,,,,,,,,,,,,,,,,,,,,,,,,,,,,,,,,
,,5a732956f660ae0001a9b011,2026-03-17_15h08.54.692,kallum_motion_pilot_GIST_update_2,2026.1.1,Win32,59.52380952,5a732956f660ae0001a9b011,69b95efdef24cd8a694e89ee,69b95ffe19e871b7812a8d5c,0.0627,0.0627,1,77,239,56,1,onetwo,,,,,,,,,,,,,,,,,,,,,,,,,,,,,,,,,,,,,,,,,,,,,,,,,,,,,,,,,,,,,,,,,,,,,,,,,,,,,,,,,,,,,,,,,,,,,,,,,,,,,,,,,,,,,,,,,,,,,,,,,,,,,,,,,,,,,,,,,
,,5a732956f660ae0001a9b011,2026-03-17_15h08.54.692,kallum_motion_pilot_GIST_update_2,2026.1.1,Win32,59.52380952,5a732956f660ae0001a9b011,69b95efdef24cd8a694e89ee,69b95ffe19e871b7812a8d5c,0.0628,0.0629,1,78,240,91,1,sixeight,,,,,,,,,,,,,,,,,,,,,,,,,,,,,,,,,,,,,,,,,,,,,,,,,,,,,,,,,,,,,,,,,,,,,,,,,,,,,,,,,,,,,,,,,,,,,,,,,,,,,,,,,,,,,,,,,,,,,,,,,,,,,,,,,,,,,,,,,
,,5a732956f660ae0001a9b011,2026-03-17_15h08.54.692,kallum_motion_pilot_GIST_update_2,2026.1.1,Win32,59.52380952,5a732956f660ae0001a9b011,69b95efdef24cd8a694e89ee,69b95ffe19e871b7812a8d5c,0.0631,0.0631,1,79,241,140,1,sevenfive,,,,,,,,,,,,,,,,,,,,,,,,,,,,,,,,,,,,,,,,,,,,,,,,,,,,,,,,,,,,,,,,,,,,,,,,,,,,,,,,,,,,,,,,,,,,,,,,,,,,,,,,,,,,,,,,,,,,,,,,,,,,,,,,,,,,,,,,,
,,5a732956f660ae0001a9b011,2026-03-17_15h08.54.692,kallum_motion_pilot_GIST_update_2,2026.1.1,Win32,59.52380952,5a732956f660ae0001a9b011,69b95efdef24cd8a694e89ee,69b95ffe19e871b7812a8d5c,0.0633,0.0633,1,80,242,58,1,twoone,,,,,,,,,,,,,,,,,,,,,,,,,,,,,,,,,,,,,,,,,,,,,,,,,,,,,,,,,,,,,,,,,,,,,,,,,,,,,,,,,,,,,,,,,,,,,,,,,,,,,,,,,,,,,,,,,,,,,,,,,,,,,,,,,,,,,,,,,
,,5a732956f660ae0001a9b011,2026-03-17_15h08.54.692,kallum_motion_pilot_GIST_update_2,2026.1.1,Win32,59.52380952,5a732956f660ae0001a9b011,69b95efdef24cd8a694e89ee,69b95ffe19e871b7812a8d5c,0.0634,0.0635,1,81,243,141,1,seveneight,,,,,,,,,,,,,,,,,,,,,,,,,,,,,,,,,,,,,,,,,,,,,,,,,,,,,,,,,,,,,,,,,,,,,,,,,,,,,,,,,,,,,,,,,,,,,,,,,,,,,,,,,,,,,,,,,,,,,,,,,,,,,,,,,,,,,,,,,
,,5a732956f660ae0001a9b011,2026-03-17_15h08.54.692,kallum_motion_pilot_GIST_update_2,2026.1.1,Win32,59.52380952,5a732956f660ae0001a9b011,69b95efdef24cd8a694e89ee,69b95ffe19e871b7812a8d5c,0.0636,0.0636,1,82,244,157,1,seveneight,,,,,,,,,,,,,,,,,,,,,,,,,,,,,,,,,,,,,,,,,,,,,,,,,,,,,,,,,,,,,,,,,,,,,,,,,,,,,,,,,,,,,,,,,,,,,,,,,,,,,,,,,,,,,,,,,,,,,,,,,,,,,,,,,,,,,,,,,
,,5a732956f660ae0001a9b011,2026-03-17_15h08.54.692,kallum_motion_pilot_GIST_update_2,2026.1.1,Win32,59.52380952,5a732956f660ae0001a9b011,69b95efdef24cd8a694e89ee,69b95ffe19e871b7812a8d5c,0.0638,0.0638,1,83,245,129,1,fiveseven,,,,,,,,,,,,,,,,,,,,,,,,,,,,,,,,,,,,,,,,,,,,,,,,,,,,,,,,,,,,,,,,,,,,,,,,,,,,,,,,,,,,,,,,,,,,,,,,,,,,,,,,,,,,,,,,,,,,,,,,,,,,,,,,,,,,,,,,,
,,5a732956f660ae0001a9b011,2026-03-17_15h08.54.692,kallum_motion_pilot_GIST_update_2,2026.1.1,Win32,59.52380952,5a732956f660ae0001a9b011,69b95efdef24cd8a694e89ee,69b95ffe19e871b7812a8d5c,0.064,0.064,1,84,246,159,1,eightseven,,,,,,,,,,,,,,,,,,,,,,,,,,,,,,,,,,,,,,,,,,,,,,,,,,,,,,,,,,,,,,,,,,,,,,,,,,,,,,,,,,,,,,,,,,,,,,,,,,,,,,,,,,,,,,,,,,,,,,,,,,,,,,,,,,,,,,,,,
,,5a732956f660ae0001a9b011,2026-03-17_15h08.54.692,kallum_motion_pilot_GIST_update_2,2026.1.1,Win32,59.52380952,5a732956f660ae0001a9b011,69b95efdef24cd8a694e89ee,69b95ffe19e871b7812a8d5c,0.0642,0.0642,1,85,247,29,1,threefour,,,,,,,,,,,,,,,,,,,,,,,,,,,,,,,,,,,,,,,,,,,,,,,,,,,,,,,,,,,,,,,,,,,,,,,,,,,,,,,,,,,,,,,,,,,,,,,,,,,,,,,,,,,,,,,,,,,,,,,,,,,,,,,,,,,,,,,,,
,,5a732956f660ae0001a9b011,2026-03-17_15h08.54.692,kallum_motion_pilot_GIST_update_2,2026.1.1,Win32,59.52380952,5a732956f660ae0001a9b011,69b95efdef24cd8a694e89ee,69b95ffe19e871b7812a8d5c,0.0644,0.0644,1,86,248,68,1,threeone,,,,,,,,,,,,,,,,,,,,,,,,,,,,,,,,,,,,,,,,,,,,,,,,,,,,,,,,,,,,,,,,,,,,,,,,,,,,,,,,,,,,,,,,,,,,,,,,,,,,,,,,,,,,,,,,,,,,,,,,,,,,,,,,,,,,,,,,,
,,5a732956f660ae0001a9b011,2026-03-17_15h08.54.692,kallum_motion_pilot_GIST_update_2,2026.1.1,Win32,59.52380952,5a732956f660ae0001a9b011,69b95efdef24cd8a694e89ee,69b95ffe19e871b7812a8d5c,0.0646,0.0646,1,87,249,108,1,sevenfive,,,,,,,,,,,,,,,,,,,,,,,,,,,,,,,,,,,,,,,,,,,,,,,,,,,,,,,,,,,,,,,,,,,,,,,,,,,,,,,,,,,,,,,,,,,,,,,,,,,,,,,,,,,,,,,,,,,,,,,,,,,,,,,,,,,,,,,,,
,,5a732956f660ae0001a9b011,2026-03-17_15h08.54.692,kallum_motion_pilot_GIST_update_2,2026.1.1,Win32,59.52380952,5a732956f660ae0001a9b011,69b95efdef24cd8a694e89ee,69b95ffe19e871b7812a8d5c,0.0649,0.0649,1,88,250,139,1,sixeight,,,,,,,,,,,,,,,,,,,,,,,,,,,,,,,,,,,,,,,,,,,,,,,,,,,,,,,,,,,,,,,,,,,,,,,,,,,,,,,,,,,,,,,,,,,,,,,,,,,,,,,,,,,,,,,,,,,,,,,,,,,,,,,,,,,,,,,,,
,,5a732956f660ae0001a9b011,2026-03-17_15h08.54.692,kallum_motion_pilot_GIST_update_2,2026.1.1,Win32,59.52380952,5a732956f660ae0001a9b011,69b95efdef24cd8a694e89ee,69b95ffe19e871b7812a8d5c,0.0651,0.0651,1,89,251,115,1,sixeight,,,,,,,,,,,,,,,,,,,,,,,,,,,,,,,,,,,,,,,,,,,,,,,,,,,,,,,,,,,,,,,,,,,,,,,,,,,,,,,,,,,,,,,,,,,,,,,,,,,,,,,,,,,,,,,,,,,,,,,,,,,,,,,,,,,,,,,,,
,,5a732956f660ae0001a9b011,2026-03-17_15h08.54.692,kallum_motion_pilot_GIST_update_2,2026.1.1,Win32,59.52380952,5a732956f660ae0001a9b011,69b95efdef24cd8a694e89ee,69b95ffe19e871b7812a8d5c,0.0653,0.0653,1,90,252,22,1,fourtwo,,,,,,,,,,,,,,,,,,,,,,,,,,,,,,,,,,,,,,,,,,,,,,,,,,,,,,,,,,,,,,,,,,,,,,,,,,,,,,,,,,,,,,,,,,,,,,,,,,,,,,,,,,,,,,,,,,,,,,,,,,,,,,,,,,,,,,,,,
,,5a732956f660ae0001a9b011,2026-03-17_15h08.54.692,kallum_motion_pilot_GIST_update_2,2026.1.1,Win32,59.52380952,5a732956f660ae0001a9b011,69b95efdef24cd8a694e89ee,69b95ffe19e871b7812a8d5c,0.0655,0.0655,1,91,253,66,1,twoone,,,,,,,,,,,,,,,,,,,,,,,,,,,,,,,,,,,,,,,,,,,,,,,,,,,,,,,,,,,,,,,,,,,,,,,,,,,,,,,,,,,,,,,,,,,,,,,,,,,,,,,,,,,,,,,,,,,,,,,,,,,,,,,,,,,,,,,,,
,,5a732956f660ae0001a9b011,2026-03-17_15h08.54.692,kallum_motion_pilot_GIST_update_2,2026.1.1,Win32,59.52380952,5a732956f660ae0001a9b011,69b95efdef24cd8a694e89ee,69b95ffe19e871b7812a8d5c,0.0657,0.0657,1,92,254,60,1,threeone,,,,,,,,,,,,,,,,,,,,,,,,,,,,,,,,,,,,,,,,,,,,,,,,,,,,,,,,,,,,,,,,,,,,,,,,,,,,,,,,,,,,,,,,,,,,,,,,,,,,,,,,,,,,,,,,,,,,,,,,,,,,,,,,,,,,,,,,,
,,5a732956f660ae0001a9b011,2026-03-17_15h08.54.692,kallum_motion_pilot_GIST_update_2,2026.1.1,Win32,59.52380952,5a732956f660ae0001a9b011,69b95efdef24cd8a694e89ee,69b95ffe19e871b7812a8d5c,0.0658,0.0659,1,93,255,158,1,eightsix,,,,,,,,,,,,,,,,,,,,,,,,,,,,,,,,,,,,,,,,,,,,,,,,,,,,,,,,,,,,,,,,,,,,,,,,,,,,,,,,,,,,,,,,,,,,,,,,,,,,,,,,,,,,,,,,,,,,,,,,,,,,,,,,,,,,,,,,,
,,5a732956f660ae0001a9b011,2026-03-17_15h08.54.692,kallum_motion_pilot_GIST_update_2,2026.1.1,Win32,59.52380952,5a732956f660ae0001a9b011,69b95efdef24cd8a694e89ee,69b95ffe19e871b7812a8d5c,0.0661,0.0661,1,94,256,71,1,fourthree,,,,,,,,,,,,,,,,,,,,,,,,,,,,,,,,,,,,,,,,,,,,,,,,,,,,,,,,,,,,,,,,,,,,,,,,,,,,,,,,,,,,,,,,,,,,,,,,,,,,,,,,,,,,,,,,,,,,,,,,,,,,,,,,,,,,,,,,,
,,5a732956f660ae0001a9b011,2026-03-17_15h08.54.692,kallum_motion_pilot_GIST_update_2,2026.1.1,Win32,59.52380952,5a732956f660ae0001a9b011,69b95efdef24cd8a694e89ee,69b95ffe19e871b7812a8d5c,0.0663,0.0663,1,95,257,81,1,fiveseven,,,,,,,,,,,,,,,,,,,,,,,,,,,,,,,,,,,,,,,,,,,,,,,,,,,,,,,,,,,,,,,,,,,,,,,,,,,,,,,,,,,,,,,,,,,,,,,,,,,,,,,,,,,,,,,,,,,,,,,,,,,,,,,,,,,,,,,,,
,,5a732956f660ae0001a9b011,2026-03-17_15h08.54.692,kallum_motion_pilot_GIST_update_2,2026.1.1,Win32,59.52380952,5a732956f660ae0001a9b011,69b95efdef24cd8a694e89ee,69b95ffe19e871b7812a8d5c,0.0665,0.0665,1,96,258,11,1,twofour,,,,,,,,,,,,,,,,,,,,,,,,,,,,,,,,,,,,,,,,,,,,,,,,,,,,,,,,,,,,,,,,,,,,,,,,,,,,,,,,,,,,,,,,,,,,,,,,,,,,,,,,,,,,,,,,,,,,,,,,,,,,,,,,,,,,,,,,,
,,5a732956f660ae0001a9b011,2026-03-17_15h08.54.692,kallum_motion_pilot_GIST_update_2,2026.1.1,Win32,59.52380952,5a732956f660ae0001a9b011,69b95efdef24cd8a694e89ee,69b95ffe19e871b7812a8d5c,0.0667,0.0667,1,97,259,41,1,onethree,,,,,,,,,,,,,,,,,,,,,,,,,,,,,,,,,,,,,,,,,,,,,,,,,,,,,,,,,,,,,,,,,,,,,,,,,,,,,,,,,,,,,,,,,,,,,,,,,,,,,,,,,,,,,,,,,,,,,,,,,,,,,,,,,,,,,,,,,
,,5a732956f660ae0001a9b011,2026-03-17_15h08.54.692,kallum_motion_pilot_GIST_update_2,2026.1.1,Win32,59.52380952,5a732956f660ae0001a9b011,69b95efdef24cd8a694e89ee,69b95ffe19e871b7812a8d5c,0.0669,0.0669,1,98,260,34,1,twoone,,,,,,,,,,,,,,,,,,,,,,,,,,,,,,,,,,,,,,,,,,,,,,,,,,,,,,,,,,,,,,,,,,,,,,,,,,,,,,,,,,,,,,,,,,,,,,,,,,,,,,,,,,,,,,,,,,,,,,,,,,,,,,,,,,,,,,,,,
,,5a732956f660ae0001a9b011,2026-03-17_15h08.54.692,kallum_motion_pilot_GIST_update_2,2026.1.1,Win32,59.52380952,5a732956f660ae0001a9b011,69b95efdef24cd8a694e89ee,69b95ffe19e871b7812a8d5c,0.067,0.067,1,99,261,12,1,threeone,,,,,,,,,,,,,,,,,,,,,,,,,,,,,,,,,,,,,,,,,,,,,,,,,,,,,,,,,,,,,,,,,,,,,,,,,,,,,,,,,,,,,,,,,,,,,,,,,,,,,,,,,,,,,,,,,,,,,,,,,,,,,,,,,,,,,,,,,
,,5a732956f660ae0001a9b011,2026-03-17_15h08.54.692,kallum_motion_pilot_GIST_update_2,2026.1.1,Win32,59.52380952,5a732956f660ae0001a9b011,69b95efdef24cd8a694e89ee,69b95ffe19e871b7812a8d5c,0.0673,0.0673,1,100,262,147,1,sixeight,,,,,,,,,,,,,,,,,,,,,,,,,,,,,,,,,,,,,,,,,,,,,,,,,,,,,,,,,,,,,,,,,,,,,,,,,,,,,,,,,,,,,,,,,,,,,,,,,,,,,,,,,,,,,,,,,,,,,,,,,,,,,,,,,,,,,,,,,
,,5a732956f660ae0001a9b011,2026-03-17_15h08.54.692,kallum_motion_pilot_GIST_update_2,2026.1.1,Win32,59.52380952,5a732956f660ae0001a9b011,69b95efdef24cd8a694e89ee,69b95ffe19e871b7812a8d5c,0.0674,0.0674,1,101,263,131,1,sixeight,,,,,,,,,,,,,,,,,,,,,,,,,,,,,,,,,,,,,,,,,,,,,,,,,,,,,,,,,,,,,,,,,,,,,,,,,,,,,,,,,,,,,,,,,,,,,,,,,,,,,,,,,,,,,,,,,,,,,,,,,,,,,,,,,,,,,,,,,
,,5a732956f660ae0001a9b011,2026-03-17_15h08.54.692,kallum_motion_pilot_GIST_update_2,2026.1.1,Win32,59.52380952,5a732956f660ae0001a9b011,69b95efdef24cd8a694e89ee,69b95ffe19e871b7812a8d5c,0.0677,0.0677,1,102,264,23,1,fourthree,,,,,,,,,,,,,,,,,,,,,,,,,,,,,,,,,,,,,,,,,,,,,,,,,,,,,,,,,,,,,,,,,,,,,,,,,,,,,,,,,,,,,,,,,,,,,,,,,,,,,,,,,,,,,,,,,,,,,,,,,,,,,,,,,,,,,,,,,
,,5a732956f660ae0001a9b011,2026-03-17_15h08.54.692,kallum_motion_pilot_GIST_update_2,2026.1.1,Win32,59.52380952,5a732956f660ae0001a9b011,69b95efdef24cd8a694e89ee,69b95ffe19e871b7812a8d5c,0.0679,0.0679,1,103,265,49,1,onethree,,,,,,,,,,,,,,,,,,,,,,,,,,,,,,,,,,,,,,,,,,,,,,,,,,,,,,,,,,,,,,,,,,,,,,,,,,,,,,,,,,,,,,,,,,,,,,,,,,,,,,,,,,,,,,,,,,,,,,,,,,,,,,,,,,,,,,,,,
,,5a732956f660ae0001a9b011,2026-03-17_15h08.54.692,kallum_motion_pilot_GIST_update_2,2026.1.1,Win32,59.52380952,5a732956f660ae0001a9b011,69b95efdef24cd8a694e89ee,69b95ffe19e871b7812a8d5c,0.0681,0.0681,1,104,266,116,1,sevenfive,,,,,,,,,,,,,,,,,,,,,,,,,,,,,,,,,,,,,,,,,,,,,,,,,,,,,,,,,,,,,,,,,,,,,,,,,,,,,,,,,,,,,,,,,,,,,,,,,,,,,,,,,,,,,,,,,,,,,,,,,,,,,,,,,,,,,,,,,
