startup.started,startup.stopped,Prolific ID*,date,expName,psychopyVersion,OS,frameRate,participant,study_id,session,stimpositions.started,stimpositions.stopped,hardcoded_stimulus_positions.thisRepN,hardcoded_stimulus_positions.thisTrialN,hardcoded_stimulus_positions.thisN,hardcoded_stimulus_positions.thisIndex,hardcoded_stimulus_positions.ran,StimulusPos,stimorientation.started,stimorientation.stopped,prac_stimorientation_import_loop.thisRepN,prac_stimorientation_import_loop.thisTrialN,prac_stimorientation_import_loop.thisN,prac_stimorientation_import_loop.thisIndex,prac_stimorientation_import_loop.ran,Stimorientation,welcome_instr.started,welcome_instr.stopped,key_resp.keys,key_resp.rt,key_resp.duration,response_steppedout_1.started,response_steppedout_1.stopped,key_resp_20.keys,key_resp_20.rt,key_resp_20.duration,response_steppedout_2.started,response_steppedout_2.stopped,key_resp_19.keys,key_resp_19.rt,key_resp_19.duration,stim_response_instr.started,stim_response_instr.stopped,key_resp_15.keys,key_resp_15.rt,key_resp_15.duration,direction_instr_2.started,direction_instr_2.stopped,key_resp_9.keys,key_resp_9.rt,key_resp_9.duration,instr_prac.started,instr_prac.stopped,key_resp_10.keys,key_resp_10.rt,key_resp_10.duration,Stim1_display_prac.started,Stim1_display_prac.stopped,Ecc,Circle1_ori,Circle2_ori,response_prac.started,similarity,response_time,response_prac.stopped,mouse_5.x,mouse_5.y,mouse_5.leftButton,mouse_5.midButton,mouse_5.rightButton,mouse_5.clicked_name,responseprac_feedback.started,responseprac_feedback.stopped,summary2_prac.started,summary2_prac.stopped,mouse_6.x,mouse_6.y,mouse_6.leftButton,mouse_6.midButton,mouse_6.rightButton,mouse_6.clicked_name,duringprac.thisRepN,duringprac.thisTrialN,duringprac.thisN,duringprac.thisIndex,duringprac.ran,begin.started,begin.stopped,key_resp_22.keys,key_resp_22.rt,key_resp_22.duration,Stim1_display.started,Stim1_display.stopped,circle1_ori,circle2_ori,circle1_SF,circle2_SF,response.started,response.stopped,mouse.x,mouse.y,mouse.leftButton,mouse.midButton,mouse.rightButton,mouse.clicked_name,trialnumber,double_pass.thisRepN,double_pass.thisTrialN,double_pass.thisN,double_pass.thisIndex,double_pass.ran,double_pass.order,main_trial.thisRepN,main_trial.thisTrialN,main_trial.thisN,main_trial.thisIndex,main_trial.ran,main_trial.order,Trial_Counter,Catch,Frequencies,response_2.started,response_2.stopped,mouse_2.x,mouse_2.y,mouse_2.leftButton,mouse_2.midButton,mouse_2.rightButton,mouse_2.clicked_name,special_trial.started,special_trial.stopped,catch_1.started,catch_1.stopped,mouse_3.x,mouse_3.y,mouse_3.leftButton,mouse_3.midButton,mouse_3.rightButton,catchresponse,catchnumber,response_time_catch,response_sum.started,response_sum.stopped,mouse_11.x,mouse_11.y,mouse_11.leftButton,mouse_11.midButton,mouse_11.rightButton,flip_presentation_sequence_for_double_pass.started,flip_presentation_sequence_for_double_pass.stopped,goodbye.started,goodbye.stopped,key_resp_3.keys,key_resp_3.rt,key_resp_3.duration
0.0001,0.0002,5c6e60b04e08ad00018cc995,2026-03-17_14h07.31.649,kallum_motion_pilot_GIST_update_2,2026.1.1,Win32,60.97560976,5c6e60b04e08ad00018cc995,69b95efdef24cd8a694e89ee,69b9600af4af0329dfdbdb40,,,,,,,,,,,,,,,,,,,,,,,,,,,,,,,,,,,,,,,,,,,,,,,,,,,,,,,,,,,,,,,,,,,,,,,,,,,,,,,,,,,,,,,,,,,,,,,,,,,,,,,,,,,,,,,,,,,,,,,,,,,,,,,,,,,,,,,,,,,,,,,,,
,,5c6e60b04e08ad00018cc995,2026-03-17_14h07.31.649,kallum_motion_pilot_GIST_update_2,2026.1.1,Win32,60.97560976,5c6e60b04e08ad00018cc995,69b95efdef24cd8a694e89ee,69b9600af4af0329dfdbdb40,0.015,0.015,0,0,0,10,1,twoone,,,,,,,,,,,,,,,,,,,,,,,,,,,,,,,,,,,,,,,,,,,,,,,,,,,,,,,,,,,,,,,,,,,,,,,,,,,,,,,,,,,,,,,,,,,,,,,,,,,,,,,,,,,,,,,,,,,,,,,,,,,,,,,,,,,,,,,,,
,,5c6e60b04e08ad00018cc995,2026-03-17_14h07.31.649,kallum_motion_pilot_GIST_update_2,2026.1.1,Win32,60.97560976,5c6e60b04e08ad00018cc995,69b95efdef24cd8a694e89ee,69b9600af4af0329dfdbdb40,0.0156,0.0156,0,1,1,85,1,seveneight,,,,,,,,,,,,,,,,,,,,,,,,,,,,,,,,,,,,,,,,,,,,,,,,,,,,,,,,,,,,,,,,,,,,,,,,,,,,,,,,,,,,,,,,,,,,,,,,,,,,,,,,,,,,,,,,,,,,,,,,,,,,,,,,,,,,,,,,,
,,5c6e60b04e08ad00018cc995,2026-03-17_14h07.31.649,kallum_motion_pilot_GIST_update_2,2026.1.1,Win32,60.97560976,5c6e60b04e08ad00018cc995,69b95efdef24cd8a694e89ee,69b9600af4af0329dfdbdb40,0.016,0.016,0,2,2,99,1,sixeight,,,,,,,,,,,,,,,,,,,,,,,,,,,,,,,,,,,,,,,,,,,,,,,,,,,,,,,,,,,,,,,,,,,,,,,,,,,,,,,,,,,,,,,,,,,,,,,,,,,,,,,,,,,,,,,,,,,,,,,,,,,,,,,,,,,,,,,,,
,,5c6e60b04e08ad00018cc995,2026-03-17_14h07.31.649,kallum_motion_pilot_GIST_update_2,2026.1.1,Win32,60.97560976,5c6e60b04e08ad00018cc995,69b95efdef24cd8a694e89ee,69b9600af4af0329dfdbdb40,0.016,0.016,0,3,3,65,1,onethree,,,,,,,,,,,,,,,,,,,,,,,,,,,,,,,,,,,,,,,,,,,,,,,,,,,,,,,,,,,,,,,,,,,,,,,,,,,,,,,,,,,,,,,,,,,,,,,,,,,,,,,,,,,,,,,,,,,,,,,,,,,,,,,,,,,,,,,,,
,,5c6e60b04e08ad00018cc995,2026-03-17_14h07.31.649,kallum_motion_pilot_GIST_update_2,2026.1.1,Win32,60.97560976,5c6e60b04e08ad00018cc995,69b95efdef24cd8a694e89ee,69b9600af4af0329dfdbdb40,0.016,0.016,0,4,4,51,1,twofour,,,,,,,,,,,,,,,,,,,,,,,,,,,,,,,,,,,,,,,,,,,,,,,,,,,,,,,,,,,,,,,,,,,,,,,,,,,,,,,,,,,,,,,,,,,,,,,,,,,,,,,,,,,,,,,,,,,,,,,,,,,,,,,,,,,,,,,,,
,,5c6e60b04e08ad00018cc995,2026-03-17_14h07.31.649,kallum_motion_pilot_GIST_update_2,2026.1.1,Win32,60.97560976,5c6e60b04e08ad00018cc995,69b95efdef24cd8a694e89ee,69b9600af4af0329dfdbdb40,0.0162,0.0162,0,5,5,155,1,sixeight,,,,,,,,,,,,,,,,,,,,,,,,,,,,,,,,,,,,,,,,,,,,,,,,,,,,,,,,,,,,,,,,,,,,,,,,,,,,,,,,,,,,,,,,,,,,,,,,,,,,,,,,,,,,,,,,,,,,,,,,,,,,,,,,,,,,,,,,,
,,5c6e60b04e08ad00018cc995,2026-03-17_14h07.31.649,kallum_motion_pilot_GIST_update_2,2026.1.1,Win32,60.97560976,5c6e60b04e08ad00018cc995,69b95efdef24cd8a694e89ee,69b9600af4af0329dfdbdb40,0.0163,0.0163,0,6,6,2,1,twoone,,,,,,,,,,,,,,,,,,,,,,,,,,,,,,,,,,,,,,,,,,,,,,,,,,,,,,,,,,,,,,,,,,,,,,,,,,,,,,,,,,,,,,,,,,,,,,,,,,,,,,,,,,,,,,,,,,,,,,,,,,,,,,,,,,,,,,,,,
,,5c6e60b04e08ad00018cc995,2026-03-17_14h07.31.649,kallum_motion_pilot_GIST_update_2,2026.1.1,Win32,60.97560976,5c6e60b04e08ad00018cc995,69b95efdef24cd8a694e89ee,69b9600af4af0329dfdbdb40,0.0164,0.0164,0,7,7,98,1,sixfive,,,,,,,,,,,,,,,,,,,,,,,,,,,,,,,,,,,,,,,,,,,,,,,,,,,,,,,,,,,,,,,,,,,,,,,,,,,,,,,,,,,,,,,,,,,,,,,,,,,,,,,,,,,,,,,,,,,,,,,,,,,,,,,,,,,,,,,,,
,,5c6e60b04e08ad00018cc995,2026-03-17_14h07.31.649,kallum_motion_pilot_GIST_update_2,2026.1.1,Win32,60.97560976,5c6e60b04e08ad00018cc995,69b95efdef24cd8a694e89ee,69b9600af4af0329dfdbdb40,0.0165,0.0165,0,8,8,61,1,threefour,,,,,,,,,,,,,,,,,,,,,,,,,,,,,,,,,,,,,,,,,,,,,,,,,,,,,,,,,,,,,,,,,,,,,,,,,,,,,,,,,,,,,,,,,,,,,,,,,,,,,,,,,,,,,,,,,,,,,,,,,,,,,,,,,,,,,,,,,
,,5c6e60b04e08ad00018cc995,2026-03-17_14h07.31.649,kallum_motion_pilot_GIST_update_2,2026.1.1,Win32,60.97560976,5c6e60b04e08ad00018cc995,69b95efdef24cd8a694e89ee,69b9600af4af0329dfdbdb40,0.0166,0.0166,0,9,9,8,1,onetwo,,,,,,,,,,,,,,,,,,,,,,,,,,,,,,,,,,,,,,,,,,,,,,,,,,,,,,,,,,,,,,,,,,,,,,,,,,,,,,,,,,,,,,,,,,,,,,,,,,,,,,,,,,,,,,,,,,,,,,,,,,,,,,,,,,,,,,,,,
,,5c6e60b04e08ad00018cc995,2026-03-17_14h07.31.649,kallum_motion_pilot_GIST_update_2,2026.1.1,Win32,60.97560976,5c6e60b04e08ad00018cc995,69b95efdef24cd8a694e89ee,69b9600af4af0329dfdbdb40,0.0166,0.0166,0,10,10,19,1,twofour,,,,,,,,,,,,,,,,,,,,,,,,,,,,,,,,,,,,,,,,,,,,,,,,,,,,,,,,,,,,,,,,,,,,,,,,,,,,,,,,,,,,,,,,,,,,,,,,,,,,,,,,,,,,,,,,,,,,,,,,,,,,,,,,,,,,,,,,,
,,5c6e60b04e08ad00018cc995,2026-03-17_14h07.31.649,kallum_motion_pilot_GIST_update_2,2026.1.1,Win32,60.97560976,5c6e60b04e08ad00018cc995,69b95efdef24cd8a694e89ee,69b9600af4af0329dfdbdb40,0.0167,0.0167,0,11,11,131,1,sixeight,,,,,,,,,,,,,,,,,,,,,,,,,,,,,,,,,,,,,,,,,,,,,,,,,,,,,,,,,,,,,,,,,,,,,,,,,,,,,,,,,,,,,,,,,,,,,,,,,,,,,,,,,,,,,,,,,,,,,,,,,,,,,,,,,,,,,,,,,
,,5c6e60b04e08ad00018cc995,2026-03-17_14h07.31.649,kallum_motion_pilot_GIST_update_2,2026.1.1,Win32,60.97560976,5c6e60b04e08ad00018cc995,69b95efdef24cd8a694e89ee,69b9600af4af0329dfdbdb40,0.0168,0.0168,0,12,12,106,1,sixfive,,,,,,,,,,,,,,,,,,,,,,,,,,,,,,,,,,,,,,,,,,,,,,,,,,,,,,,,,,,,,,,,,,,,,,,,,,,,,,,,,,,,,,,,,,,,,,,,,,,,,,,,,,,,,,,,,,,,,,,,,,,,,,,,,,,,,,,,,
,,5c6e60b04e08ad00018cc995,2026-03-17_14h07.31.649,kallum_motion_pilot_GIST_update_2,2026.1.1,Win32,60.97560976,5c6e60b04e08ad00018cc995,69b95efdef24cd8a694e89ee,69b9600af4af0329dfdbdb40,0.0168,0.0168,0,13,13,158,1,eightsix,,,,,,,,,,,,,,,,,,,,,,,,,,,,,,,,,,,,,,,,,,,,,,,,,,,,,,,,,,,,,,,,,,,,,,,,,,,,,,,,,,,,,,,,,,,,,,,,,,,,,,,,,,,,,,,,,,,,,,,,,,,,,,,,,,,,,,,,,
,,5c6e60b04e08ad00018cc995,2026-03-17_14h07.31.649,kallum_motion_pilot_GIST_update_2,2026.1.1,Win32,60.97560976,5c6e60b04e08ad00018cc995,69b95efdef24cd8a694e89ee,69b9600af4af0329dfdbdb40,0.0168,0.0168,0,14,14,50,1,twoone,,,,,,,,,,,,,,,,,,,,,,,,,,,,,,,,,,,,,,,,,,,,,,,,,,,,,,,,,,,,,,,,,,,,,,,,,,,,,,,,,,,,,,,,,,,,,,,,,,,,,,,,,,,,,,,,,,,,,,,,,,,,,,,,,,,,,,,,,
,,5c6e60b04e08ad00018cc995,2026-03-17_14h07.31.649,kallum_motion_pilot_GIST_update_2,2026.1.1,Win32,60.97560976,5c6e60b04e08ad00018cc995,69b95efdef24cd8a694e89ee,69b9600af4af0329dfdbdb40,0.017,0.017,0,15,15,40,1,onetwo,,,,,,,,,,,,,,,,,,,,,,,,,,,,,,,,,,,,,,,,,,,,,,,,,,,,,,,,,,,,,,,,,,,,,,,,,,,,,,,,,,,,,,,,,,,,,,,,,,,,,,,,,,,,,,,,,,,,,,,,,,,,,,,,,,,,,,,,,
,,5c6e60b04e08ad00018cc995,2026-03-17_14h07.31.649,kallum_motion_pilot_GIST_update_2,2026.1.1,Win32,60.97560976,5c6e60b04e08ad00018cc995,69b95efdef24cd8a694e89ee,69b9600af4af0329dfdbdb40,0.017,0.017,0,16,16,124,1,sevenfive,,,,,,,,,,,,,,,,,,,,,,,,,,,,,,,,,,,,,,,,,,,,,,,,,,,,,,,,,,,,,,,,,,,,,,,,,,,,,,,,,,,,,,,,,,,,,,,,,,,,,,,,,,,,,,,,,,,,,,,,,,,,,,,,,,,,,,,,,
,,5c6e60b04e08ad00018cc995,2026-03-17_14h07.31.649,kallum_motion_pilot_GIST_update_2,2026.1.1,Win32,60.97560976,5c6e60b04e08ad00018cc995,69b95efdef24cd8a694e89ee,69b9600af4af0329dfdbdb40,0.017,0.017,0,17,17,138,1,sixfive,,,,,,,,,,,,,,,,,,,,,,,,,,,,,,,,,,,,,,,,,,,,,,,,,,,,,,,,,,,,,,,,,,,,,,,,,,,,,,,,,,,,,,,,,,,,,,,,,,,,,,,,,,,,,,,,,,,,,,,,,,,,,,,,,,,,,,,,,
,,5c6e60b04e08ad00018cc995,2026-03-17_14h07.31.649,kallum_motion_pilot_GIST_update_2,2026.1.1,Win32,60.97560976,5c6e60b04e08ad00018cc995,69b95efdef24cd8a694e89ee,69b9600af4af0329dfdbdb40,0.0171,0.0171,0,18,18,1,1,onethree,,,,,,,,,,,,,,,,,,,,,,,,,,,,,,,,,,,,,,,,,,,,,,,,,,,,,,,,,,,,,,,,,,,,,,,,,,,,,,,,,,,,,,,,,,,,,,,,,,,,,,,,,,,,,,,,,,,,,,,,,,,,,,,,,,,,,,,,,
,,5c6e60b04e08ad00018cc995,2026-03-17_14h07.31.649,kallum_motion_pilot_GIST_update_2,2026.1.1,Win32,60.97560976,5c6e60b04e08ad00018cc995,69b95efdef24cd8a694e89ee,69b9600af4af0329dfdbdb40,0.0171,0.0171,0,19,19,24,1,onetwo,,,,,,,,,,,,,,,,,,,,,,,,,,,,,,,,,,,,,,,,,,,,,,,,,,,,,,,,,,,,,,,,,,,,,,,,,,,,,,,,,,,,,,,,,,,,,,,,,,,,,,,,,,,,,,,,,,,,,,,,,,,,,,,,,,,,,,,,,
,,5c6e60b04e08ad00018cc995,2026-03-17_14h07.31.649,kallum_motion_pilot_GIST_update_2,2026.1.1,Win32,60.97560976,5c6e60b04e08ad00018cc995,69b95efdef24cd8a694e89ee,69b9600af4af0329dfdbdb40,0.0172,0.0172,0,20,20,156,1,sevenfive,,,,,,,,,,,,,,,,,,,,,,,,,,,,,,,,,,,,,,,,,,,,,,,,,,,,,,,,,,,,,,,,,,,,,,,,,,,,,,,,,,,,,,,,,,,,,,,,,,,,,,,,,,,,,,,,,,,,,,,,,,,,,,,,,,,,,,,,,
,,5c6e60b04e08ad00018cc995,2026-03-17_14h07.31.649,kallum_motion_pilot_GIST_update_2,2026.1.1,Win32,60.97560976,5c6e60b04e08ad00018cc995,69b95efdef24cd8a694e89ee,69b9600af4af0329dfdbdb40,0.0172,0.0172,0,21,21,35,1,twofour,,,,,,,,,,,,,,,,,,,,,,,,,,,,,,,,,,,,,,,,,,,,,,,,,,,,,,,,,,,,,,,,,,,,,,,,,,,,,,,,,,,,,,,,,,,,,,,,,,,,,,,,,,,,,,,,,,,,,,,,,,,,,,,,,,,,,,,,,
,,5c6e60b04e08ad00018cc995,2026-03-17_14h07.31.649,kallum_motion_pilot_GIST_update_2,2026.1.1,Win32,60.97560976,5c6e60b04e08ad00018cc995,69b95efdef24cd8a694e89ee,69b9600af4af0329dfdbdb40,0.0174,0.0174,0,22,22,18,1,twoone,,,,,,,,,,,,,,,,,,,,,,,,,,,,,,,,,,,,,,,,,,,,,,,,,,,,,,,,,,,,,,,,,,,,,,,,,,,,,,,,,,,,,,,,,,,,,,,,,,,,,,,,,,,,,,,,,,,,,,,,,,,,,,,,,,,,,,,,,
,,5c6e60b04e08ad00018cc995,2026-03-17_14h07.31.649,kallum_motion_pilot_GIST_update_2,2026.1.1,Win32,60.97560976,5c6e60b04e08ad00018cc995,69b95efdef24cd8a694e89ee,69b9600af4af0329dfdbdb40,0.0174,0.0174,0,23,23,152,1,fivesix,,,,,,,,,,,,,,,,,,,,,,,,,,,,,,,,,,,,,,,,,,,,,,,,,,,,,,,,,,,,,,,,,,,,,,,,,,,,,,,,,,,,,,,,,,,,,,,,,,,,,,,,,,,,,,,,,,,,,,,,,,,,,,,,,,,,,,,,,
,,5c6e60b04e08ad00018cc995,2026-03-17_14h07.31.649,kallum_motion_pilot_GIST_update_2,2026.1.1,Win32,60.97560976,5c6e60b04e08ad00018cc995,69b95efdef24cd8a694e89ee,69b9600af4af0329dfdbdb40,0.0174,0.0175,0,24,24,75,1,twofour,,,,,,,,,,,,,,,,,,,,,,,,,,,,,,,,,,,,,,,,,,,,,,,,,,,,,,,,,,,,,,,,,,,,,,,,,,,,,,,,,,,,,,,,,,,,,,,,,,,,,,,,,,,,,,,,,,,,,,,,,,,,,,,,,,,,,,,,,
,,5c6e60b04e08ad00018cc995,2026-03-17_14h07.31.649,kallum_motion_pilot_GIST_update_2,2026.1.1,Win32,60.97560976,5c6e60b04e08ad00018cc995,69b95efdef24cd8a694e89ee,69b9600af4af0329dfdbdb40,0.0175,0.0175,0,25,25,144,1,fivesix,,,,,,,,,,,,,,,,,,,,,,,,,,,,,,,,,,,,,,,,,,,,,,,,,,,,,,,,,,,,,,,,,,,,,,,,,,,,,,,,,,,,,,,,,,,,,,,,,,,,,,,,,,,,,,,,,,,,,,,,,,,,,,,,,,,,,,,,,
,,5c6e60b04e08ad00018cc995,2026-03-17_14h07.31.649,kallum_motion_pilot_GIST_update_2,2026.1.1,Win32,60.97560976,5c6e60b04e08ad00018cc995,69b95efdef24cd8a694e89ee,69b9600af4af0329dfdbdb40,0.0175,0.0175,0,26,26,161,1,fiveseven,,,,,,,,,,,,,,,,,,,,,,,,,,,,,,,,,,,,,,,,,,,,,,,,,,,,,,,,,,,,,,,,,,,,,,,,,,,,,,,,,,,,,,,,,,,,,,,,,,,,,,,,,,,,,,,,,,,,,,,,,,,,,,,,,,,,,,,,,
,,5c6e60b04e08ad00018cc995,2026-03-17_14h07.31.649,kallum_motion_pilot_GIST_update_2,2026.1.1,Win32,60.97560976,5c6e60b04e08ad00018cc995,69b95efdef24cd8a694e89ee,69b9600af4af0329dfdbdb40,0.0176,0.0176,0,27,27,26,1,twoone,,,,,,,,,,,,,,,,,,,,,,,,,,,,,,,,,,,,,,,,,,,,,,,,,,,,,,,,,,,,,,,,,,,,,,,,,,,,,,,,,,,,,,,,,,,,,,,,,,,,,,,,,,,,,,,,,,,,,,,,,,,,,,,,,,,,,,,,,
,,5c6e60b04e08ad00018cc995,2026-03-17_14h07.31.649,kallum_motion_pilot_GIST_update_2,2026.1.1,Win32,60.97560976,5c6e60b04e08ad00018cc995,69b95efdef24cd8a694e89ee,69b9600af4af0329dfdbdb40,0.0177,0.0177,0,28,28,20,1,threeone,,,,,,,,,,,,,,,,,,,,,,,,,,,,,,,,,,,,,,,,,,,,,,,,,,,,,,,,,,,,,,,,,,,,,,,,,,,,,,,,,,,,,,,,,,,,,,,,,,,,,,,,,,,,,,,,,,,,,,,,,,,,,,,,,,,,,,,,,
,,5c6e60b04e08ad00018cc995,2026-03-17_14h07.31.649,kallum_motion_pilot_GIST_update_2,2026.1.1,Win32,60.97560976,5c6e60b04e08ad00018cc995,69b95efdef24cd8a694e89ee,69b9600af4af0329dfdbdb40,0.0177,0.0177,0,29,29,133,1,seveneight,,,,,,,,,,,,,,,,,,,,,,,,,,,,,,,,,,,,,,,,,,,,,,,,,,,,,,,,,,,,,,,,,,,,,,,,,,,,,,,,,,,,,,,,,,,,,,,,,,,,,,,,,,,,,,,,,,,,,,,,,,,,,,,,,,,,,,,,,
,,5c6e60b04e08ad00018cc995,2026-03-17_14h07.31.649,kallum_motion_pilot_GIST_update_2,2026.1.1,Win32,60.97560976,5c6e60b04e08ad00018cc995,69b95efdef24cd8a694e89ee,69b9600af4af0329dfdbdb40,0.0178,0.0178,0,30,30,62,1,fourtwo,,,,,,,,,,,,,,,,,,,,,,,,,,,,,,,,,,,,,,,,,,,,,,,,,,,,,,,,,,,,,,,,,,,,,,,,,,,,,,,,,,,,,,,,,,,,,,,,,,,,,,,,,,,,,,,,,,,,,,,,,,,,,,,,,,,,,,,,,
,,5c6e60b04e08ad00018cc995,2026-03-17_14h07.31.649,kallum_motion_pilot_GIST_update_2,2026.1.1,Win32,60.97560976,5c6e60b04e08ad00018cc995,69b95efdef24cd8a694e89ee,69b9600af4af0329dfdbdb40,0.0179,0.0179,0,31,31,112,1,fivesix,,,,,,,,,,,,,,,,,,,,,,,,,,,,,,,,,,,,,,,,,,,,,,,,,,,,,,,,,,,,,,,,,,,,,,,,,,,,,,,,,,,,,,,,,,,,,,,,,,,,,,,,,,,,,,,,,,,,,,,,,,,,,,,,,,,,,,,,,
,,5c6e60b04e08ad00018cc995,2026-03-17_14h07.31.649,kallum_motion_pilot_GIST_update_2,2026.1.1,Win32,60.97560976,5c6e60b04e08ad00018cc995,69b95efdef24cd8a694e89ee,69b9600af4af0329dfdbdb40,0.0179,0.0179,0,32,32,157,1,seveneight,,,,,,,,,,,,,,,,,,,,,,,,,,,,,,,,,,,,,,,,,,,,,,,,,,,,,,,,,,,,,,,,,,,,,,,,,,,,,,,,,,,,,,,,,,,,,,,,,,,,,,,,,,,,,,,,,,,,,,,,,,,,,,,,,,,,,,,,,
,,5c6e60b04e08ad00018cc995,2026-03-17_14h07.31.649,kallum_motion_pilot_GIST_update_2,2026.1.1,Win32,60.97560976,5c6e60b04e08ad00018cc995,69b95efdef24cd8a694e89ee,69b9600af4af0329dfdbdb40,0.0179,0.0179,0,33,33,11,1,twofour,,,,,,,,,,,,,,,,,,,,,,,,,,,,,,,,,,,,,,,,,,,,,,,,,,,,,,,,,,,,,,,,,,,,,,,,,,,,,,,,,,,,,,,,,,,,,,,,,,,,,,,,,,,,,,,,,,,,,,,,,,,,,,,,,,,,,,,,,
,,5c6e60b04e08ad00018cc995,2026-03-17_14h07.31.649,kallum_motion_pilot_GIST_update_2,2026.1.1,Win32,60.97560976,5c6e60b04e08ad00018cc995,69b95efdef24cd8a694e89ee,69b9600af4af0329dfdbdb40,0.0179,0.0179,0,34,34,77,1,threefour,,,,,,,,,,,,,,,,,,,,,,,,,,,,,,,,,,,,,,,,,,,,,,,,,,,,,,,,,,,,,,,,,,,,,,,,,,,,,,,,,,,,,,,,,,,,,,,,,,,,,,,,,,,,,,,,,,,,,,,,,,,,,,,,,,,,,,,,,
,,5c6e60b04e08ad00018cc995,2026-03-17_14h07.31.649,kallum_motion_pilot_GIST_update_2,2026.1.1,Win32,60.97560976,5c6e60b04e08ad00018cc995,69b95efdef24cd8a694e89ee,69b9600af4af0329dfdbdb40,0.018,0.018,0,35,35,100,1,sevenfive,,,,,,,,,,,,,,,,,,,,,,,,,,,,,,,,,,,,,,,,,,,,,,,,,,,,,,,,,,,,,,,,,,,,,,,,,,,,,,,,,,,,,,,,,,,,,,,,,,,,,,,,,,,,,,,,,,,,,,,,,,,,,,,,,,,,,,,,,
,,5c6e60b04e08ad00018cc995,2026-03-17_14h07.31.649,kallum_motion_pilot_GIST_update_2,2026.1.1,Win32,60.97560976,5c6e60b04e08ad00018cc995,69b95efdef24cd8a694e89ee,69b9600af4af0329dfdbdb40,0.0181,0.0181,0,36,36,15,1,fourthree,,,,,,,,,,,,,,,,,,,,,,,,,,,,,,,,,,,,,,,,,,,,,,,,,,,,,,,,,,,,,,,,,,,,,,,,,,,,,,,,,,,,,,,,,,,,,,,,,,,,,,,,,,,,,,,,,,,,,,,,,,,,,,,,,,,,,,,,,
,,5c6e60b04e08ad00018cc995,2026-03-17_14h07.31.649,kallum_motion_pilot_GIST_update_2,2026.1.1,Win32,60.97560976,5c6e60b04e08ad00018cc995,69b95efdef24cd8a694e89ee,69b9600af4af0329dfdbdb40,0.0181,0.0181,0,37,37,160,1,fivesix,,,,,,,,,,,,,,,,,,,,,,,,,,,,,,,,,,,,,,,,,,,,,,,,,,,,,,,,,,,,,,,,,,,,,,,,,,,,,,,,,,,,,,,,,,,,,,,,,,,,,,,,,,,,,,,,,,,,,,,,,,,,,,,,,,,,,,,,,
,,5c6e60b04e08ad00018cc995,2026-03-17_14h07.31.649,kallum_motion_pilot_GIST_update_2,2026.1.1,Win32,60.97560976,5c6e60b04e08ad00018cc995,69b95efdef24cd8a694e89ee,69b9600af4af0329dfdbdb40,0.0181,0.0181,0,38,38,52,1,threeone,,,,,,,,,,,,,,,,,,,,,,,,,,,,,,,,,,,,,,,,,,,,,,,,,,,,,,,,,,,,,,,,,,,,,,,,,,,,,,,,,,,,,,,,,,,,,,,,,,,,,,,,,,,,,,,,,,,,,,,,,,,,,,,,,,,,,,,,,
,,5c6e60b04e08ad00018cc995,2026-03-17_14h07.31.649,kallum_motion_pilot_GIST_update_2,2026.1.1,Win32,60.97560976,5c6e60b04e08ad00018cc995,69b95efdef24cd8a694e89ee,69b9600af4af0329dfdbdb40,0.0182,0.0182,0,39,39,126,1,eightsix,,,,,,,,,,,,,,,,,,,,,,,,,,,,,,,,,,,,,,,,,,,,,,,,,,,,,,,,,,,,,,,,,,,,,,,,,,,,,,,,,,,,,,,,,,,,,,,,,,,,,,,,,,,,,,,,,,,,,,,,,,,,,,,,,,,,,,,,,
,,5c6e60b04e08ad00018cc995,2026-03-17_14h07.31.649,kallum_motion_pilot_GIST_update_2,2026.1.1,Win32,60.97560976,5c6e60b04e08ad00018cc995,69b95efdef24cd8a694e89ee,69b9600af4af0329dfdbdb40,0.0183,0.0183,0,40,40,5,1,threefour,,,,,,,,,,,,,,,,,,,,,,,,,,,,,,,,,,,,,,,,,,,,,,,,,,,,,,,,,,,,,,,,,,,,,,,,,,,,,,,,,,,,,,,,,,,,,,,,,,,,,,,,,,,,,,,,,,,,,,,,,,,,,,,,,,,,,,,,,
,,5c6e60b04e08ad00018cc995,2026-03-17_14h07.31.649,kallum_motion_pilot_GIST_update_2,2026.1.1,Win32,60.97560976,5c6e60b04e08ad00018cc995,69b95efdef24cd8a694e89ee,69b9600af4af0329dfdbdb40,0.0183,0.0183,0,41,41,43,1,twofour,,,,,,,,,,,,,,,,,,,,,,,,,,,,,,,,,,,,,,,,,,,,,,,,,,,,,,,,,,,,,,,,,,,,,,,,,,,,,,,,,,,,,,,,,,,,,,,,,,,,,,,,,,,,,,,,,,,,,,,,,,,,,,,,,,,,,,,,,
,,5c6e60b04e08ad00018cc995,2026-03-17_14h07.31.649,kallum_motion_pilot_GIST_update_2,2026.1.1,Win32,60.97560976,5c6e60b04e08ad00018cc995,69b95efdef24cd8a694e89ee,69b9600af4af0329dfdbdb40,0.0184,0.0184,0,42,42,32,1,onetwo,,,,,,,,,,,,,,,,,,,,,,,,,,,,,,,,,,,,,,,,,,,,,,,,,,,,,,,,,,,,,,,,,,,,,,,,,,,,,,,,,,,,,,,,,,,,,,,,,,,,,,,,,,,,,,,,,,,,,,,,,,,,,,,,,,,,,,,,,
,,5c6e60b04e08ad00018cc995,2026-03-17_14h07.31.649,kallum_motion_pilot_GIST_update_2,2026.1.1,Win32,60.97560976,5c6e60b04e08ad00018cc995,69b95efdef24cd8a694e89ee,69b9600af4af0329dfdbdb40,0.0184,0.0184,0,43,43,147,1,sixeight,,,,,,,,,,,,,,,,,,,,,,,,,,,,,,,,,,,,,,,,,,,,,,,,,,,,,,,,,,,,,,,,,,,,,,,,,,,,,,,,,,,,,,,,,,,,,,,,,,,,,,,,,,,,,,,,,,,,,,,,,,,,,,,,,,,,,,,,,
,,5c6e60b04e08ad00018cc995,2026-03-17_14h07.31.649,kallum_motion_pilot_GIST_update_2,2026.1.1,Win32,60.97560976,5c6e60b04e08ad00018cc995,69b95efdef24cd8a694e89ee,69b9600af4af0329dfdbdb40,0.0186,0.0186,0,44,44,53,1,threefour,,,,,,,,,,,,,,,,,,,,,,,,,,,,,,,,,,,,,,,,,,,,,,,,,,,,,,,,,,,,,,,,,,,,,,,,,,,,,,,,,,,,,,,,,,,,,,,,,,,,,,,,,,,,,,,,,,,,,,,,,,,,,,,,,,,,,,,,,
,,5c6e60b04e08ad00018cc995,2026-03-17_14h07.31.649,kallum_motion_pilot_GIST_update_2,2026.1.1,Win32,60.97560976,5c6e60b04e08ad00018cc995,69b95efdef24cd8a694e89ee,69b9600af4af0329dfdbdb40,0.0186,0.0186,0,45,45,145,1,fiveseven,,,,,,,,,,,,,,,,,,,,,,,,,,,,,,,,,,,,,,,,,,,,,,,,,,,,,,,,,,,,,,,,,,,,,,,,,,,,,,,,,,,,,,,,,,,,,,,,,,,,,,,,,,,,,,,,,,,,,,,,,,,,,,,,,,,,,,,,,
,,5c6e60b04e08ad00018cc995,2026-03-17_14h07.31.649,kallum_motion_pilot_GIST_update_2,2026.1.1,Win32,60.97560976,5c6e60b04e08ad00018cc995,69b95efdef24cd8a694e89ee,69b9600af4af0329dfdbdb40,0.0186,0.0186,0,46,46,151,1,eightseven,,,,,,,,,,,,,,,,,,,,,,,,,,,,,,,,,,,,,,,,,,,,,,,,,,,,,,,,,,,,,,,,,,,,,,,,,,,,,,,,,,,,,,,,,,,,,,,,,,,,,,,,,,,,,,,,,,,,,,,,,,,,,,,,,,,,,,,,,
,,5c6e60b04e08ad00018cc995,2026-03-17_14h07.31.649,kallum_motion_pilot_GIST_update_2,2026.1.1,Win32,60.97560976,5c6e60b04e08ad00018cc995,69b95efdef24cd8a694e89ee,69b9600af4af0329dfdbdb40,0.0187,0.0187,0,47,47,67,1,twofour,,,,,,,,,,,,,,,,,,,,,,,,,,,,,,,,,,,,,,,,,,,,,,,,,,,,,,,,,,,,,,,,,,,,,,,,,,,,,,,,,,,,,,,,,,,,,,,,,,,,,,,,,,,,,,,,,,,,,,,,,,,,,,,,,,,,,,,,,
,,5c6e60b04e08ad00018cc995,2026-03-17_14h07.31.649,kallum_motion_pilot_GIST_update_2,2026.1.1,Win32,60.97560976,5c6e60b04e08ad00018cc995,69b95efdef24cd8a694e89ee,69b9600af4af0329dfdbdb40,0.0187,0.0187,0,48,48,92,1,sevenfive,,,,,,,,,,,,,,,,,,,,,,,,,,,,,,,,,,,,,,,,,,,,,,,,,,,,,,,,,,,,,,,,,,,,,,,,,,,,,,,,,,,,,,,,,,,,,,,,,,,,,,,,,,,,,,,,,,,,,,,,,,,,,,,,,,,,,,,,,
,,5c6e60b04e08ad00018cc995,2026-03-17_14h07.31.649,kallum_motion_pilot_GIST_update_2,2026.1.1,Win32,60.97560976,5c6e60b04e08ad00018cc995,69b95efdef24cd8a694e89ee,69b9600af4af0329dfdbdb40,0.0187,0.0187,0,49,49,64,1,onetwo,,,,,,,,,,,,,,,,,,,,,,,,,,,,,,,,,,,,,,,,,,,,,,,,,,,,,,,,,,,,,,,,,,,,,,,,,,,,,,,,,,,,,,,,,,,,,,,,,,,,,,,,,,,,,,,,,,,,,,,,,,,,,,,,,,,,,,,,,
,,5c6e60b04e08ad00018cc995,2026-03-17_14h07.31.649,kallum_motion_pilot_GIST_update_2,2026.1.1,Win32,60.97560976,5c6e60b04e08ad00018cc995,69b95efdef24cd8a694e89ee,69b9600af4af0329dfdbdb40,0.0188,0.0188,0,50,50,63,1,fourthree,,,,,,,,,,,,,,,,,,,,,,,,,,,,,,,,,,,,,,,,,,,,,,,,,,,,,,,,,,,,,,,,,,,,,,,,,,,,,,,,,,,,,,,,,,,,,,,,,,,,,,,,,,,,,,,,,,,,,,,,,,,,,,,,,,,,,,,,,
,,5c6e60b04e08ad00018cc995,2026-03-17_14h07.31.649,kallum_motion_pilot_GIST_update_2,2026.1.1,Win32,60.97560976,5c6e60b04e08ad00018cc995,69b95efdef24cd8a694e89ee,69b9600af4af0329dfdbdb40,0.0188,0.0188,0,51,51,72,1,onetwo,,,,,,,,,,,,,,,,,,,,,,,,,,,,,,,,,,,,,,,,,,,,,,,,,,,,,,,,,,,,,,,,,,,,,,,,,,,,,,,,,,,,,,,,,,,,,,,,,,,,,,,,,,,,,,,,,,,,,,,,,,,,,,,,,,,,,,,,,
,,5c6e60b04e08ad00018cc995,2026-03-17_14h07.31.649,kallum_motion_pilot_GIST_update_2,2026.1.1,Win32,60.97560976,5c6e60b04e08ad00018cc995,69b95efdef24cd8a694e89ee,69b9600af4af0329dfdbdb40,0.0189,0.0189,0,52,52,88,1,fivesix,,,,,,,,,,,,,,,,,,,,,,,,,,,,,,,,,,,,,,,,,,,,,,,,,,,,,,,,,,,,,,,,,,,,,,,,,,,,,,,,,,,,,,,,,,,,,,,,,,,,,,,,,,,,,,,,,,,,,,,,,,,,,,,,,,,,,,,,,
,,5c6e60b04e08ad00018cc995,2026-03-17_14h07.31.649,kallum_motion_pilot_GIST_update_2,2026.1.1,Win32,60.97560976,5c6e60b04e08ad00018cc995,69b95efdef24cd8a694e89ee,69b9600af4af0329dfdbdb40,0.019,0.019,0,53,53,31,1,fourthree,,,,,,,,,,,,,,,,,,,,,,,,,,,,,,,,,,,,,,,,,,,,,,,,,,,,,,,,,,,,,,,,,,,,,,,,,,,,,,,,,,,,,,,,,,,,,,,,,,,,,,,,,,,,,,,,,,,,,,,,,,,,,,,,,,,,,,,,,
,,5c6e60b04e08ad00018cc995,2026-03-17_14h07.31.649,kallum_motion_pilot_GIST_update_2,2026.1.1,Win32,60.97560976,5c6e60b04e08ad00018cc995,69b95efdef24cd8a694e89ee,69b9600af4af0329dfdbdb40,0.019,0.019,0,54,54,120,1,fivesix,,,,,,,,,,,,,,,,,,,,,,,,,,,,,,,,,,,,,,,,,,,,,,,,,,,,,,,,,,,,,,,,,,,,,,,,,,,,,,,,,,,,,,,,,,,,,,,,,,,,,,,,,,,,,,,,,,,,,,,,,,,,,,,,,,,,,,,,,
,,5c6e60b04e08ad00018cc995,2026-03-17_14h07.31.649,kallum_motion_pilot_GIST_update_2,2026.1.1,Win32,60.97560976,5c6e60b04e08ad00018cc995,69b95efdef24cd8a694e89ee,69b9600af4af0329dfdbdb40,0.0191,0.0191,0,55,55,78,1,fourtwo,,,,,,,,,,,,,,,,,,,,,,,,,,,,,,,,,,,,,,,,,,,,,,,,,,,,,,,,,,,,,,,,,,,,,,,,,,,,,,,,,,,,,,,,,,,,,,,,,,,,,,,,,,,,,,,,,,,,,,,,,,,,,,,,,,,,,,,,,
,,5c6e60b04e08ad00018cc995,2026-03-17_14h07.31.649,kallum_motion_pilot_GIST_update_2,2026.1.1,Win32,60.97560976,5c6e60b04e08ad00018cc995,69b95efdef24cd8a694e89ee,69b9600af4af0329dfdbdb40,0.0191,0.0191,0,56,56,127,1,eightseven,,,,,,,,,,,,,,,,,,,,,,,,,,,,,,,,,,,,,,,,,,,,,,,,,,,,,,,,,,,,,,,,,,,,,,,,,,,,,,,,,,,,,,,,,,,,,,,,,,,,,,,,,,,,,,,,,,,,,,,,,,,,,,,,,,,,,,,,,
,,5c6e60b04e08ad00018cc995,2026-03-17_14h07.31.649,kallum_motion_pilot_GIST_update_2,2026.1.1,Win32,60.97560976,5c6e60b04e08ad00018cc995,69b95efdef24cd8a694e89ee,69b9600af4af0329dfdbdb40,0.0191,0.0191,0,57,57,142,1,eightsix,,,,,,,,,,,,,,,,,,,,,,,,,,,,,,,,,,,,,,,,,,,,,,,,,,,,,,,,,,,,,,,,,,,,,,,,,,,,,,,,,,,,,,,,,,,,,,,,,,,,,,,,,,,,,,,,,,,,,,,,,,,,,,,,,,,,,,,,,
,,5c6e60b04e08ad00018cc995,2026-03-17_14h07.31.649,kallum_motion_pilot_GIST_update_2,2026.1.1,Win32,60.97560976,5c6e60b04e08ad00018cc995,69b95efdef24cd8a694e89ee,69b9600af4af0329dfdbdb40,0.0192,0.0192,0,58,58,42,1,twoone,,,,,,,,,,,,,,,,,,,,,,,,,,,,,,,,,,,,,,,,,,,,,,,,,,,,,,,,,,,,,,,,,,,,,,,,,,,,,,,,,,,,,,,,,,,,,,,,,,,,,,,,,,,,,,,,,,,,,,,,,,,,,,,,,,,,,,,,,
,,5c6e60b04e08ad00018cc995,2026-03-17_14h07.31.649,kallum_motion_pilot_GIST_update_2,2026.1.1,Win32,60.97560976,5c6e60b04e08ad00018cc995,69b95efdef24cd8a694e89ee,69b9600af4af0329dfdbdb40,0.0193,0.0193,0,59,59,148,1,sevenfive,,,,,,,,,,,,,,,,,,,,,,,,,,,,,,,,,,,,,,,,,,,,,,,,,,,,,,,,,,,,,,,,,,,,,,,,,,,,,,,,,,,,,,,,,,,,,,,,,,,,,,,,,,,,,,,,,,,,,,,,,,,,,,,,,,,,,,,,,
,,5c6e60b04e08ad00018cc995,2026-03-17_14h07.31.649,kallum_motion_pilot_GIST_update_2,2026.1.1,Win32,60.97560976,5c6e60b04e08ad00018cc995,69b95efdef24cd8a694e89ee,69b9600af4af0329dfdbdb40,0.0193,0.0193,0,60,60,0,1,onetwo,,,,,,,,,,,,,,,,,,,,,,,,,,,,,,,,,,,,,,,,,,,,,,,,,,,,,,,,,,,,,,,,,,,,,,,,,,,,,,,,,,,,,,,,,,,,,,,,,,,,,,,,,,,,,,,,,,,,,,,,,,,,,,,,,,,,,,,,,
,,5c6e60b04e08ad00018cc995,2026-03-17_14h07.31.649,kallum_motion_pilot_GIST_update_2,2026.1.1,Win32,60.97560976,5c6e60b04e08ad00018cc995,69b95efdef24cd8a694e89ee,69b9600af4af0329dfdbdb40,0.0193,0.0193,0,61,61,33,1,onethree,,,,,,,,,,,,,,,,,,,,,,,,,,,,,,,,,,,,,,,,,,,,,,,,,,,,,,,,,,,,,,,,,,,,,,,,,,,,,,,,,,,,,,,,,,,,,,,,,,,,,,,,,,,,,,,,,,,,,,,,,,,,,,,,,,,,,,,,,
,,5c6e60b04e08ad00018cc995,2026-03-17_14h07.31.649,kallum_motion_pilot_GIST_update_2,2026.1.1,Win32,60.97560976,5c6e60b04e08ad00018cc995,69b95efdef24cd8a694e89ee,69b9600af4af0329dfdbdb40,0.0194,0.0194,0,62,62,57,1,onethree,,,,,,,,,,,,,,,,,,,,,,,,,,,,,,,,,,,,,,,,,,,,,,,,,,,,,,,,,,,,,,,,,,,,,,,,,,,,,,,,,,,,,,,,,,,,,,,,,,,,,,,,,,,,,,,,,,,,,,,,,,,,,,,,,,,,,,,,,
,,5c6e60b04e08ad00018cc995,2026-03-17_14h07.31.649,kallum_motion_pilot_GIST_update_2,2026.1.1,Win32,60.97560976,5c6e60b04e08ad00018cc995,69b95efdef24cd8a694e89ee,69b9600af4af0329dfdbdb40,0.0194,0.0194,0,63,63,116,1,sevenfive,,,,,,,,,,,,,,,,,,,,,,,,,,,,,,,,,,,,,,,,,,,,,,,,,,,,,,,,,,,,,,,,,,,,,,,,,,,,,,,,,,,,,,,,,,,,,,,,,,,,,,,,,,,,,,,,,,,,,,,,,,,,,,,,,,,,,,,,,
,,5c6e60b04e08ad00018cc995,2026-03-17_14h07.31.649,kallum_motion_pilot_GIST_update_2,2026.1.1,Win32,60.97560976,5c6e60b04e08ad00018cc995,69b95efdef24cd8a694e89ee,69b9600af4af0329dfdbdb40,0.0195,0.0195,0,64,64,68,1,threeone,,,,,,,,,,,,,,,,,,,,,,,,,,,,,,,,,,,,,,,,,,,,,,,,,,,,,,,,,,,,,,,,,,,,,,,,,,,,,,,,,,,,,,,,,,,,,,,,,,,,,,,,,,,,,,,,,,,,,,,,,,,,,,,,,,,,,,,,,
,,5c6e60b04e08ad00018cc995,2026-03-17_14h07.31.649,kallum_motion_pilot_GIST_update_2,2026.1.1,Win32,60.97560976,5c6e60b04e08ad00018cc995,69b95efdef24cd8a694e89ee,69b9600af4af0329dfdbdb40,0.0196,0.0196,0,65,65,118,1,eightsix,,,,,,,,,,,,,,,,,,,,,,,,,,,,,,,,,,,,,,,,,,,,,,,,,,,,,,,,,,,,,,,,,,,,,,,,,,,,,,,,,,,,,,,,,,,,,,,,,,,,,,,,,,,,,,,,,,,,,,,,,,,,,,,,,,,,,,,,,
,,5c6e60b04e08ad00018cc995,2026-03-17_14h07.31.649,kallum_motion_pilot_GIST_update_2,2026.1.1,Win32,60.97560976,5c6e60b04e08ad00018cc995,69b95efdef24cd8a694e89ee,69b9600af4af0329dfdbdb40,0.0196,0.0196,0,66,66,141,1,seveneight,,,,,,,,,,,,,,,,,,,,,,,,,,,,,,,,,,,,,,,,,,,,,,,,,,,,,,,,,,,,,,,,,,,,,,,,,,,,,,,,,,,,,,,,,,,,,,,,,,,,,,,,,,,,,,,,,,,,,,,,,,,,,,,,,,,,,,,,,
,,5c6e60b04e08ad00018cc995,2026-03-17_14h07.31.649,kallum_motion_pilot_GIST_update_2,2026.1.1,Win32,60.97560976,5c6e60b04e08ad00018cc995,69b95efdef24cd8a694e89ee,69b9600af4af0329dfdbdb40,0.0196,0.0197,0,67,67,58,1,twoone,,,,,,,,,,,,,,,,,,,,,,,,,,,,,,,,,,,,,,,,,,,,,,,,,,,,,,,,,,,,,,,,,,,,,,,,,,,,,,,,,,,,,,,,,,,,,,,,,,,,,,,,,,,,,,,,,,,,,,,,,,,,,,,,,,,,,,,,,
,,5c6e60b04e08ad00018cc995,2026-03-17_14h07.31.649,kallum_motion_pilot_GIST_update_2,2026.1.1,Win32,60.97560976,5c6e60b04e08ad00018cc995,69b95efdef24cd8a694e89ee,69b9600af4af0329dfdbdb40,0.0197,0.0197,0,68,68,73,1,onethree,,,,,,,,,,,,,,,,,,,,,,,,,,,,,,,,,,,,,,,,,,,,,,,,,,,,,,,,,,,,,,,,,,,,,,,,,,,,,,,,,,,,,,,,,,,,,,,,,,,,,,,,,,,,,,,,,,,,,,,,,,,,,,,,,,,,,,,,,
,,5c6e60b04e08ad00018cc995,2026-03-17_14h07.31.649,kallum_motion_pilot_GIST_update_2,2026.1.1,Win32,60.97560976,5c6e60b04e08ad00018cc995,69b95efdef24cd8a694e89ee,69b9600af4af0329dfdbdb40,0.0197,0.0197,0,69,69,140,1,sevenfive,,,,,,,,,,,,,,,,,,,,,,,,,,,,,,,,,,,,,,,,,,,,,,,,,,,,,,,,,,,,,,,,,,,,,,,,,,,,,,,,,,,,,,,,,,,,,,,,,,,,,,,,,,,,,,,,,,,,,,,,,,,,,,,,,,,,,,,,,
,,5c6e60b04e08ad00018cc995,2026-03-17_14h07.31.649,kallum_motion_pilot_GIST_update_2,2026.1.1,Win32,60.97560976,5c6e60b04e08ad00018cc995,69b95efdef24cd8a694e89ee,69b9600af4af0329dfdbdb40,0.0199,0.0199,0,70,70,71,1,fourthree,,,,,,,,,,,,,,,,,,,,,,,,,,,,,,,,,,,,,,,,,,,,,,,,,,,,,,,,,,,,,,,,,,,,,,,,,,,,,,,,,,,,,,,,,,,,,,,,,,,,,,,,,,,,,,,,,,,,,,,,,,,,,,,,,,,,,,,,,
,,5c6e60b04e08ad00018cc995,2026-03-17_14h07.31.649,kallum_motion_pilot_GIST_update_2,2026.1.1,Win32,60.97560976,5c6e60b04e08ad00018cc995,69b95efdef24cd8a694e89ee,69b9600af4af0329dfdbdb40,0.02,0.02,0,71,71,27,1,twofour,,,,,,,,,,,,,,,,,,,,,,,,,,,,,,,,,,,,,,,,,,,,,,,,,,,,,,,,,,,,,,,,,,,,,,,,,,,,,,,,,,,,,,,,,,,,,,,,,,,,,,,,,,,,,,,,,,,,,,,,,,,,,,,,,,,,,,,,,
,,5c6e60b04e08ad00018cc995,2026-03-17_14h07.31.649,kallum_motion_pilot_GIST_update_2,2026.1.1,Win32,60.97560976,5c6e60b04e08ad00018cc995,69b95efdef24cd8a694e89ee,69b9600af4af0329dfdbdb40,0.02,0.02,0,72,72,86,1,eightsix,,,,,,,,,,,,,,,,,,,,,,,,,,,,,,,,,,,,,,,,,,,,,,,,,,,,,,,,,,,,,,,,,,,,,,,,,,,,,,,,,,,,,,,,,,,,,,,,,,,,,,,,,,,,,,,,,,,,,,,,,,,,,,,,,,,,,,,,,
,,5c6e60b04e08ad00018cc995,2026-03-17_14h07.31.649,kallum_motion_pilot_GIST_update_2,2026.1.1,Win32,60.97560976,5c6e60b04e08ad00018cc995,69b95efdef24cd8a694e89ee,69b9600af4af0329dfdbdb40,0.02,0.02,0,73,73,74,1,twoone,,,,,,,,,,,,,,,,,,,,,,,,,,,,,,,,,,,,,,,,,,,,,,,,,,,,,,,,,,,,,,,,,,,,,,,,,,,,,,,,,,,,,,,,,,,,,,,,,,,,,,,,,,,,,,,,,,,,,,,,,,,,,,,,,,,,,,,,,
,,5c6e60b04e08ad00018cc995,2026-03-17_14h07.31.649,kallum_motion_pilot_GIST_update_2,2026.1.1,Win32,60.97560976,5c6e60b04e08ad00018cc995,69b95efdef24cd8a694e89ee,69b9600af4af0329dfdbdb40,0.02,0.02,0,74,74,22,1,fourtwo,,,,,,,,,,,,,,,,,,,,,,,,,,,,,,,,,,,,,,,,,,,,,,,,,,,,,,,,,,,,,,,,,,,,,,,,,,,,,,,,,,,,,,,,,,,,,,,,,,,,,,,,,,,,,,,,,,,,,,,,,,,,,,,,,,,,,,,,,
,,5c6e60b04e08ad00018cc995,2026-03-17_14h07.31.649,kallum_motion_pilot_GIST_update_2,2026.1.1,Win32,60.97560976,5c6e60b04e08ad00018cc995,69b95efdef24cd8a694e89ee,69b9600af4af0329dfdbdb40,0.0201,0.0201,0,75,75,91,1,sixeight,,,,,,,,,,,,,,,,,,,,,,,,,,,,,,,,,,,,,,,,,,,,,,,,,,,,,,,,,,,,,,,,,,,,,,,,,,,,,,,,,,,,,,,,,,,,,,,,,,,,,,,,,,,,,,,,,,,,,,,,,,,,,,,,,,,,,,,,,
,,5c6e60b04e08ad00018cc995,2026-03-17_14h07.31.649,kallum_motion_pilot_GIST_update_2,2026.1.1,Win32,60.97560976,5c6e60b04e08ad00018cc995,69b95efdef24cd8a694e89ee,69b9600af4af0329dfdbdb40,0.0202,0.0202,0,76,76,41,1,onethree,,,,,,,,,,,,,,,,,,,,,,,,,,,,,,,,,,,,,,,,,,,,,,,,,,,,,,,,,,,,,,,,,,,,,,,,,,,,,,,,,,,,,,,,,,,,,,,,,,,,,,,,,,,,,,,,,,,,,,,,,,,,,,,,,,,,,,,,,
,,5c6e60b04e08ad00018cc995,2026-03-17_14h07.31.649,kallum_motion_pilot_GIST_update_2,2026.1.1,Win32,60.97560976,5c6e60b04e08ad00018cc995,69b95efdef24cd8a694e89ee,69b9600af4af0329dfdbdb40,0.0203,0.0203,0,77,77,119,1,eightseven,,,,,,,,,,,,,,,,,,,,,,,,,,,,,,,,,,,,,,,,,,,,,,,,,,,,,,,,,,,,,,,,,,,,,,,,,,,,,,,,,,,,,,,,,,,,,,,,,,,,,,,,,,,,,,,,,,,,,,,,,,,,,,,,,,,,,,,,,
,,5c6e60b04e08ad00018cc995,2026-03-17_14h07.31.649,kallum_motion_pilot_GIST_update_2,2026.1.1,Win32,60.97560976,5c6e60b04e08ad00018cc995,69b95efdef24cd8a694e89ee,69b9600af4af0329dfdbdb40,0.0203,0.0203,0,78,78,79,1,eightseven,,,,,,,,,,,,,,,,,,,,,,,,,,,,,,,,,,,,,,,,,,,,,,,,,,,,,,,,,,,,,,,,,,,,,,,,,,,,,,,,,,,,,,,,,,,,,,,,,,,,,,,,,,,,,,,,,,,,,,,,,,,,,,,,,,,,,,,,,
,,5c6e60b04e08ad00018cc995,2026-03-17_14h07.31.649,kallum_motion_pilot_GIST_update_2,2026.1.1,Win32,60.97560976,5c6e60b04e08ad00018cc995,69b95efdef24cd8a694e89ee,69b9600af4af0329dfdbdb40,0.0203,0.0203,0,79,79,125,1,seveneight,,,,,,,,,,,,,,,,,,,,,,,,,,,,,,,,,,,,,,,,,,,,,,,,,,,,,,,,,,,,,,,,,,,,,,,,,,,,,,,,,,,,,,,,,,,,,,,,,,,,,,,,,,,,,,,,,,,,,,,,,,,,,,,,,,,,,,,,,
,,5c6e60b04e08ad00018cc995,2026-03-17_14h07.31.649,kallum_motion_pilot_GIST_update_2,2026.1.1,Win32,60.97560976,5c6e60b04e08ad00018cc995,69b95efdef24cd8a694e89ee,69b9600af4af0329dfdbdb40,0.0204,0.0204,0,80,80,44,1,threeone,,,,,,,,,,,,,,,,,,,,,,,,,,,,,,,,,,,,,,,,,,,,,,,,,,,,,,,,,,,,,,,,,,,,,,,,,,,,,,,,,,,,,,,,,,,,,,,,,,,,,,,,,,,,,,,,,,,,,,,,,,,,,,,,,,,,,,,,,
,,5c6e60b04e08ad00018cc995,2026-03-17_14h07.31.649,kallum_motion_pilot_GIST_update_2,2026.1.1,Win32,60.97560976,5c6e60b04e08ad00018cc995,69b95efdef24cd8a694e89ee,69b9600af4af0329dfdbdb40,0.0205,0.0205,0,81,81,82,1,sixfive,,,,,,,,,,,,,,,,,,,,,,,,,,,,,,,,,,,,,,,,,,,,,,,,,,,,,,,,,,,,,,,,,,,,,,,,,,,,,,,,,,,,,,,,,,,,,,,,,,,,,,,,,,,,,,,,,,,,,,,,,,,,,,,,,,,,,,,,,
,,5c6e60b04e08ad00018cc995,2026-03-17_14h07.31.649,kallum_motion_pilot_GIST_update_2,2026.1.1,Win32,60.97560976,5c6e60b04e08ad00018cc995,69b95efdef24cd8a694e89ee,69b9600af4af0329dfdbdb40,0.0205,0.0205,0,82,82,66,1,twoone,,,,,,,,,,,,,,,,,,,,,,,,,,,,,,,,,,,,,,,,,,,,,,,,,,,,,,,,,,,,,,,,,,,,,,,,,,,,,,,,,,,,,,,,,,,,,,,,,,,,,,,,,,,,,,,,,,,,,,,,,,,,,,,,,,,,,,,,,
,,5c6e60b04e08ad00018cc995,2026-03-17_14h07.31.649,kallum_motion_pilot_GIST_update_2,2026.1.1,Win32,60.97560976,5c6e60b04e08ad00018cc995,69b95efdef24cd8a694e89ee,69b9600af4af0329dfdbdb40,0.0205,0.0205,0,83,83,115,1,sixeight,,,,,,,,,,,,,,,,,,,,,,,,,,,,,,,,,,,,,,,,,,,,,,,,,,,,,,,,,,,,,,,,,,,,,,,,,,,,,,,,,,,,,,,,,,,,,,,,,,,,,,,,,,,,,,,,,,,,,,,,,,,,,,,,,,,,,,,,,
,,5c6e60b04e08ad00018cc995,2026-03-17_14h07.31.649,kallum_motion_pilot_GIST_update_2,2026.1.1,Win32,60.97560976,5c6e60b04e08ad00018cc995,69b95efdef24cd8a694e89ee,69b9600af4af0329dfdbdb40,0.0206,0.0206,0,84,84,48,1,onetwo,,,,,,,,,,,,,,,,,,,,,,,,,,,,,,,,,,,,,,,,,,,,,,,,,,,,,,,,,,,,,,,,,,,,,,,,,,,,,,,,,,,,,,,,,,,,,,,,,,,,,,,,,,,,,,,,,,,,,,,,,,,,,,,,,,,,,,,,,
,,5c6e60b04e08ad00018cc995,2026-03-17_14h07.31.649,kallum_motion_pilot_GIST_update_2,2026.1.1,Win32,60.97560976,5c6e60b04e08ad00018cc995,69b95efdef24cd8a694e89ee,69b9600af4af0329dfdbdb40,0.0206,0.0206,0,85,85,34,1,twoone,,,,,,,,,,,,,,,,,,,,,,,,,,,,,,,,,,,,,,,,,,,,,,,,,,,,,,,,,,,,,,,,,,,,,,,,,,,,,,,,,,,,,,,,,,,,,,,,,,,,,,,,,,,,,,,,,,,,,,,,,,,,,,,,,,,,,,,,,
,,5c6e60b04e08ad00018cc995,2026-03-17_14h07.31.649,kallum_motion_pilot_GIST_update_2,2026.1.1,Win32,60.97560976,5c6e60b04e08ad00018cc995,69b95efdef24cd8a694e89ee,69b9600af4af0329dfdbdb40,0.0207,0.0208,0,86,86,13,1,threefour,,,,,,,,,,,,,,,,,,,,,,,,,,,,,,,,,,,,,,,,,,,,,,,,,,,,,,,,,,,,,,,,,,,,,,,,,,,,,,,,,,,,,,,,,,,,,,,,,,,,,,,,,,,,,,,,,,,,,,,,,,,,,,,,,,,,,,,,,
,,5c6e60b04e08ad00018cc995,2026-03-17_14h07.31.649,kallum_motion_pilot_GIST_update_2,2026.1.1,Win32,60.97560976,5c6e60b04e08ad00018cc995,69b95efdef24cd8a694e89ee,69b9600af4af0329dfdbdb40,0.0208,0.0208,0,87,87,30,1,fourtwo,,,,,,,,,,,,,,,,,,,,,,,,,,,,,,,,,,,,,,,,,,,,,,,,,,,,,,,,,,,,,,,,,,,,,,,,,,,,,,,,,,,,,,,,,,,,,,,,,,,,,,,,,,,,,,,,,,,,,,,,,,,,,,,,,,,,,,,,,
,,5c6e60b04e08ad00018cc995,2026-03-17_14h07.31.649,kallum_motion_pilot_GIST_update_2,2026.1.1,Win32,60.97560976,5c6e60b04e08ad00018cc995,69b95efdef24cd8a694e89ee,69b9600af4af0329dfdbdb40,0.0209,0.0209,0,88,88,16,1,onetwo,,,,,,,,,,,,,,,,,,,,,,,,,,,,,,,,,,,,,,,,,,,,,,,,,,,,,,,,,,,,,,,,,,,,,,,,,,,,,,,,,,,,,,,,,,,,,,,,,,,,,,,,,,,,,,,,,,,,,,,,,,,,,,,,,,,,,,,,,
,,5c6e60b04e08ad00018cc995,2026-03-17_14h07.31.649,kallum_motion_pilot_GIST_update_2,2026.1.1,Win32,60.97560976,5c6e60b04e08ad00018cc995,69b95efdef24cd8a694e89ee,69b9600af4af0329dfdbdb40,0.0209,0.0209,0,89,89,4,1,threeone,,,,,,,,,,,,,,,,,,,,,,,,,,,,,,,,,,,,,,,,,,,,,,,,,,,,,,,,,,,,,,,,,,,,,,,,,,,,,,,,,,,,,,,,,,,,,,,,,,,,,,,,,,,,,,,,,,,,,,,,,,,,,,,,,,,,,,,,,
,,5c6e60b04e08ad00018cc995,2026-03-17_14h07.31.649,kallum_motion_pilot_GIST_update_2,2026.1.1,Win32,60.97560976,5c6e60b04e08ad00018cc995,69b95efdef24cd8a694e89ee,69b9600af4af0329dfdbdb40,0.0209,0.0209,0,90,90,54,1,fourtwo,,,,,,,,,,,,,,,,,,,,,,,,,,,,,,,,,,,,,,,,,,,,,,,,,,,,,,,,,,,,,,,,,,,,,,,,,,,,,,,,,,,,,,,,,,,,,,,,,,,,,,,,,,,,,,,,,,,,,,,,,,,,,,,,,,,,,,,,,
,,5c6e60b04e08ad00018cc995,2026-03-17_14h07.31.649,kallum_motion_pilot_GIST_update_2,2026.1.1,Win32,60.97560976,5c6e60b04e08ad00018cc995,69b95efdef24cd8a694e89ee,69b9600af4af0329dfdbdb40,0.021,0.021,0,91,91,105,1,fiveseven,,,,,,,,,,,,,,,,,,,,,,,,,,,,,,,,,,,,,,,,,,,,,,,,,,,,,,,,,,,,,,,,,,,,,,,,,,,,,,,,,,,,,,,,,,,,,,,,,,,,,,,,,,,,,,,,,,,,,,,,,,,,,,,,,,,,,,,,,
,,5c6e60b04e08ad00018cc995,2026-03-17_14h07.31.649,kallum_motion_pilot_GIST_update_2,2026.1.1,Win32,60.97560976,5c6e60b04e08ad00018cc995,69b95efdef24cd8a694e89ee,69b9600af4af0329dfdbdb40,0.021,0.021,0,92,92,6,1,fourtwo,,,,,,,,,,,,,,,,,,,,,,,,,,,,,,,,,,,,,,,,,,,,,,,,,,,,,,,,,,,,,,,,,,,,,,,,,,,,,,,,,,,,,,,,,,,,,,,,,,,,,,,,,,,,,,,,,,,,,,,,,,,,,,,,,,,,,,,,,
,,5c6e60b04e08ad00018cc995,2026-03-17_14h07.31.649,kallum_motion_pilot_GIST_update_2,2026.1.1,Win32,60.97560976,5c6e60b04e08ad00018cc995,69b95efdef24cd8a694e89ee,69b9600af4af0329dfdbdb40,0.0211,0.0211,0,93,93,110,1,eightsix,,,,,,,,,,,,,,,,,,,,,,,,,,,,,,,,,,,,,,,,,,,,,,,,,,,,,,,,,,,,,,,,,,,,,,,,,,,,,,,,,,,,,,,,,,,,,,,,,,,,,,,,,,,,,,,,,,,,,,,,,,,,,,,,,,,,,,,,,
,,5c6e60b04e08ad00018cc995,2026-03-17_14h07.31.649,kallum_motion_pilot_GIST_update_2,2026.1.1,Win32,60.97560976,5c6e60b04e08ad00018cc995,69b95efdef24cd8a694e89ee,69b9600af4af0329dfdbdb40,0.0211,0.0211,0,94,94,81,1,fiveseven,,,,,,,,,,,,,,,,,,,,,,,,,,,,,,,,,,,,,,,,,,,,,,,,,,,,,,,,,,,,,,,,,,,,,,,,,,,,,,,,,,,,,,,,,,,,,,,,,,,,,,,,,,,,,,,,,,,,,,,,,,,,,,,,,,,,,,,,,
,,5c6e60b04e08ad00018cc995,2026-03-17_14h07.31.649,kallum_motion_pilot_GIST_update_2,2026.1.1,Win32,60.97560976,5c6e60b04e08ad00018cc995,69b95efdef24cd8a694e89ee,69b9600af4af0329dfdbdb40,0.0213,0.0213,0,95,95,89,1,fiveseven,,,,,,,,,,,,,,,,,,,,,,,,,,,,,,,,,,,,,,,,,,,,,,,,,,,,,,,,,,,,,,,,,,,,,,,,,,,,,,,,,,,,,,,,,,,,,,,,,,,,,,,,,,,,,,,,,,,,,,,,,,,,,,,,,,,,,,,,,
,,5c6e60b04e08ad00018cc995,2026-03-17_14h07.31.649,kallum_motion_pilot_GIST_update_2,2026.1.1,Win32,60.97560976,5c6e60b04e08ad00018cc995,69b95efdef24cd8a694e89ee,69b9600af4af0329dfdbdb40,0.0213,0.0213,0,96,96,59,1,twofour,,,,,,,,,,,,,,,,,,,,,,,,,,,,,,,,,,,,,,,,,,,,,,,,,,,,,,,,,,,,,,,,,,,,,,,,,,,,,,,,,,,,,,,,,,,,,,,,,,,,,,,,,,,,,,,,,,,,,,,,,,,,,,,,,,,,,,,,,
,,5c6e60b04e08ad00018cc995,2026-03-17_14h07.31.649,kallum_motion_pilot_GIST_update_2,2026.1.1,Win32,60.97560976,5c6e60b04e08ad00018cc995,69b95efdef24cd8a694e89ee,69b9600af4af0329dfdbdb40,0.0213,0.0213,0,97,97,113,1,fiveseven,,,,,,,,,,,,,,,,,,,,,,,,,,,,,,,,,,,,,,,,,,,,,,,,,,,,,,,,,,,,,,,,,,,,,,,,,,,,,,,,,,,,,,,,,,,,,,,,,,,,,,,,,,,,,,,,,,,,,,,,,,,,,,,,,,,,,,,,,
,,5c6e60b04e08ad00018cc995,2026-03-17_14h07.31.649,kallum_motion_pilot_GIST_update_2,2026.1.1,Win32,60.97560976,5c6e60b04e08ad00018cc995,69b95efdef24cd8a694e89ee,69b9600af4af0329dfdbdb40,0.0214,0.0214,0,98,98,90,1,sixfive,,,,,,,,,,,,,,,,,,,,,,,,,,,,,,,,,,,,,,,,,,,,,,,,,,,,,,,,,,,,,,,,,,,,,,,,,,,,,,,,,,,,,,,,,,,,,,,,,,,,,,,,,,,,,,,,,,,,,,,,,,,,,,,,,,,,,,,,,
,,5c6e60b04e08ad00018cc995,2026-03-17_14h07.31.649,kallum_motion_pilot_GIST_update_2,2026.1.1,Win32,60.97560976,5c6e60b04e08ad00018cc995,69b95efdef24cd8a694e89ee,69b9600af4af0329dfdbdb40,0.0215,0.0215,0,99,99,102,1,eightsix,,,,,,,,,,,,,,,,,,,,,,,,,,,,,,,,,,,,,,,,,,,,,,,,,,,,,,,,,,,,,,,,,,,,,,,,,,,,,,,,,,,,,,,,,,,,,,,,,,,,,,,,,,,,,,,,,,,,,,,,,,,,,,,,,,,,,,,,,
,,5c6e60b04e08ad00018cc995,2026-03-17_14h07.31.649,kallum_motion_pilot_GIST_update_2,2026.1.1,Win32,60.97560976,5c6e60b04e08ad00018cc995,69b95efdef24cd8a694e89ee,69b9600af4af0329dfdbdb40,0.0216,0.0216,0,100,100,135,1,eightseven,,,,,,,,,,,,,,,,,,,,,,,,,,,,,,,,,,,,,,,,,,,,,,,,,,,,,,,,,,,,,,,,,,,,,,,,,,,,,,,,,,,,,,,,,,,,,,,,,,,,,,,,,,,,,,,,,,,,,,,,,,,,,,,,,,,,,,,,,
,,5c6e60b04e08ad00018cc995,2026-03-17_14h07.31.649,kallum_motion_pilot_GIST_update_2,2026.1.1,Win32,60.97560976,5c6e60b04e08ad00018cc995,69b95efdef24cd8a694e89ee,69b9600af4af0329dfdbdb40,0.0216,0.0216,0,101,101,134,1,eightsix,,,,,,,,,,,,,,,,,,,,,,,,,,,,,,,,,,,,,,,,,,,,,,,,,,,,,,,,,,,,,,,,,,,,,,,,,,,,,,,,,,,,,,,,,,,,,,,,,,,,,,,,,,,,,,,,,,,,,,,,,,,,,,,,,,,,,,,,,
,,5c6e60b04e08ad00018cc995,2026-03-17_14h07.31.649,kallum_motion_pilot_GIST_update_2,2026.1.1,Win32,60.97560976,5c6e60b04e08ad00018cc995,69b95efdef24cd8a694e89ee,69b9600af4af0329dfdbdb40,0.0216,0.0216,0,102,102,46,1,fourtwo,,,,,,,,,,,,,,,,,,,,,,,,,,,,,,,,,,,,,,,,,,,,,,,,,,,,,,,,,,,,,,,,,,,,,,,,,,,,,,,,,,,,,,,,,,,,,,,,,,,,,,,,,,,,,,,,,,,,,,,,,,,,,,,,,,,,,,,,,
,,5c6e60b04e08ad00018cc995,2026-03-17_14h07.31.649,kallum_motion_pilot_GIST_update_2,2026.1.1,Win32,60.97560976,5c6e60b04e08ad00018cc995,69b95efdef24cd8a694e89ee,69b9600af4af0329dfdbdb40,0.0217,0.0217,0,103,103,55,1,fourthree,,,,,,,,,,,,,,,,,,,,,,,,,,,,,,,,,,,,,,,,,,,,,,,,,,,,,,,,,,,,,,,,,,,,,,,,,,,,,,,,,,,,,,,,,,,,,,,,,,,,,,,,,,,,,,,,,,,,,,,,,,,,,,,,,,,,,,,,,
,,5c6e60b04e08ad00018cc995,2026-03-17_14h07.31.649,kallum_motion_pilot_GIST_update_2,2026.1.1,Win32,60.97560976,5c6e60b04e08ad00018cc995,69b95efdef24cd8a694e89ee,69b9600af4af0329dfdbdb40,0.0218,0.0218,0,104,104,47,1,fourthree,,,,,,,,,,,,,,,,,,,,,,,,,,,,,,,,,,,,,,,,,,,,,,,,,,,,,,,,,,,,,,,,,,,,,,,,,,,,,,,,,,,,,,,,,,,,,,,,,,,,,,,,,,,,,,,,,,,,,,,,,,,,,,,,,,,,,,,,,
,,5c6e60b04e08ad00018cc995,2026-03-17_14h07.31.649,kallum_motion_pilot_GIST_update_2,2026.1.1,Win32,60.97560976,5c6e60b04e08ad00018cc995,69b95efdef24cd8a694e89ee,69b9600af4af0329dfdbdb40,0.0225,0.0225,0,105,105,14,1,fourtwo,,,,,,,,,,,,,,,,,,,,,,,,,,,,,,,,,,,,,,,,,,,,,,,,,,,,,,,,,,,,,,,,,,,,,,,,,,,,,,,,,,,,,,,,,,,,,,,,,,,,,,,,,,,,,,,,,,,,,,,,,,,,,,,,,,,,,,,,,
,,5c6e60b04e08ad00018cc995,2026-03-17_14h07.31.649,kallum_motion_pilot_GIST_update_2,2026.1.1,Win32,60.97560976,5c6e60b04e08ad00018cc995,69b95efdef24cd8a694e89ee,69b9600af4af0329dfdbdb40,0.0225,0.0225,0,106,106,9,1,onethree,,,,,,,,,,,,,,,,,,,,,,,,,,,,,,,,,,,,,,,,,,,,,,,,,,,,,,,,,,,,,,,,,,,,,,,,,,,,,,,,,,,,,,,,,,,,,,,,,,,,,,,,,,,,,,,,,,,,,,,,,,,,,,,,,,,,,,,,,
,,5c6e60b04e08ad00018cc995,2026-03-17_14h07.31.649,kallum_motion_pilot_GIST_update_2,2026.1.1,Win32,60.97560976,5c6e60b04e08ad00018cc995,69b95efdef24cd8a694e89ee,69b9600af4af0329dfdbdb40,0.0226,0.0226,0,107,107,107,1,sixeight,,,,,,,,,,,,,,,,,,,,,,,,,,,,,,,,,,,,,,,,,,,,,,,,,,,,,,,,,,,,,,,,,,,,,,,,,,,,,,,,,,,,,,,,,,,,,,,,,,,,,,,,,,,,,,,,,,,,,,,,,,,,,,,,,,,,,,,,,
,,5c6e60b04e08ad00018cc995,2026-03-17_14h07.31.649,kallum_motion_pilot_GIST_update_2,2026.1.1,Win32,60.97560976,5c6e60b04e08ad00018cc995,69b95efdef24cd8a694e89ee,69b9600af4af0329dfdbdb40,0.0226,0.0226,0,108,108,45,1,threefour,,,,,,,,,,,,,,,,,,,,,,,,,,,,,,,,,,,,,,,,,,,,,,,,,,,,,,,,,,,,,,,,,,,,,,,,,,,,,,,,,,,,,,,,,,,,,,,,,,,,,,,,,,,,,,,,,,,,,,,,,,,,,,,,,,,,,,,,,
,,5c6e60b04e08ad00018cc995,2026-03-17_14h07.31.649,kallum_motion_pilot_GIST_update_2,2026.1.1,Win32,60.97560976,5c6e60b04e08ad00018cc995,69b95efdef24cd8a694e89ee,69b9600af4af0329dfdbdb40,0.0227,0.0227,0,109,109,87,1,eightseven,,,,,,,,,,,,,,,,,,,,,,,,,,,,,,,,,,,,,,,,,,,,,,,,,,,,,,,,,,,,,,,,,,,,,,,,,,,,,,,,,,,,,,,,,,,,,,,,,,,,,,,,,,,,,,,,,,,,,,,,,,,,,,,,,,,,,,,,,
,,5c6e60b04e08ad00018cc995,2026-03-17_14h07.31.649,kallum_motion_pilot_GIST_update_2,2026.1.1,Win32,60.97560976,5c6e60b04e08ad00018cc995,69b95efdef24cd8a694e89ee,69b9600af4af0329dfdbdb40,0.0228,0.0228,0,110,110,109,1,seveneight,,,,,,,,,,,,,,,,,,,,,,,,,,,,,,,,,,,,,,,,,,,,,,,,,,,,,,,,,,,,,,,,,,,,,,,,,,,,,,,,,,,,,,,,,,,,,,,,,,,,,,,,,,,,,,,,,,,,,,,,,,,,,,,,,,,,,,,,,
,,5c6e60b04e08ad00018cc995,2026-03-17_14h07.31.649,kallum_motion_pilot_GIST_update_2,2026.1.1,Win32,60.97560976,5c6e60b04e08ad00018cc995,69b95efdef24cd8a694e89ee,69b9600af4af0329dfdbdb40,0.0228,0.0228,0,111,111,76,1,threeone,,,,,,,,,,,,,,,,,,,,,,,,,,,,,,,,,,,,,,,,,,,,,,,,,,,,,,,,,,,,,,,,,,,,,,,,,,,,,,,,,,,,,,,,,,,,,,,,,,,,,,,,,,,,,,,,,,,,,,,,,,,,,,,,,,,,,,,,,
,,5c6e60b04e08ad00018cc995,2026-03-17_14h07.31.649,kallum_motion_pilot_GIST_update_2,2026.1.1,Win32,60.97560976,5c6e60b04e08ad00018cc995,69b95efdef24cd8a694e89ee,69b9600af4af0329dfdbdb40,0.0229,0.0229,0,112,112,130,1,sixfive,,,,,,,,,,,,,,,,,,,,,,,,,,,,,,,,,,,,,,,,,,,,,,,,,,,,,,,,,,,,,,,,,,,,,,,,,,,,,,,,,,,,,,,,,,,,,,,,,,,,,,,,,,,,,,,,,,,,,,,,,,,,,,,,,,,,,,,,,
,,5c6e60b04e08ad00018cc995,2026-03-17_14h07.31.649,kallum_motion_pilot_GIST_update_2,2026.1.1,Win32,60.97560976,5c6e60b04e08ad00018cc995,69b95efdef24cd8a694e89ee,69b9600af4af0329dfdbdb40,0.023,0.023,0,113,113,96,1,fivesix,,,,,,,,,,,,,,,,,,,,,,,,,,,,,,,,,,,,,,,,,,,,,,,,,,,,,,,,,,,,,,,,,,,,,,,,,,,,,,,,,,,,,,,,,,,,,,,,,,,,,,,,,,,,,,,,,,,,,,,,,,,,,,,,,,,,,,,,,
,,5c6e60b04e08ad00018cc995,2026-03-17_14h07.31.649,kallum_motion_pilot_GIST_update_2,2026.1.1,Win32,60.97560976,5c6e60b04e08ad00018cc995,69b95efdef24cd8a694e89ee,69b9600af4af0329dfdbdb40,0.0231,0.0231,0,114,114,137,1,fiveseven,,,,,,,,,,,,,,,,,,,,,,,,,,,,,,,,,,,,,,,,,,,,,,,,,,,,,,,,,,,,,,,,,,,,,,,,,,,,,,,,,,,,,,,,,,,,,,,,,,,,,,,,,,,,,,,,,,,,,,,,,,,,,,,,,,,,,,,,,
,,5c6e60b04e08ad00018cc995,2026-03-17_14h07.31.649,kallum_motion_pilot_GIST_update_2,2026.1.1,Win32,60.97560976,5c6e60b04e08ad00018cc995,69b95efdef24cd8a694e89ee,69b9600af4af0329dfdbdb40,0.0231,0.0231,0,115,115,153,1,fiveseven,,,,,,,,,,,,,,,,,,,,,,,,,,,,,,,,,,,,,,,,,,,,,,,,,,,,,,,,,,,,,,,,,,,,,,,,,,,,,,,,,,,,,,,,,,,,,,,,,,,,,,,,,,,,,,,,,,,,,,,,,,,,,,,,,,,,,,,,,
,,5c6e60b04e08ad00018cc995,2026-03-17_14h07.31.649,kallum_motion_pilot_GIST_update_2,2026.1.1,Win32,60.97560976,5c6e60b04e08ad00018cc995,69b95efdef24cd8a694e89ee,69b9600af4af0329dfdbdb40,0.0232,0.0232,0,116,116,69,1,threefour,,,,,,,,,,,,,,,,,,,,,,,,,,,,,,,,,,,,,,,,,,,,,,,,,,,,,,,,,,,,,,,,,,,,,,,,,,,,,,,,,,,,,,,,,,,,,,,,,,,,,,,,,,,,,,,,,,,,,,,,,,,,,,,,,,,,,,,,,
,,5c6e60b04e08ad00018cc995,2026-03-17_14h07.31.649,kallum_motion_pilot_GIST_update_2,2026.1.1,Win32,60.97560976,5c6e60b04e08ad00018cc995,69b95efdef24cd8a694e89ee,69b9600af4af0329dfdbdb40,0.0232,0.0232,0,117,117,12,1,threeone,,,,,,,,,,,,,,,,,,,,,,,,,,,,,,,,,,,,,,,,,,,,,,,,,,,,,,,,,,,,,,,,,,,,,,,,,,,,,,,,,,,,,,,,,,,,,,,,,,,,,,,,,,,,,,,,,,,,,,,,,,,,,,,,,,,,,,,,,
,,5c6e60b04e08ad00018cc995,2026-03-17_14h07.31.649,kallum_motion_pilot_GIST_update_2,2026.1.1,Win32,60.97560976,5c6e60b04e08ad00018cc995,69b95efdef24cd8a694e89ee,69b9600af4af0329dfdbdb40,0.0233,0.0233,0,118,118,114,1,sixfive,,,,,,,,,,,,,,,,,,,,,,,,,,,,,,,,,,,,,,,,,,,,,,,,,,,,,,,,,,,,,,,,,,,,,,,,,,,,,,,,,,,,,,,,,,,,,,,,,,,,,,,,,,,,,,,,,,,,,,,,,,,,,,,,,,,,,,,,,
,,5c6e60b04e08ad00018cc995,2026-03-17_14h07.31.649,kallum_motion_pilot_GIST_update_2,2026.1.1,Win32,60.97560976,5c6e60b04e08ad00018cc995,69b95efdef24cd8a694e89ee,69b9600af4af0329dfdbdb40,0.0233,0.0233,0,119,119,39,1,fourthree,,,,,,,,,,,,,,,,,,,,,,,,,,,,,,,,,,,,,,,,,,,,,,,,,,,,,,,,,,,,,,,,,,,,,,,,,,,,,,,,,,,,,,,,,,,,,,,,,,,,,,,,,,,,,,,,,,,,,,,,,,,,,,,,,,,,,,,,,
,,5c6e60b04e08ad00018cc995,2026-03-17_14h07.31.649,kallum_motion_pilot_GIST_update_2,2026.1.1,Win32,60.97560976,5c6e60b04e08ad00018cc995,69b95efdef24cd8a694e89ee,69b9600af4af0329dfdbdb40,0.0234,0.0234,0,120,120,38,1,fourtwo,,,,,,,,,,,,,,,,,,,,,,,,,,,,,,,,,,,,,,,,,,,,,,,,,,,,,,,,,,,,,,,,,,,,,,,,,,,,,,,,,,,,,,,,,,,,,,,,,,,,,,,,,,,,,,,,,,,,,,,,,,,,,,,,,,,,,,,,,
,,5c6e60b04e08ad00018cc995,2026-03-17_14h07.31.649,kallum_motion_pilot_GIST_update_2,2026.1.1,Win32,60.97560976,5c6e60b04e08ad00018cc995,69b95efdef24cd8a694e89ee,69b9600af4af0329dfdbdb40,0.0235,0.0235,0,121,121,84,1,sevenfive,,,,,,,,,,,,,,,,,,,,,,,,,,,,,,,,,,,,,,,,,,,,,,,,,,,,,,,,,,,,,,,,,,,,,,,,,,,,,,,,,,,,,,,,,,,,,,,,,,,,,,,,,,,,,,,,,,,,,,,,,,,,,,,,,,,,,,,,,
,,5c6e60b04e08ad00018cc995,2026-03-17_14h07.31.649,kallum_motion_pilot_GIST_update_2,2026.1.1,Win32,60.97560976,5c6e60b04e08ad00018cc995,69b95efdef24cd8a694e89ee,69b9600af4af0329dfdbdb40,0.0235,0.0235,0,122,122,103,1,eightseven,,,,,,,,,,,,,,,,,,,,,,,,,,,,,,,,,,,,,,,,,,,,,,,,,,,,,,,,,,,,,,,,,,,,,,,,,,,,,,,,,,,,,,,,,,,,,,,,,,,,,,,,,,,,,,,,,,,,,,,,,,,,,,,,,,,,,,,,,
,,5c6e60b04e08ad00018cc995,2026-03-17_14h07.31.649,kallum_motion_pilot_GIST_update_2,2026.1.1,Win32,60.97560976,5c6e60b04e08ad00018cc995,69b95efdef24cd8a694e89ee,69b9600af4af0329dfdbdb40,0.0235,0.0235,0,123,123,159,1,eightseven,,,,,,,,,,,,,,,,,,,,,,,,,,,,,,,,,,,,,,,,,,,,,,,,,,,,,,,,,,,,,,,,,,,,,,,,,,,,,,,,,,,,,,,,,,,,,,,,,,,,,,,,,,,,,,,,,,,,,,,,,,,,,,,,,,,,,,,,,
,,5c6e60b04e08ad00018cc995,2026-03-17_14h07.31.649,kallum_motion_pilot_GIST_update_2,2026.1.1,Win32,60.97560976,5c6e60b04e08ad00018cc995,69b95efdef24cd8a694e89ee,69b9600af4af0329dfdbdb40,0.0236,0.0236,0,124,124,60,1,threeone,,,,,,,,,,,,,,,,,,,,,,,,,,,,,,,,,,,,,,,,,,,,,,,,,,,,,,,,,,,,,,,,,,,,,,,,,,,,,,,,,,,,,,,,,,,,,,,,,,,,,,,,,,,,,,,,,,,,,,,,,,,,,,,,,,,,,,,,,
,,5c6e60b04e08ad00018cc995,2026-03-17_14h07.31.649,kallum_motion_pilot_GIST_update_2,2026.1.1,Win32,60.97560976,5c6e60b04e08ad00018cc995,69b95efdef24cd8a694e89ee,69b9600af4af0329dfdbdb40,0.0237,0.0237,0,125,125,154,1,sixfive,,,,,,,,,,,,,,,,,,,,,,,,,,,,,,,,,,,,,,,,,,,,,,,,,,,,,,,,,,,,,,,,,,,,,,,,,,,,,,,,,,,,,,,,,,,,,,,,,,,,,,,,,,,,,,,,,,,,,,,,,,,,,,,,,,,,,,,,,
,,5c6e60b04e08ad00018cc995,2026-03-17_14h07.31.649,kallum_motion_pilot_GIST_update_2,2026.1.1,Win32,60.97560976,5c6e60b04e08ad00018cc995,69b95efdef24cd8a694e89ee,69b9600af4af0329dfdbdb40,0.0238,0.0238,0,126,126,121,1,fiveseven,,,,,,,,,,,,,,,,,,,,,,,,,,,,,,,,,,,,,,,,,,,,,,,,,,,,,,,,,,,,,,,,,,,,,,,,,,,,,,,,,,,,,,,,,,,,,,,,,,,,,,,,,,,,,,,,,,,,,,,,,,,,,,,,,,,,,,,,,
,,5c6e60b04e08ad00018cc995,2026-03-17_14h07.31.649,kallum_motion_pilot_GIST_update_2,2026.1.1,Win32,60.97560976,5c6e60b04e08ad00018cc995,69b95efdef24cd8a694e89ee,69b9600af4af0329dfdbdb40,0.0239,0.0239,0,127,127,97,1,fiveseven,,,,,,,,,,,,,,,,,,,,,,,,,,,,,,,,,,,,,,,,,,,,,,,,,,,,,,,,,,,,,,,,,,,,,,,,,,,,,,,,,,,,,,,,,,,,,,,,,,,,,,,,,,,,,,,,,,,,,,,,,,,,,,,,,,,,,,,,,
,,5c6e60b04e08ad00018cc995,2026-03-17_14h07.31.649,kallum_motion_pilot_GIST_update_2,2026.1.1,Win32,60.97560976,5c6e60b04e08ad00018cc995,69b95efdef24cd8a694e89ee,69b9600af4af0329dfdbdb40,0.0239,0.0239,0,128,128,150,1,eightsix,,,,,,,,,,,,,,,,,,,,,,,,,,,,,,,,,,,,,,,,,,,,,,,,,,,,,,,,,,,,,,,,,,,,,,,,,,,,,,,,,,,,,,,,,,,,,,,,,,,,,,,,,,,,,,,,,,,,,,,,,,,,,,,,,,,,,,,,,
,,5c6e60b04e08ad00018cc995,2026-03-17_14h07.31.649,kallum_motion_pilot_GIST_update_2,2026.1.1,Win32,60.97560976,5c6e60b04e08ad00018cc995,69b95efdef24cd8a694e89ee,69b9600af4af0329dfdbdb40,0.0239,0.0239,0,129,129,83,1,sixeight,,,,,,,,,,,,,,,,,,,,,,,,,,,,,,,,,,,,,,,,,,,,,,,,,,,,,,,,,,,,,,,,,,,,,,,,,,,,,,,,,,,,,,,,,,,,,,,,,,,,,,,,,,,,,,,,,,,,,,,,,,,,,,,,,,,,,,,,,
,,5c6e60b04e08ad00018cc995,2026-03-17_14h07.31.649,kallum_motion_pilot_GIST_update_2,2026.1.1,Win32,60.97560976,5c6e60b04e08ad00018cc995,69b95efdef24cd8a694e89ee,69b9600af4af0329dfdbdb40,0.024,0.024,0,130,130,94,1,eightsix,,,,,,,,,,,,,,,,,,,,,,,,,,,,,,,,,,,,,,,,,,,,,,,,,,,,,,,,,,,,,,,,,,,,,,,,,,,,,,,,,,,,,,,,,,,,,,,,,,,,,,,,,,,,,,,,,,,,,,,,,,,,,,,,,,,,,,,,,
,,5c6e60b04e08ad00018cc995,2026-03-17_14h07.31.649,kallum_motion_pilot_GIST_update_2,2026.1.1,Win32,60.97560976,5c6e60b04e08ad00018cc995,69b95efdef24cd8a694e89ee,69b9600af4af0329dfdbdb40,0.0241,0.0241,0,131,131,23,1,fourthree,,,,,,,,,,,,,,,,,,,,,,,,,,,,,,,,,,,,,,,,,,,,,,,,,,,,,,,,,,,,,,,,,,,,,,,,,,,,,,,,,,,,,,,,,,,,,,,,,,,,,,,,,,,,,,,,,,,,,,,,,,,,,,,,,,,,,,,,,
,,5c6e60b04e08ad00018cc995,2026-03-17_14h07.31.649,kallum_motion_pilot_GIST_update_2,2026.1.1,Win32,60.97560976,5c6e60b04e08ad00018cc995,69b95efdef24cd8a694e89ee,69b9600af4af0329dfdbdb40,0.0241,0.0241,0,132,132,139,1,sixeight,,,,,,,,,,,,,,,,,,,,,,,,,,,,,,,,,,,,,,,,,,,,,,,,,,,,,,,,,,,,,,,,,,,,,,,,,,,,,,,,,,,,,,,,,,,,,,,,,,,,,,,,,,,,,,,,,,,,,,,,,,,,,,,,,,,,,,,,,
,,5c6e60b04e08ad00018cc995,2026-03-17_14h07.31.649,kallum_motion_pilot_GIST_update_2,2026.1.1,Win32,60.97560976,5c6e60b04e08ad00018cc995,69b95efdef24cd8a694e89ee,69b9600af4af0329dfdbdb40,0.0242,0.0242,0,133,133,108,1,sevenfive,,,,,,,,,,,,,,,,,,,,,,,,,,,,,,,,,,,,,,,,,,,,,,,,,,,,,,,,,,,,,,,,,,,,,,,,,,,,,,,,,,,,,,,,,,,,,,,,,,,,,,,,,,,,,,,,,,,,,,,,,,,,,,,,,,,,,,,,,
,,5c6e60b04e08ad00018cc995,2026-03-17_14h07.31.649,kallum_motion_pilot_GIST_update_2,2026.1.1,Win32,60.97560976,5c6e60b04e08ad00018cc995,69b95efdef24cd8a694e89ee,69b9600af4af0329dfdbdb40,0.0242,0.0242,0,134,134,104,1,fivesix,,,,,,,,,,,,,,,,,,,,,,,,,,,,,,,,,,,,,,,,,,,,,,,,,,,,,,,,,,,,,,,,,,,,,,,,,,,,,,,,,,,,,,,,,,,,,,,,,,,,,,,,,,,,,,,,,,,,,,,,,,,,,,,,,,,,,,,,,
,,5c6e60b04e08ad00018cc995,2026-03-17_14h07.31.649,kallum_motion_pilot_GIST_update_2,2026.1.1,Win32,60.97560976,5c6e60b04e08ad00018cc995,69b95efdef24cd8a694e89ee,69b9600af4af0329dfdbdb40,0.0242,0.0242,0,135,135,146,1,sixfive,,,,,,,,,,,,,,,,,,,,,,,,,,,,,,,,,,,,,,,,,,,,,,,,,,,,,,,,,,,,,,,,,,,,,,,,,,,,,,,,,,,,,,,,,,,,,,,,,,,,,,,,,,,,,,,,,,,,,,,,,,,,,,,,,,,,,,,,,
,,5c6e60b04e08ad00018cc995,2026-03-17_14h07.31.649,kallum_motion_pilot_GIST_update_2,2026.1.1,Win32,60.97560976,5c6e60b04e08ad00018cc995,69b95efdef24cd8a694e89ee,69b9600af4af0329dfdbdb40,0.0243,0.0243,0,136,136,132,1,sevenfive,,,,,,,,,,,,,,,,,,,,,,,,,,,,,,,,,,,,,,,,,,,,,,,,,,,,,,,,,,,,,,,,,,,,,,,,,,,,,,,,,,,,,,,,,,,,,,,,,,,,,,,,,,,,,,,,,,,,,,,,,,,,,,,,,,,,,,,,,
,,5c6e60b04e08ad00018cc995,2026-03-17_14h07.31.649,kallum_motion_pilot_GIST_update_2,2026.1.1,Win32,60.97560976,5c6e60b04e08ad00018cc995,69b95efdef24cd8a694e89ee,69b9600af4af0329dfdbdb40,0.0244,0.0244,0,137,137,93,1,seveneight,,,,,,,,,,,,,,,,,,,,,,,,,,,,,,,,,,,,,,,,,,,,,,,,,,,,,,,,,,,,,,,,,,,,,,,,,,,,,,,,,,,,,,,,,,,,,,,,,,,,,,,,,,,,,,,,,,,,,,,,,,,,,,,,,,,,,,,,,
,,5c6e60b04e08ad00018cc995,2026-03-17_14h07.31.649,kallum_motion_pilot_GIST_update_2,2026.1.1,Win32,60.97560976,5c6e60b04e08ad00018cc995,69b95efdef24cd8a694e89ee,69b9600af4af0329dfdbdb40,0.0245,0.0245,0,138,138,143,1,eightseven,,,,,,,,,,,,,,,,,,,,,,,,,,,,,,,,,,,,,,,,,,,,,,,,,,,,,,,,,,,,,,,,,,,,,,,,,,,,,,,,,,,,,,,,,,,,,,,,,,,,,,,,,,,,,,,,,,,,,,,,,,,,,,,,,,,,,,,,,
,,5c6e60b04e08ad00018cc995,2026-03-17_14h07.31.649,kallum_motion_pilot_GIST_update_2,2026.1.1,Win32,60.97560976,5c6e60b04e08ad00018cc995,69b95efdef24cd8a694e89ee,69b9600af4af0329dfdbdb40,0.0245,0.0245,0,139,139,56,1,onetwo,,,,,,,,,,,,,,,,,,,,,,,,,,,,,,,,,,,,,,,,,,,,,,,,,,,,,,,,,,,,,,,,,,,,,,,,,,,,,,,,,,,,,,,,,,,,,,,,,,,,,,,,,,,,,,,,,,,,,,,,,,,,,,,,,,,,,,,,,
,,5c6e60b04e08ad00018cc995,2026-03-17_14h07.31.649,kallum_motion_pilot_GIST_update_2,2026.1.1,Win32,60.97560976,5c6e60b04e08ad00018cc995,69b95efdef24cd8a694e89ee,69b9600af4af0329dfdbdb40,0.0246,0.0246,0,140,140,129,1,fiveseven,,,,,,,,,,,,,,,,,,,,,,,,,,,,,,,,,,,,,,,,,,,,,,,,,,,,,,,,,,,,,,,,,,,,,,,,,,,,,,,,,,,,,,,,,,,,,,,,,,,,,,,,,,,,,,,,,,,,,,,,,,,,,,,,,,,,,,,,,
,,5c6e60b04e08ad00018cc995,2026-03-17_14h07.31.649,kallum_motion_pilot_GIST_update_2,2026.1.1,Win32,60.97560976,5c6e60b04e08ad00018cc995,69b95efdef24cd8a694e89ee,69b9600af4af0329dfdbdb40,0.0246,0.0246,0,141,141,95,1,eightseven,,,,,,,,,,,,,,,,,,,,,,,,,,,,,,,,,,,,,,,,,,,,,,,,,,,,,,,,,,,,,,,,,,,,,,,,,,,,,,,,,,,,,,,,,,,,,,,,,,,,,,,,,,,,,,,,,,,,,,,,,,,,,,,,,,,,,,,,,
,,5c6e60b04e08ad00018cc995,2026-03-17_14h07.31.649,kallum_motion_pilot_GIST_update_2,2026.1.1,Win32,60.97560976,5c6e60b04e08ad00018cc995,69b95efdef24cd8a694e89ee,69b9600af4af0329dfdbdb40,0.0246,0.0246,0,142,142,111,1,eightseven,,,,,,,,,,,,,,,,,,,,,,,,,,,,,,,,,,,,,,,,,,,,,,,,,,,,,,,,,,,,,,,,,,,,,,,,,,,,,,,,,,,,,,,,,,,,,,,,,,,,,,,,,,,,,,,,,,,,,,,,,,,,,,,,,,,,,,,,,
,,5c6e60b04e08ad00018cc995,2026-03-17_14h07.31.649,kallum_motion_pilot_GIST_update_2,2026.1.1,Win32,60.97560976,5c6e60b04e08ad00018cc995,69b95efdef24cd8a694e89ee,69b9600af4af0329dfdbdb40,0.0247,0.0247,0,143,143,3,1,twofour,,,,,,,,,,,,,,,,,,,,,,,,,,,,,,,,,,,,,,,,,,,,,,,,,,,,,,,,,,,,,,,,,,,,,,,,,,,,,,,,,,,,,,,,,,,,,,,,,,,,,,,,,,,,,,,,,,,,,,,,,,,,,,,,,,,,,,,,,
,,5c6e60b04e08ad00018cc995,2026-03-17_14h07.31.649,kallum_motion_pilot_GIST_update_2,2026.1.1,Win32,60.97560976,5c6e60b04e08ad00018cc995,69b95efdef24cd8a694e89ee,69b9600af4af0329dfdbdb40,0.0248,0.0248,0,144,144,25,1,onethree,,,,,,,,,,,,,,,,,,,,,,,,,,,,,,,,,,,,,,,,,,,,,,,,,,,,,,,,,,,,,,,,,,,,,,,,,,,,,,,,,,,,,,,,,,,,,,,,,,,,,,,,,,,,,,,,,,,,,,,,,,,,,,,,,,,,,,,,,
,,5c6e60b04e08ad00018cc995,2026-03-17_14h07.31.649,kallum_motion_pilot_GIST_update_2,2026.1.1,Win32,60.97560976,5c6e60b04e08ad00018cc995,69b95efdef24cd8a694e89ee,69b9600af4af0329dfdbdb40,0.0249,0.0249,0,145,145,36,1,threeone,,,,,,,,,,,,,,,,,,,,,,,,,,,,,,,,,,,,,,,,,,,,,,,,,,,,,,,,,,,,,,,,,,,,,,,,,,,,,,,,,,,,,,,,,,,,,,,,,,,,,,,,,,,,,,,,,,,,,,,,,,,,,,,,,,,,,,,,,
,,5c6e60b04e08ad00018cc995,2026-03-17_14h07.31.649,kallum_motion_pilot_GIST_update_2,2026.1.1,Win32,60.97560976,5c6e60b04e08ad00018cc995,69b95efdef24cd8a694e89ee,69b9600af4af0329dfdbdb40,0.0249,0.0249,0,146,146,7,1,fourthree,,,,,,,,,,,,,,,,,,,,,,,,,,,,,,,,,,,,,,,,,,,,,,,,,,,,,,,,,,,,,,,,,,,,,,,,,,,,,,,,,,,,,,,,,,,,,,,,,,,,,,,,,,,,,,,,,,,,,,,,,,,,,,,,,,,,,,,,,
,,5c6e60b04e08ad00018cc995,2026-03-17_14h07.31.649,kallum_motion_pilot_GIST_update_2,2026.1.1,Win32,60.97560976,5c6e60b04e08ad00018cc995,69b95efdef24cd8a694e89ee,69b9600af4af0329dfdbdb40,0.025,0.025,0,147,147,136,1,fivesix,,,,,,,,,,,,,,,,,,,,,,,,,,,,,,,,,,,,,,,,,,,,,,,,,,,,,,,,,,,,,,,,,,,,,,,,,,,,,,,,,,,,,,,,,,,,,,,,,,,,,,,,,,,,,,,,,,,,,,,,,,,,,,,,,,,,,,,,,
,,5c6e60b04e08ad00018cc995,2026-03-17_14h07.31.649,kallum_motion_pilot_GIST_update_2,2026.1.1,Win32,60.97560976,5c6e60b04e08ad00018cc995,69b95efdef24cd8a694e89ee,69b9600af4af0329dfdbdb40,0.025,0.025,0,148,148,149,1,seveneight,,,,,,,,,,,,,,,,,,,,,,,,,,,,,,,,,,,,,,,,,,,,,,,,,,,,,,,,,,,,,,,,,,,,,,,,,,,,,,,,,,,,,,,,,,,,,,,,,,,,,,,,,,,,,,,,,,,,,,,,,,,,,,,,,,,,,,,,,
,,5c6e60b04e08ad00018cc995,2026-03-17_14h07.31.649,kallum_motion_pilot_GIST_update_2,2026.1.1,Win32,60.97560976,5c6e60b04e08ad00018cc995,69b95efdef24cd8a694e89ee,69b9600af4af0329dfdbdb40,0.0251,0.0251,0,149,149,70,1,fourtwo,,,,,,,,,,,,,,,,,,,,,,,,,,,,,,,,,,,,,,,,,,,,,,,,,,,,,,,,,,,,,,,,,,,,,,,,,,,,,,,,,,,,,,,,,,,,,,,,,,,,,,,,,,,,,,,,,,,,,,,,,,,,,,,,,,,,,,,,,
,,5c6e60b04e08ad00018cc995,2026-03-17_14h07.31.649,kallum_motion_pilot_GIST_update_2,2026.1.1,Win32,60.97560976,5c6e60b04e08ad00018cc995,69b95efdef24cd8a694e89ee,69b9600af4af0329dfdbdb40,0.026,0.026,0,150,150,123,1,sixeight,,,,,,,,,,,,,,,,,,,,,,,,,,,,,,,,,,,,,,,,,,,,,,,,,,,,,,,,,,,,,,,,,,,,,,,,,,,,,,,,,,,,,,,,,,,,,,,,,,,,,,,,,,,,,,,,,,,,,,,,,,,,,,,,,,,,,,,,,
,,5c6e60b04e08ad00018cc995,2026-03-17_14h07.31.649,kallum_motion_pilot_GIST_update_2,2026.1.1,Win32,60.97560976,5c6e60b04e08ad00018cc995,69b95efdef24cd8a694e89ee,69b9600af4af0329dfdbdb40,0.0261,0.0261,0,151,151,117,1,seveneight,,,,,,,,,,,,,,,,,,,,,,,,,,,,,,,,,,,,,,,,,,,,,,,,,,,,,,,,,,,,,,,,,,,,,,,,,,,,,,,,,,,,,,,,,,,,,,,,,,,,,,,,,,,,,,,,,,,,,,,,,,,,,,,,,,,,,,,,,
,,5c6e60b04e08ad00018cc995,2026-03-17_14h07.31.649,kallum_motion_pilot_GIST_update_2,2026.1.1,Win32,60.97560976,5c6e60b04e08ad00018cc995,69b95efdef24cd8a694e89ee,69b9600af4af0329dfdbdb40,0.0263,0.0263,0,152,152,17,1,onethree,,,,,,,,,,,,,,,,,,,,,,,,,,,,,,,,,,,,,,,,,,,,,,,,,,,,,,,,,,,,,,,,,,,,,,,,,,,,,,,,,,,,,,,,,,,,,,,,,,,,,,,,,,,,,,,,,,,,,,,,,,,,,,,,,,,,,,,,,
,,5c6e60b04e08ad00018cc995,2026-03-17_14h07.31.649,kallum_motion_pilot_GIST_update_2,2026.1.1,Win32,60.97560976,5c6e60b04e08ad00018cc995,69b95efdef24cd8a694e89ee,69b9600af4af0329dfdbdb40,0.0263,0.0263,0,153,153,37,1,threefour,,,,,,,,,,,,,,,,,,,,,,,,,,,,,,,,,,,,,,,,,,,,,,,,,,,,,,,,,,,,,,,,,,,,,,,,,,,,,,,,,,,,,,,,,,,,,,,,,,,,,,,,,,,,,,,,,,,,,,,,,,,,,,,,,,,,,,,,,
,,5c6e60b04e08ad00018cc995,2026-03-17_14h07.31.649,kallum_motion_pilot_GIST_update_2,2026.1.1,Win32,60.97560976,5c6e60b04e08ad00018cc995,69b95efdef24cd8a694e89ee,69b9600af4af0329dfdbdb40,0.0263,0.0263,0,154,154,29,1,threefour,,,,,,,,,,,,,,,,,,,,,,,,,,,,,,,,,,,,,,,,,,,,,,,,,,,,,,,,,,,,,,,,,,,,,,,,,,,,,,,,,,,,,,,,,,,,,,,,,,,,,,,,,,,,,,,,,,,,,,,,,,,,,,,,,,,,,,,,,
,,5c6e60b04e08ad00018cc995,2026-03-17_14h07.31.649,kallum_motion_pilot_GIST_update_2,2026.1.1,Win32,60.97560976,5c6e60b04e08ad00018cc995,69b95efdef24cd8a694e89ee,69b9600af4af0329dfdbdb40,0.0265,0.0265,0,155,155,49,1,onethree,,,,,,,,,,,,,,,,,,,,,,,,,,,,,,,,,,,,,,,,,,,,,,,,,,,,,,,,,,,,,,,,,,,,,,,,,,,,,,,,,,,,,,,,,,,,,,,,,,,,,,,,,,,,,,,,,,,,,,,,,,,,,,,,,,,,,,,,,
,,5c6e60b04e08ad00018cc995,2026-03-17_14h07.31.649,kallum_motion_pilot_GIST_update_2,2026.1.1,Win32,60.97560976,5c6e60b04e08ad00018cc995,69b95efdef24cd8a694e89ee,69b9600af4af0329dfdbdb40,0.0265,0.0265,0,156,156,128,1,fivesix,,,,,,,,,,,,,,,,,,,,,,,,,,,,,,,,,,,,,,,,,,,,,,,,,,,,,,,,,,,,,,,,,,,,,,,,,,,,,,,,,,,,,,,,,,,,,,,,,,,,,,,,,,,,,,,,,,,,,,,,,,,,,,,,,,,,,,,,,
,,5c6e60b04e08ad00018cc995,2026-03-17_14h07.31.649,kallum_motion_pilot_GIST_update_2,2026.1.1,Win32,60.97560976,5c6e60b04e08ad00018cc995,69b95efdef24cd8a694e89ee,69b9600af4af0329dfdbdb40,0.0265,0.0265,0,157,157,80,1,fivesix,,,,,,,,,,,,,,,,,,,,,,,,,,,,,,,,,,,,,,,,,,,,,,,,,,,,,,,,,,,,,,,,,,,,,,,,,,,,,,,,,,,,,,,,,,,,,,,,,,,,,,,,,,,,,,,,,,,,,,,,,,,,,,,,,,,,,,,,,
,,5c6e60b04e08ad00018cc995,2026-03-17_14h07.31.649,kallum_motion_pilot_GIST_update_2,2026.1.1,Win32,60.97560976,5c6e60b04e08ad00018cc995,69b95efdef24cd8a694e89ee,69b9600af4af0329dfdbdb40,0.0266,0.0266,0,158,158,28,1,threeone,,,,,,,,,,,,,,,,,,,,,,,,,,,,,,,,,,,,,,,,,,,,,,,,,,,,,,,,,,,,,,,,,,,,,,,,,,,,,,,,,,,,,,,,,,,,,,,,,,,,,,,,,,,,,,,,,,,,,,,,,,,,,,,,,,,,,,,,,
,,5c6e60b04e08ad00018cc995,2026-03-17_14h07.31.649,kallum_motion_pilot_GIST_update_2,2026.1.1,Win32,60.97560976,5c6e60b04e08ad00018cc995,69b95efdef24cd8a694e89ee,69b9600af4af0329dfdbdb40,0.0266,0.0266,0,159,159,101,1,seveneight,,,,,,,,,,,,,,,,,,,,,,,,,,,,,,,,,,,,,,,,,,,,,,,,,,,,,,,,,,,,,,,,,,,,,,,,,,,,,,,,,,,,,,,,,,,,,,,,,,,,,,,,,,,,,,,,,,,,,,,,,,,,,,,,,,,,,,,,,
,,5c6e60b04e08ad00018cc995,2026-03-17_14h07.31.649,kallum_motion_pilot_GIST_update_2,2026.1.1,Win32,60.97560976,5c6e60b04e08ad00018cc995,69b95efdef24cd8a694e89ee,69b9600af4af0329dfdbdb40,0.0267,0.0267,0,160,160,21,1,threefour,,,,,,,,,,,,,,,,,,,,,,,,,,,,,,,,,,,,,,,,,,,,,,,,,,,,,,,,,,,,,,,,,,,,,,,,,,,,,,,,,,,,,,,,,,,,,,,,,,,,,,,,,,,,,,,,,,,,,,,,,,,,,,,,,,,,,,,,,
,,5c6e60b04e08ad00018cc995,2026-03-17_14h07.31.649,kallum_motion_pilot_GIST_update_2,2026.1.1,Win32,60.97560976,5c6e60b04e08ad00018cc995,69b95efdef24cd8a694e89ee,69b9600af4af0329dfdbdb40,0.0267,0.0267,0,161,161,122,1,sixfive,,,,,,,,,,,,,,,,,,,,,,,,,,,,,,,,,,,,,,,,,,,,,,,,,,,,,,,,,,,,,,,,,,,,,,,,,,,,,,,,,,,,,,,,,,,,,,,,,,,,,,,,,,,,,,,,,,,,,,,,,,,,,,,,,,,,,,,,,
,,5c6e60b04e08ad00018cc995,2026-03-17_14h07.31.649,kallum_motion_pilot_GIST_update_2,2026.1.1,Win32,60.97560976,5c6e60b04e08ad00018cc995,69b95efdef24cd8a694e89ee,69b9600af4af0329dfdbdb40,0.0269,0.0269,1,0,162,2,1,twoone,,,,,,,,,,,,,,,,,,,,,,,,,,,,,,,,,,,,,,,,,,,,,,,,,,,,,,,,,,,,,,,,,,,,,,,,,,,,,,,,,,,,,,,,,,,,,,,,,,,,,,,,,,,,,,,,,,,,,,,,,,,,,,,,,,,,,,,,,
,,5c6e60b04e08ad00018cc995,2026-03-17_14h07.31.649,kallum_motion_pilot_GIST_update_2,2026.1.1,Win32,60.97560976,5c6e60b04e08ad00018cc995,69b95efdef24cd8a694e89ee,69b9600af4af0329dfdbdb40,0.0269,0.0269,1,1,163,131,1,sixeight,,,,,,,,,,,,,,,,,,,,,,,,,,,,,,,,,,,,,,,,,,,,,,,,,,,,,,,,,,,,,,,,,,,,,,,,,,,,,,,,,,,,,,,,,,,,,,,,,,,,,,,,,,,,,,,,,,,,,,,,,,,,,,,,,,,,,,,,,
,,5c6e60b04e08ad00018cc995,2026-03-17_14h07.31.649,kallum_motion_pilot_GIST_update_2,2026.1.1,Win32,60.97560976,5c6e60b04e08ad00018cc995,69b95efdef24cd8a694e89ee,69b9600af4af0329dfdbdb40,0.027,0.027,1,2,164,92,1,sevenfive,,,,,,,,,,,,,,,,,,,,,,,,,,,,,,,,,,,,,,,,,,,,,,,,,,,,,,,,,,,,,,,,,,,,,,,,,,,,,,,,,,,,,,,,,,,,,,,,,,,,,,,,,,,,,,,,,,,,,,,,,,,,,,,,,,,,,,,,,
,,5c6e60b04e08ad00018cc995,2026-03-17_14h07.31.649,kallum_motion_pilot_GIST_update_2,2026.1.1,Win32,60.97560976,5c6e60b04e08ad00018cc995,69b95efdef24cd8a694e89ee,69b9600af4af0329dfdbdb40,0.027,0.027,1,3,165,152,1,fivesix,,,,,,,,,,,,,,,,,,,,,,,,,,,,,,,,,,,,,,,,,,,,,,,,,,,,,,,,,,,,,,,,,,,,,,,,,,,,,,,,,,,,,,,,,,,,,,,,,,,,,,,,,,,,,,,,,,,,,,,,,,,,,,,,,,,,,,,,,
,,5c6e60b04e08ad00018cc995,2026-03-17_14h07.31.649,kallum_motion_pilot_GIST_update_2,2026.1.1,Win32,60.97560976,5c6e60b04e08ad00018cc995,69b95efdef24cd8a694e89ee,69b9600af4af0329dfdbdb40,0.0271,0.0271,1,4,166,63,1,fourthree,,,,,,,,,,,,,,,,,,,,,,,,,,,,,,,,,,,,,,,,,,,,,,,,,,,,,,,,,,,,,,,,,,,,,,,,,,,,,,,,,,,,,,,,,,,,,,,,,,,,,,,,,,,,,,,,,,,,,,,,,,,,,,,,,,,,,,,,,
,,5c6e60b04e08ad00018cc995,2026-03-17_14h07.31.649,kallum_motion_pilot_GIST_update_2,2026.1.1,Win32,60.97560976,5c6e60b04e08ad00018cc995,69b95efdef24cd8a694e89ee,69b9600af4af0329dfdbdb40,0.0272,0.0272,1,5,167,45,1,threefour,,,,,,,,,,,,,,,,,,,,,,,,,,,,,,,,,,,,,,,,,,,,,,,,,,,,,,,,,,,,,,,,,,,,,,,,,,,,,,,,,,,,,,,,,,,,,,,,,,,,,,,,,,,,,,,,,,,,,,,,,,,,,,,,,,,,,,,,,
,,5c6e60b04e08ad00018cc995,2026-03-17_14h07.31.649,kallum_motion_pilot_GIST_update_2,2026.1.1,Win32,60.97560976,5c6e60b04e08ad00018cc995,69b95efdef24cd8a694e89ee,69b9600af4af0329dfdbdb40,0.0273,0.0273,1,6,168,98,1,sixfive,,,,,,,,,,,,,,,,,,,,,,,,,,,,,,,,,,,,,,,,,,,,,,,,,,,,,,,,,,,,,,,,,,,,,,,,,,,,,,,,,,,,,,,,,,,,,,,,,,,,,,,,,,,,,,,,,,,,,,,,,,,,,,,,,,,,,,,,,
,,5c6e60b04e08ad00018cc995,2026-03-17_14h07.31.649,kallum_motion_pilot_GIST_update_2,2026.1.1,Win32,60.97560976,5c6e60b04e08ad00018cc995,69b95efdef24cd8a694e89ee,69b9600af4af0329dfdbdb40,0.0273,0.0273,1,7,169,23,1,fourthree,,,,,,,,,,,,,,,,,,,,,,,,,,,,,,,,,,,,,,,,,,,,,,,,,,,,,,,,,,,,,,,,,,,,,,,,,,,,,,,,,,,,,,,,,,,,,,,,,,,,,,,,,,,,,,,,,,,,,,,,,,,,,,,,,,,,,,,,,
,,5c6e60b04e08ad00018cc995,2026-03-17_14h07.31.649,kallum_motion_pilot_GIST_update_2,2026.1.1,Win32,60.97560976,5c6e60b04e08ad00018cc995,69b95efdef24cd8a694e89ee,69b9600af4af0329dfdbdb40,0.0273,0.0273,1,8,170,41,1,onethree,,,,,,,,,,,,,,,,,,,,,,,,,,,,,,,,,,,,,,,,,,,,,,,,,,,,,,,,,,,,,,,,,,,,,,,,,,,,,,,,,,,,,,,,,,,,,,,,,,,,,,,,,,,,,,,,,,,,,,,,,,,,,,,,,,,,,,,,,
,,5c6e60b04e08ad00018cc995,2026-03-17_14h07.31.649,kallum_motion_pilot_GIST_update_2,2026.1.1,Win32,60.97560976,5c6e60b04e08ad00018cc995,69b95efdef24cd8a694e89ee,69b9600af4af0329dfdbdb40,0.0274,0.0274,1,9,171,106,1,sixfive,,,,,,,,,,,,,,,,,,,,,,,,,,,,,,,,,,,,,,,,,,,,,,,,,,,,,,,,,,,,,,,,,,,,,,,,,,,,,,,,,,,,,,,,,,,,,,,,,,,,,,,,,,,,,,,,,,,,,,,,,,,,,,,,,,,,,,,,,
,,5c6e60b04e08ad00018cc995,2026-03-17_14h07.31.649,kallum_motion_pilot_GIST_update_2,2026.1.1,Win32,60.97560976,5c6e60b04e08ad00018cc995,69b95efdef24cd8a694e89ee,69b9600af4af0329dfdbdb40,0.0274,0.0274,1,10,172,71,1,fourthree,,,,,,,,,,,,,,,,,,,,,,,,,,,,,,,,,,,,,,,,,,,,,,,,,,,,,,,,,,,,,,,,,,,,,,,,,,,,,,,,,,,,,,,,,,,,,,,,,,,,,,,,,,,,,,,,,,,,,,,,,,,,,,,,,,,,,,,,,
,,5c6e60b04e08ad00018cc995,2026-03-17_14h07.31.649,kallum_motion_pilot_GIST_update_2,2026.1.1,Win32,60.97560976,5c6e60b04e08ad00018cc995,69b95efdef24cd8a694e89ee,69b9600af4af0329dfdbdb40,0.0275,0.0275,1,11,173,150,1,eightsix,,,,,,,,,,,,,,,,,,,,,,,,,,,,,,,,,,,,,,,,,,,,,,,,,,,,,,,,,,,,,,,,,,,,,,,,,,,,,,,,,,,,,,,,,,,,,,,,,,,,,,,,,,,,,,,,,,,,,,,,,,,,,,,,,,,,,,,,,
,,5c6e60b04e08ad00018cc995,2026-03-17_14h07.31.649,kallum_motion_pilot_GIST_update_2,2026.1.1,Win32,60.97560976,5c6e60b04e08ad00018cc995,69b95efdef24cd8a694e89ee,69b9600af4af0329dfdbdb40,0.0276,0.0276,1,12,174,86,1,eightsix,,,,,,,,,,,,,,,,,,,,,,,,,,,,,,,,,,,,,,,,,,,,,,,,,,,,,,,,,,,,,,,,,,,,,,,,,,,,,,,,,,,,,,,,,,,,,,,,,,,,,,,,,,,,,,,,,,,,,,,,,,,,,,,,,,,,,,,,,
,,5c6e60b04e08ad00018cc995,2026-03-17_14h07.31.649,kallum_motion_pilot_GIST_update_2,2026.1.1,Win32,60.97560976,5c6e60b04e08ad00018cc995,69b95efdef24cd8a694e89ee,69b9600af4af0329dfdbdb40,0.0277,0.0277,1,13,175,24,1,onetwo,,,,,,,,,,,,,,,,,,,,,,,,,,,,,,,,,,,,,,,,,,,,,,,,,,,,,,,,,,,,,,,,,,,,,,,,,,,,,,,,,,,,,,,,,,,,,,,,,,,,,,,,,,,,,,,,,,,,,,,,,,,,,,,,,,,,,,,,,
,,5c6e60b04e08ad00018cc995,2026-03-17_14h07.31.649,kallum_motion_pilot_GIST_update_2,2026.1.1,Win32,60.97560976,5c6e60b04e08ad00018cc995,69b95efdef24cd8a694e89ee,69b9600af4af0329dfdbdb40,0.0277,0.0277,1,14,176,128,1,fivesix,,,,,,,,,,,,,,,,,,,,,,,,,,,,,,,,,,,,,,,,,,,,,,,,,,,,,,,,,,,,,,,,,,,,,,,,,,,,,,,,,,,,,,,,,,,,,,,,,,,,,,,,,,,,,,,,,,,,,,,,,,,,,,,,,,,,,,,,,
,,5c6e60b04e08ad00018cc995,2026-03-17_14h07.31.649,kallum_motion_pilot_GIST_update_2,2026.1.1,Win32,60.97560976,5c6e60b04e08ad00018cc995,69b95efdef24cd8a694e89ee,69b9600af4af0329dfdbdb40,0.0278,0.0278,1,15,177,138,1,sixfive,,,,,,,,,,,,,,,,,,,,,,,,,,,,,,,,,,,,,,,,,,,,,,,,,,,,,,,,,,,,,,,,,,,,,,,,,,,,,,,,,,,,,,,,,,,,,,,,,,,,,,,,,,,,,,,,,,,,,,,,,,,,,,,,,,,,,,,,,
,,5c6e60b04e08ad00018cc995,2026-03-17_14h07.31.649,kallum_motion_pilot_GIST_update_2,2026.1.1,Win32,60.97560976,5c6e60b04e08ad00018cc995,69b95efdef24cd8a694e89ee,69b9600af4af0329dfdbdb40,0.0278,0.0278,1,16,178,76,1,threeone,,,,,,,,,,,,,,,,,,,,,,,,,,,,,,,,,,,,,,,,,,,,,,,,,,,,,,,,,,,,,,,,,,,,,,,,,,,,,,,,,,,,,,,,,,,,,,,,,,,,,,,,,,,,,,,,,,,,,,,,,,,,,,,,,,,,,,,,,
,,5c6e60b04e08ad00018cc995,2026-03-17_14h07.31.649,kallum_motion_pilot_GIST_update_2,2026.1.1,Win32,60.97560976,5c6e60b04e08ad00018cc995,69b95efdef24cd8a694e89ee,69b9600af4af0329dfdbdb40,0.0279,0.0279,1,17,179,14,1,fourtwo,,,,,,,,,,,,,,,,,,,,,,,,,,,,,,,,,,,,,,,,,,,,,,,,,,,,,,,,,,,,,,,,,,,,,,,,,,,,,,,,,,,,,,,,,,,,,,,,,,,,,,,,,,,,,,,,,,,,,,,,,,,,,,,,,,,,,,,,,
,,5c6e60b04e08ad00018cc995,2026-03-17_14h07.31.649,kallum_motion_pilot_GIST_update_2,2026.1.1,Win32,60.97560976,5c6e60b04e08ad00018cc995,69b95efdef24cd8a694e89ee,69b9600af4af0329dfdbdb40,0.0279,0.028,1,18,180,4,1,threeone,,,,,,,,,,,,,,,,,,,,,,,,,,,,,,,,,,,,,,,,,,,,,,,,,,,,,,,,,,,,,,,,,,,,,,,,,,,,,,,,,,,,,,,,,,,,,,,,,,,,,,,,,,,,,,,,,,,,,,,,,,,,,,,,,,,,,,,,,
,,5c6e60b04e08ad00018cc995,2026-03-17_14h07.31.649,kallum_motion_pilot_GIST_update_2,2026.1.1,Win32,60.97560976,5c6e60b04e08ad00018cc995,69b95efdef24cd8a694e89ee,69b9600af4af0329dfdbdb40,0.028,0.028,1,19,181,61,1,threefour,,,,,,,,,,,,,,,,,,,,,,,,,,,,,,,,,,,,,,,,,,,,,,,,,,,,,,,,,,,,,,,,,,,,,,,,,,,,,,,,,,,,,,,,,,,,,,,,,,,,,,,,,,,,,,,,,,,,,,,,,,,,,,,,,,,,,,,,,
,,5c6e60b04e08ad00018cc995,2026-03-17_14h07.31.649,kallum_motion_pilot_GIST_update_2,2026.1.1,Win32,60.97560976,5c6e60b04e08ad00018cc995,69b95efdef24cd8a694e89ee,69b9600af4af0329dfdbdb40,0.0281,0.0281,1,20,182,99,1,sixeight,,,,,,,,,,,,,,,,,,,,,,,,,,,,,,,,,,,,,,,,,,,,,,,,,,,,,,,,,,,,,,,,,,,,,,,,,,,,,,,,,,,,,,,,,,,,,,,,,,,,,,,,,,,,,,,,,,,,,,,,,,,,,,,,,,,,,,,,,
,,5c6e60b04e08ad00018cc995,2026-03-17_14h07.31.649,kallum_motion_pilot_GIST_update_2,2026.1.1,Win32,60.97560976,5c6e60b04e08ad00018cc995,69b95efdef24cd8a694e89ee,69b9600af4af0329dfdbdb40,0.0281,0.0281,1,21,183,109,1,seveneight,,,,,,,,,,,,,,,,,,,,,,,,,,,,,,,,,,,,,,,,,,,,,,,,,,,,,,,,,,,,,,,,,,,,,,,,,,,,,,,,,,,,,,,,,,,,,,,,,,,,,,,,,,,,,,,,,,,,,,,,,,,,,,,,,,,,,,,,,
,,5c6e60b04e08ad00018cc995,2026-03-17_14h07.31.649,kallum_motion_pilot_GIST_update_2,2026.1.1,Win32,60.97560976,5c6e60b04e08ad00018cc995,69b95efdef24cd8a694e89ee,69b9600af4af0329dfdbdb40,0.0282,0.0282,1,22,184,39,1,fourthree,,,,,,,,,,,,,,,,,,,,,,,,,,,,,,,,,,,,,,,,,,,,,,,,,,,,,,,,,,,,,,,,,,,,,,,,,,,,,,,,,,,,,,,,,,,,,,,,,,,,,,,,,,,,,,,,,,,,,,,,,,,,,,,,,,,,,,,,,
,,5c6e60b04e08ad00018cc995,2026-03-17_14h07.31.649,kallum_motion_pilot_GIST_update_2,2026.1.1,Win32,60.97560976,5c6e60b04e08ad00018cc995,69b95efdef24cd8a694e89ee,69b9600af4af0329dfdbdb40,0.0283,0.0283,1,23,185,115,1,sixeight,,,,,,,,,,,,,,,,,,,,,,,,,,,,,,,,,,,,,,,,,,,,,,,,,,,,,,,,,,,,,,,,,,,,,,,,,,,,,,,,,,,,,,,,,,,,,,,,,,,,,,,,,,,,,,,,,,,,,,,,,,,,,,,,,,,,,,,,,
,,5c6e60b04e08ad00018cc995,2026-03-17_14h07.31.649,kallum_motion_pilot_GIST_update_2,2026.1.1,Win32,60.97560976,5c6e60b04e08ad00018cc995,69b95efdef24cd8a694e89ee,69b9600af4af0329dfdbdb40,0.0283,0.0283,1,24,186,83,1,sixeight,,,,,,,,,,,,,,,,,,,,,,,,,,,,,,,,,,,,,,,,,,,,,,,,,,,,,,,,,,,,,,,,,,,,,,,,,,,,,,,,,,,,,,,,,,,,,,,,,,,,,,,,,,,,,,,,,,,,,,,,,,,,,,,,,,,,,,,,,
,,5c6e60b04e08ad00018cc995,2026-03-17_14h07.31.649,kallum_motion_pilot_GIST_update_2,2026.1.1,Win32,60.97560976,5c6e60b04e08ad00018cc995,69b95efdef24cd8a694e89ee,69b9600af4af0329dfdbdb40,0.0291,0.0291,1,25,187,108,1,sevenfive,,,,,,,,,,,,,,,,,,,,,,,,,,,,,,,,,,,,,,,,,,,,,,,,,,,,,,,,,,,,,,,,,,,,,,,,,,,,,,,,,,,,,,,,,,,,,,,,,,,,,,,,,,,,,,,,,,,,,,,,,,,,,,,,,,,,,,,,,
,,5c6e60b04e08ad00018cc995,2026-03-17_14h07.31.649,kallum_motion_pilot_GIST_update_2,2026.1.1,Win32,60.97560976,5c6e60b04e08ad00018cc995,69b95efdef24cd8a694e89ee,69b9600af4af0329dfdbdb40,0.0291,0.0291,1,26,188,22,1,fourtwo,,,,,,,,,,,,,,,,,,,,,,,,,,,,,,,,,,,,,,,,,,,,,,,,,,,,,,,,,,,,,,,,,,,,,,,,,,,,,,,,,,,,,,,,,,,,,,,,,,,,,,,,,,,,,,,,,,,,,,,,,,,,,,,,,,,,,,,,,
,,5c6e60b04e08ad00018cc995,2026-03-17_14h07.31.649,kallum_motion_pilot_GIST_update_2,2026.1.1,Win32,60.97560976,5c6e60b04e08ad00018cc995,69b95efdef24cd8a694e89ee,69b9600af4af0329dfdbdb40,0.0292,0.0292,1,27,189,124,1,sevenfive,,,,,,,,,,,,,,,,,,,,,,,,,,,,,,,,,,,,,,,,,,,,,,,,,,,,,,,,,,,,,,,,,,,,,,,,,,,,,,,,,,,,,,,,,,,,,,,,,,,,,,,,,,,,,,,,,,,,,,,,,,,,,,,,,,,,,,,,,
,,5c6e60b04e08ad00018cc995,2026-03-17_14h07.31.649,kallum_motion_pilot_GIST_update_2,2026.1.1,Win32,60.97560976,5c6e60b04e08ad00018cc995,69b95efdef24cd8a694e89ee,69b9600af4af0329dfdbdb40,0.0294,0.0294,1,28,190,58,1,twoone,,,,,,,,,,,,,,,,,,,,,,,,,,,,,,,,,,,,,,,,,,,,,,,,,,,,,,,,,,,,,,,,,,,,,,,,,,,,,,,,,,,,,,,,,,,,,,,,,,,,,,,,,,,,,,,,,,,,,,,,,,,,,,,,,,,,,,,,,
,,5c6e60b04e08ad00018cc995,2026-03-17_14h07.31.649,kallum_motion_pilot_GIST_update_2,2026.1.1,Win32,60.97560976,5c6e60b04e08ad00018cc995,69b95efdef24cd8a694e89ee,69b9600af4af0329dfdbdb40,0.0294,0.0294,1,29,191,65,1,onethree,,,,,,,,,,,,,,,,,,,,,,,,,,,,,,,,,,,,,,,,,,,,,,,,,,,,,,,,,,,,,,,,,,,,,,,,,,,,,,,,,,,,,,,,,,,,,,,,,,,,,,,,,,,,,,,,,,,,,,,,,,,,,,,,,,,,,,,,,
,,5c6e60b04e08ad00018cc995,2026-03-17_14h07.31.649,kallum_motion_pilot_GIST_update_2,2026.1.1,Win32,60.97560976,5c6e60b04e08ad00018cc995,69b95efdef24cd8a694e89ee,69b9600af4af0329dfdbdb40,0.0295,0.0295,1,30,192,87,1,eightseven,,,,,,,,,,,,,,,,,,,,,,,,,,,,,,,,,,,,,,,,,,,,,,,,,,,,,,,,,,,,,,,,,,,,,,,,,,,,,,,,,,,,,,,,,,,,,,,,,,,,,,,,,,,,,,,,,,,,,,,,,,,,,,,,,,,,,,,,,
,,5c6e60b04e08ad00018cc995,2026-03-17_14h07.31.649,kallum_motion_pilot_GIST_update_2,2026.1.1,Win32,60.97560976,5c6e60b04e08ad00018cc995,69b95efdef24cd8a694e89ee,69b9600af4af0329dfdbdb40,0.0296,0.0296,1,31,193,134,1,eightsix,,,,,,,,,,,,,,,,,,,,,,,,,,,,,,,,,,,,,,,,,,,,,,,,,,,,,,,,,,,,,,,,,,,,,,,,,,,,,,,,,,,,,,,,,,,,,,,,,,,,,,,,,,,,,,,,,,,,,,,,,,,,,,,,,,,,,,,,,
,,5c6e60b04e08ad00018cc995,2026-03-17_14h07.31.649,kallum_motion_pilot_GIST_update_2,2026.1.1,Win32,60.97560976,5c6e60b04e08ad00018cc995,69b95efdef24cd8a694e89ee,69b9600af4af0329dfdbdb40,0.0296,0.0296,1,32,194,70,1,fourtwo,,,,,,,,,,,,,,,,,,,,,,,,,,,,,,,,,,,,,,,,,,,,,,,,,,,,,,,,,,,,,,,,,,,,,,,,,,,,,,,,,,,,,,,,,,,,,,,,,,,,,,,,,,,,,,,,,,,,,,,,,,,,,,,,,,,,,,,,,
,,5c6e60b04e08ad00018cc995,2026-03-17_14h07.31.649,kallum_motion_pilot_GIST_update_2,2026.1.1,Win32,60.97560976,5c6e60b04e08ad00018cc995,69b95efdef24cd8a694e89ee,69b9600af4af0329dfdbdb40,0.0297,0.0297,1,33,195,34,1,twoone,,,,,,,,,,,,,,,,,,,,,,,,,,,,,,,,,,,,,,,,,,,,,,,,,,,,,,,,,,,,,,,,,,,,,,,,,,,,,,,,,,,,,,,,,,,,,,,,,,,,,,,,,,,,,,,,,,,,,,,,,,,,,,,,,,,,,,,,,
,,5c6e60b04e08ad00018cc995,2026-03-17_14h07.31.649,kallum_motion_pilot_GIST_update_2,2026.1.1,Win32,60.97560976,5c6e60b04e08ad00018cc995,69b95efdef24cd8a694e89ee,69b9600af4af0329dfdbdb40,0.0297,0.0297,1,34,196,57,1,onethree,,,,,,,,,,,,,,,,,,,,,,,,,,,,,,,,,,,,,,,,,,,,,,,,,,,,,,,,,,,,,,,,,,,,,,,,,,,,,,,,,,,,,,,,,,,,,,,,,,,,,,,,,,,,,,,,,,,,,,,,,,,,,,,,,,,,,,,,,
,,5c6e60b04e08ad00018cc995,2026-03-17_14h07.31.649,kallum_motion_pilot_GIST_update_2,2026.1.1,Win32,60.97560976,5c6e60b04e08ad00018cc995,69b95efdef24cd8a694e89ee,69b9600af4af0329dfdbdb40,0.0298,0.0298,1,35,197,100,1,sevenfive,,,,,,,,,,,,,,,,,,,,,,,,,,,,,,,,,,,,,,,,,,,,,,,,,,,,,,,,,,,,,,,,,,,,,,,,,,,,,,,,,,,,,,,,,,,,,,,,,,,,,,,,,,,,,,,,,,,,,,,,,,,,,,,,,,,,,,,,,
,,5c6e60b04e08ad00018cc995,2026-03-17_14h07.31.649,kallum_motion_pilot_GIST_update_2,2026.1.1,Win32,60.97560976,5c6e60b04e08ad00018cc995,69b95efdef24cd8a694e89ee,69b9600af4af0329dfdbdb40,0.0299,0.0299,1,36,198,123,1,sixeight,,,,,,,,,,,,,,,,,,,,,,,,,,,,,,,,,,,,,,,,,,,,,,,,,,,,,,,,,,,,,,,,,,,,,,,,,,,,,,,,,,,,,,,,,,,,,,,,,,,,,,,,,,,,,,,,,,,,,,,,,,,,,,,,,,,,,,,,,
,,5c6e60b04e08ad00018cc995,2026-03-17_14h07.31.649,kallum_motion_pilot_GIST_update_2,2026.1.1,Win32,60.97560976,5c6e60b04e08ad00018cc995,69b95efdef24cd8a694e89ee,69b9600af4af0329dfdbdb40,0.0299,0.0299,1,37,199,0,1,onetwo,,,,,,,,,,,,,,,,,,,,,,,,,,,,,,,,,,,,,,,,,,,,,,,,,,,,,,,,,,,,,,,,,,,,,,,,,,,,,,,,,,,,,,,,,,,,,,,,,,,,,,,,,,,,,,,,,,,,,,,,,,,,,,,,,,,,,,,,,
,,5c6e60b04e08ad00018cc995,2026-03-17_14h07.31.649,kallum_motion_pilot_GIST_update_2,2026.1.1,Win32,60.97560976,5c6e60b04e08ad00018cc995,69b95efdef24cd8a694e89ee,69b9600af4af0329dfdbdb40,0.0301,0.0301,1,38,200,27,1,twofour,,,,,,,,,,,,,,,,,,,,,,,,,,,,,,,,,,,,,,,,,,,,,,,,,,,,,,,,,,,,,,,,,,,,,,,,,,,,,,,,,,,,,,,,,,,,,,,,,,,,,,,,,,,,,,,,,,,,,,,,,,,,,,,,,,,,,,,,,
,,5c6e60b04e08ad00018cc995,2026-03-17_14h07.31.649,kallum_motion_pilot_GIST_update_2,2026.1.1,Win32,60.97560976,5c6e60b04e08ad00018cc995,69b95efdef24cd8a694e89ee,69b9600af4af0329dfdbdb40,0.0301,0.0301,1,39,201,7,1,fourthree,,,,,,,,,,,,,,,,,,,,,,,,,,,,,,,,,,,,,,,,,,,,,,,,,,,,,,,,,,,,,,,,,,,,,,,,,,,,,,,,,,,,,,,,,,,,,,,,,,,,,,,,,,,,,,,,,,,,,,,,,,,,,,,,,,,,,,,,,
,,5c6e60b04e08ad00018cc995,2026-03-17_14h07.31.649,kallum_motion_pilot_GIST_update_2,2026.1.1,Win32,60.97560976,5c6e60b04e08ad00018cc995,69b95efdef24cd8a694e89ee,69b9600af4af0329dfdbdb40,0.0302,0.0302,1,40,202,160,1,fivesix,,,,,,,,,,,,,,,,,,,,,,,,,,,,,,,,,,,,,,,,,,,,,,,,,,,,,,,,,,,,,,,,,,,,,,,,,,,,,,,,,,,,,,,,,,,,,,,,,,,,,,,,,,,,,,,,,,,,,,,,,,,,,,,,,,,,,,,,,
,,5c6e60b04e08ad00018cc995,2026-03-17_14h07.31.649,kallum_motion_pilot_GIST_update_2,2026.1.1,Win32,60.97560976,5c6e60b04e08ad00018cc995,69b95efdef24cd8a694e89ee,69b9600af4af0329dfdbdb40,0.0303,0.0303,1,41,203,26,1,twoone,,,,,,,,,,,,,,,,,,,,,,,,,,,,,,,,,,,,,,,,,,,,,,,,,,,,,,,,,,,,,,,,,,,,,,,,,,,,,,,,,,,,,,,,,,,,,,,,,,,,,,,,,,,,,,,,,,,,,,,,,,,,,,,,,,,,,,,,,
,,5c6e60b04e08ad00018cc995,2026-03-17_14h07.31.649,kallum_motion_pilot_GIST_update_2,2026.1.1,Win32,60.97560976,5c6e60b04e08ad00018cc995,69b95efdef24cd8a694e89ee,69b9600af4af0329dfdbdb40,0.0303,0.0303,1,42,204,38,1,fourtwo,,,,,,,,,,,,,,,,,,,,,,,,,,,,,,,,,,,,,,,,,,,,,,,,,,,,,,,,,,,,,,,,,,,,,,,,,,,,,,,,,,,,,,,,,,,,,,,,,,,,,,,,,,,,,,,,,,,,,,,,,,,,,,,,,,,,,,,,,
,,5c6e60b04e08ad00018cc995,2026-03-17_14h07.31.649,kallum_motion_pilot_GIST_update_2,2026.1.1,Win32,60.97560976,5c6e60b04e08ad00018cc995,69b95efdef24cd8a694e89ee,69b9600af4af0329dfdbdb40,0.0303,0.0303,1,43,205,21,1,threefour,,,,,,,,,,,,,,,,,,,,,,,,,,,,,,,,,,,,,,,,,,,,,,,,,,,,,,,,,,,,,,,,,,,,,,,,,,,,,,,,,,,,,,,,,,,,,,,,,,,,,,,,,,,,,,,,,,,,,,,,,,,,,,,,,,,,,,,,,
,,5c6e60b04e08ad00018cc995,2026-03-17_14h07.31.649,kallum_motion_pilot_GIST_update_2,2026.1.1,Win32,60.97560976,5c6e60b04e08ad00018cc995,69b95efdef24cd8a694e89ee,69b9600af4af0329dfdbdb40,0.0304,0.0304,1,44,206,32,1,onetwo,,,,,,,,,,,,,,,,,,,,,,,,,,,,,,,,,,,,,,,,,,,,,,,,,,,,,,,,,,,,,,,,,,,,,,,,,,,,,,,,,,,,,,,,,,,,,,,,,,,,,,,,,,,,,,,,,,,,,,,,,,,,,,,,,,,,,,,,,
,,5c6e60b04e08ad00018cc995,2026-03-17_14h07.31.649,kallum_motion_pilot_GIST_update_2,2026.1.1,Win32,60.97560976,5c6e60b04e08ad00018cc995,69b95efdef24cd8a694e89ee,69b9600af4af0329dfdbdb40,0.0305,0.0305,1,45,207,44,1,threeone,,,,,,,,,,,,,,,,,,,,,,,,,,,,,,,,,,,,,,,,,,,,,,,,,,,,,,,,,,,,,,,,,,,,,,,,,,,,,,,,,,,,,,,,,,,,,,,,,,,,,,,,,,,,,,,,,,,,,,,,,,,,,,,,,,,,,,,,,
,,5c6e60b04e08ad00018cc995,2026-03-17_14h07.31.649,kallum_motion_pilot_GIST_update_2,2026.1.1,Win32,60.97560976,5c6e60b04e08ad00018cc995,69b95efdef24cd8a694e89ee,69b9600af4af0329dfdbdb40,0.0306,0.0306,1,46,208,88,1,fivesix,,,,,,,,,,,,,,,,,,,,,,,,,,,,,,,,,,,,,,,,,,,,,,,,,,,,,,,,,,,,,,,,,,,,,,,,,,,,,,,,,,,,,,,,,,,,,,,,,,,,,,,,,,,,,,,,,,,,,,,,,,,,,,,,,,,,,,,,,
,,5c6e60b04e08ad00018cc995,2026-03-17_14h07.31.649,kallum_motion_pilot_GIST_update_2,2026.1.1,Win32,60.97560976,5c6e60b04e08ad00018cc995,69b95efdef24cd8a694e89ee,69b9600af4af0329dfdbdb40,0.0306,0.0306,1,47,209,25,1,onethree,,,,,,,,,,,,,,,,,,,,,,,,,,,,,,,,,,,,,,,,,,,,,,,,,,,,,,,,,,,,,,,,,,,,,,,,,,,,,,,,,,,,,,,,,,,,,,,,,,,,,,,,,,,,,,,,,,,,,,,,,,,,,,,,,,,,,,,,,
,,5c6e60b04e08ad00018cc995,2026-03-17_14h07.31.649,kallum_motion_pilot_GIST_update_2,2026.1.1,Win32,60.97560976,5c6e60b04e08ad00018cc995,69b95efdef24cd8a694e89ee,69b9600af4af0329dfdbdb40,0.0306,0.0306,1,48,210,155,1,sixeight,,,,,,,,,,,,,,,,,,,,,,,,,,,,,,,,,,,,,,,,,,,,,,,,,,,,,,,,,,,,,,,,,,,,,,,,,,,,,,,,,,,,,,,,,,,,,,,,,,,,,,,,,,,,,,,,,,,,,,,,,,,,,,,,,,,,,,,,,
,,5c6e60b04e08ad00018cc995,2026-03-17_14h07.31.649,kallum_motion_pilot_GIST_update_2,2026.1.1,Win32,60.97560976,5c6e60b04e08ad00018cc995,69b95efdef24cd8a694e89ee,69b9600af4af0329dfdbdb40,0.0308,0.0308,1,49,211,60,1,threeone,,,,,,,,,,,,,,,,,,,,,,,,,,,,,,,,,,,,,,,,,,,,,,,,,,,,,,,,,,,,,,,,,,,,,,,,,,,,,,,,,,,,,,,,,,,,,,,,,,,,,,,,,,,,,,,,,,,,,,,,,,,,,,,,,,,,,,,,,
,,5c6e60b04e08ad00018cc995,2026-03-17_14h07.31.649,kallum_motion_pilot_GIST_update_2,2026.1.1,Win32,60.97560976,5c6e60b04e08ad00018cc995,69b95efdef24cd8a694e89ee,69b9600af4af0329dfdbdb40,0.0308,0.0308,1,50,212,122,1,sixfive,,,,,,,,,,,,,,,,,,,,,,,,,,,,,,,,,,,,,,,,,,,,,,,,,,,,,,,,,,,,,,,,,,,,,,,,,,,,,,,,,,,,,,,,,,,,,,,,,,,,,,,,,,,,,,,,,,,,,,,,,,,,,,,,,,,,,,,,,
,,5c6e60b04e08ad00018cc995,2026-03-17_14h07.31.649,kallum_motion_pilot_GIST_update_2,2026.1.1,Win32,60.97560976,5c6e60b04e08ad00018cc995,69b95efdef24cd8a694e89ee,69b9600af4af0329dfdbdb40,0.0309,0.0309,1,51,213,91,1,sixeight,,,,,,,,,,,,,,,,,,,,,,,,,,,,,,,,,,,,,,,,,,,,,,,,,,,,,,,,,,,,,,,,,,,,,,,,,,,,,,,,,,,,,,,,,,,,,,,,,,,,,,,,,,,,,,,,,,,,,,,,,,,,,,,,,,,,,,,,,
,,5c6e60b04e08ad00018cc995,2026-03-17_14h07.31.649,kallum_motion_pilot_GIST_update_2,2026.1.1,Win32,60.97560976,5c6e60b04e08ad00018cc995,69b95efdef24cd8a694e89ee,69b9600af4af0329dfdbdb40,0.0309,0.0309,1,52,214,101,1,seveneight,,,,,,,,,,,,,,,,,,,,,,,,,,,,,,,,,,,,,,,,,,,,,,,,,,,,,,,,,,,,,,,,,,,,,,,,,,,,,,,,,,,,,,,,,,,,,,,,,,,,,,,,,,,,,,,,,,,,,,,,,,,,,,,,,,,,,,,,,
,,5c6e60b04e08ad00018cc995,2026-03-17_14h07.31.649,kallum_motion_pilot_GIST_update_2,2026.1.1,Win32,60.97560976,5c6e60b04e08ad00018cc995,69b95efdef24cd8a694e89ee,69b9600af4af0329dfdbdb40,0.0311,0.0311,1,53,215,37,1,threefour,,,,,,,,,,,,,,,,,,,,,,,,,,,,,,,,,,,,,,,,,,,,,,,,,,,,,,,,,,,,,,,,,,,,,,,,,,,,,,,,,,,,,,,,,,,,,,,,,,,,,,,,,,,,,,,,,,,,,,,,,,,,,,,,,,,,,,,,,
,,5c6e60b04e08ad00018cc995,2026-03-17_14h07.31.649,kallum_motion_pilot_GIST_update_2,2026.1.1,Win32,60.97560976,5c6e60b04e08ad00018cc995,69b95efdef24cd8a694e89ee,69b9600af4af0329dfdbdb40,0.0311,0.0311,1,54,216,161,1,fiveseven,,,,,,,,,,,,,,,,,,,,,,,,,,,,,,,,,,,,,,,,,,,,,,,,,,,,,,,,,,,,,,,,,,,,,,,,,,,,,,,,,,,,,,,,,,,,,,,,,,,,,,,,,,,,,,,,,,,,,,,,,,,,,,,,,,,,,,,,,
,,5c6e60b04e08ad00018cc995,2026-03-17_14h07.31.649,kallum_motion_pilot_GIST_update_2,2026.1.1,Win32,60.97560976,5c6e60b04e08ad00018cc995,69b95efdef24cd8a694e89ee,69b9600af4af0329dfdbdb40,0.0311,0.0311,1,55,217,85,1,seveneight,,,,,,,,,,,,,,,,,,,,,,,,,,,,,,,,,,,,,,,,,,,,,,,,,,,,,,,,,,,,,,,,,,,,,,,,,,,,,,,,,,,,,,,,,,,,,,,,,,,,,,,,,,,,,,,,,,,,,,,,,,,,,,,,,,,,,,,,,
,,5c6e60b04e08ad00018cc995,2026-03-17_14h07.31.649,kallum_motion_pilot_GIST_update_2,2026.1.1,Win32,60.97560976,5c6e60b04e08ad00018cc995,69b95efdef24cd8a694e89ee,69b9600af4af0329dfdbdb40,0.0312,0.0312,1,56,218,142,1,eightsix,,,,,,,,,,,,,,,,,,,,,,,,,,,,,,,,,,,,,,,,,,,,,,,,,,,,,,,,,,,,,,,,,,,,,,,,,,,,,,,,,,,,,,,,,,,,,,,,,,,,,,,,,,,,,,,,,,,,,,,,,,,,,,,,,,,,,,,,,
,,5c6e60b04e08ad00018cc995,2026-03-17_14h07.31.649,kallum_motion_pilot_GIST_update_2,2026.1.1,Win32,60.97560976,5c6e60b04e08ad00018cc995,69b95efdef24cd8a694e89ee,69b9600af4af0329dfdbdb40,0.0313,0.0313,1,57,219,102,1,eightsix,,,,,,,,,,,,,,,,,,,,,,,,,,,,,,,,,,,,,,,,,,,,,,,,,,,,,,,,,,,,,,,,,,,,,,,,,,,,,,,,,,,,,,,,,,,,,,,,,,,,,,,,,,,,,,,,,,,,,,,,,,,,,,,,,,,,,,,,,
,,5c6e60b04e08ad00018cc995,2026-03-17_14h07.31.649,kallum_motion_pilot_GIST_update_2,2026.1.1,Win32,60.97560976,5c6e60b04e08ad00018cc995,69b95efdef24cd8a694e89ee,69b9600af4af0329dfdbdb40,0.0313,0.0313,1,58,220,69,1,threefour,,,,,,,,,,,,,,,,,,,,,,,,,,,,,,,,,,,,,,,,,,,,,,,,,,,,,,,,,,,,,,,,,,,,,,,,,,,,,,,,,,,,,,,,,,,,,,,,,,,,,,,,,,,,,,,,,,,,,,,,,,,,,,,,,,,,,,,,,
,,5c6e60b04e08ad00018cc995,2026-03-17_14h07.31.649,kallum_motion_pilot_GIST_update_2,2026.1.1,Win32,60.97560976,5c6e60b04e08ad00018cc995,69b95efdef24cd8a694e89ee,69b9600af4af0329dfdbdb40,0.0315,0.0315,1,59,221,126,1,eightsix,,,,,,,,,,,,,,,,,,,,,,,,,,,,,,,,,,,,,,,,,,,,,,,,,,,,,,,,,,,,,,,,,,,,,,,,,,,,,,,,,,,,,,,,,,,,,,,,,,,,,,,,,,,,,,,,,,,,,,,,,,,,,,,,,,,,,,,,,
,,5c6e60b04e08ad00018cc995,2026-03-17_14h07.31.649,kallum_motion_pilot_GIST_update_2,2026.1.1,Win32,60.97560976,5c6e60b04e08ad00018cc995,69b95efdef24cd8a694e89ee,69b9600af4af0329dfdbdb40,0.0315,0.0315,1,60,222,114,1,sixfive,,,,,,,,,,,,,,,,,,,,,,,,,,,,,,,,,,,,,,,,,,,,,,,,,,,,,,,,,,,,,,,,,,,,,,,,,,,,,,,,,,,,,,,,,,,,,,,,,,,,,,,,,,,,,,,,,,,,,,,,,,,,,,,,,,,,,,,,,
,,5c6e60b04e08ad00018cc995,2026-03-17_14h07.31.649,kallum_motion_pilot_GIST_update_2,2026.1.1,Win32,60.97560976,5c6e60b04e08ad00018cc995,69b95efdef24cd8a694e89ee,69b9600af4af0329dfdbdb40,0.0315,0.0315,1,61,223,78,1,fourtwo,,,,,,,,,,,,,,,,,,,,,,,,,,,,,,,,,,,,,,,,,,,,,,,,,,,,,,,,,,,,,,,,,,,,,,,,,,,,,,,,,,,,,,,,,,,,,,,,,,,,,,,,,,,,,,,,,,,,,,,,,,,,,,,,,,,,,,,,,
,,5c6e60b04e08ad00018cc995,2026-03-17_14h07.31.649,kallum_motion_pilot_GIST_update_2,2026.1.1,Win32,60.97560976,5c6e60b04e08ad00018cc995,69b95efdef24cd8a694e89ee,69b9600af4af0329dfdbdb40,0.0317,0.0317,1,62,224,67,1,twofour,,,,,,,,,,,,,,,,,,,,,,,,,,,,,,,,,,,,,,,,,,,,,,,,,,,,,,,,,,,,,,,,,,,,,,,,,,,,,,,,,,,,,,,,,,,,,,,,,,,,,,,,,,,,,,,,,,,,,,,,,,,,,,,,,,,,,,,,,
,,5c6e60b04e08ad00018cc995,2026-03-17_14h07.31.649,kallum_motion_pilot_GIST_update_2,2026.1.1,Win32,60.97560976,5c6e60b04e08ad00018cc995,69b95efdef24cd8a694e89ee,69b9600af4af0329dfdbdb40,0.0317,0.0317,1,63,225,104,1,fivesix,,,,,,,,,,,,,,,,,,,,,,,,,,,,,,,,,,,,,,,,,,,,,,,,,,,,,,,,,,,,,,,,,,,,,,,,,,,,,,,,,,,,,,,,,,,,,,,,,,,,,,,,,,,,,,,,,,,,,,,,,,,,,,,,,,,,,,,,,
,,5c6e60b04e08ad00018cc995,2026-03-17_14h07.31.649,kallum_motion_pilot_GIST_update_2,2026.1.1,Win32,60.97560976,5c6e60b04e08ad00018cc995,69b95efdef24cd8a694e89ee,69b9600af4af0329dfdbdb40,0.0317,0.0318,1,64,226,47,1,fourthree,,,,,,,,,,,,,,,,,,,,,,,,,,,,,,,,,,,,,,,,,,,,,,,,,,,,,,,,,,,,,,,,,,,,,,,,,,,,,,,,,,,,,,,,,,,,,,,,,,,,,,,,,,,,,,,,,,,,,,,,,,,,,,,,,,,,,,,,,
,,5c6e60b04e08ad00018cc995,2026-03-17_14h07.31.649,kallum_motion_pilot_GIST_update_2,2026.1.1,Win32,60.97560976,5c6e60b04e08ad00018cc995,69b95efdef24cd8a694e89ee,69b9600af4af0329dfdbdb40,0.0318,0.0318,1,65,227,80,1,fivesix,,,,,,,,,,,,,,,,,,,,,,,,,,,,,,,,,,,,,,,,,,,,,,,,,,,,,,,,,,,,,,,,,,,,,,,,,,,,,,,,,,,,,,,,,,,,,,,,,,,,,,,,,,,,,,,,,,,,,,,,,,,,,,,,,,,,,,,,,
,,5c6e60b04e08ad00018cc995,2026-03-17_14h07.31.649,kallum_motion_pilot_GIST_update_2,2026.1.1,Win32,60.97560976,5c6e60b04e08ad00018cc995,69b95efdef24cd8a694e89ee,69b9600af4af0329dfdbdb40,0.0318,0.0318,1,66,228,75,1,twofour,,,,,,,,,,,,,,,,,,,,,,,,,,,,,,,,,,,,,,,,,,,,,,,,,,,,,,,,,,,,,,,,,,,,,,,,,,,,,,,,,,,,,,,,,,,,,,,,,,,,,,,,,,,,,,,,,,,,,,,,,,,,,,,,,,,,,,,,,
,,5c6e60b04e08ad00018cc995,2026-03-17_14h07.31.649,kallum_motion_pilot_GIST_update_2,2026.1.1,Win32,60.97560976,5c6e60b04e08ad00018cc995,69b95efdef24cd8a694e89ee,69b9600af4af0329dfdbdb40,0.0319,0.0319,1,67,229,97,1,fiveseven,,,,,,,,,,,,,,,,,,,,,,,,,,,,,,,,,,,,,,,,,,,,,,,,,,,,,,,,,,,,,,,,,,,,,,,,,,,,,,,,,,,,,,,,,,,,,,,,,,,,,,,,,,,,,,,,,,,,,,,,,,,,,,,,,,,,,,,,,
,,5c6e60b04e08ad00018cc995,2026-03-17_14h07.31.649,kallum_motion_pilot_GIST_update_2,2026.1.1,Win32,60.97560976,5c6e60b04e08ad00018cc995,69b95efdef24cd8a694e89ee,69b9600af4af0329dfdbdb40,0.032,0.032,1,68,230,28,1,threeone,,,,,,,,,,,,,,,,,,,,,,,,,,,,,,,,,,,,,,,,,,,,,,,,,,,,,,,,,,,,,,,,,,,,,,,,,,,,,,,,,,,,,,,,,,,,,,,,,,,,,,,,,,,,,,,,,,,,,,,,,,,,,,,,,,,,,,,,,
,,5c6e60b04e08ad00018cc995,2026-03-17_14h07.31.649,kallum_motion_pilot_GIST_update_2,2026.1.1,Win32,60.97560976,5c6e60b04e08ad00018cc995,69b95efdef24cd8a694e89ee,69b9600af4af0329dfdbdb40,0.0321,0.0321,1,69,231,20,1,threeone,,,,,,,,,,,,,,,,,,,,,,,,,,,,,,,,,,,,,,,,,,,,,,,,,,,,,,,,,,,,,,,,,,,,,,,,,,,,,,,,,,,,,,,,,,,,,,,,,,,,,,,,,,,,,,,,,,,,,,,,,,,,,,,,,,,,,,,,,
,,5c6e60b04e08ad00018cc995,2026-03-17_14h07.31.649,kallum_motion_pilot_GIST_update_2,2026.1.1,Win32,60.97560976,5c6e60b04e08ad00018cc995,69b95efdef24cd8a694e89ee,69b9600af4af0329dfdbdb40,0.0322,0.0322,1,70,232,10,1,twoone,,,,,,,,,,,,,,,,,,,,,,,,,,,,,,,,,,,,,,,,,,,,,,,,,,,,,,,,,,,,,,,,,,,,,,,,,,,,,,,,,,,,,,,,,,,,,,,,,,,,,,,,,,,,,,,,,,,,,,,,,,,,,,,,,,,,,,,,,
,,5c6e60b04e08ad00018cc995,2026-03-17_14h07.31.649,kallum_motion_pilot_GIST_update_2,2026.1.1,Win32,60.97560976,5c6e60b04e08ad00018cc995,69b95efdef24cd8a694e89ee,69b9600af4af0329dfdbdb40,0.0322,0.0322,1,71,233,13,1,threefour,,,,,,,,,,,,,,,,,,,,,,,,,,,,,,,,,,,,,,,,,,,,,,,,,,,,,,,,,,,,,,,,,,,,,,,,,,,,,,,,,,,,,,,,,,,,,,,,,,,,,,,,,,,,,,,,,,,,,,,,,,,,,,,,,,,,,,,,,
,,5c6e60b04e08ad00018cc995,2026-03-17_14h07.31.649,kallum_motion_pilot_GIST_update_2,2026.1.1,Win32,60.97560976,5c6e60b04e08ad00018cc995,69b95efdef24cd8a694e89ee,69b9600af4af0329dfdbdb40,0.0323,0.0323,1,72,234,111,1,eightseven,,,,,,,,,,,,,,,,,,,,,,,,,,,,,,,,,,,,,,,,,,,,,,,,,,,,,,,,,,,,,,,,,,,,,,,,,,,,,,,,,,,,,,,,,,,,,,,,,,,,,,,,,,,,,,,,,,,,,,,,,,,,,,,,,,,,,,,,,
,,5c6e60b04e08ad00018cc995,2026-03-17_14h07.31.649,kallum_motion_pilot_GIST_update_2,2026.1.1,Win32,60.97560976,5c6e60b04e08ad00018cc995,69b95efdef24cd8a694e89ee,69b9600af4af0329dfdbdb40,0.0323,0.0323,1,73,235,145,1,fiveseven,,,,,,,,,,,,,,,,,,,,,,,,,,,,,,,,,,,,,,,,,,,,,,,,,,,,,,,,,,,,,,,,,,,,,,,,,,,,,,,,,,,,,,,,,,,,,,,,,,,,,,,,,,,,,,,,,,,,,,,,,,,,,,,,,,,,,,,,,
,,5c6e60b04e08ad00018cc995,2026-03-17_14h07.31.649,kallum_motion_pilot_GIST_update_2,2026.1.1,Win32,60.97560976,5c6e60b04e08ad00018cc995,69b95efdef24cd8a694e89ee,69b9600af4af0329dfdbdb40,0.0324,0.0324,1,74,236,135,1,eightseven,,,,,,,,,,,,,,,,,,,,,,,,,,,,,,,,,,,,,,,,,,,,,,,,,,,,,,,,,,,,,,,,,,,,,,,,,,,,,,,,,,,,,,,,,,,,,,,,,,,,,,,,,,,,,,,,,,,,,,,,,,,,,,,,,,,,,,,,,
,,5c6e60b04e08ad00018cc995,2026-03-17_14h07.31.649,kallum_motion_pilot_GIST_update_2,2026.1.1,Win32,60.97560976,5c6e60b04e08ad00018cc995,69b95efdef24cd8a694e89ee,69b9600af4af0329dfdbdb40,0.0325,0.0325,1,75,237,19,1,twofour,,,,,,,,,,,,,,,,,,,,,,,,,,,,,,,,,,,,,,,,,,,,,,,,,,,,,,,,,,,,,,,,,,,,,,,,,,,,,,,,,,,,,,,,,,,,,,,,,,,,,,,,,,,,,,,,,,,,,,,,,,,,,,,,,,,,,,,,,
,,5c6e60b04e08ad00018cc995,2026-03-17_14h07.31.649,kallum_motion_pilot_GIST_update_2,2026.1.1,Win32,60.97560976,5c6e60b04e08ad00018cc995,69b95efdef24cd8a694e89ee,69b9600af4af0329dfdbdb40,0.0326,0.0326,1,76,238,29,1,threefour,,,,,,,,,,,,,,,,,,,,,,,,,,,,,,,,,,,,,,,,,,,,,,,,,,,,,,,,,,,,,,,,,,,,,,,,,,,,,,,,,,,,,,,,,,,,,,,,,,,,,,,,,,,,,,,,,,,,,,,,,,,,,,,,,,,,,,,,,
,,5c6e60b04e08ad00018cc995,2026-03-17_14h07.31.649,kallum_motion_pilot_GIST_update_2,2026.1.1,Win32,60.97560976,5c6e60b04e08ad00018cc995,69b95efdef24cd8a694e89ee,69b9600af4af0329dfdbdb40,0.0327,0.0327,1,77,239,15,1,fourthree,,,,,,,,,,,,,,,,,,,,,,,,,,,,,,,,,,,,,,,,,,,,,,,,,,,,,,,,,,,,,,,,,,,,,,,,,,,,,,,,,,,,,,,,,,,,,,,,,,,,,,,,,,,,,,,,,,,,,,,,,,,,,,,,,,,,,,,,,
,,5c6e60b04e08ad00018cc995,2026-03-17_14h07.31.649,kallum_motion_pilot_GIST_update_2,2026.1.1,Win32,60.97560976,5c6e60b04e08ad00018cc995,69b95efdef24cd8a694e89ee,69b9600af4af0329dfdbdb40,0.0327,0.0327,1,78,240,149,1,seveneight,,,,,,,,,,,,,,,,,,,,,,,,,,,,,,,,,,,,,,,,,,,,,,,,,,,,,,,,,,,,,,,,,,,,,,,,,,,,,,,,,,,,,,,,,,,,,,,,,,,,,,,,,,,,,,,,,,,,,,,,,,,,,,,,,,,,,,,,,
,,5c6e60b04e08ad00018cc995,2026-03-17_14h07.31.649,kallum_motion_pilot_GIST_update_2,2026.1.1,Win32,60.97560976,5c6e60b04e08ad00018cc995,69b95efdef24cd8a694e89ee,69b9600af4af0329dfdbdb40,0.0328,0.0328,1,79,241,56,1,onetwo,,,,,,,,,,,,,,,,,,,,,,,,,,,,,,,,,,,,,,,,,,,,,,,,,,,,,,,,,,,,,,,,,,,,,,,,,,,,,,,,,,,,,,,,,,,,,,,,,,,,,,,,,,,,,,,,,,,,,,,,,,,,,,,,,,,,,,,,,
,,5c6e60b04e08ad00018cc995,2026-03-17_14h07.31.649,kallum_motion_pilot_GIST_update_2,2026.1.1,Win32,60.97560976,5c6e60b04e08ad00018cc995,69b95efdef24cd8a694e89ee,69b9600af4af0329dfdbdb40,0.0328,0.0328,1,80,242,84,1,sevenfive,,,,,,,,,,,,,,,,,,,,,,,,,,,,,,,,,,,,,,,,,,,,,,,,,,,,,,,,,,,,,,,,,,,,,,,,,,,,,,,,,,,,,,,,,,,,,,,,,,,,,,,,,,,,,,,,,,,,,,,,,,,,,,,,,,,,,,,,,
,,5c6e60b04e08ad00018cc995,2026-03-17_14h07.31.649,kallum_motion_pilot_GIST_update_2,2026.1.1,Win32,60.97560976,5c6e60b04e08ad00018cc995,69b95efdef24cd8a694e89ee,69b9600af4af0329dfdbdb40,0.0329,0.0329,1,81,243,105,1,fiveseven,,,,,,,,,,,,,,,,,,,,,,,,,,,,,,,,,,,,,,,,,,,,,,,,,,,,,,,,,,,,,,,,,,,,,,,,,,,,,,,,,,,,,,,,,,,,,,,,,,,,,,,,,,,,,,,,,,,,,,,,,,,,,,,,,,,,,,,,,
,,5c6e60b04e08ad00018cc995,2026-03-17_14h07.31.649,kallum_motion_pilot_GIST_update_2,2026.1.1,Win32,60.97560976,5c6e60b04e08ad00018cc995,69b95efdef24cd8a694e89ee,69b9600af4af0329dfdbdb40,0.0329,0.0329,1,82,244,68,1,threeone,,,,,,,,,,,,,,,,,,,,,,,,,,,,,,,,,,,,,,,,,,,,,,,,,,,,,,,,,,,,,,,,,,,,,,,,,,,,,,,,,,,,,,,,,,,,,,,,,,,,,,,,,,,,,,,,,,,,,,,,,,,,,,,,,,,,,,,,,
,,5c6e60b04e08ad00018cc995,2026-03-17_14h07.31.649,kallum_motion_pilot_GIST_update_2,2026.1.1,Win32,60.97560976,5c6e60b04e08ad00018cc995,69b95efdef24cd8a694e89ee,69b9600af4af0329dfdbdb40,0.033,0.033,1,83,245,9,1,onethree,,,,,,,,,,,,,,,,,,,,,,,,,,,,,,,,,,,,,,,,,,,,,,,,,,,,,,,,,,,,,,,,,,,,,,,,,,,,,,,,,,,,,,,,,,,,,,,,,,,,,,,,,,,,,,,,,,,,,,,,,,,,,,,,,,,,,,,,,
,,5c6e60b04e08ad00018cc995,2026-03-17_14h07.31.649,kallum_motion_pilot_GIST_update_2,2026.1.1,Win32,60.97560976,5c6e60b04e08ad00018cc995,69b95efdef24cd8a694e89ee,69b9600af4af0329dfdbdb40,0.0331,0.0331,1,84,246,51,1,twofour,,,,,,,,,,,,,,,,,,,,,,,,,,,,,,,,,,,,,,,,,,,,,,,,,,,,,,,,,,,,,,,,,,,,,,,,,,,,,,,,,,,,,,,,,,,,,,,,,,,,,,,,,,,,,,,,,,,,,,,,,,,,,,,,,,,,,,,,,
,,5c6e60b04e08ad00018cc995,2026-03-17_14h07.31.649,kallum_motion_pilot_GIST_update_2,2026.1.1,Win32,60.97560976,5c6e60b04e08ad00018cc995,69b95efdef24cd8a694e89ee,69b9600af4af0329dfdbdb40,0.0332,0.0332,1,85,247,129,1,fiveseven,,,,,,,,,,,,,,,,,,,,,,,,,,,,,,,,,,,,,,,,,,,,,,,,,,,,,,,,,,,,,,,,,,,,,,,,,,,,,,,,,,,,,,,,,,,,,,,,,,,,,,,,,,,,,,,,,,,,,,,,,,,,,,,,,,,,,,,,,
,,5c6e60b04e08ad00018cc995,2026-03-17_14h07.31.649,kallum_motion_pilot_GIST_update_2,2026.1.1,Win32,60.97560976,5c6e60b04e08ad00018cc995,69b95efdef24cd8a694e89ee,69b9600af4af0329dfdbdb40,0.0332,0.0332,1,86,248,94,1,eightsix,,,,,,,,,,,,,,,,,,,,,,,,,,,,,,,,,,,,,,,,,,,,,,,,,,,,,,,,,,,,,,,,,,,,,,,,,,,,,,,,,,,,,,,,,,,,,,,,,,,,,,,,,,,,,,,,,,,,,,,,,,,,,,,,,,,,,,,,,
,,5c6e60b04e08ad00018cc995,2026-03-17_14h07.31.649,kallum_motion_pilot_GIST_update_2,2026.1.1,Win32,60.97560976,5c6e60b04e08ad00018cc995,69b95efdef24cd8a694e89ee,69b9600af4af0329dfdbdb40,0.0333,0.0333,1,87,249,36,1,threeone,,,,,,,,,,,,,,,,,,,,,,,,,,,,,,,,,,,,,,,,,,,,,,,,,,,,,,,,,,,,,,,,,,,,,,,,,,,,,,,,,,,,,,,,,,,,,,,,,,,,,,,,,,,,,,,,,,,,,,,,,,,,,,,,,,,,,,,,,
,,5c6e60b04e08ad00018cc995,2026-03-17_14h07.31.649,kallum_motion_pilot_GIST_update_2,2026.1.1,Win32,60.97560976,5c6e60b04e08ad00018cc995,69b95efdef24cd8a694e89ee,69b9600af4af0329dfdbdb40,0.0334,0.0334,1,88,250,81,1,fiveseven,,,,,,,,,,,,,,,,,,,,,,,,,,,,,,,,,,,,,,,,,,,,,,,,,,,,,,,,,,,,,,,,,,,,,,,,,,,,,,,,,,,,,,,,,,,,,,,,,,,,,,,,,,,,,,,,,,,,,,,,,,,,,,,,,,,,,,,,,
,,5c6e60b04e08ad00018cc995,2026-03-17_14h07.31.649,kallum_motion_pilot_GIST_update_2,2026.1.1,Win32,60.97560976,5c6e60b04e08ad00018cc995,69b95efdef24cd8a694e89ee,69b9600af4af0329dfdbdb40,0.0334,0.0334,1,89,251,120,1,fivesix,,,,,,,,,,,,,,,,,,,,,,,,,,,,,,,,,,,,,,,,,,,,,,,,,,,,,,,,,,,,,,,,,,,,,,,,,,,,,,,,,,,,,,,,,,,,,,,,,,,,,,,,,,,,,,,,,,,,,,,,,,,,,,,,,,,,,,,,,
,,5c6e60b04e08ad00018cc995,2026-03-17_14h07.31.649,kallum_motion_pilot_GIST_update_2,2026.1.1,Win32,60.97560976,5c6e60b04e08ad00018cc995,69b95efdef24cd8a694e89ee,69b9600af4af0329dfdbdb40,0.0335,0.0335,1,90,252,59,1,twofour,,,,,,,,,,,,,,,,,,,,,,,,,,,,,,,,,,,,,,,,,,,,,,,,,,,,,,,,,,,,,,,,,,,,,,,,,,,,,,,,,,,,,,,,,,,,,,,,,,,,,,,,,,,,,,,,,,,,,,,,,,,,,,,,,,,,,,,,,
,,5c6e60b04e08ad00018cc995,2026-03-17_14h07.31.649,kallum_motion_pilot_GIST_update_2,2026.1.1,Win32,60.97560976,5c6e60b04e08ad00018cc995,69b95efdef24cd8a694e89ee,69b9600af4af0329dfdbdb40,0.0336,0.0336,1,91,253,43,1,twofour,,,,,,,,,,,,,,,,,,,,,,,,,,,,,,,,,,,,,,,,,,,,,,,,,,,,,,,,,,,,,,,,,,,,,,,,,,,,,,,,,,,,,,,,,,,,,,,,,,,,,,,,,,,,,,,,,,,,,,,,,,,,,,,,,,,,,,,,,
,,5c6e60b04e08ad00018cc995,2026-03-17_14h07.31.649,kallum_motion_pilot_GIST_update_2,2026.1.1,Win32,60.97560976,5c6e60b04e08ad00018cc995,69b95efdef24cd8a694e89ee,69b9600af4af0329dfdbdb40,0.0336,0.0336,1,92,254,132,1,sevenfive,,,,,,,,,,,,,,,,,,,,,,,,,,,,,,,,,,,,,,,,,,,,,,,,,,,,,,,,,,,,,,,,,,,,,,,,,,,,,,,,,,,,,,,,,,,,,,,,,,,,,,,,,,,,,,,,,,,,,,,,,,,,,,,,,,,,,,,,,
,,5c6e60b04e08ad00018cc995,2026-03-17_14h07.31.649,kallum_motion_pilot_GIST_update_2,2026.1.1,Win32,60.97560976,5c6e60b04e08ad00018cc995,69b95efdef24cd8a694e89ee,69b9600af4af0329dfdbdb40,0.0337,0.0337,1,93,255,159,1,eightseven,,,,,,,,,,,,,,,,,,,,,,,,,,,,,,,,,,,,,,,,,,,,,,,,,,,,,,,,,,,,,,,,,,,,,,,,,,,,,,,,,,,,,,,,,,,,,,,,,,,,,,,,,,,,,,,,,,,,,,,,,,,,,,,,,,,,,,,,,
,,5c6e60b04e08ad00018cc995,2026-03-17_14h07.31.649,kallum_motion_pilot_GIST_update_2,2026.1.1,Win32,60.97560976,5c6e60b04e08ad00018cc995,69b95efdef24cd8a694e89ee,69b9600af4af0329dfdbdb40,0.0338,0.0338,1,94,256,40,1,onetwo,,,,,,,,,,,,,,,,,,,,,,,,,,,,,,,,,,,,,,,,,,,,,,,,,,,,,,,,,,,,,,,,,,,,,,,,,,,,,,,,,,,,,,,,,,,,,,,,,,,,,,,,,,,,,,,,,,,,,,,,,,,,,,,,,,,,,,,,,
,,5c6e60b04e08ad00018cc995,2026-03-17_14h07.31.649,kallum_motion_pilot_GIST_update_2,2026.1.1,Win32,60.97560976,5c6e60b04e08ad00018cc995,69b95efdef24cd8a694e89ee,69b9600af4af0329dfdbdb40,0.0338,0.0338,1,95,257,30,1,fourtwo,,,,,,,,,,,,,,,,,,,,,,,,,,,,,,,,,,,,,,,,,,,,,,,,,,,,,,,,,,,,,,,,,,,,,,,,,,,,,,,,,,,,,,,,,,,,,,,,,,,,,,,,,,,,,,,,,,,,,,,,,,,,,,,,,,,,,,,,,
,,5c6e60b04e08ad00018cc995,2026-03-17_14h07.31.649,kallum_motion_pilot_GIST_update_2,2026.1.1,Win32,60.97560976,5c6e60b04e08ad00018cc995,69b95efdef24cd8a694e89ee,69b9600af4af0329dfdbdb40,0.034,0.034,1,96,258,5,1,threefour,,,,,,,,,,,,,,,,,,,,,,,,,,,,,,,,,,,,,,,,,,,,,,,,,,,,,,,,,,,,,,,,,,,,,,,,,,,,,,,,,,,,,,,,,,,,,,,,,,,,,,,,,,,,,,,,,,,,,,,,,,,,,,,,,,,,,,,,,
,,5c6e60b04e08ad00018cc995,2026-03-17_14h07.31.649,kallum_motion_pilot_GIST_update_2,2026.1.1,Win32,60.97560976,5c6e60b04e08ad00018cc995,69b95efdef24cd8a694e89ee,69b9600af4af0329dfdbdb40,0.034,0.034,1,97,259,110,1,eightsix,,,,,,,,,,,,,,,,,,,,,,,,,,,,,,,,,,,,,,,,,,,,,,,,,,,,,,,,,,,,,,,,,,,,,,,,,,,,,,,,,,,,,,,,,,,,,,,,,,,,,,,,,,,,,,,,,,,,,,,,,,,,,,,,,,,,,,,,,
,,5c6e60b04e08ad00018cc995,2026-03-17_14h07.31.649,kallum_motion_pilot_GIST_update_2,2026.1.1,Win32,60.97560976,5c6e60b04e08ad00018cc995,69b95efdef24cd8a694e89ee,69b9600af4af0329dfdbdb40,0.0341,0.0341,1,98,260,18,1,twoone,,,,,,,,,,,,,,,,,,,,,,,,,,,,,,,,,,,,,,,,,,,,,,,,,,,,,,,,,,,,,,,,,,,,,,,,,,,,,,,,,,,,,,,,,,,,,,,,,,,,,,,,,,,,,,,,,,,,,,,,,,,,,,,,,,,,,,,,,
,,5c6e60b04e08ad00018cc995,2026-03-17_14h07.31.649,kallum_motion_pilot_GIST_update_2,2026.1.1,Win32,60.97560976,5c6e60b04e08ad00018cc995,69b95efdef24cd8a694e89ee,69b9600af4af0329dfdbdb40,0.0341,0.0341,1,99,261,12,1,threeone,,,,,,,,,,,,,,,,,,,,,,,,,,,,,,,,,,,,,,,,,,,,,,,,,,,,,,,,,,,,,,,,,,,,,,,,,,,,,,,,,,,,,,,,,,,,,,,,,,,,,,,,,,,,,,,,,,,,,,,,,,,,,,,,,,,,,,,,,
,,5c6e60b04e08ad00018cc995,2026-03-17_14h07.31.649,kallum_motion_pilot_GIST_update_2,2026.1.1,Win32,60.97560976,5c6e60b04e08ad00018cc995,69b95efdef24cd8a694e89ee,69b9600af4af0329dfdbdb40,0.0343,0.0343,1,100,262,55,1,fourthree,,,,,,,,,,,,,,,,,,,,,,,,,,,,,,,,,,,,,,,,,,,,,,,,,,,,,,,,,,,,,,,,,,,,,,,,,,,,,,,,,,,,,,,,,,,,,,,,,,,,,,,,,,,,,,,,,,,,,,,,,,,,,,,,,,,,,,,,,
,,5c6e60b04e08ad00018cc995,2026-03-17_14h07.31.649,kallum_motion_pilot_GIST_update_2,2026.1.1,Win32,60.97560976,5c6e60b04e08ad00018cc995,69b95efdef24cd8a694e89ee,69b9600af4af0329dfdbdb40,0.0344,0.0344,1,101,263,103,1,eightseven,,,,,,,,,,,,,,,,,,,,,,,,,,,,,,,,,,,,,,,,,,,,,,,,,,,,,,,,,,,,,,,,,,,,,,,,,,,,,,,,,,,,,,,,,,,,,,,,,,,,,,,,,,,,,,,,,,,,,,,,,,,,,,,,,,,,,,,,,
,,5c6e60b04e08ad00018cc995,2026-03-17_14h07.31.649,kallum_motion_pilot_GIST_update_2,2026.1.1,Win32,60.97560976,5c6e60b04e08ad00018cc995,69b95efdef24cd8a694e89ee,69b9600af4af0329dfdbdb40,0.0345,0.0345,1,102,264,127,1,eightseven,,,,,,,,,,,,,,,,,,,,,,,,,,,,,,,,,,,,,,,,,,,,,,,,,,,,,,,,,,,,,,,,,,,,,,,,,,,,,,,,,,,,,,,,,,,,,,,,,,,,,,,,,,,,,,,,,,,,,,,,,,,,,,,,,,,,,,,,,
,,5c6e60b04e08ad00018cc995,2026-03-17_14h07.31.649,kallum_motion_pilot_GIST_update_2,2026.1.1,Win32,60.97560976,5c6e60b04e08ad00018cc995,69b95efdef24cd8a694e89ee,69b9600af4af0329dfdbdb40,0.0347,0.0347,1,103,265,49,1,onethree,,,,,,,,,,,,,,,,,,,,,,,,,,,,,,,,,,,,,,,,,,,,,,,,,,,,,,,,,,,,,,,,,,,,,,,,,,,,,,,,,,,,,,,,,,,,,,,,,,,,,,,,,,,,,,,,,,,,,,,,,,,,,,,,,,,,,,,,,
,,5c6e60b04e08ad00018cc995,2026-03-17_14h07.31.649,kallum_motion_pilot_GIST_update_2,2026.1.1,Win32,60.97560976,5c6e60b04e08ad00018cc995,69b95efdef24cd8a694e89ee,69b9600af4af0329dfdbdb40,0.0348,0.0348,1,104,266,62,1,fourtwo,,,,,,,,,,,,,,,,,,,,,,,,,,,,,,,,,,,,,,,,,,,,,,,,,,,,,,,,,,,,,,,,,,,,,,,,,,,,,,,,,,,,,,,,,,,,,,,,,,,,,,,,,,,,,,,,,,,,,,,,,,,,,,,,,,,,,,,,,
