startup.started,startup.stopped,Prolific ID*,date,expName,psychopyVersion,OS,frameRate,participant,study_id,session,stimpositions.started,stimpositions.stopped,hardcoded_stimulus_positions.thisRepN,hardcoded_stimulus_positions.thisTrialN,hardcoded_stimulus_positions.thisN,hardcoded_stimulus_positions.thisIndex,hardcoded_stimulus_positions.ran,StimulusPos,stimorientation.started,stimorientation.stopped,prac_stimorientation_import_loop.thisRepN,prac_stimorientation_import_loop.thisTrialN,prac_stimorientation_import_loop.thisN,prac_stimorientation_import_loop.thisIndex,prac_stimorientation_import_loop.ran,Stimorientation,welcome_instr.started,welcome_instr.stopped,key_resp.keys,key_resp.rt,key_resp.duration,response_steppedout_1.started,response_steppedout_1.stopped,key_resp_20.keys,key_resp_20.rt,key_resp_20.duration,response_steppedout_2.started,response_steppedout_2.stopped,key_resp_19.keys,key_resp_19.rt,key_resp_19.duration,stim_response_instr.started,stim_response_instr.stopped,key_resp_15.keys,key_resp_15.rt,key_resp_15.duration,direction_instr_2.started,direction_instr_2.stopped,key_resp_9.keys,key_resp_9.rt,key_resp_9.duration,instr_prac.started,instr_prac.stopped,key_resp_10.keys,key_resp_10.rt,key_resp_10.duration,Stim1_display_prac.started,Stim1_display_prac.stopped,Ecc,Circle1_ori,Circle2_ori,response_prac.started,similarity,response_time,response_prac.stopped,mouse_5.x,mouse_5.y,mouse_5.leftButton,mouse_5.midButton,mouse_5.rightButton,mouse_5.clicked_name,responseprac_feedback.started,responseprac_feedback.stopped,summary2_prac.started,summary2_prac.stopped,mouse_6.x,mouse_6.y,mouse_6.leftButton,mouse_6.midButton,mouse_6.rightButton,mouse_6.clicked_name,duringprac.thisRepN,duringprac.thisTrialN,duringprac.thisN,duringprac.thisIndex,duringprac.ran,begin.started,begin.stopped,key_resp_22.keys,key_resp_22.rt,key_resp_22.duration,Stim1_display.started,Stim1_display.stopped,circle1_ori,circle2_ori,circle1_SF,circle2_SF,response.started,response.stopped,mouse.x,mouse.y,mouse.leftButton,mouse.midButton,mouse.rightButton,mouse.clicked_name,trialnumber,double_pass.thisRepN,double_pass.thisTrialN,double_pass.thisN,double_pass.thisIndex,double_pass.ran,double_pass.order,main_trial.thisRepN,main_trial.thisTrialN,main_trial.thisN,main_trial.thisIndex,main_trial.ran,main_trial.order,Trial_Counter,Catch,Frequencies,response_2.started,response_2.stopped,mouse_2.x,mouse_2.y,mouse_2.leftButton,mouse_2.midButton,mouse_2.rightButton,mouse_2.clicked_name,special_trial.started,special_trial.stopped,catch_1.started,catch_1.stopped,mouse_3.x,mouse_3.y,mouse_3.leftButton,mouse_3.midButton,mouse_3.rightButton,catchresponse,catchnumber,response_time_catch,response_sum.started,response_sum.stopped,mouse_11.x,mouse_11.y,mouse_11.leftButton,mouse_11.midButton,mouse_11.rightButton,flip_presentation_sequence_for_double_pass.started,flip_presentation_sequence_for_double_pass.stopped,goodbye.started,goodbye.stopped,key_resp_3.keys,key_resp_3.rt,key_resp_3.duration
0.0007,0.0011,5ced66139b5b490001b688ed,2026-03-17_10h22.28.041,kallum_motion_pilot_GIST_update_2,2026.1.1,Win32,59.88023952,5ced66139b5b490001b688ed,69b92ab4aef6dee357cd729a,69b92b4c3fb549cd7f811a4b,,,,,,,,,,,,,,,,,,,,,,,,,,,,,,,,,,,,,,,,,,,,,,,,,,,,,,,,,,,,,,,,,,,,,,,,,,,,,,,,,,,,,,,,,,,,,,,,,,,,,,,,,,,,,,,,,,,,,,,,,,,,,,,,,,,,,,,,,,,,,,,,,
,,5ced66139b5b490001b688ed,2026-03-17_10h22.28.041,kallum_motion_pilot_GIST_update_2,2026.1.1,Win32,59.88023952,5ced66139b5b490001b688ed,69b92ab4aef6dee357cd729a,69b92b4c3fb549cd7f811a4b,0.0636,0.0638,0,0,0,37,1,threefour,,,,,,,,,,,,,,,,,,,,,,,,,,,,,,,,,,,,,,,,,,,,,,,,,,,,,,,,,,,,,,,,,,,,,,,,,,,,,,,,,,,,,,,,,,,,,,,,,,,,,,,,,,,,,,,,,,,,,,,,,,,,,,,,,,,,,,,,,
,,5ced66139b5b490001b688ed,2026-03-17_10h22.28.041,kallum_motion_pilot_GIST_update_2,2026.1.1,Win32,59.88023952,5ced66139b5b490001b688ed,69b92ab4aef6dee357cd729a,69b92b4c3fb549cd7f811a4b,0.0649,0.0649,0,1,1,23,1,fourthree,,,,,,,,,,,,,,,,,,,,,,,,,,,,,,,,,,,,,,,,,,,,,,,,,,,,,,,,,,,,,,,,,,,,,,,,,,,,,,,,,,,,,,,,,,,,,,,,,,,,,,,,,,,,,,,,,,,,,,,,,,,,,,,,,,,,,,,,,
,,5ced66139b5b490001b688ed,2026-03-17_10h22.28.041,kallum_motion_pilot_GIST_update_2,2026.1.1,Win32,59.88023952,5ced66139b5b490001b688ed,69b92ab4aef6dee357cd729a,69b92b4c3fb549cd7f811a4b,0.0655,0.0655,0,2,2,109,1,seveneight,,,,,,,,,,,,,,,,,,,,,,,,,,,,,,,,,,,,,,,,,,,,,,,,,,,,,,,,,,,,,,,,,,,,,,,,,,,,,,,,,,,,,,,,,,,,,,,,,,,,,,,,,,,,,,,,,,,,,,,,,,,,,,,,,,,,,,,,,
,,5ced66139b5b490001b688ed,2026-03-17_10h22.28.041,kallum_motion_pilot_GIST_update_2,2026.1.1,Win32,59.88023952,5ced66139b5b490001b688ed,69b92ab4aef6dee357cd729a,69b92b4c3fb549cd7f811a4b,0.0662,0.0662,0,3,3,17,1,onethree,,,,,,,,,,,,,,,,,,,,,,,,,,,,,,,,,,,,,,,,,,,,,,,,,,,,,,,,,,,,,,,,,,,,,,,,,,,,,,,,,,,,,,,,,,,,,,,,,,,,,,,,,,,,,,,,,,,,,,,,,,,,,,,,,,,,,,,,,
,,5ced66139b5b490001b688ed,2026-03-17_10h22.28.041,kallum_motion_pilot_GIST_update_2,2026.1.1,Win32,59.88023952,5ced66139b5b490001b688ed,69b92ab4aef6dee357cd729a,69b92b4c3fb549cd7f811a4b,0.067,0.067,0,4,4,76,1,threeone,,,,,,,,,,,,,,,,,,,,,,,,,,,,,,,,,,,,,,,,,,,,,,,,,,,,,,,,,,,,,,,,,,,,,,,,,,,,,,,,,,,,,,,,,,,,,,,,,,,,,,,,,,,,,,,,,,,,,,,,,,,,,,,,,,,,,,,,,
,,5ced66139b5b490001b688ed,2026-03-17_10h22.28.041,kallum_motion_pilot_GIST_update_2,2026.1.1,Win32,59.88023952,5ced66139b5b490001b688ed,69b92ab4aef6dee357cd729a,69b92b4c3fb549cd7f811a4b,0.0678,0.0678,0,5,5,158,1,eightsix,,,,,,,,,,,,,,,,,,,,,,,,,,,,,,,,,,,,,,,,,,,,,,,,,,,,,,,,,,,,,,,,,,,,,,,,,,,,,,,,,,,,,,,,,,,,,,,,,,,,,,,,,,,,,,,,,,,,,,,,,,,,,,,,,,,,,,,,,
,,5ced66139b5b490001b688ed,2026-03-17_10h22.28.041,kallum_motion_pilot_GIST_update_2,2026.1.1,Win32,59.88023952,5ced66139b5b490001b688ed,69b92ab4aef6dee357cd729a,69b92b4c3fb549cd7f811a4b,0.0684,0.0685,0,6,6,39,1,fourthree,,,,,,,,,,,,,,,,,,,,,,,,,,,,,,,,,,,,,,,,,,,,,,,,,,,,,,,,,,,,,,,,,,,,,,,,,,,,,,,,,,,,,,,,,,,,,,,,,,,,,,,,,,,,,,,,,,,,,,,,,,,,,,,,,,,,,,,,,
,,5ced66139b5b490001b688ed,2026-03-17_10h22.28.041,kallum_motion_pilot_GIST_update_2,2026.1.1,Win32,59.88023952,5ced66139b5b490001b688ed,69b92ab4aef6dee357cd729a,69b92b4c3fb549cd7f811a4b,0.0691,0.0691,0,7,7,21,1,threefour,,,,,,,,,,,,,,,,,,,,,,,,,,,,,,,,,,,,,,,,,,,,,,,,,,,,,,,,,,,,,,,,,,,,,,,,,,,,,,,,,,,,,,,,,,,,,,,,,,,,,,,,,,,,,,,,,,,,,,,,,,,,,,,,,,,,,,,,,
,,5ced66139b5b490001b688ed,2026-03-17_10h22.28.041,kallum_motion_pilot_GIST_update_2,2026.1.1,Win32,59.88023952,5ced66139b5b490001b688ed,69b92ab4aef6dee357cd729a,69b92b4c3fb549cd7f811a4b,0.0696,0.0697,0,8,8,27,1,twofour,,,,,,,,,,,,,,,,,,,,,,,,,,,,,,,,,,,,,,,,,,,,,,,,,,,,,,,,,,,,,,,,,,,,,,,,,,,,,,,,,,,,,,,,,,,,,,,,,,,,,,,,,,,,,,,,,,,,,,,,,,,,,,,,,,,,,,,,,
,,5ced66139b5b490001b688ed,2026-03-17_10h22.28.041,kallum_motion_pilot_GIST_update_2,2026.1.1,Win32,59.88023952,5ced66139b5b490001b688ed,69b92ab4aef6dee357cd729a,69b92b4c3fb549cd7f811a4b,0.0703,0.0706,0,9,9,20,1,threeone,,,,,,,,,,,,,,,,,,,,,,,,,,,,,,,,,,,,,,,,,,,,,,,,,,,,,,,,,,,,,,,,,,,,,,,,,,,,,,,,,,,,,,,,,,,,,,,,,,,,,,,,,,,,,,,,,,,,,,,,,,,,,,,,,,,,,,,,,
,,5ced66139b5b490001b688ed,2026-03-17_10h22.28.041,kallum_motion_pilot_GIST_update_2,2026.1.1,Win32,59.88023952,5ced66139b5b490001b688ed,69b92ab4aef6dee357cd729a,69b92b4c3fb549cd7f811a4b,0.0713,0.0714,0,10,10,38,1,fourtwo,,,,,,,,,,,,,,,,,,,,,,,,,,,,,,,,,,,,,,,,,,,,,,,,,,,,,,,,,,,,,,,,,,,,,,,,,,,,,,,,,,,,,,,,,,,,,,,,,,,,,,,,,,,,,,,,,,,,,,,,,,,,,,,,,,,,,,,,,
,,5ced66139b5b490001b688ed,2026-03-17_10h22.28.041,kallum_motion_pilot_GIST_update_2,2026.1.1,Win32,59.88023952,5ced66139b5b490001b688ed,69b92ab4aef6dee357cd729a,69b92b4c3fb549cd7f811a4b,0.072,0.072,0,11,11,60,1,threeone,,,,,,,,,,,,,,,,,,,,,,,,,,,,,,,,,,,,,,,,,,,,,,,,,,,,,,,,,,,,,,,,,,,,,,,,,,,,,,,,,,,,,,,,,,,,,,,,,,,,,,,,,,,,,,,,,,,,,,,,,,,,,,,,,,,,,,,,,
,,5ced66139b5b490001b688ed,2026-03-17_10h22.28.041,kallum_motion_pilot_GIST_update_2,2026.1.1,Win32,59.88023952,5ced66139b5b490001b688ed,69b92ab4aef6dee357cd729a,69b92b4c3fb549cd7f811a4b,0.0727,0.0727,0,12,12,50,1,twoone,,,,,,,,,,,,,,,,,,,,,,,,,,,,,,,,,,,,,,,,,,,,,,,,,,,,,,,,,,,,,,,,,,,,,,,,,,,,,,,,,,,,,,,,,,,,,,,,,,,,,,,,,,,,,,,,,,,,,,,,,,,,,,,,,,,,,,,,,
,,5ced66139b5b490001b688ed,2026-03-17_10h22.28.041,kallum_motion_pilot_GIST_update_2,2026.1.1,Win32,59.88023952,5ced66139b5b490001b688ed,69b92ab4aef6dee357cd729a,69b92b4c3fb549cd7f811a4b,0.0736,0.0736,0,13,13,101,1,seveneight,,,,,,,,,,,,,,,,,,,,,,,,,,,,,,,,,,,,,,,,,,,,,,,,,,,,,,,,,,,,,,,,,,,,,,,,,,,,,,,,,,,,,,,,,,,,,,,,,,,,,,,,,,,,,,,,,,,,,,,,,,,,,,,,,,,,,,,,,
,,5ced66139b5b490001b688ed,2026-03-17_10h22.28.041,kallum_motion_pilot_GIST_update_2,2026.1.1,Win32,59.88023952,5ced66139b5b490001b688ed,69b92ab4aef6dee357cd729a,69b92b4c3fb549cd7f811a4b,0.0742,0.0743,0,14,14,102,1,eightsix,,,,,,,,,,,,,,,,,,,,,,,,,,,,,,,,,,,,,,,,,,,,,,,,,,,,,,,,,,,,,,,,,,,,,,,,,,,,,,,,,,,,,,,,,,,,,,,,,,,,,,,,,,,,,,,,,,,,,,,,,,,,,,,,,,,,,,,,,
,,5ced66139b5b490001b688ed,2026-03-17_10h22.28.041,kallum_motion_pilot_GIST_update_2,2026.1.1,Win32,59.88023952,5ced66139b5b490001b688ed,69b92ab4aef6dee357cd729a,69b92b4c3fb549cd7f811a4b,0.0748,0.0748,0,15,15,2,1,twoone,,,,,,,,,,,,,,,,,,,,,,,,,,,,,,,,,,,,,,,,,,,,,,,,,,,,,,,,,,,,,,,,,,,,,,,,,,,,,,,,,,,,,,,,,,,,,,,,,,,,,,,,,,,,,,,,,,,,,,,,,,,,,,,,,,,,,,,,,
,,5ced66139b5b490001b688ed,2026-03-17_10h22.28.041,kallum_motion_pilot_GIST_update_2,2026.1.1,Win32,59.88023952,5ced66139b5b490001b688ed,69b92ab4aef6dee357cd729a,69b92b4c3fb549cd7f811a4b,0.0753,0.0753,0,16,16,134,1,eightsix,,,,,,,,,,,,,,,,,,,,,,,,,,,,,,,,,,,,,,,,,,,,,,,,,,,,,,,,,,,,,,,,,,,,,,,,,,,,,,,,,,,,,,,,,,,,,,,,,,,,,,,,,,,,,,,,,,,,,,,,,,,,,,,,,,,,,,,,,
,,5ced66139b5b490001b688ed,2026-03-17_10h22.28.041,kallum_motion_pilot_GIST_update_2,2026.1.1,Win32,59.88023952,5ced66139b5b490001b688ed,69b92ab4aef6dee357cd729a,69b92b4c3fb549cd7f811a4b,0.0759,0.076,0,17,17,79,1,eightseven,,,,,,,,,,,,,,,,,,,,,,,,,,,,,,,,,,,,,,,,,,,,,,,,,,,,,,,,,,,,,,,,,,,,,,,,,,,,,,,,,,,,,,,,,,,,,,,,,,,,,,,,,,,,,,,,,,,,,,,,,,,,,,,,,,,,,,,,,
,,5ced66139b5b490001b688ed,2026-03-17_10h22.28.041,kallum_motion_pilot_GIST_update_2,2026.1.1,Win32,59.88023952,5ced66139b5b490001b688ed,69b92ab4aef6dee357cd729a,69b92b4c3fb549cd7f811a4b,0.0764,0.0765,0,18,18,108,1,sevenfive,,,,,,,,,,,,,,,,,,,,,,,,,,,,,,,,,,,,,,,,,,,,,,,,,,,,,,,,,,,,,,,,,,,,,,,,,,,,,,,,,,,,,,,,,,,,,,,,,,,,,,,,,,,,,,,,,,,,,,,,,,,,,,,,,,,,,,,,,
,,5ced66139b5b490001b688ed,2026-03-17_10h22.28.041,kallum_motion_pilot_GIST_update_2,2026.1.1,Win32,59.88023952,5ced66139b5b490001b688ed,69b92ab4aef6dee357cd729a,69b92b4c3fb549cd7f811a4b,0.0771,0.0772,0,19,19,82,1,sixfive,,,,,,,,,,,,,,,,,,,,,,,,,,,,,,,,,,,,,,,,,,,,,,,,,,,,,,,,,,,,,,,,,,,,,,,,,,,,,,,,,,,,,,,,,,,,,,,,,,,,,,,,,,,,,,,,,,,,,,,,,,,,,,,,,,,,,,,,,
,,5ced66139b5b490001b688ed,2026-03-17_10h22.28.041,kallum_motion_pilot_GIST_update_2,2026.1.1,Win32,59.88023952,5ced66139b5b490001b688ed,69b92ab4aef6dee357cd729a,69b92b4c3fb549cd7f811a4b,0.0778,0.0779,0,20,20,3,1,twofour,,,,,,,,,,,,,,,,,,,,,,,,,,,,,,,,,,,,,,,,,,,,,,,,,,,,,,,,,,,,,,,,,,,,,,,,,,,,,,,,,,,,,,,,,,,,,,,,,,,,,,,,,,,,,,,,,,,,,,,,,,,,,,,,,,,,,,,,,
,,5ced66139b5b490001b688ed,2026-03-17_10h22.28.041,kallum_motion_pilot_GIST_update_2,2026.1.1,Win32,59.88023952,5ced66139b5b490001b688ed,69b92ab4aef6dee357cd729a,69b92b4c3fb549cd7f811a4b,0.0794,0.0794,0,21,21,85,1,seveneight,,,,,,,,,,,,,,,,,,,,,,,,,,,,,,,,,,,,,,,,,,,,,,,,,,,,,,,,,,,,,,,,,,,,,,,,,,,,,,,,,,,,,,,,,,,,,,,,,,,,,,,,,,,,,,,,,,,,,,,,,,,,,,,,,,,,,,,,,
,,5ced66139b5b490001b688ed,2026-03-17_10h22.28.041,kallum_motion_pilot_GIST_update_2,2026.1.1,Win32,59.88023952,5ced66139b5b490001b688ed,69b92ab4aef6dee357cd729a,69b92b4c3fb549cd7f811a4b,0.08,0.0801,0,22,22,44,1,threeone,,,,,,,,,,,,,,,,,,,,,,,,,,,,,,,,,,,,,,,,,,,,,,,,,,,,,,,,,,,,,,,,,,,,,,,,,,,,,,,,,,,,,,,,,,,,,,,,,,,,,,,,,,,,,,,,,,,,,,,,,,,,,,,,,,,,,,,,,
,,5ced66139b5b490001b688ed,2026-03-17_10h22.28.041,kallum_motion_pilot_GIST_update_2,2026.1.1,Win32,59.88023952,5ced66139b5b490001b688ed,69b92ab4aef6dee357cd729a,69b92b4c3fb549cd7f811a4b,0.0806,0.0807,0,23,23,55,1,fourthree,,,,,,,,,,,,,,,,,,,,,,,,,,,,,,,,,,,,,,,,,,,,,,,,,,,,,,,,,,,,,,,,,,,,,,,,,,,,,,,,,,,,,,,,,,,,,,,,,,,,,,,,,,,,,,,,,,,,,,,,,,,,,,,,,,,,,,,,,
,,5ced66139b5b490001b688ed,2026-03-17_10h22.28.041,kallum_motion_pilot_GIST_update_2,2026.1.1,Win32,59.88023952,5ced66139b5b490001b688ed,69b92ab4aef6dee357cd729a,69b92b4c3fb549cd7f811a4b,0.0812,0.0814,0,24,24,41,1,onethree,,,,,,,,,,,,,,,,,,,,,,,,,,,,,,,,,,,,,,,,,,,,,,,,,,,,,,,,,,,,,,,,,,,,,,,,,,,,,,,,,,,,,,,,,,,,,,,,,,,,,,,,,,,,,,,,,,,,,,,,,,,,,,,,,,,,,,,,,
,,5ced66139b5b490001b688ed,2026-03-17_10h22.28.041,kallum_motion_pilot_GIST_update_2,2026.1.1,Win32,59.88023952,5ced66139b5b490001b688ed,69b92ab4aef6dee357cd729a,69b92b4c3fb549cd7f811a4b,0.082,0.0821,0,25,25,105,1,fiveseven,,,,,,,,,,,,,,,,,,,,,,,,,,,,,,,,,,,,,,,,,,,,,,,,,,,,,,,,,,,,,,,,,,,,,,,,,,,,,,,,,,,,,,,,,,,,,,,,,,,,,,,,,,,,,,,,,,,,,,,,,,,,,,,,,,,,,,,,,
,,5ced66139b5b490001b688ed,2026-03-17_10h22.28.041,kallum_motion_pilot_GIST_update_2,2026.1.1,Win32,59.88023952,5ced66139b5b490001b688ed,69b92ab4aef6dee357cd729a,69b92b4c3fb549cd7f811a4b,0.0828,0.0829,0,26,26,93,1,seveneight,,,,,,,,,,,,,,,,,,,,,,,,,,,,,,,,,,,,,,,,,,,,,,,,,,,,,,,,,,,,,,,,,,,,,,,,,,,,,,,,,,,,,,,,,,,,,,,,,,,,,,,,,,,,,,,,,,,,,,,,,,,,,,,,,,,,,,,,,
,,5ced66139b5b490001b688ed,2026-03-17_10h22.28.041,kallum_motion_pilot_GIST_update_2,2026.1.1,Win32,59.88023952,5ced66139b5b490001b688ed,69b92ab4aef6dee357cd729a,69b92b4c3fb549cd7f811a4b,0.0836,0.0837,0,27,27,119,1,eightseven,,,,,,,,,,,,,,,,,,,,,,,,,,,,,,,,,,,,,,,,,,,,,,,,,,,,,,,,,,,,,,,,,,,,,,,,,,,,,,,,,,,,,,,,,,,,,,,,,,,,,,,,,,,,,,,,,,,,,,,,,,,,,,,,,,,,,,,,,
,,5ced66139b5b490001b688ed,2026-03-17_10h22.28.041,kallum_motion_pilot_GIST_update_2,2026.1.1,Win32,59.88023952,5ced66139b5b490001b688ed,69b92ab4aef6dee357cd729a,69b92b4c3fb549cd7f811a4b,0.0843,0.0843,0,28,28,61,1,threefour,,,,,,,,,,,,,,,,,,,,,,,,,,,,,,,,,,,,,,,,,,,,,,,,,,,,,,,,,,,,,,,,,,,,,,,,,,,,,,,,,,,,,,,,,,,,,,,,,,,,,,,,,,,,,,,,,,,,,,,,,,,,,,,,,,,,,,,,,
,,5ced66139b5b490001b688ed,2026-03-17_10h22.28.041,kallum_motion_pilot_GIST_update_2,2026.1.1,Win32,59.88023952,5ced66139b5b490001b688ed,69b92ab4aef6dee357cd729a,69b92b4c3fb549cd7f811a4b,0.085,0.0851,0,29,29,59,1,twofour,,,,,,,,,,,,,,,,,,,,,,,,,,,,,,,,,,,,,,,,,,,,,,,,,,,,,,,,,,,,,,,,,,,,,,,,,,,,,,,,,,,,,,,,,,,,,,,,,,,,,,,,,,,,,,,,,,,,,,,,,,,,,,,,,,,,,,,,,
,,5ced66139b5b490001b688ed,2026-03-17_10h22.28.041,kallum_motion_pilot_GIST_update_2,2026.1.1,Win32,59.88023952,5ced66139b5b490001b688ed,69b92ab4aef6dee357cd729a,69b92b4c3fb549cd7f811a4b,0.0856,0.0856,0,30,30,154,1,sixfive,,,,,,,,,,,,,,,,,,,,,,,,,,,,,,,,,,,,,,,,,,,,,,,,,,,,,,,,,,,,,,,,,,,,,,,,,,,,,,,,,,,,,,,,,,,,,,,,,,,,,,,,,,,,,,,,,,,,,,,,,,,,,,,,,,,,,,,,,
,,5ced66139b5b490001b688ed,2026-03-17_10h22.28.041,kallum_motion_pilot_GIST_update_2,2026.1.1,Win32,59.88023952,5ced66139b5b490001b688ed,69b92ab4aef6dee357cd729a,69b92b4c3fb549cd7f811a4b,0.0861,0.0862,0,31,31,151,1,eightseven,,,,,,,,,,,,,,,,,,,,,,,,,,,,,,,,,,,,,,,,,,,,,,,,,,,,,,,,,,,,,,,,,,,,,,,,,,,,,,,,,,,,,,,,,,,,,,,,,,,,,,,,,,,,,,,,,,,,,,,,,,,,,,,,,,,,,,,,,
,,5ced66139b5b490001b688ed,2026-03-17_10h22.28.041,kallum_motion_pilot_GIST_update_2,2026.1.1,Win32,59.88023952,5ced66139b5b490001b688ed,69b92ab4aef6dee357cd729a,69b92b4c3fb549cd7f811a4b,0.087,0.0871,0,32,32,58,1,twoone,,,,,,,,,,,,,,,,,,,,,,,,,,,,,,,,,,,,,,,,,,,,,,,,,,,,,,,,,,,,,,,,,,,,,,,,,,,,,,,,,,,,,,,,,,,,,,,,,,,,,,,,,,,,,,,,,,,,,,,,,,,,,,,,,,,,,,,,,
,,5ced66139b5b490001b688ed,2026-03-17_10h22.28.041,kallum_motion_pilot_GIST_update_2,2026.1.1,Win32,59.88023952,5ced66139b5b490001b688ed,69b92ab4aef6dee357cd729a,69b92b4c3fb549cd7f811a4b,0.0876,0.0876,0,33,33,159,1,eightseven,,,,,,,,,,,,,,,,,,,,,,,,,,,,,,,,,,,,,,,,,,,,,,,,,,,,,,,,,,,,,,,,,,,,,,,,,,,,,,,,,,,,,,,,,,,,,,,,,,,,,,,,,,,,,,,,,,,,,,,,,,,,,,,,,,,,,,,,,
,,5ced66139b5b490001b688ed,2026-03-17_10h22.28.041,kallum_motion_pilot_GIST_update_2,2026.1.1,Win32,59.88023952,5ced66139b5b490001b688ed,69b92ab4aef6dee357cd729a,69b92b4c3fb549cd7f811a4b,0.0882,0.0882,0,34,34,52,1,threeone,,,,,,,,,,,,,,,,,,,,,,,,,,,,,,,,,,,,,,,,,,,,,,,,,,,,,,,,,,,,,,,,,,,,,,,,,,,,,,,,,,,,,,,,,,,,,,,,,,,,,,,,,,,,,,,,,,,,,,,,,,,,,,,,,,,,,,,,,
,,5ced66139b5b490001b688ed,2026-03-17_10h22.28.041,kallum_motion_pilot_GIST_update_2,2026.1.1,Win32,59.88023952,5ced66139b5b490001b688ed,69b92ab4aef6dee357cd729a,69b92b4c3fb549cd7f811a4b,0.0888,0.0888,0,35,35,62,1,fourtwo,,,,,,,,,,,,,,,,,,,,,,,,,,,,,,,,,,,,,,,,,,,,,,,,,,,,,,,,,,,,,,,,,,,,,,,,,,,,,,,,,,,,,,,,,,,,,,,,,,,,,,,,,,,,,,,,,,,,,,,,,,,,,,,,,,,,,,,,,
,,5ced66139b5b490001b688ed,2026-03-17_10h22.28.041,kallum_motion_pilot_GIST_update_2,2026.1.1,Win32,59.88023952,5ced66139b5b490001b688ed,69b92ab4aef6dee357cd729a,69b92b4c3fb549cd7f811a4b,0.0895,0.0895,0,36,36,18,1,twoone,,,,,,,,,,,,,,,,,,,,,,,,,,,,,,,,,,,,,,,,,,,,,,,,,,,,,,,,,,,,,,,,,,,,,,,,,,,,,,,,,,,,,,,,,,,,,,,,,,,,,,,,,,,,,,,,,,,,,,,,,,,,,,,,,,,,,,,,,
,,5ced66139b5b490001b688ed,2026-03-17_10h22.28.041,kallum_motion_pilot_GIST_update_2,2026.1.1,Win32,59.88023952,5ced66139b5b490001b688ed,69b92ab4aef6dee357cd729a,69b92b4c3fb549cd7f811a4b,0.0901,0.0901,0,37,37,47,1,fourthree,,,,,,,,,,,,,,,,,,,,,,,,,,,,,,,,,,,,,,,,,,,,,,,,,,,,,,,,,,,,,,,,,,,,,,,,,,,,,,,,,,,,,,,,,,,,,,,,,,,,,,,,,,,,,,,,,,,,,,,,,,,,,,,,,,,,,,,,,
,,5ced66139b5b490001b688ed,2026-03-17_10h22.28.041,kallum_motion_pilot_GIST_update_2,2026.1.1,Win32,59.88023952,5ced66139b5b490001b688ed,69b92ab4aef6dee357cd729a,69b92b4c3fb549cd7f811a4b,0.0907,0.0907,0,38,38,136,1,fivesix,,,,,,,,,,,,,,,,,,,,,,,,,,,,,,,,,,,,,,,,,,,,,,,,,,,,,,,,,,,,,,,,,,,,,,,,,,,,,,,,,,,,,,,,,,,,,,,,,,,,,,,,,,,,,,,,,,,,,,,,,,,,,,,,,,,,,,,,,
,,5ced66139b5b490001b688ed,2026-03-17_10h22.28.041,kallum_motion_pilot_GIST_update_2,2026.1.1,Win32,59.88023952,5ced66139b5b490001b688ed,69b92ab4aef6dee357cd729a,69b92b4c3fb549cd7f811a4b,0.0913,0.0913,0,39,39,96,1,fivesix,,,,,,,,,,,,,,,,,,,,,,,,,,,,,,,,,,,,,,,,,,,,,,,,,,,,,,,,,,,,,,,,,,,,,,,,,,,,,,,,,,,,,,,,,,,,,,,,,,,,,,,,,,,,,,,,,,,,,,,,,,,,,,,,,,,,,,,,,
,,5ced66139b5b490001b688ed,2026-03-17_10h22.28.041,kallum_motion_pilot_GIST_update_2,2026.1.1,Win32,59.88023952,5ced66139b5b490001b688ed,69b92ab4aef6dee357cd729a,69b92b4c3fb549cd7f811a4b,0.092,0.092,0,40,40,49,1,onethree,,,,,,,,,,,,,,,,,,,,,,,,,,,,,,,,,,,,,,,,,,,,,,,,,,,,,,,,,,,,,,,,,,,,,,,,,,,,,,,,,,,,,,,,,,,,,,,,,,,,,,,,,,,,,,,,,,,,,,,,,,,,,,,,,,,,,,,,,
,,5ced66139b5b490001b688ed,2026-03-17_10h22.28.041,kallum_motion_pilot_GIST_update_2,2026.1.1,Win32,59.88023952,5ced66139b5b490001b688ed,69b92ab4aef6dee357cd729a,69b92b4c3fb549cd7f811a4b,0.0929,0.093,0,41,41,43,1,twofour,,,,,,,,,,,,,,,,,,,,,,,,,,,,,,,,,,,,,,,,,,,,,,,,,,,,,,,,,,,,,,,,,,,,,,,,,,,,,,,,,,,,,,,,,,,,,,,,,,,,,,,,,,,,,,,,,,,,,,,,,,,,,,,,,,,,,,,,,
,,5ced66139b5b490001b688ed,2026-03-17_10h22.28.041,kallum_motion_pilot_GIST_update_2,2026.1.1,Win32,59.88023952,5ced66139b5b490001b688ed,69b92ab4aef6dee357cd729a,69b92b4c3fb549cd7f811a4b,0.0938,0.0938,0,42,42,19,1,twofour,,,,,,,,,,,,,,,,,,,,,,,,,,,,,,,,,,,,,,,,,,,,,,,,,,,,,,,,,,,,,,,,,,,,,,,,,,,,,,,,,,,,,,,,,,,,,,,,,,,,,,,,,,,,,,,,,,,,,,,,,,,,,,,,,,,,,,,,,
,,5ced66139b5b490001b688ed,2026-03-17_10h22.28.041,kallum_motion_pilot_GIST_update_2,2026.1.1,Win32,59.88023952,5ced66139b5b490001b688ed,69b92ab4aef6dee357cd729a,69b92b4c3fb549cd7f811a4b,0.0947,0.0948,0,43,43,70,1,fourtwo,,,,,,,,,,,,,,,,,,,,,,,,,,,,,,,,,,,,,,,,,,,,,,,,,,,,,,,,,,,,,,,,,,,,,,,,,,,,,,,,,,,,,,,,,,,,,,,,,,,,,,,,,,,,,,,,,,,,,,,,,,,,,,,,,,,,,,,,,
,,5ced66139b5b490001b688ed,2026-03-17_10h22.28.041,kallum_motion_pilot_GIST_update_2,2026.1.1,Win32,59.88023952,5ced66139b5b490001b688ed,69b92ab4aef6dee357cd729a,69b92b4c3fb549cd7f811a4b,0.0961,0.0961,0,44,44,149,1,seveneight,,,,,,,,,,,,,,,,,,,,,,,,,,,,,,,,,,,,,,,,,,,,,,,,,,,,,,,,,,,,,,,,,,,,,,,,,,,,,,,,,,,,,,,,,,,,,,,,,,,,,,,,,,,,,,,,,,,,,,,,,,,,,,,,,,,,,,,,,
,,5ced66139b5b490001b688ed,2026-03-17_10h22.28.041,kallum_motion_pilot_GIST_update_2,2026.1.1,Win32,59.88023952,5ced66139b5b490001b688ed,69b92ab4aef6dee357cd729a,69b92b4c3fb549cd7f811a4b,0.0968,0.0969,0,45,45,15,1,fourthree,,,,,,,,,,,,,,,,,,,,,,,,,,,,,,,,,,,,,,,,,,,,,,,,,,,,,,,,,,,,,,,,,,,,,,,,,,,,,,,,,,,,,,,,,,,,,,,,,,,,,,,,,,,,,,,,,,,,,,,,,,,,,,,,,,,,,,,,,
,,5ced66139b5b490001b688ed,2026-03-17_10h22.28.041,kallum_motion_pilot_GIST_update_2,2026.1.1,Win32,59.88023952,5ced66139b5b490001b688ed,69b92ab4aef6dee357cd729a,69b92b4c3fb549cd7f811a4b,0.0976,0.0976,0,46,46,110,1,eightsix,,,,,,,,,,,,,,,,,,,,,,,,,,,,,,,,,,,,,,,,,,,,,,,,,,,,,,,,,,,,,,,,,,,,,,,,,,,,,,,,,,,,,,,,,,,,,,,,,,,,,,,,,,,,,,,,,,,,,,,,,,,,,,,,,,,,,,,,,
,,5ced66139b5b490001b688ed,2026-03-17_10h22.28.041,kallum_motion_pilot_GIST_update_2,2026.1.1,Win32,59.88023952,5ced66139b5b490001b688ed,69b92ab4aef6dee357cd729a,69b92b4c3fb549cd7f811a4b,0.0983,0.0984,0,47,47,6,1,fourtwo,,,,,,,,,,,,,,,,,,,,,,,,,,,,,,,,,,,,,,,,,,,,,,,,,,,,,,,,,,,,,,,,,,,,,,,,,,,,,,,,,,,,,,,,,,,,,,,,,,,,,,,,,,,,,,,,,,,,,,,,,,,,,,,,,,,,,,,,,
,,5ced66139b5b490001b688ed,2026-03-17_10h22.28.041,kallum_motion_pilot_GIST_update_2,2026.1.1,Win32,59.88023952,5ced66139b5b490001b688ed,69b92ab4aef6dee357cd729a,69b92b4c3fb549cd7f811a4b,0.099,0.0991,0,48,48,118,1,eightsix,,,,,,,,,,,,,,,,,,,,,,,,,,,,,,,,,,,,,,,,,,,,,,,,,,,,,,,,,,,,,,,,,,,,,,,,,,,,,,,,,,,,,,,,,,,,,,,,,,,,,,,,,,,,,,,,,,,,,,,,,,,,,,,,,,,,,,,,,
,,5ced66139b5b490001b688ed,2026-03-17_10h22.28.041,kallum_motion_pilot_GIST_update_2,2026.1.1,Win32,59.88023952,5ced66139b5b490001b688ed,69b92ab4aef6dee357cd729a,69b92b4c3fb549cd7f811a4b,0.0996,0.0996,0,49,49,53,1,threefour,,,,,,,,,,,,,,,,,,,,,,,,,,,,,,,,,,,,,,,,,,,,,,,,,,,,,,,,,,,,,,,,,,,,,,,,,,,,,,,,,,,,,,,,,,,,,,,,,,,,,,,,,,,,,,,,,,,,,,,,,,,,,,,,,,,,,,,,,
,,5ced66139b5b490001b688ed,2026-03-17_10h22.28.041,kallum_motion_pilot_GIST_update_2,2026.1.1,Win32,59.88023952,5ced66139b5b490001b688ed,69b92ab4aef6dee357cd729a,69b92b4c3fb549cd7f811a4b,0.1003,0.1003,0,50,50,13,1,threefour,,,,,,,,,,,,,,,,,,,,,,,,,,,,,,,,,,,,,,,,,,,,,,,,,,,,,,,,,,,,,,,,,,,,,,,,,,,,,,,,,,,,,,,,,,,,,,,,,,,,,,,,,,,,,,,,,,,,,,,,,,,,,,,,,,,,,,,,,
,,5ced66139b5b490001b688ed,2026-03-17_10h22.28.041,kallum_motion_pilot_GIST_update_2,2026.1.1,Win32,59.88023952,5ced66139b5b490001b688ed,69b92ab4aef6dee357cd729a,69b92b4c3fb549cd7f811a4b,0.101,0.1011,0,51,51,75,1,twofour,,,,,,,,,,,,,,,,,,,,,,,,,,,,,,,,,,,,,,,,,,,,,,,,,,,,,,,,,,,,,,,,,,,,,,,,,,,,,,,,,,,,,,,,,,,,,,,,,,,,,,,,,,,,,,,,,,,,,,,,,,,,,,,,,,,,,,,,,
,,5ced66139b5b490001b688ed,2026-03-17_10h22.28.041,kallum_motion_pilot_GIST_update_2,2026.1.1,Win32,59.88023952,5ced66139b5b490001b688ed,69b92ab4aef6dee357cd729a,69b92b4c3fb549cd7f811a4b,0.1023,0.1023,0,52,52,8,1,onetwo,,,,,,,,,,,,,,,,,,,,,,,,,,,,,,,,,,,,,,,,,,,,,,,,,,,,,,,,,,,,,,,,,,,,,,,,,,,,,,,,,,,,,,,,,,,,,,,,,,,,,,,,,,,,,,,,,,,,,,,,,,,,,,,,,,,,,,,,,
,,5ced66139b5b490001b688ed,2026-03-17_10h22.28.041,kallum_motion_pilot_GIST_update_2,2026.1.1,Win32,59.88023952,5ced66139b5b490001b688ed,69b92ab4aef6dee357cd729a,69b92b4c3fb549cd7f811a4b,0.1031,0.1031,0,53,53,92,1,sevenfive,,,,,,,,,,,,,,,,,,,,,,,,,,,,,,,,,,,,,,,,,,,,,,,,,,,,,,,,,,,,,,,,,,,,,,,,,,,,,,,,,,,,,,,,,,,,,,,,,,,,,,,,,,,,,,,,,,,,,,,,,,,,,,,,,,,,,,,,,
,,5ced66139b5b490001b688ed,2026-03-17_10h22.28.041,kallum_motion_pilot_GIST_update_2,2026.1.1,Win32,59.88023952,5ced66139b5b490001b688ed,69b92ab4aef6dee357cd729a,69b92b4c3fb549cd7f811a4b,0.1041,0.1041,0,54,54,124,1,sevenfive,,,,,,,,,,,,,,,,,,,,,,,,,,,,,,,,,,,,,,,,,,,,,,,,,,,,,,,,,,,,,,,,,,,,,,,,,,,,,,,,,,,,,,,,,,,,,,,,,,,,,,,,,,,,,,,,,,,,,,,,,,,,,,,,,,,,,,,,,
,,5ced66139b5b490001b688ed,2026-03-17_10h22.28.041,kallum_motion_pilot_GIST_update_2,2026.1.1,Win32,59.88023952,5ced66139b5b490001b688ed,69b92ab4aef6dee357cd729a,69b92b4c3fb549cd7f811a4b,0.1049,0.105,0,55,55,157,1,seveneight,,,,,,,,,,,,,,,,,,,,,,,,,,,,,,,,,,,,,,,,,,,,,,,,,,,,,,,,,,,,,,,,,,,,,,,,,,,,,,,,,,,,,,,,,,,,,,,,,,,,,,,,,,,,,,,,,,,,,,,,,,,,,,,,,,,,,,,,,
,,5ced66139b5b490001b688ed,2026-03-17_10h22.28.041,kallum_motion_pilot_GIST_update_2,2026.1.1,Win32,59.88023952,5ced66139b5b490001b688ed,69b92ab4aef6dee357cd729a,69b92b4c3fb549cd7f811a4b,0.1058,0.1058,0,56,56,74,1,twoone,,,,,,,,,,,,,,,,,,,,,,,,,,,,,,,,,,,,,,,,,,,,,,,,,,,,,,,,,,,,,,,,,,,,,,,,,,,,,,,,,,,,,,,,,,,,,,,,,,,,,,,,,,,,,,,,,,,,,,,,,,,,,,,,,,,,,,,,,
,,5ced66139b5b490001b688ed,2026-03-17_10h22.28.041,kallum_motion_pilot_GIST_update_2,2026.1.1,Win32,59.88023952,5ced66139b5b490001b688ed,69b92ab4aef6dee357cd729a,69b92b4c3fb549cd7f811a4b,0.1063,0.1064,0,57,57,7,1,fourthree,,,,,,,,,,,,,,,,,,,,,,,,,,,,,,,,,,,,,,,,,,,,,,,,,,,,,,,,,,,,,,,,,,,,,,,,,,,,,,,,,,,,,,,,,,,,,,,,,,,,,,,,,,,,,,,,,,,,,,,,,,,,,,,,,,,,,,,,,
,,5ced66139b5b490001b688ed,2026-03-17_10h22.28.041,kallum_motion_pilot_GIST_update_2,2026.1.1,Win32,59.88023952,5ced66139b5b490001b688ed,69b92ab4aef6dee357cd729a,69b92b4c3fb549cd7f811a4b,0.107,0.107,0,58,58,22,1,fourtwo,,,,,,,,,,,,,,,,,,,,,,,,,,,,,,,,,,,,,,,,,,,,,,,,,,,,,,,,,,,,,,,,,,,,,,,,,,,,,,,,,,,,,,,,,,,,,,,,,,,,,,,,,,,,,,,,,,,,,,,,,,,,,,,,,,,,,,,,,
,,5ced66139b5b490001b688ed,2026-03-17_10h22.28.041,kallum_motion_pilot_GIST_update_2,2026.1.1,Win32,59.88023952,5ced66139b5b490001b688ed,69b92ab4aef6dee357cd729a,69b92b4c3fb549cd7f811a4b,0.1076,0.1076,0,59,59,127,1,eightseven,,,,,,,,,,,,,,,,,,,,,,,,,,,,,,,,,,,,,,,,,,,,,,,,,,,,,,,,,,,,,,,,,,,,,,,,,,,,,,,,,,,,,,,,,,,,,,,,,,,,,,,,,,,,,,,,,,,,,,,,,,,,,,,,,,,,,,,,,
,,5ced66139b5b490001b688ed,2026-03-17_10h22.28.041,kallum_motion_pilot_GIST_update_2,2026.1.1,Win32,59.88023952,5ced66139b5b490001b688ed,69b92ab4aef6dee357cd729a,69b92b4c3fb549cd7f811a4b,0.1082,0.1083,0,60,60,24,1,onetwo,,,,,,,,,,,,,,,,,,,,,,,,,,,,,,,,,,,,,,,,,,,,,,,,,,,,,,,,,,,,,,,,,,,,,,,,,,,,,,,,,,,,,,,,,,,,,,,,,,,,,,,,,,,,,,,,,,,,,,,,,,,,,,,,,,,,,,,,,
,,5ced66139b5b490001b688ed,2026-03-17_10h22.28.041,kallum_motion_pilot_GIST_update_2,2026.1.1,Win32,59.88023952,5ced66139b5b490001b688ed,69b92ab4aef6dee357cd729a,69b92b4c3fb549cd7f811a4b,0.109,0.109,0,61,61,99,1,sixeight,,,,,,,,,,,,,,,,,,,,,,,,,,,,,,,,,,,,,,,,,,,,,,,,,,,,,,,,,,,,,,,,,,,,,,,,,,,,,,,,,,,,,,,,,,,,,,,,,,,,,,,,,,,,,,,,,,,,,,,,,,,,,,,,,,,,,,,,,
,,5ced66139b5b490001b688ed,2026-03-17_10h22.28.041,kallum_motion_pilot_GIST_update_2,2026.1.1,Win32,59.88023952,5ced66139b5b490001b688ed,69b92ab4aef6dee357cd729a,69b92b4c3fb549cd7f811a4b,0.1101,0.1101,0,62,62,95,1,eightseven,,,,,,,,,,,,,,,,,,,,,,,,,,,,,,,,,,,,,,,,,,,,,,,,,,,,,,,,,,,,,,,,,,,,,,,,,,,,,,,,,,,,,,,,,,,,,,,,,,,,,,,,,,,,,,,,,,,,,,,,,,,,,,,,,,,,,,,,,
,,5ced66139b5b490001b688ed,2026-03-17_10h22.28.041,kallum_motion_pilot_GIST_update_2,2026.1.1,Win32,59.88023952,5ced66139b5b490001b688ed,69b92ab4aef6dee357cd729a,69b92b4c3fb549cd7f811a4b,0.1109,0.111,0,63,63,161,1,fiveseven,,,,,,,,,,,,,,,,,,,,,,,,,,,,,,,,,,,,,,,,,,,,,,,,,,,,,,,,,,,,,,,,,,,,,,,,,,,,,,,,,,,,,,,,,,,,,,,,,,,,,,,,,,,,,,,,,,,,,,,,,,,,,,,,,,,,,,,,,
,,5ced66139b5b490001b688ed,2026-03-17_10h22.28.041,kallum_motion_pilot_GIST_update_2,2026.1.1,Win32,59.88023952,5ced66139b5b490001b688ed,69b92ab4aef6dee357cd729a,69b92b4c3fb549cd7f811a4b,0.1116,0.1116,0,64,64,121,1,fiveseven,,,,,,,,,,,,,,,,,,,,,,,,,,,,,,,,,,,,,,,,,,,,,,,,,,,,,,,,,,,,,,,,,,,,,,,,,,,,,,,,,,,,,,,,,,,,,,,,,,,,,,,,,,,,,,,,,,,,,,,,,,,,,,,,,,,,,,,,,
,,5ced66139b5b490001b688ed,2026-03-17_10h22.28.041,kallum_motion_pilot_GIST_update_2,2026.1.1,Win32,59.88023952,5ced66139b5b490001b688ed,69b92ab4aef6dee357cd729a,69b92b4c3fb549cd7f811a4b,0.1129,0.113,0,65,65,130,1,sixfive,,,,,,,,,,,,,,,,,,,,,,,,,,,,,,,,,,,,,,,,,,,,,,,,,,,,,,,,,,,,,,,,,,,,,,,,,,,,,,,,,,,,,,,,,,,,,,,,,,,,,,,,,,,,,,,,,,,,,,,,,,,,,,,,,,,,,,,,,
,,5ced66139b5b490001b688ed,2026-03-17_10h22.28.041,kallum_motion_pilot_GIST_update_2,2026.1.1,Win32,59.88023952,5ced66139b5b490001b688ed,69b92ab4aef6dee357cd729a,69b92b4c3fb549cd7f811a4b,0.1139,0.1139,0,66,66,30,1,fourtwo,,,,,,,,,,,,,,,,,,,,,,,,,,,,,,,,,,,,,,,,,,,,,,,,,,,,,,,,,,,,,,,,,,,,,,,,,,,,,,,,,,,,,,,,,,,,,,,,,,,,,,,,,,,,,,,,,,,,,,,,,,,,,,,,,,,,,,,,,
,,5ced66139b5b490001b688ed,2026-03-17_10h22.28.041,kallum_motion_pilot_GIST_update_2,2026.1.1,Win32,59.88023952,5ced66139b5b490001b688ed,69b92ab4aef6dee357cd729a,69b92b4c3fb549cd7f811a4b,0.1149,0.1149,0,67,67,143,1,eightseven,,,,,,,,,,,,,,,,,,,,,,,,,,,,,,,,,,,,,,,,,,,,,,,,,,,,,,,,,,,,,,,,,,,,,,,,,,,,,,,,,,,,,,,,,,,,,,,,,,,,,,,,,,,,,,,,,,,,,,,,,,,,,,,,,,,,,,,,,
,,5ced66139b5b490001b688ed,2026-03-17_10h22.28.041,kallum_motion_pilot_GIST_update_2,2026.1.1,Win32,59.88023952,5ced66139b5b490001b688ed,69b92ab4aef6dee357cd729a,69b92b4c3fb549cd7f811a4b,0.1155,0.1156,0,68,68,84,1,sevenfive,,,,,,,,,,,,,,,,,,,,,,,,,,,,,,,,,,,,,,,,,,,,,,,,,,,,,,,,,,,,,,,,,,,,,,,,,,,,,,,,,,,,,,,,,,,,,,,,,,,,,,,,,,,,,,,,,,,,,,,,,,,,,,,,,,,,,,,,,
,,5ced66139b5b490001b688ed,2026-03-17_10h22.28.041,kallum_motion_pilot_GIST_update_2,2026.1.1,Win32,59.88023952,5ced66139b5b490001b688ed,69b92ab4aef6dee357cd729a,69b92b4c3fb549cd7f811a4b,0.1163,0.1163,0,69,69,64,1,onetwo,,,,,,,,,,,,,,,,,,,,,,,,,,,,,,,,,,,,,,,,,,,,,,,,,,,,,,,,,,,,,,,,,,,,,,,,,,,,,,,,,,,,,,,,,,,,,,,,,,,,,,,,,,,,,,,,,,,,,,,,,,,,,,,,,,,,,,,,,
,,5ced66139b5b490001b688ed,2026-03-17_10h22.28.041,kallum_motion_pilot_GIST_update_2,2026.1.1,Win32,59.88023952,5ced66139b5b490001b688ed,69b92ab4aef6dee357cd729a,69b92b4c3fb549cd7f811a4b,0.1169,0.117,0,70,70,113,1,fiveseven,,,,,,,,,,,,,,,,,,,,,,,,,,,,,,,,,,,,,,,,,,,,,,,,,,,,,,,,,,,,,,,,,,,,,,,,,,,,,,,,,,,,,,,,,,,,,,,,,,,,,,,,,,,,,,,,,,,,,,,,,,,,,,,,,,,,,,,,,
,,5ced66139b5b490001b688ed,2026-03-17_10h22.28.041,kallum_motion_pilot_GIST_update_2,2026.1.1,Win32,59.88023952,5ced66139b5b490001b688ed,69b92ab4aef6dee357cd729a,69b92b4c3fb549cd7f811a4b,0.1176,0.1177,0,71,71,32,1,onetwo,,,,,,,,,,,,,,,,,,,,,,,,,,,,,,,,,,,,,,,,,,,,,,,,,,,,,,,,,,,,,,,,,,,,,,,,,,,,,,,,,,,,,,,,,,,,,,,,,,,,,,,,,,,,,,,,,,,,,,,,,,,,,,,,,,,,,,,,,
,,5ced66139b5b490001b688ed,2026-03-17_10h22.28.041,kallum_motion_pilot_GIST_update_2,2026.1.1,Win32,59.88023952,5ced66139b5b490001b688ed,69b92ab4aef6dee357cd729a,69b92b4c3fb549cd7f811a4b,0.1184,0.1184,0,72,72,72,1,onetwo,,,,,,,,,,,,,,,,,,,,,,,,,,,,,,,,,,,,,,,,,,,,,,,,,,,,,,,,,,,,,,,,,,,,,,,,,,,,,,,,,,,,,,,,,,,,,,,,,,,,,,,,,,,,,,,,,,,,,,,,,,,,,,,,,,,,,,,,,
,,5ced66139b5b490001b688ed,2026-03-17_10h22.28.041,kallum_motion_pilot_GIST_update_2,2026.1.1,Win32,59.88023952,5ced66139b5b490001b688ed,69b92ab4aef6dee357cd729a,69b92b4c3fb549cd7f811a4b,0.1192,0.1192,0,73,73,144,1,fivesix,,,,,,,,,,,,,,,,,,,,,,,,,,,,,,,,,,,,,,,,,,,,,,,,,,,,,,,,,,,,,,,,,,,,,,,,,,,,,,,,,,,,,,,,,,,,,,,,,,,,,,,,,,,,,,,,,,,,,,,,,,,,,,,,,,,,,,,,,
,,5ced66139b5b490001b688ed,2026-03-17_10h22.28.041,kallum_motion_pilot_GIST_update_2,2026.1.1,Win32,59.88023952,5ced66139b5b490001b688ed,69b92ab4aef6dee357cd729a,69b92b4c3fb549cd7f811a4b,0.12,0.1201,0,74,74,1,1,onethree,,,,,,,,,,,,,,,,,,,,,,,,,,,,,,,,,,,,,,,,,,,,,,,,,,,,,,,,,,,,,,,,,,,,,,,,,,,,,,,,,,,,,,,,,,,,,,,,,,,,,,,,,,,,,,,,,,,,,,,,,,,,,,,,,,,,,,,,,
,,5ced66139b5b490001b688ed,2026-03-17_10h22.28.041,kallum_motion_pilot_GIST_update_2,2026.1.1,Win32,59.88023952,5ced66139b5b490001b688ed,69b92ab4aef6dee357cd729a,69b92b4c3fb549cd7f811a4b,0.1208,0.1208,0,75,75,81,1,fiveseven,,,,,,,,,,,,,,,,,,,,,,,,,,,,,,,,,,,,,,,,,,,,,,,,,,,,,,,,,,,,,,,,,,,,,,,,,,,,,,,,,,,,,,,,,,,,,,,,,,,,,,,,,,,,,,,,,,,,,,,,,,,,,,,,,,,,,,,,,
,,5ced66139b5b490001b688ed,2026-03-17_10h22.28.041,kallum_motion_pilot_GIST_update_2,2026.1.1,Win32,59.88023952,5ced66139b5b490001b688ed,69b92ab4aef6dee357cd729a,69b92b4c3fb549cd7f811a4b,0.1216,0.1217,0,76,76,12,1,threeone,,,,,,,,,,,,,,,,,,,,,,,,,,,,,,,,,,,,,,,,,,,,,,,,,,,,,,,,,,,,,,,,,,,,,,,,,,,,,,,,,,,,,,,,,,,,,,,,,,,,,,,,,,,,,,,,,,,,,,,,,,,,,,,,,,,,,,,,,
,,5ced66139b5b490001b688ed,2026-03-17_10h22.28.041,kallum_motion_pilot_GIST_update_2,2026.1.1,Win32,59.88023952,5ced66139b5b490001b688ed,69b92ab4aef6dee357cd729a,69b92b4c3fb549cd7f811a4b,0.1225,0.1225,0,77,77,146,1,sixfive,,,,,,,,,,,,,,,,,,,,,,,,,,,,,,,,,,,,,,,,,,,,,,,,,,,,,,,,,,,,,,,,,,,,,,,,,,,,,,,,,,,,,,,,,,,,,,,,,,,,,,,,,,,,,,,,,,,,,,,,,,,,,,,,,,,,,,,,,
,,5ced66139b5b490001b688ed,2026-03-17_10h22.28.041,kallum_motion_pilot_GIST_update_2,2026.1.1,Win32,59.88023952,5ced66139b5b490001b688ed,69b92ab4aef6dee357cd729a,69b92b4c3fb549cd7f811a4b,0.1236,0.1236,0,78,78,89,1,fiveseven,,,,,,,,,,,,,,,,,,,,,,,,,,,,,,,,,,,,,,,,,,,,,,,,,,,,,,,,,,,,,,,,,,,,,,,,,,,,,,,,,,,,,,,,,,,,,,,,,,,,,,,,,,,,,,,,,,,,,,,,,,,,,,,,,,,,,,,,,
,,5ced66139b5b490001b688ed,2026-03-17_10h22.28.041,kallum_motion_pilot_GIST_update_2,2026.1.1,Win32,59.88023952,5ced66139b5b490001b688ed,69b92ab4aef6dee357cd729a,69b92b4c3fb549cd7f811a4b,0.1246,0.1246,0,79,79,152,1,fivesix,,,,,,,,,,,,,,,,,,,,,,,,,,,,,,,,,,,,,,,,,,,,,,,,,,,,,,,,,,,,,,,,,,,,,,,,,,,,,,,,,,,,,,,,,,,,,,,,,,,,,,,,,,,,,,,,,,,,,,,,,,,,,,,,,,,,,,,,,
,,5ced66139b5b490001b688ed,2026-03-17_10h22.28.041,kallum_motion_pilot_GIST_update_2,2026.1.1,Win32,59.88023952,5ced66139b5b490001b688ed,69b92ab4aef6dee357cd729a,69b92b4c3fb549cd7f811a4b,0.1254,0.1254,0,80,80,63,1,fourthree,,,,,,,,,,,,,,,,,,,,,,,,,,,,,,,,,,,,,,,,,,,,,,,,,,,,,,,,,,,,,,,,,,,,,,,,,,,,,,,,,,,,,,,,,,,,,,,,,,,,,,,,,,,,,,,,,,,,,,,,,,,,,,,,,,,,,,,,,
,,5ced66139b5b490001b688ed,2026-03-17_10h22.28.041,kallum_motion_pilot_GIST_update_2,2026.1.1,Win32,59.88023952,5ced66139b5b490001b688ed,69b92ab4aef6dee357cd729a,69b92b4c3fb549cd7f811a4b,0.1262,0.1262,0,81,81,122,1,sixfive,,,,,,,,,,,,,,,,,,,,,,,,,,,,,,,,,,,,,,,,,,,,,,,,,,,,,,,,,,,,,,,,,,,,,,,,,,,,,,,,,,,,,,,,,,,,,,,,,,,,,,,,,,,,,,,,,,,,,,,,,,,,,,,,,,,,,,,,,
,,5ced66139b5b490001b688ed,2026-03-17_10h22.28.041,kallum_motion_pilot_GIST_update_2,2026.1.1,Win32,59.88023952,5ced66139b5b490001b688ed,69b92ab4aef6dee357cd729a,69b92b4c3fb549cd7f811a4b,0.1268,0.127,0,82,82,11,1,twofour,,,,,,,,,,,,,,,,,,,,,,,,,,,,,,,,,,,,,,,,,,,,,,,,,,,,,,,,,,,,,,,,,,,,,,,,,,,,,,,,,,,,,,,,,,,,,,,,,,,,,,,,,,,,,,,,,,,,,,,,,,,,,,,,,,,,,,,,,
,,5ced66139b5b490001b688ed,2026-03-17_10h22.28.041,kallum_motion_pilot_GIST_update_2,2026.1.1,Win32,59.88023952,5ced66139b5b490001b688ed,69b92ab4aef6dee357cd729a,69b92b4c3fb549cd7f811a4b,0.1276,0.1277,0,83,83,14,1,fourtwo,,,,,,,,,,,,,,,,,,,,,,,,,,,,,,,,,,,,,,,,,,,,,,,,,,,,,,,,,,,,,,,,,,,,,,,,,,,,,,,,,,,,,,,,,,,,,,,,,,,,,,,,,,,,,,,,,,,,,,,,,,,,,,,,,,,,,,,,,
,,5ced66139b5b490001b688ed,2026-03-17_10h22.28.041,kallum_motion_pilot_GIST_update_2,2026.1.1,Win32,59.88023952,5ced66139b5b490001b688ed,69b92ab4aef6dee357cd729a,69b92b4c3fb549cd7f811a4b,0.1283,0.1284,0,84,84,106,1,sixfive,,,,,,,,,,,,,,,,,,,,,,,,,,,,,,,,,,,,,,,,,,,,,,,,,,,,,,,,,,,,,,,,,,,,,,,,,,,,,,,,,,,,,,,,,,,,,,,,,,,,,,,,,,,,,,,,,,,,,,,,,,,,,,,,,,,,,,,,,
,,5ced66139b5b490001b688ed,2026-03-17_10h22.28.041,kallum_motion_pilot_GIST_update_2,2026.1.1,Win32,59.88023952,5ced66139b5b490001b688ed,69b92ab4aef6dee357cd729a,69b92b4c3fb549cd7f811a4b,0.1297,0.1297,0,85,85,112,1,fivesix,,,,,,,,,,,,,,,,,,,,,,,,,,,,,,,,,,,,,,,,,,,,,,,,,,,,,,,,,,,,,,,,,,,,,,,,,,,,,,,,,,,,,,,,,,,,,,,,,,,,,,,,,,,,,,,,,,,,,,,,,,,,,,,,,,,,,,,,,
,,5ced66139b5b490001b688ed,2026-03-17_10h22.28.041,kallum_motion_pilot_GIST_update_2,2026.1.1,Win32,59.88023952,5ced66139b5b490001b688ed,69b92ab4aef6dee357cd729a,69b92b4c3fb549cd7f811a4b,0.1304,0.1304,0,86,86,48,1,onetwo,,,,,,,,,,,,,,,,,,,,,,,,,,,,,,,,,,,,,,,,,,,,,,,,,,,,,,,,,,,,,,,,,,,,,,,,,,,,,,,,,,,,,,,,,,,,,,,,,,,,,,,,,,,,,,,,,,,,,,,,,,,,,,,,,,,,,,,,,
,,5ced66139b5b490001b688ed,2026-03-17_10h22.28.041,kallum_motion_pilot_GIST_update_2,2026.1.1,Win32,59.88023952,5ced66139b5b490001b688ed,69b92ab4aef6dee357cd729a,69b92b4c3fb549cd7f811a4b,0.131,0.1312,0,87,87,133,1,seveneight,,,,,,,,,,,,,,,,,,,,,,,,,,,,,,,,,,,,,,,,,,,,,,,,,,,,,,,,,,,,,,,,,,,,,,,,,,,,,,,,,,,,,,,,,,,,,,,,,,,,,,,,,,,,,,,,,,,,,,,,,,,,,,,,,,,,,,,,,
,,5ced66139b5b490001b688ed,2026-03-17_10h22.28.041,kallum_motion_pilot_GIST_update_2,2026.1.1,Win32,59.88023952,5ced66139b5b490001b688ed,69b92ab4aef6dee357cd729a,69b92b4c3fb549cd7f811a4b,0.1318,0.1318,0,88,88,33,1,onethree,,,,,,,,,,,,,,,,,,,,,,,,,,,,,,,,,,,,,,,,,,,,,,,,,,,,,,,,,,,,,,,,,,,,,,,,,,,,,,,,,,,,,,,,,,,,,,,,,,,,,,,,,,,,,,,,,,,,,,,,,,,,,,,,,,,,,,,,,
,,5ced66139b5b490001b688ed,2026-03-17_10h22.28.041,kallum_motion_pilot_GIST_update_2,2026.1.1,Win32,59.88023952,5ced66139b5b490001b688ed,69b92ab4aef6dee357cd729a,69b92b4c3fb549cd7f811a4b,0.1325,0.1325,0,89,89,36,1,threeone,,,,,,,,,,,,,,,,,,,,,,,,,,,,,,,,,,,,,,,,,,,,,,,,,,,,,,,,,,,,,,,,,,,,,,,,,,,,,,,,,,,,,,,,,,,,,,,,,,,,,,,,,,,,,,,,,,,,,,,,,,,,,,,,,,,,,,,,,
,,5ced66139b5b490001b688ed,2026-03-17_10h22.28.041,kallum_motion_pilot_GIST_update_2,2026.1.1,Win32,59.88023952,5ced66139b5b490001b688ed,69b92ab4aef6dee357cd729a,69b92b4c3fb549cd7f811a4b,0.1334,0.1334,0,90,90,129,1,fiveseven,,,,,,,,,,,,,,,,,,,,,,,,,,,,,,,,,,,,,,,,,,,,,,,,,,,,,,,,,,,,,,,,,,,,,,,,,,,,,,,,,,,,,,,,,,,,,,,,,,,,,,,,,,,,,,,,,,,,,,,,,,,,,,,,,,,,,,,,,
,,5ced66139b5b490001b688ed,2026-03-17_10h22.28.041,kallum_motion_pilot_GIST_update_2,2026.1.1,Win32,59.88023952,5ced66139b5b490001b688ed,69b92ab4aef6dee357cd729a,69b92b4c3fb549cd7f811a4b,0.1342,0.1344,0,91,91,78,1,fourtwo,,,,,,,,,,,,,,,,,,,,,,,,,,,,,,,,,,,,,,,,,,,,,,,,,,,,,,,,,,,,,,,,,,,,,,,,,,,,,,,,,,,,,,,,,,,,,,,,,,,,,,,,,,,,,,,,,,,,,,,,,,,,,,,,,,,,,,,,,
,,5ced66139b5b490001b688ed,2026-03-17_10h22.28.041,kallum_motion_pilot_GIST_update_2,2026.1.1,Win32,59.88023952,5ced66139b5b490001b688ed,69b92ab4aef6dee357cd729a,69b92b4c3fb549cd7f811a4b,0.135,0.1351,0,92,92,34,1,twoone,,,,,,,,,,,,,,,,,,,,,,,,,,,,,,,,,,,,,,,,,,,,,,,,,,,,,,,,,,,,,,,,,,,,,,,,,,,,,,,,,,,,,,,,,,,,,,,,,,,,,,,,,,,,,,,,,,,,,,,,,,,,,,,,,,,,,,,,,
,,5ced66139b5b490001b688ed,2026-03-17_10h22.28.041,kallum_motion_pilot_GIST_update_2,2026.1.1,Win32,59.88023952,5ced66139b5b490001b688ed,69b92ab4aef6dee357cd729a,69b92b4c3fb549cd7f811a4b,0.1358,0.1358,0,93,93,80,1,fivesix,,,,,,,,,,,,,,,,,,,,,,,,,,,,,,,,,,,,,,,,,,,,,,,,,,,,,,,,,,,,,,,,,,,,,,,,,,,,,,,,,,,,,,,,,,,,,,,,,,,,,,,,,,,,,,,,,,,,,,,,,,,,,,,,,,,,,,,,,
,,5ced66139b5b490001b688ed,2026-03-17_10h22.28.041,kallum_motion_pilot_GIST_update_2,2026.1.1,Win32,59.88023952,5ced66139b5b490001b688ed,69b92ab4aef6dee357cd729a,69b92b4c3fb549cd7f811a4b,0.1365,0.1365,0,94,94,145,1,fiveseven,,,,,,,,,,,,,,,,,,,,,,,,,,,,,,,,,,,,,,,,,,,,,,,,,,,,,,,,,,,,,,,,,,,,,,,,,,,,,,,,,,,,,,,,,,,,,,,,,,,,,,,,,,,,,,,,,,,,,,,,,,,,,,,,,,,,,,,,,
,,5ced66139b5b490001b688ed,2026-03-17_10h22.28.041,kallum_motion_pilot_GIST_update_2,2026.1.1,Win32,59.88023952,5ced66139b5b490001b688ed,69b92ab4aef6dee357cd729a,69b92b4c3fb549cd7f811a4b,0.1372,0.1373,0,95,95,142,1,eightsix,,,,,,,,,,,,,,,,,,,,,,,,,,,,,,,,,,,,,,,,,,,,,,,,,,,,,,,,,,,,,,,,,,,,,,,,,,,,,,,,,,,,,,,,,,,,,,,,,,,,,,,,,,,,,,,,,,,,,,,,,,,,,,,,,,,,,,,,,
,,5ced66139b5b490001b688ed,2026-03-17_10h22.28.041,kallum_motion_pilot_GIST_update_2,2026.1.1,Win32,59.88023952,5ced66139b5b490001b688ed,69b92ab4aef6dee357cd729a,69b92b4c3fb549cd7f811a4b,0.1378,0.138,0,96,96,153,1,fiveseven,,,,,,,,,,,,,,,,,,,,,,,,,,,,,,,,,,,,,,,,,,,,,,,,,,,,,,,,,,,,,,,,,,,,,,,,,,,,,,,,,,,,,,,,,,,,,,,,,,,,,,,,,,,,,,,,,,,,,,,,,,,,,,,,,,,,,,,,,
,,5ced66139b5b490001b688ed,2026-03-17_10h22.28.041,kallum_motion_pilot_GIST_update_2,2026.1.1,Win32,59.88023952,5ced66139b5b490001b688ed,69b92ab4aef6dee357cd729a,69b92b4c3fb549cd7f811a4b,0.1386,0.1386,0,97,97,0,1,onetwo,,,,,,,,,,,,,,,,,,,,,,,,,,,,,,,,,,,,,,,,,,,,,,,,,,,,,,,,,,,,,,,,,,,,,,,,,,,,,,,,,,,,,,,,,,,,,,,,,,,,,,,,,,,,,,,,,,,,,,,,,,,,,,,,,,,,,,,,,
,,5ced66139b5b490001b688ed,2026-03-17_10h22.28.041,kallum_motion_pilot_GIST_update_2,2026.1.1,Win32,59.88023952,5ced66139b5b490001b688ed,69b92ab4aef6dee357cd729a,69b92b4c3fb549cd7f811a4b,0.1393,0.1393,0,98,98,45,1,threefour,,,,,,,,,,,,,,,,,,,,,,,,,,,,,,,,,,,,,,,,,,,,,,,,,,,,,,,,,,,,,,,,,,,,,,,,,,,,,,,,,,,,,,,,,,,,,,,,,,,,,,,,,,,,,,,,,,,,,,,,,,,,,,,,,,,,,,,,,
,,5ced66139b5b490001b688ed,2026-03-17_10h22.28.041,kallum_motion_pilot_GIST_update_2,2026.1.1,Win32,59.88023952,5ced66139b5b490001b688ed,69b92ab4aef6dee357cd729a,69b92b4c3fb549cd7f811a4b,0.14,0.14,0,99,99,120,1,fivesix,,,,,,,,,,,,,,,,,,,,,,,,,,,,,,,,,,,,,,,,,,,,,,,,,,,,,,,,,,,,,,,,,,,,,,,,,,,,,,,,,,,,,,,,,,,,,,,,,,,,,,,,,,,,,,,,,,,,,,,,,,,,,,,,,,,,,,,,,
,,5ced66139b5b490001b688ed,2026-03-17_10h22.28.041,kallum_motion_pilot_GIST_update_2,2026.1.1,Win32,59.88023952,5ced66139b5b490001b688ed,69b92ab4aef6dee357cd729a,69b92b4c3fb549cd7f811a4b,0.1406,0.1407,0,100,100,28,1,threeone,,,,,,,,,,,,,,,,,,,,,,,,,,,,,,,,,,,,,,,,,,,,,,,,,,,,,,,,,,,,,,,,,,,,,,,,,,,,,,,,,,,,,,,,,,,,,,,,,,,,,,,,,,,,,,,,,,,,,,,,,,,,,,,,,,,,,,,,,
,,5ced66139b5b490001b688ed,2026-03-17_10h22.28.041,kallum_motion_pilot_GIST_update_2,2026.1.1,Win32,59.88023952,5ced66139b5b490001b688ed,69b92ab4aef6dee357cd729a,69b92b4c3fb549cd7f811a4b,0.1415,0.1415,0,101,101,57,1,onethree,,,,,,,,,,,,,,,,,,,,,,,,,,,,,,,,,,,,,,,,,,,,,,,,,,,,,,,,,,,,,,,,,,,,,,,,,,,,,,,,,,,,,,,,,,,,,,,,,,,,,,,,,,,,,,,,,,,,,,,,,,,,,,,,,,,,,,,,,
,,5ced66139b5b490001b688ed,2026-03-17_10h22.28.041,kallum_motion_pilot_GIST_update_2,2026.1.1,Win32,59.88023952,5ced66139b5b490001b688ed,69b92ab4aef6dee357cd729a,69b92b4c3fb549cd7f811a4b,0.1422,0.1423,0,102,102,148,1,sevenfive,,,,,,,,,,,,,,,,,,,,,,,,,,,,,,,,,,,,,,,,,,,,,,,,,,,,,,,,,,,,,,,,,,,,,,,,,,,,,,,,,,,,,,,,,,,,,,,,,,,,,,,,,,,,,,,,,,,,,,,,,,,,,,,,,,,,,,,,,
,,5ced66139b5b490001b688ed,2026-03-17_10h22.28.041,kallum_motion_pilot_GIST_update_2,2026.1.1,Win32,59.88023952,5ced66139b5b490001b688ed,69b92ab4aef6dee357cd729a,69b92b4c3fb549cd7f811a4b,0.143,0.143,0,103,103,73,1,onethree,,,,,,,,,,,,,,,,,,,,,,,,,,,,,,,,,,,,,,,,,,,,,,,,,,,,,,,,,,,,,,,,,,,,,,,,,,,,,,,,,,,,,,,,,,,,,,,,,,,,,,,,,,,,,,,,,,,,,,,,,,,,,,,,,,,,,,,,,
,,5ced66139b5b490001b688ed,2026-03-17_10h22.28.041,kallum_motion_pilot_GIST_update_2,2026.1.1,Win32,59.88023952,5ced66139b5b490001b688ed,69b92ab4aef6dee357cd729a,69b92b4c3fb549cd7f811a4b,0.1439,0.1439,0,104,104,10,1,twoone,,,,,,,,,,,,,,,,,,,,,,,,,,,,,,,,,,,,,,,,,,,,,,,,,,,,,,,,,,,,,,,,,,,,,,,,,,,,,,,,,,,,,,,,,,,,,,,,,,,,,,,,,,,,,,,,,,,,,,,,,,,,,,,,,,,,,,,,,
,,5ced66139b5b490001b688ed,2026-03-17_10h22.28.041,kallum_motion_pilot_GIST_update_2,2026.1.1,Win32,59.88023952,5ced66139b5b490001b688ed,69b92ab4aef6dee357cd729a,69b92b4c3fb549cd7f811a4b,0.1449,0.145,0,105,105,131,1,sixeight,,,,,,,,,,,,,,,,,,,,,,,,,,,,,,,,,,,,,,,,,,,,,,,,,,,,,,,,,,,,,,,,,,,,,,,,,,,,,,,,,,,,,,,,,,,,,,,,,,,,,,,,,,,,,,,,,,,,,,,,,,,,,,,,,,,,,,,,,
,,5ced66139b5b490001b688ed,2026-03-17_10h22.28.041,kallum_motion_pilot_GIST_update_2,2026.1.1,Win32,59.88023952,5ced66139b5b490001b688ed,69b92ab4aef6dee357cd729a,69b92b4c3fb549cd7f811a4b,0.1463,0.1463,0,106,106,54,1,fourtwo,,,,,,,,,,,,,,,,,,,,,,,,,,,,,,,,,,,,,,,,,,,,,,,,,,,,,,,,,,,,,,,,,,,,,,,,,,,,,,,,,,,,,,,,,,,,,,,,,,,,,,,,,,,,,,,,,,,,,,,,,,,,,,,,,,,,,,,,,
,,5ced66139b5b490001b688ed,2026-03-17_10h22.28.041,kallum_motion_pilot_GIST_update_2,2026.1.1,Win32,59.88023952,5ced66139b5b490001b688ed,69b92ab4aef6dee357cd729a,69b92b4c3fb549cd7f811a4b,0.147,0.1471,0,107,107,139,1,sixeight,,,,,,,,,,,,,,,,,,,,,,,,,,,,,,,,,,,,,,,,,,,,,,,,,,,,,,,,,,,,,,,,,,,,,,,,,,,,,,,,,,,,,,,,,,,,,,,,,,,,,,,,,,,,,,,,,,,,,,,,,,,,,,,,,,,,,,,,,
,,5ced66139b5b490001b688ed,2026-03-17_10h22.28.041,kallum_motion_pilot_GIST_update_2,2026.1.1,Win32,59.88023952,5ced66139b5b490001b688ed,69b92ab4aef6dee357cd729a,69b92b4c3fb549cd7f811a4b,0.1478,0.1478,0,108,108,114,1,sixfive,,,,,,,,,,,,,,,,,,,,,,,,,,,,,,,,,,,,,,,,,,,,,,,,,,,,,,,,,,,,,,,,,,,,,,,,,,,,,,,,,,,,,,,,,,,,,,,,,,,,,,,,,,,,,,,,,,,,,,,,,,,,,,,,,,,,,,,,,
,,5ced66139b5b490001b688ed,2026-03-17_10h22.28.041,kallum_motion_pilot_GIST_update_2,2026.1.1,Win32,59.88023952,5ced66139b5b490001b688ed,69b92ab4aef6dee357cd729a,69b92b4c3fb549cd7f811a4b,0.1485,0.1486,0,109,109,16,1,onetwo,,,,,,,,,,,,,,,,,,,,,,,,,,,,,,,,,,,,,,,,,,,,,,,,,,,,,,,,,,,,,,,,,,,,,,,,,,,,,,,,,,,,,,,,,,,,,,,,,,,,,,,,,,,,,,,,,,,,,,,,,,,,,,,,,,,,,,,,,
,,5ced66139b5b490001b688ed,2026-03-17_10h22.28.041,kallum_motion_pilot_GIST_update_2,2026.1.1,Win32,59.88023952,5ced66139b5b490001b688ed,69b92ab4aef6dee357cd729a,69b92b4c3fb549cd7f811a4b,0.1492,0.1494,0,110,110,68,1,threeone,,,,,,,,,,,,,,,,,,,,,,,,,,,,,,,,,,,,,,,,,,,,,,,,,,,,,,,,,,,,,,,,,,,,,,,,,,,,,,,,,,,,,,,,,,,,,,,,,,,,,,,,,,,,,,,,,,,,,,,,,,,,,,,,,,,,,,,,,
,,5ced66139b5b490001b688ed,2026-03-17_10h22.28.041,kallum_motion_pilot_GIST_update_2,2026.1.1,Win32,59.88023952,5ced66139b5b490001b688ed,69b92ab4aef6dee357cd729a,69b92b4c3fb549cd7f811a4b,0.15,0.1501,0,111,111,88,1,fivesix,,,,,,,,,,,,,,,,,,,,,,,,,,,,,,,,,,,,,,,,,,,,,,,,,,,,,,,,,,,,,,,,,,,,,,,,,,,,,,,,,,,,,,,,,,,,,,,,,,,,,,,,,,,,,,,,,,,,,,,,,,,,,,,,,,,,,,,,,
,,5ced66139b5b490001b688ed,2026-03-17_10h22.28.041,kallum_motion_pilot_GIST_update_2,2026.1.1,Win32,59.88023952,5ced66139b5b490001b688ed,69b92ab4aef6dee357cd729a,69b92b4c3fb549cd7f811a4b,0.1507,0.1508,0,112,112,31,1,fourthree,,,,,,,,,,,,,,,,,,,,,,,,,,,,,,,,,,,,,,,,,,,,,,,,,,,,,,,,,,,,,,,,,,,,,,,,,,,,,,,,,,,,,,,,,,,,,,,,,,,,,,,,,,,,,,,,,,,,,,,,,,,,,,,,,,,,,,,,,
,,5ced66139b5b490001b688ed,2026-03-17_10h22.28.041,kallum_motion_pilot_GIST_update_2,2026.1.1,Win32,59.88023952,5ced66139b5b490001b688ed,69b92ab4aef6dee357cd729a,69b92b4c3fb549cd7f811a4b,0.1514,0.1515,0,113,113,125,1,seveneight,,,,,,,,,,,,,,,,,,,,,,,,,,,,,,,,,,,,,,,,,,,,,,,,,,,,,,,,,,,,,,,,,,,,,,,,,,,,,,,,,,,,,,,,,,,,,,,,,,,,,,,,,,,,,,,,,,,,,,,,,,,,,,,,,,,,,,,,,
,,5ced66139b5b490001b688ed,2026-03-17_10h22.28.041,kallum_motion_pilot_GIST_update_2,2026.1.1,Win32,59.88023952,5ced66139b5b490001b688ed,69b92ab4aef6dee357cd729a,69b92b4c3fb549cd7f811a4b,0.1522,0.1523,0,114,114,155,1,sixeight,,,,,,,,,,,,,,,,,,,,,,,,,,,,,,,,,,,,,,,,,,,,,,,,,,,,,,,,,,,,,,,,,,,,,,,,,,,,,,,,,,,,,,,,,,,,,,,,,,,,,,,,,,,,,,,,,,,,,,,,,,,,,,,,,,,,,,,,,
,,5ced66139b5b490001b688ed,2026-03-17_10h22.28.041,kallum_motion_pilot_GIST_update_2,2026.1.1,Win32,59.88023952,5ced66139b5b490001b688ed,69b92ab4aef6dee357cd729a,69b92b4c3fb549cd7f811a4b,0.1529,0.1529,0,115,115,42,1,twoone,,,,,,,,,,,,,,,,,,,,,,,,,,,,,,,,,,,,,,,,,,,,,,,,,,,,,,,,,,,,,,,,,,,,,,,,,,,,,,,,,,,,,,,,,,,,,,,,,,,,,,,,,,,,,,,,,,,,,,,,,,,,,,,,,,,,,,,,,
,,5ced66139b5b490001b688ed,2026-03-17_10h22.28.041,kallum_motion_pilot_GIST_update_2,2026.1.1,Win32,59.88023952,5ced66139b5b490001b688ed,69b92ab4aef6dee357cd729a,69b92b4c3fb549cd7f811a4b,0.1536,0.1538,0,116,116,77,1,threefour,,,,,,,,,,,,,,,,,,,,,,,,,,,,,,,,,,,,,,,,,,,,,,,,,,,,,,,,,,,,,,,,,,,,,,,,,,,,,,,,,,,,,,,,,,,,,,,,,,,,,,,,,,,,,,,,,,,,,,,,,,,,,,,,,,,,,,,,,
,,5ced66139b5b490001b688ed,2026-03-17_10h22.28.041,kallum_motion_pilot_GIST_update_2,2026.1.1,Win32,59.88023952,5ced66139b5b490001b688ed,69b92ab4aef6dee357cd729a,69b92b4c3fb549cd7f811a4b,0.155,0.1551,0,117,117,51,1,twofour,,,,,,,,,,,,,,,,,,,,,,,,,,,,,,,,,,,,,,,,,,,,,,,,,,,,,,,,,,,,,,,,,,,,,,,,,,,,,,,,,,,,,,,,,,,,,,,,,,,,,,,,,,,,,,,,,,,,,,,,,,,,,,,,,,,,,,,,,
,,5ced66139b5b490001b688ed,2026-03-17_10h22.28.041,kallum_motion_pilot_GIST_update_2,2026.1.1,Win32,59.88023952,5ced66139b5b490001b688ed,69b92ab4aef6dee357cd729a,69b92b4c3fb549cd7f811a4b,0.1557,0.1558,0,118,118,160,1,fivesix,,,,,,,,,,,,,,,,,,,,,,,,,,,,,,,,,,,,,,,,,,,,,,,,,,,,,,,,,,,,,,,,,,,,,,,,,,,,,,,,,,,,,,,,,,,,,,,,,,,,,,,,,,,,,,,,,,,,,,,,,,,,,,,,,,,,,,,,,
,,5ced66139b5b490001b688ed,2026-03-17_10h22.28.041,kallum_motion_pilot_GIST_update_2,2026.1.1,Win32,59.88023952,5ced66139b5b490001b688ed,69b92ab4aef6dee357cd729a,69b92b4c3fb549cd7f811a4b,0.1564,0.1565,0,119,119,140,1,sevenfive,,,,,,,,,,,,,,,,,,,,,,,,,,,,,,,,,,,,,,,,,,,,,,,,,,,,,,,,,,,,,,,,,,,,,,,,,,,,,,,,,,,,,,,,,,,,,,,,,,,,,,,,,,,,,,,,,,,,,,,,,,,,,,,,,,,,,,,,,
,,5ced66139b5b490001b688ed,2026-03-17_10h22.28.041,kallum_motion_pilot_GIST_update_2,2026.1.1,Win32,59.88023952,5ced66139b5b490001b688ed,69b92ab4aef6dee357cd729a,69b92b4c3fb549cd7f811a4b,0.1572,0.1573,0,120,120,126,1,eightsix,,,,,,,,,,,,,,,,,,,,,,,,,,,,,,,,,,,,,,,,,,,,,,,,,,,,,,,,,,,,,,,,,,,,,,,,,,,,,,,,,,,,,,,,,,,,,,,,,,,,,,,,,,,,,,,,,,,,,,,,,,,,,,,,,,,,,,,,,
,,5ced66139b5b490001b688ed,2026-03-17_10h22.28.041,kallum_motion_pilot_GIST_update_2,2026.1.1,Win32,59.88023952,5ced66139b5b490001b688ed,69b92ab4aef6dee357cd729a,69b92b4c3fb549cd7f811a4b,0.1579,0.1581,0,121,121,138,1,sixfive,,,,,,,,,,,,,,,,,,,,,,,,,,,,,,,,,,,,,,,,,,,,,,,,,,,,,,,,,,,,,,,,,,,,,,,,,,,,,,,,,,,,,,,,,,,,,,,,,,,,,,,,,,,,,,,,,,,,,,,,,,,,,,,,,,,,,,,,,
,,5ced66139b5b490001b688ed,2026-03-17_10h22.28.041,kallum_motion_pilot_GIST_update_2,2026.1.1,Win32,59.88023952,5ced66139b5b490001b688ed,69b92ab4aef6dee357cd729a,69b92b4c3fb549cd7f811a4b,0.1587,0.1588,0,122,122,137,1,fiveseven,,,,,,,,,,,,,,,,,,,,,,,,,,,,,,,,,,,,,,,,,,,,,,,,,,,,,,,,,,,,,,,,,,,,,,,,,,,,,,,,,,,,,,,,,,,,,,,,,,,,,,,,,,,,,,,,,,,,,,,,,,,,,,,,,,,,,,,,,
,,5ced66139b5b490001b688ed,2026-03-17_10h22.28.041,kallum_motion_pilot_GIST_update_2,2026.1.1,Win32,59.88023952,5ced66139b5b490001b688ed,69b92ab4aef6dee357cd729a,69b92b4c3fb549cd7f811a4b,0.1595,0.1595,0,123,123,111,1,eightseven,,,,,,,,,,,,,,,,,,,,,,,,,,,,,,,,,,,,,,,,,,,,,,,,,,,,,,,,,,,,,,,,,,,,,,,,,,,,,,,,,,,,,,,,,,,,,,,,,,,,,,,,,,,,,,,,,,,,,,,,,,,,,,,,,,,,,,,,,
,,5ced66139b5b490001b688ed,2026-03-17_10h22.28.041,kallum_motion_pilot_GIST_update_2,2026.1.1,Win32,59.88023952,5ced66139b5b490001b688ed,69b92ab4aef6dee357cd729a,69b92b4c3fb549cd7f811a4b,0.1602,0.1604,0,124,124,9,1,onethree,,,,,,,,,,,,,,,,,,,,,,,,,,,,,,,,,,,,,,,,,,,,,,,,,,,,,,,,,,,,,,,,,,,,,,,,,,,,,,,,,,,,,,,,,,,,,,,,,,,,,,,,,,,,,,,,,,,,,,,,,,,,,,,,,,,,,,,,,
,,5ced66139b5b490001b688ed,2026-03-17_10h22.28.041,kallum_motion_pilot_GIST_update_2,2026.1.1,Win32,59.88023952,5ced66139b5b490001b688ed,69b92ab4aef6dee357cd729a,69b92b4c3fb549cd7f811a4b,0.1611,0.1612,0,125,125,5,1,threefour,,,,,,,,,,,,,,,,,,,,,,,,,,,,,,,,,,,,,,,,,,,,,,,,,,,,,,,,,,,,,,,,,,,,,,,,,,,,,,,,,,,,,,,,,,,,,,,,,,,,,,,,,,,,,,,,,,,,,,,,,,,,,,,,,,,,,,,,,
,,5ced66139b5b490001b688ed,2026-03-17_10h22.28.041,kallum_motion_pilot_GIST_update_2,2026.1.1,Win32,59.88023952,5ced66139b5b490001b688ed,69b92ab4aef6dee357cd729a,69b92b4c3fb549cd7f811a4b,0.1628,0.1628,0,126,126,141,1,seveneight,,,,,,,,,,,,,,,,,,,,,,,,,,,,,,,,,,,,,,,,,,,,,,,,,,,,,,,,,,,,,,,,,,,,,,,,,,,,,,,,,,,,,,,,,,,,,,,,,,,,,,,,,,,,,,,,,,,,,,,,,,,,,,,,,,,,,,,,,
,,5ced66139b5b490001b688ed,2026-03-17_10h22.28.041,kallum_motion_pilot_GIST_update_2,2026.1.1,Win32,59.88023952,5ced66139b5b490001b688ed,69b92ab4aef6dee357cd729a,69b92b4c3fb549cd7f811a4b,0.1635,0.1636,0,127,127,71,1,fourthree,,,,,,,,,,,,,,,,,,,,,,,,,,,,,,,,,,,,,,,,,,,,,,,,,,,,,,,,,,,,,,,,,,,,,,,,,,,,,,,,,,,,,,,,,,,,,,,,,,,,,,,,,,,,,,,,,,,,,,,,,,,,,,,,,,,,,,,,,
,,5ced66139b5b490001b688ed,2026-03-17_10h22.28.041,kallum_motion_pilot_GIST_update_2,2026.1.1,Win32,59.88023952,5ced66139b5b490001b688ed,69b92ab4aef6dee357cd729a,69b92b4c3fb549cd7f811a4b,0.1643,0.1644,0,128,128,100,1,sevenfive,,,,,,,,,,,,,,,,,,,,,,,,,,,,,,,,,,,,,,,,,,,,,,,,,,,,,,,,,,,,,,,,,,,,,,,,,,,,,,,,,,,,,,,,,,,,,,,,,,,,,,,,,,,,,,,,,,,,,,,,,,,,,,,,,,,,,,,,,
,,5ced66139b5b490001b688ed,2026-03-17_10h22.28.041,kallum_motion_pilot_GIST_update_2,2026.1.1,Win32,59.88023952,5ced66139b5b490001b688ed,69b92ab4aef6dee357cd729a,69b92b4c3fb549cd7f811a4b,0.1653,0.1654,0,129,129,107,1,sixeight,,,,,,,,,,,,,,,,,,,,,,,,,,,,,,,,,,,,,,,,,,,,,,,,,,,,,,,,,,,,,,,,,,,,,,,,,,,,,,,,,,,,,,,,,,,,,,,,,,,,,,,,,,,,,,,,,,,,,,,,,,,,,,,,,,,,,,,,,
,,5ced66139b5b490001b688ed,2026-03-17_10h22.28.041,kallum_motion_pilot_GIST_update_2,2026.1.1,Win32,59.88023952,5ced66139b5b490001b688ed,69b92ab4aef6dee357cd729a,69b92b4c3fb549cd7f811a4b,0.1663,0.1664,0,130,130,150,1,eightsix,,,,,,,,,,,,,,,,,,,,,,,,,,,,,,,,,,,,,,,,,,,,,,,,,,,,,,,,,,,,,,,,,,,,,,,,,,,,,,,,,,,,,,,,,,,,,,,,,,,,,,,,,,,,,,,,,,,,,,,,,,,,,,,,,,,,,,,,,
,,5ced66139b5b490001b688ed,2026-03-17_10h22.28.041,kallum_motion_pilot_GIST_update_2,2026.1.1,Win32,59.88023952,5ced66139b5b490001b688ed,69b92ab4aef6dee357cd729a,69b92b4c3fb549cd7f811a4b,0.1671,0.1672,0,131,131,56,1,onetwo,,,,,,,,,,,,,,,,,,,,,,,,,,,,,,,,,,,,,,,,,,,,,,,,,,,,,,,,,,,,,,,,,,,,,,,,,,,,,,,,,,,,,,,,,,,,,,,,,,,,,,,,,,,,,,,,,,,,,,,,,,,,,,,,,,,,,,,,,
,,5ced66139b5b490001b688ed,2026-03-17_10h22.28.041,kallum_motion_pilot_GIST_update_2,2026.1.1,Win32,59.88023952,5ced66139b5b490001b688ed,69b92ab4aef6dee357cd729a,69b92b4c3fb549cd7f811a4b,0.1678,0.168,0,132,132,123,1,sixeight,,,,,,,,,,,,,,,,,,,,,,,,,,,,,,,,,,,,,,,,,,,,,,,,,,,,,,,,,,,,,,,,,,,,,,,,,,,,,,,,,,,,,,,,,,,,,,,,,,,,,,,,,,,,,,,,,,,,,,,,,,,,,,,,,,,,,,,,,
,,5ced66139b5b490001b688ed,2026-03-17_10h22.28.041,kallum_motion_pilot_GIST_update_2,2026.1.1,Win32,59.88023952,5ced66139b5b490001b688ed,69b92ab4aef6dee357cd729a,69b92b4c3fb549cd7f811a4b,0.1686,0.1687,0,133,133,26,1,twoone,,,,,,,,,,,,,,,,,,,,,,,,,,,,,,,,,,,,,,,,,,,,,,,,,,,,,,,,,,,,,,,,,,,,,,,,,,,,,,,,,,,,,,,,,,,,,,,,,,,,,,,,,,,,,,,,,,,,,,,,,,,,,,,,,,,,,,,,,
,,5ced66139b5b490001b688ed,2026-03-17_10h22.28.041,kallum_motion_pilot_GIST_update_2,2026.1.1,Win32,59.88023952,5ced66139b5b490001b688ed,69b92ab4aef6dee357cd729a,69b92b4c3fb549cd7f811a4b,0.1694,0.1695,0,134,134,94,1,eightsix,,,,,,,,,,,,,,,,,,,,,,,,,,,,,,,,,,,,,,,,,,,,,,,,,,,,,,,,,,,,,,,,,,,,,,,,,,,,,,,,,,,,,,,,,,,,,,,,,,,,,,,,,,,,,,,,,,,,,,,,,,,,,,,,,,,,,,,,,
,,5ced66139b5b490001b688ed,2026-03-17_10h22.28.041,kallum_motion_pilot_GIST_update_2,2026.1.1,Win32,59.88023952,5ced66139b5b490001b688ed,69b92ab4aef6dee357cd729a,69b92b4c3fb549cd7f811a4b,0.1701,0.1702,0,135,135,25,1,onethree,,,,,,,,,,,,,,,,,,,,,,,,,,,,,,,,,,,,,,,,,,,,,,,,,,,,,,,,,,,,,,,,,,,,,,,,,,,,,,,,,,,,,,,,,,,,,,,,,,,,,,,,,,,,,,,,,,,,,,,,,,,,,,,,,,,,,,,,,
,,5ced66139b5b490001b688ed,2026-03-17_10h22.28.041,kallum_motion_pilot_GIST_update_2,2026.1.1,Win32,59.88023952,5ced66139b5b490001b688ed,69b92ab4aef6dee357cd729a,69b92b4c3fb549cd7f811a4b,0.1709,0.171,0,136,136,90,1,sixfive,,,,,,,,,,,,,,,,,,,,,,,,,,,,,,,,,,,,,,,,,,,,,,,,,,,,,,,,,,,,,,,,,,,,,,,,,,,,,,,,,,,,,,,,,,,,,,,,,,,,,,,,,,,,,,,,,,,,,,,,,,,,,,,,,,,,,,,,,
,,5ced66139b5b490001b688ed,2026-03-17_10h22.28.041,kallum_motion_pilot_GIST_update_2,2026.1.1,Win32,59.88023952,5ced66139b5b490001b688ed,69b92ab4aef6dee357cd729a,69b92b4c3fb549cd7f811a4b,0.1717,0.1717,0,137,137,46,1,fourtwo,,,,,,,,,,,,,,,,,,,,,,,,,,,,,,,,,,,,,,,,,,,,,,,,,,,,,,,,,,,,,,,,,,,,,,,,,,,,,,,,,,,,,,,,,,,,,,,,,,,,,,,,,,,,,,,,,,,,,,,,,,,,,,,,,,,,,,,,,
,,5ced66139b5b490001b688ed,2026-03-17_10h22.28.041,kallum_motion_pilot_GIST_update_2,2026.1.1,Win32,59.88023952,5ced66139b5b490001b688ed,69b92ab4aef6dee357cd729a,69b92b4c3fb549cd7f811a4b,0.1727,0.1728,0,138,138,115,1,sixeight,,,,,,,,,,,,,,,,,,,,,,,,,,,,,,,,,,,,,,,,,,,,,,,,,,,,,,,,,,,,,,,,,,,,,,,,,,,,,,,,,,,,,,,,,,,,,,,,,,,,,,,,,,,,,,,,,,,,,,,,,,,,,,,,,,,,,,,,,
,,5ced66139b5b490001b688ed,2026-03-17_10h22.28.041,kallum_motion_pilot_GIST_update_2,2026.1.1,Win32,59.88023952,5ced66139b5b490001b688ed,69b92ab4aef6dee357cd729a,69b92b4c3fb549cd7f811a4b,0.1735,0.1737,0,139,139,103,1,eightseven,,,,,,,,,,,,,,,,,,,,,,,,,,,,,,,,,,,,,,,,,,,,,,,,,,,,,,,,,,,,,,,,,,,,,,,,,,,,,,,,,,,,,,,,,,,,,,,,,,,,,,,,,,,,,,,,,,,,,,,,,,,,,,,,,,,,,,,,,
,,5ced66139b5b490001b688ed,2026-03-17_10h22.28.041,kallum_motion_pilot_GIST_update_2,2026.1.1,Win32,59.88023952,5ced66139b5b490001b688ed,69b92ab4aef6dee357cd729a,69b92b4c3fb549cd7f811a4b,0.1743,0.1744,0,140,140,98,1,sixfive,,,,,,,,,,,,,,,,,,,,,,,,,,,,,,,,,,,,,,,,,,,,,,,,,,,,,,,,,,,,,,,,,,,,,,,,,,,,,,,,,,,,,,,,,,,,,,,,,,,,,,,,,,,,,,,,,,,,,,,,,,,,,,,,,,,,,,,,,
,,5ced66139b5b490001b688ed,2026-03-17_10h22.28.041,kallum_motion_pilot_GIST_update_2,2026.1.1,Win32,59.88023952,5ced66139b5b490001b688ed,69b92ab4aef6dee357cd729a,69b92b4c3fb549cd7f811a4b,0.1754,0.1754,0,141,141,35,1,twofour,,,,,,,,,,,,,,,,,,,,,,,,,,,,,,,,,,,,,,,,,,,,,,,,,,,,,,,,,,,,,,,,,,,,,,,,,,,,,,,,,,,,,,,,,,,,,,,,,,,,,,,,,,,,,,,,,,,,,,,,,,,,,,,,,,,,,,,,,
,,5ced66139b5b490001b688ed,2026-03-17_10h22.28.041,kallum_motion_pilot_GIST_update_2,2026.1.1,Win32,59.88023952,5ced66139b5b490001b688ed,69b92ab4aef6dee357cd729a,69b92b4c3fb549cd7f811a4b,0.1764,0.1768,0,142,142,104,1,fivesix,,,,,,,,,,,,,,,,,,,,,,,,,,,,,,,,,,,,,,,,,,,,,,,,,,,,,,,,,,,,,,,,,,,,,,,,,,,,,,,,,,,,,,,,,,,,,,,,,,,,,,,,,,,,,,,,,,,,,,,,,,,,,,,,,,,,,,,,,
,,5ced66139b5b490001b688ed,2026-03-17_10h22.28.041,kallum_motion_pilot_GIST_update_2,2026.1.1,Win32,59.88023952,5ced66139b5b490001b688ed,69b92ab4aef6dee357cd729a,69b92b4c3fb549cd7f811a4b,0.1776,0.1776,0,143,143,87,1,eightseven,,,,,,,,,,,,,,,,,,,,,,,,,,,,,,,,,,,,,,,,,,,,,,,,,,,,,,,,,,,,,,,,,,,,,,,,,,,,,,,,,,,,,,,,,,,,,,,,,,,,,,,,,,,,,,,,,,,,,,,,,,,,,,,,,,,,,,,,,
,,5ced66139b5b490001b688ed,2026-03-17_10h22.28.041,kallum_motion_pilot_GIST_update_2,2026.1.1,Win32,59.88023952,5ced66139b5b490001b688ed,69b92ab4aef6dee357cd729a,69b92b4c3fb549cd7f811a4b,0.1793,0.1793,0,144,144,67,1,twofour,,,,,,,,,,,,,,,,,,,,,,,,,,,,,,,,,,,,,,,,,,,,,,,,,,,,,,,,,,,,,,,,,,,,,,,,,,,,,,,,,,,,,,,,,,,,,,,,,,,,,,,,,,,,,,,,,,,,,,,,,,,,,,,,,,,,,,,,,
,,5ced66139b5b490001b688ed,2026-03-17_10h22.28.041,kallum_motion_pilot_GIST_update_2,2026.1.1,Win32,59.88023952,5ced66139b5b490001b688ed,69b92ab4aef6dee357cd729a,69b92b4c3fb549cd7f811a4b,0.18,0.1802,0,145,145,116,1,sevenfive,,,,,,,,,,,,,,,,,,,,,,,,,,,,,,,,,,,,,,,,,,,,,,,,,,,,,,,,,,,,,,,,,,,,,,,,,,,,,,,,,,,,,,,,,,,,,,,,,,,,,,,,,,,,,,,,,,,,,,,,,,,,,,,,,,,,,,,,,
,,5ced66139b5b490001b688ed,2026-03-17_10h22.28.041,kallum_motion_pilot_GIST_update_2,2026.1.1,Win32,59.88023952,5ced66139b5b490001b688ed,69b92ab4aef6dee357cd729a,69b92b4c3fb549cd7f811a4b,0.1815,0.1815,0,146,146,117,1,seveneight,,,,,,,,,,,,,,,,,,,,,,,,,,,,,,,,,,,,,,,,,,,,,,,,,,,,,,,,,,,,,,,,,,,,,,,,,,,,,,,,,,,,,,,,,,,,,,,,,,,,,,,,,,,,,,,,,,,,,,,,,,,,,,,,,,,,,,,,,
,,5ced66139b5b490001b688ed,2026-03-17_10h22.28.041,kallum_motion_pilot_GIST_update_2,2026.1.1,Win32,59.88023952,5ced66139b5b490001b688ed,69b92ab4aef6dee357cd729a,69b92b4c3fb549cd7f811a4b,0.1823,0.1827,0,147,147,97,1,fiveseven,,,,,,,,,,,,,,,,,,,,,,,,,,,,,,,,,,,,,,,,,,,,,,,,,,,,,,,,,,,,,,,,,,,,,,,,,,,,,,,,,,,,,,,,,,,,,,,,,,,,,,,,,,,,,,,,,,,,,,,,,,,,,,,,,,,,,,,,,
,,5ced66139b5b490001b688ed,2026-03-17_10h22.28.041,kallum_motion_pilot_GIST_update_2,2026.1.1,Win32,59.88023952,5ced66139b5b490001b688ed,69b92ab4aef6dee357cd729a,69b92b4c3fb549cd7f811a4b,0.1835,0.1836,0,148,148,128,1,fivesix,,,,,,,,,,,,,,,,,,,,,,,,,,,,,,,,,,,,,,,,,,,,,,,,,,,,,,,,,,,,,,,,,,,,,,,,,,,,,,,,,,,,,,,,,,,,,,,,,,,,,,,,,,,,,,,,,,,,,,,,,,,,,,,,,,,,,,,,,
,,5ced66139b5b490001b688ed,2026-03-17_10h22.28.041,kallum_motion_pilot_GIST_update_2,2026.1.1,Win32,59.88023952,5ced66139b5b490001b688ed,69b92ab4aef6dee357cd729a,69b92b4c3fb549cd7f811a4b,0.1845,0.1845,0,149,149,147,1,sixeight,,,,,,,,,,,,,,,,,,,,,,,,,,,,,,,,,,,,,,,,,,,,,,,,,,,,,,,,,,,,,,,,,,,,,,,,,,,,,,,,,,,,,,,,,,,,,,,,,,,,,,,,,,,,,,,,,,,,,,,,,,,,,,,,,,,,,,,,,
,,5ced66139b5b490001b688ed,2026-03-17_10h22.28.041,kallum_motion_pilot_GIST_update_2,2026.1.1,Win32,59.88023952,5ced66139b5b490001b688ed,69b92ab4aef6dee357cd729a,69b92b4c3fb549cd7f811a4b,0.1859,0.186,0,150,150,4,1,threeone,,,,,,,,,,,,,,,,,,,,,,,,,,,,,,,,,,,,,,,,,,,,,,,,,,,,,,,,,,,,,,,,,,,,,,,,,,,,,,,,,,,,,,,,,,,,,,,,,,,,,,,,,,,,,,,,,,,,,,,,,,,,,,,,,,,,,,,,,
,,5ced66139b5b490001b688ed,2026-03-17_10h22.28.041,kallum_motion_pilot_GIST_update_2,2026.1.1,Win32,59.88023952,5ced66139b5b490001b688ed,69b92ab4aef6dee357cd729a,69b92b4c3fb549cd7f811a4b,0.1869,0.1869,0,151,151,69,1,threefour,,,,,,,,,,,,,,,,,,,,,,,,,,,,,,,,,,,,,,,,,,,,,,,,,,,,,,,,,,,,,,,,,,,,,,,,,,,,,,,,,,,,,,,,,,,,,,,,,,,,,,,,,,,,,,,,,,,,,,,,,,,,,,,,,,,,,,,,,
,,5ced66139b5b490001b688ed,2026-03-17_10h22.28.041,kallum_motion_pilot_GIST_update_2,2026.1.1,Win32,59.88023952,5ced66139b5b490001b688ed,69b92ab4aef6dee357cd729a,69b92b4c3fb549cd7f811a4b,0.1881,0.1882,0,152,152,29,1,threefour,,,,,,,,,,,,,,,,,,,,,,,,,,,,,,,,,,,,,,,,,,,,,,,,,,,,,,,,,,,,,,,,,,,,,,,,,,,,,,,,,,,,,,,,,,,,,,,,,,,,,,,,,,,,,,,,,,,,,,,,,,,,,,,,,,,,,,,,,
,,5ced66139b5b490001b688ed,2026-03-17_10h22.28.041,kallum_motion_pilot_GIST_update_2,2026.1.1,Win32,59.88023952,5ced66139b5b490001b688ed,69b92ab4aef6dee357cd729a,69b92b4c3fb549cd7f811a4b,0.189,0.1891,0,153,153,86,1,eightsix,,,,,,,,,,,,,,,,,,,,,,,,,,,,,,,,,,,,,,,,,,,,,,,,,,,,,,,,,,,,,,,,,,,,,,,,,,,,,,,,,,,,,,,,,,,,,,,,,,,,,,,,,,,,,,,,,,,,,,,,,,,,,,,,,,,,,,,,,
,,5ced66139b5b490001b688ed,2026-03-17_10h22.28.041,kallum_motion_pilot_GIST_update_2,2026.1.1,Win32,59.88023952,5ced66139b5b490001b688ed,69b92ab4aef6dee357cd729a,69b92b4c3fb549cd7f811a4b,0.1903,0.1904,0,154,154,132,1,sevenfive,,,,,,,,,,,,,,,,,,,,,,,,,,,,,,,,,,,,,,,,,,,,,,,,,,,,,,,,,,,,,,,,,,,,,,,,,,,,,,,,,,,,,,,,,,,,,,,,,,,,,,,,,,,,,,,,,,,,,,,,,,,,,,,,,,,,,,,,,
,,5ced66139b5b490001b688ed,2026-03-17_10h22.28.041,kallum_motion_pilot_GIST_update_2,2026.1.1,Win32,59.88023952,5ced66139b5b490001b688ed,69b92ab4aef6dee357cd729a,69b92b4c3fb549cd7f811a4b,0.1912,0.1913,0,155,155,91,1,sixeight,,,,,,,,,,,,,,,,,,,,,,,,,,,,,,,,,,,,,,,,,,,,,,,,,,,,,,,,,,,,,,,,,,,,,,,,,,,,,,,,,,,,,,,,,,,,,,,,,,,,,,,,,,,,,,,,,,,,,,,,,,,,,,,,,,,,,,,,,
,,5ced66139b5b490001b688ed,2026-03-17_10h22.28.041,kallum_motion_pilot_GIST_update_2,2026.1.1,Win32,59.88023952,5ced66139b5b490001b688ed,69b92ab4aef6dee357cd729a,69b92b4c3fb549cd7f811a4b,0.1921,0.1923,0,156,156,65,1,onethree,,,,,,,,,,,,,,,,,,,,,,,,,,,,,,,,,,,,,,,,,,,,,,,,,,,,,,,,,,,,,,,,,,,,,,,,,,,,,,,,,,,,,,,,,,,,,,,,,,,,,,,,,,,,,,,,,,,,,,,,,,,,,,,,,,,,,,,,,
,,5ced66139b5b490001b688ed,2026-03-17_10h22.28.041,kallum_motion_pilot_GIST_update_2,2026.1.1,Win32,59.88023952,5ced66139b5b490001b688ed,69b92ab4aef6dee357cd729a,69b92b4c3fb549cd7f811a4b,0.1935,0.1935,0,157,157,135,1,eightseven,,,,,,,,,,,,,,,,,,,,,,,,,,,,,,,,,,,,,,,,,,,,,,,,,,,,,,,,,,,,,,,,,,,,,,,,,,,,,,,,,,,,,,,,,,,,,,,,,,,,,,,,,,,,,,,,,,,,,,,,,,,,,,,,,,,,,,,,,
,,5ced66139b5b490001b688ed,2026-03-17_10h22.28.041,kallum_motion_pilot_GIST_update_2,2026.1.1,Win32,59.88023952,5ced66139b5b490001b688ed,69b92ab4aef6dee357cd729a,69b92b4c3fb549cd7f811a4b,0.1944,0.1945,0,158,158,156,1,sevenfive,,,,,,,,,,,,,,,,,,,,,,,,,,,,,,,,,,,,,,,,,,,,,,,,,,,,,,,,,,,,,,,,,,,,,,,,,,,,,,,,,,,,,,,,,,,,,,,,,,,,,,,,,,,,,,,,,,,,,,,,,,,,,,,,,,,,,,,,,
,,5ced66139b5b490001b688ed,2026-03-17_10h22.28.041,kallum_motion_pilot_GIST_update_2,2026.1.1,Win32,59.88023952,5ced66139b5b490001b688ed,69b92ab4aef6dee357cd729a,69b92b4c3fb549cd7f811a4b,0.1963,0.1964,0,159,159,40,1,onetwo,,,,,,,,,,,,,,,,,,,,,,,,,,,,,,,,,,,,,,,,,,,,,,,,,,,,,,,,,,,,,,,,,,,,,,,,,,,,,,,,,,,,,,,,,,,,,,,,,,,,,,,,,,,,,,,,,,,,,,,,,,,,,,,,,,,,,,,,,
,,5ced66139b5b490001b688ed,2026-03-17_10h22.28.041,kallum_motion_pilot_GIST_update_2,2026.1.1,Win32,59.88023952,5ced66139b5b490001b688ed,69b92ab4aef6dee357cd729a,69b92b4c3fb549cd7f811a4b,0.1973,0.1974,0,160,160,66,1,twoone,,,,,,,,,,,,,,,,,,,,,,,,,,,,,,,,,,,,,,,,,,,,,,,,,,,,,,,,,,,,,,,,,,,,,,,,,,,,,,,,,,,,,,,,,,,,,,,,,,,,,,,,,,,,,,,,,,,,,,,,,,,,,,,,,,,,,,,,,
,,5ced66139b5b490001b688ed,2026-03-17_10h22.28.041,kallum_motion_pilot_GIST_update_2,2026.1.1,Win32,59.88023952,5ced66139b5b490001b688ed,69b92ab4aef6dee357cd729a,69b92b4c3fb549cd7f811a4b,0.1983,0.1984,0,161,161,83,1,sixeight,,,,,,,,,,,,,,,,,,,,,,,,,,,,,,,,,,,,,,,,,,,,,,,,,,,,,,,,,,,,,,,,,,,,,,,,,,,,,,,,,,,,,,,,,,,,,,,,,,,,,,,,,,,,,,,,,,,,,,,,,,,,,,,,,,,,,,,,,
,,5ced66139b5b490001b688ed,2026-03-17_10h22.28.041,kallum_motion_pilot_GIST_update_2,2026.1.1,Win32,59.88023952,5ced66139b5b490001b688ed,69b92ab4aef6dee357cd729a,69b92b4c3fb549cd7f811a4b,0.1994,0.1995,1,0,162,15,1,fourthree,,,,,,,,,,,,,,,,,,,,,,,,,,,,,,,,,,,,,,,,,,,,,,,,,,,,,,,,,,,,,,,,,,,,,,,,,,,,,,,,,,,,,,,,,,,,,,,,,,,,,,,,,,,,,,,,,,,,,,,,,,,,,,,,,,,,,,,,,
,,5ced66139b5b490001b688ed,2026-03-17_10h22.28.041,kallum_motion_pilot_GIST_update_2,2026.1.1,Win32,59.88023952,5ced66139b5b490001b688ed,69b92ab4aef6dee357cd729a,69b92b4c3fb549cd7f811a4b,0.2011,0.2012,1,1,163,64,1,onetwo,,,,,,,,,,,,,,,,,,,,,,,,,,,,,,,,,,,,,,,,,,,,,,,,,,,,,,,,,,,,,,,,,,,,,,,,,,,,,,,,,,,,,,,,,,,,,,,,,,,,,,,,,,,,,,,,,,,,,,,,,,,,,,,,,,,,,,,,,
,,5ced66139b5b490001b688ed,2026-03-17_10h22.28.041,kallum_motion_pilot_GIST_update_2,2026.1.1,Win32,59.88023952,5ced66139b5b490001b688ed,69b92ab4aef6dee357cd729a,69b92b4c3fb549cd7f811a4b,0.2023,0.2027,1,2,164,156,1,sevenfive,,,,,,,,,,,,,,,,,,,,,,,,,,,,,,,,,,,,,,,,,,,,,,,,,,,,,,,,,,,,,,,,,,,,,,,,,,,,,,,,,,,,,,,,,,,,,,,,,,,,,,,,,,,,,,,,,,,,,,,,,,,,,,,,,,,,,,,,,
,,5ced66139b5b490001b688ed,2026-03-17_10h22.28.041,kallum_motion_pilot_GIST_update_2,2026.1.1,Win32,59.88023952,5ced66139b5b490001b688ed,69b92ab4aef6dee357cd729a,69b92b4c3fb549cd7f811a4b,0.2038,0.2038,1,3,165,123,1,sixeight,,,,,,,,,,,,,,,,,,,,,,,,,,,,,,,,,,,,,,,,,,,,,,,,,,,,,,,,,,,,,,,,,,,,,,,,,,,,,,,,,,,,,,,,,,,,,,,,,,,,,,,,,,,,,,,,,,,,,,,,,,,,,,,,,,,,,,,,,
,,5ced66139b5b490001b688ed,2026-03-17_10h22.28.041,kallum_motion_pilot_GIST_update_2,2026.1.1,Win32,59.88023952,5ced66139b5b490001b688ed,69b92ab4aef6dee357cd729a,69b92b4c3fb549cd7f811a4b,0.2047,0.2048,1,4,166,110,1,eightsix,,,,,,,,,,,,,,,,,,,,,,,,,,,,,,,,,,,,,,,,,,,,,,,,,,,,,,,,,,,,,,,,,,,,,,,,,,,,,,,,,,,,,,,,,,,,,,,,,,,,,,,,,,,,,,,,,,,,,,,,,,,,,,,,,,,,,,,,,
,,5ced66139b5b490001b688ed,2026-03-17_10h22.28.041,kallum_motion_pilot_GIST_update_2,2026.1.1,Win32,59.88023952,5ced66139b5b490001b688ed,69b92ab4aef6dee357cd729a,69b92b4c3fb549cd7f811a4b,0.206,0.2061,1,5,167,70,1,fourtwo,,,,,,,,,,,,,,,,,,,,,,,,,,,,,,,,,,,,,,,,,,,,,,,,,,,,,,,,,,,,,,,,,,,,,,,,,,,,,,,,,,,,,,,,,,,,,,,,,,,,,,,,,,,,,,,,,,,,,,,,,,,,,,,,,,,,,,,,,
,,5ced66139b5b490001b688ed,2026-03-17_10h22.28.041,kallum_motion_pilot_GIST_update_2,2026.1.1,Win32,59.88023952,5ced66139b5b490001b688ed,69b92ab4aef6dee357cd729a,69b92b4c3fb549cd7f811a4b,0.2069,0.2071,1,6,168,28,1,threeone,,,,,,,,,,,,,,,,,,,,,,,,,,,,,,,,,,,,,,,,,,,,,,,,,,,,,,,,,,,,,,,,,,,,,,,,,,,,,,,,,,,,,,,,,,,,,,,,,,,,,,,,,,,,,,,,,,,,,,,,,,,,,,,,,,,,,,,,,
,,5ced66139b5b490001b688ed,2026-03-17_10h22.28.041,kallum_motion_pilot_GIST_update_2,2026.1.1,Win32,59.88023952,5ced66139b5b490001b688ed,69b92ab4aef6dee357cd729a,69b92b4c3fb549cd7f811a4b,0.2079,0.2079,1,7,169,61,1,threefour,,,,,,,,,,,,,,,,,,,,,,,,,,,,,,,,,,,,,,,,,,,,,,,,,,,,,,,,,,,,,,,,,,,,,,,,,,,,,,,,,,,,,,,,,,,,,,,,,,,,,,,,,,,,,,,,,,,,,,,,,,,,,,,,,,,,,,,,,
,,5ced66139b5b490001b688ed,2026-03-17_10h22.28.041,kallum_motion_pilot_GIST_update_2,2026.1.1,Win32,59.88023952,5ced66139b5b490001b688ed,69b92ab4aef6dee357cd729a,69b92b4c3fb549cd7f811a4b,0.2088,0.2088,1,8,170,22,1,fourtwo,,,,,,,,,,,,,,,,,,,,,,,,,,,,,,,,,,,,,,,,,,,,,,,,,,,,,,,,,,,,,,,,,,,,,,,,,,,,,,,,,,,,,,,,,,,,,,,,,,,,,,,,,,,,,,,,,,,,,,,,,,,,,,,,,,,,,,,,,
,,5ced66139b5b490001b688ed,2026-03-17_10h22.28.041,kallum_motion_pilot_GIST_update_2,2026.1.1,Win32,59.88023952,5ced66139b5b490001b688ed,69b92ab4aef6dee357cd729a,69b92b4c3fb549cd7f811a4b,0.2135,0.2136,1,9,171,84,1,sevenfive,,,,,,,,,,,,,,,,,,,,,,,,,,,,,,,,,,,,,,,,,,,,,,,,,,,,,,,,,,,,,,,,,,,,,,,,,,,,,,,,,,,,,,,,,,,,,,,,,,,,,,,,,,,,,,,,,,,,,,,,,,,,,,,,,,,,,,,,,
,,5ced66139b5b490001b688ed,2026-03-17_10h22.28.041,kallum_motion_pilot_GIST_update_2,2026.1.1,Win32,59.88023952,5ced66139b5b490001b688ed,69b92ab4aef6dee357cd729a,69b92b4c3fb549cd7f811a4b,0.2144,0.2144,1,10,172,111,1,eightseven,,,,,,,,,,,,,,,,,,,,,,,,,,,,,,,,,,,,,,,,,,,,,,,,,,,,,,,,,,,,,,,,,,,,,,,,,,,,,,,,,,,,,,,,,,,,,,,,,,,,,,,,,,,,,,,,,,,,,,,,,,,,,,,,,,,,,,,,,
,,5ced66139b5b490001b688ed,2026-03-17_10h22.28.041,kallum_motion_pilot_GIST_update_2,2026.1.1,Win32,59.88023952,5ced66139b5b490001b688ed,69b92ab4aef6dee357cd729a,69b92b4c3fb549cd7f811a4b,0.2154,0.2154,1,11,173,95,1,eightseven,,,,,,,,,,,,,,,,,,,,,,,,,,,,,,,,,,,,,,,,,,,,,,,,,,,,,,,,,,,,,,,,,,,,,,,,,,,,,,,,,,,,,,,,,,,,,,,,,,,,,,,,,,,,,,,,,,,,,,,,,,,,,,,,,,,,,,,,,
,,5ced66139b5b490001b688ed,2026-03-17_10h22.28.041,kallum_motion_pilot_GIST_update_2,2026.1.1,Win32,59.88023952,5ced66139b5b490001b688ed,69b92ab4aef6dee357cd729a,69b92b4c3fb549cd7f811a4b,0.2163,0.2165,1,12,174,9,1,onethree,,,,,,,,,,,,,,,,,,,,,,,,,,,,,,,,,,,,,,,,,,,,,,,,,,,,,,,,,,,,,,,,,,,,,,,,,,,,,,,,,,,,,,,,,,,,,,,,,,,,,,,,,,,,,,,,,,,,,,,,,,,,,,,,,,,,,,,,,
,,5ced66139b5b490001b688ed,2026-03-17_10h22.28.041,kallum_motion_pilot_GIST_update_2,2026.1.1,Win32,59.88023952,5ced66139b5b490001b688ed,69b92ab4aef6dee357cd729a,69b92b4c3fb549cd7f811a4b,0.2171,0.2173,1,13,175,19,1,twofour,,,,,,,,,,,,,,,,,,,,,,,,,,,,,,,,,,,,,,,,,,,,,,,,,,,,,,,,,,,,,,,,,,,,,,,,,,,,,,,,,,,,,,,,,,,,,,,,,,,,,,,,,,,,,,,,,,,,,,,,,,,,,,,,,,,,,,,,,
,,5ced66139b5b490001b688ed,2026-03-17_10h22.28.041,kallum_motion_pilot_GIST_update_2,2026.1.1,Win32,59.88023952,5ced66139b5b490001b688ed,69b92ab4aef6dee357cd729a,69b92b4c3fb549cd7f811a4b,0.218,0.218,1,14,176,139,1,sixeight,,,,,,,,,,,,,,,,,,,,,,,,,,,,,,,,,,,,,,,,,,,,,,,,,,,,,,,,,,,,,,,,,,,,,,,,,,,,,,,,,,,,,,,,,,,,,,,,,,,,,,,,,,,,,,,,,,,,,,,,,,,,,,,,,,,,,,,,,
,,5ced66139b5b490001b688ed,2026-03-17_10h22.28.041,kallum_motion_pilot_GIST_update_2,2026.1.1,Win32,59.88023952,5ced66139b5b490001b688ed,69b92ab4aef6dee357cd729a,69b92b4c3fb549cd7f811a4b,0.2187,0.2187,1,15,177,144,1,fivesix,,,,,,,,,,,,,,,,,,,,,,,,,,,,,,,,,,,,,,,,,,,,,,,,,,,,,,,,,,,,,,,,,,,,,,,,,,,,,,,,,,,,,,,,,,,,,,,,,,,,,,,,,,,,,,,,,,,,,,,,,,,,,,,,,,,,,,,,,
,,5ced66139b5b490001b688ed,2026-03-17_10h22.28.041,kallum_motion_pilot_GIST_update_2,2026.1.1,Win32,59.88023952,5ced66139b5b490001b688ed,69b92ab4aef6dee357cd729a,69b92b4c3fb549cd7f811a4b,0.2194,0.2196,1,16,178,51,1,twofour,,,,,,,,,,,,,,,,,,,,,,,,,,,,,,,,,,,,,,,,,,,,,,,,,,,,,,,,,,,,,,,,,,,,,,,,,,,,,,,,,,,,,,,,,,,,,,,,,,,,,,,,,,,,,,,,,,,,,,,,,,,,,,,,,,,,,,,,,
,,5ced66139b5b490001b688ed,2026-03-17_10h22.28.041,kallum_motion_pilot_GIST_update_2,2026.1.1,Win32,59.88023952,5ced66139b5b490001b688ed,69b92ab4aef6dee357cd729a,69b92b4c3fb549cd7f811a4b,0.2202,0.2203,1,17,179,26,1,twoone,,,,,,,,,,,,,,,,,,,,,,,,,,,,,,,,,,,,,,,,,,,,,,,,,,,,,,,,,,,,,,,,,,,,,,,,,,,,,,,,,,,,,,,,,,,,,,,,,,,,,,,,,,,,,,,,,,,,,,,,,,,,,,,,,,,,,,,,,
,,5ced66139b5b490001b688ed,2026-03-17_10h22.28.041,kallum_motion_pilot_GIST_update_2,2026.1.1,Win32,59.88023952,5ced66139b5b490001b688ed,69b92ab4aef6dee357cd729a,69b92b4c3fb549cd7f811a4b,0.221,0.2211,1,18,180,134,1,eightsix,,,,,,,,,,,,,,,,,,,,,,,,,,,,,,,,,,,,,,,,,,,,,,,,,,,,,,,,,,,,,,,,,,,,,,,,,,,,,,,,,,,,,,,,,,,,,,,,,,,,,,,,,,,,,,,,,,,,,,,,,,,,,,,,,,,,,,,,,
,,5ced66139b5b490001b688ed,2026-03-17_10h22.28.041,kallum_motion_pilot_GIST_update_2,2026.1.1,Win32,59.88023952,5ced66139b5b490001b688ed,69b92ab4aef6dee357cd729a,69b92b4c3fb549cd7f811a4b,0.2219,0.2221,1,19,181,81,1,fiveseven,,,,,,,,,,,,,,,,,,,,,,,,,,,,,,,,,,,,,,,,,,,,,,,,,,,,,,,,,,,,,,,,,,,,,,,,,,,,,,,,,,,,,,,,,,,,,,,,,,,,,,,,,,,,,,,,,,,,,,,,,,,,,,,,,,,,,,,,,
,,5ced66139b5b490001b688ed,2026-03-17_10h22.28.041,kallum_motion_pilot_GIST_update_2,2026.1.1,Win32,59.88023952,5ced66139b5b490001b688ed,69b92ab4aef6dee357cd729a,69b92b4c3fb549cd7f811a4b,0.223,0.2231,1,20,182,129,1,fiveseven,,,,,,,,,,,,,,,,,,,,,,,,,,,,,,,,,,,,,,,,,,,,,,,,,,,,,,,,,,,,,,,,,,,,,,,,,,,,,,,,,,,,,,,,,,,,,,,,,,,,,,,,,,,,,,,,,,,,,,,,,,,,,,,,,,,,,,,,,
,,5ced66139b5b490001b688ed,2026-03-17_10h22.28.041,kallum_motion_pilot_GIST_update_2,2026.1.1,Win32,59.88023952,5ced66139b5b490001b688ed,69b92ab4aef6dee357cd729a,69b92b4c3fb549cd7f811a4b,0.2238,0.2238,1,21,183,136,1,fivesix,,,,,,,,,,,,,,,,,,,,,,,,,,,,,,,,,,,,,,,,,,,,,,,,,,,,,,,,,,,,,,,,,,,,,,,,,,,,,,,,,,,,,,,,,,,,,,,,,,,,,,,,,,,,,,,,,,,,,,,,,,,,,,,,,,,,,,,,,
,,5ced66139b5b490001b688ed,2026-03-17_10h22.28.041,kallum_motion_pilot_GIST_update_2,2026.1.1,Win32,59.88023952,5ced66139b5b490001b688ed,69b92ab4aef6dee357cd729a,69b92b4c3fb549cd7f811a4b,0.2245,0.2246,1,22,184,74,1,twoone,,,,,,,,,,,,,,,,,,,,,,,,,,,,,,,,,,,,,,,,,,,,,,,,,,,,,,,,,,,,,,,,,,,,,,,,,,,,,,,,,,,,,,,,,,,,,,,,,,,,,,,,,,,,,,,,,,,,,,,,,,,,,,,,,,,,,,,,,
,,5ced66139b5b490001b688ed,2026-03-17_10h22.28.041,kallum_motion_pilot_GIST_update_2,2026.1.1,Win32,59.88023952,5ced66139b5b490001b688ed,69b92ab4aef6dee357cd729a,69b92b4c3fb549cd7f811a4b,0.2257,0.2258,1,23,185,137,1,fiveseven,,,,,,,,,,,,,,,,,,,,,,,,,,,,,,,,,,,,,,,,,,,,,,,,,,,,,,,,,,,,,,,,,,,,,,,,,,,,,,,,,,,,,,,,,,,,,,,,,,,,,,,,,,,,,,,,,,,,,,,,,,,,,,,,,,,,,,,,,
,,5ced66139b5b490001b688ed,2026-03-17_10h22.28.041,kallum_motion_pilot_GIST_update_2,2026.1.1,Win32,59.88023952,5ced66139b5b490001b688ed,69b92ab4aef6dee357cd729a,69b92b4c3fb549cd7f811a4b,0.2266,0.2267,1,24,186,7,1,fourthree,,,,,,,,,,,,,,,,,,,,,,,,,,,,,,,,,,,,,,,,,,,,,,,,,,,,,,,,,,,,,,,,,,,,,,,,,,,,,,,,,,,,,,,,,,,,,,,,,,,,,,,,,,,,,,,,,,,,,,,,,,,,,,,,,,,,,,,,,
,,5ced66139b5b490001b688ed,2026-03-17_10h22.28.041,kallum_motion_pilot_GIST_update_2,2026.1.1,Win32,59.88023952,5ced66139b5b490001b688ed,69b92ab4aef6dee357cd729a,69b92b4c3fb549cd7f811a4b,0.2274,0.2275,1,25,187,52,1,threeone,,,,,,,,,,,,,,,,,,,,,,,,,,,,,,,,,,,,,,,,,,,,,,,,,,,,,,,,,,,,,,,,,,,,,,,,,,,,,,,,,,,,,,,,,,,,,,,,,,,,,,,,,,,,,,,,,,,,,,,,,,,,,,,,,,,,,,,,,
,,5ced66139b5b490001b688ed,2026-03-17_10h22.28.041,kallum_motion_pilot_GIST_update_2,2026.1.1,Win32,59.88023952,5ced66139b5b490001b688ed,69b92ab4aef6dee357cd729a,69b92b4c3fb549cd7f811a4b,0.2282,0.2283,1,26,188,133,1,seveneight,,,,,,,,,,,,,,,,,,,,,,,,,,,,,,,,,,,,,,,,,,,,,,,,,,,,,,,,,,,,,,,,,,,,,,,,,,,,,,,,,,,,,,,,,,,,,,,,,,,,,,,,,,,,,,,,,,,,,,,,,,,,,,,,,,,,,,,,,
,,5ced66139b5b490001b688ed,2026-03-17_10h22.28.041,kallum_motion_pilot_GIST_update_2,2026.1.1,Win32,59.88023952,5ced66139b5b490001b688ed,69b92ab4aef6dee357cd729a,69b92b4c3fb549cd7f811a4b,0.2296,0.2296,1,27,189,91,1,sixeight,,,,,,,,,,,,,,,,,,,,,,,,,,,,,,,,,,,,,,,,,,,,,,,,,,,,,,,,,,,,,,,,,,,,,,,,,,,,,,,,,,,,,,,,,,,,,,,,,,,,,,,,,,,,,,,,,,,,,,,,,,,,,,,,,,,,,,,,,
,,5ced66139b5b490001b688ed,2026-03-17_10h22.28.041,kallum_motion_pilot_GIST_update_2,2026.1.1,Win32,59.88023952,5ced66139b5b490001b688ed,69b92ab4aef6dee357cd729a,69b92b4c3fb549cd7f811a4b,0.2303,0.2304,1,28,190,20,1,threeone,,,,,,,,,,,,,,,,,,,,,,,,,,,,,,,,,,,,,,,,,,,,,,,,,,,,,,,,,,,,,,,,,,,,,,,,,,,,,,,,,,,,,,,,,,,,,,,,,,,,,,,,,,,,,,,,,,,,,,,,,,,,,,,,,,,,,,,,,
,,5ced66139b5b490001b688ed,2026-03-17_10h22.28.041,kallum_motion_pilot_GIST_update_2,2026.1.1,Win32,59.88023952,5ced66139b5b490001b688ed,69b92ab4aef6dee357cd729a,69b92b4c3fb549cd7f811a4b,0.231,0.231,1,29,191,71,1,fourthree,,,,,,,,,,,,,,,,,,,,,,,,,,,,,,,,,,,,,,,,,,,,,,,,,,,,,,,,,,,,,,,,,,,,,,,,,,,,,,,,,,,,,,,,,,,,,,,,,,,,,,,,,,,,,,,,,,,,,,,,,,,,,,,,,,,,,,,,,
,,5ced66139b5b490001b688ed,2026-03-17_10h22.28.041,kallum_motion_pilot_GIST_update_2,2026.1.1,Win32,59.88023952,5ced66139b5b490001b688ed,69b92ab4aef6dee357cd729a,69b92b4c3fb549cd7f811a4b,0.2317,0.2318,1,30,192,57,1,onethree,,,,,,,,,,,,,,,,,,,,,,,,,,,,,,,,,,,,,,,,,,,,,,,,,,,,,,,,,,,,,,,,,,,,,,,,,,,,,,,,,,,,,,,,,,,,,,,,,,,,,,,,,,,,,,,,,,,,,,,,,,,,,,,,,,,,,,,,,
,,5ced66139b5b490001b688ed,2026-03-17_10h22.28.041,kallum_motion_pilot_GIST_update_2,2026.1.1,Win32,59.88023952,5ced66139b5b490001b688ed,69b92ab4aef6dee357cd729a,69b92b4c3fb549cd7f811a4b,0.2328,0.2329,1,31,193,18,1,twoone,,,,,,,,,,,,,,,,,,,,,,,,,,,,,,,,,,,,,,,,,,,,,,,,,,,,,,,,,,,,,,,,,,,,,,,,,,,,,,,,,,,,,,,,,,,,,,,,,,,,,,,,,,,,,,,,,,,,,,,,,,,,,,,,,,,,,,,,,
,,5ced66139b5b490001b688ed,2026-03-17_10h22.28.041,kallum_motion_pilot_GIST_update_2,2026.1.1,Win32,59.88023952,5ced66139b5b490001b688ed,69b92ab4aef6dee357cd729a,69b92b4c3fb549cd7f811a4b,0.2336,0.2337,1,32,194,138,1,sixfive,,,,,,,,,,,,,,,,,,,,,,,,,,,,,,,,,,,,,,,,,,,,,,,,,,,,,,,,,,,,,,,,,,,,,,,,,,,,,,,,,,,,,,,,,,,,,,,,,,,,,,,,,,,,,,,,,,,,,,,,,,,,,,,,,,,,,,,,,
,,5ced66139b5b490001b688ed,2026-03-17_10h22.28.041,kallum_motion_pilot_GIST_update_2,2026.1.1,Win32,59.88023952,5ced66139b5b490001b688ed,69b92ab4aef6dee357cd729a,69b92b4c3fb549cd7f811a4b,0.2343,0.2345,1,33,195,145,1,fiveseven,,,,,,,,,,,,,,,,,,,,,,,,,,,,,,,,,,,,,,,,,,,,,,,,,,,,,,,,,,,,,,,,,,,,,,,,,,,,,,,,,,,,,,,,,,,,,,,,,,,,,,,,,,,,,,,,,,,,,,,,,,,,,,,,,,,,,,,,,
,,5ced66139b5b490001b688ed,2026-03-17_10h22.28.041,kallum_motion_pilot_GIST_update_2,2026.1.1,Win32,59.88023952,5ced66139b5b490001b688ed,69b92ab4aef6dee357cd729a,69b92b4c3fb549cd7f811a4b,0.2354,0.2354,1,34,196,88,1,fivesix,,,,,,,,,,,,,,,,,,,,,,,,,,,,,,,,,,,,,,,,,,,,,,,,,,,,,,,,,,,,,,,,,,,,,,,,,,,,,,,,,,,,,,,,,,,,,,,,,,,,,,,,,,,,,,,,,,,,,,,,,,,,,,,,,,,,,,,,,
,,5ced66139b5b490001b688ed,2026-03-17_10h22.28.041,kallum_motion_pilot_GIST_update_2,2026.1.1,Win32,59.88023952,5ced66139b5b490001b688ed,69b92ab4aef6dee357cd729a,69b92b4c3fb549cd7f811a4b,0.2363,0.2365,1,35,197,39,1,fourthree,,,,,,,,,,,,,,,,,,,,,,,,,,,,,,,,,,,,,,,,,,,,,,,,,,,,,,,,,,,,,,,,,,,,,,,,,,,,,,,,,,,,,,,,,,,,,,,,,,,,,,,,,,,,,,,,,,,,,,,,,,,,,,,,,,,,,,,,,
,,5ced66139b5b490001b688ed,2026-03-17_10h22.28.041,kallum_motion_pilot_GIST_update_2,2026.1.1,Win32,59.88023952,5ced66139b5b490001b688ed,69b92ab4aef6dee357cd729a,69b92b4c3fb549cd7f811a4b,0.2371,0.2372,1,36,198,80,1,fivesix,,,,,,,,,,,,,,,,,,,,,,,,,,,,,,,,,,,,,,,,,,,,,,,,,,,,,,,,,,,,,,,,,,,,,,,,,,,,,,,,,,,,,,,,,,,,,,,,,,,,,,,,,,,,,,,,,,,,,,,,,,,,,,,,,,,,,,,,,
,,5ced66139b5b490001b688ed,2026-03-17_10h22.28.041,kallum_motion_pilot_GIST_update_2,2026.1.1,Win32,59.88023952,5ced66139b5b490001b688ed,69b92ab4aef6dee357cd729a,69b92b4c3fb549cd7f811a4b,0.2379,0.2379,1,37,199,142,1,eightsix,,,,,,,,,,,,,,,,,,,,,,,,,,,,,,,,,,,,,,,,,,,,,,,,,,,,,,,,,,,,,,,,,,,,,,,,,,,,,,,,,,,,,,,,,,,,,,,,,,,,,,,,,,,,,,,,,,,,,,,,,,,,,,,,,,,,,,,,,
,,5ced66139b5b490001b688ed,2026-03-17_10h22.28.041,kallum_motion_pilot_GIST_update_2,2026.1.1,Win32,59.88023952,5ced66139b5b490001b688ed,69b92ab4aef6dee357cd729a,69b92b4c3fb549cd7f811a4b,0.2386,0.2387,1,38,200,23,1,fourthree,,,,,,,,,,,,,,,,,,,,,,,,,,,,,,,,,,,,,,,,,,,,,,,,,,,,,,,,,,,,,,,,,,,,,,,,,,,,,,,,,,,,,,,,,,,,,,,,,,,,,,,,,,,,,,,,,,,,,,,,,,,,,,,,,,,,,,,,,
,,5ced66139b5b490001b688ed,2026-03-17_10h22.28.041,kallum_motion_pilot_GIST_update_2,2026.1.1,Win32,59.88023952,5ced66139b5b490001b688ed,69b92ab4aef6dee357cd729a,69b92b4c3fb549cd7f811a4b,0.2395,0.2395,1,39,201,82,1,sixfive,,,,,,,,,,,,,,,,,,,,,,,,,,,,,,,,,,,,,,,,,,,,,,,,,,,,,,,,,,,,,,,,,,,,,,,,,,,,,,,,,,,,,,,,,,,,,,,,,,,,,,,,,,,,,,,,,,,,,,,,,,,,,,,,,,,,,,,,,
,,5ced66139b5b490001b688ed,2026-03-17_10h22.28.041,kallum_motion_pilot_GIST_update_2,2026.1.1,Win32,59.88023952,5ced66139b5b490001b688ed,69b92ab4aef6dee357cd729a,69b92b4c3fb549cd7f811a4b,0.2402,0.2403,1,40,202,113,1,fiveseven,,,,,,,,,,,,,,,,,,,,,,,,,,,,,,,,,,,,,,,,,,,,,,,,,,,,,,,,,,,,,,,,,,,,,,,,,,,,,,,,,,,,,,,,,,,,,,,,,,,,,,,,,,,,,,,,,,,,,,,,,,,,,,,,,,,,,,,,,
,,5ced66139b5b490001b688ed,2026-03-17_10h22.28.041,kallum_motion_pilot_GIST_update_2,2026.1.1,Win32,59.88023952,5ced66139b5b490001b688ed,69b92ab4aef6dee357cd729a,69b92b4c3fb549cd7f811a4b,0.2409,0.241,1,41,203,131,1,sixeight,,,,,,,,,,,,,,,,,,,,,,,,,,,,,,,,,,,,,,,,,,,,,,,,,,,,,,,,,,,,,,,,,,,,,,,,,,,,,,,,,,,,,,,,,,,,,,,,,,,,,,,,,,,,,,,,,,,,,,,,,,,,,,,,,,,,,,,,,
,,5ced66139b5b490001b688ed,2026-03-17_10h22.28.041,kallum_motion_pilot_GIST_update_2,2026.1.1,Win32,59.88023952,5ced66139b5b490001b688ed,69b92ab4aef6dee357cd729a,69b92b4c3fb549cd7f811a4b,0.2416,0.2418,1,42,204,47,1,fourthree,,,,,,,,,,,,,,,,,,,,,,,,,,,,,,,,,,,,,,,,,,,,,,,,,,,,,,,,,,,,,,,,,,,,,,,,,,,,,,,,,,,,,,,,,,,,,,,,,,,,,,,,,,,,,,,,,,,,,,,,,,,,,,,,,,,,,,,,,
,,5ced66139b5b490001b688ed,2026-03-17_10h22.28.041,kallum_motion_pilot_GIST_update_2,2026.1.1,Win32,59.88023952,5ced66139b5b490001b688ed,69b92ab4aef6dee357cd729a,69b92b4c3fb549cd7f811a4b,0.2426,0.2426,1,43,205,104,1,fivesix,,,,,,,,,,,,,,,,,,,,,,,,,,,,,,,,,,,,,,,,,,,,,,,,,,,,,,,,,,,,,,,,,,,,,,,,,,,,,,,,,,,,,,,,,,,,,,,,,,,,,,,,,,,,,,,,,,,,,,,,,,,,,,,,,,,,,,,,,
,,5ced66139b5b490001b688ed,2026-03-17_10h22.28.041,kallum_motion_pilot_GIST_update_2,2026.1.1,Win32,59.88023952,5ced66139b5b490001b688ed,69b92ab4aef6dee357cd729a,69b92b4c3fb549cd7f811a4b,0.2434,0.2434,1,44,206,92,1,sevenfive,,,,,,,,,,,,,,,,,,,,,,,,,,,,,,,,,,,,,,,,,,,,,,,,,,,,,,,,,,,,,,,,,,,,,,,,,,,,,,,,,,,,,,,,,,,,,,,,,,,,,,,,,,,,,,,,,,,,,,,,,,,,,,,,,,,,,,,,,
,,5ced66139b5b490001b688ed,2026-03-17_10h22.28.041,kallum_motion_pilot_GIST_update_2,2026.1.1,Win32,59.88023952,5ced66139b5b490001b688ed,69b92ab4aef6dee357cd729a,69b92b4c3fb549cd7f811a4b,0.2443,0.2443,1,45,207,10,1,twoone,,,,,,,,,,,,,,,,,,,,,,,,,,,,,,,,,,,,,,,,,,,,,,,,,,,,,,,,,,,,,,,,,,,,,,,,,,,,,,,,,,,,,,,,,,,,,,,,,,,,,,,,,,,,,,,,,,,,,,,,,,,,,,,,,,,,,,,,,
,,5ced66139b5b490001b688ed,2026-03-17_10h22.28.041,kallum_motion_pilot_GIST_update_2,2026.1.1,Win32,59.88023952,5ced66139b5b490001b688ed,69b92ab4aef6dee357cd729a,69b92b4c3fb549cd7f811a4b,0.2459,0.2461,1,46,208,40,1,onetwo,,,,,,,,,,,,,,,,,,,,,,,,,,,,,,,,,,,,,,,,,,,,,,,,,,,,,,,,,,,,,,,,,,,,,,,,,,,,,,,,,,,,,,,,,,,,,,,,,,,,,,,,,,,,,,,,,,,,,,,,,,,,,,,,,,,,,,,,,
,,5ced66139b5b490001b688ed,2026-03-17_10h22.28.041,kallum_motion_pilot_GIST_update_2,2026.1.1,Win32,59.88023952,5ced66139b5b490001b688ed,69b92ab4aef6dee357cd729a,69b92b4c3fb549cd7f811a4b,0.2467,0.2467,1,47,209,25,1,onethree,,,,,,,,,,,,,,,,,,,,,,,,,,,,,,,,,,,,,,,,,,,,,,,,,,,,,,,,,,,,,,,,,,,,,,,,,,,,,,,,,,,,,,,,,,,,,,,,,,,,,,,,,,,,,,,,,,,,,,,,,,,,,,,,,,,,,,,,,
,,5ced66139b5b490001b688ed,2026-03-17_10h22.28.041,kallum_motion_pilot_GIST_update_2,2026.1.1,Win32,59.88023952,5ced66139b5b490001b688ed,69b92ab4aef6dee357cd729a,69b92b4c3fb549cd7f811a4b,0.2475,0.2477,1,48,210,32,1,onetwo,,,,,,,,,,,,,,,,,,,,,,,,,,,,,,,,,,,,,,,,,,,,,,,,,,,,,,,,,,,,,,,,,,,,,,,,,,,,,,,,,,,,,,,,,,,,,,,,,,,,,,,,,,,,,,,,,,,,,,,,,,,,,,,,,,,,,,,,,
,,5ced66139b5b490001b688ed,2026-03-17_10h22.28.041,kallum_motion_pilot_GIST_update_2,2026.1.1,Win32,59.88023952,5ced66139b5b490001b688ed,69b92ab4aef6dee357cd729a,69b92b4c3fb549cd7f811a4b,0.2484,0.2485,1,49,211,42,1,twoone,,,,,,,,,,,,,,,,,,,,,,,,,,,,,,,,,,,,,,,,,,,,,,,,,,,,,,,,,,,,,,,,,,,,,,,,,,,,,,,,,,,,,,,,,,,,,,,,,,,,,,,,,,,,,,,,,,,,,,,,,,,,,,,,,,,,,,,,,
,,5ced66139b5b490001b688ed,2026-03-17_10h22.28.041,kallum_motion_pilot_GIST_update_2,2026.1.1,Win32,59.88023952,5ced66139b5b490001b688ed,69b92ab4aef6dee357cd729a,69b92b4c3fb549cd7f811a4b,0.2493,0.2494,1,50,212,58,1,twoone,,,,,,,,,,,,,,,,,,,,,,,,,,,,,,,,,,,,,,,,,,,,,,,,,,,,,,,,,,,,,,,,,,,,,,,,,,,,,,,,,,,,,,,,,,,,,,,,,,,,,,,,,,,,,,,,,,,,,,,,,,,,,,,,,,,,,,,,,
,,5ced66139b5b490001b688ed,2026-03-17_10h22.28.041,kallum_motion_pilot_GIST_update_2,2026.1.1,Win32,59.88023952,5ced66139b5b490001b688ed,69b92ab4aef6dee357cd729a,69b92b4c3fb549cd7f811a4b,0.2501,0.2502,1,51,213,48,1,onetwo,,,,,,,,,,,,,,,,,,,,,,,,,,,,,,,,,,,,,,,,,,,,,,,,,,,,,,,,,,,,,,,,,,,,,,,,,,,,,,,,,,,,,,,,,,,,,,,,,,,,,,,,,,,,,,,,,,,,,,,,,,,,,,,,,,,,,,,,,
,,5ced66139b5b490001b688ed,2026-03-17_10h22.28.041,kallum_motion_pilot_GIST_update_2,2026.1.1,Win32,59.88023952,5ced66139b5b490001b688ed,69b92ab4aef6dee357cd729a,69b92b4c3fb549cd7f811a4b,0.2509,0.2509,1,52,214,154,1,sixfive,,,,,,,,,,,,,,,,,,,,,,,,,,,,,,,,,,,,,,,,,,,,,,,,,,,,,,,,,,,,,,,,,,,,,,,,,,,,,,,,,,,,,,,,,,,,,,,,,,,,,,,,,,,,,,,,,,,,,,,,,,,,,,,,,,,,,,,,,
,,5ced66139b5b490001b688ed,2026-03-17_10h22.28.041,kallum_motion_pilot_GIST_update_2,2026.1.1,Win32,59.88023952,5ced66139b5b490001b688ed,69b92ab4aef6dee357cd729a,69b92b4c3fb549cd7f811a4b,0.2517,0.2518,1,53,215,77,1,threefour,,,,,,,,,,,,,,,,,,,,,,,,,,,,,,,,,,,,,,,,,,,,,,,,,,,,,,,,,,,,,,,,,,,,,,,,,,,,,,,,,,,,,,,,,,,,,,,,,,,,,,,,,,,,,,,,,,,,,,,,,,,,,,,,,,,,,,,,,
,,5ced66139b5b490001b688ed,2026-03-17_10h22.28.041,kallum_motion_pilot_GIST_update_2,2026.1.1,Win32,59.88023952,5ced66139b5b490001b688ed,69b92ab4aef6dee357cd729a,69b92b4c3fb549cd7f811a4b,0.2528,0.2528,1,54,216,66,1,twoone,,,,,,,,,,,,,,,,,,,,,,,,,,,,,,,,,,,,,,,,,,,,,,,,,,,,,,,,,,,,,,,,,,,,,,,,,,,,,,,,,,,,,,,,,,,,,,,,,,,,,,,,,,,,,,,,,,,,,,,,,,,,,,,,,,,,,,,,,
,,5ced66139b5b490001b688ed,2026-03-17_10h22.28.041,kallum_motion_pilot_GIST_update_2,2026.1.1,Win32,59.88023952,5ced66139b5b490001b688ed,69b92ab4aef6dee357cd729a,69b92b4c3fb549cd7f811a4b,0.2537,0.2537,1,55,217,152,1,fivesix,,,,,,,,,,,,,,,,,,,,,,,,,,,,,,,,,,,,,,,,,,,,,,,,,,,,,,,,,,,,,,,,,,,,,,,,,,,,,,,,,,,,,,,,,,,,,,,,,,,,,,,,,,,,,,,,,,,,,,,,,,,,,,,,,,,,,,,,,
,,5ced66139b5b490001b688ed,2026-03-17_10h22.28.041,kallum_motion_pilot_GIST_update_2,2026.1.1,Win32,59.88023952,5ced66139b5b490001b688ed,69b92ab4aef6dee357cd729a,69b92b4c3fb549cd7f811a4b,0.2545,0.2545,1,56,218,44,1,threeone,,,,,,,,,,,,,,,,,,,,,,,,,,,,,,,,,,,,,,,,,,,,,,,,,,,,,,,,,,,,,,,,,,,,,,,,,,,,,,,,,,,,,,,,,,,,,,,,,,,,,,,,,,,,,,,,,,,,,,,,,,,,,,,,,,,,,,,,,
,,5ced66139b5b490001b688ed,2026-03-17_10h22.28.041,kallum_motion_pilot_GIST_update_2,2026.1.1,Win32,59.88023952,5ced66139b5b490001b688ed,69b92ab4aef6dee357cd729a,69b92b4c3fb549cd7f811a4b,0.2558,0.2559,1,57,219,33,1,onethree,,,,,,,,,,,,,,,,,,,,,,,,,,,,,,,,,,,,,,,,,,,,,,,,,,,,,,,,,,,,,,,,,,,,,,,,,,,,,,,,,,,,,,,,,,,,,,,,,,,,,,,,,,,,,,,,,,,,,,,,,,,,,,,,,,,,,,,,,
,,5ced66139b5b490001b688ed,2026-03-17_10h22.28.041,kallum_motion_pilot_GIST_update_2,2026.1.1,Win32,59.88023952,5ced66139b5b490001b688ed,69b92ab4aef6dee357cd729a,69b92b4c3fb549cd7f811a4b,0.2565,0.2566,1,58,220,146,1,sixfive,,,,,,,,,,,,,,,,,,,,,,,,,,,,,,,,,,,,,,,,,,,,,,,,,,,,,,,,,,,,,,,,,,,,,,,,,,,,,,,,,,,,,,,,,,,,,,,,,,,,,,,,,,,,,,,,,,,,,,,,,,,,,,,,,,,,,,,,,
,,5ced66139b5b490001b688ed,2026-03-17_10h22.28.041,kallum_motion_pilot_GIST_update_2,2026.1.1,Win32,59.88023952,5ced66139b5b490001b688ed,69b92ab4aef6dee357cd729a,69b92b4c3fb549cd7f811a4b,0.2573,0.2573,1,59,221,114,1,sixfive,,,,,,,,,,,,,,,,,,,,,,,,,,,,,,,,,,,,,,,,,,,,,,,,,,,,,,,,,,,,,,,,,,,,,,,,,,,,,,,,,,,,,,,,,,,,,,,,,,,,,,,,,,,,,,,,,,,,,,,,,,,,,,,,,,,,,,,,,
,,5ced66139b5b490001b688ed,2026-03-17_10h22.28.041,kallum_motion_pilot_GIST_update_2,2026.1.1,Win32,59.88023952,5ced66139b5b490001b688ed,69b92ab4aef6dee357cd729a,69b92b4c3fb549cd7f811a4b,0.2581,0.2582,1,60,222,121,1,fiveseven,,,,,,,,,,,,,,,,,,,,,,,,,,,,,,,,,,,,,,,,,,,,,,,,,,,,,,,,,,,,,,,,,,,,,,,,,,,,,,,,,,,,,,,,,,,,,,,,,,,,,,,,,,,,,,,,,,,,,,,,,,,,,,,,,,,,,,,,,
,,5ced66139b5b490001b688ed,2026-03-17_10h22.28.041,kallum_motion_pilot_GIST_update_2,2026.1.1,Win32,59.88023952,5ced66139b5b490001b688ed,69b92ab4aef6dee357cd729a,69b92b4c3fb549cd7f811a4b,0.2588,0.2589,1,61,223,151,1,eightseven,,,,,,,,,,,,,,,,,,,,,,,,,,,,,,,,,,,,,,,,,,,,,,,,,,,,,,,,,,,,,,,,,,,,,,,,,,,,,,,,,,,,,,,,,,,,,,,,,,,,,,,,,,,,,,,,,,,,,,,,,,,,,,,,,,,,,,,,,
,,5ced66139b5b490001b688ed,2026-03-17_10h22.28.041,kallum_motion_pilot_GIST_update_2,2026.1.1,Win32,59.88023952,5ced66139b5b490001b688ed,69b92ab4aef6dee357cd729a,69b92b4c3fb549cd7f811a4b,0.2596,0.2598,1,62,224,79,1,eightseven,,,,,,,,,,,,,,,,,,,,,,,,,,,,,,,,,,,,,,,,,,,,,,,,,,,,,,,,,,,,,,,,,,,,,,,,,,,,,,,,,,,,,,,,,,,,,,,,,,,,,,,,,,,,,,,,,,,,,,,,,,,,,,,,,,,,,,,,,
,,5ced66139b5b490001b688ed,2026-03-17_10h22.28.041,kallum_motion_pilot_GIST_update_2,2026.1.1,Win32,59.88023952,5ced66139b5b490001b688ed,69b92ab4aef6dee357cd729a,69b92b4c3fb549cd7f811a4b,0.2605,0.2605,1,63,225,31,1,fourthree,,,,,,,,,,,,,,,,,,,,,,,,,,,,,,,,,,,,,,,,,,,,,,,,,,,,,,,,,,,,,,,,,,,,,,,,,,,,,,,,,,,,,,,,,,,,,,,,,,,,,,,,,,,,,,,,,,,,,,,,,,,,,,,,,,,,,,,,,
,,5ced66139b5b490001b688ed,2026-03-17_10h22.28.041,kallum_motion_pilot_GIST_update_2,2026.1.1,Win32,59.88023952,5ced66139b5b490001b688ed,69b92ab4aef6dee357cd729a,69b92b4c3fb549cd7f811a4b,0.2612,0.2613,1,64,226,89,1,fiveseven,,,,,,,,,,,,,,,,,,,,,,,,,,,,,,,,,,,,,,,,,,,,,,,,,,,,,,,,,,,,,,,,,,,,,,,,,,,,,,,,,,,,,,,,,,,,,,,,,,,,,,,,,,,,,,,,,,,,,,,,,,,,,,,,,,,,,,,,,
,,5ced66139b5b490001b688ed,2026-03-17_10h22.28.041,kallum_motion_pilot_GIST_update_2,2026.1.1,Win32,59.88023952,5ced66139b5b490001b688ed,69b92ab4aef6dee357cd729a,69b92b4c3fb549cd7f811a4b,0.2631,0.2631,1,65,227,98,1,sixfive,,,,,,,,,,,,,,,,,,,,,,,,,,,,,,,,,,,,,,,,,,,,,,,,,,,,,,,,,,,,,,,,,,,,,,,,,,,,,,,,,,,,,,,,,,,,,,,,,,,,,,,,,,,,,,,,,,,,,,,,,,,,,,,,,,,,,,,,,
,,5ced66139b5b490001b688ed,2026-03-17_10h22.28.041,kallum_motion_pilot_GIST_update_2,2026.1.1,Win32,59.88023952,5ced66139b5b490001b688ed,69b92ab4aef6dee357cd729a,69b92b4c3fb549cd7f811a4b,0.2638,0.2639,1,66,228,149,1,seveneight,,,,,,,,,,,,,,,,,,,,,,,,,,,,,,,,,,,,,,,,,,,,,,,,,,,,,,,,,,,,,,,,,,,,,,,,,,,,,,,,,,,,,,,,,,,,,,,,,,,,,,,,,,,,,,,,,,,,,,,,,,,,,,,,,,,,,,,,,
,,5ced66139b5b490001b688ed,2026-03-17_10h22.28.041,kallum_motion_pilot_GIST_update_2,2026.1.1,Win32,59.88023952,5ced66139b5b490001b688ed,69b92ab4aef6dee357cd729a,69b92b4c3fb549cd7f811a4b,0.2647,0.2649,1,67,229,128,1,fivesix,,,,,,,,,,,,,,,,,,,,,,,,,,,,,,,,,,,,,,,,,,,,,,,,,,,,,,,,,,,,,,,,,,,,,,,,,,,,,,,,,,,,,,,,,,,,,,,,,,,,,,,,,,,,,,,,,,,,,,,,,,,,,,,,,,,,,,,,,
,,5ced66139b5b490001b688ed,2026-03-17_10h22.28.041,kallum_motion_pilot_GIST_update_2,2026.1.1,Win32,59.88023952,5ced66139b5b490001b688ed,69b92ab4aef6dee357cd729a,69b92b4c3fb549cd7f811a4b,0.266,0.266,1,68,230,35,1,twofour,,,,,,,,,,,,,,,,,,,,,,,,,,,,,,,,,,,,,,,,,,,,,,,,,,,,,,,,,,,,,,,,,,,,,,,,,,,,,,,,,,,,,,,,,,,,,,,,,,,,,,,,,,,,,,,,,,,,,,,,,,,,,,,,,,,,,,,,,
,,5ced66139b5b490001b688ed,2026-03-17_10h22.28.041,kallum_motion_pilot_GIST_update_2,2026.1.1,Win32,59.88023952,5ced66139b5b490001b688ed,69b92ab4aef6dee357cd729a,69b92b4c3fb549cd7f811a4b,0.2668,0.2668,1,69,231,68,1,threeone,,,,,,,,,,,,,,,,,,,,,,,,,,,,,,,,,,,,,,,,,,,,,,,,,,,,,,,,,,,,,,,,,,,,,,,,,,,,,,,,,,,,,,,,,,,,,,,,,,,,,,,,,,,,,,,,,,,,,,,,,,,,,,,,,,,,,,,,,
,,5ced66139b5b490001b688ed,2026-03-17_10h22.28.041,kallum_motion_pilot_GIST_update_2,2026.1.1,Win32,59.88023952,5ced66139b5b490001b688ed,69b92ab4aef6dee357cd729a,69b92b4c3fb549cd7f811a4b,0.2677,0.2677,1,70,232,83,1,sixeight,,,,,,,,,,,,,,,,,,,,,,,,,,,,,,,,,,,,,,,,,,,,,,,,,,,,,,,,,,,,,,,,,,,,,,,,,,,,,,,,,,,,,,,,,,,,,,,,,,,,,,,,,,,,,,,,,,,,,,,,,,,,,,,,,,,,,,,,,
,,5ced66139b5b490001b688ed,2026-03-17_10h22.28.041,kallum_motion_pilot_GIST_update_2,2026.1.1,Win32,59.88023952,5ced66139b5b490001b688ed,69b92ab4aef6dee357cd729a,69b92b4c3fb549cd7f811a4b,0.2684,0.2685,1,71,233,5,1,threefour,,,,,,,,,,,,,,,,,,,,,,,,,,,,,,,,,,,,,,,,,,,,,,,,,,,,,,,,,,,,,,,,,,,,,,,,,,,,,,,,,,,,,,,,,,,,,,,,,,,,,,,,,,,,,,,,,,,,,,,,,,,,,,,,,,,,,,,,,
,,5ced66139b5b490001b688ed,2026-03-17_10h22.28.041,kallum_motion_pilot_GIST_update_2,2026.1.1,Win32,59.88023952,5ced66139b5b490001b688ed,69b92ab4aef6dee357cd729a,69b92b4c3fb549cd7f811a4b,0.2692,0.2693,1,72,234,86,1,eightsix,,,,,,,,,,,,,,,,,,,,,,,,,,,,,,,,,,,,,,,,,,,,,,,,,,,,,,,,,,,,,,,,,,,,,,,,,,,,,,,,,,,,,,,,,,,,,,,,,,,,,,,,,,,,,,,,,,,,,,,,,,,,,,,,,,,,,,,,,
,,5ced66139b5b490001b688ed,2026-03-17_10h22.28.041,kallum_motion_pilot_GIST_update_2,2026.1.1,Win32,59.88023952,5ced66139b5b490001b688ed,69b92ab4aef6dee357cd729a,69b92b4c3fb549cd7f811a4b,0.2701,0.2701,1,73,235,147,1,sixeight,,,,,,,,,,,,,,,,,,,,,,,,,,,,,,,,,,,,,,,,,,,,,,,,,,,,,,,,,,,,,,,,,,,,,,,,,,,,,,,,,,,,,,,,,,,,,,,,,,,,,,,,,,,,,,,,,,,,,,,,,,,,,,,,,,,,,,,,,
,,5ced66139b5b490001b688ed,2026-03-17_10h22.28.041,kallum_motion_pilot_GIST_update_2,2026.1.1,Win32,59.88023952,5ced66139b5b490001b688ed,69b92ab4aef6dee357cd729a,69b92b4c3fb549cd7f811a4b,0.2708,0.2709,1,74,236,159,1,eightseven,,,,,,,,,,,,,,,,,,,,,,,,,,,,,,,,,,,,,,,,,,,,,,,,,,,,,,,,,,,,,,,,,,,,,,,,,,,,,,,,,,,,,,,,,,,,,,,,,,,,,,,,,,,,,,,,,,,,,,,,,,,,,,,,,,,,,,,,,
,,5ced66139b5b490001b688ed,2026-03-17_10h22.28.041,kallum_motion_pilot_GIST_update_2,2026.1.1,Win32,59.88023952,5ced66139b5b490001b688ed,69b92ab4aef6dee357cd729a,69b92b4c3fb549cd7f811a4b,0.2717,0.2718,1,75,237,102,1,eightsix,,,,,,,,,,,,,,,,,,,,,,,,,,,,,,,,,,,,,,,,,,,,,,,,,,,,,,,,,,,,,,,,,,,,,,,,,,,,,,,,,,,,,,,,,,,,,,,,,,,,,,,,,,,,,,,,,,,,,,,,,,,,,,,,,,,,,,,,,
,,5ced66139b5b490001b688ed,2026-03-17_10h22.28.041,kallum_motion_pilot_GIST_update_2,2026.1.1,Win32,59.88023952,5ced66139b5b490001b688ed,69b92ab4aef6dee357cd729a,69b92b4c3fb549cd7f811a4b,0.273,0.2731,1,76,238,116,1,sevenfive,,,,,,,,,,,,,,,,,,,,,,,,,,,,,,,,,,,,,,,,,,,,,,,,,,,,,,,,,,,,,,,,,,,,,,,,,,,,,,,,,,,,,,,,,,,,,,,,,,,,,,,,,,,,,,,,,,,,,,,,,,,,,,,,,,,,,,,,,
,,5ced66139b5b490001b688ed,2026-03-17_10h22.28.041,kallum_motion_pilot_GIST_update_2,2026.1.1,Win32,59.88023952,5ced66139b5b490001b688ed,69b92ab4aef6dee357cd729a,69b92b4c3fb549cd7f811a4b,0.2738,0.2739,1,77,239,65,1,onethree,,,,,,,,,,,,,,,,,,,,,,,,,,,,,,,,,,,,,,,,,,,,,,,,,,,,,,,,,,,,,,,,,,,,,,,,,,,,,,,,,,,,,,,,,,,,,,,,,,,,,,,,,,,,,,,,,,,,,,,,,,,,,,,,,,,,,,,,,
,,5ced66139b5b490001b688ed,2026-03-17_10h22.28.041,kallum_motion_pilot_GIST_update_2,2026.1.1,Win32,59.88023952,5ced66139b5b490001b688ed,69b92ab4aef6dee357cd729a,69b92b4c3fb549cd7f811a4b,0.2745,0.2746,1,78,240,124,1,sevenfive,,,,,,,,,,,,,,,,,,,,,,,,,,,,,,,,,,,,,,,,,,,,,,,,,,,,,,,,,,,,,,,,,,,,,,,,,,,,,,,,,,,,,,,,,,,,,,,,,,,,,,,,,,,,,,,,,,,,,,,,,,,,,,,,,,,,,,,,,
,,5ced66139b5b490001b688ed,2026-03-17_10h22.28.041,kallum_motion_pilot_GIST_update_2,2026.1.1,Win32,59.88023952,5ced66139b5b490001b688ed,69b92ab4aef6dee357cd729a,69b92b4c3fb549cd7f811a4b,0.2757,0.2758,1,79,241,36,1,threeone,,,,,,,,,,,,,,,,,,,,,,,,,,,,,,,,,,,,,,,,,,,,,,,,,,,,,,,,,,,,,,,,,,,,,,,,,,,,,,,,,,,,,,,,,,,,,,,,,,,,,,,,,,,,,,,,,,,,,,,,,,,,,,,,,,,,,,,,,
,,5ced66139b5b490001b688ed,2026-03-17_10h22.28.041,kallum_motion_pilot_GIST_update_2,2026.1.1,Win32,59.88023952,5ced66139b5b490001b688ed,69b92ab4aef6dee357cd729a,69b92b4c3fb549cd7f811a4b,0.2765,0.2765,1,80,242,63,1,fourthree,,,,,,,,,,,,,,,,,,,,,,,,,,,,,,,,,,,,,,,,,,,,,,,,,,,,,,,,,,,,,,,,,,,,,,,,,,,,,,,,,,,,,,,,,,,,,,,,,,,,,,,,,,,,,,,,,,,,,,,,,,,,,,,,,,,,,,,,,
,,5ced66139b5b490001b688ed,2026-03-17_10h22.28.041,kallum_motion_pilot_GIST_update_2,2026.1.1,Win32,59.88023952,5ced66139b5b490001b688ed,69b92ab4aef6dee357cd729a,69b92b4c3fb549cd7f811a4b,0.2773,0.2774,1,81,243,69,1,threefour,,,,,,,,,,,,,,,,,,,,,,,,,,,,,,,,,,,,,,,,,,,,,,,,,,,,,,,,,,,,,,,,,,,,,,,,,,,,,,,,,,,,,,,,,,,,,,,,,,,,,,,,,,,,,,,,,,,,,,,,,,,,,,,,,,,,,,,,,
,,5ced66139b5b490001b688ed,2026-03-17_10h22.28.041,kallum_motion_pilot_GIST_update_2,2026.1.1,Win32,59.88023952,5ced66139b5b490001b688ed,69b92ab4aef6dee357cd729a,69b92b4c3fb549cd7f811a4b,0.2781,0.2786,1,82,244,72,1,onetwo,,,,,,,,,,,,,,,,,,,,,,,,,,,,,,,,,,,,,,,,,,,,,,,,,,,,,,,,,,,,,,,,,,,,,,,,,,,,,,,,,,,,,,,,,,,,,,,,,,,,,,,,,,,,,,,,,,,,,,,,,,,,,,,,,,,,,,,,,
,,5ced66139b5b490001b688ed,2026-03-17_10h22.28.041,kallum_motion_pilot_GIST_update_2,2026.1.1,Win32,59.88023952,5ced66139b5b490001b688ed,69b92ab4aef6dee357cd729a,69b92b4c3fb549cd7f811a4b,0.2796,0.2797,1,83,245,30,1,fourtwo,,,,,,,,,,,,,,,,,,,,,,,,,,,,,,,,,,,,,,,,,,,,,,,,,,,,,,,,,,,,,,,,,,,,,,,,,,,,,,,,,,,,,,,,,,,,,,,,,,,,,,,,,,,,,,,,,,,,,,,,,,,,,,,,,,,,,,,,,
,,5ced66139b5b490001b688ed,2026-03-17_10h22.28.041,kallum_motion_pilot_GIST_update_2,2026.1.1,Win32,59.88023952,5ced66139b5b490001b688ed,69b92ab4aef6dee357cd729a,69b92b4c3fb549cd7f811a4b,0.2804,0.2806,1,84,246,53,1,threefour,,,,,,,,,,,,,,,,,,,,,,,,,,,,,,,,,,,,,,,,,,,,,,,,,,,,,,,,,,,,,,,,,,,,,,,,,,,,,,,,,,,,,,,,,,,,,,,,,,,,,,,,,,,,,,,,,,,,,,,,,,,,,,,,,,,,,,,,,
,,5ced66139b5b490001b688ed,2026-03-17_10h22.28.041,kallum_motion_pilot_GIST_update_2,2026.1.1,Win32,59.88023952,5ced66139b5b490001b688ed,69b92ab4aef6dee357cd729a,69b92b4c3fb549cd7f811a4b,0.2814,0.2815,1,85,247,122,1,sixfive,,,,,,,,,,,,,,,,,,,,,,,,,,,,,,,,,,,,,,,,,,,,,,,,,,,,,,,,,,,,,,,,,,,,,,,,,,,,,,,,,,,,,,,,,,,,,,,,,,,,,,,,,,,,,,,,,,,,,,,,,,,,,,,,,,,,,,,,,
,,5ced66139b5b490001b688ed,2026-03-17_10h22.28.041,kallum_motion_pilot_GIST_update_2,2026.1.1,Win32,59.88023952,5ced66139b5b490001b688ed,69b92ab4aef6dee357cd729a,69b92b4c3fb549cd7f811a4b,0.2822,0.2823,1,86,248,130,1,sixfive,,,,,,,,,,,,,,,,,,,,,,,,,,,,,,,,,,,,,,,,,,,,,,,,,,,,,,,,,,,,,,,,,,,,,,,,,,,,,,,,,,,,,,,,,,,,,,,,,,,,,,,,,,,,,,,,,,,,,,,,,,,,,,,,,,,,,,,,,
,,5ced66139b5b490001b688ed,2026-03-17_10h22.28.041,kallum_motion_pilot_GIST_update_2,2026.1.1,Win32,59.88023952,5ced66139b5b490001b688ed,69b92ab4aef6dee357cd729a,69b92b4c3fb549cd7f811a4b,0.2834,0.2834,1,87,249,16,1,onetwo,,,,,,,,,,,,,,,,,,,,,,,,,,,,,,,,,,,,,,,,,,,,,,,,,,,,,,,,,,,,,,,,,,,,,,,,,,,,,,,,,,,,,,,,,,,,,,,,,,,,,,,,,,,,,,,,,,,,,,,,,,,,,,,,,,,,,,,,,
,,5ced66139b5b490001b688ed,2026-03-17_10h22.28.041,kallum_motion_pilot_GIST_update_2,2026.1.1,Win32,59.88023952,5ced66139b5b490001b688ed,69b92ab4aef6dee357cd729a,69b92b4c3fb549cd7f811a4b,0.2842,0.2843,1,88,250,6,1,fourtwo,,,,,,,,,,,,,,,,,,,,,,,,,,,,,,,,,,,,,,,,,,,,,,,,,,,,,,,,,,,,,,,,,,,,,,,,,,,,,,,,,,,,,,,,,,,,,,,,,,,,,,,,,,,,,,,,,,,,,,,,,,,,,,,,,,,,,,,,,
,,5ced66139b5b490001b688ed,2026-03-17_10h22.28.041,kallum_motion_pilot_GIST_update_2,2026.1.1,Win32,59.88023952,5ced66139b5b490001b688ed,69b92ab4aef6dee357cd729a,69b92b4c3fb549cd7f811a4b,0.2853,0.2854,1,89,251,143,1,eightseven,,,,,,,,,,,,,,,,,,,,,,,,,,,,,,,,,,,,,,,,,,,,,,,,,,,,,,,,,,,,,,,,,,,,,,,,,,,,,,,,,,,,,,,,,,,,,,,,,,,,,,,,,,,,,,,,,,,,,,,,,,,,,,,,,,,,,,,,,
,,5ced66139b5b490001b688ed,2026-03-17_10h22.28.041,kallum_motion_pilot_GIST_update_2,2026.1.1,Win32,59.88023952,5ced66139b5b490001b688ed,69b92ab4aef6dee357cd729a,69b92b4c3fb549cd7f811a4b,0.2863,0.2863,1,90,252,11,1,twofour,,,,,,,,,,,,,,,,,,,,,,,,,,,,,,,,,,,,,,,,,,,,,,,,,,,,,,,,,,,,,,,,,,,,,,,,,,,,,,,,,,,,,,,,,,,,,,,,,,,,,,,,,,,,,,,,,,,,,,,,,,,,,,,,,,,,,,,,,
,,5ced66139b5b490001b688ed,2026-03-17_10h22.28.041,kallum_motion_pilot_GIST_update_2,2026.1.1,Win32,59.88023952,5ced66139b5b490001b688ed,69b92ab4aef6dee357cd729a,69b92b4c3fb549cd7f811a4b,0.2871,0.2872,1,91,253,160,1,fivesix,,,,,,,,,,,,,,,,,,,,,,,,,,,,,,,,,,,,,,,,,,,,,,,,,,,,,,,,,,,,,,,,,,,,,,,,,,,,,,,,,,,,,,,,,,,,,,,,,,,,,,,,,,,,,,,,,,,,,,,,,,,,,,,,,,,,,,,,,
,,5ced66139b5b490001b688ed,2026-03-17_10h22.28.041,kallum_motion_pilot_GIST_update_2,2026.1.1,Win32,59.88023952,5ced66139b5b490001b688ed,69b92ab4aef6dee357cd729a,69b92b4c3fb549cd7f811a4b,0.2879,0.2881,1,92,254,50,1,twoone,,,,,,,,,,,,,,,,,,,,,,,,,,,,,,,,,,,,,,,,,,,,,,,,,,,,,,,,,,,,,,,,,,,,,,,,,,,,,,,,,,,,,,,,,,,,,,,,,,,,,,,,,,,,,,,,,,,,,,,,,,,,,,,,,,,,,,,,,
,,5ced66139b5b490001b688ed,2026-03-17_10h22.28.041,kallum_motion_pilot_GIST_update_2,2026.1.1,Win32,59.88023952,5ced66139b5b490001b688ed,69b92ab4aef6dee357cd729a,69b92b4c3fb549cd7f811a4b,0.2888,0.2889,1,93,255,141,1,seveneight,,,,,,,,,,,,,,,,,,,,,,,,,,,,,,,,,,,,,,,,,,,,,,,,,,,,,,,,,,,,,,,,,,,,,,,,,,,,,,,,,,,,,,,,,,,,,,,,,,,,,,,,,,,,,,,,,,,,,,,,,,,,,,,,,,,,,,,,,
,,5ced66139b5b490001b688ed,2026-03-17_10h22.28.041,kallum_motion_pilot_GIST_update_2,2026.1.1,Win32,59.88023952,5ced66139b5b490001b688ed,69b92ab4aef6dee357cd729a,69b92b4c3fb549cd7f811a4b,0.2895,0.2896,1,94,256,49,1,onethree,,,,,,,,,,,,,,,,,,,,,,,,,,,,,,,,,,,,,,,,,,,,,,,,,,,,,,,,,,,,,,,,,,,,,,,,,,,,,,,,,,,,,,,,,,,,,,,,,,,,,,,,,,,,,,,,,,,,,,,,,,,,,,,,,,,,,,,,,
,,5ced66139b5b490001b688ed,2026-03-17_10h22.28.041,kallum_motion_pilot_GIST_update_2,2026.1.1,Win32,59.88023952,5ced66139b5b490001b688ed,69b92ab4aef6dee357cd729a,69b92b4c3fb549cd7f811a4b,0.2904,0.2904,1,95,257,21,1,threefour,,,,,,,,,,,,,,,,,,,,,,,,,,,,,,,,,,,,,,,,,,,,,,,,,,,,,,,,,,,,,,,,,,,,,,,,,,,,,,,,,,,,,,,,,,,,,,,,,,,,,,,,,,,,,,,,,,,,,,,,,,,,,,,,,,,,,,,,,
,,5ced66139b5b490001b688ed,2026-03-17_10h22.28.041,kallum_motion_pilot_GIST_update_2,2026.1.1,Win32,59.88023952,5ced66139b5b490001b688ed,69b92ab4aef6dee357cd729a,69b92b4c3fb549cd7f811a4b,0.2911,0.2912,1,96,258,119,1,eightseven,,,,,,,,,,,,,,,,,,,,,,,,,,,,,,,,,,,,,,,,,,,,,,,,,,,,,,,,,,,,,,,,,,,,,,,,,,,,,,,,,,,,,,,,,,,,,,,,,,,,,,,,,,,,,,,,,,,,,,,,,,,,,,,,,,,,,,,,,
,,5ced66139b5b490001b688ed,2026-03-17_10h22.28.041,kallum_motion_pilot_GIST_update_2,2026.1.1,Win32,59.88023952,5ced66139b5b490001b688ed,69b92ab4aef6dee357cd729a,69b92b4c3fb549cd7f811a4b,0.2919,0.2919,1,97,259,120,1,fivesix,,,,,,,,,,,,,,,,,,,,,,,,,,,,,,,,,,,,,,,,,,,,,,,,,,,,,,,,,,,,,,,,,,,,,,,,,,,,,,,,,,,,,,,,,,,,,,,,,,,,,,,,,,,,,,,,,,,,,,,,,,,,,,,,,,,,,,,,,
,,5ced66139b5b490001b688ed,2026-03-17_10h22.28.041,kallum_motion_pilot_GIST_update_2,2026.1.1,Win32,59.88023952,5ced66139b5b490001b688ed,69b92ab4aef6dee357cd729a,69b92b4c3fb549cd7f811a4b,0.293,0.293,1,98,260,13,1,threefour,,,,,,,,,,,,,,,,,,,,,,,,,,,,,,,,,,,,,,,,,,,,,,,,,,,,,,,,,,,,,,,,,,,,,,,,,,,,,,,,,,,,,,,,,,,,,,,,,,,,,,,,,,,,,,,,,,,,,,,,,,,,,,,,,,,,,,,,,
,,5ced66139b5b490001b688ed,2026-03-17_10h22.28.041,kallum_motion_pilot_GIST_update_2,2026.1.1,Win32,59.88023952,5ced66139b5b490001b688ed,69b92ab4aef6dee357cd729a,69b92b4c3fb549cd7f811a4b,0.2938,0.2938,1,99,261,34,1,twoone,,,,,,,,,,,,,,,,,,,,,,,,,,,,,,,,,,,,,,,,,,,,,,,,,,,,,,,,,,,,,,,,,,,,,,,,,,,,,,,,,,,,,,,,,,,,,,,,,,,,,,,,,,,,,,,,,,,,,,,,,,,,,,,,,,,,,,,,,
,,5ced66139b5b490001b688ed,2026-03-17_10h22.28.041,kallum_motion_pilot_GIST_update_2,2026.1.1,Win32,59.88023952,5ced66139b5b490001b688ed,69b92ab4aef6dee357cd729a,69b92b4c3fb549cd7f811a4b,0.2948,0.2948,1,100,262,135,1,eightseven,,,,,,,,,,,,,,,,,,,,,,,,,,,,,,,,,,,,,,,,,,,,,,,,,,,,,,,,,,,,,,,,,,,,,,,,,,,,,,,,,,,,,,,,,,,,,,,,,,,,,,,,,,,,,,,,,,,,,,,,,,,,,,,,,,,,,,,,,
,,5ced66139b5b490001b688ed,2026-03-17_10h22.28.041,kallum_motion_pilot_GIST_update_2,2026.1.1,Win32,59.88023952,5ced66139b5b490001b688ed,69b92ab4aef6dee357cd729a,69b92b4c3fb549cd7f811a4b,0.2965,0.2966,1,101,263,115,1,sixeight,,,,,,,,,,,,,,,,,,,,,,,,,,,,,,,,,,,,,,,,,,,,,,,,,,,,,,,,,,,,,,,,,,,,,,,,,,,,,,,,,,,,,,,,,,,,,,,,,,,,,,,,,,,,,,,,,,,,,,,,,,,,,,,,,,,,,,,,,
,,5ced66139b5b490001b688ed,2026-03-17_10h22.28.041,kallum_motion_pilot_GIST_update_2,2026.1.1,Win32,59.88023952,5ced66139b5b490001b688ed,69b92ab4aef6dee357cd729a,69b92b4c3fb549cd7f811a4b,0.2974,0.2975,1,102,264,117,1,seveneight,,,,,,,,,,,,,,,,,,,,,,,,,,,,,,,,,,,,,,,,,,,,,,,,,,,,,,,,,,,,,,,,,,,,,,,,,,,,,,,,,,,,,,,,,,,,,,,,,,,,,,,,,,,,,,,,,,,,,,,,,,,,,,,,,,,,,,,,,
,,5ced66139b5b490001b688ed,2026-03-17_10h22.28.041,kallum_motion_pilot_GIST_update_2,2026.1.1,Win32,59.88023952,5ced66139b5b490001b688ed,69b92ab4aef6dee357cd729a,69b92b4c3fb549cd7f811a4b,0.2982,0.2983,1,103,265,97,1,fiveseven,,,,,,,,,,,,,,,,,,,,,,,,,,,,,,,,,,,,,,,,,,,,,,,,,,,,,,,,,,,,,,,,,,,,,,,,,,,,,,,,,,,,,,,,,,,,,,,,,,,,,,,,,,,,,,,,,,,,,,,,,,,,,,,,,,,,,,,,,
,,5ced66139b5b490001b688ed,2026-03-17_10h22.28.041,kallum_motion_pilot_GIST_update_2,2026.1.1,Win32,59.88023952,5ced66139b5b490001b688ed,69b92ab4aef6dee357cd729a,69b92b4c3fb549cd7f811a4b,0.2989,0.299,1,104,266,12,1,threeone,,,,,,,,,,,,,,,,,,,,,,,,,,,,,,,,,,,,,,,,,,,,,,,,,,,,,,,,,,,,,,,,,,,,,,,,,,,,,,,,,,,,,,,,,,,,,,,,,,,,,,,,,,,,,,,,,,,,,,,,,,,,,,,,,,,,,,,,,
