startup.started,startup.stopped,Prolific ID*,date,expName,psychopyVersion,OS,frameRate,participant,study_id,session,stimpositions.started,stimpositions.stopped,hardcoded_stimulus_positions.thisRepN,hardcoded_stimulus_positions.thisTrialN,hardcoded_stimulus_positions.thisN,hardcoded_stimulus_positions.thisIndex,hardcoded_stimulus_positions.ran,StimulusPos,stimorientation.started,stimorientation.stopped,prac_stimorientation_import_loop.thisRepN,prac_stimorientation_import_loop.thisTrialN,prac_stimorientation_import_loop.thisN,prac_stimorientation_import_loop.thisIndex,prac_stimorientation_import_loop.ran,Stimorientation,welcome_instr.started,welcome_instr.stopped,key_resp.keys,key_resp.rt,key_resp.duration,response_steppedout_1.started,response_steppedout_1.stopped,key_resp_20.keys,key_resp_20.rt,key_resp_20.duration,response_steppedout_2.started,response_steppedout_2.stopped,key_resp_19.keys,key_resp_19.rt,key_resp_19.duration,stim_response_instr.started,stim_response_instr.stopped,key_resp_15.keys,key_resp_15.rt,key_resp_15.duration,direction_instr_2.started,direction_instr_2.stopped,key_resp_9.keys,key_resp_9.rt,key_resp_9.duration,instr_prac.started,instr_prac.stopped,key_resp_10.keys,key_resp_10.rt,key_resp_10.duration,Stim1_display_prac.started,Stim1_display_prac.stopped,Ecc,Circle1_ori,Circle2_ori,response_prac.started,similarity,response_time,response_prac.stopped,mouse_5.x,mouse_5.y,mouse_5.leftButton,mouse_5.midButton,mouse_5.rightButton,mouse_5.clicked_name,responseprac_feedback.started,responseprac_feedback.stopped,summary2_prac.started,summary2_prac.stopped,mouse_6.x,mouse_6.y,mouse_6.leftButton,mouse_6.midButton,mouse_6.rightButton,mouse_6.clicked_name,duringprac.thisRepN,duringprac.thisTrialN,duringprac.thisN,duringprac.thisIndex,duringprac.ran,begin.started,begin.stopped,key_resp_22.keys,key_resp_22.rt,key_resp_22.duration,Stim1_display.started,Stim1_display.stopped,circle1_ori,circle2_ori,circle1_SF,circle2_SF,response.started,response.stopped,mouse.x,mouse.y,mouse.leftButton,mouse.midButton,mouse.rightButton,mouse.clicked_name,trialnumber,double_pass.thisRepN,double_pass.thisTrialN,double_pass.thisN,double_pass.thisIndex,double_pass.ran,double_pass.order,main_trial.thisRepN,main_trial.thisTrialN,main_trial.thisN,main_trial.thisIndex,main_trial.ran,main_trial.order,Trial_Counter,Catch,Frequencies,response_2.started,response_2.stopped,mouse_2.x,mouse_2.y,mouse_2.leftButton,mouse_2.midButton,mouse_2.rightButton,mouse_2.clicked_name,special_trial.started,special_trial.stopped,catch_1.started,catch_1.stopped,mouse_3.x,mouse_3.y,mouse_3.leftButton,mouse_3.midButton,mouse_3.rightButton,catchresponse,catchnumber,response_time_catch,response_sum.started,response_sum.stopped,mouse_11.x,mouse_11.y,mouse_11.leftButton,mouse_11.midButton,mouse_11.rightButton,flip_presentation_sequence_for_double_pass.started,flip_presentation_sequence_for_double_pass.stopped,goodbye.started,goodbye.stopped,key_resp_3.keys,key_resp_3.rt,key_resp_3.duration
0.0004,0.0005,5d9265cde0cd75001a485441,2026-03-17_14h09.20.481,kallum_motion_pilot_GIST_update_2,2026.1.1,Win32,59.88023952,5d9265cde0cd75001a485441,69b95efdef24cd8a694e89ee,69b960822990c283f8cedb9c,,,,,,,,,,,,,,,,,,,,,,,,,,,,,,,,,,,,,,,,,,,,,,,,,,,,,,,,,,,,,,,,,,,,,,,,,,,,,,,,,,,,,,,,,,,,,,,,,,,,,,,,,,,,,,,,,,,,,,,,,,,,,,,,,,,,,,,,,,,,,,,,,
,,5d9265cde0cd75001a485441,2026-03-17_14h09.20.481,kallum_motion_pilot_GIST_update_2,2026.1.1,Win32,59.88023952,5d9265cde0cd75001a485441,69b95efdef24cd8a694e89ee,69b960822990c283f8cedb9c,0.0163,0.0163,0,0,0,141,1,seveneight,,,,,,,,,,,,,,,,,,,,,,,,,,,,,,,,,,,,,,,,,,,,,,,,,,,,,,,,,,,,,,,,,,,,,,,,,,,,,,,,,,,,,,,,,,,,,,,,,,,,,,,,,,,,,,,,,,,,,,,,,,,,,,,,,,,,,,,,,
,,5d9265cde0cd75001a485441,2026-03-17_14h09.20.481,kallum_motion_pilot_GIST_update_2,2026.1.1,Win32,59.88023952,5d9265cde0cd75001a485441,69b95efdef24cd8a694e89ee,69b960822990c283f8cedb9c,0.0165,0.0165,0,1,1,43,1,twofour,,,,,,,,,,,,,,,,,,,,,,,,,,,,,,,,,,,,,,,,,,,,,,,,,,,,,,,,,,,,,,,,,,,,,,,,,,,,,,,,,,,,,,,,,,,,,,,,,,,,,,,,,,,,,,,,,,,,,,,,,,,,,,,,,,,,,,,,,
,,5d9265cde0cd75001a485441,2026-03-17_14h09.20.481,kallum_motion_pilot_GIST_update_2,2026.1.1,Win32,59.88023952,5d9265cde0cd75001a485441,69b95efdef24cd8a694e89ee,69b960822990c283f8cedb9c,0.0167,0.0167,0,2,2,11,1,twofour,,,,,,,,,,,,,,,,,,,,,,,,,,,,,,,,,,,,,,,,,,,,,,,,,,,,,,,,,,,,,,,,,,,,,,,,,,,,,,,,,,,,,,,,,,,,,,,,,,,,,,,,,,,,,,,,,,,,,,,,,,,,,,,,,,,,,,,,,
,,5d9265cde0cd75001a485441,2026-03-17_14h09.20.481,kallum_motion_pilot_GIST_update_2,2026.1.1,Win32,59.88023952,5d9265cde0cd75001a485441,69b95efdef24cd8a694e89ee,69b960822990c283f8cedb9c,0.0167,0.0167,0,3,3,91,1,sixeight,,,,,,,,,,,,,,,,,,,,,,,,,,,,,,,,,,,,,,,,,,,,,,,,,,,,,,,,,,,,,,,,,,,,,,,,,,,,,,,,,,,,,,,,,,,,,,,,,,,,,,,,,,,,,,,,,,,,,,,,,,,,,,,,,,,,,,,,,
,,5d9265cde0cd75001a485441,2026-03-17_14h09.20.481,kallum_motion_pilot_GIST_update_2,2026.1.1,Win32,59.88023952,5d9265cde0cd75001a485441,69b95efdef24cd8a694e89ee,69b960822990c283f8cedb9c,0.0169,0.0169,0,4,4,107,1,sixeight,,,,,,,,,,,,,,,,,,,,,,,,,,,,,,,,,,,,,,,,,,,,,,,,,,,,,,,,,,,,,,,,,,,,,,,,,,,,,,,,,,,,,,,,,,,,,,,,,,,,,,,,,,,,,,,,,,,,,,,,,,,,,,,,,,,,,,,,,
,,5d9265cde0cd75001a485441,2026-03-17_14h09.20.481,kallum_motion_pilot_GIST_update_2,2026.1.1,Win32,59.88023952,5d9265cde0cd75001a485441,69b95efdef24cd8a694e89ee,69b960822990c283f8cedb9c,0.0169,0.0169,0,5,5,85,1,seveneight,,,,,,,,,,,,,,,,,,,,,,,,,,,,,,,,,,,,,,,,,,,,,,,,,,,,,,,,,,,,,,,,,,,,,,,,,,,,,,,,,,,,,,,,,,,,,,,,,,,,,,,,,,,,,,,,,,,,,,,,,,,,,,,,,,,,,,,,,
,,5d9265cde0cd75001a485441,2026-03-17_14h09.20.481,kallum_motion_pilot_GIST_update_2,2026.1.1,Win32,59.88023952,5d9265cde0cd75001a485441,69b95efdef24cd8a694e89ee,69b960822990c283f8cedb9c,0.0171,0.0171,0,6,6,72,1,onetwo,,,,,,,,,,,,,,,,,,,,,,,,,,,,,,,,,,,,,,,,,,,,,,,,,,,,,,,,,,,,,,,,,,,,,,,,,,,,,,,,,,,,,,,,,,,,,,,,,,,,,,,,,,,,,,,,,,,,,,,,,,,,,,,,,,,,,,,,,
,,5d9265cde0cd75001a485441,2026-03-17_14h09.20.481,kallum_motion_pilot_GIST_update_2,2026.1.1,Win32,59.88023952,5d9265cde0cd75001a485441,69b95efdef24cd8a694e89ee,69b960822990c283f8cedb9c,0.0171,0.0171,0,7,7,151,1,eightseven,,,,,,,,,,,,,,,,,,,,,,,,,,,,,,,,,,,,,,,,,,,,,,,,,,,,,,,,,,,,,,,,,,,,,,,,,,,,,,,,,,,,,,,,,,,,,,,,,,,,,,,,,,,,,,,,,,,,,,,,,,,,,,,,,,,,,,,,,
,,5d9265cde0cd75001a485441,2026-03-17_14h09.20.481,kallum_motion_pilot_GIST_update_2,2026.1.1,Win32,59.88023952,5d9265cde0cd75001a485441,69b95efdef24cd8a694e89ee,69b960822990c283f8cedb9c,0.0171,0.0172,0,8,8,115,1,sixeight,,,,,,,,,,,,,,,,,,,,,,,,,,,,,,,,,,,,,,,,,,,,,,,,,,,,,,,,,,,,,,,,,,,,,,,,,,,,,,,,,,,,,,,,,,,,,,,,,,,,,,,,,,,,,,,,,,,,,,,,,,,,,,,,,,,,,,,,,
,,5d9265cde0cd75001a485441,2026-03-17_14h09.20.481,kallum_motion_pilot_GIST_update_2,2026.1.1,Win32,59.88023952,5d9265cde0cd75001a485441,69b95efdef24cd8a694e89ee,69b960822990c283f8cedb9c,0.0173,0.0173,0,9,9,156,1,sevenfive,,,,,,,,,,,,,,,,,,,,,,,,,,,,,,,,,,,,,,,,,,,,,,,,,,,,,,,,,,,,,,,,,,,,,,,,,,,,,,,,,,,,,,,,,,,,,,,,,,,,,,,,,,,,,,,,,,,,,,,,,,,,,,,,,,,,,,,,,
,,5d9265cde0cd75001a485441,2026-03-17_14h09.20.481,kallum_motion_pilot_GIST_update_2,2026.1.1,Win32,59.88023952,5d9265cde0cd75001a485441,69b95efdef24cd8a694e89ee,69b960822990c283f8cedb9c,0.0174,0.0174,0,10,10,147,1,sixeight,,,,,,,,,,,,,,,,,,,,,,,,,,,,,,,,,,,,,,,,,,,,,,,,,,,,,,,,,,,,,,,,,,,,,,,,,,,,,,,,,,,,,,,,,,,,,,,,,,,,,,,,,,,,,,,,,,,,,,,,,,,,,,,,,,,,,,,,,
,,5d9265cde0cd75001a485441,2026-03-17_14h09.20.481,kallum_motion_pilot_GIST_update_2,2026.1.1,Win32,59.88023952,5d9265cde0cd75001a485441,69b95efdef24cd8a694e89ee,69b960822990c283f8cedb9c,0.0175,0.0175,0,11,11,114,1,sixfive,,,,,,,,,,,,,,,,,,,,,,,,,,,,,,,,,,,,,,,,,,,,,,,,,,,,,,,,,,,,,,,,,,,,,,,,,,,,,,,,,,,,,,,,,,,,,,,,,,,,,,,,,,,,,,,,,,,,,,,,,,,,,,,,,,,,,,,,,
,,5d9265cde0cd75001a485441,2026-03-17_14h09.20.481,kallum_motion_pilot_GIST_update_2,2026.1.1,Win32,59.88023952,5d9265cde0cd75001a485441,69b95efdef24cd8a694e89ee,69b960822990c283f8cedb9c,0.0176,0.0176,0,12,12,61,1,threefour,,,,,,,,,,,,,,,,,,,,,,,,,,,,,,,,,,,,,,,,,,,,,,,,,,,,,,,,,,,,,,,,,,,,,,,,,,,,,,,,,,,,,,,,,,,,,,,,,,,,,,,,,,,,,,,,,,,,,,,,,,,,,,,,,,,,,,,,,
,,5d9265cde0cd75001a485441,2026-03-17_14h09.20.481,kallum_motion_pilot_GIST_update_2,2026.1.1,Win32,59.88023952,5d9265cde0cd75001a485441,69b95efdef24cd8a694e89ee,69b960822990c283f8cedb9c,0.0176,0.0176,0,13,13,71,1,fourthree,,,,,,,,,,,,,,,,,,,,,,,,,,,,,,,,,,,,,,,,,,,,,,,,,,,,,,,,,,,,,,,,,,,,,,,,,,,,,,,,,,,,,,,,,,,,,,,,,,,,,,,,,,,,,,,,,,,,,,,,,,,,,,,,,,,,,,,,,
,,5d9265cde0cd75001a485441,2026-03-17_14h09.20.481,kallum_motion_pilot_GIST_update_2,2026.1.1,Win32,59.88023952,5d9265cde0cd75001a485441,69b95efdef24cd8a694e89ee,69b960822990c283f8cedb9c,0.0177,0.0177,0,14,14,77,1,threefour,,,,,,,,,,,,,,,,,,,,,,,,,,,,,,,,,,,,,,,,,,,,,,,,,,,,,,,,,,,,,,,,,,,,,,,,,,,,,,,,,,,,,,,,,,,,,,,,,,,,,,,,,,,,,,,,,,,,,,,,,,,,,,,,,,,,,,,,,
,,5d9265cde0cd75001a485441,2026-03-17_14h09.20.481,kallum_motion_pilot_GIST_update_2,2026.1.1,Win32,59.88023952,5d9265cde0cd75001a485441,69b95efdef24cd8a694e89ee,69b960822990c283f8cedb9c,0.0177,0.0177,0,15,15,124,1,sevenfive,,,,,,,,,,,,,,,,,,,,,,,,,,,,,,,,,,,,,,,,,,,,,,,,,,,,,,,,,,,,,,,,,,,,,,,,,,,,,,,,,,,,,,,,,,,,,,,,,,,,,,,,,,,,,,,,,,,,,,,,,,,,,,,,,,,,,,,,,
,,5d9265cde0cd75001a485441,2026-03-17_14h09.20.481,kallum_motion_pilot_GIST_update_2,2026.1.1,Win32,59.88023952,5d9265cde0cd75001a485441,69b95efdef24cd8a694e89ee,69b960822990c283f8cedb9c,0.0178,0.0178,0,16,16,59,1,twofour,,,,,,,,,,,,,,,,,,,,,,,,,,,,,,,,,,,,,,,,,,,,,,,,,,,,,,,,,,,,,,,,,,,,,,,,,,,,,,,,,,,,,,,,,,,,,,,,,,,,,,,,,,,,,,,,,,,,,,,,,,,,,,,,,,,,,,,,,
,,5d9265cde0cd75001a485441,2026-03-17_14h09.20.481,kallum_motion_pilot_GIST_update_2,2026.1.1,Win32,59.88023952,5d9265cde0cd75001a485441,69b95efdef24cd8a694e89ee,69b960822990c283f8cedb9c,0.0179,0.0179,0,17,17,144,1,fivesix,,,,,,,,,,,,,,,,,,,,,,,,,,,,,,,,,,,,,,,,,,,,,,,,,,,,,,,,,,,,,,,,,,,,,,,,,,,,,,,,,,,,,,,,,,,,,,,,,,,,,,,,,,,,,,,,,,,,,,,,,,,,,,,,,,,,,,,,,
,,5d9265cde0cd75001a485441,2026-03-17_14h09.20.481,kallum_motion_pilot_GIST_update_2,2026.1.1,Win32,59.88023952,5d9265cde0cd75001a485441,69b95efdef24cd8a694e89ee,69b960822990c283f8cedb9c,0.0179,0.0179,0,18,18,128,1,fivesix,,,,,,,,,,,,,,,,,,,,,,,,,,,,,,,,,,,,,,,,,,,,,,,,,,,,,,,,,,,,,,,,,,,,,,,,,,,,,,,,,,,,,,,,,,,,,,,,,,,,,,,,,,,,,,,,,,,,,,,,,,,,,,,,,,,,,,,,,
,,5d9265cde0cd75001a485441,2026-03-17_14h09.20.481,kallum_motion_pilot_GIST_update_2,2026.1.1,Win32,59.88023952,5d9265cde0cd75001a485441,69b95efdef24cd8a694e89ee,69b960822990c283f8cedb9c,0.018,0.018,0,19,19,136,1,fivesix,,,,,,,,,,,,,,,,,,,,,,,,,,,,,,,,,,,,,,,,,,,,,,,,,,,,,,,,,,,,,,,,,,,,,,,,,,,,,,,,,,,,,,,,,,,,,,,,,,,,,,,,,,,,,,,,,,,,,,,,,,,,,,,,,,,,,,,,,
,,5d9265cde0cd75001a485441,2026-03-17_14h09.20.481,kallum_motion_pilot_GIST_update_2,2026.1.1,Win32,59.88023952,5d9265cde0cd75001a485441,69b95efdef24cd8a694e89ee,69b960822990c283f8cedb9c,0.018,0.018,0,20,20,160,1,fivesix,,,,,,,,,,,,,,,,,,,,,,,,,,,,,,,,,,,,,,,,,,,,,,,,,,,,,,,,,,,,,,,,,,,,,,,,,,,,,,,,,,,,,,,,,,,,,,,,,,,,,,,,,,,,,,,,,,,,,,,,,,,,,,,,,,,,,,,,,
,,5d9265cde0cd75001a485441,2026-03-17_14h09.20.481,kallum_motion_pilot_GIST_update_2,2026.1.1,Win32,59.88023952,5d9265cde0cd75001a485441,69b95efdef24cd8a694e89ee,69b960822990c283f8cedb9c,0.018,0.018,0,21,21,55,1,fourthree,,,,,,,,,,,,,,,,,,,,,,,,,,,,,,,,,,,,,,,,,,,,,,,,,,,,,,,,,,,,,,,,,,,,,,,,,,,,,,,,,,,,,,,,,,,,,,,,,,,,,,,,,,,,,,,,,,,,,,,,,,,,,,,,,,,,,,,,,
,,5d9265cde0cd75001a485441,2026-03-17_14h09.20.481,kallum_motion_pilot_GIST_update_2,2026.1.1,Win32,59.88023952,5d9265cde0cd75001a485441,69b95efdef24cd8a694e89ee,69b960822990c283f8cedb9c,0.0181,0.0181,0,22,22,73,1,onethree,,,,,,,,,,,,,,,,,,,,,,,,,,,,,,,,,,,,,,,,,,,,,,,,,,,,,,,,,,,,,,,,,,,,,,,,,,,,,,,,,,,,,,,,,,,,,,,,,,,,,,,,,,,,,,,,,,,,,,,,,,,,,,,,,,,,,,,,,
,,5d9265cde0cd75001a485441,2026-03-17_14h09.20.481,kallum_motion_pilot_GIST_update_2,2026.1.1,Win32,59.88023952,5d9265cde0cd75001a485441,69b95efdef24cd8a694e89ee,69b960822990c283f8cedb9c,0.0182,0.0182,0,23,23,118,1,eightsix,,,,,,,,,,,,,,,,,,,,,,,,,,,,,,,,,,,,,,,,,,,,,,,,,,,,,,,,,,,,,,,,,,,,,,,,,,,,,,,,,,,,,,,,,,,,,,,,,,,,,,,,,,,,,,,,,,,,,,,,,,,,,,,,,,,,,,,,,
,,5d9265cde0cd75001a485441,2026-03-17_14h09.20.481,kallum_motion_pilot_GIST_update_2,2026.1.1,Win32,59.88023952,5d9265cde0cd75001a485441,69b95efdef24cd8a694e89ee,69b960822990c283f8cedb9c,0.0183,0.0183,0,24,24,92,1,sevenfive,,,,,,,,,,,,,,,,,,,,,,,,,,,,,,,,,,,,,,,,,,,,,,,,,,,,,,,,,,,,,,,,,,,,,,,,,,,,,,,,,,,,,,,,,,,,,,,,,,,,,,,,,,,,,,,,,,,,,,,,,,,,,,,,,,,,,,,,,
,,5d9265cde0cd75001a485441,2026-03-17_14h09.20.481,kallum_motion_pilot_GIST_update_2,2026.1.1,Win32,59.88023952,5d9265cde0cd75001a485441,69b95efdef24cd8a694e89ee,69b960822990c283f8cedb9c,0.0183,0.0183,0,25,25,82,1,sixfive,,,,,,,,,,,,,,,,,,,,,,,,,,,,,,,,,,,,,,,,,,,,,,,,,,,,,,,,,,,,,,,,,,,,,,,,,,,,,,,,,,,,,,,,,,,,,,,,,,,,,,,,,,,,,,,,,,,,,,,,,,,,,,,,,,,,,,,,,
,,5d9265cde0cd75001a485441,2026-03-17_14h09.20.481,kallum_motion_pilot_GIST_update_2,2026.1.1,Win32,59.88023952,5d9265cde0cd75001a485441,69b95efdef24cd8a694e89ee,69b960822990c283f8cedb9c,0.0184,0.0184,0,26,26,64,1,onetwo,,,,,,,,,,,,,,,,,,,,,,,,,,,,,,,,,,,,,,,,,,,,,,,,,,,,,,,,,,,,,,,,,,,,,,,,,,,,,,,,,,,,,,,,,,,,,,,,,,,,,,,,,,,,,,,,,,,,,,,,,,,,,,,,,,,,,,,,,
,,5d9265cde0cd75001a485441,2026-03-17_14h09.20.481,kallum_motion_pilot_GIST_update_2,2026.1.1,Win32,59.88023952,5d9265cde0cd75001a485441,69b95efdef24cd8a694e89ee,69b960822990c283f8cedb9c,0.0185,0.0185,0,27,27,90,1,sixfive,,,,,,,,,,,,,,,,,,,,,,,,,,,,,,,,,,,,,,,,,,,,,,,,,,,,,,,,,,,,,,,,,,,,,,,,,,,,,,,,,,,,,,,,,,,,,,,,,,,,,,,,,,,,,,,,,,,,,,,,,,,,,,,,,,,,,,,,,
,,5d9265cde0cd75001a485441,2026-03-17_14h09.20.481,kallum_motion_pilot_GIST_update_2,2026.1.1,Win32,59.88023952,5d9265cde0cd75001a485441,69b95efdef24cd8a694e89ee,69b960822990c283f8cedb9c,0.0186,0.0186,0,28,28,60,1,threeone,,,,,,,,,,,,,,,,,,,,,,,,,,,,,,,,,,,,,,,,,,,,,,,,,,,,,,,,,,,,,,,,,,,,,,,,,,,,,,,,,,,,,,,,,,,,,,,,,,,,,,,,,,,,,,,,,,,,,,,,,,,,,,,,,,,,,,,,,
,,5d9265cde0cd75001a485441,2026-03-17_14h09.20.481,kallum_motion_pilot_GIST_update_2,2026.1.1,Win32,59.88023952,5d9265cde0cd75001a485441,69b95efdef24cd8a694e89ee,69b960822990c283f8cedb9c,0.0187,0.0187,0,29,29,111,1,eightseven,,,,,,,,,,,,,,,,,,,,,,,,,,,,,,,,,,,,,,,,,,,,,,,,,,,,,,,,,,,,,,,,,,,,,,,,,,,,,,,,,,,,,,,,,,,,,,,,,,,,,,,,,,,,,,,,,,,,,,,,,,,,,,,,,,,,,,,,,
,,5d9265cde0cd75001a485441,2026-03-17_14h09.20.481,kallum_motion_pilot_GIST_update_2,2026.1.1,Win32,59.88023952,5d9265cde0cd75001a485441,69b95efdef24cd8a694e89ee,69b960822990c283f8cedb9c,0.0188,0.0188,0,30,30,94,1,eightsix,,,,,,,,,,,,,,,,,,,,,,,,,,,,,,,,,,,,,,,,,,,,,,,,,,,,,,,,,,,,,,,,,,,,,,,,,,,,,,,,,,,,,,,,,,,,,,,,,,,,,,,,,,,,,,,,,,,,,,,,,,,,,,,,,,,,,,,,,
,,5d9265cde0cd75001a485441,2026-03-17_14h09.20.481,kallum_motion_pilot_GIST_update_2,2026.1.1,Win32,59.88023952,5d9265cde0cd75001a485441,69b95efdef24cd8a694e89ee,69b960822990c283f8cedb9c,0.0189,0.0189,0,31,31,93,1,seveneight,,,,,,,,,,,,,,,,,,,,,,,,,,,,,,,,,,,,,,,,,,,,,,,,,,,,,,,,,,,,,,,,,,,,,,,,,,,,,,,,,,,,,,,,,,,,,,,,,,,,,,,,,,,,,,,,,,,,,,,,,,,,,,,,,,,,,,,,,
,,5d9265cde0cd75001a485441,2026-03-17_14h09.20.481,kallum_motion_pilot_GIST_update_2,2026.1.1,Win32,59.88023952,5d9265cde0cd75001a485441,69b95efdef24cd8a694e89ee,69b960822990c283f8cedb9c,0.019,0.019,0,32,32,17,1,onethree,,,,,,,,,,,,,,,,,,,,,,,,,,,,,,,,,,,,,,,,,,,,,,,,,,,,,,,,,,,,,,,,,,,,,,,,,,,,,,,,,,,,,,,,,,,,,,,,,,,,,,,,,,,,,,,,,,,,,,,,,,,,,,,,,,,,,,,,,
,,5d9265cde0cd75001a485441,2026-03-17_14h09.20.481,kallum_motion_pilot_GIST_update_2,2026.1.1,Win32,59.88023952,5d9265cde0cd75001a485441,69b95efdef24cd8a694e89ee,69b960822990c283f8cedb9c,0.0191,0.0191,0,33,33,12,1,threeone,,,,,,,,,,,,,,,,,,,,,,,,,,,,,,,,,,,,,,,,,,,,,,,,,,,,,,,,,,,,,,,,,,,,,,,,,,,,,,,,,,,,,,,,,,,,,,,,,,,,,,,,,,,,,,,,,,,,,,,,,,,,,,,,,,,,,,,,,
,,5d9265cde0cd75001a485441,2026-03-17_14h09.20.481,kallum_motion_pilot_GIST_update_2,2026.1.1,Win32,59.88023952,5d9265cde0cd75001a485441,69b95efdef24cd8a694e89ee,69b960822990c283f8cedb9c,0.0191,0.0191,0,34,34,106,1,sixfive,,,,,,,,,,,,,,,,,,,,,,,,,,,,,,,,,,,,,,,,,,,,,,,,,,,,,,,,,,,,,,,,,,,,,,,,,,,,,,,,,,,,,,,,,,,,,,,,,,,,,,,,,,,,,,,,,,,,,,,,,,,,,,,,,,,,,,,,,
,,5d9265cde0cd75001a485441,2026-03-17_14h09.20.481,kallum_motion_pilot_GIST_update_2,2026.1.1,Win32,59.88023952,5d9265cde0cd75001a485441,69b95efdef24cd8a694e89ee,69b960822990c283f8cedb9c,0.0192,0.0192,0,35,35,109,1,seveneight,,,,,,,,,,,,,,,,,,,,,,,,,,,,,,,,,,,,,,,,,,,,,,,,,,,,,,,,,,,,,,,,,,,,,,,,,,,,,,,,,,,,,,,,,,,,,,,,,,,,,,,,,,,,,,,,,,,,,,,,,,,,,,,,,,,,,,,,,
,,5d9265cde0cd75001a485441,2026-03-17_14h09.20.481,kallum_motion_pilot_GIST_update_2,2026.1.1,Win32,59.88023952,5d9265cde0cd75001a485441,69b95efdef24cd8a694e89ee,69b960822990c283f8cedb9c,0.0193,0.0193,0,36,36,49,1,onethree,,,,,,,,,,,,,,,,,,,,,,,,,,,,,,,,,,,,,,,,,,,,,,,,,,,,,,,,,,,,,,,,,,,,,,,,,,,,,,,,,,,,,,,,,,,,,,,,,,,,,,,,,,,,,,,,,,,,,,,,,,,,,,,,,,,,,,,,,
,,5d9265cde0cd75001a485441,2026-03-17_14h09.20.481,kallum_motion_pilot_GIST_update_2,2026.1.1,Win32,59.88023952,5d9265cde0cd75001a485441,69b95efdef24cd8a694e89ee,69b960822990c283f8cedb9c,0.0193,0.0193,0,37,37,44,1,threeone,,,,,,,,,,,,,,,,,,,,,,,,,,,,,,,,,,,,,,,,,,,,,,,,,,,,,,,,,,,,,,,,,,,,,,,,,,,,,,,,,,,,,,,,,,,,,,,,,,,,,,,,,,,,,,,,,,,,,,,,,,,,,,,,,,,,,,,,,
,,5d9265cde0cd75001a485441,2026-03-17_14h09.20.481,kallum_motion_pilot_GIST_update_2,2026.1.1,Win32,59.88023952,5d9265cde0cd75001a485441,69b95efdef24cd8a694e89ee,69b960822990c283f8cedb9c,0.0193,0.0194,0,38,38,137,1,fiveseven,,,,,,,,,,,,,,,,,,,,,,,,,,,,,,,,,,,,,,,,,,,,,,,,,,,,,,,,,,,,,,,,,,,,,,,,,,,,,,,,,,,,,,,,,,,,,,,,,,,,,,,,,,,,,,,,,,,,,,,,,,,,,,,,,,,,,,,,,
,,5d9265cde0cd75001a485441,2026-03-17_14h09.20.481,kallum_motion_pilot_GIST_update_2,2026.1.1,Win32,59.88023952,5d9265cde0cd75001a485441,69b95efdef24cd8a694e89ee,69b960822990c283f8cedb9c,0.0195,0.0195,0,39,39,116,1,sevenfive,,,,,,,,,,,,,,,,,,,,,,,,,,,,,,,,,,,,,,,,,,,,,,,,,,,,,,,,,,,,,,,,,,,,,,,,,,,,,,,,,,,,,,,,,,,,,,,,,,,,,,,,,,,,,,,,,,,,,,,,,,,,,,,,,,,,,,,,,
,,5d9265cde0cd75001a485441,2026-03-17_14h09.20.481,kallum_motion_pilot_GIST_update_2,2026.1.1,Win32,59.88023952,5d9265cde0cd75001a485441,69b95efdef24cd8a694e89ee,69b960822990c283f8cedb9c,0.0195,0.0195,0,40,40,47,1,fourthree,,,,,,,,,,,,,,,,,,,,,,,,,,,,,,,,,,,,,,,,,,,,,,,,,,,,,,,,,,,,,,,,,,,,,,,,,,,,,,,,,,,,,,,,,,,,,,,,,,,,,,,,,,,,,,,,,,,,,,,,,,,,,,,,,,,,,,,,,
,,5d9265cde0cd75001a485441,2026-03-17_14h09.20.481,kallum_motion_pilot_GIST_update_2,2026.1.1,Win32,59.88023952,5d9265cde0cd75001a485441,69b95efdef24cd8a694e89ee,69b960822990c283f8cedb9c,0.0196,0.0196,0,41,41,126,1,eightsix,,,,,,,,,,,,,,,,,,,,,,,,,,,,,,,,,,,,,,,,,,,,,,,,,,,,,,,,,,,,,,,,,,,,,,,,,,,,,,,,,,,,,,,,,,,,,,,,,,,,,,,,,,,,,,,,,,,,,,,,,,,,,,,,,,,,,,,,,
,,5d9265cde0cd75001a485441,2026-03-17_14h09.20.481,kallum_motion_pilot_GIST_update_2,2026.1.1,Win32,59.88023952,5d9265cde0cd75001a485441,69b95efdef24cd8a694e89ee,69b960822990c283f8cedb9c,0.0196,0.0196,0,42,42,157,1,seveneight,,,,,,,,,,,,,,,,,,,,,,,,,,,,,,,,,,,,,,,,,,,,,,,,,,,,,,,,,,,,,,,,,,,,,,,,,,,,,,,,,,,,,,,,,,,,,,,,,,,,,,,,,,,,,,,,,,,,,,,,,,,,,,,,,,,,,,,,,
,,5d9265cde0cd75001a485441,2026-03-17_14h09.20.481,kallum_motion_pilot_GIST_update_2,2026.1.1,Win32,59.88023952,5d9265cde0cd75001a485441,69b95efdef24cd8a694e89ee,69b960822990c283f8cedb9c,0.0196,0.0196,0,43,43,5,1,threefour,,,,,,,,,,,,,,,,,,,,,,,,,,,,,,,,,,,,,,,,,,,,,,,,,,,,,,,,,,,,,,,,,,,,,,,,,,,,,,,,,,,,,,,,,,,,,,,,,,,,,,,,,,,,,,,,,,,,,,,,,,,,,,,,,,,,,,,,,
,,5d9265cde0cd75001a485441,2026-03-17_14h09.20.481,kallum_motion_pilot_GIST_update_2,2026.1.1,Win32,59.88023952,5d9265cde0cd75001a485441,69b95efdef24cd8a694e89ee,69b960822990c283f8cedb9c,0.0197,0.0197,0,44,44,120,1,fivesix,,,,,,,,,,,,,,,,,,,,,,,,,,,,,,,,,,,,,,,,,,,,,,,,,,,,,,,,,,,,,,,,,,,,,,,,,,,,,,,,,,,,,,,,,,,,,,,,,,,,,,,,,,,,,,,,,,,,,,,,,,,,,,,,,,,,,,,,,
,,5d9265cde0cd75001a485441,2026-03-17_14h09.20.481,kallum_motion_pilot_GIST_update_2,2026.1.1,Win32,59.88023952,5d9265cde0cd75001a485441,69b95efdef24cd8a694e89ee,69b960822990c283f8cedb9c,0.0198,0.0198,0,45,45,28,1,threeone,,,,,,,,,,,,,,,,,,,,,,,,,,,,,,,,,,,,,,,,,,,,,,,,,,,,,,,,,,,,,,,,,,,,,,,,,,,,,,,,,,,,,,,,,,,,,,,,,,,,,,,,,,,,,,,,,,,,,,,,,,,,,,,,,,,,,,,,,
,,5d9265cde0cd75001a485441,2026-03-17_14h09.20.481,kallum_motion_pilot_GIST_update_2,2026.1.1,Win32,59.88023952,5d9265cde0cd75001a485441,69b95efdef24cd8a694e89ee,69b960822990c283f8cedb9c,0.0198,0.0198,0,46,46,29,1,threefour,,,,,,,,,,,,,,,,,,,,,,,,,,,,,,,,,,,,,,,,,,,,,,,,,,,,,,,,,,,,,,,,,,,,,,,,,,,,,,,,,,,,,,,,,,,,,,,,,,,,,,,,,,,,,,,,,,,,,,,,,,,,,,,,,,,,,,,,,
,,5d9265cde0cd75001a485441,2026-03-17_14h09.20.481,kallum_motion_pilot_GIST_update_2,2026.1.1,Win32,59.88023952,5d9265cde0cd75001a485441,69b95efdef24cd8a694e89ee,69b960822990c283f8cedb9c,0.0198,0.0198,0,47,47,31,1,fourthree,,,,,,,,,,,,,,,,,,,,,,,,,,,,,,,,,,,,,,,,,,,,,,,,,,,,,,,,,,,,,,,,,,,,,,,,,,,,,,,,,,,,,,,,,,,,,,,,,,,,,,,,,,,,,,,,,,,,,,,,,,,,,,,,,,,,,,,,,
,,5d9265cde0cd75001a485441,2026-03-17_14h09.20.481,kallum_motion_pilot_GIST_update_2,2026.1.1,Win32,59.88023952,5d9265cde0cd75001a485441,69b95efdef24cd8a694e89ee,69b960822990c283f8cedb9c,0.0199,0.0199,0,48,48,45,1,threefour,,,,,,,,,,,,,,,,,,,,,,,,,,,,,,,,,,,,,,,,,,,,,,,,,,,,,,,,,,,,,,,,,,,,,,,,,,,,,,,,,,,,,,,,,,,,,,,,,,,,,,,,,,,,,,,,,,,,,,,,,,,,,,,,,,,,,,,,,
,,5d9265cde0cd75001a485441,2026-03-17_14h09.20.481,kallum_motion_pilot_GIST_update_2,2026.1.1,Win32,59.88023952,5d9265cde0cd75001a485441,69b95efdef24cd8a694e89ee,69b960822990c283f8cedb9c,0.02,0.02,0,49,49,39,1,fourthree,,,,,,,,,,,,,,,,,,,,,,,,,,,,,,,,,,,,,,,,,,,,,,,,,,,,,,,,,,,,,,,,,,,,,,,,,,,,,,,,,,,,,,,,,,,,,,,,,,,,,,,,,,,,,,,,,,,,,,,,,,,,,,,,,,,,,,,,,
,,5d9265cde0cd75001a485441,2026-03-17_14h09.20.481,kallum_motion_pilot_GIST_update_2,2026.1.1,Win32,59.88023952,5d9265cde0cd75001a485441,69b95efdef24cd8a694e89ee,69b960822990c283f8cedb9c,0.02,0.02,0,50,50,32,1,onetwo,,,,,,,,,,,,,,,,,,,,,,,,,,,,,,,,,,,,,,,,,,,,,,,,,,,,,,,,,,,,,,,,,,,,,,,,,,,,,,,,,,,,,,,,,,,,,,,,,,,,,,,,,,,,,,,,,,,,,,,,,,,,,,,,,,,,,,,,,
,,5d9265cde0cd75001a485441,2026-03-17_14h09.20.481,kallum_motion_pilot_GIST_update_2,2026.1.1,Win32,59.88023952,5d9265cde0cd75001a485441,69b95efdef24cd8a694e89ee,69b960822990c283f8cedb9c,0.02,0.02,0,51,51,123,1,sixeight,,,,,,,,,,,,,,,,,,,,,,,,,,,,,,,,,,,,,,,,,,,,,,,,,,,,,,,,,,,,,,,,,,,,,,,,,,,,,,,,,,,,,,,,,,,,,,,,,,,,,,,,,,,,,,,,,,,,,,,,,,,,,,,,,,,,,,,,,
,,5d9265cde0cd75001a485441,2026-03-17_14h09.20.481,kallum_motion_pilot_GIST_update_2,2026.1.1,Win32,59.88023952,5d9265cde0cd75001a485441,69b95efdef24cd8a694e89ee,69b960822990c283f8cedb9c,0.0201,0.0201,0,52,52,117,1,seveneight,,,,,,,,,,,,,,,,,,,,,,,,,,,,,,,,,,,,,,,,,,,,,,,,,,,,,,,,,,,,,,,,,,,,,,,,,,,,,,,,,,,,,,,,,,,,,,,,,,,,,,,,,,,,,,,,,,,,,,,,,,,,,,,,,,,,,,,,,
,,5d9265cde0cd75001a485441,2026-03-17_14h09.20.481,kallum_motion_pilot_GIST_update_2,2026.1.1,Win32,59.88023952,5d9265cde0cd75001a485441,69b95efdef24cd8a694e89ee,69b960822990c283f8cedb9c,0.0202,0.0202,0,53,53,100,1,sevenfive,,,,,,,,,,,,,,,,,,,,,,,,,,,,,,,,,,,,,,,,,,,,,,,,,,,,,,,,,,,,,,,,,,,,,,,,,,,,,,,,,,,,,,,,,,,,,,,,,,,,,,,,,,,,,,,,,,,,,,,,,,,,,,,,,,,,,,,,,
,,5d9265cde0cd75001a485441,2026-03-17_14h09.20.481,kallum_motion_pilot_GIST_update_2,2026.1.1,Win32,59.88023952,5d9265cde0cd75001a485441,69b95efdef24cd8a694e89ee,69b960822990c283f8cedb9c,0.0202,0.0202,0,54,54,84,1,sevenfive,,,,,,,,,,,,,,,,,,,,,,,,,,,,,,,,,,,,,,,,,,,,,,,,,,,,,,,,,,,,,,,,,,,,,,,,,,,,,,,,,,,,,,,,,,,,,,,,,,,,,,,,,,,,,,,,,,,,,,,,,,,,,,,,,,,,,,,,,
,,5d9265cde0cd75001a485441,2026-03-17_14h09.20.481,kallum_motion_pilot_GIST_update_2,2026.1.1,Win32,59.88023952,5d9265cde0cd75001a485441,69b95efdef24cd8a694e89ee,69b960822990c283f8cedb9c,0.0203,0.0203,0,55,55,0,1,onetwo,,,,,,,,,,,,,,,,,,,,,,,,,,,,,,,,,,,,,,,,,,,,,,,,,,,,,,,,,,,,,,,,,,,,,,,,,,,,,,,,,,,,,,,,,,,,,,,,,,,,,,,,,,,,,,,,,,,,,,,,,,,,,,,,,,,,,,,,,
,,5d9265cde0cd75001a485441,2026-03-17_14h09.20.481,kallum_motion_pilot_GIST_update_2,2026.1.1,Win32,59.88023952,5d9265cde0cd75001a485441,69b95efdef24cd8a694e89ee,69b960822990c283f8cedb9c,0.0203,0.0203,0,56,56,30,1,fourtwo,,,,,,,,,,,,,,,,,,,,,,,,,,,,,,,,,,,,,,,,,,,,,,,,,,,,,,,,,,,,,,,,,,,,,,,,,,,,,,,,,,,,,,,,,,,,,,,,,,,,,,,,,,,,,,,,,,,,,,,,,,,,,,,,,,,,,,,,,
,,5d9265cde0cd75001a485441,2026-03-17_14h09.20.481,kallum_motion_pilot_GIST_update_2,2026.1.1,Win32,59.88023952,5d9265cde0cd75001a485441,69b95efdef24cd8a694e89ee,69b960822990c283f8cedb9c,0.0203,0.0203,0,57,57,20,1,threeone,,,,,,,,,,,,,,,,,,,,,,,,,,,,,,,,,,,,,,,,,,,,,,,,,,,,,,,,,,,,,,,,,,,,,,,,,,,,,,,,,,,,,,,,,,,,,,,,,,,,,,,,,,,,,,,,,,,,,,,,,,,,,,,,,,,,,,,,,
,,5d9265cde0cd75001a485441,2026-03-17_14h09.20.481,kallum_motion_pilot_GIST_update_2,2026.1.1,Win32,59.88023952,5d9265cde0cd75001a485441,69b95efdef24cd8a694e89ee,69b960822990c283f8cedb9c,0.0204,0.0204,0,58,58,46,1,fourtwo,,,,,,,,,,,,,,,,,,,,,,,,,,,,,,,,,,,,,,,,,,,,,,,,,,,,,,,,,,,,,,,,,,,,,,,,,,,,,,,,,,,,,,,,,,,,,,,,,,,,,,,,,,,,,,,,,,,,,,,,,,,,,,,,,,,,,,,,,
,,5d9265cde0cd75001a485441,2026-03-17_14h09.20.481,kallum_motion_pilot_GIST_update_2,2026.1.1,Win32,59.88023952,5d9265cde0cd75001a485441,69b95efdef24cd8a694e89ee,69b960822990c283f8cedb9c,0.0204,0.0204,0,59,59,75,1,twofour,,,,,,,,,,,,,,,,,,,,,,,,,,,,,,,,,,,,,,,,,,,,,,,,,,,,,,,,,,,,,,,,,,,,,,,,,,,,,,,,,,,,,,,,,,,,,,,,,,,,,,,,,,,,,,,,,,,,,,,,,,,,,,,,,,,,,,,,,
,,5d9265cde0cd75001a485441,2026-03-17_14h09.20.481,kallum_motion_pilot_GIST_update_2,2026.1.1,Win32,59.88023952,5d9265cde0cd75001a485441,69b95efdef24cd8a694e89ee,69b960822990c283f8cedb9c,0.0205,0.0205,0,60,60,53,1,threefour,,,,,,,,,,,,,,,,,,,,,,,,,,,,,,,,,,,,,,,,,,,,,,,,,,,,,,,,,,,,,,,,,,,,,,,,,,,,,,,,,,,,,,,,,,,,,,,,,,,,,,,,,,,,,,,,,,,,,,,,,,,,,,,,,,,,,,,,,
,,5d9265cde0cd75001a485441,2026-03-17_14h09.20.481,kallum_motion_pilot_GIST_update_2,2026.1.1,Win32,59.88023952,5d9265cde0cd75001a485441,69b95efdef24cd8a694e89ee,69b960822990c283f8cedb9c,0.0205,0.0205,0,61,61,74,1,twoone,,,,,,,,,,,,,,,,,,,,,,,,,,,,,,,,,,,,,,,,,,,,,,,,,,,,,,,,,,,,,,,,,,,,,,,,,,,,,,,,,,,,,,,,,,,,,,,,,,,,,,,,,,,,,,,,,,,,,,,,,,,,,,,,,,,,,,,,,
,,5d9265cde0cd75001a485441,2026-03-17_14h09.20.481,kallum_motion_pilot_GIST_update_2,2026.1.1,Win32,59.88023952,5d9265cde0cd75001a485441,69b95efdef24cd8a694e89ee,69b960822990c283f8cedb9c,0.0206,0.0206,0,62,62,130,1,sixfive,,,,,,,,,,,,,,,,,,,,,,,,,,,,,,,,,,,,,,,,,,,,,,,,,,,,,,,,,,,,,,,,,,,,,,,,,,,,,,,,,,,,,,,,,,,,,,,,,,,,,,,,,,,,,,,,,,,,,,,,,,,,,,,,,,,,,,,,,
,,5d9265cde0cd75001a485441,2026-03-17_14h09.20.481,kallum_motion_pilot_GIST_update_2,2026.1.1,Win32,59.88023952,5d9265cde0cd75001a485441,69b95efdef24cd8a694e89ee,69b960822990c283f8cedb9c,0.0206,0.0206,0,63,63,54,1,fourtwo,,,,,,,,,,,,,,,,,,,,,,,,,,,,,,,,,,,,,,,,,,,,,,,,,,,,,,,,,,,,,,,,,,,,,,,,,,,,,,,,,,,,,,,,,,,,,,,,,,,,,,,,,,,,,,,,,,,,,,,,,,,,,,,,,,,,,,,,,
,,5d9265cde0cd75001a485441,2026-03-17_14h09.20.481,kallum_motion_pilot_GIST_update_2,2026.1.1,Win32,59.88023952,5d9265cde0cd75001a485441,69b95efdef24cd8a694e89ee,69b960822990c283f8cedb9c,0.0207,0.0207,0,64,64,57,1,onethree,,,,,,,,,,,,,,,,,,,,,,,,,,,,,,,,,,,,,,,,,,,,,,,,,,,,,,,,,,,,,,,,,,,,,,,,,,,,,,,,,,,,,,,,,,,,,,,,,,,,,,,,,,,,,,,,,,,,,,,,,,,,,,,,,,,,,,,,,
,,5d9265cde0cd75001a485441,2026-03-17_14h09.20.481,kallum_motion_pilot_GIST_update_2,2026.1.1,Win32,59.88023952,5d9265cde0cd75001a485441,69b95efdef24cd8a694e89ee,69b960822990c283f8cedb9c,0.0208,0.0208,0,65,65,152,1,fivesix,,,,,,,,,,,,,,,,,,,,,,,,,,,,,,,,,,,,,,,,,,,,,,,,,,,,,,,,,,,,,,,,,,,,,,,,,,,,,,,,,,,,,,,,,,,,,,,,,,,,,,,,,,,,,,,,,,,,,,,,,,,,,,,,,,,,,,,,,
,,5d9265cde0cd75001a485441,2026-03-17_14h09.20.481,kallum_motion_pilot_GIST_update_2,2026.1.1,Win32,59.88023952,5d9265cde0cd75001a485441,69b95efdef24cd8a694e89ee,69b960822990c283f8cedb9c,0.021,0.021,0,66,66,86,1,eightsix,,,,,,,,,,,,,,,,,,,,,,,,,,,,,,,,,,,,,,,,,,,,,,,,,,,,,,,,,,,,,,,,,,,,,,,,,,,,,,,,,,,,,,,,,,,,,,,,,,,,,,,,,,,,,,,,,,,,,,,,,,,,,,,,,,,,,,,,,
,,5d9265cde0cd75001a485441,2026-03-17_14h09.20.481,kallum_motion_pilot_GIST_update_2,2026.1.1,Win32,59.88023952,5d9265cde0cd75001a485441,69b95efdef24cd8a694e89ee,69b960822990c283f8cedb9c,0.0211,0.0211,0,67,67,95,1,eightseven,,,,,,,,,,,,,,,,,,,,,,,,,,,,,,,,,,,,,,,,,,,,,,,,,,,,,,,,,,,,,,,,,,,,,,,,,,,,,,,,,,,,,,,,,,,,,,,,,,,,,,,,,,,,,,,,,,,,,,,,,,,,,,,,,,,,,,,,,
,,5d9265cde0cd75001a485441,2026-03-17_14h09.20.481,kallum_motion_pilot_GIST_update_2,2026.1.1,Win32,59.88023952,5d9265cde0cd75001a485441,69b95efdef24cd8a694e89ee,69b960822990c283f8cedb9c,0.0211,0.0211,0,68,68,69,1,threefour,,,,,,,,,,,,,,,,,,,,,,,,,,,,,,,,,,,,,,,,,,,,,,,,,,,,,,,,,,,,,,,,,,,,,,,,,,,,,,,,,,,,,,,,,,,,,,,,,,,,,,,,,,,,,,,,,,,,,,,,,,,,,,,,,,,,,,,,,
,,5d9265cde0cd75001a485441,2026-03-17_14h09.20.481,kallum_motion_pilot_GIST_update_2,2026.1.1,Win32,59.88023952,5d9265cde0cd75001a485441,69b95efdef24cd8a694e89ee,69b960822990c283f8cedb9c,0.0212,0.0212,0,69,69,8,1,onetwo,,,,,,,,,,,,,,,,,,,,,,,,,,,,,,,,,,,,,,,,,,,,,,,,,,,,,,,,,,,,,,,,,,,,,,,,,,,,,,,,,,,,,,,,,,,,,,,,,,,,,,,,,,,,,,,,,,,,,,,,,,,,,,,,,,,,,,,,,
,,5d9265cde0cd75001a485441,2026-03-17_14h09.20.481,kallum_motion_pilot_GIST_update_2,2026.1.1,Win32,59.88023952,5d9265cde0cd75001a485441,69b95efdef24cd8a694e89ee,69b960822990c283f8cedb9c,0.0213,0.0213,0,70,70,80,1,fivesix,,,,,,,,,,,,,,,,,,,,,,,,,,,,,,,,,,,,,,,,,,,,,,,,,,,,,,,,,,,,,,,,,,,,,,,,,,,,,,,,,,,,,,,,,,,,,,,,,,,,,,,,,,,,,,,,,,,,,,,,,,,,,,,,,,,,,,,,,
,,5d9265cde0cd75001a485441,2026-03-17_14h09.20.481,kallum_motion_pilot_GIST_update_2,2026.1.1,Win32,59.88023952,5d9265cde0cd75001a485441,69b95efdef24cd8a694e89ee,69b960822990c283f8cedb9c,0.0213,0.0213,0,71,71,135,1,eightseven,,,,,,,,,,,,,,,,,,,,,,,,,,,,,,,,,,,,,,,,,,,,,,,,,,,,,,,,,,,,,,,,,,,,,,,,,,,,,,,,,,,,,,,,,,,,,,,,,,,,,,,,,,,,,,,,,,,,,,,,,,,,,,,,,,,,,,,,,
,,5d9265cde0cd75001a485441,2026-03-17_14h09.20.481,kallum_motion_pilot_GIST_update_2,2026.1.1,Win32,59.88023952,5d9265cde0cd75001a485441,69b95efdef24cd8a694e89ee,69b960822990c283f8cedb9c,0.0214,0.0214,0,72,72,155,1,sixeight,,,,,,,,,,,,,,,,,,,,,,,,,,,,,,,,,,,,,,,,,,,,,,,,,,,,,,,,,,,,,,,,,,,,,,,,,,,,,,,,,,,,,,,,,,,,,,,,,,,,,,,,,,,,,,,,,,,,,,,,,,,,,,,,,,,,,,,,,
,,5d9265cde0cd75001a485441,2026-03-17_14h09.20.481,kallum_motion_pilot_GIST_update_2,2026.1.1,Win32,59.88023952,5d9265cde0cd75001a485441,69b95efdef24cd8a694e89ee,69b960822990c283f8cedb9c,0.0215,0.0215,0,73,73,134,1,eightsix,,,,,,,,,,,,,,,,,,,,,,,,,,,,,,,,,,,,,,,,,,,,,,,,,,,,,,,,,,,,,,,,,,,,,,,,,,,,,,,,,,,,,,,,,,,,,,,,,,,,,,,,,,,,,,,,,,,,,,,,,,,,,,,,,,,,,,,,,
,,5d9265cde0cd75001a485441,2026-03-17_14h09.20.481,kallum_motion_pilot_GIST_update_2,2026.1.1,Win32,59.88023952,5d9265cde0cd75001a485441,69b95efdef24cd8a694e89ee,69b960822990c283f8cedb9c,0.0216,0.0216,0,74,74,68,1,threeone,,,,,,,,,,,,,,,,,,,,,,,,,,,,,,,,,,,,,,,,,,,,,,,,,,,,,,,,,,,,,,,,,,,,,,,,,,,,,,,,,,,,,,,,,,,,,,,,,,,,,,,,,,,,,,,,,,,,,,,,,,,,,,,,,,,,,,,,,
,,5d9265cde0cd75001a485441,2026-03-17_14h09.20.481,kallum_motion_pilot_GIST_update_2,2026.1.1,Win32,59.88023952,5d9265cde0cd75001a485441,69b95efdef24cd8a694e89ee,69b960822990c283f8cedb9c,0.0217,0.0217,0,75,75,22,1,fourtwo,,,,,,,,,,,,,,,,,,,,,,,,,,,,,,,,,,,,,,,,,,,,,,,,,,,,,,,,,,,,,,,,,,,,,,,,,,,,,,,,,,,,,,,,,,,,,,,,,,,,,,,,,,,,,,,,,,,,,,,,,,,,,,,,,,,,,,,,,
,,5d9265cde0cd75001a485441,2026-03-17_14h09.20.481,kallum_motion_pilot_GIST_update_2,2026.1.1,Win32,59.88023952,5d9265cde0cd75001a485441,69b95efdef24cd8a694e89ee,69b960822990c283f8cedb9c,0.0218,0.0218,0,76,76,159,1,eightseven,,,,,,,,,,,,,,,,,,,,,,,,,,,,,,,,,,,,,,,,,,,,,,,,,,,,,,,,,,,,,,,,,,,,,,,,,,,,,,,,,,,,,,,,,,,,,,,,,,,,,,,,,,,,,,,,,,,,,,,,,,,,,,,,,,,,,,,,,
,,5d9265cde0cd75001a485441,2026-03-17_14h09.20.481,kallum_motion_pilot_GIST_update_2,2026.1.1,Win32,59.88023952,5d9265cde0cd75001a485441,69b95efdef24cd8a694e89ee,69b960822990c283f8cedb9c,0.0218,0.0218,0,77,77,65,1,onethree,,,,,,,,,,,,,,,,,,,,,,,,,,,,,,,,,,,,,,,,,,,,,,,,,,,,,,,,,,,,,,,,,,,,,,,,,,,,,,,,,,,,,,,,,,,,,,,,,,,,,,,,,,,,,,,,,,,,,,,,,,,,,,,,,,,,,,,,,
,,5d9265cde0cd75001a485441,2026-03-17_14h09.20.481,kallum_motion_pilot_GIST_update_2,2026.1.1,Win32,59.88023952,5d9265cde0cd75001a485441,69b95efdef24cd8a694e89ee,69b960822990c283f8cedb9c,0.0218,0.0218,0,78,78,131,1,sixeight,,,,,,,,,,,,,,,,,,,,,,,,,,,,,,,,,,,,,,,,,,,,,,,,,,,,,,,,,,,,,,,,,,,,,,,,,,,,,,,,,,,,,,,,,,,,,,,,,,,,,,,,,,,,,,,,,,,,,,,,,,,,,,,,,,,,,,,,,
,,5d9265cde0cd75001a485441,2026-03-17_14h09.20.481,kallum_motion_pilot_GIST_update_2,2026.1.1,Win32,59.88023952,5d9265cde0cd75001a485441,69b95efdef24cd8a694e89ee,69b960822990c283f8cedb9c,0.0219,0.0219,0,79,79,38,1,fourtwo,,,,,,,,,,,,,,,,,,,,,,,,,,,,,,,,,,,,,,,,,,,,,,,,,,,,,,,,,,,,,,,,,,,,,,,,,,,,,,,,,,,,,,,,,,,,,,,,,,,,,,,,,,,,,,,,,,,,,,,,,,,,,,,,,,,,,,,,,
,,5d9265cde0cd75001a485441,2026-03-17_14h09.20.481,kallum_motion_pilot_GIST_update_2,2026.1.1,Win32,59.88023952,5d9265cde0cd75001a485441,69b95efdef24cd8a694e89ee,69b960822990c283f8cedb9c,0.022,0.022,0,80,80,79,1,eightseven,,,,,,,,,,,,,,,,,,,,,,,,,,,,,,,,,,,,,,,,,,,,,,,,,,,,,,,,,,,,,,,,,,,,,,,,,,,,,,,,,,,,,,,,,,,,,,,,,,,,,,,,,,,,,,,,,,,,,,,,,,,,,,,,,,,,,,,,,
,,5d9265cde0cd75001a485441,2026-03-17_14h09.20.481,kallum_motion_pilot_GIST_update_2,2026.1.1,Win32,59.88023952,5d9265cde0cd75001a485441,69b95efdef24cd8a694e89ee,69b960822990c283f8cedb9c,0.0221,0.0221,0,81,81,103,1,eightseven,,,,,,,,,,,,,,,,,,,,,,,,,,,,,,,,,,,,,,,,,,,,,,,,,,,,,,,,,,,,,,,,,,,,,,,,,,,,,,,,,,,,,,,,,,,,,,,,,,,,,,,,,,,,,,,,,,,,,,,,,,,,,,,,,,,,,,,,,
,,5d9265cde0cd75001a485441,2026-03-17_14h09.20.481,kallum_motion_pilot_GIST_update_2,2026.1.1,Win32,59.88023952,5d9265cde0cd75001a485441,69b95efdef24cd8a694e89ee,69b960822990c283f8cedb9c,0.0221,0.0221,0,82,82,13,1,threefour,,,,,,,,,,,,,,,,,,,,,,,,,,,,,,,,,,,,,,,,,,,,,,,,,,,,,,,,,,,,,,,,,,,,,,,,,,,,,,,,,,,,,,,,,,,,,,,,,,,,,,,,,,,,,,,,,,,,,,,,,,,,,,,,,,,,,,,,,
,,5d9265cde0cd75001a485441,2026-03-17_14h09.20.481,kallum_motion_pilot_GIST_update_2,2026.1.1,Win32,59.88023952,5d9265cde0cd75001a485441,69b95efdef24cd8a694e89ee,69b960822990c283f8cedb9c,0.0222,0.0222,0,83,83,102,1,eightsix,,,,,,,,,,,,,,,,,,,,,,,,,,,,,,,,,,,,,,,,,,,,,,,,,,,,,,,,,,,,,,,,,,,,,,,,,,,,,,,,,,,,,,,,,,,,,,,,,,,,,,,,,,,,,,,,,,,,,,,,,,,,,,,,,,,,,,,,,
,,5d9265cde0cd75001a485441,2026-03-17_14h09.20.481,kallum_motion_pilot_GIST_update_2,2026.1.1,Win32,59.88023952,5d9265cde0cd75001a485441,69b95efdef24cd8a694e89ee,69b960822990c283f8cedb9c,0.0222,0.0223,0,84,84,42,1,twoone,,,,,,,,,,,,,,,,,,,,,,,,,,,,,,,,,,,,,,,,,,,,,,,,,,,,,,,,,,,,,,,,,,,,,,,,,,,,,,,,,,,,,,,,,,,,,,,,,,,,,,,,,,,,,,,,,,,,,,,,,,,,,,,,,,,,,,,,,
,,5d9265cde0cd75001a485441,2026-03-17_14h09.20.481,kallum_motion_pilot_GIST_update_2,2026.1.1,Win32,59.88023952,5d9265cde0cd75001a485441,69b95efdef24cd8a694e89ee,69b960822990c283f8cedb9c,0.0223,0.0223,0,85,85,16,1,onetwo,,,,,,,,,,,,,,,,,,,,,,,,,,,,,,,,,,,,,,,,,,,,,,,,,,,,,,,,,,,,,,,,,,,,,,,,,,,,,,,,,,,,,,,,,,,,,,,,,,,,,,,,,,,,,,,,,,,,,,,,,,,,,,,,,,,,,,,,,
,,5d9265cde0cd75001a485441,2026-03-17_14h09.20.481,kallum_motion_pilot_GIST_update_2,2026.1.1,Win32,59.88023952,5d9265cde0cd75001a485441,69b95efdef24cd8a694e89ee,69b960822990c283f8cedb9c,0.0224,0.0224,0,86,86,52,1,threeone,,,,,,,,,,,,,,,,,,,,,,,,,,,,,,,,,,,,,,,,,,,,,,,,,,,,,,,,,,,,,,,,,,,,,,,,,,,,,,,,,,,,,,,,,,,,,,,,,,,,,,,,,,,,,,,,,,,,,,,,,,,,,,,,,,,,,,,,,
,,5d9265cde0cd75001a485441,2026-03-17_14h09.20.481,kallum_motion_pilot_GIST_update_2,2026.1.1,Win32,59.88023952,5d9265cde0cd75001a485441,69b95efdef24cd8a694e89ee,69b960822990c283f8cedb9c,0.0225,0.0225,0,87,87,110,1,eightsix,,,,,,,,,,,,,,,,,,,,,,,,,,,,,,,,,,,,,,,,,,,,,,,,,,,,,,,,,,,,,,,,,,,,,,,,,,,,,,,,,,,,,,,,,,,,,,,,,,,,,,,,,,,,,,,,,,,,,,,,,,,,,,,,,,,,,,,,,
,,5d9265cde0cd75001a485441,2026-03-17_14h09.20.481,kallum_motion_pilot_GIST_update_2,2026.1.1,Win32,59.88023952,5d9265cde0cd75001a485441,69b95efdef24cd8a694e89ee,69b960822990c283f8cedb9c,0.0225,0.0226,0,88,88,139,1,sixeight,,,,,,,,,,,,,,,,,,,,,,,,,,,,,,,,,,,,,,,,,,,,,,,,,,,,,,,,,,,,,,,,,,,,,,,,,,,,,,,,,,,,,,,,,,,,,,,,,,,,,,,,,,,,,,,,,,,,,,,,,,,,,,,,,,,,,,,,,
,,5d9265cde0cd75001a485441,2026-03-17_14h09.20.481,kallum_motion_pilot_GIST_update_2,2026.1.1,Win32,59.88023952,5d9265cde0cd75001a485441,69b95efdef24cd8a694e89ee,69b960822990c283f8cedb9c,0.0226,0.0226,0,89,89,153,1,fiveseven,,,,,,,,,,,,,,,,,,,,,,,,,,,,,,,,,,,,,,,,,,,,,,,,,,,,,,,,,,,,,,,,,,,,,,,,,,,,,,,,,,,,,,,,,,,,,,,,,,,,,,,,,,,,,,,,,,,,,,,,,,,,,,,,,,,,,,,,,
,,5d9265cde0cd75001a485441,2026-03-17_14h09.20.481,kallum_motion_pilot_GIST_update_2,2026.1.1,Win32,59.88023952,5d9265cde0cd75001a485441,69b95efdef24cd8a694e89ee,69b960822990c283f8cedb9c,0.0228,0.0228,0,90,90,26,1,twoone,,,,,,,,,,,,,,,,,,,,,,,,,,,,,,,,,,,,,,,,,,,,,,,,,,,,,,,,,,,,,,,,,,,,,,,,,,,,,,,,,,,,,,,,,,,,,,,,,,,,,,,,,,,,,,,,,,,,,,,,,,,,,,,,,,,,,,,,,
,,5d9265cde0cd75001a485441,2026-03-17_14h09.20.481,kallum_motion_pilot_GIST_update_2,2026.1.1,Win32,59.88023952,5d9265cde0cd75001a485441,69b95efdef24cd8a694e89ee,69b960822990c283f8cedb9c,0.0229,0.0229,0,91,91,58,1,twoone,,,,,,,,,,,,,,,,,,,,,,,,,,,,,,,,,,,,,,,,,,,,,,,,,,,,,,,,,,,,,,,,,,,,,,,,,,,,,,,,,,,,,,,,,,,,,,,,,,,,,,,,,,,,,,,,,,,,,,,,,,,,,,,,,,,,,,,,,
,,5d9265cde0cd75001a485441,2026-03-17_14h09.20.481,kallum_motion_pilot_GIST_update_2,2026.1.1,Win32,59.88023952,5d9265cde0cd75001a485441,69b95efdef24cd8a694e89ee,69b960822990c283f8cedb9c,0.023,0.023,0,92,92,14,1,fourtwo,,,,,,,,,,,,,,,,,,,,,,,,,,,,,,,,,,,,,,,,,,,,,,,,,,,,,,,,,,,,,,,,,,,,,,,,,,,,,,,,,,,,,,,,,,,,,,,,,,,,,,,,,,,,,,,,,,,,,,,,,,,,,,,,,,,,,,,,,
,,5d9265cde0cd75001a485441,2026-03-17_14h09.20.481,kallum_motion_pilot_GIST_update_2,2026.1.1,Win32,59.88023952,5d9265cde0cd75001a485441,69b95efdef24cd8a694e89ee,69b960822990c283f8cedb9c,0.023,0.023,0,93,93,112,1,fivesix,,,,,,,,,,,,,,,,,,,,,,,,,,,,,,,,,,,,,,,,,,,,,,,,,,,,,,,,,,,,,,,,,,,,,,,,,,,,,,,,,,,,,,,,,,,,,,,,,,,,,,,,,,,,,,,,,,,,,,,,,,,,,,,,,,,,,,,,,
,,5d9265cde0cd75001a485441,2026-03-17_14h09.20.481,kallum_motion_pilot_GIST_update_2,2026.1.1,Win32,59.88023952,5d9265cde0cd75001a485441,69b95efdef24cd8a694e89ee,69b960822990c283f8cedb9c,0.0231,0.0231,0,94,94,36,1,threeone,,,,,,,,,,,,,,,,,,,,,,,,,,,,,,,,,,,,,,,,,,,,,,,,,,,,,,,,,,,,,,,,,,,,,,,,,,,,,,,,,,,,,,,,,,,,,,,,,,,,,,,,,,,,,,,,,,,,,,,,,,,,,,,,,,,,,,,,,
,,5d9265cde0cd75001a485441,2026-03-17_14h09.20.481,kallum_motion_pilot_GIST_update_2,2026.1.1,Win32,59.88023952,5d9265cde0cd75001a485441,69b95efdef24cd8a694e89ee,69b960822990c283f8cedb9c,0.0233,0.0233,0,95,95,10,1,twoone,,,,,,,,,,,,,,,,,,,,,,,,,,,,,,,,,,,,,,,,,,,,,,,,,,,,,,,,,,,,,,,,,,,,,,,,,,,,,,,,,,,,,,,,,,,,,,,,,,,,,,,,,,,,,,,,,,,,,,,,,,,,,,,,,,,,,,,,,
,,5d9265cde0cd75001a485441,2026-03-17_14h09.20.481,kallum_motion_pilot_GIST_update_2,2026.1.1,Win32,59.88023952,5d9265cde0cd75001a485441,69b95efdef24cd8a694e89ee,69b960822990c283f8cedb9c,0.0233,0.0233,0,96,96,83,1,sixeight,,,,,,,,,,,,,,,,,,,,,,,,,,,,,,,,,,,,,,,,,,,,,,,,,,,,,,,,,,,,,,,,,,,,,,,,,,,,,,,,,,,,,,,,,,,,,,,,,,,,,,,,,,,,,,,,,,,,,,,,,,,,,,,,,,,,,,,,,
,,5d9265cde0cd75001a485441,2026-03-17_14h09.20.481,kallum_motion_pilot_GIST_update_2,2026.1.1,Win32,59.88023952,5d9265cde0cd75001a485441,69b95efdef24cd8a694e89ee,69b960822990c283f8cedb9c,0.0233,0.0233,0,97,97,78,1,fourtwo,,,,,,,,,,,,,,,,,,,,,,,,,,,,,,,,,,,,,,,,,,,,,,,,,,,,,,,,,,,,,,,,,,,,,,,,,,,,,,,,,,,,,,,,,,,,,,,,,,,,,,,,,,,,,,,,,,,,,,,,,,,,,,,,,,,,,,,,,
,,5d9265cde0cd75001a485441,2026-03-17_14h09.20.481,kallum_motion_pilot_GIST_update_2,2026.1.1,Win32,59.88023952,5d9265cde0cd75001a485441,69b95efdef24cd8a694e89ee,69b960822990c283f8cedb9c,0.0234,0.0234,0,98,98,142,1,eightsix,,,,,,,,,,,,,,,,,,,,,,,,,,,,,,,,,,,,,,,,,,,,,,,,,,,,,,,,,,,,,,,,,,,,,,,,,,,,,,,,,,,,,,,,,,,,,,,,,,,,,,,,,,,,,,,,,,,,,,,,,,,,,,,,,,,,,,,,,
,,5d9265cde0cd75001a485441,2026-03-17_14h09.20.481,kallum_motion_pilot_GIST_update_2,2026.1.1,Win32,59.88023952,5d9265cde0cd75001a485441,69b95efdef24cd8a694e89ee,69b960822990c283f8cedb9c,0.0234,0.0235,0,99,99,138,1,sixfive,,,,,,,,,,,,,,,,,,,,,,,,,,,,,,,,,,,,,,,,,,,,,,,,,,,,,,,,,,,,,,,,,,,,,,,,,,,,,,,,,,,,,,,,,,,,,,,,,,,,,,,,,,,,,,,,,,,,,,,,,,,,,,,,,,,,,,,,,
,,5d9265cde0cd75001a485441,2026-03-17_14h09.20.481,kallum_motion_pilot_GIST_update_2,2026.1.1,Win32,59.88023952,5d9265cde0cd75001a485441,69b95efdef24cd8a694e89ee,69b960822990c283f8cedb9c,0.0235,0.0235,0,100,100,132,1,sevenfive,,,,,,,,,,,,,,,,,,,,,,,,,,,,,,,,,,,,,,,,,,,,,,,,,,,,,,,,,,,,,,,,,,,,,,,,,,,,,,,,,,,,,,,,,,,,,,,,,,,,,,,,,,,,,,,,,,,,,,,,,,,,,,,,,,,,,,,,,
,,5d9265cde0cd75001a485441,2026-03-17_14h09.20.481,kallum_motion_pilot_GIST_update_2,2026.1.1,Win32,59.88023952,5d9265cde0cd75001a485441,69b95efdef24cd8a694e89ee,69b960822990c283f8cedb9c,0.0236,0.0236,0,101,101,2,1,twoone,,,,,,,,,,,,,,,,,,,,,,,,,,,,,,,,,,,,,,,,,,,,,,,,,,,,,,,,,,,,,,,,,,,,,,,,,,,,,,,,,,,,,,,,,,,,,,,,,,,,,,,,,,,,,,,,,,,,,,,,,,,,,,,,,,,,,,,,,
,,5d9265cde0cd75001a485441,2026-03-17_14h09.20.481,kallum_motion_pilot_GIST_update_2,2026.1.1,Win32,59.88023952,5d9265cde0cd75001a485441,69b95efdef24cd8a694e89ee,69b960822990c283f8cedb9c,0.0236,0.0236,0,102,102,150,1,eightsix,,,,,,,,,,,,,,,,,,,,,,,,,,,,,,,,,,,,,,,,,,,,,,,,,,,,,,,,,,,,,,,,,,,,,,,,,,,,,,,,,,,,,,,,,,,,,,,,,,,,,,,,,,,,,,,,,,,,,,,,,,,,,,,,,,,,,,,,,
,,5d9265cde0cd75001a485441,2026-03-17_14h09.20.481,kallum_motion_pilot_GIST_update_2,2026.1.1,Win32,59.88023952,5d9265cde0cd75001a485441,69b95efdef24cd8a694e89ee,69b960822990c283f8cedb9c,0.0238,0.0238,0,103,103,51,1,twofour,,,,,,,,,,,,,,,,,,,,,,,,,,,,,,,,,,,,,,,,,,,,,,,,,,,,,,,,,,,,,,,,,,,,,,,,,,,,,,,,,,,,,,,,,,,,,,,,,,,,,,,,,,,,,,,,,,,,,,,,,,,,,,,,,,,,,,,,,
,,5d9265cde0cd75001a485441,2026-03-17_14h09.20.481,kallum_motion_pilot_GIST_update_2,2026.1.1,Win32,59.88023952,5d9265cde0cd75001a485441,69b95efdef24cd8a694e89ee,69b960822990c283f8cedb9c,0.0239,0.0239,0,104,104,19,1,twofour,,,,,,,,,,,,,,,,,,,,,,,,,,,,,,,,,,,,,,,,,,,,,,,,,,,,,,,,,,,,,,,,,,,,,,,,,,,,,,,,,,,,,,,,,,,,,,,,,,,,,,,,,,,,,,,,,,,,,,,,,,,,,,,,,,,,,,,,,
,,5d9265cde0cd75001a485441,2026-03-17_14h09.20.481,kallum_motion_pilot_GIST_update_2,2026.1.1,Win32,59.88023952,5d9265cde0cd75001a485441,69b95efdef24cd8a694e89ee,69b960822990c283f8cedb9c,0.0239,0.0239,0,105,105,121,1,fiveseven,,,,,,,,,,,,,,,,,,,,,,,,,,,,,,,,,,,,,,,,,,,,,,,,,,,,,,,,,,,,,,,,,,,,,,,,,,,,,,,,,,,,,,,,,,,,,,,,,,,,,,,,,,,,,,,,,,,,,,,,,,,,,,,,,,,,,,,,,
,,5d9265cde0cd75001a485441,2026-03-17_14h09.20.481,kallum_motion_pilot_GIST_update_2,2026.1.1,Win32,59.88023952,5d9265cde0cd75001a485441,69b95efdef24cd8a694e89ee,69b960822990c283f8cedb9c,0.024,0.024,0,106,106,56,1,onetwo,,,,,,,,,,,,,,,,,,,,,,,,,,,,,,,,,,,,,,,,,,,,,,,,,,,,,,,,,,,,,,,,,,,,,,,,,,,,,,,,,,,,,,,,,,,,,,,,,,,,,,,,,,,,,,,,,,,,,,,,,,,,,,,,,,,,,,,,,
,,5d9265cde0cd75001a485441,2026-03-17_14h09.20.481,kallum_motion_pilot_GIST_update_2,2026.1.1,Win32,59.88023952,5d9265cde0cd75001a485441,69b95efdef24cd8a694e89ee,69b960822990c283f8cedb9c,0.024,0.024,0,107,107,15,1,fourthree,,,,,,,,,,,,,,,,,,,,,,,,,,,,,,,,,,,,,,,,,,,,,,,,,,,,,,,,,,,,,,,,,,,,,,,,,,,,,,,,,,,,,,,,,,,,,,,,,,,,,,,,,,,,,,,,,,,,,,,,,,,,,,,,,,,,,,,,,
,,5d9265cde0cd75001a485441,2026-03-17_14h09.20.481,kallum_motion_pilot_GIST_update_2,2026.1.1,Win32,59.88023952,5d9265cde0cd75001a485441,69b95efdef24cd8a694e89ee,69b960822990c283f8cedb9c,0.0241,0.0241,0,108,108,67,1,twofour,,,,,,,,,,,,,,,,,,,,,,,,,,,,,,,,,,,,,,,,,,,,,,,,,,,,,,,,,,,,,,,,,,,,,,,,,,,,,,,,,,,,,,,,,,,,,,,,,,,,,,,,,,,,,,,,,,,,,,,,,,,,,,,,,,,,,,,,,
,,5d9265cde0cd75001a485441,2026-03-17_14h09.20.481,kallum_motion_pilot_GIST_update_2,2026.1.1,Win32,59.88023952,5d9265cde0cd75001a485441,69b95efdef24cd8a694e89ee,69b960822990c283f8cedb9c,0.0241,0.0241,0,109,109,108,1,sevenfive,,,,,,,,,,,,,,,,,,,,,,,,,,,,,,,,,,,,,,,,,,,,,,,,,,,,,,,,,,,,,,,,,,,,,,,,,,,,,,,,,,,,,,,,,,,,,,,,,,,,,,,,,,,,,,,,,,,,,,,,,,,,,,,,,,,,,,,,,
,,5d9265cde0cd75001a485441,2026-03-17_14h09.20.481,kallum_motion_pilot_GIST_update_2,2026.1.1,Win32,59.88023952,5d9265cde0cd75001a485441,69b95efdef24cd8a694e89ee,69b960822990c283f8cedb9c,0.0242,0.0242,0,110,110,66,1,twoone,,,,,,,,,,,,,,,,,,,,,,,,,,,,,,,,,,,,,,,,,,,,,,,,,,,,,,,,,,,,,,,,,,,,,,,,,,,,,,,,,,,,,,,,,,,,,,,,,,,,,,,,,,,,,,,,,,,,,,,,,,,,,,,,,,,,,,,,,
,,5d9265cde0cd75001a485441,2026-03-17_14h09.20.481,kallum_motion_pilot_GIST_update_2,2026.1.1,Win32,59.88023952,5d9265cde0cd75001a485441,69b95efdef24cd8a694e89ee,69b960822990c283f8cedb9c,0.0243,0.0243,0,111,111,76,1,threeone,,,,,,,,,,,,,,,,,,,,,,,,,,,,,,,,,,,,,,,,,,,,,,,,,,,,,,,,,,,,,,,,,,,,,,,,,,,,,,,,,,,,,,,,,,,,,,,,,,,,,,,,,,,,,,,,,,,,,,,,,,,,,,,,,,,,,,,,,
,,5d9265cde0cd75001a485441,2026-03-17_14h09.20.481,kallum_motion_pilot_GIST_update_2,2026.1.1,Win32,59.88023952,5d9265cde0cd75001a485441,69b95efdef24cd8a694e89ee,69b960822990c283f8cedb9c,0.0244,0.0244,0,112,112,4,1,threeone,,,,,,,,,,,,,,,,,,,,,,,,,,,,,,,,,,,,,,,,,,,,,,,,,,,,,,,,,,,,,,,,,,,,,,,,,,,,,,,,,,,,,,,,,,,,,,,,,,,,,,,,,,,,,,,,,,,,,,,,,,,,,,,,,,,,,,,,,
,,5d9265cde0cd75001a485441,2026-03-17_14h09.20.481,kallum_motion_pilot_GIST_update_2,2026.1.1,Win32,59.88023952,5d9265cde0cd75001a485441,69b95efdef24cd8a694e89ee,69b960822990c283f8cedb9c,0.0245,0.0245,0,113,113,125,1,seveneight,,,,,,,,,,,,,,,,,,,,,,,,,,,,,,,,,,,,,,,,,,,,,,,,,,,,,,,,,,,,,,,,,,,,,,,,,,,,,,,,,,,,,,,,,,,,,,,,,,,,,,,,,,,,,,,,,,,,,,,,,,,,,,,,,,,,,,,,,
,,5d9265cde0cd75001a485441,2026-03-17_14h09.20.481,kallum_motion_pilot_GIST_update_2,2026.1.1,Win32,59.88023952,5d9265cde0cd75001a485441,69b95efdef24cd8a694e89ee,69b960822990c283f8cedb9c,0.0245,0.0245,0,114,114,119,1,eightseven,,,,,,,,,,,,,,,,,,,,,,,,,,,,,,,,,,,,,,,,,,,,,,,,,,,,,,,,,,,,,,,,,,,,,,,,,,,,,,,,,,,,,,,,,,,,,,,,,,,,,,,,,,,,,,,,,,,,,,,,,,,,,,,,,,,,,,,,,
,,5d9265cde0cd75001a485441,2026-03-17_14h09.20.481,kallum_motion_pilot_GIST_update_2,2026.1.1,Win32,59.88023952,5d9265cde0cd75001a485441,69b95efdef24cd8a694e89ee,69b960822990c283f8cedb9c,0.0246,0.0246,0,115,115,122,1,sixfive,,,,,,,,,,,,,,,,,,,,,,,,,,,,,,,,,,,,,,,,,,,,,,,,,,,,,,,,,,,,,,,,,,,,,,,,,,,,,,,,,,,,,,,,,,,,,,,,,,,,,,,,,,,,,,,,,,,,,,,,,,,,,,,,,,,,,,,,,
,,5d9265cde0cd75001a485441,2026-03-17_14h09.20.481,kallum_motion_pilot_GIST_update_2,2026.1.1,Win32,59.88023952,5d9265cde0cd75001a485441,69b95efdef24cd8a694e89ee,69b960822990c283f8cedb9c,0.0247,0.0247,0,116,116,146,1,sixfive,,,,,,,,,,,,,,,,,,,,,,,,,,,,,,,,,,,,,,,,,,,,,,,,,,,,,,,,,,,,,,,,,,,,,,,,,,,,,,,,,,,,,,,,,,,,,,,,,,,,,,,,,,,,,,,,,,,,,,,,,,,,,,,,,,,,,,,,,
,,5d9265cde0cd75001a485441,2026-03-17_14h09.20.481,kallum_motion_pilot_GIST_update_2,2026.1.1,Win32,59.88023952,5d9265cde0cd75001a485441,69b95efdef24cd8a694e89ee,69b960822990c283f8cedb9c,0.0255,0.0255,0,117,117,50,1,twoone,,,,,,,,,,,,,,,,,,,,,,,,,,,,,,,,,,,,,,,,,,,,,,,,,,,,,,,,,,,,,,,,,,,,,,,,,,,,,,,,,,,,,,,,,,,,,,,,,,,,,,,,,,,,,,,,,,,,,,,,,,,,,,,,,,,,,,,,,
,,5d9265cde0cd75001a485441,2026-03-17_14h09.20.481,kallum_motion_pilot_GIST_update_2,2026.1.1,Win32,59.88023952,5d9265cde0cd75001a485441,69b95efdef24cd8a694e89ee,69b960822990c283f8cedb9c,0.0256,0.0256,0,118,118,158,1,eightsix,,,,,,,,,,,,,,,,,,,,,,,,,,,,,,,,,,,,,,,,,,,,,,,,,,,,,,,,,,,,,,,,,,,,,,,,,,,,,,,,,,,,,,,,,,,,,,,,,,,,,,,,,,,,,,,,,,,,,,,,,,,,,,,,,,,,,,,,,
,,5d9265cde0cd75001a485441,2026-03-17_14h09.20.481,kallum_motion_pilot_GIST_update_2,2026.1.1,Win32,59.88023952,5d9265cde0cd75001a485441,69b95efdef24cd8a694e89ee,69b960822990c283f8cedb9c,0.0257,0.0257,0,119,119,105,1,fiveseven,,,,,,,,,,,,,,,,,,,,,,,,,,,,,,,,,,,,,,,,,,,,,,,,,,,,,,,,,,,,,,,,,,,,,,,,,,,,,,,,,,,,,,,,,,,,,,,,,,,,,,,,,,,,,,,,,,,,,,,,,,,,,,,,,,,,,,,,,
,,5d9265cde0cd75001a485441,2026-03-17_14h09.20.481,kallum_motion_pilot_GIST_update_2,2026.1.1,Win32,59.88023952,5d9265cde0cd75001a485441,69b95efdef24cd8a694e89ee,69b960822990c283f8cedb9c,0.0258,0.0258,0,120,120,99,1,sixeight,,,,,,,,,,,,,,,,,,,,,,,,,,,,,,,,,,,,,,,,,,,,,,,,,,,,,,,,,,,,,,,,,,,,,,,,,,,,,,,,,,,,,,,,,,,,,,,,,,,,,,,,,,,,,,,,,,,,,,,,,,,,,,,,,,,,,,,,,
,,5d9265cde0cd75001a485441,2026-03-17_14h09.20.481,kallum_motion_pilot_GIST_update_2,2026.1.1,Win32,59.88023952,5d9265cde0cd75001a485441,69b95efdef24cd8a694e89ee,69b960822990c283f8cedb9c,0.0258,0.0258,0,121,121,23,1,fourthree,,,,,,,,,,,,,,,,,,,,,,,,,,,,,,,,,,,,,,,,,,,,,,,,,,,,,,,,,,,,,,,,,,,,,,,,,,,,,,,,,,,,,,,,,,,,,,,,,,,,,,,,,,,,,,,,,,,,,,,,,,,,,,,,,,,,,,,,,
,,5d9265cde0cd75001a485441,2026-03-17_14h09.20.481,kallum_motion_pilot_GIST_update_2,2026.1.1,Win32,59.88023952,5d9265cde0cd75001a485441,69b95efdef24cd8a694e89ee,69b960822990c283f8cedb9c,0.0259,0.0259,0,122,122,140,1,sevenfive,,,,,,,,,,,,,,,,,,,,,,,,,,,,,,,,,,,,,,,,,,,,,,,,,,,,,,,,,,,,,,,,,,,,,,,,,,,,,,,,,,,,,,,,,,,,,,,,,,,,,,,,,,,,,,,,,,,,,,,,,,,,,,,,,,,,,,,,,
,,5d9265cde0cd75001a485441,2026-03-17_14h09.20.481,kallum_motion_pilot_GIST_update_2,2026.1.1,Win32,59.88023952,5d9265cde0cd75001a485441,69b95efdef24cd8a694e89ee,69b960822990c283f8cedb9c,0.026,0.026,0,123,123,18,1,twoone,,,,,,,,,,,,,,,,,,,,,,,,,,,,,,,,,,,,,,,,,,,,,,,,,,,,,,,,,,,,,,,,,,,,,,,,,,,,,,,,,,,,,,,,,,,,,,,,,,,,,,,,,,,,,,,,,,,,,,,,,,,,,,,,,,,,,,,,,
,,5d9265cde0cd75001a485441,2026-03-17_14h09.20.481,kallum_motion_pilot_GIST_update_2,2026.1.1,Win32,59.88023952,5d9265cde0cd75001a485441,69b95efdef24cd8a694e89ee,69b960822990c283f8cedb9c,0.0261,0.0261,0,124,124,40,1,onetwo,,,,,,,,,,,,,,,,,,,,,,,,,,,,,,,,,,,,,,,,,,,,,,,,,,,,,,,,,,,,,,,,,,,,,,,,,,,,,,,,,,,,,,,,,,,,,,,,,,,,,,,,,,,,,,,,,,,,,,,,,,,,,,,,,,,,,,,,,
,,5d9265cde0cd75001a485441,2026-03-17_14h09.20.481,kallum_motion_pilot_GIST_update_2,2026.1.1,Win32,59.88023952,5d9265cde0cd75001a485441,69b95efdef24cd8a694e89ee,69b960822990c283f8cedb9c,0.0263,0.0263,0,125,125,27,1,twofour,,,,,,,,,,,,,,,,,,,,,,,,,,,,,,,,,,,,,,,,,,,,,,,,,,,,,,,,,,,,,,,,,,,,,,,,,,,,,,,,,,,,,,,,,,,,,,,,,,,,,,,,,,,,,,,,,,,,,,,,,,,,,,,,,,,,,,,,,
,,5d9265cde0cd75001a485441,2026-03-17_14h09.20.481,kallum_motion_pilot_GIST_update_2,2026.1.1,Win32,59.88023952,5d9265cde0cd75001a485441,69b95efdef24cd8a694e89ee,69b960822990c283f8cedb9c,0.0264,0.0264,0,126,126,81,1,fiveseven,,,,,,,,,,,,,,,,,,,,,,,,,,,,,,,,,,,,,,,,,,,,,,,,,,,,,,,,,,,,,,,,,,,,,,,,,,,,,,,,,,,,,,,,,,,,,,,,,,,,,,,,,,,,,,,,,,,,,,,,,,,,,,,,,,,,,,,,,
,,5d9265cde0cd75001a485441,2026-03-17_14h09.20.481,kallum_motion_pilot_GIST_update_2,2026.1.1,Win32,59.88023952,5d9265cde0cd75001a485441,69b95efdef24cd8a694e89ee,69b960822990c283f8cedb9c,0.0265,0.0265,0,127,127,96,1,fivesix,,,,,,,,,,,,,,,,,,,,,,,,,,,,,,,,,,,,,,,,,,,,,,,,,,,,,,,,,,,,,,,,,,,,,,,,,,,,,,,,,,,,,,,,,,,,,,,,,,,,,,,,,,,,,,,,,,,,,,,,,,,,,,,,,,,,,,,,,
,,5d9265cde0cd75001a485441,2026-03-17_14h09.20.481,kallum_motion_pilot_GIST_update_2,2026.1.1,Win32,59.88023952,5d9265cde0cd75001a485441,69b95efdef24cd8a694e89ee,69b960822990c283f8cedb9c,0.0266,0.0266,0,128,128,104,1,fivesix,,,,,,,,,,,,,,,,,,,,,,,,,,,,,,,,,,,,,,,,,,,,,,,,,,,,,,,,,,,,,,,,,,,,,,,,,,,,,,,,,,,,,,,,,,,,,,,,,,,,,,,,,,,,,,,,,,,,,,,,,,,,,,,,,,,,,,,,,
,,5d9265cde0cd75001a485441,2026-03-17_14h09.20.481,kallum_motion_pilot_GIST_update_2,2026.1.1,Win32,59.88023952,5d9265cde0cd75001a485441,69b95efdef24cd8a694e89ee,69b960822990c283f8cedb9c,0.0266,0.0266,0,129,129,70,1,fourtwo,,,,,,,,,,,,,,,,,,,,,,,,,,,,,,,,,,,,,,,,,,,,,,,,,,,,,,,,,,,,,,,,,,,,,,,,,,,,,,,,,,,,,,,,,,,,,,,,,,,,,,,,,,,,,,,,,,,,,,,,,,,,,,,,,,,,,,,,,
,,5d9265cde0cd75001a485441,2026-03-17_14h09.20.481,kallum_motion_pilot_GIST_update_2,2026.1.1,Win32,59.88023952,5d9265cde0cd75001a485441,69b95efdef24cd8a694e89ee,69b960822990c283f8cedb9c,0.0267,0.0267,0,130,130,21,1,threefour,,,,,,,,,,,,,,,,,,,,,,,,,,,,,,,,,,,,,,,,,,,,,,,,,,,,,,,,,,,,,,,,,,,,,,,,,,,,,,,,,,,,,,,,,,,,,,,,,,,,,,,,,,,,,,,,,,,,,,,,,,,,,,,,,,,,,,,,,
,,5d9265cde0cd75001a485441,2026-03-17_14h09.20.481,kallum_motion_pilot_GIST_update_2,2026.1.1,Win32,59.88023952,5d9265cde0cd75001a485441,69b95efdef24cd8a694e89ee,69b960822990c283f8cedb9c,0.0269,0.0269,0,131,131,87,1,eightseven,,,,,,,,,,,,,,,,,,,,,,,,,,,,,,,,,,,,,,,,,,,,,,,,,,,,,,,,,,,,,,,,,,,,,,,,,,,,,,,,,,,,,,,,,,,,,,,,,,,,,,,,,,,,,,,,,,,,,,,,,,,,,,,,,,,,,,,,,
,,5d9265cde0cd75001a485441,2026-03-17_14h09.20.481,kallum_motion_pilot_GIST_update_2,2026.1.1,Win32,59.88023952,5d9265cde0cd75001a485441,69b95efdef24cd8a694e89ee,69b960822990c283f8cedb9c,0.0269,0.0269,0,132,132,41,1,onethree,,,,,,,,,,,,,,,,,,,,,,,,,,,,,,,,,,,,,,,,,,,,,,,,,,,,,,,,,,,,,,,,,,,,,,,,,,,,,,,,,,,,,,,,,,,,,,,,,,,,,,,,,,,,,,,,,,,,,,,,,,,,,,,,,,,,,,,,,
,,5d9265cde0cd75001a485441,2026-03-17_14h09.20.481,kallum_motion_pilot_GIST_update_2,2026.1.1,Win32,59.88023952,5d9265cde0cd75001a485441,69b95efdef24cd8a694e89ee,69b960822990c283f8cedb9c,0.027,0.027,0,133,133,62,1,fourtwo,,,,,,,,,,,,,,,,,,,,,,,,,,,,,,,,,,,,,,,,,,,,,,,,,,,,,,,,,,,,,,,,,,,,,,,,,,,,,,,,,,,,,,,,,,,,,,,,,,,,,,,,,,,,,,,,,,,,,,,,,,,,,,,,,,,,,,,,,
,,5d9265cde0cd75001a485441,2026-03-17_14h09.20.481,kallum_motion_pilot_GIST_update_2,2026.1.1,Win32,59.88023952,5d9265cde0cd75001a485441,69b95efdef24cd8a694e89ee,69b960822990c283f8cedb9c,0.027,0.027,0,134,134,24,1,onetwo,,,,,,,,,,,,,,,,,,,,,,,,,,,,,,,,,,,,,,,,,,,,,,,,,,,,,,,,,,,,,,,,,,,,,,,,,,,,,,,,,,,,,,,,,,,,,,,,,,,,,,,,,,,,,,,,,,,,,,,,,,,,,,,,,,,,,,,,,
,,5d9265cde0cd75001a485441,2026-03-17_14h09.20.481,kallum_motion_pilot_GIST_update_2,2026.1.1,Win32,59.88023952,5d9265cde0cd75001a485441,69b95efdef24cd8a694e89ee,69b960822990c283f8cedb9c,0.027,0.027,0,135,135,149,1,seveneight,,,,,,,,,,,,,,,,,,,,,,,,,,,,,,,,,,,,,,,,,,,,,,,,,,,,,,,,,,,,,,,,,,,,,,,,,,,,,,,,,,,,,,,,,,,,,,,,,,,,,,,,,,,,,,,,,,,,,,,,,,,,,,,,,,,,,,,,,
,,5d9265cde0cd75001a485441,2026-03-17_14h09.20.481,kallum_motion_pilot_GIST_update_2,2026.1.1,Win32,59.88023952,5d9265cde0cd75001a485441,69b95efdef24cd8a694e89ee,69b960822990c283f8cedb9c,0.0272,0.0272,0,136,136,113,1,fiveseven,,,,,,,,,,,,,,,,,,,,,,,,,,,,,,,,,,,,,,,,,,,,,,,,,,,,,,,,,,,,,,,,,,,,,,,,,,,,,,,,,,,,,,,,,,,,,,,,,,,,,,,,,,,,,,,,,,,,,,,,,,,,,,,,,,,,,,,,,
,,5d9265cde0cd75001a485441,2026-03-17_14h09.20.481,kallum_motion_pilot_GIST_update_2,2026.1.1,Win32,59.88023952,5d9265cde0cd75001a485441,69b95efdef24cd8a694e89ee,69b960822990c283f8cedb9c,0.0273,0.0273,0,137,137,154,1,sixfive,,,,,,,,,,,,,,,,,,,,,,,,,,,,,,,,,,,,,,,,,,,,,,,,,,,,,,,,,,,,,,,,,,,,,,,,,,,,,,,,,,,,,,,,,,,,,,,,,,,,,,,,,,,,,,,,,,,,,,,,,,,,,,,,,,,,,,,,,
,,5d9265cde0cd75001a485441,2026-03-17_14h09.20.481,kallum_motion_pilot_GIST_update_2,2026.1.1,Win32,59.88023952,5d9265cde0cd75001a485441,69b95efdef24cd8a694e89ee,69b960822990c283f8cedb9c,0.0273,0.0273,0,138,138,143,1,eightseven,,,,,,,,,,,,,,,,,,,,,,,,,,,,,,,,,,,,,,,,,,,,,,,,,,,,,,,,,,,,,,,,,,,,,,,,,,,,,,,,,,,,,,,,,,,,,,,,,,,,,,,,,,,,,,,,,,,,,,,,,,,,,,,,,,,,,,,,,
,,5d9265cde0cd75001a485441,2026-03-17_14h09.20.481,kallum_motion_pilot_GIST_update_2,2026.1.1,Win32,59.88023952,5d9265cde0cd75001a485441,69b95efdef24cd8a694e89ee,69b960822990c283f8cedb9c,0.0274,0.0274,0,139,139,148,1,sevenfive,,,,,,,,,,,,,,,,,,,,,,,,,,,,,,,,,,,,,,,,,,,,,,,,,,,,,,,,,,,,,,,,,,,,,,,,,,,,,,,,,,,,,,,,,,,,,,,,,,,,,,,,,,,,,,,,,,,,,,,,,,,,,,,,,,,,,,,,,
,,5d9265cde0cd75001a485441,2026-03-17_14h09.20.481,kallum_motion_pilot_GIST_update_2,2026.1.1,Win32,59.88023952,5d9265cde0cd75001a485441,69b95efdef24cd8a694e89ee,69b960822990c283f8cedb9c,0.0276,0.0276,0,140,140,25,1,onethree,,,,,,,,,,,,,,,,,,,,,,,,,,,,,,,,,,,,,,,,,,,,,,,,,,,,,,,,,,,,,,,,,,,,,,,,,,,,,,,,,,,,,,,,,,,,,,,,,,,,,,,,,,,,,,,,,,,,,,,,,,,,,,,,,,,,,,,,,
,,5d9265cde0cd75001a485441,2026-03-17_14h09.20.481,kallum_motion_pilot_GIST_update_2,2026.1.1,Win32,59.88023952,5d9265cde0cd75001a485441,69b95efdef24cd8a694e89ee,69b960822990c283f8cedb9c,0.0277,0.0277,0,141,141,127,1,eightseven,,,,,,,,,,,,,,,,,,,,,,,,,,,,,,,,,,,,,,,,,,,,,,,,,,,,,,,,,,,,,,,,,,,,,,,,,,,,,,,,,,,,,,,,,,,,,,,,,,,,,,,,,,,,,,,,,,,,,,,,,,,,,,,,,,,,,,,,,
,,5d9265cde0cd75001a485441,2026-03-17_14h09.20.481,kallum_motion_pilot_GIST_update_2,2026.1.1,Win32,59.88023952,5d9265cde0cd75001a485441,69b95efdef24cd8a694e89ee,69b960822990c283f8cedb9c,0.0278,0.0278,0,142,142,7,1,fourthree,,,,,,,,,,,,,,,,,,,,,,,,,,,,,,,,,,,,,,,,,,,,,,,,,,,,,,,,,,,,,,,,,,,,,,,,,,,,,,,,,,,,,,,,,,,,,,,,,,,,,,,,,,,,,,,,,,,,,,,,,,,,,,,,,,,,,,,,,
,,5d9265cde0cd75001a485441,2026-03-17_14h09.20.481,kallum_motion_pilot_GIST_update_2,2026.1.1,Win32,59.88023952,5d9265cde0cd75001a485441,69b95efdef24cd8a694e89ee,69b960822990c283f8cedb9c,0.0278,0.0278,0,143,143,3,1,twofour,,,,,,,,,,,,,,,,,,,,,,,,,,,,,,,,,,,,,,,,,,,,,,,,,,,,,,,,,,,,,,,,,,,,,,,,,,,,,,,,,,,,,,,,,,,,,,,,,,,,,,,,,,,,,,,,,,,,,,,,,,,,,,,,,,,,,,,,,
,,5d9265cde0cd75001a485441,2026-03-17_14h09.20.481,kallum_motion_pilot_GIST_update_2,2026.1.1,Win32,59.88023952,5d9265cde0cd75001a485441,69b95efdef24cd8a694e89ee,69b960822990c283f8cedb9c,0.0279,0.0279,0,144,144,9,1,onethree,,,,,,,,,,,,,,,,,,,,,,,,,,,,,,,,,,,,,,,,,,,,,,,,,,,,,,,,,,,,,,,,,,,,,,,,,,,,,,,,,,,,,,,,,,,,,,,,,,,,,,,,,,,,,,,,,,,,,,,,,,,,,,,,,,,,,,,,,
,,5d9265cde0cd75001a485441,2026-03-17_14h09.20.481,kallum_motion_pilot_GIST_update_2,2026.1.1,Win32,59.88023952,5d9265cde0cd75001a485441,69b95efdef24cd8a694e89ee,69b960822990c283f8cedb9c,0.0279,0.0279,0,145,145,37,1,threefour,,,,,,,,,,,,,,,,,,,,,,,,,,,,,,,,,,,,,,,,,,,,,,,,,,,,,,,,,,,,,,,,,,,,,,,,,,,,,,,,,,,,,,,,,,,,,,,,,,,,,,,,,,,,,,,,,,,,,,,,,,,,,,,,,,,,,,,,,
,,5d9265cde0cd75001a485441,2026-03-17_14h09.20.481,kallum_motion_pilot_GIST_update_2,2026.1.1,Win32,59.88023952,5d9265cde0cd75001a485441,69b95efdef24cd8a694e89ee,69b960822990c283f8cedb9c,0.0281,0.0281,0,146,146,48,1,onetwo,,,,,,,,,,,,,,,,,,,,,,,,,,,,,,,,,,,,,,,,,,,,,,,,,,,,,,,,,,,,,,,,,,,,,,,,,,,,,,,,,,,,,,,,,,,,,,,,,,,,,,,,,,,,,,,,,,,,,,,,,,,,,,,,,,,,,,,,,
,,5d9265cde0cd75001a485441,2026-03-17_14h09.20.481,kallum_motion_pilot_GIST_update_2,2026.1.1,Win32,59.88023952,5d9265cde0cd75001a485441,69b95efdef24cd8a694e89ee,69b960822990c283f8cedb9c,0.0281,0.0281,0,147,147,145,1,fiveseven,,,,,,,,,,,,,,,,,,,,,,,,,,,,,,,,,,,,,,,,,,,,,,,,,,,,,,,,,,,,,,,,,,,,,,,,,,,,,,,,,,,,,,,,,,,,,,,,,,,,,,,,,,,,,,,,,,,,,,,,,,,,,,,,,,,,,,,,,
,,5d9265cde0cd75001a485441,2026-03-17_14h09.20.481,kallum_motion_pilot_GIST_update_2,2026.1.1,Win32,59.88023952,5d9265cde0cd75001a485441,69b95efdef24cd8a694e89ee,69b960822990c283f8cedb9c,0.0283,0.0283,0,148,148,133,1,seveneight,,,,,,,,,,,,,,,,,,,,,,,,,,,,,,,,,,,,,,,,,,,,,,,,,,,,,,,,,,,,,,,,,,,,,,,,,,,,,,,,,,,,,,,,,,,,,,,,,,,,,,,,,,,,,,,,,,,,,,,,,,,,,,,,,,,,,,,,,
,,5d9265cde0cd75001a485441,2026-03-17_14h09.20.481,kallum_motion_pilot_GIST_update_2,2026.1.1,Win32,59.88023952,5d9265cde0cd75001a485441,69b95efdef24cd8a694e89ee,69b960822990c283f8cedb9c,0.0284,0.0284,0,149,149,97,1,fiveseven,,,,,,,,,,,,,,,,,,,,,,,,,,,,,,,,,,,,,,,,,,,,,,,,,,,,,,,,,,,,,,,,,,,,,,,,,,,,,,,,,,,,,,,,,,,,,,,,,,,,,,,,,,,,,,,,,,,,,,,,,,,,,,,,,,,,,,,,,
,,5d9265cde0cd75001a485441,2026-03-17_14h09.20.481,kallum_motion_pilot_GIST_update_2,2026.1.1,Win32,59.88023952,5d9265cde0cd75001a485441,69b95efdef24cd8a694e89ee,69b960822990c283f8cedb9c,0.0284,0.0284,0,150,150,6,1,fourtwo,,,,,,,,,,,,,,,,,,,,,,,,,,,,,,,,,,,,,,,,,,,,,,,,,,,,,,,,,,,,,,,,,,,,,,,,,,,,,,,,,,,,,,,,,,,,,,,,,,,,,,,,,,,,,,,,,,,,,,,,,,,,,,,,,,,,,,,,,
,,5d9265cde0cd75001a485441,2026-03-17_14h09.20.481,kallum_motion_pilot_GIST_update_2,2026.1.1,Win32,59.88023952,5d9265cde0cd75001a485441,69b95efdef24cd8a694e89ee,69b960822990c283f8cedb9c,0.0285,0.0285,0,151,151,98,1,sixfive,,,,,,,,,,,,,,,,,,,,,,,,,,,,,,,,,,,,,,,,,,,,,,,,,,,,,,,,,,,,,,,,,,,,,,,,,,,,,,,,,,,,,,,,,,,,,,,,,,,,,,,,,,,,,,,,,,,,,,,,,,,,,,,,,,,,,,,,,
,,5d9265cde0cd75001a485441,2026-03-17_14h09.20.481,kallum_motion_pilot_GIST_update_2,2026.1.1,Win32,59.88023952,5d9265cde0cd75001a485441,69b95efdef24cd8a694e89ee,69b960822990c283f8cedb9c,0.0286,0.0286,0,152,152,1,1,onethree,,,,,,,,,,,,,,,,,,,,,,,,,,,,,,,,,,,,,,,,,,,,,,,,,,,,,,,,,,,,,,,,,,,,,,,,,,,,,,,,,,,,,,,,,,,,,,,,,,,,,,,,,,,,,,,,,,,,,,,,,,,,,,,,,,,,,,,,,
,,5d9265cde0cd75001a485441,2026-03-17_14h09.20.481,kallum_motion_pilot_GIST_update_2,2026.1.1,Win32,59.88023952,5d9265cde0cd75001a485441,69b95efdef24cd8a694e89ee,69b960822990c283f8cedb9c,0.0286,0.0286,0,153,153,35,1,twofour,,,,,,,,,,,,,,,,,,,,,,,,,,,,,,,,,,,,,,,,,,,,,,,,,,,,,,,,,,,,,,,,,,,,,,,,,,,,,,,,,,,,,,,,,,,,,,,,,,,,,,,,,,,,,,,,,,,,,,,,,,,,,,,,,,,,,,,,,
,,5d9265cde0cd75001a485441,2026-03-17_14h09.20.481,kallum_motion_pilot_GIST_update_2,2026.1.1,Win32,59.88023952,5d9265cde0cd75001a485441,69b95efdef24cd8a694e89ee,69b960822990c283f8cedb9c,0.0286,0.0286,0,154,154,101,1,seveneight,,,,,,,,,,,,,,,,,,,,,,,,,,,,,,,,,,,,,,,,,,,,,,,,,,,,,,,,,,,,,,,,,,,,,,,,,,,,,,,,,,,,,,,,,,,,,,,,,,,,,,,,,,,,,,,,,,,,,,,,,,,,,,,,,,,,,,,,,
,,5d9265cde0cd75001a485441,2026-03-17_14h09.20.481,kallum_motion_pilot_GIST_update_2,2026.1.1,Win32,59.88023952,5d9265cde0cd75001a485441,69b95efdef24cd8a694e89ee,69b960822990c283f8cedb9c,0.0287,0.0287,0,155,155,89,1,fiveseven,,,,,,,,,,,,,,,,,,,,,,,,,,,,,,,,,,,,,,,,,,,,,,,,,,,,,,,,,,,,,,,,,,,,,,,,,,,,,,,,,,,,,,,,,,,,,,,,,,,,,,,,,,,,,,,,,,,,,,,,,,,,,,,,,,,,,,,,,
,,5d9265cde0cd75001a485441,2026-03-17_14h09.20.481,kallum_motion_pilot_GIST_update_2,2026.1.1,Win32,59.88023952,5d9265cde0cd75001a485441,69b95efdef24cd8a694e89ee,69b960822990c283f8cedb9c,0.0287,0.0287,0,156,156,161,1,fiveseven,,,,,,,,,,,,,,,,,,,,,,,,,,,,,,,,,,,,,,,,,,,,,,,,,,,,,,,,,,,,,,,,,,,,,,,,,,,,,,,,,,,,,,,,,,,,,,,,,,,,,,,,,,,,,,,,,,,,,,,,,,,,,,,,,,,,,,,,,
,,5d9265cde0cd75001a485441,2026-03-17_14h09.20.481,kallum_motion_pilot_GIST_update_2,2026.1.1,Win32,59.88023952,5d9265cde0cd75001a485441,69b95efdef24cd8a694e89ee,69b960822990c283f8cedb9c,0.0288,0.0288,0,157,157,34,1,twoone,,,,,,,,,,,,,,,,,,,,,,,,,,,,,,,,,,,,,,,,,,,,,,,,,,,,,,,,,,,,,,,,,,,,,,,,,,,,,,,,,,,,,,,,,,,,,,,,,,,,,,,,,,,,,,,,,,,,,,,,,,,,,,,,,,,,,,,,,
,,5d9265cde0cd75001a485441,2026-03-17_14h09.20.481,kallum_motion_pilot_GIST_update_2,2026.1.1,Win32,59.88023952,5d9265cde0cd75001a485441,69b95efdef24cd8a694e89ee,69b960822990c283f8cedb9c,0.0288,0.0288,0,158,158,63,1,fourthree,,,,,,,,,,,,,,,,,,,,,,,,,,,,,,,,,,,,,,,,,,,,,,,,,,,,,,,,,,,,,,,,,,,,,,,,,,,,,,,,,,,,,,,,,,,,,,,,,,,,,,,,,,,,,,,,,,,,,,,,,,,,,,,,,,,,,,,,,
,,5d9265cde0cd75001a485441,2026-03-17_14h09.20.481,kallum_motion_pilot_GIST_update_2,2026.1.1,Win32,59.88023952,5d9265cde0cd75001a485441,69b95efdef24cd8a694e89ee,69b960822990c283f8cedb9c,0.029,0.029,0,159,159,33,1,onethree,,,,,,,,,,,,,,,,,,,,,,,,,,,,,,,,,,,,,,,,,,,,,,,,,,,,,,,,,,,,,,,,,,,,,,,,,,,,,,,,,,,,,,,,,,,,,,,,,,,,,,,,,,,,,,,,,,,,,,,,,,,,,,,,,,,,,,,,,
,,5d9265cde0cd75001a485441,2026-03-17_14h09.20.481,kallum_motion_pilot_GIST_update_2,2026.1.1,Win32,59.88023952,5d9265cde0cd75001a485441,69b95efdef24cd8a694e89ee,69b960822990c283f8cedb9c,0.029,0.029,0,160,160,88,1,fivesix,,,,,,,,,,,,,,,,,,,,,,,,,,,,,,,,,,,,,,,,,,,,,,,,,,,,,,,,,,,,,,,,,,,,,,,,,,,,,,,,,,,,,,,,,,,,,,,,,,,,,,,,,,,,,,,,,,,,,,,,,,,,,,,,,,,,,,,,,
,,5d9265cde0cd75001a485441,2026-03-17_14h09.20.481,kallum_motion_pilot_GIST_update_2,2026.1.1,Win32,59.88023952,5d9265cde0cd75001a485441,69b95efdef24cd8a694e89ee,69b960822990c283f8cedb9c,0.0291,0.0291,0,161,161,129,1,fiveseven,,,,,,,,,,,,,,,,,,,,,,,,,,,,,,,,,,,,,,,,,,,,,,,,,,,,,,,,,,,,,,,,,,,,,,,,,,,,,,,,,,,,,,,,,,,,,,,,,,,,,,,,,,,,,,,,,,,,,,,,,,,,,,,,,,,,,,,,,
,,5d9265cde0cd75001a485441,2026-03-17_14h09.20.481,kallum_motion_pilot_GIST_update_2,2026.1.1,Win32,59.88023952,5d9265cde0cd75001a485441,69b95efdef24cd8a694e89ee,69b960822990c283f8cedb9c,0.0291,0.0291,1,0,162,58,1,twoone,,,,,,,,,,,,,,,,,,,,,,,,,,,,,,,,,,,,,,,,,,,,,,,,,,,,,,,,,,,,,,,,,,,,,,,,,,,,,,,,,,,,,,,,,,,,,,,,,,,,,,,,,,,,,,,,,,,,,,,,,,,,,,,,,,,,,,,,,
,,5d9265cde0cd75001a485441,2026-03-17_14h09.20.481,kallum_motion_pilot_GIST_update_2,2026.1.1,Win32,59.88023952,5d9265cde0cd75001a485441,69b95efdef24cd8a694e89ee,69b960822990c283f8cedb9c,0.0292,0.0292,1,1,163,23,1,fourthree,,,,,,,,,,,,,,,,,,,,,,,,,,,,,,,,,,,,,,,,,,,,,,,,,,,,,,,,,,,,,,,,,,,,,,,,,,,,,,,,,,,,,,,,,,,,,,,,,,,,,,,,,,,,,,,,,,,,,,,,,,,,,,,,,,,,,,,,,
,,5d9265cde0cd75001a485441,2026-03-17_14h09.20.481,kallum_motion_pilot_GIST_update_2,2026.1.1,Win32,59.88023952,5d9265cde0cd75001a485441,69b95efdef24cd8a694e89ee,69b960822990c283f8cedb9c,0.0292,0.0292,1,2,164,13,1,threefour,,,,,,,,,,,,,,,,,,,,,,,,,,,,,,,,,,,,,,,,,,,,,,,,,,,,,,,,,,,,,,,,,,,,,,,,,,,,,,,,,,,,,,,,,,,,,,,,,,,,,,,,,,,,,,,,,,,,,,,,,,,,,,,,,,,,,,,,,
,,5d9265cde0cd75001a485441,2026-03-17_14h09.20.481,kallum_motion_pilot_GIST_update_2,2026.1.1,Win32,59.88023952,5d9265cde0cd75001a485441,69b95efdef24cd8a694e89ee,69b960822990c283f8cedb9c,0.0294,0.0294,1,3,165,48,1,onetwo,,,,,,,,,,,,,,,,,,,,,,,,,,,,,,,,,,,,,,,,,,,,,,,,,,,,,,,,,,,,,,,,,,,,,,,,,,,,,,,,,,,,,,,,,,,,,,,,,,,,,,,,,,,,,,,,,,,,,,,,,,,,,,,,,,,,,,,,,
,,5d9265cde0cd75001a485441,2026-03-17_14h09.20.481,kallum_motion_pilot_GIST_update_2,2026.1.1,Win32,59.88023952,5d9265cde0cd75001a485441,69b95efdef24cd8a694e89ee,69b960822990c283f8cedb9c,0.0294,0.0294,1,4,166,93,1,seveneight,,,,,,,,,,,,,,,,,,,,,,,,,,,,,,,,,,,,,,,,,,,,,,,,,,,,,,,,,,,,,,,,,,,,,,,,,,,,,,,,,,,,,,,,,,,,,,,,,,,,,,,,,,,,,,,,,,,,,,,,,,,,,,,,,,,,,,,,,
,,5d9265cde0cd75001a485441,2026-03-17_14h09.20.481,kallum_motion_pilot_GIST_update_2,2026.1.1,Win32,59.88023952,5d9265cde0cd75001a485441,69b95efdef24cd8a694e89ee,69b960822990c283f8cedb9c,0.0295,0.0295,1,5,167,100,1,sevenfive,,,,,,,,,,,,,,,,,,,,,,,,,,,,,,,,,,,,,,,,,,,,,,,,,,,,,,,,,,,,,,,,,,,,,,,,,,,,,,,,,,,,,,,,,,,,,,,,,,,,,,,,,,,,,,,,,,,,,,,,,,,,,,,,,,,,,,,,,
,,5d9265cde0cd75001a485441,2026-03-17_14h09.20.481,kallum_motion_pilot_GIST_update_2,2026.1.1,Win32,59.88023952,5d9265cde0cd75001a485441,69b95efdef24cd8a694e89ee,69b960822990c283f8cedb9c,0.0295,0.0295,1,6,168,3,1,twofour,,,,,,,,,,,,,,,,,,,,,,,,,,,,,,,,,,,,,,,,,,,,,,,,,,,,,,,,,,,,,,,,,,,,,,,,,,,,,,,,,,,,,,,,,,,,,,,,,,,,,,,,,,,,,,,,,,,,,,,,,,,,,,,,,,,,,,,,,
,,5d9265cde0cd75001a485441,2026-03-17_14h09.20.481,kallum_motion_pilot_GIST_update_2,2026.1.1,Win32,59.88023952,5d9265cde0cd75001a485441,69b95efdef24cd8a694e89ee,69b960822990c283f8cedb9c,0.0296,0.0296,1,7,169,88,1,fivesix,,,,,,,,,,,,,,,,,,,,,,,,,,,,,,,,,,,,,,,,,,,,,,,,,,,,,,,,,,,,,,,,,,,,,,,,,,,,,,,,,,,,,,,,,,,,,,,,,,,,,,,,,,,,,,,,,,,,,,,,,,,,,,,,,,,,,,,,,
,,5d9265cde0cd75001a485441,2026-03-17_14h09.20.481,kallum_motion_pilot_GIST_update_2,2026.1.1,Win32,59.88023952,5d9265cde0cd75001a485441,69b95efdef24cd8a694e89ee,69b960822990c283f8cedb9c,0.0297,0.0297,1,8,170,136,1,fivesix,,,,,,,,,,,,,,,,,,,,,,,,,,,,,,,,,,,,,,,,,,,,,,,,,,,,,,,,,,,,,,,,,,,,,,,,,,,,,,,,,,,,,,,,,,,,,,,,,,,,,,,,,,,,,,,,,,,,,,,,,,,,,,,,,,,,,,,,,
,,5d9265cde0cd75001a485441,2026-03-17_14h09.20.481,kallum_motion_pilot_GIST_update_2,2026.1.1,Win32,59.88023952,5d9265cde0cd75001a485441,69b95efdef24cd8a694e89ee,69b960822990c283f8cedb9c,0.0297,0.0297,1,9,171,36,1,threeone,,,,,,,,,,,,,,,,,,,,,,,,,,,,,,,,,,,,,,,,,,,,,,,,,,,,,,,,,,,,,,,,,,,,,,,,,,,,,,,,,,,,,,,,,,,,,,,,,,,,,,,,,,,,,,,,,,,,,,,,,,,,,,,,,,,,,,,,,
,,5d9265cde0cd75001a485441,2026-03-17_14h09.20.481,kallum_motion_pilot_GIST_update_2,2026.1.1,Win32,59.88023952,5d9265cde0cd75001a485441,69b95efdef24cd8a694e89ee,69b960822990c283f8cedb9c,0.0298,0.0298,1,10,172,157,1,seveneight,,,,,,,,,,,,,,,,,,,,,,,,,,,,,,,,,,,,,,,,,,,,,,,,,,,,,,,,,,,,,,,,,,,,,,,,,,,,,,,,,,,,,,,,,,,,,,,,,,,,,,,,,,,,,,,,,,,,,,,,,,,,,,,,,,,,,,,,,
,,5d9265cde0cd75001a485441,2026-03-17_14h09.20.481,kallum_motion_pilot_GIST_update_2,2026.1.1,Win32,59.88023952,5d9265cde0cd75001a485441,69b95efdef24cd8a694e89ee,69b960822990c283f8cedb9c,0.0299,0.0299,1,11,173,137,1,fiveseven,,,,,,,,,,,,,,,,,,,,,,,,,,,,,,,,,,,,,,,,,,,,,,,,,,,,,,,,,,,,,,,,,,,,,,,,,,,,,,,,,,,,,,,,,,,,,,,,,,,,,,,,,,,,,,,,,,,,,,,,,,,,,,,,,,,,,,,,,
,,5d9265cde0cd75001a485441,2026-03-17_14h09.20.481,kallum_motion_pilot_GIST_update_2,2026.1.1,Win32,59.88023952,5d9265cde0cd75001a485441,69b95efdef24cd8a694e89ee,69b960822990c283f8cedb9c,0.0299,0.0299,1,12,174,61,1,threefour,,,,,,,,,,,,,,,,,,,,,,,,,,,,,,,,,,,,,,,,,,,,,,,,,,,,,,,,,,,,,,,,,,,,,,,,,,,,,,,,,,,,,,,,,,,,,,,,,,,,,,,,,,,,,,,,,,,,,,,,,,,,,,,,,,,,,,,,,
,,5d9265cde0cd75001a485441,2026-03-17_14h09.20.481,kallum_motion_pilot_GIST_update_2,2026.1.1,Win32,59.88023952,5d9265cde0cd75001a485441,69b95efdef24cd8a694e89ee,69b960822990c283f8cedb9c,0.03,0.03,1,13,175,31,1,fourthree,,,,,,,,,,,,,,,,,,,,,,,,,,,,,,,,,,,,,,,,,,,,,,,,,,,,,,,,,,,,,,,,,,,,,,,,,,,,,,,,,,,,,,,,,,,,,,,,,,,,,,,,,,,,,,,,,,,,,,,,,,,,,,,,,,,,,,,,,
,,5d9265cde0cd75001a485441,2026-03-17_14h09.20.481,kallum_motion_pilot_GIST_update_2,2026.1.1,Win32,59.88023952,5d9265cde0cd75001a485441,69b95efdef24cd8a694e89ee,69b960822990c283f8cedb9c,0.0301,0.0301,1,14,176,71,1,fourthree,,,,,,,,,,,,,,,,,,,,,,,,,,,,,,,,,,,,,,,,,,,,,,,,,,,,,,,,,,,,,,,,,,,,,,,,,,,,,,,,,,,,,,,,,,,,,,,,,,,,,,,,,,,,,,,,,,,,,,,,,,,,,,,,,,,,,,,,,
,,5d9265cde0cd75001a485441,2026-03-17_14h09.20.481,kallum_motion_pilot_GIST_update_2,2026.1.1,Win32,59.88023952,5d9265cde0cd75001a485441,69b95efdef24cd8a694e89ee,69b960822990c283f8cedb9c,0.0304,0.0304,1,15,177,20,1,threeone,,,,,,,,,,,,,,,,,,,,,,,,,,,,,,,,,,,,,,,,,,,,,,,,,,,,,,,,,,,,,,,,,,,,,,,,,,,,,,,,,,,,,,,,,,,,,,,,,,,,,,,,,,,,,,,,,,,,,,,,,,,,,,,,,,,,,,,,,
,,5d9265cde0cd75001a485441,2026-03-17_14h09.20.481,kallum_motion_pilot_GIST_update_2,2026.1.1,Win32,59.88023952,5d9265cde0cd75001a485441,69b95efdef24cd8a694e89ee,69b960822990c283f8cedb9c,0.0305,0.0305,1,16,178,45,1,threefour,,,,,,,,,,,,,,,,,,,,,,,,,,,,,,,,,,,,,,,,,,,,,,,,,,,,,,,,,,,,,,,,,,,,,,,,,,,,,,,,,,,,,,,,,,,,,,,,,,,,,,,,,,,,,,,,,,,,,,,,,,,,,,,,,,,,,,,,,
,,5d9265cde0cd75001a485441,2026-03-17_14h09.20.481,kallum_motion_pilot_GIST_update_2,2026.1.1,Win32,59.88023952,5d9265cde0cd75001a485441,69b95efdef24cd8a694e89ee,69b960822990c283f8cedb9c,0.0307,0.0307,1,17,179,82,1,sixfive,,,,,,,,,,,,,,,,,,,,,,,,,,,,,,,,,,,,,,,,,,,,,,,,,,,,,,,,,,,,,,,,,,,,,,,,,,,,,,,,,,,,,,,,,,,,,,,,,,,,,,,,,,,,,,,,,,,,,,,,,,,,,,,,,,,,,,,,,
,,5d9265cde0cd75001a485441,2026-03-17_14h09.20.481,kallum_motion_pilot_GIST_update_2,2026.1.1,Win32,59.88023952,5d9265cde0cd75001a485441,69b95efdef24cd8a694e89ee,69b960822990c283f8cedb9c,0.0307,0.0307,1,18,180,95,1,eightseven,,,,,,,,,,,,,,,,,,,,,,,,,,,,,,,,,,,,,,,,,,,,,,,,,,,,,,,,,,,,,,,,,,,,,,,,,,,,,,,,,,,,,,,,,,,,,,,,,,,,,,,,,,,,,,,,,,,,,,,,,,,,,,,,,,,,,,,,,
,,5d9265cde0cd75001a485441,2026-03-17_14h09.20.481,kallum_motion_pilot_GIST_update_2,2026.1.1,Win32,59.88023952,5d9265cde0cd75001a485441,69b95efdef24cd8a694e89ee,69b960822990c283f8cedb9c,0.0309,0.0309,1,19,181,106,1,sixfive,,,,,,,,,,,,,,,,,,,,,,,,,,,,,,,,,,,,,,,,,,,,,,,,,,,,,,,,,,,,,,,,,,,,,,,,,,,,,,,,,,,,,,,,,,,,,,,,,,,,,,,,,,,,,,,,,,,,,,,,,,,,,,,,,,,,,,,,,
,,5d9265cde0cd75001a485441,2026-03-17_14h09.20.481,kallum_motion_pilot_GIST_update_2,2026.1.1,Win32,59.88023952,5d9265cde0cd75001a485441,69b95efdef24cd8a694e89ee,69b960822990c283f8cedb9c,0.031,0.031,1,20,182,62,1,fourtwo,,,,,,,,,,,,,,,,,,,,,,,,,,,,,,,,,,,,,,,,,,,,,,,,,,,,,,,,,,,,,,,,,,,,,,,,,,,,,,,,,,,,,,,,,,,,,,,,,,,,,,,,,,,,,,,,,,,,,,,,,,,,,,,,,,,,,,,,,
,,5d9265cde0cd75001a485441,2026-03-17_14h09.20.481,kallum_motion_pilot_GIST_update_2,2026.1.1,Win32,59.88023952,5d9265cde0cd75001a485441,69b95efdef24cd8a694e89ee,69b960822990c283f8cedb9c,0.0312,0.0312,1,21,183,56,1,onetwo,,,,,,,,,,,,,,,,,,,,,,,,,,,,,,,,,,,,,,,,,,,,,,,,,,,,,,,,,,,,,,,,,,,,,,,,,,,,,,,,,,,,,,,,,,,,,,,,,,,,,,,,,,,,,,,,,,,,,,,,,,,,,,,,,,,,,,,,,
,,5d9265cde0cd75001a485441,2026-03-17_14h09.20.481,kallum_motion_pilot_GIST_update_2,2026.1.1,Win32,59.88023952,5d9265cde0cd75001a485441,69b95efdef24cd8a694e89ee,69b960822990c283f8cedb9c,0.0313,0.0313,1,22,184,4,1,threeone,,,,,,,,,,,,,,,,,,,,,,,,,,,,,,,,,,,,,,,,,,,,,,,,,,,,,,,,,,,,,,,,,,,,,,,,,,,,,,,,,,,,,,,,,,,,,,,,,,,,,,,,,,,,,,,,,,,,,,,,,,,,,,,,,,,,,,,,,
,,5d9265cde0cd75001a485441,2026-03-17_14h09.20.481,kallum_motion_pilot_GIST_update_2,2026.1.1,Win32,59.88023952,5d9265cde0cd75001a485441,69b95efdef24cd8a694e89ee,69b960822990c283f8cedb9c,0.0315,0.0315,1,23,185,140,1,sevenfive,,,,,,,,,,,,,,,,,,,,,,,,,,,,,,,,,,,,,,,,,,,,,,,,,,,,,,,,,,,,,,,,,,,,,,,,,,,,,,,,,,,,,,,,,,,,,,,,,,,,,,,,,,,,,,,,,,,,,,,,,,,,,,,,,,,,,,,,,
,,5d9265cde0cd75001a485441,2026-03-17_14h09.20.481,kallum_motion_pilot_GIST_update_2,2026.1.1,Win32,59.88023952,5d9265cde0cd75001a485441,69b95efdef24cd8a694e89ee,69b960822990c283f8cedb9c,0.0316,0.0316,1,24,186,67,1,twofour,,,,,,,,,,,,,,,,,,,,,,,,,,,,,,,,,,,,,,,,,,,,,,,,,,,,,,,,,,,,,,,,,,,,,,,,,,,,,,,,,,,,,,,,,,,,,,,,,,,,,,,,,,,,,,,,,,,,,,,,,,,,,,,,,,,,,,,,,
,,5d9265cde0cd75001a485441,2026-03-17_14h09.20.481,kallum_motion_pilot_GIST_update_2,2026.1.1,Win32,59.88023952,5d9265cde0cd75001a485441,69b95efdef24cd8a694e89ee,69b960822990c283f8cedb9c,0.0317,0.0317,1,25,187,57,1,onethree,,,,,,,,,,,,,,,,,,,,,,,,,,,,,,,,,,,,,,,,,,,,,,,,,,,,,,,,,,,,,,,,,,,,,,,,,,,,,,,,,,,,,,,,,,,,,,,,,,,,,,,,,,,,,,,,,,,,,,,,,,,,,,,,,,,,,,,,,
,,5d9265cde0cd75001a485441,2026-03-17_14h09.20.481,kallum_motion_pilot_GIST_update_2,2026.1.1,Win32,59.88023952,5d9265cde0cd75001a485441,69b95efdef24cd8a694e89ee,69b960822990c283f8cedb9c,0.0319,0.0319,1,26,188,64,1,onetwo,,,,,,,,,,,,,,,,,,,,,,,,,,,,,,,,,,,,,,,,,,,,,,,,,,,,,,,,,,,,,,,,,,,,,,,,,,,,,,,,,,,,,,,,,,,,,,,,,,,,,,,,,,,,,,,,,,,,,,,,,,,,,,,,,,,,,,,,,
,,5d9265cde0cd75001a485441,2026-03-17_14h09.20.481,kallum_motion_pilot_GIST_update_2,2026.1.1,Win32,59.88023952,5d9265cde0cd75001a485441,69b95efdef24cd8a694e89ee,69b960822990c283f8cedb9c,0.032,0.032,1,27,189,133,1,seveneight,,,,,,,,,,,,,,,,,,,,,,,,,,,,,,,,,,,,,,,,,,,,,,,,,,,,,,,,,,,,,,,,,,,,,,,,,,,,,,,,,,,,,,,,,,,,,,,,,,,,,,,,,,,,,,,,,,,,,,,,,,,,,,,,,,,,,,,,,
,,5d9265cde0cd75001a485441,2026-03-17_14h09.20.481,kallum_motion_pilot_GIST_update_2,2026.1.1,Win32,59.88023952,5d9265cde0cd75001a485441,69b95efdef24cd8a694e89ee,69b960822990c283f8cedb9c,0.0321,0.0321,1,28,190,81,1,fiveseven,,,,,,,,,,,,,,,,,,,,,,,,,,,,,,,,,,,,,,,,,,,,,,,,,,,,,,,,,,,,,,,,,,,,,,,,,,,,,,,,,,,,,,,,,,,,,,,,,,,,,,,,,,,,,,,,,,,,,,,,,,,,,,,,,,,,,,,,,
,,5d9265cde0cd75001a485441,2026-03-17_14h09.20.481,kallum_motion_pilot_GIST_update_2,2026.1.1,Win32,59.88023952,5d9265cde0cd75001a485441,69b95efdef24cd8a694e89ee,69b960822990c283f8cedb9c,0.0322,0.0322,1,29,191,115,1,sixeight,,,,,,,,,,,,,,,,,,,,,,,,,,,,,,,,,,,,,,,,,,,,,,,,,,,,,,,,,,,,,,,,,,,,,,,,,,,,,,,,,,,,,,,,,,,,,,,,,,,,,,,,,,,,,,,,,,,,,,,,,,,,,,,,,,,,,,,,,
,,5d9265cde0cd75001a485441,2026-03-17_14h09.20.481,kallum_motion_pilot_GIST_update_2,2026.1.1,Win32,59.88023952,5d9265cde0cd75001a485441,69b95efdef24cd8a694e89ee,69b960822990c283f8cedb9c,0.0324,0.0324,1,30,192,102,1,eightsix,,,,,,,,,,,,,,,,,,,,,,,,,,,,,,,,,,,,,,,,,,,,,,,,,,,,,,,,,,,,,,,,,,,,,,,,,,,,,,,,,,,,,,,,,,,,,,,,,,,,,,,,,,,,,,,,,,,,,,,,,,,,,,,,,,,,,,,,,
,,5d9265cde0cd75001a485441,2026-03-17_14h09.20.481,kallum_motion_pilot_GIST_update_2,2026.1.1,Win32,59.88023952,5d9265cde0cd75001a485441,69b95efdef24cd8a694e89ee,69b960822990c283f8cedb9c,0.0325,0.0325,1,31,193,37,1,threefour,,,,,,,,,,,,,,,,,,,,,,,,,,,,,,,,,,,,,,,,,,,,,,,,,,,,,,,,,,,,,,,,,,,,,,,,,,,,,,,,,,,,,,,,,,,,,,,,,,,,,,,,,,,,,,,,,,,,,,,,,,,,,,,,,,,,,,,,,
,,5d9265cde0cd75001a485441,2026-03-17_14h09.20.481,kallum_motion_pilot_GIST_update_2,2026.1.1,Win32,59.88023952,5d9265cde0cd75001a485441,69b95efdef24cd8a694e89ee,69b960822990c283f8cedb9c,0.0326,0.0326,1,32,194,128,1,fivesix,,,,,,,,,,,,,,,,,,,,,,,,,,,,,,,,,,,,,,,,,,,,,,,,,,,,,,,,,,,,,,,,,,,,,,,,,,,,,,,,,,,,,,,,,,,,,,,,,,,,,,,,,,,,,,,,,,,,,,,,,,,,,,,,,,,,,,,,,
,,5d9265cde0cd75001a485441,2026-03-17_14h09.20.481,kallum_motion_pilot_GIST_update_2,2026.1.1,Win32,59.88023952,5d9265cde0cd75001a485441,69b95efdef24cd8a694e89ee,69b960822990c283f8cedb9c,0.0327,0.0327,1,33,195,87,1,eightseven,,,,,,,,,,,,,,,,,,,,,,,,,,,,,,,,,,,,,,,,,,,,,,,,,,,,,,,,,,,,,,,,,,,,,,,,,,,,,,,,,,,,,,,,,,,,,,,,,,,,,,,,,,,,,,,,,,,,,,,,,,,,,,,,,,,,,,,,,
,,5d9265cde0cd75001a485441,2026-03-17_14h09.20.481,kallum_motion_pilot_GIST_update_2,2026.1.1,Win32,59.88023952,5d9265cde0cd75001a485441,69b95efdef24cd8a694e89ee,69b960822990c283f8cedb9c,0.0328,0.0328,1,34,196,96,1,fivesix,,,,,,,,,,,,,,,,,,,,,,,,,,,,,,,,,,,,,,,,,,,,,,,,,,,,,,,,,,,,,,,,,,,,,,,,,,,,,,,,,,,,,,,,,,,,,,,,,,,,,,,,,,,,,,,,,,,,,,,,,,,,,,,,,,,,,,,,,
,,5d9265cde0cd75001a485441,2026-03-17_14h09.20.481,kallum_motion_pilot_GIST_update_2,2026.1.1,Win32,59.88023952,5d9265cde0cd75001a485441,69b95efdef24cd8a694e89ee,69b960822990c283f8cedb9c,0.0329,0.0329,1,35,197,6,1,fourtwo,,,,,,,,,,,,,,,,,,,,,,,,,,,,,,,,,,,,,,,,,,,,,,,,,,,,,,,,,,,,,,,,,,,,,,,,,,,,,,,,,,,,,,,,,,,,,,,,,,,,,,,,,,,,,,,,,,,,,,,,,,,,,,,,,,,,,,,,,
,,5d9265cde0cd75001a485441,2026-03-17_14h09.20.481,kallum_motion_pilot_GIST_update_2,2026.1.1,Win32,59.88023952,5d9265cde0cd75001a485441,69b95efdef24cd8a694e89ee,69b960822990c283f8cedb9c,0.033,0.033,1,36,198,152,1,fivesix,,,,,,,,,,,,,,,,,,,,,,,,,,,,,,,,,,,,,,,,,,,,,,,,,,,,,,,,,,,,,,,,,,,,,,,,,,,,,,,,,,,,,,,,,,,,,,,,,,,,,,,,,,,,,,,,,,,,,,,,,,,,,,,,,,,,,,,,,
,,5d9265cde0cd75001a485441,2026-03-17_14h09.20.481,kallum_motion_pilot_GIST_update_2,2026.1.1,Win32,59.88023952,5d9265cde0cd75001a485441,69b95efdef24cd8a694e89ee,69b960822990c283f8cedb9c,0.033,0.033,1,37,199,141,1,seveneight,,,,,,,,,,,,,,,,,,,,,,,,,,,,,,,,,,,,,,,,,,,,,,,,,,,,,,,,,,,,,,,,,,,,,,,,,,,,,,,,,,,,,,,,,,,,,,,,,,,,,,,,,,,,,,,,,,,,,,,,,,,,,,,,,,,,,,,,,
,,5d9265cde0cd75001a485441,2026-03-17_14h09.20.481,kallum_motion_pilot_GIST_update_2,2026.1.1,Win32,59.88023952,5d9265cde0cd75001a485441,69b95efdef24cd8a694e89ee,69b960822990c283f8cedb9c,0.0332,0.0332,1,38,200,154,1,sixfive,,,,,,,,,,,,,,,,,,,,,,,,,,,,,,,,,,,,,,,,,,,,,,,,,,,,,,,,,,,,,,,,,,,,,,,,,,,,,,,,,,,,,,,,,,,,,,,,,,,,,,,,,,,,,,,,,,,,,,,,,,,,,,,,,,,,,,,,,
,,5d9265cde0cd75001a485441,2026-03-17_14h09.20.481,kallum_motion_pilot_GIST_update_2,2026.1.1,Win32,59.88023952,5d9265cde0cd75001a485441,69b95efdef24cd8a694e89ee,69b960822990c283f8cedb9c,0.0333,0.0333,1,39,201,135,1,eightseven,,,,,,,,,,,,,,,,,,,,,,,,,,,,,,,,,,,,,,,,,,,,,,,,,,,,,,,,,,,,,,,,,,,,,,,,,,,,,,,,,,,,,,,,,,,,,,,,,,,,,,,,,,,,,,,,,,,,,,,,,,,,,,,,,,,,,,,,,
,,5d9265cde0cd75001a485441,2026-03-17_14h09.20.481,kallum_motion_pilot_GIST_update_2,2026.1.1,Win32,59.88023952,5d9265cde0cd75001a485441,69b95efdef24cd8a694e89ee,69b960822990c283f8cedb9c,0.0334,0.0334,1,40,202,17,1,onethree,,,,,,,,,,,,,,,,,,,,,,,,,,,,,,,,,,,,,,,,,,,,,,,,,,,,,,,,,,,,,,,,,,,,,,,,,,,,,,,,,,,,,,,,,,,,,,,,,,,,,,,,,,,,,,,,,,,,,,,,,,,,,,,,,,,,,,,,,
,,5d9265cde0cd75001a485441,2026-03-17_14h09.20.481,kallum_motion_pilot_GIST_update_2,2026.1.1,Win32,59.88023952,5d9265cde0cd75001a485441,69b95efdef24cd8a694e89ee,69b960822990c283f8cedb9c,0.0335,0.0335,1,41,203,15,1,fourthree,,,,,,,,,,,,,,,,,,,,,,,,,,,,,,,,,,,,,,,,,,,,,,,,,,,,,,,,,,,,,,,,,,,,,,,,,,,,,,,,,,,,,,,,,,,,,,,,,,,,,,,,,,,,,,,,,,,,,,,,,,,,,,,,,,,,,,,,,
,,5d9265cde0cd75001a485441,2026-03-17_14h09.20.481,kallum_motion_pilot_GIST_update_2,2026.1.1,Win32,59.88023952,5d9265cde0cd75001a485441,69b95efdef24cd8a694e89ee,69b960822990c283f8cedb9c,0.0335,0.0335,1,42,204,155,1,sixeight,,,,,,,,,,,,,,,,,,,,,,,,,,,,,,,,,,,,,,,,,,,,,,,,,,,,,,,,,,,,,,,,,,,,,,,,,,,,,,,,,,,,,,,,,,,,,,,,,,,,,,,,,,,,,,,,,,,,,,,,,,,,,,,,,,,,,,,,,
,,5d9265cde0cd75001a485441,2026-03-17_14h09.20.481,kallum_motion_pilot_GIST_update_2,2026.1.1,Win32,59.88023952,5d9265cde0cd75001a485441,69b95efdef24cd8a694e89ee,69b960822990c283f8cedb9c,0.0337,0.0337,1,43,205,69,1,threefour,,,,,,,,,,,,,,,,,,,,,,,,,,,,,,,,,,,,,,,,,,,,,,,,,,,,,,,,,,,,,,,,,,,,,,,,,,,,,,,,,,,,,,,,,,,,,,,,,,,,,,,,,,,,,,,,,,,,,,,,,,,,,,,,,,,,,,,,,
,,5d9265cde0cd75001a485441,2026-03-17_14h09.20.481,kallum_motion_pilot_GIST_update_2,2026.1.1,Win32,59.88023952,5d9265cde0cd75001a485441,69b95efdef24cd8a694e89ee,69b960822990c283f8cedb9c,0.0337,0.0337,1,44,206,134,1,eightsix,,,,,,,,,,,,,,,,,,,,,,,,,,,,,,,,,,,,,,,,,,,,,,,,,,,,,,,,,,,,,,,,,,,,,,,,,,,,,,,,,,,,,,,,,,,,,,,,,,,,,,,,,,,,,,,,,,,,,,,,,,,,,,,,,,,,,,,,,
,,5d9265cde0cd75001a485441,2026-03-17_14h09.20.481,kallum_motion_pilot_GIST_update_2,2026.1.1,Win32,59.88023952,5d9265cde0cd75001a485441,69b95efdef24cd8a694e89ee,69b960822990c283f8cedb9c,0.0339,0.0339,1,45,207,65,1,onethree,,,,,,,,,,,,,,,,,,,,,,,,,,,,,,,,,,,,,,,,,,,,,,,,,,,,,,,,,,,,,,,,,,,,,,,,,,,,,,,,,,,,,,,,,,,,,,,,,,,,,,,,,,,,,,,,,,,,,,,,,,,,,,,,,,,,,,,,,
,,5d9265cde0cd75001a485441,2026-03-17_14h09.20.481,kallum_motion_pilot_GIST_update_2,2026.1.1,Win32,59.88023952,5d9265cde0cd75001a485441,69b95efdef24cd8a694e89ee,69b960822990c283f8cedb9c,0.0339,0.034,1,46,208,34,1,twoone,,,,,,,,,,,,,,,,,,,,,,,,,,,,,,,,,,,,,,,,,,,,,,,,,,,,,,,,,,,,,,,,,,,,,,,,,,,,,,,,,,,,,,,,,,,,,,,,,,,,,,,,,,,,,,,,,,,,,,,,,,,,,,,,,,,,,,,,,
,,5d9265cde0cd75001a485441,2026-03-17_14h09.20.481,kallum_motion_pilot_GIST_update_2,2026.1.1,Win32,59.88023952,5d9265cde0cd75001a485441,69b95efdef24cd8a694e89ee,69b960822990c283f8cedb9c,0.0341,0.0341,1,47,209,18,1,twoone,,,,,,,,,,,,,,,,,,,,,,,,,,,,,,,,,,,,,,,,,,,,,,,,,,,,,,,,,,,,,,,,,,,,,,,,,,,,,,,,,,,,,,,,,,,,,,,,,,,,,,,,,,,,,,,,,,,,,,,,,,,,,,,,,,,,,,,,,
,,5d9265cde0cd75001a485441,2026-03-17_14h09.20.481,kallum_motion_pilot_GIST_update_2,2026.1.1,Win32,59.88023952,5d9265cde0cd75001a485441,69b95efdef24cd8a694e89ee,69b960822990c283f8cedb9c,0.0342,0.0342,1,48,210,9,1,onethree,,,,,,,,,,,,,,,,,,,,,,,,,,,,,,,,,,,,,,,,,,,,,,,,,,,,,,,,,,,,,,,,,,,,,,,,,,,,,,,,,,,,,,,,,,,,,,,,,,,,,,,,,,,,,,,,,,,,,,,,,,,,,,,,,,,,,,,,,
,,5d9265cde0cd75001a485441,2026-03-17_14h09.20.481,kallum_motion_pilot_GIST_update_2,2026.1.1,Win32,59.88023952,5d9265cde0cd75001a485441,69b95efdef24cd8a694e89ee,69b960822990c283f8cedb9c,0.0343,0.0343,1,49,211,33,1,onethree,,,,,,,,,,,,,,,,,,,,,,,,,,,,,,,,,,,,,,,,,,,,,,,,,,,,,,,,,,,,,,,,,,,,,,,,,,,,,,,,,,,,,,,,,,,,,,,,,,,,,,,,,,,,,,,,,,,,,,,,,,,,,,,,,,,,,,,,,
,,5d9265cde0cd75001a485441,2026-03-17_14h09.20.481,kallum_motion_pilot_GIST_update_2,2026.1.1,Win32,59.88023952,5d9265cde0cd75001a485441,69b95efdef24cd8a694e89ee,69b960822990c283f8cedb9c,0.0343,0.0343,1,50,212,118,1,eightsix,,,,,,,,,,,,,,,,,,,,,,,,,,,,,,,,,,,,,,,,,,,,,,,,,,,,,,,,,,,,,,,,,,,,,,,,,,,,,,,,,,,,,,,,,,,,,,,,,,,,,,,,,,,,,,,,,,,,,,,,,,,,,,,,,,,,,,,,,
,,5d9265cde0cd75001a485441,2026-03-17_14h09.20.481,kallum_motion_pilot_GIST_update_2,2026.1.1,Win32,59.88023952,5d9265cde0cd75001a485441,69b95efdef24cd8a694e89ee,69b960822990c283f8cedb9c,0.0345,0.0345,1,51,213,148,1,sevenfive,,,,,,,,,,,,,,,,,,,,,,,,,,,,,,,,,,,,,,,,,,,,,,,,,,,,,,,,,,,,,,,,,,,,,,,,,,,,,,,,,,,,,,,,,,,,,,,,,,,,,,,,,,,,,,,,,,,,,,,,,,,,,,,,,,,,,,,,,
,,5d9265cde0cd75001a485441,2026-03-17_14h09.20.481,kallum_motion_pilot_GIST_update_2,2026.1.1,Win32,59.88023952,5d9265cde0cd75001a485441,69b95efdef24cd8a694e89ee,69b960822990c283f8cedb9c,0.0346,0.0346,1,52,214,156,1,sevenfive,,,,,,,,,,,,,,,,,,,,,,,,,,,,,,,,,,,,,,,,,,,,,,,,,,,,,,,,,,,,,,,,,,,,,,,,,,,,,,,,,,,,,,,,,,,,,,,,,,,,,,,,,,,,,,,,,,,,,,,,,,,,,,,,,,,,,,,,,
,,5d9265cde0cd75001a485441,2026-03-17_14h09.20.481,kallum_motion_pilot_GIST_update_2,2026.1.1,Win32,59.88023952,5d9265cde0cd75001a485441,69b95efdef24cd8a694e89ee,69b960822990c283f8cedb9c,0.0346,0.0346,1,53,215,12,1,threeone,,,,,,,,,,,,,,,,,,,,,,,,,,,,,,,,,,,,,,,,,,,,,,,,,,,,,,,,,,,,,,,,,,,,,,,,,,,,,,,,,,,,,,,,,,,,,,,,,,,,,,,,,,,,,,,,,,,,,,,,,,,,,,,,,,,,,,,,,
,,5d9265cde0cd75001a485441,2026-03-17_14h09.20.481,kallum_motion_pilot_GIST_update_2,2026.1.1,Win32,59.88023952,5d9265cde0cd75001a485441,69b95efdef24cd8a694e89ee,69b960822990c283f8cedb9c,0.0348,0.0348,1,54,216,89,1,fiveseven,,,,,,,,,,,,,,,,,,,,,,,,,,,,,,,,,,,,,,,,,,,,,,,,,,,,,,,,,,,,,,,,,,,,,,,,,,,,,,,,,,,,,,,,,,,,,,,,,,,,,,,,,,,,,,,,,,,,,,,,,,,,,,,,,,,,,,,,,
,,5d9265cde0cd75001a485441,2026-03-17_14h09.20.481,kallum_motion_pilot_GIST_update_2,2026.1.1,Win32,59.88023952,5d9265cde0cd75001a485441,69b95efdef24cd8a694e89ee,69b960822990c283f8cedb9c,0.0349,0.0349,1,55,217,109,1,seveneight,,,,,,,,,,,,,,,,,,,,,,,,,,,,,,,,,,,,,,,,,,,,,,,,,,,,,,,,,,,,,,,,,,,,,,,,,,,,,,,,,,,,,,,,,,,,,,,,,,,,,,,,,,,,,,,,,,,,,,,,,,,,,,,,,,,,,,,,,
,,5d9265cde0cd75001a485441,2026-03-17_14h09.20.481,kallum_motion_pilot_GIST_update_2,2026.1.1,Win32,59.88023952,5d9265cde0cd75001a485441,69b95efdef24cd8a694e89ee,69b960822990c283f8cedb9c,0.0349,0.0349,1,56,218,131,1,sixeight,,,,,,,,,,,,,,,,,,,,,,,,,,,,,,,,,,,,,,,,,,,,,,,,,,,,,,,,,,,,,,,,,,,,,,,,,,,,,,,,,,,,,,,,,,,,,,,,,,,,,,,,,,,,,,,,,,,,,,,,,,,,,,,,,,,,,,,,,
,,5d9265cde0cd75001a485441,2026-03-17_14h09.20.481,kallum_motion_pilot_GIST_update_2,2026.1.1,Win32,59.88023952,5d9265cde0cd75001a485441,69b95efdef24cd8a694e89ee,69b960822990c283f8cedb9c,0.035,0.035,1,57,219,108,1,sevenfive,,,,,,,,,,,,,,,,,,,,,,,,,,,,,,,,,,,,,,,,,,,,,,,,,,,,,,,,,,,,,,,,,,,,,,,,,,,,,,,,,,,,,,,,,,,,,,,,,,,,,,,,,,,,,,,,,,,,,,,,,,,,,,,,,,,,,,,,,
,,5d9265cde0cd75001a485441,2026-03-17_14h09.20.481,kallum_motion_pilot_GIST_update_2,2026.1.1,Win32,59.88023952,5d9265cde0cd75001a485441,69b95efdef24cd8a694e89ee,69b960822990c283f8cedb9c,0.0351,0.0351,1,58,220,0,1,onetwo,,,,,,,,,,,,,,,,,,,,,,,,,,,,,,,,,,,,,,,,,,,,,,,,,,,,,,,,,,,,,,,,,,,,,,,,,,,,,,,,,,,,,,,,,,,,,,,,,,,,,,,,,,,,,,,,,,,,,,,,,,,,,,,,,,,,,,,,,
,,5d9265cde0cd75001a485441,2026-03-17_14h09.20.481,kallum_motion_pilot_GIST_update_2,2026.1.1,Win32,59.88023952,5d9265cde0cd75001a485441,69b95efdef24cd8a694e89ee,69b960822990c283f8cedb9c,0.0351,0.0351,1,59,221,159,1,eightseven,,,,,,,,,,,,,,,,,,,,,,,,,,,,,,,,,,,,,,,,,,,,,,,,,,,,,,,,,,,,,,,,,,,,,,,,,,,,,,,,,,,,,,,,,,,,,,,,,,,,,,,,,,,,,,,,,,,,,,,,,,,,,,,,,,,,,,,,,
,,5d9265cde0cd75001a485441,2026-03-17_14h09.20.481,kallum_motion_pilot_GIST_update_2,2026.1.1,Win32,59.88023952,5d9265cde0cd75001a485441,69b95efdef24cd8a694e89ee,69b960822990c283f8cedb9c,0.0352,0.0352,1,60,222,143,1,eightseven,,,,,,,,,,,,,,,,,,,,,,,,,,,,,,,,,,,,,,,,,,,,,,,,,,,,,,,,,,,,,,,,,,,,,,,,,,,,,,,,,,,,,,,,,,,,,,,,,,,,,,,,,,,,,,,,,,,,,,,,,,,,,,,,,,,,,,,,,
,,5d9265cde0cd75001a485441,2026-03-17_14h09.20.481,kallum_motion_pilot_GIST_update_2,2026.1.1,Win32,59.88023952,5d9265cde0cd75001a485441,69b95efdef24cd8a694e89ee,69b960822990c283f8cedb9c,0.0352,0.0352,1,61,223,91,1,sixeight,,,,,,,,,,,,,,,,,,,,,,,,,,,,,,,,,,,,,,,,,,,,,,,,,,,,,,,,,,,,,,,,,,,,,,,,,,,,,,,,,,,,,,,,,,,,,,,,,,,,,,,,,,,,,,,,,,,,,,,,,,,,,,,,,,,,,,,,,
,,5d9265cde0cd75001a485441,2026-03-17_14h09.20.481,kallum_motion_pilot_GIST_update_2,2026.1.1,Win32,59.88023952,5d9265cde0cd75001a485441,69b95efdef24cd8a694e89ee,69b960822990c283f8cedb9c,0.0353,0.0353,1,62,224,53,1,threefour,,,,,,,,,,,,,,,,,,,,,,,,,,,,,,,,,,,,,,,,,,,,,,,,,,,,,,,,,,,,,,,,,,,,,,,,,,,,,,,,,,,,,,,,,,,,,,,,,,,,,,,,,,,,,,,,,,,,,,,,,,,,,,,,,,,,,,,,,
,,5d9265cde0cd75001a485441,2026-03-17_14h09.20.481,kallum_motion_pilot_GIST_update_2,2026.1.1,Win32,59.88023952,5d9265cde0cd75001a485441,69b95efdef24cd8a694e89ee,69b960822990c283f8cedb9c,0.0354,0.0354,1,63,225,19,1,twofour,,,,,,,,,,,,,,,,,,,,,,,,,,,,,,,,,,,,,,,,,,,,,,,,,,,,,,,,,,,,,,,,,,,,,,,,,,,,,,,,,,,,,,,,,,,,,,,,,,,,,,,,,,,,,,,,,,,,,,,,,,,,,,,,,,,,,,,,,
,,5d9265cde0cd75001a485441,2026-03-17_14h09.20.481,kallum_motion_pilot_GIST_update_2,2026.1.1,Win32,59.88023952,5d9265cde0cd75001a485441,69b95efdef24cd8a694e89ee,69b960822990c283f8cedb9c,0.0355,0.0355,1,64,226,145,1,fiveseven,,,,,,,,,,,,,,,,,,,,,,,,,,,,,,,,,,,,,,,,,,,,,,,,,,,,,,,,,,,,,,,,,,,,,,,,,,,,,,,,,,,,,,,,,,,,,,,,,,,,,,,,,,,,,,,,,,,,,,,,,,,,,,,,,,,,,,,,,
,,5d9265cde0cd75001a485441,2026-03-17_14h09.20.481,kallum_motion_pilot_GIST_update_2,2026.1.1,Win32,59.88023952,5d9265cde0cd75001a485441,69b95efdef24cd8a694e89ee,69b960822990c283f8cedb9c,0.0357,0.0357,1,65,227,127,1,eightseven,,,,,,,,,,,,,,,,,,,,,,,,,,,,,,,,,,,,,,,,,,,,,,,,,,,,,,,,,,,,,,,,,,,,,,,,,,,,,,,,,,,,,,,,,,,,,,,,,,,,,,,,,,,,,,,,,,,,,,,,,,,,,,,,,,,,,,,,,
,,5d9265cde0cd75001a485441,2026-03-17_14h09.20.481,kallum_motion_pilot_GIST_update_2,2026.1.1,Win32,59.88023952,5d9265cde0cd75001a485441,69b95efdef24cd8a694e89ee,69b960822990c283f8cedb9c,0.0358,0.0358,1,66,228,153,1,fiveseven,,,,,,,,,,,,,,,,,,,,,,,,,,,,,,,,,,,,,,,,,,,,,,,,,,,,,,,,,,,,,,,,,,,,,,,,,,,,,,,,,,,,,,,,,,,,,,,,,,,,,,,,,,,,,,,,,,,,,,,,,,,,,,,,,,,,,,,,,
,,5d9265cde0cd75001a485441,2026-03-17_14h09.20.481,kallum_motion_pilot_GIST_update_2,2026.1.1,Win32,59.88023952,5d9265cde0cd75001a485441,69b95efdef24cd8a694e89ee,69b960822990c283f8cedb9c,0.0359,0.0359,1,67,229,80,1,fivesix,,,,,,,,,,,,,,,,,,,,,,,,,,,,,,,,,,,,,,,,,,,,,,,,,,,,,,,,,,,,,,,,,,,,,,,,,,,,,,,,,,,,,,,,,,,,,,,,,,,,,,,,,,,,,,,,,,,,,,,,,,,,,,,,,,,,,,,,,
,,5d9265cde0cd75001a485441,2026-03-17_14h09.20.481,kallum_motion_pilot_GIST_update_2,2026.1.1,Win32,59.88023952,5d9265cde0cd75001a485441,69b95efdef24cd8a694e89ee,69b960822990c283f8cedb9c,0.036,0.036,1,68,230,55,1,fourthree,,,,,,,,,,,,,,,,,,,,,,,,,,,,,,,,,,,,,,,,,,,,,,,,,,,,,,,,,,,,,,,,,,,,,,,,,,,,,,,,,,,,,,,,,,,,,,,,,,,,,,,,,,,,,,,,,,,,,,,,,,,,,,,,,,,,,,,,,
,,5d9265cde0cd75001a485441,2026-03-17_14h09.20.481,kallum_motion_pilot_GIST_update_2,2026.1.1,Win32,59.88023952,5d9265cde0cd75001a485441,69b95efdef24cd8a694e89ee,69b960822990c283f8cedb9c,0.036,0.036,1,69,231,94,1,eightsix,,,,,,,,,,,,,,,,,,,,,,,,,,,,,,,,,,,,,,,,,,,,,,,,,,,,,,,,,,,,,,,,,,,,,,,,,,,,,,,,,,,,,,,,,,,,,,,,,,,,,,,,,,,,,,,,,,,,,,,,,,,,,,,,,,,,,,,,,
,,5d9265cde0cd75001a485441,2026-03-17_14h09.20.481,kallum_motion_pilot_GIST_update_2,2026.1.1,Win32,59.88023952,5d9265cde0cd75001a485441,69b95efdef24cd8a694e89ee,69b960822990c283f8cedb9c,0.0361,0.0361,1,70,232,68,1,threeone,,,,,,,,,,,,,,,,,,,,,,,,,,,,,,,,,,,,,,,,,,,,,,,,,,,,,,,,,,,,,,,,,,,,,,,,,,,,,,,,,,,,,,,,,,,,,,,,,,,,,,,,,,,,,,,,,,,,,,,,,,,,,,,,,,,,,,,,,
,,5d9265cde0cd75001a485441,2026-03-17_14h09.20.481,kallum_motion_pilot_GIST_update_2,2026.1.1,Win32,59.88023952,5d9265cde0cd75001a485441,69b95efdef24cd8a694e89ee,69b960822990c283f8cedb9c,0.0363,0.0363,1,71,233,120,1,fivesix,,,,,,,,,,,,,,,,,,,,,,,,,,,,,,,,,,,,,,,,,,,,,,,,,,,,,,,,,,,,,,,,,,,,,,,,,,,,,,,,,,,,,,,,,,,,,,,,,,,,,,,,,,,,,,,,,,,,,,,,,,,,,,,,,,,,,,,,,
,,5d9265cde0cd75001a485441,2026-03-17_14h09.20.481,kallum_motion_pilot_GIST_update_2,2026.1.1,Win32,59.88023952,5d9265cde0cd75001a485441,69b95efdef24cd8a694e89ee,69b960822990c283f8cedb9c,0.0364,0.0364,1,72,234,104,1,fivesix,,,,,,,,,,,,,,,,,,,,,,,,,,,,,,,,,,,,,,,,,,,,,,,,,,,,,,,,,,,,,,,,,,,,,,,,,,,,,,,,,,,,,,,,,,,,,,,,,,,,,,,,,,,,,,,,,,,,,,,,,,,,,,,,,,,,,,,,,
,,5d9265cde0cd75001a485441,2026-03-17_14h09.20.481,kallum_motion_pilot_GIST_update_2,2026.1.1,Win32,59.88023952,5d9265cde0cd75001a485441,69b95efdef24cd8a694e89ee,69b960822990c283f8cedb9c,0.0364,0.0364,1,73,235,73,1,onethree,,,,,,,,,,,,,,,,,,,,,,,,,,,,,,,,,,,,,,,,,,,,,,,,,,,,,,,,,,,,,,,,,,,,,,,,,,,,,,,,,,,,,,,,,,,,,,,,,,,,,,,,,,,,,,,,,,,,,,,,,,,,,,,,,,,,,,,,,
,,5d9265cde0cd75001a485441,2026-03-17_14h09.20.481,kallum_motion_pilot_GIST_update_2,2026.1.1,Win32,59.88023952,5d9265cde0cd75001a485441,69b95efdef24cd8a694e89ee,69b960822990c283f8cedb9c,0.0365,0.0365,1,74,236,38,1,fourtwo,,,,,,,,,,,,,,,,,,,,,,,,,,,,,,,,,,,,,,,,,,,,,,,,,,,,,,,,,,,,,,,,,,,,,,,,,,,,,,,,,,,,,,,,,,,,,,,,,,,,,,,,,,,,,,,,,,,,,,,,,,,,,,,,,,,,,,,,,
,,5d9265cde0cd75001a485441,2026-03-17_14h09.20.481,kallum_motion_pilot_GIST_update_2,2026.1.1,Win32,59.88023952,5d9265cde0cd75001a485441,69b95efdef24cd8a694e89ee,69b960822990c283f8cedb9c,0.0366,0.0366,1,75,237,32,1,onetwo,,,,,,,,,,,,,,,,,,,,,,,,,,,,,,,,,,,,,,,,,,,,,,,,,,,,,,,,,,,,,,,,,,,,,,,,,,,,,,,,,,,,,,,,,,,,,,,,,,,,,,,,,,,,,,,,,,,,,,,,,,,,,,,,,,,,,,,,,
,,5d9265cde0cd75001a485441,2026-03-17_14h09.20.481,kallum_motion_pilot_GIST_update_2,2026.1.1,Win32,59.88023952,5d9265cde0cd75001a485441,69b95efdef24cd8a694e89ee,69b960822990c283f8cedb9c,0.0367,0.0367,1,76,238,121,1,fiveseven,,,,,,,,,,,,,,,,,,,,,,,,,,,,,,,,,,,,,,,,,,,,,,,,,,,,,,,,,,,,,,,,,,,,,,,,,,,,,,,,,,,,,,,,,,,,,,,,,,,,,,,,,,,,,,,,,,,,,,,,,,,,,,,,,,,,,,,,,
,,5d9265cde0cd75001a485441,2026-03-17_14h09.20.481,kallum_motion_pilot_GIST_update_2,2026.1.1,Win32,59.88023952,5d9265cde0cd75001a485441,69b95efdef24cd8a694e89ee,69b960822990c283f8cedb9c,0.0368,0.0368,1,77,239,122,1,sixfive,,,,,,,,,,,,,,,,,,,,,,,,,,,,,,,,,,,,,,,,,,,,,,,,,,,,,,,,,,,,,,,,,,,,,,,,,,,,,,,,,,,,,,,,,,,,,,,,,,,,,,,,,,,,,,,,,,,,,,,,,,,,,,,,,,,,,,,,,
,,5d9265cde0cd75001a485441,2026-03-17_14h09.20.481,kallum_motion_pilot_GIST_update_2,2026.1.1,Win32,59.88023952,5d9265cde0cd75001a485441,69b95efdef24cd8a694e89ee,69b960822990c283f8cedb9c,0.0369,0.0369,1,78,240,10,1,twoone,,,,,,,,,,,,,,,,,,,,,,,,,,,,,,,,,,,,,,,,,,,,,,,,,,,,,,,,,,,,,,,,,,,,,,,,,,,,,,,,,,,,,,,,,,,,,,,,,,,,,,,,,,,,,,,,,,,,,,,,,,,,,,,,,,,,,,,,,
,,5d9265cde0cd75001a485441,2026-03-17_14h09.20.481,kallum_motion_pilot_GIST_update_2,2026.1.1,Win32,59.88023952,5d9265cde0cd75001a485441,69b95efdef24cd8a694e89ee,69b960822990c283f8cedb9c,0.0371,0.0371,1,79,241,98,1,sixfive,,,,,,,,,,,,,,,,,,,,,,,,,,,,,,,,,,,,,,,,,,,,,,,,,,,,,,,,,,,,,,,,,,,,,,,,,,,,,,,,,,,,,,,,,,,,,,,,,,,,,,,,,,,,,,,,,,,,,,,,,,,,,,,,,,,,,,,,,
,,5d9265cde0cd75001a485441,2026-03-17_14h09.20.481,kallum_motion_pilot_GIST_update_2,2026.1.1,Win32,59.88023952,5d9265cde0cd75001a485441,69b95efdef24cd8a694e89ee,69b960822990c283f8cedb9c,0.0371,0.0372,1,80,242,117,1,seveneight,,,,,,,,,,,,,,,,,,,,,,,,,,,,,,,,,,,,,,,,,,,,,,,,,,,,,,,,,,,,,,,,,,,,,,,,,,,,,,,,,,,,,,,,,,,,,,,,,,,,,,,,,,,,,,,,,,,,,,,,,,,,,,,,,,,,,,,,,
,,5d9265cde0cd75001a485441,2026-03-17_14h09.20.481,kallum_motion_pilot_GIST_update_2,2026.1.1,Win32,59.88023952,5d9265cde0cd75001a485441,69b95efdef24cd8a694e89ee,69b960822990c283f8cedb9c,0.0372,0.0373,1,81,243,1,1,onethree,,,,,,,,,,,,,,,,,,,,,,,,,,,,,,,,,,,,,,,,,,,,,,,,,,,,,,,,,,,,,,,,,,,,,,,,,,,,,,,,,,,,,,,,,,,,,,,,,,,,,,,,,,,,,,,,,,,,,,,,,,,,,,,,,,,,,,,,,
,,5d9265cde0cd75001a485441,2026-03-17_14h09.20.481,kallum_motion_pilot_GIST_update_2,2026.1.1,Win32,59.88023952,5d9265cde0cd75001a485441,69b95efdef24cd8a694e89ee,69b960822990c283f8cedb9c,0.0374,0.0374,1,82,244,22,1,fourtwo,,,,,,,,,,,,,,,,,,,,,,,,,,,,,,,,,,,,,,,,,,,,,,,,,,,,,,,,,,,,,,,,,,,,,,,,,,,,,,,,,,,,,,,,,,,,,,,,,,,,,,,,,,,,,,,,,,,,,,,,,,,,,,,,,,,,,,,,,
,,5d9265cde0cd75001a485441,2026-03-17_14h09.20.481,kallum_motion_pilot_GIST_update_2,2026.1.1,Win32,59.88023952,5d9265cde0cd75001a485441,69b95efdef24cd8a694e89ee,69b960822990c283f8cedb9c,0.0375,0.0375,1,83,245,126,1,eightsix,,,,,,,,,,,,,,,,,,,,,,,,,,,,,,,,,,,,,,,,,,,,,,,,,,,,,,,,,,,,,,,,,,,,,,,,,,,,,,,,,,,,,,,,,,,,,,,,,,,,,,,,,,,,,,,,,,,,,,,,,,,,,,,,,,,,,,,,,
,,5d9265cde0cd75001a485441,2026-03-17_14h09.20.481,kallum_motion_pilot_GIST_update_2,2026.1.1,Win32,59.88023952,5d9265cde0cd75001a485441,69b95efdef24cd8a694e89ee,69b960822990c283f8cedb9c,0.0377,0.0377,1,84,246,44,1,threeone,,,,,,,,,,,,,,,,,,,,,,,,,,,,,,,,,,,,,,,,,,,,,,,,,,,,,,,,,,,,,,,,,,,,,,,,,,,,,,,,,,,,,,,,,,,,,,,,,,,,,,,,,,,,,,,,,,,,,,,,,,,,,,,,,,,,,,,,,
,,5d9265cde0cd75001a485441,2026-03-17_14h09.20.481,kallum_motion_pilot_GIST_update_2,2026.1.1,Win32,59.88023952,5d9265cde0cd75001a485441,69b95efdef24cd8a694e89ee,69b960822990c283f8cedb9c,0.0378,0.0378,1,85,247,113,1,fiveseven,,,,,,,,,,,,,,,,,,,,,,,,,,,,,,,,,,,,,,,,,,,,,,,,,,,,,,,,,,,,,,,,,,,,,,,,,,,,,,,,,,,,,,,,,,,,,,,,,,,,,,,,,,,,,,,,,,,,,,,,,,,,,,,,,,,,,,,,,
,,5d9265cde0cd75001a485441,2026-03-17_14h09.20.481,kallum_motion_pilot_GIST_update_2,2026.1.1,Win32,59.88023952,5d9265cde0cd75001a485441,69b95efdef24cd8a694e89ee,69b960822990c283f8cedb9c,0.0378,0.0378,1,86,248,92,1,sevenfive,,,,,,,,,,,,,,,,,,,,,,,,,,,,,,,,,,,,,,,,,,,,,,,,,,,,,,,,,,,,,,,,,,,,,,,,,,,,,,,,,,,,,,,,,,,,,,,,,,,,,,,,,,,,,,,,,,,,,,,,,,,,,,,,,,,,,,,,,
,,5d9265cde0cd75001a485441,2026-03-17_14h09.20.481,kallum_motion_pilot_GIST_update_2,2026.1.1,Win32,59.88023952,5d9265cde0cd75001a485441,69b95efdef24cd8a694e89ee,69b960822990c283f8cedb9c,0.038,0.038,1,87,249,142,1,eightsix,,,,,,,,,,,,,,,,,,,,,,,,,,,,,,,,,,,,,,,,,,,,,,,,,,,,,,,,,,,,,,,,,,,,,,,,,,,,,,,,,,,,,,,,,,,,,,,,,,,,,,,,,,,,,,,,,,,,,,,,,,,,,,,,,,,,,,,,,
,,5d9265cde0cd75001a485441,2026-03-17_14h09.20.481,kallum_motion_pilot_GIST_update_2,2026.1.1,Win32,59.88023952,5d9265cde0cd75001a485441,69b95efdef24cd8a694e89ee,69b960822990c283f8cedb9c,0.038,0.038,1,88,250,77,1,threefour,,,,,,,,,,,,,,,,,,,,,,,,,,,,,,,,,,,,,,,,,,,,,,,,,,,,,,,,,,,,,,,,,,,,,,,,,,,,,,,,,,,,,,,,,,,,,,,,,,,,,,,,,,,,,,,,,,,,,,,,,,,,,,,,,,,,,,,,,
,,5d9265cde0cd75001a485441,2026-03-17_14h09.20.481,kallum_motion_pilot_GIST_update_2,2026.1.1,Win32,59.88023952,5d9265cde0cd75001a485441,69b95efdef24cd8a694e89ee,69b960822990c283f8cedb9c,0.0381,0.0381,1,89,251,144,1,fivesix,,,,,,,,,,,,,,,,,,,,,,,,,,,,,,,,,,,,,,,,,,,,,,,,,,,,,,,,,,,,,,,,,,,,,,,,,,,,,,,,,,,,,,,,,,,,,,,,,,,,,,,,,,,,,,,,,,,,,,,,,,,,,,,,,,,,,,,,,
,,5d9265cde0cd75001a485441,2026-03-17_14h09.20.481,kallum_motion_pilot_GIST_update_2,2026.1.1,Win32,59.88023952,5d9265cde0cd75001a485441,69b95efdef24cd8a694e89ee,69b960822990c283f8cedb9c,0.0382,0.0382,1,90,252,90,1,sixfive,,,,,,,,,,,,,,,,,,,,,,,,,,,,,,,,,,,,,,,,,,,,,,,,,,,,,,,,,,,,,,,,,,,,,,,,,,,,,,,,,,,,,,,,,,,,,,,,,,,,,,,,,,,,,,,,,,,,,,,,,,,,,,,,,,,,,,,,,
,,5d9265cde0cd75001a485441,2026-03-17_14h09.20.481,kallum_motion_pilot_GIST_update_2,2026.1.1,Win32,59.88023952,5d9265cde0cd75001a485441,69b95efdef24cd8a694e89ee,69b960822990c283f8cedb9c,0.0383,0.0383,1,91,253,107,1,sixeight,,,,,,,,,,,,,,,,,,,,,,,,,,,,,,,,,,,,,,,,,,,,,,,,,,,,,,,,,,,,,,,,,,,,,,,,,,,,,,,,,,,,,,,,,,,,,,,,,,,,,,,,,,,,,,,,,,,,,,,,,,,,,,,,,,,,,,,,,
,,5d9265cde0cd75001a485441,2026-03-17_14h09.20.481,kallum_motion_pilot_GIST_update_2,2026.1.1,Win32,59.88023952,5d9265cde0cd75001a485441,69b95efdef24cd8a694e89ee,69b960822990c283f8cedb9c,0.0384,0.0384,1,92,254,85,1,seveneight,,,,,,,,,,,,,,,,,,,,,,,,,,,,,,,,,,,,,,,,,,,,,,,,,,,,,,,,,,,,,,,,,,,,,,,,,,,,,,,,,,,,,,,,,,,,,,,,,,,,,,,,,,,,,,,,,,,,,,,,,,,,,,,,,,,,,,,,,
,,5d9265cde0cd75001a485441,2026-03-17_14h09.20.481,kallum_motion_pilot_GIST_update_2,2026.1.1,Win32,59.88023952,5d9265cde0cd75001a485441,69b95efdef24cd8a694e89ee,69b960822990c283f8cedb9c,0.0385,0.0386,1,93,255,86,1,eightsix,,,,,,,,,,,,,,,,,,,,,,,,,,,,,,,,,,,,,,,,,,,,,,,,,,,,,,,,,,,,,,,,,,,,,,,,,,,,,,,,,,,,,,,,,,,,,,,,,,,,,,,,,,,,,,,,,,,,,,,,,,,,,,,,,,,,,,,,,
,,5d9265cde0cd75001a485441,2026-03-17_14h09.20.481,kallum_motion_pilot_GIST_update_2,2026.1.1,Win32,59.88023952,5d9265cde0cd75001a485441,69b95efdef24cd8a694e89ee,69b960822990c283f8cedb9c,0.0386,0.0386,1,94,256,43,1,twofour,,,,,,,,,,,,,,,,,,,,,,,,,,,,,,,,,,,,,,,,,,,,,,,,,,,,,,,,,,,,,,,,,,,,,,,,,,,,,,,,,,,,,,,,,,,,,,,,,,,,,,,,,,,,,,,,,,,,,,,,,,,,,,,,,,,,,,,,,
,,5d9265cde0cd75001a485441,2026-03-17_14h09.20.481,kallum_motion_pilot_GIST_update_2,2026.1.1,Win32,59.88023952,5d9265cde0cd75001a485441,69b95efdef24cd8a694e89ee,69b960822990c283f8cedb9c,0.0387,0.0387,1,95,257,139,1,sixeight,,,,,,,,,,,,,,,,,,,,,,,,,,,,,,,,,,,,,,,,,,,,,,,,,,,,,,,,,,,,,,,,,,,,,,,,,,,,,,,,,,,,,,,,,,,,,,,,,,,,,,,,,,,,,,,,,,,,,,,,,,,,,,,,,,,,,,,,,
,,5d9265cde0cd75001a485441,2026-03-17_14h09.20.481,kallum_motion_pilot_GIST_update_2,2026.1.1,Win32,59.88023952,5d9265cde0cd75001a485441,69b95efdef24cd8a694e89ee,69b960822990c283f8cedb9c,0.0388,0.0388,1,96,258,42,1,twoone,,,,,,,,,,,,,,,,,,,,,,,,,,,,,,,,,,,,,,,,,,,,,,,,,,,,,,,,,,,,,,,,,,,,,,,,,,,,,,,,,,,,,,,,,,,,,,,,,,,,,,,,,,,,,,,,,,,,,,,,,,,,,,,,,,,,,,,,,
,,5d9265cde0cd75001a485441,2026-03-17_14h09.20.481,kallum_motion_pilot_GIST_update_2,2026.1.1,Win32,59.88023952,5d9265cde0cd75001a485441,69b95efdef24cd8a694e89ee,69b960822990c283f8cedb9c,0.039,0.039,1,97,259,83,1,sixeight,,,,,,,,,,,,,,,,,,,,,,,,,,,,,,,,,,,,,,,,,,,,,,,,,,,,,,,,,,,,,,,,,,,,,,,,,,,,,,,,,,,,,,,,,,,,,,,,,,,,,,,,,,,,,,,,,,,,,,,,,,,,,,,,,,,,,,,,,
,,5d9265cde0cd75001a485441,2026-03-17_14h09.20.481,kallum_motion_pilot_GIST_update_2,2026.1.1,Win32,59.88023952,5d9265cde0cd75001a485441,69b95efdef24cd8a694e89ee,69b960822990c283f8cedb9c,0.039,0.039,1,98,260,103,1,eightseven,,,,,,,,,,,,,,,,,,,,,,,,,,,,,,,,,,,,,,,,,,,,,,,,,,,,,,,,,,,,,,,,,,,,,,,,,,,,,,,,,,,,,,,,,,,,,,,,,,,,,,,,,,,,,,,,,,,,,,,,,,,,,,,,,,,,,,,,,
,,5d9265cde0cd75001a485441,2026-03-17_14h09.20.481,kallum_motion_pilot_GIST_update_2,2026.1.1,Win32,59.88023952,5d9265cde0cd75001a485441,69b95efdef24cd8a694e89ee,69b960822990c283f8cedb9c,0.0391,0.0391,1,99,261,125,1,seveneight,,,,,,,,,,,,,,,,,,,,,,,,,,,,,,,,,,,,,,,,,,,,,,,,,,,,,,,,,,,,,,,,,,,,,,,,,,,,,,,,,,,,,,,,,,,,,,,,,,,,,,,,,,,,,,,,,,,,,,,,,,,,,,,,,,,,,,,,,
,,5d9265cde0cd75001a485441,2026-03-17_14h09.20.481,kallum_motion_pilot_GIST_update_2,2026.1.1,Win32,59.88023952,5d9265cde0cd75001a485441,69b95efdef24cd8a694e89ee,69b960822990c283f8cedb9c,0.0392,0.0392,1,100,262,60,1,threeone,,,,,,,,,,,,,,,,,,,,,,,,,,,,,,,,,,,,,,,,,,,,,,,,,,,,,,,,,,,,,,,,,,,,,,,,,,,,,,,,,,,,,,,,,,,,,,,,,,,,,,,,,,,,,,,,,,,,,,,,,,,,,,,,,,,,,,,,,
,,5d9265cde0cd75001a485441,2026-03-17_14h09.20.481,kallum_motion_pilot_GIST_update_2,2026.1.1,Win32,59.88023952,5d9265cde0cd75001a485441,69b95efdef24cd8a694e89ee,69b960822990c283f8cedb9c,0.0394,0.0394,1,101,263,101,1,seveneight,,,,,,,,,,,,,,,,,,,,,,,,,,,,,,,,,,,,,,,,,,,,,,,,,,,,,,,,,,,,,,,,,,,,,,,,,,,,,,,,,,,,,,,,,,,,,,,,,,,,,,,,,,,,,,,,,,,,,,,,,,,,,,,,,,,,,,,,,
,,5d9265cde0cd75001a485441,2026-03-17_14h09.20.481,kallum_motion_pilot_GIST_update_2,2026.1.1,Win32,59.88023952,5d9265cde0cd75001a485441,69b95efdef24cd8a694e89ee,69b960822990c283f8cedb9c,0.0395,0.0395,1,102,264,111,1,eightseven,,,,,,,,,,,,,,,,,,,,,,,,,,,,,,,,,,,,,,,,,,,,,,,,,,,,,,,,,,,,,,,,,,,,,,,,,,,,,,,,,,,,,,,,,,,,,,,,,,,,,,,,,,,,,,,,,,,,,,,,,,,,,,,,,,,,,,,,,
,,5d9265cde0cd75001a485441,2026-03-17_14h09.20.481,kallum_motion_pilot_GIST_update_2,2026.1.1,Win32,59.88023952,5d9265cde0cd75001a485441,69b95efdef24cd8a694e89ee,69b960822990c283f8cedb9c,0.0396,0.0396,1,103,265,41,1,onethree,,,,,,,,,,,,,,,,,,,,,,,,,,,,,,,,,,,,,,,,,,,,,,,,,,,,,,,,,,,,,,,,,,,,,,,,,,,,,,,,,,,,,,,,,,,,,,,,,,,,,,,,,,,,,,,,,,,,,,,,,,,,,,,,,,,,,,,,,
,,5d9265cde0cd75001a485441,2026-03-17_14h09.20.481,kallum_motion_pilot_GIST_update_2,2026.1.1,Win32,59.88023952,5d9265cde0cd75001a485441,69b95efdef24cd8a694e89ee,69b960822990c283f8cedb9c,0.0398,0.0398,1,104,266,70,1,fourtwo,,,,,,,,,,,,,,,,,,,,,,,,,,,,,,,,,,,,,,,,,,,,,,,,,,,,,,,,,,,,,,,,,,,,,,,,,,,,,,,,,,,,,,,,,,,,,,,,,,,,,,,,,,,,,,,,,,,,,,,,,,,,,,,,,,,,,,,,,
