startup.started,startup.stopped,Prolific ID*,date,expName,psychopyVersion,OS,frameRate,participant,study_id,session,stimpositions.started,stimpositions.stopped,hardcoded_stimulus_positions.thisRepN,hardcoded_stimulus_positions.thisTrialN,hardcoded_stimulus_positions.thisN,hardcoded_stimulus_positions.thisIndex,hardcoded_stimulus_positions.ran,StimulusPos,stimorientation.started,stimorientation.stopped,prac_stimorientation_import_loop.thisRepN,prac_stimorientation_import_loop.thisTrialN,prac_stimorientation_import_loop.thisN,prac_stimorientation_import_loop.thisIndex,prac_stimorientation_import_loop.ran,Stimorientation,welcome_instr.started,welcome_instr.stopped,key_resp.keys,key_resp.rt,key_resp.duration,response_steppedout_1.started,response_steppedout_1.stopped,key_resp_20.keys,key_resp_20.rt,key_resp_20.duration,response_steppedout_2.started,response_steppedout_2.stopped,key_resp_19.keys,key_resp_19.rt,key_resp_19.duration,stim_response_instr.started,stim_response_instr.stopped,key_resp_15.keys,key_resp_15.rt,key_resp_15.duration,direction_instr_2.started,direction_instr_2.stopped,key_resp_9.keys,key_resp_9.rt,key_resp_9.duration,instr_prac.started,instr_prac.stopped,key_resp_10.keys,key_resp_10.rt,key_resp_10.duration,Stim1_display_prac.started,Stim1_display_prac.stopped,Ecc,Circle1_ori,Circle2_ori,response_prac.started,similarity,response_time,response_prac.stopped,mouse_5.x,mouse_5.y,mouse_5.leftButton,mouse_5.midButton,mouse_5.rightButton,mouse_5.clicked_name,responseprac_feedback.started,responseprac_feedback.stopped,summary2_prac.started,summary2_prac.stopped,mouse_6.x,mouse_6.y,mouse_6.leftButton,mouse_6.midButton,mouse_6.rightButton,mouse_6.clicked_name,duringprac.thisRepN,duringprac.thisTrialN,duringprac.thisN,duringprac.thisIndex,duringprac.ran,begin.started,begin.stopped,key_resp_22.keys,key_resp_22.rt,key_resp_22.duration,Stim1_display.started,Stim1_display.stopped,circle1_ori,circle2_ori,circle1_SF,circle2_SF,response.started,response.stopped,mouse.x,mouse.y,mouse.leftButton,mouse.midButton,mouse.rightButton,mouse.clicked_name,trialnumber,double_pass.thisRepN,double_pass.thisTrialN,double_pass.thisN,double_pass.thisIndex,double_pass.ran,double_pass.order,main_trial.thisRepN,main_trial.thisTrialN,main_trial.thisN,main_trial.thisIndex,main_trial.ran,main_trial.order,Trial_Counter,Catch,Frequencies,response_2.started,response_2.stopped,mouse_2.x,mouse_2.y,mouse_2.leftButton,mouse_2.midButton,mouse_2.rightButton,mouse_2.clicked_name,special_trial.started,special_trial.stopped,catch_1.started,catch_1.stopped,mouse_3.x,mouse_3.y,mouse_3.leftButton,mouse_3.midButton,mouse_3.rightButton,catchresponse,catchnumber,response_time_catch,response_sum.started,response_sum.stopped,mouse_11.x,mouse_11.y,mouse_11.leftButton,mouse_11.midButton,mouse_11.rightButton,flip_presentation_sequence_for_double_pass.started,flip_presentation_sequence_for_double_pass.stopped,goodbye.started,goodbye.stopped,key_resp_3.keys,key_resp_3.rt,key_resp_3.duration
0.0002,0.0003,5dafea4de40355001651fa2f,2026-03-17_11h22.55.975,kallum_motion_pilot_GIST_update_2,2026.1.1,Win32,60.24096386,5dafea4de40355001651fa2f,69b92ab4aef6dee357cd729a,69b92b4b4133346bb632ec14,,,,,,,,,,,,,,,,,,,,,,,,,,,,,,,,,,,,,,,,,,,,,,,,,,,,,,,,,,,,,,,,,,,,,,,,,,,,,,,,,,,,,,,,,,,,,,,,,,,,,,,,,,,,,,,,,,,,,,,,,,,,,,,,,,,,,,,,,,,,,,,,,
,,5dafea4de40355001651fa2f,2026-03-17_11h22.55.975,kallum_motion_pilot_GIST_update_2,2026.1.1,Win32,60.24096386,5dafea4de40355001651fa2f,69b92ab4aef6dee357cd729a,69b92b4b4133346bb632ec14,0.0215,0.0215,0,0,0,84,1,sevenfive,,,,,,,,,,,,,,,,,,,,,,,,,,,,,,,,,,,,,,,,,,,,,,,,,,,,,,,,,,,,,,,,,,,,,,,,,,,,,,,,,,,,,,,,,,,,,,,,,,,,,,,,,,,,,,,,,,,,,,,,,,,,,,,,,,,,,,,,,
,,5dafea4de40355001651fa2f,2026-03-17_11h22.55.975,kallum_motion_pilot_GIST_update_2,2026.1.1,Win32,60.24096386,5dafea4de40355001651fa2f,69b92ab4aef6dee357cd729a,69b92b4b4133346bb632ec14,0.0218,0.0218,0,1,1,82,1,sixfive,,,,,,,,,,,,,,,,,,,,,,,,,,,,,,,,,,,,,,,,,,,,,,,,,,,,,,,,,,,,,,,,,,,,,,,,,,,,,,,,,,,,,,,,,,,,,,,,,,,,,,,,,,,,,,,,,,,,,,,,,,,,,,,,,,,,,,,,,
,,5dafea4de40355001651fa2f,2026-03-17_11h22.55.975,kallum_motion_pilot_GIST_update_2,2026.1.1,Win32,60.24096386,5dafea4de40355001651fa2f,69b92ab4aef6dee357cd729a,69b92b4b4133346bb632ec14,0.022,0.022,0,2,2,87,1,eightseven,,,,,,,,,,,,,,,,,,,,,,,,,,,,,,,,,,,,,,,,,,,,,,,,,,,,,,,,,,,,,,,,,,,,,,,,,,,,,,,,,,,,,,,,,,,,,,,,,,,,,,,,,,,,,,,,,,,,,,,,,,,,,,,,,,,,,,,,,
,,5dafea4de40355001651fa2f,2026-03-17_11h22.55.975,kallum_motion_pilot_GIST_update_2,2026.1.1,Win32,60.24096386,5dafea4de40355001651fa2f,69b92ab4aef6dee357cd729a,69b92b4b4133346bb632ec14,0.0221,0.0221,0,3,3,96,1,fivesix,,,,,,,,,,,,,,,,,,,,,,,,,,,,,,,,,,,,,,,,,,,,,,,,,,,,,,,,,,,,,,,,,,,,,,,,,,,,,,,,,,,,,,,,,,,,,,,,,,,,,,,,,,,,,,,,,,,,,,,,,,,,,,,,,,,,,,,,,
,,5dafea4de40355001651fa2f,2026-03-17_11h22.55.975,kallum_motion_pilot_GIST_update_2,2026.1.1,Win32,60.24096386,5dafea4de40355001651fa2f,69b92ab4aef6dee357cd729a,69b92b4b4133346bb632ec14,0.0223,0.0223,0,4,4,115,1,sixeight,,,,,,,,,,,,,,,,,,,,,,,,,,,,,,,,,,,,,,,,,,,,,,,,,,,,,,,,,,,,,,,,,,,,,,,,,,,,,,,,,,,,,,,,,,,,,,,,,,,,,,,,,,,,,,,,,,,,,,,,,,,,,,,,,,,,,,,,,
,,5dafea4de40355001651fa2f,2026-03-17_11h22.55.975,kallum_motion_pilot_GIST_update_2,2026.1.1,Win32,60.24096386,5dafea4de40355001651fa2f,69b92ab4aef6dee357cd729a,69b92b4b4133346bb632ec14,0.0224,0.0224,0,5,5,136,1,fivesix,,,,,,,,,,,,,,,,,,,,,,,,,,,,,,,,,,,,,,,,,,,,,,,,,,,,,,,,,,,,,,,,,,,,,,,,,,,,,,,,,,,,,,,,,,,,,,,,,,,,,,,,,,,,,,,,,,,,,,,,,,,,,,,,,,,,,,,,,
,,5dafea4de40355001651fa2f,2026-03-17_11h22.55.975,kallum_motion_pilot_GIST_update_2,2026.1.1,Win32,60.24096386,5dafea4de40355001651fa2f,69b92ab4aef6dee357cd729a,69b92b4b4133346bb632ec14,0.0225,0.0225,0,6,6,20,1,threeone,,,,,,,,,,,,,,,,,,,,,,,,,,,,,,,,,,,,,,,,,,,,,,,,,,,,,,,,,,,,,,,,,,,,,,,,,,,,,,,,,,,,,,,,,,,,,,,,,,,,,,,,,,,,,,,,,,,,,,,,,,,,,,,,,,,,,,,,,
,,5dafea4de40355001651fa2f,2026-03-17_11h22.55.975,kallum_motion_pilot_GIST_update_2,2026.1.1,Win32,60.24096386,5dafea4de40355001651fa2f,69b92ab4aef6dee357cd729a,69b92b4b4133346bb632ec14,0.0226,0.0226,0,7,7,133,1,seveneight,,,,,,,,,,,,,,,,,,,,,,,,,,,,,,,,,,,,,,,,,,,,,,,,,,,,,,,,,,,,,,,,,,,,,,,,,,,,,,,,,,,,,,,,,,,,,,,,,,,,,,,,,,,,,,,,,,,,,,,,,,,,,,,,,,,,,,,,,
,,5dafea4de40355001651fa2f,2026-03-17_11h22.55.975,kallum_motion_pilot_GIST_update_2,2026.1.1,Win32,60.24096386,5dafea4de40355001651fa2f,69b92ab4aef6dee357cd729a,69b92b4b4133346bb632ec14,0.0227,0.0228,0,8,8,59,1,twofour,,,,,,,,,,,,,,,,,,,,,,,,,,,,,,,,,,,,,,,,,,,,,,,,,,,,,,,,,,,,,,,,,,,,,,,,,,,,,,,,,,,,,,,,,,,,,,,,,,,,,,,,,,,,,,,,,,,,,,,,,,,,,,,,,,,,,,,,,
,,5dafea4de40355001651fa2f,2026-03-17_11h22.55.975,kallum_motion_pilot_GIST_update_2,2026.1.1,Win32,60.24096386,5dafea4de40355001651fa2f,69b92ab4aef6dee357cd729a,69b92b4b4133346bb632ec14,0.023,0.023,0,9,9,119,1,eightseven,,,,,,,,,,,,,,,,,,,,,,,,,,,,,,,,,,,,,,,,,,,,,,,,,,,,,,,,,,,,,,,,,,,,,,,,,,,,,,,,,,,,,,,,,,,,,,,,,,,,,,,,,,,,,,,,,,,,,,,,,,,,,,,,,,,,,,,,,
,,5dafea4de40355001651fa2f,2026-03-17_11h22.55.975,kallum_motion_pilot_GIST_update_2,2026.1.1,Win32,60.24096386,5dafea4de40355001651fa2f,69b92ab4aef6dee357cd729a,69b92b4b4133346bb632ec14,0.0231,0.0231,0,10,10,69,1,threefour,,,,,,,,,,,,,,,,,,,,,,,,,,,,,,,,,,,,,,,,,,,,,,,,,,,,,,,,,,,,,,,,,,,,,,,,,,,,,,,,,,,,,,,,,,,,,,,,,,,,,,,,,,,,,,,,,,,,,,,,,,,,,,,,,,,,,,,,,
,,5dafea4de40355001651fa2f,2026-03-17_11h22.55.975,kallum_motion_pilot_GIST_update_2,2026.1.1,Win32,60.24096386,5dafea4de40355001651fa2f,69b92ab4aef6dee357cd729a,69b92b4b4133346bb632ec14,0.0233,0.0233,0,11,11,112,1,fivesix,,,,,,,,,,,,,,,,,,,,,,,,,,,,,,,,,,,,,,,,,,,,,,,,,,,,,,,,,,,,,,,,,,,,,,,,,,,,,,,,,,,,,,,,,,,,,,,,,,,,,,,,,,,,,,,,,,,,,,,,,,,,,,,,,,,,,,,,,
,,5dafea4de40355001651fa2f,2026-03-17_11h22.55.975,kallum_motion_pilot_GIST_update_2,2026.1.1,Win32,60.24096386,5dafea4de40355001651fa2f,69b92ab4aef6dee357cd729a,69b92b4b4133346bb632ec14,0.0233,0.0233,0,12,12,34,1,twoone,,,,,,,,,,,,,,,,,,,,,,,,,,,,,,,,,,,,,,,,,,,,,,,,,,,,,,,,,,,,,,,,,,,,,,,,,,,,,,,,,,,,,,,,,,,,,,,,,,,,,,,,,,,,,,,,,,,,,,,,,,,,,,,,,,,,,,,,,
,,5dafea4de40355001651fa2f,2026-03-17_11h22.55.975,kallum_motion_pilot_GIST_update_2,2026.1.1,Win32,60.24096386,5dafea4de40355001651fa2f,69b92ab4aef6dee357cd729a,69b92b4b4133346bb632ec14,0.0235,0.0235,0,13,13,77,1,threefour,,,,,,,,,,,,,,,,,,,,,,,,,,,,,,,,,,,,,,,,,,,,,,,,,,,,,,,,,,,,,,,,,,,,,,,,,,,,,,,,,,,,,,,,,,,,,,,,,,,,,,,,,,,,,,,,,,,,,,,,,,,,,,,,,,,,,,,,,
,,5dafea4de40355001651fa2f,2026-03-17_11h22.55.975,kallum_motion_pilot_GIST_update_2,2026.1.1,Win32,60.24096386,5dafea4de40355001651fa2f,69b92ab4aef6dee357cd729a,69b92b4b4133346bb632ec14,0.0236,0.0236,0,14,14,13,1,threefour,,,,,,,,,,,,,,,,,,,,,,,,,,,,,,,,,,,,,,,,,,,,,,,,,,,,,,,,,,,,,,,,,,,,,,,,,,,,,,,,,,,,,,,,,,,,,,,,,,,,,,,,,,,,,,,,,,,,,,,,,,,,,,,,,,,,,,,,,
,,5dafea4de40355001651fa2f,2026-03-17_11h22.55.975,kallum_motion_pilot_GIST_update_2,2026.1.1,Win32,60.24096386,5dafea4de40355001651fa2f,69b92ab4aef6dee357cd729a,69b92b4b4133346bb632ec14,0.0237,0.0237,0,15,15,154,1,sixfive,,,,,,,,,,,,,,,,,,,,,,,,,,,,,,,,,,,,,,,,,,,,,,,,,,,,,,,,,,,,,,,,,,,,,,,,,,,,,,,,,,,,,,,,,,,,,,,,,,,,,,,,,,,,,,,,,,,,,,,,,,,,,,,,,,,,,,,,,
,,5dafea4de40355001651fa2f,2026-03-17_11h22.55.975,kallum_motion_pilot_GIST_update_2,2026.1.1,Win32,60.24096386,5dafea4de40355001651fa2f,69b92ab4aef6dee357cd729a,69b92b4b4133346bb632ec14,0.0238,0.0238,0,16,16,107,1,sixeight,,,,,,,,,,,,,,,,,,,,,,,,,,,,,,,,,,,,,,,,,,,,,,,,,,,,,,,,,,,,,,,,,,,,,,,,,,,,,,,,,,,,,,,,,,,,,,,,,,,,,,,,,,,,,,,,,,,,,,,,,,,,,,,,,,,,,,,,,
,,5dafea4de40355001651fa2f,2026-03-17_11h22.55.975,kallum_motion_pilot_GIST_update_2,2026.1.1,Win32,60.24096386,5dafea4de40355001651fa2f,69b92ab4aef6dee357cd729a,69b92b4b4133346bb632ec14,0.0239,0.0239,0,17,17,14,1,fourtwo,,,,,,,,,,,,,,,,,,,,,,,,,,,,,,,,,,,,,,,,,,,,,,,,,,,,,,,,,,,,,,,,,,,,,,,,,,,,,,,,,,,,,,,,,,,,,,,,,,,,,,,,,,,,,,,,,,,,,,,,,,,,,,,,,,,,,,,,,
,,5dafea4de40355001651fa2f,2026-03-17_11h22.55.975,kallum_motion_pilot_GIST_update_2,2026.1.1,Win32,60.24096386,5dafea4de40355001651fa2f,69b92ab4aef6dee357cd729a,69b92b4b4133346bb632ec14,0.024,0.024,0,18,18,91,1,sixeight,,,,,,,,,,,,,,,,,,,,,,,,,,,,,,,,,,,,,,,,,,,,,,,,,,,,,,,,,,,,,,,,,,,,,,,,,,,,,,,,,,,,,,,,,,,,,,,,,,,,,,,,,,,,,,,,,,,,,,,,,,,,,,,,,,,,,,,,,
,,5dafea4de40355001651fa2f,2026-03-17_11h22.55.975,kallum_motion_pilot_GIST_update_2,2026.1.1,Win32,60.24096386,5dafea4de40355001651fa2f,69b92ab4aef6dee357cd729a,69b92b4b4133346bb632ec14,0.0241,0.0241,0,19,19,62,1,fourtwo,,,,,,,,,,,,,,,,,,,,,,,,,,,,,,,,,,,,,,,,,,,,,,,,,,,,,,,,,,,,,,,,,,,,,,,,,,,,,,,,,,,,,,,,,,,,,,,,,,,,,,,,,,,,,,,,,,,,,,,,,,,,,,,,,,,,,,,,,
,,5dafea4de40355001651fa2f,2026-03-17_11h22.55.975,kallum_motion_pilot_GIST_update_2,2026.1.1,Win32,60.24096386,5dafea4de40355001651fa2f,69b92ab4aef6dee357cd729a,69b92b4b4133346bb632ec14,0.0243,0.0243,0,20,20,17,1,onethree,,,,,,,,,,,,,,,,,,,,,,,,,,,,,,,,,,,,,,,,,,,,,,,,,,,,,,,,,,,,,,,,,,,,,,,,,,,,,,,,,,,,,,,,,,,,,,,,,,,,,,,,,,,,,,,,,,,,,,,,,,,,,,,,,,,,,,,,,
,,5dafea4de40355001651fa2f,2026-03-17_11h22.55.975,kallum_motion_pilot_GIST_update_2,2026.1.1,Win32,60.24096386,5dafea4de40355001651fa2f,69b92ab4aef6dee357cd729a,69b92b4b4133346bb632ec14,0.0243,0.0243,0,21,21,15,1,fourthree,,,,,,,,,,,,,,,,,,,,,,,,,,,,,,,,,,,,,,,,,,,,,,,,,,,,,,,,,,,,,,,,,,,,,,,,,,,,,,,,,,,,,,,,,,,,,,,,,,,,,,,,,,,,,,,,,,,,,,,,,,,,,,,,,,,,,,,,,
,,5dafea4de40355001651fa2f,2026-03-17_11h22.55.975,kallum_motion_pilot_GIST_update_2,2026.1.1,Win32,60.24096386,5dafea4de40355001651fa2f,69b92ab4aef6dee357cd729a,69b92b4b4133346bb632ec14,0.0244,0.0244,0,22,22,2,1,twoone,,,,,,,,,,,,,,,,,,,,,,,,,,,,,,,,,,,,,,,,,,,,,,,,,,,,,,,,,,,,,,,,,,,,,,,,,,,,,,,,,,,,,,,,,,,,,,,,,,,,,,,,,,,,,,,,,,,,,,,,,,,,,,,,,,,,,,,,,
,,5dafea4de40355001651fa2f,2026-03-17_11h22.55.975,kallum_motion_pilot_GIST_update_2,2026.1.1,Win32,60.24096386,5dafea4de40355001651fa2f,69b92ab4aef6dee357cd729a,69b92b4b4133346bb632ec14,0.0246,0.0246,0,23,23,143,1,eightseven,,,,,,,,,,,,,,,,,,,,,,,,,,,,,,,,,,,,,,,,,,,,,,,,,,,,,,,,,,,,,,,,,,,,,,,,,,,,,,,,,,,,,,,,,,,,,,,,,,,,,,,,,,,,,,,,,,,,,,,,,,,,,,,,,,,,,,,,,
,,5dafea4de40355001651fa2f,2026-03-17_11h22.55.975,kallum_motion_pilot_GIST_update_2,2026.1.1,Win32,60.24096386,5dafea4de40355001651fa2f,69b92ab4aef6dee357cd729a,69b92b4b4133346bb632ec14,0.0247,0.0247,0,24,24,113,1,fiveseven,,,,,,,,,,,,,,,,,,,,,,,,,,,,,,,,,,,,,,,,,,,,,,,,,,,,,,,,,,,,,,,,,,,,,,,,,,,,,,,,,,,,,,,,,,,,,,,,,,,,,,,,,,,,,,,,,,,,,,,,,,,,,,,,,,,,,,,,,
,,5dafea4de40355001651fa2f,2026-03-17_11h22.55.975,kallum_motion_pilot_GIST_update_2,2026.1.1,Win32,60.24096386,5dafea4de40355001651fa2f,69b92ab4aef6dee357cd729a,69b92b4b4133346bb632ec14,0.0249,0.0249,0,25,25,145,1,fiveseven,,,,,,,,,,,,,,,,,,,,,,,,,,,,,,,,,,,,,,,,,,,,,,,,,,,,,,,,,,,,,,,,,,,,,,,,,,,,,,,,,,,,,,,,,,,,,,,,,,,,,,,,,,,,,,,,,,,,,,,,,,,,,,,,,,,,,,,,,
,,5dafea4de40355001651fa2f,2026-03-17_11h22.55.975,kallum_motion_pilot_GIST_update_2,2026.1.1,Win32,60.24096386,5dafea4de40355001651fa2f,69b92ab4aef6dee357cd729a,69b92b4b4133346bb632ec14,0.0249,0.0249,0,26,26,103,1,eightseven,,,,,,,,,,,,,,,,,,,,,,,,,,,,,,,,,,,,,,,,,,,,,,,,,,,,,,,,,,,,,,,,,,,,,,,,,,,,,,,,,,,,,,,,,,,,,,,,,,,,,,,,,,,,,,,,,,,,,,,,,,,,,,,,,,,,,,,,,
,,5dafea4de40355001651fa2f,2026-03-17_11h22.55.975,kallum_motion_pilot_GIST_update_2,2026.1.1,Win32,60.24096386,5dafea4de40355001651fa2f,69b92ab4aef6dee357cd729a,69b92b4b4133346bb632ec14,0.0251,0.0251,0,27,27,38,1,fourtwo,,,,,,,,,,,,,,,,,,,,,,,,,,,,,,,,,,,,,,,,,,,,,,,,,,,,,,,,,,,,,,,,,,,,,,,,,,,,,,,,,,,,,,,,,,,,,,,,,,,,,,,,,,,,,,,,,,,,,,,,,,,,,,,,,,,,,,,,,
,,5dafea4de40355001651fa2f,2026-03-17_11h22.55.975,kallum_motion_pilot_GIST_update_2,2026.1.1,Win32,60.24096386,5dafea4de40355001651fa2f,69b92ab4aef6dee357cd729a,69b92b4b4133346bb632ec14,0.0252,0.0252,0,28,28,118,1,eightsix,,,,,,,,,,,,,,,,,,,,,,,,,,,,,,,,,,,,,,,,,,,,,,,,,,,,,,,,,,,,,,,,,,,,,,,,,,,,,,,,,,,,,,,,,,,,,,,,,,,,,,,,,,,,,,,,,,,,,,,,,,,,,,,,,,,,,,,,,
,,5dafea4de40355001651fa2f,2026-03-17_11h22.55.975,kallum_motion_pilot_GIST_update_2,2026.1.1,Win32,60.24096386,5dafea4de40355001651fa2f,69b92ab4aef6dee357cd729a,69b92b4b4133346bb632ec14,0.0254,0.0254,0,29,29,134,1,eightsix,,,,,,,,,,,,,,,,,,,,,,,,,,,,,,,,,,,,,,,,,,,,,,,,,,,,,,,,,,,,,,,,,,,,,,,,,,,,,,,,,,,,,,,,,,,,,,,,,,,,,,,,,,,,,,,,,,,,,,,,,,,,,,,,,,,,,,,,,
,,5dafea4de40355001651fa2f,2026-03-17_11h22.55.975,kallum_motion_pilot_GIST_update_2,2026.1.1,Win32,60.24096386,5dafea4de40355001651fa2f,69b92ab4aef6dee357cd729a,69b92b4b4133346bb632ec14,0.0254,0.0254,0,30,30,137,1,fiveseven,,,,,,,,,,,,,,,,,,,,,,,,,,,,,,,,,,,,,,,,,,,,,,,,,,,,,,,,,,,,,,,,,,,,,,,,,,,,,,,,,,,,,,,,,,,,,,,,,,,,,,,,,,,,,,,,,,,,,,,,,,,,,,,,,,,,,,,,,
,,5dafea4de40355001651fa2f,2026-03-17_11h22.55.975,kallum_motion_pilot_GIST_update_2,2026.1.1,Win32,60.24096386,5dafea4de40355001651fa2f,69b92ab4aef6dee357cd729a,69b92b4b4133346bb632ec14,0.0256,0.0256,0,31,31,22,1,fourtwo,,,,,,,,,,,,,,,,,,,,,,,,,,,,,,,,,,,,,,,,,,,,,,,,,,,,,,,,,,,,,,,,,,,,,,,,,,,,,,,,,,,,,,,,,,,,,,,,,,,,,,,,,,,,,,,,,,,,,,,,,,,,,,,,,,,,,,,,,
,,5dafea4de40355001651fa2f,2026-03-17_11h22.55.975,kallum_motion_pilot_GIST_update_2,2026.1.1,Win32,60.24096386,5dafea4de40355001651fa2f,69b92ab4aef6dee357cd729a,69b92b4b4133346bb632ec14,0.0257,0.0257,0,32,32,48,1,onetwo,,,,,,,,,,,,,,,,,,,,,,,,,,,,,,,,,,,,,,,,,,,,,,,,,,,,,,,,,,,,,,,,,,,,,,,,,,,,,,,,,,,,,,,,,,,,,,,,,,,,,,,,,,,,,,,,,,,,,,,,,,,,,,,,,,,,,,,,,
,,5dafea4de40355001651fa2f,2026-03-17_11h22.55.975,kallum_motion_pilot_GIST_update_2,2026.1.1,Win32,60.24096386,5dafea4de40355001651fa2f,69b92ab4aef6dee357cd729a,69b92b4b4133346bb632ec14,0.0259,0.0259,0,33,33,65,1,onethree,,,,,,,,,,,,,,,,,,,,,,,,,,,,,,,,,,,,,,,,,,,,,,,,,,,,,,,,,,,,,,,,,,,,,,,,,,,,,,,,,,,,,,,,,,,,,,,,,,,,,,,,,,,,,,,,,,,,,,,,,,,,,,,,,,,,,,,,,
,,5dafea4de40355001651fa2f,2026-03-17_11h22.55.975,kallum_motion_pilot_GIST_update_2,2026.1.1,Win32,60.24096386,5dafea4de40355001651fa2f,69b92ab4aef6dee357cd729a,69b92b4b4133346bb632ec14,0.0259,0.0259,0,34,34,61,1,threefour,,,,,,,,,,,,,,,,,,,,,,,,,,,,,,,,,,,,,,,,,,,,,,,,,,,,,,,,,,,,,,,,,,,,,,,,,,,,,,,,,,,,,,,,,,,,,,,,,,,,,,,,,,,,,,,,,,,,,,,,,,,,,,,,,,,,,,,,,
,,5dafea4de40355001651fa2f,2026-03-17_11h22.55.975,kallum_motion_pilot_GIST_update_2,2026.1.1,Win32,60.24096386,5dafea4de40355001651fa2f,69b92ab4aef6dee357cd729a,69b92b4b4133346bb632ec14,0.0261,0.0261,0,35,35,141,1,seveneight,,,,,,,,,,,,,,,,,,,,,,,,,,,,,,,,,,,,,,,,,,,,,,,,,,,,,,,,,,,,,,,,,,,,,,,,,,,,,,,,,,,,,,,,,,,,,,,,,,,,,,,,,,,,,,,,,,,,,,,,,,,,,,,,,,,,,,,,,
,,5dafea4de40355001651fa2f,2026-03-17_11h22.55.975,kallum_motion_pilot_GIST_update_2,2026.1.1,Win32,60.24096386,5dafea4de40355001651fa2f,69b92ab4aef6dee357cd729a,69b92b4b4133346bb632ec14,0.0263,0.0263,0,36,36,89,1,fiveseven,,,,,,,,,,,,,,,,,,,,,,,,,,,,,,,,,,,,,,,,,,,,,,,,,,,,,,,,,,,,,,,,,,,,,,,,,,,,,,,,,,,,,,,,,,,,,,,,,,,,,,,,,,,,,,,,,,,,,,,,,,,,,,,,,,,,,,,,,
,,5dafea4de40355001651fa2f,2026-03-17_11h22.55.975,kallum_motion_pilot_GIST_update_2,2026.1.1,Win32,60.24096386,5dafea4de40355001651fa2f,69b92ab4aef6dee357cd729a,69b92b4b4133346bb632ec14,0.0265,0.0266,0,37,37,93,1,seveneight,,,,,,,,,,,,,,,,,,,,,,,,,,,,,,,,,,,,,,,,,,,,,,,,,,,,,,,,,,,,,,,,,,,,,,,,,,,,,,,,,,,,,,,,,,,,,,,,,,,,,,,,,,,,,,,,,,,,,,,,,,,,,,,,,,,,,,,,,
,,5dafea4de40355001651fa2f,2026-03-17_11h22.55.975,kallum_motion_pilot_GIST_update_2,2026.1.1,Win32,60.24096386,5dafea4de40355001651fa2f,69b92ab4aef6dee357cd729a,69b92b4b4133346bb632ec14,0.0267,0.0267,0,38,38,47,1,fourthree,,,,,,,,,,,,,,,,,,,,,,,,,,,,,,,,,,,,,,,,,,,,,,,,,,,,,,,,,,,,,,,,,,,,,,,,,,,,,,,,,,,,,,,,,,,,,,,,,,,,,,,,,,,,,,,,,,,,,,,,,,,,,,,,,,,,,,,,,
,,5dafea4de40355001651fa2f,2026-03-17_11h22.55.975,kallum_motion_pilot_GIST_update_2,2026.1.1,Win32,60.24096386,5dafea4de40355001651fa2f,69b92ab4aef6dee357cd729a,69b92b4b4133346bb632ec14,0.0269,0.0269,0,39,39,28,1,threeone,,,,,,,,,,,,,,,,,,,,,,,,,,,,,,,,,,,,,,,,,,,,,,,,,,,,,,,,,,,,,,,,,,,,,,,,,,,,,,,,,,,,,,,,,,,,,,,,,,,,,,,,,,,,,,,,,,,,,,,,,,,,,,,,,,,,,,,,,
,,5dafea4de40355001651fa2f,2026-03-17_11h22.55.975,kallum_motion_pilot_GIST_update_2,2026.1.1,Win32,60.24096386,5dafea4de40355001651fa2f,69b92ab4aef6dee357cd729a,69b92b4b4133346bb632ec14,0.0271,0.0271,0,40,40,50,1,twoone,,,,,,,,,,,,,,,,,,,,,,,,,,,,,,,,,,,,,,,,,,,,,,,,,,,,,,,,,,,,,,,,,,,,,,,,,,,,,,,,,,,,,,,,,,,,,,,,,,,,,,,,,,,,,,,,,,,,,,,,,,,,,,,,,,,,,,,,,
,,5dafea4de40355001651fa2f,2026-03-17_11h22.55.975,kallum_motion_pilot_GIST_update_2,2026.1.1,Win32,60.24096386,5dafea4de40355001651fa2f,69b92ab4aef6dee357cd729a,69b92b4b4133346bb632ec14,0.0273,0.0273,0,41,41,148,1,sevenfive,,,,,,,,,,,,,,,,,,,,,,,,,,,,,,,,,,,,,,,,,,,,,,,,,,,,,,,,,,,,,,,,,,,,,,,,,,,,,,,,,,,,,,,,,,,,,,,,,,,,,,,,,,,,,,,,,,,,,,,,,,,,,,,,,,,,,,,,,
,,5dafea4de40355001651fa2f,2026-03-17_11h22.55.975,kallum_motion_pilot_GIST_update_2,2026.1.1,Win32,60.24096386,5dafea4de40355001651fa2f,69b92ab4aef6dee357cd729a,69b92b4b4133346bb632ec14,0.0275,0.0275,0,42,42,158,1,eightsix,,,,,,,,,,,,,,,,,,,,,,,,,,,,,,,,,,,,,,,,,,,,,,,,,,,,,,,,,,,,,,,,,,,,,,,,,,,,,,,,,,,,,,,,,,,,,,,,,,,,,,,,,,,,,,,,,,,,,,,,,,,,,,,,,,,,,,,,,
,,5dafea4de40355001651fa2f,2026-03-17_11h22.55.975,kallum_motion_pilot_GIST_update_2,2026.1.1,Win32,60.24096386,5dafea4de40355001651fa2f,69b92ab4aef6dee357cd729a,69b92b4b4133346bb632ec14,0.0277,0.0277,0,43,43,71,1,fourthree,,,,,,,,,,,,,,,,,,,,,,,,,,,,,,,,,,,,,,,,,,,,,,,,,,,,,,,,,,,,,,,,,,,,,,,,,,,,,,,,,,,,,,,,,,,,,,,,,,,,,,,,,,,,,,,,,,,,,,,,,,,,,,,,,,,,,,,,,
,,5dafea4de40355001651fa2f,2026-03-17_11h22.55.975,kallum_motion_pilot_GIST_update_2,2026.1.1,Win32,60.24096386,5dafea4de40355001651fa2f,69b92ab4aef6dee357cd729a,69b92b4b4133346bb632ec14,0.0278,0.0279,0,44,44,21,1,threefour,,,,,,,,,,,,,,,,,,,,,,,,,,,,,,,,,,,,,,,,,,,,,,,,,,,,,,,,,,,,,,,,,,,,,,,,,,,,,,,,,,,,,,,,,,,,,,,,,,,,,,,,,,,,,,,,,,,,,,,,,,,,,,,,,,,,,,,,,
,,5dafea4de40355001651fa2f,2026-03-17_11h22.55.975,kallum_motion_pilot_GIST_update_2,2026.1.1,Win32,60.24096386,5dafea4de40355001651fa2f,69b92ab4aef6dee357cd729a,69b92b4b4133346bb632ec14,0.028,0.028,0,45,45,105,1,fiveseven,,,,,,,,,,,,,,,,,,,,,,,,,,,,,,,,,,,,,,,,,,,,,,,,,,,,,,,,,,,,,,,,,,,,,,,,,,,,,,,,,,,,,,,,,,,,,,,,,,,,,,,,,,,,,,,,,,,,,,,,,,,,,,,,,,,,,,,,,
,,5dafea4de40355001651fa2f,2026-03-17_11h22.55.975,kallum_motion_pilot_GIST_update_2,2026.1.1,Win32,60.24096386,5dafea4de40355001651fa2f,69b92ab4aef6dee357cd729a,69b92b4b4133346bb632ec14,0.0282,0.0282,0,46,46,156,1,sevenfive,,,,,,,,,,,,,,,,,,,,,,,,,,,,,,,,,,,,,,,,,,,,,,,,,,,,,,,,,,,,,,,,,,,,,,,,,,,,,,,,,,,,,,,,,,,,,,,,,,,,,,,,,,,,,,,,,,,,,,,,,,,,,,,,,,,,,,,,,
,,5dafea4de40355001651fa2f,2026-03-17_11h22.55.975,kallum_motion_pilot_GIST_update_2,2026.1.1,Win32,60.24096386,5dafea4de40355001651fa2f,69b92ab4aef6dee357cd729a,69b92b4b4133346bb632ec14,0.0283,0.0284,0,47,47,123,1,sixeight,,,,,,,,,,,,,,,,,,,,,,,,,,,,,,,,,,,,,,,,,,,,,,,,,,,,,,,,,,,,,,,,,,,,,,,,,,,,,,,,,,,,,,,,,,,,,,,,,,,,,,,,,,,,,,,,,,,,,,,,,,,,,,,,,,,,,,,,,
,,5dafea4de40355001651fa2f,2026-03-17_11h22.55.975,kallum_motion_pilot_GIST_update_2,2026.1.1,Win32,60.24096386,5dafea4de40355001651fa2f,69b92ab4aef6dee357cd729a,69b92b4b4133346bb632ec14,0.0285,0.0285,0,48,48,36,1,threeone,,,,,,,,,,,,,,,,,,,,,,,,,,,,,,,,,,,,,,,,,,,,,,,,,,,,,,,,,,,,,,,,,,,,,,,,,,,,,,,,,,,,,,,,,,,,,,,,,,,,,,,,,,,,,,,,,,,,,,,,,,,,,,,,,,,,,,,,,
,,5dafea4de40355001651fa2f,2026-03-17_11h22.55.975,kallum_motion_pilot_GIST_update_2,2026.1.1,Win32,60.24096386,5dafea4de40355001651fa2f,69b92ab4aef6dee357cd729a,69b92b4b4133346bb632ec14,0.0286,0.0286,0,49,49,66,1,twoone,,,,,,,,,,,,,,,,,,,,,,,,,,,,,,,,,,,,,,,,,,,,,,,,,,,,,,,,,,,,,,,,,,,,,,,,,,,,,,,,,,,,,,,,,,,,,,,,,,,,,,,,,,,,,,,,,,,,,,,,,,,,,,,,,,,,,,,,,
,,5dafea4de40355001651fa2f,2026-03-17_11h22.55.975,kallum_motion_pilot_GIST_update_2,2026.1.1,Win32,60.24096386,5dafea4de40355001651fa2f,69b92ab4aef6dee357cd729a,69b92b4b4133346bb632ec14,0.0289,0.0289,0,50,50,43,1,twofour,,,,,,,,,,,,,,,,,,,,,,,,,,,,,,,,,,,,,,,,,,,,,,,,,,,,,,,,,,,,,,,,,,,,,,,,,,,,,,,,,,,,,,,,,,,,,,,,,,,,,,,,,,,,,,,,,,,,,,,,,,,,,,,,,,,,,,,,,
,,5dafea4de40355001651fa2f,2026-03-17_11h22.55.975,kallum_motion_pilot_GIST_update_2,2026.1.1,Win32,60.24096386,5dafea4de40355001651fa2f,69b92ab4aef6dee357cd729a,69b92b4b4133346bb632ec14,0.029,0.029,0,51,51,40,1,onetwo,,,,,,,,,,,,,,,,,,,,,,,,,,,,,,,,,,,,,,,,,,,,,,,,,,,,,,,,,,,,,,,,,,,,,,,,,,,,,,,,,,,,,,,,,,,,,,,,,,,,,,,,,,,,,,,,,,,,,,,,,,,,,,,,,,,,,,,,,
,,5dafea4de40355001651fa2f,2026-03-17_11h22.55.975,kallum_motion_pilot_GIST_update_2,2026.1.1,Win32,60.24096386,5dafea4de40355001651fa2f,69b92ab4aef6dee357cd729a,69b92b4b4133346bb632ec14,0.0292,0.0292,0,52,52,121,1,fiveseven,,,,,,,,,,,,,,,,,,,,,,,,,,,,,,,,,,,,,,,,,,,,,,,,,,,,,,,,,,,,,,,,,,,,,,,,,,,,,,,,,,,,,,,,,,,,,,,,,,,,,,,,,,,,,,,,,,,,,,,,,,,,,,,,,,,,,,,,,
,,5dafea4de40355001651fa2f,2026-03-17_11h22.55.975,kallum_motion_pilot_GIST_update_2,2026.1.1,Win32,60.24096386,5dafea4de40355001651fa2f,69b92ab4aef6dee357cd729a,69b92b4b4133346bb632ec14,0.0293,0.0293,0,53,53,60,1,threeone,,,,,,,,,,,,,,,,,,,,,,,,,,,,,,,,,,,,,,,,,,,,,,,,,,,,,,,,,,,,,,,,,,,,,,,,,,,,,,,,,,,,,,,,,,,,,,,,,,,,,,,,,,,,,,,,,,,,,,,,,,,,,,,,,,,,,,,,,
,,5dafea4de40355001651fa2f,2026-03-17_11h22.55.975,kallum_motion_pilot_GIST_update_2,2026.1.1,Win32,60.24096386,5dafea4de40355001651fa2f,69b92ab4aef6dee357cd729a,69b92b4b4133346bb632ec14,0.0293,0.0294,0,54,54,27,1,twofour,,,,,,,,,,,,,,,,,,,,,,,,,,,,,,,,,,,,,,,,,,,,,,,,,,,,,,,,,,,,,,,,,,,,,,,,,,,,,,,,,,,,,,,,,,,,,,,,,,,,,,,,,,,,,,,,,,,,,,,,,,,,,,,,,,,,,,,,,
,,5dafea4de40355001651fa2f,2026-03-17_11h22.55.975,kallum_motion_pilot_GIST_update_2,2026.1.1,Win32,60.24096386,5dafea4de40355001651fa2f,69b92ab4aef6dee357cd729a,69b92b4b4133346bb632ec14,0.0295,0.0295,0,55,55,6,1,fourtwo,,,,,,,,,,,,,,,,,,,,,,,,,,,,,,,,,,,,,,,,,,,,,,,,,,,,,,,,,,,,,,,,,,,,,,,,,,,,,,,,,,,,,,,,,,,,,,,,,,,,,,,,,,,,,,,,,,,,,,,,,,,,,,,,,,,,,,,,,
,,5dafea4de40355001651fa2f,2026-03-17_11h22.55.975,kallum_motion_pilot_GIST_update_2,2026.1.1,Win32,60.24096386,5dafea4de40355001651fa2f,69b92ab4aef6dee357cd729a,69b92b4b4133346bb632ec14,0.0296,0.0296,0,56,56,67,1,twofour,,,,,,,,,,,,,,,,,,,,,,,,,,,,,,,,,,,,,,,,,,,,,,,,,,,,,,,,,,,,,,,,,,,,,,,,,,,,,,,,,,,,,,,,,,,,,,,,,,,,,,,,,,,,,,,,,,,,,,,,,,,,,,,,,,,,,,,,,
,,5dafea4de40355001651fa2f,2026-03-17_11h22.55.975,kallum_motion_pilot_GIST_update_2,2026.1.1,Win32,60.24096386,5dafea4de40355001651fa2f,69b92ab4aef6dee357cd729a,69b92b4b4133346bb632ec14,0.0298,0.0298,0,57,57,150,1,eightsix,,,,,,,,,,,,,,,,,,,,,,,,,,,,,,,,,,,,,,,,,,,,,,,,,,,,,,,,,,,,,,,,,,,,,,,,,,,,,,,,,,,,,,,,,,,,,,,,,,,,,,,,,,,,,,,,,,,,,,,,,,,,,,,,,,,,,,,,,
,,5dafea4de40355001651fa2f,2026-03-17_11h22.55.975,kallum_motion_pilot_GIST_update_2,2026.1.1,Win32,60.24096386,5dafea4de40355001651fa2f,69b92ab4aef6dee357cd729a,69b92b4b4133346bb632ec14,0.0299,0.0299,0,58,58,151,1,eightseven,,,,,,,,,,,,,,,,,,,,,,,,,,,,,,,,,,,,,,,,,,,,,,,,,,,,,,,,,,,,,,,,,,,,,,,,,,,,,,,,,,,,,,,,,,,,,,,,,,,,,,,,,,,,,,,,,,,,,,,,,,,,,,,,,,,,,,,,,
,,5dafea4de40355001651fa2f,2026-03-17_11h22.55.975,kallum_motion_pilot_GIST_update_2,2026.1.1,Win32,60.24096386,5dafea4de40355001651fa2f,69b92ab4aef6dee357cd729a,69b92b4b4133346bb632ec14,0.03,0.03,0,59,59,149,1,seveneight,,,,,,,,,,,,,,,,,,,,,,,,,,,,,,,,,,,,,,,,,,,,,,,,,,,,,,,,,,,,,,,,,,,,,,,,,,,,,,,,,,,,,,,,,,,,,,,,,,,,,,,,,,,,,,,,,,,,,,,,,,,,,,,,,,,,,,,,,
,,5dafea4de40355001651fa2f,2026-03-17_11h22.55.975,kallum_motion_pilot_GIST_update_2,2026.1.1,Win32,60.24096386,5dafea4de40355001651fa2f,69b92ab4aef6dee357cd729a,69b92b4b4133346bb632ec14,0.0301,0.0301,0,60,60,110,1,eightsix,,,,,,,,,,,,,,,,,,,,,,,,,,,,,,,,,,,,,,,,,,,,,,,,,,,,,,,,,,,,,,,,,,,,,,,,,,,,,,,,,,,,,,,,,,,,,,,,,,,,,,,,,,,,,,,,,,,,,,,,,,,,,,,,,,,,,,,,,
,,5dafea4de40355001651fa2f,2026-03-17_11h22.55.975,kallum_motion_pilot_GIST_update_2,2026.1.1,Win32,60.24096386,5dafea4de40355001651fa2f,69b92ab4aef6dee357cd729a,69b92b4b4133346bb632ec14,0.0303,0.0303,0,61,61,64,1,onetwo,,,,,,,,,,,,,,,,,,,,,,,,,,,,,,,,,,,,,,,,,,,,,,,,,,,,,,,,,,,,,,,,,,,,,,,,,,,,,,,,,,,,,,,,,,,,,,,,,,,,,,,,,,,,,,,,,,,,,,,,,,,,,,,,,,,,,,,,,
,,5dafea4de40355001651fa2f,2026-03-17_11h22.55.975,kallum_motion_pilot_GIST_update_2,2026.1.1,Win32,60.24096386,5dafea4de40355001651fa2f,69b92ab4aef6dee357cd729a,69b92b4b4133346bb632ec14,0.0305,0.0305,0,62,62,144,1,fivesix,,,,,,,,,,,,,,,,,,,,,,,,,,,,,,,,,,,,,,,,,,,,,,,,,,,,,,,,,,,,,,,,,,,,,,,,,,,,,,,,,,,,,,,,,,,,,,,,,,,,,,,,,,,,,,,,,,,,,,,,,,,,,,,,,,,,,,,,,
,,5dafea4de40355001651fa2f,2026-03-17_11h22.55.975,kallum_motion_pilot_GIST_update_2,2026.1.1,Win32,60.24096386,5dafea4de40355001651fa2f,69b92ab4aef6dee357cd729a,69b92b4b4133346bb632ec14,0.0306,0.0307,0,63,63,95,1,eightseven,,,,,,,,,,,,,,,,,,,,,,,,,,,,,,,,,,,,,,,,,,,,,,,,,,,,,,,,,,,,,,,,,,,,,,,,,,,,,,,,,,,,,,,,,,,,,,,,,,,,,,,,,,,,,,,,,,,,,,,,,,,,,,,,,,,,,,,,,
,,5dafea4de40355001651fa2f,2026-03-17_11h22.55.975,kallum_motion_pilot_GIST_update_2,2026.1.1,Win32,60.24096386,5dafea4de40355001651fa2f,69b92ab4aef6dee357cd729a,69b92b4b4133346bb632ec14,0.0308,0.0308,0,64,64,157,1,seveneight,,,,,,,,,,,,,,,,,,,,,,,,,,,,,,,,,,,,,,,,,,,,,,,,,,,,,,,,,,,,,,,,,,,,,,,,,,,,,,,,,,,,,,,,,,,,,,,,,,,,,,,,,,,,,,,,,,,,,,,,,,,,,,,,,,,,,,,,,
,,5dafea4de40355001651fa2f,2026-03-17_11h22.55.975,kallum_motion_pilot_GIST_update_2,2026.1.1,Win32,60.24096386,5dafea4de40355001651fa2f,69b92ab4aef6dee357cd729a,69b92b4b4133346bb632ec14,0.031,0.031,0,65,65,57,1,onethree,,,,,,,,,,,,,,,,,,,,,,,,,,,,,,,,,,,,,,,,,,,,,,,,,,,,,,,,,,,,,,,,,,,,,,,,,,,,,,,,,,,,,,,,,,,,,,,,,,,,,,,,,,,,,,,,,,,,,,,,,,,,,,,,,,,,,,,,,
,,5dafea4de40355001651fa2f,2026-03-17_11h22.55.975,kallum_motion_pilot_GIST_update_2,2026.1.1,Win32,60.24096386,5dafea4de40355001651fa2f,69b92ab4aef6dee357cd729a,69b92b4b4133346bb632ec14,0.0311,0.0311,0,66,66,114,1,sixfive,,,,,,,,,,,,,,,,,,,,,,,,,,,,,,,,,,,,,,,,,,,,,,,,,,,,,,,,,,,,,,,,,,,,,,,,,,,,,,,,,,,,,,,,,,,,,,,,,,,,,,,,,,,,,,,,,,,,,,,,,,,,,,,,,,,,,,,,,
,,5dafea4de40355001651fa2f,2026-03-17_11h22.55.975,kallum_motion_pilot_GIST_update_2,2026.1.1,Win32,60.24096386,5dafea4de40355001651fa2f,69b92ab4aef6dee357cd729a,69b92b4b4133346bb632ec14,0.0313,0.0313,0,67,67,83,1,sixeight,,,,,,,,,,,,,,,,,,,,,,,,,,,,,,,,,,,,,,,,,,,,,,,,,,,,,,,,,,,,,,,,,,,,,,,,,,,,,,,,,,,,,,,,,,,,,,,,,,,,,,,,,,,,,,,,,,,,,,,,,,,,,,,,,,,,,,,,,
,,5dafea4de40355001651fa2f,2026-03-17_11h22.55.975,kallum_motion_pilot_GIST_update_2,2026.1.1,Win32,60.24096386,5dafea4de40355001651fa2f,69b92ab4aef6dee357cd729a,69b92b4b4133346bb632ec14,0.0314,0.0314,0,68,68,135,1,eightseven,,,,,,,,,,,,,,,,,,,,,,,,,,,,,,,,,,,,,,,,,,,,,,,,,,,,,,,,,,,,,,,,,,,,,,,,,,,,,,,,,,,,,,,,,,,,,,,,,,,,,,,,,,,,,,,,,,,,,,,,,,,,,,,,,,,,,,,,,
,,5dafea4de40355001651fa2f,2026-03-17_11h22.55.975,kallum_motion_pilot_GIST_update_2,2026.1.1,Win32,60.24096386,5dafea4de40355001651fa2f,69b92ab4aef6dee357cd729a,69b92b4b4133346bb632ec14,0.0316,0.0316,0,69,69,19,1,twofour,,,,,,,,,,,,,,,,,,,,,,,,,,,,,,,,,,,,,,,,,,,,,,,,,,,,,,,,,,,,,,,,,,,,,,,,,,,,,,,,,,,,,,,,,,,,,,,,,,,,,,,,,,,,,,,,,,,,,,,,,,,,,,,,,,,,,,,,,
,,5dafea4de40355001651fa2f,2026-03-17_11h22.55.975,kallum_motion_pilot_GIST_update_2,2026.1.1,Win32,60.24096386,5dafea4de40355001651fa2f,69b92ab4aef6dee357cd729a,69b92b4b4133346bb632ec14,0.0317,0.0317,0,70,70,1,1,onethree,,,,,,,,,,,,,,,,,,,,,,,,,,,,,,,,,,,,,,,,,,,,,,,,,,,,,,,,,,,,,,,,,,,,,,,,,,,,,,,,,,,,,,,,,,,,,,,,,,,,,,,,,,,,,,,,,,,,,,,,,,,,,,,,,,,,,,,,,
,,5dafea4de40355001651fa2f,2026-03-17_11h22.55.975,kallum_motion_pilot_GIST_update_2,2026.1.1,Win32,60.24096386,5dafea4de40355001651fa2f,69b92ab4aef6dee357cd729a,69b92b4b4133346bb632ec14,0.0319,0.0319,0,71,71,126,1,eightsix,,,,,,,,,,,,,,,,,,,,,,,,,,,,,,,,,,,,,,,,,,,,,,,,,,,,,,,,,,,,,,,,,,,,,,,,,,,,,,,,,,,,,,,,,,,,,,,,,,,,,,,,,,,,,,,,,,,,,,,,,,,,,,,,,,,,,,,,,
,,5dafea4de40355001651fa2f,2026-03-17_11h22.55.975,kallum_motion_pilot_GIST_update_2,2026.1.1,Win32,60.24096386,5dafea4de40355001651fa2f,69b92ab4aef6dee357cd729a,69b92b4b4133346bb632ec14,0.032,0.032,0,72,72,51,1,twofour,,,,,,,,,,,,,,,,,,,,,,,,,,,,,,,,,,,,,,,,,,,,,,,,,,,,,,,,,,,,,,,,,,,,,,,,,,,,,,,,,,,,,,,,,,,,,,,,,,,,,,,,,,,,,,,,,,,,,,,,,,,,,,,,,,,,,,,,,
,,5dafea4de40355001651fa2f,2026-03-17_11h22.55.975,kallum_motion_pilot_GIST_update_2,2026.1.1,Win32,60.24096386,5dafea4de40355001651fa2f,69b92ab4aef6dee357cd729a,69b92b4b4133346bb632ec14,0.0322,0.0322,0,73,73,111,1,eightseven,,,,,,,,,,,,,,,,,,,,,,,,,,,,,,,,,,,,,,,,,,,,,,,,,,,,,,,,,,,,,,,,,,,,,,,,,,,,,,,,,,,,,,,,,,,,,,,,,,,,,,,,,,,,,,,,,,,,,,,,,,,,,,,,,,,,,,,,,
,,5dafea4de40355001651fa2f,2026-03-17_11h22.55.975,kallum_motion_pilot_GIST_update_2,2026.1.1,Win32,60.24096386,5dafea4de40355001651fa2f,69b92ab4aef6dee357cd729a,69b92b4b4133346bb632ec14,0.0323,0.0323,0,74,74,161,1,fiveseven,,,,,,,,,,,,,,,,,,,,,,,,,,,,,,,,,,,,,,,,,,,,,,,,,,,,,,,,,,,,,,,,,,,,,,,,,,,,,,,,,,,,,,,,,,,,,,,,,,,,,,,,,,,,,,,,,,,,,,,,,,,,,,,,,,,,,,,,,
,,5dafea4de40355001651fa2f,2026-03-17_11h22.55.975,kallum_motion_pilot_GIST_update_2,2026.1.1,Win32,60.24096386,5dafea4de40355001651fa2f,69b92ab4aef6dee357cd729a,69b92b4b4133346bb632ec14,0.0325,0.0325,0,75,75,55,1,fourthree,,,,,,,,,,,,,,,,,,,,,,,,,,,,,,,,,,,,,,,,,,,,,,,,,,,,,,,,,,,,,,,,,,,,,,,,,,,,,,,,,,,,,,,,,,,,,,,,,,,,,,,,,,,,,,,,,,,,,,,,,,,,,,,,,,,,,,,,,
,,5dafea4de40355001651fa2f,2026-03-17_11h22.55.975,kallum_motion_pilot_GIST_update_2,2026.1.1,Win32,60.24096386,5dafea4de40355001651fa2f,69b92ab4aef6dee357cd729a,69b92b4b4133346bb632ec14,0.0325,0.0325,0,76,76,102,1,eightsix,,,,,,,,,,,,,,,,,,,,,,,,,,,,,,,,,,,,,,,,,,,,,,,,,,,,,,,,,,,,,,,,,,,,,,,,,,,,,,,,,,,,,,,,,,,,,,,,,,,,,,,,,,,,,,,,,,,,,,,,,,,,,,,,,,,,,,,,,
,,5dafea4de40355001651fa2f,2026-03-17_11h22.55.975,kallum_motion_pilot_GIST_update_2,2026.1.1,Win32,60.24096386,5dafea4de40355001651fa2f,69b92ab4aef6dee357cd729a,69b92b4b4133346bb632ec14,0.0327,0.0327,0,77,77,11,1,twofour,,,,,,,,,,,,,,,,,,,,,,,,,,,,,,,,,,,,,,,,,,,,,,,,,,,,,,,,,,,,,,,,,,,,,,,,,,,,,,,,,,,,,,,,,,,,,,,,,,,,,,,,,,,,,,,,,,,,,,,,,,,,,,,,,,,,,,,,,
,,5dafea4de40355001651fa2f,2026-03-17_11h22.55.975,kallum_motion_pilot_GIST_update_2,2026.1.1,Win32,60.24096386,5dafea4de40355001651fa2f,69b92ab4aef6dee357cd729a,69b92b4b4133346bb632ec14,0.0328,0.0328,0,78,78,79,1,eightseven,,,,,,,,,,,,,,,,,,,,,,,,,,,,,,,,,,,,,,,,,,,,,,,,,,,,,,,,,,,,,,,,,,,,,,,,,,,,,,,,,,,,,,,,,,,,,,,,,,,,,,,,,,,,,,,,,,,,,,,,,,,,,,,,,,,,,,,,,
,,5dafea4de40355001651fa2f,2026-03-17_11h22.55.975,kallum_motion_pilot_GIST_update_2,2026.1.1,Win32,60.24096386,5dafea4de40355001651fa2f,69b92ab4aef6dee357cd729a,69b92b4b4133346bb632ec14,0.0329,0.0329,0,79,79,131,1,sixeight,,,,,,,,,,,,,,,,,,,,,,,,,,,,,,,,,,,,,,,,,,,,,,,,,,,,,,,,,,,,,,,,,,,,,,,,,,,,,,,,,,,,,,,,,,,,,,,,,,,,,,,,,,,,,,,,,,,,,,,,,,,,,,,,,,,,,,,,,
,,5dafea4de40355001651fa2f,2026-03-17_11h22.55.975,kallum_motion_pilot_GIST_update_2,2026.1.1,Win32,60.24096386,5dafea4de40355001651fa2f,69b92ab4aef6dee357cd729a,69b92b4b4133346bb632ec14,0.0331,0.0331,0,80,80,122,1,sixfive,,,,,,,,,,,,,,,,,,,,,,,,,,,,,,,,,,,,,,,,,,,,,,,,,,,,,,,,,,,,,,,,,,,,,,,,,,,,,,,,,,,,,,,,,,,,,,,,,,,,,,,,,,,,,,,,,,,,,,,,,,,,,,,,,,,,,,,,,
,,5dafea4de40355001651fa2f,2026-03-17_11h22.55.975,kallum_motion_pilot_GIST_update_2,2026.1.1,Win32,60.24096386,5dafea4de40355001651fa2f,69b92ab4aef6dee357cd729a,69b92b4b4133346bb632ec14,0.0332,0.0333,0,81,81,31,1,fourthree,,,,,,,,,,,,,,,,,,,,,,,,,,,,,,,,,,,,,,,,,,,,,,,,,,,,,,,,,,,,,,,,,,,,,,,,,,,,,,,,,,,,,,,,,,,,,,,,,,,,,,,,,,,,,,,,,,,,,,,,,,,,,,,,,,,,,,,,,
,,5dafea4de40355001651fa2f,2026-03-17_11h22.55.975,kallum_motion_pilot_GIST_update_2,2026.1.1,Win32,60.24096386,5dafea4de40355001651fa2f,69b92ab4aef6dee357cd729a,69b92b4b4133346bb632ec14,0.0333,0.0333,0,82,82,56,1,onetwo,,,,,,,,,,,,,,,,,,,,,,,,,,,,,,,,,,,,,,,,,,,,,,,,,,,,,,,,,,,,,,,,,,,,,,,,,,,,,,,,,,,,,,,,,,,,,,,,,,,,,,,,,,,,,,,,,,,,,,,,,,,,,,,,,,,,,,,,,
,,5dafea4de40355001651fa2f,2026-03-17_11h22.55.975,kallum_motion_pilot_GIST_update_2,2026.1.1,Win32,60.24096386,5dafea4de40355001651fa2f,69b92ab4aef6dee357cd729a,69b92b4b4133346bb632ec14,0.0334,0.0334,0,83,83,68,1,threeone,,,,,,,,,,,,,,,,,,,,,,,,,,,,,,,,,,,,,,,,,,,,,,,,,,,,,,,,,,,,,,,,,,,,,,,,,,,,,,,,,,,,,,,,,,,,,,,,,,,,,,,,,,,,,,,,,,,,,,,,,,,,,,,,,,,,,,,,,
,,5dafea4de40355001651fa2f,2026-03-17_11h22.55.975,kallum_motion_pilot_GIST_update_2,2026.1.1,Win32,60.24096386,5dafea4de40355001651fa2f,69b92ab4aef6dee357cd729a,69b92b4b4133346bb632ec14,0.0336,0.0336,0,84,84,78,1,fourtwo,,,,,,,,,,,,,,,,,,,,,,,,,,,,,,,,,,,,,,,,,,,,,,,,,,,,,,,,,,,,,,,,,,,,,,,,,,,,,,,,,,,,,,,,,,,,,,,,,,,,,,,,,,,,,,,,,,,,,,,,,,,,,,,,,,,,,,,,,
,,5dafea4de40355001651fa2f,2026-03-17_11h22.55.975,kallum_motion_pilot_GIST_update_2,2026.1.1,Win32,60.24096386,5dafea4de40355001651fa2f,69b92ab4aef6dee357cd729a,69b92b4b4133346bb632ec14,0.0337,0.0337,0,85,85,30,1,fourtwo,,,,,,,,,,,,,,,,,,,,,,,,,,,,,,,,,,,,,,,,,,,,,,,,,,,,,,,,,,,,,,,,,,,,,,,,,,,,,,,,,,,,,,,,,,,,,,,,,,,,,,,,,,,,,,,,,,,,,,,,,,,,,,,,,,,,,,,,,
,,5dafea4de40355001651fa2f,2026-03-17_11h22.55.975,kallum_motion_pilot_GIST_update_2,2026.1.1,Win32,60.24096386,5dafea4de40355001651fa2f,69b92ab4aef6dee357cd729a,69b92b4b4133346bb632ec14,0.0339,0.0339,0,86,86,39,1,fourthree,,,,,,,,,,,,,,,,,,,,,,,,,,,,,,,,,,,,,,,,,,,,,,,,,,,,,,,,,,,,,,,,,,,,,,,,,,,,,,,,,,,,,,,,,,,,,,,,,,,,,,,,,,,,,,,,,,,,,,,,,,,,,,,,,,,,,,,,,
,,5dafea4de40355001651fa2f,2026-03-17_11h22.55.975,kallum_motion_pilot_GIST_update_2,2026.1.1,Win32,60.24096386,5dafea4de40355001651fa2f,69b92ab4aef6dee357cd729a,69b92b4b4133346bb632ec14,0.034,0.034,0,87,87,75,1,twofour,,,,,,,,,,,,,,,,,,,,,,,,,,,,,,,,,,,,,,,,,,,,,,,,,,,,,,,,,,,,,,,,,,,,,,,,,,,,,,,,,,,,,,,,,,,,,,,,,,,,,,,,,,,,,,,,,,,,,,,,,,,,,,,,,,,,,,,,,
,,5dafea4de40355001651fa2f,2026-03-17_11h22.55.975,kallum_motion_pilot_GIST_update_2,2026.1.1,Win32,60.24096386,5dafea4de40355001651fa2f,69b92ab4aef6dee357cd729a,69b92b4b4133346bb632ec14,0.0342,0.0342,0,88,88,98,1,sixfive,,,,,,,,,,,,,,,,,,,,,,,,,,,,,,,,,,,,,,,,,,,,,,,,,,,,,,,,,,,,,,,,,,,,,,,,,,,,,,,,,,,,,,,,,,,,,,,,,,,,,,,,,,,,,,,,,,,,,,,,,,,,,,,,,,,,,,,,,
,,5dafea4de40355001651fa2f,2026-03-17_11h22.55.975,kallum_motion_pilot_GIST_update_2,2026.1.1,Win32,60.24096386,5dafea4de40355001651fa2f,69b92ab4aef6dee357cd729a,69b92b4b4133346bb632ec14,0.0343,0.0343,0,89,89,70,1,fourtwo,,,,,,,,,,,,,,,,,,,,,,,,,,,,,,,,,,,,,,,,,,,,,,,,,,,,,,,,,,,,,,,,,,,,,,,,,,,,,,,,,,,,,,,,,,,,,,,,,,,,,,,,,,,,,,,,,,,,,,,,,,,,,,,,,,,,,,,,,
,,5dafea4de40355001651fa2f,2026-03-17_11h22.55.975,kallum_motion_pilot_GIST_update_2,2026.1.1,Win32,60.24096386,5dafea4de40355001651fa2f,69b92ab4aef6dee357cd729a,69b92b4b4133346bb632ec14,0.0345,0.0345,0,90,90,94,1,eightsix,,,,,,,,,,,,,,,,,,,,,,,,,,,,,,,,,,,,,,,,,,,,,,,,,,,,,,,,,,,,,,,,,,,,,,,,,,,,,,,,,,,,,,,,,,,,,,,,,,,,,,,,,,,,,,,,,,,,,,,,,,,,,,,,,,,,,,,,,
,,5dafea4de40355001651fa2f,2026-03-17_11h22.55.975,kallum_motion_pilot_GIST_update_2,2026.1.1,Win32,60.24096386,5dafea4de40355001651fa2f,69b92ab4aef6dee357cd729a,69b92b4b4133346bb632ec14,0.0345,0.0345,0,91,91,92,1,sevenfive,,,,,,,,,,,,,,,,,,,,,,,,,,,,,,,,,,,,,,,,,,,,,,,,,,,,,,,,,,,,,,,,,,,,,,,,,,,,,,,,,,,,,,,,,,,,,,,,,,,,,,,,,,,,,,,,,,,,,,,,,,,,,,,,,,,,,,,,,
,,5dafea4de40355001651fa2f,2026-03-17_11h22.55.975,kallum_motion_pilot_GIST_update_2,2026.1.1,Win32,60.24096386,5dafea4de40355001651fa2f,69b92ab4aef6dee357cd729a,69b92b4b4133346bb632ec14,0.0347,0.0347,0,92,92,45,1,threefour,,,,,,,,,,,,,,,,,,,,,,,,,,,,,,,,,,,,,,,,,,,,,,,,,,,,,,,,,,,,,,,,,,,,,,,,,,,,,,,,,,,,,,,,,,,,,,,,,,,,,,,,,,,,,,,,,,,,,,,,,,,,,,,,,,,,,,,,,
,,5dafea4de40355001651fa2f,2026-03-17_11h22.55.975,kallum_motion_pilot_GIST_update_2,2026.1.1,Win32,60.24096386,5dafea4de40355001651fa2f,69b92ab4aef6dee357cd729a,69b92b4b4133346bb632ec14,0.0349,0.0349,0,93,93,128,1,fivesix,,,,,,,,,,,,,,,,,,,,,,,,,,,,,,,,,,,,,,,,,,,,,,,,,,,,,,,,,,,,,,,,,,,,,,,,,,,,,,,,,,,,,,,,,,,,,,,,,,,,,,,,,,,,,,,,,,,,,,,,,,,,,,,,,,,,,,,,,
,,5dafea4de40355001651fa2f,2026-03-17_11h22.55.975,kallum_motion_pilot_GIST_update_2,2026.1.1,Win32,60.24096386,5dafea4de40355001651fa2f,69b92ab4aef6dee357cd729a,69b92b4b4133346bb632ec14,0.035,0.035,0,94,94,101,1,seveneight,,,,,,,,,,,,,,,,,,,,,,,,,,,,,,,,,,,,,,,,,,,,,,,,,,,,,,,,,,,,,,,,,,,,,,,,,,,,,,,,,,,,,,,,,,,,,,,,,,,,,,,,,,,,,,,,,,,,,,,,,,,,,,,,,,,,,,,,,
,,5dafea4de40355001651fa2f,2026-03-17_11h22.55.975,kallum_motion_pilot_GIST_update_2,2026.1.1,Win32,60.24096386,5dafea4de40355001651fa2f,69b92ab4aef6dee357cd729a,69b92b4b4133346bb632ec14,0.0351,0.0351,0,95,95,35,1,twofour,,,,,,,,,,,,,,,,,,,,,,,,,,,,,,,,,,,,,,,,,,,,,,,,,,,,,,,,,,,,,,,,,,,,,,,,,,,,,,,,,,,,,,,,,,,,,,,,,,,,,,,,,,,,,,,,,,,,,,,,,,,,,,,,,,,,,,,,,
,,5dafea4de40355001651fa2f,2026-03-17_11h22.55.975,kallum_motion_pilot_GIST_update_2,2026.1.1,Win32,60.24096386,5dafea4de40355001651fa2f,69b92ab4aef6dee357cd729a,69b92b4b4133346bb632ec14,0.0352,0.0353,0,96,96,127,1,eightseven,,,,,,,,,,,,,,,,,,,,,,,,,,,,,,,,,,,,,,,,,,,,,,,,,,,,,,,,,,,,,,,,,,,,,,,,,,,,,,,,,,,,,,,,,,,,,,,,,,,,,,,,,,,,,,,,,,,,,,,,,,,,,,,,,,,,,,,,,
,,5dafea4de40355001651fa2f,2026-03-17_11h22.55.975,kallum_motion_pilot_GIST_update_2,2026.1.1,Win32,60.24096386,5dafea4de40355001651fa2f,69b92ab4aef6dee357cd729a,69b92b4b4133346bb632ec14,0.0354,0.0354,0,97,97,108,1,sevenfive,,,,,,,,,,,,,,,,,,,,,,,,,,,,,,,,,,,,,,,,,,,,,,,,,,,,,,,,,,,,,,,,,,,,,,,,,,,,,,,,,,,,,,,,,,,,,,,,,,,,,,,,,,,,,,,,,,,,,,,,,,,,,,,,,,,,,,,,,
,,5dafea4de40355001651fa2f,2026-03-17_11h22.55.975,kallum_motion_pilot_GIST_update_2,2026.1.1,Win32,60.24096386,5dafea4de40355001651fa2f,69b92ab4aef6dee357cd729a,69b92b4b4133346bb632ec14,0.0356,0.0356,0,98,98,76,1,threeone,,,,,,,,,,,,,,,,,,,,,,,,,,,,,,,,,,,,,,,,,,,,,,,,,,,,,,,,,,,,,,,,,,,,,,,,,,,,,,,,,,,,,,,,,,,,,,,,,,,,,,,,,,,,,,,,,,,,,,,,,,,,,,,,,,,,,,,,,
,,5dafea4de40355001651fa2f,2026-03-17_11h22.55.975,kallum_motion_pilot_GIST_update_2,2026.1.1,Win32,60.24096386,5dafea4de40355001651fa2f,69b92ab4aef6dee357cd729a,69b92b4b4133346bb632ec14,0.0357,0.0357,0,99,99,104,1,fivesix,,,,,,,,,,,,,,,,,,,,,,,,,,,,,,,,,,,,,,,,,,,,,,,,,,,,,,,,,,,,,,,,,,,,,,,,,,,,,,,,,,,,,,,,,,,,,,,,,,,,,,,,,,,,,,,,,,,,,,,,,,,,,,,,,,,,,,,,,
,,5dafea4de40355001651fa2f,2026-03-17_11h22.55.975,kallum_motion_pilot_GIST_update_2,2026.1.1,Win32,60.24096386,5dafea4de40355001651fa2f,69b92ab4aef6dee357cd729a,69b92b4b4133346bb632ec14,0.0358,0.0358,0,100,100,72,1,onetwo,,,,,,,,,,,,,,,,,,,,,,,,,,,,,,,,,,,,,,,,,,,,,,,,,,,,,,,,,,,,,,,,,,,,,,,,,,,,,,,,,,,,,,,,,,,,,,,,,,,,,,,,,,,,,,,,,,,,,,,,,,,,,,,,,,,,,,,,,
,,5dafea4de40355001651fa2f,2026-03-17_11h22.55.975,kallum_motion_pilot_GIST_update_2,2026.1.1,Win32,60.24096386,5dafea4de40355001651fa2f,69b92ab4aef6dee357cd729a,69b92b4b4133346bb632ec14,0.036,0.036,0,101,101,86,1,eightsix,,,,,,,,,,,,,,,,,,,,,,,,,,,,,,,,,,,,,,,,,,,,,,,,,,,,,,,,,,,,,,,,,,,,,,,,,,,,,,,,,,,,,,,,,,,,,,,,,,,,,,,,,,,,,,,,,,,,,,,,,,,,,,,,,,,,,,,,,
,,5dafea4de40355001651fa2f,2026-03-17_11h22.55.975,kallum_motion_pilot_GIST_update_2,2026.1.1,Win32,60.24096386,5dafea4de40355001651fa2f,69b92ab4aef6dee357cd729a,69b92b4b4133346bb632ec14,0.0361,0.0361,0,102,102,58,1,twoone,,,,,,,,,,,,,,,,,,,,,,,,,,,,,,,,,,,,,,,,,,,,,,,,,,,,,,,,,,,,,,,,,,,,,,,,,,,,,,,,,,,,,,,,,,,,,,,,,,,,,,,,,,,,,,,,,,,,,,,,,,,,,,,,,,,,,,,,,
,,5dafea4de40355001651fa2f,2026-03-17_11h22.55.975,kallum_motion_pilot_GIST_update_2,2026.1.1,Win32,60.24096386,5dafea4de40355001651fa2f,69b92ab4aef6dee357cd729a,69b92b4b4133346bb632ec14,0.0363,0.0363,0,103,103,23,1,fourthree,,,,,,,,,,,,,,,,,,,,,,,,,,,,,,,,,,,,,,,,,,,,,,,,,,,,,,,,,,,,,,,,,,,,,,,,,,,,,,,,,,,,,,,,,,,,,,,,,,,,,,,,,,,,,,,,,,,,,,,,,,,,,,,,,,,,,,,,,
,,5dafea4de40355001651fa2f,2026-03-17_11h22.55.975,kallum_motion_pilot_GIST_update_2,2026.1.1,Win32,60.24096386,5dafea4de40355001651fa2f,69b92ab4aef6dee357cd729a,69b92b4b4133346bb632ec14,0.0364,0.0364,0,104,104,29,1,threefour,,,,,,,,,,,,,,,,,,,,,,,,,,,,,,,,,,,,,,,,,,,,,,,,,,,,,,,,,,,,,,,,,,,,,,,,,,,,,,,,,,,,,,,,,,,,,,,,,,,,,,,,,,,,,,,,,,,,,,,,,,,,,,,,,,,,,,,,,
,,5dafea4de40355001651fa2f,2026-03-17_11h22.55.975,kallum_motion_pilot_GIST_update_2,2026.1.1,Win32,60.24096386,5dafea4de40355001651fa2f,69b92ab4aef6dee357cd729a,69b92b4b4133346bb632ec14,0.0366,0.0366,0,105,105,159,1,eightseven,,,,,,,,,,,,,,,,,,,,,,,,,,,,,,,,,,,,,,,,,,,,,,,,,,,,,,,,,,,,,,,,,,,,,,,,,,,,,,,,,,,,,,,,,,,,,,,,,,,,,,,,,,,,,,,,,,,,,,,,,,,,,,,,,,,,,,,,,
,,5dafea4de40355001651fa2f,2026-03-17_11h22.55.975,kallum_motion_pilot_GIST_update_2,2026.1.1,Win32,60.24096386,5dafea4de40355001651fa2f,69b92ab4aef6dee357cd729a,69b92b4b4133346bb632ec14,0.0367,0.0367,0,106,106,160,1,fivesix,,,,,,,,,,,,,,,,,,,,,,,,,,,,,,,,,,,,,,,,,,,,,,,,,,,,,,,,,,,,,,,,,,,,,,,,,,,,,,,,,,,,,,,,,,,,,,,,,,,,,,,,,,,,,,,,,,,,,,,,,,,,,,,,,,,,,,,,,
,,5dafea4de40355001651fa2f,2026-03-17_11h22.55.975,kallum_motion_pilot_GIST_update_2,2026.1.1,Win32,60.24096386,5dafea4de40355001651fa2f,69b92ab4aef6dee357cd729a,69b92b4b4133346bb632ec14,0.0369,0.037,0,107,107,139,1,sixeight,,,,,,,,,,,,,,,,,,,,,,,,,,,,,,,,,,,,,,,,,,,,,,,,,,,,,,,,,,,,,,,,,,,,,,,,,,,,,,,,,,,,,,,,,,,,,,,,,,,,,,,,,,,,,,,,,,,,,,,,,,,,,,,,,,,,,,,,,
,,5dafea4de40355001651fa2f,2026-03-17_11h22.55.975,kallum_motion_pilot_GIST_update_2,2026.1.1,Win32,60.24096386,5dafea4de40355001651fa2f,69b92ab4aef6dee357cd729a,69b92b4b4133346bb632ec14,0.037,0.037,0,108,108,132,1,sevenfive,,,,,,,,,,,,,,,,,,,,,,,,,,,,,,,,,,,,,,,,,,,,,,,,,,,,,,,,,,,,,,,,,,,,,,,,,,,,,,,,,,,,,,,,,,,,,,,,,,,,,,,,,,,,,,,,,,,,,,,,,,,,,,,,,,,,,,,,,
,,5dafea4de40355001651fa2f,2026-03-17_11h22.55.975,kallum_motion_pilot_GIST_update_2,2026.1.1,Win32,60.24096386,5dafea4de40355001651fa2f,69b92ab4aef6dee357cd729a,69b92b4b4133346bb632ec14,0.0372,0.0372,0,109,109,146,1,sixfive,,,,,,,,,,,,,,,,,,,,,,,,,,,,,,,,,,,,,,,,,,,,,,,,,,,,,,,,,,,,,,,,,,,,,,,,,,,,,,,,,,,,,,,,,,,,,,,,,,,,,,,,,,,,,,,,,,,,,,,,,,,,,,,,,,,,,,,,,
,,5dafea4de40355001651fa2f,2026-03-17_11h22.55.975,kallum_motion_pilot_GIST_update_2,2026.1.1,Win32,60.24096386,5dafea4de40355001651fa2f,69b92ab4aef6dee357cd729a,69b92b4b4133346bb632ec14,0.0373,0.0373,0,110,110,42,1,twoone,,,,,,,,,,,,,,,,,,,,,,,,,,,,,,,,,,,,,,,,,,,,,,,,,,,,,,,,,,,,,,,,,,,,,,,,,,,,,,,,,,,,,,,,,,,,,,,,,,,,,,,,,,,,,,,,,,,,,,,,,,,,,,,,,,,,,,,,,
,,5dafea4de40355001651fa2f,2026-03-17_11h22.55.975,kallum_motion_pilot_GIST_update_2,2026.1.1,Win32,60.24096386,5dafea4de40355001651fa2f,69b92ab4aef6dee357cd729a,69b92b4b4133346bb632ec14,0.0375,0.0375,0,111,111,52,1,threeone,,,,,,,,,,,,,,,,,,,,,,,,,,,,,,,,,,,,,,,,,,,,,,,,,,,,,,,,,,,,,,,,,,,,,,,,,,,,,,,,,,,,,,,,,,,,,,,,,,,,,,,,,,,,,,,,,,,,,,,,,,,,,,,,,,,,,,,,,
,,5dafea4de40355001651fa2f,2026-03-17_11h22.55.975,kallum_motion_pilot_GIST_update_2,2026.1.1,Win32,60.24096386,5dafea4de40355001651fa2f,69b92ab4aef6dee357cd729a,69b92b4b4133346bb632ec14,0.0378,0.0378,0,112,112,142,1,eightsix,,,,,,,,,,,,,,,,,,,,,,,,,,,,,,,,,,,,,,,,,,,,,,,,,,,,,,,,,,,,,,,,,,,,,,,,,,,,,,,,,,,,,,,,,,,,,,,,,,,,,,,,,,,,,,,,,,,,,,,,,,,,,,,,,,,,,,,,,
,,5dafea4de40355001651fa2f,2026-03-17_11h22.55.975,kallum_motion_pilot_GIST_update_2,2026.1.1,Win32,60.24096386,5dafea4de40355001651fa2f,69b92ab4aef6dee357cd729a,69b92b4b4133346bb632ec14,0.0381,0.0382,0,113,113,99,1,sixeight,,,,,,,,,,,,,,,,,,,,,,,,,,,,,,,,,,,,,,,,,,,,,,,,,,,,,,,,,,,,,,,,,,,,,,,,,,,,,,,,,,,,,,,,,,,,,,,,,,,,,,,,,,,,,,,,,,,,,,,,,,,,,,,,,,,,,,,,,
,,5dafea4de40355001651fa2f,2026-03-17_11h22.55.975,kallum_motion_pilot_GIST_update_2,2026.1.1,Win32,60.24096386,5dafea4de40355001651fa2f,69b92ab4aef6dee357cd729a,69b92b4b4133346bb632ec14,0.0384,0.0384,0,114,114,16,1,onetwo,,,,,,,,,,,,,,,,,,,,,,,,,,,,,,,,,,,,,,,,,,,,,,,,,,,,,,,,,,,,,,,,,,,,,,,,,,,,,,,,,,,,,,,,,,,,,,,,,,,,,,,,,,,,,,,,,,,,,,,,,,,,,,,,,,,,,,,,,
,,5dafea4de40355001651fa2f,2026-03-17_11h22.55.975,kallum_motion_pilot_GIST_update_2,2026.1.1,Win32,60.24096386,5dafea4de40355001651fa2f,69b92ab4aef6dee357cd729a,69b92b4b4133346bb632ec14,0.0386,0.0386,0,115,115,153,1,fiveseven,,,,,,,,,,,,,,,,,,,,,,,,,,,,,,,,,,,,,,,,,,,,,,,,,,,,,,,,,,,,,,,,,,,,,,,,,,,,,,,,,,,,,,,,,,,,,,,,,,,,,,,,,,,,,,,,,,,,,,,,,,,,,,,,,,,,,,,,,
,,5dafea4de40355001651fa2f,2026-03-17_11h22.55.975,kallum_motion_pilot_GIST_update_2,2026.1.1,Win32,60.24096386,5dafea4de40355001651fa2f,69b92ab4aef6dee357cd729a,69b92b4b4133346bb632ec14,0.0389,0.0389,0,116,116,12,1,threeone,,,,,,,,,,,,,,,,,,,,,,,,,,,,,,,,,,,,,,,,,,,,,,,,,,,,,,,,,,,,,,,,,,,,,,,,,,,,,,,,,,,,,,,,,,,,,,,,,,,,,,,,,,,,,,,,,,,,,,,,,,,,,,,,,,,,,,,,,
,,5dafea4de40355001651fa2f,2026-03-17_11h22.55.975,kallum_motion_pilot_GIST_update_2,2026.1.1,Win32,60.24096386,5dafea4de40355001651fa2f,69b92ab4aef6dee357cd729a,69b92b4b4133346bb632ec14,0.0391,0.0391,0,117,117,32,1,onetwo,,,,,,,,,,,,,,,,,,,,,,,,,,,,,,,,,,,,,,,,,,,,,,,,,,,,,,,,,,,,,,,,,,,,,,,,,,,,,,,,,,,,,,,,,,,,,,,,,,,,,,,,,,,,,,,,,,,,,,,,,,,,,,,,,,,,,,,,,
,,5dafea4de40355001651fa2f,2026-03-17_11h22.55.975,kallum_motion_pilot_GIST_update_2,2026.1.1,Win32,60.24096386,5dafea4de40355001651fa2f,69b92ab4aef6dee357cd729a,69b92b4b4133346bb632ec14,0.0394,0.0394,0,118,118,147,1,sixeight,,,,,,,,,,,,,,,,,,,,,,,,,,,,,,,,,,,,,,,,,,,,,,,,,,,,,,,,,,,,,,,,,,,,,,,,,,,,,,,,,,,,,,,,,,,,,,,,,,,,,,,,,,,,,,,,,,,,,,,,,,,,,,,,,,,,,,,,,
,,5dafea4de40355001651fa2f,2026-03-17_11h22.55.975,kallum_motion_pilot_GIST_update_2,2026.1.1,Win32,60.24096386,5dafea4de40355001651fa2f,69b92ab4aef6dee357cd729a,69b92b4b4133346bb632ec14,0.0396,0.0396,0,119,119,81,1,fiveseven,,,,,,,,,,,,,,,,,,,,,,,,,,,,,,,,,,,,,,,,,,,,,,,,,,,,,,,,,,,,,,,,,,,,,,,,,,,,,,,,,,,,,,,,,,,,,,,,,,,,,,,,,,,,,,,,,,,,,,,,,,,,,,,,,,,,,,,,,
,,5dafea4de40355001651fa2f,2026-03-17_11h22.55.975,kallum_motion_pilot_GIST_update_2,2026.1.1,Win32,60.24096386,5dafea4de40355001651fa2f,69b92ab4aef6dee357cd729a,69b92b4b4133346bb632ec14,0.0398,0.0398,0,120,120,129,1,fiveseven,,,,,,,,,,,,,,,,,,,,,,,,,,,,,,,,,,,,,,,,,,,,,,,,,,,,,,,,,,,,,,,,,,,,,,,,,,,,,,,,,,,,,,,,,,,,,,,,,,,,,,,,,,,,,,,,,,,,,,,,,,,,,,,,,,,,,,,,,
,,5dafea4de40355001651fa2f,2026-03-17_11h22.55.975,kallum_motion_pilot_GIST_update_2,2026.1.1,Win32,60.24096386,5dafea4de40355001651fa2f,69b92ab4aef6dee357cd729a,69b92b4b4133346bb632ec14,0.04,0.04,0,121,121,90,1,sixfive,,,,,,,,,,,,,,,,,,,,,,,,,,,,,,,,,,,,,,,,,,,,,,,,,,,,,,,,,,,,,,,,,,,,,,,,,,,,,,,,,,,,,,,,,,,,,,,,,,,,,,,,,,,,,,,,,,,,,,,,,,,,,,,,,,,,,,,,,
,,5dafea4de40355001651fa2f,2026-03-17_11h22.55.975,kallum_motion_pilot_GIST_update_2,2026.1.1,Win32,60.24096386,5dafea4de40355001651fa2f,69b92ab4aef6dee357cd729a,69b92b4b4133346bb632ec14,0.0402,0.0402,0,122,122,97,1,fiveseven,,,,,,,,,,,,,,,,,,,,,,,,,,,,,,,,,,,,,,,,,,,,,,,,,,,,,,,,,,,,,,,,,,,,,,,,,,,,,,,,,,,,,,,,,,,,,,,,,,,,,,,,,,,,,,,,,,,,,,,,,,,,,,,,,,,,,,,,,
,,5dafea4de40355001651fa2f,2026-03-17_11h22.55.975,kallum_motion_pilot_GIST_update_2,2026.1.1,Win32,60.24096386,5dafea4de40355001651fa2f,69b92ab4aef6dee357cd729a,69b92b4b4133346bb632ec14,0.0404,0.0404,0,123,123,25,1,onethree,,,,,,,,,,,,,,,,,,,,,,,,,,,,,,,,,,,,,,,,,,,,,,,,,,,,,,,,,,,,,,,,,,,,,,,,,,,,,,,,,,,,,,,,,,,,,,,,,,,,,,,,,,,,,,,,,,,,,,,,,,,,,,,,,,,,,,,,,
,,5dafea4de40355001651fa2f,2026-03-17_11h22.55.975,kallum_motion_pilot_GIST_update_2,2026.1.1,Win32,60.24096386,5dafea4de40355001651fa2f,69b92ab4aef6dee357cd729a,69b92b4b4133346bb632ec14,0.0406,0.0406,0,124,124,49,1,onethree,,,,,,,,,,,,,,,,,,,,,,,,,,,,,,,,,,,,,,,,,,,,,,,,,,,,,,,,,,,,,,,,,,,,,,,,,,,,,,,,,,,,,,,,,,,,,,,,,,,,,,,,,,,,,,,,,,,,,,,,,,,,,,,,,,,,,,,,,
,,5dafea4de40355001651fa2f,2026-03-17_11h22.55.975,kallum_motion_pilot_GIST_update_2,2026.1.1,Win32,60.24096386,5dafea4de40355001651fa2f,69b92ab4aef6dee357cd729a,69b92b4b4133346bb632ec14,0.0408,0.0408,0,125,125,3,1,twofour,,,,,,,,,,,,,,,,,,,,,,,,,,,,,,,,,,,,,,,,,,,,,,,,,,,,,,,,,,,,,,,,,,,,,,,,,,,,,,,,,,,,,,,,,,,,,,,,,,,,,,,,,,,,,,,,,,,,,,,,,,,,,,,,,,,,,,,,,
,,5dafea4de40355001651fa2f,2026-03-17_11h22.55.975,kallum_motion_pilot_GIST_update_2,2026.1.1,Win32,60.24096386,5dafea4de40355001651fa2f,69b92ab4aef6dee357cd729a,69b92b4b4133346bb632ec14,0.041,0.041,0,126,126,46,1,fourtwo,,,,,,,,,,,,,,,,,,,,,,,,,,,,,,,,,,,,,,,,,,,,,,,,,,,,,,,,,,,,,,,,,,,,,,,,,,,,,,,,,,,,,,,,,,,,,,,,,,,,,,,,,,,,,,,,,,,,,,,,,,,,,,,,,,,,,,,,,
,,5dafea4de40355001651fa2f,2026-03-17_11h22.55.975,kallum_motion_pilot_GIST_update_2,2026.1.1,Win32,60.24096386,5dafea4de40355001651fa2f,69b92ab4aef6dee357cd729a,69b92b4b4133346bb632ec14,0.0411,0.0411,0,127,127,80,1,fivesix,,,,,,,,,,,,,,,,,,,,,,,,,,,,,,,,,,,,,,,,,,,,,,,,,,,,,,,,,,,,,,,,,,,,,,,,,,,,,,,,,,,,,,,,,,,,,,,,,,,,,,,,,,,,,,,,,,,,,,,,,,,,,,,,,,,,,,,,,
,,5dafea4de40355001651fa2f,2026-03-17_11h22.55.975,kallum_motion_pilot_GIST_update_2,2026.1.1,Win32,60.24096386,5dafea4de40355001651fa2f,69b92ab4aef6dee357cd729a,69b92b4b4133346bb632ec14,0.0414,0.0414,0,128,128,155,1,sixeight,,,,,,,,,,,,,,,,,,,,,,,,,,,,,,,,,,,,,,,,,,,,,,,,,,,,,,,,,,,,,,,,,,,,,,,,,,,,,,,,,,,,,,,,,,,,,,,,,,,,,,,,,,,,,,,,,,,,,,,,,,,,,,,,,,,,,,,,,
,,5dafea4de40355001651fa2f,2026-03-17_11h22.55.975,kallum_motion_pilot_GIST_update_2,2026.1.1,Win32,60.24096386,5dafea4de40355001651fa2f,69b92ab4aef6dee357cd729a,69b92b4b4133346bb632ec14,0.0415,0.0415,0,129,129,9,1,onethree,,,,,,,,,,,,,,,,,,,,,,,,,,,,,,,,,,,,,,,,,,,,,,,,,,,,,,,,,,,,,,,,,,,,,,,,,,,,,,,,,,,,,,,,,,,,,,,,,,,,,,,,,,,,,,,,,,,,,,,,,,,,,,,,,,,,,,,,,
,,5dafea4de40355001651fa2f,2026-03-17_11h22.55.975,kallum_motion_pilot_GIST_update_2,2026.1.1,Win32,60.24096386,5dafea4de40355001651fa2f,69b92ab4aef6dee357cd729a,69b92b4b4133346bb632ec14,0.0417,0.0417,0,130,130,41,1,onethree,,,,,,,,,,,,,,,,,,,,,,,,,,,,,,,,,,,,,,,,,,,,,,,,,,,,,,,,,,,,,,,,,,,,,,,,,,,,,,,,,,,,,,,,,,,,,,,,,,,,,,,,,,,,,,,,,,,,,,,,,,,,,,,,,,,,,,,,,
,,5dafea4de40355001651fa2f,2026-03-17_11h22.55.975,kallum_motion_pilot_GIST_update_2,2026.1.1,Win32,60.24096386,5dafea4de40355001651fa2f,69b92ab4aef6dee357cd729a,69b92b4b4133346bb632ec14,0.0419,0.0419,0,131,131,106,1,sixfive,,,,,,,,,,,,,,,,,,,,,,,,,,,,,,,,,,,,,,,,,,,,,,,,,,,,,,,,,,,,,,,,,,,,,,,,,,,,,,,,,,,,,,,,,,,,,,,,,,,,,,,,,,,,,,,,,,,,,,,,,,,,,,,,,,,,,,,,,
,,5dafea4de40355001651fa2f,2026-03-17_11h22.55.975,kallum_motion_pilot_GIST_update_2,2026.1.1,Win32,60.24096386,5dafea4de40355001651fa2f,69b92ab4aef6dee357cd729a,69b92b4b4133346bb632ec14,0.042,0.042,0,132,132,88,1,fivesix,,,,,,,,,,,,,,,,,,,,,,,,,,,,,,,,,,,,,,,,,,,,,,,,,,,,,,,,,,,,,,,,,,,,,,,,,,,,,,,,,,,,,,,,,,,,,,,,,,,,,,,,,,,,,,,,,,,,,,,,,,,,,,,,,,,,,,,,,
,,5dafea4de40355001651fa2f,2026-03-17_11h22.55.975,kallum_motion_pilot_GIST_update_2,2026.1.1,Win32,60.24096386,5dafea4de40355001651fa2f,69b92ab4aef6dee357cd729a,69b92b4b4133346bb632ec14,0.0422,0.0422,0,133,133,5,1,threefour,,,,,,,,,,,,,,,,,,,,,,,,,,,,,,,,,,,,,,,,,,,,,,,,,,,,,,,,,,,,,,,,,,,,,,,,,,,,,,,,,,,,,,,,,,,,,,,,,,,,,,,,,,,,,,,,,,,,,,,,,,,,,,,,,,,,,,,,,
,,5dafea4de40355001651fa2f,2026-03-17_11h22.55.975,kallum_motion_pilot_GIST_update_2,2026.1.1,Win32,60.24096386,5dafea4de40355001651fa2f,69b92ab4aef6dee357cd729a,69b92b4b4133346bb632ec14,0.0424,0.0424,0,134,134,10,1,twoone,,,,,,,,,,,,,,,,,,,,,,,,,,,,,,,,,,,,,,,,,,,,,,,,,,,,,,,,,,,,,,,,,,,,,,,,,,,,,,,,,,,,,,,,,,,,,,,,,,,,,,,,,,,,,,,,,,,,,,,,,,,,,,,,,,,,,,,,,
,,5dafea4de40355001651fa2f,2026-03-17_11h22.55.975,kallum_motion_pilot_GIST_update_2,2026.1.1,Win32,60.24096386,5dafea4de40355001651fa2f,69b92ab4aef6dee357cd729a,69b92b4b4133346bb632ec14,0.0443,0.0443,0,135,135,53,1,threefour,,,,,,,,,,,,,,,,,,,,,,,,,,,,,,,,,,,,,,,,,,,,,,,,,,,,,,,,,,,,,,,,,,,,,,,,,,,,,,,,,,,,,,,,,,,,,,,,,,,,,,,,,,,,,,,,,,,,,,,,,,,,,,,,,,,,,,,,,
,,5dafea4de40355001651fa2f,2026-03-17_11h22.55.975,kallum_motion_pilot_GIST_update_2,2026.1.1,Win32,60.24096386,5dafea4de40355001651fa2f,69b92ab4aef6dee357cd729a,69b92b4b4133346bb632ec14,0.0445,0.0445,0,136,136,85,1,seveneight,,,,,,,,,,,,,,,,,,,,,,,,,,,,,,,,,,,,,,,,,,,,,,,,,,,,,,,,,,,,,,,,,,,,,,,,,,,,,,,,,,,,,,,,,,,,,,,,,,,,,,,,,,,,,,,,,,,,,,,,,,,,,,,,,,,,,,,,,
,,5dafea4de40355001651fa2f,2026-03-17_11h22.55.975,kallum_motion_pilot_GIST_update_2,2026.1.1,Win32,60.24096386,5dafea4de40355001651fa2f,69b92ab4aef6dee357cd729a,69b92b4b4133346bb632ec14,0.0446,0.0447,0,137,137,54,1,fourtwo,,,,,,,,,,,,,,,,,,,,,,,,,,,,,,,,,,,,,,,,,,,,,,,,,,,,,,,,,,,,,,,,,,,,,,,,,,,,,,,,,,,,,,,,,,,,,,,,,,,,,,,,,,,,,,,,,,,,,,,,,,,,,,,,,,,,,,,,,
,,5dafea4de40355001651fa2f,2026-03-17_11h22.55.975,kallum_motion_pilot_GIST_update_2,2026.1.1,Win32,60.24096386,5dafea4de40355001651fa2f,69b92ab4aef6dee357cd729a,69b92b4b4133346bb632ec14,0.0448,0.0448,0,138,138,138,1,sixfive,,,,,,,,,,,,,,,,,,,,,,,,,,,,,,,,,,,,,,,,,,,,,,,,,,,,,,,,,,,,,,,,,,,,,,,,,,,,,,,,,,,,,,,,,,,,,,,,,,,,,,,,,,,,,,,,,,,,,,,,,,,,,,,,,,,,,,,,,
,,5dafea4de40355001651fa2f,2026-03-17_11h22.55.975,kallum_motion_pilot_GIST_update_2,2026.1.1,Win32,60.24096386,5dafea4de40355001651fa2f,69b92ab4aef6dee357cd729a,69b92b4b4133346bb632ec14,0.045,0.045,0,139,139,120,1,fivesix,,,,,,,,,,,,,,,,,,,,,,,,,,,,,,,,,,,,,,,,,,,,,,,,,,,,,,,,,,,,,,,,,,,,,,,,,,,,,,,,,,,,,,,,,,,,,,,,,,,,,,,,,,,,,,,,,,,,,,,,,,,,,,,,,,,,,,,,,
,,5dafea4de40355001651fa2f,2026-03-17_11h22.55.975,kallum_motion_pilot_GIST_update_2,2026.1.1,Win32,60.24096386,5dafea4de40355001651fa2f,69b92ab4aef6dee357cd729a,69b92b4b4133346bb632ec14,0.0451,0.0451,0,140,140,0,1,onetwo,,,,,,,,,,,,,,,,,,,,,,,,,,,,,,,,,,,,,,,,,,,,,,,,,,,,,,,,,,,,,,,,,,,,,,,,,,,,,,,,,,,,,,,,,,,,,,,,,,,,,,,,,,,,,,,,,,,,,,,,,,,,,,,,,,,,,,,,,
,,5dafea4de40355001651fa2f,2026-03-17_11h22.55.975,kallum_motion_pilot_GIST_update_2,2026.1.1,Win32,60.24096386,5dafea4de40355001651fa2f,69b92ab4aef6dee357cd729a,69b92b4b4133346bb632ec14,0.0453,0.0453,0,141,141,8,1,onetwo,,,,,,,,,,,,,,,,,,,,,,,,,,,,,,,,,,,,,,,,,,,,,,,,,,,,,,,,,,,,,,,,,,,,,,,,,,,,,,,,,,,,,,,,,,,,,,,,,,,,,,,,,,,,,,,,,,,,,,,,,,,,,,,,,,,,,,,,,
,,5dafea4de40355001651fa2f,2026-03-17_11h22.55.975,kallum_motion_pilot_GIST_update_2,2026.1.1,Win32,60.24096386,5dafea4de40355001651fa2f,69b92ab4aef6dee357cd729a,69b92b4b4133346bb632ec14,0.0454,0.0454,0,142,142,124,1,sevenfive,,,,,,,,,,,,,,,,,,,,,,,,,,,,,,,,,,,,,,,,,,,,,,,,,,,,,,,,,,,,,,,,,,,,,,,,,,,,,,,,,,,,,,,,,,,,,,,,,,,,,,,,,,,,,,,,,,,,,,,,,,,,,,,,,,,,,,,,,
,,5dafea4de40355001651fa2f,2026-03-17_11h22.55.975,kallum_motion_pilot_GIST_update_2,2026.1.1,Win32,60.24096386,5dafea4de40355001651fa2f,69b92ab4aef6dee357cd729a,69b92b4b4133346bb632ec14,0.0457,0.0457,0,143,143,100,1,sevenfive,,,,,,,,,,,,,,,,,,,,,,,,,,,,,,,,,,,,,,,,,,,,,,,,,,,,,,,,,,,,,,,,,,,,,,,,,,,,,,,,,,,,,,,,,,,,,,,,,,,,,,,,,,,,,,,,,,,,,,,,,,,,,,,,,,,,,,,,,
,,5dafea4de40355001651fa2f,2026-03-17_11h22.55.975,kallum_motion_pilot_GIST_update_2,2026.1.1,Win32,60.24096386,5dafea4de40355001651fa2f,69b92ab4aef6dee357cd729a,69b92b4b4133346bb632ec14,0.0458,0.0458,0,144,144,152,1,fivesix,,,,,,,,,,,,,,,,,,,,,,,,,,,,,,,,,,,,,,,,,,,,,,,,,,,,,,,,,,,,,,,,,,,,,,,,,,,,,,,,,,,,,,,,,,,,,,,,,,,,,,,,,,,,,,,,,,,,,,,,,,,,,,,,,,,,,,,,,
,,5dafea4de40355001651fa2f,2026-03-17_11h22.55.975,kallum_motion_pilot_GIST_update_2,2026.1.1,Win32,60.24096386,5dafea4de40355001651fa2f,69b92ab4aef6dee357cd729a,69b92b4b4133346bb632ec14,0.0459,0.0459,0,145,145,125,1,seveneight,,,,,,,,,,,,,,,,,,,,,,,,,,,,,,,,,,,,,,,,,,,,,,,,,,,,,,,,,,,,,,,,,,,,,,,,,,,,,,,,,,,,,,,,,,,,,,,,,,,,,,,,,,,,,,,,,,,,,,,,,,,,,,,,,,,,,,,,,
,,5dafea4de40355001651fa2f,2026-03-17_11h22.55.975,kallum_motion_pilot_GIST_update_2,2026.1.1,Win32,60.24096386,5dafea4de40355001651fa2f,69b92ab4aef6dee357cd729a,69b92b4b4133346bb632ec14,0.0461,0.0461,0,146,146,26,1,twoone,,,,,,,,,,,,,,,,,,,,,,,,,,,,,,,,,,,,,,,,,,,,,,,,,,,,,,,,,,,,,,,,,,,,,,,,,,,,,,,,,,,,,,,,,,,,,,,,,,,,,,,,,,,,,,,,,,,,,,,,,,,,,,,,,,,,,,,,,
,,5dafea4de40355001651fa2f,2026-03-17_11h22.55.975,kallum_motion_pilot_GIST_update_2,2026.1.1,Win32,60.24096386,5dafea4de40355001651fa2f,69b92ab4aef6dee357cd729a,69b92b4b4133346bb632ec14,0.0462,0.0462,0,147,147,140,1,sevenfive,,,,,,,,,,,,,,,,,,,,,,,,,,,,,,,,,,,,,,,,,,,,,,,,,,,,,,,,,,,,,,,,,,,,,,,,,,,,,,,,,,,,,,,,,,,,,,,,,,,,,,,,,,,,,,,,,,,,,,,,,,,,,,,,,,,,,,,,,
,,5dafea4de40355001651fa2f,2026-03-17_11h22.55.975,kallum_motion_pilot_GIST_update_2,2026.1.1,Win32,60.24096386,5dafea4de40355001651fa2f,69b92ab4aef6dee357cd729a,69b92b4b4133346bb632ec14,0.0463,0.0463,0,148,148,7,1,fourthree,,,,,,,,,,,,,,,,,,,,,,,,,,,,,,,,,,,,,,,,,,,,,,,,,,,,,,,,,,,,,,,,,,,,,,,,,,,,,,,,,,,,,,,,,,,,,,,,,,,,,,,,,,,,,,,,,,,,,,,,,,,,,,,,,,,,,,,,,
,,5dafea4de40355001651fa2f,2026-03-17_11h22.55.975,kallum_motion_pilot_GIST_update_2,2026.1.1,Win32,60.24096386,5dafea4de40355001651fa2f,69b92ab4aef6dee357cd729a,69b92b4b4133346bb632ec14,0.0465,0.0465,0,149,149,44,1,threeone,,,,,,,,,,,,,,,,,,,,,,,,,,,,,,,,,,,,,,,,,,,,,,,,,,,,,,,,,,,,,,,,,,,,,,,,,,,,,,,,,,,,,,,,,,,,,,,,,,,,,,,,,,,,,,,,,,,,,,,,,,,,,,,,,,,,,,,,,
,,5dafea4de40355001651fa2f,2026-03-17_11h22.55.975,kallum_motion_pilot_GIST_update_2,2026.1.1,Win32,60.24096386,5dafea4de40355001651fa2f,69b92ab4aef6dee357cd729a,69b92b4b4133346bb632ec14,0.0467,0.0467,0,150,150,109,1,seveneight,,,,,,,,,,,,,,,,,,,,,,,,,,,,,,,,,,,,,,,,,,,,,,,,,,,,,,,,,,,,,,,,,,,,,,,,,,,,,,,,,,,,,,,,,,,,,,,,,,,,,,,,,,,,,,,,,,,,,,,,,,,,,,,,,,,,,,,,,
,,5dafea4de40355001651fa2f,2026-03-17_11h22.55.975,kallum_motion_pilot_GIST_update_2,2026.1.1,Win32,60.24096386,5dafea4de40355001651fa2f,69b92ab4aef6dee357cd729a,69b92b4b4133346bb632ec14,0.0467,0.0467,0,151,151,4,1,threeone,,,,,,,,,,,,,,,,,,,,,,,,,,,,,,,,,,,,,,,,,,,,,,,,,,,,,,,,,,,,,,,,,,,,,,,,,,,,,,,,,,,,,,,,,,,,,,,,,,,,,,,,,,,,,,,,,,,,,,,,,,,,,,,,,,,,,,,,,
,,5dafea4de40355001651fa2f,2026-03-17_11h22.55.975,kallum_motion_pilot_GIST_update_2,2026.1.1,Win32,60.24096386,5dafea4de40355001651fa2f,69b92ab4aef6dee357cd729a,69b92b4b4133346bb632ec14,0.0469,0.0469,0,152,152,63,1,fourthree,,,,,,,,,,,,,,,,,,,,,,,,,,,,,,,,,,,,,,,,,,,,,,,,,,,,,,,,,,,,,,,,,,,,,,,,,,,,,,,,,,,,,,,,,,,,,,,,,,,,,,,,,,,,,,,,,,,,,,,,,,,,,,,,,,,,,,,,,
,,5dafea4de40355001651fa2f,2026-03-17_11h22.55.975,kallum_motion_pilot_GIST_update_2,2026.1.1,Win32,60.24096386,5dafea4de40355001651fa2f,69b92ab4aef6dee357cd729a,69b92b4b4133346bb632ec14,0.047,0.0471,0,153,153,130,1,sixfive,,,,,,,,,,,,,,,,,,,,,,,,,,,,,,,,,,,,,,,,,,,,,,,,,,,,,,,,,,,,,,,,,,,,,,,,,,,,,,,,,,,,,,,,,,,,,,,,,,,,,,,,,,,,,,,,,,,,,,,,,,,,,,,,,,,,,,,,,
,,5dafea4de40355001651fa2f,2026-03-17_11h22.55.975,kallum_motion_pilot_GIST_update_2,2026.1.1,Win32,60.24096386,5dafea4de40355001651fa2f,69b92ab4aef6dee357cd729a,69b92b4b4133346bb632ec14,0.0473,0.0473,0,154,154,116,1,sevenfive,,,,,,,,,,,,,,,,,,,,,,,,,,,,,,,,,,,,,,,,,,,,,,,,,,,,,,,,,,,,,,,,,,,,,,,,,,,,,,,,,,,,,,,,,,,,,,,,,,,,,,,,,,,,,,,,,,,,,,,,,,,,,,,,,,,,,,,,,
,,5dafea4de40355001651fa2f,2026-03-17_11h22.55.975,kallum_motion_pilot_GIST_update_2,2026.1.1,Win32,60.24096386,5dafea4de40355001651fa2f,69b92ab4aef6dee357cd729a,69b92b4b4133346bb632ec14,0.0474,0.0474,0,155,155,18,1,twoone,,,,,,,,,,,,,,,,,,,,,,,,,,,,,,,,,,,,,,,,,,,,,,,,,,,,,,,,,,,,,,,,,,,,,,,,,,,,,,,,,,,,,,,,,,,,,,,,,,,,,,,,,,,,,,,,,,,,,,,,,,,,,,,,,,,,,,,,,
,,5dafea4de40355001651fa2f,2026-03-17_11h22.55.975,kallum_motion_pilot_GIST_update_2,2026.1.1,Win32,60.24096386,5dafea4de40355001651fa2f,69b92ab4aef6dee357cd729a,69b92b4b4133346bb632ec14,0.0476,0.0476,0,156,156,33,1,onethree,,,,,,,,,,,,,,,,,,,,,,,,,,,,,,,,,,,,,,,,,,,,,,,,,,,,,,,,,,,,,,,,,,,,,,,,,,,,,,,,,,,,,,,,,,,,,,,,,,,,,,,,,,,,,,,,,,,,,,,,,,,,,,,,,,,,,,,,,
,,5dafea4de40355001651fa2f,2026-03-17_11h22.55.975,kallum_motion_pilot_GIST_update_2,2026.1.1,Win32,60.24096386,5dafea4de40355001651fa2f,69b92ab4aef6dee357cd729a,69b92b4b4133346bb632ec14,0.0477,0.0477,0,157,157,24,1,onetwo,,,,,,,,,,,,,,,,,,,,,,,,,,,,,,,,,,,,,,,,,,,,,,,,,,,,,,,,,,,,,,,,,,,,,,,,,,,,,,,,,,,,,,,,,,,,,,,,,,,,,,,,,,,,,,,,,,,,,,,,,,,,,,,,,,,,,,,,,
,,5dafea4de40355001651fa2f,2026-03-17_11h22.55.975,kallum_motion_pilot_GIST_update_2,2026.1.1,Win32,60.24096386,5dafea4de40355001651fa2f,69b92ab4aef6dee357cd729a,69b92b4b4133346bb632ec14,0.0479,0.0479,0,158,158,37,1,threefour,,,,,,,,,,,,,,,,,,,,,,,,,,,,,,,,,,,,,,,,,,,,,,,,,,,,,,,,,,,,,,,,,,,,,,,,,,,,,,,,,,,,,,,,,,,,,,,,,,,,,,,,,,,,,,,,,,,,,,,,,,,,,,,,,,,,,,,,,
,,5dafea4de40355001651fa2f,2026-03-17_11h22.55.975,kallum_motion_pilot_GIST_update_2,2026.1.1,Win32,60.24096386,5dafea4de40355001651fa2f,69b92ab4aef6dee357cd729a,69b92b4b4133346bb632ec14,0.048,0.048,0,159,159,117,1,seveneight,,,,,,,,,,,,,,,,,,,,,,,,,,,,,,,,,,,,,,,,,,,,,,,,,,,,,,,,,,,,,,,,,,,,,,,,,,,,,,,,,,,,,,,,,,,,,,,,,,,,,,,,,,,,,,,,,,,,,,,,,,,,,,,,,,,,,,,,,
,,5dafea4de40355001651fa2f,2026-03-17_11h22.55.975,kallum_motion_pilot_GIST_update_2,2026.1.1,Win32,60.24096386,5dafea4de40355001651fa2f,69b92ab4aef6dee357cd729a,69b92b4b4133346bb632ec14,0.0481,0.0481,0,160,160,74,1,twoone,,,,,,,,,,,,,,,,,,,,,,,,,,,,,,,,,,,,,,,,,,,,,,,,,,,,,,,,,,,,,,,,,,,,,,,,,,,,,,,,,,,,,,,,,,,,,,,,,,,,,,,,,,,,,,,,,,,,,,,,,,,,,,,,,,,,,,,,,
,,5dafea4de40355001651fa2f,2026-03-17_11h22.55.975,kallum_motion_pilot_GIST_update_2,2026.1.1,Win32,60.24096386,5dafea4de40355001651fa2f,69b92ab4aef6dee357cd729a,69b92b4b4133346bb632ec14,0.0482,0.0482,0,161,161,73,1,onethree,,,,,,,,,,,,,,,,,,,,,,,,,,,,,,,,,,,,,,,,,,,,,,,,,,,,,,,,,,,,,,,,,,,,,,,,,,,,,,,,,,,,,,,,,,,,,,,,,,,,,,,,,,,,,,,,,,,,,,,,,,,,,,,,,,,,,,,,,
,,5dafea4de40355001651fa2f,2026-03-17_11h22.55.975,kallum_motion_pilot_GIST_update_2,2026.1.1,Win32,60.24096386,5dafea4de40355001651fa2f,69b92ab4aef6dee357cd729a,69b92b4b4133346bb632ec14,0.0483,0.0483,1,0,162,107,1,sixeight,,,,,,,,,,,,,,,,,,,,,,,,,,,,,,,,,,,,,,,,,,,,,,,,,,,,,,,,,,,,,,,,,,,,,,,,,,,,,,,,,,,,,,,,,,,,,,,,,,,,,,,,,,,,,,,,,,,,,,,,,,,,,,,,,,,,,,,,,
,,5dafea4de40355001651fa2f,2026-03-17_11h22.55.975,kallum_motion_pilot_GIST_update_2,2026.1.1,Win32,60.24096386,5dafea4de40355001651fa2f,69b92ab4aef6dee357cd729a,69b92b4b4133346bb632ec14,0.0485,0.0485,1,1,163,100,1,sevenfive,,,,,,,,,,,,,,,,,,,,,,,,,,,,,,,,,,,,,,,,,,,,,,,,,,,,,,,,,,,,,,,,,,,,,,,,,,,,,,,,,,,,,,,,,,,,,,,,,,,,,,,,,,,,,,,,,,,,,,,,,,,,,,,,,,,,,,,,,
,,5dafea4de40355001651fa2f,2026-03-17_11h22.55.975,kallum_motion_pilot_GIST_update_2,2026.1.1,Win32,60.24096386,5dafea4de40355001651fa2f,69b92ab4aef6dee357cd729a,69b92b4b4133346bb632ec14,0.0486,0.0486,1,2,164,94,1,eightsix,,,,,,,,,,,,,,,,,,,,,,,,,,,,,,,,,,,,,,,,,,,,,,,,,,,,,,,,,,,,,,,,,,,,,,,,,,,,,,,,,,,,,,,,,,,,,,,,,,,,,,,,,,,,,,,,,,,,,,,,,,,,,,,,,,,,,,,,,
,,5dafea4de40355001651fa2f,2026-03-17_11h22.55.975,kallum_motion_pilot_GIST_update_2,2026.1.1,Win32,60.24096386,5dafea4de40355001651fa2f,69b92ab4aef6dee357cd729a,69b92b4b4133346bb632ec14,0.0488,0.0488,1,3,165,99,1,sixeight,,,,,,,,,,,,,,,,,,,,,,,,,,,,,,,,,,,,,,,,,,,,,,,,,,,,,,,,,,,,,,,,,,,,,,,,,,,,,,,,,,,,,,,,,,,,,,,,,,,,,,,,,,,,,,,,,,,,,,,,,,,,,,,,,,,,,,,,,
,,5dafea4de40355001651fa2f,2026-03-17_11h22.55.975,kallum_motion_pilot_GIST_update_2,2026.1.1,Win32,60.24096386,5dafea4de40355001651fa2f,69b92ab4aef6dee357cd729a,69b92b4b4133346bb632ec14,0.0489,0.0489,1,4,166,151,1,eightseven,,,,,,,,,,,,,,,,,,,,,,,,,,,,,,,,,,,,,,,,,,,,,,,,,,,,,,,,,,,,,,,,,,,,,,,,,,,,,,,,,,,,,,,,,,,,,,,,,,,,,,,,,,,,,,,,,,,,,,,,,,,,,,,,,,,,,,,,,
,,5dafea4de40355001651fa2f,2026-03-17_11h22.55.975,kallum_motion_pilot_GIST_update_2,2026.1.1,Win32,60.24096386,5dafea4de40355001651fa2f,69b92ab4aef6dee357cd729a,69b92b4b4133346bb632ec14,0.049,0.049,1,5,167,152,1,fivesix,,,,,,,,,,,,,,,,,,,,,,,,,,,,,,,,,,,,,,,,,,,,,,,,,,,,,,,,,,,,,,,,,,,,,,,,,,,,,,,,,,,,,,,,,,,,,,,,,,,,,,,,,,,,,,,,,,,,,,,,,,,,,,,,,,,,,,,,,
,,5dafea4de40355001651fa2f,2026-03-17_11h22.55.975,kallum_motion_pilot_GIST_update_2,2026.1.1,Win32,60.24096386,5dafea4de40355001651fa2f,69b92ab4aef6dee357cd729a,69b92b4b4133346bb632ec14,0.0491,0.0491,1,6,168,148,1,sevenfive,,,,,,,,,,,,,,,,,,,,,,,,,,,,,,,,,,,,,,,,,,,,,,,,,,,,,,,,,,,,,,,,,,,,,,,,,,,,,,,,,,,,,,,,,,,,,,,,,,,,,,,,,,,,,,,,,,,,,,,,,,,,,,,,,,,,,,,,,
,,5dafea4de40355001651fa2f,2026-03-17_11h22.55.975,kallum_motion_pilot_GIST_update_2,2026.1.1,Win32,60.24096386,5dafea4de40355001651fa2f,69b92ab4aef6dee357cd729a,69b92b4b4133346bb632ec14,0.0492,0.0492,1,7,169,11,1,twofour,,,,,,,,,,,,,,,,,,,,,,,,,,,,,,,,,,,,,,,,,,,,,,,,,,,,,,,,,,,,,,,,,,,,,,,,,,,,,,,,,,,,,,,,,,,,,,,,,,,,,,,,,,,,,,,,,,,,,,,,,,,,,,,,,,,,,,,,,
,,5dafea4de40355001651fa2f,2026-03-17_11h22.55.975,kallum_motion_pilot_GIST_update_2,2026.1.1,Win32,60.24096386,5dafea4de40355001651fa2f,69b92ab4aef6dee357cd729a,69b92b4b4133346bb632ec14,0.0494,0.0494,1,8,170,120,1,fivesix,,,,,,,,,,,,,,,,,,,,,,,,,,,,,,,,,,,,,,,,,,,,,,,,,,,,,,,,,,,,,,,,,,,,,,,,,,,,,,,,,,,,,,,,,,,,,,,,,,,,,,,,,,,,,,,,,,,,,,,,,,,,,,,,,,,,,,,,,
,,5dafea4de40355001651fa2f,2026-03-17_11h22.55.975,kallum_motion_pilot_GIST_update_2,2026.1.1,Win32,60.24096386,5dafea4de40355001651fa2f,69b92ab4aef6dee357cd729a,69b92b4b4133346bb632ec14,0.0496,0.0496,1,9,171,49,1,onethree,,,,,,,,,,,,,,,,,,,,,,,,,,,,,,,,,,,,,,,,,,,,,,,,,,,,,,,,,,,,,,,,,,,,,,,,,,,,,,,,,,,,,,,,,,,,,,,,,,,,,,,,,,,,,,,,,,,,,,,,,,,,,,,,,,,,,,,,,
,,5dafea4de40355001651fa2f,2026-03-17_11h22.55.975,kallum_motion_pilot_GIST_update_2,2026.1.1,Win32,60.24096386,5dafea4de40355001651fa2f,69b92ab4aef6dee357cd729a,69b92b4b4133346bb632ec14,0.0497,0.0497,1,10,172,40,1,onetwo,,,,,,,,,,,,,,,,,,,,,,,,,,,,,,,,,,,,,,,,,,,,,,,,,,,,,,,,,,,,,,,,,,,,,,,,,,,,,,,,,,,,,,,,,,,,,,,,,,,,,,,,,,,,,,,,,,,,,,,,,,,,,,,,,,,,,,,,,
,,5dafea4de40355001651fa2f,2026-03-17_11h22.55.975,kallum_motion_pilot_GIST_update_2,2026.1.1,Win32,60.24096386,5dafea4de40355001651fa2f,69b92ab4aef6dee357cd729a,69b92b4b4133346bb632ec14,0.0498,0.0498,1,11,173,96,1,fivesix,,,,,,,,,,,,,,,,,,,,,,,,,,,,,,,,,,,,,,,,,,,,,,,,,,,,,,,,,,,,,,,,,,,,,,,,,,,,,,,,,,,,,,,,,,,,,,,,,,,,,,,,,,,,,,,,,,,,,,,,,,,,,,,,,,,,,,,,,
,,5dafea4de40355001651fa2f,2026-03-17_11h22.55.975,kallum_motion_pilot_GIST_update_2,2026.1.1,Win32,60.24096386,5dafea4de40355001651fa2f,69b92ab4aef6dee357cd729a,69b92b4b4133346bb632ec14,0.0499,0.0499,1,12,174,138,1,sixfive,,,,,,,,,,,,,,,,,,,,,,,,,,,,,,,,,,,,,,,,,,,,,,,,,,,,,,,,,,,,,,,,,,,,,,,,,,,,,,,,,,,,,,,,,,,,,,,,,,,,,,,,,,,,,,,,,,,,,,,,,,,,,,,,,,,,,,,,,
,,5dafea4de40355001651fa2f,2026-03-17_11h22.55.975,kallum_motion_pilot_GIST_update_2,2026.1.1,Win32,60.24096386,5dafea4de40355001651fa2f,69b92ab4aef6dee357cd729a,69b92b4b4133346bb632ec14,0.0501,0.0501,1,13,175,56,1,onetwo,,,,,,,,,,,,,,,,,,,,,,,,,,,,,,,,,,,,,,,,,,,,,,,,,,,,,,,,,,,,,,,,,,,,,,,,,,,,,,,,,,,,,,,,,,,,,,,,,,,,,,,,,,,,,,,,,,,,,,,,,,,,,,,,,,,,,,,,,
,,5dafea4de40355001651fa2f,2026-03-17_11h22.55.975,kallum_motion_pilot_GIST_update_2,2026.1.1,Win32,60.24096386,5dafea4de40355001651fa2f,69b92ab4aef6dee357cd729a,69b92b4b4133346bb632ec14,0.0502,0.0502,1,14,176,12,1,threeone,,,,,,,,,,,,,,,,,,,,,,,,,,,,,,,,,,,,,,,,,,,,,,,,,,,,,,,,,,,,,,,,,,,,,,,,,,,,,,,,,,,,,,,,,,,,,,,,,,,,,,,,,,,,,,,,,,,,,,,,,,,,,,,,,,,,,,,,,
,,5dafea4de40355001651fa2f,2026-03-17_11h22.55.975,kallum_motion_pilot_GIST_update_2,2026.1.1,Win32,60.24096386,5dafea4de40355001651fa2f,69b92ab4aef6dee357cd729a,69b92b4b4133346bb632ec14,0.0503,0.0503,1,15,177,114,1,sixfive,,,,,,,,,,,,,,,,,,,,,,,,,,,,,,,,,,,,,,,,,,,,,,,,,,,,,,,,,,,,,,,,,,,,,,,,,,,,,,,,,,,,,,,,,,,,,,,,,,,,,,,,,,,,,,,,,,,,,,,,,,,,,,,,,,,,,,,,,
,,5dafea4de40355001651fa2f,2026-03-17_11h22.55.975,kallum_motion_pilot_GIST_update_2,2026.1.1,Win32,60.24096386,5dafea4de40355001651fa2f,69b92ab4aef6dee357cd729a,69b92b4b4133346bb632ec14,0.0504,0.0504,1,16,178,135,1,eightseven,,,,,,,,,,,,,,,,,,,,,,,,,,,,,,,,,,,,,,,,,,,,,,,,,,,,,,,,,,,,,,,,,,,,,,,,,,,,,,,,,,,,,,,,,,,,,,,,,,,,,,,,,,,,,,,,,,,,,,,,,,,,,,,,,,,,,,,,,
,,5dafea4de40355001651fa2f,2026-03-17_11h22.55.975,kallum_motion_pilot_GIST_update_2,2026.1.1,Win32,60.24096386,5dafea4de40355001651fa2f,69b92ab4aef6dee357cd729a,69b92b4b4133346bb632ec14,0.0506,0.0506,1,17,179,133,1,seveneight,,,,,,,,,,,,,,,,,,,,,,,,,,,,,,,,,,,,,,,,,,,,,,,,,,,,,,,,,,,,,,,,,,,,,,,,,,,,,,,,,,,,,,,,,,,,,,,,,,,,,,,,,,,,,,,,,,,,,,,,,,,,,,,,,,,,,,,,,
,,5dafea4de40355001651fa2f,2026-03-17_11h22.55.975,kallum_motion_pilot_GIST_update_2,2026.1.1,Win32,60.24096386,5dafea4de40355001651fa2f,69b92ab4aef6dee357cd729a,69b92b4b4133346bb632ec14,0.0507,0.0507,1,18,180,71,1,fourthree,,,,,,,,,,,,,,,,,,,,,,,,,,,,,,,,,,,,,,,,,,,,,,,,,,,,,,,,,,,,,,,,,,,,,,,,,,,,,,,,,,,,,,,,,,,,,,,,,,,,,,,,,,,,,,,,,,,,,,,,,,,,,,,,,,,,,,,,,
,,5dafea4de40355001651fa2f,2026-03-17_11h22.55.975,kallum_motion_pilot_GIST_update_2,2026.1.1,Win32,60.24096386,5dafea4de40355001651fa2f,69b92ab4aef6dee357cd729a,69b92b4b4133346bb632ec14,0.0509,0.0509,1,19,181,38,1,fourtwo,,,,,,,,,,,,,,,,,,,,,,,,,,,,,,,,,,,,,,,,,,,,,,,,,,,,,,,,,,,,,,,,,,,,,,,,,,,,,,,,,,,,,,,,,,,,,,,,,,,,,,,,,,,,,,,,,,,,,,,,,,,,,,,,,,,,,,,,,
,,5dafea4de40355001651fa2f,2026-03-17_11h22.55.975,kallum_motion_pilot_GIST_update_2,2026.1.1,Win32,60.24096386,5dafea4de40355001651fa2f,69b92ab4aef6dee357cd729a,69b92b4b4133346bb632ec14,0.0509,0.0509,1,20,182,14,1,fourtwo,,,,,,,,,,,,,,,,,,,,,,,,,,,,,,,,,,,,,,,,,,,,,,,,,,,,,,,,,,,,,,,,,,,,,,,,,,,,,,,,,,,,,,,,,,,,,,,,,,,,,,,,,,,,,,,,,,,,,,,,,,,,,,,,,,,,,,,,,
,,5dafea4de40355001651fa2f,2026-03-17_11h22.55.975,kallum_motion_pilot_GIST_update_2,2026.1.1,Win32,60.24096386,5dafea4de40355001651fa2f,69b92ab4aef6dee357cd729a,69b92b4b4133346bb632ec14,0.0511,0.0511,1,21,183,76,1,threeone,,,,,,,,,,,,,,,,,,,,,,,,,,,,,,,,,,,,,,,,,,,,,,,,,,,,,,,,,,,,,,,,,,,,,,,,,,,,,,,,,,,,,,,,,,,,,,,,,,,,,,,,,,,,,,,,,,,,,,,,,,,,,,,,,,,,,,,,,
,,5dafea4de40355001651fa2f,2026-03-17_11h22.55.975,kallum_motion_pilot_GIST_update_2,2026.1.1,Win32,60.24096386,5dafea4de40355001651fa2f,69b92ab4aef6dee357cd729a,69b92b4b4133346bb632ec14,0.0512,0.0512,1,22,184,83,1,sixeight,,,,,,,,,,,,,,,,,,,,,,,,,,,,,,,,,,,,,,,,,,,,,,,,,,,,,,,,,,,,,,,,,,,,,,,,,,,,,,,,,,,,,,,,,,,,,,,,,,,,,,,,,,,,,,,,,,,,,,,,,,,,,,,,,,,,,,,,,
,,5dafea4de40355001651fa2f,2026-03-17_11h22.55.975,kallum_motion_pilot_GIST_update_2,2026.1.1,Win32,60.24096386,5dafea4de40355001651fa2f,69b92ab4aef6dee357cd729a,69b92b4b4133346bb632ec14,0.0513,0.0513,1,23,185,35,1,twofour,,,,,,,,,,,,,,,,,,,,,,,,,,,,,,,,,,,,,,,,,,,,,,,,,,,,,,,,,,,,,,,,,,,,,,,,,,,,,,,,,,,,,,,,,,,,,,,,,,,,,,,,,,,,,,,,,,,,,,,,,,,,,,,,,,,,,,,,,
,,5dafea4de40355001651fa2f,2026-03-17_11h22.55.975,kallum_motion_pilot_GIST_update_2,2026.1.1,Win32,60.24096386,5dafea4de40355001651fa2f,69b92ab4aef6dee357cd729a,69b92b4b4133346bb632ec14,0.0514,0.0514,1,24,186,46,1,fourtwo,,,,,,,,,,,,,,,,,,,,,,,,,,,,,,,,,,,,,,,,,,,,,,,,,,,,,,,,,,,,,,,,,,,,,,,,,,,,,,,,,,,,,,,,,,,,,,,,,,,,,,,,,,,,,,,,,,,,,,,,,,,,,,,,,,,,,,,,,
,,5dafea4de40355001651fa2f,2026-03-17_11h22.55.975,kallum_motion_pilot_GIST_update_2,2026.1.1,Win32,60.24096386,5dafea4de40355001651fa2f,69b92ab4aef6dee357cd729a,69b92b4b4133346bb632ec14,0.0515,0.0515,1,25,187,78,1,fourtwo,,,,,,,,,,,,,,,,,,,,,,,,,,,,,,,,,,,,,,,,,,,,,,,,,,,,,,,,,,,,,,,,,,,,,,,,,,,,,,,,,,,,,,,,,,,,,,,,,,,,,,,,,,,,,,,,,,,,,,,,,,,,,,,,,,,,,,,,,
,,5dafea4de40355001651fa2f,2026-03-17_11h22.55.975,kallum_motion_pilot_GIST_update_2,2026.1.1,Win32,60.24096386,5dafea4de40355001651fa2f,69b92ab4aef6dee357cd729a,69b92b4b4133346bb632ec14,0.0518,0.0518,1,26,188,153,1,fiveseven,,,,,,,,,,,,,,,,,,,,,,,,,,,,,,,,,,,,,,,,,,,,,,,,,,,,,,,,,,,,,,,,,,,,,,,,,,,,,,,,,,,,,,,,,,,,,,,,,,,,,,,,,,,,,,,,,,,,,,,,,,,,,,,,,,,,,,,,,
,,5dafea4de40355001651fa2f,2026-03-17_11h22.55.975,kallum_motion_pilot_GIST_update_2,2026.1.1,Win32,60.24096386,5dafea4de40355001651fa2f,69b92ab4aef6dee357cd729a,69b92b4b4133346bb632ec14,0.0519,0.0519,1,27,189,126,1,eightsix,,,,,,,,,,,,,,,,,,,,,,,,,,,,,,,,,,,,,,,,,,,,,,,,,,,,,,,,,,,,,,,,,,,,,,,,,,,,,,,,,,,,,,,,,,,,,,,,,,,,,,,,,,,,,,,,,,,,,,,,,,,,,,,,,,,,,,,,,
,,5dafea4de40355001651fa2f,2026-03-17_11h22.55.975,kallum_motion_pilot_GIST_update_2,2026.1.1,Win32,60.24096386,5dafea4de40355001651fa2f,69b92ab4aef6dee357cd729a,69b92b4b4133346bb632ec14,0.052,0.052,1,28,190,70,1,fourtwo,,,,,,,,,,,,,,,,,,,,,,,,,,,,,,,,,,,,,,,,,,,,,,,,,,,,,,,,,,,,,,,,,,,,,,,,,,,,,,,,,,,,,,,,,,,,,,,,,,,,,,,,,,,,,,,,,,,,,,,,,,,,,,,,,,,,,,,,,
,,5dafea4de40355001651fa2f,2026-03-17_11h22.55.975,kallum_motion_pilot_GIST_update_2,2026.1.1,Win32,60.24096386,5dafea4de40355001651fa2f,69b92ab4aef6dee357cd729a,69b92b4b4133346bb632ec14,0.0522,0.0522,1,29,191,31,1,fourthree,,,,,,,,,,,,,,,,,,,,,,,,,,,,,,,,,,,,,,,,,,,,,,,,,,,,,,,,,,,,,,,,,,,,,,,,,,,,,,,,,,,,,,,,,,,,,,,,,,,,,,,,,,,,,,,,,,,,,,,,,,,,,,,,,,,,,,,,,
,,5dafea4de40355001651fa2f,2026-03-17_11h22.55.975,kallum_motion_pilot_GIST_update_2,2026.1.1,Win32,60.24096386,5dafea4de40355001651fa2f,69b92ab4aef6dee357cd729a,69b92b4b4133346bb632ec14,0.0524,0.0524,1,30,192,28,1,threeone,,,,,,,,,,,,,,,,,,,,,,,,,,,,,,,,,,,,,,,,,,,,,,,,,,,,,,,,,,,,,,,,,,,,,,,,,,,,,,,,,,,,,,,,,,,,,,,,,,,,,,,,,,,,,,,,,,,,,,,,,,,,,,,,,,,,,,,,,
,,5dafea4de40355001651fa2f,2026-03-17_11h22.55.975,kallum_motion_pilot_GIST_update_2,2026.1.1,Win32,60.24096386,5dafea4de40355001651fa2f,69b92ab4aef6dee357cd729a,69b92b4b4133346bb632ec14,0.0526,0.0526,1,31,193,137,1,fiveseven,,,,,,,,,,,,,,,,,,,,,,,,,,,,,,,,,,,,,,,,,,,,,,,,,,,,,,,,,,,,,,,,,,,,,,,,,,,,,,,,,,,,,,,,,,,,,,,,,,,,,,,,,,,,,,,,,,,,,,,,,,,,,,,,,,,,,,,,,
,,5dafea4de40355001651fa2f,2026-03-17_11h22.55.975,kallum_motion_pilot_GIST_update_2,2026.1.1,Win32,60.24096386,5dafea4de40355001651fa2f,69b92ab4aef6dee357cd729a,69b92b4b4133346bb632ec14,0.0527,0.0527,1,32,194,55,1,fourthree,,,,,,,,,,,,,,,,,,,,,,,,,,,,,,,,,,,,,,,,,,,,,,,,,,,,,,,,,,,,,,,,,,,,,,,,,,,,,,,,,,,,,,,,,,,,,,,,,,,,,,,,,,,,,,,,,,,,,,,,,,,,,,,,,,,,,,,,,
,,5dafea4de40355001651fa2f,2026-03-17_11h22.55.975,kallum_motion_pilot_GIST_update_2,2026.1.1,Win32,60.24096386,5dafea4de40355001651fa2f,69b92ab4aef6dee357cd729a,69b92b4b4133346bb632ec14,0.0528,0.0528,1,33,195,101,1,seveneight,,,,,,,,,,,,,,,,,,,,,,,,,,,,,,,,,,,,,,,,,,,,,,,,,,,,,,,,,,,,,,,,,,,,,,,,,,,,,,,,,,,,,,,,,,,,,,,,,,,,,,,,,,,,,,,,,,,,,,,,,,,,,,,,,,,,,,,,,
,,5dafea4de40355001651fa2f,2026-03-17_11h22.55.975,kallum_motion_pilot_GIST_update_2,2026.1.1,Win32,60.24096386,5dafea4de40355001651fa2f,69b92ab4aef6dee357cd729a,69b92b4b4133346bb632ec14,0.053,0.053,1,34,196,80,1,fivesix,,,,,,,,,,,,,,,,,,,,,,,,,,,,,,,,,,,,,,,,,,,,,,,,,,,,,,,,,,,,,,,,,,,,,,,,,,,,,,,,,,,,,,,,,,,,,,,,,,,,,,,,,,,,,,,,,,,,,,,,,,,,,,,,,,,,,,,,,
,,5dafea4de40355001651fa2f,2026-03-17_11h22.55.975,kallum_motion_pilot_GIST_update_2,2026.1.1,Win32,60.24096386,5dafea4de40355001651fa2f,69b92ab4aef6dee357cd729a,69b92b4b4133346bb632ec14,0.0532,0.0532,1,35,197,24,1,onetwo,,,,,,,,,,,,,,,,,,,,,,,,,,,,,,,,,,,,,,,,,,,,,,,,,,,,,,,,,,,,,,,,,,,,,,,,,,,,,,,,,,,,,,,,,,,,,,,,,,,,,,,,,,,,,,,,,,,,,,,,,,,,,,,,,,,,,,,,,
,,5dafea4de40355001651fa2f,2026-03-17_11h22.55.975,kallum_motion_pilot_GIST_update_2,2026.1.1,Win32,60.24096386,5dafea4de40355001651fa2f,69b92ab4aef6dee357cd729a,69b92b4b4133346bb632ec14,0.0534,0.0534,1,36,198,92,1,sevenfive,,,,,,,,,,,,,,,,,,,,,,,,,,,,,,,,,,,,,,,,,,,,,,,,,,,,,,,,,,,,,,,,,,,,,,,,,,,,,,,,,,,,,,,,,,,,,,,,,,,,,,,,,,,,,,,,,,,,,,,,,,,,,,,,,,,,,,,,,
,,5dafea4de40355001651fa2f,2026-03-17_11h22.55.975,kallum_motion_pilot_GIST_update_2,2026.1.1,Win32,60.24096386,5dafea4de40355001651fa2f,69b92ab4aef6dee357cd729a,69b92b4b4133346bb632ec14,0.0535,0.0535,1,37,199,15,1,fourthree,,,,,,,,,,,,,,,,,,,,,,,,,,,,,,,,,,,,,,,,,,,,,,,,,,,,,,,,,,,,,,,,,,,,,,,,,,,,,,,,,,,,,,,,,,,,,,,,,,,,,,,,,,,,,,,,,,,,,,,,,,,,,,,,,,,,,,,,,
,,5dafea4de40355001651fa2f,2026-03-17_11h22.55.975,kallum_motion_pilot_GIST_update_2,2026.1.1,Win32,60.24096386,5dafea4de40355001651fa2f,69b92ab4aef6dee357cd729a,69b92b4b4133346bb632ec14,0.0537,0.0537,1,38,200,36,1,threeone,,,,,,,,,,,,,,,,,,,,,,,,,,,,,,,,,,,,,,,,,,,,,,,,,,,,,,,,,,,,,,,,,,,,,,,,,,,,,,,,,,,,,,,,,,,,,,,,,,,,,,,,,,,,,,,,,,,,,,,,,,,,,,,,,,,,,,,,,
,,5dafea4de40355001651fa2f,2026-03-17_11h22.55.975,kallum_motion_pilot_GIST_update_2,2026.1.1,Win32,60.24096386,5dafea4de40355001651fa2f,69b92ab4aef6dee357cd729a,69b92b4b4133346bb632ec14,0.0538,0.0538,1,39,201,125,1,seveneight,,,,,,,,,,,,,,,,,,,,,,,,,,,,,,,,,,,,,,,,,,,,,,,,,,,,,,,,,,,,,,,,,,,,,,,,,,,,,,,,,,,,,,,,,,,,,,,,,,,,,,,,,,,,,,,,,,,,,,,,,,,,,,,,,,,,,,,,,
,,5dafea4de40355001651fa2f,2026-03-17_11h22.55.975,kallum_motion_pilot_GIST_update_2,2026.1.1,Win32,60.24096386,5dafea4de40355001651fa2f,69b92ab4aef6dee357cd729a,69b92b4b4133346bb632ec14,0.054,0.054,1,40,202,103,1,eightseven,,,,,,,,,,,,,,,,,,,,,,,,,,,,,,,,,,,,,,,,,,,,,,,,,,,,,,,,,,,,,,,,,,,,,,,,,,,,,,,,,,,,,,,,,,,,,,,,,,,,,,,,,,,,,,,,,,,,,,,,,,,,,,,,,,,,,,,,,
,,5dafea4de40355001651fa2f,2026-03-17_11h22.55.975,kallum_motion_pilot_GIST_update_2,2026.1.1,Win32,60.24096386,5dafea4de40355001651fa2f,69b92ab4aef6dee357cd729a,69b92b4b4133346bb632ec14,0.0542,0.0542,1,41,203,0,1,onetwo,,,,,,,,,,,,,,,,,,,,,,,,,,,,,,,,,,,,,,,,,,,,,,,,,,,,,,,,,,,,,,,,,,,,,,,,,,,,,,,,,,,,,,,,,,,,,,,,,,,,,,,,,,,,,,,,,,,,,,,,,,,,,,,,,,,,,,,,,
,,5dafea4de40355001651fa2f,2026-03-17_11h22.55.975,kallum_motion_pilot_GIST_update_2,2026.1.1,Win32,60.24096386,5dafea4de40355001651fa2f,69b92ab4aef6dee357cd729a,69b92b4b4133346bb632ec14,0.0546,0.0546,1,42,204,87,1,eightseven,,,,,,,,,,,,,,,,,,,,,,,,,,,,,,,,,,,,,,,,,,,,,,,,,,,,,,,,,,,,,,,,,,,,,,,,,,,,,,,,,,,,,,,,,,,,,,,,,,,,,,,,,,,,,,,,,,,,,,,,,,,,,,,,,,,,,,,,,
,,5dafea4de40355001651fa2f,2026-03-17_11h22.55.975,kallum_motion_pilot_GIST_update_2,2026.1.1,Win32,60.24096386,5dafea4de40355001651fa2f,69b92ab4aef6dee357cd729a,69b92b4b4133346bb632ec14,0.0548,0.0548,1,43,205,106,1,sixfive,,,,,,,,,,,,,,,,,,,,,,,,,,,,,,,,,,,,,,,,,,,,,,,,,,,,,,,,,,,,,,,,,,,,,,,,,,,,,,,,,,,,,,,,,,,,,,,,,,,,,,,,,,,,,,,,,,,,,,,,,,,,,,,,,,,,,,,,,
,,5dafea4de40355001651fa2f,2026-03-17_11h22.55.975,kallum_motion_pilot_GIST_update_2,2026.1.1,Win32,60.24096386,5dafea4de40355001651fa2f,69b92ab4aef6dee357cd729a,69b92b4b4133346bb632ec14,0.0549,0.0549,1,44,206,109,1,seveneight,,,,,,,,,,,,,,,,,,,,,,,,,,,,,,,,,,,,,,,,,,,,,,,,,,,,,,,,,,,,,,,,,,,,,,,,,,,,,,,,,,,,,,,,,,,,,,,,,,,,,,,,,,,,,,,,,,,,,,,,,,,,,,,,,,,,,,,,,
,,5dafea4de40355001651fa2f,2026-03-17_11h22.55.975,kallum_motion_pilot_GIST_update_2,2026.1.1,Win32,60.24096386,5dafea4de40355001651fa2f,69b92ab4aef6dee357cd729a,69b92b4b4133346bb632ec14,0.0551,0.0551,1,45,207,5,1,threefour,,,,,,,,,,,,,,,,,,,,,,,,,,,,,,,,,,,,,,,,,,,,,,,,,,,,,,,,,,,,,,,,,,,,,,,,,,,,,,,,,,,,,,,,,,,,,,,,,,,,,,,,,,,,,,,,,,,,,,,,,,,,,,,,,,,,,,,,,
,,5dafea4de40355001651fa2f,2026-03-17_11h22.55.975,kallum_motion_pilot_GIST_update_2,2026.1.1,Win32,60.24096386,5dafea4de40355001651fa2f,69b92ab4aef6dee357cd729a,69b92b4b4133346bb632ec14,0.0553,0.0553,1,46,208,10,1,twoone,,,,,,,,,,,,,,,,,,,,,,,,,,,,,,,,,,,,,,,,,,,,,,,,,,,,,,,,,,,,,,,,,,,,,,,,,,,,,,,,,,,,,,,,,,,,,,,,,,,,,,,,,,,,,,,,,,,,,,,,,,,,,,,,,,,,,,,,,
,,5dafea4de40355001651fa2f,2026-03-17_11h22.55.975,kallum_motion_pilot_GIST_update_2,2026.1.1,Win32,60.24096386,5dafea4de40355001651fa2f,69b92ab4aef6dee357cd729a,69b92b4b4133346bb632ec14,0.0554,0.0554,1,47,209,147,1,sixeight,,,,,,,,,,,,,,,,,,,,,,,,,,,,,,,,,,,,,,,,,,,,,,,,,,,,,,,,,,,,,,,,,,,,,,,,,,,,,,,,,,,,,,,,,,,,,,,,,,,,,,,,,,,,,,,,,,,,,,,,,,,,,,,,,,,,,,,,,
,,5dafea4de40355001651fa2f,2026-03-17_11h22.55.975,kallum_motion_pilot_GIST_update_2,2026.1.1,Win32,60.24096386,5dafea4de40355001651fa2f,69b92ab4aef6dee357cd729a,69b92b4b4133346bb632ec14,0.0556,0.0556,1,48,210,95,1,eightseven,,,,,,,,,,,,,,,,,,,,,,,,,,,,,,,,,,,,,,,,,,,,,,,,,,,,,,,,,,,,,,,,,,,,,,,,,,,,,,,,,,,,,,,,,,,,,,,,,,,,,,,,,,,,,,,,,,,,,,,,,,,,,,,,,,,,,,,,,
,,5dafea4de40355001651fa2f,2026-03-17_11h22.55.975,kallum_motion_pilot_GIST_update_2,2026.1.1,Win32,60.24096386,5dafea4de40355001651fa2f,69b92ab4aef6dee357cd729a,69b92b4b4133346bb632ec14,0.0558,0.0558,1,49,211,67,1,twofour,,,,,,,,,,,,,,,,,,,,,,,,,,,,,,,,,,,,,,,,,,,,,,,,,,,,,,,,,,,,,,,,,,,,,,,,,,,,,,,,,,,,,,,,,,,,,,,,,,,,,,,,,,,,,,,,,,,,,,,,,,,,,,,,,,,,,,,,,
,,5dafea4de40355001651fa2f,2026-03-17_11h22.55.975,kallum_motion_pilot_GIST_update_2,2026.1.1,Win32,60.24096386,5dafea4de40355001651fa2f,69b92ab4aef6dee357cd729a,69b92b4b4133346bb632ec14,0.056,0.056,1,50,212,156,1,sevenfive,,,,,,,,,,,,,,,,,,,,,,,,,,,,,,,,,,,,,,,,,,,,,,,,,,,,,,,,,,,,,,,,,,,,,,,,,,,,,,,,,,,,,,,,,,,,,,,,,,,,,,,,,,,,,,,,,,,,,,,,,,,,,,,,,,,,,,,,,
,,5dafea4de40355001651fa2f,2026-03-17_11h22.55.975,kallum_motion_pilot_GIST_update_2,2026.1.1,Win32,60.24096386,5dafea4de40355001651fa2f,69b92ab4aef6dee357cd729a,69b92b4b4133346bb632ec14,0.0561,0.0561,1,51,213,60,1,threeone,,,,,,,,,,,,,,,,,,,,,,,,,,,,,,,,,,,,,,,,,,,,,,,,,,,,,,,,,,,,,,,,,,,,,,,,,,,,,,,,,,,,,,,,,,,,,,,,,,,,,,,,,,,,,,,,,,,,,,,,,,,,,,,,,,,,,,,,,
,,5dafea4de40355001651fa2f,2026-03-17_11h22.55.975,kallum_motion_pilot_GIST_update_2,2026.1.1,Win32,60.24096386,5dafea4de40355001651fa2f,69b92ab4aef6dee357cd729a,69b92b4b4133346bb632ec14,0.0562,0.0562,1,52,214,62,1,fourtwo,,,,,,,,,,,,,,,,,,,,,,,,,,,,,,,,,,,,,,,,,,,,,,,,,,,,,,,,,,,,,,,,,,,,,,,,,,,,,,,,,,,,,,,,,,,,,,,,,,,,,,,,,,,,,,,,,,,,,,,,,,,,,,,,,,,,,,,,,
,,5dafea4de40355001651fa2f,2026-03-17_11h22.55.975,kallum_motion_pilot_GIST_update_2,2026.1.1,Win32,60.24096386,5dafea4de40355001651fa2f,69b92ab4aef6dee357cd729a,69b92b4b4133346bb632ec14,0.0564,0.0564,1,53,215,69,1,threefour,,,,,,,,,,,,,,,,,,,,,,,,,,,,,,,,,,,,,,,,,,,,,,,,,,,,,,,,,,,,,,,,,,,,,,,,,,,,,,,,,,,,,,,,,,,,,,,,,,,,,,,,,,,,,,,,,,,,,,,,,,,,,,,,,,,,,,,,,
,,5dafea4de40355001651fa2f,2026-03-17_11h22.55.975,kallum_motion_pilot_GIST_update_2,2026.1.1,Win32,60.24096386,5dafea4de40355001651fa2f,69b92ab4aef6dee357cd729a,69b92b4b4133346bb632ec14,0.0564,0.0564,1,54,216,47,1,fourthree,,,,,,,,,,,,,,,,,,,,,,,,,,,,,,,,,,,,,,,,,,,,,,,,,,,,,,,,,,,,,,,,,,,,,,,,,,,,,,,,,,,,,,,,,,,,,,,,,,,,,,,,,,,,,,,,,,,,,,,,,,,,,,,,,,,,,,,,,
,,5dafea4de40355001651fa2f,2026-03-17_11h22.55.975,kallum_motion_pilot_GIST_update_2,2026.1.1,Win32,60.24096386,5dafea4de40355001651fa2f,69b92ab4aef6dee357cd729a,69b92b4b4133346bb632ec14,0.0566,0.0566,1,55,217,160,1,fivesix,,,,,,,,,,,,,,,,,,,,,,,,,,,,,,,,,,,,,,,,,,,,,,,,,,,,,,,,,,,,,,,,,,,,,,,,,,,,,,,,,,,,,,,,,,,,,,,,,,,,,,,,,,,,,,,,,,,,,,,,,,,,,,,,,,,,,,,,,
,,5dafea4de40355001651fa2f,2026-03-17_11h22.55.975,kallum_motion_pilot_GIST_update_2,2026.1.1,Win32,60.24096386,5dafea4de40355001651fa2f,69b92ab4aef6dee357cd729a,69b92b4b4133346bb632ec14,0.0568,0.0568,1,56,218,157,1,seveneight,,,,,,,,,,,,,,,,,,,,,,,,,,,,,,,,,,,,,,,,,,,,,,,,,,,,,,,,,,,,,,,,,,,,,,,,,,,,,,,,,,,,,,,,,,,,,,,,,,,,,,,,,,,,,,,,,,,,,,,,,,,,,,,,,,,,,,,,,
,,5dafea4de40355001651fa2f,2026-03-17_11h22.55.975,kallum_motion_pilot_GIST_update_2,2026.1.1,Win32,60.24096386,5dafea4de40355001651fa2f,69b92ab4aef6dee357cd729a,69b92b4b4133346bb632ec14,0.0568,0.0568,1,57,219,54,1,fourtwo,,,,,,,,,,,,,,,,,,,,,,,,,,,,,,,,,,,,,,,,,,,,,,,,,,,,,,,,,,,,,,,,,,,,,,,,,,,,,,,,,,,,,,,,,,,,,,,,,,,,,,,,,,,,,,,,,,,,,,,,,,,,,,,,,,,,,,,,,
,,5dafea4de40355001651fa2f,2026-03-17_11h22.55.975,kallum_motion_pilot_GIST_update_2,2026.1.1,Win32,60.24096386,5dafea4de40355001651fa2f,69b92ab4aef6dee357cd729a,69b92b4b4133346bb632ec14,0.057,0.057,1,58,220,112,1,fivesix,,,,,,,,,,,,,,,,,,,,,,,,,,,,,,,,,,,,,,,,,,,,,,,,,,,,,,,,,,,,,,,,,,,,,,,,,,,,,,,,,,,,,,,,,,,,,,,,,,,,,,,,,,,,,,,,,,,,,,,,,,,,,,,,,,,,,,,,,
,,5dafea4de40355001651fa2f,2026-03-17_11h22.55.975,kallum_motion_pilot_GIST_update_2,2026.1.1,Win32,60.24096386,5dafea4de40355001651fa2f,69b92ab4aef6dee357cd729a,69b92b4b4133346bb632ec14,0.0571,0.0571,1,59,221,6,1,fourtwo,,,,,,,,,,,,,,,,,,,,,,,,,,,,,,,,,,,,,,,,,,,,,,,,,,,,,,,,,,,,,,,,,,,,,,,,,,,,,,,,,,,,,,,,,,,,,,,,,,,,,,,,,,,,,,,,,,,,,,,,,,,,,,,,,,,,,,,,,
,,5dafea4de40355001651fa2f,2026-03-17_11h22.55.975,kallum_motion_pilot_GIST_update_2,2026.1.1,Win32,60.24096386,5dafea4de40355001651fa2f,69b92ab4aef6dee357cd729a,69b92b4b4133346bb632ec14,0.0573,0.0573,1,60,222,50,1,twoone,,,,,,,,,,,,,,,,,,,,,,,,,,,,,,,,,,,,,,,,,,,,,,,,,,,,,,,,,,,,,,,,,,,,,,,,,,,,,,,,,,,,,,,,,,,,,,,,,,,,,,,,,,,,,,,,,,,,,,,,,,,,,,,,,,,,,,,,,
,,5dafea4de40355001651fa2f,2026-03-17_11h22.55.975,kallum_motion_pilot_GIST_update_2,2026.1.1,Win32,60.24096386,5dafea4de40355001651fa2f,69b92ab4aef6dee357cd729a,69b92b4b4133346bb632ec14,0.0574,0.0574,1,61,223,154,1,sixfive,,,,,,,,,,,,,,,,,,,,,,,,,,,,,,,,,,,,,,,,,,,,,,,,,,,,,,,,,,,,,,,,,,,,,,,,,,,,,,,,,,,,,,,,,,,,,,,,,,,,,,,,,,,,,,,,,,,,,,,,,,,,,,,,,,,,,,,,,
,,5dafea4de40355001651fa2f,2026-03-17_11h22.55.975,kallum_motion_pilot_GIST_update_2,2026.1.1,Win32,60.24096386,5dafea4de40355001651fa2f,69b92ab4aef6dee357cd729a,69b92b4b4133346bb632ec14,0.0575,0.0575,1,62,224,44,1,threeone,,,,,,,,,,,,,,,,,,,,,,,,,,,,,,,,,,,,,,,,,,,,,,,,,,,,,,,,,,,,,,,,,,,,,,,,,,,,,,,,,,,,,,,,,,,,,,,,,,,,,,,,,,,,,,,,,,,,,,,,,,,,,,,,,,,,,,,,,
,,5dafea4de40355001651fa2f,2026-03-17_11h22.55.975,kallum_motion_pilot_GIST_update_2,2026.1.1,Win32,60.24096386,5dafea4de40355001651fa2f,69b92ab4aef6dee357cd729a,69b92b4b4133346bb632ec14,0.0576,0.0576,1,63,225,104,1,fivesix,,,,,,,,,,,,,,,,,,,,,,,,,,,,,,,,,,,,,,,,,,,,,,,,,,,,,,,,,,,,,,,,,,,,,,,,,,,,,,,,,,,,,,,,,,,,,,,,,,,,,,,,,,,,,,,,,,,,,,,,,,,,,,,,,,,,,,,,,
,,5dafea4de40355001651fa2f,2026-03-17_11h22.55.975,kallum_motion_pilot_GIST_update_2,2026.1.1,Win32,60.24096386,5dafea4de40355001651fa2f,69b92ab4aef6dee357cd729a,69b92b4b4133346bb632ec14,0.0578,0.0578,1,64,226,81,1,fiveseven,,,,,,,,,,,,,,,,,,,,,,,,,,,,,,,,,,,,,,,,,,,,,,,,,,,,,,,,,,,,,,,,,,,,,,,,,,,,,,,,,,,,,,,,,,,,,,,,,,,,,,,,,,,,,,,,,,,,,,,,,,,,,,,,,,,,,,,,,
,,5dafea4de40355001651fa2f,2026-03-17_11h22.55.975,kallum_motion_pilot_GIST_update_2,2026.1.1,Win32,60.24096386,5dafea4de40355001651fa2f,69b92ab4aef6dee357cd729a,69b92b4b4133346bb632ec14,0.0579,0.0579,1,65,227,123,1,sixeight,,,,,,,,,,,,,,,,,,,,,,,,,,,,,,,,,,,,,,,,,,,,,,,,,,,,,,,,,,,,,,,,,,,,,,,,,,,,,,,,,,,,,,,,,,,,,,,,,,,,,,,,,,,,,,,,,,,,,,,,,,,,,,,,,,,,,,,,,
,,5dafea4de40355001651fa2f,2026-03-17_11h22.55.975,kallum_motion_pilot_GIST_update_2,2026.1.1,Win32,60.24096386,5dafea4de40355001651fa2f,69b92ab4aef6dee357cd729a,69b92b4b4133346bb632ec14,0.0581,0.0581,1,66,228,146,1,sixfive,,,,,,,,,,,,,,,,,,,,,,,,,,,,,,,,,,,,,,,,,,,,,,,,,,,,,,,,,,,,,,,,,,,,,,,,,,,,,,,,,,,,,,,,,,,,,,,,,,,,,,,,,,,,,,,,,,,,,,,,,,,,,,,,,,,,,,,,,
,,5dafea4de40355001651fa2f,2026-03-17_11h22.55.975,kallum_motion_pilot_GIST_update_2,2026.1.1,Win32,60.24096386,5dafea4de40355001651fa2f,69b92ab4aef6dee357cd729a,69b92b4b4133346bb632ec14,0.0582,0.0582,1,67,229,58,1,twoone,,,,,,,,,,,,,,,,,,,,,,,,,,,,,,,,,,,,,,,,,,,,,,,,,,,,,,,,,,,,,,,,,,,,,,,,,,,,,,,,,,,,,,,,,,,,,,,,,,,,,,,,,,,,,,,,,,,,,,,,,,,,,,,,,,,,,,,,,
,,5dafea4de40355001651fa2f,2026-03-17_11h22.55.975,kallum_motion_pilot_GIST_update_2,2026.1.1,Win32,60.24096386,5dafea4de40355001651fa2f,69b92ab4aef6dee357cd729a,69b92b4b4133346bb632ec14,0.0583,0.0583,1,68,230,128,1,fivesix,,,,,,,,,,,,,,,,,,,,,,,,,,,,,,,,,,,,,,,,,,,,,,,,,,,,,,,,,,,,,,,,,,,,,,,,,,,,,,,,,,,,,,,,,,,,,,,,,,,,,,,,,,,,,,,,,,,,,,,,,,,,,,,,,,,,,,,,,
,,5dafea4de40355001651fa2f,2026-03-17_11h22.55.975,kallum_motion_pilot_GIST_update_2,2026.1.1,Win32,60.24096386,5dafea4de40355001651fa2f,69b92ab4aef6dee357cd729a,69b92b4b4133346bb632ec14,0.0585,0.0585,1,69,231,20,1,threeone,,,,,,,,,,,,,,,,,,,,,,,,,,,,,,,,,,,,,,,,,,,,,,,,,,,,,,,,,,,,,,,,,,,,,,,,,,,,,,,,,,,,,,,,,,,,,,,,,,,,,,,,,,,,,,,,,,,,,,,,,,,,,,,,,,,,,,,,,
,,5dafea4de40355001651fa2f,2026-03-17_11h22.55.975,kallum_motion_pilot_GIST_update_2,2026.1.1,Win32,60.24096386,5dafea4de40355001651fa2f,69b92ab4aef6dee357cd729a,69b92b4b4133346bb632ec14,0.0586,0.0586,1,70,232,142,1,eightsix,,,,,,,,,,,,,,,,,,,,,,,,,,,,,,,,,,,,,,,,,,,,,,,,,,,,,,,,,,,,,,,,,,,,,,,,,,,,,,,,,,,,,,,,,,,,,,,,,,,,,,,,,,,,,,,,,,,,,,,,,,,,,,,,,,,,,,,,,
,,5dafea4de40355001651fa2f,2026-03-17_11h22.55.975,kallum_motion_pilot_GIST_update_2,2026.1.1,Win32,60.24096386,5dafea4de40355001651fa2f,69b92ab4aef6dee357cd729a,69b92b4b4133346bb632ec14,0.0587,0.0587,1,71,233,98,1,sixfive,,,,,,,,,,,,,,,,,,,,,,,,,,,,,,,,,,,,,,,,,,,,,,,,,,,,,,,,,,,,,,,,,,,,,,,,,,,,,,,,,,,,,,,,,,,,,,,,,,,,,,,,,,,,,,,,,,,,,,,,,,,,,,,,,,,,,,,,,
,,5dafea4de40355001651fa2f,2026-03-17_11h22.55.975,kallum_motion_pilot_GIST_update_2,2026.1.1,Win32,60.24096386,5dafea4de40355001651fa2f,69b92ab4aef6dee357cd729a,69b92b4b4133346bb632ec14,0.0589,0.0589,1,72,234,91,1,sixeight,,,,,,,,,,,,,,,,,,,,,,,,,,,,,,,,,,,,,,,,,,,,,,,,,,,,,,,,,,,,,,,,,,,,,,,,,,,,,,,,,,,,,,,,,,,,,,,,,,,,,,,,,,,,,,,,,,,,,,,,,,,,,,,,,,,,,,,,,
,,5dafea4de40355001651fa2f,2026-03-17_11h22.55.975,kallum_motion_pilot_GIST_update_2,2026.1.1,Win32,60.24096386,5dafea4de40355001651fa2f,69b92ab4aef6dee357cd729a,69b92b4b4133346bb632ec14,0.059,0.059,1,73,235,53,1,threefour,,,,,,,,,,,,,,,,,,,,,,,,,,,,,,,,,,,,,,,,,,,,,,,,,,,,,,,,,,,,,,,,,,,,,,,,,,,,,,,,,,,,,,,,,,,,,,,,,,,,,,,,,,,,,,,,,,,,,,,,,,,,,,,,,,,,,,,,,
,,5dafea4de40355001651fa2f,2026-03-17_11h22.55.975,kallum_motion_pilot_GIST_update_2,2026.1.1,Win32,60.24096386,5dafea4de40355001651fa2f,69b92ab4aef6dee357cd729a,69b92b4b4133346bb632ec14,0.0591,0.0591,1,74,236,7,1,fourthree,,,,,,,,,,,,,,,,,,,,,,,,,,,,,,,,,,,,,,,,,,,,,,,,,,,,,,,,,,,,,,,,,,,,,,,,,,,,,,,,,,,,,,,,,,,,,,,,,,,,,,,,,,,,,,,,,,,,,,,,,,,,,,,,,,,,,,,,,
,,5dafea4de40355001651fa2f,2026-03-17_11h22.55.975,kallum_motion_pilot_GIST_update_2,2026.1.1,Win32,60.24096386,5dafea4de40355001651fa2f,69b92ab4aef6dee357cd729a,69b92b4b4133346bb632ec14,0.0592,0.0592,1,75,237,30,1,fourtwo,,,,,,,,,,,,,,,,,,,,,,,,,,,,,,,,,,,,,,,,,,,,,,,,,,,,,,,,,,,,,,,,,,,,,,,,,,,,,,,,,,,,,,,,,,,,,,,,,,,,,,,,,,,,,,,,,,,,,,,,,,,,,,,,,,,,,,,,,
,,5dafea4de40355001651fa2f,2026-03-17_11h22.55.975,kallum_motion_pilot_GIST_update_2,2026.1.1,Win32,60.24096386,5dafea4de40355001651fa2f,69b92ab4aef6dee357cd729a,69b92b4b4133346bb632ec14,0.0593,0.0593,1,76,238,139,1,sixeight,,,,,,,,,,,,,,,,,,,,,,,,,,,,,,,,,,,,,,,,,,,,,,,,,,,,,,,,,,,,,,,,,,,,,,,,,,,,,,,,,,,,,,,,,,,,,,,,,,,,,,,,,,,,,,,,,,,,,,,,,,,,,,,,,,,,,,,,,
,,5dafea4de40355001651fa2f,2026-03-17_11h22.55.975,kallum_motion_pilot_GIST_update_2,2026.1.1,Win32,60.24096386,5dafea4de40355001651fa2f,69b92ab4aef6dee357cd729a,69b92b4b4133346bb632ec14,0.0594,0.0594,1,77,239,113,1,fiveseven,,,,,,,,,,,,,,,,,,,,,,,,,,,,,,,,,,,,,,,,,,,,,,,,,,,,,,,,,,,,,,,,,,,,,,,,,,,,,,,,,,,,,,,,,,,,,,,,,,,,,,,,,,,,,,,,,,,,,,,,,,,,,,,,,,,,,,,,,
,,5dafea4de40355001651fa2f,2026-03-17_11h22.55.975,kallum_motion_pilot_GIST_update_2,2026.1.1,Win32,60.24096386,5dafea4de40355001651fa2f,69b92ab4aef6dee357cd729a,69b92b4b4133346bb632ec14,0.0595,0.0596,1,78,240,144,1,fivesix,,,,,,,,,,,,,,,,,,,,,,,,,,,,,,,,,,,,,,,,,,,,,,,,,,,,,,,,,,,,,,,,,,,,,,,,,,,,,,,,,,,,,,,,,,,,,,,,,,,,,,,,,,,,,,,,,,,,,,,,,,,,,,,,,,,,,,,,,
,,5dafea4de40355001651fa2f,2026-03-17_11h22.55.975,kallum_motion_pilot_GIST_update_2,2026.1.1,Win32,60.24096386,5dafea4de40355001651fa2f,69b92ab4aef6dee357cd729a,69b92b4b4133346bb632ec14,0.0597,0.0597,1,79,241,23,1,fourthree,,,,,,,,,,,,,,,,,,,,,,,,,,,,,,,,,,,,,,,,,,,,,,,,,,,,,,,,,,,,,,,,,,,,,,,,,,,,,,,,,,,,,,,,,,,,,,,,,,,,,,,,,,,,,,,,,,,,,,,,,,,,,,,,,,,,,,,,,
,,5dafea4de40355001651fa2f,2026-03-17_11h22.55.975,kallum_motion_pilot_GIST_update_2,2026.1.1,Win32,60.24096386,5dafea4de40355001651fa2f,69b92ab4aef6dee357cd729a,69b92b4b4133346bb632ec14,0.0598,0.0598,1,80,242,57,1,onethree,,,,,,,,,,,,,,,,,,,,,,,,,,,,,,,,,,,,,,,,,,,,,,,,,,,,,,,,,,,,,,,,,,,,,,,,,,,,,,,,,,,,,,,,,,,,,,,,,,,,,,,,,,,,,,,,,,,,,,,,,,,,,,,,,,,,,,,,,
,,5dafea4de40355001651fa2f,2026-03-17_11h22.55.975,kallum_motion_pilot_GIST_update_2,2026.1.1,Win32,60.24096386,5dafea4de40355001651fa2f,69b92ab4aef6dee357cd729a,69b92b4b4133346bb632ec14,0.0599,0.06,1,81,243,115,1,sixeight,,,,,,,,,,,,,,,,,,,,,,,,,,,,,,,,,,,,,,,,,,,,,,,,,,,,,,,,,,,,,,,,,,,,,,,,,,,,,,,,,,,,,,,,,,,,,,,,,,,,,,,,,,,,,,,,,,,,,,,,,,,,,,,,,,,,,,,,,
,,5dafea4de40355001651fa2f,2026-03-17_11h22.55.975,kallum_motion_pilot_GIST_update_2,2026.1.1,Win32,60.24096386,5dafea4de40355001651fa2f,69b92ab4aef6dee357cd729a,69b92b4b4133346bb632ec14,0.0601,0.0601,1,82,244,102,1,eightsix,,,,,,,,,,,,,,,,,,,,,,,,,,,,,,,,,,,,,,,,,,,,,,,,,,,,,,,,,,,,,,,,,,,,,,,,,,,,,,,,,,,,,,,,,,,,,,,,,,,,,,,,,,,,,,,,,,,,,,,,,,,,,,,,,,,,,,,,,
,,5dafea4de40355001651fa2f,2026-03-17_11h22.55.975,kallum_motion_pilot_GIST_update_2,2026.1.1,Win32,60.24096386,5dafea4de40355001651fa2f,69b92ab4aef6dee357cd729a,69b92b4b4133346bb632ec14,0.0602,0.0602,1,83,245,27,1,twofour,,,,,,,,,,,,,,,,,,,,,,,,,,,,,,,,,,,,,,,,,,,,,,,,,,,,,,,,,,,,,,,,,,,,,,,,,,,,,,,,,,,,,,,,,,,,,,,,,,,,,,,,,,,,,,,,,,,,,,,,,,,,,,,,,,,,,,,,,
,,5dafea4de40355001651fa2f,2026-03-17_11h22.55.975,kallum_motion_pilot_GIST_update_2,2026.1.1,Win32,60.24096386,5dafea4de40355001651fa2f,69b92ab4aef6dee357cd729a,69b92b4b4133346bb632ec14,0.0603,0.0603,1,84,246,41,1,onethree,,,,,,,,,,,,,,,,,,,,,,,,,,,,,,,,,,,,,,,,,,,,,,,,,,,,,,,,,,,,,,,,,,,,,,,,,,,,,,,,,,,,,,,,,,,,,,,,,,,,,,,,,,,,,,,,,,,,,,,,,,,,,,,,,,,,,,,,,
,,5dafea4de40355001651fa2f,2026-03-17_11h22.55.975,kallum_motion_pilot_GIST_update_2,2026.1.1,Win32,60.24096386,5dafea4de40355001651fa2f,69b92ab4aef6dee357cd729a,69b92b4b4133346bb632ec14,0.0604,0.0604,1,85,247,22,1,fourtwo,,,,,,,,,,,,,,,,,,,,,,,,,,,,,,,,,,,,,,,,,,,,,,,,,,,,,,,,,,,,,,,,,,,,,,,,,,,,,,,,,,,,,,,,,,,,,,,,,,,,,,,,,,,,,,,,,,,,,,,,,,,,,,,,,,,,,,,,,
,,5dafea4de40355001651fa2f,2026-03-17_11h22.55.975,kallum_motion_pilot_GIST_update_2,2026.1.1,Win32,60.24096386,5dafea4de40355001651fa2f,69b92ab4aef6dee357cd729a,69b92b4b4133346bb632ec14,0.0606,0.0606,1,86,248,9,1,onethree,,,,,,,,,,,,,,,,,,,,,,,,,,,,,,,,,,,,,,,,,,,,,,,,,,,,,,,,,,,,,,,,,,,,,,,,,,,,,,,,,,,,,,,,,,,,,,,,,,,,,,,,,,,,,,,,,,,,,,,,,,,,,,,,,,,,,,,,,
,,5dafea4de40355001651fa2f,2026-03-17_11h22.55.975,kallum_motion_pilot_GIST_update_2,2026.1.1,Win32,60.24096386,5dafea4de40355001651fa2f,69b92ab4aef6dee357cd729a,69b92b4b4133346bb632ec14,0.0607,0.0607,1,87,249,37,1,threefour,,,,,,,,,,,,,,,,,,,,,,,,,,,,,,,,,,,,,,,,,,,,,,,,,,,,,,,,,,,,,,,,,,,,,,,,,,,,,,,,,,,,,,,,,,,,,,,,,,,,,,,,,,,,,,,,,,,,,,,,,,,,,,,,,,,,,,,,,
,,5dafea4de40355001651fa2f,2026-03-17_11h22.55.975,kallum_motion_pilot_GIST_update_2,2026.1.1,Win32,60.24096386,5dafea4de40355001651fa2f,69b92ab4aef6dee357cd729a,69b92b4b4133346bb632ec14,0.0608,0.0608,1,88,250,127,1,eightseven,,,,,,,,,,,,,,,,,,,,,,,,,,,,,,,,,,,,,,,,,,,,,,,,,,,,,,,,,,,,,,,,,,,,,,,,,,,,,,,,,,,,,,,,,,,,,,,,,,,,,,,,,,,,,,,,,,,,,,,,,,,,,,,,,,,,,,,,,
,,5dafea4de40355001651fa2f,2026-03-17_11h22.55.975,kallum_motion_pilot_GIST_update_2,2026.1.1,Win32,60.24096386,5dafea4de40355001651fa2f,69b92ab4aef6dee357cd729a,69b92b4b4133346bb632ec14,0.061,0.061,1,89,251,90,1,sixfive,,,,,,,,,,,,,,,,,,,,,,,,,,,,,,,,,,,,,,,,,,,,,,,,,,,,,,,,,,,,,,,,,,,,,,,,,,,,,,,,,,,,,,,,,,,,,,,,,,,,,,,,,,,,,,,,,,,,,,,,,,,,,,,,,,,,,,,,,
,,5dafea4de40355001651fa2f,2026-03-17_11h22.55.975,kallum_motion_pilot_GIST_update_2,2026.1.1,Win32,60.24096386,5dafea4de40355001651fa2f,69b92ab4aef6dee357cd729a,69b92b4b4133346bb632ec14,0.0611,0.0611,1,90,252,74,1,twoone,,,,,,,,,,,,,,,,,,,,,,,,,,,,,,,,,,,,,,,,,,,,,,,,,,,,,,,,,,,,,,,,,,,,,,,,,,,,,,,,,,,,,,,,,,,,,,,,,,,,,,,,,,,,,,,,,,,,,,,,,,,,,,,,,,,,,,,,,
,,5dafea4de40355001651fa2f,2026-03-17_11h22.55.975,kallum_motion_pilot_GIST_update_2,2026.1.1,Win32,60.24096386,5dafea4de40355001651fa2f,69b92ab4aef6dee357cd729a,69b92b4b4133346bb632ec14,0.0612,0.0612,1,91,253,149,1,seveneight,,,,,,,,,,,,,,,,,,,,,,,,,,,,,,,,,,,,,,,,,,,,,,,,,,,,,,,,,,,,,,,,,,,,,,,,,,,,,,,,,,,,,,,,,,,,,,,,,,,,,,,,,,,,,,,,,,,,,,,,,,,,,,,,,,,,,,,,,
,,5dafea4de40355001651fa2f,2026-03-17_11h22.55.975,kallum_motion_pilot_GIST_update_2,2026.1.1,Win32,60.24096386,5dafea4de40355001651fa2f,69b92ab4aef6dee357cd729a,69b92b4b4133346bb632ec14,0.0614,0.0614,1,92,254,33,1,onethree,,,,,,,,,,,,,,,,,,,,,,,,,,,,,,,,,,,,,,,,,,,,,,,,,,,,,,,,,,,,,,,,,,,,,,,,,,,,,,,,,,,,,,,,,,,,,,,,,,,,,,,,,,,,,,,,,,,,,,,,,,,,,,,,,,,,,,,,,
,,5dafea4de40355001651fa2f,2026-03-17_11h22.55.975,kallum_motion_pilot_GIST_update_2,2026.1.1,Win32,60.24096386,5dafea4de40355001651fa2f,69b92ab4aef6dee357cd729a,69b92b4b4133346bb632ec14,0.0617,0.0617,1,93,255,111,1,eightseven,,,,,,,,,,,,,,,,,,,,,,,,,,,,,,,,,,,,,,,,,,,,,,,,,,,,,,,,,,,,,,,,,,,,,,,,,,,,,,,,,,,,,,,,,,,,,,,,,,,,,,,,,,,,,,,,,,,,,,,,,,,,,,,,,,,,,,,,,
,,5dafea4de40355001651fa2f,2026-03-17_11h22.55.975,kallum_motion_pilot_GIST_update_2,2026.1.1,Win32,60.24096386,5dafea4de40355001651fa2f,69b92ab4aef6dee357cd729a,69b92b4b4133346bb632ec14,0.0618,0.0618,1,94,256,8,1,onetwo,,,,,,,,,,,,,,,,,,,,,,,,,,,,,,,,,,,,,,,,,,,,,,,,,,,,,,,,,,,,,,,,,,,,,,,,,,,,,,,,,,,,,,,,,,,,,,,,,,,,,,,,,,,,,,,,,,,,,,,,,,,,,,,,,,,,,,,,,
,,5dafea4de40355001651fa2f,2026-03-17_11h22.55.975,kallum_motion_pilot_GIST_update_2,2026.1.1,Win32,60.24096386,5dafea4de40355001651fa2f,69b92ab4aef6dee357cd729a,69b92b4b4133346bb632ec14,0.0619,0.0619,1,95,257,131,1,sixeight,,,,,,,,,,,,,,,,,,,,,,,,,,,,,,,,,,,,,,,,,,,,,,,,,,,,,,,,,,,,,,,,,,,,,,,,,,,,,,,,,,,,,,,,,,,,,,,,,,,,,,,,,,,,,,,,,,,,,,,,,,,,,,,,,,,,,,,,,
,,5dafea4de40355001651fa2f,2026-03-17_11h22.55.975,kallum_motion_pilot_GIST_update_2,2026.1.1,Win32,60.24096386,5dafea4de40355001651fa2f,69b92ab4aef6dee357cd729a,69b92b4b4133346bb632ec14,0.062,0.062,1,96,258,17,1,onethree,,,,,,,,,,,,,,,,,,,,,,,,,,,,,,,,,,,,,,,,,,,,,,,,,,,,,,,,,,,,,,,,,,,,,,,,,,,,,,,,,,,,,,,,,,,,,,,,,,,,,,,,,,,,,,,,,,,,,,,,,,,,,,,,,,,,,,,,,
,,5dafea4de40355001651fa2f,2026-03-17_11h22.55.975,kallum_motion_pilot_GIST_update_2,2026.1.1,Win32,60.24096386,5dafea4de40355001651fa2f,69b92ab4aef6dee357cd729a,69b92b4b4133346bb632ec14,0.0622,0.0622,1,97,259,72,1,onetwo,,,,,,,,,,,,,,,,,,,,,,,,,,,,,,,,,,,,,,,,,,,,,,,,,,,,,,,,,,,,,,,,,,,,,,,,,,,,,,,,,,,,,,,,,,,,,,,,,,,,,,,,,,,,,,,,,,,,,,,,,,,,,,,,,,,,,,,,,
,,5dafea4de40355001651fa2f,2026-03-17_11h22.55.975,kallum_motion_pilot_GIST_update_2,2026.1.1,Win32,60.24096386,5dafea4de40355001651fa2f,69b92ab4aef6dee357cd729a,69b92b4b4133346bb632ec14,0.0623,0.0623,1,98,260,141,1,seveneight,,,,,,,,,,,,,,,,,,,,,,,,,,,,,,,,,,,,,,,,,,,,,,,,,,,,,,,,,,,,,,,,,,,,,,,,,,,,,,,,,,,,,,,,,,,,,,,,,,,,,,,,,,,,,,,,,,,,,,,,,,,,,,,,,,,,,,,,,
,,5dafea4de40355001651fa2f,2026-03-17_11h22.55.975,kallum_motion_pilot_GIST_update_2,2026.1.1,Win32,60.24096386,5dafea4de40355001651fa2f,69b92ab4aef6dee357cd729a,69b92b4b4133346bb632ec14,0.0625,0.0625,1,99,261,3,1,twofour,,,,,,,,,,,,,,,,,,,,,,,,,,,,,,,,,,,,,,,,,,,,,,,,,,,,,,,,,,,,,,,,,,,,,,,,,,,,,,,,,,,,,,,,,,,,,,,,,,,,,,,,,,,,,,,,,,,,,,,,,,,,,,,,,,,,,,,,,
,,5dafea4de40355001651fa2f,2026-03-17_11h22.55.975,kallum_motion_pilot_GIST_update_2,2026.1.1,Win32,60.24096386,5dafea4de40355001651fa2f,69b92ab4aef6dee357cd729a,69b92b4b4133346bb632ec14,0.0626,0.0626,1,100,262,143,1,eightseven,,,,,,,,,,,,,,,,,,,,,,,,,,,,,,,,,,,,,,,,,,,,,,,,,,,,,,,,,,,,,,,,,,,,,,,,,,,,,,,,,,,,,,,,,,,,,,,,,,,,,,,,,,,,,,,,,,,,,,,,,,,,,,,,,,,,,,,,,
,,5dafea4de40355001651fa2f,2026-03-17_11h22.55.975,kallum_motion_pilot_GIST_update_2,2026.1.1,Win32,60.24096386,5dafea4de40355001651fa2f,69b92ab4aef6dee357cd729a,69b92b4b4133346bb632ec14,0.0627,0.0627,1,101,263,116,1,sevenfive,,,,,,,,,,,,,,,,,,,,,,,,,,,,,,,,,,,,,,,,,,,,,,,,,,,,,,,,,,,,,,,,,,,,,,,,,,,,,,,,,,,,,,,,,,,,,,,,,,,,,,,,,,,,,,,,,,,,,,,,,,,,,,,,,,,,,,,,,
,,5dafea4de40355001651fa2f,2026-03-17_11h22.55.975,kallum_motion_pilot_GIST_update_2,2026.1.1,Win32,60.24096386,5dafea4de40355001651fa2f,69b92ab4aef6dee357cd729a,69b92b4b4133346bb632ec14,0.063,0.063,1,102,264,63,1,fourthree,,,,,,,,,,,,,,,,,,,,,,,,,,,,,,,,,,,,,,,,,,,,,,,,,,,,,,,,,,,,,,,,,,,,,,,,,,,,,,,,,,,,,,,,,,,,,,,,,,,,,,,,,,,,,,,,,,,,,,,,,,,,,,,,,,,,,,,,,
,,5dafea4de40355001651fa2f,2026-03-17_11h22.55.975,kallum_motion_pilot_GIST_update_2,2026.1.1,Win32,60.24096386,5dafea4de40355001651fa2f,69b92ab4aef6dee357cd729a,69b92b4b4133346bb632ec14,0.0631,0.0631,1,103,265,155,1,sixeight,,,,,,,,,,,,,,,,,,,,,,,,,,,,,,,,,,,,,,,,,,,,,,,,,,,,,,,,,,,,,,,,,,,,,,,,,,,,,,,,,,,,,,,,,,,,,,,,,,,,,,,,,,,,,,,,,,,,,,,,,,,,,,,,,,,,,,,,,
,,5dafea4de40355001651fa2f,2026-03-17_11h22.55.975,kallum_motion_pilot_GIST_update_2,2026.1.1,Win32,60.24096386,5dafea4de40355001651fa2f,69b92ab4aef6dee357cd729a,69b92b4b4133346bb632ec14,0.0633,0.0633,1,104,266,39,1,fourthree,,,,,,,,,,,,,,,,,,,,,,,,,,,,,,,,,,,,,,,,,,,,,,,,,,,,,,,,,,,,,,,,,,,,,,,,,,,,,,,,,,,,,,,,,,,,,,,,,,,,,,,,,,,,,,,,,,,,,,,,,,,,,,,,,,,,,,,,,
