startup.started,startup.stopped,Prolific ID*,date,expName,psychopyVersion,OS,frameRate,participant,study_id,session,stimpositions.started,stimpositions.stopped,hardcoded_stimulus_positions.thisRepN,hardcoded_stimulus_positions.thisTrialN,hardcoded_stimulus_positions.thisN,hardcoded_stimulus_positions.thisIndex,hardcoded_stimulus_positions.ran,StimulusPos,stimorientation.started,stimorientation.stopped,prac_stimorientation_import_loop.thisRepN,prac_stimorientation_import_loop.thisTrialN,prac_stimorientation_import_loop.thisN,prac_stimorientation_import_loop.thisIndex,prac_stimorientation_import_loop.ran,Stimorientation,welcome_instr.started,welcome_instr.stopped,key_resp.keys,key_resp.rt,key_resp.duration,response_steppedout_1.started,response_steppedout_1.stopped,key_resp_20.keys,key_resp_20.rt,key_resp_20.duration,response_steppedout_2.started,response_steppedout_2.stopped,key_resp_19.keys,key_resp_19.rt,key_resp_19.duration,stim_response_instr.started,stim_response_instr.stopped,key_resp_15.keys,key_resp_15.rt,key_resp_15.duration,direction_instr_2.started,direction_instr_2.stopped,key_resp_9.keys,key_resp_9.rt,key_resp_9.duration,instr_prac.started,instr_prac.stopped,key_resp_10.keys,key_resp_10.rt,key_resp_10.duration,Stim1_display_prac.started,Stim1_display_prac.stopped,Ecc,Circle1_ori,Circle2_ori,response_prac.started,similarity,response_time,response_prac.stopped,mouse_5.x,mouse_5.y,mouse_5.leftButton,mouse_5.midButton,mouse_5.rightButton,mouse_5.clicked_name,responseprac_feedback.started,responseprac_feedback.stopped,summary2_prac.started,summary2_prac.stopped,mouse_6.x,mouse_6.y,mouse_6.leftButton,mouse_6.midButton,mouse_6.rightButton,mouse_6.clicked_name,duringprac.thisRepN,duringprac.thisTrialN,duringprac.thisN,duringprac.thisIndex,duringprac.ran,begin.started,begin.stopped,key_resp_22.keys,key_resp_22.rt,key_resp_22.duration,Stim1_display.started,Stim1_display.stopped,circle1_ori,circle2_ori,circle1_SF,circle2_SF,response.started,response.stopped,mouse.x,mouse.y,mouse.leftButton,mouse.midButton,mouse.rightButton,mouse.clicked_name,trialnumber,double_pass.thisRepN,double_pass.thisTrialN,double_pass.thisN,double_pass.thisIndex,double_pass.ran,double_pass.order,main_trial.thisRepN,main_trial.thisTrialN,main_trial.thisN,main_trial.thisIndex,main_trial.ran,main_trial.order,Trial_Counter,Catch,Frequencies,response_2.started,response_2.stopped,mouse_2.x,mouse_2.y,mouse_2.leftButton,mouse_2.midButton,mouse_2.rightButton,mouse_2.clicked_name,special_trial.started,special_trial.stopped,catch_1.started,catch_1.stopped,mouse_3.x,mouse_3.y,mouse_3.leftButton,mouse_3.midButton,mouse_3.rightButton,catchresponse,catchnumber,response_time_catch,response_sum.started,response_sum.stopped,mouse_11.x,mouse_11.y,mouse_11.leftButton,mouse_11.midButton,mouse_11.rightButton,flip_presentation_sequence_for_double_pass.started,flip_presentation_sequence_for_double_pass.stopped,goodbye.started,goodbye.stopped,key_resp_3.keys,key_resp_3.rt,key_resp_3.duration
0,0,5df2148f55742510c539232e,2026-03-17_10h38.13.648,kallum_motion_pilot_GIST_update_2,2026.1.1,Win32,60.0240096,5df2148f55742510c539232e,69b92ab4aef6dee357cd729a,69b92ec49ee5eb88a428d782,,,,,,,,,,,,,,,,,,,,,,,,,,,,,,,,,,,,,,,,,,,,,,,,,,,,,,,,,,,,,,,,,,,,,,,,,,,,,,,,,,,,,,,,,,,,,,,,,,,,,,,,,,,,,,,,,,,,,,,,,,,,,,,,,,,,,,,,,,,,,,,,,
,,5df2148f55742510c539232e,2026-03-17_10h38.13.648,kallum_motion_pilot_GIST_update_2,2026.1.1,Win32,60.0240096,5df2148f55742510c539232e,69b92ab4aef6dee357cd729a,69b92ec49ee5eb88a428d782,0.016,0.016,0,0,0,33,1,onethree,,,,,,,,,,,,,,,,,,,,,,,,,,,,,,,,,,,,,,,,,,,,,,,,,,,,,,,,,,,,,,,,,,,,,,,,,,,,,,,,,,,,,,,,,,,,,,,,,,,,,,,,,,,,,,,,,,,,,,,,,,,,,,,,,,,,,,,,,
,,5df2148f55742510c539232e,2026-03-17_10h38.13.648,kallum_motion_pilot_GIST_update_2,2026.1.1,Win32,60.0240096,5df2148f55742510c539232e,69b92ab4aef6dee357cd729a,69b92ec49ee5eb88a428d782,0.016,0.016,0,1,1,125,1,seveneight,,,,,,,,,,,,,,,,,,,,,,,,,,,,,,,,,,,,,,,,,,,,,,,,,,,,,,,,,,,,,,,,,,,,,,,,,,,,,,,,,,,,,,,,,,,,,,,,,,,,,,,,,,,,,,,,,,,,,,,,,,,,,,,,,,,,,,,,,
,,5df2148f55742510c539232e,2026-03-17_10h38.13.648,kallum_motion_pilot_GIST_update_2,2026.1.1,Win32,60.0240096,5df2148f55742510c539232e,69b92ab4aef6dee357cd729a,69b92ec49ee5eb88a428d782,0.016,0.016,0,2,2,77,1,threefour,,,,,,,,,,,,,,,,,,,,,,,,,,,,,,,,,,,,,,,,,,,,,,,,,,,,,,,,,,,,,,,,,,,,,,,,,,,,,,,,,,,,,,,,,,,,,,,,,,,,,,,,,,,,,,,,,,,,,,,,,,,,,,,,,,,,,,,,,
,,5df2148f55742510c539232e,2026-03-17_10h38.13.648,kallum_motion_pilot_GIST_update_2,2026.1.1,Win32,60.0240096,5df2148f55742510c539232e,69b92ab4aef6dee357cd729a,69b92ec49ee5eb88a428d782,0.016,0.016,0,3,3,97,1,fiveseven,,,,,,,,,,,,,,,,,,,,,,,,,,,,,,,,,,,,,,,,,,,,,,,,,,,,,,,,,,,,,,,,,,,,,,,,,,,,,,,,,,,,,,,,,,,,,,,,,,,,,,,,,,,,,,,,,,,,,,,,,,,,,,,,,,,,,,,,,
,,5df2148f55742510c539232e,2026-03-17_10h38.13.648,kallum_motion_pilot_GIST_update_2,2026.1.1,Win32,60.0240096,5df2148f55742510c539232e,69b92ab4aef6dee357cd729a,69b92ec49ee5eb88a428d782,0.016,0.016,0,4,4,23,1,fourthree,,,,,,,,,,,,,,,,,,,,,,,,,,,,,,,,,,,,,,,,,,,,,,,,,,,,,,,,,,,,,,,,,,,,,,,,,,,,,,,,,,,,,,,,,,,,,,,,,,,,,,,,,,,,,,,,,,,,,,,,,,,,,,,,,,,,,,,,,
,,5df2148f55742510c539232e,2026-03-17_10h38.13.648,kallum_motion_pilot_GIST_update_2,2026.1.1,Win32,60.0240096,5df2148f55742510c539232e,69b92ab4aef6dee357cd729a,69b92ec49ee5eb88a428d782,0.016,0.017,0,5,5,56,1,onetwo,,,,,,,,,,,,,,,,,,,,,,,,,,,,,,,,,,,,,,,,,,,,,,,,,,,,,,,,,,,,,,,,,,,,,,,,,,,,,,,,,,,,,,,,,,,,,,,,,,,,,,,,,,,,,,,,,,,,,,,,,,,,,,,,,,,,,,,,,
,,5df2148f55742510c539232e,2026-03-17_10h38.13.648,kallum_motion_pilot_GIST_update_2,2026.1.1,Win32,60.0240096,5df2148f55742510c539232e,69b92ab4aef6dee357cd729a,69b92ec49ee5eb88a428d782,0.017,0.017,0,6,6,87,1,eightseven,,,,,,,,,,,,,,,,,,,,,,,,,,,,,,,,,,,,,,,,,,,,,,,,,,,,,,,,,,,,,,,,,,,,,,,,,,,,,,,,,,,,,,,,,,,,,,,,,,,,,,,,,,,,,,,,,,,,,,,,,,,,,,,,,,,,,,,,,
,,5df2148f55742510c539232e,2026-03-17_10h38.13.648,kallum_motion_pilot_GIST_update_2,2026.1.1,Win32,60.0240096,5df2148f55742510c539232e,69b92ab4aef6dee357cd729a,69b92ec49ee5eb88a428d782,0.017,0.017,0,7,7,144,1,fivesix,,,,,,,,,,,,,,,,,,,,,,,,,,,,,,,,,,,,,,,,,,,,,,,,,,,,,,,,,,,,,,,,,,,,,,,,,,,,,,,,,,,,,,,,,,,,,,,,,,,,,,,,,,,,,,,,,,,,,,,,,,,,,,,,,,,,,,,,,
,,5df2148f55742510c539232e,2026-03-17_10h38.13.648,kallum_motion_pilot_GIST_update_2,2026.1.1,Win32,60.0240096,5df2148f55742510c539232e,69b92ab4aef6dee357cd729a,69b92ec49ee5eb88a428d782,0.017,0.017,0,8,8,158,1,eightsix,,,,,,,,,,,,,,,,,,,,,,,,,,,,,,,,,,,,,,,,,,,,,,,,,,,,,,,,,,,,,,,,,,,,,,,,,,,,,,,,,,,,,,,,,,,,,,,,,,,,,,,,,,,,,,,,,,,,,,,,,,,,,,,,,,,,,,,,,
,,5df2148f55742510c539232e,2026-03-17_10h38.13.648,kallum_motion_pilot_GIST_update_2,2026.1.1,Win32,60.0240096,5df2148f55742510c539232e,69b92ab4aef6dee357cd729a,69b92ec49ee5eb88a428d782,0.017,0.017,0,9,9,82,1,sixfive,,,,,,,,,,,,,,,,,,,,,,,,,,,,,,,,,,,,,,,,,,,,,,,,,,,,,,,,,,,,,,,,,,,,,,,,,,,,,,,,,,,,,,,,,,,,,,,,,,,,,,,,,,,,,,,,,,,,,,,,,,,,,,,,,,,,,,,,,
,,5df2148f55742510c539232e,2026-03-17_10h38.13.648,kallum_motion_pilot_GIST_update_2,2026.1.1,Win32,60.0240096,5df2148f55742510c539232e,69b92ab4aef6dee357cd729a,69b92ec49ee5eb88a428d782,0.017,0.017,0,10,10,128,1,fivesix,,,,,,,,,,,,,,,,,,,,,,,,,,,,,,,,,,,,,,,,,,,,,,,,,,,,,,,,,,,,,,,,,,,,,,,,,,,,,,,,,,,,,,,,,,,,,,,,,,,,,,,,,,,,,,,,,,,,,,,,,,,,,,,,,,,,,,,,,
,,5df2148f55742510c539232e,2026-03-17_10h38.13.648,kallum_motion_pilot_GIST_update_2,2026.1.1,Win32,60.0240096,5df2148f55742510c539232e,69b92ab4aef6dee357cd729a,69b92ec49ee5eb88a428d782,0.017,0.017,0,11,11,34,1,twoone,,,,,,,,,,,,,,,,,,,,,,,,,,,,,,,,,,,,,,,,,,,,,,,,,,,,,,,,,,,,,,,,,,,,,,,,,,,,,,,,,,,,,,,,,,,,,,,,,,,,,,,,,,,,,,,,,,,,,,,,,,,,,,,,,,,,,,,,,
,,5df2148f55742510c539232e,2026-03-17_10h38.13.648,kallum_motion_pilot_GIST_update_2,2026.1.1,Win32,60.0240096,5df2148f55742510c539232e,69b92ab4aef6dee357cd729a,69b92ec49ee5eb88a428d782,0.017,0.017,0,12,12,157,1,seveneight,,,,,,,,,,,,,,,,,,,,,,,,,,,,,,,,,,,,,,,,,,,,,,,,,,,,,,,,,,,,,,,,,,,,,,,,,,,,,,,,,,,,,,,,,,,,,,,,,,,,,,,,,,,,,,,,,,,,,,,,,,,,,,,,,,,,,,,,,
,,5df2148f55742510c539232e,2026-03-17_10h38.13.648,kallum_motion_pilot_GIST_update_2,2026.1.1,Win32,60.0240096,5df2148f55742510c539232e,69b92ab4aef6dee357cd729a,69b92ec49ee5eb88a428d782,0.017,0.017,0,13,13,27,1,twofour,,,,,,,,,,,,,,,,,,,,,,,,,,,,,,,,,,,,,,,,,,,,,,,,,,,,,,,,,,,,,,,,,,,,,,,,,,,,,,,,,,,,,,,,,,,,,,,,,,,,,,,,,,,,,,,,,,,,,,,,,,,,,,,,,,,,,,,,,
,,5df2148f55742510c539232e,2026-03-17_10h38.13.648,kallum_motion_pilot_GIST_update_2,2026.1.1,Win32,60.0240096,5df2148f55742510c539232e,69b92ab4aef6dee357cd729a,69b92ec49ee5eb88a428d782,0.017,0.017,0,14,14,6,1,fourtwo,,,,,,,,,,,,,,,,,,,,,,,,,,,,,,,,,,,,,,,,,,,,,,,,,,,,,,,,,,,,,,,,,,,,,,,,,,,,,,,,,,,,,,,,,,,,,,,,,,,,,,,,,,,,,,,,,,,,,,,,,,,,,,,,,,,,,,,,,
,,5df2148f55742510c539232e,2026-03-17_10h38.13.648,kallum_motion_pilot_GIST_update_2,2026.1.1,Win32,60.0240096,5df2148f55742510c539232e,69b92ab4aef6dee357cd729a,69b92ec49ee5eb88a428d782,0.017,0.017,0,15,15,112,1,fivesix,,,,,,,,,,,,,,,,,,,,,,,,,,,,,,,,,,,,,,,,,,,,,,,,,,,,,,,,,,,,,,,,,,,,,,,,,,,,,,,,,,,,,,,,,,,,,,,,,,,,,,,,,,,,,,,,,,,,,,,,,,,,,,,,,,,,,,,,,
,,5df2148f55742510c539232e,2026-03-17_10h38.13.648,kallum_motion_pilot_GIST_update_2,2026.1.1,Win32,60.0240096,5df2148f55742510c539232e,69b92ab4aef6dee357cd729a,69b92ec49ee5eb88a428d782,0.017,0.017,0,16,16,93,1,seveneight,,,,,,,,,,,,,,,,,,,,,,,,,,,,,,,,,,,,,,,,,,,,,,,,,,,,,,,,,,,,,,,,,,,,,,,,,,,,,,,,,,,,,,,,,,,,,,,,,,,,,,,,,,,,,,,,,,,,,,,,,,,,,,,,,,,,,,,,,
,,5df2148f55742510c539232e,2026-03-17_10h38.13.648,kallum_motion_pilot_GIST_update_2,2026.1.1,Win32,60.0240096,5df2148f55742510c539232e,69b92ab4aef6dee357cd729a,69b92ec49ee5eb88a428d782,0.018,0.018,0,17,17,15,1,fourthree,,,,,,,,,,,,,,,,,,,,,,,,,,,,,,,,,,,,,,,,,,,,,,,,,,,,,,,,,,,,,,,,,,,,,,,,,,,,,,,,,,,,,,,,,,,,,,,,,,,,,,,,,,,,,,,,,,,,,,,,,,,,,,,,,,,,,,,,,
,,5df2148f55742510c539232e,2026-03-17_10h38.13.648,kallum_motion_pilot_GIST_update_2,2026.1.1,Win32,60.0240096,5df2148f55742510c539232e,69b92ab4aef6dee357cd729a,69b92ec49ee5eb88a428d782,0.018,0.018,0,18,18,106,1,sixfive,,,,,,,,,,,,,,,,,,,,,,,,,,,,,,,,,,,,,,,,,,,,,,,,,,,,,,,,,,,,,,,,,,,,,,,,,,,,,,,,,,,,,,,,,,,,,,,,,,,,,,,,,,,,,,,,,,,,,,,,,,,,,,,,,,,,,,,,,
,,5df2148f55742510c539232e,2026-03-17_10h38.13.648,kallum_motion_pilot_GIST_update_2,2026.1.1,Win32,60.0240096,5df2148f55742510c539232e,69b92ab4aef6dee357cd729a,69b92ec49ee5eb88a428d782,0.018,0.018,0,19,19,96,1,fivesix,,,,,,,,,,,,,,,,,,,,,,,,,,,,,,,,,,,,,,,,,,,,,,,,,,,,,,,,,,,,,,,,,,,,,,,,,,,,,,,,,,,,,,,,,,,,,,,,,,,,,,,,,,,,,,,,,,,,,,,,,,,,,,,,,,,,,,,,,
,,5df2148f55742510c539232e,2026-03-17_10h38.13.648,kallum_motion_pilot_GIST_update_2,2026.1.1,Win32,60.0240096,5df2148f55742510c539232e,69b92ab4aef6dee357cd729a,69b92ec49ee5eb88a428d782,0.018,0.018,0,20,20,113,1,fiveseven,,,,,,,,,,,,,,,,,,,,,,,,,,,,,,,,,,,,,,,,,,,,,,,,,,,,,,,,,,,,,,,,,,,,,,,,,,,,,,,,,,,,,,,,,,,,,,,,,,,,,,,,,,,,,,,,,,,,,,,,,,,,,,,,,,,,,,,,,
,,5df2148f55742510c539232e,2026-03-17_10h38.13.648,kallum_motion_pilot_GIST_update_2,2026.1.1,Win32,60.0240096,5df2148f55742510c539232e,69b92ab4aef6dee357cd729a,69b92ec49ee5eb88a428d782,0.018,0.018,0,21,21,151,1,eightseven,,,,,,,,,,,,,,,,,,,,,,,,,,,,,,,,,,,,,,,,,,,,,,,,,,,,,,,,,,,,,,,,,,,,,,,,,,,,,,,,,,,,,,,,,,,,,,,,,,,,,,,,,,,,,,,,,,,,,,,,,,,,,,,,,,,,,,,,,
,,5df2148f55742510c539232e,2026-03-17_10h38.13.648,kallum_motion_pilot_GIST_update_2,2026.1.1,Win32,60.0240096,5df2148f55742510c539232e,69b92ab4aef6dee357cd729a,69b92ec49ee5eb88a428d782,0.018,0.018,0,22,22,107,1,sixeight,,,,,,,,,,,,,,,,,,,,,,,,,,,,,,,,,,,,,,,,,,,,,,,,,,,,,,,,,,,,,,,,,,,,,,,,,,,,,,,,,,,,,,,,,,,,,,,,,,,,,,,,,,,,,,,,,,,,,,,,,,,,,,,,,,,,,,,,,
,,5df2148f55742510c539232e,2026-03-17_10h38.13.648,kallum_motion_pilot_GIST_update_2,2026.1.1,Win32,60.0240096,5df2148f55742510c539232e,69b92ab4aef6dee357cd729a,69b92ec49ee5eb88a428d782,0.018,0.018,0,23,23,86,1,eightsix,,,,,,,,,,,,,,,,,,,,,,,,,,,,,,,,,,,,,,,,,,,,,,,,,,,,,,,,,,,,,,,,,,,,,,,,,,,,,,,,,,,,,,,,,,,,,,,,,,,,,,,,,,,,,,,,,,,,,,,,,,,,,,,,,,,,,,,,,
,,5df2148f55742510c539232e,2026-03-17_10h38.13.648,kallum_motion_pilot_GIST_update_2,2026.1.1,Win32,60.0240096,5df2148f55742510c539232e,69b92ab4aef6dee357cd729a,69b92ec49ee5eb88a428d782,0.018,0.018,0,24,24,64,1,onetwo,,,,,,,,,,,,,,,,,,,,,,,,,,,,,,,,,,,,,,,,,,,,,,,,,,,,,,,,,,,,,,,,,,,,,,,,,,,,,,,,,,,,,,,,,,,,,,,,,,,,,,,,,,,,,,,,,,,,,,,,,,,,,,,,,,,,,,,,,
,,5df2148f55742510c539232e,2026-03-17_10h38.13.648,kallum_motion_pilot_GIST_update_2,2026.1.1,Win32,60.0240096,5df2148f55742510c539232e,69b92ab4aef6dee357cd729a,69b92ec49ee5eb88a428d782,0.018,0.018,0,25,25,69,1,threefour,,,,,,,,,,,,,,,,,,,,,,,,,,,,,,,,,,,,,,,,,,,,,,,,,,,,,,,,,,,,,,,,,,,,,,,,,,,,,,,,,,,,,,,,,,,,,,,,,,,,,,,,,,,,,,,,,,,,,,,,,,,,,,,,,,,,,,,,,
,,5df2148f55742510c539232e,2026-03-17_10h38.13.648,kallum_motion_pilot_GIST_update_2,2026.1.1,Win32,60.0240096,5df2148f55742510c539232e,69b92ab4aef6dee357cd729a,69b92ec49ee5eb88a428d782,0.018,0.018,0,26,26,60,1,threeone,,,,,,,,,,,,,,,,,,,,,,,,,,,,,,,,,,,,,,,,,,,,,,,,,,,,,,,,,,,,,,,,,,,,,,,,,,,,,,,,,,,,,,,,,,,,,,,,,,,,,,,,,,,,,,,,,,,,,,,,,,,,,,,,,,,,,,,,,
,,5df2148f55742510c539232e,2026-03-17_10h38.13.648,kallum_motion_pilot_GIST_update_2,2026.1.1,Win32,60.0240096,5df2148f55742510c539232e,69b92ab4aef6dee357cd729a,69b92ec49ee5eb88a428d782,0.018,0.018,0,27,27,103,1,eightseven,,,,,,,,,,,,,,,,,,,,,,,,,,,,,,,,,,,,,,,,,,,,,,,,,,,,,,,,,,,,,,,,,,,,,,,,,,,,,,,,,,,,,,,,,,,,,,,,,,,,,,,,,,,,,,,,,,,,,,,,,,,,,,,,,,,,,,,,,
,,5df2148f55742510c539232e,2026-03-17_10h38.13.648,kallum_motion_pilot_GIST_update_2,2026.1.1,Win32,60.0240096,5df2148f55742510c539232e,69b92ab4aef6dee357cd729a,69b92ec49ee5eb88a428d782,0.018,0.018,0,28,28,11,1,twofour,,,,,,,,,,,,,,,,,,,,,,,,,,,,,,,,,,,,,,,,,,,,,,,,,,,,,,,,,,,,,,,,,,,,,,,,,,,,,,,,,,,,,,,,,,,,,,,,,,,,,,,,,,,,,,,,,,,,,,,,,,,,,,,,,,,,,,,,,
,,5df2148f55742510c539232e,2026-03-17_10h38.13.648,kallum_motion_pilot_GIST_update_2,2026.1.1,Win32,60.0240096,5df2148f55742510c539232e,69b92ab4aef6dee357cd729a,69b92ec49ee5eb88a428d782,0.018,0.018,0,29,29,100,1,sevenfive,,,,,,,,,,,,,,,,,,,,,,,,,,,,,,,,,,,,,,,,,,,,,,,,,,,,,,,,,,,,,,,,,,,,,,,,,,,,,,,,,,,,,,,,,,,,,,,,,,,,,,,,,,,,,,,,,,,,,,,,,,,,,,,,,,,,,,,,,
,,5df2148f55742510c539232e,2026-03-17_10h38.13.648,kallum_motion_pilot_GIST_update_2,2026.1.1,Win32,60.0240096,5df2148f55742510c539232e,69b92ab4aef6dee357cd729a,69b92ec49ee5eb88a428d782,0.018,0.018,0,30,30,120,1,fivesix,,,,,,,,,,,,,,,,,,,,,,,,,,,,,,,,,,,,,,,,,,,,,,,,,,,,,,,,,,,,,,,,,,,,,,,,,,,,,,,,,,,,,,,,,,,,,,,,,,,,,,,,,,,,,,,,,,,,,,,,,,,,,,,,,,,,,,,,,
,,5df2148f55742510c539232e,2026-03-17_10h38.13.648,kallum_motion_pilot_GIST_update_2,2026.1.1,Win32,60.0240096,5df2148f55742510c539232e,69b92ab4aef6dee357cd729a,69b92ec49ee5eb88a428d782,0.018,0.018,0,31,31,26,1,twoone,,,,,,,,,,,,,,,,,,,,,,,,,,,,,,,,,,,,,,,,,,,,,,,,,,,,,,,,,,,,,,,,,,,,,,,,,,,,,,,,,,,,,,,,,,,,,,,,,,,,,,,,,,,,,,,,,,,,,,,,,,,,,,,,,,,,,,,,,
,,5df2148f55742510c539232e,2026-03-17_10h38.13.648,kallum_motion_pilot_GIST_update_2,2026.1.1,Win32,60.0240096,5df2148f55742510c539232e,69b92ab4aef6dee357cd729a,69b92ec49ee5eb88a428d782,0.019,0.019,0,32,32,101,1,seveneight,,,,,,,,,,,,,,,,,,,,,,,,,,,,,,,,,,,,,,,,,,,,,,,,,,,,,,,,,,,,,,,,,,,,,,,,,,,,,,,,,,,,,,,,,,,,,,,,,,,,,,,,,,,,,,,,,,,,,,,,,,,,,,,,,,,,,,,,,
,,5df2148f55742510c539232e,2026-03-17_10h38.13.648,kallum_motion_pilot_GIST_update_2,2026.1.1,Win32,60.0240096,5df2148f55742510c539232e,69b92ab4aef6dee357cd729a,69b92ec49ee5eb88a428d782,0.019,0.019,0,33,33,51,1,twofour,,,,,,,,,,,,,,,,,,,,,,,,,,,,,,,,,,,,,,,,,,,,,,,,,,,,,,,,,,,,,,,,,,,,,,,,,,,,,,,,,,,,,,,,,,,,,,,,,,,,,,,,,,,,,,,,,,,,,,,,,,,,,,,,,,,,,,,,,
,,5df2148f55742510c539232e,2026-03-17_10h38.13.648,kallum_motion_pilot_GIST_update_2,2026.1.1,Win32,60.0240096,5df2148f55742510c539232e,69b92ab4aef6dee357cd729a,69b92ec49ee5eb88a428d782,0.019,0.019,0,34,34,80,1,fivesix,,,,,,,,,,,,,,,,,,,,,,,,,,,,,,,,,,,,,,,,,,,,,,,,,,,,,,,,,,,,,,,,,,,,,,,,,,,,,,,,,,,,,,,,,,,,,,,,,,,,,,,,,,,,,,,,,,,,,,,,,,,,,,,,,,,,,,,,,
,,5df2148f55742510c539232e,2026-03-17_10h38.13.648,kallum_motion_pilot_GIST_update_2,2026.1.1,Win32,60.0240096,5df2148f55742510c539232e,69b92ab4aef6dee357cd729a,69b92ec49ee5eb88a428d782,0.019,0.019,0,35,35,62,1,fourtwo,,,,,,,,,,,,,,,,,,,,,,,,,,,,,,,,,,,,,,,,,,,,,,,,,,,,,,,,,,,,,,,,,,,,,,,,,,,,,,,,,,,,,,,,,,,,,,,,,,,,,,,,,,,,,,,,,,,,,,,,,,,,,,,,,,,,,,,,,
,,5df2148f55742510c539232e,2026-03-17_10h38.13.648,kallum_motion_pilot_GIST_update_2,2026.1.1,Win32,60.0240096,5df2148f55742510c539232e,69b92ab4aef6dee357cd729a,69b92ec49ee5eb88a428d782,0.019,0.019,0,36,36,118,1,eightsix,,,,,,,,,,,,,,,,,,,,,,,,,,,,,,,,,,,,,,,,,,,,,,,,,,,,,,,,,,,,,,,,,,,,,,,,,,,,,,,,,,,,,,,,,,,,,,,,,,,,,,,,,,,,,,,,,,,,,,,,,,,,,,,,,,,,,,,,,
,,5df2148f55742510c539232e,2026-03-17_10h38.13.648,kallum_motion_pilot_GIST_update_2,2026.1.1,Win32,60.0240096,5df2148f55742510c539232e,69b92ab4aef6dee357cd729a,69b92ec49ee5eb88a428d782,0.019,0.019,0,37,37,12,1,threeone,,,,,,,,,,,,,,,,,,,,,,,,,,,,,,,,,,,,,,,,,,,,,,,,,,,,,,,,,,,,,,,,,,,,,,,,,,,,,,,,,,,,,,,,,,,,,,,,,,,,,,,,,,,,,,,,,,,,,,,,,,,,,,,,,,,,,,,,,
,,5df2148f55742510c539232e,2026-03-17_10h38.13.648,kallum_motion_pilot_GIST_update_2,2026.1.1,Win32,60.0240096,5df2148f55742510c539232e,69b92ab4aef6dee357cd729a,69b92ec49ee5eb88a428d782,0.019,0.019,0,38,38,43,1,twofour,,,,,,,,,,,,,,,,,,,,,,,,,,,,,,,,,,,,,,,,,,,,,,,,,,,,,,,,,,,,,,,,,,,,,,,,,,,,,,,,,,,,,,,,,,,,,,,,,,,,,,,,,,,,,,,,,,,,,,,,,,,,,,,,,,,,,,,,,
,,5df2148f55742510c539232e,2026-03-17_10h38.13.648,kallum_motion_pilot_GIST_update_2,2026.1.1,Win32,60.0240096,5df2148f55742510c539232e,69b92ab4aef6dee357cd729a,69b92ec49ee5eb88a428d782,0.019,0.019,0,39,39,37,1,threefour,,,,,,,,,,,,,,,,,,,,,,,,,,,,,,,,,,,,,,,,,,,,,,,,,,,,,,,,,,,,,,,,,,,,,,,,,,,,,,,,,,,,,,,,,,,,,,,,,,,,,,,,,,,,,,,,,,,,,,,,,,,,,,,,,,,,,,,,,
,,5df2148f55742510c539232e,2026-03-17_10h38.13.648,kallum_motion_pilot_GIST_update_2,2026.1.1,Win32,60.0240096,5df2148f55742510c539232e,69b92ab4aef6dee357cd729a,69b92ec49ee5eb88a428d782,0.019,0.019,0,40,40,123,1,sixeight,,,,,,,,,,,,,,,,,,,,,,,,,,,,,,,,,,,,,,,,,,,,,,,,,,,,,,,,,,,,,,,,,,,,,,,,,,,,,,,,,,,,,,,,,,,,,,,,,,,,,,,,,,,,,,,,,,,,,,,,,,,,,,,,,,,,,,,,,
,,5df2148f55742510c539232e,2026-03-17_10h38.13.648,kallum_motion_pilot_GIST_update_2,2026.1.1,Win32,60.0240096,5df2148f55742510c539232e,69b92ab4aef6dee357cd729a,69b92ec49ee5eb88a428d782,0.019,0.019,0,41,41,52,1,threeone,,,,,,,,,,,,,,,,,,,,,,,,,,,,,,,,,,,,,,,,,,,,,,,,,,,,,,,,,,,,,,,,,,,,,,,,,,,,,,,,,,,,,,,,,,,,,,,,,,,,,,,,,,,,,,,,,,,,,,,,,,,,,,,,,,,,,,,,,
,,5df2148f55742510c539232e,2026-03-17_10h38.13.648,kallum_motion_pilot_GIST_update_2,2026.1.1,Win32,60.0240096,5df2148f55742510c539232e,69b92ab4aef6dee357cd729a,69b92ec49ee5eb88a428d782,0.019,0.019,0,42,42,70,1,fourtwo,,,,,,,,,,,,,,,,,,,,,,,,,,,,,,,,,,,,,,,,,,,,,,,,,,,,,,,,,,,,,,,,,,,,,,,,,,,,,,,,,,,,,,,,,,,,,,,,,,,,,,,,,,,,,,,,,,,,,,,,,,,,,,,,,,,,,,,,,
,,5df2148f55742510c539232e,2026-03-17_10h38.13.648,kallum_motion_pilot_GIST_update_2,2026.1.1,Win32,60.0240096,5df2148f55742510c539232e,69b92ab4aef6dee357cd729a,69b92ec49ee5eb88a428d782,0.019,0.019,0,43,43,4,1,threeone,,,,,,,,,,,,,,,,,,,,,,,,,,,,,,,,,,,,,,,,,,,,,,,,,,,,,,,,,,,,,,,,,,,,,,,,,,,,,,,,,,,,,,,,,,,,,,,,,,,,,,,,,,,,,,,,,,,,,,,,,,,,,,,,,,,,,,,,,
,,5df2148f55742510c539232e,2026-03-17_10h38.13.648,kallum_motion_pilot_GIST_update_2,2026.1.1,Win32,60.0240096,5df2148f55742510c539232e,69b92ab4aef6dee357cd729a,69b92ec49ee5eb88a428d782,0.019,0.019,0,44,44,48,1,onetwo,,,,,,,,,,,,,,,,,,,,,,,,,,,,,,,,,,,,,,,,,,,,,,,,,,,,,,,,,,,,,,,,,,,,,,,,,,,,,,,,,,,,,,,,,,,,,,,,,,,,,,,,,,,,,,,,,,,,,,,,,,,,,,,,,,,,,,,,,
,,5df2148f55742510c539232e,2026-03-17_10h38.13.648,kallum_motion_pilot_GIST_update_2,2026.1.1,Win32,60.0240096,5df2148f55742510c539232e,69b92ab4aef6dee357cd729a,69b92ec49ee5eb88a428d782,0.02,0.02,0,45,45,36,1,threeone,,,,,,,,,,,,,,,,,,,,,,,,,,,,,,,,,,,,,,,,,,,,,,,,,,,,,,,,,,,,,,,,,,,,,,,,,,,,,,,,,,,,,,,,,,,,,,,,,,,,,,,,,,,,,,,,,,,,,,,,,,,,,,,,,,,,,,,,,
,,5df2148f55742510c539232e,2026-03-17_10h38.13.648,kallum_motion_pilot_GIST_update_2,2026.1.1,Win32,60.0240096,5df2148f55742510c539232e,69b92ab4aef6dee357cd729a,69b92ec49ee5eb88a428d782,0.02,0.02,0,46,46,130,1,sixfive,,,,,,,,,,,,,,,,,,,,,,,,,,,,,,,,,,,,,,,,,,,,,,,,,,,,,,,,,,,,,,,,,,,,,,,,,,,,,,,,,,,,,,,,,,,,,,,,,,,,,,,,,,,,,,,,,,,,,,,,,,,,,,,,,,,,,,,,,
,,5df2148f55742510c539232e,2026-03-17_10h38.13.648,kallum_motion_pilot_GIST_update_2,2026.1.1,Win32,60.0240096,5df2148f55742510c539232e,69b92ab4aef6dee357cd729a,69b92ec49ee5eb88a428d782,0.02,0.02,0,47,47,161,1,fiveseven,,,,,,,,,,,,,,,,,,,,,,,,,,,,,,,,,,,,,,,,,,,,,,,,,,,,,,,,,,,,,,,,,,,,,,,,,,,,,,,,,,,,,,,,,,,,,,,,,,,,,,,,,,,,,,,,,,,,,,,,,,,,,,,,,,,,,,,,,
,,5df2148f55742510c539232e,2026-03-17_10h38.13.648,kallum_motion_pilot_GIST_update_2,2026.1.1,Win32,60.0240096,5df2148f55742510c539232e,69b92ab4aef6dee357cd729a,69b92ec49ee5eb88a428d782,0.02,0.02,0,48,48,10,1,twoone,,,,,,,,,,,,,,,,,,,,,,,,,,,,,,,,,,,,,,,,,,,,,,,,,,,,,,,,,,,,,,,,,,,,,,,,,,,,,,,,,,,,,,,,,,,,,,,,,,,,,,,,,,,,,,,,,,,,,,,,,,,,,,,,,,,,,,,,,
,,5df2148f55742510c539232e,2026-03-17_10h38.13.648,kallum_motion_pilot_GIST_update_2,2026.1.1,Win32,60.0240096,5df2148f55742510c539232e,69b92ab4aef6dee357cd729a,69b92ec49ee5eb88a428d782,0.02,0.02,0,49,49,137,1,fiveseven,,,,,,,,,,,,,,,,,,,,,,,,,,,,,,,,,,,,,,,,,,,,,,,,,,,,,,,,,,,,,,,,,,,,,,,,,,,,,,,,,,,,,,,,,,,,,,,,,,,,,,,,,,,,,,,,,,,,,,,,,,,,,,,,,,,,,,,,,
,,5df2148f55742510c539232e,2026-03-17_10h38.13.648,kallum_motion_pilot_GIST_update_2,2026.1.1,Win32,60.0240096,5df2148f55742510c539232e,69b92ab4aef6dee357cd729a,69b92ec49ee5eb88a428d782,0.02,0.02,0,50,50,116,1,sevenfive,,,,,,,,,,,,,,,,,,,,,,,,,,,,,,,,,,,,,,,,,,,,,,,,,,,,,,,,,,,,,,,,,,,,,,,,,,,,,,,,,,,,,,,,,,,,,,,,,,,,,,,,,,,,,,,,,,,,,,,,,,,,,,,,,,,,,,,,,
,,5df2148f55742510c539232e,2026-03-17_10h38.13.648,kallum_motion_pilot_GIST_update_2,2026.1.1,Win32,60.0240096,5df2148f55742510c539232e,69b92ab4aef6dee357cd729a,69b92ec49ee5eb88a428d782,0.02,0.02,0,51,51,19,1,twofour,,,,,,,,,,,,,,,,,,,,,,,,,,,,,,,,,,,,,,,,,,,,,,,,,,,,,,,,,,,,,,,,,,,,,,,,,,,,,,,,,,,,,,,,,,,,,,,,,,,,,,,,,,,,,,,,,,,,,,,,,,,,,,,,,,,,,,,,,
,,5df2148f55742510c539232e,2026-03-17_10h38.13.648,kallum_motion_pilot_GIST_update_2,2026.1.1,Win32,60.0240096,5df2148f55742510c539232e,69b92ab4aef6dee357cd729a,69b92ec49ee5eb88a428d782,0.02,0.02,0,52,52,72,1,onetwo,,,,,,,,,,,,,,,,,,,,,,,,,,,,,,,,,,,,,,,,,,,,,,,,,,,,,,,,,,,,,,,,,,,,,,,,,,,,,,,,,,,,,,,,,,,,,,,,,,,,,,,,,,,,,,,,,,,,,,,,,,,,,,,,,,,,,,,,,
,,5df2148f55742510c539232e,2026-03-17_10h38.13.648,kallum_motion_pilot_GIST_update_2,2026.1.1,Win32,60.0240096,5df2148f55742510c539232e,69b92ab4aef6dee357cd729a,69b92ec49ee5eb88a428d782,0.02,0.02,0,53,53,115,1,sixeight,,,,,,,,,,,,,,,,,,,,,,,,,,,,,,,,,,,,,,,,,,,,,,,,,,,,,,,,,,,,,,,,,,,,,,,,,,,,,,,,,,,,,,,,,,,,,,,,,,,,,,,,,,,,,,,,,,,,,,,,,,,,,,,,,,,,,,,,,
,,5df2148f55742510c539232e,2026-03-17_10h38.13.648,kallum_motion_pilot_GIST_update_2,2026.1.1,Win32,60.0240096,5df2148f55742510c539232e,69b92ab4aef6dee357cd729a,69b92ec49ee5eb88a428d782,0.02,0.02,0,54,54,24,1,onetwo,,,,,,,,,,,,,,,,,,,,,,,,,,,,,,,,,,,,,,,,,,,,,,,,,,,,,,,,,,,,,,,,,,,,,,,,,,,,,,,,,,,,,,,,,,,,,,,,,,,,,,,,,,,,,,,,,,,,,,,,,,,,,,,,,,,,,,,,,
,,5df2148f55742510c539232e,2026-03-17_10h38.13.648,kallum_motion_pilot_GIST_update_2,2026.1.1,Win32,60.0240096,5df2148f55742510c539232e,69b92ab4aef6dee357cd729a,69b92ec49ee5eb88a428d782,0.02,0.02,0,55,55,54,1,fourtwo,,,,,,,,,,,,,,,,,,,,,,,,,,,,,,,,,,,,,,,,,,,,,,,,,,,,,,,,,,,,,,,,,,,,,,,,,,,,,,,,,,,,,,,,,,,,,,,,,,,,,,,,,,,,,,,,,,,,,,,,,,,,,,,,,,,,,,,,,
,,5df2148f55742510c539232e,2026-03-17_10h38.13.648,kallum_motion_pilot_GIST_update_2,2026.1.1,Win32,60.0240096,5df2148f55742510c539232e,69b92ab4aef6dee357cd729a,69b92ec49ee5eb88a428d782,0.02,0.02,0,56,56,59,1,twofour,,,,,,,,,,,,,,,,,,,,,,,,,,,,,,,,,,,,,,,,,,,,,,,,,,,,,,,,,,,,,,,,,,,,,,,,,,,,,,,,,,,,,,,,,,,,,,,,,,,,,,,,,,,,,,,,,,,,,,,,,,,,,,,,,,,,,,,,,
,,5df2148f55742510c539232e,2026-03-17_10h38.13.648,kallum_motion_pilot_GIST_update_2,2026.1.1,Win32,60.0240096,5df2148f55742510c539232e,69b92ab4aef6dee357cd729a,69b92ec49ee5eb88a428d782,0.021,0.021,0,57,57,145,1,fiveseven,,,,,,,,,,,,,,,,,,,,,,,,,,,,,,,,,,,,,,,,,,,,,,,,,,,,,,,,,,,,,,,,,,,,,,,,,,,,,,,,,,,,,,,,,,,,,,,,,,,,,,,,,,,,,,,,,,,,,,,,,,,,,,,,,,,,,,,,,
,,5df2148f55742510c539232e,2026-03-17_10h38.13.648,kallum_motion_pilot_GIST_update_2,2026.1.1,Win32,60.0240096,5df2148f55742510c539232e,69b92ab4aef6dee357cd729a,69b92ec49ee5eb88a428d782,0.021,0.021,0,58,58,143,1,eightseven,,,,,,,,,,,,,,,,,,,,,,,,,,,,,,,,,,,,,,,,,,,,,,,,,,,,,,,,,,,,,,,,,,,,,,,,,,,,,,,,,,,,,,,,,,,,,,,,,,,,,,,,,,,,,,,,,,,,,,,,,,,,,,,,,,,,,,,,,
,,5df2148f55742510c539232e,2026-03-17_10h38.13.648,kallum_motion_pilot_GIST_update_2,2026.1.1,Win32,60.0240096,5df2148f55742510c539232e,69b92ab4aef6dee357cd729a,69b92ec49ee5eb88a428d782,0.021,0.021,0,59,59,14,1,fourtwo,,,,,,,,,,,,,,,,,,,,,,,,,,,,,,,,,,,,,,,,,,,,,,,,,,,,,,,,,,,,,,,,,,,,,,,,,,,,,,,,,,,,,,,,,,,,,,,,,,,,,,,,,,,,,,,,,,,,,,,,,,,,,,,,,,,,,,,,,
,,5df2148f55742510c539232e,2026-03-17_10h38.13.648,kallum_motion_pilot_GIST_update_2,2026.1.1,Win32,60.0240096,5df2148f55742510c539232e,69b92ab4aef6dee357cd729a,69b92ec49ee5eb88a428d782,0.021,0.021,0,60,60,76,1,threeone,,,,,,,,,,,,,,,,,,,,,,,,,,,,,,,,,,,,,,,,,,,,,,,,,,,,,,,,,,,,,,,,,,,,,,,,,,,,,,,,,,,,,,,,,,,,,,,,,,,,,,,,,,,,,,,,,,,,,,,,,,,,,,,,,,,,,,,,,
,,5df2148f55742510c539232e,2026-03-17_10h38.13.648,kallum_motion_pilot_GIST_update_2,2026.1.1,Win32,60.0240096,5df2148f55742510c539232e,69b92ab4aef6dee357cd729a,69b92ec49ee5eb88a428d782,0.021,0.021,0,61,61,85,1,seveneight,,,,,,,,,,,,,,,,,,,,,,,,,,,,,,,,,,,,,,,,,,,,,,,,,,,,,,,,,,,,,,,,,,,,,,,,,,,,,,,,,,,,,,,,,,,,,,,,,,,,,,,,,,,,,,,,,,,,,,,,,,,,,,,,,,,,,,,,,
,,5df2148f55742510c539232e,2026-03-17_10h38.13.648,kallum_motion_pilot_GIST_update_2,2026.1.1,Win32,60.0240096,5df2148f55742510c539232e,69b92ab4aef6dee357cd729a,69b92ec49ee5eb88a428d782,0.021,0.021,0,62,62,68,1,threeone,,,,,,,,,,,,,,,,,,,,,,,,,,,,,,,,,,,,,,,,,,,,,,,,,,,,,,,,,,,,,,,,,,,,,,,,,,,,,,,,,,,,,,,,,,,,,,,,,,,,,,,,,,,,,,,,,,,,,,,,,,,,,,,,,,,,,,,,,
,,5df2148f55742510c539232e,2026-03-17_10h38.13.648,kallum_motion_pilot_GIST_update_2,2026.1.1,Win32,60.0240096,5df2148f55742510c539232e,69b92ab4aef6dee357cd729a,69b92ec49ee5eb88a428d782,0.021,0.021,0,63,63,91,1,sixeight,,,,,,,,,,,,,,,,,,,,,,,,,,,,,,,,,,,,,,,,,,,,,,,,,,,,,,,,,,,,,,,,,,,,,,,,,,,,,,,,,,,,,,,,,,,,,,,,,,,,,,,,,,,,,,,,,,,,,,,,,,,,,,,,,,,,,,,,,
,,5df2148f55742510c539232e,2026-03-17_10h38.13.648,kallum_motion_pilot_GIST_update_2,2026.1.1,Win32,60.0240096,5df2148f55742510c539232e,69b92ab4aef6dee357cd729a,69b92ec49ee5eb88a428d782,0.021,0.021,0,64,64,25,1,onethree,,,,,,,,,,,,,,,,,,,,,,,,,,,,,,,,,,,,,,,,,,,,,,,,,,,,,,,,,,,,,,,,,,,,,,,,,,,,,,,,,,,,,,,,,,,,,,,,,,,,,,,,,,,,,,,,,,,,,,,,,,,,,,,,,,,,,,,,,
,,5df2148f55742510c539232e,2026-03-17_10h38.13.648,kallum_motion_pilot_GIST_update_2,2026.1.1,Win32,60.0240096,5df2148f55742510c539232e,69b92ab4aef6dee357cd729a,69b92ec49ee5eb88a428d782,0.021,0.021,0,65,65,75,1,twofour,,,,,,,,,,,,,,,,,,,,,,,,,,,,,,,,,,,,,,,,,,,,,,,,,,,,,,,,,,,,,,,,,,,,,,,,,,,,,,,,,,,,,,,,,,,,,,,,,,,,,,,,,,,,,,,,,,,,,,,,,,,,,,,,,,,,,,,,,
,,5df2148f55742510c539232e,2026-03-17_10h38.13.648,kallum_motion_pilot_GIST_update_2,2026.1.1,Win32,60.0240096,5df2148f55742510c539232e,69b92ab4aef6dee357cd729a,69b92ec49ee5eb88a428d782,0.021,0.021,0,66,66,20,1,threeone,,,,,,,,,,,,,,,,,,,,,,,,,,,,,,,,,,,,,,,,,,,,,,,,,,,,,,,,,,,,,,,,,,,,,,,,,,,,,,,,,,,,,,,,,,,,,,,,,,,,,,,,,,,,,,,,,,,,,,,,,,,,,,,,,,,,,,,,,
,,5df2148f55742510c539232e,2026-03-17_10h38.13.648,kallum_motion_pilot_GIST_update_2,2026.1.1,Win32,60.0240096,5df2148f55742510c539232e,69b92ab4aef6dee357cd729a,69b92ec49ee5eb88a428d782,0.021,0.021,0,67,67,30,1,fourtwo,,,,,,,,,,,,,,,,,,,,,,,,,,,,,,,,,,,,,,,,,,,,,,,,,,,,,,,,,,,,,,,,,,,,,,,,,,,,,,,,,,,,,,,,,,,,,,,,,,,,,,,,,,,,,,,,,,,,,,,,,,,,,,,,,,,,,,,,,
,,5df2148f55742510c539232e,2026-03-17_10h38.13.648,kallum_motion_pilot_GIST_update_2,2026.1.1,Win32,60.0240096,5df2148f55742510c539232e,69b92ab4aef6dee357cd729a,69b92ec49ee5eb88a428d782,0.021,0.021,0,68,68,28,1,threeone,,,,,,,,,,,,,,,,,,,,,,,,,,,,,,,,,,,,,,,,,,,,,,,,,,,,,,,,,,,,,,,,,,,,,,,,,,,,,,,,,,,,,,,,,,,,,,,,,,,,,,,,,,,,,,,,,,,,,,,,,,,,,,,,,,,,,,,,,
,,5df2148f55742510c539232e,2026-03-17_10h38.13.648,kallum_motion_pilot_GIST_update_2,2026.1.1,Win32,60.0240096,5df2148f55742510c539232e,69b92ab4aef6dee357cd729a,69b92ec49ee5eb88a428d782,0.021,0.021,0,69,69,117,1,seveneight,,,,,,,,,,,,,,,,,,,,,,,,,,,,,,,,,,,,,,,,,,,,,,,,,,,,,,,,,,,,,,,,,,,,,,,,,,,,,,,,,,,,,,,,,,,,,,,,,,,,,,,,,,,,,,,,,,,,,,,,,,,,,,,,,,,,,,,,,
,,5df2148f55742510c539232e,2026-03-17_10h38.13.648,kallum_motion_pilot_GIST_update_2,2026.1.1,Win32,60.0240096,5df2148f55742510c539232e,69b92ab4aef6dee357cd729a,69b92ec49ee5eb88a428d782,0.021,0.021,0,70,70,21,1,threefour,,,,,,,,,,,,,,,,,,,,,,,,,,,,,,,,,,,,,,,,,,,,,,,,,,,,,,,,,,,,,,,,,,,,,,,,,,,,,,,,,,,,,,,,,,,,,,,,,,,,,,,,,,,,,,,,,,,,,,,,,,,,,,,,,,,,,,,,,
,,5df2148f55742510c539232e,2026-03-17_10h38.13.648,kallum_motion_pilot_GIST_update_2,2026.1.1,Win32,60.0240096,5df2148f55742510c539232e,69b92ab4aef6dee357cd729a,69b92ec49ee5eb88a428d782,0.021,0.021,0,71,71,13,1,threefour,,,,,,,,,,,,,,,,,,,,,,,,,,,,,,,,,,,,,,,,,,,,,,,,,,,,,,,,,,,,,,,,,,,,,,,,,,,,,,,,,,,,,,,,,,,,,,,,,,,,,,,,,,,,,,,,,,,,,,,,,,,,,,,,,,,,,,,,,
,,5df2148f55742510c539232e,2026-03-17_10h38.13.648,kallum_motion_pilot_GIST_update_2,2026.1.1,Win32,60.0240096,5df2148f55742510c539232e,69b92ab4aef6dee357cd729a,69b92ec49ee5eb88a428d782,0.022,0.022,0,72,72,160,1,fivesix,,,,,,,,,,,,,,,,,,,,,,,,,,,,,,,,,,,,,,,,,,,,,,,,,,,,,,,,,,,,,,,,,,,,,,,,,,,,,,,,,,,,,,,,,,,,,,,,,,,,,,,,,,,,,,,,,,,,,,,,,,,,,,,,,,,,,,,,,
,,5df2148f55742510c539232e,2026-03-17_10h38.13.648,kallum_motion_pilot_GIST_update_2,2026.1.1,Win32,60.0240096,5df2148f55742510c539232e,69b92ab4aef6dee357cd729a,69b92ec49ee5eb88a428d782,0.022,0.022,0,73,73,63,1,fourthree,,,,,,,,,,,,,,,,,,,,,,,,,,,,,,,,,,,,,,,,,,,,,,,,,,,,,,,,,,,,,,,,,,,,,,,,,,,,,,,,,,,,,,,,,,,,,,,,,,,,,,,,,,,,,,,,,,,,,,,,,,,,,,,,,,,,,,,,,
,,5df2148f55742510c539232e,2026-03-17_10h38.13.648,kallum_motion_pilot_GIST_update_2,2026.1.1,Win32,60.0240096,5df2148f55742510c539232e,69b92ab4aef6dee357cd729a,69b92ec49ee5eb88a428d782,0.022,0.022,0,74,74,9,1,onethree,,,,,,,,,,,,,,,,,,,,,,,,,,,,,,,,,,,,,,,,,,,,,,,,,,,,,,,,,,,,,,,,,,,,,,,,,,,,,,,,,,,,,,,,,,,,,,,,,,,,,,,,,,,,,,,,,,,,,,,,,,,,,,,,,,,,,,,,,
,,5df2148f55742510c539232e,2026-03-17_10h38.13.648,kallum_motion_pilot_GIST_update_2,2026.1.1,Win32,60.0240096,5df2148f55742510c539232e,69b92ab4aef6dee357cd729a,69b92ec49ee5eb88a428d782,0.022,0.022,0,75,75,5,1,threefour,,,,,,,,,,,,,,,,,,,,,,,,,,,,,,,,,,,,,,,,,,,,,,,,,,,,,,,,,,,,,,,,,,,,,,,,,,,,,,,,,,,,,,,,,,,,,,,,,,,,,,,,,,,,,,,,,,,,,,,,,,,,,,,,,,,,,,,,,
,,5df2148f55742510c539232e,2026-03-17_10h38.13.648,kallum_motion_pilot_GIST_update_2,2026.1.1,Win32,60.0240096,5df2148f55742510c539232e,69b92ab4aef6dee357cd729a,69b92ec49ee5eb88a428d782,0.022,0.022,0,76,76,134,1,eightsix,,,,,,,,,,,,,,,,,,,,,,,,,,,,,,,,,,,,,,,,,,,,,,,,,,,,,,,,,,,,,,,,,,,,,,,,,,,,,,,,,,,,,,,,,,,,,,,,,,,,,,,,,,,,,,,,,,,,,,,,,,,,,,,,,,,,,,,,,
,,5df2148f55742510c539232e,2026-03-17_10h38.13.648,kallum_motion_pilot_GIST_update_2,2026.1.1,Win32,60.0240096,5df2148f55742510c539232e,69b92ab4aef6dee357cd729a,69b92ec49ee5eb88a428d782,0.022,0.022,0,77,77,17,1,onethree,,,,,,,,,,,,,,,,,,,,,,,,,,,,,,,,,,,,,,,,,,,,,,,,,,,,,,,,,,,,,,,,,,,,,,,,,,,,,,,,,,,,,,,,,,,,,,,,,,,,,,,,,,,,,,,,,,,,,,,,,,,,,,,,,,,,,,,,,
,,5df2148f55742510c539232e,2026-03-17_10h38.13.648,kallum_motion_pilot_GIST_update_2,2026.1.1,Win32,60.0240096,5df2148f55742510c539232e,69b92ab4aef6dee357cd729a,69b92ec49ee5eb88a428d782,0.022,0.022,0,78,78,81,1,fiveseven,,,,,,,,,,,,,,,,,,,,,,,,,,,,,,,,,,,,,,,,,,,,,,,,,,,,,,,,,,,,,,,,,,,,,,,,,,,,,,,,,,,,,,,,,,,,,,,,,,,,,,,,,,,,,,,,,,,,,,,,,,,,,,,,,,,,,,,,,
,,5df2148f55742510c539232e,2026-03-17_10h38.13.648,kallum_motion_pilot_GIST_update_2,2026.1.1,Win32,60.0240096,5df2148f55742510c539232e,69b92ab4aef6dee357cd729a,69b92ec49ee5eb88a428d782,0.022,0.022,0,79,79,119,1,eightseven,,,,,,,,,,,,,,,,,,,,,,,,,,,,,,,,,,,,,,,,,,,,,,,,,,,,,,,,,,,,,,,,,,,,,,,,,,,,,,,,,,,,,,,,,,,,,,,,,,,,,,,,,,,,,,,,,,,,,,,,,,,,,,,,,,,,,,,,,
,,5df2148f55742510c539232e,2026-03-17_10h38.13.648,kallum_motion_pilot_GIST_update_2,2026.1.1,Win32,60.0240096,5df2148f55742510c539232e,69b92ab4aef6dee357cd729a,69b92ec49ee5eb88a428d782,0.022,0.022,0,80,80,141,1,seveneight,,,,,,,,,,,,,,,,,,,,,,,,,,,,,,,,,,,,,,,,,,,,,,,,,,,,,,,,,,,,,,,,,,,,,,,,,,,,,,,,,,,,,,,,,,,,,,,,,,,,,,,,,,,,,,,,,,,,,,,,,,,,,,,,,,,,,,,,,
,,5df2148f55742510c539232e,2026-03-17_10h38.13.648,kallum_motion_pilot_GIST_update_2,2026.1.1,Win32,60.0240096,5df2148f55742510c539232e,69b92ab4aef6dee357cd729a,69b92ec49ee5eb88a428d782,0.022,0.022,0,81,81,78,1,fourtwo,,,,,,,,,,,,,,,,,,,,,,,,,,,,,,,,,,,,,,,,,,,,,,,,,,,,,,,,,,,,,,,,,,,,,,,,,,,,,,,,,,,,,,,,,,,,,,,,,,,,,,,,,,,,,,,,,,,,,,,,,,,,,,,,,,,,,,,,,
,,5df2148f55742510c539232e,2026-03-17_10h38.13.648,kallum_motion_pilot_GIST_update_2,2026.1.1,Win32,60.0240096,5df2148f55742510c539232e,69b92ab4aef6dee357cd729a,69b92ec49ee5eb88a428d782,0.023,0.023,0,82,82,121,1,fiveseven,,,,,,,,,,,,,,,,,,,,,,,,,,,,,,,,,,,,,,,,,,,,,,,,,,,,,,,,,,,,,,,,,,,,,,,,,,,,,,,,,,,,,,,,,,,,,,,,,,,,,,,,,,,,,,,,,,,,,,,,,,,,,,,,,,,,,,,,,
,,5df2148f55742510c539232e,2026-03-17_10h38.13.648,kallum_motion_pilot_GIST_update_2,2026.1.1,Win32,60.0240096,5df2148f55742510c539232e,69b92ab4aef6dee357cd729a,69b92ec49ee5eb88a428d782,0.023,0.023,0,83,83,152,1,fivesix,,,,,,,,,,,,,,,,,,,,,,,,,,,,,,,,,,,,,,,,,,,,,,,,,,,,,,,,,,,,,,,,,,,,,,,,,,,,,,,,,,,,,,,,,,,,,,,,,,,,,,,,,,,,,,,,,,,,,,,,,,,,,,,,,,,,,,,,,
,,5df2148f55742510c539232e,2026-03-17_10h38.13.648,kallum_motion_pilot_GIST_update_2,2026.1.1,Win32,60.0240096,5df2148f55742510c539232e,69b92ab4aef6dee357cd729a,69b92ec49ee5eb88a428d782,0.023,0.023,0,84,84,50,1,twoone,,,,,,,,,,,,,,,,,,,,,,,,,,,,,,,,,,,,,,,,,,,,,,,,,,,,,,,,,,,,,,,,,,,,,,,,,,,,,,,,,,,,,,,,,,,,,,,,,,,,,,,,,,,,,,,,,,,,,,,,,,,,,,,,,,,,,,,,,
,,5df2148f55742510c539232e,2026-03-17_10h38.13.648,kallum_motion_pilot_GIST_update_2,2026.1.1,Win32,60.0240096,5df2148f55742510c539232e,69b92ab4aef6dee357cd729a,69b92ec49ee5eb88a428d782,0.023,0.023,0,85,85,35,1,twofour,,,,,,,,,,,,,,,,,,,,,,,,,,,,,,,,,,,,,,,,,,,,,,,,,,,,,,,,,,,,,,,,,,,,,,,,,,,,,,,,,,,,,,,,,,,,,,,,,,,,,,,,,,,,,,,,,,,,,,,,,,,,,,,,,,,,,,,,,
,,5df2148f55742510c539232e,2026-03-17_10h38.13.648,kallum_motion_pilot_GIST_update_2,2026.1.1,Win32,60.0240096,5df2148f55742510c539232e,69b92ab4aef6dee357cd729a,69b92ec49ee5eb88a428d782,0.023,0.023,0,86,86,142,1,eightsix,,,,,,,,,,,,,,,,,,,,,,,,,,,,,,,,,,,,,,,,,,,,,,,,,,,,,,,,,,,,,,,,,,,,,,,,,,,,,,,,,,,,,,,,,,,,,,,,,,,,,,,,,,,,,,,,,,,,,,,,,,,,,,,,,,,,,,,,,
,,5df2148f55742510c539232e,2026-03-17_10h38.13.648,kallum_motion_pilot_GIST_update_2,2026.1.1,Win32,60.0240096,5df2148f55742510c539232e,69b92ab4aef6dee357cd729a,69b92ec49ee5eb88a428d782,0.023,0.023,0,87,87,41,1,onethree,,,,,,,,,,,,,,,,,,,,,,,,,,,,,,,,,,,,,,,,,,,,,,,,,,,,,,,,,,,,,,,,,,,,,,,,,,,,,,,,,,,,,,,,,,,,,,,,,,,,,,,,,,,,,,,,,,,,,,,,,,,,,,,,,,,,,,,,,
,,5df2148f55742510c539232e,2026-03-17_10h38.13.648,kallum_motion_pilot_GIST_update_2,2026.1.1,Win32,60.0240096,5df2148f55742510c539232e,69b92ab4aef6dee357cd729a,69b92ec49ee5eb88a428d782,0.023,0.023,0,88,88,90,1,sixfive,,,,,,,,,,,,,,,,,,,,,,,,,,,,,,,,,,,,,,,,,,,,,,,,,,,,,,,,,,,,,,,,,,,,,,,,,,,,,,,,,,,,,,,,,,,,,,,,,,,,,,,,,,,,,,,,,,,,,,,,,,,,,,,,,,,,,,,,,
,,5df2148f55742510c539232e,2026-03-17_10h38.13.648,kallum_motion_pilot_GIST_update_2,2026.1.1,Win32,60.0240096,5df2148f55742510c539232e,69b92ab4aef6dee357cd729a,69b92ec49ee5eb88a428d782,0.023,0.023,0,89,89,71,1,fourthree,,,,,,,,,,,,,,,,,,,,,,,,,,,,,,,,,,,,,,,,,,,,,,,,,,,,,,,,,,,,,,,,,,,,,,,,,,,,,,,,,,,,,,,,,,,,,,,,,,,,,,,,,,,,,,,,,,,,,,,,,,,,,,,,,,,,,,,,,
,,5df2148f55742510c539232e,2026-03-17_10h38.13.648,kallum_motion_pilot_GIST_update_2,2026.1.1,Win32,60.0240096,5df2148f55742510c539232e,69b92ab4aef6dee357cd729a,69b92ec49ee5eb88a428d782,0.023,0.023,0,90,90,32,1,onetwo,,,,,,,,,,,,,,,,,,,,,,,,,,,,,,,,,,,,,,,,,,,,,,,,,,,,,,,,,,,,,,,,,,,,,,,,,,,,,,,,,,,,,,,,,,,,,,,,,,,,,,,,,,,,,,,,,,,,,,,,,,,,,,,,,,,,,,,,,
,,5df2148f55742510c539232e,2026-03-17_10h38.13.648,kallum_motion_pilot_GIST_update_2,2026.1.1,Win32,60.0240096,5df2148f55742510c539232e,69b92ab4aef6dee357cd729a,69b92ec49ee5eb88a428d782,0.023,0.023,0,91,91,114,1,sixfive,,,,,,,,,,,,,,,,,,,,,,,,,,,,,,,,,,,,,,,,,,,,,,,,,,,,,,,,,,,,,,,,,,,,,,,,,,,,,,,,,,,,,,,,,,,,,,,,,,,,,,,,,,,,,,,,,,,,,,,,,,,,,,,,,,,,,,,,,
,,5df2148f55742510c539232e,2026-03-17_10h38.13.648,kallum_motion_pilot_GIST_update_2,2026.1.1,Win32,60.0240096,5df2148f55742510c539232e,69b92ab4aef6dee357cd729a,69b92ec49ee5eb88a428d782,0.023,0.023,0,92,92,132,1,sevenfive,,,,,,,,,,,,,,,,,,,,,,,,,,,,,,,,,,,,,,,,,,,,,,,,,,,,,,,,,,,,,,,,,,,,,,,,,,,,,,,,,,,,,,,,,,,,,,,,,,,,,,,,,,,,,,,,,,,,,,,,,,,,,,,,,,,,,,,,,
,,5df2148f55742510c539232e,2026-03-17_10h38.13.648,kallum_motion_pilot_GIST_update_2,2026.1.1,Win32,60.0240096,5df2148f55742510c539232e,69b92ab4aef6dee357cd729a,69b92ec49ee5eb88a428d782,0.023,0.023,0,93,93,38,1,fourtwo,,,,,,,,,,,,,,,,,,,,,,,,,,,,,,,,,,,,,,,,,,,,,,,,,,,,,,,,,,,,,,,,,,,,,,,,,,,,,,,,,,,,,,,,,,,,,,,,,,,,,,,,,,,,,,,,,,,,,,,,,,,,,,,,,,,,,,,,,
,,5df2148f55742510c539232e,2026-03-17_10h38.13.648,kallum_motion_pilot_GIST_update_2,2026.1.1,Win32,60.0240096,5df2148f55742510c539232e,69b92ab4aef6dee357cd729a,69b92ec49ee5eb88a428d782,0.023,0.023,0,94,94,53,1,threefour,,,,,,,,,,,,,,,,,,,,,,,,,,,,,,,,,,,,,,,,,,,,,,,,,,,,,,,,,,,,,,,,,,,,,,,,,,,,,,,,,,,,,,,,,,,,,,,,,,,,,,,,,,,,,,,,,,,,,,,,,,,,,,,,,,,,,,,,,
,,5df2148f55742510c539232e,2026-03-17_10h38.13.648,kallum_motion_pilot_GIST_update_2,2026.1.1,Win32,60.0240096,5df2148f55742510c539232e,69b92ab4aef6dee357cd729a,69b92ec49ee5eb88a428d782,0.023,0.023,0,95,95,18,1,twoone,,,,,,,,,,,,,,,,,,,,,,,,,,,,,,,,,,,,,,,,,,,,,,,,,,,,,,,,,,,,,,,,,,,,,,,,,,,,,,,,,,,,,,,,,,,,,,,,,,,,,,,,,,,,,,,,,,,,,,,,,,,,,,,,,,,,,,,,,
,,5df2148f55742510c539232e,2026-03-17_10h38.13.648,kallum_motion_pilot_GIST_update_2,2026.1.1,Win32,60.0240096,5df2148f55742510c539232e,69b92ab4aef6dee357cd729a,69b92ec49ee5eb88a428d782,0.023,0.023,0,96,96,45,1,threefour,,,,,,,,,,,,,,,,,,,,,,,,,,,,,,,,,,,,,,,,,,,,,,,,,,,,,,,,,,,,,,,,,,,,,,,,,,,,,,,,,,,,,,,,,,,,,,,,,,,,,,,,,,,,,,,,,,,,,,,,,,,,,,,,,,,,,,,,,
,,5df2148f55742510c539232e,2026-03-17_10h38.13.648,kallum_motion_pilot_GIST_update_2,2026.1.1,Win32,60.0240096,5df2148f55742510c539232e,69b92ab4aef6dee357cd729a,69b92ec49ee5eb88a428d782,0.024,0.024,0,97,97,57,1,onethree,,,,,,,,,,,,,,,,,,,,,,,,,,,,,,,,,,,,,,,,,,,,,,,,,,,,,,,,,,,,,,,,,,,,,,,,,,,,,,,,,,,,,,,,,,,,,,,,,,,,,,,,,,,,,,,,,,,,,,,,,,,,,,,,,,,,,,,,,
,,5df2148f55742510c539232e,2026-03-17_10h38.13.648,kallum_motion_pilot_GIST_update_2,2026.1.1,Win32,60.0240096,5df2148f55742510c539232e,69b92ab4aef6dee357cd729a,69b92ec49ee5eb88a428d782,0.024,0.024,0,98,98,83,1,sixeight,,,,,,,,,,,,,,,,,,,,,,,,,,,,,,,,,,,,,,,,,,,,,,,,,,,,,,,,,,,,,,,,,,,,,,,,,,,,,,,,,,,,,,,,,,,,,,,,,,,,,,,,,,,,,,,,,,,,,,,,,,,,,,,,,,,,,,,,,
,,5df2148f55742510c539232e,2026-03-17_10h38.13.648,kallum_motion_pilot_GIST_update_2,2026.1.1,Win32,60.0240096,5df2148f55742510c539232e,69b92ab4aef6dee357cd729a,69b92ec49ee5eb88a428d782,0.024,0.024,0,99,99,110,1,eightsix,,,,,,,,,,,,,,,,,,,,,,,,,,,,,,,,,,,,,,,,,,,,,,,,,,,,,,,,,,,,,,,,,,,,,,,,,,,,,,,,,,,,,,,,,,,,,,,,,,,,,,,,,,,,,,,,,,,,,,,,,,,,,,,,,,,,,,,,,
,,5df2148f55742510c539232e,2026-03-17_10h38.13.648,kallum_motion_pilot_GIST_update_2,2026.1.1,Win32,60.0240096,5df2148f55742510c539232e,69b92ab4aef6dee357cd729a,69b92ec49ee5eb88a428d782,0.024,0.024,0,100,100,139,1,sixeight,,,,,,,,,,,,,,,,,,,,,,,,,,,,,,,,,,,,,,,,,,,,,,,,,,,,,,,,,,,,,,,,,,,,,,,,,,,,,,,,,,,,,,,,,,,,,,,,,,,,,,,,,,,,,,,,,,,,,,,,,,,,,,,,,,,,,,,,,
,,5df2148f55742510c539232e,2026-03-17_10h38.13.648,kallum_motion_pilot_GIST_update_2,2026.1.1,Win32,60.0240096,5df2148f55742510c539232e,69b92ab4aef6dee357cd729a,69b92ec49ee5eb88a428d782,0.024,0.024,0,101,101,31,1,fourthree,,,,,,,,,,,,,,,,,,,,,,,,,,,,,,,,,,,,,,,,,,,,,,,,,,,,,,,,,,,,,,,,,,,,,,,,,,,,,,,,,,,,,,,,,,,,,,,,,,,,,,,,,,,,,,,,,,,,,,,,,,,,,,,,,,,,,,,,,
,,5df2148f55742510c539232e,2026-03-17_10h38.13.648,kallum_motion_pilot_GIST_update_2,2026.1.1,Win32,60.0240096,5df2148f55742510c539232e,69b92ab4aef6dee357cd729a,69b92ec49ee5eb88a428d782,0.024,0.024,0,102,102,46,1,fourtwo,,,,,,,,,,,,,,,,,,,,,,,,,,,,,,,,,,,,,,,,,,,,,,,,,,,,,,,,,,,,,,,,,,,,,,,,,,,,,,,,,,,,,,,,,,,,,,,,,,,,,,,,,,,,,,,,,,,,,,,,,,,,,,,,,,,,,,,,,
,,5df2148f55742510c539232e,2026-03-17_10h38.13.648,kallum_motion_pilot_GIST_update_2,2026.1.1,Win32,60.0240096,5df2148f55742510c539232e,69b92ab4aef6dee357cd729a,69b92ec49ee5eb88a428d782,0.024,0.024,0,103,103,104,1,fivesix,,,,,,,,,,,,,,,,,,,,,,,,,,,,,,,,,,,,,,,,,,,,,,,,,,,,,,,,,,,,,,,,,,,,,,,,,,,,,,,,,,,,,,,,,,,,,,,,,,,,,,,,,,,,,,,,,,,,,,,,,,,,,,,,,,,,,,,,,
,,5df2148f55742510c539232e,2026-03-17_10h38.13.648,kallum_motion_pilot_GIST_update_2,2026.1.1,Win32,60.0240096,5df2148f55742510c539232e,69b92ab4aef6dee357cd729a,69b92ec49ee5eb88a428d782,0.024,0.024,0,104,104,150,1,eightsix,,,,,,,,,,,,,,,,,,,,,,,,,,,,,,,,,,,,,,,,,,,,,,,,,,,,,,,,,,,,,,,,,,,,,,,,,,,,,,,,,,,,,,,,,,,,,,,,,,,,,,,,,,,,,,,,,,,,,,,,,,,,,,,,,,,,,,,,,
,,5df2148f55742510c539232e,2026-03-17_10h38.13.648,kallum_motion_pilot_GIST_update_2,2026.1.1,Win32,60.0240096,5df2148f55742510c539232e,69b92ab4aef6dee357cd729a,69b92ec49ee5eb88a428d782,0.024,0.024,0,105,105,65,1,onethree,,,,,,,,,,,,,,,,,,,,,,,,,,,,,,,,,,,,,,,,,,,,,,,,,,,,,,,,,,,,,,,,,,,,,,,,,,,,,,,,,,,,,,,,,,,,,,,,,,,,,,,,,,,,,,,,,,,,,,,,,,,,,,,,,,,,,,,,,
,,5df2148f55742510c539232e,2026-03-17_10h38.13.648,kallum_motion_pilot_GIST_update_2,2026.1.1,Win32,60.0240096,5df2148f55742510c539232e,69b92ab4aef6dee357cd729a,69b92ec49ee5eb88a428d782,0.024,0.024,0,106,106,61,1,threefour,,,,,,,,,,,,,,,,,,,,,,,,,,,,,,,,,,,,,,,,,,,,,,,,,,,,,,,,,,,,,,,,,,,,,,,,,,,,,,,,,,,,,,,,,,,,,,,,,,,,,,,,,,,,,,,,,,,,,,,,,,,,,,,,,,,,,,,,,
,,5df2148f55742510c539232e,2026-03-17_10h38.13.648,kallum_motion_pilot_GIST_update_2,2026.1.1,Win32,60.0240096,5df2148f55742510c539232e,69b92ab4aef6dee357cd729a,69b92ec49ee5eb88a428d782,0.024,0.024,0,107,107,74,1,twoone,,,,,,,,,,,,,,,,,,,,,,,,,,,,,,,,,,,,,,,,,,,,,,,,,,,,,,,,,,,,,,,,,,,,,,,,,,,,,,,,,,,,,,,,,,,,,,,,,,,,,,,,,,,,,,,,,,,,,,,,,,,,,,,,,,,,,,,,,
,,5df2148f55742510c539232e,2026-03-17_10h38.13.648,kallum_motion_pilot_GIST_update_2,2026.1.1,Win32,60.0240096,5df2148f55742510c539232e,69b92ab4aef6dee357cd729a,69b92ec49ee5eb88a428d782,0.024,0.024,0,108,108,0,1,onetwo,,,,,,,,,,,,,,,,,,,,,,,,,,,,,,,,,,,,,,,,,,,,,,,,,,,,,,,,,,,,,,,,,,,,,,,,,,,,,,,,,,,,,,,,,,,,,,,,,,,,,,,,,,,,,,,,,,,,,,,,,,,,,,,,,,,,,,,,,
,,5df2148f55742510c539232e,2026-03-17_10h38.13.648,kallum_motion_pilot_GIST_update_2,2026.1.1,Win32,60.0240096,5df2148f55742510c539232e,69b92ab4aef6dee357cd729a,69b92ec49ee5eb88a428d782,0.024,0.024,0,109,109,122,1,sixfive,,,,,,,,,,,,,,,,,,,,,,,,,,,,,,,,,,,,,,,,,,,,,,,,,,,,,,,,,,,,,,,,,,,,,,,,,,,,,,,,,,,,,,,,,,,,,,,,,,,,,,,,,,,,,,,,,,,,,,,,,,,,,,,,,,,,,,,,,
,,5df2148f55742510c539232e,2026-03-17_10h38.13.648,kallum_motion_pilot_GIST_update_2,2026.1.1,Win32,60.0240096,5df2148f55742510c539232e,69b92ab4aef6dee357cd729a,69b92ec49ee5eb88a428d782,0.024,0.024,0,110,110,156,1,sevenfive,,,,,,,,,,,,,,,,,,,,,,,,,,,,,,,,,,,,,,,,,,,,,,,,,,,,,,,,,,,,,,,,,,,,,,,,,,,,,,,,,,,,,,,,,,,,,,,,,,,,,,,,,,,,,,,,,,,,,,,,,,,,,,,,,,,,,,,,,
,,5df2148f55742510c539232e,2026-03-17_10h38.13.648,kallum_motion_pilot_GIST_update_2,2026.1.1,Win32,60.0240096,5df2148f55742510c539232e,69b92ab4aef6dee357cd729a,69b92ec49ee5eb88a428d782,0.025,0.025,0,111,111,105,1,fiveseven,,,,,,,,,,,,,,,,,,,,,,,,,,,,,,,,,,,,,,,,,,,,,,,,,,,,,,,,,,,,,,,,,,,,,,,,,,,,,,,,,,,,,,,,,,,,,,,,,,,,,,,,,,,,,,,,,,,,,,,,,,,,,,,,,,,,,,,,,
,,5df2148f55742510c539232e,2026-03-17_10h38.13.648,kallum_motion_pilot_GIST_update_2,2026.1.1,Win32,60.0240096,5df2148f55742510c539232e,69b92ab4aef6dee357cd729a,69b92ec49ee5eb88a428d782,0.025,0.025,0,112,112,135,1,eightseven,,,,,,,,,,,,,,,,,,,,,,,,,,,,,,,,,,,,,,,,,,,,,,,,,,,,,,,,,,,,,,,,,,,,,,,,,,,,,,,,,,,,,,,,,,,,,,,,,,,,,,,,,,,,,,,,,,,,,,,,,,,,,,,,,,,,,,,,,
,,5df2148f55742510c539232e,2026-03-17_10h38.13.648,kallum_motion_pilot_GIST_update_2,2026.1.1,Win32,60.0240096,5df2148f55742510c539232e,69b92ab4aef6dee357cd729a,69b92ec49ee5eb88a428d782,0.025,0.025,0,113,113,55,1,fourthree,,,,,,,,,,,,,,,,,,,,,,,,,,,,,,,,,,,,,,,,,,,,,,,,,,,,,,,,,,,,,,,,,,,,,,,,,,,,,,,,,,,,,,,,,,,,,,,,,,,,,,,,,,,,,,,,,,,,,,,,,,,,,,,,,,,,,,,,,
,,5df2148f55742510c539232e,2026-03-17_10h38.13.648,kallum_motion_pilot_GIST_update_2,2026.1.1,Win32,60.0240096,5df2148f55742510c539232e,69b92ab4aef6dee357cd729a,69b92ec49ee5eb88a428d782,0.025,0.025,0,114,114,94,1,eightsix,,,,,,,,,,,,,,,,,,,,,,,,,,,,,,,,,,,,,,,,,,,,,,,,,,,,,,,,,,,,,,,,,,,,,,,,,,,,,,,,,,,,,,,,,,,,,,,,,,,,,,,,,,,,,,,,,,,,,,,,,,,,,,,,,,,,,,,,,
,,5df2148f55742510c539232e,2026-03-17_10h38.13.648,kallum_motion_pilot_GIST_update_2,2026.1.1,Win32,60.0240096,5df2148f55742510c539232e,69b92ab4aef6dee357cd729a,69b92ec49ee5eb88a428d782,0.025,0.025,0,115,115,44,1,threeone,,,,,,,,,,,,,,,,,,,,,,,,,,,,,,,,,,,,,,,,,,,,,,,,,,,,,,,,,,,,,,,,,,,,,,,,,,,,,,,,,,,,,,,,,,,,,,,,,,,,,,,,,,,,,,,,,,,,,,,,,,,,,,,,,,,,,,,,,
,,5df2148f55742510c539232e,2026-03-17_10h38.13.648,kallum_motion_pilot_GIST_update_2,2026.1.1,Win32,60.0240096,5df2148f55742510c539232e,69b92ab4aef6dee357cd729a,69b92ec49ee5eb88a428d782,0.025,0.025,0,116,116,126,1,eightsix,,,,,,,,,,,,,,,,,,,,,,,,,,,,,,,,,,,,,,,,,,,,,,,,,,,,,,,,,,,,,,,,,,,,,,,,,,,,,,,,,,,,,,,,,,,,,,,,,,,,,,,,,,,,,,,,,,,,,,,,,,,,,,,,,,,,,,,,,
,,5df2148f55742510c539232e,2026-03-17_10h38.13.648,kallum_motion_pilot_GIST_update_2,2026.1.1,Win32,60.0240096,5df2148f55742510c539232e,69b92ab4aef6dee357cd729a,69b92ec49ee5eb88a428d782,0.025,0.025,0,117,117,95,1,eightseven,,,,,,,,,,,,,,,,,,,,,,,,,,,,,,,,,,,,,,,,,,,,,,,,,,,,,,,,,,,,,,,,,,,,,,,,,,,,,,,,,,,,,,,,,,,,,,,,,,,,,,,,,,,,,,,,,,,,,,,,,,,,,,,,,,,,,,,,,
,,5df2148f55742510c539232e,2026-03-17_10h38.13.648,kallum_motion_pilot_GIST_update_2,2026.1.1,Win32,60.0240096,5df2148f55742510c539232e,69b92ab4aef6dee357cd729a,69b92ec49ee5eb88a428d782,0.025,0.025,0,118,118,153,1,fiveseven,,,,,,,,,,,,,,,,,,,,,,,,,,,,,,,,,,,,,,,,,,,,,,,,,,,,,,,,,,,,,,,,,,,,,,,,,,,,,,,,,,,,,,,,,,,,,,,,,,,,,,,,,,,,,,,,,,,,,,,,,,,,,,,,,,,,,,,,,
,,5df2148f55742510c539232e,2026-03-17_10h38.13.648,kallum_motion_pilot_GIST_update_2,2026.1.1,Win32,60.0240096,5df2148f55742510c539232e,69b92ab4aef6dee357cd729a,69b92ec49ee5eb88a428d782,0.025,0.025,0,119,119,127,1,eightseven,,,,,,,,,,,,,,,,,,,,,,,,,,,,,,,,,,,,,,,,,,,,,,,,,,,,,,,,,,,,,,,,,,,,,,,,,,,,,,,,,,,,,,,,,,,,,,,,,,,,,,,,,,,,,,,,,,,,,,,,,,,,,,,,,,,,,,,,,
,,5df2148f55742510c539232e,2026-03-17_10h38.13.648,kallum_motion_pilot_GIST_update_2,2026.1.1,Win32,60.0240096,5df2148f55742510c539232e,69b92ab4aef6dee357cd729a,69b92ec49ee5eb88a428d782,0.025,0.025,0,120,120,66,1,twoone,,,,,,,,,,,,,,,,,,,,,,,,,,,,,,,,,,,,,,,,,,,,,,,,,,,,,,,,,,,,,,,,,,,,,,,,,,,,,,,,,,,,,,,,,,,,,,,,,,,,,,,,,,,,,,,,,,,,,,,,,,,,,,,,,,,,,,,,,
,,5df2148f55742510c539232e,2026-03-17_10h38.13.648,kallum_motion_pilot_GIST_update_2,2026.1.1,Win32,60.0240096,5df2148f55742510c539232e,69b92ab4aef6dee357cd729a,69b92ec49ee5eb88a428d782,0.025,0.025,0,121,121,7,1,fourthree,,,,,,,,,,,,,,,,,,,,,,,,,,,,,,,,,,,,,,,,,,,,,,,,,,,,,,,,,,,,,,,,,,,,,,,,,,,,,,,,,,,,,,,,,,,,,,,,,,,,,,,,,,,,,,,,,,,,,,,,,,,,,,,,,,,,,,,,,
,,5df2148f55742510c539232e,2026-03-17_10h38.13.648,kallum_motion_pilot_GIST_update_2,2026.1.1,Win32,60.0240096,5df2148f55742510c539232e,69b92ab4aef6dee357cd729a,69b92ec49ee5eb88a428d782,0.025,0.025,0,122,122,58,1,twoone,,,,,,,,,,,,,,,,,,,,,,,,,,,,,,,,,,,,,,,,,,,,,,,,,,,,,,,,,,,,,,,,,,,,,,,,,,,,,,,,,,,,,,,,,,,,,,,,,,,,,,,,,,,,,,,,,,,,,,,,,,,,,,,,,,,,,,,,,
,,5df2148f55742510c539232e,2026-03-17_10h38.13.648,kallum_motion_pilot_GIST_update_2,2026.1.1,Win32,60.0240096,5df2148f55742510c539232e,69b92ab4aef6dee357cd729a,69b92ec49ee5eb88a428d782,0.025,0.025,0,123,123,149,1,seveneight,,,,,,,,,,,,,,,,,,,,,,,,,,,,,,,,,,,,,,,,,,,,,,,,,,,,,,,,,,,,,,,,,,,,,,,,,,,,,,,,,,,,,,,,,,,,,,,,,,,,,,,,,,,,,,,,,,,,,,,,,,,,,,,,,,,,,,,,,
,,5df2148f55742510c539232e,2026-03-17_10h38.13.648,kallum_motion_pilot_GIST_update_2,2026.1.1,Win32,60.0240096,5df2148f55742510c539232e,69b92ab4aef6dee357cd729a,69b92ec49ee5eb88a428d782,0.025,0.025,0,124,124,29,1,threefour,,,,,,,,,,,,,,,,,,,,,,,,,,,,,,,,,,,,,,,,,,,,,,,,,,,,,,,,,,,,,,,,,,,,,,,,,,,,,,,,,,,,,,,,,,,,,,,,,,,,,,,,,,,,,,,,,,,,,,,,,,,,,,,,,,,,,,,,,
,,5df2148f55742510c539232e,2026-03-17_10h38.13.648,kallum_motion_pilot_GIST_update_2,2026.1.1,Win32,60.0240096,5df2148f55742510c539232e,69b92ab4aef6dee357cd729a,69b92ec49ee5eb88a428d782,0.025,0.025,0,125,125,109,1,seveneight,,,,,,,,,,,,,,,,,,,,,,,,,,,,,,,,,,,,,,,,,,,,,,,,,,,,,,,,,,,,,,,,,,,,,,,,,,,,,,,,,,,,,,,,,,,,,,,,,,,,,,,,,,,,,,,,,,,,,,,,,,,,,,,,,,,,,,,,,
,,5df2148f55742510c539232e,2026-03-17_10h38.13.648,kallum_motion_pilot_GIST_update_2,2026.1.1,Win32,60.0240096,5df2148f55742510c539232e,69b92ab4aef6dee357cd729a,69b92ec49ee5eb88a428d782,0.025,0.025,0,126,126,67,1,twofour,,,,,,,,,,,,,,,,,,,,,,,,,,,,,,,,,,,,,,,,,,,,,,,,,,,,,,,,,,,,,,,,,,,,,,,,,,,,,,,,,,,,,,,,,,,,,,,,,,,,,,,,,,,,,,,,,,,,,,,,,,,,,,,,,,,,,,,,,
,,5df2148f55742510c539232e,2026-03-17_10h38.13.648,kallum_motion_pilot_GIST_update_2,2026.1.1,Win32,60.0240096,5df2148f55742510c539232e,69b92ab4aef6dee357cd729a,69b92ec49ee5eb88a428d782,0.025,0.025,0,127,127,88,1,fivesix,,,,,,,,,,,,,,,,,,,,,,,,,,,,,,,,,,,,,,,,,,,,,,,,,,,,,,,,,,,,,,,,,,,,,,,,,,,,,,,,,,,,,,,,,,,,,,,,,,,,,,,,,,,,,,,,,,,,,,,,,,,,,,,,,,,,,,,,,
,,5df2148f55742510c539232e,2026-03-17_10h38.13.648,kallum_motion_pilot_GIST_update_2,2026.1.1,Win32,60.0240096,5df2148f55742510c539232e,69b92ab4aef6dee357cd729a,69b92ec49ee5eb88a428d782,0.025,0.025,0,128,128,73,1,onethree,,,,,,,,,,,,,,,,,,,,,,,,,,,,,,,,,,,,,,,,,,,,,,,,,,,,,,,,,,,,,,,,,,,,,,,,,,,,,,,,,,,,,,,,,,,,,,,,,,,,,,,,,,,,,,,,,,,,,,,,,,,,,,,,,,,,,,,,,
,,5df2148f55742510c539232e,2026-03-17_10h38.13.648,kallum_motion_pilot_GIST_update_2,2026.1.1,Win32,60.0240096,5df2148f55742510c539232e,69b92ab4aef6dee357cd729a,69b92ec49ee5eb88a428d782,0.026,0.026,0,129,129,129,1,fiveseven,,,,,,,,,,,,,,,,,,,,,,,,,,,,,,,,,,,,,,,,,,,,,,,,,,,,,,,,,,,,,,,,,,,,,,,,,,,,,,,,,,,,,,,,,,,,,,,,,,,,,,,,,,,,,,,,,,,,,,,,,,,,,,,,,,,,,,,,,
,,5df2148f55742510c539232e,2026-03-17_10h38.13.648,kallum_motion_pilot_GIST_update_2,2026.1.1,Win32,60.0240096,5df2148f55742510c539232e,69b92ab4aef6dee357cd729a,69b92ec49ee5eb88a428d782,0.026,0.026,0,130,130,79,1,eightseven,,,,,,,,,,,,,,,,,,,,,,,,,,,,,,,,,,,,,,,,,,,,,,,,,,,,,,,,,,,,,,,,,,,,,,,,,,,,,,,,,,,,,,,,,,,,,,,,,,,,,,,,,,,,,,,,,,,,,,,,,,,,,,,,,,,,,,,,,
,,5df2148f55742510c539232e,2026-03-17_10h38.13.648,kallum_motion_pilot_GIST_update_2,2026.1.1,Win32,60.0240096,5df2148f55742510c539232e,69b92ab4aef6dee357cd729a,69b92ec49ee5eb88a428d782,0.026,0.026,0,131,131,84,1,sevenfive,,,,,,,,,,,,,,,,,,,,,,,,,,,,,,,,,,,,,,,,,,,,,,,,,,,,,,,,,,,,,,,,,,,,,,,,,,,,,,,,,,,,,,,,,,,,,,,,,,,,,,,,,,,,,,,,,,,,,,,,,,,,,,,,,,,,,,,,,
,,5df2148f55742510c539232e,2026-03-17_10h38.13.648,kallum_motion_pilot_GIST_update_2,2026.1.1,Win32,60.0240096,5df2148f55742510c539232e,69b92ab4aef6dee357cd729a,69b92ec49ee5eb88a428d782,0.026,0.026,0,132,132,154,1,sixfive,,,,,,,,,,,,,,,,,,,,,,,,,,,,,,,,,,,,,,,,,,,,,,,,,,,,,,,,,,,,,,,,,,,,,,,,,,,,,,,,,,,,,,,,,,,,,,,,,,,,,,,,,,,,,,,,,,,,,,,,,,,,,,,,,,,,,,,,,
,,5df2148f55742510c539232e,2026-03-17_10h38.13.648,kallum_motion_pilot_GIST_update_2,2026.1.1,Win32,60.0240096,5df2148f55742510c539232e,69b92ab4aef6dee357cd729a,69b92ec49ee5eb88a428d782,0.026,0.026,0,133,133,102,1,eightsix,,,,,,,,,,,,,,,,,,,,,,,,,,,,,,,,,,,,,,,,,,,,,,,,,,,,,,,,,,,,,,,,,,,,,,,,,,,,,,,,,,,,,,,,,,,,,,,,,,,,,,,,,,,,,,,,,,,,,,,,,,,,,,,,,,,,,,,,,
,,5df2148f55742510c539232e,2026-03-17_10h38.13.648,kallum_motion_pilot_GIST_update_2,2026.1.1,Win32,60.0240096,5df2148f55742510c539232e,69b92ab4aef6dee357cd729a,69b92ec49ee5eb88a428d782,0.026,0.026,0,134,134,39,1,fourthree,,,,,,,,,,,,,,,,,,,,,,,,,,,,,,,,,,,,,,,,,,,,,,,,,,,,,,,,,,,,,,,,,,,,,,,,,,,,,,,,,,,,,,,,,,,,,,,,,,,,,,,,,,,,,,,,,,,,,,,,,,,,,,,,,,,,,,,,,
,,5df2148f55742510c539232e,2026-03-17_10h38.13.648,kallum_motion_pilot_GIST_update_2,2026.1.1,Win32,60.0240096,5df2148f55742510c539232e,69b92ab4aef6dee357cd729a,69b92ec49ee5eb88a428d782,0.026,0.026,0,135,135,147,1,sixeight,,,,,,,,,,,,,,,,,,,,,,,,,,,,,,,,,,,,,,,,,,,,,,,,,,,,,,,,,,,,,,,,,,,,,,,,,,,,,,,,,,,,,,,,,,,,,,,,,,,,,,,,,,,,,,,,,,,,,,,,,,,,,,,,,,,,,,,,,
,,5df2148f55742510c539232e,2026-03-17_10h38.13.648,kallum_motion_pilot_GIST_update_2,2026.1.1,Win32,60.0240096,5df2148f55742510c539232e,69b92ab4aef6dee357cd729a,69b92ec49ee5eb88a428d782,0.026,0.026,0,136,136,3,1,twofour,,,,,,,,,,,,,,,,,,,,,,,,,,,,,,,,,,,,,,,,,,,,,,,,,,,,,,,,,,,,,,,,,,,,,,,,,,,,,,,,,,,,,,,,,,,,,,,,,,,,,,,,,,,,,,,,,,,,,,,,,,,,,,,,,,,,,,,,,
,,5df2148f55742510c539232e,2026-03-17_10h38.13.648,kallum_motion_pilot_GIST_update_2,2026.1.1,Win32,60.0240096,5df2148f55742510c539232e,69b92ab4aef6dee357cd729a,69b92ec49ee5eb88a428d782,0.026,0.026,0,137,137,22,1,fourtwo,,,,,,,,,,,,,,,,,,,,,,,,,,,,,,,,,,,,,,,,,,,,,,,,,,,,,,,,,,,,,,,,,,,,,,,,,,,,,,,,,,,,,,,,,,,,,,,,,,,,,,,,,,,,,,,,,,,,,,,,,,,,,,,,,,,,,,,,,
,,5df2148f55742510c539232e,2026-03-17_10h38.13.648,kallum_motion_pilot_GIST_update_2,2026.1.1,Win32,60.0240096,5df2148f55742510c539232e,69b92ab4aef6dee357cd729a,69b92ec49ee5eb88a428d782,0.026,0.026,0,138,138,99,1,sixeight,,,,,,,,,,,,,,,,,,,,,,,,,,,,,,,,,,,,,,,,,,,,,,,,,,,,,,,,,,,,,,,,,,,,,,,,,,,,,,,,,,,,,,,,,,,,,,,,,,,,,,,,,,,,,,,,,,,,,,,,,,,,,,,,,,,,,,,,,
,,5df2148f55742510c539232e,2026-03-17_10h38.13.648,kallum_motion_pilot_GIST_update_2,2026.1.1,Win32,60.0240096,5df2148f55742510c539232e,69b92ab4aef6dee357cd729a,69b92ec49ee5eb88a428d782,0.026,0.026,0,139,139,159,1,eightseven,,,,,,,,,,,,,,,,,,,,,,,,,,,,,,,,,,,,,,,,,,,,,,,,,,,,,,,,,,,,,,,,,,,,,,,,,,,,,,,,,,,,,,,,,,,,,,,,,,,,,,,,,,,,,,,,,,,,,,,,,,,,,,,,,,,,,,,,,
,,5df2148f55742510c539232e,2026-03-17_10h38.13.648,kallum_motion_pilot_GIST_update_2,2026.1.1,Win32,60.0240096,5df2148f55742510c539232e,69b92ab4aef6dee357cd729a,69b92ec49ee5eb88a428d782,0.026,0.026,0,140,140,89,1,fiveseven,,,,,,,,,,,,,,,,,,,,,,,,,,,,,,,,,,,,,,,,,,,,,,,,,,,,,,,,,,,,,,,,,,,,,,,,,,,,,,,,,,,,,,,,,,,,,,,,,,,,,,,,,,,,,,,,,,,,,,,,,,,,,,,,,,,,,,,,,
,,5df2148f55742510c539232e,2026-03-17_10h38.13.648,kallum_motion_pilot_GIST_update_2,2026.1.1,Win32,60.0240096,5df2148f55742510c539232e,69b92ab4aef6dee357cd729a,69b92ec49ee5eb88a428d782,0.026,0.026,0,141,141,47,1,fourthree,,,,,,,,,,,,,,,,,,,,,,,,,,,,,,,,,,,,,,,,,,,,,,,,,,,,,,,,,,,,,,,,,,,,,,,,,,,,,,,,,,,,,,,,,,,,,,,,,,,,,,,,,,,,,,,,,,,,,,,,,,,,,,,,,,,,,,,,,
,,5df2148f55742510c539232e,2026-03-17_10h38.13.648,kallum_motion_pilot_GIST_update_2,2026.1.1,Win32,60.0240096,5df2148f55742510c539232e,69b92ab4aef6dee357cd729a,69b92ec49ee5eb88a428d782,0.026,0.026,0,142,142,131,1,sixeight,,,,,,,,,,,,,,,,,,,,,,,,,,,,,,,,,,,,,,,,,,,,,,,,,,,,,,,,,,,,,,,,,,,,,,,,,,,,,,,,,,,,,,,,,,,,,,,,,,,,,,,,,,,,,,,,,,,,,,,,,,,,,,,,,,,,,,,,,
,,5df2148f55742510c539232e,2026-03-17_10h38.13.648,kallum_motion_pilot_GIST_update_2,2026.1.1,Win32,60.0240096,5df2148f55742510c539232e,69b92ab4aef6dee357cd729a,69b92ec49ee5eb88a428d782,0.026,0.026,0,143,143,155,1,sixeight,,,,,,,,,,,,,,,,,,,,,,,,,,,,,,,,,,,,,,,,,,,,,,,,,,,,,,,,,,,,,,,,,,,,,,,,,,,,,,,,,,,,,,,,,,,,,,,,,,,,,,,,,,,,,,,,,,,,,,,,,,,,,,,,,,,,,,,,,
,,5df2148f55742510c539232e,2026-03-17_10h38.13.648,kallum_motion_pilot_GIST_update_2,2026.1.1,Win32,60.0240096,5df2148f55742510c539232e,69b92ab4aef6dee357cd729a,69b92ec49ee5eb88a428d782,0.027,0.027,0,144,144,124,1,sevenfive,,,,,,,,,,,,,,,,,,,,,,,,,,,,,,,,,,,,,,,,,,,,,,,,,,,,,,,,,,,,,,,,,,,,,,,,,,,,,,,,,,,,,,,,,,,,,,,,,,,,,,,,,,,,,,,,,,,,,,,,,,,,,,,,,,,,,,,,,
,,5df2148f55742510c539232e,2026-03-17_10h38.13.648,kallum_motion_pilot_GIST_update_2,2026.1.1,Win32,60.0240096,5df2148f55742510c539232e,69b92ab4aef6dee357cd729a,69b92ec49ee5eb88a428d782,0.027,0.027,0,145,145,111,1,eightseven,,,,,,,,,,,,,,,,,,,,,,,,,,,,,,,,,,,,,,,,,,,,,,,,,,,,,,,,,,,,,,,,,,,,,,,,,,,,,,,,,,,,,,,,,,,,,,,,,,,,,,,,,,,,,,,,,,,,,,,,,,,,,,,,,,,,,,,,,
,,5df2148f55742510c539232e,2026-03-17_10h38.13.648,kallum_motion_pilot_GIST_update_2,2026.1.1,Win32,60.0240096,5df2148f55742510c539232e,69b92ab4aef6dee357cd729a,69b92ec49ee5eb88a428d782,0.027,0.027,0,146,146,40,1,onetwo,,,,,,,,,,,,,,,,,,,,,,,,,,,,,,,,,,,,,,,,,,,,,,,,,,,,,,,,,,,,,,,,,,,,,,,,,,,,,,,,,,,,,,,,,,,,,,,,,,,,,,,,,,,,,,,,,,,,,,,,,,,,,,,,,,,,,,,,,
,,5df2148f55742510c539232e,2026-03-17_10h38.13.648,kallum_motion_pilot_GIST_update_2,2026.1.1,Win32,60.0240096,5df2148f55742510c539232e,69b92ab4aef6dee357cd729a,69b92ec49ee5eb88a428d782,0.027,0.027,0,147,147,138,1,sixfive,,,,,,,,,,,,,,,,,,,,,,,,,,,,,,,,,,,,,,,,,,,,,,,,,,,,,,,,,,,,,,,,,,,,,,,,,,,,,,,,,,,,,,,,,,,,,,,,,,,,,,,,,,,,,,,,,,,,,,,,,,,,,,,,,,,,,,,,,
,,5df2148f55742510c539232e,2026-03-17_10h38.13.648,kallum_motion_pilot_GIST_update_2,2026.1.1,Win32,60.0240096,5df2148f55742510c539232e,69b92ab4aef6dee357cd729a,69b92ec49ee5eb88a428d782,0.027,0.027,0,148,148,42,1,twoone,,,,,,,,,,,,,,,,,,,,,,,,,,,,,,,,,,,,,,,,,,,,,,,,,,,,,,,,,,,,,,,,,,,,,,,,,,,,,,,,,,,,,,,,,,,,,,,,,,,,,,,,,,,,,,,,,,,,,,,,,,,,,,,,,,,,,,,,,
,,5df2148f55742510c539232e,2026-03-17_10h38.13.648,kallum_motion_pilot_GIST_update_2,2026.1.1,Win32,60.0240096,5df2148f55742510c539232e,69b92ab4aef6dee357cd729a,69b92ec49ee5eb88a428d782,0.027,0.027,0,149,149,108,1,sevenfive,,,,,,,,,,,,,,,,,,,,,,,,,,,,,,,,,,,,,,,,,,,,,,,,,,,,,,,,,,,,,,,,,,,,,,,,,,,,,,,,,,,,,,,,,,,,,,,,,,,,,,,,,,,,,,,,,,,,,,,,,,,,,,,,,,,,,,,,,
,,5df2148f55742510c539232e,2026-03-17_10h38.13.648,kallum_motion_pilot_GIST_update_2,2026.1.1,Win32,60.0240096,5df2148f55742510c539232e,69b92ab4aef6dee357cd729a,69b92ec49ee5eb88a428d782,0.027,0.027,0,150,150,1,1,onethree,,,,,,,,,,,,,,,,,,,,,,,,,,,,,,,,,,,,,,,,,,,,,,,,,,,,,,,,,,,,,,,,,,,,,,,,,,,,,,,,,,,,,,,,,,,,,,,,,,,,,,,,,,,,,,,,,,,,,,,,,,,,,,,,,,,,,,,,,
,,5df2148f55742510c539232e,2026-03-17_10h38.13.648,kallum_motion_pilot_GIST_update_2,2026.1.1,Win32,60.0240096,5df2148f55742510c539232e,69b92ab4aef6dee357cd729a,69b92ec49ee5eb88a428d782,0.027,0.027,0,151,151,2,1,twoone,,,,,,,,,,,,,,,,,,,,,,,,,,,,,,,,,,,,,,,,,,,,,,,,,,,,,,,,,,,,,,,,,,,,,,,,,,,,,,,,,,,,,,,,,,,,,,,,,,,,,,,,,,,,,,,,,,,,,,,,,,,,,,,,,,,,,,,,,
,,5df2148f55742510c539232e,2026-03-17_10h38.13.648,kallum_motion_pilot_GIST_update_2,2026.1.1,Win32,60.0240096,5df2148f55742510c539232e,69b92ab4aef6dee357cd729a,69b92ec49ee5eb88a428d782,0.027,0.027,0,152,152,8,1,onetwo,,,,,,,,,,,,,,,,,,,,,,,,,,,,,,,,,,,,,,,,,,,,,,,,,,,,,,,,,,,,,,,,,,,,,,,,,,,,,,,,,,,,,,,,,,,,,,,,,,,,,,,,,,,,,,,,,,,,,,,,,,,,,,,,,,,,,,,,,
,,5df2148f55742510c539232e,2026-03-17_10h38.13.648,kallum_motion_pilot_GIST_update_2,2026.1.1,Win32,60.0240096,5df2148f55742510c539232e,69b92ab4aef6dee357cd729a,69b92ec49ee5eb88a428d782,0.027,0.027,0,153,153,16,1,onetwo,,,,,,,,,,,,,,,,,,,,,,,,,,,,,,,,,,,,,,,,,,,,,,,,,,,,,,,,,,,,,,,,,,,,,,,,,,,,,,,,,,,,,,,,,,,,,,,,,,,,,,,,,,,,,,,,,,,,,,,,,,,,,,,,,,,,,,,,,
,,5df2148f55742510c539232e,2026-03-17_10h38.13.648,kallum_motion_pilot_GIST_update_2,2026.1.1,Win32,60.0240096,5df2148f55742510c539232e,69b92ab4aef6dee357cd729a,69b92ec49ee5eb88a428d782,0.027,0.027,0,154,154,49,1,onethree,,,,,,,,,,,,,,,,,,,,,,,,,,,,,,,,,,,,,,,,,,,,,,,,,,,,,,,,,,,,,,,,,,,,,,,,,,,,,,,,,,,,,,,,,,,,,,,,,,,,,,,,,,,,,,,,,,,,,,,,,,,,,,,,,,,,,,,,,
,,5df2148f55742510c539232e,2026-03-17_10h38.13.648,kallum_motion_pilot_GIST_update_2,2026.1.1,Win32,60.0240096,5df2148f55742510c539232e,69b92ab4aef6dee357cd729a,69b92ec49ee5eb88a428d782,0.027,0.027,0,155,155,92,1,sevenfive,,,,,,,,,,,,,,,,,,,,,,,,,,,,,,,,,,,,,,,,,,,,,,,,,,,,,,,,,,,,,,,,,,,,,,,,,,,,,,,,,,,,,,,,,,,,,,,,,,,,,,,,,,,,,,,,,,,,,,,,,,,,,,,,,,,,,,,,,
,,5df2148f55742510c539232e,2026-03-17_10h38.13.648,kallum_motion_pilot_GIST_update_2,2026.1.1,Win32,60.0240096,5df2148f55742510c539232e,69b92ab4aef6dee357cd729a,69b92ec49ee5eb88a428d782,0.027,0.027,0,156,156,98,1,sixfive,,,,,,,,,,,,,,,,,,,,,,,,,,,,,,,,,,,,,,,,,,,,,,,,,,,,,,,,,,,,,,,,,,,,,,,,,,,,,,,,,,,,,,,,,,,,,,,,,,,,,,,,,,,,,,,,,,,,,,,,,,,,,,,,,,,,,,,,,
,,5df2148f55742510c539232e,2026-03-17_10h38.13.648,kallum_motion_pilot_GIST_update_2,2026.1.1,Win32,60.0240096,5df2148f55742510c539232e,69b92ab4aef6dee357cd729a,69b92ec49ee5eb88a428d782,0.027,0.027,0,157,157,136,1,fivesix,,,,,,,,,,,,,,,,,,,,,,,,,,,,,,,,,,,,,,,,,,,,,,,,,,,,,,,,,,,,,,,,,,,,,,,,,,,,,,,,,,,,,,,,,,,,,,,,,,,,,,,,,,,,,,,,,,,,,,,,,,,,,,,,,,,,,,,,,
,,5df2148f55742510c539232e,2026-03-17_10h38.13.648,kallum_motion_pilot_GIST_update_2,2026.1.1,Win32,60.0240096,5df2148f55742510c539232e,69b92ab4aef6dee357cd729a,69b92ec49ee5eb88a428d782,0.027,0.027,0,158,158,133,1,seveneight,,,,,,,,,,,,,,,,,,,,,,,,,,,,,,,,,,,,,,,,,,,,,,,,,,,,,,,,,,,,,,,,,,,,,,,,,,,,,,,,,,,,,,,,,,,,,,,,,,,,,,,,,,,,,,,,,,,,,,,,,,,,,,,,,,,,,,,,,
,,5df2148f55742510c539232e,2026-03-17_10h38.13.648,kallum_motion_pilot_GIST_update_2,2026.1.1,Win32,60.0240096,5df2148f55742510c539232e,69b92ab4aef6dee357cd729a,69b92ec49ee5eb88a428d782,0.027,0.027,0,159,159,140,1,sevenfive,,,,,,,,,,,,,,,,,,,,,,,,,,,,,,,,,,,,,,,,,,,,,,,,,,,,,,,,,,,,,,,,,,,,,,,,,,,,,,,,,,,,,,,,,,,,,,,,,,,,,,,,,,,,,,,,,,,,,,,,,,,,,,,,,,,,,,,,,
,,5df2148f55742510c539232e,2026-03-17_10h38.13.648,kallum_motion_pilot_GIST_update_2,2026.1.1,Win32,60.0240096,5df2148f55742510c539232e,69b92ab4aef6dee357cd729a,69b92ec49ee5eb88a428d782,0.027,0.027,0,160,160,146,1,sixfive,,,,,,,,,,,,,,,,,,,,,,,,,,,,,,,,,,,,,,,,,,,,,,,,,,,,,,,,,,,,,,,,,,,,,,,,,,,,,,,,,,,,,,,,,,,,,,,,,,,,,,,,,,,,,,,,,,,,,,,,,,,,,,,,,,,,,,,,,
,,5df2148f55742510c539232e,2026-03-17_10h38.13.648,kallum_motion_pilot_GIST_update_2,2026.1.1,Win32,60.0240096,5df2148f55742510c539232e,69b92ab4aef6dee357cd729a,69b92ec49ee5eb88a428d782,0.028,0.028,0,161,161,148,1,sevenfive,,,,,,,,,,,,,,,,,,,,,,,,,,,,,,,,,,,,,,,,,,,,,,,,,,,,,,,,,,,,,,,,,,,,,,,,,,,,,,,,,,,,,,,,,,,,,,,,,,,,,,,,,,,,,,,,,,,,,,,,,,,,,,,,,,,,,,,,,
,,5df2148f55742510c539232e,2026-03-17_10h38.13.648,kallum_motion_pilot_GIST_update_2,2026.1.1,Win32,60.0240096,5df2148f55742510c539232e,69b92ab4aef6dee357cd729a,69b92ec49ee5eb88a428d782,0.028,0.028,1,0,162,86,1,eightsix,,,,,,,,,,,,,,,,,,,,,,,,,,,,,,,,,,,,,,,,,,,,,,,,,,,,,,,,,,,,,,,,,,,,,,,,,,,,,,,,,,,,,,,,,,,,,,,,,,,,,,,,,,,,,,,,,,,,,,,,,,,,,,,,,,,,,,,,,
,,5df2148f55742510c539232e,2026-03-17_10h38.13.648,kallum_motion_pilot_GIST_update_2,2026.1.1,Win32,60.0240096,5df2148f55742510c539232e,69b92ab4aef6dee357cd729a,69b92ec49ee5eb88a428d782,0.028,0.028,1,1,163,95,1,eightseven,,,,,,,,,,,,,,,,,,,,,,,,,,,,,,,,,,,,,,,,,,,,,,,,,,,,,,,,,,,,,,,,,,,,,,,,,,,,,,,,,,,,,,,,,,,,,,,,,,,,,,,,,,,,,,,,,,,,,,,,,,,,,,,,,,,,,,,,,
,,5df2148f55742510c539232e,2026-03-17_10h38.13.648,kallum_motion_pilot_GIST_update_2,2026.1.1,Win32,60.0240096,5df2148f55742510c539232e,69b92ab4aef6dee357cd729a,69b92ec49ee5eb88a428d782,0.028,0.028,1,2,164,6,1,fourtwo,,,,,,,,,,,,,,,,,,,,,,,,,,,,,,,,,,,,,,,,,,,,,,,,,,,,,,,,,,,,,,,,,,,,,,,,,,,,,,,,,,,,,,,,,,,,,,,,,,,,,,,,,,,,,,,,,,,,,,,,,,,,,,,,,,,,,,,,,
,,5df2148f55742510c539232e,2026-03-17_10h38.13.648,kallum_motion_pilot_GIST_update_2,2026.1.1,Win32,60.0240096,5df2148f55742510c539232e,69b92ab4aef6dee357cd729a,69b92ec49ee5eb88a428d782,0.028,0.028,1,3,165,22,1,fourtwo,,,,,,,,,,,,,,,,,,,,,,,,,,,,,,,,,,,,,,,,,,,,,,,,,,,,,,,,,,,,,,,,,,,,,,,,,,,,,,,,,,,,,,,,,,,,,,,,,,,,,,,,,,,,,,,,,,,,,,,,,,,,,,,,,,,,,,,,,
,,5df2148f55742510c539232e,2026-03-17_10h38.13.648,kallum_motion_pilot_GIST_update_2,2026.1.1,Win32,60.0240096,5df2148f55742510c539232e,69b92ab4aef6dee357cd729a,69b92ec49ee5eb88a428d782,0.028,0.028,1,4,166,147,1,sixeight,,,,,,,,,,,,,,,,,,,,,,,,,,,,,,,,,,,,,,,,,,,,,,,,,,,,,,,,,,,,,,,,,,,,,,,,,,,,,,,,,,,,,,,,,,,,,,,,,,,,,,,,,,,,,,,,,,,,,,,,,,,,,,,,,,,,,,,,,
,,5df2148f55742510c539232e,2026-03-17_10h38.13.648,kallum_motion_pilot_GIST_update_2,2026.1.1,Win32,60.0240096,5df2148f55742510c539232e,69b92ab4aef6dee357cd729a,69b92ec49ee5eb88a428d782,0.028,0.028,1,5,167,34,1,twoone,,,,,,,,,,,,,,,,,,,,,,,,,,,,,,,,,,,,,,,,,,,,,,,,,,,,,,,,,,,,,,,,,,,,,,,,,,,,,,,,,,,,,,,,,,,,,,,,,,,,,,,,,,,,,,,,,,,,,,,,,,,,,,,,,,,,,,,,,
,,5df2148f55742510c539232e,2026-03-17_10h38.13.648,kallum_motion_pilot_GIST_update_2,2026.1.1,Win32,60.0240096,5df2148f55742510c539232e,69b92ab4aef6dee357cd729a,69b92ec49ee5eb88a428d782,0.028,0.028,1,6,168,129,1,fiveseven,,,,,,,,,,,,,,,,,,,,,,,,,,,,,,,,,,,,,,,,,,,,,,,,,,,,,,,,,,,,,,,,,,,,,,,,,,,,,,,,,,,,,,,,,,,,,,,,,,,,,,,,,,,,,,,,,,,,,,,,,,,,,,,,,,,,,,,,,
,,5df2148f55742510c539232e,2026-03-17_10h38.13.648,kallum_motion_pilot_GIST_update_2,2026.1.1,Win32,60.0240096,5df2148f55742510c539232e,69b92ab4aef6dee357cd729a,69b92ec49ee5eb88a428d782,0.028,0.028,1,7,169,12,1,threeone,,,,,,,,,,,,,,,,,,,,,,,,,,,,,,,,,,,,,,,,,,,,,,,,,,,,,,,,,,,,,,,,,,,,,,,,,,,,,,,,,,,,,,,,,,,,,,,,,,,,,,,,,,,,,,,,,,,,,,,,,,,,,,,,,,,,,,,,,
,,5df2148f55742510c539232e,2026-03-17_10h38.13.648,kallum_motion_pilot_GIST_update_2,2026.1.1,Win32,60.0240096,5df2148f55742510c539232e,69b92ab4aef6dee357cd729a,69b92ec49ee5eb88a428d782,0.028,0.028,1,8,170,121,1,fiveseven,,,,,,,,,,,,,,,,,,,,,,,,,,,,,,,,,,,,,,,,,,,,,,,,,,,,,,,,,,,,,,,,,,,,,,,,,,,,,,,,,,,,,,,,,,,,,,,,,,,,,,,,,,,,,,,,,,,,,,,,,,,,,,,,,,,,,,,,,
,,5df2148f55742510c539232e,2026-03-17_10h38.13.648,kallum_motion_pilot_GIST_update_2,2026.1.1,Win32,60.0240096,5df2148f55742510c539232e,69b92ab4aef6dee357cd729a,69b92ec49ee5eb88a428d782,0.028,0.028,1,9,171,105,1,fiveseven,,,,,,,,,,,,,,,,,,,,,,,,,,,,,,,,,,,,,,,,,,,,,,,,,,,,,,,,,,,,,,,,,,,,,,,,,,,,,,,,,,,,,,,,,,,,,,,,,,,,,,,,,,,,,,,,,,,,,,,,,,,,,,,,,,,,,,,,,
,,5df2148f55742510c539232e,2026-03-17_10h38.13.648,kallum_motion_pilot_GIST_update_2,2026.1.1,Win32,60.0240096,5df2148f55742510c539232e,69b92ab4aef6dee357cd729a,69b92ec49ee5eb88a428d782,0.028,0.028,1,10,172,58,1,twoone,,,,,,,,,,,,,,,,,,,,,,,,,,,,,,,,,,,,,,,,,,,,,,,,,,,,,,,,,,,,,,,,,,,,,,,,,,,,,,,,,,,,,,,,,,,,,,,,,,,,,,,,,,,,,,,,,,,,,,,,,,,,,,,,,,,,,,,,,
,,5df2148f55742510c539232e,2026-03-17_10h38.13.648,kallum_motion_pilot_GIST_update_2,2026.1.1,Win32,60.0240096,5df2148f55742510c539232e,69b92ab4aef6dee357cd729a,69b92ec49ee5eb88a428d782,0.028,0.028,1,11,173,145,1,fiveseven,,,,,,,,,,,,,,,,,,,,,,,,,,,,,,,,,,,,,,,,,,,,,,,,,,,,,,,,,,,,,,,,,,,,,,,,,,,,,,,,,,,,,,,,,,,,,,,,,,,,,,,,,,,,,,,,,,,,,,,,,,,,,,,,,,,,,,,,,
,,5df2148f55742510c539232e,2026-03-17_10h38.13.648,kallum_motion_pilot_GIST_update_2,2026.1.1,Win32,60.0240096,5df2148f55742510c539232e,69b92ab4aef6dee357cd729a,69b92ec49ee5eb88a428d782,0.029,0.029,1,12,174,14,1,fourtwo,,,,,,,,,,,,,,,,,,,,,,,,,,,,,,,,,,,,,,,,,,,,,,,,,,,,,,,,,,,,,,,,,,,,,,,,,,,,,,,,,,,,,,,,,,,,,,,,,,,,,,,,,,,,,,,,,,,,,,,,,,,,,,,,,,,,,,,,,
,,5df2148f55742510c539232e,2026-03-17_10h38.13.648,kallum_motion_pilot_GIST_update_2,2026.1.1,Win32,60.0240096,5df2148f55742510c539232e,69b92ab4aef6dee357cd729a,69b92ec49ee5eb88a428d782,0.029,0.029,1,13,175,101,1,seveneight,,,,,,,,,,,,,,,,,,,,,,,,,,,,,,,,,,,,,,,,,,,,,,,,,,,,,,,,,,,,,,,,,,,,,,,,,,,,,,,,,,,,,,,,,,,,,,,,,,,,,,,,,,,,,,,,,,,,,,,,,,,,,,,,,,,,,,,,,
,,5df2148f55742510c539232e,2026-03-17_10h38.13.648,kallum_motion_pilot_GIST_update_2,2026.1.1,Win32,60.0240096,5df2148f55742510c539232e,69b92ab4aef6dee357cd729a,69b92ec49ee5eb88a428d782,0.029,0.029,1,14,176,109,1,seveneight,,,,,,,,,,,,,,,,,,,,,,,,,,,,,,,,,,,,,,,,,,,,,,,,,,,,,,,,,,,,,,,,,,,,,,,,,,,,,,,,,,,,,,,,,,,,,,,,,,,,,,,,,,,,,,,,,,,,,,,,,,,,,,,,,,,,,,,,,
,,5df2148f55742510c539232e,2026-03-17_10h38.13.648,kallum_motion_pilot_GIST_update_2,2026.1.1,Win32,60.0240096,5df2148f55742510c539232e,69b92ab4aef6dee357cd729a,69b92ec49ee5eb88a428d782,0.029,0.029,1,15,177,56,1,onetwo,,,,,,,,,,,,,,,,,,,,,,,,,,,,,,,,,,,,,,,,,,,,,,,,,,,,,,,,,,,,,,,,,,,,,,,,,,,,,,,,,,,,,,,,,,,,,,,,,,,,,,,,,,,,,,,,,,,,,,,,,,,,,,,,,,,,,,,,,
,,5df2148f55742510c539232e,2026-03-17_10h38.13.648,kallum_motion_pilot_GIST_update_2,2026.1.1,Win32,60.0240096,5df2148f55742510c539232e,69b92ab4aef6dee357cd729a,69b92ec49ee5eb88a428d782,0.029,0.029,1,16,178,53,1,threefour,,,,,,,,,,,,,,,,,,,,,,,,,,,,,,,,,,,,,,,,,,,,,,,,,,,,,,,,,,,,,,,,,,,,,,,,,,,,,,,,,,,,,,,,,,,,,,,,,,,,,,,,,,,,,,,,,,,,,,,,,,,,,,,,,,,,,,,,,
,,5df2148f55742510c539232e,2026-03-17_10h38.13.648,kallum_motion_pilot_GIST_update_2,2026.1.1,Win32,60.0240096,5df2148f55742510c539232e,69b92ab4aef6dee357cd729a,69b92ec49ee5eb88a428d782,0.029,0.029,1,17,179,87,1,eightseven,,,,,,,,,,,,,,,,,,,,,,,,,,,,,,,,,,,,,,,,,,,,,,,,,,,,,,,,,,,,,,,,,,,,,,,,,,,,,,,,,,,,,,,,,,,,,,,,,,,,,,,,,,,,,,,,,,,,,,,,,,,,,,,,,,,,,,,,,
,,5df2148f55742510c539232e,2026-03-17_10h38.13.648,kallum_motion_pilot_GIST_update_2,2026.1.1,Win32,60.0240096,5df2148f55742510c539232e,69b92ab4aef6dee357cd729a,69b92ec49ee5eb88a428d782,0.029,0.029,1,18,180,11,1,twofour,,,,,,,,,,,,,,,,,,,,,,,,,,,,,,,,,,,,,,,,,,,,,,,,,,,,,,,,,,,,,,,,,,,,,,,,,,,,,,,,,,,,,,,,,,,,,,,,,,,,,,,,,,,,,,,,,,,,,,,,,,,,,,,,,,,,,,,,,
,,5df2148f55742510c539232e,2026-03-17_10h38.13.648,kallum_motion_pilot_GIST_update_2,2026.1.1,Win32,60.0240096,5df2148f55742510c539232e,69b92ab4aef6dee357cd729a,69b92ec49ee5eb88a428d782,0.029,0.029,1,19,181,125,1,seveneight,,,,,,,,,,,,,,,,,,,,,,,,,,,,,,,,,,,,,,,,,,,,,,,,,,,,,,,,,,,,,,,,,,,,,,,,,,,,,,,,,,,,,,,,,,,,,,,,,,,,,,,,,,,,,,,,,,,,,,,,,,,,,,,,,,,,,,,,,
,,5df2148f55742510c539232e,2026-03-17_10h38.13.648,kallum_motion_pilot_GIST_update_2,2026.1.1,Win32,60.0240096,5df2148f55742510c539232e,69b92ab4aef6dee357cd729a,69b92ec49ee5eb88a428d782,0.029,0.029,1,20,182,118,1,eightsix,,,,,,,,,,,,,,,,,,,,,,,,,,,,,,,,,,,,,,,,,,,,,,,,,,,,,,,,,,,,,,,,,,,,,,,,,,,,,,,,,,,,,,,,,,,,,,,,,,,,,,,,,,,,,,,,,,,,,,,,,,,,,,,,,,,,,,,,,
,,5df2148f55742510c539232e,2026-03-17_10h38.13.648,kallum_motion_pilot_GIST_update_2,2026.1.1,Win32,60.0240096,5df2148f55742510c539232e,69b92ab4aef6dee357cd729a,69b92ec49ee5eb88a428d782,0.029,0.029,1,21,183,161,1,fiveseven,,,,,,,,,,,,,,,,,,,,,,,,,,,,,,,,,,,,,,,,,,,,,,,,,,,,,,,,,,,,,,,,,,,,,,,,,,,,,,,,,,,,,,,,,,,,,,,,,,,,,,,,,,,,,,,,,,,,,,,,,,,,,,,,,,,,,,,,,
,,5df2148f55742510c539232e,2026-03-17_10h38.13.648,kallum_motion_pilot_GIST_update_2,2026.1.1,Win32,60.0240096,5df2148f55742510c539232e,69b92ab4aef6dee357cd729a,69b92ec49ee5eb88a428d782,0.029,0.029,1,22,184,126,1,eightsix,,,,,,,,,,,,,,,,,,,,,,,,,,,,,,,,,,,,,,,,,,,,,,,,,,,,,,,,,,,,,,,,,,,,,,,,,,,,,,,,,,,,,,,,,,,,,,,,,,,,,,,,,,,,,,,,,,,,,,,,,,,,,,,,,,,,,,,,,
,,5df2148f55742510c539232e,2026-03-17_10h38.13.648,kallum_motion_pilot_GIST_update_2,2026.1.1,Win32,60.0240096,5df2148f55742510c539232e,69b92ab4aef6dee357cd729a,69b92ec49ee5eb88a428d782,0.029,0.029,1,23,185,148,1,sevenfive,,,,,,,,,,,,,,,,,,,,,,,,,,,,,,,,,,,,,,,,,,,,,,,,,,,,,,,,,,,,,,,,,,,,,,,,,,,,,,,,,,,,,,,,,,,,,,,,,,,,,,,,,,,,,,,,,,,,,,,,,,,,,,,,,,,,,,,,,
,,5df2148f55742510c539232e,2026-03-17_10h38.13.648,kallum_motion_pilot_GIST_update_2,2026.1.1,Win32,60.0240096,5df2148f55742510c539232e,69b92ab4aef6dee357cd729a,69b92ec49ee5eb88a428d782,0.029,0.029,1,24,186,156,1,sevenfive,,,,,,,,,,,,,,,,,,,,,,,,,,,,,,,,,,,,,,,,,,,,,,,,,,,,,,,,,,,,,,,,,,,,,,,,,,,,,,,,,,,,,,,,,,,,,,,,,,,,,,,,,,,,,,,,,,,,,,,,,,,,,,,,,,,,,,,,,
,,5df2148f55742510c539232e,2026-03-17_10h38.13.648,kallum_motion_pilot_GIST_update_2,2026.1.1,Win32,60.0240096,5df2148f55742510c539232e,69b92ab4aef6dee357cd729a,69b92ec49ee5eb88a428d782,0.029,0.029,1,25,187,64,1,onetwo,,,,,,,,,,,,,,,,,,,,,,,,,,,,,,,,,,,,,,,,,,,,,,,,,,,,,,,,,,,,,,,,,,,,,,,,,,,,,,,,,,,,,,,,,,,,,,,,,,,,,,,,,,,,,,,,,,,,,,,,,,,,,,,,,,,,,,,,,
,,5df2148f55742510c539232e,2026-03-17_10h38.13.648,kallum_motion_pilot_GIST_update_2,2026.1.1,Win32,60.0240096,5df2148f55742510c539232e,69b92ab4aef6dee357cd729a,69b92ec49ee5eb88a428d782,0.029,0.029,1,26,188,59,1,twofour,,,,,,,,,,,,,,,,,,,,,,,,,,,,,,,,,,,,,,,,,,,,,,,,,,,,,,,,,,,,,,,,,,,,,,,,,,,,,,,,,,,,,,,,,,,,,,,,,,,,,,,,,,,,,,,,,,,,,,,,,,,,,,,,,,,,,,,,,
,,5df2148f55742510c539232e,2026-03-17_10h38.13.648,kallum_motion_pilot_GIST_update_2,2026.1.1,Win32,60.0240096,5df2148f55742510c539232e,69b92ab4aef6dee357cd729a,69b92ec49ee5eb88a428d782,0.03,0.03,1,27,189,2,1,twoone,,,,,,,,,,,,,,,,,,,,,,,,,,,,,,,,,,,,,,,,,,,,,,,,,,,,,,,,,,,,,,,,,,,,,,,,,,,,,,,,,,,,,,,,,,,,,,,,,,,,,,,,,,,,,,,,,,,,,,,,,,,,,,,,,,,,,,,,,
,,5df2148f55742510c539232e,2026-03-17_10h38.13.648,kallum_motion_pilot_GIST_update_2,2026.1.1,Win32,60.0240096,5df2148f55742510c539232e,69b92ab4aef6dee357cd729a,69b92ec49ee5eb88a428d782,0.03,0.03,1,28,190,115,1,sixeight,,,,,,,,,,,,,,,,,,,,,,,,,,,,,,,,,,,,,,,,,,,,,,,,,,,,,,,,,,,,,,,,,,,,,,,,,,,,,,,,,,,,,,,,,,,,,,,,,,,,,,,,,,,,,,,,,,,,,,,,,,,,,,,,,,,,,,,,,
,,5df2148f55742510c539232e,2026-03-17_10h38.13.648,kallum_motion_pilot_GIST_update_2,2026.1.1,Win32,60.0240096,5df2148f55742510c539232e,69b92ab4aef6dee357cd729a,69b92ec49ee5eb88a428d782,0.03,0.03,1,29,191,140,1,sevenfive,,,,,,,,,,,,,,,,,,,,,,,,,,,,,,,,,,,,,,,,,,,,,,,,,,,,,,,,,,,,,,,,,,,,,,,,,,,,,,,,,,,,,,,,,,,,,,,,,,,,,,,,,,,,,,,,,,,,,,,,,,,,,,,,,,,,,,,,,
,,5df2148f55742510c539232e,2026-03-17_10h38.13.648,kallum_motion_pilot_GIST_update_2,2026.1.1,Win32,60.0240096,5df2148f55742510c539232e,69b92ab4aef6dee357cd729a,69b92ec49ee5eb88a428d782,0.03,0.03,1,30,192,44,1,threeone,,,,,,,,,,,,,,,,,,,,,,,,,,,,,,,,,,,,,,,,,,,,,,,,,,,,,,,,,,,,,,,,,,,,,,,,,,,,,,,,,,,,,,,,,,,,,,,,,,,,,,,,,,,,,,,,,,,,,,,,,,,,,,,,,,,,,,,,,
,,5df2148f55742510c539232e,2026-03-17_10h38.13.648,kallum_motion_pilot_GIST_update_2,2026.1.1,Win32,60.0240096,5df2148f55742510c539232e,69b92ab4aef6dee357cd729a,69b92ec49ee5eb88a428d782,0.03,0.03,1,31,193,4,1,threeone,,,,,,,,,,,,,,,,,,,,,,,,,,,,,,,,,,,,,,,,,,,,,,,,,,,,,,,,,,,,,,,,,,,,,,,,,,,,,,,,,,,,,,,,,,,,,,,,,,,,,,,,,,,,,,,,,,,,,,,,,,,,,,,,,,,,,,,,,
,,5df2148f55742510c539232e,2026-03-17_10h38.13.648,kallum_motion_pilot_GIST_update_2,2026.1.1,Win32,60.0240096,5df2148f55742510c539232e,69b92ab4aef6dee357cd729a,69b92ec49ee5eb88a428d782,0.03,0.03,1,32,194,138,1,sixfive,,,,,,,,,,,,,,,,,,,,,,,,,,,,,,,,,,,,,,,,,,,,,,,,,,,,,,,,,,,,,,,,,,,,,,,,,,,,,,,,,,,,,,,,,,,,,,,,,,,,,,,,,,,,,,,,,,,,,,,,,,,,,,,,,,,,,,,,,
,,5df2148f55742510c539232e,2026-03-17_10h38.13.648,kallum_motion_pilot_GIST_update_2,2026.1.1,Win32,60.0240096,5df2148f55742510c539232e,69b92ab4aef6dee357cd729a,69b92ec49ee5eb88a428d782,0.03,0.03,1,33,195,23,1,fourthree,,,,,,,,,,,,,,,,,,,,,,,,,,,,,,,,,,,,,,,,,,,,,,,,,,,,,,,,,,,,,,,,,,,,,,,,,,,,,,,,,,,,,,,,,,,,,,,,,,,,,,,,,,,,,,,,,,,,,,,,,,,,,,,,,,,,,,,,,
,,5df2148f55742510c539232e,2026-03-17_10h38.13.648,kallum_motion_pilot_GIST_update_2,2026.1.1,Win32,60.0240096,5df2148f55742510c539232e,69b92ab4aef6dee357cd729a,69b92ec49ee5eb88a428d782,0.03,0.03,1,34,196,7,1,fourthree,,,,,,,,,,,,,,,,,,,,,,,,,,,,,,,,,,,,,,,,,,,,,,,,,,,,,,,,,,,,,,,,,,,,,,,,,,,,,,,,,,,,,,,,,,,,,,,,,,,,,,,,,,,,,,,,,,,,,,,,,,,,,,,,,,,,,,,,,
,,5df2148f55742510c539232e,2026-03-17_10h38.13.648,kallum_motion_pilot_GIST_update_2,2026.1.1,Win32,60.0240096,5df2148f55742510c539232e,69b92ab4aef6dee357cd729a,69b92ec49ee5eb88a428d782,0.03,0.03,1,35,197,32,1,onetwo,,,,,,,,,,,,,,,,,,,,,,,,,,,,,,,,,,,,,,,,,,,,,,,,,,,,,,,,,,,,,,,,,,,,,,,,,,,,,,,,,,,,,,,,,,,,,,,,,,,,,,,,,,,,,,,,,,,,,,,,,,,,,,,,,,,,,,,,,
,,5df2148f55742510c539232e,2026-03-17_10h38.13.648,kallum_motion_pilot_GIST_update_2,2026.1.1,Win32,60.0240096,5df2148f55742510c539232e,69b92ab4aef6dee357cd729a,69b92ec49ee5eb88a428d782,0.03,0.03,1,36,198,152,1,fivesix,,,,,,,,,,,,,,,,,,,,,,,,,,,,,,,,,,,,,,,,,,,,,,,,,,,,,,,,,,,,,,,,,,,,,,,,,,,,,,,,,,,,,,,,,,,,,,,,,,,,,,,,,,,,,,,,,,,,,,,,,,,,,,,,,,,,,,,,,
,,5df2148f55742510c539232e,2026-03-17_10h38.13.648,kallum_motion_pilot_GIST_update_2,2026.1.1,Win32,60.0240096,5df2148f55742510c539232e,69b92ab4aef6dee357cd729a,69b92ec49ee5eb88a428d782,0.03,0.03,1,37,199,144,1,fivesix,,,,,,,,,,,,,,,,,,,,,,,,,,,,,,,,,,,,,,,,,,,,,,,,,,,,,,,,,,,,,,,,,,,,,,,,,,,,,,,,,,,,,,,,,,,,,,,,,,,,,,,,,,,,,,,,,,,,,,,,,,,,,,,,,,,,,,,,,
,,5df2148f55742510c539232e,2026-03-17_10h38.13.648,kallum_motion_pilot_GIST_update_2,2026.1.1,Win32,60.0240096,5df2148f55742510c539232e,69b92ab4aef6dee357cd729a,69b92ec49ee5eb88a428d782,0.03,0.03,1,38,200,19,1,twofour,,,,,,,,,,,,,,,,,,,,,,,,,,,,,,,,,,,,,,,,,,,,,,,,,,,,,,,,,,,,,,,,,,,,,,,,,,,,,,,,,,,,,,,,,,,,,,,,,,,,,,,,,,,,,,,,,,,,,,,,,,,,,,,,,,,,,,,,,
,,5df2148f55742510c539232e,2026-03-17_10h38.13.648,kallum_motion_pilot_GIST_update_2,2026.1.1,Win32,60.0240096,5df2148f55742510c539232e,69b92ab4aef6dee357cd729a,69b92ec49ee5eb88a428d782,0.03,0.03,1,39,201,132,1,sevenfive,,,,,,,,,,,,,,,,,,,,,,,,,,,,,,,,,,,,,,,,,,,,,,,,,,,,,,,,,,,,,,,,,,,,,,,,,,,,,,,,,,,,,,,,,,,,,,,,,,,,,,,,,,,,,,,,,,,,,,,,,,,,,,,,,,,,,,,,,
,,5df2148f55742510c539232e,2026-03-17_10h38.13.648,kallum_motion_pilot_GIST_update_2,2026.1.1,Win32,60.0240096,5df2148f55742510c539232e,69b92ab4aef6dee357cd729a,69b92ec49ee5eb88a428d782,0.03,0.03,1,40,202,20,1,threeone,,,,,,,,,,,,,,,,,,,,,,,,,,,,,,,,,,,,,,,,,,,,,,,,,,,,,,,,,,,,,,,,,,,,,,,,,,,,,,,,,,,,,,,,,,,,,,,,,,,,,,,,,,,,,,,,,,,,,,,,,,,,,,,,,,,,,,,,,
,,5df2148f55742510c539232e,2026-03-17_10h38.13.648,kallum_motion_pilot_GIST_update_2,2026.1.1,Win32,60.0240096,5df2148f55742510c539232e,69b92ab4aef6dee357cd729a,69b92ec49ee5eb88a428d782,0.03,0.03,1,41,203,67,1,twofour,,,,,,,,,,,,,,,,,,,,,,,,,,,,,,,,,,,,,,,,,,,,,,,,,,,,,,,,,,,,,,,,,,,,,,,,,,,,,,,,,,,,,,,,,,,,,,,,,,,,,,,,,,,,,,,,,,,,,,,,,,,,,,,,,,,,,,,,,
,,5df2148f55742510c539232e,2026-03-17_10h38.13.648,kallum_motion_pilot_GIST_update_2,2026.1.1,Win32,60.0240096,5df2148f55742510c539232e,69b92ab4aef6dee357cd729a,69b92ec49ee5eb88a428d782,0.03,0.03,1,42,204,127,1,eightseven,,,,,,,,,,,,,,,,,,,,,,,,,,,,,,,,,,,,,,,,,,,,,,,,,,,,,,,,,,,,,,,,,,,,,,,,,,,,,,,,,,,,,,,,,,,,,,,,,,,,,,,,,,,,,,,,,,,,,,,,,,,,,,,,,,,,,,,,,
,,5df2148f55742510c539232e,2026-03-17_10h38.13.648,kallum_motion_pilot_GIST_update_2,2026.1.1,Win32,60.0240096,5df2148f55742510c539232e,69b92ab4aef6dee357cd729a,69b92ec49ee5eb88a428d782,0.03,0.03,1,43,205,18,1,twoone,,,,,,,,,,,,,,,,,,,,,,,,,,,,,,,,,,,,,,,,,,,,,,,,,,,,,,,,,,,,,,,,,,,,,,,,,,,,,,,,,,,,,,,,,,,,,,,,,,,,,,,,,,,,,,,,,,,,,,,,,,,,,,,,,,,,,,,,,
,,5df2148f55742510c539232e,2026-03-17_10h38.13.648,kallum_motion_pilot_GIST_update_2,2026.1.1,Win32,60.0240096,5df2148f55742510c539232e,69b92ab4aef6dee357cd729a,69b92ec49ee5eb88a428d782,0.03,0.03,1,44,206,130,1,sixfive,,,,,,,,,,,,,,,,,,,,,,,,,,,,,,,,,,,,,,,,,,,,,,,,,,,,,,,,,,,,,,,,,,,,,,,,,,,,,,,,,,,,,,,,,,,,,,,,,,,,,,,,,,,,,,,,,,,,,,,,,,,,,,,,,,,,,,,,,
,,5df2148f55742510c539232e,2026-03-17_10h38.13.648,kallum_motion_pilot_GIST_update_2,2026.1.1,Win32,60.0240096,5df2148f55742510c539232e,69b92ab4aef6dee357cd729a,69b92ec49ee5eb88a428d782,0.031,0.031,1,45,207,90,1,sixfive,,,,,,,,,,,,,,,,,,,,,,,,,,,,,,,,,,,,,,,,,,,,,,,,,,,,,,,,,,,,,,,,,,,,,,,,,,,,,,,,,,,,,,,,,,,,,,,,,,,,,,,,,,,,,,,,,,,,,,,,,,,,,,,,,,,,,,,,,
,,5df2148f55742510c539232e,2026-03-17_10h38.13.648,kallum_motion_pilot_GIST_update_2,2026.1.1,Win32,60.0240096,5df2148f55742510c539232e,69b92ab4aef6dee357cd729a,69b92ec49ee5eb88a428d782,0.031,0.031,1,46,208,107,1,sixeight,,,,,,,,,,,,,,,,,,,,,,,,,,,,,,,,,,,,,,,,,,,,,,,,,,,,,,,,,,,,,,,,,,,,,,,,,,,,,,,,,,,,,,,,,,,,,,,,,,,,,,,,,,,,,,,,,,,,,,,,,,,,,,,,,,,,,,,,,
,,5df2148f55742510c539232e,2026-03-17_10h38.13.648,kallum_motion_pilot_GIST_update_2,2026.1.1,Win32,60.0240096,5df2148f55742510c539232e,69b92ab4aef6dee357cd729a,69b92ec49ee5eb88a428d782,0.031,0.031,1,47,209,25,1,onethree,,,,,,,,,,,,,,,,,,,,,,,,,,,,,,,,,,,,,,,,,,,,,,,,,,,,,,,,,,,,,,,,,,,,,,,,,,,,,,,,,,,,,,,,,,,,,,,,,,,,,,,,,,,,,,,,,,,,,,,,,,,,,,,,,,,,,,,,,
,,5df2148f55742510c539232e,2026-03-17_10h38.13.648,kallum_motion_pilot_GIST_update_2,2026.1.1,Win32,60.0240096,5df2148f55742510c539232e,69b92ab4aef6dee357cd729a,69b92ec49ee5eb88a428d782,0.031,0.031,1,48,210,21,1,threefour,,,,,,,,,,,,,,,,,,,,,,,,,,,,,,,,,,,,,,,,,,,,,,,,,,,,,,,,,,,,,,,,,,,,,,,,,,,,,,,,,,,,,,,,,,,,,,,,,,,,,,,,,,,,,,,,,,,,,,,,,,,,,,,,,,,,,,,,,
,,5df2148f55742510c539232e,2026-03-17_10h38.13.648,kallum_motion_pilot_GIST_update_2,2026.1.1,Win32,60.0240096,5df2148f55742510c539232e,69b92ab4aef6dee357cd729a,69b92ec49ee5eb88a428d782,0.031,0.031,1,49,211,15,1,fourthree,,,,,,,,,,,,,,,,,,,,,,,,,,,,,,,,,,,,,,,,,,,,,,,,,,,,,,,,,,,,,,,,,,,,,,,,,,,,,,,,,,,,,,,,,,,,,,,,,,,,,,,,,,,,,,,,,,,,,,,,,,,,,,,,,,,,,,,,,
,,5df2148f55742510c539232e,2026-03-17_10h38.13.648,kallum_motion_pilot_GIST_update_2,2026.1.1,Win32,60.0240096,5df2148f55742510c539232e,69b92ab4aef6dee357cd729a,69b92ec49ee5eb88a428d782,0.031,0.031,1,50,212,96,1,fivesix,,,,,,,,,,,,,,,,,,,,,,,,,,,,,,,,,,,,,,,,,,,,,,,,,,,,,,,,,,,,,,,,,,,,,,,,,,,,,,,,,,,,,,,,,,,,,,,,,,,,,,,,,,,,,,,,,,,,,,,,,,,,,,,,,,,,,,,,,
,,5df2148f55742510c539232e,2026-03-17_10h38.13.648,kallum_motion_pilot_GIST_update_2,2026.1.1,Win32,60.0240096,5df2148f55742510c539232e,69b92ab4aef6dee357cd729a,69b92ec49ee5eb88a428d782,0.031,0.031,1,51,213,149,1,seveneight,,,,,,,,,,,,,,,,,,,,,,,,,,,,,,,,,,,,,,,,,,,,,,,,,,,,,,,,,,,,,,,,,,,,,,,,,,,,,,,,,,,,,,,,,,,,,,,,,,,,,,,,,,,,,,,,,,,,,,,,,,,,,,,,,,,,,,,,,
,,5df2148f55742510c539232e,2026-03-17_10h38.13.648,kallum_motion_pilot_GIST_update_2,2026.1.1,Win32,60.0240096,5df2148f55742510c539232e,69b92ab4aef6dee357cd729a,69b92ec49ee5eb88a428d782,0.031,0.031,1,52,214,66,1,twoone,,,,,,,,,,,,,,,,,,,,,,,,,,,,,,,,,,,,,,,,,,,,,,,,,,,,,,,,,,,,,,,,,,,,,,,,,,,,,,,,,,,,,,,,,,,,,,,,,,,,,,,,,,,,,,,,,,,,,,,,,,,,,,,,,,,,,,,,,
,,5df2148f55742510c539232e,2026-03-17_10h38.13.648,kallum_motion_pilot_GIST_update_2,2026.1.1,Win32,60.0240096,5df2148f55742510c539232e,69b92ab4aef6dee357cd729a,69b92ec49ee5eb88a428d782,0.031,0.031,1,53,215,100,1,sevenfive,,,,,,,,,,,,,,,,,,,,,,,,,,,,,,,,,,,,,,,,,,,,,,,,,,,,,,,,,,,,,,,,,,,,,,,,,,,,,,,,,,,,,,,,,,,,,,,,,,,,,,,,,,,,,,,,,,,,,,,,,,,,,,,,,,,,,,,,,
,,5df2148f55742510c539232e,2026-03-17_10h38.13.648,kallum_motion_pilot_GIST_update_2,2026.1.1,Win32,60.0240096,5df2148f55742510c539232e,69b92ab4aef6dee357cd729a,69b92ec49ee5eb88a428d782,0.031,0.031,1,54,216,113,1,fiveseven,,,,,,,,,,,,,,,,,,,,,,,,,,,,,,,,,,,,,,,,,,,,,,,,,,,,,,,,,,,,,,,,,,,,,,,,,,,,,,,,,,,,,,,,,,,,,,,,,,,,,,,,,,,,,,,,,,,,,,,,,,,,,,,,,,,,,,,,,
,,5df2148f55742510c539232e,2026-03-17_10h38.13.648,kallum_motion_pilot_GIST_update_2,2026.1.1,Win32,60.0240096,5df2148f55742510c539232e,69b92ab4aef6dee357cd729a,69b92ec49ee5eb88a428d782,0.031,0.031,1,55,217,108,1,sevenfive,,,,,,,,,,,,,,,,,,,,,,,,,,,,,,,,,,,,,,,,,,,,,,,,,,,,,,,,,,,,,,,,,,,,,,,,,,,,,,,,,,,,,,,,,,,,,,,,,,,,,,,,,,,,,,,,,,,,,,,,,,,,,,,,,,,,,,,,,
,,5df2148f55742510c539232e,2026-03-17_10h38.13.648,kallum_motion_pilot_GIST_update_2,2026.1.1,Win32,60.0240096,5df2148f55742510c539232e,69b92ab4aef6dee357cd729a,69b92ec49ee5eb88a428d782,0.031,0.031,1,56,218,160,1,fivesix,,,,,,,,,,,,,,,,,,,,,,,,,,,,,,,,,,,,,,,,,,,,,,,,,,,,,,,,,,,,,,,,,,,,,,,,,,,,,,,,,,,,,,,,,,,,,,,,,,,,,,,,,,,,,,,,,,,,,,,,,,,,,,,,,,,,,,,,,
,,5df2148f55742510c539232e,2026-03-17_10h38.13.648,kallum_motion_pilot_GIST_update_2,2026.1.1,Win32,60.0240096,5df2148f55742510c539232e,69b92ab4aef6dee357cd729a,69b92ec49ee5eb88a428d782,0.031,0.031,1,57,219,93,1,seveneight,,,,,,,,,,,,,,,,,,,,,,,,,,,,,,,,,,,,,,,,,,,,,,,,,,,,,,,,,,,,,,,,,,,,,,,,,,,,,,,,,,,,,,,,,,,,,,,,,,,,,,,,,,,,,,,,,,,,,,,,,,,,,,,,,,,,,,,,,
,,5df2148f55742510c539232e,2026-03-17_10h38.13.648,kallum_motion_pilot_GIST_update_2,2026.1.1,Win32,60.0240096,5df2148f55742510c539232e,69b92ab4aef6dee357cd729a,69b92ec49ee5eb88a428d782,0.031,0.031,1,58,220,141,1,seveneight,,,,,,,,,,,,,,,,,,,,,,,,,,,,,,,,,,,,,,,,,,,,,,,,,,,,,,,,,,,,,,,,,,,,,,,,,,,,,,,,,,,,,,,,,,,,,,,,,,,,,,,,,,,,,,,,,,,,,,,,,,,,,,,,,,,,,,,,,
,,5df2148f55742510c539232e,2026-03-17_10h38.13.648,kallum_motion_pilot_GIST_update_2,2026.1.1,Win32,60.0240096,5df2148f55742510c539232e,69b92ab4aef6dee357cd729a,69b92ec49ee5eb88a428d782,0.031,0.031,1,59,221,102,1,eightsix,,,,,,,,,,,,,,,,,,,,,,,,,,,,,,,,,,,,,,,,,,,,,,,,,,,,,,,,,,,,,,,,,,,,,,,,,,,,,,,,,,,,,,,,,,,,,,,,,,,,,,,,,,,,,,,,,,,,,,,,,,,,,,,,,,,,,,,,,
,,5df2148f55742510c539232e,2026-03-17_10h38.13.648,kallum_motion_pilot_GIST_update_2,2026.1.1,Win32,60.0240096,5df2148f55742510c539232e,69b92ab4aef6dee357cd729a,69b92ec49ee5eb88a428d782,0.031,0.031,1,60,222,48,1,onetwo,,,,,,,,,,,,,,,,,,,,,,,,,,,,,,,,,,,,,,,,,,,,,,,,,,,,,,,,,,,,,,,,,,,,,,,,,,,,,,,,,,,,,,,,,,,,,,,,,,,,,,,,,,,,,,,,,,,,,,,,,,,,,,,,,,,,,,,,,
,,5df2148f55742510c539232e,2026-03-17_10h38.13.648,kallum_motion_pilot_GIST_update_2,2026.1.1,Win32,60.0240096,5df2148f55742510c539232e,69b92ab4aef6dee357cd729a,69b92ec49ee5eb88a428d782,0.031,0.031,1,61,223,128,1,fivesix,,,,,,,,,,,,,,,,,,,,,,,,,,,,,,,,,,,,,,,,,,,,,,,,,,,,,,,,,,,,,,,,,,,,,,,,,,,,,,,,,,,,,,,,,,,,,,,,,,,,,,,,,,,,,,,,,,,,,,,,,,,,,,,,,,,,,,,,,
,,5df2148f55742510c539232e,2026-03-17_10h38.13.648,kallum_motion_pilot_GIST_update_2,2026.1.1,Win32,60.0240096,5df2148f55742510c539232e,69b92ab4aef6dee357cd729a,69b92ec49ee5eb88a428d782,0.032,0.032,1,62,224,153,1,fiveseven,,,,,,,,,,,,,,,,,,,,,,,,,,,,,,,,,,,,,,,,,,,,,,,,,,,,,,,,,,,,,,,,,,,,,,,,,,,,,,,,,,,,,,,,,,,,,,,,,,,,,,,,,,,,,,,,,,,,,,,,,,,,,,,,,,,,,,,,,
,,5df2148f55742510c539232e,2026-03-17_10h38.13.648,kallum_motion_pilot_GIST_update_2,2026.1.1,Win32,60.0240096,5df2148f55742510c539232e,69b92ab4aef6dee357cd729a,69b92ec49ee5eb88a428d782,0.032,0.032,1,63,225,150,1,eightsix,,,,,,,,,,,,,,,,,,,,,,,,,,,,,,,,,,,,,,,,,,,,,,,,,,,,,,,,,,,,,,,,,,,,,,,,,,,,,,,,,,,,,,,,,,,,,,,,,,,,,,,,,,,,,,,,,,,,,,,,,,,,,,,,,,,,,,,,,
,,5df2148f55742510c539232e,2026-03-17_10h38.13.648,kallum_motion_pilot_GIST_update_2,2026.1.1,Win32,60.0240096,5df2148f55742510c539232e,69b92ab4aef6dee357cd729a,69b92ec49ee5eb88a428d782,0.032,0.032,1,64,226,131,1,sixeight,,,,,,,,,,,,,,,,,,,,,,,,,,,,,,,,,,,,,,,,,,,,,,,,,,,,,,,,,,,,,,,,,,,,,,,,,,,,,,,,,,,,,,,,,,,,,,,,,,,,,,,,,,,,,,,,,,,,,,,,,,,,,,,,,,,,,,,,,
,,5df2148f55742510c539232e,2026-03-17_10h38.13.648,kallum_motion_pilot_GIST_update_2,2026.1.1,Win32,60.0240096,5df2148f55742510c539232e,69b92ab4aef6dee357cd729a,69b92ec49ee5eb88a428d782,0.032,0.032,1,65,227,10,1,twoone,,,,,,,,,,,,,,,,,,,,,,,,,,,,,,,,,,,,,,,,,,,,,,,,,,,,,,,,,,,,,,,,,,,,,,,,,,,,,,,,,,,,,,,,,,,,,,,,,,,,,,,,,,,,,,,,,,,,,,,,,,,,,,,,,,,,,,,,,
,,5df2148f55742510c539232e,2026-03-17_10h38.13.648,kallum_motion_pilot_GIST_update_2,2026.1.1,Win32,60.0240096,5df2148f55742510c539232e,69b92ab4aef6dee357cd729a,69b92ec49ee5eb88a428d782,0.032,0.032,1,66,228,117,1,seveneight,,,,,,,,,,,,,,,,,,,,,,,,,,,,,,,,,,,,,,,,,,,,,,,,,,,,,,,,,,,,,,,,,,,,,,,,,,,,,,,,,,,,,,,,,,,,,,,,,,,,,,,,,,,,,,,,,,,,,,,,,,,,,,,,,,,,,,,,,
,,5df2148f55742510c539232e,2026-03-17_10h38.13.648,kallum_motion_pilot_GIST_update_2,2026.1.1,Win32,60.0240096,5df2148f55742510c539232e,69b92ab4aef6dee357cd729a,69b92ec49ee5eb88a428d782,0.032,0.032,1,67,229,136,1,fivesix,,,,,,,,,,,,,,,,,,,,,,,,,,,,,,,,,,,,,,,,,,,,,,,,,,,,,,,,,,,,,,,,,,,,,,,,,,,,,,,,,,,,,,,,,,,,,,,,,,,,,,,,,,,,,,,,,,,,,,,,,,,,,,,,,,,,,,,,,
,,5df2148f55742510c539232e,2026-03-17_10h38.13.648,kallum_motion_pilot_GIST_update_2,2026.1.1,Win32,60.0240096,5df2148f55742510c539232e,69b92ab4aef6dee357cd729a,69b92ec49ee5eb88a428d782,0.032,0.032,1,68,230,42,1,twoone,,,,,,,,,,,,,,,,,,,,,,,,,,,,,,,,,,,,,,,,,,,,,,,,,,,,,,,,,,,,,,,,,,,,,,,,,,,,,,,,,,,,,,,,,,,,,,,,,,,,,,,,,,,,,,,,,,,,,,,,,,,,,,,,,,,,,,,,,
,,5df2148f55742510c539232e,2026-03-17_10h38.13.648,kallum_motion_pilot_GIST_update_2,2026.1.1,Win32,60.0240096,5df2148f55742510c539232e,69b92ab4aef6dee357cd729a,69b92ec49ee5eb88a428d782,0.032,0.032,1,69,231,119,1,eightseven,,,,,,,,,,,,,,,,,,,,,,,,,,,,,,,,,,,,,,,,,,,,,,,,,,,,,,,,,,,,,,,,,,,,,,,,,,,,,,,,,,,,,,,,,,,,,,,,,,,,,,,,,,,,,,,,,,,,,,,,,,,,,,,,,,,,,,,,,
,,5df2148f55742510c539232e,2026-03-17_10h38.13.648,kallum_motion_pilot_GIST_update_2,2026.1.1,Win32,60.0240096,5df2148f55742510c539232e,69b92ab4aef6dee357cd729a,69b92ec49ee5eb88a428d782,0.032,0.032,1,70,232,9,1,onethree,,,,,,,,,,,,,,,,,,,,,,,,,,,,,,,,,,,,,,,,,,,,,,,,,,,,,,,,,,,,,,,,,,,,,,,,,,,,,,,,,,,,,,,,,,,,,,,,,,,,,,,,,,,,,,,,,,,,,,,,,,,,,,,,,,,,,,,,,
,,5df2148f55742510c539232e,2026-03-17_10h38.13.648,kallum_motion_pilot_GIST_update_2,2026.1.1,Win32,60.0240096,5df2148f55742510c539232e,69b92ab4aef6dee357cd729a,69b92ec49ee5eb88a428d782,0.032,0.032,1,71,233,71,1,fourthree,,,,,,,,,,,,,,,,,,,,,,,,,,,,,,,,,,,,,,,,,,,,,,,,,,,,,,,,,,,,,,,,,,,,,,,,,,,,,,,,,,,,,,,,,,,,,,,,,,,,,,,,,,,,,,,,,,,,,,,,,,,,,,,,,,,,,,,,,
,,5df2148f55742510c539232e,2026-03-17_10h38.13.648,kallum_motion_pilot_GIST_update_2,2026.1.1,Win32,60.0240096,5df2148f55742510c539232e,69b92ab4aef6dee357cd729a,69b92ec49ee5eb88a428d782,0.032,0.032,1,72,234,135,1,eightseven,,,,,,,,,,,,,,,,,,,,,,,,,,,,,,,,,,,,,,,,,,,,,,,,,,,,,,,,,,,,,,,,,,,,,,,,,,,,,,,,,,,,,,,,,,,,,,,,,,,,,,,,,,,,,,,,,,,,,,,,,,,,,,,,,,,,,,,,,
,,5df2148f55742510c539232e,2026-03-17_10h38.13.648,kallum_motion_pilot_GIST_update_2,2026.1.1,Win32,60.0240096,5df2148f55742510c539232e,69b92ab4aef6dee357cd729a,69b92ec49ee5eb88a428d782,0.032,0.032,1,73,235,88,1,fivesix,,,,,,,,,,,,,,,,,,,,,,,,,,,,,,,,,,,,,,,,,,,,,,,,,,,,,,,,,,,,,,,,,,,,,,,,,,,,,,,,,,,,,,,,,,,,,,,,,,,,,,,,,,,,,,,,,,,,,,,,,,,,,,,,,,,,,,,,,
,,5df2148f55742510c539232e,2026-03-17_10h38.13.648,kallum_motion_pilot_GIST_update_2,2026.1.1,Win32,60.0240096,5df2148f55742510c539232e,69b92ab4aef6dee357cd729a,69b92ec49ee5eb88a428d782,0.032,0.032,1,74,236,55,1,fourthree,,,,,,,,,,,,,,,,,,,,,,,,,,,,,,,,,,,,,,,,,,,,,,,,,,,,,,,,,,,,,,,,,,,,,,,,,,,,,,,,,,,,,,,,,,,,,,,,,,,,,,,,,,,,,,,,,,,,,,,,,,,,,,,,,,,,,,,,,
,,5df2148f55742510c539232e,2026-03-17_10h38.13.648,kallum_motion_pilot_GIST_update_2,2026.1.1,Win32,60.0240096,5df2148f55742510c539232e,69b92ab4aef6dee357cd729a,69b92ec49ee5eb88a428d782,0.032,0.032,1,75,237,5,1,threefour,,,,,,,,,,,,,,,,,,,,,,,,,,,,,,,,,,,,,,,,,,,,,,,,,,,,,,,,,,,,,,,,,,,,,,,,,,,,,,,,,,,,,,,,,,,,,,,,,,,,,,,,,,,,,,,,,,,,,,,,,,,,,,,,,,,,,,,,,
,,5df2148f55742510c539232e,2026-03-17_10h38.13.648,kallum_motion_pilot_GIST_update_2,2026.1.1,Win32,60.0240096,5df2148f55742510c539232e,69b92ab4aef6dee357cd729a,69b92ec49ee5eb88a428d782,0.032,0.032,1,76,238,97,1,fiveseven,,,,,,,,,,,,,,,,,,,,,,,,,,,,,,,,,,,,,,,,,,,,,,,,,,,,,,,,,,,,,,,,,,,,,,,,,,,,,,,,,,,,,,,,,,,,,,,,,,,,,,,,,,,,,,,,,,,,,,,,,,,,,,,,,,,,,,,,,
,,5df2148f55742510c539232e,2026-03-17_10h38.13.648,kallum_motion_pilot_GIST_update_2,2026.1.1,Win32,60.0240096,5df2148f55742510c539232e,69b92ab4aef6dee357cd729a,69b92ec49ee5eb88a428d782,0.032,0.032,1,77,239,111,1,eightseven,,,,,,,,,,,,,,,,,,,,,,,,,,,,,,,,,,,,,,,,,,,,,,,,,,,,,,,,,,,,,,,,,,,,,,,,,,,,,,,,,,,,,,,,,,,,,,,,,,,,,,,,,,,,,,,,,,,,,,,,,,,,,,,,,,,,,,,,,
,,5df2148f55742510c539232e,2026-03-17_10h38.13.648,kallum_motion_pilot_GIST_update_2,2026.1.1,Win32,60.0240096,5df2148f55742510c539232e,69b92ab4aef6dee357cd729a,69b92ec49ee5eb88a428d782,0.033,0.033,1,78,240,92,1,sevenfive,,,,,,,,,,,,,,,,,,,,,,,,,,,,,,,,,,,,,,,,,,,,,,,,,,,,,,,,,,,,,,,,,,,,,,,,,,,,,,,,,,,,,,,,,,,,,,,,,,,,,,,,,,,,,,,,,,,,,,,,,,,,,,,,,,,,,,,,,
,,5df2148f55742510c539232e,2026-03-17_10h38.13.648,kallum_motion_pilot_GIST_update_2,2026.1.1,Win32,60.0240096,5df2148f55742510c539232e,69b92ab4aef6dee357cd729a,69b92ec49ee5eb88a428d782,0.033,0.033,1,79,241,27,1,twofour,,,,,,,,,,,,,,,,,,,,,,,,,,,,,,,,,,,,,,,,,,,,,,,,,,,,,,,,,,,,,,,,,,,,,,,,,,,,,,,,,,,,,,,,,,,,,,,,,,,,,,,,,,,,,,,,,,,,,,,,,,,,,,,,,,,,,,,,,
,,5df2148f55742510c539232e,2026-03-17_10h38.13.648,kallum_motion_pilot_GIST_update_2,2026.1.1,Win32,60.0240096,5df2148f55742510c539232e,69b92ab4aef6dee357cd729a,69b92ec49ee5eb88a428d782,0.033,0.033,1,80,242,112,1,fivesix,,,,,,,,,,,,,,,,,,,,,,,,,,,,,,,,,,,,,,,,,,,,,,,,,,,,,,,,,,,,,,,,,,,,,,,,,,,,,,,,,,,,,,,,,,,,,,,,,,,,,,,,,,,,,,,,,,,,,,,,,,,,,,,,,,,,,,,,,
,,5df2148f55742510c539232e,2026-03-17_10h38.13.648,kallum_motion_pilot_GIST_update_2,2026.1.1,Win32,60.0240096,5df2148f55742510c539232e,69b92ab4aef6dee357cd729a,69b92ec49ee5eb88a428d782,0.033,0.033,1,81,243,159,1,eightseven,,,,,,,,,,,,,,,,,,,,,,,,,,,,,,,,,,,,,,,,,,,,,,,,,,,,,,,,,,,,,,,,,,,,,,,,,,,,,,,,,,,,,,,,,,,,,,,,,,,,,,,,,,,,,,,,,,,,,,,,,,,,,,,,,,,,,,,,,
,,5df2148f55742510c539232e,2026-03-17_10h38.13.648,kallum_motion_pilot_GIST_update_2,2026.1.1,Win32,60.0240096,5df2148f55742510c539232e,69b92ab4aef6dee357cd729a,69b92ec49ee5eb88a428d782,0.033,0.033,1,82,244,116,1,sevenfive,,,,,,,,,,,,,,,,,,,,,,,,,,,,,,,,,,,,,,,,,,,,,,,,,,,,,,,,,,,,,,,,,,,,,,,,,,,,,,,,,,,,,,,,,,,,,,,,,,,,,,,,,,,,,,,,,,,,,,,,,,,,,,,,,,,,,,,,,
,,5df2148f55742510c539232e,2026-03-17_10h38.13.648,kallum_motion_pilot_GIST_update_2,2026.1.1,Win32,60.0240096,5df2148f55742510c539232e,69b92ab4aef6dee357cd729a,69b92ec49ee5eb88a428d782,0.033,0.033,1,83,245,124,1,sevenfive,,,,,,,,,,,,,,,,,,,,,,,,,,,,,,,,,,,,,,,,,,,,,,,,,,,,,,,,,,,,,,,,,,,,,,,,,,,,,,,,,,,,,,,,,,,,,,,,,,,,,,,,,,,,,,,,,,,,,,,,,,,,,,,,,,,,,,,,,
,,5df2148f55742510c539232e,2026-03-17_10h38.13.648,kallum_motion_pilot_GIST_update_2,2026.1.1,Win32,60.0240096,5df2148f55742510c539232e,69b92ab4aef6dee357cd729a,69b92ec49ee5eb88a428d782,0.033,0.033,1,84,246,139,1,sixeight,,,,,,,,,,,,,,,,,,,,,,,,,,,,,,,,,,,,,,,,,,,,,,,,,,,,,,,,,,,,,,,,,,,,,,,,,,,,,,,,,,,,,,,,,,,,,,,,,,,,,,,,,,,,,,,,,,,,,,,,,,,,,,,,,,,,,,,,,
,,5df2148f55742510c539232e,2026-03-17_10h38.13.648,kallum_motion_pilot_GIST_update_2,2026.1.1,Win32,60.0240096,5df2148f55742510c539232e,69b92ab4aef6dee357cd729a,69b92ec49ee5eb88a428d782,0.033,0.033,1,85,247,99,1,sixeight,,,,,,,,,,,,,,,,,,,,,,,,,,,,,,,,,,,,,,,,,,,,,,,,,,,,,,,,,,,,,,,,,,,,,,,,,,,,,,,,,,,,,,,,,,,,,,,,,,,,,,,,,,,,,,,,,,,,,,,,,,,,,,,,,,,,,,,,,
,,5df2148f55742510c539232e,2026-03-17_10h38.13.648,kallum_motion_pilot_GIST_update_2,2026.1.1,Win32,60.0240096,5df2148f55742510c539232e,69b92ab4aef6dee357cd729a,69b92ec49ee5eb88a428d782,0.033,0.033,1,86,248,98,1,sixfive,,,,,,,,,,,,,,,,,,,,,,,,,,,,,,,,,,,,,,,,,,,,,,,,,,,,,,,,,,,,,,,,,,,,,,,,,,,,,,,,,,,,,,,,,,,,,,,,,,,,,,,,,,,,,,,,,,,,,,,,,,,,,,,,,,,,,,,,,
,,5df2148f55742510c539232e,2026-03-17_10h38.13.648,kallum_motion_pilot_GIST_update_2,2026.1.1,Win32,60.0240096,5df2148f55742510c539232e,69b92ab4aef6dee357cd729a,69b92ec49ee5eb88a428d782,0.033,0.033,1,87,249,29,1,threefour,,,,,,,,,,,,,,,,,,,,,,,,,,,,,,,,,,,,,,,,,,,,,,,,,,,,,,,,,,,,,,,,,,,,,,,,,,,,,,,,,,,,,,,,,,,,,,,,,,,,,,,,,,,,,,,,,,,,,,,,,,,,,,,,,,,,,,,,,
,,5df2148f55742510c539232e,2026-03-17_10h38.13.648,kallum_motion_pilot_GIST_update_2,2026.1.1,Win32,60.0240096,5df2148f55742510c539232e,69b92ab4aef6dee357cd729a,69b92ec49ee5eb88a428d782,0.033,0.033,1,88,250,133,1,seveneight,,,,,,,,,,,,,,,,,,,,,,,,,,,,,,,,,,,,,,,,,,,,,,,,,,,,,,,,,,,,,,,,,,,,,,,,,,,,,,,,,,,,,,,,,,,,,,,,,,,,,,,,,,,,,,,,,,,,,,,,,,,,,,,,,,,,,,,,,
,,5df2148f55742510c539232e,2026-03-17_10h38.13.648,kallum_motion_pilot_GIST_update_2,2026.1.1,Win32,60.0240096,5df2148f55742510c539232e,69b92ab4aef6dee357cd729a,69b92ec49ee5eb88a428d782,0.033,0.033,1,89,251,38,1,fourtwo,,,,,,,,,,,,,,,,,,,,,,,,,,,,,,,,,,,,,,,,,,,,,,,,,,,,,,,,,,,,,,,,,,,,,,,,,,,,,,,,,,,,,,,,,,,,,,,,,,,,,,,,,,,,,,,,,,,,,,,,,,,,,,,,,,,,,,,,,
,,5df2148f55742510c539232e,2026-03-17_10h38.13.648,kallum_motion_pilot_GIST_update_2,2026.1.1,Win32,60.0240096,5df2148f55742510c539232e,69b92ab4aef6dee357cd729a,69b92ec49ee5eb88a428d782,0.034,0.034,1,90,252,36,1,threeone,,,,,,,,,,,,,,,,,,,,,,,,,,,,,,,,,,,,,,,,,,,,,,,,,,,,,,,,,,,,,,,,,,,,,,,,,,,,,,,,,,,,,,,,,,,,,,,,,,,,,,,,,,,,,,,,,,,,,,,,,,,,,,,,,,,,,,,,,
,,5df2148f55742510c539232e,2026-03-17_10h38.13.648,kallum_motion_pilot_GIST_update_2,2026.1.1,Win32,60.0240096,5df2148f55742510c539232e,69b92ab4aef6dee357cd729a,69b92ec49ee5eb88a428d782,0.034,0.034,1,91,253,28,1,threeone,,,,,,,,,,,,,,,,,,,,,,,,,,,,,,,,,,,,,,,,,,,,,,,,,,,,,,,,,,,,,,,,,,,,,,,,,,,,,,,,,,,,,,,,,,,,,,,,,,,,,,,,,,,,,,,,,,,,,,,,,,,,,,,,,,,,,,,,,
,,5df2148f55742510c539232e,2026-03-17_10h38.13.648,kallum_motion_pilot_GIST_update_2,2026.1.1,Win32,60.0240096,5df2148f55742510c539232e,69b92ab4aef6dee357cd729a,69b92ec49ee5eb88a428d782,0.034,0.034,1,92,254,30,1,fourtwo,,,,,,,,,,,,,,,,,,,,,,,,,,,,,,,,,,,,,,,,,,,,,,,,,,,,,,,,,,,,,,,,,,,,,,,,,,,,,,,,,,,,,,,,,,,,,,,,,,,,,,,,,,,,,,,,,,,,,,,,,,,,,,,,,,,,,,,,,
,,5df2148f55742510c539232e,2026-03-17_10h38.13.648,kallum_motion_pilot_GIST_update_2,2026.1.1,Win32,60.0240096,5df2148f55742510c539232e,69b92ab4aef6dee357cd729a,69b92ec49ee5eb88a428d782,0.034,0.034,1,93,255,61,1,threefour,,,,,,,,,,,,,,,,,,,,,,,,,,,,,,,,,,,,,,,,,,,,,,,,,,,,,,,,,,,,,,,,,,,,,,,,,,,,,,,,,,,,,,,,,,,,,,,,,,,,,,,,,,,,,,,,,,,,,,,,,,,,,,,,,,,,,,,,,
,,5df2148f55742510c539232e,2026-03-17_10h38.13.648,kallum_motion_pilot_GIST_update_2,2026.1.1,Win32,60.0240096,5df2148f55742510c539232e,69b92ab4aef6dee357cd729a,69b92ec49ee5eb88a428d782,0.034,0.034,1,94,256,106,1,sixfive,,,,,,,,,,,,,,,,,,,,,,,,,,,,,,,,,,,,,,,,,,,,,,,,,,,,,,,,,,,,,,,,,,,,,,,,,,,,,,,,,,,,,,,,,,,,,,,,,,,,,,,,,,,,,,,,,,,,,,,,,,,,,,,,,,,,,,,,,
,,5df2148f55742510c539232e,2026-03-17_10h38.13.648,kallum_motion_pilot_GIST_update_2,2026.1.1,Win32,60.0240096,5df2148f55742510c539232e,69b92ab4aef6dee357cd729a,69b92ec49ee5eb88a428d782,0.034,0.034,1,95,257,151,1,eightseven,,,,,,,,,,,,,,,,,,,,,,,,,,,,,,,,,,,,,,,,,,,,,,,,,,,,,,,,,,,,,,,,,,,,,,,,,,,,,,,,,,,,,,,,,,,,,,,,,,,,,,,,,,,,,,,,,,,,,,,,,,,,,,,,,,,,,,,,,
,,5df2148f55742510c539232e,2026-03-17_10h38.13.648,kallum_motion_pilot_GIST_update_2,2026.1.1,Win32,60.0240096,5df2148f55742510c539232e,69b92ab4aef6dee357cd729a,69b92ec49ee5eb88a428d782,0.034,0.034,1,96,258,137,1,fiveseven,,,,,,,,,,,,,,,,,,,,,,,,,,,,,,,,,,,,,,,,,,,,,,,,,,,,,,,,,,,,,,,,,,,,,,,,,,,,,,,,,,,,,,,,,,,,,,,,,,,,,,,,,,,,,,,,,,,,,,,,,,,,,,,,,,,,,,,,,
,,5df2148f55742510c539232e,2026-03-17_10h38.13.648,kallum_motion_pilot_GIST_update_2,2026.1.1,Win32,60.0240096,5df2148f55742510c539232e,69b92ab4aef6dee357cd729a,69b92ec49ee5eb88a428d782,0.034,0.034,1,97,259,134,1,eightsix,,,,,,,,,,,,,,,,,,,,,,,,,,,,,,,,,,,,,,,,,,,,,,,,,,,,,,,,,,,,,,,,,,,,,,,,,,,,,,,,,,,,,,,,,,,,,,,,,,,,,,,,,,,,,,,,,,,,,,,,,,,,,,,,,,,,,,,,,
,,5df2148f55742510c539232e,2026-03-17_10h38.13.648,kallum_motion_pilot_GIST_update_2,2026.1.1,Win32,60.0240096,5df2148f55742510c539232e,69b92ab4aef6dee357cd729a,69b92ec49ee5eb88a428d782,0.034,0.034,1,98,260,76,1,threeone,,,,,,,,,,,,,,,,,,,,,,,,,,,,,,,,,,,,,,,,,,,,,,,,,,,,,,,,,,,,,,,,,,,,,,,,,,,,,,,,,,,,,,,,,,,,,,,,,,,,,,,,,,,,,,,,,,,,,,,,,,,,,,,,,,,,,,,,,
,,5df2148f55742510c539232e,2026-03-17_10h38.13.648,kallum_motion_pilot_GIST_update_2,2026.1.1,Win32,60.0240096,5df2148f55742510c539232e,69b92ab4aef6dee357cd729a,69b92ec49ee5eb88a428d782,0.034,0.034,1,99,261,155,1,sixeight,,,,,,,,,,,,,,,,,,,,,,,,,,,,,,,,,,,,,,,,,,,,,,,,,,,,,,,,,,,,,,,,,,,,,,,,,,,,,,,,,,,,,,,,,,,,,,,,,,,,,,,,,,,,,,,,,,,,,,,,,,,,,,,,,,,,,,,,,
,,5df2148f55742510c539232e,2026-03-17_10h38.13.648,kallum_motion_pilot_GIST_update_2,2026.1.1,Win32,60.0240096,5df2148f55742510c539232e,69b92ab4aef6dee357cd729a,69b92ec49ee5eb88a428d782,0.034,0.034,1,100,262,41,1,onethree,,,,,,,,,,,,,,,,,,,,,,,,,,,,,,,,,,,,,,,,,,,,,,,,,,,,,,,,,,,,,,,,,,,,,,,,,,,,,,,,,,,,,,,,,,,,,,,,,,,,,,,,,,,,,,,,,,,,,,,,,,,,,,,,,,,,,,,,,
,,5df2148f55742510c539232e,2026-03-17_10h38.13.648,kallum_motion_pilot_GIST_update_2,2026.1.1,Win32,60.0240096,5df2148f55742510c539232e,69b92ab4aef6dee357cd729a,69b92ec49ee5eb88a428d782,0.034,0.034,1,101,263,120,1,fivesix,,,,,,,,,,,,,,,,,,,,,,,,,,,,,,,,,,,,,,,,,,,,,,,,,,,,,,,,,,,,,,,,,,,,,,,,,,,,,,,,,,,,,,,,,,,,,,,,,,,,,,,,,,,,,,,,,,,,,,,,,,,,,,,,,,,,,,,,,
,,5df2148f55742510c539232e,2026-03-17_10h38.13.648,kallum_motion_pilot_GIST_update_2,2026.1.1,Win32,60.0240096,5df2148f55742510c539232e,69b92ab4aef6dee357cd729a,69b92ec49ee5eb88a428d782,0.034,0.034,1,102,264,70,1,fourtwo,,,,,,,,,,,,,,,,,,,,,,,,,,,,,,,,,,,,,,,,,,,,,,,,,,,,,,,,,,,,,,,,,,,,,,,,,,,,,,,,,,,,,,,,,,,,,,,,,,,,,,,,,,,,,,,,,,,,,,,,,,,,,,,,,,,,,,,,,
,,5df2148f55742510c539232e,2026-03-17_10h38.13.648,kallum_motion_pilot_GIST_update_2,2026.1.1,Win32,60.0240096,5df2148f55742510c539232e,69b92ab4aef6dee357cd729a,69b92ec49ee5eb88a428d782,0.034,0.034,1,103,265,17,1,onethree,,,,,,,,,,,,,,,,,,,,,,,,,,,,,,,,,,,,,,,,,,,,,,,,,,,,,,,,,,,,,,,,,,,,,,,,,,,,,,,,,,,,,,,,,,,,,,,,,,,,,,,,,,,,,,,,,,,,,,,,,,,,,,,,,,,,,,,,,
,,5df2148f55742510c539232e,2026-03-17_10h38.13.648,kallum_motion_pilot_GIST_update_2,2026.1.1,Win32,60.0240096,5df2148f55742510c539232e,69b92ab4aef6dee357cd729a,69b92ec49ee5eb88a428d782,0.034,0.034,1,104,266,85,1,seveneight,,,,,,,,,,,,,,,,,,,,,,,,,,,,,,,,,,,,,,,,,,,,,,,,,,,,,,,,,,,,,,,,,,,,,,,,,,,,,,,,,,,,,,,,,,,,,,,,,,,,,,,,,,,,,,,,,,,,,,,,,,,,,,,,,,,,,,,,,
,,5df2148f55742510c539232e,2026-03-17_10h38.13.648,kallum_motion_pilot_GIST_update_2,2026.1.1,Win32,60.0240096,5df2148f55742510c539232e,69b92ab4aef6dee357cd729a,69b92ec49ee5eb88a428d782,0.034,0.034,1,105,267,75,1,twofour,,,,,,,,,,,,,,,,,,,,,,,,,,,,,,,,,,,,,,,,,,,,,,,,,,,,,,,,,,,,,,,,,,,,,,,,,,,,,,,,,,,,,,,,,,,,,,,,,,,,,,,,,,,,,,,,,,,,,,,,,,,,,,,,,,,,,,,,,
,,5df2148f55742510c539232e,2026-03-17_10h38.13.648,kallum_motion_pilot_GIST_update_2,2026.1.1,Win32,60.0240096,5df2148f55742510c539232e,69b92ab4aef6dee357cd729a,69b92ec49ee5eb88a428d782,0.035,0.035,1,106,268,81,1,fiveseven,,,,,,,,,,,,,,,,,,,,,,,,,,,,,,,,,,,,,,,,,,,,,,,,,,,,,,,,,,,,,,,,,,,,,,,,,,,,,,,,,,,,,,,,,,,,,,,,,,,,,,,,,,,,,,,,,,,,,,,,,,,,,,,,,,,,,,,,,
