startup.started,startup.stopped,Prolific ID*,date,expName,psychopyVersion,OS,frameRate,participant,study_id,session,stimpositions.started,stimpositions.stopped,hardcoded_stimulus_positions.thisRepN,hardcoded_stimulus_positions.thisTrialN,hardcoded_stimulus_positions.thisN,hardcoded_stimulus_positions.thisIndex,hardcoded_stimulus_positions.ran,StimulusPos,stimorientation.started,stimorientation.stopped,prac_stimorientation_import_loop.thisRepN,prac_stimorientation_import_loop.thisTrialN,prac_stimorientation_import_loop.thisN,prac_stimorientation_import_loop.thisIndex,prac_stimorientation_import_loop.ran,Stimorientation,welcome_instr.started,welcome_instr.stopped,key_resp.keys,key_resp.rt,key_resp.duration,response_steppedout_1.started,response_steppedout_1.stopped,key_resp_20.keys,key_resp_20.rt,key_resp_20.duration,response_steppedout_2.started,response_steppedout_2.stopped,key_resp_19.keys,key_resp_19.rt,key_resp_19.duration,stim_response_instr.started,stim_response_instr.stopped,key_resp_15.keys,key_resp_15.rt,key_resp_15.duration,direction_instr_2.started,direction_instr_2.stopped,key_resp_9.keys,key_resp_9.rt,key_resp_9.duration,instr_prac.started,instr_prac.stopped,key_resp_10.keys,key_resp_10.rt,key_resp_10.duration,Stim1_display_prac.started,Stim1_display_prac.stopped,Ecc,Circle1_ori,Circle2_ori,response_prac.started,similarity,response_time,response_prac.stopped,mouse_5.x,mouse_5.y,mouse_5.leftButton,mouse_5.midButton,mouse_5.rightButton,mouse_5.clicked_name,responseprac_feedback.started,responseprac_feedback.stopped,summary2_prac.started,summary2_prac.stopped,mouse_6.x,mouse_6.y,mouse_6.leftButton,mouse_6.midButton,mouse_6.rightButton,mouse_6.clicked_name,duringprac.thisRepN,duringprac.thisTrialN,duringprac.thisN,duringprac.thisIndex,duringprac.ran,begin.started,begin.stopped,key_resp_22.keys,key_resp_22.rt,key_resp_22.duration,Stim1_display.started,Stim1_display.stopped,circle1_ori,circle2_ori,circle1_SF,circle2_SF,response.started,response.stopped,mouse.x,mouse.y,mouse.leftButton,mouse.midButton,mouse.rightButton,mouse.clicked_name,trialnumber,double_pass.thisRepN,double_pass.thisTrialN,double_pass.thisN,double_pass.thisIndex,double_pass.ran,double_pass.order,main_trial.thisRepN,main_trial.thisTrialN,main_trial.thisN,main_trial.thisIndex,main_trial.ran,main_trial.order,Trial_Counter,Catch,Frequencies,response_2.started,response_2.stopped,mouse_2.x,mouse_2.y,mouse_2.leftButton,mouse_2.midButton,mouse_2.rightButton,mouse_2.clicked_name,special_trial.started,special_trial.stopped,catch_1.started,catch_1.stopped,mouse_3.x,mouse_3.y,mouse_3.leftButton,mouse_3.midButton,mouse_3.rightButton,catchresponse,catchnumber,response_time_catch,response_sum.started,response_sum.stopped,mouse_11.x,mouse_11.y,mouse_11.leftButton,mouse_11.midButton,mouse_11.rightButton,flip_presentation_sequence_for_double_pass.started,flip_presentation_sequence_for_double_pass.stopped,goodbye.started,goodbye.stopped,key_resp_3.keys,key_resp_3.rt,key_resp_3.duration
0.002,0.002,5df6818e2b12bd474abc4c9d,2026-03-17_10h07.41.265,kallum_motion_pilot_GIST_update_2,2026.1.1,Win32,57.80346821,5df6818e2b12bd474abc4c9d,69b95efdef24cd8a694e89ee,69b9601544c9ccd2758c35ad,,,,,,,,,,,,,,,,,,,,,,,,,,,,,,,,,,,,,,,,,,,,,,,,,,,,,,,,,,,,,,,,,,,,,,,,,,,,,,,,,,,,,,,,,,,,,,,,,,,,,,,,,,,,,,,,,,,,,,,,,,,,,,,,,,,,,,,,,,,,,,,,,
,,5df6818e2b12bd474abc4c9d,2026-03-17_10h07.41.265,kallum_motion_pilot_GIST_update_2,2026.1.1,Win32,57.80346821,5df6818e2b12bd474abc4c9d,69b95efdef24cd8a694e89ee,69b9601544c9ccd2758c35ad,0.0117,0.0117,0,0,0,159,1,eightseven,,,,,,,,,,,,,,,,,,,,,,,,,,,,,,,,,,,,,,,,,,,,,,,,,,,,,,,,,,,,,,,,,,,,,,,,,,,,,,,,,,,,,,,,,,,,,,,,,,,,,,,,,,,,,,,,,,,,,,,,,,,,,,,,,,,,,,,,,
,,5df6818e2b12bd474abc4c9d,2026-03-17_10h07.41.265,kallum_motion_pilot_GIST_update_2,2026.1.1,Win32,57.80346821,5df6818e2b12bd474abc4c9d,69b95efdef24cd8a694e89ee,69b9601544c9ccd2758c35ad,0.0119,0.0119,0,1,1,106,1,sixfive,,,,,,,,,,,,,,,,,,,,,,,,,,,,,,,,,,,,,,,,,,,,,,,,,,,,,,,,,,,,,,,,,,,,,,,,,,,,,,,,,,,,,,,,,,,,,,,,,,,,,,,,,,,,,,,,,,,,,,,,,,,,,,,,,,,,,,,,,
,,5df6818e2b12bd474abc4c9d,2026-03-17_10h07.41.265,kallum_motion_pilot_GIST_update_2,2026.1.1,Win32,57.80346821,5df6818e2b12bd474abc4c9d,69b95efdef24cd8a694e89ee,69b9601544c9ccd2758c35ad,0.012,0.012,0,2,2,107,1,sixeight,,,,,,,,,,,,,,,,,,,,,,,,,,,,,,,,,,,,,,,,,,,,,,,,,,,,,,,,,,,,,,,,,,,,,,,,,,,,,,,,,,,,,,,,,,,,,,,,,,,,,,,,,,,,,,,,,,,,,,,,,,,,,,,,,,,,,,,,,
,,5df6818e2b12bd474abc4c9d,2026-03-17_10h07.41.265,kallum_motion_pilot_GIST_update_2,2026.1.1,Win32,57.80346821,5df6818e2b12bd474abc4c9d,69b95efdef24cd8a694e89ee,69b9601544c9ccd2758c35ad,0.012,0.0121,0,3,3,42,1,twoone,,,,,,,,,,,,,,,,,,,,,,,,,,,,,,,,,,,,,,,,,,,,,,,,,,,,,,,,,,,,,,,,,,,,,,,,,,,,,,,,,,,,,,,,,,,,,,,,,,,,,,,,,,,,,,,,,,,,,,,,,,,,,,,,,,,,,,,,,
,,5df6818e2b12bd474abc4c9d,2026-03-17_10h07.41.265,kallum_motion_pilot_GIST_update_2,2026.1.1,Win32,57.80346821,5df6818e2b12bd474abc4c9d,69b95efdef24cd8a694e89ee,69b9601544c9ccd2758c35ad,0.0121,0.0121,0,4,4,104,1,fivesix,,,,,,,,,,,,,,,,,,,,,,,,,,,,,,,,,,,,,,,,,,,,,,,,,,,,,,,,,,,,,,,,,,,,,,,,,,,,,,,,,,,,,,,,,,,,,,,,,,,,,,,,,,,,,,,,,,,,,,,,,,,,,,,,,,,,,,,,,
,,5df6818e2b12bd474abc4c9d,2026-03-17_10h07.41.265,kallum_motion_pilot_GIST_update_2,2026.1.1,Win32,57.80346821,5df6818e2b12bd474abc4c9d,69b95efdef24cd8a694e89ee,69b9601544c9ccd2758c35ad,0.0121,0.0121,0,5,5,78,1,fourtwo,,,,,,,,,,,,,,,,,,,,,,,,,,,,,,,,,,,,,,,,,,,,,,,,,,,,,,,,,,,,,,,,,,,,,,,,,,,,,,,,,,,,,,,,,,,,,,,,,,,,,,,,,,,,,,,,,,,,,,,,,,,,,,,,,,,,,,,,,
,,5df6818e2b12bd474abc4c9d,2026-03-17_10h07.41.265,kallum_motion_pilot_GIST_update_2,2026.1.1,Win32,57.80346821,5df6818e2b12bd474abc4c9d,69b95efdef24cd8a694e89ee,69b9601544c9ccd2758c35ad,0.0122,0.0122,0,6,6,160,1,fivesix,,,,,,,,,,,,,,,,,,,,,,,,,,,,,,,,,,,,,,,,,,,,,,,,,,,,,,,,,,,,,,,,,,,,,,,,,,,,,,,,,,,,,,,,,,,,,,,,,,,,,,,,,,,,,,,,,,,,,,,,,,,,,,,,,,,,,,,,,
,,5df6818e2b12bd474abc4c9d,2026-03-17_10h07.41.265,kallum_motion_pilot_GIST_update_2,2026.1.1,Win32,57.80346821,5df6818e2b12bd474abc4c9d,69b95efdef24cd8a694e89ee,69b9601544c9ccd2758c35ad,0.0122,0.0122,0,7,7,85,1,seveneight,,,,,,,,,,,,,,,,,,,,,,,,,,,,,,,,,,,,,,,,,,,,,,,,,,,,,,,,,,,,,,,,,,,,,,,,,,,,,,,,,,,,,,,,,,,,,,,,,,,,,,,,,,,,,,,,,,,,,,,,,,,,,,,,,,,,,,,,,
,,5df6818e2b12bd474abc4c9d,2026-03-17_10h07.41.265,kallum_motion_pilot_GIST_update_2,2026.1.1,Win32,57.80346821,5df6818e2b12bd474abc4c9d,69b95efdef24cd8a694e89ee,69b9601544c9ccd2758c35ad,0.0123,0.0123,0,8,8,147,1,sixeight,,,,,,,,,,,,,,,,,,,,,,,,,,,,,,,,,,,,,,,,,,,,,,,,,,,,,,,,,,,,,,,,,,,,,,,,,,,,,,,,,,,,,,,,,,,,,,,,,,,,,,,,,,,,,,,,,,,,,,,,,,,,,,,,,,,,,,,,,
,,5df6818e2b12bd474abc4c9d,2026-03-17_10h07.41.265,kallum_motion_pilot_GIST_update_2,2026.1.1,Win32,57.80346821,5df6818e2b12bd474abc4c9d,69b95efdef24cd8a694e89ee,69b9601544c9ccd2758c35ad,0.0124,0.0124,0,9,9,37,1,threefour,,,,,,,,,,,,,,,,,,,,,,,,,,,,,,,,,,,,,,,,,,,,,,,,,,,,,,,,,,,,,,,,,,,,,,,,,,,,,,,,,,,,,,,,,,,,,,,,,,,,,,,,,,,,,,,,,,,,,,,,,,,,,,,,,,,,,,,,,
,,5df6818e2b12bd474abc4c9d,2026-03-17_10h07.41.265,kallum_motion_pilot_GIST_update_2,2026.1.1,Win32,57.80346821,5df6818e2b12bd474abc4c9d,69b95efdef24cd8a694e89ee,69b9601544c9ccd2758c35ad,0.0124,0.0124,0,10,10,15,1,fourthree,,,,,,,,,,,,,,,,,,,,,,,,,,,,,,,,,,,,,,,,,,,,,,,,,,,,,,,,,,,,,,,,,,,,,,,,,,,,,,,,,,,,,,,,,,,,,,,,,,,,,,,,,,,,,,,,,,,,,,,,,,,,,,,,,,,,,,,,,
,,5df6818e2b12bd474abc4c9d,2026-03-17_10h07.41.265,kallum_motion_pilot_GIST_update_2,2026.1.1,Win32,57.80346821,5df6818e2b12bd474abc4c9d,69b95efdef24cd8a694e89ee,69b9601544c9ccd2758c35ad,0.0124,0.0124,0,11,11,140,1,sevenfive,,,,,,,,,,,,,,,,,,,,,,,,,,,,,,,,,,,,,,,,,,,,,,,,,,,,,,,,,,,,,,,,,,,,,,,,,,,,,,,,,,,,,,,,,,,,,,,,,,,,,,,,,,,,,,,,,,,,,,,,,,,,,,,,,,,,,,,,,
,,5df6818e2b12bd474abc4c9d,2026-03-17_10h07.41.265,kallum_motion_pilot_GIST_update_2,2026.1.1,Win32,57.80346821,5df6818e2b12bd474abc4c9d,69b95efdef24cd8a694e89ee,69b9601544c9ccd2758c35ad,0.0125,0.0125,0,12,12,112,1,fivesix,,,,,,,,,,,,,,,,,,,,,,,,,,,,,,,,,,,,,,,,,,,,,,,,,,,,,,,,,,,,,,,,,,,,,,,,,,,,,,,,,,,,,,,,,,,,,,,,,,,,,,,,,,,,,,,,,,,,,,,,,,,,,,,,,,,,,,,,,
,,5df6818e2b12bd474abc4c9d,2026-03-17_10h07.41.265,kallum_motion_pilot_GIST_update_2,2026.1.1,Win32,57.80346821,5df6818e2b12bd474abc4c9d,69b95efdef24cd8a694e89ee,69b9601544c9ccd2758c35ad,0.0125,0.0125,0,13,13,11,1,twofour,,,,,,,,,,,,,,,,,,,,,,,,,,,,,,,,,,,,,,,,,,,,,,,,,,,,,,,,,,,,,,,,,,,,,,,,,,,,,,,,,,,,,,,,,,,,,,,,,,,,,,,,,,,,,,,,,,,,,,,,,,,,,,,,,,,,,,,,,
,,5df6818e2b12bd474abc4c9d,2026-03-17_10h07.41.265,kallum_motion_pilot_GIST_update_2,2026.1.1,Win32,57.80346821,5df6818e2b12bd474abc4c9d,69b95efdef24cd8a694e89ee,69b9601544c9ccd2758c35ad,0.0125,0.0125,0,14,14,84,1,sevenfive,,,,,,,,,,,,,,,,,,,,,,,,,,,,,,,,,,,,,,,,,,,,,,,,,,,,,,,,,,,,,,,,,,,,,,,,,,,,,,,,,,,,,,,,,,,,,,,,,,,,,,,,,,,,,,,,,,,,,,,,,,,,,,,,,,,,,,,,,
,,5df6818e2b12bd474abc4c9d,2026-03-17_10h07.41.265,kallum_motion_pilot_GIST_update_2,2026.1.1,Win32,57.80346821,5df6818e2b12bd474abc4c9d,69b95efdef24cd8a694e89ee,69b9601544c9ccd2758c35ad,0.0126,0.0126,0,15,15,156,1,sevenfive,,,,,,,,,,,,,,,,,,,,,,,,,,,,,,,,,,,,,,,,,,,,,,,,,,,,,,,,,,,,,,,,,,,,,,,,,,,,,,,,,,,,,,,,,,,,,,,,,,,,,,,,,,,,,,,,,,,,,,,,,,,,,,,,,,,,,,,,,
,,5df6818e2b12bd474abc4c9d,2026-03-17_10h07.41.265,kallum_motion_pilot_GIST_update_2,2026.1.1,Win32,57.80346821,5df6818e2b12bd474abc4c9d,69b95efdef24cd8a694e89ee,69b9601544c9ccd2758c35ad,0.0126,0.0126,0,16,16,25,1,onethree,,,,,,,,,,,,,,,,,,,,,,,,,,,,,,,,,,,,,,,,,,,,,,,,,,,,,,,,,,,,,,,,,,,,,,,,,,,,,,,,,,,,,,,,,,,,,,,,,,,,,,,,,,,,,,,,,,,,,,,,,,,,,,,,,,,,,,,,,
,,5df6818e2b12bd474abc4c9d,2026-03-17_10h07.41.265,kallum_motion_pilot_GIST_update_2,2026.1.1,Win32,57.80346821,5df6818e2b12bd474abc4c9d,69b95efdef24cd8a694e89ee,69b9601544c9ccd2758c35ad,0.0126,0.0126,0,17,17,109,1,seveneight,,,,,,,,,,,,,,,,,,,,,,,,,,,,,,,,,,,,,,,,,,,,,,,,,,,,,,,,,,,,,,,,,,,,,,,,,,,,,,,,,,,,,,,,,,,,,,,,,,,,,,,,,,,,,,,,,,,,,,,,,,,,,,,,,,,,,,,,,
,,5df6818e2b12bd474abc4c9d,2026-03-17_10h07.41.265,kallum_motion_pilot_GIST_update_2,2026.1.1,Win32,57.80346821,5df6818e2b12bd474abc4c9d,69b95efdef24cd8a694e89ee,69b9601544c9ccd2758c35ad,0.0127,0.0127,0,18,18,47,1,fourthree,,,,,,,,,,,,,,,,,,,,,,,,,,,,,,,,,,,,,,,,,,,,,,,,,,,,,,,,,,,,,,,,,,,,,,,,,,,,,,,,,,,,,,,,,,,,,,,,,,,,,,,,,,,,,,,,,,,,,,,,,,,,,,,,,,,,,,,,,
,,5df6818e2b12bd474abc4c9d,2026-03-17_10h07.41.265,kallum_motion_pilot_GIST_update_2,2026.1.1,Win32,57.80346821,5df6818e2b12bd474abc4c9d,69b95efdef24cd8a694e89ee,69b9601544c9ccd2758c35ad,0.0127,0.0127,0,19,19,17,1,onethree,,,,,,,,,,,,,,,,,,,,,,,,,,,,,,,,,,,,,,,,,,,,,,,,,,,,,,,,,,,,,,,,,,,,,,,,,,,,,,,,,,,,,,,,,,,,,,,,,,,,,,,,,,,,,,,,,,,,,,,,,,,,,,,,,,,,,,,,,
,,5df6818e2b12bd474abc4c9d,2026-03-17_10h07.41.265,kallum_motion_pilot_GIST_update_2,2026.1.1,Win32,57.80346821,5df6818e2b12bd474abc4c9d,69b95efdef24cd8a694e89ee,69b9601544c9ccd2758c35ad,0.0127,0.0127,0,20,20,120,1,fivesix,,,,,,,,,,,,,,,,,,,,,,,,,,,,,,,,,,,,,,,,,,,,,,,,,,,,,,,,,,,,,,,,,,,,,,,,,,,,,,,,,,,,,,,,,,,,,,,,,,,,,,,,,,,,,,,,,,,,,,,,,,,,,,,,,,,,,,,,,
,,5df6818e2b12bd474abc4c9d,2026-03-17_10h07.41.265,kallum_motion_pilot_GIST_update_2,2026.1.1,Win32,57.80346821,5df6818e2b12bd474abc4c9d,69b95efdef24cd8a694e89ee,69b9601544c9ccd2758c35ad,0.0128,0.0128,0,21,21,53,1,threefour,,,,,,,,,,,,,,,,,,,,,,,,,,,,,,,,,,,,,,,,,,,,,,,,,,,,,,,,,,,,,,,,,,,,,,,,,,,,,,,,,,,,,,,,,,,,,,,,,,,,,,,,,,,,,,,,,,,,,,,,,,,,,,,,,,,,,,,,,
,,5df6818e2b12bd474abc4c9d,2026-03-17_10h07.41.265,kallum_motion_pilot_GIST_update_2,2026.1.1,Win32,57.80346821,5df6818e2b12bd474abc4c9d,69b95efdef24cd8a694e89ee,69b9601544c9ccd2758c35ad,0.0128,0.0128,0,22,22,130,1,sixfive,,,,,,,,,,,,,,,,,,,,,,,,,,,,,,,,,,,,,,,,,,,,,,,,,,,,,,,,,,,,,,,,,,,,,,,,,,,,,,,,,,,,,,,,,,,,,,,,,,,,,,,,,,,,,,,,,,,,,,,,,,,,,,,,,,,,,,,,,
,,5df6818e2b12bd474abc4c9d,2026-03-17_10h07.41.265,kallum_motion_pilot_GIST_update_2,2026.1.1,Win32,57.80346821,5df6818e2b12bd474abc4c9d,69b95efdef24cd8a694e89ee,69b9601544c9ccd2758c35ad,0.0128,0.0128,0,23,23,61,1,threefour,,,,,,,,,,,,,,,,,,,,,,,,,,,,,,,,,,,,,,,,,,,,,,,,,,,,,,,,,,,,,,,,,,,,,,,,,,,,,,,,,,,,,,,,,,,,,,,,,,,,,,,,,,,,,,,,,,,,,,,,,,,,,,,,,,,,,,,,,
,,5df6818e2b12bd474abc4c9d,2026-03-17_10h07.41.265,kallum_motion_pilot_GIST_update_2,2026.1.1,Win32,57.80346821,5df6818e2b12bd474abc4c9d,69b95efdef24cd8a694e89ee,69b9601544c9ccd2758c35ad,0.0129,0.0129,0,24,24,145,1,fiveseven,,,,,,,,,,,,,,,,,,,,,,,,,,,,,,,,,,,,,,,,,,,,,,,,,,,,,,,,,,,,,,,,,,,,,,,,,,,,,,,,,,,,,,,,,,,,,,,,,,,,,,,,,,,,,,,,,,,,,,,,,,,,,,,,,,,,,,,,,
,,5df6818e2b12bd474abc4c9d,2026-03-17_10h07.41.265,kallum_motion_pilot_GIST_update_2,2026.1.1,Win32,57.80346821,5df6818e2b12bd474abc4c9d,69b95efdef24cd8a694e89ee,69b9601544c9ccd2758c35ad,0.013,0.013,0,25,25,161,1,fiveseven,,,,,,,,,,,,,,,,,,,,,,,,,,,,,,,,,,,,,,,,,,,,,,,,,,,,,,,,,,,,,,,,,,,,,,,,,,,,,,,,,,,,,,,,,,,,,,,,,,,,,,,,,,,,,,,,,,,,,,,,,,,,,,,,,,,,,,,,,
,,5df6818e2b12bd474abc4c9d,2026-03-17_10h07.41.265,kallum_motion_pilot_GIST_update_2,2026.1.1,Win32,57.80346821,5df6818e2b12bd474abc4c9d,69b95efdef24cd8a694e89ee,69b9601544c9ccd2758c35ad,0.013,0.013,0,26,26,51,1,twofour,,,,,,,,,,,,,,,,,,,,,,,,,,,,,,,,,,,,,,,,,,,,,,,,,,,,,,,,,,,,,,,,,,,,,,,,,,,,,,,,,,,,,,,,,,,,,,,,,,,,,,,,,,,,,,,,,,,,,,,,,,,,,,,,,,,,,,,,,
,,5df6818e2b12bd474abc4c9d,2026-03-17_10h07.41.265,kallum_motion_pilot_GIST_update_2,2026.1.1,Win32,57.80346821,5df6818e2b12bd474abc4c9d,69b95efdef24cd8a694e89ee,69b9601544c9ccd2758c35ad,0.013,0.013,0,27,27,141,1,seveneight,,,,,,,,,,,,,,,,,,,,,,,,,,,,,,,,,,,,,,,,,,,,,,,,,,,,,,,,,,,,,,,,,,,,,,,,,,,,,,,,,,,,,,,,,,,,,,,,,,,,,,,,,,,,,,,,,,,,,,,,,,,,,,,,,,,,,,,,,
,,5df6818e2b12bd474abc4c9d,2026-03-17_10h07.41.265,kallum_motion_pilot_GIST_update_2,2026.1.1,Win32,57.80346821,5df6818e2b12bd474abc4c9d,69b95efdef24cd8a694e89ee,69b9601544c9ccd2758c35ad,0.013,0.013,0,28,28,110,1,eightsix,,,,,,,,,,,,,,,,,,,,,,,,,,,,,,,,,,,,,,,,,,,,,,,,,,,,,,,,,,,,,,,,,,,,,,,,,,,,,,,,,,,,,,,,,,,,,,,,,,,,,,,,,,,,,,,,,,,,,,,,,,,,,,,,,,,,,,,,,
,,5df6818e2b12bd474abc4c9d,2026-03-17_10h07.41.265,kallum_motion_pilot_GIST_update_2,2026.1.1,Win32,57.80346821,5df6818e2b12bd474abc4c9d,69b95efdef24cd8a694e89ee,69b9601544c9ccd2758c35ad,0.0131,0.0131,0,29,29,40,1,onetwo,,,,,,,,,,,,,,,,,,,,,,,,,,,,,,,,,,,,,,,,,,,,,,,,,,,,,,,,,,,,,,,,,,,,,,,,,,,,,,,,,,,,,,,,,,,,,,,,,,,,,,,,,,,,,,,,,,,,,,,,,,,,,,,,,,,,,,,,,
,,5df6818e2b12bd474abc4c9d,2026-03-17_10h07.41.265,kallum_motion_pilot_GIST_update_2,2026.1.1,Win32,57.80346821,5df6818e2b12bd474abc4c9d,69b95efdef24cd8a694e89ee,69b9601544c9ccd2758c35ad,0.0131,0.0131,0,30,30,113,1,fiveseven,,,,,,,,,,,,,,,,,,,,,,,,,,,,,,,,,,,,,,,,,,,,,,,,,,,,,,,,,,,,,,,,,,,,,,,,,,,,,,,,,,,,,,,,,,,,,,,,,,,,,,,,,,,,,,,,,,,,,,,,,,,,,,,,,,,,,,,,,
,,5df6818e2b12bd474abc4c9d,2026-03-17_10h07.41.265,kallum_motion_pilot_GIST_update_2,2026.1.1,Win32,57.80346821,5df6818e2b12bd474abc4c9d,69b95efdef24cd8a694e89ee,69b9601544c9ccd2758c35ad,0.0132,0.0132,0,31,31,16,1,onetwo,,,,,,,,,,,,,,,,,,,,,,,,,,,,,,,,,,,,,,,,,,,,,,,,,,,,,,,,,,,,,,,,,,,,,,,,,,,,,,,,,,,,,,,,,,,,,,,,,,,,,,,,,,,,,,,,,,,,,,,,,,,,,,,,,,,,,,,,,
,,5df6818e2b12bd474abc4c9d,2026-03-17_10h07.41.265,kallum_motion_pilot_GIST_update_2,2026.1.1,Win32,57.80346821,5df6818e2b12bd474abc4c9d,69b95efdef24cd8a694e89ee,69b9601544c9ccd2758c35ad,0.0132,0.0132,0,32,32,94,1,eightsix,,,,,,,,,,,,,,,,,,,,,,,,,,,,,,,,,,,,,,,,,,,,,,,,,,,,,,,,,,,,,,,,,,,,,,,,,,,,,,,,,,,,,,,,,,,,,,,,,,,,,,,,,,,,,,,,,,,,,,,,,,,,,,,,,,,,,,,,,
,,5df6818e2b12bd474abc4c9d,2026-03-17_10h07.41.265,kallum_motion_pilot_GIST_update_2,2026.1.1,Win32,57.80346821,5df6818e2b12bd474abc4c9d,69b95efdef24cd8a694e89ee,69b9601544c9ccd2758c35ad,0.0133,0.0133,0,33,33,3,1,twofour,,,,,,,,,,,,,,,,,,,,,,,,,,,,,,,,,,,,,,,,,,,,,,,,,,,,,,,,,,,,,,,,,,,,,,,,,,,,,,,,,,,,,,,,,,,,,,,,,,,,,,,,,,,,,,,,,,,,,,,,,,,,,,,,,,,,,,,,,
,,5df6818e2b12bd474abc4c9d,2026-03-17_10h07.41.265,kallum_motion_pilot_GIST_update_2,2026.1.1,Win32,57.80346821,5df6818e2b12bd474abc4c9d,69b95efdef24cd8a694e89ee,69b9601544c9ccd2758c35ad,0.0133,0.0133,0,34,34,128,1,fivesix,,,,,,,,,,,,,,,,,,,,,,,,,,,,,,,,,,,,,,,,,,,,,,,,,,,,,,,,,,,,,,,,,,,,,,,,,,,,,,,,,,,,,,,,,,,,,,,,,,,,,,,,,,,,,,,,,,,,,,,,,,,,,,,,,,,,,,,,,
,,5df6818e2b12bd474abc4c9d,2026-03-17_10h07.41.265,kallum_motion_pilot_GIST_update_2,2026.1.1,Win32,57.80346821,5df6818e2b12bd474abc4c9d,69b95efdef24cd8a694e89ee,69b9601544c9ccd2758c35ad,0.0133,0.0133,0,35,35,0,1,onetwo,,,,,,,,,,,,,,,,,,,,,,,,,,,,,,,,,,,,,,,,,,,,,,,,,,,,,,,,,,,,,,,,,,,,,,,,,,,,,,,,,,,,,,,,,,,,,,,,,,,,,,,,,,,,,,,,,,,,,,,,,,,,,,,,,,,,,,,,,
,,5df6818e2b12bd474abc4c9d,2026-03-17_10h07.41.265,kallum_motion_pilot_GIST_update_2,2026.1.1,Win32,57.80346821,5df6818e2b12bd474abc4c9d,69b95efdef24cd8a694e89ee,69b9601544c9ccd2758c35ad,0.0134,0.0134,0,36,36,34,1,twoone,,,,,,,,,,,,,,,,,,,,,,,,,,,,,,,,,,,,,,,,,,,,,,,,,,,,,,,,,,,,,,,,,,,,,,,,,,,,,,,,,,,,,,,,,,,,,,,,,,,,,,,,,,,,,,,,,,,,,,,,,,,,,,,,,,,,,,,,,
,,5df6818e2b12bd474abc4c9d,2026-03-17_10h07.41.265,kallum_motion_pilot_GIST_update_2,2026.1.1,Win32,57.80346821,5df6818e2b12bd474abc4c9d,69b95efdef24cd8a694e89ee,69b9601544c9ccd2758c35ad,0.0134,0.0134,0,37,37,8,1,onetwo,,,,,,,,,,,,,,,,,,,,,,,,,,,,,,,,,,,,,,,,,,,,,,,,,,,,,,,,,,,,,,,,,,,,,,,,,,,,,,,,,,,,,,,,,,,,,,,,,,,,,,,,,,,,,,,,,,,,,,,,,,,,,,,,,,,,,,,,,
,,5df6818e2b12bd474abc4c9d,2026-03-17_10h07.41.265,kallum_motion_pilot_GIST_update_2,2026.1.1,Win32,57.80346821,5df6818e2b12bd474abc4c9d,69b95efdef24cd8a694e89ee,69b9601544c9ccd2758c35ad,0.0134,0.0134,0,38,38,157,1,seveneight,,,,,,,,,,,,,,,,,,,,,,,,,,,,,,,,,,,,,,,,,,,,,,,,,,,,,,,,,,,,,,,,,,,,,,,,,,,,,,,,,,,,,,,,,,,,,,,,,,,,,,,,,,,,,,,,,,,,,,,,,,,,,,,,,,,,,,,,,
,,5df6818e2b12bd474abc4c9d,2026-03-17_10h07.41.265,kallum_motion_pilot_GIST_update_2,2026.1.1,Win32,57.80346821,5df6818e2b12bd474abc4c9d,69b95efdef24cd8a694e89ee,69b9601544c9ccd2758c35ad,0.0135,0.0135,0,39,39,134,1,eightsix,,,,,,,,,,,,,,,,,,,,,,,,,,,,,,,,,,,,,,,,,,,,,,,,,,,,,,,,,,,,,,,,,,,,,,,,,,,,,,,,,,,,,,,,,,,,,,,,,,,,,,,,,,,,,,,,,,,,,,,,,,,,,,,,,,,,,,,,,
,,5df6818e2b12bd474abc4c9d,2026-03-17_10h07.41.265,kallum_motion_pilot_GIST_update_2,2026.1.1,Win32,57.80346821,5df6818e2b12bd474abc4c9d,69b95efdef24cd8a694e89ee,69b9601544c9ccd2758c35ad,0.0135,0.0135,0,40,40,39,1,fourthree,,,,,,,,,,,,,,,,,,,,,,,,,,,,,,,,,,,,,,,,,,,,,,,,,,,,,,,,,,,,,,,,,,,,,,,,,,,,,,,,,,,,,,,,,,,,,,,,,,,,,,,,,,,,,,,,,,,,,,,,,,,,,,,,,,,,,,,,,
,,5df6818e2b12bd474abc4c9d,2026-03-17_10h07.41.265,kallum_motion_pilot_GIST_update_2,2026.1.1,Win32,57.80346821,5df6818e2b12bd474abc4c9d,69b95efdef24cd8a694e89ee,69b9601544c9ccd2758c35ad,0.0135,0.0135,0,41,41,82,1,sixfive,,,,,,,,,,,,,,,,,,,,,,,,,,,,,,,,,,,,,,,,,,,,,,,,,,,,,,,,,,,,,,,,,,,,,,,,,,,,,,,,,,,,,,,,,,,,,,,,,,,,,,,,,,,,,,,,,,,,,,,,,,,,,,,,,,,,,,,,,
,,5df6818e2b12bd474abc4c9d,2026-03-17_10h07.41.265,kallum_motion_pilot_GIST_update_2,2026.1.1,Win32,57.80346821,5df6818e2b12bd474abc4c9d,69b95efdef24cd8a694e89ee,69b9601544c9ccd2758c35ad,0.0136,0.0136,0,42,42,158,1,eightsix,,,,,,,,,,,,,,,,,,,,,,,,,,,,,,,,,,,,,,,,,,,,,,,,,,,,,,,,,,,,,,,,,,,,,,,,,,,,,,,,,,,,,,,,,,,,,,,,,,,,,,,,,,,,,,,,,,,,,,,,,,,,,,,,,,,,,,,,,
,,5df6818e2b12bd474abc4c9d,2026-03-17_10h07.41.265,kallum_motion_pilot_GIST_update_2,2026.1.1,Win32,57.80346821,5df6818e2b12bd474abc4c9d,69b95efdef24cd8a694e89ee,69b9601544c9ccd2758c35ad,0.0136,0.0136,0,43,43,52,1,threeone,,,,,,,,,,,,,,,,,,,,,,,,,,,,,,,,,,,,,,,,,,,,,,,,,,,,,,,,,,,,,,,,,,,,,,,,,,,,,,,,,,,,,,,,,,,,,,,,,,,,,,,,,,,,,,,,,,,,,,,,,,,,,,,,,,,,,,,,,
,,5df6818e2b12bd474abc4c9d,2026-03-17_10h07.41.265,kallum_motion_pilot_GIST_update_2,2026.1.1,Win32,57.80346821,5df6818e2b12bd474abc4c9d,69b95efdef24cd8a694e89ee,69b9601544c9ccd2758c35ad,0.0136,0.0136,0,44,44,71,1,fourthree,,,,,,,,,,,,,,,,,,,,,,,,,,,,,,,,,,,,,,,,,,,,,,,,,,,,,,,,,,,,,,,,,,,,,,,,,,,,,,,,,,,,,,,,,,,,,,,,,,,,,,,,,,,,,,,,,,,,,,,,,,,,,,,,,,,,,,,,,
,,5df6818e2b12bd474abc4c9d,2026-03-17_10h07.41.265,kallum_motion_pilot_GIST_update_2,2026.1.1,Win32,57.80346821,5df6818e2b12bd474abc4c9d,69b95efdef24cd8a694e89ee,69b9601544c9ccd2758c35ad,0.0136,0.0136,0,45,45,93,1,seveneight,,,,,,,,,,,,,,,,,,,,,,,,,,,,,,,,,,,,,,,,,,,,,,,,,,,,,,,,,,,,,,,,,,,,,,,,,,,,,,,,,,,,,,,,,,,,,,,,,,,,,,,,,,,,,,,,,,,,,,,,,,,,,,,,,,,,,,,,,
,,5df6818e2b12bd474abc4c9d,2026-03-17_10h07.41.265,kallum_motion_pilot_GIST_update_2,2026.1.1,Win32,57.80346821,5df6818e2b12bd474abc4c9d,69b95efdef24cd8a694e89ee,69b9601544c9ccd2758c35ad,0.0136,0.0136,0,46,46,121,1,fiveseven,,,,,,,,,,,,,,,,,,,,,,,,,,,,,,,,,,,,,,,,,,,,,,,,,,,,,,,,,,,,,,,,,,,,,,,,,,,,,,,,,,,,,,,,,,,,,,,,,,,,,,,,,,,,,,,,,,,,,,,,,,,,,,,,,,,,,,,,,
,,5df6818e2b12bd474abc4c9d,2026-03-17_10h07.41.265,kallum_motion_pilot_GIST_update_2,2026.1.1,Win32,57.80346821,5df6818e2b12bd474abc4c9d,69b95efdef24cd8a694e89ee,69b9601544c9ccd2758c35ad,0.0137,0.0137,0,47,47,154,1,sixfive,,,,,,,,,,,,,,,,,,,,,,,,,,,,,,,,,,,,,,,,,,,,,,,,,,,,,,,,,,,,,,,,,,,,,,,,,,,,,,,,,,,,,,,,,,,,,,,,,,,,,,,,,,,,,,,,,,,,,,,,,,,,,,,,,,,,,,,,,
,,5df6818e2b12bd474abc4c9d,2026-03-17_10h07.41.265,kallum_motion_pilot_GIST_update_2,2026.1.1,Win32,57.80346821,5df6818e2b12bd474abc4c9d,69b95efdef24cd8a694e89ee,69b9601544c9ccd2758c35ad,0.0138,0.0138,0,48,48,87,1,eightseven,,,,,,,,,,,,,,,,,,,,,,,,,,,,,,,,,,,,,,,,,,,,,,,,,,,,,,,,,,,,,,,,,,,,,,,,,,,,,,,,,,,,,,,,,,,,,,,,,,,,,,,,,,,,,,,,,,,,,,,,,,,,,,,,,,,,,,,,,
,,5df6818e2b12bd474abc4c9d,2026-03-17_10h07.41.265,kallum_motion_pilot_GIST_update_2,2026.1.1,Win32,57.80346821,5df6818e2b12bd474abc4c9d,69b95efdef24cd8a694e89ee,69b9601544c9ccd2758c35ad,0.0138,0.0138,0,49,49,4,1,threeone,,,,,,,,,,,,,,,,,,,,,,,,,,,,,,,,,,,,,,,,,,,,,,,,,,,,,,,,,,,,,,,,,,,,,,,,,,,,,,,,,,,,,,,,,,,,,,,,,,,,,,,,,,,,,,,,,,,,,,,,,,,,,,,,,,,,,,,,,
,,5df6818e2b12bd474abc4c9d,2026-03-17_10h07.41.265,kallum_motion_pilot_GIST_update_2,2026.1.1,Win32,57.80346821,5df6818e2b12bd474abc4c9d,69b95efdef24cd8a694e89ee,69b9601544c9ccd2758c35ad,0.0138,0.0138,0,50,50,144,1,fivesix,,,,,,,,,,,,,,,,,,,,,,,,,,,,,,,,,,,,,,,,,,,,,,,,,,,,,,,,,,,,,,,,,,,,,,,,,,,,,,,,,,,,,,,,,,,,,,,,,,,,,,,,,,,,,,,,,,,,,,,,,,,,,,,,,,,,,,,,,
,,5df6818e2b12bd474abc4c9d,2026-03-17_10h07.41.265,kallum_motion_pilot_GIST_update_2,2026.1.1,Win32,57.80346821,5df6818e2b12bd474abc4c9d,69b95efdef24cd8a694e89ee,69b9601544c9ccd2758c35ad,0.0138,0.0138,0,51,51,95,1,eightseven,,,,,,,,,,,,,,,,,,,,,,,,,,,,,,,,,,,,,,,,,,,,,,,,,,,,,,,,,,,,,,,,,,,,,,,,,,,,,,,,,,,,,,,,,,,,,,,,,,,,,,,,,,,,,,,,,,,,,,,,,,,,,,,,,,,,,,,,,
,,5df6818e2b12bd474abc4c9d,2026-03-17_10h07.41.265,kallum_motion_pilot_GIST_update_2,2026.1.1,Win32,57.80346821,5df6818e2b12bd474abc4c9d,69b95efdef24cd8a694e89ee,69b9601544c9ccd2758c35ad,0.0138,0.0138,0,52,52,13,1,threefour,,,,,,,,,,,,,,,,,,,,,,,,,,,,,,,,,,,,,,,,,,,,,,,,,,,,,,,,,,,,,,,,,,,,,,,,,,,,,,,,,,,,,,,,,,,,,,,,,,,,,,,,,,,,,,,,,,,,,,,,,,,,,,,,,,,,,,,,,
,,5df6818e2b12bd474abc4c9d,2026-03-17_10h07.41.265,kallum_motion_pilot_GIST_update_2,2026.1.1,Win32,57.80346821,5df6818e2b12bd474abc4c9d,69b95efdef24cd8a694e89ee,69b9601544c9ccd2758c35ad,0.0139,0.0139,0,53,53,38,1,fourtwo,,,,,,,,,,,,,,,,,,,,,,,,,,,,,,,,,,,,,,,,,,,,,,,,,,,,,,,,,,,,,,,,,,,,,,,,,,,,,,,,,,,,,,,,,,,,,,,,,,,,,,,,,,,,,,,,,,,,,,,,,,,,,,,,,,,,,,,,,
,,5df6818e2b12bd474abc4c9d,2026-03-17_10h07.41.265,kallum_motion_pilot_GIST_update_2,2026.1.1,Win32,57.80346821,5df6818e2b12bd474abc4c9d,69b95efdef24cd8a694e89ee,69b9601544c9ccd2758c35ad,0.0139,0.0139,0,54,54,96,1,fivesix,,,,,,,,,,,,,,,,,,,,,,,,,,,,,,,,,,,,,,,,,,,,,,,,,,,,,,,,,,,,,,,,,,,,,,,,,,,,,,,,,,,,,,,,,,,,,,,,,,,,,,,,,,,,,,,,,,,,,,,,,,,,,,,,,,,,,,,,,
,,5df6818e2b12bd474abc4c9d,2026-03-17_10h07.41.265,kallum_motion_pilot_GIST_update_2,2026.1.1,Win32,57.80346821,5df6818e2b12bd474abc4c9d,69b95efdef24cd8a694e89ee,69b9601544c9ccd2758c35ad,0.0139,0.0139,0,55,55,58,1,twoone,,,,,,,,,,,,,,,,,,,,,,,,,,,,,,,,,,,,,,,,,,,,,,,,,,,,,,,,,,,,,,,,,,,,,,,,,,,,,,,,,,,,,,,,,,,,,,,,,,,,,,,,,,,,,,,,,,,,,,,,,,,,,,,,,,,,,,,,,
,,5df6818e2b12bd474abc4c9d,2026-03-17_10h07.41.265,kallum_motion_pilot_GIST_update_2,2026.1.1,Win32,57.80346821,5df6818e2b12bd474abc4c9d,69b95efdef24cd8a694e89ee,69b9601544c9ccd2758c35ad,0.014,0.0141,0,56,56,103,1,eightseven,,,,,,,,,,,,,,,,,,,,,,,,,,,,,,,,,,,,,,,,,,,,,,,,,,,,,,,,,,,,,,,,,,,,,,,,,,,,,,,,,,,,,,,,,,,,,,,,,,,,,,,,,,,,,,,,,,,,,,,,,,,,,,,,,,,,,,,,,
,,5df6818e2b12bd474abc4c9d,2026-03-17_10h07.41.265,kallum_motion_pilot_GIST_update_2,2026.1.1,Win32,57.80346821,5df6818e2b12bd474abc4c9d,69b95efdef24cd8a694e89ee,69b9601544c9ccd2758c35ad,0.0141,0.0141,0,57,57,22,1,fourtwo,,,,,,,,,,,,,,,,,,,,,,,,,,,,,,,,,,,,,,,,,,,,,,,,,,,,,,,,,,,,,,,,,,,,,,,,,,,,,,,,,,,,,,,,,,,,,,,,,,,,,,,,,,,,,,,,,,,,,,,,,,,,,,,,,,,,,,,,,
,,5df6818e2b12bd474abc4c9d,2026-03-17_10h07.41.265,kallum_motion_pilot_GIST_update_2,2026.1.1,Win32,57.80346821,5df6818e2b12bd474abc4c9d,69b95efdef24cd8a694e89ee,69b9601544c9ccd2758c35ad,0.0141,0.0141,0,58,58,31,1,fourthree,,,,,,,,,,,,,,,,,,,,,,,,,,,,,,,,,,,,,,,,,,,,,,,,,,,,,,,,,,,,,,,,,,,,,,,,,,,,,,,,,,,,,,,,,,,,,,,,,,,,,,,,,,,,,,,,,,,,,,,,,,,,,,,,,,,,,,,,,
,,5df6818e2b12bd474abc4c9d,2026-03-17_10h07.41.265,kallum_motion_pilot_GIST_update_2,2026.1.1,Win32,57.80346821,5df6818e2b12bd474abc4c9d,69b95efdef24cd8a694e89ee,69b9601544c9ccd2758c35ad,0.0141,0.0141,0,59,59,91,1,sixeight,,,,,,,,,,,,,,,,,,,,,,,,,,,,,,,,,,,,,,,,,,,,,,,,,,,,,,,,,,,,,,,,,,,,,,,,,,,,,,,,,,,,,,,,,,,,,,,,,,,,,,,,,,,,,,,,,,,,,,,,,,,,,,,,,,,,,,,,,
,,5df6818e2b12bd474abc4c9d,2026-03-17_10h07.41.265,kallum_motion_pilot_GIST_update_2,2026.1.1,Win32,57.80346821,5df6818e2b12bd474abc4c9d,69b95efdef24cd8a694e89ee,69b9601544c9ccd2758c35ad,0.0141,0.0141,0,60,60,75,1,twofour,,,,,,,,,,,,,,,,,,,,,,,,,,,,,,,,,,,,,,,,,,,,,,,,,,,,,,,,,,,,,,,,,,,,,,,,,,,,,,,,,,,,,,,,,,,,,,,,,,,,,,,,,,,,,,,,,,,,,,,,,,,,,,,,,,,,,,,,,
,,5df6818e2b12bd474abc4c9d,2026-03-17_10h07.41.265,kallum_motion_pilot_GIST_update_2,2026.1.1,Win32,57.80346821,5df6818e2b12bd474abc4c9d,69b95efdef24cd8a694e89ee,69b9601544c9ccd2758c35ad,0.0141,0.0141,0,61,61,65,1,onethree,,,,,,,,,,,,,,,,,,,,,,,,,,,,,,,,,,,,,,,,,,,,,,,,,,,,,,,,,,,,,,,,,,,,,,,,,,,,,,,,,,,,,,,,,,,,,,,,,,,,,,,,,,,,,,,,,,,,,,,,,,,,,,,,,,,,,,,,,
,,5df6818e2b12bd474abc4c9d,2026-03-17_10h07.41.265,kallum_motion_pilot_GIST_update_2,2026.1.1,Win32,57.80346821,5df6818e2b12bd474abc4c9d,69b95efdef24cd8a694e89ee,69b9601544c9ccd2758c35ad,0.0142,0.0142,0,62,62,151,1,eightseven,,,,,,,,,,,,,,,,,,,,,,,,,,,,,,,,,,,,,,,,,,,,,,,,,,,,,,,,,,,,,,,,,,,,,,,,,,,,,,,,,,,,,,,,,,,,,,,,,,,,,,,,,,,,,,,,,,,,,,,,,,,,,,,,,,,,,,,,,
,,5df6818e2b12bd474abc4c9d,2026-03-17_10h07.41.265,kallum_motion_pilot_GIST_update_2,2026.1.1,Win32,57.80346821,5df6818e2b12bd474abc4c9d,69b95efdef24cd8a694e89ee,69b9601544c9ccd2758c35ad,0.0142,0.0142,0,63,63,111,1,eightseven,,,,,,,,,,,,,,,,,,,,,,,,,,,,,,,,,,,,,,,,,,,,,,,,,,,,,,,,,,,,,,,,,,,,,,,,,,,,,,,,,,,,,,,,,,,,,,,,,,,,,,,,,,,,,,,,,,,,,,,,,,,,,,,,,,,,,,,,,
,,5df6818e2b12bd474abc4c9d,2026-03-17_10h07.41.265,kallum_motion_pilot_GIST_update_2,2026.1.1,Win32,57.80346821,5df6818e2b12bd474abc4c9d,69b95efdef24cd8a694e89ee,69b9601544c9ccd2758c35ad,0.0143,0.0143,0,64,64,5,1,threefour,,,,,,,,,,,,,,,,,,,,,,,,,,,,,,,,,,,,,,,,,,,,,,,,,,,,,,,,,,,,,,,,,,,,,,,,,,,,,,,,,,,,,,,,,,,,,,,,,,,,,,,,,,,,,,,,,,,,,,,,,,,,,,,,,,,,,,,,,
,,5df6818e2b12bd474abc4c9d,2026-03-17_10h07.41.265,kallum_motion_pilot_GIST_update_2,2026.1.1,Win32,57.80346821,5df6818e2b12bd474abc4c9d,69b95efdef24cd8a694e89ee,69b9601544c9ccd2758c35ad,0.0143,0.0143,0,65,65,62,1,fourtwo,,,,,,,,,,,,,,,,,,,,,,,,,,,,,,,,,,,,,,,,,,,,,,,,,,,,,,,,,,,,,,,,,,,,,,,,,,,,,,,,,,,,,,,,,,,,,,,,,,,,,,,,,,,,,,,,,,,,,,,,,,,,,,,,,,,,,,,,,
,,5df6818e2b12bd474abc4c9d,2026-03-17_10h07.41.265,kallum_motion_pilot_GIST_update_2,2026.1.1,Win32,57.80346821,5df6818e2b12bd474abc4c9d,69b95efdef24cd8a694e89ee,69b9601544c9ccd2758c35ad,0.0144,0.0144,0,66,66,10,1,twoone,,,,,,,,,,,,,,,,,,,,,,,,,,,,,,,,,,,,,,,,,,,,,,,,,,,,,,,,,,,,,,,,,,,,,,,,,,,,,,,,,,,,,,,,,,,,,,,,,,,,,,,,,,,,,,,,,,,,,,,,,,,,,,,,,,,,,,,,,
,,5df6818e2b12bd474abc4c9d,2026-03-17_10h07.41.265,kallum_motion_pilot_GIST_update_2,2026.1.1,Win32,57.80346821,5df6818e2b12bd474abc4c9d,69b95efdef24cd8a694e89ee,69b9601544c9ccd2758c35ad,0.0144,0.0144,0,67,67,146,1,sixfive,,,,,,,,,,,,,,,,,,,,,,,,,,,,,,,,,,,,,,,,,,,,,,,,,,,,,,,,,,,,,,,,,,,,,,,,,,,,,,,,,,,,,,,,,,,,,,,,,,,,,,,,,,,,,,,,,,,,,,,,,,,,,,,,,,,,,,,,,
,,5df6818e2b12bd474abc4c9d,2026-03-17_10h07.41.265,kallum_motion_pilot_GIST_update_2,2026.1.1,Win32,57.80346821,5df6818e2b12bd474abc4c9d,69b95efdef24cd8a694e89ee,69b9601544c9ccd2758c35ad,0.0144,0.0144,0,68,68,7,1,fourthree,,,,,,,,,,,,,,,,,,,,,,,,,,,,,,,,,,,,,,,,,,,,,,,,,,,,,,,,,,,,,,,,,,,,,,,,,,,,,,,,,,,,,,,,,,,,,,,,,,,,,,,,,,,,,,,,,,,,,,,,,,,,,,,,,,,,,,,,,
,,5df6818e2b12bd474abc4c9d,2026-03-17_10h07.41.265,kallum_motion_pilot_GIST_update_2,2026.1.1,Win32,57.80346821,5df6818e2b12bd474abc4c9d,69b95efdef24cd8a694e89ee,69b9601544c9ccd2758c35ad,0.0145,0.0145,0,69,69,63,1,fourthree,,,,,,,,,,,,,,,,,,,,,,,,,,,,,,,,,,,,,,,,,,,,,,,,,,,,,,,,,,,,,,,,,,,,,,,,,,,,,,,,,,,,,,,,,,,,,,,,,,,,,,,,,,,,,,,,,,,,,,,,,,,,,,,,,,,,,,,,,
,,5df6818e2b12bd474abc4c9d,2026-03-17_10h07.41.265,kallum_motion_pilot_GIST_update_2,2026.1.1,Win32,57.80346821,5df6818e2b12bd474abc4c9d,69b95efdef24cd8a694e89ee,69b9601544c9ccd2758c35ad,0.0146,0.0146,0,70,70,123,1,sixeight,,,,,,,,,,,,,,,,,,,,,,,,,,,,,,,,,,,,,,,,,,,,,,,,,,,,,,,,,,,,,,,,,,,,,,,,,,,,,,,,,,,,,,,,,,,,,,,,,,,,,,,,,,,,,,,,,,,,,,,,,,,,,,,,,,,,,,,,,
,,5df6818e2b12bd474abc4c9d,2026-03-17_10h07.41.265,kallum_motion_pilot_GIST_update_2,2026.1.1,Win32,57.80346821,5df6818e2b12bd474abc4c9d,69b95efdef24cd8a694e89ee,69b9601544c9ccd2758c35ad,0.0146,0.0146,0,71,71,129,1,fiveseven,,,,,,,,,,,,,,,,,,,,,,,,,,,,,,,,,,,,,,,,,,,,,,,,,,,,,,,,,,,,,,,,,,,,,,,,,,,,,,,,,,,,,,,,,,,,,,,,,,,,,,,,,,,,,,,,,,,,,,,,,,,,,,,,,,,,,,,,,
,,5df6818e2b12bd474abc4c9d,2026-03-17_10h07.41.265,kallum_motion_pilot_GIST_update_2,2026.1.1,Win32,57.80346821,5df6818e2b12bd474abc4c9d,69b95efdef24cd8a694e89ee,69b9601544c9ccd2758c35ad,0.0147,0.0147,0,72,72,29,1,threefour,,,,,,,,,,,,,,,,,,,,,,,,,,,,,,,,,,,,,,,,,,,,,,,,,,,,,,,,,,,,,,,,,,,,,,,,,,,,,,,,,,,,,,,,,,,,,,,,,,,,,,,,,,,,,,,,,,,,,,,,,,,,,,,,,,,,,,,,,
,,5df6818e2b12bd474abc4c9d,2026-03-17_10h07.41.265,kallum_motion_pilot_GIST_update_2,2026.1.1,Win32,57.80346821,5df6818e2b12bd474abc4c9d,69b95efdef24cd8a694e89ee,69b9601544c9ccd2758c35ad,0.0147,0.0147,0,73,73,131,1,sixeight,,,,,,,,,,,,,,,,,,,,,,,,,,,,,,,,,,,,,,,,,,,,,,,,,,,,,,,,,,,,,,,,,,,,,,,,,,,,,,,,,,,,,,,,,,,,,,,,,,,,,,,,,,,,,,,,,,,,,,,,,,,,,,,,,,,,,,,,,
,,5df6818e2b12bd474abc4c9d,2026-03-17_10h07.41.265,kallum_motion_pilot_GIST_update_2,2026.1.1,Win32,57.80346821,5df6818e2b12bd474abc4c9d,69b95efdef24cd8a694e89ee,69b9601544c9ccd2758c35ad,0.0147,0.0147,0,74,74,100,1,sevenfive,,,,,,,,,,,,,,,,,,,,,,,,,,,,,,,,,,,,,,,,,,,,,,,,,,,,,,,,,,,,,,,,,,,,,,,,,,,,,,,,,,,,,,,,,,,,,,,,,,,,,,,,,,,,,,,,,,,,,,,,,,,,,,,,,,,,,,,,,
,,5df6818e2b12bd474abc4c9d,2026-03-17_10h07.41.265,kallum_motion_pilot_GIST_update_2,2026.1.1,Win32,57.80346821,5df6818e2b12bd474abc4c9d,69b95efdef24cd8a694e89ee,69b9601544c9ccd2758c35ad,0.0147,0.0147,0,75,75,19,1,twofour,,,,,,,,,,,,,,,,,,,,,,,,,,,,,,,,,,,,,,,,,,,,,,,,,,,,,,,,,,,,,,,,,,,,,,,,,,,,,,,,,,,,,,,,,,,,,,,,,,,,,,,,,,,,,,,,,,,,,,,,,,,,,,,,,,,,,,,,,
,,5df6818e2b12bd474abc4c9d,2026-03-17_10h07.41.265,kallum_motion_pilot_GIST_update_2,2026.1.1,Win32,57.80346821,5df6818e2b12bd474abc4c9d,69b95efdef24cd8a694e89ee,69b9601544c9ccd2758c35ad,0.0148,0.0148,0,76,76,105,1,fiveseven,,,,,,,,,,,,,,,,,,,,,,,,,,,,,,,,,,,,,,,,,,,,,,,,,,,,,,,,,,,,,,,,,,,,,,,,,,,,,,,,,,,,,,,,,,,,,,,,,,,,,,,,,,,,,,,,,,,,,,,,,,,,,,,,,,,,,,,,,
,,5df6818e2b12bd474abc4c9d,2026-03-17_10h07.41.265,kallum_motion_pilot_GIST_update_2,2026.1.1,Win32,57.80346821,5df6818e2b12bd474abc4c9d,69b95efdef24cd8a694e89ee,69b9601544c9ccd2758c35ad,0.0148,0.0148,0,77,77,88,1,fivesix,,,,,,,,,,,,,,,,,,,,,,,,,,,,,,,,,,,,,,,,,,,,,,,,,,,,,,,,,,,,,,,,,,,,,,,,,,,,,,,,,,,,,,,,,,,,,,,,,,,,,,,,,,,,,,,,,,,,,,,,,,,,,,,,,,,,,,,,,
,,5df6818e2b12bd474abc4c9d,2026-03-17_10h07.41.265,kallum_motion_pilot_GIST_update_2,2026.1.1,Win32,57.80346821,5df6818e2b12bd474abc4c9d,69b95efdef24cd8a694e89ee,69b9601544c9ccd2758c35ad,0.0149,0.0149,0,78,78,108,1,sevenfive,,,,,,,,,,,,,,,,,,,,,,,,,,,,,,,,,,,,,,,,,,,,,,,,,,,,,,,,,,,,,,,,,,,,,,,,,,,,,,,,,,,,,,,,,,,,,,,,,,,,,,,,,,,,,,,,,,,,,,,,,,,,,,,,,,,,,,,,,
,,5df6818e2b12bd474abc4c9d,2026-03-17_10h07.41.265,kallum_motion_pilot_GIST_update_2,2026.1.1,Win32,57.80346821,5df6818e2b12bd474abc4c9d,69b95efdef24cd8a694e89ee,69b9601544c9ccd2758c35ad,0.0149,0.0149,0,79,79,137,1,fiveseven,,,,,,,,,,,,,,,,,,,,,,,,,,,,,,,,,,,,,,,,,,,,,,,,,,,,,,,,,,,,,,,,,,,,,,,,,,,,,,,,,,,,,,,,,,,,,,,,,,,,,,,,,,,,,,,,,,,,,,,,,,,,,,,,,,,,,,,,,
,,5df6818e2b12bd474abc4c9d,2026-03-17_10h07.41.265,kallum_motion_pilot_GIST_update_2,2026.1.1,Win32,57.80346821,5df6818e2b12bd474abc4c9d,69b95efdef24cd8a694e89ee,69b9601544c9ccd2758c35ad,0.0149,0.0149,0,80,80,28,1,threeone,,,,,,,,,,,,,,,,,,,,,,,,,,,,,,,,,,,,,,,,,,,,,,,,,,,,,,,,,,,,,,,,,,,,,,,,,,,,,,,,,,,,,,,,,,,,,,,,,,,,,,,,,,,,,,,,,,,,,,,,,,,,,,,,,,,,,,,,,
,,5df6818e2b12bd474abc4c9d,2026-03-17_10h07.41.265,kallum_motion_pilot_GIST_update_2,2026.1.1,Win32,57.80346821,5df6818e2b12bd474abc4c9d,69b95efdef24cd8a694e89ee,69b9601544c9ccd2758c35ad,0.015,0.015,0,81,81,21,1,threefour,,,,,,,,,,,,,,,,,,,,,,,,,,,,,,,,,,,,,,,,,,,,,,,,,,,,,,,,,,,,,,,,,,,,,,,,,,,,,,,,,,,,,,,,,,,,,,,,,,,,,,,,,,,,,,,,,,,,,,,,,,,,,,,,,,,,,,,,,
,,5df6818e2b12bd474abc4c9d,2026-03-17_10h07.41.265,kallum_motion_pilot_GIST_update_2,2026.1.1,Win32,57.80346821,5df6818e2b12bd474abc4c9d,69b95efdef24cd8a694e89ee,69b9601544c9ccd2758c35ad,0.015,0.015,0,82,82,101,1,seveneight,,,,,,,,,,,,,,,,,,,,,,,,,,,,,,,,,,,,,,,,,,,,,,,,,,,,,,,,,,,,,,,,,,,,,,,,,,,,,,,,,,,,,,,,,,,,,,,,,,,,,,,,,,,,,,,,,,,,,,,,,,,,,,,,,,,,,,,,,
,,5df6818e2b12bd474abc4c9d,2026-03-17_10h07.41.265,kallum_motion_pilot_GIST_update_2,2026.1.1,Win32,57.80346821,5df6818e2b12bd474abc4c9d,69b95efdef24cd8a694e89ee,69b9601544c9ccd2758c35ad,0.015,0.015,0,83,83,48,1,onetwo,,,,,,,,,,,,,,,,,,,,,,,,,,,,,,,,,,,,,,,,,,,,,,,,,,,,,,,,,,,,,,,,,,,,,,,,,,,,,,,,,,,,,,,,,,,,,,,,,,,,,,,,,,,,,,,,,,,,,,,,,,,,,,,,,,,,,,,,,
,,5df6818e2b12bd474abc4c9d,2026-03-17_10h07.41.265,kallum_motion_pilot_GIST_update_2,2026.1.1,Win32,57.80346821,5df6818e2b12bd474abc4c9d,69b95efdef24cd8a694e89ee,69b9601544c9ccd2758c35ad,0.0151,0.0151,0,84,84,125,1,seveneight,,,,,,,,,,,,,,,,,,,,,,,,,,,,,,,,,,,,,,,,,,,,,,,,,,,,,,,,,,,,,,,,,,,,,,,,,,,,,,,,,,,,,,,,,,,,,,,,,,,,,,,,,,,,,,,,,,,,,,,,,,,,,,,,,,,,,,,,,
,,5df6818e2b12bd474abc4c9d,2026-03-17_10h07.41.265,kallum_motion_pilot_GIST_update_2,2026.1.1,Win32,57.80346821,5df6818e2b12bd474abc4c9d,69b95efdef24cd8a694e89ee,69b9601544c9ccd2758c35ad,0.0152,0.0152,0,85,85,46,1,fourtwo,,,,,,,,,,,,,,,,,,,,,,,,,,,,,,,,,,,,,,,,,,,,,,,,,,,,,,,,,,,,,,,,,,,,,,,,,,,,,,,,,,,,,,,,,,,,,,,,,,,,,,,,,,,,,,,,,,,,,,,,,,,,,,,,,,,,,,,,,
,,5df6818e2b12bd474abc4c9d,2026-03-17_10h07.41.265,kallum_motion_pilot_GIST_update_2,2026.1.1,Win32,57.80346821,5df6818e2b12bd474abc4c9d,69b95efdef24cd8a694e89ee,69b9601544c9ccd2758c35ad,0.0152,0.0152,0,86,86,116,1,sevenfive,,,,,,,,,,,,,,,,,,,,,,,,,,,,,,,,,,,,,,,,,,,,,,,,,,,,,,,,,,,,,,,,,,,,,,,,,,,,,,,,,,,,,,,,,,,,,,,,,,,,,,,,,,,,,,,,,,,,,,,,,,,,,,,,,,,,,,,,,
,,5df6818e2b12bd474abc4c9d,2026-03-17_10h07.41.265,kallum_motion_pilot_GIST_update_2,2026.1.1,Win32,57.80346821,5df6818e2b12bd474abc4c9d,69b95efdef24cd8a694e89ee,69b9601544c9ccd2758c35ad,0.0152,0.0152,0,87,87,149,1,seveneight,,,,,,,,,,,,,,,,,,,,,,,,,,,,,,,,,,,,,,,,,,,,,,,,,,,,,,,,,,,,,,,,,,,,,,,,,,,,,,,,,,,,,,,,,,,,,,,,,,,,,,,,,,,,,,,,,,,,,,,,,,,,,,,,,,,,,,,,,
,,5df6818e2b12bd474abc4c9d,2026-03-17_10h07.41.265,kallum_motion_pilot_GIST_update_2,2026.1.1,Win32,57.80346821,5df6818e2b12bd474abc4c9d,69b95efdef24cd8a694e89ee,69b9601544c9ccd2758c35ad,0.0152,0.0152,0,88,88,150,1,eightsix,,,,,,,,,,,,,,,,,,,,,,,,,,,,,,,,,,,,,,,,,,,,,,,,,,,,,,,,,,,,,,,,,,,,,,,,,,,,,,,,,,,,,,,,,,,,,,,,,,,,,,,,,,,,,,,,,,,,,,,,,,,,,,,,,,,,,,,,,
,,5df6818e2b12bd474abc4c9d,2026-03-17_10h07.41.265,kallum_motion_pilot_GIST_update_2,2026.1.1,Win32,57.80346821,5df6818e2b12bd474abc4c9d,69b95efdef24cd8a694e89ee,69b9601544c9ccd2758c35ad,0.0153,0.0153,0,89,89,122,1,sixfive,,,,,,,,,,,,,,,,,,,,,,,,,,,,,,,,,,,,,,,,,,,,,,,,,,,,,,,,,,,,,,,,,,,,,,,,,,,,,,,,,,,,,,,,,,,,,,,,,,,,,,,,,,,,,,,,,,,,,,,,,,,,,,,,,,,,,,,,,
,,5df6818e2b12bd474abc4c9d,2026-03-17_10h07.41.265,kallum_motion_pilot_GIST_update_2,2026.1.1,Win32,57.80346821,5df6818e2b12bd474abc4c9d,69b95efdef24cd8a694e89ee,69b9601544c9ccd2758c35ad,0.0153,0.0153,0,90,90,49,1,onethree,,,,,,,,,,,,,,,,,,,,,,,,,,,,,,,,,,,,,,,,,,,,,,,,,,,,,,,,,,,,,,,,,,,,,,,,,,,,,,,,,,,,,,,,,,,,,,,,,,,,,,,,,,,,,,,,,,,,,,,,,,,,,,,,,,,,,,,,,
,,5df6818e2b12bd474abc4c9d,2026-03-17_10h07.41.265,kallum_motion_pilot_GIST_update_2,2026.1.1,Win32,57.80346821,5df6818e2b12bd474abc4c9d,69b95efdef24cd8a694e89ee,69b9601544c9ccd2758c35ad,0.0154,0.0154,0,91,91,102,1,eightsix,,,,,,,,,,,,,,,,,,,,,,,,,,,,,,,,,,,,,,,,,,,,,,,,,,,,,,,,,,,,,,,,,,,,,,,,,,,,,,,,,,,,,,,,,,,,,,,,,,,,,,,,,,,,,,,,,,,,,,,,,,,,,,,,,,,,,,,,,
,,5df6818e2b12bd474abc4c9d,2026-03-17_10h07.41.265,kallum_motion_pilot_GIST_update_2,2026.1.1,Win32,57.80346821,5df6818e2b12bd474abc4c9d,69b95efdef24cd8a694e89ee,69b9601544c9ccd2758c35ad,0.0155,0.0155,0,92,92,153,1,fiveseven,,,,,,,,,,,,,,,,,,,,,,,,,,,,,,,,,,,,,,,,,,,,,,,,,,,,,,,,,,,,,,,,,,,,,,,,,,,,,,,,,,,,,,,,,,,,,,,,,,,,,,,,,,,,,,,,,,,,,,,,,,,,,,,,,,,,,,,,,
,,5df6818e2b12bd474abc4c9d,2026-03-17_10h07.41.265,kallum_motion_pilot_GIST_update_2,2026.1.1,Win32,57.80346821,5df6818e2b12bd474abc4c9d,69b95efdef24cd8a694e89ee,69b9601544c9ccd2758c35ad,0.0155,0.0155,0,93,93,152,1,fivesix,,,,,,,,,,,,,,,,,,,,,,,,,,,,,,,,,,,,,,,,,,,,,,,,,,,,,,,,,,,,,,,,,,,,,,,,,,,,,,,,,,,,,,,,,,,,,,,,,,,,,,,,,,,,,,,,,,,,,,,,,,,,,,,,,,,,,,,,,
,,5df6818e2b12bd474abc4c9d,2026-03-17_10h07.41.265,kallum_motion_pilot_GIST_update_2,2026.1.1,Win32,57.80346821,5df6818e2b12bd474abc4c9d,69b95efdef24cd8a694e89ee,69b9601544c9ccd2758c35ad,0.0157,0.0157,0,94,94,80,1,fivesix,,,,,,,,,,,,,,,,,,,,,,,,,,,,,,,,,,,,,,,,,,,,,,,,,,,,,,,,,,,,,,,,,,,,,,,,,,,,,,,,,,,,,,,,,,,,,,,,,,,,,,,,,,,,,,,,,,,,,,,,,,,,,,,,,,,,,,,,,
,,5df6818e2b12bd474abc4c9d,2026-03-17_10h07.41.265,kallum_motion_pilot_GIST_update_2,2026.1.1,Win32,57.80346821,5df6818e2b12bd474abc4c9d,69b95efdef24cd8a694e89ee,69b9601544c9ccd2758c35ad,0.0157,0.0157,0,95,95,155,1,sixeight,,,,,,,,,,,,,,,,,,,,,,,,,,,,,,,,,,,,,,,,,,,,,,,,,,,,,,,,,,,,,,,,,,,,,,,,,,,,,,,,,,,,,,,,,,,,,,,,,,,,,,,,,,,,,,,,,,,,,,,,,,,,,,,,,,,,,,,,,
,,5df6818e2b12bd474abc4c9d,2026-03-17_10h07.41.265,kallum_motion_pilot_GIST_update_2,2026.1.1,Win32,57.80346821,5df6818e2b12bd474abc4c9d,69b95efdef24cd8a694e89ee,69b9601544c9ccd2758c35ad,0.0157,0.0157,0,96,96,56,1,onetwo,,,,,,,,,,,,,,,,,,,,,,,,,,,,,,,,,,,,,,,,,,,,,,,,,,,,,,,,,,,,,,,,,,,,,,,,,,,,,,,,,,,,,,,,,,,,,,,,,,,,,,,,,,,,,,,,,,,,,,,,,,,,,,,,,,,,,,,,,
,,5df6818e2b12bd474abc4c9d,2026-03-17_10h07.41.265,kallum_motion_pilot_GIST_update_2,2026.1.1,Win32,57.80346821,5df6818e2b12bd474abc4c9d,69b95efdef24cd8a694e89ee,69b9601544c9ccd2758c35ad,0.0158,0.0158,0,97,97,27,1,twofour,,,,,,,,,,,,,,,,,,,,,,,,,,,,,,,,,,,,,,,,,,,,,,,,,,,,,,,,,,,,,,,,,,,,,,,,,,,,,,,,,,,,,,,,,,,,,,,,,,,,,,,,,,,,,,,,,,,,,,,,,,,,,,,,,,,,,,,,,
,,5df6818e2b12bd474abc4c9d,2026-03-17_10h07.41.265,kallum_motion_pilot_GIST_update_2,2026.1.1,Win32,57.80346821,5df6818e2b12bd474abc4c9d,69b95efdef24cd8a694e89ee,69b9601544c9ccd2758c35ad,0.0158,0.0158,0,98,98,139,1,sixeight,,,,,,,,,,,,,,,,,,,,,,,,,,,,,,,,,,,,,,,,,,,,,,,,,,,,,,,,,,,,,,,,,,,,,,,,,,,,,,,,,,,,,,,,,,,,,,,,,,,,,,,,,,,,,,,,,,,,,,,,,,,,,,,,,,,,,,,,,
,,5df6818e2b12bd474abc4c9d,2026-03-17_10h07.41.265,kallum_motion_pilot_GIST_update_2,2026.1.1,Win32,57.80346821,5df6818e2b12bd474abc4c9d,69b95efdef24cd8a694e89ee,69b9601544c9ccd2758c35ad,0.0158,0.0158,0,99,99,79,1,eightseven,,,,,,,,,,,,,,,,,,,,,,,,,,,,,,,,,,,,,,,,,,,,,,,,,,,,,,,,,,,,,,,,,,,,,,,,,,,,,,,,,,,,,,,,,,,,,,,,,,,,,,,,,,,,,,,,,,,,,,,,,,,,,,,,,,,,,,,,,
,,5df6818e2b12bd474abc4c9d,2026-03-17_10h07.41.265,kallum_motion_pilot_GIST_update_2,2026.1.1,Win32,57.80346821,5df6818e2b12bd474abc4c9d,69b95efdef24cd8a694e89ee,69b9601544c9ccd2758c35ad,0.0159,0.0159,0,100,100,59,1,twofour,,,,,,,,,,,,,,,,,,,,,,,,,,,,,,,,,,,,,,,,,,,,,,,,,,,,,,,,,,,,,,,,,,,,,,,,,,,,,,,,,,,,,,,,,,,,,,,,,,,,,,,,,,,,,,,,,,,,,,,,,,,,,,,,,,,,,,,,,
,,5df6818e2b12bd474abc4c9d,2026-03-17_10h07.41.265,kallum_motion_pilot_GIST_update_2,2026.1.1,Win32,57.80346821,5df6818e2b12bd474abc4c9d,69b95efdef24cd8a694e89ee,69b9601544c9ccd2758c35ad,0.0159,0.0159,0,101,101,57,1,onethree,,,,,,,,,,,,,,,,,,,,,,,,,,,,,,,,,,,,,,,,,,,,,,,,,,,,,,,,,,,,,,,,,,,,,,,,,,,,,,,,,,,,,,,,,,,,,,,,,,,,,,,,,,,,,,,,,,,,,,,,,,,,,,,,,,,,,,,,,
,,5df6818e2b12bd474abc4c9d,2026-03-17_10h07.41.265,kallum_motion_pilot_GIST_update_2,2026.1.1,Win32,57.80346821,5df6818e2b12bd474abc4c9d,69b95efdef24cd8a694e89ee,69b9601544c9ccd2758c35ad,0.016,0.016,0,102,102,67,1,twofour,,,,,,,,,,,,,,,,,,,,,,,,,,,,,,,,,,,,,,,,,,,,,,,,,,,,,,,,,,,,,,,,,,,,,,,,,,,,,,,,,,,,,,,,,,,,,,,,,,,,,,,,,,,,,,,,,,,,,,,,,,,,,,,,,,,,,,,,,
,,5df6818e2b12bd474abc4c9d,2026-03-17_10h07.41.265,kallum_motion_pilot_GIST_update_2,2026.1.1,Win32,57.80346821,5df6818e2b12bd474abc4c9d,69b95efdef24cd8a694e89ee,69b9601544c9ccd2758c35ad,0.016,0.016,0,103,103,127,1,eightseven,,,,,,,,,,,,,,,,,,,,,,,,,,,,,,,,,,,,,,,,,,,,,,,,,,,,,,,,,,,,,,,,,,,,,,,,,,,,,,,,,,,,,,,,,,,,,,,,,,,,,,,,,,,,,,,,,,,,,,,,,,,,,,,,,,,,,,,,,
,,5df6818e2b12bd474abc4c9d,2026-03-17_10h07.41.265,kallum_motion_pilot_GIST_update_2,2026.1.1,Win32,57.80346821,5df6818e2b12bd474abc4c9d,69b95efdef24cd8a694e89ee,69b9601544c9ccd2758c35ad,0.016,0.016,0,104,104,55,1,fourthree,,,,,,,,,,,,,,,,,,,,,,,,,,,,,,,,,,,,,,,,,,,,,,,,,,,,,,,,,,,,,,,,,,,,,,,,,,,,,,,,,,,,,,,,,,,,,,,,,,,,,,,,,,,,,,,,,,,,,,,,,,,,,,,,,,,,,,,,,
,,5df6818e2b12bd474abc4c9d,2026-03-17_10h07.41.265,kallum_motion_pilot_GIST_update_2,2026.1.1,Win32,57.80346821,5df6818e2b12bd474abc4c9d,69b95efdef24cd8a694e89ee,69b9601544c9ccd2758c35ad,0.0161,0.0161,0,105,105,126,1,eightsix,,,,,,,,,,,,,,,,,,,,,,,,,,,,,,,,,,,,,,,,,,,,,,,,,,,,,,,,,,,,,,,,,,,,,,,,,,,,,,,,,,,,,,,,,,,,,,,,,,,,,,,,,,,,,,,,,,,,,,,,,,,,,,,,,,,,,,,,,
,,5df6818e2b12bd474abc4c9d,2026-03-17_10h07.41.265,kallum_motion_pilot_GIST_update_2,2026.1.1,Win32,57.80346821,5df6818e2b12bd474abc4c9d,69b95efdef24cd8a694e89ee,69b9601544c9ccd2758c35ad,0.0162,0.0162,0,106,106,119,1,eightseven,,,,,,,,,,,,,,,,,,,,,,,,,,,,,,,,,,,,,,,,,,,,,,,,,,,,,,,,,,,,,,,,,,,,,,,,,,,,,,,,,,,,,,,,,,,,,,,,,,,,,,,,,,,,,,,,,,,,,,,,,,,,,,,,,,,,,,,,,
,,5df6818e2b12bd474abc4c9d,2026-03-17_10h07.41.265,kallum_motion_pilot_GIST_update_2,2026.1.1,Win32,57.80346821,5df6818e2b12bd474abc4c9d,69b95efdef24cd8a694e89ee,69b9601544c9ccd2758c35ad,0.0162,0.0162,0,107,107,99,1,sixeight,,,,,,,,,,,,,,,,,,,,,,,,,,,,,,,,,,,,,,,,,,,,,,,,,,,,,,,,,,,,,,,,,,,,,,,,,,,,,,,,,,,,,,,,,,,,,,,,,,,,,,,,,,,,,,,,,,,,,,,,,,,,,,,,,,,,,,,,,
,,5df6818e2b12bd474abc4c9d,2026-03-17_10h07.41.265,kallum_motion_pilot_GIST_update_2,2026.1.1,Win32,57.80346821,5df6818e2b12bd474abc4c9d,69b95efdef24cd8a694e89ee,69b9601544c9ccd2758c35ad,0.0163,0.0163,0,108,108,72,1,onetwo,,,,,,,,,,,,,,,,,,,,,,,,,,,,,,,,,,,,,,,,,,,,,,,,,,,,,,,,,,,,,,,,,,,,,,,,,,,,,,,,,,,,,,,,,,,,,,,,,,,,,,,,,,,,,,,,,,,,,,,,,,,,,,,,,,,,,,,,,
,,5df6818e2b12bd474abc4c9d,2026-03-17_10h07.41.265,kallum_motion_pilot_GIST_update_2,2026.1.1,Win32,57.80346821,5df6818e2b12bd474abc4c9d,69b95efdef24cd8a694e89ee,69b9601544c9ccd2758c35ad,0.0163,0.0163,0,109,109,68,1,threeone,,,,,,,,,,,,,,,,,,,,,,,,,,,,,,,,,,,,,,,,,,,,,,,,,,,,,,,,,,,,,,,,,,,,,,,,,,,,,,,,,,,,,,,,,,,,,,,,,,,,,,,,,,,,,,,,,,,,,,,,,,,,,,,,,,,,,,,,,
,,5df6818e2b12bd474abc4c9d,2026-03-17_10h07.41.265,kallum_motion_pilot_GIST_update_2,2026.1.1,Win32,57.80346821,5df6818e2b12bd474abc4c9d,69b95efdef24cd8a694e89ee,69b9601544c9ccd2758c35ad,0.0163,0.0163,0,110,110,6,1,fourtwo,,,,,,,,,,,,,,,,,,,,,,,,,,,,,,,,,,,,,,,,,,,,,,,,,,,,,,,,,,,,,,,,,,,,,,,,,,,,,,,,,,,,,,,,,,,,,,,,,,,,,,,,,,,,,,,,,,,,,,,,,,,,,,,,,,,,,,,,,
,,5df6818e2b12bd474abc4c9d,2026-03-17_10h07.41.265,kallum_motion_pilot_GIST_update_2,2026.1.1,Win32,57.80346821,5df6818e2b12bd474abc4c9d,69b95efdef24cd8a694e89ee,69b9601544c9ccd2758c35ad,0.0164,0.0164,0,111,111,77,1,threefour,,,,,,,,,,,,,,,,,,,,,,,,,,,,,,,,,,,,,,,,,,,,,,,,,,,,,,,,,,,,,,,,,,,,,,,,,,,,,,,,,,,,,,,,,,,,,,,,,,,,,,,,,,,,,,,,,,,,,,,,,,,,,,,,,,,,,,,,,
,,5df6818e2b12bd474abc4c9d,2026-03-17_10h07.41.265,kallum_motion_pilot_GIST_update_2,2026.1.1,Win32,57.80346821,5df6818e2b12bd474abc4c9d,69b95efdef24cd8a694e89ee,69b9601544c9ccd2758c35ad,0.0164,0.0164,0,112,112,118,1,eightsix,,,,,,,,,,,,,,,,,,,,,,,,,,,,,,,,,,,,,,,,,,,,,,,,,,,,,,,,,,,,,,,,,,,,,,,,,,,,,,,,,,,,,,,,,,,,,,,,,,,,,,,,,,,,,,,,,,,,,,,,,,,,,,,,,,,,,,,,,
,,5df6818e2b12bd474abc4c9d,2026-03-17_10h07.41.265,kallum_motion_pilot_GIST_update_2,2026.1.1,Win32,57.80346821,5df6818e2b12bd474abc4c9d,69b95efdef24cd8a694e89ee,69b9601544c9ccd2758c35ad,0.0164,0.0164,0,113,113,81,1,fiveseven,,,,,,,,,,,,,,,,,,,,,,,,,,,,,,,,,,,,,,,,,,,,,,,,,,,,,,,,,,,,,,,,,,,,,,,,,,,,,,,,,,,,,,,,,,,,,,,,,,,,,,,,,,,,,,,,,,,,,,,,,,,,,,,,,,,,,,,,,
,,5df6818e2b12bd474abc4c9d,2026-03-17_10h07.41.265,kallum_motion_pilot_GIST_update_2,2026.1.1,Win32,57.80346821,5df6818e2b12bd474abc4c9d,69b95efdef24cd8a694e89ee,69b9601544c9ccd2758c35ad,0.0165,0.0165,0,114,114,89,1,fiveseven,,,,,,,,,,,,,,,,,,,,,,,,,,,,,,,,,,,,,,,,,,,,,,,,,,,,,,,,,,,,,,,,,,,,,,,,,,,,,,,,,,,,,,,,,,,,,,,,,,,,,,,,,,,,,,,,,,,,,,,,,,,,,,,,,,,,,,,,,
,,5df6818e2b12bd474abc4c9d,2026-03-17_10h07.41.265,kallum_motion_pilot_GIST_update_2,2026.1.1,Win32,57.80346821,5df6818e2b12bd474abc4c9d,69b95efdef24cd8a694e89ee,69b9601544c9ccd2758c35ad,0.0165,0.0165,0,115,115,132,1,sevenfive,,,,,,,,,,,,,,,,,,,,,,,,,,,,,,,,,,,,,,,,,,,,,,,,,,,,,,,,,,,,,,,,,,,,,,,,,,,,,,,,,,,,,,,,,,,,,,,,,,,,,,,,,,,,,,,,,,,,,,,,,,,,,,,,,,,,,,,,,
,,5df6818e2b12bd474abc4c9d,2026-03-17_10h07.41.265,kallum_motion_pilot_GIST_update_2,2026.1.1,Win32,57.80346821,5df6818e2b12bd474abc4c9d,69b95efdef24cd8a694e89ee,69b9601544c9ccd2758c35ad,0.0166,0.0166,0,116,116,64,1,onetwo,,,,,,,,,,,,,,,,,,,,,,,,,,,,,,,,,,,,,,,,,,,,,,,,,,,,,,,,,,,,,,,,,,,,,,,,,,,,,,,,,,,,,,,,,,,,,,,,,,,,,,,,,,,,,,,,,,,,,,,,,,,,,,,,,,,,,,,,,
,,5df6818e2b12bd474abc4c9d,2026-03-17_10h07.41.265,kallum_motion_pilot_GIST_update_2,2026.1.1,Win32,57.80346821,5df6818e2b12bd474abc4c9d,69b95efdef24cd8a694e89ee,69b9601544c9ccd2758c35ad,0.0166,0.0166,0,117,117,18,1,twoone,,,,,,,,,,,,,,,,,,,,,,,,,,,,,,,,,,,,,,,,,,,,,,,,,,,,,,,,,,,,,,,,,,,,,,,,,,,,,,,,,,,,,,,,,,,,,,,,,,,,,,,,,,,,,,,,,,,,,,,,,,,,,,,,,,,,,,,,,
,,5df6818e2b12bd474abc4c9d,2026-03-17_10h07.41.265,kallum_motion_pilot_GIST_update_2,2026.1.1,Win32,57.80346821,5df6818e2b12bd474abc4c9d,69b95efdef24cd8a694e89ee,69b9601544c9ccd2758c35ad,0.0167,0.0167,0,118,118,138,1,sixfive,,,,,,,,,,,,,,,,,,,,,,,,,,,,,,,,,,,,,,,,,,,,,,,,,,,,,,,,,,,,,,,,,,,,,,,,,,,,,,,,,,,,,,,,,,,,,,,,,,,,,,,,,,,,,,,,,,,,,,,,,,,,,,,,,,,,,,,,,
,,5df6818e2b12bd474abc4c9d,2026-03-17_10h07.41.265,kallum_motion_pilot_GIST_update_2,2026.1.1,Win32,57.80346821,5df6818e2b12bd474abc4c9d,69b95efdef24cd8a694e89ee,69b9601544c9ccd2758c35ad,0.0167,0.0167,0,119,119,73,1,onethree,,,,,,,,,,,,,,,,,,,,,,,,,,,,,,,,,,,,,,,,,,,,,,,,,,,,,,,,,,,,,,,,,,,,,,,,,,,,,,,,,,,,,,,,,,,,,,,,,,,,,,,,,,,,,,,,,,,,,,,,,,,,,,,,,,,,,,,,,
,,5df6818e2b12bd474abc4c9d,2026-03-17_10h07.41.265,kallum_motion_pilot_GIST_update_2,2026.1.1,Win32,57.80346821,5df6818e2b12bd474abc4c9d,69b95efdef24cd8a694e89ee,69b9601544c9ccd2758c35ad,0.0167,0.0167,0,120,120,92,1,sevenfive,,,,,,,,,,,,,,,,,,,,,,,,,,,,,,,,,,,,,,,,,,,,,,,,,,,,,,,,,,,,,,,,,,,,,,,,,,,,,,,,,,,,,,,,,,,,,,,,,,,,,,,,,,,,,,,,,,,,,,,,,,,,,,,,,,,,,,,,,
,,5df6818e2b12bd474abc4c9d,2026-03-17_10h07.41.265,kallum_motion_pilot_GIST_update_2,2026.1.1,Win32,57.80346821,5df6818e2b12bd474abc4c9d,69b95efdef24cd8a694e89ee,69b9601544c9ccd2758c35ad,0.0168,0.0168,0,121,121,54,1,fourtwo,,,,,,,,,,,,,,,,,,,,,,,,,,,,,,,,,,,,,,,,,,,,,,,,,,,,,,,,,,,,,,,,,,,,,,,,,,,,,,,,,,,,,,,,,,,,,,,,,,,,,,,,,,,,,,,,,,,,,,,,,,,,,,,,,,,,,,,,,
,,5df6818e2b12bd474abc4c9d,2026-03-17_10h07.41.265,kallum_motion_pilot_GIST_update_2,2026.1.1,Win32,57.80346821,5df6818e2b12bd474abc4c9d,69b95efdef24cd8a694e89ee,69b9601544c9ccd2758c35ad,0.0168,0.0168,0,122,122,32,1,onetwo,,,,,,,,,,,,,,,,,,,,,,,,,,,,,,,,,,,,,,,,,,,,,,,,,,,,,,,,,,,,,,,,,,,,,,,,,,,,,,,,,,,,,,,,,,,,,,,,,,,,,,,,,,,,,,,,,,,,,,,,,,,,,,,,,,,,,,,,,
,,5df6818e2b12bd474abc4c9d,2026-03-17_10h07.41.265,kallum_motion_pilot_GIST_update_2,2026.1.1,Win32,57.80346821,5df6818e2b12bd474abc4c9d,69b95efdef24cd8a694e89ee,69b9601544c9ccd2758c35ad,0.0168,0.0168,0,123,123,74,1,twoone,,,,,,,,,,,,,,,,,,,,,,,,,,,,,,,,,,,,,,,,,,,,,,,,,,,,,,,,,,,,,,,,,,,,,,,,,,,,,,,,,,,,,,,,,,,,,,,,,,,,,,,,,,,,,,,,,,,,,,,,,,,,,,,,,,,,,,,,,
,,5df6818e2b12bd474abc4c9d,2026-03-17_10h07.41.265,kallum_motion_pilot_GIST_update_2,2026.1.1,Win32,57.80346821,5df6818e2b12bd474abc4c9d,69b95efdef24cd8a694e89ee,69b9601544c9ccd2758c35ad,0.0168,0.0168,0,124,124,36,1,threeone,,,,,,,,,,,,,,,,,,,,,,,,,,,,,,,,,,,,,,,,,,,,,,,,,,,,,,,,,,,,,,,,,,,,,,,,,,,,,,,,,,,,,,,,,,,,,,,,,,,,,,,,,,,,,,,,,,,,,,,,,,,,,,,,,,,,,,,,,
,,5df6818e2b12bd474abc4c9d,2026-03-17_10h07.41.265,kallum_motion_pilot_GIST_update_2,2026.1.1,Win32,57.80346821,5df6818e2b12bd474abc4c9d,69b95efdef24cd8a694e89ee,69b9601544c9ccd2758c35ad,0.0169,0.0169,0,125,125,26,1,twoone,,,,,,,,,,,,,,,,,,,,,,,,,,,,,,,,,,,,,,,,,,,,,,,,,,,,,,,,,,,,,,,,,,,,,,,,,,,,,,,,,,,,,,,,,,,,,,,,,,,,,,,,,,,,,,,,,,,,,,,,,,,,,,,,,,,,,,,,,
,,5df6818e2b12bd474abc4c9d,2026-03-17_10h07.41.265,kallum_motion_pilot_GIST_update_2,2026.1.1,Win32,57.80346821,5df6818e2b12bd474abc4c9d,69b95efdef24cd8a694e89ee,69b9601544c9ccd2758c35ad,0.017,0.017,0,126,126,30,1,fourtwo,,,,,,,,,,,,,,,,,,,,,,,,,,,,,,,,,,,,,,,,,,,,,,,,,,,,,,,,,,,,,,,,,,,,,,,,,,,,,,,,,,,,,,,,,,,,,,,,,,,,,,,,,,,,,,,,,,,,,,,,,,,,,,,,,,,,,,,,,
,,5df6818e2b12bd474abc4c9d,2026-03-17_10h07.41.265,kallum_motion_pilot_GIST_update_2,2026.1.1,Win32,57.80346821,5df6818e2b12bd474abc4c9d,69b95efdef24cd8a694e89ee,69b9601544c9ccd2758c35ad,0.017,0.017,0,127,127,66,1,twoone,,,,,,,,,,,,,,,,,,,,,,,,,,,,,,,,,,,,,,,,,,,,,,,,,,,,,,,,,,,,,,,,,,,,,,,,,,,,,,,,,,,,,,,,,,,,,,,,,,,,,,,,,,,,,,,,,,,,,,,,,,,,,,,,,,,,,,,,,
,,5df6818e2b12bd474abc4c9d,2026-03-17_10h07.41.265,kallum_motion_pilot_GIST_update_2,2026.1.1,Win32,57.80346821,5df6818e2b12bd474abc4c9d,69b95efdef24cd8a694e89ee,69b9601544c9ccd2758c35ad,0.0171,0.0171,0,128,128,50,1,twoone,,,,,,,,,,,,,,,,,,,,,,,,,,,,,,,,,,,,,,,,,,,,,,,,,,,,,,,,,,,,,,,,,,,,,,,,,,,,,,,,,,,,,,,,,,,,,,,,,,,,,,,,,,,,,,,,,,,,,,,,,,,,,,,,,,,,,,,,,
,,5df6818e2b12bd474abc4c9d,2026-03-17_10h07.41.265,kallum_motion_pilot_GIST_update_2,2026.1.1,Win32,57.80346821,5df6818e2b12bd474abc4c9d,69b95efdef24cd8a694e89ee,69b9601544c9ccd2758c35ad,0.0171,0.0171,0,129,129,133,1,seveneight,,,,,,,,,,,,,,,,,,,,,,,,,,,,,,,,,,,,,,,,,,,,,,,,,,,,,,,,,,,,,,,,,,,,,,,,,,,,,,,,,,,,,,,,,,,,,,,,,,,,,,,,,,,,,,,,,,,,,,,,,,,,,,,,,,,,,,,,,
,,5df6818e2b12bd474abc4c9d,2026-03-17_10h07.41.265,kallum_motion_pilot_GIST_update_2,2026.1.1,Win32,57.80346821,5df6818e2b12bd474abc4c9d,69b95efdef24cd8a694e89ee,69b9601544c9ccd2758c35ad,0.0172,0.0172,0,130,130,45,1,threefour,,,,,,,,,,,,,,,,,,,,,,,,,,,,,,,,,,,,,,,,,,,,,,,,,,,,,,,,,,,,,,,,,,,,,,,,,,,,,,,,,,,,,,,,,,,,,,,,,,,,,,,,,,,,,,,,,,,,,,,,,,,,,,,,,,,,,,,,,
,,5df6818e2b12bd474abc4c9d,2026-03-17_10h07.41.265,kallum_motion_pilot_GIST_update_2,2026.1.1,Win32,57.80346821,5df6818e2b12bd474abc4c9d,69b95efdef24cd8a694e89ee,69b9601544c9ccd2758c35ad,0.0172,0.0172,0,131,131,90,1,sixfive,,,,,,,,,,,,,,,,,,,,,,,,,,,,,,,,,,,,,,,,,,,,,,,,,,,,,,,,,,,,,,,,,,,,,,,,,,,,,,,,,,,,,,,,,,,,,,,,,,,,,,,,,,,,,,,,,,,,,,,,,,,,,,,,,,,,,,,,,
,,5df6818e2b12bd474abc4c9d,2026-03-17_10h07.41.265,kallum_motion_pilot_GIST_update_2,2026.1.1,Win32,57.80346821,5df6818e2b12bd474abc4c9d,69b95efdef24cd8a694e89ee,69b9601544c9ccd2758c35ad,0.0172,0.0172,0,132,132,70,1,fourtwo,,,,,,,,,,,,,,,,,,,,,,,,,,,,,,,,,,,,,,,,,,,,,,,,,,,,,,,,,,,,,,,,,,,,,,,,,,,,,,,,,,,,,,,,,,,,,,,,,,,,,,,,,,,,,,,,,,,,,,,,,,,,,,,,,,,,,,,,,
,,5df6818e2b12bd474abc4c9d,2026-03-17_10h07.41.265,kallum_motion_pilot_GIST_update_2,2026.1.1,Win32,57.80346821,5df6818e2b12bd474abc4c9d,69b95efdef24cd8a694e89ee,69b9601544c9ccd2758c35ad,0.0173,0.0173,0,133,133,24,1,onetwo,,,,,,,,,,,,,,,,,,,,,,,,,,,,,,,,,,,,,,,,,,,,,,,,,,,,,,,,,,,,,,,,,,,,,,,,,,,,,,,,,,,,,,,,,,,,,,,,,,,,,,,,,,,,,,,,,,,,,,,,,,,,,,,,,,,,,,,,,
,,5df6818e2b12bd474abc4c9d,2026-03-17_10h07.41.265,kallum_motion_pilot_GIST_update_2,2026.1.1,Win32,57.80346821,5df6818e2b12bd474abc4c9d,69b95efdef24cd8a694e89ee,69b9601544c9ccd2758c35ad,0.0173,0.0173,0,134,134,14,1,fourtwo,,,,,,,,,,,,,,,,,,,,,,,,,,,,,,,,,,,,,,,,,,,,,,,,,,,,,,,,,,,,,,,,,,,,,,,,,,,,,,,,,,,,,,,,,,,,,,,,,,,,,,,,,,,,,,,,,,,,,,,,,,,,,,,,,,,,,,,,,
,,5df6818e2b12bd474abc4c9d,2026-03-17_10h07.41.265,kallum_motion_pilot_GIST_update_2,2026.1.1,Win32,57.80346821,5df6818e2b12bd474abc4c9d,69b95efdef24cd8a694e89ee,69b9601544c9ccd2758c35ad,0.0173,0.0173,0,135,135,44,1,threeone,,,,,,,,,,,,,,,,,,,,,,,,,,,,,,,,,,,,,,,,,,,,,,,,,,,,,,,,,,,,,,,,,,,,,,,,,,,,,,,,,,,,,,,,,,,,,,,,,,,,,,,,,,,,,,,,,,,,,,,,,,,,,,,,,,,,,,,,,
,,5df6818e2b12bd474abc4c9d,2026-03-17_10h07.41.265,kallum_motion_pilot_GIST_update_2,2026.1.1,Win32,57.80346821,5df6818e2b12bd474abc4c9d,69b95efdef24cd8a694e89ee,69b9601544c9ccd2758c35ad,0.0174,0.0174,0,136,136,23,1,fourthree,,,,,,,,,,,,,,,,,,,,,,,,,,,,,,,,,,,,,,,,,,,,,,,,,,,,,,,,,,,,,,,,,,,,,,,,,,,,,,,,,,,,,,,,,,,,,,,,,,,,,,,,,,,,,,,,,,,,,,,,,,,,,,,,,,,,,,,,,
,,5df6818e2b12bd474abc4c9d,2026-03-17_10h07.41.265,kallum_motion_pilot_GIST_update_2,2026.1.1,Win32,57.80346821,5df6818e2b12bd474abc4c9d,69b95efdef24cd8a694e89ee,69b9601544c9ccd2758c35ad,0.0174,0.0174,0,137,137,124,1,sevenfive,,,,,,,,,,,,,,,,,,,,,,,,,,,,,,,,,,,,,,,,,,,,,,,,,,,,,,,,,,,,,,,,,,,,,,,,,,,,,,,,,,,,,,,,,,,,,,,,,,,,,,,,,,,,,,,,,,,,,,,,,,,,,,,,,,,,,,,,,
,,5df6818e2b12bd474abc4c9d,2026-03-17_10h07.41.265,kallum_motion_pilot_GIST_update_2,2026.1.1,Win32,57.80346821,5df6818e2b12bd474abc4c9d,69b95efdef24cd8a694e89ee,69b9601544c9ccd2758c35ad,0.0174,0.0174,0,138,138,114,1,sixfive,,,,,,,,,,,,,,,,,,,,,,,,,,,,,,,,,,,,,,,,,,,,,,,,,,,,,,,,,,,,,,,,,,,,,,,,,,,,,,,,,,,,,,,,,,,,,,,,,,,,,,,,,,,,,,,,,,,,,,,,,,,,,,,,,,,,,,,,,
,,5df6818e2b12bd474abc4c9d,2026-03-17_10h07.41.265,kallum_motion_pilot_GIST_update_2,2026.1.1,Win32,57.80346821,5df6818e2b12bd474abc4c9d,69b95efdef24cd8a694e89ee,69b9601544c9ccd2758c35ad,0.0175,0.0175,0,139,139,35,1,twofour,,,,,,,,,,,,,,,,,,,,,,,,,,,,,,,,,,,,,,,,,,,,,,,,,,,,,,,,,,,,,,,,,,,,,,,,,,,,,,,,,,,,,,,,,,,,,,,,,,,,,,,,,,,,,,,,,,,,,,,,,,,,,,,,,,,,,,,,,
,,5df6818e2b12bd474abc4c9d,2026-03-17_10h07.41.265,kallum_motion_pilot_GIST_update_2,2026.1.1,Win32,57.80346821,5df6818e2b12bd474abc4c9d,69b95efdef24cd8a694e89ee,69b9601544c9ccd2758c35ad,0.0175,0.0175,0,140,140,20,1,threeone,,,,,,,,,,,,,,,,,,,,,,,,,,,,,,,,,,,,,,,,,,,,,,,,,,,,,,,,,,,,,,,,,,,,,,,,,,,,,,,,,,,,,,,,,,,,,,,,,,,,,,,,,,,,,,,,,,,,,,,,,,,,,,,,,,,,,,,,,
,,5df6818e2b12bd474abc4c9d,2026-03-17_10h07.41.265,kallum_motion_pilot_GIST_update_2,2026.1.1,Win32,57.80346821,5df6818e2b12bd474abc4c9d,69b95efdef24cd8a694e89ee,69b9601544c9ccd2758c35ad,0.0176,0.0176,0,141,141,41,1,onethree,,,,,,,,,,,,,,,,,,,,,,,,,,,,,,,,,,,,,,,,,,,,,,,,,,,,,,,,,,,,,,,,,,,,,,,,,,,,,,,,,,,,,,,,,,,,,,,,,,,,,,,,,,,,,,,,,,,,,,,,,,,,,,,,,,,,,,,,,
,,5df6818e2b12bd474abc4c9d,2026-03-17_10h07.41.265,kallum_motion_pilot_GIST_update_2,2026.1.1,Win32,57.80346821,5df6818e2b12bd474abc4c9d,69b95efdef24cd8a694e89ee,69b9601544c9ccd2758c35ad,0.0176,0.0176,0,142,142,117,1,seveneight,,,,,,,,,,,,,,,,,,,,,,,,,,,,,,,,,,,,,,,,,,,,,,,,,,,,,,,,,,,,,,,,,,,,,,,,,,,,,,,,,,,,,,,,,,,,,,,,,,,,,,,,,,,,,,,,,,,,,,,,,,,,,,,,,,,,,,,,,
,,5df6818e2b12bd474abc4c9d,2026-03-17_10h07.41.265,kallum_motion_pilot_GIST_update_2,2026.1.1,Win32,57.80346821,5df6818e2b12bd474abc4c9d,69b95efdef24cd8a694e89ee,69b9601544c9ccd2758c35ad,0.0176,0.0176,0,143,143,86,1,eightsix,,,,,,,,,,,,,,,,,,,,,,,,,,,,,,,,,,,,,,,,,,,,,,,,,,,,,,,,,,,,,,,,,,,,,,,,,,,,,,,,,,,,,,,,,,,,,,,,,,,,,,,,,,,,,,,,,,,,,,,,,,,,,,,,,,,,,,,,,
,,5df6818e2b12bd474abc4c9d,2026-03-17_10h07.41.265,kallum_motion_pilot_GIST_update_2,2026.1.1,Win32,57.80346821,5df6818e2b12bd474abc4c9d,69b95efdef24cd8a694e89ee,69b9601544c9ccd2758c35ad,0.0177,0.0177,0,144,144,143,1,eightseven,,,,,,,,,,,,,,,,,,,,,,,,,,,,,,,,,,,,,,,,,,,,,,,,,,,,,,,,,,,,,,,,,,,,,,,,,,,,,,,,,,,,,,,,,,,,,,,,,,,,,,,,,,,,,,,,,,,,,,,,,,,,,,,,,,,,,,,,,
,,5df6818e2b12bd474abc4c9d,2026-03-17_10h07.41.265,kallum_motion_pilot_GIST_update_2,2026.1.1,Win32,57.80346821,5df6818e2b12bd474abc4c9d,69b95efdef24cd8a694e89ee,69b9601544c9ccd2758c35ad,0.0177,0.0177,0,145,145,76,1,threeone,,,,,,,,,,,,,,,,,,,,,,,,,,,,,,,,,,,,,,,,,,,,,,,,,,,,,,,,,,,,,,,,,,,,,,,,,,,,,,,,,,,,,,,,,,,,,,,,,,,,,,,,,,,,,,,,,,,,,,,,,,,,,,,,,,,,,,,,,
,,5df6818e2b12bd474abc4c9d,2026-03-17_10h07.41.265,kallum_motion_pilot_GIST_update_2,2026.1.1,Win32,57.80346821,5df6818e2b12bd474abc4c9d,69b95efdef24cd8a694e89ee,69b9601544c9ccd2758c35ad,0.0178,0.0178,0,146,146,135,1,eightseven,,,,,,,,,,,,,,,,,,,,,,,,,,,,,,,,,,,,,,,,,,,,,,,,,,,,,,,,,,,,,,,,,,,,,,,,,,,,,,,,,,,,,,,,,,,,,,,,,,,,,,,,,,,,,,,,,,,,,,,,,,,,,,,,,,,,,,,,,
,,5df6818e2b12bd474abc4c9d,2026-03-17_10h07.41.265,kallum_motion_pilot_GIST_update_2,2026.1.1,Win32,57.80346821,5df6818e2b12bd474abc4c9d,69b95efdef24cd8a694e89ee,69b9601544c9ccd2758c35ad,0.0178,0.0178,0,147,147,1,1,onethree,,,,,,,,,,,,,,,,,,,,,,,,,,,,,,,,,,,,,,,,,,,,,,,,,,,,,,,,,,,,,,,,,,,,,,,,,,,,,,,,,,,,,,,,,,,,,,,,,,,,,,,,,,,,,,,,,,,,,,,,,,,,,,,,,,,,,,,,,
,,5df6818e2b12bd474abc4c9d,2026-03-17_10h07.41.265,kallum_motion_pilot_GIST_update_2,2026.1.1,Win32,57.80346821,5df6818e2b12bd474abc4c9d,69b95efdef24cd8a694e89ee,69b9601544c9ccd2758c35ad,0.0179,0.0179,0,148,148,136,1,fivesix,,,,,,,,,,,,,,,,,,,,,,,,,,,,,,,,,,,,,,,,,,,,,,,,,,,,,,,,,,,,,,,,,,,,,,,,,,,,,,,,,,,,,,,,,,,,,,,,,,,,,,,,,,,,,,,,,,,,,,,,,,,,,,,,,,,,,,,,,
,,5df6818e2b12bd474abc4c9d,2026-03-17_10h07.41.265,kallum_motion_pilot_GIST_update_2,2026.1.1,Win32,57.80346821,5df6818e2b12bd474abc4c9d,69b95efdef24cd8a694e89ee,69b9601544c9ccd2758c35ad,0.0179,0.0179,0,149,149,115,1,sixeight,,,,,,,,,,,,,,,,,,,,,,,,,,,,,,,,,,,,,,,,,,,,,,,,,,,,,,,,,,,,,,,,,,,,,,,,,,,,,,,,,,,,,,,,,,,,,,,,,,,,,,,,,,,,,,,,,,,,,,,,,,,,,,,,,,,,,,,,,
,,5df6818e2b12bd474abc4c9d,2026-03-17_10h07.41.265,kallum_motion_pilot_GIST_update_2,2026.1.1,Win32,57.80346821,5df6818e2b12bd474abc4c9d,69b95efdef24cd8a694e89ee,69b9601544c9ccd2758c35ad,0.0179,0.0179,0,150,150,148,1,sevenfive,,,,,,,,,,,,,,,,,,,,,,,,,,,,,,,,,,,,,,,,,,,,,,,,,,,,,,,,,,,,,,,,,,,,,,,,,,,,,,,,,,,,,,,,,,,,,,,,,,,,,,,,,,,,,,,,,,,,,,,,,,,,,,,,,,,,,,,,,
,,5df6818e2b12bd474abc4c9d,2026-03-17_10h07.41.265,kallum_motion_pilot_GIST_update_2,2026.1.1,Win32,57.80346821,5df6818e2b12bd474abc4c9d,69b95efdef24cd8a694e89ee,69b9601544c9ccd2758c35ad,0.018,0.018,0,151,151,9,1,onethree,,,,,,,,,,,,,,,,,,,,,,,,,,,,,,,,,,,,,,,,,,,,,,,,,,,,,,,,,,,,,,,,,,,,,,,,,,,,,,,,,,,,,,,,,,,,,,,,,,,,,,,,,,,,,,,,,,,,,,,,,,,,,,,,,,,,,,,,,
,,5df6818e2b12bd474abc4c9d,2026-03-17_10h07.41.265,kallum_motion_pilot_GIST_update_2,2026.1.1,Win32,57.80346821,5df6818e2b12bd474abc4c9d,69b95efdef24cd8a694e89ee,69b9601544c9ccd2758c35ad,0.0181,0.0181,0,152,152,83,1,sixeight,,,,,,,,,,,,,,,,,,,,,,,,,,,,,,,,,,,,,,,,,,,,,,,,,,,,,,,,,,,,,,,,,,,,,,,,,,,,,,,,,,,,,,,,,,,,,,,,,,,,,,,,,,,,,,,,,,,,,,,,,,,,,,,,,,,,,,,,,
,,5df6818e2b12bd474abc4c9d,2026-03-17_10h07.41.265,kallum_motion_pilot_GIST_update_2,2026.1.1,Win32,57.80346821,5df6818e2b12bd474abc4c9d,69b95efdef24cd8a694e89ee,69b9601544c9ccd2758c35ad,0.0181,0.0181,0,153,153,98,1,sixfive,,,,,,,,,,,,,,,,,,,,,,,,,,,,,,,,,,,,,,,,,,,,,,,,,,,,,,,,,,,,,,,,,,,,,,,,,,,,,,,,,,,,,,,,,,,,,,,,,,,,,,,,,,,,,,,,,,,,,,,,,,,,,,,,,,,,,,,,,
,,5df6818e2b12bd474abc4c9d,2026-03-17_10h07.41.265,kallum_motion_pilot_GIST_update_2,2026.1.1,Win32,57.80346821,5df6818e2b12bd474abc4c9d,69b95efdef24cd8a694e89ee,69b9601544c9ccd2758c35ad,0.0182,0.0182,0,154,154,60,1,threeone,,,,,,,,,,,,,,,,,,,,,,,,,,,,,,,,,,,,,,,,,,,,,,,,,,,,,,,,,,,,,,,,,,,,,,,,,,,,,,,,,,,,,,,,,,,,,,,,,,,,,,,,,,,,,,,,,,,,,,,,,,,,,,,,,,,,,,,,,
,,5df6818e2b12bd474abc4c9d,2026-03-17_10h07.41.265,kallum_motion_pilot_GIST_update_2,2026.1.1,Win32,57.80346821,5df6818e2b12bd474abc4c9d,69b95efdef24cd8a694e89ee,69b9601544c9ccd2758c35ad,0.0182,0.0182,0,155,155,33,1,onethree,,,,,,,,,,,,,,,,,,,,,,,,,,,,,,,,,,,,,,,,,,,,,,,,,,,,,,,,,,,,,,,,,,,,,,,,,,,,,,,,,,,,,,,,,,,,,,,,,,,,,,,,,,,,,,,,,,,,,,,,,,,,,,,,,,,,,,,,,
,,5df6818e2b12bd474abc4c9d,2026-03-17_10h07.41.265,kallum_motion_pilot_GIST_update_2,2026.1.1,Win32,57.80346821,5df6818e2b12bd474abc4c9d,69b95efdef24cd8a694e89ee,69b9601544c9ccd2758c35ad,0.0182,0.0182,0,156,156,2,1,twoone,,,,,,,,,,,,,,,,,,,,,,,,,,,,,,,,,,,,,,,,,,,,,,,,,,,,,,,,,,,,,,,,,,,,,,,,,,,,,,,,,,,,,,,,,,,,,,,,,,,,,,,,,,,,,,,,,,,,,,,,,,,,,,,,,,,,,,,,,
,,5df6818e2b12bd474abc4c9d,2026-03-17_10h07.41.265,kallum_motion_pilot_GIST_update_2,2026.1.1,Win32,57.80346821,5df6818e2b12bd474abc4c9d,69b95efdef24cd8a694e89ee,69b9601544c9ccd2758c35ad,0.0182,0.0182,0,157,157,97,1,fiveseven,,,,,,,,,,,,,,,,,,,,,,,,,,,,,,,,,,,,,,,,,,,,,,,,,,,,,,,,,,,,,,,,,,,,,,,,,,,,,,,,,,,,,,,,,,,,,,,,,,,,,,,,,,,,,,,,,,,,,,,,,,,,,,,,,,,,,,,,,
,,5df6818e2b12bd474abc4c9d,2026-03-17_10h07.41.265,kallum_motion_pilot_GIST_update_2,2026.1.1,Win32,57.80346821,5df6818e2b12bd474abc4c9d,69b95efdef24cd8a694e89ee,69b9601544c9ccd2758c35ad,0.0183,0.0183,0,158,158,43,1,twofour,,,,,,,,,,,,,,,,,,,,,,,,,,,,,,,,,,,,,,,,,,,,,,,,,,,,,,,,,,,,,,,,,,,,,,,,,,,,,,,,,,,,,,,,,,,,,,,,,,,,,,,,,,,,,,,,,,,,,,,,,,,,,,,,,,,,,,,,,
,,5df6818e2b12bd474abc4c9d,2026-03-17_10h07.41.265,kallum_motion_pilot_GIST_update_2,2026.1.1,Win32,57.80346821,5df6818e2b12bd474abc4c9d,69b95efdef24cd8a694e89ee,69b9601544c9ccd2758c35ad,0.0183,0.0183,0,159,159,142,1,eightsix,,,,,,,,,,,,,,,,,,,,,,,,,,,,,,,,,,,,,,,,,,,,,,,,,,,,,,,,,,,,,,,,,,,,,,,,,,,,,,,,,,,,,,,,,,,,,,,,,,,,,,,,,,,,,,,,,,,,,,,,,,,,,,,,,,,,,,,,,
,,5df6818e2b12bd474abc4c9d,2026-03-17_10h07.41.265,kallum_motion_pilot_GIST_update_2,2026.1.1,Win32,57.80346821,5df6818e2b12bd474abc4c9d,69b95efdef24cd8a694e89ee,69b9601544c9ccd2758c35ad,0.0183,0.0183,0,160,160,12,1,threeone,,,,,,,,,,,,,,,,,,,,,,,,,,,,,,,,,,,,,,,,,,,,,,,,,,,,,,,,,,,,,,,,,,,,,,,,,,,,,,,,,,,,,,,,,,,,,,,,,,,,,,,,,,,,,,,,,,,,,,,,,,,,,,,,,,,,,,,,,
,,5df6818e2b12bd474abc4c9d,2026-03-17_10h07.41.265,kallum_motion_pilot_GIST_update_2,2026.1.1,Win32,57.80346821,5df6818e2b12bd474abc4c9d,69b95efdef24cd8a694e89ee,69b9601544c9ccd2758c35ad,0.0184,0.0184,0,161,161,69,1,threefour,,,,,,,,,,,,,,,,,,,,,,,,,,,,,,,,,,,,,,,,,,,,,,,,,,,,,,,,,,,,,,,,,,,,,,,,,,,,,,,,,,,,,,,,,,,,,,,,,,,,,,,,,,,,,,,,,,,,,,,,,,,,,,,,,,,,,,,,,
,,5df6818e2b12bd474abc4c9d,2026-03-17_10h07.41.265,kallum_motion_pilot_GIST_update_2,2026.1.1,Win32,57.80346821,5df6818e2b12bd474abc4c9d,69b95efdef24cd8a694e89ee,69b9601544c9ccd2758c35ad,0.0185,0.0185,1,0,162,150,1,eightsix,,,,,,,,,,,,,,,,,,,,,,,,,,,,,,,,,,,,,,,,,,,,,,,,,,,,,,,,,,,,,,,,,,,,,,,,,,,,,,,,,,,,,,,,,,,,,,,,,,,,,,,,,,,,,,,,,,,,,,,,,,,,,,,,,,,,,,,,,
,,5df6818e2b12bd474abc4c9d,2026-03-17_10h07.41.265,kallum_motion_pilot_GIST_update_2,2026.1.1,Win32,57.80346821,5df6818e2b12bd474abc4c9d,69b95efdef24cd8a694e89ee,69b9601544c9ccd2758c35ad,0.0185,0.0185,1,1,163,81,1,fiveseven,,,,,,,,,,,,,,,,,,,,,,,,,,,,,,,,,,,,,,,,,,,,,,,,,,,,,,,,,,,,,,,,,,,,,,,,,,,,,,,,,,,,,,,,,,,,,,,,,,,,,,,,,,,,,,,,,,,,,,,,,,,,,,,,,,,,,,,,,
,,5df6818e2b12bd474abc4c9d,2026-03-17_10h07.41.265,kallum_motion_pilot_GIST_update_2,2026.1.1,Win32,57.80346821,5df6818e2b12bd474abc4c9d,69b95efdef24cd8a694e89ee,69b9601544c9ccd2758c35ad,0.0186,0.0186,1,2,164,137,1,fiveseven,,,,,,,,,,,,,,,,,,,,,,,,,,,,,,,,,,,,,,,,,,,,,,,,,,,,,,,,,,,,,,,,,,,,,,,,,,,,,,,,,,,,,,,,,,,,,,,,,,,,,,,,,,,,,,,,,,,,,,,,,,,,,,,,,,,,,,,,,
,,5df6818e2b12bd474abc4c9d,2026-03-17_10h07.41.265,kallum_motion_pilot_GIST_update_2,2026.1.1,Win32,57.80346821,5df6818e2b12bd474abc4c9d,69b95efdef24cd8a694e89ee,69b9601544c9ccd2758c35ad,0.0186,0.0186,1,3,165,115,1,sixeight,,,,,,,,,,,,,,,,,,,,,,,,,,,,,,,,,,,,,,,,,,,,,,,,,,,,,,,,,,,,,,,,,,,,,,,,,,,,,,,,,,,,,,,,,,,,,,,,,,,,,,,,,,,,,,,,,,,,,,,,,,,,,,,,,,,,,,,,,
,,5df6818e2b12bd474abc4c9d,2026-03-17_10h07.41.265,kallum_motion_pilot_GIST_update_2,2026.1.1,Win32,57.80346821,5df6818e2b12bd474abc4c9d,69b95efdef24cd8a694e89ee,69b9601544c9ccd2758c35ad,0.0186,0.0186,1,4,166,70,1,fourtwo,,,,,,,,,,,,,,,,,,,,,,,,,,,,,,,,,,,,,,,,,,,,,,,,,,,,,,,,,,,,,,,,,,,,,,,,,,,,,,,,,,,,,,,,,,,,,,,,,,,,,,,,,,,,,,,,,,,,,,,,,,,,,,,,,,,,,,,,,
,,5df6818e2b12bd474abc4c9d,2026-03-17_10h07.41.265,kallum_motion_pilot_GIST_update_2,2026.1.1,Win32,57.80346821,5df6818e2b12bd474abc4c9d,69b95efdef24cd8a694e89ee,69b9601544c9ccd2758c35ad,0.0186,0.0186,1,5,167,10,1,twoone,,,,,,,,,,,,,,,,,,,,,,,,,,,,,,,,,,,,,,,,,,,,,,,,,,,,,,,,,,,,,,,,,,,,,,,,,,,,,,,,,,,,,,,,,,,,,,,,,,,,,,,,,,,,,,,,,,,,,,,,,,,,,,,,,,,,,,,,,
,,5df6818e2b12bd474abc4c9d,2026-03-17_10h07.41.265,kallum_motion_pilot_GIST_update_2,2026.1.1,Win32,57.80346821,5df6818e2b12bd474abc4c9d,69b95efdef24cd8a694e89ee,69b9601544c9ccd2758c35ad,0.0187,0.0187,1,6,168,124,1,sevenfive,,,,,,,,,,,,,,,,,,,,,,,,,,,,,,,,,,,,,,,,,,,,,,,,,,,,,,,,,,,,,,,,,,,,,,,,,,,,,,,,,,,,,,,,,,,,,,,,,,,,,,,,,,,,,,,,,,,,,,,,,,,,,,,,,,,,,,,,,
,,5df6818e2b12bd474abc4c9d,2026-03-17_10h07.41.265,kallum_motion_pilot_GIST_update_2,2026.1.1,Win32,57.80346821,5df6818e2b12bd474abc4c9d,69b95efdef24cd8a694e89ee,69b9601544c9ccd2758c35ad,0.0187,0.0187,1,7,169,132,1,sevenfive,,,,,,,,,,,,,,,,,,,,,,,,,,,,,,,,,,,,,,,,,,,,,,,,,,,,,,,,,,,,,,,,,,,,,,,,,,,,,,,,,,,,,,,,,,,,,,,,,,,,,,,,,,,,,,,,,,,,,,,,,,,,,,,,,,,,,,,,,
,,5df6818e2b12bd474abc4c9d,2026-03-17_10h07.41.265,kallum_motion_pilot_GIST_update_2,2026.1.1,Win32,57.80346821,5df6818e2b12bd474abc4c9d,69b95efdef24cd8a694e89ee,69b9601544c9ccd2758c35ad,0.0188,0.0188,1,8,170,39,1,fourthree,,,,,,,,,,,,,,,,,,,,,,,,,,,,,,,,,,,,,,,,,,,,,,,,,,,,,,,,,,,,,,,,,,,,,,,,,,,,,,,,,,,,,,,,,,,,,,,,,,,,,,,,,,,,,,,,,,,,,,,,,,,,,,,,,,,,,,,,,
,,5df6818e2b12bd474abc4c9d,2026-03-17_10h07.41.265,kallum_motion_pilot_GIST_update_2,2026.1.1,Win32,57.80346821,5df6818e2b12bd474abc4c9d,69b95efdef24cd8a694e89ee,69b9601544c9ccd2758c35ad,0.0188,0.0188,1,9,171,57,1,onethree,,,,,,,,,,,,,,,,,,,,,,,,,,,,,,,,,,,,,,,,,,,,,,,,,,,,,,,,,,,,,,,,,,,,,,,,,,,,,,,,,,,,,,,,,,,,,,,,,,,,,,,,,,,,,,,,,,,,,,,,,,,,,,,,,,,,,,,,,
,,5df6818e2b12bd474abc4c9d,2026-03-17_10h07.41.265,kallum_motion_pilot_GIST_update_2,2026.1.1,Win32,57.80346821,5df6818e2b12bd474abc4c9d,69b95efdef24cd8a694e89ee,69b9601544c9ccd2758c35ad,0.0189,0.0189,1,10,172,37,1,threefour,,,,,,,,,,,,,,,,,,,,,,,,,,,,,,,,,,,,,,,,,,,,,,,,,,,,,,,,,,,,,,,,,,,,,,,,,,,,,,,,,,,,,,,,,,,,,,,,,,,,,,,,,,,,,,,,,,,,,,,,,,,,,,,,,,,,,,,,,
,,5df6818e2b12bd474abc4c9d,2026-03-17_10h07.41.265,kallum_motion_pilot_GIST_update_2,2026.1.1,Win32,57.80346821,5df6818e2b12bd474abc4c9d,69b95efdef24cd8a694e89ee,69b9601544c9ccd2758c35ad,0.0189,0.0189,1,11,173,15,1,fourthree,,,,,,,,,,,,,,,,,,,,,,,,,,,,,,,,,,,,,,,,,,,,,,,,,,,,,,,,,,,,,,,,,,,,,,,,,,,,,,,,,,,,,,,,,,,,,,,,,,,,,,,,,,,,,,,,,,,,,,,,,,,,,,,,,,,,,,,,,
,,5df6818e2b12bd474abc4c9d,2026-03-17_10h07.41.265,kallum_motion_pilot_GIST_update_2,2026.1.1,Win32,57.80346821,5df6818e2b12bd474abc4c9d,69b95efdef24cd8a694e89ee,69b9601544c9ccd2758c35ad,0.019,0.019,1,12,174,49,1,onethree,,,,,,,,,,,,,,,,,,,,,,,,,,,,,,,,,,,,,,,,,,,,,,,,,,,,,,,,,,,,,,,,,,,,,,,,,,,,,,,,,,,,,,,,,,,,,,,,,,,,,,,,,,,,,,,,,,,,,,,,,,,,,,,,,,,,,,,,,
,,5df6818e2b12bd474abc4c9d,2026-03-17_10h07.41.265,kallum_motion_pilot_GIST_update_2,2026.1.1,Win32,57.80346821,5df6818e2b12bd474abc4c9d,69b95efdef24cd8a694e89ee,69b9601544c9ccd2758c35ad,0.0191,0.0191,1,13,175,147,1,sixeight,,,,,,,,,,,,,,,,,,,,,,,,,,,,,,,,,,,,,,,,,,,,,,,,,,,,,,,,,,,,,,,,,,,,,,,,,,,,,,,,,,,,,,,,,,,,,,,,,,,,,,,,,,,,,,,,,,,,,,,,,,,,,,,,,,,,,,,,,
,,5df6818e2b12bd474abc4c9d,2026-03-17_10h07.41.265,kallum_motion_pilot_GIST_update_2,2026.1.1,Win32,57.80346821,5df6818e2b12bd474abc4c9d,69b95efdef24cd8a694e89ee,69b9601544c9ccd2758c35ad,0.0191,0.0191,1,14,176,93,1,seveneight,,,,,,,,,,,,,,,,,,,,,,,,,,,,,,,,,,,,,,,,,,,,,,,,,,,,,,,,,,,,,,,,,,,,,,,,,,,,,,,,,,,,,,,,,,,,,,,,,,,,,,,,,,,,,,,,,,,,,,,,,,,,,,,,,,,,,,,,,
,,5df6818e2b12bd474abc4c9d,2026-03-17_10h07.41.265,kallum_motion_pilot_GIST_update_2,2026.1.1,Win32,57.80346821,5df6818e2b12bd474abc4c9d,69b95efdef24cd8a694e89ee,69b9601544c9ccd2758c35ad,0.0192,0.0192,1,15,177,144,1,fivesix,,,,,,,,,,,,,,,,,,,,,,,,,,,,,,,,,,,,,,,,,,,,,,,,,,,,,,,,,,,,,,,,,,,,,,,,,,,,,,,,,,,,,,,,,,,,,,,,,,,,,,,,,,,,,,,,,,,,,,,,,,,,,,,,,,,,,,,,,
,,5df6818e2b12bd474abc4c9d,2026-03-17_10h07.41.265,kallum_motion_pilot_GIST_update_2,2026.1.1,Win32,57.80346821,5df6818e2b12bd474abc4c9d,69b95efdef24cd8a694e89ee,69b9601544c9ccd2758c35ad,0.0192,0.0192,1,16,178,59,1,twofour,,,,,,,,,,,,,,,,,,,,,,,,,,,,,,,,,,,,,,,,,,,,,,,,,,,,,,,,,,,,,,,,,,,,,,,,,,,,,,,,,,,,,,,,,,,,,,,,,,,,,,,,,,,,,,,,,,,,,,,,,,,,,,,,,,,,,,,,,
,,5df6818e2b12bd474abc4c9d,2026-03-17_10h07.41.265,kallum_motion_pilot_GIST_update_2,2026.1.1,Win32,57.80346821,5df6818e2b12bd474abc4c9d,69b95efdef24cd8a694e89ee,69b9601544c9ccd2758c35ad,0.0192,0.0192,1,17,179,94,1,eightsix,,,,,,,,,,,,,,,,,,,,,,,,,,,,,,,,,,,,,,,,,,,,,,,,,,,,,,,,,,,,,,,,,,,,,,,,,,,,,,,,,,,,,,,,,,,,,,,,,,,,,,,,,,,,,,,,,,,,,,,,,,,,,,,,,,,,,,,,,
,,5df6818e2b12bd474abc4c9d,2026-03-17_10h07.41.265,kallum_motion_pilot_GIST_update_2,2026.1.1,Win32,57.80346821,5df6818e2b12bd474abc4c9d,69b95efdef24cd8a694e89ee,69b9601544c9ccd2758c35ad,0.0193,0.0193,1,18,180,46,1,fourtwo,,,,,,,,,,,,,,,,,,,,,,,,,,,,,,,,,,,,,,,,,,,,,,,,,,,,,,,,,,,,,,,,,,,,,,,,,,,,,,,,,,,,,,,,,,,,,,,,,,,,,,,,,,,,,,,,,,,,,,,,,,,,,,,,,,,,,,,,,
,,5df6818e2b12bd474abc4c9d,2026-03-17_10h07.41.265,kallum_motion_pilot_GIST_update_2,2026.1.1,Win32,57.80346821,5df6818e2b12bd474abc4c9d,69b95efdef24cd8a694e89ee,69b9601544c9ccd2758c35ad,0.0193,0.0193,1,19,181,79,1,eightseven,,,,,,,,,,,,,,,,,,,,,,,,,,,,,,,,,,,,,,,,,,,,,,,,,,,,,,,,,,,,,,,,,,,,,,,,,,,,,,,,,,,,,,,,,,,,,,,,,,,,,,,,,,,,,,,,,,,,,,,,,,,,,,,,,,,,,,,,,
,,5df6818e2b12bd474abc4c9d,2026-03-17_10h07.41.265,kallum_motion_pilot_GIST_update_2,2026.1.1,Win32,57.80346821,5df6818e2b12bd474abc4c9d,69b95efdef24cd8a694e89ee,69b9601544c9ccd2758c35ad,0.0193,0.0193,1,20,182,87,1,eightseven,,,,,,,,,,,,,,,,,,,,,,,,,,,,,,,,,,,,,,,,,,,,,,,,,,,,,,,,,,,,,,,,,,,,,,,,,,,,,,,,,,,,,,,,,,,,,,,,,,,,,,,,,,,,,,,,,,,,,,,,,,,,,,,,,,,,,,,,,
,,5df6818e2b12bd474abc4c9d,2026-03-17_10h07.41.265,kallum_motion_pilot_GIST_update_2,2026.1.1,Win32,57.80346821,5df6818e2b12bd474abc4c9d,69b95efdef24cd8a694e89ee,69b9601544c9ccd2758c35ad,0.0194,0.0194,1,21,183,83,1,sixeight,,,,,,,,,,,,,,,,,,,,,,,,,,,,,,,,,,,,,,,,,,,,,,,,,,,,,,,,,,,,,,,,,,,,,,,,,,,,,,,,,,,,,,,,,,,,,,,,,,,,,,,,,,,,,,,,,,,,,,,,,,,,,,,,,,,,,,,,,
,,5df6818e2b12bd474abc4c9d,2026-03-17_10h07.41.265,kallum_motion_pilot_GIST_update_2,2026.1.1,Win32,57.80346821,5df6818e2b12bd474abc4c9d,69b95efdef24cd8a694e89ee,69b9601544c9ccd2758c35ad,0.0194,0.0194,1,22,184,65,1,onethree,,,,,,,,,,,,,,,,,,,,,,,,,,,,,,,,,,,,,,,,,,,,,,,,,,,,,,,,,,,,,,,,,,,,,,,,,,,,,,,,,,,,,,,,,,,,,,,,,,,,,,,,,,,,,,,,,,,,,,,,,,,,,,,,,,,,,,,,,
,,5df6818e2b12bd474abc4c9d,2026-03-17_10h07.41.265,kallum_motion_pilot_GIST_update_2,2026.1.1,Win32,57.80346821,5df6818e2b12bd474abc4c9d,69b95efdef24cd8a694e89ee,69b9601544c9ccd2758c35ad,0.0195,0.0195,1,23,185,4,1,threeone,,,,,,,,,,,,,,,,,,,,,,,,,,,,,,,,,,,,,,,,,,,,,,,,,,,,,,,,,,,,,,,,,,,,,,,,,,,,,,,,,,,,,,,,,,,,,,,,,,,,,,,,,,,,,,,,,,,,,,,,,,,,,,,,,,,,,,,,,
,,5df6818e2b12bd474abc4c9d,2026-03-17_10h07.41.265,kallum_motion_pilot_GIST_update_2,2026.1.1,Win32,57.80346821,5df6818e2b12bd474abc4c9d,69b95efdef24cd8a694e89ee,69b9601544c9ccd2758c35ad,0.0195,0.0195,1,24,186,146,1,sixfive,,,,,,,,,,,,,,,,,,,,,,,,,,,,,,,,,,,,,,,,,,,,,,,,,,,,,,,,,,,,,,,,,,,,,,,,,,,,,,,,,,,,,,,,,,,,,,,,,,,,,,,,,,,,,,,,,,,,,,,,,,,,,,,,,,,,,,,,,
,,5df6818e2b12bd474abc4c9d,2026-03-17_10h07.41.265,kallum_motion_pilot_GIST_update_2,2026.1.1,Win32,57.80346821,5df6818e2b12bd474abc4c9d,69b95efdef24cd8a694e89ee,69b9601544c9ccd2758c35ad,0.0196,0.0196,1,25,187,160,1,fivesix,,,,,,,,,,,,,,,,,,,,,,,,,,,,,,,,,,,,,,,,,,,,,,,,,,,,,,,,,,,,,,,,,,,,,,,,,,,,,,,,,,,,,,,,,,,,,,,,,,,,,,,,,,,,,,,,,,,,,,,,,,,,,,,,,,,,,,,,,
,,5df6818e2b12bd474abc4c9d,2026-03-17_10h07.41.265,kallum_motion_pilot_GIST_update_2,2026.1.1,Win32,57.80346821,5df6818e2b12bd474abc4c9d,69b95efdef24cd8a694e89ee,69b9601544c9ccd2758c35ad,0.0196,0.0196,1,26,188,68,1,threeone,,,,,,,,,,,,,,,,,,,,,,,,,,,,,,,,,,,,,,,,,,,,,,,,,,,,,,,,,,,,,,,,,,,,,,,,,,,,,,,,,,,,,,,,,,,,,,,,,,,,,,,,,,,,,,,,,,,,,,,,,,,,,,,,,,,,,,,,,
,,5df6818e2b12bd474abc4c9d,2026-03-17_10h07.41.265,kallum_motion_pilot_GIST_update_2,2026.1.1,Win32,57.80346821,5df6818e2b12bd474abc4c9d,69b95efdef24cd8a694e89ee,69b9601544c9ccd2758c35ad,0.0196,0.0196,1,27,189,50,1,twoone,,,,,,,,,,,,,,,,,,,,,,,,,,,,,,,,,,,,,,,,,,,,,,,,,,,,,,,,,,,,,,,,,,,,,,,,,,,,,,,,,,,,,,,,,,,,,,,,,,,,,,,,,,,,,,,,,,,,,,,,,,,,,,,,,,,,,,,,,
,,5df6818e2b12bd474abc4c9d,2026-03-17_10h07.41.265,kallum_motion_pilot_GIST_update_2,2026.1.1,Win32,57.80346821,5df6818e2b12bd474abc4c9d,69b95efdef24cd8a694e89ee,69b9601544c9ccd2758c35ad,0.0197,0.0197,1,28,190,40,1,onetwo,,,,,,,,,,,,,,,,,,,,,,,,,,,,,,,,,,,,,,,,,,,,,,,,,,,,,,,,,,,,,,,,,,,,,,,,,,,,,,,,,,,,,,,,,,,,,,,,,,,,,,,,,,,,,,,,,,,,,,,,,,,,,,,,,,,,,,,,,
,,5df6818e2b12bd474abc4c9d,2026-03-17_10h07.41.265,kallum_motion_pilot_GIST_update_2,2026.1.1,Win32,57.80346821,5df6818e2b12bd474abc4c9d,69b95efdef24cd8a694e89ee,69b9601544c9ccd2758c35ad,0.0197,0.0197,1,29,191,18,1,twoone,,,,,,,,,,,,,,,,,,,,,,,,,,,,,,,,,,,,,,,,,,,,,,,,,,,,,,,,,,,,,,,,,,,,,,,,,,,,,,,,,,,,,,,,,,,,,,,,,,,,,,,,,,,,,,,,,,,,,,,,,,,,,,,,,,,,,,,,,
,,5df6818e2b12bd474abc4c9d,2026-03-17_10h07.41.265,kallum_motion_pilot_GIST_update_2,2026.1.1,Win32,57.80346821,5df6818e2b12bd474abc4c9d,69b95efdef24cd8a694e89ee,69b9601544c9ccd2758c35ad,0.0198,0.0198,1,30,192,156,1,sevenfive,,,,,,,,,,,,,,,,,,,,,,,,,,,,,,,,,,,,,,,,,,,,,,,,,,,,,,,,,,,,,,,,,,,,,,,,,,,,,,,,,,,,,,,,,,,,,,,,,,,,,,,,,,,,,,,,,,,,,,,,,,,,,,,,,,,,,,,,,
,,5df6818e2b12bd474abc4c9d,2026-03-17_10h07.41.265,kallum_motion_pilot_GIST_update_2,2026.1.1,Win32,57.80346821,5df6818e2b12bd474abc4c9d,69b95efdef24cd8a694e89ee,69b9601544c9ccd2758c35ad,0.0198,0.0198,1,31,193,22,1,fourtwo,,,,,,,,,,,,,,,,,,,,,,,,,,,,,,,,,,,,,,,,,,,,,,,,,,,,,,,,,,,,,,,,,,,,,,,,,,,,,,,,,,,,,,,,,,,,,,,,,,,,,,,,,,,,,,,,,,,,,,,,,,,,,,,,,,,,,,,,,
,,5df6818e2b12bd474abc4c9d,2026-03-17_10h07.41.265,kallum_motion_pilot_GIST_update_2,2026.1.1,Win32,57.80346821,5df6818e2b12bd474abc4c9d,69b95efdef24cd8a694e89ee,69b9601544c9ccd2758c35ad,0.0199,0.0199,1,32,194,133,1,seveneight,,,,,,,,,,,,,,,,,,,,,,,,,,,,,,,,,,,,,,,,,,,,,,,,,,,,,,,,,,,,,,,,,,,,,,,,,,,,,,,,,,,,,,,,,,,,,,,,,,,,,,,,,,,,,,,,,,,,,,,,,,,,,,,,,,,,,,,,,
,,5df6818e2b12bd474abc4c9d,2026-03-17_10h07.41.265,kallum_motion_pilot_GIST_update_2,2026.1.1,Win32,57.80346821,5df6818e2b12bd474abc4c9d,69b95efdef24cd8a694e89ee,69b9601544c9ccd2758c35ad,0.02,0.02,1,33,195,20,1,threeone,,,,,,,,,,,,,,,,,,,,,,,,,,,,,,,,,,,,,,,,,,,,,,,,,,,,,,,,,,,,,,,,,,,,,,,,,,,,,,,,,,,,,,,,,,,,,,,,,,,,,,,,,,,,,,,,,,,,,,,,,,,,,,,,,,,,,,,,,
,,5df6818e2b12bd474abc4c9d,2026-03-17_10h07.41.265,kallum_motion_pilot_GIST_update_2,2026.1.1,Win32,57.80346821,5df6818e2b12bd474abc4c9d,69b95efdef24cd8a694e89ee,69b9601544c9ccd2758c35ad,0.02,0.02,1,34,196,111,1,eightseven,,,,,,,,,,,,,,,,,,,,,,,,,,,,,,,,,,,,,,,,,,,,,,,,,,,,,,,,,,,,,,,,,,,,,,,,,,,,,,,,,,,,,,,,,,,,,,,,,,,,,,,,,,,,,,,,,,,,,,,,,,,,,,,,,,,,,,,,,
,,5df6818e2b12bd474abc4c9d,2026-03-17_10h07.41.265,kallum_motion_pilot_GIST_update_2,2026.1.1,Win32,57.80346821,5df6818e2b12bd474abc4c9d,69b95efdef24cd8a694e89ee,69b9601544c9ccd2758c35ad,0.02,0.02,1,35,197,154,1,sixfive,,,,,,,,,,,,,,,,,,,,,,,,,,,,,,,,,,,,,,,,,,,,,,,,,,,,,,,,,,,,,,,,,,,,,,,,,,,,,,,,,,,,,,,,,,,,,,,,,,,,,,,,,,,,,,,,,,,,,,,,,,,,,,,,,,,,,,,,,
,,5df6818e2b12bd474abc4c9d,2026-03-17_10h07.41.265,kallum_motion_pilot_GIST_update_2,2026.1.1,Win32,57.80346821,5df6818e2b12bd474abc4c9d,69b95efdef24cd8a694e89ee,69b9601544c9ccd2758c35ad,0.0201,0.0201,1,36,198,11,1,twofour,,,,,,,,,,,,,,,,,,,,,,,,,,,,,,,,,,,,,,,,,,,,,,,,,,,,,,,,,,,,,,,,,,,,,,,,,,,,,,,,,,,,,,,,,,,,,,,,,,,,,,,,,,,,,,,,,,,,,,,,,,,,,,,,,,,,,,,,,
,,5df6818e2b12bd474abc4c9d,2026-03-17_10h07.41.265,kallum_motion_pilot_GIST_update_2,2026.1.1,Win32,57.80346821,5df6818e2b12bd474abc4c9d,69b95efdef24cd8a694e89ee,69b9601544c9ccd2758c35ad,0.0201,0.0201,1,37,199,29,1,threefour,,,,,,,,,,,,,,,,,,,,,,,,,,,,,,,,,,,,,,,,,,,,,,,,,,,,,,,,,,,,,,,,,,,,,,,,,,,,,,,,,,,,,,,,,,,,,,,,,,,,,,,,,,,,,,,,,,,,,,,,,,,,,,,,,,,,,,,,,
,,5df6818e2b12bd474abc4c9d,2026-03-17_10h07.41.265,kallum_motion_pilot_GIST_update_2,2026.1.1,Win32,57.80346821,5df6818e2b12bd474abc4c9d,69b95efdef24cd8a694e89ee,69b9601544c9ccd2758c35ad,0.0202,0.0202,1,38,200,103,1,eightseven,,,,,,,,,,,,,,,,,,,,,,,,,,,,,,,,,,,,,,,,,,,,,,,,,,,,,,,,,,,,,,,,,,,,,,,,,,,,,,,,,,,,,,,,,,,,,,,,,,,,,,,,,,,,,,,,,,,,,,,,,,,,,,,,,,,,,,,,,
,,5df6818e2b12bd474abc4c9d,2026-03-17_10h07.41.265,kallum_motion_pilot_GIST_update_2,2026.1.1,Win32,57.80346821,5df6818e2b12bd474abc4c9d,69b95efdef24cd8a694e89ee,69b9601544c9ccd2758c35ad,0.0202,0.0202,1,39,201,80,1,fivesix,,,,,,,,,,,,,,,,,,,,,,,,,,,,,,,,,,,,,,,,,,,,,,,,,,,,,,,,,,,,,,,,,,,,,,,,,,,,,,,,,,,,,,,,,,,,,,,,,,,,,,,,,,,,,,,,,,,,,,,,,,,,,,,,,,,,,,,,,
,,5df6818e2b12bd474abc4c9d,2026-03-17_10h07.41.265,kallum_motion_pilot_GIST_update_2,2026.1.1,Win32,57.80346821,5df6818e2b12bd474abc4c9d,69b95efdef24cd8a694e89ee,69b9601544c9ccd2758c35ad,0.0203,0.0203,1,40,202,127,1,eightseven,,,,,,,,,,,,,,,,,,,,,,,,,,,,,,,,,,,,,,,,,,,,,,,,,,,,,,,,,,,,,,,,,,,,,,,,,,,,,,,,,,,,,,,,,,,,,,,,,,,,,,,,,,,,,,,,,,,,,,,,,,,,,,,,,,,,,,,,,
,,5df6818e2b12bd474abc4c9d,2026-03-17_10h07.41.265,kallum_motion_pilot_GIST_update_2,2026.1.1,Win32,57.80346821,5df6818e2b12bd474abc4c9d,69b95efdef24cd8a694e89ee,69b9601544c9ccd2758c35ad,0.0203,0.0203,1,41,203,114,1,sixfive,,,,,,,,,,,,,,,,,,,,,,,,,,,,,,,,,,,,,,,,,,,,,,,,,,,,,,,,,,,,,,,,,,,,,,,,,,,,,,,,,,,,,,,,,,,,,,,,,,,,,,,,,,,,,,,,,,,,,,,,,,,,,,,,,,,,,,,,,
,,5df6818e2b12bd474abc4c9d,2026-03-17_10h07.41.265,kallum_motion_pilot_GIST_update_2,2026.1.1,Win32,57.80346821,5df6818e2b12bd474abc4c9d,69b95efdef24cd8a694e89ee,69b9601544c9ccd2758c35ad,0.0204,0.0204,1,42,204,77,1,threefour,,,,,,,,,,,,,,,,,,,,,,,,,,,,,,,,,,,,,,,,,,,,,,,,,,,,,,,,,,,,,,,,,,,,,,,,,,,,,,,,,,,,,,,,,,,,,,,,,,,,,,,,,,,,,,,,,,,,,,,,,,,,,,,,,,,,,,,,,
,,5df6818e2b12bd474abc4c9d,2026-03-17_10h07.41.265,kallum_motion_pilot_GIST_update_2,2026.1.1,Win32,57.80346821,5df6818e2b12bd474abc4c9d,69b95efdef24cd8a694e89ee,69b9601544c9ccd2758c35ad,0.0204,0.0204,1,43,205,72,1,onetwo,,,,,,,,,,,,,,,,,,,,,,,,,,,,,,,,,,,,,,,,,,,,,,,,,,,,,,,,,,,,,,,,,,,,,,,,,,,,,,,,,,,,,,,,,,,,,,,,,,,,,,,,,,,,,,,,,,,,,,,,,,,,,,,,,,,,,,,,,
,,5df6818e2b12bd474abc4c9d,2026-03-17_10h07.41.265,kallum_motion_pilot_GIST_update_2,2026.1.1,Win32,57.80346821,5df6818e2b12bd474abc4c9d,69b95efdef24cd8a694e89ee,69b9601544c9ccd2758c35ad,0.0205,0.0205,1,44,206,153,1,fiveseven,,,,,,,,,,,,,,,,,,,,,,,,,,,,,,,,,,,,,,,,,,,,,,,,,,,,,,,,,,,,,,,,,,,,,,,,,,,,,,,,,,,,,,,,,,,,,,,,,,,,,,,,,,,,,,,,,,,,,,,,,,,,,,,,,,,,,,,,,
,,5df6818e2b12bd474abc4c9d,2026-03-17_10h07.41.265,kallum_motion_pilot_GIST_update_2,2026.1.1,Win32,57.80346821,5df6818e2b12bd474abc4c9d,69b95efdef24cd8a694e89ee,69b9601544c9ccd2758c35ad,0.0206,0.0206,1,45,207,104,1,fivesix,,,,,,,,,,,,,,,,,,,,,,,,,,,,,,,,,,,,,,,,,,,,,,,,,,,,,,,,,,,,,,,,,,,,,,,,,,,,,,,,,,,,,,,,,,,,,,,,,,,,,,,,,,,,,,,,,,,,,,,,,,,,,,,,,,,,,,,,,
,,5df6818e2b12bd474abc4c9d,2026-03-17_10h07.41.265,kallum_motion_pilot_GIST_update_2,2026.1.1,Win32,57.80346821,5df6818e2b12bd474abc4c9d,69b95efdef24cd8a694e89ee,69b9601544c9ccd2758c35ad,0.0206,0.0206,1,46,208,27,1,twofour,,,,,,,,,,,,,,,,,,,,,,,,,,,,,,,,,,,,,,,,,,,,,,,,,,,,,,,,,,,,,,,,,,,,,,,,,,,,,,,,,,,,,,,,,,,,,,,,,,,,,,,,,,,,,,,,,,,,,,,,,,,,,,,,,,,,,,,,,
,,5df6818e2b12bd474abc4c9d,2026-03-17_10h07.41.265,kallum_motion_pilot_GIST_update_2,2026.1.1,Win32,57.80346821,5df6818e2b12bd474abc4c9d,69b95efdef24cd8a694e89ee,69b9601544c9ccd2758c35ad,0.0206,0.0206,1,47,209,110,1,eightsix,,,,,,,,,,,,,,,,,,,,,,,,,,,,,,,,,,,,,,,,,,,,,,,,,,,,,,,,,,,,,,,,,,,,,,,,,,,,,,,,,,,,,,,,,,,,,,,,,,,,,,,,,,,,,,,,,,,,,,,,,,,,,,,,,,,,,,,,,
,,5df6818e2b12bd474abc4c9d,2026-03-17_10h07.41.265,kallum_motion_pilot_GIST_update_2,2026.1.1,Win32,57.80346821,5df6818e2b12bd474abc4c9d,69b95efdef24cd8a694e89ee,69b9601544c9ccd2758c35ad,0.0207,0.0207,1,48,210,19,1,twofour,,,,,,,,,,,,,,,,,,,,,,,,,,,,,,,,,,,,,,,,,,,,,,,,,,,,,,,,,,,,,,,,,,,,,,,,,,,,,,,,,,,,,,,,,,,,,,,,,,,,,,,,,,,,,,,,,,,,,,,,,,,,,,,,,,,,,,,,,
,,5df6818e2b12bd474abc4c9d,2026-03-17_10h07.41.265,kallum_motion_pilot_GIST_update_2,2026.1.1,Win32,57.80346821,5df6818e2b12bd474abc4c9d,69b95efdef24cd8a694e89ee,69b9601544c9ccd2758c35ad,0.0207,0.0207,1,49,211,71,1,fourthree,,,,,,,,,,,,,,,,,,,,,,,,,,,,,,,,,,,,,,,,,,,,,,,,,,,,,,,,,,,,,,,,,,,,,,,,,,,,,,,,,,,,,,,,,,,,,,,,,,,,,,,,,,,,,,,,,,,,,,,,,,,,,,,,,,,,,,,,,
,,5df6818e2b12bd474abc4c9d,2026-03-17_10h07.41.265,kallum_motion_pilot_GIST_update_2,2026.1.1,Win32,57.80346821,5df6818e2b12bd474abc4c9d,69b95efdef24cd8a694e89ee,69b9601544c9ccd2758c35ad,0.0208,0.0208,1,50,212,118,1,eightsix,,,,,,,,,,,,,,,,,,,,,,,,,,,,,,,,,,,,,,,,,,,,,,,,,,,,,,,,,,,,,,,,,,,,,,,,,,,,,,,,,,,,,,,,,,,,,,,,,,,,,,,,,,,,,,,,,,,,,,,,,,,,,,,,,,,,,,,,,
,,5df6818e2b12bd474abc4c9d,2026-03-17_10h07.41.265,kallum_motion_pilot_GIST_update_2,2026.1.1,Win32,57.80346821,5df6818e2b12bd474abc4c9d,69b95efdef24cd8a694e89ee,69b9601544c9ccd2758c35ad,0.0208,0.0208,1,51,213,31,1,fourthree,,,,,,,,,,,,,,,,,,,,,,,,,,,,,,,,,,,,,,,,,,,,,,,,,,,,,,,,,,,,,,,,,,,,,,,,,,,,,,,,,,,,,,,,,,,,,,,,,,,,,,,,,,,,,,,,,,,,,,,,,,,,,,,,,,,,,,,,,
,,5df6818e2b12bd474abc4c9d,2026-03-17_10h07.41.265,kallum_motion_pilot_GIST_update_2,2026.1.1,Win32,57.80346821,5df6818e2b12bd474abc4c9d,69b95efdef24cd8a694e89ee,69b9601544c9ccd2758c35ad,0.0209,0.0209,1,52,214,161,1,fiveseven,,,,,,,,,,,,,,,,,,,,,,,,,,,,,,,,,,,,,,,,,,,,,,,,,,,,,,,,,,,,,,,,,,,,,,,,,,,,,,,,,,,,,,,,,,,,,,,,,,,,,,,,,,,,,,,,,,,,,,,,,,,,,,,,,,,,,,,,,
,,5df6818e2b12bd474abc4c9d,2026-03-17_10h07.41.265,kallum_motion_pilot_GIST_update_2,2026.1.1,Win32,57.80346821,5df6818e2b12bd474abc4c9d,69b95efdef24cd8a694e89ee,69b9601544c9ccd2758c35ad,0.021,0.021,1,53,215,142,1,eightsix,,,,,,,,,,,,,,,,,,,,,,,,,,,,,,,,,,,,,,,,,,,,,,,,,,,,,,,,,,,,,,,,,,,,,,,,,,,,,,,,,,,,,,,,,,,,,,,,,,,,,,,,,,,,,,,,,,,,,,,,,,,,,,,,,,,,,,,,,
,,5df6818e2b12bd474abc4c9d,2026-03-17_10h07.41.265,kallum_motion_pilot_GIST_update_2,2026.1.1,Win32,57.80346821,5df6818e2b12bd474abc4c9d,69b95efdef24cd8a694e89ee,69b9601544c9ccd2758c35ad,0.021,0.021,1,54,216,99,1,sixeight,,,,,,,,,,,,,,,,,,,,,,,,,,,,,,,,,,,,,,,,,,,,,,,,,,,,,,,,,,,,,,,,,,,,,,,,,,,,,,,,,,,,,,,,,,,,,,,,,,,,,,,,,,,,,,,,,,,,,,,,,,,,,,,,,,,,,,,,,
,,5df6818e2b12bd474abc4c9d,2026-03-17_10h07.41.265,kallum_motion_pilot_GIST_update_2,2026.1.1,Win32,57.80346821,5df6818e2b12bd474abc4c9d,69b95efdef24cd8a694e89ee,69b9601544c9ccd2758c35ad,0.021,0.021,1,55,217,97,1,fiveseven,,,,,,,,,,,,,,,,,,,,,,,,,,,,,,,,,,,,,,,,,,,,,,,,,,,,,,,,,,,,,,,,,,,,,,,,,,,,,,,,,,,,,,,,,,,,,,,,,,,,,,,,,,,,,,,,,,,,,,,,,,,,,,,,,,,,,,,,,
,,5df6818e2b12bd474abc4c9d,2026-03-17_10h07.41.265,kallum_motion_pilot_GIST_update_2,2026.1.1,Win32,57.80346821,5df6818e2b12bd474abc4c9d,69b95efdef24cd8a694e89ee,69b9601544c9ccd2758c35ad,0.0211,0.0211,1,56,218,5,1,threefour,,,,,,,,,,,,,,,,,,,,,,,,,,,,,,,,,,,,,,,,,,,,,,,,,,,,,,,,,,,,,,,,,,,,,,,,,,,,,,,,,,,,,,,,,,,,,,,,,,,,,,,,,,,,,,,,,,,,,,,,,,,,,,,,,,,,,,,,,
,,5df6818e2b12bd474abc4c9d,2026-03-17_10h07.41.265,kallum_motion_pilot_GIST_update_2,2026.1.1,Win32,57.80346821,5df6818e2b12bd474abc4c9d,69b95efdef24cd8a694e89ee,69b9601544c9ccd2758c35ad,0.0211,0.0211,1,57,219,62,1,fourtwo,,,,,,,,,,,,,,,,,,,,,,,,,,,,,,,,,,,,,,,,,,,,,,,,,,,,,,,,,,,,,,,,,,,,,,,,,,,,,,,,,,,,,,,,,,,,,,,,,,,,,,,,,,,,,,,,,,,,,,,,,,,,,,,,,,,,,,,,,
,,5df6818e2b12bd474abc4c9d,2026-03-17_10h07.41.265,kallum_motion_pilot_GIST_update_2,2026.1.1,Win32,57.80346821,5df6818e2b12bd474abc4c9d,69b95efdef24cd8a694e89ee,69b9601544c9ccd2758c35ad,0.0211,0.0211,1,58,220,63,1,fourthree,,,,,,,,,,,,,,,,,,,,,,,,,,,,,,,,,,,,,,,,,,,,,,,,,,,,,,,,,,,,,,,,,,,,,,,,,,,,,,,,,,,,,,,,,,,,,,,,,,,,,,,,,,,,,,,,,,,,,,,,,,,,,,,,,,,,,,,,,
,,5df6818e2b12bd474abc4c9d,2026-03-17_10h07.41.265,kallum_motion_pilot_GIST_update_2,2026.1.1,Win32,57.80346821,5df6818e2b12bd474abc4c9d,69b95efdef24cd8a694e89ee,69b9601544c9ccd2758c35ad,0.0212,0.0212,1,59,221,152,1,fivesix,,,,,,,,,,,,,,,,,,,,,,,,,,,,,,,,,,,,,,,,,,,,,,,,,,,,,,,,,,,,,,,,,,,,,,,,,,,,,,,,,,,,,,,,,,,,,,,,,,,,,,,,,,,,,,,,,,,,,,,,,,,,,,,,,,,,,,,,,
,,5df6818e2b12bd474abc4c9d,2026-03-17_10h07.41.265,kallum_motion_pilot_GIST_update_2,2026.1.1,Win32,57.80346821,5df6818e2b12bd474abc4c9d,69b95efdef24cd8a694e89ee,69b9601544c9ccd2758c35ad,0.0213,0.0213,1,60,222,44,1,threeone,,,,,,,,,,,,,,,,,,,,,,,,,,,,,,,,,,,,,,,,,,,,,,,,,,,,,,,,,,,,,,,,,,,,,,,,,,,,,,,,,,,,,,,,,,,,,,,,,,,,,,,,,,,,,,,,,,,,,,,,,,,,,,,,,,,,,,,,,
,,5df6818e2b12bd474abc4c9d,2026-03-17_10h07.41.265,kallum_motion_pilot_GIST_update_2,2026.1.1,Win32,57.80346821,5df6818e2b12bd474abc4c9d,69b95efdef24cd8a694e89ee,69b9601544c9ccd2758c35ad,0.0213,0.0213,1,61,223,148,1,sevenfive,,,,,,,,,,,,,,,,,,,,,,,,,,,,,,,,,,,,,,,,,,,,,,,,,,,,,,,,,,,,,,,,,,,,,,,,,,,,,,,,,,,,,,,,,,,,,,,,,,,,,,,,,,,,,,,,,,,,,,,,,,,,,,,,,,,,,,,,,
,,5df6818e2b12bd474abc4c9d,2026-03-17_10h07.41.265,kallum_motion_pilot_GIST_update_2,2026.1.1,Win32,57.80346821,5df6818e2b12bd474abc4c9d,69b95efdef24cd8a694e89ee,69b9601544c9ccd2758c35ad,0.0214,0.0214,1,62,224,51,1,twofour,,,,,,,,,,,,,,,,,,,,,,,,,,,,,,,,,,,,,,,,,,,,,,,,,,,,,,,,,,,,,,,,,,,,,,,,,,,,,,,,,,,,,,,,,,,,,,,,,,,,,,,,,,,,,,,,,,,,,,,,,,,,,,,,,,,,,,,,,
,,5df6818e2b12bd474abc4c9d,2026-03-17_10h07.41.265,kallum_motion_pilot_GIST_update_2,2026.1.1,Win32,57.80346821,5df6818e2b12bd474abc4c9d,69b95efdef24cd8a694e89ee,69b9601544c9ccd2758c35ad,0.0214,0.0214,1,63,225,134,1,eightsix,,,,,,,,,,,,,,,,,,,,,,,,,,,,,,,,,,,,,,,,,,,,,,,,,,,,,,,,,,,,,,,,,,,,,,,,,,,,,,,,,,,,,,,,,,,,,,,,,,,,,,,,,,,,,,,,,,,,,,,,,,,,,,,,,,,,,,,,,
,,5df6818e2b12bd474abc4c9d,2026-03-17_10h07.41.265,kallum_motion_pilot_GIST_update_2,2026.1.1,Win32,57.80346821,5df6818e2b12bd474abc4c9d,69b95efdef24cd8a694e89ee,69b9601544c9ccd2758c35ad,0.0214,0.0214,1,64,226,55,1,fourthree,,,,,,,,,,,,,,,,,,,,,,,,,,,,,,,,,,,,,,,,,,,,,,,,,,,,,,,,,,,,,,,,,,,,,,,,,,,,,,,,,,,,,,,,,,,,,,,,,,,,,,,,,,,,,,,,,,,,,,,,,,,,,,,,,,,,,,,,,
,,5df6818e2b12bd474abc4c9d,2026-03-17_10h07.41.265,kallum_motion_pilot_GIST_update_2,2026.1.1,Win32,57.80346821,5df6818e2b12bd474abc4c9d,69b95efdef24cd8a694e89ee,69b9601544c9ccd2758c35ad,0.0215,0.0215,1,65,227,75,1,twofour,,,,,,,,,,,,,,,,,,,,,,,,,,,,,,,,,,,,,,,,,,,,,,,,,,,,,,,,,,,,,,,,,,,,,,,,,,,,,,,,,,,,,,,,,,,,,,,,,,,,,,,,,,,,,,,,,,,,,,,,,,,,,,,,,,,,,,,,,
,,5df6818e2b12bd474abc4c9d,2026-03-17_10h07.41.265,kallum_motion_pilot_GIST_update_2,2026.1.1,Win32,57.80346821,5df6818e2b12bd474abc4c9d,69b95efdef24cd8a694e89ee,69b9601544c9ccd2758c35ad,0.0215,0.0215,1,66,228,92,1,sevenfive,,,,,,,,,,,,,,,,,,,,,,,,,,,,,,,,,,,,,,,,,,,,,,,,,,,,,,,,,,,,,,,,,,,,,,,,,,,,,,,,,,,,,,,,,,,,,,,,,,,,,,,,,,,,,,,,,,,,,,,,,,,,,,,,,,,,,,,,,
,,5df6818e2b12bd474abc4c9d,2026-03-17_10h07.41.265,kallum_motion_pilot_GIST_update_2,2026.1.1,Win32,57.80346821,5df6818e2b12bd474abc4c9d,69b95efdef24cd8a694e89ee,69b9601544c9ccd2758c35ad,0.0215,0.0215,1,67,229,21,1,threefour,,,,,,,,,,,,,,,,,,,,,,,,,,,,,,,,,,,,,,,,,,,,,,,,,,,,,,,,,,,,,,,,,,,,,,,,,,,,,,,,,,,,,,,,,,,,,,,,,,,,,,,,,,,,,,,,,,,,,,,,,,,,,,,,,,,,,,,,,
,,5df6818e2b12bd474abc4c9d,2026-03-17_10h07.41.265,kallum_motion_pilot_GIST_update_2,2026.1.1,Win32,57.80346821,5df6818e2b12bd474abc4c9d,69b95efdef24cd8a694e89ee,69b9601544c9ccd2758c35ad,0.0216,0.0216,1,68,230,95,1,eightseven,,,,,,,,,,,,,,,,,,,,,,,,,,,,,,,,,,,,,,,,,,,,,,,,,,,,,,,,,,,,,,,,,,,,,,,,,,,,,,,,,,,,,,,,,,,,,,,,,,,,,,,,,,,,,,,,,,,,,,,,,,,,,,,,,,,,,,,,,
,,5df6818e2b12bd474abc4c9d,2026-03-17_10h07.41.265,kallum_motion_pilot_GIST_update_2,2026.1.1,Win32,57.80346821,5df6818e2b12bd474abc4c9d,69b95efdef24cd8a694e89ee,69b9601544c9ccd2758c35ad,0.0217,0.0217,1,69,231,7,1,fourthree,,,,,,,,,,,,,,,,,,,,,,,,,,,,,,,,,,,,,,,,,,,,,,,,,,,,,,,,,,,,,,,,,,,,,,,,,,,,,,,,,,,,,,,,,,,,,,,,,,,,,,,,,,,,,,,,,,,,,,,,,,,,,,,,,,,,,,,,,
,,5df6818e2b12bd474abc4c9d,2026-03-17_10h07.41.265,kallum_motion_pilot_GIST_update_2,2026.1.1,Win32,57.80346821,5df6818e2b12bd474abc4c9d,69b95efdef24cd8a694e89ee,69b9601544c9ccd2758c35ad,0.0217,0.0217,1,70,232,74,1,twoone,,,,,,,,,,,,,,,,,,,,,,,,,,,,,,,,,,,,,,,,,,,,,,,,,,,,,,,,,,,,,,,,,,,,,,,,,,,,,,,,,,,,,,,,,,,,,,,,,,,,,,,,,,,,,,,,,,,,,,,,,,,,,,,,,,,,,,,,,
,,5df6818e2b12bd474abc4c9d,2026-03-17_10h07.41.265,kallum_motion_pilot_GIST_update_2,2026.1.1,Win32,57.80346821,5df6818e2b12bd474abc4c9d,69b95efdef24cd8a694e89ee,69b9601544c9ccd2758c35ad,0.0217,0.0217,1,71,233,112,1,fivesix,,,,,,,,,,,,,,,,,,,,,,,,,,,,,,,,,,,,,,,,,,,,,,,,,,,,,,,,,,,,,,,,,,,,,,,,,,,,,,,,,,,,,,,,,,,,,,,,,,,,,,,,,,,,,,,,,,,,,,,,,,,,,,,,,,,,,,,,,
,,5df6818e2b12bd474abc4c9d,2026-03-17_10h07.41.265,kallum_motion_pilot_GIST_update_2,2026.1.1,Win32,57.80346821,5df6818e2b12bd474abc4c9d,69b95efdef24cd8a694e89ee,69b9601544c9ccd2758c35ad,0.0218,0.0218,1,72,234,157,1,seveneight,,,,,,,,,,,,,,,,,,,,,,,,,,,,,,,,,,,,,,,,,,,,,,,,,,,,,,,,,,,,,,,,,,,,,,,,,,,,,,,,,,,,,,,,,,,,,,,,,,,,,,,,,,,,,,,,,,,,,,,,,,,,,,,,,,,,,,,,,
,,5df6818e2b12bd474abc4c9d,2026-03-17_10h07.41.265,kallum_motion_pilot_GIST_update_2,2026.1.1,Win32,57.80346821,5df6818e2b12bd474abc4c9d,69b95efdef24cd8a694e89ee,69b9601544c9ccd2758c35ad,0.0218,0.0218,1,73,235,61,1,threefour,,,,,,,,,,,,,,,,,,,,,,,,,,,,,,,,,,,,,,,,,,,,,,,,,,,,,,,,,,,,,,,,,,,,,,,,,,,,,,,,,,,,,,,,,,,,,,,,,,,,,,,,,,,,,,,,,,,,,,,,,,,,,,,,,,,,,,,,,
,,5df6818e2b12bd474abc4c9d,2026-03-17_10h07.41.265,kallum_motion_pilot_GIST_update_2,2026.1.1,Win32,57.80346821,5df6818e2b12bd474abc4c9d,69b95efdef24cd8a694e89ee,69b9601544c9ccd2758c35ad,0.0219,0.0219,1,74,236,135,1,eightseven,,,,,,,,,,,,,,,,,,,,,,,,,,,,,,,,,,,,,,,,,,,,,,,,,,,,,,,,,,,,,,,,,,,,,,,,,,,,,,,,,,,,,,,,,,,,,,,,,,,,,,,,,,,,,,,,,,,,,,,,,,,,,,,,,,,,,,,,,
,,5df6818e2b12bd474abc4c9d,2026-03-17_10h07.41.265,kallum_motion_pilot_GIST_update_2,2026.1.1,Win32,57.80346821,5df6818e2b12bd474abc4c9d,69b95efdef24cd8a694e89ee,69b9601544c9ccd2758c35ad,0.0219,0.0219,1,75,237,43,1,twofour,,,,,,,,,,,,,,,,,,,,,,,,,,,,,,,,,,,,,,,,,,,,,,,,,,,,,,,,,,,,,,,,,,,,,,,,,,,,,,,,,,,,,,,,,,,,,,,,,,,,,,,,,,,,,,,,,,,,,,,,,,,,,,,,,,,,,,,,,
,,5df6818e2b12bd474abc4c9d,2026-03-17_10h07.41.265,kallum_motion_pilot_GIST_update_2,2026.1.1,Win32,57.80346821,5df6818e2b12bd474abc4c9d,69b95efdef24cd8a694e89ee,69b9601544c9ccd2758c35ad,0.022,0.022,1,76,238,96,1,fivesix,,,,,,,,,,,,,,,,,,,,,,,,,,,,,,,,,,,,,,,,,,,,,,,,,,,,,,,,,,,,,,,,,,,,,,,,,,,,,,,,,,,,,,,,,,,,,,,,,,,,,,,,,,,,,,,,,,,,,,,,,,,,,,,,,,,,,,,,,
,,5df6818e2b12bd474abc4c9d,2026-03-17_10h07.41.265,kallum_motion_pilot_GIST_update_2,2026.1.1,Win32,57.80346821,5df6818e2b12bd474abc4c9d,69b95efdef24cd8a694e89ee,69b9601544c9ccd2758c35ad,0.022,0.022,1,77,239,23,1,fourthree,,,,,,,,,,,,,,,,,,,,,,,,,,,,,,,,,,,,,,,,,,,,,,,,,,,,,,,,,,,,,,,,,,,,,,,,,,,,,,,,,,,,,,,,,,,,,,,,,,,,,,,,,,,,,,,,,,,,,,,,,,,,,,,,,,,,,,,,,
,,5df6818e2b12bd474abc4c9d,2026-03-17_10h07.41.265,kallum_motion_pilot_GIST_update_2,2026.1.1,Win32,57.80346821,5df6818e2b12bd474abc4c9d,69b95efdef24cd8a694e89ee,69b9601544c9ccd2758c35ad,0.0221,0.0221,1,78,240,69,1,threefour,,,,,,,,,,,,,,,,,,,,,,,,,,,,,,,,,,,,,,,,,,,,,,,,,,,,,,,,,,,,,,,,,,,,,,,,,,,,,,,,,,,,,,,,,,,,,,,,,,,,,,,,,,,,,,,,,,,,,,,,,,,,,,,,,,,,,,,,,
,,5df6818e2b12bd474abc4c9d,2026-03-17_10h07.41.265,kallum_motion_pilot_GIST_update_2,2026.1.1,Win32,57.80346821,5df6818e2b12bd474abc4c9d,69b95efdef24cd8a694e89ee,69b9601544c9ccd2758c35ad,0.0221,0.0221,1,79,241,98,1,sixfive,,,,,,,,,,,,,,,,,,,,,,,,,,,,,,,,,,,,,,,,,,,,,,,,,,,,,,,,,,,,,,,,,,,,,,,,,,,,,,,,,,,,,,,,,,,,,,,,,,,,,,,,,,,,,,,,,,,,,,,,,,,,,,,,,,,,,,,,,
,,5df6818e2b12bd474abc4c9d,2026-03-17_10h07.41.265,kallum_motion_pilot_GIST_update_2,2026.1.1,Win32,57.80346821,5df6818e2b12bd474abc4c9d,69b95efdef24cd8a694e89ee,69b9601544c9ccd2758c35ad,0.0221,0.0221,1,80,242,53,1,threefour,,,,,,,,,,,,,,,,,,,,,,,,,,,,,,,,,,,,,,,,,,,,,,,,,,,,,,,,,,,,,,,,,,,,,,,,,,,,,,,,,,,,,,,,,,,,,,,,,,,,,,,,,,,,,,,,,,,,,,,,,,,,,,,,,,,,,,,,,
,,5df6818e2b12bd474abc4c9d,2026-03-17_10h07.41.265,kallum_motion_pilot_GIST_update_2,2026.1.1,Win32,57.80346821,5df6818e2b12bd474abc4c9d,69b95efdef24cd8a694e89ee,69b9601544c9ccd2758c35ad,0.0222,0.0222,1,81,243,60,1,threeone,,,,,,,,,,,,,,,,,,,,,,,,,,,,,,,,,,,,,,,,,,,,,,,,,,,,,,,,,,,,,,,,,,,,,,,,,,,,,,,,,,,,,,,,,,,,,,,,,,,,,,,,,,,,,,,,,,,,,,,,,,,,,,,,,,,,,,,,,
,,5df6818e2b12bd474abc4c9d,2026-03-17_10h07.41.265,kallum_motion_pilot_GIST_update_2,2026.1.1,Win32,57.80346821,5df6818e2b12bd474abc4c9d,69b95efdef24cd8a694e89ee,69b9601544c9ccd2758c35ad,0.0223,0.0223,1,82,244,47,1,fourthree,,,,,,,,,,,,,,,,,,,,,,,,,,,,,,,,,,,,,,,,,,,,,,,,,,,,,,,,,,,,,,,,,,,,,,,,,,,,,,,,,,,,,,,,,,,,,,,,,,,,,,,,,,,,,,,,,,,,,,,,,,,,,,,,,,,,,,,,,
,,5df6818e2b12bd474abc4c9d,2026-03-17_10h07.41.265,kallum_motion_pilot_GIST_update_2,2026.1.1,Win32,57.80346821,5df6818e2b12bd474abc4c9d,69b95efdef24cd8a694e89ee,69b9601544c9ccd2758c35ad,0.0223,0.0223,1,83,245,0,1,onetwo,,,,,,,,,,,,,,,,,,,,,,,,,,,,,,,,,,,,,,,,,,,,,,,,,,,,,,,,,,,,,,,,,,,,,,,,,,,,,,,,,,,,,,,,,,,,,,,,,,,,,,,,,,,,,,,,,,,,,,,,,,,,,,,,,,,,,,,,,
,,5df6818e2b12bd474abc4c9d,2026-03-17_10h07.41.265,kallum_motion_pilot_GIST_update_2,2026.1.1,Win32,57.80346821,5df6818e2b12bd474abc4c9d,69b95efdef24cd8a694e89ee,69b9601544c9ccd2758c35ad,0.0223,0.0223,1,84,246,67,1,twofour,,,,,,,,,,,,,,,,,,,,,,,,,,,,,,,,,,,,,,,,,,,,,,,,,,,,,,,,,,,,,,,,,,,,,,,,,,,,,,,,,,,,,,,,,,,,,,,,,,,,,,,,,,,,,,,,,,,,,,,,,,,,,,,,,,,,,,,,,
,,5df6818e2b12bd474abc4c9d,2026-03-17_10h07.41.265,kallum_motion_pilot_GIST_update_2,2026.1.1,Win32,57.80346821,5df6818e2b12bd474abc4c9d,69b95efdef24cd8a694e89ee,69b9601544c9ccd2758c35ad,0.0224,0.0224,1,85,247,36,1,threeone,,,,,,,,,,,,,,,,,,,,,,,,,,,,,,,,,,,,,,,,,,,,,,,,,,,,,,,,,,,,,,,,,,,,,,,,,,,,,,,,,,,,,,,,,,,,,,,,,,,,,,,,,,,,,,,,,,,,,,,,,,,,,,,,,,,,,,,,,
,,5df6818e2b12bd474abc4c9d,2026-03-17_10h07.41.265,kallum_motion_pilot_GIST_update_2,2026.1.1,Win32,57.80346821,5df6818e2b12bd474abc4c9d,69b95efdef24cd8a694e89ee,69b9601544c9ccd2758c35ad,0.0225,0.0225,1,86,248,8,1,onetwo,,,,,,,,,,,,,,,,,,,,,,,,,,,,,,,,,,,,,,,,,,,,,,,,,,,,,,,,,,,,,,,,,,,,,,,,,,,,,,,,,,,,,,,,,,,,,,,,,,,,,,,,,,,,,,,,,,,,,,,,,,,,,,,,,,,,,,,,,
,,5df6818e2b12bd474abc4c9d,2026-03-17_10h07.41.265,kallum_motion_pilot_GIST_update_2,2026.1.1,Win32,57.80346821,5df6818e2b12bd474abc4c9d,69b95efdef24cd8a694e89ee,69b9601544c9ccd2758c35ad,0.0225,0.0225,1,87,249,91,1,sixeight,,,,,,,,,,,,,,,,,,,,,,,,,,,,,,,,,,,,,,,,,,,,,,,,,,,,,,,,,,,,,,,,,,,,,,,,,,,,,,,,,,,,,,,,,,,,,,,,,,,,,,,,,,,,,,,,,,,,,,,,,,,,,,,,,,,,,,,,,
,,5df6818e2b12bd474abc4c9d,2026-03-17_10h07.41.265,kallum_motion_pilot_GIST_update_2,2026.1.1,Win32,57.80346821,5df6818e2b12bd474abc4c9d,69b95efdef24cd8a694e89ee,69b9601544c9ccd2758c35ad,0.0226,0.0226,1,88,250,26,1,twoone,,,,,,,,,,,,,,,,,,,,,,,,,,,,,,,,,,,,,,,,,,,,,,,,,,,,,,,,,,,,,,,,,,,,,,,,,,,,,,,,,,,,,,,,,,,,,,,,,,,,,,,,,,,,,,,,,,,,,,,,,,,,,,,,,,,,,,,,,
,,5df6818e2b12bd474abc4c9d,2026-03-17_10h07.41.265,kallum_motion_pilot_GIST_update_2,2026.1.1,Win32,57.80346821,5df6818e2b12bd474abc4c9d,69b95efdef24cd8a694e89ee,69b9601544c9ccd2758c35ad,0.0226,0.0226,1,89,251,126,1,eightsix,,,,,,,,,,,,,,,,,,,,,,,,,,,,,,,,,,,,,,,,,,,,,,,,,,,,,,,,,,,,,,,,,,,,,,,,,,,,,,,,,,,,,,,,,,,,,,,,,,,,,,,,,,,,,,,,,,,,,,,,,,,,,,,,,,,,,,,,,
,,5df6818e2b12bd474abc4c9d,2026-03-17_10h07.41.265,kallum_motion_pilot_GIST_update_2,2026.1.1,Win32,57.80346821,5df6818e2b12bd474abc4c9d,69b95efdef24cd8a694e89ee,69b9601544c9ccd2758c35ad,0.0226,0.0226,1,90,252,155,1,sixeight,,,,,,,,,,,,,,,,,,,,,,,,,,,,,,,,,,,,,,,,,,,,,,,,,,,,,,,,,,,,,,,,,,,,,,,,,,,,,,,,,,,,,,,,,,,,,,,,,,,,,,,,,,,,,,,,,,,,,,,,,,,,,,,,,,,,,,,,,
,,5df6818e2b12bd474abc4c9d,2026-03-17_10h07.41.265,kallum_motion_pilot_GIST_update_2,2026.1.1,Win32,57.80346821,5df6818e2b12bd474abc4c9d,69b95efdef24cd8a694e89ee,69b9601544c9ccd2758c35ad,0.0227,0.0227,1,91,253,129,1,fiveseven,,,,,,,,,,,,,,,,,,,,,,,,,,,,,,,,,,,,,,,,,,,,,,,,,,,,,,,,,,,,,,,,,,,,,,,,,,,,,,,,,,,,,,,,,,,,,,,,,,,,,,,,,,,,,,,,,,,,,,,,,,,,,,,,,,,,,,,,,
,,5df6818e2b12bd474abc4c9d,2026-03-17_10h07.41.265,kallum_motion_pilot_GIST_update_2,2026.1.1,Win32,57.80346821,5df6818e2b12bd474abc4c9d,69b95efdef24cd8a694e89ee,69b9601544c9ccd2758c35ad,0.0227,0.0227,1,92,254,123,1,sixeight,,,,,,,,,,,,,,,,,,,,,,,,,,,,,,,,,,,,,,,,,,,,,,,,,,,,,,,,,,,,,,,,,,,,,,,,,,,,,,,,,,,,,,,,,,,,,,,,,,,,,,,,,,,,,,,,,,,,,,,,,,,,,,,,,,,,,,,,,
,,5df6818e2b12bd474abc4c9d,2026-03-17_10h07.41.265,kallum_motion_pilot_GIST_update_2,2026.1.1,Win32,57.80346821,5df6818e2b12bd474abc4c9d,69b95efdef24cd8a694e89ee,69b9601544c9ccd2758c35ad,0.0228,0.0228,1,93,255,14,1,fourtwo,,,,,,,,,,,,,,,,,,,,,,,,,,,,,,,,,,,,,,,,,,,,,,,,,,,,,,,,,,,,,,,,,,,,,,,,,,,,,,,,,,,,,,,,,,,,,,,,,,,,,,,,,,,,,,,,,,,,,,,,,,,,,,,,,,,,,,,,,
,,5df6818e2b12bd474abc4c9d,2026-03-17_10h07.41.265,kallum_motion_pilot_GIST_update_2,2026.1.1,Win32,57.80346821,5df6818e2b12bd474abc4c9d,69b95efdef24cd8a694e89ee,69b9601544c9ccd2758c35ad,0.0229,0.0229,1,94,256,117,1,seveneight,,,,,,,,,,,,,,,,,,,,,,,,,,,,,,,,,,,,,,,,,,,,,,,,,,,,,,,,,,,,,,,,,,,,,,,,,,,,,,,,,,,,,,,,,,,,,,,,,,,,,,,,,,,,,,,,,,,,,,,,,,,,,,,,,,,,,,,,,
,,5df6818e2b12bd474abc4c9d,2026-03-17_10h07.41.265,kallum_motion_pilot_GIST_update_2,2026.1.1,Win32,57.80346821,5df6818e2b12bd474abc4c9d,69b95efdef24cd8a694e89ee,69b9601544c9ccd2758c35ad,0.0229,0.0229,1,95,257,34,1,twoone,,,,,,,,,,,,,,,,,,,,,,,,,,,,,,,,,,,,,,,,,,,,,,,,,,,,,,,,,,,,,,,,,,,,,,,,,,,,,,,,,,,,,,,,,,,,,,,,,,,,,,,,,,,,,,,,,,,,,,,,,,,,,,,,,,,,,,,,,
,,5df6818e2b12bd474abc4c9d,2026-03-17_10h07.41.265,kallum_motion_pilot_GIST_update_2,2026.1.1,Win32,57.80346821,5df6818e2b12bd474abc4c9d,69b95efdef24cd8a694e89ee,69b9601544c9ccd2758c35ad,0.023,0.023,1,96,258,58,1,twoone,,,,,,,,,,,,,,,,,,,,,,,,,,,,,,,,,,,,,,,,,,,,,,,,,,,,,,,,,,,,,,,,,,,,,,,,,,,,,,,,,,,,,,,,,,,,,,,,,,,,,,,,,,,,,,,,,,,,,,,,,,,,,,,,,,,,,,,,,
,,5df6818e2b12bd474abc4c9d,2026-03-17_10h07.41.265,kallum_motion_pilot_GIST_update_2,2026.1.1,Win32,57.80346821,5df6818e2b12bd474abc4c9d,69b95efdef24cd8a694e89ee,69b9601544c9ccd2758c35ad,0.023,0.023,1,97,259,125,1,seveneight,,,,,,,,,,,,,,,,,,,,,,,,,,,,,,,,,,,,,,,,,,,,,,,,,,,,,,,,,,,,,,,,,,,,,,,,,,,,,,,,,,,,,,,,,,,,,,,,,,,,,,,,,,,,,,,,,,,,,,,,,,,,,,,,,,,,,,,,,
,,5df6818e2b12bd474abc4c9d,2026-03-17_10h07.41.265,kallum_motion_pilot_GIST_update_2,2026.1.1,Win32,57.80346821,5df6818e2b12bd474abc4c9d,69b95efdef24cd8a694e89ee,69b9601544c9ccd2758c35ad,0.0231,0.0231,1,98,260,139,1,sixeight,,,,,,,,,,,,,,,,,,,,,,,,,,,,,,,,,,,,,,,,,,,,,,,,,,,,,,,,,,,,,,,,,,,,,,,,,,,,,,,,,,,,,,,,,,,,,,,,,,,,,,,,,,,,,,,,,,,,,,,,,,,,,,,,,,,,,,,,,
,,5df6818e2b12bd474abc4c9d,2026-03-17_10h07.41.265,kallum_motion_pilot_GIST_update_2,2026.1.1,Win32,57.80346821,5df6818e2b12bd474abc4c9d,69b95efdef24cd8a694e89ee,69b9601544c9ccd2758c35ad,0.0231,0.0231,1,99,261,130,1,sixfive,,,,,,,,,,,,,,,,,,,,,,,,,,,,,,,,,,,,,,,,,,,,,,,,,,,,,,,,,,,,,,,,,,,,,,,,,,,,,,,,,,,,,,,,,,,,,,,,,,,,,,,,,,,,,,,,,,,,,,,,,,,,,,,,,,,,,,,,,
,,5df6818e2b12bd474abc4c9d,2026-03-17_10h07.41.265,kallum_motion_pilot_GIST_update_2,2026.1.1,Win32,57.80346821,5df6818e2b12bd474abc4c9d,69b95efdef24cd8a694e89ee,69b9601544c9ccd2758c35ad,0.0231,0.0231,1,100,262,151,1,eightseven,,,,,,,,,,,,,,,,,,,,,,,,,,,,,,,,,,,,,,,,,,,,,,,,,,,,,,,,,,,,,,,,,,,,,,,,,,,,,,,,,,,,,,,,,,,,,,,,,,,,,,,,,,,,,,,,,,,,,,,,,,,,,,,,,,,,,,,,,
,,5df6818e2b12bd474abc4c9d,2026-03-17_10h07.41.265,kallum_motion_pilot_GIST_update_2,2026.1.1,Win32,57.80346821,5df6818e2b12bd474abc4c9d,69b95efdef24cd8a694e89ee,69b9601544c9ccd2758c35ad,0.0232,0.0232,1,101,263,138,1,sixfive,,,,,,,,,,,,,,,,,,,,,,,,,,,,,,,,,,,,,,,,,,,,,,,,,,,,,,,,,,,,,,,,,,,,,,,,,,,,,,,,,,,,,,,,,,,,,,,,,,,,,,,,,,,,,,,,,,,,,,,,,,,,,,,,,,,,,,,,,
,,5df6818e2b12bd474abc4c9d,2026-03-17_10h07.41.265,kallum_motion_pilot_GIST_update_2,2026.1.1,Win32,57.80346821,5df6818e2b12bd474abc4c9d,69b95efdef24cd8a694e89ee,69b9601544c9ccd2758c35ad,0.0233,0.0233,1,102,264,45,1,threefour,,,,,,,,,,,,,,,,,,,,,,,,,,,,,,,,,,,,,,,,,,,,,,,,,,,,,,,,,,,,,,,,,,,,,,,,,,,,,,,,,,,,,,,,,,,,,,,,,,,,,,,,,,,,,,,,,,,,,,,,,,,,,,,,,,,,,,,,,
,,5df6818e2b12bd474abc4c9d,2026-03-17_10h07.41.265,kallum_motion_pilot_GIST_update_2,2026.1.1,Win32,57.80346821,5df6818e2b12bd474abc4c9d,69b95efdef24cd8a694e89ee,69b9601544c9ccd2758c35ad,0.0233,0.0233,1,103,265,159,1,eightseven,,,,,,,,,,,,,,,,,,,,,,,,,,,,,,,,,,,,,,,,,,,,,,,,,,,,,,,,,,,,,,,,,,,,,,,,,,,,,,,,,,,,,,,,,,,,,,,,,,,,,,,,,,,,,,,,,,,,,,,,,,,,,,,,,,,,,,,,,
,,5df6818e2b12bd474abc4c9d,2026-03-17_10h07.41.265,kallum_motion_pilot_GIST_update_2,2026.1.1,Win32,57.80346821,5df6818e2b12bd474abc4c9d,69b95efdef24cd8a694e89ee,69b9601544c9ccd2758c35ad,0.0234,0.0234,1,104,266,9,1,onethree,,,,,,,,,,,,,,,,,,,,,,,,,,,,,,,,,,,,,,,,,,,,,,,,,,,,,,,,,,,,,,,,,,,,,,,,,,,,,,,,,,,,,,,,,,,,,,,,,,,,,,,,,,,,,,,,,,,,,,,,,,,,,,,,,,,,,,,,,
