startup.started,startup.stopped,Prolific ID*,date,expName,psychopyVersion,OS,frameRate,participant,study_id,session,stimpositions.started,stimpositions.stopped,hardcoded_stimulus_positions.thisRepN,hardcoded_stimulus_positions.thisTrialN,hardcoded_stimulus_positions.thisN,hardcoded_stimulus_positions.thisIndex,hardcoded_stimulus_positions.ran,StimulusPos,stimorientation.started,stimorientation.stopped,prac_stimorientation_import_loop.thisRepN,prac_stimorientation_import_loop.thisTrialN,prac_stimorientation_import_loop.thisN,prac_stimorientation_import_loop.thisIndex,prac_stimorientation_import_loop.ran,Stimorientation,welcome_instr.started,welcome_instr.stopped,key_resp.keys,key_resp.rt,key_resp.duration,response_steppedout_1.started,response_steppedout_1.stopped,key_resp_20.keys,key_resp_20.rt,key_resp_20.duration,response_steppedout_2.started,response_steppedout_2.stopped,key_resp_19.keys,key_resp_19.rt,key_resp_19.duration,stim_response_instr.started,stim_response_instr.stopped,key_resp_15.keys,key_resp_15.rt,key_resp_15.duration,direction_instr_2.started,direction_instr_2.stopped,key_resp_9.keys,key_resp_9.rt,key_resp_9.duration,instr_prac.started,instr_prac.stopped,key_resp_10.keys,key_resp_10.rt,key_resp_10.duration,Stim1_display_prac.started,Stim1_display_prac.stopped,Ecc,Circle1_ori,Circle2_ori,response_prac.started,similarity,response_time,response_prac.stopped,mouse_5.x,mouse_5.y,mouse_5.leftButton,mouse_5.midButton,mouse_5.rightButton,mouse_5.clicked_name,responseprac_feedback.started,responseprac_feedback.stopped,summary2_prac.started,summary2_prac.stopped,mouse_6.x,mouse_6.y,mouse_6.leftButton,mouse_6.midButton,mouse_6.rightButton,mouse_6.clicked_name,duringprac.thisRepN,duringprac.thisTrialN,duringprac.thisN,duringprac.thisIndex,duringprac.ran,begin.started,begin.stopped,key_resp_22.keys,key_resp_22.rt,key_resp_22.duration,Stim1_display.started,Stim1_display.stopped,circle1_ori,circle2_ori,circle1_SF,circle2_SF,response.started,response.stopped,mouse.x,mouse.y,mouse.leftButton,mouse.midButton,mouse.rightButton,mouse.clicked_name,trialnumber,double_pass.thisRepN,double_pass.thisTrialN,double_pass.thisN,double_pass.thisIndex,double_pass.ran,double_pass.order,main_trial.thisRepN,main_trial.thisTrialN,main_trial.thisN,main_trial.thisIndex,main_trial.ran,main_trial.order,Trial_Counter,Catch,Frequencies,response_2.started,response_2.stopped,mouse_2.x,mouse_2.y,mouse_2.leftButton,mouse_2.midButton,mouse_2.rightButton,mouse_2.clicked_name,special_trial.started,special_trial.stopped,catch_1.started,catch_1.stopped,mouse_3.x,mouse_3.y,mouse_3.leftButton,mouse_3.midButton,mouse_3.rightButton,catchresponse,catchnumber,response_time_catch,response_sum.started,response_sum.stopped,mouse_11.x,mouse_11.y,mouse_11.leftButton,mouse_11.midButton,mouse_11.rightButton,flip_presentation_sequence_for_double_pass.started,flip_presentation_sequence_for_double_pass.stopped,goodbye.started,goodbye.stopped,key_resp_3.keys,key_resp_3.rt,key_resp_3.duration
0.0002,0.0003,5e38397719e44f0244389781,2026-03-17_11h24.59.976,kallum_motion_pilot_GIST_update_2,2026.1.1,Win32,59.52380952,5e38397719e44f0244389781,69b95efdef24cd8a694e89ee,69b963213b545e6327246fb0,,,,,,,,,,,,,,,,,,,,,,,,,,,,,,,,,,,,,,,,,,,,,,,,,,,,,,,,,,,,,,,,,,,,,,,,,,,,,,,,,,,,,,,,,,,,,,,,,,,,,,,,,,,,,,,,,,,,,,,,,,,,,,,,,,,,,,,,,,,,,,,,,
,,5e38397719e44f0244389781,2026-03-17_11h24.59.976,kallum_motion_pilot_GIST_update_2,2026.1.1,Win32,59.52380952,5e38397719e44f0244389781,69b95efdef24cd8a694e89ee,69b963213b545e6327246fb0,0.0169,0.0169,0,0,0,18,1,twoone,,,,,,,,,,,,,,,,,,,,,,,,,,,,,,,,,,,,,,,,,,,,,,,,,,,,,,,,,,,,,,,,,,,,,,,,,,,,,,,,,,,,,,,,,,,,,,,,,,,,,,,,,,,,,,,,,,,,,,,,,,,,,,,,,,,,,,,,,
,,5e38397719e44f0244389781,2026-03-17_11h24.59.976,kallum_motion_pilot_GIST_update_2,2026.1.1,Win32,59.52380952,5e38397719e44f0244389781,69b95efdef24cd8a694e89ee,69b963213b545e6327246fb0,0.0171,0.0171,0,1,1,110,1,eightsix,,,,,,,,,,,,,,,,,,,,,,,,,,,,,,,,,,,,,,,,,,,,,,,,,,,,,,,,,,,,,,,,,,,,,,,,,,,,,,,,,,,,,,,,,,,,,,,,,,,,,,,,,,,,,,,,,,,,,,,,,,,,,,,,,,,,,,,,,
,,5e38397719e44f0244389781,2026-03-17_11h24.59.976,kallum_motion_pilot_GIST_update_2,2026.1.1,Win32,59.52380952,5e38397719e44f0244389781,69b95efdef24cd8a694e89ee,69b963213b545e6327246fb0,0.0172,0.0172,0,2,2,138,1,sixfive,,,,,,,,,,,,,,,,,,,,,,,,,,,,,,,,,,,,,,,,,,,,,,,,,,,,,,,,,,,,,,,,,,,,,,,,,,,,,,,,,,,,,,,,,,,,,,,,,,,,,,,,,,,,,,,,,,,,,,,,,,,,,,,,,,,,,,,,,
,,5e38397719e44f0244389781,2026-03-17_11h24.59.976,kallum_motion_pilot_GIST_update_2,2026.1.1,Win32,59.52380952,5e38397719e44f0244389781,69b95efdef24cd8a694e89ee,69b963213b545e6327246fb0,0.0173,0.0173,0,3,3,108,1,sevenfive,,,,,,,,,,,,,,,,,,,,,,,,,,,,,,,,,,,,,,,,,,,,,,,,,,,,,,,,,,,,,,,,,,,,,,,,,,,,,,,,,,,,,,,,,,,,,,,,,,,,,,,,,,,,,,,,,,,,,,,,,,,,,,,,,,,,,,,,,
,,5e38397719e44f0244389781,2026-03-17_11h24.59.976,kallum_motion_pilot_GIST_update_2,2026.1.1,Win32,59.52380952,5e38397719e44f0244389781,69b95efdef24cd8a694e89ee,69b963213b545e6327246fb0,0.0174,0.0174,0,4,4,2,1,twoone,,,,,,,,,,,,,,,,,,,,,,,,,,,,,,,,,,,,,,,,,,,,,,,,,,,,,,,,,,,,,,,,,,,,,,,,,,,,,,,,,,,,,,,,,,,,,,,,,,,,,,,,,,,,,,,,,,,,,,,,,,,,,,,,,,,,,,,,,
,,5e38397719e44f0244389781,2026-03-17_11h24.59.976,kallum_motion_pilot_GIST_update_2,2026.1.1,Win32,59.52380952,5e38397719e44f0244389781,69b95efdef24cd8a694e89ee,69b963213b545e6327246fb0,0.0174,0.0174,0,5,5,79,1,eightseven,,,,,,,,,,,,,,,,,,,,,,,,,,,,,,,,,,,,,,,,,,,,,,,,,,,,,,,,,,,,,,,,,,,,,,,,,,,,,,,,,,,,,,,,,,,,,,,,,,,,,,,,,,,,,,,,,,,,,,,,,,,,,,,,,,,,,,,,,
,,5e38397719e44f0244389781,2026-03-17_11h24.59.976,kallum_motion_pilot_GIST_update_2,2026.1.1,Win32,59.52380952,5e38397719e44f0244389781,69b95efdef24cd8a694e89ee,69b963213b545e6327246fb0,0.0174,0.0174,0,6,6,58,1,twoone,,,,,,,,,,,,,,,,,,,,,,,,,,,,,,,,,,,,,,,,,,,,,,,,,,,,,,,,,,,,,,,,,,,,,,,,,,,,,,,,,,,,,,,,,,,,,,,,,,,,,,,,,,,,,,,,,,,,,,,,,,,,,,,,,,,,,,,,,
,,5e38397719e44f0244389781,2026-03-17_11h24.59.976,kallum_motion_pilot_GIST_update_2,2026.1.1,Win32,59.52380952,5e38397719e44f0244389781,69b95efdef24cd8a694e89ee,69b963213b545e6327246fb0,0.0175,0.0175,0,7,7,106,1,sixfive,,,,,,,,,,,,,,,,,,,,,,,,,,,,,,,,,,,,,,,,,,,,,,,,,,,,,,,,,,,,,,,,,,,,,,,,,,,,,,,,,,,,,,,,,,,,,,,,,,,,,,,,,,,,,,,,,,,,,,,,,,,,,,,,,,,,,,,,,
,,5e38397719e44f0244389781,2026-03-17_11h24.59.976,kallum_motion_pilot_GIST_update_2,2026.1.1,Win32,59.52380952,5e38397719e44f0244389781,69b95efdef24cd8a694e89ee,69b963213b545e6327246fb0,0.0176,0.0176,0,8,8,60,1,threeone,,,,,,,,,,,,,,,,,,,,,,,,,,,,,,,,,,,,,,,,,,,,,,,,,,,,,,,,,,,,,,,,,,,,,,,,,,,,,,,,,,,,,,,,,,,,,,,,,,,,,,,,,,,,,,,,,,,,,,,,,,,,,,,,,,,,,,,,,
,,5e38397719e44f0244389781,2026-03-17_11h24.59.976,kallum_motion_pilot_GIST_update_2,2026.1.1,Win32,59.52380952,5e38397719e44f0244389781,69b95efdef24cd8a694e89ee,69b963213b545e6327246fb0,0.0177,0.0177,0,9,9,22,1,fourtwo,,,,,,,,,,,,,,,,,,,,,,,,,,,,,,,,,,,,,,,,,,,,,,,,,,,,,,,,,,,,,,,,,,,,,,,,,,,,,,,,,,,,,,,,,,,,,,,,,,,,,,,,,,,,,,,,,,,,,,,,,,,,,,,,,,,,,,,,,
,,5e38397719e44f0244389781,2026-03-17_11h24.59.976,kallum_motion_pilot_GIST_update_2,2026.1.1,Win32,59.52380952,5e38397719e44f0244389781,69b95efdef24cd8a694e89ee,69b963213b545e6327246fb0,0.0177,0.0177,0,10,10,85,1,seveneight,,,,,,,,,,,,,,,,,,,,,,,,,,,,,,,,,,,,,,,,,,,,,,,,,,,,,,,,,,,,,,,,,,,,,,,,,,,,,,,,,,,,,,,,,,,,,,,,,,,,,,,,,,,,,,,,,,,,,,,,,,,,,,,,,,,,,,,,,
,,5e38397719e44f0244389781,2026-03-17_11h24.59.976,kallum_motion_pilot_GIST_update_2,2026.1.1,Win32,59.52380952,5e38397719e44f0244389781,69b95efdef24cd8a694e89ee,69b963213b545e6327246fb0,0.0178,0.0178,0,11,11,28,1,threeone,,,,,,,,,,,,,,,,,,,,,,,,,,,,,,,,,,,,,,,,,,,,,,,,,,,,,,,,,,,,,,,,,,,,,,,,,,,,,,,,,,,,,,,,,,,,,,,,,,,,,,,,,,,,,,,,,,,,,,,,,,,,,,,,,,,,,,,,,
,,5e38397719e44f0244389781,2026-03-17_11h24.59.976,kallum_motion_pilot_GIST_update_2,2026.1.1,Win32,59.52380952,5e38397719e44f0244389781,69b95efdef24cd8a694e89ee,69b963213b545e6327246fb0,0.0178,0.0178,0,12,12,148,1,sevenfive,,,,,,,,,,,,,,,,,,,,,,,,,,,,,,,,,,,,,,,,,,,,,,,,,,,,,,,,,,,,,,,,,,,,,,,,,,,,,,,,,,,,,,,,,,,,,,,,,,,,,,,,,,,,,,,,,,,,,,,,,,,,,,,,,,,,,,,,,
,,5e38397719e44f0244389781,2026-03-17_11h24.59.976,kallum_motion_pilot_GIST_update_2,2026.1.1,Win32,59.52380952,5e38397719e44f0244389781,69b95efdef24cd8a694e89ee,69b963213b545e6327246fb0,0.0179,0.0179,0,13,13,53,1,threefour,,,,,,,,,,,,,,,,,,,,,,,,,,,,,,,,,,,,,,,,,,,,,,,,,,,,,,,,,,,,,,,,,,,,,,,,,,,,,,,,,,,,,,,,,,,,,,,,,,,,,,,,,,,,,,,,,,,,,,,,,,,,,,,,,,,,,,,,,
,,5e38397719e44f0244389781,2026-03-17_11h24.59.976,kallum_motion_pilot_GIST_update_2,2026.1.1,Win32,59.52380952,5e38397719e44f0244389781,69b95efdef24cd8a694e89ee,69b963213b545e6327246fb0,0.018,0.018,0,14,14,69,1,threefour,,,,,,,,,,,,,,,,,,,,,,,,,,,,,,,,,,,,,,,,,,,,,,,,,,,,,,,,,,,,,,,,,,,,,,,,,,,,,,,,,,,,,,,,,,,,,,,,,,,,,,,,,,,,,,,,,,,,,,,,,,,,,,,,,,,,,,,,,
,,5e38397719e44f0244389781,2026-03-17_11h24.59.976,kallum_motion_pilot_GIST_update_2,2026.1.1,Win32,59.52380952,5e38397719e44f0244389781,69b95efdef24cd8a694e89ee,69b963213b545e6327246fb0,0.018,0.018,0,15,15,109,1,seveneight,,,,,,,,,,,,,,,,,,,,,,,,,,,,,,,,,,,,,,,,,,,,,,,,,,,,,,,,,,,,,,,,,,,,,,,,,,,,,,,,,,,,,,,,,,,,,,,,,,,,,,,,,,,,,,,,,,,,,,,,,,,,,,,,,,,,,,,,,
,,5e38397719e44f0244389781,2026-03-17_11h24.59.976,kallum_motion_pilot_GIST_update_2,2026.1.1,Win32,59.52380952,5e38397719e44f0244389781,69b95efdef24cd8a694e89ee,69b963213b545e6327246fb0,0.018,0.018,0,16,16,73,1,onethree,,,,,,,,,,,,,,,,,,,,,,,,,,,,,,,,,,,,,,,,,,,,,,,,,,,,,,,,,,,,,,,,,,,,,,,,,,,,,,,,,,,,,,,,,,,,,,,,,,,,,,,,,,,,,,,,,,,,,,,,,,,,,,,,,,,,,,,,,
,,5e38397719e44f0244389781,2026-03-17_11h24.59.976,kallum_motion_pilot_GIST_update_2,2026.1.1,Win32,59.52380952,5e38397719e44f0244389781,69b95efdef24cd8a694e89ee,69b963213b545e6327246fb0,0.0181,0.0181,0,17,17,144,1,fivesix,,,,,,,,,,,,,,,,,,,,,,,,,,,,,,,,,,,,,,,,,,,,,,,,,,,,,,,,,,,,,,,,,,,,,,,,,,,,,,,,,,,,,,,,,,,,,,,,,,,,,,,,,,,,,,,,,,,,,,,,,,,,,,,,,,,,,,,,,
,,5e38397719e44f0244389781,2026-03-17_11h24.59.976,kallum_motion_pilot_GIST_update_2,2026.1.1,Win32,59.52380952,5e38397719e44f0244389781,69b95efdef24cd8a694e89ee,69b963213b545e6327246fb0,0.0181,0.0182,0,18,18,130,1,sixfive,,,,,,,,,,,,,,,,,,,,,,,,,,,,,,,,,,,,,,,,,,,,,,,,,,,,,,,,,,,,,,,,,,,,,,,,,,,,,,,,,,,,,,,,,,,,,,,,,,,,,,,,,,,,,,,,,,,,,,,,,,,,,,,,,,,,,,,,,
,,5e38397719e44f0244389781,2026-03-17_11h24.59.976,kallum_motion_pilot_GIST_update_2,2026.1.1,Win32,59.52380952,5e38397719e44f0244389781,69b95efdef24cd8a694e89ee,69b963213b545e6327246fb0,0.0183,0.0183,0,19,19,99,1,sixeight,,,,,,,,,,,,,,,,,,,,,,,,,,,,,,,,,,,,,,,,,,,,,,,,,,,,,,,,,,,,,,,,,,,,,,,,,,,,,,,,,,,,,,,,,,,,,,,,,,,,,,,,,,,,,,,,,,,,,,,,,,,,,,,,,,,,,,,,,
,,5e38397719e44f0244389781,2026-03-17_11h24.59.976,kallum_motion_pilot_GIST_update_2,2026.1.1,Win32,59.52380952,5e38397719e44f0244389781,69b95efdef24cd8a694e89ee,69b963213b545e6327246fb0,0.0183,0.0183,0,20,20,77,1,threefour,,,,,,,,,,,,,,,,,,,,,,,,,,,,,,,,,,,,,,,,,,,,,,,,,,,,,,,,,,,,,,,,,,,,,,,,,,,,,,,,,,,,,,,,,,,,,,,,,,,,,,,,,,,,,,,,,,,,,,,,,,,,,,,,,,,,,,,,,
,,5e38397719e44f0244389781,2026-03-17_11h24.59.976,kallum_motion_pilot_GIST_update_2,2026.1.1,Win32,59.52380952,5e38397719e44f0244389781,69b95efdef24cd8a694e89ee,69b963213b545e6327246fb0,0.0183,0.0183,0,21,21,142,1,eightsix,,,,,,,,,,,,,,,,,,,,,,,,,,,,,,,,,,,,,,,,,,,,,,,,,,,,,,,,,,,,,,,,,,,,,,,,,,,,,,,,,,,,,,,,,,,,,,,,,,,,,,,,,,,,,,,,,,,,,,,,,,,,,,,,,,,,,,,,,
,,5e38397719e44f0244389781,2026-03-17_11h24.59.976,kallum_motion_pilot_GIST_update_2,2026.1.1,Win32,59.52380952,5e38397719e44f0244389781,69b95efdef24cd8a694e89ee,69b963213b545e6327246fb0,0.0184,0.0184,0,22,22,87,1,eightseven,,,,,,,,,,,,,,,,,,,,,,,,,,,,,,,,,,,,,,,,,,,,,,,,,,,,,,,,,,,,,,,,,,,,,,,,,,,,,,,,,,,,,,,,,,,,,,,,,,,,,,,,,,,,,,,,,,,,,,,,,,,,,,,,,,,,,,,,,
,,5e38397719e44f0244389781,2026-03-17_11h24.59.976,kallum_motion_pilot_GIST_update_2,2026.1.1,Win32,59.52380952,5e38397719e44f0244389781,69b95efdef24cd8a694e89ee,69b963213b545e6327246fb0,0.0185,0.0185,0,23,23,23,1,fourthree,,,,,,,,,,,,,,,,,,,,,,,,,,,,,,,,,,,,,,,,,,,,,,,,,,,,,,,,,,,,,,,,,,,,,,,,,,,,,,,,,,,,,,,,,,,,,,,,,,,,,,,,,,,,,,,,,,,,,,,,,,,,,,,,,,,,,,,,,
,,5e38397719e44f0244389781,2026-03-17_11h24.59.976,kallum_motion_pilot_GIST_update_2,2026.1.1,Win32,59.52380952,5e38397719e44f0244389781,69b95efdef24cd8a694e89ee,69b963213b545e6327246fb0,0.0185,0.0185,0,24,24,27,1,twofour,,,,,,,,,,,,,,,,,,,,,,,,,,,,,,,,,,,,,,,,,,,,,,,,,,,,,,,,,,,,,,,,,,,,,,,,,,,,,,,,,,,,,,,,,,,,,,,,,,,,,,,,,,,,,,,,,,,,,,,,,,,,,,,,,,,,,,,,,
,,5e38397719e44f0244389781,2026-03-17_11h24.59.976,kallum_motion_pilot_GIST_update_2,2026.1.1,Win32,59.52380952,5e38397719e44f0244389781,69b95efdef24cd8a694e89ee,69b963213b545e6327246fb0,0.0186,0.0186,0,25,25,160,1,fivesix,,,,,,,,,,,,,,,,,,,,,,,,,,,,,,,,,,,,,,,,,,,,,,,,,,,,,,,,,,,,,,,,,,,,,,,,,,,,,,,,,,,,,,,,,,,,,,,,,,,,,,,,,,,,,,,,,,,,,,,,,,,,,,,,,,,,,,,,,
,,5e38397719e44f0244389781,2026-03-17_11h24.59.976,kallum_motion_pilot_GIST_update_2,2026.1.1,Win32,59.52380952,5e38397719e44f0244389781,69b95efdef24cd8a694e89ee,69b963213b545e6327246fb0,0.0186,0.0186,0,26,26,1,1,onethree,,,,,,,,,,,,,,,,,,,,,,,,,,,,,,,,,,,,,,,,,,,,,,,,,,,,,,,,,,,,,,,,,,,,,,,,,,,,,,,,,,,,,,,,,,,,,,,,,,,,,,,,,,,,,,,,,,,,,,,,,,,,,,,,,,,,,,,,,
,,5e38397719e44f0244389781,2026-03-17_11h24.59.976,kallum_motion_pilot_GIST_update_2,2026.1.1,Win32,59.52380952,5e38397719e44f0244389781,69b95efdef24cd8a694e89ee,69b963213b545e6327246fb0,0.0186,0.0186,0,27,27,146,1,sixfive,,,,,,,,,,,,,,,,,,,,,,,,,,,,,,,,,,,,,,,,,,,,,,,,,,,,,,,,,,,,,,,,,,,,,,,,,,,,,,,,,,,,,,,,,,,,,,,,,,,,,,,,,,,,,,,,,,,,,,,,,,,,,,,,,,,,,,,,,
,,5e38397719e44f0244389781,2026-03-17_11h24.59.976,kallum_motion_pilot_GIST_update_2,2026.1.1,Win32,59.52380952,5e38397719e44f0244389781,69b95efdef24cd8a694e89ee,69b963213b545e6327246fb0,0.0187,0.0187,0,28,28,129,1,fiveseven,,,,,,,,,,,,,,,,,,,,,,,,,,,,,,,,,,,,,,,,,,,,,,,,,,,,,,,,,,,,,,,,,,,,,,,,,,,,,,,,,,,,,,,,,,,,,,,,,,,,,,,,,,,,,,,,,,,,,,,,,,,,,,,,,,,,,,,,,
,,5e38397719e44f0244389781,2026-03-17_11h24.59.976,kallum_motion_pilot_GIST_update_2,2026.1.1,Win32,59.52380952,5e38397719e44f0244389781,69b95efdef24cd8a694e89ee,69b963213b545e6327246fb0,0.0188,0.0188,0,29,29,90,1,sixfive,,,,,,,,,,,,,,,,,,,,,,,,,,,,,,,,,,,,,,,,,,,,,,,,,,,,,,,,,,,,,,,,,,,,,,,,,,,,,,,,,,,,,,,,,,,,,,,,,,,,,,,,,,,,,,,,,,,,,,,,,,,,,,,,,,,,,,,,,
,,5e38397719e44f0244389781,2026-03-17_11h24.59.976,kallum_motion_pilot_GIST_update_2,2026.1.1,Win32,59.52380952,5e38397719e44f0244389781,69b95efdef24cd8a694e89ee,69b963213b545e6327246fb0,0.0189,0.0189,0,30,30,102,1,eightsix,,,,,,,,,,,,,,,,,,,,,,,,,,,,,,,,,,,,,,,,,,,,,,,,,,,,,,,,,,,,,,,,,,,,,,,,,,,,,,,,,,,,,,,,,,,,,,,,,,,,,,,,,,,,,,,,,,,,,,,,,,,,,,,,,,,,,,,,,
,,5e38397719e44f0244389781,2026-03-17_11h24.59.976,kallum_motion_pilot_GIST_update_2,2026.1.1,Win32,59.52380952,5e38397719e44f0244389781,69b95efdef24cd8a694e89ee,69b963213b545e6327246fb0,0.019,0.019,0,31,31,103,1,eightseven,,,,,,,,,,,,,,,,,,,,,,,,,,,,,,,,,,,,,,,,,,,,,,,,,,,,,,,,,,,,,,,,,,,,,,,,,,,,,,,,,,,,,,,,,,,,,,,,,,,,,,,,,,,,,,,,,,,,,,,,,,,,,,,,,,,,,,,,,
,,5e38397719e44f0244389781,2026-03-17_11h24.59.976,kallum_motion_pilot_GIST_update_2,2026.1.1,Win32,59.52380952,5e38397719e44f0244389781,69b95efdef24cd8a694e89ee,69b963213b545e6327246fb0,0.019,0.019,0,32,32,101,1,seveneight,,,,,,,,,,,,,,,,,,,,,,,,,,,,,,,,,,,,,,,,,,,,,,,,,,,,,,,,,,,,,,,,,,,,,,,,,,,,,,,,,,,,,,,,,,,,,,,,,,,,,,,,,,,,,,,,,,,,,,,,,,,,,,,,,,,,,,,,,
,,5e38397719e44f0244389781,2026-03-17_11h24.59.976,kallum_motion_pilot_GIST_update_2,2026.1.1,Win32,59.52380952,5e38397719e44f0244389781,69b95efdef24cd8a694e89ee,69b963213b545e6327246fb0,0.0191,0.0191,0,33,33,45,1,threefour,,,,,,,,,,,,,,,,,,,,,,,,,,,,,,,,,,,,,,,,,,,,,,,,,,,,,,,,,,,,,,,,,,,,,,,,,,,,,,,,,,,,,,,,,,,,,,,,,,,,,,,,,,,,,,,,,,,,,,,,,,,,,,,,,,,,,,,,,
,,5e38397719e44f0244389781,2026-03-17_11h24.59.976,kallum_motion_pilot_GIST_update_2,2026.1.1,Win32,59.52380952,5e38397719e44f0244389781,69b95efdef24cd8a694e89ee,69b963213b545e6327246fb0,0.0191,0.0191,0,34,34,150,1,eightsix,,,,,,,,,,,,,,,,,,,,,,,,,,,,,,,,,,,,,,,,,,,,,,,,,,,,,,,,,,,,,,,,,,,,,,,,,,,,,,,,,,,,,,,,,,,,,,,,,,,,,,,,,,,,,,,,,,,,,,,,,,,,,,,,,,,,,,,,,
,,5e38397719e44f0244389781,2026-03-17_11h24.59.976,kallum_motion_pilot_GIST_update_2,2026.1.1,Win32,59.52380952,5e38397719e44f0244389781,69b95efdef24cd8a694e89ee,69b963213b545e6327246fb0,0.0191,0.0191,0,35,35,16,1,onetwo,,,,,,,,,,,,,,,,,,,,,,,,,,,,,,,,,,,,,,,,,,,,,,,,,,,,,,,,,,,,,,,,,,,,,,,,,,,,,,,,,,,,,,,,,,,,,,,,,,,,,,,,,,,,,,,,,,,,,,,,,,,,,,,,,,,,,,,,,
,,5e38397719e44f0244389781,2026-03-17_11h24.59.976,kallum_motion_pilot_GIST_update_2,2026.1.1,Win32,59.52380952,5e38397719e44f0244389781,69b95efdef24cd8a694e89ee,69b963213b545e6327246fb0,0.0193,0.0193,0,36,36,155,1,sixeight,,,,,,,,,,,,,,,,,,,,,,,,,,,,,,,,,,,,,,,,,,,,,,,,,,,,,,,,,,,,,,,,,,,,,,,,,,,,,,,,,,,,,,,,,,,,,,,,,,,,,,,,,,,,,,,,,,,,,,,,,,,,,,,,,,,,,,,,,
,,5e38397719e44f0244389781,2026-03-17_11h24.59.976,kallum_motion_pilot_GIST_update_2,2026.1.1,Win32,59.52380952,5e38397719e44f0244389781,69b95efdef24cd8a694e89ee,69b963213b545e6327246fb0,0.0193,0.0193,0,37,37,49,1,onethree,,,,,,,,,,,,,,,,,,,,,,,,,,,,,,,,,,,,,,,,,,,,,,,,,,,,,,,,,,,,,,,,,,,,,,,,,,,,,,,,,,,,,,,,,,,,,,,,,,,,,,,,,,,,,,,,,,,,,,,,,,,,,,,,,,,,,,,,,
,,5e38397719e44f0244389781,2026-03-17_11h24.59.976,kallum_motion_pilot_GIST_update_2,2026.1.1,Win32,59.52380952,5e38397719e44f0244389781,69b95efdef24cd8a694e89ee,69b963213b545e6327246fb0,0.0194,0.0194,0,38,38,48,1,onetwo,,,,,,,,,,,,,,,,,,,,,,,,,,,,,,,,,,,,,,,,,,,,,,,,,,,,,,,,,,,,,,,,,,,,,,,,,,,,,,,,,,,,,,,,,,,,,,,,,,,,,,,,,,,,,,,,,,,,,,,,,,,,,,,,,,,,,,,,,
,,5e38397719e44f0244389781,2026-03-17_11h24.59.976,kallum_motion_pilot_GIST_update_2,2026.1.1,Win32,59.52380952,5e38397719e44f0244389781,69b95efdef24cd8a694e89ee,69b963213b545e6327246fb0,0.0194,0.0194,0,39,39,114,1,sixfive,,,,,,,,,,,,,,,,,,,,,,,,,,,,,,,,,,,,,,,,,,,,,,,,,,,,,,,,,,,,,,,,,,,,,,,,,,,,,,,,,,,,,,,,,,,,,,,,,,,,,,,,,,,,,,,,,,,,,,,,,,,,,,,,,,,,,,,,,
,,5e38397719e44f0244389781,2026-03-17_11h24.59.976,kallum_motion_pilot_GIST_update_2,2026.1.1,Win32,59.52380952,5e38397719e44f0244389781,69b95efdef24cd8a694e89ee,69b963213b545e6327246fb0,0.0194,0.0195,0,40,40,94,1,eightsix,,,,,,,,,,,,,,,,,,,,,,,,,,,,,,,,,,,,,,,,,,,,,,,,,,,,,,,,,,,,,,,,,,,,,,,,,,,,,,,,,,,,,,,,,,,,,,,,,,,,,,,,,,,,,,,,,,,,,,,,,,,,,,,,,,,,,,,,,
,,5e38397719e44f0244389781,2026-03-17_11h24.59.976,kallum_motion_pilot_GIST_update_2,2026.1.1,Win32,59.52380952,5e38397719e44f0244389781,69b95efdef24cd8a694e89ee,69b963213b545e6327246fb0,0.0196,0.0196,0,41,41,57,1,onethree,,,,,,,,,,,,,,,,,,,,,,,,,,,,,,,,,,,,,,,,,,,,,,,,,,,,,,,,,,,,,,,,,,,,,,,,,,,,,,,,,,,,,,,,,,,,,,,,,,,,,,,,,,,,,,,,,,,,,,,,,,,,,,,,,,,,,,,,,
,,5e38397719e44f0244389781,2026-03-17_11h24.59.976,kallum_motion_pilot_GIST_update_2,2026.1.1,Win32,59.52380952,5e38397719e44f0244389781,69b95efdef24cd8a694e89ee,69b963213b545e6327246fb0,0.0196,0.0196,0,42,42,153,1,fiveseven,,,,,,,,,,,,,,,,,,,,,,,,,,,,,,,,,,,,,,,,,,,,,,,,,,,,,,,,,,,,,,,,,,,,,,,,,,,,,,,,,,,,,,,,,,,,,,,,,,,,,,,,,,,,,,,,,,,,,,,,,,,,,,,,,,,,,,,,,
,,5e38397719e44f0244389781,2026-03-17_11h24.59.976,kallum_motion_pilot_GIST_update_2,2026.1.1,Win32,59.52380952,5e38397719e44f0244389781,69b95efdef24cd8a694e89ee,69b963213b545e6327246fb0,0.0197,0.0197,0,43,43,47,1,fourthree,,,,,,,,,,,,,,,,,,,,,,,,,,,,,,,,,,,,,,,,,,,,,,,,,,,,,,,,,,,,,,,,,,,,,,,,,,,,,,,,,,,,,,,,,,,,,,,,,,,,,,,,,,,,,,,,,,,,,,,,,,,,,,,,,,,,,,,,,
,,5e38397719e44f0244389781,2026-03-17_11h24.59.976,kallum_motion_pilot_GIST_update_2,2026.1.1,Win32,59.52380952,5e38397719e44f0244389781,69b95efdef24cd8a694e89ee,69b963213b545e6327246fb0,0.0198,0.0198,0,44,44,140,1,sevenfive,,,,,,,,,,,,,,,,,,,,,,,,,,,,,,,,,,,,,,,,,,,,,,,,,,,,,,,,,,,,,,,,,,,,,,,,,,,,,,,,,,,,,,,,,,,,,,,,,,,,,,,,,,,,,,,,,,,,,,,,,,,,,,,,,,,,,,,,,
,,5e38397719e44f0244389781,2026-03-17_11h24.59.976,kallum_motion_pilot_GIST_update_2,2026.1.1,Win32,59.52380952,5e38397719e44f0244389781,69b95efdef24cd8a694e89ee,69b963213b545e6327246fb0,0.0198,0.0198,0,45,45,113,1,fiveseven,,,,,,,,,,,,,,,,,,,,,,,,,,,,,,,,,,,,,,,,,,,,,,,,,,,,,,,,,,,,,,,,,,,,,,,,,,,,,,,,,,,,,,,,,,,,,,,,,,,,,,,,,,,,,,,,,,,,,,,,,,,,,,,,,,,,,,,,,
,,5e38397719e44f0244389781,2026-03-17_11h24.59.976,kallum_motion_pilot_GIST_update_2,2026.1.1,Win32,59.52380952,5e38397719e44f0244389781,69b95efdef24cd8a694e89ee,69b963213b545e6327246fb0,0.0198,0.0198,0,46,46,38,1,fourtwo,,,,,,,,,,,,,,,,,,,,,,,,,,,,,,,,,,,,,,,,,,,,,,,,,,,,,,,,,,,,,,,,,,,,,,,,,,,,,,,,,,,,,,,,,,,,,,,,,,,,,,,,,,,,,,,,,,,,,,,,,,,,,,,,,,,,,,,,,
,,5e38397719e44f0244389781,2026-03-17_11h24.59.976,kallum_motion_pilot_GIST_update_2,2026.1.1,Win32,59.52380952,5e38397719e44f0244389781,69b95efdef24cd8a694e89ee,69b963213b545e6327246fb0,0.0199,0.0199,0,47,47,32,1,onetwo,,,,,,,,,,,,,,,,,,,,,,,,,,,,,,,,,,,,,,,,,,,,,,,,,,,,,,,,,,,,,,,,,,,,,,,,,,,,,,,,,,,,,,,,,,,,,,,,,,,,,,,,,,,,,,,,,,,,,,,,,,,,,,,,,,,,,,,,,
,,5e38397719e44f0244389781,2026-03-17_11h24.59.976,kallum_motion_pilot_GIST_update_2,2026.1.1,Win32,59.52380952,5e38397719e44f0244389781,69b95efdef24cd8a694e89ee,69b963213b545e6327246fb0,0.02,0.02,0,48,48,96,1,fivesix,,,,,,,,,,,,,,,,,,,,,,,,,,,,,,,,,,,,,,,,,,,,,,,,,,,,,,,,,,,,,,,,,,,,,,,,,,,,,,,,,,,,,,,,,,,,,,,,,,,,,,,,,,,,,,,,,,,,,,,,,,,,,,,,,,,,,,,,,
,,5e38397719e44f0244389781,2026-03-17_11h24.59.976,kallum_motion_pilot_GIST_update_2,2026.1.1,Win32,59.52380952,5e38397719e44f0244389781,69b95efdef24cd8a694e89ee,69b963213b545e6327246fb0,0.0201,0.0201,0,49,49,134,1,eightsix,,,,,,,,,,,,,,,,,,,,,,,,,,,,,,,,,,,,,,,,,,,,,,,,,,,,,,,,,,,,,,,,,,,,,,,,,,,,,,,,,,,,,,,,,,,,,,,,,,,,,,,,,,,,,,,,,,,,,,,,,,,,,,,,,,,,,,,,,
,,5e38397719e44f0244389781,2026-03-17_11h24.59.976,kallum_motion_pilot_GIST_update_2,2026.1.1,Win32,59.52380952,5e38397719e44f0244389781,69b95efdef24cd8a694e89ee,69b963213b545e6327246fb0,0.0201,0.0201,0,50,50,121,1,fiveseven,,,,,,,,,,,,,,,,,,,,,,,,,,,,,,,,,,,,,,,,,,,,,,,,,,,,,,,,,,,,,,,,,,,,,,,,,,,,,,,,,,,,,,,,,,,,,,,,,,,,,,,,,,,,,,,,,,,,,,,,,,,,,,,,,,,,,,,,,
,,5e38397719e44f0244389781,2026-03-17_11h24.59.976,kallum_motion_pilot_GIST_update_2,2026.1.1,Win32,59.52380952,5e38397719e44f0244389781,69b95efdef24cd8a694e89ee,69b963213b545e6327246fb0,0.0202,0.0202,0,51,51,82,1,sixfive,,,,,,,,,,,,,,,,,,,,,,,,,,,,,,,,,,,,,,,,,,,,,,,,,,,,,,,,,,,,,,,,,,,,,,,,,,,,,,,,,,,,,,,,,,,,,,,,,,,,,,,,,,,,,,,,,,,,,,,,,,,,,,,,,,,,,,,,,
,,5e38397719e44f0244389781,2026-03-17_11h24.59.976,kallum_motion_pilot_GIST_update_2,2026.1.1,Win32,59.52380952,5e38397719e44f0244389781,69b95efdef24cd8a694e89ee,69b963213b545e6327246fb0,0.0202,0.0203,0,52,52,151,1,eightseven,,,,,,,,,,,,,,,,,,,,,,,,,,,,,,,,,,,,,,,,,,,,,,,,,,,,,,,,,,,,,,,,,,,,,,,,,,,,,,,,,,,,,,,,,,,,,,,,,,,,,,,,,,,,,,,,,,,,,,,,,,,,,,,,,,,,,,,,,
,,5e38397719e44f0244389781,2026-03-17_11h24.59.976,kallum_motion_pilot_GIST_update_2,2026.1.1,Win32,59.52380952,5e38397719e44f0244389781,69b95efdef24cd8a694e89ee,69b963213b545e6327246fb0,0.0203,0.0204,0,53,53,124,1,sevenfive,,,,,,,,,,,,,,,,,,,,,,,,,,,,,,,,,,,,,,,,,,,,,,,,,,,,,,,,,,,,,,,,,,,,,,,,,,,,,,,,,,,,,,,,,,,,,,,,,,,,,,,,,,,,,,,,,,,,,,,,,,,,,,,,,,,,,,,,,
,,5e38397719e44f0244389781,2026-03-17_11h24.59.976,kallum_motion_pilot_GIST_update_2,2026.1.1,Win32,59.52380952,5e38397719e44f0244389781,69b95efdef24cd8a694e89ee,69b963213b545e6327246fb0,0.0204,0.0204,0,54,54,118,1,eightsix,,,,,,,,,,,,,,,,,,,,,,,,,,,,,,,,,,,,,,,,,,,,,,,,,,,,,,,,,,,,,,,,,,,,,,,,,,,,,,,,,,,,,,,,,,,,,,,,,,,,,,,,,,,,,,,,,,,,,,,,,,,,,,,,,,,,,,,,,
,,5e38397719e44f0244389781,2026-03-17_11h24.59.976,kallum_motion_pilot_GIST_update_2,2026.1.1,Win32,59.52380952,5e38397719e44f0244389781,69b95efdef24cd8a694e89ee,69b963213b545e6327246fb0,0.0204,0.0204,0,55,55,65,1,onethree,,,,,,,,,,,,,,,,,,,,,,,,,,,,,,,,,,,,,,,,,,,,,,,,,,,,,,,,,,,,,,,,,,,,,,,,,,,,,,,,,,,,,,,,,,,,,,,,,,,,,,,,,,,,,,,,,,,,,,,,,,,,,,,,,,,,,,,,,
,,5e38397719e44f0244389781,2026-03-17_11h24.59.976,kallum_motion_pilot_GIST_update_2,2026.1.1,Win32,59.52380952,5e38397719e44f0244389781,69b95efdef24cd8a694e89ee,69b963213b545e6327246fb0,0.0205,0.0205,0,56,56,74,1,twoone,,,,,,,,,,,,,,,,,,,,,,,,,,,,,,,,,,,,,,,,,,,,,,,,,,,,,,,,,,,,,,,,,,,,,,,,,,,,,,,,,,,,,,,,,,,,,,,,,,,,,,,,,,,,,,,,,,,,,,,,,,,,,,,,,,,,,,,,,
,,5e38397719e44f0244389781,2026-03-17_11h24.59.976,kallum_motion_pilot_GIST_update_2,2026.1.1,Win32,59.52380952,5e38397719e44f0244389781,69b95efdef24cd8a694e89ee,69b963213b545e6327246fb0,0.0206,0.0206,0,57,57,145,1,fiveseven,,,,,,,,,,,,,,,,,,,,,,,,,,,,,,,,,,,,,,,,,,,,,,,,,,,,,,,,,,,,,,,,,,,,,,,,,,,,,,,,,,,,,,,,,,,,,,,,,,,,,,,,,,,,,,,,,,,,,,,,,,,,,,,,,,,,,,,,,
,,5e38397719e44f0244389781,2026-03-17_11h24.59.976,kallum_motion_pilot_GIST_update_2,2026.1.1,Win32,59.52380952,5e38397719e44f0244389781,69b95efdef24cd8a694e89ee,69b963213b545e6327246fb0,0.0206,0.0206,0,58,58,31,1,fourthree,,,,,,,,,,,,,,,,,,,,,,,,,,,,,,,,,,,,,,,,,,,,,,,,,,,,,,,,,,,,,,,,,,,,,,,,,,,,,,,,,,,,,,,,,,,,,,,,,,,,,,,,,,,,,,,,,,,,,,,,,,,,,,,,,,,,,,,,,
,,5e38397719e44f0244389781,2026-03-17_11h24.59.976,kallum_motion_pilot_GIST_update_2,2026.1.1,Win32,59.52380952,5e38397719e44f0244389781,69b95efdef24cd8a694e89ee,69b963213b545e6327246fb0,0.0207,0.0207,0,59,59,133,1,seveneight,,,,,,,,,,,,,,,,,,,,,,,,,,,,,,,,,,,,,,,,,,,,,,,,,,,,,,,,,,,,,,,,,,,,,,,,,,,,,,,,,,,,,,,,,,,,,,,,,,,,,,,,,,,,,,,,,,,,,,,,,,,,,,,,,,,,,,,,,
,,5e38397719e44f0244389781,2026-03-17_11h24.59.976,kallum_motion_pilot_GIST_update_2,2026.1.1,Win32,59.52380952,5e38397719e44f0244389781,69b95efdef24cd8a694e89ee,69b963213b545e6327246fb0,0.0208,0.0208,0,60,60,122,1,sixfive,,,,,,,,,,,,,,,,,,,,,,,,,,,,,,,,,,,,,,,,,,,,,,,,,,,,,,,,,,,,,,,,,,,,,,,,,,,,,,,,,,,,,,,,,,,,,,,,,,,,,,,,,,,,,,,,,,,,,,,,,,,,,,,,,,,,,,,,,
,,5e38397719e44f0244389781,2026-03-17_11h24.59.976,kallum_motion_pilot_GIST_update_2,2026.1.1,Win32,59.52380952,5e38397719e44f0244389781,69b95efdef24cd8a694e89ee,69b963213b545e6327246fb0,0.0208,0.0208,0,61,61,55,1,fourthree,,,,,,,,,,,,,,,,,,,,,,,,,,,,,,,,,,,,,,,,,,,,,,,,,,,,,,,,,,,,,,,,,,,,,,,,,,,,,,,,,,,,,,,,,,,,,,,,,,,,,,,,,,,,,,,,,,,,,,,,,,,,,,,,,,,,,,,,,
,,5e38397719e44f0244389781,2026-03-17_11h24.59.976,kallum_motion_pilot_GIST_update_2,2026.1.1,Win32,59.52380952,5e38397719e44f0244389781,69b95efdef24cd8a694e89ee,69b963213b545e6327246fb0,0.0209,0.0209,0,62,62,13,1,threefour,,,,,,,,,,,,,,,,,,,,,,,,,,,,,,,,,,,,,,,,,,,,,,,,,,,,,,,,,,,,,,,,,,,,,,,,,,,,,,,,,,,,,,,,,,,,,,,,,,,,,,,,,,,,,,,,,,,,,,,,,,,,,,,,,,,,,,,,,
,,5e38397719e44f0244389781,2026-03-17_11h24.59.976,kallum_motion_pilot_GIST_update_2,2026.1.1,Win32,59.52380952,5e38397719e44f0244389781,69b95efdef24cd8a694e89ee,69b963213b545e6327246fb0,0.021,0.021,0,63,63,81,1,fiveseven,,,,,,,,,,,,,,,,,,,,,,,,,,,,,,,,,,,,,,,,,,,,,,,,,,,,,,,,,,,,,,,,,,,,,,,,,,,,,,,,,,,,,,,,,,,,,,,,,,,,,,,,,,,,,,,,,,,,,,,,,,,,,,,,,,,,,,,,,
,,5e38397719e44f0244389781,2026-03-17_11h24.59.976,kallum_motion_pilot_GIST_update_2,2026.1.1,Win32,59.52380952,5e38397719e44f0244389781,69b95efdef24cd8a694e89ee,69b963213b545e6327246fb0,0.0211,0.0211,0,64,64,62,1,fourtwo,,,,,,,,,,,,,,,,,,,,,,,,,,,,,,,,,,,,,,,,,,,,,,,,,,,,,,,,,,,,,,,,,,,,,,,,,,,,,,,,,,,,,,,,,,,,,,,,,,,,,,,,,,,,,,,,,,,,,,,,,,,,,,,,,,,,,,,,,
,,5e38397719e44f0244389781,2026-03-17_11h24.59.976,kallum_motion_pilot_GIST_update_2,2026.1.1,Win32,59.52380952,5e38397719e44f0244389781,69b95efdef24cd8a694e89ee,69b963213b545e6327246fb0,0.0211,0.0211,0,65,65,107,1,sixeight,,,,,,,,,,,,,,,,,,,,,,,,,,,,,,,,,,,,,,,,,,,,,,,,,,,,,,,,,,,,,,,,,,,,,,,,,,,,,,,,,,,,,,,,,,,,,,,,,,,,,,,,,,,,,,,,,,,,,,,,,,,,,,,,,,,,,,,,,
,,5e38397719e44f0244389781,2026-03-17_11h24.59.976,kallum_motion_pilot_GIST_update_2,2026.1.1,Win32,59.52380952,5e38397719e44f0244389781,69b95efdef24cd8a694e89ee,69b963213b545e6327246fb0,0.0212,0.0212,0,66,66,70,1,fourtwo,,,,,,,,,,,,,,,,,,,,,,,,,,,,,,,,,,,,,,,,,,,,,,,,,,,,,,,,,,,,,,,,,,,,,,,,,,,,,,,,,,,,,,,,,,,,,,,,,,,,,,,,,,,,,,,,,,,,,,,,,,,,,,,,,,,,,,,,,
,,5e38397719e44f0244389781,2026-03-17_11h24.59.976,kallum_motion_pilot_GIST_update_2,2026.1.1,Win32,59.52380952,5e38397719e44f0244389781,69b95efdef24cd8a694e89ee,69b963213b545e6327246fb0,0.0212,0.0212,0,67,67,137,1,fiveseven,,,,,,,,,,,,,,,,,,,,,,,,,,,,,,,,,,,,,,,,,,,,,,,,,,,,,,,,,,,,,,,,,,,,,,,,,,,,,,,,,,,,,,,,,,,,,,,,,,,,,,,,,,,,,,,,,,,,,,,,,,,,,,,,,,,,,,,,,
,,5e38397719e44f0244389781,2026-03-17_11h24.59.976,kallum_motion_pilot_GIST_update_2,2026.1.1,Win32,59.52380952,5e38397719e44f0244389781,69b95efdef24cd8a694e89ee,69b963213b545e6327246fb0,0.0213,0.0213,0,68,68,154,1,sixfive,,,,,,,,,,,,,,,,,,,,,,,,,,,,,,,,,,,,,,,,,,,,,,,,,,,,,,,,,,,,,,,,,,,,,,,,,,,,,,,,,,,,,,,,,,,,,,,,,,,,,,,,,,,,,,,,,,,,,,,,,,,,,,,,,,,,,,,,,
,,5e38397719e44f0244389781,2026-03-17_11h24.59.976,kallum_motion_pilot_GIST_update_2,2026.1.1,Win32,59.52380952,5e38397719e44f0244389781,69b95efdef24cd8a694e89ee,69b963213b545e6327246fb0,0.0214,0.0214,0,69,69,149,1,seveneight,,,,,,,,,,,,,,,,,,,,,,,,,,,,,,,,,,,,,,,,,,,,,,,,,,,,,,,,,,,,,,,,,,,,,,,,,,,,,,,,,,,,,,,,,,,,,,,,,,,,,,,,,,,,,,,,,,,,,,,,,,,,,,,,,,,,,,,,,
,,5e38397719e44f0244389781,2026-03-17_11h24.59.976,kallum_motion_pilot_GIST_update_2,2026.1.1,Win32,59.52380952,5e38397719e44f0244389781,69b95efdef24cd8a694e89ee,69b963213b545e6327246fb0,0.0214,0.0214,0,70,70,95,1,eightseven,,,,,,,,,,,,,,,,,,,,,,,,,,,,,,,,,,,,,,,,,,,,,,,,,,,,,,,,,,,,,,,,,,,,,,,,,,,,,,,,,,,,,,,,,,,,,,,,,,,,,,,,,,,,,,,,,,,,,,,,,,,,,,,,,,,,,,,,,
,,5e38397719e44f0244389781,2026-03-17_11h24.59.976,kallum_motion_pilot_GIST_update_2,2026.1.1,Win32,59.52380952,5e38397719e44f0244389781,69b95efdef24cd8a694e89ee,69b963213b545e6327246fb0,0.0215,0.0215,0,71,71,10,1,twoone,,,,,,,,,,,,,,,,,,,,,,,,,,,,,,,,,,,,,,,,,,,,,,,,,,,,,,,,,,,,,,,,,,,,,,,,,,,,,,,,,,,,,,,,,,,,,,,,,,,,,,,,,,,,,,,,,,,,,,,,,,,,,,,,,,,,,,,,,
,,5e38397719e44f0244389781,2026-03-17_11h24.59.976,kallum_motion_pilot_GIST_update_2,2026.1.1,Win32,59.52380952,5e38397719e44f0244389781,69b95efdef24cd8a694e89ee,69b963213b545e6327246fb0,0.0215,0.0215,0,72,72,29,1,threefour,,,,,,,,,,,,,,,,,,,,,,,,,,,,,,,,,,,,,,,,,,,,,,,,,,,,,,,,,,,,,,,,,,,,,,,,,,,,,,,,,,,,,,,,,,,,,,,,,,,,,,,,,,,,,,,,,,,,,,,,,,,,,,,,,,,,,,,,,
,,5e38397719e44f0244389781,2026-03-17_11h24.59.976,kallum_motion_pilot_GIST_update_2,2026.1.1,Win32,59.52380952,5e38397719e44f0244389781,69b95efdef24cd8a694e89ee,69b963213b545e6327246fb0,0.0217,0.0217,0,73,73,71,1,fourthree,,,,,,,,,,,,,,,,,,,,,,,,,,,,,,,,,,,,,,,,,,,,,,,,,,,,,,,,,,,,,,,,,,,,,,,,,,,,,,,,,,,,,,,,,,,,,,,,,,,,,,,,,,,,,,,,,,,,,,,,,,,,,,,,,,,,,,,,,
,,5e38397719e44f0244389781,2026-03-17_11h24.59.976,kallum_motion_pilot_GIST_update_2,2026.1.1,Win32,59.52380952,5e38397719e44f0244389781,69b95efdef24cd8a694e89ee,69b963213b545e6327246fb0,0.0217,0.0217,0,74,74,20,1,threeone,,,,,,,,,,,,,,,,,,,,,,,,,,,,,,,,,,,,,,,,,,,,,,,,,,,,,,,,,,,,,,,,,,,,,,,,,,,,,,,,,,,,,,,,,,,,,,,,,,,,,,,,,,,,,,,,,,,,,,,,,,,,,,,,,,,,,,,,,
,,5e38397719e44f0244389781,2026-03-17_11h24.59.976,kallum_motion_pilot_GIST_update_2,2026.1.1,Win32,59.52380952,5e38397719e44f0244389781,69b95efdef24cd8a694e89ee,69b963213b545e6327246fb0,0.0217,0.0217,0,75,75,17,1,onethree,,,,,,,,,,,,,,,,,,,,,,,,,,,,,,,,,,,,,,,,,,,,,,,,,,,,,,,,,,,,,,,,,,,,,,,,,,,,,,,,,,,,,,,,,,,,,,,,,,,,,,,,,,,,,,,,,,,,,,,,,,,,,,,,,,,,,,,,,
,,5e38397719e44f0244389781,2026-03-17_11h24.59.976,kallum_motion_pilot_GIST_update_2,2026.1.1,Win32,59.52380952,5e38397719e44f0244389781,69b95efdef24cd8a694e89ee,69b963213b545e6327246fb0,0.0219,0.0219,0,76,76,143,1,eightseven,,,,,,,,,,,,,,,,,,,,,,,,,,,,,,,,,,,,,,,,,,,,,,,,,,,,,,,,,,,,,,,,,,,,,,,,,,,,,,,,,,,,,,,,,,,,,,,,,,,,,,,,,,,,,,,,,,,,,,,,,,,,,,,,,,,,,,,,,
,,5e38397719e44f0244389781,2026-03-17_11h24.59.976,kallum_motion_pilot_GIST_update_2,2026.1.1,Win32,59.52380952,5e38397719e44f0244389781,69b95efdef24cd8a694e89ee,69b963213b545e6327246fb0,0.0219,0.0219,0,77,77,97,1,fiveseven,,,,,,,,,,,,,,,,,,,,,,,,,,,,,,,,,,,,,,,,,,,,,,,,,,,,,,,,,,,,,,,,,,,,,,,,,,,,,,,,,,,,,,,,,,,,,,,,,,,,,,,,,,,,,,,,,,,,,,,,,,,,,,,,,,,,,,,,,
,,5e38397719e44f0244389781,2026-03-17_11h24.59.976,kallum_motion_pilot_GIST_update_2,2026.1.1,Win32,59.52380952,5e38397719e44f0244389781,69b95efdef24cd8a694e89ee,69b963213b545e6327246fb0,0.0219,0.022,0,78,78,35,1,twofour,,,,,,,,,,,,,,,,,,,,,,,,,,,,,,,,,,,,,,,,,,,,,,,,,,,,,,,,,,,,,,,,,,,,,,,,,,,,,,,,,,,,,,,,,,,,,,,,,,,,,,,,,,,,,,,,,,,,,,,,,,,,,,,,,,,,,,,,,
,,5e38397719e44f0244389781,2026-03-17_11h24.59.976,kallum_motion_pilot_GIST_update_2,2026.1.1,Win32,59.52380952,5e38397719e44f0244389781,69b95efdef24cd8a694e89ee,69b963213b545e6327246fb0,0.022,0.022,0,79,79,139,1,sixeight,,,,,,,,,,,,,,,,,,,,,,,,,,,,,,,,,,,,,,,,,,,,,,,,,,,,,,,,,,,,,,,,,,,,,,,,,,,,,,,,,,,,,,,,,,,,,,,,,,,,,,,,,,,,,,,,,,,,,,,,,,,,,,,,,,,,,,,,,
,,5e38397719e44f0244389781,2026-03-17_11h24.59.976,kallum_motion_pilot_GIST_update_2,2026.1.1,Win32,59.52380952,5e38397719e44f0244389781,69b95efdef24cd8a694e89ee,69b963213b545e6327246fb0,0.0221,0.0221,0,80,80,111,1,eightseven,,,,,,,,,,,,,,,,,,,,,,,,,,,,,,,,,,,,,,,,,,,,,,,,,,,,,,,,,,,,,,,,,,,,,,,,,,,,,,,,,,,,,,,,,,,,,,,,,,,,,,,,,,,,,,,,,,,,,,,,,,,,,,,,,,,,,,,,,
,,5e38397719e44f0244389781,2026-03-17_11h24.59.976,kallum_motion_pilot_GIST_update_2,2026.1.1,Win32,59.52380952,5e38397719e44f0244389781,69b95efdef24cd8a694e89ee,69b963213b545e6327246fb0,0.0222,0.0222,0,81,81,6,1,fourtwo,,,,,,,,,,,,,,,,,,,,,,,,,,,,,,,,,,,,,,,,,,,,,,,,,,,,,,,,,,,,,,,,,,,,,,,,,,,,,,,,,,,,,,,,,,,,,,,,,,,,,,,,,,,,,,,,,,,,,,,,,,,,,,,,,,,,,,,,,
,,5e38397719e44f0244389781,2026-03-17_11h24.59.976,kallum_motion_pilot_GIST_update_2,2026.1.1,Win32,59.52380952,5e38397719e44f0244389781,69b95efdef24cd8a694e89ee,69b963213b545e6327246fb0,0.0222,0.0222,0,82,82,52,1,threeone,,,,,,,,,,,,,,,,,,,,,,,,,,,,,,,,,,,,,,,,,,,,,,,,,,,,,,,,,,,,,,,,,,,,,,,,,,,,,,,,,,,,,,,,,,,,,,,,,,,,,,,,,,,,,,,,,,,,,,,,,,,,,,,,,,,,,,,,,
,,5e38397719e44f0244389781,2026-03-17_11h24.59.976,kallum_motion_pilot_GIST_update_2,2026.1.1,Win32,59.52380952,5e38397719e44f0244389781,69b95efdef24cd8a694e89ee,69b963213b545e6327246fb0,0.0223,0.0223,0,83,83,158,1,eightsix,,,,,,,,,,,,,,,,,,,,,,,,,,,,,,,,,,,,,,,,,,,,,,,,,,,,,,,,,,,,,,,,,,,,,,,,,,,,,,,,,,,,,,,,,,,,,,,,,,,,,,,,,,,,,,,,,,,,,,,,,,,,,,,,,,,,,,,,,
,,5e38397719e44f0244389781,2026-03-17_11h24.59.976,kallum_motion_pilot_GIST_update_2,2026.1.1,Win32,59.52380952,5e38397719e44f0244389781,69b95efdef24cd8a694e89ee,69b963213b545e6327246fb0,0.0224,0.0224,0,84,84,4,1,threeone,,,,,,,,,,,,,,,,,,,,,,,,,,,,,,,,,,,,,,,,,,,,,,,,,,,,,,,,,,,,,,,,,,,,,,,,,,,,,,,,,,,,,,,,,,,,,,,,,,,,,,,,,,,,,,,,,,,,,,,,,,,,,,,,,,,,,,,,,
,,5e38397719e44f0244389781,2026-03-17_11h24.59.976,kallum_motion_pilot_GIST_update_2,2026.1.1,Win32,59.52380952,5e38397719e44f0244389781,69b95efdef24cd8a694e89ee,69b963213b545e6327246fb0,0.0225,0.0225,0,85,85,116,1,sevenfive,,,,,,,,,,,,,,,,,,,,,,,,,,,,,,,,,,,,,,,,,,,,,,,,,,,,,,,,,,,,,,,,,,,,,,,,,,,,,,,,,,,,,,,,,,,,,,,,,,,,,,,,,,,,,,,,,,,,,,,,,,,,,,,,,,,,,,,,,
,,5e38397719e44f0244389781,2026-03-17_11h24.59.976,kallum_motion_pilot_GIST_update_2,2026.1.1,Win32,59.52380952,5e38397719e44f0244389781,69b95efdef24cd8a694e89ee,69b963213b545e6327246fb0,0.0225,0.0225,0,86,86,141,1,seveneight,,,,,,,,,,,,,,,,,,,,,,,,,,,,,,,,,,,,,,,,,,,,,,,,,,,,,,,,,,,,,,,,,,,,,,,,,,,,,,,,,,,,,,,,,,,,,,,,,,,,,,,,,,,,,,,,,,,,,,,,,,,,,,,,,,,,,,,,,
,,5e38397719e44f0244389781,2026-03-17_11h24.59.976,kallum_motion_pilot_GIST_update_2,2026.1.1,Win32,59.52380952,5e38397719e44f0244389781,69b95efdef24cd8a694e89ee,69b963213b545e6327246fb0,0.0225,0.0226,0,87,87,156,1,sevenfive,,,,,,,,,,,,,,,,,,,,,,,,,,,,,,,,,,,,,,,,,,,,,,,,,,,,,,,,,,,,,,,,,,,,,,,,,,,,,,,,,,,,,,,,,,,,,,,,,,,,,,,,,,,,,,,,,,,,,,,,,,,,,,,,,,,,,,,,,
,,5e38397719e44f0244389781,2026-03-17_11h24.59.976,kallum_motion_pilot_GIST_update_2,2026.1.1,Win32,59.52380952,5e38397719e44f0244389781,69b95efdef24cd8a694e89ee,69b963213b545e6327246fb0,0.0226,0.0226,0,88,88,26,1,twoone,,,,,,,,,,,,,,,,,,,,,,,,,,,,,,,,,,,,,,,,,,,,,,,,,,,,,,,,,,,,,,,,,,,,,,,,,,,,,,,,,,,,,,,,,,,,,,,,,,,,,,,,,,,,,,,,,,,,,,,,,,,,,,,,,,,,,,,,,
,,5e38397719e44f0244389781,2026-03-17_11h24.59.976,kallum_motion_pilot_GIST_update_2,2026.1.1,Win32,59.52380952,5e38397719e44f0244389781,69b95efdef24cd8a694e89ee,69b963213b545e6327246fb0,0.0226,0.0226,0,89,89,136,1,fivesix,,,,,,,,,,,,,,,,,,,,,,,,,,,,,,,,,,,,,,,,,,,,,,,,,,,,,,,,,,,,,,,,,,,,,,,,,,,,,,,,,,,,,,,,,,,,,,,,,,,,,,,,,,,,,,,,,,,,,,,,,,,,,,,,,,,,,,,,,
,,5e38397719e44f0244389781,2026-03-17_11h24.59.976,kallum_motion_pilot_GIST_update_2,2026.1.1,Win32,59.52380952,5e38397719e44f0244389781,69b95efdef24cd8a694e89ee,69b963213b545e6327246fb0,0.0227,0.0227,0,90,90,147,1,sixeight,,,,,,,,,,,,,,,,,,,,,,,,,,,,,,,,,,,,,,,,,,,,,,,,,,,,,,,,,,,,,,,,,,,,,,,,,,,,,,,,,,,,,,,,,,,,,,,,,,,,,,,,,,,,,,,,,,,,,,,,,,,,,,,,,,,,,,,,,
,,5e38397719e44f0244389781,2026-03-17_11h24.59.976,kallum_motion_pilot_GIST_update_2,2026.1.1,Win32,59.52380952,5e38397719e44f0244389781,69b95efdef24cd8a694e89ee,69b963213b545e6327246fb0,0.0228,0.0228,0,91,91,127,1,eightseven,,,,,,,,,,,,,,,,,,,,,,,,,,,,,,,,,,,,,,,,,,,,,,,,,,,,,,,,,,,,,,,,,,,,,,,,,,,,,,,,,,,,,,,,,,,,,,,,,,,,,,,,,,,,,,,,,,,,,,,,,,,,,,,,,,,,,,,,,
,,5e38397719e44f0244389781,2026-03-17_11h24.59.976,kallum_motion_pilot_GIST_update_2,2026.1.1,Win32,59.52380952,5e38397719e44f0244389781,69b95efdef24cd8a694e89ee,69b963213b545e6327246fb0,0.0229,0.0229,0,92,92,50,1,twoone,,,,,,,,,,,,,,,,,,,,,,,,,,,,,,,,,,,,,,,,,,,,,,,,,,,,,,,,,,,,,,,,,,,,,,,,,,,,,,,,,,,,,,,,,,,,,,,,,,,,,,,,,,,,,,,,,,,,,,,,,,,,,,,,,,,,,,,,,
,,5e38397719e44f0244389781,2026-03-17_11h24.59.976,kallum_motion_pilot_GIST_update_2,2026.1.1,Win32,59.52380952,5e38397719e44f0244389781,69b95efdef24cd8a694e89ee,69b963213b545e6327246fb0,0.0229,0.0229,0,93,93,126,1,eightsix,,,,,,,,,,,,,,,,,,,,,,,,,,,,,,,,,,,,,,,,,,,,,,,,,,,,,,,,,,,,,,,,,,,,,,,,,,,,,,,,,,,,,,,,,,,,,,,,,,,,,,,,,,,,,,,,,,,,,,,,,,,,,,,,,,,,,,,,,
,,5e38397719e44f0244389781,2026-03-17_11h24.59.976,kallum_motion_pilot_GIST_update_2,2026.1.1,Win32,59.52380952,5e38397719e44f0244389781,69b95efdef24cd8a694e89ee,69b963213b545e6327246fb0,0.023,0.023,0,94,94,33,1,onethree,,,,,,,,,,,,,,,,,,,,,,,,,,,,,,,,,,,,,,,,,,,,,,,,,,,,,,,,,,,,,,,,,,,,,,,,,,,,,,,,,,,,,,,,,,,,,,,,,,,,,,,,,,,,,,,,,,,,,,,,,,,,,,,,,,,,,,,,,
,,5e38397719e44f0244389781,2026-03-17_11h24.59.976,kallum_motion_pilot_GIST_update_2,2026.1.1,Win32,59.52380952,5e38397719e44f0244389781,69b95efdef24cd8a694e89ee,69b963213b545e6327246fb0,0.0231,0.0231,0,95,95,36,1,threeone,,,,,,,,,,,,,,,,,,,,,,,,,,,,,,,,,,,,,,,,,,,,,,,,,,,,,,,,,,,,,,,,,,,,,,,,,,,,,,,,,,,,,,,,,,,,,,,,,,,,,,,,,,,,,,,,,,,,,,,,,,,,,,,,,,,,,,,,,
,,5e38397719e44f0244389781,2026-03-17_11h24.59.976,kallum_motion_pilot_GIST_update_2,2026.1.1,Win32,59.52380952,5e38397719e44f0244389781,69b95efdef24cd8a694e89ee,69b963213b545e6327246fb0,0.0231,0.0231,0,96,96,80,1,fivesix,,,,,,,,,,,,,,,,,,,,,,,,,,,,,,,,,,,,,,,,,,,,,,,,,,,,,,,,,,,,,,,,,,,,,,,,,,,,,,,,,,,,,,,,,,,,,,,,,,,,,,,,,,,,,,,,,,,,,,,,,,,,,,,,,,,,,,,,,
,,5e38397719e44f0244389781,2026-03-17_11h24.59.976,kallum_motion_pilot_GIST_update_2,2026.1.1,Win32,59.52380952,5e38397719e44f0244389781,69b95efdef24cd8a694e89ee,69b963213b545e6327246fb0,0.0232,0.0232,0,97,97,39,1,fourthree,,,,,,,,,,,,,,,,,,,,,,,,,,,,,,,,,,,,,,,,,,,,,,,,,,,,,,,,,,,,,,,,,,,,,,,,,,,,,,,,,,,,,,,,,,,,,,,,,,,,,,,,,,,,,,,,,,,,,,,,,,,,,,,,,,,,,,,,,
,,5e38397719e44f0244389781,2026-03-17_11h24.59.976,kallum_motion_pilot_GIST_update_2,2026.1.1,Win32,59.52380952,5e38397719e44f0244389781,69b95efdef24cd8a694e89ee,69b963213b545e6327246fb0,0.0233,0.0233,0,98,98,7,1,fourthree,,,,,,,,,,,,,,,,,,,,,,,,,,,,,,,,,,,,,,,,,,,,,,,,,,,,,,,,,,,,,,,,,,,,,,,,,,,,,,,,,,,,,,,,,,,,,,,,,,,,,,,,,,,,,,,,,,,,,,,,,,,,,,,,,,,,,,,,,
,,5e38397719e44f0244389781,2026-03-17_11h24.59.976,kallum_motion_pilot_GIST_update_2,2026.1.1,Win32,59.52380952,5e38397719e44f0244389781,69b95efdef24cd8a694e89ee,69b963213b545e6327246fb0,0.0234,0.0234,0,99,99,83,1,sixeight,,,,,,,,,,,,,,,,,,,,,,,,,,,,,,,,,,,,,,,,,,,,,,,,,,,,,,,,,,,,,,,,,,,,,,,,,,,,,,,,,,,,,,,,,,,,,,,,,,,,,,,,,,,,,,,,,,,,,,,,,,,,,,,,,,,,,,,,,
,,5e38397719e44f0244389781,2026-03-17_11h24.59.976,kallum_motion_pilot_GIST_update_2,2026.1.1,Win32,59.52380952,5e38397719e44f0244389781,69b95efdef24cd8a694e89ee,69b963213b545e6327246fb0,0.0234,0.0234,0,100,100,5,1,threefour,,,,,,,,,,,,,,,,,,,,,,,,,,,,,,,,,,,,,,,,,,,,,,,,,,,,,,,,,,,,,,,,,,,,,,,,,,,,,,,,,,,,,,,,,,,,,,,,,,,,,,,,,,,,,,,,,,,,,,,,,,,,,,,,,,,,,,,,,
,,5e38397719e44f0244389781,2026-03-17_11h24.59.976,kallum_motion_pilot_GIST_update_2,2026.1.1,Win32,59.52380952,5e38397719e44f0244389781,69b95efdef24cd8a694e89ee,69b963213b545e6327246fb0,0.0235,0.0235,0,101,101,21,1,threefour,,,,,,,,,,,,,,,,,,,,,,,,,,,,,,,,,,,,,,,,,,,,,,,,,,,,,,,,,,,,,,,,,,,,,,,,,,,,,,,,,,,,,,,,,,,,,,,,,,,,,,,,,,,,,,,,,,,,,,,,,,,,,,,,,,,,,,,,,
,,5e38397719e44f0244389781,2026-03-17_11h24.59.976,kallum_motion_pilot_GIST_update_2,2026.1.1,Win32,59.52380952,5e38397719e44f0244389781,69b95efdef24cd8a694e89ee,69b963213b545e6327246fb0,0.0236,0.0236,0,102,102,93,1,seveneight,,,,,,,,,,,,,,,,,,,,,,,,,,,,,,,,,,,,,,,,,,,,,,,,,,,,,,,,,,,,,,,,,,,,,,,,,,,,,,,,,,,,,,,,,,,,,,,,,,,,,,,,,,,,,,,,,,,,,,,,,,,,,,,,,,,,,,,,,
,,5e38397719e44f0244389781,2026-03-17_11h24.59.976,kallum_motion_pilot_GIST_update_2,2026.1.1,Win32,59.52380952,5e38397719e44f0244389781,69b95efdef24cd8a694e89ee,69b963213b545e6327246fb0,0.0236,0.0236,0,103,103,84,1,sevenfive,,,,,,,,,,,,,,,,,,,,,,,,,,,,,,,,,,,,,,,,,,,,,,,,,,,,,,,,,,,,,,,,,,,,,,,,,,,,,,,,,,,,,,,,,,,,,,,,,,,,,,,,,,,,,,,,,,,,,,,,,,,,,,,,,,,,,,,,,
,,5e38397719e44f0244389781,2026-03-17_11h24.59.976,kallum_motion_pilot_GIST_update_2,2026.1.1,Win32,59.52380952,5e38397719e44f0244389781,69b95efdef24cd8a694e89ee,69b963213b545e6327246fb0,0.0237,0.0237,0,104,104,72,1,onetwo,,,,,,,,,,,,,,,,,,,,,,,,,,,,,,,,,,,,,,,,,,,,,,,,,,,,,,,,,,,,,,,,,,,,,,,,,,,,,,,,,,,,,,,,,,,,,,,,,,,,,,,,,,,,,,,,,,,,,,,,,,,,,,,,,,,,,,,,,
,,5e38397719e44f0244389781,2026-03-17_11h24.59.976,kallum_motion_pilot_GIST_update_2,2026.1.1,Win32,59.52380952,5e38397719e44f0244389781,69b95efdef24cd8a694e89ee,69b963213b545e6327246fb0,0.0237,0.0238,0,105,105,34,1,twoone,,,,,,,,,,,,,,,,,,,,,,,,,,,,,,,,,,,,,,,,,,,,,,,,,,,,,,,,,,,,,,,,,,,,,,,,,,,,,,,,,,,,,,,,,,,,,,,,,,,,,,,,,,,,,,,,,,,,,,,,,,,,,,,,,,,,,,,,,
,,5e38397719e44f0244389781,2026-03-17_11h24.59.976,kallum_motion_pilot_GIST_update_2,2026.1.1,Win32,59.52380952,5e38397719e44f0244389781,69b95efdef24cd8a694e89ee,69b963213b545e6327246fb0,0.0238,0.0238,0,106,106,66,1,twoone,,,,,,,,,,,,,,,,,,,,,,,,,,,,,,,,,,,,,,,,,,,,,,,,,,,,,,,,,,,,,,,,,,,,,,,,,,,,,,,,,,,,,,,,,,,,,,,,,,,,,,,,,,,,,,,,,,,,,,,,,,,,,,,,,,,,,,,,,
,,5e38397719e44f0244389781,2026-03-17_11h24.59.976,kallum_motion_pilot_GIST_update_2,2026.1.1,Win32,59.52380952,5e38397719e44f0244389781,69b95efdef24cd8a694e89ee,69b963213b545e6327246fb0,0.0238,0.0238,0,107,107,40,1,onetwo,,,,,,,,,,,,,,,,,,,,,,,,,,,,,,,,,,,,,,,,,,,,,,,,,,,,,,,,,,,,,,,,,,,,,,,,,,,,,,,,,,,,,,,,,,,,,,,,,,,,,,,,,,,,,,,,,,,,,,,,,,,,,,,,,,,,,,,,,
,,5e38397719e44f0244389781,2026-03-17_11h24.59.976,kallum_motion_pilot_GIST_update_2,2026.1.1,Win32,59.52380952,5e38397719e44f0244389781,69b95efdef24cd8a694e89ee,69b963213b545e6327246fb0,0.024,0.024,0,108,108,59,1,twofour,,,,,,,,,,,,,,,,,,,,,,,,,,,,,,,,,,,,,,,,,,,,,,,,,,,,,,,,,,,,,,,,,,,,,,,,,,,,,,,,,,,,,,,,,,,,,,,,,,,,,,,,,,,,,,,,,,,,,,,,,,,,,,,,,,,,,,,,,
,,5e38397719e44f0244389781,2026-03-17_11h24.59.976,kallum_motion_pilot_GIST_update_2,2026.1.1,Win32,59.52380952,5e38397719e44f0244389781,69b95efdef24cd8a694e89ee,69b963213b545e6327246fb0,0.024,0.024,0,109,109,67,1,twofour,,,,,,,,,,,,,,,,,,,,,,,,,,,,,,,,,,,,,,,,,,,,,,,,,,,,,,,,,,,,,,,,,,,,,,,,,,,,,,,,,,,,,,,,,,,,,,,,,,,,,,,,,,,,,,,,,,,,,,,,,,,,,,,,,,,,,,,,,
,,5e38397719e44f0244389781,2026-03-17_11h24.59.976,kallum_motion_pilot_GIST_update_2,2026.1.1,Win32,59.52380952,5e38397719e44f0244389781,69b95efdef24cd8a694e89ee,69b963213b545e6327246fb0,0.0241,0.0241,0,110,110,152,1,fivesix,,,,,,,,,,,,,,,,,,,,,,,,,,,,,,,,,,,,,,,,,,,,,,,,,,,,,,,,,,,,,,,,,,,,,,,,,,,,,,,,,,,,,,,,,,,,,,,,,,,,,,,,,,,,,,,,,,,,,,,,,,,,,,,,,,,,,,,,,
,,5e38397719e44f0244389781,2026-03-17_11h24.59.976,kallum_motion_pilot_GIST_update_2,2026.1.1,Win32,59.52380952,5e38397719e44f0244389781,69b95efdef24cd8a694e89ee,69b963213b545e6327246fb0,0.0242,0.0242,0,111,111,42,1,twoone,,,,,,,,,,,,,,,,,,,,,,,,,,,,,,,,,,,,,,,,,,,,,,,,,,,,,,,,,,,,,,,,,,,,,,,,,,,,,,,,,,,,,,,,,,,,,,,,,,,,,,,,,,,,,,,,,,,,,,,,,,,,,,,,,,,,,,,,,
,,5e38397719e44f0244389781,2026-03-17_11h24.59.976,kallum_motion_pilot_GIST_update_2,2026.1.1,Win32,59.52380952,5e38397719e44f0244389781,69b95efdef24cd8a694e89ee,69b963213b545e6327246fb0,0.0242,0.0242,0,112,112,98,1,sixfive,,,,,,,,,,,,,,,,,,,,,,,,,,,,,,,,,,,,,,,,,,,,,,,,,,,,,,,,,,,,,,,,,,,,,,,,,,,,,,,,,,,,,,,,,,,,,,,,,,,,,,,,,,,,,,,,,,,,,,,,,,,,,,,,,,,,,,,,,
,,5e38397719e44f0244389781,2026-03-17_11h24.59.976,kallum_motion_pilot_GIST_update_2,2026.1.1,Win32,59.52380952,5e38397719e44f0244389781,69b95efdef24cd8a694e89ee,69b963213b545e6327246fb0,0.0243,0.0243,0,113,113,51,1,twofour,,,,,,,,,,,,,,,,,,,,,,,,,,,,,,,,,,,,,,,,,,,,,,,,,,,,,,,,,,,,,,,,,,,,,,,,,,,,,,,,,,,,,,,,,,,,,,,,,,,,,,,,,,,,,,,,,,,,,,,,,,,,,,,,,,,,,,,,,
,,5e38397719e44f0244389781,2026-03-17_11h24.59.976,kallum_motion_pilot_GIST_update_2,2026.1.1,Win32,59.52380952,5e38397719e44f0244389781,69b95efdef24cd8a694e89ee,69b963213b545e6327246fb0,0.0243,0.0243,0,114,114,78,1,fourtwo,,,,,,,,,,,,,,,,,,,,,,,,,,,,,,,,,,,,,,,,,,,,,,,,,,,,,,,,,,,,,,,,,,,,,,,,,,,,,,,,,,,,,,,,,,,,,,,,,,,,,,,,,,,,,,,,,,,,,,,,,,,,,,,,,,,,,,,,,
,,5e38397719e44f0244389781,2026-03-17_11h24.59.976,kallum_motion_pilot_GIST_update_2,2026.1.1,Win32,59.52380952,5e38397719e44f0244389781,69b95efdef24cd8a694e89ee,69b963213b545e6327246fb0,0.0244,0.0244,0,115,115,46,1,fourtwo,,,,,,,,,,,,,,,,,,,,,,,,,,,,,,,,,,,,,,,,,,,,,,,,,,,,,,,,,,,,,,,,,,,,,,,,,,,,,,,,,,,,,,,,,,,,,,,,,,,,,,,,,,,,,,,,,,,,,,,,,,,,,,,,,,,,,,,,,
,,5e38397719e44f0244389781,2026-03-17_11h24.59.976,kallum_motion_pilot_GIST_update_2,2026.1.1,Win32,59.52380952,5e38397719e44f0244389781,69b95efdef24cd8a694e89ee,69b963213b545e6327246fb0,0.0245,0.0245,0,116,116,88,1,fivesix,,,,,,,,,,,,,,,,,,,,,,,,,,,,,,,,,,,,,,,,,,,,,,,,,,,,,,,,,,,,,,,,,,,,,,,,,,,,,,,,,,,,,,,,,,,,,,,,,,,,,,,,,,,,,,,,,,,,,,,,,,,,,,,,,,,,,,,,,
,,5e38397719e44f0244389781,2026-03-17_11h24.59.976,kallum_motion_pilot_GIST_update_2,2026.1.1,Win32,59.52380952,5e38397719e44f0244389781,69b95efdef24cd8a694e89ee,69b963213b545e6327246fb0,0.0245,0.0245,0,117,117,117,1,seveneight,,,,,,,,,,,,,,,,,,,,,,,,,,,,,,,,,,,,,,,,,,,,,,,,,,,,,,,,,,,,,,,,,,,,,,,,,,,,,,,,,,,,,,,,,,,,,,,,,,,,,,,,,,,,,,,,,,,,,,,,,,,,,,,,,,,,,,,,,
,,5e38397719e44f0244389781,2026-03-17_11h24.59.976,kallum_motion_pilot_GIST_update_2,2026.1.1,Win32,59.52380952,5e38397719e44f0244389781,69b95efdef24cd8a694e89ee,69b963213b545e6327246fb0,0.0246,0.0246,0,118,118,92,1,sevenfive,,,,,,,,,,,,,,,,,,,,,,,,,,,,,,,,,,,,,,,,,,,,,,,,,,,,,,,,,,,,,,,,,,,,,,,,,,,,,,,,,,,,,,,,,,,,,,,,,,,,,,,,,,,,,,,,,,,,,,,,,,,,,,,,,,,,,,,,,
,,5e38397719e44f0244389781,2026-03-17_11h24.59.976,kallum_motion_pilot_GIST_update_2,2026.1.1,Win32,59.52380952,5e38397719e44f0244389781,69b95efdef24cd8a694e89ee,69b963213b545e6327246fb0,0.0247,0.0247,0,119,119,15,1,fourthree,,,,,,,,,,,,,,,,,,,,,,,,,,,,,,,,,,,,,,,,,,,,,,,,,,,,,,,,,,,,,,,,,,,,,,,,,,,,,,,,,,,,,,,,,,,,,,,,,,,,,,,,,,,,,,,,,,,,,,,,,,,,,,,,,,,,,,,,,
,,5e38397719e44f0244389781,2026-03-17_11h24.59.976,kallum_motion_pilot_GIST_update_2,2026.1.1,Win32,59.52380952,5e38397719e44f0244389781,69b95efdef24cd8a694e89ee,69b963213b545e6327246fb0,0.0248,0.0249,0,120,120,89,1,fiveseven,,,,,,,,,,,,,,,,,,,,,,,,,,,,,,,,,,,,,,,,,,,,,,,,,,,,,,,,,,,,,,,,,,,,,,,,,,,,,,,,,,,,,,,,,,,,,,,,,,,,,,,,,,,,,,,,,,,,,,,,,,,,,,,,,,,,,,,,,
,,5e38397719e44f0244389781,2026-03-17_11h24.59.976,kallum_motion_pilot_GIST_update_2,2026.1.1,Win32,59.52380952,5e38397719e44f0244389781,69b95efdef24cd8a694e89ee,69b963213b545e6327246fb0,0.0249,0.0249,0,121,121,115,1,sixeight,,,,,,,,,,,,,,,,,,,,,,,,,,,,,,,,,,,,,,,,,,,,,,,,,,,,,,,,,,,,,,,,,,,,,,,,,,,,,,,,,,,,,,,,,,,,,,,,,,,,,,,,,,,,,,,,,,,,,,,,,,,,,,,,,,,,,,,,,
,,5e38397719e44f0244389781,2026-03-17_11h24.59.976,kallum_motion_pilot_GIST_update_2,2026.1.1,Win32,59.52380952,5e38397719e44f0244389781,69b95efdef24cd8a694e89ee,69b963213b545e6327246fb0,0.0249,0.0249,0,122,122,8,1,onetwo,,,,,,,,,,,,,,,,,,,,,,,,,,,,,,,,,,,,,,,,,,,,,,,,,,,,,,,,,,,,,,,,,,,,,,,,,,,,,,,,,,,,,,,,,,,,,,,,,,,,,,,,,,,,,,,,,,,,,,,,,,,,,,,,,,,,,,,,,
,,5e38397719e44f0244389781,2026-03-17_11h24.59.976,kallum_motion_pilot_GIST_update_2,2026.1.1,Win32,59.52380952,5e38397719e44f0244389781,69b95efdef24cd8a694e89ee,69b963213b545e6327246fb0,0.025,0.025,0,123,123,120,1,fivesix,,,,,,,,,,,,,,,,,,,,,,,,,,,,,,,,,,,,,,,,,,,,,,,,,,,,,,,,,,,,,,,,,,,,,,,,,,,,,,,,,,,,,,,,,,,,,,,,,,,,,,,,,,,,,,,,,,,,,,,,,,,,,,,,,,,,,,,,,
,,5e38397719e44f0244389781,2026-03-17_11h24.59.976,kallum_motion_pilot_GIST_update_2,2026.1.1,Win32,59.52380952,5e38397719e44f0244389781,69b95efdef24cd8a694e89ee,69b963213b545e6327246fb0,0.0251,0.0251,0,124,124,161,1,fiveseven,,,,,,,,,,,,,,,,,,,,,,,,,,,,,,,,,,,,,,,,,,,,,,,,,,,,,,,,,,,,,,,,,,,,,,,,,,,,,,,,,,,,,,,,,,,,,,,,,,,,,,,,,,,,,,,,,,,,,,,,,,,,,,,,,,,,,,,,,
,,5e38397719e44f0244389781,2026-03-17_11h24.59.976,kallum_motion_pilot_GIST_update_2,2026.1.1,Win32,59.52380952,5e38397719e44f0244389781,69b95efdef24cd8a694e89ee,69b963213b545e6327246fb0,0.0252,0.0252,0,125,125,54,1,fourtwo,,,,,,,,,,,,,,,,,,,,,,,,,,,,,,,,,,,,,,,,,,,,,,,,,,,,,,,,,,,,,,,,,,,,,,,,,,,,,,,,,,,,,,,,,,,,,,,,,,,,,,,,,,,,,,,,,,,,,,,,,,,,,,,,,,,,,,,,,
,,5e38397719e44f0244389781,2026-03-17_11h24.59.976,kallum_motion_pilot_GIST_update_2,2026.1.1,Win32,59.52380952,5e38397719e44f0244389781,69b95efdef24cd8a694e89ee,69b963213b545e6327246fb0,0.0253,0.0253,0,126,126,131,1,sixeight,,,,,,,,,,,,,,,,,,,,,,,,,,,,,,,,,,,,,,,,,,,,,,,,,,,,,,,,,,,,,,,,,,,,,,,,,,,,,,,,,,,,,,,,,,,,,,,,,,,,,,,,,,,,,,,,,,,,,,,,,,,,,,,,,,,,,,,,,
,,5e38397719e44f0244389781,2026-03-17_11h24.59.976,kallum_motion_pilot_GIST_update_2,2026.1.1,Win32,59.52380952,5e38397719e44f0244389781,69b95efdef24cd8a694e89ee,69b963213b545e6327246fb0,0.0253,0.0253,0,127,127,9,1,onethree,,,,,,,,,,,,,,,,,,,,,,,,,,,,,,,,,,,,,,,,,,,,,,,,,,,,,,,,,,,,,,,,,,,,,,,,,,,,,,,,,,,,,,,,,,,,,,,,,,,,,,,,,,,,,,,,,,,,,,,,,,,,,,,,,,,,,,,,,
,,5e38397719e44f0244389781,2026-03-17_11h24.59.976,kallum_motion_pilot_GIST_update_2,2026.1.1,Win32,59.52380952,5e38397719e44f0244389781,69b95efdef24cd8a694e89ee,69b963213b545e6327246fb0,0.0254,0.0254,0,128,128,68,1,threeone,,,,,,,,,,,,,,,,,,,,,,,,,,,,,,,,,,,,,,,,,,,,,,,,,,,,,,,,,,,,,,,,,,,,,,,,,,,,,,,,,,,,,,,,,,,,,,,,,,,,,,,,,,,,,,,,,,,,,,,,,,,,,,,,,,,,,,,,,
,,5e38397719e44f0244389781,2026-03-17_11h24.59.976,kallum_motion_pilot_GIST_update_2,2026.1.1,Win32,59.52380952,5e38397719e44f0244389781,69b95efdef24cd8a694e89ee,69b963213b545e6327246fb0,0.0255,0.0255,0,129,129,37,1,threefour,,,,,,,,,,,,,,,,,,,,,,,,,,,,,,,,,,,,,,,,,,,,,,,,,,,,,,,,,,,,,,,,,,,,,,,,,,,,,,,,,,,,,,,,,,,,,,,,,,,,,,,,,,,,,,,,,,,,,,,,,,,,,,,,,,,,,,,,,
,,5e38397719e44f0244389781,2026-03-17_11h24.59.976,kallum_motion_pilot_GIST_update_2,2026.1.1,Win32,59.52380952,5e38397719e44f0244389781,69b95efdef24cd8a694e89ee,69b963213b545e6327246fb0,0.0256,0.0256,0,130,130,56,1,onetwo,,,,,,,,,,,,,,,,,,,,,,,,,,,,,,,,,,,,,,,,,,,,,,,,,,,,,,,,,,,,,,,,,,,,,,,,,,,,,,,,,,,,,,,,,,,,,,,,,,,,,,,,,,,,,,,,,,,,,,,,,,,,,,,,,,,,,,,,,
,,5e38397719e44f0244389781,2026-03-17_11h24.59.976,kallum_motion_pilot_GIST_update_2,2026.1.1,Win32,59.52380952,5e38397719e44f0244389781,69b95efdef24cd8a694e89ee,69b963213b545e6327246fb0,0.0257,0.0257,0,131,131,105,1,fiveseven,,,,,,,,,,,,,,,,,,,,,,,,,,,,,,,,,,,,,,,,,,,,,,,,,,,,,,,,,,,,,,,,,,,,,,,,,,,,,,,,,,,,,,,,,,,,,,,,,,,,,,,,,,,,,,,,,,,,,,,,,,,,,,,,,,,,,,,,,
,,5e38397719e44f0244389781,2026-03-17_11h24.59.976,kallum_motion_pilot_GIST_update_2,2026.1.1,Win32,59.52380952,5e38397719e44f0244389781,69b95efdef24cd8a694e89ee,69b963213b545e6327246fb0,0.0258,0.0258,0,132,132,30,1,fourtwo,,,,,,,,,,,,,,,,,,,,,,,,,,,,,,,,,,,,,,,,,,,,,,,,,,,,,,,,,,,,,,,,,,,,,,,,,,,,,,,,,,,,,,,,,,,,,,,,,,,,,,,,,,,,,,,,,,,,,,,,,,,,,,,,,,,,,,,,,
,,5e38397719e44f0244389781,2026-03-17_11h24.59.976,kallum_motion_pilot_GIST_update_2,2026.1.1,Win32,59.52380952,5e38397719e44f0244389781,69b95efdef24cd8a694e89ee,69b963213b545e6327246fb0,0.0259,0.0259,0,133,133,44,1,threeone,,,,,,,,,,,,,,,,,,,,,,,,,,,,,,,,,,,,,,,,,,,,,,,,,,,,,,,,,,,,,,,,,,,,,,,,,,,,,,,,,,,,,,,,,,,,,,,,,,,,,,,,,,,,,,,,,,,,,,,,,,,,,,,,,,,,,,,,,
,,5e38397719e44f0244389781,2026-03-17_11h24.59.976,kallum_motion_pilot_GIST_update_2,2026.1.1,Win32,59.52380952,5e38397719e44f0244389781,69b95efdef24cd8a694e89ee,69b963213b545e6327246fb0,0.026,0.026,0,134,134,11,1,twofour,,,,,,,,,,,,,,,,,,,,,,,,,,,,,,,,,,,,,,,,,,,,,,,,,,,,,,,,,,,,,,,,,,,,,,,,,,,,,,,,,,,,,,,,,,,,,,,,,,,,,,,,,,,,,,,,,,,,,,,,,,,,,,,,,,,,,,,,,
,,5e38397719e44f0244389781,2026-03-17_11h24.59.976,kallum_motion_pilot_GIST_update_2,2026.1.1,Win32,59.52380952,5e38397719e44f0244389781,69b95efdef24cd8a694e89ee,69b963213b545e6327246fb0,0.0261,0.0261,0,135,135,86,1,eightsix,,,,,,,,,,,,,,,,,,,,,,,,,,,,,,,,,,,,,,,,,,,,,,,,,,,,,,,,,,,,,,,,,,,,,,,,,,,,,,,,,,,,,,,,,,,,,,,,,,,,,,,,,,,,,,,,,,,,,,,,,,,,,,,,,,,,,,,,,
,,5e38397719e44f0244389781,2026-03-17_11h24.59.976,kallum_motion_pilot_GIST_update_2,2026.1.1,Win32,59.52380952,5e38397719e44f0244389781,69b95efdef24cd8a694e89ee,69b963213b545e6327246fb0,0.0262,0.0262,0,136,136,112,1,fivesix,,,,,,,,,,,,,,,,,,,,,,,,,,,,,,,,,,,,,,,,,,,,,,,,,,,,,,,,,,,,,,,,,,,,,,,,,,,,,,,,,,,,,,,,,,,,,,,,,,,,,,,,,,,,,,,,,,,,,,,,,,,,,,,,,,,,,,,,,
,,5e38397719e44f0244389781,2026-03-17_11h24.59.976,kallum_motion_pilot_GIST_update_2,2026.1.1,Win32,59.52380952,5e38397719e44f0244389781,69b95efdef24cd8a694e89ee,69b963213b545e6327246fb0,0.0266,0.0266,0,137,137,14,1,fourtwo,,,,,,,,,,,,,,,,,,,,,,,,,,,,,,,,,,,,,,,,,,,,,,,,,,,,,,,,,,,,,,,,,,,,,,,,,,,,,,,,,,,,,,,,,,,,,,,,,,,,,,,,,,,,,,,,,,,,,,,,,,,,,,,,,,,,,,,,,
,,5e38397719e44f0244389781,2026-03-17_11h24.59.976,kallum_motion_pilot_GIST_update_2,2026.1.1,Win32,59.52380952,5e38397719e44f0244389781,69b95efdef24cd8a694e89ee,69b963213b545e6327246fb0,0.0267,0.0267,0,138,138,0,1,onetwo,,,,,,,,,,,,,,,,,,,,,,,,,,,,,,,,,,,,,,,,,,,,,,,,,,,,,,,,,,,,,,,,,,,,,,,,,,,,,,,,,,,,,,,,,,,,,,,,,,,,,,,,,,,,,,,,,,,,,,,,,,,,,,,,,,,,,,,,,
,,5e38397719e44f0244389781,2026-03-17_11h24.59.976,kallum_motion_pilot_GIST_update_2,2026.1.1,Win32,59.52380952,5e38397719e44f0244389781,69b95efdef24cd8a694e89ee,69b963213b545e6327246fb0,0.0269,0.0269,0,139,139,135,1,eightseven,,,,,,,,,,,,,,,,,,,,,,,,,,,,,,,,,,,,,,,,,,,,,,,,,,,,,,,,,,,,,,,,,,,,,,,,,,,,,,,,,,,,,,,,,,,,,,,,,,,,,,,,,,,,,,,,,,,,,,,,,,,,,,,,,,,,,,,,,
,,5e38397719e44f0244389781,2026-03-17_11h24.59.976,kallum_motion_pilot_GIST_update_2,2026.1.1,Win32,59.52380952,5e38397719e44f0244389781,69b95efdef24cd8a694e89ee,69b963213b545e6327246fb0,0.027,0.027,0,140,140,104,1,fivesix,,,,,,,,,,,,,,,,,,,,,,,,,,,,,,,,,,,,,,,,,,,,,,,,,,,,,,,,,,,,,,,,,,,,,,,,,,,,,,,,,,,,,,,,,,,,,,,,,,,,,,,,,,,,,,,,,,,,,,,,,,,,,,,,,,,,,,,,,
,,5e38397719e44f0244389781,2026-03-17_11h24.59.976,kallum_motion_pilot_GIST_update_2,2026.1.1,Win32,59.52380952,5e38397719e44f0244389781,69b95efdef24cd8a694e89ee,69b963213b545e6327246fb0,0.0272,0.0272,0,141,141,157,1,seveneight,,,,,,,,,,,,,,,,,,,,,,,,,,,,,,,,,,,,,,,,,,,,,,,,,,,,,,,,,,,,,,,,,,,,,,,,,,,,,,,,,,,,,,,,,,,,,,,,,,,,,,,,,,,,,,,,,,,,,,,,,,,,,,,,,,,,,,,,,
,,5e38397719e44f0244389781,2026-03-17_11h24.59.976,kallum_motion_pilot_GIST_update_2,2026.1.1,Win32,59.52380952,5e38397719e44f0244389781,69b95efdef24cd8a694e89ee,69b963213b545e6327246fb0,0.0274,0.0274,0,142,142,123,1,sixeight,,,,,,,,,,,,,,,,,,,,,,,,,,,,,,,,,,,,,,,,,,,,,,,,,,,,,,,,,,,,,,,,,,,,,,,,,,,,,,,,,,,,,,,,,,,,,,,,,,,,,,,,,,,,,,,,,,,,,,,,,,,,,,,,,,,,,,,,,
,,5e38397719e44f0244389781,2026-03-17_11h24.59.976,kallum_motion_pilot_GIST_update_2,2026.1.1,Win32,59.52380952,5e38397719e44f0244389781,69b95efdef24cd8a694e89ee,69b963213b545e6327246fb0,0.0275,0.0275,0,143,143,128,1,fivesix,,,,,,,,,,,,,,,,,,,,,,,,,,,,,,,,,,,,,,,,,,,,,,,,,,,,,,,,,,,,,,,,,,,,,,,,,,,,,,,,,,,,,,,,,,,,,,,,,,,,,,,,,,,,,,,,,,,,,,,,,,,,,,,,,,,,,,,,,
,,5e38397719e44f0244389781,2026-03-17_11h24.59.976,kallum_motion_pilot_GIST_update_2,2026.1.1,Win32,59.52380952,5e38397719e44f0244389781,69b95efdef24cd8a694e89ee,69b963213b545e6327246fb0,0.0276,0.0276,0,144,144,3,1,twofour,,,,,,,,,,,,,,,,,,,,,,,,,,,,,,,,,,,,,,,,,,,,,,,,,,,,,,,,,,,,,,,,,,,,,,,,,,,,,,,,,,,,,,,,,,,,,,,,,,,,,,,,,,,,,,,,,,,,,,,,,,,,,,,,,,,,,,,,,
,,5e38397719e44f0244389781,2026-03-17_11h24.59.976,kallum_motion_pilot_GIST_update_2,2026.1.1,Win32,59.52380952,5e38397719e44f0244389781,69b95efdef24cd8a694e89ee,69b963213b545e6327246fb0,0.0277,0.0277,0,145,145,63,1,fourthree,,,,,,,,,,,,,,,,,,,,,,,,,,,,,,,,,,,,,,,,,,,,,,,,,,,,,,,,,,,,,,,,,,,,,,,,,,,,,,,,,,,,,,,,,,,,,,,,,,,,,,,,,,,,,,,,,,,,,,,,,,,,,,,,,,,,,,,,,
,,5e38397719e44f0244389781,2026-03-17_11h24.59.976,kallum_motion_pilot_GIST_update_2,2026.1.1,Win32,59.52380952,5e38397719e44f0244389781,69b95efdef24cd8a694e89ee,69b963213b545e6327246fb0,0.0279,0.0279,0,146,146,24,1,onetwo,,,,,,,,,,,,,,,,,,,,,,,,,,,,,,,,,,,,,,,,,,,,,,,,,,,,,,,,,,,,,,,,,,,,,,,,,,,,,,,,,,,,,,,,,,,,,,,,,,,,,,,,,,,,,,,,,,,,,,,,,,,,,,,,,,,,,,,,,
,,5e38397719e44f0244389781,2026-03-17_11h24.59.976,kallum_motion_pilot_GIST_update_2,2026.1.1,Win32,59.52380952,5e38397719e44f0244389781,69b95efdef24cd8a694e89ee,69b963213b545e6327246fb0,0.0281,0.0281,0,147,147,43,1,twofour,,,,,,,,,,,,,,,,,,,,,,,,,,,,,,,,,,,,,,,,,,,,,,,,,,,,,,,,,,,,,,,,,,,,,,,,,,,,,,,,,,,,,,,,,,,,,,,,,,,,,,,,,,,,,,,,,,,,,,,,,,,,,,,,,,,,,,,,,
,,5e38397719e44f0244389781,2026-03-17_11h24.59.976,kallum_motion_pilot_GIST_update_2,2026.1.1,Win32,59.52380952,5e38397719e44f0244389781,69b95efdef24cd8a694e89ee,69b963213b545e6327246fb0,0.0282,0.0282,0,148,148,64,1,onetwo,,,,,,,,,,,,,,,,,,,,,,,,,,,,,,,,,,,,,,,,,,,,,,,,,,,,,,,,,,,,,,,,,,,,,,,,,,,,,,,,,,,,,,,,,,,,,,,,,,,,,,,,,,,,,,,,,,,,,,,,,,,,,,,,,,,,,,,,,
,,5e38397719e44f0244389781,2026-03-17_11h24.59.976,kallum_motion_pilot_GIST_update_2,2026.1.1,Win32,59.52380952,5e38397719e44f0244389781,69b95efdef24cd8a694e89ee,69b963213b545e6327246fb0,0.0284,0.0284,0,149,149,12,1,threeone,,,,,,,,,,,,,,,,,,,,,,,,,,,,,,,,,,,,,,,,,,,,,,,,,,,,,,,,,,,,,,,,,,,,,,,,,,,,,,,,,,,,,,,,,,,,,,,,,,,,,,,,,,,,,,,,,,,,,,,,,,,,,,,,,,,,,,,,,
,,5e38397719e44f0244389781,2026-03-17_11h24.59.976,kallum_motion_pilot_GIST_update_2,2026.1.1,Win32,59.52380952,5e38397719e44f0244389781,69b95efdef24cd8a694e89ee,69b963213b545e6327246fb0,0.0285,0.0285,0,150,150,132,1,sevenfive,,,,,,,,,,,,,,,,,,,,,,,,,,,,,,,,,,,,,,,,,,,,,,,,,,,,,,,,,,,,,,,,,,,,,,,,,,,,,,,,,,,,,,,,,,,,,,,,,,,,,,,,,,,,,,,,,,,,,,,,,,,,,,,,,,,,,,,,,
,,5e38397719e44f0244389781,2026-03-17_11h24.59.976,kallum_motion_pilot_GIST_update_2,2026.1.1,Win32,59.52380952,5e38397719e44f0244389781,69b95efdef24cd8a694e89ee,69b963213b545e6327246fb0,0.0287,0.0287,0,151,151,41,1,onethree,,,,,,,,,,,,,,,,,,,,,,,,,,,,,,,,,,,,,,,,,,,,,,,,,,,,,,,,,,,,,,,,,,,,,,,,,,,,,,,,,,,,,,,,,,,,,,,,,,,,,,,,,,,,,,,,,,,,,,,,,,,,,,,,,,,,,,,,,
,,5e38397719e44f0244389781,2026-03-17_11h24.59.976,kallum_motion_pilot_GIST_update_2,2026.1.1,Win32,59.52380952,5e38397719e44f0244389781,69b95efdef24cd8a694e89ee,69b963213b545e6327246fb0,0.0288,0.0288,0,152,152,119,1,eightseven,,,,,,,,,,,,,,,,,,,,,,,,,,,,,,,,,,,,,,,,,,,,,,,,,,,,,,,,,,,,,,,,,,,,,,,,,,,,,,,,,,,,,,,,,,,,,,,,,,,,,,,,,,,,,,,,,,,,,,,,,,,,,,,,,,,,,,,,,
,,5e38397719e44f0244389781,2026-03-17_11h24.59.976,kallum_motion_pilot_GIST_update_2,2026.1.1,Win32,59.52380952,5e38397719e44f0244389781,69b95efdef24cd8a694e89ee,69b963213b545e6327246fb0,0.029,0.029,0,153,153,91,1,sixeight,,,,,,,,,,,,,,,,,,,,,,,,,,,,,,,,,,,,,,,,,,,,,,,,,,,,,,,,,,,,,,,,,,,,,,,,,,,,,,,,,,,,,,,,,,,,,,,,,,,,,,,,,,,,,,,,,,,,,,,,,,,,,,,,,,,,,,,,,
,,5e38397719e44f0244389781,2026-03-17_11h24.59.976,kallum_motion_pilot_GIST_update_2,2026.1.1,Win32,59.52380952,5e38397719e44f0244389781,69b95efdef24cd8a694e89ee,69b963213b545e6327246fb0,0.0292,0.0292,0,154,154,159,1,eightseven,,,,,,,,,,,,,,,,,,,,,,,,,,,,,,,,,,,,,,,,,,,,,,,,,,,,,,,,,,,,,,,,,,,,,,,,,,,,,,,,,,,,,,,,,,,,,,,,,,,,,,,,,,,,,,,,,,,,,,,,,,,,,,,,,,,,,,,,,
,,5e38397719e44f0244389781,2026-03-17_11h24.59.976,kallum_motion_pilot_GIST_update_2,2026.1.1,Win32,59.52380952,5e38397719e44f0244389781,69b95efdef24cd8a694e89ee,69b963213b545e6327246fb0,0.0294,0.0294,0,155,155,76,1,threeone,,,,,,,,,,,,,,,,,,,,,,,,,,,,,,,,,,,,,,,,,,,,,,,,,,,,,,,,,,,,,,,,,,,,,,,,,,,,,,,,,,,,,,,,,,,,,,,,,,,,,,,,,,,,,,,,,,,,,,,,,,,,,,,,,,,,,,,,,
,,5e38397719e44f0244389781,2026-03-17_11h24.59.976,kallum_motion_pilot_GIST_update_2,2026.1.1,Win32,59.52380952,5e38397719e44f0244389781,69b95efdef24cd8a694e89ee,69b963213b545e6327246fb0,0.0294,0.0294,0,156,156,100,1,sevenfive,,,,,,,,,,,,,,,,,,,,,,,,,,,,,,,,,,,,,,,,,,,,,,,,,,,,,,,,,,,,,,,,,,,,,,,,,,,,,,,,,,,,,,,,,,,,,,,,,,,,,,,,,,,,,,,,,,,,,,,,,,,,,,,,,,,,,,,,,
,,5e38397719e44f0244389781,2026-03-17_11h24.59.976,kallum_motion_pilot_GIST_update_2,2026.1.1,Win32,59.52380952,5e38397719e44f0244389781,69b95efdef24cd8a694e89ee,69b963213b545e6327246fb0,0.0296,0.0296,0,157,157,25,1,onethree,,,,,,,,,,,,,,,,,,,,,,,,,,,,,,,,,,,,,,,,,,,,,,,,,,,,,,,,,,,,,,,,,,,,,,,,,,,,,,,,,,,,,,,,,,,,,,,,,,,,,,,,,,,,,,,,,,,,,,,,,,,,,,,,,,,,,,,,,
,,5e38397719e44f0244389781,2026-03-17_11h24.59.976,kallum_motion_pilot_GIST_update_2,2026.1.1,Win32,59.52380952,5e38397719e44f0244389781,69b95efdef24cd8a694e89ee,69b963213b545e6327246fb0,0.0296,0.0296,0,158,158,61,1,threefour,,,,,,,,,,,,,,,,,,,,,,,,,,,,,,,,,,,,,,,,,,,,,,,,,,,,,,,,,,,,,,,,,,,,,,,,,,,,,,,,,,,,,,,,,,,,,,,,,,,,,,,,,,,,,,,,,,,,,,,,,,,,,,,,,,,,,,,,,
,,5e38397719e44f0244389781,2026-03-17_11h24.59.976,kallum_motion_pilot_GIST_update_2,2026.1.1,Win32,59.52380952,5e38397719e44f0244389781,69b95efdef24cd8a694e89ee,69b963213b545e6327246fb0,0.0298,0.0298,0,159,159,75,1,twofour,,,,,,,,,,,,,,,,,,,,,,,,,,,,,,,,,,,,,,,,,,,,,,,,,,,,,,,,,,,,,,,,,,,,,,,,,,,,,,,,,,,,,,,,,,,,,,,,,,,,,,,,,,,,,,,,,,,,,,,,,,,,,,,,,,,,,,,,,
,,5e38397719e44f0244389781,2026-03-17_11h24.59.976,kallum_motion_pilot_GIST_update_2,2026.1.1,Win32,59.52380952,5e38397719e44f0244389781,69b95efdef24cd8a694e89ee,69b963213b545e6327246fb0,0.0298,0.0298,0,160,160,125,1,seveneight,,,,,,,,,,,,,,,,,,,,,,,,,,,,,,,,,,,,,,,,,,,,,,,,,,,,,,,,,,,,,,,,,,,,,,,,,,,,,,,,,,,,,,,,,,,,,,,,,,,,,,,,,,,,,,,,,,,,,,,,,,,,,,,,,,,,,,,,,
,,5e38397719e44f0244389781,2026-03-17_11h24.59.976,kallum_motion_pilot_GIST_update_2,2026.1.1,Win32,59.52380952,5e38397719e44f0244389781,69b95efdef24cd8a694e89ee,69b963213b545e6327246fb0,0.0299,0.0299,0,161,161,19,1,twofour,,,,,,,,,,,,,,,,,,,,,,,,,,,,,,,,,,,,,,,,,,,,,,,,,,,,,,,,,,,,,,,,,,,,,,,,,,,,,,,,,,,,,,,,,,,,,,,,,,,,,,,,,,,,,,,,,,,,,,,,,,,,,,,,,,,,,,,,,
,,5e38397719e44f0244389781,2026-03-17_11h24.59.976,kallum_motion_pilot_GIST_update_2,2026.1.1,Win32,59.52380952,5e38397719e44f0244389781,69b95efdef24cd8a694e89ee,69b963213b545e6327246fb0,0.03,0.03,1,0,162,126,1,eightsix,,,,,,,,,,,,,,,,,,,,,,,,,,,,,,,,,,,,,,,,,,,,,,,,,,,,,,,,,,,,,,,,,,,,,,,,,,,,,,,,,,,,,,,,,,,,,,,,,,,,,,,,,,,,,,,,,,,,,,,,,,,,,,,,,,,,,,,,,
,,5e38397719e44f0244389781,2026-03-17_11h24.59.976,kallum_motion_pilot_GIST_update_2,2026.1.1,Win32,59.52380952,5e38397719e44f0244389781,69b95efdef24cd8a694e89ee,69b963213b545e6327246fb0,0.0301,0.0301,1,1,163,101,1,seveneight,,,,,,,,,,,,,,,,,,,,,,,,,,,,,,,,,,,,,,,,,,,,,,,,,,,,,,,,,,,,,,,,,,,,,,,,,,,,,,,,,,,,,,,,,,,,,,,,,,,,,,,,,,,,,,,,,,,,,,,,,,,,,,,,,,,,,,,,,
,,5e38397719e44f0244389781,2026-03-17_11h24.59.976,kallum_motion_pilot_GIST_update_2,2026.1.1,Win32,59.52380952,5e38397719e44f0244389781,69b95efdef24cd8a694e89ee,69b963213b545e6327246fb0,0.0302,0.0302,1,2,164,136,1,fivesix,,,,,,,,,,,,,,,,,,,,,,,,,,,,,,,,,,,,,,,,,,,,,,,,,,,,,,,,,,,,,,,,,,,,,,,,,,,,,,,,,,,,,,,,,,,,,,,,,,,,,,,,,,,,,,,,,,,,,,,,,,,,,,,,,,,,,,,,,
,,5e38397719e44f0244389781,2026-03-17_11h24.59.976,kallum_motion_pilot_GIST_update_2,2026.1.1,Win32,59.52380952,5e38397719e44f0244389781,69b95efdef24cd8a694e89ee,69b963213b545e6327246fb0,0.0302,0.0303,1,3,165,152,1,fivesix,,,,,,,,,,,,,,,,,,,,,,,,,,,,,,,,,,,,,,,,,,,,,,,,,,,,,,,,,,,,,,,,,,,,,,,,,,,,,,,,,,,,,,,,,,,,,,,,,,,,,,,,,,,,,,,,,,,,,,,,,,,,,,,,,,,,,,,,,
,,5e38397719e44f0244389781,2026-03-17_11h24.59.976,kallum_motion_pilot_GIST_update_2,2026.1.1,Win32,59.52380952,5e38397719e44f0244389781,69b95efdef24cd8a694e89ee,69b963213b545e6327246fb0,0.0303,0.0303,1,4,166,57,1,onethree,,,,,,,,,,,,,,,,,,,,,,,,,,,,,,,,,,,,,,,,,,,,,,,,,,,,,,,,,,,,,,,,,,,,,,,,,,,,,,,,,,,,,,,,,,,,,,,,,,,,,,,,,,,,,,,,,,,,,,,,,,,,,,,,,,,,,,,,,
,,5e38397719e44f0244389781,2026-03-17_11h24.59.976,kallum_motion_pilot_GIST_update_2,2026.1.1,Win32,59.52380952,5e38397719e44f0244389781,69b95efdef24cd8a694e89ee,69b963213b545e6327246fb0,0.0309,0.0309,1,5,167,158,1,eightsix,,,,,,,,,,,,,,,,,,,,,,,,,,,,,,,,,,,,,,,,,,,,,,,,,,,,,,,,,,,,,,,,,,,,,,,,,,,,,,,,,,,,,,,,,,,,,,,,,,,,,,,,,,,,,,,,,,,,,,,,,,,,,,,,,,,,,,,,,
,,5e38397719e44f0244389781,2026-03-17_11h24.59.976,kallum_motion_pilot_GIST_update_2,2026.1.1,Win32,59.52380952,5e38397719e44f0244389781,69b95efdef24cd8a694e89ee,69b963213b545e6327246fb0,0.031,0.031,1,6,168,78,1,fourtwo,,,,,,,,,,,,,,,,,,,,,,,,,,,,,,,,,,,,,,,,,,,,,,,,,,,,,,,,,,,,,,,,,,,,,,,,,,,,,,,,,,,,,,,,,,,,,,,,,,,,,,,,,,,,,,,,,,,,,,,,,,,,,,,,,,,,,,,,,
,,5e38397719e44f0244389781,2026-03-17_11h24.59.976,kallum_motion_pilot_GIST_update_2,2026.1.1,Win32,59.52380952,5e38397719e44f0244389781,69b95efdef24cd8a694e89ee,69b963213b545e6327246fb0,0.031,0.031,1,7,169,83,1,sixeight,,,,,,,,,,,,,,,,,,,,,,,,,,,,,,,,,,,,,,,,,,,,,,,,,,,,,,,,,,,,,,,,,,,,,,,,,,,,,,,,,,,,,,,,,,,,,,,,,,,,,,,,,,,,,,,,,,,,,,,,,,,,,,,,,,,,,,,,,
,,5e38397719e44f0244389781,2026-03-17_11h24.59.976,kallum_motion_pilot_GIST_update_2,2026.1.1,Win32,59.52380952,5e38397719e44f0244389781,69b95efdef24cd8a694e89ee,69b963213b545e6327246fb0,0.0311,0.0311,1,8,170,86,1,eightsix,,,,,,,,,,,,,,,,,,,,,,,,,,,,,,,,,,,,,,,,,,,,,,,,,,,,,,,,,,,,,,,,,,,,,,,,,,,,,,,,,,,,,,,,,,,,,,,,,,,,,,,,,,,,,,,,,,,,,,,,,,,,,,,,,,,,,,,,,
,,5e38397719e44f0244389781,2026-03-17_11h24.59.976,kallum_motion_pilot_GIST_update_2,2026.1.1,Win32,59.52380952,5e38397719e44f0244389781,69b95efdef24cd8a694e89ee,69b963213b545e6327246fb0,0.0312,0.0312,1,9,171,98,1,sixfive,,,,,,,,,,,,,,,,,,,,,,,,,,,,,,,,,,,,,,,,,,,,,,,,,,,,,,,,,,,,,,,,,,,,,,,,,,,,,,,,,,,,,,,,,,,,,,,,,,,,,,,,,,,,,,,,,,,,,,,,,,,,,,,,,,,,,,,,,
,,5e38397719e44f0244389781,2026-03-17_11h24.59.976,kallum_motion_pilot_GIST_update_2,2026.1.1,Win32,59.52380952,5e38397719e44f0244389781,69b95efdef24cd8a694e89ee,69b963213b545e6327246fb0,0.0313,0.0313,1,10,172,97,1,fiveseven,,,,,,,,,,,,,,,,,,,,,,,,,,,,,,,,,,,,,,,,,,,,,,,,,,,,,,,,,,,,,,,,,,,,,,,,,,,,,,,,,,,,,,,,,,,,,,,,,,,,,,,,,,,,,,,,,,,,,,,,,,,,,,,,,,,,,,,,,
,,5e38397719e44f0244389781,2026-03-17_11h24.59.976,kallum_motion_pilot_GIST_update_2,2026.1.1,Win32,59.52380952,5e38397719e44f0244389781,69b95efdef24cd8a694e89ee,69b963213b545e6327246fb0,0.0313,0.0313,1,11,173,114,1,sixfive,,,,,,,,,,,,,,,,,,,,,,,,,,,,,,,,,,,,,,,,,,,,,,,,,,,,,,,,,,,,,,,,,,,,,,,,,,,,,,,,,,,,,,,,,,,,,,,,,,,,,,,,,,,,,,,,,,,,,,,,,,,,,,,,,,,,,,,,,
,,5e38397719e44f0244389781,2026-03-17_11h24.59.976,kallum_motion_pilot_GIST_update_2,2026.1.1,Win32,59.52380952,5e38397719e44f0244389781,69b95efdef24cd8a694e89ee,69b963213b545e6327246fb0,0.0314,0.0314,1,12,174,64,1,onetwo,,,,,,,,,,,,,,,,,,,,,,,,,,,,,,,,,,,,,,,,,,,,,,,,,,,,,,,,,,,,,,,,,,,,,,,,,,,,,,,,,,,,,,,,,,,,,,,,,,,,,,,,,,,,,,,,,,,,,,,,,,,,,,,,,,,,,,,,,
,,5e38397719e44f0244389781,2026-03-17_11h24.59.976,kallum_motion_pilot_GIST_update_2,2026.1.1,Win32,59.52380952,5e38397719e44f0244389781,69b95efdef24cd8a694e89ee,69b963213b545e6327246fb0,0.0315,0.0315,1,13,175,27,1,twofour,,,,,,,,,,,,,,,,,,,,,,,,,,,,,,,,,,,,,,,,,,,,,,,,,,,,,,,,,,,,,,,,,,,,,,,,,,,,,,,,,,,,,,,,,,,,,,,,,,,,,,,,,,,,,,,,,,,,,,,,,,,,,,,,,,,,,,,,,
,,5e38397719e44f0244389781,2026-03-17_11h24.59.976,kallum_motion_pilot_GIST_update_2,2026.1.1,Win32,59.52380952,5e38397719e44f0244389781,69b95efdef24cd8a694e89ee,69b963213b545e6327246fb0,0.0316,0.0316,1,14,176,59,1,twofour,,,,,,,,,,,,,,,,,,,,,,,,,,,,,,,,,,,,,,,,,,,,,,,,,,,,,,,,,,,,,,,,,,,,,,,,,,,,,,,,,,,,,,,,,,,,,,,,,,,,,,,,,,,,,,,,,,,,,,,,,,,,,,,,,,,,,,,,,
,,5e38397719e44f0244389781,2026-03-17_11h24.59.976,kallum_motion_pilot_GIST_update_2,2026.1.1,Win32,59.52380952,5e38397719e44f0244389781,69b95efdef24cd8a694e89ee,69b963213b545e6327246fb0,0.0316,0.0316,1,15,177,63,1,fourthree,,,,,,,,,,,,,,,,,,,,,,,,,,,,,,,,,,,,,,,,,,,,,,,,,,,,,,,,,,,,,,,,,,,,,,,,,,,,,,,,,,,,,,,,,,,,,,,,,,,,,,,,,,,,,,,,,,,,,,,,,,,,,,,,,,,,,,,,,
,,5e38397719e44f0244389781,2026-03-17_11h24.59.976,kallum_motion_pilot_GIST_update_2,2026.1.1,Win32,59.52380952,5e38397719e44f0244389781,69b95efdef24cd8a694e89ee,69b963213b545e6327246fb0,0.0317,0.0317,1,16,178,161,1,fiveseven,,,,,,,,,,,,,,,,,,,,,,,,,,,,,,,,,,,,,,,,,,,,,,,,,,,,,,,,,,,,,,,,,,,,,,,,,,,,,,,,,,,,,,,,,,,,,,,,,,,,,,,,,,,,,,,,,,,,,,,,,,,,,,,,,,,,,,,,,
,,5e38397719e44f0244389781,2026-03-17_11h24.59.976,kallum_motion_pilot_GIST_update_2,2026.1.1,Win32,59.52380952,5e38397719e44f0244389781,69b95efdef24cd8a694e89ee,69b963213b545e6327246fb0,0.0318,0.0318,1,17,179,62,1,fourtwo,,,,,,,,,,,,,,,,,,,,,,,,,,,,,,,,,,,,,,,,,,,,,,,,,,,,,,,,,,,,,,,,,,,,,,,,,,,,,,,,,,,,,,,,,,,,,,,,,,,,,,,,,,,,,,,,,,,,,,,,,,,,,,,,,,,,,,,,,
,,5e38397719e44f0244389781,2026-03-17_11h24.59.976,kallum_motion_pilot_GIST_update_2,2026.1.1,Win32,59.52380952,5e38397719e44f0244389781,69b95efdef24cd8a694e89ee,69b963213b545e6327246fb0,0.0318,0.0318,1,18,180,119,1,eightseven,,,,,,,,,,,,,,,,,,,,,,,,,,,,,,,,,,,,,,,,,,,,,,,,,,,,,,,,,,,,,,,,,,,,,,,,,,,,,,,,,,,,,,,,,,,,,,,,,,,,,,,,,,,,,,,,,,,,,,,,,,,,,,,,,,,,,,,,,
,,5e38397719e44f0244389781,2026-03-17_11h24.59.976,kallum_motion_pilot_GIST_update_2,2026.1.1,Win32,59.52380952,5e38397719e44f0244389781,69b95efdef24cd8a694e89ee,69b963213b545e6327246fb0,0.032,0.032,1,19,181,15,1,fourthree,,,,,,,,,,,,,,,,,,,,,,,,,,,,,,,,,,,,,,,,,,,,,,,,,,,,,,,,,,,,,,,,,,,,,,,,,,,,,,,,,,,,,,,,,,,,,,,,,,,,,,,,,,,,,,,,,,,,,,,,,,,,,,,,,,,,,,,,,
,,5e38397719e44f0244389781,2026-03-17_11h24.59.976,kallum_motion_pilot_GIST_update_2,2026.1.1,Win32,59.52380952,5e38397719e44f0244389781,69b95efdef24cd8a694e89ee,69b963213b545e6327246fb0,0.032,0.032,1,20,182,3,1,twofour,,,,,,,,,,,,,,,,,,,,,,,,,,,,,,,,,,,,,,,,,,,,,,,,,,,,,,,,,,,,,,,,,,,,,,,,,,,,,,,,,,,,,,,,,,,,,,,,,,,,,,,,,,,,,,,,,,,,,,,,,,,,,,,,,,,,,,,,,
,,5e38397719e44f0244389781,2026-03-17_11h24.59.976,kallum_motion_pilot_GIST_update_2,2026.1.1,Win32,59.52380952,5e38397719e44f0244389781,69b95efdef24cd8a694e89ee,69b963213b545e6327246fb0,0.032,0.0321,1,21,183,28,1,threeone,,,,,,,,,,,,,,,,,,,,,,,,,,,,,,,,,,,,,,,,,,,,,,,,,,,,,,,,,,,,,,,,,,,,,,,,,,,,,,,,,,,,,,,,,,,,,,,,,,,,,,,,,,,,,,,,,,,,,,,,,,,,,,,,,,,,,,,,,
,,5e38397719e44f0244389781,2026-03-17_11h24.59.976,kallum_motion_pilot_GIST_update_2,2026.1.1,Win32,59.52380952,5e38397719e44f0244389781,69b95efdef24cd8a694e89ee,69b963213b545e6327246fb0,0.0321,0.0321,1,22,184,109,1,seveneight,,,,,,,,,,,,,,,,,,,,,,,,,,,,,,,,,,,,,,,,,,,,,,,,,,,,,,,,,,,,,,,,,,,,,,,,,,,,,,,,,,,,,,,,,,,,,,,,,,,,,,,,,,,,,,,,,,,,,,,,,,,,,,,,,,,,,,,,,
,,5e38397719e44f0244389781,2026-03-17_11h24.59.976,kallum_motion_pilot_GIST_update_2,2026.1.1,Win32,59.52380952,5e38397719e44f0244389781,69b95efdef24cd8a694e89ee,69b963213b545e6327246fb0,0.0323,0.0323,1,23,185,17,1,onethree,,,,,,,,,,,,,,,,,,,,,,,,,,,,,,,,,,,,,,,,,,,,,,,,,,,,,,,,,,,,,,,,,,,,,,,,,,,,,,,,,,,,,,,,,,,,,,,,,,,,,,,,,,,,,,,,,,,,,,,,,,,,,,,,,,,,,,,,,
,,5e38397719e44f0244389781,2026-03-17_11h24.59.976,kallum_motion_pilot_GIST_update_2,2026.1.1,Win32,59.52380952,5e38397719e44f0244389781,69b95efdef24cd8a694e89ee,69b963213b545e6327246fb0,0.0323,0.0323,1,24,186,123,1,sixeight,,,,,,,,,,,,,,,,,,,,,,,,,,,,,,,,,,,,,,,,,,,,,,,,,,,,,,,,,,,,,,,,,,,,,,,,,,,,,,,,,,,,,,,,,,,,,,,,,,,,,,,,,,,,,,,,,,,,,,,,,,,,,,,,,,,,,,,,,
,,5e38397719e44f0244389781,2026-03-17_11h24.59.976,kallum_motion_pilot_GIST_update_2,2026.1.1,Win32,59.52380952,5e38397719e44f0244389781,69b95efdef24cd8a694e89ee,69b963213b545e6327246fb0,0.0324,0.0324,1,25,187,108,1,sevenfive,,,,,,,,,,,,,,,,,,,,,,,,,,,,,,,,,,,,,,,,,,,,,,,,,,,,,,,,,,,,,,,,,,,,,,,,,,,,,,,,,,,,,,,,,,,,,,,,,,,,,,,,,,,,,,,,,,,,,,,,,,,,,,,,,,,,,,,,,
,,5e38397719e44f0244389781,2026-03-17_11h24.59.976,kallum_motion_pilot_GIST_update_2,2026.1.1,Win32,59.52380952,5e38397719e44f0244389781,69b95efdef24cd8a694e89ee,69b963213b545e6327246fb0,0.0324,0.0325,1,26,188,140,1,sevenfive,,,,,,,,,,,,,,,,,,,,,,,,,,,,,,,,,,,,,,,,,,,,,,,,,,,,,,,,,,,,,,,,,,,,,,,,,,,,,,,,,,,,,,,,,,,,,,,,,,,,,,,,,,,,,,,,,,,,,,,,,,,,,,,,,,,,,,,,,
,,5e38397719e44f0244389781,2026-03-17_11h24.59.976,kallum_motion_pilot_GIST_update_2,2026.1.1,Win32,59.52380952,5e38397719e44f0244389781,69b95efdef24cd8a694e89ee,69b963213b545e6327246fb0,0.0326,0.0326,1,27,189,71,1,fourthree,,,,,,,,,,,,,,,,,,,,,,,,,,,,,,,,,,,,,,,,,,,,,,,,,,,,,,,,,,,,,,,,,,,,,,,,,,,,,,,,,,,,,,,,,,,,,,,,,,,,,,,,,,,,,,,,,,,,,,,,,,,,,,,,,,,,,,,,,
,,5e38397719e44f0244389781,2026-03-17_11h24.59.976,kallum_motion_pilot_GIST_update_2,2026.1.1,Win32,59.52380952,5e38397719e44f0244389781,69b95efdef24cd8a694e89ee,69b963213b545e6327246fb0,0.0326,0.0326,1,28,190,41,1,onethree,,,,,,,,,,,,,,,,,,,,,,,,,,,,,,,,,,,,,,,,,,,,,,,,,,,,,,,,,,,,,,,,,,,,,,,,,,,,,,,,,,,,,,,,,,,,,,,,,,,,,,,,,,,,,,,,,,,,,,,,,,,,,,,,,,,,,,,,,
,,5e38397719e44f0244389781,2026-03-17_11h24.59.976,kallum_motion_pilot_GIST_update_2,2026.1.1,Win32,59.52380952,5e38397719e44f0244389781,69b95efdef24cd8a694e89ee,69b963213b545e6327246fb0,0.0326,0.0326,1,29,191,96,1,fivesix,,,,,,,,,,,,,,,,,,,,,,,,,,,,,,,,,,,,,,,,,,,,,,,,,,,,,,,,,,,,,,,,,,,,,,,,,,,,,,,,,,,,,,,,,,,,,,,,,,,,,,,,,,,,,,,,,,,,,,,,,,,,,,,,,,,,,,,,,
,,5e38397719e44f0244389781,2026-03-17_11h24.59.976,kallum_motion_pilot_GIST_update_2,2026.1.1,Win32,59.52380952,5e38397719e44f0244389781,69b95efdef24cd8a694e89ee,69b963213b545e6327246fb0,0.0327,0.0327,1,30,192,50,1,twoone,,,,,,,,,,,,,,,,,,,,,,,,,,,,,,,,,,,,,,,,,,,,,,,,,,,,,,,,,,,,,,,,,,,,,,,,,,,,,,,,,,,,,,,,,,,,,,,,,,,,,,,,,,,,,,,,,,,,,,,,,,,,,,,,,,,,,,,,,
,,5e38397719e44f0244389781,2026-03-17_11h24.59.976,kallum_motion_pilot_GIST_update_2,2026.1.1,Win32,59.52380952,5e38397719e44f0244389781,69b95efdef24cd8a694e89ee,69b963213b545e6327246fb0,0.0328,0.0328,1,31,193,1,1,onethree,,,,,,,,,,,,,,,,,,,,,,,,,,,,,,,,,,,,,,,,,,,,,,,,,,,,,,,,,,,,,,,,,,,,,,,,,,,,,,,,,,,,,,,,,,,,,,,,,,,,,,,,,,,,,,,,,,,,,,,,,,,,,,,,,,,,,,,,,
,,5e38397719e44f0244389781,2026-03-17_11h24.59.976,kallum_motion_pilot_GIST_update_2,2026.1.1,Win32,59.52380952,5e38397719e44f0244389781,69b95efdef24cd8a694e89ee,69b963213b545e6327246fb0,0.0329,0.0329,1,32,194,51,1,twofour,,,,,,,,,,,,,,,,,,,,,,,,,,,,,,,,,,,,,,,,,,,,,,,,,,,,,,,,,,,,,,,,,,,,,,,,,,,,,,,,,,,,,,,,,,,,,,,,,,,,,,,,,,,,,,,,,,,,,,,,,,,,,,,,,,,,,,,,,
,,5e38397719e44f0244389781,2026-03-17_11h24.59.976,kallum_motion_pilot_GIST_update_2,2026.1.1,Win32,59.52380952,5e38397719e44f0244389781,69b95efdef24cd8a694e89ee,69b963213b545e6327246fb0,0.033,0.033,1,33,195,117,1,seveneight,,,,,,,,,,,,,,,,,,,,,,,,,,,,,,,,,,,,,,,,,,,,,,,,,,,,,,,,,,,,,,,,,,,,,,,,,,,,,,,,,,,,,,,,,,,,,,,,,,,,,,,,,,,,,,,,,,,,,,,,,,,,,,,,,,,,,,,,,
,,5e38397719e44f0244389781,2026-03-17_11h24.59.976,kallum_motion_pilot_GIST_update_2,2026.1.1,Win32,59.52380952,5e38397719e44f0244389781,69b95efdef24cd8a694e89ee,69b963213b545e6327246fb0,0.0331,0.0331,1,34,196,2,1,twoone,,,,,,,,,,,,,,,,,,,,,,,,,,,,,,,,,,,,,,,,,,,,,,,,,,,,,,,,,,,,,,,,,,,,,,,,,,,,,,,,,,,,,,,,,,,,,,,,,,,,,,,,,,,,,,,,,,,,,,,,,,,,,,,,,,,,,,,,,
,,5e38397719e44f0244389781,2026-03-17_11h24.59.976,kallum_motion_pilot_GIST_update_2,2026.1.1,Win32,59.52380952,5e38397719e44f0244389781,69b95efdef24cd8a694e89ee,69b963213b545e6327246fb0,0.0332,0.0332,1,35,197,72,1,onetwo,,,,,,,,,,,,,,,,,,,,,,,,,,,,,,,,,,,,,,,,,,,,,,,,,,,,,,,,,,,,,,,,,,,,,,,,,,,,,,,,,,,,,,,,,,,,,,,,,,,,,,,,,,,,,,,,,,,,,,,,,,,,,,,,,,,,,,,,,
,,5e38397719e44f0244389781,2026-03-17_11h24.59.976,kallum_motion_pilot_GIST_update_2,2026.1.1,Win32,59.52380952,5e38397719e44f0244389781,69b95efdef24cd8a694e89ee,69b963213b545e6327246fb0,0.0332,0.0332,1,36,198,156,1,sevenfive,,,,,,,,,,,,,,,,,,,,,,,,,,,,,,,,,,,,,,,,,,,,,,,,,,,,,,,,,,,,,,,,,,,,,,,,,,,,,,,,,,,,,,,,,,,,,,,,,,,,,,,,,,,,,,,,,,,,,,,,,,,,,,,,,,,,,,,,,
,,5e38397719e44f0244389781,2026-03-17_11h24.59.976,kallum_motion_pilot_GIST_update_2,2026.1.1,Win32,59.52380952,5e38397719e44f0244389781,69b95efdef24cd8a694e89ee,69b963213b545e6327246fb0,0.0333,0.0333,1,37,199,94,1,eightsix,,,,,,,,,,,,,,,,,,,,,,,,,,,,,,,,,,,,,,,,,,,,,,,,,,,,,,,,,,,,,,,,,,,,,,,,,,,,,,,,,,,,,,,,,,,,,,,,,,,,,,,,,,,,,,,,,,,,,,,,,,,,,,,,,,,,,,,,,
,,5e38397719e44f0244389781,2026-03-17_11h24.59.976,kallum_motion_pilot_GIST_update_2,2026.1.1,Win32,59.52380952,5e38397719e44f0244389781,69b95efdef24cd8a694e89ee,69b963213b545e6327246fb0,0.0334,0.0334,1,38,200,103,1,eightseven,,,,,,,,,,,,,,,,,,,,,,,,,,,,,,,,,,,,,,,,,,,,,,,,,,,,,,,,,,,,,,,,,,,,,,,,,,,,,,,,,,,,,,,,,,,,,,,,,,,,,,,,,,,,,,,,,,,,,,,,,,,,,,,,,,,,,,,,,
,,5e38397719e44f0244389781,2026-03-17_11h24.59.976,kallum_motion_pilot_GIST_update_2,2026.1.1,Win32,59.52380952,5e38397719e44f0244389781,69b95efdef24cd8a694e89ee,69b963213b545e6327246fb0,0.0335,0.0335,1,39,201,107,1,sixeight,,,,,,,,,,,,,,,,,,,,,,,,,,,,,,,,,,,,,,,,,,,,,,,,,,,,,,,,,,,,,,,,,,,,,,,,,,,,,,,,,,,,,,,,,,,,,,,,,,,,,,,,,,,,,,,,,,,,,,,,,,,,,,,,,,,,,,,,,
,,5e38397719e44f0244389781,2026-03-17_11h24.59.976,kallum_motion_pilot_GIST_update_2,2026.1.1,Win32,59.52380952,5e38397719e44f0244389781,69b95efdef24cd8a694e89ee,69b963213b545e6327246fb0,0.0335,0.0335,1,40,202,118,1,eightsix,,,,,,,,,,,,,,,,,,,,,,,,,,,,,,,,,,,,,,,,,,,,,,,,,,,,,,,,,,,,,,,,,,,,,,,,,,,,,,,,,,,,,,,,,,,,,,,,,,,,,,,,,,,,,,,,,,,,,,,,,,,,,,,,,,,,,,,,,
,,5e38397719e44f0244389781,2026-03-17_11h24.59.976,kallum_motion_pilot_GIST_update_2,2026.1.1,Win32,59.52380952,5e38397719e44f0244389781,69b95efdef24cd8a694e89ee,69b963213b545e6327246fb0,0.0336,0.0336,1,41,203,131,1,sixeight,,,,,,,,,,,,,,,,,,,,,,,,,,,,,,,,,,,,,,,,,,,,,,,,,,,,,,,,,,,,,,,,,,,,,,,,,,,,,,,,,,,,,,,,,,,,,,,,,,,,,,,,,,,,,,,,,,,,,,,,,,,,,,,,,,,,,,,,,
,,5e38397719e44f0244389781,2026-03-17_11h24.59.976,kallum_motion_pilot_GIST_update_2,2026.1.1,Win32,59.52380952,5e38397719e44f0244389781,69b95efdef24cd8a694e89ee,69b963213b545e6327246fb0,0.0337,0.0337,1,42,204,60,1,threeone,,,,,,,,,,,,,,,,,,,,,,,,,,,,,,,,,,,,,,,,,,,,,,,,,,,,,,,,,,,,,,,,,,,,,,,,,,,,,,,,,,,,,,,,,,,,,,,,,,,,,,,,,,,,,,,,,,,,,,,,,,,,,,,,,,,,,,,,,
,,5e38397719e44f0244389781,2026-03-17_11h24.59.976,kallum_motion_pilot_GIST_update_2,2026.1.1,Win32,59.52380952,5e38397719e44f0244389781,69b95efdef24cd8a694e89ee,69b963213b545e6327246fb0,0.0338,0.0338,1,43,205,49,1,onethree,,,,,,,,,,,,,,,,,,,,,,,,,,,,,,,,,,,,,,,,,,,,,,,,,,,,,,,,,,,,,,,,,,,,,,,,,,,,,,,,,,,,,,,,,,,,,,,,,,,,,,,,,,,,,,,,,,,,,,,,,,,,,,,,,,,,,,,,,
,,5e38397719e44f0244389781,2026-03-17_11h24.59.976,kallum_motion_pilot_GIST_update_2,2026.1.1,Win32,59.52380952,5e38397719e44f0244389781,69b95efdef24cd8a694e89ee,69b963213b545e6327246fb0,0.0339,0.0339,1,44,206,87,1,eightseven,,,,,,,,,,,,,,,,,,,,,,,,,,,,,,,,,,,,,,,,,,,,,,,,,,,,,,,,,,,,,,,,,,,,,,,,,,,,,,,,,,,,,,,,,,,,,,,,,,,,,,,,,,,,,,,,,,,,,,,,,,,,,,,,,,,,,,,,,
,,5e38397719e44f0244389781,2026-03-17_11h24.59.976,kallum_motion_pilot_GIST_update_2,2026.1.1,Win32,59.52380952,5e38397719e44f0244389781,69b95efdef24cd8a694e89ee,69b963213b545e6327246fb0,0.0339,0.034,1,45,207,25,1,onethree,,,,,,,,,,,,,,,,,,,,,,,,,,,,,,,,,,,,,,,,,,,,,,,,,,,,,,,,,,,,,,,,,,,,,,,,,,,,,,,,,,,,,,,,,,,,,,,,,,,,,,,,,,,,,,,,,,,,,,,,,,,,,,,,,,,,,,,,,
,,5e38397719e44f0244389781,2026-03-17_11h24.59.976,kallum_motion_pilot_GIST_update_2,2026.1.1,Win32,59.52380952,5e38397719e44f0244389781,69b95efdef24cd8a694e89ee,69b963213b545e6327246fb0,0.034,0.034,1,46,208,37,1,threefour,,,,,,,,,,,,,,,,,,,,,,,,,,,,,,,,,,,,,,,,,,,,,,,,,,,,,,,,,,,,,,,,,,,,,,,,,,,,,,,,,,,,,,,,,,,,,,,,,,,,,,,,,,,,,,,,,,,,,,,,,,,,,,,,,,,,,,,,,
,,5e38397719e44f0244389781,2026-03-17_11h24.59.976,kallum_motion_pilot_GIST_update_2,2026.1.1,Win32,59.52380952,5e38397719e44f0244389781,69b95efdef24cd8a694e89ee,69b963213b545e6327246fb0,0.0341,0.0341,1,47,209,121,1,fiveseven,,,,,,,,,,,,,,,,,,,,,,,,,,,,,,,,,,,,,,,,,,,,,,,,,,,,,,,,,,,,,,,,,,,,,,,,,,,,,,,,,,,,,,,,,,,,,,,,,,,,,,,,,,,,,,,,,,,,,,,,,,,,,,,,,,,,,,,,,
,,5e38397719e44f0244389781,2026-03-17_11h24.59.976,kallum_motion_pilot_GIST_update_2,2026.1.1,Win32,59.52380952,5e38397719e44f0244389781,69b95efdef24cd8a694e89ee,69b963213b545e6327246fb0,0.0342,0.0342,1,48,210,95,1,eightseven,,,,,,,,,,,,,,,,,,,,,,,,,,,,,,,,,,,,,,,,,,,,,,,,,,,,,,,,,,,,,,,,,,,,,,,,,,,,,,,,,,,,,,,,,,,,,,,,,,,,,,,,,,,,,,,,,,,,,,,,,,,,,,,,,,,,,,,,,
,,5e38397719e44f0244389781,2026-03-17_11h24.59.976,kallum_motion_pilot_GIST_update_2,2026.1.1,Win32,59.52380952,5e38397719e44f0244389781,69b95efdef24cd8a694e89ee,69b963213b545e6327246fb0,0.0343,0.0343,1,49,211,56,1,onetwo,,,,,,,,,,,,,,,,,,,,,,,,,,,,,,,,,,,,,,,,,,,,,,,,,,,,,,,,,,,,,,,,,,,,,,,,,,,,,,,,,,,,,,,,,,,,,,,,,,,,,,,,,,,,,,,,,,,,,,,,,,,,,,,,,,,,,,,,,
,,5e38397719e44f0244389781,2026-03-17_11h24.59.976,kallum_motion_pilot_GIST_update_2,2026.1.1,Win32,59.52380952,5e38397719e44f0244389781,69b95efdef24cd8a694e89ee,69b963213b545e6327246fb0,0.0344,0.0344,1,50,212,138,1,sixfive,,,,,,,,,,,,,,,,,,,,,,,,,,,,,,,,,,,,,,,,,,,,,,,,,,,,,,,,,,,,,,,,,,,,,,,,,,,,,,,,,,,,,,,,,,,,,,,,,,,,,,,,,,,,,,,,,,,,,,,,,,,,,,,,,,,,,,,,,
,,5e38397719e44f0244389781,2026-03-17_11h24.59.976,kallum_motion_pilot_GIST_update_2,2026.1.1,Win32,59.52380952,5e38397719e44f0244389781,69b95efdef24cd8a694e89ee,69b963213b545e6327246fb0,0.0345,0.0345,1,51,213,105,1,fiveseven,,,,,,,,,,,,,,,,,,,,,,,,,,,,,,,,,,,,,,,,,,,,,,,,,,,,,,,,,,,,,,,,,,,,,,,,,,,,,,,,,,,,,,,,,,,,,,,,,,,,,,,,,,,,,,,,,,,,,,,,,,,,,,,,,,,,,,,,,
,,5e38397719e44f0244389781,2026-03-17_11h24.59.976,kallum_motion_pilot_GIST_update_2,2026.1.1,Win32,59.52380952,5e38397719e44f0244389781,69b95efdef24cd8a694e89ee,69b963213b545e6327246fb0,0.0345,0.0345,1,52,214,45,1,threefour,,,,,,,,,,,,,,,,,,,,,,,,,,,,,,,,,,,,,,,,,,,,,,,,,,,,,,,,,,,,,,,,,,,,,,,,,,,,,,,,,,,,,,,,,,,,,,,,,,,,,,,,,,,,,,,,,,,,,,,,,,,,,,,,,,,,,,,,,
,,5e38397719e44f0244389781,2026-03-17_11h24.59.976,kallum_motion_pilot_GIST_update_2,2026.1.1,Win32,59.52380952,5e38397719e44f0244389781,69b95efdef24cd8a694e89ee,69b963213b545e6327246fb0,0.0346,0.0346,1,53,215,102,1,eightsix,,,,,,,,,,,,,,,,,,,,,,,,,,,,,,,,,,,,,,,,,,,,,,,,,,,,,,,,,,,,,,,,,,,,,,,,,,,,,,,,,,,,,,,,,,,,,,,,,,,,,,,,,,,,,,,,,,,,,,,,,,,,,,,,,,,,,,,,,
,,5e38397719e44f0244389781,2026-03-17_11h24.59.976,kallum_motion_pilot_GIST_update_2,2026.1.1,Win32,59.52380952,5e38397719e44f0244389781,69b95efdef24cd8a694e89ee,69b963213b545e6327246fb0,0.0347,0.0347,1,54,216,34,1,twoone,,,,,,,,,,,,,,,,,,,,,,,,,,,,,,,,,,,,,,,,,,,,,,,,,,,,,,,,,,,,,,,,,,,,,,,,,,,,,,,,,,,,,,,,,,,,,,,,,,,,,,,,,,,,,,,,,,,,,,,,,,,,,,,,,,,,,,,,,
,,5e38397719e44f0244389781,2026-03-17_11h24.59.976,kallum_motion_pilot_GIST_update_2,2026.1.1,Win32,59.52380952,5e38397719e44f0244389781,69b95efdef24cd8a694e89ee,69b963213b545e6327246fb0,0.0348,0.0348,1,55,217,104,1,fivesix,,,,,,,,,,,,,,,,,,,,,,,,,,,,,,,,,,,,,,,,,,,,,,,,,,,,,,,,,,,,,,,,,,,,,,,,,,,,,,,,,,,,,,,,,,,,,,,,,,,,,,,,,,,,,,,,,,,,,,,,,,,,,,,,,,,,,,,,,
,,5e38397719e44f0244389781,2026-03-17_11h24.59.976,kallum_motion_pilot_GIST_update_2,2026.1.1,Win32,59.52380952,5e38397719e44f0244389781,69b95efdef24cd8a694e89ee,69b963213b545e6327246fb0,0.0349,0.0349,1,56,218,153,1,fiveseven,,,,,,,,,,,,,,,,,,,,,,,,,,,,,,,,,,,,,,,,,,,,,,,,,,,,,,,,,,,,,,,,,,,,,,,,,,,,,,,,,,,,,,,,,,,,,,,,,,,,,,,,,,,,,,,,,,,,,,,,,,,,,,,,,,,,,,,,,
,,5e38397719e44f0244389781,2026-03-17_11h24.59.976,kallum_motion_pilot_GIST_update_2,2026.1.1,Win32,59.52380952,5e38397719e44f0244389781,69b95efdef24cd8a694e89ee,69b963213b545e6327246fb0,0.0349,0.0349,1,57,219,141,1,seveneight,,,,,,,,,,,,,,,,,,,,,,,,,,,,,,,,,,,,,,,,,,,,,,,,,,,,,,,,,,,,,,,,,,,,,,,,,,,,,,,,,,,,,,,,,,,,,,,,,,,,,,,,,,,,,,,,,,,,,,,,,,,,,,,,,,,,,,,,,
,,5e38397719e44f0244389781,2026-03-17_11h24.59.976,kallum_motion_pilot_GIST_update_2,2026.1.1,Win32,59.52380952,5e38397719e44f0244389781,69b95efdef24cd8a694e89ee,69b963213b545e6327246fb0,0.035,0.035,1,58,220,139,1,sixeight,,,,,,,,,,,,,,,,,,,,,,,,,,,,,,,,,,,,,,,,,,,,,,,,,,,,,,,,,,,,,,,,,,,,,,,,,,,,,,,,,,,,,,,,,,,,,,,,,,,,,,,,,,,,,,,,,,,,,,,,,,,,,,,,,,,,,,,,,
,,5e38397719e44f0244389781,2026-03-17_11h24.59.976,kallum_motion_pilot_GIST_update_2,2026.1.1,Win32,59.52380952,5e38397719e44f0244389781,69b95efdef24cd8a694e89ee,69b963213b545e6327246fb0,0.0351,0.0351,1,59,221,81,1,fiveseven,,,,,,,,,,,,,,,,,,,,,,,,,,,,,,,,,,,,,,,,,,,,,,,,,,,,,,,,,,,,,,,,,,,,,,,,,,,,,,,,,,,,,,,,,,,,,,,,,,,,,,,,,,,,,,,,,,,,,,,,,,,,,,,,,,,,,,,,,
,,5e38397719e44f0244389781,2026-03-17_11h24.59.976,kallum_motion_pilot_GIST_update_2,2026.1.1,Win32,59.52380952,5e38397719e44f0244389781,69b95efdef24cd8a694e89ee,69b963213b545e6327246fb0,0.0352,0.0352,1,60,222,46,1,fourtwo,,,,,,,,,,,,,,,,,,,,,,,,,,,,,,,,,,,,,,,,,,,,,,,,,,,,,,,,,,,,,,,,,,,,,,,,,,,,,,,,,,,,,,,,,,,,,,,,,,,,,,,,,,,,,,,,,,,,,,,,,,,,,,,,,,,,,,,,,
,,5e38397719e44f0244389781,2026-03-17_11h24.59.976,kallum_motion_pilot_GIST_update_2,2026.1.1,Win32,59.52380952,5e38397719e44f0244389781,69b95efdef24cd8a694e89ee,69b963213b545e6327246fb0,0.0352,0.0352,1,61,223,132,1,sevenfive,,,,,,,,,,,,,,,,,,,,,,,,,,,,,,,,,,,,,,,,,,,,,,,,,,,,,,,,,,,,,,,,,,,,,,,,,,,,,,,,,,,,,,,,,,,,,,,,,,,,,,,,,,,,,,,,,,,,,,,,,,,,,,,,,,,,,,,,,
,,5e38397719e44f0244389781,2026-03-17_11h24.59.976,kallum_motion_pilot_GIST_update_2,2026.1.1,Win32,59.52380952,5e38397719e44f0244389781,69b95efdef24cd8a694e89ee,69b963213b545e6327246fb0,0.0353,0.0353,1,62,224,112,1,fivesix,,,,,,,,,,,,,,,,,,,,,,,,,,,,,,,,,,,,,,,,,,,,,,,,,,,,,,,,,,,,,,,,,,,,,,,,,,,,,,,,,,,,,,,,,,,,,,,,,,,,,,,,,,,,,,,,,,,,,,,,,,,,,,,,,,,,,,,,,
,,5e38397719e44f0244389781,2026-03-17_11h24.59.976,kallum_motion_pilot_GIST_update_2,2026.1.1,Win32,59.52380952,5e38397719e44f0244389781,69b95efdef24cd8a694e89ee,69b963213b545e6327246fb0,0.0354,0.0354,1,63,225,4,1,threeone,,,,,,,,,,,,,,,,,,,,,,,,,,,,,,,,,,,,,,,,,,,,,,,,,,,,,,,,,,,,,,,,,,,,,,,,,,,,,,,,,,,,,,,,,,,,,,,,,,,,,,,,,,,,,,,,,,,,,,,,,,,,,,,,,,,,,,,,,
,,5e38397719e44f0244389781,2026-03-17_11h24.59.976,kallum_motion_pilot_GIST_update_2,2026.1.1,Win32,59.52380952,5e38397719e44f0244389781,69b95efdef24cd8a694e89ee,69b963213b545e6327246fb0,0.0355,0.0355,1,64,226,106,1,sixfive,,,,,,,,,,,,,,,,,,,,,,,,,,,,,,,,,,,,,,,,,,,,,,,,,,,,,,,,,,,,,,,,,,,,,,,,,,,,,,,,,,,,,,,,,,,,,,,,,,,,,,,,,,,,,,,,,,,,,,,,,,,,,,,,,,,,,,,,,
,,5e38397719e44f0244389781,2026-03-17_11h24.59.976,kallum_motion_pilot_GIST_update_2,2026.1.1,Win32,59.52380952,5e38397719e44f0244389781,69b95efdef24cd8a694e89ee,69b963213b545e6327246fb0,0.0356,0.0356,1,65,227,149,1,seveneight,,,,,,,,,,,,,,,,,,,,,,,,,,,,,,,,,,,,,,,,,,,,,,,,,,,,,,,,,,,,,,,,,,,,,,,,,,,,,,,,,,,,,,,,,,,,,,,,,,,,,,,,,,,,,,,,,,,,,,,,,,,,,,,,,,,,,,,,,
,,5e38397719e44f0244389781,2026-03-17_11h24.59.976,kallum_motion_pilot_GIST_update_2,2026.1.1,Win32,59.52380952,5e38397719e44f0244389781,69b95efdef24cd8a694e89ee,69b963213b545e6327246fb0,0.0356,0.0356,1,66,228,30,1,fourtwo,,,,,,,,,,,,,,,,,,,,,,,,,,,,,,,,,,,,,,,,,,,,,,,,,,,,,,,,,,,,,,,,,,,,,,,,,,,,,,,,,,,,,,,,,,,,,,,,,,,,,,,,,,,,,,,,,,,,,,,,,,,,,,,,,,,,,,,,,
,,5e38397719e44f0244389781,2026-03-17_11h24.59.976,kallum_motion_pilot_GIST_update_2,2026.1.1,Win32,59.52380952,5e38397719e44f0244389781,69b95efdef24cd8a694e89ee,69b963213b545e6327246fb0,0.0357,0.0357,1,67,229,75,1,twofour,,,,,,,,,,,,,,,,,,,,,,,,,,,,,,,,,,,,,,,,,,,,,,,,,,,,,,,,,,,,,,,,,,,,,,,,,,,,,,,,,,,,,,,,,,,,,,,,,,,,,,,,,,,,,,,,,,,,,,,,,,,,,,,,,,,,,,,,,
,,5e38397719e44f0244389781,2026-03-17_11h24.59.976,kallum_motion_pilot_GIST_update_2,2026.1.1,Win32,59.52380952,5e38397719e44f0244389781,69b95efdef24cd8a694e89ee,69b963213b545e6327246fb0,0.0357,0.0357,1,68,230,42,1,twoone,,,,,,,,,,,,,,,,,,,,,,,,,,,,,,,,,,,,,,,,,,,,,,,,,,,,,,,,,,,,,,,,,,,,,,,,,,,,,,,,,,,,,,,,,,,,,,,,,,,,,,,,,,,,,,,,,,,,,,,,,,,,,,,,,,,,,,,,,
,,5e38397719e44f0244389781,2026-03-17_11h24.59.976,kallum_motion_pilot_GIST_update_2,2026.1.1,Win32,59.52380952,5e38397719e44f0244389781,69b95efdef24cd8a694e89ee,69b963213b545e6327246fb0,0.0359,0.0359,1,69,231,73,1,onethree,,,,,,,,,,,,,,,,,,,,,,,,,,,,,,,,,,,,,,,,,,,,,,,,,,,,,,,,,,,,,,,,,,,,,,,,,,,,,,,,,,,,,,,,,,,,,,,,,,,,,,,,,,,,,,,,,,,,,,,,,,,,,,,,,,,,,,,,,
,,5e38397719e44f0244389781,2026-03-17_11h24.59.976,kallum_motion_pilot_GIST_update_2,2026.1.1,Win32,59.52380952,5e38397719e44f0244389781,69b95efdef24cd8a694e89ee,69b963213b545e6327246fb0,0.0359,0.0359,1,70,232,21,1,threefour,,,,,,,,,,,,,,,,,,,,,,,,,,,,,,,,,,,,,,,,,,,,,,,,,,,,,,,,,,,,,,,,,,,,,,,,,,,,,,,,,,,,,,,,,,,,,,,,,,,,,,,,,,,,,,,,,,,,,,,,,,,,,,,,,,,,,,,,,
,,5e38397719e44f0244389781,2026-03-17_11h24.59.976,kallum_motion_pilot_GIST_update_2,2026.1.1,Win32,59.52380952,5e38397719e44f0244389781,69b95efdef24cd8a694e89ee,69b963213b545e6327246fb0,0.036,0.036,1,71,233,79,1,eightseven,,,,,,,,,,,,,,,,,,,,,,,,,,,,,,,,,,,,,,,,,,,,,,,,,,,,,,,,,,,,,,,,,,,,,,,,,,,,,,,,,,,,,,,,,,,,,,,,,,,,,,,,,,,,,,,,,,,,,,,,,,,,,,,,,,,,,,,,,
,,5e38397719e44f0244389781,2026-03-17_11h24.59.976,kallum_motion_pilot_GIST_update_2,2026.1.1,Win32,59.52380952,5e38397719e44f0244389781,69b95efdef24cd8a694e89ee,69b963213b545e6327246fb0,0.0361,0.0361,1,72,234,26,1,twoone,,,,,,,,,,,,,,,,,,,,,,,,,,,,,,,,,,,,,,,,,,,,,,,,,,,,,,,,,,,,,,,,,,,,,,,,,,,,,,,,,,,,,,,,,,,,,,,,,,,,,,,,,,,,,,,,,,,,,,,,,,,,,,,,,,,,,,,,,
,,5e38397719e44f0244389781,2026-03-17_11h24.59.976,kallum_motion_pilot_GIST_update_2,2026.1.1,Win32,59.52380952,5e38397719e44f0244389781,69b95efdef24cd8a694e89ee,69b963213b545e6327246fb0,0.0362,0.0362,1,73,235,43,1,twofour,,,,,,,,,,,,,,,,,,,,,,,,,,,,,,,,,,,,,,,,,,,,,,,,,,,,,,,,,,,,,,,,,,,,,,,,,,,,,,,,,,,,,,,,,,,,,,,,,,,,,,,,,,,,,,,,,,,,,,,,,,,,,,,,,,,,,,,,,
,,5e38397719e44f0244389781,2026-03-17_11h24.59.976,kallum_motion_pilot_GIST_update_2,2026.1.1,Win32,59.52380952,5e38397719e44f0244389781,69b95efdef24cd8a694e89ee,69b963213b545e6327246fb0,0.0363,0.0363,1,74,236,84,1,sevenfive,,,,,,,,,,,,,,,,,,,,,,,,,,,,,,,,,,,,,,,,,,,,,,,,,,,,,,,,,,,,,,,,,,,,,,,,,,,,,,,,,,,,,,,,,,,,,,,,,,,,,,,,,,,,,,,,,,,,,,,,,,,,,,,,,,,,,,,,,
,,5e38397719e44f0244389781,2026-03-17_11h24.59.976,kallum_motion_pilot_GIST_update_2,2026.1.1,Win32,59.52380952,5e38397719e44f0244389781,69b95efdef24cd8a694e89ee,69b963213b545e6327246fb0,0.0363,0.0364,1,75,237,80,1,fivesix,,,,,,,,,,,,,,,,,,,,,,,,,,,,,,,,,,,,,,,,,,,,,,,,,,,,,,,,,,,,,,,,,,,,,,,,,,,,,,,,,,,,,,,,,,,,,,,,,,,,,,,,,,,,,,,,,,,,,,,,,,,,,,,,,,,,,,,,,
,,5e38397719e44f0244389781,2026-03-17_11h24.59.976,kallum_motion_pilot_GIST_update_2,2026.1.1,Win32,59.52380952,5e38397719e44f0244389781,69b95efdef24cd8a694e89ee,69b963213b545e6327246fb0,0.0364,0.0364,1,76,238,13,1,threefour,,,,,,,,,,,,,,,,,,,,,,,,,,,,,,,,,,,,,,,,,,,,,,,,,,,,,,,,,,,,,,,,,,,,,,,,,,,,,,,,,,,,,,,,,,,,,,,,,,,,,,,,,,,,,,,,,,,,,,,,,,,,,,,,,,,,,,,,,
,,5e38397719e44f0244389781,2026-03-17_11h24.59.976,kallum_motion_pilot_GIST_update_2,2026.1.1,Win32,59.52380952,5e38397719e44f0244389781,69b95efdef24cd8a694e89ee,69b963213b545e6327246fb0,0.0365,0.0365,1,77,239,10,1,twoone,,,,,,,,,,,,,,,,,,,,,,,,,,,,,,,,,,,,,,,,,,,,,,,,,,,,,,,,,,,,,,,,,,,,,,,,,,,,,,,,,,,,,,,,,,,,,,,,,,,,,,,,,,,,,,,,,,,,,,,,,,,,,,,,,,,,,,,,,
,,5e38397719e44f0244389781,2026-03-17_11h24.59.976,kallum_motion_pilot_GIST_update_2,2026.1.1,Win32,59.52380952,5e38397719e44f0244389781,69b95efdef24cd8a694e89ee,69b963213b545e6327246fb0,0.0366,0.0366,1,78,240,8,1,onetwo,,,,,,,,,,,,,,,,,,,,,,,,,,,,,,,,,,,,,,,,,,,,,,,,,,,,,,,,,,,,,,,,,,,,,,,,,,,,,,,,,,,,,,,,,,,,,,,,,,,,,,,,,,,,,,,,,,,,,,,,,,,,,,,,,,,,,,,,,
,,5e38397719e44f0244389781,2026-03-17_11h24.59.976,kallum_motion_pilot_GIST_update_2,2026.1.1,Win32,59.52380952,5e38397719e44f0244389781,69b95efdef24cd8a694e89ee,69b963213b545e6327246fb0,0.0367,0.0367,1,79,241,65,1,onethree,,,,,,,,,,,,,,,,,,,,,,,,,,,,,,,,,,,,,,,,,,,,,,,,,,,,,,,,,,,,,,,,,,,,,,,,,,,,,,,,,,,,,,,,,,,,,,,,,,,,,,,,,,,,,,,,,,,,,,,,,,,,,,,,,,,,,,,,,
,,5e38397719e44f0244389781,2026-03-17_11h24.59.976,kallum_motion_pilot_GIST_update_2,2026.1.1,Win32,59.52380952,5e38397719e44f0244389781,69b95efdef24cd8a694e89ee,69b963213b545e6327246fb0,0.0368,0.0368,1,80,242,36,1,threeone,,,,,,,,,,,,,,,,,,,,,,,,,,,,,,,,,,,,,,,,,,,,,,,,,,,,,,,,,,,,,,,,,,,,,,,,,,,,,,,,,,,,,,,,,,,,,,,,,,,,,,,,,,,,,,,,,,,,,,,,,,,,,,,,,,,,,,,,,
,,5e38397719e44f0244389781,2026-03-17_11h24.59.976,kallum_motion_pilot_GIST_update_2,2026.1.1,Win32,59.52380952,5e38397719e44f0244389781,69b95efdef24cd8a694e89ee,69b963213b545e6327246fb0,0.0368,0.0368,1,81,243,100,1,sevenfive,,,,,,,,,,,,,,,,,,,,,,,,,,,,,,,,,,,,,,,,,,,,,,,,,,,,,,,,,,,,,,,,,,,,,,,,,,,,,,,,,,,,,,,,,,,,,,,,,,,,,,,,,,,,,,,,,,,,,,,,,,,,,,,,,,,,,,,,,
,,5e38397719e44f0244389781,2026-03-17_11h24.59.976,kallum_motion_pilot_GIST_update_2,2026.1.1,Win32,59.52380952,5e38397719e44f0244389781,69b95efdef24cd8a694e89ee,69b963213b545e6327246fb0,0.037,0.037,1,82,244,147,1,sixeight,,,,,,,,,,,,,,,,,,,,,,,,,,,,,,,,,,,,,,,,,,,,,,,,,,,,,,,,,,,,,,,,,,,,,,,,,,,,,,,,,,,,,,,,,,,,,,,,,,,,,,,,,,,,,,,,,,,,,,,,,,,,,,,,,,,,,,,,,
,,5e38397719e44f0244389781,2026-03-17_11h24.59.976,kallum_motion_pilot_GIST_update_2,2026.1.1,Win32,59.52380952,5e38397719e44f0244389781,69b95efdef24cd8a694e89ee,69b963213b545e6327246fb0,0.037,0.037,1,83,245,38,1,fourtwo,,,,,,,,,,,,,,,,,,,,,,,,,,,,,,,,,,,,,,,,,,,,,,,,,,,,,,,,,,,,,,,,,,,,,,,,,,,,,,,,,,,,,,,,,,,,,,,,,,,,,,,,,,,,,,,,,,,,,,,,,,,,,,,,,,,,,,,,,
,,5e38397719e44f0244389781,2026-03-17_11h24.59.976,kallum_motion_pilot_GIST_update_2,2026.1.1,Win32,59.52380952,5e38397719e44f0244389781,69b95efdef24cd8a694e89ee,69b963213b545e6327246fb0,0.0371,0.0371,1,84,246,29,1,threefour,,,,,,,,,,,,,,,,,,,,,,,,,,,,,,,,,,,,,,,,,,,,,,,,,,,,,,,,,,,,,,,,,,,,,,,,,,,,,,,,,,,,,,,,,,,,,,,,,,,,,,,,,,,,,,,,,,,,,,,,,,,,,,,,,,,,,,,,,
,,5e38397719e44f0244389781,2026-03-17_11h24.59.976,kallum_motion_pilot_GIST_update_2,2026.1.1,Win32,59.52380952,5e38397719e44f0244389781,69b95efdef24cd8a694e89ee,69b963213b545e6327246fb0,0.0372,0.0372,1,85,247,128,1,fivesix,,,,,,,,,,,,,,,,,,,,,,,,,,,,,,,,,,,,,,,,,,,,,,,,,,,,,,,,,,,,,,,,,,,,,,,,,,,,,,,,,,,,,,,,,,,,,,,,,,,,,,,,,,,,,,,,,,,,,,,,,,,,,,,,,,,,,,,,,
,,5e38397719e44f0244389781,2026-03-17_11h24.59.976,kallum_motion_pilot_GIST_update_2,2026.1.1,Win32,59.52380952,5e38397719e44f0244389781,69b95efdef24cd8a694e89ee,69b963213b545e6327246fb0,0.0372,0.0372,1,86,248,135,1,eightseven,,,,,,,,,,,,,,,,,,,,,,,,,,,,,,,,,,,,,,,,,,,,,,,,,,,,,,,,,,,,,,,,,,,,,,,,,,,,,,,,,,,,,,,,,,,,,,,,,,,,,,,,,,,,,,,,,,,,,,,,,,,,,,,,,,,,,,,,,
,,5e38397719e44f0244389781,2026-03-17_11h24.59.976,kallum_motion_pilot_GIST_update_2,2026.1.1,Win32,59.52380952,5e38397719e44f0244389781,69b95efdef24cd8a694e89ee,69b963213b545e6327246fb0,0.0373,0.0373,1,87,249,0,1,onetwo,,,,,,,,,,,,,,,,,,,,,,,,,,,,,,,,,,,,,,,,,,,,,,,,,,,,,,,,,,,,,,,,,,,,,,,,,,,,,,,,,,,,,,,,,,,,,,,,,,,,,,,,,,,,,,,,,,,,,,,,,,,,,,,,,,,,,,,,,
,,5e38397719e44f0244389781,2026-03-17_11h24.59.976,kallum_motion_pilot_GIST_update_2,2026.1.1,Win32,59.52380952,5e38397719e44f0244389781,69b95efdef24cd8a694e89ee,69b963213b545e6327246fb0,0.0374,0.0374,1,88,250,148,1,sevenfive,,,,,,,,,,,,,,,,,,,,,,,,,,,,,,,,,,,,,,,,,,,,,,,,,,,,,,,,,,,,,,,,,,,,,,,,,,,,,,,,,,,,,,,,,,,,,,,,,,,,,,,,,,,,,,,,,,,,,,,,,,,,,,,,,,,,,,,,,
,,5e38397719e44f0244389781,2026-03-17_11h24.59.976,kallum_motion_pilot_GIST_update_2,2026.1.1,Win32,59.52380952,5e38397719e44f0244389781,69b95efdef24cd8a694e89ee,69b963213b545e6327246fb0,0.0375,0.0375,1,89,251,146,1,sixfive,,,,,,,,,,,,,,,,,,,,,,,,,,,,,,,,,,,,,,,,,,,,,,,,,,,,,,,,,,,,,,,,,,,,,,,,,,,,,,,,,,,,,,,,,,,,,,,,,,,,,,,,,,,,,,,,,,,,,,,,,,,,,,,,,,,,,,,,,
,,5e38397719e44f0244389781,2026-03-17_11h24.59.976,kallum_motion_pilot_GIST_update_2,2026.1.1,Win32,59.52380952,5e38397719e44f0244389781,69b95efdef24cd8a694e89ee,69b963213b545e6327246fb0,0.0375,0.0375,1,90,252,127,1,eightseven,,,,,,,,,,,,,,,,,,,,,,,,,,,,,,,,,,,,,,,,,,,,,,,,,,,,,,,,,,,,,,,,,,,,,,,,,,,,,,,,,,,,,,,,,,,,,,,,,,,,,,,,,,,,,,,,,,,,,,,,,,,,,,,,,,,,,,,,,
,,5e38397719e44f0244389781,2026-03-17_11h24.59.976,kallum_motion_pilot_GIST_update_2,2026.1.1,Win32,59.52380952,5e38397719e44f0244389781,69b95efdef24cd8a694e89ee,69b963213b545e6327246fb0,0.0377,0.0377,1,91,253,92,1,sevenfive,,,,,,,,,,,,,,,,,,,,,,,,,,,,,,,,,,,,,,,,,,,,,,,,,,,,,,,,,,,,,,,,,,,,,,,,,,,,,,,,,,,,,,,,,,,,,,,,,,,,,,,,,,,,,,,,,,,,,,,,,,,,,,,,,,,,,,,,,
,,5e38397719e44f0244389781,2026-03-17_11h24.59.976,kallum_motion_pilot_GIST_update_2,2026.1.1,Win32,59.52380952,5e38397719e44f0244389781,69b95efdef24cd8a694e89ee,69b963213b545e6327246fb0,0.0377,0.0377,1,92,254,113,1,fiveseven,,,,,,,,,,,,,,,,,,,,,,,,,,,,,,,,,,,,,,,,,,,,,,,,,,,,,,,,,,,,,,,,,,,,,,,,,,,,,,,,,,,,,,,,,,,,,,,,,,,,,,,,,,,,,,,,,,,,,,,,,,,,,,,,,,,,,,,,,
,,5e38397719e44f0244389781,2026-03-17_11h24.59.976,kallum_motion_pilot_GIST_update_2,2026.1.1,Win32,59.52380952,5e38397719e44f0244389781,69b95efdef24cd8a694e89ee,69b963213b545e6327246fb0,0.0378,0.0378,1,93,255,18,1,twoone,,,,,,,,,,,,,,,,,,,,,,,,,,,,,,,,,,,,,,,,,,,,,,,,,,,,,,,,,,,,,,,,,,,,,,,,,,,,,,,,,,,,,,,,,,,,,,,,,,,,,,,,,,,,,,,,,,,,,,,,,,,,,,,,,,,,,,,,,
,,5e38397719e44f0244389781,2026-03-17_11h24.59.976,kallum_motion_pilot_GIST_update_2,2026.1.1,Win32,59.52380952,5e38397719e44f0244389781,69b95efdef24cd8a694e89ee,69b963213b545e6327246fb0,0.0379,0.0379,1,94,256,44,1,threeone,,,,,,,,,,,,,,,,,,,,,,,,,,,,,,,,,,,,,,,,,,,,,,,,,,,,,,,,,,,,,,,,,,,,,,,,,,,,,,,,,,,,,,,,,,,,,,,,,,,,,,,,,,,,,,,,,,,,,,,,,,,,,,,,,,,,,,,,,
,,5e38397719e44f0244389781,2026-03-17_11h24.59.976,kallum_motion_pilot_GIST_update_2,2026.1.1,Win32,59.52380952,5e38397719e44f0244389781,69b95efdef24cd8a694e89ee,69b963213b545e6327246fb0,0.0379,0.0379,1,95,257,159,1,eightseven,,,,,,,,,,,,,,,,,,,,,,,,,,,,,,,,,,,,,,,,,,,,,,,,,,,,,,,,,,,,,,,,,,,,,,,,,,,,,,,,,,,,,,,,,,,,,,,,,,,,,,,,,,,,,,,,,,,,,,,,,,,,,,,,,,,,,,,,,
,,5e38397719e44f0244389781,2026-03-17_11h24.59.976,kallum_motion_pilot_GIST_update_2,2026.1.1,Win32,59.52380952,5e38397719e44f0244389781,69b95efdef24cd8a694e89ee,69b963213b545e6327246fb0,0.0381,0.0381,1,96,258,20,1,threeone,,,,,,,,,,,,,,,,,,,,,,,,,,,,,,,,,,,,,,,,,,,,,,,,,,,,,,,,,,,,,,,,,,,,,,,,,,,,,,,,,,,,,,,,,,,,,,,,,,,,,,,,,,,,,,,,,,,,,,,,,,,,,,,,,,,,,,,,,
,,5e38397719e44f0244389781,2026-03-17_11h24.59.976,kallum_motion_pilot_GIST_update_2,2026.1.1,Win32,59.52380952,5e38397719e44f0244389781,69b95efdef24cd8a694e89ee,69b963213b545e6327246fb0,0.0381,0.0381,1,97,259,32,1,onetwo,,,,,,,,,,,,,,,,,,,,,,,,,,,,,,,,,,,,,,,,,,,,,,,,,,,,,,,,,,,,,,,,,,,,,,,,,,,,,,,,,,,,,,,,,,,,,,,,,,,,,,,,,,,,,,,,,,,,,,,,,,,,,,,,,,,,,,,,,
,,5e38397719e44f0244389781,2026-03-17_11h24.59.976,kallum_motion_pilot_GIST_update_2,2026.1.1,Win32,59.52380952,5e38397719e44f0244389781,69b95efdef24cd8a694e89ee,69b963213b545e6327246fb0,0.0383,0.0383,1,98,260,122,1,sixfive,,,,,,,,,,,,,,,,,,,,,,,,,,,,,,,,,,,,,,,,,,,,,,,,,,,,,,,,,,,,,,,,,,,,,,,,,,,,,,,,,,,,,,,,,,,,,,,,,,,,,,,,,,,,,,,,,,,,,,,,,,,,,,,,,,,,,,,,,
,,5e38397719e44f0244389781,2026-03-17_11h24.59.976,kallum_motion_pilot_GIST_update_2,2026.1.1,Win32,59.52380952,5e38397719e44f0244389781,69b95efdef24cd8a694e89ee,69b963213b545e6327246fb0,0.0383,0.0383,1,99,261,134,1,eightsix,,,,,,,,,,,,,,,,,,,,,,,,,,,,,,,,,,,,,,,,,,,,,,,,,,,,,,,,,,,,,,,,,,,,,,,,,,,,,,,,,,,,,,,,,,,,,,,,,,,,,,,,,,,,,,,,,,,,,,,,,,,,,,,,,,,,,,,,,
,,5e38397719e44f0244389781,2026-03-17_11h24.59.976,kallum_motion_pilot_GIST_update_2,2026.1.1,Win32,59.52380952,5e38397719e44f0244389781,69b95efdef24cd8a694e89ee,69b963213b545e6327246fb0,0.0384,0.0384,1,100,262,5,1,threefour,,,,,,,,,,,,,,,,,,,,,,,,,,,,,,,,,,,,,,,,,,,,,,,,,,,,,,,,,,,,,,,,,,,,,,,,,,,,,,,,,,,,,,,,,,,,,,,,,,,,,,,,,,,,,,,,,,,,,,,,,,,,,,,,,,,,,,,,,
,,5e38397719e44f0244389781,2026-03-17_11h24.59.976,kallum_motion_pilot_GIST_update_2,2026.1.1,Win32,59.52380952,5e38397719e44f0244389781,69b95efdef24cd8a694e89ee,69b963213b545e6327246fb0,0.0385,0.0385,1,101,263,74,1,twoone,,,,,,,,,,,,,,,,,,,,,,,,,,,,,,,,,,,,,,,,,,,,,,,,,,,,,,,,,,,,,,,,,,,,,,,,,,,,,,,,,,,,,,,,,,,,,,,,,,,,,,,,,,,,,,,,,,,,,,,,,,,,,,,,,,,,,,,,,
,,5e38397719e44f0244389781,2026-03-17_11h24.59.976,kallum_motion_pilot_GIST_update_2,2026.1.1,Win32,59.52380952,5e38397719e44f0244389781,69b95efdef24cd8a694e89ee,69b963213b545e6327246fb0,0.0386,0.0386,1,102,264,48,1,onetwo,,,,,,,,,,,,,,,,,,,,,,,,,,,,,,,,,,,,,,,,,,,,,,,,,,,,,,,,,,,,,,,,,,,,,,,,,,,,,,,,,,,,,,,,,,,,,,,,,,,,,,,,,,,,,,,,,,,,,,,,,,,,,,,,,,,,,,,,,
,,5e38397719e44f0244389781,2026-03-17_11h24.59.976,kallum_motion_pilot_GIST_update_2,2026.1.1,Win32,59.52380952,5e38397719e44f0244389781,69b95efdef24cd8a694e89ee,69b963213b545e6327246fb0,0.0387,0.0387,1,103,265,85,1,seveneight,,,,,,,,,,,,,,,,,,,,,,,,,,,,,,,,,,,,,,,,,,,,,,,,,,,,,,,,,,,,,,,,,,,,,,,,,,,,,,,,,,,,,,,,,,,,,,,,,,,,,,,,,,,,,,,,,,,,,,,,,,,,,,,,,,,,,,,,,
,,5e38397719e44f0244389781,2026-03-17_11h24.59.976,kallum_motion_pilot_GIST_update_2,2026.1.1,Win32,59.52380952,5e38397719e44f0244389781,69b95efdef24cd8a694e89ee,69b963213b545e6327246fb0,0.0387,0.0387,1,104,266,150,1,eightsix,,,,,,,,,,,,,,,,,,,,,,,,,,,,,,,,,,,,,,,,,,,,,,,,,,,,,,,,,,,,,,,,,,,,,,,,,,,,,,,,,,,,,,,,,,,,,,,,,,,,,,,,,,,,,,,,,,,,,,,,,,,,,,,,,,,,,,,,,
