startup.started,startup.stopped,Prolific ID*,date,expName,psychopyVersion,OS,frameRate,participant,study_id,session,stimpositions.started,stimpositions.stopped,hardcoded_stimulus_positions.thisRepN,hardcoded_stimulus_positions.thisTrialN,hardcoded_stimulus_positions.thisN,hardcoded_stimulus_positions.thisIndex,hardcoded_stimulus_positions.ran,StimulusPos,stimorientation.started,stimorientation.stopped,prac_stimorientation_import_loop.thisRepN,prac_stimorientation_import_loop.thisTrialN,prac_stimorientation_import_loop.thisN,prac_stimorientation_import_loop.thisIndex,prac_stimorientation_import_loop.ran,Stimorientation,welcome_instr.started,welcome_instr.stopped,key_resp.keys,key_resp.rt,key_resp.duration,response_steppedout_1.started,response_steppedout_1.stopped,key_resp_20.keys,key_resp_20.rt,key_resp_20.duration,response_steppedout_2.started,response_steppedout_2.stopped,key_resp_19.keys,key_resp_19.rt,key_resp_19.duration,stim_response_instr.started,stim_response_instr.stopped,key_resp_15.keys,key_resp_15.rt,key_resp_15.duration,direction_instr_2.started,direction_instr_2.stopped,key_resp_9.keys,key_resp_9.rt,key_resp_9.duration,instr_prac.started,instr_prac.stopped,key_resp_10.keys,key_resp_10.rt,key_resp_10.duration,Stim1_display_prac.started,Stim1_display_prac.stopped,Ecc,Circle1_ori,Circle2_ori,response_prac.started,similarity,response_time,response_prac.stopped,mouse_5.x,mouse_5.y,mouse_5.leftButton,mouse_5.midButton,mouse_5.rightButton,mouse_5.clicked_name,responseprac_feedback.started,responseprac_feedback.stopped,summary2_prac.started,summary2_prac.stopped,mouse_6.x,mouse_6.y,mouse_6.leftButton,mouse_6.midButton,mouse_6.rightButton,mouse_6.clicked_name,duringprac.thisRepN,duringprac.thisTrialN,duringprac.thisN,duringprac.thisIndex,duringprac.ran,begin.started,begin.stopped,key_resp_22.keys,key_resp_22.rt,key_resp_22.duration,Stim1_display.started,Stim1_display.stopped,circle1_ori,circle2_ori,circle1_SF,circle2_SF,response.started,response.stopped,mouse.x,mouse.y,mouse.leftButton,mouse.midButton,mouse.rightButton,mouse.clicked_name,trialnumber,double_pass.thisRepN,double_pass.thisTrialN,double_pass.thisN,double_pass.thisIndex,double_pass.ran,double_pass.order,main_trial.thisRepN,main_trial.thisTrialN,main_trial.thisN,main_trial.thisIndex,main_trial.ran,main_trial.order,Trial_Counter,Catch,Frequencies,response_2.started,response_2.stopped,mouse_2.x,mouse_2.y,mouse_2.leftButton,mouse_2.midButton,mouse_2.rightButton,mouse_2.clicked_name,special_trial.started,special_trial.stopped,catch_1.started,catch_1.stopped,mouse_3.x,mouse_3.y,mouse_3.leftButton,mouse_3.midButton,mouse_3.rightButton,catchresponse,catchnumber,response_time_catch,response_sum.started,response_sum.stopped,mouse_11.x,mouse_11.y,mouse_11.leftButton,mouse_11.midButton,mouse_11.rightButton,flip_presentation_sequence_for_double_pass.started,flip_presentation_sequence_for_double_pass.stopped,goodbye.started,goodbye.stopped,key_resp_3.keys,key_resp_3.rt,key_resp_3.duration
0.002,0.002,5e67a895fafaa10180652312,2026-03-17_11h08.38.757,kallum_motion_pilot_GIST_update_2,2026.1.1,Win32,29.9940012,5e67a895fafaa10180652312,69b95efdef24cd8a694e89ee,69b96023a2d48d86232c5065,,,,,,,,,,,,,,,,,,,,,,,,,,,,,,,,,,,,,,,,,,,,,,,,,,,,,,,,,,,,,,,,,,,,,,,,,,,,,,,,,,,,,,,,,,,,,,,,,,,,,,,,,,,,,,,,,,,,,,,,,,,,,,,,,,,,,,,,,,,,,,,,,
,,5e67a895fafaa10180652312,2026-03-17_11h08.38.757,kallum_motion_pilot_GIST_update_2,2026.1.1,Win32,29.9940012,5e67a895fafaa10180652312,69b95efdef24cd8a694e89ee,69b96023a2d48d86232c5065,0.068,0.068,0,0,0,27,1,twofour,,,,,,,,,,,,,,,,,,,,,,,,,,,,,,,,,,,,,,,,,,,,,,,,,,,,,,,,,,,,,,,,,,,,,,,,,,,,,,,,,,,,,,,,,,,,,,,,,,,,,,,,,,,,,,,,,,,,,,,,,,,,,,,,,,,,,,,,,
,,5e67a895fafaa10180652312,2026-03-17_11h08.38.757,kallum_motion_pilot_GIST_update_2,2026.1.1,Win32,29.9940012,5e67a895fafaa10180652312,69b95efdef24cd8a694e89ee,69b96023a2d48d86232c5065,0.068,0.068,0,1,1,105,1,fiveseven,,,,,,,,,,,,,,,,,,,,,,,,,,,,,,,,,,,,,,,,,,,,,,,,,,,,,,,,,,,,,,,,,,,,,,,,,,,,,,,,,,,,,,,,,,,,,,,,,,,,,,,,,,,,,,,,,,,,,,,,,,,,,,,,,,,,,,,,,
,,5e67a895fafaa10180652312,2026-03-17_11h08.38.757,kallum_motion_pilot_GIST_update_2,2026.1.1,Win32,29.9940012,5e67a895fafaa10180652312,69b95efdef24cd8a694e89ee,69b96023a2d48d86232c5065,0.068,0.068,0,2,2,41,1,onethree,,,,,,,,,,,,,,,,,,,,,,,,,,,,,,,,,,,,,,,,,,,,,,,,,,,,,,,,,,,,,,,,,,,,,,,,,,,,,,,,,,,,,,,,,,,,,,,,,,,,,,,,,,,,,,,,,,,,,,,,,,,,,,,,,,,,,,,,,
,,5e67a895fafaa10180652312,2026-03-17_11h08.38.757,kallum_motion_pilot_GIST_update_2,2026.1.1,Win32,29.9940012,5e67a895fafaa10180652312,69b95efdef24cd8a694e89ee,69b96023a2d48d86232c5065,0.069,0.069,0,3,3,35,1,twofour,,,,,,,,,,,,,,,,,,,,,,,,,,,,,,,,,,,,,,,,,,,,,,,,,,,,,,,,,,,,,,,,,,,,,,,,,,,,,,,,,,,,,,,,,,,,,,,,,,,,,,,,,,,,,,,,,,,,,,,,,,,,,,,,,,,,,,,,,
,,5e67a895fafaa10180652312,2026-03-17_11h08.38.757,kallum_motion_pilot_GIST_update_2,2026.1.1,Win32,29.9940012,5e67a895fafaa10180652312,69b95efdef24cd8a694e89ee,69b96023a2d48d86232c5065,0.069,0.069,0,4,4,156,1,sevenfive,,,,,,,,,,,,,,,,,,,,,,,,,,,,,,,,,,,,,,,,,,,,,,,,,,,,,,,,,,,,,,,,,,,,,,,,,,,,,,,,,,,,,,,,,,,,,,,,,,,,,,,,,,,,,,,,,,,,,,,,,,,,,,,,,,,,,,,,,
,,5e67a895fafaa10180652312,2026-03-17_11h08.38.757,kallum_motion_pilot_GIST_update_2,2026.1.1,Win32,29.9940012,5e67a895fafaa10180652312,69b95efdef24cd8a694e89ee,69b96023a2d48d86232c5065,0.07,0.07,0,5,5,0,1,onetwo,,,,,,,,,,,,,,,,,,,,,,,,,,,,,,,,,,,,,,,,,,,,,,,,,,,,,,,,,,,,,,,,,,,,,,,,,,,,,,,,,,,,,,,,,,,,,,,,,,,,,,,,,,,,,,,,,,,,,,,,,,,,,,,,,,,,,,,,,
,,5e67a895fafaa10180652312,2026-03-17_11h08.38.757,kallum_motion_pilot_GIST_update_2,2026.1.1,Win32,29.9940012,5e67a895fafaa10180652312,69b95efdef24cd8a694e89ee,69b96023a2d48d86232c5065,0.07,0.07,0,6,6,145,1,fiveseven,,,,,,,,,,,,,,,,,,,,,,,,,,,,,,,,,,,,,,,,,,,,,,,,,,,,,,,,,,,,,,,,,,,,,,,,,,,,,,,,,,,,,,,,,,,,,,,,,,,,,,,,,,,,,,,,,,,,,,,,,,,,,,,,,,,,,,,,,
,,5e67a895fafaa10180652312,2026-03-17_11h08.38.757,kallum_motion_pilot_GIST_update_2,2026.1.1,Win32,29.9940012,5e67a895fafaa10180652312,69b95efdef24cd8a694e89ee,69b96023a2d48d86232c5065,0.07,0.07,0,7,7,89,1,fiveseven,,,,,,,,,,,,,,,,,,,,,,,,,,,,,,,,,,,,,,,,,,,,,,,,,,,,,,,,,,,,,,,,,,,,,,,,,,,,,,,,,,,,,,,,,,,,,,,,,,,,,,,,,,,,,,,,,,,,,,,,,,,,,,,,,,,,,,,,,
,,5e67a895fafaa10180652312,2026-03-17_11h08.38.757,kallum_motion_pilot_GIST_update_2,2026.1.1,Win32,29.9940012,5e67a895fafaa10180652312,69b95efdef24cd8a694e89ee,69b96023a2d48d86232c5065,0.07,0.07,0,8,8,132,1,sevenfive,,,,,,,,,,,,,,,,,,,,,,,,,,,,,,,,,,,,,,,,,,,,,,,,,,,,,,,,,,,,,,,,,,,,,,,,,,,,,,,,,,,,,,,,,,,,,,,,,,,,,,,,,,,,,,,,,,,,,,,,,,,,,,,,,,,,,,,,,
,,5e67a895fafaa10180652312,2026-03-17_11h08.38.757,kallum_motion_pilot_GIST_update_2,2026.1.1,Win32,29.9940012,5e67a895fafaa10180652312,69b95efdef24cd8a694e89ee,69b96023a2d48d86232c5065,0.071,0.071,0,9,9,11,1,twofour,,,,,,,,,,,,,,,,,,,,,,,,,,,,,,,,,,,,,,,,,,,,,,,,,,,,,,,,,,,,,,,,,,,,,,,,,,,,,,,,,,,,,,,,,,,,,,,,,,,,,,,,,,,,,,,,,,,,,,,,,,,,,,,,,,,,,,,,,
,,5e67a895fafaa10180652312,2026-03-17_11h08.38.757,kallum_motion_pilot_GIST_update_2,2026.1.1,Win32,29.9940012,5e67a895fafaa10180652312,69b95efdef24cd8a694e89ee,69b96023a2d48d86232c5065,0.071,0.071,0,10,10,86,1,eightsix,,,,,,,,,,,,,,,,,,,,,,,,,,,,,,,,,,,,,,,,,,,,,,,,,,,,,,,,,,,,,,,,,,,,,,,,,,,,,,,,,,,,,,,,,,,,,,,,,,,,,,,,,,,,,,,,,,,,,,,,,,,,,,,,,,,,,,,,,
,,5e67a895fafaa10180652312,2026-03-17_11h08.38.757,kallum_motion_pilot_GIST_update_2,2026.1.1,Win32,29.9940012,5e67a895fafaa10180652312,69b95efdef24cd8a694e89ee,69b96023a2d48d86232c5065,0.072,0.072,0,11,11,117,1,seveneight,,,,,,,,,,,,,,,,,,,,,,,,,,,,,,,,,,,,,,,,,,,,,,,,,,,,,,,,,,,,,,,,,,,,,,,,,,,,,,,,,,,,,,,,,,,,,,,,,,,,,,,,,,,,,,,,,,,,,,,,,,,,,,,,,,,,,,,,,
,,5e67a895fafaa10180652312,2026-03-17_11h08.38.757,kallum_motion_pilot_GIST_update_2,2026.1.1,Win32,29.9940012,5e67a895fafaa10180652312,69b95efdef24cd8a694e89ee,69b96023a2d48d86232c5065,0.072,0.072,0,12,12,137,1,fiveseven,,,,,,,,,,,,,,,,,,,,,,,,,,,,,,,,,,,,,,,,,,,,,,,,,,,,,,,,,,,,,,,,,,,,,,,,,,,,,,,,,,,,,,,,,,,,,,,,,,,,,,,,,,,,,,,,,,,,,,,,,,,,,,,,,,,,,,,,,
,,5e67a895fafaa10180652312,2026-03-17_11h08.38.757,kallum_motion_pilot_GIST_update_2,2026.1.1,Win32,29.9940012,5e67a895fafaa10180652312,69b95efdef24cd8a694e89ee,69b96023a2d48d86232c5065,0.072,0.072,0,13,13,129,1,fiveseven,,,,,,,,,,,,,,,,,,,,,,,,,,,,,,,,,,,,,,,,,,,,,,,,,,,,,,,,,,,,,,,,,,,,,,,,,,,,,,,,,,,,,,,,,,,,,,,,,,,,,,,,,,,,,,,,,,,,,,,,,,,,,,,,,,,,,,,,,
,,5e67a895fafaa10180652312,2026-03-17_11h08.38.757,kallum_motion_pilot_GIST_update_2,2026.1.1,Win32,29.9940012,5e67a895fafaa10180652312,69b95efdef24cd8a694e89ee,69b96023a2d48d86232c5065,0.072,0.072,0,14,14,72,1,onetwo,,,,,,,,,,,,,,,,,,,,,,,,,,,,,,,,,,,,,,,,,,,,,,,,,,,,,,,,,,,,,,,,,,,,,,,,,,,,,,,,,,,,,,,,,,,,,,,,,,,,,,,,,,,,,,,,,,,,,,,,,,,,,,,,,,,,,,,,,
,,5e67a895fafaa10180652312,2026-03-17_11h08.38.757,kallum_motion_pilot_GIST_update_2,2026.1.1,Win32,29.9940012,5e67a895fafaa10180652312,69b95efdef24cd8a694e89ee,69b96023a2d48d86232c5065,0.072,0.072,0,15,15,30,1,fourtwo,,,,,,,,,,,,,,,,,,,,,,,,,,,,,,,,,,,,,,,,,,,,,,,,,,,,,,,,,,,,,,,,,,,,,,,,,,,,,,,,,,,,,,,,,,,,,,,,,,,,,,,,,,,,,,,,,,,,,,,,,,,,,,,,,,,,,,,,,
,,5e67a895fafaa10180652312,2026-03-17_11h08.38.757,kallum_motion_pilot_GIST_update_2,2026.1.1,Win32,29.9940012,5e67a895fafaa10180652312,69b95efdef24cd8a694e89ee,69b96023a2d48d86232c5065,0.072,0.072,0,16,16,136,1,fivesix,,,,,,,,,,,,,,,,,,,,,,,,,,,,,,,,,,,,,,,,,,,,,,,,,,,,,,,,,,,,,,,,,,,,,,,,,,,,,,,,,,,,,,,,,,,,,,,,,,,,,,,,,,,,,,,,,,,,,,,,,,,,,,,,,,,,,,,,,
,,5e67a895fafaa10180652312,2026-03-17_11h08.38.757,kallum_motion_pilot_GIST_update_2,2026.1.1,Win32,29.9940012,5e67a895fafaa10180652312,69b95efdef24cd8a694e89ee,69b96023a2d48d86232c5065,0.073,0.073,0,17,17,88,1,fivesix,,,,,,,,,,,,,,,,,,,,,,,,,,,,,,,,,,,,,,,,,,,,,,,,,,,,,,,,,,,,,,,,,,,,,,,,,,,,,,,,,,,,,,,,,,,,,,,,,,,,,,,,,,,,,,,,,,,,,,,,,,,,,,,,,,,,,,,,,
,,5e67a895fafaa10180652312,2026-03-17_11h08.38.757,kallum_motion_pilot_GIST_update_2,2026.1.1,Win32,29.9940012,5e67a895fafaa10180652312,69b95efdef24cd8a694e89ee,69b96023a2d48d86232c5065,0.073,0.073,0,18,18,29,1,threefour,,,,,,,,,,,,,,,,,,,,,,,,,,,,,,,,,,,,,,,,,,,,,,,,,,,,,,,,,,,,,,,,,,,,,,,,,,,,,,,,,,,,,,,,,,,,,,,,,,,,,,,,,,,,,,,,,,,,,,,,,,,,,,,,,,,,,,,,,
,,5e67a895fafaa10180652312,2026-03-17_11h08.38.757,kallum_motion_pilot_GIST_update_2,2026.1.1,Win32,29.9940012,5e67a895fafaa10180652312,69b95efdef24cd8a694e89ee,69b96023a2d48d86232c5065,0.073,0.073,0,19,19,38,1,fourtwo,,,,,,,,,,,,,,,,,,,,,,,,,,,,,,,,,,,,,,,,,,,,,,,,,,,,,,,,,,,,,,,,,,,,,,,,,,,,,,,,,,,,,,,,,,,,,,,,,,,,,,,,,,,,,,,,,,,,,,,,,,,,,,,,,,,,,,,,,
,,5e67a895fafaa10180652312,2026-03-17_11h08.38.757,kallum_motion_pilot_GIST_update_2,2026.1.1,Win32,29.9940012,5e67a895fafaa10180652312,69b95efdef24cd8a694e89ee,69b96023a2d48d86232c5065,0.073,0.073,0,20,20,131,1,sixeight,,,,,,,,,,,,,,,,,,,,,,,,,,,,,,,,,,,,,,,,,,,,,,,,,,,,,,,,,,,,,,,,,,,,,,,,,,,,,,,,,,,,,,,,,,,,,,,,,,,,,,,,,,,,,,,,,,,,,,,,,,,,,,,,,,,,,,,,,
,,5e67a895fafaa10180652312,2026-03-17_11h08.38.757,kallum_motion_pilot_GIST_update_2,2026.1.1,Win32,29.9940012,5e67a895fafaa10180652312,69b95efdef24cd8a694e89ee,69b96023a2d48d86232c5065,0.073,0.073,0,21,21,55,1,fourthree,,,,,,,,,,,,,,,,,,,,,,,,,,,,,,,,,,,,,,,,,,,,,,,,,,,,,,,,,,,,,,,,,,,,,,,,,,,,,,,,,,,,,,,,,,,,,,,,,,,,,,,,,,,,,,,,,,,,,,,,,,,,,,,,,,,,,,,,,
,,5e67a895fafaa10180652312,2026-03-17_11h08.38.757,kallum_motion_pilot_GIST_update_2,2026.1.1,Win32,29.9940012,5e67a895fafaa10180652312,69b95efdef24cd8a694e89ee,69b96023a2d48d86232c5065,0.073,0.074,0,22,22,33,1,onethree,,,,,,,,,,,,,,,,,,,,,,,,,,,,,,,,,,,,,,,,,,,,,,,,,,,,,,,,,,,,,,,,,,,,,,,,,,,,,,,,,,,,,,,,,,,,,,,,,,,,,,,,,,,,,,,,,,,,,,,,,,,,,,,,,,,,,,,,,
,,5e67a895fafaa10180652312,2026-03-17_11h08.38.757,kallum_motion_pilot_GIST_update_2,2026.1.1,Win32,29.9940012,5e67a895fafaa10180652312,69b95efdef24cd8a694e89ee,69b96023a2d48d86232c5065,0.074,0.074,0,23,23,95,1,eightseven,,,,,,,,,,,,,,,,,,,,,,,,,,,,,,,,,,,,,,,,,,,,,,,,,,,,,,,,,,,,,,,,,,,,,,,,,,,,,,,,,,,,,,,,,,,,,,,,,,,,,,,,,,,,,,,,,,,,,,,,,,,,,,,,,,,,,,,,,
,,5e67a895fafaa10180652312,2026-03-17_11h08.38.757,kallum_motion_pilot_GIST_update_2,2026.1.1,Win32,29.9940012,5e67a895fafaa10180652312,69b95efdef24cd8a694e89ee,69b96023a2d48d86232c5065,0.074,0.074,0,24,24,99,1,sixeight,,,,,,,,,,,,,,,,,,,,,,,,,,,,,,,,,,,,,,,,,,,,,,,,,,,,,,,,,,,,,,,,,,,,,,,,,,,,,,,,,,,,,,,,,,,,,,,,,,,,,,,,,,,,,,,,,,,,,,,,,,,,,,,,,,,,,,,,,
,,5e67a895fafaa10180652312,2026-03-17_11h08.38.757,kallum_motion_pilot_GIST_update_2,2026.1.1,Win32,29.9940012,5e67a895fafaa10180652312,69b95efdef24cd8a694e89ee,69b96023a2d48d86232c5065,0.074,0.074,0,25,25,109,1,seveneight,,,,,,,,,,,,,,,,,,,,,,,,,,,,,,,,,,,,,,,,,,,,,,,,,,,,,,,,,,,,,,,,,,,,,,,,,,,,,,,,,,,,,,,,,,,,,,,,,,,,,,,,,,,,,,,,,,,,,,,,,,,,,,,,,,,,,,,,,
,,5e67a895fafaa10180652312,2026-03-17_11h08.38.757,kallum_motion_pilot_GIST_update_2,2026.1.1,Win32,29.9940012,5e67a895fafaa10180652312,69b95efdef24cd8a694e89ee,69b96023a2d48d86232c5065,0.074,0.074,0,26,26,74,1,twoone,,,,,,,,,,,,,,,,,,,,,,,,,,,,,,,,,,,,,,,,,,,,,,,,,,,,,,,,,,,,,,,,,,,,,,,,,,,,,,,,,,,,,,,,,,,,,,,,,,,,,,,,,,,,,,,,,,,,,,,,,,,,,,,,,,,,,,,,,
,,5e67a895fafaa10180652312,2026-03-17_11h08.38.757,kallum_motion_pilot_GIST_update_2,2026.1.1,Win32,29.9940012,5e67a895fafaa10180652312,69b95efdef24cd8a694e89ee,69b96023a2d48d86232c5065,0.074,0.074,0,27,27,122,1,sixfive,,,,,,,,,,,,,,,,,,,,,,,,,,,,,,,,,,,,,,,,,,,,,,,,,,,,,,,,,,,,,,,,,,,,,,,,,,,,,,,,,,,,,,,,,,,,,,,,,,,,,,,,,,,,,,,,,,,,,,,,,,,,,,,,,,,,,,,,,
,,5e67a895fafaa10180652312,2026-03-17_11h08.38.757,kallum_motion_pilot_GIST_update_2,2026.1.1,Win32,29.9940012,5e67a895fafaa10180652312,69b95efdef24cd8a694e89ee,69b96023a2d48d86232c5065,0.074,0.074,0,28,28,94,1,eightsix,,,,,,,,,,,,,,,,,,,,,,,,,,,,,,,,,,,,,,,,,,,,,,,,,,,,,,,,,,,,,,,,,,,,,,,,,,,,,,,,,,,,,,,,,,,,,,,,,,,,,,,,,,,,,,,,,,,,,,,,,,,,,,,,,,,,,,,,,
,,5e67a895fafaa10180652312,2026-03-17_11h08.38.757,kallum_motion_pilot_GIST_update_2,2026.1.1,Win32,29.9940012,5e67a895fafaa10180652312,69b95efdef24cd8a694e89ee,69b96023a2d48d86232c5065,0.074,0.074,0,29,29,160,1,fivesix,,,,,,,,,,,,,,,,,,,,,,,,,,,,,,,,,,,,,,,,,,,,,,,,,,,,,,,,,,,,,,,,,,,,,,,,,,,,,,,,,,,,,,,,,,,,,,,,,,,,,,,,,,,,,,,,,,,,,,,,,,,,,,,,,,,,,,,,,
,,5e67a895fafaa10180652312,2026-03-17_11h08.38.757,kallum_motion_pilot_GIST_update_2,2026.1.1,Win32,29.9940012,5e67a895fafaa10180652312,69b95efdef24cd8a694e89ee,69b96023a2d48d86232c5065,0.074,0.074,0,30,30,100,1,sevenfive,,,,,,,,,,,,,,,,,,,,,,,,,,,,,,,,,,,,,,,,,,,,,,,,,,,,,,,,,,,,,,,,,,,,,,,,,,,,,,,,,,,,,,,,,,,,,,,,,,,,,,,,,,,,,,,,,,,,,,,,,,,,,,,,,,,,,,,,,
,,5e67a895fafaa10180652312,2026-03-17_11h08.38.757,kallum_motion_pilot_GIST_update_2,2026.1.1,Win32,29.9940012,5e67a895fafaa10180652312,69b95efdef24cd8a694e89ee,69b96023a2d48d86232c5065,0.075,0.075,0,31,31,31,1,fourthree,,,,,,,,,,,,,,,,,,,,,,,,,,,,,,,,,,,,,,,,,,,,,,,,,,,,,,,,,,,,,,,,,,,,,,,,,,,,,,,,,,,,,,,,,,,,,,,,,,,,,,,,,,,,,,,,,,,,,,,,,,,,,,,,,,,,,,,,,
,,5e67a895fafaa10180652312,2026-03-17_11h08.38.757,kallum_motion_pilot_GIST_update_2,2026.1.1,Win32,29.9940012,5e67a895fafaa10180652312,69b95efdef24cd8a694e89ee,69b96023a2d48d86232c5065,0.08,0.08,0,32,32,64,1,onetwo,,,,,,,,,,,,,,,,,,,,,,,,,,,,,,,,,,,,,,,,,,,,,,,,,,,,,,,,,,,,,,,,,,,,,,,,,,,,,,,,,,,,,,,,,,,,,,,,,,,,,,,,,,,,,,,,,,,,,,,,,,,,,,,,,,,,,,,,,
,,5e67a895fafaa10180652312,2026-03-17_11h08.38.757,kallum_motion_pilot_GIST_update_2,2026.1.1,Win32,29.9940012,5e67a895fafaa10180652312,69b95efdef24cd8a694e89ee,69b96023a2d48d86232c5065,0.08,0.08,0,33,33,67,1,twofour,,,,,,,,,,,,,,,,,,,,,,,,,,,,,,,,,,,,,,,,,,,,,,,,,,,,,,,,,,,,,,,,,,,,,,,,,,,,,,,,,,,,,,,,,,,,,,,,,,,,,,,,,,,,,,,,,,,,,,,,,,,,,,,,,,,,,,,,,
,,5e67a895fafaa10180652312,2026-03-17_11h08.38.757,kallum_motion_pilot_GIST_update_2,2026.1.1,Win32,29.9940012,5e67a895fafaa10180652312,69b95efdef24cd8a694e89ee,69b96023a2d48d86232c5065,0.081,0.081,0,34,34,103,1,eightseven,,,,,,,,,,,,,,,,,,,,,,,,,,,,,,,,,,,,,,,,,,,,,,,,,,,,,,,,,,,,,,,,,,,,,,,,,,,,,,,,,,,,,,,,,,,,,,,,,,,,,,,,,,,,,,,,,,,,,,,,,,,,,,,,,,,,,,,,,
,,5e67a895fafaa10180652312,2026-03-17_11h08.38.757,kallum_motion_pilot_GIST_update_2,2026.1.1,Win32,29.9940012,5e67a895fafaa10180652312,69b95efdef24cd8a694e89ee,69b96023a2d48d86232c5065,0.081,0.081,0,35,35,9,1,onethree,,,,,,,,,,,,,,,,,,,,,,,,,,,,,,,,,,,,,,,,,,,,,,,,,,,,,,,,,,,,,,,,,,,,,,,,,,,,,,,,,,,,,,,,,,,,,,,,,,,,,,,,,,,,,,,,,,,,,,,,,,,,,,,,,,,,,,,,,
,,5e67a895fafaa10180652312,2026-03-17_11h08.38.757,kallum_motion_pilot_GIST_update_2,2026.1.1,Win32,29.9940012,5e67a895fafaa10180652312,69b95efdef24cd8a694e89ee,69b96023a2d48d86232c5065,0.082,0.082,0,36,36,57,1,onethree,,,,,,,,,,,,,,,,,,,,,,,,,,,,,,,,,,,,,,,,,,,,,,,,,,,,,,,,,,,,,,,,,,,,,,,,,,,,,,,,,,,,,,,,,,,,,,,,,,,,,,,,,,,,,,,,,,,,,,,,,,,,,,,,,,,,,,,,,
,,5e67a895fafaa10180652312,2026-03-17_11h08.38.757,kallum_motion_pilot_GIST_update_2,2026.1.1,Win32,29.9940012,5e67a895fafaa10180652312,69b95efdef24cd8a694e89ee,69b96023a2d48d86232c5065,0.082,0.082,0,37,37,101,1,seveneight,,,,,,,,,,,,,,,,,,,,,,,,,,,,,,,,,,,,,,,,,,,,,,,,,,,,,,,,,,,,,,,,,,,,,,,,,,,,,,,,,,,,,,,,,,,,,,,,,,,,,,,,,,,,,,,,,,,,,,,,,,,,,,,,,,,,,,,,,
,,5e67a895fafaa10180652312,2026-03-17_11h08.38.757,kallum_motion_pilot_GIST_update_2,2026.1.1,Win32,29.9940012,5e67a895fafaa10180652312,69b95efdef24cd8a694e89ee,69b96023a2d48d86232c5065,0.082,0.082,0,38,38,79,1,eightseven,,,,,,,,,,,,,,,,,,,,,,,,,,,,,,,,,,,,,,,,,,,,,,,,,,,,,,,,,,,,,,,,,,,,,,,,,,,,,,,,,,,,,,,,,,,,,,,,,,,,,,,,,,,,,,,,,,,,,,,,,,,,,,,,,,,,,,,,,
,,5e67a895fafaa10180652312,2026-03-17_11h08.38.757,kallum_motion_pilot_GIST_update_2,2026.1.1,Win32,29.9940012,5e67a895fafaa10180652312,69b95efdef24cd8a694e89ee,69b96023a2d48d86232c5065,0.082,0.082,0,39,39,28,1,threeone,,,,,,,,,,,,,,,,,,,,,,,,,,,,,,,,,,,,,,,,,,,,,,,,,,,,,,,,,,,,,,,,,,,,,,,,,,,,,,,,,,,,,,,,,,,,,,,,,,,,,,,,,,,,,,,,,,,,,,,,,,,,,,,,,,,,,,,,,
,,5e67a895fafaa10180652312,2026-03-17_11h08.38.757,kallum_motion_pilot_GIST_update_2,2026.1.1,Win32,29.9940012,5e67a895fafaa10180652312,69b95efdef24cd8a694e89ee,69b96023a2d48d86232c5065,0.082,0.082,0,40,40,43,1,twofour,,,,,,,,,,,,,,,,,,,,,,,,,,,,,,,,,,,,,,,,,,,,,,,,,,,,,,,,,,,,,,,,,,,,,,,,,,,,,,,,,,,,,,,,,,,,,,,,,,,,,,,,,,,,,,,,,,,,,,,,,,,,,,,,,,,,,,,,,
,,5e67a895fafaa10180652312,2026-03-17_11h08.38.757,kallum_motion_pilot_GIST_update_2,2026.1.1,Win32,29.9940012,5e67a895fafaa10180652312,69b95efdef24cd8a694e89ee,69b96023a2d48d86232c5065,0.083,0.083,0,41,41,107,1,sixeight,,,,,,,,,,,,,,,,,,,,,,,,,,,,,,,,,,,,,,,,,,,,,,,,,,,,,,,,,,,,,,,,,,,,,,,,,,,,,,,,,,,,,,,,,,,,,,,,,,,,,,,,,,,,,,,,,,,,,,,,,,,,,,,,,,,,,,,,,
,,5e67a895fafaa10180652312,2026-03-17_11h08.38.757,kallum_motion_pilot_GIST_update_2,2026.1.1,Win32,29.9940012,5e67a895fafaa10180652312,69b95efdef24cd8a694e89ee,69b96023a2d48d86232c5065,0.083,0.083,0,42,42,22,1,fourtwo,,,,,,,,,,,,,,,,,,,,,,,,,,,,,,,,,,,,,,,,,,,,,,,,,,,,,,,,,,,,,,,,,,,,,,,,,,,,,,,,,,,,,,,,,,,,,,,,,,,,,,,,,,,,,,,,,,,,,,,,,,,,,,,,,,,,,,,,,
,,5e67a895fafaa10180652312,2026-03-17_11h08.38.757,kallum_motion_pilot_GIST_update_2,2026.1.1,Win32,29.9940012,5e67a895fafaa10180652312,69b95efdef24cd8a694e89ee,69b96023a2d48d86232c5065,0.083,0.083,0,43,43,126,1,eightsix,,,,,,,,,,,,,,,,,,,,,,,,,,,,,,,,,,,,,,,,,,,,,,,,,,,,,,,,,,,,,,,,,,,,,,,,,,,,,,,,,,,,,,,,,,,,,,,,,,,,,,,,,,,,,,,,,,,,,,,,,,,,,,,,,,,,,,,,,
,,5e67a895fafaa10180652312,2026-03-17_11h08.38.757,kallum_motion_pilot_GIST_update_2,2026.1.1,Win32,29.9940012,5e67a895fafaa10180652312,69b95efdef24cd8a694e89ee,69b96023a2d48d86232c5065,0.083,0.083,0,44,44,82,1,sixfive,,,,,,,,,,,,,,,,,,,,,,,,,,,,,,,,,,,,,,,,,,,,,,,,,,,,,,,,,,,,,,,,,,,,,,,,,,,,,,,,,,,,,,,,,,,,,,,,,,,,,,,,,,,,,,,,,,,,,,,,,,,,,,,,,,,,,,,,,
,,5e67a895fafaa10180652312,2026-03-17_11h08.38.757,kallum_motion_pilot_GIST_update_2,2026.1.1,Win32,29.9940012,5e67a895fafaa10180652312,69b95efdef24cd8a694e89ee,69b96023a2d48d86232c5065,0.083,0.083,0,45,45,102,1,eightsix,,,,,,,,,,,,,,,,,,,,,,,,,,,,,,,,,,,,,,,,,,,,,,,,,,,,,,,,,,,,,,,,,,,,,,,,,,,,,,,,,,,,,,,,,,,,,,,,,,,,,,,,,,,,,,,,,,,,,,,,,,,,,,,,,,,,,,,,,
,,5e67a895fafaa10180652312,2026-03-17_11h08.38.757,kallum_motion_pilot_GIST_update_2,2026.1.1,Win32,29.9940012,5e67a895fafaa10180652312,69b95efdef24cd8a694e89ee,69b96023a2d48d86232c5065,0.083,0.083,0,46,46,68,1,threeone,,,,,,,,,,,,,,,,,,,,,,,,,,,,,,,,,,,,,,,,,,,,,,,,,,,,,,,,,,,,,,,,,,,,,,,,,,,,,,,,,,,,,,,,,,,,,,,,,,,,,,,,,,,,,,,,,,,,,,,,,,,,,,,,,,,,,,,,,
,,5e67a895fafaa10180652312,2026-03-17_11h08.38.757,kallum_motion_pilot_GIST_update_2,2026.1.1,Win32,29.9940012,5e67a895fafaa10180652312,69b95efdef24cd8a694e89ee,69b96023a2d48d86232c5065,0.084,0.084,0,47,47,112,1,fivesix,,,,,,,,,,,,,,,,,,,,,,,,,,,,,,,,,,,,,,,,,,,,,,,,,,,,,,,,,,,,,,,,,,,,,,,,,,,,,,,,,,,,,,,,,,,,,,,,,,,,,,,,,,,,,,,,,,,,,,,,,,,,,,,,,,,,,,,,,
,,5e67a895fafaa10180652312,2026-03-17_11h08.38.757,kallum_motion_pilot_GIST_update_2,2026.1.1,Win32,29.9940012,5e67a895fafaa10180652312,69b95efdef24cd8a694e89ee,69b96023a2d48d86232c5065,0.084,0.084,0,48,48,13,1,threefour,,,,,,,,,,,,,,,,,,,,,,,,,,,,,,,,,,,,,,,,,,,,,,,,,,,,,,,,,,,,,,,,,,,,,,,,,,,,,,,,,,,,,,,,,,,,,,,,,,,,,,,,,,,,,,,,,,,,,,,,,,,,,,,,,,,,,,,,,
,,5e67a895fafaa10180652312,2026-03-17_11h08.38.757,kallum_motion_pilot_GIST_update_2,2026.1.1,Win32,29.9940012,5e67a895fafaa10180652312,69b95efdef24cd8a694e89ee,69b96023a2d48d86232c5065,0.084,0.084,0,49,49,58,1,twoone,,,,,,,,,,,,,,,,,,,,,,,,,,,,,,,,,,,,,,,,,,,,,,,,,,,,,,,,,,,,,,,,,,,,,,,,,,,,,,,,,,,,,,,,,,,,,,,,,,,,,,,,,,,,,,,,,,,,,,,,,,,,,,,,,,,,,,,,,
,,5e67a895fafaa10180652312,2026-03-17_11h08.38.757,kallum_motion_pilot_GIST_update_2,2026.1.1,Win32,29.9940012,5e67a895fafaa10180652312,69b95efdef24cd8a694e89ee,69b96023a2d48d86232c5065,0.085,0.085,0,50,50,45,1,threefour,,,,,,,,,,,,,,,,,,,,,,,,,,,,,,,,,,,,,,,,,,,,,,,,,,,,,,,,,,,,,,,,,,,,,,,,,,,,,,,,,,,,,,,,,,,,,,,,,,,,,,,,,,,,,,,,,,,,,,,,,,,,,,,,,,,,,,,,,
,,5e67a895fafaa10180652312,2026-03-17_11h08.38.757,kallum_motion_pilot_GIST_update_2,2026.1.1,Win32,29.9940012,5e67a895fafaa10180652312,69b95efdef24cd8a694e89ee,69b96023a2d48d86232c5065,0.085,0.085,0,51,51,141,1,seveneight,,,,,,,,,,,,,,,,,,,,,,,,,,,,,,,,,,,,,,,,,,,,,,,,,,,,,,,,,,,,,,,,,,,,,,,,,,,,,,,,,,,,,,,,,,,,,,,,,,,,,,,,,,,,,,,,,,,,,,,,,,,,,,,,,,,,,,,,,
,,5e67a895fafaa10180652312,2026-03-17_11h08.38.757,kallum_motion_pilot_GIST_update_2,2026.1.1,Win32,29.9940012,5e67a895fafaa10180652312,69b95efdef24cd8a694e89ee,69b96023a2d48d86232c5065,0.085,0.085,0,52,52,134,1,eightsix,,,,,,,,,,,,,,,,,,,,,,,,,,,,,,,,,,,,,,,,,,,,,,,,,,,,,,,,,,,,,,,,,,,,,,,,,,,,,,,,,,,,,,,,,,,,,,,,,,,,,,,,,,,,,,,,,,,,,,,,,,,,,,,,,,,,,,,,,
,,5e67a895fafaa10180652312,2026-03-17_11h08.38.757,kallum_motion_pilot_GIST_update_2,2026.1.1,Win32,29.9940012,5e67a895fafaa10180652312,69b95efdef24cd8a694e89ee,69b96023a2d48d86232c5065,0.085,0.085,0,53,53,119,1,eightseven,,,,,,,,,,,,,,,,,,,,,,,,,,,,,,,,,,,,,,,,,,,,,,,,,,,,,,,,,,,,,,,,,,,,,,,,,,,,,,,,,,,,,,,,,,,,,,,,,,,,,,,,,,,,,,,,,,,,,,,,,,,,,,,,,,,,,,,,,
,,5e67a895fafaa10180652312,2026-03-17_11h08.38.757,kallum_motion_pilot_GIST_update_2,2026.1.1,Win32,29.9940012,5e67a895fafaa10180652312,69b95efdef24cd8a694e89ee,69b96023a2d48d86232c5065,0.085,0.085,0,54,54,69,1,threefour,,,,,,,,,,,,,,,,,,,,,,,,,,,,,,,,,,,,,,,,,,,,,,,,,,,,,,,,,,,,,,,,,,,,,,,,,,,,,,,,,,,,,,,,,,,,,,,,,,,,,,,,,,,,,,,,,,,,,,,,,,,,,,,,,,,,,,,,,
,,5e67a895fafaa10180652312,2026-03-17_11h08.38.757,kallum_motion_pilot_GIST_update_2,2026.1.1,Win32,29.9940012,5e67a895fafaa10180652312,69b95efdef24cd8a694e89ee,69b96023a2d48d86232c5065,0.086,0.086,0,55,55,140,1,sevenfive,,,,,,,,,,,,,,,,,,,,,,,,,,,,,,,,,,,,,,,,,,,,,,,,,,,,,,,,,,,,,,,,,,,,,,,,,,,,,,,,,,,,,,,,,,,,,,,,,,,,,,,,,,,,,,,,,,,,,,,,,,,,,,,,,,,,,,,,,
,,5e67a895fafaa10180652312,2026-03-17_11h08.38.757,kallum_motion_pilot_GIST_update_2,2026.1.1,Win32,29.9940012,5e67a895fafaa10180652312,69b95efdef24cd8a694e89ee,69b96023a2d48d86232c5065,0.086,0.086,0,56,56,151,1,eightseven,,,,,,,,,,,,,,,,,,,,,,,,,,,,,,,,,,,,,,,,,,,,,,,,,,,,,,,,,,,,,,,,,,,,,,,,,,,,,,,,,,,,,,,,,,,,,,,,,,,,,,,,,,,,,,,,,,,,,,,,,,,,,,,,,,,,,,,,,
,,5e67a895fafaa10180652312,2026-03-17_11h08.38.757,kallum_motion_pilot_GIST_update_2,2026.1.1,Win32,29.9940012,5e67a895fafaa10180652312,69b95efdef24cd8a694e89ee,69b96023a2d48d86232c5065,0.086,0.086,0,57,57,8,1,onetwo,,,,,,,,,,,,,,,,,,,,,,,,,,,,,,,,,,,,,,,,,,,,,,,,,,,,,,,,,,,,,,,,,,,,,,,,,,,,,,,,,,,,,,,,,,,,,,,,,,,,,,,,,,,,,,,,,,,,,,,,,,,,,,,,,,,,,,,,,
,,5e67a895fafaa10180652312,2026-03-17_11h08.38.757,kallum_motion_pilot_GIST_update_2,2026.1.1,Win32,29.9940012,5e67a895fafaa10180652312,69b95efdef24cd8a694e89ee,69b96023a2d48d86232c5065,0.086,0.086,0,58,58,53,1,threefour,,,,,,,,,,,,,,,,,,,,,,,,,,,,,,,,,,,,,,,,,,,,,,,,,,,,,,,,,,,,,,,,,,,,,,,,,,,,,,,,,,,,,,,,,,,,,,,,,,,,,,,,,,,,,,,,,,,,,,,,,,,,,,,,,,,,,,,,,
,,5e67a895fafaa10180652312,2026-03-17_11h08.38.757,kallum_motion_pilot_GIST_update_2,2026.1.1,Win32,29.9940012,5e67a895fafaa10180652312,69b95efdef24cd8a694e89ee,69b96023a2d48d86232c5065,0.086,0.086,0,59,59,93,1,seveneight,,,,,,,,,,,,,,,,,,,,,,,,,,,,,,,,,,,,,,,,,,,,,,,,,,,,,,,,,,,,,,,,,,,,,,,,,,,,,,,,,,,,,,,,,,,,,,,,,,,,,,,,,,,,,,,,,,,,,,,,,,,,,,,,,,,,,,,,,
,,5e67a895fafaa10180652312,2026-03-17_11h08.38.757,kallum_motion_pilot_GIST_update_2,2026.1.1,Win32,29.9940012,5e67a895fafaa10180652312,69b95efdef24cd8a694e89ee,69b96023a2d48d86232c5065,0.086,0.086,0,60,60,116,1,sevenfive,,,,,,,,,,,,,,,,,,,,,,,,,,,,,,,,,,,,,,,,,,,,,,,,,,,,,,,,,,,,,,,,,,,,,,,,,,,,,,,,,,,,,,,,,,,,,,,,,,,,,,,,,,,,,,,,,,,,,,,,,,,,,,,,,,,,,,,,,
,,5e67a895fafaa10180652312,2026-03-17_11h08.38.757,kallum_motion_pilot_GIST_update_2,2026.1.1,Win32,29.9940012,5e67a895fafaa10180652312,69b95efdef24cd8a694e89ee,69b96023a2d48d86232c5065,0.086,0.086,0,61,61,1,1,onethree,,,,,,,,,,,,,,,,,,,,,,,,,,,,,,,,,,,,,,,,,,,,,,,,,,,,,,,,,,,,,,,,,,,,,,,,,,,,,,,,,,,,,,,,,,,,,,,,,,,,,,,,,,,,,,,,,,,,,,,,,,,,,,,,,,,,,,,,,
,,5e67a895fafaa10180652312,2026-03-17_11h08.38.757,kallum_motion_pilot_GIST_update_2,2026.1.1,Win32,29.9940012,5e67a895fafaa10180652312,69b95efdef24cd8a694e89ee,69b96023a2d48d86232c5065,0.087,0.087,0,62,62,7,1,fourthree,,,,,,,,,,,,,,,,,,,,,,,,,,,,,,,,,,,,,,,,,,,,,,,,,,,,,,,,,,,,,,,,,,,,,,,,,,,,,,,,,,,,,,,,,,,,,,,,,,,,,,,,,,,,,,,,,,,,,,,,,,,,,,,,,,,,,,,,,
,,5e67a895fafaa10180652312,2026-03-17_11h08.38.757,kallum_motion_pilot_GIST_update_2,2026.1.1,Win32,29.9940012,5e67a895fafaa10180652312,69b95efdef24cd8a694e89ee,69b96023a2d48d86232c5065,0.087,0.087,0,63,63,10,1,twoone,,,,,,,,,,,,,,,,,,,,,,,,,,,,,,,,,,,,,,,,,,,,,,,,,,,,,,,,,,,,,,,,,,,,,,,,,,,,,,,,,,,,,,,,,,,,,,,,,,,,,,,,,,,,,,,,,,,,,,,,,,,,,,,,,,,,,,,,,
,,5e67a895fafaa10180652312,2026-03-17_11h08.38.757,kallum_motion_pilot_GIST_update_2,2026.1.1,Win32,29.9940012,5e67a895fafaa10180652312,69b95efdef24cd8a694e89ee,69b96023a2d48d86232c5065,0.087,0.087,0,64,64,65,1,onethree,,,,,,,,,,,,,,,,,,,,,,,,,,,,,,,,,,,,,,,,,,,,,,,,,,,,,,,,,,,,,,,,,,,,,,,,,,,,,,,,,,,,,,,,,,,,,,,,,,,,,,,,,,,,,,,,,,,,,,,,,,,,,,,,,,,,,,,,,
,,5e67a895fafaa10180652312,2026-03-17_11h08.38.757,kallum_motion_pilot_GIST_update_2,2026.1.1,Win32,29.9940012,5e67a895fafaa10180652312,69b95efdef24cd8a694e89ee,69b96023a2d48d86232c5065,0.087,0.087,0,65,65,142,1,eightsix,,,,,,,,,,,,,,,,,,,,,,,,,,,,,,,,,,,,,,,,,,,,,,,,,,,,,,,,,,,,,,,,,,,,,,,,,,,,,,,,,,,,,,,,,,,,,,,,,,,,,,,,,,,,,,,,,,,,,,,,,,,,,,,,,,,,,,,,,
,,5e67a895fafaa10180652312,2026-03-17_11h08.38.757,kallum_motion_pilot_GIST_update_2,2026.1.1,Win32,29.9940012,5e67a895fafaa10180652312,69b95efdef24cd8a694e89ee,69b96023a2d48d86232c5065,0.087,0.087,0,66,66,96,1,fivesix,,,,,,,,,,,,,,,,,,,,,,,,,,,,,,,,,,,,,,,,,,,,,,,,,,,,,,,,,,,,,,,,,,,,,,,,,,,,,,,,,,,,,,,,,,,,,,,,,,,,,,,,,,,,,,,,,,,,,,,,,,,,,,,,,,,,,,,,,
,,5e67a895fafaa10180652312,2026-03-17_11h08.38.757,kallum_motion_pilot_GIST_update_2,2026.1.1,Win32,29.9940012,5e67a895fafaa10180652312,69b95efdef24cd8a694e89ee,69b96023a2d48d86232c5065,0.087,0.087,0,67,67,34,1,twoone,,,,,,,,,,,,,,,,,,,,,,,,,,,,,,,,,,,,,,,,,,,,,,,,,,,,,,,,,,,,,,,,,,,,,,,,,,,,,,,,,,,,,,,,,,,,,,,,,,,,,,,,,,,,,,,,,,,,,,,,,,,,,,,,,,,,,,,,,
,,5e67a895fafaa10180652312,2026-03-17_11h08.38.757,kallum_motion_pilot_GIST_update_2,2026.1.1,Win32,29.9940012,5e67a895fafaa10180652312,69b95efdef24cd8a694e89ee,69b96023a2d48d86232c5065,0.087,0.087,0,68,68,159,1,eightseven,,,,,,,,,,,,,,,,,,,,,,,,,,,,,,,,,,,,,,,,,,,,,,,,,,,,,,,,,,,,,,,,,,,,,,,,,,,,,,,,,,,,,,,,,,,,,,,,,,,,,,,,,,,,,,,,,,,,,,,,,,,,,,,,,,,,,,,,,
,,5e67a895fafaa10180652312,2026-03-17_11h08.38.757,kallum_motion_pilot_GIST_update_2,2026.1.1,Win32,29.9940012,5e67a895fafaa10180652312,69b95efdef24cd8a694e89ee,69b96023a2d48d86232c5065,0.087,0.087,0,69,69,149,1,seveneight,,,,,,,,,,,,,,,,,,,,,,,,,,,,,,,,,,,,,,,,,,,,,,,,,,,,,,,,,,,,,,,,,,,,,,,,,,,,,,,,,,,,,,,,,,,,,,,,,,,,,,,,,,,,,,,,,,,,,,,,,,,,,,,,,,,,,,,,,
,,5e67a895fafaa10180652312,2026-03-17_11h08.38.757,kallum_motion_pilot_GIST_update_2,2026.1.1,Win32,29.9940012,5e67a895fafaa10180652312,69b95efdef24cd8a694e89ee,69b96023a2d48d86232c5065,0.087,0.087,0,70,70,12,1,threeone,,,,,,,,,,,,,,,,,,,,,,,,,,,,,,,,,,,,,,,,,,,,,,,,,,,,,,,,,,,,,,,,,,,,,,,,,,,,,,,,,,,,,,,,,,,,,,,,,,,,,,,,,,,,,,,,,,,,,,,,,,,,,,,,,,,,,,,,,
,,5e67a895fafaa10180652312,2026-03-17_11h08.38.757,kallum_motion_pilot_GIST_update_2,2026.1.1,Win32,29.9940012,5e67a895fafaa10180652312,69b95efdef24cd8a694e89ee,69b96023a2d48d86232c5065,0.087,0.087,0,71,71,46,1,fourtwo,,,,,,,,,,,,,,,,,,,,,,,,,,,,,,,,,,,,,,,,,,,,,,,,,,,,,,,,,,,,,,,,,,,,,,,,,,,,,,,,,,,,,,,,,,,,,,,,,,,,,,,,,,,,,,,,,,,,,,,,,,,,,,,,,,,,,,,,,
,,5e67a895fafaa10180652312,2026-03-17_11h08.38.757,kallum_motion_pilot_GIST_update_2,2026.1.1,Win32,29.9940012,5e67a895fafaa10180652312,69b95efdef24cd8a694e89ee,69b96023a2d48d86232c5065,0.088,0.088,0,72,72,77,1,threefour,,,,,,,,,,,,,,,,,,,,,,,,,,,,,,,,,,,,,,,,,,,,,,,,,,,,,,,,,,,,,,,,,,,,,,,,,,,,,,,,,,,,,,,,,,,,,,,,,,,,,,,,,,,,,,,,,,,,,,,,,,,,,,,,,,,,,,,,,
,,5e67a895fafaa10180652312,2026-03-17_11h08.38.757,kallum_motion_pilot_GIST_update_2,2026.1.1,Win32,29.9940012,5e67a895fafaa10180652312,69b95efdef24cd8a694e89ee,69b96023a2d48d86232c5065,0.089,0.089,0,73,73,138,1,sixfive,,,,,,,,,,,,,,,,,,,,,,,,,,,,,,,,,,,,,,,,,,,,,,,,,,,,,,,,,,,,,,,,,,,,,,,,,,,,,,,,,,,,,,,,,,,,,,,,,,,,,,,,,,,,,,,,,,,,,,,,,,,,,,,,,,,,,,,,,
,,5e67a895fafaa10180652312,2026-03-17_11h08.38.757,kallum_motion_pilot_GIST_update_2,2026.1.1,Win32,29.9940012,5e67a895fafaa10180652312,69b95efdef24cd8a694e89ee,69b96023a2d48d86232c5065,0.089,0.089,0,74,74,90,1,sixfive,,,,,,,,,,,,,,,,,,,,,,,,,,,,,,,,,,,,,,,,,,,,,,,,,,,,,,,,,,,,,,,,,,,,,,,,,,,,,,,,,,,,,,,,,,,,,,,,,,,,,,,,,,,,,,,,,,,,,,,,,,,,,,,,,,,,,,,,,
,,5e67a895fafaa10180652312,2026-03-17_11h08.38.757,kallum_motion_pilot_GIST_update_2,2026.1.1,Win32,29.9940012,5e67a895fafaa10180652312,69b95efdef24cd8a694e89ee,69b96023a2d48d86232c5065,0.089,0.089,0,75,75,24,1,onetwo,,,,,,,,,,,,,,,,,,,,,,,,,,,,,,,,,,,,,,,,,,,,,,,,,,,,,,,,,,,,,,,,,,,,,,,,,,,,,,,,,,,,,,,,,,,,,,,,,,,,,,,,,,,,,,,,,,,,,,,,,,,,,,,,,,,,,,,,,
,,5e67a895fafaa10180652312,2026-03-17_11h08.38.757,kallum_motion_pilot_GIST_update_2,2026.1.1,Win32,29.9940012,5e67a895fafaa10180652312,69b95efdef24cd8a694e89ee,69b96023a2d48d86232c5065,0.089,0.089,0,76,76,63,1,fourthree,,,,,,,,,,,,,,,,,,,,,,,,,,,,,,,,,,,,,,,,,,,,,,,,,,,,,,,,,,,,,,,,,,,,,,,,,,,,,,,,,,,,,,,,,,,,,,,,,,,,,,,,,,,,,,,,,,,,,,,,,,,,,,,,,,,,,,,,,
,,5e67a895fafaa10180652312,2026-03-17_11h08.38.757,kallum_motion_pilot_GIST_update_2,2026.1.1,Win32,29.9940012,5e67a895fafaa10180652312,69b95efdef24cd8a694e89ee,69b96023a2d48d86232c5065,0.09,0.09,0,77,77,51,1,twofour,,,,,,,,,,,,,,,,,,,,,,,,,,,,,,,,,,,,,,,,,,,,,,,,,,,,,,,,,,,,,,,,,,,,,,,,,,,,,,,,,,,,,,,,,,,,,,,,,,,,,,,,,,,,,,,,,,,,,,,,,,,,,,,,,,,,,,,,,
,,5e67a895fafaa10180652312,2026-03-17_11h08.38.757,kallum_motion_pilot_GIST_update_2,2026.1.1,Win32,29.9940012,5e67a895fafaa10180652312,69b95efdef24cd8a694e89ee,69b96023a2d48d86232c5065,0.09,0.09,0,78,78,128,1,fivesix,,,,,,,,,,,,,,,,,,,,,,,,,,,,,,,,,,,,,,,,,,,,,,,,,,,,,,,,,,,,,,,,,,,,,,,,,,,,,,,,,,,,,,,,,,,,,,,,,,,,,,,,,,,,,,,,,,,,,,,,,,,,,,,,,,,,,,,,,
,,5e67a895fafaa10180652312,2026-03-17_11h08.38.757,kallum_motion_pilot_GIST_update_2,2026.1.1,Win32,29.9940012,5e67a895fafaa10180652312,69b95efdef24cd8a694e89ee,69b96023a2d48d86232c5065,0.09,0.09,0,79,79,6,1,fourtwo,,,,,,,,,,,,,,,,,,,,,,,,,,,,,,,,,,,,,,,,,,,,,,,,,,,,,,,,,,,,,,,,,,,,,,,,,,,,,,,,,,,,,,,,,,,,,,,,,,,,,,,,,,,,,,,,,,,,,,,,,,,,,,,,,,,,,,,,,
,,5e67a895fafaa10180652312,2026-03-17_11h08.38.757,kallum_motion_pilot_GIST_update_2,2026.1.1,Win32,29.9940012,5e67a895fafaa10180652312,69b95efdef24cd8a694e89ee,69b96023a2d48d86232c5065,0.091,0.091,0,80,80,87,1,eightseven,,,,,,,,,,,,,,,,,,,,,,,,,,,,,,,,,,,,,,,,,,,,,,,,,,,,,,,,,,,,,,,,,,,,,,,,,,,,,,,,,,,,,,,,,,,,,,,,,,,,,,,,,,,,,,,,,,,,,,,,,,,,,,,,,,,,,,,,,
,,5e67a895fafaa10180652312,2026-03-17_11h08.38.757,kallum_motion_pilot_GIST_update_2,2026.1.1,Win32,29.9940012,5e67a895fafaa10180652312,69b95efdef24cd8a694e89ee,69b96023a2d48d86232c5065,0.091,0.091,0,81,81,49,1,onethree,,,,,,,,,,,,,,,,,,,,,,,,,,,,,,,,,,,,,,,,,,,,,,,,,,,,,,,,,,,,,,,,,,,,,,,,,,,,,,,,,,,,,,,,,,,,,,,,,,,,,,,,,,,,,,,,,,,,,,,,,,,,,,,,,,,,,,,,,
,,5e67a895fafaa10180652312,2026-03-17_11h08.38.757,kallum_motion_pilot_GIST_update_2,2026.1.1,Win32,29.9940012,5e67a895fafaa10180652312,69b95efdef24cd8a694e89ee,69b96023a2d48d86232c5065,0.091,0.091,0,82,82,147,1,sixeight,,,,,,,,,,,,,,,,,,,,,,,,,,,,,,,,,,,,,,,,,,,,,,,,,,,,,,,,,,,,,,,,,,,,,,,,,,,,,,,,,,,,,,,,,,,,,,,,,,,,,,,,,,,,,,,,,,,,,,,,,,,,,,,,,,,,,,,,,
,,5e67a895fafaa10180652312,2026-03-17_11h08.38.757,kallum_motion_pilot_GIST_update_2,2026.1.1,Win32,29.9940012,5e67a895fafaa10180652312,69b95efdef24cd8a694e89ee,69b96023a2d48d86232c5065,0.091,0.091,0,83,83,118,1,eightsix,,,,,,,,,,,,,,,,,,,,,,,,,,,,,,,,,,,,,,,,,,,,,,,,,,,,,,,,,,,,,,,,,,,,,,,,,,,,,,,,,,,,,,,,,,,,,,,,,,,,,,,,,,,,,,,,,,,,,,,,,,,,,,,,,,,,,,,,,
,,5e67a895fafaa10180652312,2026-03-17_11h08.38.757,kallum_motion_pilot_GIST_update_2,2026.1.1,Win32,29.9940012,5e67a895fafaa10180652312,69b95efdef24cd8a694e89ee,69b96023a2d48d86232c5065,0.091,0.091,0,84,84,114,1,sixfive,,,,,,,,,,,,,,,,,,,,,,,,,,,,,,,,,,,,,,,,,,,,,,,,,,,,,,,,,,,,,,,,,,,,,,,,,,,,,,,,,,,,,,,,,,,,,,,,,,,,,,,,,,,,,,,,,,,,,,,,,,,,,,,,,,,,,,,,,
,,5e67a895fafaa10180652312,2026-03-17_11h08.38.757,kallum_motion_pilot_GIST_update_2,2026.1.1,Win32,29.9940012,5e67a895fafaa10180652312,69b95efdef24cd8a694e89ee,69b96023a2d48d86232c5065,0.092,0.092,0,85,85,40,1,onetwo,,,,,,,,,,,,,,,,,,,,,,,,,,,,,,,,,,,,,,,,,,,,,,,,,,,,,,,,,,,,,,,,,,,,,,,,,,,,,,,,,,,,,,,,,,,,,,,,,,,,,,,,,,,,,,,,,,,,,,,,,,,,,,,,,,,,,,,,,
,,5e67a895fafaa10180652312,2026-03-17_11h08.38.757,kallum_motion_pilot_GIST_update_2,2026.1.1,Win32,29.9940012,5e67a895fafaa10180652312,69b95efdef24cd8a694e89ee,69b96023a2d48d86232c5065,0.092,0.092,0,86,86,84,1,sevenfive,,,,,,,,,,,,,,,,,,,,,,,,,,,,,,,,,,,,,,,,,,,,,,,,,,,,,,,,,,,,,,,,,,,,,,,,,,,,,,,,,,,,,,,,,,,,,,,,,,,,,,,,,,,,,,,,,,,,,,,,,,,,,,,,,,,,,,,,,
,,5e67a895fafaa10180652312,2026-03-17_11h08.38.757,kallum_motion_pilot_GIST_update_2,2026.1.1,Win32,29.9940012,5e67a895fafaa10180652312,69b95efdef24cd8a694e89ee,69b96023a2d48d86232c5065,0.092,0.092,0,87,87,153,1,fiveseven,,,,,,,,,,,,,,,,,,,,,,,,,,,,,,,,,,,,,,,,,,,,,,,,,,,,,,,,,,,,,,,,,,,,,,,,,,,,,,,,,,,,,,,,,,,,,,,,,,,,,,,,,,,,,,,,,,,,,,,,,,,,,,,,,,,,,,,,,
,,5e67a895fafaa10180652312,2026-03-17_11h08.38.757,kallum_motion_pilot_GIST_update_2,2026.1.1,Win32,29.9940012,5e67a895fafaa10180652312,69b95efdef24cd8a694e89ee,69b96023a2d48d86232c5065,0.092,0.092,0,88,88,3,1,twofour,,,,,,,,,,,,,,,,,,,,,,,,,,,,,,,,,,,,,,,,,,,,,,,,,,,,,,,,,,,,,,,,,,,,,,,,,,,,,,,,,,,,,,,,,,,,,,,,,,,,,,,,,,,,,,,,,,,,,,,,,,,,,,,,,,,,,,,,,
,,5e67a895fafaa10180652312,2026-03-17_11h08.38.757,kallum_motion_pilot_GIST_update_2,2026.1.1,Win32,29.9940012,5e67a895fafaa10180652312,69b95efdef24cd8a694e89ee,69b96023a2d48d86232c5065,0.094,0.094,0,89,89,152,1,fivesix,,,,,,,,,,,,,,,,,,,,,,,,,,,,,,,,,,,,,,,,,,,,,,,,,,,,,,,,,,,,,,,,,,,,,,,,,,,,,,,,,,,,,,,,,,,,,,,,,,,,,,,,,,,,,,,,,,,,,,,,,,,,,,,,,,,,,,,,,
,,5e67a895fafaa10180652312,2026-03-17_11h08.38.757,kallum_motion_pilot_GIST_update_2,2026.1.1,Win32,29.9940012,5e67a895fafaa10180652312,69b95efdef24cd8a694e89ee,69b96023a2d48d86232c5065,0.095,0.095,0,90,90,139,1,sixeight,,,,,,,,,,,,,,,,,,,,,,,,,,,,,,,,,,,,,,,,,,,,,,,,,,,,,,,,,,,,,,,,,,,,,,,,,,,,,,,,,,,,,,,,,,,,,,,,,,,,,,,,,,,,,,,,,,,,,,,,,,,,,,,,,,,,,,,,,
,,5e67a895fafaa10180652312,2026-03-17_11h08.38.757,kallum_motion_pilot_GIST_update_2,2026.1.1,Win32,29.9940012,5e67a895fafaa10180652312,69b95efdef24cd8a694e89ee,69b96023a2d48d86232c5065,0.096,0.096,0,91,91,32,1,onetwo,,,,,,,,,,,,,,,,,,,,,,,,,,,,,,,,,,,,,,,,,,,,,,,,,,,,,,,,,,,,,,,,,,,,,,,,,,,,,,,,,,,,,,,,,,,,,,,,,,,,,,,,,,,,,,,,,,,,,,,,,,,,,,,,,,,,,,,,,
,,5e67a895fafaa10180652312,2026-03-17_11h08.38.757,kallum_motion_pilot_GIST_update_2,2026.1.1,Win32,29.9940012,5e67a895fafaa10180652312,69b95efdef24cd8a694e89ee,69b96023a2d48d86232c5065,0.097,0.097,0,92,92,52,1,threeone,,,,,,,,,,,,,,,,,,,,,,,,,,,,,,,,,,,,,,,,,,,,,,,,,,,,,,,,,,,,,,,,,,,,,,,,,,,,,,,,,,,,,,,,,,,,,,,,,,,,,,,,,,,,,,,,,,,,,,,,,,,,,,,,,,,,,,,,,
,,5e67a895fafaa10180652312,2026-03-17_11h08.38.757,kallum_motion_pilot_GIST_update_2,2026.1.1,Win32,29.9940012,5e67a895fafaa10180652312,69b95efdef24cd8a694e89ee,69b96023a2d48d86232c5065,0.098,0.098,0,93,93,115,1,sixeight,,,,,,,,,,,,,,,,,,,,,,,,,,,,,,,,,,,,,,,,,,,,,,,,,,,,,,,,,,,,,,,,,,,,,,,,,,,,,,,,,,,,,,,,,,,,,,,,,,,,,,,,,,,,,,,,,,,,,,,,,,,,,,,,,,,,,,,,,
,,5e67a895fafaa10180652312,2026-03-17_11h08.38.757,kallum_motion_pilot_GIST_update_2,2026.1.1,Win32,29.9940012,5e67a895fafaa10180652312,69b95efdef24cd8a694e89ee,69b96023a2d48d86232c5065,0.099,0.099,0,94,94,91,1,sixeight,,,,,,,,,,,,,,,,,,,,,,,,,,,,,,,,,,,,,,,,,,,,,,,,,,,,,,,,,,,,,,,,,,,,,,,,,,,,,,,,,,,,,,,,,,,,,,,,,,,,,,,,,,,,,,,,,,,,,,,,,,,,,,,,,,,,,,,,,
,,5e67a895fafaa10180652312,2026-03-17_11h08.38.757,kallum_motion_pilot_GIST_update_2,2026.1.1,Win32,29.9940012,5e67a895fafaa10180652312,69b95efdef24cd8a694e89ee,69b96023a2d48d86232c5065,0.099,0.099,0,95,95,17,1,onethree,,,,,,,,,,,,,,,,,,,,,,,,,,,,,,,,,,,,,,,,,,,,,,,,,,,,,,,,,,,,,,,,,,,,,,,,,,,,,,,,,,,,,,,,,,,,,,,,,,,,,,,,,,,,,,,,,,,,,,,,,,,,,,,,,,,,,,,,,
,,5e67a895fafaa10180652312,2026-03-17_11h08.38.757,kallum_motion_pilot_GIST_update_2,2026.1.1,Win32,29.9940012,5e67a895fafaa10180652312,69b95efdef24cd8a694e89ee,69b96023a2d48d86232c5065,0.1,0.1,0,96,96,154,1,sixfive,,,,,,,,,,,,,,,,,,,,,,,,,,,,,,,,,,,,,,,,,,,,,,,,,,,,,,,,,,,,,,,,,,,,,,,,,,,,,,,,,,,,,,,,,,,,,,,,,,,,,,,,,,,,,,,,,,,,,,,,,,,,,,,,,,,,,,,,,
,,5e67a895fafaa10180652312,2026-03-17_11h08.38.757,kallum_motion_pilot_GIST_update_2,2026.1.1,Win32,29.9940012,5e67a895fafaa10180652312,69b95efdef24cd8a694e89ee,69b96023a2d48d86232c5065,0.1,0.1,0,97,97,104,1,fivesix,,,,,,,,,,,,,,,,,,,,,,,,,,,,,,,,,,,,,,,,,,,,,,,,,,,,,,,,,,,,,,,,,,,,,,,,,,,,,,,,,,,,,,,,,,,,,,,,,,,,,,,,,,,,,,,,,,,,,,,,,,,,,,,,,,,,,,,,,
,,5e67a895fafaa10180652312,2026-03-17_11h08.38.757,kallum_motion_pilot_GIST_update_2,2026.1.1,Win32,29.9940012,5e67a895fafaa10180652312,69b95efdef24cd8a694e89ee,69b96023a2d48d86232c5065,0.1,0.1,0,98,98,97,1,fiveseven,,,,,,,,,,,,,,,,,,,,,,,,,,,,,,,,,,,,,,,,,,,,,,,,,,,,,,,,,,,,,,,,,,,,,,,,,,,,,,,,,,,,,,,,,,,,,,,,,,,,,,,,,,,,,,,,,,,,,,,,,,,,,,,,,,,,,,,,,
,,5e67a895fafaa10180652312,2026-03-17_11h08.38.757,kallum_motion_pilot_GIST_update_2,2026.1.1,Win32,29.9940012,5e67a895fafaa10180652312,69b95efdef24cd8a694e89ee,69b96023a2d48d86232c5065,0.101,0.101,0,99,99,85,1,seveneight,,,,,,,,,,,,,,,,,,,,,,,,,,,,,,,,,,,,,,,,,,,,,,,,,,,,,,,,,,,,,,,,,,,,,,,,,,,,,,,,,,,,,,,,,,,,,,,,,,,,,,,,,,,,,,,,,,,,,,,,,,,,,,,,,,,,,,,,,
,,5e67a895fafaa10180652312,2026-03-17_11h08.38.757,kallum_motion_pilot_GIST_update_2,2026.1.1,Win32,29.9940012,5e67a895fafaa10180652312,69b95efdef24cd8a694e89ee,69b96023a2d48d86232c5065,0.101,0.101,0,100,100,61,1,threefour,,,,,,,,,,,,,,,,,,,,,,,,,,,,,,,,,,,,,,,,,,,,,,,,,,,,,,,,,,,,,,,,,,,,,,,,,,,,,,,,,,,,,,,,,,,,,,,,,,,,,,,,,,,,,,,,,,,,,,,,,,,,,,,,,,,,,,,,,
,,5e67a895fafaa10180652312,2026-03-17_11h08.38.757,kallum_motion_pilot_GIST_update_2,2026.1.1,Win32,29.9940012,5e67a895fafaa10180652312,69b95efdef24cd8a694e89ee,69b96023a2d48d86232c5065,0.101,0.101,0,101,101,121,1,fiveseven,,,,,,,,,,,,,,,,,,,,,,,,,,,,,,,,,,,,,,,,,,,,,,,,,,,,,,,,,,,,,,,,,,,,,,,,,,,,,,,,,,,,,,,,,,,,,,,,,,,,,,,,,,,,,,,,,,,,,,,,,,,,,,,,,,,,,,,,,
,,5e67a895fafaa10180652312,2026-03-17_11h08.38.757,kallum_motion_pilot_GIST_update_2,2026.1.1,Win32,29.9940012,5e67a895fafaa10180652312,69b95efdef24cd8a694e89ee,69b96023a2d48d86232c5065,0.101,0.101,0,102,102,70,1,fourtwo,,,,,,,,,,,,,,,,,,,,,,,,,,,,,,,,,,,,,,,,,,,,,,,,,,,,,,,,,,,,,,,,,,,,,,,,,,,,,,,,,,,,,,,,,,,,,,,,,,,,,,,,,,,,,,,,,,,,,,,,,,,,,,,,,,,,,,,,,
,,5e67a895fafaa10180652312,2026-03-17_11h08.38.757,kallum_motion_pilot_GIST_update_2,2026.1.1,Win32,29.9940012,5e67a895fafaa10180652312,69b95efdef24cd8a694e89ee,69b96023a2d48d86232c5065,0.101,0.101,0,103,103,50,1,twoone,,,,,,,,,,,,,,,,,,,,,,,,,,,,,,,,,,,,,,,,,,,,,,,,,,,,,,,,,,,,,,,,,,,,,,,,,,,,,,,,,,,,,,,,,,,,,,,,,,,,,,,,,,,,,,,,,,,,,,,,,,,,,,,,,,,,,,,,,
,,5e67a895fafaa10180652312,2026-03-17_11h08.38.757,kallum_motion_pilot_GIST_update_2,2026.1.1,Win32,29.9940012,5e67a895fafaa10180652312,69b95efdef24cd8a694e89ee,69b96023a2d48d86232c5065,0.102,0.102,0,104,104,56,1,onetwo,,,,,,,,,,,,,,,,,,,,,,,,,,,,,,,,,,,,,,,,,,,,,,,,,,,,,,,,,,,,,,,,,,,,,,,,,,,,,,,,,,,,,,,,,,,,,,,,,,,,,,,,,,,,,,,,,,,,,,,,,,,,,,,,,,,,,,,,,
,,5e67a895fafaa10180652312,2026-03-17_11h08.38.757,kallum_motion_pilot_GIST_update_2,2026.1.1,Win32,29.9940012,5e67a895fafaa10180652312,69b95efdef24cd8a694e89ee,69b96023a2d48d86232c5065,0.102,0.102,0,105,105,80,1,fivesix,,,,,,,,,,,,,,,,,,,,,,,,,,,,,,,,,,,,,,,,,,,,,,,,,,,,,,,,,,,,,,,,,,,,,,,,,,,,,,,,,,,,,,,,,,,,,,,,,,,,,,,,,,,,,,,,,,,,,,,,,,,,,,,,,,,,,,,,,
,,5e67a895fafaa10180652312,2026-03-17_11h08.38.757,kallum_motion_pilot_GIST_update_2,2026.1.1,Win32,29.9940012,5e67a895fafaa10180652312,69b95efdef24cd8a694e89ee,69b96023a2d48d86232c5065,0.102,0.102,0,106,106,144,1,fivesix,,,,,,,,,,,,,,,,,,,,,,,,,,,,,,,,,,,,,,,,,,,,,,,,,,,,,,,,,,,,,,,,,,,,,,,,,,,,,,,,,,,,,,,,,,,,,,,,,,,,,,,,,,,,,,,,,,,,,,,,,,,,,,,,,,,,,,,,,
,,5e67a895fafaa10180652312,2026-03-17_11h08.38.757,kallum_motion_pilot_GIST_update_2,2026.1.1,Win32,29.9940012,5e67a895fafaa10180652312,69b95efdef24cd8a694e89ee,69b96023a2d48d86232c5065,0.102,0.102,0,107,107,150,1,eightsix,,,,,,,,,,,,,,,,,,,,,,,,,,,,,,,,,,,,,,,,,,,,,,,,,,,,,,,,,,,,,,,,,,,,,,,,,,,,,,,,,,,,,,,,,,,,,,,,,,,,,,,,,,,,,,,,,,,,,,,,,,,,,,,,,,,,,,,,,
,,5e67a895fafaa10180652312,2026-03-17_11h08.38.757,kallum_motion_pilot_GIST_update_2,2026.1.1,Win32,29.9940012,5e67a895fafaa10180652312,69b95efdef24cd8a694e89ee,69b96023a2d48d86232c5065,0.102,0.102,0,108,108,92,1,sevenfive,,,,,,,,,,,,,,,,,,,,,,,,,,,,,,,,,,,,,,,,,,,,,,,,,,,,,,,,,,,,,,,,,,,,,,,,,,,,,,,,,,,,,,,,,,,,,,,,,,,,,,,,,,,,,,,,,,,,,,,,,,,,,,,,,,,,,,,,,
,,5e67a895fafaa10180652312,2026-03-17_11h08.38.757,kallum_motion_pilot_GIST_update_2,2026.1.1,Win32,29.9940012,5e67a895fafaa10180652312,69b95efdef24cd8a694e89ee,69b96023a2d48d86232c5065,0.102,0.102,0,109,109,123,1,sixeight,,,,,,,,,,,,,,,,,,,,,,,,,,,,,,,,,,,,,,,,,,,,,,,,,,,,,,,,,,,,,,,,,,,,,,,,,,,,,,,,,,,,,,,,,,,,,,,,,,,,,,,,,,,,,,,,,,,,,,,,,,,,,,,,,,,,,,,,,
,,5e67a895fafaa10180652312,2026-03-17_11h08.38.757,kallum_motion_pilot_GIST_update_2,2026.1.1,Win32,29.9940012,5e67a895fafaa10180652312,69b95efdef24cd8a694e89ee,69b96023a2d48d86232c5065,0.102,0.102,0,110,110,5,1,threefour,,,,,,,,,,,,,,,,,,,,,,,,,,,,,,,,,,,,,,,,,,,,,,,,,,,,,,,,,,,,,,,,,,,,,,,,,,,,,,,,,,,,,,,,,,,,,,,,,,,,,,,,,,,,,,,,,,,,,,,,,,,,,,,,,,,,,,,,,
,,5e67a895fafaa10180652312,2026-03-17_11h08.38.757,kallum_motion_pilot_GIST_update_2,2026.1.1,Win32,29.9940012,5e67a895fafaa10180652312,69b95efdef24cd8a694e89ee,69b96023a2d48d86232c5065,0.103,0.103,0,111,111,76,1,threeone,,,,,,,,,,,,,,,,,,,,,,,,,,,,,,,,,,,,,,,,,,,,,,,,,,,,,,,,,,,,,,,,,,,,,,,,,,,,,,,,,,,,,,,,,,,,,,,,,,,,,,,,,,,,,,,,,,,,,,,,,,,,,,,,,,,,,,,,,
,,5e67a895fafaa10180652312,2026-03-17_11h08.38.757,kallum_motion_pilot_GIST_update_2,2026.1.1,Win32,29.9940012,5e67a895fafaa10180652312,69b95efdef24cd8a694e89ee,69b96023a2d48d86232c5065,0.103,0.103,0,112,112,120,1,fivesix,,,,,,,,,,,,,,,,,,,,,,,,,,,,,,,,,,,,,,,,,,,,,,,,,,,,,,,,,,,,,,,,,,,,,,,,,,,,,,,,,,,,,,,,,,,,,,,,,,,,,,,,,,,,,,,,,,,,,,,,,,,,,,,,,,,,,,,,,
,,5e67a895fafaa10180652312,2026-03-17_11h08.38.757,kallum_motion_pilot_GIST_update_2,2026.1.1,Win32,29.9940012,5e67a895fafaa10180652312,69b95efdef24cd8a694e89ee,69b96023a2d48d86232c5065,0.103,0.103,0,113,113,44,1,threeone,,,,,,,,,,,,,,,,,,,,,,,,,,,,,,,,,,,,,,,,,,,,,,,,,,,,,,,,,,,,,,,,,,,,,,,,,,,,,,,,,,,,,,,,,,,,,,,,,,,,,,,,,,,,,,,,,,,,,,,,,,,,,,,,,,,,,,,,,
,,5e67a895fafaa10180652312,2026-03-17_11h08.38.757,kallum_motion_pilot_GIST_update_2,2026.1.1,Win32,29.9940012,5e67a895fafaa10180652312,69b95efdef24cd8a694e89ee,69b96023a2d48d86232c5065,0.103,0.103,0,114,114,60,1,threeone,,,,,,,,,,,,,,,,,,,,,,,,,,,,,,,,,,,,,,,,,,,,,,,,,,,,,,,,,,,,,,,,,,,,,,,,,,,,,,,,,,,,,,,,,,,,,,,,,,,,,,,,,,,,,,,,,,,,,,,,,,,,,,,,,,,,,,,,,
,,5e67a895fafaa10180652312,2026-03-17_11h08.38.757,kallum_motion_pilot_GIST_update_2,2026.1.1,Win32,29.9940012,5e67a895fafaa10180652312,69b95efdef24cd8a694e89ee,69b96023a2d48d86232c5065,0.103,0.103,0,115,115,158,1,eightsix,,,,,,,,,,,,,,,,,,,,,,,,,,,,,,,,,,,,,,,,,,,,,,,,,,,,,,,,,,,,,,,,,,,,,,,,,,,,,,,,,,,,,,,,,,,,,,,,,,,,,,,,,,,,,,,,,,,,,,,,,,,,,,,,,,,,,,,,,
,,5e67a895fafaa10180652312,2026-03-17_11h08.38.757,kallum_motion_pilot_GIST_update_2,2026.1.1,Win32,29.9940012,5e67a895fafaa10180652312,69b95efdef24cd8a694e89ee,69b96023a2d48d86232c5065,0.103,0.103,0,116,116,37,1,threefour,,,,,,,,,,,,,,,,,,,,,,,,,,,,,,,,,,,,,,,,,,,,,,,,,,,,,,,,,,,,,,,,,,,,,,,,,,,,,,,,,,,,,,,,,,,,,,,,,,,,,,,,,,,,,,,,,,,,,,,,,,,,,,,,,,,,,,,,,
,,5e67a895fafaa10180652312,2026-03-17_11h08.38.757,kallum_motion_pilot_GIST_update_2,2026.1.1,Win32,29.9940012,5e67a895fafaa10180652312,69b95efdef24cd8a694e89ee,69b96023a2d48d86232c5065,0.103,0.103,0,117,117,71,1,fourthree,,,,,,,,,,,,,,,,,,,,,,,,,,,,,,,,,,,,,,,,,,,,,,,,,,,,,,,,,,,,,,,,,,,,,,,,,,,,,,,,,,,,,,,,,,,,,,,,,,,,,,,,,,,,,,,,,,,,,,,,,,,,,,,,,,,,,,,,,
,,5e67a895fafaa10180652312,2026-03-17_11h08.38.757,kallum_motion_pilot_GIST_update_2,2026.1.1,Win32,29.9940012,5e67a895fafaa10180652312,69b95efdef24cd8a694e89ee,69b96023a2d48d86232c5065,0.104,0.104,0,118,118,110,1,eightsix,,,,,,,,,,,,,,,,,,,,,,,,,,,,,,,,,,,,,,,,,,,,,,,,,,,,,,,,,,,,,,,,,,,,,,,,,,,,,,,,,,,,,,,,,,,,,,,,,,,,,,,,,,,,,,,,,,,,,,,,,,,,,,,,,,,,,,,,,
,,5e67a895fafaa10180652312,2026-03-17_11h08.38.757,kallum_motion_pilot_GIST_update_2,2026.1.1,Win32,29.9940012,5e67a895fafaa10180652312,69b95efdef24cd8a694e89ee,69b96023a2d48d86232c5065,0.104,0.104,0,119,119,47,1,fourthree,,,,,,,,,,,,,,,,,,,,,,,,,,,,,,,,,,,,,,,,,,,,,,,,,,,,,,,,,,,,,,,,,,,,,,,,,,,,,,,,,,,,,,,,,,,,,,,,,,,,,,,,,,,,,,,,,,,,,,,,,,,,,,,,,,,,,,,,,
,,5e67a895fafaa10180652312,2026-03-17_11h08.38.757,kallum_motion_pilot_GIST_update_2,2026.1.1,Win32,29.9940012,5e67a895fafaa10180652312,69b95efdef24cd8a694e89ee,69b96023a2d48d86232c5065,0.104,0.104,0,120,120,113,1,fiveseven,,,,,,,,,,,,,,,,,,,,,,,,,,,,,,,,,,,,,,,,,,,,,,,,,,,,,,,,,,,,,,,,,,,,,,,,,,,,,,,,,,,,,,,,,,,,,,,,,,,,,,,,,,,,,,,,,,,,,,,,,,,,,,,,,,,,,,,,,
,,5e67a895fafaa10180652312,2026-03-17_11h08.38.757,kallum_motion_pilot_GIST_update_2,2026.1.1,Win32,29.9940012,5e67a895fafaa10180652312,69b95efdef24cd8a694e89ee,69b96023a2d48d86232c5065,0.104,0.104,0,121,121,155,1,sixeight,,,,,,,,,,,,,,,,,,,,,,,,,,,,,,,,,,,,,,,,,,,,,,,,,,,,,,,,,,,,,,,,,,,,,,,,,,,,,,,,,,,,,,,,,,,,,,,,,,,,,,,,,,,,,,,,,,,,,,,,,,,,,,,,,,,,,,,,,
,,5e67a895fafaa10180652312,2026-03-17_11h08.38.757,kallum_motion_pilot_GIST_update_2,2026.1.1,Win32,29.9940012,5e67a895fafaa10180652312,69b95efdef24cd8a694e89ee,69b96023a2d48d86232c5065,0.104,0.104,0,122,122,130,1,sixfive,,,,,,,,,,,,,,,,,,,,,,,,,,,,,,,,,,,,,,,,,,,,,,,,,,,,,,,,,,,,,,,,,,,,,,,,,,,,,,,,,,,,,,,,,,,,,,,,,,,,,,,,,,,,,,,,,,,,,,,,,,,,,,,,,,,,,,,,,
,,5e67a895fafaa10180652312,2026-03-17_11h08.38.757,kallum_motion_pilot_GIST_update_2,2026.1.1,Win32,29.9940012,5e67a895fafaa10180652312,69b95efdef24cd8a694e89ee,69b96023a2d48d86232c5065,0.104,0.104,0,123,123,148,1,sevenfive,,,,,,,,,,,,,,,,,,,,,,,,,,,,,,,,,,,,,,,,,,,,,,,,,,,,,,,,,,,,,,,,,,,,,,,,,,,,,,,,,,,,,,,,,,,,,,,,,,,,,,,,,,,,,,,,,,,,,,,,,,,,,,,,,,,,,,,,,
,,5e67a895fafaa10180652312,2026-03-17_11h08.38.757,kallum_motion_pilot_GIST_update_2,2026.1.1,Win32,29.9940012,5e67a895fafaa10180652312,69b95efdef24cd8a694e89ee,69b96023a2d48d86232c5065,0.104,0.104,0,124,124,4,1,threeone,,,,,,,,,,,,,,,,,,,,,,,,,,,,,,,,,,,,,,,,,,,,,,,,,,,,,,,,,,,,,,,,,,,,,,,,,,,,,,,,,,,,,,,,,,,,,,,,,,,,,,,,,,,,,,,,,,,,,,,,,,,,,,,,,,,,,,,,,
,,5e67a895fafaa10180652312,2026-03-17_11h08.38.757,kallum_motion_pilot_GIST_update_2,2026.1.1,Win32,29.9940012,5e67a895fafaa10180652312,69b95efdef24cd8a694e89ee,69b96023a2d48d86232c5065,0.105,0.105,0,125,125,2,1,twoone,,,,,,,,,,,,,,,,,,,,,,,,,,,,,,,,,,,,,,,,,,,,,,,,,,,,,,,,,,,,,,,,,,,,,,,,,,,,,,,,,,,,,,,,,,,,,,,,,,,,,,,,,,,,,,,,,,,,,,,,,,,,,,,,,,,,,,,,,
,,5e67a895fafaa10180652312,2026-03-17_11h08.38.757,kallum_motion_pilot_GIST_update_2,2026.1.1,Win32,29.9940012,5e67a895fafaa10180652312,69b95efdef24cd8a694e89ee,69b96023a2d48d86232c5065,0.105,0.105,0,126,126,75,1,twofour,,,,,,,,,,,,,,,,,,,,,,,,,,,,,,,,,,,,,,,,,,,,,,,,,,,,,,,,,,,,,,,,,,,,,,,,,,,,,,,,,,,,,,,,,,,,,,,,,,,,,,,,,,,,,,,,,,,,,,,,,,,,,,,,,,,,,,,,,
,,5e67a895fafaa10180652312,2026-03-17_11h08.38.757,kallum_motion_pilot_GIST_update_2,2026.1.1,Win32,29.9940012,5e67a895fafaa10180652312,69b95efdef24cd8a694e89ee,69b96023a2d48d86232c5065,0.106,0.106,0,127,127,39,1,fourthree,,,,,,,,,,,,,,,,,,,,,,,,,,,,,,,,,,,,,,,,,,,,,,,,,,,,,,,,,,,,,,,,,,,,,,,,,,,,,,,,,,,,,,,,,,,,,,,,,,,,,,,,,,,,,,,,,,,,,,,,,,,,,,,,,,,,,,,,,
,,5e67a895fafaa10180652312,2026-03-17_11h08.38.757,kallum_motion_pilot_GIST_update_2,2026.1.1,Win32,29.9940012,5e67a895fafaa10180652312,69b95efdef24cd8a694e89ee,69b96023a2d48d86232c5065,0.106,0.106,0,128,128,81,1,fiveseven,,,,,,,,,,,,,,,,,,,,,,,,,,,,,,,,,,,,,,,,,,,,,,,,,,,,,,,,,,,,,,,,,,,,,,,,,,,,,,,,,,,,,,,,,,,,,,,,,,,,,,,,,,,,,,,,,,,,,,,,,,,,,,,,,,,,,,,,,
,,5e67a895fafaa10180652312,2026-03-17_11h08.38.757,kallum_motion_pilot_GIST_update_2,2026.1.1,Win32,29.9940012,5e67a895fafaa10180652312,69b95efdef24cd8a694e89ee,69b96023a2d48d86232c5065,0.106,0.106,0,129,129,133,1,seveneight,,,,,,,,,,,,,,,,,,,,,,,,,,,,,,,,,,,,,,,,,,,,,,,,,,,,,,,,,,,,,,,,,,,,,,,,,,,,,,,,,,,,,,,,,,,,,,,,,,,,,,,,,,,,,,,,,,,,,,,,,,,,,,,,,,,,,,,,,
,,5e67a895fafaa10180652312,2026-03-17_11h08.38.757,kallum_motion_pilot_GIST_update_2,2026.1.1,Win32,29.9940012,5e67a895fafaa10180652312,69b95efdef24cd8a694e89ee,69b96023a2d48d86232c5065,0.106,0.107,0,130,130,106,1,sixfive,,,,,,,,,,,,,,,,,,,,,,,,,,,,,,,,,,,,,,,,,,,,,,,,,,,,,,,,,,,,,,,,,,,,,,,,,,,,,,,,,,,,,,,,,,,,,,,,,,,,,,,,,,,,,,,,,,,,,,,,,,,,,,,,,,,,,,,,,
,,5e67a895fafaa10180652312,2026-03-17_11h08.38.757,kallum_motion_pilot_GIST_update_2,2026.1.1,Win32,29.9940012,5e67a895fafaa10180652312,69b95efdef24cd8a694e89ee,69b96023a2d48d86232c5065,0.107,0.107,0,131,131,78,1,fourtwo,,,,,,,,,,,,,,,,,,,,,,,,,,,,,,,,,,,,,,,,,,,,,,,,,,,,,,,,,,,,,,,,,,,,,,,,,,,,,,,,,,,,,,,,,,,,,,,,,,,,,,,,,,,,,,,,,,,,,,,,,,,,,,,,,,,,,,,,,
,,5e67a895fafaa10180652312,2026-03-17_11h08.38.757,kallum_motion_pilot_GIST_update_2,2026.1.1,Win32,29.9940012,5e67a895fafaa10180652312,69b95efdef24cd8a694e89ee,69b96023a2d48d86232c5065,0.107,0.107,0,132,132,62,1,fourtwo,,,,,,,,,,,,,,,,,,,,,,,,,,,,,,,,,,,,,,,,,,,,,,,,,,,,,,,,,,,,,,,,,,,,,,,,,,,,,,,,,,,,,,,,,,,,,,,,,,,,,,,,,,,,,,,,,,,,,,,,,,,,,,,,,,,,,,,,,
,,5e67a895fafaa10180652312,2026-03-17_11h08.38.757,kallum_motion_pilot_GIST_update_2,2026.1.1,Win32,29.9940012,5e67a895fafaa10180652312,69b95efdef24cd8a694e89ee,69b96023a2d48d86232c5065,0.107,0.107,0,133,133,21,1,threefour,,,,,,,,,,,,,,,,,,,,,,,,,,,,,,,,,,,,,,,,,,,,,,,,,,,,,,,,,,,,,,,,,,,,,,,,,,,,,,,,,,,,,,,,,,,,,,,,,,,,,,,,,,,,,,,,,,,,,,,,,,,,,,,,,,,,,,,,,
,,5e67a895fafaa10180652312,2026-03-17_11h08.38.757,kallum_motion_pilot_GIST_update_2,2026.1.1,Win32,29.9940012,5e67a895fafaa10180652312,69b95efdef24cd8a694e89ee,69b96023a2d48d86232c5065,0.107,0.107,0,134,134,124,1,sevenfive,,,,,,,,,,,,,,,,,,,,,,,,,,,,,,,,,,,,,,,,,,,,,,,,,,,,,,,,,,,,,,,,,,,,,,,,,,,,,,,,,,,,,,,,,,,,,,,,,,,,,,,,,,,,,,,,,,,,,,,,,,,,,,,,,,,,,,,,,
,,5e67a895fafaa10180652312,2026-03-17_11h08.38.757,kallum_motion_pilot_GIST_update_2,2026.1.1,Win32,29.9940012,5e67a895fafaa10180652312,69b95efdef24cd8a694e89ee,69b96023a2d48d86232c5065,0.108,0.108,0,135,135,157,1,seveneight,,,,,,,,,,,,,,,,,,,,,,,,,,,,,,,,,,,,,,,,,,,,,,,,,,,,,,,,,,,,,,,,,,,,,,,,,,,,,,,,,,,,,,,,,,,,,,,,,,,,,,,,,,,,,,,,,,,,,,,,,,,,,,,,,,,,,,,,,
,,5e67a895fafaa10180652312,2026-03-17_11h08.38.757,kallum_motion_pilot_GIST_update_2,2026.1.1,Win32,29.9940012,5e67a895fafaa10180652312,69b95efdef24cd8a694e89ee,69b96023a2d48d86232c5065,0.108,0.108,0,136,136,54,1,fourtwo,,,,,,,,,,,,,,,,,,,,,,,,,,,,,,,,,,,,,,,,,,,,,,,,,,,,,,,,,,,,,,,,,,,,,,,,,,,,,,,,,,,,,,,,,,,,,,,,,,,,,,,,,,,,,,,,,,,,,,,,,,,,,,,,,,,,,,,,,
,,5e67a895fafaa10180652312,2026-03-17_11h08.38.757,kallum_motion_pilot_GIST_update_2,2026.1.1,Win32,29.9940012,5e67a895fafaa10180652312,69b95efdef24cd8a694e89ee,69b96023a2d48d86232c5065,0.108,0.108,0,137,137,20,1,threeone,,,,,,,,,,,,,,,,,,,,,,,,,,,,,,,,,,,,,,,,,,,,,,,,,,,,,,,,,,,,,,,,,,,,,,,,,,,,,,,,,,,,,,,,,,,,,,,,,,,,,,,,,,,,,,,,,,,,,,,,,,,,,,,,,,,,,,,,,
,,5e67a895fafaa10180652312,2026-03-17_11h08.38.757,kallum_motion_pilot_GIST_update_2,2026.1.1,Win32,29.9940012,5e67a895fafaa10180652312,69b95efdef24cd8a694e89ee,69b96023a2d48d86232c5065,0.108,0.108,0,138,138,48,1,onetwo,,,,,,,,,,,,,,,,,,,,,,,,,,,,,,,,,,,,,,,,,,,,,,,,,,,,,,,,,,,,,,,,,,,,,,,,,,,,,,,,,,,,,,,,,,,,,,,,,,,,,,,,,,,,,,,,,,,,,,,,,,,,,,,,,,,,,,,,,
,,5e67a895fafaa10180652312,2026-03-17_11h08.38.757,kallum_motion_pilot_GIST_update_2,2026.1.1,Win32,29.9940012,5e67a895fafaa10180652312,69b95efdef24cd8a694e89ee,69b96023a2d48d86232c5065,0.108,0.108,0,139,139,146,1,sixfive,,,,,,,,,,,,,,,,,,,,,,,,,,,,,,,,,,,,,,,,,,,,,,,,,,,,,,,,,,,,,,,,,,,,,,,,,,,,,,,,,,,,,,,,,,,,,,,,,,,,,,,,,,,,,,,,,,,,,,,,,,,,,,,,,,,,,,,,,
,,5e67a895fafaa10180652312,2026-03-17_11h08.38.757,kallum_motion_pilot_GIST_update_2,2026.1.1,Win32,29.9940012,5e67a895fafaa10180652312,69b95efdef24cd8a694e89ee,69b96023a2d48d86232c5065,0.109,0.109,0,140,140,14,1,fourtwo,,,,,,,,,,,,,,,,,,,,,,,,,,,,,,,,,,,,,,,,,,,,,,,,,,,,,,,,,,,,,,,,,,,,,,,,,,,,,,,,,,,,,,,,,,,,,,,,,,,,,,,,,,,,,,,,,,,,,,,,,,,,,,,,,,,,,,,,,
,,5e67a895fafaa10180652312,2026-03-17_11h08.38.757,kallum_motion_pilot_GIST_update_2,2026.1.1,Win32,29.9940012,5e67a895fafaa10180652312,69b95efdef24cd8a694e89ee,69b96023a2d48d86232c5065,0.109,0.109,0,141,141,59,1,twofour,,,,,,,,,,,,,,,,,,,,,,,,,,,,,,,,,,,,,,,,,,,,,,,,,,,,,,,,,,,,,,,,,,,,,,,,,,,,,,,,,,,,,,,,,,,,,,,,,,,,,,,,,,,,,,,,,,,,,,,,,,,,,,,,,,,,,,,,,
,,5e67a895fafaa10180652312,2026-03-17_11h08.38.757,kallum_motion_pilot_GIST_update_2,2026.1.1,Win32,29.9940012,5e67a895fafaa10180652312,69b95efdef24cd8a694e89ee,69b96023a2d48d86232c5065,0.109,0.109,0,142,142,23,1,fourthree,,,,,,,,,,,,,,,,,,,,,,,,,,,,,,,,,,,,,,,,,,,,,,,,,,,,,,,,,,,,,,,,,,,,,,,,,,,,,,,,,,,,,,,,,,,,,,,,,,,,,,,,,,,,,,,,,,,,,,,,,,,,,,,,,,,,,,,,,
,,5e67a895fafaa10180652312,2026-03-17_11h08.38.757,kallum_motion_pilot_GIST_update_2,2026.1.1,Win32,29.9940012,5e67a895fafaa10180652312,69b95efdef24cd8a694e89ee,69b96023a2d48d86232c5065,0.109,0.109,0,143,143,19,1,twofour,,,,,,,,,,,,,,,,,,,,,,,,,,,,,,,,,,,,,,,,,,,,,,,,,,,,,,,,,,,,,,,,,,,,,,,,,,,,,,,,,,,,,,,,,,,,,,,,,,,,,,,,,,,,,,,,,,,,,,,,,,,,,,,,,,,,,,,,,
,,5e67a895fafaa10180652312,2026-03-17_11h08.38.757,kallum_motion_pilot_GIST_update_2,2026.1.1,Win32,29.9940012,5e67a895fafaa10180652312,69b95efdef24cd8a694e89ee,69b96023a2d48d86232c5065,0.109,0.109,0,144,144,15,1,fourthree,,,,,,,,,,,,,,,,,,,,,,,,,,,,,,,,,,,,,,,,,,,,,,,,,,,,,,,,,,,,,,,,,,,,,,,,,,,,,,,,,,,,,,,,,,,,,,,,,,,,,,,,,,,,,,,,,,,,,,,,,,,,,,,,,,,,,,,,,
,,5e67a895fafaa10180652312,2026-03-17_11h08.38.757,kallum_motion_pilot_GIST_update_2,2026.1.1,Win32,29.9940012,5e67a895fafaa10180652312,69b95efdef24cd8a694e89ee,69b96023a2d48d86232c5065,0.11,0.11,0,145,145,36,1,threeone,,,,,,,,,,,,,,,,,,,,,,,,,,,,,,,,,,,,,,,,,,,,,,,,,,,,,,,,,,,,,,,,,,,,,,,,,,,,,,,,,,,,,,,,,,,,,,,,,,,,,,,,,,,,,,,,,,,,,,,,,,,,,,,,,,,,,,,,,
,,5e67a895fafaa10180652312,2026-03-17_11h08.38.757,kallum_motion_pilot_GIST_update_2,2026.1.1,Win32,29.9940012,5e67a895fafaa10180652312,69b95efdef24cd8a694e89ee,69b96023a2d48d86232c5065,0.11,0.11,0,146,146,18,1,twoone,,,,,,,,,,,,,,,,,,,,,,,,,,,,,,,,,,,,,,,,,,,,,,,,,,,,,,,,,,,,,,,,,,,,,,,,,,,,,,,,,,,,,,,,,,,,,,,,,,,,,,,,,,,,,,,,,,,,,,,,,,,,,,,,,,,,,,,,,
,,5e67a895fafaa10180652312,2026-03-17_11h08.38.757,kallum_motion_pilot_GIST_update_2,2026.1.1,Win32,29.9940012,5e67a895fafaa10180652312,69b95efdef24cd8a694e89ee,69b96023a2d48d86232c5065,0.11,0.11,0,147,147,66,1,twoone,,,,,,,,,,,,,,,,,,,,,,,,,,,,,,,,,,,,,,,,,,,,,,,,,,,,,,,,,,,,,,,,,,,,,,,,,,,,,,,,,,,,,,,,,,,,,,,,,,,,,,,,,,,,,,,,,,,,,,,,,,,,,,,,,,,,,,,,,
,,5e67a895fafaa10180652312,2026-03-17_11h08.38.757,kallum_motion_pilot_GIST_update_2,2026.1.1,Win32,29.9940012,5e67a895fafaa10180652312,69b95efdef24cd8a694e89ee,69b96023a2d48d86232c5065,0.111,0.111,0,148,148,135,1,eightseven,,,,,,,,,,,,,,,,,,,,,,,,,,,,,,,,,,,,,,,,,,,,,,,,,,,,,,,,,,,,,,,,,,,,,,,,,,,,,,,,,,,,,,,,,,,,,,,,,,,,,,,,,,,,,,,,,,,,,,,,,,,,,,,,,,,,,,,,,
,,5e67a895fafaa10180652312,2026-03-17_11h08.38.757,kallum_motion_pilot_GIST_update_2,2026.1.1,Win32,29.9940012,5e67a895fafaa10180652312,69b95efdef24cd8a694e89ee,69b96023a2d48d86232c5065,0.112,0.112,0,149,149,42,1,twoone,,,,,,,,,,,,,,,,,,,,,,,,,,,,,,,,,,,,,,,,,,,,,,,,,,,,,,,,,,,,,,,,,,,,,,,,,,,,,,,,,,,,,,,,,,,,,,,,,,,,,,,,,,,,,,,,,,,,,,,,,,,,,,,,,,,,,,,,,
,,5e67a895fafaa10180652312,2026-03-17_11h08.38.757,kallum_motion_pilot_GIST_update_2,2026.1.1,Win32,29.9940012,5e67a895fafaa10180652312,69b95efdef24cd8a694e89ee,69b96023a2d48d86232c5065,0.112,0.112,0,150,150,108,1,sevenfive,,,,,,,,,,,,,,,,,,,,,,,,,,,,,,,,,,,,,,,,,,,,,,,,,,,,,,,,,,,,,,,,,,,,,,,,,,,,,,,,,,,,,,,,,,,,,,,,,,,,,,,,,,,,,,,,,,,,,,,,,,,,,,,,,,,,,,,,,
,,5e67a895fafaa10180652312,2026-03-17_11h08.38.757,kallum_motion_pilot_GIST_update_2,2026.1.1,Win32,29.9940012,5e67a895fafaa10180652312,69b95efdef24cd8a694e89ee,69b96023a2d48d86232c5065,0.113,0.113,0,151,151,73,1,onethree,,,,,,,,,,,,,,,,,,,,,,,,,,,,,,,,,,,,,,,,,,,,,,,,,,,,,,,,,,,,,,,,,,,,,,,,,,,,,,,,,,,,,,,,,,,,,,,,,,,,,,,,,,,,,,,,,,,,,,,,,,,,,,,,,,,,,,,,,
,,5e67a895fafaa10180652312,2026-03-17_11h08.38.757,kallum_motion_pilot_GIST_update_2,2026.1.1,Win32,29.9940012,5e67a895fafaa10180652312,69b95efdef24cd8a694e89ee,69b96023a2d48d86232c5065,0.113,0.113,0,152,152,111,1,eightseven,,,,,,,,,,,,,,,,,,,,,,,,,,,,,,,,,,,,,,,,,,,,,,,,,,,,,,,,,,,,,,,,,,,,,,,,,,,,,,,,,,,,,,,,,,,,,,,,,,,,,,,,,,,,,,,,,,,,,,,,,,,,,,,,,,,,,,,,,
,,5e67a895fafaa10180652312,2026-03-17_11h08.38.757,kallum_motion_pilot_GIST_update_2,2026.1.1,Win32,29.9940012,5e67a895fafaa10180652312,69b95efdef24cd8a694e89ee,69b96023a2d48d86232c5065,0.113,0.113,0,153,153,16,1,onetwo,,,,,,,,,,,,,,,,,,,,,,,,,,,,,,,,,,,,,,,,,,,,,,,,,,,,,,,,,,,,,,,,,,,,,,,,,,,,,,,,,,,,,,,,,,,,,,,,,,,,,,,,,,,,,,,,,,,,,,,,,,,,,,,,,,,,,,,,,
,,5e67a895fafaa10180652312,2026-03-17_11h08.38.757,kallum_motion_pilot_GIST_update_2,2026.1.1,Win32,29.9940012,5e67a895fafaa10180652312,69b95efdef24cd8a694e89ee,69b96023a2d48d86232c5065,0.115,0.115,0,154,154,125,1,seveneight,,,,,,,,,,,,,,,,,,,,,,,,,,,,,,,,,,,,,,,,,,,,,,,,,,,,,,,,,,,,,,,,,,,,,,,,,,,,,,,,,,,,,,,,,,,,,,,,,,,,,,,,,,,,,,,,,,,,,,,,,,,,,,,,,,,,,,,,,
,,5e67a895fafaa10180652312,2026-03-17_11h08.38.757,kallum_motion_pilot_GIST_update_2,2026.1.1,Win32,29.9940012,5e67a895fafaa10180652312,69b95efdef24cd8a694e89ee,69b96023a2d48d86232c5065,0.116,0.116,0,155,155,25,1,onethree,,,,,,,,,,,,,,,,,,,,,,,,,,,,,,,,,,,,,,,,,,,,,,,,,,,,,,,,,,,,,,,,,,,,,,,,,,,,,,,,,,,,,,,,,,,,,,,,,,,,,,,,,,,,,,,,,,,,,,,,,,,,,,,,,,,,,,,,,
,,5e67a895fafaa10180652312,2026-03-17_11h08.38.757,kallum_motion_pilot_GIST_update_2,2026.1.1,Win32,29.9940012,5e67a895fafaa10180652312,69b95efdef24cd8a694e89ee,69b96023a2d48d86232c5065,0.116,0.116,0,156,156,98,1,sixfive,,,,,,,,,,,,,,,,,,,,,,,,,,,,,,,,,,,,,,,,,,,,,,,,,,,,,,,,,,,,,,,,,,,,,,,,,,,,,,,,,,,,,,,,,,,,,,,,,,,,,,,,,,,,,,,,,,,,,,,,,,,,,,,,,,,,,,,,,
,,5e67a895fafaa10180652312,2026-03-17_11h08.38.757,kallum_motion_pilot_GIST_update_2,2026.1.1,Win32,29.9940012,5e67a895fafaa10180652312,69b95efdef24cd8a694e89ee,69b96023a2d48d86232c5065,0.116,0.116,0,157,157,161,1,fiveseven,,,,,,,,,,,,,,,,,,,,,,,,,,,,,,,,,,,,,,,,,,,,,,,,,,,,,,,,,,,,,,,,,,,,,,,,,,,,,,,,,,,,,,,,,,,,,,,,,,,,,,,,,,,,,,,,,,,,,,,,,,,,,,,,,,,,,,,,,
,,5e67a895fafaa10180652312,2026-03-17_11h08.38.757,kallum_motion_pilot_GIST_update_2,2026.1.1,Win32,29.9940012,5e67a895fafaa10180652312,69b95efdef24cd8a694e89ee,69b96023a2d48d86232c5065,0.116,0.116,0,158,158,83,1,sixeight,,,,,,,,,,,,,,,,,,,,,,,,,,,,,,,,,,,,,,,,,,,,,,,,,,,,,,,,,,,,,,,,,,,,,,,,,,,,,,,,,,,,,,,,,,,,,,,,,,,,,,,,,,,,,,,,,,,,,,,,,,,,,,,,,,,,,,,,,
,,5e67a895fafaa10180652312,2026-03-17_11h08.38.757,kallum_motion_pilot_GIST_update_2,2026.1.1,Win32,29.9940012,5e67a895fafaa10180652312,69b95efdef24cd8a694e89ee,69b96023a2d48d86232c5065,0.116,0.116,0,159,159,143,1,eightseven,,,,,,,,,,,,,,,,,,,,,,,,,,,,,,,,,,,,,,,,,,,,,,,,,,,,,,,,,,,,,,,,,,,,,,,,,,,,,,,,,,,,,,,,,,,,,,,,,,,,,,,,,,,,,,,,,,,,,,,,,,,,,,,,,,,,,,,,,
,,5e67a895fafaa10180652312,2026-03-17_11h08.38.757,kallum_motion_pilot_GIST_update_2,2026.1.1,Win32,29.9940012,5e67a895fafaa10180652312,69b95efdef24cd8a694e89ee,69b96023a2d48d86232c5065,0.116,0.116,0,160,160,127,1,eightseven,,,,,,,,,,,,,,,,,,,,,,,,,,,,,,,,,,,,,,,,,,,,,,,,,,,,,,,,,,,,,,,,,,,,,,,,,,,,,,,,,,,,,,,,,,,,,,,,,,,,,,,,,,,,,,,,,,,,,,,,,,,,,,,,,,,,,,,,,
,,5e67a895fafaa10180652312,2026-03-17_11h08.38.757,kallum_motion_pilot_GIST_update_2,2026.1.1,Win32,29.9940012,5e67a895fafaa10180652312,69b95efdef24cd8a694e89ee,69b96023a2d48d86232c5065,0.116,0.116,0,161,161,26,1,twoone,,,,,,,,,,,,,,,,,,,,,,,,,,,,,,,,,,,,,,,,,,,,,,,,,,,,,,,,,,,,,,,,,,,,,,,,,,,,,,,,,,,,,,,,,,,,,,,,,,,,,,,,,,,,,,,,,,,,,,,,,,,,,,,,,,,,,,,,,
,,5e67a895fafaa10180652312,2026-03-17_11h08.38.757,kallum_motion_pilot_GIST_update_2,2026.1.1,Win32,29.9940012,5e67a895fafaa10180652312,69b95efdef24cd8a694e89ee,69b96023a2d48d86232c5065,0.117,0.117,1,0,162,109,1,seveneight,,,,,,,,,,,,,,,,,,,,,,,,,,,,,,,,,,,,,,,,,,,,,,,,,,,,,,,,,,,,,,,,,,,,,,,,,,,,,,,,,,,,,,,,,,,,,,,,,,,,,,,,,,,,,,,,,,,,,,,,,,,,,,,,,,,,,,,,,
,,5e67a895fafaa10180652312,2026-03-17_11h08.38.757,kallum_motion_pilot_GIST_update_2,2026.1.1,Win32,29.9940012,5e67a895fafaa10180652312,69b95efdef24cd8a694e89ee,69b96023a2d48d86232c5065,0.117,0.117,1,1,163,38,1,fourtwo,,,,,,,,,,,,,,,,,,,,,,,,,,,,,,,,,,,,,,,,,,,,,,,,,,,,,,,,,,,,,,,,,,,,,,,,,,,,,,,,,,,,,,,,,,,,,,,,,,,,,,,,,,,,,,,,,,,,,,,,,,,,,,,,,,,,,,,,,
,,5e67a895fafaa10180652312,2026-03-17_11h08.38.757,kallum_motion_pilot_GIST_update_2,2026.1.1,Win32,29.9940012,5e67a895fafaa10180652312,69b95efdef24cd8a694e89ee,69b96023a2d48d86232c5065,0.117,0.117,1,2,164,91,1,sixeight,,,,,,,,,,,,,,,,,,,,,,,,,,,,,,,,,,,,,,,,,,,,,,,,,,,,,,,,,,,,,,,,,,,,,,,,,,,,,,,,,,,,,,,,,,,,,,,,,,,,,,,,,,,,,,,,,,,,,,,,,,,,,,,,,,,,,,,,,
,,5e67a895fafaa10180652312,2026-03-17_11h08.38.757,kallum_motion_pilot_GIST_update_2,2026.1.1,Win32,29.9940012,5e67a895fafaa10180652312,69b95efdef24cd8a694e89ee,69b96023a2d48d86232c5065,0.117,0.117,1,3,165,42,1,twoone,,,,,,,,,,,,,,,,,,,,,,,,,,,,,,,,,,,,,,,,,,,,,,,,,,,,,,,,,,,,,,,,,,,,,,,,,,,,,,,,,,,,,,,,,,,,,,,,,,,,,,,,,,,,,,,,,,,,,,,,,,,,,,,,,,,,,,,,,
,,5e67a895fafaa10180652312,2026-03-17_11h08.38.757,kallum_motion_pilot_GIST_update_2,2026.1.1,Win32,29.9940012,5e67a895fafaa10180652312,69b95efdef24cd8a694e89ee,69b96023a2d48d86232c5065,0.117,0.117,1,4,166,83,1,sixeight,,,,,,,,,,,,,,,,,,,,,,,,,,,,,,,,,,,,,,,,,,,,,,,,,,,,,,,,,,,,,,,,,,,,,,,,,,,,,,,,,,,,,,,,,,,,,,,,,,,,,,,,,,,,,,,,,,,,,,,,,,,,,,,,,,,,,,,,,
,,5e67a895fafaa10180652312,2026-03-17_11h08.38.757,kallum_motion_pilot_GIST_update_2,2026.1.1,Win32,29.9940012,5e67a895fafaa10180652312,69b95efdef24cd8a694e89ee,69b96023a2d48d86232c5065,0.118,0.118,1,5,167,65,1,onethree,,,,,,,,,,,,,,,,,,,,,,,,,,,,,,,,,,,,,,,,,,,,,,,,,,,,,,,,,,,,,,,,,,,,,,,,,,,,,,,,,,,,,,,,,,,,,,,,,,,,,,,,,,,,,,,,,,,,,,,,,,,,,,,,,,,,,,,,,
,,5e67a895fafaa10180652312,2026-03-17_11h08.38.757,kallum_motion_pilot_GIST_update_2,2026.1.1,Win32,29.9940012,5e67a895fafaa10180652312,69b95efdef24cd8a694e89ee,69b96023a2d48d86232c5065,0.118,0.118,1,6,168,95,1,eightseven,,,,,,,,,,,,,,,,,,,,,,,,,,,,,,,,,,,,,,,,,,,,,,,,,,,,,,,,,,,,,,,,,,,,,,,,,,,,,,,,,,,,,,,,,,,,,,,,,,,,,,,,,,,,,,,,,,,,,,,,,,,,,,,,,,,,,,,,,
,,5e67a895fafaa10180652312,2026-03-17_11h08.38.757,kallum_motion_pilot_GIST_update_2,2026.1.1,Win32,29.9940012,5e67a895fafaa10180652312,69b95efdef24cd8a694e89ee,69b96023a2d48d86232c5065,0.118,0.118,1,7,169,136,1,fivesix,,,,,,,,,,,,,,,,,,,,,,,,,,,,,,,,,,,,,,,,,,,,,,,,,,,,,,,,,,,,,,,,,,,,,,,,,,,,,,,,,,,,,,,,,,,,,,,,,,,,,,,,,,,,,,,,,,,,,,,,,,,,,,,,,,,,,,,,,
,,5e67a895fafaa10180652312,2026-03-17_11h08.38.757,kallum_motion_pilot_GIST_update_2,2026.1.1,Win32,29.9940012,5e67a895fafaa10180652312,69b95efdef24cd8a694e89ee,69b96023a2d48d86232c5065,0.118,0.118,1,8,170,99,1,sixeight,,,,,,,,,,,,,,,,,,,,,,,,,,,,,,,,,,,,,,,,,,,,,,,,,,,,,,,,,,,,,,,,,,,,,,,,,,,,,,,,,,,,,,,,,,,,,,,,,,,,,,,,,,,,,,,,,,,,,,,,,,,,,,,,,,,,,,,,,
,,5e67a895fafaa10180652312,2026-03-17_11h08.38.757,kallum_motion_pilot_GIST_update_2,2026.1.1,Win32,29.9940012,5e67a895fafaa10180652312,69b95efdef24cd8a694e89ee,69b96023a2d48d86232c5065,0.118,0.118,1,9,171,81,1,fiveseven,,,,,,,,,,,,,,,,,,,,,,,,,,,,,,,,,,,,,,,,,,,,,,,,,,,,,,,,,,,,,,,,,,,,,,,,,,,,,,,,,,,,,,,,,,,,,,,,,,,,,,,,,,,,,,,,,,,,,,,,,,,,,,,,,,,,,,,,,
,,5e67a895fafaa10180652312,2026-03-17_11h08.38.757,kallum_motion_pilot_GIST_update_2,2026.1.1,Win32,29.9940012,5e67a895fafaa10180652312,69b95efdef24cd8a694e89ee,69b96023a2d48d86232c5065,0.118,0.118,1,10,172,79,1,eightseven,,,,,,,,,,,,,,,,,,,,,,,,,,,,,,,,,,,,,,,,,,,,,,,,,,,,,,,,,,,,,,,,,,,,,,,,,,,,,,,,,,,,,,,,,,,,,,,,,,,,,,,,,,,,,,,,,,,,,,,,,,,,,,,,,,,,,,,,,
,,5e67a895fafaa10180652312,2026-03-17_11h08.38.757,kallum_motion_pilot_GIST_update_2,2026.1.1,Win32,29.9940012,5e67a895fafaa10180652312,69b95efdef24cd8a694e89ee,69b96023a2d48d86232c5065,0.118,0.118,1,11,173,88,1,fivesix,,,,,,,,,,,,,,,,,,,,,,,,,,,,,,,,,,,,,,,,,,,,,,,,,,,,,,,,,,,,,,,,,,,,,,,,,,,,,,,,,,,,,,,,,,,,,,,,,,,,,,,,,,,,,,,,,,,,,,,,,,,,,,,,,,,,,,,,,
,,5e67a895fafaa10180652312,2026-03-17_11h08.38.757,kallum_motion_pilot_GIST_update_2,2026.1.1,Win32,29.9940012,5e67a895fafaa10180652312,69b95efdef24cd8a694e89ee,69b96023a2d48d86232c5065,0.119,0.119,1,12,174,93,1,seveneight,,,,,,,,,,,,,,,,,,,,,,,,,,,,,,,,,,,,,,,,,,,,,,,,,,,,,,,,,,,,,,,,,,,,,,,,,,,,,,,,,,,,,,,,,,,,,,,,,,,,,,,,,,,,,,,,,,,,,,,,,,,,,,,,,,,,,,,,,
,,5e67a895fafaa10180652312,2026-03-17_11h08.38.757,kallum_motion_pilot_GIST_update_2,2026.1.1,Win32,29.9940012,5e67a895fafaa10180652312,69b95efdef24cd8a694e89ee,69b96023a2d48d86232c5065,0.119,0.119,1,13,175,52,1,threeone,,,,,,,,,,,,,,,,,,,,,,,,,,,,,,,,,,,,,,,,,,,,,,,,,,,,,,,,,,,,,,,,,,,,,,,,,,,,,,,,,,,,,,,,,,,,,,,,,,,,,,,,,,,,,,,,,,,,,,,,,,,,,,,,,,,,,,,,,
,,5e67a895fafaa10180652312,2026-03-17_11h08.38.757,kallum_motion_pilot_GIST_update_2,2026.1.1,Win32,29.9940012,5e67a895fafaa10180652312,69b95efdef24cd8a694e89ee,69b96023a2d48d86232c5065,0.119,0.119,1,14,176,13,1,threefour,,,,,,,,,,,,,,,,,,,,,,,,,,,,,,,,,,,,,,,,,,,,,,,,,,,,,,,,,,,,,,,,,,,,,,,,,,,,,,,,,,,,,,,,,,,,,,,,,,,,,,,,,,,,,,,,,,,,,,,,,,,,,,,,,,,,,,,,,
,,5e67a895fafaa10180652312,2026-03-17_11h08.38.757,kallum_motion_pilot_GIST_update_2,2026.1.1,Win32,29.9940012,5e67a895fafaa10180652312,69b95efdef24cd8a694e89ee,69b96023a2d48d86232c5065,0.119,0.119,1,15,177,157,1,seveneight,,,,,,,,,,,,,,,,,,,,,,,,,,,,,,,,,,,,,,,,,,,,,,,,,,,,,,,,,,,,,,,,,,,,,,,,,,,,,,,,,,,,,,,,,,,,,,,,,,,,,,,,,,,,,,,,,,,,,,,,,,,,,,,,,,,,,,,,,
,,5e67a895fafaa10180652312,2026-03-17_11h08.38.757,kallum_motion_pilot_GIST_update_2,2026.1.1,Win32,29.9940012,5e67a895fafaa10180652312,69b95efdef24cd8a694e89ee,69b96023a2d48d86232c5065,0.119,0.119,1,16,178,135,1,eightseven,,,,,,,,,,,,,,,,,,,,,,,,,,,,,,,,,,,,,,,,,,,,,,,,,,,,,,,,,,,,,,,,,,,,,,,,,,,,,,,,,,,,,,,,,,,,,,,,,,,,,,,,,,,,,,,,,,,,,,,,,,,,,,,,,,,,,,,,,
,,5e67a895fafaa10180652312,2026-03-17_11h08.38.757,kallum_motion_pilot_GIST_update_2,2026.1.1,Win32,29.9940012,5e67a895fafaa10180652312,69b95efdef24cd8a694e89ee,69b96023a2d48d86232c5065,0.12,0.12,1,17,179,115,1,sixeight,,,,,,,,,,,,,,,,,,,,,,,,,,,,,,,,,,,,,,,,,,,,,,,,,,,,,,,,,,,,,,,,,,,,,,,,,,,,,,,,,,,,,,,,,,,,,,,,,,,,,,,,,,,,,,,,,,,,,,,,,,,,,,,,,,,,,,,,,
,,5e67a895fafaa10180652312,2026-03-17_11h08.38.757,kallum_motion_pilot_GIST_update_2,2026.1.1,Win32,29.9940012,5e67a895fafaa10180652312,69b95efdef24cd8a694e89ee,69b96023a2d48d86232c5065,0.12,0.12,1,18,180,130,1,sixfive,,,,,,,,,,,,,,,,,,,,,,,,,,,,,,,,,,,,,,,,,,,,,,,,,,,,,,,,,,,,,,,,,,,,,,,,,,,,,,,,,,,,,,,,,,,,,,,,,,,,,,,,,,,,,,,,,,,,,,,,,,,,,,,,,,,,,,,,,
,,5e67a895fafaa10180652312,2026-03-17_11h08.38.757,kallum_motion_pilot_GIST_update_2,2026.1.1,Win32,29.9940012,5e67a895fafaa10180652312,69b95efdef24cd8a694e89ee,69b96023a2d48d86232c5065,0.12,0.12,1,19,181,37,1,threefour,,,,,,,,,,,,,,,,,,,,,,,,,,,,,,,,,,,,,,,,,,,,,,,,,,,,,,,,,,,,,,,,,,,,,,,,,,,,,,,,,,,,,,,,,,,,,,,,,,,,,,,,,,,,,,,,,,,,,,,,,,,,,,,,,,,,,,,,,
,,5e67a895fafaa10180652312,2026-03-17_11h08.38.757,kallum_motion_pilot_GIST_update_2,2026.1.1,Win32,29.9940012,5e67a895fafaa10180652312,69b95efdef24cd8a694e89ee,69b96023a2d48d86232c5065,0.12,0.12,1,20,182,152,1,fivesix,,,,,,,,,,,,,,,,,,,,,,,,,,,,,,,,,,,,,,,,,,,,,,,,,,,,,,,,,,,,,,,,,,,,,,,,,,,,,,,,,,,,,,,,,,,,,,,,,,,,,,,,,,,,,,,,,,,,,,,,,,,,,,,,,,,,,,,,,
,,5e67a895fafaa10180652312,2026-03-17_11h08.38.757,kallum_motion_pilot_GIST_update_2,2026.1.1,Win32,29.9940012,5e67a895fafaa10180652312,69b95efdef24cd8a694e89ee,69b96023a2d48d86232c5065,0.12,0.12,1,21,183,11,1,twofour,,,,,,,,,,,,,,,,,,,,,,,,,,,,,,,,,,,,,,,,,,,,,,,,,,,,,,,,,,,,,,,,,,,,,,,,,,,,,,,,,,,,,,,,,,,,,,,,,,,,,,,,,,,,,,,,,,,,,,,,,,,,,,,,,,,,,,,,,
,,5e67a895fafaa10180652312,2026-03-17_11h08.38.757,kallum_motion_pilot_GIST_update_2,2026.1.1,Win32,29.9940012,5e67a895fafaa10180652312,69b95efdef24cd8a694e89ee,69b96023a2d48d86232c5065,0.121,0.121,1,22,184,92,1,sevenfive,,,,,,,,,,,,,,,,,,,,,,,,,,,,,,,,,,,,,,,,,,,,,,,,,,,,,,,,,,,,,,,,,,,,,,,,,,,,,,,,,,,,,,,,,,,,,,,,,,,,,,,,,,,,,,,,,,,,,,,,,,,,,,,,,,,,,,,,,
,,5e67a895fafaa10180652312,2026-03-17_11h08.38.757,kallum_motion_pilot_GIST_update_2,2026.1.1,Win32,29.9940012,5e67a895fafaa10180652312,69b95efdef24cd8a694e89ee,69b96023a2d48d86232c5065,0.121,0.121,1,23,185,69,1,threefour,,,,,,,,,,,,,,,,,,,,,,,,,,,,,,,,,,,,,,,,,,,,,,,,,,,,,,,,,,,,,,,,,,,,,,,,,,,,,,,,,,,,,,,,,,,,,,,,,,,,,,,,,,,,,,,,,,,,,,,,,,,,,,,,,,,,,,,,,
,,5e67a895fafaa10180652312,2026-03-17_11h08.38.757,kallum_motion_pilot_GIST_update_2,2026.1.1,Win32,29.9940012,5e67a895fafaa10180652312,69b95efdef24cd8a694e89ee,69b96023a2d48d86232c5065,0.121,0.121,1,24,186,111,1,eightseven,,,,,,,,,,,,,,,,,,,,,,,,,,,,,,,,,,,,,,,,,,,,,,,,,,,,,,,,,,,,,,,,,,,,,,,,,,,,,,,,,,,,,,,,,,,,,,,,,,,,,,,,,,,,,,,,,,,,,,,,,,,,,,,,,,,,,,,,,
,,5e67a895fafaa10180652312,2026-03-17_11h08.38.757,kallum_motion_pilot_GIST_update_2,2026.1.1,Win32,29.9940012,5e67a895fafaa10180652312,69b95efdef24cd8a694e89ee,69b96023a2d48d86232c5065,0.121,0.121,1,25,187,128,1,fivesix,,,,,,,,,,,,,,,,,,,,,,,,,,,,,,,,,,,,,,,,,,,,,,,,,,,,,,,,,,,,,,,,,,,,,,,,,,,,,,,,,,,,,,,,,,,,,,,,,,,,,,,,,,,,,,,,,,,,,,,,,,,,,,,,,,,,,,,,,
,,5e67a895fafaa10180652312,2026-03-17_11h08.38.757,kallum_motion_pilot_GIST_update_2,2026.1.1,Win32,29.9940012,5e67a895fafaa10180652312,69b95efdef24cd8a694e89ee,69b96023a2d48d86232c5065,0.121,0.121,1,26,188,14,1,fourtwo,,,,,,,,,,,,,,,,,,,,,,,,,,,,,,,,,,,,,,,,,,,,,,,,,,,,,,,,,,,,,,,,,,,,,,,,,,,,,,,,,,,,,,,,,,,,,,,,,,,,,,,,,,,,,,,,,,,,,,,,,,,,,,,,,,,,,,,,,
,,5e67a895fafaa10180652312,2026-03-17_11h08.38.757,kallum_motion_pilot_GIST_update_2,2026.1.1,Win32,29.9940012,5e67a895fafaa10180652312,69b95efdef24cd8a694e89ee,69b96023a2d48d86232c5065,0.122,0.122,1,27,189,151,1,eightseven,,,,,,,,,,,,,,,,,,,,,,,,,,,,,,,,,,,,,,,,,,,,,,,,,,,,,,,,,,,,,,,,,,,,,,,,,,,,,,,,,,,,,,,,,,,,,,,,,,,,,,,,,,,,,,,,,,,,,,,,,,,,,,,,,,,,,,,,,
,,5e67a895fafaa10180652312,2026-03-17_11h08.38.757,kallum_motion_pilot_GIST_update_2,2026.1.1,Win32,29.9940012,5e67a895fafaa10180652312,69b95efdef24cd8a694e89ee,69b96023a2d48d86232c5065,0.122,0.122,1,28,190,67,1,twofour,,,,,,,,,,,,,,,,,,,,,,,,,,,,,,,,,,,,,,,,,,,,,,,,,,,,,,,,,,,,,,,,,,,,,,,,,,,,,,,,,,,,,,,,,,,,,,,,,,,,,,,,,,,,,,,,,,,,,,,,,,,,,,,,,,,,,,,,,
,,5e67a895fafaa10180652312,2026-03-17_11h08.38.757,kallum_motion_pilot_GIST_update_2,2026.1.1,Win32,29.9940012,5e67a895fafaa10180652312,69b95efdef24cd8a694e89ee,69b96023a2d48d86232c5065,0.122,0.122,1,29,191,8,1,onetwo,,,,,,,,,,,,,,,,,,,,,,,,,,,,,,,,,,,,,,,,,,,,,,,,,,,,,,,,,,,,,,,,,,,,,,,,,,,,,,,,,,,,,,,,,,,,,,,,,,,,,,,,,,,,,,,,,,,,,,,,,,,,,,,,,,,,,,,,,
,,5e67a895fafaa10180652312,2026-03-17_11h08.38.757,kallum_motion_pilot_GIST_update_2,2026.1.1,Win32,29.9940012,5e67a895fafaa10180652312,69b95efdef24cd8a694e89ee,69b96023a2d48d86232c5065,0.123,0.123,1,30,192,39,1,fourthree,,,,,,,,,,,,,,,,,,,,,,,,,,,,,,,,,,,,,,,,,,,,,,,,,,,,,,,,,,,,,,,,,,,,,,,,,,,,,,,,,,,,,,,,,,,,,,,,,,,,,,,,,,,,,,,,,,,,,,,,,,,,,,,,,,,,,,,,,
,,5e67a895fafaa10180652312,2026-03-17_11h08.38.757,kallum_motion_pilot_GIST_update_2,2026.1.1,Win32,29.9940012,5e67a895fafaa10180652312,69b95efdef24cd8a694e89ee,69b96023a2d48d86232c5065,0.123,0.123,1,31,193,28,1,threeone,,,,,,,,,,,,,,,,,,,,,,,,,,,,,,,,,,,,,,,,,,,,,,,,,,,,,,,,,,,,,,,,,,,,,,,,,,,,,,,,,,,,,,,,,,,,,,,,,,,,,,,,,,,,,,,,,,,,,,,,,,,,,,,,,,,,,,,,,
,,5e67a895fafaa10180652312,2026-03-17_11h08.38.757,kallum_motion_pilot_GIST_update_2,2026.1.1,Win32,29.9940012,5e67a895fafaa10180652312,69b95efdef24cd8a694e89ee,69b96023a2d48d86232c5065,0.123,0.123,1,32,194,158,1,eightsix,,,,,,,,,,,,,,,,,,,,,,,,,,,,,,,,,,,,,,,,,,,,,,,,,,,,,,,,,,,,,,,,,,,,,,,,,,,,,,,,,,,,,,,,,,,,,,,,,,,,,,,,,,,,,,,,,,,,,,,,,,,,,,,,,,,,,,,,,
,,5e67a895fafaa10180652312,2026-03-17_11h08.38.757,kallum_motion_pilot_GIST_update_2,2026.1.1,Win32,29.9940012,5e67a895fafaa10180652312,69b95efdef24cd8a694e89ee,69b96023a2d48d86232c5065,0.124,0.124,1,33,195,154,1,sixfive,,,,,,,,,,,,,,,,,,,,,,,,,,,,,,,,,,,,,,,,,,,,,,,,,,,,,,,,,,,,,,,,,,,,,,,,,,,,,,,,,,,,,,,,,,,,,,,,,,,,,,,,,,,,,,,,,,,,,,,,,,,,,,,,,,,,,,,,,
,,5e67a895fafaa10180652312,2026-03-17_11h08.38.757,kallum_motion_pilot_GIST_update_2,2026.1.1,Win32,29.9940012,5e67a895fafaa10180652312,69b95efdef24cd8a694e89ee,69b96023a2d48d86232c5065,0.124,0.124,1,34,196,80,1,fivesix,,,,,,,,,,,,,,,,,,,,,,,,,,,,,,,,,,,,,,,,,,,,,,,,,,,,,,,,,,,,,,,,,,,,,,,,,,,,,,,,,,,,,,,,,,,,,,,,,,,,,,,,,,,,,,,,,,,,,,,,,,,,,,,,,,,,,,,,,
,,5e67a895fafaa10180652312,2026-03-17_11h08.38.757,kallum_motion_pilot_GIST_update_2,2026.1.1,Win32,29.9940012,5e67a895fafaa10180652312,69b95efdef24cd8a694e89ee,69b96023a2d48d86232c5065,0.124,0.124,1,35,197,4,1,threeone,,,,,,,,,,,,,,,,,,,,,,,,,,,,,,,,,,,,,,,,,,,,,,,,,,,,,,,,,,,,,,,,,,,,,,,,,,,,,,,,,,,,,,,,,,,,,,,,,,,,,,,,,,,,,,,,,,,,,,,,,,,,,,,,,,,,,,,,,
,,5e67a895fafaa10180652312,2026-03-17_11h08.38.757,kallum_motion_pilot_GIST_update_2,2026.1.1,Win32,29.9940012,5e67a895fafaa10180652312,69b95efdef24cd8a694e89ee,69b96023a2d48d86232c5065,0.126,0.126,1,36,198,133,1,seveneight,,,,,,,,,,,,,,,,,,,,,,,,,,,,,,,,,,,,,,,,,,,,,,,,,,,,,,,,,,,,,,,,,,,,,,,,,,,,,,,,,,,,,,,,,,,,,,,,,,,,,,,,,,,,,,,,,,,,,,,,,,,,,,,,,,,,,,,,,
,,5e67a895fafaa10180652312,2026-03-17_11h08.38.757,kallum_motion_pilot_GIST_update_2,2026.1.1,Win32,29.9940012,5e67a895fafaa10180652312,69b95efdef24cd8a694e89ee,69b96023a2d48d86232c5065,0.127,0.127,1,37,199,68,1,threeone,,,,,,,,,,,,,,,,,,,,,,,,,,,,,,,,,,,,,,,,,,,,,,,,,,,,,,,,,,,,,,,,,,,,,,,,,,,,,,,,,,,,,,,,,,,,,,,,,,,,,,,,,,,,,,,,,,,,,,,,,,,,,,,,,,,,,,,,,
,,5e67a895fafaa10180652312,2026-03-17_11h08.38.757,kallum_motion_pilot_GIST_update_2,2026.1.1,Win32,29.9940012,5e67a895fafaa10180652312,69b95efdef24cd8a694e89ee,69b96023a2d48d86232c5065,0.127,0.127,1,38,200,70,1,fourtwo,,,,,,,,,,,,,,,,,,,,,,,,,,,,,,,,,,,,,,,,,,,,,,,,,,,,,,,,,,,,,,,,,,,,,,,,,,,,,,,,,,,,,,,,,,,,,,,,,,,,,,,,,,,,,,,,,,,,,,,,,,,,,,,,,,,,,,,,,
,,5e67a895fafaa10180652312,2026-03-17_11h08.38.757,kallum_motion_pilot_GIST_update_2,2026.1.1,Win32,29.9940012,5e67a895fafaa10180652312,69b95efdef24cd8a694e89ee,69b96023a2d48d86232c5065,0.128,0.128,1,39,201,110,1,eightsix,,,,,,,,,,,,,,,,,,,,,,,,,,,,,,,,,,,,,,,,,,,,,,,,,,,,,,,,,,,,,,,,,,,,,,,,,,,,,,,,,,,,,,,,,,,,,,,,,,,,,,,,,,,,,,,,,,,,,,,,,,,,,,,,,,,,,,,,,
,,5e67a895fafaa10180652312,2026-03-17_11h08.38.757,kallum_motion_pilot_GIST_update_2,2026.1.1,Win32,29.9940012,5e67a895fafaa10180652312,69b95efdef24cd8a694e89ee,69b96023a2d48d86232c5065,0.129,0.129,1,40,202,5,1,threefour,,,,,,,,,,,,,,,,,,,,,,,,,,,,,,,,,,,,,,,,,,,,,,,,,,,,,,,,,,,,,,,,,,,,,,,,,,,,,,,,,,,,,,,,,,,,,,,,,,,,,,,,,,,,,,,,,,,,,,,,,,,,,,,,,,,,,,,,,
,,5e67a895fafaa10180652312,2026-03-17_11h08.38.757,kallum_motion_pilot_GIST_update_2,2026.1.1,Win32,29.9940012,5e67a895fafaa10180652312,69b95efdef24cd8a694e89ee,69b96023a2d48d86232c5065,0.13,0.13,1,41,203,155,1,sixeight,,,,,,,,,,,,,,,,,,,,,,,,,,,,,,,,,,,,,,,,,,,,,,,,,,,,,,,,,,,,,,,,,,,,,,,,,,,,,,,,,,,,,,,,,,,,,,,,,,,,,,,,,,,,,,,,,,,,,,,,,,,,,,,,,,,,,,,,,
,,5e67a895fafaa10180652312,2026-03-17_11h08.38.757,kallum_motion_pilot_GIST_update_2,2026.1.1,Win32,29.9940012,5e67a895fafaa10180652312,69b95efdef24cd8a694e89ee,69b96023a2d48d86232c5065,0.13,0.13,1,42,204,123,1,sixeight,,,,,,,,,,,,,,,,,,,,,,,,,,,,,,,,,,,,,,,,,,,,,,,,,,,,,,,,,,,,,,,,,,,,,,,,,,,,,,,,,,,,,,,,,,,,,,,,,,,,,,,,,,,,,,,,,,,,,,,,,,,,,,,,,,,,,,,,,
,,5e67a895fafaa10180652312,2026-03-17_11h08.38.757,kallum_motion_pilot_GIST_update_2,2026.1.1,Win32,29.9940012,5e67a895fafaa10180652312,69b95efdef24cd8a694e89ee,69b96023a2d48d86232c5065,0.131,0.131,1,43,205,112,1,fivesix,,,,,,,,,,,,,,,,,,,,,,,,,,,,,,,,,,,,,,,,,,,,,,,,,,,,,,,,,,,,,,,,,,,,,,,,,,,,,,,,,,,,,,,,,,,,,,,,,,,,,,,,,,,,,,,,,,,,,,,,,,,,,,,,,,,,,,,,,
,,5e67a895fafaa10180652312,2026-03-17_11h08.38.757,kallum_motion_pilot_GIST_update_2,2026.1.1,Win32,29.9940012,5e67a895fafaa10180652312,69b95efdef24cd8a694e89ee,69b96023a2d48d86232c5065,0.131,0.131,1,44,206,129,1,fiveseven,,,,,,,,,,,,,,,,,,,,,,,,,,,,,,,,,,,,,,,,,,,,,,,,,,,,,,,,,,,,,,,,,,,,,,,,,,,,,,,,,,,,,,,,,,,,,,,,,,,,,,,,,,,,,,,,,,,,,,,,,,,,,,,,,,,,,,,,,
,,5e67a895fafaa10180652312,2026-03-17_11h08.38.757,kallum_motion_pilot_GIST_update_2,2026.1.1,Win32,29.9940012,5e67a895fafaa10180652312,69b95efdef24cd8a694e89ee,69b96023a2d48d86232c5065,0.132,0.132,1,45,207,78,1,fourtwo,,,,,,,,,,,,,,,,,,,,,,,,,,,,,,,,,,,,,,,,,,,,,,,,,,,,,,,,,,,,,,,,,,,,,,,,,,,,,,,,,,,,,,,,,,,,,,,,,,,,,,,,,,,,,,,,,,,,,,,,,,,,,,,,,,,,,,,,,
,,5e67a895fafaa10180652312,2026-03-17_11h08.38.757,kallum_motion_pilot_GIST_update_2,2026.1.1,Win32,29.9940012,5e67a895fafaa10180652312,69b95efdef24cd8a694e89ee,69b96023a2d48d86232c5065,0.132,0.132,1,46,208,56,1,onetwo,,,,,,,,,,,,,,,,,,,,,,,,,,,,,,,,,,,,,,,,,,,,,,,,,,,,,,,,,,,,,,,,,,,,,,,,,,,,,,,,,,,,,,,,,,,,,,,,,,,,,,,,,,,,,,,,,,,,,,,,,,,,,,,,,,,,,,,,,
,,5e67a895fafaa10180652312,2026-03-17_11h08.38.757,kallum_motion_pilot_GIST_update_2,2026.1.1,Win32,29.9940012,5e67a895fafaa10180652312,69b95efdef24cd8a694e89ee,69b96023a2d48d86232c5065,0.132,0.132,1,47,209,2,1,twoone,,,,,,,,,,,,,,,,,,,,,,,,,,,,,,,,,,,,,,,,,,,,,,,,,,,,,,,,,,,,,,,,,,,,,,,,,,,,,,,,,,,,,,,,,,,,,,,,,,,,,,,,,,,,,,,,,,,,,,,,,,,,,,,,,,,,,,,,,
,,5e67a895fafaa10180652312,2026-03-17_11h08.38.757,kallum_motion_pilot_GIST_update_2,2026.1.1,Win32,29.9940012,5e67a895fafaa10180652312,69b95efdef24cd8a694e89ee,69b96023a2d48d86232c5065,0.133,0.133,1,48,210,156,1,sevenfive,,,,,,,,,,,,,,,,,,,,,,,,,,,,,,,,,,,,,,,,,,,,,,,,,,,,,,,,,,,,,,,,,,,,,,,,,,,,,,,,,,,,,,,,,,,,,,,,,,,,,,,,,,,,,,,,,,,,,,,,,,,,,,,,,,,,,,,,,
,,5e67a895fafaa10180652312,2026-03-17_11h08.38.757,kallum_motion_pilot_GIST_update_2,2026.1.1,Win32,29.9940012,5e67a895fafaa10180652312,69b95efdef24cd8a694e89ee,69b96023a2d48d86232c5065,0.133,0.133,1,49,211,134,1,eightsix,,,,,,,,,,,,,,,,,,,,,,,,,,,,,,,,,,,,,,,,,,,,,,,,,,,,,,,,,,,,,,,,,,,,,,,,,,,,,,,,,,,,,,,,,,,,,,,,,,,,,,,,,,,,,,,,,,,,,,,,,,,,,,,,,,,,,,,,,
,,5e67a895fafaa10180652312,2026-03-17_11h08.38.757,kallum_motion_pilot_GIST_update_2,2026.1.1,Win32,29.9940012,5e67a895fafaa10180652312,69b95efdef24cd8a694e89ee,69b96023a2d48d86232c5065,0.134,0.134,1,50,212,24,1,onetwo,,,,,,,,,,,,,,,,,,,,,,,,,,,,,,,,,,,,,,,,,,,,,,,,,,,,,,,,,,,,,,,,,,,,,,,,,,,,,,,,,,,,,,,,,,,,,,,,,,,,,,,,,,,,,,,,,,,,,,,,,,,,,,,,,,,,,,,,,
,,5e67a895fafaa10180652312,2026-03-17_11h08.38.757,kallum_motion_pilot_GIST_update_2,2026.1.1,Win32,29.9940012,5e67a895fafaa10180652312,69b95efdef24cd8a694e89ee,69b96023a2d48d86232c5065,0.134,0.134,1,51,213,30,1,fourtwo,,,,,,,,,,,,,,,,,,,,,,,,,,,,,,,,,,,,,,,,,,,,,,,,,,,,,,,,,,,,,,,,,,,,,,,,,,,,,,,,,,,,,,,,,,,,,,,,,,,,,,,,,,,,,,,,,,,,,,,,,,,,,,,,,,,,,,,,,
,,5e67a895fafaa10180652312,2026-03-17_11h08.38.757,kallum_motion_pilot_GIST_update_2,2026.1.1,Win32,29.9940012,5e67a895fafaa10180652312,69b95efdef24cd8a694e89ee,69b96023a2d48d86232c5065,0.134,0.134,1,52,214,33,1,onethree,,,,,,,,,,,,,,,,,,,,,,,,,,,,,,,,,,,,,,,,,,,,,,,,,,,,,,,,,,,,,,,,,,,,,,,,,,,,,,,,,,,,,,,,,,,,,,,,,,,,,,,,,,,,,,,,,,,,,,,,,,,,,,,,,,,,,,,,,
,,5e67a895fafaa10180652312,2026-03-17_11h08.38.757,kallum_motion_pilot_GIST_update_2,2026.1.1,Win32,29.9940012,5e67a895fafaa10180652312,69b95efdef24cd8a694e89ee,69b96023a2d48d86232c5065,0.134,0.134,1,53,215,6,1,fourtwo,,,,,,,,,,,,,,,,,,,,,,,,,,,,,,,,,,,,,,,,,,,,,,,,,,,,,,,,,,,,,,,,,,,,,,,,,,,,,,,,,,,,,,,,,,,,,,,,,,,,,,,,,,,,,,,,,,,,,,,,,,,,,,,,,,,,,,,,,
,,5e67a895fafaa10180652312,2026-03-17_11h08.38.757,kallum_motion_pilot_GIST_update_2,2026.1.1,Win32,29.9940012,5e67a895fafaa10180652312,69b95efdef24cd8a694e89ee,69b96023a2d48d86232c5065,0.134,0.134,1,54,216,97,1,fiveseven,,,,,,,,,,,,,,,,,,,,,,,,,,,,,,,,,,,,,,,,,,,,,,,,,,,,,,,,,,,,,,,,,,,,,,,,,,,,,,,,,,,,,,,,,,,,,,,,,,,,,,,,,,,,,,,,,,,,,,,,,,,,,,,,,,,,,,,,,
,,5e67a895fafaa10180652312,2026-03-17_11h08.38.757,kallum_motion_pilot_GIST_update_2,2026.1.1,Win32,29.9940012,5e67a895fafaa10180652312,69b95efdef24cd8a694e89ee,69b96023a2d48d86232c5065,0.134,0.134,1,55,217,76,1,threeone,,,,,,,,,,,,,,,,,,,,,,,,,,,,,,,,,,,,,,,,,,,,,,,,,,,,,,,,,,,,,,,,,,,,,,,,,,,,,,,,,,,,,,,,,,,,,,,,,,,,,,,,,,,,,,,,,,,,,,,,,,,,,,,,,,,,,,,,,
,,5e67a895fafaa10180652312,2026-03-17_11h08.38.757,kallum_motion_pilot_GIST_update_2,2026.1.1,Win32,29.9940012,5e67a895fafaa10180652312,69b95efdef24cd8a694e89ee,69b96023a2d48d86232c5065,0.134,0.134,1,56,218,27,1,twofour,,,,,,,,,,,,,,,,,,,,,,,,,,,,,,,,,,,,,,,,,,,,,,,,,,,,,,,,,,,,,,,,,,,,,,,,,,,,,,,,,,,,,,,,,,,,,,,,,,,,,,,,,,,,,,,,,,,,,,,,,,,,,,,,,,,,,,,,,
,,5e67a895fafaa10180652312,2026-03-17_11h08.38.757,kallum_motion_pilot_GIST_update_2,2026.1.1,Win32,29.9940012,5e67a895fafaa10180652312,69b95efdef24cd8a694e89ee,69b96023a2d48d86232c5065,0.134,0.134,1,57,219,113,1,fiveseven,,,,,,,,,,,,,,,,,,,,,,,,,,,,,,,,,,,,,,,,,,,,,,,,,,,,,,,,,,,,,,,,,,,,,,,,,,,,,,,,,,,,,,,,,,,,,,,,,,,,,,,,,,,,,,,,,,,,,,,,,,,,,,,,,,,,,,,,,
,,5e67a895fafaa10180652312,2026-03-17_11h08.38.757,kallum_motion_pilot_GIST_update_2,2026.1.1,Win32,29.9940012,5e67a895fafaa10180652312,69b95efdef24cd8a694e89ee,69b96023a2d48d86232c5065,0.135,0.135,1,58,220,119,1,eightseven,,,,,,,,,,,,,,,,,,,,,,,,,,,,,,,,,,,,,,,,,,,,,,,,,,,,,,,,,,,,,,,,,,,,,,,,,,,,,,,,,,,,,,,,,,,,,,,,,,,,,,,,,,,,,,,,,,,,,,,,,,,,,,,,,,,,,,,,,
,,5e67a895fafaa10180652312,2026-03-17_11h08.38.757,kallum_motion_pilot_GIST_update_2,2026.1.1,Win32,29.9940012,5e67a895fafaa10180652312,69b95efdef24cd8a694e89ee,69b96023a2d48d86232c5065,0.136,0.136,1,59,221,82,1,sixfive,,,,,,,,,,,,,,,,,,,,,,,,,,,,,,,,,,,,,,,,,,,,,,,,,,,,,,,,,,,,,,,,,,,,,,,,,,,,,,,,,,,,,,,,,,,,,,,,,,,,,,,,,,,,,,,,,,,,,,,,,,,,,,,,,,,,,,,,,
,,5e67a895fafaa10180652312,2026-03-17_11h08.38.757,kallum_motion_pilot_GIST_update_2,2026.1.1,Win32,29.9940012,5e67a895fafaa10180652312,69b95efdef24cd8a694e89ee,69b96023a2d48d86232c5065,0.136,0.136,1,60,222,153,1,fiveseven,,,,,,,,,,,,,,,,,,,,,,,,,,,,,,,,,,,,,,,,,,,,,,,,,,,,,,,,,,,,,,,,,,,,,,,,,,,,,,,,,,,,,,,,,,,,,,,,,,,,,,,,,,,,,,,,,,,,,,,,,,,,,,,,,,,,,,,,,
,,5e67a895fafaa10180652312,2026-03-17_11h08.38.757,kallum_motion_pilot_GIST_update_2,2026.1.1,Win32,29.9940012,5e67a895fafaa10180652312,69b95efdef24cd8a694e89ee,69b96023a2d48d86232c5065,0.136,0.136,1,61,223,16,1,onetwo,,,,,,,,,,,,,,,,,,,,,,,,,,,,,,,,,,,,,,,,,,,,,,,,,,,,,,,,,,,,,,,,,,,,,,,,,,,,,,,,,,,,,,,,,,,,,,,,,,,,,,,,,,,,,,,,,,,,,,,,,,,,,,,,,,,,,,,,,
,,5e67a895fafaa10180652312,2026-03-17_11h08.38.757,kallum_motion_pilot_GIST_update_2,2026.1.1,Win32,29.9940012,5e67a895fafaa10180652312,69b95efdef24cd8a694e89ee,69b96023a2d48d86232c5065,0.136,0.136,1,62,224,57,1,onethree,,,,,,,,,,,,,,,,,,,,,,,,,,,,,,,,,,,,,,,,,,,,,,,,,,,,,,,,,,,,,,,,,,,,,,,,,,,,,,,,,,,,,,,,,,,,,,,,,,,,,,,,,,,,,,,,,,,,,,,,,,,,,,,,,,,,,,,,,
,,5e67a895fafaa10180652312,2026-03-17_11h08.38.757,kallum_motion_pilot_GIST_update_2,2026.1.1,Win32,29.9940012,5e67a895fafaa10180652312,69b95efdef24cd8a694e89ee,69b96023a2d48d86232c5065,0.137,0.137,1,63,225,121,1,fiveseven,,,,,,,,,,,,,,,,,,,,,,,,,,,,,,,,,,,,,,,,,,,,,,,,,,,,,,,,,,,,,,,,,,,,,,,,,,,,,,,,,,,,,,,,,,,,,,,,,,,,,,,,,,,,,,,,,,,,,,,,,,,,,,,,,,,,,,,,,
,,5e67a895fafaa10180652312,2026-03-17_11h08.38.757,kallum_motion_pilot_GIST_update_2,2026.1.1,Win32,29.9940012,5e67a895fafaa10180652312,69b95efdef24cd8a694e89ee,69b96023a2d48d86232c5065,0.137,0.137,1,64,226,60,1,threeone,,,,,,,,,,,,,,,,,,,,,,,,,,,,,,,,,,,,,,,,,,,,,,,,,,,,,,,,,,,,,,,,,,,,,,,,,,,,,,,,,,,,,,,,,,,,,,,,,,,,,,,,,,,,,,,,,,,,,,,,,,,,,,,,,,,,,,,,,
,,5e67a895fafaa10180652312,2026-03-17_11h08.38.757,kallum_motion_pilot_GIST_update_2,2026.1.1,Win32,29.9940012,5e67a895fafaa10180652312,69b95efdef24cd8a694e89ee,69b96023a2d48d86232c5065,0.137,0.137,1,65,227,120,1,fivesix,,,,,,,,,,,,,,,,,,,,,,,,,,,,,,,,,,,,,,,,,,,,,,,,,,,,,,,,,,,,,,,,,,,,,,,,,,,,,,,,,,,,,,,,,,,,,,,,,,,,,,,,,,,,,,,,,,,,,,,,,,,,,,,,,,,,,,,,,
,,5e67a895fafaa10180652312,2026-03-17_11h08.38.757,kallum_motion_pilot_GIST_update_2,2026.1.1,Win32,29.9940012,5e67a895fafaa10180652312,69b95efdef24cd8a694e89ee,69b96023a2d48d86232c5065,0.137,0.137,1,66,228,54,1,fourtwo,,,,,,,,,,,,,,,,,,,,,,,,,,,,,,,,,,,,,,,,,,,,,,,,,,,,,,,,,,,,,,,,,,,,,,,,,,,,,,,,,,,,,,,,,,,,,,,,,,,,,,,,,,,,,,,,,,,,,,,,,,,,,,,,,,,,,,,,,
,,5e67a895fafaa10180652312,2026-03-17_11h08.38.757,kallum_motion_pilot_GIST_update_2,2026.1.1,Win32,29.9940012,5e67a895fafaa10180652312,69b95efdef24cd8a694e89ee,69b96023a2d48d86232c5065,0.137,0.137,1,67,229,10,1,twoone,,,,,,,,,,,,,,,,,,,,,,,,,,,,,,,,,,,,,,,,,,,,,,,,,,,,,,,,,,,,,,,,,,,,,,,,,,,,,,,,,,,,,,,,,,,,,,,,,,,,,,,,,,,,,,,,,,,,,,,,,,,,,,,,,,,,,,,,,
,,5e67a895fafaa10180652312,2026-03-17_11h08.38.757,kallum_motion_pilot_GIST_update_2,2026.1.1,Win32,29.9940012,5e67a895fafaa10180652312,69b95efdef24cd8a694e89ee,69b96023a2d48d86232c5065,0.137,0.137,1,68,230,59,1,twofour,,,,,,,,,,,,,,,,,,,,,,,,,,,,,,,,,,,,,,,,,,,,,,,,,,,,,,,,,,,,,,,,,,,,,,,,,,,,,,,,,,,,,,,,,,,,,,,,,,,,,,,,,,,,,,,,,,,,,,,,,,,,,,,,,,,,,,,,,
,,5e67a895fafaa10180652312,2026-03-17_11h08.38.757,kallum_motion_pilot_GIST_update_2,2026.1.1,Win32,29.9940012,5e67a895fafaa10180652312,69b95efdef24cd8a694e89ee,69b96023a2d48d86232c5065,0.138,0.138,1,69,231,122,1,sixfive,,,,,,,,,,,,,,,,,,,,,,,,,,,,,,,,,,,,,,,,,,,,,,,,,,,,,,,,,,,,,,,,,,,,,,,,,,,,,,,,,,,,,,,,,,,,,,,,,,,,,,,,,,,,,,,,,,,,,,,,,,,,,,,,,,,,,,,,,
,,5e67a895fafaa10180652312,2026-03-17_11h08.38.757,kallum_motion_pilot_GIST_update_2,2026.1.1,Win32,29.9940012,5e67a895fafaa10180652312,69b95efdef24cd8a694e89ee,69b96023a2d48d86232c5065,0.138,0.138,1,70,232,148,1,sevenfive,,,,,,,,,,,,,,,,,,,,,,,,,,,,,,,,,,,,,,,,,,,,,,,,,,,,,,,,,,,,,,,,,,,,,,,,,,,,,,,,,,,,,,,,,,,,,,,,,,,,,,,,,,,,,,,,,,,,,,,,,,,,,,,,,,,,,,,,,
,,5e67a895fafaa10180652312,2026-03-17_11h08.38.757,kallum_motion_pilot_GIST_update_2,2026.1.1,Win32,29.9940012,5e67a895fafaa10180652312,69b95efdef24cd8a694e89ee,69b96023a2d48d86232c5065,0.138,0.138,1,71,233,89,1,fiveseven,,,,,,,,,,,,,,,,,,,,,,,,,,,,,,,,,,,,,,,,,,,,,,,,,,,,,,,,,,,,,,,,,,,,,,,,,,,,,,,,,,,,,,,,,,,,,,,,,,,,,,,,,,,,,,,,,,,,,,,,,,,,,,,,,,,,,,,,,
,,5e67a895fafaa10180652312,2026-03-17_11h08.38.757,kallum_motion_pilot_GIST_update_2,2026.1.1,Win32,29.9940012,5e67a895fafaa10180652312,69b95efdef24cd8a694e89ee,69b96023a2d48d86232c5065,0.138,0.138,1,72,234,34,1,twoone,,,,,,,,,,,,,,,,,,,,,,,,,,,,,,,,,,,,,,,,,,,,,,,,,,,,,,,,,,,,,,,,,,,,,,,,,,,,,,,,,,,,,,,,,,,,,,,,,,,,,,,,,,,,,,,,,,,,,,,,,,,,,,,,,,,,,,,,,
,,5e67a895fafaa10180652312,2026-03-17_11h08.38.757,kallum_motion_pilot_GIST_update_2,2026.1.1,Win32,29.9940012,5e67a895fafaa10180652312,69b95efdef24cd8a694e89ee,69b96023a2d48d86232c5065,0.139,0.139,1,73,235,150,1,eightsix,,,,,,,,,,,,,,,,,,,,,,,,,,,,,,,,,,,,,,,,,,,,,,,,,,,,,,,,,,,,,,,,,,,,,,,,,,,,,,,,,,,,,,,,,,,,,,,,,,,,,,,,,,,,,,,,,,,,,,,,,,,,,,,,,,,,,,,,,
,,5e67a895fafaa10180652312,2026-03-17_11h08.38.757,kallum_motion_pilot_GIST_update_2,2026.1.1,Win32,29.9940012,5e67a895fafaa10180652312,69b95efdef24cd8a694e89ee,69b96023a2d48d86232c5065,0.139,0.139,1,74,236,66,1,twoone,,,,,,,,,,,,,,,,,,,,,,,,,,,,,,,,,,,,,,,,,,,,,,,,,,,,,,,,,,,,,,,,,,,,,,,,,,,,,,,,,,,,,,,,,,,,,,,,,,,,,,,,,,,,,,,,,,,,,,,,,,,,,,,,,,,,,,,,,
,,5e67a895fafaa10180652312,2026-03-17_11h08.38.757,kallum_motion_pilot_GIST_update_2,2026.1.1,Win32,29.9940012,5e67a895fafaa10180652312,69b95efdef24cd8a694e89ee,69b96023a2d48d86232c5065,0.139,0.139,1,75,237,106,1,sixfive,,,,,,,,,,,,,,,,,,,,,,,,,,,,,,,,,,,,,,,,,,,,,,,,,,,,,,,,,,,,,,,,,,,,,,,,,,,,,,,,,,,,,,,,,,,,,,,,,,,,,,,,,,,,,,,,,,,,,,,,,,,,,,,,,,,,,,,,,
,,5e67a895fafaa10180652312,2026-03-17_11h08.38.757,kallum_motion_pilot_GIST_update_2,2026.1.1,Win32,29.9940012,5e67a895fafaa10180652312,69b95efdef24cd8a694e89ee,69b96023a2d48d86232c5065,0.139,0.139,1,76,238,160,1,fivesix,,,,,,,,,,,,,,,,,,,,,,,,,,,,,,,,,,,,,,,,,,,,,,,,,,,,,,,,,,,,,,,,,,,,,,,,,,,,,,,,,,,,,,,,,,,,,,,,,,,,,,,,,,,,,,,,,,,,,,,,,,,,,,,,,,,,,,,,,
,,5e67a895fafaa10180652312,2026-03-17_11h08.38.757,kallum_motion_pilot_GIST_update_2,2026.1.1,Win32,29.9940012,5e67a895fafaa10180652312,69b95efdef24cd8a694e89ee,69b96023a2d48d86232c5065,0.139,0.139,1,77,239,143,1,eightseven,,,,,,,,,,,,,,,,,,,,,,,,,,,,,,,,,,,,,,,,,,,,,,,,,,,,,,,,,,,,,,,,,,,,,,,,,,,,,,,,,,,,,,,,,,,,,,,,,,,,,,,,,,,,,,,,,,,,,,,,,,,,,,,,,,,,,,,,,
,,5e67a895fafaa10180652312,2026-03-17_11h08.38.757,kallum_motion_pilot_GIST_update_2,2026.1.1,Win32,29.9940012,5e67a895fafaa10180652312,69b95efdef24cd8a694e89ee,69b96023a2d48d86232c5065,0.139,0.139,1,78,240,86,1,eightsix,,,,,,,,,,,,,,,,,,,,,,,,,,,,,,,,,,,,,,,,,,,,,,,,,,,,,,,,,,,,,,,,,,,,,,,,,,,,,,,,,,,,,,,,,,,,,,,,,,,,,,,,,,,,,,,,,,,,,,,,,,,,,,,,,,,,,,,,,
,,5e67a895fafaa10180652312,2026-03-17_11h08.38.757,kallum_motion_pilot_GIST_update_2,2026.1.1,Win32,29.9940012,5e67a895fafaa10180652312,69b95efdef24cd8a694e89ee,69b96023a2d48d86232c5065,0.139,0.139,1,79,241,61,1,threefour,,,,,,,,,,,,,,,,,,,,,,,,,,,,,,,,,,,,,,,,,,,,,,,,,,,,,,,,,,,,,,,,,,,,,,,,,,,,,,,,,,,,,,,,,,,,,,,,,,,,,,,,,,,,,,,,,,,,,,,,,,,,,,,,,,,,,,,,,
,,5e67a895fafaa10180652312,2026-03-17_11h08.38.757,kallum_motion_pilot_GIST_update_2,2026.1.1,Win32,29.9940012,5e67a895fafaa10180652312,69b95efdef24cd8a694e89ee,69b96023a2d48d86232c5065,0.14,0.14,1,80,242,53,1,threefour,,,,,,,,,,,,,,,,,,,,,,,,,,,,,,,,,,,,,,,,,,,,,,,,,,,,,,,,,,,,,,,,,,,,,,,,,,,,,,,,,,,,,,,,,,,,,,,,,,,,,,,,,,,,,,,,,,,,,,,,,,,,,,,,,,,,,,,,,
,,5e67a895fafaa10180652312,2026-03-17_11h08.38.757,kallum_motion_pilot_GIST_update_2,2026.1.1,Win32,29.9940012,5e67a895fafaa10180652312,69b95efdef24cd8a694e89ee,69b96023a2d48d86232c5065,0.14,0.14,1,81,243,41,1,onethree,,,,,,,,,,,,,,,,,,,,,,,,,,,,,,,,,,,,,,,,,,,,,,,,,,,,,,,,,,,,,,,,,,,,,,,,,,,,,,,,,,,,,,,,,,,,,,,,,,,,,,,,,,,,,,,,,,,,,,,,,,,,,,,,,,,,,,,,,
,,5e67a895fafaa10180652312,2026-03-17_11h08.38.757,kallum_motion_pilot_GIST_update_2,2026.1.1,Win32,29.9940012,5e67a895fafaa10180652312,69b95efdef24cd8a694e89ee,69b96023a2d48d86232c5065,0.14,0.14,1,82,244,3,1,twofour,,,,,,,,,,,,,,,,,,,,,,,,,,,,,,,,,,,,,,,,,,,,,,,,,,,,,,,,,,,,,,,,,,,,,,,,,,,,,,,,,,,,,,,,,,,,,,,,,,,,,,,,,,,,,,,,,,,,,,,,,,,,,,,,,,,,,,,,,
,,5e67a895fafaa10180652312,2026-03-17_11h08.38.757,kallum_motion_pilot_GIST_update_2,2026.1.1,Win32,29.9940012,5e67a895fafaa10180652312,69b95efdef24cd8a694e89ee,69b96023a2d48d86232c5065,0.14,0.14,1,83,245,107,1,sixeight,,,,,,,,,,,,,,,,,,,,,,,,,,,,,,,,,,,,,,,,,,,,,,,,,,,,,,,,,,,,,,,,,,,,,,,,,,,,,,,,,,,,,,,,,,,,,,,,,,,,,,,,,,,,,,,,,,,,,,,,,,,,,,,,,,,,,,,,,
,,5e67a895fafaa10180652312,2026-03-17_11h08.38.757,kallum_motion_pilot_GIST_update_2,2026.1.1,Win32,29.9940012,5e67a895fafaa10180652312,69b95efdef24cd8a694e89ee,69b96023a2d48d86232c5065,0.14,0.14,1,84,246,131,1,sixeight,,,,,,,,,,,,,,,,,,,,,,,,,,,,,,,,,,,,,,,,,,,,,,,,,,,,,,,,,,,,,,,,,,,,,,,,,,,,,,,,,,,,,,,,,,,,,,,,,,,,,,,,,,,,,,,,,,,,,,,,,,,,,,,,,,,,,,,,,
,,5e67a895fafaa10180652312,2026-03-17_11h08.38.757,kallum_motion_pilot_GIST_update_2,2026.1.1,Win32,29.9940012,5e67a895fafaa10180652312,69b95efdef24cd8a694e89ee,69b96023a2d48d86232c5065,0.14,0.14,1,85,247,147,1,sixeight,,,,,,,,,,,,,,,,,,,,,,,,,,,,,,,,,,,,,,,,,,,,,,,,,,,,,,,,,,,,,,,,,,,,,,,,,,,,,,,,,,,,,,,,,,,,,,,,,,,,,,,,,,,,,,,,,,,,,,,,,,,,,,,,,,,,,,,,,
,,5e67a895fafaa10180652312,2026-03-17_11h08.38.757,kallum_motion_pilot_GIST_update_2,2026.1.1,Win32,29.9940012,5e67a895fafaa10180652312,69b95efdef24cd8a694e89ee,69b96023a2d48d86232c5065,0.14,0.14,1,86,248,127,1,eightseven,,,,,,,,,,,,,,,,,,,,,,,,,,,,,,,,,,,,,,,,,,,,,,,,,,,,,,,,,,,,,,,,,,,,,,,,,,,,,,,,,,,,,,,,,,,,,,,,,,,,,,,,,,,,,,,,,,,,,,,,,,,,,,,,,,,,,,,,,
,,5e67a895fafaa10180652312,2026-03-17_11h08.38.757,kallum_motion_pilot_GIST_update_2,2026.1.1,Win32,29.9940012,5e67a895fafaa10180652312,69b95efdef24cd8a694e89ee,69b96023a2d48d86232c5065,0.141,0.141,1,87,249,64,1,onetwo,,,,,,,,,,,,,,,,,,,,,,,,,,,,,,,,,,,,,,,,,,,,,,,,,,,,,,,,,,,,,,,,,,,,,,,,,,,,,,,,,,,,,,,,,,,,,,,,,,,,,,,,,,,,,,,,,,,,,,,,,,,,,,,,,,,,,,,,,
,,5e67a895fafaa10180652312,2026-03-17_11h08.38.757,kallum_motion_pilot_GIST_update_2,2026.1.1,Win32,29.9940012,5e67a895fafaa10180652312,69b95efdef24cd8a694e89ee,69b96023a2d48d86232c5065,0.141,0.141,1,88,250,62,1,fourtwo,,,,,,,,,,,,,,,,,,,,,,,,,,,,,,,,,,,,,,,,,,,,,,,,,,,,,,,,,,,,,,,,,,,,,,,,,,,,,,,,,,,,,,,,,,,,,,,,,,,,,,,,,,,,,,,,,,,,,,,,,,,,,,,,,,,,,,,,,
,,5e67a895fafaa10180652312,2026-03-17_11h08.38.757,kallum_motion_pilot_GIST_update_2,2026.1.1,Win32,29.9940012,5e67a895fafaa10180652312,69b95efdef24cd8a694e89ee,69b96023a2d48d86232c5065,0.141,0.141,1,89,251,144,1,fivesix,,,,,,,,,,,,,,,,,,,,,,,,,,,,,,,,,,,,,,,,,,,,,,,,,,,,,,,,,,,,,,,,,,,,,,,,,,,,,,,,,,,,,,,,,,,,,,,,,,,,,,,,,,,,,,,,,,,,,,,,,,,,,,,,,,,,,,,,,
,,5e67a895fafaa10180652312,2026-03-17_11h08.38.757,kallum_motion_pilot_GIST_update_2,2026.1.1,Win32,29.9940012,5e67a895fafaa10180652312,69b95efdef24cd8a694e89ee,69b96023a2d48d86232c5065,0.141,0.141,1,90,252,55,1,fourthree,,,,,,,,,,,,,,,,,,,,,,,,,,,,,,,,,,,,,,,,,,,,,,,,,,,,,,,,,,,,,,,,,,,,,,,,,,,,,,,,,,,,,,,,,,,,,,,,,,,,,,,,,,,,,,,,,,,,,,,,,,,,,,,,,,,,,,,,,
,,5e67a895fafaa10180652312,2026-03-17_11h08.38.757,kallum_motion_pilot_GIST_update_2,2026.1.1,Win32,29.9940012,5e67a895fafaa10180652312,69b95efdef24cd8a694e89ee,69b96023a2d48d86232c5065,0.141,0.141,1,91,253,15,1,fourthree,,,,,,,,,,,,,,,,,,,,,,,,,,,,,,,,,,,,,,,,,,,,,,,,,,,,,,,,,,,,,,,,,,,,,,,,,,,,,,,,,,,,,,,,,,,,,,,,,,,,,,,,,,,,,,,,,,,,,,,,,,,,,,,,,,,,,,,,,
,,5e67a895fafaa10180652312,2026-03-17_11h08.38.757,kallum_motion_pilot_GIST_update_2,2026.1.1,Win32,29.9940012,5e67a895fafaa10180652312,69b95efdef24cd8a694e89ee,69b96023a2d48d86232c5065,0.141,0.141,1,92,254,36,1,threeone,,,,,,,,,,,,,,,,,,,,,,,,,,,,,,,,,,,,,,,,,,,,,,,,,,,,,,,,,,,,,,,,,,,,,,,,,,,,,,,,,,,,,,,,,,,,,,,,,,,,,,,,,,,,,,,,,,,,,,,,,,,,,,,,,,,,,,,,,
,,5e67a895fafaa10180652312,2026-03-17_11h08.38.757,kallum_motion_pilot_GIST_update_2,2026.1.1,Win32,29.9940012,5e67a895fafaa10180652312,69b95efdef24cd8a694e89ee,69b96023a2d48d86232c5065,0.141,0.141,1,93,255,116,1,sevenfive,,,,,,,,,,,,,,,,,,,,,,,,,,,,,,,,,,,,,,,,,,,,,,,,,,,,,,,,,,,,,,,,,,,,,,,,,,,,,,,,,,,,,,,,,,,,,,,,,,,,,,,,,,,,,,,,,,,,,,,,,,,,,,,,,,,,,,,,,
,,5e67a895fafaa10180652312,2026-03-17_11h08.38.757,kallum_motion_pilot_GIST_update_2,2026.1.1,Win32,29.9940012,5e67a895fafaa10180652312,69b95efdef24cd8a694e89ee,69b96023a2d48d86232c5065,0.141,0.141,1,94,256,138,1,sixfive,,,,,,,,,,,,,,,,,,,,,,,,,,,,,,,,,,,,,,,,,,,,,,,,,,,,,,,,,,,,,,,,,,,,,,,,,,,,,,,,,,,,,,,,,,,,,,,,,,,,,,,,,,,,,,,,,,,,,,,,,,,,,,,,,,,,,,,,,
,,5e67a895fafaa10180652312,2026-03-17_11h08.38.757,kallum_motion_pilot_GIST_update_2,2026.1.1,Win32,29.9940012,5e67a895fafaa10180652312,69b95efdef24cd8a694e89ee,69b96023a2d48d86232c5065,0.142,0.142,1,95,257,146,1,sixfive,,,,,,,,,,,,,,,,,,,,,,,,,,,,,,,,,,,,,,,,,,,,,,,,,,,,,,,,,,,,,,,,,,,,,,,,,,,,,,,,,,,,,,,,,,,,,,,,,,,,,,,,,,,,,,,,,,,,,,,,,,,,,,,,,,,,,,,,,
,,5e67a895fafaa10180652312,2026-03-17_11h08.38.757,kallum_motion_pilot_GIST_update_2,2026.1.1,Win32,29.9940012,5e67a895fafaa10180652312,69b95efdef24cd8a694e89ee,69b96023a2d48d86232c5065,0.142,0.142,1,96,258,125,1,seveneight,,,,,,,,,,,,,,,,,,,,,,,,,,,,,,,,,,,,,,,,,,,,,,,,,,,,,,,,,,,,,,,,,,,,,,,,,,,,,,,,,,,,,,,,,,,,,,,,,,,,,,,,,,,,,,,,,,,,,,,,,,,,,,,,,,,,,,,,,
,,5e67a895fafaa10180652312,2026-03-17_11h08.38.757,kallum_motion_pilot_GIST_update_2,2026.1.1,Win32,29.9940012,5e67a895fafaa10180652312,69b95efdef24cd8a694e89ee,69b96023a2d48d86232c5065,0.142,0.142,1,97,259,25,1,onethree,,,,,,,,,,,,,,,,,,,,,,,,,,,,,,,,,,,,,,,,,,,,,,,,,,,,,,,,,,,,,,,,,,,,,,,,,,,,,,,,,,,,,,,,,,,,,,,,,,,,,,,,,,,,,,,,,,,,,,,,,,,,,,,,,,,,,,,,,
,,5e67a895fafaa10180652312,2026-03-17_11h08.38.757,kallum_motion_pilot_GIST_update_2,2026.1.1,Win32,29.9940012,5e67a895fafaa10180652312,69b95efdef24cd8a694e89ee,69b96023a2d48d86232c5065,0.143,0.143,1,98,260,1,1,onethree,,,,,,,,,,,,,,,,,,,,,,,,,,,,,,,,,,,,,,,,,,,,,,,,,,,,,,,,,,,,,,,,,,,,,,,,,,,,,,,,,,,,,,,,,,,,,,,,,,,,,,,,,,,,,,,,,,,,,,,,,,,,,,,,,,,,,,,,,
,,5e67a895fafaa10180652312,2026-03-17_11h08.38.757,kallum_motion_pilot_GIST_update_2,2026.1.1,Win32,29.9940012,5e67a895fafaa10180652312,69b95efdef24cd8a694e89ee,69b96023a2d48d86232c5065,0.143,0.143,1,99,261,0,1,onetwo,,,,,,,,,,,,,,,,,,,,,,,,,,,,,,,,,,,,,,,,,,,,,,,,,,,,,,,,,,,,,,,,,,,,,,,,,,,,,,,,,,,,,,,,,,,,,,,,,,,,,,,,,,,,,,,,,,,,,,,,,,,,,,,,,,,,,,,,,
,,5e67a895fafaa10180652312,2026-03-17_11h08.38.757,kallum_motion_pilot_GIST_update_2,2026.1.1,Win32,29.9940012,5e67a895fafaa10180652312,69b95efdef24cd8a694e89ee,69b96023a2d48d86232c5065,0.143,0.143,1,100,262,124,1,sevenfive,,,,,,,,,,,,,,,,,,,,,,,,,,,,,,,,,,,,,,,,,,,,,,,,,,,,,,,,,,,,,,,,,,,,,,,,,,,,,,,,,,,,,,,,,,,,,,,,,,,,,,,,,,,,,,,,,,,,,,,,,,,,,,,,,,,,,,,,,
,,5e67a895fafaa10180652312,2026-03-17_11h08.38.757,kallum_motion_pilot_GIST_update_2,2026.1.1,Win32,29.9940012,5e67a895fafaa10180652312,69b95efdef24cd8a694e89ee,69b96023a2d48d86232c5065,0.144,0.144,1,101,263,32,1,onetwo,,,,,,,,,,,,,,,,,,,,,,,,,,,,,,,,,,,,,,,,,,,,,,,,,,,,,,,,,,,,,,,,,,,,,,,,,,,,,,,,,,,,,,,,,,,,,,,,,,,,,,,,,,,,,,,,,,,,,,,,,,,,,,,,,,,,,,,,,
,,5e67a895fafaa10180652312,2026-03-17_11h08.38.757,kallum_motion_pilot_GIST_update_2,2026.1.1,Win32,29.9940012,5e67a895fafaa10180652312,69b95efdef24cd8a694e89ee,69b96023a2d48d86232c5065,0.144,0.144,1,102,264,85,1,seveneight,,,,,,,,,,,,,,,,,,,,,,,,,,,,,,,,,,,,,,,,,,,,,,,,,,,,,,,,,,,,,,,,,,,,,,,,,,,,,,,,,,,,,,,,,,,,,,,,,,,,,,,,,,,,,,,,,,,,,,,,,,,,,,,,,,,,,,,,,
,,5e67a895fafaa10180652312,2026-03-17_11h08.38.757,kallum_motion_pilot_GIST_update_2,2026.1.1,Win32,29.9940012,5e67a895fafaa10180652312,69b95efdef24cd8a694e89ee,69b96023a2d48d86232c5065,0.145,0.145,1,103,265,22,1,fourtwo,,,,,,,,,,,,,,,,,,,,,,,,,,,,,,,,,,,,,,,,,,,,,,,,,,,,,,,,,,,,,,,,,,,,,,,,,,,,,,,,,,,,,,,,,,,,,,,,,,,,,,,,,,,,,,,,,,,,,,,,,,,,,,,,,,,,,,,,,
,,5e67a895fafaa10180652312,2026-03-17_11h08.38.757,kallum_motion_pilot_GIST_update_2,2026.1.1,Win32,29.9940012,5e67a895fafaa10180652312,69b95efdef24cd8a694e89ee,69b96023a2d48d86232c5065,0.145,0.145,1,104,266,87,1,eightseven,,,,,,,,,,,,,,,,,,,,,,,,,,,,,,,,,,,,,,,,,,,,,,,,,,,,,,,,,,,,,,,,,,,,,,,,,,,,,,,,,,,,,,,,,,,,,,,,,,,,,,,,,,,,,,,,,,,,,,,,,,,,,,,,,,,,,,,,,
,,5e67a895fafaa10180652312,2026-03-17_11h08.38.757,kallum_motion_pilot_GIST_update_2,2026.1.1,Win32,29.9940012,5e67a895fafaa10180652312,69b95efdef24cd8a694e89ee,69b96023a2d48d86232c5065,0.145,0.145,1,105,267,63,1,fourthree,,,,,,,,,,,,,,,,,,,,,,,,,,,,,,,,,,,,,,,,,,,,,,,,,,,,,,,,,,,,,,,,,,,,,,,,,,,,,,,,,,,,,,,,,,,,,,,,,,,,,,,,,,,,,,,,,,,,,,,,,,,,,,,,,,,,,,,,,
,,5e67a895fafaa10180652312,2026-03-17_11h08.38.757,kallum_motion_pilot_GIST_update_2,2026.1.1,Win32,29.9940012,5e67a895fafaa10180652312,69b95efdef24cd8a694e89ee,69b96023a2d48d86232c5065,0.146,0.146,1,106,268,114,1,sixfive,,,,,,,,,,,,,,,,,,,,,,,,,,,,,,,,,,,,,,,,,,,,,,,,,,,,,,,,,,,,,,,,,,,,,,,,,,,,,,,,,,,,,,,,,,,,,,,,,,,,,,,,,,,,,,,,,,,,,,,,,,,,,,,,,,,,,,,,,
