startup.started,startup.stopped,Prolific ID*,date,expName,psychopyVersion,OS,frameRate,participant,study_id,session,stimpositions.started,stimpositions.stopped,hardcoded_stimulus_positions.thisRepN,hardcoded_stimulus_positions.thisTrialN,hardcoded_stimulus_positions.thisN,hardcoded_stimulus_positions.thisIndex,hardcoded_stimulus_positions.ran,StimulusPos,stimorientation.started,stimorientation.stopped,prac_stimorientation_import_loop.thisRepN,prac_stimorientation_import_loop.thisTrialN,prac_stimorientation_import_loop.thisN,prac_stimorientation_import_loop.thisIndex,prac_stimorientation_import_loop.ran,Stimorientation,welcome_instr.started,welcome_instr.stopped,key_resp.keys,key_resp.rt,key_resp.duration,response_steppedout_1.started,response_steppedout_1.stopped,key_resp_20.keys,key_resp_20.rt,key_resp_20.duration,response_steppedout_2.started,response_steppedout_2.stopped,key_resp_19.keys,key_resp_19.rt,key_resp_19.duration,stim_response_instr.started,stim_response_instr.stopped,key_resp_15.keys,key_resp_15.rt,key_resp_15.duration,direction_instr_2.started,direction_instr_2.stopped,key_resp_9.keys,key_resp_9.rt,key_resp_9.duration,instr_prac.started,instr_prac.stopped,key_resp_10.keys,key_resp_10.rt,key_resp_10.duration,Stim1_display_prac.started,Stim1_display_prac.stopped,Ecc,Circle1_ori,Circle2_ori,response_prac.started,similarity,response_time,response_prac.stopped,mouse_5.x,mouse_5.y,mouse_5.leftButton,mouse_5.midButton,mouse_5.rightButton,mouse_5.clicked_name,responseprac_feedback.started,responseprac_feedback.stopped,summary2_prac.started,summary2_prac.stopped,mouse_6.x,mouse_6.y,mouse_6.leftButton,mouse_6.midButton,mouse_6.rightButton,mouse_6.clicked_name,duringprac.thisRepN,duringprac.thisTrialN,duringprac.thisN,duringprac.thisIndex,duringprac.ran,begin.started,begin.stopped,key_resp_22.keys,key_resp_22.rt,key_resp_22.duration,Stim1_display.started,Stim1_display.stopped,circle1_ori,circle2_ori,circle1_SF,circle2_SF,response.started,response.stopped,mouse.x,mouse.y,mouse.leftButton,mouse.midButton,mouse.rightButton,mouse.clicked_name,trialnumber,double_pass.thisRepN,double_pass.thisTrialN,double_pass.thisN,double_pass.thisIndex,double_pass.ran,double_pass.order,main_trial.thisRepN,main_trial.thisTrialN,main_trial.thisN,main_trial.thisIndex,main_trial.ran,main_trial.order,Trial_Counter,Catch,Frequencies,response_2.started,response_2.stopped,mouse_2.x,mouse_2.y,mouse_2.leftButton,mouse_2.midButton,mouse_2.rightButton,mouse_2.clicked_name,special_trial.started,special_trial.stopped,catch_1.started,catch_1.stopped,mouse_3.x,mouse_3.y,mouse_3.leftButton,mouse_3.midButton,mouse_3.rightButton,catchresponse,catchnumber,response_time_catch,response_sum.started,response_sum.stopped,mouse_11.x,mouse_11.y,mouse_11.leftButton,mouse_11.midButton,mouse_11.rightButton,flip_presentation_sequence_for_double_pass.started,flip_presentation_sequence_for_double_pass.stopped,goodbye.started,goodbye.stopped,key_resp_3.keys,key_resp_3.rt,key_resp_3.duration
9.99999E-05,0.0002,5eadaff848b26f4483ae62d9,2026-03-17_10h23.22.600,kallum_motion_pilot_GIST_update_2,2026.1.1,MacIntel,59.88023952,5eadaff848b26f4483ae62d9,69b92ab4aef6dee357cd729a,69b92b4f3451cb7dd99fc9e9,,,,,,,,,,,,,,,,,,,,,,,,,,,,,,,,,,,,,,,,,,,,,,,,,,,,,,,,,,,,,,,,,,,,,,,,,,,,,,,,,,,,,,,,,,,,,,,,,,,,,,,,,,,,,,,,,,,,,,,,,,,,,,,,,,,,,,,,,,,,,,,,,
,,5eadaff848b26f4483ae62d9,2026-03-17_10h23.22.600,kallum_motion_pilot_GIST_update_2,2026.1.1,MacIntel,59.88023952,5eadaff848b26f4483ae62d9,69b92ab4aef6dee357cd729a,69b92b4f3451cb7dd99fc9e9,0.0102,0.0102,0,0,0,149,1,seveneight,,,,,,,,,,,,,,,,,,,,,,,,,,,,,,,,,,,,,,,,,,,,,,,,,,,,,,,,,,,,,,,,,,,,,,,,,,,,,,,,,,,,,,,,,,,,,,,,,,,,,,,,,,,,,,,,,,,,,,,,,,,,,,,,,,,,,,,,,
,,5eadaff848b26f4483ae62d9,2026-03-17_10h23.22.600,kallum_motion_pilot_GIST_update_2,2026.1.1,MacIntel,59.88023952,5eadaff848b26f4483ae62d9,69b92ab4aef6dee357cd729a,69b92b4f3451cb7dd99fc9e9,0.0104,0.0104,0,1,1,28,1,threeone,,,,,,,,,,,,,,,,,,,,,,,,,,,,,,,,,,,,,,,,,,,,,,,,,,,,,,,,,,,,,,,,,,,,,,,,,,,,,,,,,,,,,,,,,,,,,,,,,,,,,,,,,,,,,,,,,,,,,,,,,,,,,,,,,,,,,,,,,
,,5eadaff848b26f4483ae62d9,2026-03-17_10h23.22.600,kallum_motion_pilot_GIST_update_2,2026.1.1,MacIntel,59.88023952,5eadaff848b26f4483ae62d9,69b92ab4aef6dee357cd729a,69b92b4f3451cb7dd99fc9e9,0.0104,0.0104,0,2,2,132,1,sevenfive,,,,,,,,,,,,,,,,,,,,,,,,,,,,,,,,,,,,,,,,,,,,,,,,,,,,,,,,,,,,,,,,,,,,,,,,,,,,,,,,,,,,,,,,,,,,,,,,,,,,,,,,,,,,,,,,,,,,,,,,,,,,,,,,,,,,,,,,,
,,5eadaff848b26f4483ae62d9,2026-03-17_10h23.22.600,kallum_motion_pilot_GIST_update_2,2026.1.1,MacIntel,59.88023952,5eadaff848b26f4483ae62d9,69b92ab4aef6dee357cd729a,69b92b4f3451cb7dd99fc9e9,0.0105,0.0105,0,3,3,54,1,fourtwo,,,,,,,,,,,,,,,,,,,,,,,,,,,,,,,,,,,,,,,,,,,,,,,,,,,,,,,,,,,,,,,,,,,,,,,,,,,,,,,,,,,,,,,,,,,,,,,,,,,,,,,,,,,,,,,,,,,,,,,,,,,,,,,,,,,,,,,,,
,,5eadaff848b26f4483ae62d9,2026-03-17_10h23.22.600,kallum_motion_pilot_GIST_update_2,2026.1.1,MacIntel,59.88023952,5eadaff848b26f4483ae62d9,69b92ab4aef6dee357cd729a,69b92b4f3451cb7dd99fc9e9,0.0105,0.0105,0,4,4,106,1,sixfive,,,,,,,,,,,,,,,,,,,,,,,,,,,,,,,,,,,,,,,,,,,,,,,,,,,,,,,,,,,,,,,,,,,,,,,,,,,,,,,,,,,,,,,,,,,,,,,,,,,,,,,,,,,,,,,,,,,,,,,,,,,,,,,,,,,,,,,,,
,,5eadaff848b26f4483ae62d9,2026-03-17_10h23.22.600,kallum_motion_pilot_GIST_update_2,2026.1.1,MacIntel,59.88023952,5eadaff848b26f4483ae62d9,69b92ab4aef6dee357cd729a,69b92b4f3451cb7dd99fc9e9,0.0106,0.0106,0,5,5,62,1,fourtwo,,,,,,,,,,,,,,,,,,,,,,,,,,,,,,,,,,,,,,,,,,,,,,,,,,,,,,,,,,,,,,,,,,,,,,,,,,,,,,,,,,,,,,,,,,,,,,,,,,,,,,,,,,,,,,,,,,,,,,,,,,,,,,,,,,,,,,,,,
,,5eadaff848b26f4483ae62d9,2026-03-17_10h23.22.600,kallum_motion_pilot_GIST_update_2,2026.1.1,MacIntel,59.88023952,5eadaff848b26f4483ae62d9,69b92ab4aef6dee357cd729a,69b92b4f3451cb7dd99fc9e9,0.0106,0.0106,0,6,6,53,1,threefour,,,,,,,,,,,,,,,,,,,,,,,,,,,,,,,,,,,,,,,,,,,,,,,,,,,,,,,,,,,,,,,,,,,,,,,,,,,,,,,,,,,,,,,,,,,,,,,,,,,,,,,,,,,,,,,,,,,,,,,,,,,,,,,,,,,,,,,,,
,,5eadaff848b26f4483ae62d9,2026-03-17_10h23.22.600,kallum_motion_pilot_GIST_update_2,2026.1.1,MacIntel,59.88023952,5eadaff848b26f4483ae62d9,69b92ab4aef6dee357cd729a,69b92b4f3451cb7dd99fc9e9,0.0107,0.0107,0,7,7,38,1,fourtwo,,,,,,,,,,,,,,,,,,,,,,,,,,,,,,,,,,,,,,,,,,,,,,,,,,,,,,,,,,,,,,,,,,,,,,,,,,,,,,,,,,,,,,,,,,,,,,,,,,,,,,,,,,,,,,,,,,,,,,,,,,,,,,,,,,,,,,,,,
,,5eadaff848b26f4483ae62d9,2026-03-17_10h23.22.600,kallum_motion_pilot_GIST_update_2,2026.1.1,MacIntel,59.88023952,5eadaff848b26f4483ae62d9,69b92ab4aef6dee357cd729a,69b92b4f3451cb7dd99fc9e9,0.0107,0.0107,0,8,8,65,1,onethree,,,,,,,,,,,,,,,,,,,,,,,,,,,,,,,,,,,,,,,,,,,,,,,,,,,,,,,,,,,,,,,,,,,,,,,,,,,,,,,,,,,,,,,,,,,,,,,,,,,,,,,,,,,,,,,,,,,,,,,,,,,,,,,,,,,,,,,,,
,,5eadaff848b26f4483ae62d9,2026-03-17_10h23.22.600,kallum_motion_pilot_GIST_update_2,2026.1.1,MacIntel,59.88023952,5eadaff848b26f4483ae62d9,69b92ab4aef6dee357cd729a,69b92b4f3451cb7dd99fc9e9,0.0108,0.0108,0,9,9,29,1,threefour,,,,,,,,,,,,,,,,,,,,,,,,,,,,,,,,,,,,,,,,,,,,,,,,,,,,,,,,,,,,,,,,,,,,,,,,,,,,,,,,,,,,,,,,,,,,,,,,,,,,,,,,,,,,,,,,,,,,,,,,,,,,,,,,,,,,,,,,,
,,5eadaff848b26f4483ae62d9,2026-03-17_10h23.22.600,kallum_motion_pilot_GIST_update_2,2026.1.1,MacIntel,59.88023952,5eadaff848b26f4483ae62d9,69b92ab4aef6dee357cd729a,69b92b4f3451cb7dd99fc9e9,0.0108,0.0108,0,10,10,12,1,threeone,,,,,,,,,,,,,,,,,,,,,,,,,,,,,,,,,,,,,,,,,,,,,,,,,,,,,,,,,,,,,,,,,,,,,,,,,,,,,,,,,,,,,,,,,,,,,,,,,,,,,,,,,,,,,,,,,,,,,,,,,,,,,,,,,,,,,,,,,
,,5eadaff848b26f4483ae62d9,2026-03-17_10h23.22.600,kallum_motion_pilot_GIST_update_2,2026.1.1,MacIntel,59.88023952,5eadaff848b26f4483ae62d9,69b92ab4aef6dee357cd729a,69b92b4f3451cb7dd99fc9e9,0.0108,0.0108,0,11,11,15,1,fourthree,,,,,,,,,,,,,,,,,,,,,,,,,,,,,,,,,,,,,,,,,,,,,,,,,,,,,,,,,,,,,,,,,,,,,,,,,,,,,,,,,,,,,,,,,,,,,,,,,,,,,,,,,,,,,,,,,,,,,,,,,,,,,,,,,,,,,,,,,
,,5eadaff848b26f4483ae62d9,2026-03-17_10h23.22.600,kallum_motion_pilot_GIST_update_2,2026.1.1,MacIntel,59.88023952,5eadaff848b26f4483ae62d9,69b92ab4aef6dee357cd729a,69b92b4f3451cb7dd99fc9e9,0.0109,0.0109,0,12,12,77,1,threefour,,,,,,,,,,,,,,,,,,,,,,,,,,,,,,,,,,,,,,,,,,,,,,,,,,,,,,,,,,,,,,,,,,,,,,,,,,,,,,,,,,,,,,,,,,,,,,,,,,,,,,,,,,,,,,,,,,,,,,,,,,,,,,,,,,,,,,,,,
,,5eadaff848b26f4483ae62d9,2026-03-17_10h23.22.600,kallum_motion_pilot_GIST_update_2,2026.1.1,MacIntel,59.88023952,5eadaff848b26f4483ae62d9,69b92ab4aef6dee357cd729a,69b92b4f3451cb7dd99fc9e9,0.0109,0.0109,0,13,13,50,1,twoone,,,,,,,,,,,,,,,,,,,,,,,,,,,,,,,,,,,,,,,,,,,,,,,,,,,,,,,,,,,,,,,,,,,,,,,,,,,,,,,,,,,,,,,,,,,,,,,,,,,,,,,,,,,,,,,,,,,,,,,,,,,,,,,,,,,,,,,,,
,,5eadaff848b26f4483ae62d9,2026-03-17_10h23.22.600,kallum_motion_pilot_GIST_update_2,2026.1.1,MacIntel,59.88023952,5eadaff848b26f4483ae62d9,69b92ab4aef6dee357cd729a,69b92b4f3451cb7dd99fc9e9,0.011,0.011,0,14,14,17,1,onethree,,,,,,,,,,,,,,,,,,,,,,,,,,,,,,,,,,,,,,,,,,,,,,,,,,,,,,,,,,,,,,,,,,,,,,,,,,,,,,,,,,,,,,,,,,,,,,,,,,,,,,,,,,,,,,,,,,,,,,,,,,,,,,,,,,,,,,,,,
,,5eadaff848b26f4483ae62d9,2026-03-17_10h23.22.600,kallum_motion_pilot_GIST_update_2,2026.1.1,MacIntel,59.88023952,5eadaff848b26f4483ae62d9,69b92ab4aef6dee357cd729a,69b92b4f3451cb7dd99fc9e9,0.011,0.011,0,15,15,75,1,twofour,,,,,,,,,,,,,,,,,,,,,,,,,,,,,,,,,,,,,,,,,,,,,,,,,,,,,,,,,,,,,,,,,,,,,,,,,,,,,,,,,,,,,,,,,,,,,,,,,,,,,,,,,,,,,,,,,,,,,,,,,,,,,,,,,,,,,,,,,
,,5eadaff848b26f4483ae62d9,2026-03-17_10h23.22.600,kallum_motion_pilot_GIST_update_2,2026.1.1,MacIntel,59.88023952,5eadaff848b26f4483ae62d9,69b92ab4aef6dee357cd729a,69b92b4f3451cb7dd99fc9e9,0.0111,0.0111,0,16,16,6,1,fourtwo,,,,,,,,,,,,,,,,,,,,,,,,,,,,,,,,,,,,,,,,,,,,,,,,,,,,,,,,,,,,,,,,,,,,,,,,,,,,,,,,,,,,,,,,,,,,,,,,,,,,,,,,,,,,,,,,,,,,,,,,,,,,,,,,,,,,,,,,,
,,5eadaff848b26f4483ae62d9,2026-03-17_10h23.22.600,kallum_motion_pilot_GIST_update_2,2026.1.1,MacIntel,59.88023952,5eadaff848b26f4483ae62d9,69b92ab4aef6dee357cd729a,69b92b4f3451cb7dd99fc9e9,0.0111,0.0111,0,17,17,58,1,twoone,,,,,,,,,,,,,,,,,,,,,,,,,,,,,,,,,,,,,,,,,,,,,,,,,,,,,,,,,,,,,,,,,,,,,,,,,,,,,,,,,,,,,,,,,,,,,,,,,,,,,,,,,,,,,,,,,,,,,,,,,,,,,,,,,,,,,,,,,
,,5eadaff848b26f4483ae62d9,2026-03-17_10h23.22.600,kallum_motion_pilot_GIST_update_2,2026.1.1,MacIntel,59.88023952,5eadaff848b26f4483ae62d9,69b92ab4aef6dee357cd729a,69b92b4f3451cb7dd99fc9e9,0.0111,0.0111,0,18,18,72,1,onetwo,,,,,,,,,,,,,,,,,,,,,,,,,,,,,,,,,,,,,,,,,,,,,,,,,,,,,,,,,,,,,,,,,,,,,,,,,,,,,,,,,,,,,,,,,,,,,,,,,,,,,,,,,,,,,,,,,,,,,,,,,,,,,,,,,,,,,,,,,
,,5eadaff848b26f4483ae62d9,2026-03-17_10h23.22.600,kallum_motion_pilot_GIST_update_2,2026.1.1,MacIntel,59.88023952,5eadaff848b26f4483ae62d9,69b92ab4aef6dee357cd729a,69b92b4f3451cb7dd99fc9e9,0.0111,0.0111,0,19,19,69,1,threefour,,,,,,,,,,,,,,,,,,,,,,,,,,,,,,,,,,,,,,,,,,,,,,,,,,,,,,,,,,,,,,,,,,,,,,,,,,,,,,,,,,,,,,,,,,,,,,,,,,,,,,,,,,,,,,,,,,,,,,,,,,,,,,,,,,,,,,,,,
,,5eadaff848b26f4483ae62d9,2026-03-17_10h23.22.600,kallum_motion_pilot_GIST_update_2,2026.1.1,MacIntel,59.88023952,5eadaff848b26f4483ae62d9,69b92ab4aef6dee357cd729a,69b92b4f3451cb7dd99fc9e9,0.0111,0.0111,0,20,20,81,1,fiveseven,,,,,,,,,,,,,,,,,,,,,,,,,,,,,,,,,,,,,,,,,,,,,,,,,,,,,,,,,,,,,,,,,,,,,,,,,,,,,,,,,,,,,,,,,,,,,,,,,,,,,,,,,,,,,,,,,,,,,,,,,,,,,,,,,,,,,,,,,
,,5eadaff848b26f4483ae62d9,2026-03-17_10h23.22.600,kallum_motion_pilot_GIST_update_2,2026.1.1,MacIntel,59.88023952,5eadaff848b26f4483ae62d9,69b92ab4aef6dee357cd729a,69b92b4f3451cb7dd99fc9e9,0.0112,0.0112,0,21,21,78,1,fourtwo,,,,,,,,,,,,,,,,,,,,,,,,,,,,,,,,,,,,,,,,,,,,,,,,,,,,,,,,,,,,,,,,,,,,,,,,,,,,,,,,,,,,,,,,,,,,,,,,,,,,,,,,,,,,,,,,,,,,,,,,,,,,,,,,,,,,,,,,,
,,5eadaff848b26f4483ae62d9,2026-03-17_10h23.22.600,kallum_motion_pilot_GIST_update_2,2026.1.1,MacIntel,59.88023952,5eadaff848b26f4483ae62d9,69b92ab4aef6dee357cd729a,69b92b4f3451cb7dd99fc9e9,0.0112,0.0112,0,22,22,73,1,onethree,,,,,,,,,,,,,,,,,,,,,,,,,,,,,,,,,,,,,,,,,,,,,,,,,,,,,,,,,,,,,,,,,,,,,,,,,,,,,,,,,,,,,,,,,,,,,,,,,,,,,,,,,,,,,,,,,,,,,,,,,,,,,,,,,,,,,,,,,
,,5eadaff848b26f4483ae62d9,2026-03-17_10h23.22.600,kallum_motion_pilot_GIST_update_2,2026.1.1,MacIntel,59.88023952,5eadaff848b26f4483ae62d9,69b92ab4aef6dee357cd729a,69b92b4f3451cb7dd99fc9e9,0.0112,0.0112,0,23,23,129,1,fiveseven,,,,,,,,,,,,,,,,,,,,,,,,,,,,,,,,,,,,,,,,,,,,,,,,,,,,,,,,,,,,,,,,,,,,,,,,,,,,,,,,,,,,,,,,,,,,,,,,,,,,,,,,,,,,,,,,,,,,,,,,,,,,,,,,,,,,,,,,,
,,5eadaff848b26f4483ae62d9,2026-03-17_10h23.22.600,kallum_motion_pilot_GIST_update_2,2026.1.1,MacIntel,59.88023952,5eadaff848b26f4483ae62d9,69b92ab4aef6dee357cd729a,69b92b4f3451cb7dd99fc9e9,0.0113,0.0113,0,24,24,20,1,threeone,,,,,,,,,,,,,,,,,,,,,,,,,,,,,,,,,,,,,,,,,,,,,,,,,,,,,,,,,,,,,,,,,,,,,,,,,,,,,,,,,,,,,,,,,,,,,,,,,,,,,,,,,,,,,,,,,,,,,,,,,,,,,,,,,,,,,,,,,
,,5eadaff848b26f4483ae62d9,2026-03-17_10h23.22.600,kallum_motion_pilot_GIST_update_2,2026.1.1,MacIntel,59.88023952,5eadaff848b26f4483ae62d9,69b92ab4aef6dee357cd729a,69b92b4f3451cb7dd99fc9e9,0.0114,0.0114,0,25,25,100,1,sevenfive,,,,,,,,,,,,,,,,,,,,,,,,,,,,,,,,,,,,,,,,,,,,,,,,,,,,,,,,,,,,,,,,,,,,,,,,,,,,,,,,,,,,,,,,,,,,,,,,,,,,,,,,,,,,,,,,,,,,,,,,,,,,,,,,,,,,,,,,,
,,5eadaff848b26f4483ae62d9,2026-03-17_10h23.22.600,kallum_motion_pilot_GIST_update_2,2026.1.1,MacIntel,59.88023952,5eadaff848b26f4483ae62d9,69b92ab4aef6dee357cd729a,69b92b4f3451cb7dd99fc9e9,0.0114,0.0114,0,26,26,31,1,fourthree,,,,,,,,,,,,,,,,,,,,,,,,,,,,,,,,,,,,,,,,,,,,,,,,,,,,,,,,,,,,,,,,,,,,,,,,,,,,,,,,,,,,,,,,,,,,,,,,,,,,,,,,,,,,,,,,,,,,,,,,,,,,,,,,,,,,,,,,,
,,5eadaff848b26f4483ae62d9,2026-03-17_10h23.22.600,kallum_motion_pilot_GIST_update_2,2026.1.1,MacIntel,59.88023952,5eadaff848b26f4483ae62d9,69b92ab4aef6dee357cd729a,69b92b4f3451cb7dd99fc9e9,0.0114,0.0114,0,27,27,52,1,threeone,,,,,,,,,,,,,,,,,,,,,,,,,,,,,,,,,,,,,,,,,,,,,,,,,,,,,,,,,,,,,,,,,,,,,,,,,,,,,,,,,,,,,,,,,,,,,,,,,,,,,,,,,,,,,,,,,,,,,,,,,,,,,,,,,,,,,,,,,
,,5eadaff848b26f4483ae62d9,2026-03-17_10h23.22.600,kallum_motion_pilot_GIST_update_2,2026.1.1,MacIntel,59.88023952,5eadaff848b26f4483ae62d9,69b92ab4aef6dee357cd729a,69b92b4f3451cb7dd99fc9e9,0.0114,0.0114,0,28,28,91,1,sixeight,,,,,,,,,,,,,,,,,,,,,,,,,,,,,,,,,,,,,,,,,,,,,,,,,,,,,,,,,,,,,,,,,,,,,,,,,,,,,,,,,,,,,,,,,,,,,,,,,,,,,,,,,,,,,,,,,,,,,,,,,,,,,,,,,,,,,,,,,
,,5eadaff848b26f4483ae62d9,2026-03-17_10h23.22.600,kallum_motion_pilot_GIST_update_2,2026.1.1,MacIntel,59.88023952,5eadaff848b26f4483ae62d9,69b92ab4aef6dee357cd729a,69b92b4f3451cb7dd99fc9e9,0.0114,0.0114,0,29,29,51,1,twofour,,,,,,,,,,,,,,,,,,,,,,,,,,,,,,,,,,,,,,,,,,,,,,,,,,,,,,,,,,,,,,,,,,,,,,,,,,,,,,,,,,,,,,,,,,,,,,,,,,,,,,,,,,,,,,,,,,,,,,,,,,,,,,,,,,,,,,,,,
,,5eadaff848b26f4483ae62d9,2026-03-17_10h23.22.600,kallum_motion_pilot_GIST_update_2,2026.1.1,MacIntel,59.88023952,5eadaff848b26f4483ae62d9,69b92ab4aef6dee357cd729a,69b92b4f3451cb7dd99fc9e9,0.0115,0.0115,0,30,30,7,1,fourthree,,,,,,,,,,,,,,,,,,,,,,,,,,,,,,,,,,,,,,,,,,,,,,,,,,,,,,,,,,,,,,,,,,,,,,,,,,,,,,,,,,,,,,,,,,,,,,,,,,,,,,,,,,,,,,,,,,,,,,,,,,,,,,,,,,,,,,,,,
,,5eadaff848b26f4483ae62d9,2026-03-17_10h23.22.600,kallum_motion_pilot_GIST_update_2,2026.1.1,MacIntel,59.88023952,5eadaff848b26f4483ae62d9,69b92ab4aef6dee357cd729a,69b92b4f3451cb7dd99fc9e9,0.0115,0.0115,0,31,31,110,1,eightsix,,,,,,,,,,,,,,,,,,,,,,,,,,,,,,,,,,,,,,,,,,,,,,,,,,,,,,,,,,,,,,,,,,,,,,,,,,,,,,,,,,,,,,,,,,,,,,,,,,,,,,,,,,,,,,,,,,,,,,,,,,,,,,,,,,,,,,,,,
,,5eadaff848b26f4483ae62d9,2026-03-17_10h23.22.600,kallum_motion_pilot_GIST_update_2,2026.1.1,MacIntel,59.88023952,5eadaff848b26f4483ae62d9,69b92ab4aef6dee357cd729a,69b92b4f3451cb7dd99fc9e9,0.0116,0.0116,0,32,32,84,1,sevenfive,,,,,,,,,,,,,,,,,,,,,,,,,,,,,,,,,,,,,,,,,,,,,,,,,,,,,,,,,,,,,,,,,,,,,,,,,,,,,,,,,,,,,,,,,,,,,,,,,,,,,,,,,,,,,,,,,,,,,,,,,,,,,,,,,,,,,,,,,
,,5eadaff848b26f4483ae62d9,2026-03-17_10h23.22.600,kallum_motion_pilot_GIST_update_2,2026.1.1,MacIntel,59.88023952,5eadaff848b26f4483ae62d9,69b92ab4aef6dee357cd729a,69b92b4f3451cb7dd99fc9e9,0.0116,0.0116,0,33,33,25,1,onethree,,,,,,,,,,,,,,,,,,,,,,,,,,,,,,,,,,,,,,,,,,,,,,,,,,,,,,,,,,,,,,,,,,,,,,,,,,,,,,,,,,,,,,,,,,,,,,,,,,,,,,,,,,,,,,,,,,,,,,,,,,,,,,,,,,,,,,,,,
,,5eadaff848b26f4483ae62d9,2026-03-17_10h23.22.600,kallum_motion_pilot_GIST_update_2,2026.1.1,MacIntel,59.88023952,5eadaff848b26f4483ae62d9,69b92ab4aef6dee357cd729a,69b92b4f3451cb7dd99fc9e9,0.0116,0.0116,0,34,34,105,1,fiveseven,,,,,,,,,,,,,,,,,,,,,,,,,,,,,,,,,,,,,,,,,,,,,,,,,,,,,,,,,,,,,,,,,,,,,,,,,,,,,,,,,,,,,,,,,,,,,,,,,,,,,,,,,,,,,,,,,,,,,,,,,,,,,,,,,,,,,,,,,
,,5eadaff848b26f4483ae62d9,2026-03-17_10h23.22.600,kallum_motion_pilot_GIST_update_2,2026.1.1,MacIntel,59.88023952,5eadaff848b26f4483ae62d9,69b92ab4aef6dee357cd729a,69b92b4f3451cb7dd99fc9e9,0.0117,0.0117,0,35,35,99,1,sixeight,,,,,,,,,,,,,,,,,,,,,,,,,,,,,,,,,,,,,,,,,,,,,,,,,,,,,,,,,,,,,,,,,,,,,,,,,,,,,,,,,,,,,,,,,,,,,,,,,,,,,,,,,,,,,,,,,,,,,,,,,,,,,,,,,,,,,,,,,
,,5eadaff848b26f4483ae62d9,2026-03-17_10h23.22.600,kallum_motion_pilot_GIST_update_2,2026.1.1,MacIntel,59.88023952,5eadaff848b26f4483ae62d9,69b92ab4aef6dee357cd729a,69b92b4f3451cb7dd99fc9e9,0.0117,0.0117,0,36,36,71,1,fourthree,,,,,,,,,,,,,,,,,,,,,,,,,,,,,,,,,,,,,,,,,,,,,,,,,,,,,,,,,,,,,,,,,,,,,,,,,,,,,,,,,,,,,,,,,,,,,,,,,,,,,,,,,,,,,,,,,,,,,,,,,,,,,,,,,,,,,,,,,
,,5eadaff848b26f4483ae62d9,2026-03-17_10h23.22.600,kallum_motion_pilot_GIST_update_2,2026.1.1,MacIntel,59.88023952,5eadaff848b26f4483ae62d9,69b92ab4aef6dee357cd729a,69b92b4f3451cb7dd99fc9e9,0.0117,0.0117,0,37,37,57,1,onethree,,,,,,,,,,,,,,,,,,,,,,,,,,,,,,,,,,,,,,,,,,,,,,,,,,,,,,,,,,,,,,,,,,,,,,,,,,,,,,,,,,,,,,,,,,,,,,,,,,,,,,,,,,,,,,,,,,,,,,,,,,,,,,,,,,,,,,,,,
,,5eadaff848b26f4483ae62d9,2026-03-17_10h23.22.600,kallum_motion_pilot_GIST_update_2,2026.1.1,MacIntel,59.88023952,5eadaff848b26f4483ae62d9,69b92ab4aef6dee357cd729a,69b92b4f3451cb7dd99fc9e9,0.0118,0.0118,0,38,38,111,1,eightseven,,,,,,,,,,,,,,,,,,,,,,,,,,,,,,,,,,,,,,,,,,,,,,,,,,,,,,,,,,,,,,,,,,,,,,,,,,,,,,,,,,,,,,,,,,,,,,,,,,,,,,,,,,,,,,,,,,,,,,,,,,,,,,,,,,,,,,,,,
,,5eadaff848b26f4483ae62d9,2026-03-17_10h23.22.600,kallum_motion_pilot_GIST_update_2,2026.1.1,MacIntel,59.88023952,5eadaff848b26f4483ae62d9,69b92ab4aef6dee357cd729a,69b92b4f3451cb7dd99fc9e9,0.0118,0.0118,0,39,39,121,1,fiveseven,,,,,,,,,,,,,,,,,,,,,,,,,,,,,,,,,,,,,,,,,,,,,,,,,,,,,,,,,,,,,,,,,,,,,,,,,,,,,,,,,,,,,,,,,,,,,,,,,,,,,,,,,,,,,,,,,,,,,,,,,,,,,,,,,,,,,,,,,
,,5eadaff848b26f4483ae62d9,2026-03-17_10h23.22.600,kallum_motion_pilot_GIST_update_2,2026.1.1,MacIntel,59.88023952,5eadaff848b26f4483ae62d9,69b92ab4aef6dee357cd729a,69b92b4f3451cb7dd99fc9e9,0.0118,0.0118,0,40,40,67,1,twofour,,,,,,,,,,,,,,,,,,,,,,,,,,,,,,,,,,,,,,,,,,,,,,,,,,,,,,,,,,,,,,,,,,,,,,,,,,,,,,,,,,,,,,,,,,,,,,,,,,,,,,,,,,,,,,,,,,,,,,,,,,,,,,,,,,,,,,,,,
,,5eadaff848b26f4483ae62d9,2026-03-17_10h23.22.600,kallum_motion_pilot_GIST_update_2,2026.1.1,MacIntel,59.88023952,5eadaff848b26f4483ae62d9,69b92ab4aef6dee357cd729a,69b92b4f3451cb7dd99fc9e9,0.0119,0.0119,0,41,41,107,1,sixeight,,,,,,,,,,,,,,,,,,,,,,,,,,,,,,,,,,,,,,,,,,,,,,,,,,,,,,,,,,,,,,,,,,,,,,,,,,,,,,,,,,,,,,,,,,,,,,,,,,,,,,,,,,,,,,,,,,,,,,,,,,,,,,,,,,,,,,,,,
,,5eadaff848b26f4483ae62d9,2026-03-17_10h23.22.600,kallum_motion_pilot_GIST_update_2,2026.1.1,MacIntel,59.88023952,5eadaff848b26f4483ae62d9,69b92ab4aef6dee357cd729a,69b92b4f3451cb7dd99fc9e9,0.0119,0.0119,0,42,42,18,1,twoone,,,,,,,,,,,,,,,,,,,,,,,,,,,,,,,,,,,,,,,,,,,,,,,,,,,,,,,,,,,,,,,,,,,,,,,,,,,,,,,,,,,,,,,,,,,,,,,,,,,,,,,,,,,,,,,,,,,,,,,,,,,,,,,,,,,,,,,,,
,,5eadaff848b26f4483ae62d9,2026-03-17_10h23.22.600,kallum_motion_pilot_GIST_update_2,2026.1.1,MacIntel,59.88023952,5eadaff848b26f4483ae62d9,69b92ab4aef6dee357cd729a,69b92b4f3451cb7dd99fc9e9,0.012,0.012,0,43,43,92,1,sevenfive,,,,,,,,,,,,,,,,,,,,,,,,,,,,,,,,,,,,,,,,,,,,,,,,,,,,,,,,,,,,,,,,,,,,,,,,,,,,,,,,,,,,,,,,,,,,,,,,,,,,,,,,,,,,,,,,,,,,,,,,,,,,,,,,,,,,,,,,,
,,5eadaff848b26f4483ae62d9,2026-03-17_10h23.22.600,kallum_motion_pilot_GIST_update_2,2026.1.1,MacIntel,59.88023952,5eadaff848b26f4483ae62d9,69b92ab4aef6dee357cd729a,69b92b4f3451cb7dd99fc9e9,0.012,0.012,0,44,44,0,1,onetwo,,,,,,,,,,,,,,,,,,,,,,,,,,,,,,,,,,,,,,,,,,,,,,,,,,,,,,,,,,,,,,,,,,,,,,,,,,,,,,,,,,,,,,,,,,,,,,,,,,,,,,,,,,,,,,,,,,,,,,,,,,,,,,,,,,,,,,,,,
,,5eadaff848b26f4483ae62d9,2026-03-17_10h23.22.600,kallum_motion_pilot_GIST_update_2,2026.1.1,MacIntel,59.88023952,5eadaff848b26f4483ae62d9,69b92ab4aef6dee357cd729a,69b92b4f3451cb7dd99fc9e9,0.012,0.012,0,45,45,95,1,eightseven,,,,,,,,,,,,,,,,,,,,,,,,,,,,,,,,,,,,,,,,,,,,,,,,,,,,,,,,,,,,,,,,,,,,,,,,,,,,,,,,,,,,,,,,,,,,,,,,,,,,,,,,,,,,,,,,,,,,,,,,,,,,,,,,,,,,,,,,,
,,5eadaff848b26f4483ae62d9,2026-03-17_10h23.22.600,kallum_motion_pilot_GIST_update_2,2026.1.1,MacIntel,59.88023952,5eadaff848b26f4483ae62d9,69b92ab4aef6dee357cd729a,69b92b4f3451cb7dd99fc9e9,0.012,0.0121,0,46,46,11,1,twofour,,,,,,,,,,,,,,,,,,,,,,,,,,,,,,,,,,,,,,,,,,,,,,,,,,,,,,,,,,,,,,,,,,,,,,,,,,,,,,,,,,,,,,,,,,,,,,,,,,,,,,,,,,,,,,,,,,,,,,,,,,,,,,,,,,,,,,,,,
,,5eadaff848b26f4483ae62d9,2026-03-17_10h23.22.600,kallum_motion_pilot_GIST_update_2,2026.1.1,MacIntel,59.88023952,5eadaff848b26f4483ae62d9,69b92ab4aef6dee357cd729a,69b92b4f3451cb7dd99fc9e9,0.0121,0.0121,0,47,47,40,1,onetwo,,,,,,,,,,,,,,,,,,,,,,,,,,,,,,,,,,,,,,,,,,,,,,,,,,,,,,,,,,,,,,,,,,,,,,,,,,,,,,,,,,,,,,,,,,,,,,,,,,,,,,,,,,,,,,,,,,,,,,,,,,,,,,,,,,,,,,,,,
,,5eadaff848b26f4483ae62d9,2026-03-17_10h23.22.600,kallum_motion_pilot_GIST_update_2,2026.1.1,MacIntel,59.88023952,5eadaff848b26f4483ae62d9,69b92ab4aef6dee357cd729a,69b92b4f3451cb7dd99fc9e9,0.0121,0.0121,0,48,48,161,1,fiveseven,,,,,,,,,,,,,,,,,,,,,,,,,,,,,,,,,,,,,,,,,,,,,,,,,,,,,,,,,,,,,,,,,,,,,,,,,,,,,,,,,,,,,,,,,,,,,,,,,,,,,,,,,,,,,,,,,,,,,,,,,,,,,,,,,,,,,,,,,
,,5eadaff848b26f4483ae62d9,2026-03-17_10h23.22.600,kallum_motion_pilot_GIST_update_2,2026.1.1,MacIntel,59.88023952,5eadaff848b26f4483ae62d9,69b92ab4aef6dee357cd729a,69b92b4f3451cb7dd99fc9e9,0.0122,0.0122,0,49,49,94,1,eightsix,,,,,,,,,,,,,,,,,,,,,,,,,,,,,,,,,,,,,,,,,,,,,,,,,,,,,,,,,,,,,,,,,,,,,,,,,,,,,,,,,,,,,,,,,,,,,,,,,,,,,,,,,,,,,,,,,,,,,,,,,,,,,,,,,,,,,,,,,
,,5eadaff848b26f4483ae62d9,2026-03-17_10h23.22.600,kallum_motion_pilot_GIST_update_2,2026.1.1,MacIntel,59.88023952,5eadaff848b26f4483ae62d9,69b92ab4aef6dee357cd729a,69b92b4f3451cb7dd99fc9e9,0.0122,0.0122,0,50,50,26,1,twoone,,,,,,,,,,,,,,,,,,,,,,,,,,,,,,,,,,,,,,,,,,,,,,,,,,,,,,,,,,,,,,,,,,,,,,,,,,,,,,,,,,,,,,,,,,,,,,,,,,,,,,,,,,,,,,,,,,,,,,,,,,,,,,,,,,,,,,,,,
,,5eadaff848b26f4483ae62d9,2026-03-17_10h23.22.600,kallum_motion_pilot_GIST_update_2,2026.1.1,MacIntel,59.88023952,5eadaff848b26f4483ae62d9,69b92ab4aef6dee357cd729a,69b92b4f3451cb7dd99fc9e9,0.0123,0.0123,0,51,51,42,1,twoone,,,,,,,,,,,,,,,,,,,,,,,,,,,,,,,,,,,,,,,,,,,,,,,,,,,,,,,,,,,,,,,,,,,,,,,,,,,,,,,,,,,,,,,,,,,,,,,,,,,,,,,,,,,,,,,,,,,,,,,,,,,,,,,,,,,,,,,,,
,,5eadaff848b26f4483ae62d9,2026-03-17_10h23.22.600,kallum_motion_pilot_GIST_update_2,2026.1.1,MacIntel,59.88023952,5eadaff848b26f4483ae62d9,69b92ab4aef6dee357cd729a,69b92b4f3451cb7dd99fc9e9,0.0123,0.0123,0,52,52,60,1,threeone,,,,,,,,,,,,,,,,,,,,,,,,,,,,,,,,,,,,,,,,,,,,,,,,,,,,,,,,,,,,,,,,,,,,,,,,,,,,,,,,,,,,,,,,,,,,,,,,,,,,,,,,,,,,,,,,,,,,,,,,,,,,,,,,,,,,,,,,,
,,5eadaff848b26f4483ae62d9,2026-03-17_10h23.22.600,kallum_motion_pilot_GIST_update_2,2026.1.1,MacIntel,59.88023952,5eadaff848b26f4483ae62d9,69b92ab4aef6dee357cd729a,69b92b4f3451cb7dd99fc9e9,0.0123,0.0123,0,53,53,5,1,threefour,,,,,,,,,,,,,,,,,,,,,,,,,,,,,,,,,,,,,,,,,,,,,,,,,,,,,,,,,,,,,,,,,,,,,,,,,,,,,,,,,,,,,,,,,,,,,,,,,,,,,,,,,,,,,,,,,,,,,,,,,,,,,,,,,,,,,,,,,
,,5eadaff848b26f4483ae62d9,2026-03-17_10h23.22.600,kallum_motion_pilot_GIST_update_2,2026.1.1,MacIntel,59.88023952,5eadaff848b26f4483ae62d9,69b92ab4aef6dee357cd729a,69b92b4f3451cb7dd99fc9e9,0.0124,0.0124,0,54,54,96,1,fivesix,,,,,,,,,,,,,,,,,,,,,,,,,,,,,,,,,,,,,,,,,,,,,,,,,,,,,,,,,,,,,,,,,,,,,,,,,,,,,,,,,,,,,,,,,,,,,,,,,,,,,,,,,,,,,,,,,,,,,,,,,,,,,,,,,,,,,,,,,
,,5eadaff848b26f4483ae62d9,2026-03-17_10h23.22.600,kallum_motion_pilot_GIST_update_2,2026.1.1,MacIntel,59.88023952,5eadaff848b26f4483ae62d9,69b92ab4aef6dee357cd729a,69b92b4f3451cb7dd99fc9e9,0.0124,0.0124,0,55,55,41,1,onethree,,,,,,,,,,,,,,,,,,,,,,,,,,,,,,,,,,,,,,,,,,,,,,,,,,,,,,,,,,,,,,,,,,,,,,,,,,,,,,,,,,,,,,,,,,,,,,,,,,,,,,,,,,,,,,,,,,,,,,,,,,,,,,,,,,,,,,,,,
,,5eadaff848b26f4483ae62d9,2026-03-17_10h23.22.600,kallum_motion_pilot_GIST_update_2,2026.1.1,MacIntel,59.88023952,5eadaff848b26f4483ae62d9,69b92ab4aef6dee357cd729a,69b92b4f3451cb7dd99fc9e9,0.0124,0.0124,0,56,56,98,1,sixfive,,,,,,,,,,,,,,,,,,,,,,,,,,,,,,,,,,,,,,,,,,,,,,,,,,,,,,,,,,,,,,,,,,,,,,,,,,,,,,,,,,,,,,,,,,,,,,,,,,,,,,,,,,,,,,,,,,,,,,,,,,,,,,,,,,,,,,,,,
,,5eadaff848b26f4483ae62d9,2026-03-17_10h23.22.600,kallum_motion_pilot_GIST_update_2,2026.1.1,MacIntel,59.88023952,5eadaff848b26f4483ae62d9,69b92ab4aef6dee357cd729a,69b92b4f3451cb7dd99fc9e9,0.0125,0.0125,0,57,57,126,1,eightsix,,,,,,,,,,,,,,,,,,,,,,,,,,,,,,,,,,,,,,,,,,,,,,,,,,,,,,,,,,,,,,,,,,,,,,,,,,,,,,,,,,,,,,,,,,,,,,,,,,,,,,,,,,,,,,,,,,,,,,,,,,,,,,,,,,,,,,,,,
,,5eadaff848b26f4483ae62d9,2026-03-17_10h23.22.600,kallum_motion_pilot_GIST_update_2,2026.1.1,MacIntel,59.88023952,5eadaff848b26f4483ae62d9,69b92ab4aef6dee357cd729a,69b92b4f3451cb7dd99fc9e9,0.0125,0.0125,0,58,58,142,1,eightsix,,,,,,,,,,,,,,,,,,,,,,,,,,,,,,,,,,,,,,,,,,,,,,,,,,,,,,,,,,,,,,,,,,,,,,,,,,,,,,,,,,,,,,,,,,,,,,,,,,,,,,,,,,,,,,,,,,,,,,,,,,,,,,,,,,,,,,,,,
,,5eadaff848b26f4483ae62d9,2026-03-17_10h23.22.600,kallum_motion_pilot_GIST_update_2,2026.1.1,MacIntel,59.88023952,5eadaff848b26f4483ae62d9,69b92ab4aef6dee357cd729a,69b92b4f3451cb7dd99fc9e9,0.0125,0.0125,0,59,59,125,1,seveneight,,,,,,,,,,,,,,,,,,,,,,,,,,,,,,,,,,,,,,,,,,,,,,,,,,,,,,,,,,,,,,,,,,,,,,,,,,,,,,,,,,,,,,,,,,,,,,,,,,,,,,,,,,,,,,,,,,,,,,,,,,,,,,,,,,,,,,,,,
,,5eadaff848b26f4483ae62d9,2026-03-17_10h23.22.600,kallum_motion_pilot_GIST_update_2,2026.1.1,MacIntel,59.88023952,5eadaff848b26f4483ae62d9,69b92ab4aef6dee357cd729a,69b92b4f3451cb7dd99fc9e9,0.0125,0.0125,0,60,60,113,1,fiveseven,,,,,,,,,,,,,,,,,,,,,,,,,,,,,,,,,,,,,,,,,,,,,,,,,,,,,,,,,,,,,,,,,,,,,,,,,,,,,,,,,,,,,,,,,,,,,,,,,,,,,,,,,,,,,,,,,,,,,,,,,,,,,,,,,,,,,,,,,
,,5eadaff848b26f4483ae62d9,2026-03-17_10h23.22.600,kallum_motion_pilot_GIST_update_2,2026.1.1,MacIntel,59.88023952,5eadaff848b26f4483ae62d9,69b92ab4aef6dee357cd729a,69b92b4f3451cb7dd99fc9e9,0.0127,0.0127,0,61,61,48,1,onetwo,,,,,,,,,,,,,,,,,,,,,,,,,,,,,,,,,,,,,,,,,,,,,,,,,,,,,,,,,,,,,,,,,,,,,,,,,,,,,,,,,,,,,,,,,,,,,,,,,,,,,,,,,,,,,,,,,,,,,,,,,,,,,,,,,,,,,,,,,
,,5eadaff848b26f4483ae62d9,2026-03-17_10h23.22.600,kallum_motion_pilot_GIST_update_2,2026.1.1,MacIntel,59.88023952,5eadaff848b26f4483ae62d9,69b92ab4aef6dee357cd729a,69b92b4f3451cb7dd99fc9e9,0.0127,0.0127,0,62,62,43,1,twofour,,,,,,,,,,,,,,,,,,,,,,,,,,,,,,,,,,,,,,,,,,,,,,,,,,,,,,,,,,,,,,,,,,,,,,,,,,,,,,,,,,,,,,,,,,,,,,,,,,,,,,,,,,,,,,,,,,,,,,,,,,,,,,,,,,,,,,,,,
,,5eadaff848b26f4483ae62d9,2026-03-17_10h23.22.600,kallum_motion_pilot_GIST_update_2,2026.1.1,MacIntel,59.88023952,5eadaff848b26f4483ae62d9,69b92ab4aef6dee357cd729a,69b92b4f3451cb7dd99fc9e9,0.0127,0.0127,0,63,63,63,1,fourthree,,,,,,,,,,,,,,,,,,,,,,,,,,,,,,,,,,,,,,,,,,,,,,,,,,,,,,,,,,,,,,,,,,,,,,,,,,,,,,,,,,,,,,,,,,,,,,,,,,,,,,,,,,,,,,,,,,,,,,,,,,,,,,,,,,,,,,,,,
,,5eadaff848b26f4483ae62d9,2026-03-17_10h23.22.600,kallum_motion_pilot_GIST_update_2,2026.1.1,MacIntel,59.88023952,5eadaff848b26f4483ae62d9,69b92ab4aef6dee357cd729a,69b92b4f3451cb7dd99fc9e9,0.0128,0.0128,0,64,64,87,1,eightseven,,,,,,,,,,,,,,,,,,,,,,,,,,,,,,,,,,,,,,,,,,,,,,,,,,,,,,,,,,,,,,,,,,,,,,,,,,,,,,,,,,,,,,,,,,,,,,,,,,,,,,,,,,,,,,,,,,,,,,,,,,,,,,,,,,,,,,,,,
,,5eadaff848b26f4483ae62d9,2026-03-17_10h23.22.600,kallum_motion_pilot_GIST_update_2,2026.1.1,MacIntel,59.88023952,5eadaff848b26f4483ae62d9,69b92ab4aef6dee357cd729a,69b92b4f3451cb7dd99fc9e9,0.0128,0.0128,0,65,65,32,1,onetwo,,,,,,,,,,,,,,,,,,,,,,,,,,,,,,,,,,,,,,,,,,,,,,,,,,,,,,,,,,,,,,,,,,,,,,,,,,,,,,,,,,,,,,,,,,,,,,,,,,,,,,,,,,,,,,,,,,,,,,,,,,,,,,,,,,,,,,,,,
,,5eadaff848b26f4483ae62d9,2026-03-17_10h23.22.600,kallum_motion_pilot_GIST_update_2,2026.1.1,MacIntel,59.88023952,5eadaff848b26f4483ae62d9,69b92ab4aef6dee357cd729a,69b92b4f3451cb7dd99fc9e9,0.0128,0.0128,0,66,66,46,1,fourtwo,,,,,,,,,,,,,,,,,,,,,,,,,,,,,,,,,,,,,,,,,,,,,,,,,,,,,,,,,,,,,,,,,,,,,,,,,,,,,,,,,,,,,,,,,,,,,,,,,,,,,,,,,,,,,,,,,,,,,,,,,,,,,,,,,,,,,,,,,
,,5eadaff848b26f4483ae62d9,2026-03-17_10h23.22.600,kallum_motion_pilot_GIST_update_2,2026.1.1,MacIntel,59.88023952,5eadaff848b26f4483ae62d9,69b92ab4aef6dee357cd729a,69b92b4f3451cb7dd99fc9e9,0.0129,0.0129,0,67,67,145,1,fiveseven,,,,,,,,,,,,,,,,,,,,,,,,,,,,,,,,,,,,,,,,,,,,,,,,,,,,,,,,,,,,,,,,,,,,,,,,,,,,,,,,,,,,,,,,,,,,,,,,,,,,,,,,,,,,,,,,,,,,,,,,,,,,,,,,,,,,,,,,,
,,5eadaff848b26f4483ae62d9,2026-03-17_10h23.22.600,kallum_motion_pilot_GIST_update_2,2026.1.1,MacIntel,59.88023952,5eadaff848b26f4483ae62d9,69b92ab4aef6dee357cd729a,69b92b4f3451cb7dd99fc9e9,0.0129,0.0129,0,68,68,21,1,threefour,,,,,,,,,,,,,,,,,,,,,,,,,,,,,,,,,,,,,,,,,,,,,,,,,,,,,,,,,,,,,,,,,,,,,,,,,,,,,,,,,,,,,,,,,,,,,,,,,,,,,,,,,,,,,,,,,,,,,,,,,,,,,,,,,,,,,,,,,
,,5eadaff848b26f4483ae62d9,2026-03-17_10h23.22.600,kallum_motion_pilot_GIST_update_2,2026.1.1,MacIntel,59.88023952,5eadaff848b26f4483ae62d9,69b92ab4aef6dee357cd729a,69b92b4f3451cb7dd99fc9e9,0.013,0.013,0,69,69,120,1,fivesix,,,,,,,,,,,,,,,,,,,,,,,,,,,,,,,,,,,,,,,,,,,,,,,,,,,,,,,,,,,,,,,,,,,,,,,,,,,,,,,,,,,,,,,,,,,,,,,,,,,,,,,,,,,,,,,,,,,,,,,,,,,,,,,,,,,,,,,,,
,,5eadaff848b26f4483ae62d9,2026-03-17_10h23.22.600,kallum_motion_pilot_GIST_update_2,2026.1.1,MacIntel,59.88023952,5eadaff848b26f4483ae62d9,69b92ab4aef6dee357cd729a,69b92b4f3451cb7dd99fc9e9,0.013,0.013,0,70,70,143,1,eightseven,,,,,,,,,,,,,,,,,,,,,,,,,,,,,,,,,,,,,,,,,,,,,,,,,,,,,,,,,,,,,,,,,,,,,,,,,,,,,,,,,,,,,,,,,,,,,,,,,,,,,,,,,,,,,,,,,,,,,,,,,,,,,,,,,,,,,,,,,
,,5eadaff848b26f4483ae62d9,2026-03-17_10h23.22.600,kallum_motion_pilot_GIST_update_2,2026.1.1,MacIntel,59.88023952,5eadaff848b26f4483ae62d9,69b92ab4aef6dee357cd729a,69b92b4f3451cb7dd99fc9e9,0.013,0.013,0,71,71,1,1,onethree,,,,,,,,,,,,,,,,,,,,,,,,,,,,,,,,,,,,,,,,,,,,,,,,,,,,,,,,,,,,,,,,,,,,,,,,,,,,,,,,,,,,,,,,,,,,,,,,,,,,,,,,,,,,,,,,,,,,,,,,,,,,,,,,,,,,,,,,,
,,5eadaff848b26f4483ae62d9,2026-03-17_10h23.22.600,kallum_motion_pilot_GIST_update_2,2026.1.1,MacIntel,59.88023952,5eadaff848b26f4483ae62d9,69b92ab4aef6dee357cd729a,69b92b4f3451cb7dd99fc9e9,0.013,0.013,0,72,72,151,1,eightseven,,,,,,,,,,,,,,,,,,,,,,,,,,,,,,,,,,,,,,,,,,,,,,,,,,,,,,,,,,,,,,,,,,,,,,,,,,,,,,,,,,,,,,,,,,,,,,,,,,,,,,,,,,,,,,,,,,,,,,,,,,,,,,,,,,,,,,,,,
,,5eadaff848b26f4483ae62d9,2026-03-17_10h23.22.600,kallum_motion_pilot_GIST_update_2,2026.1.1,MacIntel,59.88023952,5eadaff848b26f4483ae62d9,69b92ab4aef6dee357cd729a,69b92b4f3451cb7dd99fc9e9,0.0132,0.0132,0,73,73,102,1,eightsix,,,,,,,,,,,,,,,,,,,,,,,,,,,,,,,,,,,,,,,,,,,,,,,,,,,,,,,,,,,,,,,,,,,,,,,,,,,,,,,,,,,,,,,,,,,,,,,,,,,,,,,,,,,,,,,,,,,,,,,,,,,,,,,,,,,,,,,,,
,,5eadaff848b26f4483ae62d9,2026-03-17_10h23.22.600,kallum_motion_pilot_GIST_update_2,2026.1.1,MacIntel,59.88023952,5eadaff848b26f4483ae62d9,69b92ab4aef6dee357cd729a,69b92b4f3451cb7dd99fc9e9,0.0132,0.0132,0,74,74,88,1,fivesix,,,,,,,,,,,,,,,,,,,,,,,,,,,,,,,,,,,,,,,,,,,,,,,,,,,,,,,,,,,,,,,,,,,,,,,,,,,,,,,,,,,,,,,,,,,,,,,,,,,,,,,,,,,,,,,,,,,,,,,,,,,,,,,,,,,,,,,,,
,,5eadaff848b26f4483ae62d9,2026-03-17_10h23.22.600,kallum_motion_pilot_GIST_update_2,2026.1.1,MacIntel,59.88023952,5eadaff848b26f4483ae62d9,69b92ab4aef6dee357cd729a,69b92b4f3451cb7dd99fc9e9,0.0132,0.0132,0,75,75,49,1,onethree,,,,,,,,,,,,,,,,,,,,,,,,,,,,,,,,,,,,,,,,,,,,,,,,,,,,,,,,,,,,,,,,,,,,,,,,,,,,,,,,,,,,,,,,,,,,,,,,,,,,,,,,,,,,,,,,,,,,,,,,,,,,,,,,,,,,,,,,,
,,5eadaff848b26f4483ae62d9,2026-03-17_10h23.22.600,kallum_motion_pilot_GIST_update_2,2026.1.1,MacIntel,59.88023952,5eadaff848b26f4483ae62d9,69b92ab4aef6dee357cd729a,69b92b4f3451cb7dd99fc9e9,0.0133,0.0133,0,76,76,89,1,fiveseven,,,,,,,,,,,,,,,,,,,,,,,,,,,,,,,,,,,,,,,,,,,,,,,,,,,,,,,,,,,,,,,,,,,,,,,,,,,,,,,,,,,,,,,,,,,,,,,,,,,,,,,,,,,,,,,,,,,,,,,,,,,,,,,,,,,,,,,,,
,,5eadaff848b26f4483ae62d9,2026-03-17_10h23.22.600,kallum_motion_pilot_GIST_update_2,2026.1.1,MacIntel,59.88023952,5eadaff848b26f4483ae62d9,69b92ab4aef6dee357cd729a,69b92b4f3451cb7dd99fc9e9,0.0133,0.0133,0,77,77,90,1,sixfive,,,,,,,,,,,,,,,,,,,,,,,,,,,,,,,,,,,,,,,,,,,,,,,,,,,,,,,,,,,,,,,,,,,,,,,,,,,,,,,,,,,,,,,,,,,,,,,,,,,,,,,,,,,,,,,,,,,,,,,,,,,,,,,,,,,,,,,,,
,,5eadaff848b26f4483ae62d9,2026-03-17_10h23.22.600,kallum_motion_pilot_GIST_update_2,2026.1.1,MacIntel,59.88023952,5eadaff848b26f4483ae62d9,69b92ab4aef6dee357cd729a,69b92b4f3451cb7dd99fc9e9,0.0133,0.0133,0,78,78,97,1,fiveseven,,,,,,,,,,,,,,,,,,,,,,,,,,,,,,,,,,,,,,,,,,,,,,,,,,,,,,,,,,,,,,,,,,,,,,,,,,,,,,,,,,,,,,,,,,,,,,,,,,,,,,,,,,,,,,,,,,,,,,,,,,,,,,,,,,,,,,,,,
,,5eadaff848b26f4483ae62d9,2026-03-17_10h23.22.600,kallum_motion_pilot_GIST_update_2,2026.1.1,MacIntel,59.88023952,5eadaff848b26f4483ae62d9,69b92ab4aef6dee357cd729a,69b92b4f3451cb7dd99fc9e9,0.0133,0.0133,0,79,79,139,1,sixeight,,,,,,,,,,,,,,,,,,,,,,,,,,,,,,,,,,,,,,,,,,,,,,,,,,,,,,,,,,,,,,,,,,,,,,,,,,,,,,,,,,,,,,,,,,,,,,,,,,,,,,,,,,,,,,,,,,,,,,,,,,,,,,,,,,,,,,,,,
,,5eadaff848b26f4483ae62d9,2026-03-17_10h23.22.600,kallum_motion_pilot_GIST_update_2,2026.1.1,MacIntel,59.88023952,5eadaff848b26f4483ae62d9,69b92ab4aef6dee357cd729a,69b92b4f3451cb7dd99fc9e9,0.0134,0.0134,0,80,80,156,1,sevenfive,,,,,,,,,,,,,,,,,,,,,,,,,,,,,,,,,,,,,,,,,,,,,,,,,,,,,,,,,,,,,,,,,,,,,,,,,,,,,,,,,,,,,,,,,,,,,,,,,,,,,,,,,,,,,,,,,,,,,,,,,,,,,,,,,,,,,,,,,
,,5eadaff848b26f4483ae62d9,2026-03-17_10h23.22.600,kallum_motion_pilot_GIST_update_2,2026.1.1,MacIntel,59.88023952,5eadaff848b26f4483ae62d9,69b92ab4aef6dee357cd729a,69b92b4f3451cb7dd99fc9e9,0.0135,0.0135,0,81,81,118,1,eightsix,,,,,,,,,,,,,,,,,,,,,,,,,,,,,,,,,,,,,,,,,,,,,,,,,,,,,,,,,,,,,,,,,,,,,,,,,,,,,,,,,,,,,,,,,,,,,,,,,,,,,,,,,,,,,,,,,,,,,,,,,,,,,,,,,,,,,,,,,
,,5eadaff848b26f4483ae62d9,2026-03-17_10h23.22.600,kallum_motion_pilot_GIST_update_2,2026.1.1,MacIntel,59.88023952,5eadaff848b26f4483ae62d9,69b92ab4aef6dee357cd729a,69b92b4f3451cb7dd99fc9e9,0.0135,0.0135,0,82,82,146,1,sixfive,,,,,,,,,,,,,,,,,,,,,,,,,,,,,,,,,,,,,,,,,,,,,,,,,,,,,,,,,,,,,,,,,,,,,,,,,,,,,,,,,,,,,,,,,,,,,,,,,,,,,,,,,,,,,,,,,,,,,,,,,,,,,,,,,,,,,,,,,
,,5eadaff848b26f4483ae62d9,2026-03-17_10h23.22.600,kallum_motion_pilot_GIST_update_2,2026.1.1,MacIntel,59.88023952,5eadaff848b26f4483ae62d9,69b92ab4aef6dee357cd729a,69b92b4f3451cb7dd99fc9e9,0.0135,0.0135,0,83,83,148,1,sevenfive,,,,,,,,,,,,,,,,,,,,,,,,,,,,,,,,,,,,,,,,,,,,,,,,,,,,,,,,,,,,,,,,,,,,,,,,,,,,,,,,,,,,,,,,,,,,,,,,,,,,,,,,,,,,,,,,,,,,,,,,,,,,,,,,,,,,,,,,,
,,5eadaff848b26f4483ae62d9,2026-03-17_10h23.22.600,kallum_motion_pilot_GIST_update_2,2026.1.1,MacIntel,59.88023952,5eadaff848b26f4483ae62d9,69b92ab4aef6dee357cd729a,69b92b4f3451cb7dd99fc9e9,0.0135,0.0135,0,84,84,76,1,threeone,,,,,,,,,,,,,,,,,,,,,,,,,,,,,,,,,,,,,,,,,,,,,,,,,,,,,,,,,,,,,,,,,,,,,,,,,,,,,,,,,,,,,,,,,,,,,,,,,,,,,,,,,,,,,,,,,,,,,,,,,,,,,,,,,,,,,,,,,
,,5eadaff848b26f4483ae62d9,2026-03-17_10h23.22.600,kallum_motion_pilot_GIST_update_2,2026.1.1,MacIntel,59.88023952,5eadaff848b26f4483ae62d9,69b92ab4aef6dee357cd729a,69b92b4f3451cb7dd99fc9e9,0.0136,0.0136,0,85,85,24,1,onetwo,,,,,,,,,,,,,,,,,,,,,,,,,,,,,,,,,,,,,,,,,,,,,,,,,,,,,,,,,,,,,,,,,,,,,,,,,,,,,,,,,,,,,,,,,,,,,,,,,,,,,,,,,,,,,,,,,,,,,,,,,,,,,,,,,,,,,,,,,
,,5eadaff848b26f4483ae62d9,2026-03-17_10h23.22.600,kallum_motion_pilot_GIST_update_2,2026.1.1,MacIntel,59.88023952,5eadaff848b26f4483ae62d9,69b92ab4aef6dee357cd729a,69b92b4f3451cb7dd99fc9e9,0.0136,0.0136,0,86,86,124,1,sevenfive,,,,,,,,,,,,,,,,,,,,,,,,,,,,,,,,,,,,,,,,,,,,,,,,,,,,,,,,,,,,,,,,,,,,,,,,,,,,,,,,,,,,,,,,,,,,,,,,,,,,,,,,,,,,,,,,,,,,,,,,,,,,,,,,,,,,,,,,,
,,5eadaff848b26f4483ae62d9,2026-03-17_10h23.22.600,kallum_motion_pilot_GIST_update_2,2026.1.1,MacIntel,59.88023952,5eadaff848b26f4483ae62d9,69b92ab4aef6dee357cd729a,69b92b4f3451cb7dd99fc9e9,0.0137,0.0137,0,87,87,45,1,threefour,,,,,,,,,,,,,,,,,,,,,,,,,,,,,,,,,,,,,,,,,,,,,,,,,,,,,,,,,,,,,,,,,,,,,,,,,,,,,,,,,,,,,,,,,,,,,,,,,,,,,,,,,,,,,,,,,,,,,,,,,,,,,,,,,,,,,,,,,
,,5eadaff848b26f4483ae62d9,2026-03-17_10h23.22.600,kallum_motion_pilot_GIST_update_2,2026.1.1,MacIntel,59.88023952,5eadaff848b26f4483ae62d9,69b92ab4aef6dee357cd729a,69b92b4f3451cb7dd99fc9e9,0.0138,0.0138,0,88,88,59,1,twofour,,,,,,,,,,,,,,,,,,,,,,,,,,,,,,,,,,,,,,,,,,,,,,,,,,,,,,,,,,,,,,,,,,,,,,,,,,,,,,,,,,,,,,,,,,,,,,,,,,,,,,,,,,,,,,,,,,,,,,,,,,,,,,,,,,,,,,,,,
,,5eadaff848b26f4483ae62d9,2026-03-17_10h23.22.600,kallum_motion_pilot_GIST_update_2,2026.1.1,MacIntel,59.88023952,5eadaff848b26f4483ae62d9,69b92ab4aef6dee357cd729a,69b92b4f3451cb7dd99fc9e9,0.0138,0.0138,0,89,89,86,1,eightsix,,,,,,,,,,,,,,,,,,,,,,,,,,,,,,,,,,,,,,,,,,,,,,,,,,,,,,,,,,,,,,,,,,,,,,,,,,,,,,,,,,,,,,,,,,,,,,,,,,,,,,,,,,,,,,,,,,,,,,,,,,,,,,,,,,,,,,,,,
,,5eadaff848b26f4483ae62d9,2026-03-17_10h23.22.600,kallum_motion_pilot_GIST_update_2,2026.1.1,MacIntel,59.88023952,5eadaff848b26f4483ae62d9,69b92ab4aef6dee357cd729a,69b92b4f3451cb7dd99fc9e9,0.0138,0.0138,0,90,90,158,1,eightsix,,,,,,,,,,,,,,,,,,,,,,,,,,,,,,,,,,,,,,,,,,,,,,,,,,,,,,,,,,,,,,,,,,,,,,,,,,,,,,,,,,,,,,,,,,,,,,,,,,,,,,,,,,,,,,,,,,,,,,,,,,,,,,,,,,,,,,,,,
,,5eadaff848b26f4483ae62d9,2026-03-17_10h23.22.600,kallum_motion_pilot_GIST_update_2,2026.1.1,MacIntel,59.88023952,5eadaff848b26f4483ae62d9,69b92ab4aef6dee357cd729a,69b92b4f3451cb7dd99fc9e9,0.0139,0.0139,0,91,91,19,1,twofour,,,,,,,,,,,,,,,,,,,,,,,,,,,,,,,,,,,,,,,,,,,,,,,,,,,,,,,,,,,,,,,,,,,,,,,,,,,,,,,,,,,,,,,,,,,,,,,,,,,,,,,,,,,,,,,,,,,,,,,,,,,,,,,,,,,,,,,,,
,,5eadaff848b26f4483ae62d9,2026-03-17_10h23.22.600,kallum_motion_pilot_GIST_update_2,2026.1.1,MacIntel,59.88023952,5eadaff848b26f4483ae62d9,69b92ab4aef6dee357cd729a,69b92b4f3451cb7dd99fc9e9,0.0139,0.0139,0,92,92,119,1,eightseven,,,,,,,,,,,,,,,,,,,,,,,,,,,,,,,,,,,,,,,,,,,,,,,,,,,,,,,,,,,,,,,,,,,,,,,,,,,,,,,,,,,,,,,,,,,,,,,,,,,,,,,,,,,,,,,,,,,,,,,,,,,,,,,,,,,,,,,,,
,,5eadaff848b26f4483ae62d9,2026-03-17_10h23.22.600,kallum_motion_pilot_GIST_update_2,2026.1.1,MacIntel,59.88023952,5eadaff848b26f4483ae62d9,69b92ab4aef6dee357cd729a,69b92b4f3451cb7dd99fc9e9,0.0139,0.0139,0,93,93,61,1,threefour,,,,,,,,,,,,,,,,,,,,,,,,,,,,,,,,,,,,,,,,,,,,,,,,,,,,,,,,,,,,,,,,,,,,,,,,,,,,,,,,,,,,,,,,,,,,,,,,,,,,,,,,,,,,,,,,,,,,,,,,,,,,,,,,,,,,,,,,,
,,5eadaff848b26f4483ae62d9,2026-03-17_10h23.22.600,kallum_motion_pilot_GIST_update_2,2026.1.1,MacIntel,59.88023952,5eadaff848b26f4483ae62d9,69b92ab4aef6dee357cd729a,69b92b4f3451cb7dd99fc9e9,0.014,0.014,0,94,94,14,1,fourtwo,,,,,,,,,,,,,,,,,,,,,,,,,,,,,,,,,,,,,,,,,,,,,,,,,,,,,,,,,,,,,,,,,,,,,,,,,,,,,,,,,,,,,,,,,,,,,,,,,,,,,,,,,,,,,,,,,,,,,,,,,,,,,,,,,,,,,,,,,
,,5eadaff848b26f4483ae62d9,2026-03-17_10h23.22.600,kallum_motion_pilot_GIST_update_2,2026.1.1,MacIntel,59.88023952,5eadaff848b26f4483ae62d9,69b92ab4aef6dee357cd729a,69b92b4f3451cb7dd99fc9e9,0.0141,0.0141,0,95,95,144,1,fivesix,,,,,,,,,,,,,,,,,,,,,,,,,,,,,,,,,,,,,,,,,,,,,,,,,,,,,,,,,,,,,,,,,,,,,,,,,,,,,,,,,,,,,,,,,,,,,,,,,,,,,,,,,,,,,,,,,,,,,,,,,,,,,,,,,,,,,,,,,
,,5eadaff848b26f4483ae62d9,2026-03-17_10h23.22.600,kallum_motion_pilot_GIST_update_2,2026.1.1,MacIntel,59.88023952,5eadaff848b26f4483ae62d9,69b92ab4aef6dee357cd729a,69b92b4f3451cb7dd99fc9e9,0.0141,0.0141,0,96,96,127,1,eightseven,,,,,,,,,,,,,,,,,,,,,,,,,,,,,,,,,,,,,,,,,,,,,,,,,,,,,,,,,,,,,,,,,,,,,,,,,,,,,,,,,,,,,,,,,,,,,,,,,,,,,,,,,,,,,,,,,,,,,,,,,,,,,,,,,,,,,,,,,
,,5eadaff848b26f4483ae62d9,2026-03-17_10h23.22.600,kallum_motion_pilot_GIST_update_2,2026.1.1,MacIntel,59.88023952,5eadaff848b26f4483ae62d9,69b92ab4aef6dee357cd729a,69b92b4f3451cb7dd99fc9e9,0.0141,0.0141,0,97,97,36,1,threeone,,,,,,,,,,,,,,,,,,,,,,,,,,,,,,,,,,,,,,,,,,,,,,,,,,,,,,,,,,,,,,,,,,,,,,,,,,,,,,,,,,,,,,,,,,,,,,,,,,,,,,,,,,,,,,,,,,,,,,,,,,,,,,,,,,,,,,,,,
,,5eadaff848b26f4483ae62d9,2026-03-17_10h23.22.600,kallum_motion_pilot_GIST_update_2,2026.1.1,MacIntel,59.88023952,5eadaff848b26f4483ae62d9,69b92ab4aef6dee357cd729a,69b92b4f3451cb7dd99fc9e9,0.0141,0.0141,0,98,98,64,1,onetwo,,,,,,,,,,,,,,,,,,,,,,,,,,,,,,,,,,,,,,,,,,,,,,,,,,,,,,,,,,,,,,,,,,,,,,,,,,,,,,,,,,,,,,,,,,,,,,,,,,,,,,,,,,,,,,,,,,,,,,,,,,,,,,,,,,,,,,,,,
,,5eadaff848b26f4483ae62d9,2026-03-17_10h23.22.600,kallum_motion_pilot_GIST_update_2,2026.1.1,MacIntel,59.88023952,5eadaff848b26f4483ae62d9,69b92ab4aef6dee357cd729a,69b92b4f3451cb7dd99fc9e9,0.0142,0.0142,0,99,99,80,1,fivesix,,,,,,,,,,,,,,,,,,,,,,,,,,,,,,,,,,,,,,,,,,,,,,,,,,,,,,,,,,,,,,,,,,,,,,,,,,,,,,,,,,,,,,,,,,,,,,,,,,,,,,,,,,,,,,,,,,,,,,,,,,,,,,,,,,,,,,,,,
,,5eadaff848b26f4483ae62d9,2026-03-17_10h23.22.600,kallum_motion_pilot_GIST_update_2,2026.1.1,MacIntel,59.88023952,5eadaff848b26f4483ae62d9,69b92ab4aef6dee357cd729a,69b92b4f3451cb7dd99fc9e9,0.0143,0.0143,0,100,100,134,1,eightsix,,,,,,,,,,,,,,,,,,,,,,,,,,,,,,,,,,,,,,,,,,,,,,,,,,,,,,,,,,,,,,,,,,,,,,,,,,,,,,,,,,,,,,,,,,,,,,,,,,,,,,,,,,,,,,,,,,,,,,,,,,,,,,,,,,,,,,,,,
,,5eadaff848b26f4483ae62d9,2026-03-17_10h23.22.600,kallum_motion_pilot_GIST_update_2,2026.1.1,MacIntel,59.88023952,5eadaff848b26f4483ae62d9,69b92ab4aef6dee357cd729a,69b92b4f3451cb7dd99fc9e9,0.0143,0.0143,0,101,101,3,1,twofour,,,,,,,,,,,,,,,,,,,,,,,,,,,,,,,,,,,,,,,,,,,,,,,,,,,,,,,,,,,,,,,,,,,,,,,,,,,,,,,,,,,,,,,,,,,,,,,,,,,,,,,,,,,,,,,,,,,,,,,,,,,,,,,,,,,,,,,,,
,,5eadaff848b26f4483ae62d9,2026-03-17_10h23.22.600,kallum_motion_pilot_GIST_update_2,2026.1.1,MacIntel,59.88023952,5eadaff848b26f4483ae62d9,69b92ab4aef6dee357cd729a,69b92b4f3451cb7dd99fc9e9,0.0143,0.0143,0,102,102,122,1,sixfive,,,,,,,,,,,,,,,,,,,,,,,,,,,,,,,,,,,,,,,,,,,,,,,,,,,,,,,,,,,,,,,,,,,,,,,,,,,,,,,,,,,,,,,,,,,,,,,,,,,,,,,,,,,,,,,,,,,,,,,,,,,,,,,,,,,,,,,,,
,,5eadaff848b26f4483ae62d9,2026-03-17_10h23.22.600,kallum_motion_pilot_GIST_update_2,2026.1.1,MacIntel,59.88023952,5eadaff848b26f4483ae62d9,69b92ab4aef6dee357cd729a,69b92b4f3451cb7dd99fc9e9,0.0144,0.0144,0,103,103,150,1,eightsix,,,,,,,,,,,,,,,,,,,,,,,,,,,,,,,,,,,,,,,,,,,,,,,,,,,,,,,,,,,,,,,,,,,,,,,,,,,,,,,,,,,,,,,,,,,,,,,,,,,,,,,,,,,,,,,,,,,,,,,,,,,,,,,,,,,,,,,,,
,,5eadaff848b26f4483ae62d9,2026-03-17_10h23.22.600,kallum_motion_pilot_GIST_update_2,2026.1.1,MacIntel,59.88023952,5eadaff848b26f4483ae62d9,69b92ab4aef6dee357cd729a,69b92b4f3451cb7dd99fc9e9,0.0144,0.0144,0,104,104,93,1,seveneight,,,,,,,,,,,,,,,,,,,,,,,,,,,,,,,,,,,,,,,,,,,,,,,,,,,,,,,,,,,,,,,,,,,,,,,,,,,,,,,,,,,,,,,,,,,,,,,,,,,,,,,,,,,,,,,,,,,,,,,,,,,,,,,,,,,,,,,,,
,,5eadaff848b26f4483ae62d9,2026-03-17_10h23.22.600,kallum_motion_pilot_GIST_update_2,2026.1.1,MacIntel,59.88023952,5eadaff848b26f4483ae62d9,69b92ab4aef6dee357cd729a,69b92b4f3451cb7dd99fc9e9,0.0145,0.0145,0,105,105,22,1,fourtwo,,,,,,,,,,,,,,,,,,,,,,,,,,,,,,,,,,,,,,,,,,,,,,,,,,,,,,,,,,,,,,,,,,,,,,,,,,,,,,,,,,,,,,,,,,,,,,,,,,,,,,,,,,,,,,,,,,,,,,,,,,,,,,,,,,,,,,,,,
,,5eadaff848b26f4483ae62d9,2026-03-17_10h23.22.600,kallum_motion_pilot_GIST_update_2,2026.1.1,MacIntel,59.88023952,5eadaff848b26f4483ae62d9,69b92ab4aef6dee357cd729a,69b92b4f3451cb7dd99fc9e9,0.0145,0.0145,0,106,106,109,1,seveneight,,,,,,,,,,,,,,,,,,,,,,,,,,,,,,,,,,,,,,,,,,,,,,,,,,,,,,,,,,,,,,,,,,,,,,,,,,,,,,,,,,,,,,,,,,,,,,,,,,,,,,,,,,,,,,,,,,,,,,,,,,,,,,,,,,,,,,,,,
,,5eadaff848b26f4483ae62d9,2026-03-17_10h23.22.600,kallum_motion_pilot_GIST_update_2,2026.1.1,MacIntel,59.88023952,5eadaff848b26f4483ae62d9,69b92ab4aef6dee357cd729a,69b92b4f3451cb7dd99fc9e9,0.0146,0.0146,0,107,107,140,1,sevenfive,,,,,,,,,,,,,,,,,,,,,,,,,,,,,,,,,,,,,,,,,,,,,,,,,,,,,,,,,,,,,,,,,,,,,,,,,,,,,,,,,,,,,,,,,,,,,,,,,,,,,,,,,,,,,,,,,,,,,,,,,,,,,,,,,,,,,,,,,
,,5eadaff848b26f4483ae62d9,2026-03-17_10h23.22.600,kallum_motion_pilot_GIST_update_2,2026.1.1,MacIntel,59.88023952,5eadaff848b26f4483ae62d9,69b92ab4aef6dee357cd729a,69b92b4f3451cb7dd99fc9e9,0.0146,0.0146,0,108,108,39,1,fourthree,,,,,,,,,,,,,,,,,,,,,,,,,,,,,,,,,,,,,,,,,,,,,,,,,,,,,,,,,,,,,,,,,,,,,,,,,,,,,,,,,,,,,,,,,,,,,,,,,,,,,,,,,,,,,,,,,,,,,,,,,,,,,,,,,,,,,,,,,
,,5eadaff848b26f4483ae62d9,2026-03-17_10h23.22.600,kallum_motion_pilot_GIST_update_2,2026.1.1,MacIntel,59.88023952,5eadaff848b26f4483ae62d9,69b92ab4aef6dee357cd729a,69b92b4f3451cb7dd99fc9e9,0.0146,0.0146,0,109,109,147,1,sixeight,,,,,,,,,,,,,,,,,,,,,,,,,,,,,,,,,,,,,,,,,,,,,,,,,,,,,,,,,,,,,,,,,,,,,,,,,,,,,,,,,,,,,,,,,,,,,,,,,,,,,,,,,,,,,,,,,,,,,,,,,,,,,,,,,,,,,,,,,
,,5eadaff848b26f4483ae62d9,2026-03-17_10h23.22.600,kallum_motion_pilot_GIST_update_2,2026.1.1,MacIntel,59.88023952,5eadaff848b26f4483ae62d9,69b92ab4aef6dee357cd729a,69b92b4f3451cb7dd99fc9e9,0.0146,0.0146,0,110,110,82,1,sixfive,,,,,,,,,,,,,,,,,,,,,,,,,,,,,,,,,,,,,,,,,,,,,,,,,,,,,,,,,,,,,,,,,,,,,,,,,,,,,,,,,,,,,,,,,,,,,,,,,,,,,,,,,,,,,,,,,,,,,,,,,,,,,,,,,,,,,,,,,
,,5eadaff848b26f4483ae62d9,2026-03-17_10h23.22.600,kallum_motion_pilot_GIST_update_2,2026.1.1,MacIntel,59.88023952,5eadaff848b26f4483ae62d9,69b92ab4aef6dee357cd729a,69b92b4f3451cb7dd99fc9e9,0.0147,0.0147,0,111,111,136,1,fivesix,,,,,,,,,,,,,,,,,,,,,,,,,,,,,,,,,,,,,,,,,,,,,,,,,,,,,,,,,,,,,,,,,,,,,,,,,,,,,,,,,,,,,,,,,,,,,,,,,,,,,,,,,,,,,,,,,,,,,,,,,,,,,,,,,,,,,,,,,
,,5eadaff848b26f4483ae62d9,2026-03-17_10h23.22.600,kallum_motion_pilot_GIST_update_2,2026.1.1,MacIntel,59.88023952,5eadaff848b26f4483ae62d9,69b92ab4aef6dee357cd729a,69b92b4f3451cb7dd99fc9e9,0.0148,0.0148,0,112,112,44,1,threeone,,,,,,,,,,,,,,,,,,,,,,,,,,,,,,,,,,,,,,,,,,,,,,,,,,,,,,,,,,,,,,,,,,,,,,,,,,,,,,,,,,,,,,,,,,,,,,,,,,,,,,,,,,,,,,,,,,,,,,,,,,,,,,,,,,,,,,,,,
,,5eadaff848b26f4483ae62d9,2026-03-17_10h23.22.600,kallum_motion_pilot_GIST_update_2,2026.1.1,MacIntel,59.88023952,5eadaff848b26f4483ae62d9,69b92ab4aef6dee357cd729a,69b92b4f3451cb7dd99fc9e9,0.0148,0.0148,0,113,113,135,1,eightseven,,,,,,,,,,,,,,,,,,,,,,,,,,,,,,,,,,,,,,,,,,,,,,,,,,,,,,,,,,,,,,,,,,,,,,,,,,,,,,,,,,,,,,,,,,,,,,,,,,,,,,,,,,,,,,,,,,,,,,,,,,,,,,,,,,,,,,,,,
,,5eadaff848b26f4483ae62d9,2026-03-17_10h23.22.600,kallum_motion_pilot_GIST_update_2,2026.1.1,MacIntel,59.88023952,5eadaff848b26f4483ae62d9,69b92ab4aef6dee357cd729a,69b92b4f3451cb7dd99fc9e9,0.0148,0.0148,0,114,114,4,1,threeone,,,,,,,,,,,,,,,,,,,,,,,,,,,,,,,,,,,,,,,,,,,,,,,,,,,,,,,,,,,,,,,,,,,,,,,,,,,,,,,,,,,,,,,,,,,,,,,,,,,,,,,,,,,,,,,,,,,,,,,,,,,,,,,,,,,,,,,,,
,,5eadaff848b26f4483ae62d9,2026-03-17_10h23.22.600,kallum_motion_pilot_GIST_update_2,2026.1.1,MacIntel,59.88023952,5eadaff848b26f4483ae62d9,69b92ab4aef6dee357cd729a,69b92b4f3451cb7dd99fc9e9,0.0149,0.0149,0,115,115,131,1,sixeight,,,,,,,,,,,,,,,,,,,,,,,,,,,,,,,,,,,,,,,,,,,,,,,,,,,,,,,,,,,,,,,,,,,,,,,,,,,,,,,,,,,,,,,,,,,,,,,,,,,,,,,,,,,,,,,,,,,,,,,,,,,,,,,,,,,,,,,,,
,,5eadaff848b26f4483ae62d9,2026-03-17_10h23.22.600,kallum_motion_pilot_GIST_update_2,2026.1.1,MacIntel,59.88023952,5eadaff848b26f4483ae62d9,69b92ab4aef6dee357cd729a,69b92b4f3451cb7dd99fc9e9,0.0149,0.0149,0,116,116,138,1,sixfive,,,,,,,,,,,,,,,,,,,,,,,,,,,,,,,,,,,,,,,,,,,,,,,,,,,,,,,,,,,,,,,,,,,,,,,,,,,,,,,,,,,,,,,,,,,,,,,,,,,,,,,,,,,,,,,,,,,,,,,,,,,,,,,,,,,,,,,,,
,,5eadaff848b26f4483ae62d9,2026-03-17_10h23.22.600,kallum_motion_pilot_GIST_update_2,2026.1.1,MacIntel,59.88023952,5eadaff848b26f4483ae62d9,69b92ab4aef6dee357cd729a,69b92b4f3451cb7dd99fc9e9,0.015,0.015,0,117,117,154,1,sixfive,,,,,,,,,,,,,,,,,,,,,,,,,,,,,,,,,,,,,,,,,,,,,,,,,,,,,,,,,,,,,,,,,,,,,,,,,,,,,,,,,,,,,,,,,,,,,,,,,,,,,,,,,,,,,,,,,,,,,,,,,,,,,,,,,,,,,,,,,
,,5eadaff848b26f4483ae62d9,2026-03-17_10h23.22.600,kallum_motion_pilot_GIST_update_2,2026.1.1,MacIntel,59.88023952,5eadaff848b26f4483ae62d9,69b92ab4aef6dee357cd729a,69b92b4f3451cb7dd99fc9e9,0.015,0.015,0,118,118,160,1,fivesix,,,,,,,,,,,,,,,,,,,,,,,,,,,,,,,,,,,,,,,,,,,,,,,,,,,,,,,,,,,,,,,,,,,,,,,,,,,,,,,,,,,,,,,,,,,,,,,,,,,,,,,,,,,,,,,,,,,,,,,,,,,,,,,,,,,,,,,,,
,,5eadaff848b26f4483ae62d9,2026-03-17_10h23.22.600,kallum_motion_pilot_GIST_update_2,2026.1.1,MacIntel,59.88023952,5eadaff848b26f4483ae62d9,69b92ab4aef6dee357cd729a,69b92b4f3451cb7dd99fc9e9,0.0151,0.0151,0,119,119,2,1,twoone,,,,,,,,,,,,,,,,,,,,,,,,,,,,,,,,,,,,,,,,,,,,,,,,,,,,,,,,,,,,,,,,,,,,,,,,,,,,,,,,,,,,,,,,,,,,,,,,,,,,,,,,,,,,,,,,,,,,,,,,,,,,,,,,,,,,,,,,,
,,5eadaff848b26f4483ae62d9,2026-03-17_10h23.22.600,kallum_motion_pilot_GIST_update_2,2026.1.1,MacIntel,59.88023952,5eadaff848b26f4483ae62d9,69b92ab4aef6dee357cd729a,69b92b4f3451cb7dd99fc9e9,0.0151,0.0151,0,120,120,128,1,fivesix,,,,,,,,,,,,,,,,,,,,,,,,,,,,,,,,,,,,,,,,,,,,,,,,,,,,,,,,,,,,,,,,,,,,,,,,,,,,,,,,,,,,,,,,,,,,,,,,,,,,,,,,,,,,,,,,,,,,,,,,,,,,,,,,,,,,,,,,,
,,5eadaff848b26f4483ae62d9,2026-03-17_10h23.22.600,kallum_motion_pilot_GIST_update_2,2026.1.1,MacIntel,59.88023952,5eadaff848b26f4483ae62d9,69b92ab4aef6dee357cd729a,69b92b4f3451cb7dd99fc9e9,0.0152,0.0152,0,121,121,10,1,twoone,,,,,,,,,,,,,,,,,,,,,,,,,,,,,,,,,,,,,,,,,,,,,,,,,,,,,,,,,,,,,,,,,,,,,,,,,,,,,,,,,,,,,,,,,,,,,,,,,,,,,,,,,,,,,,,,,,,,,,,,,,,,,,,,,,,,,,,,,
,,5eadaff848b26f4483ae62d9,2026-03-17_10h23.22.600,kallum_motion_pilot_GIST_update_2,2026.1.1,MacIntel,59.88023952,5eadaff848b26f4483ae62d9,69b92ab4aef6dee357cd729a,69b92b4f3451cb7dd99fc9e9,0.0152,0.0152,0,122,122,66,1,twoone,,,,,,,,,,,,,,,,,,,,,,,,,,,,,,,,,,,,,,,,,,,,,,,,,,,,,,,,,,,,,,,,,,,,,,,,,,,,,,,,,,,,,,,,,,,,,,,,,,,,,,,,,,,,,,,,,,,,,,,,,,,,,,,,,,,,,,,,,
,,5eadaff848b26f4483ae62d9,2026-03-17_10h23.22.600,kallum_motion_pilot_GIST_update_2,2026.1.1,MacIntel,59.88023952,5eadaff848b26f4483ae62d9,69b92ab4aef6dee357cd729a,69b92b4f3451cb7dd99fc9e9,0.0152,0.0152,0,123,123,133,1,seveneight,,,,,,,,,,,,,,,,,,,,,,,,,,,,,,,,,,,,,,,,,,,,,,,,,,,,,,,,,,,,,,,,,,,,,,,,,,,,,,,,,,,,,,,,,,,,,,,,,,,,,,,,,,,,,,,,,,,,,,,,,,,,,,,,,,,,,,,,,
,,5eadaff848b26f4483ae62d9,2026-03-17_10h23.22.600,kallum_motion_pilot_GIST_update_2,2026.1.1,MacIntel,59.88023952,5eadaff848b26f4483ae62d9,69b92ab4aef6dee357cd729a,69b92b4f3451cb7dd99fc9e9,0.0153,0.0153,0,124,124,13,1,threefour,,,,,,,,,,,,,,,,,,,,,,,,,,,,,,,,,,,,,,,,,,,,,,,,,,,,,,,,,,,,,,,,,,,,,,,,,,,,,,,,,,,,,,,,,,,,,,,,,,,,,,,,,,,,,,,,,,,,,,,,,,,,,,,,,,,,,,,,,
,,5eadaff848b26f4483ae62d9,2026-03-17_10h23.22.600,kallum_motion_pilot_GIST_update_2,2026.1.1,MacIntel,59.88023952,5eadaff848b26f4483ae62d9,69b92ab4aef6dee357cd729a,69b92b4f3451cb7dd99fc9e9,0.0154,0.0154,0,125,125,101,1,seveneight,,,,,,,,,,,,,,,,,,,,,,,,,,,,,,,,,,,,,,,,,,,,,,,,,,,,,,,,,,,,,,,,,,,,,,,,,,,,,,,,,,,,,,,,,,,,,,,,,,,,,,,,,,,,,,,,,,,,,,,,,,,,,,,,,,,,,,,,,
,,5eadaff848b26f4483ae62d9,2026-03-17_10h23.22.600,kallum_motion_pilot_GIST_update_2,2026.1.1,MacIntel,59.88023952,5eadaff848b26f4483ae62d9,69b92ab4aef6dee357cd729a,69b92b4f3451cb7dd99fc9e9,0.0154,0.0154,0,126,126,68,1,threeone,,,,,,,,,,,,,,,,,,,,,,,,,,,,,,,,,,,,,,,,,,,,,,,,,,,,,,,,,,,,,,,,,,,,,,,,,,,,,,,,,,,,,,,,,,,,,,,,,,,,,,,,,,,,,,,,,,,,,,,,,,,,,,,,,,,,,,,,,
,,5eadaff848b26f4483ae62d9,2026-03-17_10h23.22.600,kallum_motion_pilot_GIST_update_2,2026.1.1,MacIntel,59.88023952,5eadaff848b26f4483ae62d9,69b92ab4aef6dee357cd729a,69b92b4f3451cb7dd99fc9e9,0.0154,0.0154,0,127,127,23,1,fourthree,,,,,,,,,,,,,,,,,,,,,,,,,,,,,,,,,,,,,,,,,,,,,,,,,,,,,,,,,,,,,,,,,,,,,,,,,,,,,,,,,,,,,,,,,,,,,,,,,,,,,,,,,,,,,,,,,,,,,,,,,,,,,,,,,,,,,,,,,
,,5eadaff848b26f4483ae62d9,2026-03-17_10h23.22.600,kallum_motion_pilot_GIST_update_2,2026.1.1,MacIntel,59.88023952,5eadaff848b26f4483ae62d9,69b92ab4aef6dee357cd729a,69b92b4f3451cb7dd99fc9e9,0.0155,0.0155,0,128,128,34,1,twoone,,,,,,,,,,,,,,,,,,,,,,,,,,,,,,,,,,,,,,,,,,,,,,,,,,,,,,,,,,,,,,,,,,,,,,,,,,,,,,,,,,,,,,,,,,,,,,,,,,,,,,,,,,,,,,,,,,,,,,,,,,,,,,,,,,,,,,,,,
,,5eadaff848b26f4483ae62d9,2026-03-17_10h23.22.600,kallum_motion_pilot_GIST_update_2,2026.1.1,MacIntel,59.88023952,5eadaff848b26f4483ae62d9,69b92ab4aef6dee357cd729a,69b92b4f3451cb7dd99fc9e9,0.0156,0.0156,0,129,129,104,1,fivesix,,,,,,,,,,,,,,,,,,,,,,,,,,,,,,,,,,,,,,,,,,,,,,,,,,,,,,,,,,,,,,,,,,,,,,,,,,,,,,,,,,,,,,,,,,,,,,,,,,,,,,,,,,,,,,,,,,,,,,,,,,,,,,,,,,,,,,,,,
,,5eadaff848b26f4483ae62d9,2026-03-17_10h23.22.600,kallum_motion_pilot_GIST_update_2,2026.1.1,MacIntel,59.88023952,5eadaff848b26f4483ae62d9,69b92ab4aef6dee357cd729a,69b92b4f3451cb7dd99fc9e9,0.0156,0.0156,0,130,130,115,1,sixeight,,,,,,,,,,,,,,,,,,,,,,,,,,,,,,,,,,,,,,,,,,,,,,,,,,,,,,,,,,,,,,,,,,,,,,,,,,,,,,,,,,,,,,,,,,,,,,,,,,,,,,,,,,,,,,,,,,,,,,,,,,,,,,,,,,,,,,,,,
,,5eadaff848b26f4483ae62d9,2026-03-17_10h23.22.600,kallum_motion_pilot_GIST_update_2,2026.1.1,MacIntel,59.88023952,5eadaff848b26f4483ae62d9,69b92ab4aef6dee357cd729a,69b92b4f3451cb7dd99fc9e9,0.0157,0.0157,0,131,131,159,1,eightseven,,,,,,,,,,,,,,,,,,,,,,,,,,,,,,,,,,,,,,,,,,,,,,,,,,,,,,,,,,,,,,,,,,,,,,,,,,,,,,,,,,,,,,,,,,,,,,,,,,,,,,,,,,,,,,,,,,,,,,,,,,,,,,,,,,,,,,,,,
,,5eadaff848b26f4483ae62d9,2026-03-17_10h23.22.600,kallum_motion_pilot_GIST_update_2,2026.1.1,MacIntel,59.88023952,5eadaff848b26f4483ae62d9,69b92ab4aef6dee357cd729a,69b92b4f3451cb7dd99fc9e9,0.0157,0.0157,0,132,132,137,1,fiveseven,,,,,,,,,,,,,,,,,,,,,,,,,,,,,,,,,,,,,,,,,,,,,,,,,,,,,,,,,,,,,,,,,,,,,,,,,,,,,,,,,,,,,,,,,,,,,,,,,,,,,,,,,,,,,,,,,,,,,,,,,,,,,,,,,,,,,,,,,
,,5eadaff848b26f4483ae62d9,2026-03-17_10h23.22.600,kallum_motion_pilot_GIST_update_2,2026.1.1,MacIntel,59.88023952,5eadaff848b26f4483ae62d9,69b92ab4aef6dee357cd729a,69b92b4f3451cb7dd99fc9e9,0.0157,0.0157,0,133,133,47,1,fourthree,,,,,,,,,,,,,,,,,,,,,,,,,,,,,,,,,,,,,,,,,,,,,,,,,,,,,,,,,,,,,,,,,,,,,,,,,,,,,,,,,,,,,,,,,,,,,,,,,,,,,,,,,,,,,,,,,,,,,,,,,,,,,,,,,,,,,,,,,
,,5eadaff848b26f4483ae62d9,2026-03-17_10h23.22.600,kallum_motion_pilot_GIST_update_2,2026.1.1,MacIntel,59.88023952,5eadaff848b26f4483ae62d9,69b92ab4aef6dee357cd729a,69b92b4f3451cb7dd99fc9e9,0.0157,0.0157,0,134,134,33,1,onethree,,,,,,,,,,,,,,,,,,,,,,,,,,,,,,,,,,,,,,,,,,,,,,,,,,,,,,,,,,,,,,,,,,,,,,,,,,,,,,,,,,,,,,,,,,,,,,,,,,,,,,,,,,,,,,,,,,,,,,,,,,,,,,,,,,,,,,,,,
,,5eadaff848b26f4483ae62d9,2026-03-17_10h23.22.600,kallum_motion_pilot_GIST_update_2,2026.1.1,MacIntel,59.88023952,5eadaff848b26f4483ae62d9,69b92ab4aef6dee357cd729a,69b92b4f3451cb7dd99fc9e9,0.0158,0.0158,0,135,135,9,1,onethree,,,,,,,,,,,,,,,,,,,,,,,,,,,,,,,,,,,,,,,,,,,,,,,,,,,,,,,,,,,,,,,,,,,,,,,,,,,,,,,,,,,,,,,,,,,,,,,,,,,,,,,,,,,,,,,,,,,,,,,,,,,,,,,,,,,,,,,,,
,,5eadaff848b26f4483ae62d9,2026-03-17_10h23.22.600,kallum_motion_pilot_GIST_update_2,2026.1.1,MacIntel,59.88023952,5eadaff848b26f4483ae62d9,69b92ab4aef6dee357cd729a,69b92b4f3451cb7dd99fc9e9,0.0158,0.0158,0,136,136,117,1,seveneight,,,,,,,,,,,,,,,,,,,,,,,,,,,,,,,,,,,,,,,,,,,,,,,,,,,,,,,,,,,,,,,,,,,,,,,,,,,,,,,,,,,,,,,,,,,,,,,,,,,,,,,,,,,,,,,,,,,,,,,,,,,,,,,,,,,,,,,,,
,,5eadaff848b26f4483ae62d9,2026-03-17_10h23.22.600,kallum_motion_pilot_GIST_update_2,2026.1.1,MacIntel,59.88023952,5eadaff848b26f4483ae62d9,69b92ab4aef6dee357cd729a,69b92b4f3451cb7dd99fc9e9,0.0158,0.0159,0,137,137,153,1,fiveseven,,,,,,,,,,,,,,,,,,,,,,,,,,,,,,,,,,,,,,,,,,,,,,,,,,,,,,,,,,,,,,,,,,,,,,,,,,,,,,,,,,,,,,,,,,,,,,,,,,,,,,,,,,,,,,,,,,,,,,,,,,,,,,,,,,,,,,,,,
,,5eadaff848b26f4483ae62d9,2026-03-17_10h23.22.600,kallum_motion_pilot_GIST_update_2,2026.1.1,MacIntel,59.88023952,5eadaff848b26f4483ae62d9,69b92ab4aef6dee357cd729a,69b92b4f3451cb7dd99fc9e9,0.0159,0.0159,0,138,138,8,1,onetwo,,,,,,,,,,,,,,,,,,,,,,,,,,,,,,,,,,,,,,,,,,,,,,,,,,,,,,,,,,,,,,,,,,,,,,,,,,,,,,,,,,,,,,,,,,,,,,,,,,,,,,,,,,,,,,,,,,,,,,,,,,,,,,,,,,,,,,,,,
,,5eadaff848b26f4483ae62d9,2026-03-17_10h23.22.600,kallum_motion_pilot_GIST_update_2,2026.1.1,MacIntel,59.88023952,5eadaff848b26f4483ae62d9,69b92ab4aef6dee357cd729a,69b92b4f3451cb7dd99fc9e9,0.0159,0.0159,0,139,139,114,1,sixfive,,,,,,,,,,,,,,,,,,,,,,,,,,,,,,,,,,,,,,,,,,,,,,,,,,,,,,,,,,,,,,,,,,,,,,,,,,,,,,,,,,,,,,,,,,,,,,,,,,,,,,,,,,,,,,,,,,,,,,,,,,,,,,,,,,,,,,,,,
,,5eadaff848b26f4483ae62d9,2026-03-17_10h23.22.600,kallum_motion_pilot_GIST_update_2,2026.1.1,MacIntel,59.88023952,5eadaff848b26f4483ae62d9,69b92ab4aef6dee357cd729a,69b92b4f3451cb7dd99fc9e9,0.0161,0.0161,0,140,140,152,1,fivesix,,,,,,,,,,,,,,,,,,,,,,,,,,,,,,,,,,,,,,,,,,,,,,,,,,,,,,,,,,,,,,,,,,,,,,,,,,,,,,,,,,,,,,,,,,,,,,,,,,,,,,,,,,,,,,,,,,,,,,,,,,,,,,,,,,,,,,,,,
,,5eadaff848b26f4483ae62d9,2026-03-17_10h23.22.600,kallum_motion_pilot_GIST_update_2,2026.1.1,MacIntel,59.88023952,5eadaff848b26f4483ae62d9,69b92ab4aef6dee357cd729a,69b92b4f3451cb7dd99fc9e9,0.0161,0.0161,0,141,141,141,1,seveneight,,,,,,,,,,,,,,,,,,,,,,,,,,,,,,,,,,,,,,,,,,,,,,,,,,,,,,,,,,,,,,,,,,,,,,,,,,,,,,,,,,,,,,,,,,,,,,,,,,,,,,,,,,,,,,,,,,,,,,,,,,,,,,,,,,,,,,,,,
,,5eadaff848b26f4483ae62d9,2026-03-17_10h23.22.600,kallum_motion_pilot_GIST_update_2,2026.1.1,MacIntel,59.88023952,5eadaff848b26f4483ae62d9,69b92ab4aef6dee357cd729a,69b92b4f3451cb7dd99fc9e9,0.0161,0.0161,0,142,142,35,1,twofour,,,,,,,,,,,,,,,,,,,,,,,,,,,,,,,,,,,,,,,,,,,,,,,,,,,,,,,,,,,,,,,,,,,,,,,,,,,,,,,,,,,,,,,,,,,,,,,,,,,,,,,,,,,,,,,,,,,,,,,,,,,,,,,,,,,,,,,,,
,,5eadaff848b26f4483ae62d9,2026-03-17_10h23.22.600,kallum_motion_pilot_GIST_update_2,2026.1.1,MacIntel,59.88023952,5eadaff848b26f4483ae62d9,69b92ab4aef6dee357cd729a,69b92b4f3451cb7dd99fc9e9,0.0161,0.0161,0,143,143,112,1,fivesix,,,,,,,,,,,,,,,,,,,,,,,,,,,,,,,,,,,,,,,,,,,,,,,,,,,,,,,,,,,,,,,,,,,,,,,,,,,,,,,,,,,,,,,,,,,,,,,,,,,,,,,,,,,,,,,,,,,,,,,,,,,,,,,,,,,,,,,,,
,,5eadaff848b26f4483ae62d9,2026-03-17_10h23.22.600,kallum_motion_pilot_GIST_update_2,2026.1.1,MacIntel,59.88023952,5eadaff848b26f4483ae62d9,69b92ab4aef6dee357cd729a,69b92b4f3451cb7dd99fc9e9,0.0162,0.0162,0,144,144,108,1,sevenfive,,,,,,,,,,,,,,,,,,,,,,,,,,,,,,,,,,,,,,,,,,,,,,,,,,,,,,,,,,,,,,,,,,,,,,,,,,,,,,,,,,,,,,,,,,,,,,,,,,,,,,,,,,,,,,,,,,,,,,,,,,,,,,,,,,,,,,,,,
,,5eadaff848b26f4483ae62d9,2026-03-17_10h23.22.600,kallum_motion_pilot_GIST_update_2,2026.1.1,MacIntel,59.88023952,5eadaff848b26f4483ae62d9,69b92ab4aef6dee357cd729a,69b92b4f3451cb7dd99fc9e9,0.0163,0.0163,0,145,145,37,1,threefour,,,,,,,,,,,,,,,,,,,,,,,,,,,,,,,,,,,,,,,,,,,,,,,,,,,,,,,,,,,,,,,,,,,,,,,,,,,,,,,,,,,,,,,,,,,,,,,,,,,,,,,,,,,,,,,,,,,,,,,,,,,,,,,,,,,,,,,,,
,,5eadaff848b26f4483ae62d9,2026-03-17_10h23.22.600,kallum_motion_pilot_GIST_update_2,2026.1.1,MacIntel,59.88023952,5eadaff848b26f4483ae62d9,69b92ab4aef6dee357cd729a,69b92b4f3451cb7dd99fc9e9,0.0163,0.0163,0,146,146,30,1,fourtwo,,,,,,,,,,,,,,,,,,,,,,,,,,,,,,,,,,,,,,,,,,,,,,,,,,,,,,,,,,,,,,,,,,,,,,,,,,,,,,,,,,,,,,,,,,,,,,,,,,,,,,,,,,,,,,,,,,,,,,,,,,,,,,,,,,,,,,,,,
,,5eadaff848b26f4483ae62d9,2026-03-17_10h23.22.600,kallum_motion_pilot_GIST_update_2,2026.1.1,MacIntel,59.88023952,5eadaff848b26f4483ae62d9,69b92ab4aef6dee357cd729a,69b92b4f3451cb7dd99fc9e9,0.0163,0.0163,0,147,147,85,1,seveneight,,,,,,,,,,,,,,,,,,,,,,,,,,,,,,,,,,,,,,,,,,,,,,,,,,,,,,,,,,,,,,,,,,,,,,,,,,,,,,,,,,,,,,,,,,,,,,,,,,,,,,,,,,,,,,,,,,,,,,,,,,,,,,,,,,,,,,,,,
,,5eadaff848b26f4483ae62d9,2026-03-17_10h23.22.600,kallum_motion_pilot_GIST_update_2,2026.1.1,MacIntel,59.88023952,5eadaff848b26f4483ae62d9,69b92ab4aef6dee357cd729a,69b92b4f3451cb7dd99fc9e9,0.0164,0.0164,0,148,148,70,1,fourtwo,,,,,,,,,,,,,,,,,,,,,,,,,,,,,,,,,,,,,,,,,,,,,,,,,,,,,,,,,,,,,,,,,,,,,,,,,,,,,,,,,,,,,,,,,,,,,,,,,,,,,,,,,,,,,,,,,,,,,,,,,,,,,,,,,,,,,,,,,
,,5eadaff848b26f4483ae62d9,2026-03-17_10h23.22.600,kallum_motion_pilot_GIST_update_2,2026.1.1,MacIntel,59.88023952,5eadaff848b26f4483ae62d9,69b92ab4aef6dee357cd729a,69b92b4f3451cb7dd99fc9e9,0.0164,0.0164,0,149,149,130,1,sixfive,,,,,,,,,,,,,,,,,,,,,,,,,,,,,,,,,,,,,,,,,,,,,,,,,,,,,,,,,,,,,,,,,,,,,,,,,,,,,,,,,,,,,,,,,,,,,,,,,,,,,,,,,,,,,,,,,,,,,,,,,,,,,,,,,,,,,,,,,
,,5eadaff848b26f4483ae62d9,2026-03-17_10h23.22.600,kallum_motion_pilot_GIST_update_2,2026.1.1,MacIntel,59.88023952,5eadaff848b26f4483ae62d9,69b92ab4aef6dee357cd729a,69b92b4f3451cb7dd99fc9e9,0.0165,0.0165,0,150,150,123,1,sixeight,,,,,,,,,,,,,,,,,,,,,,,,,,,,,,,,,,,,,,,,,,,,,,,,,,,,,,,,,,,,,,,,,,,,,,,,,,,,,,,,,,,,,,,,,,,,,,,,,,,,,,,,,,,,,,,,,,,,,,,,,,,,,,,,,,,,,,,,,
,,5eadaff848b26f4483ae62d9,2026-03-17_10h23.22.600,kallum_motion_pilot_GIST_update_2,2026.1.1,MacIntel,59.88023952,5eadaff848b26f4483ae62d9,69b92ab4aef6dee357cd729a,69b92b4f3451cb7dd99fc9e9,0.0165,0.0165,0,151,151,116,1,sevenfive,,,,,,,,,,,,,,,,,,,,,,,,,,,,,,,,,,,,,,,,,,,,,,,,,,,,,,,,,,,,,,,,,,,,,,,,,,,,,,,,,,,,,,,,,,,,,,,,,,,,,,,,,,,,,,,,,,,,,,,,,,,,,,,,,,,,,,,,,
,,5eadaff848b26f4483ae62d9,2026-03-17_10h23.22.600,kallum_motion_pilot_GIST_update_2,2026.1.1,MacIntel,59.88023952,5eadaff848b26f4483ae62d9,69b92ab4aef6dee357cd729a,69b92b4f3451cb7dd99fc9e9,0.0166,0.0166,0,152,152,16,1,onetwo,,,,,,,,,,,,,,,,,,,,,,,,,,,,,,,,,,,,,,,,,,,,,,,,,,,,,,,,,,,,,,,,,,,,,,,,,,,,,,,,,,,,,,,,,,,,,,,,,,,,,,,,,,,,,,,,,,,,,,,,,,,,,,,,,,,,,,,,,
,,5eadaff848b26f4483ae62d9,2026-03-17_10h23.22.600,kallum_motion_pilot_GIST_update_2,2026.1.1,MacIntel,59.88023952,5eadaff848b26f4483ae62d9,69b92ab4aef6dee357cd729a,69b92b4f3451cb7dd99fc9e9,0.0166,0.0166,0,153,153,74,1,twoone,,,,,,,,,,,,,,,,,,,,,,,,,,,,,,,,,,,,,,,,,,,,,,,,,,,,,,,,,,,,,,,,,,,,,,,,,,,,,,,,,,,,,,,,,,,,,,,,,,,,,,,,,,,,,,,,,,,,,,,,,,,,,,,,,,,,,,,,,
,,5eadaff848b26f4483ae62d9,2026-03-17_10h23.22.600,kallum_motion_pilot_GIST_update_2,2026.1.1,MacIntel,59.88023952,5eadaff848b26f4483ae62d9,69b92ab4aef6dee357cd729a,69b92b4f3451cb7dd99fc9e9,0.0166,0.0166,0,154,154,79,1,eightseven,,,,,,,,,,,,,,,,,,,,,,,,,,,,,,,,,,,,,,,,,,,,,,,,,,,,,,,,,,,,,,,,,,,,,,,,,,,,,,,,,,,,,,,,,,,,,,,,,,,,,,,,,,,,,,,,,,,,,,,,,,,,,,,,,,,,,,,,,
,,5eadaff848b26f4483ae62d9,2026-03-17_10h23.22.600,kallum_motion_pilot_GIST_update_2,2026.1.1,MacIntel,59.88023952,5eadaff848b26f4483ae62d9,69b92ab4aef6dee357cd729a,69b92b4f3451cb7dd99fc9e9,0.0167,0.0167,0,155,155,83,1,sixeight,,,,,,,,,,,,,,,,,,,,,,,,,,,,,,,,,,,,,,,,,,,,,,,,,,,,,,,,,,,,,,,,,,,,,,,,,,,,,,,,,,,,,,,,,,,,,,,,,,,,,,,,,,,,,,,,,,,,,,,,,,,,,,,,,,,,,,,,,
,,5eadaff848b26f4483ae62d9,2026-03-17_10h23.22.600,kallum_motion_pilot_GIST_update_2,2026.1.1,MacIntel,59.88023952,5eadaff848b26f4483ae62d9,69b92ab4aef6dee357cd729a,69b92b4f3451cb7dd99fc9e9,0.0168,0.0168,0,156,156,27,1,twofour,,,,,,,,,,,,,,,,,,,,,,,,,,,,,,,,,,,,,,,,,,,,,,,,,,,,,,,,,,,,,,,,,,,,,,,,,,,,,,,,,,,,,,,,,,,,,,,,,,,,,,,,,,,,,,,,,,,,,,,,,,,,,,,,,,,,,,,,,
,,5eadaff848b26f4483ae62d9,2026-03-17_10h23.22.600,kallum_motion_pilot_GIST_update_2,2026.1.1,MacIntel,59.88023952,5eadaff848b26f4483ae62d9,69b92ab4aef6dee357cd729a,69b92b4f3451cb7dd99fc9e9,0.0168,0.0168,0,157,157,155,1,sixeight,,,,,,,,,,,,,,,,,,,,,,,,,,,,,,,,,,,,,,,,,,,,,,,,,,,,,,,,,,,,,,,,,,,,,,,,,,,,,,,,,,,,,,,,,,,,,,,,,,,,,,,,,,,,,,,,,,,,,,,,,,,,,,,,,,,,,,,,,
,,5eadaff848b26f4483ae62d9,2026-03-17_10h23.22.600,kallum_motion_pilot_GIST_update_2,2026.1.1,MacIntel,59.88023952,5eadaff848b26f4483ae62d9,69b92ab4aef6dee357cd729a,69b92b4f3451cb7dd99fc9e9,0.0168,0.0168,0,158,158,157,1,seveneight,,,,,,,,,,,,,,,,,,,,,,,,,,,,,,,,,,,,,,,,,,,,,,,,,,,,,,,,,,,,,,,,,,,,,,,,,,,,,,,,,,,,,,,,,,,,,,,,,,,,,,,,,,,,,,,,,,,,,,,,,,,,,,,,,,,,,,,,,
,,5eadaff848b26f4483ae62d9,2026-03-17_10h23.22.600,kallum_motion_pilot_GIST_update_2,2026.1.1,MacIntel,59.88023952,5eadaff848b26f4483ae62d9,69b92ab4aef6dee357cd729a,69b92b4f3451cb7dd99fc9e9,0.0169,0.0169,0,159,159,103,1,eightseven,,,,,,,,,,,,,,,,,,,,,,,,,,,,,,,,,,,,,,,,,,,,,,,,,,,,,,,,,,,,,,,,,,,,,,,,,,,,,,,,,,,,,,,,,,,,,,,,,,,,,,,,,,,,,,,,,,,,,,,,,,,,,,,,,,,,,,,,,
,,5eadaff848b26f4483ae62d9,2026-03-17_10h23.22.600,kallum_motion_pilot_GIST_update_2,2026.1.1,MacIntel,59.88023952,5eadaff848b26f4483ae62d9,69b92ab4aef6dee357cd729a,69b92b4f3451cb7dd99fc9e9,0.017,0.017,0,160,160,56,1,onetwo,,,,,,,,,,,,,,,,,,,,,,,,,,,,,,,,,,,,,,,,,,,,,,,,,,,,,,,,,,,,,,,,,,,,,,,,,,,,,,,,,,,,,,,,,,,,,,,,,,,,,,,,,,,,,,,,,,,,,,,,,,,,,,,,,,,,,,,,,
,,5eadaff848b26f4483ae62d9,2026-03-17_10h23.22.600,kallum_motion_pilot_GIST_update_2,2026.1.1,MacIntel,59.88023952,5eadaff848b26f4483ae62d9,69b92ab4aef6dee357cd729a,69b92b4f3451cb7dd99fc9e9,0.017,0.017,0,161,161,55,1,fourthree,,,,,,,,,,,,,,,,,,,,,,,,,,,,,,,,,,,,,,,,,,,,,,,,,,,,,,,,,,,,,,,,,,,,,,,,,,,,,,,,,,,,,,,,,,,,,,,,,,,,,,,,,,,,,,,,,,,,,,,,,,,,,,,,,,,,,,,,,
,,5eadaff848b26f4483ae62d9,2026-03-17_10h23.22.600,kallum_motion_pilot_GIST_update_2,2026.1.1,MacIntel,59.88023952,5eadaff848b26f4483ae62d9,69b92ab4aef6dee357cd729a,69b92b4f3451cb7dd99fc9e9,0.017,0.017,1,0,162,123,1,sixeight,,,,,,,,,,,,,,,,,,,,,,,,,,,,,,,,,,,,,,,,,,,,,,,,,,,,,,,,,,,,,,,,,,,,,,,,,,,,,,,,,,,,,,,,,,,,,,,,,,,,,,,,,,,,,,,,,,,,,,,,,,,,,,,,,,,,,,,,,
,,5eadaff848b26f4483ae62d9,2026-03-17_10h23.22.600,kallum_motion_pilot_GIST_update_2,2026.1.1,MacIntel,59.88023952,5eadaff848b26f4483ae62d9,69b92ab4aef6dee357cd729a,69b92b4f3451cb7dd99fc9e9,0.0171,0.0171,1,1,163,86,1,eightsix,,,,,,,,,,,,,,,,,,,,,,,,,,,,,,,,,,,,,,,,,,,,,,,,,,,,,,,,,,,,,,,,,,,,,,,,,,,,,,,,,,,,,,,,,,,,,,,,,,,,,,,,,,,,,,,,,,,,,,,,,,,,,,,,,,,,,,,,,
,,5eadaff848b26f4483ae62d9,2026-03-17_10h23.22.600,kallum_motion_pilot_GIST_update_2,2026.1.1,MacIntel,59.88023952,5eadaff848b26f4483ae62d9,69b92ab4aef6dee357cd729a,69b92b4f3451cb7dd99fc9e9,0.0171,0.0171,1,2,164,76,1,threeone,,,,,,,,,,,,,,,,,,,,,,,,,,,,,,,,,,,,,,,,,,,,,,,,,,,,,,,,,,,,,,,,,,,,,,,,,,,,,,,,,,,,,,,,,,,,,,,,,,,,,,,,,,,,,,,,,,,,,,,,,,,,,,,,,,,,,,,,,
,,5eadaff848b26f4483ae62d9,2026-03-17_10h23.22.600,kallum_motion_pilot_GIST_update_2,2026.1.1,MacIntel,59.88023952,5eadaff848b26f4483ae62d9,69b92ab4aef6dee357cd729a,69b92b4f3451cb7dd99fc9e9,0.0172,0.0172,1,3,165,63,1,fourthree,,,,,,,,,,,,,,,,,,,,,,,,,,,,,,,,,,,,,,,,,,,,,,,,,,,,,,,,,,,,,,,,,,,,,,,,,,,,,,,,,,,,,,,,,,,,,,,,,,,,,,,,,,,,,,,,,,,,,,,,,,,,,,,,,,,,,,,,,
,,5eadaff848b26f4483ae62d9,2026-03-17_10h23.22.600,kallum_motion_pilot_GIST_update_2,2026.1.1,MacIntel,59.88023952,5eadaff848b26f4483ae62d9,69b92ab4aef6dee357cd729a,69b92b4f3451cb7dd99fc9e9,0.0172,0.0172,1,4,166,1,1,onethree,,,,,,,,,,,,,,,,,,,,,,,,,,,,,,,,,,,,,,,,,,,,,,,,,,,,,,,,,,,,,,,,,,,,,,,,,,,,,,,,,,,,,,,,,,,,,,,,,,,,,,,,,,,,,,,,,,,,,,,,,,,,,,,,,,,,,,,,,
,,5eadaff848b26f4483ae62d9,2026-03-17_10h23.22.600,kallum_motion_pilot_GIST_update_2,2026.1.1,MacIntel,59.88023952,5eadaff848b26f4483ae62d9,69b92ab4aef6dee357cd729a,69b92b4f3451cb7dd99fc9e9,0.0173,0.0173,1,5,167,71,1,fourthree,,,,,,,,,,,,,,,,,,,,,,,,,,,,,,,,,,,,,,,,,,,,,,,,,,,,,,,,,,,,,,,,,,,,,,,,,,,,,,,,,,,,,,,,,,,,,,,,,,,,,,,,,,,,,,,,,,,,,,,,,,,,,,,,,,,,,,,,,
,,5eadaff848b26f4483ae62d9,2026-03-17_10h23.22.600,kallum_motion_pilot_GIST_update_2,2026.1.1,MacIntel,59.88023952,5eadaff848b26f4483ae62d9,69b92ab4aef6dee357cd729a,69b92b4f3451cb7dd99fc9e9,0.0173,0.0173,1,6,168,115,1,sixeight,,,,,,,,,,,,,,,,,,,,,,,,,,,,,,,,,,,,,,,,,,,,,,,,,,,,,,,,,,,,,,,,,,,,,,,,,,,,,,,,,,,,,,,,,,,,,,,,,,,,,,,,,,,,,,,,,,,,,,,,,,,,,,,,,,,,,,,,,
,,5eadaff848b26f4483ae62d9,2026-03-17_10h23.22.600,kallum_motion_pilot_GIST_update_2,2026.1.1,MacIntel,59.88023952,5eadaff848b26f4483ae62d9,69b92ab4aef6dee357cd729a,69b92b4f3451cb7dd99fc9e9,0.0173,0.0173,1,7,169,114,1,sixfive,,,,,,,,,,,,,,,,,,,,,,,,,,,,,,,,,,,,,,,,,,,,,,,,,,,,,,,,,,,,,,,,,,,,,,,,,,,,,,,,,,,,,,,,,,,,,,,,,,,,,,,,,,,,,,,,,,,,,,,,,,,,,,,,,,,,,,,,,
,,5eadaff848b26f4483ae62d9,2026-03-17_10h23.22.600,kallum_motion_pilot_GIST_update_2,2026.1.1,MacIntel,59.88023952,5eadaff848b26f4483ae62d9,69b92ab4aef6dee357cd729a,69b92b4f3451cb7dd99fc9e9,0.0175,0.0175,1,8,170,14,1,fourtwo,,,,,,,,,,,,,,,,,,,,,,,,,,,,,,,,,,,,,,,,,,,,,,,,,,,,,,,,,,,,,,,,,,,,,,,,,,,,,,,,,,,,,,,,,,,,,,,,,,,,,,,,,,,,,,,,,,,,,,,,,,,,,,,,,,,,,,,,,
,,5eadaff848b26f4483ae62d9,2026-03-17_10h23.22.600,kallum_motion_pilot_GIST_update_2,2026.1.1,MacIntel,59.88023952,5eadaff848b26f4483ae62d9,69b92ab4aef6dee357cd729a,69b92b4f3451cb7dd99fc9e9,0.0175,0.0175,1,9,171,10,1,twoone,,,,,,,,,,,,,,,,,,,,,,,,,,,,,,,,,,,,,,,,,,,,,,,,,,,,,,,,,,,,,,,,,,,,,,,,,,,,,,,,,,,,,,,,,,,,,,,,,,,,,,,,,,,,,,,,,,,,,,,,,,,,,,,,,,,,,,,,,
,,5eadaff848b26f4483ae62d9,2026-03-17_10h23.22.600,kallum_motion_pilot_GIST_update_2,2026.1.1,MacIntel,59.88023952,5eadaff848b26f4483ae62d9,69b92ab4aef6dee357cd729a,69b92b4f3451cb7dd99fc9e9,0.0175,0.0175,1,10,172,109,1,seveneight,,,,,,,,,,,,,,,,,,,,,,,,,,,,,,,,,,,,,,,,,,,,,,,,,,,,,,,,,,,,,,,,,,,,,,,,,,,,,,,,,,,,,,,,,,,,,,,,,,,,,,,,,,,,,,,,,,,,,,,,,,,,,,,,,,,,,,,,,
,,5eadaff848b26f4483ae62d9,2026-03-17_10h23.22.600,kallum_motion_pilot_GIST_update_2,2026.1.1,MacIntel,59.88023952,5eadaff848b26f4483ae62d9,69b92ab4aef6dee357cd729a,69b92b4f3451cb7dd99fc9e9,0.0176,0.0176,1,11,173,155,1,sixeight,,,,,,,,,,,,,,,,,,,,,,,,,,,,,,,,,,,,,,,,,,,,,,,,,,,,,,,,,,,,,,,,,,,,,,,,,,,,,,,,,,,,,,,,,,,,,,,,,,,,,,,,,,,,,,,,,,,,,,,,,,,,,,,,,,,,,,,,,
,,5eadaff848b26f4483ae62d9,2026-03-17_10h23.22.600,kallum_motion_pilot_GIST_update_2,2026.1.1,MacIntel,59.88023952,5eadaff848b26f4483ae62d9,69b92ab4aef6dee357cd729a,69b92b4f3451cb7dd99fc9e9,0.0176,0.0176,1,12,174,57,1,onethree,,,,,,,,,,,,,,,,,,,,,,,,,,,,,,,,,,,,,,,,,,,,,,,,,,,,,,,,,,,,,,,,,,,,,,,,,,,,,,,,,,,,,,,,,,,,,,,,,,,,,,,,,,,,,,,,,,,,,,,,,,,,,,,,,,,,,,,,,
,,5eadaff848b26f4483ae62d9,2026-03-17_10h23.22.600,kallum_motion_pilot_GIST_update_2,2026.1.1,MacIntel,59.88023952,5eadaff848b26f4483ae62d9,69b92ab4aef6dee357cd729a,69b92b4f3451cb7dd99fc9e9,0.0177,0.0177,1,13,175,89,1,fiveseven,,,,,,,,,,,,,,,,,,,,,,,,,,,,,,,,,,,,,,,,,,,,,,,,,,,,,,,,,,,,,,,,,,,,,,,,,,,,,,,,,,,,,,,,,,,,,,,,,,,,,,,,,,,,,,,,,,,,,,,,,,,,,,,,,,,,,,,,,
,,5eadaff848b26f4483ae62d9,2026-03-17_10h23.22.600,kallum_motion_pilot_GIST_update_2,2026.1.1,MacIntel,59.88023952,5eadaff848b26f4483ae62d9,69b92ab4aef6dee357cd729a,69b92b4f3451cb7dd99fc9e9,0.0177,0.0177,1,14,176,90,1,sixfive,,,,,,,,,,,,,,,,,,,,,,,,,,,,,,,,,,,,,,,,,,,,,,,,,,,,,,,,,,,,,,,,,,,,,,,,,,,,,,,,,,,,,,,,,,,,,,,,,,,,,,,,,,,,,,,,,,,,,,,,,,,,,,,,,,,,,,,,,
,,5eadaff848b26f4483ae62d9,2026-03-17_10h23.22.600,kallum_motion_pilot_GIST_update_2,2026.1.1,MacIntel,59.88023952,5eadaff848b26f4483ae62d9,69b92ab4aef6dee357cd729a,69b92b4f3451cb7dd99fc9e9,0.0178,0.0178,1,15,177,26,1,twoone,,,,,,,,,,,,,,,,,,,,,,,,,,,,,,,,,,,,,,,,,,,,,,,,,,,,,,,,,,,,,,,,,,,,,,,,,,,,,,,,,,,,,,,,,,,,,,,,,,,,,,,,,,,,,,,,,,,,,,,,,,,,,,,,,,,,,,,,,
,,5eadaff848b26f4483ae62d9,2026-03-17_10h23.22.600,kallum_motion_pilot_GIST_update_2,2026.1.1,MacIntel,59.88023952,5eadaff848b26f4483ae62d9,69b92ab4aef6dee357cd729a,69b92b4f3451cb7dd99fc9e9,0.0178,0.0178,1,16,178,55,1,fourthree,,,,,,,,,,,,,,,,,,,,,,,,,,,,,,,,,,,,,,,,,,,,,,,,,,,,,,,,,,,,,,,,,,,,,,,,,,,,,,,,,,,,,,,,,,,,,,,,,,,,,,,,,,,,,,,,,,,,,,,,,,,,,,,,,,,,,,,,,
,,5eadaff848b26f4483ae62d9,2026-03-17_10h23.22.600,kallum_motion_pilot_GIST_update_2,2026.1.1,MacIntel,59.88023952,5eadaff848b26f4483ae62d9,69b92ab4aef6dee357cd729a,69b92b4f3451cb7dd99fc9e9,0.0178,0.0178,1,17,179,106,1,sixfive,,,,,,,,,,,,,,,,,,,,,,,,,,,,,,,,,,,,,,,,,,,,,,,,,,,,,,,,,,,,,,,,,,,,,,,,,,,,,,,,,,,,,,,,,,,,,,,,,,,,,,,,,,,,,,,,,,,,,,,,,,,,,,,,,,,,,,,,,
,,5eadaff848b26f4483ae62d9,2026-03-17_10h23.22.600,kallum_motion_pilot_GIST_update_2,2026.1.1,MacIntel,59.88023952,5eadaff848b26f4483ae62d9,69b92ab4aef6dee357cd729a,69b92b4f3451cb7dd99fc9e9,0.0179,0.0179,1,18,180,23,1,fourthree,,,,,,,,,,,,,,,,,,,,,,,,,,,,,,,,,,,,,,,,,,,,,,,,,,,,,,,,,,,,,,,,,,,,,,,,,,,,,,,,,,,,,,,,,,,,,,,,,,,,,,,,,,,,,,,,,,,,,,,,,,,,,,,,,,,,,,,,,
,,5eadaff848b26f4483ae62d9,2026-03-17_10h23.22.600,kallum_motion_pilot_GIST_update_2,2026.1.1,MacIntel,59.88023952,5eadaff848b26f4483ae62d9,69b92ab4aef6dee357cd729a,69b92b4f3451cb7dd99fc9e9,0.0179,0.0179,1,19,181,139,1,sixeight,,,,,,,,,,,,,,,,,,,,,,,,,,,,,,,,,,,,,,,,,,,,,,,,,,,,,,,,,,,,,,,,,,,,,,,,,,,,,,,,,,,,,,,,,,,,,,,,,,,,,,,,,,,,,,,,,,,,,,,,,,,,,,,,,,,,,,,,,
,,5eadaff848b26f4483ae62d9,2026-03-17_10h23.22.600,kallum_motion_pilot_GIST_update_2,2026.1.1,MacIntel,59.88023952,5eadaff848b26f4483ae62d9,69b92ab4aef6dee357cd729a,69b92b4f3451cb7dd99fc9e9,0.018,0.018,1,20,182,81,1,fiveseven,,,,,,,,,,,,,,,,,,,,,,,,,,,,,,,,,,,,,,,,,,,,,,,,,,,,,,,,,,,,,,,,,,,,,,,,,,,,,,,,,,,,,,,,,,,,,,,,,,,,,,,,,,,,,,,,,,,,,,,,,,,,,,,,,,,,,,,,,
,,5eadaff848b26f4483ae62d9,2026-03-17_10h23.22.600,kallum_motion_pilot_GIST_update_2,2026.1.1,MacIntel,59.88023952,5eadaff848b26f4483ae62d9,69b92ab4aef6dee357cd729a,69b92b4f3451cb7dd99fc9e9,0.018,0.018,1,21,183,134,1,eightsix,,,,,,,,,,,,,,,,,,,,,,,,,,,,,,,,,,,,,,,,,,,,,,,,,,,,,,,,,,,,,,,,,,,,,,,,,,,,,,,,,,,,,,,,,,,,,,,,,,,,,,,,,,,,,,,,,,,,,,,,,,,,,,,,,,,,,,,,,
,,5eadaff848b26f4483ae62d9,2026-03-17_10h23.22.600,kallum_motion_pilot_GIST_update_2,2026.1.1,MacIntel,59.88023952,5eadaff848b26f4483ae62d9,69b92ab4aef6dee357cd729a,69b92b4f3451cb7dd99fc9e9,0.0181,0.0181,1,22,184,111,1,eightseven,,,,,,,,,,,,,,,,,,,,,,,,,,,,,,,,,,,,,,,,,,,,,,,,,,,,,,,,,,,,,,,,,,,,,,,,,,,,,,,,,,,,,,,,,,,,,,,,,,,,,,,,,,,,,,,,,,,,,,,,,,,,,,,,,,,,,,,,,
,,5eadaff848b26f4483ae62d9,2026-03-17_10h23.22.600,kallum_motion_pilot_GIST_update_2,2026.1.1,MacIntel,59.88023952,5eadaff848b26f4483ae62d9,69b92ab4aef6dee357cd729a,69b92b4f3451cb7dd99fc9e9,0.0181,0.0181,1,23,185,91,1,sixeight,,,,,,,,,,,,,,,,,,,,,,,,,,,,,,,,,,,,,,,,,,,,,,,,,,,,,,,,,,,,,,,,,,,,,,,,,,,,,,,,,,,,,,,,,,,,,,,,,,,,,,,,,,,,,,,,,,,,,,,,,,,,,,,,,,,,,,,,,
,,5eadaff848b26f4483ae62d9,2026-03-17_10h23.22.600,kallum_motion_pilot_GIST_update_2,2026.1.1,MacIntel,59.88023952,5eadaff848b26f4483ae62d9,69b92ab4aef6dee357cd729a,69b92b4f3451cb7dd99fc9e9,0.0182,0.0182,1,24,186,99,1,sixeight,,,,,,,,,,,,,,,,,,,,,,,,,,,,,,,,,,,,,,,,,,,,,,,,,,,,,,,,,,,,,,,,,,,,,,,,,,,,,,,,,,,,,,,,,,,,,,,,,,,,,,,,,,,,,,,,,,,,,,,,,,,,,,,,,,,,,,,,,
,,5eadaff848b26f4483ae62d9,2026-03-17_10h23.22.600,kallum_motion_pilot_GIST_update_2,2026.1.1,MacIntel,59.88023952,5eadaff848b26f4483ae62d9,69b92ab4aef6dee357cd729a,69b92b4f3451cb7dd99fc9e9,0.0183,0.0183,1,25,187,15,1,fourthree,,,,,,,,,,,,,,,,,,,,,,,,,,,,,,,,,,,,,,,,,,,,,,,,,,,,,,,,,,,,,,,,,,,,,,,,,,,,,,,,,,,,,,,,,,,,,,,,,,,,,,,,,,,,,,,,,,,,,,,,,,,,,,,,,,,,,,,,,
,,5eadaff848b26f4483ae62d9,2026-03-17_10h23.22.600,kallum_motion_pilot_GIST_update_2,2026.1.1,MacIntel,59.88023952,5eadaff848b26f4483ae62d9,69b92ab4aef6dee357cd729a,69b92b4f3451cb7dd99fc9e9,0.0184,0.0184,1,26,188,103,1,eightseven,,,,,,,,,,,,,,,,,,,,,,,,,,,,,,,,,,,,,,,,,,,,,,,,,,,,,,,,,,,,,,,,,,,,,,,,,,,,,,,,,,,,,,,,,,,,,,,,,,,,,,,,,,,,,,,,,,,,,,,,,,,,,,,,,,,,,,,,,
,,5eadaff848b26f4483ae62d9,2026-03-17_10h23.22.600,kallum_motion_pilot_GIST_update_2,2026.1.1,MacIntel,59.88023952,5eadaff848b26f4483ae62d9,69b92ab4aef6dee357cd729a,69b92b4f3451cb7dd99fc9e9,0.0184,0.0184,1,27,189,68,1,threeone,,,,,,,,,,,,,,,,,,,,,,,,,,,,,,,,,,,,,,,,,,,,,,,,,,,,,,,,,,,,,,,,,,,,,,,,,,,,,,,,,,,,,,,,,,,,,,,,,,,,,,,,,,,,,,,,,,,,,,,,,,,,,,,,,,,,,,,,,
,,5eadaff848b26f4483ae62d9,2026-03-17_10h23.22.600,kallum_motion_pilot_GIST_update_2,2026.1.1,MacIntel,59.88023952,5eadaff848b26f4483ae62d9,69b92ab4aef6dee357cd729a,69b92b4f3451cb7dd99fc9e9,0.0184,0.0184,1,28,190,61,1,threefour,,,,,,,,,,,,,,,,,,,,,,,,,,,,,,,,,,,,,,,,,,,,,,,,,,,,,,,,,,,,,,,,,,,,,,,,,,,,,,,,,,,,,,,,,,,,,,,,,,,,,,,,,,,,,,,,,,,,,,,,,,,,,,,,,,,,,,,,,
,,5eadaff848b26f4483ae62d9,2026-03-17_10h23.22.600,kallum_motion_pilot_GIST_update_2,2026.1.1,MacIntel,59.88023952,5eadaff848b26f4483ae62d9,69b92ab4aef6dee357cd729a,69b92b4f3451cb7dd99fc9e9,0.0185,0.0185,1,29,191,108,1,sevenfive,,,,,,,,,,,,,,,,,,,,,,,,,,,,,,,,,,,,,,,,,,,,,,,,,,,,,,,,,,,,,,,,,,,,,,,,,,,,,,,,,,,,,,,,,,,,,,,,,,,,,,,,,,,,,,,,,,,,,,,,,,,,,,,,,,,,,,,,,
,,5eadaff848b26f4483ae62d9,2026-03-17_10h23.22.600,kallum_motion_pilot_GIST_update_2,2026.1.1,MacIntel,59.88023952,5eadaff848b26f4483ae62d9,69b92ab4aef6dee357cd729a,69b92b4f3451cb7dd99fc9e9,0.0185,0.0185,1,30,192,28,1,threeone,,,,,,,,,,,,,,,,,,,,,,,,,,,,,,,,,,,,,,,,,,,,,,,,,,,,,,,,,,,,,,,,,,,,,,,,,,,,,,,,,,,,,,,,,,,,,,,,,,,,,,,,,,,,,,,,,,,,,,,,,,,,,,,,,,,,,,,,,
,,5eadaff848b26f4483ae62d9,2026-03-17_10h23.22.600,kallum_motion_pilot_GIST_update_2,2026.1.1,MacIntel,59.88023952,5eadaff848b26f4483ae62d9,69b92ab4aef6dee357cd729a,69b92b4f3451cb7dd99fc9e9,0.0186,0.0186,1,31,193,56,1,onetwo,,,,,,,,,,,,,,,,,,,,,,,,,,,,,,,,,,,,,,,,,,,,,,,,,,,,,,,,,,,,,,,,,,,,,,,,,,,,,,,,,,,,,,,,,,,,,,,,,,,,,,,,,,,,,,,,,,,,,,,,,,,,,,,,,,,,,,,,,
,,5eadaff848b26f4483ae62d9,2026-03-17_10h23.22.600,kallum_motion_pilot_GIST_update_2,2026.1.1,MacIntel,59.88023952,5eadaff848b26f4483ae62d9,69b92ab4aef6dee357cd729a,69b92b4f3451cb7dd99fc9e9,0.0187,0.0187,1,32,194,137,1,fiveseven,,,,,,,,,,,,,,,,,,,,,,,,,,,,,,,,,,,,,,,,,,,,,,,,,,,,,,,,,,,,,,,,,,,,,,,,,,,,,,,,,,,,,,,,,,,,,,,,,,,,,,,,,,,,,,,,,,,,,,,,,,,,,,,,,,,,,,,,,
,,5eadaff848b26f4483ae62d9,2026-03-17_10h23.22.600,kallum_motion_pilot_GIST_update_2,2026.1.1,MacIntel,59.88023952,5eadaff848b26f4483ae62d9,69b92ab4aef6dee357cd729a,69b92b4f3451cb7dd99fc9e9,0.0187,0.0187,1,33,195,126,1,eightsix,,,,,,,,,,,,,,,,,,,,,,,,,,,,,,,,,,,,,,,,,,,,,,,,,,,,,,,,,,,,,,,,,,,,,,,,,,,,,,,,,,,,,,,,,,,,,,,,,,,,,,,,,,,,,,,,,,,,,,,,,,,,,,,,,,,,,,,,,
,,5eadaff848b26f4483ae62d9,2026-03-17_10h23.22.600,kallum_motion_pilot_GIST_update_2,2026.1.1,MacIntel,59.88023952,5eadaff848b26f4483ae62d9,69b92ab4aef6dee357cd729a,69b92b4f3451cb7dd99fc9e9,0.0188,0.0188,1,34,196,50,1,twoone,,,,,,,,,,,,,,,,,,,,,,,,,,,,,,,,,,,,,,,,,,,,,,,,,,,,,,,,,,,,,,,,,,,,,,,,,,,,,,,,,,,,,,,,,,,,,,,,,,,,,,,,,,,,,,,,,,,,,,,,,,,,,,,,,,,,,,,,,
,,5eadaff848b26f4483ae62d9,2026-03-17_10h23.22.600,kallum_motion_pilot_GIST_update_2,2026.1.1,MacIntel,59.88023952,5eadaff848b26f4483ae62d9,69b92ab4aef6dee357cd729a,69b92b4f3451cb7dd99fc9e9,0.0188,0.0188,1,35,197,37,1,threefour,,,,,,,,,,,,,,,,,,,,,,,,,,,,,,,,,,,,,,,,,,,,,,,,,,,,,,,,,,,,,,,,,,,,,,,,,,,,,,,,,,,,,,,,,,,,,,,,,,,,,,,,,,,,,,,,,,,,,,,,,,,,,,,,,,,,,,,,,
,,5eadaff848b26f4483ae62d9,2026-03-17_10h23.22.600,kallum_motion_pilot_GIST_update_2,2026.1.1,MacIntel,59.88023952,5eadaff848b26f4483ae62d9,69b92ab4aef6dee357cd729a,69b92b4f3451cb7dd99fc9e9,0.0189,0.0189,1,36,198,48,1,onetwo,,,,,,,,,,,,,,,,,,,,,,,,,,,,,,,,,,,,,,,,,,,,,,,,,,,,,,,,,,,,,,,,,,,,,,,,,,,,,,,,,,,,,,,,,,,,,,,,,,,,,,,,,,,,,,,,,,,,,,,,,,,,,,,,,,,,,,,,,
,,5eadaff848b26f4483ae62d9,2026-03-17_10h23.22.600,kallum_motion_pilot_GIST_update_2,2026.1.1,MacIntel,59.88023952,5eadaff848b26f4483ae62d9,69b92ab4aef6dee357cd729a,69b92b4f3451cb7dd99fc9e9,0.0189,0.0189,1,37,199,19,1,twofour,,,,,,,,,,,,,,,,,,,,,,,,,,,,,,,,,,,,,,,,,,,,,,,,,,,,,,,,,,,,,,,,,,,,,,,,,,,,,,,,,,,,,,,,,,,,,,,,,,,,,,,,,,,,,,,,,,,,,,,,,,,,,,,,,,,,,,,,,
,,5eadaff848b26f4483ae62d9,2026-03-17_10h23.22.600,kallum_motion_pilot_GIST_update_2,2026.1.1,MacIntel,59.88023952,5eadaff848b26f4483ae62d9,69b92ab4aef6dee357cd729a,69b92b4f3451cb7dd99fc9e9,0.019,0.019,1,38,200,70,1,fourtwo,,,,,,,,,,,,,,,,,,,,,,,,,,,,,,,,,,,,,,,,,,,,,,,,,,,,,,,,,,,,,,,,,,,,,,,,,,,,,,,,,,,,,,,,,,,,,,,,,,,,,,,,,,,,,,,,,,,,,,,,,,,,,,,,,,,,,,,,,
,,5eadaff848b26f4483ae62d9,2026-03-17_10h23.22.600,kallum_motion_pilot_GIST_update_2,2026.1.1,MacIntel,59.88023952,5eadaff848b26f4483ae62d9,69b92ab4aef6dee357cd729a,69b92b4f3451cb7dd99fc9e9,0.019,0.019,1,39,201,136,1,fivesix,,,,,,,,,,,,,,,,,,,,,,,,,,,,,,,,,,,,,,,,,,,,,,,,,,,,,,,,,,,,,,,,,,,,,,,,,,,,,,,,,,,,,,,,,,,,,,,,,,,,,,,,,,,,,,,,,,,,,,,,,,,,,,,,,,,,,,,,,
,,5eadaff848b26f4483ae62d9,2026-03-17_10h23.22.600,kallum_motion_pilot_GIST_update_2,2026.1.1,MacIntel,59.88023952,5eadaff848b26f4483ae62d9,69b92ab4aef6dee357cd729a,69b92b4f3451cb7dd99fc9e9,0.0191,0.0191,1,40,202,130,1,sixfive,,,,,,,,,,,,,,,,,,,,,,,,,,,,,,,,,,,,,,,,,,,,,,,,,,,,,,,,,,,,,,,,,,,,,,,,,,,,,,,,,,,,,,,,,,,,,,,,,,,,,,,,,,,,,,,,,,,,,,,,,,,,,,,,,,,,,,,,,
,,5eadaff848b26f4483ae62d9,2026-03-17_10h23.22.600,kallum_motion_pilot_GIST_update_2,2026.1.1,MacIntel,59.88023952,5eadaff848b26f4483ae62d9,69b92ab4aef6dee357cd729a,69b92b4f3451cb7dd99fc9e9,0.0192,0.0192,1,41,203,127,1,eightseven,,,,,,,,,,,,,,,,,,,,,,,,,,,,,,,,,,,,,,,,,,,,,,,,,,,,,,,,,,,,,,,,,,,,,,,,,,,,,,,,,,,,,,,,,,,,,,,,,,,,,,,,,,,,,,,,,,,,,,,,,,,,,,,,,,,,,,,,,
,,5eadaff848b26f4483ae62d9,2026-03-17_10h23.22.600,kallum_motion_pilot_GIST_update_2,2026.1.1,MacIntel,59.88023952,5eadaff848b26f4483ae62d9,69b92ab4aef6dee357cd729a,69b92b4f3451cb7dd99fc9e9,0.0192,0.0192,1,42,204,66,1,twoone,,,,,,,,,,,,,,,,,,,,,,,,,,,,,,,,,,,,,,,,,,,,,,,,,,,,,,,,,,,,,,,,,,,,,,,,,,,,,,,,,,,,,,,,,,,,,,,,,,,,,,,,,,,,,,,,,,,,,,,,,,,,,,,,,,,,,,,,,
,,5eadaff848b26f4483ae62d9,2026-03-17_10h23.22.600,kallum_motion_pilot_GIST_update_2,2026.1.1,MacIntel,59.88023952,5eadaff848b26f4483ae62d9,69b92ab4aef6dee357cd729a,69b92b4f3451cb7dd99fc9e9,0.0192,0.0192,1,43,205,11,1,twofour,,,,,,,,,,,,,,,,,,,,,,,,,,,,,,,,,,,,,,,,,,,,,,,,,,,,,,,,,,,,,,,,,,,,,,,,,,,,,,,,,,,,,,,,,,,,,,,,,,,,,,,,,,,,,,,,,,,,,,,,,,,,,,,,,,,,,,,,,
,,5eadaff848b26f4483ae62d9,2026-03-17_10h23.22.600,kallum_motion_pilot_GIST_update_2,2026.1.1,MacIntel,59.88023952,5eadaff848b26f4483ae62d9,69b92ab4aef6dee357cd729a,69b92b4f3451cb7dd99fc9e9,0.0193,0.0193,1,44,206,104,1,fivesix,,,,,,,,,,,,,,,,,,,,,,,,,,,,,,,,,,,,,,,,,,,,,,,,,,,,,,,,,,,,,,,,,,,,,,,,,,,,,,,,,,,,,,,,,,,,,,,,,,,,,,,,,,,,,,,,,,,,,,,,,,,,,,,,,,,,,,,,,
,,5eadaff848b26f4483ae62d9,2026-03-17_10h23.22.600,kallum_motion_pilot_GIST_update_2,2026.1.1,MacIntel,59.88023952,5eadaff848b26f4483ae62d9,69b92ab4aef6dee357cd729a,69b92b4f3451cb7dd99fc9e9,0.0194,0.0194,1,45,207,31,1,fourthree,,,,,,,,,,,,,,,,,,,,,,,,,,,,,,,,,,,,,,,,,,,,,,,,,,,,,,,,,,,,,,,,,,,,,,,,,,,,,,,,,,,,,,,,,,,,,,,,,,,,,,,,,,,,,,,,,,,,,,,,,,,,,,,,,,,,,,,,,
,,5eadaff848b26f4483ae62d9,2026-03-17_10h23.22.600,kallum_motion_pilot_GIST_update_2,2026.1.1,MacIntel,59.88023952,5eadaff848b26f4483ae62d9,69b92ab4aef6dee357cd729a,69b92b4f3451cb7dd99fc9e9,0.0195,0.0195,1,46,208,20,1,threeone,,,,,,,,,,,,,,,,,,,,,,,,,,,,,,,,,,,,,,,,,,,,,,,,,,,,,,,,,,,,,,,,,,,,,,,,,,,,,,,,,,,,,,,,,,,,,,,,,,,,,,,,,,,,,,,,,,,,,,,,,,,,,,,,,,,,,,,,,
,,5eadaff848b26f4483ae62d9,2026-03-17_10h23.22.600,kallum_motion_pilot_GIST_update_2,2026.1.1,MacIntel,59.88023952,5eadaff848b26f4483ae62d9,69b92ab4aef6dee357cd729a,69b92b4f3451cb7dd99fc9e9,0.0195,0.0195,1,47,209,101,1,seveneight,,,,,,,,,,,,,,,,,,,,,,,,,,,,,,,,,,,,,,,,,,,,,,,,,,,,,,,,,,,,,,,,,,,,,,,,,,,,,,,,,,,,,,,,,,,,,,,,,,,,,,,,,,,,,,,,,,,,,,,,,,,,,,,,,,,,,,,,,
,,5eadaff848b26f4483ae62d9,2026-03-17_10h23.22.600,kallum_motion_pilot_GIST_update_2,2026.1.1,MacIntel,59.88023952,5eadaff848b26f4483ae62d9,69b92ab4aef6dee357cd729a,69b92b4f3451cb7dd99fc9e9,0.0195,0.0195,1,48,210,77,1,threefour,,,,,,,,,,,,,,,,,,,,,,,,,,,,,,,,,,,,,,,,,,,,,,,,,,,,,,,,,,,,,,,,,,,,,,,,,,,,,,,,,,,,,,,,,,,,,,,,,,,,,,,,,,,,,,,,,,,,,,,,,,,,,,,,,,,,,,,,,
,,5eadaff848b26f4483ae62d9,2026-03-17_10h23.22.600,kallum_motion_pilot_GIST_update_2,2026.1.1,MacIntel,59.88023952,5eadaff848b26f4483ae62d9,69b92ab4aef6dee357cd729a,69b92b4f3451cb7dd99fc9e9,0.0196,0.0196,1,49,211,92,1,sevenfive,,,,,,,,,,,,,,,,,,,,,,,,,,,,,,,,,,,,,,,,,,,,,,,,,,,,,,,,,,,,,,,,,,,,,,,,,,,,,,,,,,,,,,,,,,,,,,,,,,,,,,,,,,,,,,,,,,,,,,,,,,,,,,,,,,,,,,,,,
,,5eadaff848b26f4483ae62d9,2026-03-17_10h23.22.600,kallum_motion_pilot_GIST_update_2,2026.1.1,MacIntel,59.88023952,5eadaff848b26f4483ae62d9,69b92ab4aef6dee357cd729a,69b92b4f3451cb7dd99fc9e9,0.0196,0.0196,1,50,212,69,1,threefour,,,,,,,,,,,,,,,,,,,,,,,,,,,,,,,,,,,,,,,,,,,,,,,,,,,,,,,,,,,,,,,,,,,,,,,,,,,,,,,,,,,,,,,,,,,,,,,,,,,,,,,,,,,,,,,,,,,,,,,,,,,,,,,,,,,,,,,,,
,,5eadaff848b26f4483ae62d9,2026-03-17_10h23.22.600,kallum_motion_pilot_GIST_update_2,2026.1.1,MacIntel,59.88023952,5eadaff848b26f4483ae62d9,69b92ab4aef6dee357cd729a,69b92b4f3451cb7dd99fc9e9,0.0196,0.0196,1,51,213,24,1,onetwo,,,,,,,,,,,,,,,,,,,,,,,,,,,,,,,,,,,,,,,,,,,,,,,,,,,,,,,,,,,,,,,,,,,,,,,,,,,,,,,,,,,,,,,,,,,,,,,,,,,,,,,,,,,,,,,,,,,,,,,,,,,,,,,,,,,,,,,,,
,,5eadaff848b26f4483ae62d9,2026-03-17_10h23.22.600,kallum_motion_pilot_GIST_update_2,2026.1.1,MacIntel,59.88023952,5eadaff848b26f4483ae62d9,69b92ab4aef6dee357cd729a,69b92b4f3451cb7dd99fc9e9,0.0197,0.0197,1,52,214,124,1,sevenfive,,,,,,,,,,,,,,,,,,,,,,,,,,,,,,,,,,,,,,,,,,,,,,,,,,,,,,,,,,,,,,,,,,,,,,,,,,,,,,,,,,,,,,,,,,,,,,,,,,,,,,,,,,,,,,,,,,,,,,,,,,,,,,,,,,,,,,,,,
,,5eadaff848b26f4483ae62d9,2026-03-17_10h23.22.600,kallum_motion_pilot_GIST_update_2,2026.1.1,MacIntel,59.88023952,5eadaff848b26f4483ae62d9,69b92ab4aef6dee357cd729a,69b92b4f3451cb7dd99fc9e9,0.0197,0.0197,1,53,215,44,1,threeone,,,,,,,,,,,,,,,,,,,,,,,,,,,,,,,,,,,,,,,,,,,,,,,,,,,,,,,,,,,,,,,,,,,,,,,,,,,,,,,,,,,,,,,,,,,,,,,,,,,,,,,,,,,,,,,,,,,,,,,,,,,,,,,,,,,,,,,,,
,,5eadaff848b26f4483ae62d9,2026-03-17_10h23.22.600,kallum_motion_pilot_GIST_update_2,2026.1.1,MacIntel,59.88023952,5eadaff848b26f4483ae62d9,69b92ab4aef6dee357cd729a,69b92b4f3451cb7dd99fc9e9,0.0199,0.0199,1,54,216,102,1,eightsix,,,,,,,,,,,,,,,,,,,,,,,,,,,,,,,,,,,,,,,,,,,,,,,,,,,,,,,,,,,,,,,,,,,,,,,,,,,,,,,,,,,,,,,,,,,,,,,,,,,,,,,,,,,,,,,,,,,,,,,,,,,,,,,,,,,,,,,,,
,,5eadaff848b26f4483ae62d9,2026-03-17_10h23.22.600,kallum_motion_pilot_GIST_update_2,2026.1.1,MacIntel,59.88023952,5eadaff848b26f4483ae62d9,69b92ab4aef6dee357cd729a,69b92b4f3451cb7dd99fc9e9,0.0199,0.0199,1,55,217,112,1,fivesix,,,,,,,,,,,,,,,,,,,,,,,,,,,,,,,,,,,,,,,,,,,,,,,,,,,,,,,,,,,,,,,,,,,,,,,,,,,,,,,,,,,,,,,,,,,,,,,,,,,,,,,,,,,,,,,,,,,,,,,,,,,,,,,,,,,,,,,,,
,,5eadaff848b26f4483ae62d9,2026-03-17_10h23.22.600,kallum_motion_pilot_GIST_update_2,2026.1.1,MacIntel,59.88023952,5eadaff848b26f4483ae62d9,69b92ab4aef6dee357cd729a,69b92b4f3451cb7dd99fc9e9,0.0199,0.0199,1,56,218,113,1,fiveseven,,,,,,,,,,,,,,,,,,,,,,,,,,,,,,,,,,,,,,,,,,,,,,,,,,,,,,,,,,,,,,,,,,,,,,,,,,,,,,,,,,,,,,,,,,,,,,,,,,,,,,,,,,,,,,,,,,,,,,,,,,,,,,,,,,,,,,,,,
,,5eadaff848b26f4483ae62d9,2026-03-17_10h23.22.600,kallum_motion_pilot_GIST_update_2,2026.1.1,MacIntel,59.88023952,5eadaff848b26f4483ae62d9,69b92ab4aef6dee357cd729a,69b92b4f3451cb7dd99fc9e9,0.02,0.02,1,57,219,110,1,eightsix,,,,,,,,,,,,,,,,,,,,,,,,,,,,,,,,,,,,,,,,,,,,,,,,,,,,,,,,,,,,,,,,,,,,,,,,,,,,,,,,,,,,,,,,,,,,,,,,,,,,,,,,,,,,,,,,,,,,,,,,,,,,,,,,,,,,,,,,,
,,5eadaff848b26f4483ae62d9,2026-03-17_10h23.22.600,kallum_motion_pilot_GIST_update_2,2026.1.1,MacIntel,59.88023952,5eadaff848b26f4483ae62d9,69b92ab4aef6dee357cd729a,69b92b4f3451cb7dd99fc9e9,0.0201,0.0201,1,58,220,160,1,fivesix,,,,,,,,,,,,,,,,,,,,,,,,,,,,,,,,,,,,,,,,,,,,,,,,,,,,,,,,,,,,,,,,,,,,,,,,,,,,,,,,,,,,,,,,,,,,,,,,,,,,,,,,,,,,,,,,,,,,,,,,,,,,,,,,,,,,,,,,,
,,5eadaff848b26f4483ae62d9,2026-03-17_10h23.22.600,kallum_motion_pilot_GIST_update_2,2026.1.1,MacIntel,59.88023952,5eadaff848b26f4483ae62d9,69b92ab4aef6dee357cd729a,69b92b4f3451cb7dd99fc9e9,0.0201,0.0201,1,59,221,148,1,sevenfive,,,,,,,,,,,,,,,,,,,,,,,,,,,,,,,,,,,,,,,,,,,,,,,,,,,,,,,,,,,,,,,,,,,,,,,,,,,,,,,,,,,,,,,,,,,,,,,,,,,,,,,,,,,,,,,,,,,,,,,,,,,,,,,,,,,,,,,,,
,,5eadaff848b26f4483ae62d9,2026-03-17_10h23.22.600,kallum_motion_pilot_GIST_update_2,2026.1.1,MacIntel,59.88023952,5eadaff848b26f4483ae62d9,69b92ab4aef6dee357cd729a,69b92b4f3451cb7dd99fc9e9,0.0201,0.0201,1,60,222,60,1,threeone,,,,,,,,,,,,,,,,,,,,,,,,,,,,,,,,,,,,,,,,,,,,,,,,,,,,,,,,,,,,,,,,,,,,,,,,,,,,,,,,,,,,,,,,,,,,,,,,,,,,,,,,,,,,,,,,,,,,,,,,,,,,,,,,,,,,,,,,,
,,5eadaff848b26f4483ae62d9,2026-03-17_10h23.22.600,kallum_motion_pilot_GIST_update_2,2026.1.1,MacIntel,59.88023952,5eadaff848b26f4483ae62d9,69b92ab4aef6dee357cd729a,69b92b4f3451cb7dd99fc9e9,0.0202,0.0202,1,61,223,107,1,sixeight,,,,,,,,,,,,,,,,,,,,,,,,,,,,,,,,,,,,,,,,,,,,,,,,,,,,,,,,,,,,,,,,,,,,,,,,,,,,,,,,,,,,,,,,,,,,,,,,,,,,,,,,,,,,,,,,,,,,,,,,,,,,,,,,,,,,,,,,,
,,5eadaff848b26f4483ae62d9,2026-03-17_10h23.22.600,kallum_motion_pilot_GIST_update_2,2026.1.1,MacIntel,59.88023952,5eadaff848b26f4483ae62d9,69b92ab4aef6dee357cd729a,69b92b4f3451cb7dd99fc9e9,0.0202,0.0203,1,62,224,156,1,sevenfive,,,,,,,,,,,,,,,,,,,,,,,,,,,,,,,,,,,,,,,,,,,,,,,,,,,,,,,,,,,,,,,,,,,,,,,,,,,,,,,,,,,,,,,,,,,,,,,,,,,,,,,,,,,,,,,,,,,,,,,,,,,,,,,,,,,,,,,,,
,,5eadaff848b26f4483ae62d9,2026-03-17_10h23.22.600,kallum_motion_pilot_GIST_update_2,2026.1.1,MacIntel,59.88023952,5eadaff848b26f4483ae62d9,69b92ab4aef6dee357cd729a,69b92b4f3451cb7dd99fc9e9,0.0203,0.0203,1,63,225,8,1,onetwo,,,,,,,,,,,,,,,,,,,,,,,,,,,,,,,,,,,,,,,,,,,,,,,,,,,,,,,,,,,,,,,,,,,,,,,,,,,,,,,,,,,,,,,,,,,,,,,,,,,,,,,,,,,,,,,,,,,,,,,,,,,,,,,,,,,,,,,,,
,,5eadaff848b26f4483ae62d9,2026-03-17_10h23.22.600,kallum_motion_pilot_GIST_update_2,2026.1.1,MacIntel,59.88023952,5eadaff848b26f4483ae62d9,69b92ab4aef6dee357cd729a,69b92b4f3451cb7dd99fc9e9,0.0204,0.0204,1,64,226,154,1,sixfive,,,,,,,,,,,,,,,,,,,,,,,,,,,,,,,,,,,,,,,,,,,,,,,,,,,,,,,,,,,,,,,,,,,,,,,,,,,,,,,,,,,,,,,,,,,,,,,,,,,,,,,,,,,,,,,,,,,,,,,,,,,,,,,,,,,,,,,,,
,,5eadaff848b26f4483ae62d9,2026-03-17_10h23.22.600,kallum_motion_pilot_GIST_update_2,2026.1.1,MacIntel,59.88023952,5eadaff848b26f4483ae62d9,69b92ab4aef6dee357cd729a,69b92b4f3451cb7dd99fc9e9,0.0204,0.0204,1,65,227,118,1,eightsix,,,,,,,,,,,,,,,,,,,,,,,,,,,,,,,,,,,,,,,,,,,,,,,,,,,,,,,,,,,,,,,,,,,,,,,,,,,,,,,,,,,,,,,,,,,,,,,,,,,,,,,,,,,,,,,,,,,,,,,,,,,,,,,,,,,,,,,,,
,,5eadaff848b26f4483ae62d9,2026-03-17_10h23.22.600,kallum_motion_pilot_GIST_update_2,2026.1.1,MacIntel,59.88023952,5eadaff848b26f4483ae62d9,69b92ab4aef6dee357cd729a,69b92b4f3451cb7dd99fc9e9,0.0205,0.0205,1,66,228,59,1,twofour,,,,,,,,,,,,,,,,,,,,,,,,,,,,,,,,,,,,,,,,,,,,,,,,,,,,,,,,,,,,,,,,,,,,,,,,,,,,,,,,,,,,,,,,,,,,,,,,,,,,,,,,,,,,,,,,,,,,,,,,,,,,,,,,,,,,,,,,,
,,5eadaff848b26f4483ae62d9,2026-03-17_10h23.22.600,kallum_motion_pilot_GIST_update_2,2026.1.1,MacIntel,59.88023952,5eadaff848b26f4483ae62d9,69b92ab4aef6dee357cd729a,69b92b4f3451cb7dd99fc9e9,0.0205,0.0205,1,67,229,161,1,fiveseven,,,,,,,,,,,,,,,,,,,,,,,,,,,,,,,,,,,,,,,,,,,,,,,,,,,,,,,,,,,,,,,,,,,,,,,,,,,,,,,,,,,,,,,,,,,,,,,,,,,,,,,,,,,,,,,,,,,,,,,,,,,,,,,,,,,,,,,,,
,,5eadaff848b26f4483ae62d9,2026-03-17_10h23.22.600,kallum_motion_pilot_GIST_update_2,2026.1.1,MacIntel,59.88023952,5eadaff848b26f4483ae62d9,69b92ab4aef6dee357cd729a,69b92b4f3451cb7dd99fc9e9,0.0205,0.0205,1,68,230,94,1,eightsix,,,,,,,,,,,,,,,,,,,,,,,,,,,,,,,,,,,,,,,,,,,,,,,,,,,,,,,,,,,,,,,,,,,,,,,,,,,,,,,,,,,,,,,,,,,,,,,,,,,,,,,,,,,,,,,,,,,,,,,,,,,,,,,,,,,,,,,,,
,,5eadaff848b26f4483ae62d9,2026-03-17_10h23.22.600,kallum_motion_pilot_GIST_update_2,2026.1.1,MacIntel,59.88023952,5eadaff848b26f4483ae62d9,69b92ab4aef6dee357cd729a,69b92b4f3451cb7dd99fc9e9,0.0205,0.0205,1,69,231,21,1,threefour,,,,,,,,,,,,,,,,,,,,,,,,,,,,,,,,,,,,,,,,,,,,,,,,,,,,,,,,,,,,,,,,,,,,,,,,,,,,,,,,,,,,,,,,,,,,,,,,,,,,,,,,,,,,,,,,,,,,,,,,,,,,,,,,,,,,,,,,,
,,5eadaff848b26f4483ae62d9,2026-03-17_10h23.22.600,kallum_motion_pilot_GIST_update_2,2026.1.1,MacIntel,59.88023952,5eadaff848b26f4483ae62d9,69b92ab4aef6dee357cd729a,69b92b4f3451cb7dd99fc9e9,0.0206,0.0206,1,70,232,32,1,onetwo,,,,,,,,,,,,,,,,,,,,,,,,,,,,,,,,,,,,,,,,,,,,,,,,,,,,,,,,,,,,,,,,,,,,,,,,,,,,,,,,,,,,,,,,,,,,,,,,,,,,,,,,,,,,,,,,,,,,,,,,,,,,,,,,,,,,,,,,,
,,5eadaff848b26f4483ae62d9,2026-03-17_10h23.22.600,kallum_motion_pilot_GIST_update_2,2026.1.1,MacIntel,59.88023952,5eadaff848b26f4483ae62d9,69b92ab4aef6dee357cd729a,69b92b4f3451cb7dd99fc9e9,0.0207,0.0207,1,71,233,122,1,sixfive,,,,,,,,,,,,,,,,,,,,,,,,,,,,,,,,,,,,,,,,,,,,,,,,,,,,,,,,,,,,,,,,,,,,,,,,,,,,,,,,,,,,,,,,,,,,,,,,,,,,,,,,,,,,,,,,,,,,,,,,,,,,,,,,,,,,,,,,,
,,5eadaff848b26f4483ae62d9,2026-03-17_10h23.22.600,kallum_motion_pilot_GIST_update_2,2026.1.1,MacIntel,59.88023952,5eadaff848b26f4483ae62d9,69b92ab4aef6dee357cd729a,69b92b4f3451cb7dd99fc9e9,0.0207,0.0207,1,72,234,93,1,seveneight,,,,,,,,,,,,,,,,,,,,,,,,,,,,,,,,,,,,,,,,,,,,,,,,,,,,,,,,,,,,,,,,,,,,,,,,,,,,,,,,,,,,,,,,,,,,,,,,,,,,,,,,,,,,,,,,,,,,,,,,,,,,,,,,,,,,,,,,,
,,5eadaff848b26f4483ae62d9,2026-03-17_10h23.22.600,kallum_motion_pilot_GIST_update_2,2026.1.1,MacIntel,59.88023952,5eadaff848b26f4483ae62d9,69b92ab4aef6dee357cd729a,69b92b4f3451cb7dd99fc9e9,0.0208,0.0208,1,73,235,67,1,twofour,,,,,,,,,,,,,,,,,,,,,,,,,,,,,,,,,,,,,,,,,,,,,,,,,,,,,,,,,,,,,,,,,,,,,,,,,,,,,,,,,,,,,,,,,,,,,,,,,,,,,,,,,,,,,,,,,,,,,,,,,,,,,,,,,,,,,,,,,
,,5eadaff848b26f4483ae62d9,2026-03-17_10h23.22.600,kallum_motion_pilot_GIST_update_2,2026.1.1,MacIntel,59.88023952,5eadaff848b26f4483ae62d9,69b92ab4aef6dee357cd729a,69b92b4f3451cb7dd99fc9e9,0.0208,0.0208,1,74,236,157,1,seveneight,,,,,,,,,,,,,,,,,,,,,,,,,,,,,,,,,,,,,,,,,,,,,,,,,,,,,,,,,,,,,,,,,,,,,,,,,,,,,,,,,,,,,,,,,,,,,,,,,,,,,,,,,,,,,,,,,,,,,,,,,,,,,,,,,,,,,,,,,
,,5eadaff848b26f4483ae62d9,2026-03-17_10h23.22.600,kallum_motion_pilot_GIST_update_2,2026.1.1,MacIntel,59.88023952,5eadaff848b26f4483ae62d9,69b92ab4aef6dee357cd729a,69b92b4f3451cb7dd99fc9e9,0.0209,0.0209,1,75,237,147,1,sixeight,,,,,,,,,,,,,,,,,,,,,,,,,,,,,,,,,,,,,,,,,,,,,,,,,,,,,,,,,,,,,,,,,,,,,,,,,,,,,,,,,,,,,,,,,,,,,,,,,,,,,,,,,,,,,,,,,,,,,,,,,,,,,,,,,,,,,,,,,
,,5eadaff848b26f4483ae62d9,2026-03-17_10h23.22.600,kallum_motion_pilot_GIST_update_2,2026.1.1,MacIntel,59.88023952,5eadaff848b26f4483ae62d9,69b92ab4aef6dee357cd729a,69b92b4f3451cb7dd99fc9e9,0.0209,0.0209,1,76,238,79,1,eightseven,,,,,,,,,,,,,,,,,,,,,,,,,,,,,,,,,,,,,,,,,,,,,,,,,,,,,,,,,,,,,,,,,,,,,,,,,,,,,,,,,,,,,,,,,,,,,,,,,,,,,,,,,,,,,,,,,,,,,,,,,,,,,,,,,,,,,,,,,
,,5eadaff848b26f4483ae62d9,2026-03-17_10h23.22.600,kallum_motion_pilot_GIST_update_2,2026.1.1,MacIntel,59.88023952,5eadaff848b26f4483ae62d9,69b92ab4aef6dee357cd729a,69b92b4f3451cb7dd99fc9e9,0.021,0.021,1,77,239,95,1,eightseven,,,,,,,,,,,,,,,,,,,,,,,,,,,,,,,,,,,,,,,,,,,,,,,,,,,,,,,,,,,,,,,,,,,,,,,,,,,,,,,,,,,,,,,,,,,,,,,,,,,,,,,,,,,,,,,,,,,,,,,,,,,,,,,,,,,,,,,,,
,,5eadaff848b26f4483ae62d9,2026-03-17_10h23.22.600,kallum_motion_pilot_GIST_update_2,2026.1.1,MacIntel,59.88023952,5eadaff848b26f4483ae62d9,69b92ab4aef6dee357cd729a,69b92b4f3451cb7dd99fc9e9,0.021,0.021,1,78,240,105,1,fiveseven,,,,,,,,,,,,,,,,,,,,,,,,,,,,,,,,,,,,,,,,,,,,,,,,,,,,,,,,,,,,,,,,,,,,,,,,,,,,,,,,,,,,,,,,,,,,,,,,,,,,,,,,,,,,,,,,,,,,,,,,,,,,,,,,,,,,,,,,,
,,5eadaff848b26f4483ae62d9,2026-03-17_10h23.22.600,kallum_motion_pilot_GIST_update_2,2026.1.1,MacIntel,59.88023952,5eadaff848b26f4483ae62d9,69b92ab4aef6dee357cd729a,69b92b4f3451cb7dd99fc9e9,0.0211,0.0211,1,79,241,36,1,threeone,,,,,,,,,,,,,,,,,,,,,,,,,,,,,,,,,,,,,,,,,,,,,,,,,,,,,,,,,,,,,,,,,,,,,,,,,,,,,,,,,,,,,,,,,,,,,,,,,,,,,,,,,,,,,,,,,,,,,,,,,,,,,,,,,,,,,,,,,
,,5eadaff848b26f4483ae62d9,2026-03-17_10h23.22.600,kallum_motion_pilot_GIST_update_2,2026.1.1,MacIntel,59.88023952,5eadaff848b26f4483ae62d9,69b92ab4aef6dee357cd729a,69b92b4f3451cb7dd99fc9e9,0.0211,0.0211,1,80,242,88,1,fivesix,,,,,,,,,,,,,,,,,,,,,,,,,,,,,,,,,,,,,,,,,,,,,,,,,,,,,,,,,,,,,,,,,,,,,,,,,,,,,,,,,,,,,,,,,,,,,,,,,,,,,,,,,,,,,,,,,,,,,,,,,,,,,,,,,,,,,,,,,
,,5eadaff848b26f4483ae62d9,2026-03-17_10h23.22.600,kallum_motion_pilot_GIST_update_2,2026.1.1,MacIntel,59.88023952,5eadaff848b26f4483ae62d9,69b92ab4aef6dee357cd729a,69b92b4f3451cb7dd99fc9e9,0.0211,0.0211,1,81,243,85,1,seveneight,,,,,,,,,,,,,,,,,,,,,,,,,,,,,,,,,,,,,,,,,,,,,,,,,,,,,,,,,,,,,,,,,,,,,,,,,,,,,,,,,,,,,,,,,,,,,,,,,,,,,,,,,,,,,,,,,,,,,,,,,,,,,,,,,,,,,,,,,
,,5eadaff848b26f4483ae62d9,2026-03-17_10h23.22.600,kallum_motion_pilot_GIST_update_2,2026.1.1,MacIntel,59.88023952,5eadaff848b26f4483ae62d9,69b92ab4aef6dee357cd729a,69b92b4f3451cb7dd99fc9e9,0.0213,0.0213,1,82,244,2,1,twoone,,,,,,,,,,,,,,,,,,,,,,,,,,,,,,,,,,,,,,,,,,,,,,,,,,,,,,,,,,,,,,,,,,,,,,,,,,,,,,,,,,,,,,,,,,,,,,,,,,,,,,,,,,,,,,,,,,,,,,,,,,,,,,,,,,,,,,,,,
,,5eadaff848b26f4483ae62d9,2026-03-17_10h23.22.600,kallum_motion_pilot_GIST_update_2,2026.1.1,MacIntel,59.88023952,5eadaff848b26f4483ae62d9,69b92ab4aef6dee357cd729a,69b92b4f3451cb7dd99fc9e9,0.0213,0.0213,1,83,245,64,1,onetwo,,,,,,,,,,,,,,,,,,,,,,,,,,,,,,,,,,,,,,,,,,,,,,,,,,,,,,,,,,,,,,,,,,,,,,,,,,,,,,,,,,,,,,,,,,,,,,,,,,,,,,,,,,,,,,,,,,,,,,,,,,,,,,,,,,,,,,,,,
,,5eadaff848b26f4483ae62d9,2026-03-17_10h23.22.600,kallum_motion_pilot_GIST_update_2,2026.1.1,MacIntel,59.88023952,5eadaff848b26f4483ae62d9,69b92ab4aef6dee357cd729a,69b92b4f3451cb7dd99fc9e9,0.0214,0.0214,1,84,246,142,1,eightsix,,,,,,,,,,,,,,,,,,,,,,,,,,,,,,,,,,,,,,,,,,,,,,,,,,,,,,,,,,,,,,,,,,,,,,,,,,,,,,,,,,,,,,,,,,,,,,,,,,,,,,,,,,,,,,,,,,,,,,,,,,,,,,,,,,,,,,,,,
,,5eadaff848b26f4483ae62d9,2026-03-17_10h23.22.600,kallum_motion_pilot_GIST_update_2,2026.1.1,MacIntel,59.88023952,5eadaff848b26f4483ae62d9,69b92ab4aef6dee357cd729a,69b92b4f3451cb7dd99fc9e9,0.0214,0.0214,1,85,247,13,1,threefour,,,,,,,,,,,,,,,,,,,,,,,,,,,,,,,,,,,,,,,,,,,,,,,,,,,,,,,,,,,,,,,,,,,,,,,,,,,,,,,,,,,,,,,,,,,,,,,,,,,,,,,,,,,,,,,,,,,,,,,,,,,,,,,,,,,,,,,,,
,,5eadaff848b26f4483ae62d9,2026-03-17_10h23.22.600,kallum_motion_pilot_GIST_update_2,2026.1.1,MacIntel,59.88023952,5eadaff848b26f4483ae62d9,69b92ab4aef6dee357cd729a,69b92b4f3451cb7dd99fc9e9,0.0215,0.0215,1,86,248,54,1,fourtwo,,,,,,,,,,,,,,,,,,,,,,,,,,,,,,,,,,,,,,,,,,,,,,,,,,,,,,,,,,,,,,,,,,,,,,,,,,,,,,,,,,,,,,,,,,,,,,,,,,,,,,,,,,,,,,,,,,,,,,,,,,,,,,,,,,,,,,,,,
,,5eadaff848b26f4483ae62d9,2026-03-17_10h23.22.600,kallum_motion_pilot_GIST_update_2,2026.1.1,MacIntel,59.88023952,5eadaff848b26f4483ae62d9,69b92ab4aef6dee357cd729a,69b92b4f3451cb7dd99fc9e9,0.0215,0.0215,1,87,249,116,1,sevenfive,,,,,,,,,,,,,,,,,,,,,,,,,,,,,,,,,,,,,,,,,,,,,,,,,,,,,,,,,,,,,,,,,,,,,,,,,,,,,,,,,,,,,,,,,,,,,,,,,,,,,,,,,,,,,,,,,,,,,,,,,,,,,,,,,,,,,,,,,
,,5eadaff848b26f4483ae62d9,2026-03-17_10h23.22.600,kallum_motion_pilot_GIST_update_2,2026.1.1,MacIntel,59.88023952,5eadaff848b26f4483ae62d9,69b92ab4aef6dee357cd729a,69b92b4f3451cb7dd99fc9e9,0.0216,0.0216,1,88,250,27,1,twofour,,,,,,,,,,,,,,,,,,,,,,,,,,,,,,,,,,,,,,,,,,,,,,,,,,,,,,,,,,,,,,,,,,,,,,,,,,,,,,,,,,,,,,,,,,,,,,,,,,,,,,,,,,,,,,,,,,,,,,,,,,,,,,,,,,,,,,,,,
,,5eadaff848b26f4483ae62d9,2026-03-17_10h23.22.600,kallum_motion_pilot_GIST_update_2,2026.1.1,MacIntel,59.88023952,5eadaff848b26f4483ae62d9,69b92ab4aef6dee357cd729a,69b92b4f3451cb7dd99fc9e9,0.0216,0.0216,1,89,251,45,1,threefour,,,,,,,,,,,,,,,,,,,,,,,,,,,,,,,,,,,,,,,,,,,,,,,,,,,,,,,,,,,,,,,,,,,,,,,,,,,,,,,,,,,,,,,,,,,,,,,,,,,,,,,,,,,,,,,,,,,,,,,,,,,,,,,,,,,,,,,,,
,,5eadaff848b26f4483ae62d9,2026-03-17_10h23.22.600,kallum_motion_pilot_GIST_update_2,2026.1.1,MacIntel,59.88023952,5eadaff848b26f4483ae62d9,69b92ab4aef6dee357cd729a,69b92b4f3451cb7dd99fc9e9,0.0216,0.0216,1,90,252,117,1,seveneight,,,,,,,,,,,,,,,,,,,,,,,,,,,,,,,,,,,,,,,,,,,,,,,,,,,,,,,,,,,,,,,,,,,,,,,,,,,,,,,,,,,,,,,,,,,,,,,,,,,,,,,,,,,,,,,,,,,,,,,,,,,,,,,,,,,,,,,,,
,,5eadaff848b26f4483ae62d9,2026-03-17_10h23.22.600,kallum_motion_pilot_GIST_update_2,2026.1.1,MacIntel,59.88023952,5eadaff848b26f4483ae62d9,69b92ab4aef6dee357cd729a,69b92b4f3451cb7dd99fc9e9,0.0217,0.0217,1,91,253,144,1,fivesix,,,,,,,,,,,,,,,,,,,,,,,,,,,,,,,,,,,,,,,,,,,,,,,,,,,,,,,,,,,,,,,,,,,,,,,,,,,,,,,,,,,,,,,,,,,,,,,,,,,,,,,,,,,,,,,,,,,,,,,,,,,,,,,,,,,,,,,,,
,,5eadaff848b26f4483ae62d9,2026-03-17_10h23.22.600,kallum_motion_pilot_GIST_update_2,2026.1.1,MacIntel,59.88023952,5eadaff848b26f4483ae62d9,69b92ab4aef6dee357cd729a,69b92b4f3451cb7dd99fc9e9,0.0218,0.0218,1,92,254,16,1,onetwo,,,,,,,,,,,,,,,,,,,,,,,,,,,,,,,,,,,,,,,,,,,,,,,,,,,,,,,,,,,,,,,,,,,,,,,,,,,,,,,,,,,,,,,,,,,,,,,,,,,,,,,,,,,,,,,,,,,,,,,,,,,,,,,,,,,,,,,,,
,,5eadaff848b26f4483ae62d9,2026-03-17_10h23.22.600,kallum_motion_pilot_GIST_update_2,2026.1.1,MacIntel,59.88023952,5eadaff848b26f4483ae62d9,69b92ab4aef6dee357cd729a,69b92b4f3451cb7dd99fc9e9,0.0218,0.0218,1,93,255,138,1,sixfive,,,,,,,,,,,,,,,,,,,,,,,,,,,,,,,,,,,,,,,,,,,,,,,,,,,,,,,,,,,,,,,,,,,,,,,,,,,,,,,,,,,,,,,,,,,,,,,,,,,,,,,,,,,,,,,,,,,,,,,,,,,,,,,,,,,,,,,,,
,,5eadaff848b26f4483ae62d9,2026-03-17_10h23.22.600,kallum_motion_pilot_GIST_update_2,2026.1.1,MacIntel,59.88023952,5eadaff848b26f4483ae62d9,69b92ab4aef6dee357cd729a,69b92b4f3451cb7dd99fc9e9,0.0219,0.0219,1,94,256,47,1,fourthree,,,,,,,,,,,,,,,,,,,,,,,,,,,,,,,,,,,,,,,,,,,,,,,,,,,,,,,,,,,,,,,,,,,,,,,,,,,,,,,,,,,,,,,,,,,,,,,,,,,,,,,,,,,,,,,,,,,,,,,,,,,,,,,,,,,,,,,,,
,,5eadaff848b26f4483ae62d9,2026-03-17_10h23.22.600,kallum_motion_pilot_GIST_update_2,2026.1.1,MacIntel,59.88023952,5eadaff848b26f4483ae62d9,69b92ab4aef6dee357cd729a,69b92b4f3451cb7dd99fc9e9,0.022,0.022,1,95,257,97,1,fiveseven,,,,,,,,,,,,,,,,,,,,,,,,,,,,,,,,,,,,,,,,,,,,,,,,,,,,,,,,,,,,,,,,,,,,,,,,,,,,,,,,,,,,,,,,,,,,,,,,,,,,,,,,,,,,,,,,,,,,,,,,,,,,,,,,,,,,,,,,,
,,5eadaff848b26f4483ae62d9,2026-03-17_10h23.22.600,kallum_motion_pilot_GIST_update_2,2026.1.1,MacIntel,59.88023952,5eadaff848b26f4483ae62d9,69b92ab4aef6dee357cd729a,69b92b4f3451cb7dd99fc9e9,0.0221,0.0221,1,96,258,121,1,fiveseven,,,,,,,,,,,,,,,,,,,,,,,,,,,,,,,,,,,,,,,,,,,,,,,,,,,,,,,,,,,,,,,,,,,,,,,,,,,,,,,,,,,,,,,,,,,,,,,,,,,,,,,,,,,,,,,,,,,,,,,,,,,,,,,,,,,,,,,,,
,,5eadaff848b26f4483ae62d9,2026-03-17_10h23.22.600,kallum_motion_pilot_GIST_update_2,2026.1.1,MacIntel,59.88023952,5eadaff848b26f4483ae62d9,69b92ab4aef6dee357cd729a,69b92b4f3451cb7dd99fc9e9,0.0221,0.0221,1,97,259,159,1,eightseven,,,,,,,,,,,,,,,,,,,,,,,,,,,,,,,,,,,,,,,,,,,,,,,,,,,,,,,,,,,,,,,,,,,,,,,,,,,,,,,,,,,,,,,,,,,,,,,,,,,,,,,,,,,,,,,,,,,,,,,,,,,,,,,,,,,,,,,,,
,,5eadaff848b26f4483ae62d9,2026-03-17_10h23.22.600,kallum_motion_pilot_GIST_update_2,2026.1.1,MacIntel,59.88023952,5eadaff848b26f4483ae62d9,69b92ab4aef6dee357cd729a,69b92b4f3451cb7dd99fc9e9,0.0222,0.0222,1,98,260,84,1,sevenfive,,,,,,,,,,,,,,,,,,,,,,,,,,,,,,,,,,,,,,,,,,,,,,,,,,,,,,,,,,,,,,,,,,,,,,,,,,,,,,,,,,,,,,,,,,,,,,,,,,,,,,,,,,,,,,,,,,,,,,,,,,,,,,,,,,,,,,,,,
,,5eadaff848b26f4483ae62d9,2026-03-17_10h23.22.600,kallum_motion_pilot_GIST_update_2,2026.1.1,MacIntel,59.88023952,5eadaff848b26f4483ae62d9,69b92ab4aef6dee357cd729a,69b92b4f3451cb7dd99fc9e9,0.0222,0.0222,1,99,261,33,1,onethree,,,,,,,,,,,,,,,,,,,,,,,,,,,,,,,,,,,,,,,,,,,,,,,,,,,,,,,,,,,,,,,,,,,,,,,,,,,,,,,,,,,,,,,,,,,,,,,,,,,,,,,,,,,,,,,,,,,,,,,,,,,,,,,,,,,,,,,,,
,,5eadaff848b26f4483ae62d9,2026-03-17_10h23.22.600,kallum_motion_pilot_GIST_update_2,2026.1.1,MacIntel,59.88023952,5eadaff848b26f4483ae62d9,69b92ab4aef6dee357cd729a,69b92b4f3451cb7dd99fc9e9,0.0222,0.0222,1,100,262,34,1,twoone,,,,,,,,,,,,,,,,,,,,,,,,,,,,,,,,,,,,,,,,,,,,,,,,,,,,,,,,,,,,,,,,,,,,,,,,,,,,,,,,,,,,,,,,,,,,,,,,,,,,,,,,,,,,,,,,,,,,,,,,,,,,,,,,,,,,,,,,,
,,5eadaff848b26f4483ae62d9,2026-03-17_10h23.22.600,kallum_motion_pilot_GIST_update_2,2026.1.1,MacIntel,59.88023952,5eadaff848b26f4483ae62d9,69b92ab4aef6dee357cd729a,69b92b4f3451cb7dd99fc9e9,0.0222,0.0222,1,101,263,52,1,threeone,,,,,,,,,,,,,,,,,,,,,,,,,,,,,,,,,,,,,,,,,,,,,,,,,,,,,,,,,,,,,,,,,,,,,,,,,,,,,,,,,,,,,,,,,,,,,,,,,,,,,,,,,,,,,,,,,,,,,,,,,,,,,,,,,,,,,,,,,
