startup.started,startup.stopped,Prolific ID*,date,expName,psychopyVersion,OS,frameRate,participant,study_id,session,stimpositions.started,stimpositions.stopped,hardcoded_stimulus_positions.thisRepN,hardcoded_stimulus_positions.thisTrialN,hardcoded_stimulus_positions.thisN,hardcoded_stimulus_positions.thisIndex,hardcoded_stimulus_positions.ran,StimulusPos,stimorientation.started,stimorientation.stopped,prac_stimorientation_import_loop.thisRepN,prac_stimorientation_import_loop.thisTrialN,prac_stimorientation_import_loop.thisN,prac_stimorientation_import_loop.thisIndex,prac_stimorientation_import_loop.ran,Stimorientation,welcome_instr.started,welcome_instr.stopped,key_resp.keys,key_resp.rt,key_resp.duration,response_steppedout_1.started,response_steppedout_1.stopped,key_resp_20.keys,key_resp_20.rt,key_resp_20.duration,response_steppedout_2.started,response_steppedout_2.stopped,key_resp_19.keys,key_resp_19.rt,key_resp_19.duration,stim_response_instr.started,stim_response_instr.stopped,key_resp_15.keys,key_resp_15.rt,key_resp_15.duration,direction_instr_2.started,direction_instr_2.stopped,key_resp_9.keys,key_resp_9.rt,key_resp_9.duration,instr_prac.started,instr_prac.stopped,key_resp_10.keys,key_resp_10.rt,key_resp_10.duration,Stim1_display_prac.started,Stim1_display_prac.stopped,Ecc,Circle1_ori,Circle2_ori,response_prac.started,similarity,response_time,response_prac.stopped,mouse_5.x,mouse_5.y,mouse_5.leftButton,mouse_5.midButton,mouse_5.rightButton,mouse_5.clicked_name,responseprac_feedback.started,responseprac_feedback.stopped,summary2_prac.started,summary2_prac.stopped,mouse_6.x,mouse_6.y,mouse_6.leftButton,mouse_6.midButton,mouse_6.rightButton,mouse_6.clicked_name,duringprac.thisRepN,duringprac.thisTrialN,duringprac.thisN,duringprac.thisIndex,duringprac.ran,begin.started,begin.stopped,key_resp_22.keys,key_resp_22.rt,key_resp_22.duration,Stim1_display.started,Stim1_display.stopped,circle1_ori,circle2_ori,circle1_SF,circle2_SF,response.started,response.stopped,mouse.x,mouse.y,mouse.leftButton,mouse.midButton,mouse.rightButton,mouse.clicked_name,trialnumber,double_pass.thisRepN,double_pass.thisTrialN,double_pass.thisN,double_pass.thisIndex,double_pass.ran,double_pass.order,main_trial.thisRepN,main_trial.thisTrialN,main_trial.thisN,main_trial.thisIndex,main_trial.ran,main_trial.order,Trial_Counter,Catch,Frequencies,response_2.started,response_2.stopped,mouse_2.x,mouse_2.y,mouse_2.leftButton,mouse_2.midButton,mouse_2.rightButton,mouse_2.clicked_name,special_trial.started,special_trial.stopped,catch_1.started,catch_1.stopped,mouse_3.x,mouse_3.y,mouse_3.leftButton,mouse_3.midButton,mouse_3.rightButton,catchresponse,catchnumber,response_time_catch,response_sum.started,response_sum.stopped,mouse_11.x,mouse_11.y,mouse_11.leftButton,mouse_11.midButton,mouse_11.rightButton,flip_presentation_sequence_for_double_pass.started,flip_presentation_sequence_for_double_pass.stopped,goodbye.started,goodbye.stopped,key_resp_3.keys,key_resp_3.rt,key_resp_3.duration
0.0006,0.0007,5f3006e1a760660769bd6930,2026-03-17_15h09.30.007,kallum_motion_pilot_GIST_update_2,2026.1.1,Win32,28.8184438,5f3006e1a760660769bd6930,69b95efdef24cd8a694e89ee,69b96081d578091ec884354c,,,,,,,,,,,,,,,,,,,,,,,,,,,,,,,,,,,,,,,,,,,,,,,,,,,,,,,,,,,,,,,,,,,,,,,,,,,,,,,,,,,,,,,,,,,,,,,,,,,,,,,,,,,,,,,,,,,,,,,,,,,,,,,,,,,,,,,,,,,,,,,,,
,,5f3006e1a760660769bd6930,2026-03-17_15h09.30.007,kallum_motion_pilot_GIST_update_2,2026.1.1,Win32,28.8184438,5f3006e1a760660769bd6930,69b95efdef24cd8a694e89ee,69b96081d578091ec884354c,0.0447,0.0448,0,0,0,124,1,sevenfive,,,,,,,,,,,,,,,,,,,,,,,,,,,,,,,,,,,,,,,,,,,,,,,,,,,,,,,,,,,,,,,,,,,,,,,,,,,,,,,,,,,,,,,,,,,,,,,,,,,,,,,,,,,,,,,,,,,,,,,,,,,,,,,,,,,,,,,,,
,,5f3006e1a760660769bd6930,2026-03-17_15h09.30.007,kallum_motion_pilot_GIST_update_2,2026.1.1,Win32,28.8184438,5f3006e1a760660769bd6930,69b95efdef24cd8a694e89ee,69b96081d578091ec884354c,0.0454,0.0454,0,1,1,36,1,threeone,,,,,,,,,,,,,,,,,,,,,,,,,,,,,,,,,,,,,,,,,,,,,,,,,,,,,,,,,,,,,,,,,,,,,,,,,,,,,,,,,,,,,,,,,,,,,,,,,,,,,,,,,,,,,,,,,,,,,,,,,,,,,,,,,,,,,,,,,
,,5f3006e1a760660769bd6930,2026-03-17_15h09.30.007,kallum_motion_pilot_GIST_update_2,2026.1.1,Win32,28.8184438,5f3006e1a760660769bd6930,69b95efdef24cd8a694e89ee,69b96081d578091ec884354c,0.0455,0.0455,0,2,2,69,1,threefour,,,,,,,,,,,,,,,,,,,,,,,,,,,,,,,,,,,,,,,,,,,,,,,,,,,,,,,,,,,,,,,,,,,,,,,,,,,,,,,,,,,,,,,,,,,,,,,,,,,,,,,,,,,,,,,,,,,,,,,,,,,,,,,,,,,,,,,,,
,,5f3006e1a760660769bd6930,2026-03-17_15h09.30.007,kallum_motion_pilot_GIST_update_2,2026.1.1,Win32,28.8184438,5f3006e1a760660769bd6930,69b95efdef24cd8a694e89ee,69b96081d578091ec884354c,0.0458,0.0458,0,3,3,136,1,fivesix,,,,,,,,,,,,,,,,,,,,,,,,,,,,,,,,,,,,,,,,,,,,,,,,,,,,,,,,,,,,,,,,,,,,,,,,,,,,,,,,,,,,,,,,,,,,,,,,,,,,,,,,,,,,,,,,,,,,,,,,,,,,,,,,,,,,,,,,,
,,5f3006e1a760660769bd6930,2026-03-17_15h09.30.007,kallum_motion_pilot_GIST_update_2,2026.1.1,Win32,28.8184438,5f3006e1a760660769bd6930,69b95efdef24cd8a694e89ee,69b96081d578091ec884354c,0.046,0.0461,0,4,4,90,1,sixfive,,,,,,,,,,,,,,,,,,,,,,,,,,,,,,,,,,,,,,,,,,,,,,,,,,,,,,,,,,,,,,,,,,,,,,,,,,,,,,,,,,,,,,,,,,,,,,,,,,,,,,,,,,,,,,,,,,,,,,,,,,,,,,,,,,,,,,,,,
,,5f3006e1a760660769bd6930,2026-03-17_15h09.30.007,kallum_motion_pilot_GIST_update_2,2026.1.1,Win32,28.8184438,5f3006e1a760660769bd6930,69b95efdef24cd8a694e89ee,69b96081d578091ec884354c,0.0462,0.0462,0,5,5,54,1,fourtwo,,,,,,,,,,,,,,,,,,,,,,,,,,,,,,,,,,,,,,,,,,,,,,,,,,,,,,,,,,,,,,,,,,,,,,,,,,,,,,,,,,,,,,,,,,,,,,,,,,,,,,,,,,,,,,,,,,,,,,,,,,,,,,,,,,,,,,,,,
,,5f3006e1a760660769bd6930,2026-03-17_15h09.30.007,kallum_motion_pilot_GIST_update_2,2026.1.1,Win32,28.8184438,5f3006e1a760660769bd6930,69b95efdef24cd8a694e89ee,69b96081d578091ec884354c,0.0464,0.0464,0,6,6,133,1,seveneight,,,,,,,,,,,,,,,,,,,,,,,,,,,,,,,,,,,,,,,,,,,,,,,,,,,,,,,,,,,,,,,,,,,,,,,,,,,,,,,,,,,,,,,,,,,,,,,,,,,,,,,,,,,,,,,,,,,,,,,,,,,,,,,,,,,,,,,,,
,,5f3006e1a760660769bd6930,2026-03-17_15h09.30.007,kallum_motion_pilot_GIST_update_2,2026.1.1,Win32,28.8184438,5f3006e1a760660769bd6930,69b95efdef24cd8a694e89ee,69b96081d578091ec884354c,0.0465,0.0466,0,7,7,31,1,fourthree,,,,,,,,,,,,,,,,,,,,,,,,,,,,,,,,,,,,,,,,,,,,,,,,,,,,,,,,,,,,,,,,,,,,,,,,,,,,,,,,,,,,,,,,,,,,,,,,,,,,,,,,,,,,,,,,,,,,,,,,,,,,,,,,,,,,,,,,,
,,5f3006e1a760660769bd6930,2026-03-17_15h09.30.007,kallum_motion_pilot_GIST_update_2,2026.1.1,Win32,28.8184438,5f3006e1a760660769bd6930,69b95efdef24cd8a694e89ee,69b96081d578091ec884354c,0.0468,0.0468,0,8,8,95,1,eightseven,,,,,,,,,,,,,,,,,,,,,,,,,,,,,,,,,,,,,,,,,,,,,,,,,,,,,,,,,,,,,,,,,,,,,,,,,,,,,,,,,,,,,,,,,,,,,,,,,,,,,,,,,,,,,,,,,,,,,,,,,,,,,,,,,,,,,,,,,
,,5f3006e1a760660769bd6930,2026-03-17_15h09.30.007,kallum_motion_pilot_GIST_update_2,2026.1.1,Win32,28.8184438,5f3006e1a760660769bd6930,69b95efdef24cd8a694e89ee,69b96081d578091ec884354c,0.0471,0.0471,0,9,9,81,1,fiveseven,,,,,,,,,,,,,,,,,,,,,,,,,,,,,,,,,,,,,,,,,,,,,,,,,,,,,,,,,,,,,,,,,,,,,,,,,,,,,,,,,,,,,,,,,,,,,,,,,,,,,,,,,,,,,,,,,,,,,,,,,,,,,,,,,,,,,,,,,
,,5f3006e1a760660769bd6930,2026-03-17_15h09.30.007,kallum_motion_pilot_GIST_update_2,2026.1.1,Win32,28.8184438,5f3006e1a760660769bd6930,69b95efdef24cd8a694e89ee,69b96081d578091ec884354c,0.0473,0.0473,0,10,10,96,1,fivesix,,,,,,,,,,,,,,,,,,,,,,,,,,,,,,,,,,,,,,,,,,,,,,,,,,,,,,,,,,,,,,,,,,,,,,,,,,,,,,,,,,,,,,,,,,,,,,,,,,,,,,,,,,,,,,,,,,,,,,,,,,,,,,,,,,,,,,,,,
,,5f3006e1a760660769bd6930,2026-03-17_15h09.30.007,kallum_motion_pilot_GIST_update_2,2026.1.1,Win32,28.8184438,5f3006e1a760660769bd6930,69b95efdef24cd8a694e89ee,69b96081d578091ec884354c,0.0474,0.0474,0,11,11,126,1,eightsix,,,,,,,,,,,,,,,,,,,,,,,,,,,,,,,,,,,,,,,,,,,,,,,,,,,,,,,,,,,,,,,,,,,,,,,,,,,,,,,,,,,,,,,,,,,,,,,,,,,,,,,,,,,,,,,,,,,,,,,,,,,,,,,,,,,,,,,,,
,,5f3006e1a760660769bd6930,2026-03-17_15h09.30.007,kallum_motion_pilot_GIST_update_2,2026.1.1,Win32,28.8184438,5f3006e1a760660769bd6930,69b95efdef24cd8a694e89ee,69b96081d578091ec884354c,0.0476,0.0476,0,12,12,2,1,twoone,,,,,,,,,,,,,,,,,,,,,,,,,,,,,,,,,,,,,,,,,,,,,,,,,,,,,,,,,,,,,,,,,,,,,,,,,,,,,,,,,,,,,,,,,,,,,,,,,,,,,,,,,,,,,,,,,,,,,,,,,,,,,,,,,,,,,,,,,
,,5f3006e1a760660769bd6930,2026-03-17_15h09.30.007,kallum_motion_pilot_GIST_update_2,2026.1.1,Win32,28.8184438,5f3006e1a760660769bd6930,69b95efdef24cd8a694e89ee,69b96081d578091ec884354c,0.0478,0.0478,0,13,13,44,1,threeone,,,,,,,,,,,,,,,,,,,,,,,,,,,,,,,,,,,,,,,,,,,,,,,,,,,,,,,,,,,,,,,,,,,,,,,,,,,,,,,,,,,,,,,,,,,,,,,,,,,,,,,,,,,,,,,,,,,,,,,,,,,,,,,,,,,,,,,,,
,,5f3006e1a760660769bd6930,2026-03-17_15h09.30.007,kallum_motion_pilot_GIST_update_2,2026.1.1,Win32,28.8184438,5f3006e1a760660769bd6930,69b95efdef24cd8a694e89ee,69b96081d578091ec884354c,0.048,0.048,0,14,14,105,1,fiveseven,,,,,,,,,,,,,,,,,,,,,,,,,,,,,,,,,,,,,,,,,,,,,,,,,,,,,,,,,,,,,,,,,,,,,,,,,,,,,,,,,,,,,,,,,,,,,,,,,,,,,,,,,,,,,,,,,,,,,,,,,,,,,,,,,,,,,,,,,
,,5f3006e1a760660769bd6930,2026-03-17_15h09.30.007,kallum_motion_pilot_GIST_update_2,2026.1.1,Win32,28.8184438,5f3006e1a760660769bd6930,69b95efdef24cd8a694e89ee,69b96081d578091ec884354c,0.0482,0.0482,0,15,15,129,1,fiveseven,,,,,,,,,,,,,,,,,,,,,,,,,,,,,,,,,,,,,,,,,,,,,,,,,,,,,,,,,,,,,,,,,,,,,,,,,,,,,,,,,,,,,,,,,,,,,,,,,,,,,,,,,,,,,,,,,,,,,,,,,,,,,,,,,,,,,,,,,
,,5f3006e1a760660769bd6930,2026-03-17_15h09.30.007,kallum_motion_pilot_GIST_update_2,2026.1.1,Win32,28.8184438,5f3006e1a760660769bd6930,69b95efdef24cd8a694e89ee,69b96081d578091ec884354c,0.0484,0.0484,0,16,16,74,1,twoone,,,,,,,,,,,,,,,,,,,,,,,,,,,,,,,,,,,,,,,,,,,,,,,,,,,,,,,,,,,,,,,,,,,,,,,,,,,,,,,,,,,,,,,,,,,,,,,,,,,,,,,,,,,,,,,,,,,,,,,,,,,,,,,,,,,,,,,,,
,,5f3006e1a760660769bd6930,2026-03-17_15h09.30.007,kallum_motion_pilot_GIST_update_2,2026.1.1,Win32,28.8184438,5f3006e1a760660769bd6930,69b95efdef24cd8a694e89ee,69b96081d578091ec884354c,0.0486,0.0486,0,17,17,73,1,onethree,,,,,,,,,,,,,,,,,,,,,,,,,,,,,,,,,,,,,,,,,,,,,,,,,,,,,,,,,,,,,,,,,,,,,,,,,,,,,,,,,,,,,,,,,,,,,,,,,,,,,,,,,,,,,,,,,,,,,,,,,,,,,,,,,,,,,,,,,
,,5f3006e1a760660769bd6930,2026-03-17_15h09.30.007,kallum_motion_pilot_GIST_update_2,2026.1.1,Win32,28.8184438,5f3006e1a760660769bd6930,69b95efdef24cd8a694e89ee,69b96081d578091ec884354c,0.0487,0.0488,0,18,18,86,1,eightsix,,,,,,,,,,,,,,,,,,,,,,,,,,,,,,,,,,,,,,,,,,,,,,,,,,,,,,,,,,,,,,,,,,,,,,,,,,,,,,,,,,,,,,,,,,,,,,,,,,,,,,,,,,,,,,,,,,,,,,,,,,,,,,,,,,,,,,,,,
,,5f3006e1a760660769bd6930,2026-03-17_15h09.30.007,kallum_motion_pilot_GIST_update_2,2026.1.1,Win32,28.8184438,5f3006e1a760660769bd6930,69b95efdef24cd8a694e89ee,69b96081d578091ec884354c,0.0489,0.0489,0,19,19,32,1,onetwo,,,,,,,,,,,,,,,,,,,,,,,,,,,,,,,,,,,,,,,,,,,,,,,,,,,,,,,,,,,,,,,,,,,,,,,,,,,,,,,,,,,,,,,,,,,,,,,,,,,,,,,,,,,,,,,,,,,,,,,,,,,,,,,,,,,,,,,,,
,,5f3006e1a760660769bd6930,2026-03-17_15h09.30.007,kallum_motion_pilot_GIST_update_2,2026.1.1,Win32,28.8184438,5f3006e1a760660769bd6930,69b95efdef24cd8a694e89ee,69b96081d578091ec884354c,0.0491,0.0491,0,20,20,59,1,twofour,,,,,,,,,,,,,,,,,,,,,,,,,,,,,,,,,,,,,,,,,,,,,,,,,,,,,,,,,,,,,,,,,,,,,,,,,,,,,,,,,,,,,,,,,,,,,,,,,,,,,,,,,,,,,,,,,,,,,,,,,,,,,,,,,,,,,,,,,
,,5f3006e1a760660769bd6930,2026-03-17_15h09.30.007,kallum_motion_pilot_GIST_update_2,2026.1.1,Win32,28.8184438,5f3006e1a760660769bd6930,69b95efdef24cd8a694e89ee,69b96081d578091ec884354c,0.0493,0.0493,0,21,21,28,1,threeone,,,,,,,,,,,,,,,,,,,,,,,,,,,,,,,,,,,,,,,,,,,,,,,,,,,,,,,,,,,,,,,,,,,,,,,,,,,,,,,,,,,,,,,,,,,,,,,,,,,,,,,,,,,,,,,,,,,,,,,,,,,,,,,,,,,,,,,,,
,,5f3006e1a760660769bd6930,2026-03-17_15h09.30.007,kallum_motion_pilot_GIST_update_2,2026.1.1,Win32,28.8184438,5f3006e1a760660769bd6930,69b95efdef24cd8a694e89ee,69b96081d578091ec884354c,0.0495,0.0495,0,22,22,103,1,eightseven,,,,,,,,,,,,,,,,,,,,,,,,,,,,,,,,,,,,,,,,,,,,,,,,,,,,,,,,,,,,,,,,,,,,,,,,,,,,,,,,,,,,,,,,,,,,,,,,,,,,,,,,,,,,,,,,,,,,,,,,,,,,,,,,,,,,,,,,,
,,5f3006e1a760660769bd6930,2026-03-17_15h09.30.007,kallum_motion_pilot_GIST_update_2,2026.1.1,Win32,28.8184438,5f3006e1a760660769bd6930,69b95efdef24cd8a694e89ee,69b96081d578091ec884354c,0.0496,0.0496,0,23,23,104,1,fivesix,,,,,,,,,,,,,,,,,,,,,,,,,,,,,,,,,,,,,,,,,,,,,,,,,,,,,,,,,,,,,,,,,,,,,,,,,,,,,,,,,,,,,,,,,,,,,,,,,,,,,,,,,,,,,,,,,,,,,,,,,,,,,,,,,,,,,,,,,
,,5f3006e1a760660769bd6930,2026-03-17_15h09.30.007,kallum_motion_pilot_GIST_update_2,2026.1.1,Win32,28.8184438,5f3006e1a760660769bd6930,69b95efdef24cd8a694e89ee,69b96081d578091ec884354c,0.0499,0.0499,0,24,24,47,1,fourthree,,,,,,,,,,,,,,,,,,,,,,,,,,,,,,,,,,,,,,,,,,,,,,,,,,,,,,,,,,,,,,,,,,,,,,,,,,,,,,,,,,,,,,,,,,,,,,,,,,,,,,,,,,,,,,,,,,,,,,,,,,,,,,,,,,,,,,,,,
,,5f3006e1a760660769bd6930,2026-03-17_15h09.30.007,kallum_motion_pilot_GIST_update_2,2026.1.1,Win32,28.8184438,5f3006e1a760660769bd6930,69b95efdef24cd8a694e89ee,69b96081d578091ec884354c,0.0501,0.0501,0,25,25,16,1,onetwo,,,,,,,,,,,,,,,,,,,,,,,,,,,,,,,,,,,,,,,,,,,,,,,,,,,,,,,,,,,,,,,,,,,,,,,,,,,,,,,,,,,,,,,,,,,,,,,,,,,,,,,,,,,,,,,,,,,,,,,,,,,,,,,,,,,,,,,,,
,,5f3006e1a760660769bd6930,2026-03-17_15h09.30.007,kallum_motion_pilot_GIST_update_2,2026.1.1,Win32,28.8184438,5f3006e1a760660769bd6930,69b95efdef24cd8a694e89ee,69b96081d578091ec884354c,0.0503,0.0503,0,26,26,1,1,onethree,,,,,,,,,,,,,,,,,,,,,,,,,,,,,,,,,,,,,,,,,,,,,,,,,,,,,,,,,,,,,,,,,,,,,,,,,,,,,,,,,,,,,,,,,,,,,,,,,,,,,,,,,,,,,,,,,,,,,,,,,,,,,,,,,,,,,,,,,
,,5f3006e1a760660769bd6930,2026-03-17_15h09.30.007,kallum_motion_pilot_GIST_update_2,2026.1.1,Win32,28.8184438,5f3006e1a760660769bd6930,69b95efdef24cd8a694e89ee,69b96081d578091ec884354c,0.0504,0.0504,0,27,27,14,1,fourtwo,,,,,,,,,,,,,,,,,,,,,,,,,,,,,,,,,,,,,,,,,,,,,,,,,,,,,,,,,,,,,,,,,,,,,,,,,,,,,,,,,,,,,,,,,,,,,,,,,,,,,,,,,,,,,,,,,,,,,,,,,,,,,,,,,,,,,,,,,
,,5f3006e1a760660769bd6930,2026-03-17_15h09.30.007,kallum_motion_pilot_GIST_update_2,2026.1.1,Win32,28.8184438,5f3006e1a760660769bd6930,69b95efdef24cd8a694e89ee,69b96081d578091ec884354c,0.0506,0.0506,0,28,28,72,1,onetwo,,,,,,,,,,,,,,,,,,,,,,,,,,,,,,,,,,,,,,,,,,,,,,,,,,,,,,,,,,,,,,,,,,,,,,,,,,,,,,,,,,,,,,,,,,,,,,,,,,,,,,,,,,,,,,,,,,,,,,,,,,,,,,,,,,,,,,,,,
,,5f3006e1a760660769bd6930,2026-03-17_15h09.30.007,kallum_motion_pilot_GIST_update_2,2026.1.1,Win32,28.8184438,5f3006e1a760660769bd6930,69b95efdef24cd8a694e89ee,69b96081d578091ec884354c,0.0508,0.0508,0,29,29,143,1,eightseven,,,,,,,,,,,,,,,,,,,,,,,,,,,,,,,,,,,,,,,,,,,,,,,,,,,,,,,,,,,,,,,,,,,,,,,,,,,,,,,,,,,,,,,,,,,,,,,,,,,,,,,,,,,,,,,,,,,,,,,,,,,,,,,,,,,,,,,,,
,,5f3006e1a760660769bd6930,2026-03-17_15h09.30.007,kallum_motion_pilot_GIST_update_2,2026.1.1,Win32,28.8184438,5f3006e1a760660769bd6930,69b95efdef24cd8a694e89ee,69b96081d578091ec884354c,0.0509,0.051,0,30,30,93,1,seveneight,,,,,,,,,,,,,,,,,,,,,,,,,,,,,,,,,,,,,,,,,,,,,,,,,,,,,,,,,,,,,,,,,,,,,,,,,,,,,,,,,,,,,,,,,,,,,,,,,,,,,,,,,,,,,,,,,,,,,,,,,,,,,,,,,,,,,,,,,
,,5f3006e1a760660769bd6930,2026-03-17_15h09.30.007,kallum_motion_pilot_GIST_update_2,2026.1.1,Win32,28.8184438,5f3006e1a760660769bd6930,69b95efdef24cd8a694e89ee,69b96081d578091ec884354c,0.0511,0.0511,0,31,31,147,1,sixeight,,,,,,,,,,,,,,,,,,,,,,,,,,,,,,,,,,,,,,,,,,,,,,,,,,,,,,,,,,,,,,,,,,,,,,,,,,,,,,,,,,,,,,,,,,,,,,,,,,,,,,,,,,,,,,,,,,,,,,,,,,,,,,,,,,,,,,,,,
,,5f3006e1a760660769bd6930,2026-03-17_15h09.30.007,kallum_motion_pilot_GIST_update_2,2026.1.1,Win32,28.8184438,5f3006e1a760660769bd6930,69b95efdef24cd8a694e89ee,69b96081d578091ec884354c,0.0512,0.0512,0,32,32,156,1,sevenfive,,,,,,,,,,,,,,,,,,,,,,,,,,,,,,,,,,,,,,,,,,,,,,,,,,,,,,,,,,,,,,,,,,,,,,,,,,,,,,,,,,,,,,,,,,,,,,,,,,,,,,,,,,,,,,,,,,,,,,,,,,,,,,,,,,,,,,,,,
,,5f3006e1a760660769bd6930,2026-03-17_15h09.30.007,kallum_motion_pilot_GIST_update_2,2026.1.1,Win32,28.8184438,5f3006e1a760660769bd6930,69b95efdef24cd8a694e89ee,69b96081d578091ec884354c,0.0514,0.0514,0,33,33,117,1,seveneight,,,,,,,,,,,,,,,,,,,,,,,,,,,,,,,,,,,,,,,,,,,,,,,,,,,,,,,,,,,,,,,,,,,,,,,,,,,,,,,,,,,,,,,,,,,,,,,,,,,,,,,,,,,,,,,,,,,,,,,,,,,,,,,,,,,,,,,,,
,,5f3006e1a760660769bd6930,2026-03-17_15h09.30.007,kallum_motion_pilot_GIST_update_2,2026.1.1,Win32,28.8184438,5f3006e1a760660769bd6930,69b95efdef24cd8a694e89ee,69b96081d578091ec884354c,0.0516,0.0516,0,34,34,25,1,onethree,,,,,,,,,,,,,,,,,,,,,,,,,,,,,,,,,,,,,,,,,,,,,,,,,,,,,,,,,,,,,,,,,,,,,,,,,,,,,,,,,,,,,,,,,,,,,,,,,,,,,,,,,,,,,,,,,,,,,,,,,,,,,,,,,,,,,,,,,
,,5f3006e1a760660769bd6930,2026-03-17_15h09.30.007,kallum_motion_pilot_GIST_update_2,2026.1.1,Win32,28.8184438,5f3006e1a760660769bd6930,69b95efdef24cd8a694e89ee,69b96081d578091ec884354c,0.0519,0.0519,0,35,35,94,1,eightsix,,,,,,,,,,,,,,,,,,,,,,,,,,,,,,,,,,,,,,,,,,,,,,,,,,,,,,,,,,,,,,,,,,,,,,,,,,,,,,,,,,,,,,,,,,,,,,,,,,,,,,,,,,,,,,,,,,,,,,,,,,,,,,,,,,,,,,,,,
,,5f3006e1a760660769bd6930,2026-03-17_15h09.30.007,kallum_motion_pilot_GIST_update_2,2026.1.1,Win32,28.8184438,5f3006e1a760660769bd6930,69b95efdef24cd8a694e89ee,69b96081d578091ec884354c,0.052,0.052,0,36,36,109,1,seveneight,,,,,,,,,,,,,,,,,,,,,,,,,,,,,,,,,,,,,,,,,,,,,,,,,,,,,,,,,,,,,,,,,,,,,,,,,,,,,,,,,,,,,,,,,,,,,,,,,,,,,,,,,,,,,,,,,,,,,,,,,,,,,,,,,,,,,,,,,
,,5f3006e1a760660769bd6930,2026-03-17_15h09.30.007,kallum_motion_pilot_GIST_update_2,2026.1.1,Win32,28.8184438,5f3006e1a760660769bd6930,69b95efdef24cd8a694e89ee,69b96081d578091ec884354c,0.0521,0.0522,0,37,37,87,1,eightseven,,,,,,,,,,,,,,,,,,,,,,,,,,,,,,,,,,,,,,,,,,,,,,,,,,,,,,,,,,,,,,,,,,,,,,,,,,,,,,,,,,,,,,,,,,,,,,,,,,,,,,,,,,,,,,,,,,,,,,,,,,,,,,,,,,,,,,,,,
,,5f3006e1a760660769bd6930,2026-03-17_15h09.30.007,kallum_motion_pilot_GIST_update_2,2026.1.1,Win32,28.8184438,5f3006e1a760660769bd6930,69b95efdef24cd8a694e89ee,69b96081d578091ec884354c,0.0523,0.0523,0,38,38,141,1,seveneight,,,,,,,,,,,,,,,,,,,,,,,,,,,,,,,,,,,,,,,,,,,,,,,,,,,,,,,,,,,,,,,,,,,,,,,,,,,,,,,,,,,,,,,,,,,,,,,,,,,,,,,,,,,,,,,,,,,,,,,,,,,,,,,,,,,,,,,,,
,,5f3006e1a760660769bd6930,2026-03-17_15h09.30.007,kallum_motion_pilot_GIST_update_2,2026.1.1,Win32,28.8184438,5f3006e1a760660769bd6930,69b95efdef24cd8a694e89ee,69b96081d578091ec884354c,0.0525,0.0525,0,39,39,158,1,eightsix,,,,,,,,,,,,,,,,,,,,,,,,,,,,,,,,,,,,,,,,,,,,,,,,,,,,,,,,,,,,,,,,,,,,,,,,,,,,,,,,,,,,,,,,,,,,,,,,,,,,,,,,,,,,,,,,,,,,,,,,,,,,,,,,,,,,,,,,,
,,5f3006e1a760660769bd6930,2026-03-17_15h09.30.007,kallum_motion_pilot_GIST_update_2,2026.1.1,Win32,28.8184438,5f3006e1a760660769bd6930,69b95efdef24cd8a694e89ee,69b96081d578091ec884354c,0.0527,0.0527,0,40,40,63,1,fourthree,,,,,,,,,,,,,,,,,,,,,,,,,,,,,,,,,,,,,,,,,,,,,,,,,,,,,,,,,,,,,,,,,,,,,,,,,,,,,,,,,,,,,,,,,,,,,,,,,,,,,,,,,,,,,,,,,,,,,,,,,,,,,,,,,,,,,,,,,
,,5f3006e1a760660769bd6930,2026-03-17_15h09.30.007,kallum_motion_pilot_GIST_update_2,2026.1.1,Win32,28.8184438,5f3006e1a760660769bd6930,69b95efdef24cd8a694e89ee,69b96081d578091ec884354c,0.0529,0.0529,0,41,41,61,1,threefour,,,,,,,,,,,,,,,,,,,,,,,,,,,,,,,,,,,,,,,,,,,,,,,,,,,,,,,,,,,,,,,,,,,,,,,,,,,,,,,,,,,,,,,,,,,,,,,,,,,,,,,,,,,,,,,,,,,,,,,,,,,,,,,,,,,,,,,,,
,,5f3006e1a760660769bd6930,2026-03-17_15h09.30.007,kallum_motion_pilot_GIST_update_2,2026.1.1,Win32,28.8184438,5f3006e1a760660769bd6930,69b95efdef24cd8a694e89ee,69b96081d578091ec884354c,0.0531,0.0531,0,42,42,50,1,twoone,,,,,,,,,,,,,,,,,,,,,,,,,,,,,,,,,,,,,,,,,,,,,,,,,,,,,,,,,,,,,,,,,,,,,,,,,,,,,,,,,,,,,,,,,,,,,,,,,,,,,,,,,,,,,,,,,,,,,,,,,,,,,,,,,,,,,,,,,
,,5f3006e1a760660769bd6930,2026-03-17_15h09.30.007,kallum_motion_pilot_GIST_update_2,2026.1.1,Win32,28.8184438,5f3006e1a760660769bd6930,69b95efdef24cd8a694e89ee,69b96081d578091ec884354c,0.0533,0.0534,0,43,43,91,1,sixeight,,,,,,,,,,,,,,,,,,,,,,,,,,,,,,,,,,,,,,,,,,,,,,,,,,,,,,,,,,,,,,,,,,,,,,,,,,,,,,,,,,,,,,,,,,,,,,,,,,,,,,,,,,,,,,,,,,,,,,,,,,,,,,,,,,,,,,,,,
,,5f3006e1a760660769bd6930,2026-03-17_15h09.30.007,kallum_motion_pilot_GIST_update_2,2026.1.1,Win32,28.8184438,5f3006e1a760660769bd6930,69b95efdef24cd8a694e89ee,69b96081d578091ec884354c,0.0535,0.0535,0,44,44,60,1,threeone,,,,,,,,,,,,,,,,,,,,,,,,,,,,,,,,,,,,,,,,,,,,,,,,,,,,,,,,,,,,,,,,,,,,,,,,,,,,,,,,,,,,,,,,,,,,,,,,,,,,,,,,,,,,,,,,,,,,,,,,,,,,,,,,,,,,,,,,,
,,5f3006e1a760660769bd6930,2026-03-17_15h09.30.007,kallum_motion_pilot_GIST_update_2,2026.1.1,Win32,28.8184438,5f3006e1a760660769bd6930,69b95efdef24cd8a694e89ee,69b96081d578091ec884354c,0.0537,0.0537,0,45,45,33,1,onethree,,,,,,,,,,,,,,,,,,,,,,,,,,,,,,,,,,,,,,,,,,,,,,,,,,,,,,,,,,,,,,,,,,,,,,,,,,,,,,,,,,,,,,,,,,,,,,,,,,,,,,,,,,,,,,,,,,,,,,,,,,,,,,,,,,,,,,,,,
,,5f3006e1a760660769bd6930,2026-03-17_15h09.30.007,kallum_motion_pilot_GIST_update_2,2026.1.1,Win32,28.8184438,5f3006e1a760660769bd6930,69b95efdef24cd8a694e89ee,69b96081d578091ec884354c,0.0539,0.0539,0,46,46,5,1,threefour,,,,,,,,,,,,,,,,,,,,,,,,,,,,,,,,,,,,,,,,,,,,,,,,,,,,,,,,,,,,,,,,,,,,,,,,,,,,,,,,,,,,,,,,,,,,,,,,,,,,,,,,,,,,,,,,,,,,,,,,,,,,,,,,,,,,,,,,,
,,5f3006e1a760660769bd6930,2026-03-17_15h09.30.007,kallum_motion_pilot_GIST_update_2,2026.1.1,Win32,28.8184438,5f3006e1a760660769bd6930,69b95efdef24cd8a694e89ee,69b96081d578091ec884354c,0.0542,0.0542,0,47,47,118,1,eightsix,,,,,,,,,,,,,,,,,,,,,,,,,,,,,,,,,,,,,,,,,,,,,,,,,,,,,,,,,,,,,,,,,,,,,,,,,,,,,,,,,,,,,,,,,,,,,,,,,,,,,,,,,,,,,,,,,,,,,,,,,,,,,,,,,,,,,,,,,
,,5f3006e1a760660769bd6930,2026-03-17_15h09.30.007,kallum_motion_pilot_GIST_update_2,2026.1.1,Win32,28.8184438,5f3006e1a760660769bd6930,69b95efdef24cd8a694e89ee,69b96081d578091ec884354c,0.0543,0.0544,0,48,48,52,1,threeone,,,,,,,,,,,,,,,,,,,,,,,,,,,,,,,,,,,,,,,,,,,,,,,,,,,,,,,,,,,,,,,,,,,,,,,,,,,,,,,,,,,,,,,,,,,,,,,,,,,,,,,,,,,,,,,,,,,,,,,,,,,,,,,,,,,,,,,,,
,,5f3006e1a760660769bd6930,2026-03-17_15h09.30.007,kallum_motion_pilot_GIST_update_2,2026.1.1,Win32,28.8184438,5f3006e1a760660769bd6930,69b95efdef24cd8a694e89ee,69b96081d578091ec884354c,0.0545,0.0545,0,49,49,49,1,onethree,,,,,,,,,,,,,,,,,,,,,,,,,,,,,,,,,,,,,,,,,,,,,,,,,,,,,,,,,,,,,,,,,,,,,,,,,,,,,,,,,,,,,,,,,,,,,,,,,,,,,,,,,,,,,,,,,,,,,,,,,,,,,,,,,,,,,,,,,
,,5f3006e1a760660769bd6930,2026-03-17_15h09.30.007,kallum_motion_pilot_GIST_update_2,2026.1.1,Win32,28.8184438,5f3006e1a760660769bd6930,69b95efdef24cd8a694e89ee,69b96081d578091ec884354c,0.0547,0.0547,0,50,50,6,1,fourtwo,,,,,,,,,,,,,,,,,,,,,,,,,,,,,,,,,,,,,,,,,,,,,,,,,,,,,,,,,,,,,,,,,,,,,,,,,,,,,,,,,,,,,,,,,,,,,,,,,,,,,,,,,,,,,,,,,,,,,,,,,,,,,,,,,,,,,,,,,
,,5f3006e1a760660769bd6930,2026-03-17_15h09.30.007,kallum_motion_pilot_GIST_update_2,2026.1.1,Win32,28.8184438,5f3006e1a760660769bd6930,69b95efdef24cd8a694e89ee,69b96081d578091ec884354c,0.0548,0.0549,0,51,51,13,1,threefour,,,,,,,,,,,,,,,,,,,,,,,,,,,,,,,,,,,,,,,,,,,,,,,,,,,,,,,,,,,,,,,,,,,,,,,,,,,,,,,,,,,,,,,,,,,,,,,,,,,,,,,,,,,,,,,,,,,,,,,,,,,,,,,,,,,,,,,,,
,,5f3006e1a760660769bd6930,2026-03-17_15h09.30.007,kallum_motion_pilot_GIST_update_2,2026.1.1,Win32,28.8184438,5f3006e1a760660769bd6930,69b95efdef24cd8a694e89ee,69b96081d578091ec884354c,0.0551,0.0551,0,52,52,29,1,threefour,,,,,,,,,,,,,,,,,,,,,,,,,,,,,,,,,,,,,,,,,,,,,,,,,,,,,,,,,,,,,,,,,,,,,,,,,,,,,,,,,,,,,,,,,,,,,,,,,,,,,,,,,,,,,,,,,,,,,,,,,,,,,,,,,,,,,,,,,
,,5f3006e1a760660769bd6930,2026-03-17_15h09.30.007,kallum_motion_pilot_GIST_update_2,2026.1.1,Win32,28.8184438,5f3006e1a760660769bd6930,69b95efdef24cd8a694e89ee,69b96081d578091ec884354c,0.0553,0.0553,0,53,53,85,1,seveneight,,,,,,,,,,,,,,,,,,,,,,,,,,,,,,,,,,,,,,,,,,,,,,,,,,,,,,,,,,,,,,,,,,,,,,,,,,,,,,,,,,,,,,,,,,,,,,,,,,,,,,,,,,,,,,,,,,,,,,,,,,,,,,,,,,,,,,,,,
,,5f3006e1a760660769bd6930,2026-03-17_15h09.30.007,kallum_motion_pilot_GIST_update_2,2026.1.1,Win32,28.8184438,5f3006e1a760660769bd6930,69b95efdef24cd8a694e89ee,69b96081d578091ec884354c,0.0555,0.0555,0,54,54,130,1,sixfive,,,,,,,,,,,,,,,,,,,,,,,,,,,,,,,,,,,,,,,,,,,,,,,,,,,,,,,,,,,,,,,,,,,,,,,,,,,,,,,,,,,,,,,,,,,,,,,,,,,,,,,,,,,,,,,,,,,,,,,,,,,,,,,,,,,,,,,,,
,,5f3006e1a760660769bd6930,2026-03-17_15h09.30.007,kallum_motion_pilot_GIST_update_2,2026.1.1,Win32,28.8184438,5f3006e1a760660769bd6930,69b95efdef24cd8a694e89ee,69b96081d578091ec884354c,0.0557,0.0557,0,55,55,56,1,onetwo,,,,,,,,,,,,,,,,,,,,,,,,,,,,,,,,,,,,,,,,,,,,,,,,,,,,,,,,,,,,,,,,,,,,,,,,,,,,,,,,,,,,,,,,,,,,,,,,,,,,,,,,,,,,,,,,,,,,,,,,,,,,,,,,,,,,,,,,,
,,5f3006e1a760660769bd6930,2026-03-17_15h09.30.007,kallum_motion_pilot_GIST_update_2,2026.1.1,Win32,28.8184438,5f3006e1a760660769bd6930,69b95efdef24cd8a694e89ee,69b96081d578091ec884354c,0.0559,0.0559,0,56,56,20,1,threeone,,,,,,,,,,,,,,,,,,,,,,,,,,,,,,,,,,,,,,,,,,,,,,,,,,,,,,,,,,,,,,,,,,,,,,,,,,,,,,,,,,,,,,,,,,,,,,,,,,,,,,,,,,,,,,,,,,,,,,,,,,,,,,,,,,,,,,,,,
,,5f3006e1a760660769bd6930,2026-03-17_15h09.30.007,kallum_motion_pilot_GIST_update_2,2026.1.1,Win32,28.8184438,5f3006e1a760660769bd6930,69b95efdef24cd8a694e89ee,69b96081d578091ec884354c,0.0561,0.0561,0,57,57,38,1,fourtwo,,,,,,,,,,,,,,,,,,,,,,,,,,,,,,,,,,,,,,,,,,,,,,,,,,,,,,,,,,,,,,,,,,,,,,,,,,,,,,,,,,,,,,,,,,,,,,,,,,,,,,,,,,,,,,,,,,,,,,,,,,,,,,,,,,,,,,,,,
,,5f3006e1a760660769bd6930,2026-03-17_15h09.30.007,kallum_motion_pilot_GIST_update_2,2026.1.1,Win32,28.8184438,5f3006e1a760660769bd6930,69b95efdef24cd8a694e89ee,69b96081d578091ec884354c,0.0563,0.0563,0,58,58,99,1,sixeight,,,,,,,,,,,,,,,,,,,,,,,,,,,,,,,,,,,,,,,,,,,,,,,,,,,,,,,,,,,,,,,,,,,,,,,,,,,,,,,,,,,,,,,,,,,,,,,,,,,,,,,,,,,,,,,,,,,,,,,,,,,,,,,,,,,,,,,,,
,,5f3006e1a760660769bd6930,2026-03-17_15h09.30.007,kallum_motion_pilot_GIST_update_2,2026.1.1,Win32,28.8184438,5f3006e1a760660769bd6930,69b95efdef24cd8a694e89ee,69b96081d578091ec884354c,0.0565,0.0565,0,59,59,102,1,eightsix,,,,,,,,,,,,,,,,,,,,,,,,,,,,,,,,,,,,,,,,,,,,,,,,,,,,,,,,,,,,,,,,,,,,,,,,,,,,,,,,,,,,,,,,,,,,,,,,,,,,,,,,,,,,,,,,,,,,,,,,,,,,,,,,,,,,,,,,,
,,5f3006e1a760660769bd6930,2026-03-17_15h09.30.007,kallum_motion_pilot_GIST_update_2,2026.1.1,Win32,28.8184438,5f3006e1a760660769bd6930,69b95efdef24cd8a694e89ee,69b96081d578091ec884354c,0.0568,0.0568,0,60,60,76,1,threeone,,,,,,,,,,,,,,,,,,,,,,,,,,,,,,,,,,,,,,,,,,,,,,,,,,,,,,,,,,,,,,,,,,,,,,,,,,,,,,,,,,,,,,,,,,,,,,,,,,,,,,,,,,,,,,,,,,,,,,,,,,,,,,,,,,,,,,,,,
,,5f3006e1a760660769bd6930,2026-03-17_15h09.30.007,kallum_motion_pilot_GIST_update_2,2026.1.1,Win32,28.8184438,5f3006e1a760660769bd6930,69b95efdef24cd8a694e89ee,69b96081d578091ec884354c,0.0569,0.0569,0,61,61,3,1,twofour,,,,,,,,,,,,,,,,,,,,,,,,,,,,,,,,,,,,,,,,,,,,,,,,,,,,,,,,,,,,,,,,,,,,,,,,,,,,,,,,,,,,,,,,,,,,,,,,,,,,,,,,,,,,,,,,,,,,,,,,,,,,,,,,,,,,,,,,,
,,5f3006e1a760660769bd6930,2026-03-17_15h09.30.007,kallum_motion_pilot_GIST_update_2,2026.1.1,Win32,28.8184438,5f3006e1a760660769bd6930,69b95efdef24cd8a694e89ee,69b96081d578091ec884354c,0.0572,0.0572,0,62,62,84,1,sevenfive,,,,,,,,,,,,,,,,,,,,,,,,,,,,,,,,,,,,,,,,,,,,,,,,,,,,,,,,,,,,,,,,,,,,,,,,,,,,,,,,,,,,,,,,,,,,,,,,,,,,,,,,,,,,,,,,,,,,,,,,,,,,,,,,,,,,,,,,,
,,5f3006e1a760660769bd6930,2026-03-17_15h09.30.007,kallum_motion_pilot_GIST_update_2,2026.1.1,Win32,28.8184438,5f3006e1a760660769bd6930,69b95efdef24cd8a694e89ee,69b96081d578091ec884354c,0.0574,0.0574,0,63,63,134,1,eightsix,,,,,,,,,,,,,,,,,,,,,,,,,,,,,,,,,,,,,,,,,,,,,,,,,,,,,,,,,,,,,,,,,,,,,,,,,,,,,,,,,,,,,,,,,,,,,,,,,,,,,,,,,,,,,,,,,,,,,,,,,,,,,,,,,,,,,,,,,
,,5f3006e1a760660769bd6930,2026-03-17_15h09.30.007,kallum_motion_pilot_GIST_update_2,2026.1.1,Win32,28.8184438,5f3006e1a760660769bd6930,69b95efdef24cd8a694e89ee,69b96081d578091ec884354c,0.0576,0.0576,0,64,64,157,1,seveneight,,,,,,,,,,,,,,,,,,,,,,,,,,,,,,,,,,,,,,,,,,,,,,,,,,,,,,,,,,,,,,,,,,,,,,,,,,,,,,,,,,,,,,,,,,,,,,,,,,,,,,,,,,,,,,,,,,,,,,,,,,,,,,,,,,,,,,,,,
,,5f3006e1a760660769bd6930,2026-03-17_15h09.30.007,kallum_motion_pilot_GIST_update_2,2026.1.1,Win32,28.8184438,5f3006e1a760660769bd6930,69b95efdef24cd8a694e89ee,69b96081d578091ec884354c,0.0578,0.0578,0,65,65,15,1,fourthree,,,,,,,,,,,,,,,,,,,,,,,,,,,,,,,,,,,,,,,,,,,,,,,,,,,,,,,,,,,,,,,,,,,,,,,,,,,,,,,,,,,,,,,,,,,,,,,,,,,,,,,,,,,,,,,,,,,,,,,,,,,,,,,,,,,,,,,,,
,,5f3006e1a760660769bd6930,2026-03-17_15h09.30.007,kallum_motion_pilot_GIST_update_2,2026.1.1,Win32,28.8184438,5f3006e1a760660769bd6930,69b95efdef24cd8a694e89ee,69b96081d578091ec884354c,0.058,0.058,0,66,66,19,1,twofour,,,,,,,,,,,,,,,,,,,,,,,,,,,,,,,,,,,,,,,,,,,,,,,,,,,,,,,,,,,,,,,,,,,,,,,,,,,,,,,,,,,,,,,,,,,,,,,,,,,,,,,,,,,,,,,,,,,,,,,,,,,,,,,,,,,,,,,,,
,,5f3006e1a760660769bd6930,2026-03-17_15h09.30.007,kallum_motion_pilot_GIST_update_2,2026.1.1,Win32,28.8184438,5f3006e1a760660769bd6930,69b95efdef24cd8a694e89ee,69b96081d578091ec884354c,0.0583,0.0583,0,67,67,155,1,sixeight,,,,,,,,,,,,,,,,,,,,,,,,,,,,,,,,,,,,,,,,,,,,,,,,,,,,,,,,,,,,,,,,,,,,,,,,,,,,,,,,,,,,,,,,,,,,,,,,,,,,,,,,,,,,,,,,,,,,,,,,,,,,,,,,,,,,,,,,,
,,5f3006e1a760660769bd6930,2026-03-17_15h09.30.007,kallum_motion_pilot_GIST_update_2,2026.1.1,Win32,28.8184438,5f3006e1a760660769bd6930,69b95efdef24cd8a694e89ee,69b96081d578091ec884354c,0.0585,0.0585,0,68,68,142,1,eightsix,,,,,,,,,,,,,,,,,,,,,,,,,,,,,,,,,,,,,,,,,,,,,,,,,,,,,,,,,,,,,,,,,,,,,,,,,,,,,,,,,,,,,,,,,,,,,,,,,,,,,,,,,,,,,,,,,,,,,,,,,,,,,,,,,,,,,,,,,
,,5f3006e1a760660769bd6930,2026-03-17_15h09.30.007,kallum_motion_pilot_GIST_update_2,2026.1.1,Win32,28.8184438,5f3006e1a760660769bd6930,69b95efdef24cd8a694e89ee,69b96081d578091ec884354c,0.0587,0.0588,0,69,69,40,1,onetwo,,,,,,,,,,,,,,,,,,,,,,,,,,,,,,,,,,,,,,,,,,,,,,,,,,,,,,,,,,,,,,,,,,,,,,,,,,,,,,,,,,,,,,,,,,,,,,,,,,,,,,,,,,,,,,,,,,,,,,,,,,,,,,,,,,,,,,,,,
,,5f3006e1a760660769bd6930,2026-03-17_15h09.30.007,kallum_motion_pilot_GIST_update_2,2026.1.1,Win32,28.8184438,5f3006e1a760660769bd6930,69b95efdef24cd8a694e89ee,69b96081d578091ec884354c,0.059,0.059,0,70,70,35,1,twofour,,,,,,,,,,,,,,,,,,,,,,,,,,,,,,,,,,,,,,,,,,,,,,,,,,,,,,,,,,,,,,,,,,,,,,,,,,,,,,,,,,,,,,,,,,,,,,,,,,,,,,,,,,,,,,,,,,,,,,,,,,,,,,,,,,,,,,,,,
,,5f3006e1a760660769bd6930,2026-03-17_15h09.30.007,kallum_motion_pilot_GIST_update_2,2026.1.1,Win32,28.8184438,5f3006e1a760660769bd6930,69b95efdef24cd8a694e89ee,69b96081d578091ec884354c,0.0592,0.0592,0,71,71,107,1,sixeight,,,,,,,,,,,,,,,,,,,,,,,,,,,,,,,,,,,,,,,,,,,,,,,,,,,,,,,,,,,,,,,,,,,,,,,,,,,,,,,,,,,,,,,,,,,,,,,,,,,,,,,,,,,,,,,,,,,,,,,,,,,,,,,,,,,,,,,,,
,,5f3006e1a760660769bd6930,2026-03-17_15h09.30.007,kallum_motion_pilot_GIST_update_2,2026.1.1,Win32,28.8184438,5f3006e1a760660769bd6930,69b95efdef24cd8a694e89ee,69b96081d578091ec884354c,0.0594,0.0594,0,72,72,121,1,fiveseven,,,,,,,,,,,,,,,,,,,,,,,,,,,,,,,,,,,,,,,,,,,,,,,,,,,,,,,,,,,,,,,,,,,,,,,,,,,,,,,,,,,,,,,,,,,,,,,,,,,,,,,,,,,,,,,,,,,,,,,,,,,,,,,,,,,,,,,,,
,,5f3006e1a760660769bd6930,2026-03-17_15h09.30.007,kallum_motion_pilot_GIST_update_2,2026.1.1,Win32,28.8184438,5f3006e1a760660769bd6930,69b95efdef24cd8a694e89ee,69b96081d578091ec884354c,0.0596,0.0596,0,73,73,137,1,fiveseven,,,,,,,,,,,,,,,,,,,,,,,,,,,,,,,,,,,,,,,,,,,,,,,,,,,,,,,,,,,,,,,,,,,,,,,,,,,,,,,,,,,,,,,,,,,,,,,,,,,,,,,,,,,,,,,,,,,,,,,,,,,,,,,,,,,,,,,,,
,,5f3006e1a760660769bd6930,2026-03-17_15h09.30.007,kallum_motion_pilot_GIST_update_2,2026.1.1,Win32,28.8184438,5f3006e1a760660769bd6930,69b95efdef24cd8a694e89ee,69b96081d578091ec884354c,0.0598,0.0598,0,74,74,67,1,twofour,,,,,,,,,,,,,,,,,,,,,,,,,,,,,,,,,,,,,,,,,,,,,,,,,,,,,,,,,,,,,,,,,,,,,,,,,,,,,,,,,,,,,,,,,,,,,,,,,,,,,,,,,,,,,,,,,,,,,,,,,,,,,,,,,,,,,,,,,
,,5f3006e1a760660769bd6930,2026-03-17_15h09.30.007,kallum_motion_pilot_GIST_update_2,2026.1.1,Win32,28.8184438,5f3006e1a760660769bd6930,69b95efdef24cd8a694e89ee,69b96081d578091ec884354c,0.06,0.06,0,75,75,100,1,sevenfive,,,,,,,,,,,,,,,,,,,,,,,,,,,,,,,,,,,,,,,,,,,,,,,,,,,,,,,,,,,,,,,,,,,,,,,,,,,,,,,,,,,,,,,,,,,,,,,,,,,,,,,,,,,,,,,,,,,,,,,,,,,,,,,,,,,,,,,,,
,,5f3006e1a760660769bd6930,2026-03-17_15h09.30.007,kallum_motion_pilot_GIST_update_2,2026.1.1,Win32,28.8184438,5f3006e1a760660769bd6930,69b95efdef24cd8a694e89ee,69b96081d578091ec884354c,0.0602,0.0602,0,76,76,144,1,fivesix,,,,,,,,,,,,,,,,,,,,,,,,,,,,,,,,,,,,,,,,,,,,,,,,,,,,,,,,,,,,,,,,,,,,,,,,,,,,,,,,,,,,,,,,,,,,,,,,,,,,,,,,,,,,,,,,,,,,,,,,,,,,,,,,,,,,,,,,,
,,5f3006e1a760660769bd6930,2026-03-17_15h09.30.007,kallum_motion_pilot_GIST_update_2,2026.1.1,Win32,28.8184438,5f3006e1a760660769bd6930,69b95efdef24cd8a694e89ee,69b96081d578091ec884354c,0.0605,0.0605,0,77,77,128,1,fivesix,,,,,,,,,,,,,,,,,,,,,,,,,,,,,,,,,,,,,,,,,,,,,,,,,,,,,,,,,,,,,,,,,,,,,,,,,,,,,,,,,,,,,,,,,,,,,,,,,,,,,,,,,,,,,,,,,,,,,,,,,,,,,,,,,,,,,,,,,
,,5f3006e1a760660769bd6930,2026-03-17_15h09.30.007,kallum_motion_pilot_GIST_update_2,2026.1.1,Win32,28.8184438,5f3006e1a760660769bd6930,69b95efdef24cd8a694e89ee,69b96081d578091ec884354c,0.0606,0.0607,0,78,78,22,1,fourtwo,,,,,,,,,,,,,,,,,,,,,,,,,,,,,,,,,,,,,,,,,,,,,,,,,,,,,,,,,,,,,,,,,,,,,,,,,,,,,,,,,,,,,,,,,,,,,,,,,,,,,,,,,,,,,,,,,,,,,,,,,,,,,,,,,,,,,,,,,
,,5f3006e1a760660769bd6930,2026-03-17_15h09.30.007,kallum_motion_pilot_GIST_update_2,2026.1.1,Win32,28.8184438,5f3006e1a760660769bd6930,69b95efdef24cd8a694e89ee,69b96081d578091ec884354c,0.0609,0.0609,0,79,79,110,1,eightsix,,,,,,,,,,,,,,,,,,,,,,,,,,,,,,,,,,,,,,,,,,,,,,,,,,,,,,,,,,,,,,,,,,,,,,,,,,,,,,,,,,,,,,,,,,,,,,,,,,,,,,,,,,,,,,,,,,,,,,,,,,,,,,,,,,,,,,,,,
,,5f3006e1a760660769bd6930,2026-03-17_15h09.30.007,kallum_motion_pilot_GIST_update_2,2026.1.1,Win32,28.8184438,5f3006e1a760660769bd6930,69b95efdef24cd8a694e89ee,69b96081d578091ec884354c,0.061,0.061,0,80,80,4,1,threeone,,,,,,,,,,,,,,,,,,,,,,,,,,,,,,,,,,,,,,,,,,,,,,,,,,,,,,,,,,,,,,,,,,,,,,,,,,,,,,,,,,,,,,,,,,,,,,,,,,,,,,,,,,,,,,,,,,,,,,,,,,,,,,,,,,,,,,,,,
,,5f3006e1a760660769bd6930,2026-03-17_15h09.30.007,kallum_motion_pilot_GIST_update_2,2026.1.1,Win32,28.8184438,5f3006e1a760660769bd6930,69b95efdef24cd8a694e89ee,69b96081d578091ec884354c,0.0613,0.0613,0,81,81,145,1,fiveseven,,,,,,,,,,,,,,,,,,,,,,,,,,,,,,,,,,,,,,,,,,,,,,,,,,,,,,,,,,,,,,,,,,,,,,,,,,,,,,,,,,,,,,,,,,,,,,,,,,,,,,,,,,,,,,,,,,,,,,,,,,,,,,,,,,,,,,,,,
,,5f3006e1a760660769bd6930,2026-03-17_15h09.30.007,kallum_motion_pilot_GIST_update_2,2026.1.1,Win32,28.8184438,5f3006e1a760660769bd6930,69b95efdef24cd8a694e89ee,69b96081d578091ec884354c,0.0615,0.0615,0,82,82,127,1,eightseven,,,,,,,,,,,,,,,,,,,,,,,,,,,,,,,,,,,,,,,,,,,,,,,,,,,,,,,,,,,,,,,,,,,,,,,,,,,,,,,,,,,,,,,,,,,,,,,,,,,,,,,,,,,,,,,,,,,,,,,,,,,,,,,,,,,,,,,,,
,,5f3006e1a760660769bd6930,2026-03-17_15h09.30.007,kallum_motion_pilot_GIST_update_2,2026.1.1,Win32,28.8184438,5f3006e1a760660769bd6930,69b95efdef24cd8a694e89ee,69b96081d578091ec884354c,0.0617,0.0617,0,83,83,146,1,sixfive,,,,,,,,,,,,,,,,,,,,,,,,,,,,,,,,,,,,,,,,,,,,,,,,,,,,,,,,,,,,,,,,,,,,,,,,,,,,,,,,,,,,,,,,,,,,,,,,,,,,,,,,,,,,,,,,,,,,,,,,,,,,,,,,,,,,,,,,,
,,5f3006e1a760660769bd6930,2026-03-17_15h09.30.007,kallum_motion_pilot_GIST_update_2,2026.1.1,Win32,28.8184438,5f3006e1a760660769bd6930,69b95efdef24cd8a694e89ee,69b96081d578091ec884354c,0.0619,0.0619,0,84,84,39,1,fourthree,,,,,,,,,,,,,,,,,,,,,,,,,,,,,,,,,,,,,,,,,,,,,,,,,,,,,,,,,,,,,,,,,,,,,,,,,,,,,,,,,,,,,,,,,,,,,,,,,,,,,,,,,,,,,,,,,,,,,,,,,,,,,,,,,,,,,,,,,
,,5f3006e1a760660769bd6930,2026-03-17_15h09.30.007,kallum_motion_pilot_GIST_update_2,2026.1.1,Win32,28.8184438,5f3006e1a760660769bd6930,69b95efdef24cd8a694e89ee,69b96081d578091ec884354c,0.0622,0.0622,0,85,85,8,1,onetwo,,,,,,,,,,,,,,,,,,,,,,,,,,,,,,,,,,,,,,,,,,,,,,,,,,,,,,,,,,,,,,,,,,,,,,,,,,,,,,,,,,,,,,,,,,,,,,,,,,,,,,,,,,,,,,,,,,,,,,,,,,,,,,,,,,,,,,,,,
,,5f3006e1a760660769bd6930,2026-03-17_15h09.30.007,kallum_motion_pilot_GIST_update_2,2026.1.1,Win32,28.8184438,5f3006e1a760660769bd6930,69b95efdef24cd8a694e89ee,69b96081d578091ec884354c,0.0624,0.0624,0,86,86,113,1,fiveseven,,,,,,,,,,,,,,,,,,,,,,,,,,,,,,,,,,,,,,,,,,,,,,,,,,,,,,,,,,,,,,,,,,,,,,,,,,,,,,,,,,,,,,,,,,,,,,,,,,,,,,,,,,,,,,,,,,,,,,,,,,,,,,,,,,,,,,,,,
,,5f3006e1a760660769bd6930,2026-03-17_15h09.30.007,kallum_motion_pilot_GIST_update_2,2026.1.1,Win32,28.8184438,5f3006e1a760660769bd6930,69b95efdef24cd8a694e89ee,69b96081d578091ec884354c,0.0625,0.0626,0,87,87,70,1,fourtwo,,,,,,,,,,,,,,,,,,,,,,,,,,,,,,,,,,,,,,,,,,,,,,,,,,,,,,,,,,,,,,,,,,,,,,,,,,,,,,,,,,,,,,,,,,,,,,,,,,,,,,,,,,,,,,,,,,,,,,,,,,,,,,,,,,,,,,,,,
,,5f3006e1a760660769bd6930,2026-03-17_15h09.30.007,kallum_motion_pilot_GIST_update_2,2026.1.1,Win32,28.8184438,5f3006e1a760660769bd6930,69b95efdef24cd8a694e89ee,69b96081d578091ec884354c,0.0628,0.0628,0,88,88,97,1,fiveseven,,,,,,,,,,,,,,,,,,,,,,,,,,,,,,,,,,,,,,,,,,,,,,,,,,,,,,,,,,,,,,,,,,,,,,,,,,,,,,,,,,,,,,,,,,,,,,,,,,,,,,,,,,,,,,,,,,,,,,,,,,,,,,,,,,,,,,,,,
,,5f3006e1a760660769bd6930,2026-03-17_15h09.30.007,kallum_motion_pilot_GIST_update_2,2026.1.1,Win32,28.8184438,5f3006e1a760660769bd6930,69b95efdef24cd8a694e89ee,69b96081d578091ec884354c,0.0629,0.063,0,89,89,119,1,eightseven,,,,,,,,,,,,,,,,,,,,,,,,,,,,,,,,,,,,,,,,,,,,,,,,,,,,,,,,,,,,,,,,,,,,,,,,,,,,,,,,,,,,,,,,,,,,,,,,,,,,,,,,,,,,,,,,,,,,,,,,,,,,,,,,,,,,,,,,,
,,5f3006e1a760660769bd6930,2026-03-17_15h09.30.007,kallum_motion_pilot_GIST_update_2,2026.1.1,Win32,28.8184438,5f3006e1a760660769bd6930,69b95efdef24cd8a694e89ee,69b96081d578091ec884354c,0.0632,0.0632,0,90,90,159,1,eightseven,,,,,,,,,,,,,,,,,,,,,,,,,,,,,,,,,,,,,,,,,,,,,,,,,,,,,,,,,,,,,,,,,,,,,,,,,,,,,,,,,,,,,,,,,,,,,,,,,,,,,,,,,,,,,,,,,,,,,,,,,,,,,,,,,,,,,,,,,
,,5f3006e1a760660769bd6930,2026-03-17_15h09.30.007,kallum_motion_pilot_GIST_update_2,2026.1.1,Win32,28.8184438,5f3006e1a760660769bd6930,69b95efdef24cd8a694e89ee,69b96081d578091ec884354c,0.0634,0.0634,0,91,91,160,1,fivesix,,,,,,,,,,,,,,,,,,,,,,,,,,,,,,,,,,,,,,,,,,,,,,,,,,,,,,,,,,,,,,,,,,,,,,,,,,,,,,,,,,,,,,,,,,,,,,,,,,,,,,,,,,,,,,,,,,,,,,,,,,,,,,,,,,,,,,,,,
,,5f3006e1a760660769bd6930,2026-03-17_15h09.30.007,kallum_motion_pilot_GIST_update_2,2026.1.1,Win32,28.8184438,5f3006e1a760660769bd6930,69b95efdef24cd8a694e89ee,69b96081d578091ec884354c,0.0636,0.0637,0,92,92,125,1,seveneight,,,,,,,,,,,,,,,,,,,,,,,,,,,,,,,,,,,,,,,,,,,,,,,,,,,,,,,,,,,,,,,,,,,,,,,,,,,,,,,,,,,,,,,,,,,,,,,,,,,,,,,,,,,,,,,,,,,,,,,,,,,,,,,,,,,,,,,,,
,,5f3006e1a760660769bd6930,2026-03-17_15h09.30.007,kallum_motion_pilot_GIST_update_2,2026.1.1,Win32,28.8184438,5f3006e1a760660769bd6930,69b95efdef24cd8a694e89ee,69b96081d578091ec884354c,0.0639,0.0639,0,93,93,83,1,sixeight,,,,,,,,,,,,,,,,,,,,,,,,,,,,,,,,,,,,,,,,,,,,,,,,,,,,,,,,,,,,,,,,,,,,,,,,,,,,,,,,,,,,,,,,,,,,,,,,,,,,,,,,,,,,,,,,,,,,,,,,,,,,,,,,,,,,,,,,,
,,5f3006e1a760660769bd6930,2026-03-17_15h09.30.007,kallum_motion_pilot_GIST_update_2,2026.1.1,Win32,28.8184438,5f3006e1a760660769bd6930,69b95efdef24cd8a694e89ee,69b96081d578091ec884354c,0.064,0.064,0,94,94,154,1,sixfive,,,,,,,,,,,,,,,,,,,,,,,,,,,,,,,,,,,,,,,,,,,,,,,,,,,,,,,,,,,,,,,,,,,,,,,,,,,,,,,,,,,,,,,,,,,,,,,,,,,,,,,,,,,,,,,,,,,,,,,,,,,,,,,,,,,,,,,,,
,,5f3006e1a760660769bd6930,2026-03-17_15h09.30.007,kallum_motion_pilot_GIST_update_2,2026.1.1,Win32,28.8184438,5f3006e1a760660769bd6930,69b95efdef24cd8a694e89ee,69b96081d578091ec884354c,0.0643,0.0643,0,95,95,108,1,sevenfive,,,,,,,,,,,,,,,,,,,,,,,,,,,,,,,,,,,,,,,,,,,,,,,,,,,,,,,,,,,,,,,,,,,,,,,,,,,,,,,,,,,,,,,,,,,,,,,,,,,,,,,,,,,,,,,,,,,,,,,,,,,,,,,,,,,,,,,,,
,,5f3006e1a760660769bd6930,2026-03-17_15h09.30.007,kallum_motion_pilot_GIST_update_2,2026.1.1,Win32,28.8184438,5f3006e1a760660769bd6930,69b95efdef24cd8a694e89ee,69b96081d578091ec884354c,0.0645,0.0645,0,96,96,66,1,twoone,,,,,,,,,,,,,,,,,,,,,,,,,,,,,,,,,,,,,,,,,,,,,,,,,,,,,,,,,,,,,,,,,,,,,,,,,,,,,,,,,,,,,,,,,,,,,,,,,,,,,,,,,,,,,,,,,,,,,,,,,,,,,,,,,,,,,,,,,
,,5f3006e1a760660769bd6930,2026-03-17_15h09.30.007,kallum_motion_pilot_GIST_update_2,2026.1.1,Win32,28.8184438,5f3006e1a760660769bd6930,69b95efdef24cd8a694e89ee,69b96081d578091ec884354c,0.0647,0.0647,0,97,97,122,1,sixfive,,,,,,,,,,,,,,,,,,,,,,,,,,,,,,,,,,,,,,,,,,,,,,,,,,,,,,,,,,,,,,,,,,,,,,,,,,,,,,,,,,,,,,,,,,,,,,,,,,,,,,,,,,,,,,,,,,,,,,,,,,,,,,,,,,,,,,,,,
,,5f3006e1a760660769bd6930,2026-03-17_15h09.30.007,kallum_motion_pilot_GIST_update_2,2026.1.1,Win32,28.8184438,5f3006e1a760660769bd6930,69b95efdef24cd8a694e89ee,69b96081d578091ec884354c,0.065,0.065,0,98,98,80,1,fivesix,,,,,,,,,,,,,,,,,,,,,,,,,,,,,,,,,,,,,,,,,,,,,,,,,,,,,,,,,,,,,,,,,,,,,,,,,,,,,,,,,,,,,,,,,,,,,,,,,,,,,,,,,,,,,,,,,,,,,,,,,,,,,,,,,,,,,,,,,
,,5f3006e1a760660769bd6930,2026-03-17_15h09.30.007,kallum_motion_pilot_GIST_update_2,2026.1.1,Win32,28.8184438,5f3006e1a760660769bd6930,69b95efdef24cd8a694e89ee,69b96081d578091ec884354c,0.0652,0.0652,0,99,99,23,1,fourthree,,,,,,,,,,,,,,,,,,,,,,,,,,,,,,,,,,,,,,,,,,,,,,,,,,,,,,,,,,,,,,,,,,,,,,,,,,,,,,,,,,,,,,,,,,,,,,,,,,,,,,,,,,,,,,,,,,,,,,,,,,,,,,,,,,,,,,,,,
,,5f3006e1a760660769bd6930,2026-03-17_15h09.30.007,kallum_motion_pilot_GIST_update_2,2026.1.1,Win32,28.8184438,5f3006e1a760660769bd6930,69b95efdef24cd8a694e89ee,69b96081d578091ec884354c,0.0655,0.0655,0,100,100,77,1,threefour,,,,,,,,,,,,,,,,,,,,,,,,,,,,,,,,,,,,,,,,,,,,,,,,,,,,,,,,,,,,,,,,,,,,,,,,,,,,,,,,,,,,,,,,,,,,,,,,,,,,,,,,,,,,,,,,,,,,,,,,,,,,,,,,,,,,,,,,,
,,5f3006e1a760660769bd6930,2026-03-17_15h09.30.007,kallum_motion_pilot_GIST_update_2,2026.1.1,Win32,28.8184438,5f3006e1a760660769bd6930,69b95efdef24cd8a694e89ee,69b96081d578091ec884354c,0.0656,0.0656,0,101,101,37,1,threefour,,,,,,,,,,,,,,,,,,,,,,,,,,,,,,,,,,,,,,,,,,,,,,,,,,,,,,,,,,,,,,,,,,,,,,,,,,,,,,,,,,,,,,,,,,,,,,,,,,,,,,,,,,,,,,,,,,,,,,,,,,,,,,,,,,,,,,,,,
,,5f3006e1a760660769bd6930,2026-03-17_15h09.30.007,kallum_motion_pilot_GIST_update_2,2026.1.1,Win32,28.8184438,5f3006e1a760660769bd6930,69b95efdef24cd8a694e89ee,69b96081d578091ec884354c,0.0658,0.0658,0,102,102,82,1,sixfive,,,,,,,,,,,,,,,,,,,,,,,,,,,,,,,,,,,,,,,,,,,,,,,,,,,,,,,,,,,,,,,,,,,,,,,,,,,,,,,,,,,,,,,,,,,,,,,,,,,,,,,,,,,,,,,,,,,,,,,,,,,,,,,,,,,,,,,,,
,,5f3006e1a760660769bd6930,2026-03-17_15h09.30.007,kallum_motion_pilot_GIST_update_2,2026.1.1,Win32,28.8184438,5f3006e1a760660769bd6930,69b95efdef24cd8a694e89ee,69b96081d578091ec884354c,0.0661,0.0661,0,103,103,34,1,twoone,,,,,,,,,,,,,,,,,,,,,,,,,,,,,,,,,,,,,,,,,,,,,,,,,,,,,,,,,,,,,,,,,,,,,,,,,,,,,,,,,,,,,,,,,,,,,,,,,,,,,,,,,,,,,,,,,,,,,,,,,,,,,,,,,,,,,,,,,
,,5f3006e1a760660769bd6930,2026-03-17_15h09.30.007,kallum_motion_pilot_GIST_update_2,2026.1.1,Win32,28.8184438,5f3006e1a760660769bd6930,69b95efdef24cd8a694e89ee,69b96081d578091ec884354c,0.0663,0.0663,0,104,104,48,1,onetwo,,,,,,,,,,,,,,,,,,,,,,,,,,,,,,,,,,,,,,,,,,,,,,,,,,,,,,,,,,,,,,,,,,,,,,,,,,,,,,,,,,,,,,,,,,,,,,,,,,,,,,,,,,,,,,,,,,,,,,,,,,,,,,,,,,,,,,,,,
,,5f3006e1a760660769bd6930,2026-03-17_15h09.30.007,kallum_motion_pilot_GIST_update_2,2026.1.1,Win32,28.8184438,5f3006e1a760660769bd6930,69b95efdef24cd8a694e89ee,69b96081d578091ec884354c,0.0665,0.0665,0,105,105,78,1,fourtwo,,,,,,,,,,,,,,,,,,,,,,,,,,,,,,,,,,,,,,,,,,,,,,,,,,,,,,,,,,,,,,,,,,,,,,,,,,,,,,,,,,,,,,,,,,,,,,,,,,,,,,,,,,,,,,,,,,,,,,,,,,,,,,,,,,,,,,,,,
,,5f3006e1a760660769bd6930,2026-03-17_15h09.30.007,kallum_motion_pilot_GIST_update_2,2026.1.1,Win32,28.8184438,5f3006e1a760660769bd6930,69b95efdef24cd8a694e89ee,69b96081d578091ec884354c,0.0667,0.0667,0,106,106,161,1,fiveseven,,,,,,,,,,,,,,,,,,,,,,,,,,,,,,,,,,,,,,,,,,,,,,,,,,,,,,,,,,,,,,,,,,,,,,,,,,,,,,,,,,,,,,,,,,,,,,,,,,,,,,,,,,,,,,,,,,,,,,,,,,,,,,,,,,,,,,,,,
,,5f3006e1a760660769bd6930,2026-03-17_15h09.30.007,kallum_motion_pilot_GIST_update_2,2026.1.1,Win32,28.8184438,5f3006e1a760660769bd6930,69b95efdef24cd8a694e89ee,69b96081d578091ec884354c,0.0669,0.0669,0,107,107,18,1,twoone,,,,,,,,,,,,,,,,,,,,,,,,,,,,,,,,,,,,,,,,,,,,,,,,,,,,,,,,,,,,,,,,,,,,,,,,,,,,,,,,,,,,,,,,,,,,,,,,,,,,,,,,,,,,,,,,,,,,,,,,,,,,,,,,,,,,,,,,,
,,5f3006e1a760660769bd6930,2026-03-17_15h09.30.007,kallum_motion_pilot_GIST_update_2,2026.1.1,Win32,28.8184438,5f3006e1a760660769bd6930,69b95efdef24cd8a694e89ee,69b96081d578091ec884354c,0.0672,0.0672,0,108,108,138,1,sixfive,,,,,,,,,,,,,,,,,,,,,,,,,,,,,,,,,,,,,,,,,,,,,,,,,,,,,,,,,,,,,,,,,,,,,,,,,,,,,,,,,,,,,,,,,,,,,,,,,,,,,,,,,,,,,,,,,,,,,,,,,,,,,,,,,,,,,,,,,
,,5f3006e1a760660769bd6930,2026-03-17_15h09.30.007,kallum_motion_pilot_GIST_update_2,2026.1.1,Win32,28.8184438,5f3006e1a760660769bd6930,69b95efdef24cd8a694e89ee,69b96081d578091ec884354c,0.0675,0.0675,0,109,109,62,1,fourtwo,,,,,,,,,,,,,,,,,,,,,,,,,,,,,,,,,,,,,,,,,,,,,,,,,,,,,,,,,,,,,,,,,,,,,,,,,,,,,,,,,,,,,,,,,,,,,,,,,,,,,,,,,,,,,,,,,,,,,,,,,,,,,,,,,,,,,,,,,
,,5f3006e1a760660769bd6930,2026-03-17_15h09.30.007,kallum_motion_pilot_GIST_update_2,2026.1.1,Win32,28.8184438,5f3006e1a760660769bd6930,69b95efdef24cd8a694e89ee,69b96081d578091ec884354c,0.0676,0.0677,0,110,110,89,1,fiveseven,,,,,,,,,,,,,,,,,,,,,,,,,,,,,,,,,,,,,,,,,,,,,,,,,,,,,,,,,,,,,,,,,,,,,,,,,,,,,,,,,,,,,,,,,,,,,,,,,,,,,,,,,,,,,,,,,,,,,,,,,,,,,,,,,,,,,,,,,
,,5f3006e1a760660769bd6930,2026-03-17_15h09.30.007,kallum_motion_pilot_GIST_update_2,2026.1.1,Win32,28.8184438,5f3006e1a760660769bd6930,69b95efdef24cd8a694e89ee,69b96081d578091ec884354c,0.0679,0.0679,0,111,111,26,1,twoone,,,,,,,,,,,,,,,,,,,,,,,,,,,,,,,,,,,,,,,,,,,,,,,,,,,,,,,,,,,,,,,,,,,,,,,,,,,,,,,,,,,,,,,,,,,,,,,,,,,,,,,,,,,,,,,,,,,,,,,,,,,,,,,,,,,,,,,,,
,,5f3006e1a760660769bd6930,2026-03-17_15h09.30.007,kallum_motion_pilot_GIST_update_2,2026.1.1,Win32,28.8184438,5f3006e1a760660769bd6930,69b95efdef24cd8a694e89ee,69b96081d578091ec884354c,0.0682,0.0682,0,112,112,68,1,threeone,,,,,,,,,,,,,,,,,,,,,,,,,,,,,,,,,,,,,,,,,,,,,,,,,,,,,,,,,,,,,,,,,,,,,,,,,,,,,,,,,,,,,,,,,,,,,,,,,,,,,,,,,,,,,,,,,,,,,,,,,,,,,,,,,,,,,,,,,
,,5f3006e1a760660769bd6930,2026-03-17_15h09.30.007,kallum_motion_pilot_GIST_update_2,2026.1.1,Win32,28.8184438,5f3006e1a760660769bd6930,69b95efdef24cd8a694e89ee,69b96081d578091ec884354c,0.0684,0.0684,0,113,113,30,1,fourtwo,,,,,,,,,,,,,,,,,,,,,,,,,,,,,,,,,,,,,,,,,,,,,,,,,,,,,,,,,,,,,,,,,,,,,,,,,,,,,,,,,,,,,,,,,,,,,,,,,,,,,,,,,,,,,,,,,,,,,,,,,,,,,,,,,,,,,,,,,
,,5f3006e1a760660769bd6930,2026-03-17_15h09.30.007,kallum_motion_pilot_GIST_update_2,2026.1.1,Win32,28.8184438,5f3006e1a760660769bd6930,69b95efdef24cd8a694e89ee,69b96081d578091ec884354c,0.0686,0.0686,0,114,114,152,1,fivesix,,,,,,,,,,,,,,,,,,,,,,,,,,,,,,,,,,,,,,,,,,,,,,,,,,,,,,,,,,,,,,,,,,,,,,,,,,,,,,,,,,,,,,,,,,,,,,,,,,,,,,,,,,,,,,,,,,,,,,,,,,,,,,,,,,,,,,,,,
,,5f3006e1a760660769bd6930,2026-03-17_15h09.30.007,kallum_motion_pilot_GIST_update_2,2026.1.1,Win32,28.8184438,5f3006e1a760660769bd6930,69b95efdef24cd8a694e89ee,69b96081d578091ec884354c,0.0687,0.0688,0,115,115,101,1,seveneight,,,,,,,,,,,,,,,,,,,,,,,,,,,,,,,,,,,,,,,,,,,,,,,,,,,,,,,,,,,,,,,,,,,,,,,,,,,,,,,,,,,,,,,,,,,,,,,,,,,,,,,,,,,,,,,,,,,,,,,,,,,,,,,,,,,,,,,,,
,,5f3006e1a760660769bd6930,2026-03-17_15h09.30.007,kallum_motion_pilot_GIST_update_2,2026.1.1,Win32,28.8184438,5f3006e1a760660769bd6930,69b95efdef24cd8a694e89ee,69b96081d578091ec884354c,0.069,0.069,0,116,116,151,1,eightseven,,,,,,,,,,,,,,,,,,,,,,,,,,,,,,,,,,,,,,,,,,,,,,,,,,,,,,,,,,,,,,,,,,,,,,,,,,,,,,,,,,,,,,,,,,,,,,,,,,,,,,,,,,,,,,,,,,,,,,,,,,,,,,,,,,,,,,,,,
,,5f3006e1a760660769bd6930,2026-03-17_15h09.30.007,kallum_motion_pilot_GIST_update_2,2026.1.1,Win32,28.8184438,5f3006e1a760660769bd6930,69b95efdef24cd8a694e89ee,69b96081d578091ec884354c,0.0692,0.0692,0,117,117,153,1,fiveseven,,,,,,,,,,,,,,,,,,,,,,,,,,,,,,,,,,,,,,,,,,,,,,,,,,,,,,,,,,,,,,,,,,,,,,,,,,,,,,,,,,,,,,,,,,,,,,,,,,,,,,,,,,,,,,,,,,,,,,,,,,,,,,,,,,,,,,,,,
,,5f3006e1a760660769bd6930,2026-03-17_15h09.30.007,kallum_motion_pilot_GIST_update_2,2026.1.1,Win32,28.8184438,5f3006e1a760660769bd6930,69b95efdef24cd8a694e89ee,69b96081d578091ec884354c,0.0695,0.0695,0,118,118,123,1,sixeight,,,,,,,,,,,,,,,,,,,,,,,,,,,,,,,,,,,,,,,,,,,,,,,,,,,,,,,,,,,,,,,,,,,,,,,,,,,,,,,,,,,,,,,,,,,,,,,,,,,,,,,,,,,,,,,,,,,,,,,,,,,,,,,,,,,,,,,,,
,,5f3006e1a760660769bd6930,2026-03-17_15h09.30.007,kallum_motion_pilot_GIST_update_2,2026.1.1,Win32,28.8184438,5f3006e1a760660769bd6930,69b95efdef24cd8a694e89ee,69b96081d578091ec884354c,0.0697,0.0697,0,119,119,140,1,sevenfive,,,,,,,,,,,,,,,,,,,,,,,,,,,,,,,,,,,,,,,,,,,,,,,,,,,,,,,,,,,,,,,,,,,,,,,,,,,,,,,,,,,,,,,,,,,,,,,,,,,,,,,,,,,,,,,,,,,,,,,,,,,,,,,,,,,,,,,,,
,,5f3006e1a760660769bd6930,2026-03-17_15h09.30.007,kallum_motion_pilot_GIST_update_2,2026.1.1,Win32,28.8184438,5f3006e1a760660769bd6930,69b95efdef24cd8a694e89ee,69b96081d578091ec884354c,0.07,0.07,0,120,120,114,1,sixfive,,,,,,,,,,,,,,,,,,,,,,,,,,,,,,,,,,,,,,,,,,,,,,,,,,,,,,,,,,,,,,,,,,,,,,,,,,,,,,,,,,,,,,,,,,,,,,,,,,,,,,,,,,,,,,,,,,,,,,,,,,,,,,,,,,,,,,,,,
,,5f3006e1a760660769bd6930,2026-03-17_15h09.30.007,kallum_motion_pilot_GIST_update_2,2026.1.1,Win32,28.8184438,5f3006e1a760660769bd6930,69b95efdef24cd8a694e89ee,69b96081d578091ec884354c,0.0702,0.0702,0,121,121,10,1,twoone,,,,,,,,,,,,,,,,,,,,,,,,,,,,,,,,,,,,,,,,,,,,,,,,,,,,,,,,,,,,,,,,,,,,,,,,,,,,,,,,,,,,,,,,,,,,,,,,,,,,,,,,,,,,,,,,,,,,,,,,,,,,,,,,,,,,,,,,,
,,5f3006e1a760660769bd6930,2026-03-17_15h09.30.007,kallum_motion_pilot_GIST_update_2,2026.1.1,Win32,28.8184438,5f3006e1a760660769bd6930,69b95efdef24cd8a694e89ee,69b96081d578091ec884354c,0.0705,0.0705,0,122,122,45,1,threefour,,,,,,,,,,,,,,,,,,,,,,,,,,,,,,,,,,,,,,,,,,,,,,,,,,,,,,,,,,,,,,,,,,,,,,,,,,,,,,,,,,,,,,,,,,,,,,,,,,,,,,,,,,,,,,,,,,,,,,,,,,,,,,,,,,,,,,,,,
,,5f3006e1a760660769bd6930,2026-03-17_15h09.30.007,kallum_motion_pilot_GIST_update_2,2026.1.1,Win32,28.8184438,5f3006e1a760660769bd6930,69b95efdef24cd8a694e89ee,69b96081d578091ec884354c,0.0707,0.0707,0,123,123,120,1,fivesix,,,,,,,,,,,,,,,,,,,,,,,,,,,,,,,,,,,,,,,,,,,,,,,,,,,,,,,,,,,,,,,,,,,,,,,,,,,,,,,,,,,,,,,,,,,,,,,,,,,,,,,,,,,,,,,,,,,,,,,,,,,,,,,,,,,,,,,,,
,,5f3006e1a760660769bd6930,2026-03-17_15h09.30.007,kallum_motion_pilot_GIST_update_2,2026.1.1,Win32,28.8184438,5f3006e1a760660769bd6930,69b95efdef24cd8a694e89ee,69b96081d578091ec884354c,0.071,0.071,0,124,124,71,1,fourthree,,,,,,,,,,,,,,,,,,,,,,,,,,,,,,,,,,,,,,,,,,,,,,,,,,,,,,,,,,,,,,,,,,,,,,,,,,,,,,,,,,,,,,,,,,,,,,,,,,,,,,,,,,,,,,,,,,,,,,,,,,,,,,,,,,,,,,,,,
,,5f3006e1a760660769bd6930,2026-03-17_15h09.30.007,kallum_motion_pilot_GIST_update_2,2026.1.1,Win32,28.8184438,5f3006e1a760660769bd6930,69b95efdef24cd8a694e89ee,69b96081d578091ec884354c,0.0712,0.0713,0,125,125,27,1,twofour,,,,,,,,,,,,,,,,,,,,,,,,,,,,,,,,,,,,,,,,,,,,,,,,,,,,,,,,,,,,,,,,,,,,,,,,,,,,,,,,,,,,,,,,,,,,,,,,,,,,,,,,,,,,,,,,,,,,,,,,,,,,,,,,,,,,,,,,,
,,5f3006e1a760660769bd6930,2026-03-17_15h09.30.007,kallum_motion_pilot_GIST_update_2,2026.1.1,Win32,28.8184438,5f3006e1a760660769bd6930,69b95efdef24cd8a694e89ee,69b96081d578091ec884354c,0.0716,0.0716,0,126,126,42,1,twoone,,,,,,,,,,,,,,,,,,,,,,,,,,,,,,,,,,,,,,,,,,,,,,,,,,,,,,,,,,,,,,,,,,,,,,,,,,,,,,,,,,,,,,,,,,,,,,,,,,,,,,,,,,,,,,,,,,,,,,,,,,,,,,,,,,,,,,,,,
,,5f3006e1a760660769bd6930,2026-03-17_15h09.30.007,kallum_motion_pilot_GIST_update_2,2026.1.1,Win32,28.8184438,5f3006e1a760660769bd6930,69b95efdef24cd8a694e89ee,69b96081d578091ec884354c,0.0718,0.0718,0,127,127,112,1,fivesix,,,,,,,,,,,,,,,,,,,,,,,,,,,,,,,,,,,,,,,,,,,,,,,,,,,,,,,,,,,,,,,,,,,,,,,,,,,,,,,,,,,,,,,,,,,,,,,,,,,,,,,,,,,,,,,,,,,,,,,,,,,,,,,,,,,,,,,,,
,,5f3006e1a760660769bd6930,2026-03-17_15h09.30.007,kallum_motion_pilot_GIST_update_2,2026.1.1,Win32,28.8184438,5f3006e1a760660769bd6930,69b95efdef24cd8a694e89ee,69b96081d578091ec884354c,0.072,0.072,0,128,128,106,1,sixfive,,,,,,,,,,,,,,,,,,,,,,,,,,,,,,,,,,,,,,,,,,,,,,,,,,,,,,,,,,,,,,,,,,,,,,,,,,,,,,,,,,,,,,,,,,,,,,,,,,,,,,,,,,,,,,,,,,,,,,,,,,,,,,,,,,,,,,,,,
,,5f3006e1a760660769bd6930,2026-03-17_15h09.30.007,kallum_motion_pilot_GIST_update_2,2026.1.1,Win32,28.8184438,5f3006e1a760660769bd6930,69b95efdef24cd8a694e89ee,69b96081d578091ec884354c,0.0723,0.0723,0,129,129,24,1,onetwo,,,,,,,,,,,,,,,,,,,,,,,,,,,,,,,,,,,,,,,,,,,,,,,,,,,,,,,,,,,,,,,,,,,,,,,,,,,,,,,,,,,,,,,,,,,,,,,,,,,,,,,,,,,,,,,,,,,,,,,,,,,,,,,,,,,,,,,,,
,,5f3006e1a760660769bd6930,2026-03-17_15h09.30.007,kallum_motion_pilot_GIST_update_2,2026.1.1,Win32,28.8184438,5f3006e1a760660769bd6930,69b95efdef24cd8a694e89ee,69b96081d578091ec884354c,0.0725,0.0725,0,130,130,57,1,onethree,,,,,,,,,,,,,,,,,,,,,,,,,,,,,,,,,,,,,,,,,,,,,,,,,,,,,,,,,,,,,,,,,,,,,,,,,,,,,,,,,,,,,,,,,,,,,,,,,,,,,,,,,,,,,,,,,,,,,,,,,,,,,,,,,,,,,,,,,
,,5f3006e1a760660769bd6930,2026-03-17_15h09.30.007,kallum_motion_pilot_GIST_update_2,2026.1.1,Win32,28.8184438,5f3006e1a760660769bd6930,69b95efdef24cd8a694e89ee,69b96081d578091ec884354c,0.0727,0.0727,0,131,131,43,1,twofour,,,,,,,,,,,,,,,,,,,,,,,,,,,,,,,,,,,,,,,,,,,,,,,,,,,,,,,,,,,,,,,,,,,,,,,,,,,,,,,,,,,,,,,,,,,,,,,,,,,,,,,,,,,,,,,,,,,,,,,,,,,,,,,,,,,,,,,,,
,,5f3006e1a760660769bd6930,2026-03-17_15h09.30.007,kallum_motion_pilot_GIST_update_2,2026.1.1,Win32,28.8184438,5f3006e1a760660769bd6930,69b95efdef24cd8a694e89ee,69b96081d578091ec884354c,0.0729,0.073,0,132,132,98,1,sixfive,,,,,,,,,,,,,,,,,,,,,,,,,,,,,,,,,,,,,,,,,,,,,,,,,,,,,,,,,,,,,,,,,,,,,,,,,,,,,,,,,,,,,,,,,,,,,,,,,,,,,,,,,,,,,,,,,,,,,,,,,,,,,,,,,,,,,,,,,
,,5f3006e1a760660769bd6930,2026-03-17_15h09.30.007,kallum_motion_pilot_GIST_update_2,2026.1.1,Win32,28.8184438,5f3006e1a760660769bd6930,69b95efdef24cd8a694e89ee,69b96081d578091ec884354c,0.0731,0.0731,0,133,133,53,1,threefour,,,,,,,,,,,,,,,,,,,,,,,,,,,,,,,,,,,,,,,,,,,,,,,,,,,,,,,,,,,,,,,,,,,,,,,,,,,,,,,,,,,,,,,,,,,,,,,,,,,,,,,,,,,,,,,,,,,,,,,,,,,,,,,,,,,,,,,,,
,,5f3006e1a760660769bd6930,2026-03-17_15h09.30.007,kallum_motion_pilot_GIST_update_2,2026.1.1,Win32,28.8184438,5f3006e1a760660769bd6930,69b95efdef24cd8a694e89ee,69b96081d578091ec884354c,0.0734,0.0734,0,134,134,150,1,eightsix,,,,,,,,,,,,,,,,,,,,,,,,,,,,,,,,,,,,,,,,,,,,,,,,,,,,,,,,,,,,,,,,,,,,,,,,,,,,,,,,,,,,,,,,,,,,,,,,,,,,,,,,,,,,,,,,,,,,,,,,,,,,,,,,,,,,,,,,,
,,5f3006e1a760660769bd6930,2026-03-17_15h09.30.007,kallum_motion_pilot_GIST_update_2,2026.1.1,Win32,28.8184438,5f3006e1a760660769bd6930,69b95efdef24cd8a694e89ee,69b96081d578091ec884354c,0.0736,0.0736,0,135,135,79,1,eightseven,,,,,,,,,,,,,,,,,,,,,,,,,,,,,,,,,,,,,,,,,,,,,,,,,,,,,,,,,,,,,,,,,,,,,,,,,,,,,,,,,,,,,,,,,,,,,,,,,,,,,,,,,,,,,,,,,,,,,,,,,,,,,,,,,,,,,,,,,
,,5f3006e1a760660769bd6930,2026-03-17_15h09.30.007,kallum_motion_pilot_GIST_update_2,2026.1.1,Win32,28.8184438,5f3006e1a760660769bd6930,69b95efdef24cd8a694e89ee,69b96081d578091ec884354c,0.0739,0.0739,0,136,136,51,1,twofour,,,,,,,,,,,,,,,,,,,,,,,,,,,,,,,,,,,,,,,,,,,,,,,,,,,,,,,,,,,,,,,,,,,,,,,,,,,,,,,,,,,,,,,,,,,,,,,,,,,,,,,,,,,,,,,,,,,,,,,,,,,,,,,,,,,,,,,,,
,,5f3006e1a760660769bd6930,2026-03-17_15h09.30.007,kallum_motion_pilot_GIST_update_2,2026.1.1,Win32,28.8184438,5f3006e1a760660769bd6930,69b95efdef24cd8a694e89ee,69b96081d578091ec884354c,0.074,0.0741,0,137,137,111,1,eightseven,,,,,,,,,,,,,,,,,,,,,,,,,,,,,,,,,,,,,,,,,,,,,,,,,,,,,,,,,,,,,,,,,,,,,,,,,,,,,,,,,,,,,,,,,,,,,,,,,,,,,,,,,,,,,,,,,,,,,,,,,,,,,,,,,,,,,,,,,
,,5f3006e1a760660769bd6930,2026-03-17_15h09.30.007,kallum_motion_pilot_GIST_update_2,2026.1.1,Win32,28.8184438,5f3006e1a760660769bd6930,69b95efdef24cd8a694e89ee,69b96081d578091ec884354c,0.0743,0.0743,0,138,138,75,1,twofour,,,,,,,,,,,,,,,,,,,,,,,,,,,,,,,,,,,,,,,,,,,,,,,,,,,,,,,,,,,,,,,,,,,,,,,,,,,,,,,,,,,,,,,,,,,,,,,,,,,,,,,,,,,,,,,,,,,,,,,,,,,,,,,,,,,,,,,,,
,,5f3006e1a760660769bd6930,2026-03-17_15h09.30.007,kallum_motion_pilot_GIST_update_2,2026.1.1,Win32,28.8184438,5f3006e1a760660769bd6930,69b95efdef24cd8a694e89ee,69b96081d578091ec884354c,0.0746,0.0746,0,139,139,65,1,onethree,,,,,,,,,,,,,,,,,,,,,,,,,,,,,,,,,,,,,,,,,,,,,,,,,,,,,,,,,,,,,,,,,,,,,,,,,,,,,,,,,,,,,,,,,,,,,,,,,,,,,,,,,,,,,,,,,,,,,,,,,,,,,,,,,,,,,,,,,
,,5f3006e1a760660769bd6930,2026-03-17_15h09.30.007,kallum_motion_pilot_GIST_update_2,2026.1.1,Win32,28.8184438,5f3006e1a760660769bd6930,69b95efdef24cd8a694e89ee,69b96081d578091ec884354c,0.0747,0.0747,0,140,140,17,1,onethree,,,,,,,,,,,,,,,,,,,,,,,,,,,,,,,,,,,,,,,,,,,,,,,,,,,,,,,,,,,,,,,,,,,,,,,,,,,,,,,,,,,,,,,,,,,,,,,,,,,,,,,,,,,,,,,,,,,,,,,,,,,,,,,,,,,,,,,,,
,,5f3006e1a760660769bd6930,2026-03-17_15h09.30.007,kallum_motion_pilot_GIST_update_2,2026.1.1,Win32,28.8184438,5f3006e1a760660769bd6930,69b95efdef24cd8a694e89ee,69b96081d578091ec884354c,0.0751,0.0751,0,141,141,135,1,eightseven,,,,,,,,,,,,,,,,,,,,,,,,,,,,,,,,,,,,,,,,,,,,,,,,,,,,,,,,,,,,,,,,,,,,,,,,,,,,,,,,,,,,,,,,,,,,,,,,,,,,,,,,,,,,,,,,,,,,,,,,,,,,,,,,,,,,,,,,,
,,5f3006e1a760660769bd6930,2026-03-17_15h09.30.007,kallum_motion_pilot_GIST_update_2,2026.1.1,Win32,28.8184438,5f3006e1a760660769bd6930,69b95efdef24cd8a694e89ee,69b96081d578091ec884354c,0.0752,0.0752,0,142,142,41,1,onethree,,,,,,,,,,,,,,,,,,,,,,,,,,,,,,,,,,,,,,,,,,,,,,,,,,,,,,,,,,,,,,,,,,,,,,,,,,,,,,,,,,,,,,,,,,,,,,,,,,,,,,,,,,,,,,,,,,,,,,,,,,,,,,,,,,,,,,,,,
,,5f3006e1a760660769bd6930,2026-03-17_15h09.30.007,kallum_motion_pilot_GIST_update_2,2026.1.1,Win32,28.8184438,5f3006e1a760660769bd6930,69b95efdef24cd8a694e89ee,69b96081d578091ec884354c,0.0755,0.0755,0,143,143,149,1,seveneight,,,,,,,,,,,,,,,,,,,,,,,,,,,,,,,,,,,,,,,,,,,,,,,,,,,,,,,,,,,,,,,,,,,,,,,,,,,,,,,,,,,,,,,,,,,,,,,,,,,,,,,,,,,,,,,,,,,,,,,,,,,,,,,,,,,,,,,,,
,,5f3006e1a760660769bd6930,2026-03-17_15h09.30.007,kallum_motion_pilot_GIST_update_2,2026.1.1,Win32,28.8184438,5f3006e1a760660769bd6930,69b95efdef24cd8a694e89ee,69b96081d578091ec884354c,0.0757,0.0757,0,144,144,7,1,fourthree,,,,,,,,,,,,,,,,,,,,,,,,,,,,,,,,,,,,,,,,,,,,,,,,,,,,,,,,,,,,,,,,,,,,,,,,,,,,,,,,,,,,,,,,,,,,,,,,,,,,,,,,,,,,,,,,,,,,,,,,,,,,,,,,,,,,,,,,,
,,5f3006e1a760660769bd6930,2026-03-17_15h09.30.007,kallum_motion_pilot_GIST_update_2,2026.1.1,Win32,28.8184438,5f3006e1a760660769bd6930,69b95efdef24cd8a694e89ee,69b96081d578091ec884354c,0.076,0.076,0,145,145,55,1,fourthree,,,,,,,,,,,,,,,,,,,,,,,,,,,,,,,,,,,,,,,,,,,,,,,,,,,,,,,,,,,,,,,,,,,,,,,,,,,,,,,,,,,,,,,,,,,,,,,,,,,,,,,,,,,,,,,,,,,,,,,,,,,,,,,,,,,,,,,,,
,,5f3006e1a760660769bd6930,2026-03-17_15h09.30.007,kallum_motion_pilot_GIST_update_2,2026.1.1,Win32,28.8184438,5f3006e1a760660769bd6930,69b95efdef24cd8a694e89ee,69b96081d578091ec884354c,0.0762,0.0762,0,146,146,58,1,twoone,,,,,,,,,,,,,,,,,,,,,,,,,,,,,,,,,,,,,,,,,,,,,,,,,,,,,,,,,,,,,,,,,,,,,,,,,,,,,,,,,,,,,,,,,,,,,,,,,,,,,,,,,,,,,,,,,,,,,,,,,,,,,,,,,,,,,,,,,
,,5f3006e1a760660769bd6930,2026-03-17_15h09.30.007,kallum_motion_pilot_GIST_update_2,2026.1.1,Win32,28.8184438,5f3006e1a760660769bd6930,69b95efdef24cd8a694e89ee,69b96081d578091ec884354c,0.0764,0.0764,0,147,147,21,1,threefour,,,,,,,,,,,,,,,,,,,,,,,,,,,,,,,,,,,,,,,,,,,,,,,,,,,,,,,,,,,,,,,,,,,,,,,,,,,,,,,,,,,,,,,,,,,,,,,,,,,,,,,,,,,,,,,,,,,,,,,,,,,,,,,,,,,,,,,,,
,,5f3006e1a760660769bd6930,2026-03-17_15h09.30.007,kallum_motion_pilot_GIST_update_2,2026.1.1,Win32,28.8184438,5f3006e1a760660769bd6930,69b95efdef24cd8a694e89ee,69b96081d578091ec884354c,0.0767,0.0767,0,148,148,115,1,sixeight,,,,,,,,,,,,,,,,,,,,,,,,,,,,,,,,,,,,,,,,,,,,,,,,,,,,,,,,,,,,,,,,,,,,,,,,,,,,,,,,,,,,,,,,,,,,,,,,,,,,,,,,,,,,,,,,,,,,,,,,,,,,,,,,,,,,,,,,,
,,5f3006e1a760660769bd6930,2026-03-17_15h09.30.007,kallum_motion_pilot_GIST_update_2,2026.1.1,Win32,28.8184438,5f3006e1a760660769bd6930,69b95efdef24cd8a694e89ee,69b96081d578091ec884354c,0.077,0.077,0,149,149,116,1,sevenfive,,,,,,,,,,,,,,,,,,,,,,,,,,,,,,,,,,,,,,,,,,,,,,,,,,,,,,,,,,,,,,,,,,,,,,,,,,,,,,,,,,,,,,,,,,,,,,,,,,,,,,,,,,,,,,,,,,,,,,,,,,,,,,,,,,,,,,,,,
,,5f3006e1a760660769bd6930,2026-03-17_15h09.30.007,kallum_motion_pilot_GIST_update_2,2026.1.1,Win32,28.8184438,5f3006e1a760660769bd6930,69b95efdef24cd8a694e89ee,69b96081d578091ec884354c,0.0772,0.0772,0,150,150,64,1,onetwo,,,,,,,,,,,,,,,,,,,,,,,,,,,,,,,,,,,,,,,,,,,,,,,,,,,,,,,,,,,,,,,,,,,,,,,,,,,,,,,,,,,,,,,,,,,,,,,,,,,,,,,,,,,,,,,,,,,,,,,,,,,,,,,,,,,,,,,,,
,,5f3006e1a760660769bd6930,2026-03-17_15h09.30.007,kallum_motion_pilot_GIST_update_2,2026.1.1,Win32,28.8184438,5f3006e1a760660769bd6930,69b95efdef24cd8a694e89ee,69b96081d578091ec884354c,0.0774,0.0774,0,151,151,148,1,sevenfive,,,,,,,,,,,,,,,,,,,,,,,,,,,,,,,,,,,,,,,,,,,,,,,,,,,,,,,,,,,,,,,,,,,,,,,,,,,,,,,,,,,,,,,,,,,,,,,,,,,,,,,,,,,,,,,,,,,,,,,,,,,,,,,,,,,,,,,,,
,,5f3006e1a760660769bd6930,2026-03-17_15h09.30.007,kallum_motion_pilot_GIST_update_2,2026.1.1,Win32,28.8184438,5f3006e1a760660769bd6930,69b95efdef24cd8a694e89ee,69b96081d578091ec884354c,0.0777,0.0777,0,152,152,46,1,fourtwo,,,,,,,,,,,,,,,,,,,,,,,,,,,,,,,,,,,,,,,,,,,,,,,,,,,,,,,,,,,,,,,,,,,,,,,,,,,,,,,,,,,,,,,,,,,,,,,,,,,,,,,,,,,,,,,,,,,,,,,,,,,,,,,,,,,,,,,,,
,,5f3006e1a760660769bd6930,2026-03-17_15h09.30.007,kallum_motion_pilot_GIST_update_2,2026.1.1,Win32,28.8184438,5f3006e1a760660769bd6930,69b95efdef24cd8a694e89ee,69b96081d578091ec884354c,0.078,0.078,0,153,153,9,1,onethree,,,,,,,,,,,,,,,,,,,,,,,,,,,,,,,,,,,,,,,,,,,,,,,,,,,,,,,,,,,,,,,,,,,,,,,,,,,,,,,,,,,,,,,,,,,,,,,,,,,,,,,,,,,,,,,,,,,,,,,,,,,,,,,,,,,,,,,,,
,,5f3006e1a760660769bd6930,2026-03-17_15h09.30.007,kallum_motion_pilot_GIST_update_2,2026.1.1,Win32,28.8184438,5f3006e1a760660769bd6930,69b95efdef24cd8a694e89ee,69b96081d578091ec884354c,0.0782,0.0782,0,154,154,131,1,sixeight,,,,,,,,,,,,,,,,,,,,,,,,,,,,,,,,,,,,,,,,,,,,,,,,,,,,,,,,,,,,,,,,,,,,,,,,,,,,,,,,,,,,,,,,,,,,,,,,,,,,,,,,,,,,,,,,,,,,,,,,,,,,,,,,,,,,,,,,,
,,5f3006e1a760660769bd6930,2026-03-17_15h09.30.007,kallum_motion_pilot_GIST_update_2,2026.1.1,Win32,28.8184438,5f3006e1a760660769bd6930,69b95efdef24cd8a694e89ee,69b96081d578091ec884354c,0.0785,0.0785,0,155,155,132,1,sevenfive,,,,,,,,,,,,,,,,,,,,,,,,,,,,,,,,,,,,,,,,,,,,,,,,,,,,,,,,,,,,,,,,,,,,,,,,,,,,,,,,,,,,,,,,,,,,,,,,,,,,,,,,,,,,,,,,,,,,,,,,,,,,,,,,,,,,,,,,,
,,5f3006e1a760660769bd6930,2026-03-17_15h09.30.007,kallum_motion_pilot_GIST_update_2,2026.1.1,Win32,28.8184438,5f3006e1a760660769bd6930,69b95efdef24cd8a694e89ee,69b96081d578091ec884354c,0.0787,0.0787,0,156,156,139,1,sixeight,,,,,,,,,,,,,,,,,,,,,,,,,,,,,,,,,,,,,,,,,,,,,,,,,,,,,,,,,,,,,,,,,,,,,,,,,,,,,,,,,,,,,,,,,,,,,,,,,,,,,,,,,,,,,,,,,,,,,,,,,,,,,,,,,,,,,,,,,
,,5f3006e1a760660769bd6930,2026-03-17_15h09.30.007,kallum_motion_pilot_GIST_update_2,2026.1.1,Win32,28.8184438,5f3006e1a760660769bd6930,69b95efdef24cd8a694e89ee,69b96081d578091ec884354c,0.0789,0.0789,0,157,157,88,1,fivesix,,,,,,,,,,,,,,,,,,,,,,,,,,,,,,,,,,,,,,,,,,,,,,,,,,,,,,,,,,,,,,,,,,,,,,,,,,,,,,,,,,,,,,,,,,,,,,,,,,,,,,,,,,,,,,,,,,,,,,,,,,,,,,,,,,,,,,,,,
,,5f3006e1a760660769bd6930,2026-03-17_15h09.30.007,kallum_motion_pilot_GIST_update_2,2026.1.1,Win32,28.8184438,5f3006e1a760660769bd6930,69b95efdef24cd8a694e89ee,69b96081d578091ec884354c,0.0792,0.0792,0,158,158,92,1,sevenfive,,,,,,,,,,,,,,,,,,,,,,,,,,,,,,,,,,,,,,,,,,,,,,,,,,,,,,,,,,,,,,,,,,,,,,,,,,,,,,,,,,,,,,,,,,,,,,,,,,,,,,,,,,,,,,,,,,,,,,,,,,,,,,,,,,,,,,,,,
,,5f3006e1a760660769bd6930,2026-03-17_15h09.30.007,kallum_motion_pilot_GIST_update_2,2026.1.1,Win32,28.8184438,5f3006e1a760660769bd6930,69b95efdef24cd8a694e89ee,69b96081d578091ec884354c,0.0793,0.0794,0,159,159,11,1,twofour,,,,,,,,,,,,,,,,,,,,,,,,,,,,,,,,,,,,,,,,,,,,,,,,,,,,,,,,,,,,,,,,,,,,,,,,,,,,,,,,,,,,,,,,,,,,,,,,,,,,,,,,,,,,,,,,,,,,,,,,,,,,,,,,,,,,,,,,,
,,5f3006e1a760660769bd6930,2026-03-17_15h09.30.007,kallum_motion_pilot_GIST_update_2,2026.1.1,Win32,28.8184438,5f3006e1a760660769bd6930,69b95efdef24cd8a694e89ee,69b96081d578091ec884354c,0.0796,0.0796,0,160,160,0,1,onetwo,,,,,,,,,,,,,,,,,,,,,,,,,,,,,,,,,,,,,,,,,,,,,,,,,,,,,,,,,,,,,,,,,,,,,,,,,,,,,,,,,,,,,,,,,,,,,,,,,,,,,,,,,,,,,,,,,,,,,,,,,,,,,,,,,,,,,,,,,
,,5f3006e1a760660769bd6930,2026-03-17_15h09.30.007,kallum_motion_pilot_GIST_update_2,2026.1.1,Win32,28.8184438,5f3006e1a760660769bd6930,69b95efdef24cd8a694e89ee,69b96081d578091ec884354c,0.0799,0.0799,0,161,161,12,1,threeone,,,,,,,,,,,,,,,,,,,,,,,,,,,,,,,,,,,,,,,,,,,,,,,,,,,,,,,,,,,,,,,,,,,,,,,,,,,,,,,,,,,,,,,,,,,,,,,,,,,,,,,,,,,,,,,,,,,,,,,,,,,,,,,,,,,,,,,,,
,,5f3006e1a760660769bd6930,2026-03-17_15h09.30.007,kallum_motion_pilot_GIST_update_2,2026.1.1,Win32,28.8184438,5f3006e1a760660769bd6930,69b95efdef24cd8a694e89ee,69b96081d578091ec884354c,0.0801,0.0801,1,0,162,71,1,fourthree,,,,,,,,,,,,,,,,,,,,,,,,,,,,,,,,,,,,,,,,,,,,,,,,,,,,,,,,,,,,,,,,,,,,,,,,,,,,,,,,,,,,,,,,,,,,,,,,,,,,,,,,,,,,,,,,,,,,,,,,,,,,,,,,,,,,,,,,,
,,5f3006e1a760660769bd6930,2026-03-17_15h09.30.007,kallum_motion_pilot_GIST_update_2,2026.1.1,Win32,28.8184438,5f3006e1a760660769bd6930,69b95efdef24cd8a694e89ee,69b96081d578091ec884354c,0.0804,0.0804,1,1,163,19,1,twofour,,,,,,,,,,,,,,,,,,,,,,,,,,,,,,,,,,,,,,,,,,,,,,,,,,,,,,,,,,,,,,,,,,,,,,,,,,,,,,,,,,,,,,,,,,,,,,,,,,,,,,,,,,,,,,,,,,,,,,,,,,,,,,,,,,,,,,,,,
,,5f3006e1a760660769bd6930,2026-03-17_15h09.30.007,kallum_motion_pilot_GIST_update_2,2026.1.1,Win32,28.8184438,5f3006e1a760660769bd6930,69b95efdef24cd8a694e89ee,69b96081d578091ec884354c,0.0806,0.0806,1,2,164,136,1,fivesix,,,,,,,,,,,,,,,,,,,,,,,,,,,,,,,,,,,,,,,,,,,,,,,,,,,,,,,,,,,,,,,,,,,,,,,,,,,,,,,,,,,,,,,,,,,,,,,,,,,,,,,,,,,,,,,,,,,,,,,,,,,,,,,,,,,,,,,,,
,,5f3006e1a760660769bd6930,2026-03-17_15h09.30.007,kallum_motion_pilot_GIST_update_2,2026.1.1,Win32,28.8184438,5f3006e1a760660769bd6930,69b95efdef24cd8a694e89ee,69b96081d578091ec884354c,0.0809,0.0809,1,3,165,24,1,onetwo,,,,,,,,,,,,,,,,,,,,,,,,,,,,,,,,,,,,,,,,,,,,,,,,,,,,,,,,,,,,,,,,,,,,,,,,,,,,,,,,,,,,,,,,,,,,,,,,,,,,,,,,,,,,,,,,,,,,,,,,,,,,,,,,,,,,,,,,,
,,5f3006e1a760660769bd6930,2026-03-17_15h09.30.007,kallum_motion_pilot_GIST_update_2,2026.1.1,Win32,28.8184438,5f3006e1a760660769bd6930,69b95efdef24cd8a694e89ee,69b96081d578091ec884354c,0.0811,0.0812,1,4,166,53,1,threefour,,,,,,,,,,,,,,,,,,,,,,,,,,,,,,,,,,,,,,,,,,,,,,,,,,,,,,,,,,,,,,,,,,,,,,,,,,,,,,,,,,,,,,,,,,,,,,,,,,,,,,,,,,,,,,,,,,,,,,,,,,,,,,,,,,,,,,,,,
,,5f3006e1a760660769bd6930,2026-03-17_15h09.30.007,kallum_motion_pilot_GIST_update_2,2026.1.1,Win32,28.8184438,5f3006e1a760660769bd6930,69b95efdef24cd8a694e89ee,69b96081d578091ec884354c,0.0813,0.0813,1,5,167,86,1,eightsix,,,,,,,,,,,,,,,,,,,,,,,,,,,,,,,,,,,,,,,,,,,,,,,,,,,,,,,,,,,,,,,,,,,,,,,,,,,,,,,,,,,,,,,,,,,,,,,,,,,,,,,,,,,,,,,,,,,,,,,,,,,,,,,,,,,,,,,,,
,,5f3006e1a760660769bd6930,2026-03-17_15h09.30.007,kallum_motion_pilot_GIST_update_2,2026.1.1,Win32,28.8184438,5f3006e1a760660769bd6930,69b95efdef24cd8a694e89ee,69b96081d578091ec884354c,0.0816,0.0816,1,6,168,91,1,sixeight,,,,,,,,,,,,,,,,,,,,,,,,,,,,,,,,,,,,,,,,,,,,,,,,,,,,,,,,,,,,,,,,,,,,,,,,,,,,,,,,,,,,,,,,,,,,,,,,,,,,,,,,,,,,,,,,,,,,,,,,,,,,,,,,,,,,,,,,,
,,5f3006e1a760660769bd6930,2026-03-17_15h09.30.007,kallum_motion_pilot_GIST_update_2,2026.1.1,Win32,28.8184438,5f3006e1a760660769bd6930,69b95efdef24cd8a694e89ee,69b96081d578091ec884354c,0.0818,0.0818,1,7,169,133,1,seveneight,,,,,,,,,,,,,,,,,,,,,,,,,,,,,,,,,,,,,,,,,,,,,,,,,,,,,,,,,,,,,,,,,,,,,,,,,,,,,,,,,,,,,,,,,,,,,,,,,,,,,,,,,,,,,,,,,,,,,,,,,,,,,,,,,,,,,,,,,
,,5f3006e1a760660769bd6930,2026-03-17_15h09.30.007,kallum_motion_pilot_GIST_update_2,2026.1.1,Win32,28.8184438,5f3006e1a760660769bd6930,69b95efdef24cd8a694e89ee,69b96081d578091ec884354c,0.0821,0.0821,1,8,170,60,1,threeone,,,,,,,,,,,,,,,,,,,,,,,,,,,,,,,,,,,,,,,,,,,,,,,,,,,,,,,,,,,,,,,,,,,,,,,,,,,,,,,,,,,,,,,,,,,,,,,,,,,,,,,,,,,,,,,,,,,,,,,,,,,,,,,,,,,,,,,,,
,,5f3006e1a760660769bd6930,2026-03-17_15h09.30.007,kallum_motion_pilot_GIST_update_2,2026.1.1,Win32,28.8184438,5f3006e1a760660769bd6930,69b95efdef24cd8a694e89ee,69b96081d578091ec884354c,0.0823,0.0823,1,9,171,156,1,sevenfive,,,,,,,,,,,,,,,,,,,,,,,,,,,,,,,,,,,,,,,,,,,,,,,,,,,,,,,,,,,,,,,,,,,,,,,,,,,,,,,,,,,,,,,,,,,,,,,,,,,,,,,,,,,,,,,,,,,,,,,,,,,,,,,,,,,,,,,,,
,,5f3006e1a760660769bd6930,2026-03-17_15h09.30.007,kallum_motion_pilot_GIST_update_2,2026.1.1,Win32,28.8184438,5f3006e1a760660769bd6930,69b95efdef24cd8a694e89ee,69b96081d578091ec884354c,0.0826,0.0826,1,10,172,42,1,twoone,,,,,,,,,,,,,,,,,,,,,,,,,,,,,,,,,,,,,,,,,,,,,,,,,,,,,,,,,,,,,,,,,,,,,,,,,,,,,,,,,,,,,,,,,,,,,,,,,,,,,,,,,,,,,,,,,,,,,,,,,,,,,,,,,,,,,,,,,
,,5f3006e1a760660769bd6930,2026-03-17_15h09.30.007,kallum_motion_pilot_GIST_update_2,2026.1.1,Win32,28.8184438,5f3006e1a760660769bd6930,69b95efdef24cd8a694e89ee,69b96081d578091ec884354c,0.0828,0.0828,1,11,173,65,1,onethree,,,,,,,,,,,,,,,,,,,,,,,,,,,,,,,,,,,,,,,,,,,,,,,,,,,,,,,,,,,,,,,,,,,,,,,,,,,,,,,,,,,,,,,,,,,,,,,,,,,,,,,,,,,,,,,,,,,,,,,,,,,,,,,,,,,,,,,,,
,,5f3006e1a760660769bd6930,2026-03-17_15h09.30.007,kallum_motion_pilot_GIST_update_2,2026.1.1,Win32,28.8184438,5f3006e1a760660769bd6930,69b95efdef24cd8a694e89ee,69b96081d578091ec884354c,0.083,0.083,1,12,174,33,1,onethree,,,,,,,,,,,,,,,,,,,,,,,,,,,,,,,,,,,,,,,,,,,,,,,,,,,,,,,,,,,,,,,,,,,,,,,,,,,,,,,,,,,,,,,,,,,,,,,,,,,,,,,,,,,,,,,,,,,,,,,,,,,,,,,,,,,,,,,,,
,,5f3006e1a760660769bd6930,2026-03-17_15h09.30.007,kallum_motion_pilot_GIST_update_2,2026.1.1,Win32,28.8184438,5f3006e1a760660769bd6930,69b95efdef24cd8a694e89ee,69b96081d578091ec884354c,0.0833,0.0834,1,13,175,64,1,onetwo,,,,,,,,,,,,,,,,,,,,,,,,,,,,,,,,,,,,,,,,,,,,,,,,,,,,,,,,,,,,,,,,,,,,,,,,,,,,,,,,,,,,,,,,,,,,,,,,,,,,,,,,,,,,,,,,,,,,,,,,,,,,,,,,,,,,,,,,,
,,5f3006e1a760660769bd6930,2026-03-17_15h09.30.007,kallum_motion_pilot_GIST_update_2,2026.1.1,Win32,28.8184438,5f3006e1a760660769bd6930,69b95efdef24cd8a694e89ee,69b96081d578091ec884354c,0.0835,0.0835,1,14,176,129,1,fiveseven,,,,,,,,,,,,,,,,,,,,,,,,,,,,,,,,,,,,,,,,,,,,,,,,,,,,,,,,,,,,,,,,,,,,,,,,,,,,,,,,,,,,,,,,,,,,,,,,,,,,,,,,,,,,,,,,,,,,,,,,,,,,,,,,,,,,,,,,,
,,5f3006e1a760660769bd6930,2026-03-17_15h09.30.007,kallum_motion_pilot_GIST_update_2,2026.1.1,Win32,28.8184438,5f3006e1a760660769bd6930,69b95efdef24cd8a694e89ee,69b96081d578091ec884354c,0.0838,0.0838,1,15,177,161,1,fiveseven,,,,,,,,,,,,,,,,,,,,,,,,,,,,,,,,,,,,,,,,,,,,,,,,,,,,,,,,,,,,,,,,,,,,,,,,,,,,,,,,,,,,,,,,,,,,,,,,,,,,,,,,,,,,,,,,,,,,,,,,,,,,,,,,,,,,,,,,,
,,5f3006e1a760660769bd6930,2026-03-17_15h09.30.007,kallum_motion_pilot_GIST_update_2,2026.1.1,Win32,28.8184438,5f3006e1a760660769bd6930,69b95efdef24cd8a694e89ee,69b96081d578091ec884354c,0.0841,0.0841,1,16,178,113,1,fiveseven,,,,,,,,,,,,,,,,,,,,,,,,,,,,,,,,,,,,,,,,,,,,,,,,,,,,,,,,,,,,,,,,,,,,,,,,,,,,,,,,,,,,,,,,,,,,,,,,,,,,,,,,,,,,,,,,,,,,,,,,,,,,,,,,,,,,,,,,,
,,5f3006e1a760660769bd6930,2026-03-17_15h09.30.007,kallum_motion_pilot_GIST_update_2,2026.1.1,Win32,28.8184438,5f3006e1a760660769bd6930,69b95efdef24cd8a694e89ee,69b96081d578091ec884354c,0.0844,0.0844,1,17,179,121,1,fiveseven,,,,,,,,,,,,,,,,,,,,,,,,,,,,,,,,,,,,,,,,,,,,,,,,,,,,,,,,,,,,,,,,,,,,,,,,,,,,,,,,,,,,,,,,,,,,,,,,,,,,,,,,,,,,,,,,,,,,,,,,,,,,,,,,,,,,,,,,,
,,5f3006e1a760660769bd6930,2026-03-17_15h09.30.007,kallum_motion_pilot_GIST_update_2,2026.1.1,Win32,28.8184438,5f3006e1a760660769bd6930,69b95efdef24cd8a694e89ee,69b96081d578091ec884354c,0.0847,0.0847,1,18,180,22,1,fourtwo,,,,,,,,,,,,,,,,,,,,,,,,,,,,,,,,,,,,,,,,,,,,,,,,,,,,,,,,,,,,,,,,,,,,,,,,,,,,,,,,,,,,,,,,,,,,,,,,,,,,,,,,,,,,,,,,,,,,,,,,,,,,,,,,,,,,,,,,,
,,5f3006e1a760660769bd6930,2026-03-17_15h09.30.007,kallum_motion_pilot_GIST_update_2,2026.1.1,Win32,28.8184438,5f3006e1a760660769bd6930,69b95efdef24cd8a694e89ee,69b96081d578091ec884354c,0.0849,0.0849,1,19,181,73,1,onethree,,,,,,,,,,,,,,,,,,,,,,,,,,,,,,,,,,,,,,,,,,,,,,,,,,,,,,,,,,,,,,,,,,,,,,,,,,,,,,,,,,,,,,,,,,,,,,,,,,,,,,,,,,,,,,,,,,,,,,,,,,,,,,,,,,,,,,,,,
,,5f3006e1a760660769bd6930,2026-03-17_15h09.30.007,kallum_motion_pilot_GIST_update_2,2026.1.1,Win32,28.8184438,5f3006e1a760660769bd6930,69b95efdef24cd8a694e89ee,69b96081d578091ec884354c,0.0851,0.0851,1,20,182,35,1,twofour,,,,,,,,,,,,,,,,,,,,,,,,,,,,,,,,,,,,,,,,,,,,,,,,,,,,,,,,,,,,,,,,,,,,,,,,,,,,,,,,,,,,,,,,,,,,,,,,,,,,,,,,,,,,,,,,,,,,,,,,,,,,,,,,,,,,,,,,,
,,5f3006e1a760660769bd6930,2026-03-17_15h09.30.007,kallum_motion_pilot_GIST_update_2,2026.1.1,Win32,28.8184438,5f3006e1a760660769bd6930,69b95efdef24cd8a694e89ee,69b96081d578091ec884354c,0.0854,0.0854,1,21,183,99,1,sixeight,,,,,,,,,,,,,,,,,,,,,,,,,,,,,,,,,,,,,,,,,,,,,,,,,,,,,,,,,,,,,,,,,,,,,,,,,,,,,,,,,,,,,,,,,,,,,,,,,,,,,,,,,,,,,,,,,,,,,,,,,,,,,,,,,,,,,,,,,
,,5f3006e1a760660769bd6930,2026-03-17_15h09.30.007,kallum_motion_pilot_GIST_update_2,2026.1.1,Win32,28.8184438,5f3006e1a760660769bd6930,69b95efdef24cd8a694e89ee,69b96081d578091ec884354c,0.0856,0.0856,1,22,184,97,1,fiveseven,,,,,,,,,,,,,,,,,,,,,,,,,,,,,,,,,,,,,,,,,,,,,,,,,,,,,,,,,,,,,,,,,,,,,,,,,,,,,,,,,,,,,,,,,,,,,,,,,,,,,,,,,,,,,,,,,,,,,,,,,,,,,,,,,,,,,,,,,
,,5f3006e1a760660769bd6930,2026-03-17_15h09.30.007,kallum_motion_pilot_GIST_update_2,2026.1.1,Win32,28.8184438,5f3006e1a760660769bd6930,69b95efdef24cd8a694e89ee,69b96081d578091ec884354c,0.0859,0.0859,1,23,185,84,1,sevenfive,,,,,,,,,,,,,,,,,,,,,,,,,,,,,,,,,,,,,,,,,,,,,,,,,,,,,,,,,,,,,,,,,,,,,,,,,,,,,,,,,,,,,,,,,,,,,,,,,,,,,,,,,,,,,,,,,,,,,,,,,,,,,,,,,,,,,,,,,
,,5f3006e1a760660769bd6930,2026-03-17_15h09.30.007,kallum_motion_pilot_GIST_update_2,2026.1.1,Win32,28.8184438,5f3006e1a760660769bd6930,69b95efdef24cd8a694e89ee,69b96081d578091ec884354c,0.0861,0.0861,1,24,186,153,1,fiveseven,,,,,,,,,,,,,,,,,,,,,,,,,,,,,,,,,,,,,,,,,,,,,,,,,,,,,,,,,,,,,,,,,,,,,,,,,,,,,,,,,,,,,,,,,,,,,,,,,,,,,,,,,,,,,,,,,,,,,,,,,,,,,,,,,,,,,,,,,
,,5f3006e1a760660769bd6930,2026-03-17_15h09.30.007,kallum_motion_pilot_GIST_update_2,2026.1.1,Win32,28.8184438,5f3006e1a760660769bd6930,69b95efdef24cd8a694e89ee,69b96081d578091ec884354c,0.0864,0.0864,1,25,187,145,1,fiveseven,,,,,,,,,,,,,,,,,,,,,,,,,,,,,,,,,,,,,,,,,,,,,,,,,,,,,,,,,,,,,,,,,,,,,,,,,,,,,,,,,,,,,,,,,,,,,,,,,,,,,,,,,,,,,,,,,,,,,,,,,,,,,,,,,,,,,,,,,
,,5f3006e1a760660769bd6930,2026-03-17_15h09.30.007,kallum_motion_pilot_GIST_update_2,2026.1.1,Win32,28.8184438,5f3006e1a760660769bd6930,69b95efdef24cd8a694e89ee,69b96081d578091ec884354c,0.0867,0.0868,1,26,188,149,1,seveneight,,,,,,,,,,,,,,,,,,,,,,,,,,,,,,,,,,,,,,,,,,,,,,,,,,,,,,,,,,,,,,,,,,,,,,,,,,,,,,,,,,,,,,,,,,,,,,,,,,,,,,,,,,,,,,,,,,,,,,,,,,,,,,,,,,,,,,,,,
,,5f3006e1a760660769bd6930,2026-03-17_15h09.30.007,kallum_motion_pilot_GIST_update_2,2026.1.1,Win32,28.8184438,5f3006e1a760660769bd6930,69b95efdef24cd8a694e89ee,69b96081d578091ec884354c,0.087,0.0871,1,27,189,11,1,twofour,,,,,,,,,,,,,,,,,,,,,,,,,,,,,,,,,,,,,,,,,,,,,,,,,,,,,,,,,,,,,,,,,,,,,,,,,,,,,,,,,,,,,,,,,,,,,,,,,,,,,,,,,,,,,,,,,,,,,,,,,,,,,,,,,,,,,,,,,
,,5f3006e1a760660769bd6930,2026-03-17_15h09.30.007,kallum_motion_pilot_GIST_update_2,2026.1.1,Win32,28.8184438,5f3006e1a760660769bd6930,69b95efdef24cd8a694e89ee,69b96081d578091ec884354c,0.0873,0.0873,1,28,190,95,1,eightseven,,,,,,,,,,,,,,,,,,,,,,,,,,,,,,,,,,,,,,,,,,,,,,,,,,,,,,,,,,,,,,,,,,,,,,,,,,,,,,,,,,,,,,,,,,,,,,,,,,,,,,,,,,,,,,,,,,,,,,,,,,,,,,,,,,,,,,,,,
,,5f3006e1a760660769bd6930,2026-03-17_15h09.30.007,kallum_motion_pilot_GIST_update_2,2026.1.1,Win32,28.8184438,5f3006e1a760660769bd6930,69b95efdef24cd8a694e89ee,69b96081d578091ec884354c,0.0876,0.0876,1,29,191,81,1,fiveseven,,,,,,,,,,,,,,,,,,,,,,,,,,,,,,,,,,,,,,,,,,,,,,,,,,,,,,,,,,,,,,,,,,,,,,,,,,,,,,,,,,,,,,,,,,,,,,,,,,,,,,,,,,,,,,,,,,,,,,,,,,,,,,,,,,,,,,,,,
,,5f3006e1a760660769bd6930,2026-03-17_15h09.30.007,kallum_motion_pilot_GIST_update_2,2026.1.1,Win32,28.8184438,5f3006e1a760660769bd6930,69b95efdef24cd8a694e89ee,69b96081d578091ec884354c,0.0879,0.0879,1,30,192,103,1,eightseven,,,,,,,,,,,,,,,,,,,,,,,,,,,,,,,,,,,,,,,,,,,,,,,,,,,,,,,,,,,,,,,,,,,,,,,,,,,,,,,,,,,,,,,,,,,,,,,,,,,,,,,,,,,,,,,,,,,,,,,,,,,,,,,,,,,,,,,,,
,,5f3006e1a760660769bd6930,2026-03-17_15h09.30.007,kallum_motion_pilot_GIST_update_2,2026.1.1,Win32,28.8184438,5f3006e1a760660769bd6930,69b95efdef24cd8a694e89ee,69b96081d578091ec884354c,0.0881,0.0881,1,31,193,90,1,sixfive,,,,,,,,,,,,,,,,,,,,,,,,,,,,,,,,,,,,,,,,,,,,,,,,,,,,,,,,,,,,,,,,,,,,,,,,,,,,,,,,,,,,,,,,,,,,,,,,,,,,,,,,,,,,,,,,,,,,,,,,,,,,,,,,,,,,,,,,,
,,5f3006e1a760660769bd6930,2026-03-17_15h09.30.007,kallum_motion_pilot_GIST_update_2,2026.1.1,Win32,28.8184438,5f3006e1a760660769bd6930,69b95efdef24cd8a694e89ee,69b96081d578091ec884354c,0.0883,0.0883,1,32,194,58,1,twoone,,,,,,,,,,,,,,,,,,,,,,,,,,,,,,,,,,,,,,,,,,,,,,,,,,,,,,,,,,,,,,,,,,,,,,,,,,,,,,,,,,,,,,,,,,,,,,,,,,,,,,,,,,,,,,,,,,,,,,,,,,,,,,,,,,,,,,,,,
,,5f3006e1a760660769bd6930,2026-03-17_15h09.30.007,kallum_motion_pilot_GIST_update_2,2026.1.1,Win32,28.8184438,5f3006e1a760660769bd6930,69b95efdef24cd8a694e89ee,69b96081d578091ec884354c,0.0885,0.0885,1,33,195,134,1,eightsix,,,,,,,,,,,,,,,,,,,,,,,,,,,,,,,,,,,,,,,,,,,,,,,,,,,,,,,,,,,,,,,,,,,,,,,,,,,,,,,,,,,,,,,,,,,,,,,,,,,,,,,,,,,,,,,,,,,,,,,,,,,,,,,,,,,,,,,,,
,,5f3006e1a760660769bd6930,2026-03-17_15h09.30.007,kallum_motion_pilot_GIST_update_2,2026.1.1,Win32,28.8184438,5f3006e1a760660769bd6930,69b95efdef24cd8a694e89ee,69b96081d578091ec884354c,0.0888,0.0888,1,34,196,18,1,twoone,,,,,,,,,,,,,,,,,,,,,,,,,,,,,,,,,,,,,,,,,,,,,,,,,,,,,,,,,,,,,,,,,,,,,,,,,,,,,,,,,,,,,,,,,,,,,,,,,,,,,,,,,,,,,,,,,,,,,,,,,,,,,,,,,,,,,,,,,
,,5f3006e1a760660769bd6930,2026-03-17_15h09.30.007,kallum_motion_pilot_GIST_update_2,2026.1.1,Win32,28.8184438,5f3006e1a760660769bd6930,69b95efdef24cd8a694e89ee,69b96081d578091ec884354c,0.0891,0.0891,1,35,197,10,1,twoone,,,,,,,,,,,,,,,,,,,,,,,,,,,,,,,,,,,,,,,,,,,,,,,,,,,,,,,,,,,,,,,,,,,,,,,,,,,,,,,,,,,,,,,,,,,,,,,,,,,,,,,,,,,,,,,,,,,,,,,,,,,,,,,,,,,,,,,,,
,,5f3006e1a760660769bd6930,2026-03-17_15h09.30.007,kallum_motion_pilot_GIST_update_2,2026.1.1,Win32,28.8184438,5f3006e1a760660769bd6930,69b95efdef24cd8a694e89ee,69b96081d578091ec884354c,0.0894,0.0894,1,36,198,98,1,sixfive,,,,,,,,,,,,,,,,,,,,,,,,,,,,,,,,,,,,,,,,,,,,,,,,,,,,,,,,,,,,,,,,,,,,,,,,,,,,,,,,,,,,,,,,,,,,,,,,,,,,,,,,,,,,,,,,,,,,,,,,,,,,,,,,,,,,,,,,,
,,5f3006e1a760660769bd6930,2026-03-17_15h09.30.007,kallum_motion_pilot_GIST_update_2,2026.1.1,Win32,28.8184438,5f3006e1a760660769bd6930,69b95efdef24cd8a694e89ee,69b96081d578091ec884354c,0.0897,0.0897,1,37,199,157,1,seveneight,,,,,,,,,,,,,,,,,,,,,,,,,,,,,,,,,,,,,,,,,,,,,,,,,,,,,,,,,,,,,,,,,,,,,,,,,,,,,,,,,,,,,,,,,,,,,,,,,,,,,,,,,,,,,,,,,,,,,,,,,,,,,,,,,,,,,,,,,
,,5f3006e1a760660769bd6930,2026-03-17_15h09.30.007,kallum_motion_pilot_GIST_update_2,2026.1.1,Win32,28.8184438,5f3006e1a760660769bd6930,69b95efdef24cd8a694e89ee,69b96081d578091ec884354c,0.09,0.09,1,38,200,105,1,fiveseven,,,,,,,,,,,,,,,,,,,,,,,,,,,,,,,,,,,,,,,,,,,,,,,,,,,,,,,,,,,,,,,,,,,,,,,,,,,,,,,,,,,,,,,,,,,,,,,,,,,,,,,,,,,,,,,,,,,,,,,,,,,,,,,,,,,,,,,,,
,,5f3006e1a760660769bd6930,2026-03-17_15h09.30.007,kallum_motion_pilot_GIST_update_2,2026.1.1,Win32,28.8184438,5f3006e1a760660769bd6930,69b95efdef24cd8a694e89ee,69b96081d578091ec884354c,0.0902,0.0902,1,39,201,115,1,sixeight,,,,,,,,,,,,,,,,,,,,,,,,,,,,,,,,,,,,,,,,,,,,,,,,,,,,,,,,,,,,,,,,,,,,,,,,,,,,,,,,,,,,,,,,,,,,,,,,,,,,,,,,,,,,,,,,,,,,,,,,,,,,,,,,,,,,,,,,,
,,5f3006e1a760660769bd6930,2026-03-17_15h09.30.007,kallum_motion_pilot_GIST_update_2,2026.1.1,Win32,28.8184438,5f3006e1a760660769bd6930,69b95efdef24cd8a694e89ee,69b96081d578091ec884354c,0.0905,0.0905,1,40,202,9,1,onethree,,,,,,,,,,,,,,,,,,,,,,,,,,,,,,,,,,,,,,,,,,,,,,,,,,,,,,,,,,,,,,,,,,,,,,,,,,,,,,,,,,,,,,,,,,,,,,,,,,,,,,,,,,,,,,,,,,,,,,,,,,,,,,,,,,,,,,,,,
,,5f3006e1a760660769bd6930,2026-03-17_15h09.30.007,kallum_motion_pilot_GIST_update_2,2026.1.1,Win32,28.8184438,5f3006e1a760660769bd6930,69b95efdef24cd8a694e89ee,69b96081d578091ec884354c,0.0908,0.0908,1,41,203,125,1,seveneight,,,,,,,,,,,,,,,,,,,,,,,,,,,,,,,,,,,,,,,,,,,,,,,,,,,,,,,,,,,,,,,,,,,,,,,,,,,,,,,,,,,,,,,,,,,,,,,,,,,,,,,,,,,,,,,,,,,,,,,,,,,,,,,,,,,,,,,,,
,,5f3006e1a760660769bd6930,2026-03-17_15h09.30.007,kallum_motion_pilot_GIST_update_2,2026.1.1,Win32,28.8184438,5f3006e1a760660769bd6930,69b95efdef24cd8a694e89ee,69b96081d578091ec884354c,0.0911,0.0911,1,42,204,30,1,fourtwo,,,,,,,,,,,,,,,,,,,,,,,,,,,,,,,,,,,,,,,,,,,,,,,,,,,,,,,,,,,,,,,,,,,,,,,,,,,,,,,,,,,,,,,,,,,,,,,,,,,,,,,,,,,,,,,,,,,,,,,,,,,,,,,,,,,,,,,,,
,,5f3006e1a760660769bd6930,2026-03-17_15h09.30.007,kallum_motion_pilot_GIST_update_2,2026.1.1,Win32,28.8184438,5f3006e1a760660769bd6930,69b95efdef24cd8a694e89ee,69b96081d578091ec884354c,0.0913,0.0913,1,43,205,128,1,fivesix,,,,,,,,,,,,,,,,,,,,,,,,,,,,,,,,,,,,,,,,,,,,,,,,,,,,,,,,,,,,,,,,,,,,,,,,,,,,,,,,,,,,,,,,,,,,,,,,,,,,,,,,,,,,,,,,,,,,,,,,,,,,,,,,,,,,,,,,,
,,5f3006e1a760660769bd6930,2026-03-17_15h09.30.007,kallum_motion_pilot_GIST_update_2,2026.1.1,Win32,28.8184438,5f3006e1a760660769bd6930,69b95efdef24cd8a694e89ee,69b96081d578091ec884354c,0.0916,0.0917,1,44,206,15,1,fourthree,,,,,,,,,,,,,,,,,,,,,,,,,,,,,,,,,,,,,,,,,,,,,,,,,,,,,,,,,,,,,,,,,,,,,,,,,,,,,,,,,,,,,,,,,,,,,,,,,,,,,,,,,,,,,,,,,,,,,,,,,,,,,,,,,,,,,,,,,
,,5f3006e1a760660769bd6930,2026-03-17_15h09.30.007,kallum_motion_pilot_GIST_update_2,2026.1.1,Win32,28.8184438,5f3006e1a760660769bd6930,69b95efdef24cd8a694e89ee,69b96081d578091ec884354c,0.0919,0.0919,1,45,207,47,1,fourthree,,,,,,,,,,,,,,,,,,,,,,,,,,,,,,,,,,,,,,,,,,,,,,,,,,,,,,,,,,,,,,,,,,,,,,,,,,,,,,,,,,,,,,,,,,,,,,,,,,,,,,,,,,,,,,,,,,,,,,,,,,,,,,,,,,,,,,,,,
,,5f3006e1a760660769bd6930,2026-03-17_15h09.30.007,kallum_motion_pilot_GIST_update_2,2026.1.1,Win32,28.8184438,5f3006e1a760660769bd6930,69b95efdef24cd8a694e89ee,69b96081d578091ec884354c,0.0922,0.0922,1,46,208,143,1,eightseven,,,,,,,,,,,,,,,,,,,,,,,,,,,,,,,,,,,,,,,,,,,,,,,,,,,,,,,,,,,,,,,,,,,,,,,,,,,,,,,,,,,,,,,,,,,,,,,,,,,,,,,,,,,,,,,,,,,,,,,,,,,,,,,,,,,,,,,,,
,,5f3006e1a760660769bd6930,2026-03-17_15h09.30.007,kallum_motion_pilot_GIST_update_2,2026.1.1,Win32,28.8184438,5f3006e1a760660769bd6930,69b95efdef24cd8a694e89ee,69b96081d578091ec884354c,0.0924,0.0924,1,47,209,152,1,fivesix,,,,,,,,,,,,,,,,,,,,,,,,,,,,,,,,,,,,,,,,,,,,,,,,,,,,,,,,,,,,,,,,,,,,,,,,,,,,,,,,,,,,,,,,,,,,,,,,,,,,,,,,,,,,,,,,,,,,,,,,,,,,,,,,,,,,,,,,,
,,5f3006e1a760660769bd6930,2026-03-17_15h09.30.007,kallum_motion_pilot_GIST_update_2,2026.1.1,Win32,28.8184438,5f3006e1a760660769bd6930,69b95efdef24cd8a694e89ee,69b96081d578091ec884354c,0.0926,0.0926,1,48,210,111,1,eightseven,,,,,,,,,,,,,,,,,,,,,,,,,,,,,,,,,,,,,,,,,,,,,,,,,,,,,,,,,,,,,,,,,,,,,,,,,,,,,,,,,,,,,,,,,,,,,,,,,,,,,,,,,,,,,,,,,,,,,,,,,,,,,,,,,,,,,,,,,
,,5f3006e1a760660769bd6930,2026-03-17_15h09.30.007,kallum_motion_pilot_GIST_update_2,2026.1.1,Win32,28.8184438,5f3006e1a760660769bd6930,69b95efdef24cd8a694e89ee,69b96081d578091ec884354c,0.0928,0.0928,1,49,211,106,1,sixfive,,,,,,,,,,,,,,,,,,,,,,,,,,,,,,,,,,,,,,,,,,,,,,,,,,,,,,,,,,,,,,,,,,,,,,,,,,,,,,,,,,,,,,,,,,,,,,,,,,,,,,,,,,,,,,,,,,,,,,,,,,,,,,,,,,,,,,,,,
,,5f3006e1a760660769bd6930,2026-03-17_15h09.30.007,kallum_motion_pilot_GIST_update_2,2026.1.1,Win32,28.8184438,5f3006e1a760660769bd6930,69b95efdef24cd8a694e89ee,69b96081d578091ec884354c,0.0931,0.0931,1,50,212,62,1,fourtwo,,,,,,,,,,,,,,,,,,,,,,,,,,,,,,,,,,,,,,,,,,,,,,,,,,,,,,,,,,,,,,,,,,,,,,,,,,,,,,,,,,,,,,,,,,,,,,,,,,,,,,,,,,,,,,,,,,,,,,,,,,,,,,,,,,,,,,,,,
,,5f3006e1a760660769bd6930,2026-03-17_15h09.30.007,kallum_motion_pilot_GIST_update_2,2026.1.1,Win32,28.8184438,5f3006e1a760660769bd6930,69b95efdef24cd8a694e89ee,69b96081d578091ec884354c,0.0934,0.0934,1,51,213,132,1,sevenfive,,,,,,,,,,,,,,,,,,,,,,,,,,,,,,,,,,,,,,,,,,,,,,,,,,,,,,,,,,,,,,,,,,,,,,,,,,,,,,,,,,,,,,,,,,,,,,,,,,,,,,,,,,,,,,,,,,,,,,,,,,,,,,,,,,,,,,,,,
,,5f3006e1a760660769bd6930,2026-03-17_15h09.30.007,kallum_motion_pilot_GIST_update_2,2026.1.1,Win32,28.8184438,5f3006e1a760660769bd6930,69b95efdef24cd8a694e89ee,69b96081d578091ec884354c,0.0936,0.0937,1,52,214,13,1,threefour,,,,,,,,,,,,,,,,,,,,,,,,,,,,,,,,,,,,,,,,,,,,,,,,,,,,,,,,,,,,,,,,,,,,,,,,,,,,,,,,,,,,,,,,,,,,,,,,,,,,,,,,,,,,,,,,,,,,,,,,,,,,,,,,,,,,,,,,,
,,5f3006e1a760660769bd6930,2026-03-17_15h09.30.007,kallum_motion_pilot_GIST_update_2,2026.1.1,Win32,28.8184438,5f3006e1a760660769bd6930,69b95efdef24cd8a694e89ee,69b96081d578091ec884354c,0.0939,0.0939,1,53,215,56,1,onetwo,,,,,,,,,,,,,,,,,,,,,,,,,,,,,,,,,,,,,,,,,,,,,,,,,,,,,,,,,,,,,,,,,,,,,,,,,,,,,,,,,,,,,,,,,,,,,,,,,,,,,,,,,,,,,,,,,,,,,,,,,,,,,,,,,,,,,,,,,
,,5f3006e1a760660769bd6930,2026-03-17_15h09.30.007,kallum_motion_pilot_GIST_update_2,2026.1.1,Win32,28.8184438,5f3006e1a760660769bd6930,69b95efdef24cd8a694e89ee,69b96081d578091ec884354c,0.0942,0.0942,1,54,216,127,1,eightseven,,,,,,,,,,,,,,,,,,,,,,,,,,,,,,,,,,,,,,,,,,,,,,,,,,,,,,,,,,,,,,,,,,,,,,,,,,,,,,,,,,,,,,,,,,,,,,,,,,,,,,,,,,,,,,,,,,,,,,,,,,,,,,,,,,,,,,,,,
,,5f3006e1a760660769bd6930,2026-03-17_15h09.30.007,kallum_motion_pilot_GIST_update_2,2026.1.1,Win32,28.8184438,5f3006e1a760660769bd6930,69b95efdef24cd8a694e89ee,69b96081d578091ec884354c,0.0944,0.0944,1,55,217,0,1,onetwo,,,,,,,,,,,,,,,,,,,,,,,,,,,,,,,,,,,,,,,,,,,,,,,,,,,,,,,,,,,,,,,,,,,,,,,,,,,,,,,,,,,,,,,,,,,,,,,,,,,,,,,,,,,,,,,,,,,,,,,,,,,,,,,,,,,,,,,,,
,,5f3006e1a760660769bd6930,2026-03-17_15h09.30.007,kallum_motion_pilot_GIST_update_2,2026.1.1,Win32,28.8184438,5f3006e1a760660769bd6930,69b95efdef24cd8a694e89ee,69b96081d578091ec884354c,0.097,0.097,1,56,218,4,1,threeone,,,,,,,,,,,,,,,,,,,,,,,,,,,,,,,,,,,,,,,,,,,,,,,,,,,,,,,,,,,,,,,,,,,,,,,,,,,,,,,,,,,,,,,,,,,,,,,,,,,,,,,,,,,,,,,,,,,,,,,,,,,,,,,,,,,,,,,,,
,,5f3006e1a760660769bd6930,2026-03-17_15h09.30.007,kallum_motion_pilot_GIST_update_2,2026.1.1,Win32,28.8184438,5f3006e1a760660769bd6930,69b95efdef24cd8a694e89ee,69b96081d578091ec884354c,0.0974,0.0974,1,57,219,61,1,threefour,,,,,,,,,,,,,,,,,,,,,,,,,,,,,,,,,,,,,,,,,,,,,,,,,,,,,,,,,,,,,,,,,,,,,,,,,,,,,,,,,,,,,,,,,,,,,,,,,,,,,,,,,,,,,,,,,,,,,,,,,,,,,,,,,,,,,,,,,
,,5f3006e1a760660769bd6930,2026-03-17_15h09.30.007,kallum_motion_pilot_GIST_update_2,2026.1.1,Win32,28.8184438,5f3006e1a760660769bd6930,69b95efdef24cd8a694e89ee,69b96081d578091ec884354c,0.0976,0.0976,1,58,220,150,1,eightsix,,,,,,,,,,,,,,,,,,,,,,,,,,,,,,,,,,,,,,,,,,,,,,,,,,,,,,,,,,,,,,,,,,,,,,,,,,,,,,,,,,,,,,,,,,,,,,,,,,,,,,,,,,,,,,,,,,,,,,,,,,,,,,,,,,,,,,,,,
,,5f3006e1a760660769bd6930,2026-03-17_15h09.30.007,kallum_motion_pilot_GIST_update_2,2026.1.1,Win32,28.8184438,5f3006e1a760660769bd6930,69b95efdef24cd8a694e89ee,69b96081d578091ec884354c,0.0979,0.0979,1,59,221,23,1,fourthree,,,,,,,,,,,,,,,,,,,,,,,,,,,,,,,,,,,,,,,,,,,,,,,,,,,,,,,,,,,,,,,,,,,,,,,,,,,,,,,,,,,,,,,,,,,,,,,,,,,,,,,,,,,,,,,,,,,,,,,,,,,,,,,,,,,,,,,,,
,,5f3006e1a760660769bd6930,2026-03-17_15h09.30.007,kallum_motion_pilot_GIST_update_2,2026.1.1,Win32,28.8184438,5f3006e1a760660769bd6930,69b95efdef24cd8a694e89ee,69b96081d578091ec884354c,0.0981,0.0981,1,60,222,31,1,fourthree,,,,,,,,,,,,,,,,,,,,,,,,,,,,,,,,,,,,,,,,,,,,,,,,,,,,,,,,,,,,,,,,,,,,,,,,,,,,,,,,,,,,,,,,,,,,,,,,,,,,,,,,,,,,,,,,,,,,,,,,,,,,,,,,,,,,,,,,,
,,5f3006e1a760660769bd6930,2026-03-17_15h09.30.007,kallum_motion_pilot_GIST_update_2,2026.1.1,Win32,28.8184438,5f3006e1a760660769bd6930,69b95efdef24cd8a694e89ee,69b96081d578091ec884354c,0.0984,0.0984,1,61,223,120,1,fivesix,,,,,,,,,,,,,,,,,,,,,,,,,,,,,,,,,,,,,,,,,,,,,,,,,,,,,,,,,,,,,,,,,,,,,,,,,,,,,,,,,,,,,,,,,,,,,,,,,,,,,,,,,,,,,,,,,,,,,,,,,,,,,,,,,,,,,,,,,
,,5f3006e1a760660769bd6930,2026-03-17_15h09.30.007,kallum_motion_pilot_GIST_update_2,2026.1.1,Win32,28.8184438,5f3006e1a760660769bd6930,69b95efdef24cd8a694e89ee,69b96081d578091ec884354c,0.0987,0.0987,1,62,224,109,1,seveneight,,,,,,,,,,,,,,,,,,,,,,,,,,,,,,,,,,,,,,,,,,,,,,,,,,,,,,,,,,,,,,,,,,,,,,,,,,,,,,,,,,,,,,,,,,,,,,,,,,,,,,,,,,,,,,,,,,,,,,,,,,,,,,,,,,,,,,,,,
,,5f3006e1a760660769bd6930,2026-03-17_15h09.30.007,kallum_motion_pilot_GIST_update_2,2026.1.1,Win32,28.8184438,5f3006e1a760660769bd6930,69b95efdef24cd8a694e89ee,69b96081d578091ec884354c,0.099,0.099,1,63,225,43,1,twofour,,,,,,,,,,,,,,,,,,,,,,,,,,,,,,,,,,,,,,,,,,,,,,,,,,,,,,,,,,,,,,,,,,,,,,,,,,,,,,,,,,,,,,,,,,,,,,,,,,,,,,,,,,,,,,,,,,,,,,,,,,,,,,,,,,,,,,,,,
,,5f3006e1a760660769bd6930,2026-03-17_15h09.30.007,kallum_motion_pilot_GIST_update_2,2026.1.1,Win32,28.8184438,5f3006e1a760660769bd6930,69b95efdef24cd8a694e89ee,69b96081d578091ec884354c,0.0992,0.0992,1,64,226,89,1,fiveseven,,,,,,,,,,,,,,,,,,,,,,,,,,,,,,,,,,,,,,,,,,,,,,,,,,,,,,,,,,,,,,,,,,,,,,,,,,,,,,,,,,,,,,,,,,,,,,,,,,,,,,,,,,,,,,,,,,,,,,,,,,,,,,,,,,,,,,,,,
,,5f3006e1a760660769bd6930,2026-03-17_15h09.30.007,kallum_motion_pilot_GIST_update_2,2026.1.1,Win32,28.8184438,5f3006e1a760660769bd6930,69b95efdef24cd8a694e89ee,69b96081d578091ec884354c,0.0995,0.0995,1,65,227,138,1,sixfive,,,,,,,,,,,,,,,,,,,,,,,,,,,,,,,,,,,,,,,,,,,,,,,,,,,,,,,,,,,,,,,,,,,,,,,,,,,,,,,,,,,,,,,,,,,,,,,,,,,,,,,,,,,,,,,,,,,,,,,,,,,,,,,,,,,,,,,,,
,,5f3006e1a760660769bd6930,2026-03-17_15h09.30.007,kallum_motion_pilot_GIST_update_2,2026.1.1,Win32,28.8184438,5f3006e1a760660769bd6930,69b95efdef24cd8a694e89ee,69b96081d578091ec884354c,0.0998,0.0998,1,66,228,2,1,twoone,,,,,,,,,,,,,,,,,,,,,,,,,,,,,,,,,,,,,,,,,,,,,,,,,,,,,,,,,,,,,,,,,,,,,,,,,,,,,,,,,,,,,,,,,,,,,,,,,,,,,,,,,,,,,,,,,,,,,,,,,,,,,,,,,,,,,,,,,
,,5f3006e1a760660769bd6930,2026-03-17_15h09.30.007,kallum_motion_pilot_GIST_update_2,2026.1.1,Win32,28.8184438,5f3006e1a760660769bd6930,69b95efdef24cd8a694e89ee,69b96081d578091ec884354c,0.1001,0.1001,1,67,229,142,1,eightsix,,,,,,,,,,,,,,,,,,,,,,,,,,,,,,,,,,,,,,,,,,,,,,,,,,,,,,,,,,,,,,,,,,,,,,,,,,,,,,,,,,,,,,,,,,,,,,,,,,,,,,,,,,,,,,,,,,,,,,,,,,,,,,,,,,,,,,,,,
,,5f3006e1a760660769bd6930,2026-03-17_15h09.30.007,kallum_motion_pilot_GIST_update_2,2026.1.1,Win32,28.8184438,5f3006e1a760660769bd6930,69b95efdef24cd8a694e89ee,69b96081d578091ec884354c,0.1004,0.1004,1,68,230,80,1,fivesix,,,,,,,,,,,,,,,,,,,,,,,,,,,,,,,,,,,,,,,,,,,,,,,,,,,,,,,,,,,,,,,,,,,,,,,,,,,,,,,,,,,,,,,,,,,,,,,,,,,,,,,,,,,,,,,,,,,,,,,,,,,,,,,,,,,,,,,,,
,,5f3006e1a760660769bd6930,2026-03-17_15h09.30.007,kallum_motion_pilot_GIST_update_2,2026.1.1,Win32,28.8184438,5f3006e1a760660769bd6930,69b95efdef24cd8a694e89ee,69b96081d578091ec884354c,0.1006,0.1006,1,69,231,85,1,seveneight,,,,,,,,,,,,,,,,,,,,,,,,,,,,,,,,,,,,,,,,,,,,,,,,,,,,,,,,,,,,,,,,,,,,,,,,,,,,,,,,,,,,,,,,,,,,,,,,,,,,,,,,,,,,,,,,,,,,,,,,,,,,,,,,,,,,,,,,,
,,5f3006e1a760660769bd6930,2026-03-17_15h09.30.007,kallum_motion_pilot_GIST_update_2,2026.1.1,Win32,28.8184438,5f3006e1a760660769bd6930,69b95efdef24cd8a694e89ee,69b96081d578091ec884354c,0.1009,0.1009,1,70,232,70,1,fourtwo,,,,,,,,,,,,,,,,,,,,,,,,,,,,,,,,,,,,,,,,,,,,,,,,,,,,,,,,,,,,,,,,,,,,,,,,,,,,,,,,,,,,,,,,,,,,,,,,,,,,,,,,,,,,,,,,,,,,,,,,,,,,,,,,,,,,,,,,,
,,5f3006e1a760660769bd6930,2026-03-17_15h09.30.007,kallum_motion_pilot_GIST_update_2,2026.1.1,Win32,28.8184438,5f3006e1a760660769bd6930,69b95efdef24cd8a694e89ee,69b96081d578091ec884354c,0.1011,0.1011,1,71,233,32,1,onetwo,,,,,,,,,,,,,,,,,,,,,,,,,,,,,,,,,,,,,,,,,,,,,,,,,,,,,,,,,,,,,,,,,,,,,,,,,,,,,,,,,,,,,,,,,,,,,,,,,,,,,,,,,,,,,,,,,,,,,,,,,,,,,,,,,,,,,,,,,
,,5f3006e1a760660769bd6930,2026-03-17_15h09.30.007,kallum_motion_pilot_GIST_update_2,2026.1.1,Win32,28.8184438,5f3006e1a760660769bd6930,69b95efdef24cd8a694e89ee,69b96081d578091ec884354c,0.1013,0.1013,1,72,234,57,1,onethree,,,,,,,,,,,,,,,,,,,,,,,,,,,,,,,,,,,,,,,,,,,,,,,,,,,,,,,,,,,,,,,,,,,,,,,,,,,,,,,,,,,,,,,,,,,,,,,,,,,,,,,,,,,,,,,,,,,,,,,,,,,,,,,,,,,,,,,,,
,,5f3006e1a760660769bd6930,2026-03-17_15h09.30.007,kallum_motion_pilot_GIST_update_2,2026.1.1,Win32,28.8184438,5f3006e1a760660769bd6930,69b95efdef24cd8a694e89ee,69b96081d578091ec884354c,0.1016,0.1016,1,73,235,20,1,threeone,,,,,,,,,,,,,,,,,,,,,,,,,,,,,,,,,,,,,,,,,,,,,,,,,,,,,,,,,,,,,,,,,,,,,,,,,,,,,,,,,,,,,,,,,,,,,,,,,,,,,,,,,,,,,,,,,,,,,,,,,,,,,,,,,,,,,,,,,
,,5f3006e1a760660769bd6930,2026-03-17_15h09.30.007,kallum_motion_pilot_GIST_update_2,2026.1.1,Win32,28.8184438,5f3006e1a760660769bd6930,69b95efdef24cd8a694e89ee,69b96081d578091ec884354c,0.1018,0.1018,1,74,236,7,1,fourthree,,,,,,,,,,,,,,,,,,,,,,,,,,,,,,,,,,,,,,,,,,,,,,,,,,,,,,,,,,,,,,,,,,,,,,,,,,,,,,,,,,,,,,,,,,,,,,,,,,,,,,,,,,,,,,,,,,,,,,,,,,,,,,,,,,,,,,,,,
,,5f3006e1a760660769bd6930,2026-03-17_15h09.30.007,kallum_motion_pilot_GIST_update_2,2026.1.1,Win32,28.8184438,5f3006e1a760660769bd6930,69b95efdef24cd8a694e89ee,69b96081d578091ec884354c,0.1021,0.1021,1,75,237,112,1,fivesix,,,,,,,,,,,,,,,,,,,,,,,,,,,,,,,,,,,,,,,,,,,,,,,,,,,,,,,,,,,,,,,,,,,,,,,,,,,,,,,,,,,,,,,,,,,,,,,,,,,,,,,,,,,,,,,,,,,,,,,,,,,,,,,,,,,,,,,,,
,,5f3006e1a760660769bd6930,2026-03-17_15h09.30.007,kallum_motion_pilot_GIST_update_2,2026.1.1,Win32,28.8184438,5f3006e1a760660769bd6930,69b95efdef24cd8a694e89ee,69b96081d578091ec884354c,0.1024,0.1025,1,76,238,146,1,sixfive,,,,,,,,,,,,,,,,,,,,,,,,,,,,,,,,,,,,,,,,,,,,,,,,,,,,,,,,,,,,,,,,,,,,,,,,,,,,,,,,,,,,,,,,,,,,,,,,,,,,,,,,,,,,,,,,,,,,,,,,,,,,,,,,,,,,,,,,,
,,5f3006e1a760660769bd6930,2026-03-17_15h09.30.007,kallum_motion_pilot_GIST_update_2,2026.1.1,Win32,28.8184438,5f3006e1a760660769bd6930,69b95efdef24cd8a694e89ee,69b96081d578091ec884354c,0.1027,0.1027,1,77,239,141,1,seveneight,,,,,,,,,,,,,,,,,,,,,,,,,,,,,,,,,,,,,,,,,,,,,,,,,,,,,,,,,,,,,,,,,,,,,,,,,,,,,,,,,,,,,,,,,,,,,,,,,,,,,,,,,,,,,,,,,,,,,,,,,,,,,,,,,,,,,,,,,
,,5f3006e1a760660769bd6930,2026-03-17_15h09.30.007,kallum_motion_pilot_GIST_update_2,2026.1.1,Win32,28.8184438,5f3006e1a760660769bd6930,69b95efdef24cd8a694e89ee,69b96081d578091ec884354c,0.103,0.103,1,78,240,68,1,threeone,,,,,,,,,,,,,,,,,,,,,,,,,,,,,,,,,,,,,,,,,,,,,,,,,,,,,,,,,,,,,,,,,,,,,,,,,,,,,,,,,,,,,,,,,,,,,,,,,,,,,,,,,,,,,,,,,,,,,,,,,,,,,,,,,,,,,,,,,
,,5f3006e1a760660769bd6930,2026-03-17_15h09.30.007,kallum_motion_pilot_GIST_update_2,2026.1.1,Win32,28.8184438,5f3006e1a760660769bd6930,69b95efdef24cd8a694e89ee,69b96081d578091ec884354c,0.1032,0.1032,1,79,241,69,1,threefour,,,,,,,,,,,,,,,,,,,,,,,,,,,,,,,,,,,,,,,,,,,,,,,,,,,,,,,,,,,,,,,,,,,,,,,,,,,,,,,,,,,,,,,,,,,,,,,,,,,,,,,,,,,,,,,,,,,,,,,,,,,,,,,,,,,,,,,,,
,,5f3006e1a760660769bd6930,2026-03-17_15h09.30.007,kallum_motion_pilot_GIST_update_2,2026.1.1,Win32,28.8184438,5f3006e1a760660769bd6930,69b95efdef24cd8a694e89ee,69b96081d578091ec884354c,0.1034,0.1034,1,80,242,36,1,threeone,,,,,,,,,,,,,,,,,,,,,,,,,,,,,,,,,,,,,,,,,,,,,,,,,,,,,,,,,,,,,,,,,,,,,,,,,,,,,,,,,,,,,,,,,,,,,,,,,,,,,,,,,,,,,,,,,,,,,,,,,,,,,,,,,,,,,,,,,
,,5f3006e1a760660769bd6930,2026-03-17_15h09.30.007,kallum_motion_pilot_GIST_update_2,2026.1.1,Win32,28.8184438,5f3006e1a760660769bd6930,69b95efdef24cd8a694e89ee,69b96081d578091ec884354c,0.1037,0.1037,1,81,243,87,1,eightseven,,,,,,,,,,,,,,,,,,,,,,,,,,,,,,,,,,,,,,,,,,,,,,,,,,,,,,,,,,,,,,,,,,,,,,,,,,,,,,,,,,,,,,,,,,,,,,,,,,,,,,,,,,,,,,,,,,,,,,,,,,,,,,,,,,,,,,,,,
,,5f3006e1a760660769bd6930,2026-03-17_15h09.30.007,kallum_motion_pilot_GIST_update_2,2026.1.1,Win32,28.8184438,5f3006e1a760660769bd6930,69b95efdef24cd8a694e89ee,69b96081d578091ec884354c,0.1039,0.104,1,82,244,28,1,threeone,,,,,,,,,,,,,,,,,,,,,,,,,,,,,,,,,,,,,,,,,,,,,,,,,,,,,,,,,,,,,,,,,,,,,,,,,,,,,,,,,,,,,,,,,,,,,,,,,,,,,,,,,,,,,,,,,,,,,,,,,,,,,,,,,,,,,,,,,
,,5f3006e1a760660769bd6930,2026-03-17_15h09.30.007,kallum_motion_pilot_GIST_update_2,2026.1.1,Win32,28.8184438,5f3006e1a760660769bd6930,69b95efdef24cd8a694e89ee,69b96081d578091ec884354c,0.1042,0.1042,1,83,245,41,1,onethree,,,,,,,,,,,,,,,,,,,,,,,,,,,,,,,,,,,,,,,,,,,,,,,,,,,,,,,,,,,,,,,,,,,,,,,,,,,,,,,,,,,,,,,,,,,,,,,,,,,,,,,,,,,,,,,,,,,,,,,,,,,,,,,,,,,,,,,,,
,,5f3006e1a760660769bd6930,2026-03-17_15h09.30.007,kallum_motion_pilot_GIST_update_2,2026.1.1,Win32,28.8184438,5f3006e1a760660769bd6930,69b95efdef24cd8a694e89ee,69b96081d578091ec884354c,0.1045,0.1045,1,84,246,16,1,onetwo,,,,,,,,,,,,,,,,,,,,,,,,,,,,,,,,,,,,,,,,,,,,,,,,,,,,,,,,,,,,,,,,,,,,,,,,,,,,,,,,,,,,,,,,,,,,,,,,,,,,,,,,,,,,,,,,,,,,,,,,,,,,,,,,,,,,,,,,,
,,5f3006e1a760660769bd6930,2026-03-17_15h09.30.007,kallum_motion_pilot_GIST_update_2,2026.1.1,Win32,28.8184438,5f3006e1a760660769bd6930,69b95efdef24cd8a694e89ee,69b96081d578091ec884354c,0.1048,0.1048,1,85,247,110,1,eightsix,,,,,,,,,,,,,,,,,,,,,,,,,,,,,,,,,,,,,,,,,,,,,,,,,,,,,,,,,,,,,,,,,,,,,,,,,,,,,,,,,,,,,,,,,,,,,,,,,,,,,,,,,,,,,,,,,,,,,,,,,,,,,,,,,,,,,,,,,
,,5f3006e1a760660769bd6930,2026-03-17_15h09.30.007,kallum_motion_pilot_GIST_update_2,2026.1.1,Win32,28.8184438,5f3006e1a760660769bd6930,69b95efdef24cd8a694e89ee,69b96081d578091ec884354c,0.1051,0.1051,1,86,248,126,1,eightsix,,,,,,,,,,,,,,,,,,,,,,,,,,,,,,,,,,,,,,,,,,,,,,,,,,,,,,,,,,,,,,,,,,,,,,,,,,,,,,,,,,,,,,,,,,,,,,,,,,,,,,,,,,,,,,,,,,,,,,,,,,,,,,,,,,,,,,,,,
,,5f3006e1a760660769bd6930,2026-03-17_15h09.30.007,kallum_motion_pilot_GIST_update_2,2026.1.1,Win32,28.8184438,5f3006e1a760660769bd6930,69b95efdef24cd8a694e89ee,69b96081d578091ec884354c,0.1053,0.1053,1,87,249,50,1,twoone,,,,,,,,,,,,,,,,,,,,,,,,,,,,,,,,,,,,,,,,,,,,,,,,,,,,,,,,,,,,,,,,,,,,,,,,,,,,,,,,,,,,,,,,,,,,,,,,,,,,,,,,,,,,,,,,,,,,,,,,,,,,,,,,,,,,,,,,,
,,5f3006e1a760660769bd6930,2026-03-17_15h09.30.007,kallum_motion_pilot_GIST_update_2,2026.1.1,Win32,28.8184438,5f3006e1a760660769bd6930,69b95efdef24cd8a694e89ee,69b96081d578091ec884354c,0.1056,0.1056,1,88,250,116,1,sevenfive,,,,,,,,,,,,,,,,,,,,,,,,,,,,,,,,,,,,,,,,,,,,,,,,,,,,,,,,,,,,,,,,,,,,,,,,,,,,,,,,,,,,,,,,,,,,,,,,,,,,,,,,,,,,,,,,,,,,,,,,,,,,,,,,,,,,,,,,,
,,5f3006e1a760660769bd6930,2026-03-17_15h09.30.007,kallum_motion_pilot_GIST_update_2,2026.1.1,Win32,28.8184438,5f3006e1a760660769bd6930,69b95efdef24cd8a694e89ee,69b96081d578091ec884354c,0.1058,0.1058,1,89,251,38,1,fourtwo,,,,,,,,,,,,,,,,,,,,,,,,,,,,,,,,,,,,,,,,,,,,,,,,,,,,,,,,,,,,,,,,,,,,,,,,,,,,,,,,,,,,,,,,,,,,,,,,,,,,,,,,,,,,,,,,,,,,,,,,,,,,,,,,,,,,,,,,,
,,5f3006e1a760660769bd6930,2026-03-17_15h09.30.007,kallum_motion_pilot_GIST_update_2,2026.1.1,Win32,28.8184438,5f3006e1a760660769bd6930,69b95efdef24cd8a694e89ee,69b96081d578091ec884354c,0.1061,0.1061,1,90,252,45,1,threefour,,,,,,,,,,,,,,,,,,,,,,,,,,,,,,,,,,,,,,,,,,,,,,,,,,,,,,,,,,,,,,,,,,,,,,,,,,,,,,,,,,,,,,,,,,,,,,,,,,,,,,,,,,,,,,,,,,,,,,,,,,,,,,,,,,,,,,,,,
,,5f3006e1a760660769bd6930,2026-03-17_15h09.30.007,kallum_motion_pilot_GIST_update_2,2026.1.1,Win32,28.8184438,5f3006e1a760660769bd6930,69b95efdef24cd8a694e89ee,69b96081d578091ec884354c,0.1063,0.1063,1,91,253,83,1,sixeight,,,,,,,,,,,,,,,,,,,,,,,,,,,,,,,,,,,,,,,,,,,,,,,,,,,,,,,,,,,,,,,,,,,,,,,,,,,,,,,,,,,,,,,,,,,,,,,,,,,,,,,,,,,,,,,,,,,,,,,,,,,,,,,,,,,,,,,,,
,,5f3006e1a760660769bd6930,2026-03-17_15h09.30.007,kallum_motion_pilot_GIST_update_2,2026.1.1,Win32,28.8184438,5f3006e1a760660769bd6930,69b95efdef24cd8a694e89ee,69b96081d578091ec884354c,0.1066,0.1066,1,92,254,54,1,fourtwo,,,,,,,,,,,,,,,,,,,,,,,,,,,,,,,,,,,,,,,,,,,,,,,,,,,,,,,,,,,,,,,,,,,,,,,,,,,,,,,,,,,,,,,,,,,,,,,,,,,,,,,,,,,,,,,,,,,,,,,,,,,,,,,,,,,,,,,,,
,,5f3006e1a760660769bd6930,2026-03-17_15h09.30.007,kallum_motion_pilot_GIST_update_2,2026.1.1,Win32,28.8184438,5f3006e1a760660769bd6930,69b95efdef24cd8a694e89ee,69b96081d578091ec884354c,0.107,0.107,1,93,255,76,1,threeone,,,,,,,,,,,,,,,,,,,,,,,,,,,,,,,,,,,,,,,,,,,,,,,,,,,,,,,,,,,,,,,,,,,,,,,,,,,,,,,,,,,,,,,,,,,,,,,,,,,,,,,,,,,,,,,,,,,,,,,,,,,,,,,,,,,,,,,,,
,,5f3006e1a760660769bd6930,2026-03-17_15h09.30.007,kallum_motion_pilot_GIST_update_2,2026.1.1,Win32,28.8184438,5f3006e1a760660769bd6930,69b95efdef24cd8a694e89ee,69b96081d578091ec884354c,0.1074,0.1074,1,94,256,66,1,twoone,,,,,,,,,,,,,,,,,,,,,,,,,,,,,,,,,,,,,,,,,,,,,,,,,,,,,,,,,,,,,,,,,,,,,,,,,,,,,,,,,,,,,,,,,,,,,,,,,,,,,,,,,,,,,,,,,,,,,,,,,,,,,,,,,,,,,,,,,
,,5f3006e1a760660769bd6930,2026-03-17_15h09.30.007,kallum_motion_pilot_GIST_update_2,2026.1.1,Win32,28.8184438,5f3006e1a760660769bd6930,69b95efdef24cd8a694e89ee,69b96081d578091ec884354c,0.1076,0.1076,1,95,257,117,1,seveneight,,,,,,,,,,,,,,,,,,,,,,,,,,,,,,,,,,,,,,,,,,,,,,,,,,,,,,,,,,,,,,,,,,,,,,,,,,,,,,,,,,,,,,,,,,,,,,,,,,,,,,,,,,,,,,,,,,,,,,,,,,,,,,,,,,,,,,,,,
,,5f3006e1a760660769bd6930,2026-03-17_15h09.30.007,kallum_motion_pilot_GIST_update_2,2026.1.1,Win32,28.8184438,5f3006e1a760660769bd6930,69b95efdef24cd8a694e89ee,69b96081d578091ec884354c,0.1079,0.1079,1,96,258,130,1,sixfive,,,,,,,,,,,,,,,,,,,,,,,,,,,,,,,,,,,,,,,,,,,,,,,,,,,,,,,,,,,,,,,,,,,,,,,,,,,,,,,,,,,,,,,,,,,,,,,,,,,,,,,,,,,,,,,,,,,,,,,,,,,,,,,,,,,,,,,,,
,,5f3006e1a760660769bd6930,2026-03-17_15h09.30.007,kallum_motion_pilot_GIST_update_2,2026.1.1,Win32,28.8184438,5f3006e1a760660769bd6930,69b95efdef24cd8a694e89ee,69b96081d578091ec884354c,0.1081,0.1082,1,97,259,40,1,onetwo,,,,,,,,,,,,,,,,,,,,,,,,,,,,,,,,,,,,,,,,,,,,,,,,,,,,,,,,,,,,,,,,,,,,,,,,,,,,,,,,,,,,,,,,,,,,,,,,,,,,,,,,,,,,,,,,,,,,,,,,,,,,,,,,,,,,,,,,,
,,5f3006e1a760660769bd6930,2026-03-17_15h09.30.007,kallum_motion_pilot_GIST_update_2,2026.1.1,Win32,28.8184438,5f3006e1a760660769bd6930,69b95efdef24cd8a694e89ee,69b96081d578091ec884354c,0.1084,0.1084,1,98,260,79,1,eightseven,,,,,,,,,,,,,,,,,,,,,,,,,,,,,,,,,,,,,,,,,,,,,,,,,,,,,,,,,,,,,,,,,,,,,,,,,,,,,,,,,,,,,,,,,,,,,,,,,,,,,,,,,,,,,,,,,,,,,,,,,,,,,,,,,,,,,,,,,
,,5f3006e1a760660769bd6930,2026-03-17_15h09.30.007,kallum_motion_pilot_GIST_update_2,2026.1.1,Win32,28.8184438,5f3006e1a760660769bd6930,69b95efdef24cd8a694e89ee,69b96081d578091ec884354c,0.1087,0.1087,1,99,261,139,1,sixeight,,,,,,,,,,,,,,,,,,,,,,,,,,,,,,,,,,,,,,,,,,,,,,,,,,,,,,,,,,,,,,,,,,,,,,,,,,,,,,,,,,,,,,,,,,,,,,,,,,,,,,,,,,,,,,,,,,,,,,,,,,,,,,,,,,,,,,,,,
,,5f3006e1a760660769bd6930,2026-03-17_15h09.30.007,kallum_motion_pilot_GIST_update_2,2026.1.1,Win32,28.8184438,5f3006e1a760660769bd6930,69b95efdef24cd8a694e89ee,69b96081d578091ec884354c,0.109,0.109,1,100,262,6,1,fourtwo,,,,,,,,,,,,,,,,,,,,,,,,,,,,,,,,,,,,,,,,,,,,,,,,,,,,,,,,,,,,,,,,,,,,,,,,,,,,,,,,,,,,,,,,,,,,,,,,,,,,,,,,,,,,,,,,,,,,,,,,,,,,,,,,,,,,,,,,,
,,5f3006e1a760660769bd6930,2026-03-17_15h09.30.007,kallum_motion_pilot_GIST_update_2,2026.1.1,Win32,28.8184438,5f3006e1a760660769bd6930,69b95efdef24cd8a694e89ee,69b96081d578091ec884354c,0.1093,0.1093,1,101,263,160,1,fivesix,,,,,,,,,,,,,,,,,,,,,,,,,,,,,,,,,,,,,,,,,,,,,,,,,,,,,,,,,,,,,,,,,,,,,,,,,,,,,,,,,,,,,,,,,,,,,,,,,,,,,,,,,,,,,,,,,,,,,,,,,,,,,,,,,,,,,,,,,
,,5f3006e1a760660769bd6930,2026-03-17_15h09.30.007,kallum_motion_pilot_GIST_update_2,2026.1.1,Win32,28.8184438,5f3006e1a760660769bd6930,69b95efdef24cd8a694e89ee,69b96081d578091ec884354c,0.1096,0.1096,1,102,264,151,1,eightseven,,,,,,,,,,,,,,,,,,,,,,,,,,,,,,,,,,,,,,,,,,,,,,,,,,,,,,,,,,,,,,,,,,,,,,,,,,,,,,,,,,,,,,,,,,,,,,,,,,,,,,,,,,,,,,,,,,,,,,,,,,,,,,,,,,,,,,,,,
,,5f3006e1a760660769bd6930,2026-03-17_15h09.30.007,kallum_motion_pilot_GIST_update_2,2026.1.1,Win32,28.8184438,5f3006e1a760660769bd6930,69b95efdef24cd8a694e89ee,69b96081d578091ec884354c,0.1099,0.1099,1,103,265,137,1,fiveseven,,,,,,,,,,,,,,,,,,,,,,,,,,,,,,,,,,,,,,,,,,,,,,,,,,,,,,,,,,,,,,,,,,,,,,,,,,,,,,,,,,,,,,,,,,,,,,,,,,,,,,,,,,,,,,,,,,,,,,,,,,,,,,,,,,,,,,,,,
,,5f3006e1a760660769bd6930,2026-03-17_15h09.30.007,kallum_motion_pilot_GIST_update_2,2026.1.1,Win32,28.8184438,5f3006e1a760660769bd6930,69b95efdef24cd8a694e89ee,69b96081d578091ec884354c,0.1102,0.1102,1,104,266,155,1,sixeight,,,,,,,,,,,,,,,,,,,,,,,,,,,,,,,,,,,,,,,,,,,,,,,,,,,,,,,,,,,,,,,,,,,,,,,,,,,,,,,,,,,,,,,,,,,,,,,,,,,,,,,,,,,,,,,,,,,,,,,,,,,,,,,,,,,,,,,,,
