startup.started,startup.stopped,Prolific ID*,date,expName,psychopyVersion,OS,frameRate,participant,study_id,session,stimpositions.started,stimpositions.stopped,hardcoded_stimulus_positions.thisRepN,hardcoded_stimulus_positions.thisTrialN,hardcoded_stimulus_positions.thisN,hardcoded_stimulus_positions.thisIndex,hardcoded_stimulus_positions.ran,StimulusPos,stimorientation.started,stimorientation.stopped,prac_stimorientation_import_loop.thisRepN,prac_stimorientation_import_loop.thisTrialN,prac_stimorientation_import_loop.thisN,prac_stimorientation_import_loop.thisIndex,prac_stimorientation_import_loop.ran,Stimorientation,welcome_instr.started,welcome_instr.stopped,key_resp.keys,key_resp.rt,key_resp.duration,response_steppedout_1.started,response_steppedout_1.stopped,key_resp_20.keys,key_resp_20.rt,key_resp_20.duration,response_steppedout_2.started,response_steppedout_2.stopped,key_resp_19.keys,key_resp_19.rt,key_resp_19.duration,stim_response_instr.started,stim_response_instr.stopped,key_resp_15.keys,key_resp_15.rt,key_resp_15.duration,direction_instr_2.started,direction_instr_2.stopped,key_resp_9.keys,key_resp_9.rt,key_resp_9.duration,instr_prac.started,instr_prac.stopped,key_resp_10.keys,key_resp_10.rt,key_resp_10.duration,Stim1_display_prac.started,Stim1_display_prac.stopped,Ecc,Circle1_ori,Circle2_ori,response_prac.started,similarity,response_time,response_prac.stopped,mouse_5.x,mouse_5.y,mouse_5.leftButton,mouse_5.midButton,mouse_5.rightButton,mouse_5.clicked_name,responseprac_feedback.started,responseprac_feedback.stopped,summary2_prac.started,summary2_prac.stopped,mouse_6.x,mouse_6.y,mouse_6.leftButton,mouse_6.midButton,mouse_6.rightButton,mouse_6.clicked_name,duringprac.thisRepN,duringprac.thisTrialN,duringprac.thisN,duringprac.thisIndex,duringprac.ran,begin.started,begin.stopped,key_resp_22.keys,key_resp_22.rt,key_resp_22.duration,Stim1_display.started,Stim1_display.stopped,circle1_ori,circle2_ori,circle1_SF,circle2_SF,response.started,response.stopped,mouse.x,mouse.y,mouse.leftButton,mouse.midButton,mouse.rightButton,mouse.clicked_name,trialnumber,double_pass.thisRepN,double_pass.thisTrialN,double_pass.thisN,double_pass.thisIndex,double_pass.ran,double_pass.order,main_trial.thisRepN,main_trial.thisTrialN,main_trial.thisN,main_trial.thisIndex,main_trial.ran,main_trial.order,Trial_Counter,Catch,Frequencies,response_2.started,response_2.stopped,mouse_2.x,mouse_2.y,mouse_2.leftButton,mouse_2.midButton,mouse_2.rightButton,mouse_2.clicked_name,special_trial.started,special_trial.stopped,catch_1.started,catch_1.stopped,mouse_3.x,mouse_3.y,mouse_3.leftButton,mouse_3.midButton,mouse_3.rightButton,catchresponse,catchnumber,response_time_catch,response_sum.started,response_sum.stopped,mouse_11.x,mouse_11.y,mouse_11.leftButton,mouse_11.midButton,mouse_11.rightButton,flip_presentation_sequence_for_double_pass.started,flip_presentation_sequence_for_double_pass.stopped,goodbye.started,goodbye.stopped,key_resp_3.keys,key_resp_3.rt,key_resp_3.duration
0.0002,0.0002,5f4d6c27b03547a378fcb44a,2026-03-17_12h20.23.868,kallum_motion_pilot_GIST_update_2,2026.1.1,Win32,60.24096386,5f4d6c27b03547a378fcb44a,69b92ab4aef6dee357cd729a,69b92ad6cdfd939e2249c997,,,,,,,,,,,,,,,,,,,,,,,,,,,,,,,,,,,,,,,,,,,,,,,,,,,,,,,,,,,,,,,,,,,,,,,,,,,,,,,,,,,,,,,,,,,,,,,,,,,,,,,,,,,,,,,,,,,,,,,,,,,,,,,,,,,,,,,,,,,,,,,,,
,,5f4d6c27b03547a378fcb44a,2026-03-17_12h20.23.868,kallum_motion_pilot_GIST_update_2,2026.1.1,Win32,60.24096386,5f4d6c27b03547a378fcb44a,69b92ab4aef6dee357cd729a,69b92ad6cdfd939e2249c997,0.0159,0.0159,0,0,0,138,1,sixfive,,,,,,,,,,,,,,,,,,,,,,,,,,,,,,,,,,,,,,,,,,,,,,,,,,,,,,,,,,,,,,,,,,,,,,,,,,,,,,,,,,,,,,,,,,,,,,,,,,,,,,,,,,,,,,,,,,,,,,,,,,,,,,,,,,,,,,,,,
,,5f4d6c27b03547a378fcb44a,2026-03-17_12h20.23.868,kallum_motion_pilot_GIST_update_2,2026.1.1,Win32,60.24096386,5f4d6c27b03547a378fcb44a,69b92ab4aef6dee357cd729a,69b92ad6cdfd939e2249c997,0.016,0.0161,0,1,1,139,1,sixeight,,,,,,,,,,,,,,,,,,,,,,,,,,,,,,,,,,,,,,,,,,,,,,,,,,,,,,,,,,,,,,,,,,,,,,,,,,,,,,,,,,,,,,,,,,,,,,,,,,,,,,,,,,,,,,,,,,,,,,,,,,,,,,,,,,,,,,,,,
,,5f4d6c27b03547a378fcb44a,2026-03-17_12h20.23.868,kallum_motion_pilot_GIST_update_2,2026.1.1,Win32,60.24096386,5f4d6c27b03547a378fcb44a,69b92ab4aef6dee357cd729a,69b92ad6cdfd939e2249c997,0.0162,0.0162,0,2,2,100,1,sevenfive,,,,,,,,,,,,,,,,,,,,,,,,,,,,,,,,,,,,,,,,,,,,,,,,,,,,,,,,,,,,,,,,,,,,,,,,,,,,,,,,,,,,,,,,,,,,,,,,,,,,,,,,,,,,,,,,,,,,,,,,,,,,,,,,,,,,,,,,,
,,5f4d6c27b03547a378fcb44a,2026-03-17_12h20.23.868,kallum_motion_pilot_GIST_update_2,2026.1.1,Win32,60.24096386,5f4d6c27b03547a378fcb44a,69b92ab4aef6dee357cd729a,69b92ad6cdfd939e2249c997,0.0163,0.0163,0,3,3,40,1,onetwo,,,,,,,,,,,,,,,,,,,,,,,,,,,,,,,,,,,,,,,,,,,,,,,,,,,,,,,,,,,,,,,,,,,,,,,,,,,,,,,,,,,,,,,,,,,,,,,,,,,,,,,,,,,,,,,,,,,,,,,,,,,,,,,,,,,,,,,,,
,,5f4d6c27b03547a378fcb44a,2026-03-17_12h20.23.868,kallum_motion_pilot_GIST_update_2,2026.1.1,Win32,60.24096386,5f4d6c27b03547a378fcb44a,69b92ab4aef6dee357cd729a,69b92ad6cdfd939e2249c997,0.0164,0.0164,0,4,4,77,1,threefour,,,,,,,,,,,,,,,,,,,,,,,,,,,,,,,,,,,,,,,,,,,,,,,,,,,,,,,,,,,,,,,,,,,,,,,,,,,,,,,,,,,,,,,,,,,,,,,,,,,,,,,,,,,,,,,,,,,,,,,,,,,,,,,,,,,,,,,,,
,,5f4d6c27b03547a378fcb44a,2026-03-17_12h20.23.868,kallum_motion_pilot_GIST_update_2,2026.1.1,Win32,60.24096386,5f4d6c27b03547a378fcb44a,69b92ab4aef6dee357cd729a,69b92ad6cdfd939e2249c997,0.0165,0.0165,0,5,5,135,1,eightseven,,,,,,,,,,,,,,,,,,,,,,,,,,,,,,,,,,,,,,,,,,,,,,,,,,,,,,,,,,,,,,,,,,,,,,,,,,,,,,,,,,,,,,,,,,,,,,,,,,,,,,,,,,,,,,,,,,,,,,,,,,,,,,,,,,,,,,,,,
,,5f4d6c27b03547a378fcb44a,2026-03-17_12h20.23.868,kallum_motion_pilot_GIST_update_2,2026.1.1,Win32,60.24096386,5f4d6c27b03547a378fcb44a,69b92ab4aef6dee357cd729a,69b92ad6cdfd939e2249c997,0.0166,0.0166,0,6,6,111,1,eightseven,,,,,,,,,,,,,,,,,,,,,,,,,,,,,,,,,,,,,,,,,,,,,,,,,,,,,,,,,,,,,,,,,,,,,,,,,,,,,,,,,,,,,,,,,,,,,,,,,,,,,,,,,,,,,,,,,,,,,,,,,,,,,,,,,,,,,,,,,
,,5f4d6c27b03547a378fcb44a,2026-03-17_12h20.23.868,kallum_motion_pilot_GIST_update_2,2026.1.1,Win32,60.24096386,5f4d6c27b03547a378fcb44a,69b92ab4aef6dee357cd729a,69b92ad6cdfd939e2249c997,0.0167,0.0167,0,7,7,132,1,sevenfive,,,,,,,,,,,,,,,,,,,,,,,,,,,,,,,,,,,,,,,,,,,,,,,,,,,,,,,,,,,,,,,,,,,,,,,,,,,,,,,,,,,,,,,,,,,,,,,,,,,,,,,,,,,,,,,,,,,,,,,,,,,,,,,,,,,,,,,,,
,,5f4d6c27b03547a378fcb44a,2026-03-17_12h20.23.868,kallum_motion_pilot_GIST_update_2,2026.1.1,Win32,60.24096386,5f4d6c27b03547a378fcb44a,69b92ab4aef6dee357cd729a,69b92ad6cdfd939e2249c997,0.0169,0.0169,0,8,8,39,1,fourthree,,,,,,,,,,,,,,,,,,,,,,,,,,,,,,,,,,,,,,,,,,,,,,,,,,,,,,,,,,,,,,,,,,,,,,,,,,,,,,,,,,,,,,,,,,,,,,,,,,,,,,,,,,,,,,,,,,,,,,,,,,,,,,,,,,,,,,,,,
,,5f4d6c27b03547a378fcb44a,2026-03-17_12h20.23.868,kallum_motion_pilot_GIST_update_2,2026.1.1,Win32,60.24096386,5f4d6c27b03547a378fcb44a,69b92ab4aef6dee357cd729a,69b92ad6cdfd939e2249c997,0.0171,0.0172,0,9,9,73,1,onethree,,,,,,,,,,,,,,,,,,,,,,,,,,,,,,,,,,,,,,,,,,,,,,,,,,,,,,,,,,,,,,,,,,,,,,,,,,,,,,,,,,,,,,,,,,,,,,,,,,,,,,,,,,,,,,,,,,,,,,,,,,,,,,,,,,,,,,,,,
,,5f4d6c27b03547a378fcb44a,2026-03-17_12h20.23.868,kallum_motion_pilot_GIST_update_2,2026.1.1,Win32,60.24096386,5f4d6c27b03547a378fcb44a,69b92ab4aef6dee357cd729a,69b92ad6cdfd939e2249c997,0.0172,0.0172,0,10,10,68,1,threeone,,,,,,,,,,,,,,,,,,,,,,,,,,,,,,,,,,,,,,,,,,,,,,,,,,,,,,,,,,,,,,,,,,,,,,,,,,,,,,,,,,,,,,,,,,,,,,,,,,,,,,,,,,,,,,,,,,,,,,,,,,,,,,,,,,,,,,,,,
,,5f4d6c27b03547a378fcb44a,2026-03-17_12h20.23.868,kallum_motion_pilot_GIST_update_2,2026.1.1,Win32,60.24096386,5f4d6c27b03547a378fcb44a,69b92ab4aef6dee357cd729a,69b92ad6cdfd939e2249c997,0.0173,0.0173,0,11,11,131,1,sixeight,,,,,,,,,,,,,,,,,,,,,,,,,,,,,,,,,,,,,,,,,,,,,,,,,,,,,,,,,,,,,,,,,,,,,,,,,,,,,,,,,,,,,,,,,,,,,,,,,,,,,,,,,,,,,,,,,,,,,,,,,,,,,,,,,,,,,,,,,
,,5f4d6c27b03547a378fcb44a,2026-03-17_12h20.23.868,kallum_motion_pilot_GIST_update_2,2026.1.1,Win32,60.24096386,5f4d6c27b03547a378fcb44a,69b92ab4aef6dee357cd729a,69b92ad6cdfd939e2249c997,0.0176,0.0176,0,12,12,0,1,onetwo,,,,,,,,,,,,,,,,,,,,,,,,,,,,,,,,,,,,,,,,,,,,,,,,,,,,,,,,,,,,,,,,,,,,,,,,,,,,,,,,,,,,,,,,,,,,,,,,,,,,,,,,,,,,,,,,,,,,,,,,,,,,,,,,,,,,,,,,,
,,5f4d6c27b03547a378fcb44a,2026-03-17_12h20.23.868,kallum_motion_pilot_GIST_update_2,2026.1.1,Win32,60.24096386,5f4d6c27b03547a378fcb44a,69b92ab4aef6dee357cd729a,69b92ad6cdfd939e2249c997,0.0177,0.0177,0,13,13,88,1,fivesix,,,,,,,,,,,,,,,,,,,,,,,,,,,,,,,,,,,,,,,,,,,,,,,,,,,,,,,,,,,,,,,,,,,,,,,,,,,,,,,,,,,,,,,,,,,,,,,,,,,,,,,,,,,,,,,,,,,,,,,,,,,,,,,,,,,,,,,,,
,,5f4d6c27b03547a378fcb44a,2026-03-17_12h20.23.868,kallum_motion_pilot_GIST_update_2,2026.1.1,Win32,60.24096386,5f4d6c27b03547a378fcb44a,69b92ab4aef6dee357cd729a,69b92ad6cdfd939e2249c997,0.0177,0.0177,0,14,14,147,1,sixeight,,,,,,,,,,,,,,,,,,,,,,,,,,,,,,,,,,,,,,,,,,,,,,,,,,,,,,,,,,,,,,,,,,,,,,,,,,,,,,,,,,,,,,,,,,,,,,,,,,,,,,,,,,,,,,,,,,,,,,,,,,,,,,,,,,,,,,,,,
,,5f4d6c27b03547a378fcb44a,2026-03-17_12h20.23.868,kallum_motion_pilot_GIST_update_2,2026.1.1,Win32,60.24096386,5f4d6c27b03547a378fcb44a,69b92ab4aef6dee357cd729a,69b92ad6cdfd939e2249c997,0.0177,0.0177,0,15,15,42,1,twoone,,,,,,,,,,,,,,,,,,,,,,,,,,,,,,,,,,,,,,,,,,,,,,,,,,,,,,,,,,,,,,,,,,,,,,,,,,,,,,,,,,,,,,,,,,,,,,,,,,,,,,,,,,,,,,,,,,,,,,,,,,,,,,,,,,,,,,,,,
,,5f4d6c27b03547a378fcb44a,2026-03-17_12h20.23.868,kallum_motion_pilot_GIST_update_2,2026.1.1,Win32,60.24096386,5f4d6c27b03547a378fcb44a,69b92ab4aef6dee357cd729a,69b92ad6cdfd939e2249c997,0.0178,0.0178,0,16,16,8,1,onetwo,,,,,,,,,,,,,,,,,,,,,,,,,,,,,,,,,,,,,,,,,,,,,,,,,,,,,,,,,,,,,,,,,,,,,,,,,,,,,,,,,,,,,,,,,,,,,,,,,,,,,,,,,,,,,,,,,,,,,,,,,,,,,,,,,,,,,,,,,
,,5f4d6c27b03547a378fcb44a,2026-03-17_12h20.23.868,kallum_motion_pilot_GIST_update_2,2026.1.1,Win32,60.24096386,5f4d6c27b03547a378fcb44a,69b92ab4aef6dee357cd729a,69b92ad6cdfd939e2249c997,0.0179,0.0179,0,17,17,63,1,fourthree,,,,,,,,,,,,,,,,,,,,,,,,,,,,,,,,,,,,,,,,,,,,,,,,,,,,,,,,,,,,,,,,,,,,,,,,,,,,,,,,,,,,,,,,,,,,,,,,,,,,,,,,,,,,,,,,,,,,,,,,,,,,,,,,,,,,,,,,,
,,5f4d6c27b03547a378fcb44a,2026-03-17_12h20.23.868,kallum_motion_pilot_GIST_update_2,2026.1.1,Win32,60.24096386,5f4d6c27b03547a378fcb44a,69b92ab4aef6dee357cd729a,69b92ad6cdfd939e2249c997,0.0179,0.0179,0,18,18,89,1,fiveseven,,,,,,,,,,,,,,,,,,,,,,,,,,,,,,,,,,,,,,,,,,,,,,,,,,,,,,,,,,,,,,,,,,,,,,,,,,,,,,,,,,,,,,,,,,,,,,,,,,,,,,,,,,,,,,,,,,,,,,,,,,,,,,,,,,,,,,,,,
,,5f4d6c27b03547a378fcb44a,2026-03-17_12h20.23.868,kallum_motion_pilot_GIST_update_2,2026.1.1,Win32,60.24096386,5f4d6c27b03547a378fcb44a,69b92ab4aef6dee357cd729a,69b92ad6cdfd939e2249c997,0.018,0.018,0,19,19,129,1,fiveseven,,,,,,,,,,,,,,,,,,,,,,,,,,,,,,,,,,,,,,,,,,,,,,,,,,,,,,,,,,,,,,,,,,,,,,,,,,,,,,,,,,,,,,,,,,,,,,,,,,,,,,,,,,,,,,,,,,,,,,,,,,,,,,,,,,,,,,,,,
,,5f4d6c27b03547a378fcb44a,2026-03-17_12h20.23.868,kallum_motion_pilot_GIST_update_2,2026.1.1,Win32,60.24096386,5f4d6c27b03547a378fcb44a,69b92ab4aef6dee357cd729a,69b92ad6cdfd939e2249c997,0.0181,0.0181,0,20,20,22,1,fourtwo,,,,,,,,,,,,,,,,,,,,,,,,,,,,,,,,,,,,,,,,,,,,,,,,,,,,,,,,,,,,,,,,,,,,,,,,,,,,,,,,,,,,,,,,,,,,,,,,,,,,,,,,,,,,,,,,,,,,,,,,,,,,,,,,,,,,,,,,,
,,5f4d6c27b03547a378fcb44a,2026-03-17_12h20.23.868,kallum_motion_pilot_GIST_update_2,2026.1.1,Win32,60.24096386,5f4d6c27b03547a378fcb44a,69b92ab4aef6dee357cd729a,69b92ad6cdfd939e2249c997,0.0181,0.0182,0,21,21,76,1,threeone,,,,,,,,,,,,,,,,,,,,,,,,,,,,,,,,,,,,,,,,,,,,,,,,,,,,,,,,,,,,,,,,,,,,,,,,,,,,,,,,,,,,,,,,,,,,,,,,,,,,,,,,,,,,,,,,,,,,,,,,,,,,,,,,,,,,,,,,,
,,5f4d6c27b03547a378fcb44a,2026-03-17_12h20.23.868,kallum_motion_pilot_GIST_update_2,2026.1.1,Win32,60.24096386,5f4d6c27b03547a378fcb44a,69b92ab4aef6dee357cd729a,69b92ad6cdfd939e2249c997,0.0182,0.0182,0,22,22,3,1,twofour,,,,,,,,,,,,,,,,,,,,,,,,,,,,,,,,,,,,,,,,,,,,,,,,,,,,,,,,,,,,,,,,,,,,,,,,,,,,,,,,,,,,,,,,,,,,,,,,,,,,,,,,,,,,,,,,,,,,,,,,,,,,,,,,,,,,,,,,,
,,5f4d6c27b03547a378fcb44a,2026-03-17_12h20.23.868,kallum_motion_pilot_GIST_update_2,2026.1.1,Win32,60.24096386,5f4d6c27b03547a378fcb44a,69b92ab4aef6dee357cd729a,69b92ad6cdfd939e2249c997,0.0183,0.0183,0,23,23,75,1,twofour,,,,,,,,,,,,,,,,,,,,,,,,,,,,,,,,,,,,,,,,,,,,,,,,,,,,,,,,,,,,,,,,,,,,,,,,,,,,,,,,,,,,,,,,,,,,,,,,,,,,,,,,,,,,,,,,,,,,,,,,,,,,,,,,,,,,,,,,,
,,5f4d6c27b03547a378fcb44a,2026-03-17_12h20.23.868,kallum_motion_pilot_GIST_update_2,2026.1.1,Win32,60.24096386,5f4d6c27b03547a378fcb44a,69b92ab4aef6dee357cd729a,69b92ad6cdfd939e2249c997,0.0185,0.0185,0,24,24,72,1,onetwo,,,,,,,,,,,,,,,,,,,,,,,,,,,,,,,,,,,,,,,,,,,,,,,,,,,,,,,,,,,,,,,,,,,,,,,,,,,,,,,,,,,,,,,,,,,,,,,,,,,,,,,,,,,,,,,,,,,,,,,,,,,,,,,,,,,,,,,,,
,,5f4d6c27b03547a378fcb44a,2026-03-17_12h20.23.868,kallum_motion_pilot_GIST_update_2,2026.1.1,Win32,60.24096386,5f4d6c27b03547a378fcb44a,69b92ab4aef6dee357cd729a,69b92ad6cdfd939e2249c997,0.0186,0.0186,0,25,25,67,1,twofour,,,,,,,,,,,,,,,,,,,,,,,,,,,,,,,,,,,,,,,,,,,,,,,,,,,,,,,,,,,,,,,,,,,,,,,,,,,,,,,,,,,,,,,,,,,,,,,,,,,,,,,,,,,,,,,,,,,,,,,,,,,,,,,,,,,,,,,,,
,,5f4d6c27b03547a378fcb44a,2026-03-17_12h20.23.868,kallum_motion_pilot_GIST_update_2,2026.1.1,Win32,60.24096386,5f4d6c27b03547a378fcb44a,69b92ab4aef6dee357cd729a,69b92ad6cdfd939e2249c997,0.0187,0.0187,0,26,26,20,1,threeone,,,,,,,,,,,,,,,,,,,,,,,,,,,,,,,,,,,,,,,,,,,,,,,,,,,,,,,,,,,,,,,,,,,,,,,,,,,,,,,,,,,,,,,,,,,,,,,,,,,,,,,,,,,,,,,,,,,,,,,,,,,,,,,,,,,,,,,,,
,,5f4d6c27b03547a378fcb44a,2026-03-17_12h20.23.868,kallum_motion_pilot_GIST_update_2,2026.1.1,Win32,60.24096386,5f4d6c27b03547a378fcb44a,69b92ab4aef6dee357cd729a,69b92ad6cdfd939e2249c997,0.0188,0.0188,0,27,27,120,1,fivesix,,,,,,,,,,,,,,,,,,,,,,,,,,,,,,,,,,,,,,,,,,,,,,,,,,,,,,,,,,,,,,,,,,,,,,,,,,,,,,,,,,,,,,,,,,,,,,,,,,,,,,,,,,,,,,,,,,,,,,,,,,,,,,,,,,,,,,,,,
,,5f4d6c27b03547a378fcb44a,2026-03-17_12h20.23.868,kallum_motion_pilot_GIST_update_2,2026.1.1,Win32,60.24096386,5f4d6c27b03547a378fcb44a,69b92ab4aef6dee357cd729a,69b92ad6cdfd939e2249c997,0.019,0.019,0,28,28,9,1,onethree,,,,,,,,,,,,,,,,,,,,,,,,,,,,,,,,,,,,,,,,,,,,,,,,,,,,,,,,,,,,,,,,,,,,,,,,,,,,,,,,,,,,,,,,,,,,,,,,,,,,,,,,,,,,,,,,,,,,,,,,,,,,,,,,,,,,,,,,,
,,5f4d6c27b03547a378fcb44a,2026-03-17_12h20.23.868,kallum_motion_pilot_GIST_update_2,2026.1.1,Win32,60.24096386,5f4d6c27b03547a378fcb44a,69b92ab4aef6dee357cd729a,69b92ad6cdfd939e2249c997,0.019,0.019,0,29,29,71,1,fourthree,,,,,,,,,,,,,,,,,,,,,,,,,,,,,,,,,,,,,,,,,,,,,,,,,,,,,,,,,,,,,,,,,,,,,,,,,,,,,,,,,,,,,,,,,,,,,,,,,,,,,,,,,,,,,,,,,,,,,,,,,,,,,,,,,,,,,,,,,
,,5f4d6c27b03547a378fcb44a,2026-03-17_12h20.23.868,kallum_motion_pilot_GIST_update_2,2026.1.1,Win32,60.24096386,5f4d6c27b03547a378fcb44a,69b92ab4aef6dee357cd729a,69b92ad6cdfd939e2249c997,0.0191,0.0191,0,30,30,114,1,sixfive,,,,,,,,,,,,,,,,,,,,,,,,,,,,,,,,,,,,,,,,,,,,,,,,,,,,,,,,,,,,,,,,,,,,,,,,,,,,,,,,,,,,,,,,,,,,,,,,,,,,,,,,,,,,,,,,,,,,,,,,,,,,,,,,,,,,,,,,,
,,5f4d6c27b03547a378fcb44a,2026-03-17_12h20.23.868,kallum_motion_pilot_GIST_update_2,2026.1.1,Win32,60.24096386,5f4d6c27b03547a378fcb44a,69b92ab4aef6dee357cd729a,69b92ad6cdfd939e2249c997,0.0192,0.0192,0,31,31,31,1,fourthree,,,,,,,,,,,,,,,,,,,,,,,,,,,,,,,,,,,,,,,,,,,,,,,,,,,,,,,,,,,,,,,,,,,,,,,,,,,,,,,,,,,,,,,,,,,,,,,,,,,,,,,,,,,,,,,,,,,,,,,,,,,,,,,,,,,,,,,,,
,,5f4d6c27b03547a378fcb44a,2026-03-17_12h20.23.868,kallum_motion_pilot_GIST_update_2,2026.1.1,Win32,60.24096386,5f4d6c27b03547a378fcb44a,69b92ab4aef6dee357cd729a,69b92ad6cdfd939e2249c997,0.0192,0.0193,0,32,32,44,1,threeone,,,,,,,,,,,,,,,,,,,,,,,,,,,,,,,,,,,,,,,,,,,,,,,,,,,,,,,,,,,,,,,,,,,,,,,,,,,,,,,,,,,,,,,,,,,,,,,,,,,,,,,,,,,,,,,,,,,,,,,,,,,,,,,,,,,,,,,,,
,,5f4d6c27b03547a378fcb44a,2026-03-17_12h20.23.868,kallum_motion_pilot_GIST_update_2,2026.1.1,Win32,60.24096386,5f4d6c27b03547a378fcb44a,69b92ab4aef6dee357cd729a,69b92ad6cdfd939e2249c997,0.0194,0.0194,0,33,33,95,1,eightseven,,,,,,,,,,,,,,,,,,,,,,,,,,,,,,,,,,,,,,,,,,,,,,,,,,,,,,,,,,,,,,,,,,,,,,,,,,,,,,,,,,,,,,,,,,,,,,,,,,,,,,,,,,,,,,,,,,,,,,,,,,,,,,,,,,,,,,,,,
,,5f4d6c27b03547a378fcb44a,2026-03-17_12h20.23.868,kallum_motion_pilot_GIST_update_2,2026.1.1,Win32,60.24096386,5f4d6c27b03547a378fcb44a,69b92ab4aef6dee357cd729a,69b92ad6cdfd939e2249c997,0.0194,0.0194,0,34,34,146,1,sixfive,,,,,,,,,,,,,,,,,,,,,,,,,,,,,,,,,,,,,,,,,,,,,,,,,,,,,,,,,,,,,,,,,,,,,,,,,,,,,,,,,,,,,,,,,,,,,,,,,,,,,,,,,,,,,,,,,,,,,,,,,,,,,,,,,,,,,,,,,
,,5f4d6c27b03547a378fcb44a,2026-03-17_12h20.23.868,kallum_motion_pilot_GIST_update_2,2026.1.1,Win32,60.24096386,5f4d6c27b03547a378fcb44a,69b92ab4aef6dee357cd729a,69b92ad6cdfd939e2249c997,0.0195,0.0195,0,35,35,53,1,threefour,,,,,,,,,,,,,,,,,,,,,,,,,,,,,,,,,,,,,,,,,,,,,,,,,,,,,,,,,,,,,,,,,,,,,,,,,,,,,,,,,,,,,,,,,,,,,,,,,,,,,,,,,,,,,,,,,,,,,,,,,,,,,,,,,,,,,,,,,
,,5f4d6c27b03547a378fcb44a,2026-03-17_12h20.23.868,kallum_motion_pilot_GIST_update_2,2026.1.1,Win32,60.24096386,5f4d6c27b03547a378fcb44a,69b92ab4aef6dee357cd729a,69b92ad6cdfd939e2249c997,0.0195,0.0195,0,36,36,36,1,threeone,,,,,,,,,,,,,,,,,,,,,,,,,,,,,,,,,,,,,,,,,,,,,,,,,,,,,,,,,,,,,,,,,,,,,,,,,,,,,,,,,,,,,,,,,,,,,,,,,,,,,,,,,,,,,,,,,,,,,,,,,,,,,,,,,,,,,,,,,
,,5f4d6c27b03547a378fcb44a,2026-03-17_12h20.23.868,kallum_motion_pilot_GIST_update_2,2026.1.1,Win32,60.24096386,5f4d6c27b03547a378fcb44a,69b92ab4aef6dee357cd729a,69b92ad6cdfd939e2249c997,0.0196,0.0196,0,37,37,65,1,onethree,,,,,,,,,,,,,,,,,,,,,,,,,,,,,,,,,,,,,,,,,,,,,,,,,,,,,,,,,,,,,,,,,,,,,,,,,,,,,,,,,,,,,,,,,,,,,,,,,,,,,,,,,,,,,,,,,,,,,,,,,,,,,,,,,,,,,,,,,
,,5f4d6c27b03547a378fcb44a,2026-03-17_12h20.23.868,kallum_motion_pilot_GIST_update_2,2026.1.1,Win32,60.24096386,5f4d6c27b03547a378fcb44a,69b92ab4aef6dee357cd729a,69b92ad6cdfd939e2249c997,0.0197,0.0197,0,38,38,79,1,eightseven,,,,,,,,,,,,,,,,,,,,,,,,,,,,,,,,,,,,,,,,,,,,,,,,,,,,,,,,,,,,,,,,,,,,,,,,,,,,,,,,,,,,,,,,,,,,,,,,,,,,,,,,,,,,,,,,,,,,,,,,,,,,,,,,,,,,,,,,,
,,5f4d6c27b03547a378fcb44a,2026-03-17_12h20.23.868,kallum_motion_pilot_GIST_update_2,2026.1.1,Win32,60.24096386,5f4d6c27b03547a378fcb44a,69b92ab4aef6dee357cd729a,69b92ad6cdfd939e2249c997,0.0198,0.0198,0,39,39,13,1,threefour,,,,,,,,,,,,,,,,,,,,,,,,,,,,,,,,,,,,,,,,,,,,,,,,,,,,,,,,,,,,,,,,,,,,,,,,,,,,,,,,,,,,,,,,,,,,,,,,,,,,,,,,,,,,,,,,,,,,,,,,,,,,,,,,,,,,,,,,,
,,5f4d6c27b03547a378fcb44a,2026-03-17_12h20.23.868,kallum_motion_pilot_GIST_update_2,2026.1.1,Win32,60.24096386,5f4d6c27b03547a378fcb44a,69b92ab4aef6dee357cd729a,69b92ad6cdfd939e2249c997,0.0198,0.0198,0,40,40,45,1,threefour,,,,,,,,,,,,,,,,,,,,,,,,,,,,,,,,,,,,,,,,,,,,,,,,,,,,,,,,,,,,,,,,,,,,,,,,,,,,,,,,,,,,,,,,,,,,,,,,,,,,,,,,,,,,,,,,,,,,,,,,,,,,,,,,,,,,,,,,,
,,5f4d6c27b03547a378fcb44a,2026-03-17_12h20.23.868,kallum_motion_pilot_GIST_update_2,2026.1.1,Win32,60.24096386,5f4d6c27b03547a378fcb44a,69b92ab4aef6dee357cd729a,69b92ad6cdfd939e2249c997,0.0198,0.0198,0,41,41,87,1,eightseven,,,,,,,,,,,,,,,,,,,,,,,,,,,,,,,,,,,,,,,,,,,,,,,,,,,,,,,,,,,,,,,,,,,,,,,,,,,,,,,,,,,,,,,,,,,,,,,,,,,,,,,,,,,,,,,,,,,,,,,,,,,,,,,,,,,,,,,,,
,,5f4d6c27b03547a378fcb44a,2026-03-17_12h20.23.868,kallum_motion_pilot_GIST_update_2,2026.1.1,Win32,60.24096386,5f4d6c27b03547a378fcb44a,69b92ab4aef6dee357cd729a,69b92ad6cdfd939e2249c997,0.02,0.02,0,42,42,33,1,onethree,,,,,,,,,,,,,,,,,,,,,,,,,,,,,,,,,,,,,,,,,,,,,,,,,,,,,,,,,,,,,,,,,,,,,,,,,,,,,,,,,,,,,,,,,,,,,,,,,,,,,,,,,,,,,,,,,,,,,,,,,,,,,,,,,,,,,,,,,
,,5f4d6c27b03547a378fcb44a,2026-03-17_12h20.23.868,kallum_motion_pilot_GIST_update_2,2026.1.1,Win32,60.24096386,5f4d6c27b03547a378fcb44a,69b92ab4aef6dee357cd729a,69b92ad6cdfd939e2249c997,0.02,0.02,0,43,43,26,1,twoone,,,,,,,,,,,,,,,,,,,,,,,,,,,,,,,,,,,,,,,,,,,,,,,,,,,,,,,,,,,,,,,,,,,,,,,,,,,,,,,,,,,,,,,,,,,,,,,,,,,,,,,,,,,,,,,,,,,,,,,,,,,,,,,,,,,,,,,,,
,,5f4d6c27b03547a378fcb44a,2026-03-17_12h20.23.868,kallum_motion_pilot_GIST_update_2,2026.1.1,Win32,60.24096386,5f4d6c27b03547a378fcb44a,69b92ab4aef6dee357cd729a,69b92ad6cdfd939e2249c997,0.0201,0.0201,0,44,44,32,1,onetwo,,,,,,,,,,,,,,,,,,,,,,,,,,,,,,,,,,,,,,,,,,,,,,,,,,,,,,,,,,,,,,,,,,,,,,,,,,,,,,,,,,,,,,,,,,,,,,,,,,,,,,,,,,,,,,,,,,,,,,,,,,,,,,,,,,,,,,,,,
,,5f4d6c27b03547a378fcb44a,2026-03-17_12h20.23.868,kallum_motion_pilot_GIST_update_2,2026.1.1,Win32,60.24096386,5f4d6c27b03547a378fcb44a,69b92ab4aef6dee357cd729a,69b92ad6cdfd939e2249c997,0.0202,0.0202,0,45,45,69,1,threefour,,,,,,,,,,,,,,,,,,,,,,,,,,,,,,,,,,,,,,,,,,,,,,,,,,,,,,,,,,,,,,,,,,,,,,,,,,,,,,,,,,,,,,,,,,,,,,,,,,,,,,,,,,,,,,,,,,,,,,,,,,,,,,,,,,,,,,,,,
,,5f4d6c27b03547a378fcb44a,2026-03-17_12h20.23.868,kallum_motion_pilot_GIST_update_2,2026.1.1,Win32,60.24096386,5f4d6c27b03547a378fcb44a,69b92ab4aef6dee357cd729a,69b92ad6cdfd939e2249c997,0.0203,0.0203,0,46,46,74,1,twoone,,,,,,,,,,,,,,,,,,,,,,,,,,,,,,,,,,,,,,,,,,,,,,,,,,,,,,,,,,,,,,,,,,,,,,,,,,,,,,,,,,,,,,,,,,,,,,,,,,,,,,,,,,,,,,,,,,,,,,,,,,,,,,,,,,,,,,,,,
,,5f4d6c27b03547a378fcb44a,2026-03-17_12h20.23.868,kallum_motion_pilot_GIST_update_2,2026.1.1,Win32,60.24096386,5f4d6c27b03547a378fcb44a,69b92ab4aef6dee357cd729a,69b92ad6cdfd939e2249c997,0.0203,0.0203,0,47,47,43,1,twofour,,,,,,,,,,,,,,,,,,,,,,,,,,,,,,,,,,,,,,,,,,,,,,,,,,,,,,,,,,,,,,,,,,,,,,,,,,,,,,,,,,,,,,,,,,,,,,,,,,,,,,,,,,,,,,,,,,,,,,,,,,,,,,,,,,,,,,,,,
,,5f4d6c27b03547a378fcb44a,2026-03-17_12h20.23.868,kallum_motion_pilot_GIST_update_2,2026.1.1,Win32,60.24096386,5f4d6c27b03547a378fcb44a,69b92ab4aef6dee357cd729a,69b92ad6cdfd939e2249c997,0.0204,0.0204,0,48,48,124,1,sevenfive,,,,,,,,,,,,,,,,,,,,,,,,,,,,,,,,,,,,,,,,,,,,,,,,,,,,,,,,,,,,,,,,,,,,,,,,,,,,,,,,,,,,,,,,,,,,,,,,,,,,,,,,,,,,,,,,,,,,,,,,,,,,,,,,,,,,,,,,,
,,5f4d6c27b03547a378fcb44a,2026-03-17_12h20.23.868,kallum_motion_pilot_GIST_update_2,2026.1.1,Win32,60.24096386,5f4d6c27b03547a378fcb44a,69b92ab4aef6dee357cd729a,69b92ad6cdfd939e2249c997,0.0205,0.0205,0,49,49,96,1,fivesix,,,,,,,,,,,,,,,,,,,,,,,,,,,,,,,,,,,,,,,,,,,,,,,,,,,,,,,,,,,,,,,,,,,,,,,,,,,,,,,,,,,,,,,,,,,,,,,,,,,,,,,,,,,,,,,,,,,,,,,,,,,,,,,,,,,,,,,,,
,,5f4d6c27b03547a378fcb44a,2026-03-17_12h20.23.868,kallum_motion_pilot_GIST_update_2,2026.1.1,Win32,60.24096386,5f4d6c27b03547a378fcb44a,69b92ab4aef6dee357cd729a,69b92ad6cdfd939e2249c997,0.0205,0.0205,0,50,50,145,1,fiveseven,,,,,,,,,,,,,,,,,,,,,,,,,,,,,,,,,,,,,,,,,,,,,,,,,,,,,,,,,,,,,,,,,,,,,,,,,,,,,,,,,,,,,,,,,,,,,,,,,,,,,,,,,,,,,,,,,,,,,,,,,,,,,,,,,,,,,,,,,
,,5f4d6c27b03547a378fcb44a,2026-03-17_12h20.23.868,kallum_motion_pilot_GIST_update_2,2026.1.1,Win32,60.24096386,5f4d6c27b03547a378fcb44a,69b92ab4aef6dee357cd729a,69b92ad6cdfd939e2249c997,0.0206,0.0206,0,51,51,24,1,onetwo,,,,,,,,,,,,,,,,,,,,,,,,,,,,,,,,,,,,,,,,,,,,,,,,,,,,,,,,,,,,,,,,,,,,,,,,,,,,,,,,,,,,,,,,,,,,,,,,,,,,,,,,,,,,,,,,,,,,,,,,,,,,,,,,,,,,,,,,,
,,5f4d6c27b03547a378fcb44a,2026-03-17_12h20.23.868,kallum_motion_pilot_GIST_update_2,2026.1.1,Win32,60.24096386,5f4d6c27b03547a378fcb44a,69b92ab4aef6dee357cd729a,69b92ad6cdfd939e2249c997,0.0208,0.0208,0,52,52,27,1,twofour,,,,,,,,,,,,,,,,,,,,,,,,,,,,,,,,,,,,,,,,,,,,,,,,,,,,,,,,,,,,,,,,,,,,,,,,,,,,,,,,,,,,,,,,,,,,,,,,,,,,,,,,,,,,,,,,,,,,,,,,,,,,,,,,,,,,,,,,,
,,5f4d6c27b03547a378fcb44a,2026-03-17_12h20.23.868,kallum_motion_pilot_GIST_update_2,2026.1.1,Win32,60.24096386,5f4d6c27b03547a378fcb44a,69b92ab4aef6dee357cd729a,69b92ad6cdfd939e2249c997,0.0208,0.0208,0,53,53,99,1,sixeight,,,,,,,,,,,,,,,,,,,,,,,,,,,,,,,,,,,,,,,,,,,,,,,,,,,,,,,,,,,,,,,,,,,,,,,,,,,,,,,,,,,,,,,,,,,,,,,,,,,,,,,,,,,,,,,,,,,,,,,,,,,,,,,,,,,,,,,,,
,,5f4d6c27b03547a378fcb44a,2026-03-17_12h20.23.868,kallum_motion_pilot_GIST_update_2,2026.1.1,Win32,60.24096386,5f4d6c27b03547a378fcb44a,69b92ab4aef6dee357cd729a,69b92ad6cdfd939e2249c997,0.0209,0.0209,0,54,54,7,1,fourthree,,,,,,,,,,,,,,,,,,,,,,,,,,,,,,,,,,,,,,,,,,,,,,,,,,,,,,,,,,,,,,,,,,,,,,,,,,,,,,,,,,,,,,,,,,,,,,,,,,,,,,,,,,,,,,,,,,,,,,,,,,,,,,,,,,,,,,,,,
,,5f4d6c27b03547a378fcb44a,2026-03-17_12h20.23.868,kallum_motion_pilot_GIST_update_2,2026.1.1,Win32,60.24096386,5f4d6c27b03547a378fcb44a,69b92ab4aef6dee357cd729a,69b92ad6cdfd939e2249c997,0.021,0.021,0,55,55,142,1,eightsix,,,,,,,,,,,,,,,,,,,,,,,,,,,,,,,,,,,,,,,,,,,,,,,,,,,,,,,,,,,,,,,,,,,,,,,,,,,,,,,,,,,,,,,,,,,,,,,,,,,,,,,,,,,,,,,,,,,,,,,,,,,,,,,,,,,,,,,,,
,,5f4d6c27b03547a378fcb44a,2026-03-17_12h20.23.868,kallum_motion_pilot_GIST_update_2,2026.1.1,Win32,60.24096386,5f4d6c27b03547a378fcb44a,69b92ab4aef6dee357cd729a,69b92ad6cdfd939e2249c997,0.021,0.021,0,56,56,112,1,fivesix,,,,,,,,,,,,,,,,,,,,,,,,,,,,,,,,,,,,,,,,,,,,,,,,,,,,,,,,,,,,,,,,,,,,,,,,,,,,,,,,,,,,,,,,,,,,,,,,,,,,,,,,,,,,,,,,,,,,,,,,,,,,,,,,,,,,,,,,,
,,5f4d6c27b03547a378fcb44a,2026-03-17_12h20.23.868,kallum_motion_pilot_GIST_update_2,2026.1.1,Win32,60.24096386,5f4d6c27b03547a378fcb44a,69b92ab4aef6dee357cd729a,69b92ad6cdfd939e2249c997,0.0211,0.0211,0,57,57,52,1,threeone,,,,,,,,,,,,,,,,,,,,,,,,,,,,,,,,,,,,,,,,,,,,,,,,,,,,,,,,,,,,,,,,,,,,,,,,,,,,,,,,,,,,,,,,,,,,,,,,,,,,,,,,,,,,,,,,,,,,,,,,,,,,,,,,,,,,,,,,,
,,5f4d6c27b03547a378fcb44a,2026-03-17_12h20.23.868,kallum_motion_pilot_GIST_update_2,2026.1.1,Win32,60.24096386,5f4d6c27b03547a378fcb44a,69b92ab4aef6dee357cd729a,69b92ad6cdfd939e2249c997,0.0211,0.0211,0,58,58,94,1,eightsix,,,,,,,,,,,,,,,,,,,,,,,,,,,,,,,,,,,,,,,,,,,,,,,,,,,,,,,,,,,,,,,,,,,,,,,,,,,,,,,,,,,,,,,,,,,,,,,,,,,,,,,,,,,,,,,,,,,,,,,,,,,,,,,,,,,,,,,,,
,,5f4d6c27b03547a378fcb44a,2026-03-17_12h20.23.868,kallum_motion_pilot_GIST_update_2,2026.1.1,Win32,60.24096386,5f4d6c27b03547a378fcb44a,69b92ab4aef6dee357cd729a,69b92ad6cdfd939e2249c997,0.0212,0.0212,0,59,59,16,1,onetwo,,,,,,,,,,,,,,,,,,,,,,,,,,,,,,,,,,,,,,,,,,,,,,,,,,,,,,,,,,,,,,,,,,,,,,,,,,,,,,,,,,,,,,,,,,,,,,,,,,,,,,,,,,,,,,,,,,,,,,,,,,,,,,,,,,,,,,,,,
,,5f4d6c27b03547a378fcb44a,2026-03-17_12h20.23.868,kallum_motion_pilot_GIST_update_2,2026.1.1,Win32,60.24096386,5f4d6c27b03547a378fcb44a,69b92ab4aef6dee357cd729a,69b92ad6cdfd939e2249c997,0.0213,0.0213,0,60,60,25,1,onethree,,,,,,,,,,,,,,,,,,,,,,,,,,,,,,,,,,,,,,,,,,,,,,,,,,,,,,,,,,,,,,,,,,,,,,,,,,,,,,,,,,,,,,,,,,,,,,,,,,,,,,,,,,,,,,,,,,,,,,,,,,,,,,,,,,,,,,,,,
,,5f4d6c27b03547a378fcb44a,2026-03-17_12h20.23.868,kallum_motion_pilot_GIST_update_2,2026.1.1,Win32,60.24096386,5f4d6c27b03547a378fcb44a,69b92ab4aef6dee357cd729a,69b92ad6cdfd939e2249c997,0.0214,0.0214,0,61,61,140,1,sevenfive,,,,,,,,,,,,,,,,,,,,,,,,,,,,,,,,,,,,,,,,,,,,,,,,,,,,,,,,,,,,,,,,,,,,,,,,,,,,,,,,,,,,,,,,,,,,,,,,,,,,,,,,,,,,,,,,,,,,,,,,,,,,,,,,,,,,,,,,,
,,5f4d6c27b03547a378fcb44a,2026-03-17_12h20.23.868,kallum_motion_pilot_GIST_update_2,2026.1.1,Win32,60.24096386,5f4d6c27b03547a378fcb44a,69b92ab4aef6dee357cd729a,69b92ad6cdfd939e2249c997,0.0214,0.0214,0,62,62,113,1,fiveseven,,,,,,,,,,,,,,,,,,,,,,,,,,,,,,,,,,,,,,,,,,,,,,,,,,,,,,,,,,,,,,,,,,,,,,,,,,,,,,,,,,,,,,,,,,,,,,,,,,,,,,,,,,,,,,,,,,,,,,,,,,,,,,,,,,,,,,,,,
,,5f4d6c27b03547a378fcb44a,2026-03-17_12h20.23.868,kallum_motion_pilot_GIST_update_2,2026.1.1,Win32,60.24096386,5f4d6c27b03547a378fcb44a,69b92ab4aef6dee357cd729a,69b92ad6cdfd939e2249c997,0.0216,0.0216,0,63,63,137,1,fiveseven,,,,,,,,,,,,,,,,,,,,,,,,,,,,,,,,,,,,,,,,,,,,,,,,,,,,,,,,,,,,,,,,,,,,,,,,,,,,,,,,,,,,,,,,,,,,,,,,,,,,,,,,,,,,,,,,,,,,,,,,,,,,,,,,,,,,,,,,,
,,5f4d6c27b03547a378fcb44a,2026-03-17_12h20.23.868,kallum_motion_pilot_GIST_update_2,2026.1.1,Win32,60.24096386,5f4d6c27b03547a378fcb44a,69b92ab4aef6dee357cd729a,69b92ad6cdfd939e2249c997,0.0217,0.0217,0,64,64,104,1,fivesix,,,,,,,,,,,,,,,,,,,,,,,,,,,,,,,,,,,,,,,,,,,,,,,,,,,,,,,,,,,,,,,,,,,,,,,,,,,,,,,,,,,,,,,,,,,,,,,,,,,,,,,,,,,,,,,,,,,,,,,,,,,,,,,,,,,,,,,,,
,,5f4d6c27b03547a378fcb44a,2026-03-17_12h20.23.868,kallum_motion_pilot_GIST_update_2,2026.1.1,Win32,60.24096386,5f4d6c27b03547a378fcb44a,69b92ab4aef6dee357cd729a,69b92ad6cdfd939e2249c997,0.0218,0.0218,0,65,65,59,1,twofour,,,,,,,,,,,,,,,,,,,,,,,,,,,,,,,,,,,,,,,,,,,,,,,,,,,,,,,,,,,,,,,,,,,,,,,,,,,,,,,,,,,,,,,,,,,,,,,,,,,,,,,,,,,,,,,,,,,,,,,,,,,,,,,,,,,,,,,,,
,,5f4d6c27b03547a378fcb44a,2026-03-17_12h20.23.868,kallum_motion_pilot_GIST_update_2,2026.1.1,Win32,60.24096386,5f4d6c27b03547a378fcb44a,69b92ab4aef6dee357cd729a,69b92ad6cdfd939e2249c997,0.022,0.022,0,66,66,10,1,twoone,,,,,,,,,,,,,,,,,,,,,,,,,,,,,,,,,,,,,,,,,,,,,,,,,,,,,,,,,,,,,,,,,,,,,,,,,,,,,,,,,,,,,,,,,,,,,,,,,,,,,,,,,,,,,,,,,,,,,,,,,,,,,,,,,,,,,,,,,
,,5f4d6c27b03547a378fcb44a,2026-03-17_12h20.23.868,kallum_motion_pilot_GIST_update_2,2026.1.1,Win32,60.24096386,5f4d6c27b03547a378fcb44a,69b92ab4aef6dee357cd729a,69b92ad6cdfd939e2249c997,0.0221,0.0221,0,67,67,97,1,fiveseven,,,,,,,,,,,,,,,,,,,,,,,,,,,,,,,,,,,,,,,,,,,,,,,,,,,,,,,,,,,,,,,,,,,,,,,,,,,,,,,,,,,,,,,,,,,,,,,,,,,,,,,,,,,,,,,,,,,,,,,,,,,,,,,,,,,,,,,,,
,,5f4d6c27b03547a378fcb44a,2026-03-17_12h20.23.868,kallum_motion_pilot_GIST_update_2,2026.1.1,Win32,60.24096386,5f4d6c27b03547a378fcb44a,69b92ab4aef6dee357cd729a,69b92ad6cdfd939e2249c997,0.0221,0.0221,0,68,68,107,1,sixeight,,,,,,,,,,,,,,,,,,,,,,,,,,,,,,,,,,,,,,,,,,,,,,,,,,,,,,,,,,,,,,,,,,,,,,,,,,,,,,,,,,,,,,,,,,,,,,,,,,,,,,,,,,,,,,,,,,,,,,,,,,,,,,,,,,,,,,,,,
,,5f4d6c27b03547a378fcb44a,2026-03-17_12h20.23.868,kallum_motion_pilot_GIST_update_2,2026.1.1,Win32,60.24096386,5f4d6c27b03547a378fcb44a,69b92ab4aef6dee357cd729a,69b92ad6cdfd939e2249c997,0.0222,0.0222,0,69,69,34,1,twoone,,,,,,,,,,,,,,,,,,,,,,,,,,,,,,,,,,,,,,,,,,,,,,,,,,,,,,,,,,,,,,,,,,,,,,,,,,,,,,,,,,,,,,,,,,,,,,,,,,,,,,,,,,,,,,,,,,,,,,,,,,,,,,,,,,,,,,,,,
,,5f4d6c27b03547a378fcb44a,2026-03-17_12h20.23.868,kallum_motion_pilot_GIST_update_2,2026.1.1,Win32,60.24096386,5f4d6c27b03547a378fcb44a,69b92ab4aef6dee357cd729a,69b92ad6cdfd939e2249c997,0.023,0.023,0,70,70,49,1,onethree,,,,,,,,,,,,,,,,,,,,,,,,,,,,,,,,,,,,,,,,,,,,,,,,,,,,,,,,,,,,,,,,,,,,,,,,,,,,,,,,,,,,,,,,,,,,,,,,,,,,,,,,,,,,,,,,,,,,,,,,,,,,,,,,,,,,,,,,,
,,5f4d6c27b03547a378fcb44a,2026-03-17_12h20.23.868,kallum_motion_pilot_GIST_update_2,2026.1.1,Win32,60.24096386,5f4d6c27b03547a378fcb44a,69b92ab4aef6dee357cd729a,69b92ad6cdfd939e2249c997,0.0231,0.0231,0,71,71,5,1,threefour,,,,,,,,,,,,,,,,,,,,,,,,,,,,,,,,,,,,,,,,,,,,,,,,,,,,,,,,,,,,,,,,,,,,,,,,,,,,,,,,,,,,,,,,,,,,,,,,,,,,,,,,,,,,,,,,,,,,,,,,,,,,,,,,,,,,,,,,,
,,5f4d6c27b03547a378fcb44a,2026-03-17_12h20.23.868,kallum_motion_pilot_GIST_update_2,2026.1.1,Win32,60.24096386,5f4d6c27b03547a378fcb44a,69b92ab4aef6dee357cd729a,69b92ad6cdfd939e2249c997,0.0232,0.0232,0,72,72,93,1,seveneight,,,,,,,,,,,,,,,,,,,,,,,,,,,,,,,,,,,,,,,,,,,,,,,,,,,,,,,,,,,,,,,,,,,,,,,,,,,,,,,,,,,,,,,,,,,,,,,,,,,,,,,,,,,,,,,,,,,,,,,,,,,,,,,,,,,,,,,,,
,,5f4d6c27b03547a378fcb44a,2026-03-17_12h20.23.868,kallum_motion_pilot_GIST_update_2,2026.1.1,Win32,60.24096386,5f4d6c27b03547a378fcb44a,69b92ab4aef6dee357cd729a,69b92ad6cdfd939e2249c997,0.0233,0.0233,0,73,73,55,1,fourthree,,,,,,,,,,,,,,,,,,,,,,,,,,,,,,,,,,,,,,,,,,,,,,,,,,,,,,,,,,,,,,,,,,,,,,,,,,,,,,,,,,,,,,,,,,,,,,,,,,,,,,,,,,,,,,,,,,,,,,,,,,,,,,,,,,,,,,,,,
,,5f4d6c27b03547a378fcb44a,2026-03-17_12h20.23.868,kallum_motion_pilot_GIST_update_2,2026.1.1,Win32,60.24096386,5f4d6c27b03547a378fcb44a,69b92ab4aef6dee357cd729a,69b92ad6cdfd939e2249c997,0.0234,0.0234,0,74,74,103,1,eightseven,,,,,,,,,,,,,,,,,,,,,,,,,,,,,,,,,,,,,,,,,,,,,,,,,,,,,,,,,,,,,,,,,,,,,,,,,,,,,,,,,,,,,,,,,,,,,,,,,,,,,,,,,,,,,,,,,,,,,,,,,,,,,,,,,,,,,,,,,
,,5f4d6c27b03547a378fcb44a,2026-03-17_12h20.23.868,kallum_motion_pilot_GIST_update_2,2026.1.1,Win32,60.24096386,5f4d6c27b03547a378fcb44a,69b92ab4aef6dee357cd729a,69b92ad6cdfd939e2249c997,0.0234,0.0234,0,75,75,158,1,eightsix,,,,,,,,,,,,,,,,,,,,,,,,,,,,,,,,,,,,,,,,,,,,,,,,,,,,,,,,,,,,,,,,,,,,,,,,,,,,,,,,,,,,,,,,,,,,,,,,,,,,,,,,,,,,,,,,,,,,,,,,,,,,,,,,,,,,,,,,,
,,5f4d6c27b03547a378fcb44a,2026-03-17_12h20.23.868,kallum_motion_pilot_GIST_update_2,2026.1.1,Win32,60.24096386,5f4d6c27b03547a378fcb44a,69b92ab4aef6dee357cd729a,69b92ad6cdfd939e2249c997,0.0235,0.0235,0,76,76,35,1,twofour,,,,,,,,,,,,,,,,,,,,,,,,,,,,,,,,,,,,,,,,,,,,,,,,,,,,,,,,,,,,,,,,,,,,,,,,,,,,,,,,,,,,,,,,,,,,,,,,,,,,,,,,,,,,,,,,,,,,,,,,,,,,,,,,,,,,,,,,,
,,5f4d6c27b03547a378fcb44a,2026-03-17_12h20.23.868,kallum_motion_pilot_GIST_update_2,2026.1.1,Win32,60.24096386,5f4d6c27b03547a378fcb44a,69b92ab4aef6dee357cd729a,69b92ad6cdfd939e2249c997,0.0236,0.0236,0,77,77,23,1,fourthree,,,,,,,,,,,,,,,,,,,,,,,,,,,,,,,,,,,,,,,,,,,,,,,,,,,,,,,,,,,,,,,,,,,,,,,,,,,,,,,,,,,,,,,,,,,,,,,,,,,,,,,,,,,,,,,,,,,,,,,,,,,,,,,,,,,,,,,,,
,,5f4d6c27b03547a378fcb44a,2026-03-17_12h20.23.868,kallum_motion_pilot_GIST_update_2,2026.1.1,Win32,60.24096386,5f4d6c27b03547a378fcb44a,69b92ab4aef6dee357cd729a,69b92ad6cdfd939e2249c997,0.0237,0.0237,0,78,78,127,1,eightseven,,,,,,,,,,,,,,,,,,,,,,,,,,,,,,,,,,,,,,,,,,,,,,,,,,,,,,,,,,,,,,,,,,,,,,,,,,,,,,,,,,,,,,,,,,,,,,,,,,,,,,,,,,,,,,,,,,,,,,,,,,,,,,,,,,,,,,,,,
,,5f4d6c27b03547a378fcb44a,2026-03-17_12h20.23.868,kallum_motion_pilot_GIST_update_2,2026.1.1,Win32,60.24096386,5f4d6c27b03547a378fcb44a,69b92ab4aef6dee357cd729a,69b92ad6cdfd939e2249c997,0.0238,0.0238,0,79,79,41,1,onethree,,,,,,,,,,,,,,,,,,,,,,,,,,,,,,,,,,,,,,,,,,,,,,,,,,,,,,,,,,,,,,,,,,,,,,,,,,,,,,,,,,,,,,,,,,,,,,,,,,,,,,,,,,,,,,,,,,,,,,,,,,,,,,,,,,,,,,,,,
,,5f4d6c27b03547a378fcb44a,2026-03-17_12h20.23.868,kallum_motion_pilot_GIST_update_2,2026.1.1,Win32,60.24096386,5f4d6c27b03547a378fcb44a,69b92ab4aef6dee357cd729a,69b92ad6cdfd939e2249c997,0.0238,0.0238,0,80,80,125,1,seveneight,,,,,,,,,,,,,,,,,,,,,,,,,,,,,,,,,,,,,,,,,,,,,,,,,,,,,,,,,,,,,,,,,,,,,,,,,,,,,,,,,,,,,,,,,,,,,,,,,,,,,,,,,,,,,,,,,,,,,,,,,,,,,,,,,,,,,,,,,
,,5f4d6c27b03547a378fcb44a,2026-03-17_12h20.23.868,kallum_motion_pilot_GIST_update_2,2026.1.1,Win32,60.24096386,5f4d6c27b03547a378fcb44a,69b92ab4aef6dee357cd729a,69b92ad6cdfd939e2249c997,0.0239,0.0239,0,81,81,130,1,sixfive,,,,,,,,,,,,,,,,,,,,,,,,,,,,,,,,,,,,,,,,,,,,,,,,,,,,,,,,,,,,,,,,,,,,,,,,,,,,,,,,,,,,,,,,,,,,,,,,,,,,,,,,,,,,,,,,,,,,,,,,,,,,,,,,,,,,,,,,,
,,5f4d6c27b03547a378fcb44a,2026-03-17_12h20.23.868,kallum_motion_pilot_GIST_update_2,2026.1.1,Win32,60.24096386,5f4d6c27b03547a378fcb44a,69b92ab4aef6dee357cd729a,69b92ad6cdfd939e2249c997,0.0239,0.024,0,82,82,161,1,fiveseven,,,,,,,,,,,,,,,,,,,,,,,,,,,,,,,,,,,,,,,,,,,,,,,,,,,,,,,,,,,,,,,,,,,,,,,,,,,,,,,,,,,,,,,,,,,,,,,,,,,,,,,,,,,,,,,,,,,,,,,,,,,,,,,,,,,,,,,,,
,,5f4d6c27b03547a378fcb44a,2026-03-17_12h20.23.868,kallum_motion_pilot_GIST_update_2,2026.1.1,Win32,60.24096386,5f4d6c27b03547a378fcb44a,69b92ab4aef6dee357cd729a,69b92ad6cdfd939e2249c997,0.0241,0.0241,0,83,83,37,1,threefour,,,,,,,,,,,,,,,,,,,,,,,,,,,,,,,,,,,,,,,,,,,,,,,,,,,,,,,,,,,,,,,,,,,,,,,,,,,,,,,,,,,,,,,,,,,,,,,,,,,,,,,,,,,,,,,,,,,,,,,,,,,,,,,,,,,,,,,,,
,,5f4d6c27b03547a378fcb44a,2026-03-17_12h20.23.868,kallum_motion_pilot_GIST_update_2,2026.1.1,Win32,60.24096386,5f4d6c27b03547a378fcb44a,69b92ab4aef6dee357cd729a,69b92ad6cdfd939e2249c997,0.0241,0.0241,0,84,84,123,1,sixeight,,,,,,,,,,,,,,,,,,,,,,,,,,,,,,,,,,,,,,,,,,,,,,,,,,,,,,,,,,,,,,,,,,,,,,,,,,,,,,,,,,,,,,,,,,,,,,,,,,,,,,,,,,,,,,,,,,,,,,,,,,,,,,,,,,,,,,,,,
,,5f4d6c27b03547a378fcb44a,2026-03-17_12h20.23.868,kallum_motion_pilot_GIST_update_2,2026.1.1,Win32,60.24096386,5f4d6c27b03547a378fcb44a,69b92ab4aef6dee357cd729a,69b92ad6cdfd939e2249c997,0.0242,0.0242,0,85,85,84,1,sevenfive,,,,,,,,,,,,,,,,,,,,,,,,,,,,,,,,,,,,,,,,,,,,,,,,,,,,,,,,,,,,,,,,,,,,,,,,,,,,,,,,,,,,,,,,,,,,,,,,,,,,,,,,,,,,,,,,,,,,,,,,,,,,,,,,,,,,,,,,,
,,5f4d6c27b03547a378fcb44a,2026-03-17_12h20.23.868,kallum_motion_pilot_GIST_update_2,2026.1.1,Win32,60.24096386,5f4d6c27b03547a378fcb44a,69b92ab4aef6dee357cd729a,69b92ad6cdfd939e2249c997,0.0243,0.0243,0,86,86,66,1,twoone,,,,,,,,,,,,,,,,,,,,,,,,,,,,,,,,,,,,,,,,,,,,,,,,,,,,,,,,,,,,,,,,,,,,,,,,,,,,,,,,,,,,,,,,,,,,,,,,,,,,,,,,,,,,,,,,,,,,,,,,,,,,,,,,,,,,,,,,,
,,5f4d6c27b03547a378fcb44a,2026-03-17_12h20.23.868,kallum_motion_pilot_GIST_update_2,2026.1.1,Win32,60.24096386,5f4d6c27b03547a378fcb44a,69b92ab4aef6dee357cd729a,69b92ad6cdfd939e2249c997,0.0243,0.0244,0,87,87,38,1,fourtwo,,,,,,,,,,,,,,,,,,,,,,,,,,,,,,,,,,,,,,,,,,,,,,,,,,,,,,,,,,,,,,,,,,,,,,,,,,,,,,,,,,,,,,,,,,,,,,,,,,,,,,,,,,,,,,,,,,,,,,,,,,,,,,,,,,,,,,,,,
,,5f4d6c27b03547a378fcb44a,2026-03-17_12h20.23.868,kallum_motion_pilot_GIST_update_2,2026.1.1,Win32,60.24096386,5f4d6c27b03547a378fcb44a,69b92ab4aef6dee357cd729a,69b92ad6cdfd939e2249c997,0.0244,0.0244,0,88,88,153,1,fiveseven,,,,,,,,,,,,,,,,,,,,,,,,,,,,,,,,,,,,,,,,,,,,,,,,,,,,,,,,,,,,,,,,,,,,,,,,,,,,,,,,,,,,,,,,,,,,,,,,,,,,,,,,,,,,,,,,,,,,,,,,,,,,,,,,,,,,,,,,,
,,5f4d6c27b03547a378fcb44a,2026-03-17_12h20.23.868,kallum_motion_pilot_GIST_update_2,2026.1.1,Win32,60.24096386,5f4d6c27b03547a378fcb44a,69b92ab4aef6dee357cd729a,69b92ad6cdfd939e2249c997,0.0245,0.0245,0,89,89,109,1,seveneight,,,,,,,,,,,,,,,,,,,,,,,,,,,,,,,,,,,,,,,,,,,,,,,,,,,,,,,,,,,,,,,,,,,,,,,,,,,,,,,,,,,,,,,,,,,,,,,,,,,,,,,,,,,,,,,,,,,,,,,,,,,,,,,,,,,,,,,,,
,,5f4d6c27b03547a378fcb44a,2026-03-17_12h20.23.868,kallum_motion_pilot_GIST_update_2,2026.1.1,Win32,60.24096386,5f4d6c27b03547a378fcb44a,69b92ab4aef6dee357cd729a,69b92ad6cdfd939e2249c997,0.0246,0.0246,0,90,90,46,1,fourtwo,,,,,,,,,,,,,,,,,,,,,,,,,,,,,,,,,,,,,,,,,,,,,,,,,,,,,,,,,,,,,,,,,,,,,,,,,,,,,,,,,,,,,,,,,,,,,,,,,,,,,,,,,,,,,,,,,,,,,,,,,,,,,,,,,,,,,,,,,
,,5f4d6c27b03547a378fcb44a,2026-03-17_12h20.23.868,kallum_motion_pilot_GIST_update_2,2026.1.1,Win32,60.24096386,5f4d6c27b03547a378fcb44a,69b92ab4aef6dee357cd729a,69b92ad6cdfd939e2249c997,0.0247,0.0247,0,91,91,2,1,twoone,,,,,,,,,,,,,,,,,,,,,,,,,,,,,,,,,,,,,,,,,,,,,,,,,,,,,,,,,,,,,,,,,,,,,,,,,,,,,,,,,,,,,,,,,,,,,,,,,,,,,,,,,,,,,,,,,,,,,,,,,,,,,,,,,,,,,,,,,
,,5f4d6c27b03547a378fcb44a,2026-03-17_12h20.23.868,kallum_motion_pilot_GIST_update_2,2026.1.1,Win32,60.24096386,5f4d6c27b03547a378fcb44a,69b92ab4aef6dee357cd729a,69b92ad6cdfd939e2249c997,0.0248,0.0248,0,92,92,155,1,sixeight,,,,,,,,,,,,,,,,,,,,,,,,,,,,,,,,,,,,,,,,,,,,,,,,,,,,,,,,,,,,,,,,,,,,,,,,,,,,,,,,,,,,,,,,,,,,,,,,,,,,,,,,,,,,,,,,,,,,,,,,,,,,,,,,,,,,,,,,,
,,5f4d6c27b03547a378fcb44a,2026-03-17_12h20.23.868,kallum_motion_pilot_GIST_update_2,2026.1.1,Win32,60.24096386,5f4d6c27b03547a378fcb44a,69b92ab4aef6dee357cd729a,69b92ad6cdfd939e2249c997,0.0248,0.0248,0,93,93,83,1,sixeight,,,,,,,,,,,,,,,,,,,,,,,,,,,,,,,,,,,,,,,,,,,,,,,,,,,,,,,,,,,,,,,,,,,,,,,,,,,,,,,,,,,,,,,,,,,,,,,,,,,,,,,,,,,,,,,,,,,,,,,,,,,,,,,,,,,,,,,,,
,,5f4d6c27b03547a378fcb44a,2026-03-17_12h20.23.868,kallum_motion_pilot_GIST_update_2,2026.1.1,Win32,60.24096386,5f4d6c27b03547a378fcb44a,69b92ab4aef6dee357cd729a,69b92ad6cdfd939e2249c997,0.0249,0.0249,0,94,94,160,1,fivesix,,,,,,,,,,,,,,,,,,,,,,,,,,,,,,,,,,,,,,,,,,,,,,,,,,,,,,,,,,,,,,,,,,,,,,,,,,,,,,,,,,,,,,,,,,,,,,,,,,,,,,,,,,,,,,,,,,,,,,,,,,,,,,,,,,,,,,,,,
,,5f4d6c27b03547a378fcb44a,2026-03-17_12h20.23.868,kallum_motion_pilot_GIST_update_2,2026.1.1,Win32,60.24096386,5f4d6c27b03547a378fcb44a,69b92ab4aef6dee357cd729a,69b92ad6cdfd939e2249c997,0.0249,0.0249,0,95,95,136,1,fivesix,,,,,,,,,,,,,,,,,,,,,,,,,,,,,,,,,,,,,,,,,,,,,,,,,,,,,,,,,,,,,,,,,,,,,,,,,,,,,,,,,,,,,,,,,,,,,,,,,,,,,,,,,,,,,,,,,,,,,,,,,,,,,,,,,,,,,,,,,
,,5f4d6c27b03547a378fcb44a,2026-03-17_12h20.23.868,kallum_motion_pilot_GIST_update_2,2026.1.1,Win32,60.24096386,5f4d6c27b03547a378fcb44a,69b92ab4aef6dee357cd729a,69b92ad6cdfd939e2249c997,0.0251,0.0251,0,96,96,144,1,fivesix,,,,,,,,,,,,,,,,,,,,,,,,,,,,,,,,,,,,,,,,,,,,,,,,,,,,,,,,,,,,,,,,,,,,,,,,,,,,,,,,,,,,,,,,,,,,,,,,,,,,,,,,,,,,,,,,,,,,,,,,,,,,,,,,,,,,,,,,,
,,5f4d6c27b03547a378fcb44a,2026-03-17_12h20.23.868,kallum_motion_pilot_GIST_update_2,2026.1.1,Win32,60.24096386,5f4d6c27b03547a378fcb44a,69b92ab4aef6dee357cd729a,69b92ad6cdfd939e2249c997,0.0252,0.0252,0,97,97,108,1,sevenfive,,,,,,,,,,,,,,,,,,,,,,,,,,,,,,,,,,,,,,,,,,,,,,,,,,,,,,,,,,,,,,,,,,,,,,,,,,,,,,,,,,,,,,,,,,,,,,,,,,,,,,,,,,,,,,,,,,,,,,,,,,,,,,,,,,,,,,,,,
,,5f4d6c27b03547a378fcb44a,2026-03-17_12h20.23.868,kallum_motion_pilot_GIST_update_2,2026.1.1,Win32,60.24096386,5f4d6c27b03547a378fcb44a,69b92ab4aef6dee357cd729a,69b92ad6cdfd939e2249c997,0.0252,0.0252,0,98,98,57,1,onethree,,,,,,,,,,,,,,,,,,,,,,,,,,,,,,,,,,,,,,,,,,,,,,,,,,,,,,,,,,,,,,,,,,,,,,,,,,,,,,,,,,,,,,,,,,,,,,,,,,,,,,,,,,,,,,,,,,,,,,,,,,,,,,,,,,,,,,,,,
,,5f4d6c27b03547a378fcb44a,2026-03-17_12h20.23.868,kallum_motion_pilot_GIST_update_2,2026.1.1,Win32,60.24096386,5f4d6c27b03547a378fcb44a,69b92ab4aef6dee357cd729a,69b92ad6cdfd939e2249c997,0.0253,0.0253,0,99,99,148,1,sevenfive,,,,,,,,,,,,,,,,,,,,,,,,,,,,,,,,,,,,,,,,,,,,,,,,,,,,,,,,,,,,,,,,,,,,,,,,,,,,,,,,,,,,,,,,,,,,,,,,,,,,,,,,,,,,,,,,,,,,,,,,,,,,,,,,,,,,,,,,,
,,5f4d6c27b03547a378fcb44a,2026-03-17_12h20.23.868,kallum_motion_pilot_GIST_update_2,2026.1.1,Win32,60.24096386,5f4d6c27b03547a378fcb44a,69b92ab4aef6dee357cd729a,69b92ad6cdfd939e2249c997,0.0254,0.0254,0,100,100,156,1,sevenfive,,,,,,,,,,,,,,,,,,,,,,,,,,,,,,,,,,,,,,,,,,,,,,,,,,,,,,,,,,,,,,,,,,,,,,,,,,,,,,,,,,,,,,,,,,,,,,,,,,,,,,,,,,,,,,,,,,,,,,,,,,,,,,,,,,,,,,,,,
,,5f4d6c27b03547a378fcb44a,2026-03-17_12h20.23.868,kallum_motion_pilot_GIST_update_2,2026.1.1,Win32,60.24096386,5f4d6c27b03547a378fcb44a,69b92ab4aef6dee357cd729a,69b92ad6cdfd939e2249c997,0.0255,0.0255,0,101,101,54,1,fourtwo,,,,,,,,,,,,,,,,,,,,,,,,,,,,,,,,,,,,,,,,,,,,,,,,,,,,,,,,,,,,,,,,,,,,,,,,,,,,,,,,,,,,,,,,,,,,,,,,,,,,,,,,,,,,,,,,,,,,,,,,,,,,,,,,,,,,,,,,,
,,5f4d6c27b03547a378fcb44a,2026-03-17_12h20.23.868,kallum_motion_pilot_GIST_update_2,2026.1.1,Win32,60.24096386,5f4d6c27b03547a378fcb44a,69b92ab4aef6dee357cd729a,69b92ad6cdfd939e2249c997,0.0255,0.0255,0,102,102,14,1,fourtwo,,,,,,,,,,,,,,,,,,,,,,,,,,,,,,,,,,,,,,,,,,,,,,,,,,,,,,,,,,,,,,,,,,,,,,,,,,,,,,,,,,,,,,,,,,,,,,,,,,,,,,,,,,,,,,,,,,,,,,,,,,,,,,,,,,,,,,,,,
,,5f4d6c27b03547a378fcb44a,2026-03-17_12h20.23.868,kallum_motion_pilot_GIST_update_2,2026.1.1,Win32,60.24096386,5f4d6c27b03547a378fcb44a,69b92ab4aef6dee357cd729a,69b92ad6cdfd939e2249c997,0.0256,0.0256,0,103,103,19,1,twofour,,,,,,,,,,,,,,,,,,,,,,,,,,,,,,,,,,,,,,,,,,,,,,,,,,,,,,,,,,,,,,,,,,,,,,,,,,,,,,,,,,,,,,,,,,,,,,,,,,,,,,,,,,,,,,,,,,,,,,,,,,,,,,,,,,,,,,,,,
,,5f4d6c27b03547a378fcb44a,2026-03-17_12h20.23.868,kallum_motion_pilot_GIST_update_2,2026.1.1,Win32,60.24096386,5f4d6c27b03547a378fcb44a,69b92ab4aef6dee357cd729a,69b92ad6cdfd939e2249c997,0.0257,0.0257,0,104,104,12,1,threeone,,,,,,,,,,,,,,,,,,,,,,,,,,,,,,,,,,,,,,,,,,,,,,,,,,,,,,,,,,,,,,,,,,,,,,,,,,,,,,,,,,,,,,,,,,,,,,,,,,,,,,,,,,,,,,,,,,,,,,,,,,,,,,,,,,,,,,,,,
,,5f4d6c27b03547a378fcb44a,2026-03-17_12h20.23.868,kallum_motion_pilot_GIST_update_2,2026.1.1,Win32,60.24096386,5f4d6c27b03547a378fcb44a,69b92ab4aef6dee357cd729a,69b92ad6cdfd939e2249c997,0.0258,0.0258,0,105,105,60,1,threeone,,,,,,,,,,,,,,,,,,,,,,,,,,,,,,,,,,,,,,,,,,,,,,,,,,,,,,,,,,,,,,,,,,,,,,,,,,,,,,,,,,,,,,,,,,,,,,,,,,,,,,,,,,,,,,,,,,,,,,,,,,,,,,,,,,,,,,,,,
,,5f4d6c27b03547a378fcb44a,2026-03-17_12h20.23.868,kallum_motion_pilot_GIST_update_2,2026.1.1,Win32,60.24096386,5f4d6c27b03547a378fcb44a,69b92ab4aef6dee357cd729a,69b92ad6cdfd939e2249c997,0.0259,0.0259,0,106,106,70,1,fourtwo,,,,,,,,,,,,,,,,,,,,,,,,,,,,,,,,,,,,,,,,,,,,,,,,,,,,,,,,,,,,,,,,,,,,,,,,,,,,,,,,,,,,,,,,,,,,,,,,,,,,,,,,,,,,,,,,,,,,,,,,,,,,,,,,,,,,,,,,,
,,5f4d6c27b03547a378fcb44a,2026-03-17_12h20.23.868,kallum_motion_pilot_GIST_update_2,2026.1.1,Win32,60.24096386,5f4d6c27b03547a378fcb44a,69b92ab4aef6dee357cd729a,69b92ad6cdfd939e2249c997,0.026,0.026,0,107,107,11,1,twofour,,,,,,,,,,,,,,,,,,,,,,,,,,,,,,,,,,,,,,,,,,,,,,,,,,,,,,,,,,,,,,,,,,,,,,,,,,,,,,,,,,,,,,,,,,,,,,,,,,,,,,,,,,,,,,,,,,,,,,,,,,,,,,,,,,,,,,,,,
,,5f4d6c27b03547a378fcb44a,2026-03-17_12h20.23.868,kallum_motion_pilot_GIST_update_2,2026.1.1,Win32,60.24096386,5f4d6c27b03547a378fcb44a,69b92ab4aef6dee357cd729a,69b92ad6cdfd939e2249c997,0.0261,0.0261,0,108,108,149,1,seveneight,,,,,,,,,,,,,,,,,,,,,,,,,,,,,,,,,,,,,,,,,,,,,,,,,,,,,,,,,,,,,,,,,,,,,,,,,,,,,,,,,,,,,,,,,,,,,,,,,,,,,,,,,,,,,,,,,,,,,,,,,,,,,,,,,,,,,,,,,
,,5f4d6c27b03547a378fcb44a,2026-03-17_12h20.23.868,kallum_motion_pilot_GIST_update_2,2026.1.1,Win32,60.24096386,5f4d6c27b03547a378fcb44a,69b92ab4aef6dee357cd729a,69b92ad6cdfd939e2249c997,0.0261,0.0261,0,109,109,150,1,eightsix,,,,,,,,,,,,,,,,,,,,,,,,,,,,,,,,,,,,,,,,,,,,,,,,,,,,,,,,,,,,,,,,,,,,,,,,,,,,,,,,,,,,,,,,,,,,,,,,,,,,,,,,,,,,,,,,,,,,,,,,,,,,,,,,,,,,,,,,,
,,5f4d6c27b03547a378fcb44a,2026-03-17_12h20.23.868,kallum_motion_pilot_GIST_update_2,2026.1.1,Win32,60.24096386,5f4d6c27b03547a378fcb44a,69b92ab4aef6dee357cd729a,69b92ad6cdfd939e2249c997,0.0262,0.0262,0,110,110,61,1,threefour,,,,,,,,,,,,,,,,,,,,,,,,,,,,,,,,,,,,,,,,,,,,,,,,,,,,,,,,,,,,,,,,,,,,,,,,,,,,,,,,,,,,,,,,,,,,,,,,,,,,,,,,,,,,,,,,,,,,,,,,,,,,,,,,,,,,,,,,,
,,5f4d6c27b03547a378fcb44a,2026-03-17_12h20.23.868,kallum_motion_pilot_GIST_update_2,2026.1.1,Win32,60.24096386,5f4d6c27b03547a378fcb44a,69b92ab4aef6dee357cd729a,69b92ad6cdfd939e2249c997,0.0263,0.0263,0,111,111,15,1,fourthree,,,,,,,,,,,,,,,,,,,,,,,,,,,,,,,,,,,,,,,,,,,,,,,,,,,,,,,,,,,,,,,,,,,,,,,,,,,,,,,,,,,,,,,,,,,,,,,,,,,,,,,,,,,,,,,,,,,,,,,,,,,,,,,,,,,,,,,,,
,,5f4d6c27b03547a378fcb44a,2026-03-17_12h20.23.868,kallum_motion_pilot_GIST_update_2,2026.1.1,Win32,60.24096386,5f4d6c27b03547a378fcb44a,69b92ab4aef6dee357cd729a,69b92ad6cdfd939e2249c997,0.0264,0.0264,0,112,112,64,1,onetwo,,,,,,,,,,,,,,,,,,,,,,,,,,,,,,,,,,,,,,,,,,,,,,,,,,,,,,,,,,,,,,,,,,,,,,,,,,,,,,,,,,,,,,,,,,,,,,,,,,,,,,,,,,,,,,,,,,,,,,,,,,,,,,,,,,,,,,,,,
,,5f4d6c27b03547a378fcb44a,2026-03-17_12h20.23.868,kallum_motion_pilot_GIST_update_2,2026.1.1,Win32,60.24096386,5f4d6c27b03547a378fcb44a,69b92ab4aef6dee357cd729a,69b92ad6cdfd939e2249c997,0.0264,0.0264,0,113,113,105,1,fiveseven,,,,,,,,,,,,,,,,,,,,,,,,,,,,,,,,,,,,,,,,,,,,,,,,,,,,,,,,,,,,,,,,,,,,,,,,,,,,,,,,,,,,,,,,,,,,,,,,,,,,,,,,,,,,,,,,,,,,,,,,,,,,,,,,,,,,,,,,,
,,5f4d6c27b03547a378fcb44a,2026-03-17_12h20.23.868,kallum_motion_pilot_GIST_update_2,2026.1.1,Win32,60.24096386,5f4d6c27b03547a378fcb44a,69b92ab4aef6dee357cd729a,69b92ad6cdfd939e2249c997,0.0265,0.0265,0,114,114,51,1,twofour,,,,,,,,,,,,,,,,,,,,,,,,,,,,,,,,,,,,,,,,,,,,,,,,,,,,,,,,,,,,,,,,,,,,,,,,,,,,,,,,,,,,,,,,,,,,,,,,,,,,,,,,,,,,,,,,,,,,,,,,,,,,,,,,,,,,,,,,,
,,5f4d6c27b03547a378fcb44a,2026-03-17_12h20.23.868,kallum_motion_pilot_GIST_update_2,2026.1.1,Win32,60.24096386,5f4d6c27b03547a378fcb44a,69b92ab4aef6dee357cd729a,69b92ad6cdfd939e2249c997,0.0266,0.0266,0,115,115,90,1,sixfive,,,,,,,,,,,,,,,,,,,,,,,,,,,,,,,,,,,,,,,,,,,,,,,,,,,,,,,,,,,,,,,,,,,,,,,,,,,,,,,,,,,,,,,,,,,,,,,,,,,,,,,,,,,,,,,,,,,,,,,,,,,,,,,,,,,,,,,,,
,,5f4d6c27b03547a378fcb44a,2026-03-17_12h20.23.868,kallum_motion_pilot_GIST_update_2,2026.1.1,Win32,60.24096386,5f4d6c27b03547a378fcb44a,69b92ab4aef6dee357cd729a,69b92ad6cdfd939e2249c997,0.0267,0.0267,0,116,116,133,1,seveneight,,,,,,,,,,,,,,,,,,,,,,,,,,,,,,,,,,,,,,,,,,,,,,,,,,,,,,,,,,,,,,,,,,,,,,,,,,,,,,,,,,,,,,,,,,,,,,,,,,,,,,,,,,,,,,,,,,,,,,,,,,,,,,,,,,,,,,,,,
,,5f4d6c27b03547a378fcb44a,2026-03-17_12h20.23.868,kallum_motion_pilot_GIST_update_2,2026.1.1,Win32,60.24096386,5f4d6c27b03547a378fcb44a,69b92ab4aef6dee357cd729a,69b92ad6cdfd939e2249c997,0.0268,0.0268,0,117,117,28,1,threeone,,,,,,,,,,,,,,,,,,,,,,,,,,,,,,,,,,,,,,,,,,,,,,,,,,,,,,,,,,,,,,,,,,,,,,,,,,,,,,,,,,,,,,,,,,,,,,,,,,,,,,,,,,,,,,,,,,,,,,,,,,,,,,,,,,,,,,,,,
,,5f4d6c27b03547a378fcb44a,2026-03-17_12h20.23.868,kallum_motion_pilot_GIST_update_2,2026.1.1,Win32,60.24096386,5f4d6c27b03547a378fcb44a,69b92ab4aef6dee357cd729a,69b92ad6cdfd939e2249c997,0.0268,0.0268,0,118,118,117,1,seveneight,,,,,,,,,,,,,,,,,,,,,,,,,,,,,,,,,,,,,,,,,,,,,,,,,,,,,,,,,,,,,,,,,,,,,,,,,,,,,,,,,,,,,,,,,,,,,,,,,,,,,,,,,,,,,,,,,,,,,,,,,,,,,,,,,,,,,,,,,
,,5f4d6c27b03547a378fcb44a,2026-03-17_12h20.23.868,kallum_motion_pilot_GIST_update_2,2026.1.1,Win32,60.24096386,5f4d6c27b03547a378fcb44a,69b92ab4aef6dee357cd729a,69b92ad6cdfd939e2249c997,0.027,0.027,0,119,119,141,1,seveneight,,,,,,,,,,,,,,,,,,,,,,,,,,,,,,,,,,,,,,,,,,,,,,,,,,,,,,,,,,,,,,,,,,,,,,,,,,,,,,,,,,,,,,,,,,,,,,,,,,,,,,,,,,,,,,,,,,,,,,,,,,,,,,,,,,,,,,,,,
,,5f4d6c27b03547a378fcb44a,2026-03-17_12h20.23.868,kallum_motion_pilot_GIST_update_2,2026.1.1,Win32,60.24096386,5f4d6c27b03547a378fcb44a,69b92ab4aef6dee357cd729a,69b92ad6cdfd939e2249c997,0.027,0.027,0,120,120,122,1,sixfive,,,,,,,,,,,,,,,,,,,,,,,,,,,,,,,,,,,,,,,,,,,,,,,,,,,,,,,,,,,,,,,,,,,,,,,,,,,,,,,,,,,,,,,,,,,,,,,,,,,,,,,,,,,,,,,,,,,,,,,,,,,,,,,,,,,,,,,,,
,,5f4d6c27b03547a378fcb44a,2026-03-17_12h20.23.868,kallum_motion_pilot_GIST_update_2,2026.1.1,Win32,60.24096386,5f4d6c27b03547a378fcb44a,69b92ab4aef6dee357cd729a,69b92ad6cdfd939e2249c997,0.027,0.027,0,121,121,29,1,threefour,,,,,,,,,,,,,,,,,,,,,,,,,,,,,,,,,,,,,,,,,,,,,,,,,,,,,,,,,,,,,,,,,,,,,,,,,,,,,,,,,,,,,,,,,,,,,,,,,,,,,,,,,,,,,,,,,,,,,,,,,,,,,,,,,,,,,,,,,
,,5f4d6c27b03547a378fcb44a,2026-03-17_12h20.23.868,kallum_motion_pilot_GIST_update_2,2026.1.1,Win32,60.24096386,5f4d6c27b03547a378fcb44a,69b92ab4aef6dee357cd729a,69b92ad6cdfd939e2249c997,0.0272,0.0272,0,122,122,101,1,seveneight,,,,,,,,,,,,,,,,,,,,,,,,,,,,,,,,,,,,,,,,,,,,,,,,,,,,,,,,,,,,,,,,,,,,,,,,,,,,,,,,,,,,,,,,,,,,,,,,,,,,,,,,,,,,,,,,,,,,,,,,,,,,,,,,,,,,,,,,,
,,5f4d6c27b03547a378fcb44a,2026-03-17_12h20.23.868,kallum_motion_pilot_GIST_update_2,2026.1.1,Win32,60.24096386,5f4d6c27b03547a378fcb44a,69b92ab4aef6dee357cd729a,69b92ad6cdfd939e2249c997,0.0272,0.0272,0,123,123,115,1,sixeight,,,,,,,,,,,,,,,,,,,,,,,,,,,,,,,,,,,,,,,,,,,,,,,,,,,,,,,,,,,,,,,,,,,,,,,,,,,,,,,,,,,,,,,,,,,,,,,,,,,,,,,,,,,,,,,,,,,,,,,,,,,,,,,,,,,,,,,,,
,,5f4d6c27b03547a378fcb44a,2026-03-17_12h20.23.868,kallum_motion_pilot_GIST_update_2,2026.1.1,Win32,60.24096386,5f4d6c27b03547a378fcb44a,69b92ab4aef6dee357cd729a,69b92ad6cdfd939e2249c997,0.0273,0.0273,0,124,124,151,1,eightseven,,,,,,,,,,,,,,,,,,,,,,,,,,,,,,,,,,,,,,,,,,,,,,,,,,,,,,,,,,,,,,,,,,,,,,,,,,,,,,,,,,,,,,,,,,,,,,,,,,,,,,,,,,,,,,,,,,,,,,,,,,,,,,,,,,,,,,,,,
,,5f4d6c27b03547a378fcb44a,2026-03-17_12h20.23.868,kallum_motion_pilot_GIST_update_2,2026.1.1,Win32,60.24096386,5f4d6c27b03547a378fcb44a,69b92ab4aef6dee357cd729a,69b92ad6cdfd939e2249c997,0.0274,0.0274,0,125,125,30,1,fourtwo,,,,,,,,,,,,,,,,,,,,,,,,,,,,,,,,,,,,,,,,,,,,,,,,,,,,,,,,,,,,,,,,,,,,,,,,,,,,,,,,,,,,,,,,,,,,,,,,,,,,,,,,,,,,,,,,,,,,,,,,,,,,,,,,,,,,,,,,,
,,5f4d6c27b03547a378fcb44a,2026-03-17_12h20.23.868,kallum_motion_pilot_GIST_update_2,2026.1.1,Win32,60.24096386,5f4d6c27b03547a378fcb44a,69b92ab4aef6dee357cd729a,69b92ad6cdfd939e2249c997,0.0275,0.0275,0,126,126,21,1,threefour,,,,,,,,,,,,,,,,,,,,,,,,,,,,,,,,,,,,,,,,,,,,,,,,,,,,,,,,,,,,,,,,,,,,,,,,,,,,,,,,,,,,,,,,,,,,,,,,,,,,,,,,,,,,,,,,,,,,,,,,,,,,,,,,,,,,,,,,,
,,5f4d6c27b03547a378fcb44a,2026-03-17_12h20.23.868,kallum_motion_pilot_GIST_update_2,2026.1.1,Win32,60.24096386,5f4d6c27b03547a378fcb44a,69b92ab4aef6dee357cd729a,69b92ad6cdfd939e2249c997,0.0276,0.0276,0,127,127,102,1,eightsix,,,,,,,,,,,,,,,,,,,,,,,,,,,,,,,,,,,,,,,,,,,,,,,,,,,,,,,,,,,,,,,,,,,,,,,,,,,,,,,,,,,,,,,,,,,,,,,,,,,,,,,,,,,,,,,,,,,,,,,,,,,,,,,,,,,,,,,,,
,,5f4d6c27b03547a378fcb44a,2026-03-17_12h20.23.868,kallum_motion_pilot_GIST_update_2,2026.1.1,Win32,60.24096386,5f4d6c27b03547a378fcb44a,69b92ab4aef6dee357cd729a,69b92ad6cdfd939e2249c997,0.0277,0.0277,0,128,128,56,1,onetwo,,,,,,,,,,,,,,,,,,,,,,,,,,,,,,,,,,,,,,,,,,,,,,,,,,,,,,,,,,,,,,,,,,,,,,,,,,,,,,,,,,,,,,,,,,,,,,,,,,,,,,,,,,,,,,,,,,,,,,,,,,,,,,,,,,,,,,,,,
,,5f4d6c27b03547a378fcb44a,2026-03-17_12h20.23.868,kallum_motion_pilot_GIST_update_2,2026.1.1,Win32,60.24096386,5f4d6c27b03547a378fcb44a,69b92ab4aef6dee357cd729a,69b92ad6cdfd939e2249c997,0.0277,0.0277,0,129,129,134,1,eightsix,,,,,,,,,,,,,,,,,,,,,,,,,,,,,,,,,,,,,,,,,,,,,,,,,,,,,,,,,,,,,,,,,,,,,,,,,,,,,,,,,,,,,,,,,,,,,,,,,,,,,,,,,,,,,,,,,,,,,,,,,,,,,,,,,,,,,,,,,
,,5f4d6c27b03547a378fcb44a,2026-03-17_12h20.23.868,kallum_motion_pilot_GIST_update_2,2026.1.1,Win32,60.24096386,5f4d6c27b03547a378fcb44a,69b92ab4aef6dee357cd729a,69b92ad6cdfd939e2249c997,0.0279,0.0279,0,130,130,48,1,onetwo,,,,,,,,,,,,,,,,,,,,,,,,,,,,,,,,,,,,,,,,,,,,,,,,,,,,,,,,,,,,,,,,,,,,,,,,,,,,,,,,,,,,,,,,,,,,,,,,,,,,,,,,,,,,,,,,,,,,,,,,,,,,,,,,,,,,,,,,,
,,5f4d6c27b03547a378fcb44a,2026-03-17_12h20.23.868,kallum_motion_pilot_GIST_update_2,2026.1.1,Win32,60.24096386,5f4d6c27b03547a378fcb44a,69b92ab4aef6dee357cd729a,69b92ad6cdfd939e2249c997,0.0279,0.0279,0,131,131,91,1,sixeight,,,,,,,,,,,,,,,,,,,,,,,,,,,,,,,,,,,,,,,,,,,,,,,,,,,,,,,,,,,,,,,,,,,,,,,,,,,,,,,,,,,,,,,,,,,,,,,,,,,,,,,,,,,,,,,,,,,,,,,,,,,,,,,,,,,,,,,,,
,,5f4d6c27b03547a378fcb44a,2026-03-17_12h20.23.868,kallum_motion_pilot_GIST_update_2,2026.1.1,Win32,60.24096386,5f4d6c27b03547a378fcb44a,69b92ab4aef6dee357cd729a,69b92ad6cdfd939e2249c997,0.028,0.0281,0,132,132,81,1,fiveseven,,,,,,,,,,,,,,,,,,,,,,,,,,,,,,,,,,,,,,,,,,,,,,,,,,,,,,,,,,,,,,,,,,,,,,,,,,,,,,,,,,,,,,,,,,,,,,,,,,,,,,,,,,,,,,,,,,,,,,,,,,,,,,,,,,,,,,,,,
,,5f4d6c27b03547a378fcb44a,2026-03-17_12h20.23.868,kallum_motion_pilot_GIST_update_2,2026.1.1,Win32,60.24096386,5f4d6c27b03547a378fcb44a,69b92ab4aef6dee357cd729a,69b92ad6cdfd939e2249c997,0.0281,0.0281,0,133,133,154,1,sixfive,,,,,,,,,,,,,,,,,,,,,,,,,,,,,,,,,,,,,,,,,,,,,,,,,,,,,,,,,,,,,,,,,,,,,,,,,,,,,,,,,,,,,,,,,,,,,,,,,,,,,,,,,,,,,,,,,,,,,,,,,,,,,,,,,,,,,,,,,
,,5f4d6c27b03547a378fcb44a,2026-03-17_12h20.23.868,kallum_motion_pilot_GIST_update_2,2026.1.1,Win32,60.24096386,5f4d6c27b03547a378fcb44a,69b92ab4aef6dee357cd729a,69b92ad6cdfd939e2249c997,0.0282,0.0282,0,134,134,17,1,onethree,,,,,,,,,,,,,,,,,,,,,,,,,,,,,,,,,,,,,,,,,,,,,,,,,,,,,,,,,,,,,,,,,,,,,,,,,,,,,,,,,,,,,,,,,,,,,,,,,,,,,,,,,,,,,,,,,,,,,,,,,,,,,,,,,,,,,,,,,
,,5f4d6c27b03547a378fcb44a,2026-03-17_12h20.23.868,kallum_motion_pilot_GIST_update_2,2026.1.1,Win32,60.24096386,5f4d6c27b03547a378fcb44a,69b92ab4aef6dee357cd729a,69b92ad6cdfd939e2249c997,0.0283,0.0283,0,135,135,143,1,eightseven,,,,,,,,,,,,,,,,,,,,,,,,,,,,,,,,,,,,,,,,,,,,,,,,,,,,,,,,,,,,,,,,,,,,,,,,,,,,,,,,,,,,,,,,,,,,,,,,,,,,,,,,,,,,,,,,,,,,,,,,,,,,,,,,,,,,,,,,,
,,5f4d6c27b03547a378fcb44a,2026-03-17_12h20.23.868,kallum_motion_pilot_GIST_update_2,2026.1.1,Win32,60.24096386,5f4d6c27b03547a378fcb44a,69b92ab4aef6dee357cd729a,69b92ad6cdfd939e2249c997,0.0283,0.0283,0,136,136,116,1,sevenfive,,,,,,,,,,,,,,,,,,,,,,,,,,,,,,,,,,,,,,,,,,,,,,,,,,,,,,,,,,,,,,,,,,,,,,,,,,,,,,,,,,,,,,,,,,,,,,,,,,,,,,,,,,,,,,,,,,,,,,,,,,,,,,,,,,,,,,,,,
,,5f4d6c27b03547a378fcb44a,2026-03-17_12h20.23.868,kallum_motion_pilot_GIST_update_2,2026.1.1,Win32,60.24096386,5f4d6c27b03547a378fcb44a,69b92ab4aef6dee357cd729a,69b92ad6cdfd939e2249c997,0.0284,0.0284,0,137,137,82,1,sixfive,,,,,,,,,,,,,,,,,,,,,,,,,,,,,,,,,,,,,,,,,,,,,,,,,,,,,,,,,,,,,,,,,,,,,,,,,,,,,,,,,,,,,,,,,,,,,,,,,,,,,,,,,,,,,,,,,,,,,,,,,,,,,,,,,,,,,,,,,
,,5f4d6c27b03547a378fcb44a,2026-03-17_12h20.23.868,kallum_motion_pilot_GIST_update_2,2026.1.1,Win32,60.24096386,5f4d6c27b03547a378fcb44a,69b92ab4aef6dee357cd729a,69b92ad6cdfd939e2249c997,0.0285,0.0285,0,138,138,126,1,eightsix,,,,,,,,,,,,,,,,,,,,,,,,,,,,,,,,,,,,,,,,,,,,,,,,,,,,,,,,,,,,,,,,,,,,,,,,,,,,,,,,,,,,,,,,,,,,,,,,,,,,,,,,,,,,,,,,,,,,,,,,,,,,,,,,,,,,,,,,,
,,5f4d6c27b03547a378fcb44a,2026-03-17_12h20.23.868,kallum_motion_pilot_GIST_update_2,2026.1.1,Win32,60.24096386,5f4d6c27b03547a378fcb44a,69b92ab4aef6dee357cd729a,69b92ad6cdfd939e2249c997,0.0286,0.0286,0,139,139,47,1,fourthree,,,,,,,,,,,,,,,,,,,,,,,,,,,,,,,,,,,,,,,,,,,,,,,,,,,,,,,,,,,,,,,,,,,,,,,,,,,,,,,,,,,,,,,,,,,,,,,,,,,,,,,,,,,,,,,,,,,,,,,,,,,,,,,,,,,,,,,,,
,,5f4d6c27b03547a378fcb44a,2026-03-17_12h20.23.868,kallum_motion_pilot_GIST_update_2,2026.1.1,Win32,60.24096386,5f4d6c27b03547a378fcb44a,69b92ab4aef6dee357cd729a,69b92ad6cdfd939e2249c997,0.0287,0.0287,0,140,140,159,1,eightseven,,,,,,,,,,,,,,,,,,,,,,,,,,,,,,,,,,,,,,,,,,,,,,,,,,,,,,,,,,,,,,,,,,,,,,,,,,,,,,,,,,,,,,,,,,,,,,,,,,,,,,,,,,,,,,,,,,,,,,,,,,,,,,,,,,,,,,,,,
,,5f4d6c27b03547a378fcb44a,2026-03-17_12h20.23.868,kallum_motion_pilot_GIST_update_2,2026.1.1,Win32,60.24096386,5f4d6c27b03547a378fcb44a,69b92ab4aef6dee357cd729a,69b92ad6cdfd939e2249c997,0.0289,0.0289,0,141,141,92,1,sevenfive,,,,,,,,,,,,,,,,,,,,,,,,,,,,,,,,,,,,,,,,,,,,,,,,,,,,,,,,,,,,,,,,,,,,,,,,,,,,,,,,,,,,,,,,,,,,,,,,,,,,,,,,,,,,,,,,,,,,,,,,,,,,,,,,,,,,,,,,,
,,5f4d6c27b03547a378fcb44a,2026-03-17_12h20.23.868,kallum_motion_pilot_GIST_update_2,2026.1.1,Win32,60.24096386,5f4d6c27b03547a378fcb44a,69b92ab4aef6dee357cd729a,69b92ad6cdfd939e2249c997,0.029,0.029,0,142,142,6,1,fourtwo,,,,,,,,,,,,,,,,,,,,,,,,,,,,,,,,,,,,,,,,,,,,,,,,,,,,,,,,,,,,,,,,,,,,,,,,,,,,,,,,,,,,,,,,,,,,,,,,,,,,,,,,,,,,,,,,,,,,,,,,,,,,,,,,,,,,,,,,,
,,5f4d6c27b03547a378fcb44a,2026-03-17_12h20.23.868,kallum_motion_pilot_GIST_update_2,2026.1.1,Win32,60.24096386,5f4d6c27b03547a378fcb44a,69b92ab4aef6dee357cd729a,69b92ad6cdfd939e2249c997,0.029,0.029,0,143,143,58,1,twoone,,,,,,,,,,,,,,,,,,,,,,,,,,,,,,,,,,,,,,,,,,,,,,,,,,,,,,,,,,,,,,,,,,,,,,,,,,,,,,,,,,,,,,,,,,,,,,,,,,,,,,,,,,,,,,,,,,,,,,,,,,,,,,,,,,,,,,,,,
,,5f4d6c27b03547a378fcb44a,2026-03-17_12h20.23.868,kallum_motion_pilot_GIST_update_2,2026.1.1,Win32,60.24096386,5f4d6c27b03547a378fcb44a,69b92ab4aef6dee357cd729a,69b92ad6cdfd939e2249c997,0.0291,0.0291,0,144,144,118,1,eightsix,,,,,,,,,,,,,,,,,,,,,,,,,,,,,,,,,,,,,,,,,,,,,,,,,,,,,,,,,,,,,,,,,,,,,,,,,,,,,,,,,,,,,,,,,,,,,,,,,,,,,,,,,,,,,,,,,,,,,,,,,,,,,,,,,,,,,,,,,
,,5f4d6c27b03547a378fcb44a,2026-03-17_12h20.23.868,kallum_motion_pilot_GIST_update_2,2026.1.1,Win32,60.24096386,5f4d6c27b03547a378fcb44a,69b92ab4aef6dee357cd729a,69b92ad6cdfd939e2249c997,0.0292,0.0292,0,145,145,50,1,twoone,,,,,,,,,,,,,,,,,,,,,,,,,,,,,,,,,,,,,,,,,,,,,,,,,,,,,,,,,,,,,,,,,,,,,,,,,,,,,,,,,,,,,,,,,,,,,,,,,,,,,,,,,,,,,,,,,,,,,,,,,,,,,,,,,,,,,,,,,
,,5f4d6c27b03547a378fcb44a,2026-03-17_12h20.23.868,kallum_motion_pilot_GIST_update_2,2026.1.1,Win32,60.24096386,5f4d6c27b03547a378fcb44a,69b92ab4aef6dee357cd729a,69b92ad6cdfd939e2249c997,0.0292,0.0292,0,146,146,119,1,eightseven,,,,,,,,,,,,,,,,,,,,,,,,,,,,,,,,,,,,,,,,,,,,,,,,,,,,,,,,,,,,,,,,,,,,,,,,,,,,,,,,,,,,,,,,,,,,,,,,,,,,,,,,,,,,,,,,,,,,,,,,,,,,,,,,,,,,,,,,,
,,5f4d6c27b03547a378fcb44a,2026-03-17_12h20.23.868,kallum_motion_pilot_GIST_update_2,2026.1.1,Win32,60.24096386,5f4d6c27b03547a378fcb44a,69b92ab4aef6dee357cd729a,69b92ad6cdfd939e2249c997,0.0294,0.0294,0,147,147,98,1,sixfive,,,,,,,,,,,,,,,,,,,,,,,,,,,,,,,,,,,,,,,,,,,,,,,,,,,,,,,,,,,,,,,,,,,,,,,,,,,,,,,,,,,,,,,,,,,,,,,,,,,,,,,,,,,,,,,,,,,,,,,,,,,,,,,,,,,,,,,,,
,,5f4d6c27b03547a378fcb44a,2026-03-17_12h20.23.868,kallum_motion_pilot_GIST_update_2,2026.1.1,Win32,60.24096386,5f4d6c27b03547a378fcb44a,69b92ab4aef6dee357cd729a,69b92ad6cdfd939e2249c997,0.0295,0.0295,0,148,148,157,1,seveneight,,,,,,,,,,,,,,,,,,,,,,,,,,,,,,,,,,,,,,,,,,,,,,,,,,,,,,,,,,,,,,,,,,,,,,,,,,,,,,,,,,,,,,,,,,,,,,,,,,,,,,,,,,,,,,,,,,,,,,,,,,,,,,,,,,,,,,,,,
,,5f4d6c27b03547a378fcb44a,2026-03-17_12h20.23.868,kallum_motion_pilot_GIST_update_2,2026.1.1,Win32,60.24096386,5f4d6c27b03547a378fcb44a,69b92ab4aef6dee357cd729a,69b92ad6cdfd939e2249c997,0.0295,0.0295,0,149,149,85,1,seveneight,,,,,,,,,,,,,,,,,,,,,,,,,,,,,,,,,,,,,,,,,,,,,,,,,,,,,,,,,,,,,,,,,,,,,,,,,,,,,,,,,,,,,,,,,,,,,,,,,,,,,,,,,,,,,,,,,,,,,,,,,,,,,,,,,,,,,,,,,
,,5f4d6c27b03547a378fcb44a,2026-03-17_12h20.23.868,kallum_motion_pilot_GIST_update_2,2026.1.1,Win32,60.24096386,5f4d6c27b03547a378fcb44a,69b92ab4aef6dee357cd729a,69b92ad6cdfd939e2249c997,0.0296,0.0296,0,150,150,18,1,twoone,,,,,,,,,,,,,,,,,,,,,,,,,,,,,,,,,,,,,,,,,,,,,,,,,,,,,,,,,,,,,,,,,,,,,,,,,,,,,,,,,,,,,,,,,,,,,,,,,,,,,,,,,,,,,,,,,,,,,,,,,,,,,,,,,,,,,,,,,
,,5f4d6c27b03547a378fcb44a,2026-03-17_12h20.23.868,kallum_motion_pilot_GIST_update_2,2026.1.1,Win32,60.24096386,5f4d6c27b03547a378fcb44a,69b92ab4aef6dee357cd729a,69b92ad6cdfd939e2249c997,0.0297,0.0297,0,151,151,152,1,fivesix,,,,,,,,,,,,,,,,,,,,,,,,,,,,,,,,,,,,,,,,,,,,,,,,,,,,,,,,,,,,,,,,,,,,,,,,,,,,,,,,,,,,,,,,,,,,,,,,,,,,,,,,,,,,,,,,,,,,,,,,,,,,,,,,,,,,,,,,,
,,5f4d6c27b03547a378fcb44a,2026-03-17_12h20.23.868,kallum_motion_pilot_GIST_update_2,2026.1.1,Win32,60.24096386,5f4d6c27b03547a378fcb44a,69b92ab4aef6dee357cd729a,69b92ad6cdfd939e2249c997,0.0298,0.0298,0,152,152,86,1,eightsix,,,,,,,,,,,,,,,,,,,,,,,,,,,,,,,,,,,,,,,,,,,,,,,,,,,,,,,,,,,,,,,,,,,,,,,,,,,,,,,,,,,,,,,,,,,,,,,,,,,,,,,,,,,,,,,,,,,,,,,,,,,,,,,,,,,,,,,,,
,,5f4d6c27b03547a378fcb44a,2026-03-17_12h20.23.868,kallum_motion_pilot_GIST_update_2,2026.1.1,Win32,60.24096386,5f4d6c27b03547a378fcb44a,69b92ab4aef6dee357cd729a,69b92ad6cdfd939e2249c997,0.0299,0.0299,0,153,153,121,1,fiveseven,,,,,,,,,,,,,,,,,,,,,,,,,,,,,,,,,,,,,,,,,,,,,,,,,,,,,,,,,,,,,,,,,,,,,,,,,,,,,,,,,,,,,,,,,,,,,,,,,,,,,,,,,,,,,,,,,,,,,,,,,,,,,,,,,,,,,,,,,
,,5f4d6c27b03547a378fcb44a,2026-03-17_12h20.23.868,kallum_motion_pilot_GIST_update_2,2026.1.1,Win32,60.24096386,5f4d6c27b03547a378fcb44a,69b92ab4aef6dee357cd729a,69b92ad6cdfd939e2249c997,0.03,0.03,0,154,154,106,1,sixfive,,,,,,,,,,,,,,,,,,,,,,,,,,,,,,,,,,,,,,,,,,,,,,,,,,,,,,,,,,,,,,,,,,,,,,,,,,,,,,,,,,,,,,,,,,,,,,,,,,,,,,,,,,,,,,,,,,,,,,,,,,,,,,,,,,,,,,,,,
,,5f4d6c27b03547a378fcb44a,2026-03-17_12h20.23.868,kallum_motion_pilot_GIST_update_2,2026.1.1,Win32,60.24096386,5f4d6c27b03547a378fcb44a,69b92ab4aef6dee357cd729a,69b92ad6cdfd939e2249c997,0.03,0.03,0,155,155,78,1,fourtwo,,,,,,,,,,,,,,,,,,,,,,,,,,,,,,,,,,,,,,,,,,,,,,,,,,,,,,,,,,,,,,,,,,,,,,,,,,,,,,,,,,,,,,,,,,,,,,,,,,,,,,,,,,,,,,,,,,,,,,,,,,,,,,,,,,,,,,,,,
,,5f4d6c27b03547a378fcb44a,2026-03-17_12h20.23.868,kallum_motion_pilot_GIST_update_2,2026.1.1,Win32,60.24096386,5f4d6c27b03547a378fcb44a,69b92ab4aef6dee357cd729a,69b92ad6cdfd939e2249c997,0.0302,0.0302,0,156,156,110,1,eightsix,,,,,,,,,,,,,,,,,,,,,,,,,,,,,,,,,,,,,,,,,,,,,,,,,,,,,,,,,,,,,,,,,,,,,,,,,,,,,,,,,,,,,,,,,,,,,,,,,,,,,,,,,,,,,,,,,,,,,,,,,,,,,,,,,,,,,,,,,
,,5f4d6c27b03547a378fcb44a,2026-03-17_12h20.23.868,kallum_motion_pilot_GIST_update_2,2026.1.1,Win32,60.24096386,5f4d6c27b03547a378fcb44a,69b92ab4aef6dee357cd729a,69b92ad6cdfd939e2249c997,0.0302,0.0302,0,157,157,80,1,fivesix,,,,,,,,,,,,,,,,,,,,,,,,,,,,,,,,,,,,,,,,,,,,,,,,,,,,,,,,,,,,,,,,,,,,,,,,,,,,,,,,,,,,,,,,,,,,,,,,,,,,,,,,,,,,,,,,,,,,,,,,,,,,,,,,,,,,,,,,,
,,5f4d6c27b03547a378fcb44a,2026-03-17_12h20.23.868,kallum_motion_pilot_GIST_update_2,2026.1.1,Win32,60.24096386,5f4d6c27b03547a378fcb44a,69b92ab4aef6dee357cd729a,69b92ad6cdfd939e2249c997,0.0303,0.0303,0,158,158,1,1,onethree,,,,,,,,,,,,,,,,,,,,,,,,,,,,,,,,,,,,,,,,,,,,,,,,,,,,,,,,,,,,,,,,,,,,,,,,,,,,,,,,,,,,,,,,,,,,,,,,,,,,,,,,,,,,,,,,,,,,,,,,,,,,,,,,,,,,,,,,,
,,5f4d6c27b03547a378fcb44a,2026-03-17_12h20.23.868,kallum_motion_pilot_GIST_update_2,2026.1.1,Win32,60.24096386,5f4d6c27b03547a378fcb44a,69b92ab4aef6dee357cd729a,69b92ad6cdfd939e2249c997,0.0304,0.0304,0,159,159,62,1,fourtwo,,,,,,,,,,,,,,,,,,,,,,,,,,,,,,,,,,,,,,,,,,,,,,,,,,,,,,,,,,,,,,,,,,,,,,,,,,,,,,,,,,,,,,,,,,,,,,,,,,,,,,,,,,,,,,,,,,,,,,,,,,,,,,,,,,,,,,,,,
,,5f4d6c27b03547a378fcb44a,2026-03-17_12h20.23.868,kallum_motion_pilot_GIST_update_2,2026.1.1,Win32,60.24096386,5f4d6c27b03547a378fcb44a,69b92ab4aef6dee357cd729a,69b92ad6cdfd939e2249c997,0.0305,0.0305,0,160,160,4,1,threeone,,,,,,,,,,,,,,,,,,,,,,,,,,,,,,,,,,,,,,,,,,,,,,,,,,,,,,,,,,,,,,,,,,,,,,,,,,,,,,,,,,,,,,,,,,,,,,,,,,,,,,,,,,,,,,,,,,,,,,,,,,,,,,,,,,,,,,,,,
,,5f4d6c27b03547a378fcb44a,2026-03-17_12h20.23.868,kallum_motion_pilot_GIST_update_2,2026.1.1,Win32,60.24096386,5f4d6c27b03547a378fcb44a,69b92ab4aef6dee357cd729a,69b92ad6cdfd939e2249c997,0.0305,0.0306,0,161,161,128,1,fivesix,,,,,,,,,,,,,,,,,,,,,,,,,,,,,,,,,,,,,,,,,,,,,,,,,,,,,,,,,,,,,,,,,,,,,,,,,,,,,,,,,,,,,,,,,,,,,,,,,,,,,,,,,,,,,,,,,,,,,,,,,,,,,,,,,,,,,,,,,
,,5f4d6c27b03547a378fcb44a,2026-03-17_12h20.23.868,kallum_motion_pilot_GIST_update_2,2026.1.1,Win32,60.24096386,5f4d6c27b03547a378fcb44a,69b92ab4aef6dee357cd729a,69b92ad6cdfd939e2249c997,0.0307,0.0307,1,0,162,128,1,fivesix,,,,,,,,,,,,,,,,,,,,,,,,,,,,,,,,,,,,,,,,,,,,,,,,,,,,,,,,,,,,,,,,,,,,,,,,,,,,,,,,,,,,,,,,,,,,,,,,,,,,,,,,,,,,,,,,,,,,,,,,,,,,,,,,,,,,,,,,,
,,5f4d6c27b03547a378fcb44a,2026-03-17_12h20.23.868,kallum_motion_pilot_GIST_update_2,2026.1.1,Win32,60.24096386,5f4d6c27b03547a378fcb44a,69b92ab4aef6dee357cd729a,69b92ad6cdfd939e2249c997,0.0307,0.0307,1,1,163,35,1,twofour,,,,,,,,,,,,,,,,,,,,,,,,,,,,,,,,,,,,,,,,,,,,,,,,,,,,,,,,,,,,,,,,,,,,,,,,,,,,,,,,,,,,,,,,,,,,,,,,,,,,,,,,,,,,,,,,,,,,,,,,,,,,,,,,,,,,,,,,,
,,5f4d6c27b03547a378fcb44a,2026-03-17_12h20.23.868,kallum_motion_pilot_GIST_update_2,2026.1.1,Win32,60.24096386,5f4d6c27b03547a378fcb44a,69b92ab4aef6dee357cd729a,69b92ad6cdfd939e2249c997,0.0308,0.0308,1,2,164,87,1,eightseven,,,,,,,,,,,,,,,,,,,,,,,,,,,,,,,,,,,,,,,,,,,,,,,,,,,,,,,,,,,,,,,,,,,,,,,,,,,,,,,,,,,,,,,,,,,,,,,,,,,,,,,,,,,,,,,,,,,,,,,,,,,,,,,,,,,,,,,,,
,,5f4d6c27b03547a378fcb44a,2026-03-17_12h20.23.868,kallum_motion_pilot_GIST_update_2,2026.1.1,Win32,60.24096386,5f4d6c27b03547a378fcb44a,69b92ab4aef6dee357cd729a,69b92ad6cdfd939e2249c997,0.0309,0.0309,1,3,165,23,1,fourthree,,,,,,,,,,,,,,,,,,,,,,,,,,,,,,,,,,,,,,,,,,,,,,,,,,,,,,,,,,,,,,,,,,,,,,,,,,,,,,,,,,,,,,,,,,,,,,,,,,,,,,,,,,,,,,,,,,,,,,,,,,,,,,,,,,,,,,,,,
,,5f4d6c27b03547a378fcb44a,2026-03-17_12h20.23.868,kallum_motion_pilot_GIST_update_2,2026.1.1,Win32,60.24096386,5f4d6c27b03547a378fcb44a,69b92ab4aef6dee357cd729a,69b92ad6cdfd939e2249c997,0.031,0.031,1,4,166,96,1,fivesix,,,,,,,,,,,,,,,,,,,,,,,,,,,,,,,,,,,,,,,,,,,,,,,,,,,,,,,,,,,,,,,,,,,,,,,,,,,,,,,,,,,,,,,,,,,,,,,,,,,,,,,,,,,,,,,,,,,,,,,,,,,,,,,,,,,,,,,,,
,,5f4d6c27b03547a378fcb44a,2026-03-17_12h20.23.868,kallum_motion_pilot_GIST_update_2,2026.1.1,Win32,60.24096386,5f4d6c27b03547a378fcb44a,69b92ab4aef6dee357cd729a,69b92ad6cdfd939e2249c997,0.0311,0.0311,1,5,167,150,1,eightsix,,,,,,,,,,,,,,,,,,,,,,,,,,,,,,,,,,,,,,,,,,,,,,,,,,,,,,,,,,,,,,,,,,,,,,,,,,,,,,,,,,,,,,,,,,,,,,,,,,,,,,,,,,,,,,,,,,,,,,,,,,,,,,,,,,,,,,,,,
,,5f4d6c27b03547a378fcb44a,2026-03-17_12h20.23.868,kallum_motion_pilot_GIST_update_2,2026.1.1,Win32,60.24096386,5f4d6c27b03547a378fcb44a,69b92ab4aef6dee357cd729a,69b92ad6cdfd939e2249c997,0.0312,0.0312,1,6,168,160,1,fivesix,,,,,,,,,,,,,,,,,,,,,,,,,,,,,,,,,,,,,,,,,,,,,,,,,,,,,,,,,,,,,,,,,,,,,,,,,,,,,,,,,,,,,,,,,,,,,,,,,,,,,,,,,,,,,,,,,,,,,,,,,,,,,,,,,,,,,,,,,
,,5f4d6c27b03547a378fcb44a,2026-03-17_12h20.23.868,kallum_motion_pilot_GIST_update_2,2026.1.1,Win32,60.24096386,5f4d6c27b03547a378fcb44a,69b92ab4aef6dee357cd729a,69b92ad6cdfd939e2249c997,0.0313,0.0313,1,7,169,56,1,onetwo,,,,,,,,,,,,,,,,,,,,,,,,,,,,,,,,,,,,,,,,,,,,,,,,,,,,,,,,,,,,,,,,,,,,,,,,,,,,,,,,,,,,,,,,,,,,,,,,,,,,,,,,,,,,,,,,,,,,,,,,,,,,,,,,,,,,,,,,,
,,5f4d6c27b03547a378fcb44a,2026-03-17_12h20.23.868,kallum_motion_pilot_GIST_update_2,2026.1.1,Win32,60.24096386,5f4d6c27b03547a378fcb44a,69b92ab4aef6dee357cd729a,69b92ad6cdfd939e2249c997,0.0313,0.0313,1,8,170,33,1,onethree,,,,,,,,,,,,,,,,,,,,,,,,,,,,,,,,,,,,,,,,,,,,,,,,,,,,,,,,,,,,,,,,,,,,,,,,,,,,,,,,,,,,,,,,,,,,,,,,,,,,,,,,,,,,,,,,,,,,,,,,,,,,,,,,,,,,,,,,,
,,5f4d6c27b03547a378fcb44a,2026-03-17_12h20.23.868,kallum_motion_pilot_GIST_update_2,2026.1.1,Win32,60.24096386,5f4d6c27b03547a378fcb44a,69b92ab4aef6dee357cd729a,69b92ad6cdfd939e2249c997,0.0314,0.0314,1,9,171,58,1,twoone,,,,,,,,,,,,,,,,,,,,,,,,,,,,,,,,,,,,,,,,,,,,,,,,,,,,,,,,,,,,,,,,,,,,,,,,,,,,,,,,,,,,,,,,,,,,,,,,,,,,,,,,,,,,,,,,,,,,,,,,,,,,,,,,,,,,,,,,,
,,5f4d6c27b03547a378fcb44a,2026-03-17_12h20.23.868,kallum_motion_pilot_GIST_update_2,2026.1.1,Win32,60.24096386,5f4d6c27b03547a378fcb44a,69b92ab4aef6dee357cd729a,69b92ad6cdfd939e2249c997,0.0316,0.0316,1,10,172,72,1,onetwo,,,,,,,,,,,,,,,,,,,,,,,,,,,,,,,,,,,,,,,,,,,,,,,,,,,,,,,,,,,,,,,,,,,,,,,,,,,,,,,,,,,,,,,,,,,,,,,,,,,,,,,,,,,,,,,,,,,,,,,,,,,,,,,,,,,,,,,,,
,,5f4d6c27b03547a378fcb44a,2026-03-17_12h20.23.868,kallum_motion_pilot_GIST_update_2,2026.1.1,Win32,60.24096386,5f4d6c27b03547a378fcb44a,69b92ab4aef6dee357cd729a,69b92ad6cdfd939e2249c997,0.0316,0.0316,1,11,173,158,1,eightsix,,,,,,,,,,,,,,,,,,,,,,,,,,,,,,,,,,,,,,,,,,,,,,,,,,,,,,,,,,,,,,,,,,,,,,,,,,,,,,,,,,,,,,,,,,,,,,,,,,,,,,,,,,,,,,,,,,,,,,,,,,,,,,,,,,,,,,,,,
,,5f4d6c27b03547a378fcb44a,2026-03-17_12h20.23.868,kallum_motion_pilot_GIST_update_2,2026.1.1,Win32,60.24096386,5f4d6c27b03547a378fcb44a,69b92ab4aef6dee357cd729a,69b92ad6cdfd939e2249c997,0.0317,0.0317,1,12,174,124,1,sevenfive,,,,,,,,,,,,,,,,,,,,,,,,,,,,,,,,,,,,,,,,,,,,,,,,,,,,,,,,,,,,,,,,,,,,,,,,,,,,,,,,,,,,,,,,,,,,,,,,,,,,,,,,,,,,,,,,,,,,,,,,,,,,,,,,,,,,,,,,,
,,5f4d6c27b03547a378fcb44a,2026-03-17_12h20.23.868,kallum_motion_pilot_GIST_update_2,2026.1.1,Win32,60.24096386,5f4d6c27b03547a378fcb44a,69b92ab4aef6dee357cd729a,69b92ad6cdfd939e2249c997,0.0318,0.0318,1,13,175,121,1,fiveseven,,,,,,,,,,,,,,,,,,,,,,,,,,,,,,,,,,,,,,,,,,,,,,,,,,,,,,,,,,,,,,,,,,,,,,,,,,,,,,,,,,,,,,,,,,,,,,,,,,,,,,,,,,,,,,,,,,,,,,,,,,,,,,,,,,,,,,,,,
,,5f4d6c27b03547a378fcb44a,2026-03-17_12h20.23.868,kallum_motion_pilot_GIST_update_2,2026.1.1,Win32,60.24096386,5f4d6c27b03547a378fcb44a,69b92ab4aef6dee357cd729a,69b92ad6cdfd939e2249c997,0.0319,0.0319,1,14,176,123,1,sixeight,,,,,,,,,,,,,,,,,,,,,,,,,,,,,,,,,,,,,,,,,,,,,,,,,,,,,,,,,,,,,,,,,,,,,,,,,,,,,,,,,,,,,,,,,,,,,,,,,,,,,,,,,,,,,,,,,,,,,,,,,,,,,,,,,,,,,,,,,
,,5f4d6c27b03547a378fcb44a,2026-03-17_12h20.23.868,kallum_motion_pilot_GIST_update_2,2026.1.1,Win32,60.24096386,5f4d6c27b03547a378fcb44a,69b92ab4aef6dee357cd729a,69b92ad6cdfd939e2249c997,0.032,0.032,1,15,177,0,1,onetwo,,,,,,,,,,,,,,,,,,,,,,,,,,,,,,,,,,,,,,,,,,,,,,,,,,,,,,,,,,,,,,,,,,,,,,,,,,,,,,,,,,,,,,,,,,,,,,,,,,,,,,,,,,,,,,,,,,,,,,,,,,,,,,,,,,,,,,,,,
,,5f4d6c27b03547a378fcb44a,2026-03-17_12h20.23.868,kallum_motion_pilot_GIST_update_2,2026.1.1,Win32,60.24096386,5f4d6c27b03547a378fcb44a,69b92ab4aef6dee357cd729a,69b92ad6cdfd939e2249c997,0.032,0.032,1,16,178,113,1,fiveseven,,,,,,,,,,,,,,,,,,,,,,,,,,,,,,,,,,,,,,,,,,,,,,,,,,,,,,,,,,,,,,,,,,,,,,,,,,,,,,,,,,,,,,,,,,,,,,,,,,,,,,,,,,,,,,,,,,,,,,,,,,,,,,,,,,,,,,,,,
,,5f4d6c27b03547a378fcb44a,2026-03-17_12h20.23.868,kallum_motion_pilot_GIST_update_2,2026.1.1,Win32,60.24096386,5f4d6c27b03547a378fcb44a,69b92ab4aef6dee357cd729a,69b92ad6cdfd939e2249c997,0.0322,0.0322,1,17,179,80,1,fivesix,,,,,,,,,,,,,,,,,,,,,,,,,,,,,,,,,,,,,,,,,,,,,,,,,,,,,,,,,,,,,,,,,,,,,,,,,,,,,,,,,,,,,,,,,,,,,,,,,,,,,,,,,,,,,,,,,,,,,,,,,,,,,,,,,,,,,,,,,
,,5f4d6c27b03547a378fcb44a,2026-03-17_12h20.23.868,kallum_motion_pilot_GIST_update_2,2026.1.1,Win32,60.24096386,5f4d6c27b03547a378fcb44a,69b92ab4aef6dee357cd729a,69b92ad6cdfd939e2249c997,0.0322,0.0322,1,18,180,142,1,eightsix,,,,,,,,,,,,,,,,,,,,,,,,,,,,,,,,,,,,,,,,,,,,,,,,,,,,,,,,,,,,,,,,,,,,,,,,,,,,,,,,,,,,,,,,,,,,,,,,,,,,,,,,,,,,,,,,,,,,,,,,,,,,,,,,,,,,,,,,,
,,5f4d6c27b03547a378fcb44a,2026-03-17_12h20.23.868,kallum_motion_pilot_GIST_update_2,2026.1.1,Win32,60.24096386,5f4d6c27b03547a378fcb44a,69b92ab4aef6dee357cd729a,69b92ad6cdfd939e2249c997,0.0324,0.0324,1,19,181,5,1,threefour,,,,,,,,,,,,,,,,,,,,,,,,,,,,,,,,,,,,,,,,,,,,,,,,,,,,,,,,,,,,,,,,,,,,,,,,,,,,,,,,,,,,,,,,,,,,,,,,,,,,,,,,,,,,,,,,,,,,,,,,,,,,,,,,,,,,,,,,,
,,5f4d6c27b03547a378fcb44a,2026-03-17_12h20.23.868,kallum_motion_pilot_GIST_update_2,2026.1.1,Win32,60.24096386,5f4d6c27b03547a378fcb44a,69b92ab4aef6dee357cd729a,69b92ad6cdfd939e2249c997,0.0324,0.0324,1,20,182,111,1,eightseven,,,,,,,,,,,,,,,,,,,,,,,,,,,,,,,,,,,,,,,,,,,,,,,,,,,,,,,,,,,,,,,,,,,,,,,,,,,,,,,,,,,,,,,,,,,,,,,,,,,,,,,,,,,,,,,,,,,,,,,,,,,,,,,,,,,,,,,,,
,,5f4d6c27b03547a378fcb44a,2026-03-17_12h20.23.868,kallum_motion_pilot_GIST_update_2,2026.1.1,Win32,60.24096386,5f4d6c27b03547a378fcb44a,69b92ab4aef6dee357cd729a,69b92ad6cdfd939e2249c997,0.0326,0.0326,1,21,183,155,1,sixeight,,,,,,,,,,,,,,,,,,,,,,,,,,,,,,,,,,,,,,,,,,,,,,,,,,,,,,,,,,,,,,,,,,,,,,,,,,,,,,,,,,,,,,,,,,,,,,,,,,,,,,,,,,,,,,,,,,,,,,,,,,,,,,,,,,,,,,,,,
,,5f4d6c27b03547a378fcb44a,2026-03-17_12h20.23.868,kallum_motion_pilot_GIST_update_2,2026.1.1,Win32,60.24096386,5f4d6c27b03547a378fcb44a,69b92ab4aef6dee357cd729a,69b92ad6cdfd939e2249c997,0.0326,0.0326,1,22,184,146,1,sixfive,,,,,,,,,,,,,,,,,,,,,,,,,,,,,,,,,,,,,,,,,,,,,,,,,,,,,,,,,,,,,,,,,,,,,,,,,,,,,,,,,,,,,,,,,,,,,,,,,,,,,,,,,,,,,,,,,,,,,,,,,,,,,,,,,,,,,,,,,
,,5f4d6c27b03547a378fcb44a,2026-03-17_12h20.23.868,kallum_motion_pilot_GIST_update_2,2026.1.1,Win32,60.24096386,5f4d6c27b03547a378fcb44a,69b92ab4aef6dee357cd729a,69b92ad6cdfd939e2249c997,0.0327,0.0327,1,23,185,105,1,fiveseven,,,,,,,,,,,,,,,,,,,,,,,,,,,,,,,,,,,,,,,,,,,,,,,,,,,,,,,,,,,,,,,,,,,,,,,,,,,,,,,,,,,,,,,,,,,,,,,,,,,,,,,,,,,,,,,,,,,,,,,,,,,,,,,,,,,,,,,,,
,,5f4d6c27b03547a378fcb44a,2026-03-17_12h20.23.868,kallum_motion_pilot_GIST_update_2,2026.1.1,Win32,60.24096386,5f4d6c27b03547a378fcb44a,69b92ab4aef6dee357cd729a,69b92ad6cdfd939e2249c997,0.0328,0.0329,1,24,186,30,1,fourtwo,,,,,,,,,,,,,,,,,,,,,,,,,,,,,,,,,,,,,,,,,,,,,,,,,,,,,,,,,,,,,,,,,,,,,,,,,,,,,,,,,,,,,,,,,,,,,,,,,,,,,,,,,,,,,,,,,,,,,,,,,,,,,,,,,,,,,,,,,
,,5f4d6c27b03547a378fcb44a,2026-03-17_12h20.23.868,kallum_motion_pilot_GIST_update_2,2026.1.1,Win32,60.24096386,5f4d6c27b03547a378fcb44a,69b92ab4aef6dee357cd729a,69b92ad6cdfd939e2249c997,0.0329,0.0329,1,25,187,38,1,fourtwo,,,,,,,,,,,,,,,,,,,,,,,,,,,,,,,,,,,,,,,,,,,,,,,,,,,,,,,,,,,,,,,,,,,,,,,,,,,,,,,,,,,,,,,,,,,,,,,,,,,,,,,,,,,,,,,,,,,,,,,,,,,,,,,,,,,,,,,,,
,,5f4d6c27b03547a378fcb44a,2026-03-17_12h20.23.868,kallum_motion_pilot_GIST_update_2,2026.1.1,Win32,60.24096386,5f4d6c27b03547a378fcb44a,69b92ab4aef6dee357cd729a,69b92ad6cdfd939e2249c997,0.033,0.033,1,26,188,39,1,fourthree,,,,,,,,,,,,,,,,,,,,,,,,,,,,,,,,,,,,,,,,,,,,,,,,,,,,,,,,,,,,,,,,,,,,,,,,,,,,,,,,,,,,,,,,,,,,,,,,,,,,,,,,,,,,,,,,,,,,,,,,,,,,,,,,,,,,,,,,,
,,5f4d6c27b03547a378fcb44a,2026-03-17_12h20.23.868,kallum_motion_pilot_GIST_update_2,2026.1.1,Win32,60.24096386,5f4d6c27b03547a378fcb44a,69b92ab4aef6dee357cd729a,69b92ad6cdfd939e2249c997,0.0331,0.0331,1,27,189,2,1,twoone,,,,,,,,,,,,,,,,,,,,,,,,,,,,,,,,,,,,,,,,,,,,,,,,,,,,,,,,,,,,,,,,,,,,,,,,,,,,,,,,,,,,,,,,,,,,,,,,,,,,,,,,,,,,,,,,,,,,,,,,,,,,,,,,,,,,,,,,,
,,5f4d6c27b03547a378fcb44a,2026-03-17_12h20.23.868,kallum_motion_pilot_GIST_update_2,2026.1.1,Win32,60.24096386,5f4d6c27b03547a378fcb44a,69b92ab4aef6dee357cd729a,69b92ad6cdfd939e2249c997,0.0332,0.0333,1,28,190,62,1,fourtwo,,,,,,,,,,,,,,,,,,,,,,,,,,,,,,,,,,,,,,,,,,,,,,,,,,,,,,,,,,,,,,,,,,,,,,,,,,,,,,,,,,,,,,,,,,,,,,,,,,,,,,,,,,,,,,,,,,,,,,,,,,,,,,,,,,,,,,,,,
,,5f4d6c27b03547a378fcb44a,2026-03-17_12h20.23.868,kallum_motion_pilot_GIST_update_2,2026.1.1,Win32,60.24096386,5f4d6c27b03547a378fcb44a,69b92ab4aef6dee357cd729a,69b92ad6cdfd939e2249c997,0.0333,0.0333,1,29,191,131,1,sixeight,,,,,,,,,,,,,,,,,,,,,,,,,,,,,,,,,,,,,,,,,,,,,,,,,,,,,,,,,,,,,,,,,,,,,,,,,,,,,,,,,,,,,,,,,,,,,,,,,,,,,,,,,,,,,,,,,,,,,,,,,,,,,,,,,,,,,,,,,
,,5f4d6c27b03547a378fcb44a,2026-03-17_12h20.23.868,kallum_motion_pilot_GIST_update_2,2026.1.1,Win32,60.24096386,5f4d6c27b03547a378fcb44a,69b92ab4aef6dee357cd729a,69b92ad6cdfd939e2249c997,0.0334,0.0334,1,30,192,101,1,seveneight,,,,,,,,,,,,,,,,,,,,,,,,,,,,,,,,,,,,,,,,,,,,,,,,,,,,,,,,,,,,,,,,,,,,,,,,,,,,,,,,,,,,,,,,,,,,,,,,,,,,,,,,,,,,,,,,,,,,,,,,,,,,,,,,,,,,,,,,,
,,5f4d6c27b03547a378fcb44a,2026-03-17_12h20.23.868,kallum_motion_pilot_GIST_update_2,2026.1.1,Win32,60.24096386,5f4d6c27b03547a378fcb44a,69b92ab4aef6dee357cd729a,69b92ad6cdfd939e2249c997,0.0336,0.0336,1,31,193,20,1,threeone,,,,,,,,,,,,,,,,,,,,,,,,,,,,,,,,,,,,,,,,,,,,,,,,,,,,,,,,,,,,,,,,,,,,,,,,,,,,,,,,,,,,,,,,,,,,,,,,,,,,,,,,,,,,,,,,,,,,,,,,,,,,,,,,,,,,,,,,,
,,5f4d6c27b03547a378fcb44a,2026-03-17_12h20.23.868,kallum_motion_pilot_GIST_update_2,2026.1.1,Win32,60.24096386,5f4d6c27b03547a378fcb44a,69b92ab4aef6dee357cd729a,69b92ad6cdfd939e2249c997,0.0336,0.0337,1,32,194,77,1,threefour,,,,,,,,,,,,,,,,,,,,,,,,,,,,,,,,,,,,,,,,,,,,,,,,,,,,,,,,,,,,,,,,,,,,,,,,,,,,,,,,,,,,,,,,,,,,,,,,,,,,,,,,,,,,,,,,,,,,,,,,,,,,,,,,,,,,,,,,,
,,5f4d6c27b03547a378fcb44a,2026-03-17_12h20.23.868,kallum_motion_pilot_GIST_update_2,2026.1.1,Win32,60.24096386,5f4d6c27b03547a378fcb44a,69b92ab4aef6dee357cd729a,69b92ad6cdfd939e2249c997,0.0337,0.0337,1,33,195,76,1,threeone,,,,,,,,,,,,,,,,,,,,,,,,,,,,,,,,,,,,,,,,,,,,,,,,,,,,,,,,,,,,,,,,,,,,,,,,,,,,,,,,,,,,,,,,,,,,,,,,,,,,,,,,,,,,,,,,,,,,,,,,,,,,,,,,,,,,,,,,,
,,5f4d6c27b03547a378fcb44a,2026-03-17_12h20.23.868,kallum_motion_pilot_GIST_update_2,2026.1.1,Win32,60.24096386,5f4d6c27b03547a378fcb44a,69b92ab4aef6dee357cd729a,69b92ad6cdfd939e2249c997,0.0338,0.0338,1,34,196,55,1,fourthree,,,,,,,,,,,,,,,,,,,,,,,,,,,,,,,,,,,,,,,,,,,,,,,,,,,,,,,,,,,,,,,,,,,,,,,,,,,,,,,,,,,,,,,,,,,,,,,,,,,,,,,,,,,,,,,,,,,,,,,,,,,,,,,,,,,,,,,,,
,,5f4d6c27b03547a378fcb44a,2026-03-17_12h20.23.868,kallum_motion_pilot_GIST_update_2,2026.1.1,Win32,60.24096386,5f4d6c27b03547a378fcb44a,69b92ab4aef6dee357cd729a,69b92ad6cdfd939e2249c997,0.0339,0.0339,1,35,197,84,1,sevenfive,,,,,,,,,,,,,,,,,,,,,,,,,,,,,,,,,,,,,,,,,,,,,,,,,,,,,,,,,,,,,,,,,,,,,,,,,,,,,,,,,,,,,,,,,,,,,,,,,,,,,,,,,,,,,,,,,,,,,,,,,,,,,,,,,,,,,,,,,
,,5f4d6c27b03547a378fcb44a,2026-03-17_12h20.23.868,kallum_motion_pilot_GIST_update_2,2026.1.1,Win32,60.24096386,5f4d6c27b03547a378fcb44a,69b92ab4aef6dee357cd729a,69b92ad6cdfd939e2249c997,0.034,0.0341,1,36,198,21,1,threefour,,,,,,,,,,,,,,,,,,,,,,,,,,,,,,,,,,,,,,,,,,,,,,,,,,,,,,,,,,,,,,,,,,,,,,,,,,,,,,,,,,,,,,,,,,,,,,,,,,,,,,,,,,,,,,,,,,,,,,,,,,,,,,,,,,,,,,,,,
,,5f4d6c27b03547a378fcb44a,2026-03-17_12h20.23.868,kallum_motion_pilot_GIST_update_2,2026.1.1,Win32,60.24096386,5f4d6c27b03547a378fcb44a,69b92ab4aef6dee357cd729a,69b92ad6cdfd939e2249c997,0.0342,0.0342,1,37,199,46,1,fourtwo,,,,,,,,,,,,,,,,,,,,,,,,,,,,,,,,,,,,,,,,,,,,,,,,,,,,,,,,,,,,,,,,,,,,,,,,,,,,,,,,,,,,,,,,,,,,,,,,,,,,,,,,,,,,,,,,,,,,,,,,,,,,,,,,,,,,,,,,,
,,5f4d6c27b03547a378fcb44a,2026-03-17_12h20.23.868,kallum_motion_pilot_GIST_update_2,2026.1.1,Win32,60.24096386,5f4d6c27b03547a378fcb44a,69b92ab4aef6dee357cd729a,69b92ad6cdfd939e2249c997,0.0342,0.0342,1,38,200,13,1,threefour,,,,,,,,,,,,,,,,,,,,,,,,,,,,,,,,,,,,,,,,,,,,,,,,,,,,,,,,,,,,,,,,,,,,,,,,,,,,,,,,,,,,,,,,,,,,,,,,,,,,,,,,,,,,,,,,,,,,,,,,,,,,,,,,,,,,,,,,,
,,5f4d6c27b03547a378fcb44a,2026-03-17_12h20.23.868,kallum_motion_pilot_GIST_update_2,2026.1.1,Win32,60.24096386,5f4d6c27b03547a378fcb44a,69b92ab4aef6dee357cd729a,69b92ad6cdfd939e2249c997,0.0343,0.0343,1,39,201,100,1,sevenfive,,,,,,,,,,,,,,,,,,,,,,,,,,,,,,,,,,,,,,,,,,,,,,,,,,,,,,,,,,,,,,,,,,,,,,,,,,,,,,,,,,,,,,,,,,,,,,,,,,,,,,,,,,,,,,,,,,,,,,,,,,,,,,,,,,,,,,,,,
,,5f4d6c27b03547a378fcb44a,2026-03-17_12h20.23.868,kallum_motion_pilot_GIST_update_2,2026.1.1,Win32,60.24096386,5f4d6c27b03547a378fcb44a,69b92ab4aef6dee357cd729a,69b92ad6cdfd939e2249c997,0.0344,0.0344,1,40,202,68,1,threeone,,,,,,,,,,,,,,,,,,,,,,,,,,,,,,,,,,,,,,,,,,,,,,,,,,,,,,,,,,,,,,,,,,,,,,,,,,,,,,,,,,,,,,,,,,,,,,,,,,,,,,,,,,,,,,,,,,,,,,,,,,,,,,,,,,,,,,,,,
,,5f4d6c27b03547a378fcb44a,2026-03-17_12h20.23.868,kallum_motion_pilot_GIST_update_2,2026.1.1,Win32,60.24096386,5f4d6c27b03547a378fcb44a,69b92ab4aef6dee357cd729a,69b92ad6cdfd939e2249c997,0.0345,0.0345,1,41,203,32,1,onetwo,,,,,,,,,,,,,,,,,,,,,,,,,,,,,,,,,,,,,,,,,,,,,,,,,,,,,,,,,,,,,,,,,,,,,,,,,,,,,,,,,,,,,,,,,,,,,,,,,,,,,,,,,,,,,,,,,,,,,,,,,,,,,,,,,,,,,,,,,
,,5f4d6c27b03547a378fcb44a,2026-03-17_12h20.23.868,kallum_motion_pilot_GIST_update_2,2026.1.1,Win32,60.24096386,5f4d6c27b03547a378fcb44a,69b92ab4aef6dee357cd729a,69b92ad6cdfd939e2249c997,0.0346,0.0346,1,42,204,61,1,threefour,,,,,,,,,,,,,,,,,,,,,,,,,,,,,,,,,,,,,,,,,,,,,,,,,,,,,,,,,,,,,,,,,,,,,,,,,,,,,,,,,,,,,,,,,,,,,,,,,,,,,,,,,,,,,,,,,,,,,,,,,,,,,,,,,,,,,,,,,
,,5f4d6c27b03547a378fcb44a,2026-03-17_12h20.23.868,kallum_motion_pilot_GIST_update_2,2026.1.1,Win32,60.24096386,5f4d6c27b03547a378fcb44a,69b92ab4aef6dee357cd729a,69b92ad6cdfd939e2249c997,0.0347,0.0347,1,43,205,40,1,onetwo,,,,,,,,,,,,,,,,,,,,,,,,,,,,,,,,,,,,,,,,,,,,,,,,,,,,,,,,,,,,,,,,,,,,,,,,,,,,,,,,,,,,,,,,,,,,,,,,,,,,,,,,,,,,,,,,,,,,,,,,,,,,,,,,,,,,,,,,,
,,5f4d6c27b03547a378fcb44a,2026-03-17_12h20.23.868,kallum_motion_pilot_GIST_update_2,2026.1.1,Win32,60.24096386,5f4d6c27b03547a378fcb44a,69b92ab4aef6dee357cd729a,69b92ad6cdfd939e2249c997,0.0348,0.0348,1,44,206,48,1,onetwo,,,,,,,,,,,,,,,,,,,,,,,,,,,,,,,,,,,,,,,,,,,,,,,,,,,,,,,,,,,,,,,,,,,,,,,,,,,,,,,,,,,,,,,,,,,,,,,,,,,,,,,,,,,,,,,,,,,,,,,,,,,,,,,,,,,,,,,,,
,,5f4d6c27b03547a378fcb44a,2026-03-17_12h20.23.868,kallum_motion_pilot_GIST_update_2,2026.1.1,Win32,60.24096386,5f4d6c27b03547a378fcb44a,69b92ab4aef6dee357cd729a,69b92ad6cdfd939e2249c997,0.0349,0.0349,1,45,207,126,1,eightsix,,,,,,,,,,,,,,,,,,,,,,,,,,,,,,,,,,,,,,,,,,,,,,,,,,,,,,,,,,,,,,,,,,,,,,,,,,,,,,,,,,,,,,,,,,,,,,,,,,,,,,,,,,,,,,,,,,,,,,,,,,,,,,,,,,,,,,,,,
,,5f4d6c27b03547a378fcb44a,2026-03-17_12h20.23.868,kallum_motion_pilot_GIST_update_2,2026.1.1,Win32,60.24096386,5f4d6c27b03547a378fcb44a,69b92ab4aef6dee357cd729a,69b92ad6cdfd939e2249c997,0.035,0.035,1,46,208,28,1,threeone,,,,,,,,,,,,,,,,,,,,,,,,,,,,,,,,,,,,,,,,,,,,,,,,,,,,,,,,,,,,,,,,,,,,,,,,,,,,,,,,,,,,,,,,,,,,,,,,,,,,,,,,,,,,,,,,,,,,,,,,,,,,,,,,,,,,,,,,,
,,5f4d6c27b03547a378fcb44a,2026-03-17_12h20.23.868,kallum_motion_pilot_GIST_update_2,2026.1.1,Win32,60.24096386,5f4d6c27b03547a378fcb44a,69b92ab4aef6dee357cd729a,69b92ad6cdfd939e2249c997,0.0351,0.0351,1,47,209,3,1,twofour,,,,,,,,,,,,,,,,,,,,,,,,,,,,,,,,,,,,,,,,,,,,,,,,,,,,,,,,,,,,,,,,,,,,,,,,,,,,,,,,,,,,,,,,,,,,,,,,,,,,,,,,,,,,,,,,,,,,,,,,,,,,,,,,,,,,,,,,,
,,5f4d6c27b03547a378fcb44a,2026-03-17_12h20.23.868,kallum_motion_pilot_GIST_update_2,2026.1.1,Win32,60.24096386,5f4d6c27b03547a378fcb44a,69b92ab4aef6dee357cd729a,69b92ad6cdfd939e2249c997,0.0352,0.0352,1,48,210,122,1,sixfive,,,,,,,,,,,,,,,,,,,,,,,,,,,,,,,,,,,,,,,,,,,,,,,,,,,,,,,,,,,,,,,,,,,,,,,,,,,,,,,,,,,,,,,,,,,,,,,,,,,,,,,,,,,,,,,,,,,,,,,,,,,,,,,,,,,,,,,,,
,,5f4d6c27b03547a378fcb44a,2026-03-17_12h20.23.868,kallum_motion_pilot_GIST_update_2,2026.1.1,Win32,60.24096386,5f4d6c27b03547a378fcb44a,69b92ab4aef6dee357cd729a,69b92ad6cdfd939e2249c997,0.0352,0.0352,1,49,211,153,1,fiveseven,,,,,,,,,,,,,,,,,,,,,,,,,,,,,,,,,,,,,,,,,,,,,,,,,,,,,,,,,,,,,,,,,,,,,,,,,,,,,,,,,,,,,,,,,,,,,,,,,,,,,,,,,,,,,,,,,,,,,,,,,,,,,,,,,,,,,,,,,
,,5f4d6c27b03547a378fcb44a,2026-03-17_12h20.23.868,kallum_motion_pilot_GIST_update_2,2026.1.1,Win32,60.24096386,5f4d6c27b03547a378fcb44a,69b92ab4aef6dee357cd729a,69b92ad6cdfd939e2249c997,0.0354,0.0354,1,50,212,59,1,twofour,,,,,,,,,,,,,,,,,,,,,,,,,,,,,,,,,,,,,,,,,,,,,,,,,,,,,,,,,,,,,,,,,,,,,,,,,,,,,,,,,,,,,,,,,,,,,,,,,,,,,,,,,,,,,,,,,,,,,,,,,,,,,,,,,,,,,,,,,
,,5f4d6c27b03547a378fcb44a,2026-03-17_12h20.23.868,kallum_motion_pilot_GIST_update_2,2026.1.1,Win32,60.24096386,5f4d6c27b03547a378fcb44a,69b92ab4aef6dee357cd729a,69b92ad6cdfd939e2249c997,0.0355,0.0355,1,51,213,67,1,twofour,,,,,,,,,,,,,,,,,,,,,,,,,,,,,,,,,,,,,,,,,,,,,,,,,,,,,,,,,,,,,,,,,,,,,,,,,,,,,,,,,,,,,,,,,,,,,,,,,,,,,,,,,,,,,,,,,,,,,,,,,,,,,,,,,,,,,,,,,
,,5f4d6c27b03547a378fcb44a,2026-03-17_12h20.23.868,kallum_motion_pilot_GIST_update_2,2026.1.1,Win32,60.24096386,5f4d6c27b03547a378fcb44a,69b92ab4aef6dee357cd729a,69b92ad6cdfd939e2249c997,0.0355,0.0355,1,52,214,73,1,onethree,,,,,,,,,,,,,,,,,,,,,,,,,,,,,,,,,,,,,,,,,,,,,,,,,,,,,,,,,,,,,,,,,,,,,,,,,,,,,,,,,,,,,,,,,,,,,,,,,,,,,,,,,,,,,,,,,,,,,,,,,,,,,,,,,,,,,,,,,
,,5f4d6c27b03547a378fcb44a,2026-03-17_12h20.23.868,kallum_motion_pilot_GIST_update_2,2026.1.1,Win32,60.24096386,5f4d6c27b03547a378fcb44a,69b92ab4aef6dee357cd729a,69b92ad6cdfd939e2249c997,0.0356,0.0356,1,53,215,137,1,fiveseven,,,,,,,,,,,,,,,,,,,,,,,,,,,,,,,,,,,,,,,,,,,,,,,,,,,,,,,,,,,,,,,,,,,,,,,,,,,,,,,,,,,,,,,,,,,,,,,,,,,,,,,,,,,,,,,,,,,,,,,,,,,,,,,,,,,,,,,,,
,,5f4d6c27b03547a378fcb44a,2026-03-17_12h20.23.868,kallum_motion_pilot_GIST_update_2,2026.1.1,Win32,60.24096386,5f4d6c27b03547a378fcb44a,69b92ab4aef6dee357cd729a,69b92ad6cdfd939e2249c997,0.0357,0.0357,1,54,216,134,1,eightsix,,,,,,,,,,,,,,,,,,,,,,,,,,,,,,,,,,,,,,,,,,,,,,,,,,,,,,,,,,,,,,,,,,,,,,,,,,,,,,,,,,,,,,,,,,,,,,,,,,,,,,,,,,,,,,,,,,,,,,,,,,,,,,,,,,,,,,,,,
,,5f4d6c27b03547a378fcb44a,2026-03-17_12h20.23.868,kallum_motion_pilot_GIST_update_2,2026.1.1,Win32,60.24096386,5f4d6c27b03547a378fcb44a,69b92ab4aef6dee357cd729a,69b92ad6cdfd939e2249c997,0.0358,0.0358,1,55,217,14,1,fourtwo,,,,,,,,,,,,,,,,,,,,,,,,,,,,,,,,,,,,,,,,,,,,,,,,,,,,,,,,,,,,,,,,,,,,,,,,,,,,,,,,,,,,,,,,,,,,,,,,,,,,,,,,,,,,,,,,,,,,,,,,,,,,,,,,,,,,,,,,,
,,5f4d6c27b03547a378fcb44a,2026-03-17_12h20.23.868,kallum_motion_pilot_GIST_update_2,2026.1.1,Win32,60.24096386,5f4d6c27b03547a378fcb44a,69b92ab4aef6dee357cd729a,69b92ad6cdfd939e2249c997,0.0359,0.0359,1,56,218,112,1,fivesix,,,,,,,,,,,,,,,,,,,,,,,,,,,,,,,,,,,,,,,,,,,,,,,,,,,,,,,,,,,,,,,,,,,,,,,,,,,,,,,,,,,,,,,,,,,,,,,,,,,,,,,,,,,,,,,,,,,,,,,,,,,,,,,,,,,,,,,,,
,,5f4d6c27b03547a378fcb44a,2026-03-17_12h20.23.868,kallum_motion_pilot_GIST_update_2,2026.1.1,Win32,60.24096386,5f4d6c27b03547a378fcb44a,69b92ab4aef6dee357cd729a,69b92ad6cdfd939e2249c997,0.036,0.036,1,57,219,24,1,onetwo,,,,,,,,,,,,,,,,,,,,,,,,,,,,,,,,,,,,,,,,,,,,,,,,,,,,,,,,,,,,,,,,,,,,,,,,,,,,,,,,,,,,,,,,,,,,,,,,,,,,,,,,,,,,,,,,,,,,,,,,,,,,,,,,,,,,,,,,,
,,5f4d6c27b03547a378fcb44a,2026-03-17_12h20.23.868,kallum_motion_pilot_GIST_update_2,2026.1.1,Win32,60.24096386,5f4d6c27b03547a378fcb44a,69b92ab4aef6dee357cd729a,69b92ad6cdfd939e2249c997,0.0361,0.0361,1,58,220,31,1,fourthree,,,,,,,,,,,,,,,,,,,,,,,,,,,,,,,,,,,,,,,,,,,,,,,,,,,,,,,,,,,,,,,,,,,,,,,,,,,,,,,,,,,,,,,,,,,,,,,,,,,,,,,,,,,,,,,,,,,,,,,,,,,,,,,,,,,,,,,,,
,,5f4d6c27b03547a378fcb44a,2026-03-17_12h20.23.868,kallum_motion_pilot_GIST_update_2,2026.1.1,Win32,60.24096386,5f4d6c27b03547a378fcb44a,69b92ab4aef6dee357cd729a,69b92ad6cdfd939e2249c997,0.0362,0.0362,1,59,221,125,1,seveneight,,,,,,,,,,,,,,,,,,,,,,,,,,,,,,,,,,,,,,,,,,,,,,,,,,,,,,,,,,,,,,,,,,,,,,,,,,,,,,,,,,,,,,,,,,,,,,,,,,,,,,,,,,,,,,,,,,,,,,,,,,,,,,,,,,,,,,,,,
,,5f4d6c27b03547a378fcb44a,2026-03-17_12h20.23.868,kallum_motion_pilot_GIST_update_2,2026.1.1,Win32,60.24096386,5f4d6c27b03547a378fcb44a,69b92ab4aef6dee357cd729a,69b92ad6cdfd939e2249c997,0.0362,0.0362,1,60,222,148,1,sevenfive,,,,,,,,,,,,,,,,,,,,,,,,,,,,,,,,,,,,,,,,,,,,,,,,,,,,,,,,,,,,,,,,,,,,,,,,,,,,,,,,,,,,,,,,,,,,,,,,,,,,,,,,,,,,,,,,,,,,,,,,,,,,,,,,,,,,,,,,,
,,5f4d6c27b03547a378fcb44a,2026-03-17_12h20.23.868,kallum_motion_pilot_GIST_update_2,2026.1.1,Win32,60.24096386,5f4d6c27b03547a378fcb44a,69b92ab4aef6dee357cd729a,69b92ad6cdfd939e2249c997,0.0364,0.0364,1,61,223,83,1,sixeight,,,,,,,,,,,,,,,,,,,,,,,,,,,,,,,,,,,,,,,,,,,,,,,,,,,,,,,,,,,,,,,,,,,,,,,,,,,,,,,,,,,,,,,,,,,,,,,,,,,,,,,,,,,,,,,,,,,,,,,,,,,,,,,,,,,,,,,,,
,,5f4d6c27b03547a378fcb44a,2026-03-17_12h20.23.868,kallum_motion_pilot_GIST_update_2,2026.1.1,Win32,60.24096386,5f4d6c27b03547a378fcb44a,69b92ab4aef6dee357cd729a,69b92ad6cdfd939e2249c997,0.0364,0.0364,1,62,224,18,1,twoone,,,,,,,,,,,,,,,,,,,,,,,,,,,,,,,,,,,,,,,,,,,,,,,,,,,,,,,,,,,,,,,,,,,,,,,,,,,,,,,,,,,,,,,,,,,,,,,,,,,,,,,,,,,,,,,,,,,,,,,,,,,,,,,,,,,,,,,,,
,,5f4d6c27b03547a378fcb44a,2026-03-17_12h20.23.868,kallum_motion_pilot_GIST_update_2,2026.1.1,Win32,60.24096386,5f4d6c27b03547a378fcb44a,69b92ab4aef6dee357cd729a,69b92ad6cdfd939e2249c997,0.0366,0.0366,1,63,225,114,1,sixfive,,,,,,,,,,,,,,,,,,,,,,,,,,,,,,,,,,,,,,,,,,,,,,,,,,,,,,,,,,,,,,,,,,,,,,,,,,,,,,,,,,,,,,,,,,,,,,,,,,,,,,,,,,,,,,,,,,,,,,,,,,,,,,,,,,,,,,,,,
,,5f4d6c27b03547a378fcb44a,2026-03-17_12h20.23.868,kallum_motion_pilot_GIST_update_2,2026.1.1,Win32,60.24096386,5f4d6c27b03547a378fcb44a,69b92ab4aef6dee357cd729a,69b92ad6cdfd939e2249c997,0.0366,0.0366,1,64,226,34,1,twoone,,,,,,,,,,,,,,,,,,,,,,,,,,,,,,,,,,,,,,,,,,,,,,,,,,,,,,,,,,,,,,,,,,,,,,,,,,,,,,,,,,,,,,,,,,,,,,,,,,,,,,,,,,,,,,,,,,,,,,,,,,,,,,,,,,,,,,,,,
,,5f4d6c27b03547a378fcb44a,2026-03-17_12h20.23.868,kallum_motion_pilot_GIST_update_2,2026.1.1,Win32,60.24096386,5f4d6c27b03547a378fcb44a,69b92ab4aef6dee357cd729a,69b92ad6cdfd939e2249c997,0.0368,0.0368,1,65,227,85,1,seveneight,,,,,,,,,,,,,,,,,,,,,,,,,,,,,,,,,,,,,,,,,,,,,,,,,,,,,,,,,,,,,,,,,,,,,,,,,,,,,,,,,,,,,,,,,,,,,,,,,,,,,,,,,,,,,,,,,,,,,,,,,,,,,,,,,,,,,,,,,
,,5f4d6c27b03547a378fcb44a,2026-03-17_12h20.23.868,kallum_motion_pilot_GIST_update_2,2026.1.1,Win32,60.24096386,5f4d6c27b03547a378fcb44a,69b92ab4aef6dee357cd729a,69b92ad6cdfd939e2249c997,0.0369,0.0369,1,66,228,154,1,sixfive,,,,,,,,,,,,,,,,,,,,,,,,,,,,,,,,,,,,,,,,,,,,,,,,,,,,,,,,,,,,,,,,,,,,,,,,,,,,,,,,,,,,,,,,,,,,,,,,,,,,,,,,,,,,,,,,,,,,,,,,,,,,,,,,,,,,,,,,,
,,5f4d6c27b03547a378fcb44a,2026-03-17_12h20.23.868,kallum_motion_pilot_GIST_update_2,2026.1.1,Win32,60.24096386,5f4d6c27b03547a378fcb44a,69b92ab4aef6dee357cd729a,69b92ad6cdfd939e2249c997,0.037,0.037,1,67,229,152,1,fivesix,,,,,,,,,,,,,,,,,,,,,,,,,,,,,,,,,,,,,,,,,,,,,,,,,,,,,,,,,,,,,,,,,,,,,,,,,,,,,,,,,,,,,,,,,,,,,,,,,,,,,,,,,,,,,,,,,,,,,,,,,,,,,,,,,,,,,,,,,
,,5f4d6c27b03547a378fcb44a,2026-03-17_12h20.23.868,kallum_motion_pilot_GIST_update_2,2026.1.1,Win32,60.24096386,5f4d6c27b03547a378fcb44a,69b92ab4aef6dee357cd729a,69b92ad6cdfd939e2249c997,0.037,0.037,1,68,230,93,1,seveneight,,,,,,,,,,,,,,,,,,,,,,,,,,,,,,,,,,,,,,,,,,,,,,,,,,,,,,,,,,,,,,,,,,,,,,,,,,,,,,,,,,,,,,,,,,,,,,,,,,,,,,,,,,,,,,,,,,,,,,,,,,,,,,,,,,,,,,,,,
,,5f4d6c27b03547a378fcb44a,2026-03-17_12h20.23.868,kallum_motion_pilot_GIST_update_2,2026.1.1,Win32,60.24096386,5f4d6c27b03547a378fcb44a,69b92ab4aef6dee357cd729a,69b92ad6cdfd939e2249c997,0.0371,0.0371,1,69,231,74,1,twoone,,,,,,,,,,,,,,,,,,,,,,,,,,,,,,,,,,,,,,,,,,,,,,,,,,,,,,,,,,,,,,,,,,,,,,,,,,,,,,,,,,,,,,,,,,,,,,,,,,,,,,,,,,,,,,,,,,,,,,,,,,,,,,,,,,,,,,,,,
,,5f4d6c27b03547a378fcb44a,2026-03-17_12h20.23.868,kallum_motion_pilot_GIST_update_2,2026.1.1,Win32,60.24096386,5f4d6c27b03547a378fcb44a,69b92ab4aef6dee357cd729a,69b92ad6cdfd939e2249c997,0.0372,0.0373,1,70,232,102,1,eightsix,,,,,,,,,,,,,,,,,,,,,,,,,,,,,,,,,,,,,,,,,,,,,,,,,,,,,,,,,,,,,,,,,,,,,,,,,,,,,,,,,,,,,,,,,,,,,,,,,,,,,,,,,,,,,,,,,,,,,,,,,,,,,,,,,,,,,,,,,
,,5f4d6c27b03547a378fcb44a,2026-03-17_12h20.23.868,kallum_motion_pilot_GIST_update_2,2026.1.1,Win32,60.24096386,5f4d6c27b03547a378fcb44a,69b92ab4aef6dee357cd729a,69b92ad6cdfd939e2249c997,0.0373,0.0373,1,71,233,27,1,twofour,,,,,,,,,,,,,,,,,,,,,,,,,,,,,,,,,,,,,,,,,,,,,,,,,,,,,,,,,,,,,,,,,,,,,,,,,,,,,,,,,,,,,,,,,,,,,,,,,,,,,,,,,,,,,,,,,,,,,,,,,,,,,,,,,,,,,,,,,
,,5f4d6c27b03547a378fcb44a,2026-03-17_12h20.23.868,kallum_motion_pilot_GIST_update_2,2026.1.1,Win32,60.24096386,5f4d6c27b03547a378fcb44a,69b92ab4aef6dee357cd729a,69b92ad6cdfd939e2249c997,0.0374,0.0374,1,72,234,95,1,eightseven,,,,,,,,,,,,,,,,,,,,,,,,,,,,,,,,,,,,,,,,,,,,,,,,,,,,,,,,,,,,,,,,,,,,,,,,,,,,,,,,,,,,,,,,,,,,,,,,,,,,,,,,,,,,,,,,,,,,,,,,,,,,,,,,,,,,,,,,,
,,5f4d6c27b03547a378fcb44a,2026-03-17_12h20.23.868,kallum_motion_pilot_GIST_update_2,2026.1.1,Win32,60.24096386,5f4d6c27b03547a378fcb44a,69b92ab4aef6dee357cd729a,69b92ad6cdfd939e2249c997,0.0375,0.0375,1,73,235,136,1,fivesix,,,,,,,,,,,,,,,,,,,,,,,,,,,,,,,,,,,,,,,,,,,,,,,,,,,,,,,,,,,,,,,,,,,,,,,,,,,,,,,,,,,,,,,,,,,,,,,,,,,,,,,,,,,,,,,,,,,,,,,,,,,,,,,,,,,,,,,,,
,,5f4d6c27b03547a378fcb44a,2026-03-17_12h20.23.868,kallum_motion_pilot_GIST_update_2,2026.1.1,Win32,60.24096386,5f4d6c27b03547a378fcb44a,69b92ab4aef6dee357cd729a,69b92ad6cdfd939e2249c997,0.0376,0.0376,1,74,236,22,1,fourtwo,,,,,,,,,,,,,,,,,,,,,,,,,,,,,,,,,,,,,,,,,,,,,,,,,,,,,,,,,,,,,,,,,,,,,,,,,,,,,,,,,,,,,,,,,,,,,,,,,,,,,,,,,,,,,,,,,,,,,,,,,,,,,,,,,,,,,,,,,
,,5f4d6c27b03547a378fcb44a,2026-03-17_12h20.23.868,kallum_motion_pilot_GIST_update_2,2026.1.1,Win32,60.24096386,5f4d6c27b03547a378fcb44a,69b92ab4aef6dee357cd729a,69b92ad6cdfd939e2249c997,0.0377,0.0377,1,75,237,144,1,fivesix,,,,,,,,,,,,,,,,,,,,,,,,,,,,,,,,,,,,,,,,,,,,,,,,,,,,,,,,,,,,,,,,,,,,,,,,,,,,,,,,,,,,,,,,,,,,,,,,,,,,,,,,,,,,,,,,,,,,,,,,,,,,,,,,,,,,,,,,,
,,5f4d6c27b03547a378fcb44a,2026-03-17_12h20.23.868,kallum_motion_pilot_GIST_update_2,2026.1.1,Win32,60.24096386,5f4d6c27b03547a378fcb44a,69b92ab4aef6dee357cd729a,69b92ad6cdfd939e2249c997,0.0378,0.0378,1,76,238,52,1,threeone,,,,,,,,,,,,,,,,,,,,,,,,,,,,,,,,,,,,,,,,,,,,,,,,,,,,,,,,,,,,,,,,,,,,,,,,,,,,,,,,,,,,,,,,,,,,,,,,,,,,,,,,,,,,,,,,,,,,,,,,,,,,,,,,,,,,,,,,,
,,5f4d6c27b03547a378fcb44a,2026-03-17_12h20.23.868,kallum_motion_pilot_GIST_update_2,2026.1.1,Win32,60.24096386,5f4d6c27b03547a378fcb44a,69b92ab4aef6dee357cd729a,69b92ad6cdfd939e2249c997,0.0379,0.0379,1,77,239,69,1,threefour,,,,,,,,,,,,,,,,,,,,,,,,,,,,,,,,,,,,,,,,,,,,,,,,,,,,,,,,,,,,,,,,,,,,,,,,,,,,,,,,,,,,,,,,,,,,,,,,,,,,,,,,,,,,,,,,,,,,,,,,,,,,,,,,,,,,,,,,,
,,5f4d6c27b03547a378fcb44a,2026-03-17_12h20.23.868,kallum_motion_pilot_GIST_update_2,2026.1.1,Win32,60.24096386,5f4d6c27b03547a378fcb44a,69b92ab4aef6dee357cd729a,69b92ad6cdfd939e2249c997,0.038,0.038,1,78,240,6,1,fourtwo,,,,,,,,,,,,,,,,,,,,,,,,,,,,,,,,,,,,,,,,,,,,,,,,,,,,,,,,,,,,,,,,,,,,,,,,,,,,,,,,,,,,,,,,,,,,,,,,,,,,,,,,,,,,,,,,,,,,,,,,,,,,,,,,,,,,,,,,,
,,5f4d6c27b03547a378fcb44a,2026-03-17_12h20.23.868,kallum_motion_pilot_GIST_update_2,2026.1.1,Win32,60.24096386,5f4d6c27b03547a378fcb44a,69b92ab4aef6dee357cd729a,69b92ad6cdfd939e2249c997,0.0381,0.0381,1,79,241,12,1,threeone,,,,,,,,,,,,,,,,,,,,,,,,,,,,,,,,,,,,,,,,,,,,,,,,,,,,,,,,,,,,,,,,,,,,,,,,,,,,,,,,,,,,,,,,,,,,,,,,,,,,,,,,,,,,,,,,,,,,,,,,,,,,,,,,,,,,,,,,,
,,5f4d6c27b03547a378fcb44a,2026-03-17_12h20.23.868,kallum_motion_pilot_GIST_update_2,2026.1.1,Win32,60.24096386,5f4d6c27b03547a378fcb44a,69b92ab4aef6dee357cd729a,69b92ad6cdfd939e2249c997,0.0382,0.0382,1,80,242,129,1,fiveseven,,,,,,,,,,,,,,,,,,,,,,,,,,,,,,,,,,,,,,,,,,,,,,,,,,,,,,,,,,,,,,,,,,,,,,,,,,,,,,,,,,,,,,,,,,,,,,,,,,,,,,,,,,,,,,,,,,,,,,,,,,,,,,,,,,,,,,,,,
,,5f4d6c27b03547a378fcb44a,2026-03-17_12h20.23.868,kallum_motion_pilot_GIST_update_2,2026.1.1,Win32,60.24096386,5f4d6c27b03547a378fcb44a,69b92ab4aef6dee357cd729a,69b92ad6cdfd939e2249c997,0.0382,0.0382,1,81,243,17,1,onethree,,,,,,,,,,,,,,,,,,,,,,,,,,,,,,,,,,,,,,,,,,,,,,,,,,,,,,,,,,,,,,,,,,,,,,,,,,,,,,,,,,,,,,,,,,,,,,,,,,,,,,,,,,,,,,,,,,,,,,,,,,,,,,,,,,,,,,,,,
,,5f4d6c27b03547a378fcb44a,2026-03-17_12h20.23.868,kallum_motion_pilot_GIST_update_2,2026.1.1,Win32,60.24096386,5f4d6c27b03547a378fcb44a,69b92ab4aef6dee357cd729a,69b92ad6cdfd939e2249c997,0.0384,0.0384,1,82,244,15,1,fourthree,,,,,,,,,,,,,,,,,,,,,,,,,,,,,,,,,,,,,,,,,,,,,,,,,,,,,,,,,,,,,,,,,,,,,,,,,,,,,,,,,,,,,,,,,,,,,,,,,,,,,,,,,,,,,,,,,,,,,,,,,,,,,,,,,,,,,,,,,
,,5f4d6c27b03547a378fcb44a,2026-03-17_12h20.23.868,kallum_motion_pilot_GIST_update_2,2026.1.1,Win32,60.24096386,5f4d6c27b03547a378fcb44a,69b92ab4aef6dee357cd729a,69b92ad6cdfd939e2249c997,0.0384,0.0384,1,83,245,66,1,twoone,,,,,,,,,,,,,,,,,,,,,,,,,,,,,,,,,,,,,,,,,,,,,,,,,,,,,,,,,,,,,,,,,,,,,,,,,,,,,,,,,,,,,,,,,,,,,,,,,,,,,,,,,,,,,,,,,,,,,,,,,,,,,,,,,,,,,,,,,
,,5f4d6c27b03547a378fcb44a,2026-03-17_12h20.23.868,kallum_motion_pilot_GIST_update_2,2026.1.1,Win32,60.24096386,5f4d6c27b03547a378fcb44a,69b92ab4aef6dee357cd729a,69b92ad6cdfd939e2249c997,0.0386,0.0386,1,84,246,7,1,fourthree,,,,,,,,,,,,,,,,,,,,,,,,,,,,,,,,,,,,,,,,,,,,,,,,,,,,,,,,,,,,,,,,,,,,,,,,,,,,,,,,,,,,,,,,,,,,,,,,,,,,,,,,,,,,,,,,,,,,,,,,,,,,,,,,,,,,,,,,,
,,5f4d6c27b03547a378fcb44a,2026-03-17_12h20.23.868,kallum_motion_pilot_GIST_update_2,2026.1.1,Win32,60.24096386,5f4d6c27b03547a378fcb44a,69b92ab4aef6dee357cd729a,69b92ad6cdfd939e2249c997,0.0387,0.0387,1,85,247,54,1,fourtwo,,,,,,,,,,,,,,,,,,,,,,,,,,,,,,,,,,,,,,,,,,,,,,,,,,,,,,,,,,,,,,,,,,,,,,,,,,,,,,,,,,,,,,,,,,,,,,,,,,,,,,,,,,,,,,,,,,,,,,,,,,,,,,,,,,,,,,,,,
,,5f4d6c27b03547a378fcb44a,2026-03-17_12h20.23.868,kallum_motion_pilot_GIST_update_2,2026.1.1,Win32,60.24096386,5f4d6c27b03547a378fcb44a,69b92ab4aef6dee357cd729a,69b92ad6cdfd939e2249c997,0.0388,0.0388,1,86,248,135,1,eightseven,,,,,,,,,,,,,,,,,,,,,,,,,,,,,,,,,,,,,,,,,,,,,,,,,,,,,,,,,,,,,,,,,,,,,,,,,,,,,,,,,,,,,,,,,,,,,,,,,,,,,,,,,,,,,,,,,,,,,,,,,,,,,,,,,,,,,,,,,
,,5f4d6c27b03547a378fcb44a,2026-03-17_12h20.23.868,kallum_motion_pilot_GIST_update_2,2026.1.1,Win32,60.24096386,5f4d6c27b03547a378fcb44a,69b92ab4aef6dee357cd729a,69b92ad6cdfd939e2249c997,0.0388,0.0388,1,87,249,139,1,sixeight,,,,,,,,,,,,,,,,,,,,,,,,,,,,,,,,,,,,,,,,,,,,,,,,,,,,,,,,,,,,,,,,,,,,,,,,,,,,,,,,,,,,,,,,,,,,,,,,,,,,,,,,,,,,,,,,,,,,,,,,,,,,,,,,,,,,,,,,,
,,5f4d6c27b03547a378fcb44a,2026-03-17_12h20.23.868,kallum_motion_pilot_GIST_update_2,2026.1.1,Win32,60.24096386,5f4d6c27b03547a378fcb44a,69b92ab4aef6dee357cd729a,69b92ad6cdfd939e2249c997,0.039,0.039,1,88,250,82,1,sixfive,,,,,,,,,,,,,,,,,,,,,,,,,,,,,,,,,,,,,,,,,,,,,,,,,,,,,,,,,,,,,,,,,,,,,,,,,,,,,,,,,,,,,,,,,,,,,,,,,,,,,,,,,,,,,,,,,,,,,,,,,,,,,,,,,,,,,,,,,
,,5f4d6c27b03547a378fcb44a,2026-03-17_12h20.23.868,kallum_motion_pilot_GIST_update_2,2026.1.1,Win32,60.24096386,5f4d6c27b03547a378fcb44a,69b92ab4aef6dee357cd729a,69b92ad6cdfd939e2249c997,0.0391,0.0391,1,89,251,1,1,onethree,,,,,,,,,,,,,,,,,,,,,,,,,,,,,,,,,,,,,,,,,,,,,,,,,,,,,,,,,,,,,,,,,,,,,,,,,,,,,,,,,,,,,,,,,,,,,,,,,,,,,,,,,,,,,,,,,,,,,,,,,,,,,,,,,,,,,,,,,
,,5f4d6c27b03547a378fcb44a,2026-03-17_12h20.23.868,kallum_motion_pilot_GIST_update_2,2026.1.1,Win32,60.24096386,5f4d6c27b03547a378fcb44a,69b92ab4aef6dee357cd729a,69b92ad6cdfd939e2249c997,0.0391,0.0391,1,90,252,63,1,fourthree,,,,,,,,,,,,,,,,,,,,,,,,,,,,,,,,,,,,,,,,,,,,,,,,,,,,,,,,,,,,,,,,,,,,,,,,,,,,,,,,,,,,,,,,,,,,,,,,,,,,,,,,,,,,,,,,,,,,,,,,,,,,,,,,,,,,,,,,,
,,5f4d6c27b03547a378fcb44a,2026-03-17_12h20.23.868,kallum_motion_pilot_GIST_update_2,2026.1.1,Win32,60.24096386,5f4d6c27b03547a378fcb44a,69b92ab4aef6dee357cd729a,69b92ad6cdfd939e2249c997,0.0393,0.0393,1,91,253,71,1,fourthree,,,,,,,,,,,,,,,,,,,,,,,,,,,,,,,,,,,,,,,,,,,,,,,,,,,,,,,,,,,,,,,,,,,,,,,,,,,,,,,,,,,,,,,,,,,,,,,,,,,,,,,,,,,,,,,,,,,,,,,,,,,,,,,,,,,,,,,,,
,,5f4d6c27b03547a378fcb44a,2026-03-17_12h20.23.868,kallum_motion_pilot_GIST_update_2,2026.1.1,Win32,60.24096386,5f4d6c27b03547a378fcb44a,69b92ab4aef6dee357cd729a,69b92ad6cdfd939e2249c997,0.0394,0.0394,1,92,254,118,1,eightsix,,,,,,,,,,,,,,,,,,,,,,,,,,,,,,,,,,,,,,,,,,,,,,,,,,,,,,,,,,,,,,,,,,,,,,,,,,,,,,,,,,,,,,,,,,,,,,,,,,,,,,,,,,,,,,,,,,,,,,,,,,,,,,,,,,,,,,,,,
,,5f4d6c27b03547a378fcb44a,2026-03-17_12h20.23.868,kallum_motion_pilot_GIST_update_2,2026.1.1,Win32,60.24096386,5f4d6c27b03547a378fcb44a,69b92ab4aef6dee357cd729a,69b92ad6cdfd939e2249c997,0.0395,0.0395,1,93,255,41,1,onethree,,,,,,,,,,,,,,,,,,,,,,,,,,,,,,,,,,,,,,,,,,,,,,,,,,,,,,,,,,,,,,,,,,,,,,,,,,,,,,,,,,,,,,,,,,,,,,,,,,,,,,,,,,,,,,,,,,,,,,,,,,,,,,,,,,,,,,,,,
,,5f4d6c27b03547a378fcb44a,2026-03-17_12h20.23.868,kallum_motion_pilot_GIST_update_2,2026.1.1,Win32,60.24096386,5f4d6c27b03547a378fcb44a,69b92ab4aef6dee357cd729a,69b92ad6cdfd939e2249c997,0.0396,0.0397,1,94,256,104,1,fivesix,,,,,,,,,,,,,,,,,,,,,,,,,,,,,,,,,,,,,,,,,,,,,,,,,,,,,,,,,,,,,,,,,,,,,,,,,,,,,,,,,,,,,,,,,,,,,,,,,,,,,,,,,,,,,,,,,,,,,,,,,,,,,,,,,,,,,,,,,
,,5f4d6c27b03547a378fcb44a,2026-03-17_12h20.23.868,kallum_motion_pilot_GIST_update_2,2026.1.1,Win32,60.24096386,5f4d6c27b03547a378fcb44a,69b92ab4aef6dee357cd729a,69b92ad6cdfd939e2249c997,0.0398,0.0398,1,95,257,4,1,threeone,,,,,,,,,,,,,,,,,,,,,,,,,,,,,,,,,,,,,,,,,,,,,,,,,,,,,,,,,,,,,,,,,,,,,,,,,,,,,,,,,,,,,,,,,,,,,,,,,,,,,,,,,,,,,,,,,,,,,,,,,,,,,,,,,,,,,,,,,
,,5f4d6c27b03547a378fcb44a,2026-03-17_12h20.23.868,kallum_motion_pilot_GIST_update_2,2026.1.1,Win32,60.24096386,5f4d6c27b03547a378fcb44a,69b92ab4aef6dee357cd729a,69b92ad6cdfd939e2249c997,0.0399,0.0399,1,96,258,79,1,eightseven,,,,,,,,,,,,,,,,,,,,,,,,,,,,,,,,,,,,,,,,,,,,,,,,,,,,,,,,,,,,,,,,,,,,,,,,,,,,,,,,,,,,,,,,,,,,,,,,,,,,,,,,,,,,,,,,,,,,,,,,,,,,,,,,,,,,,,,,,
,,5f4d6c27b03547a378fcb44a,2026-03-17_12h20.23.868,kallum_motion_pilot_GIST_update_2,2026.1.1,Win32,60.24096386,5f4d6c27b03547a378fcb44a,69b92ab4aef6dee357cd729a,69b92ad6cdfd939e2249c997,0.04,0.04,1,97,259,115,1,sixeight,,,,,,,,,,,,,,,,,,,,,,,,,,,,,,,,,,,,,,,,,,,,,,,,,,,,,,,,,,,,,,,,,,,,,,,,,,,,,,,,,,,,,,,,,,,,,,,,,,,,,,,,,,,,,,,,,,,,,,,,,,,,,,,,,,,,,,,,,
,,5f4d6c27b03547a378fcb44a,2026-03-17_12h20.23.868,kallum_motion_pilot_GIST_update_2,2026.1.1,Win32,60.24096386,5f4d6c27b03547a378fcb44a,69b92ab4aef6dee357cd729a,69b92ad6cdfd939e2249c997,0.0401,0.0401,1,98,260,98,1,sixfive,,,,,,,,,,,,,,,,,,,,,,,,,,,,,,,,,,,,,,,,,,,,,,,,,,,,,,,,,,,,,,,,,,,,,,,,,,,,,,,,,,,,,,,,,,,,,,,,,,,,,,,,,,,,,,,,,,,,,,,,,,,,,,,,,,,,,,,,,
,,5f4d6c27b03547a378fcb44a,2026-03-17_12h20.23.868,kallum_motion_pilot_GIST_update_2,2026.1.1,Win32,60.24096386,5f4d6c27b03547a378fcb44a,69b92ab4aef6dee357cd729a,69b92ad6cdfd939e2249c997,0.0402,0.0402,1,99,261,109,1,seveneight,,,,,,,,,,,,,,,,,,,,,,,,,,,,,,,,,,,,,,,,,,,,,,,,,,,,,,,,,,,,,,,,,,,,,,,,,,,,,,,,,,,,,,,,,,,,,,,,,,,,,,,,,,,,,,,,,,,,,,,,,,,,,,,,,,,,,,,,,
,,5f4d6c27b03547a378fcb44a,2026-03-17_12h20.23.868,kallum_motion_pilot_GIST_update_2,2026.1.1,Win32,60.24096386,5f4d6c27b03547a378fcb44a,69b92ab4aef6dee357cd729a,69b92ad6cdfd939e2249c997,0.0403,0.0403,1,100,262,50,1,twoone,,,,,,,,,,,,,,,,,,,,,,,,,,,,,,,,,,,,,,,,,,,,,,,,,,,,,,,,,,,,,,,,,,,,,,,,,,,,,,,,,,,,,,,,,,,,,,,,,,,,,,,,,,,,,,,,,,,,,,,,,,,,,,,,,,,,,,,,,
,,5f4d6c27b03547a378fcb44a,2026-03-17_12h20.23.868,kallum_motion_pilot_GIST_update_2,2026.1.1,Win32,60.24096386,5f4d6c27b03547a378fcb44a,69b92ab4aef6dee357cd729a,69b92ad6cdfd939e2249c997,0.0404,0.0404,1,101,263,149,1,seveneight,,,,,,,,,,,,,,,,,,,,,,,,,,,,,,,,,,,,,,,,,,,,,,,,,,,,,,,,,,,,,,,,,,,,,,,,,,,,,,,,,,,,,,,,,,,,,,,,,,,,,,,,,,,,,,,,,,,,,,,,,,,,,,,,,,,,,,,,,
,,5f4d6c27b03547a378fcb44a,2026-03-17_12h20.23.868,kallum_motion_pilot_GIST_update_2,2026.1.1,Win32,60.24096386,5f4d6c27b03547a378fcb44a,69b92ab4aef6dee357cd729a,69b92ad6cdfd939e2249c997,0.0406,0.0406,1,102,264,116,1,sevenfive,,,,,,,,,,,,,,,,,,,,,,,,,,,,,,,,,,,,,,,,,,,,,,,,,,,,,,,,,,,,,,,,,,,,,,,,,,,,,,,,,,,,,,,,,,,,,,,,,,,,,,,,,,,,,,,,,,,,,,,,,,,,,,,,,,,,,,,,,
,,5f4d6c27b03547a378fcb44a,2026-03-17_12h20.23.868,kallum_motion_pilot_GIST_update_2,2026.1.1,Win32,60.24096386,5f4d6c27b03547a378fcb44a,69b92ab4aef6dee357cd729a,69b92ad6cdfd939e2249c997,0.0407,0.0407,1,103,265,45,1,threefour,,,,,,,,,,,,,,,,,,,,,,,,,,,,,,,,,,,,,,,,,,,,,,,,,,,,,,,,,,,,,,,,,,,,,,,,,,,,,,,,,,,,,,,,,,,,,,,,,,,,,,,,,,,,,,,,,,,,,,,,,,,,,,,,,,,,,,,,,
,,5f4d6c27b03547a378fcb44a,2026-03-17_12h20.23.868,kallum_motion_pilot_GIST_update_2,2026.1.1,Win32,60.24096386,5f4d6c27b03547a378fcb44a,69b92ab4aef6dee357cd729a,69b92ad6cdfd939e2249c997,0.0409,0.0409,1,104,266,75,1,twofour,,,,,,,,,,,,,,,,,,,,,,,,,,,,,,,,,,,,,,,,,,,,,,,,,,,,,,,,,,,,,,,,,,,,,,,,,,,,,,,,,,,,,,,,,,,,,,,,,,,,,,,,,,,,,,,,,,,,,,,,,,,,,,,,,,,,,,,,,
