startup.started,startup.stopped,Prolific ID*,date,expName,psychopyVersion,OS,frameRate,participant,study_id,session,stimpositions.started,stimpositions.stopped,hardcoded_stimulus_positions.thisRepN,hardcoded_stimulus_positions.thisTrialN,hardcoded_stimulus_positions.thisN,hardcoded_stimulus_positions.thisIndex,hardcoded_stimulus_positions.ran,StimulusPos,stimorientation.started,stimorientation.stopped,prac_stimorientation_import_loop.thisRepN,prac_stimorientation_import_loop.thisTrialN,prac_stimorientation_import_loop.thisN,prac_stimorientation_import_loop.thisIndex,prac_stimorientation_import_loop.ran,Stimorientation,welcome_instr.started,welcome_instr.stopped,key_resp.keys,key_resp.rt,key_resp.duration,response_steppedout_1.started,response_steppedout_1.stopped,key_resp_20.keys,key_resp_20.rt,key_resp_20.duration,response_steppedout_2.started,response_steppedout_2.stopped,key_resp_19.keys,key_resp_19.rt,key_resp_19.duration,stim_response_instr.started,stim_response_instr.stopped,key_resp_15.keys,key_resp_15.rt,key_resp_15.duration,direction_instr_2.started,direction_instr_2.stopped,key_resp_9.keys,key_resp_9.rt,key_resp_9.duration,instr_prac.started,instr_prac.stopped,key_resp_10.keys,key_resp_10.rt,key_resp_10.duration,Stim1_display_prac.started,Stim1_display_prac.stopped,Ecc,Circle1_ori,Circle2_ori,response_prac.started,similarity,response_time,response_prac.stopped,mouse_5.x,mouse_5.y,mouse_5.leftButton,mouse_5.midButton,mouse_5.rightButton,mouse_5.clicked_name,responseprac_feedback.started,responseprac_feedback.stopped,summary2_prac.started,summary2_prac.stopped,mouse_6.x,mouse_6.y,mouse_6.leftButton,mouse_6.midButton,mouse_6.rightButton,mouse_6.clicked_name,duringprac.thisRepN,duringprac.thisTrialN,duringprac.thisN,duringprac.thisIndex,duringprac.ran,begin.started,begin.stopped,key_resp_22.keys,key_resp_22.rt,key_resp_22.duration,Stim1_display.started,Stim1_display.stopped,circle1_ori,circle2_ori,circle1_SF,circle2_SF,response.started,response.stopped,mouse.x,mouse.y,mouse.leftButton,mouse.midButton,mouse.rightButton,mouse.clicked_name,trialnumber,double_pass.thisRepN,double_pass.thisTrialN,double_pass.thisN,double_pass.thisIndex,double_pass.ran,double_pass.order,main_trial.thisRepN,main_trial.thisTrialN,main_trial.thisN,main_trial.thisIndex,main_trial.ran,main_trial.order,Trial_Counter,Catch,Frequencies,response_2.started,response_2.stopped,mouse_2.x,mouse_2.y,mouse_2.leftButton,mouse_2.midButton,mouse_2.rightButton,mouse_2.clicked_name,special_trial.started,special_trial.stopped,catch_1.started,catch_1.stopped,mouse_3.x,mouse_3.y,mouse_3.leftButton,mouse_3.midButton,mouse_3.rightButton,catchresponse,catchnumber,response_time_catch,response_sum.started,response_sum.stopped,mouse_11.x,mouse_11.y,mouse_11.leftButton,mouse_11.midButton,mouse_11.rightButton,flip_presentation_sequence_for_double_pass.started,flip_presentation_sequence_for_double_pass.stopped,goodbye.started,goodbye.stopped,key_resp_3.keys,key_resp_3.rt,key_resp_3.duration
0.0005,0.0008,5f78e7a0d14cd84e060fde57,2026-03-17_12h24.37.724,kallum_motion_pilot_GIST_update_2,2026.1.1,Win32,30.58103976,5f78e7a0d14cd84e060fde57,69b92ab4aef6dee357cd729a,69b92ae2167b544edee6d8ce,,,,,,,,,,,,,,,,,,,,,,,,,,,,,,,,,,,,,,,,,,,,,,,,,,,,,,,,,,,,,,,,,,,,,,,,,,,,,,,,,,,,,,,,,,,,,,,,,,,,,,,,,,,,,,,,,,,,,,,,,,,,,,,,,,,,,,,,,,,,,,,,,
,,5f78e7a0d14cd84e060fde57,2026-03-17_12h24.37.724,kallum_motion_pilot_GIST_update_2,2026.1.1,Win32,30.58103976,5f78e7a0d14cd84e060fde57,69b92ab4aef6dee357cd729a,69b92ae2167b544edee6d8ce,0.0433,0.0436,0,0,0,19,1,twofour,,,,,,,,,,,,,,,,,,,,,,,,,,,,,,,,,,,,,,,,,,,,,,,,,,,,,,,,,,,,,,,,,,,,,,,,,,,,,,,,,,,,,,,,,,,,,,,,,,,,,,,,,,,,,,,,,,,,,,,,,,,,,,,,,,,,,,,,,
,,5f78e7a0d14cd84e060fde57,2026-03-17_12h24.37.724,kallum_motion_pilot_GIST_update_2,2026.1.1,Win32,30.58103976,5f78e7a0d14cd84e060fde57,69b92ab4aef6dee357cd729a,69b92ae2167b544edee6d8ce,0.0441,0.0441,0,1,1,85,1,seveneight,,,,,,,,,,,,,,,,,,,,,,,,,,,,,,,,,,,,,,,,,,,,,,,,,,,,,,,,,,,,,,,,,,,,,,,,,,,,,,,,,,,,,,,,,,,,,,,,,,,,,,,,,,,,,,,,,,,,,,,,,,,,,,,,,,,,,,,,,
,,5f78e7a0d14cd84e060fde57,2026-03-17_12h24.37.724,kallum_motion_pilot_GIST_update_2,2026.1.1,Win32,30.58103976,5f78e7a0d14cd84e060fde57,69b92ab4aef6dee357cd729a,69b92ae2167b544edee6d8ce,0.0445,0.0445,0,2,2,140,1,sevenfive,,,,,,,,,,,,,,,,,,,,,,,,,,,,,,,,,,,,,,,,,,,,,,,,,,,,,,,,,,,,,,,,,,,,,,,,,,,,,,,,,,,,,,,,,,,,,,,,,,,,,,,,,,,,,,,,,,,,,,,,,,,,,,,,,,,,,,,,,
,,5f78e7a0d14cd84e060fde57,2026-03-17_12h24.37.724,kallum_motion_pilot_GIST_update_2,2026.1.1,Win32,30.58103976,5f78e7a0d14cd84e060fde57,69b92ab4aef6dee357cd729a,69b92ae2167b544edee6d8ce,0.045,0.045,0,3,3,70,1,fourtwo,,,,,,,,,,,,,,,,,,,,,,,,,,,,,,,,,,,,,,,,,,,,,,,,,,,,,,,,,,,,,,,,,,,,,,,,,,,,,,,,,,,,,,,,,,,,,,,,,,,,,,,,,,,,,,,,,,,,,,,,,,,,,,,,,,,,,,,,,
,,5f78e7a0d14cd84e060fde57,2026-03-17_12h24.37.724,kallum_motion_pilot_GIST_update_2,2026.1.1,Win32,30.58103976,5f78e7a0d14cd84e060fde57,69b92ab4aef6dee357cd729a,69b92ae2167b544edee6d8ce,0.0457,0.0457,0,4,4,149,1,seveneight,,,,,,,,,,,,,,,,,,,,,,,,,,,,,,,,,,,,,,,,,,,,,,,,,,,,,,,,,,,,,,,,,,,,,,,,,,,,,,,,,,,,,,,,,,,,,,,,,,,,,,,,,,,,,,,,,,,,,,,,,,,,,,,,,,,,,,,,,
,,5f78e7a0d14cd84e060fde57,2026-03-17_12h24.37.724,kallum_motion_pilot_GIST_update_2,2026.1.1,Win32,30.58103976,5f78e7a0d14cd84e060fde57,69b92ab4aef6dee357cd729a,69b92ae2167b544edee6d8ce,0.0461,0.0461,0,5,5,98,1,sixfive,,,,,,,,,,,,,,,,,,,,,,,,,,,,,,,,,,,,,,,,,,,,,,,,,,,,,,,,,,,,,,,,,,,,,,,,,,,,,,,,,,,,,,,,,,,,,,,,,,,,,,,,,,,,,,,,,,,,,,,,,,,,,,,,,,,,,,,,,
,,5f78e7a0d14cd84e060fde57,2026-03-17_12h24.37.724,kallum_motion_pilot_GIST_update_2,2026.1.1,Win32,30.58103976,5f78e7a0d14cd84e060fde57,69b92ab4aef6dee357cd729a,69b92ae2167b544edee6d8ce,0.0464,0.0465,0,6,6,103,1,eightseven,,,,,,,,,,,,,,,,,,,,,,,,,,,,,,,,,,,,,,,,,,,,,,,,,,,,,,,,,,,,,,,,,,,,,,,,,,,,,,,,,,,,,,,,,,,,,,,,,,,,,,,,,,,,,,,,,,,,,,,,,,,,,,,,,,,,,,,,,
,,5f78e7a0d14cd84e060fde57,2026-03-17_12h24.37.724,kallum_motion_pilot_GIST_update_2,2026.1.1,Win32,30.58103976,5f78e7a0d14cd84e060fde57,69b92ab4aef6dee357cd729a,69b92ae2167b544edee6d8ce,0.0467,0.0467,0,7,7,73,1,onethree,,,,,,,,,,,,,,,,,,,,,,,,,,,,,,,,,,,,,,,,,,,,,,,,,,,,,,,,,,,,,,,,,,,,,,,,,,,,,,,,,,,,,,,,,,,,,,,,,,,,,,,,,,,,,,,,,,,,,,,,,,,,,,,,,,,,,,,,,
,,5f78e7a0d14cd84e060fde57,2026-03-17_12h24.37.724,kallum_motion_pilot_GIST_update_2,2026.1.1,Win32,30.58103976,5f78e7a0d14cd84e060fde57,69b92ab4aef6dee357cd729a,69b92ae2167b544edee6d8ce,0.047,0.0471,0,8,8,37,1,threefour,,,,,,,,,,,,,,,,,,,,,,,,,,,,,,,,,,,,,,,,,,,,,,,,,,,,,,,,,,,,,,,,,,,,,,,,,,,,,,,,,,,,,,,,,,,,,,,,,,,,,,,,,,,,,,,,,,,,,,,,,,,,,,,,,,,,,,,,,
,,5f78e7a0d14cd84e060fde57,2026-03-17_12h24.37.724,kallum_motion_pilot_GIST_update_2,2026.1.1,Win32,30.58103976,5f78e7a0d14cd84e060fde57,69b92ab4aef6dee357cd729a,69b92ae2167b544edee6d8ce,0.0473,0.0474,0,9,9,157,1,seveneight,,,,,,,,,,,,,,,,,,,,,,,,,,,,,,,,,,,,,,,,,,,,,,,,,,,,,,,,,,,,,,,,,,,,,,,,,,,,,,,,,,,,,,,,,,,,,,,,,,,,,,,,,,,,,,,,,,,,,,,,,,,,,,,,,,,,,,,,,
,,5f78e7a0d14cd84e060fde57,2026-03-17_12h24.37.724,kallum_motion_pilot_GIST_update_2,2026.1.1,Win32,30.58103976,5f78e7a0d14cd84e060fde57,69b92ab4aef6dee357cd729a,69b92ae2167b544edee6d8ce,0.0477,0.0477,0,10,10,126,1,eightsix,,,,,,,,,,,,,,,,,,,,,,,,,,,,,,,,,,,,,,,,,,,,,,,,,,,,,,,,,,,,,,,,,,,,,,,,,,,,,,,,,,,,,,,,,,,,,,,,,,,,,,,,,,,,,,,,,,,,,,,,,,,,,,,,,,,,,,,,,
,,5f78e7a0d14cd84e060fde57,2026-03-17_12h24.37.724,kallum_motion_pilot_GIST_update_2,2026.1.1,Win32,30.58103976,5f78e7a0d14cd84e060fde57,69b92ab4aef6dee357cd729a,69b92ae2167b544edee6d8ce,0.0479,0.0479,0,11,11,4,1,threeone,,,,,,,,,,,,,,,,,,,,,,,,,,,,,,,,,,,,,,,,,,,,,,,,,,,,,,,,,,,,,,,,,,,,,,,,,,,,,,,,,,,,,,,,,,,,,,,,,,,,,,,,,,,,,,,,,,,,,,,,,,,,,,,,,,,,,,,,,
,,5f78e7a0d14cd84e060fde57,2026-03-17_12h24.37.724,kallum_motion_pilot_GIST_update_2,2026.1.1,Win32,30.58103976,5f78e7a0d14cd84e060fde57,69b92ab4aef6dee357cd729a,69b92ae2167b544edee6d8ce,0.0482,0.0483,0,12,12,58,1,twoone,,,,,,,,,,,,,,,,,,,,,,,,,,,,,,,,,,,,,,,,,,,,,,,,,,,,,,,,,,,,,,,,,,,,,,,,,,,,,,,,,,,,,,,,,,,,,,,,,,,,,,,,,,,,,,,,,,,,,,,,,,,,,,,,,,,,,,,,,
,,5f78e7a0d14cd84e060fde57,2026-03-17_12h24.37.724,kallum_motion_pilot_GIST_update_2,2026.1.1,Win32,30.58103976,5f78e7a0d14cd84e060fde57,69b92ab4aef6dee357cd729a,69b92ae2167b544edee6d8ce,0.0486,0.0486,0,13,13,87,1,eightseven,,,,,,,,,,,,,,,,,,,,,,,,,,,,,,,,,,,,,,,,,,,,,,,,,,,,,,,,,,,,,,,,,,,,,,,,,,,,,,,,,,,,,,,,,,,,,,,,,,,,,,,,,,,,,,,,,,,,,,,,,,,,,,,,,,,,,,,,,
,,5f78e7a0d14cd84e060fde57,2026-03-17_12h24.37.724,kallum_motion_pilot_GIST_update_2,2026.1.1,Win32,30.58103976,5f78e7a0d14cd84e060fde57,69b92ab4aef6dee357cd729a,69b92ae2167b544edee6d8ce,0.0488,0.0488,0,14,14,147,1,sixeight,,,,,,,,,,,,,,,,,,,,,,,,,,,,,,,,,,,,,,,,,,,,,,,,,,,,,,,,,,,,,,,,,,,,,,,,,,,,,,,,,,,,,,,,,,,,,,,,,,,,,,,,,,,,,,,,,,,,,,,,,,,,,,,,,,,,,,,,,
,,5f78e7a0d14cd84e060fde57,2026-03-17_12h24.37.724,kallum_motion_pilot_GIST_update_2,2026.1.1,Win32,30.58103976,5f78e7a0d14cd84e060fde57,69b92ab4aef6dee357cd729a,69b92ae2167b544edee6d8ce,0.0491,0.0491,0,15,15,64,1,onetwo,,,,,,,,,,,,,,,,,,,,,,,,,,,,,,,,,,,,,,,,,,,,,,,,,,,,,,,,,,,,,,,,,,,,,,,,,,,,,,,,,,,,,,,,,,,,,,,,,,,,,,,,,,,,,,,,,,,,,,,,,,,,,,,,,,,,,,,,,
,,5f78e7a0d14cd84e060fde57,2026-03-17_12h24.37.724,kallum_motion_pilot_GIST_update_2,2026.1.1,Win32,30.58103976,5f78e7a0d14cd84e060fde57,69b92ab4aef6dee357cd729a,69b92ae2167b544edee6d8ce,0.0494,0.0494,0,16,16,117,1,seveneight,,,,,,,,,,,,,,,,,,,,,,,,,,,,,,,,,,,,,,,,,,,,,,,,,,,,,,,,,,,,,,,,,,,,,,,,,,,,,,,,,,,,,,,,,,,,,,,,,,,,,,,,,,,,,,,,,,,,,,,,,,,,,,,,,,,,,,,,,
,,5f78e7a0d14cd84e060fde57,2026-03-17_12h24.37.724,kallum_motion_pilot_GIST_update_2,2026.1.1,Win32,30.58103976,5f78e7a0d14cd84e060fde57,69b92ab4aef6dee357cd729a,69b92ae2167b544edee6d8ce,0.0496,0.0497,0,17,17,50,1,twoone,,,,,,,,,,,,,,,,,,,,,,,,,,,,,,,,,,,,,,,,,,,,,,,,,,,,,,,,,,,,,,,,,,,,,,,,,,,,,,,,,,,,,,,,,,,,,,,,,,,,,,,,,,,,,,,,,,,,,,,,,,,,,,,,,,,,,,,,,
,,5f78e7a0d14cd84e060fde57,2026-03-17_12h24.37.724,kallum_motion_pilot_GIST_update_2,2026.1.1,Win32,30.58103976,5f78e7a0d14cd84e060fde57,69b92ab4aef6dee357cd729a,69b92ae2167b544edee6d8ce,0.0499,0.05,0,18,18,68,1,threeone,,,,,,,,,,,,,,,,,,,,,,,,,,,,,,,,,,,,,,,,,,,,,,,,,,,,,,,,,,,,,,,,,,,,,,,,,,,,,,,,,,,,,,,,,,,,,,,,,,,,,,,,,,,,,,,,,,,,,,,,,,,,,,,,,,,,,,,,,
,,5f78e7a0d14cd84e060fde57,2026-03-17_12h24.37.724,kallum_motion_pilot_GIST_update_2,2026.1.1,Win32,30.58103976,5f78e7a0d14cd84e060fde57,69b92ab4aef6dee357cd729a,69b92ae2167b544edee6d8ce,0.0502,0.0503,0,19,19,130,1,sixfive,,,,,,,,,,,,,,,,,,,,,,,,,,,,,,,,,,,,,,,,,,,,,,,,,,,,,,,,,,,,,,,,,,,,,,,,,,,,,,,,,,,,,,,,,,,,,,,,,,,,,,,,,,,,,,,,,,,,,,,,,,,,,,,,,,,,,,,,,
,,5f78e7a0d14cd84e060fde57,2026-03-17_12h24.37.724,kallum_motion_pilot_GIST_update_2,2026.1.1,Win32,30.58103976,5f78e7a0d14cd84e060fde57,69b92ab4aef6dee357cd729a,69b92ae2167b544edee6d8ce,0.0505,0.0505,0,20,20,99,1,sixeight,,,,,,,,,,,,,,,,,,,,,,,,,,,,,,,,,,,,,,,,,,,,,,,,,,,,,,,,,,,,,,,,,,,,,,,,,,,,,,,,,,,,,,,,,,,,,,,,,,,,,,,,,,,,,,,,,,,,,,,,,,,,,,,,,,,,,,,,,
,,5f78e7a0d14cd84e060fde57,2026-03-17_12h24.37.724,kallum_motion_pilot_GIST_update_2,2026.1.1,Win32,30.58103976,5f78e7a0d14cd84e060fde57,69b92ab4aef6dee357cd729a,69b92ae2167b544edee6d8ce,0.0508,0.0508,0,21,21,66,1,twoone,,,,,,,,,,,,,,,,,,,,,,,,,,,,,,,,,,,,,,,,,,,,,,,,,,,,,,,,,,,,,,,,,,,,,,,,,,,,,,,,,,,,,,,,,,,,,,,,,,,,,,,,,,,,,,,,,,,,,,,,,,,,,,,,,,,,,,,,,
,,5f78e7a0d14cd84e060fde57,2026-03-17_12h24.37.724,kallum_motion_pilot_GIST_update_2,2026.1.1,Win32,30.58103976,5f78e7a0d14cd84e060fde57,69b92ab4aef6dee357cd729a,69b92ae2167b544edee6d8ce,0.0511,0.0511,0,22,22,48,1,onetwo,,,,,,,,,,,,,,,,,,,,,,,,,,,,,,,,,,,,,,,,,,,,,,,,,,,,,,,,,,,,,,,,,,,,,,,,,,,,,,,,,,,,,,,,,,,,,,,,,,,,,,,,,,,,,,,,,,,,,,,,,,,,,,,,,,,,,,,,,
,,5f78e7a0d14cd84e060fde57,2026-03-17_12h24.37.724,kallum_motion_pilot_GIST_update_2,2026.1.1,Win32,30.58103976,5f78e7a0d14cd84e060fde57,69b92ab4aef6dee357cd729a,69b92ae2167b544edee6d8ce,0.0515,0.0515,0,23,23,46,1,fourtwo,,,,,,,,,,,,,,,,,,,,,,,,,,,,,,,,,,,,,,,,,,,,,,,,,,,,,,,,,,,,,,,,,,,,,,,,,,,,,,,,,,,,,,,,,,,,,,,,,,,,,,,,,,,,,,,,,,,,,,,,,,,,,,,,,,,,,,,,,
,,5f78e7a0d14cd84e060fde57,2026-03-17_12h24.37.724,kallum_motion_pilot_GIST_update_2,2026.1.1,Win32,30.58103976,5f78e7a0d14cd84e060fde57,69b92ab4aef6dee357cd729a,69b92ae2167b544edee6d8ce,0.0518,0.0518,0,24,24,56,1,onetwo,,,,,,,,,,,,,,,,,,,,,,,,,,,,,,,,,,,,,,,,,,,,,,,,,,,,,,,,,,,,,,,,,,,,,,,,,,,,,,,,,,,,,,,,,,,,,,,,,,,,,,,,,,,,,,,,,,,,,,,,,,,,,,,,,,,,,,,,,
,,5f78e7a0d14cd84e060fde57,2026-03-17_12h24.37.724,kallum_motion_pilot_GIST_update_2,2026.1.1,Win32,30.58103976,5f78e7a0d14cd84e060fde57,69b92ab4aef6dee357cd729a,69b92ae2167b544edee6d8ce,0.0521,0.0522,0,25,25,9,1,onethree,,,,,,,,,,,,,,,,,,,,,,,,,,,,,,,,,,,,,,,,,,,,,,,,,,,,,,,,,,,,,,,,,,,,,,,,,,,,,,,,,,,,,,,,,,,,,,,,,,,,,,,,,,,,,,,,,,,,,,,,,,,,,,,,,,,,,,,,,
,,5f78e7a0d14cd84e060fde57,2026-03-17_12h24.37.724,kallum_motion_pilot_GIST_update_2,2026.1.1,Win32,30.58103976,5f78e7a0d14cd84e060fde57,69b92ab4aef6dee357cd729a,69b92ae2167b544edee6d8ce,0.0524,0.0524,0,26,26,95,1,eightseven,,,,,,,,,,,,,,,,,,,,,,,,,,,,,,,,,,,,,,,,,,,,,,,,,,,,,,,,,,,,,,,,,,,,,,,,,,,,,,,,,,,,,,,,,,,,,,,,,,,,,,,,,,,,,,,,,,,,,,,,,,,,,,,,,,,,,,,,,
,,5f78e7a0d14cd84e060fde57,2026-03-17_12h24.37.724,kallum_motion_pilot_GIST_update_2,2026.1.1,Win32,30.58103976,5f78e7a0d14cd84e060fde57,69b92ab4aef6dee357cd729a,69b92ae2167b544edee6d8ce,0.0527,0.0527,0,27,27,61,1,threefour,,,,,,,,,,,,,,,,,,,,,,,,,,,,,,,,,,,,,,,,,,,,,,,,,,,,,,,,,,,,,,,,,,,,,,,,,,,,,,,,,,,,,,,,,,,,,,,,,,,,,,,,,,,,,,,,,,,,,,,,,,,,,,,,,,,,,,,,,
,,5f78e7a0d14cd84e060fde57,2026-03-17_12h24.37.724,kallum_motion_pilot_GIST_update_2,2026.1.1,Win32,30.58103976,5f78e7a0d14cd84e060fde57,69b92ab4aef6dee357cd729a,69b92ae2167b544edee6d8ce,0.0529,0.0529,0,28,28,10,1,twoone,,,,,,,,,,,,,,,,,,,,,,,,,,,,,,,,,,,,,,,,,,,,,,,,,,,,,,,,,,,,,,,,,,,,,,,,,,,,,,,,,,,,,,,,,,,,,,,,,,,,,,,,,,,,,,,,,,,,,,,,,,,,,,,,,,,,,,,,,
,,5f78e7a0d14cd84e060fde57,2026-03-17_12h24.37.724,kallum_motion_pilot_GIST_update_2,2026.1.1,Win32,30.58103976,5f78e7a0d14cd84e060fde57,69b92ab4aef6dee357cd729a,69b92ae2167b544edee6d8ce,0.0532,0.0532,0,29,29,82,1,sixfive,,,,,,,,,,,,,,,,,,,,,,,,,,,,,,,,,,,,,,,,,,,,,,,,,,,,,,,,,,,,,,,,,,,,,,,,,,,,,,,,,,,,,,,,,,,,,,,,,,,,,,,,,,,,,,,,,,,,,,,,,,,,,,,,,,,,,,,,,
,,5f78e7a0d14cd84e060fde57,2026-03-17_12h24.37.724,kallum_motion_pilot_GIST_update_2,2026.1.1,Win32,30.58103976,5f78e7a0d14cd84e060fde57,69b92ab4aef6dee357cd729a,69b92ae2167b544edee6d8ce,0.0535,0.0535,0,30,30,110,1,eightsix,,,,,,,,,,,,,,,,,,,,,,,,,,,,,,,,,,,,,,,,,,,,,,,,,,,,,,,,,,,,,,,,,,,,,,,,,,,,,,,,,,,,,,,,,,,,,,,,,,,,,,,,,,,,,,,,,,,,,,,,,,,,,,,,,,,,,,,,,
,,5f78e7a0d14cd84e060fde57,2026-03-17_12h24.37.724,kallum_motion_pilot_GIST_update_2,2026.1.1,Win32,30.58103976,5f78e7a0d14cd84e060fde57,69b92ab4aef6dee357cd729a,69b92ae2167b544edee6d8ce,0.0538,0.0538,0,31,31,60,1,threeone,,,,,,,,,,,,,,,,,,,,,,,,,,,,,,,,,,,,,,,,,,,,,,,,,,,,,,,,,,,,,,,,,,,,,,,,,,,,,,,,,,,,,,,,,,,,,,,,,,,,,,,,,,,,,,,,,,,,,,,,,,,,,,,,,,,,,,,,,
,,5f78e7a0d14cd84e060fde57,2026-03-17_12h24.37.724,kallum_motion_pilot_GIST_update_2,2026.1.1,Win32,30.58103976,5f78e7a0d14cd84e060fde57,69b92ab4aef6dee357cd729a,69b92ae2167b544edee6d8ce,0.055,0.055,0,32,32,43,1,twofour,,,,,,,,,,,,,,,,,,,,,,,,,,,,,,,,,,,,,,,,,,,,,,,,,,,,,,,,,,,,,,,,,,,,,,,,,,,,,,,,,,,,,,,,,,,,,,,,,,,,,,,,,,,,,,,,,,,,,,,,,,,,,,,,,,,,,,,,,
,,5f78e7a0d14cd84e060fde57,2026-03-17_12h24.37.724,kallum_motion_pilot_GIST_update_2,2026.1.1,Win32,30.58103976,5f78e7a0d14cd84e060fde57,69b92ab4aef6dee357cd729a,69b92ae2167b544edee6d8ce,0.0558,0.0558,0,33,33,112,1,fivesix,,,,,,,,,,,,,,,,,,,,,,,,,,,,,,,,,,,,,,,,,,,,,,,,,,,,,,,,,,,,,,,,,,,,,,,,,,,,,,,,,,,,,,,,,,,,,,,,,,,,,,,,,,,,,,,,,,,,,,,,,,,,,,,,,,,,,,,,,
,,5f78e7a0d14cd84e060fde57,2026-03-17_12h24.37.724,kallum_motion_pilot_GIST_update_2,2026.1.1,Win32,30.58103976,5f78e7a0d14cd84e060fde57,69b92ab4aef6dee357cd729a,69b92ae2167b544edee6d8ce,0.0564,0.0564,0,34,34,53,1,threefour,,,,,,,,,,,,,,,,,,,,,,,,,,,,,,,,,,,,,,,,,,,,,,,,,,,,,,,,,,,,,,,,,,,,,,,,,,,,,,,,,,,,,,,,,,,,,,,,,,,,,,,,,,,,,,,,,,,,,,,,,,,,,,,,,,,,,,,,,
,,5f78e7a0d14cd84e060fde57,2026-03-17_12h24.37.724,kallum_motion_pilot_GIST_update_2,2026.1.1,Win32,30.58103976,5f78e7a0d14cd84e060fde57,69b92ab4aef6dee357cd729a,69b92ae2167b544edee6d8ce,0.0568,0.0568,0,35,35,138,1,sixfive,,,,,,,,,,,,,,,,,,,,,,,,,,,,,,,,,,,,,,,,,,,,,,,,,,,,,,,,,,,,,,,,,,,,,,,,,,,,,,,,,,,,,,,,,,,,,,,,,,,,,,,,,,,,,,,,,,,,,,,,,,,,,,,,,,,,,,,,,
,,5f78e7a0d14cd84e060fde57,2026-03-17_12h24.37.724,kallum_motion_pilot_GIST_update_2,2026.1.1,Win32,30.58103976,5f78e7a0d14cd84e060fde57,69b92ab4aef6dee357cd729a,69b92ae2167b544edee6d8ce,0.0572,0.0573,0,36,36,120,1,fivesix,,,,,,,,,,,,,,,,,,,,,,,,,,,,,,,,,,,,,,,,,,,,,,,,,,,,,,,,,,,,,,,,,,,,,,,,,,,,,,,,,,,,,,,,,,,,,,,,,,,,,,,,,,,,,,,,,,,,,,,,,,,,,,,,,,,,,,,,,
,,5f78e7a0d14cd84e060fde57,2026-03-17_12h24.37.724,kallum_motion_pilot_GIST_update_2,2026.1.1,Win32,30.58103976,5f78e7a0d14cd84e060fde57,69b92ab4aef6dee357cd729a,69b92ae2167b544edee6d8ce,0.0576,0.0576,0,37,37,116,1,sevenfive,,,,,,,,,,,,,,,,,,,,,,,,,,,,,,,,,,,,,,,,,,,,,,,,,,,,,,,,,,,,,,,,,,,,,,,,,,,,,,,,,,,,,,,,,,,,,,,,,,,,,,,,,,,,,,,,,,,,,,,,,,,,,,,,,,,,,,,,,
,,5f78e7a0d14cd84e060fde57,2026-03-17_12h24.37.724,kallum_motion_pilot_GIST_update_2,2026.1.1,Win32,30.58103976,5f78e7a0d14cd84e060fde57,69b92ab4aef6dee357cd729a,69b92ae2167b544edee6d8ce,0.0578,0.0579,0,38,38,158,1,eightsix,,,,,,,,,,,,,,,,,,,,,,,,,,,,,,,,,,,,,,,,,,,,,,,,,,,,,,,,,,,,,,,,,,,,,,,,,,,,,,,,,,,,,,,,,,,,,,,,,,,,,,,,,,,,,,,,,,,,,,,,,,,,,,,,,,,,,,,,,
,,5f78e7a0d14cd84e060fde57,2026-03-17_12h24.37.724,kallum_motion_pilot_GIST_update_2,2026.1.1,Win32,30.58103976,5f78e7a0d14cd84e060fde57,69b92ab4aef6dee357cd729a,69b92ae2167b544edee6d8ce,0.0582,0.0582,0,39,39,161,1,fiveseven,,,,,,,,,,,,,,,,,,,,,,,,,,,,,,,,,,,,,,,,,,,,,,,,,,,,,,,,,,,,,,,,,,,,,,,,,,,,,,,,,,,,,,,,,,,,,,,,,,,,,,,,,,,,,,,,,,,,,,,,,,,,,,,,,,,,,,,,,
,,5f78e7a0d14cd84e060fde57,2026-03-17_12h24.37.724,kallum_motion_pilot_GIST_update_2,2026.1.1,Win32,30.58103976,5f78e7a0d14cd84e060fde57,69b92ab4aef6dee357cd729a,69b92ae2167b544edee6d8ce,0.0587,0.0587,0,40,40,24,1,onetwo,,,,,,,,,,,,,,,,,,,,,,,,,,,,,,,,,,,,,,,,,,,,,,,,,,,,,,,,,,,,,,,,,,,,,,,,,,,,,,,,,,,,,,,,,,,,,,,,,,,,,,,,,,,,,,,,,,,,,,,,,,,,,,,,,,,,,,,,,
,,5f78e7a0d14cd84e060fde57,2026-03-17_12h24.37.724,kallum_motion_pilot_GIST_update_2,2026.1.1,Win32,30.58103976,5f78e7a0d14cd84e060fde57,69b92ab4aef6dee357cd729a,69b92ae2167b544edee6d8ce,0.0589,0.0589,0,41,41,104,1,fivesix,,,,,,,,,,,,,,,,,,,,,,,,,,,,,,,,,,,,,,,,,,,,,,,,,,,,,,,,,,,,,,,,,,,,,,,,,,,,,,,,,,,,,,,,,,,,,,,,,,,,,,,,,,,,,,,,,,,,,,,,,,,,,,,,,,,,,,,,,
,,5f78e7a0d14cd84e060fde57,2026-03-17_12h24.37.724,kallum_motion_pilot_GIST_update_2,2026.1.1,Win32,30.58103976,5f78e7a0d14cd84e060fde57,69b92ab4aef6dee357cd729a,69b92ae2167b544edee6d8ce,0.0592,0.0592,0,42,42,150,1,eightsix,,,,,,,,,,,,,,,,,,,,,,,,,,,,,,,,,,,,,,,,,,,,,,,,,,,,,,,,,,,,,,,,,,,,,,,,,,,,,,,,,,,,,,,,,,,,,,,,,,,,,,,,,,,,,,,,,,,,,,,,,,,,,,,,,,,,,,,,,
,,5f78e7a0d14cd84e060fde57,2026-03-17_12h24.37.724,kallum_motion_pilot_GIST_update_2,2026.1.1,Win32,30.58103976,5f78e7a0d14cd84e060fde57,69b92ab4aef6dee357cd729a,69b92ae2167b544edee6d8ce,0.0595,0.0595,0,43,43,139,1,sixeight,,,,,,,,,,,,,,,,,,,,,,,,,,,,,,,,,,,,,,,,,,,,,,,,,,,,,,,,,,,,,,,,,,,,,,,,,,,,,,,,,,,,,,,,,,,,,,,,,,,,,,,,,,,,,,,,,,,,,,,,,,,,,,,,,,,,,,,,,
,,5f78e7a0d14cd84e060fde57,2026-03-17_12h24.37.724,kallum_motion_pilot_GIST_update_2,2026.1.1,Win32,30.58103976,5f78e7a0d14cd84e060fde57,69b92ab4aef6dee357cd729a,69b92ae2167b544edee6d8ce,0.0598,0.0598,0,44,44,29,1,threefour,,,,,,,,,,,,,,,,,,,,,,,,,,,,,,,,,,,,,,,,,,,,,,,,,,,,,,,,,,,,,,,,,,,,,,,,,,,,,,,,,,,,,,,,,,,,,,,,,,,,,,,,,,,,,,,,,,,,,,,,,,,,,,,,,,,,,,,,,
,,5f78e7a0d14cd84e060fde57,2026-03-17_12h24.37.724,kallum_motion_pilot_GIST_update_2,2026.1.1,Win32,30.58103976,5f78e7a0d14cd84e060fde57,69b92ab4aef6dee357cd729a,69b92ae2167b544edee6d8ce,0.06,0.0601,0,45,45,77,1,threefour,,,,,,,,,,,,,,,,,,,,,,,,,,,,,,,,,,,,,,,,,,,,,,,,,,,,,,,,,,,,,,,,,,,,,,,,,,,,,,,,,,,,,,,,,,,,,,,,,,,,,,,,,,,,,,,,,,,,,,,,,,,,,,,,,,,,,,,,,
,,5f78e7a0d14cd84e060fde57,2026-03-17_12h24.37.724,kallum_motion_pilot_GIST_update_2,2026.1.1,Win32,30.58103976,5f78e7a0d14cd84e060fde57,69b92ab4aef6dee357cd729a,69b92ae2167b544edee6d8ce,0.0603,0.0604,0,46,46,67,1,twofour,,,,,,,,,,,,,,,,,,,,,,,,,,,,,,,,,,,,,,,,,,,,,,,,,,,,,,,,,,,,,,,,,,,,,,,,,,,,,,,,,,,,,,,,,,,,,,,,,,,,,,,,,,,,,,,,,,,,,,,,,,,,,,,,,,,,,,,,,
,,5f78e7a0d14cd84e060fde57,2026-03-17_12h24.37.724,kallum_motion_pilot_GIST_update_2,2026.1.1,Win32,30.58103976,5f78e7a0d14cd84e060fde57,69b92ab4aef6dee357cd729a,69b92ae2167b544edee6d8ce,0.0606,0.0606,0,47,47,27,1,twofour,,,,,,,,,,,,,,,,,,,,,,,,,,,,,,,,,,,,,,,,,,,,,,,,,,,,,,,,,,,,,,,,,,,,,,,,,,,,,,,,,,,,,,,,,,,,,,,,,,,,,,,,,,,,,,,,,,,,,,,,,,,,,,,,,,,,,,,,,
,,5f78e7a0d14cd84e060fde57,2026-03-17_12h24.37.724,kallum_motion_pilot_GIST_update_2,2026.1.1,Win32,30.58103976,5f78e7a0d14cd84e060fde57,69b92ab4aef6dee357cd729a,69b92ae2167b544edee6d8ce,0.0609,0.0609,0,48,48,45,1,threefour,,,,,,,,,,,,,,,,,,,,,,,,,,,,,,,,,,,,,,,,,,,,,,,,,,,,,,,,,,,,,,,,,,,,,,,,,,,,,,,,,,,,,,,,,,,,,,,,,,,,,,,,,,,,,,,,,,,,,,,,,,,,,,,,,,,,,,,,,
,,5f78e7a0d14cd84e060fde57,2026-03-17_12h24.37.724,kallum_motion_pilot_GIST_update_2,2026.1.1,Win32,30.58103976,5f78e7a0d14cd84e060fde57,69b92ab4aef6dee357cd729a,69b92ae2167b544edee6d8ce,0.0611,0.0611,0,49,49,59,1,twofour,,,,,,,,,,,,,,,,,,,,,,,,,,,,,,,,,,,,,,,,,,,,,,,,,,,,,,,,,,,,,,,,,,,,,,,,,,,,,,,,,,,,,,,,,,,,,,,,,,,,,,,,,,,,,,,,,,,,,,,,,,,,,,,,,,,,,,,,,
,,5f78e7a0d14cd84e060fde57,2026-03-17_12h24.37.724,kallum_motion_pilot_GIST_update_2,2026.1.1,Win32,30.58103976,5f78e7a0d14cd84e060fde57,69b92ab4aef6dee357cd729a,69b92ae2167b544edee6d8ce,0.0614,0.0615,0,50,50,41,1,onethree,,,,,,,,,,,,,,,,,,,,,,,,,,,,,,,,,,,,,,,,,,,,,,,,,,,,,,,,,,,,,,,,,,,,,,,,,,,,,,,,,,,,,,,,,,,,,,,,,,,,,,,,,,,,,,,,,,,,,,,,,,,,,,,,,,,,,,,,,
,,5f78e7a0d14cd84e060fde57,2026-03-17_12h24.37.724,kallum_motion_pilot_GIST_update_2,2026.1.1,Win32,30.58103976,5f78e7a0d14cd84e060fde57,69b92ab4aef6dee357cd729a,69b92ae2167b544edee6d8ce,0.0617,0.0618,0,51,51,2,1,twoone,,,,,,,,,,,,,,,,,,,,,,,,,,,,,,,,,,,,,,,,,,,,,,,,,,,,,,,,,,,,,,,,,,,,,,,,,,,,,,,,,,,,,,,,,,,,,,,,,,,,,,,,,,,,,,,,,,,,,,,,,,,,,,,,,,,,,,,,,
,,5f78e7a0d14cd84e060fde57,2026-03-17_12h24.37.724,kallum_motion_pilot_GIST_update_2,2026.1.1,Win32,30.58103976,5f78e7a0d14cd84e060fde57,69b92ab4aef6dee357cd729a,69b92ae2167b544edee6d8ce,0.0619,0.062,0,52,52,111,1,eightseven,,,,,,,,,,,,,,,,,,,,,,,,,,,,,,,,,,,,,,,,,,,,,,,,,,,,,,,,,,,,,,,,,,,,,,,,,,,,,,,,,,,,,,,,,,,,,,,,,,,,,,,,,,,,,,,,,,,,,,,,,,,,,,,,,,,,,,,,,
,,5f78e7a0d14cd84e060fde57,2026-03-17_12h24.37.724,kallum_motion_pilot_GIST_update_2,2026.1.1,Win32,30.58103976,5f78e7a0d14cd84e060fde57,69b92ab4aef6dee357cd729a,69b92ae2167b544edee6d8ce,0.0654,0.0654,0,53,53,101,1,seveneight,,,,,,,,,,,,,,,,,,,,,,,,,,,,,,,,,,,,,,,,,,,,,,,,,,,,,,,,,,,,,,,,,,,,,,,,,,,,,,,,,,,,,,,,,,,,,,,,,,,,,,,,,,,,,,,,,,,,,,,,,,,,,,,,,,,,,,,,,
,,5f78e7a0d14cd84e060fde57,2026-03-17_12h24.37.724,kallum_motion_pilot_GIST_update_2,2026.1.1,Win32,30.58103976,5f78e7a0d14cd84e060fde57,69b92ab4aef6dee357cd729a,69b92ae2167b544edee6d8ce,0.0659,0.0659,0,54,54,74,1,twoone,,,,,,,,,,,,,,,,,,,,,,,,,,,,,,,,,,,,,,,,,,,,,,,,,,,,,,,,,,,,,,,,,,,,,,,,,,,,,,,,,,,,,,,,,,,,,,,,,,,,,,,,,,,,,,,,,,,,,,,,,,,,,,,,,,,,,,,,,
,,5f78e7a0d14cd84e060fde57,2026-03-17_12h24.37.724,kallum_motion_pilot_GIST_update_2,2026.1.1,Win32,30.58103976,5f78e7a0d14cd84e060fde57,69b92ab4aef6dee357cd729a,69b92ae2167b544edee6d8ce,0.0661,0.0662,0,55,55,121,1,fiveseven,,,,,,,,,,,,,,,,,,,,,,,,,,,,,,,,,,,,,,,,,,,,,,,,,,,,,,,,,,,,,,,,,,,,,,,,,,,,,,,,,,,,,,,,,,,,,,,,,,,,,,,,,,,,,,,,,,,,,,,,,,,,,,,,,,,,,,,,,
,,5f78e7a0d14cd84e060fde57,2026-03-17_12h24.37.724,kallum_motion_pilot_GIST_update_2,2026.1.1,Win32,30.58103976,5f78e7a0d14cd84e060fde57,69b92ab4aef6dee357cd729a,69b92ae2167b544edee6d8ce,0.0664,0.0664,0,56,56,3,1,twofour,,,,,,,,,,,,,,,,,,,,,,,,,,,,,,,,,,,,,,,,,,,,,,,,,,,,,,,,,,,,,,,,,,,,,,,,,,,,,,,,,,,,,,,,,,,,,,,,,,,,,,,,,,,,,,,,,,,,,,,,,,,,,,,,,,,,,,,,,
,,5f78e7a0d14cd84e060fde57,2026-03-17_12h24.37.724,kallum_motion_pilot_GIST_update_2,2026.1.1,Win32,30.58103976,5f78e7a0d14cd84e060fde57,69b92ab4aef6dee357cd729a,69b92ae2167b544edee6d8ce,0.0668,0.0668,0,57,57,12,1,threeone,,,,,,,,,,,,,,,,,,,,,,,,,,,,,,,,,,,,,,,,,,,,,,,,,,,,,,,,,,,,,,,,,,,,,,,,,,,,,,,,,,,,,,,,,,,,,,,,,,,,,,,,,,,,,,,,,,,,,,,,,,,,,,,,,,,,,,,,,
,,5f78e7a0d14cd84e060fde57,2026-03-17_12h24.37.724,kallum_motion_pilot_GIST_update_2,2026.1.1,Win32,30.58103976,5f78e7a0d14cd84e060fde57,69b92ab4aef6dee357cd729a,69b92ae2167b544edee6d8ce,0.0671,0.0671,0,58,58,119,1,eightseven,,,,,,,,,,,,,,,,,,,,,,,,,,,,,,,,,,,,,,,,,,,,,,,,,,,,,,,,,,,,,,,,,,,,,,,,,,,,,,,,,,,,,,,,,,,,,,,,,,,,,,,,,,,,,,,,,,,,,,,,,,,,,,,,,,,,,,,,,
,,5f78e7a0d14cd84e060fde57,2026-03-17_12h24.37.724,kallum_motion_pilot_GIST_update_2,2026.1.1,Win32,30.58103976,5f78e7a0d14cd84e060fde57,69b92ab4aef6dee357cd729a,69b92ae2167b544edee6d8ce,0.0673,0.0673,0,59,59,125,1,seveneight,,,,,,,,,,,,,,,,,,,,,,,,,,,,,,,,,,,,,,,,,,,,,,,,,,,,,,,,,,,,,,,,,,,,,,,,,,,,,,,,,,,,,,,,,,,,,,,,,,,,,,,,,,,,,,,,,,,,,,,,,,,,,,,,,,,,,,,,,
,,5f78e7a0d14cd84e060fde57,2026-03-17_12h24.37.724,kallum_motion_pilot_GIST_update_2,2026.1.1,Win32,30.58103976,5f78e7a0d14cd84e060fde57,69b92ab4aef6dee357cd729a,69b92ae2167b544edee6d8ce,0.0676,0.0676,0,60,60,123,1,sixeight,,,,,,,,,,,,,,,,,,,,,,,,,,,,,,,,,,,,,,,,,,,,,,,,,,,,,,,,,,,,,,,,,,,,,,,,,,,,,,,,,,,,,,,,,,,,,,,,,,,,,,,,,,,,,,,,,,,,,,,,,,,,,,,,,,,,,,,,,
,,5f78e7a0d14cd84e060fde57,2026-03-17_12h24.37.724,kallum_motion_pilot_GIST_update_2,2026.1.1,Win32,30.58103976,5f78e7a0d14cd84e060fde57,69b92ab4aef6dee357cd729a,69b92ae2167b544edee6d8ce,0.0679,0.0679,0,61,61,30,1,fourtwo,,,,,,,,,,,,,,,,,,,,,,,,,,,,,,,,,,,,,,,,,,,,,,,,,,,,,,,,,,,,,,,,,,,,,,,,,,,,,,,,,,,,,,,,,,,,,,,,,,,,,,,,,,,,,,,,,,,,,,,,,,,,,,,,,,,,,,,,,
,,5f78e7a0d14cd84e060fde57,2026-03-17_12h24.37.724,kallum_motion_pilot_GIST_update_2,2026.1.1,Win32,30.58103976,5f78e7a0d14cd84e060fde57,69b92ab4aef6dee357cd729a,69b92ae2167b544edee6d8ce,0.0682,0.0682,0,62,62,32,1,onetwo,,,,,,,,,,,,,,,,,,,,,,,,,,,,,,,,,,,,,,,,,,,,,,,,,,,,,,,,,,,,,,,,,,,,,,,,,,,,,,,,,,,,,,,,,,,,,,,,,,,,,,,,,,,,,,,,,,,,,,,,,,,,,,,,,,,,,,,,,
,,5f78e7a0d14cd84e060fde57,2026-03-17_12h24.37.724,kallum_motion_pilot_GIST_update_2,2026.1.1,Win32,30.58103976,5f78e7a0d14cd84e060fde57,69b92ab4aef6dee357cd729a,69b92ae2167b544edee6d8ce,0.0684,0.0685,0,63,63,100,1,sevenfive,,,,,,,,,,,,,,,,,,,,,,,,,,,,,,,,,,,,,,,,,,,,,,,,,,,,,,,,,,,,,,,,,,,,,,,,,,,,,,,,,,,,,,,,,,,,,,,,,,,,,,,,,,,,,,,,,,,,,,,,,,,,,,,,,,,,,,,,,
,,5f78e7a0d14cd84e060fde57,2026-03-17_12h24.37.724,kallum_motion_pilot_GIST_update_2,2026.1.1,Win32,30.58103976,5f78e7a0d14cd84e060fde57,69b92ab4aef6dee357cd729a,69b92ae2167b544edee6d8ce,0.0687,0.0687,0,64,64,47,1,fourthree,,,,,,,,,,,,,,,,,,,,,,,,,,,,,,,,,,,,,,,,,,,,,,,,,,,,,,,,,,,,,,,,,,,,,,,,,,,,,,,,,,,,,,,,,,,,,,,,,,,,,,,,,,,,,,,,,,,,,,,,,,,,,,,,,,,,,,,,,
,,5f78e7a0d14cd84e060fde57,2026-03-17_12h24.37.724,kallum_motion_pilot_GIST_update_2,2026.1.1,Win32,30.58103976,5f78e7a0d14cd84e060fde57,69b92ab4aef6dee357cd729a,69b92ae2167b544edee6d8ce,0.069,0.069,0,65,65,89,1,fiveseven,,,,,,,,,,,,,,,,,,,,,,,,,,,,,,,,,,,,,,,,,,,,,,,,,,,,,,,,,,,,,,,,,,,,,,,,,,,,,,,,,,,,,,,,,,,,,,,,,,,,,,,,,,,,,,,,,,,,,,,,,,,,,,,,,,,,,,,,,
,,5f78e7a0d14cd84e060fde57,2026-03-17_12h24.37.724,kallum_motion_pilot_GIST_update_2,2026.1.1,Win32,30.58103976,5f78e7a0d14cd84e060fde57,69b92ab4aef6dee357cd729a,69b92ae2167b544edee6d8ce,0.0692,0.0692,0,66,66,80,1,fivesix,,,,,,,,,,,,,,,,,,,,,,,,,,,,,,,,,,,,,,,,,,,,,,,,,,,,,,,,,,,,,,,,,,,,,,,,,,,,,,,,,,,,,,,,,,,,,,,,,,,,,,,,,,,,,,,,,,,,,,,,,,,,,,,,,,,,,,,,,
,,5f78e7a0d14cd84e060fde57,2026-03-17_12h24.37.724,kallum_motion_pilot_GIST_update_2,2026.1.1,Win32,30.58103976,5f78e7a0d14cd84e060fde57,69b92ab4aef6dee357cd729a,69b92ae2167b544edee6d8ce,0.0696,0.0696,0,67,67,153,1,fiveseven,,,,,,,,,,,,,,,,,,,,,,,,,,,,,,,,,,,,,,,,,,,,,,,,,,,,,,,,,,,,,,,,,,,,,,,,,,,,,,,,,,,,,,,,,,,,,,,,,,,,,,,,,,,,,,,,,,,,,,,,,,,,,,,,,,,,,,,,,
,,5f78e7a0d14cd84e060fde57,2026-03-17_12h24.37.724,kallum_motion_pilot_GIST_update_2,2026.1.1,Win32,30.58103976,5f78e7a0d14cd84e060fde57,69b92ab4aef6dee357cd729a,69b92ae2167b544edee6d8ce,0.0698,0.0698,0,68,68,109,1,seveneight,,,,,,,,,,,,,,,,,,,,,,,,,,,,,,,,,,,,,,,,,,,,,,,,,,,,,,,,,,,,,,,,,,,,,,,,,,,,,,,,,,,,,,,,,,,,,,,,,,,,,,,,,,,,,,,,,,,,,,,,,,,,,,,,,,,,,,,,,
,,5f78e7a0d14cd84e060fde57,2026-03-17_12h24.37.724,kallum_motion_pilot_GIST_update_2,2026.1.1,Win32,30.58103976,5f78e7a0d14cd84e060fde57,69b92ab4aef6dee357cd729a,69b92ae2167b544edee6d8ce,0.07,0.0701,0,69,69,55,1,fourthree,,,,,,,,,,,,,,,,,,,,,,,,,,,,,,,,,,,,,,,,,,,,,,,,,,,,,,,,,,,,,,,,,,,,,,,,,,,,,,,,,,,,,,,,,,,,,,,,,,,,,,,,,,,,,,,,,,,,,,,,,,,,,,,,,,,,,,,,,
,,5f78e7a0d14cd84e060fde57,2026-03-17_12h24.37.724,kallum_motion_pilot_GIST_update_2,2026.1.1,Win32,30.58103976,5f78e7a0d14cd84e060fde57,69b92ab4aef6dee357cd729a,69b92ae2167b544edee6d8ce,0.0712,0.0712,0,70,70,21,1,threefour,,,,,,,,,,,,,,,,,,,,,,,,,,,,,,,,,,,,,,,,,,,,,,,,,,,,,,,,,,,,,,,,,,,,,,,,,,,,,,,,,,,,,,,,,,,,,,,,,,,,,,,,,,,,,,,,,,,,,,,,,,,,,,,,,,,,,,,,,
,,5f78e7a0d14cd84e060fde57,2026-03-17_12h24.37.724,kallum_motion_pilot_GIST_update_2,2026.1.1,Win32,30.58103976,5f78e7a0d14cd84e060fde57,69b92ab4aef6dee357cd729a,69b92ae2167b544edee6d8ce,0.0716,0.0716,0,71,71,142,1,eightsix,,,,,,,,,,,,,,,,,,,,,,,,,,,,,,,,,,,,,,,,,,,,,,,,,,,,,,,,,,,,,,,,,,,,,,,,,,,,,,,,,,,,,,,,,,,,,,,,,,,,,,,,,,,,,,,,,,,,,,,,,,,,,,,,,,,,,,,,,
,,5f78e7a0d14cd84e060fde57,2026-03-17_12h24.37.724,kallum_motion_pilot_GIST_update_2,2026.1.1,Win32,30.58103976,5f78e7a0d14cd84e060fde57,69b92ab4aef6dee357cd729a,69b92ae2167b544edee6d8ce,0.072,0.072,0,72,72,49,1,onethree,,,,,,,,,,,,,,,,,,,,,,,,,,,,,,,,,,,,,,,,,,,,,,,,,,,,,,,,,,,,,,,,,,,,,,,,,,,,,,,,,,,,,,,,,,,,,,,,,,,,,,,,,,,,,,,,,,,,,,,,,,,,,,,,,,,,,,,,,
,,5f78e7a0d14cd84e060fde57,2026-03-17_12h24.37.724,kallum_motion_pilot_GIST_update_2,2026.1.1,Win32,30.58103976,5f78e7a0d14cd84e060fde57,69b92ab4aef6dee357cd729a,69b92ae2167b544edee6d8ce,0.0722,0.0724,0,73,73,65,1,onethree,,,,,,,,,,,,,,,,,,,,,,,,,,,,,,,,,,,,,,,,,,,,,,,,,,,,,,,,,,,,,,,,,,,,,,,,,,,,,,,,,,,,,,,,,,,,,,,,,,,,,,,,,,,,,,,,,,,,,,,,,,,,,,,,,,,,,,,,,
,,5f78e7a0d14cd84e060fde57,2026-03-17_12h24.37.724,kallum_motion_pilot_GIST_update_2,2026.1.1,Win32,30.58103976,5f78e7a0d14cd84e060fde57,69b92ab4aef6dee357cd729a,69b92ae2167b544edee6d8ce,0.0725,0.0726,0,74,74,79,1,eightseven,,,,,,,,,,,,,,,,,,,,,,,,,,,,,,,,,,,,,,,,,,,,,,,,,,,,,,,,,,,,,,,,,,,,,,,,,,,,,,,,,,,,,,,,,,,,,,,,,,,,,,,,,,,,,,,,,,,,,,,,,,,,,,,,,,,,,,,,,
,,5f78e7a0d14cd84e060fde57,2026-03-17_12h24.37.724,kallum_motion_pilot_GIST_update_2,2026.1.1,Win32,30.58103976,5f78e7a0d14cd84e060fde57,69b92ab4aef6dee357cd729a,69b92ae2167b544edee6d8ce,0.0729,0.0729,0,75,75,114,1,sixfive,,,,,,,,,,,,,,,,,,,,,,,,,,,,,,,,,,,,,,,,,,,,,,,,,,,,,,,,,,,,,,,,,,,,,,,,,,,,,,,,,,,,,,,,,,,,,,,,,,,,,,,,,,,,,,,,,,,,,,,,,,,,,,,,,,,,,,,,,
,,5f78e7a0d14cd84e060fde57,2026-03-17_12h24.37.724,kallum_motion_pilot_GIST_update_2,2026.1.1,Win32,30.58103976,5f78e7a0d14cd84e060fde57,69b92ab4aef6dee357cd729a,69b92ae2167b544edee6d8ce,0.0731,0.0731,0,76,76,51,1,twofour,,,,,,,,,,,,,,,,,,,,,,,,,,,,,,,,,,,,,,,,,,,,,,,,,,,,,,,,,,,,,,,,,,,,,,,,,,,,,,,,,,,,,,,,,,,,,,,,,,,,,,,,,,,,,,,,,,,,,,,,,,,,,,,,,,,,,,,,,
,,5f78e7a0d14cd84e060fde57,2026-03-17_12h24.37.724,kallum_motion_pilot_GIST_update_2,2026.1.1,Win32,30.58103976,5f78e7a0d14cd84e060fde57,69b92ab4aef6dee357cd729a,69b92ae2167b544edee6d8ce,0.0734,0.0734,0,77,77,16,1,onetwo,,,,,,,,,,,,,,,,,,,,,,,,,,,,,,,,,,,,,,,,,,,,,,,,,,,,,,,,,,,,,,,,,,,,,,,,,,,,,,,,,,,,,,,,,,,,,,,,,,,,,,,,,,,,,,,,,,,,,,,,,,,,,,,,,,,,,,,,,
,,5f78e7a0d14cd84e060fde57,2026-03-17_12h24.37.724,kallum_motion_pilot_GIST_update_2,2026.1.1,Win32,30.58103976,5f78e7a0d14cd84e060fde57,69b92ab4aef6dee357cd729a,69b92ae2167b544edee6d8ce,0.0737,0.0737,0,78,78,148,1,sevenfive,,,,,,,,,,,,,,,,,,,,,,,,,,,,,,,,,,,,,,,,,,,,,,,,,,,,,,,,,,,,,,,,,,,,,,,,,,,,,,,,,,,,,,,,,,,,,,,,,,,,,,,,,,,,,,,,,,,,,,,,,,,,,,,,,,,,,,,,,
,,5f78e7a0d14cd84e060fde57,2026-03-17_12h24.37.724,kallum_motion_pilot_GIST_update_2,2026.1.1,Win32,30.58103976,5f78e7a0d14cd84e060fde57,69b92ab4aef6dee357cd729a,69b92ae2167b544edee6d8ce,0.0739,0.074,0,79,79,127,1,eightseven,,,,,,,,,,,,,,,,,,,,,,,,,,,,,,,,,,,,,,,,,,,,,,,,,,,,,,,,,,,,,,,,,,,,,,,,,,,,,,,,,,,,,,,,,,,,,,,,,,,,,,,,,,,,,,,,,,,,,,,,,,,,,,,,,,,,,,,,,
,,5f78e7a0d14cd84e060fde57,2026-03-17_12h24.37.724,kallum_motion_pilot_GIST_update_2,2026.1.1,Win32,30.58103976,5f78e7a0d14cd84e060fde57,69b92ab4aef6dee357cd729a,69b92ae2167b544edee6d8ce,0.0742,0.0743,0,80,80,107,1,sixeight,,,,,,,,,,,,,,,,,,,,,,,,,,,,,,,,,,,,,,,,,,,,,,,,,,,,,,,,,,,,,,,,,,,,,,,,,,,,,,,,,,,,,,,,,,,,,,,,,,,,,,,,,,,,,,,,,,,,,,,,,,,,,,,,,,,,,,,,,
,,5f78e7a0d14cd84e060fde57,2026-03-17_12h24.37.724,kallum_motion_pilot_GIST_update_2,2026.1.1,Win32,30.58103976,5f78e7a0d14cd84e060fde57,69b92ab4aef6dee357cd729a,69b92ae2167b544edee6d8ce,0.0745,0.0746,0,81,81,159,1,eightseven,,,,,,,,,,,,,,,,,,,,,,,,,,,,,,,,,,,,,,,,,,,,,,,,,,,,,,,,,,,,,,,,,,,,,,,,,,,,,,,,,,,,,,,,,,,,,,,,,,,,,,,,,,,,,,,,,,,,,,,,,,,,,,,,,,,,,,,,,
,,5f78e7a0d14cd84e060fde57,2026-03-17_12h24.37.724,kallum_motion_pilot_GIST_update_2,2026.1.1,Win32,30.58103976,5f78e7a0d14cd84e060fde57,69b92ab4aef6dee357cd729a,69b92ae2167b544edee6d8ce,0.0747,0.0748,0,82,82,115,1,sixeight,,,,,,,,,,,,,,,,,,,,,,,,,,,,,,,,,,,,,,,,,,,,,,,,,,,,,,,,,,,,,,,,,,,,,,,,,,,,,,,,,,,,,,,,,,,,,,,,,,,,,,,,,,,,,,,,,,,,,,,,,,,,,,,,,,,,,,,,,
,,5f78e7a0d14cd84e060fde57,2026-03-17_12h24.37.724,kallum_motion_pilot_GIST_update_2,2026.1.1,Win32,30.58103976,5f78e7a0d14cd84e060fde57,69b92ab4aef6dee357cd729a,69b92ae2167b544edee6d8ce,0.0751,0.0751,0,83,83,91,1,sixeight,,,,,,,,,,,,,,,,,,,,,,,,,,,,,,,,,,,,,,,,,,,,,,,,,,,,,,,,,,,,,,,,,,,,,,,,,,,,,,,,,,,,,,,,,,,,,,,,,,,,,,,,,,,,,,,,,,,,,,,,,,,,,,,,,,,,,,,,,
,,5f78e7a0d14cd84e060fde57,2026-03-17_12h24.37.724,kallum_motion_pilot_GIST_update_2,2026.1.1,Win32,30.58103976,5f78e7a0d14cd84e060fde57,69b92ab4aef6dee357cd729a,69b92ae2167b544edee6d8ce,0.0756,0.0756,0,84,84,106,1,sixfive,,,,,,,,,,,,,,,,,,,,,,,,,,,,,,,,,,,,,,,,,,,,,,,,,,,,,,,,,,,,,,,,,,,,,,,,,,,,,,,,,,,,,,,,,,,,,,,,,,,,,,,,,,,,,,,,,,,,,,,,,,,,,,,,,,,,,,,,,
,,5f78e7a0d14cd84e060fde57,2026-03-17_12h24.37.724,kallum_motion_pilot_GIST_update_2,2026.1.1,Win32,30.58103976,5f78e7a0d14cd84e060fde57,69b92ab4aef6dee357cd729a,69b92ae2167b544edee6d8ce,0.0759,0.0759,0,85,85,137,1,fiveseven,,,,,,,,,,,,,,,,,,,,,,,,,,,,,,,,,,,,,,,,,,,,,,,,,,,,,,,,,,,,,,,,,,,,,,,,,,,,,,,,,,,,,,,,,,,,,,,,,,,,,,,,,,,,,,,,,,,,,,,,,,,,,,,,,,,,,,,,,
,,5f78e7a0d14cd84e060fde57,2026-03-17_12h24.37.724,kallum_motion_pilot_GIST_update_2,2026.1.1,Win32,30.58103976,5f78e7a0d14cd84e060fde57,69b92ab4aef6dee357cd729a,69b92ae2167b544edee6d8ce,0.0762,0.0762,0,86,86,13,1,threefour,,,,,,,,,,,,,,,,,,,,,,,,,,,,,,,,,,,,,,,,,,,,,,,,,,,,,,,,,,,,,,,,,,,,,,,,,,,,,,,,,,,,,,,,,,,,,,,,,,,,,,,,,,,,,,,,,,,,,,,,,,,,,,,,,,,,,,,,,
,,5f78e7a0d14cd84e060fde57,2026-03-17_12h24.37.724,kallum_motion_pilot_GIST_update_2,2026.1.1,Win32,30.58103976,5f78e7a0d14cd84e060fde57,69b92ab4aef6dee357cd729a,69b92ae2167b544edee6d8ce,0.0764,0.0765,0,87,87,18,1,twoone,,,,,,,,,,,,,,,,,,,,,,,,,,,,,,,,,,,,,,,,,,,,,,,,,,,,,,,,,,,,,,,,,,,,,,,,,,,,,,,,,,,,,,,,,,,,,,,,,,,,,,,,,,,,,,,,,,,,,,,,,,,,,,,,,,,,,,,,,
,,5f78e7a0d14cd84e060fde57,2026-03-17_12h24.37.724,kallum_motion_pilot_GIST_update_2,2026.1.1,Win32,30.58103976,5f78e7a0d14cd84e060fde57,69b92ab4aef6dee357cd729a,69b92ae2167b544edee6d8ce,0.0767,0.0767,0,88,88,75,1,twofour,,,,,,,,,,,,,,,,,,,,,,,,,,,,,,,,,,,,,,,,,,,,,,,,,,,,,,,,,,,,,,,,,,,,,,,,,,,,,,,,,,,,,,,,,,,,,,,,,,,,,,,,,,,,,,,,,,,,,,,,,,,,,,,,,,,,,,,,,
,,5f78e7a0d14cd84e060fde57,2026-03-17_12h24.37.724,kallum_motion_pilot_GIST_update_2,2026.1.1,Win32,30.58103976,5f78e7a0d14cd84e060fde57,69b92ab4aef6dee357cd729a,69b92ae2167b544edee6d8ce,0.077,0.077,0,89,89,0,1,onetwo,,,,,,,,,,,,,,,,,,,,,,,,,,,,,,,,,,,,,,,,,,,,,,,,,,,,,,,,,,,,,,,,,,,,,,,,,,,,,,,,,,,,,,,,,,,,,,,,,,,,,,,,,,,,,,,,,,,,,,,,,,,,,,,,,,,,,,,,,
,,5f78e7a0d14cd84e060fde57,2026-03-17_12h24.37.724,kallum_motion_pilot_GIST_update_2,2026.1.1,Win32,30.58103976,5f78e7a0d14cd84e060fde57,69b92ab4aef6dee357cd729a,69b92ae2167b544edee6d8ce,0.0773,0.0773,0,90,90,113,1,fiveseven,,,,,,,,,,,,,,,,,,,,,,,,,,,,,,,,,,,,,,,,,,,,,,,,,,,,,,,,,,,,,,,,,,,,,,,,,,,,,,,,,,,,,,,,,,,,,,,,,,,,,,,,,,,,,,,,,,,,,,,,,,,,,,,,,,,,,,,,,
,,5f78e7a0d14cd84e060fde57,2026-03-17_12h24.37.724,kallum_motion_pilot_GIST_update_2,2026.1.1,Win32,30.58103976,5f78e7a0d14cd84e060fde57,69b92ab4aef6dee357cd729a,69b92ae2167b544edee6d8ce,0.0775,0.0775,0,91,91,31,1,fourthree,,,,,,,,,,,,,,,,,,,,,,,,,,,,,,,,,,,,,,,,,,,,,,,,,,,,,,,,,,,,,,,,,,,,,,,,,,,,,,,,,,,,,,,,,,,,,,,,,,,,,,,,,,,,,,,,,,,,,,,,,,,,,,,,,,,,,,,,,
,,5f78e7a0d14cd84e060fde57,2026-03-17_12h24.37.724,kallum_motion_pilot_GIST_update_2,2026.1.1,Win32,30.58103976,5f78e7a0d14cd84e060fde57,69b92ab4aef6dee357cd729a,69b92ae2167b544edee6d8ce,0.078,0.078,0,92,92,156,1,sevenfive,,,,,,,,,,,,,,,,,,,,,,,,,,,,,,,,,,,,,,,,,,,,,,,,,,,,,,,,,,,,,,,,,,,,,,,,,,,,,,,,,,,,,,,,,,,,,,,,,,,,,,,,,,,,,,,,,,,,,,,,,,,,,,,,,,,,,,,,,
,,5f78e7a0d14cd84e060fde57,2026-03-17_12h24.37.724,kallum_motion_pilot_GIST_update_2,2026.1.1,Win32,30.58103976,5f78e7a0d14cd84e060fde57,69b92ab4aef6dee357cd729a,69b92ae2167b544edee6d8ce,0.0783,0.0783,0,93,93,14,1,fourtwo,,,,,,,,,,,,,,,,,,,,,,,,,,,,,,,,,,,,,,,,,,,,,,,,,,,,,,,,,,,,,,,,,,,,,,,,,,,,,,,,,,,,,,,,,,,,,,,,,,,,,,,,,,,,,,,,,,,,,,,,,,,,,,,,,,,,,,,,,
,,5f78e7a0d14cd84e060fde57,2026-03-17_12h24.37.724,kallum_motion_pilot_GIST_update_2,2026.1.1,Win32,30.58103976,5f78e7a0d14cd84e060fde57,69b92ab4aef6dee357cd729a,69b92ae2167b544edee6d8ce,0.0785,0.0786,0,94,94,57,1,onethree,,,,,,,,,,,,,,,,,,,,,,,,,,,,,,,,,,,,,,,,,,,,,,,,,,,,,,,,,,,,,,,,,,,,,,,,,,,,,,,,,,,,,,,,,,,,,,,,,,,,,,,,,,,,,,,,,,,,,,,,,,,,,,,,,,,,,,,,,
,,5f78e7a0d14cd84e060fde57,2026-03-17_12h24.37.724,kallum_motion_pilot_GIST_update_2,2026.1.1,Win32,30.58103976,5f78e7a0d14cd84e060fde57,69b92ab4aef6dee357cd729a,69b92ae2167b544edee6d8ce,0.0789,0.0789,0,95,95,151,1,eightseven,,,,,,,,,,,,,,,,,,,,,,,,,,,,,,,,,,,,,,,,,,,,,,,,,,,,,,,,,,,,,,,,,,,,,,,,,,,,,,,,,,,,,,,,,,,,,,,,,,,,,,,,,,,,,,,,,,,,,,,,,,,,,,,,,,,,,,,,,
,,5f78e7a0d14cd84e060fde57,2026-03-17_12h24.37.724,kallum_motion_pilot_GIST_update_2,2026.1.1,Win32,30.58103976,5f78e7a0d14cd84e060fde57,69b92ab4aef6dee357cd729a,69b92ae2167b544edee6d8ce,0.0792,0.0792,0,96,96,39,1,fourthree,,,,,,,,,,,,,,,,,,,,,,,,,,,,,,,,,,,,,,,,,,,,,,,,,,,,,,,,,,,,,,,,,,,,,,,,,,,,,,,,,,,,,,,,,,,,,,,,,,,,,,,,,,,,,,,,,,,,,,,,,,,,,,,,,,,,,,,,,
,,5f78e7a0d14cd84e060fde57,2026-03-17_12h24.37.724,kallum_motion_pilot_GIST_update_2,2026.1.1,Win32,30.58103976,5f78e7a0d14cd84e060fde57,69b92ab4aef6dee357cd729a,69b92ae2167b544edee6d8ce,0.0795,0.0795,0,97,97,143,1,eightseven,,,,,,,,,,,,,,,,,,,,,,,,,,,,,,,,,,,,,,,,,,,,,,,,,,,,,,,,,,,,,,,,,,,,,,,,,,,,,,,,,,,,,,,,,,,,,,,,,,,,,,,,,,,,,,,,,,,,,,,,,,,,,,,,,,,,,,,,,
,,5f78e7a0d14cd84e060fde57,2026-03-17_12h24.37.724,kallum_motion_pilot_GIST_update_2,2026.1.1,Win32,30.58103976,5f78e7a0d14cd84e060fde57,69b92ab4aef6dee357cd729a,69b92ae2167b544edee6d8ce,0.0797,0.0797,0,98,98,28,1,threeone,,,,,,,,,,,,,,,,,,,,,,,,,,,,,,,,,,,,,,,,,,,,,,,,,,,,,,,,,,,,,,,,,,,,,,,,,,,,,,,,,,,,,,,,,,,,,,,,,,,,,,,,,,,,,,,,,,,,,,,,,,,,,,,,,,,,,,,,,
,,5f78e7a0d14cd84e060fde57,2026-03-17_12h24.37.724,kallum_motion_pilot_GIST_update_2,2026.1.1,Win32,30.58103976,5f78e7a0d14cd84e060fde57,69b92ab4aef6dee357cd729a,69b92ae2167b544edee6d8ce,0.08,0.08,0,99,99,93,1,seveneight,,,,,,,,,,,,,,,,,,,,,,,,,,,,,,,,,,,,,,,,,,,,,,,,,,,,,,,,,,,,,,,,,,,,,,,,,,,,,,,,,,,,,,,,,,,,,,,,,,,,,,,,,,,,,,,,,,,,,,,,,,,,,,,,,,,,,,,,,
,,5f78e7a0d14cd84e060fde57,2026-03-17_12h24.37.724,kallum_motion_pilot_GIST_update_2,2026.1.1,Win32,30.58103976,5f78e7a0d14cd84e060fde57,69b92ab4aef6dee357cd729a,69b92ae2167b544edee6d8ce,0.0803,0.0804,0,100,100,6,1,fourtwo,,,,,,,,,,,,,,,,,,,,,,,,,,,,,,,,,,,,,,,,,,,,,,,,,,,,,,,,,,,,,,,,,,,,,,,,,,,,,,,,,,,,,,,,,,,,,,,,,,,,,,,,,,,,,,,,,,,,,,,,,,,,,,,,,,,,,,,,,
,,5f78e7a0d14cd84e060fde57,2026-03-17_12h24.37.724,kallum_motion_pilot_GIST_update_2,2026.1.1,Win32,30.58103976,5f78e7a0d14cd84e060fde57,69b92ab4aef6dee357cd729a,69b92ae2167b544edee6d8ce,0.0806,0.0806,0,101,101,160,1,fivesix,,,,,,,,,,,,,,,,,,,,,,,,,,,,,,,,,,,,,,,,,,,,,,,,,,,,,,,,,,,,,,,,,,,,,,,,,,,,,,,,,,,,,,,,,,,,,,,,,,,,,,,,,,,,,,,,,,,,,,,,,,,,,,,,,,,,,,,,,
,,5f78e7a0d14cd84e060fde57,2026-03-17_12h24.37.724,kallum_motion_pilot_GIST_update_2,2026.1.1,Win32,30.58103976,5f78e7a0d14cd84e060fde57,69b92ab4aef6dee357cd729a,69b92ae2167b544edee6d8ce,0.0809,0.0809,0,102,102,102,1,eightsix,,,,,,,,,,,,,,,,,,,,,,,,,,,,,,,,,,,,,,,,,,,,,,,,,,,,,,,,,,,,,,,,,,,,,,,,,,,,,,,,,,,,,,,,,,,,,,,,,,,,,,,,,,,,,,,,,,,,,,,,,,,,,,,,,,,,,,,,,
,,5f78e7a0d14cd84e060fde57,2026-03-17_12h24.37.724,kallum_motion_pilot_GIST_update_2,2026.1.1,Win32,30.58103976,5f78e7a0d14cd84e060fde57,69b92ab4aef6dee357cd729a,69b92ae2167b544edee6d8ce,0.0812,0.0812,0,103,103,152,1,fivesix,,,,,,,,,,,,,,,,,,,,,,,,,,,,,,,,,,,,,,,,,,,,,,,,,,,,,,,,,,,,,,,,,,,,,,,,,,,,,,,,,,,,,,,,,,,,,,,,,,,,,,,,,,,,,,,,,,,,,,,,,,,,,,,,,,,,,,,,,
,,5f78e7a0d14cd84e060fde57,2026-03-17_12h24.37.724,kallum_motion_pilot_GIST_update_2,2026.1.1,Win32,30.58103976,5f78e7a0d14cd84e060fde57,69b92ab4aef6dee357cd729a,69b92ae2167b544edee6d8ce,0.0815,0.0815,0,104,104,72,1,onetwo,,,,,,,,,,,,,,,,,,,,,,,,,,,,,,,,,,,,,,,,,,,,,,,,,,,,,,,,,,,,,,,,,,,,,,,,,,,,,,,,,,,,,,,,,,,,,,,,,,,,,,,,,,,,,,,,,,,,,,,,,,,,,,,,,,,,,,,,,
,,5f78e7a0d14cd84e060fde57,2026-03-17_12h24.37.724,kallum_motion_pilot_GIST_update_2,2026.1.1,Win32,30.58103976,5f78e7a0d14cd84e060fde57,69b92ab4aef6dee357cd729a,69b92ae2167b544edee6d8ce,0.0817,0.0817,0,105,105,33,1,onethree,,,,,,,,,,,,,,,,,,,,,,,,,,,,,,,,,,,,,,,,,,,,,,,,,,,,,,,,,,,,,,,,,,,,,,,,,,,,,,,,,,,,,,,,,,,,,,,,,,,,,,,,,,,,,,,,,,,,,,,,,,,,,,,,,,,,,,,,,
,,5f78e7a0d14cd84e060fde57,2026-03-17_12h24.37.724,kallum_motion_pilot_GIST_update_2,2026.1.1,Win32,30.58103976,5f78e7a0d14cd84e060fde57,69b92ab4aef6dee357cd729a,69b92ae2167b544edee6d8ce,0.082,0.082,0,106,106,136,1,fivesix,,,,,,,,,,,,,,,,,,,,,,,,,,,,,,,,,,,,,,,,,,,,,,,,,,,,,,,,,,,,,,,,,,,,,,,,,,,,,,,,,,,,,,,,,,,,,,,,,,,,,,,,,,,,,,,,,,,,,,,,,,,,,,,,,,,,,,,,,
,,5f78e7a0d14cd84e060fde57,2026-03-17_12h24.37.724,kallum_motion_pilot_GIST_update_2,2026.1.1,Win32,30.58103976,5f78e7a0d14cd84e060fde57,69b92ab4aef6dee357cd729a,69b92ae2167b544edee6d8ce,0.0823,0.0823,0,107,107,76,1,threeone,,,,,,,,,,,,,,,,,,,,,,,,,,,,,,,,,,,,,,,,,,,,,,,,,,,,,,,,,,,,,,,,,,,,,,,,,,,,,,,,,,,,,,,,,,,,,,,,,,,,,,,,,,,,,,,,,,,,,,,,,,,,,,,,,,,,,,,,,
,,5f78e7a0d14cd84e060fde57,2026-03-17_12h24.37.724,kallum_motion_pilot_GIST_update_2,2026.1.1,Win32,30.58103976,5f78e7a0d14cd84e060fde57,69b92ab4aef6dee357cd729a,69b92ae2167b544edee6d8ce,0.0826,0.0826,0,108,108,145,1,fiveseven,,,,,,,,,,,,,,,,,,,,,,,,,,,,,,,,,,,,,,,,,,,,,,,,,,,,,,,,,,,,,,,,,,,,,,,,,,,,,,,,,,,,,,,,,,,,,,,,,,,,,,,,,,,,,,,,,,,,,,,,,,,,,,,,,,,,,,,,,
,,5f78e7a0d14cd84e060fde57,2026-03-17_12h24.37.724,kallum_motion_pilot_GIST_update_2,2026.1.1,Win32,30.58103976,5f78e7a0d14cd84e060fde57,69b92ab4aef6dee357cd729a,69b92ae2167b544edee6d8ce,0.0828,0.0829,0,109,109,134,1,eightsix,,,,,,,,,,,,,,,,,,,,,,,,,,,,,,,,,,,,,,,,,,,,,,,,,,,,,,,,,,,,,,,,,,,,,,,,,,,,,,,,,,,,,,,,,,,,,,,,,,,,,,,,,,,,,,,,,,,,,,,,,,,,,,,,,,,,,,,,,
,,5f78e7a0d14cd84e060fde57,2026-03-17_12h24.37.724,kallum_motion_pilot_GIST_update_2,2026.1.1,Win32,30.58103976,5f78e7a0d14cd84e060fde57,69b92ab4aef6dee357cd729a,69b92ae2167b544edee6d8ce,0.0832,0.0832,0,110,110,97,1,fiveseven,,,,,,,,,,,,,,,,,,,,,,,,,,,,,,,,,,,,,,,,,,,,,,,,,,,,,,,,,,,,,,,,,,,,,,,,,,,,,,,,,,,,,,,,,,,,,,,,,,,,,,,,,,,,,,,,,,,,,,,,,,,,,,,,,,,,,,,,,
,,5f78e7a0d14cd84e060fde57,2026-03-17_12h24.37.724,kallum_motion_pilot_GIST_update_2,2026.1.1,Win32,30.58103976,5f78e7a0d14cd84e060fde57,69b92ab4aef6dee357cd729a,69b92ae2167b544edee6d8ce,0.0835,0.0835,0,111,111,81,1,fiveseven,,,,,,,,,,,,,,,,,,,,,,,,,,,,,,,,,,,,,,,,,,,,,,,,,,,,,,,,,,,,,,,,,,,,,,,,,,,,,,,,,,,,,,,,,,,,,,,,,,,,,,,,,,,,,,,,,,,,,,,,,,,,,,,,,,,,,,,,,
,,5f78e7a0d14cd84e060fde57,2026-03-17_12h24.37.724,kallum_motion_pilot_GIST_update_2,2026.1.1,Win32,30.58103976,5f78e7a0d14cd84e060fde57,69b92ab4aef6dee357cd729a,69b92ae2167b544edee6d8ce,0.0838,0.0838,0,112,112,52,1,threeone,,,,,,,,,,,,,,,,,,,,,,,,,,,,,,,,,,,,,,,,,,,,,,,,,,,,,,,,,,,,,,,,,,,,,,,,,,,,,,,,,,,,,,,,,,,,,,,,,,,,,,,,,,,,,,,,,,,,,,,,,,,,,,,,,,,,,,,,,
,,5f78e7a0d14cd84e060fde57,2026-03-17_12h24.37.724,kallum_motion_pilot_GIST_update_2,2026.1.1,Win32,30.58103976,5f78e7a0d14cd84e060fde57,69b92ab4aef6dee357cd729a,69b92ae2167b544edee6d8ce,0.084,0.084,0,113,113,88,1,fivesix,,,,,,,,,,,,,,,,,,,,,,,,,,,,,,,,,,,,,,,,,,,,,,,,,,,,,,,,,,,,,,,,,,,,,,,,,,,,,,,,,,,,,,,,,,,,,,,,,,,,,,,,,,,,,,,,,,,,,,,,,,,,,,,,,,,,,,,,,
,,5f78e7a0d14cd84e060fde57,2026-03-17_12h24.37.724,kallum_motion_pilot_GIST_update_2,2026.1.1,Win32,30.58103976,5f78e7a0d14cd84e060fde57,69b92ab4aef6dee357cd729a,69b92ae2167b544edee6d8ce,0.0843,0.0844,0,114,114,71,1,fourthree,,,,,,,,,,,,,,,,,,,,,,,,,,,,,,,,,,,,,,,,,,,,,,,,,,,,,,,,,,,,,,,,,,,,,,,,,,,,,,,,,,,,,,,,,,,,,,,,,,,,,,,,,,,,,,,,,,,,,,,,,,,,,,,,,,,,,,,,,
,,5f78e7a0d14cd84e060fde57,2026-03-17_12h24.37.724,kallum_motion_pilot_GIST_update_2,2026.1.1,Win32,30.58103976,5f78e7a0d14cd84e060fde57,69b92ab4aef6dee357cd729a,69b92ae2167b544edee6d8ce,0.0846,0.0846,0,115,115,38,1,fourtwo,,,,,,,,,,,,,,,,,,,,,,,,,,,,,,,,,,,,,,,,,,,,,,,,,,,,,,,,,,,,,,,,,,,,,,,,,,,,,,,,,,,,,,,,,,,,,,,,,,,,,,,,,,,,,,,,,,,,,,,,,,,,,,,,,,,,,,,,,
,,5f78e7a0d14cd84e060fde57,2026-03-17_12h24.37.724,kallum_motion_pilot_GIST_update_2,2026.1.1,Win32,30.58103976,5f78e7a0d14cd84e060fde57,69b92ab4aef6dee357cd729a,69b92ae2167b544edee6d8ce,0.0848,0.0849,0,116,116,5,1,threefour,,,,,,,,,,,,,,,,,,,,,,,,,,,,,,,,,,,,,,,,,,,,,,,,,,,,,,,,,,,,,,,,,,,,,,,,,,,,,,,,,,,,,,,,,,,,,,,,,,,,,,,,,,,,,,,,,,,,,,,,,,,,,,,,,,,,,,,,,
,,5f78e7a0d14cd84e060fde57,2026-03-17_12h24.37.724,kallum_motion_pilot_GIST_update_2,2026.1.1,Win32,30.58103976,5f78e7a0d14cd84e060fde57,69b92ab4aef6dee357cd729a,69b92ae2167b544edee6d8ce,0.0851,0.0853,0,117,117,62,1,fourtwo,,,,,,,,,,,,,,,,,,,,,,,,,,,,,,,,,,,,,,,,,,,,,,,,,,,,,,,,,,,,,,,,,,,,,,,,,,,,,,,,,,,,,,,,,,,,,,,,,,,,,,,,,,,,,,,,,,,,,,,,,,,,,,,,,,,,,,,,,
,,5f78e7a0d14cd84e060fde57,2026-03-17_12h24.37.724,kallum_motion_pilot_GIST_update_2,2026.1.1,Win32,30.58103976,5f78e7a0d14cd84e060fde57,69b92ab4aef6dee357cd729a,69b92ae2167b544edee6d8ce,0.0858,0.0858,0,118,118,155,1,sixeight,,,,,,,,,,,,,,,,,,,,,,,,,,,,,,,,,,,,,,,,,,,,,,,,,,,,,,,,,,,,,,,,,,,,,,,,,,,,,,,,,,,,,,,,,,,,,,,,,,,,,,,,,,,,,,,,,,,,,,,,,,,,,,,,,,,,,,,,,
,,5f78e7a0d14cd84e060fde57,2026-03-17_12h24.37.724,kallum_motion_pilot_GIST_update_2,2026.1.1,Win32,30.58103976,5f78e7a0d14cd84e060fde57,69b92ab4aef6dee357cd729a,69b92ae2167b544edee6d8ce,0.0862,0.0863,0,119,119,83,1,sixeight,,,,,,,,,,,,,,,,,,,,,,,,,,,,,,,,,,,,,,,,,,,,,,,,,,,,,,,,,,,,,,,,,,,,,,,,,,,,,,,,,,,,,,,,,,,,,,,,,,,,,,,,,,,,,,,,,,,,,,,,,,,,,,,,,,,,,,,,,
,,5f78e7a0d14cd84e060fde57,2026-03-17_12h24.37.724,kallum_motion_pilot_GIST_update_2,2026.1.1,Win32,30.58103976,5f78e7a0d14cd84e060fde57,69b92ab4aef6dee357cd729a,69b92ae2167b544edee6d8ce,0.0865,0.0866,0,120,120,135,1,eightseven,,,,,,,,,,,,,,,,,,,,,,,,,,,,,,,,,,,,,,,,,,,,,,,,,,,,,,,,,,,,,,,,,,,,,,,,,,,,,,,,,,,,,,,,,,,,,,,,,,,,,,,,,,,,,,,,,,,,,,,,,,,,,,,,,,,,,,,,,
,,5f78e7a0d14cd84e060fde57,2026-03-17_12h24.37.724,kallum_motion_pilot_GIST_update_2,2026.1.1,Win32,30.58103976,5f78e7a0d14cd84e060fde57,69b92ab4aef6dee357cd729a,69b92ae2167b544edee6d8ce,0.0869,0.0869,0,121,121,42,1,twoone,,,,,,,,,,,,,,,,,,,,,,,,,,,,,,,,,,,,,,,,,,,,,,,,,,,,,,,,,,,,,,,,,,,,,,,,,,,,,,,,,,,,,,,,,,,,,,,,,,,,,,,,,,,,,,,,,,,,,,,,,,,,,,,,,,,,,,,,,
,,5f78e7a0d14cd84e060fde57,2026-03-17_12h24.37.724,kallum_motion_pilot_GIST_update_2,2026.1.1,Win32,30.58103976,5f78e7a0d14cd84e060fde57,69b92ab4aef6dee357cd729a,69b92ae2167b544edee6d8ce,0.0879,0.0879,0,122,122,11,1,twofour,,,,,,,,,,,,,,,,,,,,,,,,,,,,,,,,,,,,,,,,,,,,,,,,,,,,,,,,,,,,,,,,,,,,,,,,,,,,,,,,,,,,,,,,,,,,,,,,,,,,,,,,,,,,,,,,,,,,,,,,,,,,,,,,,,,,,,,,,
,,5f78e7a0d14cd84e060fde57,2026-03-17_12h24.37.724,kallum_motion_pilot_GIST_update_2,2026.1.1,Win32,30.58103976,5f78e7a0d14cd84e060fde57,69b92ab4aef6dee357cd729a,69b92ae2167b544edee6d8ce,0.0883,0.0883,0,123,123,129,1,fiveseven,,,,,,,,,,,,,,,,,,,,,,,,,,,,,,,,,,,,,,,,,,,,,,,,,,,,,,,,,,,,,,,,,,,,,,,,,,,,,,,,,,,,,,,,,,,,,,,,,,,,,,,,,,,,,,,,,,,,,,,,,,,,,,,,,,,,,,,,,
,,5f78e7a0d14cd84e060fde57,2026-03-17_12h24.37.724,kallum_motion_pilot_GIST_update_2,2026.1.1,Win32,30.58103976,5f78e7a0d14cd84e060fde57,69b92ab4aef6dee357cd729a,69b92ae2167b544edee6d8ce,0.0886,0.0886,0,124,124,35,1,twofour,,,,,,,,,,,,,,,,,,,,,,,,,,,,,,,,,,,,,,,,,,,,,,,,,,,,,,,,,,,,,,,,,,,,,,,,,,,,,,,,,,,,,,,,,,,,,,,,,,,,,,,,,,,,,,,,,,,,,,,,,,,,,,,,,,,,,,,,,
,,5f78e7a0d14cd84e060fde57,2026-03-17_12h24.37.724,kallum_motion_pilot_GIST_update_2,2026.1.1,Win32,30.58103976,5f78e7a0d14cd84e060fde57,69b92ab4aef6dee357cd729a,69b92ae2167b544edee6d8ce,0.0889,0.0889,0,125,125,132,1,sevenfive,,,,,,,,,,,,,,,,,,,,,,,,,,,,,,,,,,,,,,,,,,,,,,,,,,,,,,,,,,,,,,,,,,,,,,,,,,,,,,,,,,,,,,,,,,,,,,,,,,,,,,,,,,,,,,,,,,,,,,,,,,,,,,,,,,,,,,,,,
,,5f78e7a0d14cd84e060fde57,2026-03-17_12h24.37.724,kallum_motion_pilot_GIST_update_2,2026.1.1,Win32,30.58103976,5f78e7a0d14cd84e060fde57,69b92ab4aef6dee357cd729a,69b92ae2167b544edee6d8ce,0.0892,0.0892,0,126,126,108,1,sevenfive,,,,,,,,,,,,,,,,,,,,,,,,,,,,,,,,,,,,,,,,,,,,,,,,,,,,,,,,,,,,,,,,,,,,,,,,,,,,,,,,,,,,,,,,,,,,,,,,,,,,,,,,,,,,,,,,,,,,,,,,,,,,,,,,,,,,,,,,,
,,5f78e7a0d14cd84e060fde57,2026-03-17_12h24.37.724,kallum_motion_pilot_GIST_update_2,2026.1.1,Win32,30.58103976,5f78e7a0d14cd84e060fde57,69b92ab4aef6dee357cd729a,69b92ae2167b544edee6d8ce,0.0895,0.0895,0,127,127,84,1,sevenfive,,,,,,,,,,,,,,,,,,,,,,,,,,,,,,,,,,,,,,,,,,,,,,,,,,,,,,,,,,,,,,,,,,,,,,,,,,,,,,,,,,,,,,,,,,,,,,,,,,,,,,,,,,,,,,,,,,,,,,,,,,,,,,,,,,,,,,,,,
,,5f78e7a0d14cd84e060fde57,2026-03-17_12h24.37.724,kallum_motion_pilot_GIST_update_2,2026.1.1,Win32,30.58103976,5f78e7a0d14cd84e060fde57,69b92ab4aef6dee357cd729a,69b92ae2167b544edee6d8ce,0.0898,0.0898,0,128,128,44,1,threeone,,,,,,,,,,,,,,,,,,,,,,,,,,,,,,,,,,,,,,,,,,,,,,,,,,,,,,,,,,,,,,,,,,,,,,,,,,,,,,,,,,,,,,,,,,,,,,,,,,,,,,,,,,,,,,,,,,,,,,,,,,,,,,,,,,,,,,,,,
,,5f78e7a0d14cd84e060fde57,2026-03-17_12h24.37.724,kallum_motion_pilot_GIST_update_2,2026.1.1,Win32,30.58103976,5f78e7a0d14cd84e060fde57,69b92ab4aef6dee357cd729a,69b92ae2167b544edee6d8ce,0.09,0.09,0,129,129,144,1,fivesix,,,,,,,,,,,,,,,,,,,,,,,,,,,,,,,,,,,,,,,,,,,,,,,,,,,,,,,,,,,,,,,,,,,,,,,,,,,,,,,,,,,,,,,,,,,,,,,,,,,,,,,,,,,,,,,,,,,,,,,,,,,,,,,,,,,,,,,,,
,,5f78e7a0d14cd84e060fde57,2026-03-17_12h24.37.724,kallum_motion_pilot_GIST_update_2,2026.1.1,Win32,30.58103976,5f78e7a0d14cd84e060fde57,69b92ab4aef6dee357cd729a,69b92ae2167b544edee6d8ce,0.0903,0.0904,0,130,130,128,1,fivesix,,,,,,,,,,,,,,,,,,,,,,,,,,,,,,,,,,,,,,,,,,,,,,,,,,,,,,,,,,,,,,,,,,,,,,,,,,,,,,,,,,,,,,,,,,,,,,,,,,,,,,,,,,,,,,,,,,,,,,,,,,,,,,,,,,,,,,,,,
,,5f78e7a0d14cd84e060fde57,2026-03-17_12h24.37.724,kallum_motion_pilot_GIST_update_2,2026.1.1,Win32,30.58103976,5f78e7a0d14cd84e060fde57,69b92ab4aef6dee357cd729a,69b92ae2167b544edee6d8ce,0.0906,0.0906,0,131,131,146,1,sixfive,,,,,,,,,,,,,,,,,,,,,,,,,,,,,,,,,,,,,,,,,,,,,,,,,,,,,,,,,,,,,,,,,,,,,,,,,,,,,,,,,,,,,,,,,,,,,,,,,,,,,,,,,,,,,,,,,,,,,,,,,,,,,,,,,,,,,,,,,
,,5f78e7a0d14cd84e060fde57,2026-03-17_12h24.37.724,kallum_motion_pilot_GIST_update_2,2026.1.1,Win32,30.58103976,5f78e7a0d14cd84e060fde57,69b92ab4aef6dee357cd729a,69b92ae2167b544edee6d8ce,0.0909,0.0909,0,132,132,36,1,threeone,,,,,,,,,,,,,,,,,,,,,,,,,,,,,,,,,,,,,,,,,,,,,,,,,,,,,,,,,,,,,,,,,,,,,,,,,,,,,,,,,,,,,,,,,,,,,,,,,,,,,,,,,,,,,,,,,,,,,,,,,,,,,,,,,,,,,,,,,
,,5f78e7a0d14cd84e060fde57,2026-03-17_12h24.37.724,kallum_motion_pilot_GIST_update_2,2026.1.1,Win32,30.58103976,5f78e7a0d14cd84e060fde57,69b92ab4aef6dee357cd729a,69b92ae2167b544edee6d8ce,0.0912,0.0912,0,133,133,7,1,fourthree,,,,,,,,,,,,,,,,,,,,,,,,,,,,,,,,,,,,,,,,,,,,,,,,,,,,,,,,,,,,,,,,,,,,,,,,,,,,,,,,,,,,,,,,,,,,,,,,,,,,,,,,,,,,,,,,,,,,,,,,,,,,,,,,,,,,,,,,,
,,5f78e7a0d14cd84e060fde57,2026-03-17_12h24.37.724,kallum_motion_pilot_GIST_update_2,2026.1.1,Win32,30.58103976,5f78e7a0d14cd84e060fde57,69b92ab4aef6dee357cd729a,69b92ae2167b544edee6d8ce,0.0915,0.0915,0,134,134,86,1,eightsix,,,,,,,,,,,,,,,,,,,,,,,,,,,,,,,,,,,,,,,,,,,,,,,,,,,,,,,,,,,,,,,,,,,,,,,,,,,,,,,,,,,,,,,,,,,,,,,,,,,,,,,,,,,,,,,,,,,,,,,,,,,,,,,,,,,,,,,,,
,,5f78e7a0d14cd84e060fde57,2026-03-17_12h24.37.724,kallum_motion_pilot_GIST_update_2,2026.1.1,Win32,30.58103976,5f78e7a0d14cd84e060fde57,69b92ab4aef6dee357cd729a,69b92ae2167b544edee6d8ce,0.0918,0.0918,0,135,135,94,1,eightsix,,,,,,,,,,,,,,,,,,,,,,,,,,,,,,,,,,,,,,,,,,,,,,,,,,,,,,,,,,,,,,,,,,,,,,,,,,,,,,,,,,,,,,,,,,,,,,,,,,,,,,,,,,,,,,,,,,,,,,,,,,,,,,,,,,,,,,,,,
,,5f78e7a0d14cd84e060fde57,2026-03-17_12h24.37.724,kallum_motion_pilot_GIST_update_2,2026.1.1,Win32,30.58103976,5f78e7a0d14cd84e060fde57,69b92ab4aef6dee357cd729a,69b92ae2167b544edee6d8ce,0.0921,0.0921,0,136,136,22,1,fourtwo,,,,,,,,,,,,,,,,,,,,,,,,,,,,,,,,,,,,,,,,,,,,,,,,,,,,,,,,,,,,,,,,,,,,,,,,,,,,,,,,,,,,,,,,,,,,,,,,,,,,,,,,,,,,,,,,,,,,,,,,,,,,,,,,,,,,,,,,,
,,5f78e7a0d14cd84e060fde57,2026-03-17_12h24.37.724,kallum_motion_pilot_GIST_update_2,2026.1.1,Win32,30.58103976,5f78e7a0d14cd84e060fde57,69b92ab4aef6dee357cd729a,69b92ae2167b544edee6d8ce,0.0925,0.0925,0,137,137,26,1,twoone,,,,,,,,,,,,,,,,,,,,,,,,,,,,,,,,,,,,,,,,,,,,,,,,,,,,,,,,,,,,,,,,,,,,,,,,,,,,,,,,,,,,,,,,,,,,,,,,,,,,,,,,,,,,,,,,,,,,,,,,,,,,,,,,,,,,,,,,,
,,5f78e7a0d14cd84e060fde57,2026-03-17_12h24.37.724,kallum_motion_pilot_GIST_update_2,2026.1.1,Win32,30.58103976,5f78e7a0d14cd84e060fde57,69b92ab4aef6dee357cd729a,69b92ae2167b544edee6d8ce,0.0929,0.0929,0,138,138,154,1,sixfive,,,,,,,,,,,,,,,,,,,,,,,,,,,,,,,,,,,,,,,,,,,,,,,,,,,,,,,,,,,,,,,,,,,,,,,,,,,,,,,,,,,,,,,,,,,,,,,,,,,,,,,,,,,,,,,,,,,,,,,,,,,,,,,,,,,,,,,,,
,,5f78e7a0d14cd84e060fde57,2026-03-17_12h24.37.724,kallum_motion_pilot_GIST_update_2,2026.1.1,Win32,30.58103976,5f78e7a0d14cd84e060fde57,69b92ab4aef6dee357cd729a,69b92ae2167b544edee6d8ce,0.0932,0.0932,0,139,139,122,1,sixfive,,,,,,,,,,,,,,,,,,,,,,,,,,,,,,,,,,,,,,,,,,,,,,,,,,,,,,,,,,,,,,,,,,,,,,,,,,,,,,,,,,,,,,,,,,,,,,,,,,,,,,,,,,,,,,,,,,,,,,,,,,,,,,,,,,,,,,,,,
,,5f78e7a0d14cd84e060fde57,2026-03-17_12h24.37.724,kallum_motion_pilot_GIST_update_2,2026.1.1,Win32,30.58103976,5f78e7a0d14cd84e060fde57,69b92ab4aef6dee357cd729a,69b92ae2167b544edee6d8ce,0.0935,0.0935,0,140,140,133,1,seveneight,,,,,,,,,,,,,,,,,,,,,,,,,,,,,,,,,,,,,,,,,,,,,,,,,,,,,,,,,,,,,,,,,,,,,,,,,,,,,,,,,,,,,,,,,,,,,,,,,,,,,,,,,,,,,,,,,,,,,,,,,,,,,,,,,,,,,,,,,
,,5f78e7a0d14cd84e060fde57,2026-03-17_12h24.37.724,kallum_motion_pilot_GIST_update_2,2026.1.1,Win32,30.58103976,5f78e7a0d14cd84e060fde57,69b92ab4aef6dee357cd729a,69b92ae2167b544edee6d8ce,0.0938,0.0938,0,141,141,63,1,fourthree,,,,,,,,,,,,,,,,,,,,,,,,,,,,,,,,,,,,,,,,,,,,,,,,,,,,,,,,,,,,,,,,,,,,,,,,,,,,,,,,,,,,,,,,,,,,,,,,,,,,,,,,,,,,,,,,,,,,,,,,,,,,,,,,,,,,,,,,,
,,5f78e7a0d14cd84e060fde57,2026-03-17_12h24.37.724,kallum_motion_pilot_GIST_update_2,2026.1.1,Win32,30.58103976,5f78e7a0d14cd84e060fde57,69b92ab4aef6dee357cd729a,69b92ae2167b544edee6d8ce,0.0941,0.0942,0,142,142,20,1,threeone,,,,,,,,,,,,,,,,,,,,,,,,,,,,,,,,,,,,,,,,,,,,,,,,,,,,,,,,,,,,,,,,,,,,,,,,,,,,,,,,,,,,,,,,,,,,,,,,,,,,,,,,,,,,,,,,,,,,,,,,,,,,,,,,,,,,,,,,,
,,5f78e7a0d14cd84e060fde57,2026-03-17_12h24.37.724,kallum_motion_pilot_GIST_update_2,2026.1.1,Win32,30.58103976,5f78e7a0d14cd84e060fde57,69b92ab4aef6dee357cd729a,69b92ae2167b544edee6d8ce,0.0944,0.0944,0,143,143,131,1,sixeight,,,,,,,,,,,,,,,,,,,,,,,,,,,,,,,,,,,,,,,,,,,,,,,,,,,,,,,,,,,,,,,,,,,,,,,,,,,,,,,,,,,,,,,,,,,,,,,,,,,,,,,,,,,,,,,,,,,,,,,,,,,,,,,,,,,,,,,,,
,,5f78e7a0d14cd84e060fde57,2026-03-17_12h24.37.724,kallum_motion_pilot_GIST_update_2,2026.1.1,Win32,30.58103976,5f78e7a0d14cd84e060fde57,69b92ab4aef6dee357cd729a,69b92ae2167b544edee6d8ce,0.095,0.095,0,144,144,118,1,eightsix,,,,,,,,,,,,,,,,,,,,,,,,,,,,,,,,,,,,,,,,,,,,,,,,,,,,,,,,,,,,,,,,,,,,,,,,,,,,,,,,,,,,,,,,,,,,,,,,,,,,,,,,,,,,,,,,,,,,,,,,,,,,,,,,,,,,,,,,,
,,5f78e7a0d14cd84e060fde57,2026-03-17_12h24.37.724,kallum_motion_pilot_GIST_update_2,2026.1.1,Win32,30.58103976,5f78e7a0d14cd84e060fde57,69b92ab4aef6dee357cd729a,69b92ae2167b544edee6d8ce,0.0952,0.0952,0,145,145,90,1,sixfive,,,,,,,,,,,,,,,,,,,,,,,,,,,,,,,,,,,,,,,,,,,,,,,,,,,,,,,,,,,,,,,,,,,,,,,,,,,,,,,,,,,,,,,,,,,,,,,,,,,,,,,,,,,,,,,,,,,,,,,,,,,,,,,,,,,,,,,,,
,,5f78e7a0d14cd84e060fde57,2026-03-17_12h24.37.724,kallum_motion_pilot_GIST_update_2,2026.1.1,Win32,30.58103976,5f78e7a0d14cd84e060fde57,69b92ab4aef6dee357cd729a,69b92ae2167b544edee6d8ce,0.0955,0.0955,0,146,146,25,1,onethree,,,,,,,,,,,,,,,,,,,,,,,,,,,,,,,,,,,,,,,,,,,,,,,,,,,,,,,,,,,,,,,,,,,,,,,,,,,,,,,,,,,,,,,,,,,,,,,,,,,,,,,,,,,,,,,,,,,,,,,,,,,,,,,,,,,,,,,,,
,,5f78e7a0d14cd84e060fde57,2026-03-17_12h24.37.724,kallum_motion_pilot_GIST_update_2,2026.1.1,Win32,30.58103976,5f78e7a0d14cd84e060fde57,69b92ab4aef6dee357cd729a,69b92ae2167b544edee6d8ce,0.096,0.096,0,147,147,69,1,threefour,,,,,,,,,,,,,,,,,,,,,,,,,,,,,,,,,,,,,,,,,,,,,,,,,,,,,,,,,,,,,,,,,,,,,,,,,,,,,,,,,,,,,,,,,,,,,,,,,,,,,,,,,,,,,,,,,,,,,,,,,,,,,,,,,,,,,,,,,
,,5f78e7a0d14cd84e060fde57,2026-03-17_12h24.37.724,kallum_motion_pilot_GIST_update_2,2026.1.1,Win32,30.58103976,5f78e7a0d14cd84e060fde57,69b92ab4aef6dee357cd729a,69b92ae2167b544edee6d8ce,0.0964,0.0964,0,148,148,34,1,twoone,,,,,,,,,,,,,,,,,,,,,,,,,,,,,,,,,,,,,,,,,,,,,,,,,,,,,,,,,,,,,,,,,,,,,,,,,,,,,,,,,,,,,,,,,,,,,,,,,,,,,,,,,,,,,,,,,,,,,,,,,,,,,,,,,,,,,,,,,
,,5f78e7a0d14cd84e060fde57,2026-03-17_12h24.37.724,kallum_motion_pilot_GIST_update_2,2026.1.1,Win32,30.58103976,5f78e7a0d14cd84e060fde57,69b92ab4aef6dee357cd729a,69b92ae2167b544edee6d8ce,0.0966,0.0966,0,149,149,54,1,fourtwo,,,,,,,,,,,,,,,,,,,,,,,,,,,,,,,,,,,,,,,,,,,,,,,,,,,,,,,,,,,,,,,,,,,,,,,,,,,,,,,,,,,,,,,,,,,,,,,,,,,,,,,,,,,,,,,,,,,,,,,,,,,,,,,,,,,,,,,,,
,,5f78e7a0d14cd84e060fde57,2026-03-17_12h24.37.724,kallum_motion_pilot_GIST_update_2,2026.1.1,Win32,30.58103976,5f78e7a0d14cd84e060fde57,69b92ab4aef6dee357cd729a,69b92ae2167b544edee6d8ce,0.0969,0.0969,0,150,150,124,1,sevenfive,,,,,,,,,,,,,,,,,,,,,,,,,,,,,,,,,,,,,,,,,,,,,,,,,,,,,,,,,,,,,,,,,,,,,,,,,,,,,,,,,,,,,,,,,,,,,,,,,,,,,,,,,,,,,,,,,,,,,,,,,,,,,,,,,,,,,,,,,
,,5f78e7a0d14cd84e060fde57,2026-03-17_12h24.37.724,kallum_motion_pilot_GIST_update_2,2026.1.1,Win32,30.58103976,5f78e7a0d14cd84e060fde57,69b92ab4aef6dee357cd729a,69b92ae2167b544edee6d8ce,0.0972,0.0972,0,151,151,8,1,onetwo,,,,,,,,,,,,,,,,,,,,,,,,,,,,,,,,,,,,,,,,,,,,,,,,,,,,,,,,,,,,,,,,,,,,,,,,,,,,,,,,,,,,,,,,,,,,,,,,,,,,,,,,,,,,,,,,,,,,,,,,,,,,,,,,,,,,,,,,,
,,5f78e7a0d14cd84e060fde57,2026-03-17_12h24.37.724,kallum_motion_pilot_GIST_update_2,2026.1.1,Win32,30.58103976,5f78e7a0d14cd84e060fde57,69b92ab4aef6dee357cd729a,69b92ae2167b544edee6d8ce,0.0975,0.0975,0,152,152,92,1,sevenfive,,,,,,,,,,,,,,,,,,,,,,,,,,,,,,,,,,,,,,,,,,,,,,,,,,,,,,,,,,,,,,,,,,,,,,,,,,,,,,,,,,,,,,,,,,,,,,,,,,,,,,,,,,,,,,,,,,,,,,,,,,,,,,,,,,,,,,,,,
,,5f78e7a0d14cd84e060fde57,2026-03-17_12h24.37.724,kallum_motion_pilot_GIST_update_2,2026.1.1,Win32,30.58103976,5f78e7a0d14cd84e060fde57,69b92ab4aef6dee357cd729a,69b92ae2167b544edee6d8ce,0.0978,0.0979,0,153,153,96,1,fivesix,,,,,,,,,,,,,,,,,,,,,,,,,,,,,,,,,,,,,,,,,,,,,,,,,,,,,,,,,,,,,,,,,,,,,,,,,,,,,,,,,,,,,,,,,,,,,,,,,,,,,,,,,,,,,,,,,,,,,,,,,,,,,,,,,,,,,,,,,
,,5f78e7a0d14cd84e060fde57,2026-03-17_12h24.37.724,kallum_motion_pilot_GIST_update_2,2026.1.1,Win32,30.58103976,5f78e7a0d14cd84e060fde57,69b92ab4aef6dee357cd729a,69b92ae2167b544edee6d8ce,0.0981,0.0981,0,154,154,15,1,fourthree,,,,,,,,,,,,,,,,,,,,,,,,,,,,,,,,,,,,,,,,,,,,,,,,,,,,,,,,,,,,,,,,,,,,,,,,,,,,,,,,,,,,,,,,,,,,,,,,,,,,,,,,,,,,,,,,,,,,,,,,,,,,,,,,,,,,,,,,,
,,5f78e7a0d14cd84e060fde57,2026-03-17_12h24.37.724,kallum_motion_pilot_GIST_update_2,2026.1.1,Win32,30.58103976,5f78e7a0d14cd84e060fde57,69b92ab4aef6dee357cd729a,69b92ae2167b544edee6d8ce,0.0984,0.0984,0,155,155,17,1,onethree,,,,,,,,,,,,,,,,,,,,,,,,,,,,,,,,,,,,,,,,,,,,,,,,,,,,,,,,,,,,,,,,,,,,,,,,,,,,,,,,,,,,,,,,,,,,,,,,,,,,,,,,,,,,,,,,,,,,,,,,,,,,,,,,,,,,,,,,,
,,5f78e7a0d14cd84e060fde57,2026-03-17_12h24.37.724,kallum_motion_pilot_GIST_update_2,2026.1.1,Win32,30.58103976,5f78e7a0d14cd84e060fde57,69b92ab4aef6dee357cd729a,69b92ae2167b544edee6d8ce,0.0987,0.0987,0,156,156,105,1,fiveseven,,,,,,,,,,,,,,,,,,,,,,,,,,,,,,,,,,,,,,,,,,,,,,,,,,,,,,,,,,,,,,,,,,,,,,,,,,,,,,,,,,,,,,,,,,,,,,,,,,,,,,,,,,,,,,,,,,,,,,,,,,,,,,,,,,,,,,,,,
,,5f78e7a0d14cd84e060fde57,2026-03-17_12h24.37.724,kallum_motion_pilot_GIST_update_2,2026.1.1,Win32,30.58103976,5f78e7a0d14cd84e060fde57,69b92ab4aef6dee357cd729a,69b92ae2167b544edee6d8ce,0.0991,0.0991,0,157,157,23,1,fourthree,,,,,,,,,,,,,,,,,,,,,,,,,,,,,,,,,,,,,,,,,,,,,,,,,,,,,,,,,,,,,,,,,,,,,,,,,,,,,,,,,,,,,,,,,,,,,,,,,,,,,,,,,,,,,,,,,,,,,,,,,,,,,,,,,,,,,,,,,
,,5f78e7a0d14cd84e060fde57,2026-03-17_12h24.37.724,kallum_motion_pilot_GIST_update_2,2026.1.1,Win32,30.58103976,5f78e7a0d14cd84e060fde57,69b92ab4aef6dee357cd729a,69b92ae2167b544edee6d8ce,0.0993,0.0993,0,158,158,78,1,fourtwo,,,,,,,,,,,,,,,,,,,,,,,,,,,,,,,,,,,,,,,,,,,,,,,,,,,,,,,,,,,,,,,,,,,,,,,,,,,,,,,,,,,,,,,,,,,,,,,,,,,,,,,,,,,,,,,,,,,,,,,,,,,,,,,,,,,,,,,,,
,,5f78e7a0d14cd84e060fde57,2026-03-17_12h24.37.724,kallum_motion_pilot_GIST_update_2,2026.1.1,Win32,30.58103976,5f78e7a0d14cd84e060fde57,69b92ab4aef6dee357cd729a,69b92ae2167b544edee6d8ce,0.0996,0.0997,0,159,159,1,1,onethree,,,,,,,,,,,,,,,,,,,,,,,,,,,,,,,,,,,,,,,,,,,,,,,,,,,,,,,,,,,,,,,,,,,,,,,,,,,,,,,,,,,,,,,,,,,,,,,,,,,,,,,,,,,,,,,,,,,,,,,,,,,,,,,,,,,,,,,,,
,,5f78e7a0d14cd84e060fde57,2026-03-17_12h24.37.724,kallum_motion_pilot_GIST_update_2,2026.1.1,Win32,30.58103976,5f78e7a0d14cd84e060fde57,69b92ab4aef6dee357cd729a,69b92ae2167b544edee6d8ce,0.0999,0.0999,0,160,160,141,1,seveneight,,,,,,,,,,,,,,,,,,,,,,,,,,,,,,,,,,,,,,,,,,,,,,,,,,,,,,,,,,,,,,,,,,,,,,,,,,,,,,,,,,,,,,,,,,,,,,,,,,,,,,,,,,,,,,,,,,,,,,,,,,,,,,,,,,,,,,,,,
,,5f78e7a0d14cd84e060fde57,2026-03-17_12h24.37.724,kallum_motion_pilot_GIST_update_2,2026.1.1,Win32,30.58103976,5f78e7a0d14cd84e060fde57,69b92ab4aef6dee357cd729a,69b92ae2167b544edee6d8ce,0.1002,0.1003,0,161,161,40,1,onetwo,,,,,,,,,,,,,,,,,,,,,,,,,,,,,,,,,,,,,,,,,,,,,,,,,,,,,,,,,,,,,,,,,,,,,,,,,,,,,,,,,,,,,,,,,,,,,,,,,,,,,,,,,,,,,,,,,,,,,,,,,,,,,,,,,,,,,,,,,
,,5f78e7a0d14cd84e060fde57,2026-03-17_12h24.37.724,kallum_motion_pilot_GIST_update_2,2026.1.1,Win32,30.58103976,5f78e7a0d14cd84e060fde57,69b92ab4aef6dee357cd729a,69b92ae2167b544edee6d8ce,0.1006,0.1006,1,0,162,77,1,threefour,,,,,,,,,,,,,,,,,,,,,,,,,,,,,,,,,,,,,,,,,,,,,,,,,,,,,,,,,,,,,,,,,,,,,,,,,,,,,,,,,,,,,,,,,,,,,,,,,,,,,,,,,,,,,,,,,,,,,,,,,,,,,,,,,,,,,,,,,
,,5f78e7a0d14cd84e060fde57,2026-03-17_12h24.37.724,kallum_motion_pilot_GIST_update_2,2026.1.1,Win32,30.58103976,5f78e7a0d14cd84e060fde57,69b92ab4aef6dee357cd729a,69b92ae2167b544edee6d8ce,0.1008,0.1009,1,1,163,91,1,sixeight,,,,,,,,,,,,,,,,,,,,,,,,,,,,,,,,,,,,,,,,,,,,,,,,,,,,,,,,,,,,,,,,,,,,,,,,,,,,,,,,,,,,,,,,,,,,,,,,,,,,,,,,,,,,,,,,,,,,,,,,,,,,,,,,,,,,,,,,,
,,5f78e7a0d14cd84e060fde57,2026-03-17_12h24.37.724,kallum_motion_pilot_GIST_update_2,2026.1.1,Win32,30.58103976,5f78e7a0d14cd84e060fde57,69b92ab4aef6dee357cd729a,69b92ae2167b544edee6d8ce,0.1012,0.1012,1,2,164,138,1,sixfive,,,,,,,,,,,,,,,,,,,,,,,,,,,,,,,,,,,,,,,,,,,,,,,,,,,,,,,,,,,,,,,,,,,,,,,,,,,,,,,,,,,,,,,,,,,,,,,,,,,,,,,,,,,,,,,,,,,,,,,,,,,,,,,,,,,,,,,,,
,,5f78e7a0d14cd84e060fde57,2026-03-17_12h24.37.724,kallum_motion_pilot_GIST_update_2,2026.1.1,Win32,30.58103976,5f78e7a0d14cd84e060fde57,69b92ab4aef6dee357cd729a,69b92ae2167b544edee6d8ce,0.1014,0.1014,1,3,165,19,1,twofour,,,,,,,,,,,,,,,,,,,,,,,,,,,,,,,,,,,,,,,,,,,,,,,,,,,,,,,,,,,,,,,,,,,,,,,,,,,,,,,,,,,,,,,,,,,,,,,,,,,,,,,,,,,,,,,,,,,,,,,,,,,,,,,,,,,,,,,,,
,,5f78e7a0d14cd84e060fde57,2026-03-17_12h24.37.724,kallum_motion_pilot_GIST_update_2,2026.1.1,Win32,30.58103976,5f78e7a0d14cd84e060fde57,69b92ab4aef6dee357cd729a,69b92ae2167b544edee6d8ce,0.1018,0.1018,1,4,166,80,1,fivesix,,,,,,,,,,,,,,,,,,,,,,,,,,,,,,,,,,,,,,,,,,,,,,,,,,,,,,,,,,,,,,,,,,,,,,,,,,,,,,,,,,,,,,,,,,,,,,,,,,,,,,,,,,,,,,,,,,,,,,,,,,,,,,,,,,,,,,,,,
,,5f78e7a0d14cd84e060fde57,2026-03-17_12h24.37.724,kallum_motion_pilot_GIST_update_2,2026.1.1,Win32,30.58103976,5f78e7a0d14cd84e060fde57,69b92ab4aef6dee357cd729a,69b92ae2167b544edee6d8ce,0.1021,0.1022,1,5,167,135,1,eightseven,,,,,,,,,,,,,,,,,,,,,,,,,,,,,,,,,,,,,,,,,,,,,,,,,,,,,,,,,,,,,,,,,,,,,,,,,,,,,,,,,,,,,,,,,,,,,,,,,,,,,,,,,,,,,,,,,,,,,,,,,,,,,,,,,,,,,,,,,
,,5f78e7a0d14cd84e060fde57,2026-03-17_12h24.37.724,kallum_motion_pilot_GIST_update_2,2026.1.1,Win32,30.58103976,5f78e7a0d14cd84e060fde57,69b92ab4aef6dee357cd729a,69b92ae2167b544edee6d8ce,0.1024,0.1024,1,6,168,150,1,eightsix,,,,,,,,,,,,,,,,,,,,,,,,,,,,,,,,,,,,,,,,,,,,,,,,,,,,,,,,,,,,,,,,,,,,,,,,,,,,,,,,,,,,,,,,,,,,,,,,,,,,,,,,,,,,,,,,,,,,,,,,,,,,,,,,,,,,,,,,,
,,5f78e7a0d14cd84e060fde57,2026-03-17_12h24.37.724,kallum_motion_pilot_GIST_update_2,2026.1.1,Win32,30.58103976,5f78e7a0d14cd84e060fde57,69b92ab4aef6dee357cd729a,69b92ae2167b544edee6d8ce,0.1028,0.1028,1,7,169,27,1,twofour,,,,,,,,,,,,,,,,,,,,,,,,,,,,,,,,,,,,,,,,,,,,,,,,,,,,,,,,,,,,,,,,,,,,,,,,,,,,,,,,,,,,,,,,,,,,,,,,,,,,,,,,,,,,,,,,,,,,,,,,,,,,,,,,,,,,,,,,,
,,5f78e7a0d14cd84e060fde57,2026-03-17_12h24.37.724,kallum_motion_pilot_GIST_update_2,2026.1.1,Win32,30.58103976,5f78e7a0d14cd84e060fde57,69b92ab4aef6dee357cd729a,69b92ae2167b544edee6d8ce,0.103,0.1031,1,8,170,32,1,onetwo,,,,,,,,,,,,,,,,,,,,,,,,,,,,,,,,,,,,,,,,,,,,,,,,,,,,,,,,,,,,,,,,,,,,,,,,,,,,,,,,,,,,,,,,,,,,,,,,,,,,,,,,,,,,,,,,,,,,,,,,,,,,,,,,,,,,,,,,,
,,5f78e7a0d14cd84e060fde57,2026-03-17_12h24.37.724,kallum_motion_pilot_GIST_update_2,2026.1.1,Win32,30.58103976,5f78e7a0d14cd84e060fde57,69b92ab4aef6dee357cd729a,69b92ae2167b544edee6d8ce,0.1034,0.1034,1,9,171,109,1,seveneight,,,,,,,,,,,,,,,,,,,,,,,,,,,,,,,,,,,,,,,,,,,,,,,,,,,,,,,,,,,,,,,,,,,,,,,,,,,,,,,,,,,,,,,,,,,,,,,,,,,,,,,,,,,,,,,,,,,,,,,,,,,,,,,,,,,,,,,,,
,,5f78e7a0d14cd84e060fde57,2026-03-17_12h24.37.724,kallum_motion_pilot_GIST_update_2,2026.1.1,Win32,30.58103976,5f78e7a0d14cd84e060fde57,69b92ab4aef6dee357cd729a,69b92ae2167b544edee6d8ce,0.1036,0.1037,1,10,172,26,1,twoone,,,,,,,,,,,,,,,,,,,,,,,,,,,,,,,,,,,,,,,,,,,,,,,,,,,,,,,,,,,,,,,,,,,,,,,,,,,,,,,,,,,,,,,,,,,,,,,,,,,,,,,,,,,,,,,,,,,,,,,,,,,,,,,,,,,,,,,,,
,,5f78e7a0d14cd84e060fde57,2026-03-17_12h24.37.724,kallum_motion_pilot_GIST_update_2,2026.1.1,Win32,30.58103976,5f78e7a0d14cd84e060fde57,69b92ab4aef6dee357cd729a,69b92ae2167b544edee6d8ce,0.1047,0.1047,1,11,173,102,1,eightsix,,,,,,,,,,,,,,,,,,,,,,,,,,,,,,,,,,,,,,,,,,,,,,,,,,,,,,,,,,,,,,,,,,,,,,,,,,,,,,,,,,,,,,,,,,,,,,,,,,,,,,,,,,,,,,,,,,,,,,,,,,,,,,,,,,,,,,,,,
,,5f78e7a0d14cd84e060fde57,2026-03-17_12h24.37.724,kallum_motion_pilot_GIST_update_2,2026.1.1,Win32,30.58103976,5f78e7a0d14cd84e060fde57,69b92ab4aef6dee357cd729a,69b92ae2167b544edee6d8ce,0.1051,0.1051,1,12,174,159,1,eightseven,,,,,,,,,,,,,,,,,,,,,,,,,,,,,,,,,,,,,,,,,,,,,,,,,,,,,,,,,,,,,,,,,,,,,,,,,,,,,,,,,,,,,,,,,,,,,,,,,,,,,,,,,,,,,,,,,,,,,,,,,,,,,,,,,,,,,,,,,
,,5f78e7a0d14cd84e060fde57,2026-03-17_12h24.37.724,kallum_motion_pilot_GIST_update_2,2026.1.1,Win32,30.58103976,5f78e7a0d14cd84e060fde57,69b92ab4aef6dee357cd729a,69b92ae2167b544edee6d8ce,0.1053,0.1053,1,13,175,64,1,onetwo,,,,,,,,,,,,,,,,,,,,,,,,,,,,,,,,,,,,,,,,,,,,,,,,,,,,,,,,,,,,,,,,,,,,,,,,,,,,,,,,,,,,,,,,,,,,,,,,,,,,,,,,,,,,,,,,,,,,,,,,,,,,,,,,,,,,,,,,,
,,5f78e7a0d14cd84e060fde57,2026-03-17_12h24.37.724,kallum_motion_pilot_GIST_update_2,2026.1.1,Win32,30.58103976,5f78e7a0d14cd84e060fde57,69b92ab4aef6dee357cd729a,69b92ae2167b544edee6d8ce,0.1057,0.1057,1,14,176,84,1,sevenfive,,,,,,,,,,,,,,,,,,,,,,,,,,,,,,,,,,,,,,,,,,,,,,,,,,,,,,,,,,,,,,,,,,,,,,,,,,,,,,,,,,,,,,,,,,,,,,,,,,,,,,,,,,,,,,,,,,,,,,,,,,,,,,,,,,,,,,,,,
,,5f78e7a0d14cd84e060fde57,2026-03-17_12h24.37.724,kallum_motion_pilot_GIST_update_2,2026.1.1,Win32,30.58103976,5f78e7a0d14cd84e060fde57,69b92ab4aef6dee357cd729a,69b92ae2167b544edee6d8ce,0.1061,0.1062,1,15,177,10,1,twoone,,,,,,,,,,,,,,,,,,,,,,,,,,,,,,,,,,,,,,,,,,,,,,,,,,,,,,,,,,,,,,,,,,,,,,,,,,,,,,,,,,,,,,,,,,,,,,,,,,,,,,,,,,,,,,,,,,,,,,,,,,,,,,,,,,,,,,,,,
,,5f78e7a0d14cd84e060fde57,2026-03-17_12h24.37.724,kallum_motion_pilot_GIST_update_2,2026.1.1,Win32,30.58103976,5f78e7a0d14cd84e060fde57,69b92ab4aef6dee357cd729a,69b92ae2167b544edee6d8ce,0.1065,0.1065,1,16,178,128,1,fivesix,,,,,,,,,,,,,,,,,,,,,,,,,,,,,,,,,,,,,,,,,,,,,,,,,,,,,,,,,,,,,,,,,,,,,,,,,,,,,,,,,,,,,,,,,,,,,,,,,,,,,,,,,,,,,,,,,,,,,,,,,,,,,,,,,,,,,,,,,
,,5f78e7a0d14cd84e060fde57,2026-03-17_12h24.37.724,kallum_motion_pilot_GIST_update_2,2026.1.1,Win32,30.58103976,5f78e7a0d14cd84e060fde57,69b92ab4aef6dee357cd729a,69b92ae2167b544edee6d8ce,0.107,0.1071,1,17,179,14,1,fourtwo,,,,,,,,,,,,,,,,,,,,,,,,,,,,,,,,,,,,,,,,,,,,,,,,,,,,,,,,,,,,,,,,,,,,,,,,,,,,,,,,,,,,,,,,,,,,,,,,,,,,,,,,,,,,,,,,,,,,,,,,,,,,,,,,,,,,,,,,,
,,5f78e7a0d14cd84e060fde57,2026-03-17_12h24.37.724,kallum_motion_pilot_GIST_update_2,2026.1.1,Win32,30.58103976,5f78e7a0d14cd84e060fde57,69b92ab4aef6dee357cd729a,69b92ae2167b544edee6d8ce,0.1074,0.1075,1,18,180,44,1,threeone,,,,,,,,,,,,,,,,,,,,,,,,,,,,,,,,,,,,,,,,,,,,,,,,,,,,,,,,,,,,,,,,,,,,,,,,,,,,,,,,,,,,,,,,,,,,,,,,,,,,,,,,,,,,,,,,,,,,,,,,,,,,,,,,,,,,,,,,,
,,5f78e7a0d14cd84e060fde57,2026-03-17_12h24.37.724,kallum_motion_pilot_GIST_update_2,2026.1.1,Win32,30.58103976,5f78e7a0d14cd84e060fde57,69b92ab4aef6dee357cd729a,69b92ae2167b544edee6d8ce,0.1079,0.1079,1,19,181,83,1,sixeight,,,,,,,,,,,,,,,,,,,,,,,,,,,,,,,,,,,,,,,,,,,,,,,,,,,,,,,,,,,,,,,,,,,,,,,,,,,,,,,,,,,,,,,,,,,,,,,,,,,,,,,,,,,,,,,,,,,,,,,,,,,,,,,,,,,,,,,,,
,,5f78e7a0d14cd84e060fde57,2026-03-17_12h24.37.724,kallum_motion_pilot_GIST_update_2,2026.1.1,Win32,30.58103976,5f78e7a0d14cd84e060fde57,69b92ab4aef6dee357cd729a,69b92ae2167b544edee6d8ce,0.1081,0.1081,1,20,182,73,1,onethree,,,,,,,,,,,,,,,,,,,,,,,,,,,,,,,,,,,,,,,,,,,,,,,,,,,,,,,,,,,,,,,,,,,,,,,,,,,,,,,,,,,,,,,,,,,,,,,,,,,,,,,,,,,,,,,,,,,,,,,,,,,,,,,,,,,,,,,,,
,,5f78e7a0d14cd84e060fde57,2026-03-17_12h24.37.724,kallum_motion_pilot_GIST_update_2,2026.1.1,Win32,30.58103976,5f78e7a0d14cd84e060fde57,69b92ab4aef6dee357cd729a,69b92ae2167b544edee6d8ce,0.1084,0.1085,1,21,183,46,1,fourtwo,,,,,,,,,,,,,,,,,,,,,,,,,,,,,,,,,,,,,,,,,,,,,,,,,,,,,,,,,,,,,,,,,,,,,,,,,,,,,,,,,,,,,,,,,,,,,,,,,,,,,,,,,,,,,,,,,,,,,,,,,,,,,,,,,,,,,,,,,
,,5f78e7a0d14cd84e060fde57,2026-03-17_12h24.37.724,kallum_motion_pilot_GIST_update_2,2026.1.1,Win32,30.58103976,5f78e7a0d14cd84e060fde57,69b92ab4aef6dee357cd729a,69b92ae2167b544edee6d8ce,0.1088,0.1088,1,22,184,28,1,threeone,,,,,,,,,,,,,,,,,,,,,,,,,,,,,,,,,,,,,,,,,,,,,,,,,,,,,,,,,,,,,,,,,,,,,,,,,,,,,,,,,,,,,,,,,,,,,,,,,,,,,,,,,,,,,,,,,,,,,,,,,,,,,,,,,,,,,,,,,
,,5f78e7a0d14cd84e060fde57,2026-03-17_12h24.37.724,kallum_motion_pilot_GIST_update_2,2026.1.1,Win32,30.58103976,5f78e7a0d14cd84e060fde57,69b92ab4aef6dee357cd729a,69b92ae2167b544edee6d8ce,0.1091,0.1091,1,23,185,89,1,fiveseven,,,,,,,,,,,,,,,,,,,,,,,,,,,,,,,,,,,,,,,,,,,,,,,,,,,,,,,,,,,,,,,,,,,,,,,,,,,,,,,,,,,,,,,,,,,,,,,,,,,,,,,,,,,,,,,,,,,,,,,,,,,,,,,,,,,,,,,,,
,,5f78e7a0d14cd84e060fde57,2026-03-17_12h24.37.724,kallum_motion_pilot_GIST_update_2,2026.1.1,Win32,30.58103976,5f78e7a0d14cd84e060fde57,69b92ab4aef6dee357cd729a,69b92ae2167b544edee6d8ce,0.1094,0.1094,1,24,186,86,1,eightsix,,,,,,,,,,,,,,,,,,,,,,,,,,,,,,,,,,,,,,,,,,,,,,,,,,,,,,,,,,,,,,,,,,,,,,,,,,,,,,,,,,,,,,,,,,,,,,,,,,,,,,,,,,,,,,,,,,,,,,,,,,,,,,,,,,,,,,,,,
,,5f78e7a0d14cd84e060fde57,2026-03-17_12h24.37.724,kallum_motion_pilot_GIST_update_2,2026.1.1,Win32,30.58103976,5f78e7a0d14cd84e060fde57,69b92ab4aef6dee357cd729a,69b92ae2167b544edee6d8ce,0.1097,0.1098,1,25,187,62,1,fourtwo,,,,,,,,,,,,,,,,,,,,,,,,,,,,,,,,,,,,,,,,,,,,,,,,,,,,,,,,,,,,,,,,,,,,,,,,,,,,,,,,,,,,,,,,,,,,,,,,,,,,,,,,,,,,,,,,,,,,,,,,,,,,,,,,,,,,,,,,,
,,5f78e7a0d14cd84e060fde57,2026-03-17_12h24.37.724,kallum_motion_pilot_GIST_update_2,2026.1.1,Win32,30.58103976,5f78e7a0d14cd84e060fde57,69b92ab4aef6dee357cd729a,69b92ae2167b544edee6d8ce,0.1101,0.1101,1,26,188,152,1,fivesix,,,,,,,,,,,,,,,,,,,,,,,,,,,,,,,,,,,,,,,,,,,,,,,,,,,,,,,,,,,,,,,,,,,,,,,,,,,,,,,,,,,,,,,,,,,,,,,,,,,,,,,,,,,,,,,,,,,,,,,,,,,,,,,,,,,,,,,,,
,,5f78e7a0d14cd84e060fde57,2026-03-17_12h24.37.724,kallum_motion_pilot_GIST_update_2,2026.1.1,Win32,30.58103976,5f78e7a0d14cd84e060fde57,69b92ab4aef6dee357cd729a,69b92ae2167b544edee6d8ce,0.1104,0.1104,1,27,189,101,1,seveneight,,,,,,,,,,,,,,,,,,,,,,,,,,,,,,,,,,,,,,,,,,,,,,,,,,,,,,,,,,,,,,,,,,,,,,,,,,,,,,,,,,,,,,,,,,,,,,,,,,,,,,,,,,,,,,,,,,,,,,,,,,,,,,,,,,,,,,,,,
,,5f78e7a0d14cd84e060fde57,2026-03-17_12h24.37.724,kallum_motion_pilot_GIST_update_2,2026.1.1,Win32,30.58103976,5f78e7a0d14cd84e060fde57,69b92ab4aef6dee357cd729a,69b92ae2167b544edee6d8ce,0.1107,0.1107,1,28,190,66,1,twoone,,,,,,,,,,,,,,,,,,,,,,,,,,,,,,,,,,,,,,,,,,,,,,,,,,,,,,,,,,,,,,,,,,,,,,,,,,,,,,,,,,,,,,,,,,,,,,,,,,,,,,,,,,,,,,,,,,,,,,,,,,,,,,,,,,,,,,,,,
,,5f78e7a0d14cd84e060fde57,2026-03-17_12h24.37.724,kallum_motion_pilot_GIST_update_2,2026.1.1,Win32,30.58103976,5f78e7a0d14cd84e060fde57,69b92ab4aef6dee357cd729a,69b92ae2167b544edee6d8ce,0.111,0.111,1,29,191,145,1,fiveseven,,,,,,,,,,,,,,,,,,,,,,,,,,,,,,,,,,,,,,,,,,,,,,,,,,,,,,,,,,,,,,,,,,,,,,,,,,,,,,,,,,,,,,,,,,,,,,,,,,,,,,,,,,,,,,,,,,,,,,,,,,,,,,,,,,,,,,,,,
,,5f78e7a0d14cd84e060fde57,2026-03-17_12h24.37.724,kallum_motion_pilot_GIST_update_2,2026.1.1,Win32,30.58103976,5f78e7a0d14cd84e060fde57,69b92ab4aef6dee357cd729a,69b92ae2167b544edee6d8ce,0.1113,0.1113,1,30,192,103,1,eightseven,,,,,,,,,,,,,,,,,,,,,,,,,,,,,,,,,,,,,,,,,,,,,,,,,,,,,,,,,,,,,,,,,,,,,,,,,,,,,,,,,,,,,,,,,,,,,,,,,,,,,,,,,,,,,,,,,,,,,,,,,,,,,,,,,,,,,,,,,
,,5f78e7a0d14cd84e060fde57,2026-03-17_12h24.37.724,kallum_motion_pilot_GIST_update_2,2026.1.1,Win32,30.58103976,5f78e7a0d14cd84e060fde57,69b92ab4aef6dee357cd729a,69b92ae2167b544edee6d8ce,0.1116,0.1116,1,31,193,76,1,threeone,,,,,,,,,,,,,,,,,,,,,,,,,,,,,,,,,,,,,,,,,,,,,,,,,,,,,,,,,,,,,,,,,,,,,,,,,,,,,,,,,,,,,,,,,,,,,,,,,,,,,,,,,,,,,,,,,,,,,,,,,,,,,,,,,,,,,,,,,
,,5f78e7a0d14cd84e060fde57,2026-03-17_12h24.37.724,kallum_motion_pilot_GIST_update_2,2026.1.1,Win32,30.58103976,5f78e7a0d14cd84e060fde57,69b92ab4aef6dee357cd729a,69b92ae2167b544edee6d8ce,0.112,0.112,1,32,194,95,1,eightseven,,,,,,,,,,,,,,,,,,,,,,,,,,,,,,,,,,,,,,,,,,,,,,,,,,,,,,,,,,,,,,,,,,,,,,,,,,,,,,,,,,,,,,,,,,,,,,,,,,,,,,,,,,,,,,,,,,,,,,,,,,,,,,,,,,,,,,,,,
,,5f78e7a0d14cd84e060fde57,2026-03-17_12h24.37.724,kallum_motion_pilot_GIST_update_2,2026.1.1,Win32,30.58103976,5f78e7a0d14cd84e060fde57,69b92ab4aef6dee357cd729a,69b92ae2167b544edee6d8ce,0.1123,0.1124,1,33,195,146,1,sixfive,,,,,,,,,,,,,,,,,,,,,,,,,,,,,,,,,,,,,,,,,,,,,,,,,,,,,,,,,,,,,,,,,,,,,,,,,,,,,,,,,,,,,,,,,,,,,,,,,,,,,,,,,,,,,,,,,,,,,,,,,,,,,,,,,,,,,,,,,
,,5f78e7a0d14cd84e060fde57,2026-03-17_12h24.37.724,kallum_motion_pilot_GIST_update_2,2026.1.1,Win32,30.58103976,5f78e7a0d14cd84e060fde57,69b92ab4aef6dee357cd729a,69b92ae2167b544edee6d8ce,0.1126,0.1126,1,34,196,100,1,sevenfive,,,,,,,,,,,,,,,,,,,,,,,,,,,,,,,,,,,,,,,,,,,,,,,,,,,,,,,,,,,,,,,,,,,,,,,,,,,,,,,,,,,,,,,,,,,,,,,,,,,,,,,,,,,,,,,,,,,,,,,,,,,,,,,,,,,,,,,,,
,,5f78e7a0d14cd84e060fde57,2026-03-17_12h24.37.724,kallum_motion_pilot_GIST_update_2,2026.1.1,Win32,30.58103976,5f78e7a0d14cd84e060fde57,69b92ab4aef6dee357cd729a,69b92ae2167b544edee6d8ce,0.1129,0.113,1,35,197,110,1,eightsix,,,,,,,,,,,,,,,,,,,,,,,,,,,,,,,,,,,,,,,,,,,,,,,,,,,,,,,,,,,,,,,,,,,,,,,,,,,,,,,,,,,,,,,,,,,,,,,,,,,,,,,,,,,,,,,,,,,,,,,,,,,,,,,,,,,,,,,,,
,,5f78e7a0d14cd84e060fde57,2026-03-17_12h24.37.724,kallum_motion_pilot_GIST_update_2,2026.1.1,Win32,30.58103976,5f78e7a0d14cd84e060fde57,69b92ab4aef6dee357cd729a,69b92ae2167b544edee6d8ce,0.1133,0.1133,1,36,198,108,1,sevenfive,,,,,,,,,,,,,,,,,,,,,,,,,,,,,,,,,,,,,,,,,,,,,,,,,,,,,,,,,,,,,,,,,,,,,,,,,,,,,,,,,,,,,,,,,,,,,,,,,,,,,,,,,,,,,,,,,,,,,,,,,,,,,,,,,,,,,,,,,
,,5f78e7a0d14cd84e060fde57,2026-03-17_12h24.37.724,kallum_motion_pilot_GIST_update_2,2026.1.1,Win32,30.58103976,5f78e7a0d14cd84e060fde57,69b92ab4aef6dee357cd729a,69b92ae2167b544edee6d8ce,0.1136,0.1137,1,37,199,6,1,fourtwo,,,,,,,,,,,,,,,,,,,,,,,,,,,,,,,,,,,,,,,,,,,,,,,,,,,,,,,,,,,,,,,,,,,,,,,,,,,,,,,,,,,,,,,,,,,,,,,,,,,,,,,,,,,,,,,,,,,,,,,,,,,,,,,,,,,,,,,,,
,,5f78e7a0d14cd84e060fde57,2026-03-17_12h24.37.724,kallum_motion_pilot_GIST_update_2,2026.1.1,Win32,30.58103976,5f78e7a0d14cd84e060fde57,69b92ab4aef6dee357cd729a,69b92ae2167b544edee6d8ce,0.114,0.114,1,38,200,9,1,onethree,,,,,,,,,,,,,,,,,,,,,,,,,,,,,,,,,,,,,,,,,,,,,,,,,,,,,,,,,,,,,,,,,,,,,,,,,,,,,,,,,,,,,,,,,,,,,,,,,,,,,,,,,,,,,,,,,,,,,,,,,,,,,,,,,,,,,,,,,
,,5f78e7a0d14cd84e060fde57,2026-03-17_12h24.37.724,kallum_motion_pilot_GIST_update_2,2026.1.1,Win32,30.58103976,5f78e7a0d14cd84e060fde57,69b92ab4aef6dee357cd729a,69b92ae2167b544edee6d8ce,0.1143,0.1143,1,39,201,49,1,onethree,,,,,,,,,,,,,,,,,,,,,,,,,,,,,,,,,,,,,,,,,,,,,,,,,,,,,,,,,,,,,,,,,,,,,,,,,,,,,,,,,,,,,,,,,,,,,,,,,,,,,,,,,,,,,,,,,,,,,,,,,,,,,,,,,,,,,,,,,
,,5f78e7a0d14cd84e060fde57,2026-03-17_12h24.37.724,kallum_motion_pilot_GIST_update_2,2026.1.1,Win32,30.58103976,5f78e7a0d14cd84e060fde57,69b92ab4aef6dee357cd729a,69b92ae2167b544edee6d8ce,0.1146,0.1146,1,40,202,56,1,onetwo,,,,,,,,,,,,,,,,,,,,,,,,,,,,,,,,,,,,,,,,,,,,,,,,,,,,,,,,,,,,,,,,,,,,,,,,,,,,,,,,,,,,,,,,,,,,,,,,,,,,,,,,,,,,,,,,,,,,,,,,,,,,,,,,,,,,,,,,,
,,5f78e7a0d14cd84e060fde57,2026-03-17_12h24.37.724,kallum_motion_pilot_GIST_update_2,2026.1.1,Win32,30.58103976,5f78e7a0d14cd84e060fde57,69b92ab4aef6dee357cd729a,69b92ae2167b544edee6d8ce,0.1149,0.1152,1,41,203,40,1,onetwo,,,,,,,,,,,,,,,,,,,,,,,,,,,,,,,,,,,,,,,,,,,,,,,,,,,,,,,,,,,,,,,,,,,,,,,,,,,,,,,,,,,,,,,,,,,,,,,,,,,,,,,,,,,,,,,,,,,,,,,,,,,,,,,,,,,,,,,,,
,,5f78e7a0d14cd84e060fde57,2026-03-17_12h24.37.724,kallum_motion_pilot_GIST_update_2,2026.1.1,Win32,30.58103976,5f78e7a0d14cd84e060fde57,69b92ab4aef6dee357cd729a,69b92ae2167b544edee6d8ce,0.1154,0.1156,1,42,204,148,1,sevenfive,,,,,,,,,,,,,,,,,,,,,,,,,,,,,,,,,,,,,,,,,,,,,,,,,,,,,,,,,,,,,,,,,,,,,,,,,,,,,,,,,,,,,,,,,,,,,,,,,,,,,,,,,,,,,,,,,,,,,,,,,,,,,,,,,,,,,,,,,
,,5f78e7a0d14cd84e060fde57,2026-03-17_12h24.37.724,kallum_motion_pilot_GIST_update_2,2026.1.1,Win32,30.58103976,5f78e7a0d14cd84e060fde57,69b92ab4aef6dee357cd729a,69b92ae2167b544edee6d8ce,0.1159,0.1159,1,43,205,61,1,threefour,,,,,,,,,,,,,,,,,,,,,,,,,,,,,,,,,,,,,,,,,,,,,,,,,,,,,,,,,,,,,,,,,,,,,,,,,,,,,,,,,,,,,,,,,,,,,,,,,,,,,,,,,,,,,,,,,,,,,,,,,,,,,,,,,,,,,,,,,
,,5f78e7a0d14cd84e060fde57,2026-03-17_12h24.37.724,kallum_motion_pilot_GIST_update_2,2026.1.1,Win32,30.58103976,5f78e7a0d14cd84e060fde57,69b92ab4aef6dee357cd729a,69b92ae2167b544edee6d8ce,0.1162,0.1162,1,44,206,144,1,fivesix,,,,,,,,,,,,,,,,,,,,,,,,,,,,,,,,,,,,,,,,,,,,,,,,,,,,,,,,,,,,,,,,,,,,,,,,,,,,,,,,,,,,,,,,,,,,,,,,,,,,,,,,,,,,,,,,,,,,,,,,,,,,,,,,,,,,,,,,,
,,5f78e7a0d14cd84e060fde57,2026-03-17_12h24.37.724,kallum_motion_pilot_GIST_update_2,2026.1.1,Win32,30.58103976,5f78e7a0d14cd84e060fde57,69b92ab4aef6dee357cd729a,69b92ae2167b544edee6d8ce,0.1168,0.1168,1,45,207,113,1,fiveseven,,,,,,,,,,,,,,,,,,,,,,,,,,,,,,,,,,,,,,,,,,,,,,,,,,,,,,,,,,,,,,,,,,,,,,,,,,,,,,,,,,,,,,,,,,,,,,,,,,,,,,,,,,,,,,,,,,,,,,,,,,,,,,,,,,,,,,,,,
,,5f78e7a0d14cd84e060fde57,2026-03-17_12h24.37.724,kallum_motion_pilot_GIST_update_2,2026.1.1,Win32,30.58103976,5f78e7a0d14cd84e060fde57,69b92ab4aef6dee357cd729a,69b92ae2167b544edee6d8ce,0.1172,0.1172,1,46,208,133,1,seveneight,,,,,,,,,,,,,,,,,,,,,,,,,,,,,,,,,,,,,,,,,,,,,,,,,,,,,,,,,,,,,,,,,,,,,,,,,,,,,,,,,,,,,,,,,,,,,,,,,,,,,,,,,,,,,,,,,,,,,,,,,,,,,,,,,,,,,,,,,
,,5f78e7a0d14cd84e060fde57,2026-03-17_12h24.37.724,kallum_motion_pilot_GIST_update_2,2026.1.1,Win32,30.58103976,5f78e7a0d14cd84e060fde57,69b92ab4aef6dee357cd729a,69b92ae2167b544edee6d8ce,0.1175,0.1175,1,47,209,3,1,twofour,,,,,,,,,,,,,,,,,,,,,,,,,,,,,,,,,,,,,,,,,,,,,,,,,,,,,,,,,,,,,,,,,,,,,,,,,,,,,,,,,,,,,,,,,,,,,,,,,,,,,,,,,,,,,,,,,,,,,,,,,,,,,,,,,,,,,,,,,
,,5f78e7a0d14cd84e060fde57,2026-03-17_12h24.37.724,kallum_motion_pilot_GIST_update_2,2026.1.1,Win32,30.58103976,5f78e7a0d14cd84e060fde57,69b92ab4aef6dee357cd729a,69b92ae2167b544edee6d8ce,0.1178,0.1178,1,48,210,130,1,sixfive,,,,,,,,,,,,,,,,,,,,,,,,,,,,,,,,,,,,,,,,,,,,,,,,,,,,,,,,,,,,,,,,,,,,,,,,,,,,,,,,,,,,,,,,,,,,,,,,,,,,,,,,,,,,,,,,,,,,,,,,,,,,,,,,,,,,,,,,,
,,5f78e7a0d14cd84e060fde57,2026-03-17_12h24.37.724,kallum_motion_pilot_GIST_update_2,2026.1.1,Win32,30.58103976,5f78e7a0d14cd84e060fde57,69b92ab4aef6dee357cd729a,69b92ae2167b544edee6d8ce,0.1181,0.1182,1,49,211,98,1,sixfive,,,,,,,,,,,,,,,,,,,,,,,,,,,,,,,,,,,,,,,,,,,,,,,,,,,,,,,,,,,,,,,,,,,,,,,,,,,,,,,,,,,,,,,,,,,,,,,,,,,,,,,,,,,,,,,,,,,,,,,,,,,,,,,,,,,,,,,,,
,,5f78e7a0d14cd84e060fde57,2026-03-17_12h24.37.724,kallum_motion_pilot_GIST_update_2,2026.1.1,Win32,30.58103976,5f78e7a0d14cd84e060fde57,69b92ab4aef6dee357cd729a,69b92ae2167b544edee6d8ce,0.1185,0.1185,1,50,212,65,1,onethree,,,,,,,,,,,,,,,,,,,,,,,,,,,,,,,,,,,,,,,,,,,,,,,,,,,,,,,,,,,,,,,,,,,,,,,,,,,,,,,,,,,,,,,,,,,,,,,,,,,,,,,,,,,,,,,,,,,,,,,,,,,,,,,,,,,,,,,,,
,,5f78e7a0d14cd84e060fde57,2026-03-17_12h24.37.724,kallum_motion_pilot_GIST_update_2,2026.1.1,Win32,30.58103976,5f78e7a0d14cd84e060fde57,69b92ab4aef6dee357cd729a,69b92ae2167b544edee6d8ce,0.1188,0.1188,1,51,213,88,1,fivesix,,,,,,,,,,,,,,,,,,,,,,,,,,,,,,,,,,,,,,,,,,,,,,,,,,,,,,,,,,,,,,,,,,,,,,,,,,,,,,,,,,,,,,,,,,,,,,,,,,,,,,,,,,,,,,,,,,,,,,,,,,,,,,,,,,,,,,,,,
,,5f78e7a0d14cd84e060fde57,2026-03-17_12h24.37.724,kallum_motion_pilot_GIST_update_2,2026.1.1,Win32,30.58103976,5f78e7a0d14cd84e060fde57,69b92ab4aef6dee357cd729a,69b92ae2167b544edee6d8ce,0.1191,0.1191,1,52,214,136,1,fivesix,,,,,,,,,,,,,,,,,,,,,,,,,,,,,,,,,,,,,,,,,,,,,,,,,,,,,,,,,,,,,,,,,,,,,,,,,,,,,,,,,,,,,,,,,,,,,,,,,,,,,,,,,,,,,,,,,,,,,,,,,,,,,,,,,,,,,,,,,
,,5f78e7a0d14cd84e060fde57,2026-03-17_12h24.37.724,kallum_motion_pilot_GIST_update_2,2026.1.1,Win32,30.58103976,5f78e7a0d14cd84e060fde57,69b92ab4aef6dee357cd729a,69b92ae2167b544edee6d8ce,0.1194,0.1194,1,53,215,57,1,onethree,,,,,,,,,,,,,,,,,,,,,,,,,,,,,,,,,,,,,,,,,,,,,,,,,,,,,,,,,,,,,,,,,,,,,,,,,,,,,,,,,,,,,,,,,,,,,,,,,,,,,,,,,,,,,,,,,,,,,,,,,,,,,,,,,,,,,,,,,
,,5f78e7a0d14cd84e060fde57,2026-03-17_12h24.37.724,kallum_motion_pilot_GIST_update_2,2026.1.1,Win32,30.58103976,5f78e7a0d14cd84e060fde57,69b92ab4aef6dee357cd729a,69b92ae2167b544edee6d8ce,0.1197,0.1197,1,54,216,123,1,sixeight,,,,,,,,,,,,,,,,,,,,,,,,,,,,,,,,,,,,,,,,,,,,,,,,,,,,,,,,,,,,,,,,,,,,,,,,,,,,,,,,,,,,,,,,,,,,,,,,,,,,,,,,,,,,,,,,,,,,,,,,,,,,,,,,,,,,,,,,,
,,5f78e7a0d14cd84e060fde57,2026-03-17_12h24.37.724,kallum_motion_pilot_GIST_update_2,2026.1.1,Win32,30.58103976,5f78e7a0d14cd84e060fde57,69b92ab4aef6dee357cd729a,69b92ae2167b544edee6d8ce,0.1201,0.1201,1,55,217,12,1,threeone,,,,,,,,,,,,,,,,,,,,,,,,,,,,,,,,,,,,,,,,,,,,,,,,,,,,,,,,,,,,,,,,,,,,,,,,,,,,,,,,,,,,,,,,,,,,,,,,,,,,,,,,,,,,,,,,,,,,,,,,,,,,,,,,,,,,,,,,,
,,5f78e7a0d14cd84e060fde57,2026-03-17_12h24.37.724,kallum_motion_pilot_GIST_update_2,2026.1.1,Win32,30.58103976,5f78e7a0d14cd84e060fde57,69b92ab4aef6dee357cd729a,69b92ae2167b544edee6d8ce,0.1213,0.1213,1,56,218,93,1,seveneight,,,,,,,,,,,,,,,,,,,,,,,,,,,,,,,,,,,,,,,,,,,,,,,,,,,,,,,,,,,,,,,,,,,,,,,,,,,,,,,,,,,,,,,,,,,,,,,,,,,,,,,,,,,,,,,,,,,,,,,,,,,,,,,,,,,,,,,,,
,,5f78e7a0d14cd84e060fde57,2026-03-17_12h24.37.724,kallum_motion_pilot_GIST_update_2,2026.1.1,Win32,30.58103976,5f78e7a0d14cd84e060fde57,69b92ab4aef6dee357cd729a,69b92ae2167b544edee6d8ce,0.1217,0.1217,1,57,219,115,1,sixeight,,,,,,,,,,,,,,,,,,,,,,,,,,,,,,,,,,,,,,,,,,,,,,,,,,,,,,,,,,,,,,,,,,,,,,,,,,,,,,,,,,,,,,,,,,,,,,,,,,,,,,,,,,,,,,,,,,,,,,,,,,,,,,,,,,,,,,,,,
,,5f78e7a0d14cd84e060fde57,2026-03-17_12h24.37.724,kallum_motion_pilot_GIST_update_2,2026.1.1,Win32,30.58103976,5f78e7a0d14cd84e060fde57,69b92ab4aef6dee357cd729a,69b92ae2167b544edee6d8ce,0.1221,0.1221,1,58,220,92,1,sevenfive,,,,,,,,,,,,,,,,,,,,,,,,,,,,,,,,,,,,,,,,,,,,,,,,,,,,,,,,,,,,,,,,,,,,,,,,,,,,,,,,,,,,,,,,,,,,,,,,,,,,,,,,,,,,,,,,,,,,,,,,,,,,,,,,,,,,,,,,,
,,5f78e7a0d14cd84e060fde57,2026-03-17_12h24.37.724,kallum_motion_pilot_GIST_update_2,2026.1.1,Win32,30.58103976,5f78e7a0d14cd84e060fde57,69b92ab4aef6dee357cd729a,69b92ae2167b544edee6d8ce,0.1224,0.1224,1,59,221,69,1,threefour,,,,,,,,,,,,,,,,,,,,,,,,,,,,,,,,,,,,,,,,,,,,,,,,,,,,,,,,,,,,,,,,,,,,,,,,,,,,,,,,,,,,,,,,,,,,,,,,,,,,,,,,,,,,,,,,,,,,,,,,,,,,,,,,,,,,,,,,,
,,5f78e7a0d14cd84e060fde57,2026-03-17_12h24.37.724,kallum_motion_pilot_GIST_update_2,2026.1.1,Win32,30.58103976,5f78e7a0d14cd84e060fde57,69b92ab4aef6dee357cd729a,69b92ae2167b544edee6d8ce,0.1228,0.1228,1,60,222,117,1,seveneight,,,,,,,,,,,,,,,,,,,,,,,,,,,,,,,,,,,,,,,,,,,,,,,,,,,,,,,,,,,,,,,,,,,,,,,,,,,,,,,,,,,,,,,,,,,,,,,,,,,,,,,,,,,,,,,,,,,,,,,,,,,,,,,,,,,,,,,,,
,,5f78e7a0d14cd84e060fde57,2026-03-17_12h24.37.724,kallum_motion_pilot_GIST_update_2,2026.1.1,Win32,30.58103976,5f78e7a0d14cd84e060fde57,69b92ab4aef6dee357cd729a,69b92ae2167b544edee6d8ce,0.1231,0.1231,1,61,223,134,1,eightsix,,,,,,,,,,,,,,,,,,,,,,,,,,,,,,,,,,,,,,,,,,,,,,,,,,,,,,,,,,,,,,,,,,,,,,,,,,,,,,,,,,,,,,,,,,,,,,,,,,,,,,,,,,,,,,,,,,,,,,,,,,,,,,,,,,,,,,,,,
,,5f78e7a0d14cd84e060fde57,2026-03-17_12h24.37.724,kallum_motion_pilot_GIST_update_2,2026.1.1,Win32,30.58103976,5f78e7a0d14cd84e060fde57,69b92ab4aef6dee357cd729a,69b92ae2167b544edee6d8ce,0.1235,0.1236,1,62,224,119,1,eightseven,,,,,,,,,,,,,,,,,,,,,,,,,,,,,,,,,,,,,,,,,,,,,,,,,,,,,,,,,,,,,,,,,,,,,,,,,,,,,,,,,,,,,,,,,,,,,,,,,,,,,,,,,,,,,,,,,,,,,,,,,,,,,,,,,,,,,,,,,
,,5f78e7a0d14cd84e060fde57,2026-03-17_12h24.37.724,kallum_motion_pilot_GIST_update_2,2026.1.1,Win32,30.58103976,5f78e7a0d14cd84e060fde57,69b92ab4aef6dee357cd729a,69b92ae2167b544edee6d8ce,0.1241,0.1241,1,63,225,157,1,seveneight,,,,,,,,,,,,,,,,,,,,,,,,,,,,,,,,,,,,,,,,,,,,,,,,,,,,,,,,,,,,,,,,,,,,,,,,,,,,,,,,,,,,,,,,,,,,,,,,,,,,,,,,,,,,,,,,,,,,,,,,,,,,,,,,,,,,,,,,,
,,5f78e7a0d14cd84e060fde57,2026-03-17_12h24.37.724,kallum_motion_pilot_GIST_update_2,2026.1.1,Win32,30.58103976,5f78e7a0d14cd84e060fde57,69b92ab4aef6dee357cd729a,69b92ae2167b544edee6d8ce,0.1245,0.1245,1,64,226,158,1,eightsix,,,,,,,,,,,,,,,,,,,,,,,,,,,,,,,,,,,,,,,,,,,,,,,,,,,,,,,,,,,,,,,,,,,,,,,,,,,,,,,,,,,,,,,,,,,,,,,,,,,,,,,,,,,,,,,,,,,,,,,,,,,,,,,,,,,,,,,,,
,,5f78e7a0d14cd84e060fde57,2026-03-17_12h24.37.724,kallum_motion_pilot_GIST_update_2,2026.1.1,Win32,30.58103976,5f78e7a0d14cd84e060fde57,69b92ab4aef6dee357cd729a,69b92ae2167b544edee6d8ce,0.1249,0.1249,1,65,227,124,1,sevenfive,,,,,,,,,,,,,,,,,,,,,,,,,,,,,,,,,,,,,,,,,,,,,,,,,,,,,,,,,,,,,,,,,,,,,,,,,,,,,,,,,,,,,,,,,,,,,,,,,,,,,,,,,,,,,,,,,,,,,,,,,,,,,,,,,,,,,,,,,
,,5f78e7a0d14cd84e060fde57,2026-03-17_12h24.37.724,kallum_motion_pilot_GIST_update_2,2026.1.1,Win32,30.58103976,5f78e7a0d14cd84e060fde57,69b92ab4aef6dee357cd729a,69b92ae2167b544edee6d8ce,0.1252,0.1253,1,66,228,55,1,fourthree,,,,,,,,,,,,,,,,,,,,,,,,,,,,,,,,,,,,,,,,,,,,,,,,,,,,,,,,,,,,,,,,,,,,,,,,,,,,,,,,,,,,,,,,,,,,,,,,,,,,,,,,,,,,,,,,,,,,,,,,,,,,,,,,,,,,,,,,,
,,5f78e7a0d14cd84e060fde57,2026-03-17_12h24.37.724,kallum_motion_pilot_GIST_update_2,2026.1.1,Win32,30.58103976,5f78e7a0d14cd84e060fde57,69b92ab4aef6dee357cd729a,69b92ae2167b544edee6d8ce,0.1256,0.1256,1,67,229,17,1,onethree,,,,,,,,,,,,,,,,,,,,,,,,,,,,,,,,,,,,,,,,,,,,,,,,,,,,,,,,,,,,,,,,,,,,,,,,,,,,,,,,,,,,,,,,,,,,,,,,,,,,,,,,,,,,,,,,,,,,,,,,,,,,,,,,,,,,,,,,,
,,5f78e7a0d14cd84e060fde57,2026-03-17_12h24.37.724,kallum_motion_pilot_GIST_update_2,2026.1.1,Win32,30.58103976,5f78e7a0d14cd84e060fde57,69b92ab4aef6dee357cd729a,69b92ae2167b544edee6d8ce,0.1259,0.1259,1,68,230,137,1,fiveseven,,,,,,,,,,,,,,,,,,,,,,,,,,,,,,,,,,,,,,,,,,,,,,,,,,,,,,,,,,,,,,,,,,,,,,,,,,,,,,,,,,,,,,,,,,,,,,,,,,,,,,,,,,,,,,,,,,,,,,,,,,,,,,,,,,,,,,,,,
,,5f78e7a0d14cd84e060fde57,2026-03-17_12h24.37.724,kallum_motion_pilot_GIST_update_2,2026.1.1,Win32,30.58103976,5f78e7a0d14cd84e060fde57,69b92ab4aef6dee357cd729a,69b92ae2167b544edee6d8ce,0.1262,0.1263,1,69,231,154,1,sixfive,,,,,,,,,,,,,,,,,,,,,,,,,,,,,,,,,,,,,,,,,,,,,,,,,,,,,,,,,,,,,,,,,,,,,,,,,,,,,,,,,,,,,,,,,,,,,,,,,,,,,,,,,,,,,,,,,,,,,,,,,,,,,,,,,,,,,,,,,
,,5f78e7a0d14cd84e060fde57,2026-03-17_12h24.37.724,kallum_motion_pilot_GIST_update_2,2026.1.1,Win32,30.58103976,5f78e7a0d14cd84e060fde57,69b92ab4aef6dee357cd729a,69b92ae2167b544edee6d8ce,0.1266,0.1266,1,70,232,50,1,twoone,,,,,,,,,,,,,,,,,,,,,,,,,,,,,,,,,,,,,,,,,,,,,,,,,,,,,,,,,,,,,,,,,,,,,,,,,,,,,,,,,,,,,,,,,,,,,,,,,,,,,,,,,,,,,,,,,,,,,,,,,,,,,,,,,,,,,,,,,
,,5f78e7a0d14cd84e060fde57,2026-03-17_12h24.37.724,kallum_motion_pilot_GIST_update_2,2026.1.1,Win32,30.58103976,5f78e7a0d14cd84e060fde57,69b92ab4aef6dee357cd729a,69b92ae2167b544edee6d8ce,0.127,0.127,1,71,233,139,1,sixeight,,,,,,,,,,,,,,,,,,,,,,,,,,,,,,,,,,,,,,,,,,,,,,,,,,,,,,,,,,,,,,,,,,,,,,,,,,,,,,,,,,,,,,,,,,,,,,,,,,,,,,,,,,,,,,,,,,,,,,,,,,,,,,,,,,,,,,,,,
,,5f78e7a0d14cd84e060fde57,2026-03-17_12h24.37.724,kallum_motion_pilot_GIST_update_2,2026.1.1,Win32,30.58103976,5f78e7a0d14cd84e060fde57,69b92ab4aef6dee357cd729a,69b92ae2167b544edee6d8ce,0.1275,0.1276,1,72,234,60,1,threeone,,,,,,,,,,,,,,,,,,,,,,,,,,,,,,,,,,,,,,,,,,,,,,,,,,,,,,,,,,,,,,,,,,,,,,,,,,,,,,,,,,,,,,,,,,,,,,,,,,,,,,,,,,,,,,,,,,,,,,,,,,,,,,,,,,,,,,,,,
,,5f78e7a0d14cd84e060fde57,2026-03-17_12h24.37.724,kallum_motion_pilot_GIST_update_2,2026.1.1,Win32,30.58103976,5f78e7a0d14cd84e060fde57,69b92ab4aef6dee357cd729a,69b92ae2167b544edee6d8ce,0.1279,0.128,1,73,235,153,1,fiveseven,,,,,,,,,,,,,,,,,,,,,,,,,,,,,,,,,,,,,,,,,,,,,,,,,,,,,,,,,,,,,,,,,,,,,,,,,,,,,,,,,,,,,,,,,,,,,,,,,,,,,,,,,,,,,,,,,,,,,,,,,,,,,,,,,,,,,,,,,
,,5f78e7a0d14cd84e060fde57,2026-03-17_12h24.37.724,kallum_motion_pilot_GIST_update_2,2026.1.1,Win32,30.58103976,5f78e7a0d14cd84e060fde57,69b92ab4aef6dee357cd729a,69b92ae2167b544edee6d8ce,0.1283,0.1283,1,74,236,58,1,twoone,,,,,,,,,,,,,,,,,,,,,,,,,,,,,,,,,,,,,,,,,,,,,,,,,,,,,,,,,,,,,,,,,,,,,,,,,,,,,,,,,,,,,,,,,,,,,,,,,,,,,,,,,,,,,,,,,,,,,,,,,,,,,,,,,,,,,,,,,
,,5f78e7a0d14cd84e060fde57,2026-03-17_12h24.37.724,kallum_motion_pilot_GIST_update_2,2026.1.1,Win32,30.58103976,5f78e7a0d14cd84e060fde57,69b92ab4aef6dee357cd729a,69b92ae2167b544edee6d8ce,0.1286,0.1286,1,75,237,1,1,onethree,,,,,,,,,,,,,,,,,,,,,,,,,,,,,,,,,,,,,,,,,,,,,,,,,,,,,,,,,,,,,,,,,,,,,,,,,,,,,,,,,,,,,,,,,,,,,,,,,,,,,,,,,,,,,,,,,,,,,,,,,,,,,,,,,,,,,,,,,
,,5f78e7a0d14cd84e060fde57,2026-03-17_12h24.37.724,kallum_motion_pilot_GIST_update_2,2026.1.1,Win32,30.58103976,5f78e7a0d14cd84e060fde57,69b92ab4aef6dee357cd729a,69b92ae2167b544edee6d8ce,0.129,0.129,1,76,238,42,1,twoone,,,,,,,,,,,,,,,,,,,,,,,,,,,,,,,,,,,,,,,,,,,,,,,,,,,,,,,,,,,,,,,,,,,,,,,,,,,,,,,,,,,,,,,,,,,,,,,,,,,,,,,,,,,,,,,,,,,,,,,,,,,,,,,,,,,,,,,,,
,,5f78e7a0d14cd84e060fde57,2026-03-17_12h24.37.724,kallum_motion_pilot_GIST_update_2,2026.1.1,Win32,30.58103976,5f78e7a0d14cd84e060fde57,69b92ab4aef6dee357cd729a,69b92ae2167b544edee6d8ce,0.1293,0.1293,1,77,239,48,1,onetwo,,,,,,,,,,,,,,,,,,,,,,,,,,,,,,,,,,,,,,,,,,,,,,,,,,,,,,,,,,,,,,,,,,,,,,,,,,,,,,,,,,,,,,,,,,,,,,,,,,,,,,,,,,,,,,,,,,,,,,,,,,,,,,,,,,,,,,,,,
,,5f78e7a0d14cd84e060fde57,2026-03-17_12h24.37.724,kallum_motion_pilot_GIST_update_2,2026.1.1,Win32,30.58103976,5f78e7a0d14cd84e060fde57,69b92ab4aef6dee357cd729a,69b92ae2167b544edee6d8ce,0.1297,0.1297,1,78,240,47,1,fourthree,,,,,,,,,,,,,,,,,,,,,,,,,,,,,,,,,,,,,,,,,,,,,,,,,,,,,,,,,,,,,,,,,,,,,,,,,,,,,,,,,,,,,,,,,,,,,,,,,,,,,,,,,,,,,,,,,,,,,,,,,,,,,,,,,,,,,,,,,
,,5f78e7a0d14cd84e060fde57,2026-03-17_12h24.37.724,kallum_motion_pilot_GIST_update_2,2026.1.1,Win32,30.58103976,5f78e7a0d14cd84e060fde57,69b92ab4aef6dee357cd729a,69b92ae2167b544edee6d8ce,0.13,0.13,1,79,241,107,1,sixeight,,,,,,,,,,,,,,,,,,,,,,,,,,,,,,,,,,,,,,,,,,,,,,,,,,,,,,,,,,,,,,,,,,,,,,,,,,,,,,,,,,,,,,,,,,,,,,,,,,,,,,,,,,,,,,,,,,,,,,,,,,,,,,,,,,,,,,,,,
,,5f78e7a0d14cd84e060fde57,2026-03-17_12h24.37.724,kallum_motion_pilot_GIST_update_2,2026.1.1,Win32,30.58103976,5f78e7a0d14cd84e060fde57,69b92ab4aef6dee357cd729a,69b92ae2167b544edee6d8ce,0.1303,0.1303,1,80,242,11,1,twofour,,,,,,,,,,,,,,,,,,,,,,,,,,,,,,,,,,,,,,,,,,,,,,,,,,,,,,,,,,,,,,,,,,,,,,,,,,,,,,,,,,,,,,,,,,,,,,,,,,,,,,,,,,,,,,,,,,,,,,,,,,,,,,,,,,,,,,,,,
,,5f78e7a0d14cd84e060fde57,2026-03-17_12h24.37.724,kallum_motion_pilot_GIST_update_2,2026.1.1,Win32,30.58103976,5f78e7a0d14cd84e060fde57,69b92ab4aef6dee357cd729a,69b92ae2167b544edee6d8ce,0.1307,0.1308,1,81,243,24,1,onetwo,,,,,,,,,,,,,,,,,,,,,,,,,,,,,,,,,,,,,,,,,,,,,,,,,,,,,,,,,,,,,,,,,,,,,,,,,,,,,,,,,,,,,,,,,,,,,,,,,,,,,,,,,,,,,,,,,,,,,,,,,,,,,,,,,,,,,,,,,
,,5f78e7a0d14cd84e060fde57,2026-03-17_12h24.37.724,kallum_motion_pilot_GIST_update_2,2026.1.1,Win32,30.58103976,5f78e7a0d14cd84e060fde57,69b92ab4aef6dee357cd729a,69b92ae2167b544edee6d8ce,0.1311,0.1312,1,82,244,67,1,twofour,,,,,,,,,,,,,,,,,,,,,,,,,,,,,,,,,,,,,,,,,,,,,,,,,,,,,,,,,,,,,,,,,,,,,,,,,,,,,,,,,,,,,,,,,,,,,,,,,,,,,,,,,,,,,,,,,,,,,,,,,,,,,,,,,,,,,,,,,
,,5f78e7a0d14cd84e060fde57,2026-03-17_12h24.37.724,kallum_motion_pilot_GIST_update_2,2026.1.1,Win32,30.58103976,5f78e7a0d14cd84e060fde57,69b92ab4aef6dee357cd729a,69b92ae2167b544edee6d8ce,0.1315,0.1315,1,83,245,45,1,threefour,,,,,,,,,,,,,,,,,,,,,,,,,,,,,,,,,,,,,,,,,,,,,,,,,,,,,,,,,,,,,,,,,,,,,,,,,,,,,,,,,,,,,,,,,,,,,,,,,,,,,,,,,,,,,,,,,,,,,,,,,,,,,,,,,,,,,,,,,
,,5f78e7a0d14cd84e060fde57,2026-03-17_12h24.37.724,kallum_motion_pilot_GIST_update_2,2026.1.1,Win32,30.58103976,5f78e7a0d14cd84e060fde57,69b92ab4aef6dee357cd729a,69b92ae2167b544edee6d8ce,0.1318,0.1318,1,84,246,68,1,threeone,,,,,,,,,,,,,,,,,,,,,,,,,,,,,,,,,,,,,,,,,,,,,,,,,,,,,,,,,,,,,,,,,,,,,,,,,,,,,,,,,,,,,,,,,,,,,,,,,,,,,,,,,,,,,,,,,,,,,,,,,,,,,,,,,,,,,,,,,
,,5f78e7a0d14cd84e060fde57,2026-03-17_12h24.37.724,kallum_motion_pilot_GIST_update_2,2026.1.1,Win32,30.58103976,5f78e7a0d14cd84e060fde57,69b92ab4aef6dee357cd729a,69b92ae2167b544edee6d8ce,0.1321,0.1322,1,85,247,97,1,fiveseven,,,,,,,,,,,,,,,,,,,,,,,,,,,,,,,,,,,,,,,,,,,,,,,,,,,,,,,,,,,,,,,,,,,,,,,,,,,,,,,,,,,,,,,,,,,,,,,,,,,,,,,,,,,,,,,,,,,,,,,,,,,,,,,,,,,,,,,,,
,,5f78e7a0d14cd84e060fde57,2026-03-17_12h24.37.724,kallum_motion_pilot_GIST_update_2,2026.1.1,Win32,30.58103976,5f78e7a0d14cd84e060fde57,69b92ab4aef6dee357cd729a,69b92ae2167b544edee6d8ce,0.1324,0.1324,1,86,248,25,1,onethree,,,,,,,,,,,,,,,,,,,,,,,,,,,,,,,,,,,,,,,,,,,,,,,,,,,,,,,,,,,,,,,,,,,,,,,,,,,,,,,,,,,,,,,,,,,,,,,,,,,,,,,,,,,,,,,,,,,,,,,,,,,,,,,,,,,,,,,,,
,,5f78e7a0d14cd84e060fde57,2026-03-17_12h24.37.724,kallum_motion_pilot_GIST_update_2,2026.1.1,Win32,30.58103976,5f78e7a0d14cd84e060fde57,69b92ab4aef6dee357cd729a,69b92ae2167b544edee6d8ce,0.1328,0.1328,1,87,249,78,1,fourtwo,,,,,,,,,,,,,,,,,,,,,,,,,,,,,,,,,,,,,,,,,,,,,,,,,,,,,,,,,,,,,,,,,,,,,,,,,,,,,,,,,,,,,,,,,,,,,,,,,,,,,,,,,,,,,,,,,,,,,,,,,,,,,,,,,,,,,,,,,
,,5f78e7a0d14cd84e060fde57,2026-03-17_12h24.37.724,kallum_motion_pilot_GIST_update_2,2026.1.1,Win32,30.58103976,5f78e7a0d14cd84e060fde57,69b92ab4aef6dee357cd729a,69b92ae2167b544edee6d8ce,0.1332,0.1332,1,88,250,142,1,eightsix,,,,,,,,,,,,,,,,,,,,,,,,,,,,,,,,,,,,,,,,,,,,,,,,,,,,,,,,,,,,,,,,,,,,,,,,,,,,,,,,,,,,,,,,,,,,,,,,,,,,,,,,,,,,,,,,,,,,,,,,,,,,,,,,,,,,,,,,,
,,5f78e7a0d14cd84e060fde57,2026-03-17_12h24.37.724,kallum_motion_pilot_GIST_update_2,2026.1.1,Win32,30.58103976,5f78e7a0d14cd84e060fde57,69b92ab4aef6dee357cd729a,69b92ae2167b544edee6d8ce,0.1334,0.1335,1,89,251,149,1,seveneight,,,,,,,,,,,,,,,,,,,,,,,,,,,,,,,,,,,,,,,,,,,,,,,,,,,,,,,,,,,,,,,,,,,,,,,,,,,,,,,,,,,,,,,,,,,,,,,,,,,,,,,,,,,,,,,,,,,,,,,,,,,,,,,,,,,,,,,,,
,,5f78e7a0d14cd84e060fde57,2026-03-17_12h24.37.724,kallum_motion_pilot_GIST_update_2,2026.1.1,Win32,30.58103976,5f78e7a0d14cd84e060fde57,69b92ab4aef6dee357cd729a,69b92ae2167b544edee6d8ce,0.1338,0.1338,1,90,252,59,1,twofour,,,,,,,,,,,,,,,,,,,,,,,,,,,,,,,,,,,,,,,,,,,,,,,,,,,,,,,,,,,,,,,,,,,,,,,,,,,,,,,,,,,,,,,,,,,,,,,,,,,,,,,,,,,,,,,,,,,,,,,,,,,,,,,,,,,,,,,,,
,,5f78e7a0d14cd84e060fde57,2026-03-17_12h24.37.724,kallum_motion_pilot_GIST_update_2,2026.1.1,Win32,30.58103976,5f78e7a0d14cd84e060fde57,69b92ab4aef6dee357cd729a,69b92ae2167b544edee6d8ce,0.1341,0.1341,1,91,253,21,1,threefour,,,,,,,,,,,,,,,,,,,,,,,,,,,,,,,,,,,,,,,,,,,,,,,,,,,,,,,,,,,,,,,,,,,,,,,,,,,,,,,,,,,,,,,,,,,,,,,,,,,,,,,,,,,,,,,,,,,,,,,,,,,,,,,,,,,,,,,,,
,,5f78e7a0d14cd84e060fde57,2026-03-17_12h24.37.724,kallum_motion_pilot_GIST_update_2,2026.1.1,Win32,30.58103976,5f78e7a0d14cd84e060fde57,69b92ab4aef6dee357cd729a,69b92ae2167b544edee6d8ce,0.1345,0.1345,1,92,254,140,1,sevenfive,,,,,,,,,,,,,,,,,,,,,,,,,,,,,,,,,,,,,,,,,,,,,,,,,,,,,,,,,,,,,,,,,,,,,,,,,,,,,,,,,,,,,,,,,,,,,,,,,,,,,,,,,,,,,,,,,,,,,,,,,,,,,,,,,,,,,,,,,
,,5f78e7a0d14cd84e060fde57,2026-03-17_12h24.37.724,kallum_motion_pilot_GIST_update_2,2026.1.1,Win32,30.58103976,5f78e7a0d14cd84e060fde57,69b92ab4aef6dee357cd729a,69b92ae2167b544edee6d8ce,0.1348,0.1349,1,93,255,160,1,fivesix,,,,,,,,,,,,,,,,,,,,,,,,,,,,,,,,,,,,,,,,,,,,,,,,,,,,,,,,,,,,,,,,,,,,,,,,,,,,,,,,,,,,,,,,,,,,,,,,,,,,,,,,,,,,,,,,,,,,,,,,,,,,,,,,,,,,,,,,,
,,5f78e7a0d14cd84e060fde57,2026-03-17_12h24.37.724,kallum_motion_pilot_GIST_update_2,2026.1.1,Win32,30.58103976,5f78e7a0d14cd84e060fde57,69b92ab4aef6dee357cd729a,69b92ae2167b544edee6d8ce,0.1353,0.1353,1,94,256,33,1,onethree,,,,,,,,,,,,,,,,,,,,,,,,,,,,,,,,,,,,,,,,,,,,,,,,,,,,,,,,,,,,,,,,,,,,,,,,,,,,,,,,,,,,,,,,,,,,,,,,,,,,,,,,,,,,,,,,,,,,,,,,,,,,,,,,,,,,,,,,,
,,5f78e7a0d14cd84e060fde57,2026-03-17_12h24.37.724,kallum_motion_pilot_GIST_update_2,2026.1.1,Win32,30.58103976,5f78e7a0d14cd84e060fde57,69b92ab4aef6dee357cd729a,69b92ae2167b544edee6d8ce,0.1356,0.1356,1,95,257,8,1,onetwo,,,,,,,,,,,,,,,,,,,,,,,,,,,,,,,,,,,,,,,,,,,,,,,,,,,,,,,,,,,,,,,,,,,,,,,,,,,,,,,,,,,,,,,,,,,,,,,,,,,,,,,,,,,,,,,,,,,,,,,,,,,,,,,,,,,,,,,,,
,,5f78e7a0d14cd84e060fde57,2026-03-17_12h24.37.724,kallum_motion_pilot_GIST_update_2,2026.1.1,Win32,30.58103976,5f78e7a0d14cd84e060fde57,69b92ab4aef6dee357cd729a,69b92ae2167b544edee6d8ce,0.136,0.136,1,96,258,20,1,threeone,,,,,,,,,,,,,,,,,,,,,,,,,,,,,,,,,,,,,,,,,,,,,,,,,,,,,,,,,,,,,,,,,,,,,,,,,,,,,,,,,,,,,,,,,,,,,,,,,,,,,,,,,,,,,,,,,,,,,,,,,,,,,,,,,,,,,,,,,
,,5f78e7a0d14cd84e060fde57,2026-03-17_12h24.37.724,kallum_motion_pilot_GIST_update_2,2026.1.1,Win32,30.58103976,5f78e7a0d14cd84e060fde57,69b92ab4aef6dee357cd729a,69b92ae2167b544edee6d8ce,0.1363,0.1363,1,97,259,15,1,fourthree,,,,,,,,,,,,,,,,,,,,,,,,,,,,,,,,,,,,,,,,,,,,,,,,,,,,,,,,,,,,,,,,,,,,,,,,,,,,,,,,,,,,,,,,,,,,,,,,,,,,,,,,,,,,,,,,,,,,,,,,,,,,,,,,,,,,,,,,,
,,5f78e7a0d14cd84e060fde57,2026-03-17_12h24.37.724,kallum_motion_pilot_GIST_update_2,2026.1.1,Win32,30.58103976,5f78e7a0d14cd84e060fde57,69b92ab4aef6dee357cd729a,69b92ae2167b544edee6d8ce,0.1366,0.1366,1,98,260,127,1,eightseven,,,,,,,,,,,,,,,,,,,,,,,,,,,,,,,,,,,,,,,,,,,,,,,,,,,,,,,,,,,,,,,,,,,,,,,,,,,,,,,,,,,,,,,,,,,,,,,,,,,,,,,,,,,,,,,,,,,,,,,,,,,,,,,,,,,,,,,,,
,,5f78e7a0d14cd84e060fde57,2026-03-17_12h24.37.724,kallum_motion_pilot_GIST_update_2,2026.1.1,Win32,30.58103976,5f78e7a0d14cd84e060fde57,69b92ab4aef6dee357cd729a,69b92ae2167b544edee6d8ce,0.1369,0.1369,1,99,261,13,1,threefour,,,,,,,,,,,,,,,,,,,,,,,,,,,,,,,,,,,,,,,,,,,,,,,,,,,,,,,,,,,,,,,,,,,,,,,,,,,,,,,,,,,,,,,,,,,,,,,,,,,,,,,,,,,,,,,,,,,,,,,,,,,,,,,,,,,,,,,,,
,,5f78e7a0d14cd84e060fde57,2026-03-17_12h24.37.724,kallum_motion_pilot_GIST_update_2,2026.1.1,Win32,30.58103976,5f78e7a0d14cd84e060fde57,69b92ab4aef6dee357cd729a,69b92ae2167b544edee6d8ce,0.1389,0.1389,1,100,262,18,1,twoone,,,,,,,,,,,,,,,,,,,,,,,,,,,,,,,,,,,,,,,,,,,,,,,,,,,,,,,,,,,,,,,,,,,,,,,,,,,,,,,,,,,,,,,,,,,,,,,,,,,,,,,,,,,,,,,,,,,,,,,,,,,,,,,,,,,,,,,,,
,,5f78e7a0d14cd84e060fde57,2026-03-17_12h24.37.724,kallum_motion_pilot_GIST_update_2,2026.1.1,Win32,30.58103976,5f78e7a0d14cd84e060fde57,69b92ab4aef6dee357cd729a,69b92ae2167b544edee6d8ce,0.1392,0.1392,1,101,263,23,1,fourthree,,,,,,,,,,,,,,,,,,,,,,,,,,,,,,,,,,,,,,,,,,,,,,,,,,,,,,,,,,,,,,,,,,,,,,,,,,,,,,,,,,,,,,,,,,,,,,,,,,,,,,,,,,,,,,,,,,,,,,,,,,,,,,,,,,,,,,,,,
,,5f78e7a0d14cd84e060fde57,2026-03-17_12h24.37.724,kallum_motion_pilot_GIST_update_2,2026.1.1,Win32,30.58103976,5f78e7a0d14cd84e060fde57,69b92ab4aef6dee357cd729a,69b92ae2167b544edee6d8ce,0.1396,0.1396,1,102,264,143,1,eightseven,,,,,,,,,,,,,,,,,,,,,,,,,,,,,,,,,,,,,,,,,,,,,,,,,,,,,,,,,,,,,,,,,,,,,,,,,,,,,,,,,,,,,,,,,,,,,,,,,,,,,,,,,,,,,,,,,,,,,,,,,,,,,,,,,,,,,,,,,
,,5f78e7a0d14cd84e060fde57,2026-03-17_12h24.37.724,kallum_motion_pilot_GIST_update_2,2026.1.1,Win32,30.58103976,5f78e7a0d14cd84e060fde57,69b92ab4aef6dee357cd729a,69b92ae2167b544edee6d8ce,0.14,0.14,1,103,265,72,1,onetwo,,,,,,,,,,,,,,,,,,,,,,,,,,,,,,,,,,,,,,,,,,,,,,,,,,,,,,,,,,,,,,,,,,,,,,,,,,,,,,,,,,,,,,,,,,,,,,,,,,,,,,,,,,,,,,,,,,,,,,,,,,,,,,,,,,,,,,,,,
,,5f78e7a0d14cd84e060fde57,2026-03-17_12h24.37.724,kallum_motion_pilot_GIST_update_2,2026.1.1,Win32,30.58103976,5f78e7a0d14cd84e060fde57,69b92ab4aef6dee357cd729a,69b92ae2167b544edee6d8ce,0.1403,0.1403,1,104,266,75,1,twofour,,,,,,,,,,,,,,,,,,,,,,,,,,,,,,,,,,,,,,,,,,,,,,,,,,,,,,,,,,,,,,,,,,,,,,,,,,,,,,,,,,,,,,,,,,,,,,,,,,,,,,,,,,,,,,,,,,,,,,,,,,,,,,,,,,,,,,,,,
