startup.started,startup.stopped,Prolific ID*,date,expName,psychopyVersion,OS,frameRate,participant,study_id,session,stimpositions.started,stimpositions.stopped,hardcoded_stimulus_positions.thisRepN,hardcoded_stimulus_positions.thisTrialN,hardcoded_stimulus_positions.thisN,hardcoded_stimulus_positions.thisIndex,hardcoded_stimulus_positions.ran,StimulusPos,stimorientation.started,stimorientation.stopped,prac_stimorientation_import_loop.thisRepN,prac_stimorientation_import_loop.thisTrialN,prac_stimorientation_import_loop.thisN,prac_stimorientation_import_loop.thisIndex,prac_stimorientation_import_loop.ran,Stimorientation,welcome_instr.started,welcome_instr.stopped,key_resp.keys,key_resp.rt,key_resp.duration,response_steppedout_1.started,response_steppedout_1.stopped,key_resp_20.keys,key_resp_20.rt,key_resp_20.duration,response_steppedout_2.started,response_steppedout_2.stopped,key_resp_19.keys,key_resp_19.rt,key_resp_19.duration,stim_response_instr.started,stim_response_instr.stopped,key_resp_15.keys,key_resp_15.rt,key_resp_15.duration,direction_instr_2.started,direction_instr_2.stopped,key_resp_9.keys,key_resp_9.rt,key_resp_9.duration,instr_prac.started,instr_prac.stopped,key_resp_10.keys,key_resp_10.rt,key_resp_10.duration,Stim1_display_prac.started,Stim1_display_prac.stopped,Ecc,Circle1_ori,Circle2_ori,response_prac.started,similarity,response_time,response_prac.stopped,mouse_5.x,mouse_5.y,mouse_5.leftButton,mouse_5.midButton,mouse_5.rightButton,mouse_5.clicked_name,responseprac_feedback.started,responseprac_feedback.stopped,summary2_prac.started,summary2_prac.stopped,mouse_6.x,mouse_6.y,mouse_6.leftButton,mouse_6.midButton,mouse_6.rightButton,mouse_6.clicked_name,duringprac.thisRepN,duringprac.thisTrialN,duringprac.thisN,duringprac.thisIndex,duringprac.ran,begin.started,begin.stopped,key_resp_22.keys,key_resp_22.rt,key_resp_22.duration,Stim1_display.started,Stim1_display.stopped,circle1_ori,circle2_ori,circle1_SF,circle2_SF,response.started,response.stopped,mouse.x,mouse.y,mouse.leftButton,mouse.midButton,mouse.rightButton,mouse.clicked_name,trialnumber,double_pass.thisRepN,double_pass.thisTrialN,double_pass.thisN,double_pass.thisIndex,double_pass.ran,double_pass.order,main_trial.thisRepN,main_trial.thisTrialN,main_trial.thisN,main_trial.thisIndex,main_trial.ran,main_trial.order,Trial_Counter,Catch,Frequencies,response_2.started,response_2.stopped,mouse_2.x,mouse_2.y,mouse_2.leftButton,mouse_2.midButton,mouse_2.rightButton,mouse_2.clicked_name,special_trial.started,special_trial.stopped,catch_1.started,catch_1.stopped,mouse_3.x,mouse_3.y,mouse_3.leftButton,mouse_3.midButton,mouse_3.rightButton,catchresponse,catchnumber,response_time_catch,response_sum.started,response_sum.stopped,mouse_11.x,mouse_11.y,mouse_11.leftButton,mouse_11.midButton,mouse_11.rightButton,flip_presentation_sequence_for_double_pass.started,flip_presentation_sequence_for_double_pass.stopped,goodbye.started,goodbye.stopped,key_resp_3.keys,key_resp_3.rt,key_resp_3.duration
0.0003,0.0003,5f8639cd12e4d71876c9348e,2026-03-17_10h22.26.009,kallum_motion_pilot_GIST_update_2,2026.1.1,Win32,60.97560976,5f8639cd12e4d71876c9348e,69b92ab4aef6dee357cd729a,69b92b5744ee7a3fa29ded7e,,,,,,,,,,,,,,,,,,,,,,,,,,,,,,,,,,,,,,,,,,,,,,,,,,,,,,,,,,,,,,,,,,,,,,,,,,,,,,,,,,,,,,,,,,,,,,,,,,,,,,,,,,,,,,,,,,,,,,,,,,,,,,,,,,,,,,,,,,,,,,,,,
,,5f8639cd12e4d71876c9348e,2026-03-17_10h22.26.009,kallum_motion_pilot_GIST_update_2,2026.1.1,Win32,60.97560976,5f8639cd12e4d71876c9348e,69b92ab4aef6dee357cd729a,69b92b5744ee7a3fa29ded7e,0.0164,0.0164,0,0,0,14,1,fourtwo,,,,,,,,,,,,,,,,,,,,,,,,,,,,,,,,,,,,,,,,,,,,,,,,,,,,,,,,,,,,,,,,,,,,,,,,,,,,,,,,,,,,,,,,,,,,,,,,,,,,,,,,,,,,,,,,,,,,,,,,,,,,,,,,,,,,,,,,,
,,5f8639cd12e4d71876c9348e,2026-03-17_10h22.26.009,kallum_motion_pilot_GIST_update_2,2026.1.1,Win32,60.97560976,5f8639cd12e4d71876c9348e,69b92ab4aef6dee357cd729a,69b92b5744ee7a3fa29ded7e,0.0166,0.0166,0,1,1,136,1,fivesix,,,,,,,,,,,,,,,,,,,,,,,,,,,,,,,,,,,,,,,,,,,,,,,,,,,,,,,,,,,,,,,,,,,,,,,,,,,,,,,,,,,,,,,,,,,,,,,,,,,,,,,,,,,,,,,,,,,,,,,,,,,,,,,,,,,,,,,,,
,,5f8639cd12e4d71876c9348e,2026-03-17_10h22.26.009,kallum_motion_pilot_GIST_update_2,2026.1.1,Win32,60.97560976,5f8639cd12e4d71876c9348e,69b92ab4aef6dee357cd729a,69b92b5744ee7a3fa29ded7e,0.0167,0.0167,0,2,2,51,1,twofour,,,,,,,,,,,,,,,,,,,,,,,,,,,,,,,,,,,,,,,,,,,,,,,,,,,,,,,,,,,,,,,,,,,,,,,,,,,,,,,,,,,,,,,,,,,,,,,,,,,,,,,,,,,,,,,,,,,,,,,,,,,,,,,,,,,,,,,,,
,,5f8639cd12e4d71876c9348e,2026-03-17_10h22.26.009,kallum_motion_pilot_GIST_update_2,2026.1.1,Win32,60.97560976,5f8639cd12e4d71876c9348e,69b92ab4aef6dee357cd729a,69b92b5744ee7a3fa29ded7e,0.0168,0.0168,0,3,3,90,1,sixfive,,,,,,,,,,,,,,,,,,,,,,,,,,,,,,,,,,,,,,,,,,,,,,,,,,,,,,,,,,,,,,,,,,,,,,,,,,,,,,,,,,,,,,,,,,,,,,,,,,,,,,,,,,,,,,,,,,,,,,,,,,,,,,,,,,,,,,,,,
,,5f8639cd12e4d71876c9348e,2026-03-17_10h22.26.009,kallum_motion_pilot_GIST_update_2,2026.1.1,Win32,60.97560976,5f8639cd12e4d71876c9348e,69b92ab4aef6dee357cd729a,69b92b5744ee7a3fa29ded7e,0.0169,0.0169,0,4,4,48,1,onetwo,,,,,,,,,,,,,,,,,,,,,,,,,,,,,,,,,,,,,,,,,,,,,,,,,,,,,,,,,,,,,,,,,,,,,,,,,,,,,,,,,,,,,,,,,,,,,,,,,,,,,,,,,,,,,,,,,,,,,,,,,,,,,,,,,,,,,,,,,
,,5f8639cd12e4d71876c9348e,2026-03-17_10h22.26.009,kallum_motion_pilot_GIST_update_2,2026.1.1,Win32,60.97560976,5f8639cd12e4d71876c9348e,69b92ab4aef6dee357cd729a,69b92b5744ee7a3fa29ded7e,0.017,0.017,0,5,5,62,1,fourtwo,,,,,,,,,,,,,,,,,,,,,,,,,,,,,,,,,,,,,,,,,,,,,,,,,,,,,,,,,,,,,,,,,,,,,,,,,,,,,,,,,,,,,,,,,,,,,,,,,,,,,,,,,,,,,,,,,,,,,,,,,,,,,,,,,,,,,,,,,
,,5f8639cd12e4d71876c9348e,2026-03-17_10h22.26.009,kallum_motion_pilot_GIST_update_2,2026.1.1,Win32,60.97560976,5f8639cd12e4d71876c9348e,69b92ab4aef6dee357cd729a,69b92b5744ee7a3fa29ded7e,0.0171,0.0171,0,6,6,16,1,onetwo,,,,,,,,,,,,,,,,,,,,,,,,,,,,,,,,,,,,,,,,,,,,,,,,,,,,,,,,,,,,,,,,,,,,,,,,,,,,,,,,,,,,,,,,,,,,,,,,,,,,,,,,,,,,,,,,,,,,,,,,,,,,,,,,,,,,,,,,,
,,5f8639cd12e4d71876c9348e,2026-03-17_10h22.26.009,kallum_motion_pilot_GIST_update_2,2026.1.1,Win32,60.97560976,5f8639cd12e4d71876c9348e,69b92ab4aef6dee357cd729a,69b92b5744ee7a3fa29ded7e,0.0172,0.0172,0,7,7,141,1,seveneight,,,,,,,,,,,,,,,,,,,,,,,,,,,,,,,,,,,,,,,,,,,,,,,,,,,,,,,,,,,,,,,,,,,,,,,,,,,,,,,,,,,,,,,,,,,,,,,,,,,,,,,,,,,,,,,,,,,,,,,,,,,,,,,,,,,,,,,,,
,,5f8639cd12e4d71876c9348e,2026-03-17_10h22.26.009,kallum_motion_pilot_GIST_update_2,2026.1.1,Win32,60.97560976,5f8639cd12e4d71876c9348e,69b92ab4aef6dee357cd729a,69b92b5744ee7a3fa29ded7e,0.0173,0.0173,0,8,8,15,1,fourthree,,,,,,,,,,,,,,,,,,,,,,,,,,,,,,,,,,,,,,,,,,,,,,,,,,,,,,,,,,,,,,,,,,,,,,,,,,,,,,,,,,,,,,,,,,,,,,,,,,,,,,,,,,,,,,,,,,,,,,,,,,,,,,,,,,,,,,,,,
,,5f8639cd12e4d71876c9348e,2026-03-17_10h22.26.009,kallum_motion_pilot_GIST_update_2,2026.1.1,Win32,60.97560976,5f8639cd12e4d71876c9348e,69b92ab4aef6dee357cd729a,69b92b5744ee7a3fa29ded7e,0.0174,0.0174,0,9,9,86,1,eightsix,,,,,,,,,,,,,,,,,,,,,,,,,,,,,,,,,,,,,,,,,,,,,,,,,,,,,,,,,,,,,,,,,,,,,,,,,,,,,,,,,,,,,,,,,,,,,,,,,,,,,,,,,,,,,,,,,,,,,,,,,,,,,,,,,,,,,,,,,
,,5f8639cd12e4d71876c9348e,2026-03-17_10h22.26.009,kallum_motion_pilot_GIST_update_2,2026.1.1,Win32,60.97560976,5f8639cd12e4d71876c9348e,69b92ab4aef6dee357cd729a,69b92b5744ee7a3fa29ded7e,0.0174,0.0174,0,10,10,95,1,eightseven,,,,,,,,,,,,,,,,,,,,,,,,,,,,,,,,,,,,,,,,,,,,,,,,,,,,,,,,,,,,,,,,,,,,,,,,,,,,,,,,,,,,,,,,,,,,,,,,,,,,,,,,,,,,,,,,,,,,,,,,,,,,,,,,,,,,,,,,,
,,5f8639cd12e4d71876c9348e,2026-03-17_10h22.26.009,kallum_motion_pilot_GIST_update_2,2026.1.1,Win32,60.97560976,5f8639cd12e4d71876c9348e,69b92ab4aef6dee357cd729a,69b92b5744ee7a3fa29ded7e,0.0175,0.0175,0,11,11,0,1,onetwo,,,,,,,,,,,,,,,,,,,,,,,,,,,,,,,,,,,,,,,,,,,,,,,,,,,,,,,,,,,,,,,,,,,,,,,,,,,,,,,,,,,,,,,,,,,,,,,,,,,,,,,,,,,,,,,,,,,,,,,,,,,,,,,,,,,,,,,,,
,,5f8639cd12e4d71876c9348e,2026-03-17_10h22.26.009,kallum_motion_pilot_GIST_update_2,2026.1.1,Win32,60.97560976,5f8639cd12e4d71876c9348e,69b92ab4aef6dee357cd729a,69b92b5744ee7a3fa29ded7e,0.0176,0.0176,0,12,12,22,1,fourtwo,,,,,,,,,,,,,,,,,,,,,,,,,,,,,,,,,,,,,,,,,,,,,,,,,,,,,,,,,,,,,,,,,,,,,,,,,,,,,,,,,,,,,,,,,,,,,,,,,,,,,,,,,,,,,,,,,,,,,,,,,,,,,,,,,,,,,,,,,
,,5f8639cd12e4d71876c9348e,2026-03-17_10h22.26.009,kallum_motion_pilot_GIST_update_2,2026.1.1,Win32,60.97560976,5f8639cd12e4d71876c9348e,69b92ab4aef6dee357cd729a,69b92b5744ee7a3fa29ded7e,0.0177,0.0177,0,13,13,55,1,fourthree,,,,,,,,,,,,,,,,,,,,,,,,,,,,,,,,,,,,,,,,,,,,,,,,,,,,,,,,,,,,,,,,,,,,,,,,,,,,,,,,,,,,,,,,,,,,,,,,,,,,,,,,,,,,,,,,,,,,,,,,,,,,,,,,,,,,,,,,,
,,5f8639cd12e4d71876c9348e,2026-03-17_10h22.26.009,kallum_motion_pilot_GIST_update_2,2026.1.1,Win32,60.97560976,5f8639cd12e4d71876c9348e,69b92ab4aef6dee357cd729a,69b92b5744ee7a3fa29ded7e,0.0177,0.0177,0,14,14,105,1,fiveseven,,,,,,,,,,,,,,,,,,,,,,,,,,,,,,,,,,,,,,,,,,,,,,,,,,,,,,,,,,,,,,,,,,,,,,,,,,,,,,,,,,,,,,,,,,,,,,,,,,,,,,,,,,,,,,,,,,,,,,,,,,,,,,,,,,,,,,,,,
,,5f8639cd12e4d71876c9348e,2026-03-17_10h22.26.009,kallum_motion_pilot_GIST_update_2,2026.1.1,Win32,60.97560976,5f8639cd12e4d71876c9348e,69b92ab4aef6dee357cd729a,69b92b5744ee7a3fa29ded7e,0.0178,0.0178,0,15,15,63,1,fourthree,,,,,,,,,,,,,,,,,,,,,,,,,,,,,,,,,,,,,,,,,,,,,,,,,,,,,,,,,,,,,,,,,,,,,,,,,,,,,,,,,,,,,,,,,,,,,,,,,,,,,,,,,,,,,,,,,,,,,,,,,,,,,,,,,,,,,,,,,
,,5f8639cd12e4d71876c9348e,2026-03-17_10h22.26.009,kallum_motion_pilot_GIST_update_2,2026.1.1,Win32,60.97560976,5f8639cd12e4d71876c9348e,69b92ab4aef6dee357cd729a,69b92b5744ee7a3fa29ded7e,0.0178,0.0178,0,16,16,20,1,threeone,,,,,,,,,,,,,,,,,,,,,,,,,,,,,,,,,,,,,,,,,,,,,,,,,,,,,,,,,,,,,,,,,,,,,,,,,,,,,,,,,,,,,,,,,,,,,,,,,,,,,,,,,,,,,,,,,,,,,,,,,,,,,,,,,,,,,,,,,
,,5f8639cd12e4d71876c9348e,2026-03-17_10h22.26.009,kallum_motion_pilot_GIST_update_2,2026.1.1,Win32,60.97560976,5f8639cd12e4d71876c9348e,69b92ab4aef6dee357cd729a,69b92b5744ee7a3fa29ded7e,0.0179,0.0179,0,17,17,127,1,eightseven,,,,,,,,,,,,,,,,,,,,,,,,,,,,,,,,,,,,,,,,,,,,,,,,,,,,,,,,,,,,,,,,,,,,,,,,,,,,,,,,,,,,,,,,,,,,,,,,,,,,,,,,,,,,,,,,,,,,,,,,,,,,,,,,,,,,,,,,,
,,5f8639cd12e4d71876c9348e,2026-03-17_10h22.26.009,kallum_motion_pilot_GIST_update_2,2026.1.1,Win32,60.97560976,5f8639cd12e4d71876c9348e,69b92ab4aef6dee357cd729a,69b92b5744ee7a3fa29ded7e,0.0179,0.0179,0,18,18,99,1,sixeight,,,,,,,,,,,,,,,,,,,,,,,,,,,,,,,,,,,,,,,,,,,,,,,,,,,,,,,,,,,,,,,,,,,,,,,,,,,,,,,,,,,,,,,,,,,,,,,,,,,,,,,,,,,,,,,,,,,,,,,,,,,,,,,,,,,,,,,,,
,,5f8639cd12e4d71876c9348e,2026-03-17_10h22.26.009,kallum_motion_pilot_GIST_update_2,2026.1.1,Win32,60.97560976,5f8639cd12e4d71876c9348e,69b92ab4aef6dee357cd729a,69b92b5744ee7a3fa29ded7e,0.018,0.018,0,19,19,3,1,twofour,,,,,,,,,,,,,,,,,,,,,,,,,,,,,,,,,,,,,,,,,,,,,,,,,,,,,,,,,,,,,,,,,,,,,,,,,,,,,,,,,,,,,,,,,,,,,,,,,,,,,,,,,,,,,,,,,,,,,,,,,,,,,,,,,,,,,,,,,
,,5f8639cd12e4d71876c9348e,2026-03-17_10h22.26.009,kallum_motion_pilot_GIST_update_2,2026.1.1,Win32,60.97560976,5f8639cd12e4d71876c9348e,69b92ab4aef6dee357cd729a,69b92b5744ee7a3fa29ded7e,0.0181,0.0181,0,20,20,87,1,eightseven,,,,,,,,,,,,,,,,,,,,,,,,,,,,,,,,,,,,,,,,,,,,,,,,,,,,,,,,,,,,,,,,,,,,,,,,,,,,,,,,,,,,,,,,,,,,,,,,,,,,,,,,,,,,,,,,,,,,,,,,,,,,,,,,,,,,,,,,,
,,5f8639cd12e4d71876c9348e,2026-03-17_10h22.26.009,kallum_motion_pilot_GIST_update_2,2026.1.1,Win32,60.97560976,5f8639cd12e4d71876c9348e,69b92ab4aef6dee357cd729a,69b92b5744ee7a3fa29ded7e,0.0181,0.0181,0,21,21,32,1,onetwo,,,,,,,,,,,,,,,,,,,,,,,,,,,,,,,,,,,,,,,,,,,,,,,,,,,,,,,,,,,,,,,,,,,,,,,,,,,,,,,,,,,,,,,,,,,,,,,,,,,,,,,,,,,,,,,,,,,,,,,,,,,,,,,,,,,,,,,,,
,,5f8639cd12e4d71876c9348e,2026-03-17_10h22.26.009,kallum_motion_pilot_GIST_update_2,2026.1.1,Win32,60.97560976,5f8639cd12e4d71876c9348e,69b92ab4aef6dee357cd729a,69b92b5744ee7a3fa29ded7e,0.0182,0.0182,0,22,22,161,1,fiveseven,,,,,,,,,,,,,,,,,,,,,,,,,,,,,,,,,,,,,,,,,,,,,,,,,,,,,,,,,,,,,,,,,,,,,,,,,,,,,,,,,,,,,,,,,,,,,,,,,,,,,,,,,,,,,,,,,,,,,,,,,,,,,,,,,,,,,,,,,
,,5f8639cd12e4d71876c9348e,2026-03-17_10h22.26.009,kallum_motion_pilot_GIST_update_2,2026.1.1,Win32,60.97560976,5f8639cd12e4d71876c9348e,69b92ab4aef6dee357cd729a,69b92b5744ee7a3fa29ded7e,0.0183,0.0183,0,23,23,130,1,sixfive,,,,,,,,,,,,,,,,,,,,,,,,,,,,,,,,,,,,,,,,,,,,,,,,,,,,,,,,,,,,,,,,,,,,,,,,,,,,,,,,,,,,,,,,,,,,,,,,,,,,,,,,,,,,,,,,,,,,,,,,,,,,,,,,,,,,,,,,,
,,5f8639cd12e4d71876c9348e,2026-03-17_10h22.26.009,kallum_motion_pilot_GIST_update_2,2026.1.1,Win32,60.97560976,5f8639cd12e4d71876c9348e,69b92ab4aef6dee357cd729a,69b92b5744ee7a3fa29ded7e,0.0183,0.0183,0,24,24,71,1,fourthree,,,,,,,,,,,,,,,,,,,,,,,,,,,,,,,,,,,,,,,,,,,,,,,,,,,,,,,,,,,,,,,,,,,,,,,,,,,,,,,,,,,,,,,,,,,,,,,,,,,,,,,,,,,,,,,,,,,,,,,,,,,,,,,,,,,,,,,,,
,,5f8639cd12e4d71876c9348e,2026-03-17_10h22.26.009,kallum_motion_pilot_GIST_update_2,2026.1.1,Win32,60.97560976,5f8639cd12e4d71876c9348e,69b92ab4aef6dee357cd729a,69b92b5744ee7a3fa29ded7e,0.0185,0.0185,0,25,25,125,1,seveneight,,,,,,,,,,,,,,,,,,,,,,,,,,,,,,,,,,,,,,,,,,,,,,,,,,,,,,,,,,,,,,,,,,,,,,,,,,,,,,,,,,,,,,,,,,,,,,,,,,,,,,,,,,,,,,,,,,,,,,,,,,,,,,,,,,,,,,,,,
,,5f8639cd12e4d71876c9348e,2026-03-17_10h22.26.009,kallum_motion_pilot_GIST_update_2,2026.1.1,Win32,60.97560976,5f8639cd12e4d71876c9348e,69b92ab4aef6dee357cd729a,69b92b5744ee7a3fa29ded7e,0.0185,0.0185,0,26,26,84,1,sevenfive,,,,,,,,,,,,,,,,,,,,,,,,,,,,,,,,,,,,,,,,,,,,,,,,,,,,,,,,,,,,,,,,,,,,,,,,,,,,,,,,,,,,,,,,,,,,,,,,,,,,,,,,,,,,,,,,,,,,,,,,,,,,,,,,,,,,,,,,,
,,5f8639cd12e4d71876c9348e,2026-03-17_10h22.26.009,kallum_motion_pilot_GIST_update_2,2026.1.1,Win32,60.97560976,5f8639cd12e4d71876c9348e,69b92ab4aef6dee357cd729a,69b92b5744ee7a3fa29ded7e,0.0186,0.0186,0,27,27,151,1,eightseven,,,,,,,,,,,,,,,,,,,,,,,,,,,,,,,,,,,,,,,,,,,,,,,,,,,,,,,,,,,,,,,,,,,,,,,,,,,,,,,,,,,,,,,,,,,,,,,,,,,,,,,,,,,,,,,,,,,,,,,,,,,,,,,,,,,,,,,,,
,,5f8639cd12e4d71876c9348e,2026-03-17_10h22.26.009,kallum_motion_pilot_GIST_update_2,2026.1.1,Win32,60.97560976,5f8639cd12e4d71876c9348e,69b92ab4aef6dee357cd729a,69b92b5744ee7a3fa29ded7e,0.0187,0.0187,0,28,28,153,1,fiveseven,,,,,,,,,,,,,,,,,,,,,,,,,,,,,,,,,,,,,,,,,,,,,,,,,,,,,,,,,,,,,,,,,,,,,,,,,,,,,,,,,,,,,,,,,,,,,,,,,,,,,,,,,,,,,,,,,,,,,,,,,,,,,,,,,,,,,,,,,
,,5f8639cd12e4d71876c9348e,2026-03-17_10h22.26.009,kallum_motion_pilot_GIST_update_2,2026.1.1,Win32,60.97560976,5f8639cd12e4d71876c9348e,69b92ab4aef6dee357cd729a,69b92b5744ee7a3fa29ded7e,0.0187,0.0187,0,29,29,74,1,twoone,,,,,,,,,,,,,,,,,,,,,,,,,,,,,,,,,,,,,,,,,,,,,,,,,,,,,,,,,,,,,,,,,,,,,,,,,,,,,,,,,,,,,,,,,,,,,,,,,,,,,,,,,,,,,,,,,,,,,,,,,,,,,,,,,,,,,,,,,
,,5f8639cd12e4d71876c9348e,2026-03-17_10h22.26.009,kallum_motion_pilot_GIST_update_2,2026.1.1,Win32,60.97560976,5f8639cd12e4d71876c9348e,69b92ab4aef6dee357cd729a,69b92b5744ee7a3fa29ded7e,0.0188,0.0188,0,30,30,45,1,threefour,,,,,,,,,,,,,,,,,,,,,,,,,,,,,,,,,,,,,,,,,,,,,,,,,,,,,,,,,,,,,,,,,,,,,,,,,,,,,,,,,,,,,,,,,,,,,,,,,,,,,,,,,,,,,,,,,,,,,,,,,,,,,,,,,,,,,,,,,
,,5f8639cd12e4d71876c9348e,2026-03-17_10h22.26.009,kallum_motion_pilot_GIST_update_2,2026.1.1,Win32,60.97560976,5f8639cd12e4d71876c9348e,69b92ab4aef6dee357cd729a,69b92b5744ee7a3fa29ded7e,0.0189,0.0189,0,31,31,158,1,eightsix,,,,,,,,,,,,,,,,,,,,,,,,,,,,,,,,,,,,,,,,,,,,,,,,,,,,,,,,,,,,,,,,,,,,,,,,,,,,,,,,,,,,,,,,,,,,,,,,,,,,,,,,,,,,,,,,,,,,,,,,,,,,,,,,,,,,,,,,,
,,5f8639cd12e4d71876c9348e,2026-03-17_10h22.26.009,kallum_motion_pilot_GIST_update_2,2026.1.1,Win32,60.97560976,5f8639cd12e4d71876c9348e,69b92ab4aef6dee357cd729a,69b92b5744ee7a3fa29ded7e,0.0189,0.0189,0,32,32,119,1,eightseven,,,,,,,,,,,,,,,,,,,,,,,,,,,,,,,,,,,,,,,,,,,,,,,,,,,,,,,,,,,,,,,,,,,,,,,,,,,,,,,,,,,,,,,,,,,,,,,,,,,,,,,,,,,,,,,,,,,,,,,,,,,,,,,,,,,,,,,,,
,,5f8639cd12e4d71876c9348e,2026-03-17_10h22.26.009,kallum_motion_pilot_GIST_update_2,2026.1.1,Win32,60.97560976,5f8639cd12e4d71876c9348e,69b92ab4aef6dee357cd729a,69b92b5744ee7a3fa29ded7e,0.0191,0.0191,0,33,33,56,1,onetwo,,,,,,,,,,,,,,,,,,,,,,,,,,,,,,,,,,,,,,,,,,,,,,,,,,,,,,,,,,,,,,,,,,,,,,,,,,,,,,,,,,,,,,,,,,,,,,,,,,,,,,,,,,,,,,,,,,,,,,,,,,,,,,,,,,,,,,,,,
,,5f8639cd12e4d71876c9348e,2026-03-17_10h22.26.009,kallum_motion_pilot_GIST_update_2,2026.1.1,Win32,60.97560976,5f8639cd12e4d71876c9348e,69b92ab4aef6dee357cd729a,69b92b5744ee7a3fa29ded7e,0.0191,0.0191,0,34,34,25,1,onethree,,,,,,,,,,,,,,,,,,,,,,,,,,,,,,,,,,,,,,,,,,,,,,,,,,,,,,,,,,,,,,,,,,,,,,,,,,,,,,,,,,,,,,,,,,,,,,,,,,,,,,,,,,,,,,,,,,,,,,,,,,,,,,,,,,,,,,,,,
,,5f8639cd12e4d71876c9348e,2026-03-17_10h22.26.009,kallum_motion_pilot_GIST_update_2,2026.1.1,Win32,60.97560976,5f8639cd12e4d71876c9348e,69b92ab4aef6dee357cd729a,69b92b5744ee7a3fa29ded7e,0.0192,0.0192,0,35,35,19,1,twofour,,,,,,,,,,,,,,,,,,,,,,,,,,,,,,,,,,,,,,,,,,,,,,,,,,,,,,,,,,,,,,,,,,,,,,,,,,,,,,,,,,,,,,,,,,,,,,,,,,,,,,,,,,,,,,,,,,,,,,,,,,,,,,,,,,,,,,,,,
,,5f8639cd12e4d71876c9348e,2026-03-17_10h22.26.009,kallum_motion_pilot_GIST_update_2,2026.1.1,Win32,60.97560976,5f8639cd12e4d71876c9348e,69b92ab4aef6dee357cd729a,69b92b5744ee7a3fa29ded7e,0.0193,0.0193,0,36,36,110,1,eightsix,,,,,,,,,,,,,,,,,,,,,,,,,,,,,,,,,,,,,,,,,,,,,,,,,,,,,,,,,,,,,,,,,,,,,,,,,,,,,,,,,,,,,,,,,,,,,,,,,,,,,,,,,,,,,,,,,,,,,,,,,,,,,,,,,,,,,,,,,
,,5f8639cd12e4d71876c9348e,2026-03-17_10h22.26.009,kallum_motion_pilot_GIST_update_2,2026.1.1,Win32,60.97560976,5f8639cd12e4d71876c9348e,69b92ab4aef6dee357cd729a,69b92b5744ee7a3fa29ded7e,0.0194,0.0194,0,37,37,133,1,seveneight,,,,,,,,,,,,,,,,,,,,,,,,,,,,,,,,,,,,,,,,,,,,,,,,,,,,,,,,,,,,,,,,,,,,,,,,,,,,,,,,,,,,,,,,,,,,,,,,,,,,,,,,,,,,,,,,,,,,,,,,,,,,,,,,,,,,,,,,,
,,5f8639cd12e4d71876c9348e,2026-03-17_10h22.26.009,kallum_motion_pilot_GIST_update_2,2026.1.1,Win32,60.97560976,5f8639cd12e4d71876c9348e,69b92ab4aef6dee357cd729a,69b92b5744ee7a3fa29ded7e,0.0194,0.0194,0,38,38,43,1,twofour,,,,,,,,,,,,,,,,,,,,,,,,,,,,,,,,,,,,,,,,,,,,,,,,,,,,,,,,,,,,,,,,,,,,,,,,,,,,,,,,,,,,,,,,,,,,,,,,,,,,,,,,,,,,,,,,,,,,,,,,,,,,,,,,,,,,,,,,,
,,5f8639cd12e4d71876c9348e,2026-03-17_10h22.26.009,kallum_motion_pilot_GIST_update_2,2026.1.1,Win32,60.97560976,5f8639cd12e4d71876c9348e,69b92ab4aef6dee357cd729a,69b92b5744ee7a3fa29ded7e,0.0194,0.0195,0,39,39,30,1,fourtwo,,,,,,,,,,,,,,,,,,,,,,,,,,,,,,,,,,,,,,,,,,,,,,,,,,,,,,,,,,,,,,,,,,,,,,,,,,,,,,,,,,,,,,,,,,,,,,,,,,,,,,,,,,,,,,,,,,,,,,,,,,,,,,,,,,,,,,,,,
,,5f8639cd12e4d71876c9348e,2026-03-17_10h22.26.009,kallum_motion_pilot_GIST_update_2,2026.1.1,Win32,60.97560976,5f8639cd12e4d71876c9348e,69b92ab4aef6dee357cd729a,69b92b5744ee7a3fa29ded7e,0.0195,0.0195,0,40,40,33,1,onethree,,,,,,,,,,,,,,,,,,,,,,,,,,,,,,,,,,,,,,,,,,,,,,,,,,,,,,,,,,,,,,,,,,,,,,,,,,,,,,,,,,,,,,,,,,,,,,,,,,,,,,,,,,,,,,,,,,,,,,,,,,,,,,,,,,,,,,,,,
,,5f8639cd12e4d71876c9348e,2026-03-17_10h22.26.009,kallum_motion_pilot_GIST_update_2,2026.1.1,Win32,60.97560976,5f8639cd12e4d71876c9348e,69b92ab4aef6dee357cd729a,69b92b5744ee7a3fa29ded7e,0.0196,0.0196,0,41,41,103,1,eightseven,,,,,,,,,,,,,,,,,,,,,,,,,,,,,,,,,,,,,,,,,,,,,,,,,,,,,,,,,,,,,,,,,,,,,,,,,,,,,,,,,,,,,,,,,,,,,,,,,,,,,,,,,,,,,,,,,,,,,,,,,,,,,,,,,,,,,,,,,
,,5f8639cd12e4d71876c9348e,2026-03-17_10h22.26.009,kallum_motion_pilot_GIST_update_2,2026.1.1,Win32,60.97560976,5f8639cd12e4d71876c9348e,69b92ab4aef6dee357cd729a,69b92b5744ee7a3fa29ded7e,0.0197,0.0197,0,42,42,58,1,twoone,,,,,,,,,,,,,,,,,,,,,,,,,,,,,,,,,,,,,,,,,,,,,,,,,,,,,,,,,,,,,,,,,,,,,,,,,,,,,,,,,,,,,,,,,,,,,,,,,,,,,,,,,,,,,,,,,,,,,,,,,,,,,,,,,,,,,,,,,
,,5f8639cd12e4d71876c9348e,2026-03-17_10h22.26.009,kallum_motion_pilot_GIST_update_2,2026.1.1,Win32,60.97560976,5f8639cd12e4d71876c9348e,69b92ab4aef6dee357cd729a,69b92b5744ee7a3fa29ded7e,0.0198,0.0198,0,43,43,114,1,sixfive,,,,,,,,,,,,,,,,,,,,,,,,,,,,,,,,,,,,,,,,,,,,,,,,,,,,,,,,,,,,,,,,,,,,,,,,,,,,,,,,,,,,,,,,,,,,,,,,,,,,,,,,,,,,,,,,,,,,,,,,,,,,,,,,,,,,,,,,,
,,5f8639cd12e4d71876c9348e,2026-03-17_10h22.26.009,kallum_motion_pilot_GIST_update_2,2026.1.1,Win32,60.97560976,5f8639cd12e4d71876c9348e,69b92ab4aef6dee357cd729a,69b92b5744ee7a3fa29ded7e,0.0198,0.0198,0,44,44,98,1,sixfive,,,,,,,,,,,,,,,,,,,,,,,,,,,,,,,,,,,,,,,,,,,,,,,,,,,,,,,,,,,,,,,,,,,,,,,,,,,,,,,,,,,,,,,,,,,,,,,,,,,,,,,,,,,,,,,,,,,,,,,,,,,,,,,,,,,,,,,,,
,,5f8639cd12e4d71876c9348e,2026-03-17_10h22.26.009,kallum_motion_pilot_GIST_update_2,2026.1.1,Win32,60.97560976,5f8639cd12e4d71876c9348e,69b92ab4aef6dee357cd729a,69b92b5744ee7a3fa29ded7e,0.0199,0.0199,0,45,45,140,1,sevenfive,,,,,,,,,,,,,,,,,,,,,,,,,,,,,,,,,,,,,,,,,,,,,,,,,,,,,,,,,,,,,,,,,,,,,,,,,,,,,,,,,,,,,,,,,,,,,,,,,,,,,,,,,,,,,,,,,,,,,,,,,,,,,,,,,,,,,,,,,
,,5f8639cd12e4d71876c9348e,2026-03-17_10h22.26.009,kallum_motion_pilot_GIST_update_2,2026.1.1,Win32,60.97560976,5f8639cd12e4d71876c9348e,69b92ab4aef6dee357cd729a,69b92b5744ee7a3fa29ded7e,0.02,0.02,0,46,46,59,1,twofour,,,,,,,,,,,,,,,,,,,,,,,,,,,,,,,,,,,,,,,,,,,,,,,,,,,,,,,,,,,,,,,,,,,,,,,,,,,,,,,,,,,,,,,,,,,,,,,,,,,,,,,,,,,,,,,,,,,,,,,,,,,,,,,,,,,,,,,,,
,,5f8639cd12e4d71876c9348e,2026-03-17_10h22.26.009,kallum_motion_pilot_GIST_update_2,2026.1.1,Win32,60.97560976,5f8639cd12e4d71876c9348e,69b92ab4aef6dee357cd729a,69b92b5744ee7a3fa29ded7e,0.0201,0.0201,0,47,47,50,1,twoone,,,,,,,,,,,,,,,,,,,,,,,,,,,,,,,,,,,,,,,,,,,,,,,,,,,,,,,,,,,,,,,,,,,,,,,,,,,,,,,,,,,,,,,,,,,,,,,,,,,,,,,,,,,,,,,,,,,,,,,,,,,,,,,,,,,,,,,,,
,,5f8639cd12e4d71876c9348e,2026-03-17_10h22.26.009,kallum_motion_pilot_GIST_update_2,2026.1.1,Win32,60.97560976,5f8639cd12e4d71876c9348e,69b92ab4aef6dee357cd729a,69b92b5744ee7a3fa29ded7e,0.0202,0.0202,0,48,48,109,1,seveneight,,,,,,,,,,,,,,,,,,,,,,,,,,,,,,,,,,,,,,,,,,,,,,,,,,,,,,,,,,,,,,,,,,,,,,,,,,,,,,,,,,,,,,,,,,,,,,,,,,,,,,,,,,,,,,,,,,,,,,,,,,,,,,,,,,,,,,,,,
,,5f8639cd12e4d71876c9348e,2026-03-17_10h22.26.009,kallum_motion_pilot_GIST_update_2,2026.1.1,Win32,60.97560976,5f8639cd12e4d71876c9348e,69b92ab4aef6dee357cd729a,69b92b5744ee7a3fa29ded7e,0.0202,0.0202,0,49,49,7,1,fourthree,,,,,,,,,,,,,,,,,,,,,,,,,,,,,,,,,,,,,,,,,,,,,,,,,,,,,,,,,,,,,,,,,,,,,,,,,,,,,,,,,,,,,,,,,,,,,,,,,,,,,,,,,,,,,,,,,,,,,,,,,,,,,,,,,,,,,,,,,
,,5f8639cd12e4d71876c9348e,2026-03-17_10h22.26.009,kallum_motion_pilot_GIST_update_2,2026.1.1,Win32,60.97560976,5f8639cd12e4d71876c9348e,69b92ab4aef6dee357cd729a,69b92b5744ee7a3fa29ded7e,0.0203,0.0203,0,50,50,118,1,eightsix,,,,,,,,,,,,,,,,,,,,,,,,,,,,,,,,,,,,,,,,,,,,,,,,,,,,,,,,,,,,,,,,,,,,,,,,,,,,,,,,,,,,,,,,,,,,,,,,,,,,,,,,,,,,,,,,,,,,,,,,,,,,,,,,,,,,,,,,,
,,5f8639cd12e4d71876c9348e,2026-03-17_10h22.26.009,kallum_motion_pilot_GIST_update_2,2026.1.1,Win32,60.97560976,5f8639cd12e4d71876c9348e,69b92ab4aef6dee357cd729a,69b92b5744ee7a3fa29ded7e,0.0204,0.0204,0,51,51,155,1,sixeight,,,,,,,,,,,,,,,,,,,,,,,,,,,,,,,,,,,,,,,,,,,,,,,,,,,,,,,,,,,,,,,,,,,,,,,,,,,,,,,,,,,,,,,,,,,,,,,,,,,,,,,,,,,,,,,,,,,,,,,,,,,,,,,,,,,,,,,,,
,,5f8639cd12e4d71876c9348e,2026-03-17_10h22.26.009,kallum_motion_pilot_GIST_update_2,2026.1.1,Win32,60.97560976,5f8639cd12e4d71876c9348e,69b92ab4aef6dee357cd729a,69b92b5744ee7a3fa29ded7e,0.0204,0.0205,0,52,52,4,1,threeone,,,,,,,,,,,,,,,,,,,,,,,,,,,,,,,,,,,,,,,,,,,,,,,,,,,,,,,,,,,,,,,,,,,,,,,,,,,,,,,,,,,,,,,,,,,,,,,,,,,,,,,,,,,,,,,,,,,,,,,,,,,,,,,,,,,,,,,,,
,,5f8639cd12e4d71876c9348e,2026-03-17_10h22.26.009,kallum_motion_pilot_GIST_update_2,2026.1.1,Win32,60.97560976,5f8639cd12e4d71876c9348e,69b92ab4aef6dee357cd729a,69b92b5744ee7a3fa29ded7e,0.0205,0.0205,0,53,53,11,1,twofour,,,,,,,,,,,,,,,,,,,,,,,,,,,,,,,,,,,,,,,,,,,,,,,,,,,,,,,,,,,,,,,,,,,,,,,,,,,,,,,,,,,,,,,,,,,,,,,,,,,,,,,,,,,,,,,,,,,,,,,,,,,,,,,,,,,,,,,,,
,,5f8639cd12e4d71876c9348e,2026-03-17_10h22.26.009,kallum_motion_pilot_GIST_update_2,2026.1.1,Win32,60.97560976,5f8639cd12e4d71876c9348e,69b92ab4aef6dee357cd729a,69b92b5744ee7a3fa29ded7e,0.0206,0.0206,0,54,54,108,1,sevenfive,,,,,,,,,,,,,,,,,,,,,,,,,,,,,,,,,,,,,,,,,,,,,,,,,,,,,,,,,,,,,,,,,,,,,,,,,,,,,,,,,,,,,,,,,,,,,,,,,,,,,,,,,,,,,,,,,,,,,,,,,,,,,,,,,,,,,,,,,
,,5f8639cd12e4d71876c9348e,2026-03-17_10h22.26.009,kallum_motion_pilot_GIST_update_2,2026.1.1,Win32,60.97560976,5f8639cd12e4d71876c9348e,69b92ab4aef6dee357cd729a,69b92b5744ee7a3fa29ded7e,0.0207,0.0207,0,55,55,10,1,twoone,,,,,,,,,,,,,,,,,,,,,,,,,,,,,,,,,,,,,,,,,,,,,,,,,,,,,,,,,,,,,,,,,,,,,,,,,,,,,,,,,,,,,,,,,,,,,,,,,,,,,,,,,,,,,,,,,,,,,,,,,,,,,,,,,,,,,,,,,
,,5f8639cd12e4d71876c9348e,2026-03-17_10h22.26.009,kallum_motion_pilot_GIST_update_2,2026.1.1,Win32,60.97560976,5f8639cd12e4d71876c9348e,69b92ab4aef6dee357cd729a,69b92b5744ee7a3fa29ded7e,0.0208,0.0208,0,56,56,101,1,seveneight,,,,,,,,,,,,,,,,,,,,,,,,,,,,,,,,,,,,,,,,,,,,,,,,,,,,,,,,,,,,,,,,,,,,,,,,,,,,,,,,,,,,,,,,,,,,,,,,,,,,,,,,,,,,,,,,,,,,,,,,,,,,,,,,,,,,,,,,,
,,5f8639cd12e4d71876c9348e,2026-03-17_10h22.26.009,kallum_motion_pilot_GIST_update_2,2026.1.1,Win32,60.97560976,5f8639cd12e4d71876c9348e,69b92ab4aef6dee357cd729a,69b92b5744ee7a3fa29ded7e,0.0208,0.0208,0,57,57,52,1,threeone,,,,,,,,,,,,,,,,,,,,,,,,,,,,,,,,,,,,,,,,,,,,,,,,,,,,,,,,,,,,,,,,,,,,,,,,,,,,,,,,,,,,,,,,,,,,,,,,,,,,,,,,,,,,,,,,,,,,,,,,,,,,,,,,,,,,,,,,,
,,5f8639cd12e4d71876c9348e,2026-03-17_10h22.26.009,kallum_motion_pilot_GIST_update_2,2026.1.1,Win32,60.97560976,5f8639cd12e4d71876c9348e,69b92ab4aef6dee357cd729a,69b92b5744ee7a3fa29ded7e,0.0209,0.0209,0,58,58,6,1,fourtwo,,,,,,,,,,,,,,,,,,,,,,,,,,,,,,,,,,,,,,,,,,,,,,,,,,,,,,,,,,,,,,,,,,,,,,,,,,,,,,,,,,,,,,,,,,,,,,,,,,,,,,,,,,,,,,,,,,,,,,,,,,,,,,,,,,,,,,,,,
,,5f8639cd12e4d71876c9348e,2026-03-17_10h22.26.009,kallum_motion_pilot_GIST_update_2,2026.1.1,Win32,60.97560976,5f8639cd12e4d71876c9348e,69b92ab4aef6dee357cd729a,69b92b5744ee7a3fa29ded7e,0.021,0.021,0,59,59,93,1,seveneight,,,,,,,,,,,,,,,,,,,,,,,,,,,,,,,,,,,,,,,,,,,,,,,,,,,,,,,,,,,,,,,,,,,,,,,,,,,,,,,,,,,,,,,,,,,,,,,,,,,,,,,,,,,,,,,,,,,,,,,,,,,,,,,,,,,,,,,,,
,,5f8639cd12e4d71876c9348e,2026-03-17_10h22.26.009,kallum_motion_pilot_GIST_update_2,2026.1.1,Win32,60.97560976,5f8639cd12e4d71876c9348e,69b92ab4aef6dee357cd729a,69b92b5744ee7a3fa29ded7e,0.021,0.021,0,60,60,79,1,eightseven,,,,,,,,,,,,,,,,,,,,,,,,,,,,,,,,,,,,,,,,,,,,,,,,,,,,,,,,,,,,,,,,,,,,,,,,,,,,,,,,,,,,,,,,,,,,,,,,,,,,,,,,,,,,,,,,,,,,,,,,,,,,,,,,,,,,,,,,,
,,5f8639cd12e4d71876c9348e,2026-03-17_10h22.26.009,kallum_motion_pilot_GIST_update_2,2026.1.1,Win32,60.97560976,5f8639cd12e4d71876c9348e,69b92ab4aef6dee357cd729a,69b92b5744ee7a3fa29ded7e,0.0211,0.0211,0,61,61,29,1,threefour,,,,,,,,,,,,,,,,,,,,,,,,,,,,,,,,,,,,,,,,,,,,,,,,,,,,,,,,,,,,,,,,,,,,,,,,,,,,,,,,,,,,,,,,,,,,,,,,,,,,,,,,,,,,,,,,,,,,,,,,,,,,,,,,,,,,,,,,,
,,5f8639cd12e4d71876c9348e,2026-03-17_10h22.26.009,kallum_motion_pilot_GIST_update_2,2026.1.1,Win32,60.97560976,5f8639cd12e4d71876c9348e,69b92ab4aef6dee357cd729a,69b92b5744ee7a3fa29ded7e,0.0212,0.0212,0,62,62,121,1,fiveseven,,,,,,,,,,,,,,,,,,,,,,,,,,,,,,,,,,,,,,,,,,,,,,,,,,,,,,,,,,,,,,,,,,,,,,,,,,,,,,,,,,,,,,,,,,,,,,,,,,,,,,,,,,,,,,,,,,,,,,,,,,,,,,,,,,,,,,,,,
,,5f8639cd12e4d71876c9348e,2026-03-17_10h22.26.009,kallum_motion_pilot_GIST_update_2,2026.1.1,Win32,60.97560976,5f8639cd12e4d71876c9348e,69b92ab4aef6dee357cd729a,69b92b5744ee7a3fa29ded7e,0.0213,0.0213,0,63,63,13,1,threefour,,,,,,,,,,,,,,,,,,,,,,,,,,,,,,,,,,,,,,,,,,,,,,,,,,,,,,,,,,,,,,,,,,,,,,,,,,,,,,,,,,,,,,,,,,,,,,,,,,,,,,,,,,,,,,,,,,,,,,,,,,,,,,,,,,,,,,,,,
,,5f8639cd12e4d71876c9348e,2026-03-17_10h22.26.009,kallum_motion_pilot_GIST_update_2,2026.1.1,Win32,60.97560976,5f8639cd12e4d71876c9348e,69b92ab4aef6dee357cd729a,69b92b5744ee7a3fa29ded7e,0.0214,0.0214,0,64,64,64,1,onetwo,,,,,,,,,,,,,,,,,,,,,,,,,,,,,,,,,,,,,,,,,,,,,,,,,,,,,,,,,,,,,,,,,,,,,,,,,,,,,,,,,,,,,,,,,,,,,,,,,,,,,,,,,,,,,,,,,,,,,,,,,,,,,,,,,,,,,,,,,
,,5f8639cd12e4d71876c9348e,2026-03-17_10h22.26.009,kallum_motion_pilot_GIST_update_2,2026.1.1,Win32,60.97560976,5f8639cd12e4d71876c9348e,69b92ab4aef6dee357cd729a,69b92b5744ee7a3fa29ded7e,0.0215,0.0215,0,65,65,42,1,twoone,,,,,,,,,,,,,,,,,,,,,,,,,,,,,,,,,,,,,,,,,,,,,,,,,,,,,,,,,,,,,,,,,,,,,,,,,,,,,,,,,,,,,,,,,,,,,,,,,,,,,,,,,,,,,,,,,,,,,,,,,,,,,,,,,,,,,,,,,
,,5f8639cd12e4d71876c9348e,2026-03-17_10h22.26.009,kallum_motion_pilot_GIST_update_2,2026.1.1,Win32,60.97560976,5f8639cd12e4d71876c9348e,69b92ab4aef6dee357cd729a,69b92b5744ee7a3fa29ded7e,0.0215,0.0215,0,66,66,122,1,sixfive,,,,,,,,,,,,,,,,,,,,,,,,,,,,,,,,,,,,,,,,,,,,,,,,,,,,,,,,,,,,,,,,,,,,,,,,,,,,,,,,,,,,,,,,,,,,,,,,,,,,,,,,,,,,,,,,,,,,,,,,,,,,,,,,,,,,,,,,,
,,5f8639cd12e4d71876c9348e,2026-03-17_10h22.26.009,kallum_motion_pilot_GIST_update_2,2026.1.1,Win32,60.97560976,5f8639cd12e4d71876c9348e,69b92ab4aef6dee357cd729a,69b92b5744ee7a3fa29ded7e,0.0216,0.0216,0,67,67,85,1,seveneight,,,,,,,,,,,,,,,,,,,,,,,,,,,,,,,,,,,,,,,,,,,,,,,,,,,,,,,,,,,,,,,,,,,,,,,,,,,,,,,,,,,,,,,,,,,,,,,,,,,,,,,,,,,,,,,,,,,,,,,,,,,,,,,,,,,,,,,,,
,,5f8639cd12e4d71876c9348e,2026-03-17_10h22.26.009,kallum_motion_pilot_GIST_update_2,2026.1.1,Win32,60.97560976,5f8639cd12e4d71876c9348e,69b92ab4aef6dee357cd729a,69b92b5744ee7a3fa29ded7e,0.0217,0.0217,0,68,68,112,1,fivesix,,,,,,,,,,,,,,,,,,,,,,,,,,,,,,,,,,,,,,,,,,,,,,,,,,,,,,,,,,,,,,,,,,,,,,,,,,,,,,,,,,,,,,,,,,,,,,,,,,,,,,,,,,,,,,,,,,,,,,,,,,,,,,,,,,,,,,,,,
,,5f8639cd12e4d71876c9348e,2026-03-17_10h22.26.009,kallum_motion_pilot_GIST_update_2,2026.1.1,Win32,60.97560976,5f8639cd12e4d71876c9348e,69b92ab4aef6dee357cd729a,69b92b5744ee7a3fa29ded7e,0.0218,0.0218,0,69,69,24,1,onetwo,,,,,,,,,,,,,,,,,,,,,,,,,,,,,,,,,,,,,,,,,,,,,,,,,,,,,,,,,,,,,,,,,,,,,,,,,,,,,,,,,,,,,,,,,,,,,,,,,,,,,,,,,,,,,,,,,,,,,,,,,,,,,,,,,,,,,,,,,
,,5f8639cd12e4d71876c9348e,2026-03-17_10h22.26.009,kallum_motion_pilot_GIST_update_2,2026.1.1,Win32,60.97560976,5f8639cd12e4d71876c9348e,69b92ab4aef6dee357cd729a,69b92b5744ee7a3fa29ded7e,0.0219,0.0219,0,70,70,72,1,onetwo,,,,,,,,,,,,,,,,,,,,,,,,,,,,,,,,,,,,,,,,,,,,,,,,,,,,,,,,,,,,,,,,,,,,,,,,,,,,,,,,,,,,,,,,,,,,,,,,,,,,,,,,,,,,,,,,,,,,,,,,,,,,,,,,,,,,,,,,,
,,5f8639cd12e4d71876c9348e,2026-03-17_10h22.26.009,kallum_motion_pilot_GIST_update_2,2026.1.1,Win32,60.97560976,5f8639cd12e4d71876c9348e,69b92ab4aef6dee357cd729a,69b92b5744ee7a3fa29ded7e,0.022,0.022,0,71,71,73,1,onethree,,,,,,,,,,,,,,,,,,,,,,,,,,,,,,,,,,,,,,,,,,,,,,,,,,,,,,,,,,,,,,,,,,,,,,,,,,,,,,,,,,,,,,,,,,,,,,,,,,,,,,,,,,,,,,,,,,,,,,,,,,,,,,,,,,,,,,,,,
,,5f8639cd12e4d71876c9348e,2026-03-17_10h22.26.009,kallum_motion_pilot_GIST_update_2,2026.1.1,Win32,60.97560976,5f8639cd12e4d71876c9348e,69b92ab4aef6dee357cd729a,69b92b5744ee7a3fa29ded7e,0.022,0.022,0,72,72,139,1,sixeight,,,,,,,,,,,,,,,,,,,,,,,,,,,,,,,,,,,,,,,,,,,,,,,,,,,,,,,,,,,,,,,,,,,,,,,,,,,,,,,,,,,,,,,,,,,,,,,,,,,,,,,,,,,,,,,,,,,,,,,,,,,,,,,,,,,,,,,,,
,,5f8639cd12e4d71876c9348e,2026-03-17_10h22.26.009,kallum_motion_pilot_GIST_update_2,2026.1.1,Win32,60.97560976,5f8639cd12e4d71876c9348e,69b92ab4aef6dee357cd729a,69b92b5744ee7a3fa29ded7e,0.0221,0.0221,0,73,73,76,1,threeone,,,,,,,,,,,,,,,,,,,,,,,,,,,,,,,,,,,,,,,,,,,,,,,,,,,,,,,,,,,,,,,,,,,,,,,,,,,,,,,,,,,,,,,,,,,,,,,,,,,,,,,,,,,,,,,,,,,,,,,,,,,,,,,,,,,,,,,,,
,,5f8639cd12e4d71876c9348e,2026-03-17_10h22.26.009,kallum_motion_pilot_GIST_update_2,2026.1.1,Win32,60.97560976,5f8639cd12e4d71876c9348e,69b92ab4aef6dee357cd729a,69b92b5744ee7a3fa29ded7e,0.0222,0.0222,0,74,74,147,1,sixeight,,,,,,,,,,,,,,,,,,,,,,,,,,,,,,,,,,,,,,,,,,,,,,,,,,,,,,,,,,,,,,,,,,,,,,,,,,,,,,,,,,,,,,,,,,,,,,,,,,,,,,,,,,,,,,,,,,,,,,,,,,,,,,,,,,,,,,,,,
,,5f8639cd12e4d71876c9348e,2026-03-17_10h22.26.009,kallum_motion_pilot_GIST_update_2,2026.1.1,Win32,60.97560976,5f8639cd12e4d71876c9348e,69b92ab4aef6dee357cd729a,69b92b5744ee7a3fa29ded7e,0.0223,0.0223,0,75,75,67,1,twofour,,,,,,,,,,,,,,,,,,,,,,,,,,,,,,,,,,,,,,,,,,,,,,,,,,,,,,,,,,,,,,,,,,,,,,,,,,,,,,,,,,,,,,,,,,,,,,,,,,,,,,,,,,,,,,,,,,,,,,,,,,,,,,,,,,,,,,,,,
,,5f8639cd12e4d71876c9348e,2026-03-17_10h22.26.009,kallum_motion_pilot_GIST_update_2,2026.1.1,Win32,60.97560976,5f8639cd12e4d71876c9348e,69b92ab4aef6dee357cd729a,69b92b5744ee7a3fa29ded7e,0.0224,0.0224,0,76,76,116,1,sevenfive,,,,,,,,,,,,,,,,,,,,,,,,,,,,,,,,,,,,,,,,,,,,,,,,,,,,,,,,,,,,,,,,,,,,,,,,,,,,,,,,,,,,,,,,,,,,,,,,,,,,,,,,,,,,,,,,,,,,,,,,,,,,,,,,,,,,,,,,,
,,5f8639cd12e4d71876c9348e,2026-03-17_10h22.26.009,kallum_motion_pilot_GIST_update_2,2026.1.1,Win32,60.97560976,5f8639cd12e4d71876c9348e,69b92ab4aef6dee357cd729a,69b92b5744ee7a3fa29ded7e,0.0225,0.0225,0,77,77,91,1,sixeight,,,,,,,,,,,,,,,,,,,,,,,,,,,,,,,,,,,,,,,,,,,,,,,,,,,,,,,,,,,,,,,,,,,,,,,,,,,,,,,,,,,,,,,,,,,,,,,,,,,,,,,,,,,,,,,,,,,,,,,,,,,,,,,,,,,,,,,,,
,,5f8639cd12e4d71876c9348e,2026-03-17_10h22.26.009,kallum_motion_pilot_GIST_update_2,2026.1.1,Win32,60.97560976,5f8639cd12e4d71876c9348e,69b92ab4aef6dee357cd729a,69b92b5744ee7a3fa29ded7e,0.0226,0.0226,0,78,78,120,1,fivesix,,,,,,,,,,,,,,,,,,,,,,,,,,,,,,,,,,,,,,,,,,,,,,,,,,,,,,,,,,,,,,,,,,,,,,,,,,,,,,,,,,,,,,,,,,,,,,,,,,,,,,,,,,,,,,,,,,,,,,,,,,,,,,,,,,,,,,,,,
,,5f8639cd12e4d71876c9348e,2026-03-17_10h22.26.009,kallum_motion_pilot_GIST_update_2,2026.1.1,Win32,60.97560976,5f8639cd12e4d71876c9348e,69b92ab4aef6dee357cd729a,69b92b5744ee7a3fa29ded7e,0.0227,0.0227,0,79,79,5,1,threefour,,,,,,,,,,,,,,,,,,,,,,,,,,,,,,,,,,,,,,,,,,,,,,,,,,,,,,,,,,,,,,,,,,,,,,,,,,,,,,,,,,,,,,,,,,,,,,,,,,,,,,,,,,,,,,,,,,,,,,,,,,,,,,,,,,,,,,,,,
,,5f8639cd12e4d71876c9348e,2026-03-17_10h22.26.009,kallum_motion_pilot_GIST_update_2,2026.1.1,Win32,60.97560976,5f8639cd12e4d71876c9348e,69b92ab4aef6dee357cd729a,69b92b5744ee7a3fa29ded7e,0.0228,0.0228,0,80,80,31,1,fourthree,,,,,,,,,,,,,,,,,,,,,,,,,,,,,,,,,,,,,,,,,,,,,,,,,,,,,,,,,,,,,,,,,,,,,,,,,,,,,,,,,,,,,,,,,,,,,,,,,,,,,,,,,,,,,,,,,,,,,,,,,,,,,,,,,,,,,,,,,
,,5f8639cd12e4d71876c9348e,2026-03-17_10h22.26.009,kallum_motion_pilot_GIST_update_2,2026.1.1,Win32,60.97560976,5f8639cd12e4d71876c9348e,69b92ab4aef6dee357cd729a,69b92b5744ee7a3fa29ded7e,0.0228,0.0228,0,81,81,75,1,twofour,,,,,,,,,,,,,,,,,,,,,,,,,,,,,,,,,,,,,,,,,,,,,,,,,,,,,,,,,,,,,,,,,,,,,,,,,,,,,,,,,,,,,,,,,,,,,,,,,,,,,,,,,,,,,,,,,,,,,,,,,,,,,,,,,,,,,,,,,
,,5f8639cd12e4d71876c9348e,2026-03-17_10h22.26.009,kallum_motion_pilot_GIST_update_2,2026.1.1,Win32,60.97560976,5f8639cd12e4d71876c9348e,69b92ab4aef6dee357cd729a,69b92b5744ee7a3fa29ded7e,0.0229,0.0229,0,82,82,92,1,sevenfive,,,,,,,,,,,,,,,,,,,,,,,,,,,,,,,,,,,,,,,,,,,,,,,,,,,,,,,,,,,,,,,,,,,,,,,,,,,,,,,,,,,,,,,,,,,,,,,,,,,,,,,,,,,,,,,,,,,,,,,,,,,,,,,,,,,,,,,,,
,,5f8639cd12e4d71876c9348e,2026-03-17_10h22.26.009,kallum_motion_pilot_GIST_update_2,2026.1.1,Win32,60.97560976,5f8639cd12e4d71876c9348e,69b92ab4aef6dee357cd729a,69b92b5744ee7a3fa29ded7e,0.023,0.023,0,83,83,111,1,eightseven,,,,,,,,,,,,,,,,,,,,,,,,,,,,,,,,,,,,,,,,,,,,,,,,,,,,,,,,,,,,,,,,,,,,,,,,,,,,,,,,,,,,,,,,,,,,,,,,,,,,,,,,,,,,,,,,,,,,,,,,,,,,,,,,,,,,,,,,,
,,5f8639cd12e4d71876c9348e,2026-03-17_10h22.26.009,kallum_motion_pilot_GIST_update_2,2026.1.1,Win32,60.97560976,5f8639cd12e4d71876c9348e,69b92ab4aef6dee357cd729a,69b92b5744ee7a3fa29ded7e,0.023,0.023,0,84,84,100,1,sevenfive,,,,,,,,,,,,,,,,,,,,,,,,,,,,,,,,,,,,,,,,,,,,,,,,,,,,,,,,,,,,,,,,,,,,,,,,,,,,,,,,,,,,,,,,,,,,,,,,,,,,,,,,,,,,,,,,,,,,,,,,,,,,,,,,,,,,,,,,,
,,5f8639cd12e4d71876c9348e,2026-03-17_10h22.26.009,kallum_motion_pilot_GIST_update_2,2026.1.1,Win32,60.97560976,5f8639cd12e4d71876c9348e,69b92ab4aef6dee357cd729a,69b92b5744ee7a3fa29ded7e,0.0231,0.0231,0,85,85,135,1,eightseven,,,,,,,,,,,,,,,,,,,,,,,,,,,,,,,,,,,,,,,,,,,,,,,,,,,,,,,,,,,,,,,,,,,,,,,,,,,,,,,,,,,,,,,,,,,,,,,,,,,,,,,,,,,,,,,,,,,,,,,,,,,,,,,,,,,,,,,,,
,,5f8639cd12e4d71876c9348e,2026-03-17_10h22.26.009,kallum_motion_pilot_GIST_update_2,2026.1.1,Win32,60.97560976,5f8639cd12e4d71876c9348e,69b92ab4aef6dee357cd729a,69b92b5744ee7a3fa29ded7e,0.0232,0.0232,0,86,86,124,1,sevenfive,,,,,,,,,,,,,,,,,,,,,,,,,,,,,,,,,,,,,,,,,,,,,,,,,,,,,,,,,,,,,,,,,,,,,,,,,,,,,,,,,,,,,,,,,,,,,,,,,,,,,,,,,,,,,,,,,,,,,,,,,,,,,,,,,,,,,,,,,
,,5f8639cd12e4d71876c9348e,2026-03-17_10h22.26.009,kallum_motion_pilot_GIST_update_2,2026.1.1,Win32,60.97560976,5f8639cd12e4d71876c9348e,69b92ab4aef6dee357cd729a,69b92b5744ee7a3fa29ded7e,0.0233,0.0233,0,87,87,2,1,twoone,,,,,,,,,,,,,,,,,,,,,,,,,,,,,,,,,,,,,,,,,,,,,,,,,,,,,,,,,,,,,,,,,,,,,,,,,,,,,,,,,,,,,,,,,,,,,,,,,,,,,,,,,,,,,,,,,,,,,,,,,,,,,,,,,,,,,,,,,
,,5f8639cd12e4d71876c9348e,2026-03-17_10h22.26.009,kallum_motion_pilot_GIST_update_2,2026.1.1,Win32,60.97560976,5f8639cd12e4d71876c9348e,69b92ab4aef6dee357cd729a,69b92b5744ee7a3fa29ded7e,0.0234,0.0234,0,88,88,69,1,threefour,,,,,,,,,,,,,,,,,,,,,,,,,,,,,,,,,,,,,,,,,,,,,,,,,,,,,,,,,,,,,,,,,,,,,,,,,,,,,,,,,,,,,,,,,,,,,,,,,,,,,,,,,,,,,,,,,,,,,,,,,,,,,,,,,,,,,,,,,
,,5f8639cd12e4d71876c9348e,2026-03-17_10h22.26.009,kallum_motion_pilot_GIST_update_2,2026.1.1,Win32,60.97560976,5f8639cd12e4d71876c9348e,69b92ab4aef6dee357cd729a,69b92b5744ee7a3fa29ded7e,0.0234,0.0234,0,89,89,131,1,sixeight,,,,,,,,,,,,,,,,,,,,,,,,,,,,,,,,,,,,,,,,,,,,,,,,,,,,,,,,,,,,,,,,,,,,,,,,,,,,,,,,,,,,,,,,,,,,,,,,,,,,,,,,,,,,,,,,,,,,,,,,,,,,,,,,,,,,,,,,,
,,5f8639cd12e4d71876c9348e,2026-03-17_10h22.26.009,kallum_motion_pilot_GIST_update_2,2026.1.1,Win32,60.97560976,5f8639cd12e4d71876c9348e,69b92ab4aef6dee357cd729a,69b92b5744ee7a3fa29ded7e,0.0235,0.0235,0,90,90,142,1,eightsix,,,,,,,,,,,,,,,,,,,,,,,,,,,,,,,,,,,,,,,,,,,,,,,,,,,,,,,,,,,,,,,,,,,,,,,,,,,,,,,,,,,,,,,,,,,,,,,,,,,,,,,,,,,,,,,,,,,,,,,,,,,,,,,,,,,,,,,,,
,,5f8639cd12e4d71876c9348e,2026-03-17_10h22.26.009,kallum_motion_pilot_GIST_update_2,2026.1.1,Win32,60.97560976,5f8639cd12e4d71876c9348e,69b92ab4aef6dee357cd729a,69b92b5744ee7a3fa29ded7e,0.0237,0.0237,0,91,91,21,1,threefour,,,,,,,,,,,,,,,,,,,,,,,,,,,,,,,,,,,,,,,,,,,,,,,,,,,,,,,,,,,,,,,,,,,,,,,,,,,,,,,,,,,,,,,,,,,,,,,,,,,,,,,,,,,,,,,,,,,,,,,,,,,,,,,,,,,,,,,,,
,,5f8639cd12e4d71876c9348e,2026-03-17_10h22.26.009,kallum_motion_pilot_GIST_update_2,2026.1.1,Win32,60.97560976,5f8639cd12e4d71876c9348e,69b92ab4aef6dee357cd729a,69b92b5744ee7a3fa29ded7e,0.0238,0.0238,0,92,92,154,1,sixfive,,,,,,,,,,,,,,,,,,,,,,,,,,,,,,,,,,,,,,,,,,,,,,,,,,,,,,,,,,,,,,,,,,,,,,,,,,,,,,,,,,,,,,,,,,,,,,,,,,,,,,,,,,,,,,,,,,,,,,,,,,,,,,,,,,,,,,,,,
,,5f8639cd12e4d71876c9348e,2026-03-17_10h22.26.009,kallum_motion_pilot_GIST_update_2,2026.1.1,Win32,60.97560976,5f8639cd12e4d71876c9348e,69b92ab4aef6dee357cd729a,69b92b5744ee7a3fa29ded7e,0.0239,0.024,0,93,93,117,1,seveneight,,,,,,,,,,,,,,,,,,,,,,,,,,,,,,,,,,,,,,,,,,,,,,,,,,,,,,,,,,,,,,,,,,,,,,,,,,,,,,,,,,,,,,,,,,,,,,,,,,,,,,,,,,,,,,,,,,,,,,,,,,,,,,,,,,,,,,,,,
,,5f8639cd12e4d71876c9348e,2026-03-17_10h22.26.009,kallum_motion_pilot_GIST_update_2,2026.1.1,Win32,60.97560976,5f8639cd12e4d71876c9348e,69b92ab4aef6dee357cd729a,69b92b5744ee7a3fa29ded7e,0.024,0.024,0,94,94,145,1,fiveseven,,,,,,,,,,,,,,,,,,,,,,,,,,,,,,,,,,,,,,,,,,,,,,,,,,,,,,,,,,,,,,,,,,,,,,,,,,,,,,,,,,,,,,,,,,,,,,,,,,,,,,,,,,,,,,,,,,,,,,,,,,,,,,,,,,,,,,,,,
,,5f8639cd12e4d71876c9348e,2026-03-17_10h22.26.009,kallum_motion_pilot_GIST_update_2,2026.1.1,Win32,60.97560976,5f8639cd12e4d71876c9348e,69b92ab4aef6dee357cd729a,69b92b5744ee7a3fa29ded7e,0.0241,0.0241,0,95,95,102,1,eightsix,,,,,,,,,,,,,,,,,,,,,,,,,,,,,,,,,,,,,,,,,,,,,,,,,,,,,,,,,,,,,,,,,,,,,,,,,,,,,,,,,,,,,,,,,,,,,,,,,,,,,,,,,,,,,,,,,,,,,,,,,,,,,,,,,,,,,,,,,
,,5f8639cd12e4d71876c9348e,2026-03-17_10h22.26.009,kallum_motion_pilot_GIST_update_2,2026.1.1,Win32,60.97560976,5f8639cd12e4d71876c9348e,69b92ab4aef6dee357cd729a,69b92b5744ee7a3fa29ded7e,0.0242,0.0242,0,96,96,159,1,eightseven,,,,,,,,,,,,,,,,,,,,,,,,,,,,,,,,,,,,,,,,,,,,,,,,,,,,,,,,,,,,,,,,,,,,,,,,,,,,,,,,,,,,,,,,,,,,,,,,,,,,,,,,,,,,,,,,,,,,,,,,,,,,,,,,,,,,,,,,,
,,5f8639cd12e4d71876c9348e,2026-03-17_10h22.26.009,kallum_motion_pilot_GIST_update_2,2026.1.1,Win32,60.97560976,5f8639cd12e4d71876c9348e,69b92ab4aef6dee357cd729a,69b92b5744ee7a3fa29ded7e,0.0242,0.0242,0,97,97,40,1,onetwo,,,,,,,,,,,,,,,,,,,,,,,,,,,,,,,,,,,,,,,,,,,,,,,,,,,,,,,,,,,,,,,,,,,,,,,,,,,,,,,,,,,,,,,,,,,,,,,,,,,,,,,,,,,,,,,,,,,,,,,,,,,,,,,,,,,,,,,,,
,,5f8639cd12e4d71876c9348e,2026-03-17_10h22.26.009,kallum_motion_pilot_GIST_update_2,2026.1.1,Win32,60.97560976,5f8639cd12e4d71876c9348e,69b92ab4aef6dee357cd729a,69b92b5744ee7a3fa29ded7e,0.0244,0.0244,0,98,98,81,1,fiveseven,,,,,,,,,,,,,,,,,,,,,,,,,,,,,,,,,,,,,,,,,,,,,,,,,,,,,,,,,,,,,,,,,,,,,,,,,,,,,,,,,,,,,,,,,,,,,,,,,,,,,,,,,,,,,,,,,,,,,,,,,,,,,,,,,,,,,,,,,
,,5f8639cd12e4d71876c9348e,2026-03-17_10h22.26.009,kallum_motion_pilot_GIST_update_2,2026.1.1,Win32,60.97560976,5f8639cd12e4d71876c9348e,69b92ab4aef6dee357cd729a,69b92b5744ee7a3fa29ded7e,0.0245,0.0245,0,99,99,65,1,onethree,,,,,,,,,,,,,,,,,,,,,,,,,,,,,,,,,,,,,,,,,,,,,,,,,,,,,,,,,,,,,,,,,,,,,,,,,,,,,,,,,,,,,,,,,,,,,,,,,,,,,,,,,,,,,,,,,,,,,,,,,,,,,,,,,,,,,,,,,
,,5f8639cd12e4d71876c9348e,2026-03-17_10h22.26.009,kallum_motion_pilot_GIST_update_2,2026.1.1,Win32,60.97560976,5f8639cd12e4d71876c9348e,69b92ab4aef6dee357cd729a,69b92b5744ee7a3fa29ded7e,0.0245,0.0245,0,100,100,134,1,eightsix,,,,,,,,,,,,,,,,,,,,,,,,,,,,,,,,,,,,,,,,,,,,,,,,,,,,,,,,,,,,,,,,,,,,,,,,,,,,,,,,,,,,,,,,,,,,,,,,,,,,,,,,,,,,,,,,,,,,,,,,,,,,,,,,,,,,,,,,,
,,5f8639cd12e4d71876c9348e,2026-03-17_10h22.26.009,kallum_motion_pilot_GIST_update_2,2026.1.1,Win32,60.97560976,5f8639cd12e4d71876c9348e,69b92ab4aef6dee357cd729a,69b92b5744ee7a3fa29ded7e,0.0246,0.0246,0,101,101,17,1,onethree,,,,,,,,,,,,,,,,,,,,,,,,,,,,,,,,,,,,,,,,,,,,,,,,,,,,,,,,,,,,,,,,,,,,,,,,,,,,,,,,,,,,,,,,,,,,,,,,,,,,,,,,,,,,,,,,,,,,,,,,,,,,,,,,,,,,,,,,,
,,5f8639cd12e4d71876c9348e,2026-03-17_10h22.26.009,kallum_motion_pilot_GIST_update_2,2026.1.1,Win32,60.97560976,5f8639cd12e4d71876c9348e,69b92ab4aef6dee357cd729a,69b92b5744ee7a3fa29ded7e,0.0247,0.0247,0,102,102,37,1,threefour,,,,,,,,,,,,,,,,,,,,,,,,,,,,,,,,,,,,,,,,,,,,,,,,,,,,,,,,,,,,,,,,,,,,,,,,,,,,,,,,,,,,,,,,,,,,,,,,,,,,,,,,,,,,,,,,,,,,,,,,,,,,,,,,,,,,,,,,,
,,5f8639cd12e4d71876c9348e,2026-03-17_10h22.26.009,kallum_motion_pilot_GIST_update_2,2026.1.1,Win32,60.97560976,5f8639cd12e4d71876c9348e,69b92ab4aef6dee357cd729a,69b92b5744ee7a3fa29ded7e,0.0248,0.0248,0,103,103,60,1,threeone,,,,,,,,,,,,,,,,,,,,,,,,,,,,,,,,,,,,,,,,,,,,,,,,,,,,,,,,,,,,,,,,,,,,,,,,,,,,,,,,,,,,,,,,,,,,,,,,,,,,,,,,,,,,,,,,,,,,,,,,,,,,,,,,,,,,,,,,,
,,5f8639cd12e4d71876c9348e,2026-03-17_10h22.26.009,kallum_motion_pilot_GIST_update_2,2026.1.1,Win32,60.97560976,5f8639cd12e4d71876c9348e,69b92ab4aef6dee357cd729a,69b92b5744ee7a3fa29ded7e,0.0249,0.0249,0,104,104,47,1,fourthree,,,,,,,,,,,,,,,,,,,,,,,,,,,,,,,,,,,,,,,,,,,,,,,,,,,,,,,,,,,,,,,,,,,,,,,,,,,,,,,,,,,,,,,,,,,,,,,,,,,,,,,,,,,,,,,,,,,,,,,,,,,,,,,,,,,,,,,,,
,,5f8639cd12e4d71876c9348e,2026-03-17_10h22.26.009,kallum_motion_pilot_GIST_update_2,2026.1.1,Win32,60.97560976,5f8639cd12e4d71876c9348e,69b92ab4aef6dee357cd729a,69b92b5744ee7a3fa29ded7e,0.025,0.025,0,105,105,35,1,twofour,,,,,,,,,,,,,,,,,,,,,,,,,,,,,,,,,,,,,,,,,,,,,,,,,,,,,,,,,,,,,,,,,,,,,,,,,,,,,,,,,,,,,,,,,,,,,,,,,,,,,,,,,,,,,,,,,,,,,,,,,,,,,,,,,,,,,,,,,
,,5f8639cd12e4d71876c9348e,2026-03-17_10h22.26.009,kallum_motion_pilot_GIST_update_2,2026.1.1,Win32,60.97560976,5f8639cd12e4d71876c9348e,69b92ab4aef6dee357cd729a,69b92b5744ee7a3fa29ded7e,0.0251,0.0251,0,106,106,138,1,sixfive,,,,,,,,,,,,,,,,,,,,,,,,,,,,,,,,,,,,,,,,,,,,,,,,,,,,,,,,,,,,,,,,,,,,,,,,,,,,,,,,,,,,,,,,,,,,,,,,,,,,,,,,,,,,,,,,,,,,,,,,,,,,,,,,,,,,,,,,,
,,5f8639cd12e4d71876c9348e,2026-03-17_10h22.26.009,kallum_motion_pilot_GIST_update_2,2026.1.1,Win32,60.97560976,5f8639cd12e4d71876c9348e,69b92ab4aef6dee357cd729a,69b92b5744ee7a3fa29ded7e,0.0252,0.0252,0,107,107,129,1,fiveseven,,,,,,,,,,,,,,,,,,,,,,,,,,,,,,,,,,,,,,,,,,,,,,,,,,,,,,,,,,,,,,,,,,,,,,,,,,,,,,,,,,,,,,,,,,,,,,,,,,,,,,,,,,,,,,,,,,,,,,,,,,,,,,,,,,,,,,,,,
,,5f8639cd12e4d71876c9348e,2026-03-17_10h22.26.009,kallum_motion_pilot_GIST_update_2,2026.1.1,Win32,60.97560976,5f8639cd12e4d71876c9348e,69b92ab4aef6dee357cd729a,69b92b5744ee7a3fa29ded7e,0.0252,0.0252,0,108,108,23,1,fourthree,,,,,,,,,,,,,,,,,,,,,,,,,,,,,,,,,,,,,,,,,,,,,,,,,,,,,,,,,,,,,,,,,,,,,,,,,,,,,,,,,,,,,,,,,,,,,,,,,,,,,,,,,,,,,,,,,,,,,,,,,,,,,,,,,,,,,,,,,
,,5f8639cd12e4d71876c9348e,2026-03-17_10h22.26.009,kallum_motion_pilot_GIST_update_2,2026.1.1,Win32,60.97560976,5f8639cd12e4d71876c9348e,69b92ab4aef6dee357cd729a,69b92b5744ee7a3fa29ded7e,0.0253,0.0253,0,109,109,89,1,fiveseven,,,,,,,,,,,,,,,,,,,,,,,,,,,,,,,,,,,,,,,,,,,,,,,,,,,,,,,,,,,,,,,,,,,,,,,,,,,,,,,,,,,,,,,,,,,,,,,,,,,,,,,,,,,,,,,,,,,,,,,,,,,,,,,,,,,,,,,,,
,,5f8639cd12e4d71876c9348e,2026-03-17_10h22.26.009,kallum_motion_pilot_GIST_update_2,2026.1.1,Win32,60.97560976,5f8639cd12e4d71876c9348e,69b92ab4aef6dee357cd729a,69b92b5744ee7a3fa29ded7e,0.0254,0.0254,0,110,110,44,1,threeone,,,,,,,,,,,,,,,,,,,,,,,,,,,,,,,,,,,,,,,,,,,,,,,,,,,,,,,,,,,,,,,,,,,,,,,,,,,,,,,,,,,,,,,,,,,,,,,,,,,,,,,,,,,,,,,,,,,,,,,,,,,,,,,,,,,,,,,,,
,,5f8639cd12e4d71876c9348e,2026-03-17_10h22.26.009,kallum_motion_pilot_GIST_update_2,2026.1.1,Win32,60.97560976,5f8639cd12e4d71876c9348e,69b92ab4aef6dee357cd729a,69b92b5744ee7a3fa29ded7e,0.0255,0.0255,0,111,111,27,1,twofour,,,,,,,,,,,,,,,,,,,,,,,,,,,,,,,,,,,,,,,,,,,,,,,,,,,,,,,,,,,,,,,,,,,,,,,,,,,,,,,,,,,,,,,,,,,,,,,,,,,,,,,,,,,,,,,,,,,,,,,,,,,,,,,,,,,,,,,,,
,,5f8639cd12e4d71876c9348e,2026-03-17_10h22.26.009,kallum_motion_pilot_GIST_update_2,2026.1.1,Win32,60.97560976,5f8639cd12e4d71876c9348e,69b92ab4aef6dee357cd729a,69b92b5744ee7a3fa29ded7e,0.0256,0.0256,0,112,112,68,1,threeone,,,,,,,,,,,,,,,,,,,,,,,,,,,,,,,,,,,,,,,,,,,,,,,,,,,,,,,,,,,,,,,,,,,,,,,,,,,,,,,,,,,,,,,,,,,,,,,,,,,,,,,,,,,,,,,,,,,,,,,,,,,,,,,,,,,,,,,,,
,,5f8639cd12e4d71876c9348e,2026-03-17_10h22.26.009,kallum_motion_pilot_GIST_update_2,2026.1.1,Win32,60.97560976,5f8639cd12e4d71876c9348e,69b92ab4aef6dee357cd729a,69b92b5744ee7a3fa29ded7e,0.0256,0.0256,0,113,113,152,1,fivesix,,,,,,,,,,,,,,,,,,,,,,,,,,,,,,,,,,,,,,,,,,,,,,,,,,,,,,,,,,,,,,,,,,,,,,,,,,,,,,,,,,,,,,,,,,,,,,,,,,,,,,,,,,,,,,,,,,,,,,,,,,,,,,,,,,,,,,,,,
,,5f8639cd12e4d71876c9348e,2026-03-17_10h22.26.009,kallum_motion_pilot_GIST_update_2,2026.1.1,Win32,60.97560976,5f8639cd12e4d71876c9348e,69b92ab4aef6dee357cd729a,69b92b5744ee7a3fa29ded7e,0.0257,0.0257,0,114,114,9,1,onethree,,,,,,,,,,,,,,,,,,,,,,,,,,,,,,,,,,,,,,,,,,,,,,,,,,,,,,,,,,,,,,,,,,,,,,,,,,,,,,,,,,,,,,,,,,,,,,,,,,,,,,,,,,,,,,,,,,,,,,,,,,,,,,,,,,,,,,,,,
,,5f8639cd12e4d71876c9348e,2026-03-17_10h22.26.009,kallum_motion_pilot_GIST_update_2,2026.1.1,Win32,60.97560976,5f8639cd12e4d71876c9348e,69b92ab4aef6dee357cd729a,69b92b5744ee7a3fa29ded7e,0.0259,0.0259,0,115,115,156,1,sevenfive,,,,,,,,,,,,,,,,,,,,,,,,,,,,,,,,,,,,,,,,,,,,,,,,,,,,,,,,,,,,,,,,,,,,,,,,,,,,,,,,,,,,,,,,,,,,,,,,,,,,,,,,,,,,,,,,,,,,,,,,,,,,,,,,,,,,,,,,,
,,5f8639cd12e4d71876c9348e,2026-03-17_10h22.26.009,kallum_motion_pilot_GIST_update_2,2026.1.1,Win32,60.97560976,5f8639cd12e4d71876c9348e,69b92ab4aef6dee357cd729a,69b92b5744ee7a3fa29ded7e,0.0259,0.0259,0,116,116,160,1,fivesix,,,,,,,,,,,,,,,,,,,,,,,,,,,,,,,,,,,,,,,,,,,,,,,,,,,,,,,,,,,,,,,,,,,,,,,,,,,,,,,,,,,,,,,,,,,,,,,,,,,,,,,,,,,,,,,,,,,,,,,,,,,,,,,,,,,,,,,,,
,,5f8639cd12e4d71876c9348e,2026-03-17_10h22.26.009,kallum_motion_pilot_GIST_update_2,2026.1.1,Win32,60.97560976,5f8639cd12e4d71876c9348e,69b92ab4aef6dee357cd729a,69b92b5744ee7a3fa29ded7e,0.026,0.026,0,117,117,57,1,onethree,,,,,,,,,,,,,,,,,,,,,,,,,,,,,,,,,,,,,,,,,,,,,,,,,,,,,,,,,,,,,,,,,,,,,,,,,,,,,,,,,,,,,,,,,,,,,,,,,,,,,,,,,,,,,,,,,,,,,,,,,,,,,,,,,,,,,,,,,
,,5f8639cd12e4d71876c9348e,2026-03-17_10h22.26.009,kallum_motion_pilot_GIST_update_2,2026.1.1,Win32,60.97560976,5f8639cd12e4d71876c9348e,69b92ab4aef6dee357cd729a,69b92b5744ee7a3fa29ded7e,0.0262,0.0262,0,118,118,36,1,threeone,,,,,,,,,,,,,,,,,,,,,,,,,,,,,,,,,,,,,,,,,,,,,,,,,,,,,,,,,,,,,,,,,,,,,,,,,,,,,,,,,,,,,,,,,,,,,,,,,,,,,,,,,,,,,,,,,,,,,,,,,,,,,,,,,,,,,,,,,
,,5f8639cd12e4d71876c9348e,2026-03-17_10h22.26.009,kallum_motion_pilot_GIST_update_2,2026.1.1,Win32,60.97560976,5f8639cd12e4d71876c9348e,69b92ab4aef6dee357cd729a,69b92b5744ee7a3fa29ded7e,0.0262,0.0262,0,119,119,53,1,threefour,,,,,,,,,,,,,,,,,,,,,,,,,,,,,,,,,,,,,,,,,,,,,,,,,,,,,,,,,,,,,,,,,,,,,,,,,,,,,,,,,,,,,,,,,,,,,,,,,,,,,,,,,,,,,,,,,,,,,,,,,,,,,,,,,,,,,,,,,
,,5f8639cd12e4d71876c9348e,2026-03-17_10h22.26.009,kallum_motion_pilot_GIST_update_2,2026.1.1,Win32,60.97560976,5f8639cd12e4d71876c9348e,69b92ab4aef6dee357cd729a,69b92b5744ee7a3fa29ded7e,0.0262,0.0262,0,120,120,143,1,eightseven,,,,,,,,,,,,,,,,,,,,,,,,,,,,,,,,,,,,,,,,,,,,,,,,,,,,,,,,,,,,,,,,,,,,,,,,,,,,,,,,,,,,,,,,,,,,,,,,,,,,,,,,,,,,,,,,,,,,,,,,,,,,,,,,,,,,,,,,,
,,5f8639cd12e4d71876c9348e,2026-03-17_10h22.26.009,kallum_motion_pilot_GIST_update_2,2026.1.1,Win32,60.97560976,5f8639cd12e4d71876c9348e,69b92ab4aef6dee357cd729a,69b92b5744ee7a3fa29ded7e,0.0264,0.0264,0,121,121,77,1,threefour,,,,,,,,,,,,,,,,,,,,,,,,,,,,,,,,,,,,,,,,,,,,,,,,,,,,,,,,,,,,,,,,,,,,,,,,,,,,,,,,,,,,,,,,,,,,,,,,,,,,,,,,,,,,,,,,,,,,,,,,,,,,,,,,,,,,,,,,,
,,5f8639cd12e4d71876c9348e,2026-03-17_10h22.26.009,kallum_motion_pilot_GIST_update_2,2026.1.1,Win32,60.97560976,5f8639cd12e4d71876c9348e,69b92ab4aef6dee357cd729a,69b92b5744ee7a3fa29ded7e,0.0265,0.0265,0,122,122,137,1,fiveseven,,,,,,,,,,,,,,,,,,,,,,,,,,,,,,,,,,,,,,,,,,,,,,,,,,,,,,,,,,,,,,,,,,,,,,,,,,,,,,,,,,,,,,,,,,,,,,,,,,,,,,,,,,,,,,,,,,,,,,,,,,,,,,,,,,,,,,,,,
,,5f8639cd12e4d71876c9348e,2026-03-17_10h22.26.009,kallum_motion_pilot_GIST_update_2,2026.1.1,Win32,60.97560976,5f8639cd12e4d71876c9348e,69b92ab4aef6dee357cd729a,69b92b5744ee7a3fa29ded7e,0.0266,0.0266,0,123,123,66,1,twoone,,,,,,,,,,,,,,,,,,,,,,,,,,,,,,,,,,,,,,,,,,,,,,,,,,,,,,,,,,,,,,,,,,,,,,,,,,,,,,,,,,,,,,,,,,,,,,,,,,,,,,,,,,,,,,,,,,,,,,,,,,,,,,,,,,,,,,,,,
,,5f8639cd12e4d71876c9348e,2026-03-17_10h22.26.009,kallum_motion_pilot_GIST_update_2,2026.1.1,Win32,60.97560976,5f8639cd12e4d71876c9348e,69b92ab4aef6dee357cd729a,69b92b5744ee7a3fa29ded7e,0.0267,0.0267,0,124,124,126,1,eightsix,,,,,,,,,,,,,,,,,,,,,,,,,,,,,,,,,,,,,,,,,,,,,,,,,,,,,,,,,,,,,,,,,,,,,,,,,,,,,,,,,,,,,,,,,,,,,,,,,,,,,,,,,,,,,,,,,,,,,,,,,,,,,,,,,,,,,,,,,
,,5f8639cd12e4d71876c9348e,2026-03-17_10h22.26.009,kallum_motion_pilot_GIST_update_2,2026.1.1,Win32,60.97560976,5f8639cd12e4d71876c9348e,69b92ab4aef6dee357cd729a,69b92b5744ee7a3fa29ded7e,0.0268,0.0268,0,125,125,97,1,fiveseven,,,,,,,,,,,,,,,,,,,,,,,,,,,,,,,,,,,,,,,,,,,,,,,,,,,,,,,,,,,,,,,,,,,,,,,,,,,,,,,,,,,,,,,,,,,,,,,,,,,,,,,,,,,,,,,,,,,,,,,,,,,,,,,,,,,,,,,,,
,,5f8639cd12e4d71876c9348e,2026-03-17_10h22.26.009,kallum_motion_pilot_GIST_update_2,2026.1.1,Win32,60.97560976,5f8639cd12e4d71876c9348e,69b92ab4aef6dee357cd729a,69b92b5744ee7a3fa29ded7e,0.0268,0.0268,0,126,126,46,1,fourtwo,,,,,,,,,,,,,,,,,,,,,,,,,,,,,,,,,,,,,,,,,,,,,,,,,,,,,,,,,,,,,,,,,,,,,,,,,,,,,,,,,,,,,,,,,,,,,,,,,,,,,,,,,,,,,,,,,,,,,,,,,,,,,,,,,,,,,,,,,
,,5f8639cd12e4d71876c9348e,2026-03-17_10h22.26.009,kallum_motion_pilot_GIST_update_2,2026.1.1,Win32,60.97560976,5f8639cd12e4d71876c9348e,69b92ab4aef6dee357cd729a,69b92b5744ee7a3fa29ded7e,0.027,0.027,0,127,127,115,1,sixeight,,,,,,,,,,,,,,,,,,,,,,,,,,,,,,,,,,,,,,,,,,,,,,,,,,,,,,,,,,,,,,,,,,,,,,,,,,,,,,,,,,,,,,,,,,,,,,,,,,,,,,,,,,,,,,,,,,,,,,,,,,,,,,,,,,,,,,,,,
,,5f8639cd12e4d71876c9348e,2026-03-17_10h22.26.009,kallum_motion_pilot_GIST_update_2,2026.1.1,Win32,60.97560976,5f8639cd12e4d71876c9348e,69b92ab4aef6dee357cd729a,69b92b5744ee7a3fa29ded7e,0.027,0.027,0,128,128,146,1,sixfive,,,,,,,,,,,,,,,,,,,,,,,,,,,,,,,,,,,,,,,,,,,,,,,,,,,,,,,,,,,,,,,,,,,,,,,,,,,,,,,,,,,,,,,,,,,,,,,,,,,,,,,,,,,,,,,,,,,,,,,,,,,,,,,,,,,,,,,,,
,,5f8639cd12e4d71876c9348e,2026-03-17_10h22.26.009,kallum_motion_pilot_GIST_update_2,2026.1.1,Win32,60.97560976,5f8639cd12e4d71876c9348e,69b92ab4aef6dee357cd729a,69b92b5744ee7a3fa29ded7e,0.0272,0.0272,0,129,129,18,1,twoone,,,,,,,,,,,,,,,,,,,,,,,,,,,,,,,,,,,,,,,,,,,,,,,,,,,,,,,,,,,,,,,,,,,,,,,,,,,,,,,,,,,,,,,,,,,,,,,,,,,,,,,,,,,,,,,,,,,,,,,,,,,,,,,,,,,,,,,,,
,,5f8639cd12e4d71876c9348e,2026-03-17_10h22.26.009,kallum_motion_pilot_GIST_update_2,2026.1.1,Win32,60.97560976,5f8639cd12e4d71876c9348e,69b92ab4aef6dee357cd729a,69b92b5744ee7a3fa29ded7e,0.0272,0.0273,0,130,130,150,1,eightsix,,,,,,,,,,,,,,,,,,,,,,,,,,,,,,,,,,,,,,,,,,,,,,,,,,,,,,,,,,,,,,,,,,,,,,,,,,,,,,,,,,,,,,,,,,,,,,,,,,,,,,,,,,,,,,,,,,,,,,,,,,,,,,,,,,,,,,,,,
,,5f8639cd12e4d71876c9348e,2026-03-17_10h22.26.009,kallum_motion_pilot_GIST_update_2,2026.1.1,Win32,60.97560976,5f8639cd12e4d71876c9348e,69b92ab4aef6dee357cd729a,69b92b5744ee7a3fa29ded7e,0.0273,0.0273,0,131,131,28,1,threeone,,,,,,,,,,,,,,,,,,,,,,,,,,,,,,,,,,,,,,,,,,,,,,,,,,,,,,,,,,,,,,,,,,,,,,,,,,,,,,,,,,,,,,,,,,,,,,,,,,,,,,,,,,,,,,,,,,,,,,,,,,,,,,,,,,,,,,,,,
,,5f8639cd12e4d71876c9348e,2026-03-17_10h22.26.009,kallum_motion_pilot_GIST_update_2,2026.1.1,Win32,60.97560976,5f8639cd12e4d71876c9348e,69b92ab4aef6dee357cd729a,69b92b5744ee7a3fa29ded7e,0.0274,0.0274,0,132,132,61,1,threefour,,,,,,,,,,,,,,,,,,,,,,,,,,,,,,,,,,,,,,,,,,,,,,,,,,,,,,,,,,,,,,,,,,,,,,,,,,,,,,,,,,,,,,,,,,,,,,,,,,,,,,,,,,,,,,,,,,,,,,,,,,,,,,,,,,,,,,,,,
,,5f8639cd12e4d71876c9348e,2026-03-17_10h22.26.009,kallum_motion_pilot_GIST_update_2,2026.1.1,Win32,60.97560976,5f8639cd12e4d71876c9348e,69b92ab4aef6dee357cd729a,69b92b5744ee7a3fa29ded7e,0.0275,0.0275,0,133,133,12,1,threeone,,,,,,,,,,,,,,,,,,,,,,,,,,,,,,,,,,,,,,,,,,,,,,,,,,,,,,,,,,,,,,,,,,,,,,,,,,,,,,,,,,,,,,,,,,,,,,,,,,,,,,,,,,,,,,,,,,,,,,,,,,,,,,,,,,,,,,,,,
,,5f8639cd12e4d71876c9348e,2026-03-17_10h22.26.009,kallum_motion_pilot_GIST_update_2,2026.1.1,Win32,60.97560976,5f8639cd12e4d71876c9348e,69b92ab4aef6dee357cd729a,69b92b5744ee7a3fa29ded7e,0.0276,0.0276,0,134,134,38,1,fourtwo,,,,,,,,,,,,,,,,,,,,,,,,,,,,,,,,,,,,,,,,,,,,,,,,,,,,,,,,,,,,,,,,,,,,,,,,,,,,,,,,,,,,,,,,,,,,,,,,,,,,,,,,,,,,,,,,,,,,,,,,,,,,,,,,,,,,,,,,,
,,5f8639cd12e4d71876c9348e,2026-03-17_10h22.26.009,kallum_motion_pilot_GIST_update_2,2026.1.1,Win32,60.97560976,5f8639cd12e4d71876c9348e,69b92ab4aef6dee357cd729a,69b92b5744ee7a3fa29ded7e,0.0276,0.0276,0,135,135,26,1,twoone,,,,,,,,,,,,,,,,,,,,,,,,,,,,,,,,,,,,,,,,,,,,,,,,,,,,,,,,,,,,,,,,,,,,,,,,,,,,,,,,,,,,,,,,,,,,,,,,,,,,,,,,,,,,,,,,,,,,,,,,,,,,,,,,,,,,,,,,,
,,5f8639cd12e4d71876c9348e,2026-03-17_10h22.26.009,kallum_motion_pilot_GIST_update_2,2026.1.1,Win32,60.97560976,5f8639cd12e4d71876c9348e,69b92ab4aef6dee357cd729a,69b92b5744ee7a3fa29ded7e,0.0277,0.0277,0,136,136,96,1,fivesix,,,,,,,,,,,,,,,,,,,,,,,,,,,,,,,,,,,,,,,,,,,,,,,,,,,,,,,,,,,,,,,,,,,,,,,,,,,,,,,,,,,,,,,,,,,,,,,,,,,,,,,,,,,,,,,,,,,,,,,,,,,,,,,,,,,,,,,,,
,,5f8639cd12e4d71876c9348e,2026-03-17_10h22.26.009,kallum_motion_pilot_GIST_update_2,2026.1.1,Win32,60.97560976,5f8639cd12e4d71876c9348e,69b92ab4aef6dee357cd729a,69b92b5744ee7a3fa29ded7e,0.0278,0.0278,0,137,137,88,1,fivesix,,,,,,,,,,,,,,,,,,,,,,,,,,,,,,,,,,,,,,,,,,,,,,,,,,,,,,,,,,,,,,,,,,,,,,,,,,,,,,,,,,,,,,,,,,,,,,,,,,,,,,,,,,,,,,,,,,,,,,,,,,,,,,,,,,,,,,,,,
,,5f8639cd12e4d71876c9348e,2026-03-17_10h22.26.009,kallum_motion_pilot_GIST_update_2,2026.1.1,Win32,60.97560976,5f8639cd12e4d71876c9348e,69b92ab4aef6dee357cd729a,69b92b5744ee7a3fa29ded7e,0.0279,0.0279,0,138,138,104,1,fivesix,,,,,,,,,,,,,,,,,,,,,,,,,,,,,,,,,,,,,,,,,,,,,,,,,,,,,,,,,,,,,,,,,,,,,,,,,,,,,,,,,,,,,,,,,,,,,,,,,,,,,,,,,,,,,,,,,,,,,,,,,,,,,,,,,,,,,,,,,
,,5f8639cd12e4d71876c9348e,2026-03-17_10h22.26.009,kallum_motion_pilot_GIST_update_2,2026.1.1,Win32,60.97560976,5f8639cd12e4d71876c9348e,69b92ab4aef6dee357cd729a,69b92b5744ee7a3fa29ded7e,0.0279,0.0279,0,139,139,94,1,eightsix,,,,,,,,,,,,,,,,,,,,,,,,,,,,,,,,,,,,,,,,,,,,,,,,,,,,,,,,,,,,,,,,,,,,,,,,,,,,,,,,,,,,,,,,,,,,,,,,,,,,,,,,,,,,,,,,,,,,,,,,,,,,,,,,,,,,,,,,,
,,5f8639cd12e4d71876c9348e,2026-03-17_10h22.26.009,kallum_motion_pilot_GIST_update_2,2026.1.1,Win32,60.97560976,5f8639cd12e4d71876c9348e,69b92ab4aef6dee357cd729a,69b92b5744ee7a3fa29ded7e,0.028,0.028,0,140,140,106,1,sixfive,,,,,,,,,,,,,,,,,,,,,,,,,,,,,,,,,,,,,,,,,,,,,,,,,,,,,,,,,,,,,,,,,,,,,,,,,,,,,,,,,,,,,,,,,,,,,,,,,,,,,,,,,,,,,,,,,,,,,,,,,,,,,,,,,,,,,,,,,
,,5f8639cd12e4d71876c9348e,2026-03-17_10h22.26.009,kallum_motion_pilot_GIST_update_2,2026.1.1,Win32,60.97560976,5f8639cd12e4d71876c9348e,69b92ab4aef6dee357cd729a,69b92b5744ee7a3fa29ded7e,0.0282,0.0282,0,141,141,148,1,sevenfive,,,,,,,,,,,,,,,,,,,,,,,,,,,,,,,,,,,,,,,,,,,,,,,,,,,,,,,,,,,,,,,,,,,,,,,,,,,,,,,,,,,,,,,,,,,,,,,,,,,,,,,,,,,,,,,,,,,,,,,,,,,,,,,,,,,,,,,,,
,,5f8639cd12e4d71876c9348e,2026-03-17_10h22.26.009,kallum_motion_pilot_GIST_update_2,2026.1.1,Win32,60.97560976,5f8639cd12e4d71876c9348e,69b92ab4aef6dee357cd729a,69b92b5744ee7a3fa29ded7e,0.0282,0.0282,0,142,142,80,1,fivesix,,,,,,,,,,,,,,,,,,,,,,,,,,,,,,,,,,,,,,,,,,,,,,,,,,,,,,,,,,,,,,,,,,,,,,,,,,,,,,,,,,,,,,,,,,,,,,,,,,,,,,,,,,,,,,,,,,,,,,,,,,,,,,,,,,,,,,,,,
,,5f8639cd12e4d71876c9348e,2026-03-17_10h22.26.009,kallum_motion_pilot_GIST_update_2,2026.1.1,Win32,60.97560976,5f8639cd12e4d71876c9348e,69b92ab4aef6dee357cd729a,69b92b5744ee7a3fa29ded7e,0.0283,0.0283,0,143,143,123,1,sixeight,,,,,,,,,,,,,,,,,,,,,,,,,,,,,,,,,,,,,,,,,,,,,,,,,,,,,,,,,,,,,,,,,,,,,,,,,,,,,,,,,,,,,,,,,,,,,,,,,,,,,,,,,,,,,,,,,,,,,,,,,,,,,,,,,,,,,,,,,
,,5f8639cd12e4d71876c9348e,2026-03-17_10h22.26.009,kallum_motion_pilot_GIST_update_2,2026.1.1,Win32,60.97560976,5f8639cd12e4d71876c9348e,69b92ab4aef6dee357cd729a,69b92b5744ee7a3fa29ded7e,0.0284,0.0284,0,144,144,128,1,fivesix,,,,,,,,,,,,,,,,,,,,,,,,,,,,,,,,,,,,,,,,,,,,,,,,,,,,,,,,,,,,,,,,,,,,,,,,,,,,,,,,,,,,,,,,,,,,,,,,,,,,,,,,,,,,,,,,,,,,,,,,,,,,,,,,,,,,,,,,,
,,5f8639cd12e4d71876c9348e,2026-03-17_10h22.26.009,kallum_motion_pilot_GIST_update_2,2026.1.1,Win32,60.97560976,5f8639cd12e4d71876c9348e,69b92ab4aef6dee357cd729a,69b92b5744ee7a3fa29ded7e,0.0285,0.0285,0,145,145,70,1,fourtwo,,,,,,,,,,,,,,,,,,,,,,,,,,,,,,,,,,,,,,,,,,,,,,,,,,,,,,,,,,,,,,,,,,,,,,,,,,,,,,,,,,,,,,,,,,,,,,,,,,,,,,,,,,,,,,,,,,,,,,,,,,,,,,,,,,,,,,,,,
,,5f8639cd12e4d71876c9348e,2026-03-17_10h22.26.009,kallum_motion_pilot_GIST_update_2,2026.1.1,Win32,60.97560976,5f8639cd12e4d71876c9348e,69b92ab4aef6dee357cd729a,69b92b5744ee7a3fa29ded7e,0.0287,0.0287,0,146,146,41,1,onethree,,,,,,,,,,,,,,,,,,,,,,,,,,,,,,,,,,,,,,,,,,,,,,,,,,,,,,,,,,,,,,,,,,,,,,,,,,,,,,,,,,,,,,,,,,,,,,,,,,,,,,,,,,,,,,,,,,,,,,,,,,,,,,,,,,,,,,,,,
,,5f8639cd12e4d71876c9348e,2026-03-17_10h22.26.009,kallum_motion_pilot_GIST_update_2,2026.1.1,Win32,60.97560976,5f8639cd12e4d71876c9348e,69b92ab4aef6dee357cd729a,69b92b5744ee7a3fa29ded7e,0.0289,0.029,0,147,147,8,1,onetwo,,,,,,,,,,,,,,,,,,,,,,,,,,,,,,,,,,,,,,,,,,,,,,,,,,,,,,,,,,,,,,,,,,,,,,,,,,,,,,,,,,,,,,,,,,,,,,,,,,,,,,,,,,,,,,,,,,,,,,,,,,,,,,,,,,,,,,,,,
,,5f8639cd12e4d71876c9348e,2026-03-17_10h22.26.009,kallum_motion_pilot_GIST_update_2,2026.1.1,Win32,60.97560976,5f8639cd12e4d71876c9348e,69b92ab4aef6dee357cd729a,69b92b5744ee7a3fa29ded7e,0.0292,0.0292,0,148,148,132,1,sevenfive,,,,,,,,,,,,,,,,,,,,,,,,,,,,,,,,,,,,,,,,,,,,,,,,,,,,,,,,,,,,,,,,,,,,,,,,,,,,,,,,,,,,,,,,,,,,,,,,,,,,,,,,,,,,,,,,,,,,,,,,,,,,,,,,,,,,,,,,,
,,5f8639cd12e4d71876c9348e,2026-03-17_10h22.26.009,kallum_motion_pilot_GIST_update_2,2026.1.1,Win32,60.97560976,5f8639cd12e4d71876c9348e,69b92ab4aef6dee357cd729a,69b92b5744ee7a3fa29ded7e,0.0293,0.0293,0,149,149,83,1,sixeight,,,,,,,,,,,,,,,,,,,,,,,,,,,,,,,,,,,,,,,,,,,,,,,,,,,,,,,,,,,,,,,,,,,,,,,,,,,,,,,,,,,,,,,,,,,,,,,,,,,,,,,,,,,,,,,,,,,,,,,,,,,,,,,,,,,,,,,,,
,,5f8639cd12e4d71876c9348e,2026-03-17_10h22.26.009,kallum_motion_pilot_GIST_update_2,2026.1.1,Win32,60.97560976,5f8639cd12e4d71876c9348e,69b92ab4aef6dee357cd729a,69b92b5744ee7a3fa29ded7e,0.0295,0.0295,0,150,150,1,1,onethree,,,,,,,,,,,,,,,,,,,,,,,,,,,,,,,,,,,,,,,,,,,,,,,,,,,,,,,,,,,,,,,,,,,,,,,,,,,,,,,,,,,,,,,,,,,,,,,,,,,,,,,,,,,,,,,,,,,,,,,,,,,,,,,,,,,,,,,,,
,,5f8639cd12e4d71876c9348e,2026-03-17_10h22.26.009,kallum_motion_pilot_GIST_update_2,2026.1.1,Win32,60.97560976,5f8639cd12e4d71876c9348e,69b92ab4aef6dee357cd729a,69b92b5744ee7a3fa29ded7e,0.0298,0.0298,0,151,151,113,1,fiveseven,,,,,,,,,,,,,,,,,,,,,,,,,,,,,,,,,,,,,,,,,,,,,,,,,,,,,,,,,,,,,,,,,,,,,,,,,,,,,,,,,,,,,,,,,,,,,,,,,,,,,,,,,,,,,,,,,,,,,,,,,,,,,,,,,,,,,,,,,
,,5f8639cd12e4d71876c9348e,2026-03-17_10h22.26.009,kallum_motion_pilot_GIST_update_2,2026.1.1,Win32,60.97560976,5f8639cd12e4d71876c9348e,69b92ab4aef6dee357cd729a,69b92b5744ee7a3fa29ded7e,0.0299,0.0299,0,152,152,34,1,twoone,,,,,,,,,,,,,,,,,,,,,,,,,,,,,,,,,,,,,,,,,,,,,,,,,,,,,,,,,,,,,,,,,,,,,,,,,,,,,,,,,,,,,,,,,,,,,,,,,,,,,,,,,,,,,,,,,,,,,,,,,,,,,,,,,,,,,,,,,
,,5f8639cd12e4d71876c9348e,2026-03-17_10h22.26.009,kallum_motion_pilot_GIST_update_2,2026.1.1,Win32,60.97560976,5f8639cd12e4d71876c9348e,69b92ab4aef6dee357cd729a,69b92b5744ee7a3fa29ded7e,0.0301,0.0301,0,153,153,82,1,sixfive,,,,,,,,,,,,,,,,,,,,,,,,,,,,,,,,,,,,,,,,,,,,,,,,,,,,,,,,,,,,,,,,,,,,,,,,,,,,,,,,,,,,,,,,,,,,,,,,,,,,,,,,,,,,,,,,,,,,,,,,,,,,,,,,,,,,,,,,,
,,5f8639cd12e4d71876c9348e,2026-03-17_10h22.26.009,kallum_motion_pilot_GIST_update_2,2026.1.1,Win32,60.97560976,5f8639cd12e4d71876c9348e,69b92ab4aef6dee357cd729a,69b92b5744ee7a3fa29ded7e,0.031,0.031,0,154,154,157,1,seveneight,,,,,,,,,,,,,,,,,,,,,,,,,,,,,,,,,,,,,,,,,,,,,,,,,,,,,,,,,,,,,,,,,,,,,,,,,,,,,,,,,,,,,,,,,,,,,,,,,,,,,,,,,,,,,,,,,,,,,,,,,,,,,,,,,,,,,,,,,
,,5f8639cd12e4d71876c9348e,2026-03-17_10h22.26.009,kallum_motion_pilot_GIST_update_2,2026.1.1,Win32,60.97560976,5f8639cd12e4d71876c9348e,69b92ab4aef6dee357cd729a,69b92b5744ee7a3fa29ded7e,0.0311,0.0311,0,155,155,39,1,fourthree,,,,,,,,,,,,,,,,,,,,,,,,,,,,,,,,,,,,,,,,,,,,,,,,,,,,,,,,,,,,,,,,,,,,,,,,,,,,,,,,,,,,,,,,,,,,,,,,,,,,,,,,,,,,,,,,,,,,,,,,,,,,,,,,,,,,,,,,,
,,5f8639cd12e4d71876c9348e,2026-03-17_10h22.26.009,kallum_motion_pilot_GIST_update_2,2026.1.1,Win32,60.97560976,5f8639cd12e4d71876c9348e,69b92ab4aef6dee357cd729a,69b92b5744ee7a3fa29ded7e,0.0312,0.0313,0,156,156,107,1,sixeight,,,,,,,,,,,,,,,,,,,,,,,,,,,,,,,,,,,,,,,,,,,,,,,,,,,,,,,,,,,,,,,,,,,,,,,,,,,,,,,,,,,,,,,,,,,,,,,,,,,,,,,,,,,,,,,,,,,,,,,,,,,,,,,,,,,,,,,,,
,,5f8639cd12e4d71876c9348e,2026-03-17_10h22.26.009,kallum_motion_pilot_GIST_update_2,2026.1.1,Win32,60.97560976,5f8639cd12e4d71876c9348e,69b92ab4aef6dee357cd729a,69b92b5744ee7a3fa29ded7e,0.0313,0.0313,0,157,157,144,1,fivesix,,,,,,,,,,,,,,,,,,,,,,,,,,,,,,,,,,,,,,,,,,,,,,,,,,,,,,,,,,,,,,,,,,,,,,,,,,,,,,,,,,,,,,,,,,,,,,,,,,,,,,,,,,,,,,,,,,,,,,,,,,,,,,,,,,,,,,,,,
,,5f8639cd12e4d71876c9348e,2026-03-17_10h22.26.009,kallum_motion_pilot_GIST_update_2,2026.1.1,Win32,60.97560976,5f8639cd12e4d71876c9348e,69b92ab4aef6dee357cd729a,69b92b5744ee7a3fa29ded7e,0.0315,0.0315,0,158,158,54,1,fourtwo,,,,,,,,,,,,,,,,,,,,,,,,,,,,,,,,,,,,,,,,,,,,,,,,,,,,,,,,,,,,,,,,,,,,,,,,,,,,,,,,,,,,,,,,,,,,,,,,,,,,,,,,,,,,,,,,,,,,,,,,,,,,,,,,,,,,,,,,,
,,5f8639cd12e4d71876c9348e,2026-03-17_10h22.26.009,kallum_motion_pilot_GIST_update_2,2026.1.1,Win32,60.97560976,5f8639cd12e4d71876c9348e,69b92ab4aef6dee357cd729a,69b92b5744ee7a3fa29ded7e,0.0315,0.0315,0,159,159,49,1,onethree,,,,,,,,,,,,,,,,,,,,,,,,,,,,,,,,,,,,,,,,,,,,,,,,,,,,,,,,,,,,,,,,,,,,,,,,,,,,,,,,,,,,,,,,,,,,,,,,,,,,,,,,,,,,,,,,,,,,,,,,,,,,,,,,,,,,,,,,,
,,5f8639cd12e4d71876c9348e,2026-03-17_10h22.26.009,kallum_motion_pilot_GIST_update_2,2026.1.1,Win32,60.97560976,5f8639cd12e4d71876c9348e,69b92ab4aef6dee357cd729a,69b92b5744ee7a3fa29ded7e,0.0316,0.0316,0,160,160,149,1,seveneight,,,,,,,,,,,,,,,,,,,,,,,,,,,,,,,,,,,,,,,,,,,,,,,,,,,,,,,,,,,,,,,,,,,,,,,,,,,,,,,,,,,,,,,,,,,,,,,,,,,,,,,,,,,,,,,,,,,,,,,,,,,,,,,,,,,,,,,,,
,,5f8639cd12e4d71876c9348e,2026-03-17_10h22.26.009,kallum_motion_pilot_GIST_update_2,2026.1.1,Win32,60.97560976,5f8639cd12e4d71876c9348e,69b92ab4aef6dee357cd729a,69b92b5744ee7a3fa29ded7e,0.0317,0.0317,0,161,161,78,1,fourtwo,,,,,,,,,,,,,,,,,,,,,,,,,,,,,,,,,,,,,,,,,,,,,,,,,,,,,,,,,,,,,,,,,,,,,,,,,,,,,,,,,,,,,,,,,,,,,,,,,,,,,,,,,,,,,,,,,,,,,,,,,,,,,,,,,,,,,,,,,
,,5f8639cd12e4d71876c9348e,2026-03-17_10h22.26.009,kallum_motion_pilot_GIST_update_2,2026.1.1,Win32,60.97560976,5f8639cd12e4d71876c9348e,69b92ab4aef6dee357cd729a,69b92b5744ee7a3fa29ded7e,0.0319,0.0319,1,0,162,57,1,onethree,,,,,,,,,,,,,,,,,,,,,,,,,,,,,,,,,,,,,,,,,,,,,,,,,,,,,,,,,,,,,,,,,,,,,,,,,,,,,,,,,,,,,,,,,,,,,,,,,,,,,,,,,,,,,,,,,,,,,,,,,,,,,,,,,,,,,,,,,
,,5f8639cd12e4d71876c9348e,2026-03-17_10h22.26.009,kallum_motion_pilot_GIST_update_2,2026.1.1,Win32,60.97560976,5f8639cd12e4d71876c9348e,69b92ab4aef6dee357cd729a,69b92b5744ee7a3fa29ded7e,0.032,0.032,1,1,163,69,1,threefour,,,,,,,,,,,,,,,,,,,,,,,,,,,,,,,,,,,,,,,,,,,,,,,,,,,,,,,,,,,,,,,,,,,,,,,,,,,,,,,,,,,,,,,,,,,,,,,,,,,,,,,,,,,,,,,,,,,,,,,,,,,,,,,,,,,,,,,,,
,,5f8639cd12e4d71876c9348e,2026-03-17_10h22.26.009,kallum_motion_pilot_GIST_update_2,2026.1.1,Win32,60.97560976,5f8639cd12e4d71876c9348e,69b92ab4aef6dee357cd729a,69b92b5744ee7a3fa29ded7e,0.0321,0.0321,1,2,164,44,1,threeone,,,,,,,,,,,,,,,,,,,,,,,,,,,,,,,,,,,,,,,,,,,,,,,,,,,,,,,,,,,,,,,,,,,,,,,,,,,,,,,,,,,,,,,,,,,,,,,,,,,,,,,,,,,,,,,,,,,,,,,,,,,,,,,,,,,,,,,,,
,,5f8639cd12e4d71876c9348e,2026-03-17_10h22.26.009,kallum_motion_pilot_GIST_update_2,2026.1.1,Win32,60.97560976,5f8639cd12e4d71876c9348e,69b92ab4aef6dee357cd729a,69b92b5744ee7a3fa29ded7e,0.0323,0.0323,1,3,165,7,1,fourthree,,,,,,,,,,,,,,,,,,,,,,,,,,,,,,,,,,,,,,,,,,,,,,,,,,,,,,,,,,,,,,,,,,,,,,,,,,,,,,,,,,,,,,,,,,,,,,,,,,,,,,,,,,,,,,,,,,,,,,,,,,,,,,,,,,,,,,,,,
,,5f8639cd12e4d71876c9348e,2026-03-17_10h22.26.009,kallum_motion_pilot_GIST_update_2,2026.1.1,Win32,60.97560976,5f8639cd12e4d71876c9348e,69b92ab4aef6dee357cd729a,69b92b5744ee7a3fa29ded7e,0.0323,0.0323,1,4,166,93,1,seveneight,,,,,,,,,,,,,,,,,,,,,,,,,,,,,,,,,,,,,,,,,,,,,,,,,,,,,,,,,,,,,,,,,,,,,,,,,,,,,,,,,,,,,,,,,,,,,,,,,,,,,,,,,,,,,,,,,,,,,,,,,,,,,,,,,,,,,,,,,
,,5f8639cd12e4d71876c9348e,2026-03-17_10h22.26.009,kallum_motion_pilot_GIST_update_2,2026.1.1,Win32,60.97560976,5f8639cd12e4d71876c9348e,69b92ab4aef6dee357cd729a,69b92b5744ee7a3fa29ded7e,0.0324,0.0324,1,5,167,141,1,seveneight,,,,,,,,,,,,,,,,,,,,,,,,,,,,,,,,,,,,,,,,,,,,,,,,,,,,,,,,,,,,,,,,,,,,,,,,,,,,,,,,,,,,,,,,,,,,,,,,,,,,,,,,,,,,,,,,,,,,,,,,,,,,,,,,,,,,,,,,,
,,5f8639cd12e4d71876c9348e,2026-03-17_10h22.26.009,kallum_motion_pilot_GIST_update_2,2026.1.1,Win32,60.97560976,5f8639cd12e4d71876c9348e,69b92ab4aef6dee357cd729a,69b92b5744ee7a3fa29ded7e,0.0325,0.0325,1,6,168,130,1,sixfive,,,,,,,,,,,,,,,,,,,,,,,,,,,,,,,,,,,,,,,,,,,,,,,,,,,,,,,,,,,,,,,,,,,,,,,,,,,,,,,,,,,,,,,,,,,,,,,,,,,,,,,,,,,,,,,,,,,,,,,,,,,,,,,,,,,,,,,,,
,,5f8639cd12e4d71876c9348e,2026-03-17_10h22.26.009,kallum_motion_pilot_GIST_update_2,2026.1.1,Win32,60.97560976,5f8639cd12e4d71876c9348e,69b92ab4aef6dee357cd729a,69b92b5744ee7a3fa29ded7e,0.0326,0.0326,1,7,169,39,1,fourthree,,,,,,,,,,,,,,,,,,,,,,,,,,,,,,,,,,,,,,,,,,,,,,,,,,,,,,,,,,,,,,,,,,,,,,,,,,,,,,,,,,,,,,,,,,,,,,,,,,,,,,,,,,,,,,,,,,,,,,,,,,,,,,,,,,,,,,,,,
,,5f8639cd12e4d71876c9348e,2026-03-17_10h22.26.009,kallum_motion_pilot_GIST_update_2,2026.1.1,Win32,60.97560976,5f8639cd12e4d71876c9348e,69b92ab4aef6dee357cd729a,69b92b5744ee7a3fa29ded7e,0.0327,0.0327,1,8,170,96,1,fivesix,,,,,,,,,,,,,,,,,,,,,,,,,,,,,,,,,,,,,,,,,,,,,,,,,,,,,,,,,,,,,,,,,,,,,,,,,,,,,,,,,,,,,,,,,,,,,,,,,,,,,,,,,,,,,,,,,,,,,,,,,,,,,,,,,,,,,,,,,
,,5f8639cd12e4d71876c9348e,2026-03-17_10h22.26.009,kallum_motion_pilot_GIST_update_2,2026.1.1,Win32,60.97560976,5f8639cd12e4d71876c9348e,69b92ab4aef6dee357cd729a,69b92b5744ee7a3fa29ded7e,0.0327,0.0328,1,9,171,159,1,eightseven,,,,,,,,,,,,,,,,,,,,,,,,,,,,,,,,,,,,,,,,,,,,,,,,,,,,,,,,,,,,,,,,,,,,,,,,,,,,,,,,,,,,,,,,,,,,,,,,,,,,,,,,,,,,,,,,,,,,,,,,,,,,,,,,,,,,,,,,,
,,5f8639cd12e4d71876c9348e,2026-03-17_10h22.26.009,kallum_motion_pilot_GIST_update_2,2026.1.1,Win32,60.97560976,5f8639cd12e4d71876c9348e,69b92ab4aef6dee357cd729a,69b92b5744ee7a3fa29ded7e,0.0329,0.0329,1,10,172,53,1,threefour,,,,,,,,,,,,,,,,,,,,,,,,,,,,,,,,,,,,,,,,,,,,,,,,,,,,,,,,,,,,,,,,,,,,,,,,,,,,,,,,,,,,,,,,,,,,,,,,,,,,,,,,,,,,,,,,,,,,,,,,,,,,,,,,,,,,,,,,,
,,5f8639cd12e4d71876c9348e,2026-03-17_10h22.26.009,kallum_motion_pilot_GIST_update_2,2026.1.1,Win32,60.97560976,5f8639cd12e4d71876c9348e,69b92ab4aef6dee357cd729a,69b92b5744ee7a3fa29ded7e,0.0329,0.0329,1,11,173,77,1,threefour,,,,,,,,,,,,,,,,,,,,,,,,,,,,,,,,,,,,,,,,,,,,,,,,,,,,,,,,,,,,,,,,,,,,,,,,,,,,,,,,,,,,,,,,,,,,,,,,,,,,,,,,,,,,,,,,,,,,,,,,,,,,,,,,,,,,,,,,,
,,5f8639cd12e4d71876c9348e,2026-03-17_10h22.26.009,kallum_motion_pilot_GIST_update_2,2026.1.1,Win32,60.97560976,5f8639cd12e4d71876c9348e,69b92ab4aef6dee357cd729a,69b92b5744ee7a3fa29ded7e,0.033,0.033,1,12,174,40,1,onetwo,,,,,,,,,,,,,,,,,,,,,,,,,,,,,,,,,,,,,,,,,,,,,,,,,,,,,,,,,,,,,,,,,,,,,,,,,,,,,,,,,,,,,,,,,,,,,,,,,,,,,,,,,,,,,,,,,,,,,,,,,,,,,,,,,,,,,,,,,
,,5f8639cd12e4d71876c9348e,2026-03-17_10h22.26.009,kallum_motion_pilot_GIST_update_2,2026.1.1,Win32,60.97560976,5f8639cd12e4d71876c9348e,69b92ab4aef6dee357cd729a,69b92b5744ee7a3fa29ded7e,0.0332,0.0332,1,13,175,122,1,sixfive,,,,,,,,,,,,,,,,,,,,,,,,,,,,,,,,,,,,,,,,,,,,,,,,,,,,,,,,,,,,,,,,,,,,,,,,,,,,,,,,,,,,,,,,,,,,,,,,,,,,,,,,,,,,,,,,,,,,,,,,,,,,,,,,,,,,,,,,,
,,5f8639cd12e4d71876c9348e,2026-03-17_10h22.26.009,kallum_motion_pilot_GIST_update_2,2026.1.1,Win32,60.97560976,5f8639cd12e4d71876c9348e,69b92ab4aef6dee357cd729a,69b92b5744ee7a3fa29ded7e,0.0333,0.0333,1,14,176,106,1,sixfive,,,,,,,,,,,,,,,,,,,,,,,,,,,,,,,,,,,,,,,,,,,,,,,,,,,,,,,,,,,,,,,,,,,,,,,,,,,,,,,,,,,,,,,,,,,,,,,,,,,,,,,,,,,,,,,,,,,,,,,,,,,,,,,,,,,,,,,,,
,,5f8639cd12e4d71876c9348e,2026-03-17_10h22.26.009,kallum_motion_pilot_GIST_update_2,2026.1.1,Win32,60.97560976,5f8639cd12e4d71876c9348e,69b92ab4aef6dee357cd729a,69b92b5744ee7a3fa29ded7e,0.0334,0.0334,1,15,177,48,1,onetwo,,,,,,,,,,,,,,,,,,,,,,,,,,,,,,,,,,,,,,,,,,,,,,,,,,,,,,,,,,,,,,,,,,,,,,,,,,,,,,,,,,,,,,,,,,,,,,,,,,,,,,,,,,,,,,,,,,,,,,,,,,,,,,,,,,,,,,,,,
,,5f8639cd12e4d71876c9348e,2026-03-17_10h22.26.009,kallum_motion_pilot_GIST_update_2,2026.1.1,Win32,60.97560976,5f8639cd12e4d71876c9348e,69b92ab4aef6dee357cd729a,69b92b5744ee7a3fa29ded7e,0.0334,0.0334,1,16,178,2,1,twoone,,,,,,,,,,,,,,,,,,,,,,,,,,,,,,,,,,,,,,,,,,,,,,,,,,,,,,,,,,,,,,,,,,,,,,,,,,,,,,,,,,,,,,,,,,,,,,,,,,,,,,,,,,,,,,,,,,,,,,,,,,,,,,,,,,,,,,,,,
,,5f8639cd12e4d71876c9348e,2026-03-17_10h22.26.009,kallum_motion_pilot_GIST_update_2,2026.1.1,Win32,60.97560976,5f8639cd12e4d71876c9348e,69b92ab4aef6dee357cd729a,69b92b5744ee7a3fa29ded7e,0.0336,0.0336,1,17,179,43,1,twofour,,,,,,,,,,,,,,,,,,,,,,,,,,,,,,,,,,,,,,,,,,,,,,,,,,,,,,,,,,,,,,,,,,,,,,,,,,,,,,,,,,,,,,,,,,,,,,,,,,,,,,,,,,,,,,,,,,,,,,,,,,,,,,,,,,,,,,,,,
,,5f8639cd12e4d71876c9348e,2026-03-17_10h22.26.009,kallum_motion_pilot_GIST_update_2,2026.1.1,Win32,60.97560976,5f8639cd12e4d71876c9348e,69b92ab4aef6dee357cd729a,69b92b5744ee7a3fa29ded7e,0.0336,0.0336,1,18,180,87,1,eightseven,,,,,,,,,,,,,,,,,,,,,,,,,,,,,,,,,,,,,,,,,,,,,,,,,,,,,,,,,,,,,,,,,,,,,,,,,,,,,,,,,,,,,,,,,,,,,,,,,,,,,,,,,,,,,,,,,,,,,,,,,,,,,,,,,,,,,,,,,
,,5f8639cd12e4d71876c9348e,2026-03-17_10h22.26.009,kallum_motion_pilot_GIST_update_2,2026.1.1,Win32,60.97560976,5f8639cd12e4d71876c9348e,69b92ab4aef6dee357cd729a,69b92b5744ee7a3fa29ded7e,0.0338,0.0338,1,19,181,10,1,twoone,,,,,,,,,,,,,,,,,,,,,,,,,,,,,,,,,,,,,,,,,,,,,,,,,,,,,,,,,,,,,,,,,,,,,,,,,,,,,,,,,,,,,,,,,,,,,,,,,,,,,,,,,,,,,,,,,,,,,,,,,,,,,,,,,,,,,,,,,
,,5f8639cd12e4d71876c9348e,2026-03-17_10h22.26.009,kallum_motion_pilot_GIST_update_2,2026.1.1,Win32,60.97560976,5f8639cd12e4d71876c9348e,69b92ab4aef6dee357cd729a,69b92b5744ee7a3fa29ded7e,0.0339,0.0339,1,20,182,4,1,threeone,,,,,,,,,,,,,,,,,,,,,,,,,,,,,,,,,,,,,,,,,,,,,,,,,,,,,,,,,,,,,,,,,,,,,,,,,,,,,,,,,,,,,,,,,,,,,,,,,,,,,,,,,,,,,,,,,,,,,,,,,,,,,,,,,,,,,,,,,
,,5f8639cd12e4d71876c9348e,2026-03-17_10h22.26.009,kallum_motion_pilot_GIST_update_2,2026.1.1,Win32,60.97560976,5f8639cd12e4d71876c9348e,69b92ab4aef6dee357cd729a,69b92b5744ee7a3fa29ded7e,0.0339,0.0339,1,21,183,89,1,fiveseven,,,,,,,,,,,,,,,,,,,,,,,,,,,,,,,,,,,,,,,,,,,,,,,,,,,,,,,,,,,,,,,,,,,,,,,,,,,,,,,,,,,,,,,,,,,,,,,,,,,,,,,,,,,,,,,,,,,,,,,,,,,,,,,,,,,,,,,,,
,,5f8639cd12e4d71876c9348e,2026-03-17_10h22.26.009,kallum_motion_pilot_GIST_update_2,2026.1.1,Win32,60.97560976,5f8639cd12e4d71876c9348e,69b92ab4aef6dee357cd729a,69b92b5744ee7a3fa29ded7e,0.034,0.034,1,22,184,147,1,sixeight,,,,,,,,,,,,,,,,,,,,,,,,,,,,,,,,,,,,,,,,,,,,,,,,,,,,,,,,,,,,,,,,,,,,,,,,,,,,,,,,,,,,,,,,,,,,,,,,,,,,,,,,,,,,,,,,,,,,,,,,,,,,,,,,,,,,,,,,,
,,5f8639cd12e4d71876c9348e,2026-03-17_10h22.26.009,kallum_motion_pilot_GIST_update_2,2026.1.1,Win32,60.97560976,5f8639cd12e4d71876c9348e,69b92ab4aef6dee357cd729a,69b92b5744ee7a3fa29ded7e,0.0341,0.0342,1,23,185,19,1,twofour,,,,,,,,,,,,,,,,,,,,,,,,,,,,,,,,,,,,,,,,,,,,,,,,,,,,,,,,,,,,,,,,,,,,,,,,,,,,,,,,,,,,,,,,,,,,,,,,,,,,,,,,,,,,,,,,,,,,,,,,,,,,,,,,,,,,,,,,,
,,5f8639cd12e4d71876c9348e,2026-03-17_10h22.26.009,kallum_motion_pilot_GIST_update_2,2026.1.1,Win32,60.97560976,5f8639cd12e4d71876c9348e,69b92ab4aef6dee357cd729a,69b92b5744ee7a3fa29ded7e,0.0342,0.0342,1,24,186,65,1,onethree,,,,,,,,,,,,,,,,,,,,,,,,,,,,,,,,,,,,,,,,,,,,,,,,,,,,,,,,,,,,,,,,,,,,,,,,,,,,,,,,,,,,,,,,,,,,,,,,,,,,,,,,,,,,,,,,,,,,,,,,,,,,,,,,,,,,,,,,,
,,5f8639cd12e4d71876c9348e,2026-03-17_10h22.26.009,kallum_motion_pilot_GIST_update_2,2026.1.1,Win32,60.97560976,5f8639cd12e4d71876c9348e,69b92ab4aef6dee357cd729a,69b92b5744ee7a3fa29ded7e,0.0343,0.0343,1,25,187,17,1,onethree,,,,,,,,,,,,,,,,,,,,,,,,,,,,,,,,,,,,,,,,,,,,,,,,,,,,,,,,,,,,,,,,,,,,,,,,,,,,,,,,,,,,,,,,,,,,,,,,,,,,,,,,,,,,,,,,,,,,,,,,,,,,,,,,,,,,,,,,,
,,5f8639cd12e4d71876c9348e,2026-03-17_10h22.26.009,kallum_motion_pilot_GIST_update_2,2026.1.1,Win32,60.97560976,5f8639cd12e4d71876c9348e,69b92ab4aef6dee357cd729a,69b92b5744ee7a3fa29ded7e,0.0344,0.0344,1,26,188,66,1,twoone,,,,,,,,,,,,,,,,,,,,,,,,,,,,,,,,,,,,,,,,,,,,,,,,,,,,,,,,,,,,,,,,,,,,,,,,,,,,,,,,,,,,,,,,,,,,,,,,,,,,,,,,,,,,,,,,,,,,,,,,,,,,,,,,,,,,,,,,,
,,5f8639cd12e4d71876c9348e,2026-03-17_10h22.26.009,kallum_motion_pilot_GIST_update_2,2026.1.1,Win32,60.97560976,5f8639cd12e4d71876c9348e,69b92ab4aef6dee357cd729a,69b92b5744ee7a3fa29ded7e,0.0345,0.0345,1,27,189,49,1,onethree,,,,,,,,,,,,,,,,,,,,,,,,,,,,,,,,,,,,,,,,,,,,,,,,,,,,,,,,,,,,,,,,,,,,,,,,,,,,,,,,,,,,,,,,,,,,,,,,,,,,,,,,,,,,,,,,,,,,,,,,,,,,,,,,,,,,,,,,,
,,5f8639cd12e4d71876c9348e,2026-03-17_10h22.26.009,kallum_motion_pilot_GIST_update_2,2026.1.1,Win32,60.97560976,5f8639cd12e4d71876c9348e,69b92ab4aef6dee357cd729a,69b92b5744ee7a3fa29ded7e,0.0346,0.0346,1,28,190,125,1,seveneight,,,,,,,,,,,,,,,,,,,,,,,,,,,,,,,,,,,,,,,,,,,,,,,,,,,,,,,,,,,,,,,,,,,,,,,,,,,,,,,,,,,,,,,,,,,,,,,,,,,,,,,,,,,,,,,,,,,,,,,,,,,,,,,,,,,,,,,,,
,,5f8639cd12e4d71876c9348e,2026-03-17_10h22.26.009,kallum_motion_pilot_GIST_update_2,2026.1.1,Win32,60.97560976,5f8639cd12e4d71876c9348e,69b92ab4aef6dee357cd729a,69b92b5744ee7a3fa29ded7e,0.0347,0.0347,1,29,191,51,1,twofour,,,,,,,,,,,,,,,,,,,,,,,,,,,,,,,,,,,,,,,,,,,,,,,,,,,,,,,,,,,,,,,,,,,,,,,,,,,,,,,,,,,,,,,,,,,,,,,,,,,,,,,,,,,,,,,,,,,,,,,,,,,,,,,,,,,,,,,,,
,,5f8639cd12e4d71876c9348e,2026-03-17_10h22.26.009,kallum_motion_pilot_GIST_update_2,2026.1.1,Win32,60.97560976,5f8639cd12e4d71876c9348e,69b92ab4aef6dee357cd729a,69b92b5744ee7a3fa29ded7e,0.0348,0.0348,1,30,192,79,1,eightseven,,,,,,,,,,,,,,,,,,,,,,,,,,,,,,,,,,,,,,,,,,,,,,,,,,,,,,,,,,,,,,,,,,,,,,,,,,,,,,,,,,,,,,,,,,,,,,,,,,,,,,,,,,,,,,,,,,,,,,,,,,,,,,,,,,,,,,,,,
,,5f8639cd12e4d71876c9348e,2026-03-17_10h22.26.009,kallum_motion_pilot_GIST_update_2,2026.1.1,Win32,60.97560976,5f8639cd12e4d71876c9348e,69b92ab4aef6dee357cd729a,69b92b5744ee7a3fa29ded7e,0.0349,0.0349,1,31,193,157,1,seveneight,,,,,,,,,,,,,,,,,,,,,,,,,,,,,,,,,,,,,,,,,,,,,,,,,,,,,,,,,,,,,,,,,,,,,,,,,,,,,,,,,,,,,,,,,,,,,,,,,,,,,,,,,,,,,,,,,,,,,,,,,,,,,,,,,,,,,,,,,
,,5f8639cd12e4d71876c9348e,2026-03-17_10h22.26.009,kallum_motion_pilot_GIST_update_2,2026.1.1,Win32,60.97560976,5f8639cd12e4d71876c9348e,69b92ab4aef6dee357cd729a,69b92b5744ee7a3fa29ded7e,0.035,0.035,1,32,194,145,1,fiveseven,,,,,,,,,,,,,,,,,,,,,,,,,,,,,,,,,,,,,,,,,,,,,,,,,,,,,,,,,,,,,,,,,,,,,,,,,,,,,,,,,,,,,,,,,,,,,,,,,,,,,,,,,,,,,,,,,,,,,,,,,,,,,,,,,,,,,,,,,
,,5f8639cd12e4d71876c9348e,2026-03-17_10h22.26.009,kallum_motion_pilot_GIST_update_2,2026.1.1,Win32,60.97560976,5f8639cd12e4d71876c9348e,69b92ab4aef6dee357cd729a,69b92b5744ee7a3fa29ded7e,0.0351,0.0351,1,33,195,123,1,sixeight,,,,,,,,,,,,,,,,,,,,,,,,,,,,,,,,,,,,,,,,,,,,,,,,,,,,,,,,,,,,,,,,,,,,,,,,,,,,,,,,,,,,,,,,,,,,,,,,,,,,,,,,,,,,,,,,,,,,,,,,,,,,,,,,,,,,,,,,,
,,5f8639cd12e4d71876c9348e,2026-03-17_10h22.26.009,kallum_motion_pilot_GIST_update_2,2026.1.1,Win32,60.97560976,5f8639cd12e4d71876c9348e,69b92ab4aef6dee357cd729a,69b92b5744ee7a3fa29ded7e,0.0352,0.0352,1,34,196,84,1,sevenfive,,,,,,,,,,,,,,,,,,,,,,,,,,,,,,,,,,,,,,,,,,,,,,,,,,,,,,,,,,,,,,,,,,,,,,,,,,,,,,,,,,,,,,,,,,,,,,,,,,,,,,,,,,,,,,,,,,,,,,,,,,,,,,,,,,,,,,,,,
,,5f8639cd12e4d71876c9348e,2026-03-17_10h22.26.009,kallum_motion_pilot_GIST_update_2,2026.1.1,Win32,60.97560976,5f8639cd12e4d71876c9348e,69b92ab4aef6dee357cd729a,69b92b5744ee7a3fa29ded7e,0.0353,0.0353,1,35,197,119,1,eightseven,,,,,,,,,,,,,,,,,,,,,,,,,,,,,,,,,,,,,,,,,,,,,,,,,,,,,,,,,,,,,,,,,,,,,,,,,,,,,,,,,,,,,,,,,,,,,,,,,,,,,,,,,,,,,,,,,,,,,,,,,,,,,,,,,,,,,,,,,
,,5f8639cd12e4d71876c9348e,2026-03-17_10h22.26.009,kallum_motion_pilot_GIST_update_2,2026.1.1,Win32,60.97560976,5f8639cd12e4d71876c9348e,69b92ab4aef6dee357cd729a,69b92b5744ee7a3fa29ded7e,0.0354,0.0354,1,36,198,117,1,seveneight,,,,,,,,,,,,,,,,,,,,,,,,,,,,,,,,,,,,,,,,,,,,,,,,,,,,,,,,,,,,,,,,,,,,,,,,,,,,,,,,,,,,,,,,,,,,,,,,,,,,,,,,,,,,,,,,,,,,,,,,,,,,,,,,,,,,,,,,,
,,5f8639cd12e4d71876c9348e,2026-03-17_10h22.26.009,kallum_motion_pilot_GIST_update_2,2026.1.1,Win32,60.97560976,5f8639cd12e4d71876c9348e,69b92ab4aef6dee357cd729a,69b92b5744ee7a3fa29ded7e,0.0355,0.0355,1,37,199,88,1,fivesix,,,,,,,,,,,,,,,,,,,,,,,,,,,,,,,,,,,,,,,,,,,,,,,,,,,,,,,,,,,,,,,,,,,,,,,,,,,,,,,,,,,,,,,,,,,,,,,,,,,,,,,,,,,,,,,,,,,,,,,,,,,,,,,,,,,,,,,,,
,,5f8639cd12e4d71876c9348e,2026-03-17_10h22.26.009,kallum_motion_pilot_GIST_update_2,2026.1.1,Win32,60.97560976,5f8639cd12e4d71876c9348e,69b92ab4aef6dee357cd729a,69b92b5744ee7a3fa29ded7e,0.0356,0.0356,1,38,200,139,1,sixeight,,,,,,,,,,,,,,,,,,,,,,,,,,,,,,,,,,,,,,,,,,,,,,,,,,,,,,,,,,,,,,,,,,,,,,,,,,,,,,,,,,,,,,,,,,,,,,,,,,,,,,,,,,,,,,,,,,,,,,,,,,,,,,,,,,,,,,,,,
,,5f8639cd12e4d71876c9348e,2026-03-17_10h22.26.009,kallum_motion_pilot_GIST_update_2,2026.1.1,Win32,60.97560976,5f8639cd12e4d71876c9348e,69b92ab4aef6dee357cd729a,69b92b5744ee7a3fa29ded7e,0.0358,0.0358,1,39,201,144,1,fivesix,,,,,,,,,,,,,,,,,,,,,,,,,,,,,,,,,,,,,,,,,,,,,,,,,,,,,,,,,,,,,,,,,,,,,,,,,,,,,,,,,,,,,,,,,,,,,,,,,,,,,,,,,,,,,,,,,,,,,,,,,,,,,,,,,,,,,,,,,
,,5f8639cd12e4d71876c9348e,2026-03-17_10h22.26.009,kallum_motion_pilot_GIST_update_2,2026.1.1,Win32,60.97560976,5f8639cd12e4d71876c9348e,69b92ab4aef6dee357cd729a,69b92b5744ee7a3fa29ded7e,0.0358,0.0358,1,40,202,94,1,eightsix,,,,,,,,,,,,,,,,,,,,,,,,,,,,,,,,,,,,,,,,,,,,,,,,,,,,,,,,,,,,,,,,,,,,,,,,,,,,,,,,,,,,,,,,,,,,,,,,,,,,,,,,,,,,,,,,,,,,,,,,,,,,,,,,,,,,,,,,,
,,5f8639cd12e4d71876c9348e,2026-03-17_10h22.26.009,kallum_motion_pilot_GIST_update_2,2026.1.1,Win32,60.97560976,5f8639cd12e4d71876c9348e,69b92ab4aef6dee357cd729a,69b92b5744ee7a3fa29ded7e,0.0359,0.0359,1,41,203,1,1,onethree,,,,,,,,,,,,,,,,,,,,,,,,,,,,,,,,,,,,,,,,,,,,,,,,,,,,,,,,,,,,,,,,,,,,,,,,,,,,,,,,,,,,,,,,,,,,,,,,,,,,,,,,,,,,,,,,,,,,,,,,,,,,,,,,,,,,,,,,,
,,5f8639cd12e4d71876c9348e,2026-03-17_10h22.26.009,kallum_motion_pilot_GIST_update_2,2026.1.1,Win32,60.97560976,5f8639cd12e4d71876c9348e,69b92ab4aef6dee357cd729a,69b92b5744ee7a3fa29ded7e,0.036,0.036,1,42,204,46,1,fourtwo,,,,,,,,,,,,,,,,,,,,,,,,,,,,,,,,,,,,,,,,,,,,,,,,,,,,,,,,,,,,,,,,,,,,,,,,,,,,,,,,,,,,,,,,,,,,,,,,,,,,,,,,,,,,,,,,,,,,,,,,,,,,,,,,,,,,,,,,,
,,5f8639cd12e4d71876c9348e,2026-03-17_10h22.26.009,kallum_motion_pilot_GIST_update_2,2026.1.1,Win32,60.97560976,5f8639cd12e4d71876c9348e,69b92ab4aef6dee357cd729a,69b92b5744ee7a3fa29ded7e,0.0361,0.0361,1,43,205,143,1,eightseven,,,,,,,,,,,,,,,,,,,,,,,,,,,,,,,,,,,,,,,,,,,,,,,,,,,,,,,,,,,,,,,,,,,,,,,,,,,,,,,,,,,,,,,,,,,,,,,,,,,,,,,,,,,,,,,,,,,,,,,,,,,,,,,,,,,,,,,,,
,,5f8639cd12e4d71876c9348e,2026-03-17_10h22.26.009,kallum_motion_pilot_GIST_update_2,2026.1.1,Win32,60.97560976,5f8639cd12e4d71876c9348e,69b92ab4aef6dee357cd729a,69b92b5744ee7a3fa29ded7e,0.0362,0.0362,1,44,206,158,1,eightsix,,,,,,,,,,,,,,,,,,,,,,,,,,,,,,,,,,,,,,,,,,,,,,,,,,,,,,,,,,,,,,,,,,,,,,,,,,,,,,,,,,,,,,,,,,,,,,,,,,,,,,,,,,,,,,,,,,,,,,,,,,,,,,,,,,,,,,,,,
,,5f8639cd12e4d71876c9348e,2026-03-17_10h22.26.009,kallum_motion_pilot_GIST_update_2,2026.1.1,Win32,60.97560976,5f8639cd12e4d71876c9348e,69b92ab4aef6dee357cd729a,69b92b5744ee7a3fa29ded7e,0.0363,0.0363,1,45,207,34,1,twoone,,,,,,,,,,,,,,,,,,,,,,,,,,,,,,,,,,,,,,,,,,,,,,,,,,,,,,,,,,,,,,,,,,,,,,,,,,,,,,,,,,,,,,,,,,,,,,,,,,,,,,,,,,,,,,,,,,,,,,,,,,,,,,,,,,,,,,,,,
,,5f8639cd12e4d71876c9348e,2026-03-17_10h22.26.009,kallum_motion_pilot_GIST_update_2,2026.1.1,Win32,60.97560976,5f8639cd12e4d71876c9348e,69b92ab4aef6dee357cd729a,69b92b5744ee7a3fa29ded7e,0.0364,0.0364,1,46,208,31,1,fourthree,,,,,,,,,,,,,,,,,,,,,,,,,,,,,,,,,,,,,,,,,,,,,,,,,,,,,,,,,,,,,,,,,,,,,,,,,,,,,,,,,,,,,,,,,,,,,,,,,,,,,,,,,,,,,,,,,,,,,,,,,,,,,,,,,,,,,,,,,
,,5f8639cd12e4d71876c9348e,2026-03-17_10h22.26.009,kallum_motion_pilot_GIST_update_2,2026.1.1,Win32,60.97560976,5f8639cd12e4d71876c9348e,69b92ab4aef6dee357cd729a,69b92b5744ee7a3fa29ded7e,0.0365,0.0365,1,47,209,99,1,sixeight,,,,,,,,,,,,,,,,,,,,,,,,,,,,,,,,,,,,,,,,,,,,,,,,,,,,,,,,,,,,,,,,,,,,,,,,,,,,,,,,,,,,,,,,,,,,,,,,,,,,,,,,,,,,,,,,,,,,,,,,,,,,,,,,,,,,,,,,,
,,5f8639cd12e4d71876c9348e,2026-03-17_10h22.26.009,kallum_motion_pilot_GIST_update_2,2026.1.1,Win32,60.97560976,5f8639cd12e4d71876c9348e,69b92ab4aef6dee357cd729a,69b92b5744ee7a3fa29ded7e,0.0366,0.0366,1,48,210,67,1,twofour,,,,,,,,,,,,,,,,,,,,,,,,,,,,,,,,,,,,,,,,,,,,,,,,,,,,,,,,,,,,,,,,,,,,,,,,,,,,,,,,,,,,,,,,,,,,,,,,,,,,,,,,,,,,,,,,,,,,,,,,,,,,,,,,,,,,,,,,,
,,5f8639cd12e4d71876c9348e,2026-03-17_10h22.26.009,kallum_motion_pilot_GIST_update_2,2026.1.1,Win32,60.97560976,5f8639cd12e4d71876c9348e,69b92ab4aef6dee357cd729a,69b92b5744ee7a3fa29ded7e,0.0367,0.0367,1,49,211,133,1,seveneight,,,,,,,,,,,,,,,,,,,,,,,,,,,,,,,,,,,,,,,,,,,,,,,,,,,,,,,,,,,,,,,,,,,,,,,,,,,,,,,,,,,,,,,,,,,,,,,,,,,,,,,,,,,,,,,,,,,,,,,,,,,,,,,,,,,,,,,,,
,,5f8639cd12e4d71876c9348e,2026-03-17_10h22.26.009,kallum_motion_pilot_GIST_update_2,2026.1.1,Win32,60.97560976,5f8639cd12e4d71876c9348e,69b92ab4aef6dee357cd729a,69b92b5744ee7a3fa29ded7e,0.0368,0.0368,1,50,212,68,1,threeone,,,,,,,,,,,,,,,,,,,,,,,,,,,,,,,,,,,,,,,,,,,,,,,,,,,,,,,,,,,,,,,,,,,,,,,,,,,,,,,,,,,,,,,,,,,,,,,,,,,,,,,,,,,,,,,,,,,,,,,,,,,,,,,,,,,,,,,,,
,,5f8639cd12e4d71876c9348e,2026-03-17_10h22.26.009,kallum_motion_pilot_GIST_update_2,2026.1.1,Win32,60.97560976,5f8639cd12e4d71876c9348e,69b92ab4aef6dee357cd729a,69b92b5744ee7a3fa29ded7e,0.0369,0.0369,1,51,213,76,1,threeone,,,,,,,,,,,,,,,,,,,,,,,,,,,,,,,,,,,,,,,,,,,,,,,,,,,,,,,,,,,,,,,,,,,,,,,,,,,,,,,,,,,,,,,,,,,,,,,,,,,,,,,,,,,,,,,,,,,,,,,,,,,,,,,,,,,,,,,,,
,,5f8639cd12e4d71876c9348e,2026-03-17_10h22.26.009,kallum_motion_pilot_GIST_update_2,2026.1.1,Win32,60.97560976,5f8639cd12e4d71876c9348e,69b92ab4aef6dee357cd729a,69b92b5744ee7a3fa29ded7e,0.037,0.037,1,52,214,61,1,threefour,,,,,,,,,,,,,,,,,,,,,,,,,,,,,,,,,,,,,,,,,,,,,,,,,,,,,,,,,,,,,,,,,,,,,,,,,,,,,,,,,,,,,,,,,,,,,,,,,,,,,,,,,,,,,,,,,,,,,,,,,,,,,,,,,,,,,,,,,
,,5f8639cd12e4d71876c9348e,2026-03-17_10h22.26.009,kallum_motion_pilot_GIST_update_2,2026.1.1,Win32,60.97560976,5f8639cd12e4d71876c9348e,69b92ab4aef6dee357cd729a,69b92b5744ee7a3fa29ded7e,0.037,0.037,1,53,215,153,1,fiveseven,,,,,,,,,,,,,,,,,,,,,,,,,,,,,,,,,,,,,,,,,,,,,,,,,,,,,,,,,,,,,,,,,,,,,,,,,,,,,,,,,,,,,,,,,,,,,,,,,,,,,,,,,,,,,,,,,,,,,,,,,,,,,,,,,,,,,,,,,
,,5f8639cd12e4d71876c9348e,2026-03-17_10h22.26.009,kallum_motion_pilot_GIST_update_2,2026.1.1,Win32,60.97560976,5f8639cd12e4d71876c9348e,69b92ab4aef6dee357cd729a,69b92b5744ee7a3fa29ded7e,0.0371,0.0371,1,54,216,98,1,sixfive,,,,,,,,,,,,,,,,,,,,,,,,,,,,,,,,,,,,,,,,,,,,,,,,,,,,,,,,,,,,,,,,,,,,,,,,,,,,,,,,,,,,,,,,,,,,,,,,,,,,,,,,,,,,,,,,,,,,,,,,,,,,,,,,,,,,,,,,,
,,5f8639cd12e4d71876c9348e,2026-03-17_10h22.26.009,kallum_motion_pilot_GIST_update_2,2026.1.1,Win32,60.97560976,5f8639cd12e4d71876c9348e,69b92ab4aef6dee357cd729a,69b92b5744ee7a3fa29ded7e,0.0373,0.0373,1,55,217,105,1,fiveseven,,,,,,,,,,,,,,,,,,,,,,,,,,,,,,,,,,,,,,,,,,,,,,,,,,,,,,,,,,,,,,,,,,,,,,,,,,,,,,,,,,,,,,,,,,,,,,,,,,,,,,,,,,,,,,,,,,,,,,,,,,,,,,,,,,,,,,,,,
,,5f8639cd12e4d71876c9348e,2026-03-17_10h22.26.009,kallum_motion_pilot_GIST_update_2,2026.1.1,Win32,60.97560976,5f8639cd12e4d71876c9348e,69b92ab4aef6dee357cd729a,69b92b5744ee7a3fa29ded7e,0.0374,0.0374,1,56,218,78,1,fourtwo,,,,,,,,,,,,,,,,,,,,,,,,,,,,,,,,,,,,,,,,,,,,,,,,,,,,,,,,,,,,,,,,,,,,,,,,,,,,,,,,,,,,,,,,,,,,,,,,,,,,,,,,,,,,,,,,,,,,,,,,,,,,,,,,,,,,,,,,,
,,5f8639cd12e4d71876c9348e,2026-03-17_10h22.26.009,kallum_motion_pilot_GIST_update_2,2026.1.1,Win32,60.97560976,5f8639cd12e4d71876c9348e,69b92ab4aef6dee357cd729a,69b92b5744ee7a3fa29ded7e,0.0375,0.0375,1,57,219,128,1,fivesix,,,,,,,,,,,,,,,,,,,,,,,,,,,,,,,,,,,,,,,,,,,,,,,,,,,,,,,,,,,,,,,,,,,,,,,,,,,,,,,,,,,,,,,,,,,,,,,,,,,,,,,,,,,,,,,,,,,,,,,,,,,,,,,,,,,,,,,,,
,,5f8639cd12e4d71876c9348e,2026-03-17_10h22.26.009,kallum_motion_pilot_GIST_update_2,2026.1.1,Win32,60.97560976,5f8639cd12e4d71876c9348e,69b92ab4aef6dee357cd729a,69b92b5744ee7a3fa29ded7e,0.0376,0.0376,1,58,220,102,1,eightsix,,,,,,,,,,,,,,,,,,,,,,,,,,,,,,,,,,,,,,,,,,,,,,,,,,,,,,,,,,,,,,,,,,,,,,,,,,,,,,,,,,,,,,,,,,,,,,,,,,,,,,,,,,,,,,,,,,,,,,,,,,,,,,,,,,,,,,,,,
,,5f8639cd12e4d71876c9348e,2026-03-17_10h22.26.009,kallum_motion_pilot_GIST_update_2,2026.1.1,Win32,60.97560976,5f8639cd12e4d71876c9348e,69b92ab4aef6dee357cd729a,69b92b5744ee7a3fa29ded7e,0.0376,0.0376,1,59,221,151,1,eightseven,,,,,,,,,,,,,,,,,,,,,,,,,,,,,,,,,,,,,,,,,,,,,,,,,,,,,,,,,,,,,,,,,,,,,,,,,,,,,,,,,,,,,,,,,,,,,,,,,,,,,,,,,,,,,,,,,,,,,,,,,,,,,,,,,,,,,,,,,
,,5f8639cd12e4d71876c9348e,2026-03-17_10h22.26.009,kallum_motion_pilot_GIST_update_2,2026.1.1,Win32,60.97560976,5f8639cd12e4d71876c9348e,69b92ab4aef6dee357cd729a,69b92b5744ee7a3fa29ded7e,0.0377,0.0377,1,60,222,71,1,fourthree,,,,,,,,,,,,,,,,,,,,,,,,,,,,,,,,,,,,,,,,,,,,,,,,,,,,,,,,,,,,,,,,,,,,,,,,,,,,,,,,,,,,,,,,,,,,,,,,,,,,,,,,,,,,,,,,,,,,,,,,,,,,,,,,,,,,,,,,,
,,5f8639cd12e4d71876c9348e,2026-03-17_10h22.26.009,kallum_motion_pilot_GIST_update_2,2026.1.1,Win32,60.97560976,5f8639cd12e4d71876c9348e,69b92ab4aef6dee357cd729a,69b92b5744ee7a3fa29ded7e,0.0378,0.0378,1,61,223,56,1,onetwo,,,,,,,,,,,,,,,,,,,,,,,,,,,,,,,,,,,,,,,,,,,,,,,,,,,,,,,,,,,,,,,,,,,,,,,,,,,,,,,,,,,,,,,,,,,,,,,,,,,,,,,,,,,,,,,,,,,,,,,,,,,,,,,,,,,,,,,,,
,,5f8639cd12e4d71876c9348e,2026-03-17_10h22.26.009,kallum_motion_pilot_GIST_update_2,2026.1.1,Win32,60.97560976,5f8639cd12e4d71876c9348e,69b92ab4aef6dee357cd729a,69b92b5744ee7a3fa29ded7e,0.0379,0.0379,1,62,224,45,1,threefour,,,,,,,,,,,,,,,,,,,,,,,,,,,,,,,,,,,,,,,,,,,,,,,,,,,,,,,,,,,,,,,,,,,,,,,,,,,,,,,,,,,,,,,,,,,,,,,,,,,,,,,,,,,,,,,,,,,,,,,,,,,,,,,,,,,,,,,,,
,,5f8639cd12e4d71876c9348e,2026-03-17_10h22.26.009,kallum_motion_pilot_GIST_update_2,2026.1.1,Win32,60.97560976,5f8639cd12e4d71876c9348e,69b92ab4aef6dee357cd729a,69b92b5744ee7a3fa29ded7e,0.038,0.038,1,63,225,30,1,fourtwo,,,,,,,,,,,,,,,,,,,,,,,,,,,,,,,,,,,,,,,,,,,,,,,,,,,,,,,,,,,,,,,,,,,,,,,,,,,,,,,,,,,,,,,,,,,,,,,,,,,,,,,,,,,,,,,,,,,,,,,,,,,,,,,,,,,,,,,,,
,,5f8639cd12e4d71876c9348e,2026-03-17_10h22.26.009,kallum_motion_pilot_GIST_update_2,2026.1.1,Win32,60.97560976,5f8639cd12e4d71876c9348e,69b92ab4aef6dee357cd729a,69b92b5744ee7a3fa29ded7e,0.0382,0.0382,1,64,226,140,1,sevenfive,,,,,,,,,,,,,,,,,,,,,,,,,,,,,,,,,,,,,,,,,,,,,,,,,,,,,,,,,,,,,,,,,,,,,,,,,,,,,,,,,,,,,,,,,,,,,,,,,,,,,,,,,,,,,,,,,,,,,,,,,,,,,,,,,,,,,,,,,
,,5f8639cd12e4d71876c9348e,2026-03-17_10h22.26.009,kallum_motion_pilot_GIST_update_2,2026.1.1,Win32,60.97560976,5f8639cd12e4d71876c9348e,69b92ab4aef6dee357cd729a,69b92b5744ee7a3fa29ded7e,0.0383,0.0383,1,65,227,62,1,fourtwo,,,,,,,,,,,,,,,,,,,,,,,,,,,,,,,,,,,,,,,,,,,,,,,,,,,,,,,,,,,,,,,,,,,,,,,,,,,,,,,,,,,,,,,,,,,,,,,,,,,,,,,,,,,,,,,,,,,,,,,,,,,,,,,,,,,,,,,,,
,,5f8639cd12e4d71876c9348e,2026-03-17_10h22.26.009,kallum_motion_pilot_GIST_update_2,2026.1.1,Win32,60.97560976,5f8639cd12e4d71876c9348e,69b92ab4aef6dee357cd729a,69b92b5744ee7a3fa29ded7e,0.0383,0.0383,1,66,228,29,1,threefour,,,,,,,,,,,,,,,,,,,,,,,,,,,,,,,,,,,,,,,,,,,,,,,,,,,,,,,,,,,,,,,,,,,,,,,,,,,,,,,,,,,,,,,,,,,,,,,,,,,,,,,,,,,,,,,,,,,,,,,,,,,,,,,,,,,,,,,,,
,,5f8639cd12e4d71876c9348e,2026-03-17_10h22.26.009,kallum_motion_pilot_GIST_update_2,2026.1.1,Win32,60.97560976,5f8639cd12e4d71876c9348e,69b92ab4aef6dee357cd729a,69b92b5744ee7a3fa29ded7e,0.0384,0.0384,1,67,229,101,1,seveneight,,,,,,,,,,,,,,,,,,,,,,,,,,,,,,,,,,,,,,,,,,,,,,,,,,,,,,,,,,,,,,,,,,,,,,,,,,,,,,,,,,,,,,,,,,,,,,,,,,,,,,,,,,,,,,,,,,,,,,,,,,,,,,,,,,,,,,,,,
,,5f8639cd12e4d71876c9348e,2026-03-17_10h22.26.009,kallum_motion_pilot_GIST_update_2,2026.1.1,Win32,60.97560976,5f8639cd12e4d71876c9348e,69b92ab4aef6dee357cd729a,69b92b5744ee7a3fa29ded7e,0.0386,0.0386,1,68,230,24,1,onetwo,,,,,,,,,,,,,,,,,,,,,,,,,,,,,,,,,,,,,,,,,,,,,,,,,,,,,,,,,,,,,,,,,,,,,,,,,,,,,,,,,,,,,,,,,,,,,,,,,,,,,,,,,,,,,,,,,,,,,,,,,,,,,,,,,,,,,,,,,
,,5f8639cd12e4d71876c9348e,2026-03-17_10h22.26.009,kallum_motion_pilot_GIST_update_2,2026.1.1,Win32,60.97560976,5f8639cd12e4d71876c9348e,69b92ab4aef6dee357cd729a,69b92b5744ee7a3fa29ded7e,0.0387,0.0387,1,69,231,120,1,fivesix,,,,,,,,,,,,,,,,,,,,,,,,,,,,,,,,,,,,,,,,,,,,,,,,,,,,,,,,,,,,,,,,,,,,,,,,,,,,,,,,,,,,,,,,,,,,,,,,,,,,,,,,,,,,,,,,,,,,,,,,,,,,,,,,,,,,,,,,,
,,5f8639cd12e4d71876c9348e,2026-03-17_10h22.26.009,kallum_motion_pilot_GIST_update_2,2026.1.1,Win32,60.97560976,5f8639cd12e4d71876c9348e,69b92ab4aef6dee357cd729a,69b92b5744ee7a3fa29ded7e,0.0387,0.0387,1,70,232,131,1,sixeight,,,,,,,,,,,,,,,,,,,,,,,,,,,,,,,,,,,,,,,,,,,,,,,,,,,,,,,,,,,,,,,,,,,,,,,,,,,,,,,,,,,,,,,,,,,,,,,,,,,,,,,,,,,,,,,,,,,,,,,,,,,,,,,,,,,,,,,,,
,,5f8639cd12e4d71876c9348e,2026-03-17_10h22.26.009,kallum_motion_pilot_GIST_update_2,2026.1.1,Win32,60.97560976,5f8639cd12e4d71876c9348e,69b92ab4aef6dee357cd729a,69b92b5744ee7a3fa29ded7e,0.0388,0.0388,1,71,233,114,1,sixfive,,,,,,,,,,,,,,,,,,,,,,,,,,,,,,,,,,,,,,,,,,,,,,,,,,,,,,,,,,,,,,,,,,,,,,,,,,,,,,,,,,,,,,,,,,,,,,,,,,,,,,,,,,,,,,,,,,,,,,,,,,,,,,,,,,,,,,,,,
,,5f8639cd12e4d71876c9348e,2026-03-17_10h22.26.009,kallum_motion_pilot_GIST_update_2,2026.1.1,Win32,60.97560976,5f8639cd12e4d71876c9348e,69b92ab4aef6dee357cd729a,69b92b5744ee7a3fa29ded7e,0.039,0.039,1,72,234,83,1,sixeight,,,,,,,,,,,,,,,,,,,,,,,,,,,,,,,,,,,,,,,,,,,,,,,,,,,,,,,,,,,,,,,,,,,,,,,,,,,,,,,,,,,,,,,,,,,,,,,,,,,,,,,,,,,,,,,,,,,,,,,,,,,,,,,,,,,,,,,,,
,,5f8639cd12e4d71876c9348e,2026-03-17_10h22.26.009,kallum_motion_pilot_GIST_update_2,2026.1.1,Win32,60.97560976,5f8639cd12e4d71876c9348e,69b92ab4aef6dee357cd729a,69b92b5744ee7a3fa29ded7e,0.039,0.039,1,73,235,103,1,eightseven,,,,,,,,,,,,,,,,,,,,,,,,,,,,,,,,,,,,,,,,,,,,,,,,,,,,,,,,,,,,,,,,,,,,,,,,,,,,,,,,,,,,,,,,,,,,,,,,,,,,,,,,,,,,,,,,,,,,,,,,,,,,,,,,,,,,,,,,,
,,5f8639cd12e4d71876c9348e,2026-03-17_10h22.26.009,kallum_motion_pilot_GIST_update_2,2026.1.1,Win32,60.97560976,5f8639cd12e4d71876c9348e,69b92ab4aef6dee357cd729a,69b92b5744ee7a3fa29ded7e,0.0391,0.0391,1,74,236,109,1,seveneight,,,,,,,,,,,,,,,,,,,,,,,,,,,,,,,,,,,,,,,,,,,,,,,,,,,,,,,,,,,,,,,,,,,,,,,,,,,,,,,,,,,,,,,,,,,,,,,,,,,,,,,,,,,,,,,,,,,,,,,,,,,,,,,,,,,,,,,,,
,,5f8639cd12e4d71876c9348e,2026-03-17_10h22.26.009,kallum_motion_pilot_GIST_update_2,2026.1.1,Win32,60.97560976,5f8639cd12e4d71876c9348e,69b92ab4aef6dee357cd729a,69b92b5744ee7a3fa29ded7e,0.0393,0.0393,1,75,237,21,1,threefour,,,,,,,,,,,,,,,,,,,,,,,,,,,,,,,,,,,,,,,,,,,,,,,,,,,,,,,,,,,,,,,,,,,,,,,,,,,,,,,,,,,,,,,,,,,,,,,,,,,,,,,,,,,,,,,,,,,,,,,,,,,,,,,,,,,,,,,,,
,,5f8639cd12e4d71876c9348e,2026-03-17_10h22.26.009,kallum_motion_pilot_GIST_update_2,2026.1.1,Win32,60.97560976,5f8639cd12e4d71876c9348e,69b92ab4aef6dee357cd729a,69b92b5744ee7a3fa29ded7e,0.0394,0.0394,1,76,238,23,1,fourthree,,,,,,,,,,,,,,,,,,,,,,,,,,,,,,,,,,,,,,,,,,,,,,,,,,,,,,,,,,,,,,,,,,,,,,,,,,,,,,,,,,,,,,,,,,,,,,,,,,,,,,,,,,,,,,,,,,,,,,,,,,,,,,,,,,,,,,,,,
,,5f8639cd12e4d71876c9348e,2026-03-17_10h22.26.009,kallum_motion_pilot_GIST_update_2,2026.1.1,Win32,60.97560976,5f8639cd12e4d71876c9348e,69b92ab4aef6dee357cd729a,69b92b5744ee7a3fa29ded7e,0.0395,0.0396,1,77,239,47,1,fourthree,,,,,,,,,,,,,,,,,,,,,,,,,,,,,,,,,,,,,,,,,,,,,,,,,,,,,,,,,,,,,,,,,,,,,,,,,,,,,,,,,,,,,,,,,,,,,,,,,,,,,,,,,,,,,,,,,,,,,,,,,,,,,,,,,,,,,,,,,
,,5f8639cd12e4d71876c9348e,2026-03-17_10h22.26.009,kallum_motion_pilot_GIST_update_2,2026.1.1,Win32,60.97560976,5f8639cd12e4d71876c9348e,69b92ab4aef6dee357cd729a,69b92b5744ee7a3fa29ded7e,0.0397,0.0397,1,78,240,137,1,fiveseven,,,,,,,,,,,,,,,,,,,,,,,,,,,,,,,,,,,,,,,,,,,,,,,,,,,,,,,,,,,,,,,,,,,,,,,,,,,,,,,,,,,,,,,,,,,,,,,,,,,,,,,,,,,,,,,,,,,,,,,,,,,,,,,,,,,,,,,,,
,,5f8639cd12e4d71876c9348e,2026-03-17_10h22.26.009,kallum_motion_pilot_GIST_update_2,2026.1.1,Win32,60.97560976,5f8639cd12e4d71876c9348e,69b92ab4aef6dee357cd729a,69b92b5744ee7a3fa29ded7e,0.0397,0.0397,1,79,241,60,1,threeone,,,,,,,,,,,,,,,,,,,,,,,,,,,,,,,,,,,,,,,,,,,,,,,,,,,,,,,,,,,,,,,,,,,,,,,,,,,,,,,,,,,,,,,,,,,,,,,,,,,,,,,,,,,,,,,,,,,,,,,,,,,,,,,,,,,,,,,,,
,,5f8639cd12e4d71876c9348e,2026-03-17_10h22.26.009,kallum_motion_pilot_GIST_update_2,2026.1.1,Win32,60.97560976,5f8639cd12e4d71876c9348e,69b92ab4aef6dee357cd729a,69b92b5744ee7a3fa29ded7e,0.0398,0.0398,1,80,242,92,1,sevenfive,,,,,,,,,,,,,,,,,,,,,,,,,,,,,,,,,,,,,,,,,,,,,,,,,,,,,,,,,,,,,,,,,,,,,,,,,,,,,,,,,,,,,,,,,,,,,,,,,,,,,,,,,,,,,,,,,,,,,,,,,,,,,,,,,,,,,,,,,
,,5f8639cd12e4d71876c9348e,2026-03-17_10h22.26.009,kallum_motion_pilot_GIST_update_2,2026.1.1,Win32,60.97560976,5f8639cd12e4d71876c9348e,69b92ab4aef6dee357cd729a,69b92b5744ee7a3fa29ded7e,0.04,0.04,1,81,243,73,1,onethree,,,,,,,,,,,,,,,,,,,,,,,,,,,,,,,,,,,,,,,,,,,,,,,,,,,,,,,,,,,,,,,,,,,,,,,,,,,,,,,,,,,,,,,,,,,,,,,,,,,,,,,,,,,,,,,,,,,,,,,,,,,,,,,,,,,,,,,,,
,,5f8639cd12e4d71876c9348e,2026-03-17_10h22.26.009,kallum_motion_pilot_GIST_update_2,2026.1.1,Win32,60.97560976,5f8639cd12e4d71876c9348e,69b92ab4aef6dee357cd729a,69b92b5744ee7a3fa29ded7e,0.0401,0.0401,1,82,244,70,1,fourtwo,,,,,,,,,,,,,,,,,,,,,,,,,,,,,,,,,,,,,,,,,,,,,,,,,,,,,,,,,,,,,,,,,,,,,,,,,,,,,,,,,,,,,,,,,,,,,,,,,,,,,,,,,,,,,,,,,,,,,,,,,,,,,,,,,,,,,,,,,
,,5f8639cd12e4d71876c9348e,2026-03-17_10h22.26.009,kallum_motion_pilot_GIST_update_2,2026.1.1,Win32,60.97560976,5f8639cd12e4d71876c9348e,69b92ab4aef6dee357cd729a,69b92b5744ee7a3fa29ded7e,0.0401,0.0401,1,83,245,127,1,eightseven,,,,,,,,,,,,,,,,,,,,,,,,,,,,,,,,,,,,,,,,,,,,,,,,,,,,,,,,,,,,,,,,,,,,,,,,,,,,,,,,,,,,,,,,,,,,,,,,,,,,,,,,,,,,,,,,,,,,,,,,,,,,,,,,,,,,,,,,,
,,5f8639cd12e4d71876c9348e,2026-03-17_10h22.26.009,kallum_motion_pilot_GIST_update_2,2026.1.1,Win32,60.97560976,5f8639cd12e4d71876c9348e,69b92ab4aef6dee357cd729a,69b92b5744ee7a3fa29ded7e,0.0403,0.0403,1,84,246,63,1,fourthree,,,,,,,,,,,,,,,,,,,,,,,,,,,,,,,,,,,,,,,,,,,,,,,,,,,,,,,,,,,,,,,,,,,,,,,,,,,,,,,,,,,,,,,,,,,,,,,,,,,,,,,,,,,,,,,,,,,,,,,,,,,,,,,,,,,,,,,,,
,,5f8639cd12e4d71876c9348e,2026-03-17_10h22.26.009,kallum_motion_pilot_GIST_update_2,2026.1.1,Win32,60.97560976,5f8639cd12e4d71876c9348e,69b92ab4aef6dee357cd729a,69b92b5744ee7a3fa29ded7e,0.0404,0.0404,1,85,247,104,1,fivesix,,,,,,,,,,,,,,,,,,,,,,,,,,,,,,,,,,,,,,,,,,,,,,,,,,,,,,,,,,,,,,,,,,,,,,,,,,,,,,,,,,,,,,,,,,,,,,,,,,,,,,,,,,,,,,,,,,,,,,,,,,,,,,,,,,,,,,,,,
,,5f8639cd12e4d71876c9348e,2026-03-17_10h22.26.009,kallum_motion_pilot_GIST_update_2,2026.1.1,Win32,60.97560976,5f8639cd12e4d71876c9348e,69b92ab4aef6dee357cd729a,69b92b5744ee7a3fa29ded7e,0.0404,0.0404,1,86,248,72,1,onetwo,,,,,,,,,,,,,,,,,,,,,,,,,,,,,,,,,,,,,,,,,,,,,,,,,,,,,,,,,,,,,,,,,,,,,,,,,,,,,,,,,,,,,,,,,,,,,,,,,,,,,,,,,,,,,,,,,,,,,,,,,,,,,,,,,,,,,,,,,
,,5f8639cd12e4d71876c9348e,2026-03-17_10h22.26.009,kallum_motion_pilot_GIST_update_2,2026.1.1,Win32,60.97560976,5f8639cd12e4d71876c9348e,69b92ab4aef6dee357cd729a,69b92b5744ee7a3fa29ded7e,0.0405,0.0405,1,87,249,100,1,sevenfive,,,,,,,,,,,,,,,,,,,,,,,,,,,,,,,,,,,,,,,,,,,,,,,,,,,,,,,,,,,,,,,,,,,,,,,,,,,,,,,,,,,,,,,,,,,,,,,,,,,,,,,,,,,,,,,,,,,,,,,,,,,,,,,,,,,,,,,,,
,,5f8639cd12e4d71876c9348e,2026-03-17_10h22.26.009,kallum_motion_pilot_GIST_update_2,2026.1.1,Win32,60.97560976,5f8639cd12e4d71876c9348e,69b92ab4aef6dee357cd729a,69b92b5744ee7a3fa29ded7e,0.0407,0.0407,1,88,250,37,1,threefour,,,,,,,,,,,,,,,,,,,,,,,,,,,,,,,,,,,,,,,,,,,,,,,,,,,,,,,,,,,,,,,,,,,,,,,,,,,,,,,,,,,,,,,,,,,,,,,,,,,,,,,,,,,,,,,,,,,,,,,,,,,,,,,,,,,,,,,,,
,,5f8639cd12e4d71876c9348e,2026-03-17_10h22.26.009,kallum_motion_pilot_GIST_update_2,2026.1.1,Win32,60.97560976,5f8639cd12e4d71876c9348e,69b92ab4aef6dee357cd729a,69b92b5744ee7a3fa29ded7e,0.0407,0.0407,1,89,251,3,1,twofour,,,,,,,,,,,,,,,,,,,,,,,,,,,,,,,,,,,,,,,,,,,,,,,,,,,,,,,,,,,,,,,,,,,,,,,,,,,,,,,,,,,,,,,,,,,,,,,,,,,,,,,,,,,,,,,,,,,,,,,,,,,,,,,,,,,,,,,,,
,,5f8639cd12e4d71876c9348e,2026-03-17_10h22.26.009,kallum_motion_pilot_GIST_update_2,2026.1.1,Win32,60.97560976,5f8639cd12e4d71876c9348e,69b92ab4aef6dee357cd729a,69b92b5744ee7a3fa29ded7e,0.0409,0.0409,1,90,252,42,1,twoone,,,,,,,,,,,,,,,,,,,,,,,,,,,,,,,,,,,,,,,,,,,,,,,,,,,,,,,,,,,,,,,,,,,,,,,,,,,,,,,,,,,,,,,,,,,,,,,,,,,,,,,,,,,,,,,,,,,,,,,,,,,,,,,,,,,,,,,,,
,,5f8639cd12e4d71876c9348e,2026-03-17_10h22.26.009,kallum_motion_pilot_GIST_update_2,2026.1.1,Win32,60.97560976,5f8639cd12e4d71876c9348e,69b92ab4aef6dee357cd729a,69b92b5744ee7a3fa29ded7e,0.0409,0.041,1,91,253,132,1,sevenfive,,,,,,,,,,,,,,,,,,,,,,,,,,,,,,,,,,,,,,,,,,,,,,,,,,,,,,,,,,,,,,,,,,,,,,,,,,,,,,,,,,,,,,,,,,,,,,,,,,,,,,,,,,,,,,,,,,,,,,,,,,,,,,,,,,,,,,,,,
,,5f8639cd12e4d71876c9348e,2026-03-17_10h22.26.009,kallum_motion_pilot_GIST_update_2,2026.1.1,Win32,60.97560976,5f8639cd12e4d71876c9348e,69b92ab4aef6dee357cd729a,69b92b5744ee7a3fa29ded7e,0.0411,0.0411,1,92,254,124,1,sevenfive,,,,,,,,,,,,,,,,,,,,,,,,,,,,,,,,,,,,,,,,,,,,,,,,,,,,,,,,,,,,,,,,,,,,,,,,,,,,,,,,,,,,,,,,,,,,,,,,,,,,,,,,,,,,,,,,,,,,,,,,,,,,,,,,,,,,,,,,,
,,5f8639cd12e4d71876c9348e,2026-03-17_10h22.26.009,kallum_motion_pilot_GIST_update_2,2026.1.1,Win32,60.97560976,5f8639cd12e4d71876c9348e,69b92ab4aef6dee357cd729a,69b92b5744ee7a3fa29ded7e,0.0412,0.0412,1,93,255,52,1,threeone,,,,,,,,,,,,,,,,,,,,,,,,,,,,,,,,,,,,,,,,,,,,,,,,,,,,,,,,,,,,,,,,,,,,,,,,,,,,,,,,,,,,,,,,,,,,,,,,,,,,,,,,,,,,,,,,,,,,,,,,,,,,,,,,,,,,,,,,,
,,5f8639cd12e4d71876c9348e,2026-03-17_10h22.26.009,kallum_motion_pilot_GIST_update_2,2026.1.1,Win32,60.97560976,5f8639cd12e4d71876c9348e,69b92ab4aef6dee357cd729a,69b92b5744ee7a3fa29ded7e,0.0414,0.0414,1,94,256,126,1,eightsix,,,,,,,,,,,,,,,,,,,,,,,,,,,,,,,,,,,,,,,,,,,,,,,,,,,,,,,,,,,,,,,,,,,,,,,,,,,,,,,,,,,,,,,,,,,,,,,,,,,,,,,,,,,,,,,,,,,,,,,,,,,,,,,,,,,,,,,,,
,,5f8639cd12e4d71876c9348e,2026-03-17_10h22.26.009,kallum_motion_pilot_GIST_update_2,2026.1.1,Win32,60.97560976,5f8639cd12e4d71876c9348e,69b92ab4aef6dee357cd729a,69b92b5744ee7a3fa29ded7e,0.0414,0.0414,1,95,257,110,1,eightsix,,,,,,,,,,,,,,,,,,,,,,,,,,,,,,,,,,,,,,,,,,,,,,,,,,,,,,,,,,,,,,,,,,,,,,,,,,,,,,,,,,,,,,,,,,,,,,,,,,,,,,,,,,,,,,,,,,,,,,,,,,,,,,,,,,,,,,,,,
,,5f8639cd12e4d71876c9348e,2026-03-17_10h22.26.009,kallum_motion_pilot_GIST_update_2,2026.1.1,Win32,60.97560976,5f8639cd12e4d71876c9348e,69b92ab4aef6dee357cd729a,69b92b5744ee7a3fa29ded7e,0.0415,0.0415,1,96,258,80,1,fivesix,,,,,,,,,,,,,,,,,,,,,,,,,,,,,,,,,,,,,,,,,,,,,,,,,,,,,,,,,,,,,,,,,,,,,,,,,,,,,,,,,,,,,,,,,,,,,,,,,,,,,,,,,,,,,,,,,,,,,,,,,,,,,,,,,,,,,,,,,
,,5f8639cd12e4d71876c9348e,2026-03-17_10h22.26.009,kallum_motion_pilot_GIST_update_2,2026.1.1,Win32,60.97560976,5f8639cd12e4d71876c9348e,69b92ab4aef6dee357cd729a,69b92b5744ee7a3fa29ded7e,0.0417,0.0417,1,97,259,111,1,eightseven,,,,,,,,,,,,,,,,,,,,,,,,,,,,,,,,,,,,,,,,,,,,,,,,,,,,,,,,,,,,,,,,,,,,,,,,,,,,,,,,,,,,,,,,,,,,,,,,,,,,,,,,,,,,,,,,,,,,,,,,,,,,,,,,,,,,,,,,,
,,5f8639cd12e4d71876c9348e,2026-03-17_10h22.26.009,kallum_motion_pilot_GIST_update_2,2026.1.1,Win32,60.97560976,5f8639cd12e4d71876c9348e,69b92ab4aef6dee357cd729a,69b92b5744ee7a3fa29ded7e,0.0418,0.0418,1,98,260,116,1,sevenfive,,,,,,,,,,,,,,,,,,,,,,,,,,,,,,,,,,,,,,,,,,,,,,,,,,,,,,,,,,,,,,,,,,,,,,,,,,,,,,,,,,,,,,,,,,,,,,,,,,,,,,,,,,,,,,,,,,,,,,,,,,,,,,,,,,,,,,,,,
,,5f8639cd12e4d71876c9348e,2026-03-17_10h22.26.009,kallum_motion_pilot_GIST_update_2,2026.1.1,Win32,60.97560976,5f8639cd12e4d71876c9348e,69b92ab4aef6dee357cd729a,69b92b5744ee7a3fa29ded7e,0.0419,0.0419,1,99,261,25,1,onethree,,,,,,,,,,,,,,,,,,,,,,,,,,,,,,,,,,,,,,,,,,,,,,,,,,,,,,,,,,,,,,,,,,,,,,,,,,,,,,,,,,,,,,,,,,,,,,,,,,,,,,,,,,,,,,,,,,,,,,,,,,,,,,,,,,,,,,,,,
,,5f8639cd12e4d71876c9348e,2026-03-17_10h22.26.009,kallum_motion_pilot_GIST_update_2,2026.1.1,Win32,60.97560976,5f8639cd12e4d71876c9348e,69b92ab4aef6dee357cd729a,69b92b5744ee7a3fa29ded7e,0.042,0.042,1,100,262,154,1,sixfive,,,,,,,,,,,,,,,,,,,,,,,,,,,,,,,,,,,,,,,,,,,,,,,,,,,,,,,,,,,,,,,,,,,,,,,,,,,,,,,,,,,,,,,,,,,,,,,,,,,,,,,,,,,,,,,,,,,,,,,,,,,,,,,,,,,,,,,,,
,,5f8639cd12e4d71876c9348e,2026-03-17_10h22.26.009,kallum_motion_pilot_GIST_update_2,2026.1.1,Win32,60.97560976,5f8639cd12e4d71876c9348e,69b92ab4aef6dee357cd729a,69b92b5744ee7a3fa29ded7e,0.0421,0.0421,1,101,263,121,1,fiveseven,,,,,,,,,,,,,,,,,,,,,,,,,,,,,,,,,,,,,,,,,,,,,,,,,,,,,,,,,,,,,,,,,,,,,,,,,,,,,,,,,,,,,,,,,,,,,,,,,,,,,,,,,,,,,,,,,,,,,,,,,,,,,,,,,,,,,,,,,
,,5f8639cd12e4d71876c9348e,2026-03-17_10h22.26.009,kallum_motion_pilot_GIST_update_2,2026.1.1,Win32,60.97560976,5f8639cd12e4d71876c9348e,69b92ab4aef6dee357cd729a,69b92b5744ee7a3fa29ded7e,0.0422,0.0422,1,102,264,74,1,twoone,,,,,,,,,,,,,,,,,,,,,,,,,,,,,,,,,,,,,,,,,,,,,,,,,,,,,,,,,,,,,,,,,,,,,,,,,,,,,,,,,,,,,,,,,,,,,,,,,,,,,,,,,,,,,,,,,,,,,,,,,,,,,,,,,,,,,,,,,
,,5f8639cd12e4d71876c9348e,2026-03-17_10h22.26.009,kallum_motion_pilot_GIST_update_2,2026.1.1,Win32,60.97560976,5f8639cd12e4d71876c9348e,69b92ab4aef6dee357cd729a,69b92b5744ee7a3fa29ded7e,0.0423,0.0423,1,103,265,8,1,onetwo,,,,,,,,,,,,,,,,,,,,,,,,,,,,,,,,,,,,,,,,,,,,,,,,,,,,,,,,,,,,,,,,,,,,,,,,,,,,,,,,,,,,,,,,,,,,,,,,,,,,,,,,,,,,,,,,,,,,,,,,,,,,,,,,,,,,,,,,,
,,5f8639cd12e4d71876c9348e,2026-03-17_10h22.26.009,kallum_motion_pilot_GIST_update_2,2026.1.1,Win32,60.97560976,5f8639cd12e4d71876c9348e,69b92ab4aef6dee357cd729a,69b92b5744ee7a3fa29ded7e,0.0424,0.0424,1,104,266,156,1,sevenfive,,,,,,,,,,,,,,,,,,,,,,,,,,,,,,,,,,,,,,,,,,,,,,,,,,,,,,,,,,,,,,,,,,,,,,,,,,,,,,,,,,,,,,,,,,,,,,,,,,,,,,,,,,,,,,,,,,,,,,,,,,,,,,,,,,,,,,,,,
