startup.started,startup.stopped,Prolific ID*,date,expName,psychopyVersion,OS,frameRate,participant,study_id,session,stimpositions.started,stimpositions.stopped,hardcoded_stimulus_positions.thisRepN,hardcoded_stimulus_positions.thisTrialN,hardcoded_stimulus_positions.thisN,hardcoded_stimulus_positions.thisIndex,hardcoded_stimulus_positions.ran,StimulusPos,stimorientation.started,stimorientation.stopped,prac_stimorientation_import_loop.thisRepN,prac_stimorientation_import_loop.thisTrialN,prac_stimorientation_import_loop.thisN,prac_stimorientation_import_loop.thisIndex,prac_stimorientation_import_loop.ran,Stimorientation,welcome_instr.started,welcome_instr.stopped,key_resp.keys,key_resp.rt,key_resp.duration,response_steppedout_1.started,response_steppedout_1.stopped,key_resp_20.keys,key_resp_20.rt,key_resp_20.duration,response_steppedout_2.started,response_steppedout_2.stopped,key_resp_19.keys,key_resp_19.rt,key_resp_19.duration,stim_response_instr.started,stim_response_instr.stopped,key_resp_15.keys,key_resp_15.rt,key_resp_15.duration,direction_instr_2.started,direction_instr_2.stopped,key_resp_9.keys,key_resp_9.rt,key_resp_9.duration,instr_prac.started,instr_prac.stopped,key_resp_10.keys,key_resp_10.rt,key_resp_10.duration,Stim1_display_prac.started,Stim1_display_prac.stopped,Ecc,Circle1_ori,Circle2_ori,response_prac.started,similarity,response_time,response_prac.stopped,mouse_5.x,mouse_5.y,mouse_5.leftButton,mouse_5.midButton,mouse_5.rightButton,mouse_5.clicked_name,responseprac_feedback.started,responseprac_feedback.stopped,summary2_prac.started,summary2_prac.stopped,mouse_6.x,mouse_6.y,mouse_6.leftButton,mouse_6.midButton,mouse_6.rightButton,mouse_6.clicked_name,duringprac.thisRepN,duringprac.thisTrialN,duringprac.thisN,duringprac.thisIndex,duringprac.ran,begin.started,begin.stopped,key_resp_22.keys,key_resp_22.rt,key_resp_22.duration,Stim1_display.started,Stim1_display.stopped,circle1_ori,circle2_ori,circle1_SF,circle2_SF,response.started,response.stopped,mouse.x,mouse.y,mouse.leftButton,mouse.midButton,mouse.rightButton,mouse.clicked_name,trialnumber,double_pass.thisRepN,double_pass.thisTrialN,double_pass.thisN,double_pass.thisIndex,double_pass.ran,double_pass.order,main_trial.thisRepN,main_trial.thisTrialN,main_trial.thisN,main_trial.thisIndex,main_trial.ran,main_trial.order,Trial_Counter,Catch,Frequencies,response_2.started,response_2.stopped,mouse_2.x,mouse_2.y,mouse_2.leftButton,mouse_2.midButton,mouse_2.rightButton,mouse_2.clicked_name,special_trial.started,special_trial.stopped,catch_1.started,catch_1.stopped,mouse_3.x,mouse_3.y,mouse_3.leftButton,mouse_3.midButton,mouse_3.rightButton,catchresponse,catchnumber,response_time_catch,response_sum.started,response_sum.stopped,mouse_11.x,mouse_11.y,mouse_11.leftButton,mouse_11.midButton,mouse_11.rightButton,flip_presentation_sequence_for_double_pass.started,flip_presentation_sequence_for_double_pass.stopped,goodbye.started,goodbye.stopped,key_resp_3.keys,key_resp_3.rt,key_resp_3.duration
0.0002,0.0003,60524a9ece19f6b376473cf7,2026-03-17_10h23.09.911,kallum_motion_pilot_GIST_update_2,2026.1.1,Win32,59.52380952,60524a9ece19f6b376473cf7,69b92ab4aef6dee357cd729a,69b92b73b25b51bf5ac41016,,,,,,,,,,,,,,,,,,,,,,,,,,,,,,,,,,,,,,,,,,,,,,,,,,,,,,,,,,,,,,,,,,,,,,,,,,,,,,,,,,,,,,,,,,,,,,,,,,,,,,,,,,,,,,,,,,,,,,,,,,,,,,,,,,,,,,,,,,,,,,,,,
,,60524a9ece19f6b376473cf7,2026-03-17_10h23.09.911,kallum_motion_pilot_GIST_update_2,2026.1.1,Win32,59.52380952,60524a9ece19f6b376473cf7,69b92ab4aef6dee357cd729a,69b92b73b25b51bf5ac41016,0.0175,0.0177,0,0,0,129,1,fiveseven,,,,,,,,,,,,,,,,,,,,,,,,,,,,,,,,,,,,,,,,,,,,,,,,,,,,,,,,,,,,,,,,,,,,,,,,,,,,,,,,,,,,,,,,,,,,,,,,,,,,,,,,,,,,,,,,,,,,,,,,,,,,,,,,,,,,,,,,,
,,60524a9ece19f6b376473cf7,2026-03-17_10h23.09.911,kallum_motion_pilot_GIST_update_2,2026.1.1,Win32,59.52380952,60524a9ece19f6b376473cf7,69b92ab4aef6dee357cd729a,69b92b73b25b51bf5ac41016,0.0179,0.0179,0,1,1,106,1,sixfive,,,,,,,,,,,,,,,,,,,,,,,,,,,,,,,,,,,,,,,,,,,,,,,,,,,,,,,,,,,,,,,,,,,,,,,,,,,,,,,,,,,,,,,,,,,,,,,,,,,,,,,,,,,,,,,,,,,,,,,,,,,,,,,,,,,,,,,,,
,,60524a9ece19f6b376473cf7,2026-03-17_10h23.09.911,kallum_motion_pilot_GIST_update_2,2026.1.1,Win32,59.52380952,60524a9ece19f6b376473cf7,69b92ab4aef6dee357cd729a,69b92b73b25b51bf5ac41016,0.0179,0.0179,0,2,2,59,1,twofour,,,,,,,,,,,,,,,,,,,,,,,,,,,,,,,,,,,,,,,,,,,,,,,,,,,,,,,,,,,,,,,,,,,,,,,,,,,,,,,,,,,,,,,,,,,,,,,,,,,,,,,,,,,,,,,,,,,,,,,,,,,,,,,,,,,,,,,,,
,,60524a9ece19f6b376473cf7,2026-03-17_10h23.09.911,kallum_motion_pilot_GIST_update_2,2026.1.1,Win32,59.52380952,60524a9ece19f6b376473cf7,69b92ab4aef6dee357cd729a,69b92b73b25b51bf5ac41016,0.018,0.018,0,3,3,99,1,sixeight,,,,,,,,,,,,,,,,,,,,,,,,,,,,,,,,,,,,,,,,,,,,,,,,,,,,,,,,,,,,,,,,,,,,,,,,,,,,,,,,,,,,,,,,,,,,,,,,,,,,,,,,,,,,,,,,,,,,,,,,,,,,,,,,,,,,,,,,,
,,60524a9ece19f6b376473cf7,2026-03-17_10h23.09.911,kallum_motion_pilot_GIST_update_2,2026.1.1,Win32,59.52380952,60524a9ece19f6b376473cf7,69b92ab4aef6dee357cd729a,69b92b73b25b51bf5ac41016,0.0181,0.0181,0,4,4,127,1,eightseven,,,,,,,,,,,,,,,,,,,,,,,,,,,,,,,,,,,,,,,,,,,,,,,,,,,,,,,,,,,,,,,,,,,,,,,,,,,,,,,,,,,,,,,,,,,,,,,,,,,,,,,,,,,,,,,,,,,,,,,,,,,,,,,,,,,,,,,,,
,,60524a9ece19f6b376473cf7,2026-03-17_10h23.09.911,kallum_motion_pilot_GIST_update_2,2026.1.1,Win32,59.52380952,60524a9ece19f6b376473cf7,69b92ab4aef6dee357cd729a,69b92b73b25b51bf5ac41016,0.0182,0.0182,0,5,5,82,1,sixfive,,,,,,,,,,,,,,,,,,,,,,,,,,,,,,,,,,,,,,,,,,,,,,,,,,,,,,,,,,,,,,,,,,,,,,,,,,,,,,,,,,,,,,,,,,,,,,,,,,,,,,,,,,,,,,,,,,,,,,,,,,,,,,,,,,,,,,,,,
,,60524a9ece19f6b376473cf7,2026-03-17_10h23.09.911,kallum_motion_pilot_GIST_update_2,2026.1.1,Win32,59.52380952,60524a9ece19f6b376473cf7,69b92ab4aef6dee357cd729a,69b92b73b25b51bf5ac41016,0.0183,0.0183,0,6,6,140,1,sevenfive,,,,,,,,,,,,,,,,,,,,,,,,,,,,,,,,,,,,,,,,,,,,,,,,,,,,,,,,,,,,,,,,,,,,,,,,,,,,,,,,,,,,,,,,,,,,,,,,,,,,,,,,,,,,,,,,,,,,,,,,,,,,,,,,,,,,,,,,,
,,60524a9ece19f6b376473cf7,2026-03-17_10h23.09.911,kallum_motion_pilot_GIST_update_2,2026.1.1,Win32,59.52380952,60524a9ece19f6b376473cf7,69b92ab4aef6dee357cd729a,69b92b73b25b51bf5ac41016,0.0184,0.0184,0,7,7,72,1,onetwo,,,,,,,,,,,,,,,,,,,,,,,,,,,,,,,,,,,,,,,,,,,,,,,,,,,,,,,,,,,,,,,,,,,,,,,,,,,,,,,,,,,,,,,,,,,,,,,,,,,,,,,,,,,,,,,,,,,,,,,,,,,,,,,,,,,,,,,,,
,,60524a9ece19f6b376473cf7,2026-03-17_10h23.09.911,kallum_motion_pilot_GIST_update_2,2026.1.1,Win32,59.52380952,60524a9ece19f6b376473cf7,69b92ab4aef6dee357cd729a,69b92b73b25b51bf5ac41016,0.0184,0.0185,0,8,8,53,1,threefour,,,,,,,,,,,,,,,,,,,,,,,,,,,,,,,,,,,,,,,,,,,,,,,,,,,,,,,,,,,,,,,,,,,,,,,,,,,,,,,,,,,,,,,,,,,,,,,,,,,,,,,,,,,,,,,,,,,,,,,,,,,,,,,,,,,,,,,,,
,,60524a9ece19f6b376473cf7,2026-03-17_10h23.09.911,kallum_motion_pilot_GIST_update_2,2026.1.1,Win32,59.52380952,60524a9ece19f6b376473cf7,69b92ab4aef6dee357cd729a,69b92b73b25b51bf5ac41016,0.0185,0.0185,0,9,9,65,1,onethree,,,,,,,,,,,,,,,,,,,,,,,,,,,,,,,,,,,,,,,,,,,,,,,,,,,,,,,,,,,,,,,,,,,,,,,,,,,,,,,,,,,,,,,,,,,,,,,,,,,,,,,,,,,,,,,,,,,,,,,,,,,,,,,,,,,,,,,,,
,,60524a9ece19f6b376473cf7,2026-03-17_10h23.09.911,kallum_motion_pilot_GIST_update_2,2026.1.1,Win32,59.52380952,60524a9ece19f6b376473cf7,69b92ab4aef6dee357cd729a,69b92b73b25b51bf5ac41016,0.0187,0.0187,0,10,10,66,1,twoone,,,,,,,,,,,,,,,,,,,,,,,,,,,,,,,,,,,,,,,,,,,,,,,,,,,,,,,,,,,,,,,,,,,,,,,,,,,,,,,,,,,,,,,,,,,,,,,,,,,,,,,,,,,,,,,,,,,,,,,,,,,,,,,,,,,,,,,,,
,,60524a9ece19f6b376473cf7,2026-03-17_10h23.09.911,kallum_motion_pilot_GIST_update_2,2026.1.1,Win32,59.52380952,60524a9ece19f6b376473cf7,69b92ab4aef6dee357cd729a,69b92b73b25b51bf5ac41016,0.0187,0.0187,0,11,11,8,1,onetwo,,,,,,,,,,,,,,,,,,,,,,,,,,,,,,,,,,,,,,,,,,,,,,,,,,,,,,,,,,,,,,,,,,,,,,,,,,,,,,,,,,,,,,,,,,,,,,,,,,,,,,,,,,,,,,,,,,,,,,,,,,,,,,,,,,,,,,,,,
,,60524a9ece19f6b376473cf7,2026-03-17_10h23.09.911,kallum_motion_pilot_GIST_update_2,2026.1.1,Win32,59.52380952,60524a9ece19f6b376473cf7,69b92ab4aef6dee357cd729a,69b92b73b25b51bf5ac41016,0.0188,0.0188,0,12,12,51,1,twofour,,,,,,,,,,,,,,,,,,,,,,,,,,,,,,,,,,,,,,,,,,,,,,,,,,,,,,,,,,,,,,,,,,,,,,,,,,,,,,,,,,,,,,,,,,,,,,,,,,,,,,,,,,,,,,,,,,,,,,,,,,,,,,,,,,,,,,,,,
,,60524a9ece19f6b376473cf7,2026-03-17_10h23.09.911,kallum_motion_pilot_GIST_update_2,2026.1.1,Win32,59.52380952,60524a9ece19f6b376473cf7,69b92ab4aef6dee357cd729a,69b92b73b25b51bf5ac41016,0.0188,0.0188,0,13,13,47,1,fourthree,,,,,,,,,,,,,,,,,,,,,,,,,,,,,,,,,,,,,,,,,,,,,,,,,,,,,,,,,,,,,,,,,,,,,,,,,,,,,,,,,,,,,,,,,,,,,,,,,,,,,,,,,,,,,,,,,,,,,,,,,,,,,,,,,,,,,,,,,
,,60524a9ece19f6b376473cf7,2026-03-17_10h23.09.911,kallum_motion_pilot_GIST_update_2,2026.1.1,Win32,59.52380952,60524a9ece19f6b376473cf7,69b92ab4aef6dee357cd729a,69b92b73b25b51bf5ac41016,0.0189,0.0189,0,14,14,154,1,sixfive,,,,,,,,,,,,,,,,,,,,,,,,,,,,,,,,,,,,,,,,,,,,,,,,,,,,,,,,,,,,,,,,,,,,,,,,,,,,,,,,,,,,,,,,,,,,,,,,,,,,,,,,,,,,,,,,,,,,,,,,,,,,,,,,,,,,,,,,,
,,60524a9ece19f6b376473cf7,2026-03-17_10h23.09.911,kallum_motion_pilot_GIST_update_2,2026.1.1,Win32,59.52380952,60524a9ece19f6b376473cf7,69b92ab4aef6dee357cd729a,69b92b73b25b51bf5ac41016,0.019,0.019,0,15,15,119,1,eightseven,,,,,,,,,,,,,,,,,,,,,,,,,,,,,,,,,,,,,,,,,,,,,,,,,,,,,,,,,,,,,,,,,,,,,,,,,,,,,,,,,,,,,,,,,,,,,,,,,,,,,,,,,,,,,,,,,,,,,,,,,,,,,,,,,,,,,,,,,
,,60524a9ece19f6b376473cf7,2026-03-17_10h23.09.911,kallum_motion_pilot_GIST_update_2,2026.1.1,Win32,59.52380952,60524a9ece19f6b376473cf7,69b92ab4aef6dee357cd729a,69b92b73b25b51bf5ac41016,0.019,0.019,0,16,16,32,1,onetwo,,,,,,,,,,,,,,,,,,,,,,,,,,,,,,,,,,,,,,,,,,,,,,,,,,,,,,,,,,,,,,,,,,,,,,,,,,,,,,,,,,,,,,,,,,,,,,,,,,,,,,,,,,,,,,,,,,,,,,,,,,,,,,,,,,,,,,,,,
,,60524a9ece19f6b376473cf7,2026-03-17_10h23.09.911,kallum_motion_pilot_GIST_update_2,2026.1.1,Win32,59.52380952,60524a9ece19f6b376473cf7,69b92ab4aef6dee357cd729a,69b92b73b25b51bf5ac41016,0.019,0.019,0,17,17,54,1,fourtwo,,,,,,,,,,,,,,,,,,,,,,,,,,,,,,,,,,,,,,,,,,,,,,,,,,,,,,,,,,,,,,,,,,,,,,,,,,,,,,,,,,,,,,,,,,,,,,,,,,,,,,,,,,,,,,,,,,,,,,,,,,,,,,,,,,,,,,,,,
,,60524a9ece19f6b376473cf7,2026-03-17_10h23.09.911,kallum_motion_pilot_GIST_update_2,2026.1.1,Win32,59.52380952,60524a9ece19f6b376473cf7,69b92ab4aef6dee357cd729a,69b92b73b25b51bf5ac41016,0.0191,0.0191,0,18,18,98,1,sixfive,,,,,,,,,,,,,,,,,,,,,,,,,,,,,,,,,,,,,,,,,,,,,,,,,,,,,,,,,,,,,,,,,,,,,,,,,,,,,,,,,,,,,,,,,,,,,,,,,,,,,,,,,,,,,,,,,,,,,,,,,,,,,,,,,,,,,,,,,
,,60524a9ece19f6b376473cf7,2026-03-17_10h23.09.911,kallum_motion_pilot_GIST_update_2,2026.1.1,Win32,59.52380952,60524a9ece19f6b376473cf7,69b92ab4aef6dee357cd729a,69b92b73b25b51bf5ac41016,0.0192,0.0192,0,19,19,38,1,fourtwo,,,,,,,,,,,,,,,,,,,,,,,,,,,,,,,,,,,,,,,,,,,,,,,,,,,,,,,,,,,,,,,,,,,,,,,,,,,,,,,,,,,,,,,,,,,,,,,,,,,,,,,,,,,,,,,,,,,,,,,,,,,,,,,,,,,,,,,,,
,,60524a9ece19f6b376473cf7,2026-03-17_10h23.09.911,kallum_motion_pilot_GIST_update_2,2026.1.1,Win32,59.52380952,60524a9ece19f6b376473cf7,69b92ab4aef6dee357cd729a,69b92b73b25b51bf5ac41016,0.0193,0.0193,0,20,20,89,1,fiveseven,,,,,,,,,,,,,,,,,,,,,,,,,,,,,,,,,,,,,,,,,,,,,,,,,,,,,,,,,,,,,,,,,,,,,,,,,,,,,,,,,,,,,,,,,,,,,,,,,,,,,,,,,,,,,,,,,,,,,,,,,,,,,,,,,,,,,,,,,
,,60524a9ece19f6b376473cf7,2026-03-17_10h23.09.911,kallum_motion_pilot_GIST_update_2,2026.1.1,Win32,59.52380952,60524a9ece19f6b376473cf7,69b92ab4aef6dee357cd729a,69b92b73b25b51bf5ac41016,0.0193,0.0193,0,21,21,29,1,threefour,,,,,,,,,,,,,,,,,,,,,,,,,,,,,,,,,,,,,,,,,,,,,,,,,,,,,,,,,,,,,,,,,,,,,,,,,,,,,,,,,,,,,,,,,,,,,,,,,,,,,,,,,,,,,,,,,,,,,,,,,,,,,,,,,,,,,,,,,
,,60524a9ece19f6b376473cf7,2026-03-17_10h23.09.911,kallum_motion_pilot_GIST_update_2,2026.1.1,Win32,59.52380952,60524a9ece19f6b376473cf7,69b92ab4aef6dee357cd729a,69b92b73b25b51bf5ac41016,0.0194,0.0194,0,22,22,14,1,fourtwo,,,,,,,,,,,,,,,,,,,,,,,,,,,,,,,,,,,,,,,,,,,,,,,,,,,,,,,,,,,,,,,,,,,,,,,,,,,,,,,,,,,,,,,,,,,,,,,,,,,,,,,,,,,,,,,,,,,,,,,,,,,,,,,,,,,,,,,,,
,,60524a9ece19f6b376473cf7,2026-03-17_10h23.09.911,kallum_motion_pilot_GIST_update_2,2026.1.1,Win32,59.52380952,60524a9ece19f6b376473cf7,69b92ab4aef6dee357cd729a,69b92b73b25b51bf5ac41016,0.0195,0.0195,0,23,23,58,1,twoone,,,,,,,,,,,,,,,,,,,,,,,,,,,,,,,,,,,,,,,,,,,,,,,,,,,,,,,,,,,,,,,,,,,,,,,,,,,,,,,,,,,,,,,,,,,,,,,,,,,,,,,,,,,,,,,,,,,,,,,,,,,,,,,,,,,,,,,,,
,,60524a9ece19f6b376473cf7,2026-03-17_10h23.09.911,kallum_motion_pilot_GIST_update_2,2026.1.1,Win32,59.52380952,60524a9ece19f6b376473cf7,69b92ab4aef6dee357cd729a,69b92b73b25b51bf5ac41016,0.0195,0.0195,0,24,24,60,1,threeone,,,,,,,,,,,,,,,,,,,,,,,,,,,,,,,,,,,,,,,,,,,,,,,,,,,,,,,,,,,,,,,,,,,,,,,,,,,,,,,,,,,,,,,,,,,,,,,,,,,,,,,,,,,,,,,,,,,,,,,,,,,,,,,,,,,,,,,,,
,,60524a9ece19f6b376473cf7,2026-03-17_10h23.09.911,kallum_motion_pilot_GIST_update_2,2026.1.1,Win32,59.52380952,60524a9ece19f6b376473cf7,69b92ab4aef6dee357cd729a,69b92b73b25b51bf5ac41016,0.0196,0.0196,0,25,25,113,1,fiveseven,,,,,,,,,,,,,,,,,,,,,,,,,,,,,,,,,,,,,,,,,,,,,,,,,,,,,,,,,,,,,,,,,,,,,,,,,,,,,,,,,,,,,,,,,,,,,,,,,,,,,,,,,,,,,,,,,,,,,,,,,,,,,,,,,,,,,,,,,
,,60524a9ece19f6b376473cf7,2026-03-17_10h23.09.911,kallum_motion_pilot_GIST_update_2,2026.1.1,Win32,59.52380952,60524a9ece19f6b376473cf7,69b92ab4aef6dee357cd729a,69b92b73b25b51bf5ac41016,0.0196,0.0196,0,26,26,16,1,onetwo,,,,,,,,,,,,,,,,,,,,,,,,,,,,,,,,,,,,,,,,,,,,,,,,,,,,,,,,,,,,,,,,,,,,,,,,,,,,,,,,,,,,,,,,,,,,,,,,,,,,,,,,,,,,,,,,,,,,,,,,,,,,,,,,,,,,,,,,,
,,60524a9ece19f6b376473cf7,2026-03-17_10h23.09.911,kallum_motion_pilot_GIST_update_2,2026.1.1,Win32,59.52380952,60524a9ece19f6b376473cf7,69b92ab4aef6dee357cd729a,69b92b73b25b51bf5ac41016,0.0197,0.0197,0,27,27,73,1,onethree,,,,,,,,,,,,,,,,,,,,,,,,,,,,,,,,,,,,,,,,,,,,,,,,,,,,,,,,,,,,,,,,,,,,,,,,,,,,,,,,,,,,,,,,,,,,,,,,,,,,,,,,,,,,,,,,,,,,,,,,,,,,,,,,,,,,,,,,,
,,60524a9ece19f6b376473cf7,2026-03-17_10h23.09.911,kallum_motion_pilot_GIST_update_2,2026.1.1,Win32,59.52380952,60524a9ece19f6b376473cf7,69b92ab4aef6dee357cd729a,69b92b73b25b51bf5ac41016,0.0197,0.0197,0,28,28,44,1,threeone,,,,,,,,,,,,,,,,,,,,,,,,,,,,,,,,,,,,,,,,,,,,,,,,,,,,,,,,,,,,,,,,,,,,,,,,,,,,,,,,,,,,,,,,,,,,,,,,,,,,,,,,,,,,,,,,,,,,,,,,,,,,,,,,,,,,,,,,,
,,60524a9ece19f6b376473cf7,2026-03-17_10h23.09.911,kallum_motion_pilot_GIST_update_2,2026.1.1,Win32,59.52380952,60524a9ece19f6b376473cf7,69b92ab4aef6dee357cd729a,69b92b73b25b51bf5ac41016,0.0198,0.0198,0,29,29,27,1,twofour,,,,,,,,,,,,,,,,,,,,,,,,,,,,,,,,,,,,,,,,,,,,,,,,,,,,,,,,,,,,,,,,,,,,,,,,,,,,,,,,,,,,,,,,,,,,,,,,,,,,,,,,,,,,,,,,,,,,,,,,,,,,,,,,,,,,,,,,,
,,60524a9ece19f6b376473cf7,2026-03-17_10h23.09.911,kallum_motion_pilot_GIST_update_2,2026.1.1,Win32,59.52380952,60524a9ece19f6b376473cf7,69b92ab4aef6dee357cd729a,69b92b73b25b51bf5ac41016,0.0199,0.0199,0,30,30,115,1,sixeight,,,,,,,,,,,,,,,,,,,,,,,,,,,,,,,,,,,,,,,,,,,,,,,,,,,,,,,,,,,,,,,,,,,,,,,,,,,,,,,,,,,,,,,,,,,,,,,,,,,,,,,,,,,,,,,,,,,,,,,,,,,,,,,,,,,,,,,,,
,,60524a9ece19f6b376473cf7,2026-03-17_10h23.09.911,kallum_motion_pilot_GIST_update_2,2026.1.1,Win32,59.52380952,60524a9ece19f6b376473cf7,69b92ab4aef6dee357cd729a,69b92b73b25b51bf5ac41016,0.02,0.02,0,31,31,9,1,onethree,,,,,,,,,,,,,,,,,,,,,,,,,,,,,,,,,,,,,,,,,,,,,,,,,,,,,,,,,,,,,,,,,,,,,,,,,,,,,,,,,,,,,,,,,,,,,,,,,,,,,,,,,,,,,,,,,,,,,,,,,,,,,,,,,,,,,,,,,
,,60524a9ece19f6b376473cf7,2026-03-17_10h23.09.911,kallum_motion_pilot_GIST_update_2,2026.1.1,Win32,59.52380952,60524a9ece19f6b376473cf7,69b92ab4aef6dee357cd729a,69b92b73b25b51bf5ac41016,0.02,0.02,0,32,32,137,1,fiveseven,,,,,,,,,,,,,,,,,,,,,,,,,,,,,,,,,,,,,,,,,,,,,,,,,,,,,,,,,,,,,,,,,,,,,,,,,,,,,,,,,,,,,,,,,,,,,,,,,,,,,,,,,,,,,,,,,,,,,,,,,,,,,,,,,,,,,,,,,
,,60524a9ece19f6b376473cf7,2026-03-17_10h23.09.911,kallum_motion_pilot_GIST_update_2,2026.1.1,Win32,59.52380952,60524a9ece19f6b376473cf7,69b92ab4aef6dee357cd729a,69b92b73b25b51bf5ac41016,0.0201,0.0201,0,33,33,56,1,onetwo,,,,,,,,,,,,,,,,,,,,,,,,,,,,,,,,,,,,,,,,,,,,,,,,,,,,,,,,,,,,,,,,,,,,,,,,,,,,,,,,,,,,,,,,,,,,,,,,,,,,,,,,,,,,,,,,,,,,,,,,,,,,,,,,,,,,,,,,,
,,60524a9ece19f6b376473cf7,2026-03-17_10h23.09.911,kallum_motion_pilot_GIST_update_2,2026.1.1,Win32,59.52380952,60524a9ece19f6b376473cf7,69b92ab4aef6dee357cd729a,69b92b73b25b51bf5ac41016,0.0201,0.0201,0,34,34,97,1,fiveseven,,,,,,,,,,,,,,,,,,,,,,,,,,,,,,,,,,,,,,,,,,,,,,,,,,,,,,,,,,,,,,,,,,,,,,,,,,,,,,,,,,,,,,,,,,,,,,,,,,,,,,,,,,,,,,,,,,,,,,,,,,,,,,,,,,,,,,,,,
,,60524a9ece19f6b376473cf7,2026-03-17_10h23.09.911,kallum_motion_pilot_GIST_update_2,2026.1.1,Win32,59.52380952,60524a9ece19f6b376473cf7,69b92ab4aef6dee357cd729a,69b92b73b25b51bf5ac41016,0.0202,0.0202,0,35,35,13,1,threefour,,,,,,,,,,,,,,,,,,,,,,,,,,,,,,,,,,,,,,,,,,,,,,,,,,,,,,,,,,,,,,,,,,,,,,,,,,,,,,,,,,,,,,,,,,,,,,,,,,,,,,,,,,,,,,,,,,,,,,,,,,,,,,,,,,,,,,,,,
,,60524a9ece19f6b376473cf7,2026-03-17_10h23.09.911,kallum_motion_pilot_GIST_update_2,2026.1.1,Win32,59.52380952,60524a9ece19f6b376473cf7,69b92ab4aef6dee357cd729a,69b92b73b25b51bf5ac41016,0.0202,0.0202,0,36,36,80,1,fivesix,,,,,,,,,,,,,,,,,,,,,,,,,,,,,,,,,,,,,,,,,,,,,,,,,,,,,,,,,,,,,,,,,,,,,,,,,,,,,,,,,,,,,,,,,,,,,,,,,,,,,,,,,,,,,,,,,,,,,,,,,,,,,,,,,,,,,,,,,
,,60524a9ece19f6b376473cf7,2026-03-17_10h23.09.911,kallum_motion_pilot_GIST_update_2,2026.1.1,Win32,59.52380952,60524a9ece19f6b376473cf7,69b92ab4aef6dee357cd729a,69b92b73b25b51bf5ac41016,0.0213,0.0213,0,37,37,67,1,twofour,,,,,,,,,,,,,,,,,,,,,,,,,,,,,,,,,,,,,,,,,,,,,,,,,,,,,,,,,,,,,,,,,,,,,,,,,,,,,,,,,,,,,,,,,,,,,,,,,,,,,,,,,,,,,,,,,,,,,,,,,,,,,,,,,,,,,,,,,
,,60524a9ece19f6b376473cf7,2026-03-17_10h23.09.911,kallum_motion_pilot_GIST_update_2,2026.1.1,Win32,59.52380952,60524a9ece19f6b376473cf7,69b92ab4aef6dee357cd729a,69b92b73b25b51bf5ac41016,0.0214,0.0214,0,38,38,122,1,sixfive,,,,,,,,,,,,,,,,,,,,,,,,,,,,,,,,,,,,,,,,,,,,,,,,,,,,,,,,,,,,,,,,,,,,,,,,,,,,,,,,,,,,,,,,,,,,,,,,,,,,,,,,,,,,,,,,,,,,,,,,,,,,,,,,,,,,,,,,,
,,60524a9ece19f6b376473cf7,2026-03-17_10h23.09.911,kallum_motion_pilot_GIST_update_2,2026.1.1,Win32,59.52380952,60524a9ece19f6b376473cf7,69b92ab4aef6dee357cd729a,69b92b73b25b51bf5ac41016,0.0214,0.0214,0,39,39,159,1,eightseven,,,,,,,,,,,,,,,,,,,,,,,,,,,,,,,,,,,,,,,,,,,,,,,,,,,,,,,,,,,,,,,,,,,,,,,,,,,,,,,,,,,,,,,,,,,,,,,,,,,,,,,,,,,,,,,,,,,,,,,,,,,,,,,,,,,,,,,,,
,,60524a9ece19f6b376473cf7,2026-03-17_10h23.09.911,kallum_motion_pilot_GIST_update_2,2026.1.1,Win32,59.52380952,60524a9ece19f6b376473cf7,69b92ab4aef6dee357cd729a,69b92b73b25b51bf5ac41016,0.0216,0.0216,0,40,40,155,1,sixeight,,,,,,,,,,,,,,,,,,,,,,,,,,,,,,,,,,,,,,,,,,,,,,,,,,,,,,,,,,,,,,,,,,,,,,,,,,,,,,,,,,,,,,,,,,,,,,,,,,,,,,,,,,,,,,,,,,,,,,,,,,,,,,,,,,,,,,,,,
,,60524a9ece19f6b376473cf7,2026-03-17_10h23.09.911,kallum_motion_pilot_GIST_update_2,2026.1.1,Win32,59.52380952,60524a9ece19f6b376473cf7,69b92ab4aef6dee357cd729a,69b92b73b25b51bf5ac41016,0.0216,0.0216,0,41,41,102,1,eightsix,,,,,,,,,,,,,,,,,,,,,,,,,,,,,,,,,,,,,,,,,,,,,,,,,,,,,,,,,,,,,,,,,,,,,,,,,,,,,,,,,,,,,,,,,,,,,,,,,,,,,,,,,,,,,,,,,,,,,,,,,,,,,,,,,,,,,,,,,
,,60524a9ece19f6b376473cf7,2026-03-17_10h23.09.911,kallum_motion_pilot_GIST_update_2,2026.1.1,Win32,59.52380952,60524a9ece19f6b376473cf7,69b92ab4aef6dee357cd729a,69b92b73b25b51bf5ac41016,0.0217,0.0217,0,42,42,92,1,sevenfive,,,,,,,,,,,,,,,,,,,,,,,,,,,,,,,,,,,,,,,,,,,,,,,,,,,,,,,,,,,,,,,,,,,,,,,,,,,,,,,,,,,,,,,,,,,,,,,,,,,,,,,,,,,,,,,,,,,,,,,,,,,,,,,,,,,,,,,,,
,,60524a9ece19f6b376473cf7,2026-03-17_10h23.09.911,kallum_motion_pilot_GIST_update_2,2026.1.1,Win32,59.52380952,60524a9ece19f6b376473cf7,69b92ab4aef6dee357cd729a,69b92b73b25b51bf5ac41016,0.0217,0.0217,0,43,43,70,1,fourtwo,,,,,,,,,,,,,,,,,,,,,,,,,,,,,,,,,,,,,,,,,,,,,,,,,,,,,,,,,,,,,,,,,,,,,,,,,,,,,,,,,,,,,,,,,,,,,,,,,,,,,,,,,,,,,,,,,,,,,,,,,,,,,,,,,,,,,,,,,
,,60524a9ece19f6b376473cf7,2026-03-17_10h23.09.911,kallum_motion_pilot_GIST_update_2,2026.1.1,Win32,59.52380952,60524a9ece19f6b376473cf7,69b92ab4aef6dee357cd729a,69b92b73b25b51bf5ac41016,0.0218,0.0218,0,44,44,144,1,fivesix,,,,,,,,,,,,,,,,,,,,,,,,,,,,,,,,,,,,,,,,,,,,,,,,,,,,,,,,,,,,,,,,,,,,,,,,,,,,,,,,,,,,,,,,,,,,,,,,,,,,,,,,,,,,,,,,,,,,,,,,,,,,,,,,,,,,,,,,,
,,60524a9ece19f6b376473cf7,2026-03-17_10h23.09.911,kallum_motion_pilot_GIST_update_2,2026.1.1,Win32,59.52380952,60524a9ece19f6b376473cf7,69b92ab4aef6dee357cd729a,69b92b73b25b51bf5ac41016,0.0218,0.0218,0,45,45,25,1,onethree,,,,,,,,,,,,,,,,,,,,,,,,,,,,,,,,,,,,,,,,,,,,,,,,,,,,,,,,,,,,,,,,,,,,,,,,,,,,,,,,,,,,,,,,,,,,,,,,,,,,,,,,,,,,,,,,,,,,,,,,,,,,,,,,,,,,,,,,,
,,60524a9ece19f6b376473cf7,2026-03-17_10h23.09.911,kallum_motion_pilot_GIST_update_2,2026.1.1,Win32,59.52380952,60524a9ece19f6b376473cf7,69b92ab4aef6dee357cd729a,69b92b73b25b51bf5ac41016,0.0219,0.0219,0,46,46,49,1,onethree,,,,,,,,,,,,,,,,,,,,,,,,,,,,,,,,,,,,,,,,,,,,,,,,,,,,,,,,,,,,,,,,,,,,,,,,,,,,,,,,,,,,,,,,,,,,,,,,,,,,,,,,,,,,,,,,,,,,,,,,,,,,,,,,,,,,,,,,,
,,60524a9ece19f6b376473cf7,2026-03-17_10h23.09.911,kallum_motion_pilot_GIST_update_2,2026.1.1,Win32,59.52380952,60524a9ece19f6b376473cf7,69b92ab4aef6dee357cd729a,69b92b73b25b51bf5ac41016,0.022,0.022,0,47,47,130,1,sixfive,,,,,,,,,,,,,,,,,,,,,,,,,,,,,,,,,,,,,,,,,,,,,,,,,,,,,,,,,,,,,,,,,,,,,,,,,,,,,,,,,,,,,,,,,,,,,,,,,,,,,,,,,,,,,,,,,,,,,,,,,,,,,,,,,,,,,,,,,
,,60524a9ece19f6b376473cf7,2026-03-17_10h23.09.911,kallum_motion_pilot_GIST_update_2,2026.1.1,Win32,59.52380952,60524a9ece19f6b376473cf7,69b92ab4aef6dee357cd729a,69b92b73b25b51bf5ac41016,0.0221,0.0221,0,48,48,94,1,eightsix,,,,,,,,,,,,,,,,,,,,,,,,,,,,,,,,,,,,,,,,,,,,,,,,,,,,,,,,,,,,,,,,,,,,,,,,,,,,,,,,,,,,,,,,,,,,,,,,,,,,,,,,,,,,,,,,,,,,,,,,,,,,,,,,,,,,,,,,,
,,60524a9ece19f6b376473cf7,2026-03-17_10h23.09.911,kallum_motion_pilot_GIST_update_2,2026.1.1,Win32,59.52380952,60524a9ece19f6b376473cf7,69b92ab4aef6dee357cd729a,69b92b73b25b51bf5ac41016,0.0221,0.0221,0,49,49,93,1,seveneight,,,,,,,,,,,,,,,,,,,,,,,,,,,,,,,,,,,,,,,,,,,,,,,,,,,,,,,,,,,,,,,,,,,,,,,,,,,,,,,,,,,,,,,,,,,,,,,,,,,,,,,,,,,,,,,,,,,,,,,,,,,,,,,,,,,,,,,,,
,,60524a9ece19f6b376473cf7,2026-03-17_10h23.09.911,kallum_motion_pilot_GIST_update_2,2026.1.1,Win32,59.52380952,60524a9ece19f6b376473cf7,69b92ab4aef6dee357cd729a,69b92b73b25b51bf5ac41016,0.0222,0.0222,0,50,50,143,1,eightseven,,,,,,,,,,,,,,,,,,,,,,,,,,,,,,,,,,,,,,,,,,,,,,,,,,,,,,,,,,,,,,,,,,,,,,,,,,,,,,,,,,,,,,,,,,,,,,,,,,,,,,,,,,,,,,,,,,,,,,,,,,,,,,,,,,,,,,,,,
,,60524a9ece19f6b376473cf7,2026-03-17_10h23.09.911,kallum_motion_pilot_GIST_update_2,2026.1.1,Win32,59.52380952,60524a9ece19f6b376473cf7,69b92ab4aef6dee357cd729a,69b92b73b25b51bf5ac41016,0.0223,0.0223,0,51,51,156,1,sevenfive,,,,,,,,,,,,,,,,,,,,,,,,,,,,,,,,,,,,,,,,,,,,,,,,,,,,,,,,,,,,,,,,,,,,,,,,,,,,,,,,,,,,,,,,,,,,,,,,,,,,,,,,,,,,,,,,,,,,,,,,,,,,,,,,,,,,,,,,,
,,60524a9ece19f6b376473cf7,2026-03-17_10h23.09.911,kallum_motion_pilot_GIST_update_2,2026.1.1,Win32,59.52380952,60524a9ece19f6b376473cf7,69b92ab4aef6dee357cd729a,69b92b73b25b51bf5ac41016,0.0224,0.0224,0,52,52,10,1,twoone,,,,,,,,,,,,,,,,,,,,,,,,,,,,,,,,,,,,,,,,,,,,,,,,,,,,,,,,,,,,,,,,,,,,,,,,,,,,,,,,,,,,,,,,,,,,,,,,,,,,,,,,,,,,,,,,,,,,,,,,,,,,,,,,,,,,,,,,,
,,60524a9ece19f6b376473cf7,2026-03-17_10h23.09.911,kallum_motion_pilot_GIST_update_2,2026.1.1,Win32,59.52380952,60524a9ece19f6b376473cf7,69b92ab4aef6dee357cd729a,69b92b73b25b51bf5ac41016,0.0224,0.0224,0,53,53,139,1,sixeight,,,,,,,,,,,,,,,,,,,,,,,,,,,,,,,,,,,,,,,,,,,,,,,,,,,,,,,,,,,,,,,,,,,,,,,,,,,,,,,,,,,,,,,,,,,,,,,,,,,,,,,,,,,,,,,,,,,,,,,,,,,,,,,,,,,,,,,,,
,,60524a9ece19f6b376473cf7,2026-03-17_10h23.09.911,kallum_motion_pilot_GIST_update_2,2026.1.1,Win32,59.52380952,60524a9ece19f6b376473cf7,69b92ab4aef6dee357cd729a,69b92b73b25b51bf5ac41016,0.0226,0.0226,0,54,54,87,1,eightseven,,,,,,,,,,,,,,,,,,,,,,,,,,,,,,,,,,,,,,,,,,,,,,,,,,,,,,,,,,,,,,,,,,,,,,,,,,,,,,,,,,,,,,,,,,,,,,,,,,,,,,,,,,,,,,,,,,,,,,,,,,,,,,,,,,,,,,,,,
,,60524a9ece19f6b376473cf7,2026-03-17_10h23.09.911,kallum_motion_pilot_GIST_update_2,2026.1.1,Win32,59.52380952,60524a9ece19f6b376473cf7,69b92ab4aef6dee357cd729a,69b92b73b25b51bf5ac41016,0.0226,0.0226,0,55,55,135,1,eightseven,,,,,,,,,,,,,,,,,,,,,,,,,,,,,,,,,,,,,,,,,,,,,,,,,,,,,,,,,,,,,,,,,,,,,,,,,,,,,,,,,,,,,,,,,,,,,,,,,,,,,,,,,,,,,,,,,,,,,,,,,,,,,,,,,,,,,,,,,
,,60524a9ece19f6b376473cf7,2026-03-17_10h23.09.911,kallum_motion_pilot_GIST_update_2,2026.1.1,Win32,59.52380952,60524a9ece19f6b376473cf7,69b92ab4aef6dee357cd729a,69b92b73b25b51bf5ac41016,0.0227,0.0227,0,56,56,20,1,threeone,,,,,,,,,,,,,,,,,,,,,,,,,,,,,,,,,,,,,,,,,,,,,,,,,,,,,,,,,,,,,,,,,,,,,,,,,,,,,,,,,,,,,,,,,,,,,,,,,,,,,,,,,,,,,,,,,,,,,,,,,,,,,,,,,,,,,,,,,
,,60524a9ece19f6b376473cf7,2026-03-17_10h23.09.911,kallum_motion_pilot_GIST_update_2,2026.1.1,Win32,59.52380952,60524a9ece19f6b376473cf7,69b92ab4aef6dee357cd729a,69b92b73b25b51bf5ac41016,0.0227,0.0228,0,57,57,160,1,fivesix,,,,,,,,,,,,,,,,,,,,,,,,,,,,,,,,,,,,,,,,,,,,,,,,,,,,,,,,,,,,,,,,,,,,,,,,,,,,,,,,,,,,,,,,,,,,,,,,,,,,,,,,,,,,,,,,,,,,,,,,,,,,,,,,,,,,,,,,,
,,60524a9ece19f6b376473cf7,2026-03-17_10h23.09.911,kallum_motion_pilot_GIST_update_2,2026.1.1,Win32,59.52380952,60524a9ece19f6b376473cf7,69b92ab4aef6dee357cd729a,69b92b73b25b51bf5ac41016,0.0228,0.0228,0,58,58,36,1,threeone,,,,,,,,,,,,,,,,,,,,,,,,,,,,,,,,,,,,,,,,,,,,,,,,,,,,,,,,,,,,,,,,,,,,,,,,,,,,,,,,,,,,,,,,,,,,,,,,,,,,,,,,,,,,,,,,,,,,,,,,,,,,,,,,,,,,,,,,,
,,60524a9ece19f6b376473cf7,2026-03-17_10h23.09.911,kallum_motion_pilot_GIST_update_2,2026.1.1,Win32,59.52380952,60524a9ece19f6b376473cf7,69b92ab4aef6dee357cd729a,69b92b73b25b51bf5ac41016,0.0229,0.0229,0,59,59,152,1,fivesix,,,,,,,,,,,,,,,,,,,,,,,,,,,,,,,,,,,,,,,,,,,,,,,,,,,,,,,,,,,,,,,,,,,,,,,,,,,,,,,,,,,,,,,,,,,,,,,,,,,,,,,,,,,,,,,,,,,,,,,,,,,,,,,,,,,,,,,,,
,,60524a9ece19f6b376473cf7,2026-03-17_10h23.09.911,kallum_motion_pilot_GIST_update_2,2026.1.1,Win32,59.52380952,60524a9ece19f6b376473cf7,69b92ab4aef6dee357cd729a,69b92b73b25b51bf5ac41016,0.0229,0.0229,0,60,60,71,1,fourthree,,,,,,,,,,,,,,,,,,,,,,,,,,,,,,,,,,,,,,,,,,,,,,,,,,,,,,,,,,,,,,,,,,,,,,,,,,,,,,,,,,,,,,,,,,,,,,,,,,,,,,,,,,,,,,,,,,,,,,,,,,,,,,,,,,,,,,,,,
,,60524a9ece19f6b376473cf7,2026-03-17_10h23.09.911,kallum_motion_pilot_GIST_update_2,2026.1.1,Win32,59.52380952,60524a9ece19f6b376473cf7,69b92ab4aef6dee357cd729a,69b92b73b25b51bf5ac41016,0.023,0.023,0,61,61,39,1,fourthree,,,,,,,,,,,,,,,,,,,,,,,,,,,,,,,,,,,,,,,,,,,,,,,,,,,,,,,,,,,,,,,,,,,,,,,,,,,,,,,,,,,,,,,,,,,,,,,,,,,,,,,,,,,,,,,,,,,,,,,,,,,,,,,,,,,,,,,,,
,,60524a9ece19f6b376473cf7,2026-03-17_10h23.09.911,kallum_motion_pilot_GIST_update_2,2026.1.1,Win32,59.52380952,60524a9ece19f6b376473cf7,69b92ab4aef6dee357cd729a,69b92b73b25b51bf5ac41016,0.0231,0.0231,0,62,62,3,1,twofour,,,,,,,,,,,,,,,,,,,,,,,,,,,,,,,,,,,,,,,,,,,,,,,,,,,,,,,,,,,,,,,,,,,,,,,,,,,,,,,,,,,,,,,,,,,,,,,,,,,,,,,,,,,,,,,,,,,,,,,,,,,,,,,,,,,,,,,,,
,,60524a9ece19f6b376473cf7,2026-03-17_10h23.09.911,kallum_motion_pilot_GIST_update_2,2026.1.1,Win32,59.52380952,60524a9ece19f6b376473cf7,69b92ab4aef6dee357cd729a,69b92b73b25b51bf5ac41016,0.0231,0.0231,0,63,63,69,1,threefour,,,,,,,,,,,,,,,,,,,,,,,,,,,,,,,,,,,,,,,,,,,,,,,,,,,,,,,,,,,,,,,,,,,,,,,,,,,,,,,,,,,,,,,,,,,,,,,,,,,,,,,,,,,,,,,,,,,,,,,,,,,,,,,,,,,,,,,,,
,,60524a9ece19f6b376473cf7,2026-03-17_10h23.09.911,kallum_motion_pilot_GIST_update_2,2026.1.1,Win32,59.52380952,60524a9ece19f6b376473cf7,69b92ab4aef6dee357cd729a,69b92b73b25b51bf5ac41016,0.0233,0.0233,0,64,64,114,1,sixfive,,,,,,,,,,,,,,,,,,,,,,,,,,,,,,,,,,,,,,,,,,,,,,,,,,,,,,,,,,,,,,,,,,,,,,,,,,,,,,,,,,,,,,,,,,,,,,,,,,,,,,,,,,,,,,,,,,,,,,,,,,,,,,,,,,,,,,,,,
,,60524a9ece19f6b376473cf7,2026-03-17_10h23.09.911,kallum_motion_pilot_GIST_update_2,2026.1.1,Win32,59.52380952,60524a9ece19f6b376473cf7,69b92ab4aef6dee357cd729a,69b92b73b25b51bf5ac41016,0.0233,0.0233,0,65,65,79,1,eightseven,,,,,,,,,,,,,,,,,,,,,,,,,,,,,,,,,,,,,,,,,,,,,,,,,,,,,,,,,,,,,,,,,,,,,,,,,,,,,,,,,,,,,,,,,,,,,,,,,,,,,,,,,,,,,,,,,,,,,,,,,,,,,,,,,,,,,,,,,
,,60524a9ece19f6b376473cf7,2026-03-17_10h23.09.911,kallum_motion_pilot_GIST_update_2,2026.1.1,Win32,59.52380952,60524a9ece19f6b376473cf7,69b92ab4aef6dee357cd729a,69b92b73b25b51bf5ac41016,0.0235,0.0235,0,66,66,131,1,sixeight,,,,,,,,,,,,,,,,,,,,,,,,,,,,,,,,,,,,,,,,,,,,,,,,,,,,,,,,,,,,,,,,,,,,,,,,,,,,,,,,,,,,,,,,,,,,,,,,,,,,,,,,,,,,,,,,,,,,,,,,,,,,,,,,,,,,,,,,,
,,60524a9ece19f6b376473cf7,2026-03-17_10h23.09.911,kallum_motion_pilot_GIST_update_2,2026.1.1,Win32,59.52380952,60524a9ece19f6b376473cf7,69b92ab4aef6dee357cd729a,69b92b73b25b51bf5ac41016,0.0235,0.0235,0,67,67,84,1,sevenfive,,,,,,,,,,,,,,,,,,,,,,,,,,,,,,,,,,,,,,,,,,,,,,,,,,,,,,,,,,,,,,,,,,,,,,,,,,,,,,,,,,,,,,,,,,,,,,,,,,,,,,,,,,,,,,,,,,,,,,,,,,,,,,,,,,,,,,,,,
,,60524a9ece19f6b376473cf7,2026-03-17_10h23.09.911,kallum_motion_pilot_GIST_update_2,2026.1.1,Win32,59.52380952,60524a9ece19f6b376473cf7,69b92ab4aef6dee357cd729a,69b92b73b25b51bf5ac41016,0.0237,0.0237,0,68,68,157,1,seveneight,,,,,,,,,,,,,,,,,,,,,,,,,,,,,,,,,,,,,,,,,,,,,,,,,,,,,,,,,,,,,,,,,,,,,,,,,,,,,,,,,,,,,,,,,,,,,,,,,,,,,,,,,,,,,,,,,,,,,,,,,,,,,,,,,,,,,,,,,
,,60524a9ece19f6b376473cf7,2026-03-17_10h23.09.911,kallum_motion_pilot_GIST_update_2,2026.1.1,Win32,59.52380952,60524a9ece19f6b376473cf7,69b92ab4aef6dee357cd729a,69b92b73b25b51bf5ac41016,0.0237,0.0237,0,69,69,138,1,sixfive,,,,,,,,,,,,,,,,,,,,,,,,,,,,,,,,,,,,,,,,,,,,,,,,,,,,,,,,,,,,,,,,,,,,,,,,,,,,,,,,,,,,,,,,,,,,,,,,,,,,,,,,,,,,,,,,,,,,,,,,,,,,,,,,,,,,,,,,,
,,60524a9ece19f6b376473cf7,2026-03-17_10h23.09.911,kallum_motion_pilot_GIST_update_2,2026.1.1,Win32,59.52380952,60524a9ece19f6b376473cf7,69b92ab4aef6dee357cd729a,69b92b73b25b51bf5ac41016,0.0238,0.0238,0,70,70,76,1,threeone,,,,,,,,,,,,,,,,,,,,,,,,,,,,,,,,,,,,,,,,,,,,,,,,,,,,,,,,,,,,,,,,,,,,,,,,,,,,,,,,,,,,,,,,,,,,,,,,,,,,,,,,,,,,,,,,,,,,,,,,,,,,,,,,,,,,,,,,,
,,60524a9ece19f6b376473cf7,2026-03-17_10h23.09.911,kallum_motion_pilot_GIST_update_2,2026.1.1,Win32,59.52380952,60524a9ece19f6b376473cf7,69b92ab4aef6dee357cd729a,69b92b73b25b51bf5ac41016,0.0239,0.0239,0,71,71,101,1,seveneight,,,,,,,,,,,,,,,,,,,,,,,,,,,,,,,,,,,,,,,,,,,,,,,,,,,,,,,,,,,,,,,,,,,,,,,,,,,,,,,,,,,,,,,,,,,,,,,,,,,,,,,,,,,,,,,,,,,,,,,,,,,,,,,,,,,,,,,,,
,,60524a9ece19f6b376473cf7,2026-03-17_10h23.09.911,kallum_motion_pilot_GIST_update_2,2026.1.1,Win32,59.52380952,60524a9ece19f6b376473cf7,69b92ab4aef6dee357cd729a,69b92b73b25b51bf5ac41016,0.0239,0.0239,0,72,72,62,1,fourtwo,,,,,,,,,,,,,,,,,,,,,,,,,,,,,,,,,,,,,,,,,,,,,,,,,,,,,,,,,,,,,,,,,,,,,,,,,,,,,,,,,,,,,,,,,,,,,,,,,,,,,,,,,,,,,,,,,,,,,,,,,,,,,,,,,,,,,,,,,
,,60524a9ece19f6b376473cf7,2026-03-17_10h23.09.911,kallum_motion_pilot_GIST_update_2,2026.1.1,Win32,59.52380952,60524a9ece19f6b376473cf7,69b92ab4aef6dee357cd729a,69b92b73b25b51bf5ac41016,0.024,0.024,0,73,73,96,1,fivesix,,,,,,,,,,,,,,,,,,,,,,,,,,,,,,,,,,,,,,,,,,,,,,,,,,,,,,,,,,,,,,,,,,,,,,,,,,,,,,,,,,,,,,,,,,,,,,,,,,,,,,,,,,,,,,,,,,,,,,,,,,,,,,,,,,,,,,,,,
,,60524a9ece19f6b376473cf7,2026-03-17_10h23.09.911,kallum_motion_pilot_GIST_update_2,2026.1.1,Win32,59.52380952,60524a9ece19f6b376473cf7,69b92ab4aef6dee357cd729a,69b92b73b25b51bf5ac41016,0.0241,0.0241,0,74,74,40,1,onetwo,,,,,,,,,,,,,,,,,,,,,,,,,,,,,,,,,,,,,,,,,,,,,,,,,,,,,,,,,,,,,,,,,,,,,,,,,,,,,,,,,,,,,,,,,,,,,,,,,,,,,,,,,,,,,,,,,,,,,,,,,,,,,,,,,,,,,,,,,
,,60524a9ece19f6b376473cf7,2026-03-17_10h23.09.911,kallum_motion_pilot_GIST_update_2,2026.1.1,Win32,59.52380952,60524a9ece19f6b376473cf7,69b92ab4aef6dee357cd729a,69b92b73b25b51bf5ac41016,0.0241,0.0241,0,75,75,85,1,seveneight,,,,,,,,,,,,,,,,,,,,,,,,,,,,,,,,,,,,,,,,,,,,,,,,,,,,,,,,,,,,,,,,,,,,,,,,,,,,,,,,,,,,,,,,,,,,,,,,,,,,,,,,,,,,,,,,,,,,,,,,,,,,,,,,,,,,,,,,,
,,60524a9ece19f6b376473cf7,2026-03-17_10h23.09.911,kallum_motion_pilot_GIST_update_2,2026.1.1,Win32,59.52380952,60524a9ece19f6b376473cf7,69b92ab4aef6dee357cd729a,69b92b73b25b51bf5ac41016,0.0242,0.0242,0,76,76,42,1,twoone,,,,,,,,,,,,,,,,,,,,,,,,,,,,,,,,,,,,,,,,,,,,,,,,,,,,,,,,,,,,,,,,,,,,,,,,,,,,,,,,,,,,,,,,,,,,,,,,,,,,,,,,,,,,,,,,,,,,,,,,,,,,,,,,,,,,,,,,,
,,60524a9ece19f6b376473cf7,2026-03-17_10h23.09.911,kallum_motion_pilot_GIST_update_2,2026.1.1,Win32,59.52380952,60524a9ece19f6b376473cf7,69b92ab4aef6dee357cd729a,69b92b73b25b51bf5ac41016,0.0243,0.0243,0,77,77,91,1,sixeight,,,,,,,,,,,,,,,,,,,,,,,,,,,,,,,,,,,,,,,,,,,,,,,,,,,,,,,,,,,,,,,,,,,,,,,,,,,,,,,,,,,,,,,,,,,,,,,,,,,,,,,,,,,,,,,,,,,,,,,,,,,,,,,,,,,,,,,,,
,,60524a9ece19f6b376473cf7,2026-03-17_10h23.09.911,kallum_motion_pilot_GIST_update_2,2026.1.1,Win32,59.52380952,60524a9ece19f6b376473cf7,69b92ab4aef6dee357cd729a,69b92b73b25b51bf5ac41016,0.0243,0.0243,0,78,78,161,1,fiveseven,,,,,,,,,,,,,,,,,,,,,,,,,,,,,,,,,,,,,,,,,,,,,,,,,,,,,,,,,,,,,,,,,,,,,,,,,,,,,,,,,,,,,,,,,,,,,,,,,,,,,,,,,,,,,,,,,,,,,,,,,,,,,,,,,,,,,,,,,
,,60524a9ece19f6b376473cf7,2026-03-17_10h23.09.911,kallum_motion_pilot_GIST_update_2,2026.1.1,Win32,59.52380952,60524a9ece19f6b376473cf7,69b92ab4aef6dee357cd729a,69b92b73b25b51bf5ac41016,0.0244,0.0244,0,79,79,18,1,twoone,,,,,,,,,,,,,,,,,,,,,,,,,,,,,,,,,,,,,,,,,,,,,,,,,,,,,,,,,,,,,,,,,,,,,,,,,,,,,,,,,,,,,,,,,,,,,,,,,,,,,,,,,,,,,,,,,,,,,,,,,,,,,,,,,,,,,,,,,
,,60524a9ece19f6b376473cf7,2026-03-17_10h23.09.911,kallum_motion_pilot_GIST_update_2,2026.1.1,Win32,59.52380952,60524a9ece19f6b376473cf7,69b92ab4aef6dee357cd729a,69b92b73b25b51bf5ac41016,0.0245,0.0245,0,80,80,88,1,fivesix,,,,,,,,,,,,,,,,,,,,,,,,,,,,,,,,,,,,,,,,,,,,,,,,,,,,,,,,,,,,,,,,,,,,,,,,,,,,,,,,,,,,,,,,,,,,,,,,,,,,,,,,,,,,,,,,,,,,,,,,,,,,,,,,,,,,,,,,,
,,60524a9ece19f6b376473cf7,2026-03-17_10h23.09.911,kallum_motion_pilot_GIST_update_2,2026.1.1,Win32,59.52380952,60524a9ece19f6b376473cf7,69b92ab4aef6dee357cd729a,69b92b73b25b51bf5ac41016,0.0246,0.0246,0,81,81,17,1,onethree,,,,,,,,,,,,,,,,,,,,,,,,,,,,,,,,,,,,,,,,,,,,,,,,,,,,,,,,,,,,,,,,,,,,,,,,,,,,,,,,,,,,,,,,,,,,,,,,,,,,,,,,,,,,,,,,,,,,,,,,,,,,,,,,,,,,,,,,,
,,60524a9ece19f6b376473cf7,2026-03-17_10h23.09.911,kallum_motion_pilot_GIST_update_2,2026.1.1,Win32,59.52380952,60524a9ece19f6b376473cf7,69b92ab4aef6dee357cd729a,69b92b73b25b51bf5ac41016,0.0246,0.0247,0,82,82,6,1,fourtwo,,,,,,,,,,,,,,,,,,,,,,,,,,,,,,,,,,,,,,,,,,,,,,,,,,,,,,,,,,,,,,,,,,,,,,,,,,,,,,,,,,,,,,,,,,,,,,,,,,,,,,,,,,,,,,,,,,,,,,,,,,,,,,,,,,,,,,,,,
,,60524a9ece19f6b376473cf7,2026-03-17_10h23.09.911,kallum_motion_pilot_GIST_update_2,2026.1.1,Win32,59.52380952,60524a9ece19f6b376473cf7,69b92ab4aef6dee357cd729a,69b92b73b25b51bf5ac41016,0.0247,0.0247,0,83,83,136,1,fivesix,,,,,,,,,,,,,,,,,,,,,,,,,,,,,,,,,,,,,,,,,,,,,,,,,,,,,,,,,,,,,,,,,,,,,,,,,,,,,,,,,,,,,,,,,,,,,,,,,,,,,,,,,,,,,,,,,,,,,,,,,,,,,,,,,,,,,,,,,
,,60524a9ece19f6b376473cf7,2026-03-17_10h23.09.911,kallum_motion_pilot_GIST_update_2,2026.1.1,Win32,59.52380952,60524a9ece19f6b376473cf7,69b92ab4aef6dee357cd729a,69b92b73b25b51bf5ac41016,0.0248,0.0248,0,84,84,150,1,eightsix,,,,,,,,,,,,,,,,,,,,,,,,,,,,,,,,,,,,,,,,,,,,,,,,,,,,,,,,,,,,,,,,,,,,,,,,,,,,,,,,,,,,,,,,,,,,,,,,,,,,,,,,,,,,,,,,,,,,,,,,,,,,,,,,,,,,,,,,,
,,60524a9ece19f6b376473cf7,2026-03-17_10h23.09.911,kallum_motion_pilot_GIST_update_2,2026.1.1,Win32,59.52380952,60524a9ece19f6b376473cf7,69b92ab4aef6dee357cd729a,69b92b73b25b51bf5ac41016,0.0248,0.0248,0,85,85,12,1,threeone,,,,,,,,,,,,,,,,,,,,,,,,,,,,,,,,,,,,,,,,,,,,,,,,,,,,,,,,,,,,,,,,,,,,,,,,,,,,,,,,,,,,,,,,,,,,,,,,,,,,,,,,,,,,,,,,,,,,,,,,,,,,,,,,,,,,,,,,,
,,60524a9ece19f6b376473cf7,2026-03-17_10h23.09.911,kallum_motion_pilot_GIST_update_2,2026.1.1,Win32,59.52380952,60524a9ece19f6b376473cf7,69b92ab4aef6dee357cd729a,69b92b73b25b51bf5ac41016,0.0249,0.0249,0,86,86,57,1,onethree,,,,,,,,,,,,,,,,,,,,,,,,,,,,,,,,,,,,,,,,,,,,,,,,,,,,,,,,,,,,,,,,,,,,,,,,,,,,,,,,,,,,,,,,,,,,,,,,,,,,,,,,,,,,,,,,,,,,,,,,,,,,,,,,,,,,,,,,,
,,60524a9ece19f6b376473cf7,2026-03-17_10h23.09.911,kallum_motion_pilot_GIST_update_2,2026.1.1,Win32,59.52380952,60524a9ece19f6b376473cf7,69b92ab4aef6dee357cd729a,69b92b73b25b51bf5ac41016,0.025,0.025,0,87,87,28,1,threeone,,,,,,,,,,,,,,,,,,,,,,,,,,,,,,,,,,,,,,,,,,,,,,,,,,,,,,,,,,,,,,,,,,,,,,,,,,,,,,,,,,,,,,,,,,,,,,,,,,,,,,,,,,,,,,,,,,,,,,,,,,,,,,,,,,,,,,,,,
,,60524a9ece19f6b376473cf7,2026-03-17_10h23.09.911,kallum_motion_pilot_GIST_update_2,2026.1.1,Win32,59.52380952,60524a9ece19f6b376473cf7,69b92ab4aef6dee357cd729a,69b92b73b25b51bf5ac41016,0.0251,0.0251,0,88,88,4,1,threeone,,,,,,,,,,,,,,,,,,,,,,,,,,,,,,,,,,,,,,,,,,,,,,,,,,,,,,,,,,,,,,,,,,,,,,,,,,,,,,,,,,,,,,,,,,,,,,,,,,,,,,,,,,,,,,,,,,,,,,,,,,,,,,,,,,,,,,,,,
,,60524a9ece19f6b376473cf7,2026-03-17_10h23.09.911,kallum_motion_pilot_GIST_update_2,2026.1.1,Win32,59.52380952,60524a9ece19f6b376473cf7,69b92ab4aef6dee357cd729a,69b92b73b25b51bf5ac41016,0.0251,0.0251,0,89,89,64,1,onetwo,,,,,,,,,,,,,,,,,,,,,,,,,,,,,,,,,,,,,,,,,,,,,,,,,,,,,,,,,,,,,,,,,,,,,,,,,,,,,,,,,,,,,,,,,,,,,,,,,,,,,,,,,,,,,,,,,,,,,,,,,,,,,,,,,,,,,,,,,
,,60524a9ece19f6b376473cf7,2026-03-17_10h23.09.911,kallum_motion_pilot_GIST_update_2,2026.1.1,Win32,59.52380952,60524a9ece19f6b376473cf7,69b92ab4aef6dee357cd729a,69b92b73b25b51bf5ac41016,0.0252,0.0252,0,90,90,95,1,eightseven,,,,,,,,,,,,,,,,,,,,,,,,,,,,,,,,,,,,,,,,,,,,,,,,,,,,,,,,,,,,,,,,,,,,,,,,,,,,,,,,,,,,,,,,,,,,,,,,,,,,,,,,,,,,,,,,,,,,,,,,,,,,,,,,,,,,,,,,,
,,60524a9ece19f6b376473cf7,2026-03-17_10h23.09.911,kallum_motion_pilot_GIST_update_2,2026.1.1,Win32,59.52380952,60524a9ece19f6b376473cf7,69b92ab4aef6dee357cd729a,69b92b73b25b51bf5ac41016,0.0253,0.0253,0,91,91,0,1,onetwo,,,,,,,,,,,,,,,,,,,,,,,,,,,,,,,,,,,,,,,,,,,,,,,,,,,,,,,,,,,,,,,,,,,,,,,,,,,,,,,,,,,,,,,,,,,,,,,,,,,,,,,,,,,,,,,,,,,,,,,,,,,,,,,,,,,,,,,,,
,,60524a9ece19f6b376473cf7,2026-03-17_10h23.09.911,kallum_motion_pilot_GIST_update_2,2026.1.1,Win32,59.52380952,60524a9ece19f6b376473cf7,69b92ab4aef6dee357cd729a,69b92b73b25b51bf5ac41016,0.0253,0.0253,0,92,92,117,1,seveneight,,,,,,,,,,,,,,,,,,,,,,,,,,,,,,,,,,,,,,,,,,,,,,,,,,,,,,,,,,,,,,,,,,,,,,,,,,,,,,,,,,,,,,,,,,,,,,,,,,,,,,,,,,,,,,,,,,,,,,,,,,,,,,,,,,,,,,,,,
,,60524a9ece19f6b376473cf7,2026-03-17_10h23.09.911,kallum_motion_pilot_GIST_update_2,2026.1.1,Win32,59.52380952,60524a9ece19f6b376473cf7,69b92ab4aef6dee357cd729a,69b92b73b25b51bf5ac41016,0.0255,0.0255,0,93,93,123,1,sixeight,,,,,,,,,,,,,,,,,,,,,,,,,,,,,,,,,,,,,,,,,,,,,,,,,,,,,,,,,,,,,,,,,,,,,,,,,,,,,,,,,,,,,,,,,,,,,,,,,,,,,,,,,,,,,,,,,,,,,,,,,,,,,,,,,,,,,,,,,
,,60524a9ece19f6b376473cf7,2026-03-17_10h23.09.911,kallum_motion_pilot_GIST_update_2,2026.1.1,Win32,59.52380952,60524a9ece19f6b376473cf7,69b92ab4aef6dee357cd729a,69b92b73b25b51bf5ac41016,0.0255,0.0256,0,94,94,112,1,fivesix,,,,,,,,,,,,,,,,,,,,,,,,,,,,,,,,,,,,,,,,,,,,,,,,,,,,,,,,,,,,,,,,,,,,,,,,,,,,,,,,,,,,,,,,,,,,,,,,,,,,,,,,,,,,,,,,,,,,,,,,,,,,,,,,,,,,,,,,,
,,60524a9ece19f6b376473cf7,2026-03-17_10h23.09.911,kallum_motion_pilot_GIST_update_2,2026.1.1,Win32,59.52380952,60524a9ece19f6b376473cf7,69b92ab4aef6dee357cd729a,69b92b73b25b51bf5ac41016,0.0256,0.0256,0,95,95,55,1,fourthree,,,,,,,,,,,,,,,,,,,,,,,,,,,,,,,,,,,,,,,,,,,,,,,,,,,,,,,,,,,,,,,,,,,,,,,,,,,,,,,,,,,,,,,,,,,,,,,,,,,,,,,,,,,,,,,,,,,,,,,,,,,,,,,,,,,,,,,,,
,,60524a9ece19f6b376473cf7,2026-03-17_10h23.09.911,kallum_motion_pilot_GIST_update_2,2026.1.1,Win32,59.52380952,60524a9ece19f6b376473cf7,69b92ab4aef6dee357cd729a,69b92b73b25b51bf5ac41016,0.0257,0.0257,0,96,96,141,1,seveneight,,,,,,,,,,,,,,,,,,,,,,,,,,,,,,,,,,,,,,,,,,,,,,,,,,,,,,,,,,,,,,,,,,,,,,,,,,,,,,,,,,,,,,,,,,,,,,,,,,,,,,,,,,,,,,,,,,,,,,,,,,,,,,,,,,,,,,,,,
,,60524a9ece19f6b376473cf7,2026-03-17_10h23.09.911,kallum_motion_pilot_GIST_update_2,2026.1.1,Win32,59.52380952,60524a9ece19f6b376473cf7,69b92ab4aef6dee357cd729a,69b92b73b25b51bf5ac41016,0.0258,0.0258,0,97,97,103,1,eightseven,,,,,,,,,,,,,,,,,,,,,,,,,,,,,,,,,,,,,,,,,,,,,,,,,,,,,,,,,,,,,,,,,,,,,,,,,,,,,,,,,,,,,,,,,,,,,,,,,,,,,,,,,,,,,,,,,,,,,,,,,,,,,,,,,,,,,,,,,
,,60524a9ece19f6b376473cf7,2026-03-17_10h23.09.911,kallum_motion_pilot_GIST_update_2,2026.1.1,Win32,59.52380952,60524a9ece19f6b376473cf7,69b92ab4aef6dee357cd729a,69b92b73b25b51bf5ac41016,0.0259,0.0259,0,98,98,45,1,threefour,,,,,,,,,,,,,,,,,,,,,,,,,,,,,,,,,,,,,,,,,,,,,,,,,,,,,,,,,,,,,,,,,,,,,,,,,,,,,,,,,,,,,,,,,,,,,,,,,,,,,,,,,,,,,,,,,,,,,,,,,,,,,,,,,,,,,,,,,
,,60524a9ece19f6b376473cf7,2026-03-17_10h23.09.911,kallum_motion_pilot_GIST_update_2,2026.1.1,Win32,59.52380952,60524a9ece19f6b376473cf7,69b92ab4aef6dee357cd729a,69b92b73b25b51bf5ac41016,0.0259,0.0259,0,99,99,35,1,twofour,,,,,,,,,,,,,,,,,,,,,,,,,,,,,,,,,,,,,,,,,,,,,,,,,,,,,,,,,,,,,,,,,,,,,,,,,,,,,,,,,,,,,,,,,,,,,,,,,,,,,,,,,,,,,,,,,,,,,,,,,,,,,,,,,,,,,,,,,
,,60524a9ece19f6b376473cf7,2026-03-17_10h23.09.911,kallum_motion_pilot_GIST_update_2,2026.1.1,Win32,59.52380952,60524a9ece19f6b376473cf7,69b92ab4aef6dee357cd729a,69b92b73b25b51bf5ac41016,0.026,0.026,0,100,100,48,1,onetwo,,,,,,,,,,,,,,,,,,,,,,,,,,,,,,,,,,,,,,,,,,,,,,,,,,,,,,,,,,,,,,,,,,,,,,,,,,,,,,,,,,,,,,,,,,,,,,,,,,,,,,,,,,,,,,,,,,,,,,,,,,,,,,,,,,,,,,,,,
,,60524a9ece19f6b376473cf7,2026-03-17_10h23.09.911,kallum_motion_pilot_GIST_update_2,2026.1.1,Win32,59.52380952,60524a9ece19f6b376473cf7,69b92ab4aef6dee357cd729a,69b92b73b25b51bf5ac41016,0.0261,0.0261,0,101,101,7,1,fourthree,,,,,,,,,,,,,,,,,,,,,,,,,,,,,,,,,,,,,,,,,,,,,,,,,,,,,,,,,,,,,,,,,,,,,,,,,,,,,,,,,,,,,,,,,,,,,,,,,,,,,,,,,,,,,,,,,,,,,,,,,,,,,,,,,,,,,,,,,
,,60524a9ece19f6b376473cf7,2026-03-17_10h23.09.911,kallum_motion_pilot_GIST_update_2,2026.1.1,Win32,59.52380952,60524a9ece19f6b376473cf7,69b92ab4aef6dee357cd729a,69b92b73b25b51bf5ac41016,0.0262,0.0262,0,102,102,153,1,fiveseven,,,,,,,,,,,,,,,,,,,,,,,,,,,,,,,,,,,,,,,,,,,,,,,,,,,,,,,,,,,,,,,,,,,,,,,,,,,,,,,,,,,,,,,,,,,,,,,,,,,,,,,,,,,,,,,,,,,,,,,,,,,,,,,,,,,,,,,,,
,,60524a9ece19f6b376473cf7,2026-03-17_10h23.09.911,kallum_motion_pilot_GIST_update_2,2026.1.1,Win32,59.52380952,60524a9ece19f6b376473cf7,69b92ab4aef6dee357cd729a,69b92b73b25b51bf5ac41016,0.0263,0.0263,0,103,103,37,1,threefour,,,,,,,,,,,,,,,,,,,,,,,,,,,,,,,,,,,,,,,,,,,,,,,,,,,,,,,,,,,,,,,,,,,,,,,,,,,,,,,,,,,,,,,,,,,,,,,,,,,,,,,,,,,,,,,,,,,,,,,,,,,,,,,,,,,,,,,,,
,,60524a9ece19f6b376473cf7,2026-03-17_10h23.09.911,kallum_motion_pilot_GIST_update_2,2026.1.1,Win32,59.52380952,60524a9ece19f6b376473cf7,69b92ab4aef6dee357cd729a,69b92b73b25b51bf5ac41016,0.0263,0.0263,0,104,104,2,1,twoone,,,,,,,,,,,,,,,,,,,,,,,,,,,,,,,,,,,,,,,,,,,,,,,,,,,,,,,,,,,,,,,,,,,,,,,,,,,,,,,,,,,,,,,,,,,,,,,,,,,,,,,,,,,,,,,,,,,,,,,,,,,,,,,,,,,,,,,,,
,,60524a9ece19f6b376473cf7,2026-03-17_10h23.09.911,kallum_motion_pilot_GIST_update_2,2026.1.1,Win32,59.52380952,60524a9ece19f6b376473cf7,69b92ab4aef6dee357cd729a,69b92b73b25b51bf5ac41016,0.0264,0.0264,0,105,105,43,1,twofour,,,,,,,,,,,,,,,,,,,,,,,,,,,,,,,,,,,,,,,,,,,,,,,,,,,,,,,,,,,,,,,,,,,,,,,,,,,,,,,,,,,,,,,,,,,,,,,,,,,,,,,,,,,,,,,,,,,,,,,,,,,,,,,,,,,,,,,,,
,,60524a9ece19f6b376473cf7,2026-03-17_10h23.09.911,kallum_motion_pilot_GIST_update_2,2026.1.1,Win32,59.52380952,60524a9ece19f6b376473cf7,69b92ab4aef6dee357cd729a,69b92b73b25b51bf5ac41016,0.0264,0.0264,0,106,106,24,1,onetwo,,,,,,,,,,,,,,,,,,,,,,,,,,,,,,,,,,,,,,,,,,,,,,,,,,,,,,,,,,,,,,,,,,,,,,,,,,,,,,,,,,,,,,,,,,,,,,,,,,,,,,,,,,,,,,,,,,,,,,,,,,,,,,,,,,,,,,,,,
,,60524a9ece19f6b376473cf7,2026-03-17_10h23.09.911,kallum_motion_pilot_GIST_update_2,2026.1.1,Win32,59.52380952,60524a9ece19f6b376473cf7,69b92ab4aef6dee357cd729a,69b92b73b25b51bf5ac41016,0.0266,0.0266,0,107,107,11,1,twofour,,,,,,,,,,,,,,,,,,,,,,,,,,,,,,,,,,,,,,,,,,,,,,,,,,,,,,,,,,,,,,,,,,,,,,,,,,,,,,,,,,,,,,,,,,,,,,,,,,,,,,,,,,,,,,,,,,,,,,,,,,,,,,,,,,,,,,,,,
,,60524a9ece19f6b376473cf7,2026-03-17_10h23.09.911,kallum_motion_pilot_GIST_update_2,2026.1.1,Win32,59.52380952,60524a9ece19f6b376473cf7,69b92ab4aef6dee357cd729a,69b92b73b25b51bf5ac41016,0.0266,0.0266,0,108,108,19,1,twofour,,,,,,,,,,,,,,,,,,,,,,,,,,,,,,,,,,,,,,,,,,,,,,,,,,,,,,,,,,,,,,,,,,,,,,,,,,,,,,,,,,,,,,,,,,,,,,,,,,,,,,,,,,,,,,,,,,,,,,,,,,,,,,,,,,,,,,,,,
,,60524a9ece19f6b376473cf7,2026-03-17_10h23.09.911,kallum_motion_pilot_GIST_update_2,2026.1.1,Win32,59.52380952,60524a9ece19f6b376473cf7,69b92ab4aef6dee357cd729a,69b92b73b25b51bf5ac41016,0.0267,0.0267,0,109,109,61,1,threefour,,,,,,,,,,,,,,,,,,,,,,,,,,,,,,,,,,,,,,,,,,,,,,,,,,,,,,,,,,,,,,,,,,,,,,,,,,,,,,,,,,,,,,,,,,,,,,,,,,,,,,,,,,,,,,,,,,,,,,,,,,,,,,,,,,,,,,,,,
,,60524a9ece19f6b376473cf7,2026-03-17_10h23.09.911,kallum_motion_pilot_GIST_update_2,2026.1.1,Win32,59.52380952,60524a9ece19f6b376473cf7,69b92ab4aef6dee357cd729a,69b92b73b25b51bf5ac41016,0.0268,0.0268,0,110,110,34,1,twoone,,,,,,,,,,,,,,,,,,,,,,,,,,,,,,,,,,,,,,,,,,,,,,,,,,,,,,,,,,,,,,,,,,,,,,,,,,,,,,,,,,,,,,,,,,,,,,,,,,,,,,,,,,,,,,,,,,,,,,,,,,,,,,,,,,,,,,,,,
,,60524a9ece19f6b376473cf7,2026-03-17_10h23.09.911,kallum_motion_pilot_GIST_update_2,2026.1.1,Win32,59.52380952,60524a9ece19f6b376473cf7,69b92ab4aef6dee357cd729a,69b92b73b25b51bf5ac41016,0.0268,0.0268,0,111,111,145,1,fiveseven,,,,,,,,,,,,,,,,,,,,,,,,,,,,,,,,,,,,,,,,,,,,,,,,,,,,,,,,,,,,,,,,,,,,,,,,,,,,,,,,,,,,,,,,,,,,,,,,,,,,,,,,,,,,,,,,,,,,,,,,,,,,,,,,,,,,,,,,,
,,60524a9ece19f6b376473cf7,2026-03-17_10h23.09.911,kallum_motion_pilot_GIST_update_2,2026.1.1,Win32,59.52380952,60524a9ece19f6b376473cf7,69b92ab4aef6dee357cd729a,69b92b73b25b51bf5ac41016,0.0269,0.0269,0,112,112,23,1,fourthree,,,,,,,,,,,,,,,,,,,,,,,,,,,,,,,,,,,,,,,,,,,,,,,,,,,,,,,,,,,,,,,,,,,,,,,,,,,,,,,,,,,,,,,,,,,,,,,,,,,,,,,,,,,,,,,,,,,,,,,,,,,,,,,,,,,,,,,,,
,,60524a9ece19f6b376473cf7,2026-03-17_10h23.09.911,kallum_motion_pilot_GIST_update_2,2026.1.1,Win32,59.52380952,60524a9ece19f6b376473cf7,69b92ab4aef6dee357cd729a,69b92b73b25b51bf5ac41016,0.027,0.027,0,113,113,83,1,sixeight,,,,,,,,,,,,,,,,,,,,,,,,,,,,,,,,,,,,,,,,,,,,,,,,,,,,,,,,,,,,,,,,,,,,,,,,,,,,,,,,,,,,,,,,,,,,,,,,,,,,,,,,,,,,,,,,,,,,,,,,,,,,,,,,,,,,,,,,,
,,60524a9ece19f6b376473cf7,2026-03-17_10h23.09.911,kallum_motion_pilot_GIST_update_2,2026.1.1,Win32,59.52380952,60524a9ece19f6b376473cf7,69b92ab4aef6dee357cd729a,69b92b73b25b51bf5ac41016,0.0271,0.0271,0,114,114,105,1,fiveseven,,,,,,,,,,,,,,,,,,,,,,,,,,,,,,,,,,,,,,,,,,,,,,,,,,,,,,,,,,,,,,,,,,,,,,,,,,,,,,,,,,,,,,,,,,,,,,,,,,,,,,,,,,,,,,,,,,,,,,,,,,,,,,,,,,,,,,,,,
,,60524a9ece19f6b376473cf7,2026-03-17_10h23.09.911,kallum_motion_pilot_GIST_update_2,2026.1.1,Win32,59.52380952,60524a9ece19f6b376473cf7,69b92ab4aef6dee357cd729a,69b92b73b25b51bf5ac41016,0.0271,0.0271,0,115,115,1,1,onethree,,,,,,,,,,,,,,,,,,,,,,,,,,,,,,,,,,,,,,,,,,,,,,,,,,,,,,,,,,,,,,,,,,,,,,,,,,,,,,,,,,,,,,,,,,,,,,,,,,,,,,,,,,,,,,,,,,,,,,,,,,,,,,,,,,,,,,,,,
,,60524a9ece19f6b376473cf7,2026-03-17_10h23.09.911,kallum_motion_pilot_GIST_update_2,2026.1.1,Win32,59.52380952,60524a9ece19f6b376473cf7,69b92ab4aef6dee357cd729a,69b92b73b25b51bf5ac41016,0.0271,0.0271,0,116,116,68,1,threeone,,,,,,,,,,,,,,,,,,,,,,,,,,,,,,,,,,,,,,,,,,,,,,,,,,,,,,,,,,,,,,,,,,,,,,,,,,,,,,,,,,,,,,,,,,,,,,,,,,,,,,,,,,,,,,,,,,,,,,,,,,,,,,,,,,,,,,,,,
,,60524a9ece19f6b376473cf7,2026-03-17_10h23.09.911,kallum_motion_pilot_GIST_update_2,2026.1.1,Win32,59.52380952,60524a9ece19f6b376473cf7,69b92ab4aef6dee357cd729a,69b92b73b25b51bf5ac41016,0.0272,0.0272,0,117,117,108,1,sevenfive,,,,,,,,,,,,,,,,,,,,,,,,,,,,,,,,,,,,,,,,,,,,,,,,,,,,,,,,,,,,,,,,,,,,,,,,,,,,,,,,,,,,,,,,,,,,,,,,,,,,,,,,,,,,,,,,,,,,,,,,,,,,,,,,,,,,,,,,,
,,60524a9ece19f6b376473cf7,2026-03-17_10h23.09.911,kallum_motion_pilot_GIST_update_2,2026.1.1,Win32,59.52380952,60524a9ece19f6b376473cf7,69b92ab4aef6dee357cd729a,69b92b73b25b51bf5ac41016,0.0273,0.0273,0,118,118,142,1,eightsix,,,,,,,,,,,,,,,,,,,,,,,,,,,,,,,,,,,,,,,,,,,,,,,,,,,,,,,,,,,,,,,,,,,,,,,,,,,,,,,,,,,,,,,,,,,,,,,,,,,,,,,,,,,,,,,,,,,,,,,,,,,,,,,,,,,,,,,,,
,,60524a9ece19f6b376473cf7,2026-03-17_10h23.09.911,kallum_motion_pilot_GIST_update_2,2026.1.1,Win32,59.52380952,60524a9ece19f6b376473cf7,69b92ab4aef6dee357cd729a,69b92b73b25b51bf5ac41016,0.0274,0.0274,0,119,119,107,1,sixeight,,,,,,,,,,,,,,,,,,,,,,,,,,,,,,,,,,,,,,,,,,,,,,,,,,,,,,,,,,,,,,,,,,,,,,,,,,,,,,,,,,,,,,,,,,,,,,,,,,,,,,,,,,,,,,,,,,,,,,,,,,,,,,,,,,,,,,,,,
,,60524a9ece19f6b376473cf7,2026-03-17_10h23.09.911,kallum_motion_pilot_GIST_update_2,2026.1.1,Win32,59.52380952,60524a9ece19f6b376473cf7,69b92ab4aef6dee357cd729a,69b92b73b25b51bf5ac41016,0.0275,0.0275,0,120,120,109,1,seveneight,,,,,,,,,,,,,,,,,,,,,,,,,,,,,,,,,,,,,,,,,,,,,,,,,,,,,,,,,,,,,,,,,,,,,,,,,,,,,,,,,,,,,,,,,,,,,,,,,,,,,,,,,,,,,,,,,,,,,,,,,,,,,,,,,,,,,,,,,
,,60524a9ece19f6b376473cf7,2026-03-17_10h23.09.911,kallum_motion_pilot_GIST_update_2,2026.1.1,Win32,59.52380952,60524a9ece19f6b376473cf7,69b92ab4aef6dee357cd729a,69b92b73b25b51bf5ac41016,0.0275,0.0275,0,121,121,151,1,eightseven,,,,,,,,,,,,,,,,,,,,,,,,,,,,,,,,,,,,,,,,,,,,,,,,,,,,,,,,,,,,,,,,,,,,,,,,,,,,,,,,,,,,,,,,,,,,,,,,,,,,,,,,,,,,,,,,,,,,,,,,,,,,,,,,,,,,,,,,,
,,60524a9ece19f6b376473cf7,2026-03-17_10h23.09.911,kallum_motion_pilot_GIST_update_2,2026.1.1,Win32,59.52380952,60524a9ece19f6b376473cf7,69b92ab4aef6dee357cd729a,69b92b73b25b51bf5ac41016,0.0276,0.0276,0,122,122,30,1,fourtwo,,,,,,,,,,,,,,,,,,,,,,,,,,,,,,,,,,,,,,,,,,,,,,,,,,,,,,,,,,,,,,,,,,,,,,,,,,,,,,,,,,,,,,,,,,,,,,,,,,,,,,,,,,,,,,,,,,,,,,,,,,,,,,,,,,,,,,,,,
,,60524a9ece19f6b376473cf7,2026-03-17_10h23.09.911,kallum_motion_pilot_GIST_update_2,2026.1.1,Win32,59.52380952,60524a9ece19f6b376473cf7,69b92ab4aef6dee357cd729a,69b92b73b25b51bf5ac41016,0.0277,0.0277,0,123,123,5,1,threefour,,,,,,,,,,,,,,,,,,,,,,,,,,,,,,,,,,,,,,,,,,,,,,,,,,,,,,,,,,,,,,,,,,,,,,,,,,,,,,,,,,,,,,,,,,,,,,,,,,,,,,,,,,,,,,,,,,,,,,,,,,,,,,,,,,,,,,,,,
,,60524a9ece19f6b376473cf7,2026-03-17_10h23.09.911,kallum_motion_pilot_GIST_update_2,2026.1.1,Win32,59.52380952,60524a9ece19f6b376473cf7,69b92ab4aef6dee357cd729a,69b92b73b25b51bf5ac41016,0.0278,0.0278,0,124,124,46,1,fourtwo,,,,,,,,,,,,,,,,,,,,,,,,,,,,,,,,,,,,,,,,,,,,,,,,,,,,,,,,,,,,,,,,,,,,,,,,,,,,,,,,,,,,,,,,,,,,,,,,,,,,,,,,,,,,,,,,,,,,,,,,,,,,,,,,,,,,,,,,,
,,60524a9ece19f6b376473cf7,2026-03-17_10h23.09.911,kallum_motion_pilot_GIST_update_2,2026.1.1,Win32,59.52380952,60524a9ece19f6b376473cf7,69b92ab4aef6dee357cd729a,69b92b73b25b51bf5ac41016,0.0278,0.0278,0,125,125,104,1,fivesix,,,,,,,,,,,,,,,,,,,,,,,,,,,,,,,,,,,,,,,,,,,,,,,,,,,,,,,,,,,,,,,,,,,,,,,,,,,,,,,,,,,,,,,,,,,,,,,,,,,,,,,,,,,,,,,,,,,,,,,,,,,,,,,,,,,,,,,,,
,,60524a9ece19f6b376473cf7,2026-03-17_10h23.09.911,kallum_motion_pilot_GIST_update_2,2026.1.1,Win32,59.52380952,60524a9ece19f6b376473cf7,69b92ab4aef6dee357cd729a,69b92b73b25b51bf5ac41016,0.0279,0.0279,0,126,126,120,1,fivesix,,,,,,,,,,,,,,,,,,,,,,,,,,,,,,,,,,,,,,,,,,,,,,,,,,,,,,,,,,,,,,,,,,,,,,,,,,,,,,,,,,,,,,,,,,,,,,,,,,,,,,,,,,,,,,,,,,,,,,,,,,,,,,,,,,,,,,,,,
,,60524a9ece19f6b376473cf7,2026-03-17_10h23.09.911,kallum_motion_pilot_GIST_update_2,2026.1.1,Win32,59.52380952,60524a9ece19f6b376473cf7,69b92ab4aef6dee357cd729a,69b92b73b25b51bf5ac41016,0.028,0.028,0,127,127,111,1,eightseven,,,,,,,,,,,,,,,,,,,,,,,,,,,,,,,,,,,,,,,,,,,,,,,,,,,,,,,,,,,,,,,,,,,,,,,,,,,,,,,,,,,,,,,,,,,,,,,,,,,,,,,,,,,,,,,,,,,,,,,,,,,,,,,,,,,,,,,,,
,,60524a9ece19f6b376473cf7,2026-03-17_10h23.09.911,kallum_motion_pilot_GIST_update_2,2026.1.1,Win32,59.52380952,60524a9ece19f6b376473cf7,69b92ab4aef6dee357cd729a,69b92b73b25b51bf5ac41016,0.0281,0.0281,0,128,128,86,1,eightsix,,,,,,,,,,,,,,,,,,,,,,,,,,,,,,,,,,,,,,,,,,,,,,,,,,,,,,,,,,,,,,,,,,,,,,,,,,,,,,,,,,,,,,,,,,,,,,,,,,,,,,,,,,,,,,,,,,,,,,,,,,,,,,,,,,,,,,,,,
,,60524a9ece19f6b376473cf7,2026-03-17_10h23.09.911,kallum_motion_pilot_GIST_update_2,2026.1.1,Win32,59.52380952,60524a9ece19f6b376473cf7,69b92ab4aef6dee357cd729a,69b92b73b25b51bf5ac41016,0.0281,0.0281,0,129,129,52,1,threeone,,,,,,,,,,,,,,,,,,,,,,,,,,,,,,,,,,,,,,,,,,,,,,,,,,,,,,,,,,,,,,,,,,,,,,,,,,,,,,,,,,,,,,,,,,,,,,,,,,,,,,,,,,,,,,,,,,,,,,,,,,,,,,,,,,,,,,,,,
,,60524a9ece19f6b376473cf7,2026-03-17_10h23.09.911,kallum_motion_pilot_GIST_update_2,2026.1.1,Win32,59.52380952,60524a9ece19f6b376473cf7,69b92ab4aef6dee357cd729a,69b92b73b25b51bf5ac41016,0.0283,0.0283,0,130,130,149,1,seveneight,,,,,,,,,,,,,,,,,,,,,,,,,,,,,,,,,,,,,,,,,,,,,,,,,,,,,,,,,,,,,,,,,,,,,,,,,,,,,,,,,,,,,,,,,,,,,,,,,,,,,,,,,,,,,,,,,,,,,,,,,,,,,,,,,,,,,,,,,
,,60524a9ece19f6b376473cf7,2026-03-17_10h23.09.911,kallum_motion_pilot_GIST_update_2,2026.1.1,Win32,59.52380952,60524a9ece19f6b376473cf7,69b92ab4aef6dee357cd729a,69b92b73b25b51bf5ac41016,0.0283,0.0283,0,131,131,110,1,eightsix,,,,,,,,,,,,,,,,,,,,,,,,,,,,,,,,,,,,,,,,,,,,,,,,,,,,,,,,,,,,,,,,,,,,,,,,,,,,,,,,,,,,,,,,,,,,,,,,,,,,,,,,,,,,,,,,,,,,,,,,,,,,,,,,,,,,,,,,,
,,60524a9ece19f6b376473cf7,2026-03-17_10h23.09.911,kallum_motion_pilot_GIST_update_2,2026.1.1,Win32,59.52380952,60524a9ece19f6b376473cf7,69b92ab4aef6dee357cd729a,69b92b73b25b51bf5ac41016,0.0284,0.0284,0,132,132,75,1,twofour,,,,,,,,,,,,,,,,,,,,,,,,,,,,,,,,,,,,,,,,,,,,,,,,,,,,,,,,,,,,,,,,,,,,,,,,,,,,,,,,,,,,,,,,,,,,,,,,,,,,,,,,,,,,,,,,,,,,,,,,,,,,,,,,,,,,,,,,,
,,60524a9ece19f6b376473cf7,2026-03-17_10h23.09.911,kallum_motion_pilot_GIST_update_2,2026.1.1,Win32,59.52380952,60524a9ece19f6b376473cf7,69b92ab4aef6dee357cd729a,69b92b73b25b51bf5ac41016,0.0285,0.0285,0,133,133,116,1,sevenfive,,,,,,,,,,,,,,,,,,,,,,,,,,,,,,,,,,,,,,,,,,,,,,,,,,,,,,,,,,,,,,,,,,,,,,,,,,,,,,,,,,,,,,,,,,,,,,,,,,,,,,,,,,,,,,,,,,,,,,,,,,,,,,,,,,,,,,,,,
,,60524a9ece19f6b376473cf7,2026-03-17_10h23.09.911,kallum_motion_pilot_GIST_update_2,2026.1.1,Win32,59.52380952,60524a9ece19f6b376473cf7,69b92ab4aef6dee357cd729a,69b92b73b25b51bf5ac41016,0.0286,0.0286,0,134,134,128,1,fivesix,,,,,,,,,,,,,,,,,,,,,,,,,,,,,,,,,,,,,,,,,,,,,,,,,,,,,,,,,,,,,,,,,,,,,,,,,,,,,,,,,,,,,,,,,,,,,,,,,,,,,,,,,,,,,,,,,,,,,,,,,,,,,,,,,,,,,,,,,
,,60524a9ece19f6b376473cf7,2026-03-17_10h23.09.911,kallum_motion_pilot_GIST_update_2,2026.1.1,Win32,59.52380952,60524a9ece19f6b376473cf7,69b92ab4aef6dee357cd729a,69b92b73b25b51bf5ac41016,0.0286,0.0286,0,135,135,78,1,fourtwo,,,,,,,,,,,,,,,,,,,,,,,,,,,,,,,,,,,,,,,,,,,,,,,,,,,,,,,,,,,,,,,,,,,,,,,,,,,,,,,,,,,,,,,,,,,,,,,,,,,,,,,,,,,,,,,,,,,,,,,,,,,,,,,,,,,,,,,,,
,,60524a9ece19f6b376473cf7,2026-03-17_10h23.09.911,kallum_motion_pilot_GIST_update_2,2026.1.1,Win32,59.52380952,60524a9ece19f6b376473cf7,69b92ab4aef6dee357cd729a,69b92b73b25b51bf5ac41016,0.0287,0.0287,0,136,136,133,1,seveneight,,,,,,,,,,,,,,,,,,,,,,,,,,,,,,,,,,,,,,,,,,,,,,,,,,,,,,,,,,,,,,,,,,,,,,,,,,,,,,,,,,,,,,,,,,,,,,,,,,,,,,,,,,,,,,,,,,,,,,,,,,,,,,,,,,,,,,,,,
,,60524a9ece19f6b376473cf7,2026-03-17_10h23.09.911,kallum_motion_pilot_GIST_update_2,2026.1.1,Win32,59.52380952,60524a9ece19f6b376473cf7,69b92ab4aef6dee357cd729a,69b92b73b25b51bf5ac41016,0.0288,0.0288,0,137,137,132,1,sevenfive,,,,,,,,,,,,,,,,,,,,,,,,,,,,,,,,,,,,,,,,,,,,,,,,,,,,,,,,,,,,,,,,,,,,,,,,,,,,,,,,,,,,,,,,,,,,,,,,,,,,,,,,,,,,,,,,,,,,,,,,,,,,,,,,,,,,,,,,,
,,60524a9ece19f6b376473cf7,2026-03-17_10h23.09.911,kallum_motion_pilot_GIST_update_2,2026.1.1,Win32,59.52380952,60524a9ece19f6b376473cf7,69b92ab4aef6dee357cd729a,69b92b73b25b51bf5ac41016,0.0289,0.0289,0,138,138,100,1,sevenfive,,,,,,,,,,,,,,,,,,,,,,,,,,,,,,,,,,,,,,,,,,,,,,,,,,,,,,,,,,,,,,,,,,,,,,,,,,,,,,,,,,,,,,,,,,,,,,,,,,,,,,,,,,,,,,,,,,,,,,,,,,,,,,,,,,,,,,,,,
,,60524a9ece19f6b376473cf7,2026-03-17_10h23.09.911,kallum_motion_pilot_GIST_update_2,2026.1.1,Win32,59.52380952,60524a9ece19f6b376473cf7,69b92ab4aef6dee357cd729a,69b92b73b25b51bf5ac41016,0.029,0.029,0,139,139,26,1,twoone,,,,,,,,,,,,,,,,,,,,,,,,,,,,,,,,,,,,,,,,,,,,,,,,,,,,,,,,,,,,,,,,,,,,,,,,,,,,,,,,,,,,,,,,,,,,,,,,,,,,,,,,,,,,,,,,,,,,,,,,,,,,,,,,,,,,,,,,,
,,60524a9ece19f6b376473cf7,2026-03-17_10h23.09.911,kallum_motion_pilot_GIST_update_2,2026.1.1,Win32,59.52380952,60524a9ece19f6b376473cf7,69b92ab4aef6dee357cd729a,69b92b73b25b51bf5ac41016,0.029,0.029,0,140,140,77,1,threefour,,,,,,,,,,,,,,,,,,,,,,,,,,,,,,,,,,,,,,,,,,,,,,,,,,,,,,,,,,,,,,,,,,,,,,,,,,,,,,,,,,,,,,,,,,,,,,,,,,,,,,,,,,,,,,,,,,,,,,,,,,,,,,,,,,,,,,,,,
,,60524a9ece19f6b376473cf7,2026-03-17_10h23.09.911,kallum_motion_pilot_GIST_update_2,2026.1.1,Win32,59.52380952,60524a9ece19f6b376473cf7,69b92ab4aef6dee357cd729a,69b92b73b25b51bf5ac41016,0.0291,0.0291,0,141,141,125,1,seveneight,,,,,,,,,,,,,,,,,,,,,,,,,,,,,,,,,,,,,,,,,,,,,,,,,,,,,,,,,,,,,,,,,,,,,,,,,,,,,,,,,,,,,,,,,,,,,,,,,,,,,,,,,,,,,,,,,,,,,,,,,,,,,,,,,,,,,,,,,
,,60524a9ece19f6b376473cf7,2026-03-17_10h23.09.911,kallum_motion_pilot_GIST_update_2,2026.1.1,Win32,59.52380952,60524a9ece19f6b376473cf7,69b92ab4aef6dee357cd729a,69b92b73b25b51bf5ac41016,0.0291,0.0291,0,142,142,31,1,fourthree,,,,,,,,,,,,,,,,,,,,,,,,,,,,,,,,,,,,,,,,,,,,,,,,,,,,,,,,,,,,,,,,,,,,,,,,,,,,,,,,,,,,,,,,,,,,,,,,,,,,,,,,,,,,,,,,,,,,,,,,,,,,,,,,,,,,,,,,,
,,60524a9ece19f6b376473cf7,2026-03-17_10h23.09.911,kallum_motion_pilot_GIST_update_2,2026.1.1,Win32,59.52380952,60524a9ece19f6b376473cf7,69b92ab4aef6dee357cd729a,69b92b73b25b51bf5ac41016,0.0292,0.0292,0,143,143,134,1,eightsix,,,,,,,,,,,,,,,,,,,,,,,,,,,,,,,,,,,,,,,,,,,,,,,,,,,,,,,,,,,,,,,,,,,,,,,,,,,,,,,,,,,,,,,,,,,,,,,,,,,,,,,,,,,,,,,,,,,,,,,,,,,,,,,,,,,,,,,,,
,,60524a9ece19f6b376473cf7,2026-03-17_10h23.09.911,kallum_motion_pilot_GIST_update_2,2026.1.1,Win32,59.52380952,60524a9ece19f6b376473cf7,69b92ab4aef6dee357cd729a,69b92b73b25b51bf5ac41016,0.0293,0.0294,0,144,144,21,1,threefour,,,,,,,,,,,,,,,,,,,,,,,,,,,,,,,,,,,,,,,,,,,,,,,,,,,,,,,,,,,,,,,,,,,,,,,,,,,,,,,,,,,,,,,,,,,,,,,,,,,,,,,,,,,,,,,,,,,,,,,,,,,,,,,,,,,,,,,,,
,,60524a9ece19f6b376473cf7,2026-03-17_10h23.09.911,kallum_motion_pilot_GIST_update_2,2026.1.1,Win32,59.52380952,60524a9ece19f6b376473cf7,69b92ab4aef6dee357cd729a,69b92b73b25b51bf5ac41016,0.0294,0.0294,0,145,145,147,1,sixeight,,,,,,,,,,,,,,,,,,,,,,,,,,,,,,,,,,,,,,,,,,,,,,,,,,,,,,,,,,,,,,,,,,,,,,,,,,,,,,,,,,,,,,,,,,,,,,,,,,,,,,,,,,,,,,,,,,,,,,,,,,,,,,,,,,,,,,,,,
,,60524a9ece19f6b376473cf7,2026-03-17_10h23.09.911,kallum_motion_pilot_GIST_update_2,2026.1.1,Win32,59.52380952,60524a9ece19f6b376473cf7,69b92ab4aef6dee357cd729a,69b92b73b25b51bf5ac41016,0.0295,0.0295,0,146,146,118,1,eightsix,,,,,,,,,,,,,,,,,,,,,,,,,,,,,,,,,,,,,,,,,,,,,,,,,,,,,,,,,,,,,,,,,,,,,,,,,,,,,,,,,,,,,,,,,,,,,,,,,,,,,,,,,,,,,,,,,,,,,,,,,,,,,,,,,,,,,,,,,
,,60524a9ece19f6b376473cf7,2026-03-17_10h23.09.911,kallum_motion_pilot_GIST_update_2,2026.1.1,Win32,59.52380952,60524a9ece19f6b376473cf7,69b92ab4aef6dee357cd729a,69b92b73b25b51bf5ac41016,0.0296,0.0296,0,147,147,121,1,fiveseven,,,,,,,,,,,,,,,,,,,,,,,,,,,,,,,,,,,,,,,,,,,,,,,,,,,,,,,,,,,,,,,,,,,,,,,,,,,,,,,,,,,,,,,,,,,,,,,,,,,,,,,,,,,,,,,,,,,,,,,,,,,,,,,,,,,,,,,,,
,,60524a9ece19f6b376473cf7,2026-03-17_10h23.09.911,kallum_motion_pilot_GIST_update_2,2026.1.1,Win32,59.52380952,60524a9ece19f6b376473cf7,69b92ab4aef6dee357cd729a,69b92b73b25b51bf5ac41016,0.0296,0.0296,0,148,148,74,1,twoone,,,,,,,,,,,,,,,,,,,,,,,,,,,,,,,,,,,,,,,,,,,,,,,,,,,,,,,,,,,,,,,,,,,,,,,,,,,,,,,,,,,,,,,,,,,,,,,,,,,,,,,,,,,,,,,,,,,,,,,,,,,,,,,,,,,,,,,,,
,,60524a9ece19f6b376473cf7,2026-03-17_10h23.09.911,kallum_motion_pilot_GIST_update_2,2026.1.1,Win32,59.52380952,60524a9ece19f6b376473cf7,69b92ab4aef6dee357cd729a,69b92b73b25b51bf5ac41016,0.0297,0.0297,0,149,149,81,1,fiveseven,,,,,,,,,,,,,,,,,,,,,,,,,,,,,,,,,,,,,,,,,,,,,,,,,,,,,,,,,,,,,,,,,,,,,,,,,,,,,,,,,,,,,,,,,,,,,,,,,,,,,,,,,,,,,,,,,,,,,,,,,,,,,,,,,,,,,,,,,
,,60524a9ece19f6b376473cf7,2026-03-17_10h23.09.911,kallum_motion_pilot_GIST_update_2,2026.1.1,Win32,59.52380952,60524a9ece19f6b376473cf7,69b92ab4aef6dee357cd729a,69b92b73b25b51bf5ac41016,0.0297,0.0297,0,150,150,126,1,eightsix,,,,,,,,,,,,,,,,,,,,,,,,,,,,,,,,,,,,,,,,,,,,,,,,,,,,,,,,,,,,,,,,,,,,,,,,,,,,,,,,,,,,,,,,,,,,,,,,,,,,,,,,,,,,,,,,,,,,,,,,,,,,,,,,,,,,,,,,,
,,60524a9ece19f6b376473cf7,2026-03-17_10h23.09.911,kallum_motion_pilot_GIST_update_2,2026.1.1,Win32,59.52380952,60524a9ece19f6b376473cf7,69b92ab4aef6dee357cd729a,69b92b73b25b51bf5ac41016,0.0298,0.0298,0,151,151,33,1,onethree,,,,,,,,,,,,,,,,,,,,,,,,,,,,,,,,,,,,,,,,,,,,,,,,,,,,,,,,,,,,,,,,,,,,,,,,,,,,,,,,,,,,,,,,,,,,,,,,,,,,,,,,,,,,,,,,,,,,,,,,,,,,,,,,,,,,,,,,,
,,60524a9ece19f6b376473cf7,2026-03-17_10h23.09.911,kallum_motion_pilot_GIST_update_2,2026.1.1,Win32,59.52380952,60524a9ece19f6b376473cf7,69b92ab4aef6dee357cd729a,69b92b73b25b51bf5ac41016,0.0299,0.0299,0,152,152,158,1,eightsix,,,,,,,,,,,,,,,,,,,,,,,,,,,,,,,,,,,,,,,,,,,,,,,,,,,,,,,,,,,,,,,,,,,,,,,,,,,,,,,,,,,,,,,,,,,,,,,,,,,,,,,,,,,,,,,,,,,,,,,,,,,,,,,,,,,,,,,,,
,,60524a9ece19f6b376473cf7,2026-03-17_10h23.09.911,kallum_motion_pilot_GIST_update_2,2026.1.1,Win32,59.52380952,60524a9ece19f6b376473cf7,69b92ab4aef6dee357cd729a,69b92b73b25b51bf5ac41016,0.03,0.03,0,153,153,50,1,twoone,,,,,,,,,,,,,,,,,,,,,,,,,,,,,,,,,,,,,,,,,,,,,,,,,,,,,,,,,,,,,,,,,,,,,,,,,,,,,,,,,,,,,,,,,,,,,,,,,,,,,,,,,,,,,,,,,,,,,,,,,,,,,,,,,,,,,,,,,
,,60524a9ece19f6b376473cf7,2026-03-17_10h23.09.911,kallum_motion_pilot_GIST_update_2,2026.1.1,Win32,59.52380952,60524a9ece19f6b376473cf7,69b92ab4aef6dee357cd729a,69b92b73b25b51bf5ac41016,0.0301,0.0301,0,154,154,41,1,onethree,,,,,,,,,,,,,,,,,,,,,,,,,,,,,,,,,,,,,,,,,,,,,,,,,,,,,,,,,,,,,,,,,,,,,,,,,,,,,,,,,,,,,,,,,,,,,,,,,,,,,,,,,,,,,,,,,,,,,,,,,,,,,,,,,,,,,,,,,
,,60524a9ece19f6b376473cf7,2026-03-17_10h23.09.911,kallum_motion_pilot_GIST_update_2,2026.1.1,Win32,59.52380952,60524a9ece19f6b376473cf7,69b92ab4aef6dee357cd729a,69b92b73b25b51bf5ac41016,0.0301,0.0301,0,155,155,63,1,fourthree,,,,,,,,,,,,,,,,,,,,,,,,,,,,,,,,,,,,,,,,,,,,,,,,,,,,,,,,,,,,,,,,,,,,,,,,,,,,,,,,,,,,,,,,,,,,,,,,,,,,,,,,,,,,,,,,,,,,,,,,,,,,,,,,,,,,,,,,,
,,60524a9ece19f6b376473cf7,2026-03-17_10h23.09.911,kallum_motion_pilot_GIST_update_2,2026.1.1,Win32,59.52380952,60524a9ece19f6b376473cf7,69b92ab4aef6dee357cd729a,69b92b73b25b51bf5ac41016,0.0303,0.0303,0,156,156,22,1,fourtwo,,,,,,,,,,,,,,,,,,,,,,,,,,,,,,,,,,,,,,,,,,,,,,,,,,,,,,,,,,,,,,,,,,,,,,,,,,,,,,,,,,,,,,,,,,,,,,,,,,,,,,,,,,,,,,,,,,,,,,,,,,,,,,,,,,,,,,,,,
,,60524a9ece19f6b376473cf7,2026-03-17_10h23.09.911,kallum_motion_pilot_GIST_update_2,2026.1.1,Win32,59.52380952,60524a9ece19f6b376473cf7,69b92ab4aef6dee357cd729a,69b92b73b25b51bf5ac41016,0.0303,0.0303,0,157,157,90,1,sixfive,,,,,,,,,,,,,,,,,,,,,,,,,,,,,,,,,,,,,,,,,,,,,,,,,,,,,,,,,,,,,,,,,,,,,,,,,,,,,,,,,,,,,,,,,,,,,,,,,,,,,,,,,,,,,,,,,,,,,,,,,,,,,,,,,,,,,,,,,
,,60524a9ece19f6b376473cf7,2026-03-17_10h23.09.911,kallum_motion_pilot_GIST_update_2,2026.1.1,Win32,59.52380952,60524a9ece19f6b376473cf7,69b92ab4aef6dee357cd729a,69b92b73b25b51bf5ac41016,0.0304,0.0304,0,158,158,148,1,sevenfive,,,,,,,,,,,,,,,,,,,,,,,,,,,,,,,,,,,,,,,,,,,,,,,,,,,,,,,,,,,,,,,,,,,,,,,,,,,,,,,,,,,,,,,,,,,,,,,,,,,,,,,,,,,,,,,,,,,,,,,,,,,,,,,,,,,,,,,,,
,,60524a9ece19f6b376473cf7,2026-03-17_10h23.09.911,kallum_motion_pilot_GIST_update_2,2026.1.1,Win32,59.52380952,60524a9ece19f6b376473cf7,69b92ab4aef6dee357cd729a,69b92b73b25b51bf5ac41016,0.0304,0.0304,0,159,159,124,1,sevenfive,,,,,,,,,,,,,,,,,,,,,,,,,,,,,,,,,,,,,,,,,,,,,,,,,,,,,,,,,,,,,,,,,,,,,,,,,,,,,,,,,,,,,,,,,,,,,,,,,,,,,,,,,,,,,,,,,,,,,,,,,,,,,,,,,,,,,,,,,
,,60524a9ece19f6b376473cf7,2026-03-17_10h23.09.911,kallum_motion_pilot_GIST_update_2,2026.1.1,Win32,59.52380952,60524a9ece19f6b376473cf7,69b92ab4aef6dee357cd729a,69b92b73b25b51bf5ac41016,0.0306,0.0306,0,160,160,15,1,fourthree,,,,,,,,,,,,,,,,,,,,,,,,,,,,,,,,,,,,,,,,,,,,,,,,,,,,,,,,,,,,,,,,,,,,,,,,,,,,,,,,,,,,,,,,,,,,,,,,,,,,,,,,,,,,,,,,,,,,,,,,,,,,,,,,,,,,,,,,,
,,60524a9ece19f6b376473cf7,2026-03-17_10h23.09.911,kallum_motion_pilot_GIST_update_2,2026.1.1,Win32,59.52380952,60524a9ece19f6b376473cf7,69b92ab4aef6dee357cd729a,69b92b73b25b51bf5ac41016,0.0307,0.0307,0,161,161,146,1,sixfive,,,,,,,,,,,,,,,,,,,,,,,,,,,,,,,,,,,,,,,,,,,,,,,,,,,,,,,,,,,,,,,,,,,,,,,,,,,,,,,,,,,,,,,,,,,,,,,,,,,,,,,,,,,,,,,,,,,,,,,,,,,,,,,,,,,,,,,,,
,,60524a9ece19f6b376473cf7,2026-03-17_10h23.09.911,kallum_motion_pilot_GIST_update_2,2026.1.1,Win32,59.52380952,60524a9ece19f6b376473cf7,69b92ab4aef6dee357cd729a,69b92b73b25b51bf5ac41016,0.0307,0.0307,1,0,162,11,1,twofour,,,,,,,,,,,,,,,,,,,,,,,,,,,,,,,,,,,,,,,,,,,,,,,,,,,,,,,,,,,,,,,,,,,,,,,,,,,,,,,,,,,,,,,,,,,,,,,,,,,,,,,,,,,,,,,,,,,,,,,,,,,,,,,,,,,,,,,,,
,,60524a9ece19f6b376473cf7,2026-03-17_10h23.09.911,kallum_motion_pilot_GIST_update_2,2026.1.1,Win32,59.52380952,60524a9ece19f6b376473cf7,69b92ab4aef6dee357cd729a,69b92b73b25b51bf5ac41016,0.0308,0.0308,1,1,163,70,1,fourtwo,,,,,,,,,,,,,,,,,,,,,,,,,,,,,,,,,,,,,,,,,,,,,,,,,,,,,,,,,,,,,,,,,,,,,,,,,,,,,,,,,,,,,,,,,,,,,,,,,,,,,,,,,,,,,,,,,,,,,,,,,,,,,,,,,,,,,,,,,
,,60524a9ece19f6b376473cf7,2026-03-17_10h23.09.911,kallum_motion_pilot_GIST_update_2,2026.1.1,Win32,59.52380952,60524a9ece19f6b376473cf7,69b92ab4aef6dee357cd729a,69b92b73b25b51bf5ac41016,0.0311,0.0311,1,2,164,154,1,sixfive,,,,,,,,,,,,,,,,,,,,,,,,,,,,,,,,,,,,,,,,,,,,,,,,,,,,,,,,,,,,,,,,,,,,,,,,,,,,,,,,,,,,,,,,,,,,,,,,,,,,,,,,,,,,,,,,,,,,,,,,,,,,,,,,,,,,,,,,,
,,60524a9ece19f6b376473cf7,2026-03-17_10h23.09.911,kallum_motion_pilot_GIST_update_2,2026.1.1,Win32,59.52380952,60524a9ece19f6b376473cf7,69b92ab4aef6dee357cd729a,69b92b73b25b51bf5ac41016,0.0312,0.0312,1,3,165,144,1,fivesix,,,,,,,,,,,,,,,,,,,,,,,,,,,,,,,,,,,,,,,,,,,,,,,,,,,,,,,,,,,,,,,,,,,,,,,,,,,,,,,,,,,,,,,,,,,,,,,,,,,,,,,,,,,,,,,,,,,,,,,,,,,,,,,,,,,,,,,,,
,,60524a9ece19f6b376473cf7,2026-03-17_10h23.09.911,kallum_motion_pilot_GIST_update_2,2026.1.1,Win32,59.52380952,60524a9ece19f6b376473cf7,69b92ab4aef6dee357cd729a,69b92b73b25b51bf5ac41016,0.0312,0.0312,1,4,166,27,1,twofour,,,,,,,,,,,,,,,,,,,,,,,,,,,,,,,,,,,,,,,,,,,,,,,,,,,,,,,,,,,,,,,,,,,,,,,,,,,,,,,,,,,,,,,,,,,,,,,,,,,,,,,,,,,,,,,,,,,,,,,,,,,,,,,,,,,,,,,,,
,,60524a9ece19f6b376473cf7,2026-03-17_10h23.09.911,kallum_motion_pilot_GIST_update_2,2026.1.1,Win32,59.52380952,60524a9ece19f6b376473cf7,69b92ab4aef6dee357cd729a,69b92b73b25b51bf5ac41016,0.0313,0.0313,1,5,167,49,1,onethree,,,,,,,,,,,,,,,,,,,,,,,,,,,,,,,,,,,,,,,,,,,,,,,,,,,,,,,,,,,,,,,,,,,,,,,,,,,,,,,,,,,,,,,,,,,,,,,,,,,,,,,,,,,,,,,,,,,,,,,,,,,,,,,,,,,,,,,,,
,,60524a9ece19f6b376473cf7,2026-03-17_10h23.09.911,kallum_motion_pilot_GIST_update_2,2026.1.1,Win32,59.52380952,60524a9ece19f6b376473cf7,69b92ab4aef6dee357cd729a,69b92b73b25b51bf5ac41016,0.0314,0.0314,1,6,168,18,1,twoone,,,,,,,,,,,,,,,,,,,,,,,,,,,,,,,,,,,,,,,,,,,,,,,,,,,,,,,,,,,,,,,,,,,,,,,,,,,,,,,,,,,,,,,,,,,,,,,,,,,,,,,,,,,,,,,,,,,,,,,,,,,,,,,,,,,,,,,,,
,,60524a9ece19f6b376473cf7,2026-03-17_10h23.09.911,kallum_motion_pilot_GIST_update_2,2026.1.1,Win32,59.52380952,60524a9ece19f6b376473cf7,69b92ab4aef6dee357cd729a,69b92b73b25b51bf5ac41016,0.0315,0.0315,1,7,169,120,1,fivesix,,,,,,,,,,,,,,,,,,,,,,,,,,,,,,,,,,,,,,,,,,,,,,,,,,,,,,,,,,,,,,,,,,,,,,,,,,,,,,,,,,,,,,,,,,,,,,,,,,,,,,,,,,,,,,,,,,,,,,,,,,,,,,,,,,,,,,,,,
,,60524a9ece19f6b376473cf7,2026-03-17_10h23.09.911,kallum_motion_pilot_GIST_update_2,2026.1.1,Win32,59.52380952,60524a9ece19f6b376473cf7,69b92ab4aef6dee357cd729a,69b92b73b25b51bf5ac41016,0.0315,0.0315,1,8,170,75,1,twofour,,,,,,,,,,,,,,,,,,,,,,,,,,,,,,,,,,,,,,,,,,,,,,,,,,,,,,,,,,,,,,,,,,,,,,,,,,,,,,,,,,,,,,,,,,,,,,,,,,,,,,,,,,,,,,,,,,,,,,,,,,,,,,,,,,,,,,,,,
,,60524a9ece19f6b376473cf7,2026-03-17_10h23.09.911,kallum_motion_pilot_GIST_update_2,2026.1.1,Win32,59.52380952,60524a9ece19f6b376473cf7,69b92ab4aef6dee357cd729a,69b92b73b25b51bf5ac41016,0.0316,0.0316,1,9,171,48,1,onetwo,,,,,,,,,,,,,,,,,,,,,,,,,,,,,,,,,,,,,,,,,,,,,,,,,,,,,,,,,,,,,,,,,,,,,,,,,,,,,,,,,,,,,,,,,,,,,,,,,,,,,,,,,,,,,,,,,,,,,,,,,,,,,,,,,,,,,,,,,
,,60524a9ece19f6b376473cf7,2026-03-17_10h23.09.911,kallum_motion_pilot_GIST_update_2,2026.1.1,Win32,59.52380952,60524a9ece19f6b376473cf7,69b92ab4aef6dee357cd729a,69b92b73b25b51bf5ac41016,0.0317,0.0317,1,10,172,66,1,twoone,,,,,,,,,,,,,,,,,,,,,,,,,,,,,,,,,,,,,,,,,,,,,,,,,,,,,,,,,,,,,,,,,,,,,,,,,,,,,,,,,,,,,,,,,,,,,,,,,,,,,,,,,,,,,,,,,,,,,,,,,,,,,,,,,,,,,,,,,
,,60524a9ece19f6b376473cf7,2026-03-17_10h23.09.911,kallum_motion_pilot_GIST_update_2,2026.1.1,Win32,59.52380952,60524a9ece19f6b376473cf7,69b92ab4aef6dee357cd729a,69b92b73b25b51bf5ac41016,0.0317,0.0317,1,11,173,54,1,fourtwo,,,,,,,,,,,,,,,,,,,,,,,,,,,,,,,,,,,,,,,,,,,,,,,,,,,,,,,,,,,,,,,,,,,,,,,,,,,,,,,,,,,,,,,,,,,,,,,,,,,,,,,,,,,,,,,,,,,,,,,,,,,,,,,,,,,,,,,,,
,,60524a9ece19f6b376473cf7,2026-03-17_10h23.09.911,kallum_motion_pilot_GIST_update_2,2026.1.1,Win32,59.52380952,60524a9ece19f6b376473cf7,69b92ab4aef6dee357cd729a,69b92b73b25b51bf5ac41016,0.0319,0.0319,1,12,174,55,1,fourthree,,,,,,,,,,,,,,,,,,,,,,,,,,,,,,,,,,,,,,,,,,,,,,,,,,,,,,,,,,,,,,,,,,,,,,,,,,,,,,,,,,,,,,,,,,,,,,,,,,,,,,,,,,,,,,,,,,,,,,,,,,,,,,,,,,,,,,,,,
,,60524a9ece19f6b376473cf7,2026-03-17_10h23.09.911,kallum_motion_pilot_GIST_update_2,2026.1.1,Win32,59.52380952,60524a9ece19f6b376473cf7,69b92ab4aef6dee357cd729a,69b92b73b25b51bf5ac41016,0.0319,0.0319,1,13,175,83,1,sixeight,,,,,,,,,,,,,,,,,,,,,,,,,,,,,,,,,,,,,,,,,,,,,,,,,,,,,,,,,,,,,,,,,,,,,,,,,,,,,,,,,,,,,,,,,,,,,,,,,,,,,,,,,,,,,,,,,,,,,,,,,,,,,,,,,,,,,,,,,
,,60524a9ece19f6b376473cf7,2026-03-17_10h23.09.911,kallum_motion_pilot_GIST_update_2,2026.1.1,Win32,59.52380952,60524a9ece19f6b376473cf7,69b92ab4aef6dee357cd729a,69b92b73b25b51bf5ac41016,0.0319,0.0319,1,14,176,63,1,fourthree,,,,,,,,,,,,,,,,,,,,,,,,,,,,,,,,,,,,,,,,,,,,,,,,,,,,,,,,,,,,,,,,,,,,,,,,,,,,,,,,,,,,,,,,,,,,,,,,,,,,,,,,,,,,,,,,,,,,,,,,,,,,,,,,,,,,,,,,,
,,60524a9ece19f6b376473cf7,2026-03-17_10h23.09.911,kallum_motion_pilot_GIST_update_2,2026.1.1,Win32,59.52380952,60524a9ece19f6b376473cf7,69b92ab4aef6dee357cd729a,69b92b73b25b51bf5ac41016,0.0321,0.0321,1,15,177,153,1,fiveseven,,,,,,,,,,,,,,,,,,,,,,,,,,,,,,,,,,,,,,,,,,,,,,,,,,,,,,,,,,,,,,,,,,,,,,,,,,,,,,,,,,,,,,,,,,,,,,,,,,,,,,,,,,,,,,,,,,,,,,,,,,,,,,,,,,,,,,,,,
,,60524a9ece19f6b376473cf7,2026-03-17_10h23.09.911,kallum_motion_pilot_GIST_update_2,2026.1.1,Win32,59.52380952,60524a9ece19f6b376473cf7,69b92ab4aef6dee357cd729a,69b92b73b25b51bf5ac41016,0.0321,0.0321,1,16,178,9,1,onethree,,,,,,,,,,,,,,,,,,,,,,,,,,,,,,,,,,,,,,,,,,,,,,,,,,,,,,,,,,,,,,,,,,,,,,,,,,,,,,,,,,,,,,,,,,,,,,,,,,,,,,,,,,,,,,,,,,,,,,,,,,,,,,,,,,,,,,,,,
,,60524a9ece19f6b376473cf7,2026-03-17_10h23.09.911,kallum_motion_pilot_GIST_update_2,2026.1.1,Win32,59.52380952,60524a9ece19f6b376473cf7,69b92ab4aef6dee357cd729a,69b92b73b25b51bf5ac41016,0.0322,0.0322,1,17,179,69,1,threefour,,,,,,,,,,,,,,,,,,,,,,,,,,,,,,,,,,,,,,,,,,,,,,,,,,,,,,,,,,,,,,,,,,,,,,,,,,,,,,,,,,,,,,,,,,,,,,,,,,,,,,,,,,,,,,,,,,,,,,,,,,,,,,,,,,,,,,,,,
,,60524a9ece19f6b376473cf7,2026-03-17_10h23.09.911,kallum_motion_pilot_GIST_update_2,2026.1.1,Win32,59.52380952,60524a9ece19f6b376473cf7,69b92ab4aef6dee357cd729a,69b92b73b25b51bf5ac41016,0.0323,0.0323,1,18,180,64,1,onetwo,,,,,,,,,,,,,,,,,,,,,,,,,,,,,,,,,,,,,,,,,,,,,,,,,,,,,,,,,,,,,,,,,,,,,,,,,,,,,,,,,,,,,,,,,,,,,,,,,,,,,,,,,,,,,,,,,,,,,,,,,,,,,,,,,,,,,,,,,
,,60524a9ece19f6b376473cf7,2026-03-17_10h23.09.911,kallum_motion_pilot_GIST_update_2,2026.1.1,Win32,59.52380952,60524a9ece19f6b376473cf7,69b92ab4aef6dee357cd729a,69b92b73b25b51bf5ac41016,0.0323,0.0323,1,19,181,136,1,fivesix,,,,,,,,,,,,,,,,,,,,,,,,,,,,,,,,,,,,,,,,,,,,,,,,,,,,,,,,,,,,,,,,,,,,,,,,,,,,,,,,,,,,,,,,,,,,,,,,,,,,,,,,,,,,,,,,,,,,,,,,,,,,,,,,,,,,,,,,,
,,60524a9ece19f6b376473cf7,2026-03-17_10h23.09.911,kallum_motion_pilot_GIST_update_2,2026.1.1,Win32,59.52380952,60524a9ece19f6b376473cf7,69b92ab4aef6dee357cd729a,69b92b73b25b51bf5ac41016,0.0324,0.0324,1,20,182,38,1,fourtwo,,,,,,,,,,,,,,,,,,,,,,,,,,,,,,,,,,,,,,,,,,,,,,,,,,,,,,,,,,,,,,,,,,,,,,,,,,,,,,,,,,,,,,,,,,,,,,,,,,,,,,,,,,,,,,,,,,,,,,,,,,,,,,,,,,,,,,,,,
,,60524a9ece19f6b376473cf7,2026-03-17_10h23.09.911,kallum_motion_pilot_GIST_update_2,2026.1.1,Win32,59.52380952,60524a9ece19f6b376473cf7,69b92ab4aef6dee357cd729a,69b92b73b25b51bf5ac41016,0.0326,0.0326,1,21,183,89,1,fiveseven,,,,,,,,,,,,,,,,,,,,,,,,,,,,,,,,,,,,,,,,,,,,,,,,,,,,,,,,,,,,,,,,,,,,,,,,,,,,,,,,,,,,,,,,,,,,,,,,,,,,,,,,,,,,,,,,,,,,,,,,,,,,,,,,,,,,,,,,,
,,60524a9ece19f6b376473cf7,2026-03-17_10h23.09.911,kallum_motion_pilot_GIST_update_2,2026.1.1,Win32,59.52380952,60524a9ece19f6b376473cf7,69b92ab4aef6dee357cd729a,69b92b73b25b51bf5ac41016,0.0326,0.0326,1,22,184,0,1,onetwo,,,,,,,,,,,,,,,,,,,,,,,,,,,,,,,,,,,,,,,,,,,,,,,,,,,,,,,,,,,,,,,,,,,,,,,,,,,,,,,,,,,,,,,,,,,,,,,,,,,,,,,,,,,,,,,,,,,,,,,,,,,,,,,,,,,,,,,,,
,,60524a9ece19f6b376473cf7,2026-03-17_10h23.09.911,kallum_motion_pilot_GIST_update_2,2026.1.1,Win32,59.52380952,60524a9ece19f6b376473cf7,69b92ab4aef6dee357cd729a,69b92b73b25b51bf5ac41016,0.0327,0.0327,1,23,185,146,1,sixfive,,,,,,,,,,,,,,,,,,,,,,,,,,,,,,,,,,,,,,,,,,,,,,,,,,,,,,,,,,,,,,,,,,,,,,,,,,,,,,,,,,,,,,,,,,,,,,,,,,,,,,,,,,,,,,,,,,,,,,,,,,,,,,,,,,,,,,,,,
,,60524a9ece19f6b376473cf7,2026-03-17_10h23.09.911,kallum_motion_pilot_GIST_update_2,2026.1.1,Win32,59.52380952,60524a9ece19f6b376473cf7,69b92ab4aef6dee357cd729a,69b92b73b25b51bf5ac41016,0.0328,0.0328,1,24,186,95,1,eightseven,,,,,,,,,,,,,,,,,,,,,,,,,,,,,,,,,,,,,,,,,,,,,,,,,,,,,,,,,,,,,,,,,,,,,,,,,,,,,,,,,,,,,,,,,,,,,,,,,,,,,,,,,,,,,,,,,,,,,,,,,,,,,,,,,,,,,,,,,
,,60524a9ece19f6b376473cf7,2026-03-17_10h23.09.911,kallum_motion_pilot_GIST_update_2,2026.1.1,Win32,59.52380952,60524a9ece19f6b376473cf7,69b92ab4aef6dee357cd729a,69b92b73b25b51bf5ac41016,0.0329,0.0329,1,25,187,79,1,eightseven,,,,,,,,,,,,,,,,,,,,,,,,,,,,,,,,,,,,,,,,,,,,,,,,,,,,,,,,,,,,,,,,,,,,,,,,,,,,,,,,,,,,,,,,,,,,,,,,,,,,,,,,,,,,,,,,,,,,,,,,,,,,,,,,,,,,,,,,,
,,60524a9ece19f6b376473cf7,2026-03-17_10h23.09.911,kallum_motion_pilot_GIST_update_2,2026.1.1,Win32,59.52380952,60524a9ece19f6b376473cf7,69b92ab4aef6dee357cd729a,69b92b73b25b51bf5ac41016,0.033,0.033,1,26,188,87,1,eightseven,,,,,,,,,,,,,,,,,,,,,,,,,,,,,,,,,,,,,,,,,,,,,,,,,,,,,,,,,,,,,,,,,,,,,,,,,,,,,,,,,,,,,,,,,,,,,,,,,,,,,,,,,,,,,,,,,,,,,,,,,,,,,,,,,,,,,,,,,
,,60524a9ece19f6b376473cf7,2026-03-17_10h23.09.911,kallum_motion_pilot_GIST_update_2,2026.1.1,Win32,59.52380952,60524a9ece19f6b376473cf7,69b92ab4aef6dee357cd729a,69b92b73b25b51bf5ac41016,0.0331,0.0331,1,27,189,161,1,fiveseven,,,,,,,,,,,,,,,,,,,,,,,,,,,,,,,,,,,,,,,,,,,,,,,,,,,,,,,,,,,,,,,,,,,,,,,,,,,,,,,,,,,,,,,,,,,,,,,,,,,,,,,,,,,,,,,,,,,,,,,,,,,,,,,,,,,,,,,,,
,,60524a9ece19f6b376473cf7,2026-03-17_10h23.09.911,kallum_motion_pilot_GIST_update_2,2026.1.1,Win32,59.52380952,60524a9ece19f6b376473cf7,69b92ab4aef6dee357cd729a,69b92b73b25b51bf5ac41016,0.0331,0.0331,1,28,190,105,1,fiveseven,,,,,,,,,,,,,,,,,,,,,,,,,,,,,,,,,,,,,,,,,,,,,,,,,,,,,,,,,,,,,,,,,,,,,,,,,,,,,,,,,,,,,,,,,,,,,,,,,,,,,,,,,,,,,,,,,,,,,,,,,,,,,,,,,,,,,,,,,
,,60524a9ece19f6b376473cf7,2026-03-17_10h23.09.911,kallum_motion_pilot_GIST_update_2,2026.1.1,Win32,59.52380952,60524a9ece19f6b376473cf7,69b92ab4aef6dee357cd729a,69b92b73b25b51bf5ac41016,0.0332,0.0332,1,29,191,12,1,threeone,,,,,,,,,,,,,,,,,,,,,,,,,,,,,,,,,,,,,,,,,,,,,,,,,,,,,,,,,,,,,,,,,,,,,,,,,,,,,,,,,,,,,,,,,,,,,,,,,,,,,,,,,,,,,,,,,,,,,,,,,,,,,,,,,,,,,,,,,
,,60524a9ece19f6b376473cf7,2026-03-17_10h23.09.911,kallum_motion_pilot_GIST_update_2,2026.1.1,Win32,59.52380952,60524a9ece19f6b376473cf7,69b92ab4aef6dee357cd729a,69b92b73b25b51bf5ac41016,0.0334,0.0334,1,30,192,88,1,fivesix,,,,,,,,,,,,,,,,,,,,,,,,,,,,,,,,,,,,,,,,,,,,,,,,,,,,,,,,,,,,,,,,,,,,,,,,,,,,,,,,,,,,,,,,,,,,,,,,,,,,,,,,,,,,,,,,,,,,,,,,,,,,,,,,,,,,,,,,,
,,60524a9ece19f6b376473cf7,2026-03-17_10h23.09.911,kallum_motion_pilot_GIST_update_2,2026.1.1,Win32,59.52380952,60524a9ece19f6b376473cf7,69b92ab4aef6dee357cd729a,69b92b73b25b51bf5ac41016,0.0335,0.0335,1,31,193,97,1,fiveseven,,,,,,,,,,,,,,,,,,,,,,,,,,,,,,,,,,,,,,,,,,,,,,,,,,,,,,,,,,,,,,,,,,,,,,,,,,,,,,,,,,,,,,,,,,,,,,,,,,,,,,,,,,,,,,,,,,,,,,,,,,,,,,,,,,,,,,,,,
,,60524a9ece19f6b376473cf7,2026-03-17_10h23.09.911,kallum_motion_pilot_GIST_update_2,2026.1.1,Win32,59.52380952,60524a9ece19f6b376473cf7,69b92ab4aef6dee357cd729a,69b92b73b25b51bf5ac41016,0.0336,0.0336,1,32,194,114,1,sixfive,,,,,,,,,,,,,,,,,,,,,,,,,,,,,,,,,,,,,,,,,,,,,,,,,,,,,,,,,,,,,,,,,,,,,,,,,,,,,,,,,,,,,,,,,,,,,,,,,,,,,,,,,,,,,,,,,,,,,,,,,,,,,,,,,,,,,,,,,
,,60524a9ece19f6b376473cf7,2026-03-17_10h23.09.911,kallum_motion_pilot_GIST_update_2,2026.1.1,Win32,59.52380952,60524a9ece19f6b376473cf7,69b92ab4aef6dee357cd729a,69b92b73b25b51bf5ac41016,0.0336,0.0336,1,33,195,158,1,eightsix,,,,,,,,,,,,,,,,,,,,,,,,,,,,,,,,,,,,,,,,,,,,,,,,,,,,,,,,,,,,,,,,,,,,,,,,,,,,,,,,,,,,,,,,,,,,,,,,,,,,,,,,,,,,,,,,,,,,,,,,,,,,,,,,,,,,,,,,,
,,60524a9ece19f6b376473cf7,2026-03-17_10h23.09.911,kallum_motion_pilot_GIST_update_2,2026.1.1,Win32,59.52380952,60524a9ece19f6b376473cf7,69b92ab4aef6dee357cd729a,69b92b73b25b51bf5ac41016,0.0337,0.0337,1,34,196,59,1,twofour,,,,,,,,,,,,,,,,,,,,,,,,,,,,,,,,,,,,,,,,,,,,,,,,,,,,,,,,,,,,,,,,,,,,,,,,,,,,,,,,,,,,,,,,,,,,,,,,,,,,,,,,,,,,,,,,,,,,,,,,,,,,,,,,,,,,,,,,,
,,60524a9ece19f6b376473cf7,2026-03-17_10h23.09.911,kallum_motion_pilot_GIST_update_2,2026.1.1,Win32,59.52380952,60524a9ece19f6b376473cf7,69b92ab4aef6dee357cd729a,69b92b73b25b51bf5ac41016,0.0338,0.0339,1,35,197,103,1,eightseven,,,,,,,,,,,,,,,,,,,,,,,,,,,,,,,,,,,,,,,,,,,,,,,,,,,,,,,,,,,,,,,,,,,,,,,,,,,,,,,,,,,,,,,,,,,,,,,,,,,,,,,,,,,,,,,,,,,,,,,,,,,,,,,,,,,,,,,,,
,,60524a9ece19f6b376473cf7,2026-03-17_10h23.09.911,kallum_motion_pilot_GIST_update_2,2026.1.1,Win32,59.52380952,60524a9ece19f6b376473cf7,69b92ab4aef6dee357cd729a,69b92b73b25b51bf5ac41016,0.034,0.034,1,36,198,90,1,sixfive,,,,,,,,,,,,,,,,,,,,,,,,,,,,,,,,,,,,,,,,,,,,,,,,,,,,,,,,,,,,,,,,,,,,,,,,,,,,,,,,,,,,,,,,,,,,,,,,,,,,,,,,,,,,,,,,,,,,,,,,,,,,,,,,,,,,,,,,,
,,60524a9ece19f6b376473cf7,2026-03-17_10h23.09.911,kallum_motion_pilot_GIST_update_2,2026.1.1,Win32,59.52380952,60524a9ece19f6b376473cf7,69b92ab4aef6dee357cd729a,69b92b73b25b51bf5ac41016,0.034,0.034,1,37,199,34,1,twoone,,,,,,,,,,,,,,,,,,,,,,,,,,,,,,,,,,,,,,,,,,,,,,,,,,,,,,,,,,,,,,,,,,,,,,,,,,,,,,,,,,,,,,,,,,,,,,,,,,,,,,,,,,,,,,,,,,,,,,,,,,,,,,,,,,,,,,,,,
,,60524a9ece19f6b376473cf7,2026-03-17_10h23.09.911,kallum_motion_pilot_GIST_update_2,2026.1.1,Win32,59.52380952,60524a9ece19f6b376473cf7,69b92ab4aef6dee357cd729a,69b92b73b25b51bf5ac41016,0.0341,0.0341,1,38,200,127,1,eightseven,,,,,,,,,,,,,,,,,,,,,,,,,,,,,,,,,,,,,,,,,,,,,,,,,,,,,,,,,,,,,,,,,,,,,,,,,,,,,,,,,,,,,,,,,,,,,,,,,,,,,,,,,,,,,,,,,,,,,,,,,,,,,,,,,,,,,,,,,
,,60524a9ece19f6b376473cf7,2026-03-17_10h23.09.911,kallum_motion_pilot_GIST_update_2,2026.1.1,Win32,59.52380952,60524a9ece19f6b376473cf7,69b92ab4aef6dee357cd729a,69b92b73b25b51bf5ac41016,0.0342,0.0342,1,39,201,71,1,fourthree,,,,,,,,,,,,,,,,,,,,,,,,,,,,,,,,,,,,,,,,,,,,,,,,,,,,,,,,,,,,,,,,,,,,,,,,,,,,,,,,,,,,,,,,,,,,,,,,,,,,,,,,,,,,,,,,,,,,,,,,,,,,,,,,,,,,,,,,,
,,60524a9ece19f6b376473cf7,2026-03-17_10h23.09.911,kallum_motion_pilot_GIST_update_2,2026.1.1,Win32,59.52380952,60524a9ece19f6b376473cf7,69b92ab4aef6dee357cd729a,69b92b73b25b51bf5ac41016,0.0342,0.0342,1,40,202,139,1,sixeight,,,,,,,,,,,,,,,,,,,,,,,,,,,,,,,,,,,,,,,,,,,,,,,,,,,,,,,,,,,,,,,,,,,,,,,,,,,,,,,,,,,,,,,,,,,,,,,,,,,,,,,,,,,,,,,,,,,,,,,,,,,,,,,,,,,,,,,,,
,,60524a9ece19f6b376473cf7,2026-03-17_10h23.09.911,kallum_motion_pilot_GIST_update_2,2026.1.1,Win32,59.52380952,60524a9ece19f6b376473cf7,69b92ab4aef6dee357cd729a,69b92b73b25b51bf5ac41016,0.0343,0.0343,1,41,203,37,1,threefour,,,,,,,,,,,,,,,,,,,,,,,,,,,,,,,,,,,,,,,,,,,,,,,,,,,,,,,,,,,,,,,,,,,,,,,,,,,,,,,,,,,,,,,,,,,,,,,,,,,,,,,,,,,,,,,,,,,,,,,,,,,,,,,,,,,,,,,,,
,,60524a9ece19f6b376473cf7,2026-03-17_10h23.09.911,kallum_motion_pilot_GIST_update_2,2026.1.1,Win32,59.52380952,60524a9ece19f6b376473cf7,69b92ab4aef6dee357cd729a,69b92b73b25b51bf5ac41016,0.0344,0.0344,1,42,204,77,1,threefour,,,,,,,,,,,,,,,,,,,,,,,,,,,,,,,,,,,,,,,,,,,,,,,,,,,,,,,,,,,,,,,,,,,,,,,,,,,,,,,,,,,,,,,,,,,,,,,,,,,,,,,,,,,,,,,,,,,,,,,,,,,,,,,,,,,,,,,,,
,,60524a9ece19f6b376473cf7,2026-03-17_10h23.09.911,kallum_motion_pilot_GIST_update_2,2026.1.1,Win32,59.52380952,60524a9ece19f6b376473cf7,69b92ab4aef6dee357cd729a,69b92b73b25b51bf5ac41016,0.0345,0.0345,1,43,205,76,1,threeone,,,,,,,,,,,,,,,,,,,,,,,,,,,,,,,,,,,,,,,,,,,,,,,,,,,,,,,,,,,,,,,,,,,,,,,,,,,,,,,,,,,,,,,,,,,,,,,,,,,,,,,,,,,,,,,,,,,,,,,,,,,,,,,,,,,,,,,,,
,,60524a9ece19f6b376473cf7,2026-03-17_10h23.09.911,kallum_motion_pilot_GIST_update_2,2026.1.1,Win32,59.52380952,60524a9ece19f6b376473cf7,69b92ab4aef6dee357cd729a,69b92b73b25b51bf5ac41016,0.0345,0.0345,1,44,206,135,1,eightseven,,,,,,,,,,,,,,,,,,,,,,,,,,,,,,,,,,,,,,,,,,,,,,,,,,,,,,,,,,,,,,,,,,,,,,,,,,,,,,,,,,,,,,,,,,,,,,,,,,,,,,,,,,,,,,,,,,,,,,,,,,,,,,,,,,,,,,,,,
,,60524a9ece19f6b376473cf7,2026-03-17_10h23.09.911,kallum_motion_pilot_GIST_update_2,2026.1.1,Win32,59.52380952,60524a9ece19f6b376473cf7,69b92ab4aef6dee357cd729a,69b92b73b25b51bf5ac41016,0.0346,0.0346,1,45,207,42,1,twoone,,,,,,,,,,,,,,,,,,,,,,,,,,,,,,,,,,,,,,,,,,,,,,,,,,,,,,,,,,,,,,,,,,,,,,,,,,,,,,,,,,,,,,,,,,,,,,,,,,,,,,,,,,,,,,,,,,,,,,,,,,,,,,,,,,,,,,,,,
,,60524a9ece19f6b376473cf7,2026-03-17_10h23.09.911,kallum_motion_pilot_GIST_update_2,2026.1.1,Win32,59.52380952,60524a9ece19f6b376473cf7,69b92ab4aef6dee357cd729a,69b92b73b25b51bf5ac41016,0.0347,0.0347,1,46,208,53,1,threefour,,,,,,,,,,,,,,,,,,,,,,,,,,,,,,,,,,,,,,,,,,,,,,,,,,,,,,,,,,,,,,,,,,,,,,,,,,,,,,,,,,,,,,,,,,,,,,,,,,,,,,,,,,,,,,,,,,,,,,,,,,,,,,,,,,,,,,,,,
,,60524a9ece19f6b376473cf7,2026-03-17_10h23.09.911,kallum_motion_pilot_GIST_update_2,2026.1.1,Win32,59.52380952,60524a9ece19f6b376473cf7,69b92ab4aef6dee357cd729a,69b92b73b25b51bf5ac41016,0.0349,0.0349,1,47,209,125,1,seveneight,,,,,,,,,,,,,,,,,,,,,,,,,,,,,,,,,,,,,,,,,,,,,,,,,,,,,,,,,,,,,,,,,,,,,,,,,,,,,,,,,,,,,,,,,,,,,,,,,,,,,,,,,,,,,,,,,,,,,,,,,,,,,,,,,,,,,,,,,
,,60524a9ece19f6b376473cf7,2026-03-17_10h23.09.911,kallum_motion_pilot_GIST_update_2,2026.1.1,Win32,59.52380952,60524a9ece19f6b376473cf7,69b92ab4aef6dee357cd729a,69b92b73b25b51bf5ac41016,0.0349,0.0349,1,48,210,68,1,threeone,,,,,,,,,,,,,,,,,,,,,,,,,,,,,,,,,,,,,,,,,,,,,,,,,,,,,,,,,,,,,,,,,,,,,,,,,,,,,,,,,,,,,,,,,,,,,,,,,,,,,,,,,,,,,,,,,,,,,,,,,,,,,,,,,,,,,,,,,
,,60524a9ece19f6b376473cf7,2026-03-17_10h23.09.911,kallum_motion_pilot_GIST_update_2,2026.1.1,Win32,59.52380952,60524a9ece19f6b376473cf7,69b92ab4aef6dee357cd729a,69b92b73b25b51bf5ac41016,0.035,0.035,1,49,211,132,1,sevenfive,,,,,,,,,,,,,,,,,,,,,,,,,,,,,,,,,,,,,,,,,,,,,,,,,,,,,,,,,,,,,,,,,,,,,,,,,,,,,,,,,,,,,,,,,,,,,,,,,,,,,,,,,,,,,,,,,,,,,,,,,,,,,,,,,,,,,,,,,
,,60524a9ece19f6b376473cf7,2026-03-17_10h23.09.911,kallum_motion_pilot_GIST_update_2,2026.1.1,Win32,59.52380952,60524a9ece19f6b376473cf7,69b92ab4aef6dee357cd729a,69b92b73b25b51bf5ac41016,0.0351,0.0351,1,50,212,82,1,sixfive,,,,,,,,,,,,,,,,,,,,,,,,,,,,,,,,,,,,,,,,,,,,,,,,,,,,,,,,,,,,,,,,,,,,,,,,,,,,,,,,,,,,,,,,,,,,,,,,,,,,,,,,,,,,,,,,,,,,,,,,,,,,,,,,,,,,,,,,,
,,60524a9ece19f6b376473cf7,2026-03-17_10h23.09.911,kallum_motion_pilot_GIST_update_2,2026.1.1,Win32,59.52380952,60524a9ece19f6b376473cf7,69b92ab4aef6dee357cd729a,69b92b73b25b51bf5ac41016,0.0352,0.0352,1,51,213,126,1,eightsix,,,,,,,,,,,,,,,,,,,,,,,,,,,,,,,,,,,,,,,,,,,,,,,,,,,,,,,,,,,,,,,,,,,,,,,,,,,,,,,,,,,,,,,,,,,,,,,,,,,,,,,,,,,,,,,,,,,,,,,,,,,,,,,,,,,,,,,,,
,,60524a9ece19f6b376473cf7,2026-03-17_10h23.09.911,kallum_motion_pilot_GIST_update_2,2026.1.1,Win32,59.52380952,60524a9ece19f6b376473cf7,69b92ab4aef6dee357cd729a,69b92b73b25b51bf5ac41016,0.0353,0.0353,1,52,214,92,1,sevenfive,,,,,,,,,,,,,,,,,,,,,,,,,,,,,,,,,,,,,,,,,,,,,,,,,,,,,,,,,,,,,,,,,,,,,,,,,,,,,,,,,,,,,,,,,,,,,,,,,,,,,,,,,,,,,,,,,,,,,,,,,,,,,,,,,,,,,,,,,
,,60524a9ece19f6b376473cf7,2026-03-17_10h23.09.911,kallum_motion_pilot_GIST_update_2,2026.1.1,Win32,59.52380952,60524a9ece19f6b376473cf7,69b92ab4aef6dee357cd729a,69b92b73b25b51bf5ac41016,0.0353,0.0353,1,53,215,124,1,sevenfive,,,,,,,,,,,,,,,,,,,,,,,,,,,,,,,,,,,,,,,,,,,,,,,,,,,,,,,,,,,,,,,,,,,,,,,,,,,,,,,,,,,,,,,,,,,,,,,,,,,,,,,,,,,,,,,,,,,,,,,,,,,,,,,,,,,,,,,,,
,,60524a9ece19f6b376473cf7,2026-03-17_10h23.09.911,kallum_motion_pilot_GIST_update_2,2026.1.1,Win32,59.52380952,60524a9ece19f6b376473cf7,69b92ab4aef6dee357cd729a,69b92b73b25b51bf5ac41016,0.0355,0.0355,1,54,216,29,1,threefour,,,,,,,,,,,,,,,,,,,,,,,,,,,,,,,,,,,,,,,,,,,,,,,,,,,,,,,,,,,,,,,,,,,,,,,,,,,,,,,,,,,,,,,,,,,,,,,,,,,,,,,,,,,,,,,,,,,,,,,,,,,,,,,,,,,,,,,,,
,,60524a9ece19f6b376473cf7,2026-03-17_10h23.09.911,kallum_motion_pilot_GIST_update_2,2026.1.1,Win32,59.52380952,60524a9ece19f6b376473cf7,69b92ab4aef6dee357cd729a,69b92b73b25b51bf5ac41016,0.0356,0.0356,1,55,217,85,1,seveneight,,,,,,,,,,,,,,,,,,,,,,,,,,,,,,,,,,,,,,,,,,,,,,,,,,,,,,,,,,,,,,,,,,,,,,,,,,,,,,,,,,,,,,,,,,,,,,,,,,,,,,,,,,,,,,,,,,,,,,,,,,,,,,,,,,,,,,,,,
,,60524a9ece19f6b376473cf7,2026-03-17_10h23.09.911,kallum_motion_pilot_GIST_update_2,2026.1.1,Win32,59.52380952,60524a9ece19f6b376473cf7,69b92ab4aef6dee357cd729a,69b92b73b25b51bf5ac41016,0.0356,0.0356,1,56,218,60,1,threeone,,,,,,,,,,,,,,,,,,,,,,,,,,,,,,,,,,,,,,,,,,,,,,,,,,,,,,,,,,,,,,,,,,,,,,,,,,,,,,,,,,,,,,,,,,,,,,,,,,,,,,,,,,,,,,,,,,,,,,,,,,,,,,,,,,,,,,,,,
,,60524a9ece19f6b376473cf7,2026-03-17_10h23.09.911,kallum_motion_pilot_GIST_update_2,2026.1.1,Win32,59.52380952,60524a9ece19f6b376473cf7,69b92ab4aef6dee357cd729a,69b92b73b25b51bf5ac41016,0.0357,0.0357,1,57,219,20,1,threeone,,,,,,,,,,,,,,,,,,,,,,,,,,,,,,,,,,,,,,,,,,,,,,,,,,,,,,,,,,,,,,,,,,,,,,,,,,,,,,,,,,,,,,,,,,,,,,,,,,,,,,,,,,,,,,,,,,,,,,,,,,,,,,,,,,,,,,,,,
,,60524a9ece19f6b376473cf7,2026-03-17_10h23.09.911,kallum_motion_pilot_GIST_update_2,2026.1.1,Win32,59.52380952,60524a9ece19f6b376473cf7,69b92ab4aef6dee357cd729a,69b92b73b25b51bf5ac41016,0.0358,0.0358,1,58,220,17,1,onethree,,,,,,,,,,,,,,,,,,,,,,,,,,,,,,,,,,,,,,,,,,,,,,,,,,,,,,,,,,,,,,,,,,,,,,,,,,,,,,,,,,,,,,,,,,,,,,,,,,,,,,,,,,,,,,,,,,,,,,,,,,,,,,,,,,,,,,,,,
,,60524a9ece19f6b376473cf7,2026-03-17_10h23.09.911,kallum_motion_pilot_GIST_update_2,2026.1.1,Win32,59.52380952,60524a9ece19f6b376473cf7,69b92ab4aef6dee357cd729a,69b92b73b25b51bf5ac41016,0.0358,0.0358,1,59,221,23,1,fourthree,,,,,,,,,,,,,,,,,,,,,,,,,,,,,,,,,,,,,,,,,,,,,,,,,,,,,,,,,,,,,,,,,,,,,,,,,,,,,,,,,,,,,,,,,,,,,,,,,,,,,,,,,,,,,,,,,,,,,,,,,,,,,,,,,,,,,,,,,
,,60524a9ece19f6b376473cf7,2026-03-17_10h23.09.911,kallum_motion_pilot_GIST_update_2,2026.1.1,Win32,59.52380952,60524a9ece19f6b376473cf7,69b92ab4aef6dee357cd729a,69b92b73b25b51bf5ac41016,0.036,0.036,1,60,222,72,1,onetwo,,,,,,,,,,,,,,,,,,,,,,,,,,,,,,,,,,,,,,,,,,,,,,,,,,,,,,,,,,,,,,,,,,,,,,,,,,,,,,,,,,,,,,,,,,,,,,,,,,,,,,,,,,,,,,,,,,,,,,,,,,,,,,,,,,,,,,,,,
,,60524a9ece19f6b376473cf7,2026-03-17_10h23.09.911,kallum_motion_pilot_GIST_update_2,2026.1.1,Win32,59.52380952,60524a9ece19f6b376473cf7,69b92ab4aef6dee357cd729a,69b92b73b25b51bf5ac41016,0.0361,0.0361,1,61,223,133,1,seveneight,,,,,,,,,,,,,,,,,,,,,,,,,,,,,,,,,,,,,,,,,,,,,,,,,,,,,,,,,,,,,,,,,,,,,,,,,,,,,,,,,,,,,,,,,,,,,,,,,,,,,,,,,,,,,,,,,,,,,,,,,,,,,,,,,,,,,,,,,
,,60524a9ece19f6b376473cf7,2026-03-17_10h23.09.911,kallum_motion_pilot_GIST_update_2,2026.1.1,Win32,59.52380952,60524a9ece19f6b376473cf7,69b92ab4aef6dee357cd729a,69b92b73b25b51bf5ac41016,0.0361,0.0361,1,62,224,61,1,threefour,,,,,,,,,,,,,,,,,,,,,,,,,,,,,,,,,,,,,,,,,,,,,,,,,,,,,,,,,,,,,,,,,,,,,,,,,,,,,,,,,,,,,,,,,,,,,,,,,,,,,,,,,,,,,,,,,,,,,,,,,,,,,,,,,,,,,,,,,
,,60524a9ece19f6b376473cf7,2026-03-17_10h23.09.911,kallum_motion_pilot_GIST_update_2,2026.1.1,Win32,59.52380952,60524a9ece19f6b376473cf7,69b92ab4aef6dee357cd729a,69b92b73b25b51bf5ac41016,0.0362,0.0362,1,63,225,116,1,sevenfive,,,,,,,,,,,,,,,,,,,,,,,,,,,,,,,,,,,,,,,,,,,,,,,,,,,,,,,,,,,,,,,,,,,,,,,,,,,,,,,,,,,,,,,,,,,,,,,,,,,,,,,,,,,,,,,,,,,,,,,,,,,,,,,,,,,,,,,,,
,,60524a9ece19f6b376473cf7,2026-03-17_10h23.09.911,kallum_motion_pilot_GIST_update_2,2026.1.1,Win32,59.52380952,60524a9ece19f6b376473cf7,69b92ab4aef6dee357cd729a,69b92b73b25b51bf5ac41016,0.0363,0.0363,1,64,226,3,1,twofour,,,,,,,,,,,,,,,,,,,,,,,,,,,,,,,,,,,,,,,,,,,,,,,,,,,,,,,,,,,,,,,,,,,,,,,,,,,,,,,,,,,,,,,,,,,,,,,,,,,,,,,,,,,,,,,,,,,,,,,,,,,,,,,,,,,,,,,,,
,,60524a9ece19f6b376473cf7,2026-03-17_10h23.09.911,kallum_motion_pilot_GIST_update_2,2026.1.1,Win32,59.52380952,60524a9ece19f6b376473cf7,69b92ab4aef6dee357cd729a,69b92b73b25b51bf5ac41016,0.0364,0.0364,1,65,227,138,1,sixfive,,,,,,,,,,,,,,,,,,,,,,,,,,,,,,,,,,,,,,,,,,,,,,,,,,,,,,,,,,,,,,,,,,,,,,,,,,,,,,,,,,,,,,,,,,,,,,,,,,,,,,,,,,,,,,,,,,,,,,,,,,,,,,,,,,,,,,,,,
,,60524a9ece19f6b376473cf7,2026-03-17_10h23.09.911,kallum_motion_pilot_GIST_update_2,2026.1.1,Win32,59.52380952,60524a9ece19f6b376473cf7,69b92ab4aef6dee357cd729a,69b92b73b25b51bf5ac41016,0.0365,0.0365,1,66,228,62,1,fourtwo,,,,,,,,,,,,,,,,,,,,,,,,,,,,,,,,,,,,,,,,,,,,,,,,,,,,,,,,,,,,,,,,,,,,,,,,,,,,,,,,,,,,,,,,,,,,,,,,,,,,,,,,,,,,,,,,,,,,,,,,,,,,,,,,,,,,,,,,,
,,60524a9ece19f6b376473cf7,2026-03-17_10h23.09.911,kallum_motion_pilot_GIST_update_2,2026.1.1,Win32,59.52380952,60524a9ece19f6b376473cf7,69b92ab4aef6dee357cd729a,69b92b73b25b51bf5ac41016,0.0365,0.0365,1,67,229,81,1,fiveseven,,,,,,,,,,,,,,,,,,,,,,,,,,,,,,,,,,,,,,,,,,,,,,,,,,,,,,,,,,,,,,,,,,,,,,,,,,,,,,,,,,,,,,,,,,,,,,,,,,,,,,,,,,,,,,,,,,,,,,,,,,,,,,,,,,,,,,,,,
,,60524a9ece19f6b376473cf7,2026-03-17_10h23.09.911,kallum_motion_pilot_GIST_update_2,2026.1.1,Win32,59.52380952,60524a9ece19f6b376473cf7,69b92ab4aef6dee357cd729a,69b92b73b25b51bf5ac41016,0.0366,0.0366,1,68,230,141,1,seveneight,,,,,,,,,,,,,,,,,,,,,,,,,,,,,,,,,,,,,,,,,,,,,,,,,,,,,,,,,,,,,,,,,,,,,,,,,,,,,,,,,,,,,,,,,,,,,,,,,,,,,,,,,,,,,,,,,,,,,,,,,,,,,,,,,,,,,,,,,
,,60524a9ece19f6b376473cf7,2026-03-17_10h23.09.911,kallum_motion_pilot_GIST_update_2,2026.1.1,Win32,59.52380952,60524a9ece19f6b376473cf7,69b92ab4aef6dee357cd729a,69b92b73b25b51bf5ac41016,0.0366,0.0366,1,69,231,21,1,threefour,,,,,,,,,,,,,,,,,,,,,,,,,,,,,,,,,,,,,,,,,,,,,,,,,,,,,,,,,,,,,,,,,,,,,,,,,,,,,,,,,,,,,,,,,,,,,,,,,,,,,,,,,,,,,,,,,,,,,,,,,,,,,,,,,,,,,,,,,
,,60524a9ece19f6b376473cf7,2026-03-17_10h23.09.911,kallum_motion_pilot_GIST_update_2,2026.1.1,Win32,59.52380952,60524a9ece19f6b376473cf7,69b92ab4aef6dee357cd729a,69b92b73b25b51bf5ac41016,0.0368,0.0368,1,70,232,39,1,fourthree,,,,,,,,,,,,,,,,,,,,,,,,,,,,,,,,,,,,,,,,,,,,,,,,,,,,,,,,,,,,,,,,,,,,,,,,,,,,,,,,,,,,,,,,,,,,,,,,,,,,,,,,,,,,,,,,,,,,,,,,,,,,,,,,,,,,,,,,,
,,60524a9ece19f6b376473cf7,2026-03-17_10h23.09.911,kallum_motion_pilot_GIST_update_2,2026.1.1,Win32,59.52380952,60524a9ece19f6b376473cf7,69b92ab4aef6dee357cd729a,69b92b73b25b51bf5ac41016,0.0368,0.0368,1,71,233,108,1,sevenfive,,,,,,,,,,,,,,,,,,,,,,,,,,,,,,,,,,,,,,,,,,,,,,,,,,,,,,,,,,,,,,,,,,,,,,,,,,,,,,,,,,,,,,,,,,,,,,,,,,,,,,,,,,,,,,,,,,,,,,,,,,,,,,,,,,,,,,,,,
,,60524a9ece19f6b376473cf7,2026-03-17_10h23.09.911,kallum_motion_pilot_GIST_update_2,2026.1.1,Win32,59.52380952,60524a9ece19f6b376473cf7,69b92ab4aef6dee357cd729a,69b92b73b25b51bf5ac41016,0.037,0.037,1,72,234,123,1,sixeight,,,,,,,,,,,,,,,,,,,,,,,,,,,,,,,,,,,,,,,,,,,,,,,,,,,,,,,,,,,,,,,,,,,,,,,,,,,,,,,,,,,,,,,,,,,,,,,,,,,,,,,,,,,,,,,,,,,,,,,,,,,,,,,,,,,,,,,,,
,,60524a9ece19f6b376473cf7,2026-03-17_10h23.09.911,kallum_motion_pilot_GIST_update_2,2026.1.1,Win32,59.52380952,60524a9ece19f6b376473cf7,69b92ab4aef6dee357cd729a,69b92b73b25b51bf5ac41016,0.0371,0.0371,1,73,235,118,1,eightsix,,,,,,,,,,,,,,,,,,,,,,,,,,,,,,,,,,,,,,,,,,,,,,,,,,,,,,,,,,,,,,,,,,,,,,,,,,,,,,,,,,,,,,,,,,,,,,,,,,,,,,,,,,,,,,,,,,,,,,,,,,,,,,,,,,,,,,,,,
,,60524a9ece19f6b376473cf7,2026-03-17_10h23.09.911,kallum_motion_pilot_GIST_update_2,2026.1.1,Win32,59.52380952,60524a9ece19f6b376473cf7,69b92ab4aef6dee357cd729a,69b92b73b25b51bf5ac41016,0.0372,0.0372,1,74,236,147,1,sixeight,,,,,,,,,,,,,,,,,,,,,,,,,,,,,,,,,,,,,,,,,,,,,,,,,,,,,,,,,,,,,,,,,,,,,,,,,,,,,,,,,,,,,,,,,,,,,,,,,,,,,,,,,,,,,,,,,,,,,,,,,,,,,,,,,,,,,,,,,
,,60524a9ece19f6b376473cf7,2026-03-17_10h23.09.911,kallum_motion_pilot_GIST_update_2,2026.1.1,Win32,59.52380952,60524a9ece19f6b376473cf7,69b92ab4aef6dee357cd729a,69b92b73b25b51bf5ac41016,0.0372,0.0372,1,75,237,134,1,eightsix,,,,,,,,,,,,,,,,,,,,,,,,,,,,,,,,,,,,,,,,,,,,,,,,,,,,,,,,,,,,,,,,,,,,,,,,,,,,,,,,,,,,,,,,,,,,,,,,,,,,,,,,,,,,,,,,,,,,,,,,,,,,,,,,,,,,,,,,,
,,60524a9ece19f6b376473cf7,2026-03-17_10h23.09.911,kallum_motion_pilot_GIST_update_2,2026.1.1,Win32,59.52380952,60524a9ece19f6b376473cf7,69b92ab4aef6dee357cd729a,69b92b73b25b51bf5ac41016,0.0373,0.0373,1,76,238,51,1,twofour,,,,,,,,,,,,,,,,,,,,,,,,,,,,,,,,,,,,,,,,,,,,,,,,,,,,,,,,,,,,,,,,,,,,,,,,,,,,,,,,,,,,,,,,,,,,,,,,,,,,,,,,,,,,,,,,,,,,,,,,,,,,,,,,,,,,,,,,,
,,60524a9ece19f6b376473cf7,2026-03-17_10h23.09.911,kallum_motion_pilot_GIST_update_2,2026.1.1,Win32,59.52380952,60524a9ece19f6b376473cf7,69b92ab4aef6dee357cd729a,69b92b73b25b51bf5ac41016,0.0374,0.0374,1,77,239,143,1,eightseven,,,,,,,,,,,,,,,,,,,,,,,,,,,,,,,,,,,,,,,,,,,,,,,,,,,,,,,,,,,,,,,,,,,,,,,,,,,,,,,,,,,,,,,,,,,,,,,,,,,,,,,,,,,,,,,,,,,,,,,,,,,,,,,,,,,,,,,,,
,,60524a9ece19f6b376473cf7,2026-03-17_10h23.09.911,kallum_motion_pilot_GIST_update_2,2026.1.1,Win32,59.52380952,60524a9ece19f6b376473cf7,69b92ab4aef6dee357cd729a,69b92b73b25b51bf5ac41016,0.0375,0.0375,1,78,240,94,1,eightsix,,,,,,,,,,,,,,,,,,,,,,,,,,,,,,,,,,,,,,,,,,,,,,,,,,,,,,,,,,,,,,,,,,,,,,,,,,,,,,,,,,,,,,,,,,,,,,,,,,,,,,,,,,,,,,,,,,,,,,,,,,,,,,,,,,,,,,,,,
,,60524a9ece19f6b376473cf7,2026-03-17_10h23.09.911,kallum_motion_pilot_GIST_update_2,2026.1.1,Win32,59.52380952,60524a9ece19f6b376473cf7,69b92ab4aef6dee357cd729a,69b92b73b25b51bf5ac41016,0.0376,0.0376,1,79,241,36,1,threeone,,,,,,,,,,,,,,,,,,,,,,,,,,,,,,,,,,,,,,,,,,,,,,,,,,,,,,,,,,,,,,,,,,,,,,,,,,,,,,,,,,,,,,,,,,,,,,,,,,,,,,,,,,,,,,,,,,,,,,,,,,,,,,,,,,,,,,,,,
,,60524a9ece19f6b376473cf7,2026-03-17_10h23.09.911,kallum_motion_pilot_GIST_update_2,2026.1.1,Win32,59.52380952,60524a9ece19f6b376473cf7,69b92ab4aef6dee357cd729a,69b92b73b25b51bf5ac41016,0.0377,0.0377,1,80,242,152,1,fivesix,,,,,,,,,,,,,,,,,,,,,,,,,,,,,,,,,,,,,,,,,,,,,,,,,,,,,,,,,,,,,,,,,,,,,,,,,,,,,,,,,,,,,,,,,,,,,,,,,,,,,,,,,,,,,,,,,,,,,,,,,,,,,,,,,,,,,,,,,
,,60524a9ece19f6b376473cf7,2026-03-17_10h23.09.911,kallum_motion_pilot_GIST_update_2,2026.1.1,Win32,59.52380952,60524a9ece19f6b376473cf7,69b92ab4aef6dee357cd729a,69b92b73b25b51bf5ac41016,0.0377,0.0377,1,81,243,2,1,twoone,,,,,,,,,,,,,,,,,,,,,,,,,,,,,,,,,,,,,,,,,,,,,,,,,,,,,,,,,,,,,,,,,,,,,,,,,,,,,,,,,,,,,,,,,,,,,,,,,,,,,,,,,,,,,,,,,,,,,,,,,,,,,,,,,,,,,,,,,
,,60524a9ece19f6b376473cf7,2026-03-17_10h23.09.911,kallum_motion_pilot_GIST_update_2,2026.1.1,Win32,59.52380952,60524a9ece19f6b376473cf7,69b92ab4aef6dee357cd729a,69b92b73b25b51bf5ac41016,0.0378,0.0378,1,82,244,96,1,fivesix,,,,,,,,,,,,,,,,,,,,,,,,,,,,,,,,,,,,,,,,,,,,,,,,,,,,,,,,,,,,,,,,,,,,,,,,,,,,,,,,,,,,,,,,,,,,,,,,,,,,,,,,,,,,,,,,,,,,,,,,,,,,,,,,,,,,,,,,,
,,60524a9ece19f6b376473cf7,2026-03-17_10h23.09.911,kallum_motion_pilot_GIST_update_2,2026.1.1,Win32,59.52380952,60524a9ece19f6b376473cf7,69b92ab4aef6dee357cd729a,69b92b73b25b51bf5ac41016,0.0379,0.0379,1,83,245,156,1,sevenfive,,,,,,,,,,,,,,,,,,,,,,,,,,,,,,,,,,,,,,,,,,,,,,,,,,,,,,,,,,,,,,,,,,,,,,,,,,,,,,,,,,,,,,,,,,,,,,,,,,,,,,,,,,,,,,,,,,,,,,,,,,,,,,,,,,,,,,,,,
,,60524a9ece19f6b376473cf7,2026-03-17_10h23.09.911,kallum_motion_pilot_GIST_update_2,2026.1.1,Win32,59.52380952,60524a9ece19f6b376473cf7,69b92ab4aef6dee357cd729a,69b92b73b25b51bf5ac41016,0.038,0.038,1,84,246,150,1,eightsix,,,,,,,,,,,,,,,,,,,,,,,,,,,,,,,,,,,,,,,,,,,,,,,,,,,,,,,,,,,,,,,,,,,,,,,,,,,,,,,,,,,,,,,,,,,,,,,,,,,,,,,,,,,,,,,,,,,,,,,,,,,,,,,,,,,,,,,,,
,,60524a9ece19f6b376473cf7,2026-03-17_10h23.09.911,kallum_motion_pilot_GIST_update_2,2026.1.1,Win32,59.52380952,60524a9ece19f6b376473cf7,69b92ab4aef6dee357cd729a,69b92b73b25b51bf5ac41016,0.0381,0.0381,1,85,247,151,1,eightseven,,,,,,,,,,,,,,,,,,,,,,,,,,,,,,,,,,,,,,,,,,,,,,,,,,,,,,,,,,,,,,,,,,,,,,,,,,,,,,,,,,,,,,,,,,,,,,,,,,,,,,,,,,,,,,,,,,,,,,,,,,,,,,,,,,,,,,,,,
,,60524a9ece19f6b376473cf7,2026-03-17_10h23.09.911,kallum_motion_pilot_GIST_update_2,2026.1.1,Win32,59.52380952,60524a9ece19f6b376473cf7,69b92ab4aef6dee357cd729a,69b92b73b25b51bf5ac41016,0.0382,0.0382,1,86,248,160,1,fivesix,,,,,,,,,,,,,,,,,,,,,,,,,,,,,,,,,,,,,,,,,,,,,,,,,,,,,,,,,,,,,,,,,,,,,,,,,,,,,,,,,,,,,,,,,,,,,,,,,,,,,,,,,,,,,,,,,,,,,,,,,,,,,,,,,,,,,,,,,
,,60524a9ece19f6b376473cf7,2026-03-17_10h23.09.911,kallum_motion_pilot_GIST_update_2,2026.1.1,Win32,59.52380952,60524a9ece19f6b376473cf7,69b92ab4aef6dee357cd729a,69b92b73b25b51bf5ac41016,0.0382,0.0382,1,87,249,28,1,threeone,,,,,,,,,,,,,,,,,,,,,,,,,,,,,,,,,,,,,,,,,,,,,,,,,,,,,,,,,,,,,,,,,,,,,,,,,,,,,,,,,,,,,,,,,,,,,,,,,,,,,,,,,,,,,,,,,,,,,,,,,,,,,,,,,,,,,,,,,
,,60524a9ece19f6b376473cf7,2026-03-17_10h23.09.911,kallum_motion_pilot_GIST_update_2,2026.1.1,Win32,59.52380952,60524a9ece19f6b376473cf7,69b92ab4aef6dee357cd729a,69b92b73b25b51bf5ac41016,0.0383,0.0383,1,88,250,157,1,seveneight,,,,,,,,,,,,,,,,,,,,,,,,,,,,,,,,,,,,,,,,,,,,,,,,,,,,,,,,,,,,,,,,,,,,,,,,,,,,,,,,,,,,,,,,,,,,,,,,,,,,,,,,,,,,,,,,,,,,,,,,,,,,,,,,,,,,,,,,,
,,60524a9ece19f6b376473cf7,2026-03-17_10h23.09.911,kallum_motion_pilot_GIST_update_2,2026.1.1,Win32,59.52380952,60524a9ece19f6b376473cf7,69b92ab4aef6dee357cd729a,69b92b73b25b51bf5ac41016,0.0385,0.0385,1,89,251,13,1,threefour,,,,,,,,,,,,,,,,,,,,,,,,,,,,,,,,,,,,,,,,,,,,,,,,,,,,,,,,,,,,,,,,,,,,,,,,,,,,,,,,,,,,,,,,,,,,,,,,,,,,,,,,,,,,,,,,,,,,,,,,,,,,,,,,,,,,,,,,,
,,60524a9ece19f6b376473cf7,2026-03-17_10h23.09.911,kallum_motion_pilot_GIST_update_2,2026.1.1,Win32,59.52380952,60524a9ece19f6b376473cf7,69b92ab4aef6dee357cd729a,69b92b73b25b51bf5ac41016,0.0385,0.0386,1,90,252,117,1,seveneight,,,,,,,,,,,,,,,,,,,,,,,,,,,,,,,,,,,,,,,,,,,,,,,,,,,,,,,,,,,,,,,,,,,,,,,,,,,,,,,,,,,,,,,,,,,,,,,,,,,,,,,,,,,,,,,,,,,,,,,,,,,,,,,,,,,,,,,,,
,,60524a9ece19f6b376473cf7,2026-03-17_10h23.09.911,kallum_motion_pilot_GIST_update_2,2026.1.1,Win32,59.52380952,60524a9ece19f6b376473cf7,69b92ab4aef6dee357cd729a,69b92b73b25b51bf5ac41016,0.0386,0.0386,1,91,253,145,1,fiveseven,,,,,,,,,,,,,,,,,,,,,,,,,,,,,,,,,,,,,,,,,,,,,,,,,,,,,,,,,,,,,,,,,,,,,,,,,,,,,,,,,,,,,,,,,,,,,,,,,,,,,,,,,,,,,,,,,,,,,,,,,,,,,,,,,,,,,,,,,
,,60524a9ece19f6b376473cf7,2026-03-17_10h23.09.911,kallum_motion_pilot_GIST_update_2,2026.1.1,Win32,59.52380952,60524a9ece19f6b376473cf7,69b92ab4aef6dee357cd729a,69b92b73b25b51bf5ac41016,0.0387,0.0387,1,92,254,26,1,twoone,,,,,,,,,,,,,,,,,,,,,,,,,,,,,,,,,,,,,,,,,,,,,,,,,,,,,,,,,,,,,,,,,,,,,,,,,,,,,,,,,,,,,,,,,,,,,,,,,,,,,,,,,,,,,,,,,,,,,,,,,,,,,,,,,,,,,,,,,
,,60524a9ece19f6b376473cf7,2026-03-17_10h23.09.911,kallum_motion_pilot_GIST_update_2,2026.1.1,Win32,59.52380952,60524a9ece19f6b376473cf7,69b92ab4aef6dee357cd729a,69b92b73b25b51bf5ac41016,0.0388,0.0388,1,93,255,107,1,sixeight,,,,,,,,,,,,,,,,,,,,,,,,,,,,,,,,,,,,,,,,,,,,,,,,,,,,,,,,,,,,,,,,,,,,,,,,,,,,,,,,,,,,,,,,,,,,,,,,,,,,,,,,,,,,,,,,,,,,,,,,,,,,,,,,,,,,,,,,,
,,60524a9ece19f6b376473cf7,2026-03-17_10h23.09.911,kallum_motion_pilot_GIST_update_2,2026.1.1,Win32,59.52380952,60524a9ece19f6b376473cf7,69b92ab4aef6dee357cd729a,69b92b73b25b51bf5ac41016,0.0389,0.0389,1,94,256,45,1,threefour,,,,,,,,,,,,,,,,,,,,,,,,,,,,,,,,,,,,,,,,,,,,,,,,,,,,,,,,,,,,,,,,,,,,,,,,,,,,,,,,,,,,,,,,,,,,,,,,,,,,,,,,,,,,,,,,,,,,,,,,,,,,,,,,,,,,,,,,,
,,60524a9ece19f6b376473cf7,2026-03-17_10h23.09.911,kallum_motion_pilot_GIST_update_2,2026.1.1,Win32,59.52380952,60524a9ece19f6b376473cf7,69b92ab4aef6dee357cd729a,69b92b73b25b51bf5ac41016,0.039,0.039,1,95,257,106,1,sixfive,,,,,,,,,,,,,,,,,,,,,,,,,,,,,,,,,,,,,,,,,,,,,,,,,,,,,,,,,,,,,,,,,,,,,,,,,,,,,,,,,,,,,,,,,,,,,,,,,,,,,,,,,,,,,,,,,,,,,,,,,,,,,,,,,,,,,,,,,
,,60524a9ece19f6b376473cf7,2026-03-17_10h23.09.911,kallum_motion_pilot_GIST_update_2,2026.1.1,Win32,59.52380952,60524a9ece19f6b376473cf7,69b92ab4aef6dee357cd729a,69b92b73b25b51bf5ac41016,0.0391,0.0391,1,96,258,32,1,onetwo,,,,,,,,,,,,,,,,,,,,,,,,,,,,,,,,,,,,,,,,,,,,,,,,,,,,,,,,,,,,,,,,,,,,,,,,,,,,,,,,,,,,,,,,,,,,,,,,,,,,,,,,,,,,,,,,,,,,,,,,,,,,,,,,,,,,,,,,,
,,60524a9ece19f6b376473cf7,2026-03-17_10h23.09.911,kallum_motion_pilot_GIST_update_2,2026.1.1,Win32,59.52380952,60524a9ece19f6b376473cf7,69b92ab4aef6dee357cd729a,69b92b73b25b51bf5ac41016,0.0393,0.0393,1,97,259,140,1,sevenfive,,,,,,,,,,,,,,,,,,,,,,,,,,,,,,,,,,,,,,,,,,,,,,,,,,,,,,,,,,,,,,,,,,,,,,,,,,,,,,,,,,,,,,,,,,,,,,,,,,,,,,,,,,,,,,,,,,,,,,,,,,,,,,,,,,,,,,,,,
,,60524a9ece19f6b376473cf7,2026-03-17_10h23.09.911,kallum_motion_pilot_GIST_update_2,2026.1.1,Win32,59.52380952,60524a9ece19f6b376473cf7,69b92ab4aef6dee357cd729a,69b92b73b25b51bf5ac41016,0.0393,0.0393,1,98,260,104,1,fivesix,,,,,,,,,,,,,,,,,,,,,,,,,,,,,,,,,,,,,,,,,,,,,,,,,,,,,,,,,,,,,,,,,,,,,,,,,,,,,,,,,,,,,,,,,,,,,,,,,,,,,,,,,,,,,,,,,,,,,,,,,,,,,,,,,,,,,,,,,
,,60524a9ece19f6b376473cf7,2026-03-17_10h23.09.911,kallum_motion_pilot_GIST_update_2,2026.1.1,Win32,59.52380952,60524a9ece19f6b376473cf7,69b92ab4aef6dee357cd729a,69b92b73b25b51bf5ac41016,0.0394,0.0395,1,99,261,31,1,fourthree,,,,,,,,,,,,,,,,,,,,,,,,,,,,,,,,,,,,,,,,,,,,,,,,,,,,,,,,,,,,,,,,,,,,,,,,,,,,,,,,,,,,,,,,,,,,,,,,,,,,,,,,,,,,,,,,,,,,,,,,,,,,,,,,,,,,,,,,,
,,60524a9ece19f6b376473cf7,2026-03-17_10h23.09.911,kallum_motion_pilot_GIST_update_2,2026.1.1,Win32,59.52380952,60524a9ece19f6b376473cf7,69b92ab4aef6dee357cd729a,69b92b73b25b51bf5ac41016,0.0395,0.0395,1,100,262,142,1,eightsix,,,,,,,,,,,,,,,,,,,,,,,,,,,,,,,,,,,,,,,,,,,,,,,,,,,,,,,,,,,,,,,,,,,,,,,,,,,,,,,,,,,,,,,,,,,,,,,,,,,,,,,,,,,,,,,,,,,,,,,,,,,,,,,,,,,,,,,,,
,,60524a9ece19f6b376473cf7,2026-03-17_10h23.09.911,kallum_motion_pilot_GIST_update_2,2026.1.1,Win32,59.52380952,60524a9ece19f6b376473cf7,69b92ab4aef6dee357cd729a,69b92b73b25b51bf5ac41016,0.0396,0.0396,1,101,263,16,1,onetwo,,,,,,,,,,,,,,,,,,,,,,,,,,,,,,,,,,,,,,,,,,,,,,,,,,,,,,,,,,,,,,,,,,,,,,,,,,,,,,,,,,,,,,,,,,,,,,,,,,,,,,,,,,,,,,,,,,,,,,,,,,,,,,,,,,,,,,,,,
,,60524a9ece19f6b376473cf7,2026-03-17_10h23.09.911,kallum_motion_pilot_GIST_update_2,2026.1.1,Win32,59.52380952,60524a9ece19f6b376473cf7,69b92ab4aef6dee357cd729a,69b92b73b25b51bf5ac41016,0.0397,0.0397,1,102,264,137,1,fiveseven,,,,,,,,,,,,,,,,,,,,,,,,,,,,,,,,,,,,,,,,,,,,,,,,,,,,,,,,,,,,,,,,,,,,,,,,,,,,,,,,,,,,,,,,,,,,,,,,,,,,,,,,,,,,,,,,,,,,,,,,,,,,,,,,,,,,,,,,,
,,60524a9ece19f6b376473cf7,2026-03-17_10h23.09.911,kallum_motion_pilot_GIST_update_2,2026.1.1,Win32,59.52380952,60524a9ece19f6b376473cf7,69b92ab4aef6dee357cd729a,69b92b73b25b51bf5ac41016,0.0398,0.0398,1,103,265,22,1,fourtwo,,,,,,,,,,,,,,,,,,,,,,,,,,,,,,,,,,,,,,,,,,,,,,,,,,,,,,,,,,,,,,,,,,,,,,,,,,,,,,,,,,,,,,,,,,,,,,,,,,,,,,,,,,,,,,,,,,,,,,,,,,,,,,,,,,,,,,,,,
,,60524a9ece19f6b376473cf7,2026-03-17_10h23.09.911,kallum_motion_pilot_GIST_update_2,2026.1.1,Win32,59.52380952,60524a9ece19f6b376473cf7,69b92ab4aef6dee357cd729a,69b92b73b25b51bf5ac41016,0.0399,0.0399,1,104,266,15,1,fourthree,,,,,,,,,,,,,,,,,,,,,,,,,,,,,,,,,,,,,,,,,,,,,,,,,,,,,,,,,,,,,,,,,,,,,,,,,,,,,,,,,,,,,,,,,,,,,,,,,,,,,,,,,,,,,,,,,,,,,,,,,,,,,,,,,,,,,,,,,
