startup.started,startup.stopped,Prolific ID*,date,expName,psychopyVersion,OS,frameRate,participant,study_id,session,stimpositions.started,stimpositions.stopped,hardcoded_stimulus_positions.thisRepN,hardcoded_stimulus_positions.thisTrialN,hardcoded_stimulus_positions.thisN,hardcoded_stimulus_positions.thisIndex,hardcoded_stimulus_positions.ran,StimulusPos,stimorientation.started,stimorientation.stopped,prac_stimorientation_import_loop.thisRepN,prac_stimorientation_import_loop.thisTrialN,prac_stimorientation_import_loop.thisN,prac_stimorientation_import_loop.thisIndex,prac_stimorientation_import_loop.ran,Stimorientation,welcome_instr.started,welcome_instr.stopped,key_resp.keys,key_resp.rt,key_resp.duration,response_steppedout_1.started,response_steppedout_1.stopped,key_resp_20.keys,key_resp_20.rt,key_resp_20.duration,response_steppedout_2.started,response_steppedout_2.stopped,key_resp_19.keys,key_resp_19.rt,key_resp_19.duration,stim_response_instr.started,stim_response_instr.stopped,key_resp_15.keys,key_resp_15.rt,key_resp_15.duration,direction_instr_2.started,direction_instr_2.stopped,key_resp_9.keys,key_resp_9.rt,key_resp_9.duration,instr_prac.started,instr_prac.stopped,key_resp_10.keys,key_resp_10.rt,key_resp_10.duration,Stim1_display_prac.started,Stim1_display_prac.stopped,Ecc,Circle1_ori,Circle2_ori,response_prac.started,similarity,response_time,response_prac.stopped,mouse_5.x,mouse_5.y,mouse_5.leftButton,mouse_5.midButton,mouse_5.rightButton,mouse_5.clicked_name,responseprac_feedback.started,responseprac_feedback.stopped,summary2_prac.started,summary2_prac.stopped,mouse_6.x,mouse_6.y,mouse_6.leftButton,mouse_6.midButton,mouse_6.rightButton,mouse_6.clicked_name,duringprac.thisRepN,duringprac.thisTrialN,duringprac.thisN,duringprac.thisIndex,duringprac.ran,begin.started,begin.stopped,key_resp_22.keys,key_resp_22.rt,key_resp_22.duration,Stim1_display.started,Stim1_display.stopped,circle1_ori,circle2_ori,circle1_SF,circle2_SF,response.started,response.stopped,mouse.x,mouse.y,mouse.leftButton,mouse.midButton,mouse.rightButton,mouse.clicked_name,trialnumber,double_pass.thisRepN,double_pass.thisTrialN,double_pass.thisN,double_pass.thisIndex,double_pass.ran,double_pass.order,main_trial.thisRepN,main_trial.thisTrialN,main_trial.thisN,main_trial.thisIndex,main_trial.ran,main_trial.order,Trial_Counter,Catch,Frequencies,response_2.started,response_2.stopped,mouse_2.x,mouse_2.y,mouse_2.leftButton,mouse_2.midButton,mouse_2.rightButton,mouse_2.clicked_name,special_trial.started,special_trial.stopped,catch_1.started,catch_1.stopped,mouse_3.x,mouse_3.y,mouse_3.leftButton,mouse_3.midButton,mouse_3.rightButton,catchresponse,catchnumber,response_time_catch,response_sum.started,response_sum.stopped,mouse_11.x,mouse_11.y,mouse_11.leftButton,mouse_11.midButton,mouse_11.rightButton,flip_presentation_sequence_for_double_pass.started,flip_presentation_sequence_for_double_pass.stopped,goodbye.started,goodbye.stopped,key_resp_3.keys,key_resp_3.rt,key_resp_3.duration
0.0002,0.0003,605b838b80f022835fc293fb,2026-03-17_16h07.41.244,kallum_motion_pilot_GIST_update_2,2026.1.1,Win32,59.17159763,605b838b80f022835fc293fb,69b95efdef24cd8a694e89ee,69b9600c4bd956978d6e1b01,,,,,,,,,,,,,,,,,,,,,,,,,,,,,,,,,,,,,,,,,,,,,,,,,,,,,,,,,,,,,,,,,,,,,,,,,,,,,,,,,,,,,,,,,,,,,,,,,,,,,,,,,,,,,,,,,,,,,,,,,,,,,,,,,,,,,,,,,,,,,,,,,
,,605b838b80f022835fc293fb,2026-03-17_16h07.41.244,kallum_motion_pilot_GIST_update_2,2026.1.1,Win32,59.17159763,605b838b80f022835fc293fb,69b95efdef24cd8a694e89ee,69b9600c4bd956978d6e1b01,0.0168,0.0169,0,0,0,36,1,threeone,,,,,,,,,,,,,,,,,,,,,,,,,,,,,,,,,,,,,,,,,,,,,,,,,,,,,,,,,,,,,,,,,,,,,,,,,,,,,,,,,,,,,,,,,,,,,,,,,,,,,,,,,,,,,,,,,,,,,,,,,,,,,,,,,,,,,,,,,
,,605b838b80f022835fc293fb,2026-03-17_16h07.41.244,kallum_motion_pilot_GIST_update_2,2026.1.1,Win32,59.17159763,605b838b80f022835fc293fb,69b95efdef24cd8a694e89ee,69b9600c4bd956978d6e1b01,0.017,0.017,0,1,1,10,1,twoone,,,,,,,,,,,,,,,,,,,,,,,,,,,,,,,,,,,,,,,,,,,,,,,,,,,,,,,,,,,,,,,,,,,,,,,,,,,,,,,,,,,,,,,,,,,,,,,,,,,,,,,,,,,,,,,,,,,,,,,,,,,,,,,,,,,,,,,,,
,,605b838b80f022835fc293fb,2026-03-17_16h07.41.244,kallum_motion_pilot_GIST_update_2,2026.1.1,Win32,59.17159763,605b838b80f022835fc293fb,69b95efdef24cd8a694e89ee,69b9600c4bd956978d6e1b01,0.0171,0.0171,0,2,2,74,1,twoone,,,,,,,,,,,,,,,,,,,,,,,,,,,,,,,,,,,,,,,,,,,,,,,,,,,,,,,,,,,,,,,,,,,,,,,,,,,,,,,,,,,,,,,,,,,,,,,,,,,,,,,,,,,,,,,,,,,,,,,,,,,,,,,,,,,,,,,,,
,,605b838b80f022835fc293fb,2026-03-17_16h07.41.244,kallum_motion_pilot_GIST_update_2,2026.1.1,Win32,59.17159763,605b838b80f022835fc293fb,69b95efdef24cd8a694e89ee,69b9600c4bd956978d6e1b01,0.0172,0.0173,0,3,3,0,1,onetwo,,,,,,,,,,,,,,,,,,,,,,,,,,,,,,,,,,,,,,,,,,,,,,,,,,,,,,,,,,,,,,,,,,,,,,,,,,,,,,,,,,,,,,,,,,,,,,,,,,,,,,,,,,,,,,,,,,,,,,,,,,,,,,,,,,,,,,,,,
,,605b838b80f022835fc293fb,2026-03-17_16h07.41.244,kallum_motion_pilot_GIST_update_2,2026.1.1,Win32,59.17159763,605b838b80f022835fc293fb,69b95efdef24cd8a694e89ee,69b9600c4bd956978d6e1b01,0.0173,0.0173,0,4,4,29,1,threefour,,,,,,,,,,,,,,,,,,,,,,,,,,,,,,,,,,,,,,,,,,,,,,,,,,,,,,,,,,,,,,,,,,,,,,,,,,,,,,,,,,,,,,,,,,,,,,,,,,,,,,,,,,,,,,,,,,,,,,,,,,,,,,,,,,,,,,,,,
,,605b838b80f022835fc293fb,2026-03-17_16h07.41.244,kallum_motion_pilot_GIST_update_2,2026.1.1,Win32,59.17159763,605b838b80f022835fc293fb,69b95efdef24cd8a694e89ee,69b9600c4bd956978d6e1b01,0.0174,0.0174,0,5,5,77,1,threefour,,,,,,,,,,,,,,,,,,,,,,,,,,,,,,,,,,,,,,,,,,,,,,,,,,,,,,,,,,,,,,,,,,,,,,,,,,,,,,,,,,,,,,,,,,,,,,,,,,,,,,,,,,,,,,,,,,,,,,,,,,,,,,,,,,,,,,,,,
,,605b838b80f022835fc293fb,2026-03-17_16h07.41.244,kallum_motion_pilot_GIST_update_2,2026.1.1,Win32,59.17159763,605b838b80f022835fc293fb,69b95efdef24cd8a694e89ee,69b9600c4bd956978d6e1b01,0.0174,0.0174,0,6,6,40,1,onetwo,,,,,,,,,,,,,,,,,,,,,,,,,,,,,,,,,,,,,,,,,,,,,,,,,,,,,,,,,,,,,,,,,,,,,,,,,,,,,,,,,,,,,,,,,,,,,,,,,,,,,,,,,,,,,,,,,,,,,,,,,,,,,,,,,,,,,,,,,
,,605b838b80f022835fc293fb,2026-03-17_16h07.41.244,kallum_motion_pilot_GIST_update_2,2026.1.1,Win32,59.17159763,605b838b80f022835fc293fb,69b95efdef24cd8a694e89ee,69b9600c4bd956978d6e1b01,0.0175,0.0175,0,7,7,99,1,sixeight,,,,,,,,,,,,,,,,,,,,,,,,,,,,,,,,,,,,,,,,,,,,,,,,,,,,,,,,,,,,,,,,,,,,,,,,,,,,,,,,,,,,,,,,,,,,,,,,,,,,,,,,,,,,,,,,,,,,,,,,,,,,,,,,,,,,,,,,,
,,605b838b80f022835fc293fb,2026-03-17_16h07.41.244,kallum_motion_pilot_GIST_update_2,2026.1.1,Win32,59.17159763,605b838b80f022835fc293fb,69b95efdef24cd8a694e89ee,69b9600c4bd956978d6e1b01,0.0176,0.0176,0,8,8,141,1,seveneight,,,,,,,,,,,,,,,,,,,,,,,,,,,,,,,,,,,,,,,,,,,,,,,,,,,,,,,,,,,,,,,,,,,,,,,,,,,,,,,,,,,,,,,,,,,,,,,,,,,,,,,,,,,,,,,,,,,,,,,,,,,,,,,,,,,,,,,,,
,,605b838b80f022835fc293fb,2026-03-17_16h07.41.244,kallum_motion_pilot_GIST_update_2,2026.1.1,Win32,59.17159763,605b838b80f022835fc293fb,69b95efdef24cd8a694e89ee,69b9600c4bd956978d6e1b01,0.0178,0.0178,0,9,9,136,1,fivesix,,,,,,,,,,,,,,,,,,,,,,,,,,,,,,,,,,,,,,,,,,,,,,,,,,,,,,,,,,,,,,,,,,,,,,,,,,,,,,,,,,,,,,,,,,,,,,,,,,,,,,,,,,,,,,,,,,,,,,,,,,,,,,,,,,,,,,,,,
,,605b838b80f022835fc293fb,2026-03-17_16h07.41.244,kallum_motion_pilot_GIST_update_2,2026.1.1,Win32,59.17159763,605b838b80f022835fc293fb,69b95efdef24cd8a694e89ee,69b9600c4bd956978d6e1b01,0.0179,0.0179,0,10,10,68,1,threeone,,,,,,,,,,,,,,,,,,,,,,,,,,,,,,,,,,,,,,,,,,,,,,,,,,,,,,,,,,,,,,,,,,,,,,,,,,,,,,,,,,,,,,,,,,,,,,,,,,,,,,,,,,,,,,,,,,,,,,,,,,,,,,,,,,,,,,,,,
,,605b838b80f022835fc293fb,2026-03-17_16h07.41.244,kallum_motion_pilot_GIST_update_2,2026.1.1,Win32,59.17159763,605b838b80f022835fc293fb,69b95efdef24cd8a694e89ee,69b9600c4bd956978d6e1b01,0.0179,0.0179,0,11,11,6,1,fourtwo,,,,,,,,,,,,,,,,,,,,,,,,,,,,,,,,,,,,,,,,,,,,,,,,,,,,,,,,,,,,,,,,,,,,,,,,,,,,,,,,,,,,,,,,,,,,,,,,,,,,,,,,,,,,,,,,,,,,,,,,,,,,,,,,,,,,,,,,,
,,605b838b80f022835fc293fb,2026-03-17_16h07.41.244,kallum_motion_pilot_GIST_update_2,2026.1.1,Win32,59.17159763,605b838b80f022835fc293fb,69b95efdef24cd8a694e89ee,69b9600c4bd956978d6e1b01,0.018,0.018,0,12,12,131,1,sixeight,,,,,,,,,,,,,,,,,,,,,,,,,,,,,,,,,,,,,,,,,,,,,,,,,,,,,,,,,,,,,,,,,,,,,,,,,,,,,,,,,,,,,,,,,,,,,,,,,,,,,,,,,,,,,,,,,,,,,,,,,,,,,,,,,,,,,,,,,
,,605b838b80f022835fc293fb,2026-03-17_16h07.41.244,kallum_motion_pilot_GIST_update_2,2026.1.1,Win32,59.17159763,605b838b80f022835fc293fb,69b95efdef24cd8a694e89ee,69b9600c4bd956978d6e1b01,0.0181,0.0181,0,13,13,139,1,sixeight,,,,,,,,,,,,,,,,,,,,,,,,,,,,,,,,,,,,,,,,,,,,,,,,,,,,,,,,,,,,,,,,,,,,,,,,,,,,,,,,,,,,,,,,,,,,,,,,,,,,,,,,,,,,,,,,,,,,,,,,,,,,,,,,,,,,,,,,,
,,605b838b80f022835fc293fb,2026-03-17_16h07.41.244,kallum_motion_pilot_GIST_update_2,2026.1.1,Win32,59.17159763,605b838b80f022835fc293fb,69b95efdef24cd8a694e89ee,69b9600c4bd956978d6e1b01,0.0181,0.0181,0,14,14,157,1,seveneight,,,,,,,,,,,,,,,,,,,,,,,,,,,,,,,,,,,,,,,,,,,,,,,,,,,,,,,,,,,,,,,,,,,,,,,,,,,,,,,,,,,,,,,,,,,,,,,,,,,,,,,,,,,,,,,,,,,,,,,,,,,,,,,,,,,,,,,,,
,,605b838b80f022835fc293fb,2026-03-17_16h07.41.244,kallum_motion_pilot_GIST_update_2,2026.1.1,Win32,59.17159763,605b838b80f022835fc293fb,69b95efdef24cd8a694e89ee,69b9600c4bd956978d6e1b01,0.0182,0.0182,0,15,15,82,1,sixfive,,,,,,,,,,,,,,,,,,,,,,,,,,,,,,,,,,,,,,,,,,,,,,,,,,,,,,,,,,,,,,,,,,,,,,,,,,,,,,,,,,,,,,,,,,,,,,,,,,,,,,,,,,,,,,,,,,,,,,,,,,,,,,,,,,,,,,,,,
,,605b838b80f022835fc293fb,2026-03-17_16h07.41.244,kallum_motion_pilot_GIST_update_2,2026.1.1,Win32,59.17159763,605b838b80f022835fc293fb,69b95efdef24cd8a694e89ee,69b9600c4bd956978d6e1b01,0.0182,0.0182,0,16,16,11,1,twofour,,,,,,,,,,,,,,,,,,,,,,,,,,,,,,,,,,,,,,,,,,,,,,,,,,,,,,,,,,,,,,,,,,,,,,,,,,,,,,,,,,,,,,,,,,,,,,,,,,,,,,,,,,,,,,,,,,,,,,,,,,,,,,,,,,,,,,,,,
,,605b838b80f022835fc293fb,2026-03-17_16h07.41.244,kallum_motion_pilot_GIST_update_2,2026.1.1,Win32,59.17159763,605b838b80f022835fc293fb,69b95efdef24cd8a694e89ee,69b9600c4bd956978d6e1b01,0.0183,0.0183,0,17,17,147,1,sixeight,,,,,,,,,,,,,,,,,,,,,,,,,,,,,,,,,,,,,,,,,,,,,,,,,,,,,,,,,,,,,,,,,,,,,,,,,,,,,,,,,,,,,,,,,,,,,,,,,,,,,,,,,,,,,,,,,,,,,,,,,,,,,,,,,,,,,,,,,
,,605b838b80f022835fc293fb,2026-03-17_16h07.41.244,kallum_motion_pilot_GIST_update_2,2026.1.1,Win32,59.17159763,605b838b80f022835fc293fb,69b95efdef24cd8a694e89ee,69b9600c4bd956978d6e1b01,0.0183,0.0183,0,18,18,156,1,sevenfive,,,,,,,,,,,,,,,,,,,,,,,,,,,,,,,,,,,,,,,,,,,,,,,,,,,,,,,,,,,,,,,,,,,,,,,,,,,,,,,,,,,,,,,,,,,,,,,,,,,,,,,,,,,,,,,,,,,,,,,,,,,,,,,,,,,,,,,,,
,,605b838b80f022835fc293fb,2026-03-17_16h07.41.244,kallum_motion_pilot_GIST_update_2,2026.1.1,Win32,59.17159763,605b838b80f022835fc293fb,69b95efdef24cd8a694e89ee,69b9600c4bd956978d6e1b01,0.0185,0.0185,0,19,19,62,1,fourtwo,,,,,,,,,,,,,,,,,,,,,,,,,,,,,,,,,,,,,,,,,,,,,,,,,,,,,,,,,,,,,,,,,,,,,,,,,,,,,,,,,,,,,,,,,,,,,,,,,,,,,,,,,,,,,,,,,,,,,,,,,,,,,,,,,,,,,,,,,
,,605b838b80f022835fc293fb,2026-03-17_16h07.41.244,kallum_motion_pilot_GIST_update_2,2026.1.1,Win32,59.17159763,605b838b80f022835fc293fb,69b95efdef24cd8a694e89ee,69b9600c4bd956978d6e1b01,0.0185,0.0185,0,20,20,21,1,threefour,,,,,,,,,,,,,,,,,,,,,,,,,,,,,,,,,,,,,,,,,,,,,,,,,,,,,,,,,,,,,,,,,,,,,,,,,,,,,,,,,,,,,,,,,,,,,,,,,,,,,,,,,,,,,,,,,,,,,,,,,,,,,,,,,,,,,,,,,
,,605b838b80f022835fc293fb,2026-03-17_16h07.41.244,kallum_motion_pilot_GIST_update_2,2026.1.1,Win32,59.17159763,605b838b80f022835fc293fb,69b95efdef24cd8a694e89ee,69b9600c4bd956978d6e1b01,0.0186,0.0186,0,21,21,34,1,twoone,,,,,,,,,,,,,,,,,,,,,,,,,,,,,,,,,,,,,,,,,,,,,,,,,,,,,,,,,,,,,,,,,,,,,,,,,,,,,,,,,,,,,,,,,,,,,,,,,,,,,,,,,,,,,,,,,,,,,,,,,,,,,,,,,,,,,,,,,
,,605b838b80f022835fc293fb,2026-03-17_16h07.41.244,kallum_motion_pilot_GIST_update_2,2026.1.1,Win32,59.17159763,605b838b80f022835fc293fb,69b95efdef24cd8a694e89ee,69b9600c4bd956978d6e1b01,0.0186,0.0186,0,22,22,103,1,eightseven,,,,,,,,,,,,,,,,,,,,,,,,,,,,,,,,,,,,,,,,,,,,,,,,,,,,,,,,,,,,,,,,,,,,,,,,,,,,,,,,,,,,,,,,,,,,,,,,,,,,,,,,,,,,,,,,,,,,,,,,,,,,,,,,,,,,,,,,,
,,605b838b80f022835fc293fb,2026-03-17_16h07.41.244,kallum_motion_pilot_GIST_update_2,2026.1.1,Win32,59.17159763,605b838b80f022835fc293fb,69b95efdef24cd8a694e89ee,69b9600c4bd956978d6e1b01,0.0187,0.0187,0,23,23,134,1,eightsix,,,,,,,,,,,,,,,,,,,,,,,,,,,,,,,,,,,,,,,,,,,,,,,,,,,,,,,,,,,,,,,,,,,,,,,,,,,,,,,,,,,,,,,,,,,,,,,,,,,,,,,,,,,,,,,,,,,,,,,,,,,,,,,,,,,,,,,,,
,,605b838b80f022835fc293fb,2026-03-17_16h07.41.244,kallum_motion_pilot_GIST_update_2,2026.1.1,Win32,59.17159763,605b838b80f022835fc293fb,69b95efdef24cd8a694e89ee,69b9600c4bd956978d6e1b01,0.0188,0.0188,0,24,24,105,1,fiveseven,,,,,,,,,,,,,,,,,,,,,,,,,,,,,,,,,,,,,,,,,,,,,,,,,,,,,,,,,,,,,,,,,,,,,,,,,,,,,,,,,,,,,,,,,,,,,,,,,,,,,,,,,,,,,,,,,,,,,,,,,,,,,,,,,,,,,,,,,
,,605b838b80f022835fc293fb,2026-03-17_16h07.41.244,kallum_motion_pilot_GIST_update_2,2026.1.1,Win32,59.17159763,605b838b80f022835fc293fb,69b95efdef24cd8a694e89ee,69b9600c4bd956978d6e1b01,0.0188,0.0188,0,25,25,113,1,fiveseven,,,,,,,,,,,,,,,,,,,,,,,,,,,,,,,,,,,,,,,,,,,,,,,,,,,,,,,,,,,,,,,,,,,,,,,,,,,,,,,,,,,,,,,,,,,,,,,,,,,,,,,,,,,,,,,,,,,,,,,,,,,,,,,,,,,,,,,,,
,,605b838b80f022835fc293fb,2026-03-17_16h07.41.244,kallum_motion_pilot_GIST_update_2,2026.1.1,Win32,59.17159763,605b838b80f022835fc293fb,69b95efdef24cd8a694e89ee,69b9600c4bd956978d6e1b01,0.0189,0.0189,0,26,26,101,1,seveneight,,,,,,,,,,,,,,,,,,,,,,,,,,,,,,,,,,,,,,,,,,,,,,,,,,,,,,,,,,,,,,,,,,,,,,,,,,,,,,,,,,,,,,,,,,,,,,,,,,,,,,,,,,,,,,,,,,,,,,,,,,,,,,,,,,,,,,,,,
,,605b838b80f022835fc293fb,2026-03-17_16h07.41.244,kallum_motion_pilot_GIST_update_2,2026.1.1,Win32,59.17159763,605b838b80f022835fc293fb,69b95efdef24cd8a694e89ee,69b9600c4bd956978d6e1b01,0.0189,0.0189,0,27,27,56,1,onetwo,,,,,,,,,,,,,,,,,,,,,,,,,,,,,,,,,,,,,,,,,,,,,,,,,,,,,,,,,,,,,,,,,,,,,,,,,,,,,,,,,,,,,,,,,,,,,,,,,,,,,,,,,,,,,,,,,,,,,,,,,,,,,,,,,,,,,,,,,
,,605b838b80f022835fc293fb,2026-03-17_16h07.41.244,kallum_motion_pilot_GIST_update_2,2026.1.1,Win32,59.17159763,605b838b80f022835fc293fb,69b95efdef24cd8a694e89ee,69b9600c4bd956978d6e1b01,0.0191,0.0191,0,28,28,18,1,twoone,,,,,,,,,,,,,,,,,,,,,,,,,,,,,,,,,,,,,,,,,,,,,,,,,,,,,,,,,,,,,,,,,,,,,,,,,,,,,,,,,,,,,,,,,,,,,,,,,,,,,,,,,,,,,,,,,,,,,,,,,,,,,,,,,,,,,,,,,
,,605b838b80f022835fc293fb,2026-03-17_16h07.41.244,kallum_motion_pilot_GIST_update_2,2026.1.1,Win32,59.17159763,605b838b80f022835fc293fb,69b95efdef24cd8a694e89ee,69b9600c4bd956978d6e1b01,0.0191,0.0191,0,29,29,124,1,sevenfive,,,,,,,,,,,,,,,,,,,,,,,,,,,,,,,,,,,,,,,,,,,,,,,,,,,,,,,,,,,,,,,,,,,,,,,,,,,,,,,,,,,,,,,,,,,,,,,,,,,,,,,,,,,,,,,,,,,,,,,,,,,,,,,,,,,,,,,,,
,,605b838b80f022835fc293fb,2026-03-17_16h07.41.244,kallum_motion_pilot_GIST_update_2,2026.1.1,Win32,59.17159763,605b838b80f022835fc293fb,69b95efdef24cd8a694e89ee,69b9600c4bd956978d6e1b01,0.0192,0.0192,0,30,30,161,1,fiveseven,,,,,,,,,,,,,,,,,,,,,,,,,,,,,,,,,,,,,,,,,,,,,,,,,,,,,,,,,,,,,,,,,,,,,,,,,,,,,,,,,,,,,,,,,,,,,,,,,,,,,,,,,,,,,,,,,,,,,,,,,,,,,,,,,,,,,,,,,
,,605b838b80f022835fc293fb,2026-03-17_16h07.41.244,kallum_motion_pilot_GIST_update_2,2026.1.1,Win32,59.17159763,605b838b80f022835fc293fb,69b95efdef24cd8a694e89ee,69b9600c4bd956978d6e1b01,0.0192,0.0192,0,31,31,135,1,eightseven,,,,,,,,,,,,,,,,,,,,,,,,,,,,,,,,,,,,,,,,,,,,,,,,,,,,,,,,,,,,,,,,,,,,,,,,,,,,,,,,,,,,,,,,,,,,,,,,,,,,,,,,,,,,,,,,,,,,,,,,,,,,,,,,,,,,,,,,,
,,605b838b80f022835fc293fb,2026-03-17_16h07.41.244,kallum_motion_pilot_GIST_update_2,2026.1.1,Win32,59.17159763,605b838b80f022835fc293fb,69b95efdef24cd8a694e89ee,69b9600c4bd956978d6e1b01,0.0193,0.0193,0,32,32,127,1,eightseven,,,,,,,,,,,,,,,,,,,,,,,,,,,,,,,,,,,,,,,,,,,,,,,,,,,,,,,,,,,,,,,,,,,,,,,,,,,,,,,,,,,,,,,,,,,,,,,,,,,,,,,,,,,,,,,,,,,,,,,,,,,,,,,,,,,,,,,,,
,,605b838b80f022835fc293fb,2026-03-17_16h07.41.244,kallum_motion_pilot_GIST_update_2,2026.1.1,Win32,59.17159763,605b838b80f022835fc293fb,69b95efdef24cd8a694e89ee,69b9600c4bd956978d6e1b01,0.0194,0.0194,0,33,33,49,1,onethree,,,,,,,,,,,,,,,,,,,,,,,,,,,,,,,,,,,,,,,,,,,,,,,,,,,,,,,,,,,,,,,,,,,,,,,,,,,,,,,,,,,,,,,,,,,,,,,,,,,,,,,,,,,,,,,,,,,,,,,,,,,,,,,,,,,,,,,,,
,,605b838b80f022835fc293fb,2026-03-17_16h07.41.244,kallum_motion_pilot_GIST_update_2,2026.1.1,Win32,59.17159763,605b838b80f022835fc293fb,69b95efdef24cd8a694e89ee,69b9600c4bd956978d6e1b01,0.0195,0.0195,0,34,34,109,1,seveneight,,,,,,,,,,,,,,,,,,,,,,,,,,,,,,,,,,,,,,,,,,,,,,,,,,,,,,,,,,,,,,,,,,,,,,,,,,,,,,,,,,,,,,,,,,,,,,,,,,,,,,,,,,,,,,,,,,,,,,,,,,,,,,,,,,,,,,,,,
,,605b838b80f022835fc293fb,2026-03-17_16h07.41.244,kallum_motion_pilot_GIST_update_2,2026.1.1,Win32,59.17159763,605b838b80f022835fc293fb,69b95efdef24cd8a694e89ee,69b9600c4bd956978d6e1b01,0.0195,0.0195,0,35,35,116,1,sevenfive,,,,,,,,,,,,,,,,,,,,,,,,,,,,,,,,,,,,,,,,,,,,,,,,,,,,,,,,,,,,,,,,,,,,,,,,,,,,,,,,,,,,,,,,,,,,,,,,,,,,,,,,,,,,,,,,,,,,,,,,,,,,,,,,,,,,,,,,,
,,605b838b80f022835fc293fb,2026-03-17_16h07.41.244,kallum_motion_pilot_GIST_update_2,2026.1.1,Win32,59.17159763,605b838b80f022835fc293fb,69b95efdef24cd8a694e89ee,69b9600c4bd956978d6e1b01,0.0196,0.0196,0,36,36,66,1,twoone,,,,,,,,,,,,,,,,,,,,,,,,,,,,,,,,,,,,,,,,,,,,,,,,,,,,,,,,,,,,,,,,,,,,,,,,,,,,,,,,,,,,,,,,,,,,,,,,,,,,,,,,,,,,,,,,,,,,,,,,,,,,,,,,,,,,,,,,,
,,605b838b80f022835fc293fb,2026-03-17_16h07.41.244,kallum_motion_pilot_GIST_update_2,2026.1.1,Win32,59.17159763,605b838b80f022835fc293fb,69b95efdef24cd8a694e89ee,69b9600c4bd956978d6e1b01,0.0196,0.0196,0,37,37,144,1,fivesix,,,,,,,,,,,,,,,,,,,,,,,,,,,,,,,,,,,,,,,,,,,,,,,,,,,,,,,,,,,,,,,,,,,,,,,,,,,,,,,,,,,,,,,,,,,,,,,,,,,,,,,,,,,,,,,,,,,,,,,,,,,,,,,,,,,,,,,,,
,,605b838b80f022835fc293fb,2026-03-17_16h07.41.244,kallum_motion_pilot_GIST_update_2,2026.1.1,Win32,59.17159763,605b838b80f022835fc293fb,69b95efdef24cd8a694e89ee,69b9600c4bd956978d6e1b01,0.0197,0.0197,0,38,38,83,1,sixeight,,,,,,,,,,,,,,,,,,,,,,,,,,,,,,,,,,,,,,,,,,,,,,,,,,,,,,,,,,,,,,,,,,,,,,,,,,,,,,,,,,,,,,,,,,,,,,,,,,,,,,,,,,,,,,,,,,,,,,,,,,,,,,,,,,,,,,,,,
,,605b838b80f022835fc293fb,2026-03-17_16h07.41.244,kallum_motion_pilot_GIST_update_2,2026.1.1,Win32,59.17159763,605b838b80f022835fc293fb,69b95efdef24cd8a694e89ee,69b9600c4bd956978d6e1b01,0.0197,0.0197,0,39,39,27,1,twofour,,,,,,,,,,,,,,,,,,,,,,,,,,,,,,,,,,,,,,,,,,,,,,,,,,,,,,,,,,,,,,,,,,,,,,,,,,,,,,,,,,,,,,,,,,,,,,,,,,,,,,,,,,,,,,,,,,,,,,,,,,,,,,,,,,,,,,,,,
,,605b838b80f022835fc293fb,2026-03-17_16h07.41.244,kallum_motion_pilot_GIST_update_2,2026.1.1,Win32,59.17159763,605b838b80f022835fc293fb,69b95efdef24cd8a694e89ee,69b9600c4bd956978d6e1b01,0.0198,0.0198,0,40,40,30,1,fourtwo,,,,,,,,,,,,,,,,,,,,,,,,,,,,,,,,,,,,,,,,,,,,,,,,,,,,,,,,,,,,,,,,,,,,,,,,,,,,,,,,,,,,,,,,,,,,,,,,,,,,,,,,,,,,,,,,,,,,,,,,,,,,,,,,,,,,,,,,,
,,605b838b80f022835fc293fb,2026-03-17_16h07.41.244,kallum_motion_pilot_GIST_update_2,2026.1.1,Win32,59.17159763,605b838b80f022835fc293fb,69b95efdef24cd8a694e89ee,69b9600c4bd956978d6e1b01,0.02,0.02,0,41,41,95,1,eightseven,,,,,,,,,,,,,,,,,,,,,,,,,,,,,,,,,,,,,,,,,,,,,,,,,,,,,,,,,,,,,,,,,,,,,,,,,,,,,,,,,,,,,,,,,,,,,,,,,,,,,,,,,,,,,,,,,,,,,,,,,,,,,,,,,,,,,,,,,
,,605b838b80f022835fc293fb,2026-03-17_16h07.41.244,kallum_motion_pilot_GIST_update_2,2026.1.1,Win32,59.17159763,605b838b80f022835fc293fb,69b95efdef24cd8a694e89ee,69b9600c4bd956978d6e1b01,0.02,0.02,0,42,42,65,1,onethree,,,,,,,,,,,,,,,,,,,,,,,,,,,,,,,,,,,,,,,,,,,,,,,,,,,,,,,,,,,,,,,,,,,,,,,,,,,,,,,,,,,,,,,,,,,,,,,,,,,,,,,,,,,,,,,,,,,,,,,,,,,,,,,,,,,,,,,,,
,,605b838b80f022835fc293fb,2026-03-17_16h07.41.244,kallum_motion_pilot_GIST_update_2,2026.1.1,Win32,59.17159763,605b838b80f022835fc293fb,69b95efdef24cd8a694e89ee,69b9600c4bd956978d6e1b01,0.02,0.0201,0,43,43,50,1,twoone,,,,,,,,,,,,,,,,,,,,,,,,,,,,,,,,,,,,,,,,,,,,,,,,,,,,,,,,,,,,,,,,,,,,,,,,,,,,,,,,,,,,,,,,,,,,,,,,,,,,,,,,,,,,,,,,,,,,,,,,,,,,,,,,,,,,,,,,,
,,605b838b80f022835fc293fb,2026-03-17_16h07.41.244,kallum_motion_pilot_GIST_update_2,2026.1.1,Win32,59.17159763,605b838b80f022835fc293fb,69b95efdef24cd8a694e89ee,69b9600c4bd956978d6e1b01,0.0201,0.0201,0,44,44,7,1,fourthree,,,,,,,,,,,,,,,,,,,,,,,,,,,,,,,,,,,,,,,,,,,,,,,,,,,,,,,,,,,,,,,,,,,,,,,,,,,,,,,,,,,,,,,,,,,,,,,,,,,,,,,,,,,,,,,,,,,,,,,,,,,,,,,,,,,,,,,,,
,,605b838b80f022835fc293fb,2026-03-17_16h07.41.244,kallum_motion_pilot_GIST_update_2,2026.1.1,Win32,59.17159763,605b838b80f022835fc293fb,69b95efdef24cd8a694e89ee,69b9600c4bd956978d6e1b01,0.0202,0.0202,0,45,45,24,1,onetwo,,,,,,,,,,,,,,,,,,,,,,,,,,,,,,,,,,,,,,,,,,,,,,,,,,,,,,,,,,,,,,,,,,,,,,,,,,,,,,,,,,,,,,,,,,,,,,,,,,,,,,,,,,,,,,,,,,,,,,,,,,,,,,,,,,,,,,,,,
,,605b838b80f022835fc293fb,2026-03-17_16h07.41.244,kallum_motion_pilot_GIST_update_2,2026.1.1,Win32,59.17159763,605b838b80f022835fc293fb,69b95efdef24cd8a694e89ee,69b9600c4bd956978d6e1b01,0.0203,0.0203,0,46,46,119,1,eightseven,,,,,,,,,,,,,,,,,,,,,,,,,,,,,,,,,,,,,,,,,,,,,,,,,,,,,,,,,,,,,,,,,,,,,,,,,,,,,,,,,,,,,,,,,,,,,,,,,,,,,,,,,,,,,,,,,,,,,,,,,,,,,,,,,,,,,,,,,
,,605b838b80f022835fc293fb,2026-03-17_16h07.41.244,kallum_motion_pilot_GIST_update_2,2026.1.1,Win32,59.17159763,605b838b80f022835fc293fb,69b95efdef24cd8a694e89ee,69b9600c4bd956978d6e1b01,0.0204,0.0204,0,47,47,4,1,threeone,,,,,,,,,,,,,,,,,,,,,,,,,,,,,,,,,,,,,,,,,,,,,,,,,,,,,,,,,,,,,,,,,,,,,,,,,,,,,,,,,,,,,,,,,,,,,,,,,,,,,,,,,,,,,,,,,,,,,,,,,,,,,,,,,,,,,,,,,
,,605b838b80f022835fc293fb,2026-03-17_16h07.41.244,kallum_motion_pilot_GIST_update_2,2026.1.1,Win32,59.17159763,605b838b80f022835fc293fb,69b95efdef24cd8a694e89ee,69b9600c4bd956978d6e1b01,0.0204,0.0204,0,48,48,53,1,threefour,,,,,,,,,,,,,,,,,,,,,,,,,,,,,,,,,,,,,,,,,,,,,,,,,,,,,,,,,,,,,,,,,,,,,,,,,,,,,,,,,,,,,,,,,,,,,,,,,,,,,,,,,,,,,,,,,,,,,,,,,,,,,,,,,,,,,,,,,
,,605b838b80f022835fc293fb,2026-03-17_16h07.41.244,kallum_motion_pilot_GIST_update_2,2026.1.1,Win32,59.17159763,605b838b80f022835fc293fb,69b95efdef24cd8a694e89ee,69b9600c4bd956978d6e1b01,0.0204,0.0204,0,49,49,54,1,fourtwo,,,,,,,,,,,,,,,,,,,,,,,,,,,,,,,,,,,,,,,,,,,,,,,,,,,,,,,,,,,,,,,,,,,,,,,,,,,,,,,,,,,,,,,,,,,,,,,,,,,,,,,,,,,,,,,,,,,,,,,,,,,,,,,,,,,,,,,,,
,,605b838b80f022835fc293fb,2026-03-17_16h07.41.244,kallum_motion_pilot_GIST_update_2,2026.1.1,Win32,59.17159763,605b838b80f022835fc293fb,69b95efdef24cd8a694e89ee,69b9600c4bd956978d6e1b01,0.0205,0.0205,0,50,50,88,1,fivesix,,,,,,,,,,,,,,,,,,,,,,,,,,,,,,,,,,,,,,,,,,,,,,,,,,,,,,,,,,,,,,,,,,,,,,,,,,,,,,,,,,,,,,,,,,,,,,,,,,,,,,,,,,,,,,,,,,,,,,,,,,,,,,,,,,,,,,,,,
,,605b838b80f022835fc293fb,2026-03-17_16h07.41.244,kallum_motion_pilot_GIST_update_2,2026.1.1,Win32,59.17159763,605b838b80f022835fc293fb,69b95efdef24cd8a694e89ee,69b9600c4bd956978d6e1b01,0.0206,0.0206,0,51,51,85,1,seveneight,,,,,,,,,,,,,,,,,,,,,,,,,,,,,,,,,,,,,,,,,,,,,,,,,,,,,,,,,,,,,,,,,,,,,,,,,,,,,,,,,,,,,,,,,,,,,,,,,,,,,,,,,,,,,,,,,,,,,,,,,,,,,,,,,,,,,,,,,
,,605b838b80f022835fc293fb,2026-03-17_16h07.41.244,kallum_motion_pilot_GIST_update_2,2026.1.1,Win32,59.17159763,605b838b80f022835fc293fb,69b95efdef24cd8a694e89ee,69b9600c4bd956978d6e1b01,0.0207,0.0207,0,52,52,129,1,fiveseven,,,,,,,,,,,,,,,,,,,,,,,,,,,,,,,,,,,,,,,,,,,,,,,,,,,,,,,,,,,,,,,,,,,,,,,,,,,,,,,,,,,,,,,,,,,,,,,,,,,,,,,,,,,,,,,,,,,,,,,,,,,,,,,,,,,,,,,,,
,,605b838b80f022835fc293fb,2026-03-17_16h07.41.244,kallum_motion_pilot_GIST_update_2,2026.1.1,Win32,59.17159763,605b838b80f022835fc293fb,69b95efdef24cd8a694e89ee,69b9600c4bd956978d6e1b01,0.0207,0.0207,0,53,53,104,1,fivesix,,,,,,,,,,,,,,,,,,,,,,,,,,,,,,,,,,,,,,,,,,,,,,,,,,,,,,,,,,,,,,,,,,,,,,,,,,,,,,,,,,,,,,,,,,,,,,,,,,,,,,,,,,,,,,,,,,,,,,,,,,,,,,,,,,,,,,,,,
,,605b838b80f022835fc293fb,2026-03-17_16h07.41.244,kallum_motion_pilot_GIST_update_2,2026.1.1,Win32,59.17159763,605b838b80f022835fc293fb,69b95efdef24cd8a694e89ee,69b9600c4bd956978d6e1b01,0.0208,0.0208,0,54,54,78,1,fourtwo,,,,,,,,,,,,,,,,,,,,,,,,,,,,,,,,,,,,,,,,,,,,,,,,,,,,,,,,,,,,,,,,,,,,,,,,,,,,,,,,,,,,,,,,,,,,,,,,,,,,,,,,,,,,,,,,,,,,,,,,,,,,,,,,,,,,,,,,,
,,605b838b80f022835fc293fb,2026-03-17_16h07.41.244,kallum_motion_pilot_GIST_update_2,2026.1.1,Win32,59.17159763,605b838b80f022835fc293fb,69b95efdef24cd8a694e89ee,69b9600c4bd956978d6e1b01,0.0208,0.0208,0,55,55,9,1,onethree,,,,,,,,,,,,,,,,,,,,,,,,,,,,,,,,,,,,,,,,,,,,,,,,,,,,,,,,,,,,,,,,,,,,,,,,,,,,,,,,,,,,,,,,,,,,,,,,,,,,,,,,,,,,,,,,,,,,,,,,,,,,,,,,,,,,,,,,,
,,605b838b80f022835fc293fb,2026-03-17_16h07.41.244,kallum_motion_pilot_GIST_update_2,2026.1.1,Win32,59.17159763,605b838b80f022835fc293fb,69b95efdef24cd8a694e89ee,69b9600c4bd956978d6e1b01,0.0209,0.0209,0,56,56,125,1,seveneight,,,,,,,,,,,,,,,,,,,,,,,,,,,,,,,,,,,,,,,,,,,,,,,,,,,,,,,,,,,,,,,,,,,,,,,,,,,,,,,,,,,,,,,,,,,,,,,,,,,,,,,,,,,,,,,,,,,,,,,,,,,,,,,,,,,,,,,,,
,,605b838b80f022835fc293fb,2026-03-17_16h07.41.244,kallum_motion_pilot_GIST_update_2,2026.1.1,Win32,59.17159763,605b838b80f022835fc293fb,69b95efdef24cd8a694e89ee,69b9600c4bd956978d6e1b01,0.021,0.021,0,57,57,86,1,eightsix,,,,,,,,,,,,,,,,,,,,,,,,,,,,,,,,,,,,,,,,,,,,,,,,,,,,,,,,,,,,,,,,,,,,,,,,,,,,,,,,,,,,,,,,,,,,,,,,,,,,,,,,,,,,,,,,,,,,,,,,,,,,,,,,,,,,,,,,,
,,605b838b80f022835fc293fb,2026-03-17_16h07.41.244,kallum_motion_pilot_GIST_update_2,2026.1.1,Win32,59.17159763,605b838b80f022835fc293fb,69b95efdef24cd8a694e89ee,69b9600c4bd956978d6e1b01,0.021,0.021,0,58,58,91,1,sixeight,,,,,,,,,,,,,,,,,,,,,,,,,,,,,,,,,,,,,,,,,,,,,,,,,,,,,,,,,,,,,,,,,,,,,,,,,,,,,,,,,,,,,,,,,,,,,,,,,,,,,,,,,,,,,,,,,,,,,,,,,,,,,,,,,,,,,,,,,
,,605b838b80f022835fc293fb,2026-03-17_16h07.41.244,kallum_motion_pilot_GIST_update_2,2026.1.1,Win32,59.17159763,605b838b80f022835fc293fb,69b95efdef24cd8a694e89ee,69b9600c4bd956978d6e1b01,0.0211,0.0211,0,59,59,137,1,fiveseven,,,,,,,,,,,,,,,,,,,,,,,,,,,,,,,,,,,,,,,,,,,,,,,,,,,,,,,,,,,,,,,,,,,,,,,,,,,,,,,,,,,,,,,,,,,,,,,,,,,,,,,,,,,,,,,,,,,,,,,,,,,,,,,,,,,,,,,,,
,,605b838b80f022835fc293fb,2026-03-17_16h07.41.244,kallum_motion_pilot_GIST_update_2,2026.1.1,Win32,59.17159763,605b838b80f022835fc293fb,69b95efdef24cd8a694e89ee,69b9600c4bd956978d6e1b01,0.0212,0.0212,0,60,60,39,1,fourthree,,,,,,,,,,,,,,,,,,,,,,,,,,,,,,,,,,,,,,,,,,,,,,,,,,,,,,,,,,,,,,,,,,,,,,,,,,,,,,,,,,,,,,,,,,,,,,,,,,,,,,,,,,,,,,,,,,,,,,,,,,,,,,,,,,,,,,,,,
,,605b838b80f022835fc293fb,2026-03-17_16h07.41.244,kallum_motion_pilot_GIST_update_2,2026.1.1,Win32,59.17159763,605b838b80f022835fc293fb,69b95efdef24cd8a694e89ee,69b9600c4bd956978d6e1b01,0.0213,0.0213,0,61,61,31,1,fourthree,,,,,,,,,,,,,,,,,,,,,,,,,,,,,,,,,,,,,,,,,,,,,,,,,,,,,,,,,,,,,,,,,,,,,,,,,,,,,,,,,,,,,,,,,,,,,,,,,,,,,,,,,,,,,,,,,,,,,,,,,,,,,,,,,,,,,,,,,
,,605b838b80f022835fc293fb,2026-03-17_16h07.41.244,kallum_motion_pilot_GIST_update_2,2026.1.1,Win32,59.17159763,605b838b80f022835fc293fb,69b95efdef24cd8a694e89ee,69b9600c4bd956978d6e1b01,0.0213,0.0213,0,62,62,71,1,fourthree,,,,,,,,,,,,,,,,,,,,,,,,,,,,,,,,,,,,,,,,,,,,,,,,,,,,,,,,,,,,,,,,,,,,,,,,,,,,,,,,,,,,,,,,,,,,,,,,,,,,,,,,,,,,,,,,,,,,,,,,,,,,,,,,,,,,,,,,,
,,605b838b80f022835fc293fb,2026-03-17_16h07.41.244,kallum_motion_pilot_GIST_update_2,2026.1.1,Win32,59.17159763,605b838b80f022835fc293fb,69b95efdef24cd8a694e89ee,69b9600c4bd956978d6e1b01,0.0215,0.0215,0,63,63,51,1,twofour,,,,,,,,,,,,,,,,,,,,,,,,,,,,,,,,,,,,,,,,,,,,,,,,,,,,,,,,,,,,,,,,,,,,,,,,,,,,,,,,,,,,,,,,,,,,,,,,,,,,,,,,,,,,,,,,,,,,,,,,,,,,,,,,,,,,,,,,,
,,605b838b80f022835fc293fb,2026-03-17_16h07.41.244,kallum_motion_pilot_GIST_update_2,2026.1.1,Win32,59.17159763,605b838b80f022835fc293fb,69b95efdef24cd8a694e89ee,69b9600c4bd956978d6e1b01,0.0216,0.0216,0,64,64,97,1,fiveseven,,,,,,,,,,,,,,,,,,,,,,,,,,,,,,,,,,,,,,,,,,,,,,,,,,,,,,,,,,,,,,,,,,,,,,,,,,,,,,,,,,,,,,,,,,,,,,,,,,,,,,,,,,,,,,,,,,,,,,,,,,,,,,,,,,,,,,,,,
,,605b838b80f022835fc293fb,2026-03-17_16h07.41.244,kallum_motion_pilot_GIST_update_2,2026.1.1,Win32,59.17159763,605b838b80f022835fc293fb,69b95efdef24cd8a694e89ee,69b9600c4bd956978d6e1b01,0.0217,0.0217,0,65,65,123,1,sixeight,,,,,,,,,,,,,,,,,,,,,,,,,,,,,,,,,,,,,,,,,,,,,,,,,,,,,,,,,,,,,,,,,,,,,,,,,,,,,,,,,,,,,,,,,,,,,,,,,,,,,,,,,,,,,,,,,,,,,,,,,,,,,,,,,,,,,,,,,
,,605b838b80f022835fc293fb,2026-03-17_16h07.41.244,kallum_motion_pilot_GIST_update_2,2026.1.1,Win32,59.17159763,605b838b80f022835fc293fb,69b95efdef24cd8a694e89ee,69b9600c4bd956978d6e1b01,0.0219,0.0219,0,66,66,16,1,onetwo,,,,,,,,,,,,,,,,,,,,,,,,,,,,,,,,,,,,,,,,,,,,,,,,,,,,,,,,,,,,,,,,,,,,,,,,,,,,,,,,,,,,,,,,,,,,,,,,,,,,,,,,,,,,,,,,,,,,,,,,,,,,,,,,,,,,,,,,,
,,605b838b80f022835fc293fb,2026-03-17_16h07.41.244,kallum_motion_pilot_GIST_update_2,2026.1.1,Win32,59.17159763,605b838b80f022835fc293fb,69b95efdef24cd8a694e89ee,69b9600c4bd956978d6e1b01,0.022,0.022,0,67,67,15,1,fourthree,,,,,,,,,,,,,,,,,,,,,,,,,,,,,,,,,,,,,,,,,,,,,,,,,,,,,,,,,,,,,,,,,,,,,,,,,,,,,,,,,,,,,,,,,,,,,,,,,,,,,,,,,,,,,,,,,,,,,,,,,,,,,,,,,,,,,,,,,
,,605b838b80f022835fc293fb,2026-03-17_16h07.41.244,kallum_motion_pilot_GIST_update_2,2026.1.1,Win32,59.17159763,605b838b80f022835fc293fb,69b95efdef24cd8a694e89ee,69b9600c4bd956978d6e1b01,0.0221,0.0221,0,68,68,5,1,threefour,,,,,,,,,,,,,,,,,,,,,,,,,,,,,,,,,,,,,,,,,,,,,,,,,,,,,,,,,,,,,,,,,,,,,,,,,,,,,,,,,,,,,,,,,,,,,,,,,,,,,,,,,,,,,,,,,,,,,,,,,,,,,,,,,,,,,,,,,
,,605b838b80f022835fc293fb,2026-03-17_16h07.41.244,kallum_motion_pilot_GIST_update_2,2026.1.1,Win32,59.17159763,605b838b80f022835fc293fb,69b95efdef24cd8a694e89ee,69b9600c4bd956978d6e1b01,0.0221,0.0221,0,69,69,159,1,eightseven,,,,,,,,,,,,,,,,,,,,,,,,,,,,,,,,,,,,,,,,,,,,,,,,,,,,,,,,,,,,,,,,,,,,,,,,,,,,,,,,,,,,,,,,,,,,,,,,,,,,,,,,,,,,,,,,,,,,,,,,,,,,,,,,,,,,,,,,,
,,605b838b80f022835fc293fb,2026-03-17_16h07.41.244,kallum_motion_pilot_GIST_update_2,2026.1.1,Win32,59.17159763,605b838b80f022835fc293fb,69b95efdef24cd8a694e89ee,69b9600c4bd956978d6e1b01,0.0223,0.0223,0,70,70,20,1,threeone,,,,,,,,,,,,,,,,,,,,,,,,,,,,,,,,,,,,,,,,,,,,,,,,,,,,,,,,,,,,,,,,,,,,,,,,,,,,,,,,,,,,,,,,,,,,,,,,,,,,,,,,,,,,,,,,,,,,,,,,,,,,,,,,,,,,,,,,,
,,605b838b80f022835fc293fb,2026-03-17_16h07.41.244,kallum_motion_pilot_GIST_update_2,2026.1.1,Win32,59.17159763,605b838b80f022835fc293fb,69b95efdef24cd8a694e89ee,69b9600c4bd956978d6e1b01,0.0223,0.0223,0,71,71,149,1,seveneight,,,,,,,,,,,,,,,,,,,,,,,,,,,,,,,,,,,,,,,,,,,,,,,,,,,,,,,,,,,,,,,,,,,,,,,,,,,,,,,,,,,,,,,,,,,,,,,,,,,,,,,,,,,,,,,,,,,,,,,,,,,,,,,,,,,,,,,,,
,,605b838b80f022835fc293fb,2026-03-17_16h07.41.244,kallum_motion_pilot_GIST_update_2,2026.1.1,Win32,59.17159763,605b838b80f022835fc293fb,69b95efdef24cd8a694e89ee,69b9600c4bd956978d6e1b01,0.0224,0.0224,0,72,72,114,1,sixfive,,,,,,,,,,,,,,,,,,,,,,,,,,,,,,,,,,,,,,,,,,,,,,,,,,,,,,,,,,,,,,,,,,,,,,,,,,,,,,,,,,,,,,,,,,,,,,,,,,,,,,,,,,,,,,,,,,,,,,,,,,,,,,,,,,,,,,,,,
,,605b838b80f022835fc293fb,2026-03-17_16h07.41.244,kallum_motion_pilot_GIST_update_2,2026.1.1,Win32,59.17159763,605b838b80f022835fc293fb,69b95efdef24cd8a694e89ee,69b9600c4bd956978d6e1b01,0.0225,0.0225,0,73,73,138,1,sixfive,,,,,,,,,,,,,,,,,,,,,,,,,,,,,,,,,,,,,,,,,,,,,,,,,,,,,,,,,,,,,,,,,,,,,,,,,,,,,,,,,,,,,,,,,,,,,,,,,,,,,,,,,,,,,,,,,,,,,,,,,,,,,,,,,,,,,,,,,
,,605b838b80f022835fc293fb,2026-03-17_16h07.41.244,kallum_motion_pilot_GIST_update_2,2026.1.1,Win32,59.17159763,605b838b80f022835fc293fb,69b95efdef24cd8a694e89ee,69b9600c4bd956978d6e1b01,0.0225,0.0225,0,74,74,160,1,fivesix,,,,,,,,,,,,,,,,,,,,,,,,,,,,,,,,,,,,,,,,,,,,,,,,,,,,,,,,,,,,,,,,,,,,,,,,,,,,,,,,,,,,,,,,,,,,,,,,,,,,,,,,,,,,,,,,,,,,,,,,,,,,,,,,,,,,,,,,,
,,605b838b80f022835fc293fb,2026-03-17_16h07.41.244,kallum_motion_pilot_GIST_update_2,2026.1.1,Win32,59.17159763,605b838b80f022835fc293fb,69b95efdef24cd8a694e89ee,69b9600c4bd956978d6e1b01,0.0226,0.0226,0,75,75,1,1,onethree,,,,,,,,,,,,,,,,,,,,,,,,,,,,,,,,,,,,,,,,,,,,,,,,,,,,,,,,,,,,,,,,,,,,,,,,,,,,,,,,,,,,,,,,,,,,,,,,,,,,,,,,,,,,,,,,,,,,,,,,,,,,,,,,,,,,,,,,,
,,605b838b80f022835fc293fb,2026-03-17_16h07.41.244,kallum_motion_pilot_GIST_update_2,2026.1.1,Win32,59.17159763,605b838b80f022835fc293fb,69b95efdef24cd8a694e89ee,69b9600c4bd956978d6e1b01,0.0227,0.0227,0,76,76,120,1,fivesix,,,,,,,,,,,,,,,,,,,,,,,,,,,,,,,,,,,,,,,,,,,,,,,,,,,,,,,,,,,,,,,,,,,,,,,,,,,,,,,,,,,,,,,,,,,,,,,,,,,,,,,,,,,,,,,,,,,,,,,,,,,,,,,,,,,,,,,,,
,,605b838b80f022835fc293fb,2026-03-17_16h07.41.244,kallum_motion_pilot_GIST_update_2,2026.1.1,Win32,59.17159763,605b838b80f022835fc293fb,69b95efdef24cd8a694e89ee,69b9600c4bd956978d6e1b01,0.0227,0.0227,0,77,77,37,1,threefour,,,,,,,,,,,,,,,,,,,,,,,,,,,,,,,,,,,,,,,,,,,,,,,,,,,,,,,,,,,,,,,,,,,,,,,,,,,,,,,,,,,,,,,,,,,,,,,,,,,,,,,,,,,,,,,,,,,,,,,,,,,,,,,,,,,,,,,,,
,,605b838b80f022835fc293fb,2026-03-17_16h07.41.244,kallum_motion_pilot_GIST_update_2,2026.1.1,Win32,59.17159763,605b838b80f022835fc293fb,69b95efdef24cd8a694e89ee,69b9600c4bd956978d6e1b01,0.0228,0.0228,0,78,78,44,1,threeone,,,,,,,,,,,,,,,,,,,,,,,,,,,,,,,,,,,,,,,,,,,,,,,,,,,,,,,,,,,,,,,,,,,,,,,,,,,,,,,,,,,,,,,,,,,,,,,,,,,,,,,,,,,,,,,,,,,,,,,,,,,,,,,,,,,,,,,,,
,,605b838b80f022835fc293fb,2026-03-17_16h07.41.244,kallum_motion_pilot_GIST_update_2,2026.1.1,Win32,59.17159763,605b838b80f022835fc293fb,69b95efdef24cd8a694e89ee,69b9600c4bd956978d6e1b01,0.0228,0.0228,0,79,79,3,1,twofour,,,,,,,,,,,,,,,,,,,,,,,,,,,,,,,,,,,,,,,,,,,,,,,,,,,,,,,,,,,,,,,,,,,,,,,,,,,,,,,,,,,,,,,,,,,,,,,,,,,,,,,,,,,,,,,,,,,,,,,,,,,,,,,,,,,,,,,,,
,,605b838b80f022835fc293fb,2026-03-17_16h07.41.244,kallum_motion_pilot_GIST_update_2,2026.1.1,Win32,59.17159763,605b838b80f022835fc293fb,69b95efdef24cd8a694e89ee,69b9600c4bd956978d6e1b01,0.023,0.023,0,80,80,130,1,sixfive,,,,,,,,,,,,,,,,,,,,,,,,,,,,,,,,,,,,,,,,,,,,,,,,,,,,,,,,,,,,,,,,,,,,,,,,,,,,,,,,,,,,,,,,,,,,,,,,,,,,,,,,,,,,,,,,,,,,,,,,,,,,,,,,,,,,,,,,,
,,605b838b80f022835fc293fb,2026-03-17_16h07.41.244,kallum_motion_pilot_GIST_update_2,2026.1.1,Win32,59.17159763,605b838b80f022835fc293fb,69b95efdef24cd8a694e89ee,69b9600c4bd956978d6e1b01,0.023,0.023,0,81,81,94,1,eightsix,,,,,,,,,,,,,,,,,,,,,,,,,,,,,,,,,,,,,,,,,,,,,,,,,,,,,,,,,,,,,,,,,,,,,,,,,,,,,,,,,,,,,,,,,,,,,,,,,,,,,,,,,,,,,,,,,,,,,,,,,,,,,,,,,,,,,,,,,
,,605b838b80f022835fc293fb,2026-03-17_16h07.41.244,kallum_motion_pilot_GIST_update_2,2026.1.1,Win32,59.17159763,605b838b80f022835fc293fb,69b95efdef24cd8a694e89ee,69b9600c4bd956978d6e1b01,0.0231,0.0231,0,82,82,93,1,seveneight,,,,,,,,,,,,,,,,,,,,,,,,,,,,,,,,,,,,,,,,,,,,,,,,,,,,,,,,,,,,,,,,,,,,,,,,,,,,,,,,,,,,,,,,,,,,,,,,,,,,,,,,,,,,,,,,,,,,,,,,,,,,,,,,,,,,,,,,,
,,605b838b80f022835fc293fb,2026-03-17_16h07.41.244,kallum_motion_pilot_GIST_update_2,2026.1.1,Win32,59.17159763,605b838b80f022835fc293fb,69b95efdef24cd8a694e89ee,69b9600c4bd956978d6e1b01,0.0232,0.0232,0,83,83,72,1,onetwo,,,,,,,,,,,,,,,,,,,,,,,,,,,,,,,,,,,,,,,,,,,,,,,,,,,,,,,,,,,,,,,,,,,,,,,,,,,,,,,,,,,,,,,,,,,,,,,,,,,,,,,,,,,,,,,,,,,,,,,,,,,,,,,,,,,,,,,,,
,,605b838b80f022835fc293fb,2026-03-17_16h07.41.244,kallum_motion_pilot_GIST_update_2,2026.1.1,Win32,59.17159763,605b838b80f022835fc293fb,69b95efdef24cd8a694e89ee,69b9600c4bd956978d6e1b01,0.0232,0.0232,0,84,84,126,1,eightsix,,,,,,,,,,,,,,,,,,,,,,,,,,,,,,,,,,,,,,,,,,,,,,,,,,,,,,,,,,,,,,,,,,,,,,,,,,,,,,,,,,,,,,,,,,,,,,,,,,,,,,,,,,,,,,,,,,,,,,,,,,,,,,,,,,,,,,,,,
,,605b838b80f022835fc293fb,2026-03-17_16h07.41.244,kallum_motion_pilot_GIST_update_2,2026.1.1,Win32,59.17159763,605b838b80f022835fc293fb,69b95efdef24cd8a694e89ee,69b9600c4bd956978d6e1b01,0.0233,0.0233,0,85,85,42,1,twoone,,,,,,,,,,,,,,,,,,,,,,,,,,,,,,,,,,,,,,,,,,,,,,,,,,,,,,,,,,,,,,,,,,,,,,,,,,,,,,,,,,,,,,,,,,,,,,,,,,,,,,,,,,,,,,,,,,,,,,,,,,,,,,,,,,,,,,,,,
,,605b838b80f022835fc293fb,2026-03-17_16h07.41.244,kallum_motion_pilot_GIST_update_2,2026.1.1,Win32,59.17159763,605b838b80f022835fc293fb,69b95efdef24cd8a694e89ee,69b9600c4bd956978d6e1b01,0.0234,0.0234,0,86,86,35,1,twofour,,,,,,,,,,,,,,,,,,,,,,,,,,,,,,,,,,,,,,,,,,,,,,,,,,,,,,,,,,,,,,,,,,,,,,,,,,,,,,,,,,,,,,,,,,,,,,,,,,,,,,,,,,,,,,,,,,,,,,,,,,,,,,,,,,,,,,,,,
,,605b838b80f022835fc293fb,2026-03-17_16h07.41.244,kallum_motion_pilot_GIST_update_2,2026.1.1,Win32,59.17159763,605b838b80f022835fc293fb,69b95efdef24cd8a694e89ee,69b9600c4bd956978d6e1b01,0.0235,0.0235,0,87,87,70,1,fourtwo,,,,,,,,,,,,,,,,,,,,,,,,,,,,,,,,,,,,,,,,,,,,,,,,,,,,,,,,,,,,,,,,,,,,,,,,,,,,,,,,,,,,,,,,,,,,,,,,,,,,,,,,,,,,,,,,,,,,,,,,,,,,,,,,,,,,,,,,,
,,605b838b80f022835fc293fb,2026-03-17_16h07.41.244,kallum_motion_pilot_GIST_update_2,2026.1.1,Win32,59.17159763,605b838b80f022835fc293fb,69b95efdef24cd8a694e89ee,69b9600c4bd956978d6e1b01,0.0236,0.0236,0,88,88,76,1,threeone,,,,,,,,,,,,,,,,,,,,,,,,,,,,,,,,,,,,,,,,,,,,,,,,,,,,,,,,,,,,,,,,,,,,,,,,,,,,,,,,,,,,,,,,,,,,,,,,,,,,,,,,,,,,,,,,,,,,,,,,,,,,,,,,,,,,,,,,,
,,605b838b80f022835fc293fb,2026-03-17_16h07.41.244,kallum_motion_pilot_GIST_update_2,2026.1.1,Win32,59.17159763,605b838b80f022835fc293fb,69b95efdef24cd8a694e89ee,69b9600c4bd956978d6e1b01,0.0236,0.0236,0,89,89,118,1,eightsix,,,,,,,,,,,,,,,,,,,,,,,,,,,,,,,,,,,,,,,,,,,,,,,,,,,,,,,,,,,,,,,,,,,,,,,,,,,,,,,,,,,,,,,,,,,,,,,,,,,,,,,,,,,,,,,,,,,,,,,,,,,,,,,,,,,,,,,,,
,,605b838b80f022835fc293fb,2026-03-17_16h07.41.244,kallum_motion_pilot_GIST_update_2,2026.1.1,Win32,59.17159763,605b838b80f022835fc293fb,69b95efdef24cd8a694e89ee,69b9600c4bd956978d6e1b01,0.0237,0.0237,0,90,90,145,1,fiveseven,,,,,,,,,,,,,,,,,,,,,,,,,,,,,,,,,,,,,,,,,,,,,,,,,,,,,,,,,,,,,,,,,,,,,,,,,,,,,,,,,,,,,,,,,,,,,,,,,,,,,,,,,,,,,,,,,,,,,,,,,,,,,,,,,,,,,,,,,
,,605b838b80f022835fc293fb,2026-03-17_16h07.41.244,kallum_motion_pilot_GIST_update_2,2026.1.1,Win32,59.17159763,605b838b80f022835fc293fb,69b95efdef24cd8a694e89ee,69b9600c4bd956978d6e1b01,0.0238,0.0238,0,91,91,41,1,onethree,,,,,,,,,,,,,,,,,,,,,,,,,,,,,,,,,,,,,,,,,,,,,,,,,,,,,,,,,,,,,,,,,,,,,,,,,,,,,,,,,,,,,,,,,,,,,,,,,,,,,,,,,,,,,,,,,,,,,,,,,,,,,,,,,,,,,,,,,
,,605b838b80f022835fc293fb,2026-03-17_16h07.41.244,kallum_motion_pilot_GIST_update_2,2026.1.1,Win32,59.17159763,605b838b80f022835fc293fb,69b95efdef24cd8a694e89ee,69b9600c4bd956978d6e1b01,0.0239,0.0239,0,92,92,154,1,sixfive,,,,,,,,,,,,,,,,,,,,,,,,,,,,,,,,,,,,,,,,,,,,,,,,,,,,,,,,,,,,,,,,,,,,,,,,,,,,,,,,,,,,,,,,,,,,,,,,,,,,,,,,,,,,,,,,,,,,,,,,,,,,,,,,,,,,,,,,,
,,605b838b80f022835fc293fb,2026-03-17_16h07.41.244,kallum_motion_pilot_GIST_update_2,2026.1.1,Win32,59.17159763,605b838b80f022835fc293fb,69b95efdef24cd8a694e89ee,69b9600c4bd956978d6e1b01,0.024,0.024,0,93,93,60,1,threeone,,,,,,,,,,,,,,,,,,,,,,,,,,,,,,,,,,,,,,,,,,,,,,,,,,,,,,,,,,,,,,,,,,,,,,,,,,,,,,,,,,,,,,,,,,,,,,,,,,,,,,,,,,,,,,,,,,,,,,,,,,,,,,,,,,,,,,,,,
,,605b838b80f022835fc293fb,2026-03-17_16h07.41.244,kallum_motion_pilot_GIST_update_2,2026.1.1,Win32,59.17159763,605b838b80f022835fc293fb,69b95efdef24cd8a694e89ee,69b9600c4bd956978d6e1b01,0.0241,0.0241,0,94,94,8,1,onetwo,,,,,,,,,,,,,,,,,,,,,,,,,,,,,,,,,,,,,,,,,,,,,,,,,,,,,,,,,,,,,,,,,,,,,,,,,,,,,,,,,,,,,,,,,,,,,,,,,,,,,,,,,,,,,,,,,,,,,,,,,,,,,,,,,,,,,,,,,
,,605b838b80f022835fc293fb,2026-03-17_16h07.41.244,kallum_motion_pilot_GIST_update_2,2026.1.1,Win32,59.17159763,605b838b80f022835fc293fb,69b95efdef24cd8a694e89ee,69b9600c4bd956978d6e1b01,0.0241,0.0241,0,95,95,22,1,fourtwo,,,,,,,,,,,,,,,,,,,,,,,,,,,,,,,,,,,,,,,,,,,,,,,,,,,,,,,,,,,,,,,,,,,,,,,,,,,,,,,,,,,,,,,,,,,,,,,,,,,,,,,,,,,,,,,,,,,,,,,,,,,,,,,,,,,,,,,,,
,,605b838b80f022835fc293fb,2026-03-17_16h07.41.244,kallum_motion_pilot_GIST_update_2,2026.1.1,Win32,59.17159763,605b838b80f022835fc293fb,69b95efdef24cd8a694e89ee,69b9600c4bd956978d6e1b01,0.0242,0.0242,0,96,96,19,1,twofour,,,,,,,,,,,,,,,,,,,,,,,,,,,,,,,,,,,,,,,,,,,,,,,,,,,,,,,,,,,,,,,,,,,,,,,,,,,,,,,,,,,,,,,,,,,,,,,,,,,,,,,,,,,,,,,,,,,,,,,,,,,,,,,,,,,,,,,,,
,,605b838b80f022835fc293fb,2026-03-17_16h07.41.244,kallum_motion_pilot_GIST_update_2,2026.1.1,Win32,59.17159763,605b838b80f022835fc293fb,69b95efdef24cd8a694e89ee,69b9600c4bd956978d6e1b01,0.0242,0.0243,0,97,97,148,1,sevenfive,,,,,,,,,,,,,,,,,,,,,,,,,,,,,,,,,,,,,,,,,,,,,,,,,,,,,,,,,,,,,,,,,,,,,,,,,,,,,,,,,,,,,,,,,,,,,,,,,,,,,,,,,,,,,,,,,,,,,,,,,,,,,,,,,,,,,,,,,
,,605b838b80f022835fc293fb,2026-03-17_16h07.41.244,kallum_motion_pilot_GIST_update_2,2026.1.1,Win32,59.17159763,605b838b80f022835fc293fb,69b95efdef24cd8a694e89ee,69b9600c4bd956978d6e1b01,0.0244,0.0244,0,98,98,89,1,fiveseven,,,,,,,,,,,,,,,,,,,,,,,,,,,,,,,,,,,,,,,,,,,,,,,,,,,,,,,,,,,,,,,,,,,,,,,,,,,,,,,,,,,,,,,,,,,,,,,,,,,,,,,,,,,,,,,,,,,,,,,,,,,,,,,,,,,,,,,,,
,,605b838b80f022835fc293fb,2026-03-17_16h07.41.244,kallum_motion_pilot_GIST_update_2,2026.1.1,Win32,59.17159763,605b838b80f022835fc293fb,69b95efdef24cd8a694e89ee,69b9600c4bd956978d6e1b01,0.0244,0.0244,0,99,99,52,1,threeone,,,,,,,,,,,,,,,,,,,,,,,,,,,,,,,,,,,,,,,,,,,,,,,,,,,,,,,,,,,,,,,,,,,,,,,,,,,,,,,,,,,,,,,,,,,,,,,,,,,,,,,,,,,,,,,,,,,,,,,,,,,,,,,,,,,,,,,,,
,,605b838b80f022835fc293fb,2026-03-17_16h07.41.244,kallum_motion_pilot_GIST_update_2,2026.1.1,Win32,59.17159763,605b838b80f022835fc293fb,69b95efdef24cd8a694e89ee,69b9600c4bd956978d6e1b01,0.0246,0.0246,0,100,100,140,1,sevenfive,,,,,,,,,,,,,,,,,,,,,,,,,,,,,,,,,,,,,,,,,,,,,,,,,,,,,,,,,,,,,,,,,,,,,,,,,,,,,,,,,,,,,,,,,,,,,,,,,,,,,,,,,,,,,,,,,,,,,,,,,,,,,,,,,,,,,,,,,
,,605b838b80f022835fc293fb,2026-03-17_16h07.41.244,kallum_motion_pilot_GIST_update_2,2026.1.1,Win32,59.17159763,605b838b80f022835fc293fb,69b95efdef24cd8a694e89ee,69b9600c4bd956978d6e1b01,0.0246,0.0246,0,101,101,23,1,fourthree,,,,,,,,,,,,,,,,,,,,,,,,,,,,,,,,,,,,,,,,,,,,,,,,,,,,,,,,,,,,,,,,,,,,,,,,,,,,,,,,,,,,,,,,,,,,,,,,,,,,,,,,,,,,,,,,,,,,,,,,,,,,,,,,,,,,,,,,,
,,605b838b80f022835fc293fb,2026-03-17_16h07.41.244,kallum_motion_pilot_GIST_update_2,2026.1.1,Win32,59.17159763,605b838b80f022835fc293fb,69b95efdef24cd8a694e89ee,69b9600c4bd956978d6e1b01,0.0247,0.0247,0,102,102,102,1,eightsix,,,,,,,,,,,,,,,,,,,,,,,,,,,,,,,,,,,,,,,,,,,,,,,,,,,,,,,,,,,,,,,,,,,,,,,,,,,,,,,,,,,,,,,,,,,,,,,,,,,,,,,,,,,,,,,,,,,,,,,,,,,,,,,,,,,,,,,,,
,,605b838b80f022835fc293fb,2026-03-17_16h07.41.244,kallum_motion_pilot_GIST_update_2,2026.1.1,Win32,59.17159763,605b838b80f022835fc293fb,69b95efdef24cd8a694e89ee,69b9600c4bd956978d6e1b01,0.0248,0.0248,0,103,103,43,1,twofour,,,,,,,,,,,,,,,,,,,,,,,,,,,,,,,,,,,,,,,,,,,,,,,,,,,,,,,,,,,,,,,,,,,,,,,,,,,,,,,,,,,,,,,,,,,,,,,,,,,,,,,,,,,,,,,,,,,,,,,,,,,,,,,,,,,,,,,,,
,,605b838b80f022835fc293fb,2026-03-17_16h07.41.244,kallum_motion_pilot_GIST_update_2,2026.1.1,Win32,59.17159763,605b838b80f022835fc293fb,69b95efdef24cd8a694e89ee,69b9600c4bd956978d6e1b01,0.0249,0.0249,0,104,104,28,1,threeone,,,,,,,,,,,,,,,,,,,,,,,,,,,,,,,,,,,,,,,,,,,,,,,,,,,,,,,,,,,,,,,,,,,,,,,,,,,,,,,,,,,,,,,,,,,,,,,,,,,,,,,,,,,,,,,,,,,,,,,,,,,,,,,,,,,,,,,,,
,,605b838b80f022835fc293fb,2026-03-17_16h07.41.244,kallum_motion_pilot_GIST_update_2,2026.1.1,Win32,59.17159763,605b838b80f022835fc293fb,69b95efdef24cd8a694e89ee,69b9600c4bd956978d6e1b01,0.0249,0.0249,0,105,105,117,1,seveneight,,,,,,,,,,,,,,,,,,,,,,,,,,,,,,,,,,,,,,,,,,,,,,,,,,,,,,,,,,,,,,,,,,,,,,,,,,,,,,,,,,,,,,,,,,,,,,,,,,,,,,,,,,,,,,,,,,,,,,,,,,,,,,,,,,,,,,,,,
,,605b838b80f022835fc293fb,2026-03-17_16h07.41.244,kallum_motion_pilot_GIST_update_2,2026.1.1,Win32,59.17159763,605b838b80f022835fc293fb,69b95efdef24cd8a694e89ee,69b9600c4bd956978d6e1b01,0.025,0.025,0,106,106,132,1,sevenfive,,,,,,,,,,,,,,,,,,,,,,,,,,,,,,,,,,,,,,,,,,,,,,,,,,,,,,,,,,,,,,,,,,,,,,,,,,,,,,,,,,,,,,,,,,,,,,,,,,,,,,,,,,,,,,,,,,,,,,,,,,,,,,,,,,,,,,,,,
,,605b838b80f022835fc293fb,2026-03-17_16h07.41.244,kallum_motion_pilot_GIST_update_2,2026.1.1,Win32,59.17159763,605b838b80f022835fc293fb,69b95efdef24cd8a694e89ee,69b9600c4bd956978d6e1b01,0.0251,0.0251,0,107,107,107,1,sixeight,,,,,,,,,,,,,,,,,,,,,,,,,,,,,,,,,,,,,,,,,,,,,,,,,,,,,,,,,,,,,,,,,,,,,,,,,,,,,,,,,,,,,,,,,,,,,,,,,,,,,,,,,,,,,,,,,,,,,,,,,,,,,,,,,,,,,,,,,
,,605b838b80f022835fc293fb,2026-03-17_16h07.41.244,kallum_motion_pilot_GIST_update_2,2026.1.1,Win32,59.17159763,605b838b80f022835fc293fb,69b95efdef24cd8a694e89ee,69b9600c4bd956978d6e1b01,0.0252,0.0252,0,108,108,80,1,fivesix,,,,,,,,,,,,,,,,,,,,,,,,,,,,,,,,,,,,,,,,,,,,,,,,,,,,,,,,,,,,,,,,,,,,,,,,,,,,,,,,,,,,,,,,,,,,,,,,,,,,,,,,,,,,,,,,,,,,,,,,,,,,,,,,,,,,,,,,,
,,605b838b80f022835fc293fb,2026-03-17_16h07.41.244,kallum_motion_pilot_GIST_update_2,2026.1.1,Win32,59.17159763,605b838b80f022835fc293fb,69b95efdef24cd8a694e89ee,69b9600c4bd956978d6e1b01,0.0252,0.0253,0,109,109,46,1,fourtwo,,,,,,,,,,,,,,,,,,,,,,,,,,,,,,,,,,,,,,,,,,,,,,,,,,,,,,,,,,,,,,,,,,,,,,,,,,,,,,,,,,,,,,,,,,,,,,,,,,,,,,,,,,,,,,,,,,,,,,,,,,,,,,,,,,,,,,,,,
,,605b838b80f022835fc293fb,2026-03-17_16h07.41.244,kallum_motion_pilot_GIST_update_2,2026.1.1,Win32,59.17159763,605b838b80f022835fc293fb,69b95efdef24cd8a694e89ee,69b9600c4bd956978d6e1b01,0.0254,0.0254,0,110,110,81,1,fiveseven,,,,,,,,,,,,,,,,,,,,,,,,,,,,,,,,,,,,,,,,,,,,,,,,,,,,,,,,,,,,,,,,,,,,,,,,,,,,,,,,,,,,,,,,,,,,,,,,,,,,,,,,,,,,,,,,,,,,,,,,,,,,,,,,,,,,,,,,,
,,605b838b80f022835fc293fb,2026-03-17_16h07.41.244,kallum_motion_pilot_GIST_update_2,2026.1.1,Win32,59.17159763,605b838b80f022835fc293fb,69b95efdef24cd8a694e89ee,69b9600c4bd956978d6e1b01,0.0254,0.0254,0,111,111,150,1,eightsix,,,,,,,,,,,,,,,,,,,,,,,,,,,,,,,,,,,,,,,,,,,,,,,,,,,,,,,,,,,,,,,,,,,,,,,,,,,,,,,,,,,,,,,,,,,,,,,,,,,,,,,,,,,,,,,,,,,,,,,,,,,,,,,,,,,,,,,,,
,,605b838b80f022835fc293fb,2026-03-17_16h07.41.244,kallum_motion_pilot_GIST_update_2,2026.1.1,Win32,59.17159763,605b838b80f022835fc293fb,69b95efdef24cd8a694e89ee,69b9600c4bd956978d6e1b01,0.0255,0.0255,0,112,112,38,1,fourtwo,,,,,,,,,,,,,,,,,,,,,,,,,,,,,,,,,,,,,,,,,,,,,,,,,,,,,,,,,,,,,,,,,,,,,,,,,,,,,,,,,,,,,,,,,,,,,,,,,,,,,,,,,,,,,,,,,,,,,,,,,,,,,,,,,,,,,,,,,
,,605b838b80f022835fc293fb,2026-03-17_16h07.41.244,kallum_motion_pilot_GIST_update_2,2026.1.1,Win32,59.17159763,605b838b80f022835fc293fb,69b95efdef24cd8a694e89ee,69b9600c4bd956978d6e1b01,0.0256,0.0256,0,113,113,100,1,sevenfive,,,,,,,,,,,,,,,,,,,,,,,,,,,,,,,,,,,,,,,,,,,,,,,,,,,,,,,,,,,,,,,,,,,,,,,,,,,,,,,,,,,,,,,,,,,,,,,,,,,,,,,,,,,,,,,,,,,,,,,,,,,,,,,,,,,,,,,,,
,,605b838b80f022835fc293fb,2026-03-17_16h07.41.244,kallum_motion_pilot_GIST_update_2,2026.1.1,Win32,59.17159763,605b838b80f022835fc293fb,69b95efdef24cd8a694e89ee,69b9600c4bd956978d6e1b01,0.0257,0.0257,0,114,114,73,1,onethree,,,,,,,,,,,,,,,,,,,,,,,,,,,,,,,,,,,,,,,,,,,,,,,,,,,,,,,,,,,,,,,,,,,,,,,,,,,,,,,,,,,,,,,,,,,,,,,,,,,,,,,,,,,,,,,,,,,,,,,,,,,,,,,,,,,,,,,,,
,,605b838b80f022835fc293fb,2026-03-17_16h07.41.244,kallum_motion_pilot_GIST_update_2,2026.1.1,Win32,59.17159763,605b838b80f022835fc293fb,69b95efdef24cd8a694e89ee,69b9600c4bd956978d6e1b01,0.0257,0.0257,0,115,115,92,1,sevenfive,,,,,,,,,,,,,,,,,,,,,,,,,,,,,,,,,,,,,,,,,,,,,,,,,,,,,,,,,,,,,,,,,,,,,,,,,,,,,,,,,,,,,,,,,,,,,,,,,,,,,,,,,,,,,,,,,,,,,,,,,,,,,,,,,,,,,,,,,
,,605b838b80f022835fc293fb,2026-03-17_16h07.41.244,kallum_motion_pilot_GIST_update_2,2026.1.1,Win32,59.17159763,605b838b80f022835fc293fb,69b95efdef24cd8a694e89ee,69b9600c4bd956978d6e1b01,0.0258,0.0258,0,116,116,112,1,fivesix,,,,,,,,,,,,,,,,,,,,,,,,,,,,,,,,,,,,,,,,,,,,,,,,,,,,,,,,,,,,,,,,,,,,,,,,,,,,,,,,,,,,,,,,,,,,,,,,,,,,,,,,,,,,,,,,,,,,,,,,,,,,,,,,,,,,,,,,,
,,605b838b80f022835fc293fb,2026-03-17_16h07.41.244,kallum_motion_pilot_GIST_update_2,2026.1.1,Win32,59.17159763,605b838b80f022835fc293fb,69b95efdef24cd8a694e89ee,69b9600c4bd956978d6e1b01,0.0259,0.0259,0,117,117,115,1,sixeight,,,,,,,,,,,,,,,,,,,,,,,,,,,,,,,,,,,,,,,,,,,,,,,,,,,,,,,,,,,,,,,,,,,,,,,,,,,,,,,,,,,,,,,,,,,,,,,,,,,,,,,,,,,,,,,,,,,,,,,,,,,,,,,,,,,,,,,,,
,,605b838b80f022835fc293fb,2026-03-17_16h07.41.244,kallum_motion_pilot_GIST_update_2,2026.1.1,Win32,59.17159763,605b838b80f022835fc293fb,69b95efdef24cd8a694e89ee,69b9600c4bd956978d6e1b01,0.026,0.026,0,118,118,57,1,onethree,,,,,,,,,,,,,,,,,,,,,,,,,,,,,,,,,,,,,,,,,,,,,,,,,,,,,,,,,,,,,,,,,,,,,,,,,,,,,,,,,,,,,,,,,,,,,,,,,,,,,,,,,,,,,,,,,,,,,,,,,,,,,,,,,,,,,,,,,
,,605b838b80f022835fc293fb,2026-03-17_16h07.41.244,kallum_motion_pilot_GIST_update_2,2026.1.1,Win32,59.17159763,605b838b80f022835fc293fb,69b95efdef24cd8a694e89ee,69b9600c4bd956978d6e1b01,0.0261,0.0261,0,119,119,17,1,onethree,,,,,,,,,,,,,,,,,,,,,,,,,,,,,,,,,,,,,,,,,,,,,,,,,,,,,,,,,,,,,,,,,,,,,,,,,,,,,,,,,,,,,,,,,,,,,,,,,,,,,,,,,,,,,,,,,,,,,,,,,,,,,,,,,,,,,,,,,
,,605b838b80f022835fc293fb,2026-03-17_16h07.41.244,kallum_motion_pilot_GIST_update_2,2026.1.1,Win32,59.17159763,605b838b80f022835fc293fb,69b95efdef24cd8a694e89ee,69b9600c4bd956978d6e1b01,0.0261,0.0261,0,120,120,151,1,eightseven,,,,,,,,,,,,,,,,,,,,,,,,,,,,,,,,,,,,,,,,,,,,,,,,,,,,,,,,,,,,,,,,,,,,,,,,,,,,,,,,,,,,,,,,,,,,,,,,,,,,,,,,,,,,,,,,,,,,,,,,,,,,,,,,,,,,,,,,,
,,605b838b80f022835fc293fb,2026-03-17_16h07.41.244,kallum_motion_pilot_GIST_update_2,2026.1.1,Win32,59.17159763,605b838b80f022835fc293fb,69b95efdef24cd8a694e89ee,69b9600c4bd956978d6e1b01,0.0262,0.0262,0,121,121,155,1,sixeight,,,,,,,,,,,,,,,,,,,,,,,,,,,,,,,,,,,,,,,,,,,,,,,,,,,,,,,,,,,,,,,,,,,,,,,,,,,,,,,,,,,,,,,,,,,,,,,,,,,,,,,,,,,,,,,,,,,,,,,,,,,,,,,,,,,,,,,,,
,,605b838b80f022835fc293fb,2026-03-17_16h07.41.244,kallum_motion_pilot_GIST_update_2,2026.1.1,Win32,59.17159763,605b838b80f022835fc293fb,69b95efdef24cd8a694e89ee,69b9600c4bd956978d6e1b01,0.0263,0.0263,0,122,122,128,1,fivesix,,,,,,,,,,,,,,,,,,,,,,,,,,,,,,,,,,,,,,,,,,,,,,,,,,,,,,,,,,,,,,,,,,,,,,,,,,,,,,,,,,,,,,,,,,,,,,,,,,,,,,,,,,,,,,,,,,,,,,,,,,,,,,,,,,,,,,,,,
,,605b838b80f022835fc293fb,2026-03-17_16h07.41.244,kallum_motion_pilot_GIST_update_2,2026.1.1,Win32,59.17159763,605b838b80f022835fc293fb,69b95efdef24cd8a694e89ee,69b9600c4bd956978d6e1b01,0.0264,0.0264,0,123,123,25,1,onethree,,,,,,,,,,,,,,,,,,,,,,,,,,,,,,,,,,,,,,,,,,,,,,,,,,,,,,,,,,,,,,,,,,,,,,,,,,,,,,,,,,,,,,,,,,,,,,,,,,,,,,,,,,,,,,,,,,,,,,,,,,,,,,,,,,,,,,,,,
,,605b838b80f022835fc293fb,2026-03-17_16h07.41.244,kallum_motion_pilot_GIST_update_2,2026.1.1,Win32,59.17159763,605b838b80f022835fc293fb,69b95efdef24cd8a694e89ee,69b9600c4bd956978d6e1b01,0.0265,0.0265,0,124,124,98,1,sixfive,,,,,,,,,,,,,,,,,,,,,,,,,,,,,,,,,,,,,,,,,,,,,,,,,,,,,,,,,,,,,,,,,,,,,,,,,,,,,,,,,,,,,,,,,,,,,,,,,,,,,,,,,,,,,,,,,,,,,,,,,,,,,,,,,,,,,,,,,
,,605b838b80f022835fc293fb,2026-03-17_16h07.41.244,kallum_motion_pilot_GIST_update_2,2026.1.1,Win32,59.17159763,605b838b80f022835fc293fb,69b95efdef24cd8a694e89ee,69b9600c4bd956978d6e1b01,0.0265,0.0266,0,125,125,133,1,seveneight,,,,,,,,,,,,,,,,,,,,,,,,,,,,,,,,,,,,,,,,,,,,,,,,,,,,,,,,,,,,,,,,,,,,,,,,,,,,,,,,,,,,,,,,,,,,,,,,,,,,,,,,,,,,,,,,,,,,,,,,,,,,,,,,,,,,,,,,,
,,605b838b80f022835fc293fb,2026-03-17_16h07.41.244,kallum_motion_pilot_GIST_update_2,2026.1.1,Win32,59.17159763,605b838b80f022835fc293fb,69b95efdef24cd8a694e89ee,69b9600c4bd956978d6e1b01,0.0267,0.0267,0,126,126,13,1,threefour,,,,,,,,,,,,,,,,,,,,,,,,,,,,,,,,,,,,,,,,,,,,,,,,,,,,,,,,,,,,,,,,,,,,,,,,,,,,,,,,,,,,,,,,,,,,,,,,,,,,,,,,,,,,,,,,,,,,,,,,,,,,,,,,,,,,,,,,,
,,605b838b80f022835fc293fb,2026-03-17_16h07.41.244,kallum_motion_pilot_GIST_update_2,2026.1.1,Win32,59.17159763,605b838b80f022835fc293fb,69b95efdef24cd8a694e89ee,69b9600c4bd956978d6e1b01,0.0269,0.0269,0,127,127,33,1,onethree,,,,,,,,,,,,,,,,,,,,,,,,,,,,,,,,,,,,,,,,,,,,,,,,,,,,,,,,,,,,,,,,,,,,,,,,,,,,,,,,,,,,,,,,,,,,,,,,,,,,,,,,,,,,,,,,,,,,,,,,,,,,,,,,,,,,,,,,,
,,605b838b80f022835fc293fb,2026-03-17_16h07.41.244,kallum_motion_pilot_GIST_update_2,2026.1.1,Win32,59.17159763,605b838b80f022835fc293fb,69b95efdef24cd8a694e89ee,69b9600c4bd956978d6e1b01,0.0269,0.0269,0,128,128,64,1,onetwo,,,,,,,,,,,,,,,,,,,,,,,,,,,,,,,,,,,,,,,,,,,,,,,,,,,,,,,,,,,,,,,,,,,,,,,,,,,,,,,,,,,,,,,,,,,,,,,,,,,,,,,,,,,,,,,,,,,,,,,,,,,,,,,,,,,,,,,,,
,,605b838b80f022835fc293fb,2026-03-17_16h07.41.244,kallum_motion_pilot_GIST_update_2,2026.1.1,Win32,59.17159763,605b838b80f022835fc293fb,69b95efdef24cd8a694e89ee,69b9600c4bd956978d6e1b01,0.027,0.027,0,129,129,61,1,threefour,,,,,,,,,,,,,,,,,,,,,,,,,,,,,,,,,,,,,,,,,,,,,,,,,,,,,,,,,,,,,,,,,,,,,,,,,,,,,,,,,,,,,,,,,,,,,,,,,,,,,,,,,,,,,,,,,,,,,,,,,,,,,,,,,,,,,,,,,
,,605b838b80f022835fc293fb,2026-03-17_16h07.41.244,kallum_motion_pilot_GIST_update_2,2026.1.1,Win32,59.17159763,605b838b80f022835fc293fb,69b95efdef24cd8a694e89ee,69b9600c4bd956978d6e1b01,0.0271,0.0271,0,130,130,110,1,eightsix,,,,,,,,,,,,,,,,,,,,,,,,,,,,,,,,,,,,,,,,,,,,,,,,,,,,,,,,,,,,,,,,,,,,,,,,,,,,,,,,,,,,,,,,,,,,,,,,,,,,,,,,,,,,,,,,,,,,,,,,,,,,,,,,,,,,,,,,,
,,605b838b80f022835fc293fb,2026-03-17_16h07.41.244,kallum_motion_pilot_GIST_update_2,2026.1.1,Win32,59.17159763,605b838b80f022835fc293fb,69b95efdef24cd8a694e89ee,69b9600c4bd956978d6e1b01,0.0272,0.0272,0,131,131,32,1,onetwo,,,,,,,,,,,,,,,,,,,,,,,,,,,,,,,,,,,,,,,,,,,,,,,,,,,,,,,,,,,,,,,,,,,,,,,,,,,,,,,,,,,,,,,,,,,,,,,,,,,,,,,,,,,,,,,,,,,,,,,,,,,,,,,,,,,,,,,,,
,,605b838b80f022835fc293fb,2026-03-17_16h07.41.244,kallum_motion_pilot_GIST_update_2,2026.1.1,Win32,59.17159763,605b838b80f022835fc293fb,69b95efdef24cd8a694e89ee,69b9600c4bd956978d6e1b01,0.0272,0.0272,0,132,132,158,1,eightsix,,,,,,,,,,,,,,,,,,,,,,,,,,,,,,,,,,,,,,,,,,,,,,,,,,,,,,,,,,,,,,,,,,,,,,,,,,,,,,,,,,,,,,,,,,,,,,,,,,,,,,,,,,,,,,,,,,,,,,,,,,,,,,,,,,,,,,,,,
,,605b838b80f022835fc293fb,2026-03-17_16h07.41.244,kallum_motion_pilot_GIST_update_2,2026.1.1,Win32,59.17159763,605b838b80f022835fc293fb,69b95efdef24cd8a694e89ee,69b9600c4bd956978d6e1b01,0.0273,0.0273,0,133,133,45,1,threefour,,,,,,,,,,,,,,,,,,,,,,,,,,,,,,,,,,,,,,,,,,,,,,,,,,,,,,,,,,,,,,,,,,,,,,,,,,,,,,,,,,,,,,,,,,,,,,,,,,,,,,,,,,,,,,,,,,,,,,,,,,,,,,,,,,,,,,,,,
,,605b838b80f022835fc293fb,2026-03-17_16h07.41.244,kallum_motion_pilot_GIST_update_2,2026.1.1,Win32,59.17159763,605b838b80f022835fc293fb,69b95efdef24cd8a694e89ee,69b9600c4bd956978d6e1b01,0.0274,0.0274,0,134,134,12,1,threeone,,,,,,,,,,,,,,,,,,,,,,,,,,,,,,,,,,,,,,,,,,,,,,,,,,,,,,,,,,,,,,,,,,,,,,,,,,,,,,,,,,,,,,,,,,,,,,,,,,,,,,,,,,,,,,,,,,,,,,,,,,,,,,,,,,,,,,,,,
,,605b838b80f022835fc293fb,2026-03-17_16h07.41.244,kallum_motion_pilot_GIST_update_2,2026.1.1,Win32,59.17159763,605b838b80f022835fc293fb,69b95efdef24cd8a694e89ee,69b9600c4bd956978d6e1b01,0.0275,0.0275,0,135,135,79,1,eightseven,,,,,,,,,,,,,,,,,,,,,,,,,,,,,,,,,,,,,,,,,,,,,,,,,,,,,,,,,,,,,,,,,,,,,,,,,,,,,,,,,,,,,,,,,,,,,,,,,,,,,,,,,,,,,,,,,,,,,,,,,,,,,,,,,,,,,,,,,
,,605b838b80f022835fc293fb,2026-03-17_16h07.41.244,kallum_motion_pilot_GIST_update_2,2026.1.1,Win32,59.17159763,605b838b80f022835fc293fb,69b95efdef24cd8a694e89ee,69b9600c4bd956978d6e1b01,0.0276,0.0276,0,136,136,153,1,fiveseven,,,,,,,,,,,,,,,,,,,,,,,,,,,,,,,,,,,,,,,,,,,,,,,,,,,,,,,,,,,,,,,,,,,,,,,,,,,,,,,,,,,,,,,,,,,,,,,,,,,,,,,,,,,,,,,,,,,,,,,,,,,,,,,,,,,,,,,,,
,,605b838b80f022835fc293fb,2026-03-17_16h07.41.244,kallum_motion_pilot_GIST_update_2,2026.1.1,Win32,59.17159763,605b838b80f022835fc293fb,69b95efdef24cd8a694e89ee,69b9600c4bd956978d6e1b01,0.0277,0.0277,0,137,137,96,1,fivesix,,,,,,,,,,,,,,,,,,,,,,,,,,,,,,,,,,,,,,,,,,,,,,,,,,,,,,,,,,,,,,,,,,,,,,,,,,,,,,,,,,,,,,,,,,,,,,,,,,,,,,,,,,,,,,,,,,,,,,,,,,,,,,,,,,,,,,,,,
,,605b838b80f022835fc293fb,2026-03-17_16h07.41.244,kallum_motion_pilot_GIST_update_2,2026.1.1,Win32,59.17159763,605b838b80f022835fc293fb,69b95efdef24cd8a694e89ee,69b9600c4bd956978d6e1b01,0.0277,0.0277,0,138,138,146,1,sixfive,,,,,,,,,,,,,,,,,,,,,,,,,,,,,,,,,,,,,,,,,,,,,,,,,,,,,,,,,,,,,,,,,,,,,,,,,,,,,,,,,,,,,,,,,,,,,,,,,,,,,,,,,,,,,,,,,,,,,,,,,,,,,,,,,,,,,,,,,
,,605b838b80f022835fc293fb,2026-03-17_16h07.41.244,kallum_motion_pilot_GIST_update_2,2026.1.1,Win32,59.17159763,605b838b80f022835fc293fb,69b95efdef24cd8a694e89ee,69b9600c4bd956978d6e1b01,0.0279,0.0279,0,139,139,108,1,sevenfive,,,,,,,,,,,,,,,,,,,,,,,,,,,,,,,,,,,,,,,,,,,,,,,,,,,,,,,,,,,,,,,,,,,,,,,,,,,,,,,,,,,,,,,,,,,,,,,,,,,,,,,,,,,,,,,,,,,,,,,,,,,,,,,,,,,,,,,,,
,,605b838b80f022835fc293fb,2026-03-17_16h07.41.244,kallum_motion_pilot_GIST_update_2,2026.1.1,Win32,59.17159763,605b838b80f022835fc293fb,69b95efdef24cd8a694e89ee,69b9600c4bd956978d6e1b01,0.0279,0.0279,0,140,140,2,1,twoone,,,,,,,,,,,,,,,,,,,,,,,,,,,,,,,,,,,,,,,,,,,,,,,,,,,,,,,,,,,,,,,,,,,,,,,,,,,,,,,,,,,,,,,,,,,,,,,,,,,,,,,,,,,,,,,,,,,,,,,,,,,,,,,,,,,,,,,,,
,,605b838b80f022835fc293fb,2026-03-17_16h07.41.244,kallum_motion_pilot_GIST_update_2,2026.1.1,Win32,59.17159763,605b838b80f022835fc293fb,69b95efdef24cd8a694e89ee,69b9600c4bd956978d6e1b01,0.028,0.028,0,141,141,48,1,onetwo,,,,,,,,,,,,,,,,,,,,,,,,,,,,,,,,,,,,,,,,,,,,,,,,,,,,,,,,,,,,,,,,,,,,,,,,,,,,,,,,,,,,,,,,,,,,,,,,,,,,,,,,,,,,,,,,,,,,,,,,,,,,,,,,,,,,,,,,,
,,605b838b80f022835fc293fb,2026-03-17_16h07.41.244,kallum_motion_pilot_GIST_update_2,2026.1.1,Win32,59.17159763,605b838b80f022835fc293fb,69b95efdef24cd8a694e89ee,69b9600c4bd956978d6e1b01,0.0281,0.0281,0,142,142,143,1,eightseven,,,,,,,,,,,,,,,,,,,,,,,,,,,,,,,,,,,,,,,,,,,,,,,,,,,,,,,,,,,,,,,,,,,,,,,,,,,,,,,,,,,,,,,,,,,,,,,,,,,,,,,,,,,,,,,,,,,,,,,,,,,,,,,,,,,,,,,,,
,,605b838b80f022835fc293fb,2026-03-17_16h07.41.244,kallum_motion_pilot_GIST_update_2,2026.1.1,Win32,59.17159763,605b838b80f022835fc293fb,69b95efdef24cd8a694e89ee,69b9600c4bd956978d6e1b01,0.0282,0.0282,0,143,143,55,1,fourthree,,,,,,,,,,,,,,,,,,,,,,,,,,,,,,,,,,,,,,,,,,,,,,,,,,,,,,,,,,,,,,,,,,,,,,,,,,,,,,,,,,,,,,,,,,,,,,,,,,,,,,,,,,,,,,,,,,,,,,,,,,,,,,,,,,,,,,,,,
,,605b838b80f022835fc293fb,2026-03-17_16h07.41.244,kallum_motion_pilot_GIST_update_2,2026.1.1,Win32,59.17159763,605b838b80f022835fc293fb,69b95efdef24cd8a694e89ee,69b9600c4bd956978d6e1b01,0.0283,0.0283,0,144,144,47,1,fourthree,,,,,,,,,,,,,,,,,,,,,,,,,,,,,,,,,,,,,,,,,,,,,,,,,,,,,,,,,,,,,,,,,,,,,,,,,,,,,,,,,,,,,,,,,,,,,,,,,,,,,,,,,,,,,,,,,,,,,,,,,,,,,,,,,,,,,,,,,
,,605b838b80f022835fc293fb,2026-03-17_16h07.41.244,kallum_motion_pilot_GIST_update_2,2026.1.1,Win32,59.17159763,605b838b80f022835fc293fb,69b95efdef24cd8a694e89ee,69b9600c4bd956978d6e1b01,0.0284,0.0284,0,145,145,111,1,eightseven,,,,,,,,,,,,,,,,,,,,,,,,,,,,,,,,,,,,,,,,,,,,,,,,,,,,,,,,,,,,,,,,,,,,,,,,,,,,,,,,,,,,,,,,,,,,,,,,,,,,,,,,,,,,,,,,,,,,,,,,,,,,,,,,,,,,,,,,,
,,605b838b80f022835fc293fb,2026-03-17_16h07.41.244,kallum_motion_pilot_GIST_update_2,2026.1.1,Win32,59.17159763,605b838b80f022835fc293fb,69b95efdef24cd8a694e89ee,69b9600c4bd956978d6e1b01,0.0284,0.0284,0,146,146,67,1,twofour,,,,,,,,,,,,,,,,,,,,,,,,,,,,,,,,,,,,,,,,,,,,,,,,,,,,,,,,,,,,,,,,,,,,,,,,,,,,,,,,,,,,,,,,,,,,,,,,,,,,,,,,,,,,,,,,,,,,,,,,,,,,,,,,,,,,,,,,,
,,605b838b80f022835fc293fb,2026-03-17_16h07.41.244,kallum_motion_pilot_GIST_update_2,2026.1.1,Win32,59.17159763,605b838b80f022835fc293fb,69b95efdef24cd8a694e89ee,69b9600c4bd956978d6e1b01,0.0285,0.0285,0,147,147,121,1,fiveseven,,,,,,,,,,,,,,,,,,,,,,,,,,,,,,,,,,,,,,,,,,,,,,,,,,,,,,,,,,,,,,,,,,,,,,,,,,,,,,,,,,,,,,,,,,,,,,,,,,,,,,,,,,,,,,,,,,,,,,,,,,,,,,,,,,,,,,,,,
,,605b838b80f022835fc293fb,2026-03-17_16h07.41.244,kallum_motion_pilot_GIST_update_2,2026.1.1,Win32,59.17159763,605b838b80f022835fc293fb,69b95efdef24cd8a694e89ee,69b9600c4bd956978d6e1b01,0.0287,0.0287,0,148,148,14,1,fourtwo,,,,,,,,,,,,,,,,,,,,,,,,,,,,,,,,,,,,,,,,,,,,,,,,,,,,,,,,,,,,,,,,,,,,,,,,,,,,,,,,,,,,,,,,,,,,,,,,,,,,,,,,,,,,,,,,,,,,,,,,,,,,,,,,,,,,,,,,,
,,605b838b80f022835fc293fb,2026-03-17_16h07.41.244,kallum_motion_pilot_GIST_update_2,2026.1.1,Win32,59.17159763,605b838b80f022835fc293fb,69b95efdef24cd8a694e89ee,69b9600c4bd956978d6e1b01,0.0287,0.0287,0,149,149,26,1,twoone,,,,,,,,,,,,,,,,,,,,,,,,,,,,,,,,,,,,,,,,,,,,,,,,,,,,,,,,,,,,,,,,,,,,,,,,,,,,,,,,,,,,,,,,,,,,,,,,,,,,,,,,,,,,,,,,,,,,,,,,,,,,,,,,,,,,,,,,,
,,605b838b80f022835fc293fb,2026-03-17_16h07.41.244,kallum_motion_pilot_GIST_update_2,2026.1.1,Win32,59.17159763,605b838b80f022835fc293fb,69b95efdef24cd8a694e89ee,69b9600c4bd956978d6e1b01,0.0287,0.0288,0,150,150,58,1,twoone,,,,,,,,,,,,,,,,,,,,,,,,,,,,,,,,,,,,,,,,,,,,,,,,,,,,,,,,,,,,,,,,,,,,,,,,,,,,,,,,,,,,,,,,,,,,,,,,,,,,,,,,,,,,,,,,,,,,,,,,,,,,,,,,,,,,,,,,,
,,605b838b80f022835fc293fb,2026-03-17_16h07.41.244,kallum_motion_pilot_GIST_update_2,2026.1.1,Win32,59.17159763,605b838b80f022835fc293fb,69b95efdef24cd8a694e89ee,69b9600c4bd956978d6e1b01,0.0288,0.0289,0,151,151,84,1,sevenfive,,,,,,,,,,,,,,,,,,,,,,,,,,,,,,,,,,,,,,,,,,,,,,,,,,,,,,,,,,,,,,,,,,,,,,,,,,,,,,,,,,,,,,,,,,,,,,,,,,,,,,,,,,,,,,,,,,,,,,,,,,,,,,,,,,,,,,,,,
,,605b838b80f022835fc293fb,2026-03-17_16h07.41.244,kallum_motion_pilot_GIST_update_2,2026.1.1,Win32,59.17159763,605b838b80f022835fc293fb,69b95efdef24cd8a694e89ee,69b9600c4bd956978d6e1b01,0.029,0.029,0,152,152,87,1,eightseven,,,,,,,,,,,,,,,,,,,,,,,,,,,,,,,,,,,,,,,,,,,,,,,,,,,,,,,,,,,,,,,,,,,,,,,,,,,,,,,,,,,,,,,,,,,,,,,,,,,,,,,,,,,,,,,,,,,,,,,,,,,,,,,,,,,,,,,,,
,,605b838b80f022835fc293fb,2026-03-17_16h07.41.244,kallum_motion_pilot_GIST_update_2,2026.1.1,Win32,59.17159763,605b838b80f022835fc293fb,69b95efdef24cd8a694e89ee,69b9600c4bd956978d6e1b01,0.0291,0.0291,0,153,153,75,1,twofour,,,,,,,,,,,,,,,,,,,,,,,,,,,,,,,,,,,,,,,,,,,,,,,,,,,,,,,,,,,,,,,,,,,,,,,,,,,,,,,,,,,,,,,,,,,,,,,,,,,,,,,,,,,,,,,,,,,,,,,,,,,,,,,,,,,,,,,,,
,,605b838b80f022835fc293fb,2026-03-17_16h07.41.244,kallum_motion_pilot_GIST_update_2,2026.1.1,Win32,59.17159763,605b838b80f022835fc293fb,69b95efdef24cd8a694e89ee,69b9600c4bd956978d6e1b01,0.0291,0.0291,0,154,154,122,1,sixfive,,,,,,,,,,,,,,,,,,,,,,,,,,,,,,,,,,,,,,,,,,,,,,,,,,,,,,,,,,,,,,,,,,,,,,,,,,,,,,,,,,,,,,,,,,,,,,,,,,,,,,,,,,,,,,,,,,,,,,,,,,,,,,,,,,,,,,,,,
,,605b838b80f022835fc293fb,2026-03-17_16h07.41.244,kallum_motion_pilot_GIST_update_2,2026.1.1,Win32,59.17159763,605b838b80f022835fc293fb,69b95efdef24cd8a694e89ee,69b9600c4bd956978d6e1b01,0.0293,0.0293,0,155,155,90,1,sixfive,,,,,,,,,,,,,,,,,,,,,,,,,,,,,,,,,,,,,,,,,,,,,,,,,,,,,,,,,,,,,,,,,,,,,,,,,,,,,,,,,,,,,,,,,,,,,,,,,,,,,,,,,,,,,,,,,,,,,,,,,,,,,,,,,,,,,,,,,
,,605b838b80f022835fc293fb,2026-03-17_16h07.41.244,kallum_motion_pilot_GIST_update_2,2026.1.1,Win32,59.17159763,605b838b80f022835fc293fb,69b95efdef24cd8a694e89ee,69b9600c4bd956978d6e1b01,0.0293,0.0294,0,156,156,152,1,fivesix,,,,,,,,,,,,,,,,,,,,,,,,,,,,,,,,,,,,,,,,,,,,,,,,,,,,,,,,,,,,,,,,,,,,,,,,,,,,,,,,,,,,,,,,,,,,,,,,,,,,,,,,,,,,,,,,,,,,,,,,,,,,,,,,,,,,,,,,,
,,605b838b80f022835fc293fb,2026-03-17_16h07.41.244,kallum_motion_pilot_GIST_update_2,2026.1.1,Win32,59.17159763,605b838b80f022835fc293fb,69b95efdef24cd8a694e89ee,69b9600c4bd956978d6e1b01,0.0294,0.0294,0,157,157,63,1,fourthree,,,,,,,,,,,,,,,,,,,,,,,,,,,,,,,,,,,,,,,,,,,,,,,,,,,,,,,,,,,,,,,,,,,,,,,,,,,,,,,,,,,,,,,,,,,,,,,,,,,,,,,,,,,,,,,,,,,,,,,,,,,,,,,,,,,,,,,,,
,,605b838b80f022835fc293fb,2026-03-17_16h07.41.244,kallum_motion_pilot_GIST_update_2,2026.1.1,Win32,59.17159763,605b838b80f022835fc293fb,69b95efdef24cd8a694e89ee,69b9600c4bd956978d6e1b01,0.0295,0.0295,0,158,158,106,1,sixfive,,,,,,,,,,,,,,,,,,,,,,,,,,,,,,,,,,,,,,,,,,,,,,,,,,,,,,,,,,,,,,,,,,,,,,,,,,,,,,,,,,,,,,,,,,,,,,,,,,,,,,,,,,,,,,,,,,,,,,,,,,,,,,,,,,,,,,,,,
,,605b838b80f022835fc293fb,2026-03-17_16h07.41.244,kallum_motion_pilot_GIST_update_2,2026.1.1,Win32,59.17159763,605b838b80f022835fc293fb,69b95efdef24cd8a694e89ee,69b9600c4bd956978d6e1b01,0.0296,0.0296,0,159,159,142,1,eightsix,,,,,,,,,,,,,,,,,,,,,,,,,,,,,,,,,,,,,,,,,,,,,,,,,,,,,,,,,,,,,,,,,,,,,,,,,,,,,,,,,,,,,,,,,,,,,,,,,,,,,,,,,,,,,,,,,,,,,,,,,,,,,,,,,,,,,,,,,
,,605b838b80f022835fc293fb,2026-03-17_16h07.41.244,kallum_motion_pilot_GIST_update_2,2026.1.1,Win32,59.17159763,605b838b80f022835fc293fb,69b95efdef24cd8a694e89ee,69b9600c4bd956978d6e1b01,0.0297,0.0297,0,160,160,59,1,twofour,,,,,,,,,,,,,,,,,,,,,,,,,,,,,,,,,,,,,,,,,,,,,,,,,,,,,,,,,,,,,,,,,,,,,,,,,,,,,,,,,,,,,,,,,,,,,,,,,,,,,,,,,,,,,,,,,,,,,,,,,,,,,,,,,,,,,,,,,
,,605b838b80f022835fc293fb,2026-03-17_16h07.41.244,kallum_motion_pilot_GIST_update_2,2026.1.1,Win32,59.17159763,605b838b80f022835fc293fb,69b95efdef24cd8a694e89ee,69b9600c4bd956978d6e1b01,0.0298,0.0298,0,161,161,69,1,threefour,,,,,,,,,,,,,,,,,,,,,,,,,,,,,,,,,,,,,,,,,,,,,,,,,,,,,,,,,,,,,,,,,,,,,,,,,,,,,,,,,,,,,,,,,,,,,,,,,,,,,,,,,,,,,,,,,,,,,,,,,,,,,,,,,,,,,,,,,
,,605b838b80f022835fc293fb,2026-03-17_16h07.41.244,kallum_motion_pilot_GIST_update_2,2026.1.1,Win32,59.17159763,605b838b80f022835fc293fb,69b95efdef24cd8a694e89ee,69b9600c4bd956978d6e1b01,0.0299,0.0299,1,0,162,68,1,threeone,,,,,,,,,,,,,,,,,,,,,,,,,,,,,,,,,,,,,,,,,,,,,,,,,,,,,,,,,,,,,,,,,,,,,,,,,,,,,,,,,,,,,,,,,,,,,,,,,,,,,,,,,,,,,,,,,,,,,,,,,,,,,,,,,,,,,,,,,
,,605b838b80f022835fc293fb,2026-03-17_16h07.41.244,kallum_motion_pilot_GIST_update_2,2026.1.1,Win32,59.17159763,605b838b80f022835fc293fb,69b95efdef24cd8a694e89ee,69b9600c4bd956978d6e1b01,0.0299,0.0299,1,1,163,96,1,fivesix,,,,,,,,,,,,,,,,,,,,,,,,,,,,,,,,,,,,,,,,,,,,,,,,,,,,,,,,,,,,,,,,,,,,,,,,,,,,,,,,,,,,,,,,,,,,,,,,,,,,,,,,,,,,,,,,,,,,,,,,,,,,,,,,,,,,,,,,,
,,605b838b80f022835fc293fb,2026-03-17_16h07.41.244,kallum_motion_pilot_GIST_update_2,2026.1.1,Win32,59.17159763,605b838b80f022835fc293fb,69b95efdef24cd8a694e89ee,69b9600c4bd956978d6e1b01,0.03,0.03,1,2,164,92,1,sevenfive,,,,,,,,,,,,,,,,,,,,,,,,,,,,,,,,,,,,,,,,,,,,,,,,,,,,,,,,,,,,,,,,,,,,,,,,,,,,,,,,,,,,,,,,,,,,,,,,,,,,,,,,,,,,,,,,,,,,,,,,,,,,,,,,,,,,,,,,,
,,605b838b80f022835fc293fb,2026-03-17_16h07.41.244,kallum_motion_pilot_GIST_update_2,2026.1.1,Win32,59.17159763,605b838b80f022835fc293fb,69b95efdef24cd8a694e89ee,69b9600c4bd956978d6e1b01,0.0301,0.0301,1,3,165,20,1,threeone,,,,,,,,,,,,,,,,,,,,,,,,,,,,,,,,,,,,,,,,,,,,,,,,,,,,,,,,,,,,,,,,,,,,,,,,,,,,,,,,,,,,,,,,,,,,,,,,,,,,,,,,,,,,,,,,,,,,,,,,,,,,,,,,,,,,,,,,,
,,605b838b80f022835fc293fb,2026-03-17_16h07.41.244,kallum_motion_pilot_GIST_update_2,2026.1.1,Win32,59.17159763,605b838b80f022835fc293fb,69b95efdef24cd8a694e89ee,69b9600c4bd956978d6e1b01,0.0302,0.0302,1,4,166,17,1,onethree,,,,,,,,,,,,,,,,,,,,,,,,,,,,,,,,,,,,,,,,,,,,,,,,,,,,,,,,,,,,,,,,,,,,,,,,,,,,,,,,,,,,,,,,,,,,,,,,,,,,,,,,,,,,,,,,,,,,,,,,,,,,,,,,,,,,,,,,,
,,605b838b80f022835fc293fb,2026-03-17_16h07.41.244,kallum_motion_pilot_GIST_update_2,2026.1.1,Win32,59.17159763,605b838b80f022835fc293fb,69b95efdef24cd8a694e89ee,69b9600c4bd956978d6e1b01,0.0303,0.0303,1,5,167,88,1,fivesix,,,,,,,,,,,,,,,,,,,,,,,,,,,,,,,,,,,,,,,,,,,,,,,,,,,,,,,,,,,,,,,,,,,,,,,,,,,,,,,,,,,,,,,,,,,,,,,,,,,,,,,,,,,,,,,,,,,,,,,,,,,,,,,,,,,,,,,,,
,,605b838b80f022835fc293fb,2026-03-17_16h07.41.244,kallum_motion_pilot_GIST_update_2,2026.1.1,Win32,59.17159763,605b838b80f022835fc293fb,69b95efdef24cd8a694e89ee,69b9600c4bd956978d6e1b01,0.0304,0.0304,1,6,168,71,1,fourthree,,,,,,,,,,,,,,,,,,,,,,,,,,,,,,,,,,,,,,,,,,,,,,,,,,,,,,,,,,,,,,,,,,,,,,,,,,,,,,,,,,,,,,,,,,,,,,,,,,,,,,,,,,,,,,,,,,,,,,,,,,,,,,,,,,,,,,,,,
,,605b838b80f022835fc293fb,2026-03-17_16h07.41.244,kallum_motion_pilot_GIST_update_2,2026.1.1,Win32,59.17159763,605b838b80f022835fc293fb,69b95efdef24cd8a694e89ee,69b9600c4bd956978d6e1b01,0.0304,0.0304,1,7,169,83,1,sixeight,,,,,,,,,,,,,,,,,,,,,,,,,,,,,,,,,,,,,,,,,,,,,,,,,,,,,,,,,,,,,,,,,,,,,,,,,,,,,,,,,,,,,,,,,,,,,,,,,,,,,,,,,,,,,,,,,,,,,,,,,,,,,,,,,,,,,,,,,
,,605b838b80f022835fc293fb,2026-03-17_16h07.41.244,kallum_motion_pilot_GIST_update_2,2026.1.1,Win32,59.17159763,605b838b80f022835fc293fb,69b95efdef24cd8a694e89ee,69b9600c4bd956978d6e1b01,0.0305,0.0305,1,8,170,79,1,eightseven,,,,,,,,,,,,,,,,,,,,,,,,,,,,,,,,,,,,,,,,,,,,,,,,,,,,,,,,,,,,,,,,,,,,,,,,,,,,,,,,,,,,,,,,,,,,,,,,,,,,,,,,,,,,,,,,,,,,,,,,,,,,,,,,,,,,,,,,,
,,605b838b80f022835fc293fb,2026-03-17_16h07.41.244,kallum_motion_pilot_GIST_update_2,2026.1.1,Win32,59.17159763,605b838b80f022835fc293fb,69b95efdef24cd8a694e89ee,69b9600c4bd956978d6e1b01,0.0307,0.0307,1,9,171,130,1,sixfive,,,,,,,,,,,,,,,,,,,,,,,,,,,,,,,,,,,,,,,,,,,,,,,,,,,,,,,,,,,,,,,,,,,,,,,,,,,,,,,,,,,,,,,,,,,,,,,,,,,,,,,,,,,,,,,,,,,,,,,,,,,,,,,,,,,,,,,,,
,,605b838b80f022835fc293fb,2026-03-17_16h07.41.244,kallum_motion_pilot_GIST_update_2,2026.1.1,Win32,59.17159763,605b838b80f022835fc293fb,69b95efdef24cd8a694e89ee,69b9600c4bd956978d6e1b01,0.0307,0.0307,1,10,172,154,1,sixfive,,,,,,,,,,,,,,,,,,,,,,,,,,,,,,,,,,,,,,,,,,,,,,,,,,,,,,,,,,,,,,,,,,,,,,,,,,,,,,,,,,,,,,,,,,,,,,,,,,,,,,,,,,,,,,,,,,,,,,,,,,,,,,,,,,,,,,,,,
,,605b838b80f022835fc293fb,2026-03-17_16h07.41.244,kallum_motion_pilot_GIST_update_2,2026.1.1,Win32,59.17159763,605b838b80f022835fc293fb,69b95efdef24cd8a694e89ee,69b9600c4bd956978d6e1b01,0.0309,0.0309,1,11,173,108,1,sevenfive,,,,,,,,,,,,,,,,,,,,,,,,,,,,,,,,,,,,,,,,,,,,,,,,,,,,,,,,,,,,,,,,,,,,,,,,,,,,,,,,,,,,,,,,,,,,,,,,,,,,,,,,,,,,,,,,,,,,,,,,,,,,,,,,,,,,,,,,,
,,605b838b80f022835fc293fb,2026-03-17_16h07.41.244,kallum_motion_pilot_GIST_update_2,2026.1.1,Win32,59.17159763,605b838b80f022835fc293fb,69b95efdef24cd8a694e89ee,69b9600c4bd956978d6e1b01,0.031,0.031,1,12,174,14,1,fourtwo,,,,,,,,,,,,,,,,,,,,,,,,,,,,,,,,,,,,,,,,,,,,,,,,,,,,,,,,,,,,,,,,,,,,,,,,,,,,,,,,,,,,,,,,,,,,,,,,,,,,,,,,,,,,,,,,,,,,,,,,,,,,,,,,,,,,,,,,,
,,605b838b80f022835fc293fb,2026-03-17_16h07.41.244,kallum_motion_pilot_GIST_update_2,2026.1.1,Win32,59.17159763,605b838b80f022835fc293fb,69b95efdef24cd8a694e89ee,69b9600c4bd956978d6e1b01,0.031,0.031,1,13,175,73,1,onethree,,,,,,,,,,,,,,,,,,,,,,,,,,,,,,,,,,,,,,,,,,,,,,,,,,,,,,,,,,,,,,,,,,,,,,,,,,,,,,,,,,,,,,,,,,,,,,,,,,,,,,,,,,,,,,,,,,,,,,,,,,,,,,,,,,,,,,,,,
,,605b838b80f022835fc293fb,2026-03-17_16h07.41.244,kallum_motion_pilot_GIST_update_2,2026.1.1,Win32,59.17159763,605b838b80f022835fc293fb,69b95efdef24cd8a694e89ee,69b9600c4bd956978d6e1b01,0.0311,0.0311,1,14,176,35,1,twofour,,,,,,,,,,,,,,,,,,,,,,,,,,,,,,,,,,,,,,,,,,,,,,,,,,,,,,,,,,,,,,,,,,,,,,,,,,,,,,,,,,,,,,,,,,,,,,,,,,,,,,,,,,,,,,,,,,,,,,,,,,,,,,,,,,,,,,,,,
,,605b838b80f022835fc293fb,2026-03-17_16h07.41.244,kallum_motion_pilot_GIST_update_2,2026.1.1,Win32,59.17159763,605b838b80f022835fc293fb,69b95efdef24cd8a694e89ee,69b9600c4bd956978d6e1b01,0.0312,0.0312,1,15,177,116,1,sevenfive,,,,,,,,,,,,,,,,,,,,,,,,,,,,,,,,,,,,,,,,,,,,,,,,,,,,,,,,,,,,,,,,,,,,,,,,,,,,,,,,,,,,,,,,,,,,,,,,,,,,,,,,,,,,,,,,,,,,,,,,,,,,,,,,,,,,,,,,,
,,605b838b80f022835fc293fb,2026-03-17_16h07.41.244,kallum_motion_pilot_GIST_update_2,2026.1.1,Win32,59.17159763,605b838b80f022835fc293fb,69b95efdef24cd8a694e89ee,69b9600c4bd956978d6e1b01,0.0313,0.0313,1,16,178,22,1,fourtwo,,,,,,,,,,,,,,,,,,,,,,,,,,,,,,,,,,,,,,,,,,,,,,,,,,,,,,,,,,,,,,,,,,,,,,,,,,,,,,,,,,,,,,,,,,,,,,,,,,,,,,,,,,,,,,,,,,,,,,,,,,,,,,,,,,,,,,,,,
,,605b838b80f022835fc293fb,2026-03-17_16h07.41.244,kallum_motion_pilot_GIST_update_2,2026.1.1,Win32,59.17159763,605b838b80f022835fc293fb,69b95efdef24cd8a694e89ee,69b9600c4bd956978d6e1b01,0.0314,0.0314,1,17,179,25,1,onethree,,,,,,,,,,,,,,,,,,,,,,,,,,,,,,,,,,,,,,,,,,,,,,,,,,,,,,,,,,,,,,,,,,,,,,,,,,,,,,,,,,,,,,,,,,,,,,,,,,,,,,,,,,,,,,,,,,,,,,,,,,,,,,,,,,,,,,,,,
,,605b838b80f022835fc293fb,2026-03-17_16h07.41.244,kallum_motion_pilot_GIST_update_2,2026.1.1,Win32,59.17159763,605b838b80f022835fc293fb,69b95efdef24cd8a694e89ee,69b9600c4bd956978d6e1b01,0.0315,0.0315,1,18,180,101,1,seveneight,,,,,,,,,,,,,,,,,,,,,,,,,,,,,,,,,,,,,,,,,,,,,,,,,,,,,,,,,,,,,,,,,,,,,,,,,,,,,,,,,,,,,,,,,,,,,,,,,,,,,,,,,,,,,,,,,,,,,,,,,,,,,,,,,,,,,,,,,
,,605b838b80f022835fc293fb,2026-03-17_16h07.41.244,kallum_motion_pilot_GIST_update_2,2026.1.1,Win32,59.17159763,605b838b80f022835fc293fb,69b95efdef24cd8a694e89ee,69b9600c4bd956978d6e1b01,0.0316,0.0316,1,19,181,76,1,threeone,,,,,,,,,,,,,,,,,,,,,,,,,,,,,,,,,,,,,,,,,,,,,,,,,,,,,,,,,,,,,,,,,,,,,,,,,,,,,,,,,,,,,,,,,,,,,,,,,,,,,,,,,,,,,,,,,,,,,,,,,,,,,,,,,,,,,,,,,
,,605b838b80f022835fc293fb,2026-03-17_16h07.41.244,kallum_motion_pilot_GIST_update_2,2026.1.1,Win32,59.17159763,605b838b80f022835fc293fb,69b95efdef24cd8a694e89ee,69b9600c4bd956978d6e1b01,0.0317,0.0317,1,20,182,26,1,twoone,,,,,,,,,,,,,,,,,,,,,,,,,,,,,,,,,,,,,,,,,,,,,,,,,,,,,,,,,,,,,,,,,,,,,,,,,,,,,,,,,,,,,,,,,,,,,,,,,,,,,,,,,,,,,,,,,,,,,,,,,,,,,,,,,,,,,,,,,
,,605b838b80f022835fc293fb,2026-03-17_16h07.41.244,kallum_motion_pilot_GIST_update_2,2026.1.1,Win32,59.17159763,605b838b80f022835fc293fb,69b95efdef24cd8a694e89ee,69b9600c4bd956978d6e1b01,0.0318,0.0318,1,21,183,114,1,sixfive,,,,,,,,,,,,,,,,,,,,,,,,,,,,,,,,,,,,,,,,,,,,,,,,,,,,,,,,,,,,,,,,,,,,,,,,,,,,,,,,,,,,,,,,,,,,,,,,,,,,,,,,,,,,,,,,,,,,,,,,,,,,,,,,,,,,,,,,,
,,605b838b80f022835fc293fb,2026-03-17_16h07.41.244,kallum_motion_pilot_GIST_update_2,2026.1.1,Win32,59.17159763,605b838b80f022835fc293fb,69b95efdef24cd8a694e89ee,69b9600c4bd956978d6e1b01,0.0319,0.0319,1,22,184,86,1,eightsix,,,,,,,,,,,,,,,,,,,,,,,,,,,,,,,,,,,,,,,,,,,,,,,,,,,,,,,,,,,,,,,,,,,,,,,,,,,,,,,,,,,,,,,,,,,,,,,,,,,,,,,,,,,,,,,,,,,,,,,,,,,,,,,,,,,,,,,,,
,,605b838b80f022835fc293fb,2026-03-17_16h07.41.244,kallum_motion_pilot_GIST_update_2,2026.1.1,Win32,59.17159763,605b838b80f022835fc293fb,69b95efdef24cd8a694e89ee,69b9600c4bd956978d6e1b01,0.032,0.032,1,23,185,36,1,threeone,,,,,,,,,,,,,,,,,,,,,,,,,,,,,,,,,,,,,,,,,,,,,,,,,,,,,,,,,,,,,,,,,,,,,,,,,,,,,,,,,,,,,,,,,,,,,,,,,,,,,,,,,,,,,,,,,,,,,,,,,,,,,,,,,,,,,,,,,
,,605b838b80f022835fc293fb,2026-03-17_16h07.41.244,kallum_motion_pilot_GIST_update_2,2026.1.1,Win32,59.17159763,605b838b80f022835fc293fb,69b95efdef24cd8a694e89ee,69b9600c4bd956978d6e1b01,0.032,0.032,1,24,186,161,1,fiveseven,,,,,,,,,,,,,,,,,,,,,,,,,,,,,,,,,,,,,,,,,,,,,,,,,,,,,,,,,,,,,,,,,,,,,,,,,,,,,,,,,,,,,,,,,,,,,,,,,,,,,,,,,,,,,,,,,,,,,,,,,,,,,,,,,,,,,,,,,
,,605b838b80f022835fc293fb,2026-03-17_16h07.41.244,kallum_motion_pilot_GIST_update_2,2026.1.1,Win32,59.17159763,605b838b80f022835fc293fb,69b95efdef24cd8a694e89ee,69b9600c4bd956978d6e1b01,0.0322,0.0322,1,25,187,75,1,twofour,,,,,,,,,,,,,,,,,,,,,,,,,,,,,,,,,,,,,,,,,,,,,,,,,,,,,,,,,,,,,,,,,,,,,,,,,,,,,,,,,,,,,,,,,,,,,,,,,,,,,,,,,,,,,,,,,,,,,,,,,,,,,,,,,,,,,,,,,
,,605b838b80f022835fc293fb,2026-03-17_16h07.41.244,kallum_motion_pilot_GIST_update_2,2026.1.1,Win32,59.17159763,605b838b80f022835fc293fb,69b95efdef24cd8a694e89ee,69b9600c4bd956978d6e1b01,0.0324,0.0324,1,26,188,100,1,sevenfive,,,,,,,,,,,,,,,,,,,,,,,,,,,,,,,,,,,,,,,,,,,,,,,,,,,,,,,,,,,,,,,,,,,,,,,,,,,,,,,,,,,,,,,,,,,,,,,,,,,,,,,,,,,,,,,,,,,,,,,,,,,,,,,,,,,,,,,,,
,,605b838b80f022835fc293fb,2026-03-17_16h07.41.244,kallum_motion_pilot_GIST_update_2,2026.1.1,Win32,59.17159763,605b838b80f022835fc293fb,69b95efdef24cd8a694e89ee,69b9600c4bd956978d6e1b01,0.0326,0.0326,1,27,189,44,1,threeone,,,,,,,,,,,,,,,,,,,,,,,,,,,,,,,,,,,,,,,,,,,,,,,,,,,,,,,,,,,,,,,,,,,,,,,,,,,,,,,,,,,,,,,,,,,,,,,,,,,,,,,,,,,,,,,,,,,,,,,,,,,,,,,,,,,,,,,,,
,,605b838b80f022835fc293fb,2026-03-17_16h07.41.244,kallum_motion_pilot_GIST_update_2,2026.1.1,Win32,59.17159763,605b838b80f022835fc293fb,69b95efdef24cd8a694e89ee,69b9600c4bd956978d6e1b01,0.0327,0.0327,1,28,190,90,1,sixfive,,,,,,,,,,,,,,,,,,,,,,,,,,,,,,,,,,,,,,,,,,,,,,,,,,,,,,,,,,,,,,,,,,,,,,,,,,,,,,,,,,,,,,,,,,,,,,,,,,,,,,,,,,,,,,,,,,,,,,,,,,,,,,,,,,,,,,,,,
,,605b838b80f022835fc293fb,2026-03-17_16h07.41.244,kallum_motion_pilot_GIST_update_2,2026.1.1,Win32,59.17159763,605b838b80f022835fc293fb,69b95efdef24cd8a694e89ee,69b9600c4bd956978d6e1b01,0.0328,0.0328,1,29,191,153,1,fiveseven,,,,,,,,,,,,,,,,,,,,,,,,,,,,,,,,,,,,,,,,,,,,,,,,,,,,,,,,,,,,,,,,,,,,,,,,,,,,,,,,,,,,,,,,,,,,,,,,,,,,,,,,,,,,,,,,,,,,,,,,,,,,,,,,,,,,,,,,,
,,605b838b80f022835fc293fb,2026-03-17_16h07.41.244,kallum_motion_pilot_GIST_update_2,2026.1.1,Win32,59.17159763,605b838b80f022835fc293fb,69b95efdef24cd8a694e89ee,69b9600c4bd956978d6e1b01,0.0329,0.0329,1,30,192,78,1,fourtwo,,,,,,,,,,,,,,,,,,,,,,,,,,,,,,,,,,,,,,,,,,,,,,,,,,,,,,,,,,,,,,,,,,,,,,,,,,,,,,,,,,,,,,,,,,,,,,,,,,,,,,,,,,,,,,,,,,,,,,,,,,,,,,,,,,,,,,,,,
,,605b838b80f022835fc293fb,2026-03-17_16h07.41.244,kallum_motion_pilot_GIST_update_2,2026.1.1,Win32,59.17159763,605b838b80f022835fc293fb,69b95efdef24cd8a694e89ee,69b9600c4bd956978d6e1b01,0.0331,0.0331,1,31,193,113,1,fiveseven,,,,,,,,,,,,,,,,,,,,,,,,,,,,,,,,,,,,,,,,,,,,,,,,,,,,,,,,,,,,,,,,,,,,,,,,,,,,,,,,,,,,,,,,,,,,,,,,,,,,,,,,,,,,,,,,,,,,,,,,,,,,,,,,,,,,,,,,,
,,605b838b80f022835fc293fb,2026-03-17_16h07.41.244,kallum_motion_pilot_GIST_update_2,2026.1.1,Win32,59.17159763,605b838b80f022835fc293fb,69b95efdef24cd8a694e89ee,69b9600c4bd956978d6e1b01,0.0331,0.0331,1,32,194,8,1,onetwo,,,,,,,,,,,,,,,,,,,,,,,,,,,,,,,,,,,,,,,,,,,,,,,,,,,,,,,,,,,,,,,,,,,,,,,,,,,,,,,,,,,,,,,,,,,,,,,,,,,,,,,,,,,,,,,,,,,,,,,,,,,,,,,,,,,,,,,,,
,,605b838b80f022835fc293fb,2026-03-17_16h07.41.244,kallum_motion_pilot_GIST_update_2,2026.1.1,Win32,59.17159763,605b838b80f022835fc293fb,69b95efdef24cd8a694e89ee,69b9600c4bd956978d6e1b01,0.0334,0.0334,1,33,195,89,1,fiveseven,,,,,,,,,,,,,,,,,,,,,,,,,,,,,,,,,,,,,,,,,,,,,,,,,,,,,,,,,,,,,,,,,,,,,,,,,,,,,,,,,,,,,,,,,,,,,,,,,,,,,,,,,,,,,,,,,,,,,,,,,,,,,,,,,,,,,,,,,
,,605b838b80f022835fc293fb,2026-03-17_16h07.41.244,kallum_motion_pilot_GIST_update_2,2026.1.1,Win32,59.17159763,605b838b80f022835fc293fb,69b95efdef24cd8a694e89ee,69b9600c4bd956978d6e1b01,0.0335,0.0335,1,34,196,16,1,onetwo,,,,,,,,,,,,,,,,,,,,,,,,,,,,,,,,,,,,,,,,,,,,,,,,,,,,,,,,,,,,,,,,,,,,,,,,,,,,,,,,,,,,,,,,,,,,,,,,,,,,,,,,,,,,,,,,,,,,,,,,,,,,,,,,,,,,,,,,,
,,605b838b80f022835fc293fb,2026-03-17_16h07.41.244,kallum_motion_pilot_GIST_update_2,2026.1.1,Win32,59.17159763,605b838b80f022835fc293fb,69b95efdef24cd8a694e89ee,69b9600c4bd956978d6e1b01,0.0336,0.0336,1,35,197,33,1,onethree,,,,,,,,,,,,,,,,,,,,,,,,,,,,,,,,,,,,,,,,,,,,,,,,,,,,,,,,,,,,,,,,,,,,,,,,,,,,,,,,,,,,,,,,,,,,,,,,,,,,,,,,,,,,,,,,,,,,,,,,,,,,,,,,,,,,,,,,,
,,605b838b80f022835fc293fb,2026-03-17_16h07.41.244,kallum_motion_pilot_GIST_update_2,2026.1.1,Win32,59.17159763,605b838b80f022835fc293fb,69b95efdef24cd8a694e89ee,69b9600c4bd956978d6e1b01,0.0337,0.0337,1,36,198,47,1,fourthree,,,,,,,,,,,,,,,,,,,,,,,,,,,,,,,,,,,,,,,,,,,,,,,,,,,,,,,,,,,,,,,,,,,,,,,,,,,,,,,,,,,,,,,,,,,,,,,,,,,,,,,,,,,,,,,,,,,,,,,,,,,,,,,,,,,,,,,,,
,,605b838b80f022835fc293fb,2026-03-17_16h07.41.244,kallum_motion_pilot_GIST_update_2,2026.1.1,Win32,59.17159763,605b838b80f022835fc293fb,69b95efdef24cd8a694e89ee,69b9600c4bd956978d6e1b01,0.0338,0.0338,1,37,199,69,1,threefour,,,,,,,,,,,,,,,,,,,,,,,,,,,,,,,,,,,,,,,,,,,,,,,,,,,,,,,,,,,,,,,,,,,,,,,,,,,,,,,,,,,,,,,,,,,,,,,,,,,,,,,,,,,,,,,,,,,,,,,,,,,,,,,,,,,,,,,,,
,,605b838b80f022835fc293fb,2026-03-17_16h07.41.244,kallum_motion_pilot_GIST_update_2,2026.1.1,Win32,59.17159763,605b838b80f022835fc293fb,69b95efdef24cd8a694e89ee,69b9600c4bd956978d6e1b01,0.0339,0.0339,1,38,200,136,1,fivesix,,,,,,,,,,,,,,,,,,,,,,,,,,,,,,,,,,,,,,,,,,,,,,,,,,,,,,,,,,,,,,,,,,,,,,,,,,,,,,,,,,,,,,,,,,,,,,,,,,,,,,,,,,,,,,,,,,,,,,,,,,,,,,,,,,,,,,,,,
,,605b838b80f022835fc293fb,2026-03-17_16h07.41.244,kallum_motion_pilot_GIST_update_2,2026.1.1,Win32,59.17159763,605b838b80f022835fc293fb,69b95efdef24cd8a694e89ee,69b9600c4bd956978d6e1b01,0.0339,0.034,1,39,201,42,1,twoone,,,,,,,,,,,,,,,,,,,,,,,,,,,,,,,,,,,,,,,,,,,,,,,,,,,,,,,,,,,,,,,,,,,,,,,,,,,,,,,,,,,,,,,,,,,,,,,,,,,,,,,,,,,,,,,,,,,,,,,,,,,,,,,,,,,,,,,,,
,,605b838b80f022835fc293fb,2026-03-17_16h07.41.244,kallum_motion_pilot_GIST_update_2,2026.1.1,Win32,59.17159763,605b838b80f022835fc293fb,69b95efdef24cd8a694e89ee,69b9600c4bd956978d6e1b01,0.034,0.034,1,40,202,60,1,threeone,,,,,,,,,,,,,,,,,,,,,,,,,,,,,,,,,,,,,,,,,,,,,,,,,,,,,,,,,,,,,,,,,,,,,,,,,,,,,,,,,,,,,,,,,,,,,,,,,,,,,,,,,,,,,,,,,,,,,,,,,,,,,,,,,,,,,,,,,
,,605b838b80f022835fc293fb,2026-03-17_16h07.41.244,kallum_motion_pilot_GIST_update_2,2026.1.1,Win32,59.17159763,605b838b80f022835fc293fb,69b95efdef24cd8a694e89ee,69b9600c4bd956978d6e1b01,0.0341,0.0341,1,41,203,138,1,sixfive,,,,,,,,,,,,,,,,,,,,,,,,,,,,,,,,,,,,,,,,,,,,,,,,,,,,,,,,,,,,,,,,,,,,,,,,,,,,,,,,,,,,,,,,,,,,,,,,,,,,,,,,,,,,,,,,,,,,,,,,,,,,,,,,,,,,,,,,,
,,605b838b80f022835fc293fb,2026-03-17_16h07.41.244,kallum_motion_pilot_GIST_update_2,2026.1.1,Win32,59.17159763,605b838b80f022835fc293fb,69b95efdef24cd8a694e89ee,69b9600c4bd956978d6e1b01,0.0342,0.0342,1,42,204,11,1,twofour,,,,,,,,,,,,,,,,,,,,,,,,,,,,,,,,,,,,,,,,,,,,,,,,,,,,,,,,,,,,,,,,,,,,,,,,,,,,,,,,,,,,,,,,,,,,,,,,,,,,,,,,,,,,,,,,,,,,,,,,,,,,,,,,,,,,,,,,,
,,605b838b80f022835fc293fb,2026-03-17_16h07.41.244,kallum_motion_pilot_GIST_update_2,2026.1.1,Win32,59.17159763,605b838b80f022835fc293fb,69b95efdef24cd8a694e89ee,69b9600c4bd956978d6e1b01,0.0343,0.0343,1,43,205,119,1,eightseven,,,,,,,,,,,,,,,,,,,,,,,,,,,,,,,,,,,,,,,,,,,,,,,,,,,,,,,,,,,,,,,,,,,,,,,,,,,,,,,,,,,,,,,,,,,,,,,,,,,,,,,,,,,,,,,,,,,,,,,,,,,,,,,,,,,,,,,,,
,,605b838b80f022835fc293fb,2026-03-17_16h07.41.244,kallum_motion_pilot_GIST_update_2,2026.1.1,Win32,59.17159763,605b838b80f022835fc293fb,69b95efdef24cd8a694e89ee,69b9600c4bd956978d6e1b01,0.0344,0.0344,1,44,206,2,1,twoone,,,,,,,,,,,,,,,,,,,,,,,,,,,,,,,,,,,,,,,,,,,,,,,,,,,,,,,,,,,,,,,,,,,,,,,,,,,,,,,,,,,,,,,,,,,,,,,,,,,,,,,,,,,,,,,,,,,,,,,,,,,,,,,,,,,,,,,,,
,,605b838b80f022835fc293fb,2026-03-17_16h07.41.244,kallum_motion_pilot_GIST_update_2,2026.1.1,Win32,59.17159763,605b838b80f022835fc293fb,69b95efdef24cd8a694e89ee,69b9600c4bd956978d6e1b01,0.0345,0.0345,1,45,207,145,1,fiveseven,,,,,,,,,,,,,,,,,,,,,,,,,,,,,,,,,,,,,,,,,,,,,,,,,,,,,,,,,,,,,,,,,,,,,,,,,,,,,,,,,,,,,,,,,,,,,,,,,,,,,,,,,,,,,,,,,,,,,,,,,,,,,,,,,,,,,,,,,
,,605b838b80f022835fc293fb,2026-03-17_16h07.41.244,kallum_motion_pilot_GIST_update_2,2026.1.1,Win32,59.17159763,605b838b80f022835fc293fb,69b95efdef24cd8a694e89ee,69b9600c4bd956978d6e1b01,0.0346,0.0346,1,46,208,137,1,fiveseven,,,,,,,,,,,,,,,,,,,,,,,,,,,,,,,,,,,,,,,,,,,,,,,,,,,,,,,,,,,,,,,,,,,,,,,,,,,,,,,,,,,,,,,,,,,,,,,,,,,,,,,,,,,,,,,,,,,,,,,,,,,,,,,,,,,,,,,,,
,,605b838b80f022835fc293fb,2026-03-17_16h07.41.244,kallum_motion_pilot_GIST_update_2,2026.1.1,Win32,59.17159763,605b838b80f022835fc293fb,69b95efdef24cd8a694e89ee,69b9600c4bd956978d6e1b01,0.0347,0.0347,1,47,209,56,1,onetwo,,,,,,,,,,,,,,,,,,,,,,,,,,,,,,,,,,,,,,,,,,,,,,,,,,,,,,,,,,,,,,,,,,,,,,,,,,,,,,,,,,,,,,,,,,,,,,,,,,,,,,,,,,,,,,,,,,,,,,,,,,,,,,,,,,,,,,,,,
,,605b838b80f022835fc293fb,2026-03-17_16h07.41.244,kallum_motion_pilot_GIST_update_2,2026.1.1,Win32,59.17159763,605b838b80f022835fc293fb,69b95efdef24cd8a694e89ee,69b9600c4bd956978d6e1b01,0.0347,0.0347,1,48,210,3,1,twofour,,,,,,,,,,,,,,,,,,,,,,,,,,,,,,,,,,,,,,,,,,,,,,,,,,,,,,,,,,,,,,,,,,,,,,,,,,,,,,,,,,,,,,,,,,,,,,,,,,,,,,,,,,,,,,,,,,,,,,,,,,,,,,,,,,,,,,,,,
,,605b838b80f022835fc293fb,2026-03-17_16h07.41.244,kallum_motion_pilot_GIST_update_2,2026.1.1,Win32,59.17159763,605b838b80f022835fc293fb,69b95efdef24cd8a694e89ee,69b9600c4bd956978d6e1b01,0.0348,0.0348,1,49,211,133,1,seveneight,,,,,,,,,,,,,,,,,,,,,,,,,,,,,,,,,,,,,,,,,,,,,,,,,,,,,,,,,,,,,,,,,,,,,,,,,,,,,,,,,,,,,,,,,,,,,,,,,,,,,,,,,,,,,,,,,,,,,,,,,,,,,,,,,,,,,,,,,
,,605b838b80f022835fc293fb,2026-03-17_16h07.41.244,kallum_motion_pilot_GIST_update_2,2026.1.1,Win32,59.17159763,605b838b80f022835fc293fb,69b95efdef24cd8a694e89ee,69b9600c4bd956978d6e1b01,0.035,0.035,1,50,212,150,1,eightsix,,,,,,,,,,,,,,,,,,,,,,,,,,,,,,,,,,,,,,,,,,,,,,,,,,,,,,,,,,,,,,,,,,,,,,,,,,,,,,,,,,,,,,,,,,,,,,,,,,,,,,,,,,,,,,,,,,,,,,,,,,,,,,,,,,,,,,,,,
,,605b838b80f022835fc293fb,2026-03-17_16h07.41.244,kallum_motion_pilot_GIST_update_2,2026.1.1,Win32,59.17159763,605b838b80f022835fc293fb,69b95efdef24cd8a694e89ee,69b9600c4bd956978d6e1b01,0.0351,0.0351,1,51,213,91,1,sixeight,,,,,,,,,,,,,,,,,,,,,,,,,,,,,,,,,,,,,,,,,,,,,,,,,,,,,,,,,,,,,,,,,,,,,,,,,,,,,,,,,,,,,,,,,,,,,,,,,,,,,,,,,,,,,,,,,,,,,,,,,,,,,,,,,,,,,,,,,
,,605b838b80f022835fc293fb,2026-03-17_16h07.41.244,kallum_motion_pilot_GIST_update_2,2026.1.1,Win32,59.17159763,605b838b80f022835fc293fb,69b95efdef24cd8a694e89ee,69b9600c4bd956978d6e1b01,0.0351,0.0351,1,52,214,157,1,seveneight,,,,,,,,,,,,,,,,,,,,,,,,,,,,,,,,,,,,,,,,,,,,,,,,,,,,,,,,,,,,,,,,,,,,,,,,,,,,,,,,,,,,,,,,,,,,,,,,,,,,,,,,,,,,,,,,,,,,,,,,,,,,,,,,,,,,,,,,,
,,605b838b80f022835fc293fb,2026-03-17_16h07.41.244,kallum_motion_pilot_GIST_update_2,2026.1.1,Win32,59.17159763,605b838b80f022835fc293fb,69b95efdef24cd8a694e89ee,69b9600c4bd956978d6e1b01,0.0352,0.0352,1,53,215,23,1,fourthree,,,,,,,,,,,,,,,,,,,,,,,,,,,,,,,,,,,,,,,,,,,,,,,,,,,,,,,,,,,,,,,,,,,,,,,,,,,,,,,,,,,,,,,,,,,,,,,,,,,,,,,,,,,,,,,,,,,,,,,,,,,,,,,,,,,,,,,,,
,,605b838b80f022835fc293fb,2026-03-17_16h07.41.244,kallum_motion_pilot_GIST_update_2,2026.1.1,Win32,59.17159763,605b838b80f022835fc293fb,69b95efdef24cd8a694e89ee,69b9600c4bd956978d6e1b01,0.0354,0.0354,1,54,216,118,1,eightsix,,,,,,,,,,,,,,,,,,,,,,,,,,,,,,,,,,,,,,,,,,,,,,,,,,,,,,,,,,,,,,,,,,,,,,,,,,,,,,,,,,,,,,,,,,,,,,,,,,,,,,,,,,,,,,,,,,,,,,,,,,,,,,,,,,,,,,,,,
,,605b838b80f022835fc293fb,2026-03-17_16h07.41.244,kallum_motion_pilot_GIST_update_2,2026.1.1,Win32,59.17159763,605b838b80f022835fc293fb,69b95efdef24cd8a694e89ee,69b9600c4bd956978d6e1b01,0.0355,0.0355,1,55,217,131,1,sixeight,,,,,,,,,,,,,,,,,,,,,,,,,,,,,,,,,,,,,,,,,,,,,,,,,,,,,,,,,,,,,,,,,,,,,,,,,,,,,,,,,,,,,,,,,,,,,,,,,,,,,,,,,,,,,,,,,,,,,,,,,,,,,,,,,,,,,,,,,
,,605b838b80f022835fc293fb,2026-03-17_16h07.41.244,kallum_motion_pilot_GIST_update_2,2026.1.1,Win32,59.17159763,605b838b80f022835fc293fb,69b95efdef24cd8a694e89ee,69b9600c4bd956978d6e1b01,0.0355,0.0356,1,56,218,152,1,fivesix,,,,,,,,,,,,,,,,,,,,,,,,,,,,,,,,,,,,,,,,,,,,,,,,,,,,,,,,,,,,,,,,,,,,,,,,,,,,,,,,,,,,,,,,,,,,,,,,,,,,,,,,,,,,,,,,,,,,,,,,,,,,,,,,,,,,,,,,,
,,605b838b80f022835fc293fb,2026-03-17_16h07.41.244,kallum_motion_pilot_GIST_update_2,2026.1.1,Win32,59.17159763,605b838b80f022835fc293fb,69b95efdef24cd8a694e89ee,69b9600c4bd956978d6e1b01,0.0356,0.0356,1,57,219,149,1,seveneight,,,,,,,,,,,,,,,,,,,,,,,,,,,,,,,,,,,,,,,,,,,,,,,,,,,,,,,,,,,,,,,,,,,,,,,,,,,,,,,,,,,,,,,,,,,,,,,,,,,,,,,,,,,,,,,,,,,,,,,,,,,,,,,,,,,,,,,,,
,,605b838b80f022835fc293fb,2026-03-17_16h07.41.244,kallum_motion_pilot_GIST_update_2,2026.1.1,Win32,59.17159763,605b838b80f022835fc293fb,69b95efdef24cd8a694e89ee,69b9600c4bd956978d6e1b01,0.0358,0.0358,1,58,220,110,1,eightsix,,,,,,,,,,,,,,,,,,,,,,,,,,,,,,,,,,,,,,,,,,,,,,,,,,,,,,,,,,,,,,,,,,,,,,,,,,,,,,,,,,,,,,,,,,,,,,,,,,,,,,,,,,,,,,,,,,,,,,,,,,,,,,,,,,,,,,,,,
,,605b838b80f022835fc293fb,2026-03-17_16h07.41.244,kallum_motion_pilot_GIST_update_2,2026.1.1,Win32,59.17159763,605b838b80f022835fc293fb,69b95efdef24cd8a694e89ee,69b9600c4bd956978d6e1b01,0.0358,0.0359,1,59,221,140,1,sevenfive,,,,,,,,,,,,,,,,,,,,,,,,,,,,,,,,,,,,,,,,,,,,,,,,,,,,,,,,,,,,,,,,,,,,,,,,,,,,,,,,,,,,,,,,,,,,,,,,,,,,,,,,,,,,,,,,,,,,,,,,,,,,,,,,,,,,,,,,,
,,605b838b80f022835fc293fb,2026-03-17_16h07.41.244,kallum_motion_pilot_GIST_update_2,2026.1.1,Win32,59.17159763,605b838b80f022835fc293fb,69b95efdef24cd8a694e89ee,69b9600c4bd956978d6e1b01,0.036,0.036,1,60,222,63,1,fourthree,,,,,,,,,,,,,,,,,,,,,,,,,,,,,,,,,,,,,,,,,,,,,,,,,,,,,,,,,,,,,,,,,,,,,,,,,,,,,,,,,,,,,,,,,,,,,,,,,,,,,,,,,,,,,,,,,,,,,,,,,,,,,,,,,,,,,,,,,
,,605b838b80f022835fc293fb,2026-03-17_16h07.41.244,kallum_motion_pilot_GIST_update_2,2026.1.1,Win32,59.17159763,605b838b80f022835fc293fb,69b95efdef24cd8a694e89ee,69b9600c4bd956978d6e1b01,0.036,0.036,1,61,223,109,1,seveneight,,,,,,,,,,,,,,,,,,,,,,,,,,,,,,,,,,,,,,,,,,,,,,,,,,,,,,,,,,,,,,,,,,,,,,,,,,,,,,,,,,,,,,,,,,,,,,,,,,,,,,,,,,,,,,,,,,,,,,,,,,,,,,,,,,,,,,,,,
,,605b838b80f022835fc293fb,2026-03-17_16h07.41.244,kallum_motion_pilot_GIST_update_2,2026.1.1,Win32,59.17159763,605b838b80f022835fc293fb,69b95efdef24cd8a694e89ee,69b9600c4bd956978d6e1b01,0.0361,0.0361,1,62,224,128,1,fivesix,,,,,,,,,,,,,,,,,,,,,,,,,,,,,,,,,,,,,,,,,,,,,,,,,,,,,,,,,,,,,,,,,,,,,,,,,,,,,,,,,,,,,,,,,,,,,,,,,,,,,,,,,,,,,,,,,,,,,,,,,,,,,,,,,,,,,,,,,
,,605b838b80f022835fc293fb,2026-03-17_16h07.41.244,kallum_motion_pilot_GIST_update_2,2026.1.1,Win32,59.17159763,605b838b80f022835fc293fb,69b95efdef24cd8a694e89ee,69b9600c4bd956978d6e1b01,0.0362,0.0362,1,63,225,52,1,threeone,,,,,,,,,,,,,,,,,,,,,,,,,,,,,,,,,,,,,,,,,,,,,,,,,,,,,,,,,,,,,,,,,,,,,,,,,,,,,,,,,,,,,,,,,,,,,,,,,,,,,,,,,,,,,,,,,,,,,,,,,,,,,,,,,,,,,,,,,
,,605b838b80f022835fc293fb,2026-03-17_16h07.41.244,kallum_motion_pilot_GIST_update_2,2026.1.1,Win32,59.17159763,605b838b80f022835fc293fb,69b95efdef24cd8a694e89ee,69b9600c4bd956978d6e1b01,0.0363,0.0363,1,64,226,45,1,threefour,,,,,,,,,,,,,,,,,,,,,,,,,,,,,,,,,,,,,,,,,,,,,,,,,,,,,,,,,,,,,,,,,,,,,,,,,,,,,,,,,,,,,,,,,,,,,,,,,,,,,,,,,,,,,,,,,,,,,,,,,,,,,,,,,,,,,,,,,
,,605b838b80f022835fc293fb,2026-03-17_16h07.41.244,kallum_motion_pilot_GIST_update_2,2026.1.1,Win32,59.17159763,605b838b80f022835fc293fb,69b95efdef24cd8a694e89ee,69b9600c4bd956978d6e1b01,0.0364,0.0364,1,65,227,51,1,twofour,,,,,,,,,,,,,,,,,,,,,,,,,,,,,,,,,,,,,,,,,,,,,,,,,,,,,,,,,,,,,,,,,,,,,,,,,,,,,,,,,,,,,,,,,,,,,,,,,,,,,,,,,,,,,,,,,,,,,,,,,,,,,,,,,,,,,,,,,
,,605b838b80f022835fc293fb,2026-03-17_16h07.41.244,kallum_motion_pilot_GIST_update_2,2026.1.1,Win32,59.17159763,605b838b80f022835fc293fb,69b95efdef24cd8a694e89ee,69b9600c4bd956978d6e1b01,0.0365,0.0365,1,66,228,159,1,eightseven,,,,,,,,,,,,,,,,,,,,,,,,,,,,,,,,,,,,,,,,,,,,,,,,,,,,,,,,,,,,,,,,,,,,,,,,,,,,,,,,,,,,,,,,,,,,,,,,,,,,,,,,,,,,,,,,,,,,,,,,,,,,,,,,,,,,,,,,,
,,605b838b80f022835fc293fb,2026-03-17_16h07.41.244,kallum_motion_pilot_GIST_update_2,2026.1.1,Win32,59.17159763,605b838b80f022835fc293fb,69b95efdef24cd8a694e89ee,69b9600c4bd956978d6e1b01,0.0367,0.0367,1,67,229,144,1,fivesix,,,,,,,,,,,,,,,,,,,,,,,,,,,,,,,,,,,,,,,,,,,,,,,,,,,,,,,,,,,,,,,,,,,,,,,,,,,,,,,,,,,,,,,,,,,,,,,,,,,,,,,,,,,,,,,,,,,,,,,,,,,,,,,,,,,,,,,,,
,,605b838b80f022835fc293fb,2026-03-17_16h07.41.244,kallum_motion_pilot_GIST_update_2,2026.1.1,Win32,59.17159763,605b838b80f022835fc293fb,69b95efdef24cd8a694e89ee,69b9600c4bd956978d6e1b01,0.0368,0.0368,1,68,230,126,1,eightsix,,,,,,,,,,,,,,,,,,,,,,,,,,,,,,,,,,,,,,,,,,,,,,,,,,,,,,,,,,,,,,,,,,,,,,,,,,,,,,,,,,,,,,,,,,,,,,,,,,,,,,,,,,,,,,,,,,,,,,,,,,,,,,,,,,,,,,,,,
,,605b838b80f022835fc293fb,2026-03-17_16h07.41.244,kallum_motion_pilot_GIST_update_2,2026.1.1,Win32,59.17159763,605b838b80f022835fc293fb,69b95efdef24cd8a694e89ee,69b9600c4bd956978d6e1b01,0.0369,0.0369,1,69,231,31,1,fourthree,,,,,,,,,,,,,,,,,,,,,,,,,,,,,,,,,,,,,,,,,,,,,,,,,,,,,,,,,,,,,,,,,,,,,,,,,,,,,,,,,,,,,,,,,,,,,,,,,,,,,,,,,,,,,,,,,,,,,,,,,,,,,,,,,,,,,,,,,
,,605b838b80f022835fc293fb,2026-03-17_16h07.41.244,kallum_motion_pilot_GIST_update_2,2026.1.1,Win32,59.17159763,605b838b80f022835fc293fb,69b95efdef24cd8a694e89ee,69b9600c4bd956978d6e1b01,0.0369,0.0369,1,70,232,67,1,twofour,,,,,,,,,,,,,,,,,,,,,,,,,,,,,,,,,,,,,,,,,,,,,,,,,,,,,,,,,,,,,,,,,,,,,,,,,,,,,,,,,,,,,,,,,,,,,,,,,,,,,,,,,,,,,,,,,,,,,,,,,,,,,,,,,,,,,,,,,
,,605b838b80f022835fc293fb,2026-03-17_16h07.41.244,kallum_motion_pilot_GIST_update_2,2026.1.1,Win32,59.17159763,605b838b80f022835fc293fb,69b95efdef24cd8a694e89ee,69b9600c4bd956978d6e1b01,0.037,0.037,1,71,233,127,1,eightseven,,,,,,,,,,,,,,,,,,,,,,,,,,,,,,,,,,,,,,,,,,,,,,,,,,,,,,,,,,,,,,,,,,,,,,,,,,,,,,,,,,,,,,,,,,,,,,,,,,,,,,,,,,,,,,,,,,,,,,,,,,,,,,,,,,,,,,,,,
,,605b838b80f022835fc293fb,2026-03-17_16h07.41.244,kallum_motion_pilot_GIST_update_2,2026.1.1,Win32,59.17159763,605b838b80f022835fc293fb,69b95efdef24cd8a694e89ee,69b9600c4bd956978d6e1b01,0.0371,0.0371,1,72,234,4,1,threeone,,,,,,,,,,,,,,,,,,,,,,,,,,,,,,,,,,,,,,,,,,,,,,,,,,,,,,,,,,,,,,,,,,,,,,,,,,,,,,,,,,,,,,,,,,,,,,,,,,,,,,,,,,,,,,,,,,,,,,,,,,,,,,,,,,,,,,,,,
,,605b838b80f022835fc293fb,2026-03-17_16h07.41.244,kallum_motion_pilot_GIST_update_2,2026.1.1,Win32,59.17159763,605b838b80f022835fc293fb,69b95efdef24cd8a694e89ee,69b9600c4bd956978d6e1b01,0.0372,0.0372,1,73,235,40,1,onetwo,,,,,,,,,,,,,,,,,,,,,,,,,,,,,,,,,,,,,,,,,,,,,,,,,,,,,,,,,,,,,,,,,,,,,,,,,,,,,,,,,,,,,,,,,,,,,,,,,,,,,,,,,,,,,,,,,,,,,,,,,,,,,,,,,,,,,,,,,
,,605b838b80f022835fc293fb,2026-03-17_16h07.41.244,kallum_motion_pilot_GIST_update_2,2026.1.1,Win32,59.17159763,605b838b80f022835fc293fb,69b95efdef24cd8a694e89ee,69b9600c4bd956978d6e1b01,0.0373,0.0373,1,74,236,123,1,sixeight,,,,,,,,,,,,,,,,,,,,,,,,,,,,,,,,,,,,,,,,,,,,,,,,,,,,,,,,,,,,,,,,,,,,,,,,,,,,,,,,,,,,,,,,,,,,,,,,,,,,,,,,,,,,,,,,,,,,,,,,,,,,,,,,,,,,,,,,,
,,605b838b80f022835fc293fb,2026-03-17_16h07.41.244,kallum_motion_pilot_GIST_update_2,2026.1.1,Win32,59.17159763,605b838b80f022835fc293fb,69b95efdef24cd8a694e89ee,69b9600c4bd956978d6e1b01,0.0374,0.0374,1,75,237,50,1,twoone,,,,,,,,,,,,,,,,,,,,,,,,,,,,,,,,,,,,,,,,,,,,,,,,,,,,,,,,,,,,,,,,,,,,,,,,,,,,,,,,,,,,,,,,,,,,,,,,,,,,,,,,,,,,,,,,,,,,,,,,,,,,,,,,,,,,,,,,,
,,605b838b80f022835fc293fb,2026-03-17_16h07.41.244,kallum_motion_pilot_GIST_update_2,2026.1.1,Win32,59.17159763,605b838b80f022835fc293fb,69b95efdef24cd8a694e89ee,69b9600c4bd956978d6e1b01,0.0375,0.0375,1,76,238,0,1,onetwo,,,,,,,,,,,,,,,,,,,,,,,,,,,,,,,,,,,,,,,,,,,,,,,,,,,,,,,,,,,,,,,,,,,,,,,,,,,,,,,,,,,,,,,,,,,,,,,,,,,,,,,,,,,,,,,,,,,,,,,,,,,,,,,,,,,,,,,,,
,,605b838b80f022835fc293fb,2026-03-17_16h07.41.244,kallum_motion_pilot_GIST_update_2,2026.1.1,Win32,59.17159763,605b838b80f022835fc293fb,69b95efdef24cd8a694e89ee,69b9600c4bd956978d6e1b01,0.0376,0.0376,1,77,239,62,1,fourtwo,,,,,,,,,,,,,,,,,,,,,,,,,,,,,,,,,,,,,,,,,,,,,,,,,,,,,,,,,,,,,,,,,,,,,,,,,,,,,,,,,,,,,,,,,,,,,,,,,,,,,,,,,,,,,,,,,,,,,,,,,,,,,,,,,,,,,,,,,
,,605b838b80f022835fc293fb,2026-03-17_16h07.41.244,kallum_motion_pilot_GIST_update_2,2026.1.1,Win32,59.17159763,605b838b80f022835fc293fb,69b95efdef24cd8a694e89ee,69b9600c4bd956978d6e1b01,0.0377,0.0377,1,78,240,81,1,fiveseven,,,,,,,,,,,,,,,,,,,,,,,,,,,,,,,,,,,,,,,,,,,,,,,,,,,,,,,,,,,,,,,,,,,,,,,,,,,,,,,,,,,,,,,,,,,,,,,,,,,,,,,,,,,,,,,,,,,,,,,,,,,,,,,,,,,,,,,,,
,,605b838b80f022835fc293fb,2026-03-17_16h07.41.244,kallum_motion_pilot_GIST_update_2,2026.1.1,Win32,59.17159763,605b838b80f022835fc293fb,69b95efdef24cd8a694e89ee,69b9600c4bd956978d6e1b01,0.0379,0.0379,1,79,241,38,1,fourtwo,,,,,,,,,,,,,,,,,,,,,,,,,,,,,,,,,,,,,,,,,,,,,,,,,,,,,,,,,,,,,,,,,,,,,,,,,,,,,,,,,,,,,,,,,,,,,,,,,,,,,,,,,,,,,,,,,,,,,,,,,,,,,,,,,,,,,,,,,
,,605b838b80f022835fc293fb,2026-03-17_16h07.41.244,kallum_motion_pilot_GIST_update_2,2026.1.1,Win32,59.17159763,605b838b80f022835fc293fb,69b95efdef24cd8a694e89ee,69b9600c4bd956978d6e1b01,0.0379,0.0379,1,80,242,142,1,eightsix,,,,,,,,,,,,,,,,,,,,,,,,,,,,,,,,,,,,,,,,,,,,,,,,,,,,,,,,,,,,,,,,,,,,,,,,,,,,,,,,,,,,,,,,,,,,,,,,,,,,,,,,,,,,,,,,,,,,,,,,,,,,,,,,,,,,,,,,,
,,605b838b80f022835fc293fb,2026-03-17_16h07.41.244,kallum_motion_pilot_GIST_update_2,2026.1.1,Win32,59.17159763,605b838b80f022835fc293fb,69b95efdef24cd8a694e89ee,69b9600c4bd956978d6e1b01,0.038,0.038,1,81,243,103,1,eightseven,,,,,,,,,,,,,,,,,,,,,,,,,,,,,,,,,,,,,,,,,,,,,,,,,,,,,,,,,,,,,,,,,,,,,,,,,,,,,,,,,,,,,,,,,,,,,,,,,,,,,,,,,,,,,,,,,,,,,,,,,,,,,,,,,,,,,,,,,
,,605b838b80f022835fc293fb,2026-03-17_16h07.41.244,kallum_motion_pilot_GIST_update_2,2026.1.1,Win32,59.17159763,605b838b80f022835fc293fb,69b95efdef24cd8a694e89ee,69b9600c4bd956978d6e1b01,0.0381,0.0381,1,82,244,117,1,seveneight,,,,,,,,,,,,,,,,,,,,,,,,,,,,,,,,,,,,,,,,,,,,,,,,,,,,,,,,,,,,,,,,,,,,,,,,,,,,,,,,,,,,,,,,,,,,,,,,,,,,,,,,,,,,,,,,,,,,,,,,,,,,,,,,,,,,,,,,,
,,605b838b80f022835fc293fb,2026-03-17_16h07.41.244,kallum_motion_pilot_GIST_update_2,2026.1.1,Win32,59.17159763,605b838b80f022835fc293fb,69b95efdef24cd8a694e89ee,69b9600c4bd956978d6e1b01,0.0382,0.0382,1,83,245,102,1,eightsix,,,,,,,,,,,,,,,,,,,,,,,,,,,,,,,,,,,,,,,,,,,,,,,,,,,,,,,,,,,,,,,,,,,,,,,,,,,,,,,,,,,,,,,,,,,,,,,,,,,,,,,,,,,,,,,,,,,,,,,,,,,,,,,,,,,,,,,,,
,,605b838b80f022835fc293fb,2026-03-17_16h07.41.244,kallum_motion_pilot_GIST_update_2,2026.1.1,Win32,59.17159763,605b838b80f022835fc293fb,69b95efdef24cd8a694e89ee,69b9600c4bd956978d6e1b01,0.0383,0.0383,1,84,246,121,1,fiveseven,,,,,,,,,,,,,,,,,,,,,,,,,,,,,,,,,,,,,,,,,,,,,,,,,,,,,,,,,,,,,,,,,,,,,,,,,,,,,,,,,,,,,,,,,,,,,,,,,,,,,,,,,,,,,,,,,,,,,,,,,,,,,,,,,,,,,,,,,
,,605b838b80f022835fc293fb,2026-03-17_16h07.41.244,kallum_motion_pilot_GIST_update_2,2026.1.1,Win32,59.17159763,605b838b80f022835fc293fb,69b95efdef24cd8a694e89ee,69b9600c4bd956978d6e1b01,0.0384,0.0384,1,85,247,65,1,onethree,,,,,,,,,,,,,,,,,,,,,,,,,,,,,,,,,,,,,,,,,,,,,,,,,,,,,,,,,,,,,,,,,,,,,,,,,,,,,,,,,,,,,,,,,,,,,,,,,,,,,,,,,,,,,,,,,,,,,,,,,,,,,,,,,,,,,,,,,
,,605b838b80f022835fc293fb,2026-03-17_16h07.41.244,kallum_motion_pilot_GIST_update_2,2026.1.1,Win32,59.17159763,605b838b80f022835fc293fb,69b95efdef24cd8a694e89ee,69b9600c4bd956978d6e1b01,0.0385,0.0385,1,86,248,112,1,fivesix,,,,,,,,,,,,,,,,,,,,,,,,,,,,,,,,,,,,,,,,,,,,,,,,,,,,,,,,,,,,,,,,,,,,,,,,,,,,,,,,,,,,,,,,,,,,,,,,,,,,,,,,,,,,,,,,,,,,,,,,,,,,,,,,,,,,,,,,,
,,605b838b80f022835fc293fb,2026-03-17_16h07.41.244,kallum_motion_pilot_GIST_update_2,2026.1.1,Win32,59.17159763,605b838b80f022835fc293fb,69b95efdef24cd8a694e89ee,69b9600c4bd956978d6e1b01,0.0386,0.0386,1,87,249,134,1,eightsix,,,,,,,,,,,,,,,,,,,,,,,,,,,,,,,,,,,,,,,,,,,,,,,,,,,,,,,,,,,,,,,,,,,,,,,,,,,,,,,,,,,,,,,,,,,,,,,,,,,,,,,,,,,,,,,,,,,,,,,,,,,,,,,,,,,,,,,,,
,,605b838b80f022835fc293fb,2026-03-17_16h07.41.244,kallum_motion_pilot_GIST_update_2,2026.1.1,Win32,59.17159763,605b838b80f022835fc293fb,69b95efdef24cd8a694e89ee,69b9600c4bd956978d6e1b01,0.0387,0.0387,1,88,250,24,1,onetwo,,,,,,,,,,,,,,,,,,,,,,,,,,,,,,,,,,,,,,,,,,,,,,,,,,,,,,,,,,,,,,,,,,,,,,,,,,,,,,,,,,,,,,,,,,,,,,,,,,,,,,,,,,,,,,,,,,,,,,,,,,,,,,,,,,,,,,,,,
,,605b838b80f022835fc293fb,2026-03-17_16h07.41.244,kallum_motion_pilot_GIST_update_2,2026.1.1,Win32,59.17159763,605b838b80f022835fc293fb,69b95efdef24cd8a694e89ee,69b9600c4bd956978d6e1b01,0.0387,0.0387,1,89,251,80,1,fivesix,,,,,,,,,,,,,,,,,,,,,,,,,,,,,,,,,,,,,,,,,,,,,,,,,,,,,,,,,,,,,,,,,,,,,,,,,,,,,,,,,,,,,,,,,,,,,,,,,,,,,,,,,,,,,,,,,,,,,,,,,,,,,,,,,,,,,,,,,
,,605b838b80f022835fc293fb,2026-03-17_16h07.41.244,kallum_motion_pilot_GIST_update_2,2026.1.1,Win32,59.17159763,605b838b80f022835fc293fb,69b95efdef24cd8a694e89ee,69b9600c4bd956978d6e1b01,0.0389,0.0389,1,90,252,28,1,threeone,,,,,,,,,,,,,,,,,,,,,,,,,,,,,,,,,,,,,,,,,,,,,,,,,,,,,,,,,,,,,,,,,,,,,,,,,,,,,,,,,,,,,,,,,,,,,,,,,,,,,,,,,,,,,,,,,,,,,,,,,,,,,,,,,,,,,,,,,
,,605b838b80f022835fc293fb,2026-03-17_16h07.41.244,kallum_motion_pilot_GIST_update_2,2026.1.1,Win32,59.17159763,605b838b80f022835fc293fb,69b95efdef24cd8a694e89ee,69b9600c4bd956978d6e1b01,0.0389,0.0389,1,91,253,1,1,onethree,,,,,,,,,,,,,,,,,,,,,,,,,,,,,,,,,,,,,,,,,,,,,,,,,,,,,,,,,,,,,,,,,,,,,,,,,,,,,,,,,,,,,,,,,,,,,,,,,,,,,,,,,,,,,,,,,,,,,,,,,,,,,,,,,,,,,,,,,
,,605b838b80f022835fc293fb,2026-03-17_16h07.41.244,kallum_motion_pilot_GIST_update_2,2026.1.1,Win32,59.17159763,605b838b80f022835fc293fb,69b95efdef24cd8a694e89ee,69b9600c4bd956978d6e1b01,0.0391,0.0391,1,92,254,72,1,onetwo,,,,,,,,,,,,,,,,,,,,,,,,,,,,,,,,,,,,,,,,,,,,,,,,,,,,,,,,,,,,,,,,,,,,,,,,,,,,,,,,,,,,,,,,,,,,,,,,,,,,,,,,,,,,,,,,,,,,,,,,,,,,,,,,,,,,,,,,,
,,605b838b80f022835fc293fb,2026-03-17_16h07.41.244,kallum_motion_pilot_GIST_update_2,2026.1.1,Win32,59.17159763,605b838b80f022835fc293fb,69b95efdef24cd8a694e89ee,69b9600c4bd956978d6e1b01,0.0394,0.0394,1,93,255,53,1,threefour,,,,,,,,,,,,,,,,,,,,,,,,,,,,,,,,,,,,,,,,,,,,,,,,,,,,,,,,,,,,,,,,,,,,,,,,,,,,,,,,,,,,,,,,,,,,,,,,,,,,,,,,,,,,,,,,,,,,,,,,,,,,,,,,,,,,,,,,,
,,605b838b80f022835fc293fb,2026-03-17_16h07.41.244,kallum_motion_pilot_GIST_update_2,2026.1.1,Win32,59.17159763,605b838b80f022835fc293fb,69b95efdef24cd8a694e89ee,69b9600c4bd956978d6e1b01,0.0394,0.0394,1,94,256,10,1,twoone,,,,,,,,,,,,,,,,,,,,,,,,,,,,,,,,,,,,,,,,,,,,,,,,,,,,,,,,,,,,,,,,,,,,,,,,,,,,,,,,,,,,,,,,,,,,,,,,,,,,,,,,,,,,,,,,,,,,,,,,,,,,,,,,,,,,,,,,,
,,605b838b80f022835fc293fb,2026-03-17_16h07.41.244,kallum_motion_pilot_GIST_update_2,2026.1.1,Win32,59.17159763,605b838b80f022835fc293fb,69b95efdef24cd8a694e89ee,69b9600c4bd956978d6e1b01,0.0395,0.0395,1,95,257,155,1,sixeight,,,,,,,,,,,,,,,,,,,,,,,,,,,,,,,,,,,,,,,,,,,,,,,,,,,,,,,,,,,,,,,,,,,,,,,,,,,,,,,,,,,,,,,,,,,,,,,,,,,,,,,,,,,,,,,,,,,,,,,,,,,,,,,,,,,,,,,,,
,,605b838b80f022835fc293fb,2026-03-17_16h07.41.244,kallum_motion_pilot_GIST_update_2,2026.1.1,Win32,59.17159763,605b838b80f022835fc293fb,69b95efdef24cd8a694e89ee,69b9600c4bd956978d6e1b01,0.0396,0.0396,1,96,258,5,1,threefour,,,,,,,,,,,,,,,,,,,,,,,,,,,,,,,,,,,,,,,,,,,,,,,,,,,,,,,,,,,,,,,,,,,,,,,,,,,,,,,,,,,,,,,,,,,,,,,,,,,,,,,,,,,,,,,,,,,,,,,,,,,,,,,,,,,,,,,,,
,,605b838b80f022835fc293fb,2026-03-17_16h07.41.244,kallum_motion_pilot_GIST_update_2,2026.1.1,Win32,59.17159763,605b838b80f022835fc293fb,69b95efdef24cd8a694e89ee,69b9600c4bd956978d6e1b01,0.0398,0.0398,1,97,259,122,1,sixfive,,,,,,,,,,,,,,,,,,,,,,,,,,,,,,,,,,,,,,,,,,,,,,,,,,,,,,,,,,,,,,,,,,,,,,,,,,,,,,,,,,,,,,,,,,,,,,,,,,,,,,,,,,,,,,,,,,,,,,,,,,,,,,,,,,,,,,,,,
,,605b838b80f022835fc293fb,2026-03-17_16h07.41.244,kallum_motion_pilot_GIST_update_2,2026.1.1,Win32,59.17159763,605b838b80f022835fc293fb,69b95efdef24cd8a694e89ee,69b9600c4bd956978d6e1b01,0.0399,0.0399,1,98,260,48,1,onetwo,,,,,,,,,,,,,,,,,,,,,,,,,,,,,,,,,,,,,,,,,,,,,,,,,,,,,,,,,,,,,,,,,,,,,,,,,,,,,,,,,,,,,,,,,,,,,,,,,,,,,,,,,,,,,,,,,,,,,,,,,,,,,,,,,,,,,,,,,
,,605b838b80f022835fc293fb,2026-03-17_16h07.41.244,kallum_motion_pilot_GIST_update_2,2026.1.1,Win32,59.17159763,605b838b80f022835fc293fb,69b95efdef24cd8a694e89ee,69b9600c4bd956978d6e1b01,0.04,0.04,1,99,261,34,1,twoone,,,,,,,,,,,,,,,,,,,,,,,,,,,,,,,,,,,,,,,,,,,,,,,,,,,,,,,,,,,,,,,,,,,,,,,,,,,,,,,,,,,,,,,,,,,,,,,,,,,,,,,,,,,,,,,,,,,,,,,,,,,,,,,,,,,,,,,,,
,,605b838b80f022835fc293fb,2026-03-17_16h07.41.244,kallum_motion_pilot_GIST_update_2,2026.1.1,Win32,59.17159763,605b838b80f022835fc293fb,69b95efdef24cd8a694e89ee,69b9600c4bd956978d6e1b01,0.04,0.04,1,100,262,59,1,twofour,,,,,,,,,,,,,,,,,,,,,,,,,,,,,,,,,,,,,,,,,,,,,,,,,,,,,,,,,,,,,,,,,,,,,,,,,,,,,,,,,,,,,,,,,,,,,,,,,,,,,,,,,,,,,,,,,,,,,,,,,,,,,,,,,,,,,,,,,
,,605b838b80f022835fc293fb,2026-03-17_16h07.41.244,kallum_motion_pilot_GIST_update_2,2026.1.1,Win32,59.17159763,605b838b80f022835fc293fb,69b95efdef24cd8a694e89ee,69b9600c4bd956978d6e1b01,0.0401,0.0402,1,101,263,120,1,fivesix,,,,,,,,,,,,,,,,,,,,,,,,,,,,,,,,,,,,,,,,,,,,,,,,,,,,,,,,,,,,,,,,,,,,,,,,,,,,,,,,,,,,,,,,,,,,,,,,,,,,,,,,,,,,,,,,,,,,,,,,,,,,,,,,,,,,,,,,,
,,605b838b80f022835fc293fb,2026-03-17_16h07.41.244,kallum_motion_pilot_GIST_update_2,2026.1.1,Win32,59.17159763,605b838b80f022835fc293fb,69b95efdef24cd8a694e89ee,69b9600c4bd956978d6e1b01,0.0404,0.0404,1,102,264,139,1,sixeight,,,,,,,,,,,,,,,,,,,,,,,,,,,,,,,,,,,,,,,,,,,,,,,,,,,,,,,,,,,,,,,,,,,,,,,,,,,,,,,,,,,,,,,,,,,,,,,,,,,,,,,,,,,,,,,,,,,,,,,,,,,,,,,,,,,,,,,,,
,,605b838b80f022835fc293fb,2026-03-17_16h07.41.244,kallum_motion_pilot_GIST_update_2,2026.1.1,Win32,59.17159763,605b838b80f022835fc293fb,69b95efdef24cd8a694e89ee,69b9600c4bd956978d6e1b01,0.0405,0.0405,1,103,265,124,1,sevenfive,,,,,,,,,,,,,,,,,,,,,,,,,,,,,,,,,,,,,,,,,,,,,,,,,,,,,,,,,,,,,,,,,,,,,,,,,,,,,,,,,,,,,,,,,,,,,,,,,,,,,,,,,,,,,,,,,,,,,,,,,,,,,,,,,,,,,,,,,
,,605b838b80f022835fc293fb,2026-03-17_16h07.41.244,kallum_motion_pilot_GIST_update_2,2026.1.1,Win32,59.17159763,605b838b80f022835fc293fb,69b95efdef24cd8a694e89ee,69b9600c4bd956978d6e1b01,0.0406,0.0406,1,104,266,148,1,sevenfive,,,,,,,,,,,,,,,,,,,,,,,,,,,,,,,,,,,,,,,,,,,,,,,,,,,,,,,,,,,,,,,,,,,,,,,,,,,,,,,,,,,,,,,,,,,,,,,,,,,,,,,,,,,,,,,,,,,,,,,,,,,,,,,,,,,,,,,,,
