startup.started,startup.stopped,Prolific ID*,date,expName,psychopyVersion,OS,frameRate,participant,study_id,session,stimpositions.started,stimpositions.stopped,hardcoded_stimulus_positions.thisRepN,hardcoded_stimulus_positions.thisTrialN,hardcoded_stimulus_positions.thisN,hardcoded_stimulus_positions.thisIndex,hardcoded_stimulus_positions.ran,StimulusPos,stimorientation.started,stimorientation.stopped,prac_stimorientation_import_loop.thisRepN,prac_stimorientation_import_loop.thisTrialN,prac_stimorientation_import_loop.thisN,prac_stimorientation_import_loop.thisIndex,prac_stimorientation_import_loop.ran,Stimorientation,welcome_instr.started,welcome_instr.stopped,key_resp.keys,key_resp.rt,key_resp.duration,response_steppedout_1.started,response_steppedout_1.stopped,key_resp_20.keys,key_resp_20.rt,key_resp_20.duration,response_steppedout_2.started,response_steppedout_2.stopped,key_resp_19.keys,key_resp_19.rt,key_resp_19.duration,stim_response_instr.started,stim_response_instr.stopped,key_resp_15.keys,key_resp_15.rt,key_resp_15.duration,direction_instr_2.started,direction_instr_2.stopped,key_resp_9.keys,key_resp_9.rt,key_resp_9.duration,instr_prac.started,instr_prac.stopped,key_resp_10.keys,key_resp_10.rt,key_resp_10.duration,Stim1_display_prac.started,Stim1_display_prac.stopped,Ecc,Circle1_ori,Circle2_ori,response_prac.started,similarity,response_time,response_prac.stopped,mouse_5.x,mouse_5.y,mouse_5.leftButton,mouse_5.midButton,mouse_5.rightButton,mouse_5.clicked_name,responseprac_feedback.started,responseprac_feedback.stopped,summary2_prac.started,summary2_prac.stopped,mouse_6.x,mouse_6.y,mouse_6.leftButton,mouse_6.midButton,mouse_6.rightButton,mouse_6.clicked_name,duringprac.thisRepN,duringprac.thisTrialN,duringprac.thisN,duringprac.thisIndex,duringprac.ran,begin.started,begin.stopped,key_resp_22.keys,key_resp_22.rt,key_resp_22.duration,Stim1_display.started,Stim1_display.stopped,circle1_ori,circle2_ori,circle1_SF,circle2_SF,response.started,response.stopped,mouse.x,mouse.y,mouse.leftButton,mouse.midButton,mouse.rightButton,mouse.clicked_name,trialnumber,double_pass.thisRepN,double_pass.thisTrialN,double_pass.thisN,double_pass.thisIndex,double_pass.ran,double_pass.order,main_trial.thisRepN,main_trial.thisTrialN,main_trial.thisN,main_trial.thisIndex,main_trial.ran,main_trial.order,Trial_Counter,Catch,Frequencies,response_2.started,response_2.stopped,mouse_2.x,mouse_2.y,mouse_2.leftButton,mouse_2.midButton,mouse_2.rightButton,mouse_2.clicked_name,special_trial.started,special_trial.stopped,catch_1.started,catch_1.stopped,mouse_3.x,mouse_3.y,mouse_3.leftButton,mouse_3.midButton,mouse_3.rightButton,catchresponse,catchnumber,response_time_catch,response_sum.started,response_sum.stopped,mouse_11.x,mouse_11.y,mouse_11.leftButton,mouse_11.midButton,mouse_11.rightButton,flip_presentation_sequence_for_double_pass.started,flip_presentation_sequence_for_double_pass.stopped,goodbye.started,goodbye.stopped,key_resp_3.keys,key_resp_3.rt,key_resp_3.duration
0.0008,0.001,60827e52a046c9b82574d391,2026-03-17_15h07.32.342,kallum_motion_pilot_GIST_update_2,2026.1.1,Win32,59.88023952,60827e52a046c9b82574d391,69b95efdef24cd8a694e89ee,69b9600393a698d00e814c9f,,,,,,,,,,,,,,,,,,,,,,,,,,,,,,,,,,,,,,,,,,,,,,,,,,,,,,,,,,,,,,,,,,,,,,,,,,,,,,,,,,,,,,,,,,,,,,,,,,,,,,,,,,,,,,,,,,,,,,,,,,,,,,,,,,,,,,,,,,,,,,,,,
,,60827e52a046c9b82574d391,2026-03-17_15h07.32.342,kallum_motion_pilot_GIST_update_2,2026.1.1,Win32,59.88023952,60827e52a046c9b82574d391,69b95efdef24cd8a694e89ee,69b9600393a698d00e814c9f,0.0461,0.0464,0,0,0,7,1,fourthree,,,,,,,,,,,,,,,,,,,,,,,,,,,,,,,,,,,,,,,,,,,,,,,,,,,,,,,,,,,,,,,,,,,,,,,,,,,,,,,,,,,,,,,,,,,,,,,,,,,,,,,,,,,,,,,,,,,,,,,,,,,,,,,,,,,,,,,,,
,,60827e52a046c9b82574d391,2026-03-17_15h07.32.342,kallum_motion_pilot_GIST_update_2,2026.1.1,Win32,59.88023952,60827e52a046c9b82574d391,69b95efdef24cd8a694e89ee,69b9600393a698d00e814c9f,0.0471,0.0471,0,1,1,119,1,eightseven,,,,,,,,,,,,,,,,,,,,,,,,,,,,,,,,,,,,,,,,,,,,,,,,,,,,,,,,,,,,,,,,,,,,,,,,,,,,,,,,,,,,,,,,,,,,,,,,,,,,,,,,,,,,,,,,,,,,,,,,,,,,,,,,,,,,,,,,,
,,60827e52a046c9b82574d391,2026-03-17_15h07.32.342,kallum_motion_pilot_GIST_update_2,2026.1.1,Win32,59.88023952,60827e52a046c9b82574d391,69b95efdef24cd8a694e89ee,69b9600393a698d00e814c9f,0.0474,0.0474,0,2,2,27,1,twofour,,,,,,,,,,,,,,,,,,,,,,,,,,,,,,,,,,,,,,,,,,,,,,,,,,,,,,,,,,,,,,,,,,,,,,,,,,,,,,,,,,,,,,,,,,,,,,,,,,,,,,,,,,,,,,,,,,,,,,,,,,,,,,,,,,,,,,,,,
,,60827e52a046c9b82574d391,2026-03-17_15h07.32.342,kallum_motion_pilot_GIST_update_2,2026.1.1,Win32,59.88023952,60827e52a046c9b82574d391,69b95efdef24cd8a694e89ee,69b9600393a698d00e814c9f,0.0477,0.0477,0,3,3,141,1,seveneight,,,,,,,,,,,,,,,,,,,,,,,,,,,,,,,,,,,,,,,,,,,,,,,,,,,,,,,,,,,,,,,,,,,,,,,,,,,,,,,,,,,,,,,,,,,,,,,,,,,,,,,,,,,,,,,,,,,,,,,,,,,,,,,,,,,,,,,,,
,,60827e52a046c9b82574d391,2026-03-17_15h07.32.342,kallum_motion_pilot_GIST_update_2,2026.1.1,Win32,59.88023952,60827e52a046c9b82574d391,69b95efdef24cd8a694e89ee,69b9600393a698d00e814c9f,0.048,0.048,0,4,4,71,1,fourthree,,,,,,,,,,,,,,,,,,,,,,,,,,,,,,,,,,,,,,,,,,,,,,,,,,,,,,,,,,,,,,,,,,,,,,,,,,,,,,,,,,,,,,,,,,,,,,,,,,,,,,,,,,,,,,,,,,,,,,,,,,,,,,,,,,,,,,,,,
,,60827e52a046c9b82574d391,2026-03-17_15h07.32.342,kallum_motion_pilot_GIST_update_2,2026.1.1,Win32,59.88023952,60827e52a046c9b82574d391,69b95efdef24cd8a694e89ee,69b9600393a698d00e814c9f,0.0483,0.0483,0,5,5,154,1,sixfive,,,,,,,,,,,,,,,,,,,,,,,,,,,,,,,,,,,,,,,,,,,,,,,,,,,,,,,,,,,,,,,,,,,,,,,,,,,,,,,,,,,,,,,,,,,,,,,,,,,,,,,,,,,,,,,,,,,,,,,,,,,,,,,,,,,,,,,,,
,,60827e52a046c9b82574d391,2026-03-17_15h07.32.342,kallum_motion_pilot_GIST_update_2,2026.1.1,Win32,59.88023952,60827e52a046c9b82574d391,69b95efdef24cd8a694e89ee,69b9600393a698d00e814c9f,0.0485,0.0485,0,6,6,149,1,seveneight,,,,,,,,,,,,,,,,,,,,,,,,,,,,,,,,,,,,,,,,,,,,,,,,,,,,,,,,,,,,,,,,,,,,,,,,,,,,,,,,,,,,,,,,,,,,,,,,,,,,,,,,,,,,,,,,,,,,,,,,,,,,,,,,,,,,,,,,,
,,60827e52a046c9b82574d391,2026-03-17_15h07.32.342,kallum_motion_pilot_GIST_update_2,2026.1.1,Win32,59.88023952,60827e52a046c9b82574d391,69b95efdef24cd8a694e89ee,69b9600393a698d00e814c9f,0.0489,0.0489,0,7,7,142,1,eightsix,,,,,,,,,,,,,,,,,,,,,,,,,,,,,,,,,,,,,,,,,,,,,,,,,,,,,,,,,,,,,,,,,,,,,,,,,,,,,,,,,,,,,,,,,,,,,,,,,,,,,,,,,,,,,,,,,,,,,,,,,,,,,,,,,,,,,,,,,
,,60827e52a046c9b82574d391,2026-03-17_15h07.32.342,kallum_motion_pilot_GIST_update_2,2026.1.1,Win32,59.88023952,60827e52a046c9b82574d391,69b95efdef24cd8a694e89ee,69b9600393a698d00e814c9f,0.0492,0.0493,0,8,8,132,1,sevenfive,,,,,,,,,,,,,,,,,,,,,,,,,,,,,,,,,,,,,,,,,,,,,,,,,,,,,,,,,,,,,,,,,,,,,,,,,,,,,,,,,,,,,,,,,,,,,,,,,,,,,,,,,,,,,,,,,,,,,,,,,,,,,,,,,,,,,,,,,
,,60827e52a046c9b82574d391,2026-03-17_15h07.32.342,kallum_motion_pilot_GIST_update_2,2026.1.1,Win32,59.88023952,60827e52a046c9b82574d391,69b95efdef24cd8a694e89ee,69b9600393a698d00e814c9f,0.0495,0.0496,0,9,9,80,1,fivesix,,,,,,,,,,,,,,,,,,,,,,,,,,,,,,,,,,,,,,,,,,,,,,,,,,,,,,,,,,,,,,,,,,,,,,,,,,,,,,,,,,,,,,,,,,,,,,,,,,,,,,,,,,,,,,,,,,,,,,,,,,,,,,,,,,,,,,,,,
,,60827e52a046c9b82574d391,2026-03-17_15h07.32.342,kallum_motion_pilot_GIST_update_2,2026.1.1,Win32,59.88023952,60827e52a046c9b82574d391,69b95efdef24cd8a694e89ee,69b9600393a698d00e814c9f,0.0498,0.0499,0,10,10,47,1,fourthree,,,,,,,,,,,,,,,,,,,,,,,,,,,,,,,,,,,,,,,,,,,,,,,,,,,,,,,,,,,,,,,,,,,,,,,,,,,,,,,,,,,,,,,,,,,,,,,,,,,,,,,,,,,,,,,,,,,,,,,,,,,,,,,,,,,,,,,,,
,,60827e52a046c9b82574d391,2026-03-17_15h07.32.342,kallum_motion_pilot_GIST_update_2,2026.1.1,Win32,59.88023952,60827e52a046c9b82574d391,69b95efdef24cd8a694e89ee,69b9600393a698d00e814c9f,0.0502,0.0502,0,11,11,60,1,threeone,,,,,,,,,,,,,,,,,,,,,,,,,,,,,,,,,,,,,,,,,,,,,,,,,,,,,,,,,,,,,,,,,,,,,,,,,,,,,,,,,,,,,,,,,,,,,,,,,,,,,,,,,,,,,,,,,,,,,,,,,,,,,,,,,,,,,,,,,
,,60827e52a046c9b82574d391,2026-03-17_15h07.32.342,kallum_motion_pilot_GIST_update_2,2026.1.1,Win32,59.88023952,60827e52a046c9b82574d391,69b95efdef24cd8a694e89ee,69b9600393a698d00e814c9f,0.0504,0.0504,0,12,12,110,1,eightsix,,,,,,,,,,,,,,,,,,,,,,,,,,,,,,,,,,,,,,,,,,,,,,,,,,,,,,,,,,,,,,,,,,,,,,,,,,,,,,,,,,,,,,,,,,,,,,,,,,,,,,,,,,,,,,,,,,,,,,,,,,,,,,,,,,,,,,,,,
,,60827e52a046c9b82574d391,2026-03-17_15h07.32.342,kallum_motion_pilot_GIST_update_2,2026.1.1,Win32,59.88023952,60827e52a046c9b82574d391,69b95efdef24cd8a694e89ee,69b9600393a698d00e814c9f,0.0507,0.0507,0,13,13,78,1,fourtwo,,,,,,,,,,,,,,,,,,,,,,,,,,,,,,,,,,,,,,,,,,,,,,,,,,,,,,,,,,,,,,,,,,,,,,,,,,,,,,,,,,,,,,,,,,,,,,,,,,,,,,,,,,,,,,,,,,,,,,,,,,,,,,,,,,,,,,,,,
,,60827e52a046c9b82574d391,2026-03-17_15h07.32.342,kallum_motion_pilot_GIST_update_2,2026.1.1,Win32,59.88023952,60827e52a046c9b82574d391,69b95efdef24cd8a694e89ee,69b9600393a698d00e814c9f,0.0509,0.0509,0,14,14,48,1,onetwo,,,,,,,,,,,,,,,,,,,,,,,,,,,,,,,,,,,,,,,,,,,,,,,,,,,,,,,,,,,,,,,,,,,,,,,,,,,,,,,,,,,,,,,,,,,,,,,,,,,,,,,,,,,,,,,,,,,,,,,,,,,,,,,,,,,,,,,,,
,,60827e52a046c9b82574d391,2026-03-17_15h07.32.342,kallum_motion_pilot_GIST_update_2,2026.1.1,Win32,59.88023952,60827e52a046c9b82574d391,69b95efdef24cd8a694e89ee,69b9600393a698d00e814c9f,0.0511,0.0511,0,15,15,3,1,twofour,,,,,,,,,,,,,,,,,,,,,,,,,,,,,,,,,,,,,,,,,,,,,,,,,,,,,,,,,,,,,,,,,,,,,,,,,,,,,,,,,,,,,,,,,,,,,,,,,,,,,,,,,,,,,,,,,,,,,,,,,,,,,,,,,,,,,,,,,
,,60827e52a046c9b82574d391,2026-03-17_15h07.32.342,kallum_motion_pilot_GIST_update_2,2026.1.1,Win32,59.88023952,60827e52a046c9b82574d391,69b95efdef24cd8a694e89ee,69b9600393a698d00e814c9f,0.0512,0.0513,0,16,16,148,1,sevenfive,,,,,,,,,,,,,,,,,,,,,,,,,,,,,,,,,,,,,,,,,,,,,,,,,,,,,,,,,,,,,,,,,,,,,,,,,,,,,,,,,,,,,,,,,,,,,,,,,,,,,,,,,,,,,,,,,,,,,,,,,,,,,,,,,,,,,,,,,
,,60827e52a046c9b82574d391,2026-03-17_15h07.32.342,kallum_motion_pilot_GIST_update_2,2026.1.1,Win32,59.88023952,60827e52a046c9b82574d391,69b95efdef24cd8a694e89ee,69b9600393a698d00e814c9f,0.0515,0.0515,0,17,17,70,1,fourtwo,,,,,,,,,,,,,,,,,,,,,,,,,,,,,,,,,,,,,,,,,,,,,,,,,,,,,,,,,,,,,,,,,,,,,,,,,,,,,,,,,,,,,,,,,,,,,,,,,,,,,,,,,,,,,,,,,,,,,,,,,,,,,,,,,,,,,,,,,
,,60827e52a046c9b82574d391,2026-03-17_15h07.32.342,kallum_motion_pilot_GIST_update_2,2026.1.1,Win32,59.88023952,60827e52a046c9b82574d391,69b95efdef24cd8a694e89ee,69b9600393a698d00e814c9f,0.0517,0.0517,0,18,18,120,1,fivesix,,,,,,,,,,,,,,,,,,,,,,,,,,,,,,,,,,,,,,,,,,,,,,,,,,,,,,,,,,,,,,,,,,,,,,,,,,,,,,,,,,,,,,,,,,,,,,,,,,,,,,,,,,,,,,,,,,,,,,,,,,,,,,,,,,,,,,,,,
,,60827e52a046c9b82574d391,2026-03-17_15h07.32.342,kallum_motion_pilot_GIST_update_2,2026.1.1,Win32,59.88023952,60827e52a046c9b82574d391,69b95efdef24cd8a694e89ee,69b9600393a698d00e814c9f,0.0519,0.052,0,19,19,90,1,sixfive,,,,,,,,,,,,,,,,,,,,,,,,,,,,,,,,,,,,,,,,,,,,,,,,,,,,,,,,,,,,,,,,,,,,,,,,,,,,,,,,,,,,,,,,,,,,,,,,,,,,,,,,,,,,,,,,,,,,,,,,,,,,,,,,,,,,,,,,,
,,60827e52a046c9b82574d391,2026-03-17_15h07.32.342,kallum_motion_pilot_GIST_update_2,2026.1.1,Win32,59.88023952,60827e52a046c9b82574d391,69b95efdef24cd8a694e89ee,69b9600393a698d00e814c9f,0.0521,0.0521,0,20,20,33,1,onethree,,,,,,,,,,,,,,,,,,,,,,,,,,,,,,,,,,,,,,,,,,,,,,,,,,,,,,,,,,,,,,,,,,,,,,,,,,,,,,,,,,,,,,,,,,,,,,,,,,,,,,,,,,,,,,,,,,,,,,,,,,,,,,,,,,,,,,,,,
,,60827e52a046c9b82574d391,2026-03-17_15h07.32.342,kallum_motion_pilot_GIST_update_2,2026.1.1,Win32,59.88023952,60827e52a046c9b82574d391,69b95efdef24cd8a694e89ee,69b9600393a698d00e814c9f,0.0523,0.0523,0,21,21,24,1,onetwo,,,,,,,,,,,,,,,,,,,,,,,,,,,,,,,,,,,,,,,,,,,,,,,,,,,,,,,,,,,,,,,,,,,,,,,,,,,,,,,,,,,,,,,,,,,,,,,,,,,,,,,,,,,,,,,,,,,,,,,,,,,,,,,,,,,,,,,,,
,,60827e52a046c9b82574d391,2026-03-17_15h07.32.342,kallum_motion_pilot_GIST_update_2,2026.1.1,Win32,59.88023952,60827e52a046c9b82574d391,69b95efdef24cd8a694e89ee,69b9600393a698d00e814c9f,0.0526,0.0526,0,22,22,22,1,fourtwo,,,,,,,,,,,,,,,,,,,,,,,,,,,,,,,,,,,,,,,,,,,,,,,,,,,,,,,,,,,,,,,,,,,,,,,,,,,,,,,,,,,,,,,,,,,,,,,,,,,,,,,,,,,,,,,,,,,,,,,,,,,,,,,,,,,,,,,,,
,,60827e52a046c9b82574d391,2026-03-17_15h07.32.342,kallum_motion_pilot_GIST_update_2,2026.1.1,Win32,59.88023952,60827e52a046c9b82574d391,69b95efdef24cd8a694e89ee,69b9600393a698d00e814c9f,0.0528,0.0528,0,23,23,136,1,fivesix,,,,,,,,,,,,,,,,,,,,,,,,,,,,,,,,,,,,,,,,,,,,,,,,,,,,,,,,,,,,,,,,,,,,,,,,,,,,,,,,,,,,,,,,,,,,,,,,,,,,,,,,,,,,,,,,,,,,,,,,,,,,,,,,,,,,,,,,,
,,60827e52a046c9b82574d391,2026-03-17_15h07.32.342,kallum_motion_pilot_GIST_update_2,2026.1.1,Win32,59.88023952,60827e52a046c9b82574d391,69b95efdef24cd8a694e89ee,69b9600393a698d00e814c9f,0.053,0.053,0,24,24,81,1,fiveseven,,,,,,,,,,,,,,,,,,,,,,,,,,,,,,,,,,,,,,,,,,,,,,,,,,,,,,,,,,,,,,,,,,,,,,,,,,,,,,,,,,,,,,,,,,,,,,,,,,,,,,,,,,,,,,,,,,,,,,,,,,,,,,,,,,,,,,,,,
,,60827e52a046c9b82574d391,2026-03-17_15h07.32.342,kallum_motion_pilot_GIST_update_2,2026.1.1,Win32,59.88023952,60827e52a046c9b82574d391,69b95efdef24cd8a694e89ee,69b9600393a698d00e814c9f,0.0533,0.0533,0,25,25,31,1,fourthree,,,,,,,,,,,,,,,,,,,,,,,,,,,,,,,,,,,,,,,,,,,,,,,,,,,,,,,,,,,,,,,,,,,,,,,,,,,,,,,,,,,,,,,,,,,,,,,,,,,,,,,,,,,,,,,,,,,,,,,,,,,,,,,,,,,,,,,,,
,,60827e52a046c9b82574d391,2026-03-17_15h07.32.342,kallum_motion_pilot_GIST_update_2,2026.1.1,Win32,59.88023952,60827e52a046c9b82574d391,69b95efdef24cd8a694e89ee,69b9600393a698d00e814c9f,0.0535,0.0535,0,26,26,10,1,twoone,,,,,,,,,,,,,,,,,,,,,,,,,,,,,,,,,,,,,,,,,,,,,,,,,,,,,,,,,,,,,,,,,,,,,,,,,,,,,,,,,,,,,,,,,,,,,,,,,,,,,,,,,,,,,,,,,,,,,,,,,,,,,,,,,,,,,,,,,
,,60827e52a046c9b82574d391,2026-03-17_15h07.32.342,kallum_motion_pilot_GIST_update_2,2026.1.1,Win32,59.88023952,60827e52a046c9b82574d391,69b95efdef24cd8a694e89ee,69b9600393a698d00e814c9f,0.054,0.0541,0,27,27,139,1,sixeight,,,,,,,,,,,,,,,,,,,,,,,,,,,,,,,,,,,,,,,,,,,,,,,,,,,,,,,,,,,,,,,,,,,,,,,,,,,,,,,,,,,,,,,,,,,,,,,,,,,,,,,,,,,,,,,,,,,,,,,,,,,,,,,,,,,,,,,,,
,,60827e52a046c9b82574d391,2026-03-17_15h07.32.342,kallum_motion_pilot_GIST_update_2,2026.1.1,Win32,59.88023952,60827e52a046c9b82574d391,69b95efdef24cd8a694e89ee,69b9600393a698d00e814c9f,0.0544,0.0544,0,28,28,16,1,onetwo,,,,,,,,,,,,,,,,,,,,,,,,,,,,,,,,,,,,,,,,,,,,,,,,,,,,,,,,,,,,,,,,,,,,,,,,,,,,,,,,,,,,,,,,,,,,,,,,,,,,,,,,,,,,,,,,,,,,,,,,,,,,,,,,,,,,,,,,,
,,60827e52a046c9b82574d391,2026-03-17_15h07.32.342,kallum_motion_pilot_GIST_update_2,2026.1.1,Win32,59.88023952,60827e52a046c9b82574d391,69b95efdef24cd8a694e89ee,69b9600393a698d00e814c9f,0.0547,0.0547,0,29,29,87,1,eightseven,,,,,,,,,,,,,,,,,,,,,,,,,,,,,,,,,,,,,,,,,,,,,,,,,,,,,,,,,,,,,,,,,,,,,,,,,,,,,,,,,,,,,,,,,,,,,,,,,,,,,,,,,,,,,,,,,,,,,,,,,,,,,,,,,,,,,,,,,
,,60827e52a046c9b82574d391,2026-03-17_15h07.32.342,kallum_motion_pilot_GIST_update_2,2026.1.1,Win32,59.88023952,60827e52a046c9b82574d391,69b95efdef24cd8a694e89ee,69b9600393a698d00e814c9f,0.0549,0.055,0,30,30,8,1,onetwo,,,,,,,,,,,,,,,,,,,,,,,,,,,,,,,,,,,,,,,,,,,,,,,,,,,,,,,,,,,,,,,,,,,,,,,,,,,,,,,,,,,,,,,,,,,,,,,,,,,,,,,,,,,,,,,,,,,,,,,,,,,,,,,,,,,,,,,,,
,,60827e52a046c9b82574d391,2026-03-17_15h07.32.342,kallum_motion_pilot_GIST_update_2,2026.1.1,Win32,59.88023952,60827e52a046c9b82574d391,69b95efdef24cd8a694e89ee,69b9600393a698d00e814c9f,0.0553,0.0553,0,31,31,6,1,fourtwo,,,,,,,,,,,,,,,,,,,,,,,,,,,,,,,,,,,,,,,,,,,,,,,,,,,,,,,,,,,,,,,,,,,,,,,,,,,,,,,,,,,,,,,,,,,,,,,,,,,,,,,,,,,,,,,,,,,,,,,,,,,,,,,,,,,,,,,,,
,,60827e52a046c9b82574d391,2026-03-17_15h07.32.342,kallum_motion_pilot_GIST_update_2,2026.1.1,Win32,59.88023952,60827e52a046c9b82574d391,69b95efdef24cd8a694e89ee,69b9600393a698d00e814c9f,0.0555,0.0556,0,32,32,13,1,threefour,,,,,,,,,,,,,,,,,,,,,,,,,,,,,,,,,,,,,,,,,,,,,,,,,,,,,,,,,,,,,,,,,,,,,,,,,,,,,,,,,,,,,,,,,,,,,,,,,,,,,,,,,,,,,,,,,,,,,,,,,,,,,,,,,,,,,,,,,
,,60827e52a046c9b82574d391,2026-03-17_15h07.32.342,kallum_motion_pilot_GIST_update_2,2026.1.1,Win32,59.88023952,60827e52a046c9b82574d391,69b95efdef24cd8a694e89ee,69b9600393a698d00e814c9f,0.0559,0.0559,0,33,33,121,1,fiveseven,,,,,,,,,,,,,,,,,,,,,,,,,,,,,,,,,,,,,,,,,,,,,,,,,,,,,,,,,,,,,,,,,,,,,,,,,,,,,,,,,,,,,,,,,,,,,,,,,,,,,,,,,,,,,,,,,,,,,,,,,,,,,,,,,,,,,,,,,
,,60827e52a046c9b82574d391,2026-03-17_15h07.32.342,kallum_motion_pilot_GIST_update_2,2026.1.1,Win32,59.88023952,60827e52a046c9b82574d391,69b95efdef24cd8a694e89ee,69b9600393a698d00e814c9f,0.056,0.056,0,34,34,32,1,onetwo,,,,,,,,,,,,,,,,,,,,,,,,,,,,,,,,,,,,,,,,,,,,,,,,,,,,,,,,,,,,,,,,,,,,,,,,,,,,,,,,,,,,,,,,,,,,,,,,,,,,,,,,,,,,,,,,,,,,,,,,,,,,,,,,,,,,,,,,,
,,60827e52a046c9b82574d391,2026-03-17_15h07.32.342,kallum_motion_pilot_GIST_update_2,2026.1.1,Win32,59.88023952,60827e52a046c9b82574d391,69b95efdef24cd8a694e89ee,69b9600393a698d00e814c9f,0.0577,0.0577,0,35,35,153,1,fiveseven,,,,,,,,,,,,,,,,,,,,,,,,,,,,,,,,,,,,,,,,,,,,,,,,,,,,,,,,,,,,,,,,,,,,,,,,,,,,,,,,,,,,,,,,,,,,,,,,,,,,,,,,,,,,,,,,,,,,,,,,,,,,,,,,,,,,,,,,,
,,60827e52a046c9b82574d391,2026-03-17_15h07.32.342,kallum_motion_pilot_GIST_update_2,2026.1.1,Win32,59.88023952,60827e52a046c9b82574d391,69b95efdef24cd8a694e89ee,69b9600393a698d00e814c9f,0.058,0.058,0,36,36,99,1,sixeight,,,,,,,,,,,,,,,,,,,,,,,,,,,,,,,,,,,,,,,,,,,,,,,,,,,,,,,,,,,,,,,,,,,,,,,,,,,,,,,,,,,,,,,,,,,,,,,,,,,,,,,,,,,,,,,,,,,,,,,,,,,,,,,,,,,,,,,,,
,,60827e52a046c9b82574d391,2026-03-17_15h07.32.342,kallum_motion_pilot_GIST_update_2,2026.1.1,Win32,59.88023952,60827e52a046c9b82574d391,69b95efdef24cd8a694e89ee,69b9600393a698d00e814c9f,0.0582,0.0582,0,37,37,18,1,twoone,,,,,,,,,,,,,,,,,,,,,,,,,,,,,,,,,,,,,,,,,,,,,,,,,,,,,,,,,,,,,,,,,,,,,,,,,,,,,,,,,,,,,,,,,,,,,,,,,,,,,,,,,,,,,,,,,,,,,,,,,,,,,,,,,,,,,,,,,
,,60827e52a046c9b82574d391,2026-03-17_15h07.32.342,kallum_motion_pilot_GIST_update_2,2026.1.1,Win32,59.88023952,60827e52a046c9b82574d391,69b95efdef24cd8a694e89ee,69b9600393a698d00e814c9f,0.0584,0.0585,0,38,38,98,1,sixfive,,,,,,,,,,,,,,,,,,,,,,,,,,,,,,,,,,,,,,,,,,,,,,,,,,,,,,,,,,,,,,,,,,,,,,,,,,,,,,,,,,,,,,,,,,,,,,,,,,,,,,,,,,,,,,,,,,,,,,,,,,,,,,,,,,,,,,,,,
,,60827e52a046c9b82574d391,2026-03-17_15h07.32.342,kallum_motion_pilot_GIST_update_2,2026.1.1,Win32,59.88023952,60827e52a046c9b82574d391,69b95efdef24cd8a694e89ee,69b9600393a698d00e814c9f,0.0586,0.0586,0,39,39,19,1,twofour,,,,,,,,,,,,,,,,,,,,,,,,,,,,,,,,,,,,,,,,,,,,,,,,,,,,,,,,,,,,,,,,,,,,,,,,,,,,,,,,,,,,,,,,,,,,,,,,,,,,,,,,,,,,,,,,,,,,,,,,,,,,,,,,,,,,,,,,,
,,60827e52a046c9b82574d391,2026-03-17_15h07.32.342,kallum_motion_pilot_GIST_update_2,2026.1.1,Win32,59.88023952,60827e52a046c9b82574d391,69b95efdef24cd8a694e89ee,69b9600393a698d00e814c9f,0.0588,0.0588,0,40,40,59,1,twofour,,,,,,,,,,,,,,,,,,,,,,,,,,,,,,,,,,,,,,,,,,,,,,,,,,,,,,,,,,,,,,,,,,,,,,,,,,,,,,,,,,,,,,,,,,,,,,,,,,,,,,,,,,,,,,,,,,,,,,,,,,,,,,,,,,,,,,,,,
,,60827e52a046c9b82574d391,2026-03-17_15h07.32.342,kallum_motion_pilot_GIST_update_2,2026.1.1,Win32,59.88023952,60827e52a046c9b82574d391,69b95efdef24cd8a694e89ee,69b9600393a698d00e814c9f,0.0591,0.0591,0,41,41,144,1,fivesix,,,,,,,,,,,,,,,,,,,,,,,,,,,,,,,,,,,,,,,,,,,,,,,,,,,,,,,,,,,,,,,,,,,,,,,,,,,,,,,,,,,,,,,,,,,,,,,,,,,,,,,,,,,,,,,,,,,,,,,,,,,,,,,,,,,,,,,,,
,,60827e52a046c9b82574d391,2026-03-17_15h07.32.342,kallum_motion_pilot_GIST_update_2,2026.1.1,Win32,59.88023952,60827e52a046c9b82574d391,69b95efdef24cd8a694e89ee,69b9600393a698d00e814c9f,0.0593,0.0593,0,42,42,61,1,threefour,,,,,,,,,,,,,,,,,,,,,,,,,,,,,,,,,,,,,,,,,,,,,,,,,,,,,,,,,,,,,,,,,,,,,,,,,,,,,,,,,,,,,,,,,,,,,,,,,,,,,,,,,,,,,,,,,,,,,,,,,,,,,,,,,,,,,,,,,
,,60827e52a046c9b82574d391,2026-03-17_15h07.32.342,kallum_motion_pilot_GIST_update_2,2026.1.1,Win32,59.88023952,60827e52a046c9b82574d391,69b95efdef24cd8a694e89ee,69b9600393a698d00e814c9f,0.0594,0.0595,0,43,43,131,1,sixeight,,,,,,,,,,,,,,,,,,,,,,,,,,,,,,,,,,,,,,,,,,,,,,,,,,,,,,,,,,,,,,,,,,,,,,,,,,,,,,,,,,,,,,,,,,,,,,,,,,,,,,,,,,,,,,,,,,,,,,,,,,,,,,,,,,,,,,,,,
,,60827e52a046c9b82574d391,2026-03-17_15h07.32.342,kallum_motion_pilot_GIST_update_2,2026.1.1,Win32,59.88023952,60827e52a046c9b82574d391,69b95efdef24cd8a694e89ee,69b9600393a698d00e814c9f,0.0598,0.0598,0,44,44,21,1,threefour,,,,,,,,,,,,,,,,,,,,,,,,,,,,,,,,,,,,,,,,,,,,,,,,,,,,,,,,,,,,,,,,,,,,,,,,,,,,,,,,,,,,,,,,,,,,,,,,,,,,,,,,,,,,,,,,,,,,,,,,,,,,,,,,,,,,,,,,,
,,60827e52a046c9b82574d391,2026-03-17_15h07.32.342,kallum_motion_pilot_GIST_update_2,2026.1.1,Win32,59.88023952,60827e52a046c9b82574d391,69b95efdef24cd8a694e89ee,69b9600393a698d00e814c9f,0.06,0.06,0,45,45,146,1,sixfive,,,,,,,,,,,,,,,,,,,,,,,,,,,,,,,,,,,,,,,,,,,,,,,,,,,,,,,,,,,,,,,,,,,,,,,,,,,,,,,,,,,,,,,,,,,,,,,,,,,,,,,,,,,,,,,,,,,,,,,,,,,,,,,,,,,,,,,,,
,,60827e52a046c9b82574d391,2026-03-17_15h07.32.342,kallum_motion_pilot_GIST_update_2,2026.1.1,Win32,59.88023952,60827e52a046c9b82574d391,69b95efdef24cd8a694e89ee,69b9600393a698d00e814c9f,0.0603,0.0603,0,46,46,97,1,fiveseven,,,,,,,,,,,,,,,,,,,,,,,,,,,,,,,,,,,,,,,,,,,,,,,,,,,,,,,,,,,,,,,,,,,,,,,,,,,,,,,,,,,,,,,,,,,,,,,,,,,,,,,,,,,,,,,,,,,,,,,,,,,,,,,,,,,,,,,,,
,,60827e52a046c9b82574d391,2026-03-17_15h07.32.342,kallum_motion_pilot_GIST_update_2,2026.1.1,Win32,59.88023952,60827e52a046c9b82574d391,69b95efdef24cd8a694e89ee,69b9600393a698d00e814c9f,0.0605,0.0605,0,47,47,94,1,eightsix,,,,,,,,,,,,,,,,,,,,,,,,,,,,,,,,,,,,,,,,,,,,,,,,,,,,,,,,,,,,,,,,,,,,,,,,,,,,,,,,,,,,,,,,,,,,,,,,,,,,,,,,,,,,,,,,,,,,,,,,,,,,,,,,,,,,,,,,,
,,60827e52a046c9b82574d391,2026-03-17_15h07.32.342,kallum_motion_pilot_GIST_update_2,2026.1.1,Win32,59.88023952,60827e52a046c9b82574d391,69b95efdef24cd8a694e89ee,69b9600393a698d00e814c9f,0.0607,0.0607,0,48,48,96,1,fivesix,,,,,,,,,,,,,,,,,,,,,,,,,,,,,,,,,,,,,,,,,,,,,,,,,,,,,,,,,,,,,,,,,,,,,,,,,,,,,,,,,,,,,,,,,,,,,,,,,,,,,,,,,,,,,,,,,,,,,,,,,,,,,,,,,,,,,,,,,
,,60827e52a046c9b82574d391,2026-03-17_15h07.32.342,kallum_motion_pilot_GIST_update_2,2026.1.1,Win32,59.88023952,60827e52a046c9b82574d391,69b95efdef24cd8a694e89ee,69b9600393a698d00e814c9f,0.0609,0.0609,0,49,49,155,1,sixeight,,,,,,,,,,,,,,,,,,,,,,,,,,,,,,,,,,,,,,,,,,,,,,,,,,,,,,,,,,,,,,,,,,,,,,,,,,,,,,,,,,,,,,,,,,,,,,,,,,,,,,,,,,,,,,,,,,,,,,,,,,,,,,,,,,,,,,,,,
,,60827e52a046c9b82574d391,2026-03-17_15h07.32.342,kallum_motion_pilot_GIST_update_2,2026.1.1,Win32,59.88023952,60827e52a046c9b82574d391,69b95efdef24cd8a694e89ee,69b9600393a698d00e814c9f,0.0611,0.0611,0,50,50,11,1,twofour,,,,,,,,,,,,,,,,,,,,,,,,,,,,,,,,,,,,,,,,,,,,,,,,,,,,,,,,,,,,,,,,,,,,,,,,,,,,,,,,,,,,,,,,,,,,,,,,,,,,,,,,,,,,,,,,,,,,,,,,,,,,,,,,,,,,,,,,,
,,60827e52a046c9b82574d391,2026-03-17_15h07.32.342,kallum_motion_pilot_GIST_update_2,2026.1.1,Win32,59.88023952,60827e52a046c9b82574d391,69b95efdef24cd8a694e89ee,69b9600393a698d00e814c9f,0.0613,0.0613,0,51,51,62,1,fourtwo,,,,,,,,,,,,,,,,,,,,,,,,,,,,,,,,,,,,,,,,,,,,,,,,,,,,,,,,,,,,,,,,,,,,,,,,,,,,,,,,,,,,,,,,,,,,,,,,,,,,,,,,,,,,,,,,,,,,,,,,,,,,,,,,,,,,,,,,,
,,60827e52a046c9b82574d391,2026-03-17_15h07.32.342,kallum_motion_pilot_GIST_update_2,2026.1.1,Win32,59.88023952,60827e52a046c9b82574d391,69b95efdef24cd8a694e89ee,69b9600393a698d00e814c9f,0.0615,0.0615,0,52,52,123,1,sixeight,,,,,,,,,,,,,,,,,,,,,,,,,,,,,,,,,,,,,,,,,,,,,,,,,,,,,,,,,,,,,,,,,,,,,,,,,,,,,,,,,,,,,,,,,,,,,,,,,,,,,,,,,,,,,,,,,,,,,,,,,,,,,,,,,,,,,,,,,
,,60827e52a046c9b82574d391,2026-03-17_15h07.32.342,kallum_motion_pilot_GIST_update_2,2026.1.1,Win32,59.88023952,60827e52a046c9b82574d391,69b95efdef24cd8a694e89ee,69b9600393a698d00e814c9f,0.0618,0.0618,0,53,53,37,1,threefour,,,,,,,,,,,,,,,,,,,,,,,,,,,,,,,,,,,,,,,,,,,,,,,,,,,,,,,,,,,,,,,,,,,,,,,,,,,,,,,,,,,,,,,,,,,,,,,,,,,,,,,,,,,,,,,,,,,,,,,,,,,,,,,,,,,,,,,,,
,,60827e52a046c9b82574d391,2026-03-17_15h07.32.342,kallum_motion_pilot_GIST_update_2,2026.1.1,Win32,59.88023952,60827e52a046c9b82574d391,69b95efdef24cd8a694e89ee,69b9600393a698d00e814c9f,0.062,0.062,0,54,54,138,1,sixfive,,,,,,,,,,,,,,,,,,,,,,,,,,,,,,,,,,,,,,,,,,,,,,,,,,,,,,,,,,,,,,,,,,,,,,,,,,,,,,,,,,,,,,,,,,,,,,,,,,,,,,,,,,,,,,,,,,,,,,,,,,,,,,,,,,,,,,,,,
,,60827e52a046c9b82574d391,2026-03-17_15h07.32.342,kallum_motion_pilot_GIST_update_2,2026.1.1,Win32,59.88023952,60827e52a046c9b82574d391,69b95efdef24cd8a694e89ee,69b9600393a698d00e814c9f,0.0622,0.0622,0,55,55,51,1,twofour,,,,,,,,,,,,,,,,,,,,,,,,,,,,,,,,,,,,,,,,,,,,,,,,,,,,,,,,,,,,,,,,,,,,,,,,,,,,,,,,,,,,,,,,,,,,,,,,,,,,,,,,,,,,,,,,,,,,,,,,,,,,,,,,,,,,,,,,,
,,60827e52a046c9b82574d391,2026-03-17_15h07.32.342,kallum_motion_pilot_GIST_update_2,2026.1.1,Win32,59.88023952,60827e52a046c9b82574d391,69b95efdef24cd8a694e89ee,69b9600393a698d00e814c9f,0.0624,0.0625,0,56,56,102,1,eightsix,,,,,,,,,,,,,,,,,,,,,,,,,,,,,,,,,,,,,,,,,,,,,,,,,,,,,,,,,,,,,,,,,,,,,,,,,,,,,,,,,,,,,,,,,,,,,,,,,,,,,,,,,,,,,,,,,,,,,,,,,,,,,,,,,,,,,,,,,
,,60827e52a046c9b82574d391,2026-03-17_15h07.32.342,kallum_motion_pilot_GIST_update_2,2026.1.1,Win32,59.88023952,60827e52a046c9b82574d391,69b95efdef24cd8a694e89ee,69b9600393a698d00e814c9f,0.0627,0.0627,0,57,57,35,1,twofour,,,,,,,,,,,,,,,,,,,,,,,,,,,,,,,,,,,,,,,,,,,,,,,,,,,,,,,,,,,,,,,,,,,,,,,,,,,,,,,,,,,,,,,,,,,,,,,,,,,,,,,,,,,,,,,,,,,,,,,,,,,,,,,,,,,,,,,,,
,,60827e52a046c9b82574d391,2026-03-17_15h07.32.342,kallum_motion_pilot_GIST_update_2,2026.1.1,Win32,59.88023952,60827e52a046c9b82574d391,69b95efdef24cd8a694e89ee,69b9600393a698d00e814c9f,0.0632,0.0632,0,58,58,84,1,sevenfive,,,,,,,,,,,,,,,,,,,,,,,,,,,,,,,,,,,,,,,,,,,,,,,,,,,,,,,,,,,,,,,,,,,,,,,,,,,,,,,,,,,,,,,,,,,,,,,,,,,,,,,,,,,,,,,,,,,,,,,,,,,,,,,,,,,,,,,,,
,,60827e52a046c9b82574d391,2026-03-17_15h07.32.342,kallum_motion_pilot_GIST_update_2,2026.1.1,Win32,59.88023952,60827e52a046c9b82574d391,69b95efdef24cd8a694e89ee,69b9600393a698d00e814c9f,0.0634,0.0634,0,59,59,106,1,sixfive,,,,,,,,,,,,,,,,,,,,,,,,,,,,,,,,,,,,,,,,,,,,,,,,,,,,,,,,,,,,,,,,,,,,,,,,,,,,,,,,,,,,,,,,,,,,,,,,,,,,,,,,,,,,,,,,,,,,,,,,,,,,,,,,,,,,,,,,,
,,60827e52a046c9b82574d391,2026-03-17_15h07.32.342,kallum_motion_pilot_GIST_update_2,2026.1.1,Win32,59.88023952,60827e52a046c9b82574d391,69b95efdef24cd8a694e89ee,69b9600393a698d00e814c9f,0.0637,0.0637,0,60,60,0,1,onetwo,,,,,,,,,,,,,,,,,,,,,,,,,,,,,,,,,,,,,,,,,,,,,,,,,,,,,,,,,,,,,,,,,,,,,,,,,,,,,,,,,,,,,,,,,,,,,,,,,,,,,,,,,,,,,,,,,,,,,,,,,,,,,,,,,,,,,,,,,
,,60827e52a046c9b82574d391,2026-03-17_15h07.32.342,kallum_motion_pilot_GIST_update_2,2026.1.1,Win32,59.88023952,60827e52a046c9b82574d391,69b95efdef24cd8a694e89ee,69b9600393a698d00e814c9f,0.0639,0.064,0,61,61,15,1,fourthree,,,,,,,,,,,,,,,,,,,,,,,,,,,,,,,,,,,,,,,,,,,,,,,,,,,,,,,,,,,,,,,,,,,,,,,,,,,,,,,,,,,,,,,,,,,,,,,,,,,,,,,,,,,,,,,,,,,,,,,,,,,,,,,,,,,,,,,,,
,,60827e52a046c9b82574d391,2026-03-17_15h07.32.342,kallum_motion_pilot_GIST_update_2,2026.1.1,Win32,59.88023952,60827e52a046c9b82574d391,69b95efdef24cd8a694e89ee,69b9600393a698d00e814c9f,0.0642,0.0642,0,62,62,67,1,twofour,,,,,,,,,,,,,,,,,,,,,,,,,,,,,,,,,,,,,,,,,,,,,,,,,,,,,,,,,,,,,,,,,,,,,,,,,,,,,,,,,,,,,,,,,,,,,,,,,,,,,,,,,,,,,,,,,,,,,,,,,,,,,,,,,,,,,,,,,
,,60827e52a046c9b82574d391,2026-03-17_15h07.32.342,kallum_motion_pilot_GIST_update_2,2026.1.1,Win32,59.88023952,60827e52a046c9b82574d391,69b95efdef24cd8a694e89ee,69b9600393a698d00e814c9f,0.0645,0.0645,0,63,63,36,1,threeone,,,,,,,,,,,,,,,,,,,,,,,,,,,,,,,,,,,,,,,,,,,,,,,,,,,,,,,,,,,,,,,,,,,,,,,,,,,,,,,,,,,,,,,,,,,,,,,,,,,,,,,,,,,,,,,,,,,,,,,,,,,,,,,,,,,,,,,,,
,,60827e52a046c9b82574d391,2026-03-17_15h07.32.342,kallum_motion_pilot_GIST_update_2,2026.1.1,Win32,59.88023952,60827e52a046c9b82574d391,69b95efdef24cd8a694e89ee,69b9600393a698d00e814c9f,0.0647,0.0647,0,64,64,54,1,fourtwo,,,,,,,,,,,,,,,,,,,,,,,,,,,,,,,,,,,,,,,,,,,,,,,,,,,,,,,,,,,,,,,,,,,,,,,,,,,,,,,,,,,,,,,,,,,,,,,,,,,,,,,,,,,,,,,,,,,,,,,,,,,,,,,,,,,,,,,,,
,,60827e52a046c9b82574d391,2026-03-17_15h07.32.342,kallum_motion_pilot_GIST_update_2,2026.1.1,Win32,59.88023952,60827e52a046c9b82574d391,69b95efdef24cd8a694e89ee,69b9600393a698d00e814c9f,0.0651,0.0651,0,65,65,2,1,twoone,,,,,,,,,,,,,,,,,,,,,,,,,,,,,,,,,,,,,,,,,,,,,,,,,,,,,,,,,,,,,,,,,,,,,,,,,,,,,,,,,,,,,,,,,,,,,,,,,,,,,,,,,,,,,,,,,,,,,,,,,,,,,,,,,,,,,,,,,
,,60827e52a046c9b82574d391,2026-03-17_15h07.32.342,kallum_motion_pilot_GIST_update_2,2026.1.1,Win32,59.88023952,60827e52a046c9b82574d391,69b95efdef24cd8a694e89ee,69b9600393a698d00e814c9f,0.0655,0.0655,0,66,66,28,1,threeone,,,,,,,,,,,,,,,,,,,,,,,,,,,,,,,,,,,,,,,,,,,,,,,,,,,,,,,,,,,,,,,,,,,,,,,,,,,,,,,,,,,,,,,,,,,,,,,,,,,,,,,,,,,,,,,,,,,,,,,,,,,,,,,,,,,,,,,,,
,,60827e52a046c9b82574d391,2026-03-17_15h07.32.342,kallum_motion_pilot_GIST_update_2,2026.1.1,Win32,59.88023952,60827e52a046c9b82574d391,69b95efdef24cd8a694e89ee,69b9600393a698d00e814c9f,0.0657,0.0657,0,67,67,77,1,threefour,,,,,,,,,,,,,,,,,,,,,,,,,,,,,,,,,,,,,,,,,,,,,,,,,,,,,,,,,,,,,,,,,,,,,,,,,,,,,,,,,,,,,,,,,,,,,,,,,,,,,,,,,,,,,,,,,,,,,,,,,,,,,,,,,,,,,,,,,
,,60827e52a046c9b82574d391,2026-03-17_15h07.32.342,kallum_motion_pilot_GIST_update_2,2026.1.1,Win32,59.88023952,60827e52a046c9b82574d391,69b95efdef24cd8a694e89ee,69b9600393a698d00e814c9f,0.066,0.066,0,68,68,53,1,threefour,,,,,,,,,,,,,,,,,,,,,,,,,,,,,,,,,,,,,,,,,,,,,,,,,,,,,,,,,,,,,,,,,,,,,,,,,,,,,,,,,,,,,,,,,,,,,,,,,,,,,,,,,,,,,,,,,,,,,,,,,,,,,,,,,,,,,,,,,
,,60827e52a046c9b82574d391,2026-03-17_15h07.32.342,kallum_motion_pilot_GIST_update_2,2026.1.1,Win32,59.88023952,60827e52a046c9b82574d391,69b95efdef24cd8a694e89ee,69b9600393a698d00e814c9f,0.0662,0.0662,0,69,69,143,1,eightseven,,,,,,,,,,,,,,,,,,,,,,,,,,,,,,,,,,,,,,,,,,,,,,,,,,,,,,,,,,,,,,,,,,,,,,,,,,,,,,,,,,,,,,,,,,,,,,,,,,,,,,,,,,,,,,,,,,,,,,,,,,,,,,,,,,,,,,,,,
,,60827e52a046c9b82574d391,2026-03-17_15h07.32.342,kallum_motion_pilot_GIST_update_2,2026.1.1,Win32,59.88023952,60827e52a046c9b82574d391,69b95efdef24cd8a694e89ee,69b9600393a698d00e814c9f,0.0664,0.0664,0,70,70,46,1,fourtwo,,,,,,,,,,,,,,,,,,,,,,,,,,,,,,,,,,,,,,,,,,,,,,,,,,,,,,,,,,,,,,,,,,,,,,,,,,,,,,,,,,,,,,,,,,,,,,,,,,,,,,,,,,,,,,,,,,,,,,,,,,,,,,,,,,,,,,,,,
,,60827e52a046c9b82574d391,2026-03-17_15h07.32.342,kallum_motion_pilot_GIST_update_2,2026.1.1,Win32,59.88023952,60827e52a046c9b82574d391,69b95efdef24cd8a694e89ee,69b9600393a698d00e814c9f,0.0666,0.0666,0,71,71,57,1,onethree,,,,,,,,,,,,,,,,,,,,,,,,,,,,,,,,,,,,,,,,,,,,,,,,,,,,,,,,,,,,,,,,,,,,,,,,,,,,,,,,,,,,,,,,,,,,,,,,,,,,,,,,,,,,,,,,,,,,,,,,,,,,,,,,,,,,,,,,,
,,60827e52a046c9b82574d391,2026-03-17_15h07.32.342,kallum_motion_pilot_GIST_update_2,2026.1.1,Win32,59.88023952,60827e52a046c9b82574d391,69b95efdef24cd8a694e89ee,69b9600393a698d00e814c9f,0.0669,0.0669,0,72,72,114,1,sixfive,,,,,,,,,,,,,,,,,,,,,,,,,,,,,,,,,,,,,,,,,,,,,,,,,,,,,,,,,,,,,,,,,,,,,,,,,,,,,,,,,,,,,,,,,,,,,,,,,,,,,,,,,,,,,,,,,,,,,,,,,,,,,,,,,,,,,,,,,
,,60827e52a046c9b82574d391,2026-03-17_15h07.32.342,kallum_motion_pilot_GIST_update_2,2026.1.1,Win32,59.88023952,60827e52a046c9b82574d391,69b95efdef24cd8a694e89ee,69b9600393a698d00e814c9f,0.0671,0.0671,0,73,73,158,1,eightsix,,,,,,,,,,,,,,,,,,,,,,,,,,,,,,,,,,,,,,,,,,,,,,,,,,,,,,,,,,,,,,,,,,,,,,,,,,,,,,,,,,,,,,,,,,,,,,,,,,,,,,,,,,,,,,,,,,,,,,,,,,,,,,,,,,,,,,,,,
,,60827e52a046c9b82574d391,2026-03-17_15h07.32.342,kallum_motion_pilot_GIST_update_2,2026.1.1,Win32,59.88023952,60827e52a046c9b82574d391,69b95efdef24cd8a694e89ee,69b9600393a698d00e814c9f,0.0673,0.0673,0,74,74,68,1,threeone,,,,,,,,,,,,,,,,,,,,,,,,,,,,,,,,,,,,,,,,,,,,,,,,,,,,,,,,,,,,,,,,,,,,,,,,,,,,,,,,,,,,,,,,,,,,,,,,,,,,,,,,,,,,,,,,,,,,,,,,,,,,,,,,,,,,,,,,,
,,60827e52a046c9b82574d391,2026-03-17_15h07.32.342,kallum_motion_pilot_GIST_update_2,2026.1.1,Win32,59.88023952,60827e52a046c9b82574d391,69b95efdef24cd8a694e89ee,69b9600393a698d00e814c9f,0.0675,0.0676,0,75,75,85,1,seveneight,,,,,,,,,,,,,,,,,,,,,,,,,,,,,,,,,,,,,,,,,,,,,,,,,,,,,,,,,,,,,,,,,,,,,,,,,,,,,,,,,,,,,,,,,,,,,,,,,,,,,,,,,,,,,,,,,,,,,,,,,,,,,,,,,,,,,,,,,
,,60827e52a046c9b82574d391,2026-03-17_15h07.32.342,kallum_motion_pilot_GIST_update_2,2026.1.1,Win32,59.88023952,60827e52a046c9b82574d391,69b95efdef24cd8a694e89ee,69b9600393a698d00e814c9f,0.0678,0.0678,0,76,76,161,1,fiveseven,,,,,,,,,,,,,,,,,,,,,,,,,,,,,,,,,,,,,,,,,,,,,,,,,,,,,,,,,,,,,,,,,,,,,,,,,,,,,,,,,,,,,,,,,,,,,,,,,,,,,,,,,,,,,,,,,,,,,,,,,,,,,,,,,,,,,,,,,
,,60827e52a046c9b82574d391,2026-03-17_15h07.32.342,kallum_motion_pilot_GIST_update_2,2026.1.1,Win32,59.88023952,60827e52a046c9b82574d391,69b95efdef24cd8a694e89ee,69b9600393a698d00e814c9f,0.068,0.068,0,77,77,20,1,threeone,,,,,,,,,,,,,,,,,,,,,,,,,,,,,,,,,,,,,,,,,,,,,,,,,,,,,,,,,,,,,,,,,,,,,,,,,,,,,,,,,,,,,,,,,,,,,,,,,,,,,,,,,,,,,,,,,,,,,,,,,,,,,,,,,,,,,,,,,
,,60827e52a046c9b82574d391,2026-03-17_15h07.32.342,kallum_motion_pilot_GIST_update_2,2026.1.1,Win32,59.88023952,60827e52a046c9b82574d391,69b95efdef24cd8a694e89ee,69b9600393a698d00e814c9f,0.0683,0.0683,0,78,78,65,1,onethree,,,,,,,,,,,,,,,,,,,,,,,,,,,,,,,,,,,,,,,,,,,,,,,,,,,,,,,,,,,,,,,,,,,,,,,,,,,,,,,,,,,,,,,,,,,,,,,,,,,,,,,,,,,,,,,,,,,,,,,,,,,,,,,,,,,,,,,,,
,,60827e52a046c9b82574d391,2026-03-17_15h07.32.342,kallum_motion_pilot_GIST_update_2,2026.1.1,Win32,59.88023952,60827e52a046c9b82574d391,69b95efdef24cd8a694e89ee,69b9600393a698d00e814c9f,0.0684,0.0684,0,79,79,135,1,eightseven,,,,,,,,,,,,,,,,,,,,,,,,,,,,,,,,,,,,,,,,,,,,,,,,,,,,,,,,,,,,,,,,,,,,,,,,,,,,,,,,,,,,,,,,,,,,,,,,,,,,,,,,,,,,,,,,,,,,,,,,,,,,,,,,,,,,,,,,,
,,60827e52a046c9b82574d391,2026-03-17_15h07.32.342,kallum_motion_pilot_GIST_update_2,2026.1.1,Win32,59.88023952,60827e52a046c9b82574d391,69b95efdef24cd8a694e89ee,69b9600393a698d00e814c9f,0.0687,0.0687,0,80,80,86,1,eightsix,,,,,,,,,,,,,,,,,,,,,,,,,,,,,,,,,,,,,,,,,,,,,,,,,,,,,,,,,,,,,,,,,,,,,,,,,,,,,,,,,,,,,,,,,,,,,,,,,,,,,,,,,,,,,,,,,,,,,,,,,,,,,,,,,,,,,,,,,
,,60827e52a046c9b82574d391,2026-03-17_15h07.32.342,kallum_motion_pilot_GIST_update_2,2026.1.1,Win32,59.88023952,60827e52a046c9b82574d391,69b95efdef24cd8a694e89ee,69b9600393a698d00e814c9f,0.0689,0.0689,0,81,81,14,1,fourtwo,,,,,,,,,,,,,,,,,,,,,,,,,,,,,,,,,,,,,,,,,,,,,,,,,,,,,,,,,,,,,,,,,,,,,,,,,,,,,,,,,,,,,,,,,,,,,,,,,,,,,,,,,,,,,,,,,,,,,,,,,,,,,,,,,,,,,,,,,
,,60827e52a046c9b82574d391,2026-03-17_15h07.32.342,kallum_motion_pilot_GIST_update_2,2026.1.1,Win32,59.88023952,60827e52a046c9b82574d391,69b95efdef24cd8a694e89ee,69b9600393a698d00e814c9f,0.0691,0.0691,0,82,82,116,1,sevenfive,,,,,,,,,,,,,,,,,,,,,,,,,,,,,,,,,,,,,,,,,,,,,,,,,,,,,,,,,,,,,,,,,,,,,,,,,,,,,,,,,,,,,,,,,,,,,,,,,,,,,,,,,,,,,,,,,,,,,,,,,,,,,,,,,,,,,,,,,
,,60827e52a046c9b82574d391,2026-03-17_15h07.32.342,kallum_motion_pilot_GIST_update_2,2026.1.1,Win32,59.88023952,60827e52a046c9b82574d391,69b95efdef24cd8a694e89ee,69b9600393a698d00e814c9f,0.0694,0.0694,0,83,83,5,1,threefour,,,,,,,,,,,,,,,,,,,,,,,,,,,,,,,,,,,,,,,,,,,,,,,,,,,,,,,,,,,,,,,,,,,,,,,,,,,,,,,,,,,,,,,,,,,,,,,,,,,,,,,,,,,,,,,,,,,,,,,,,,,,,,,,,,,,,,,,,
,,60827e52a046c9b82574d391,2026-03-17_15h07.32.342,kallum_motion_pilot_GIST_update_2,2026.1.1,Win32,59.88023952,60827e52a046c9b82574d391,69b95efdef24cd8a694e89ee,69b9600393a698d00e814c9f,0.0696,0.0696,0,84,84,104,1,fivesix,,,,,,,,,,,,,,,,,,,,,,,,,,,,,,,,,,,,,,,,,,,,,,,,,,,,,,,,,,,,,,,,,,,,,,,,,,,,,,,,,,,,,,,,,,,,,,,,,,,,,,,,,,,,,,,,,,,,,,,,,,,,,,,,,,,,,,,,,
,,60827e52a046c9b82574d391,2026-03-17_15h07.32.342,kallum_motion_pilot_GIST_update_2,2026.1.1,Win32,59.88023952,60827e52a046c9b82574d391,69b95efdef24cd8a694e89ee,69b9600393a698d00e814c9f,0.0699,0.0699,0,85,85,91,1,sixeight,,,,,,,,,,,,,,,,,,,,,,,,,,,,,,,,,,,,,,,,,,,,,,,,,,,,,,,,,,,,,,,,,,,,,,,,,,,,,,,,,,,,,,,,,,,,,,,,,,,,,,,,,,,,,,,,,,,,,,,,,,,,,,,,,,,,,,,,,
,,60827e52a046c9b82574d391,2026-03-17_15h07.32.342,kallum_motion_pilot_GIST_update_2,2026.1.1,Win32,59.88023952,60827e52a046c9b82574d391,69b95efdef24cd8a694e89ee,69b9600393a698d00e814c9f,0.0703,0.0703,0,86,86,108,1,sevenfive,,,,,,,,,,,,,,,,,,,,,,,,,,,,,,,,,,,,,,,,,,,,,,,,,,,,,,,,,,,,,,,,,,,,,,,,,,,,,,,,,,,,,,,,,,,,,,,,,,,,,,,,,,,,,,,,,,,,,,,,,,,,,,,,,,,,,,,,,
,,60827e52a046c9b82574d391,2026-03-17_15h07.32.342,kallum_motion_pilot_GIST_update_2,2026.1.1,Win32,59.88023952,60827e52a046c9b82574d391,69b95efdef24cd8a694e89ee,69b9600393a698d00e814c9f,0.0705,0.0706,0,87,87,9,1,onethree,,,,,,,,,,,,,,,,,,,,,,,,,,,,,,,,,,,,,,,,,,,,,,,,,,,,,,,,,,,,,,,,,,,,,,,,,,,,,,,,,,,,,,,,,,,,,,,,,,,,,,,,,,,,,,,,,,,,,,,,,,,,,,,,,,,,,,,,,
,,60827e52a046c9b82574d391,2026-03-17_15h07.32.342,kallum_motion_pilot_GIST_update_2,2026.1.1,Win32,59.88023952,60827e52a046c9b82574d391,69b95efdef24cd8a694e89ee,69b9600393a698d00e814c9f,0.0708,0.0709,0,88,88,134,1,eightsix,,,,,,,,,,,,,,,,,,,,,,,,,,,,,,,,,,,,,,,,,,,,,,,,,,,,,,,,,,,,,,,,,,,,,,,,,,,,,,,,,,,,,,,,,,,,,,,,,,,,,,,,,,,,,,,,,,,,,,,,,,,,,,,,,,,,,,,,,
,,60827e52a046c9b82574d391,2026-03-17_15h07.32.342,kallum_motion_pilot_GIST_update_2,2026.1.1,Win32,59.88023952,60827e52a046c9b82574d391,69b95efdef24cd8a694e89ee,69b9600393a698d00e814c9f,0.0711,0.0711,0,89,89,72,1,onetwo,,,,,,,,,,,,,,,,,,,,,,,,,,,,,,,,,,,,,,,,,,,,,,,,,,,,,,,,,,,,,,,,,,,,,,,,,,,,,,,,,,,,,,,,,,,,,,,,,,,,,,,,,,,,,,,,,,,,,,,,,,,,,,,,,,,,,,,,,
,,60827e52a046c9b82574d391,2026-03-17_15h07.32.342,kallum_motion_pilot_GIST_update_2,2026.1.1,Win32,59.88023952,60827e52a046c9b82574d391,69b95efdef24cd8a694e89ee,69b9600393a698d00e814c9f,0.0714,0.0714,0,90,90,44,1,threeone,,,,,,,,,,,,,,,,,,,,,,,,,,,,,,,,,,,,,,,,,,,,,,,,,,,,,,,,,,,,,,,,,,,,,,,,,,,,,,,,,,,,,,,,,,,,,,,,,,,,,,,,,,,,,,,,,,,,,,,,,,,,,,,,,,,,,,,,,
,,60827e52a046c9b82574d391,2026-03-17_15h07.32.342,kallum_motion_pilot_GIST_update_2,2026.1.1,Win32,59.88023952,60827e52a046c9b82574d391,69b95efdef24cd8a694e89ee,69b9600393a698d00e814c9f,0.0716,0.0716,0,91,91,56,1,onetwo,,,,,,,,,,,,,,,,,,,,,,,,,,,,,,,,,,,,,,,,,,,,,,,,,,,,,,,,,,,,,,,,,,,,,,,,,,,,,,,,,,,,,,,,,,,,,,,,,,,,,,,,,,,,,,,,,,,,,,,,,,,,,,,,,,,,,,,,,
,,60827e52a046c9b82574d391,2026-03-17_15h07.32.342,kallum_motion_pilot_GIST_update_2,2026.1.1,Win32,59.88023952,60827e52a046c9b82574d391,69b95efdef24cd8a694e89ee,69b9600393a698d00e814c9f,0.0718,0.0719,0,92,92,137,1,fiveseven,,,,,,,,,,,,,,,,,,,,,,,,,,,,,,,,,,,,,,,,,,,,,,,,,,,,,,,,,,,,,,,,,,,,,,,,,,,,,,,,,,,,,,,,,,,,,,,,,,,,,,,,,,,,,,,,,,,,,,,,,,,,,,,,,,,,,,,,,
,,60827e52a046c9b82574d391,2026-03-17_15h07.32.342,kallum_motion_pilot_GIST_update_2,2026.1.1,Win32,59.88023952,60827e52a046c9b82574d391,69b95efdef24cd8a694e89ee,69b9600393a698d00e814c9f,0.0721,0.0721,0,93,93,92,1,sevenfive,,,,,,,,,,,,,,,,,,,,,,,,,,,,,,,,,,,,,,,,,,,,,,,,,,,,,,,,,,,,,,,,,,,,,,,,,,,,,,,,,,,,,,,,,,,,,,,,,,,,,,,,,,,,,,,,,,,,,,,,,,,,,,,,,,,,,,,,,
,,60827e52a046c9b82574d391,2026-03-17_15h07.32.342,kallum_motion_pilot_GIST_update_2,2026.1.1,Win32,59.88023952,60827e52a046c9b82574d391,69b95efdef24cd8a694e89ee,69b9600393a698d00e814c9f,0.0722,0.0723,0,94,94,152,1,fivesix,,,,,,,,,,,,,,,,,,,,,,,,,,,,,,,,,,,,,,,,,,,,,,,,,,,,,,,,,,,,,,,,,,,,,,,,,,,,,,,,,,,,,,,,,,,,,,,,,,,,,,,,,,,,,,,,,,,,,,,,,,,,,,,,,,,,,,,,,
,,60827e52a046c9b82574d391,2026-03-17_15h07.32.342,kallum_motion_pilot_GIST_update_2,2026.1.1,Win32,59.88023952,60827e52a046c9b82574d391,69b95efdef24cd8a694e89ee,69b9600393a698d00e814c9f,0.0729,0.0729,0,95,95,88,1,fivesix,,,,,,,,,,,,,,,,,,,,,,,,,,,,,,,,,,,,,,,,,,,,,,,,,,,,,,,,,,,,,,,,,,,,,,,,,,,,,,,,,,,,,,,,,,,,,,,,,,,,,,,,,,,,,,,,,,,,,,,,,,,,,,,,,,,,,,,,,
,,60827e52a046c9b82574d391,2026-03-17_15h07.32.342,kallum_motion_pilot_GIST_update_2,2026.1.1,Win32,59.88023952,60827e52a046c9b82574d391,69b95efdef24cd8a694e89ee,69b9600393a698d00e814c9f,0.0733,0.0733,0,96,96,100,1,sevenfive,,,,,,,,,,,,,,,,,,,,,,,,,,,,,,,,,,,,,,,,,,,,,,,,,,,,,,,,,,,,,,,,,,,,,,,,,,,,,,,,,,,,,,,,,,,,,,,,,,,,,,,,,,,,,,,,,,,,,,,,,,,,,,,,,,,,,,,,,
,,60827e52a046c9b82574d391,2026-03-17_15h07.32.342,kallum_motion_pilot_GIST_update_2,2026.1.1,Win32,59.88023952,60827e52a046c9b82574d391,69b95efdef24cd8a694e89ee,69b9600393a698d00e814c9f,0.0735,0.0735,0,97,97,45,1,threefour,,,,,,,,,,,,,,,,,,,,,,,,,,,,,,,,,,,,,,,,,,,,,,,,,,,,,,,,,,,,,,,,,,,,,,,,,,,,,,,,,,,,,,,,,,,,,,,,,,,,,,,,,,,,,,,,,,,,,,,,,,,,,,,,,,,,,,,,,
,,60827e52a046c9b82574d391,2026-03-17_15h07.32.342,kallum_motion_pilot_GIST_update_2,2026.1.1,Win32,59.88023952,60827e52a046c9b82574d391,69b95efdef24cd8a694e89ee,69b9600393a698d00e814c9f,0.0738,0.0738,0,98,98,147,1,sixeight,,,,,,,,,,,,,,,,,,,,,,,,,,,,,,,,,,,,,,,,,,,,,,,,,,,,,,,,,,,,,,,,,,,,,,,,,,,,,,,,,,,,,,,,,,,,,,,,,,,,,,,,,,,,,,,,,,,,,,,,,,,,,,,,,,,,,,,,,
,,60827e52a046c9b82574d391,2026-03-17_15h07.32.342,kallum_motion_pilot_GIST_update_2,2026.1.1,Win32,59.88023952,60827e52a046c9b82574d391,69b95efdef24cd8a694e89ee,69b9600393a698d00e814c9f,0.074,0.0741,0,99,99,30,1,fourtwo,,,,,,,,,,,,,,,,,,,,,,,,,,,,,,,,,,,,,,,,,,,,,,,,,,,,,,,,,,,,,,,,,,,,,,,,,,,,,,,,,,,,,,,,,,,,,,,,,,,,,,,,,,,,,,,,,,,,,,,,,,,,,,,,,,,,,,,,,
,,60827e52a046c9b82574d391,2026-03-17_15h07.32.342,kallum_motion_pilot_GIST_update_2,2026.1.1,Win32,59.88023952,60827e52a046c9b82574d391,69b95efdef24cd8a694e89ee,69b9600393a698d00e814c9f,0.0743,0.0743,0,100,100,127,1,eightseven,,,,,,,,,,,,,,,,,,,,,,,,,,,,,,,,,,,,,,,,,,,,,,,,,,,,,,,,,,,,,,,,,,,,,,,,,,,,,,,,,,,,,,,,,,,,,,,,,,,,,,,,,,,,,,,,,,,,,,,,,,,,,,,,,,,,,,,,,
,,60827e52a046c9b82574d391,2026-03-17_15h07.32.342,kallum_motion_pilot_GIST_update_2,2026.1.1,Win32,59.88023952,60827e52a046c9b82574d391,69b95efdef24cd8a694e89ee,69b9600393a698d00e814c9f,0.0745,0.0745,0,101,101,129,1,fiveseven,,,,,,,,,,,,,,,,,,,,,,,,,,,,,,,,,,,,,,,,,,,,,,,,,,,,,,,,,,,,,,,,,,,,,,,,,,,,,,,,,,,,,,,,,,,,,,,,,,,,,,,,,,,,,,,,,,,,,,,,,,,,,,,,,,,,,,,,,
,,60827e52a046c9b82574d391,2026-03-17_15h07.32.342,kallum_motion_pilot_GIST_update_2,2026.1.1,Win32,59.88023952,60827e52a046c9b82574d391,69b95efdef24cd8a694e89ee,69b9600393a698d00e814c9f,0.0747,0.0747,0,102,102,101,1,seveneight,,,,,,,,,,,,,,,,,,,,,,,,,,,,,,,,,,,,,,,,,,,,,,,,,,,,,,,,,,,,,,,,,,,,,,,,,,,,,,,,,,,,,,,,,,,,,,,,,,,,,,,,,,,,,,,,,,,,,,,,,,,,,,,,,,,,,,,,,
,,60827e52a046c9b82574d391,2026-03-17_15h07.32.342,kallum_motion_pilot_GIST_update_2,2026.1.1,Win32,59.88023952,60827e52a046c9b82574d391,69b95efdef24cd8a694e89ee,69b9600393a698d00e814c9f,0.075,0.0751,0,103,103,29,1,threefour,,,,,,,,,,,,,,,,,,,,,,,,,,,,,,,,,,,,,,,,,,,,,,,,,,,,,,,,,,,,,,,,,,,,,,,,,,,,,,,,,,,,,,,,,,,,,,,,,,,,,,,,,,,,,,,,,,,,,,,,,,,,,,,,,,,,,,,,,
,,60827e52a046c9b82574d391,2026-03-17_15h07.32.342,kallum_motion_pilot_GIST_update_2,2026.1.1,Win32,59.88023952,60827e52a046c9b82574d391,69b95efdef24cd8a694e89ee,69b9600393a698d00e814c9f,0.0752,0.0753,0,104,104,1,1,onethree,,,,,,,,,,,,,,,,,,,,,,,,,,,,,,,,,,,,,,,,,,,,,,,,,,,,,,,,,,,,,,,,,,,,,,,,,,,,,,,,,,,,,,,,,,,,,,,,,,,,,,,,,,,,,,,,,,,,,,,,,,,,,,,,,,,,,,,,,
,,60827e52a046c9b82574d391,2026-03-17_15h07.32.342,kallum_motion_pilot_GIST_update_2,2026.1.1,Win32,59.88023952,60827e52a046c9b82574d391,69b95efdef24cd8a694e89ee,69b9600393a698d00e814c9f,0.0754,0.0754,0,105,105,124,1,sevenfive,,,,,,,,,,,,,,,,,,,,,,,,,,,,,,,,,,,,,,,,,,,,,,,,,,,,,,,,,,,,,,,,,,,,,,,,,,,,,,,,,,,,,,,,,,,,,,,,,,,,,,,,,,,,,,,,,,,,,,,,,,,,,,,,,,,,,,,,,
,,60827e52a046c9b82574d391,2026-03-17_15h07.32.342,kallum_motion_pilot_GIST_update_2,2026.1.1,Win32,59.88023952,60827e52a046c9b82574d391,69b95efdef24cd8a694e89ee,69b9600393a698d00e814c9f,0.0757,0.0757,0,106,106,128,1,fivesix,,,,,,,,,,,,,,,,,,,,,,,,,,,,,,,,,,,,,,,,,,,,,,,,,,,,,,,,,,,,,,,,,,,,,,,,,,,,,,,,,,,,,,,,,,,,,,,,,,,,,,,,,,,,,,,,,,,,,,,,,,,,,,,,,,,,,,,,,
,,60827e52a046c9b82574d391,2026-03-17_15h07.32.342,kallum_motion_pilot_GIST_update_2,2026.1.1,Win32,59.88023952,60827e52a046c9b82574d391,69b95efdef24cd8a694e89ee,69b9600393a698d00e814c9f,0.076,0.076,0,107,107,126,1,eightsix,,,,,,,,,,,,,,,,,,,,,,,,,,,,,,,,,,,,,,,,,,,,,,,,,,,,,,,,,,,,,,,,,,,,,,,,,,,,,,,,,,,,,,,,,,,,,,,,,,,,,,,,,,,,,,,,,,,,,,,,,,,,,,,,,,,,,,,,,
,,60827e52a046c9b82574d391,2026-03-17_15h07.32.342,kallum_motion_pilot_GIST_update_2,2026.1.1,Win32,59.88023952,60827e52a046c9b82574d391,69b95efdef24cd8a694e89ee,69b9600393a698d00e814c9f,0.0761,0.0761,0,108,108,25,1,onethree,,,,,,,,,,,,,,,,,,,,,,,,,,,,,,,,,,,,,,,,,,,,,,,,,,,,,,,,,,,,,,,,,,,,,,,,,,,,,,,,,,,,,,,,,,,,,,,,,,,,,,,,,,,,,,,,,,,,,,,,,,,,,,,,,,,,,,,,,
,,60827e52a046c9b82574d391,2026-03-17_15h07.32.342,kallum_motion_pilot_GIST_update_2,2026.1.1,Win32,59.88023952,60827e52a046c9b82574d391,69b95efdef24cd8a694e89ee,69b9600393a698d00e814c9f,0.0764,0.0764,0,109,109,133,1,seveneight,,,,,,,,,,,,,,,,,,,,,,,,,,,,,,,,,,,,,,,,,,,,,,,,,,,,,,,,,,,,,,,,,,,,,,,,,,,,,,,,,,,,,,,,,,,,,,,,,,,,,,,,,,,,,,,,,,,,,,,,,,,,,,,,,,,,,,,,,
,,60827e52a046c9b82574d391,2026-03-17_15h07.32.342,kallum_motion_pilot_GIST_update_2,2026.1.1,Win32,59.88023952,60827e52a046c9b82574d391,69b95efdef24cd8a694e89ee,69b9600393a698d00e814c9f,0.0767,0.0767,0,110,110,73,1,onethree,,,,,,,,,,,,,,,,,,,,,,,,,,,,,,,,,,,,,,,,,,,,,,,,,,,,,,,,,,,,,,,,,,,,,,,,,,,,,,,,,,,,,,,,,,,,,,,,,,,,,,,,,,,,,,,,,,,,,,,,,,,,,,,,,,,,,,,,,
,,60827e52a046c9b82574d391,2026-03-17_15h07.32.342,kallum_motion_pilot_GIST_update_2,2026.1.1,Win32,59.88023952,60827e52a046c9b82574d391,69b95efdef24cd8a694e89ee,69b9600393a698d00e814c9f,0.0769,0.0769,0,111,111,150,1,eightsix,,,,,,,,,,,,,,,,,,,,,,,,,,,,,,,,,,,,,,,,,,,,,,,,,,,,,,,,,,,,,,,,,,,,,,,,,,,,,,,,,,,,,,,,,,,,,,,,,,,,,,,,,,,,,,,,,,,,,,,,,,,,,,,,,,,,,,,,,
,,60827e52a046c9b82574d391,2026-03-17_15h07.32.342,kallum_motion_pilot_GIST_update_2,2026.1.1,Win32,59.88023952,60827e52a046c9b82574d391,69b95efdef24cd8a694e89ee,69b9600393a698d00e814c9f,0.0771,0.0771,0,112,112,66,1,twoone,,,,,,,,,,,,,,,,,,,,,,,,,,,,,,,,,,,,,,,,,,,,,,,,,,,,,,,,,,,,,,,,,,,,,,,,,,,,,,,,,,,,,,,,,,,,,,,,,,,,,,,,,,,,,,,,,,,,,,,,,,,,,,,,,,,,,,,,,
,,60827e52a046c9b82574d391,2026-03-17_15h07.32.342,kallum_motion_pilot_GIST_update_2,2026.1.1,Win32,59.88023952,60827e52a046c9b82574d391,69b95efdef24cd8a694e89ee,69b9600393a698d00e814c9f,0.0773,0.0774,0,113,113,117,1,seveneight,,,,,,,,,,,,,,,,,,,,,,,,,,,,,,,,,,,,,,,,,,,,,,,,,,,,,,,,,,,,,,,,,,,,,,,,,,,,,,,,,,,,,,,,,,,,,,,,,,,,,,,,,,,,,,,,,,,,,,,,,,,,,,,,,,,,,,,,,
,,60827e52a046c9b82574d391,2026-03-17_15h07.32.342,kallum_motion_pilot_GIST_update_2,2026.1.1,Win32,59.88023952,60827e52a046c9b82574d391,69b95efdef24cd8a694e89ee,69b9600393a698d00e814c9f,0.0776,0.0776,0,114,114,130,1,sixfive,,,,,,,,,,,,,,,,,,,,,,,,,,,,,,,,,,,,,,,,,,,,,,,,,,,,,,,,,,,,,,,,,,,,,,,,,,,,,,,,,,,,,,,,,,,,,,,,,,,,,,,,,,,,,,,,,,,,,,,,,,,,,,,,,,,,,,,,,
,,60827e52a046c9b82574d391,2026-03-17_15h07.32.342,kallum_motion_pilot_GIST_update_2,2026.1.1,Win32,59.88023952,60827e52a046c9b82574d391,69b95efdef24cd8a694e89ee,69b9600393a698d00e814c9f,0.0777,0.0778,0,115,115,42,1,twoone,,,,,,,,,,,,,,,,,,,,,,,,,,,,,,,,,,,,,,,,,,,,,,,,,,,,,,,,,,,,,,,,,,,,,,,,,,,,,,,,,,,,,,,,,,,,,,,,,,,,,,,,,,,,,,,,,,,,,,,,,,,,,,,,,,,,,,,,,
,,60827e52a046c9b82574d391,2026-03-17_15h07.32.342,kallum_motion_pilot_GIST_update_2,2026.1.1,Win32,59.88023952,60827e52a046c9b82574d391,69b95efdef24cd8a694e89ee,69b9600393a698d00e814c9f,0.078,0.078,0,116,116,82,1,sixfive,,,,,,,,,,,,,,,,,,,,,,,,,,,,,,,,,,,,,,,,,,,,,,,,,,,,,,,,,,,,,,,,,,,,,,,,,,,,,,,,,,,,,,,,,,,,,,,,,,,,,,,,,,,,,,,,,,,,,,,,,,,,,,,,,,,,,,,,,
,,60827e52a046c9b82574d391,2026-03-17_15h07.32.342,kallum_motion_pilot_GIST_update_2,2026.1.1,Win32,59.88023952,60827e52a046c9b82574d391,69b95efdef24cd8a694e89ee,69b9600393a698d00e814c9f,0.0783,0.0783,0,117,117,17,1,onethree,,,,,,,,,,,,,,,,,,,,,,,,,,,,,,,,,,,,,,,,,,,,,,,,,,,,,,,,,,,,,,,,,,,,,,,,,,,,,,,,,,,,,,,,,,,,,,,,,,,,,,,,,,,,,,,,,,,,,,,,,,,,,,,,,,,,,,,,,
,,60827e52a046c9b82574d391,2026-03-17_15h07.32.342,kallum_motion_pilot_GIST_update_2,2026.1.1,Win32,59.88023952,60827e52a046c9b82574d391,69b95efdef24cd8a694e89ee,69b9600393a698d00e814c9f,0.0787,0.0787,0,118,118,12,1,threeone,,,,,,,,,,,,,,,,,,,,,,,,,,,,,,,,,,,,,,,,,,,,,,,,,,,,,,,,,,,,,,,,,,,,,,,,,,,,,,,,,,,,,,,,,,,,,,,,,,,,,,,,,,,,,,,,,,,,,,,,,,,,,,,,,,,,,,,,,
,,60827e52a046c9b82574d391,2026-03-17_15h07.32.342,kallum_motion_pilot_GIST_update_2,2026.1.1,Win32,59.88023952,60827e52a046c9b82574d391,69b95efdef24cd8a694e89ee,69b9600393a698d00e814c9f,0.0791,0.0791,0,119,119,140,1,sevenfive,,,,,,,,,,,,,,,,,,,,,,,,,,,,,,,,,,,,,,,,,,,,,,,,,,,,,,,,,,,,,,,,,,,,,,,,,,,,,,,,,,,,,,,,,,,,,,,,,,,,,,,,,,,,,,,,,,,,,,,,,,,,,,,,,,,,,,,,,
,,60827e52a046c9b82574d391,2026-03-17_15h07.32.342,kallum_motion_pilot_GIST_update_2,2026.1.1,Win32,59.88023952,60827e52a046c9b82574d391,69b95efdef24cd8a694e89ee,69b9600393a698d00e814c9f,0.0794,0.0794,0,120,120,151,1,eightseven,,,,,,,,,,,,,,,,,,,,,,,,,,,,,,,,,,,,,,,,,,,,,,,,,,,,,,,,,,,,,,,,,,,,,,,,,,,,,,,,,,,,,,,,,,,,,,,,,,,,,,,,,,,,,,,,,,,,,,,,,,,,,,,,,,,,,,,,,
,,60827e52a046c9b82574d391,2026-03-17_15h07.32.342,kallum_motion_pilot_GIST_update_2,2026.1.1,Win32,59.88023952,60827e52a046c9b82574d391,69b95efdef24cd8a694e89ee,69b9600393a698d00e814c9f,0.0796,0.0796,0,121,121,111,1,eightseven,,,,,,,,,,,,,,,,,,,,,,,,,,,,,,,,,,,,,,,,,,,,,,,,,,,,,,,,,,,,,,,,,,,,,,,,,,,,,,,,,,,,,,,,,,,,,,,,,,,,,,,,,,,,,,,,,,,,,,,,,,,,,,,,,,,,,,,,,
,,60827e52a046c9b82574d391,2026-03-17_15h07.32.342,kallum_motion_pilot_GIST_update_2,2026.1.1,Win32,59.88023952,60827e52a046c9b82574d391,69b95efdef24cd8a694e89ee,69b9600393a698d00e814c9f,0.0799,0.0799,0,122,122,75,1,twofour,,,,,,,,,,,,,,,,,,,,,,,,,,,,,,,,,,,,,,,,,,,,,,,,,,,,,,,,,,,,,,,,,,,,,,,,,,,,,,,,,,,,,,,,,,,,,,,,,,,,,,,,,,,,,,,,,,,,,,,,,,,,,,,,,,,,,,,,,
,,60827e52a046c9b82574d391,2026-03-17_15h07.32.342,kallum_motion_pilot_GIST_update_2,2026.1.1,Win32,59.88023952,60827e52a046c9b82574d391,69b95efdef24cd8a694e89ee,69b9600393a698d00e814c9f,0.0801,0.0802,0,123,123,50,1,twoone,,,,,,,,,,,,,,,,,,,,,,,,,,,,,,,,,,,,,,,,,,,,,,,,,,,,,,,,,,,,,,,,,,,,,,,,,,,,,,,,,,,,,,,,,,,,,,,,,,,,,,,,,,,,,,,,,,,,,,,,,,,,,,,,,,,,,,,,,
,,60827e52a046c9b82574d391,2026-03-17_15h07.32.342,kallum_motion_pilot_GIST_update_2,2026.1.1,Win32,59.88023952,60827e52a046c9b82574d391,69b95efdef24cd8a694e89ee,69b9600393a698d00e814c9f,0.0803,0.0804,0,124,124,115,1,sixeight,,,,,,,,,,,,,,,,,,,,,,,,,,,,,,,,,,,,,,,,,,,,,,,,,,,,,,,,,,,,,,,,,,,,,,,,,,,,,,,,,,,,,,,,,,,,,,,,,,,,,,,,,,,,,,,,,,,,,,,,,,,,,,,,,,,,,,,,,
,,60827e52a046c9b82574d391,2026-03-17_15h07.32.342,kallum_motion_pilot_GIST_update_2,2026.1.1,Win32,59.88023952,60827e52a046c9b82574d391,69b95efdef24cd8a694e89ee,69b9600393a698d00e814c9f,0.0806,0.0807,0,125,125,107,1,sixeight,,,,,,,,,,,,,,,,,,,,,,,,,,,,,,,,,,,,,,,,,,,,,,,,,,,,,,,,,,,,,,,,,,,,,,,,,,,,,,,,,,,,,,,,,,,,,,,,,,,,,,,,,,,,,,,,,,,,,,,,,,,,,,,,,,,,,,,,,
,,60827e52a046c9b82574d391,2026-03-17_15h07.32.342,kallum_motion_pilot_GIST_update_2,2026.1.1,Win32,59.88023952,60827e52a046c9b82574d391,69b95efdef24cd8a694e89ee,69b9600393a698d00e814c9f,0.081,0.081,0,126,126,103,1,eightseven,,,,,,,,,,,,,,,,,,,,,,,,,,,,,,,,,,,,,,,,,,,,,,,,,,,,,,,,,,,,,,,,,,,,,,,,,,,,,,,,,,,,,,,,,,,,,,,,,,,,,,,,,,,,,,,,,,,,,,,,,,,,,,,,,,,,,,,,,
,,60827e52a046c9b82574d391,2026-03-17_15h07.32.342,kallum_motion_pilot_GIST_update_2,2026.1.1,Win32,59.88023952,60827e52a046c9b82574d391,69b95efdef24cd8a694e89ee,69b9600393a698d00e814c9f,0.0812,0.0813,0,127,127,55,1,fourthree,,,,,,,,,,,,,,,,,,,,,,,,,,,,,,,,,,,,,,,,,,,,,,,,,,,,,,,,,,,,,,,,,,,,,,,,,,,,,,,,,,,,,,,,,,,,,,,,,,,,,,,,,,,,,,,,,,,,,,,,,,,,,,,,,,,,,,,,,
,,60827e52a046c9b82574d391,2026-03-17_15h07.32.342,kallum_motion_pilot_GIST_update_2,2026.1.1,Win32,59.88023952,60827e52a046c9b82574d391,69b95efdef24cd8a694e89ee,69b9600393a698d00e814c9f,0.0815,0.0815,0,128,128,58,1,twoone,,,,,,,,,,,,,,,,,,,,,,,,,,,,,,,,,,,,,,,,,,,,,,,,,,,,,,,,,,,,,,,,,,,,,,,,,,,,,,,,,,,,,,,,,,,,,,,,,,,,,,,,,,,,,,,,,,,,,,,,,,,,,,,,,,,,,,,,,
,,60827e52a046c9b82574d391,2026-03-17_15h07.32.342,kallum_motion_pilot_GIST_update_2,2026.1.1,Win32,59.88023952,60827e52a046c9b82574d391,69b95efdef24cd8a694e89ee,69b9600393a698d00e814c9f,0.0817,0.0817,0,129,129,38,1,fourtwo,,,,,,,,,,,,,,,,,,,,,,,,,,,,,,,,,,,,,,,,,,,,,,,,,,,,,,,,,,,,,,,,,,,,,,,,,,,,,,,,,,,,,,,,,,,,,,,,,,,,,,,,,,,,,,,,,,,,,,,,,,,,,,,,,,,,,,,,,
,,60827e52a046c9b82574d391,2026-03-17_15h07.32.342,kallum_motion_pilot_GIST_update_2,2026.1.1,Win32,59.88023952,60827e52a046c9b82574d391,69b95efdef24cd8a694e89ee,69b9600393a698d00e814c9f,0.0819,0.0819,0,130,130,160,1,fivesix,,,,,,,,,,,,,,,,,,,,,,,,,,,,,,,,,,,,,,,,,,,,,,,,,,,,,,,,,,,,,,,,,,,,,,,,,,,,,,,,,,,,,,,,,,,,,,,,,,,,,,,,,,,,,,,,,,,,,,,,,,,,,,,,,,,,,,,,,
,,60827e52a046c9b82574d391,2026-03-17_15h07.32.342,kallum_motion_pilot_GIST_update_2,2026.1.1,Win32,59.88023952,60827e52a046c9b82574d391,69b95efdef24cd8a694e89ee,69b9600393a698d00e814c9f,0.0822,0.0822,0,131,131,118,1,eightsix,,,,,,,,,,,,,,,,,,,,,,,,,,,,,,,,,,,,,,,,,,,,,,,,,,,,,,,,,,,,,,,,,,,,,,,,,,,,,,,,,,,,,,,,,,,,,,,,,,,,,,,,,,,,,,,,,,,,,,,,,,,,,,,,,,,,,,,,,
,,60827e52a046c9b82574d391,2026-03-17_15h07.32.342,kallum_motion_pilot_GIST_update_2,2026.1.1,Win32,59.88023952,60827e52a046c9b82574d391,69b95efdef24cd8a694e89ee,69b9600393a698d00e814c9f,0.0824,0.0824,0,132,132,4,1,threeone,,,,,,,,,,,,,,,,,,,,,,,,,,,,,,,,,,,,,,,,,,,,,,,,,,,,,,,,,,,,,,,,,,,,,,,,,,,,,,,,,,,,,,,,,,,,,,,,,,,,,,,,,,,,,,,,,,,,,,,,,,,,,,,,,,,,,,,,,
,,60827e52a046c9b82574d391,2026-03-17_15h07.32.342,kallum_motion_pilot_GIST_update_2,2026.1.1,Win32,59.88023952,60827e52a046c9b82574d391,69b95efdef24cd8a694e89ee,69b9600393a698d00e814c9f,0.0826,0.0826,0,133,133,52,1,threeone,,,,,,,,,,,,,,,,,,,,,,,,,,,,,,,,,,,,,,,,,,,,,,,,,,,,,,,,,,,,,,,,,,,,,,,,,,,,,,,,,,,,,,,,,,,,,,,,,,,,,,,,,,,,,,,,,,,,,,,,,,,,,,,,,,,,,,,,,
,,60827e52a046c9b82574d391,2026-03-17_15h07.32.342,kallum_motion_pilot_GIST_update_2,2026.1.1,Win32,59.88023952,60827e52a046c9b82574d391,69b95efdef24cd8a694e89ee,69b9600393a698d00e814c9f,0.0831,0.0831,0,134,134,43,1,twofour,,,,,,,,,,,,,,,,,,,,,,,,,,,,,,,,,,,,,,,,,,,,,,,,,,,,,,,,,,,,,,,,,,,,,,,,,,,,,,,,,,,,,,,,,,,,,,,,,,,,,,,,,,,,,,,,,,,,,,,,,,,,,,,,,,,,,,,,,
,,60827e52a046c9b82574d391,2026-03-17_15h07.32.342,kallum_motion_pilot_GIST_update_2,2026.1.1,Win32,59.88023952,60827e52a046c9b82574d391,69b95efdef24cd8a694e89ee,69b9600393a698d00e814c9f,0.0833,0.0833,0,135,135,112,1,fivesix,,,,,,,,,,,,,,,,,,,,,,,,,,,,,,,,,,,,,,,,,,,,,,,,,,,,,,,,,,,,,,,,,,,,,,,,,,,,,,,,,,,,,,,,,,,,,,,,,,,,,,,,,,,,,,,,,,,,,,,,,,,,,,,,,,,,,,,,,
,,60827e52a046c9b82574d391,2026-03-17_15h07.32.342,kallum_motion_pilot_GIST_update_2,2026.1.1,Win32,59.88023952,60827e52a046c9b82574d391,69b95efdef24cd8a694e89ee,69b9600393a698d00e814c9f,0.0835,0.0835,0,136,136,76,1,threeone,,,,,,,,,,,,,,,,,,,,,,,,,,,,,,,,,,,,,,,,,,,,,,,,,,,,,,,,,,,,,,,,,,,,,,,,,,,,,,,,,,,,,,,,,,,,,,,,,,,,,,,,,,,,,,,,,,,,,,,,,,,,,,,,,,,,,,,,,
,,60827e52a046c9b82574d391,2026-03-17_15h07.32.342,kallum_motion_pilot_GIST_update_2,2026.1.1,Win32,59.88023952,60827e52a046c9b82574d391,69b95efdef24cd8a694e89ee,69b9600393a698d00e814c9f,0.0839,0.0839,0,137,137,69,1,threefour,,,,,,,,,,,,,,,,,,,,,,,,,,,,,,,,,,,,,,,,,,,,,,,,,,,,,,,,,,,,,,,,,,,,,,,,,,,,,,,,,,,,,,,,,,,,,,,,,,,,,,,,,,,,,,,,,,,,,,,,,,,,,,,,,,,,,,,,,
,,60827e52a046c9b82574d391,2026-03-17_15h07.32.342,kallum_motion_pilot_GIST_update_2,2026.1.1,Win32,59.88023952,60827e52a046c9b82574d391,69b95efdef24cd8a694e89ee,69b9600393a698d00e814c9f,0.0841,0.0841,0,138,138,125,1,seveneight,,,,,,,,,,,,,,,,,,,,,,,,,,,,,,,,,,,,,,,,,,,,,,,,,,,,,,,,,,,,,,,,,,,,,,,,,,,,,,,,,,,,,,,,,,,,,,,,,,,,,,,,,,,,,,,,,,,,,,,,,,,,,,,,,,,,,,,,,
,,60827e52a046c9b82574d391,2026-03-17_15h07.32.342,kallum_motion_pilot_GIST_update_2,2026.1.1,Win32,59.88023952,60827e52a046c9b82574d391,69b95efdef24cd8a694e89ee,69b9600393a698d00e814c9f,0.0844,0.0844,0,139,139,23,1,fourthree,,,,,,,,,,,,,,,,,,,,,,,,,,,,,,,,,,,,,,,,,,,,,,,,,,,,,,,,,,,,,,,,,,,,,,,,,,,,,,,,,,,,,,,,,,,,,,,,,,,,,,,,,,,,,,,,,,,,,,,,,,,,,,,,,,,,,,,,,
,,60827e52a046c9b82574d391,2026-03-17_15h07.32.342,kallum_motion_pilot_GIST_update_2,2026.1.1,Win32,59.88023952,60827e52a046c9b82574d391,69b95efdef24cd8a694e89ee,69b9600393a698d00e814c9f,0.0845,0.0846,0,140,140,64,1,onetwo,,,,,,,,,,,,,,,,,,,,,,,,,,,,,,,,,,,,,,,,,,,,,,,,,,,,,,,,,,,,,,,,,,,,,,,,,,,,,,,,,,,,,,,,,,,,,,,,,,,,,,,,,,,,,,,,,,,,,,,,,,,,,,,,,,,,,,,,,
,,60827e52a046c9b82574d391,2026-03-17_15h07.32.342,kallum_motion_pilot_GIST_update_2,2026.1.1,Win32,59.88023952,60827e52a046c9b82574d391,69b95efdef24cd8a694e89ee,69b9600393a698d00e814c9f,0.0848,0.0849,0,141,141,49,1,onethree,,,,,,,,,,,,,,,,,,,,,,,,,,,,,,,,,,,,,,,,,,,,,,,,,,,,,,,,,,,,,,,,,,,,,,,,,,,,,,,,,,,,,,,,,,,,,,,,,,,,,,,,,,,,,,,,,,,,,,,,,,,,,,,,,,,,,,,,,
,,60827e52a046c9b82574d391,2026-03-17_15h07.32.342,kallum_motion_pilot_GIST_update_2,2026.1.1,Win32,59.88023952,60827e52a046c9b82574d391,69b95efdef24cd8a694e89ee,69b9600393a698d00e814c9f,0.0851,0.0851,0,142,142,40,1,onetwo,,,,,,,,,,,,,,,,,,,,,,,,,,,,,,,,,,,,,,,,,,,,,,,,,,,,,,,,,,,,,,,,,,,,,,,,,,,,,,,,,,,,,,,,,,,,,,,,,,,,,,,,,,,,,,,,,,,,,,,,,,,,,,,,,,,,,,,,,
,,60827e52a046c9b82574d391,2026-03-17_15h07.32.342,kallum_motion_pilot_GIST_update_2,2026.1.1,Win32,59.88023952,60827e52a046c9b82574d391,69b95efdef24cd8a694e89ee,69b9600393a698d00e814c9f,0.0853,0.0853,0,143,143,34,1,twoone,,,,,,,,,,,,,,,,,,,,,,,,,,,,,,,,,,,,,,,,,,,,,,,,,,,,,,,,,,,,,,,,,,,,,,,,,,,,,,,,,,,,,,,,,,,,,,,,,,,,,,,,,,,,,,,,,,,,,,,,,,,,,,,,,,,,,,,,,
,,60827e52a046c9b82574d391,2026-03-17_15h07.32.342,kallum_motion_pilot_GIST_update_2,2026.1.1,Win32,59.88023952,60827e52a046c9b82574d391,69b95efdef24cd8a694e89ee,69b9600393a698d00e814c9f,0.0855,0.0855,0,144,144,122,1,sixfive,,,,,,,,,,,,,,,,,,,,,,,,,,,,,,,,,,,,,,,,,,,,,,,,,,,,,,,,,,,,,,,,,,,,,,,,,,,,,,,,,,,,,,,,,,,,,,,,,,,,,,,,,,,,,,,,,,,,,,,,,,,,,,,,,,,,,,,,,
,,60827e52a046c9b82574d391,2026-03-17_15h07.32.342,kallum_motion_pilot_GIST_update_2,2026.1.1,Win32,59.88023952,60827e52a046c9b82574d391,69b95efdef24cd8a694e89ee,69b9600393a698d00e814c9f,0.0859,0.0859,0,145,145,157,1,seveneight,,,,,,,,,,,,,,,,,,,,,,,,,,,,,,,,,,,,,,,,,,,,,,,,,,,,,,,,,,,,,,,,,,,,,,,,,,,,,,,,,,,,,,,,,,,,,,,,,,,,,,,,,,,,,,,,,,,,,,,,,,,,,,,,,,,,,,,,,
,,60827e52a046c9b82574d391,2026-03-17_15h07.32.342,kallum_motion_pilot_GIST_update_2,2026.1.1,Win32,59.88023952,60827e52a046c9b82574d391,69b95efdef24cd8a694e89ee,69b9600393a698d00e814c9f,0.0862,0.0862,0,146,146,26,1,twoone,,,,,,,,,,,,,,,,,,,,,,,,,,,,,,,,,,,,,,,,,,,,,,,,,,,,,,,,,,,,,,,,,,,,,,,,,,,,,,,,,,,,,,,,,,,,,,,,,,,,,,,,,,,,,,,,,,,,,,,,,,,,,,,,,,,,,,,,,
,,60827e52a046c9b82574d391,2026-03-17_15h07.32.342,kallum_motion_pilot_GIST_update_2,2026.1.1,Win32,59.88023952,60827e52a046c9b82574d391,69b95efdef24cd8a694e89ee,69b9600393a698d00e814c9f,0.0865,0.0865,0,147,147,159,1,eightseven,,,,,,,,,,,,,,,,,,,,,,,,,,,,,,,,,,,,,,,,,,,,,,,,,,,,,,,,,,,,,,,,,,,,,,,,,,,,,,,,,,,,,,,,,,,,,,,,,,,,,,,,,,,,,,,,,,,,,,,,,,,,,,,,,,,,,,,,,
,,60827e52a046c9b82574d391,2026-03-17_15h07.32.342,kallum_motion_pilot_GIST_update_2,2026.1.1,Win32,59.88023952,60827e52a046c9b82574d391,69b95efdef24cd8a694e89ee,69b9600393a698d00e814c9f,0.0868,0.0868,0,148,148,109,1,seveneight,,,,,,,,,,,,,,,,,,,,,,,,,,,,,,,,,,,,,,,,,,,,,,,,,,,,,,,,,,,,,,,,,,,,,,,,,,,,,,,,,,,,,,,,,,,,,,,,,,,,,,,,,,,,,,,,,,,,,,,,,,,,,,,,,,,,,,,,,
,,60827e52a046c9b82574d391,2026-03-17_15h07.32.342,kallum_motion_pilot_GIST_update_2,2026.1.1,Win32,59.88023952,60827e52a046c9b82574d391,69b95efdef24cd8a694e89ee,69b9600393a698d00e814c9f,0.0871,0.0872,0,149,149,83,1,sixeight,,,,,,,,,,,,,,,,,,,,,,,,,,,,,,,,,,,,,,,,,,,,,,,,,,,,,,,,,,,,,,,,,,,,,,,,,,,,,,,,,,,,,,,,,,,,,,,,,,,,,,,,,,,,,,,,,,,,,,,,,,,,,,,,,,,,,,,,,
,,60827e52a046c9b82574d391,2026-03-17_15h07.32.342,kallum_motion_pilot_GIST_update_2,2026.1.1,Win32,59.88023952,60827e52a046c9b82574d391,69b95efdef24cd8a694e89ee,69b9600393a698d00e814c9f,0.0873,0.0873,0,150,150,95,1,eightseven,,,,,,,,,,,,,,,,,,,,,,,,,,,,,,,,,,,,,,,,,,,,,,,,,,,,,,,,,,,,,,,,,,,,,,,,,,,,,,,,,,,,,,,,,,,,,,,,,,,,,,,,,,,,,,,,,,,,,,,,,,,,,,,,,,,,,,,,,
,,60827e52a046c9b82574d391,2026-03-17_15h07.32.342,kallum_motion_pilot_GIST_update_2,2026.1.1,Win32,59.88023952,60827e52a046c9b82574d391,69b95efdef24cd8a694e89ee,69b9600393a698d00e814c9f,0.0876,0.0876,0,151,151,39,1,fourthree,,,,,,,,,,,,,,,,,,,,,,,,,,,,,,,,,,,,,,,,,,,,,,,,,,,,,,,,,,,,,,,,,,,,,,,,,,,,,,,,,,,,,,,,,,,,,,,,,,,,,,,,,,,,,,,,,,,,,,,,,,,,,,,,,,,,,,,,,
,,60827e52a046c9b82574d391,2026-03-17_15h07.32.342,kallum_motion_pilot_GIST_update_2,2026.1.1,Win32,59.88023952,60827e52a046c9b82574d391,69b95efdef24cd8a694e89ee,69b9600393a698d00e814c9f,0.0878,0.0878,0,152,152,145,1,fiveseven,,,,,,,,,,,,,,,,,,,,,,,,,,,,,,,,,,,,,,,,,,,,,,,,,,,,,,,,,,,,,,,,,,,,,,,,,,,,,,,,,,,,,,,,,,,,,,,,,,,,,,,,,,,,,,,,,,,,,,,,,,,,,,,,,,,,,,,,,
,,60827e52a046c9b82574d391,2026-03-17_15h07.32.342,kallum_motion_pilot_GIST_update_2,2026.1.1,Win32,59.88023952,60827e52a046c9b82574d391,69b95efdef24cd8a694e89ee,69b9600393a698d00e814c9f,0.0881,0.0881,0,153,153,41,1,onethree,,,,,,,,,,,,,,,,,,,,,,,,,,,,,,,,,,,,,,,,,,,,,,,,,,,,,,,,,,,,,,,,,,,,,,,,,,,,,,,,,,,,,,,,,,,,,,,,,,,,,,,,,,,,,,,,,,,,,,,,,,,,,,,,,,,,,,,,,
,,60827e52a046c9b82574d391,2026-03-17_15h07.32.342,kallum_motion_pilot_GIST_update_2,2026.1.1,Win32,59.88023952,60827e52a046c9b82574d391,69b95efdef24cd8a694e89ee,69b9600393a698d00e814c9f,0.0883,0.0884,0,154,154,74,1,twoone,,,,,,,,,,,,,,,,,,,,,,,,,,,,,,,,,,,,,,,,,,,,,,,,,,,,,,,,,,,,,,,,,,,,,,,,,,,,,,,,,,,,,,,,,,,,,,,,,,,,,,,,,,,,,,,,,,,,,,,,,,,,,,,,,,,,,,,,,
,,60827e52a046c9b82574d391,2026-03-17_15h07.32.342,kallum_motion_pilot_GIST_update_2,2026.1.1,Win32,59.88023952,60827e52a046c9b82574d391,69b95efdef24cd8a694e89ee,69b9600393a698d00e814c9f,0.0885,0.0885,0,155,155,79,1,eightseven,,,,,,,,,,,,,,,,,,,,,,,,,,,,,,,,,,,,,,,,,,,,,,,,,,,,,,,,,,,,,,,,,,,,,,,,,,,,,,,,,,,,,,,,,,,,,,,,,,,,,,,,,,,,,,,,,,,,,,,,,,,,,,,,,,,,,,,,,
,,60827e52a046c9b82574d391,2026-03-17_15h07.32.342,kallum_motion_pilot_GIST_update_2,2026.1.1,Win32,59.88023952,60827e52a046c9b82574d391,69b95efdef24cd8a694e89ee,69b9600393a698d00e814c9f,0.0887,0.0888,0,156,156,105,1,fiveseven,,,,,,,,,,,,,,,,,,,,,,,,,,,,,,,,,,,,,,,,,,,,,,,,,,,,,,,,,,,,,,,,,,,,,,,,,,,,,,,,,,,,,,,,,,,,,,,,,,,,,,,,,,,,,,,,,,,,,,,,,,,,,,,,,,,,,,,,,
,,60827e52a046c9b82574d391,2026-03-17_15h07.32.342,kallum_motion_pilot_GIST_update_2,2026.1.1,Win32,59.88023952,60827e52a046c9b82574d391,69b95efdef24cd8a694e89ee,69b9600393a698d00e814c9f,0.089,0.0891,0,157,157,63,1,fourthree,,,,,,,,,,,,,,,,,,,,,,,,,,,,,,,,,,,,,,,,,,,,,,,,,,,,,,,,,,,,,,,,,,,,,,,,,,,,,,,,,,,,,,,,,,,,,,,,,,,,,,,,,,,,,,,,,,,,,,,,,,,,,,,,,,,,,,,,,
,,60827e52a046c9b82574d391,2026-03-17_15h07.32.342,kallum_motion_pilot_GIST_update_2,2026.1.1,Win32,59.88023952,60827e52a046c9b82574d391,69b95efdef24cd8a694e89ee,69b9600393a698d00e814c9f,0.0895,0.0895,0,158,158,113,1,fiveseven,,,,,,,,,,,,,,,,,,,,,,,,,,,,,,,,,,,,,,,,,,,,,,,,,,,,,,,,,,,,,,,,,,,,,,,,,,,,,,,,,,,,,,,,,,,,,,,,,,,,,,,,,,,,,,,,,,,,,,,,,,,,,,,,,,,,,,,,,
,,60827e52a046c9b82574d391,2026-03-17_15h07.32.342,kallum_motion_pilot_GIST_update_2,2026.1.1,Win32,59.88023952,60827e52a046c9b82574d391,69b95efdef24cd8a694e89ee,69b9600393a698d00e814c9f,0.0898,0.0898,0,159,159,156,1,sevenfive,,,,,,,,,,,,,,,,,,,,,,,,,,,,,,,,,,,,,,,,,,,,,,,,,,,,,,,,,,,,,,,,,,,,,,,,,,,,,,,,,,,,,,,,,,,,,,,,,,,,,,,,,,,,,,,,,,,,,,,,,,,,,,,,,,,,,,,,,
,,60827e52a046c9b82574d391,2026-03-17_15h07.32.342,kallum_motion_pilot_GIST_update_2,2026.1.1,Win32,59.88023952,60827e52a046c9b82574d391,69b95efdef24cd8a694e89ee,69b9600393a698d00e814c9f,0.0901,0.0901,0,160,160,89,1,fiveseven,,,,,,,,,,,,,,,,,,,,,,,,,,,,,,,,,,,,,,,,,,,,,,,,,,,,,,,,,,,,,,,,,,,,,,,,,,,,,,,,,,,,,,,,,,,,,,,,,,,,,,,,,,,,,,,,,,,,,,,,,,,,,,,,,,,,,,,,,
,,60827e52a046c9b82574d391,2026-03-17_15h07.32.342,kallum_motion_pilot_GIST_update_2,2026.1.1,Win32,59.88023952,60827e52a046c9b82574d391,69b95efdef24cd8a694e89ee,69b9600393a698d00e814c9f,0.0903,0.0903,0,161,161,93,1,seveneight,,,,,,,,,,,,,,,,,,,,,,,,,,,,,,,,,,,,,,,,,,,,,,,,,,,,,,,,,,,,,,,,,,,,,,,,,,,,,,,,,,,,,,,,,,,,,,,,,,,,,,,,,,,,,,,,,,,,,,,,,,,,,,,,,,,,,,,,,
,,60827e52a046c9b82574d391,2026-03-17_15h07.32.342,kallum_motion_pilot_GIST_update_2,2026.1.1,Win32,59.88023952,60827e52a046c9b82574d391,69b95efdef24cd8a694e89ee,69b9600393a698d00e814c9f,0.0907,0.0907,1,0,162,158,1,eightsix,,,,,,,,,,,,,,,,,,,,,,,,,,,,,,,,,,,,,,,,,,,,,,,,,,,,,,,,,,,,,,,,,,,,,,,,,,,,,,,,,,,,,,,,,,,,,,,,,,,,,,,,,,,,,,,,,,,,,,,,,,,,,,,,,,,,,,,,,
,,60827e52a046c9b82574d391,2026-03-17_15h07.32.342,kallum_motion_pilot_GIST_update_2,2026.1.1,Win32,59.88023952,60827e52a046c9b82574d391,69b95efdef24cd8a694e89ee,69b9600393a698d00e814c9f,0.0909,0.0909,1,1,163,8,1,onetwo,,,,,,,,,,,,,,,,,,,,,,,,,,,,,,,,,,,,,,,,,,,,,,,,,,,,,,,,,,,,,,,,,,,,,,,,,,,,,,,,,,,,,,,,,,,,,,,,,,,,,,,,,,,,,,,,,,,,,,,,,,,,,,,,,,,,,,,,,
,,60827e52a046c9b82574d391,2026-03-17_15h07.32.342,kallum_motion_pilot_GIST_update_2,2026.1.1,Win32,59.88023952,60827e52a046c9b82574d391,69b95efdef24cd8a694e89ee,69b9600393a698d00e814c9f,0.0911,0.0912,1,2,164,143,1,eightseven,,,,,,,,,,,,,,,,,,,,,,,,,,,,,,,,,,,,,,,,,,,,,,,,,,,,,,,,,,,,,,,,,,,,,,,,,,,,,,,,,,,,,,,,,,,,,,,,,,,,,,,,,,,,,,,,,,,,,,,,,,,,,,,,,,,,,,,,,
,,60827e52a046c9b82574d391,2026-03-17_15h07.32.342,kallum_motion_pilot_GIST_update_2,2026.1.1,Win32,59.88023952,60827e52a046c9b82574d391,69b95efdef24cd8a694e89ee,69b9600393a698d00e814c9f,0.0914,0.0914,1,3,165,109,1,seveneight,,,,,,,,,,,,,,,,,,,,,,,,,,,,,,,,,,,,,,,,,,,,,,,,,,,,,,,,,,,,,,,,,,,,,,,,,,,,,,,,,,,,,,,,,,,,,,,,,,,,,,,,,,,,,,,,,,,,,,,,,,,,,,,,,,,,,,,,,
,,60827e52a046c9b82574d391,2026-03-17_15h07.32.342,kallum_motion_pilot_GIST_update_2,2026.1.1,Win32,59.88023952,60827e52a046c9b82574d391,69b95efdef24cd8a694e89ee,69b9600393a698d00e814c9f,0.0916,0.0916,1,4,166,86,1,eightsix,,,,,,,,,,,,,,,,,,,,,,,,,,,,,,,,,,,,,,,,,,,,,,,,,,,,,,,,,,,,,,,,,,,,,,,,,,,,,,,,,,,,,,,,,,,,,,,,,,,,,,,,,,,,,,,,,,,,,,,,,,,,,,,,,,,,,,,,,
,,60827e52a046c9b82574d391,2026-03-17_15h07.32.342,kallum_motion_pilot_GIST_update_2,2026.1.1,Win32,59.88023952,60827e52a046c9b82574d391,69b95efdef24cd8a694e89ee,69b9600393a698d00e814c9f,0.0919,0.0919,1,5,167,84,1,sevenfive,,,,,,,,,,,,,,,,,,,,,,,,,,,,,,,,,,,,,,,,,,,,,,,,,,,,,,,,,,,,,,,,,,,,,,,,,,,,,,,,,,,,,,,,,,,,,,,,,,,,,,,,,,,,,,,,,,,,,,,,,,,,,,,,,,,,,,,,,
,,60827e52a046c9b82574d391,2026-03-17_15h07.32.342,kallum_motion_pilot_GIST_update_2,2026.1.1,Win32,59.88023952,60827e52a046c9b82574d391,69b95efdef24cd8a694e89ee,69b9600393a698d00e814c9f,0.0921,0.0921,1,6,168,102,1,eightsix,,,,,,,,,,,,,,,,,,,,,,,,,,,,,,,,,,,,,,,,,,,,,,,,,,,,,,,,,,,,,,,,,,,,,,,,,,,,,,,,,,,,,,,,,,,,,,,,,,,,,,,,,,,,,,,,,,,,,,,,,,,,,,,,,,,,,,,,,
,,60827e52a046c9b82574d391,2026-03-17_15h07.32.342,kallum_motion_pilot_GIST_update_2,2026.1.1,Win32,59.88023952,60827e52a046c9b82574d391,69b95efdef24cd8a694e89ee,69b9600393a698d00e814c9f,0.0923,0.0923,1,7,169,20,1,threeone,,,,,,,,,,,,,,,,,,,,,,,,,,,,,,,,,,,,,,,,,,,,,,,,,,,,,,,,,,,,,,,,,,,,,,,,,,,,,,,,,,,,,,,,,,,,,,,,,,,,,,,,,,,,,,,,,,,,,,,,,,,,,,,,,,,,,,,,,
,,60827e52a046c9b82574d391,2026-03-17_15h07.32.342,kallum_motion_pilot_GIST_update_2,2026.1.1,Win32,59.88023952,60827e52a046c9b82574d391,69b95efdef24cd8a694e89ee,69b9600393a698d00e814c9f,0.0926,0.0926,1,8,170,138,1,sixfive,,,,,,,,,,,,,,,,,,,,,,,,,,,,,,,,,,,,,,,,,,,,,,,,,,,,,,,,,,,,,,,,,,,,,,,,,,,,,,,,,,,,,,,,,,,,,,,,,,,,,,,,,,,,,,,,,,,,,,,,,,,,,,,,,,,,,,,,,
,,60827e52a046c9b82574d391,2026-03-17_15h07.32.342,kallum_motion_pilot_GIST_update_2,2026.1.1,Win32,59.88023952,60827e52a046c9b82574d391,69b95efdef24cd8a694e89ee,69b9600393a698d00e814c9f,0.093,0.0931,1,9,171,43,1,twofour,,,,,,,,,,,,,,,,,,,,,,,,,,,,,,,,,,,,,,,,,,,,,,,,,,,,,,,,,,,,,,,,,,,,,,,,,,,,,,,,,,,,,,,,,,,,,,,,,,,,,,,,,,,,,,,,,,,,,,,,,,,,,,,,,,,,,,,,,
,,60827e52a046c9b82574d391,2026-03-17_15h07.32.342,kallum_motion_pilot_GIST_update_2,2026.1.1,Win32,59.88023952,60827e52a046c9b82574d391,69b95efdef24cd8a694e89ee,69b9600393a698d00e814c9f,0.0933,0.0933,1,10,172,95,1,eightseven,,,,,,,,,,,,,,,,,,,,,,,,,,,,,,,,,,,,,,,,,,,,,,,,,,,,,,,,,,,,,,,,,,,,,,,,,,,,,,,,,,,,,,,,,,,,,,,,,,,,,,,,,,,,,,,,,,,,,,,,,,,,,,,,,,,,,,,,,
,,60827e52a046c9b82574d391,2026-03-17_15h07.32.342,kallum_motion_pilot_GIST_update_2,2026.1.1,Win32,59.88023952,60827e52a046c9b82574d391,69b95efdef24cd8a694e89ee,69b9600393a698d00e814c9f,0.0936,0.0937,1,11,173,51,1,twofour,,,,,,,,,,,,,,,,,,,,,,,,,,,,,,,,,,,,,,,,,,,,,,,,,,,,,,,,,,,,,,,,,,,,,,,,,,,,,,,,,,,,,,,,,,,,,,,,,,,,,,,,,,,,,,,,,,,,,,,,,,,,,,,,,,,,,,,,,
,,60827e52a046c9b82574d391,2026-03-17_15h07.32.342,kallum_motion_pilot_GIST_update_2,2026.1.1,Win32,59.88023952,60827e52a046c9b82574d391,69b95efdef24cd8a694e89ee,69b9600393a698d00e814c9f,0.0939,0.0939,1,12,174,92,1,sevenfive,,,,,,,,,,,,,,,,,,,,,,,,,,,,,,,,,,,,,,,,,,,,,,,,,,,,,,,,,,,,,,,,,,,,,,,,,,,,,,,,,,,,,,,,,,,,,,,,,,,,,,,,,,,,,,,,,,,,,,,,,,,,,,,,,,,,,,,,,
,,60827e52a046c9b82574d391,2026-03-17_15h07.32.342,kallum_motion_pilot_GIST_update_2,2026.1.1,Win32,59.88023952,60827e52a046c9b82574d391,69b95efdef24cd8a694e89ee,69b9600393a698d00e814c9f,0.0942,0.0942,1,13,175,128,1,fivesix,,,,,,,,,,,,,,,,,,,,,,,,,,,,,,,,,,,,,,,,,,,,,,,,,,,,,,,,,,,,,,,,,,,,,,,,,,,,,,,,,,,,,,,,,,,,,,,,,,,,,,,,,,,,,,,,,,,,,,,,,,,,,,,,,,,,,,,,,
,,60827e52a046c9b82574d391,2026-03-17_15h07.32.342,kallum_motion_pilot_GIST_update_2,2026.1.1,Win32,59.88023952,60827e52a046c9b82574d391,69b95efdef24cd8a694e89ee,69b9600393a698d00e814c9f,0.0945,0.0945,1,14,176,125,1,seveneight,,,,,,,,,,,,,,,,,,,,,,,,,,,,,,,,,,,,,,,,,,,,,,,,,,,,,,,,,,,,,,,,,,,,,,,,,,,,,,,,,,,,,,,,,,,,,,,,,,,,,,,,,,,,,,,,,,,,,,,,,,,,,,,,,,,,,,,,,
,,60827e52a046c9b82574d391,2026-03-17_15h07.32.342,kallum_motion_pilot_GIST_update_2,2026.1.1,Win32,59.88023952,60827e52a046c9b82574d391,69b95efdef24cd8a694e89ee,69b9600393a698d00e814c9f,0.0948,0.0948,1,15,177,32,1,onetwo,,,,,,,,,,,,,,,,,,,,,,,,,,,,,,,,,,,,,,,,,,,,,,,,,,,,,,,,,,,,,,,,,,,,,,,,,,,,,,,,,,,,,,,,,,,,,,,,,,,,,,,,,,,,,,,,,,,,,,,,,,,,,,,,,,,,,,,,,
,,60827e52a046c9b82574d391,2026-03-17_15h07.32.342,kallum_motion_pilot_GIST_update_2,2026.1.1,Win32,59.88023952,60827e52a046c9b82574d391,69b95efdef24cd8a694e89ee,69b9600393a698d00e814c9f,0.0951,0.0952,1,16,178,70,1,fourtwo,,,,,,,,,,,,,,,,,,,,,,,,,,,,,,,,,,,,,,,,,,,,,,,,,,,,,,,,,,,,,,,,,,,,,,,,,,,,,,,,,,,,,,,,,,,,,,,,,,,,,,,,,,,,,,,,,,,,,,,,,,,,,,,,,,,,,,,,,
,,60827e52a046c9b82574d391,2026-03-17_15h07.32.342,kallum_motion_pilot_GIST_update_2,2026.1.1,Win32,59.88023952,60827e52a046c9b82574d391,69b95efdef24cd8a694e89ee,69b9600393a698d00e814c9f,0.0953,0.0954,1,17,179,41,1,onethree,,,,,,,,,,,,,,,,,,,,,,,,,,,,,,,,,,,,,,,,,,,,,,,,,,,,,,,,,,,,,,,,,,,,,,,,,,,,,,,,,,,,,,,,,,,,,,,,,,,,,,,,,,,,,,,,,,,,,,,,,,,,,,,,,,,,,,,,,
,,60827e52a046c9b82574d391,2026-03-17_15h07.32.342,kallum_motion_pilot_GIST_update_2,2026.1.1,Win32,59.88023952,60827e52a046c9b82574d391,69b95efdef24cd8a694e89ee,69b9600393a698d00e814c9f,0.0956,0.0956,1,18,180,4,1,threeone,,,,,,,,,,,,,,,,,,,,,,,,,,,,,,,,,,,,,,,,,,,,,,,,,,,,,,,,,,,,,,,,,,,,,,,,,,,,,,,,,,,,,,,,,,,,,,,,,,,,,,,,,,,,,,,,,,,,,,,,,,,,,,,,,,,,,,,,,
,,60827e52a046c9b82574d391,2026-03-17_15h07.32.342,kallum_motion_pilot_GIST_update_2,2026.1.1,Win32,59.88023952,60827e52a046c9b82574d391,69b95efdef24cd8a694e89ee,69b9600393a698d00e814c9f,0.0958,0.0958,1,19,181,87,1,eightseven,,,,,,,,,,,,,,,,,,,,,,,,,,,,,,,,,,,,,,,,,,,,,,,,,,,,,,,,,,,,,,,,,,,,,,,,,,,,,,,,,,,,,,,,,,,,,,,,,,,,,,,,,,,,,,,,,,,,,,,,,,,,,,,,,,,,,,,,,
,,60827e52a046c9b82574d391,2026-03-17_15h07.32.342,kallum_motion_pilot_GIST_update_2,2026.1.1,Win32,59.88023952,60827e52a046c9b82574d391,69b95efdef24cd8a694e89ee,69b9600393a698d00e814c9f,0.0961,0.0961,1,20,182,85,1,seveneight,,,,,,,,,,,,,,,,,,,,,,,,,,,,,,,,,,,,,,,,,,,,,,,,,,,,,,,,,,,,,,,,,,,,,,,,,,,,,,,,,,,,,,,,,,,,,,,,,,,,,,,,,,,,,,,,,,,,,,,,,,,,,,,,,,,,,,,,,
,,60827e52a046c9b82574d391,2026-03-17_15h07.32.342,kallum_motion_pilot_GIST_update_2,2026.1.1,Win32,59.88023952,60827e52a046c9b82574d391,69b95efdef24cd8a694e89ee,69b9600393a698d00e814c9f,0.0963,0.0963,1,21,183,15,1,fourthree,,,,,,,,,,,,,,,,,,,,,,,,,,,,,,,,,,,,,,,,,,,,,,,,,,,,,,,,,,,,,,,,,,,,,,,,,,,,,,,,,,,,,,,,,,,,,,,,,,,,,,,,,,,,,,,,,,,,,,,,,,,,,,,,,,,,,,,,,
,,60827e52a046c9b82574d391,2026-03-17_15h07.32.342,kallum_motion_pilot_GIST_update_2,2026.1.1,Win32,59.88023952,60827e52a046c9b82574d391,69b95efdef24cd8a694e89ee,69b9600393a698d00e814c9f,0.0965,0.0965,1,22,184,69,1,threefour,,,,,,,,,,,,,,,,,,,,,,,,,,,,,,,,,,,,,,,,,,,,,,,,,,,,,,,,,,,,,,,,,,,,,,,,,,,,,,,,,,,,,,,,,,,,,,,,,,,,,,,,,,,,,,,,,,,,,,,,,,,,,,,,,,,,,,,,,
,,60827e52a046c9b82574d391,2026-03-17_15h07.32.342,kallum_motion_pilot_GIST_update_2,2026.1.1,Win32,59.88023952,60827e52a046c9b82574d391,69b95efdef24cd8a694e89ee,69b9600393a698d00e814c9f,0.0969,0.0969,1,23,185,153,1,fiveseven,,,,,,,,,,,,,,,,,,,,,,,,,,,,,,,,,,,,,,,,,,,,,,,,,,,,,,,,,,,,,,,,,,,,,,,,,,,,,,,,,,,,,,,,,,,,,,,,,,,,,,,,,,,,,,,,,,,,,,,,,,,,,,,,,,,,,,,,,
,,60827e52a046c9b82574d391,2026-03-17_15h07.32.342,kallum_motion_pilot_GIST_update_2,2026.1.1,Win32,59.88023952,60827e52a046c9b82574d391,69b95efdef24cd8a694e89ee,69b9600393a698d00e814c9f,0.0971,0.0971,1,24,186,98,1,sixfive,,,,,,,,,,,,,,,,,,,,,,,,,,,,,,,,,,,,,,,,,,,,,,,,,,,,,,,,,,,,,,,,,,,,,,,,,,,,,,,,,,,,,,,,,,,,,,,,,,,,,,,,,,,,,,,,,,,,,,,,,,,,,,,,,,,,,,,,,
,,60827e52a046c9b82574d391,2026-03-17_15h07.32.342,kallum_motion_pilot_GIST_update_2,2026.1.1,Win32,59.88023952,60827e52a046c9b82574d391,69b95efdef24cd8a694e89ee,69b9600393a698d00e814c9f,0.0974,0.0974,1,25,187,145,1,fiveseven,,,,,,,,,,,,,,,,,,,,,,,,,,,,,,,,,,,,,,,,,,,,,,,,,,,,,,,,,,,,,,,,,,,,,,,,,,,,,,,,,,,,,,,,,,,,,,,,,,,,,,,,,,,,,,,,,,,,,,,,,,,,,,,,,,,,,,,,,
,,60827e52a046c9b82574d391,2026-03-17_15h07.32.342,kallum_motion_pilot_GIST_update_2,2026.1.1,Win32,59.88023952,60827e52a046c9b82574d391,69b95efdef24cd8a694e89ee,69b9600393a698d00e814c9f,0.0978,0.0978,1,26,188,151,1,eightseven,,,,,,,,,,,,,,,,,,,,,,,,,,,,,,,,,,,,,,,,,,,,,,,,,,,,,,,,,,,,,,,,,,,,,,,,,,,,,,,,,,,,,,,,,,,,,,,,,,,,,,,,,,,,,,,,,,,,,,,,,,,,,,,,,,,,,,,,,
,,60827e52a046c9b82574d391,2026-03-17_15h07.32.342,kallum_motion_pilot_GIST_update_2,2026.1.1,Win32,59.88023952,60827e52a046c9b82574d391,69b95efdef24cd8a694e89ee,69b9600393a698d00e814c9f,0.0982,0.0982,1,27,189,36,1,threeone,,,,,,,,,,,,,,,,,,,,,,,,,,,,,,,,,,,,,,,,,,,,,,,,,,,,,,,,,,,,,,,,,,,,,,,,,,,,,,,,,,,,,,,,,,,,,,,,,,,,,,,,,,,,,,,,,,,,,,,,,,,,,,,,,,,,,,,,,
,,60827e52a046c9b82574d391,2026-03-17_15h07.32.342,kallum_motion_pilot_GIST_update_2,2026.1.1,Win32,59.88023952,60827e52a046c9b82574d391,69b95efdef24cd8a694e89ee,69b9600393a698d00e814c9f,0.0985,0.0986,1,28,190,74,1,twoone,,,,,,,,,,,,,,,,,,,,,,,,,,,,,,,,,,,,,,,,,,,,,,,,,,,,,,,,,,,,,,,,,,,,,,,,,,,,,,,,,,,,,,,,,,,,,,,,,,,,,,,,,,,,,,,,,,,,,,,,,,,,,,,,,,,,,,,,,
,,60827e52a046c9b82574d391,2026-03-17_15h07.32.342,kallum_motion_pilot_GIST_update_2,2026.1.1,Win32,59.88023952,60827e52a046c9b82574d391,69b95efdef24cd8a694e89ee,69b9600393a698d00e814c9f,0.0988,0.0988,1,29,191,112,1,fivesix,,,,,,,,,,,,,,,,,,,,,,,,,,,,,,,,,,,,,,,,,,,,,,,,,,,,,,,,,,,,,,,,,,,,,,,,,,,,,,,,,,,,,,,,,,,,,,,,,,,,,,,,,,,,,,,,,,,,,,,,,,,,,,,,,,,,,,,,,
,,60827e52a046c9b82574d391,2026-03-17_15h07.32.342,kallum_motion_pilot_GIST_update_2,2026.1.1,Win32,59.88023952,60827e52a046c9b82574d391,69b95efdef24cd8a694e89ee,69b9600393a698d00e814c9f,0.0991,0.0991,1,30,192,101,1,seveneight,,,,,,,,,,,,,,,,,,,,,,,,,,,,,,,,,,,,,,,,,,,,,,,,,,,,,,,,,,,,,,,,,,,,,,,,,,,,,,,,,,,,,,,,,,,,,,,,,,,,,,,,,,,,,,,,,,,,,,,,,,,,,,,,,,,,,,,,,
,,60827e52a046c9b82574d391,2026-03-17_15h07.32.342,kallum_motion_pilot_GIST_update_2,2026.1.1,Win32,59.88023952,60827e52a046c9b82574d391,69b95efdef24cd8a694e89ee,69b9600393a698d00e814c9f,0.0994,0.0994,1,31,193,147,1,sixeight,,,,,,,,,,,,,,,,,,,,,,,,,,,,,,,,,,,,,,,,,,,,,,,,,,,,,,,,,,,,,,,,,,,,,,,,,,,,,,,,,,,,,,,,,,,,,,,,,,,,,,,,,,,,,,,,,,,,,,,,,,,,,,,,,,,,,,,,,
,,60827e52a046c9b82574d391,2026-03-17_15h07.32.342,kallum_motion_pilot_GIST_update_2,2026.1.1,Win32,59.88023952,60827e52a046c9b82574d391,69b95efdef24cd8a694e89ee,69b9600393a698d00e814c9f,0.0998,0.0998,1,32,194,156,1,sevenfive,,,,,,,,,,,,,,,,,,,,,,,,,,,,,,,,,,,,,,,,,,,,,,,,,,,,,,,,,,,,,,,,,,,,,,,,,,,,,,,,,,,,,,,,,,,,,,,,,,,,,,,,,,,,,,,,,,,,,,,,,,,,,,,,,,,,,,,,,
,,60827e52a046c9b82574d391,2026-03-17_15h07.32.342,kallum_motion_pilot_GIST_update_2,2026.1.1,Win32,59.88023952,60827e52a046c9b82574d391,69b95efdef24cd8a694e89ee,69b9600393a698d00e814c9f,0.1001,0.1002,1,33,195,144,1,fivesix,,,,,,,,,,,,,,,,,,,,,,,,,,,,,,,,,,,,,,,,,,,,,,,,,,,,,,,,,,,,,,,,,,,,,,,,,,,,,,,,,,,,,,,,,,,,,,,,,,,,,,,,,,,,,,,,,,,,,,,,,,,,,,,,,,,,,,,,,
,,60827e52a046c9b82574d391,2026-03-17_15h07.32.342,kallum_motion_pilot_GIST_update_2,2026.1.1,Win32,59.88023952,60827e52a046c9b82574d391,69b95efdef24cd8a694e89ee,69b9600393a698d00e814c9f,0.1003,0.1004,1,34,196,133,1,seveneight,,,,,,,,,,,,,,,,,,,,,,,,,,,,,,,,,,,,,,,,,,,,,,,,,,,,,,,,,,,,,,,,,,,,,,,,,,,,,,,,,,,,,,,,,,,,,,,,,,,,,,,,,,,,,,,,,,,,,,,,,,,,,,,,,,,,,,,,,
,,60827e52a046c9b82574d391,2026-03-17_15h07.32.342,kallum_motion_pilot_GIST_update_2,2026.1.1,Win32,59.88023952,60827e52a046c9b82574d391,69b95efdef24cd8a694e89ee,69b9600393a698d00e814c9f,0.1006,0.1006,1,35,197,106,1,sixfive,,,,,,,,,,,,,,,,,,,,,,,,,,,,,,,,,,,,,,,,,,,,,,,,,,,,,,,,,,,,,,,,,,,,,,,,,,,,,,,,,,,,,,,,,,,,,,,,,,,,,,,,,,,,,,,,,,,,,,,,,,,,,,,,,,,,,,,,,
,,60827e52a046c9b82574d391,2026-03-17_15h07.32.342,kallum_motion_pilot_GIST_update_2,2026.1.1,Win32,59.88023952,60827e52a046c9b82574d391,69b95efdef24cd8a694e89ee,69b9600393a698d00e814c9f,0.1009,0.1009,1,36,198,9,1,onethree,,,,,,,,,,,,,,,,,,,,,,,,,,,,,,,,,,,,,,,,,,,,,,,,,,,,,,,,,,,,,,,,,,,,,,,,,,,,,,,,,,,,,,,,,,,,,,,,,,,,,,,,,,,,,,,,,,,,,,,,,,,,,,,,,,,,,,,,,
,,60827e52a046c9b82574d391,2026-03-17_15h07.32.342,kallum_motion_pilot_GIST_update_2,2026.1.1,Win32,59.88023952,60827e52a046c9b82574d391,69b95efdef24cd8a694e89ee,69b9600393a698d00e814c9f,0.1011,0.1011,1,37,199,59,1,twofour,,,,,,,,,,,,,,,,,,,,,,,,,,,,,,,,,,,,,,,,,,,,,,,,,,,,,,,,,,,,,,,,,,,,,,,,,,,,,,,,,,,,,,,,,,,,,,,,,,,,,,,,,,,,,,,,,,,,,,,,,,,,,,,,,,,,,,,,,
,,60827e52a046c9b82574d391,2026-03-17_15h07.32.342,kallum_motion_pilot_GIST_update_2,2026.1.1,Win32,59.88023952,60827e52a046c9b82574d391,69b95efdef24cd8a694e89ee,69b9600393a698d00e814c9f,0.1013,0.1013,1,38,200,81,1,fiveseven,,,,,,,,,,,,,,,,,,,,,,,,,,,,,,,,,,,,,,,,,,,,,,,,,,,,,,,,,,,,,,,,,,,,,,,,,,,,,,,,,,,,,,,,,,,,,,,,,,,,,,,,,,,,,,,,,,,,,,,,,,,,,,,,,,,,,,,,,
,,60827e52a046c9b82574d391,2026-03-17_15h07.32.342,kallum_motion_pilot_GIST_update_2,2026.1.1,Win32,59.88023952,60827e52a046c9b82574d391,69b95efdef24cd8a694e89ee,69b9600393a698d00e814c9f,0.1016,0.1016,1,39,201,116,1,sevenfive,,,,,,,,,,,,,,,,,,,,,,,,,,,,,,,,,,,,,,,,,,,,,,,,,,,,,,,,,,,,,,,,,,,,,,,,,,,,,,,,,,,,,,,,,,,,,,,,,,,,,,,,,,,,,,,,,,,,,,,,,,,,,,,,,,,,,,,,,
,,60827e52a046c9b82574d391,2026-03-17_15h07.32.342,kallum_motion_pilot_GIST_update_2,2026.1.1,Win32,59.88023952,60827e52a046c9b82574d391,69b95efdef24cd8a694e89ee,69b9600393a698d00e814c9f,0.1018,0.1018,1,40,202,40,1,onetwo,,,,,,,,,,,,,,,,,,,,,,,,,,,,,,,,,,,,,,,,,,,,,,,,,,,,,,,,,,,,,,,,,,,,,,,,,,,,,,,,,,,,,,,,,,,,,,,,,,,,,,,,,,,,,,,,,,,,,,,,,,,,,,,,,,,,,,,,,
,,60827e52a046c9b82574d391,2026-03-17_15h07.32.342,kallum_motion_pilot_GIST_update_2,2026.1.1,Win32,59.88023952,60827e52a046c9b82574d391,69b95efdef24cd8a694e89ee,69b9600393a698d00e814c9f,0.102,0.1021,1,41,203,105,1,fiveseven,,,,,,,,,,,,,,,,,,,,,,,,,,,,,,,,,,,,,,,,,,,,,,,,,,,,,,,,,,,,,,,,,,,,,,,,,,,,,,,,,,,,,,,,,,,,,,,,,,,,,,,,,,,,,,,,,,,,,,,,,,,,,,,,,,,,,,,,,
,,60827e52a046c9b82574d391,2026-03-17_15h07.32.342,kallum_motion_pilot_GIST_update_2,2026.1.1,Win32,59.88023952,60827e52a046c9b82574d391,69b95efdef24cd8a694e89ee,69b9600393a698d00e814c9f,0.1024,0.1026,1,42,204,139,1,sixeight,,,,,,,,,,,,,,,,,,,,,,,,,,,,,,,,,,,,,,,,,,,,,,,,,,,,,,,,,,,,,,,,,,,,,,,,,,,,,,,,,,,,,,,,,,,,,,,,,,,,,,,,,,,,,,,,,,,,,,,,,,,,,,,,,,,,,,,,,
,,60827e52a046c9b82574d391,2026-03-17_15h07.32.342,kallum_motion_pilot_GIST_update_2,2026.1.1,Win32,59.88023952,60827e52a046c9b82574d391,69b95efdef24cd8a694e89ee,69b9600393a698d00e814c9f,0.1032,0.1033,1,43,205,75,1,twofour,,,,,,,,,,,,,,,,,,,,,,,,,,,,,,,,,,,,,,,,,,,,,,,,,,,,,,,,,,,,,,,,,,,,,,,,,,,,,,,,,,,,,,,,,,,,,,,,,,,,,,,,,,,,,,,,,,,,,,,,,,,,,,,,,,,,,,,,,
,,60827e52a046c9b82574d391,2026-03-17_15h07.32.342,kallum_motion_pilot_GIST_update_2,2026.1.1,Win32,59.88023952,60827e52a046c9b82574d391,69b95efdef24cd8a694e89ee,69b9600393a698d00e814c9f,0.1036,0.1036,1,44,206,124,1,sevenfive,,,,,,,,,,,,,,,,,,,,,,,,,,,,,,,,,,,,,,,,,,,,,,,,,,,,,,,,,,,,,,,,,,,,,,,,,,,,,,,,,,,,,,,,,,,,,,,,,,,,,,,,,,,,,,,,,,,,,,,,,,,,,,,,,,,,,,,,,
,,60827e52a046c9b82574d391,2026-03-17_15h07.32.342,kallum_motion_pilot_GIST_update_2,2026.1.1,Win32,59.88023952,60827e52a046c9b82574d391,69b95efdef24cd8a694e89ee,69b9600393a698d00e814c9f,0.1039,0.1039,1,45,207,130,1,sixfive,,,,,,,,,,,,,,,,,,,,,,,,,,,,,,,,,,,,,,,,,,,,,,,,,,,,,,,,,,,,,,,,,,,,,,,,,,,,,,,,,,,,,,,,,,,,,,,,,,,,,,,,,,,,,,,,,,,,,,,,,,,,,,,,,,,,,,,,,
,,60827e52a046c9b82574d391,2026-03-17_15h07.32.342,kallum_motion_pilot_GIST_update_2,2026.1.1,Win32,59.88023952,60827e52a046c9b82574d391,69b95efdef24cd8a694e89ee,69b9600393a698d00e814c9f,0.1041,0.1041,1,46,208,68,1,threeone,,,,,,,,,,,,,,,,,,,,,,,,,,,,,,,,,,,,,,,,,,,,,,,,,,,,,,,,,,,,,,,,,,,,,,,,,,,,,,,,,,,,,,,,,,,,,,,,,,,,,,,,,,,,,,,,,,,,,,,,,,,,,,,,,,,,,,,,,
,,60827e52a046c9b82574d391,2026-03-17_15h07.32.342,kallum_motion_pilot_GIST_update_2,2026.1.1,Win32,59.88023952,60827e52a046c9b82574d391,69b95efdef24cd8a694e89ee,69b9600393a698d00e814c9f,0.1043,0.1044,1,47,209,29,1,threefour,,,,,,,,,,,,,,,,,,,,,,,,,,,,,,,,,,,,,,,,,,,,,,,,,,,,,,,,,,,,,,,,,,,,,,,,,,,,,,,,,,,,,,,,,,,,,,,,,,,,,,,,,,,,,,,,,,,,,,,,,,,,,,,,,,,,,,,,,
,,60827e52a046c9b82574d391,2026-03-17_15h07.32.342,kallum_motion_pilot_GIST_update_2,2026.1.1,Win32,59.88023952,60827e52a046c9b82574d391,69b95efdef24cd8a694e89ee,69b9600393a698d00e814c9f,0.1047,0.1047,1,48,210,152,1,fivesix,,,,,,,,,,,,,,,,,,,,,,,,,,,,,,,,,,,,,,,,,,,,,,,,,,,,,,,,,,,,,,,,,,,,,,,,,,,,,,,,,,,,,,,,,,,,,,,,,,,,,,,,,,,,,,,,,,,,,,,,,,,,,,,,,,,,,,,,,
,,60827e52a046c9b82574d391,2026-03-17_15h07.32.342,kallum_motion_pilot_GIST_update_2,2026.1.1,Win32,59.88023952,60827e52a046c9b82574d391,69b95efdef24cd8a694e89ee,69b9600393a698d00e814c9f,0.1049,0.1049,1,49,211,46,1,fourtwo,,,,,,,,,,,,,,,,,,,,,,,,,,,,,,,,,,,,,,,,,,,,,,,,,,,,,,,,,,,,,,,,,,,,,,,,,,,,,,,,,,,,,,,,,,,,,,,,,,,,,,,,,,,,,,,,,,,,,,,,,,,,,,,,,,,,,,,,,
,,60827e52a046c9b82574d391,2026-03-17_15h07.32.342,kallum_motion_pilot_GIST_update_2,2026.1.1,Win32,59.88023952,60827e52a046c9b82574d391,69b95efdef24cd8a694e89ee,69b9600393a698d00e814c9f,0.1051,0.1051,1,50,212,39,1,fourthree,,,,,,,,,,,,,,,,,,,,,,,,,,,,,,,,,,,,,,,,,,,,,,,,,,,,,,,,,,,,,,,,,,,,,,,,,,,,,,,,,,,,,,,,,,,,,,,,,,,,,,,,,,,,,,,,,,,,,,,,,,,,,,,,,,,,,,,,,
,,60827e52a046c9b82574d391,2026-03-17_15h07.32.342,kallum_motion_pilot_GIST_update_2,2026.1.1,Win32,59.88023952,60827e52a046c9b82574d391,69b95efdef24cd8a694e89ee,69b9600393a698d00e814c9f,0.1053,0.1053,1,51,213,61,1,threefour,,,,,,,,,,,,,,,,,,,,,,,,,,,,,,,,,,,,,,,,,,,,,,,,,,,,,,,,,,,,,,,,,,,,,,,,,,,,,,,,,,,,,,,,,,,,,,,,,,,,,,,,,,,,,,,,,,,,,,,,,,,,,,,,,,,,,,,,,
,,60827e52a046c9b82574d391,2026-03-17_15h07.32.342,kallum_motion_pilot_GIST_update_2,2026.1.1,Win32,59.88023952,60827e52a046c9b82574d391,69b95efdef24cd8a694e89ee,69b9600393a698d00e814c9f,0.1057,0.1057,1,52,214,3,1,twofour,,,,,,,,,,,,,,,,,,,,,,,,,,,,,,,,,,,,,,,,,,,,,,,,,,,,,,,,,,,,,,,,,,,,,,,,,,,,,,,,,,,,,,,,,,,,,,,,,,,,,,,,,,,,,,,,,,,,,,,,,,,,,,,,,,,,,,,,,
,,60827e52a046c9b82574d391,2026-03-17_15h07.32.342,kallum_motion_pilot_GIST_update_2,2026.1.1,Win32,59.88023952,60827e52a046c9b82574d391,69b95efdef24cd8a694e89ee,69b9600393a698d00e814c9f,0.1061,0.1061,1,53,215,132,1,sevenfive,,,,,,,,,,,,,,,,,,,,,,,,,,,,,,,,,,,,,,,,,,,,,,,,,,,,,,,,,,,,,,,,,,,,,,,,,,,,,,,,,,,,,,,,,,,,,,,,,,,,,,,,,,,,,,,,,,,,,,,,,,,,,,,,,,,,,,,,,
,,60827e52a046c9b82574d391,2026-03-17_15h07.32.342,kallum_motion_pilot_GIST_update_2,2026.1.1,Win32,59.88023952,60827e52a046c9b82574d391,69b95efdef24cd8a694e89ee,69b9600393a698d00e814c9f,0.1064,0.1064,1,54,216,53,1,threefour,,,,,,,,,,,,,,,,,,,,,,,,,,,,,,,,,,,,,,,,,,,,,,,,,,,,,,,,,,,,,,,,,,,,,,,,,,,,,,,,,,,,,,,,,,,,,,,,,,,,,,,,,,,,,,,,,,,,,,,,,,,,,,,,,,,,,,,,,
,,60827e52a046c9b82574d391,2026-03-17_15h07.32.342,kallum_motion_pilot_GIST_update_2,2026.1.1,Win32,59.88023952,60827e52a046c9b82574d391,69b95efdef24cd8a694e89ee,69b9600393a698d00e814c9f,0.1066,0.1067,1,55,217,114,1,sixfive,,,,,,,,,,,,,,,,,,,,,,,,,,,,,,,,,,,,,,,,,,,,,,,,,,,,,,,,,,,,,,,,,,,,,,,,,,,,,,,,,,,,,,,,,,,,,,,,,,,,,,,,,,,,,,,,,,,,,,,,,,,,,,,,,,,,,,,,,
,,60827e52a046c9b82574d391,2026-03-17_15h07.32.342,kallum_motion_pilot_GIST_update_2,2026.1.1,Win32,59.88023952,60827e52a046c9b82574d391,69b95efdef24cd8a694e89ee,69b9600393a698d00e814c9f,0.1069,0.1069,1,56,218,142,1,eightsix,,,,,,,,,,,,,,,,,,,,,,,,,,,,,,,,,,,,,,,,,,,,,,,,,,,,,,,,,,,,,,,,,,,,,,,,,,,,,,,,,,,,,,,,,,,,,,,,,,,,,,,,,,,,,,,,,,,,,,,,,,,,,,,,,,,,,,,,,
,,60827e52a046c9b82574d391,2026-03-17_15h07.32.342,kallum_motion_pilot_GIST_update_2,2026.1.1,Win32,59.88023952,60827e52a046c9b82574d391,69b95efdef24cd8a694e89ee,69b9600393a698d00e814c9f,0.1072,0.1072,1,57,219,33,1,onethree,,,,,,,,,,,,,,,,,,,,,,,,,,,,,,,,,,,,,,,,,,,,,,,,,,,,,,,,,,,,,,,,,,,,,,,,,,,,,,,,,,,,,,,,,,,,,,,,,,,,,,,,,,,,,,,,,,,,,,,,,,,,,,,,,,,,,,,,,
,,60827e52a046c9b82574d391,2026-03-17_15h07.32.342,kallum_motion_pilot_GIST_update_2,2026.1.1,Win32,59.88023952,60827e52a046c9b82574d391,69b95efdef24cd8a694e89ee,69b9600393a698d00e814c9f,0.1074,0.1074,1,58,220,157,1,seveneight,,,,,,,,,,,,,,,,,,,,,,,,,,,,,,,,,,,,,,,,,,,,,,,,,,,,,,,,,,,,,,,,,,,,,,,,,,,,,,,,,,,,,,,,,,,,,,,,,,,,,,,,,,,,,,,,,,,,,,,,,,,,,,,,,,,,,,,,,
,,60827e52a046c9b82574d391,2026-03-17_15h07.32.342,kallum_motion_pilot_GIST_update_2,2026.1.1,Win32,59.88023952,60827e52a046c9b82574d391,69b95efdef24cd8a694e89ee,69b9600393a698d00e814c9f,0.1077,0.1077,1,59,221,6,1,fourtwo,,,,,,,,,,,,,,,,,,,,,,,,,,,,,,,,,,,,,,,,,,,,,,,,,,,,,,,,,,,,,,,,,,,,,,,,,,,,,,,,,,,,,,,,,,,,,,,,,,,,,,,,,,,,,,,,,,,,,,,,,,,,,,,,,,,,,,,,,
,,60827e52a046c9b82574d391,2026-03-17_15h07.32.342,kallum_motion_pilot_GIST_update_2,2026.1.1,Win32,59.88023952,60827e52a046c9b82574d391,69b95efdef24cd8a694e89ee,69b9600393a698d00e814c9f,0.1079,0.1079,1,60,222,13,1,threefour,,,,,,,,,,,,,,,,,,,,,,,,,,,,,,,,,,,,,,,,,,,,,,,,,,,,,,,,,,,,,,,,,,,,,,,,,,,,,,,,,,,,,,,,,,,,,,,,,,,,,,,,,,,,,,,,,,,,,,,,,,,,,,,,,,,,,,,,,
,,60827e52a046c9b82574d391,2026-03-17_15h07.32.342,kallum_motion_pilot_GIST_update_2,2026.1.1,Win32,59.88023952,60827e52a046c9b82574d391,69b95efdef24cd8a694e89ee,69b9600393a698d00e814c9f,0.1081,0.1081,1,61,223,54,1,fourtwo,,,,,,,,,,,,,,,,,,,,,,,,,,,,,,,,,,,,,,,,,,,,,,,,,,,,,,,,,,,,,,,,,,,,,,,,,,,,,,,,,,,,,,,,,,,,,,,,,,,,,,,,,,,,,,,,,,,,,,,,,,,,,,,,,,,,,,,,,
,,60827e52a046c9b82574d391,2026-03-17_15h07.32.342,kallum_motion_pilot_GIST_update_2,2026.1.1,Win32,59.88023952,60827e52a046c9b82574d391,69b95efdef24cd8a694e89ee,69b9600393a698d00e814c9f,0.1084,0.1084,1,62,224,73,1,onethree,,,,,,,,,,,,,,,,,,,,,,,,,,,,,,,,,,,,,,,,,,,,,,,,,,,,,,,,,,,,,,,,,,,,,,,,,,,,,,,,,,,,,,,,,,,,,,,,,,,,,,,,,,,,,,,,,,,,,,,,,,,,,,,,,,,,,,,,,
,,60827e52a046c9b82574d391,2026-03-17_15h07.32.342,kallum_motion_pilot_GIST_update_2,2026.1.1,Win32,59.88023952,60827e52a046c9b82574d391,69b95efdef24cd8a694e89ee,69b9600393a698d00e814c9f,0.1086,0.1086,1,63,225,62,1,fourtwo,,,,,,,,,,,,,,,,,,,,,,,,,,,,,,,,,,,,,,,,,,,,,,,,,,,,,,,,,,,,,,,,,,,,,,,,,,,,,,,,,,,,,,,,,,,,,,,,,,,,,,,,,,,,,,,,,,,,,,,,,,,,,,,,,,,,,,,,,
,,60827e52a046c9b82574d391,2026-03-17_15h07.32.342,kallum_motion_pilot_GIST_update_2,2026.1.1,Win32,59.88023952,60827e52a046c9b82574d391,69b95efdef24cd8a694e89ee,69b9600393a698d00e814c9f,0.1089,0.1089,1,64,226,76,1,threeone,,,,,,,,,,,,,,,,,,,,,,,,,,,,,,,,,,,,,,,,,,,,,,,,,,,,,,,,,,,,,,,,,,,,,,,,,,,,,,,,,,,,,,,,,,,,,,,,,,,,,,,,,,,,,,,,,,,,,,,,,,,,,,,,,,,,,,,,,
,,60827e52a046c9b82574d391,2026-03-17_15h07.32.342,kallum_motion_pilot_GIST_update_2,2026.1.1,Win32,59.88023952,60827e52a046c9b82574d391,69b95efdef24cd8a694e89ee,69b9600393a698d00e814c9f,0.1091,0.1091,1,65,227,58,1,twoone,,,,,,,,,,,,,,,,,,,,,,,,,,,,,,,,,,,,,,,,,,,,,,,,,,,,,,,,,,,,,,,,,,,,,,,,,,,,,,,,,,,,,,,,,,,,,,,,,,,,,,,,,,,,,,,,,,,,,,,,,,,,,,,,,,,,,,,,,
,,60827e52a046c9b82574d391,2026-03-17_15h07.32.342,kallum_motion_pilot_GIST_update_2,2026.1.1,Win32,59.88023952,60827e52a046c9b82574d391,69b95efdef24cd8a694e89ee,69b9600393a698d00e814c9f,0.1093,0.1093,1,66,228,37,1,threefour,,,,,,,,,,,,,,,,,,,,,,,,,,,,,,,,,,,,,,,,,,,,,,,,,,,,,,,,,,,,,,,,,,,,,,,,,,,,,,,,,,,,,,,,,,,,,,,,,,,,,,,,,,,,,,,,,,,,,,,,,,,,,,,,,,,,,,,,,
,,60827e52a046c9b82574d391,2026-03-17_15h07.32.342,kallum_motion_pilot_GIST_update_2,2026.1.1,Win32,59.88023952,60827e52a046c9b82574d391,69b95efdef24cd8a694e89ee,69b9600393a698d00e814c9f,0.1096,0.1097,1,67,229,103,1,eightseven,,,,,,,,,,,,,,,,,,,,,,,,,,,,,,,,,,,,,,,,,,,,,,,,,,,,,,,,,,,,,,,,,,,,,,,,,,,,,,,,,,,,,,,,,,,,,,,,,,,,,,,,,,,,,,,,,,,,,,,,,,,,,,,,,,,,,,,,,
,,60827e52a046c9b82574d391,2026-03-17_15h07.32.342,kallum_motion_pilot_GIST_update_2,2026.1.1,Win32,59.88023952,60827e52a046c9b82574d391,69b95efdef24cd8a694e89ee,69b9600393a698d00e814c9f,0.1099,0.1099,1,68,230,22,1,fourtwo,,,,,,,,,,,,,,,,,,,,,,,,,,,,,,,,,,,,,,,,,,,,,,,,,,,,,,,,,,,,,,,,,,,,,,,,,,,,,,,,,,,,,,,,,,,,,,,,,,,,,,,,,,,,,,,,,,,,,,,,,,,,,,,,,,,,,,,,,
,,60827e52a046c9b82574d391,2026-03-17_15h07.32.342,kallum_motion_pilot_GIST_update_2,2026.1.1,Win32,59.88023952,60827e52a046c9b82574d391,69b95efdef24cd8a694e89ee,69b9600393a698d00e814c9f,0.1101,0.1102,1,69,231,148,1,sevenfive,,,,,,,,,,,,,,,,,,,,,,,,,,,,,,,,,,,,,,,,,,,,,,,,,,,,,,,,,,,,,,,,,,,,,,,,,,,,,,,,,,,,,,,,,,,,,,,,,,,,,,,,,,,,,,,,,,,,,,,,,,,,,,,,,,,,,,,,,
,,60827e52a046c9b82574d391,2026-03-17_15h07.32.342,kallum_motion_pilot_GIST_update_2,2026.1.1,Win32,59.88023952,60827e52a046c9b82574d391,69b95efdef24cd8a694e89ee,69b9600393a698d00e814c9f,0.1105,0.1106,1,70,232,50,1,twoone,,,,,,,,,,,,,,,,,,,,,,,,,,,,,,,,,,,,,,,,,,,,,,,,,,,,,,,,,,,,,,,,,,,,,,,,,,,,,,,,,,,,,,,,,,,,,,,,,,,,,,,,,,,,,,,,,,,,,,,,,,,,,,,,,,,,,,,,,
,,60827e52a046c9b82574d391,2026-03-17_15h07.32.342,kallum_motion_pilot_GIST_update_2,2026.1.1,Win32,59.88023952,60827e52a046c9b82574d391,69b95efdef24cd8a694e89ee,69b9600393a698d00e814c9f,0.1109,0.1109,1,71,233,11,1,twofour,,,,,,,,,,,,,,,,,,,,,,,,,,,,,,,,,,,,,,,,,,,,,,,,,,,,,,,,,,,,,,,,,,,,,,,,,,,,,,,,,,,,,,,,,,,,,,,,,,,,,,,,,,,,,,,,,,,,,,,,,,,,,,,,,,,,,,,,,
,,60827e52a046c9b82574d391,2026-03-17_15h07.32.342,kallum_motion_pilot_GIST_update_2,2026.1.1,Win32,59.88023952,60827e52a046c9b82574d391,69b95efdef24cd8a694e89ee,69b9600393a698d00e814c9f,0.1112,0.1112,1,72,234,10,1,twoone,,,,,,,,,,,,,,,,,,,,,,,,,,,,,,,,,,,,,,,,,,,,,,,,,,,,,,,,,,,,,,,,,,,,,,,,,,,,,,,,,,,,,,,,,,,,,,,,,,,,,,,,,,,,,,,,,,,,,,,,,,,,,,,,,,,,,,,,,
,,60827e52a046c9b82574d391,2026-03-17_15h07.32.342,kallum_motion_pilot_GIST_update_2,2026.1.1,Win32,59.88023952,60827e52a046c9b82574d391,69b95efdef24cd8a694e89ee,69b9600393a698d00e814c9f,0.1116,0.1116,1,73,235,99,1,sixeight,,,,,,,,,,,,,,,,,,,,,,,,,,,,,,,,,,,,,,,,,,,,,,,,,,,,,,,,,,,,,,,,,,,,,,,,,,,,,,,,,,,,,,,,,,,,,,,,,,,,,,,,,,,,,,,,,,,,,,,,,,,,,,,,,,,,,,,,,
,,60827e52a046c9b82574d391,2026-03-17_15h07.32.342,kallum_motion_pilot_GIST_update_2,2026.1.1,Win32,59.88023952,60827e52a046c9b82574d391,69b95efdef24cd8a694e89ee,69b9600393a698d00e814c9f,0.1119,0.1119,1,74,236,123,1,sixeight,,,,,,,,,,,,,,,,,,,,,,,,,,,,,,,,,,,,,,,,,,,,,,,,,,,,,,,,,,,,,,,,,,,,,,,,,,,,,,,,,,,,,,,,,,,,,,,,,,,,,,,,,,,,,,,,,,,,,,,,,,,,,,,,,,,,,,,,,
,,60827e52a046c9b82574d391,2026-03-17_15h07.32.342,kallum_motion_pilot_GIST_update_2,2026.1.1,Win32,59.88023952,60827e52a046c9b82574d391,69b95efdef24cd8a694e89ee,69b9600393a698d00e814c9f,0.1122,0.1122,1,75,237,119,1,eightseven,,,,,,,,,,,,,,,,,,,,,,,,,,,,,,,,,,,,,,,,,,,,,,,,,,,,,,,,,,,,,,,,,,,,,,,,,,,,,,,,,,,,,,,,,,,,,,,,,,,,,,,,,,,,,,,,,,,,,,,,,,,,,,,,,,,,,,,,,
,,60827e52a046c9b82574d391,2026-03-17_15h07.32.342,kallum_motion_pilot_GIST_update_2,2026.1.1,Win32,59.88023952,60827e52a046c9b82574d391,69b95efdef24cd8a694e89ee,69b9600393a698d00e814c9f,0.1124,0.1124,1,76,238,49,1,onethree,,,,,,,,,,,,,,,,,,,,,,,,,,,,,,,,,,,,,,,,,,,,,,,,,,,,,,,,,,,,,,,,,,,,,,,,,,,,,,,,,,,,,,,,,,,,,,,,,,,,,,,,,,,,,,,,,,,,,,,,,,,,,,,,,,,,,,,,,
,,60827e52a046c9b82574d391,2026-03-17_15h07.32.342,kallum_motion_pilot_GIST_update_2,2026.1.1,Win32,59.88023952,60827e52a046c9b82574d391,69b95efdef24cd8a694e89ee,69b9600393a698d00e814c9f,0.1129,0.113,1,77,239,63,1,fourthree,,,,,,,,,,,,,,,,,,,,,,,,,,,,,,,,,,,,,,,,,,,,,,,,,,,,,,,,,,,,,,,,,,,,,,,,,,,,,,,,,,,,,,,,,,,,,,,,,,,,,,,,,,,,,,,,,,,,,,,,,,,,,,,,,,,,,,,,,
,,60827e52a046c9b82574d391,2026-03-17_15h07.32.342,kallum_motion_pilot_GIST_update_2,2026.1.1,Win32,59.88023952,60827e52a046c9b82574d391,69b95efdef24cd8a694e89ee,69b9600393a698d00e814c9f,0.1132,0.1132,1,78,240,83,1,sixeight,,,,,,,,,,,,,,,,,,,,,,,,,,,,,,,,,,,,,,,,,,,,,,,,,,,,,,,,,,,,,,,,,,,,,,,,,,,,,,,,,,,,,,,,,,,,,,,,,,,,,,,,,,,,,,,,,,,,,,,,,,,,,,,,,,,,,,,,,
,,60827e52a046c9b82574d391,2026-03-17_15h07.32.342,kallum_motion_pilot_GIST_update_2,2026.1.1,Win32,59.88023952,60827e52a046c9b82574d391,69b95efdef24cd8a694e89ee,69b9600393a698d00e814c9f,0.1135,0.1135,1,79,241,44,1,threeone,,,,,,,,,,,,,,,,,,,,,,,,,,,,,,,,,,,,,,,,,,,,,,,,,,,,,,,,,,,,,,,,,,,,,,,,,,,,,,,,,,,,,,,,,,,,,,,,,,,,,,,,,,,,,,,,,,,,,,,,,,,,,,,,,,,,,,,,,
,,60827e52a046c9b82574d391,2026-03-17_15h07.32.342,kallum_motion_pilot_GIST_update_2,2026.1.1,Win32,59.88023952,60827e52a046c9b82574d391,69b95efdef24cd8a694e89ee,69b9600393a698d00e814c9f,0.1137,0.1137,1,80,242,135,1,eightseven,,,,,,,,,,,,,,,,,,,,,,,,,,,,,,,,,,,,,,,,,,,,,,,,,,,,,,,,,,,,,,,,,,,,,,,,,,,,,,,,,,,,,,,,,,,,,,,,,,,,,,,,,,,,,,,,,,,,,,,,,,,,,,,,,,,,,,,,,
,,60827e52a046c9b82574d391,2026-03-17_15h07.32.342,kallum_motion_pilot_GIST_update_2,2026.1.1,Win32,59.88023952,60827e52a046c9b82574d391,69b95efdef24cd8a694e89ee,69b9600393a698d00e814c9f,0.114,0.114,1,81,243,134,1,eightsix,,,,,,,,,,,,,,,,,,,,,,,,,,,,,,,,,,,,,,,,,,,,,,,,,,,,,,,,,,,,,,,,,,,,,,,,,,,,,,,,,,,,,,,,,,,,,,,,,,,,,,,,,,,,,,,,,,,,,,,,,,,,,,,,,,,,,,,,,
,,60827e52a046c9b82574d391,2026-03-17_15h07.32.342,kallum_motion_pilot_GIST_update_2,2026.1.1,Win32,59.88023952,60827e52a046c9b82574d391,69b95efdef24cd8a694e89ee,69b9600393a698d00e814c9f,0.1143,0.1143,1,82,244,66,1,twoone,,,,,,,,,,,,,,,,,,,,,,,,,,,,,,,,,,,,,,,,,,,,,,,,,,,,,,,,,,,,,,,,,,,,,,,,,,,,,,,,,,,,,,,,,,,,,,,,,,,,,,,,,,,,,,,,,,,,,,,,,,,,,,,,,,,,,,,,,
,,60827e52a046c9b82574d391,2026-03-17_15h07.32.342,kallum_motion_pilot_GIST_update_2,2026.1.1,Win32,59.88023952,60827e52a046c9b82574d391,69b95efdef24cd8a694e89ee,69b9600393a698d00e814c9f,0.1145,0.1145,1,83,245,111,1,eightseven,,,,,,,,,,,,,,,,,,,,,,,,,,,,,,,,,,,,,,,,,,,,,,,,,,,,,,,,,,,,,,,,,,,,,,,,,,,,,,,,,,,,,,,,,,,,,,,,,,,,,,,,,,,,,,,,,,,,,,,,,,,,,,,,,,,,,,,,,
,,60827e52a046c9b82574d391,2026-03-17_15h07.32.342,kallum_motion_pilot_GIST_update_2,2026.1.1,Win32,59.88023952,60827e52a046c9b82574d391,69b95efdef24cd8a694e89ee,69b9600393a698d00e814c9f,0.1148,0.1148,1,84,246,30,1,fourtwo,,,,,,,,,,,,,,,,,,,,,,,,,,,,,,,,,,,,,,,,,,,,,,,,,,,,,,,,,,,,,,,,,,,,,,,,,,,,,,,,,,,,,,,,,,,,,,,,,,,,,,,,,,,,,,,,,,,,,,,,,,,,,,,,,,,,,,,,,
,,60827e52a046c9b82574d391,2026-03-17_15h07.32.342,kallum_motion_pilot_GIST_update_2,2026.1.1,Win32,59.88023952,60827e52a046c9b82574d391,69b95efdef24cd8a694e89ee,69b9600393a698d00e814c9f,0.115,0.115,1,85,247,77,1,threefour,,,,,,,,,,,,,,,,,,,,,,,,,,,,,,,,,,,,,,,,,,,,,,,,,,,,,,,,,,,,,,,,,,,,,,,,,,,,,,,,,,,,,,,,,,,,,,,,,,,,,,,,,,,,,,,,,,,,,,,,,,,,,,,,,,,,,,,,,
,,60827e52a046c9b82574d391,2026-03-17_15h07.32.342,kallum_motion_pilot_GIST_update_2,2026.1.1,Win32,59.88023952,60827e52a046c9b82574d391,69b95efdef24cd8a694e89ee,69b9600393a698d00e814c9f,0.1153,0.1153,1,86,248,104,1,fivesix,,,,,,,,,,,,,,,,,,,,,,,,,,,,,,,,,,,,,,,,,,,,,,,,,,,,,,,,,,,,,,,,,,,,,,,,,,,,,,,,,,,,,,,,,,,,,,,,,,,,,,,,,,,,,,,,,,,,,,,,,,,,,,,,,,,,,,,,,
,,60827e52a046c9b82574d391,2026-03-17_15h07.32.342,kallum_motion_pilot_GIST_update_2,2026.1.1,Win32,59.88023952,60827e52a046c9b82574d391,69b95efdef24cd8a694e89ee,69b9600393a698d00e814c9f,0.1155,0.1155,1,87,249,34,1,twoone,,,,,,,,,,,,,,,,,,,,,,,,,,,,,,,,,,,,,,,,,,,,,,,,,,,,,,,,,,,,,,,,,,,,,,,,,,,,,,,,,,,,,,,,,,,,,,,,,,,,,,,,,,,,,,,,,,,,,,,,,,,,,,,,,,,,,,,,,
,,60827e52a046c9b82574d391,2026-03-17_15h07.32.342,kallum_motion_pilot_GIST_update_2,2026.1.1,Win32,59.88023952,60827e52a046c9b82574d391,69b95efdef24cd8a694e89ee,69b9600393a698d00e814c9f,0.1158,0.1159,1,88,250,19,1,twofour,,,,,,,,,,,,,,,,,,,,,,,,,,,,,,,,,,,,,,,,,,,,,,,,,,,,,,,,,,,,,,,,,,,,,,,,,,,,,,,,,,,,,,,,,,,,,,,,,,,,,,,,,,,,,,,,,,,,,,,,,,,,,,,,,,,,,,,,,
,,60827e52a046c9b82574d391,2026-03-17_15h07.32.342,kallum_motion_pilot_GIST_update_2,2026.1.1,Win32,59.88023952,60827e52a046c9b82574d391,69b95efdef24cd8a694e89ee,69b9600393a698d00e814c9f,0.1161,0.1161,1,89,251,25,1,onethree,,,,,,,,,,,,,,,,,,,,,,,,,,,,,,,,,,,,,,,,,,,,,,,,,,,,,,,,,,,,,,,,,,,,,,,,,,,,,,,,,,,,,,,,,,,,,,,,,,,,,,,,,,,,,,,,,,,,,,,,,,,,,,,,,,,,,,,,,
,,60827e52a046c9b82574d391,2026-03-17_15h07.32.342,kallum_motion_pilot_GIST_update_2,2026.1.1,Win32,59.88023952,60827e52a046c9b82574d391,69b95efdef24cd8a694e89ee,69b9600393a698d00e814c9f,0.1163,0.1163,1,90,252,120,1,fivesix,,,,,,,,,,,,,,,,,,,,,,,,,,,,,,,,,,,,,,,,,,,,,,,,,,,,,,,,,,,,,,,,,,,,,,,,,,,,,,,,,,,,,,,,,,,,,,,,,,,,,,,,,,,,,,,,,,,,,,,,,,,,,,,,,,,,,,,,,
,,60827e52a046c9b82574d391,2026-03-17_15h07.32.342,kallum_motion_pilot_GIST_update_2,2026.1.1,Win32,59.88023952,60827e52a046c9b82574d391,69b95efdef24cd8a694e89ee,69b9600393a698d00e814c9f,0.1166,0.1167,1,91,253,127,1,eightseven,,,,,,,,,,,,,,,,,,,,,,,,,,,,,,,,,,,,,,,,,,,,,,,,,,,,,,,,,,,,,,,,,,,,,,,,,,,,,,,,,,,,,,,,,,,,,,,,,,,,,,,,,,,,,,,,,,,,,,,,,,,,,,,,,,,,,,,,,
,,60827e52a046c9b82574d391,2026-03-17_15h07.32.342,kallum_motion_pilot_GIST_update_2,2026.1.1,Win32,59.88023952,60827e52a046c9b82574d391,69b95efdef24cd8a694e89ee,69b9600393a698d00e814c9f,0.117,0.117,1,92,254,2,1,twoone,,,,,,,,,,,,,,,,,,,,,,,,,,,,,,,,,,,,,,,,,,,,,,,,,,,,,,,,,,,,,,,,,,,,,,,,,,,,,,,,,,,,,,,,,,,,,,,,,,,,,,,,,,,,,,,,,,,,,,,,,,,,,,,,,,,,,,,,,
,,60827e52a046c9b82574d391,2026-03-17_15h07.32.342,kallum_motion_pilot_GIST_update_2,2026.1.1,Win32,59.88023952,60827e52a046c9b82574d391,69b95efdef24cd8a694e89ee,69b9600393a698d00e814c9f,0.1175,0.1175,1,93,255,94,1,eightsix,,,,,,,,,,,,,,,,,,,,,,,,,,,,,,,,,,,,,,,,,,,,,,,,,,,,,,,,,,,,,,,,,,,,,,,,,,,,,,,,,,,,,,,,,,,,,,,,,,,,,,,,,,,,,,,,,,,,,,,,,,,,,,,,,,,,,,,,,
,,60827e52a046c9b82574d391,2026-03-17_15h07.32.342,kallum_motion_pilot_GIST_update_2,2026.1.1,Win32,59.88023952,60827e52a046c9b82574d391,69b95efdef24cd8a694e89ee,69b9600393a698d00e814c9f,0.1178,0.1178,1,94,256,107,1,sixeight,,,,,,,,,,,,,,,,,,,,,,,,,,,,,,,,,,,,,,,,,,,,,,,,,,,,,,,,,,,,,,,,,,,,,,,,,,,,,,,,,,,,,,,,,,,,,,,,,,,,,,,,,,,,,,,,,,,,,,,,,,,,,,,,,,,,,,,,,
,,60827e52a046c9b82574d391,2026-03-17_15h07.32.342,kallum_motion_pilot_GIST_update_2,2026.1.1,Win32,59.88023952,60827e52a046c9b82574d391,69b95efdef24cd8a694e89ee,69b9600393a698d00e814c9f,0.1181,0.1181,1,95,257,141,1,seveneight,,,,,,,,,,,,,,,,,,,,,,,,,,,,,,,,,,,,,,,,,,,,,,,,,,,,,,,,,,,,,,,,,,,,,,,,,,,,,,,,,,,,,,,,,,,,,,,,,,,,,,,,,,,,,,,,,,,,,,,,,,,,,,,,,,,,,,,,,
,,60827e52a046c9b82574d391,2026-03-17_15h07.32.342,kallum_motion_pilot_GIST_update_2,2026.1.1,Win32,59.88023952,60827e52a046c9b82574d391,69b95efdef24cd8a694e89ee,69b9600393a698d00e814c9f,0.1184,0.1184,1,96,258,117,1,seveneight,,,,,,,,,,,,,,,,,,,,,,,,,,,,,,,,,,,,,,,,,,,,,,,,,,,,,,,,,,,,,,,,,,,,,,,,,,,,,,,,,,,,,,,,,,,,,,,,,,,,,,,,,,,,,,,,,,,,,,,,,,,,,,,,,,,,,,,,,
,,60827e52a046c9b82574d391,2026-03-17_15h07.32.342,kallum_motion_pilot_GIST_update_2,2026.1.1,Win32,59.88023952,60827e52a046c9b82574d391,69b95efdef24cd8a694e89ee,69b9600393a698d00e814c9f,0.1189,0.1189,1,97,259,31,1,fourthree,,,,,,,,,,,,,,,,,,,,,,,,,,,,,,,,,,,,,,,,,,,,,,,,,,,,,,,,,,,,,,,,,,,,,,,,,,,,,,,,,,,,,,,,,,,,,,,,,,,,,,,,,,,,,,,,,,,,,,,,,,,,,,,,,,,,,,,,,
,,60827e52a046c9b82574d391,2026-03-17_15h07.32.342,kallum_motion_pilot_GIST_update_2,2026.1.1,Win32,59.88023952,60827e52a046c9b82574d391,69b95efdef24cd8a694e89ee,69b9600393a698d00e814c9f,0.1192,0.1193,1,98,260,78,1,fourtwo,,,,,,,,,,,,,,,,,,,,,,,,,,,,,,,,,,,,,,,,,,,,,,,,,,,,,,,,,,,,,,,,,,,,,,,,,,,,,,,,,,,,,,,,,,,,,,,,,,,,,,,,,,,,,,,,,,,,,,,,,,,,,,,,,,,,,,,,,
,,60827e52a046c9b82574d391,2026-03-17_15h07.32.342,kallum_motion_pilot_GIST_update_2,2026.1.1,Win32,59.88023952,60827e52a046c9b82574d391,69b95efdef24cd8a694e89ee,69b9600393a698d00e814c9f,0.1195,0.1195,1,99,261,88,1,fivesix,,,,,,,,,,,,,,,,,,,,,,,,,,,,,,,,,,,,,,,,,,,,,,,,,,,,,,,,,,,,,,,,,,,,,,,,,,,,,,,,,,,,,,,,,,,,,,,,,,,,,,,,,,,,,,,,,,,,,,,,,,,,,,,,,,,,,,,,,
,,60827e52a046c9b82574d391,2026-03-17_15h07.32.342,kallum_motion_pilot_GIST_update_2,2026.1.1,Win32,59.88023952,60827e52a046c9b82574d391,69b95efdef24cd8a694e89ee,69b9600393a698d00e814c9f,0.1199,0.1199,1,100,262,18,1,twoone,,,,,,,,,,,,,,,,,,,,,,,,,,,,,,,,,,,,,,,,,,,,,,,,,,,,,,,,,,,,,,,,,,,,,,,,,,,,,,,,,,,,,,,,,,,,,,,,,,,,,,,,,,,,,,,,,,,,,,,,,,,,,,,,,,,,,,,,,
,,60827e52a046c9b82574d391,2026-03-17_15h07.32.342,kallum_motion_pilot_GIST_update_2,2026.1.1,Win32,59.88023952,60827e52a046c9b82574d391,69b95efdef24cd8a694e89ee,69b9600393a698d00e814c9f,0.1202,0.1202,1,101,263,90,1,sixfive,,,,,,,,,,,,,,,,,,,,,,,,,,,,,,,,,,,,,,,,,,,,,,,,,,,,,,,,,,,,,,,,,,,,,,,,,,,,,,,,,,,,,,,,,,,,,,,,,,,,,,,,,,,,,,,,,,,,,,,,,,,,,,,,,,,,,,,,,
,,60827e52a046c9b82574d391,2026-03-17_15h07.32.342,kallum_motion_pilot_GIST_update_2,2026.1.1,Win32,59.88023952,60827e52a046c9b82574d391,69b95efdef24cd8a694e89ee,69b9600393a698d00e814c9f,0.1207,0.1208,1,102,264,12,1,threeone,,,,,,,,,,,,,,,,,,,,,,,,,,,,,,,,,,,,,,,,,,,,,,,,,,,,,,,,,,,,,,,,,,,,,,,,,,,,,,,,,,,,,,,,,,,,,,,,,,,,,,,,,,,,,,,,,,,,,,,,,,,,,,,,,,,,,,,,,
,,60827e52a046c9b82574d391,2026-03-17_15h07.32.342,kallum_motion_pilot_GIST_update_2,2026.1.1,Win32,59.88023952,60827e52a046c9b82574d391,69b95efdef24cd8a694e89ee,69b9600393a698d00e814c9f,0.1213,0.1213,1,103,265,26,1,twoone,,,,,,,,,,,,,,,,,,,,,,,,,,,,,,,,,,,,,,,,,,,,,,,,,,,,,,,,,,,,,,,,,,,,,,,,,,,,,,,,,,,,,,,,,,,,,,,,,,,,,,,,,,,,,,,,,,,,,,,,,,,,,,,,,,,,,,,,,
,,60827e52a046c9b82574d391,2026-03-17_15h07.32.342,kallum_motion_pilot_GIST_update_2,2026.1.1,Win32,59.88023952,60827e52a046c9b82574d391,69b95efdef24cd8a694e89ee,69b9600393a698d00e814c9f,0.1216,0.1216,1,104,266,108,1,sevenfive,,,,,,,,,,,,,,,,,,,,,,,,,,,,,,,,,,,,,,,,,,,,,,,,,,,,,,,,,,,,,,,,,,,,,,,,,,,,,,,,,,,,,,,,,,,,,,,,,,,,,,,,,,,,,,,,,,,,,,,,,,,,,,,,,,,,,,,,,
