startup.started,startup.stopped,Prolific ID*,date,expName,psychopyVersion,OS,frameRate,participant,study_id,session,stimpositions.started,stimpositions.stopped,hardcoded_stimulus_positions.thisRepN,hardcoded_stimulus_positions.thisTrialN,hardcoded_stimulus_positions.thisN,hardcoded_stimulus_positions.thisIndex,hardcoded_stimulus_positions.ran,StimulusPos,stimorientation.started,stimorientation.stopped,prac_stimorientation_import_loop.thisRepN,prac_stimorientation_import_loop.thisTrialN,prac_stimorientation_import_loop.thisN,prac_stimorientation_import_loop.thisIndex,prac_stimorientation_import_loop.ran,Stimorientation,welcome_instr.started,welcome_instr.stopped,key_resp.keys,key_resp.rt,key_resp.duration,response_steppedout_1.started,response_steppedout_1.stopped,key_resp_20.keys,key_resp_20.rt,key_resp_20.duration,response_steppedout_2.started,response_steppedout_2.stopped,key_resp_19.keys,key_resp_19.rt,key_resp_19.duration,stim_response_instr.started,stim_response_instr.stopped,key_resp_15.keys,key_resp_15.rt,key_resp_15.duration,direction_instr_2.started,direction_instr_2.stopped,key_resp_9.keys,key_resp_9.rt,key_resp_9.duration,instr_prac.started,instr_prac.stopped,key_resp_10.keys,key_resp_10.rt,key_resp_10.duration,Stim1_display_prac.started,Stim1_display_prac.stopped,Ecc,Circle1_ori,Circle2_ori,response_prac.started,similarity,response_time,response_prac.stopped,mouse_5.x,mouse_5.y,mouse_5.leftButton,mouse_5.midButton,mouse_5.rightButton,mouse_5.clicked_name,responseprac_feedback.started,responseprac_feedback.stopped,summary2_prac.started,summary2_prac.stopped,mouse_6.x,mouse_6.y,mouse_6.leftButton,mouse_6.midButton,mouse_6.rightButton,mouse_6.clicked_name,duringprac.thisRepN,duringprac.thisTrialN,duringprac.thisN,duringprac.thisIndex,duringprac.ran,begin.started,begin.stopped,key_resp_22.keys,key_resp_22.rt,key_resp_22.duration,Stim1_display.started,Stim1_display.stopped,circle1_ori,circle2_ori,circle1_SF,circle2_SF,response.started,response.stopped,mouse.x,mouse.y,mouse.leftButton,mouse.midButton,mouse.rightButton,mouse.clicked_name,trialnumber,double_pass.thisRepN,double_pass.thisTrialN,double_pass.thisN,double_pass.thisIndex,double_pass.ran,double_pass.order,main_trial.thisRepN,main_trial.thisTrialN,main_trial.thisN,main_trial.thisIndex,main_trial.ran,main_trial.order,Trial_Counter,Catch,Frequencies,response_2.started,response_2.stopped,mouse_2.x,mouse_2.y,mouse_2.leftButton,mouse_2.midButton,mouse_2.rightButton,mouse_2.clicked_name,special_trial.started,special_trial.stopped,catch_1.started,catch_1.stopped,mouse_3.x,mouse_3.y,mouse_3.leftButton,mouse_3.midButton,mouse_3.rightButton,catchresponse,catchnumber,response_time_catch,response_sum.started,response_sum.stopped,mouse_11.x,mouse_11.y,mouse_11.leftButton,mouse_11.midButton,mouse_11.rightButton,flip_presentation_sequence_for_double_pass.started,flip_presentation_sequence_for_double_pass.stopped,goodbye.started,goodbye.stopped,key_resp_3.keys,key_resp_3.rt,key_resp_3.duration
0.0002,0.0003,608437f0b139060610c9f0c1,2026-03-17_06h22.50.759,kallum_motion_pilot_GIST_update_2,2026.1.1,Win32,59.88023952,608437f0b139060610c9f0c1,69b92ab4aef6dee357cd729a,69b92b608a516aaeaeb58a09,,,,,,,,,,,,,,,,,,,,,,,,,,,,,,,,,,,,,,,,,,,,,,,,,,,,,,,,,,,,,,,,,,,,,,,,,,,,,,,,,,,,,,,,,,,,,,,,,,,,,,,,,,,,,,,,,,,,,,,,,,,,,,,,,,,,,,,,,,,,,,,,,
,,608437f0b139060610c9f0c1,2026-03-17_06h22.50.759,kallum_motion_pilot_GIST_update_2,2026.1.1,Win32,59.88023952,608437f0b139060610c9f0c1,69b92ab4aef6dee357cd729a,69b92b608a516aaeaeb58a09,0.0116,0.0116,0,0,0,68,1,threeone,,,,,,,,,,,,,,,,,,,,,,,,,,,,,,,,,,,,,,,,,,,,,,,,,,,,,,,,,,,,,,,,,,,,,,,,,,,,,,,,,,,,,,,,,,,,,,,,,,,,,,,,,,,,,,,,,,,,,,,,,,,,,,,,,,,,,,,,,
,,608437f0b139060610c9f0c1,2026-03-17_06h22.50.759,kallum_motion_pilot_GIST_update_2,2026.1.1,Win32,59.88023952,608437f0b139060610c9f0c1,69b92ab4aef6dee357cd729a,69b92b608a516aaeaeb58a09,0.0117,0.0117,0,1,1,118,1,eightsix,,,,,,,,,,,,,,,,,,,,,,,,,,,,,,,,,,,,,,,,,,,,,,,,,,,,,,,,,,,,,,,,,,,,,,,,,,,,,,,,,,,,,,,,,,,,,,,,,,,,,,,,,,,,,,,,,,,,,,,,,,,,,,,,,,,,,,,,,
,,608437f0b139060610c9f0c1,2026-03-17_06h22.50.759,kallum_motion_pilot_GIST_update_2,2026.1.1,Win32,59.88023952,608437f0b139060610c9f0c1,69b92ab4aef6dee357cd729a,69b92b608a516aaeaeb58a09,0.0118,0.0118,0,2,2,158,1,eightsix,,,,,,,,,,,,,,,,,,,,,,,,,,,,,,,,,,,,,,,,,,,,,,,,,,,,,,,,,,,,,,,,,,,,,,,,,,,,,,,,,,,,,,,,,,,,,,,,,,,,,,,,,,,,,,,,,,,,,,,,,,,,,,,,,,,,,,,,,
,,608437f0b139060610c9f0c1,2026-03-17_06h22.50.759,kallum_motion_pilot_GIST_update_2,2026.1.1,Win32,59.88023952,608437f0b139060610c9f0c1,69b92ab4aef6dee357cd729a,69b92b608a516aaeaeb58a09,0.0127,0.0128,0,3,3,35,1,twofour,,,,,,,,,,,,,,,,,,,,,,,,,,,,,,,,,,,,,,,,,,,,,,,,,,,,,,,,,,,,,,,,,,,,,,,,,,,,,,,,,,,,,,,,,,,,,,,,,,,,,,,,,,,,,,,,,,,,,,,,,,,,,,,,,,,,,,,,,
,,608437f0b139060610c9f0c1,2026-03-17_06h22.50.759,kallum_motion_pilot_GIST_update_2,2026.1.1,Win32,59.88023952,608437f0b139060610c9f0c1,69b92ab4aef6dee357cd729a,69b92b608a516aaeaeb58a09,0.0128,0.0128,0,4,4,16,1,onetwo,,,,,,,,,,,,,,,,,,,,,,,,,,,,,,,,,,,,,,,,,,,,,,,,,,,,,,,,,,,,,,,,,,,,,,,,,,,,,,,,,,,,,,,,,,,,,,,,,,,,,,,,,,,,,,,,,,,,,,,,,,,,,,,,,,,,,,,,,
,,608437f0b139060610c9f0c1,2026-03-17_06h22.50.759,kallum_motion_pilot_GIST_update_2,2026.1.1,Win32,59.88023952,608437f0b139060610c9f0c1,69b92ab4aef6dee357cd729a,69b92b608a516aaeaeb58a09,0.0129,0.0129,0,5,5,116,1,sevenfive,,,,,,,,,,,,,,,,,,,,,,,,,,,,,,,,,,,,,,,,,,,,,,,,,,,,,,,,,,,,,,,,,,,,,,,,,,,,,,,,,,,,,,,,,,,,,,,,,,,,,,,,,,,,,,,,,,,,,,,,,,,,,,,,,,,,,,,,,
,,608437f0b139060610c9f0c1,2026-03-17_06h22.50.759,kallum_motion_pilot_GIST_update_2,2026.1.1,Win32,59.88023952,608437f0b139060610c9f0c1,69b92ab4aef6dee357cd729a,69b92b608a516aaeaeb58a09,0.013,0.013,0,6,6,136,1,fivesix,,,,,,,,,,,,,,,,,,,,,,,,,,,,,,,,,,,,,,,,,,,,,,,,,,,,,,,,,,,,,,,,,,,,,,,,,,,,,,,,,,,,,,,,,,,,,,,,,,,,,,,,,,,,,,,,,,,,,,,,,,,,,,,,,,,,,,,,,
,,608437f0b139060610c9f0c1,2026-03-17_06h22.50.759,kallum_motion_pilot_GIST_update_2,2026.1.1,Win32,59.88023952,608437f0b139060610c9f0c1,69b92ab4aef6dee357cd729a,69b92b608a516aaeaeb58a09,0.0131,0.0131,0,7,7,81,1,fiveseven,,,,,,,,,,,,,,,,,,,,,,,,,,,,,,,,,,,,,,,,,,,,,,,,,,,,,,,,,,,,,,,,,,,,,,,,,,,,,,,,,,,,,,,,,,,,,,,,,,,,,,,,,,,,,,,,,,,,,,,,,,,,,,,,,,,,,,,,,
,,608437f0b139060610c9f0c1,2026-03-17_06h22.50.759,kallum_motion_pilot_GIST_update_2,2026.1.1,Win32,59.88023952,608437f0b139060610c9f0c1,69b92ab4aef6dee357cd729a,69b92b608a516aaeaeb58a09,0.0132,0.0133,0,8,8,59,1,twofour,,,,,,,,,,,,,,,,,,,,,,,,,,,,,,,,,,,,,,,,,,,,,,,,,,,,,,,,,,,,,,,,,,,,,,,,,,,,,,,,,,,,,,,,,,,,,,,,,,,,,,,,,,,,,,,,,,,,,,,,,,,,,,,,,,,,,,,,,
,,608437f0b139060610c9f0c1,2026-03-17_06h22.50.759,kallum_motion_pilot_GIST_update_2,2026.1.1,Win32,59.88023952,608437f0b139060610c9f0c1,69b92ab4aef6dee357cd729a,69b92b608a516aaeaeb58a09,0.0133,0.0133,0,9,9,42,1,twoone,,,,,,,,,,,,,,,,,,,,,,,,,,,,,,,,,,,,,,,,,,,,,,,,,,,,,,,,,,,,,,,,,,,,,,,,,,,,,,,,,,,,,,,,,,,,,,,,,,,,,,,,,,,,,,,,,,,,,,,,,,,,,,,,,,,,,,,,,
,,608437f0b139060610c9f0c1,2026-03-17_06h22.50.759,kallum_motion_pilot_GIST_update_2,2026.1.1,Win32,59.88023952,608437f0b139060610c9f0c1,69b92ab4aef6dee357cd729a,69b92b608a516aaeaeb58a09,0.0133,0.0134,0,10,10,103,1,eightseven,,,,,,,,,,,,,,,,,,,,,,,,,,,,,,,,,,,,,,,,,,,,,,,,,,,,,,,,,,,,,,,,,,,,,,,,,,,,,,,,,,,,,,,,,,,,,,,,,,,,,,,,,,,,,,,,,,,,,,,,,,,,,,,,,,,,,,,,,
,,608437f0b139060610c9f0c1,2026-03-17_06h22.50.759,kallum_motion_pilot_GIST_update_2,2026.1.1,Win32,59.88023952,608437f0b139060610c9f0c1,69b92ab4aef6dee357cd729a,69b92b608a516aaeaeb58a09,0.0134,0.0134,0,11,11,27,1,twofour,,,,,,,,,,,,,,,,,,,,,,,,,,,,,,,,,,,,,,,,,,,,,,,,,,,,,,,,,,,,,,,,,,,,,,,,,,,,,,,,,,,,,,,,,,,,,,,,,,,,,,,,,,,,,,,,,,,,,,,,,,,,,,,,,,,,,,,,,
,,608437f0b139060610c9f0c1,2026-03-17_06h22.50.759,kallum_motion_pilot_GIST_update_2,2026.1.1,Win32,59.88023952,608437f0b139060610c9f0c1,69b92ab4aef6dee357cd729a,69b92b608a516aaeaeb58a09,0.0135,0.0135,0,12,12,119,1,eightseven,,,,,,,,,,,,,,,,,,,,,,,,,,,,,,,,,,,,,,,,,,,,,,,,,,,,,,,,,,,,,,,,,,,,,,,,,,,,,,,,,,,,,,,,,,,,,,,,,,,,,,,,,,,,,,,,,,,,,,,,,,,,,,,,,,,,,,,,,
,,608437f0b139060610c9f0c1,2026-03-17_06h22.50.759,kallum_motion_pilot_GIST_update_2,2026.1.1,Win32,59.88023952,608437f0b139060610c9f0c1,69b92ab4aef6dee357cd729a,69b92b608a516aaeaeb58a09,0.0136,0.0136,0,13,13,11,1,twofour,,,,,,,,,,,,,,,,,,,,,,,,,,,,,,,,,,,,,,,,,,,,,,,,,,,,,,,,,,,,,,,,,,,,,,,,,,,,,,,,,,,,,,,,,,,,,,,,,,,,,,,,,,,,,,,,,,,,,,,,,,,,,,,,,,,,,,,,,
,,608437f0b139060610c9f0c1,2026-03-17_06h22.50.759,kallum_motion_pilot_GIST_update_2,2026.1.1,Win32,59.88023952,608437f0b139060610c9f0c1,69b92ab4aef6dee357cd729a,69b92b608a516aaeaeb58a09,0.0136,0.0136,0,14,14,152,1,fivesix,,,,,,,,,,,,,,,,,,,,,,,,,,,,,,,,,,,,,,,,,,,,,,,,,,,,,,,,,,,,,,,,,,,,,,,,,,,,,,,,,,,,,,,,,,,,,,,,,,,,,,,,,,,,,,,,,,,,,,,,,,,,,,,,,,,,,,,,,
,,608437f0b139060610c9f0c1,2026-03-17_06h22.50.759,kallum_motion_pilot_GIST_update_2,2026.1.1,Win32,59.88023952,608437f0b139060610c9f0c1,69b92ab4aef6dee357cd729a,69b92b608a516aaeaeb58a09,0.0136,0.0136,0,15,15,47,1,fourthree,,,,,,,,,,,,,,,,,,,,,,,,,,,,,,,,,,,,,,,,,,,,,,,,,,,,,,,,,,,,,,,,,,,,,,,,,,,,,,,,,,,,,,,,,,,,,,,,,,,,,,,,,,,,,,,,,,,,,,,,,,,,,,,,,,,,,,,,,
,,608437f0b139060610c9f0c1,2026-03-17_06h22.50.759,kallum_motion_pilot_GIST_update_2,2026.1.1,Win32,59.88023952,608437f0b139060610c9f0c1,69b92ab4aef6dee357cd729a,69b92b608a516aaeaeb58a09,0.0137,0.0137,0,16,16,86,1,eightsix,,,,,,,,,,,,,,,,,,,,,,,,,,,,,,,,,,,,,,,,,,,,,,,,,,,,,,,,,,,,,,,,,,,,,,,,,,,,,,,,,,,,,,,,,,,,,,,,,,,,,,,,,,,,,,,,,,,,,,,,,,,,,,,,,,,,,,,,,
,,608437f0b139060610c9f0c1,2026-03-17_06h22.50.759,kallum_motion_pilot_GIST_update_2,2026.1.1,Win32,59.88023952,608437f0b139060610c9f0c1,69b92ab4aef6dee357cd729a,69b92b608a516aaeaeb58a09,0.0138,0.0138,0,17,17,17,1,onethree,,,,,,,,,,,,,,,,,,,,,,,,,,,,,,,,,,,,,,,,,,,,,,,,,,,,,,,,,,,,,,,,,,,,,,,,,,,,,,,,,,,,,,,,,,,,,,,,,,,,,,,,,,,,,,,,,,,,,,,,,,,,,,,,,,,,,,,,,
,,608437f0b139060610c9f0c1,2026-03-17_06h22.50.759,kallum_motion_pilot_GIST_update_2,2026.1.1,Win32,59.88023952,608437f0b139060610c9f0c1,69b92ab4aef6dee357cd729a,69b92b608a516aaeaeb58a09,0.0138,0.0138,0,18,18,130,1,sixfive,,,,,,,,,,,,,,,,,,,,,,,,,,,,,,,,,,,,,,,,,,,,,,,,,,,,,,,,,,,,,,,,,,,,,,,,,,,,,,,,,,,,,,,,,,,,,,,,,,,,,,,,,,,,,,,,,,,,,,,,,,,,,,,,,,,,,,,,,
,,608437f0b139060610c9f0c1,2026-03-17_06h22.50.759,kallum_motion_pilot_GIST_update_2,2026.1.1,Win32,59.88023952,608437f0b139060610c9f0c1,69b92ab4aef6dee357cd729a,69b92b608a516aaeaeb58a09,0.0138,0.0138,0,19,19,146,1,sixfive,,,,,,,,,,,,,,,,,,,,,,,,,,,,,,,,,,,,,,,,,,,,,,,,,,,,,,,,,,,,,,,,,,,,,,,,,,,,,,,,,,,,,,,,,,,,,,,,,,,,,,,,,,,,,,,,,,,,,,,,,,,,,,,,,,,,,,,,,
,,608437f0b139060610c9f0c1,2026-03-17_06h22.50.759,kallum_motion_pilot_GIST_update_2,2026.1.1,Win32,59.88023952,608437f0b139060610c9f0c1,69b92ab4aef6dee357cd729a,69b92b608a516aaeaeb58a09,0.0139,0.0139,0,20,20,56,1,onetwo,,,,,,,,,,,,,,,,,,,,,,,,,,,,,,,,,,,,,,,,,,,,,,,,,,,,,,,,,,,,,,,,,,,,,,,,,,,,,,,,,,,,,,,,,,,,,,,,,,,,,,,,,,,,,,,,,,,,,,,,,,,,,,,,,,,,,,,,,
,,608437f0b139060610c9f0c1,2026-03-17_06h22.50.759,kallum_motion_pilot_GIST_update_2,2026.1.1,Win32,59.88023952,608437f0b139060610c9f0c1,69b92ab4aef6dee357cd729a,69b92b608a516aaeaeb58a09,0.0139,0.0139,0,21,21,106,1,sixfive,,,,,,,,,,,,,,,,,,,,,,,,,,,,,,,,,,,,,,,,,,,,,,,,,,,,,,,,,,,,,,,,,,,,,,,,,,,,,,,,,,,,,,,,,,,,,,,,,,,,,,,,,,,,,,,,,,,,,,,,,,,,,,,,,,,,,,,,,
,,608437f0b139060610c9f0c1,2026-03-17_06h22.50.759,kallum_motion_pilot_GIST_update_2,2026.1.1,Win32,59.88023952,608437f0b139060610c9f0c1,69b92ab4aef6dee357cd729a,69b92b608a516aaeaeb58a09,0.014,0.014,0,22,22,93,1,seveneight,,,,,,,,,,,,,,,,,,,,,,,,,,,,,,,,,,,,,,,,,,,,,,,,,,,,,,,,,,,,,,,,,,,,,,,,,,,,,,,,,,,,,,,,,,,,,,,,,,,,,,,,,,,,,,,,,,,,,,,,,,,,,,,,,,,,,,,,,
,,608437f0b139060610c9f0c1,2026-03-17_06h22.50.759,kallum_motion_pilot_GIST_update_2,2026.1.1,Win32,59.88023952,608437f0b139060610c9f0c1,69b92ab4aef6dee357cd729a,69b92b608a516aaeaeb58a09,0.0141,0.0141,0,23,23,66,1,twoone,,,,,,,,,,,,,,,,,,,,,,,,,,,,,,,,,,,,,,,,,,,,,,,,,,,,,,,,,,,,,,,,,,,,,,,,,,,,,,,,,,,,,,,,,,,,,,,,,,,,,,,,,,,,,,,,,,,,,,,,,,,,,,,,,,,,,,,,,
,,608437f0b139060610c9f0c1,2026-03-17_06h22.50.759,kallum_motion_pilot_GIST_update_2,2026.1.1,Win32,59.88023952,608437f0b139060610c9f0c1,69b92ab4aef6dee357cd729a,69b92b608a516aaeaeb58a09,0.0141,0.0141,0,24,24,145,1,fiveseven,,,,,,,,,,,,,,,,,,,,,,,,,,,,,,,,,,,,,,,,,,,,,,,,,,,,,,,,,,,,,,,,,,,,,,,,,,,,,,,,,,,,,,,,,,,,,,,,,,,,,,,,,,,,,,,,,,,,,,,,,,,,,,,,,,,,,,,,,
,,608437f0b139060610c9f0c1,2026-03-17_06h22.50.759,kallum_motion_pilot_GIST_update_2,2026.1.1,Win32,59.88023952,608437f0b139060610c9f0c1,69b92ab4aef6dee357cd729a,69b92b608a516aaeaeb58a09,0.0142,0.0142,0,25,25,0,1,onetwo,,,,,,,,,,,,,,,,,,,,,,,,,,,,,,,,,,,,,,,,,,,,,,,,,,,,,,,,,,,,,,,,,,,,,,,,,,,,,,,,,,,,,,,,,,,,,,,,,,,,,,,,,,,,,,,,,,,,,,,,,,,,,,,,,,,,,,,,,
,,608437f0b139060610c9f0c1,2026-03-17_06h22.50.759,kallum_motion_pilot_GIST_update_2,2026.1.1,Win32,59.88023952,608437f0b139060610c9f0c1,69b92ab4aef6dee357cd729a,69b92b608a516aaeaeb58a09,0.0142,0.0142,0,26,26,49,1,onethree,,,,,,,,,,,,,,,,,,,,,,,,,,,,,,,,,,,,,,,,,,,,,,,,,,,,,,,,,,,,,,,,,,,,,,,,,,,,,,,,,,,,,,,,,,,,,,,,,,,,,,,,,,,,,,,,,,,,,,,,,,,,,,,,,,,,,,,,,
,,608437f0b139060610c9f0c1,2026-03-17_06h22.50.759,kallum_motion_pilot_GIST_update_2,2026.1.1,Win32,59.88023952,608437f0b139060610c9f0c1,69b92ab4aef6dee357cd729a,69b92b608a516aaeaeb58a09,0.0143,0.0143,0,27,27,100,1,sevenfive,,,,,,,,,,,,,,,,,,,,,,,,,,,,,,,,,,,,,,,,,,,,,,,,,,,,,,,,,,,,,,,,,,,,,,,,,,,,,,,,,,,,,,,,,,,,,,,,,,,,,,,,,,,,,,,,,,,,,,,,,,,,,,,,,,,,,,,,,
,,608437f0b139060610c9f0c1,2026-03-17_06h22.50.759,kallum_motion_pilot_GIST_update_2,2026.1.1,Win32,59.88023952,608437f0b139060610c9f0c1,69b92ab4aef6dee357cd729a,69b92b608a516aaeaeb58a09,0.0144,0.0144,0,28,28,125,1,seveneight,,,,,,,,,,,,,,,,,,,,,,,,,,,,,,,,,,,,,,,,,,,,,,,,,,,,,,,,,,,,,,,,,,,,,,,,,,,,,,,,,,,,,,,,,,,,,,,,,,,,,,,,,,,,,,,,,,,,,,,,,,,,,,,,,,,,,,,,,
,,608437f0b139060610c9f0c1,2026-03-17_06h22.50.759,kallum_motion_pilot_GIST_update_2,2026.1.1,Win32,59.88023952,608437f0b139060610c9f0c1,69b92ab4aef6dee357cd729a,69b92b608a516aaeaeb58a09,0.0145,0.0145,0,29,29,98,1,sixfive,,,,,,,,,,,,,,,,,,,,,,,,,,,,,,,,,,,,,,,,,,,,,,,,,,,,,,,,,,,,,,,,,,,,,,,,,,,,,,,,,,,,,,,,,,,,,,,,,,,,,,,,,,,,,,,,,,,,,,,,,,,,,,,,,,,,,,,,,
,,608437f0b139060610c9f0c1,2026-03-17_06h22.50.759,kallum_motion_pilot_GIST_update_2,2026.1.1,Win32,59.88023952,608437f0b139060610c9f0c1,69b92ab4aef6dee357cd729a,69b92b608a516aaeaeb58a09,0.0145,0.0145,0,30,30,85,1,seveneight,,,,,,,,,,,,,,,,,,,,,,,,,,,,,,,,,,,,,,,,,,,,,,,,,,,,,,,,,,,,,,,,,,,,,,,,,,,,,,,,,,,,,,,,,,,,,,,,,,,,,,,,,,,,,,,,,,,,,,,,,,,,,,,,,,,,,,,,,
,,608437f0b139060610c9f0c1,2026-03-17_06h22.50.759,kallum_motion_pilot_GIST_update_2,2026.1.1,Win32,59.88023952,608437f0b139060610c9f0c1,69b92ab4aef6dee357cd729a,69b92b608a516aaeaeb58a09,0.0147,0.0147,0,31,31,31,1,fourthree,,,,,,,,,,,,,,,,,,,,,,,,,,,,,,,,,,,,,,,,,,,,,,,,,,,,,,,,,,,,,,,,,,,,,,,,,,,,,,,,,,,,,,,,,,,,,,,,,,,,,,,,,,,,,,,,,,,,,,,,,,,,,,,,,,,,,,,,,
,,608437f0b139060610c9f0c1,2026-03-17_06h22.50.759,kallum_motion_pilot_GIST_update_2,2026.1.1,Win32,59.88023952,608437f0b139060610c9f0c1,69b92ab4aef6dee357cd729a,69b92b608a516aaeaeb58a09,0.0148,0.0148,0,32,32,40,1,onetwo,,,,,,,,,,,,,,,,,,,,,,,,,,,,,,,,,,,,,,,,,,,,,,,,,,,,,,,,,,,,,,,,,,,,,,,,,,,,,,,,,,,,,,,,,,,,,,,,,,,,,,,,,,,,,,,,,,,,,,,,,,,,,,,,,,,,,,,,,
,,608437f0b139060610c9f0c1,2026-03-17_06h22.50.759,kallum_motion_pilot_GIST_update_2,2026.1.1,Win32,59.88023952,608437f0b139060610c9f0c1,69b92ab4aef6dee357cd729a,69b92b608a516aaeaeb58a09,0.0149,0.0149,0,33,33,92,1,sevenfive,,,,,,,,,,,,,,,,,,,,,,,,,,,,,,,,,,,,,,,,,,,,,,,,,,,,,,,,,,,,,,,,,,,,,,,,,,,,,,,,,,,,,,,,,,,,,,,,,,,,,,,,,,,,,,,,,,,,,,,,,,,,,,,,,,,,,,,,,
,,608437f0b139060610c9f0c1,2026-03-17_06h22.50.759,kallum_motion_pilot_GIST_update_2,2026.1.1,Win32,59.88023952,608437f0b139060610c9f0c1,69b92ab4aef6dee357cd729a,69b92b608a516aaeaeb58a09,0.0149,0.0149,0,34,34,45,1,threefour,,,,,,,,,,,,,,,,,,,,,,,,,,,,,,,,,,,,,,,,,,,,,,,,,,,,,,,,,,,,,,,,,,,,,,,,,,,,,,,,,,,,,,,,,,,,,,,,,,,,,,,,,,,,,,,,,,,,,,,,,,,,,,,,,,,,,,,,,
,,608437f0b139060610c9f0c1,2026-03-17_06h22.50.759,kallum_motion_pilot_GIST_update_2,2026.1.1,Win32,59.88023952,608437f0b139060610c9f0c1,69b92ab4aef6dee357cd729a,69b92b608a516aaeaeb58a09,0.015,0.015,0,35,35,82,1,sixfive,,,,,,,,,,,,,,,,,,,,,,,,,,,,,,,,,,,,,,,,,,,,,,,,,,,,,,,,,,,,,,,,,,,,,,,,,,,,,,,,,,,,,,,,,,,,,,,,,,,,,,,,,,,,,,,,,,,,,,,,,,,,,,,,,,,,,,,,,
,,608437f0b139060610c9f0c1,2026-03-17_06h22.50.759,kallum_motion_pilot_GIST_update_2,2026.1.1,Win32,59.88023952,608437f0b139060610c9f0c1,69b92ab4aef6dee357cd729a,69b92b608a516aaeaeb58a09,0.0151,0.0151,0,36,36,105,1,fiveseven,,,,,,,,,,,,,,,,,,,,,,,,,,,,,,,,,,,,,,,,,,,,,,,,,,,,,,,,,,,,,,,,,,,,,,,,,,,,,,,,,,,,,,,,,,,,,,,,,,,,,,,,,,,,,,,,,,,,,,,,,,,,,,,,,,,,,,,,,
,,608437f0b139060610c9f0c1,2026-03-17_06h22.50.759,kallum_motion_pilot_GIST_update_2,2026.1.1,Win32,59.88023952,608437f0b139060610c9f0c1,69b92ab4aef6dee357cd729a,69b92b608a516aaeaeb58a09,0.0152,0.0152,0,37,37,13,1,threefour,,,,,,,,,,,,,,,,,,,,,,,,,,,,,,,,,,,,,,,,,,,,,,,,,,,,,,,,,,,,,,,,,,,,,,,,,,,,,,,,,,,,,,,,,,,,,,,,,,,,,,,,,,,,,,,,,,,,,,,,,,,,,,,,,,,,,,,,,
,,608437f0b139060610c9f0c1,2026-03-17_06h22.50.759,kallum_motion_pilot_GIST_update_2,2026.1.1,Win32,59.88023952,608437f0b139060610c9f0c1,69b92ab4aef6dee357cd729a,69b92b608a516aaeaeb58a09,0.0153,0.0153,0,38,38,138,1,sixfive,,,,,,,,,,,,,,,,,,,,,,,,,,,,,,,,,,,,,,,,,,,,,,,,,,,,,,,,,,,,,,,,,,,,,,,,,,,,,,,,,,,,,,,,,,,,,,,,,,,,,,,,,,,,,,,,,,,,,,,,,,,,,,,,,,,,,,,,,
,,608437f0b139060610c9f0c1,2026-03-17_06h22.50.759,kallum_motion_pilot_GIST_update_2,2026.1.1,Win32,59.88023952,608437f0b139060610c9f0c1,69b92ab4aef6dee357cd729a,69b92b608a516aaeaeb58a09,0.0153,0.0153,0,39,39,12,1,threeone,,,,,,,,,,,,,,,,,,,,,,,,,,,,,,,,,,,,,,,,,,,,,,,,,,,,,,,,,,,,,,,,,,,,,,,,,,,,,,,,,,,,,,,,,,,,,,,,,,,,,,,,,,,,,,,,,,,,,,,,,,,,,,,,,,,,,,,,,
,,608437f0b139060610c9f0c1,2026-03-17_06h22.50.759,kallum_motion_pilot_GIST_update_2,2026.1.1,Win32,59.88023952,608437f0b139060610c9f0c1,69b92ab4aef6dee357cd729a,69b92b608a516aaeaeb58a09,0.0154,0.0154,0,40,40,65,1,onethree,,,,,,,,,,,,,,,,,,,,,,,,,,,,,,,,,,,,,,,,,,,,,,,,,,,,,,,,,,,,,,,,,,,,,,,,,,,,,,,,,,,,,,,,,,,,,,,,,,,,,,,,,,,,,,,,,,,,,,,,,,,,,,,,,,,,,,,,,
,,608437f0b139060610c9f0c1,2026-03-17_06h22.50.759,kallum_motion_pilot_GIST_update_2,2026.1.1,Win32,59.88023952,608437f0b139060610c9f0c1,69b92ab4aef6dee357cd729a,69b92b608a516aaeaeb58a09,0.0155,0.0155,0,41,41,54,1,fourtwo,,,,,,,,,,,,,,,,,,,,,,,,,,,,,,,,,,,,,,,,,,,,,,,,,,,,,,,,,,,,,,,,,,,,,,,,,,,,,,,,,,,,,,,,,,,,,,,,,,,,,,,,,,,,,,,,,,,,,,,,,,,,,,,,,,,,,,,,,
,,608437f0b139060610c9f0c1,2026-03-17_06h22.50.759,kallum_motion_pilot_GIST_update_2,2026.1.1,Win32,59.88023952,608437f0b139060610c9f0c1,69b92ab4aef6dee357cd729a,69b92b608a516aaeaeb58a09,0.0155,0.0155,0,42,42,80,1,fivesix,,,,,,,,,,,,,,,,,,,,,,,,,,,,,,,,,,,,,,,,,,,,,,,,,,,,,,,,,,,,,,,,,,,,,,,,,,,,,,,,,,,,,,,,,,,,,,,,,,,,,,,,,,,,,,,,,,,,,,,,,,,,,,,,,,,,,,,,,
,,608437f0b139060610c9f0c1,2026-03-17_06h22.50.759,kallum_motion_pilot_GIST_update_2,2026.1.1,Win32,59.88023952,608437f0b139060610c9f0c1,69b92ab4aef6dee357cd729a,69b92b608a516aaeaeb58a09,0.0156,0.0156,0,43,43,101,1,seveneight,,,,,,,,,,,,,,,,,,,,,,,,,,,,,,,,,,,,,,,,,,,,,,,,,,,,,,,,,,,,,,,,,,,,,,,,,,,,,,,,,,,,,,,,,,,,,,,,,,,,,,,,,,,,,,,,,,,,,,,,,,,,,,,,,,,,,,,,,
,,608437f0b139060610c9f0c1,2026-03-17_06h22.50.759,kallum_motion_pilot_GIST_update_2,2026.1.1,Win32,59.88023952,608437f0b139060610c9f0c1,69b92ab4aef6dee357cd729a,69b92b608a516aaeaeb58a09,0.0156,0.0156,0,44,44,63,1,fourthree,,,,,,,,,,,,,,,,,,,,,,,,,,,,,,,,,,,,,,,,,,,,,,,,,,,,,,,,,,,,,,,,,,,,,,,,,,,,,,,,,,,,,,,,,,,,,,,,,,,,,,,,,,,,,,,,,,,,,,,,,,,,,,,,,,,,,,,,,
,,608437f0b139060610c9f0c1,2026-03-17_06h22.50.759,kallum_motion_pilot_GIST_update_2,2026.1.1,Win32,59.88023952,608437f0b139060610c9f0c1,69b92ab4aef6dee357cd729a,69b92b608a516aaeaeb58a09,0.0158,0.0158,0,45,45,154,1,sixfive,,,,,,,,,,,,,,,,,,,,,,,,,,,,,,,,,,,,,,,,,,,,,,,,,,,,,,,,,,,,,,,,,,,,,,,,,,,,,,,,,,,,,,,,,,,,,,,,,,,,,,,,,,,,,,,,,,,,,,,,,,,,,,,,,,,,,,,,,
,,608437f0b139060610c9f0c1,2026-03-17_06h22.50.759,kallum_motion_pilot_GIST_update_2,2026.1.1,Win32,59.88023952,608437f0b139060610c9f0c1,69b92ab4aef6dee357cd729a,69b92b608a516aaeaeb58a09,0.0158,0.0158,0,46,46,110,1,eightsix,,,,,,,,,,,,,,,,,,,,,,,,,,,,,,,,,,,,,,,,,,,,,,,,,,,,,,,,,,,,,,,,,,,,,,,,,,,,,,,,,,,,,,,,,,,,,,,,,,,,,,,,,,,,,,,,,,,,,,,,,,,,,,,,,,,,,,,,,
,,608437f0b139060610c9f0c1,2026-03-17_06h22.50.759,kallum_motion_pilot_GIST_update_2,2026.1.1,Win32,59.88023952,608437f0b139060610c9f0c1,69b92ab4aef6dee357cd729a,69b92b608a516aaeaeb58a09,0.0159,0.0159,0,47,47,124,1,sevenfive,,,,,,,,,,,,,,,,,,,,,,,,,,,,,,,,,,,,,,,,,,,,,,,,,,,,,,,,,,,,,,,,,,,,,,,,,,,,,,,,,,,,,,,,,,,,,,,,,,,,,,,,,,,,,,,,,,,,,,,,,,,,,,,,,,,,,,,,,
,,608437f0b139060610c9f0c1,2026-03-17_06h22.50.759,kallum_motion_pilot_GIST_update_2,2026.1.1,Win32,59.88023952,608437f0b139060610c9f0c1,69b92ab4aef6dee357cd729a,69b92b608a516aaeaeb58a09,0.016,0.016,0,48,48,78,1,fourtwo,,,,,,,,,,,,,,,,,,,,,,,,,,,,,,,,,,,,,,,,,,,,,,,,,,,,,,,,,,,,,,,,,,,,,,,,,,,,,,,,,,,,,,,,,,,,,,,,,,,,,,,,,,,,,,,,,,,,,,,,,,,,,,,,,,,,,,,,,
,,608437f0b139060610c9f0c1,2026-03-17_06h22.50.759,kallum_motion_pilot_GIST_update_2,2026.1.1,Win32,59.88023952,608437f0b139060610c9f0c1,69b92ab4aef6dee357cd729a,69b92b608a516aaeaeb58a09,0.016,0.016,0,49,49,161,1,fiveseven,,,,,,,,,,,,,,,,,,,,,,,,,,,,,,,,,,,,,,,,,,,,,,,,,,,,,,,,,,,,,,,,,,,,,,,,,,,,,,,,,,,,,,,,,,,,,,,,,,,,,,,,,,,,,,,,,,,,,,,,,,,,,,,,,,,,,,,,,
,,608437f0b139060610c9f0c1,2026-03-17_06h22.50.759,kallum_motion_pilot_GIST_update_2,2026.1.1,Win32,59.88023952,608437f0b139060610c9f0c1,69b92ab4aef6dee357cd729a,69b92b608a516aaeaeb58a09,0.0161,0.0161,0,50,50,153,1,fiveseven,,,,,,,,,,,,,,,,,,,,,,,,,,,,,,,,,,,,,,,,,,,,,,,,,,,,,,,,,,,,,,,,,,,,,,,,,,,,,,,,,,,,,,,,,,,,,,,,,,,,,,,,,,,,,,,,,,,,,,,,,,,,,,,,,,,,,,,,,
,,608437f0b139060610c9f0c1,2026-03-17_06h22.50.759,kallum_motion_pilot_GIST_update_2,2026.1.1,Win32,59.88023952,608437f0b139060610c9f0c1,69b92ab4aef6dee357cd729a,69b92b608a516aaeaeb58a09,0.0162,0.0162,0,51,51,117,1,seveneight,,,,,,,,,,,,,,,,,,,,,,,,,,,,,,,,,,,,,,,,,,,,,,,,,,,,,,,,,,,,,,,,,,,,,,,,,,,,,,,,,,,,,,,,,,,,,,,,,,,,,,,,,,,,,,,,,,,,,,,,,,,,,,,,,,,,,,,,,
,,608437f0b139060610c9f0c1,2026-03-17_06h22.50.759,kallum_motion_pilot_GIST_update_2,2026.1.1,Win32,59.88023952,608437f0b139060610c9f0c1,69b92ab4aef6dee357cd729a,69b92b608a516aaeaeb58a09,0.0162,0.0162,0,52,52,88,1,fivesix,,,,,,,,,,,,,,,,,,,,,,,,,,,,,,,,,,,,,,,,,,,,,,,,,,,,,,,,,,,,,,,,,,,,,,,,,,,,,,,,,,,,,,,,,,,,,,,,,,,,,,,,,,,,,,,,,,,,,,,,,,,,,,,,,,,,,,,,,
,,608437f0b139060610c9f0c1,2026-03-17_06h22.50.759,kallum_motion_pilot_GIST_update_2,2026.1.1,Win32,59.88023952,608437f0b139060610c9f0c1,69b92ab4aef6dee357cd729a,69b92b608a516aaeaeb58a09,0.0162,0.0162,0,53,53,83,1,sixeight,,,,,,,,,,,,,,,,,,,,,,,,,,,,,,,,,,,,,,,,,,,,,,,,,,,,,,,,,,,,,,,,,,,,,,,,,,,,,,,,,,,,,,,,,,,,,,,,,,,,,,,,,,,,,,,,,,,,,,,,,,,,,,,,,,,,,,,,,
,,608437f0b139060610c9f0c1,2026-03-17_06h22.50.759,kallum_motion_pilot_GIST_update_2,2026.1.1,Win32,59.88023952,608437f0b139060610c9f0c1,69b92ab4aef6dee357cd729a,69b92b608a516aaeaeb58a09,0.0163,0.0163,0,54,54,147,1,sixeight,,,,,,,,,,,,,,,,,,,,,,,,,,,,,,,,,,,,,,,,,,,,,,,,,,,,,,,,,,,,,,,,,,,,,,,,,,,,,,,,,,,,,,,,,,,,,,,,,,,,,,,,,,,,,,,,,,,,,,,,,,,,,,,,,,,,,,,,,
,,608437f0b139060610c9f0c1,2026-03-17_06h22.50.759,kallum_motion_pilot_GIST_update_2,2026.1.1,Win32,59.88023952,608437f0b139060610c9f0c1,69b92ab4aef6dee357cd729a,69b92b608a516aaeaeb58a09,0.0164,0.0164,0,55,55,22,1,fourtwo,,,,,,,,,,,,,,,,,,,,,,,,,,,,,,,,,,,,,,,,,,,,,,,,,,,,,,,,,,,,,,,,,,,,,,,,,,,,,,,,,,,,,,,,,,,,,,,,,,,,,,,,,,,,,,,,,,,,,,,,,,,,,,,,,,,,,,,,,
,,608437f0b139060610c9f0c1,2026-03-17_06h22.50.759,kallum_motion_pilot_GIST_update_2,2026.1.1,Win32,59.88023952,608437f0b139060610c9f0c1,69b92ab4aef6dee357cd729a,69b92b608a516aaeaeb58a09,0.0165,0.0165,0,56,56,20,1,threeone,,,,,,,,,,,,,,,,,,,,,,,,,,,,,,,,,,,,,,,,,,,,,,,,,,,,,,,,,,,,,,,,,,,,,,,,,,,,,,,,,,,,,,,,,,,,,,,,,,,,,,,,,,,,,,,,,,,,,,,,,,,,,,,,,,,,,,,,,
,,608437f0b139060610c9f0c1,2026-03-17_06h22.50.759,kallum_motion_pilot_GIST_update_2,2026.1.1,Win32,59.88023952,608437f0b139060610c9f0c1,69b92ab4aef6dee357cd729a,69b92b608a516aaeaeb58a09,0.0165,0.0165,0,57,57,36,1,threeone,,,,,,,,,,,,,,,,,,,,,,,,,,,,,,,,,,,,,,,,,,,,,,,,,,,,,,,,,,,,,,,,,,,,,,,,,,,,,,,,,,,,,,,,,,,,,,,,,,,,,,,,,,,,,,,,,,,,,,,,,,,,,,,,,,,,,,,,,
,,608437f0b139060610c9f0c1,2026-03-17_06h22.50.759,kallum_motion_pilot_GIST_update_2,2026.1.1,Win32,59.88023952,608437f0b139060610c9f0c1,69b92ab4aef6dee357cd729a,69b92b608a516aaeaeb58a09,0.0165,0.0165,0,58,58,69,1,threefour,,,,,,,,,,,,,,,,,,,,,,,,,,,,,,,,,,,,,,,,,,,,,,,,,,,,,,,,,,,,,,,,,,,,,,,,,,,,,,,,,,,,,,,,,,,,,,,,,,,,,,,,,,,,,,,,,,,,,,,,,,,,,,,,,,,,,,,,,
,,608437f0b139060610c9f0c1,2026-03-17_06h22.50.759,kallum_motion_pilot_GIST_update_2,2026.1.1,Win32,59.88023952,608437f0b139060610c9f0c1,69b92ab4aef6dee357cd729a,69b92b608a516aaeaeb58a09,0.0167,0.0167,0,59,59,62,1,fourtwo,,,,,,,,,,,,,,,,,,,,,,,,,,,,,,,,,,,,,,,,,,,,,,,,,,,,,,,,,,,,,,,,,,,,,,,,,,,,,,,,,,,,,,,,,,,,,,,,,,,,,,,,,,,,,,,,,,,,,,,,,,,,,,,,,,,,,,,,,
,,608437f0b139060610c9f0c1,2026-03-17_06h22.50.759,kallum_motion_pilot_GIST_update_2,2026.1.1,Win32,59.88023952,608437f0b139060610c9f0c1,69b92ab4aef6dee357cd729a,69b92b608a516aaeaeb58a09,0.0167,0.0167,0,60,60,109,1,seveneight,,,,,,,,,,,,,,,,,,,,,,,,,,,,,,,,,,,,,,,,,,,,,,,,,,,,,,,,,,,,,,,,,,,,,,,,,,,,,,,,,,,,,,,,,,,,,,,,,,,,,,,,,,,,,,,,,,,,,,,,,,,,,,,,,,,,,,,,,
,,608437f0b139060610c9f0c1,2026-03-17_06h22.50.759,kallum_motion_pilot_GIST_update_2,2026.1.1,Win32,59.88023952,608437f0b139060610c9f0c1,69b92ab4aef6dee357cd729a,69b92b608a516aaeaeb58a09,0.0167,0.0167,0,61,61,8,1,onetwo,,,,,,,,,,,,,,,,,,,,,,,,,,,,,,,,,,,,,,,,,,,,,,,,,,,,,,,,,,,,,,,,,,,,,,,,,,,,,,,,,,,,,,,,,,,,,,,,,,,,,,,,,,,,,,,,,,,,,,,,,,,,,,,,,,,,,,,,,
,,608437f0b139060610c9f0c1,2026-03-17_06h22.50.759,kallum_motion_pilot_GIST_update_2,2026.1.1,Win32,59.88023952,608437f0b139060610c9f0c1,69b92ab4aef6dee357cd729a,69b92b608a516aaeaeb58a09,0.0168,0.0168,0,62,62,75,1,twofour,,,,,,,,,,,,,,,,,,,,,,,,,,,,,,,,,,,,,,,,,,,,,,,,,,,,,,,,,,,,,,,,,,,,,,,,,,,,,,,,,,,,,,,,,,,,,,,,,,,,,,,,,,,,,,,,,,,,,,,,,,,,,,,,,,,,,,,,,
,,608437f0b139060610c9f0c1,2026-03-17_06h22.50.759,kallum_motion_pilot_GIST_update_2,2026.1.1,Win32,59.88023952,608437f0b139060610c9f0c1,69b92ab4aef6dee357cd729a,69b92b608a516aaeaeb58a09,0.0168,0.0168,0,63,63,84,1,sevenfive,,,,,,,,,,,,,,,,,,,,,,,,,,,,,,,,,,,,,,,,,,,,,,,,,,,,,,,,,,,,,,,,,,,,,,,,,,,,,,,,,,,,,,,,,,,,,,,,,,,,,,,,,,,,,,,,,,,,,,,,,,,,,,,,,,,,,,,,,
,,608437f0b139060610c9f0c1,2026-03-17_06h22.50.759,kallum_motion_pilot_GIST_update_2,2026.1.1,Win32,59.88023952,608437f0b139060610c9f0c1,69b92ab4aef6dee357cd729a,69b92b608a516aaeaeb58a09,0.017,0.017,0,64,64,24,1,onetwo,,,,,,,,,,,,,,,,,,,,,,,,,,,,,,,,,,,,,,,,,,,,,,,,,,,,,,,,,,,,,,,,,,,,,,,,,,,,,,,,,,,,,,,,,,,,,,,,,,,,,,,,,,,,,,,,,,,,,,,,,,,,,,,,,,,,,,,,,
,,608437f0b139060610c9f0c1,2026-03-17_06h22.50.759,kallum_motion_pilot_GIST_update_2,2026.1.1,Win32,59.88023952,608437f0b139060610c9f0c1,69b92ab4aef6dee357cd729a,69b92b608a516aaeaeb58a09,0.017,0.017,0,65,65,48,1,onetwo,,,,,,,,,,,,,,,,,,,,,,,,,,,,,,,,,,,,,,,,,,,,,,,,,,,,,,,,,,,,,,,,,,,,,,,,,,,,,,,,,,,,,,,,,,,,,,,,,,,,,,,,,,,,,,,,,,,,,,,,,,,,,,,,,,,,,,,,,
,,608437f0b139060610c9f0c1,2026-03-17_06h22.50.759,kallum_motion_pilot_GIST_update_2,2026.1.1,Win32,59.88023952,608437f0b139060610c9f0c1,69b92ab4aef6dee357cd729a,69b92b608a516aaeaeb58a09,0.0171,0.0171,0,66,66,108,1,sevenfive,,,,,,,,,,,,,,,,,,,,,,,,,,,,,,,,,,,,,,,,,,,,,,,,,,,,,,,,,,,,,,,,,,,,,,,,,,,,,,,,,,,,,,,,,,,,,,,,,,,,,,,,,,,,,,,,,,,,,,,,,,,,,,,,,,,,,,,,,
,,608437f0b139060610c9f0c1,2026-03-17_06h22.50.759,kallum_motion_pilot_GIST_update_2,2026.1.1,Win32,59.88023952,608437f0b139060610c9f0c1,69b92ab4aef6dee357cd729a,69b92b608a516aaeaeb58a09,0.0171,0.0172,0,67,67,139,1,sixeight,,,,,,,,,,,,,,,,,,,,,,,,,,,,,,,,,,,,,,,,,,,,,,,,,,,,,,,,,,,,,,,,,,,,,,,,,,,,,,,,,,,,,,,,,,,,,,,,,,,,,,,,,,,,,,,,,,,,,,,,,,,,,,,,,,,,,,,,,
,,608437f0b139060610c9f0c1,2026-03-17_06h22.50.759,kallum_motion_pilot_GIST_update_2,2026.1.1,Win32,59.88023952,608437f0b139060610c9f0c1,69b92ab4aef6dee357cd729a,69b92b608a516aaeaeb58a09,0.0172,0.0172,0,68,68,137,1,fiveseven,,,,,,,,,,,,,,,,,,,,,,,,,,,,,,,,,,,,,,,,,,,,,,,,,,,,,,,,,,,,,,,,,,,,,,,,,,,,,,,,,,,,,,,,,,,,,,,,,,,,,,,,,,,,,,,,,,,,,,,,,,,,,,,,,,,,,,,,,
,,608437f0b139060610c9f0c1,2026-03-17_06h22.50.759,kallum_motion_pilot_GIST_update_2,2026.1.1,Win32,59.88023952,608437f0b139060610c9f0c1,69b92ab4aef6dee357cd729a,69b92b608a516aaeaeb58a09,0.0173,0.0173,0,69,69,140,1,sevenfive,,,,,,,,,,,,,,,,,,,,,,,,,,,,,,,,,,,,,,,,,,,,,,,,,,,,,,,,,,,,,,,,,,,,,,,,,,,,,,,,,,,,,,,,,,,,,,,,,,,,,,,,,,,,,,,,,,,,,,,,,,,,,,,,,,,,,,,,,
,,608437f0b139060610c9f0c1,2026-03-17_06h22.50.759,kallum_motion_pilot_GIST_update_2,2026.1.1,Win32,59.88023952,608437f0b139060610c9f0c1,69b92ab4aef6dee357cd729a,69b92b608a516aaeaeb58a09,0.0174,0.0174,0,70,70,142,1,eightsix,,,,,,,,,,,,,,,,,,,,,,,,,,,,,,,,,,,,,,,,,,,,,,,,,,,,,,,,,,,,,,,,,,,,,,,,,,,,,,,,,,,,,,,,,,,,,,,,,,,,,,,,,,,,,,,,,,,,,,,,,,,,,,,,,,,,,,,,,
,,608437f0b139060610c9f0c1,2026-03-17_06h22.50.759,kallum_motion_pilot_GIST_update_2,2026.1.1,Win32,59.88023952,608437f0b139060610c9f0c1,69b92ab4aef6dee357cd729a,69b92b608a516aaeaeb58a09,0.0174,0.0174,0,71,71,90,1,sixfive,,,,,,,,,,,,,,,,,,,,,,,,,,,,,,,,,,,,,,,,,,,,,,,,,,,,,,,,,,,,,,,,,,,,,,,,,,,,,,,,,,,,,,,,,,,,,,,,,,,,,,,,,,,,,,,,,,,,,,,,,,,,,,,,,,,,,,,,,
,,608437f0b139060610c9f0c1,2026-03-17_06h22.50.759,kallum_motion_pilot_GIST_update_2,2026.1.1,Win32,59.88023952,608437f0b139060610c9f0c1,69b92ab4aef6dee357cd729a,69b92b608a516aaeaeb58a09,0.0175,0.0175,0,72,72,73,1,onethree,,,,,,,,,,,,,,,,,,,,,,,,,,,,,,,,,,,,,,,,,,,,,,,,,,,,,,,,,,,,,,,,,,,,,,,,,,,,,,,,,,,,,,,,,,,,,,,,,,,,,,,,,,,,,,,,,,,,,,,,,,,,,,,,,,,,,,,,,
,,608437f0b139060610c9f0c1,2026-03-17_06h22.50.759,kallum_motion_pilot_GIST_update_2,2026.1.1,Win32,59.88023952,608437f0b139060610c9f0c1,69b92ab4aef6dee357cd729a,69b92b608a516aaeaeb58a09,0.0176,0.0176,0,73,73,29,1,threefour,,,,,,,,,,,,,,,,,,,,,,,,,,,,,,,,,,,,,,,,,,,,,,,,,,,,,,,,,,,,,,,,,,,,,,,,,,,,,,,,,,,,,,,,,,,,,,,,,,,,,,,,,,,,,,,,,,,,,,,,,,,,,,,,,,,,,,,,,
,,608437f0b139060610c9f0c1,2026-03-17_06h22.50.759,kallum_motion_pilot_GIST_update_2,2026.1.1,Win32,59.88023952,608437f0b139060610c9f0c1,69b92ab4aef6dee357cd729a,69b92b608a516aaeaeb58a09,0.0176,0.0176,0,74,74,7,1,fourthree,,,,,,,,,,,,,,,,,,,,,,,,,,,,,,,,,,,,,,,,,,,,,,,,,,,,,,,,,,,,,,,,,,,,,,,,,,,,,,,,,,,,,,,,,,,,,,,,,,,,,,,,,,,,,,,,,,,,,,,,,,,,,,,,,,,,,,,,,
,,608437f0b139060610c9f0c1,2026-03-17_06h22.50.759,kallum_motion_pilot_GIST_update_2,2026.1.1,Win32,59.88023952,608437f0b139060610c9f0c1,69b92ab4aef6dee357cd729a,69b92b608a516aaeaeb58a09,0.0176,0.0176,0,75,75,50,1,twoone,,,,,,,,,,,,,,,,,,,,,,,,,,,,,,,,,,,,,,,,,,,,,,,,,,,,,,,,,,,,,,,,,,,,,,,,,,,,,,,,,,,,,,,,,,,,,,,,,,,,,,,,,,,,,,,,,,,,,,,,,,,,,,,,,,,,,,,,,
,,608437f0b139060610c9f0c1,2026-03-17_06h22.50.759,kallum_motion_pilot_GIST_update_2,2026.1.1,Win32,59.88023952,608437f0b139060610c9f0c1,69b92ab4aef6dee357cd729a,69b92b608a516aaeaeb58a09,0.0177,0.0177,0,76,76,6,1,fourtwo,,,,,,,,,,,,,,,,,,,,,,,,,,,,,,,,,,,,,,,,,,,,,,,,,,,,,,,,,,,,,,,,,,,,,,,,,,,,,,,,,,,,,,,,,,,,,,,,,,,,,,,,,,,,,,,,,,,,,,,,,,,,,,,,,,,,,,,,,
,,608437f0b139060610c9f0c1,2026-03-17_06h22.50.759,kallum_motion_pilot_GIST_update_2,2026.1.1,Win32,59.88023952,608437f0b139060610c9f0c1,69b92ab4aef6dee357cd729a,69b92b608a516aaeaeb58a09,0.0178,0.0178,0,77,77,126,1,eightsix,,,,,,,,,,,,,,,,,,,,,,,,,,,,,,,,,,,,,,,,,,,,,,,,,,,,,,,,,,,,,,,,,,,,,,,,,,,,,,,,,,,,,,,,,,,,,,,,,,,,,,,,,,,,,,,,,,,,,,,,,,,,,,,,,,,,,,,,,
,,608437f0b139060610c9f0c1,2026-03-17_06h22.50.759,kallum_motion_pilot_GIST_update_2,2026.1.1,Win32,59.88023952,608437f0b139060610c9f0c1,69b92ab4aef6dee357cd729a,69b92b608a516aaeaeb58a09,0.0178,0.0178,0,78,78,97,1,fiveseven,,,,,,,,,,,,,,,,,,,,,,,,,,,,,,,,,,,,,,,,,,,,,,,,,,,,,,,,,,,,,,,,,,,,,,,,,,,,,,,,,,,,,,,,,,,,,,,,,,,,,,,,,,,,,,,,,,,,,,,,,,,,,,,,,,,,,,,,,
,,608437f0b139060610c9f0c1,2026-03-17_06h22.50.759,kallum_motion_pilot_GIST_update_2,2026.1.1,Win32,59.88023952,608437f0b139060610c9f0c1,69b92ab4aef6dee357cd729a,69b92b608a516aaeaeb58a09,0.0179,0.0179,0,79,79,121,1,fiveseven,,,,,,,,,,,,,,,,,,,,,,,,,,,,,,,,,,,,,,,,,,,,,,,,,,,,,,,,,,,,,,,,,,,,,,,,,,,,,,,,,,,,,,,,,,,,,,,,,,,,,,,,,,,,,,,,,,,,,,,,,,,,,,,,,,,,,,,,,
,,608437f0b139060610c9f0c1,2026-03-17_06h22.50.759,kallum_motion_pilot_GIST_update_2,2026.1.1,Win32,59.88023952,608437f0b139060610c9f0c1,69b92ab4aef6dee357cd729a,69b92b608a516aaeaeb58a09,0.0179,0.0179,0,80,80,10,1,twoone,,,,,,,,,,,,,,,,,,,,,,,,,,,,,,,,,,,,,,,,,,,,,,,,,,,,,,,,,,,,,,,,,,,,,,,,,,,,,,,,,,,,,,,,,,,,,,,,,,,,,,,,,,,,,,,,,,,,,,,,,,,,,,,,,,,,,,,,,
,,608437f0b139060610c9f0c1,2026-03-17_06h22.50.759,kallum_motion_pilot_GIST_update_2,2026.1.1,Win32,59.88023952,608437f0b139060610c9f0c1,69b92ab4aef6dee357cd729a,69b92b608a516aaeaeb58a09,0.018,0.018,0,81,81,135,1,eightseven,,,,,,,,,,,,,,,,,,,,,,,,,,,,,,,,,,,,,,,,,,,,,,,,,,,,,,,,,,,,,,,,,,,,,,,,,,,,,,,,,,,,,,,,,,,,,,,,,,,,,,,,,,,,,,,,,,,,,,,,,,,,,,,,,,,,,,,,,
,,608437f0b139060610c9f0c1,2026-03-17_06h22.50.759,kallum_motion_pilot_GIST_update_2,2026.1.1,Win32,59.88023952,608437f0b139060610c9f0c1,69b92ab4aef6dee357cd729a,69b92b608a516aaeaeb58a09,0.0181,0.0181,0,82,82,159,1,eightseven,,,,,,,,,,,,,,,,,,,,,,,,,,,,,,,,,,,,,,,,,,,,,,,,,,,,,,,,,,,,,,,,,,,,,,,,,,,,,,,,,,,,,,,,,,,,,,,,,,,,,,,,,,,,,,,,,,,,,,,,,,,,,,,,,,,,,,,,,
,,608437f0b139060610c9f0c1,2026-03-17_06h22.50.759,kallum_motion_pilot_GIST_update_2,2026.1.1,Win32,59.88023952,608437f0b139060610c9f0c1,69b92ab4aef6dee357cd729a,69b92b608a516aaeaeb58a09,0.0182,0.0182,0,83,83,46,1,fourtwo,,,,,,,,,,,,,,,,,,,,,,,,,,,,,,,,,,,,,,,,,,,,,,,,,,,,,,,,,,,,,,,,,,,,,,,,,,,,,,,,,,,,,,,,,,,,,,,,,,,,,,,,,,,,,,,,,,,,,,,,,,,,,,,,,,,,,,,,,
,,608437f0b139060610c9f0c1,2026-03-17_06h22.50.759,kallum_motion_pilot_GIST_update_2,2026.1.1,Win32,59.88023952,608437f0b139060610c9f0c1,69b92ab4aef6dee357cd729a,69b92b608a516aaeaeb58a09,0.0183,0.0183,0,84,84,143,1,eightseven,,,,,,,,,,,,,,,,,,,,,,,,,,,,,,,,,,,,,,,,,,,,,,,,,,,,,,,,,,,,,,,,,,,,,,,,,,,,,,,,,,,,,,,,,,,,,,,,,,,,,,,,,,,,,,,,,,,,,,,,,,,,,,,,,,,,,,,,,
,,608437f0b139060610c9f0c1,2026-03-17_06h22.50.759,kallum_motion_pilot_GIST_update_2,2026.1.1,Win32,59.88023952,608437f0b139060610c9f0c1,69b92ab4aef6dee357cd729a,69b92b608a516aaeaeb58a09,0.0183,0.0183,0,85,85,115,1,sixeight,,,,,,,,,,,,,,,,,,,,,,,,,,,,,,,,,,,,,,,,,,,,,,,,,,,,,,,,,,,,,,,,,,,,,,,,,,,,,,,,,,,,,,,,,,,,,,,,,,,,,,,,,,,,,,,,,,,,,,,,,,,,,,,,,,,,,,,,,
,,608437f0b139060610c9f0c1,2026-03-17_06h22.50.759,kallum_motion_pilot_GIST_update_2,2026.1.1,Win32,59.88023952,608437f0b139060610c9f0c1,69b92ab4aef6dee357cd729a,69b92b608a516aaeaeb58a09,0.0184,0.0184,0,86,86,15,1,fourthree,,,,,,,,,,,,,,,,,,,,,,,,,,,,,,,,,,,,,,,,,,,,,,,,,,,,,,,,,,,,,,,,,,,,,,,,,,,,,,,,,,,,,,,,,,,,,,,,,,,,,,,,,,,,,,,,,,,,,,,,,,,,,,,,,,,,,,,,,
,,608437f0b139060610c9f0c1,2026-03-17_06h22.50.759,kallum_motion_pilot_GIST_update_2,2026.1.1,Win32,59.88023952,608437f0b139060610c9f0c1,69b92ab4aef6dee357cd729a,69b92b608a516aaeaeb58a09,0.0184,0.0185,0,87,87,155,1,sixeight,,,,,,,,,,,,,,,,,,,,,,,,,,,,,,,,,,,,,,,,,,,,,,,,,,,,,,,,,,,,,,,,,,,,,,,,,,,,,,,,,,,,,,,,,,,,,,,,,,,,,,,,,,,,,,,,,,,,,,,,,,,,,,,,,,,,,,,,,
,,608437f0b139060610c9f0c1,2026-03-17_06h22.50.759,kallum_motion_pilot_GIST_update_2,2026.1.1,Win32,59.88023952,608437f0b139060610c9f0c1,69b92ab4aef6dee357cd729a,69b92b608a516aaeaeb58a09,0.0185,0.0185,0,88,88,127,1,eightseven,,,,,,,,,,,,,,,,,,,,,,,,,,,,,,,,,,,,,,,,,,,,,,,,,,,,,,,,,,,,,,,,,,,,,,,,,,,,,,,,,,,,,,,,,,,,,,,,,,,,,,,,,,,,,,,,,,,,,,,,,,,,,,,,,,,,,,,,,
,,608437f0b139060610c9f0c1,2026-03-17_06h22.50.759,kallum_motion_pilot_GIST_update_2,2026.1.1,Win32,59.88023952,608437f0b139060610c9f0c1,69b92ab4aef6dee357cd729a,69b92b608a516aaeaeb58a09,0.0185,0.0185,0,89,89,53,1,threefour,,,,,,,,,,,,,,,,,,,,,,,,,,,,,,,,,,,,,,,,,,,,,,,,,,,,,,,,,,,,,,,,,,,,,,,,,,,,,,,,,,,,,,,,,,,,,,,,,,,,,,,,,,,,,,,,,,,,,,,,,,,,,,,,,,,,,,,,,
,,608437f0b139060610c9f0c1,2026-03-17_06h22.50.759,kallum_motion_pilot_GIST_update_2,2026.1.1,Win32,59.88023952,608437f0b139060610c9f0c1,69b92ab4aef6dee357cd729a,69b92b608a516aaeaeb58a09,0.0187,0.0187,0,90,90,19,1,twofour,,,,,,,,,,,,,,,,,,,,,,,,,,,,,,,,,,,,,,,,,,,,,,,,,,,,,,,,,,,,,,,,,,,,,,,,,,,,,,,,,,,,,,,,,,,,,,,,,,,,,,,,,,,,,,,,,,,,,,,,,,,,,,,,,,,,,,,,,
,,608437f0b139060610c9f0c1,2026-03-17_06h22.50.759,kallum_motion_pilot_GIST_update_2,2026.1.1,Win32,59.88023952,608437f0b139060610c9f0c1,69b92ab4aef6dee357cd729a,69b92b608a516aaeaeb58a09,0.0187,0.0187,0,91,91,30,1,fourtwo,,,,,,,,,,,,,,,,,,,,,,,,,,,,,,,,,,,,,,,,,,,,,,,,,,,,,,,,,,,,,,,,,,,,,,,,,,,,,,,,,,,,,,,,,,,,,,,,,,,,,,,,,,,,,,,,,,,,,,,,,,,,,,,,,,,,,,,,,
,,608437f0b139060610c9f0c1,2026-03-17_06h22.50.759,kallum_motion_pilot_GIST_update_2,2026.1.1,Win32,59.88023952,608437f0b139060610c9f0c1,69b92ab4aef6dee357cd729a,69b92b608a516aaeaeb58a09,0.0188,0.0188,0,92,92,141,1,seveneight,,,,,,,,,,,,,,,,,,,,,,,,,,,,,,,,,,,,,,,,,,,,,,,,,,,,,,,,,,,,,,,,,,,,,,,,,,,,,,,,,,,,,,,,,,,,,,,,,,,,,,,,,,,,,,,,,,,,,,,,,,,,,,,,,,,,,,,,,
,,608437f0b139060610c9f0c1,2026-03-17_06h22.50.759,kallum_motion_pilot_GIST_update_2,2026.1.1,Win32,59.88023952,608437f0b139060610c9f0c1,69b92ab4aef6dee357cd729a,69b92b608a516aaeaeb58a09,0.0188,0.0188,0,93,93,28,1,threeone,,,,,,,,,,,,,,,,,,,,,,,,,,,,,,,,,,,,,,,,,,,,,,,,,,,,,,,,,,,,,,,,,,,,,,,,,,,,,,,,,,,,,,,,,,,,,,,,,,,,,,,,,,,,,,,,,,,,,,,,,,,,,,,,,,,,,,,,,
,,608437f0b139060610c9f0c1,2026-03-17_06h22.50.759,kallum_motion_pilot_GIST_update_2,2026.1.1,Win32,59.88023952,608437f0b139060610c9f0c1,69b92ab4aef6dee357cd729a,69b92b608a516aaeaeb58a09,0.0189,0.0189,0,94,94,71,1,fourthree,,,,,,,,,,,,,,,,,,,,,,,,,,,,,,,,,,,,,,,,,,,,,,,,,,,,,,,,,,,,,,,,,,,,,,,,,,,,,,,,,,,,,,,,,,,,,,,,,,,,,,,,,,,,,,,,,,,,,,,,,,,,,,,,,,,,,,,,,
,,608437f0b139060610c9f0c1,2026-03-17_06h22.50.759,kallum_motion_pilot_GIST_update_2,2026.1.1,Win32,59.88023952,608437f0b139060610c9f0c1,69b92ab4aef6dee357cd729a,69b92b608a516aaeaeb58a09,0.019,0.019,0,95,95,94,1,eightsix,,,,,,,,,,,,,,,,,,,,,,,,,,,,,,,,,,,,,,,,,,,,,,,,,,,,,,,,,,,,,,,,,,,,,,,,,,,,,,,,,,,,,,,,,,,,,,,,,,,,,,,,,,,,,,,,,,,,,,,,,,,,,,,,,,,,,,,,,
,,608437f0b139060610c9f0c1,2026-03-17_06h22.50.759,kallum_motion_pilot_GIST_update_2,2026.1.1,Win32,59.88023952,608437f0b139060610c9f0c1,69b92ab4aef6dee357cd729a,69b92b608a516aaeaeb58a09,0.019,0.019,0,96,96,151,1,eightseven,,,,,,,,,,,,,,,,,,,,,,,,,,,,,,,,,,,,,,,,,,,,,,,,,,,,,,,,,,,,,,,,,,,,,,,,,,,,,,,,,,,,,,,,,,,,,,,,,,,,,,,,,,,,,,,,,,,,,,,,,,,,,,,,,,,,,,,,,
,,608437f0b139060610c9f0c1,2026-03-17_06h22.50.759,kallum_motion_pilot_GIST_update_2,2026.1.1,Win32,59.88023952,608437f0b139060610c9f0c1,69b92ab4aef6dee357cd729a,69b92b608a516aaeaeb58a09,0.0191,0.0191,0,97,97,74,1,twoone,,,,,,,,,,,,,,,,,,,,,,,,,,,,,,,,,,,,,,,,,,,,,,,,,,,,,,,,,,,,,,,,,,,,,,,,,,,,,,,,,,,,,,,,,,,,,,,,,,,,,,,,,,,,,,,,,,,,,,,,,,,,,,,,,,,,,,,,,
,,608437f0b139060610c9f0c1,2026-03-17_06h22.50.759,kallum_motion_pilot_GIST_update_2,2026.1.1,Win32,59.88023952,608437f0b139060610c9f0c1,69b92ab4aef6dee357cd729a,69b92b608a516aaeaeb58a09,0.0192,0.0192,0,98,98,67,1,twofour,,,,,,,,,,,,,,,,,,,,,,,,,,,,,,,,,,,,,,,,,,,,,,,,,,,,,,,,,,,,,,,,,,,,,,,,,,,,,,,,,,,,,,,,,,,,,,,,,,,,,,,,,,,,,,,,,,,,,,,,,,,,,,,,,,,,,,,,,
,,608437f0b139060610c9f0c1,2026-03-17_06h22.50.759,kallum_motion_pilot_GIST_update_2,2026.1.1,Win32,59.88023952,608437f0b139060610c9f0c1,69b92ab4aef6dee357cd729a,69b92b608a516aaeaeb58a09,0.0192,0.0192,0,99,99,52,1,threeone,,,,,,,,,,,,,,,,,,,,,,,,,,,,,,,,,,,,,,,,,,,,,,,,,,,,,,,,,,,,,,,,,,,,,,,,,,,,,,,,,,,,,,,,,,,,,,,,,,,,,,,,,,,,,,,,,,,,,,,,,,,,,,,,,,,,,,,,,
,,608437f0b139060610c9f0c1,2026-03-17_06h22.50.759,kallum_motion_pilot_GIST_update_2,2026.1.1,Win32,59.88023952,608437f0b139060610c9f0c1,69b92ab4aef6dee357cd729a,69b92b608a516aaeaeb58a09,0.0193,0.0193,0,100,100,23,1,fourthree,,,,,,,,,,,,,,,,,,,,,,,,,,,,,,,,,,,,,,,,,,,,,,,,,,,,,,,,,,,,,,,,,,,,,,,,,,,,,,,,,,,,,,,,,,,,,,,,,,,,,,,,,,,,,,,,,,,,,,,,,,,,,,,,,,,,,,,,,
,,608437f0b139060610c9f0c1,2026-03-17_06h22.50.759,kallum_motion_pilot_GIST_update_2,2026.1.1,Win32,59.88023952,608437f0b139060610c9f0c1,69b92ab4aef6dee357cd729a,69b92b608a516aaeaeb58a09,0.0194,0.0194,0,101,101,55,1,fourthree,,,,,,,,,,,,,,,,,,,,,,,,,,,,,,,,,,,,,,,,,,,,,,,,,,,,,,,,,,,,,,,,,,,,,,,,,,,,,,,,,,,,,,,,,,,,,,,,,,,,,,,,,,,,,,,,,,,,,,,,,,,,,,,,,,,,,,,,,
,,608437f0b139060610c9f0c1,2026-03-17_06h22.50.759,kallum_motion_pilot_GIST_update_2,2026.1.1,Win32,59.88023952,608437f0b139060610c9f0c1,69b92ab4aef6dee357cd729a,69b92b608a516aaeaeb58a09,0.0194,0.0194,0,102,102,39,1,fourthree,,,,,,,,,,,,,,,,,,,,,,,,,,,,,,,,,,,,,,,,,,,,,,,,,,,,,,,,,,,,,,,,,,,,,,,,,,,,,,,,,,,,,,,,,,,,,,,,,,,,,,,,,,,,,,,,,,,,,,,,,,,,,,,,,,,,,,,,,
,,608437f0b139060610c9f0c1,2026-03-17_06h22.50.759,kallum_motion_pilot_GIST_update_2,2026.1.1,Win32,59.88023952,608437f0b139060610c9f0c1,69b92ab4aef6dee357cd729a,69b92b608a516aaeaeb58a09,0.0195,0.0196,0,103,103,51,1,twofour,,,,,,,,,,,,,,,,,,,,,,,,,,,,,,,,,,,,,,,,,,,,,,,,,,,,,,,,,,,,,,,,,,,,,,,,,,,,,,,,,,,,,,,,,,,,,,,,,,,,,,,,,,,,,,,,,,,,,,,,,,,,,,,,,,,,,,,,,
,,608437f0b139060610c9f0c1,2026-03-17_06h22.50.759,kallum_motion_pilot_GIST_update_2,2026.1.1,Win32,59.88023952,608437f0b139060610c9f0c1,69b92ab4aef6dee357cd729a,69b92b608a516aaeaeb58a09,0.0196,0.0196,0,104,104,95,1,eightseven,,,,,,,,,,,,,,,,,,,,,,,,,,,,,,,,,,,,,,,,,,,,,,,,,,,,,,,,,,,,,,,,,,,,,,,,,,,,,,,,,,,,,,,,,,,,,,,,,,,,,,,,,,,,,,,,,,,,,,,,,,,,,,,,,,,,,,,,,
,,608437f0b139060610c9f0c1,2026-03-17_06h22.50.759,kallum_motion_pilot_GIST_update_2,2026.1.1,Win32,59.88023952,608437f0b139060610c9f0c1,69b92ab4aef6dee357cd729a,69b92b608a516aaeaeb58a09,0.0196,0.0196,0,105,105,120,1,fivesix,,,,,,,,,,,,,,,,,,,,,,,,,,,,,,,,,,,,,,,,,,,,,,,,,,,,,,,,,,,,,,,,,,,,,,,,,,,,,,,,,,,,,,,,,,,,,,,,,,,,,,,,,,,,,,,,,,,,,,,,,,,,,,,,,,,,,,,,,
,,608437f0b139060610c9f0c1,2026-03-17_06h22.50.759,kallum_motion_pilot_GIST_update_2,2026.1.1,Win32,59.88023952,608437f0b139060610c9f0c1,69b92ab4aef6dee357cd729a,69b92b608a516aaeaeb58a09,0.0197,0.0197,0,106,106,33,1,onethree,,,,,,,,,,,,,,,,,,,,,,,,,,,,,,,,,,,,,,,,,,,,,,,,,,,,,,,,,,,,,,,,,,,,,,,,,,,,,,,,,,,,,,,,,,,,,,,,,,,,,,,,,,,,,,,,,,,,,,,,,,,,,,,,,,,,,,,,,
,,608437f0b139060610c9f0c1,2026-03-17_06h22.50.759,kallum_motion_pilot_GIST_update_2,2026.1.1,Win32,59.88023952,608437f0b139060610c9f0c1,69b92ab4aef6dee357cd729a,69b92b608a516aaeaeb58a09,0.0198,0.0198,0,107,107,128,1,fivesix,,,,,,,,,,,,,,,,,,,,,,,,,,,,,,,,,,,,,,,,,,,,,,,,,,,,,,,,,,,,,,,,,,,,,,,,,,,,,,,,,,,,,,,,,,,,,,,,,,,,,,,,,,,,,,,,,,,,,,,,,,,,,,,,,,,,,,,,,
,,608437f0b139060610c9f0c1,2026-03-17_06h22.50.759,kallum_motion_pilot_GIST_update_2,2026.1.1,Win32,59.88023952,608437f0b139060610c9f0c1,69b92ab4aef6dee357cd729a,69b92b608a516aaeaeb58a09,0.0198,0.0198,0,108,108,144,1,fivesix,,,,,,,,,,,,,,,,,,,,,,,,,,,,,,,,,,,,,,,,,,,,,,,,,,,,,,,,,,,,,,,,,,,,,,,,,,,,,,,,,,,,,,,,,,,,,,,,,,,,,,,,,,,,,,,,,,,,,,,,,,,,,,,,,,,,,,,,,
,,608437f0b139060610c9f0c1,2026-03-17_06h22.50.759,kallum_motion_pilot_GIST_update_2,2026.1.1,Win32,59.88023952,608437f0b139060610c9f0c1,69b92ab4aef6dee357cd729a,69b92b608a516aaeaeb58a09,0.0199,0.0199,0,109,109,61,1,threefour,,,,,,,,,,,,,,,,,,,,,,,,,,,,,,,,,,,,,,,,,,,,,,,,,,,,,,,,,,,,,,,,,,,,,,,,,,,,,,,,,,,,,,,,,,,,,,,,,,,,,,,,,,,,,,,,,,,,,,,,,,,,,,,,,,,,,,,,,
,,608437f0b139060610c9f0c1,2026-03-17_06h22.50.759,kallum_motion_pilot_GIST_update_2,2026.1.1,Win32,59.88023952,608437f0b139060610c9f0c1,69b92ab4aef6dee357cd729a,69b92b608a516aaeaeb58a09,0.0199,0.0199,0,110,110,41,1,onethree,,,,,,,,,,,,,,,,,,,,,,,,,,,,,,,,,,,,,,,,,,,,,,,,,,,,,,,,,,,,,,,,,,,,,,,,,,,,,,,,,,,,,,,,,,,,,,,,,,,,,,,,,,,,,,,,,,,,,,,,,,,,,,,,,,,,,,,,,
,,608437f0b139060610c9f0c1,2026-03-17_06h22.50.759,kallum_motion_pilot_GIST_update_2,2026.1.1,Win32,59.88023952,608437f0b139060610c9f0c1,69b92ab4aef6dee357cd729a,69b92b608a516aaeaeb58a09,0.0201,0.0201,0,111,111,156,1,sevenfive,,,,,,,,,,,,,,,,,,,,,,,,,,,,,,,,,,,,,,,,,,,,,,,,,,,,,,,,,,,,,,,,,,,,,,,,,,,,,,,,,,,,,,,,,,,,,,,,,,,,,,,,,,,,,,,,,,,,,,,,,,,,,,,,,,,,,,,,,
,,608437f0b139060610c9f0c1,2026-03-17_06h22.50.759,kallum_motion_pilot_GIST_update_2,2026.1.1,Win32,59.88023952,608437f0b139060610c9f0c1,69b92ab4aef6dee357cd729a,69b92b608a516aaeaeb58a09,0.0201,0.0201,0,112,112,87,1,eightseven,,,,,,,,,,,,,,,,,,,,,,,,,,,,,,,,,,,,,,,,,,,,,,,,,,,,,,,,,,,,,,,,,,,,,,,,,,,,,,,,,,,,,,,,,,,,,,,,,,,,,,,,,,,,,,,,,,,,,,,,,,,,,,,,,,,,,,,,,
,,608437f0b139060610c9f0c1,2026-03-17_06h22.50.759,kallum_motion_pilot_GIST_update_2,2026.1.1,Win32,59.88023952,608437f0b139060610c9f0c1,69b92ab4aef6dee357cd729a,69b92b608a516aaeaeb58a09,0.0201,0.0201,0,113,113,77,1,threefour,,,,,,,,,,,,,,,,,,,,,,,,,,,,,,,,,,,,,,,,,,,,,,,,,,,,,,,,,,,,,,,,,,,,,,,,,,,,,,,,,,,,,,,,,,,,,,,,,,,,,,,,,,,,,,,,,,,,,,,,,,,,,,,,,,,,,,,,,
,,608437f0b139060610c9f0c1,2026-03-17_06h22.50.759,kallum_motion_pilot_GIST_update_2,2026.1.1,Win32,59.88023952,608437f0b139060610c9f0c1,69b92ab4aef6dee357cd729a,69b92b608a516aaeaeb58a09,0.0202,0.0202,0,114,114,91,1,sixeight,,,,,,,,,,,,,,,,,,,,,,,,,,,,,,,,,,,,,,,,,,,,,,,,,,,,,,,,,,,,,,,,,,,,,,,,,,,,,,,,,,,,,,,,,,,,,,,,,,,,,,,,,,,,,,,,,,,,,,,,,,,,,,,,,,,,,,,,,
,,608437f0b139060610c9f0c1,2026-03-17_06h22.50.759,kallum_motion_pilot_GIST_update_2,2026.1.1,Win32,59.88023952,608437f0b139060610c9f0c1,69b92ab4aef6dee357cd729a,69b92b608a516aaeaeb58a09,0.0203,0.0203,0,115,115,43,1,twofour,,,,,,,,,,,,,,,,,,,,,,,,,,,,,,,,,,,,,,,,,,,,,,,,,,,,,,,,,,,,,,,,,,,,,,,,,,,,,,,,,,,,,,,,,,,,,,,,,,,,,,,,,,,,,,,,,,,,,,,,,,,,,,,,,,,,,,,,,
,,608437f0b139060610c9f0c1,2026-03-17_06h22.50.759,kallum_motion_pilot_GIST_update_2,2026.1.1,Win32,59.88023952,608437f0b139060610c9f0c1,69b92ab4aef6dee357cd729a,69b92b608a516aaeaeb58a09,0.0203,0.0203,0,116,116,64,1,onetwo,,,,,,,,,,,,,,,,,,,,,,,,,,,,,,,,,,,,,,,,,,,,,,,,,,,,,,,,,,,,,,,,,,,,,,,,,,,,,,,,,,,,,,,,,,,,,,,,,,,,,,,,,,,,,,,,,,,,,,,,,,,,,,,,,,,,,,,,,
,,608437f0b139060610c9f0c1,2026-03-17_06h22.50.759,kallum_motion_pilot_GIST_update_2,2026.1.1,Win32,59.88023952,608437f0b139060610c9f0c1,69b92ab4aef6dee357cd729a,69b92b608a516aaeaeb58a09,0.0205,0.0205,0,117,117,149,1,seveneight,,,,,,,,,,,,,,,,,,,,,,,,,,,,,,,,,,,,,,,,,,,,,,,,,,,,,,,,,,,,,,,,,,,,,,,,,,,,,,,,,,,,,,,,,,,,,,,,,,,,,,,,,,,,,,,,,,,,,,,,,,,,,,,,,,,,,,,,,
,,608437f0b139060610c9f0c1,2026-03-17_06h22.50.759,kallum_motion_pilot_GIST_update_2,2026.1.1,Win32,59.88023952,608437f0b139060610c9f0c1,69b92ab4aef6dee357cd729a,69b92b608a516aaeaeb58a09,0.0205,0.0205,0,118,118,44,1,threeone,,,,,,,,,,,,,,,,,,,,,,,,,,,,,,,,,,,,,,,,,,,,,,,,,,,,,,,,,,,,,,,,,,,,,,,,,,,,,,,,,,,,,,,,,,,,,,,,,,,,,,,,,,,,,,,,,,,,,,,,,,,,,,,,,,,,,,,,,
,,608437f0b139060610c9f0c1,2026-03-17_06h22.50.759,kallum_motion_pilot_GIST_update_2,2026.1.1,Win32,59.88023952,608437f0b139060610c9f0c1,69b92ab4aef6dee357cd729a,69b92b608a516aaeaeb58a09,0.0206,0.0206,0,119,119,1,1,onethree,,,,,,,,,,,,,,,,,,,,,,,,,,,,,,,,,,,,,,,,,,,,,,,,,,,,,,,,,,,,,,,,,,,,,,,,,,,,,,,,,,,,,,,,,,,,,,,,,,,,,,,,,,,,,,,,,,,,,,,,,,,,,,,,,,,,,,,,,
,,608437f0b139060610c9f0c1,2026-03-17_06h22.50.759,kallum_motion_pilot_GIST_update_2,2026.1.1,Win32,59.88023952,608437f0b139060610c9f0c1,69b92ab4aef6dee357cd729a,69b92b608a516aaeaeb58a09,0.0206,0.0206,0,120,120,104,1,fivesix,,,,,,,,,,,,,,,,,,,,,,,,,,,,,,,,,,,,,,,,,,,,,,,,,,,,,,,,,,,,,,,,,,,,,,,,,,,,,,,,,,,,,,,,,,,,,,,,,,,,,,,,,,,,,,,,,,,,,,,,,,,,,,,,,,,,,,,,,
,,608437f0b139060610c9f0c1,2026-03-17_06h22.50.759,kallum_motion_pilot_GIST_update_2,2026.1.1,Win32,59.88023952,608437f0b139060610c9f0c1,69b92ab4aef6dee357cd729a,69b92b608a516aaeaeb58a09,0.0208,0.0208,0,121,121,3,1,twofour,,,,,,,,,,,,,,,,,,,,,,,,,,,,,,,,,,,,,,,,,,,,,,,,,,,,,,,,,,,,,,,,,,,,,,,,,,,,,,,,,,,,,,,,,,,,,,,,,,,,,,,,,,,,,,,,,,,,,,,,,,,,,,,,,,,,,,,,,
,,608437f0b139060610c9f0c1,2026-03-17_06h22.50.759,kallum_motion_pilot_GIST_update_2,2026.1.1,Win32,59.88023952,608437f0b139060610c9f0c1,69b92ab4aef6dee357cd729a,69b92b608a516aaeaeb58a09,0.0208,0.0208,0,122,122,58,1,twoone,,,,,,,,,,,,,,,,,,,,,,,,,,,,,,,,,,,,,,,,,,,,,,,,,,,,,,,,,,,,,,,,,,,,,,,,,,,,,,,,,,,,,,,,,,,,,,,,,,,,,,,,,,,,,,,,,,,,,,,,,,,,,,,,,,,,,,,,,
,,608437f0b139060610c9f0c1,2026-03-17_06h22.50.759,kallum_motion_pilot_GIST_update_2,2026.1.1,Win32,59.88023952,608437f0b139060610c9f0c1,69b92ab4aef6dee357cd729a,69b92b608a516aaeaeb58a09,0.0209,0.0209,0,123,123,99,1,sixeight,,,,,,,,,,,,,,,,,,,,,,,,,,,,,,,,,,,,,,,,,,,,,,,,,,,,,,,,,,,,,,,,,,,,,,,,,,,,,,,,,,,,,,,,,,,,,,,,,,,,,,,,,,,,,,,,,,,,,,,,,,,,,,,,,,,,,,,,,
,,608437f0b139060610c9f0c1,2026-03-17_06h22.50.759,kallum_motion_pilot_GIST_update_2,2026.1.1,Win32,59.88023952,608437f0b139060610c9f0c1,69b92ab4aef6dee357cd729a,69b92b608a516aaeaeb58a09,0.021,0.021,0,124,124,14,1,fourtwo,,,,,,,,,,,,,,,,,,,,,,,,,,,,,,,,,,,,,,,,,,,,,,,,,,,,,,,,,,,,,,,,,,,,,,,,,,,,,,,,,,,,,,,,,,,,,,,,,,,,,,,,,,,,,,,,,,,,,,,,,,,,,,,,,,,,,,,,,
,,608437f0b139060610c9f0c1,2026-03-17_06h22.50.759,kallum_motion_pilot_GIST_update_2,2026.1.1,Win32,59.88023952,608437f0b139060610c9f0c1,69b92ab4aef6dee357cd729a,69b92b608a516aaeaeb58a09,0.021,0.021,0,125,125,21,1,threefour,,,,,,,,,,,,,,,,,,,,,,,,,,,,,,,,,,,,,,,,,,,,,,,,,,,,,,,,,,,,,,,,,,,,,,,,,,,,,,,,,,,,,,,,,,,,,,,,,,,,,,,,,,,,,,,,,,,,,,,,,,,,,,,,,,,,,,,,,
,,608437f0b139060610c9f0c1,2026-03-17_06h22.50.759,kallum_motion_pilot_GIST_update_2,2026.1.1,Win32,59.88023952,608437f0b139060610c9f0c1,69b92ab4aef6dee357cd729a,69b92b608a516aaeaeb58a09,0.0211,0.0211,0,126,126,76,1,threeone,,,,,,,,,,,,,,,,,,,,,,,,,,,,,,,,,,,,,,,,,,,,,,,,,,,,,,,,,,,,,,,,,,,,,,,,,,,,,,,,,,,,,,,,,,,,,,,,,,,,,,,,,,,,,,,,,,,,,,,,,,,,,,,,,,,,,,,,,
,,608437f0b139060610c9f0c1,2026-03-17_06h22.50.759,kallum_motion_pilot_GIST_update_2,2026.1.1,Win32,59.88023952,608437f0b139060610c9f0c1,69b92ab4aef6dee357cd729a,69b92b608a516aaeaeb58a09,0.0211,0.0211,0,127,127,70,1,fourtwo,,,,,,,,,,,,,,,,,,,,,,,,,,,,,,,,,,,,,,,,,,,,,,,,,,,,,,,,,,,,,,,,,,,,,,,,,,,,,,,,,,,,,,,,,,,,,,,,,,,,,,,,,,,,,,,,,,,,,,,,,,,,,,,,,,,,,,,,,
,,608437f0b139060610c9f0c1,2026-03-17_06h22.50.759,kallum_motion_pilot_GIST_update_2,2026.1.1,Win32,59.88023952,608437f0b139060610c9f0c1,69b92ab4aef6dee357cd729a,69b92b608a516aaeaeb58a09,0.0212,0.0212,0,128,128,57,1,onethree,,,,,,,,,,,,,,,,,,,,,,,,,,,,,,,,,,,,,,,,,,,,,,,,,,,,,,,,,,,,,,,,,,,,,,,,,,,,,,,,,,,,,,,,,,,,,,,,,,,,,,,,,,,,,,,,,,,,,,,,,,,,,,,,,,,,,,,,,
,,608437f0b139060610c9f0c1,2026-03-17_06h22.50.759,kallum_motion_pilot_GIST_update_2,2026.1.1,Win32,59.88023952,608437f0b139060610c9f0c1,69b92ab4aef6dee357cd729a,69b92b608a516aaeaeb58a09,0.0213,0.0213,0,129,129,123,1,sixeight,,,,,,,,,,,,,,,,,,,,,,,,,,,,,,,,,,,,,,,,,,,,,,,,,,,,,,,,,,,,,,,,,,,,,,,,,,,,,,,,,,,,,,,,,,,,,,,,,,,,,,,,,,,,,,,,,,,,,,,,,,,,,,,,,,,,,,,,,
,,608437f0b139060610c9f0c1,2026-03-17_06h22.50.759,kallum_motion_pilot_GIST_update_2,2026.1.1,Win32,59.88023952,608437f0b139060610c9f0c1,69b92ab4aef6dee357cd729a,69b92b608a516aaeaeb58a09,0.0214,0.0214,0,130,130,113,1,fiveseven,,,,,,,,,,,,,,,,,,,,,,,,,,,,,,,,,,,,,,,,,,,,,,,,,,,,,,,,,,,,,,,,,,,,,,,,,,,,,,,,,,,,,,,,,,,,,,,,,,,,,,,,,,,,,,,,,,,,,,,,,,,,,,,,,,,,,,,,,
,,608437f0b139060610c9f0c1,2026-03-17_06h22.50.759,kallum_motion_pilot_GIST_update_2,2026.1.1,Win32,59.88023952,608437f0b139060610c9f0c1,69b92ab4aef6dee357cd729a,69b92b608a516aaeaeb58a09,0.0214,0.0214,0,131,131,38,1,fourtwo,,,,,,,,,,,,,,,,,,,,,,,,,,,,,,,,,,,,,,,,,,,,,,,,,,,,,,,,,,,,,,,,,,,,,,,,,,,,,,,,,,,,,,,,,,,,,,,,,,,,,,,,,,,,,,,,,,,,,,,,,,,,,,,,,,,,,,,,,
,,608437f0b139060610c9f0c1,2026-03-17_06h22.50.759,kallum_motion_pilot_GIST_update_2,2026.1.1,Win32,59.88023952,608437f0b139060610c9f0c1,69b92ab4aef6dee357cd729a,69b92b608a516aaeaeb58a09,0.0216,0.0216,0,132,132,122,1,sixfive,,,,,,,,,,,,,,,,,,,,,,,,,,,,,,,,,,,,,,,,,,,,,,,,,,,,,,,,,,,,,,,,,,,,,,,,,,,,,,,,,,,,,,,,,,,,,,,,,,,,,,,,,,,,,,,,,,,,,,,,,,,,,,,,,,,,,,,,,
,,608437f0b139060610c9f0c1,2026-03-17_06h22.50.759,kallum_motion_pilot_GIST_update_2,2026.1.1,Win32,59.88023952,608437f0b139060610c9f0c1,69b92ab4aef6dee357cd729a,69b92b608a516aaeaeb58a09,0.0216,0.0216,0,133,133,114,1,sixfive,,,,,,,,,,,,,,,,,,,,,,,,,,,,,,,,,,,,,,,,,,,,,,,,,,,,,,,,,,,,,,,,,,,,,,,,,,,,,,,,,,,,,,,,,,,,,,,,,,,,,,,,,,,,,,,,,,,,,,,,,,,,,,,,,,,,,,,,,
,,608437f0b139060610c9f0c1,2026-03-17_06h22.50.759,kallum_motion_pilot_GIST_update_2,2026.1.1,Win32,59.88023952,608437f0b139060610c9f0c1,69b92ab4aef6dee357cd729a,69b92b608a516aaeaeb58a09,0.0216,0.0217,0,134,134,148,1,sevenfive,,,,,,,,,,,,,,,,,,,,,,,,,,,,,,,,,,,,,,,,,,,,,,,,,,,,,,,,,,,,,,,,,,,,,,,,,,,,,,,,,,,,,,,,,,,,,,,,,,,,,,,,,,,,,,,,,,,,,,,,,,,,,,,,,,,,,,,,,
,,608437f0b139060610c9f0c1,2026-03-17_06h22.50.759,kallum_motion_pilot_GIST_update_2,2026.1.1,Win32,59.88023952,608437f0b139060610c9f0c1,69b92ab4aef6dee357cd729a,69b92b608a516aaeaeb58a09,0.0218,0.0218,0,135,135,157,1,seveneight,,,,,,,,,,,,,,,,,,,,,,,,,,,,,,,,,,,,,,,,,,,,,,,,,,,,,,,,,,,,,,,,,,,,,,,,,,,,,,,,,,,,,,,,,,,,,,,,,,,,,,,,,,,,,,,,,,,,,,,,,,,,,,,,,,,,,,,,,
,,608437f0b139060610c9f0c1,2026-03-17_06h22.50.759,kallum_motion_pilot_GIST_update_2,2026.1.1,Win32,59.88023952,608437f0b139060610c9f0c1,69b92ab4aef6dee357cd729a,69b92b608a516aaeaeb58a09,0.0219,0.0219,0,136,136,129,1,fiveseven,,,,,,,,,,,,,,,,,,,,,,,,,,,,,,,,,,,,,,,,,,,,,,,,,,,,,,,,,,,,,,,,,,,,,,,,,,,,,,,,,,,,,,,,,,,,,,,,,,,,,,,,,,,,,,,,,,,,,,,,,,,,,,,,,,,,,,,,,
,,608437f0b139060610c9f0c1,2026-03-17_06h22.50.759,kallum_motion_pilot_GIST_update_2,2026.1.1,Win32,59.88023952,608437f0b139060610c9f0c1,69b92ab4aef6dee357cd729a,69b92b608a516aaeaeb58a09,0.0219,0.0219,0,137,137,160,1,fivesix,,,,,,,,,,,,,,,,,,,,,,,,,,,,,,,,,,,,,,,,,,,,,,,,,,,,,,,,,,,,,,,,,,,,,,,,,,,,,,,,,,,,,,,,,,,,,,,,,,,,,,,,,,,,,,,,,,,,,,,,,,,,,,,,,,,,,,,,,
,,608437f0b139060610c9f0c1,2026-03-17_06h22.50.759,kallum_motion_pilot_GIST_update_2,2026.1.1,Win32,59.88023952,608437f0b139060610c9f0c1,69b92ab4aef6dee357cd729a,69b92b608a516aaeaeb58a09,0.022,0.022,0,138,138,112,1,fivesix,,,,,,,,,,,,,,,,,,,,,,,,,,,,,,,,,,,,,,,,,,,,,,,,,,,,,,,,,,,,,,,,,,,,,,,,,,,,,,,,,,,,,,,,,,,,,,,,,,,,,,,,,,,,,,,,,,,,,,,,,,,,,,,,,,,,,,,,,
,,608437f0b139060610c9f0c1,2026-03-17_06h22.50.759,kallum_motion_pilot_GIST_update_2,2026.1.1,Win32,59.88023952,608437f0b139060610c9f0c1,69b92ab4aef6dee357cd729a,69b92b608a516aaeaeb58a09,0.0221,0.0221,0,139,139,79,1,eightseven,,,,,,,,,,,,,,,,,,,,,,,,,,,,,,,,,,,,,,,,,,,,,,,,,,,,,,,,,,,,,,,,,,,,,,,,,,,,,,,,,,,,,,,,,,,,,,,,,,,,,,,,,,,,,,,,,,,,,,,,,,,,,,,,,,,,,,,,,
,,608437f0b139060610c9f0c1,2026-03-17_06h22.50.759,kallum_motion_pilot_GIST_update_2,2026.1.1,Win32,59.88023952,608437f0b139060610c9f0c1,69b92ab4aef6dee357cd729a,69b92b608a516aaeaeb58a09,0.0221,0.0221,0,140,140,26,1,twoone,,,,,,,,,,,,,,,,,,,,,,,,,,,,,,,,,,,,,,,,,,,,,,,,,,,,,,,,,,,,,,,,,,,,,,,,,,,,,,,,,,,,,,,,,,,,,,,,,,,,,,,,,,,,,,,,,,,,,,,,,,,,,,,,,,,,,,,,,
,,608437f0b139060610c9f0c1,2026-03-17_06h22.50.759,kallum_motion_pilot_GIST_update_2,2026.1.1,Win32,59.88023952,608437f0b139060610c9f0c1,69b92ab4aef6dee357cd729a,69b92b608a516aaeaeb58a09,0.0222,0.0222,0,141,141,4,1,threeone,,,,,,,,,,,,,,,,,,,,,,,,,,,,,,,,,,,,,,,,,,,,,,,,,,,,,,,,,,,,,,,,,,,,,,,,,,,,,,,,,,,,,,,,,,,,,,,,,,,,,,,,,,,,,,,,,,,,,,,,,,,,,,,,,,,,,,,,,
,,608437f0b139060610c9f0c1,2026-03-17_06h22.50.759,kallum_motion_pilot_GIST_update_2,2026.1.1,Win32,59.88023952,608437f0b139060610c9f0c1,69b92ab4aef6dee357cd729a,69b92b608a516aaeaeb58a09,0.0223,0.0223,0,142,142,131,1,sixeight,,,,,,,,,,,,,,,,,,,,,,,,,,,,,,,,,,,,,,,,,,,,,,,,,,,,,,,,,,,,,,,,,,,,,,,,,,,,,,,,,,,,,,,,,,,,,,,,,,,,,,,,,,,,,,,,,,,,,,,,,,,,,,,,,,,,,,,,,
,,608437f0b139060610c9f0c1,2026-03-17_06h22.50.759,kallum_motion_pilot_GIST_update_2,2026.1.1,Win32,59.88023952,608437f0b139060610c9f0c1,69b92ab4aef6dee357cd729a,69b92b608a516aaeaeb58a09,0.0224,0.0224,0,143,143,18,1,twoone,,,,,,,,,,,,,,,,,,,,,,,,,,,,,,,,,,,,,,,,,,,,,,,,,,,,,,,,,,,,,,,,,,,,,,,,,,,,,,,,,,,,,,,,,,,,,,,,,,,,,,,,,,,,,,,,,,,,,,,,,,,,,,,,,,,,,,,,,
,,608437f0b139060610c9f0c1,2026-03-17_06h22.50.759,kallum_motion_pilot_GIST_update_2,2026.1.1,Win32,59.88023952,608437f0b139060610c9f0c1,69b92ab4aef6dee357cd729a,69b92b608a516aaeaeb58a09,0.0224,0.0224,0,144,144,32,1,onetwo,,,,,,,,,,,,,,,,,,,,,,,,,,,,,,,,,,,,,,,,,,,,,,,,,,,,,,,,,,,,,,,,,,,,,,,,,,,,,,,,,,,,,,,,,,,,,,,,,,,,,,,,,,,,,,,,,,,,,,,,,,,,,,,,,,,,,,,,,
,,608437f0b139060610c9f0c1,2026-03-17_06h22.50.759,kallum_motion_pilot_GIST_update_2,2026.1.1,Win32,59.88023952,608437f0b139060610c9f0c1,69b92ab4aef6dee357cd729a,69b92b608a516aaeaeb58a09,0.0224,0.0224,0,145,145,25,1,onethree,,,,,,,,,,,,,,,,,,,,,,,,,,,,,,,,,,,,,,,,,,,,,,,,,,,,,,,,,,,,,,,,,,,,,,,,,,,,,,,,,,,,,,,,,,,,,,,,,,,,,,,,,,,,,,,,,,,,,,,,,,,,,,,,,,,,,,,,,
,,608437f0b139060610c9f0c1,2026-03-17_06h22.50.759,kallum_motion_pilot_GIST_update_2,2026.1.1,Win32,59.88023952,608437f0b139060610c9f0c1,69b92ab4aef6dee357cd729a,69b92b608a516aaeaeb58a09,0.0225,0.0225,0,146,146,34,1,twoone,,,,,,,,,,,,,,,,,,,,,,,,,,,,,,,,,,,,,,,,,,,,,,,,,,,,,,,,,,,,,,,,,,,,,,,,,,,,,,,,,,,,,,,,,,,,,,,,,,,,,,,,,,,,,,,,,,,,,,,,,,,,,,,,,,,,,,,,,
,,608437f0b139060610c9f0c1,2026-03-17_06h22.50.759,kallum_motion_pilot_GIST_update_2,2026.1.1,Win32,59.88023952,608437f0b139060610c9f0c1,69b92ab4aef6dee357cd729a,69b92b608a516aaeaeb58a09,0.0226,0.0226,0,147,147,102,1,eightsix,,,,,,,,,,,,,,,,,,,,,,,,,,,,,,,,,,,,,,,,,,,,,,,,,,,,,,,,,,,,,,,,,,,,,,,,,,,,,,,,,,,,,,,,,,,,,,,,,,,,,,,,,,,,,,,,,,,,,,,,,,,,,,,,,,,,,,,,,
,,608437f0b139060610c9f0c1,2026-03-17_06h22.50.759,kallum_motion_pilot_GIST_update_2,2026.1.1,Win32,59.88023952,608437f0b139060610c9f0c1,69b92ab4aef6dee357cd729a,69b92b608a516aaeaeb58a09,0.0227,0.0227,0,148,148,96,1,fivesix,,,,,,,,,,,,,,,,,,,,,,,,,,,,,,,,,,,,,,,,,,,,,,,,,,,,,,,,,,,,,,,,,,,,,,,,,,,,,,,,,,,,,,,,,,,,,,,,,,,,,,,,,,,,,,,,,,,,,,,,,,,,,,,,,,,,,,,,,
,,608437f0b139060610c9f0c1,2026-03-17_06h22.50.759,kallum_motion_pilot_GIST_update_2,2026.1.1,Win32,59.88023952,608437f0b139060610c9f0c1,69b92ab4aef6dee357cd729a,69b92b608a516aaeaeb58a09,0.0227,0.0227,0,149,149,60,1,threeone,,,,,,,,,,,,,,,,,,,,,,,,,,,,,,,,,,,,,,,,,,,,,,,,,,,,,,,,,,,,,,,,,,,,,,,,,,,,,,,,,,,,,,,,,,,,,,,,,,,,,,,,,,,,,,,,,,,,,,,,,,,,,,,,,,,,,,,,,
,,608437f0b139060610c9f0c1,2026-03-17_06h22.50.759,kallum_motion_pilot_GIST_update_2,2026.1.1,Win32,59.88023952,608437f0b139060610c9f0c1,69b92ab4aef6dee357cd729a,69b92b608a516aaeaeb58a09,0.0228,0.0228,0,150,150,72,1,onetwo,,,,,,,,,,,,,,,,,,,,,,,,,,,,,,,,,,,,,,,,,,,,,,,,,,,,,,,,,,,,,,,,,,,,,,,,,,,,,,,,,,,,,,,,,,,,,,,,,,,,,,,,,,,,,,,,,,,,,,,,,,,,,,,,,,,,,,,,,
,,608437f0b139060610c9f0c1,2026-03-17_06h22.50.759,kallum_motion_pilot_GIST_update_2,2026.1.1,Win32,59.88023952,608437f0b139060610c9f0c1,69b92ab4aef6dee357cd729a,69b92b608a516aaeaeb58a09,0.0229,0.0229,0,151,151,89,1,fiveseven,,,,,,,,,,,,,,,,,,,,,,,,,,,,,,,,,,,,,,,,,,,,,,,,,,,,,,,,,,,,,,,,,,,,,,,,,,,,,,,,,,,,,,,,,,,,,,,,,,,,,,,,,,,,,,,,,,,,,,,,,,,,,,,,,,,,,,,,,
,,608437f0b139060610c9f0c1,2026-03-17_06h22.50.759,kallum_motion_pilot_GIST_update_2,2026.1.1,Win32,59.88023952,608437f0b139060610c9f0c1,69b92ab4aef6dee357cd729a,69b92b608a516aaeaeb58a09,0.0229,0.0229,0,152,152,5,1,threefour,,,,,,,,,,,,,,,,,,,,,,,,,,,,,,,,,,,,,,,,,,,,,,,,,,,,,,,,,,,,,,,,,,,,,,,,,,,,,,,,,,,,,,,,,,,,,,,,,,,,,,,,,,,,,,,,,,,,,,,,,,,,,,,,,,,,,,,,,
,,608437f0b139060610c9f0c1,2026-03-17_06h22.50.759,kallum_motion_pilot_GIST_update_2,2026.1.1,Win32,59.88023952,608437f0b139060610c9f0c1,69b92ab4aef6dee357cd729a,69b92b608a516aaeaeb58a09,0.0231,0.0231,0,153,153,150,1,eightsix,,,,,,,,,,,,,,,,,,,,,,,,,,,,,,,,,,,,,,,,,,,,,,,,,,,,,,,,,,,,,,,,,,,,,,,,,,,,,,,,,,,,,,,,,,,,,,,,,,,,,,,,,,,,,,,,,,,,,,,,,,,,,,,,,,,,,,,,,
,,608437f0b139060610c9f0c1,2026-03-17_06h22.50.759,kallum_motion_pilot_GIST_update_2,2026.1.1,Win32,59.88023952,608437f0b139060610c9f0c1,69b92ab4aef6dee357cd729a,69b92b608a516aaeaeb58a09,0.0231,0.0231,0,154,154,9,1,onethree,,,,,,,,,,,,,,,,,,,,,,,,,,,,,,,,,,,,,,,,,,,,,,,,,,,,,,,,,,,,,,,,,,,,,,,,,,,,,,,,,,,,,,,,,,,,,,,,,,,,,,,,,,,,,,,,,,,,,,,,,,,,,,,,,,,,,,,,,
,,608437f0b139060610c9f0c1,2026-03-17_06h22.50.759,kallum_motion_pilot_GIST_update_2,2026.1.1,Win32,59.88023952,608437f0b139060610c9f0c1,69b92ab4aef6dee357cd729a,69b92b608a516aaeaeb58a09,0.0232,0.0232,0,155,155,133,1,seveneight,,,,,,,,,,,,,,,,,,,,,,,,,,,,,,,,,,,,,,,,,,,,,,,,,,,,,,,,,,,,,,,,,,,,,,,,,,,,,,,,,,,,,,,,,,,,,,,,,,,,,,,,,,,,,,,,,,,,,,,,,,,,,,,,,,,,,,,,,
,,608437f0b139060610c9f0c1,2026-03-17_06h22.50.759,kallum_motion_pilot_GIST_update_2,2026.1.1,Win32,59.88023952,608437f0b139060610c9f0c1,69b92ab4aef6dee357cd729a,69b92b608a516aaeaeb58a09,0.0233,0.0233,0,156,156,107,1,sixeight,,,,,,,,,,,,,,,,,,,,,,,,,,,,,,,,,,,,,,,,,,,,,,,,,,,,,,,,,,,,,,,,,,,,,,,,,,,,,,,,,,,,,,,,,,,,,,,,,,,,,,,,,,,,,,,,,,,,,,,,,,,,,,,,,,,,,,,,,
,,608437f0b139060610c9f0c1,2026-03-17_06h22.50.759,kallum_motion_pilot_GIST_update_2,2026.1.1,Win32,59.88023952,608437f0b139060610c9f0c1,69b92ab4aef6dee357cd729a,69b92b608a516aaeaeb58a09,0.0233,0.0233,0,157,157,111,1,eightseven,,,,,,,,,,,,,,,,,,,,,,,,,,,,,,,,,,,,,,,,,,,,,,,,,,,,,,,,,,,,,,,,,,,,,,,,,,,,,,,,,,,,,,,,,,,,,,,,,,,,,,,,,,,,,,,,,,,,,,,,,,,,,,,,,,,,,,,,,
,,608437f0b139060610c9f0c1,2026-03-17_06h22.50.759,kallum_motion_pilot_GIST_update_2,2026.1.1,Win32,59.88023952,608437f0b139060610c9f0c1,69b92ab4aef6dee357cd729a,69b92b608a516aaeaeb58a09,0.0234,0.0234,0,158,158,134,1,eightsix,,,,,,,,,,,,,,,,,,,,,,,,,,,,,,,,,,,,,,,,,,,,,,,,,,,,,,,,,,,,,,,,,,,,,,,,,,,,,,,,,,,,,,,,,,,,,,,,,,,,,,,,,,,,,,,,,,,,,,,,,,,,,,,,,,,,,,,,,
,,608437f0b139060610c9f0c1,2026-03-17_06h22.50.759,kallum_motion_pilot_GIST_update_2,2026.1.1,Win32,59.88023952,608437f0b139060610c9f0c1,69b92ab4aef6dee357cd729a,69b92b608a516aaeaeb58a09,0.0235,0.0235,0,159,159,2,1,twoone,,,,,,,,,,,,,,,,,,,,,,,,,,,,,,,,,,,,,,,,,,,,,,,,,,,,,,,,,,,,,,,,,,,,,,,,,,,,,,,,,,,,,,,,,,,,,,,,,,,,,,,,,,,,,,,,,,,,,,,,,,,,,,,,,,,,,,,,,
,,608437f0b139060610c9f0c1,2026-03-17_06h22.50.759,kallum_motion_pilot_GIST_update_2,2026.1.1,Win32,59.88023952,608437f0b139060610c9f0c1,69b92ab4aef6dee357cd729a,69b92b608a516aaeaeb58a09,0.0235,0.0235,0,160,160,37,1,threefour,,,,,,,,,,,,,,,,,,,,,,,,,,,,,,,,,,,,,,,,,,,,,,,,,,,,,,,,,,,,,,,,,,,,,,,,,,,,,,,,,,,,,,,,,,,,,,,,,,,,,,,,,,,,,,,,,,,,,,,,,,,,,,,,,,,,,,,,,
,,608437f0b139060610c9f0c1,2026-03-17_06h22.50.759,kallum_motion_pilot_GIST_update_2,2026.1.1,Win32,59.88023952,608437f0b139060610c9f0c1,69b92ab4aef6dee357cd729a,69b92b608a516aaeaeb58a09,0.0236,0.0236,0,161,161,132,1,sevenfive,,,,,,,,,,,,,,,,,,,,,,,,,,,,,,,,,,,,,,,,,,,,,,,,,,,,,,,,,,,,,,,,,,,,,,,,,,,,,,,,,,,,,,,,,,,,,,,,,,,,,,,,,,,,,,,,,,,,,,,,,,,,,,,,,,,,,,,,,
,,608437f0b139060610c9f0c1,2026-03-17_06h22.50.759,kallum_motion_pilot_GIST_update_2,2026.1.1,Win32,59.88023952,608437f0b139060610c9f0c1,69b92ab4aef6dee357cd729a,69b92b608a516aaeaeb58a09,0.0237,0.0237,1,0,162,36,1,threeone,,,,,,,,,,,,,,,,,,,,,,,,,,,,,,,,,,,,,,,,,,,,,,,,,,,,,,,,,,,,,,,,,,,,,,,,,,,,,,,,,,,,,,,,,,,,,,,,,,,,,,,,,,,,,,,,,,,,,,,,,,,,,,,,,,,,,,,,,
,,608437f0b139060610c9f0c1,2026-03-17_06h22.50.759,kallum_motion_pilot_GIST_update_2,2026.1.1,Win32,59.88023952,608437f0b139060610c9f0c1,69b92ab4aef6dee357cd729a,69b92b608a516aaeaeb58a09,0.0237,0.0237,1,1,163,14,1,fourtwo,,,,,,,,,,,,,,,,,,,,,,,,,,,,,,,,,,,,,,,,,,,,,,,,,,,,,,,,,,,,,,,,,,,,,,,,,,,,,,,,,,,,,,,,,,,,,,,,,,,,,,,,,,,,,,,,,,,,,,,,,,,,,,,,,,,,,,,,,
,,608437f0b139060610c9f0c1,2026-03-17_06h22.50.759,kallum_motion_pilot_GIST_update_2,2026.1.1,Win32,59.88023952,608437f0b139060610c9f0c1,69b92ab4aef6dee357cd729a,69b92b608a516aaeaeb58a09,0.0238,0.0238,1,2,164,53,1,threefour,,,,,,,,,,,,,,,,,,,,,,,,,,,,,,,,,,,,,,,,,,,,,,,,,,,,,,,,,,,,,,,,,,,,,,,,,,,,,,,,,,,,,,,,,,,,,,,,,,,,,,,,,,,,,,,,,,,,,,,,,,,,,,,,,,,,,,,,,
,,608437f0b139060610c9f0c1,2026-03-17_06h22.50.759,kallum_motion_pilot_GIST_update_2,2026.1.1,Win32,59.88023952,608437f0b139060610c9f0c1,69b92ab4aef6dee357cd729a,69b92b608a516aaeaeb58a09,0.0239,0.0239,1,3,165,54,1,fourtwo,,,,,,,,,,,,,,,,,,,,,,,,,,,,,,,,,,,,,,,,,,,,,,,,,,,,,,,,,,,,,,,,,,,,,,,,,,,,,,,,,,,,,,,,,,,,,,,,,,,,,,,,,,,,,,,,,,,,,,,,,,,,,,,,,,,,,,,,,
,,608437f0b139060610c9f0c1,2026-03-17_06h22.50.759,kallum_motion_pilot_GIST_update_2,2026.1.1,Win32,59.88023952,608437f0b139060610c9f0c1,69b92ab4aef6dee357cd729a,69b92b608a516aaeaeb58a09,0.024,0.024,1,4,166,47,1,fourthree,,,,,,,,,,,,,,,,,,,,,,,,,,,,,,,,,,,,,,,,,,,,,,,,,,,,,,,,,,,,,,,,,,,,,,,,,,,,,,,,,,,,,,,,,,,,,,,,,,,,,,,,,,,,,,,,,,,,,,,,,,,,,,,,,,,,,,,,,
,,608437f0b139060610c9f0c1,2026-03-17_06h22.50.759,kallum_motion_pilot_GIST_update_2,2026.1.1,Win32,59.88023952,608437f0b139060610c9f0c1,69b92ab4aef6dee357cd729a,69b92b608a516aaeaeb58a09,0.024,0.024,1,5,167,133,1,seveneight,,,,,,,,,,,,,,,,,,,,,,,,,,,,,,,,,,,,,,,,,,,,,,,,,,,,,,,,,,,,,,,,,,,,,,,,,,,,,,,,,,,,,,,,,,,,,,,,,,,,,,,,,,,,,,,,,,,,,,,,,,,,,,,,,,,,,,,,,
,,608437f0b139060610c9f0c1,2026-03-17_06h22.50.759,kallum_motion_pilot_GIST_update_2,2026.1.1,Win32,59.88023952,608437f0b139060610c9f0c1,69b92ab4aef6dee357cd729a,69b92b608a516aaeaeb58a09,0.0241,0.0241,1,6,168,0,1,onetwo,,,,,,,,,,,,,,,,,,,,,,,,,,,,,,,,,,,,,,,,,,,,,,,,,,,,,,,,,,,,,,,,,,,,,,,,,,,,,,,,,,,,,,,,,,,,,,,,,,,,,,,,,,,,,,,,,,,,,,,,,,,,,,,,,,,,,,,,,
,,608437f0b139060610c9f0c1,2026-03-17_06h22.50.759,kallum_motion_pilot_GIST_update_2,2026.1.1,Win32,59.88023952,608437f0b139060610c9f0c1,69b92ab4aef6dee357cd729a,69b92b608a516aaeaeb58a09,0.0242,0.0242,1,7,169,52,1,threeone,,,,,,,,,,,,,,,,,,,,,,,,,,,,,,,,,,,,,,,,,,,,,,,,,,,,,,,,,,,,,,,,,,,,,,,,,,,,,,,,,,,,,,,,,,,,,,,,,,,,,,,,,,,,,,,,,,,,,,,,,,,,,,,,,,,,,,,,,
,,608437f0b139060610c9f0c1,2026-03-17_06h22.50.759,kallum_motion_pilot_GIST_update_2,2026.1.1,Win32,59.88023952,608437f0b139060610c9f0c1,69b92ab4aef6dee357cd729a,69b92b608a516aaeaeb58a09,0.0242,0.0242,1,8,170,119,1,eightseven,,,,,,,,,,,,,,,,,,,,,,,,,,,,,,,,,,,,,,,,,,,,,,,,,,,,,,,,,,,,,,,,,,,,,,,,,,,,,,,,,,,,,,,,,,,,,,,,,,,,,,,,,,,,,,,,,,,,,,,,,,,,,,,,,,,,,,,,,
,,608437f0b139060610c9f0c1,2026-03-17_06h22.50.759,kallum_motion_pilot_GIST_update_2,2026.1.1,Win32,59.88023952,608437f0b139060610c9f0c1,69b92ab4aef6dee357cd729a,69b92b608a516aaeaeb58a09,0.0243,0.0243,1,9,171,15,1,fourthree,,,,,,,,,,,,,,,,,,,,,,,,,,,,,,,,,,,,,,,,,,,,,,,,,,,,,,,,,,,,,,,,,,,,,,,,,,,,,,,,,,,,,,,,,,,,,,,,,,,,,,,,,,,,,,,,,,,,,,,,,,,,,,,,,,,,,,,,,
,,608437f0b139060610c9f0c1,2026-03-17_06h22.50.759,kallum_motion_pilot_GIST_update_2,2026.1.1,Win32,59.88023952,608437f0b139060610c9f0c1,69b92ab4aef6dee357cd729a,69b92b608a516aaeaeb58a09,0.0244,0.0244,1,10,172,107,1,sixeight,,,,,,,,,,,,,,,,,,,,,,,,,,,,,,,,,,,,,,,,,,,,,,,,,,,,,,,,,,,,,,,,,,,,,,,,,,,,,,,,,,,,,,,,,,,,,,,,,,,,,,,,,,,,,,,,,,,,,,,,,,,,,,,,,,,,,,,,,
,,608437f0b139060610c9f0c1,2026-03-17_06h22.50.759,kallum_motion_pilot_GIST_update_2,2026.1.1,Win32,59.88023952,608437f0b139060610c9f0c1,69b92ab4aef6dee357cd729a,69b92b608a516aaeaeb58a09,0.0245,0.0245,1,11,173,132,1,sevenfive,,,,,,,,,,,,,,,,,,,,,,,,,,,,,,,,,,,,,,,,,,,,,,,,,,,,,,,,,,,,,,,,,,,,,,,,,,,,,,,,,,,,,,,,,,,,,,,,,,,,,,,,,,,,,,,,,,,,,,,,,,,,,,,,,,,,,,,,,
,,608437f0b139060610c9f0c1,2026-03-17_06h22.50.759,kallum_motion_pilot_GIST_update_2,2026.1.1,Win32,59.88023952,608437f0b139060610c9f0c1,69b92ab4aef6dee357cd729a,69b92b608a516aaeaeb58a09,0.0246,0.0246,1,12,174,114,1,sixfive,,,,,,,,,,,,,,,,,,,,,,,,,,,,,,,,,,,,,,,,,,,,,,,,,,,,,,,,,,,,,,,,,,,,,,,,,,,,,,,,,,,,,,,,,,,,,,,,,,,,,,,,,,,,,,,,,,,,,,,,,,,,,,,,,,,,,,,,,
,,608437f0b139060610c9f0c1,2026-03-17_06h22.50.759,kallum_motion_pilot_GIST_update_2,2026.1.1,Win32,59.88023952,608437f0b139060610c9f0c1,69b92ab4aef6dee357cd729a,69b92b608a516aaeaeb58a09,0.0247,0.0247,1,13,175,81,1,fiveseven,,,,,,,,,,,,,,,,,,,,,,,,,,,,,,,,,,,,,,,,,,,,,,,,,,,,,,,,,,,,,,,,,,,,,,,,,,,,,,,,,,,,,,,,,,,,,,,,,,,,,,,,,,,,,,,,,,,,,,,,,,,,,,,,,,,,,,,,,
,,608437f0b139060610c9f0c1,2026-03-17_06h22.50.759,kallum_motion_pilot_GIST_update_2,2026.1.1,Win32,59.88023952,608437f0b139060610c9f0c1,69b92ab4aef6dee357cd729a,69b92b608a516aaeaeb58a09,0.0247,0.0247,1,14,176,89,1,fiveseven,,,,,,,,,,,,,,,,,,,,,,,,,,,,,,,,,,,,,,,,,,,,,,,,,,,,,,,,,,,,,,,,,,,,,,,,,,,,,,,,,,,,,,,,,,,,,,,,,,,,,,,,,,,,,,,,,,,,,,,,,,,,,,,,,,,,,,,,,
,,608437f0b139060610c9f0c1,2026-03-17_06h22.50.759,kallum_motion_pilot_GIST_update_2,2026.1.1,Win32,59.88023952,608437f0b139060610c9f0c1,69b92ab4aef6dee357cd729a,69b92b608a516aaeaeb58a09,0.0248,0.0248,1,15,177,94,1,eightsix,,,,,,,,,,,,,,,,,,,,,,,,,,,,,,,,,,,,,,,,,,,,,,,,,,,,,,,,,,,,,,,,,,,,,,,,,,,,,,,,,,,,,,,,,,,,,,,,,,,,,,,,,,,,,,,,,,,,,,,,,,,,,,,,,,,,,,,,,
,,608437f0b139060610c9f0c1,2026-03-17_06h22.50.759,kallum_motion_pilot_GIST_update_2,2026.1.1,Win32,59.88023952,608437f0b139060610c9f0c1,69b92ab4aef6dee357cd729a,69b92b608a516aaeaeb58a09,0.0249,0.0249,1,16,178,26,1,twoone,,,,,,,,,,,,,,,,,,,,,,,,,,,,,,,,,,,,,,,,,,,,,,,,,,,,,,,,,,,,,,,,,,,,,,,,,,,,,,,,,,,,,,,,,,,,,,,,,,,,,,,,,,,,,,,,,,,,,,,,,,,,,,,,,,,,,,,,,
,,608437f0b139060610c9f0c1,2026-03-17_06h22.50.759,kallum_motion_pilot_GIST_update_2,2026.1.1,Win32,59.88023952,608437f0b139060610c9f0c1,69b92ab4aef6dee357cd729a,69b92b608a516aaeaeb58a09,0.025,0.025,1,17,179,77,1,threefour,,,,,,,,,,,,,,,,,,,,,,,,,,,,,,,,,,,,,,,,,,,,,,,,,,,,,,,,,,,,,,,,,,,,,,,,,,,,,,,,,,,,,,,,,,,,,,,,,,,,,,,,,,,,,,,,,,,,,,,,,,,,,,,,,,,,,,,,,
,,608437f0b139060610c9f0c1,2026-03-17_06h22.50.759,kallum_motion_pilot_GIST_update_2,2026.1.1,Win32,59.88023952,608437f0b139060610c9f0c1,69b92ab4aef6dee357cd729a,69b92b608a516aaeaeb58a09,0.0251,0.0251,1,18,180,44,1,threeone,,,,,,,,,,,,,,,,,,,,,,,,,,,,,,,,,,,,,,,,,,,,,,,,,,,,,,,,,,,,,,,,,,,,,,,,,,,,,,,,,,,,,,,,,,,,,,,,,,,,,,,,,,,,,,,,,,,,,,,,,,,,,,,,,,,,,,,,,
,,608437f0b139060610c9f0c1,2026-03-17_06h22.50.759,kallum_motion_pilot_GIST_update_2,2026.1.1,Win32,59.88023952,608437f0b139060610c9f0c1,69b92ab4aef6dee357cd729a,69b92b608a516aaeaeb58a09,0.0252,0.0252,1,19,181,64,1,onetwo,,,,,,,,,,,,,,,,,,,,,,,,,,,,,,,,,,,,,,,,,,,,,,,,,,,,,,,,,,,,,,,,,,,,,,,,,,,,,,,,,,,,,,,,,,,,,,,,,,,,,,,,,,,,,,,,,,,,,,,,,,,,,,,,,,,,,,,,,
,,608437f0b139060610c9f0c1,2026-03-17_06h22.50.759,kallum_motion_pilot_GIST_update_2,2026.1.1,Win32,59.88023952,608437f0b139060610c9f0c1,69b92ab4aef6dee357cd729a,69b92b608a516aaeaeb58a09,0.0252,0.0252,1,20,182,4,1,threeone,,,,,,,,,,,,,,,,,,,,,,,,,,,,,,,,,,,,,,,,,,,,,,,,,,,,,,,,,,,,,,,,,,,,,,,,,,,,,,,,,,,,,,,,,,,,,,,,,,,,,,,,,,,,,,,,,,,,,,,,,,,,,,,,,,,,,,,,,
,,608437f0b139060610c9f0c1,2026-03-17_06h22.50.759,kallum_motion_pilot_GIST_update_2,2026.1.1,Win32,59.88023952,608437f0b139060610c9f0c1,69b92ab4aef6dee357cd729a,69b92b608a516aaeaeb58a09,0.0252,0.0252,1,21,183,100,1,sevenfive,,,,,,,,,,,,,,,,,,,,,,,,,,,,,,,,,,,,,,,,,,,,,,,,,,,,,,,,,,,,,,,,,,,,,,,,,,,,,,,,,,,,,,,,,,,,,,,,,,,,,,,,,,,,,,,,,,,,,,,,,,,,,,,,,,,,,,,,,
,,608437f0b139060610c9f0c1,2026-03-17_06h22.50.759,kallum_motion_pilot_GIST_update_2,2026.1.1,Win32,59.88023952,608437f0b139060610c9f0c1,69b92ab4aef6dee357cd729a,69b92b608a516aaeaeb58a09,0.0253,0.0253,1,22,184,97,1,fiveseven,,,,,,,,,,,,,,,,,,,,,,,,,,,,,,,,,,,,,,,,,,,,,,,,,,,,,,,,,,,,,,,,,,,,,,,,,,,,,,,,,,,,,,,,,,,,,,,,,,,,,,,,,,,,,,,,,,,,,,,,,,,,,,,,,,,,,,,,,
,,608437f0b139060610c9f0c1,2026-03-17_06h22.50.759,kallum_motion_pilot_GIST_update_2,2026.1.1,Win32,59.88023952,608437f0b139060610c9f0c1,69b92ab4aef6dee357cd729a,69b92b608a516aaeaeb58a09,0.0254,0.0254,1,23,185,10,1,twoone,,,,,,,,,,,,,,,,,,,,,,,,,,,,,,,,,,,,,,,,,,,,,,,,,,,,,,,,,,,,,,,,,,,,,,,,,,,,,,,,,,,,,,,,,,,,,,,,,,,,,,,,,,,,,,,,,,,,,,,,,,,,,,,,,,,,,,,,,
,,608437f0b139060610c9f0c1,2026-03-17_06h22.50.759,kallum_motion_pilot_GIST_update_2,2026.1.1,Win32,59.88023952,608437f0b139060610c9f0c1,69b92ab4aef6dee357cd729a,69b92b608a516aaeaeb58a09,0.0255,0.0255,1,24,186,68,1,threeone,,,,,,,,,,,,,,,,,,,,,,,,,,,,,,,,,,,,,,,,,,,,,,,,,,,,,,,,,,,,,,,,,,,,,,,,,,,,,,,,,,,,,,,,,,,,,,,,,,,,,,,,,,,,,,,,,,,,,,,,,,,,,,,,,,,,,,,,,
,,608437f0b139060610c9f0c1,2026-03-17_06h22.50.759,kallum_motion_pilot_GIST_update_2,2026.1.1,Win32,59.88023952,608437f0b139060610c9f0c1,69b92ab4aef6dee357cd729a,69b92b608a516aaeaeb58a09,0.0255,0.0256,1,25,187,92,1,sevenfive,,,,,,,,,,,,,,,,,,,,,,,,,,,,,,,,,,,,,,,,,,,,,,,,,,,,,,,,,,,,,,,,,,,,,,,,,,,,,,,,,,,,,,,,,,,,,,,,,,,,,,,,,,,,,,,,,,,,,,,,,,,,,,,,,,,,,,,,,
,,608437f0b139060610c9f0c1,2026-03-17_06h22.50.759,kallum_motion_pilot_GIST_update_2,2026.1.1,Win32,59.88023952,608437f0b139060610c9f0c1,69b92ab4aef6dee357cd729a,69b92b608a516aaeaeb58a09,0.0256,0.0256,1,26,188,33,1,onethree,,,,,,,,,,,,,,,,,,,,,,,,,,,,,,,,,,,,,,,,,,,,,,,,,,,,,,,,,,,,,,,,,,,,,,,,,,,,,,,,,,,,,,,,,,,,,,,,,,,,,,,,,,,,,,,,,,,,,,,,,,,,,,,,,,,,,,,,,
,,608437f0b139060610c9f0c1,2026-03-17_06h22.50.759,kallum_motion_pilot_GIST_update_2,2026.1.1,Win32,59.88023952,608437f0b139060610c9f0c1,69b92ab4aef6dee357cd729a,69b92b608a516aaeaeb58a09,0.0257,0.0257,1,27,189,158,1,eightsix,,,,,,,,,,,,,,,,,,,,,,,,,,,,,,,,,,,,,,,,,,,,,,,,,,,,,,,,,,,,,,,,,,,,,,,,,,,,,,,,,,,,,,,,,,,,,,,,,,,,,,,,,,,,,,,,,,,,,,,,,,,,,,,,,,,,,,,,,
,,608437f0b139060610c9f0c1,2026-03-17_06h22.50.759,kallum_motion_pilot_GIST_update_2,2026.1.1,Win32,59.88023952,608437f0b139060610c9f0c1,69b92ab4aef6dee357cd729a,69b92b608a516aaeaeb58a09,0.0258,0.0258,1,28,190,128,1,fivesix,,,,,,,,,,,,,,,,,,,,,,,,,,,,,,,,,,,,,,,,,,,,,,,,,,,,,,,,,,,,,,,,,,,,,,,,,,,,,,,,,,,,,,,,,,,,,,,,,,,,,,,,,,,,,,,,,,,,,,,,,,,,,,,,,,,,,,,,,
,,608437f0b139060610c9f0c1,2026-03-17_06h22.50.759,kallum_motion_pilot_GIST_update_2,2026.1.1,Win32,59.88023952,608437f0b139060610c9f0c1,69b92ab4aef6dee357cd729a,69b92b608a516aaeaeb58a09,0.0259,0.0259,1,29,191,106,1,sixfive,,,,,,,,,,,,,,,,,,,,,,,,,,,,,,,,,,,,,,,,,,,,,,,,,,,,,,,,,,,,,,,,,,,,,,,,,,,,,,,,,,,,,,,,,,,,,,,,,,,,,,,,,,,,,,,,,,,,,,,,,,,,,,,,,,,,,,,,,
,,608437f0b139060610c9f0c1,2026-03-17_06h22.50.759,kallum_motion_pilot_GIST_update_2,2026.1.1,Win32,59.88023952,608437f0b139060610c9f0c1,69b92ab4aef6dee357cd729a,69b92b608a516aaeaeb58a09,0.026,0.026,1,30,192,86,1,eightsix,,,,,,,,,,,,,,,,,,,,,,,,,,,,,,,,,,,,,,,,,,,,,,,,,,,,,,,,,,,,,,,,,,,,,,,,,,,,,,,,,,,,,,,,,,,,,,,,,,,,,,,,,,,,,,,,,,,,,,,,,,,,,,,,,,,,,,,,,
,,608437f0b139060610c9f0c1,2026-03-17_06h22.50.759,kallum_motion_pilot_GIST_update_2,2026.1.1,Win32,59.88023952,608437f0b139060610c9f0c1,69b92ab4aef6dee357cd729a,69b92b608a516aaeaeb58a09,0.0261,0.0261,1,31,193,9,1,onethree,,,,,,,,,,,,,,,,,,,,,,,,,,,,,,,,,,,,,,,,,,,,,,,,,,,,,,,,,,,,,,,,,,,,,,,,,,,,,,,,,,,,,,,,,,,,,,,,,,,,,,,,,,,,,,,,,,,,,,,,,,,,,,,,,,,,,,,,,
,,608437f0b139060610c9f0c1,2026-03-17_06h22.50.759,kallum_motion_pilot_GIST_update_2,2026.1.1,Win32,59.88023952,608437f0b139060610c9f0c1,69b92ab4aef6dee357cd729a,69b92b608a516aaeaeb58a09,0.0261,0.0261,1,32,194,12,1,threeone,,,,,,,,,,,,,,,,,,,,,,,,,,,,,,,,,,,,,,,,,,,,,,,,,,,,,,,,,,,,,,,,,,,,,,,,,,,,,,,,,,,,,,,,,,,,,,,,,,,,,,,,,,,,,,,,,,,,,,,,,,,,,,,,,,,,,,,,,
,,608437f0b139060610c9f0c1,2026-03-17_06h22.50.759,kallum_motion_pilot_GIST_update_2,2026.1.1,Win32,59.88023952,608437f0b139060610c9f0c1,69b92ab4aef6dee357cd729a,69b92b608a516aaeaeb58a09,0.0262,0.0262,1,33,195,29,1,threefour,,,,,,,,,,,,,,,,,,,,,,,,,,,,,,,,,,,,,,,,,,,,,,,,,,,,,,,,,,,,,,,,,,,,,,,,,,,,,,,,,,,,,,,,,,,,,,,,,,,,,,,,,,,,,,,,,,,,,,,,,,,,,,,,,,,,,,,,,
,,608437f0b139060610c9f0c1,2026-03-17_06h22.50.759,kallum_motion_pilot_GIST_update_2,2026.1.1,Win32,59.88023952,608437f0b139060610c9f0c1,69b92ab4aef6dee357cd729a,69b92b608a516aaeaeb58a09,0.0263,0.0263,1,34,196,108,1,sevenfive,,,,,,,,,,,,,,,,,,,,,,,,,,,,,,,,,,,,,,,,,,,,,,,,,,,,,,,,,,,,,,,,,,,,,,,,,,,,,,,,,,,,,,,,,,,,,,,,,,,,,,,,,,,,,,,,,,,,,,,,,,,,,,,,,,,,,,,,,
,,608437f0b139060610c9f0c1,2026-03-17_06h22.50.759,kallum_motion_pilot_GIST_update_2,2026.1.1,Win32,59.88023952,608437f0b139060610c9f0c1,69b92ab4aef6dee357cd729a,69b92b608a516aaeaeb58a09,0.0264,0.0264,1,35,197,3,1,twofour,,,,,,,,,,,,,,,,,,,,,,,,,,,,,,,,,,,,,,,,,,,,,,,,,,,,,,,,,,,,,,,,,,,,,,,,,,,,,,,,,,,,,,,,,,,,,,,,,,,,,,,,,,,,,,,,,,,,,,,,,,,,,,,,,,,,,,,,,
,,608437f0b139060610c9f0c1,2026-03-17_06h22.50.759,kallum_motion_pilot_GIST_update_2,2026.1.1,Win32,59.88023952,608437f0b139060610c9f0c1,69b92ab4aef6dee357cd729a,69b92b608a516aaeaeb58a09,0.0265,0.0265,1,36,198,138,1,sixfive,,,,,,,,,,,,,,,,,,,,,,,,,,,,,,,,,,,,,,,,,,,,,,,,,,,,,,,,,,,,,,,,,,,,,,,,,,,,,,,,,,,,,,,,,,,,,,,,,,,,,,,,,,,,,,,,,,,,,,,,,,,,,,,,,,,,,,,,,
,,608437f0b139060610c9f0c1,2026-03-17_06h22.50.759,kallum_motion_pilot_GIST_update_2,2026.1.1,Win32,59.88023952,608437f0b139060610c9f0c1,69b92ab4aef6dee357cd729a,69b92b608a516aaeaeb58a09,0.0266,0.0266,1,37,199,98,1,sixfive,,,,,,,,,,,,,,,,,,,,,,,,,,,,,,,,,,,,,,,,,,,,,,,,,,,,,,,,,,,,,,,,,,,,,,,,,,,,,,,,,,,,,,,,,,,,,,,,,,,,,,,,,,,,,,,,,,,,,,,,,,,,,,,,,,,,,,,,,
,,608437f0b139060610c9f0c1,2026-03-17_06h22.50.759,kallum_motion_pilot_GIST_update_2,2026.1.1,Win32,59.88023952,608437f0b139060610c9f0c1,69b92ab4aef6dee357cd729a,69b92b608a516aaeaeb58a09,0.0267,0.0267,1,38,200,32,1,onetwo,,,,,,,,,,,,,,,,,,,,,,,,,,,,,,,,,,,,,,,,,,,,,,,,,,,,,,,,,,,,,,,,,,,,,,,,,,,,,,,,,,,,,,,,,,,,,,,,,,,,,,,,,,,,,,,,,,,,,,,,,,,,,,,,,,,,,,,,,
,,608437f0b139060610c9f0c1,2026-03-17_06h22.50.759,kallum_motion_pilot_GIST_update_2,2026.1.1,Win32,59.88023952,608437f0b139060610c9f0c1,69b92ab4aef6dee357cd729a,69b92b608a516aaeaeb58a09,0.0267,0.0267,1,39,201,22,1,fourtwo,,,,,,,,,,,,,,,,,,,,,,,,,,,,,,,,,,,,,,,,,,,,,,,,,,,,,,,,,,,,,,,,,,,,,,,,,,,,,,,,,,,,,,,,,,,,,,,,,,,,,,,,,,,,,,,,,,,,,,,,,,,,,,,,,,,,,,,,,
,,608437f0b139060610c9f0c1,2026-03-17_06h22.50.759,kallum_motion_pilot_GIST_update_2,2026.1.1,Win32,59.88023952,608437f0b139060610c9f0c1,69b92ab4aef6dee357cd729a,69b92b608a516aaeaeb58a09,0.0268,0.0268,1,40,202,49,1,onethree,,,,,,,,,,,,,,,,,,,,,,,,,,,,,,,,,,,,,,,,,,,,,,,,,,,,,,,,,,,,,,,,,,,,,,,,,,,,,,,,,,,,,,,,,,,,,,,,,,,,,,,,,,,,,,,,,,,,,,,,,,,,,,,,,,,,,,,,,
,,608437f0b139060610c9f0c1,2026-03-17_06h22.50.759,kallum_motion_pilot_GIST_update_2,2026.1.1,Win32,59.88023952,608437f0b139060610c9f0c1,69b92ab4aef6dee357cd729a,69b92b608a516aaeaeb58a09,0.0269,0.0269,1,41,203,21,1,threefour,,,,,,,,,,,,,,,,,,,,,,,,,,,,,,,,,,,,,,,,,,,,,,,,,,,,,,,,,,,,,,,,,,,,,,,,,,,,,,,,,,,,,,,,,,,,,,,,,,,,,,,,,,,,,,,,,,,,,,,,,,,,,,,,,,,,,,,,,
,,608437f0b139060610c9f0c1,2026-03-17_06h22.50.759,kallum_motion_pilot_GIST_update_2,2026.1.1,Win32,59.88023952,608437f0b139060610c9f0c1,69b92ab4aef6dee357cd729a,69b92b608a516aaeaeb58a09,0.0269,0.0269,1,42,204,129,1,fiveseven,,,,,,,,,,,,,,,,,,,,,,,,,,,,,,,,,,,,,,,,,,,,,,,,,,,,,,,,,,,,,,,,,,,,,,,,,,,,,,,,,,,,,,,,,,,,,,,,,,,,,,,,,,,,,,,,,,,,,,,,,,,,,,,,,,,,,,,,,
,,608437f0b139060610c9f0c1,2026-03-17_06h22.50.759,kallum_motion_pilot_GIST_update_2,2026.1.1,Win32,59.88023952,608437f0b139060610c9f0c1,69b92ab4aef6dee357cd729a,69b92b608a516aaeaeb58a09,0.0271,0.0271,1,43,205,42,1,twoone,,,,,,,,,,,,,,,,,,,,,,,,,,,,,,,,,,,,,,,,,,,,,,,,,,,,,,,,,,,,,,,,,,,,,,,,,,,,,,,,,,,,,,,,,,,,,,,,,,,,,,,,,,,,,,,,,,,,,,,,,,,,,,,,,,,,,,,,,
,,608437f0b139060610c9f0c1,2026-03-17_06h22.50.759,kallum_motion_pilot_GIST_update_2,2026.1.1,Win32,59.88023952,608437f0b139060610c9f0c1,69b92ab4aef6dee357cd729a,69b92b608a516aaeaeb58a09,0.0271,0.0271,1,44,206,55,1,fourthree,,,,,,,,,,,,,,,,,,,,,,,,,,,,,,,,,,,,,,,,,,,,,,,,,,,,,,,,,,,,,,,,,,,,,,,,,,,,,,,,,,,,,,,,,,,,,,,,,,,,,,,,,,,,,,,,,,,,,,,,,,,,,,,,,,,,,,,,,
,,608437f0b139060610c9f0c1,2026-03-17_06h22.50.759,kallum_motion_pilot_GIST_update_2,2026.1.1,Win32,59.88023952,608437f0b139060610c9f0c1,69b92ab4aef6dee357cd729a,69b92b608a516aaeaeb58a09,0.0272,0.0272,1,45,207,38,1,fourtwo,,,,,,,,,,,,,,,,,,,,,,,,,,,,,,,,,,,,,,,,,,,,,,,,,,,,,,,,,,,,,,,,,,,,,,,,,,,,,,,,,,,,,,,,,,,,,,,,,,,,,,,,,,,,,,,,,,,,,,,,,,,,,,,,,,,,,,,,,
,,608437f0b139060610c9f0c1,2026-03-17_06h22.50.759,kallum_motion_pilot_GIST_update_2,2026.1.1,Win32,59.88023952,608437f0b139060610c9f0c1,69b92ab4aef6dee357cd729a,69b92b608a516aaeaeb58a09,0.0273,0.0273,1,46,208,5,1,threefour,,,,,,,,,,,,,,,,,,,,,,,,,,,,,,,,,,,,,,,,,,,,,,,,,,,,,,,,,,,,,,,,,,,,,,,,,,,,,,,,,,,,,,,,,,,,,,,,,,,,,,,,,,,,,,,,,,,,,,,,,,,,,,,,,,,,,,,,,
,,608437f0b139060610c9f0c1,2026-03-17_06h22.50.759,kallum_motion_pilot_GIST_update_2,2026.1.1,Win32,59.88023952,608437f0b139060610c9f0c1,69b92ab4aef6dee357cd729a,69b92b608a516aaeaeb58a09,0.0274,0.0274,1,47,209,136,1,fivesix,,,,,,,,,,,,,,,,,,,,,,,,,,,,,,,,,,,,,,,,,,,,,,,,,,,,,,,,,,,,,,,,,,,,,,,,,,,,,,,,,,,,,,,,,,,,,,,,,,,,,,,,,,,,,,,,,,,,,,,,,,,,,,,,,,,,,,,,,
,,608437f0b139060610c9f0c1,2026-03-17_06h22.50.759,kallum_motion_pilot_GIST_update_2,2026.1.1,Win32,59.88023952,608437f0b139060610c9f0c1,69b92ab4aef6dee357cd729a,69b92b608a516aaeaeb58a09,0.0274,0.0274,1,48,210,110,1,eightsix,,,,,,,,,,,,,,,,,,,,,,,,,,,,,,,,,,,,,,,,,,,,,,,,,,,,,,,,,,,,,,,,,,,,,,,,,,,,,,,,,,,,,,,,,,,,,,,,,,,,,,,,,,,,,,,,,,,,,,,,,,,,,,,,,,,,,,,,,
,,608437f0b139060610c9f0c1,2026-03-17_06h22.50.759,kallum_motion_pilot_GIST_update_2,2026.1.1,Win32,59.88023952,608437f0b139060610c9f0c1,69b92ab4aef6dee357cd729a,69b92b608a516aaeaeb58a09,0.0275,0.0275,1,49,211,143,1,eightseven,,,,,,,,,,,,,,,,,,,,,,,,,,,,,,,,,,,,,,,,,,,,,,,,,,,,,,,,,,,,,,,,,,,,,,,,,,,,,,,,,,,,,,,,,,,,,,,,,,,,,,,,,,,,,,,,,,,,,,,,,,,,,,,,,,,,,,,,,
,,608437f0b139060610c9f0c1,2026-03-17_06h22.50.759,kallum_motion_pilot_GIST_update_2,2026.1.1,Win32,59.88023952,608437f0b139060610c9f0c1,69b92ab4aef6dee357cd729a,69b92b608a516aaeaeb58a09,0.0275,0.0275,1,50,212,146,1,sixfive,,,,,,,,,,,,,,,,,,,,,,,,,,,,,,,,,,,,,,,,,,,,,,,,,,,,,,,,,,,,,,,,,,,,,,,,,,,,,,,,,,,,,,,,,,,,,,,,,,,,,,,,,,,,,,,,,,,,,,,,,,,,,,,,,,,,,,,,,
,,608437f0b139060610c9f0c1,2026-03-17_06h22.50.759,kallum_motion_pilot_GIST_update_2,2026.1.1,Win32,59.88023952,608437f0b139060610c9f0c1,69b92ab4aef6dee357cd729a,69b92b608a516aaeaeb58a09,0.0277,0.0277,1,51,213,50,1,twoone,,,,,,,,,,,,,,,,,,,,,,,,,,,,,,,,,,,,,,,,,,,,,,,,,,,,,,,,,,,,,,,,,,,,,,,,,,,,,,,,,,,,,,,,,,,,,,,,,,,,,,,,,,,,,,,,,,,,,,,,,,,,,,,,,,,,,,,,,
,,608437f0b139060610c9f0c1,2026-03-17_06h22.50.759,kallum_motion_pilot_GIST_update_2,2026.1.1,Win32,59.88023952,608437f0b139060610c9f0c1,69b92ab4aef6dee357cd729a,69b92b608a516aaeaeb58a09,0.0277,0.0277,1,52,214,6,1,fourtwo,,,,,,,,,,,,,,,,,,,,,,,,,,,,,,,,,,,,,,,,,,,,,,,,,,,,,,,,,,,,,,,,,,,,,,,,,,,,,,,,,,,,,,,,,,,,,,,,,,,,,,,,,,,,,,,,,,,,,,,,,,,,,,,,,,,,,,,,,
,,608437f0b139060610c9f0c1,2026-03-17_06h22.50.759,kallum_motion_pilot_GIST_update_2,2026.1.1,Win32,59.88023952,608437f0b139060610c9f0c1,69b92ab4aef6dee357cd729a,69b92b608a516aaeaeb58a09,0.0278,0.0278,1,53,215,126,1,eightsix,,,,,,,,,,,,,,,,,,,,,,,,,,,,,,,,,,,,,,,,,,,,,,,,,,,,,,,,,,,,,,,,,,,,,,,,,,,,,,,,,,,,,,,,,,,,,,,,,,,,,,,,,,,,,,,,,,,,,,,,,,,,,,,,,,,,,,,,,
,,608437f0b139060610c9f0c1,2026-03-17_06h22.50.759,kallum_motion_pilot_GIST_update_2,2026.1.1,Win32,59.88023952,608437f0b139060610c9f0c1,69b92ab4aef6dee357cd729a,69b92b608a516aaeaeb58a09,0.0279,0.0279,1,54,216,45,1,threefour,,,,,,,,,,,,,,,,,,,,,,,,,,,,,,,,,,,,,,,,,,,,,,,,,,,,,,,,,,,,,,,,,,,,,,,,,,,,,,,,,,,,,,,,,,,,,,,,,,,,,,,,,,,,,,,,,,,,,,,,,,,,,,,,,,,,,,,,,
,,608437f0b139060610c9f0c1,2026-03-17_06h22.50.759,kallum_motion_pilot_GIST_update_2,2026.1.1,Win32,59.88023952,608437f0b139060610c9f0c1,69b92ab4aef6dee357cd729a,69b92b608a516aaeaeb58a09,0.028,0.028,1,55,217,113,1,fiveseven,,,,,,,,,,,,,,,,,,,,,,,,,,,,,,,,,,,,,,,,,,,,,,,,,,,,,,,,,,,,,,,,,,,,,,,,,,,,,,,,,,,,,,,,,,,,,,,,,,,,,,,,,,,,,,,,,,,,,,,,,,,,,,,,,,,,,,,,,
,,608437f0b139060610c9f0c1,2026-03-17_06h22.50.759,kallum_motion_pilot_GIST_update_2,2026.1.1,Win32,59.88023952,608437f0b139060610c9f0c1,69b92ab4aef6dee357cd729a,69b92b608a516aaeaeb58a09,0.028,0.028,1,56,218,79,1,eightseven,,,,,,,,,,,,,,,,,,,,,,,,,,,,,,,,,,,,,,,,,,,,,,,,,,,,,,,,,,,,,,,,,,,,,,,,,,,,,,,,,,,,,,,,,,,,,,,,,,,,,,,,,,,,,,,,,,,,,,,,,,,,,,,,,,,,,,,,,
,,608437f0b139060610c9f0c1,2026-03-17_06h22.50.759,kallum_motion_pilot_GIST_update_2,2026.1.1,Win32,59.88023952,608437f0b139060610c9f0c1,69b92ab4aef6dee357cd729a,69b92b608a516aaeaeb58a09,0.0281,0.0281,1,57,219,141,1,seveneight,,,,,,,,,,,,,,,,,,,,,,,,,,,,,,,,,,,,,,,,,,,,,,,,,,,,,,,,,,,,,,,,,,,,,,,,,,,,,,,,,,,,,,,,,,,,,,,,,,,,,,,,,,,,,,,,,,,,,,,,,,,,,,,,,,,,,,,,,
,,608437f0b139060610c9f0c1,2026-03-17_06h22.50.759,kallum_motion_pilot_GIST_update_2,2026.1.1,Win32,59.88023952,608437f0b139060610c9f0c1,69b92ab4aef6dee357cd729a,69b92b608a516aaeaeb58a09,0.0282,0.0282,1,58,220,124,1,sevenfive,,,,,,,,,,,,,,,,,,,,,,,,,,,,,,,,,,,,,,,,,,,,,,,,,,,,,,,,,,,,,,,,,,,,,,,,,,,,,,,,,,,,,,,,,,,,,,,,,,,,,,,,,,,,,,,,,,,,,,,,,,,,,,,,,,,,,,,,,
,,608437f0b139060610c9f0c1,2026-03-17_06h22.50.759,kallum_motion_pilot_GIST_update_2,2026.1.1,Win32,59.88023952,608437f0b139060610c9f0c1,69b92ab4aef6dee357cd729a,69b92b608a516aaeaeb58a09,0.0283,0.0283,1,59,221,137,1,fiveseven,,,,,,,,,,,,,,,,,,,,,,,,,,,,,,,,,,,,,,,,,,,,,,,,,,,,,,,,,,,,,,,,,,,,,,,,,,,,,,,,,,,,,,,,,,,,,,,,,,,,,,,,,,,,,,,,,,,,,,,,,,,,,,,,,,,,,,,,,
,,608437f0b139060610c9f0c1,2026-03-17_06h22.50.759,kallum_motion_pilot_GIST_update_2,2026.1.1,Win32,59.88023952,608437f0b139060610c9f0c1,69b92ab4aef6dee357cd729a,69b92b608a516aaeaeb58a09,0.0284,0.0284,1,60,222,48,1,onetwo,,,,,,,,,,,,,,,,,,,,,,,,,,,,,,,,,,,,,,,,,,,,,,,,,,,,,,,,,,,,,,,,,,,,,,,,,,,,,,,,,,,,,,,,,,,,,,,,,,,,,,,,,,,,,,,,,,,,,,,,,,,,,,,,,,,,,,,,,
,,608437f0b139060610c9f0c1,2026-03-17_06h22.50.759,kallum_motion_pilot_GIST_update_2,2026.1.1,Win32,59.88023952,608437f0b139060610c9f0c1,69b92ab4aef6dee357cd729a,69b92b608a516aaeaeb58a09,0.0285,0.0285,1,61,223,111,1,eightseven,,,,,,,,,,,,,,,,,,,,,,,,,,,,,,,,,,,,,,,,,,,,,,,,,,,,,,,,,,,,,,,,,,,,,,,,,,,,,,,,,,,,,,,,,,,,,,,,,,,,,,,,,,,,,,,,,,,,,,,,,,,,,,,,,,,,,,,,,
,,608437f0b139060610c9f0c1,2026-03-17_06h22.50.759,kallum_motion_pilot_GIST_update_2,2026.1.1,Win32,59.88023952,608437f0b139060610c9f0c1,69b92ab4aef6dee357cd729a,69b92b608a516aaeaeb58a09,0.0286,0.0286,1,62,224,37,1,threefour,,,,,,,,,,,,,,,,,,,,,,,,,,,,,,,,,,,,,,,,,,,,,,,,,,,,,,,,,,,,,,,,,,,,,,,,,,,,,,,,,,,,,,,,,,,,,,,,,,,,,,,,,,,,,,,,,,,,,,,,,,,,,,,,,,,,,,,,,
,,608437f0b139060610c9f0c1,2026-03-17_06h22.50.759,kallum_motion_pilot_GIST_update_2,2026.1.1,Win32,59.88023952,608437f0b139060610c9f0c1,69b92ab4aef6dee357cd729a,69b92b608a516aaeaeb58a09,0.0286,0.0286,1,63,225,51,1,twofour,,,,,,,,,,,,,,,,,,,,,,,,,,,,,,,,,,,,,,,,,,,,,,,,,,,,,,,,,,,,,,,,,,,,,,,,,,,,,,,,,,,,,,,,,,,,,,,,,,,,,,,,,,,,,,,,,,,,,,,,,,,,,,,,,,,,,,,,,
,,608437f0b139060610c9f0c1,2026-03-17_06h22.50.759,kallum_motion_pilot_GIST_update_2,2026.1.1,Win32,59.88023952,608437f0b139060610c9f0c1,69b92ab4aef6dee357cd729a,69b92b608a516aaeaeb58a09,0.0287,0.0287,1,64,226,103,1,eightseven,,,,,,,,,,,,,,,,,,,,,,,,,,,,,,,,,,,,,,,,,,,,,,,,,,,,,,,,,,,,,,,,,,,,,,,,,,,,,,,,,,,,,,,,,,,,,,,,,,,,,,,,,,,,,,,,,,,,,,,,,,,,,,,,,,,,,,,,,
,,608437f0b139060610c9f0c1,2026-03-17_06h22.50.759,kallum_motion_pilot_GIST_update_2,2026.1.1,Win32,59.88023952,608437f0b139060610c9f0c1,69b92ab4aef6dee357cd729a,69b92b608a516aaeaeb58a09,0.0288,0.0288,1,65,227,34,1,twoone,,,,,,,,,,,,,,,,,,,,,,,,,,,,,,,,,,,,,,,,,,,,,,,,,,,,,,,,,,,,,,,,,,,,,,,,,,,,,,,,,,,,,,,,,,,,,,,,,,,,,,,,,,,,,,,,,,,,,,,,,,,,,,,,,,,,,,,,,
,,608437f0b139060610c9f0c1,2026-03-17_06h22.50.759,kallum_motion_pilot_GIST_update_2,2026.1.1,Win32,59.88023952,608437f0b139060610c9f0c1,69b92ab4aef6dee357cd729a,69b92b608a516aaeaeb58a09,0.0289,0.0289,1,66,228,93,1,seveneight,,,,,,,,,,,,,,,,,,,,,,,,,,,,,,,,,,,,,,,,,,,,,,,,,,,,,,,,,,,,,,,,,,,,,,,,,,,,,,,,,,,,,,,,,,,,,,,,,,,,,,,,,,,,,,,,,,,,,,,,,,,,,,,,,,,,,,,,,
,,608437f0b139060610c9f0c1,2026-03-17_06h22.50.759,kallum_motion_pilot_GIST_update_2,2026.1.1,Win32,59.88023952,608437f0b139060610c9f0c1,69b92ab4aef6dee357cd729a,69b92b608a516aaeaeb58a09,0.0289,0.0289,1,67,229,1,1,onethree,,,,,,,,,,,,,,,,,,,,,,,,,,,,,,,,,,,,,,,,,,,,,,,,,,,,,,,,,,,,,,,,,,,,,,,,,,,,,,,,,,,,,,,,,,,,,,,,,,,,,,,,,,,,,,,,,,,,,,,,,,,,,,,,,,,,,,,,,
,,608437f0b139060610c9f0c1,2026-03-17_06h22.50.759,kallum_motion_pilot_GIST_update_2,2026.1.1,Win32,59.88023952,608437f0b139060610c9f0c1,69b92ab4aef6dee357cd729a,69b92b608a516aaeaeb58a09,0.029,0.029,1,68,230,112,1,fivesix,,,,,,,,,,,,,,,,,,,,,,,,,,,,,,,,,,,,,,,,,,,,,,,,,,,,,,,,,,,,,,,,,,,,,,,,,,,,,,,,,,,,,,,,,,,,,,,,,,,,,,,,,,,,,,,,,,,,,,,,,,,,,,,,,,,,,,,,,
,,608437f0b139060610c9f0c1,2026-03-17_06h22.50.759,kallum_motion_pilot_GIST_update_2,2026.1.1,Win32,59.88023952,608437f0b139060610c9f0c1,69b92ab4aef6dee357cd729a,69b92b608a516aaeaeb58a09,0.029,0.029,1,69,231,105,1,fiveseven,,,,,,,,,,,,,,,,,,,,,,,,,,,,,,,,,,,,,,,,,,,,,,,,,,,,,,,,,,,,,,,,,,,,,,,,,,,,,,,,,,,,,,,,,,,,,,,,,,,,,,,,,,,,,,,,,,,,,,,,,,,,,,,,,,,,,,,,,
,,608437f0b139060610c9f0c1,2026-03-17_06h22.50.759,kallum_motion_pilot_GIST_update_2,2026.1.1,Win32,59.88023952,608437f0b139060610c9f0c1,69b92ab4aef6dee357cd729a,69b92b608a516aaeaeb58a09,0.0292,0.0292,1,70,232,151,1,eightseven,,,,,,,,,,,,,,,,,,,,,,,,,,,,,,,,,,,,,,,,,,,,,,,,,,,,,,,,,,,,,,,,,,,,,,,,,,,,,,,,,,,,,,,,,,,,,,,,,,,,,,,,,,,,,,,,,,,,,,,,,,,,,,,,,,,,,,,,,
,,608437f0b139060610c9f0c1,2026-03-17_06h22.50.759,kallum_motion_pilot_GIST_update_2,2026.1.1,Win32,59.88023952,608437f0b139060610c9f0c1,69b92ab4aef6dee357cd729a,69b92b608a516aaeaeb58a09,0.0292,0.0292,1,71,233,83,1,sixeight,,,,,,,,,,,,,,,,,,,,,,,,,,,,,,,,,,,,,,,,,,,,,,,,,,,,,,,,,,,,,,,,,,,,,,,,,,,,,,,,,,,,,,,,,,,,,,,,,,,,,,,,,,,,,,,,,,,,,,,,,,,,,,,,,,,,,,,,,
,,608437f0b139060610c9f0c1,2026-03-17_06h22.50.759,kallum_motion_pilot_GIST_update_2,2026.1.1,Win32,59.88023952,608437f0b139060610c9f0c1,69b92ab4aef6dee357cd729a,69b92b608a516aaeaeb58a09,0.0293,0.0293,1,72,234,154,1,sixfive,,,,,,,,,,,,,,,,,,,,,,,,,,,,,,,,,,,,,,,,,,,,,,,,,,,,,,,,,,,,,,,,,,,,,,,,,,,,,,,,,,,,,,,,,,,,,,,,,,,,,,,,,,,,,,,,,,,,,,,,,,,,,,,,,,,,,,,,,
,,608437f0b139060610c9f0c1,2026-03-17_06h22.50.759,kallum_motion_pilot_GIST_update_2,2026.1.1,Win32,59.88023952,608437f0b139060610c9f0c1,69b92ab4aef6dee357cd729a,69b92b608a516aaeaeb58a09,0.0294,0.0294,1,73,235,150,1,eightsix,,,,,,,,,,,,,,,,,,,,,,,,,,,,,,,,,,,,,,,,,,,,,,,,,,,,,,,,,,,,,,,,,,,,,,,,,,,,,,,,,,,,,,,,,,,,,,,,,,,,,,,,,,,,,,,,,,,,,,,,,,,,,,,,,,,,,,,,,
,,608437f0b139060610c9f0c1,2026-03-17_06h22.50.759,kallum_motion_pilot_GIST_update_2,2026.1.1,Win32,59.88023952,608437f0b139060610c9f0c1,69b92ab4aef6dee357cd729a,69b92b608a516aaeaeb58a09,0.0295,0.0295,1,74,236,7,1,fourthree,,,,,,,,,,,,,,,,,,,,,,,,,,,,,,,,,,,,,,,,,,,,,,,,,,,,,,,,,,,,,,,,,,,,,,,,,,,,,,,,,,,,,,,,,,,,,,,,,,,,,,,,,,,,,,,,,,,,,,,,,,,,,,,,,,,,,,,,,
,,608437f0b139060610c9f0c1,2026-03-17_06h22.50.759,kallum_motion_pilot_GIST_update_2,2026.1.1,Win32,59.88023952,608437f0b139060610c9f0c1,69b92ab4aef6dee357cd729a,69b92b608a516aaeaeb58a09,0.0296,0.0296,1,75,237,23,1,fourthree,,,,,,,,,,,,,,,,,,,,,,,,,,,,,,,,,,,,,,,,,,,,,,,,,,,,,,,,,,,,,,,,,,,,,,,,,,,,,,,,,,,,,,,,,,,,,,,,,,,,,,,,,,,,,,,,,,,,,,,,,,,,,,,,,,,,,,,,,
,,608437f0b139060610c9f0c1,2026-03-17_06h22.50.759,kallum_motion_pilot_GIST_update_2,2026.1.1,Win32,59.88023952,608437f0b139060610c9f0c1,69b92ab4aef6dee357cd729a,69b92b608a516aaeaeb58a09,0.0297,0.0297,1,76,238,16,1,onetwo,,,,,,,,,,,,,,,,,,,,,,,,,,,,,,,,,,,,,,,,,,,,,,,,,,,,,,,,,,,,,,,,,,,,,,,,,,,,,,,,,,,,,,,,,,,,,,,,,,,,,,,,,,,,,,,,,,,,,,,,,,,,,,,,,,,,,,,,,
,,608437f0b139060610c9f0c1,2026-03-17_06h22.50.759,kallum_motion_pilot_GIST_update_2,2026.1.1,Win32,59.88023952,608437f0b139060610c9f0c1,69b92ab4aef6dee357cd729a,69b92b608a516aaeaeb58a09,0.0297,0.0297,1,77,239,95,1,eightseven,,,,,,,,,,,,,,,,,,,,,,,,,,,,,,,,,,,,,,,,,,,,,,,,,,,,,,,,,,,,,,,,,,,,,,,,,,,,,,,,,,,,,,,,,,,,,,,,,,,,,,,,,,,,,,,,,,,,,,,,,,,,,,,,,,,,,,,,,
,,608437f0b139060610c9f0c1,2026-03-17_06h22.50.759,kallum_motion_pilot_GIST_update_2,2026.1.1,Win32,59.88023952,608437f0b139060610c9f0c1,69b92ab4aef6dee357cd729a,69b92b608a516aaeaeb58a09,0.0298,0.0298,1,78,240,160,1,fivesix,,,,,,,,,,,,,,,,,,,,,,,,,,,,,,,,,,,,,,,,,,,,,,,,,,,,,,,,,,,,,,,,,,,,,,,,,,,,,,,,,,,,,,,,,,,,,,,,,,,,,,,,,,,,,,,,,,,,,,,,,,,,,,,,,,,,,,,,,
,,608437f0b139060610c9f0c1,2026-03-17_06h22.50.759,kallum_motion_pilot_GIST_update_2,2026.1.1,Win32,59.88023952,608437f0b139060610c9f0c1,69b92ab4aef6dee357cd729a,69b92b608a516aaeaeb58a09,0.0299,0.0299,1,79,241,116,1,sevenfive,,,,,,,,,,,,,,,,,,,,,,,,,,,,,,,,,,,,,,,,,,,,,,,,,,,,,,,,,,,,,,,,,,,,,,,,,,,,,,,,,,,,,,,,,,,,,,,,,,,,,,,,,,,,,,,,,,,,,,,,,,,,,,,,,,,,,,,,,
,,608437f0b139060610c9f0c1,2026-03-17_06h22.50.759,kallum_motion_pilot_GIST_update_2,2026.1.1,Win32,59.88023952,608437f0b139060610c9f0c1,69b92ab4aef6dee357cd729a,69b92b608a516aaeaeb58a09,0.03,0.03,1,80,242,17,1,onethree,,,,,,,,,,,,,,,,,,,,,,,,,,,,,,,,,,,,,,,,,,,,,,,,,,,,,,,,,,,,,,,,,,,,,,,,,,,,,,,,,,,,,,,,,,,,,,,,,,,,,,,,,,,,,,,,,,,,,,,,,,,,,,,,,,,,,,,,,
,,608437f0b139060610c9f0c1,2026-03-17_06h22.50.759,kallum_motion_pilot_GIST_update_2,2026.1.1,Win32,59.88023952,608437f0b139060610c9f0c1,69b92ab4aef6dee357cd729a,69b92b608a516aaeaeb58a09,0.03,0.03,1,81,243,74,1,twoone,,,,,,,,,,,,,,,,,,,,,,,,,,,,,,,,,,,,,,,,,,,,,,,,,,,,,,,,,,,,,,,,,,,,,,,,,,,,,,,,,,,,,,,,,,,,,,,,,,,,,,,,,,,,,,,,,,,,,,,,,,,,,,,,,,,,,,,,,
,,608437f0b139060610c9f0c1,2026-03-17_06h22.50.759,kallum_motion_pilot_GIST_update_2,2026.1.1,Win32,59.88023952,608437f0b139060610c9f0c1,69b92ab4aef6dee357cd729a,69b92b608a516aaeaeb58a09,0.0302,0.0302,1,82,244,71,1,fourthree,,,,,,,,,,,,,,,,,,,,,,,,,,,,,,,,,,,,,,,,,,,,,,,,,,,,,,,,,,,,,,,,,,,,,,,,,,,,,,,,,,,,,,,,,,,,,,,,,,,,,,,,,,,,,,,,,,,,,,,,,,,,,,,,,,,,,,,,,
,,608437f0b139060610c9f0c1,2026-03-17_06h22.50.759,kallum_motion_pilot_GIST_update_2,2026.1.1,Win32,59.88023952,608437f0b139060610c9f0c1,69b92ab4aef6dee357cd729a,69b92b608a516aaeaeb58a09,0.0302,0.0302,1,83,245,11,1,twofour,,,,,,,,,,,,,,,,,,,,,,,,,,,,,,,,,,,,,,,,,,,,,,,,,,,,,,,,,,,,,,,,,,,,,,,,,,,,,,,,,,,,,,,,,,,,,,,,,,,,,,,,,,,,,,,,,,,,,,,,,,,,,,,,,,,,,,,,,
,,608437f0b139060610c9f0c1,2026-03-17_06h22.50.759,kallum_motion_pilot_GIST_update_2,2026.1.1,Win32,59.88023952,608437f0b139060610c9f0c1,69b92ab4aef6dee357cd729a,69b92b608a516aaeaeb58a09,0.0303,0.0303,1,84,246,31,1,fourthree,,,,,,,,,,,,,,,,,,,,,,,,,,,,,,,,,,,,,,,,,,,,,,,,,,,,,,,,,,,,,,,,,,,,,,,,,,,,,,,,,,,,,,,,,,,,,,,,,,,,,,,,,,,,,,,,,,,,,,,,,,,,,,,,,,,,,,,,,
,,608437f0b139060610c9f0c1,2026-03-17_06h22.50.759,kallum_motion_pilot_GIST_update_2,2026.1.1,Win32,59.88023952,608437f0b139060610c9f0c1,69b92ab4aef6dee357cd729a,69b92b608a516aaeaeb58a09,0.0303,0.0303,1,85,247,122,1,sixfive,,,,,,,,,,,,,,,,,,,,,,,,,,,,,,,,,,,,,,,,,,,,,,,,,,,,,,,,,,,,,,,,,,,,,,,,,,,,,,,,,,,,,,,,,,,,,,,,,,,,,,,,,,,,,,,,,,,,,,,,,,,,,,,,,,,,,,,,,
,,608437f0b139060610c9f0c1,2026-03-17_06h22.50.759,kallum_motion_pilot_GIST_update_2,2026.1.1,Win32,59.88023952,608437f0b139060610c9f0c1,69b92ab4aef6dee357cd729a,69b92b608a516aaeaeb58a09,0.0305,0.0305,1,86,248,65,1,onethree,,,,,,,,,,,,,,,,,,,,,,,,,,,,,,,,,,,,,,,,,,,,,,,,,,,,,,,,,,,,,,,,,,,,,,,,,,,,,,,,,,,,,,,,,,,,,,,,,,,,,,,,,,,,,,,,,,,,,,,,,,,,,,,,,,,,,,,,,
,,608437f0b139060610c9f0c1,2026-03-17_06h22.50.759,kallum_motion_pilot_GIST_update_2,2026.1.1,Win32,59.88023952,608437f0b139060610c9f0c1,69b92ab4aef6dee357cd729a,69b92b608a516aaeaeb58a09,0.0313,0.0313,1,87,249,58,1,twoone,,,,,,,,,,,,,,,,,,,,,,,,,,,,,,,,,,,,,,,,,,,,,,,,,,,,,,,,,,,,,,,,,,,,,,,,,,,,,,,,,,,,,,,,,,,,,,,,,,,,,,,,,,,,,,,,,,,,,,,,,,,,,,,,,,,,,,,,,
,,608437f0b139060610c9f0c1,2026-03-17_06h22.50.759,kallum_motion_pilot_GIST_update_2,2026.1.1,Win32,59.88023952,608437f0b139060610c9f0c1,69b92ab4aef6dee357cd729a,69b92b608a516aaeaeb58a09,0.0314,0.0314,1,88,250,156,1,sevenfive,,,,,,,,,,,,,,,,,,,,,,,,,,,,,,,,,,,,,,,,,,,,,,,,,,,,,,,,,,,,,,,,,,,,,,,,,,,,,,,,,,,,,,,,,,,,,,,,,,,,,,,,,,,,,,,,,,,,,,,,,,,,,,,,,,,,,,,,,
,,608437f0b139060610c9f0c1,2026-03-17_06h22.50.759,kallum_motion_pilot_GIST_update_2,2026.1.1,Win32,59.88023952,608437f0b139060610c9f0c1,69b92ab4aef6dee357cd729a,69b92b608a516aaeaeb58a09,0.0315,0.0315,1,89,251,85,1,seveneight,,,,,,,,,,,,,,,,,,,,,,,,,,,,,,,,,,,,,,,,,,,,,,,,,,,,,,,,,,,,,,,,,,,,,,,,,,,,,,,,,,,,,,,,,,,,,,,,,,,,,,,,,,,,,,,,,,,,,,,,,,,,,,,,,,,,,,,,,
,,608437f0b139060610c9f0c1,2026-03-17_06h22.50.759,kallum_motion_pilot_GIST_update_2,2026.1.1,Win32,59.88023952,608437f0b139060610c9f0c1,69b92ab4aef6dee357cd729a,69b92b608a516aaeaeb58a09,0.0316,0.0316,1,90,252,61,1,threefour,,,,,,,,,,,,,,,,,,,,,,,,,,,,,,,,,,,,,,,,,,,,,,,,,,,,,,,,,,,,,,,,,,,,,,,,,,,,,,,,,,,,,,,,,,,,,,,,,,,,,,,,,,,,,,,,,,,,,,,,,,,,,,,,,,,,,,,,,
,,608437f0b139060610c9f0c1,2026-03-17_06h22.50.759,kallum_motion_pilot_GIST_update_2,2026.1.1,Win32,59.88023952,608437f0b139060610c9f0c1,69b92ab4aef6dee357cd729a,69b92b608a516aaeaeb58a09,0.0318,0.0318,1,91,253,152,1,fivesix,,,,,,,,,,,,,,,,,,,,,,,,,,,,,,,,,,,,,,,,,,,,,,,,,,,,,,,,,,,,,,,,,,,,,,,,,,,,,,,,,,,,,,,,,,,,,,,,,,,,,,,,,,,,,,,,,,,,,,,,,,,,,,,,,,,,,,,,,
,,608437f0b139060610c9f0c1,2026-03-17_06h22.50.759,kallum_motion_pilot_GIST_update_2,2026.1.1,Win32,59.88023952,608437f0b139060610c9f0c1,69b92ab4aef6dee357cd729a,69b92b608a516aaeaeb58a09,0.0319,0.0319,1,92,254,13,1,threefour,,,,,,,,,,,,,,,,,,,,,,,,,,,,,,,,,,,,,,,,,,,,,,,,,,,,,,,,,,,,,,,,,,,,,,,,,,,,,,,,,,,,,,,,,,,,,,,,,,,,,,,,,,,,,,,,,,,,,,,,,,,,,,,,,,,,,,,,,
,,608437f0b139060610c9f0c1,2026-03-17_06h22.50.759,kallum_motion_pilot_GIST_update_2,2026.1.1,Win32,59.88023952,608437f0b139060610c9f0c1,69b92ab4aef6dee357cd729a,69b92b608a516aaeaeb58a09,0.032,0.032,1,93,255,99,1,sixeight,,,,,,,,,,,,,,,,,,,,,,,,,,,,,,,,,,,,,,,,,,,,,,,,,,,,,,,,,,,,,,,,,,,,,,,,,,,,,,,,,,,,,,,,,,,,,,,,,,,,,,,,,,,,,,,,,,,,,,,,,,,,,,,,,,,,,,,,,
,,608437f0b139060610c9f0c1,2026-03-17_06h22.50.759,kallum_motion_pilot_GIST_update_2,2026.1.1,Win32,59.88023952,608437f0b139060610c9f0c1,69b92ab4aef6dee357cd729a,69b92b608a516aaeaeb58a09,0.0321,0.0321,1,94,256,73,1,onethree,,,,,,,,,,,,,,,,,,,,,,,,,,,,,,,,,,,,,,,,,,,,,,,,,,,,,,,,,,,,,,,,,,,,,,,,,,,,,,,,,,,,,,,,,,,,,,,,,,,,,,,,,,,,,,,,,,,,,,,,,,,,,,,,,,,,,,,,,
,,608437f0b139060610c9f0c1,2026-03-17_06h22.50.759,kallum_motion_pilot_GIST_update_2,2026.1.1,Win32,59.88023952,608437f0b139060610c9f0c1,69b92ab4aef6dee357cd729a,69b92b608a516aaeaeb58a09,0.0322,0.0322,1,95,257,127,1,eightseven,,,,,,,,,,,,,,,,,,,,,,,,,,,,,,,,,,,,,,,,,,,,,,,,,,,,,,,,,,,,,,,,,,,,,,,,,,,,,,,,,,,,,,,,,,,,,,,,,,,,,,,,,,,,,,,,,,,,,,,,,,,,,,,,,,,,,,,,,
,,608437f0b139060610c9f0c1,2026-03-17_06h22.50.759,kallum_motion_pilot_GIST_update_2,2026.1.1,Win32,59.88023952,608437f0b139060610c9f0c1,69b92ab4aef6dee357cd729a,69b92b608a516aaeaeb58a09,0.0323,0.0323,1,96,258,117,1,seveneight,,,,,,,,,,,,,,,,,,,,,,,,,,,,,,,,,,,,,,,,,,,,,,,,,,,,,,,,,,,,,,,,,,,,,,,,,,,,,,,,,,,,,,,,,,,,,,,,,,,,,,,,,,,,,,,,,,,,,,,,,,,,,,,,,,,,,,,,,
,,608437f0b139060610c9f0c1,2026-03-17_06h22.50.759,kallum_motion_pilot_GIST_update_2,2026.1.1,Win32,59.88023952,608437f0b139060610c9f0c1,69b92ab4aef6dee357cd729a,69b92b608a516aaeaeb58a09,0.0324,0.0324,1,97,259,20,1,threeone,,,,,,,,,,,,,,,,,,,,,,,,,,,,,,,,,,,,,,,,,,,,,,,,,,,,,,,,,,,,,,,,,,,,,,,,,,,,,,,,,,,,,,,,,,,,,,,,,,,,,,,,,,,,,,,,,,,,,,,,,,,,,,,,,,,,,,,,,
,,608437f0b139060610c9f0c1,2026-03-17_06h22.50.759,kallum_motion_pilot_GIST_update_2,2026.1.1,Win32,59.88023952,608437f0b139060610c9f0c1,69b92ab4aef6dee357cd729a,69b92b608a516aaeaeb58a09,0.0325,0.0325,1,98,260,109,1,seveneight,,,,,,,,,,,,,,,,,,,,,,,,,,,,,,,,,,,,,,,,,,,,,,,,,,,,,,,,,,,,,,,,,,,,,,,,,,,,,,,,,,,,,,,,,,,,,,,,,,,,,,,,,,,,,,,,,,,,,,,,,,,,,,,,,,,,,,,,,
,,608437f0b139060610c9f0c1,2026-03-17_06h22.50.759,kallum_motion_pilot_GIST_update_2,2026.1.1,Win32,59.88023952,608437f0b139060610c9f0c1,69b92ab4aef6dee357cd729a,69b92b608a516aaeaeb58a09,0.0326,0.0326,1,99,261,35,1,twofour,,,,,,,,,,,,,,,,,,,,,,,,,,,,,,,,,,,,,,,,,,,,,,,,,,,,,,,,,,,,,,,,,,,,,,,,,,,,,,,,,,,,,,,,,,,,,,,,,,,,,,,,,,,,,,,,,,,,,,,,,,,,,,,,,,,,,,,,,
,,608437f0b139060610c9f0c1,2026-03-17_06h22.50.759,kallum_motion_pilot_GIST_update_2,2026.1.1,Win32,59.88023952,608437f0b139060610c9f0c1,69b92ab4aef6dee357cd729a,69b92b608a516aaeaeb58a09,0.0327,0.0327,1,100,262,25,1,onethree,,,,,,,,,,,,,,,,,,,,,,,,,,,,,,,,,,,,,,,,,,,,,,,,,,,,,,,,,,,,,,,,,,,,,,,,,,,,,,,,,,,,,,,,,,,,,,,,,,,,,,,,,,,,,,,,,,,,,,,,,,,,,,,,,,,,,,,,,
,,608437f0b139060610c9f0c1,2026-03-17_06h22.50.759,kallum_motion_pilot_GIST_update_2,2026.1.1,Win32,59.88023952,608437f0b139060610c9f0c1,69b92ab4aef6dee357cd729a,69b92b608a516aaeaeb58a09,0.0328,0.0328,1,101,263,69,1,threefour,,,,,,,,,,,,,,,,,,,,,,,,,,,,,,,,,,,,,,,,,,,,,,,,,,,,,,,,,,,,,,,,,,,,,,,,,,,,,,,,,,,,,,,,,,,,,,,,,,,,,,,,,,,,,,,,,,,,,,,,,,,,,,,,,,,,,,,,,
,,608437f0b139060610c9f0c1,2026-03-17_06h22.50.759,kallum_motion_pilot_GIST_update_2,2026.1.1,Win32,59.88023952,608437f0b139060610c9f0c1,69b92ab4aef6dee357cd729a,69b92b608a516aaeaeb58a09,0.0329,0.0329,1,102,264,130,1,sixfive,,,,,,,,,,,,,,,,,,,,,,,,,,,,,,,,,,,,,,,,,,,,,,,,,,,,,,,,,,,,,,,,,,,,,,,,,,,,,,,,,,,,,,,,,,,,,,,,,,,,,,,,,,,,,,,,,,,,,,,,,,,,,,,,,,,,,,,,,
,,608437f0b139060610c9f0c1,2026-03-17_06h22.50.759,kallum_motion_pilot_GIST_update_2,2026.1.1,Win32,59.88023952,608437f0b139060610c9f0c1,69b92ab4aef6dee357cd729a,69b92b608a516aaeaeb58a09,0.033,0.033,1,103,265,115,1,sixeight,,,,,,,,,,,,,,,,,,,,,,,,,,,,,,,,,,,,,,,,,,,,,,,,,,,,,,,,,,,,,,,,,,,,,,,,,,,,,,,,,,,,,,,,,,,,,,,,,,,,,,,,,,,,,,,,,,,,,,,,,,,,,,,,,,,,,,,,,
,,608437f0b139060610c9f0c1,2026-03-17_06h22.50.759,kallum_motion_pilot_GIST_update_2,2026.1.1,Win32,59.88023952,608437f0b139060610c9f0c1,69b92ab4aef6dee357cd729a,69b92b608a516aaeaeb58a09,0.0331,0.0331,1,104,266,123,1,sixeight,,,,,,,,,,,,,,,,,,,,,,,,,,,,,,,,,,,,,,,,,,,,,,,,,,,,,,,,,,,,,,,,,,,,,,,,,,,,,,,,,,,,,,,,,,,,,,,,,,,,,,,,,,,,,,,,,,,,,,,,,,,,,,,,,,,,,,,,,
