startup.started,startup.stopped,Prolific ID*,date,expName,psychopyVersion,OS,frameRate,participant,study_id,session,stimpositions.started,stimpositions.stopped,hardcoded_stimulus_positions.thisRepN,hardcoded_stimulus_positions.thisTrialN,hardcoded_stimulus_positions.thisN,hardcoded_stimulus_positions.thisIndex,hardcoded_stimulus_positions.ran,StimulusPos,stimorientation.started,stimorientation.stopped,prac_stimorientation_import_loop.thisRepN,prac_stimorientation_import_loop.thisTrialN,prac_stimorientation_import_loop.thisN,prac_stimorientation_import_loop.thisIndex,prac_stimorientation_import_loop.ran,Stimorientation,welcome_instr.started,welcome_instr.stopped,key_resp.keys,key_resp.rt,key_resp.duration,response_steppedout_1.started,response_steppedout_1.stopped,key_resp_20.keys,key_resp_20.rt,key_resp_20.duration,response_steppedout_2.started,response_steppedout_2.stopped,key_resp_19.keys,key_resp_19.rt,key_resp_19.duration,stim_response_instr.started,stim_response_instr.stopped,key_resp_15.keys,key_resp_15.rt,key_resp_15.duration,direction_instr_2.started,direction_instr_2.stopped,key_resp_9.keys,key_resp_9.rt,key_resp_9.duration,instr_prac.started,instr_prac.stopped,key_resp_10.keys,key_resp_10.rt,key_resp_10.duration,Stim1_display_prac.started,Stim1_display_prac.stopped,Ecc,Circle1_ori,Circle2_ori,response_prac.started,similarity,response_time,response_prac.stopped,mouse_5.x,mouse_5.y,mouse_5.leftButton,mouse_5.midButton,mouse_5.rightButton,mouse_5.clicked_name,responseprac_feedback.started,responseprac_feedback.stopped,summary2_prac.started,summary2_prac.stopped,mouse_6.x,mouse_6.y,mouse_6.leftButton,mouse_6.midButton,mouse_6.rightButton,mouse_6.clicked_name,duringprac.thisRepN,duringprac.thisTrialN,duringprac.thisN,duringprac.thisIndex,duringprac.ran,begin.started,begin.stopped,key_resp_22.keys,key_resp_22.rt,key_resp_22.duration,Stim1_display.started,Stim1_display.stopped,circle1_ori,circle2_ori,circle1_SF,circle2_SF,response.started,response.stopped,mouse.x,mouse.y,mouse.leftButton,mouse.midButton,mouse.rightButton,mouse.clicked_name,trialnumber,double_pass.thisRepN,double_pass.thisTrialN,double_pass.thisN,double_pass.thisIndex,double_pass.ran,double_pass.order,main_trial.thisRepN,main_trial.thisTrialN,main_trial.thisN,main_trial.thisIndex,main_trial.ran,main_trial.order,Trial_Counter,Catch,Frequencies,response_2.started,response_2.stopped,mouse_2.x,mouse_2.y,mouse_2.leftButton,mouse_2.midButton,mouse_2.rightButton,mouse_2.clicked_name,special_trial.started,special_trial.stopped,catch_1.started,catch_1.stopped,mouse_3.x,mouse_3.y,mouse_3.leftButton,mouse_3.midButton,mouse_3.rightButton,catchresponse,catchnumber,response_time_catch,response_sum.started,response_sum.stopped,mouse_11.x,mouse_11.y,mouse_11.leftButton,mouse_11.midButton,mouse_11.rightButton,flip_presentation_sequence_for_double_pass.started,flip_presentation_sequence_for_double_pass.stopped,goodbye.started,goodbye.stopped,key_resp_3.keys,key_resp_3.rt,key_resp_3.duration
0.0002,0.0003,60a18093c5c040498d3addf8,2026-03-17_15h48.45.577,kallum_motion_pilot_GIST_update_2,2026.1.1,MacIntel,59.88023952,60a18093c5c040498d3addf8,69b95efdef24cd8a694e89ee,69b977b409d67fedf0302f38,,,,,,,,,,,,,,,,,,,,,,,,,,,,,,,,,,,,,,,,,,,,,,,,,,,,,,,,,,,,,,,,,,,,,,,,,,,,,,,,,,,,,,,,,,,,,,,,,,,,,,,,,,,,,,,,,,,,,,,,,,,,,,,,,,,,,,,,,,,,,,,,,
,,60a18093c5c040498d3addf8,2026-03-17_15h48.45.577,kallum_motion_pilot_GIST_update_2,2026.1.1,MacIntel,59.88023952,60a18093c5c040498d3addf8,69b95efdef24cd8a694e89ee,69b977b409d67fedf0302f38,0.0101,0.0102,0,0,0,97,1,fiveseven,,,,,,,,,,,,,,,,,,,,,,,,,,,,,,,,,,,,,,,,,,,,,,,,,,,,,,,,,,,,,,,,,,,,,,,,,,,,,,,,,,,,,,,,,,,,,,,,,,,,,,,,,,,,,,,,,,,,,,,,,,,,,,,,,,,,,,,,,
,,60a18093c5c040498d3addf8,2026-03-17_15h48.45.577,kallum_motion_pilot_GIST_update_2,2026.1.1,MacIntel,59.88023952,60a18093c5c040498d3addf8,69b95efdef24cd8a694e89ee,69b977b409d67fedf0302f38,0.0103,0.0103,0,1,1,137,1,fiveseven,,,,,,,,,,,,,,,,,,,,,,,,,,,,,,,,,,,,,,,,,,,,,,,,,,,,,,,,,,,,,,,,,,,,,,,,,,,,,,,,,,,,,,,,,,,,,,,,,,,,,,,,,,,,,,,,,,,,,,,,,,,,,,,,,,,,,,,,,
,,60a18093c5c040498d3addf8,2026-03-17_15h48.45.577,kallum_motion_pilot_GIST_update_2,2026.1.1,MacIntel,59.88023952,60a18093c5c040498d3addf8,69b95efdef24cd8a694e89ee,69b977b409d67fedf0302f38,0.0103,0.0103,0,2,2,135,1,eightseven,,,,,,,,,,,,,,,,,,,,,,,,,,,,,,,,,,,,,,,,,,,,,,,,,,,,,,,,,,,,,,,,,,,,,,,,,,,,,,,,,,,,,,,,,,,,,,,,,,,,,,,,,,,,,,,,,,,,,,,,,,,,,,,,,,,,,,,,,
,,60a18093c5c040498d3addf8,2026-03-17_15h48.45.577,kallum_motion_pilot_GIST_update_2,2026.1.1,MacIntel,59.88023952,60a18093c5c040498d3addf8,69b95efdef24cd8a694e89ee,69b977b409d67fedf0302f38,0.0103,0.0103,0,3,3,108,1,sevenfive,,,,,,,,,,,,,,,,,,,,,,,,,,,,,,,,,,,,,,,,,,,,,,,,,,,,,,,,,,,,,,,,,,,,,,,,,,,,,,,,,,,,,,,,,,,,,,,,,,,,,,,,,,,,,,,,,,,,,,,,,,,,,,,,,,,,,,,,,
,,60a18093c5c040498d3addf8,2026-03-17_15h48.45.577,kallum_motion_pilot_GIST_update_2,2026.1.1,MacIntel,59.88023952,60a18093c5c040498d3addf8,69b95efdef24cd8a694e89ee,69b977b409d67fedf0302f38,0.0104,0.0104,0,4,4,30,1,fourtwo,,,,,,,,,,,,,,,,,,,,,,,,,,,,,,,,,,,,,,,,,,,,,,,,,,,,,,,,,,,,,,,,,,,,,,,,,,,,,,,,,,,,,,,,,,,,,,,,,,,,,,,,,,,,,,,,,,,,,,,,,,,,,,,,,,,,,,,,,
,,60a18093c5c040498d3addf8,2026-03-17_15h48.45.577,kallum_motion_pilot_GIST_update_2,2026.1.1,MacIntel,59.88023952,60a18093c5c040498d3addf8,69b95efdef24cd8a694e89ee,69b977b409d67fedf0302f38,0.0104,0.0104,0,5,5,51,1,twofour,,,,,,,,,,,,,,,,,,,,,,,,,,,,,,,,,,,,,,,,,,,,,,,,,,,,,,,,,,,,,,,,,,,,,,,,,,,,,,,,,,,,,,,,,,,,,,,,,,,,,,,,,,,,,,,,,,,,,,,,,,,,,,,,,,,,,,,,,
,,60a18093c5c040498d3addf8,2026-03-17_15h48.45.577,kallum_motion_pilot_GIST_update_2,2026.1.1,MacIntel,59.88023952,60a18093c5c040498d3addf8,69b95efdef24cd8a694e89ee,69b977b409d67fedf0302f38,0.0105,0.0105,0,6,6,79,1,eightseven,,,,,,,,,,,,,,,,,,,,,,,,,,,,,,,,,,,,,,,,,,,,,,,,,,,,,,,,,,,,,,,,,,,,,,,,,,,,,,,,,,,,,,,,,,,,,,,,,,,,,,,,,,,,,,,,,,,,,,,,,,,,,,,,,,,,,,,,,
,,60a18093c5c040498d3addf8,2026-03-17_15h48.45.577,kallum_motion_pilot_GIST_update_2,2026.1.1,MacIntel,59.88023952,60a18093c5c040498d3addf8,69b95efdef24cd8a694e89ee,69b977b409d67fedf0302f38,0.0105,0.0105,0,7,7,72,1,onetwo,,,,,,,,,,,,,,,,,,,,,,,,,,,,,,,,,,,,,,,,,,,,,,,,,,,,,,,,,,,,,,,,,,,,,,,,,,,,,,,,,,,,,,,,,,,,,,,,,,,,,,,,,,,,,,,,,,,,,,,,,,,,,,,,,,,,,,,,,
,,60a18093c5c040498d3addf8,2026-03-17_15h48.45.577,kallum_motion_pilot_GIST_update_2,2026.1.1,MacIntel,59.88023952,60a18093c5c040498d3addf8,69b95efdef24cd8a694e89ee,69b977b409d67fedf0302f38,0.0106,0.0106,0,8,8,34,1,twoone,,,,,,,,,,,,,,,,,,,,,,,,,,,,,,,,,,,,,,,,,,,,,,,,,,,,,,,,,,,,,,,,,,,,,,,,,,,,,,,,,,,,,,,,,,,,,,,,,,,,,,,,,,,,,,,,,,,,,,,,,,,,,,,,,,,,,,,,,
,,60a18093c5c040498d3addf8,2026-03-17_15h48.45.577,kallum_motion_pilot_GIST_update_2,2026.1.1,MacIntel,59.88023952,60a18093c5c040498d3addf8,69b95efdef24cd8a694e89ee,69b977b409d67fedf0302f38,0.0106,0.0107,0,9,9,101,1,seveneight,,,,,,,,,,,,,,,,,,,,,,,,,,,,,,,,,,,,,,,,,,,,,,,,,,,,,,,,,,,,,,,,,,,,,,,,,,,,,,,,,,,,,,,,,,,,,,,,,,,,,,,,,,,,,,,,,,,,,,,,,,,,,,,,,,,,,,,,,
,,60a18093c5c040498d3addf8,2026-03-17_15h48.45.577,kallum_motion_pilot_GIST_update_2,2026.1.1,MacIntel,59.88023952,60a18093c5c040498d3addf8,69b95efdef24cd8a694e89ee,69b977b409d67fedf0302f38,0.0107,0.0107,0,10,10,74,1,twoone,,,,,,,,,,,,,,,,,,,,,,,,,,,,,,,,,,,,,,,,,,,,,,,,,,,,,,,,,,,,,,,,,,,,,,,,,,,,,,,,,,,,,,,,,,,,,,,,,,,,,,,,,,,,,,,,,,,,,,,,,,,,,,,,,,,,,,,,,
,,60a18093c5c040498d3addf8,2026-03-17_15h48.45.577,kallum_motion_pilot_GIST_update_2,2026.1.1,MacIntel,59.88023952,60a18093c5c040498d3addf8,69b95efdef24cd8a694e89ee,69b977b409d67fedf0302f38,0.0107,0.0107,0,11,11,144,1,fivesix,,,,,,,,,,,,,,,,,,,,,,,,,,,,,,,,,,,,,,,,,,,,,,,,,,,,,,,,,,,,,,,,,,,,,,,,,,,,,,,,,,,,,,,,,,,,,,,,,,,,,,,,,,,,,,,,,,,,,,,,,,,,,,,,,,,,,,,,,
,,60a18093c5c040498d3addf8,2026-03-17_15h48.45.577,kallum_motion_pilot_GIST_update_2,2026.1.1,MacIntel,59.88023952,60a18093c5c040498d3addf8,69b95efdef24cd8a694e89ee,69b977b409d67fedf0302f38,0.0107,0.0107,0,12,12,117,1,seveneight,,,,,,,,,,,,,,,,,,,,,,,,,,,,,,,,,,,,,,,,,,,,,,,,,,,,,,,,,,,,,,,,,,,,,,,,,,,,,,,,,,,,,,,,,,,,,,,,,,,,,,,,,,,,,,,,,,,,,,,,,,,,,,,,,,,,,,,,,
,,60a18093c5c040498d3addf8,2026-03-17_15h48.45.577,kallum_motion_pilot_GIST_update_2,2026.1.1,MacIntel,59.88023952,60a18093c5c040498d3addf8,69b95efdef24cd8a694e89ee,69b977b409d67fedf0302f38,0.0108,0.0108,0,13,13,37,1,threefour,,,,,,,,,,,,,,,,,,,,,,,,,,,,,,,,,,,,,,,,,,,,,,,,,,,,,,,,,,,,,,,,,,,,,,,,,,,,,,,,,,,,,,,,,,,,,,,,,,,,,,,,,,,,,,,,,,,,,,,,,,,,,,,,,,,,,,,,,
,,60a18093c5c040498d3addf8,2026-03-17_15h48.45.577,kallum_motion_pilot_GIST_update_2,2026.1.1,MacIntel,59.88023952,60a18093c5c040498d3addf8,69b95efdef24cd8a694e89ee,69b977b409d67fedf0302f38,0.0108,0.0108,0,14,14,75,1,twofour,,,,,,,,,,,,,,,,,,,,,,,,,,,,,,,,,,,,,,,,,,,,,,,,,,,,,,,,,,,,,,,,,,,,,,,,,,,,,,,,,,,,,,,,,,,,,,,,,,,,,,,,,,,,,,,,,,,,,,,,,,,,,,,,,,,,,,,,,
,,60a18093c5c040498d3addf8,2026-03-17_15h48.45.577,kallum_motion_pilot_GIST_update_2,2026.1.1,MacIntel,59.88023952,60a18093c5c040498d3addf8,69b95efdef24cd8a694e89ee,69b977b409d67fedf0302f38,0.0108,0.0108,0,15,15,155,1,sixeight,,,,,,,,,,,,,,,,,,,,,,,,,,,,,,,,,,,,,,,,,,,,,,,,,,,,,,,,,,,,,,,,,,,,,,,,,,,,,,,,,,,,,,,,,,,,,,,,,,,,,,,,,,,,,,,,,,,,,,,,,,,,,,,,,,,,,,,,,
,,60a18093c5c040498d3addf8,2026-03-17_15h48.45.577,kallum_motion_pilot_GIST_update_2,2026.1.1,MacIntel,59.88023952,60a18093c5c040498d3addf8,69b95efdef24cd8a694e89ee,69b977b409d67fedf0302f38,0.0109,0.0109,0,16,16,132,1,sevenfive,,,,,,,,,,,,,,,,,,,,,,,,,,,,,,,,,,,,,,,,,,,,,,,,,,,,,,,,,,,,,,,,,,,,,,,,,,,,,,,,,,,,,,,,,,,,,,,,,,,,,,,,,,,,,,,,,,,,,,,,,,,,,,,,,,,,,,,,,
,,60a18093c5c040498d3addf8,2026-03-17_15h48.45.577,kallum_motion_pilot_GIST_update_2,2026.1.1,MacIntel,59.88023952,60a18093c5c040498d3addf8,69b95efdef24cd8a694e89ee,69b977b409d67fedf0302f38,0.011,0.011,0,17,17,52,1,threeone,,,,,,,,,,,,,,,,,,,,,,,,,,,,,,,,,,,,,,,,,,,,,,,,,,,,,,,,,,,,,,,,,,,,,,,,,,,,,,,,,,,,,,,,,,,,,,,,,,,,,,,,,,,,,,,,,,,,,,,,,,,,,,,,,,,,,,,,,
,,60a18093c5c040498d3addf8,2026-03-17_15h48.45.577,kallum_motion_pilot_GIST_update_2,2026.1.1,MacIntel,59.88023952,60a18093c5c040498d3addf8,69b95efdef24cd8a694e89ee,69b977b409d67fedf0302f38,0.011,0.011,0,18,18,106,1,sixfive,,,,,,,,,,,,,,,,,,,,,,,,,,,,,,,,,,,,,,,,,,,,,,,,,,,,,,,,,,,,,,,,,,,,,,,,,,,,,,,,,,,,,,,,,,,,,,,,,,,,,,,,,,,,,,,,,,,,,,,,,,,,,,,,,,,,,,,,,
,,60a18093c5c040498d3addf8,2026-03-17_15h48.45.577,kallum_motion_pilot_GIST_update_2,2026.1.1,MacIntel,59.88023952,60a18093c5c040498d3addf8,69b95efdef24cd8a694e89ee,69b977b409d67fedf0302f38,0.011,0.011,0,19,19,112,1,fivesix,,,,,,,,,,,,,,,,,,,,,,,,,,,,,,,,,,,,,,,,,,,,,,,,,,,,,,,,,,,,,,,,,,,,,,,,,,,,,,,,,,,,,,,,,,,,,,,,,,,,,,,,,,,,,,,,,,,,,,,,,,,,,,,,,,,,,,,,,
,,60a18093c5c040498d3addf8,2026-03-17_15h48.45.577,kallum_motion_pilot_GIST_update_2,2026.1.1,MacIntel,59.88023952,60a18093c5c040498d3addf8,69b95efdef24cd8a694e89ee,69b977b409d67fedf0302f38,0.0111,0.0111,0,20,20,158,1,eightsix,,,,,,,,,,,,,,,,,,,,,,,,,,,,,,,,,,,,,,,,,,,,,,,,,,,,,,,,,,,,,,,,,,,,,,,,,,,,,,,,,,,,,,,,,,,,,,,,,,,,,,,,,,,,,,,,,,,,,,,,,,,,,,,,,,,,,,,,,
,,60a18093c5c040498d3addf8,2026-03-17_15h48.45.577,kallum_motion_pilot_GIST_update_2,2026.1.1,MacIntel,59.88023952,60a18093c5c040498d3addf8,69b95efdef24cd8a694e89ee,69b977b409d67fedf0302f38,0.0111,0.0111,0,21,21,49,1,onethree,,,,,,,,,,,,,,,,,,,,,,,,,,,,,,,,,,,,,,,,,,,,,,,,,,,,,,,,,,,,,,,,,,,,,,,,,,,,,,,,,,,,,,,,,,,,,,,,,,,,,,,,,,,,,,,,,,,,,,,,,,,,,,,,,,,,,,,,,
,,60a18093c5c040498d3addf8,2026-03-17_15h48.45.577,kallum_motion_pilot_GIST_update_2,2026.1.1,MacIntel,59.88023952,60a18093c5c040498d3addf8,69b95efdef24cd8a694e89ee,69b977b409d67fedf0302f38,0.0111,0.0111,0,22,22,16,1,onetwo,,,,,,,,,,,,,,,,,,,,,,,,,,,,,,,,,,,,,,,,,,,,,,,,,,,,,,,,,,,,,,,,,,,,,,,,,,,,,,,,,,,,,,,,,,,,,,,,,,,,,,,,,,,,,,,,,,,,,,,,,,,,,,,,,,,,,,,,,
,,60a18093c5c040498d3addf8,2026-03-17_15h48.45.577,kallum_motion_pilot_GIST_update_2,2026.1.1,MacIntel,59.88023952,60a18093c5c040498d3addf8,69b95efdef24cd8a694e89ee,69b977b409d67fedf0302f38,0.0112,0.0112,0,23,23,33,1,onethree,,,,,,,,,,,,,,,,,,,,,,,,,,,,,,,,,,,,,,,,,,,,,,,,,,,,,,,,,,,,,,,,,,,,,,,,,,,,,,,,,,,,,,,,,,,,,,,,,,,,,,,,,,,,,,,,,,,,,,,,,,,,,,,,,,,,,,,,,
,,60a18093c5c040498d3addf8,2026-03-17_15h48.45.577,kallum_motion_pilot_GIST_update_2,2026.1.1,MacIntel,59.88023952,60a18093c5c040498d3addf8,69b95efdef24cd8a694e89ee,69b977b409d67fedf0302f38,0.0112,0.0112,0,24,24,118,1,eightsix,,,,,,,,,,,,,,,,,,,,,,,,,,,,,,,,,,,,,,,,,,,,,,,,,,,,,,,,,,,,,,,,,,,,,,,,,,,,,,,,,,,,,,,,,,,,,,,,,,,,,,,,,,,,,,,,,,,,,,,,,,,,,,,,,,,,,,,,,
,,60a18093c5c040498d3addf8,2026-03-17_15h48.45.577,kallum_motion_pilot_GIST_update_2,2026.1.1,MacIntel,59.88023952,60a18093c5c040498d3addf8,69b95efdef24cd8a694e89ee,69b977b409d67fedf0302f38,0.0113,0.0113,0,25,25,43,1,twofour,,,,,,,,,,,,,,,,,,,,,,,,,,,,,,,,,,,,,,,,,,,,,,,,,,,,,,,,,,,,,,,,,,,,,,,,,,,,,,,,,,,,,,,,,,,,,,,,,,,,,,,,,,,,,,,,,,,,,,,,,,,,,,,,,,,,,,,,,
,,60a18093c5c040498d3addf8,2026-03-17_15h48.45.577,kallum_motion_pilot_GIST_update_2,2026.1.1,MacIntel,59.88023952,60a18093c5c040498d3addf8,69b95efdef24cd8a694e89ee,69b977b409d67fedf0302f38,0.0113,0.0113,0,26,26,25,1,onethree,,,,,,,,,,,,,,,,,,,,,,,,,,,,,,,,,,,,,,,,,,,,,,,,,,,,,,,,,,,,,,,,,,,,,,,,,,,,,,,,,,,,,,,,,,,,,,,,,,,,,,,,,,,,,,,,,,,,,,,,,,,,,,,,,,,,,,,,,
,,60a18093c5c040498d3addf8,2026-03-17_15h48.45.577,kallum_motion_pilot_GIST_update_2,2026.1.1,MacIntel,59.88023952,60a18093c5c040498d3addf8,69b95efdef24cd8a694e89ee,69b977b409d67fedf0302f38,0.0114,0.0114,0,27,27,58,1,twoone,,,,,,,,,,,,,,,,,,,,,,,,,,,,,,,,,,,,,,,,,,,,,,,,,,,,,,,,,,,,,,,,,,,,,,,,,,,,,,,,,,,,,,,,,,,,,,,,,,,,,,,,,,,,,,,,,,,,,,,,,,,,,,,,,,,,,,,,,
,,60a18093c5c040498d3addf8,2026-03-17_15h48.45.577,kallum_motion_pilot_GIST_update_2,2026.1.1,MacIntel,59.88023952,60a18093c5c040498d3addf8,69b95efdef24cd8a694e89ee,69b977b409d67fedf0302f38,0.0114,0.0114,0,28,28,102,1,eightsix,,,,,,,,,,,,,,,,,,,,,,,,,,,,,,,,,,,,,,,,,,,,,,,,,,,,,,,,,,,,,,,,,,,,,,,,,,,,,,,,,,,,,,,,,,,,,,,,,,,,,,,,,,,,,,,,,,,,,,,,,,,,,,,,,,,,,,,,,
,,60a18093c5c040498d3addf8,2026-03-17_15h48.45.577,kallum_motion_pilot_GIST_update_2,2026.1.1,MacIntel,59.88023952,60a18093c5c040498d3addf8,69b95efdef24cd8a694e89ee,69b977b409d67fedf0302f38,0.0115,0.0115,0,29,29,111,1,eightseven,,,,,,,,,,,,,,,,,,,,,,,,,,,,,,,,,,,,,,,,,,,,,,,,,,,,,,,,,,,,,,,,,,,,,,,,,,,,,,,,,,,,,,,,,,,,,,,,,,,,,,,,,,,,,,,,,,,,,,,,,,,,,,,,,,,,,,,,,
,,60a18093c5c040498d3addf8,2026-03-17_15h48.45.577,kallum_motion_pilot_GIST_update_2,2026.1.1,MacIntel,59.88023952,60a18093c5c040498d3addf8,69b95efdef24cd8a694e89ee,69b977b409d67fedf0302f38,0.0115,0.0115,0,30,30,3,1,twofour,,,,,,,,,,,,,,,,,,,,,,,,,,,,,,,,,,,,,,,,,,,,,,,,,,,,,,,,,,,,,,,,,,,,,,,,,,,,,,,,,,,,,,,,,,,,,,,,,,,,,,,,,,,,,,,,,,,,,,,,,,,,,,,,,,,,,,,,,
,,60a18093c5c040498d3addf8,2026-03-17_15h48.45.577,kallum_motion_pilot_GIST_update_2,2026.1.1,MacIntel,59.88023952,60a18093c5c040498d3addf8,69b95efdef24cd8a694e89ee,69b977b409d67fedf0302f38,0.0115,0.0115,0,31,31,28,1,threeone,,,,,,,,,,,,,,,,,,,,,,,,,,,,,,,,,,,,,,,,,,,,,,,,,,,,,,,,,,,,,,,,,,,,,,,,,,,,,,,,,,,,,,,,,,,,,,,,,,,,,,,,,,,,,,,,,,,,,,,,,,,,,,,,,,,,,,,,,
,,60a18093c5c040498d3addf8,2026-03-17_15h48.45.577,kallum_motion_pilot_GIST_update_2,2026.1.1,MacIntel,59.88023952,60a18093c5c040498d3addf8,69b95efdef24cd8a694e89ee,69b977b409d67fedf0302f38,0.0116,0.0116,0,32,32,107,1,sixeight,,,,,,,,,,,,,,,,,,,,,,,,,,,,,,,,,,,,,,,,,,,,,,,,,,,,,,,,,,,,,,,,,,,,,,,,,,,,,,,,,,,,,,,,,,,,,,,,,,,,,,,,,,,,,,,,,,,,,,,,,,,,,,,,,,,,,,,,,
,,60a18093c5c040498d3addf8,2026-03-17_15h48.45.577,kallum_motion_pilot_GIST_update_2,2026.1.1,MacIntel,59.88023952,60a18093c5c040498d3addf8,69b95efdef24cd8a694e89ee,69b977b409d67fedf0302f38,0.0116,0.0116,0,33,33,77,1,threefour,,,,,,,,,,,,,,,,,,,,,,,,,,,,,,,,,,,,,,,,,,,,,,,,,,,,,,,,,,,,,,,,,,,,,,,,,,,,,,,,,,,,,,,,,,,,,,,,,,,,,,,,,,,,,,,,,,,,,,,,,,,,,,,,,,,,,,,,,
,,60a18093c5c040498d3addf8,2026-03-17_15h48.45.577,kallum_motion_pilot_GIST_update_2,2026.1.1,MacIntel,59.88023952,60a18093c5c040498d3addf8,69b95efdef24cd8a694e89ee,69b977b409d67fedf0302f38,0.0117,0.0117,0,34,34,104,1,fivesix,,,,,,,,,,,,,,,,,,,,,,,,,,,,,,,,,,,,,,,,,,,,,,,,,,,,,,,,,,,,,,,,,,,,,,,,,,,,,,,,,,,,,,,,,,,,,,,,,,,,,,,,,,,,,,,,,,,,,,,,,,,,,,,,,,,,,,,,,
,,60a18093c5c040498d3addf8,2026-03-17_15h48.45.577,kallum_motion_pilot_GIST_update_2,2026.1.1,MacIntel,59.88023952,60a18093c5c040498d3addf8,69b95efdef24cd8a694e89ee,69b977b409d67fedf0302f38,0.0117,0.0117,0,35,35,160,1,fivesix,,,,,,,,,,,,,,,,,,,,,,,,,,,,,,,,,,,,,,,,,,,,,,,,,,,,,,,,,,,,,,,,,,,,,,,,,,,,,,,,,,,,,,,,,,,,,,,,,,,,,,,,,,,,,,,,,,,,,,,,,,,,,,,,,,,,,,,,,
,,60a18093c5c040498d3addf8,2026-03-17_15h48.45.577,kallum_motion_pilot_GIST_update_2,2026.1.1,MacIntel,59.88023952,60a18093c5c040498d3addf8,69b95efdef24cd8a694e89ee,69b977b409d67fedf0302f38,0.0117,0.0117,0,36,36,21,1,threefour,,,,,,,,,,,,,,,,,,,,,,,,,,,,,,,,,,,,,,,,,,,,,,,,,,,,,,,,,,,,,,,,,,,,,,,,,,,,,,,,,,,,,,,,,,,,,,,,,,,,,,,,,,,,,,,,,,,,,,,,,,,,,,,,,,,,,,,,,
,,60a18093c5c040498d3addf8,2026-03-17_15h48.45.577,kallum_motion_pilot_GIST_update_2,2026.1.1,MacIntel,59.88023952,60a18093c5c040498d3addf8,69b95efdef24cd8a694e89ee,69b977b409d67fedf0302f38,0.0118,0.0118,0,37,37,18,1,twoone,,,,,,,,,,,,,,,,,,,,,,,,,,,,,,,,,,,,,,,,,,,,,,,,,,,,,,,,,,,,,,,,,,,,,,,,,,,,,,,,,,,,,,,,,,,,,,,,,,,,,,,,,,,,,,,,,,,,,,,,,,,,,,,,,,,,,,,,,
,,60a18093c5c040498d3addf8,2026-03-17_15h48.45.577,kallum_motion_pilot_GIST_update_2,2026.1.1,MacIntel,59.88023952,60a18093c5c040498d3addf8,69b95efdef24cd8a694e89ee,69b977b409d67fedf0302f38,0.0118,0.0118,0,38,38,42,1,twoone,,,,,,,,,,,,,,,,,,,,,,,,,,,,,,,,,,,,,,,,,,,,,,,,,,,,,,,,,,,,,,,,,,,,,,,,,,,,,,,,,,,,,,,,,,,,,,,,,,,,,,,,,,,,,,,,,,,,,,,,,,,,,,,,,,,,,,,,,
,,60a18093c5c040498d3addf8,2026-03-17_15h48.45.577,kallum_motion_pilot_GIST_update_2,2026.1.1,MacIntel,59.88023952,60a18093c5c040498d3addf8,69b95efdef24cd8a694e89ee,69b977b409d67fedf0302f38,0.0119,0.0119,0,39,39,41,1,onethree,,,,,,,,,,,,,,,,,,,,,,,,,,,,,,,,,,,,,,,,,,,,,,,,,,,,,,,,,,,,,,,,,,,,,,,,,,,,,,,,,,,,,,,,,,,,,,,,,,,,,,,,,,,,,,,,,,,,,,,,,,,,,,,,,,,,,,,,,
,,60a18093c5c040498d3addf8,2026-03-17_15h48.45.577,kallum_motion_pilot_GIST_update_2,2026.1.1,MacIntel,59.88023952,60a18093c5c040498d3addf8,69b95efdef24cd8a694e89ee,69b977b409d67fedf0302f38,0.012,0.012,0,40,40,131,1,sixeight,,,,,,,,,,,,,,,,,,,,,,,,,,,,,,,,,,,,,,,,,,,,,,,,,,,,,,,,,,,,,,,,,,,,,,,,,,,,,,,,,,,,,,,,,,,,,,,,,,,,,,,,,,,,,,,,,,,,,,,,,,,,,,,,,,,,,,,,,
,,60a18093c5c040498d3addf8,2026-03-17_15h48.45.577,kallum_motion_pilot_GIST_update_2,2026.1.1,MacIntel,59.88023952,60a18093c5c040498d3addf8,69b95efdef24cd8a694e89ee,69b977b409d67fedf0302f38,0.012,0.012,0,41,41,142,1,eightsix,,,,,,,,,,,,,,,,,,,,,,,,,,,,,,,,,,,,,,,,,,,,,,,,,,,,,,,,,,,,,,,,,,,,,,,,,,,,,,,,,,,,,,,,,,,,,,,,,,,,,,,,,,,,,,,,,,,,,,,,,,,,,,,,,,,,,,,,,
,,60a18093c5c040498d3addf8,2026-03-17_15h48.45.577,kallum_motion_pilot_GIST_update_2,2026.1.1,MacIntel,59.88023952,60a18093c5c040498d3addf8,69b95efdef24cd8a694e89ee,69b977b409d67fedf0302f38,0.012,0.012,0,42,42,88,1,fivesix,,,,,,,,,,,,,,,,,,,,,,,,,,,,,,,,,,,,,,,,,,,,,,,,,,,,,,,,,,,,,,,,,,,,,,,,,,,,,,,,,,,,,,,,,,,,,,,,,,,,,,,,,,,,,,,,,,,,,,,,,,,,,,,,,,,,,,,,,
,,60a18093c5c040498d3addf8,2026-03-17_15h48.45.577,kallum_motion_pilot_GIST_update_2,2026.1.1,MacIntel,59.88023952,60a18093c5c040498d3addf8,69b95efdef24cd8a694e89ee,69b977b409d67fedf0302f38,0.012,0.012,0,43,43,40,1,onetwo,,,,,,,,,,,,,,,,,,,,,,,,,,,,,,,,,,,,,,,,,,,,,,,,,,,,,,,,,,,,,,,,,,,,,,,,,,,,,,,,,,,,,,,,,,,,,,,,,,,,,,,,,,,,,,,,,,,,,,,,,,,,,,,,,,,,,,,,,
,,60a18093c5c040498d3addf8,2026-03-17_15h48.45.577,kallum_motion_pilot_GIST_update_2,2026.1.1,MacIntel,59.88023952,60a18093c5c040498d3addf8,69b95efdef24cd8a694e89ee,69b977b409d67fedf0302f38,0.0121,0.0121,0,44,44,60,1,threeone,,,,,,,,,,,,,,,,,,,,,,,,,,,,,,,,,,,,,,,,,,,,,,,,,,,,,,,,,,,,,,,,,,,,,,,,,,,,,,,,,,,,,,,,,,,,,,,,,,,,,,,,,,,,,,,,,,,,,,,,,,,,,,,,,,,,,,,,,
,,60a18093c5c040498d3addf8,2026-03-17_15h48.45.577,kallum_motion_pilot_GIST_update_2,2026.1.1,MacIntel,59.88023952,60a18093c5c040498d3addf8,69b95efdef24cd8a694e89ee,69b977b409d67fedf0302f38,0.0121,0.0121,0,45,45,122,1,sixfive,,,,,,,,,,,,,,,,,,,,,,,,,,,,,,,,,,,,,,,,,,,,,,,,,,,,,,,,,,,,,,,,,,,,,,,,,,,,,,,,,,,,,,,,,,,,,,,,,,,,,,,,,,,,,,,,,,,,,,,,,,,,,,,,,,,,,,,,,
,,60a18093c5c040498d3addf8,2026-03-17_15h48.45.577,kallum_motion_pilot_GIST_update_2,2026.1.1,MacIntel,59.88023952,60a18093c5c040498d3addf8,69b95efdef24cd8a694e89ee,69b977b409d67fedf0302f38,0.0122,0.0122,0,46,46,9,1,onethree,,,,,,,,,,,,,,,,,,,,,,,,,,,,,,,,,,,,,,,,,,,,,,,,,,,,,,,,,,,,,,,,,,,,,,,,,,,,,,,,,,,,,,,,,,,,,,,,,,,,,,,,,,,,,,,,,,,,,,,,,,,,,,,,,,,,,,,,,
,,60a18093c5c040498d3addf8,2026-03-17_15h48.45.577,kallum_motion_pilot_GIST_update_2,2026.1.1,MacIntel,59.88023952,60a18093c5c040498d3addf8,69b95efdef24cd8a694e89ee,69b977b409d67fedf0302f38,0.0122,0.0122,0,47,47,46,1,fourtwo,,,,,,,,,,,,,,,,,,,,,,,,,,,,,,,,,,,,,,,,,,,,,,,,,,,,,,,,,,,,,,,,,,,,,,,,,,,,,,,,,,,,,,,,,,,,,,,,,,,,,,,,,,,,,,,,,,,,,,,,,,,,,,,,,,,,,,,,,
,,60a18093c5c040498d3addf8,2026-03-17_15h48.45.577,kallum_motion_pilot_GIST_update_2,2026.1.1,MacIntel,59.88023952,60a18093c5c040498d3addf8,69b95efdef24cd8a694e89ee,69b977b409d67fedf0302f38,0.0122,0.0122,0,48,48,146,1,sixfive,,,,,,,,,,,,,,,,,,,,,,,,,,,,,,,,,,,,,,,,,,,,,,,,,,,,,,,,,,,,,,,,,,,,,,,,,,,,,,,,,,,,,,,,,,,,,,,,,,,,,,,,,,,,,,,,,,,,,,,,,,,,,,,,,,,,,,,,,
,,60a18093c5c040498d3addf8,2026-03-17_15h48.45.577,kallum_motion_pilot_GIST_update_2,2026.1.1,MacIntel,59.88023952,60a18093c5c040498d3addf8,69b95efdef24cd8a694e89ee,69b977b409d67fedf0302f38,0.0123,0.0123,0,49,49,76,1,threeone,,,,,,,,,,,,,,,,,,,,,,,,,,,,,,,,,,,,,,,,,,,,,,,,,,,,,,,,,,,,,,,,,,,,,,,,,,,,,,,,,,,,,,,,,,,,,,,,,,,,,,,,,,,,,,,,,,,,,,,,,,,,,,,,,,,,,,,,,
,,60a18093c5c040498d3addf8,2026-03-17_15h48.45.577,kallum_motion_pilot_GIST_update_2,2026.1.1,MacIntel,59.88023952,60a18093c5c040498d3addf8,69b95efdef24cd8a694e89ee,69b977b409d67fedf0302f38,0.0123,0.0123,0,50,50,103,1,eightseven,,,,,,,,,,,,,,,,,,,,,,,,,,,,,,,,,,,,,,,,,,,,,,,,,,,,,,,,,,,,,,,,,,,,,,,,,,,,,,,,,,,,,,,,,,,,,,,,,,,,,,,,,,,,,,,,,,,,,,,,,,,,,,,,,,,,,,,,,
,,60a18093c5c040498d3addf8,2026-03-17_15h48.45.577,kallum_motion_pilot_GIST_update_2,2026.1.1,MacIntel,59.88023952,60a18093c5c040498d3addf8,69b95efdef24cd8a694e89ee,69b977b409d67fedf0302f38,0.0123,0.0123,0,51,51,99,1,sixeight,,,,,,,,,,,,,,,,,,,,,,,,,,,,,,,,,,,,,,,,,,,,,,,,,,,,,,,,,,,,,,,,,,,,,,,,,,,,,,,,,,,,,,,,,,,,,,,,,,,,,,,,,,,,,,,,,,,,,,,,,,,,,,,,,,,,,,,,,
,,60a18093c5c040498d3addf8,2026-03-17_15h48.45.577,kallum_motion_pilot_GIST_update_2,2026.1.1,MacIntel,59.88023952,60a18093c5c040498d3addf8,69b95efdef24cd8a694e89ee,69b977b409d67fedf0302f38,0.0124,0.0124,0,52,52,66,1,twoone,,,,,,,,,,,,,,,,,,,,,,,,,,,,,,,,,,,,,,,,,,,,,,,,,,,,,,,,,,,,,,,,,,,,,,,,,,,,,,,,,,,,,,,,,,,,,,,,,,,,,,,,,,,,,,,,,,,,,,,,,,,,,,,,,,,,,,,,,
,,60a18093c5c040498d3addf8,2026-03-17_15h48.45.577,kallum_motion_pilot_GIST_update_2,2026.1.1,MacIntel,59.88023952,60a18093c5c040498d3addf8,69b95efdef24cd8a694e89ee,69b977b409d67fedf0302f38,0.0124,0.0124,0,53,53,126,1,eightsix,,,,,,,,,,,,,,,,,,,,,,,,,,,,,,,,,,,,,,,,,,,,,,,,,,,,,,,,,,,,,,,,,,,,,,,,,,,,,,,,,,,,,,,,,,,,,,,,,,,,,,,,,,,,,,,,,,,,,,,,,,,,,,,,,,,,,,,,,
,,60a18093c5c040498d3addf8,2026-03-17_15h48.45.577,kallum_motion_pilot_GIST_update_2,2026.1.1,MacIntel,59.88023952,60a18093c5c040498d3addf8,69b95efdef24cd8a694e89ee,69b977b409d67fedf0302f38,0.0124,0.0124,0,54,54,123,1,sixeight,,,,,,,,,,,,,,,,,,,,,,,,,,,,,,,,,,,,,,,,,,,,,,,,,,,,,,,,,,,,,,,,,,,,,,,,,,,,,,,,,,,,,,,,,,,,,,,,,,,,,,,,,,,,,,,,,,,,,,,,,,,,,,,,,,,,,,,,,
,,60a18093c5c040498d3addf8,2026-03-17_15h48.45.577,kallum_motion_pilot_GIST_update_2,2026.1.1,MacIntel,59.88023952,60a18093c5c040498d3addf8,69b95efdef24cd8a694e89ee,69b977b409d67fedf0302f38,0.0125,0.0125,0,55,55,87,1,eightseven,,,,,,,,,,,,,,,,,,,,,,,,,,,,,,,,,,,,,,,,,,,,,,,,,,,,,,,,,,,,,,,,,,,,,,,,,,,,,,,,,,,,,,,,,,,,,,,,,,,,,,,,,,,,,,,,,,,,,,,,,,,,,,,,,,,,,,,,,
,,60a18093c5c040498d3addf8,2026-03-17_15h48.45.577,kallum_motion_pilot_GIST_update_2,2026.1.1,MacIntel,59.88023952,60a18093c5c040498d3addf8,69b95efdef24cd8a694e89ee,69b977b409d67fedf0302f38,0.0126,0.0126,0,56,56,82,1,sixfive,,,,,,,,,,,,,,,,,,,,,,,,,,,,,,,,,,,,,,,,,,,,,,,,,,,,,,,,,,,,,,,,,,,,,,,,,,,,,,,,,,,,,,,,,,,,,,,,,,,,,,,,,,,,,,,,,,,,,,,,,,,,,,,,,,,,,,,,,
,,60a18093c5c040498d3addf8,2026-03-17_15h48.45.577,kallum_motion_pilot_GIST_update_2,2026.1.1,MacIntel,59.88023952,60a18093c5c040498d3addf8,69b95efdef24cd8a694e89ee,69b977b409d67fedf0302f38,0.0126,0.0126,0,57,57,62,1,fourtwo,,,,,,,,,,,,,,,,,,,,,,,,,,,,,,,,,,,,,,,,,,,,,,,,,,,,,,,,,,,,,,,,,,,,,,,,,,,,,,,,,,,,,,,,,,,,,,,,,,,,,,,,,,,,,,,,,,,,,,,,,,,,,,,,,,,,,,,,,
,,60a18093c5c040498d3addf8,2026-03-17_15h48.45.577,kallum_motion_pilot_GIST_update_2,2026.1.1,MacIntel,59.88023952,60a18093c5c040498d3addf8,69b95efdef24cd8a694e89ee,69b977b409d67fedf0302f38,0.0126,0.0126,0,58,58,140,1,sevenfive,,,,,,,,,,,,,,,,,,,,,,,,,,,,,,,,,,,,,,,,,,,,,,,,,,,,,,,,,,,,,,,,,,,,,,,,,,,,,,,,,,,,,,,,,,,,,,,,,,,,,,,,,,,,,,,,,,,,,,,,,,,,,,,,,,,,,,,,,
,,60a18093c5c040498d3addf8,2026-03-17_15h48.45.577,kallum_motion_pilot_GIST_update_2,2026.1.1,MacIntel,59.88023952,60a18093c5c040498d3addf8,69b95efdef24cd8a694e89ee,69b977b409d67fedf0302f38,0.0126,0.0126,0,59,59,83,1,sixeight,,,,,,,,,,,,,,,,,,,,,,,,,,,,,,,,,,,,,,,,,,,,,,,,,,,,,,,,,,,,,,,,,,,,,,,,,,,,,,,,,,,,,,,,,,,,,,,,,,,,,,,,,,,,,,,,,,,,,,,,,,,,,,,,,,,,,,,,,
,,60a18093c5c040498d3addf8,2026-03-17_15h48.45.577,kallum_motion_pilot_GIST_update_2,2026.1.1,MacIntel,59.88023952,60a18093c5c040498d3addf8,69b95efdef24cd8a694e89ee,69b977b409d67fedf0302f38,0.0127,0.0127,0,60,60,91,1,sixeight,,,,,,,,,,,,,,,,,,,,,,,,,,,,,,,,,,,,,,,,,,,,,,,,,,,,,,,,,,,,,,,,,,,,,,,,,,,,,,,,,,,,,,,,,,,,,,,,,,,,,,,,,,,,,,,,,,,,,,,,,,,,,,,,,,,,,,,,,
,,60a18093c5c040498d3addf8,2026-03-17_15h48.45.577,kallum_motion_pilot_GIST_update_2,2026.1.1,MacIntel,59.88023952,60a18093c5c040498d3addf8,69b95efdef24cd8a694e89ee,69b977b409d67fedf0302f38,0.0127,0.0127,0,61,61,39,1,fourthree,,,,,,,,,,,,,,,,,,,,,,,,,,,,,,,,,,,,,,,,,,,,,,,,,,,,,,,,,,,,,,,,,,,,,,,,,,,,,,,,,,,,,,,,,,,,,,,,,,,,,,,,,,,,,,,,,,,,,,,,,,,,,,,,,,,,,,,,,
,,60a18093c5c040498d3addf8,2026-03-17_15h48.45.577,kallum_motion_pilot_GIST_update_2,2026.1.1,MacIntel,59.88023952,60a18093c5c040498d3addf8,69b95efdef24cd8a694e89ee,69b977b409d67fedf0302f38,0.0128,0.0128,0,62,62,114,1,sixfive,,,,,,,,,,,,,,,,,,,,,,,,,,,,,,,,,,,,,,,,,,,,,,,,,,,,,,,,,,,,,,,,,,,,,,,,,,,,,,,,,,,,,,,,,,,,,,,,,,,,,,,,,,,,,,,,,,,,,,,,,,,,,,,,,,,,,,,,,
,,60a18093c5c040498d3addf8,2026-03-17_15h48.45.577,kallum_motion_pilot_GIST_update_2,2026.1.1,MacIntel,59.88023952,60a18093c5c040498d3addf8,69b95efdef24cd8a694e89ee,69b977b409d67fedf0302f38,0.0129,0.0129,0,63,63,61,1,threefour,,,,,,,,,,,,,,,,,,,,,,,,,,,,,,,,,,,,,,,,,,,,,,,,,,,,,,,,,,,,,,,,,,,,,,,,,,,,,,,,,,,,,,,,,,,,,,,,,,,,,,,,,,,,,,,,,,,,,,,,,,,,,,,,,,,,,,,,,
,,60a18093c5c040498d3addf8,2026-03-17_15h48.45.577,kallum_motion_pilot_GIST_update_2,2026.1.1,MacIntel,59.88023952,60a18093c5c040498d3addf8,69b95efdef24cd8a694e89ee,69b977b409d67fedf0302f38,0.0129,0.0129,0,64,64,150,1,eightsix,,,,,,,,,,,,,,,,,,,,,,,,,,,,,,,,,,,,,,,,,,,,,,,,,,,,,,,,,,,,,,,,,,,,,,,,,,,,,,,,,,,,,,,,,,,,,,,,,,,,,,,,,,,,,,,,,,,,,,,,,,,,,,,,,,,,,,,,,
,,60a18093c5c040498d3addf8,2026-03-17_15h48.45.577,kallum_motion_pilot_GIST_update_2,2026.1.1,MacIntel,59.88023952,60a18093c5c040498d3addf8,69b95efdef24cd8a694e89ee,69b977b409d67fedf0302f38,0.0129,0.0129,0,65,65,94,1,eightsix,,,,,,,,,,,,,,,,,,,,,,,,,,,,,,,,,,,,,,,,,,,,,,,,,,,,,,,,,,,,,,,,,,,,,,,,,,,,,,,,,,,,,,,,,,,,,,,,,,,,,,,,,,,,,,,,,,,,,,,,,,,,,,,,,,,,,,,,,
,,60a18093c5c040498d3addf8,2026-03-17_15h48.45.577,kallum_motion_pilot_GIST_update_2,2026.1.1,MacIntel,59.88023952,60a18093c5c040498d3addf8,69b95efdef24cd8a694e89ee,69b977b409d67fedf0302f38,0.013,0.013,0,66,66,161,1,fiveseven,,,,,,,,,,,,,,,,,,,,,,,,,,,,,,,,,,,,,,,,,,,,,,,,,,,,,,,,,,,,,,,,,,,,,,,,,,,,,,,,,,,,,,,,,,,,,,,,,,,,,,,,,,,,,,,,,,,,,,,,,,,,,,,,,,,,,,,,,
,,60a18093c5c040498d3addf8,2026-03-17_15h48.45.577,kallum_motion_pilot_GIST_update_2,2026.1.1,MacIntel,59.88023952,60a18093c5c040498d3addf8,69b95efdef24cd8a694e89ee,69b977b409d67fedf0302f38,0.013,0.013,0,67,67,86,1,eightsix,,,,,,,,,,,,,,,,,,,,,,,,,,,,,,,,,,,,,,,,,,,,,,,,,,,,,,,,,,,,,,,,,,,,,,,,,,,,,,,,,,,,,,,,,,,,,,,,,,,,,,,,,,,,,,,,,,,,,,,,,,,,,,,,,,,,,,,,,
,,60a18093c5c040498d3addf8,2026-03-17_15h48.45.577,kallum_motion_pilot_GIST_update_2,2026.1.1,MacIntel,59.88023952,60a18093c5c040498d3addf8,69b95efdef24cd8a694e89ee,69b977b409d67fedf0302f38,0.0131,0.0131,0,68,68,65,1,onethree,,,,,,,,,,,,,,,,,,,,,,,,,,,,,,,,,,,,,,,,,,,,,,,,,,,,,,,,,,,,,,,,,,,,,,,,,,,,,,,,,,,,,,,,,,,,,,,,,,,,,,,,,,,,,,,,,,,,,,,,,,,,,,,,,,,,,,,,,
,,60a18093c5c040498d3addf8,2026-03-17_15h48.45.577,kallum_motion_pilot_GIST_update_2,2026.1.1,MacIntel,59.88023952,60a18093c5c040498d3addf8,69b95efdef24cd8a694e89ee,69b977b409d67fedf0302f38,0.0131,0.0131,0,69,69,5,1,threefour,,,,,,,,,,,,,,,,,,,,,,,,,,,,,,,,,,,,,,,,,,,,,,,,,,,,,,,,,,,,,,,,,,,,,,,,,,,,,,,,,,,,,,,,,,,,,,,,,,,,,,,,,,,,,,,,,,,,,,,,,,,,,,,,,,,,,,,,,
,,60a18093c5c040498d3addf8,2026-03-17_15h48.45.577,kallum_motion_pilot_GIST_update_2,2026.1.1,MacIntel,59.88023952,60a18093c5c040498d3addf8,69b95efdef24cd8a694e89ee,69b977b409d67fedf0302f38,0.0131,0.0131,0,70,70,7,1,fourthree,,,,,,,,,,,,,,,,,,,,,,,,,,,,,,,,,,,,,,,,,,,,,,,,,,,,,,,,,,,,,,,,,,,,,,,,,,,,,,,,,,,,,,,,,,,,,,,,,,,,,,,,,,,,,,,,,,,,,,,,,,,,,,,,,,,,,,,,,
,,60a18093c5c040498d3addf8,2026-03-17_15h48.45.577,kallum_motion_pilot_GIST_update_2,2026.1.1,MacIntel,59.88023952,60a18093c5c040498d3addf8,69b95efdef24cd8a694e89ee,69b977b409d67fedf0302f38,0.0131,0.0131,0,71,71,90,1,sixfive,,,,,,,,,,,,,,,,,,,,,,,,,,,,,,,,,,,,,,,,,,,,,,,,,,,,,,,,,,,,,,,,,,,,,,,,,,,,,,,,,,,,,,,,,,,,,,,,,,,,,,,,,,,,,,,,,,,,,,,,,,,,,,,,,,,,,,,,,
,,60a18093c5c040498d3addf8,2026-03-17_15h48.45.577,kallum_motion_pilot_GIST_update_2,2026.1.1,MacIntel,59.88023952,60a18093c5c040498d3addf8,69b95efdef24cd8a694e89ee,69b977b409d67fedf0302f38,0.0132,0.0132,0,72,72,55,1,fourthree,,,,,,,,,,,,,,,,,,,,,,,,,,,,,,,,,,,,,,,,,,,,,,,,,,,,,,,,,,,,,,,,,,,,,,,,,,,,,,,,,,,,,,,,,,,,,,,,,,,,,,,,,,,,,,,,,,,,,,,,,,,,,,,,,,,,,,,,,
,,60a18093c5c040498d3addf8,2026-03-17_15h48.45.577,kallum_motion_pilot_GIST_update_2,2026.1.1,MacIntel,59.88023952,60a18093c5c040498d3addf8,69b95efdef24cd8a694e89ee,69b977b409d67fedf0302f38,0.0133,0.0133,0,73,73,47,1,fourthree,,,,,,,,,,,,,,,,,,,,,,,,,,,,,,,,,,,,,,,,,,,,,,,,,,,,,,,,,,,,,,,,,,,,,,,,,,,,,,,,,,,,,,,,,,,,,,,,,,,,,,,,,,,,,,,,,,,,,,,,,,,,,,,,,,,,,,,,,
,,60a18093c5c040498d3addf8,2026-03-17_15h48.45.577,kallum_motion_pilot_GIST_update_2,2026.1.1,MacIntel,59.88023952,60a18093c5c040498d3addf8,69b95efdef24cd8a694e89ee,69b977b409d67fedf0302f38,0.0133,0.0133,0,74,74,109,1,seveneight,,,,,,,,,,,,,,,,,,,,,,,,,,,,,,,,,,,,,,,,,,,,,,,,,,,,,,,,,,,,,,,,,,,,,,,,,,,,,,,,,,,,,,,,,,,,,,,,,,,,,,,,,,,,,,,,,,,,,,,,,,,,,,,,,,,,,,,,,
,,60a18093c5c040498d3addf8,2026-03-17_15h48.45.577,kallum_motion_pilot_GIST_update_2,2026.1.1,MacIntel,59.88023952,60a18093c5c040498d3addf8,69b95efdef24cd8a694e89ee,69b977b409d67fedf0302f38,0.0134,0.0134,0,75,75,159,1,eightseven,,,,,,,,,,,,,,,,,,,,,,,,,,,,,,,,,,,,,,,,,,,,,,,,,,,,,,,,,,,,,,,,,,,,,,,,,,,,,,,,,,,,,,,,,,,,,,,,,,,,,,,,,,,,,,,,,,,,,,,,,,,,,,,,,,,,,,,,,
,,60a18093c5c040498d3addf8,2026-03-17_15h48.45.577,kallum_motion_pilot_GIST_update_2,2026.1.1,MacIntel,59.88023952,60a18093c5c040498d3addf8,69b95efdef24cd8a694e89ee,69b977b409d67fedf0302f38,0.0134,0.0134,0,76,76,73,1,onethree,,,,,,,,,,,,,,,,,,,,,,,,,,,,,,,,,,,,,,,,,,,,,,,,,,,,,,,,,,,,,,,,,,,,,,,,,,,,,,,,,,,,,,,,,,,,,,,,,,,,,,,,,,,,,,,,,,,,,,,,,,,,,,,,,,,,,,,,,
,,60a18093c5c040498d3addf8,2026-03-17_15h48.45.577,kallum_motion_pilot_GIST_update_2,2026.1.1,MacIntel,59.88023952,60a18093c5c040498d3addf8,69b95efdef24cd8a694e89ee,69b977b409d67fedf0302f38,0.0134,0.0134,0,77,77,133,1,seveneight,,,,,,,,,,,,,,,,,,,,,,,,,,,,,,,,,,,,,,,,,,,,,,,,,,,,,,,,,,,,,,,,,,,,,,,,,,,,,,,,,,,,,,,,,,,,,,,,,,,,,,,,,,,,,,,,,,,,,,,,,,,,,,,,,,,,,,,,,
,,60a18093c5c040498d3addf8,2026-03-17_15h48.45.577,kallum_motion_pilot_GIST_update_2,2026.1.1,MacIntel,59.88023952,60a18093c5c040498d3addf8,69b95efdef24cd8a694e89ee,69b977b409d67fedf0302f38,0.0135,0.0135,0,78,78,22,1,fourtwo,,,,,,,,,,,,,,,,,,,,,,,,,,,,,,,,,,,,,,,,,,,,,,,,,,,,,,,,,,,,,,,,,,,,,,,,,,,,,,,,,,,,,,,,,,,,,,,,,,,,,,,,,,,,,,,,,,,,,,,,,,,,,,,,,,,,,,,,,
,,60a18093c5c040498d3addf8,2026-03-17_15h48.45.577,kallum_motion_pilot_GIST_update_2,2026.1.1,MacIntel,59.88023952,60a18093c5c040498d3addf8,69b95efdef24cd8a694e89ee,69b977b409d67fedf0302f38,0.0135,0.0136,0,79,79,64,1,onetwo,,,,,,,,,,,,,,,,,,,,,,,,,,,,,,,,,,,,,,,,,,,,,,,,,,,,,,,,,,,,,,,,,,,,,,,,,,,,,,,,,,,,,,,,,,,,,,,,,,,,,,,,,,,,,,,,,,,,,,,,,,,,,,,,,,,,,,,,,
,,60a18093c5c040498d3addf8,2026-03-17_15h48.45.577,kallum_motion_pilot_GIST_update_2,2026.1.1,MacIntel,59.88023952,60a18093c5c040498d3addf8,69b95efdef24cd8a694e89ee,69b977b409d67fedf0302f38,0.0136,0.0136,0,80,80,100,1,sevenfive,,,,,,,,,,,,,,,,,,,,,,,,,,,,,,,,,,,,,,,,,,,,,,,,,,,,,,,,,,,,,,,,,,,,,,,,,,,,,,,,,,,,,,,,,,,,,,,,,,,,,,,,,,,,,,,,,,,,,,,,,,,,,,,,,,,,,,,,,
,,60a18093c5c040498d3addf8,2026-03-17_15h48.45.577,kallum_motion_pilot_GIST_update_2,2026.1.1,MacIntel,59.88023952,60a18093c5c040498d3addf8,69b95efdef24cd8a694e89ee,69b977b409d67fedf0302f38,0.0136,0.0136,0,81,81,2,1,twoone,,,,,,,,,,,,,,,,,,,,,,,,,,,,,,,,,,,,,,,,,,,,,,,,,,,,,,,,,,,,,,,,,,,,,,,,,,,,,,,,,,,,,,,,,,,,,,,,,,,,,,,,,,,,,,,,,,,,,,,,,,,,,,,,,,,,,,,,,
,,60a18093c5c040498d3addf8,2026-03-17_15h48.45.577,kallum_motion_pilot_GIST_update_2,2026.1.1,MacIntel,59.88023952,60a18093c5c040498d3addf8,69b95efdef24cd8a694e89ee,69b977b409d67fedf0302f38,0.0136,0.0136,0,82,82,151,1,eightseven,,,,,,,,,,,,,,,,,,,,,,,,,,,,,,,,,,,,,,,,,,,,,,,,,,,,,,,,,,,,,,,,,,,,,,,,,,,,,,,,,,,,,,,,,,,,,,,,,,,,,,,,,,,,,,,,,,,,,,,,,,,,,,,,,,,,,,,,,
,,60a18093c5c040498d3addf8,2026-03-17_15h48.45.577,kallum_motion_pilot_GIST_update_2,2026.1.1,MacIntel,59.88023952,60a18093c5c040498d3addf8,69b95efdef24cd8a694e89ee,69b977b409d67fedf0302f38,0.0137,0.0137,0,83,83,98,1,sixfive,,,,,,,,,,,,,,,,,,,,,,,,,,,,,,,,,,,,,,,,,,,,,,,,,,,,,,,,,,,,,,,,,,,,,,,,,,,,,,,,,,,,,,,,,,,,,,,,,,,,,,,,,,,,,,,,,,,,,,,,,,,,,,,,,,,,,,,,,
,,60a18093c5c040498d3addf8,2026-03-17_15h48.45.577,kallum_motion_pilot_GIST_update_2,2026.1.1,MacIntel,59.88023952,60a18093c5c040498d3addf8,69b95efdef24cd8a694e89ee,69b977b409d67fedf0302f38,0.0138,0.0138,0,84,84,27,1,twofour,,,,,,,,,,,,,,,,,,,,,,,,,,,,,,,,,,,,,,,,,,,,,,,,,,,,,,,,,,,,,,,,,,,,,,,,,,,,,,,,,,,,,,,,,,,,,,,,,,,,,,,,,,,,,,,,,,,,,,,,,,,,,,,,,,,,,,,,,
,,60a18093c5c040498d3addf8,2026-03-17_15h48.45.577,kallum_motion_pilot_GIST_update_2,2026.1.1,MacIntel,59.88023952,60a18093c5c040498d3addf8,69b95efdef24cd8a694e89ee,69b977b409d67fedf0302f38,0.0138,0.0138,0,85,85,54,1,fourtwo,,,,,,,,,,,,,,,,,,,,,,,,,,,,,,,,,,,,,,,,,,,,,,,,,,,,,,,,,,,,,,,,,,,,,,,,,,,,,,,,,,,,,,,,,,,,,,,,,,,,,,,,,,,,,,,,,,,,,,,,,,,,,,,,,,,,,,,,,
,,60a18093c5c040498d3addf8,2026-03-17_15h48.45.577,kallum_motion_pilot_GIST_update_2,2026.1.1,MacIntel,59.88023952,60a18093c5c040498d3addf8,69b95efdef24cd8a694e89ee,69b977b409d67fedf0302f38,0.0138,0.0138,0,86,86,19,1,twofour,,,,,,,,,,,,,,,,,,,,,,,,,,,,,,,,,,,,,,,,,,,,,,,,,,,,,,,,,,,,,,,,,,,,,,,,,,,,,,,,,,,,,,,,,,,,,,,,,,,,,,,,,,,,,,,,,,,,,,,,,,,,,,,,,,,,,,,,,
,,60a18093c5c040498d3addf8,2026-03-17_15h48.45.577,kallum_motion_pilot_GIST_update_2,2026.1.1,MacIntel,59.88023952,60a18093c5c040498d3addf8,69b95efdef24cd8a694e89ee,69b977b409d67fedf0302f38,0.0139,0.0139,0,87,87,24,1,onetwo,,,,,,,,,,,,,,,,,,,,,,,,,,,,,,,,,,,,,,,,,,,,,,,,,,,,,,,,,,,,,,,,,,,,,,,,,,,,,,,,,,,,,,,,,,,,,,,,,,,,,,,,,,,,,,,,,,,,,,,,,,,,,,,,,,,,,,,,,
,,60a18093c5c040498d3addf8,2026-03-17_15h48.45.577,kallum_motion_pilot_GIST_update_2,2026.1.1,MacIntel,59.88023952,60a18093c5c040498d3addf8,69b95efdef24cd8a694e89ee,69b977b409d67fedf0302f38,0.0139,0.0139,0,88,88,67,1,twofour,,,,,,,,,,,,,,,,,,,,,,,,,,,,,,,,,,,,,,,,,,,,,,,,,,,,,,,,,,,,,,,,,,,,,,,,,,,,,,,,,,,,,,,,,,,,,,,,,,,,,,,,,,,,,,,,,,,,,,,,,,,,,,,,,,,,,,,,,
,,60a18093c5c040498d3addf8,2026-03-17_15h48.45.577,kallum_motion_pilot_GIST_update_2,2026.1.1,MacIntel,59.88023952,60a18093c5c040498d3addf8,69b95efdef24cd8a694e89ee,69b977b409d67fedf0302f38,0.0139,0.0139,0,89,89,157,1,seveneight,,,,,,,,,,,,,,,,,,,,,,,,,,,,,,,,,,,,,,,,,,,,,,,,,,,,,,,,,,,,,,,,,,,,,,,,,,,,,,,,,,,,,,,,,,,,,,,,,,,,,,,,,,,,,,,,,,,,,,,,,,,,,,,,,,,,,,,,,
,,60a18093c5c040498d3addf8,2026-03-17_15h48.45.577,kallum_motion_pilot_GIST_update_2,2026.1.1,MacIntel,59.88023952,60a18093c5c040498d3addf8,69b95efdef24cd8a694e89ee,69b977b409d67fedf0302f38,0.014,0.014,0,90,90,110,1,eightsix,,,,,,,,,,,,,,,,,,,,,,,,,,,,,,,,,,,,,,,,,,,,,,,,,,,,,,,,,,,,,,,,,,,,,,,,,,,,,,,,,,,,,,,,,,,,,,,,,,,,,,,,,,,,,,,,,,,,,,,,,,,,,,,,,,,,,,,,,
,,60a18093c5c040498d3addf8,2026-03-17_15h48.45.577,kallum_motion_pilot_GIST_update_2,2026.1.1,MacIntel,59.88023952,60a18093c5c040498d3addf8,69b95efdef24cd8a694e89ee,69b977b409d67fedf0302f38,0.0141,0.0141,0,91,91,113,1,fiveseven,,,,,,,,,,,,,,,,,,,,,,,,,,,,,,,,,,,,,,,,,,,,,,,,,,,,,,,,,,,,,,,,,,,,,,,,,,,,,,,,,,,,,,,,,,,,,,,,,,,,,,,,,,,,,,,,,,,,,,,,,,,,,,,,,,,,,,,,,
,,60a18093c5c040498d3addf8,2026-03-17_15h48.45.577,kallum_motion_pilot_GIST_update_2,2026.1.1,MacIntel,59.88023952,60a18093c5c040498d3addf8,69b95efdef24cd8a694e89ee,69b977b409d67fedf0302f38,0.0141,0.0141,0,92,92,121,1,fiveseven,,,,,,,,,,,,,,,,,,,,,,,,,,,,,,,,,,,,,,,,,,,,,,,,,,,,,,,,,,,,,,,,,,,,,,,,,,,,,,,,,,,,,,,,,,,,,,,,,,,,,,,,,,,,,,,,,,,,,,,,,,,,,,,,,,,,,,,,,
,,60a18093c5c040498d3addf8,2026-03-17_15h48.45.577,kallum_motion_pilot_GIST_update_2,2026.1.1,MacIntel,59.88023952,60a18093c5c040498d3addf8,69b95efdef24cd8a694e89ee,69b977b409d67fedf0302f38,0.0141,0.0141,0,93,93,26,1,twoone,,,,,,,,,,,,,,,,,,,,,,,,,,,,,,,,,,,,,,,,,,,,,,,,,,,,,,,,,,,,,,,,,,,,,,,,,,,,,,,,,,,,,,,,,,,,,,,,,,,,,,,,,,,,,,,,,,,,,,,,,,,,,,,,,,,,,,,,,
,,60a18093c5c040498d3addf8,2026-03-17_15h48.45.577,kallum_motion_pilot_GIST_update_2,2026.1.1,MacIntel,59.88023952,60a18093c5c040498d3addf8,69b95efdef24cd8a694e89ee,69b977b409d67fedf0302f38,0.0142,0.0142,0,94,94,12,1,threeone,,,,,,,,,,,,,,,,,,,,,,,,,,,,,,,,,,,,,,,,,,,,,,,,,,,,,,,,,,,,,,,,,,,,,,,,,,,,,,,,,,,,,,,,,,,,,,,,,,,,,,,,,,,,,,,,,,,,,,,,,,,,,,,,,,,,,,,,,
,,60a18093c5c040498d3addf8,2026-03-17_15h48.45.577,kallum_motion_pilot_GIST_update_2,2026.1.1,MacIntel,59.88023952,60a18093c5c040498d3addf8,69b95efdef24cd8a694e89ee,69b977b409d67fedf0302f38,0.0142,0.0142,0,95,95,152,1,fivesix,,,,,,,,,,,,,,,,,,,,,,,,,,,,,,,,,,,,,,,,,,,,,,,,,,,,,,,,,,,,,,,,,,,,,,,,,,,,,,,,,,,,,,,,,,,,,,,,,,,,,,,,,,,,,,,,,,,,,,,,,,,,,,,,,,,,,,,,,
,,60a18093c5c040498d3addf8,2026-03-17_15h48.45.577,kallum_motion_pilot_GIST_update_2,2026.1.1,MacIntel,59.88023952,60a18093c5c040498d3addf8,69b95efdef24cd8a694e89ee,69b977b409d67fedf0302f38,0.0142,0.0142,0,96,96,59,1,twofour,,,,,,,,,,,,,,,,,,,,,,,,,,,,,,,,,,,,,,,,,,,,,,,,,,,,,,,,,,,,,,,,,,,,,,,,,,,,,,,,,,,,,,,,,,,,,,,,,,,,,,,,,,,,,,,,,,,,,,,,,,,,,,,,,,,,,,,,,
,,60a18093c5c040498d3addf8,2026-03-17_15h48.45.577,kallum_motion_pilot_GIST_update_2,2026.1.1,MacIntel,59.88023952,60a18093c5c040498d3addf8,69b95efdef24cd8a694e89ee,69b977b409d67fedf0302f38,0.0143,0.0143,0,97,97,156,1,sevenfive,,,,,,,,,,,,,,,,,,,,,,,,,,,,,,,,,,,,,,,,,,,,,,,,,,,,,,,,,,,,,,,,,,,,,,,,,,,,,,,,,,,,,,,,,,,,,,,,,,,,,,,,,,,,,,,,,,,,,,,,,,,,,,,,,,,,,,,,,
,,60a18093c5c040498d3addf8,2026-03-17_15h48.45.577,kallum_motion_pilot_GIST_update_2,2026.1.1,MacIntel,59.88023952,60a18093c5c040498d3addf8,69b95efdef24cd8a694e89ee,69b977b409d67fedf0302f38,0.0143,0.0143,0,98,98,45,1,threefour,,,,,,,,,,,,,,,,,,,,,,,,,,,,,,,,,,,,,,,,,,,,,,,,,,,,,,,,,,,,,,,,,,,,,,,,,,,,,,,,,,,,,,,,,,,,,,,,,,,,,,,,,,,,,,,,,,,,,,,,,,,,,,,,,,,,,,,,,
,,60a18093c5c040498d3addf8,2026-03-17_15h48.45.577,kallum_motion_pilot_GIST_update_2,2026.1.1,MacIntel,59.88023952,60a18093c5c040498d3addf8,69b95efdef24cd8a694e89ee,69b977b409d67fedf0302f38,0.0144,0.0144,0,99,99,11,1,twofour,,,,,,,,,,,,,,,,,,,,,,,,,,,,,,,,,,,,,,,,,,,,,,,,,,,,,,,,,,,,,,,,,,,,,,,,,,,,,,,,,,,,,,,,,,,,,,,,,,,,,,,,,,,,,,,,,,,,,,,,,,,,,,,,,,,,,,,,,
,,60a18093c5c040498d3addf8,2026-03-17_15h48.45.577,kallum_motion_pilot_GIST_update_2,2026.1.1,MacIntel,59.88023952,60a18093c5c040498d3addf8,69b95efdef24cd8a694e89ee,69b977b409d67fedf0302f38,0.0144,0.0144,0,100,100,141,1,seveneight,,,,,,,,,,,,,,,,,,,,,,,,,,,,,,,,,,,,,,,,,,,,,,,,,,,,,,,,,,,,,,,,,,,,,,,,,,,,,,,,,,,,,,,,,,,,,,,,,,,,,,,,,,,,,,,,,,,,,,,,,,,,,,,,,,,,,,,,,
,,60a18093c5c040498d3addf8,2026-03-17_15h48.45.577,kallum_motion_pilot_GIST_update_2,2026.1.1,MacIntel,59.88023952,60a18093c5c040498d3addf8,69b95efdef24cd8a694e89ee,69b977b409d67fedf0302f38,0.0145,0.0145,0,101,101,53,1,threefour,,,,,,,,,,,,,,,,,,,,,,,,,,,,,,,,,,,,,,,,,,,,,,,,,,,,,,,,,,,,,,,,,,,,,,,,,,,,,,,,,,,,,,,,,,,,,,,,,,,,,,,,,,,,,,,,,,,,,,,,,,,,,,,,,,,,,,,,,
,,60a18093c5c040498d3addf8,2026-03-17_15h48.45.577,kallum_motion_pilot_GIST_update_2,2026.1.1,MacIntel,59.88023952,60a18093c5c040498d3addf8,69b95efdef24cd8a694e89ee,69b977b409d67fedf0302f38,0.0145,0.0145,0,102,102,14,1,fourtwo,,,,,,,,,,,,,,,,,,,,,,,,,,,,,,,,,,,,,,,,,,,,,,,,,,,,,,,,,,,,,,,,,,,,,,,,,,,,,,,,,,,,,,,,,,,,,,,,,,,,,,,,,,,,,,,,,,,,,,,,,,,,,,,,,,,,,,,,,
,,60a18093c5c040498d3addf8,2026-03-17_15h48.45.577,kallum_motion_pilot_GIST_update_2,2026.1.1,MacIntel,59.88023952,60a18093c5c040498d3addf8,69b95efdef24cd8a694e89ee,69b977b409d67fedf0302f38,0.0146,0.0146,0,103,103,125,1,seveneight,,,,,,,,,,,,,,,,,,,,,,,,,,,,,,,,,,,,,,,,,,,,,,,,,,,,,,,,,,,,,,,,,,,,,,,,,,,,,,,,,,,,,,,,,,,,,,,,,,,,,,,,,,,,,,,,,,,,,,,,,,,,,,,,,,,,,,,,,
,,60a18093c5c040498d3addf8,2026-03-17_15h48.45.577,kallum_motion_pilot_GIST_update_2,2026.1.1,MacIntel,59.88023952,60a18093c5c040498d3addf8,69b95efdef24cd8a694e89ee,69b977b409d67fedf0302f38,0.0146,0.0146,0,104,104,134,1,eightsix,,,,,,,,,,,,,,,,,,,,,,,,,,,,,,,,,,,,,,,,,,,,,,,,,,,,,,,,,,,,,,,,,,,,,,,,,,,,,,,,,,,,,,,,,,,,,,,,,,,,,,,,,,,,,,,,,,,,,,,,,,,,,,,,,,,,,,,,,
,,60a18093c5c040498d3addf8,2026-03-17_15h48.45.577,kallum_motion_pilot_GIST_update_2,2026.1.1,MacIntel,59.88023952,60a18093c5c040498d3addf8,69b95efdef24cd8a694e89ee,69b977b409d67fedf0302f38,0.0146,0.0146,0,105,105,6,1,fourtwo,,,,,,,,,,,,,,,,,,,,,,,,,,,,,,,,,,,,,,,,,,,,,,,,,,,,,,,,,,,,,,,,,,,,,,,,,,,,,,,,,,,,,,,,,,,,,,,,,,,,,,,,,,,,,,,,,,,,,,,,,,,,,,,,,,,,,,,,,
,,60a18093c5c040498d3addf8,2026-03-17_15h48.45.577,kallum_motion_pilot_GIST_update_2,2026.1.1,MacIntel,59.88023952,60a18093c5c040498d3addf8,69b95efdef24cd8a694e89ee,69b977b409d67fedf0302f38,0.0147,0.0147,0,106,106,29,1,threefour,,,,,,,,,,,,,,,,,,,,,,,,,,,,,,,,,,,,,,,,,,,,,,,,,,,,,,,,,,,,,,,,,,,,,,,,,,,,,,,,,,,,,,,,,,,,,,,,,,,,,,,,,,,,,,,,,,,,,,,,,,,,,,,,,,,,,,,,,
,,60a18093c5c040498d3addf8,2026-03-17_15h48.45.577,kallum_motion_pilot_GIST_update_2,2026.1.1,MacIntel,59.88023952,60a18093c5c040498d3addf8,69b95efdef24cd8a694e89ee,69b977b409d67fedf0302f38,0.0147,0.0147,0,107,107,85,1,seveneight,,,,,,,,,,,,,,,,,,,,,,,,,,,,,,,,,,,,,,,,,,,,,,,,,,,,,,,,,,,,,,,,,,,,,,,,,,,,,,,,,,,,,,,,,,,,,,,,,,,,,,,,,,,,,,,,,,,,,,,,,,,,,,,,,,,,,,,,,
,,60a18093c5c040498d3addf8,2026-03-17_15h48.45.577,kallum_motion_pilot_GIST_update_2,2026.1.1,MacIntel,59.88023952,60a18093c5c040498d3addf8,69b95efdef24cd8a694e89ee,69b977b409d67fedf0302f38,0.0147,0.0147,0,108,108,20,1,threeone,,,,,,,,,,,,,,,,,,,,,,,,,,,,,,,,,,,,,,,,,,,,,,,,,,,,,,,,,,,,,,,,,,,,,,,,,,,,,,,,,,,,,,,,,,,,,,,,,,,,,,,,,,,,,,,,,,,,,,,,,,,,,,,,,,,,,,,,,
,,60a18093c5c040498d3addf8,2026-03-17_15h48.45.577,kallum_motion_pilot_GIST_update_2,2026.1.1,MacIntel,59.88023952,60a18093c5c040498d3addf8,69b95efdef24cd8a694e89ee,69b977b409d67fedf0302f38,0.0148,0.0148,0,109,109,153,1,fiveseven,,,,,,,,,,,,,,,,,,,,,,,,,,,,,,,,,,,,,,,,,,,,,,,,,,,,,,,,,,,,,,,,,,,,,,,,,,,,,,,,,,,,,,,,,,,,,,,,,,,,,,,,,,,,,,,,,,,,,,,,,,,,,,,,,,,,,,,,,
,,60a18093c5c040498d3addf8,2026-03-17_15h48.45.577,kallum_motion_pilot_GIST_update_2,2026.1.1,MacIntel,59.88023952,60a18093c5c040498d3addf8,69b95efdef24cd8a694e89ee,69b977b409d67fedf0302f38,0.0149,0.0149,0,110,110,127,1,eightseven,,,,,,,,,,,,,,,,,,,,,,,,,,,,,,,,,,,,,,,,,,,,,,,,,,,,,,,,,,,,,,,,,,,,,,,,,,,,,,,,,,,,,,,,,,,,,,,,,,,,,,,,,,,,,,,,,,,,,,,,,,,,,,,,,,,,,,,,,
,,60a18093c5c040498d3addf8,2026-03-17_15h48.45.577,kallum_motion_pilot_GIST_update_2,2026.1.1,MacIntel,59.88023952,60a18093c5c040498d3addf8,69b95efdef24cd8a694e89ee,69b977b409d67fedf0302f38,0.0149,0.0149,0,111,111,143,1,eightseven,,,,,,,,,,,,,,,,,,,,,,,,,,,,,,,,,,,,,,,,,,,,,,,,,,,,,,,,,,,,,,,,,,,,,,,,,,,,,,,,,,,,,,,,,,,,,,,,,,,,,,,,,,,,,,,,,,,,,,,,,,,,,,,,,,,,,,,,,
,,60a18093c5c040498d3addf8,2026-03-17_15h48.45.577,kallum_motion_pilot_GIST_update_2,2026.1.1,MacIntel,59.88023952,60a18093c5c040498d3addf8,69b95efdef24cd8a694e89ee,69b977b409d67fedf0302f38,0.0149,0.0149,0,112,112,8,1,onetwo,,,,,,,,,,,,,,,,,,,,,,,,,,,,,,,,,,,,,,,,,,,,,,,,,,,,,,,,,,,,,,,,,,,,,,,,,,,,,,,,,,,,,,,,,,,,,,,,,,,,,,,,,,,,,,,,,,,,,,,,,,,,,,,,,,,,,,,,,
,,60a18093c5c040498d3addf8,2026-03-17_15h48.45.577,kallum_motion_pilot_GIST_update_2,2026.1.1,MacIntel,59.88023952,60a18093c5c040498d3addf8,69b95efdef24cd8a694e89ee,69b977b409d67fedf0302f38,0.015,0.015,0,113,113,129,1,fiveseven,,,,,,,,,,,,,,,,,,,,,,,,,,,,,,,,,,,,,,,,,,,,,,,,,,,,,,,,,,,,,,,,,,,,,,,,,,,,,,,,,,,,,,,,,,,,,,,,,,,,,,,,,,,,,,,,,,,,,,,,,,,,,,,,,,,,,,,,,
,,60a18093c5c040498d3addf8,2026-03-17_15h48.45.577,kallum_motion_pilot_GIST_update_2,2026.1.1,MacIntel,59.88023952,60a18093c5c040498d3addf8,69b95efdef24cd8a694e89ee,69b977b409d67fedf0302f38,0.015,0.015,0,114,114,48,1,onetwo,,,,,,,,,,,,,,,,,,,,,,,,,,,,,,,,,,,,,,,,,,,,,,,,,,,,,,,,,,,,,,,,,,,,,,,,,,,,,,,,,,,,,,,,,,,,,,,,,,,,,,,,,,,,,,,,,,,,,,,,,,,,,,,,,,,,,,,,,
,,60a18093c5c040498d3addf8,2026-03-17_15h48.45.577,kallum_motion_pilot_GIST_update_2,2026.1.1,MacIntel,59.88023952,60a18093c5c040498d3addf8,69b95efdef24cd8a694e89ee,69b977b409d67fedf0302f38,0.015,0.015,0,115,115,13,1,threefour,,,,,,,,,,,,,,,,,,,,,,,,,,,,,,,,,,,,,,,,,,,,,,,,,,,,,,,,,,,,,,,,,,,,,,,,,,,,,,,,,,,,,,,,,,,,,,,,,,,,,,,,,,,,,,,,,,,,,,,,,,,,,,,,,,,,,,,,,
,,60a18093c5c040498d3addf8,2026-03-17_15h48.45.577,kallum_motion_pilot_GIST_update_2,2026.1.1,MacIntel,59.88023952,60a18093c5c040498d3addf8,69b95efdef24cd8a694e89ee,69b977b409d67fedf0302f38,0.0151,0.0151,0,116,116,124,1,sevenfive,,,,,,,,,,,,,,,,,,,,,,,,,,,,,,,,,,,,,,,,,,,,,,,,,,,,,,,,,,,,,,,,,,,,,,,,,,,,,,,,,,,,,,,,,,,,,,,,,,,,,,,,,,,,,,,,,,,,,,,,,,,,,,,,,,,,,,,,,
,,60a18093c5c040498d3addf8,2026-03-17_15h48.45.577,kallum_motion_pilot_GIST_update_2,2026.1.1,MacIntel,59.88023952,60a18093c5c040498d3addf8,69b95efdef24cd8a694e89ee,69b977b409d67fedf0302f38,0.0151,0.0151,0,117,117,95,1,eightseven,,,,,,,,,,,,,,,,,,,,,,,,,,,,,,,,,,,,,,,,,,,,,,,,,,,,,,,,,,,,,,,,,,,,,,,,,,,,,,,,,,,,,,,,,,,,,,,,,,,,,,,,,,,,,,,,,,,,,,,,,,,,,,,,,,,,,,,,,
,,60a18093c5c040498d3addf8,2026-03-17_15h48.45.577,kallum_motion_pilot_GIST_update_2,2026.1.1,MacIntel,59.88023952,60a18093c5c040498d3addf8,69b95efdef24cd8a694e89ee,69b977b409d67fedf0302f38,0.0152,0.0152,0,118,118,81,1,fiveseven,,,,,,,,,,,,,,,,,,,,,,,,,,,,,,,,,,,,,,,,,,,,,,,,,,,,,,,,,,,,,,,,,,,,,,,,,,,,,,,,,,,,,,,,,,,,,,,,,,,,,,,,,,,,,,,,,,,,,,,,,,,,,,,,,,,,,,,,,
,,60a18093c5c040498d3addf8,2026-03-17_15h48.45.577,kallum_motion_pilot_GIST_update_2,2026.1.1,MacIntel,59.88023952,60a18093c5c040498d3addf8,69b95efdef24cd8a694e89ee,69b977b409d67fedf0302f38,0.0153,0.0153,0,119,119,84,1,sevenfive,,,,,,,,,,,,,,,,,,,,,,,,,,,,,,,,,,,,,,,,,,,,,,,,,,,,,,,,,,,,,,,,,,,,,,,,,,,,,,,,,,,,,,,,,,,,,,,,,,,,,,,,,,,,,,,,,,,,,,,,,,,,,,,,,,,,,,,,,
,,60a18093c5c040498d3addf8,2026-03-17_15h48.45.577,kallum_motion_pilot_GIST_update_2,2026.1.1,MacIntel,59.88023952,60a18093c5c040498d3addf8,69b95efdef24cd8a694e89ee,69b977b409d67fedf0302f38,0.0153,0.0153,0,120,120,50,1,twoone,,,,,,,,,,,,,,,,,,,,,,,,,,,,,,,,,,,,,,,,,,,,,,,,,,,,,,,,,,,,,,,,,,,,,,,,,,,,,,,,,,,,,,,,,,,,,,,,,,,,,,,,,,,,,,,,,,,,,,,,,,,,,,,,,,,,,,,,,
,,60a18093c5c040498d3addf8,2026-03-17_15h48.45.577,kallum_motion_pilot_GIST_update_2,2026.1.1,MacIntel,59.88023952,60a18093c5c040498d3addf8,69b95efdef24cd8a694e89ee,69b977b409d67fedf0302f38,0.0154,0.0154,0,121,121,138,1,sixfive,,,,,,,,,,,,,,,,,,,,,,,,,,,,,,,,,,,,,,,,,,,,,,,,,,,,,,,,,,,,,,,,,,,,,,,,,,,,,,,,,,,,,,,,,,,,,,,,,,,,,,,,,,,,,,,,,,,,,,,,,,,,,,,,,,,,,,,,,
,,60a18093c5c040498d3addf8,2026-03-17_15h48.45.577,kallum_motion_pilot_GIST_update_2,2026.1.1,MacIntel,59.88023952,60a18093c5c040498d3addf8,69b95efdef24cd8a694e89ee,69b977b409d67fedf0302f38,0.0154,0.0154,0,122,122,89,1,fiveseven,,,,,,,,,,,,,,,,,,,,,,,,,,,,,,,,,,,,,,,,,,,,,,,,,,,,,,,,,,,,,,,,,,,,,,,,,,,,,,,,,,,,,,,,,,,,,,,,,,,,,,,,,,,,,,,,,,,,,,,,,,,,,,,,,,,,,,,,,
,,60a18093c5c040498d3addf8,2026-03-17_15h48.45.577,kallum_motion_pilot_GIST_update_2,2026.1.1,MacIntel,59.88023952,60a18093c5c040498d3addf8,69b95efdef24cd8a694e89ee,69b977b409d67fedf0302f38,0.0154,0.0154,0,123,123,130,1,sixfive,,,,,,,,,,,,,,,,,,,,,,,,,,,,,,,,,,,,,,,,,,,,,,,,,,,,,,,,,,,,,,,,,,,,,,,,,,,,,,,,,,,,,,,,,,,,,,,,,,,,,,,,,,,,,,,,,,,,,,,,,,,,,,,,,,,,,,,,,
,,60a18093c5c040498d3addf8,2026-03-17_15h48.45.577,kallum_motion_pilot_GIST_update_2,2026.1.1,MacIntel,59.88023952,60a18093c5c040498d3addf8,69b95efdef24cd8a694e89ee,69b977b409d67fedf0302f38,0.0155,0.0155,0,124,124,147,1,sixeight,,,,,,,,,,,,,,,,,,,,,,,,,,,,,,,,,,,,,,,,,,,,,,,,,,,,,,,,,,,,,,,,,,,,,,,,,,,,,,,,,,,,,,,,,,,,,,,,,,,,,,,,,,,,,,,,,,,,,,,,,,,,,,,,,,,,,,,,,
,,60a18093c5c040498d3addf8,2026-03-17_15h48.45.577,kallum_motion_pilot_GIST_update_2,2026.1.1,MacIntel,59.88023952,60a18093c5c040498d3addf8,69b95efdef24cd8a694e89ee,69b977b409d67fedf0302f38,0.0156,0.0156,0,125,125,148,1,sevenfive,,,,,,,,,,,,,,,,,,,,,,,,,,,,,,,,,,,,,,,,,,,,,,,,,,,,,,,,,,,,,,,,,,,,,,,,,,,,,,,,,,,,,,,,,,,,,,,,,,,,,,,,,,,,,,,,,,,,,,,,,,,,,,,,,,,,,,,,,
,,60a18093c5c040498d3addf8,2026-03-17_15h48.45.577,kallum_motion_pilot_GIST_update_2,2026.1.1,MacIntel,59.88023952,60a18093c5c040498d3addf8,69b95efdef24cd8a694e89ee,69b977b409d67fedf0302f38,0.0156,0.0156,0,126,126,139,1,sixeight,,,,,,,,,,,,,,,,,,,,,,,,,,,,,,,,,,,,,,,,,,,,,,,,,,,,,,,,,,,,,,,,,,,,,,,,,,,,,,,,,,,,,,,,,,,,,,,,,,,,,,,,,,,,,,,,,,,,,,,,,,,,,,,,,,,,,,,,,
,,60a18093c5c040498d3addf8,2026-03-17_15h48.45.577,kallum_motion_pilot_GIST_update_2,2026.1.1,MacIntel,59.88023952,60a18093c5c040498d3addf8,69b95efdef24cd8a694e89ee,69b977b409d67fedf0302f38,0.0157,0.0157,0,127,127,80,1,fivesix,,,,,,,,,,,,,,,,,,,,,,,,,,,,,,,,,,,,,,,,,,,,,,,,,,,,,,,,,,,,,,,,,,,,,,,,,,,,,,,,,,,,,,,,,,,,,,,,,,,,,,,,,,,,,,,,,,,,,,,,,,,,,,,,,,,,,,,,,
,,60a18093c5c040498d3addf8,2026-03-17_15h48.45.577,kallum_motion_pilot_GIST_update_2,2026.1.1,MacIntel,59.88023952,60a18093c5c040498d3addf8,69b95efdef24cd8a694e89ee,69b977b409d67fedf0302f38,0.0157,0.0157,0,128,128,23,1,fourthree,,,,,,,,,,,,,,,,,,,,,,,,,,,,,,,,,,,,,,,,,,,,,,,,,,,,,,,,,,,,,,,,,,,,,,,,,,,,,,,,,,,,,,,,,,,,,,,,,,,,,,,,,,,,,,,,,,,,,,,,,,,,,,,,,,,,,,,,,
,,60a18093c5c040498d3addf8,2026-03-17_15h48.45.577,kallum_motion_pilot_GIST_update_2,2026.1.1,MacIntel,59.88023952,60a18093c5c040498d3addf8,69b95efdef24cd8a694e89ee,69b977b409d67fedf0302f38,0.0158,0.0158,0,129,129,38,1,fourtwo,,,,,,,,,,,,,,,,,,,,,,,,,,,,,,,,,,,,,,,,,,,,,,,,,,,,,,,,,,,,,,,,,,,,,,,,,,,,,,,,,,,,,,,,,,,,,,,,,,,,,,,,,,,,,,,,,,,,,,,,,,,,,,,,,,,,,,,,,
,,60a18093c5c040498d3addf8,2026-03-17_15h48.45.577,kallum_motion_pilot_GIST_update_2,2026.1.1,MacIntel,59.88023952,60a18093c5c040498d3addf8,69b95efdef24cd8a694e89ee,69b977b409d67fedf0302f38,0.0158,0.0158,0,130,130,63,1,fourthree,,,,,,,,,,,,,,,,,,,,,,,,,,,,,,,,,,,,,,,,,,,,,,,,,,,,,,,,,,,,,,,,,,,,,,,,,,,,,,,,,,,,,,,,,,,,,,,,,,,,,,,,,,,,,,,,,,,,,,,,,,,,,,,,,,,,,,,,,
,,60a18093c5c040498d3addf8,2026-03-17_15h48.45.577,kallum_motion_pilot_GIST_update_2,2026.1.1,MacIntel,59.88023952,60a18093c5c040498d3addf8,69b95efdef24cd8a694e89ee,69b977b409d67fedf0302f38,0.0159,0.0159,0,131,131,105,1,fiveseven,,,,,,,,,,,,,,,,,,,,,,,,,,,,,,,,,,,,,,,,,,,,,,,,,,,,,,,,,,,,,,,,,,,,,,,,,,,,,,,,,,,,,,,,,,,,,,,,,,,,,,,,,,,,,,,,,,,,,,,,,,,,,,,,,,,,,,,,,
,,60a18093c5c040498d3addf8,2026-03-17_15h48.45.577,kallum_motion_pilot_GIST_update_2,2026.1.1,MacIntel,59.88023952,60a18093c5c040498d3addf8,69b95efdef24cd8a694e89ee,69b977b409d67fedf0302f38,0.0159,0.0159,0,132,132,31,1,fourthree,,,,,,,,,,,,,,,,,,,,,,,,,,,,,,,,,,,,,,,,,,,,,,,,,,,,,,,,,,,,,,,,,,,,,,,,,,,,,,,,,,,,,,,,,,,,,,,,,,,,,,,,,,,,,,,,,,,,,,,,,,,,,,,,,,,,,,,,,
,,60a18093c5c040498d3addf8,2026-03-17_15h48.45.577,kallum_motion_pilot_GIST_update_2,2026.1.1,MacIntel,59.88023952,60a18093c5c040498d3addf8,69b95efdef24cd8a694e89ee,69b977b409d67fedf0302f38,0.016,0.016,0,133,133,17,1,onethree,,,,,,,,,,,,,,,,,,,,,,,,,,,,,,,,,,,,,,,,,,,,,,,,,,,,,,,,,,,,,,,,,,,,,,,,,,,,,,,,,,,,,,,,,,,,,,,,,,,,,,,,,,,,,,,,,,,,,,,,,,,,,,,,,,,,,,,,,
,,60a18093c5c040498d3addf8,2026-03-17_15h48.45.577,kallum_motion_pilot_GIST_update_2,2026.1.1,MacIntel,59.88023952,60a18093c5c040498d3addf8,69b95efdef24cd8a694e89ee,69b977b409d67fedf0302f38,0.016,0.016,0,134,134,69,1,threefour,,,,,,,,,,,,,,,,,,,,,,,,,,,,,,,,,,,,,,,,,,,,,,,,,,,,,,,,,,,,,,,,,,,,,,,,,,,,,,,,,,,,,,,,,,,,,,,,,,,,,,,,,,,,,,,,,,,,,,,,,,,,,,,,,,,,,,,,,
,,60a18093c5c040498d3addf8,2026-03-17_15h48.45.577,kallum_motion_pilot_GIST_update_2,2026.1.1,MacIntel,59.88023952,60a18093c5c040498d3addf8,69b95efdef24cd8a694e89ee,69b977b409d67fedf0302f38,0.016,0.016,0,135,135,35,1,twofour,,,,,,,,,,,,,,,,,,,,,,,,,,,,,,,,,,,,,,,,,,,,,,,,,,,,,,,,,,,,,,,,,,,,,,,,,,,,,,,,,,,,,,,,,,,,,,,,,,,,,,,,,,,,,,,,,,,,,,,,,,,,,,,,,,,,,,,,,
,,60a18093c5c040498d3addf8,2026-03-17_15h48.45.577,kallum_motion_pilot_GIST_update_2,2026.1.1,MacIntel,59.88023952,60a18093c5c040498d3addf8,69b95efdef24cd8a694e89ee,69b977b409d67fedf0302f38,0.0161,0.0161,0,136,136,145,1,fiveseven,,,,,,,,,,,,,,,,,,,,,,,,,,,,,,,,,,,,,,,,,,,,,,,,,,,,,,,,,,,,,,,,,,,,,,,,,,,,,,,,,,,,,,,,,,,,,,,,,,,,,,,,,,,,,,,,,,,,,,,,,,,,,,,,,,,,,,,,,
,,60a18093c5c040498d3addf8,2026-03-17_15h48.45.577,kallum_motion_pilot_GIST_update_2,2026.1.1,MacIntel,59.88023952,60a18093c5c040498d3addf8,69b95efdef24cd8a694e89ee,69b977b409d67fedf0302f38,0.0161,0.0161,0,137,137,78,1,fourtwo,,,,,,,,,,,,,,,,,,,,,,,,,,,,,,,,,,,,,,,,,,,,,,,,,,,,,,,,,,,,,,,,,,,,,,,,,,,,,,,,,,,,,,,,,,,,,,,,,,,,,,,,,,,,,,,,,,,,,,,,,,,,,,,,,,,,,,,,,
,,60a18093c5c040498d3addf8,2026-03-17_15h48.45.577,kallum_motion_pilot_GIST_update_2,2026.1.1,MacIntel,59.88023952,60a18093c5c040498d3addf8,69b95efdef24cd8a694e89ee,69b977b409d67fedf0302f38,0.0162,0.0162,0,138,138,149,1,seveneight,,,,,,,,,,,,,,,,,,,,,,,,,,,,,,,,,,,,,,,,,,,,,,,,,,,,,,,,,,,,,,,,,,,,,,,,,,,,,,,,,,,,,,,,,,,,,,,,,,,,,,,,,,,,,,,,,,,,,,,,,,,,,,,,,,,,,,,,,
,,60a18093c5c040498d3addf8,2026-03-17_15h48.45.577,kallum_motion_pilot_GIST_update_2,2026.1.1,MacIntel,59.88023952,60a18093c5c040498d3addf8,69b95efdef24cd8a694e89ee,69b977b409d67fedf0302f38,0.0162,0.0162,0,139,139,57,1,onethree,,,,,,,,,,,,,,,,,,,,,,,,,,,,,,,,,,,,,,,,,,,,,,,,,,,,,,,,,,,,,,,,,,,,,,,,,,,,,,,,,,,,,,,,,,,,,,,,,,,,,,,,,,,,,,,,,,,,,,,,,,,,,,,,,,,,,,,,,
,,60a18093c5c040498d3addf8,2026-03-17_15h48.45.577,kallum_motion_pilot_GIST_update_2,2026.1.1,MacIntel,59.88023952,60a18093c5c040498d3addf8,69b95efdef24cd8a694e89ee,69b977b409d67fedf0302f38,0.0162,0.0162,0,140,140,120,1,fivesix,,,,,,,,,,,,,,,,,,,,,,,,,,,,,,,,,,,,,,,,,,,,,,,,,,,,,,,,,,,,,,,,,,,,,,,,,,,,,,,,,,,,,,,,,,,,,,,,,,,,,,,,,,,,,,,,,,,,,,,,,,,,,,,,,,,,,,,,,
,,60a18093c5c040498d3addf8,2026-03-17_15h48.45.577,kallum_motion_pilot_GIST_update_2,2026.1.1,MacIntel,59.88023952,60a18093c5c040498d3addf8,69b95efdef24cd8a694e89ee,69b977b409d67fedf0302f38,0.0162,0.0162,0,141,141,56,1,onetwo,,,,,,,,,,,,,,,,,,,,,,,,,,,,,,,,,,,,,,,,,,,,,,,,,,,,,,,,,,,,,,,,,,,,,,,,,,,,,,,,,,,,,,,,,,,,,,,,,,,,,,,,,,,,,,,,,,,,,,,,,,,,,,,,,,,,,,,,,
,,60a18093c5c040498d3addf8,2026-03-17_15h48.45.577,kallum_motion_pilot_GIST_update_2,2026.1.1,MacIntel,59.88023952,60a18093c5c040498d3addf8,69b95efdef24cd8a694e89ee,69b977b409d67fedf0302f38,0.0164,0.0164,0,142,142,136,1,fivesix,,,,,,,,,,,,,,,,,,,,,,,,,,,,,,,,,,,,,,,,,,,,,,,,,,,,,,,,,,,,,,,,,,,,,,,,,,,,,,,,,,,,,,,,,,,,,,,,,,,,,,,,,,,,,,,,,,,,,,,,,,,,,,,,,,,,,,,,,
,,60a18093c5c040498d3addf8,2026-03-17_15h48.45.577,kallum_motion_pilot_GIST_update_2,2026.1.1,MacIntel,59.88023952,60a18093c5c040498d3addf8,69b95efdef24cd8a694e89ee,69b977b409d67fedf0302f38,0.0164,0.0164,0,143,143,70,1,fourtwo,,,,,,,,,,,,,,,,,,,,,,,,,,,,,,,,,,,,,,,,,,,,,,,,,,,,,,,,,,,,,,,,,,,,,,,,,,,,,,,,,,,,,,,,,,,,,,,,,,,,,,,,,,,,,,,,,,,,,,,,,,,,,,,,,,,,,,,,,
,,60a18093c5c040498d3addf8,2026-03-17_15h48.45.577,kallum_motion_pilot_GIST_update_2,2026.1.1,MacIntel,59.88023952,60a18093c5c040498d3addf8,69b95efdef24cd8a694e89ee,69b977b409d67fedf0302f38,0.0164,0.0164,0,144,144,1,1,onethree,,,,,,,,,,,,,,,,,,,,,,,,,,,,,,,,,,,,,,,,,,,,,,,,,,,,,,,,,,,,,,,,,,,,,,,,,,,,,,,,,,,,,,,,,,,,,,,,,,,,,,,,,,,,,,,,,,,,,,,,,,,,,,,,,,,,,,,,,
,,60a18093c5c040498d3addf8,2026-03-17_15h48.45.577,kallum_motion_pilot_GIST_update_2,2026.1.1,MacIntel,59.88023952,60a18093c5c040498d3addf8,69b95efdef24cd8a694e89ee,69b977b409d67fedf0302f38,0.0164,0.0165,0,145,145,32,1,onetwo,,,,,,,,,,,,,,,,,,,,,,,,,,,,,,,,,,,,,,,,,,,,,,,,,,,,,,,,,,,,,,,,,,,,,,,,,,,,,,,,,,,,,,,,,,,,,,,,,,,,,,,,,,,,,,,,,,,,,,,,,,,,,,,,,,,,,,,,,
,,60a18093c5c040498d3addf8,2026-03-17_15h48.45.577,kallum_motion_pilot_GIST_update_2,2026.1.1,MacIntel,59.88023952,60a18093c5c040498d3addf8,69b95efdef24cd8a694e89ee,69b977b409d67fedf0302f38,0.0165,0.0165,0,146,146,68,1,threeone,,,,,,,,,,,,,,,,,,,,,,,,,,,,,,,,,,,,,,,,,,,,,,,,,,,,,,,,,,,,,,,,,,,,,,,,,,,,,,,,,,,,,,,,,,,,,,,,,,,,,,,,,,,,,,,,,,,,,,,,,,,,,,,,,,,,,,,,,
,,60a18093c5c040498d3addf8,2026-03-17_15h48.45.577,kallum_motion_pilot_GIST_update_2,2026.1.1,MacIntel,59.88023952,60a18093c5c040498d3addf8,69b95efdef24cd8a694e89ee,69b977b409d67fedf0302f38,0.0166,0.0166,0,147,147,154,1,sixfive,,,,,,,,,,,,,,,,,,,,,,,,,,,,,,,,,,,,,,,,,,,,,,,,,,,,,,,,,,,,,,,,,,,,,,,,,,,,,,,,,,,,,,,,,,,,,,,,,,,,,,,,,,,,,,,,,,,,,,,,,,,,,,,,,,,,,,,,,
,,60a18093c5c040498d3addf8,2026-03-17_15h48.45.577,kallum_motion_pilot_GIST_update_2,2026.1.1,MacIntel,59.88023952,60a18093c5c040498d3addf8,69b95efdef24cd8a694e89ee,69b977b409d67fedf0302f38,0.0166,0.0166,0,148,148,119,1,eightseven,,,,,,,,,,,,,,,,,,,,,,,,,,,,,,,,,,,,,,,,,,,,,,,,,,,,,,,,,,,,,,,,,,,,,,,,,,,,,,,,,,,,,,,,,,,,,,,,,,,,,,,,,,,,,,,,,,,,,,,,,,,,,,,,,,,,,,,,,
,,60a18093c5c040498d3addf8,2026-03-17_15h48.45.577,kallum_motion_pilot_GIST_update_2,2026.1.1,MacIntel,59.88023952,60a18093c5c040498d3addf8,69b95efdef24cd8a694e89ee,69b977b409d67fedf0302f38,0.0166,0.0166,0,149,149,0,1,onetwo,,,,,,,,,,,,,,,,,,,,,,,,,,,,,,,,,,,,,,,,,,,,,,,,,,,,,,,,,,,,,,,,,,,,,,,,,,,,,,,,,,,,,,,,,,,,,,,,,,,,,,,,,,,,,,,,,,,,,,,,,,,,,,,,,,,,,,,,,
,,60a18093c5c040498d3addf8,2026-03-17_15h48.45.577,kallum_motion_pilot_GIST_update_2,2026.1.1,MacIntel,59.88023952,60a18093c5c040498d3addf8,69b95efdef24cd8a694e89ee,69b977b409d67fedf0302f38,0.0173,0.0173,0,150,150,128,1,fivesix,,,,,,,,,,,,,,,,,,,,,,,,,,,,,,,,,,,,,,,,,,,,,,,,,,,,,,,,,,,,,,,,,,,,,,,,,,,,,,,,,,,,,,,,,,,,,,,,,,,,,,,,,,,,,,,,,,,,,,,,,,,,,,,,,,,,,,,,,
,,60a18093c5c040498d3addf8,2026-03-17_15h48.45.577,kallum_motion_pilot_GIST_update_2,2026.1.1,MacIntel,59.88023952,60a18093c5c040498d3addf8,69b95efdef24cd8a694e89ee,69b977b409d67fedf0302f38,0.0173,0.0173,0,151,151,4,1,threeone,,,,,,,,,,,,,,,,,,,,,,,,,,,,,,,,,,,,,,,,,,,,,,,,,,,,,,,,,,,,,,,,,,,,,,,,,,,,,,,,,,,,,,,,,,,,,,,,,,,,,,,,,,,,,,,,,,,,,,,,,,,,,,,,,,,,,,,,,
,,60a18093c5c040498d3addf8,2026-03-17_15h48.45.577,kallum_motion_pilot_GIST_update_2,2026.1.1,MacIntel,59.88023952,60a18093c5c040498d3addf8,69b95efdef24cd8a694e89ee,69b977b409d67fedf0302f38,0.0173,0.0173,0,152,152,44,1,threeone,,,,,,,,,,,,,,,,,,,,,,,,,,,,,,,,,,,,,,,,,,,,,,,,,,,,,,,,,,,,,,,,,,,,,,,,,,,,,,,,,,,,,,,,,,,,,,,,,,,,,,,,,,,,,,,,,,,,,,,,,,,,,,,,,,,,,,,,,
,,60a18093c5c040498d3addf8,2026-03-17_15h48.45.577,kallum_motion_pilot_GIST_update_2,2026.1.1,MacIntel,59.88023952,60a18093c5c040498d3addf8,69b95efdef24cd8a694e89ee,69b977b409d67fedf0302f38,0.0174,0.0174,0,153,153,93,1,seveneight,,,,,,,,,,,,,,,,,,,,,,,,,,,,,,,,,,,,,,,,,,,,,,,,,,,,,,,,,,,,,,,,,,,,,,,,,,,,,,,,,,,,,,,,,,,,,,,,,,,,,,,,,,,,,,,,,,,,,,,,,,,,,,,,,,,,,,,,,
,,60a18093c5c040498d3addf8,2026-03-17_15h48.45.577,kallum_motion_pilot_GIST_update_2,2026.1.1,MacIntel,59.88023952,60a18093c5c040498d3addf8,69b95efdef24cd8a694e89ee,69b977b409d67fedf0302f38,0.0175,0.0175,0,154,154,10,1,twoone,,,,,,,,,,,,,,,,,,,,,,,,,,,,,,,,,,,,,,,,,,,,,,,,,,,,,,,,,,,,,,,,,,,,,,,,,,,,,,,,,,,,,,,,,,,,,,,,,,,,,,,,,,,,,,,,,,,,,,,,,,,,,,,,,,,,,,,,,
,,60a18093c5c040498d3addf8,2026-03-17_15h48.45.577,kallum_motion_pilot_GIST_update_2,2026.1.1,MacIntel,59.88023952,60a18093c5c040498d3addf8,69b95efdef24cd8a694e89ee,69b977b409d67fedf0302f38,0.0175,0.0175,0,155,155,92,1,sevenfive,,,,,,,,,,,,,,,,,,,,,,,,,,,,,,,,,,,,,,,,,,,,,,,,,,,,,,,,,,,,,,,,,,,,,,,,,,,,,,,,,,,,,,,,,,,,,,,,,,,,,,,,,,,,,,,,,,,,,,,,,,,,,,,,,,,,,,,,,
,,60a18093c5c040498d3addf8,2026-03-17_15h48.45.577,kallum_motion_pilot_GIST_update_2,2026.1.1,MacIntel,59.88023952,60a18093c5c040498d3addf8,69b95efdef24cd8a694e89ee,69b977b409d67fedf0302f38,0.0176,0.0176,0,156,156,15,1,fourthree,,,,,,,,,,,,,,,,,,,,,,,,,,,,,,,,,,,,,,,,,,,,,,,,,,,,,,,,,,,,,,,,,,,,,,,,,,,,,,,,,,,,,,,,,,,,,,,,,,,,,,,,,,,,,,,,,,,,,,,,,,,,,,,,,,,,,,,,,
,,60a18093c5c040498d3addf8,2026-03-17_15h48.45.577,kallum_motion_pilot_GIST_update_2,2026.1.1,MacIntel,59.88023952,60a18093c5c040498d3addf8,69b95efdef24cd8a694e89ee,69b977b409d67fedf0302f38,0.0176,0.0176,0,157,157,96,1,fivesix,,,,,,,,,,,,,,,,,,,,,,,,,,,,,,,,,,,,,,,,,,,,,,,,,,,,,,,,,,,,,,,,,,,,,,,,,,,,,,,,,,,,,,,,,,,,,,,,,,,,,,,,,,,,,,,,,,,,,,,,,,,,,,,,,,,,,,,,,
,,60a18093c5c040498d3addf8,2026-03-17_15h48.45.577,kallum_motion_pilot_GIST_update_2,2026.1.1,MacIntel,59.88023952,60a18093c5c040498d3addf8,69b95efdef24cd8a694e89ee,69b977b409d67fedf0302f38,0.0177,0.0177,0,158,158,116,1,sevenfive,,,,,,,,,,,,,,,,,,,,,,,,,,,,,,,,,,,,,,,,,,,,,,,,,,,,,,,,,,,,,,,,,,,,,,,,,,,,,,,,,,,,,,,,,,,,,,,,,,,,,,,,,,,,,,,,,,,,,,,,,,,,,,,,,,,,,,,,,
,,60a18093c5c040498d3addf8,2026-03-17_15h48.45.577,kallum_motion_pilot_GIST_update_2,2026.1.1,MacIntel,59.88023952,60a18093c5c040498d3addf8,69b95efdef24cd8a694e89ee,69b977b409d67fedf0302f38,0.0177,0.0177,0,159,159,115,1,sixeight,,,,,,,,,,,,,,,,,,,,,,,,,,,,,,,,,,,,,,,,,,,,,,,,,,,,,,,,,,,,,,,,,,,,,,,,,,,,,,,,,,,,,,,,,,,,,,,,,,,,,,,,,,,,,,,,,,,,,,,,,,,,,,,,,,,,,,,,,
,,60a18093c5c040498d3addf8,2026-03-17_15h48.45.577,kallum_motion_pilot_GIST_update_2,2026.1.1,MacIntel,59.88023952,60a18093c5c040498d3addf8,69b95efdef24cd8a694e89ee,69b977b409d67fedf0302f38,0.0178,0.0178,0,160,160,71,1,fourthree,,,,,,,,,,,,,,,,,,,,,,,,,,,,,,,,,,,,,,,,,,,,,,,,,,,,,,,,,,,,,,,,,,,,,,,,,,,,,,,,,,,,,,,,,,,,,,,,,,,,,,,,,,,,,,,,,,,,,,,,,,,,,,,,,,,,,,,,,
,,60a18093c5c040498d3addf8,2026-03-17_15h48.45.577,kallum_motion_pilot_GIST_update_2,2026.1.1,MacIntel,59.88023952,60a18093c5c040498d3addf8,69b95efdef24cd8a694e89ee,69b977b409d67fedf0302f38,0.0179,0.0179,0,161,161,36,1,threeone,,,,,,,,,,,,,,,,,,,,,,,,,,,,,,,,,,,,,,,,,,,,,,,,,,,,,,,,,,,,,,,,,,,,,,,,,,,,,,,,,,,,,,,,,,,,,,,,,,,,,,,,,,,,,,,,,,,,,,,,,,,,,,,,,,,,,,,,,
,,60a18093c5c040498d3addf8,2026-03-17_15h48.45.577,kallum_motion_pilot_GIST_update_2,2026.1.1,MacIntel,59.88023952,60a18093c5c040498d3addf8,69b95efdef24cd8a694e89ee,69b977b409d67fedf0302f38,0.0179,0.0179,1,0,162,78,1,fourtwo,,,,,,,,,,,,,,,,,,,,,,,,,,,,,,,,,,,,,,,,,,,,,,,,,,,,,,,,,,,,,,,,,,,,,,,,,,,,,,,,,,,,,,,,,,,,,,,,,,,,,,,,,,,,,,,,,,,,,,,,,,,,,,,,,,,,,,,,,
,,60a18093c5c040498d3addf8,2026-03-17_15h48.45.577,kallum_motion_pilot_GIST_update_2,2026.1.1,MacIntel,59.88023952,60a18093c5c040498d3addf8,69b95efdef24cd8a694e89ee,69b977b409d67fedf0302f38,0.0179,0.0179,1,1,163,49,1,onethree,,,,,,,,,,,,,,,,,,,,,,,,,,,,,,,,,,,,,,,,,,,,,,,,,,,,,,,,,,,,,,,,,,,,,,,,,,,,,,,,,,,,,,,,,,,,,,,,,,,,,,,,,,,,,,,,,,,,,,,,,,,,,,,,,,,,,,,,,
,,60a18093c5c040498d3addf8,2026-03-17_15h48.45.577,kallum_motion_pilot_GIST_update_2,2026.1.1,MacIntel,59.88023952,60a18093c5c040498d3addf8,69b95efdef24cd8a694e89ee,69b977b409d67fedf0302f38,0.018,0.018,1,2,164,5,1,threefour,,,,,,,,,,,,,,,,,,,,,,,,,,,,,,,,,,,,,,,,,,,,,,,,,,,,,,,,,,,,,,,,,,,,,,,,,,,,,,,,,,,,,,,,,,,,,,,,,,,,,,,,,,,,,,,,,,,,,,,,,,,,,,,,,,,,,,,,,
,,60a18093c5c040498d3addf8,2026-03-17_15h48.45.577,kallum_motion_pilot_GIST_update_2,2026.1.1,MacIntel,59.88023952,60a18093c5c040498d3addf8,69b95efdef24cd8a694e89ee,69b977b409d67fedf0302f38,0.018,0.018,1,3,165,85,1,seveneight,,,,,,,,,,,,,,,,,,,,,,,,,,,,,,,,,,,,,,,,,,,,,,,,,,,,,,,,,,,,,,,,,,,,,,,,,,,,,,,,,,,,,,,,,,,,,,,,,,,,,,,,,,,,,,,,,,,,,,,,,,,,,,,,,,,,,,,,,
,,60a18093c5c040498d3addf8,2026-03-17_15h48.45.577,kallum_motion_pilot_GIST_update_2,2026.1.1,MacIntel,59.88023952,60a18093c5c040498d3addf8,69b95efdef24cd8a694e89ee,69b977b409d67fedf0302f38,0.0181,0.0181,1,4,166,6,1,fourtwo,,,,,,,,,,,,,,,,,,,,,,,,,,,,,,,,,,,,,,,,,,,,,,,,,,,,,,,,,,,,,,,,,,,,,,,,,,,,,,,,,,,,,,,,,,,,,,,,,,,,,,,,,,,,,,,,,,,,,,,,,,,,,,,,,,,,,,,,,
,,60a18093c5c040498d3addf8,2026-03-17_15h48.45.577,kallum_motion_pilot_GIST_update_2,2026.1.1,MacIntel,59.88023952,60a18093c5c040498d3addf8,69b95efdef24cd8a694e89ee,69b977b409d67fedf0302f38,0.0181,0.0181,1,5,167,0,1,onetwo,,,,,,,,,,,,,,,,,,,,,,,,,,,,,,,,,,,,,,,,,,,,,,,,,,,,,,,,,,,,,,,,,,,,,,,,,,,,,,,,,,,,,,,,,,,,,,,,,,,,,,,,,,,,,,,,,,,,,,,,,,,,,,,,,,,,,,,,,
,,60a18093c5c040498d3addf8,2026-03-17_15h48.45.577,kallum_motion_pilot_GIST_update_2,2026.1.1,MacIntel,59.88023952,60a18093c5c040498d3addf8,69b95efdef24cd8a694e89ee,69b977b409d67fedf0302f38,0.0181,0.0181,1,6,168,67,1,twofour,,,,,,,,,,,,,,,,,,,,,,,,,,,,,,,,,,,,,,,,,,,,,,,,,,,,,,,,,,,,,,,,,,,,,,,,,,,,,,,,,,,,,,,,,,,,,,,,,,,,,,,,,,,,,,,,,,,,,,,,,,,,,,,,,,,,,,,,,
,,60a18093c5c040498d3addf8,2026-03-17_15h48.45.577,kallum_motion_pilot_GIST_update_2,2026.1.1,MacIntel,59.88023952,60a18093c5c040498d3addf8,69b95efdef24cd8a694e89ee,69b977b409d67fedf0302f38,0.0182,0.0182,1,7,169,100,1,sevenfive,,,,,,,,,,,,,,,,,,,,,,,,,,,,,,,,,,,,,,,,,,,,,,,,,,,,,,,,,,,,,,,,,,,,,,,,,,,,,,,,,,,,,,,,,,,,,,,,,,,,,,,,,,,,,,,,,,,,,,,,,,,,,,,,,,,,,,,,,
,,60a18093c5c040498d3addf8,2026-03-17_15h48.45.577,kallum_motion_pilot_GIST_update_2,2026.1.1,MacIntel,59.88023952,60a18093c5c040498d3addf8,69b95efdef24cd8a694e89ee,69b977b409d67fedf0302f38,0.0183,0.0183,1,8,170,59,1,twofour,,,,,,,,,,,,,,,,,,,,,,,,,,,,,,,,,,,,,,,,,,,,,,,,,,,,,,,,,,,,,,,,,,,,,,,,,,,,,,,,,,,,,,,,,,,,,,,,,,,,,,,,,,,,,,,,,,,,,,,,,,,,,,,,,,,,,,,,,
,,60a18093c5c040498d3addf8,2026-03-17_15h48.45.577,kallum_motion_pilot_GIST_update_2,2026.1.1,MacIntel,59.88023952,60a18093c5c040498d3addf8,69b95efdef24cd8a694e89ee,69b977b409d67fedf0302f38,0.0183,0.0183,1,9,171,73,1,onethree,,,,,,,,,,,,,,,,,,,,,,,,,,,,,,,,,,,,,,,,,,,,,,,,,,,,,,,,,,,,,,,,,,,,,,,,,,,,,,,,,,,,,,,,,,,,,,,,,,,,,,,,,,,,,,,,,,,,,,,,,,,,,,,,,,,,,,,,,
,,60a18093c5c040498d3addf8,2026-03-17_15h48.45.577,kallum_motion_pilot_GIST_update_2,2026.1.1,MacIntel,59.88023952,60a18093c5c040498d3addf8,69b95efdef24cd8a694e89ee,69b977b409d67fedf0302f38,0.0183,0.0183,1,10,172,83,1,sixeight,,,,,,,,,,,,,,,,,,,,,,,,,,,,,,,,,,,,,,,,,,,,,,,,,,,,,,,,,,,,,,,,,,,,,,,,,,,,,,,,,,,,,,,,,,,,,,,,,,,,,,,,,,,,,,,,,,,,,,,,,,,,,,,,,,,,,,,,,
,,60a18093c5c040498d3addf8,2026-03-17_15h48.45.577,kallum_motion_pilot_GIST_update_2,2026.1.1,MacIntel,59.88023952,60a18093c5c040498d3addf8,69b95efdef24cd8a694e89ee,69b977b409d67fedf0302f38,0.0184,0.0184,1,11,173,161,1,fiveseven,,,,,,,,,,,,,,,,,,,,,,,,,,,,,,,,,,,,,,,,,,,,,,,,,,,,,,,,,,,,,,,,,,,,,,,,,,,,,,,,,,,,,,,,,,,,,,,,,,,,,,,,,,,,,,,,,,,,,,,,,,,,,,,,,,,,,,,,,
,,60a18093c5c040498d3addf8,2026-03-17_15h48.45.577,kallum_motion_pilot_GIST_update_2,2026.1.1,MacIntel,59.88023952,60a18093c5c040498d3addf8,69b95efdef24cd8a694e89ee,69b977b409d67fedf0302f38,0.0184,0.0184,1,12,174,94,1,eightsix,,,,,,,,,,,,,,,,,,,,,,,,,,,,,,,,,,,,,,,,,,,,,,,,,,,,,,,,,,,,,,,,,,,,,,,,,,,,,,,,,,,,,,,,,,,,,,,,,,,,,,,,,,,,,,,,,,,,,,,,,,,,,,,,,,,,,,,,,
,,60a18093c5c040498d3addf8,2026-03-17_15h48.45.577,kallum_motion_pilot_GIST_update_2,2026.1.1,MacIntel,59.88023952,60a18093c5c040498d3addf8,69b95efdef24cd8a694e89ee,69b977b409d67fedf0302f38,0.0184,0.0184,1,13,175,71,1,fourthree,,,,,,,,,,,,,,,,,,,,,,,,,,,,,,,,,,,,,,,,,,,,,,,,,,,,,,,,,,,,,,,,,,,,,,,,,,,,,,,,,,,,,,,,,,,,,,,,,,,,,,,,,,,,,,,,,,,,,,,,,,,,,,,,,,,,,,,,,
,,60a18093c5c040498d3addf8,2026-03-17_15h48.45.577,kallum_motion_pilot_GIST_update_2,2026.1.1,MacIntel,59.88023952,60a18093c5c040498d3addf8,69b95efdef24cd8a694e89ee,69b977b409d67fedf0302f38,0.0185,0.0185,1,14,176,136,1,fivesix,,,,,,,,,,,,,,,,,,,,,,,,,,,,,,,,,,,,,,,,,,,,,,,,,,,,,,,,,,,,,,,,,,,,,,,,,,,,,,,,,,,,,,,,,,,,,,,,,,,,,,,,,,,,,,,,,,,,,,,,,,,,,,,,,,,,,,,,,
,,60a18093c5c040498d3addf8,2026-03-17_15h48.45.577,kallum_motion_pilot_GIST_update_2,2026.1.1,MacIntel,59.88023952,60a18093c5c040498d3addf8,69b95efdef24cd8a694e89ee,69b977b409d67fedf0302f38,0.0186,0.0186,1,15,177,145,1,fiveseven,,,,,,,,,,,,,,,,,,,,,,,,,,,,,,,,,,,,,,,,,,,,,,,,,,,,,,,,,,,,,,,,,,,,,,,,,,,,,,,,,,,,,,,,,,,,,,,,,,,,,,,,,,,,,,,,,,,,,,,,,,,,,,,,,,,,,,,,,
,,60a18093c5c040498d3addf8,2026-03-17_15h48.45.577,kallum_motion_pilot_GIST_update_2,2026.1.1,MacIntel,59.88023952,60a18093c5c040498d3addf8,69b95efdef24cd8a694e89ee,69b977b409d67fedf0302f38,0.0186,0.0186,1,16,178,12,1,threeone,,,,,,,,,,,,,,,,,,,,,,,,,,,,,,,,,,,,,,,,,,,,,,,,,,,,,,,,,,,,,,,,,,,,,,,,,,,,,,,,,,,,,,,,,,,,,,,,,,,,,,,,,,,,,,,,,,,,,,,,,,,,,,,,,,,,,,,,,
,,60a18093c5c040498d3addf8,2026-03-17_15h48.45.577,kallum_motion_pilot_GIST_update_2,2026.1.1,MacIntel,59.88023952,60a18093c5c040498d3addf8,69b95efdef24cd8a694e89ee,69b977b409d67fedf0302f38,0.0186,0.0186,1,17,179,52,1,threeone,,,,,,,,,,,,,,,,,,,,,,,,,,,,,,,,,,,,,,,,,,,,,,,,,,,,,,,,,,,,,,,,,,,,,,,,,,,,,,,,,,,,,,,,,,,,,,,,,,,,,,,,,,,,,,,,,,,,,,,,,,,,,,,,,,,,,,,,,
,,60a18093c5c040498d3addf8,2026-03-17_15h48.45.577,kallum_motion_pilot_GIST_update_2,2026.1.1,MacIntel,59.88023952,60a18093c5c040498d3addf8,69b95efdef24cd8a694e89ee,69b977b409d67fedf0302f38,0.0188,0.0188,1,18,180,144,1,fivesix,,,,,,,,,,,,,,,,,,,,,,,,,,,,,,,,,,,,,,,,,,,,,,,,,,,,,,,,,,,,,,,,,,,,,,,,,,,,,,,,,,,,,,,,,,,,,,,,,,,,,,,,,,,,,,,,,,,,,,,,,,,,,,,,,,,,,,,,,
,,60a18093c5c040498d3addf8,2026-03-17_15h48.45.577,kallum_motion_pilot_GIST_update_2,2026.1.1,MacIntel,59.88023952,60a18093c5c040498d3addf8,69b95efdef24cd8a694e89ee,69b977b409d67fedf0302f38,0.0188,0.0188,1,19,181,101,1,seveneight,,,,,,,,,,,,,,,,,,,,,,,,,,,,,,,,,,,,,,,,,,,,,,,,,,,,,,,,,,,,,,,,,,,,,,,,,,,,,,,,,,,,,,,,,,,,,,,,,,,,,,,,,,,,,,,,,,,,,,,,,,,,,,,,,,,,,,,,,
,,60a18093c5c040498d3addf8,2026-03-17_15h48.45.577,kallum_motion_pilot_GIST_update_2,2026.1.1,MacIntel,59.88023952,60a18093c5c040498d3addf8,69b95efdef24cd8a694e89ee,69b977b409d67fedf0302f38,0.0189,0.0189,1,20,182,150,1,eightsix,,,,,,,,,,,,,,,,,,,,,,,,,,,,,,,,,,,,,,,,,,,,,,,,,,,,,,,,,,,,,,,,,,,,,,,,,,,,,,,,,,,,,,,,,,,,,,,,,,,,,,,,,,,,,,,,,,,,,,,,,,,,,,,,,,,,,,,,,
,,60a18093c5c040498d3addf8,2026-03-17_15h48.45.577,kallum_motion_pilot_GIST_update_2,2026.1.1,MacIntel,59.88023952,60a18093c5c040498d3addf8,69b95efdef24cd8a694e89ee,69b977b409d67fedf0302f38,0.0189,0.0189,1,21,183,64,1,onetwo,,,,,,,,,,,,,,,,,,,,,,,,,,,,,,,,,,,,,,,,,,,,,,,,,,,,,,,,,,,,,,,,,,,,,,,,,,,,,,,,,,,,,,,,,,,,,,,,,,,,,,,,,,,,,,,,,,,,,,,,,,,,,,,,,,,,,,,,,
,,60a18093c5c040498d3addf8,2026-03-17_15h48.45.577,kallum_motion_pilot_GIST_update_2,2026.1.1,MacIntel,59.88023952,60a18093c5c040498d3addf8,69b95efdef24cd8a694e89ee,69b977b409d67fedf0302f38,0.019,0.019,1,22,184,70,1,fourtwo,,,,,,,,,,,,,,,,,,,,,,,,,,,,,,,,,,,,,,,,,,,,,,,,,,,,,,,,,,,,,,,,,,,,,,,,,,,,,,,,,,,,,,,,,,,,,,,,,,,,,,,,,,,,,,,,,,,,,,,,,,,,,,,,,,,,,,,,,
,,60a18093c5c040498d3addf8,2026-03-17_15h48.45.577,kallum_motion_pilot_GIST_update_2,2026.1.1,MacIntel,59.88023952,60a18093c5c040498d3addf8,69b95efdef24cd8a694e89ee,69b977b409d67fedf0302f38,0.019,0.019,1,23,185,115,1,sixeight,,,,,,,,,,,,,,,,,,,,,,,,,,,,,,,,,,,,,,,,,,,,,,,,,,,,,,,,,,,,,,,,,,,,,,,,,,,,,,,,,,,,,,,,,,,,,,,,,,,,,,,,,,,,,,,,,,,,,,,,,,,,,,,,,,,,,,,,,
,,60a18093c5c040498d3addf8,2026-03-17_15h48.45.577,kallum_motion_pilot_GIST_update_2,2026.1.1,MacIntel,59.88023952,60a18093c5c040498d3addf8,69b95efdef24cd8a694e89ee,69b977b409d67fedf0302f38,0.0191,0.0191,1,24,186,43,1,twofour,,,,,,,,,,,,,,,,,,,,,,,,,,,,,,,,,,,,,,,,,,,,,,,,,,,,,,,,,,,,,,,,,,,,,,,,,,,,,,,,,,,,,,,,,,,,,,,,,,,,,,,,,,,,,,,,,,,,,,,,,,,,,,,,,,,,,,,,,
,,60a18093c5c040498d3addf8,2026-03-17_15h48.45.577,kallum_motion_pilot_GIST_update_2,2026.1.1,MacIntel,59.88023952,60a18093c5c040498d3addf8,69b95efdef24cd8a694e89ee,69b977b409d67fedf0302f38,0.0191,0.0191,1,25,187,8,1,onetwo,,,,,,,,,,,,,,,,,,,,,,,,,,,,,,,,,,,,,,,,,,,,,,,,,,,,,,,,,,,,,,,,,,,,,,,,,,,,,,,,,,,,,,,,,,,,,,,,,,,,,,,,,,,,,,,,,,,,,,,,,,,,,,,,,,,,,,,,,
,,60a18093c5c040498d3addf8,2026-03-17_15h48.45.577,kallum_motion_pilot_GIST_update_2,2026.1.1,MacIntel,59.88023952,60a18093c5c040498d3addf8,69b95efdef24cd8a694e89ee,69b977b409d67fedf0302f38,0.0192,0.0192,1,26,188,50,1,twoone,,,,,,,,,,,,,,,,,,,,,,,,,,,,,,,,,,,,,,,,,,,,,,,,,,,,,,,,,,,,,,,,,,,,,,,,,,,,,,,,,,,,,,,,,,,,,,,,,,,,,,,,,,,,,,,,,,,,,,,,,,,,,,,,,,,,,,,,,
,,60a18093c5c040498d3addf8,2026-03-17_15h48.45.577,kallum_motion_pilot_GIST_update_2,2026.1.1,MacIntel,59.88023952,60a18093c5c040498d3addf8,69b95efdef24cd8a694e89ee,69b977b409d67fedf0302f38,0.0193,0.0193,1,27,189,128,1,fivesix,,,,,,,,,,,,,,,,,,,,,,,,,,,,,,,,,,,,,,,,,,,,,,,,,,,,,,,,,,,,,,,,,,,,,,,,,,,,,,,,,,,,,,,,,,,,,,,,,,,,,,,,,,,,,,,,,,,,,,,,,,,,,,,,,,,,,,,,,
,,60a18093c5c040498d3addf8,2026-03-17_15h48.45.577,kallum_motion_pilot_GIST_update_2,2026.1.1,MacIntel,59.88023952,60a18093c5c040498d3addf8,69b95efdef24cd8a694e89ee,69b977b409d67fedf0302f38,0.0193,0.0193,1,28,190,65,1,onethree,,,,,,,,,,,,,,,,,,,,,,,,,,,,,,,,,,,,,,,,,,,,,,,,,,,,,,,,,,,,,,,,,,,,,,,,,,,,,,,,,,,,,,,,,,,,,,,,,,,,,,,,,,,,,,,,,,,,,,,,,,,,,,,,,,,,,,,,,
,,60a18093c5c040498d3addf8,2026-03-17_15h48.45.577,kallum_motion_pilot_GIST_update_2,2026.1.1,MacIntel,59.88023952,60a18093c5c040498d3addf8,69b95efdef24cd8a694e89ee,69b977b409d67fedf0302f38,0.0194,0.0194,1,29,191,33,1,onethree,,,,,,,,,,,,,,,,,,,,,,,,,,,,,,,,,,,,,,,,,,,,,,,,,,,,,,,,,,,,,,,,,,,,,,,,,,,,,,,,,,,,,,,,,,,,,,,,,,,,,,,,,,,,,,,,,,,,,,,,,,,,,,,,,,,,,,,,,
,,60a18093c5c040498d3addf8,2026-03-17_15h48.45.577,kallum_motion_pilot_GIST_update_2,2026.1.1,MacIntel,59.88023952,60a18093c5c040498d3addf8,69b95efdef24cd8a694e89ee,69b977b409d67fedf0302f38,0.0194,0.0194,1,30,192,111,1,eightseven,,,,,,,,,,,,,,,,,,,,,,,,,,,,,,,,,,,,,,,,,,,,,,,,,,,,,,,,,,,,,,,,,,,,,,,,,,,,,,,,,,,,,,,,,,,,,,,,,,,,,,,,,,,,,,,,,,,,,,,,,,,,,,,,,,,,,,,,,
,,60a18093c5c040498d3addf8,2026-03-17_15h48.45.577,kallum_motion_pilot_GIST_update_2,2026.1.1,MacIntel,59.88023952,60a18093c5c040498d3addf8,69b95efdef24cd8a694e89ee,69b977b409d67fedf0302f38,0.0195,0.0195,1,31,193,14,1,fourtwo,,,,,,,,,,,,,,,,,,,,,,,,,,,,,,,,,,,,,,,,,,,,,,,,,,,,,,,,,,,,,,,,,,,,,,,,,,,,,,,,,,,,,,,,,,,,,,,,,,,,,,,,,,,,,,,,,,,,,,,,,,,,,,,,,,,,,,,,,
,,60a18093c5c040498d3addf8,2026-03-17_15h48.45.577,kallum_motion_pilot_GIST_update_2,2026.1.1,MacIntel,59.88023952,60a18093c5c040498d3addf8,69b95efdef24cd8a694e89ee,69b977b409d67fedf0302f38,0.0195,0.0195,1,32,194,93,1,seveneight,,,,,,,,,,,,,,,,,,,,,,,,,,,,,,,,,,,,,,,,,,,,,,,,,,,,,,,,,,,,,,,,,,,,,,,,,,,,,,,,,,,,,,,,,,,,,,,,,,,,,,,,,,,,,,,,,,,,,,,,,,,,,,,,,,,,,,,,,
,,60a18093c5c040498d3addf8,2026-03-17_15h48.45.577,kallum_motion_pilot_GIST_update_2,2026.1.1,MacIntel,59.88023952,60a18093c5c040498d3addf8,69b95efdef24cd8a694e89ee,69b977b409d67fedf0302f38,0.0196,0.0196,1,33,195,148,1,sevenfive,,,,,,,,,,,,,,,,,,,,,,,,,,,,,,,,,,,,,,,,,,,,,,,,,,,,,,,,,,,,,,,,,,,,,,,,,,,,,,,,,,,,,,,,,,,,,,,,,,,,,,,,,,,,,,,,,,,,,,,,,,,,,,,,,,,,,,,,,
,,60a18093c5c040498d3addf8,2026-03-17_15h48.45.577,kallum_motion_pilot_GIST_update_2,2026.1.1,MacIntel,59.88023952,60a18093c5c040498d3addf8,69b95efdef24cd8a694e89ee,69b977b409d67fedf0302f38,0.0196,0.0196,1,34,196,53,1,threefour,,,,,,,,,,,,,,,,,,,,,,,,,,,,,,,,,,,,,,,,,,,,,,,,,,,,,,,,,,,,,,,,,,,,,,,,,,,,,,,,,,,,,,,,,,,,,,,,,,,,,,,,,,,,,,,,,,,,,,,,,,,,,,,,,,,,,,,,,
,,60a18093c5c040498d3addf8,2026-03-17_15h48.45.577,kallum_motion_pilot_GIST_update_2,2026.1.1,MacIntel,59.88023952,60a18093c5c040498d3addf8,69b95efdef24cd8a694e89ee,69b977b409d67fedf0302f38,0.0197,0.0197,1,35,197,26,1,twoone,,,,,,,,,,,,,,,,,,,,,,,,,,,,,,,,,,,,,,,,,,,,,,,,,,,,,,,,,,,,,,,,,,,,,,,,,,,,,,,,,,,,,,,,,,,,,,,,,,,,,,,,,,,,,,,,,,,,,,,,,,,,,,,,,,,,,,,,,
,,60a18093c5c040498d3addf8,2026-03-17_15h48.45.577,kallum_motion_pilot_GIST_update_2,2026.1.1,MacIntel,59.88023952,60a18093c5c040498d3addf8,69b95efdef24cd8a694e89ee,69b977b409d67fedf0302f38,0.0197,0.0197,1,36,198,22,1,fourtwo,,,,,,,,,,,,,,,,,,,,,,,,,,,,,,,,,,,,,,,,,,,,,,,,,,,,,,,,,,,,,,,,,,,,,,,,,,,,,,,,,,,,,,,,,,,,,,,,,,,,,,,,,,,,,,,,,,,,,,,,,,,,,,,,,,,,,,,,,
,,60a18093c5c040498d3addf8,2026-03-17_15h48.45.577,kallum_motion_pilot_GIST_update_2,2026.1.1,MacIntel,59.88023952,60a18093c5c040498d3addf8,69b95efdef24cd8a694e89ee,69b977b409d67fedf0302f38,0.0198,0.0198,1,37,199,127,1,eightseven,,,,,,,,,,,,,,,,,,,,,,,,,,,,,,,,,,,,,,,,,,,,,,,,,,,,,,,,,,,,,,,,,,,,,,,,,,,,,,,,,,,,,,,,,,,,,,,,,,,,,,,,,,,,,,,,,,,,,,,,,,,,,,,,,,,,,,,,,
,,60a18093c5c040498d3addf8,2026-03-17_15h48.45.577,kallum_motion_pilot_GIST_update_2,2026.1.1,MacIntel,59.88023952,60a18093c5c040498d3addf8,69b95efdef24cd8a694e89ee,69b977b409d67fedf0302f38,0.0198,0.0198,1,38,200,142,1,eightsix,,,,,,,,,,,,,,,,,,,,,,,,,,,,,,,,,,,,,,,,,,,,,,,,,,,,,,,,,,,,,,,,,,,,,,,,,,,,,,,,,,,,,,,,,,,,,,,,,,,,,,,,,,,,,,,,,,,,,,,,,,,,,,,,,,,,,,,,,
,,60a18093c5c040498d3addf8,2026-03-17_15h48.45.577,kallum_motion_pilot_GIST_update_2,2026.1.1,MacIntel,59.88023952,60a18093c5c040498d3addf8,69b95efdef24cd8a694e89ee,69b977b409d67fedf0302f38,0.0199,0.0199,1,39,201,48,1,onetwo,,,,,,,,,,,,,,,,,,,,,,,,,,,,,,,,,,,,,,,,,,,,,,,,,,,,,,,,,,,,,,,,,,,,,,,,,,,,,,,,,,,,,,,,,,,,,,,,,,,,,,,,,,,,,,,,,,,,,,,,,,,,,,,,,,,,,,,,,
,,60a18093c5c040498d3addf8,2026-03-17_15h48.45.577,kallum_motion_pilot_GIST_update_2,2026.1.1,MacIntel,59.88023952,60a18093c5c040498d3addf8,69b95efdef24cd8a694e89ee,69b977b409d67fedf0302f38,0.0199,0.0199,1,40,202,112,1,fivesix,,,,,,,,,,,,,,,,,,,,,,,,,,,,,,,,,,,,,,,,,,,,,,,,,,,,,,,,,,,,,,,,,,,,,,,,,,,,,,,,,,,,,,,,,,,,,,,,,,,,,,,,,,,,,,,,,,,,,,,,,,,,,,,,,,,,,,,,,
,,60a18093c5c040498d3addf8,2026-03-17_15h48.45.577,kallum_motion_pilot_GIST_update_2,2026.1.1,MacIntel,59.88023952,60a18093c5c040498d3addf8,69b95efdef24cd8a694e89ee,69b977b409d67fedf0302f38,0.0199,0.0199,1,41,203,122,1,sixfive,,,,,,,,,,,,,,,,,,,,,,,,,,,,,,,,,,,,,,,,,,,,,,,,,,,,,,,,,,,,,,,,,,,,,,,,,,,,,,,,,,,,,,,,,,,,,,,,,,,,,,,,,,,,,,,,,,,,,,,,,,,,,,,,,,,,,,,,,
,,60a18093c5c040498d3addf8,2026-03-17_15h48.45.577,kallum_motion_pilot_GIST_update_2,2026.1.1,MacIntel,59.88023952,60a18093c5c040498d3addf8,69b95efdef24cd8a694e89ee,69b977b409d67fedf0302f38,0.02,0.02,1,42,204,116,1,sevenfive,,,,,,,,,,,,,,,,,,,,,,,,,,,,,,,,,,,,,,,,,,,,,,,,,,,,,,,,,,,,,,,,,,,,,,,,,,,,,,,,,,,,,,,,,,,,,,,,,,,,,,,,,,,,,,,,,,,,,,,,,,,,,,,,,,,,,,,,,
,,60a18093c5c040498d3addf8,2026-03-17_15h48.45.577,kallum_motion_pilot_GIST_update_2,2026.1.1,MacIntel,59.88023952,60a18093c5c040498d3addf8,69b95efdef24cd8a694e89ee,69b977b409d67fedf0302f38,0.0201,0.0201,1,43,205,138,1,sixfive,,,,,,,,,,,,,,,,,,,,,,,,,,,,,,,,,,,,,,,,,,,,,,,,,,,,,,,,,,,,,,,,,,,,,,,,,,,,,,,,,,,,,,,,,,,,,,,,,,,,,,,,,,,,,,,,,,,,,,,,,,,,,,,,,,,,,,,,,
,,60a18093c5c040498d3addf8,2026-03-17_15h48.45.577,kallum_motion_pilot_GIST_update_2,2026.1.1,MacIntel,59.88023952,60a18093c5c040498d3addf8,69b95efdef24cd8a694e89ee,69b977b409d67fedf0302f38,0.0202,0.0202,1,44,206,99,1,sixeight,,,,,,,,,,,,,,,,,,,,,,,,,,,,,,,,,,,,,,,,,,,,,,,,,,,,,,,,,,,,,,,,,,,,,,,,,,,,,,,,,,,,,,,,,,,,,,,,,,,,,,,,,,,,,,,,,,,,,,,,,,,,,,,,,,,,,,,,,
,,60a18093c5c040498d3addf8,2026-03-17_15h48.45.577,kallum_motion_pilot_GIST_update_2,2026.1.1,MacIntel,59.88023952,60a18093c5c040498d3addf8,69b95efdef24cd8a694e89ee,69b977b409d67fedf0302f38,0.0202,0.0202,1,45,207,132,1,sevenfive,,,,,,,,,,,,,,,,,,,,,,,,,,,,,,,,,,,,,,,,,,,,,,,,,,,,,,,,,,,,,,,,,,,,,,,,,,,,,,,,,,,,,,,,,,,,,,,,,,,,,,,,,,,,,,,,,,,,,,,,,,,,,,,,,,,,,,,,,
,,60a18093c5c040498d3addf8,2026-03-17_15h48.45.577,kallum_motion_pilot_GIST_update_2,2026.1.1,MacIntel,59.88023952,60a18093c5c040498d3addf8,69b95efdef24cd8a694e89ee,69b977b409d67fedf0302f38,0.0202,0.0202,1,46,208,28,1,threeone,,,,,,,,,,,,,,,,,,,,,,,,,,,,,,,,,,,,,,,,,,,,,,,,,,,,,,,,,,,,,,,,,,,,,,,,,,,,,,,,,,,,,,,,,,,,,,,,,,,,,,,,,,,,,,,,,,,,,,,,,,,,,,,,,,,,,,,,,
,,60a18093c5c040498d3addf8,2026-03-17_15h48.45.577,kallum_motion_pilot_GIST_update_2,2026.1.1,MacIntel,59.88023952,60a18093c5c040498d3addf8,69b95efdef24cd8a694e89ee,69b977b409d67fedf0302f38,0.0203,0.0203,1,47,209,79,1,eightseven,,,,,,,,,,,,,,,,,,,,,,,,,,,,,,,,,,,,,,,,,,,,,,,,,,,,,,,,,,,,,,,,,,,,,,,,,,,,,,,,,,,,,,,,,,,,,,,,,,,,,,,,,,,,,,,,,,,,,,,,,,,,,,,,,,,,,,,,,
,,60a18093c5c040498d3addf8,2026-03-17_15h48.45.577,kallum_motion_pilot_GIST_update_2,2026.1.1,MacIntel,59.88023952,60a18093c5c040498d3addf8,69b95efdef24cd8a694e89ee,69b977b409d67fedf0302f38,0.0203,0.0203,1,48,210,98,1,sixfive,,,,,,,,,,,,,,,,,,,,,,,,,,,,,,,,,,,,,,,,,,,,,,,,,,,,,,,,,,,,,,,,,,,,,,,,,,,,,,,,,,,,,,,,,,,,,,,,,,,,,,,,,,,,,,,,,,,,,,,,,,,,,,,,,,,,,,,,,
,,60a18093c5c040498d3addf8,2026-03-17_15h48.45.577,kallum_motion_pilot_GIST_update_2,2026.1.1,MacIntel,59.88023952,60a18093c5c040498d3addf8,69b95efdef24cd8a694e89ee,69b977b409d67fedf0302f38,0.0203,0.0203,1,49,211,133,1,seveneight,,,,,,,,,,,,,,,,,,,,,,,,,,,,,,,,,,,,,,,,,,,,,,,,,,,,,,,,,,,,,,,,,,,,,,,,,,,,,,,,,,,,,,,,,,,,,,,,,,,,,,,,,,,,,,,,,,,,,,,,,,,,,,,,,,,,,,,,,
,,60a18093c5c040498d3addf8,2026-03-17_15h48.45.577,kallum_motion_pilot_GIST_update_2,2026.1.1,MacIntel,59.88023952,60a18093c5c040498d3addf8,69b95efdef24cd8a694e89ee,69b977b409d67fedf0302f38,0.0204,0.0204,1,50,212,2,1,twoone,,,,,,,,,,,,,,,,,,,,,,,,,,,,,,,,,,,,,,,,,,,,,,,,,,,,,,,,,,,,,,,,,,,,,,,,,,,,,,,,,,,,,,,,,,,,,,,,,,,,,,,,,,,,,,,,,,,,,,,,,,,,,,,,,,,,,,,,,
,,60a18093c5c040498d3addf8,2026-03-17_15h48.45.577,kallum_motion_pilot_GIST_update_2,2026.1.1,MacIntel,59.88023952,60a18093c5c040498d3addf8,69b95efdef24cd8a694e89ee,69b977b409d67fedf0302f38,0.0204,0.0204,1,51,213,81,1,fiveseven,,,,,,,,,,,,,,,,,,,,,,,,,,,,,,,,,,,,,,,,,,,,,,,,,,,,,,,,,,,,,,,,,,,,,,,,,,,,,,,,,,,,,,,,,,,,,,,,,,,,,,,,,,,,,,,,,,,,,,,,,,,,,,,,,,,,,,,,,
,,60a18093c5c040498d3addf8,2026-03-17_15h48.45.577,kallum_motion_pilot_GIST_update_2,2026.1.1,MacIntel,59.88023952,60a18093c5c040498d3addf8,69b95efdef24cd8a694e89ee,69b977b409d67fedf0302f38,0.0205,0.0205,1,52,214,15,1,fourthree,,,,,,,,,,,,,,,,,,,,,,,,,,,,,,,,,,,,,,,,,,,,,,,,,,,,,,,,,,,,,,,,,,,,,,,,,,,,,,,,,,,,,,,,,,,,,,,,,,,,,,,,,,,,,,,,,,,,,,,,,,,,,,,,,,,,,,,,,
,,60a18093c5c040498d3addf8,2026-03-17_15h48.45.577,kallum_motion_pilot_GIST_update_2,2026.1.1,MacIntel,59.88023952,60a18093c5c040498d3addf8,69b95efdef24cd8a694e89ee,69b977b409d67fedf0302f38,0.0206,0.0206,1,53,215,153,1,fiveseven,,,,,,,,,,,,,,,,,,,,,,,,,,,,,,,,,,,,,,,,,,,,,,,,,,,,,,,,,,,,,,,,,,,,,,,,,,,,,,,,,,,,,,,,,,,,,,,,,,,,,,,,,,,,,,,,,,,,,,,,,,,,,,,,,,,,,,,,,
,,60a18093c5c040498d3addf8,2026-03-17_15h48.45.577,kallum_motion_pilot_GIST_update_2,2026.1.1,MacIntel,59.88023952,60a18093c5c040498d3addf8,69b95efdef24cd8a694e89ee,69b977b409d67fedf0302f38,0.0206,0.0206,1,54,216,55,1,fourthree,,,,,,,,,,,,,,,,,,,,,,,,,,,,,,,,,,,,,,,,,,,,,,,,,,,,,,,,,,,,,,,,,,,,,,,,,,,,,,,,,,,,,,,,,,,,,,,,,,,,,,,,,,,,,,,,,,,,,,,,,,,,,,,,,,,,,,,,,
,,60a18093c5c040498d3addf8,2026-03-17_15h48.45.577,kallum_motion_pilot_GIST_update_2,2026.1.1,MacIntel,59.88023952,60a18093c5c040498d3addf8,69b95efdef24cd8a694e89ee,69b977b409d67fedf0302f38,0.0207,0.0207,1,55,217,137,1,fiveseven,,,,,,,,,,,,,,,,,,,,,,,,,,,,,,,,,,,,,,,,,,,,,,,,,,,,,,,,,,,,,,,,,,,,,,,,,,,,,,,,,,,,,,,,,,,,,,,,,,,,,,,,,,,,,,,,,,,,,,,,,,,,,,,,,,,,,,,,,
,,60a18093c5c040498d3addf8,2026-03-17_15h48.45.577,kallum_motion_pilot_GIST_update_2,2026.1.1,MacIntel,59.88023952,60a18093c5c040498d3addf8,69b95efdef24cd8a694e89ee,69b977b409d67fedf0302f38,0.0207,0.0207,1,56,218,38,1,fourtwo,,,,,,,,,,,,,,,,,,,,,,,,,,,,,,,,,,,,,,,,,,,,,,,,,,,,,,,,,,,,,,,,,,,,,,,,,,,,,,,,,,,,,,,,,,,,,,,,,,,,,,,,,,,,,,,,,,,,,,,,,,,,,,,,,,,,,,,,,
,,60a18093c5c040498d3addf8,2026-03-17_15h48.45.577,kallum_motion_pilot_GIST_update_2,2026.1.1,MacIntel,59.88023952,60a18093c5c040498d3addf8,69b95efdef24cd8a694e89ee,69b977b409d67fedf0302f38,0.0208,0.0208,1,57,219,91,1,sixeight,,,,,,,,,,,,,,,,,,,,,,,,,,,,,,,,,,,,,,,,,,,,,,,,,,,,,,,,,,,,,,,,,,,,,,,,,,,,,,,,,,,,,,,,,,,,,,,,,,,,,,,,,,,,,,,,,,,,,,,,,,,,,,,,,,,,,,,,,
,,60a18093c5c040498d3addf8,2026-03-17_15h48.45.577,kallum_motion_pilot_GIST_update_2,2026.1.1,MacIntel,59.88023952,60a18093c5c040498d3addf8,69b95efdef24cd8a694e89ee,69b977b409d67fedf0302f38,0.0208,0.0208,1,58,220,3,1,twofour,,,,,,,,,,,,,,,,,,,,,,,,,,,,,,,,,,,,,,,,,,,,,,,,,,,,,,,,,,,,,,,,,,,,,,,,,,,,,,,,,,,,,,,,,,,,,,,,,,,,,,,,,,,,,,,,,,,,,,,,,,,,,,,,,,,,,,,,,
,,60a18093c5c040498d3addf8,2026-03-17_15h48.45.577,kallum_motion_pilot_GIST_update_2,2026.1.1,MacIntel,59.88023952,60a18093c5c040498d3addf8,69b95efdef24cd8a694e89ee,69b977b409d67fedf0302f38,0.0209,0.0209,1,59,221,146,1,sixfive,,,,,,,,,,,,,,,,,,,,,,,,,,,,,,,,,,,,,,,,,,,,,,,,,,,,,,,,,,,,,,,,,,,,,,,,,,,,,,,,,,,,,,,,,,,,,,,,,,,,,,,,,,,,,,,,,,,,,,,,,,,,,,,,,,,,,,,,,
,,60a18093c5c040498d3addf8,2026-03-17_15h48.45.577,kallum_motion_pilot_GIST_update_2,2026.1.1,MacIntel,59.88023952,60a18093c5c040498d3addf8,69b95efdef24cd8a694e89ee,69b977b409d67fedf0302f38,0.0209,0.0209,1,60,222,149,1,seveneight,,,,,,,,,,,,,,,,,,,,,,,,,,,,,,,,,,,,,,,,,,,,,,,,,,,,,,,,,,,,,,,,,,,,,,,,,,,,,,,,,,,,,,,,,,,,,,,,,,,,,,,,,,,,,,,,,,,,,,,,,,,,,,,,,,,,,,,,,
,,60a18093c5c040498d3addf8,2026-03-17_15h48.45.577,kallum_motion_pilot_GIST_update_2,2026.1.1,MacIntel,59.88023952,60a18093c5c040498d3addf8,69b95efdef24cd8a694e89ee,69b977b409d67fedf0302f38,0.0209,0.0209,1,61,223,82,1,sixfive,,,,,,,,,,,,,,,,,,,,,,,,,,,,,,,,,,,,,,,,,,,,,,,,,,,,,,,,,,,,,,,,,,,,,,,,,,,,,,,,,,,,,,,,,,,,,,,,,,,,,,,,,,,,,,,,,,,,,,,,,,,,,,,,,,,,,,,,,
,,60a18093c5c040498d3addf8,2026-03-17_15h48.45.577,kallum_motion_pilot_GIST_update_2,2026.1.1,MacIntel,59.88023952,60a18093c5c040498d3addf8,69b95efdef24cd8a694e89ee,69b977b409d67fedf0302f38,0.021,0.021,1,62,224,47,1,fourthree,,,,,,,,,,,,,,,,,,,,,,,,,,,,,,,,,,,,,,,,,,,,,,,,,,,,,,,,,,,,,,,,,,,,,,,,,,,,,,,,,,,,,,,,,,,,,,,,,,,,,,,,,,,,,,,,,,,,,,,,,,,,,,,,,,,,,,,,,
,,60a18093c5c040498d3addf8,2026-03-17_15h48.45.577,kallum_motion_pilot_GIST_update_2,2026.1.1,MacIntel,59.88023952,60a18093c5c040498d3addf8,69b95efdef24cd8a694e89ee,69b977b409d67fedf0302f38,0.0211,0.0211,1,63,225,108,1,sevenfive,,,,,,,,,,,,,,,,,,,,,,,,,,,,,,,,,,,,,,,,,,,,,,,,,,,,,,,,,,,,,,,,,,,,,,,,,,,,,,,,,,,,,,,,,,,,,,,,,,,,,,,,,,,,,,,,,,,,,,,,,,,,,,,,,,,,,,,,,
,,60a18093c5c040498d3addf8,2026-03-17_15h48.45.577,kallum_motion_pilot_GIST_update_2,2026.1.1,MacIntel,59.88023952,60a18093c5c040498d3addf8,69b95efdef24cd8a694e89ee,69b977b409d67fedf0302f38,0.0211,0.0211,1,64,226,104,1,fivesix,,,,,,,,,,,,,,,,,,,,,,,,,,,,,,,,,,,,,,,,,,,,,,,,,,,,,,,,,,,,,,,,,,,,,,,,,,,,,,,,,,,,,,,,,,,,,,,,,,,,,,,,,,,,,,,,,,,,,,,,,,,,,,,,,,,,,,,,,
,,60a18093c5c040498d3addf8,2026-03-17_15h48.45.577,kallum_motion_pilot_GIST_update_2,2026.1.1,MacIntel,59.88023952,60a18093c5c040498d3addf8,69b95efdef24cd8a694e89ee,69b977b409d67fedf0302f38,0.0211,0.0211,1,65,227,125,1,seveneight,,,,,,,,,,,,,,,,,,,,,,,,,,,,,,,,,,,,,,,,,,,,,,,,,,,,,,,,,,,,,,,,,,,,,,,,,,,,,,,,,,,,,,,,,,,,,,,,,,,,,,,,,,,,,,,,,,,,,,,,,,,,,,,,,,,,,,,,,
,,60a18093c5c040498d3addf8,2026-03-17_15h48.45.577,kallum_motion_pilot_GIST_update_2,2026.1.1,MacIntel,59.88023952,60a18093c5c040498d3addf8,69b95efdef24cd8a694e89ee,69b977b409d67fedf0302f38,0.0212,0.0212,1,66,228,69,1,threefour,,,,,,,,,,,,,,,,,,,,,,,,,,,,,,,,,,,,,,,,,,,,,,,,,,,,,,,,,,,,,,,,,,,,,,,,,,,,,,,,,,,,,,,,,,,,,,,,,,,,,,,,,,,,,,,,,,,,,,,,,,,,,,,,,,,,,,,,,
,,60a18093c5c040498d3addf8,2026-03-17_15h48.45.577,kallum_motion_pilot_GIST_update_2,2026.1.1,MacIntel,59.88023952,60a18093c5c040498d3addf8,69b95efdef24cd8a694e89ee,69b977b409d67fedf0302f38,0.0213,0.0213,1,67,229,77,1,threefour,,,,,,,,,,,,,,,,,,,,,,,,,,,,,,,,,,,,,,,,,,,,,,,,,,,,,,,,,,,,,,,,,,,,,,,,,,,,,,,,,,,,,,,,,,,,,,,,,,,,,,,,,,,,,,,,,,,,,,,,,,,,,,,,,,,,,,,,,
,,60a18093c5c040498d3addf8,2026-03-17_15h48.45.577,kallum_motion_pilot_GIST_update_2,2026.1.1,MacIntel,59.88023952,60a18093c5c040498d3addf8,69b95efdef24cd8a694e89ee,69b977b409d67fedf0302f38,0.0213,0.0213,1,68,230,135,1,eightseven,,,,,,,,,,,,,,,,,,,,,,,,,,,,,,,,,,,,,,,,,,,,,,,,,,,,,,,,,,,,,,,,,,,,,,,,,,,,,,,,,,,,,,,,,,,,,,,,,,,,,,,,,,,,,,,,,,,,,,,,,,,,,,,,,,,,,,,,,
,,60a18093c5c040498d3addf8,2026-03-17_15h48.45.577,kallum_motion_pilot_GIST_update_2,2026.1.1,MacIntel,59.88023952,60a18093c5c040498d3addf8,69b95efdef24cd8a694e89ee,69b977b409d67fedf0302f38,0.0213,0.0213,1,69,231,16,1,onetwo,,,,,,,,,,,,,,,,,,,,,,,,,,,,,,,,,,,,,,,,,,,,,,,,,,,,,,,,,,,,,,,,,,,,,,,,,,,,,,,,,,,,,,,,,,,,,,,,,,,,,,,,,,,,,,,,,,,,,,,,,,,,,,,,,,,,,,,,,
,,60a18093c5c040498d3addf8,2026-03-17_15h48.45.577,kallum_motion_pilot_GIST_update_2,2026.1.1,MacIntel,59.88023952,60a18093c5c040498d3addf8,69b95efdef24cd8a694e89ee,69b977b409d67fedf0302f38,0.0214,0.0214,1,70,232,32,1,onetwo,,,,,,,,,,,,,,,,,,,,,,,,,,,,,,,,,,,,,,,,,,,,,,,,,,,,,,,,,,,,,,,,,,,,,,,,,,,,,,,,,,,,,,,,,,,,,,,,,,,,,,,,,,,,,,,,,,,,,,,,,,,,,,,,,,,,,,,,,
,,60a18093c5c040498d3addf8,2026-03-17_15h48.45.577,kallum_motion_pilot_GIST_update_2,2026.1.1,MacIntel,59.88023952,60a18093c5c040498d3addf8,69b95efdef24cd8a694e89ee,69b977b409d67fedf0302f38,0.0215,0.0215,1,71,233,42,1,twoone,,,,,,,,,,,,,,,,,,,,,,,,,,,,,,,,,,,,,,,,,,,,,,,,,,,,,,,,,,,,,,,,,,,,,,,,,,,,,,,,,,,,,,,,,,,,,,,,,,,,,,,,,,,,,,,,,,,,,,,,,,,,,,,,,,,,,,,,,
,,60a18093c5c040498d3addf8,2026-03-17_15h48.45.577,kallum_motion_pilot_GIST_update_2,2026.1.1,MacIntel,59.88023952,60a18093c5c040498d3addf8,69b95efdef24cd8a694e89ee,69b977b409d67fedf0302f38,0.0215,0.0215,1,72,234,160,1,fivesix,,,,,,,,,,,,,,,,,,,,,,,,,,,,,,,,,,,,,,,,,,,,,,,,,,,,,,,,,,,,,,,,,,,,,,,,,,,,,,,,,,,,,,,,,,,,,,,,,,,,,,,,,,,,,,,,,,,,,,,,,,,,,,,,,,,,,,,,,
,,60a18093c5c040498d3addf8,2026-03-17_15h48.45.577,kallum_motion_pilot_GIST_update_2,2026.1.1,MacIntel,59.88023952,60a18093c5c040498d3addf8,69b95efdef24cd8a694e89ee,69b977b409d67fedf0302f38,0.0215,0.0215,1,73,235,159,1,eightseven,,,,,,,,,,,,,,,,,,,,,,,,,,,,,,,,,,,,,,,,,,,,,,,,,,,,,,,,,,,,,,,,,,,,,,,,,,,,,,,,,,,,,,,,,,,,,,,,,,,,,,,,,,,,,,,,,,,,,,,,,,,,,,,,,,,,,,,,,
,,60a18093c5c040498d3addf8,2026-03-17_15h48.45.577,kallum_motion_pilot_GIST_update_2,2026.1.1,MacIntel,59.88023952,60a18093c5c040498d3addf8,69b95efdef24cd8a694e89ee,69b977b409d67fedf0302f38,0.0217,0.0217,1,74,236,103,1,eightseven,,,,,,,,,,,,,,,,,,,,,,,,,,,,,,,,,,,,,,,,,,,,,,,,,,,,,,,,,,,,,,,,,,,,,,,,,,,,,,,,,,,,,,,,,,,,,,,,,,,,,,,,,,,,,,,,,,,,,,,,,,,,,,,,,,,,,,,,,
,,60a18093c5c040498d3addf8,2026-03-17_15h48.45.577,kallum_motion_pilot_GIST_update_2,2026.1.1,MacIntel,59.88023952,60a18093c5c040498d3addf8,69b95efdef24cd8a694e89ee,69b977b409d67fedf0302f38,0.0217,0.0217,1,75,237,60,1,threeone,,,,,,,,,,,,,,,,,,,,,,,,,,,,,,,,,,,,,,,,,,,,,,,,,,,,,,,,,,,,,,,,,,,,,,,,,,,,,,,,,,,,,,,,,,,,,,,,,,,,,,,,,,,,,,,,,,,,,,,,,,,,,,,,,,,,,,,,,
,,60a18093c5c040498d3addf8,2026-03-17_15h48.45.577,kallum_motion_pilot_GIST_update_2,2026.1.1,MacIntel,59.88023952,60a18093c5c040498d3addf8,69b95efdef24cd8a694e89ee,69b977b409d67fedf0302f38,0.0217,0.0217,1,76,238,95,1,eightseven,,,,,,,,,,,,,,,,,,,,,,,,,,,,,,,,,,,,,,,,,,,,,,,,,,,,,,,,,,,,,,,,,,,,,,,,,,,,,,,,,,,,,,,,,,,,,,,,,,,,,,,,,,,,,,,,,,,,,,,,,,,,,,,,,,,,,,,,,
,,60a18093c5c040498d3addf8,2026-03-17_15h48.45.577,kallum_motion_pilot_GIST_update_2,2026.1.1,MacIntel,59.88023952,60a18093c5c040498d3addf8,69b95efdef24cd8a694e89ee,69b977b409d67fedf0302f38,0.0218,0.0218,1,77,239,39,1,fourthree,,,,,,,,,,,,,,,,,,,,,,,,,,,,,,,,,,,,,,,,,,,,,,,,,,,,,,,,,,,,,,,,,,,,,,,,,,,,,,,,,,,,,,,,,,,,,,,,,,,,,,,,,,,,,,,,,,,,,,,,,,,,,,,,,,,,,,,,,
,,60a18093c5c040498d3addf8,2026-03-17_15h48.45.577,kallum_motion_pilot_GIST_update_2,2026.1.1,MacIntel,59.88023952,60a18093c5c040498d3addf8,69b95efdef24cd8a694e89ee,69b977b409d67fedf0302f38,0.0218,0.0218,1,78,240,105,1,fiveseven,,,,,,,,,,,,,,,,,,,,,,,,,,,,,,,,,,,,,,,,,,,,,,,,,,,,,,,,,,,,,,,,,,,,,,,,,,,,,,,,,,,,,,,,,,,,,,,,,,,,,,,,,,,,,,,,,,,,,,,,,,,,,,,,,,,,,,,,,
,,60a18093c5c040498d3addf8,2026-03-17_15h48.45.577,kallum_motion_pilot_GIST_update_2,2026.1.1,MacIntel,59.88023952,60a18093c5c040498d3addf8,69b95efdef24cd8a694e89ee,69b977b409d67fedf0302f38,0.0219,0.0219,1,79,241,63,1,fourthree,,,,,,,,,,,,,,,,,,,,,,,,,,,,,,,,,,,,,,,,,,,,,,,,,,,,,,,,,,,,,,,,,,,,,,,,,,,,,,,,,,,,,,,,,,,,,,,,,,,,,,,,,,,,,,,,,,,,,,,,,,,,,,,,,,,,,,,,,
,,60a18093c5c040498d3addf8,2026-03-17_15h48.45.577,kallum_motion_pilot_GIST_update_2,2026.1.1,MacIntel,59.88023952,60a18093c5c040498d3addf8,69b95efdef24cd8a694e89ee,69b977b409d67fedf0302f38,0.0219,0.0219,1,80,242,34,1,twoone,,,,,,,,,,,,,,,,,,,,,,,,,,,,,,,,,,,,,,,,,,,,,,,,,,,,,,,,,,,,,,,,,,,,,,,,,,,,,,,,,,,,,,,,,,,,,,,,,,,,,,,,,,,,,,,,,,,,,,,,,,,,,,,,,,,,,,,,,
,,60a18093c5c040498d3addf8,2026-03-17_15h48.45.577,kallum_motion_pilot_GIST_update_2,2026.1.1,MacIntel,59.88023952,60a18093c5c040498d3addf8,69b95efdef24cd8a694e89ee,69b977b409d67fedf0302f38,0.022,0.022,1,81,243,156,1,sevenfive,,,,,,,,,,,,,,,,,,,,,,,,,,,,,,,,,,,,,,,,,,,,,,,,,,,,,,,,,,,,,,,,,,,,,,,,,,,,,,,,,,,,,,,,,,,,,,,,,,,,,,,,,,,,,,,,,,,,,,,,,,,,,,,,,,,,,,,,,
,,60a18093c5c040498d3addf8,2026-03-17_15h48.45.577,kallum_motion_pilot_GIST_update_2,2026.1.1,MacIntel,59.88023952,60a18093c5c040498d3addf8,69b95efdef24cd8a694e89ee,69b977b409d67fedf0302f38,0.022,0.022,1,82,244,92,1,sevenfive,,,,,,,,,,,,,,,,,,,,,,,,,,,,,,,,,,,,,,,,,,,,,,,,,,,,,,,,,,,,,,,,,,,,,,,,,,,,,,,,,,,,,,,,,,,,,,,,,,,,,,,,,,,,,,,,,,,,,,,,,,,,,,,,,,,,,,,,,
,,60a18093c5c040498d3addf8,2026-03-17_15h48.45.577,kallum_motion_pilot_GIST_update_2,2026.1.1,MacIntel,59.88023952,60a18093c5c040498d3addf8,69b95efdef24cd8a694e89ee,69b977b409d67fedf0302f38,0.0221,0.0221,1,83,245,74,1,twoone,,,,,,,,,,,,,,,,,,,,,,,,,,,,,,,,,,,,,,,,,,,,,,,,,,,,,,,,,,,,,,,,,,,,,,,,,,,,,,,,,,,,,,,,,,,,,,,,,,,,,,,,,,,,,,,,,,,,,,,,,,,,,,,,,,,,,,,,,
,,60a18093c5c040498d3addf8,2026-03-17_15h48.45.577,kallum_motion_pilot_GIST_update_2,2026.1.1,MacIntel,59.88023952,60a18093c5c040498d3addf8,69b95efdef24cd8a694e89ee,69b977b409d67fedf0302f38,0.0221,0.0221,1,84,246,140,1,sevenfive,,,,,,,,,,,,,,,,,,,,,,,,,,,,,,,,,,,,,,,,,,,,,,,,,,,,,,,,,,,,,,,,,,,,,,,,,,,,,,,,,,,,,,,,,,,,,,,,,,,,,,,,,,,,,,,,,,,,,,,,,,,,,,,,,,,,,,,,,
,,60a18093c5c040498d3addf8,2026-03-17_15h48.45.577,kallum_motion_pilot_GIST_update_2,2026.1.1,MacIntel,59.88023952,60a18093c5c040498d3addf8,69b95efdef24cd8a694e89ee,69b977b409d67fedf0302f38,0.0222,0.0222,1,85,247,30,1,fourtwo,,,,,,,,,,,,,,,,,,,,,,,,,,,,,,,,,,,,,,,,,,,,,,,,,,,,,,,,,,,,,,,,,,,,,,,,,,,,,,,,,,,,,,,,,,,,,,,,,,,,,,,,,,,,,,,,,,,,,,,,,,,,,,,,,,,,,,,,,
,,60a18093c5c040498d3addf8,2026-03-17_15h48.45.577,kallum_motion_pilot_GIST_update_2,2026.1.1,MacIntel,59.88023952,60a18093c5c040498d3addf8,69b95efdef24cd8a694e89ee,69b977b409d67fedf0302f38,0.0222,0.0222,1,86,248,11,1,twofour,,,,,,,,,,,,,,,,,,,,,,,,,,,,,,,,,,,,,,,,,,,,,,,,,,,,,,,,,,,,,,,,,,,,,,,,,,,,,,,,,,,,,,,,,,,,,,,,,,,,,,,,,,,,,,,,,,,,,,,,,,,,,,,,,,,,,,,,,
,,60a18093c5c040498d3addf8,2026-03-17_15h48.45.577,kallum_motion_pilot_GIST_update_2,2026.1.1,MacIntel,59.88023952,60a18093c5c040498d3addf8,69b95efdef24cd8a694e89ee,69b977b409d67fedf0302f38,0.0223,0.0223,1,87,249,80,1,fivesix,,,,,,,,,,,,,,,,,,,,,,,,,,,,,,,,,,,,,,,,,,,,,,,,,,,,,,,,,,,,,,,,,,,,,,,,,,,,,,,,,,,,,,,,,,,,,,,,,,,,,,,,,,,,,,,,,,,,,,,,,,,,,,,,,,,,,,,,,
,,60a18093c5c040498d3addf8,2026-03-17_15h48.45.577,kallum_motion_pilot_GIST_update_2,2026.1.1,MacIntel,59.88023952,60a18093c5c040498d3addf8,69b95efdef24cd8a694e89ee,69b977b409d67fedf0302f38,0.0224,0.0224,1,88,250,44,1,threeone,,,,,,,,,,,,,,,,,,,,,,,,,,,,,,,,,,,,,,,,,,,,,,,,,,,,,,,,,,,,,,,,,,,,,,,,,,,,,,,,,,,,,,,,,,,,,,,,,,,,,,,,,,,,,,,,,,,,,,,,,,,,,,,,,,,,,,,,,
,,60a18093c5c040498d3addf8,2026-03-17_15h48.45.577,kallum_motion_pilot_GIST_update_2,2026.1.1,MacIntel,59.88023952,60a18093c5c040498d3addf8,69b95efdef24cd8a694e89ee,69b977b409d67fedf0302f38,0.0225,0.0225,1,89,251,154,1,sixfive,,,,,,,,,,,,,,,,,,,,,,,,,,,,,,,,,,,,,,,,,,,,,,,,,,,,,,,,,,,,,,,,,,,,,,,,,,,,,,,,,,,,,,,,,,,,,,,,,,,,,,,,,,,,,,,,,,,,,,,,,,,,,,,,,,,,,,,,,
,,60a18093c5c040498d3addf8,2026-03-17_15h48.45.577,kallum_motion_pilot_GIST_update_2,2026.1.1,MacIntel,59.88023952,60a18093c5c040498d3addf8,69b95efdef24cd8a694e89ee,69b977b409d67fedf0302f38,0.0225,0.0225,1,90,252,129,1,fiveseven,,,,,,,,,,,,,,,,,,,,,,,,,,,,,,,,,,,,,,,,,,,,,,,,,,,,,,,,,,,,,,,,,,,,,,,,,,,,,,,,,,,,,,,,,,,,,,,,,,,,,,,,,,,,,,,,,,,,,,,,,,,,,,,,,,,,,,,,,
,,60a18093c5c040498d3addf8,2026-03-17_15h48.45.577,kallum_motion_pilot_GIST_update_2,2026.1.1,MacIntel,59.88023952,60a18093c5c040498d3addf8,69b95efdef24cd8a694e89ee,69b977b409d67fedf0302f38,0.0226,0.0226,1,91,253,46,1,fourtwo,,,,,,,,,,,,,,,,,,,,,,,,,,,,,,,,,,,,,,,,,,,,,,,,,,,,,,,,,,,,,,,,,,,,,,,,,,,,,,,,,,,,,,,,,,,,,,,,,,,,,,,,,,,,,,,,,,,,,,,,,,,,,,,,,,,,,,,,,
,,60a18093c5c040498d3addf8,2026-03-17_15h48.45.577,kallum_motion_pilot_GIST_update_2,2026.1.1,MacIntel,59.88023952,60a18093c5c040498d3addf8,69b95efdef24cd8a694e89ee,69b977b409d67fedf0302f38,0.0226,0.0226,1,92,254,158,1,eightsix,,,,,,,,,,,,,,,,,,,,,,,,,,,,,,,,,,,,,,,,,,,,,,,,,,,,,,,,,,,,,,,,,,,,,,,,,,,,,,,,,,,,,,,,,,,,,,,,,,,,,,,,,,,,,,,,,,,,,,,,,,,,,,,,,,,,,,,,,
,,60a18093c5c040498d3addf8,2026-03-17_15h48.45.577,kallum_motion_pilot_GIST_update_2,2026.1.1,MacIntel,59.88023952,60a18093c5c040498d3addf8,69b95efdef24cd8a694e89ee,69b977b409d67fedf0302f38,0.0226,0.0226,1,93,255,72,1,onetwo,,,,,,,,,,,,,,,,,,,,,,,,,,,,,,,,,,,,,,,,,,,,,,,,,,,,,,,,,,,,,,,,,,,,,,,,,,,,,,,,,,,,,,,,,,,,,,,,,,,,,,,,,,,,,,,,,,,,,,,,,,,,,,,,,,,,,,,,,
,,60a18093c5c040498d3addf8,2026-03-17_15h48.45.577,kallum_motion_pilot_GIST_update_2,2026.1.1,MacIntel,59.88023952,60a18093c5c040498d3addf8,69b95efdef24cd8a694e89ee,69b977b409d67fedf0302f38,0.0228,0.0228,1,94,256,123,1,sixeight,,,,,,,,,,,,,,,,,,,,,,,,,,,,,,,,,,,,,,,,,,,,,,,,,,,,,,,,,,,,,,,,,,,,,,,,,,,,,,,,,,,,,,,,,,,,,,,,,,,,,,,,,,,,,,,,,,,,,,,,,,,,,,,,,,,,,,,,,
,,60a18093c5c040498d3addf8,2026-03-17_15h48.45.577,kallum_motion_pilot_GIST_update_2,2026.1.1,MacIntel,59.88023952,60a18093c5c040498d3addf8,69b95efdef24cd8a694e89ee,69b977b409d67fedf0302f38,0.0228,0.0228,1,95,257,124,1,sevenfive,,,,,,,,,,,,,,,,,,,,,,,,,,,,,,,,,,,,,,,,,,,,,,,,,,,,,,,,,,,,,,,,,,,,,,,,,,,,,,,,,,,,,,,,,,,,,,,,,,,,,,,,,,,,,,,,,,,,,,,,,,,,,,,,,,,,,,,,,
,,60a18093c5c040498d3addf8,2026-03-17_15h48.45.577,kallum_motion_pilot_GIST_update_2,2026.1.1,MacIntel,59.88023952,60a18093c5c040498d3addf8,69b95efdef24cd8a694e89ee,69b977b409d67fedf0302f38,0.0228,0.0228,1,96,258,62,1,fourtwo,,,,,,,,,,,,,,,,,,,,,,,,,,,,,,,,,,,,,,,,,,,,,,,,,,,,,,,,,,,,,,,,,,,,,,,,,,,,,,,,,,,,,,,,,,,,,,,,,,,,,,,,,,,,,,,,,,,,,,,,,,,,,,,,,,,,,,,,,
,,60a18093c5c040498d3addf8,2026-03-17_15h48.45.577,kallum_motion_pilot_GIST_update_2,2026.1.1,MacIntel,59.88023952,60a18093c5c040498d3addf8,69b95efdef24cd8a694e89ee,69b977b409d67fedf0302f38,0.0228,0.0228,1,97,259,35,1,twofour,,,,,,,,,,,,,,,,,,,,,,,,,,,,,,,,,,,,,,,,,,,,,,,,,,,,,,,,,,,,,,,,,,,,,,,,,,,,,,,,,,,,,,,,,,,,,,,,,,,,,,,,,,,,,,,,,,,,,,,,,,,,,,,,,,,,,,,,,
,,60a18093c5c040498d3addf8,2026-03-17_15h48.45.577,kallum_motion_pilot_GIST_update_2,2026.1.1,MacIntel,59.88023952,60a18093c5c040498d3addf8,69b95efdef24cd8a694e89ee,69b977b409d67fedf0302f38,0.023,0.023,1,98,260,87,1,eightseven,,,,,,,,,,,,,,,,,,,,,,,,,,,,,,,,,,,,,,,,,,,,,,,,,,,,,,,,,,,,,,,,,,,,,,,,,,,,,,,,,,,,,,,,,,,,,,,,,,,,,,,,,,,,,,,,,,,,,,,,,,,,,,,,,,,,,,,,,
,,60a18093c5c040498d3addf8,2026-03-17_15h48.45.577,kallum_motion_pilot_GIST_update_2,2026.1.1,MacIntel,59.88023952,60a18093c5c040498d3addf8,69b95efdef24cd8a694e89ee,69b977b409d67fedf0302f38,0.023,0.023,1,99,261,51,1,twofour,,,,,,,,,,,,,,,,,,,,,,,,,,,,,,,,,,,,,,,,,,,,,,,,,,,,,,,,,,,,,,,,,,,,,,,,,,,,,,,,,,,,,,,,,,,,,,,,,,,,,,,,,,,,,,,,,,,,,,,,,,,,,,,,,,,,,,,,,
,,60a18093c5c040498d3addf8,2026-03-17_15h48.45.577,kallum_motion_pilot_GIST_update_2,2026.1.1,MacIntel,59.88023952,60a18093c5c040498d3addf8,69b95efdef24cd8a694e89ee,69b977b409d67fedf0302f38,0.023,0.023,1,100,262,134,1,eightsix,,,,,,,,,,,,,,,,,,,,,,,,,,,,,,,,,,,,,,,,,,,,,,,,,,,,,,,,,,,,,,,,,,,,,,,,,,,,,,,,,,,,,,,,,,,,,,,,,,,,,,,,,,,,,,,,,,,,,,,,,,,,,,,,,,,,,,,,,
,,60a18093c5c040498d3addf8,2026-03-17_15h48.45.577,kallum_motion_pilot_GIST_update_2,2026.1.1,MacIntel,59.88023952,60a18093c5c040498d3addf8,69b95efdef24cd8a694e89ee,69b977b409d67fedf0302f38,0.0231,0.0231,1,101,263,120,1,fivesix,,,,,,,,,,,,,,,,,,,,,,,,,,,,,,,,,,,,,,,,,,,,,,,,,,,,,,,,,,,,,,,,,,,,,,,,,,,,,,,,,,,,,,,,,,,,,,,,,,,,,,,,,,,,,,,,,,,,,,,,,,,,,,,,,,,,,,,,,
