startup.started,startup.stopped,Prolific ID*,date,expName,psychopyVersion,OS,frameRate,participant,study_id,session,stimpositions.started,stimpositions.stopped,hardcoded_stimulus_positions.thisRepN,hardcoded_stimulus_positions.thisTrialN,hardcoded_stimulus_positions.thisN,hardcoded_stimulus_positions.thisIndex,hardcoded_stimulus_positions.ran,StimulusPos,stimorientation.started,stimorientation.stopped,prac_stimorientation_import_loop.thisRepN,prac_stimorientation_import_loop.thisTrialN,prac_stimorientation_import_loop.thisN,prac_stimorientation_import_loop.thisIndex,prac_stimorientation_import_loop.ran,Stimorientation,welcome_instr.started,welcome_instr.stopped,key_resp.keys,key_resp.rt,key_resp.duration,response_steppedout_1.started,response_steppedout_1.stopped,key_resp_20.keys,key_resp_20.rt,key_resp_20.duration,response_steppedout_2.started,response_steppedout_2.stopped,key_resp_19.keys,key_resp_19.rt,key_resp_19.duration,stim_response_instr.started,stim_response_instr.stopped,key_resp_15.keys,key_resp_15.rt,key_resp_15.duration,direction_instr_2.started,direction_instr_2.stopped,key_resp_9.keys,key_resp_9.rt,key_resp_9.duration,instr_prac.started,instr_prac.stopped,key_resp_10.keys,key_resp_10.rt,key_resp_10.duration,Stim1_display_prac.started,Stim1_display_prac.stopped,Ecc,Circle1_ori,Circle2_ori,response_prac.started,similarity,response_time,response_prac.stopped,mouse_5.x,mouse_5.y,mouse_5.leftButton,mouse_5.midButton,mouse_5.rightButton,mouse_5.clicked_name,responseprac_feedback.started,responseprac_feedback.stopped,summary2_prac.started,summary2_prac.stopped,mouse_6.x,mouse_6.y,mouse_6.leftButton,mouse_6.midButton,mouse_6.rightButton,mouse_6.clicked_name,duringprac.thisRepN,duringprac.thisTrialN,duringprac.thisN,duringprac.thisIndex,duringprac.ran,begin.started,begin.stopped,key_resp_22.keys,key_resp_22.rt,key_resp_22.duration,Stim1_display.started,Stim1_display.stopped,circle1_ori,circle2_ori,circle1_SF,circle2_SF,response.started,response.stopped,mouse.x,mouse.y,mouse.leftButton,mouse.midButton,mouse.rightButton,mouse.clicked_name,trialnumber,double_pass.thisRepN,double_pass.thisTrialN,double_pass.thisN,double_pass.thisIndex,double_pass.ran,double_pass.order,main_trial.thisRepN,main_trial.thisTrialN,main_trial.thisN,main_trial.thisIndex,main_trial.ran,main_trial.order,Trial_Counter,Catch,Frequencies,response_2.started,response_2.stopped,mouse_2.x,mouse_2.y,mouse_2.leftButton,mouse_2.midButton,mouse_2.rightButton,mouse_2.clicked_name,special_trial.started,special_trial.stopped,catch_1.started,catch_1.stopped,mouse_3.x,mouse_3.y,mouse_3.leftButton,mouse_3.midButton,mouse_3.rightButton,catchresponse,catchnumber,response_time_catch,response_sum.started,response_sum.stopped,mouse_11.x,mouse_11.y,mouse_11.leftButton,mouse_11.midButton,mouse_11.rightButton,flip_presentation_sequence_for_double_pass.started,flip_presentation_sequence_for_double_pass.stopped,goodbye.started,goodbye.stopped,key_resp_3.keys,key_resp_3.rt,key_resp_3.duration
0.0001,0.0002,60b8b31eb3143c92b950deba,2026-03-17_10h34.43.039,kallum_motion_pilot_GIST_update_2,2026.1.1,Win32,59.88023952,60b8b31eb3143c92b950deba,69b92ab4aef6dee357cd729a,69b92e2bcff8c33e1afc2614,,,,,,,,,,,,,,,,,,,,,,,,,,,,,,,,,,,,,,,,,,,,,,,,,,,,,,,,,,,,,,,,,,,,,,,,,,,,,,,,,,,,,,,,,,,,,,,,,,,,,,,,,,,,,,,,,,,,,,,,,,,,,,,,,,,,,,,,,,,,,,,,,
,,60b8b31eb3143c92b950deba,2026-03-17_10h34.43.039,kallum_motion_pilot_GIST_update_2,2026.1.1,Win32,59.88023952,60b8b31eb3143c92b950deba,69b92ab4aef6dee357cd729a,69b92e2bcff8c33e1afc2614,0.0128,0.0128,0,0,0,78,1,fourtwo,,,,,,,,,,,,,,,,,,,,,,,,,,,,,,,,,,,,,,,,,,,,,,,,,,,,,,,,,,,,,,,,,,,,,,,,,,,,,,,,,,,,,,,,,,,,,,,,,,,,,,,,,,,,,,,,,,,,,,,,,,,,,,,,,,,,,,,,,
,,60b8b31eb3143c92b950deba,2026-03-17_10h34.43.039,kallum_motion_pilot_GIST_update_2,2026.1.1,Win32,59.88023952,60b8b31eb3143c92b950deba,69b92ab4aef6dee357cd729a,69b92e2bcff8c33e1afc2614,0.013,0.013,0,1,1,4,1,threeone,,,,,,,,,,,,,,,,,,,,,,,,,,,,,,,,,,,,,,,,,,,,,,,,,,,,,,,,,,,,,,,,,,,,,,,,,,,,,,,,,,,,,,,,,,,,,,,,,,,,,,,,,,,,,,,,,,,,,,,,,,,,,,,,,,,,,,,,,
,,60b8b31eb3143c92b950deba,2026-03-17_10h34.43.039,kallum_motion_pilot_GIST_update_2,2026.1.1,Win32,59.88023952,60b8b31eb3143c92b950deba,69b92ab4aef6dee357cd729a,69b92e2bcff8c33e1afc2614,0.0131,0.0131,0,2,2,45,1,threefour,,,,,,,,,,,,,,,,,,,,,,,,,,,,,,,,,,,,,,,,,,,,,,,,,,,,,,,,,,,,,,,,,,,,,,,,,,,,,,,,,,,,,,,,,,,,,,,,,,,,,,,,,,,,,,,,,,,,,,,,,,,,,,,,,,,,,,,,,
,,60b8b31eb3143c92b950deba,2026-03-17_10h34.43.039,kallum_motion_pilot_GIST_update_2,2026.1.1,Win32,59.88023952,60b8b31eb3143c92b950deba,69b92ab4aef6dee357cd729a,69b92e2bcff8c33e1afc2614,0.0131,0.0131,0,3,3,126,1,eightsix,,,,,,,,,,,,,,,,,,,,,,,,,,,,,,,,,,,,,,,,,,,,,,,,,,,,,,,,,,,,,,,,,,,,,,,,,,,,,,,,,,,,,,,,,,,,,,,,,,,,,,,,,,,,,,,,,,,,,,,,,,,,,,,,,,,,,,,,,
,,60b8b31eb3143c92b950deba,2026-03-17_10h34.43.039,kallum_motion_pilot_GIST_update_2,2026.1.1,Win32,59.88023952,60b8b31eb3143c92b950deba,69b92ab4aef6dee357cd729a,69b92e2bcff8c33e1afc2614,0.0132,0.0132,0,4,4,53,1,threefour,,,,,,,,,,,,,,,,,,,,,,,,,,,,,,,,,,,,,,,,,,,,,,,,,,,,,,,,,,,,,,,,,,,,,,,,,,,,,,,,,,,,,,,,,,,,,,,,,,,,,,,,,,,,,,,,,,,,,,,,,,,,,,,,,,,,,,,,,
,,60b8b31eb3143c92b950deba,2026-03-17_10h34.43.039,kallum_motion_pilot_GIST_update_2,2026.1.1,Win32,59.88023952,60b8b31eb3143c92b950deba,69b92ab4aef6dee357cd729a,69b92e2bcff8c33e1afc2614,0.0132,0.0132,0,5,5,37,1,threefour,,,,,,,,,,,,,,,,,,,,,,,,,,,,,,,,,,,,,,,,,,,,,,,,,,,,,,,,,,,,,,,,,,,,,,,,,,,,,,,,,,,,,,,,,,,,,,,,,,,,,,,,,,,,,,,,,,,,,,,,,,,,,,,,,,,,,,,,,
,,60b8b31eb3143c92b950deba,2026-03-17_10h34.43.039,kallum_motion_pilot_GIST_update_2,2026.1.1,Win32,59.88023952,60b8b31eb3143c92b950deba,69b92ab4aef6dee357cd729a,69b92e2bcff8c33e1afc2614,0.0133,0.0133,0,6,6,65,1,onethree,,,,,,,,,,,,,,,,,,,,,,,,,,,,,,,,,,,,,,,,,,,,,,,,,,,,,,,,,,,,,,,,,,,,,,,,,,,,,,,,,,,,,,,,,,,,,,,,,,,,,,,,,,,,,,,,,,,,,,,,,,,,,,,,,,,,,,,,,
,,60b8b31eb3143c92b950deba,2026-03-17_10h34.43.039,kallum_motion_pilot_GIST_update_2,2026.1.1,Win32,59.88023952,60b8b31eb3143c92b950deba,69b92ab4aef6dee357cd729a,69b92e2bcff8c33e1afc2614,0.0133,0.0133,0,7,7,97,1,fiveseven,,,,,,,,,,,,,,,,,,,,,,,,,,,,,,,,,,,,,,,,,,,,,,,,,,,,,,,,,,,,,,,,,,,,,,,,,,,,,,,,,,,,,,,,,,,,,,,,,,,,,,,,,,,,,,,,,,,,,,,,,,,,,,,,,,,,,,,,,
,,60b8b31eb3143c92b950deba,2026-03-17_10h34.43.039,kallum_motion_pilot_GIST_update_2,2026.1.1,Win32,59.88023952,60b8b31eb3143c92b950deba,69b92ab4aef6dee357cd729a,69b92e2bcff8c33e1afc2614,0.0134,0.0134,0,8,8,82,1,sixfive,,,,,,,,,,,,,,,,,,,,,,,,,,,,,,,,,,,,,,,,,,,,,,,,,,,,,,,,,,,,,,,,,,,,,,,,,,,,,,,,,,,,,,,,,,,,,,,,,,,,,,,,,,,,,,,,,,,,,,,,,,,,,,,,,,,,,,,,,
,,60b8b31eb3143c92b950deba,2026-03-17_10h34.43.039,kallum_motion_pilot_GIST_update_2,2026.1.1,Win32,59.88023952,60b8b31eb3143c92b950deba,69b92ab4aef6dee357cd729a,69b92e2bcff8c33e1afc2614,0.0134,0.0134,0,9,9,140,1,sevenfive,,,,,,,,,,,,,,,,,,,,,,,,,,,,,,,,,,,,,,,,,,,,,,,,,,,,,,,,,,,,,,,,,,,,,,,,,,,,,,,,,,,,,,,,,,,,,,,,,,,,,,,,,,,,,,,,,,,,,,,,,,,,,,,,,,,,,,,,,
,,60b8b31eb3143c92b950deba,2026-03-17_10h34.43.039,kallum_motion_pilot_GIST_update_2,2026.1.1,Win32,59.88023952,60b8b31eb3143c92b950deba,69b92ab4aef6dee357cd729a,69b92e2bcff8c33e1afc2614,0.0135,0.0135,0,10,10,31,1,fourthree,,,,,,,,,,,,,,,,,,,,,,,,,,,,,,,,,,,,,,,,,,,,,,,,,,,,,,,,,,,,,,,,,,,,,,,,,,,,,,,,,,,,,,,,,,,,,,,,,,,,,,,,,,,,,,,,,,,,,,,,,,,,,,,,,,,,,,,,,
,,60b8b31eb3143c92b950deba,2026-03-17_10h34.43.039,kallum_motion_pilot_GIST_update_2,2026.1.1,Win32,59.88023952,60b8b31eb3143c92b950deba,69b92ab4aef6dee357cd729a,69b92e2bcff8c33e1afc2614,0.0136,0.0136,0,11,11,50,1,twoone,,,,,,,,,,,,,,,,,,,,,,,,,,,,,,,,,,,,,,,,,,,,,,,,,,,,,,,,,,,,,,,,,,,,,,,,,,,,,,,,,,,,,,,,,,,,,,,,,,,,,,,,,,,,,,,,,,,,,,,,,,,,,,,,,,,,,,,,,
,,60b8b31eb3143c92b950deba,2026-03-17_10h34.43.039,kallum_motion_pilot_GIST_update_2,2026.1.1,Win32,59.88023952,60b8b31eb3143c92b950deba,69b92ab4aef6dee357cd729a,69b92e2bcff8c33e1afc2614,0.0136,0.0136,0,12,12,41,1,onethree,,,,,,,,,,,,,,,,,,,,,,,,,,,,,,,,,,,,,,,,,,,,,,,,,,,,,,,,,,,,,,,,,,,,,,,,,,,,,,,,,,,,,,,,,,,,,,,,,,,,,,,,,,,,,,,,,,,,,,,,,,,,,,,,,,,,,,,,,
,,60b8b31eb3143c92b950deba,2026-03-17_10h34.43.039,kallum_motion_pilot_GIST_update_2,2026.1.1,Win32,59.88023952,60b8b31eb3143c92b950deba,69b92ab4aef6dee357cd729a,69b92e2bcff8c33e1afc2614,0.0136,0.0137,0,13,13,95,1,eightseven,,,,,,,,,,,,,,,,,,,,,,,,,,,,,,,,,,,,,,,,,,,,,,,,,,,,,,,,,,,,,,,,,,,,,,,,,,,,,,,,,,,,,,,,,,,,,,,,,,,,,,,,,,,,,,,,,,,,,,,,,,,,,,,,,,,,,,,,,
,,60b8b31eb3143c92b950deba,2026-03-17_10h34.43.039,kallum_motion_pilot_GIST_update_2,2026.1.1,Win32,59.88023952,60b8b31eb3143c92b950deba,69b92ab4aef6dee357cd729a,69b92e2bcff8c33e1afc2614,0.0137,0.0137,0,14,14,110,1,eightsix,,,,,,,,,,,,,,,,,,,,,,,,,,,,,,,,,,,,,,,,,,,,,,,,,,,,,,,,,,,,,,,,,,,,,,,,,,,,,,,,,,,,,,,,,,,,,,,,,,,,,,,,,,,,,,,,,,,,,,,,,,,,,,,,,,,,,,,,,
,,60b8b31eb3143c92b950deba,2026-03-17_10h34.43.039,kallum_motion_pilot_GIST_update_2,2026.1.1,Win32,59.88023952,60b8b31eb3143c92b950deba,69b92ab4aef6dee357cd729a,69b92e2bcff8c33e1afc2614,0.0137,0.0137,0,15,15,134,1,eightsix,,,,,,,,,,,,,,,,,,,,,,,,,,,,,,,,,,,,,,,,,,,,,,,,,,,,,,,,,,,,,,,,,,,,,,,,,,,,,,,,,,,,,,,,,,,,,,,,,,,,,,,,,,,,,,,,,,,,,,,,,,,,,,,,,,,,,,,,,
,,60b8b31eb3143c92b950deba,2026-03-17_10h34.43.039,kallum_motion_pilot_GIST_update_2,2026.1.1,Win32,59.88023952,60b8b31eb3143c92b950deba,69b92ab4aef6dee357cd729a,69b92e2bcff8c33e1afc2614,0.0138,0.0138,0,16,16,26,1,twoone,,,,,,,,,,,,,,,,,,,,,,,,,,,,,,,,,,,,,,,,,,,,,,,,,,,,,,,,,,,,,,,,,,,,,,,,,,,,,,,,,,,,,,,,,,,,,,,,,,,,,,,,,,,,,,,,,,,,,,,,,,,,,,,,,,,,,,,,,
,,60b8b31eb3143c92b950deba,2026-03-17_10h34.43.039,kallum_motion_pilot_GIST_update_2,2026.1.1,Win32,59.88023952,60b8b31eb3143c92b950deba,69b92ab4aef6dee357cd729a,69b92e2bcff8c33e1afc2614,0.0138,0.0138,0,17,17,14,1,fourtwo,,,,,,,,,,,,,,,,,,,,,,,,,,,,,,,,,,,,,,,,,,,,,,,,,,,,,,,,,,,,,,,,,,,,,,,,,,,,,,,,,,,,,,,,,,,,,,,,,,,,,,,,,,,,,,,,,,,,,,,,,,,,,,,,,,,,,,,,,
,,60b8b31eb3143c92b950deba,2026-03-17_10h34.43.039,kallum_motion_pilot_GIST_update_2,2026.1.1,Win32,59.88023952,60b8b31eb3143c92b950deba,69b92ab4aef6dee357cd729a,69b92e2bcff8c33e1afc2614,0.0138,0.0138,0,18,18,89,1,fiveseven,,,,,,,,,,,,,,,,,,,,,,,,,,,,,,,,,,,,,,,,,,,,,,,,,,,,,,,,,,,,,,,,,,,,,,,,,,,,,,,,,,,,,,,,,,,,,,,,,,,,,,,,,,,,,,,,,,,,,,,,,,,,,,,,,,,,,,,,,
,,60b8b31eb3143c92b950deba,2026-03-17_10h34.43.039,kallum_motion_pilot_GIST_update_2,2026.1.1,Win32,59.88023952,60b8b31eb3143c92b950deba,69b92ab4aef6dee357cd729a,69b92e2bcff8c33e1afc2614,0.0139,0.0139,0,19,19,76,1,threeone,,,,,,,,,,,,,,,,,,,,,,,,,,,,,,,,,,,,,,,,,,,,,,,,,,,,,,,,,,,,,,,,,,,,,,,,,,,,,,,,,,,,,,,,,,,,,,,,,,,,,,,,,,,,,,,,,,,,,,,,,,,,,,,,,,,,,,,,,
,,60b8b31eb3143c92b950deba,2026-03-17_10h34.43.039,kallum_motion_pilot_GIST_update_2,2026.1.1,Win32,59.88023952,60b8b31eb3143c92b950deba,69b92ab4aef6dee357cd729a,69b92e2bcff8c33e1afc2614,0.0139,0.0139,0,20,20,99,1,sixeight,,,,,,,,,,,,,,,,,,,,,,,,,,,,,,,,,,,,,,,,,,,,,,,,,,,,,,,,,,,,,,,,,,,,,,,,,,,,,,,,,,,,,,,,,,,,,,,,,,,,,,,,,,,,,,,,,,,,,,,,,,,,,,,,,,,,,,,,,
,,60b8b31eb3143c92b950deba,2026-03-17_10h34.43.039,kallum_motion_pilot_GIST_update_2,2026.1.1,Win32,59.88023952,60b8b31eb3143c92b950deba,69b92ab4aef6dee357cd729a,69b92e2bcff8c33e1afc2614,0.014,0.014,0,21,21,13,1,threefour,,,,,,,,,,,,,,,,,,,,,,,,,,,,,,,,,,,,,,,,,,,,,,,,,,,,,,,,,,,,,,,,,,,,,,,,,,,,,,,,,,,,,,,,,,,,,,,,,,,,,,,,,,,,,,,,,,,,,,,,,,,,,,,,,,,,,,,,,
,,60b8b31eb3143c92b950deba,2026-03-17_10h34.43.039,kallum_motion_pilot_GIST_update_2,2026.1.1,Win32,59.88023952,60b8b31eb3143c92b950deba,69b92ab4aef6dee357cd729a,69b92e2bcff8c33e1afc2614,0.014,0.014,0,22,22,51,1,twofour,,,,,,,,,,,,,,,,,,,,,,,,,,,,,,,,,,,,,,,,,,,,,,,,,,,,,,,,,,,,,,,,,,,,,,,,,,,,,,,,,,,,,,,,,,,,,,,,,,,,,,,,,,,,,,,,,,,,,,,,,,,,,,,,,,,,,,,,,
,,60b8b31eb3143c92b950deba,2026-03-17_10h34.43.039,kallum_motion_pilot_GIST_update_2,2026.1.1,Win32,59.88023952,60b8b31eb3143c92b950deba,69b92ab4aef6dee357cd729a,69b92e2bcff8c33e1afc2614,0.0141,0.0141,0,23,23,17,1,onethree,,,,,,,,,,,,,,,,,,,,,,,,,,,,,,,,,,,,,,,,,,,,,,,,,,,,,,,,,,,,,,,,,,,,,,,,,,,,,,,,,,,,,,,,,,,,,,,,,,,,,,,,,,,,,,,,,,,,,,,,,,,,,,,,,,,,,,,,,
,,60b8b31eb3143c92b950deba,2026-03-17_10h34.43.039,kallum_motion_pilot_GIST_update_2,2026.1.1,Win32,59.88023952,60b8b31eb3143c92b950deba,69b92ab4aef6dee357cd729a,69b92e2bcff8c33e1afc2614,0.0141,0.0141,0,24,24,115,1,sixeight,,,,,,,,,,,,,,,,,,,,,,,,,,,,,,,,,,,,,,,,,,,,,,,,,,,,,,,,,,,,,,,,,,,,,,,,,,,,,,,,,,,,,,,,,,,,,,,,,,,,,,,,,,,,,,,,,,,,,,,,,,,,,,,,,,,,,,,,,
,,60b8b31eb3143c92b950deba,2026-03-17_10h34.43.039,kallum_motion_pilot_GIST_update_2,2026.1.1,Win32,59.88023952,60b8b31eb3143c92b950deba,69b92ab4aef6dee357cd729a,69b92e2bcff8c33e1afc2614,0.0141,0.0141,0,25,25,117,1,seveneight,,,,,,,,,,,,,,,,,,,,,,,,,,,,,,,,,,,,,,,,,,,,,,,,,,,,,,,,,,,,,,,,,,,,,,,,,,,,,,,,,,,,,,,,,,,,,,,,,,,,,,,,,,,,,,,,,,,,,,,,,,,,,,,,,,,,,,,,,
,,60b8b31eb3143c92b950deba,2026-03-17_10h34.43.039,kallum_motion_pilot_GIST_update_2,2026.1.1,Win32,59.88023952,60b8b31eb3143c92b950deba,69b92ab4aef6dee357cd729a,69b92e2bcff8c33e1afc2614,0.0142,0.0142,0,26,26,63,1,fourthree,,,,,,,,,,,,,,,,,,,,,,,,,,,,,,,,,,,,,,,,,,,,,,,,,,,,,,,,,,,,,,,,,,,,,,,,,,,,,,,,,,,,,,,,,,,,,,,,,,,,,,,,,,,,,,,,,,,,,,,,,,,,,,,,,,,,,,,,,
,,60b8b31eb3143c92b950deba,2026-03-17_10h34.43.039,kallum_motion_pilot_GIST_update_2,2026.1.1,Win32,59.88023952,60b8b31eb3143c92b950deba,69b92ab4aef6dee357cd729a,69b92e2bcff8c33e1afc2614,0.0142,0.0142,0,27,27,10,1,twoone,,,,,,,,,,,,,,,,,,,,,,,,,,,,,,,,,,,,,,,,,,,,,,,,,,,,,,,,,,,,,,,,,,,,,,,,,,,,,,,,,,,,,,,,,,,,,,,,,,,,,,,,,,,,,,,,,,,,,,,,,,,,,,,,,,,,,,,,,
,,60b8b31eb3143c92b950deba,2026-03-17_10h34.43.039,kallum_motion_pilot_GIST_update_2,2026.1.1,Win32,59.88023952,60b8b31eb3143c92b950deba,69b92ab4aef6dee357cd729a,69b92e2bcff8c33e1afc2614,0.0142,0.0142,0,28,28,157,1,seveneight,,,,,,,,,,,,,,,,,,,,,,,,,,,,,,,,,,,,,,,,,,,,,,,,,,,,,,,,,,,,,,,,,,,,,,,,,,,,,,,,,,,,,,,,,,,,,,,,,,,,,,,,,,,,,,,,,,,,,,,,,,,,,,,,,,,,,,,,,
,,60b8b31eb3143c92b950deba,2026-03-17_10h34.43.039,kallum_motion_pilot_GIST_update_2,2026.1.1,Win32,59.88023952,60b8b31eb3143c92b950deba,69b92ab4aef6dee357cd729a,69b92e2bcff8c33e1afc2614,0.0143,0.0143,0,29,29,40,1,onetwo,,,,,,,,,,,,,,,,,,,,,,,,,,,,,,,,,,,,,,,,,,,,,,,,,,,,,,,,,,,,,,,,,,,,,,,,,,,,,,,,,,,,,,,,,,,,,,,,,,,,,,,,,,,,,,,,,,,,,,,,,,,,,,,,,,,,,,,,,
,,60b8b31eb3143c92b950deba,2026-03-17_10h34.43.039,kallum_motion_pilot_GIST_update_2,2026.1.1,Win32,59.88023952,60b8b31eb3143c92b950deba,69b92ab4aef6dee357cd729a,69b92e2bcff8c33e1afc2614,0.0143,0.0143,0,30,30,67,1,twofour,,,,,,,,,,,,,,,,,,,,,,,,,,,,,,,,,,,,,,,,,,,,,,,,,,,,,,,,,,,,,,,,,,,,,,,,,,,,,,,,,,,,,,,,,,,,,,,,,,,,,,,,,,,,,,,,,,,,,,,,,,,,,,,,,,,,,,,,,
,,60b8b31eb3143c92b950deba,2026-03-17_10h34.43.039,kallum_motion_pilot_GIST_update_2,2026.1.1,Win32,59.88023952,60b8b31eb3143c92b950deba,69b92ab4aef6dee357cd729a,69b92e2bcff8c33e1afc2614,0.0143,0.0143,0,31,31,54,1,fourtwo,,,,,,,,,,,,,,,,,,,,,,,,,,,,,,,,,,,,,,,,,,,,,,,,,,,,,,,,,,,,,,,,,,,,,,,,,,,,,,,,,,,,,,,,,,,,,,,,,,,,,,,,,,,,,,,,,,,,,,,,,,,,,,,,,,,,,,,,,
,,60b8b31eb3143c92b950deba,2026-03-17_10h34.43.039,kallum_motion_pilot_GIST_update_2,2026.1.1,Win32,59.88023952,60b8b31eb3143c92b950deba,69b92ab4aef6dee357cd729a,69b92e2bcff8c33e1afc2614,0.0143,0.0143,0,32,32,128,1,fivesix,,,,,,,,,,,,,,,,,,,,,,,,,,,,,,,,,,,,,,,,,,,,,,,,,,,,,,,,,,,,,,,,,,,,,,,,,,,,,,,,,,,,,,,,,,,,,,,,,,,,,,,,,,,,,,,,,,,,,,,,,,,,,,,,,,,,,,,,,
,,60b8b31eb3143c92b950deba,2026-03-17_10h34.43.039,kallum_motion_pilot_GIST_update_2,2026.1.1,Win32,59.88023952,60b8b31eb3143c92b950deba,69b92ab4aef6dee357cd729a,69b92e2bcff8c33e1afc2614,0.0144,0.0144,0,33,33,122,1,sixfive,,,,,,,,,,,,,,,,,,,,,,,,,,,,,,,,,,,,,,,,,,,,,,,,,,,,,,,,,,,,,,,,,,,,,,,,,,,,,,,,,,,,,,,,,,,,,,,,,,,,,,,,,,,,,,,,,,,,,,,,,,,,,,,,,,,,,,,,,
,,60b8b31eb3143c92b950deba,2026-03-17_10h34.43.039,kallum_motion_pilot_GIST_update_2,2026.1.1,Win32,59.88023952,60b8b31eb3143c92b950deba,69b92ab4aef6dee357cd729a,69b92e2bcff8c33e1afc2614,0.0145,0.0145,0,34,34,52,1,threeone,,,,,,,,,,,,,,,,,,,,,,,,,,,,,,,,,,,,,,,,,,,,,,,,,,,,,,,,,,,,,,,,,,,,,,,,,,,,,,,,,,,,,,,,,,,,,,,,,,,,,,,,,,,,,,,,,,,,,,,,,,,,,,,,,,,,,,,,,
,,60b8b31eb3143c92b950deba,2026-03-17_10h34.43.039,kallum_motion_pilot_GIST_update_2,2026.1.1,Win32,59.88023952,60b8b31eb3143c92b950deba,69b92ab4aef6dee357cd729a,69b92e2bcff8c33e1afc2614,0.0145,0.0145,0,35,35,60,1,threeone,,,,,,,,,,,,,,,,,,,,,,,,,,,,,,,,,,,,,,,,,,,,,,,,,,,,,,,,,,,,,,,,,,,,,,,,,,,,,,,,,,,,,,,,,,,,,,,,,,,,,,,,,,,,,,,,,,,,,,,,,,,,,,,,,,,,,,,,,
,,60b8b31eb3143c92b950deba,2026-03-17_10h34.43.039,kallum_motion_pilot_GIST_update_2,2026.1.1,Win32,59.88023952,60b8b31eb3143c92b950deba,69b92ab4aef6dee357cd729a,69b92e2bcff8c33e1afc2614,0.0146,0.0146,0,36,36,68,1,threeone,,,,,,,,,,,,,,,,,,,,,,,,,,,,,,,,,,,,,,,,,,,,,,,,,,,,,,,,,,,,,,,,,,,,,,,,,,,,,,,,,,,,,,,,,,,,,,,,,,,,,,,,,,,,,,,,,,,,,,,,,,,,,,,,,,,,,,,,,
,,60b8b31eb3143c92b950deba,2026-03-17_10h34.43.039,kallum_motion_pilot_GIST_update_2,2026.1.1,Win32,59.88023952,60b8b31eb3143c92b950deba,69b92ab4aef6dee357cd729a,69b92e2bcff8c33e1afc2614,0.0146,0.0146,0,37,37,15,1,fourthree,,,,,,,,,,,,,,,,,,,,,,,,,,,,,,,,,,,,,,,,,,,,,,,,,,,,,,,,,,,,,,,,,,,,,,,,,,,,,,,,,,,,,,,,,,,,,,,,,,,,,,,,,,,,,,,,,,,,,,,,,,,,,,,,,,,,,,,,,
,,60b8b31eb3143c92b950deba,2026-03-17_10h34.43.039,kallum_motion_pilot_GIST_update_2,2026.1.1,Win32,59.88023952,60b8b31eb3143c92b950deba,69b92ab4aef6dee357cd729a,69b92e2bcff8c33e1afc2614,0.0146,0.0147,0,38,38,20,1,threeone,,,,,,,,,,,,,,,,,,,,,,,,,,,,,,,,,,,,,,,,,,,,,,,,,,,,,,,,,,,,,,,,,,,,,,,,,,,,,,,,,,,,,,,,,,,,,,,,,,,,,,,,,,,,,,,,,,,,,,,,,,,,,,,,,,,,,,,,,
,,60b8b31eb3143c92b950deba,2026-03-17_10h34.43.039,kallum_motion_pilot_GIST_update_2,2026.1.1,Win32,59.88023952,60b8b31eb3143c92b950deba,69b92ab4aef6dee357cd729a,69b92e2bcff8c33e1afc2614,0.0153,0.0153,0,39,39,93,1,seveneight,,,,,,,,,,,,,,,,,,,,,,,,,,,,,,,,,,,,,,,,,,,,,,,,,,,,,,,,,,,,,,,,,,,,,,,,,,,,,,,,,,,,,,,,,,,,,,,,,,,,,,,,,,,,,,,,,,,,,,,,,,,,,,,,,,,,,,,,,
,,60b8b31eb3143c92b950deba,2026-03-17_10h34.43.039,kallum_motion_pilot_GIST_update_2,2026.1.1,Win32,59.88023952,60b8b31eb3143c92b950deba,69b92ab4aef6dee357cd729a,69b92e2bcff8c33e1afc2614,0.0153,0.0153,0,40,40,5,1,threefour,,,,,,,,,,,,,,,,,,,,,,,,,,,,,,,,,,,,,,,,,,,,,,,,,,,,,,,,,,,,,,,,,,,,,,,,,,,,,,,,,,,,,,,,,,,,,,,,,,,,,,,,,,,,,,,,,,,,,,,,,,,,,,,,,,,,,,,,,
,,60b8b31eb3143c92b950deba,2026-03-17_10h34.43.039,kallum_motion_pilot_GIST_update_2,2026.1.1,Win32,59.88023952,60b8b31eb3143c92b950deba,69b92ab4aef6dee357cd729a,69b92e2bcff8c33e1afc2614,0.0154,0.0154,0,41,41,105,1,fiveseven,,,,,,,,,,,,,,,,,,,,,,,,,,,,,,,,,,,,,,,,,,,,,,,,,,,,,,,,,,,,,,,,,,,,,,,,,,,,,,,,,,,,,,,,,,,,,,,,,,,,,,,,,,,,,,,,,,,,,,,,,,,,,,,,,,,,,,,,,
,,60b8b31eb3143c92b950deba,2026-03-17_10h34.43.039,kallum_motion_pilot_GIST_update_2,2026.1.1,Win32,59.88023952,60b8b31eb3143c92b950deba,69b92ab4aef6dee357cd729a,69b92e2bcff8c33e1afc2614,0.0154,0.0154,0,42,42,58,1,twoone,,,,,,,,,,,,,,,,,,,,,,,,,,,,,,,,,,,,,,,,,,,,,,,,,,,,,,,,,,,,,,,,,,,,,,,,,,,,,,,,,,,,,,,,,,,,,,,,,,,,,,,,,,,,,,,,,,,,,,,,,,,,,,,,,,,,,,,,,
,,60b8b31eb3143c92b950deba,2026-03-17_10h34.43.039,kallum_motion_pilot_GIST_update_2,2026.1.1,Win32,59.88023952,60b8b31eb3143c92b950deba,69b92ab4aef6dee357cd729a,69b92e2bcff8c33e1afc2614,0.0155,0.0155,0,43,43,136,1,fivesix,,,,,,,,,,,,,,,,,,,,,,,,,,,,,,,,,,,,,,,,,,,,,,,,,,,,,,,,,,,,,,,,,,,,,,,,,,,,,,,,,,,,,,,,,,,,,,,,,,,,,,,,,,,,,,,,,,,,,,,,,,,,,,,,,,,,,,,,,
,,60b8b31eb3143c92b950deba,2026-03-17_10h34.43.039,kallum_motion_pilot_GIST_update_2,2026.1.1,Win32,59.88023952,60b8b31eb3143c92b950deba,69b92ab4aef6dee357cd729a,69b92e2bcff8c33e1afc2614,0.0156,0.0156,0,44,44,109,1,seveneight,,,,,,,,,,,,,,,,,,,,,,,,,,,,,,,,,,,,,,,,,,,,,,,,,,,,,,,,,,,,,,,,,,,,,,,,,,,,,,,,,,,,,,,,,,,,,,,,,,,,,,,,,,,,,,,,,,,,,,,,,,,,,,,,,,,,,,,,,
,,60b8b31eb3143c92b950deba,2026-03-17_10h34.43.039,kallum_motion_pilot_GIST_update_2,2026.1.1,Win32,59.88023952,60b8b31eb3143c92b950deba,69b92ab4aef6dee357cd729a,69b92e2bcff8c33e1afc2614,0.0156,0.0156,0,45,45,113,1,fiveseven,,,,,,,,,,,,,,,,,,,,,,,,,,,,,,,,,,,,,,,,,,,,,,,,,,,,,,,,,,,,,,,,,,,,,,,,,,,,,,,,,,,,,,,,,,,,,,,,,,,,,,,,,,,,,,,,,,,,,,,,,,,,,,,,,,,,,,,,,
,,60b8b31eb3143c92b950deba,2026-03-17_10h34.43.039,kallum_motion_pilot_GIST_update_2,2026.1.1,Win32,59.88023952,60b8b31eb3143c92b950deba,69b92ab4aef6dee357cd729a,69b92e2bcff8c33e1afc2614,0.0156,0.0156,0,46,46,132,1,sevenfive,,,,,,,,,,,,,,,,,,,,,,,,,,,,,,,,,,,,,,,,,,,,,,,,,,,,,,,,,,,,,,,,,,,,,,,,,,,,,,,,,,,,,,,,,,,,,,,,,,,,,,,,,,,,,,,,,,,,,,,,,,,,,,,,,,,,,,,,,
,,60b8b31eb3143c92b950deba,2026-03-17_10h34.43.039,kallum_motion_pilot_GIST_update_2,2026.1.1,Win32,59.88023952,60b8b31eb3143c92b950deba,69b92ab4aef6dee357cd729a,69b92e2bcff8c33e1afc2614,0.0156,0.0156,0,47,47,72,1,onetwo,,,,,,,,,,,,,,,,,,,,,,,,,,,,,,,,,,,,,,,,,,,,,,,,,,,,,,,,,,,,,,,,,,,,,,,,,,,,,,,,,,,,,,,,,,,,,,,,,,,,,,,,,,,,,,,,,,,,,,,,,,,,,,,,,,,,,,,,,
,,60b8b31eb3143c92b950deba,2026-03-17_10h34.43.039,kallum_motion_pilot_GIST_update_2,2026.1.1,Win32,59.88023952,60b8b31eb3143c92b950deba,69b92ab4aef6dee357cd729a,69b92e2bcff8c33e1afc2614,0.0157,0.0157,0,48,48,32,1,onetwo,,,,,,,,,,,,,,,,,,,,,,,,,,,,,,,,,,,,,,,,,,,,,,,,,,,,,,,,,,,,,,,,,,,,,,,,,,,,,,,,,,,,,,,,,,,,,,,,,,,,,,,,,,,,,,,,,,,,,,,,,,,,,,,,,,,,,,,,,
,,60b8b31eb3143c92b950deba,2026-03-17_10h34.43.039,kallum_motion_pilot_GIST_update_2,2026.1.1,Win32,59.88023952,60b8b31eb3143c92b950deba,69b92ab4aef6dee357cd729a,69b92e2bcff8c33e1afc2614,0.0157,0.0157,0,49,49,28,1,threeone,,,,,,,,,,,,,,,,,,,,,,,,,,,,,,,,,,,,,,,,,,,,,,,,,,,,,,,,,,,,,,,,,,,,,,,,,,,,,,,,,,,,,,,,,,,,,,,,,,,,,,,,,,,,,,,,,,,,,,,,,,,,,,,,,,,,,,,,,
,,60b8b31eb3143c92b950deba,2026-03-17_10h34.43.039,kallum_motion_pilot_GIST_update_2,2026.1.1,Win32,59.88023952,60b8b31eb3143c92b950deba,69b92ab4aef6dee357cd729a,69b92e2bcff8c33e1afc2614,0.0158,0.0158,0,50,50,2,1,twoone,,,,,,,,,,,,,,,,,,,,,,,,,,,,,,,,,,,,,,,,,,,,,,,,,,,,,,,,,,,,,,,,,,,,,,,,,,,,,,,,,,,,,,,,,,,,,,,,,,,,,,,,,,,,,,,,,,,,,,,,,,,,,,,,,,,,,,,,,
,,60b8b31eb3143c92b950deba,2026-03-17_10h34.43.039,kallum_motion_pilot_GIST_update_2,2026.1.1,Win32,59.88023952,60b8b31eb3143c92b950deba,69b92ab4aef6dee357cd729a,69b92e2bcff8c33e1afc2614,0.016,0.016,0,51,51,66,1,twoone,,,,,,,,,,,,,,,,,,,,,,,,,,,,,,,,,,,,,,,,,,,,,,,,,,,,,,,,,,,,,,,,,,,,,,,,,,,,,,,,,,,,,,,,,,,,,,,,,,,,,,,,,,,,,,,,,,,,,,,,,,,,,,,,,,,,,,,,,
,,60b8b31eb3143c92b950deba,2026-03-17_10h34.43.039,kallum_motion_pilot_GIST_update_2,2026.1.1,Win32,59.88023952,60b8b31eb3143c92b950deba,69b92ab4aef6dee357cd729a,69b92e2bcff8c33e1afc2614,0.016,0.016,0,52,52,92,1,sevenfive,,,,,,,,,,,,,,,,,,,,,,,,,,,,,,,,,,,,,,,,,,,,,,,,,,,,,,,,,,,,,,,,,,,,,,,,,,,,,,,,,,,,,,,,,,,,,,,,,,,,,,,,,,,,,,,,,,,,,,,,,,,,,,,,,,,,,,,,,
,,60b8b31eb3143c92b950deba,2026-03-17_10h34.43.039,kallum_motion_pilot_GIST_update_2,2026.1.1,Win32,59.88023952,60b8b31eb3143c92b950deba,69b92ab4aef6dee357cd729a,69b92e2bcff8c33e1afc2614,0.016,0.016,0,53,53,116,1,sevenfive,,,,,,,,,,,,,,,,,,,,,,,,,,,,,,,,,,,,,,,,,,,,,,,,,,,,,,,,,,,,,,,,,,,,,,,,,,,,,,,,,,,,,,,,,,,,,,,,,,,,,,,,,,,,,,,,,,,,,,,,,,,,,,,,,,,,,,,,,
,,60b8b31eb3143c92b950deba,2026-03-17_10h34.43.039,kallum_motion_pilot_GIST_update_2,2026.1.1,Win32,59.88023952,60b8b31eb3143c92b950deba,69b92ab4aef6dee357cd729a,69b92e2bcff8c33e1afc2614,0.016,0.016,0,54,54,29,1,threefour,,,,,,,,,,,,,,,,,,,,,,,,,,,,,,,,,,,,,,,,,,,,,,,,,,,,,,,,,,,,,,,,,,,,,,,,,,,,,,,,,,,,,,,,,,,,,,,,,,,,,,,,,,,,,,,,,,,,,,,,,,,,,,,,,,,,,,,,,
,,60b8b31eb3143c92b950deba,2026-03-17_10h34.43.039,kallum_motion_pilot_GIST_update_2,2026.1.1,Win32,59.88023952,60b8b31eb3143c92b950deba,69b92ab4aef6dee357cd729a,69b92e2bcff8c33e1afc2614,0.0161,0.0161,0,55,55,57,1,onethree,,,,,,,,,,,,,,,,,,,,,,,,,,,,,,,,,,,,,,,,,,,,,,,,,,,,,,,,,,,,,,,,,,,,,,,,,,,,,,,,,,,,,,,,,,,,,,,,,,,,,,,,,,,,,,,,,,,,,,,,,,,,,,,,,,,,,,,,,
,,60b8b31eb3143c92b950deba,2026-03-17_10h34.43.039,kallum_motion_pilot_GIST_update_2,2026.1.1,Win32,59.88023952,60b8b31eb3143c92b950deba,69b92ab4aef6dee357cd729a,69b92e2bcff8c33e1afc2614,0.0162,0.0162,0,56,56,127,1,eightseven,,,,,,,,,,,,,,,,,,,,,,,,,,,,,,,,,,,,,,,,,,,,,,,,,,,,,,,,,,,,,,,,,,,,,,,,,,,,,,,,,,,,,,,,,,,,,,,,,,,,,,,,,,,,,,,,,,,,,,,,,,,,,,,,,,,,,,,,,
,,60b8b31eb3143c92b950deba,2026-03-17_10h34.43.039,kallum_motion_pilot_GIST_update_2,2026.1.1,Win32,59.88023952,60b8b31eb3143c92b950deba,69b92ab4aef6dee357cd729a,69b92e2bcff8c33e1afc2614,0.0162,0.0162,0,57,57,7,1,fourthree,,,,,,,,,,,,,,,,,,,,,,,,,,,,,,,,,,,,,,,,,,,,,,,,,,,,,,,,,,,,,,,,,,,,,,,,,,,,,,,,,,,,,,,,,,,,,,,,,,,,,,,,,,,,,,,,,,,,,,,,,,,,,,,,,,,,,,,,,
,,60b8b31eb3143c92b950deba,2026-03-17_10h34.43.039,kallum_motion_pilot_GIST_update_2,2026.1.1,Win32,59.88023952,60b8b31eb3143c92b950deba,69b92ab4aef6dee357cd729a,69b92e2bcff8c33e1afc2614,0.0162,0.0162,0,58,58,147,1,sixeight,,,,,,,,,,,,,,,,,,,,,,,,,,,,,,,,,,,,,,,,,,,,,,,,,,,,,,,,,,,,,,,,,,,,,,,,,,,,,,,,,,,,,,,,,,,,,,,,,,,,,,,,,,,,,,,,,,,,,,,,,,,,,,,,,,,,,,,,,
,,60b8b31eb3143c92b950deba,2026-03-17_10h34.43.039,kallum_motion_pilot_GIST_update_2,2026.1.1,Win32,59.88023952,60b8b31eb3143c92b950deba,69b92ab4aef6dee357cd729a,69b92e2bcff8c33e1afc2614,0.0164,0.0164,0,59,59,119,1,eightseven,,,,,,,,,,,,,,,,,,,,,,,,,,,,,,,,,,,,,,,,,,,,,,,,,,,,,,,,,,,,,,,,,,,,,,,,,,,,,,,,,,,,,,,,,,,,,,,,,,,,,,,,,,,,,,,,,,,,,,,,,,,,,,,,,,,,,,,,,
,,60b8b31eb3143c92b950deba,2026-03-17_10h34.43.039,kallum_motion_pilot_GIST_update_2,2026.1.1,Win32,59.88023952,60b8b31eb3143c92b950deba,69b92ab4aef6dee357cd729a,69b92e2bcff8c33e1afc2614,0.0165,0.0165,0,60,60,120,1,fivesix,,,,,,,,,,,,,,,,,,,,,,,,,,,,,,,,,,,,,,,,,,,,,,,,,,,,,,,,,,,,,,,,,,,,,,,,,,,,,,,,,,,,,,,,,,,,,,,,,,,,,,,,,,,,,,,,,,,,,,,,,,,,,,,,,,,,,,,,,
,,60b8b31eb3143c92b950deba,2026-03-17_10h34.43.039,kallum_motion_pilot_GIST_update_2,2026.1.1,Win32,59.88023952,60b8b31eb3143c92b950deba,69b92ab4aef6dee357cd729a,69b92e2bcff8c33e1afc2614,0.0165,0.0165,0,61,61,0,1,onetwo,,,,,,,,,,,,,,,,,,,,,,,,,,,,,,,,,,,,,,,,,,,,,,,,,,,,,,,,,,,,,,,,,,,,,,,,,,,,,,,,,,,,,,,,,,,,,,,,,,,,,,,,,,,,,,,,,,,,,,,,,,,,,,,,,,,,,,,,,
,,60b8b31eb3143c92b950deba,2026-03-17_10h34.43.039,kallum_motion_pilot_GIST_update_2,2026.1.1,Win32,59.88023952,60b8b31eb3143c92b950deba,69b92ab4aef6dee357cd729a,69b92e2bcff8c33e1afc2614,0.0165,0.0165,0,62,62,19,1,twofour,,,,,,,,,,,,,,,,,,,,,,,,,,,,,,,,,,,,,,,,,,,,,,,,,,,,,,,,,,,,,,,,,,,,,,,,,,,,,,,,,,,,,,,,,,,,,,,,,,,,,,,,,,,,,,,,,,,,,,,,,,,,,,,,,,,,,,,,,
,,60b8b31eb3143c92b950deba,2026-03-17_10h34.43.039,kallum_motion_pilot_GIST_update_2,2026.1.1,Win32,59.88023952,60b8b31eb3143c92b950deba,69b92ab4aef6dee357cd729a,69b92e2bcff8c33e1afc2614,0.0166,0.0166,0,63,63,130,1,sixfive,,,,,,,,,,,,,,,,,,,,,,,,,,,,,,,,,,,,,,,,,,,,,,,,,,,,,,,,,,,,,,,,,,,,,,,,,,,,,,,,,,,,,,,,,,,,,,,,,,,,,,,,,,,,,,,,,,,,,,,,,,,,,,,,,,,,,,,,,
,,60b8b31eb3143c92b950deba,2026-03-17_10h34.43.039,kallum_motion_pilot_GIST_update_2,2026.1.1,Win32,59.88023952,60b8b31eb3143c92b950deba,69b92ab4aef6dee357cd729a,69b92e2bcff8c33e1afc2614,0.0167,0.0167,0,64,64,104,1,fivesix,,,,,,,,,,,,,,,,,,,,,,,,,,,,,,,,,,,,,,,,,,,,,,,,,,,,,,,,,,,,,,,,,,,,,,,,,,,,,,,,,,,,,,,,,,,,,,,,,,,,,,,,,,,,,,,,,,,,,,,,,,,,,,,,,,,,,,,,,
,,60b8b31eb3143c92b950deba,2026-03-17_10h34.43.039,kallum_motion_pilot_GIST_update_2,2026.1.1,Win32,59.88023952,60b8b31eb3143c92b950deba,69b92ab4aef6dee357cd729a,69b92e2bcff8c33e1afc2614,0.0167,0.0167,0,65,65,103,1,eightseven,,,,,,,,,,,,,,,,,,,,,,,,,,,,,,,,,,,,,,,,,,,,,,,,,,,,,,,,,,,,,,,,,,,,,,,,,,,,,,,,,,,,,,,,,,,,,,,,,,,,,,,,,,,,,,,,,,,,,,,,,,,,,,,,,,,,,,,,,
,,60b8b31eb3143c92b950deba,2026-03-17_10h34.43.039,kallum_motion_pilot_GIST_update_2,2026.1.1,Win32,59.88023952,60b8b31eb3143c92b950deba,69b92ab4aef6dee357cd729a,69b92e2bcff8c33e1afc2614,0.0167,0.0167,0,66,66,33,1,onethree,,,,,,,,,,,,,,,,,,,,,,,,,,,,,,,,,,,,,,,,,,,,,,,,,,,,,,,,,,,,,,,,,,,,,,,,,,,,,,,,,,,,,,,,,,,,,,,,,,,,,,,,,,,,,,,,,,,,,,,,,,,,,,,,,,,,,,,,,
,,60b8b31eb3143c92b950deba,2026-03-17_10h34.43.039,kallum_motion_pilot_GIST_update_2,2026.1.1,Win32,59.88023952,60b8b31eb3143c92b950deba,69b92ab4aef6dee357cd729a,69b92e2bcff8c33e1afc2614,0.0167,0.0168,0,67,67,77,1,threefour,,,,,,,,,,,,,,,,,,,,,,,,,,,,,,,,,,,,,,,,,,,,,,,,,,,,,,,,,,,,,,,,,,,,,,,,,,,,,,,,,,,,,,,,,,,,,,,,,,,,,,,,,,,,,,,,,,,,,,,,,,,,,,,,,,,,,,,,,
,,60b8b31eb3143c92b950deba,2026-03-17_10h34.43.039,kallum_motion_pilot_GIST_update_2,2026.1.1,Win32,59.88023952,60b8b31eb3143c92b950deba,69b92ab4aef6dee357cd729a,69b92e2bcff8c33e1afc2614,0.0168,0.0168,0,68,68,9,1,onethree,,,,,,,,,,,,,,,,,,,,,,,,,,,,,,,,,,,,,,,,,,,,,,,,,,,,,,,,,,,,,,,,,,,,,,,,,,,,,,,,,,,,,,,,,,,,,,,,,,,,,,,,,,,,,,,,,,,,,,,,,,,,,,,,,,,,,,,,,
,,60b8b31eb3143c92b950deba,2026-03-17_10h34.43.039,kallum_motion_pilot_GIST_update_2,2026.1.1,Win32,59.88023952,60b8b31eb3143c92b950deba,69b92ab4aef6dee357cd729a,69b92e2bcff8c33e1afc2614,0.0168,0.0168,0,69,69,42,1,twoone,,,,,,,,,,,,,,,,,,,,,,,,,,,,,,,,,,,,,,,,,,,,,,,,,,,,,,,,,,,,,,,,,,,,,,,,,,,,,,,,,,,,,,,,,,,,,,,,,,,,,,,,,,,,,,,,,,,,,,,,,,,,,,,,,,,,,,,,,
,,60b8b31eb3143c92b950deba,2026-03-17_10h34.43.039,kallum_motion_pilot_GIST_update_2,2026.1.1,Win32,59.88023952,60b8b31eb3143c92b950deba,69b92ab4aef6dee357cd729a,69b92e2bcff8c33e1afc2614,0.0169,0.0169,0,70,70,80,1,fivesix,,,,,,,,,,,,,,,,,,,,,,,,,,,,,,,,,,,,,,,,,,,,,,,,,,,,,,,,,,,,,,,,,,,,,,,,,,,,,,,,,,,,,,,,,,,,,,,,,,,,,,,,,,,,,,,,,,,,,,,,,,,,,,,,,,,,,,,,,
,,60b8b31eb3143c92b950deba,2026-03-17_10h34.43.039,kallum_motion_pilot_GIST_update_2,2026.1.1,Win32,59.88023952,60b8b31eb3143c92b950deba,69b92ab4aef6dee357cd729a,69b92e2bcff8c33e1afc2614,0.017,0.017,0,71,71,36,1,threeone,,,,,,,,,,,,,,,,,,,,,,,,,,,,,,,,,,,,,,,,,,,,,,,,,,,,,,,,,,,,,,,,,,,,,,,,,,,,,,,,,,,,,,,,,,,,,,,,,,,,,,,,,,,,,,,,,,,,,,,,,,,,,,,,,,,,,,,,,
,,60b8b31eb3143c92b950deba,2026-03-17_10h34.43.039,kallum_motion_pilot_GIST_update_2,2026.1.1,Win32,59.88023952,60b8b31eb3143c92b950deba,69b92ab4aef6dee357cd729a,69b92e2bcff8c33e1afc2614,0.0171,0.0171,0,72,72,48,1,onetwo,,,,,,,,,,,,,,,,,,,,,,,,,,,,,,,,,,,,,,,,,,,,,,,,,,,,,,,,,,,,,,,,,,,,,,,,,,,,,,,,,,,,,,,,,,,,,,,,,,,,,,,,,,,,,,,,,,,,,,,,,,,,,,,,,,,,,,,,,
,,60b8b31eb3143c92b950deba,2026-03-17_10h34.43.039,kallum_motion_pilot_GIST_update_2,2026.1.1,Win32,59.88023952,60b8b31eb3143c92b950deba,69b92ab4aef6dee357cd729a,69b92e2bcff8c33e1afc2614,0.0171,0.0171,0,73,73,94,1,eightsix,,,,,,,,,,,,,,,,,,,,,,,,,,,,,,,,,,,,,,,,,,,,,,,,,,,,,,,,,,,,,,,,,,,,,,,,,,,,,,,,,,,,,,,,,,,,,,,,,,,,,,,,,,,,,,,,,,,,,,,,,,,,,,,,,,,,,,,,,
,,60b8b31eb3143c92b950deba,2026-03-17_10h34.43.039,kallum_motion_pilot_GIST_update_2,2026.1.1,Win32,59.88023952,60b8b31eb3143c92b950deba,69b92ab4aef6dee357cd729a,69b92e2bcff8c33e1afc2614,0.0172,0.0172,0,74,74,153,1,fiveseven,,,,,,,,,,,,,,,,,,,,,,,,,,,,,,,,,,,,,,,,,,,,,,,,,,,,,,,,,,,,,,,,,,,,,,,,,,,,,,,,,,,,,,,,,,,,,,,,,,,,,,,,,,,,,,,,,,,,,,,,,,,,,,,,,,,,,,,,,
,,60b8b31eb3143c92b950deba,2026-03-17_10h34.43.039,kallum_motion_pilot_GIST_update_2,2026.1.1,Win32,59.88023952,60b8b31eb3143c92b950deba,69b92ab4aef6dee357cd729a,69b92e2bcff8c33e1afc2614,0.0174,0.0174,0,75,75,61,1,threefour,,,,,,,,,,,,,,,,,,,,,,,,,,,,,,,,,,,,,,,,,,,,,,,,,,,,,,,,,,,,,,,,,,,,,,,,,,,,,,,,,,,,,,,,,,,,,,,,,,,,,,,,,,,,,,,,,,,,,,,,,,,,,,,,,,,,,,,,,
,,60b8b31eb3143c92b950deba,2026-03-17_10h34.43.039,kallum_motion_pilot_GIST_update_2,2026.1.1,Win32,59.88023952,60b8b31eb3143c92b950deba,69b92ab4aef6dee357cd729a,69b92e2bcff8c33e1afc2614,0.0174,0.0174,0,76,76,71,1,fourthree,,,,,,,,,,,,,,,,,,,,,,,,,,,,,,,,,,,,,,,,,,,,,,,,,,,,,,,,,,,,,,,,,,,,,,,,,,,,,,,,,,,,,,,,,,,,,,,,,,,,,,,,,,,,,,,,,,,,,,,,,,,,,,,,,,,,,,,,,
,,60b8b31eb3143c92b950deba,2026-03-17_10h34.43.039,kallum_motion_pilot_GIST_update_2,2026.1.1,Win32,59.88023952,60b8b31eb3143c92b950deba,69b92ab4aef6dee357cd729a,69b92e2bcff8c33e1afc2614,0.0175,0.0175,0,77,77,87,1,eightseven,,,,,,,,,,,,,,,,,,,,,,,,,,,,,,,,,,,,,,,,,,,,,,,,,,,,,,,,,,,,,,,,,,,,,,,,,,,,,,,,,,,,,,,,,,,,,,,,,,,,,,,,,,,,,,,,,,,,,,,,,,,,,,,,,,,,,,,,,
,,60b8b31eb3143c92b950deba,2026-03-17_10h34.43.039,kallum_motion_pilot_GIST_update_2,2026.1.1,Win32,59.88023952,60b8b31eb3143c92b950deba,69b92ab4aef6dee357cd729a,69b92e2bcff8c33e1afc2614,0.0175,0.0175,0,78,78,107,1,sixeight,,,,,,,,,,,,,,,,,,,,,,,,,,,,,,,,,,,,,,,,,,,,,,,,,,,,,,,,,,,,,,,,,,,,,,,,,,,,,,,,,,,,,,,,,,,,,,,,,,,,,,,,,,,,,,,,,,,,,,,,,,,,,,,,,,,,,,,,,
,,60b8b31eb3143c92b950deba,2026-03-17_10h34.43.039,kallum_motion_pilot_GIST_update_2,2026.1.1,Win32,59.88023952,60b8b31eb3143c92b950deba,69b92ab4aef6dee357cd729a,69b92e2bcff8c33e1afc2614,0.0175,0.0175,0,79,79,155,1,sixeight,,,,,,,,,,,,,,,,,,,,,,,,,,,,,,,,,,,,,,,,,,,,,,,,,,,,,,,,,,,,,,,,,,,,,,,,,,,,,,,,,,,,,,,,,,,,,,,,,,,,,,,,,,,,,,,,,,,,,,,,,,,,,,,,,,,,,,,,,
,,60b8b31eb3143c92b950deba,2026-03-17_10h34.43.039,kallum_motion_pilot_GIST_update_2,2026.1.1,Win32,59.88023952,60b8b31eb3143c92b950deba,69b92ab4aef6dee357cd729a,69b92e2bcff8c33e1afc2614,0.0175,0.0175,0,80,80,88,1,fivesix,,,,,,,,,,,,,,,,,,,,,,,,,,,,,,,,,,,,,,,,,,,,,,,,,,,,,,,,,,,,,,,,,,,,,,,,,,,,,,,,,,,,,,,,,,,,,,,,,,,,,,,,,,,,,,,,,,,,,,,,,,,,,,,,,,,,,,,,,
,,60b8b31eb3143c92b950deba,2026-03-17_10h34.43.039,kallum_motion_pilot_GIST_update_2,2026.1.1,Win32,59.88023952,60b8b31eb3143c92b950deba,69b92ab4aef6dee357cd729a,69b92e2bcff8c33e1afc2614,0.0176,0.0176,0,81,81,47,1,fourthree,,,,,,,,,,,,,,,,,,,,,,,,,,,,,,,,,,,,,,,,,,,,,,,,,,,,,,,,,,,,,,,,,,,,,,,,,,,,,,,,,,,,,,,,,,,,,,,,,,,,,,,,,,,,,,,,,,,,,,,,,,,,,,,,,,,,,,,,,
,,60b8b31eb3143c92b950deba,2026-03-17_10h34.43.039,kallum_motion_pilot_GIST_update_2,2026.1.1,Win32,59.88023952,60b8b31eb3143c92b950deba,69b92ab4aef6dee357cd729a,69b92e2bcff8c33e1afc2614,0.0177,0.0177,0,82,82,121,1,fiveseven,,,,,,,,,,,,,,,,,,,,,,,,,,,,,,,,,,,,,,,,,,,,,,,,,,,,,,,,,,,,,,,,,,,,,,,,,,,,,,,,,,,,,,,,,,,,,,,,,,,,,,,,,,,,,,,,,,,,,,,,,,,,,,,,,,,,,,,,,
,,60b8b31eb3143c92b950deba,2026-03-17_10h34.43.039,kallum_motion_pilot_GIST_update_2,2026.1.1,Win32,59.88023952,60b8b31eb3143c92b950deba,69b92ab4aef6dee357cd729a,69b92e2bcff8c33e1afc2614,0.0177,0.0177,0,83,83,39,1,fourthree,,,,,,,,,,,,,,,,,,,,,,,,,,,,,,,,,,,,,,,,,,,,,,,,,,,,,,,,,,,,,,,,,,,,,,,,,,,,,,,,,,,,,,,,,,,,,,,,,,,,,,,,,,,,,,,,,,,,,,,,,,,,,,,,,,,,,,,,,
,,60b8b31eb3143c92b950deba,2026-03-17_10h34.43.039,kallum_motion_pilot_GIST_update_2,2026.1.1,Win32,59.88023952,60b8b31eb3143c92b950deba,69b92ab4aef6dee357cd729a,69b92e2bcff8c33e1afc2614,0.0177,0.0177,0,84,84,69,1,threefour,,,,,,,,,,,,,,,,,,,,,,,,,,,,,,,,,,,,,,,,,,,,,,,,,,,,,,,,,,,,,,,,,,,,,,,,,,,,,,,,,,,,,,,,,,,,,,,,,,,,,,,,,,,,,,,,,,,,,,,,,,,,,,,,,,,,,,,,,
,,60b8b31eb3143c92b950deba,2026-03-17_10h34.43.039,kallum_motion_pilot_GIST_update_2,2026.1.1,Win32,59.88023952,60b8b31eb3143c92b950deba,69b92ab4aef6dee357cd729a,69b92e2bcff8c33e1afc2614,0.0177,0.0177,0,85,85,145,1,fiveseven,,,,,,,,,,,,,,,,,,,,,,,,,,,,,,,,,,,,,,,,,,,,,,,,,,,,,,,,,,,,,,,,,,,,,,,,,,,,,,,,,,,,,,,,,,,,,,,,,,,,,,,,,,,,,,,,,,,,,,,,,,,,,,,,,,,,,,,,,
,,60b8b31eb3143c92b950deba,2026-03-17_10h34.43.039,kallum_motion_pilot_GIST_update_2,2026.1.1,Win32,59.88023952,60b8b31eb3143c92b950deba,69b92ab4aef6dee357cd729a,69b92e2bcff8c33e1afc2614,0.0178,0.0178,0,86,86,112,1,fivesix,,,,,,,,,,,,,,,,,,,,,,,,,,,,,,,,,,,,,,,,,,,,,,,,,,,,,,,,,,,,,,,,,,,,,,,,,,,,,,,,,,,,,,,,,,,,,,,,,,,,,,,,,,,,,,,,,,,,,,,,,,,,,,,,,,,,,,,,,
,,60b8b31eb3143c92b950deba,2026-03-17_10h34.43.039,kallum_motion_pilot_GIST_update_2,2026.1.1,Win32,59.88023952,60b8b31eb3143c92b950deba,69b92ab4aef6dee357cd729a,69b92e2bcff8c33e1afc2614,0.0178,0.0178,0,87,87,59,1,twofour,,,,,,,,,,,,,,,,,,,,,,,,,,,,,,,,,,,,,,,,,,,,,,,,,,,,,,,,,,,,,,,,,,,,,,,,,,,,,,,,,,,,,,,,,,,,,,,,,,,,,,,,,,,,,,,,,,,,,,,,,,,,,,,,,,,,,,,,,
,,60b8b31eb3143c92b950deba,2026-03-17_10h34.43.039,kallum_motion_pilot_GIST_update_2,2026.1.1,Win32,59.88023952,60b8b31eb3143c92b950deba,69b92ab4aef6dee357cd729a,69b92e2bcff8c33e1afc2614,0.0179,0.0179,0,88,88,56,1,onetwo,,,,,,,,,,,,,,,,,,,,,,,,,,,,,,,,,,,,,,,,,,,,,,,,,,,,,,,,,,,,,,,,,,,,,,,,,,,,,,,,,,,,,,,,,,,,,,,,,,,,,,,,,,,,,,,,,,,,,,,,,,,,,,,,,,,,,,,,,
,,60b8b31eb3143c92b950deba,2026-03-17_10h34.43.039,kallum_motion_pilot_GIST_update_2,2026.1.1,Win32,59.88023952,60b8b31eb3143c92b950deba,69b92ab4aef6dee357cd729a,69b92e2bcff8c33e1afc2614,0.0179,0.0179,0,89,89,22,1,fourtwo,,,,,,,,,,,,,,,,,,,,,,,,,,,,,,,,,,,,,,,,,,,,,,,,,,,,,,,,,,,,,,,,,,,,,,,,,,,,,,,,,,,,,,,,,,,,,,,,,,,,,,,,,,,,,,,,,,,,,,,,,,,,,,,,,,,,,,,,,
,,60b8b31eb3143c92b950deba,2026-03-17_10h34.43.039,kallum_motion_pilot_GIST_update_2,2026.1.1,Win32,59.88023952,60b8b31eb3143c92b950deba,69b92ab4aef6dee357cd729a,69b92e2bcff8c33e1afc2614,0.0179,0.0179,0,90,90,143,1,eightseven,,,,,,,,,,,,,,,,,,,,,,,,,,,,,,,,,,,,,,,,,,,,,,,,,,,,,,,,,,,,,,,,,,,,,,,,,,,,,,,,,,,,,,,,,,,,,,,,,,,,,,,,,,,,,,,,,,,,,,,,,,,,,,,,,,,,,,,,,
,,60b8b31eb3143c92b950deba,2026-03-17_10h34.43.039,kallum_motion_pilot_GIST_update_2,2026.1.1,Win32,59.88023952,60b8b31eb3143c92b950deba,69b92ab4aef6dee357cd729a,69b92e2bcff8c33e1afc2614,0.018,0.018,0,91,91,124,1,sevenfive,,,,,,,,,,,,,,,,,,,,,,,,,,,,,,,,,,,,,,,,,,,,,,,,,,,,,,,,,,,,,,,,,,,,,,,,,,,,,,,,,,,,,,,,,,,,,,,,,,,,,,,,,,,,,,,,,,,,,,,,,,,,,,,,,,,,,,,,,
,,60b8b31eb3143c92b950deba,2026-03-17_10h34.43.039,kallum_motion_pilot_GIST_update_2,2026.1.1,Win32,59.88023952,60b8b31eb3143c92b950deba,69b92ab4aef6dee357cd729a,69b92e2bcff8c33e1afc2614,0.018,0.018,0,92,92,150,1,eightsix,,,,,,,,,,,,,,,,,,,,,,,,,,,,,,,,,,,,,,,,,,,,,,,,,,,,,,,,,,,,,,,,,,,,,,,,,,,,,,,,,,,,,,,,,,,,,,,,,,,,,,,,,,,,,,,,,,,,,,,,,,,,,,,,,,,,,,,,,
,,60b8b31eb3143c92b950deba,2026-03-17_10h34.43.039,kallum_motion_pilot_GIST_update_2,2026.1.1,Win32,59.88023952,60b8b31eb3143c92b950deba,69b92ab4aef6dee357cd729a,69b92e2bcff8c33e1afc2614,0.0181,0.0181,0,93,93,148,1,sevenfive,,,,,,,,,,,,,,,,,,,,,,,,,,,,,,,,,,,,,,,,,,,,,,,,,,,,,,,,,,,,,,,,,,,,,,,,,,,,,,,,,,,,,,,,,,,,,,,,,,,,,,,,,,,,,,,,,,,,,,,,,,,,,,,,,,,,,,,,,
,,60b8b31eb3143c92b950deba,2026-03-17_10h34.43.039,kallum_motion_pilot_GIST_update_2,2026.1.1,Win32,59.88023952,60b8b31eb3143c92b950deba,69b92ab4aef6dee357cd729a,69b92e2bcff8c33e1afc2614,0.0181,0.0181,0,94,94,151,1,eightseven,,,,,,,,,,,,,,,,,,,,,,,,,,,,,,,,,,,,,,,,,,,,,,,,,,,,,,,,,,,,,,,,,,,,,,,,,,,,,,,,,,,,,,,,,,,,,,,,,,,,,,,,,,,,,,,,,,,,,,,,,,,,,,,,,,,,,,,,,
,,60b8b31eb3143c92b950deba,2026-03-17_10h34.43.039,kallum_motion_pilot_GIST_update_2,2026.1.1,Win32,59.88023952,60b8b31eb3143c92b950deba,69b92ab4aef6dee357cd729a,69b92e2bcff8c33e1afc2614,0.0181,0.0181,0,95,95,123,1,sixeight,,,,,,,,,,,,,,,,,,,,,,,,,,,,,,,,,,,,,,,,,,,,,,,,,,,,,,,,,,,,,,,,,,,,,,,,,,,,,,,,,,,,,,,,,,,,,,,,,,,,,,,,,,,,,,,,,,,,,,,,,,,,,,,,,,,,,,,,,
,,60b8b31eb3143c92b950deba,2026-03-17_10h34.43.039,kallum_motion_pilot_GIST_update_2,2026.1.1,Win32,59.88023952,60b8b31eb3143c92b950deba,69b92ab4aef6dee357cd729a,69b92e2bcff8c33e1afc2614,0.0182,0.0182,0,96,96,135,1,eightseven,,,,,,,,,,,,,,,,,,,,,,,,,,,,,,,,,,,,,,,,,,,,,,,,,,,,,,,,,,,,,,,,,,,,,,,,,,,,,,,,,,,,,,,,,,,,,,,,,,,,,,,,,,,,,,,,,,,,,,,,,,,,,,,,,,,,,,,,,
,,60b8b31eb3143c92b950deba,2026-03-17_10h34.43.039,kallum_motion_pilot_GIST_update_2,2026.1.1,Win32,59.88023952,60b8b31eb3143c92b950deba,69b92ab4aef6dee357cd729a,69b92e2bcff8c33e1afc2614,0.0183,0.0183,0,97,97,86,1,eightsix,,,,,,,,,,,,,,,,,,,,,,,,,,,,,,,,,,,,,,,,,,,,,,,,,,,,,,,,,,,,,,,,,,,,,,,,,,,,,,,,,,,,,,,,,,,,,,,,,,,,,,,,,,,,,,,,,,,,,,,,,,,,,,,,,,,,,,,,,
,,60b8b31eb3143c92b950deba,2026-03-17_10h34.43.039,kallum_motion_pilot_GIST_update_2,2026.1.1,Win32,59.88023952,60b8b31eb3143c92b950deba,69b92ab4aef6dee357cd729a,69b92e2bcff8c33e1afc2614,0.0183,0.0183,0,98,98,102,1,eightsix,,,,,,,,,,,,,,,,,,,,,,,,,,,,,,,,,,,,,,,,,,,,,,,,,,,,,,,,,,,,,,,,,,,,,,,,,,,,,,,,,,,,,,,,,,,,,,,,,,,,,,,,,,,,,,,,,,,,,,,,,,,,,,,,,,,,,,,,,
,,60b8b31eb3143c92b950deba,2026-03-17_10h34.43.039,kallum_motion_pilot_GIST_update_2,2026.1.1,Win32,59.88023952,60b8b31eb3143c92b950deba,69b92ab4aef6dee357cd729a,69b92e2bcff8c33e1afc2614,0.0184,0.0184,0,99,99,73,1,onethree,,,,,,,,,,,,,,,,,,,,,,,,,,,,,,,,,,,,,,,,,,,,,,,,,,,,,,,,,,,,,,,,,,,,,,,,,,,,,,,,,,,,,,,,,,,,,,,,,,,,,,,,,,,,,,,,,,,,,,,,,,,,,,,,,,,,,,,,,
,,60b8b31eb3143c92b950deba,2026-03-17_10h34.43.039,kallum_motion_pilot_GIST_update_2,2026.1.1,Win32,59.88023952,60b8b31eb3143c92b950deba,69b92ab4aef6dee357cd729a,69b92e2bcff8c33e1afc2614,0.0185,0.0185,0,100,100,156,1,sevenfive,,,,,,,,,,,,,,,,,,,,,,,,,,,,,,,,,,,,,,,,,,,,,,,,,,,,,,,,,,,,,,,,,,,,,,,,,,,,,,,,,,,,,,,,,,,,,,,,,,,,,,,,,,,,,,,,,,,,,,,,,,,,,,,,,,,,,,,,,
,,60b8b31eb3143c92b950deba,2026-03-17_10h34.43.039,kallum_motion_pilot_GIST_update_2,2026.1.1,Win32,59.88023952,60b8b31eb3143c92b950deba,69b92ab4aef6dee357cd729a,69b92e2bcff8c33e1afc2614,0.0186,0.0186,0,101,101,16,1,onetwo,,,,,,,,,,,,,,,,,,,,,,,,,,,,,,,,,,,,,,,,,,,,,,,,,,,,,,,,,,,,,,,,,,,,,,,,,,,,,,,,,,,,,,,,,,,,,,,,,,,,,,,,,,,,,,,,,,,,,,,,,,,,,,,,,,,,,,,,,
,,60b8b31eb3143c92b950deba,2026-03-17_10h34.43.039,kallum_motion_pilot_GIST_update_2,2026.1.1,Win32,59.88023952,60b8b31eb3143c92b950deba,69b92ab4aef6dee357cd729a,69b92e2bcff8c33e1afc2614,0.0186,0.0186,0,102,102,158,1,eightsix,,,,,,,,,,,,,,,,,,,,,,,,,,,,,,,,,,,,,,,,,,,,,,,,,,,,,,,,,,,,,,,,,,,,,,,,,,,,,,,,,,,,,,,,,,,,,,,,,,,,,,,,,,,,,,,,,,,,,,,,,,,,,,,,,,,,,,,,,
,,60b8b31eb3143c92b950deba,2026-03-17_10h34.43.039,kallum_motion_pilot_GIST_update_2,2026.1.1,Win32,59.88023952,60b8b31eb3143c92b950deba,69b92ab4aef6dee357cd729a,69b92e2bcff8c33e1afc2614,0.0186,0.0186,0,103,103,23,1,fourthree,,,,,,,,,,,,,,,,,,,,,,,,,,,,,,,,,,,,,,,,,,,,,,,,,,,,,,,,,,,,,,,,,,,,,,,,,,,,,,,,,,,,,,,,,,,,,,,,,,,,,,,,,,,,,,,,,,,,,,,,,,,,,,,,,,,,,,,,,
,,60b8b31eb3143c92b950deba,2026-03-17_10h34.43.039,kallum_motion_pilot_GIST_update_2,2026.1.1,Win32,59.88023952,60b8b31eb3143c92b950deba,69b92ab4aef6dee357cd729a,69b92e2bcff8c33e1afc2614,0.0186,0.0186,0,104,104,160,1,fivesix,,,,,,,,,,,,,,,,,,,,,,,,,,,,,,,,,,,,,,,,,,,,,,,,,,,,,,,,,,,,,,,,,,,,,,,,,,,,,,,,,,,,,,,,,,,,,,,,,,,,,,,,,,,,,,,,,,,,,,,,,,,,,,,,,,,,,,,,,
,,60b8b31eb3143c92b950deba,2026-03-17_10h34.43.039,kallum_motion_pilot_GIST_update_2,2026.1.1,Win32,59.88023952,60b8b31eb3143c92b950deba,69b92ab4aef6dee357cd729a,69b92e2bcff8c33e1afc2614,0.0187,0.0187,0,105,105,6,1,fourtwo,,,,,,,,,,,,,,,,,,,,,,,,,,,,,,,,,,,,,,,,,,,,,,,,,,,,,,,,,,,,,,,,,,,,,,,,,,,,,,,,,,,,,,,,,,,,,,,,,,,,,,,,,,,,,,,,,,,,,,,,,,,,,,,,,,,,,,,,,
,,60b8b31eb3143c92b950deba,2026-03-17_10h34.43.039,kallum_motion_pilot_GIST_update_2,2026.1.1,Win32,59.88023952,60b8b31eb3143c92b950deba,69b92ab4aef6dee357cd729a,69b92e2bcff8c33e1afc2614,0.0187,0.0187,0,106,106,139,1,sixeight,,,,,,,,,,,,,,,,,,,,,,,,,,,,,,,,,,,,,,,,,,,,,,,,,,,,,,,,,,,,,,,,,,,,,,,,,,,,,,,,,,,,,,,,,,,,,,,,,,,,,,,,,,,,,,,,,,,,,,,,,,,,,,,,,,,,,,,,,
,,60b8b31eb3143c92b950deba,2026-03-17_10h34.43.039,kallum_motion_pilot_GIST_update_2,2026.1.1,Win32,59.88023952,60b8b31eb3143c92b950deba,69b92ab4aef6dee357cd729a,69b92e2bcff8c33e1afc2614,0.0188,0.0188,0,107,107,137,1,fiveseven,,,,,,,,,,,,,,,,,,,,,,,,,,,,,,,,,,,,,,,,,,,,,,,,,,,,,,,,,,,,,,,,,,,,,,,,,,,,,,,,,,,,,,,,,,,,,,,,,,,,,,,,,,,,,,,,,,,,,,,,,,,,,,,,,,,,,,,,,
,,60b8b31eb3143c92b950deba,2026-03-17_10h34.43.039,kallum_motion_pilot_GIST_update_2,2026.1.1,Win32,59.88023952,60b8b31eb3143c92b950deba,69b92ab4aef6dee357cd729a,69b92e2bcff8c33e1afc2614,0.0189,0.0189,0,108,108,85,1,seveneight,,,,,,,,,,,,,,,,,,,,,,,,,,,,,,,,,,,,,,,,,,,,,,,,,,,,,,,,,,,,,,,,,,,,,,,,,,,,,,,,,,,,,,,,,,,,,,,,,,,,,,,,,,,,,,,,,,,,,,,,,,,,,,,,,,,,,,,,,
,,60b8b31eb3143c92b950deba,2026-03-17_10h34.43.039,kallum_motion_pilot_GIST_update_2,2026.1.1,Win32,59.88023952,60b8b31eb3143c92b950deba,69b92ab4aef6dee357cd729a,69b92e2bcff8c33e1afc2614,0.019,0.019,0,109,109,96,1,fivesix,,,,,,,,,,,,,,,,,,,,,,,,,,,,,,,,,,,,,,,,,,,,,,,,,,,,,,,,,,,,,,,,,,,,,,,,,,,,,,,,,,,,,,,,,,,,,,,,,,,,,,,,,,,,,,,,,,,,,,,,,,,,,,,,,,,,,,,,,
,,60b8b31eb3143c92b950deba,2026-03-17_10h34.43.039,kallum_motion_pilot_GIST_update_2,2026.1.1,Win32,59.88023952,60b8b31eb3143c92b950deba,69b92ab4aef6dee357cd729a,69b92e2bcff8c33e1afc2614,0.019,0.019,0,110,110,154,1,sixfive,,,,,,,,,,,,,,,,,,,,,,,,,,,,,,,,,,,,,,,,,,,,,,,,,,,,,,,,,,,,,,,,,,,,,,,,,,,,,,,,,,,,,,,,,,,,,,,,,,,,,,,,,,,,,,,,,,,,,,,,,,,,,,,,,,,,,,,,,
,,60b8b31eb3143c92b950deba,2026-03-17_10h34.43.039,kallum_motion_pilot_GIST_update_2,2026.1.1,Win32,59.88023952,60b8b31eb3143c92b950deba,69b92ab4aef6dee357cd729a,69b92e2bcff8c33e1afc2614,0.0191,0.0191,0,111,111,81,1,fiveseven,,,,,,,,,,,,,,,,,,,,,,,,,,,,,,,,,,,,,,,,,,,,,,,,,,,,,,,,,,,,,,,,,,,,,,,,,,,,,,,,,,,,,,,,,,,,,,,,,,,,,,,,,,,,,,,,,,,,,,,,,,,,,,,,,,,,,,,,,
,,60b8b31eb3143c92b950deba,2026-03-17_10h34.43.039,kallum_motion_pilot_GIST_update_2,2026.1.1,Win32,59.88023952,60b8b31eb3143c92b950deba,69b92ab4aef6dee357cd729a,69b92e2bcff8c33e1afc2614,0.0191,0.0191,0,112,112,21,1,threefour,,,,,,,,,,,,,,,,,,,,,,,,,,,,,,,,,,,,,,,,,,,,,,,,,,,,,,,,,,,,,,,,,,,,,,,,,,,,,,,,,,,,,,,,,,,,,,,,,,,,,,,,,,,,,,,,,,,,,,,,,,,,,,,,,,,,,,,,,
,,60b8b31eb3143c92b950deba,2026-03-17_10h34.43.039,kallum_motion_pilot_GIST_update_2,2026.1.1,Win32,59.88023952,60b8b31eb3143c92b950deba,69b92ab4aef6dee357cd729a,69b92e2bcff8c33e1afc2614,0.0192,0.0192,0,113,113,27,1,twofour,,,,,,,,,,,,,,,,,,,,,,,,,,,,,,,,,,,,,,,,,,,,,,,,,,,,,,,,,,,,,,,,,,,,,,,,,,,,,,,,,,,,,,,,,,,,,,,,,,,,,,,,,,,,,,,,,,,,,,,,,,,,,,,,,,,,,,,,,
,,60b8b31eb3143c92b950deba,2026-03-17_10h34.43.039,kallum_motion_pilot_GIST_update_2,2026.1.1,Win32,59.88023952,60b8b31eb3143c92b950deba,69b92ab4aef6dee357cd729a,69b92e2bcff8c33e1afc2614,0.0192,0.0193,0,114,114,106,1,sixfive,,,,,,,,,,,,,,,,,,,,,,,,,,,,,,,,,,,,,,,,,,,,,,,,,,,,,,,,,,,,,,,,,,,,,,,,,,,,,,,,,,,,,,,,,,,,,,,,,,,,,,,,,,,,,,,,,,,,,,,,,,,,,,,,,,,,,,,,,
,,60b8b31eb3143c92b950deba,2026-03-17_10h34.43.039,kallum_motion_pilot_GIST_update_2,2026.1.1,Win32,59.88023952,60b8b31eb3143c92b950deba,69b92ab4aef6dee357cd729a,69b92e2bcff8c33e1afc2614,0.0193,0.0193,0,115,115,11,1,twofour,,,,,,,,,,,,,,,,,,,,,,,,,,,,,,,,,,,,,,,,,,,,,,,,,,,,,,,,,,,,,,,,,,,,,,,,,,,,,,,,,,,,,,,,,,,,,,,,,,,,,,,,,,,,,,,,,,,,,,,,,,,,,,,,,,,,,,,,,
,,60b8b31eb3143c92b950deba,2026-03-17_10h34.43.039,kallum_motion_pilot_GIST_update_2,2026.1.1,Win32,59.88023952,60b8b31eb3143c92b950deba,69b92ab4aef6dee357cd729a,69b92e2bcff8c33e1afc2614,0.0193,0.0193,0,116,116,131,1,sixeight,,,,,,,,,,,,,,,,,,,,,,,,,,,,,,,,,,,,,,,,,,,,,,,,,,,,,,,,,,,,,,,,,,,,,,,,,,,,,,,,,,,,,,,,,,,,,,,,,,,,,,,,,,,,,,,,,,,,,,,,,,,,,,,,,,,,,,,,,
,,60b8b31eb3143c92b950deba,2026-03-17_10h34.43.039,kallum_motion_pilot_GIST_update_2,2026.1.1,Win32,59.88023952,60b8b31eb3143c92b950deba,69b92ab4aef6dee357cd729a,69b92e2bcff8c33e1afc2614,0.0194,0.0194,0,117,117,138,1,sixfive,,,,,,,,,,,,,,,,,,,,,,,,,,,,,,,,,,,,,,,,,,,,,,,,,,,,,,,,,,,,,,,,,,,,,,,,,,,,,,,,,,,,,,,,,,,,,,,,,,,,,,,,,,,,,,,,,,,,,,,,,,,,,,,,,,,,,,,,,
,,60b8b31eb3143c92b950deba,2026-03-17_10h34.43.039,kallum_motion_pilot_GIST_update_2,2026.1.1,Win32,59.88023952,60b8b31eb3143c92b950deba,69b92ab4aef6dee357cd729a,69b92e2bcff8c33e1afc2614,0.0194,0.0194,0,118,118,34,1,twoone,,,,,,,,,,,,,,,,,,,,,,,,,,,,,,,,,,,,,,,,,,,,,,,,,,,,,,,,,,,,,,,,,,,,,,,,,,,,,,,,,,,,,,,,,,,,,,,,,,,,,,,,,,,,,,,,,,,,,,,,,,,,,,,,,,,,,,,,,
,,60b8b31eb3143c92b950deba,2026-03-17_10h34.43.039,kallum_motion_pilot_GIST_update_2,2026.1.1,Win32,59.88023952,60b8b31eb3143c92b950deba,69b92ab4aef6dee357cd729a,69b92e2bcff8c33e1afc2614,0.0195,0.0195,0,119,119,83,1,sixeight,,,,,,,,,,,,,,,,,,,,,,,,,,,,,,,,,,,,,,,,,,,,,,,,,,,,,,,,,,,,,,,,,,,,,,,,,,,,,,,,,,,,,,,,,,,,,,,,,,,,,,,,,,,,,,,,,,,,,,,,,,,,,,,,,,,,,,,,,
,,60b8b31eb3143c92b950deba,2026-03-17_10h34.43.039,kallum_motion_pilot_GIST_update_2,2026.1.1,Win32,59.88023952,60b8b31eb3143c92b950deba,69b92ab4aef6dee357cd729a,69b92e2bcff8c33e1afc2614,0.0196,0.0197,0,120,120,74,1,twoone,,,,,,,,,,,,,,,,,,,,,,,,,,,,,,,,,,,,,,,,,,,,,,,,,,,,,,,,,,,,,,,,,,,,,,,,,,,,,,,,,,,,,,,,,,,,,,,,,,,,,,,,,,,,,,,,,,,,,,,,,,,,,,,,,,,,,,,,,
,,60b8b31eb3143c92b950deba,2026-03-17_10h34.43.039,kallum_motion_pilot_GIST_update_2,2026.1.1,Win32,59.88023952,60b8b31eb3143c92b950deba,69b92ab4aef6dee357cd729a,69b92e2bcff8c33e1afc2614,0.0197,0.0197,0,121,121,144,1,fivesix,,,,,,,,,,,,,,,,,,,,,,,,,,,,,,,,,,,,,,,,,,,,,,,,,,,,,,,,,,,,,,,,,,,,,,,,,,,,,,,,,,,,,,,,,,,,,,,,,,,,,,,,,,,,,,,,,,,,,,,,,,,,,,,,,,,,,,,,,
,,60b8b31eb3143c92b950deba,2026-03-17_10h34.43.039,kallum_motion_pilot_GIST_update_2,2026.1.1,Win32,59.88023952,60b8b31eb3143c92b950deba,69b92ab4aef6dee357cd729a,69b92e2bcff8c33e1afc2614,0.0198,0.0198,0,122,122,8,1,onetwo,,,,,,,,,,,,,,,,,,,,,,,,,,,,,,,,,,,,,,,,,,,,,,,,,,,,,,,,,,,,,,,,,,,,,,,,,,,,,,,,,,,,,,,,,,,,,,,,,,,,,,,,,,,,,,,,,,,,,,,,,,,,,,,,,,,,,,,,,
,,60b8b31eb3143c92b950deba,2026-03-17_10h34.43.039,kallum_motion_pilot_GIST_update_2,2026.1.1,Win32,59.88023952,60b8b31eb3143c92b950deba,69b92ab4aef6dee357cd729a,69b92e2bcff8c33e1afc2614,0.02,0.02,0,123,123,35,1,twofour,,,,,,,,,,,,,,,,,,,,,,,,,,,,,,,,,,,,,,,,,,,,,,,,,,,,,,,,,,,,,,,,,,,,,,,,,,,,,,,,,,,,,,,,,,,,,,,,,,,,,,,,,,,,,,,,,,,,,,,,,,,,,,,,,,,,,,,,,
,,60b8b31eb3143c92b950deba,2026-03-17_10h34.43.039,kallum_motion_pilot_GIST_update_2,2026.1.1,Win32,59.88023952,60b8b31eb3143c92b950deba,69b92ab4aef6dee357cd729a,69b92e2bcff8c33e1afc2614,0.02,0.02,0,124,124,44,1,threeone,,,,,,,,,,,,,,,,,,,,,,,,,,,,,,,,,,,,,,,,,,,,,,,,,,,,,,,,,,,,,,,,,,,,,,,,,,,,,,,,,,,,,,,,,,,,,,,,,,,,,,,,,,,,,,,,,,,,,,,,,,,,,,,,,,,,,,,,,
,,60b8b31eb3143c92b950deba,2026-03-17_10h34.43.039,kallum_motion_pilot_GIST_update_2,2026.1.1,Win32,59.88023952,60b8b31eb3143c92b950deba,69b92ab4aef6dee357cd729a,69b92e2bcff8c33e1afc2614,0.02,0.02,0,125,125,46,1,fourtwo,,,,,,,,,,,,,,,,,,,,,,,,,,,,,,,,,,,,,,,,,,,,,,,,,,,,,,,,,,,,,,,,,,,,,,,,,,,,,,,,,,,,,,,,,,,,,,,,,,,,,,,,,,,,,,,,,,,,,,,,,,,,,,,,,,,,,,,,,
,,60b8b31eb3143c92b950deba,2026-03-17_10h34.43.039,kallum_motion_pilot_GIST_update_2,2026.1.1,Win32,59.88023952,60b8b31eb3143c92b950deba,69b92ab4aef6dee357cd729a,69b92e2bcff8c33e1afc2614,0.0201,0.0201,0,126,126,90,1,sixfive,,,,,,,,,,,,,,,,,,,,,,,,,,,,,,,,,,,,,,,,,,,,,,,,,,,,,,,,,,,,,,,,,,,,,,,,,,,,,,,,,,,,,,,,,,,,,,,,,,,,,,,,,,,,,,,,,,,,,,,,,,,,,,,,,,,,,,,,,
,,60b8b31eb3143c92b950deba,2026-03-17_10h34.43.039,kallum_motion_pilot_GIST_update_2,2026.1.1,Win32,59.88023952,60b8b31eb3143c92b950deba,69b92ab4aef6dee357cd729a,69b92e2bcff8c33e1afc2614,0.0202,0.0202,0,127,127,64,1,onetwo,,,,,,,,,,,,,,,,,,,,,,,,,,,,,,,,,,,,,,,,,,,,,,,,,,,,,,,,,,,,,,,,,,,,,,,,,,,,,,,,,,,,,,,,,,,,,,,,,,,,,,,,,,,,,,,,,,,,,,,,,,,,,,,,,,,,,,,,,
,,60b8b31eb3143c92b950deba,2026-03-17_10h34.43.039,kallum_motion_pilot_GIST_update_2,2026.1.1,Win32,59.88023952,60b8b31eb3143c92b950deba,69b92ab4aef6dee357cd729a,69b92e2bcff8c33e1afc2614,0.0202,0.0202,0,128,128,43,1,twofour,,,,,,,,,,,,,,,,,,,,,,,,,,,,,,,,,,,,,,,,,,,,,,,,,,,,,,,,,,,,,,,,,,,,,,,,,,,,,,,,,,,,,,,,,,,,,,,,,,,,,,,,,,,,,,,,,,,,,,,,,,,,,,,,,,,,,,,,,
,,60b8b31eb3143c92b950deba,2026-03-17_10h34.43.039,kallum_motion_pilot_GIST_update_2,2026.1.1,Win32,59.88023952,60b8b31eb3143c92b950deba,69b92ab4aef6dee357cd729a,69b92e2bcff8c33e1afc2614,0.0202,0.0202,0,129,129,161,1,fiveseven,,,,,,,,,,,,,,,,,,,,,,,,,,,,,,,,,,,,,,,,,,,,,,,,,,,,,,,,,,,,,,,,,,,,,,,,,,,,,,,,,,,,,,,,,,,,,,,,,,,,,,,,,,,,,,,,,,,,,,,,,,,,,,,,,,,,,,,,,
,,60b8b31eb3143c92b950deba,2026-03-17_10h34.43.039,kallum_motion_pilot_GIST_update_2,2026.1.1,Win32,59.88023952,60b8b31eb3143c92b950deba,69b92ab4aef6dee357cd729a,69b92e2bcff8c33e1afc2614,0.0203,0.0203,0,130,130,91,1,sixeight,,,,,,,,,,,,,,,,,,,,,,,,,,,,,,,,,,,,,,,,,,,,,,,,,,,,,,,,,,,,,,,,,,,,,,,,,,,,,,,,,,,,,,,,,,,,,,,,,,,,,,,,,,,,,,,,,,,,,,,,,,,,,,,,,,,,,,,,,
,,60b8b31eb3143c92b950deba,2026-03-17_10h34.43.039,kallum_motion_pilot_GIST_update_2,2026.1.1,Win32,59.88023952,60b8b31eb3143c92b950deba,69b92ab4aef6dee357cd729a,69b92e2bcff8c33e1afc2614,0.0204,0.0204,0,131,131,125,1,seveneight,,,,,,,,,,,,,,,,,,,,,,,,,,,,,,,,,,,,,,,,,,,,,,,,,,,,,,,,,,,,,,,,,,,,,,,,,,,,,,,,,,,,,,,,,,,,,,,,,,,,,,,,,,,,,,,,,,,,,,,,,,,,,,,,,,,,,,,,,
,,60b8b31eb3143c92b950deba,2026-03-17_10h34.43.039,kallum_motion_pilot_GIST_update_2,2026.1.1,Win32,59.88023952,60b8b31eb3143c92b950deba,69b92ab4aef6dee357cd729a,69b92e2bcff8c33e1afc2614,0.0204,0.0204,0,132,132,129,1,fiveseven,,,,,,,,,,,,,,,,,,,,,,,,,,,,,,,,,,,,,,,,,,,,,,,,,,,,,,,,,,,,,,,,,,,,,,,,,,,,,,,,,,,,,,,,,,,,,,,,,,,,,,,,,,,,,,,,,,,,,,,,,,,,,,,,,,,,,,,,,
,,60b8b31eb3143c92b950deba,2026-03-17_10h34.43.039,kallum_motion_pilot_GIST_update_2,2026.1.1,Win32,59.88023952,60b8b31eb3143c92b950deba,69b92ab4aef6dee357cd729a,69b92e2bcff8c33e1afc2614,0.0204,0.0204,0,133,133,70,1,fourtwo,,,,,,,,,,,,,,,,,,,,,,,,,,,,,,,,,,,,,,,,,,,,,,,,,,,,,,,,,,,,,,,,,,,,,,,,,,,,,,,,,,,,,,,,,,,,,,,,,,,,,,,,,,,,,,,,,,,,,,,,,,,,,,,,,,,,,,,,,
,,60b8b31eb3143c92b950deba,2026-03-17_10h34.43.039,kallum_motion_pilot_GIST_update_2,2026.1.1,Win32,59.88023952,60b8b31eb3143c92b950deba,69b92ab4aef6dee357cd729a,69b92e2bcff8c33e1afc2614,0.0205,0.0205,0,134,134,84,1,sevenfive,,,,,,,,,,,,,,,,,,,,,,,,,,,,,,,,,,,,,,,,,,,,,,,,,,,,,,,,,,,,,,,,,,,,,,,,,,,,,,,,,,,,,,,,,,,,,,,,,,,,,,,,,,,,,,,,,,,,,,,,,,,,,,,,,,,,,,,,,
,,60b8b31eb3143c92b950deba,2026-03-17_10h34.43.039,kallum_motion_pilot_GIST_update_2,2026.1.1,Win32,59.88023952,60b8b31eb3143c92b950deba,69b92ab4aef6dee357cd729a,69b92e2bcff8c33e1afc2614,0.0205,0.0205,0,135,135,3,1,twofour,,,,,,,,,,,,,,,,,,,,,,,,,,,,,,,,,,,,,,,,,,,,,,,,,,,,,,,,,,,,,,,,,,,,,,,,,,,,,,,,,,,,,,,,,,,,,,,,,,,,,,,,,,,,,,,,,,,,,,,,,,,,,,,,,,,,,,,,,
,,60b8b31eb3143c92b950deba,2026-03-17_10h34.43.039,kallum_motion_pilot_GIST_update_2,2026.1.1,Win32,59.88023952,60b8b31eb3143c92b950deba,69b92ab4aef6dee357cd729a,69b92e2bcff8c33e1afc2614,0.0206,0.0206,0,136,136,30,1,fourtwo,,,,,,,,,,,,,,,,,,,,,,,,,,,,,,,,,,,,,,,,,,,,,,,,,,,,,,,,,,,,,,,,,,,,,,,,,,,,,,,,,,,,,,,,,,,,,,,,,,,,,,,,,,,,,,,,,,,,,,,,,,,,,,,,,,,,,,,,,
,,60b8b31eb3143c92b950deba,2026-03-17_10h34.43.039,kallum_motion_pilot_GIST_update_2,2026.1.1,Win32,59.88023952,60b8b31eb3143c92b950deba,69b92ab4aef6dee357cd729a,69b92e2bcff8c33e1afc2614,0.0207,0.0207,0,137,137,75,1,twofour,,,,,,,,,,,,,,,,,,,,,,,,,,,,,,,,,,,,,,,,,,,,,,,,,,,,,,,,,,,,,,,,,,,,,,,,,,,,,,,,,,,,,,,,,,,,,,,,,,,,,,,,,,,,,,,,,,,,,,,,,,,,,,,,,,,,,,,,,
,,60b8b31eb3143c92b950deba,2026-03-17_10h34.43.039,kallum_motion_pilot_GIST_update_2,2026.1.1,Win32,59.88023952,60b8b31eb3143c92b950deba,69b92ab4aef6dee357cd729a,69b92e2bcff8c33e1afc2614,0.0207,0.0207,0,138,138,118,1,eightsix,,,,,,,,,,,,,,,,,,,,,,,,,,,,,,,,,,,,,,,,,,,,,,,,,,,,,,,,,,,,,,,,,,,,,,,,,,,,,,,,,,,,,,,,,,,,,,,,,,,,,,,,,,,,,,,,,,,,,,,,,,,,,,,,,,,,,,,,,
,,60b8b31eb3143c92b950deba,2026-03-17_10h34.43.039,kallum_motion_pilot_GIST_update_2,2026.1.1,Win32,59.88023952,60b8b31eb3143c92b950deba,69b92ab4aef6dee357cd729a,69b92e2bcff8c33e1afc2614,0.0208,0.0208,0,139,139,98,1,sixfive,,,,,,,,,,,,,,,,,,,,,,,,,,,,,,,,,,,,,,,,,,,,,,,,,,,,,,,,,,,,,,,,,,,,,,,,,,,,,,,,,,,,,,,,,,,,,,,,,,,,,,,,,,,,,,,,,,,,,,,,,,,,,,,,,,,,,,,,,
,,60b8b31eb3143c92b950deba,2026-03-17_10h34.43.039,kallum_motion_pilot_GIST_update_2,2026.1.1,Win32,59.88023952,60b8b31eb3143c92b950deba,69b92ab4aef6dee357cd729a,69b92e2bcff8c33e1afc2614,0.0208,0.0208,0,140,140,1,1,onethree,,,,,,,,,,,,,,,,,,,,,,,,,,,,,,,,,,,,,,,,,,,,,,,,,,,,,,,,,,,,,,,,,,,,,,,,,,,,,,,,,,,,,,,,,,,,,,,,,,,,,,,,,,,,,,,,,,,,,,,,,,,,,,,,,,,,,,,,,
,,60b8b31eb3143c92b950deba,2026-03-17_10h34.43.039,kallum_motion_pilot_GIST_update_2,2026.1.1,Win32,59.88023952,60b8b31eb3143c92b950deba,69b92ab4aef6dee357cd729a,69b92e2bcff8c33e1afc2614,0.0209,0.0209,0,141,141,114,1,sixfive,,,,,,,,,,,,,,,,,,,,,,,,,,,,,,,,,,,,,,,,,,,,,,,,,,,,,,,,,,,,,,,,,,,,,,,,,,,,,,,,,,,,,,,,,,,,,,,,,,,,,,,,,,,,,,,,,,,,,,,,,,,,,,,,,,,,,,,,,
,,60b8b31eb3143c92b950deba,2026-03-17_10h34.43.039,kallum_motion_pilot_GIST_update_2,2026.1.1,Win32,59.88023952,60b8b31eb3143c92b950deba,69b92ab4aef6dee357cd729a,69b92e2bcff8c33e1afc2614,0.021,0.021,0,142,142,100,1,sevenfive,,,,,,,,,,,,,,,,,,,,,,,,,,,,,,,,,,,,,,,,,,,,,,,,,,,,,,,,,,,,,,,,,,,,,,,,,,,,,,,,,,,,,,,,,,,,,,,,,,,,,,,,,,,,,,,,,,,,,,,,,,,,,,,,,,,,,,,,,
,,60b8b31eb3143c92b950deba,2026-03-17_10h34.43.039,kallum_motion_pilot_GIST_update_2,2026.1.1,Win32,59.88023952,60b8b31eb3143c92b950deba,69b92ab4aef6dee357cd729a,69b92e2bcff8c33e1afc2614,0.021,0.021,0,143,143,38,1,fourtwo,,,,,,,,,,,,,,,,,,,,,,,,,,,,,,,,,,,,,,,,,,,,,,,,,,,,,,,,,,,,,,,,,,,,,,,,,,,,,,,,,,,,,,,,,,,,,,,,,,,,,,,,,,,,,,,,,,,,,,,,,,,,,,,,,,,,,,,,,
,,60b8b31eb3143c92b950deba,2026-03-17_10h34.43.039,kallum_motion_pilot_GIST_update_2,2026.1.1,Win32,59.88023952,60b8b31eb3143c92b950deba,69b92ab4aef6dee357cd729a,69b92e2bcff8c33e1afc2614,0.021,0.021,0,144,144,79,1,eightseven,,,,,,,,,,,,,,,,,,,,,,,,,,,,,,,,,,,,,,,,,,,,,,,,,,,,,,,,,,,,,,,,,,,,,,,,,,,,,,,,,,,,,,,,,,,,,,,,,,,,,,,,,,,,,,,,,,,,,,,,,,,,,,,,,,,,,,,,,
,,60b8b31eb3143c92b950deba,2026-03-17_10h34.43.039,kallum_motion_pilot_GIST_update_2,2026.1.1,Win32,59.88023952,60b8b31eb3143c92b950deba,69b92ab4aef6dee357cd729a,69b92e2bcff8c33e1afc2614,0.0211,0.0211,0,145,145,18,1,twoone,,,,,,,,,,,,,,,,,,,,,,,,,,,,,,,,,,,,,,,,,,,,,,,,,,,,,,,,,,,,,,,,,,,,,,,,,,,,,,,,,,,,,,,,,,,,,,,,,,,,,,,,,,,,,,,,,,,,,,,,,,,,,,,,,,,,,,,,,
,,60b8b31eb3143c92b950deba,2026-03-17_10h34.43.039,kallum_motion_pilot_GIST_update_2,2026.1.1,Win32,59.88023952,60b8b31eb3143c92b950deba,69b92ab4aef6dee357cd729a,69b92e2bcff8c33e1afc2614,0.0212,0.0212,0,146,146,25,1,onethree,,,,,,,,,,,,,,,,,,,,,,,,,,,,,,,,,,,,,,,,,,,,,,,,,,,,,,,,,,,,,,,,,,,,,,,,,,,,,,,,,,,,,,,,,,,,,,,,,,,,,,,,,,,,,,,,,,,,,,,,,,,,,,,,,,,,,,,,,
,,60b8b31eb3143c92b950deba,2026-03-17_10h34.43.039,kallum_motion_pilot_GIST_update_2,2026.1.1,Win32,59.88023952,60b8b31eb3143c92b950deba,69b92ab4aef6dee357cd729a,69b92e2bcff8c33e1afc2614,0.0212,0.0212,0,147,147,133,1,seveneight,,,,,,,,,,,,,,,,,,,,,,,,,,,,,,,,,,,,,,,,,,,,,,,,,,,,,,,,,,,,,,,,,,,,,,,,,,,,,,,,,,,,,,,,,,,,,,,,,,,,,,,,,,,,,,,,,,,,,,,,,,,,,,,,,,,,,,,,,
,,60b8b31eb3143c92b950deba,2026-03-17_10h34.43.039,kallum_motion_pilot_GIST_update_2,2026.1.1,Win32,59.88023952,60b8b31eb3143c92b950deba,69b92ab4aef6dee357cd729a,69b92e2bcff8c33e1afc2614,0.0212,0.0212,0,148,148,146,1,sixfive,,,,,,,,,,,,,,,,,,,,,,,,,,,,,,,,,,,,,,,,,,,,,,,,,,,,,,,,,,,,,,,,,,,,,,,,,,,,,,,,,,,,,,,,,,,,,,,,,,,,,,,,,,,,,,,,,,,,,,,,,,,,,,,,,,,,,,,,,
,,60b8b31eb3143c92b950deba,2026-03-17_10h34.43.039,kallum_motion_pilot_GIST_update_2,2026.1.1,Win32,59.88023952,60b8b31eb3143c92b950deba,69b92ab4aef6dee357cd729a,69b92e2bcff8c33e1afc2614,0.0213,0.0213,0,149,149,142,1,eightsix,,,,,,,,,,,,,,,,,,,,,,,,,,,,,,,,,,,,,,,,,,,,,,,,,,,,,,,,,,,,,,,,,,,,,,,,,,,,,,,,,,,,,,,,,,,,,,,,,,,,,,,,,,,,,,,,,,,,,,,,,,,,,,,,,,,,,,,,,
,,60b8b31eb3143c92b950deba,2026-03-17_10h34.43.039,kallum_motion_pilot_GIST_update_2,2026.1.1,Win32,59.88023952,60b8b31eb3143c92b950deba,69b92ab4aef6dee357cd729a,69b92e2bcff8c33e1afc2614,0.0213,0.0213,0,150,150,12,1,threeone,,,,,,,,,,,,,,,,,,,,,,,,,,,,,,,,,,,,,,,,,,,,,,,,,,,,,,,,,,,,,,,,,,,,,,,,,,,,,,,,,,,,,,,,,,,,,,,,,,,,,,,,,,,,,,,,,,,,,,,,,,,,,,,,,,,,,,,,,
,,60b8b31eb3143c92b950deba,2026-03-17_10h34.43.039,kallum_motion_pilot_GIST_update_2,2026.1.1,Win32,59.88023952,60b8b31eb3143c92b950deba,69b92ab4aef6dee357cd729a,69b92e2bcff8c33e1afc2614,0.0213,0.0213,0,151,151,149,1,seveneight,,,,,,,,,,,,,,,,,,,,,,,,,,,,,,,,,,,,,,,,,,,,,,,,,,,,,,,,,,,,,,,,,,,,,,,,,,,,,,,,,,,,,,,,,,,,,,,,,,,,,,,,,,,,,,,,,,,,,,,,,,,,,,,,,,,,,,,,,
,,60b8b31eb3143c92b950deba,2026-03-17_10h34.43.039,kallum_motion_pilot_GIST_update_2,2026.1.1,Win32,59.88023952,60b8b31eb3143c92b950deba,69b92ab4aef6dee357cd729a,69b92e2bcff8c33e1afc2614,0.0214,0.0214,0,152,152,49,1,onethree,,,,,,,,,,,,,,,,,,,,,,,,,,,,,,,,,,,,,,,,,,,,,,,,,,,,,,,,,,,,,,,,,,,,,,,,,,,,,,,,,,,,,,,,,,,,,,,,,,,,,,,,,,,,,,,,,,,,,,,,,,,,,,,,,,,,,,,,,
,,60b8b31eb3143c92b950deba,2026-03-17_10h34.43.039,kallum_motion_pilot_GIST_update_2,2026.1.1,Win32,59.88023952,60b8b31eb3143c92b950deba,69b92ab4aef6dee357cd729a,69b92e2bcff8c33e1afc2614,0.0214,0.0214,0,153,153,24,1,onetwo,,,,,,,,,,,,,,,,,,,,,,,,,,,,,,,,,,,,,,,,,,,,,,,,,,,,,,,,,,,,,,,,,,,,,,,,,,,,,,,,,,,,,,,,,,,,,,,,,,,,,,,,,,,,,,,,,,,,,,,,,,,,,,,,,,,,,,,,,
,,60b8b31eb3143c92b950deba,2026-03-17_10h34.43.039,kallum_motion_pilot_GIST_update_2,2026.1.1,Win32,59.88023952,60b8b31eb3143c92b950deba,69b92ab4aef6dee357cd729a,69b92e2bcff8c33e1afc2614,0.0215,0.0215,0,154,154,111,1,eightseven,,,,,,,,,,,,,,,,,,,,,,,,,,,,,,,,,,,,,,,,,,,,,,,,,,,,,,,,,,,,,,,,,,,,,,,,,,,,,,,,,,,,,,,,,,,,,,,,,,,,,,,,,,,,,,,,,,,,,,,,,,,,,,,,,,,,,,,,,
,,60b8b31eb3143c92b950deba,2026-03-17_10h34.43.039,kallum_motion_pilot_GIST_update_2,2026.1.1,Win32,59.88023952,60b8b31eb3143c92b950deba,69b92ab4aef6dee357cd729a,69b92e2bcff8c33e1afc2614,0.0216,0.0216,0,155,155,141,1,seveneight,,,,,,,,,,,,,,,,,,,,,,,,,,,,,,,,,,,,,,,,,,,,,,,,,,,,,,,,,,,,,,,,,,,,,,,,,,,,,,,,,,,,,,,,,,,,,,,,,,,,,,,,,,,,,,,,,,,,,,,,,,,,,,,,,,,,,,,,,
,,60b8b31eb3143c92b950deba,2026-03-17_10h34.43.039,kallum_motion_pilot_GIST_update_2,2026.1.1,Win32,59.88023952,60b8b31eb3143c92b950deba,69b92ab4aef6dee357cd729a,69b92e2bcff8c33e1afc2614,0.0216,0.0216,0,156,156,62,1,fourtwo,,,,,,,,,,,,,,,,,,,,,,,,,,,,,,,,,,,,,,,,,,,,,,,,,,,,,,,,,,,,,,,,,,,,,,,,,,,,,,,,,,,,,,,,,,,,,,,,,,,,,,,,,,,,,,,,,,,,,,,,,,,,,,,,,,,,,,,,,
,,60b8b31eb3143c92b950deba,2026-03-17_10h34.43.039,kallum_motion_pilot_GIST_update_2,2026.1.1,Win32,59.88023952,60b8b31eb3143c92b950deba,69b92ab4aef6dee357cd729a,69b92e2bcff8c33e1afc2614,0.0216,0.0216,0,157,157,159,1,eightseven,,,,,,,,,,,,,,,,,,,,,,,,,,,,,,,,,,,,,,,,,,,,,,,,,,,,,,,,,,,,,,,,,,,,,,,,,,,,,,,,,,,,,,,,,,,,,,,,,,,,,,,,,,,,,,,,,,,,,,,,,,,,,,,,,,,,,,,,,
,,60b8b31eb3143c92b950deba,2026-03-17_10h34.43.039,kallum_motion_pilot_GIST_update_2,2026.1.1,Win32,59.88023952,60b8b31eb3143c92b950deba,69b92ab4aef6dee357cd729a,69b92e2bcff8c33e1afc2614,0.0217,0.0217,0,158,158,55,1,fourthree,,,,,,,,,,,,,,,,,,,,,,,,,,,,,,,,,,,,,,,,,,,,,,,,,,,,,,,,,,,,,,,,,,,,,,,,,,,,,,,,,,,,,,,,,,,,,,,,,,,,,,,,,,,,,,,,,,,,,,,,,,,,,,,,,,,,,,,,,
,,60b8b31eb3143c92b950deba,2026-03-17_10h34.43.039,kallum_motion_pilot_GIST_update_2,2026.1.1,Win32,59.88023952,60b8b31eb3143c92b950deba,69b92ab4aef6dee357cd729a,69b92e2bcff8c33e1afc2614,0.0218,0.0218,0,159,159,152,1,fivesix,,,,,,,,,,,,,,,,,,,,,,,,,,,,,,,,,,,,,,,,,,,,,,,,,,,,,,,,,,,,,,,,,,,,,,,,,,,,,,,,,,,,,,,,,,,,,,,,,,,,,,,,,,,,,,,,,,,,,,,,,,,,,,,,,,,,,,,,,
,,60b8b31eb3143c92b950deba,2026-03-17_10h34.43.039,kallum_motion_pilot_GIST_update_2,2026.1.1,Win32,59.88023952,60b8b31eb3143c92b950deba,69b92ab4aef6dee357cd729a,69b92e2bcff8c33e1afc2614,0.0218,0.0218,0,160,160,101,1,seveneight,,,,,,,,,,,,,,,,,,,,,,,,,,,,,,,,,,,,,,,,,,,,,,,,,,,,,,,,,,,,,,,,,,,,,,,,,,,,,,,,,,,,,,,,,,,,,,,,,,,,,,,,,,,,,,,,,,,,,,,,,,,,,,,,,,,,,,,,,
,,60b8b31eb3143c92b950deba,2026-03-17_10h34.43.039,kallum_motion_pilot_GIST_update_2,2026.1.1,Win32,59.88023952,60b8b31eb3143c92b950deba,69b92ab4aef6dee357cd729a,69b92e2bcff8c33e1afc2614,0.0218,0.0218,0,161,161,108,1,sevenfive,,,,,,,,,,,,,,,,,,,,,,,,,,,,,,,,,,,,,,,,,,,,,,,,,,,,,,,,,,,,,,,,,,,,,,,,,,,,,,,,,,,,,,,,,,,,,,,,,,,,,,,,,,,,,,,,,,,,,,,,,,,,,,,,,,,,,,,,,
,,60b8b31eb3143c92b950deba,2026-03-17_10h34.43.039,kallum_motion_pilot_GIST_update_2,2026.1.1,Win32,59.88023952,60b8b31eb3143c92b950deba,69b92ab4aef6dee357cd729a,69b92e2bcff8c33e1afc2614,0.0219,0.0219,1,0,162,100,1,sevenfive,,,,,,,,,,,,,,,,,,,,,,,,,,,,,,,,,,,,,,,,,,,,,,,,,,,,,,,,,,,,,,,,,,,,,,,,,,,,,,,,,,,,,,,,,,,,,,,,,,,,,,,,,,,,,,,,,,,,,,,,,,,,,,,,,,,,,,,,,
,,60b8b31eb3143c92b950deba,2026-03-17_10h34.43.039,kallum_motion_pilot_GIST_update_2,2026.1.1,Win32,59.88023952,60b8b31eb3143c92b950deba,69b92ab4aef6dee357cd729a,69b92e2bcff8c33e1afc2614,0.0219,0.0219,1,1,163,36,1,threeone,,,,,,,,,,,,,,,,,,,,,,,,,,,,,,,,,,,,,,,,,,,,,,,,,,,,,,,,,,,,,,,,,,,,,,,,,,,,,,,,,,,,,,,,,,,,,,,,,,,,,,,,,,,,,,,,,,,,,,,,,,,,,,,,,,,,,,,,,
,,60b8b31eb3143c92b950deba,2026-03-17_10h34.43.039,kallum_motion_pilot_GIST_update_2,2026.1.1,Win32,59.88023952,60b8b31eb3143c92b950deba,69b92ab4aef6dee357cd729a,69b92e2bcff8c33e1afc2614,0.0221,0.0221,1,2,164,63,1,fourthree,,,,,,,,,,,,,,,,,,,,,,,,,,,,,,,,,,,,,,,,,,,,,,,,,,,,,,,,,,,,,,,,,,,,,,,,,,,,,,,,,,,,,,,,,,,,,,,,,,,,,,,,,,,,,,,,,,,,,,,,,,,,,,,,,,,,,,,,,
,,60b8b31eb3143c92b950deba,2026-03-17_10h34.43.039,kallum_motion_pilot_GIST_update_2,2026.1.1,Win32,59.88023952,60b8b31eb3143c92b950deba,69b92ab4aef6dee357cd729a,69b92e2bcff8c33e1afc2614,0.0221,0.0221,1,3,165,49,1,onethree,,,,,,,,,,,,,,,,,,,,,,,,,,,,,,,,,,,,,,,,,,,,,,,,,,,,,,,,,,,,,,,,,,,,,,,,,,,,,,,,,,,,,,,,,,,,,,,,,,,,,,,,,,,,,,,,,,,,,,,,,,,,,,,,,,,,,,,,,
,,60b8b31eb3143c92b950deba,2026-03-17_10h34.43.039,kallum_motion_pilot_GIST_update_2,2026.1.1,Win32,59.88023952,60b8b31eb3143c92b950deba,69b92ab4aef6dee357cd729a,69b92e2bcff8c33e1afc2614,0.0221,0.0221,1,4,166,90,1,sixfive,,,,,,,,,,,,,,,,,,,,,,,,,,,,,,,,,,,,,,,,,,,,,,,,,,,,,,,,,,,,,,,,,,,,,,,,,,,,,,,,,,,,,,,,,,,,,,,,,,,,,,,,,,,,,,,,,,,,,,,,,,,,,,,,,,,,,,,,,
,,60b8b31eb3143c92b950deba,2026-03-17_10h34.43.039,kallum_motion_pilot_GIST_update_2,2026.1.1,Win32,59.88023952,60b8b31eb3143c92b950deba,69b92ab4aef6dee357cd729a,69b92e2bcff8c33e1afc2614,0.0222,0.0222,1,5,167,154,1,sixfive,,,,,,,,,,,,,,,,,,,,,,,,,,,,,,,,,,,,,,,,,,,,,,,,,,,,,,,,,,,,,,,,,,,,,,,,,,,,,,,,,,,,,,,,,,,,,,,,,,,,,,,,,,,,,,,,,,,,,,,,,,,,,,,,,,,,,,,,,
,,60b8b31eb3143c92b950deba,2026-03-17_10h34.43.039,kallum_motion_pilot_GIST_update_2,2026.1.1,Win32,59.88023952,60b8b31eb3143c92b950deba,69b92ab4aef6dee357cd729a,69b92e2bcff8c33e1afc2614,0.0222,0.0222,1,6,168,58,1,twoone,,,,,,,,,,,,,,,,,,,,,,,,,,,,,,,,,,,,,,,,,,,,,,,,,,,,,,,,,,,,,,,,,,,,,,,,,,,,,,,,,,,,,,,,,,,,,,,,,,,,,,,,,,,,,,,,,,,,,,,,,,,,,,,,,,,,,,,,,
,,60b8b31eb3143c92b950deba,2026-03-17_10h34.43.039,kallum_motion_pilot_GIST_update_2,2026.1.1,Win32,59.88023952,60b8b31eb3143c92b950deba,69b92ab4aef6dee357cd729a,69b92e2bcff8c33e1afc2614,0.0223,0.0223,1,7,169,66,1,twoone,,,,,,,,,,,,,,,,,,,,,,,,,,,,,,,,,,,,,,,,,,,,,,,,,,,,,,,,,,,,,,,,,,,,,,,,,,,,,,,,,,,,,,,,,,,,,,,,,,,,,,,,,,,,,,,,,,,,,,,,,,,,,,,,,,,,,,,,,
,,60b8b31eb3143c92b950deba,2026-03-17_10h34.43.039,kallum_motion_pilot_GIST_update_2,2026.1.1,Win32,59.88023952,60b8b31eb3143c92b950deba,69b92ab4aef6dee357cd729a,69b92e2bcff8c33e1afc2614,0.0224,0.0224,1,8,170,8,1,onetwo,,,,,,,,,,,,,,,,,,,,,,,,,,,,,,,,,,,,,,,,,,,,,,,,,,,,,,,,,,,,,,,,,,,,,,,,,,,,,,,,,,,,,,,,,,,,,,,,,,,,,,,,,,,,,,,,,,,,,,,,,,,,,,,,,,,,,,,,,
,,60b8b31eb3143c92b950deba,2026-03-17_10h34.43.039,kallum_motion_pilot_GIST_update_2,2026.1.1,Win32,59.88023952,60b8b31eb3143c92b950deba,69b92ab4aef6dee357cd729a,69b92e2bcff8c33e1afc2614,0.0225,0.0225,1,9,171,38,1,fourtwo,,,,,,,,,,,,,,,,,,,,,,,,,,,,,,,,,,,,,,,,,,,,,,,,,,,,,,,,,,,,,,,,,,,,,,,,,,,,,,,,,,,,,,,,,,,,,,,,,,,,,,,,,,,,,,,,,,,,,,,,,,,,,,,,,,,,,,,,,
,,60b8b31eb3143c92b950deba,2026-03-17_10h34.43.039,kallum_motion_pilot_GIST_update_2,2026.1.1,Win32,59.88023952,60b8b31eb3143c92b950deba,69b92ab4aef6dee357cd729a,69b92e2bcff8c33e1afc2614,0.0225,0.0225,1,10,172,75,1,twofour,,,,,,,,,,,,,,,,,,,,,,,,,,,,,,,,,,,,,,,,,,,,,,,,,,,,,,,,,,,,,,,,,,,,,,,,,,,,,,,,,,,,,,,,,,,,,,,,,,,,,,,,,,,,,,,,,,,,,,,,,,,,,,,,,,,,,,,,,
,,60b8b31eb3143c92b950deba,2026-03-17_10h34.43.039,kallum_motion_pilot_GIST_update_2,2026.1.1,Win32,59.88023952,60b8b31eb3143c92b950deba,69b92ab4aef6dee357cd729a,69b92e2bcff8c33e1afc2614,0.0225,0.0225,1,11,173,94,1,eightsix,,,,,,,,,,,,,,,,,,,,,,,,,,,,,,,,,,,,,,,,,,,,,,,,,,,,,,,,,,,,,,,,,,,,,,,,,,,,,,,,,,,,,,,,,,,,,,,,,,,,,,,,,,,,,,,,,,,,,,,,,,,,,,,,,,,,,,,,,
,,60b8b31eb3143c92b950deba,2026-03-17_10h34.43.039,kallum_motion_pilot_GIST_update_2,2026.1.1,Win32,59.88023952,60b8b31eb3143c92b950deba,69b92ab4aef6dee357cd729a,69b92e2bcff8c33e1afc2614,0.0226,0.0226,1,12,174,79,1,eightseven,,,,,,,,,,,,,,,,,,,,,,,,,,,,,,,,,,,,,,,,,,,,,,,,,,,,,,,,,,,,,,,,,,,,,,,,,,,,,,,,,,,,,,,,,,,,,,,,,,,,,,,,,,,,,,,,,,,,,,,,,,,,,,,,,,,,,,,,,
,,60b8b31eb3143c92b950deba,2026-03-17_10h34.43.039,kallum_motion_pilot_GIST_update_2,2026.1.1,Win32,59.88023952,60b8b31eb3143c92b950deba,69b92ab4aef6dee357cd729a,69b92e2bcff8c33e1afc2614,0.0227,0.0227,1,13,175,45,1,threefour,,,,,,,,,,,,,,,,,,,,,,,,,,,,,,,,,,,,,,,,,,,,,,,,,,,,,,,,,,,,,,,,,,,,,,,,,,,,,,,,,,,,,,,,,,,,,,,,,,,,,,,,,,,,,,,,,,,,,,,,,,,,,,,,,,,,,,,,,
,,60b8b31eb3143c92b950deba,2026-03-17_10h34.43.039,kallum_motion_pilot_GIST_update_2,2026.1.1,Win32,59.88023952,60b8b31eb3143c92b950deba,69b92ab4aef6dee357cd729a,69b92e2bcff8c33e1afc2614,0.0227,0.0227,1,14,176,23,1,fourthree,,,,,,,,,,,,,,,,,,,,,,,,,,,,,,,,,,,,,,,,,,,,,,,,,,,,,,,,,,,,,,,,,,,,,,,,,,,,,,,,,,,,,,,,,,,,,,,,,,,,,,,,,,,,,,,,,,,,,,,,,,,,,,,,,,,,,,,,,
,,60b8b31eb3143c92b950deba,2026-03-17_10h34.43.039,kallum_motion_pilot_GIST_update_2,2026.1.1,Win32,59.88023952,60b8b31eb3143c92b950deba,69b92ab4aef6dee357cd729a,69b92e2bcff8c33e1afc2614,0.0227,0.0227,1,15,177,82,1,sixfive,,,,,,,,,,,,,,,,,,,,,,,,,,,,,,,,,,,,,,,,,,,,,,,,,,,,,,,,,,,,,,,,,,,,,,,,,,,,,,,,,,,,,,,,,,,,,,,,,,,,,,,,,,,,,,,,,,,,,,,,,,,,,,,,,,,,,,,,,
,,60b8b31eb3143c92b950deba,2026-03-17_10h34.43.039,kallum_motion_pilot_GIST_update_2,2026.1.1,Win32,59.88023952,60b8b31eb3143c92b950deba,69b92ab4aef6dee357cd729a,69b92e2bcff8c33e1afc2614,0.0228,0.0228,1,16,178,21,1,threefour,,,,,,,,,,,,,,,,,,,,,,,,,,,,,,,,,,,,,,,,,,,,,,,,,,,,,,,,,,,,,,,,,,,,,,,,,,,,,,,,,,,,,,,,,,,,,,,,,,,,,,,,,,,,,,,,,,,,,,,,,,,,,,,,,,,,,,,,,
,,60b8b31eb3143c92b950deba,2026-03-17_10h34.43.039,kallum_motion_pilot_GIST_update_2,2026.1.1,Win32,59.88023952,60b8b31eb3143c92b950deba,69b92ab4aef6dee357cd729a,69b92e2bcff8c33e1afc2614,0.0228,0.0228,1,17,179,151,1,eightseven,,,,,,,,,,,,,,,,,,,,,,,,,,,,,,,,,,,,,,,,,,,,,,,,,,,,,,,,,,,,,,,,,,,,,,,,,,,,,,,,,,,,,,,,,,,,,,,,,,,,,,,,,,,,,,,,,,,,,,,,,,,,,,,,,,,,,,,,,
,,60b8b31eb3143c92b950deba,2026-03-17_10h34.43.039,kallum_motion_pilot_GIST_update_2,2026.1.1,Win32,59.88023952,60b8b31eb3143c92b950deba,69b92ab4aef6dee357cd729a,69b92e2bcff8c33e1afc2614,0.0229,0.0229,1,18,180,55,1,fourthree,,,,,,,,,,,,,,,,,,,,,,,,,,,,,,,,,,,,,,,,,,,,,,,,,,,,,,,,,,,,,,,,,,,,,,,,,,,,,,,,,,,,,,,,,,,,,,,,,,,,,,,,,,,,,,,,,,,,,,,,,,,,,,,,,,,,,,,,,
,,60b8b31eb3143c92b950deba,2026-03-17_10h34.43.039,kallum_motion_pilot_GIST_update_2,2026.1.1,Win32,59.88023952,60b8b31eb3143c92b950deba,69b92ab4aef6dee357cd729a,69b92e2bcff8c33e1afc2614,0.0229,0.0229,1,19,181,25,1,onethree,,,,,,,,,,,,,,,,,,,,,,,,,,,,,,,,,,,,,,,,,,,,,,,,,,,,,,,,,,,,,,,,,,,,,,,,,,,,,,,,,,,,,,,,,,,,,,,,,,,,,,,,,,,,,,,,,,,,,,,,,,,,,,,,,,,,,,,,,
,,60b8b31eb3143c92b950deba,2026-03-17_10h34.43.039,kallum_motion_pilot_GIST_update_2,2026.1.1,Win32,59.88023952,60b8b31eb3143c92b950deba,69b92ab4aef6dee357cd729a,69b92e2bcff8c33e1afc2614,0.023,0.023,1,20,182,16,1,onetwo,,,,,,,,,,,,,,,,,,,,,,,,,,,,,,,,,,,,,,,,,,,,,,,,,,,,,,,,,,,,,,,,,,,,,,,,,,,,,,,,,,,,,,,,,,,,,,,,,,,,,,,,,,,,,,,,,,,,,,,,,,,,,,,,,,,,,,,,,
,,60b8b31eb3143c92b950deba,2026-03-17_10h34.43.039,kallum_motion_pilot_GIST_update_2,2026.1.1,Win32,59.88023952,60b8b31eb3143c92b950deba,69b92ab4aef6dee357cd729a,69b92e2bcff8c33e1afc2614,0.0231,0.0231,1,21,183,1,1,onethree,,,,,,,,,,,,,,,,,,,,,,,,,,,,,,,,,,,,,,,,,,,,,,,,,,,,,,,,,,,,,,,,,,,,,,,,,,,,,,,,,,,,,,,,,,,,,,,,,,,,,,,,,,,,,,,,,,,,,,,,,,,,,,,,,,,,,,,,,
,,60b8b31eb3143c92b950deba,2026-03-17_10h34.43.039,kallum_motion_pilot_GIST_update_2,2026.1.1,Win32,59.88023952,60b8b31eb3143c92b950deba,69b92ab4aef6dee357cd729a,69b92e2bcff8c33e1afc2614,0.0231,0.0231,1,22,184,54,1,fourtwo,,,,,,,,,,,,,,,,,,,,,,,,,,,,,,,,,,,,,,,,,,,,,,,,,,,,,,,,,,,,,,,,,,,,,,,,,,,,,,,,,,,,,,,,,,,,,,,,,,,,,,,,,,,,,,,,,,,,,,,,,,,,,,,,,,,,,,,,,
,,60b8b31eb3143c92b950deba,2026-03-17_10h34.43.039,kallum_motion_pilot_GIST_update_2,2026.1.1,Win32,59.88023952,60b8b31eb3143c92b950deba,69b92ab4aef6dee357cd729a,69b92e2bcff8c33e1afc2614,0.0231,0.0231,1,23,185,28,1,threeone,,,,,,,,,,,,,,,,,,,,,,,,,,,,,,,,,,,,,,,,,,,,,,,,,,,,,,,,,,,,,,,,,,,,,,,,,,,,,,,,,,,,,,,,,,,,,,,,,,,,,,,,,,,,,,,,,,,,,,,,,,,,,,,,,,,,,,,,,
,,60b8b31eb3143c92b950deba,2026-03-17_10h34.43.039,kallum_motion_pilot_GIST_update_2,2026.1.1,Win32,59.88023952,60b8b31eb3143c92b950deba,69b92ab4aef6dee357cd729a,69b92e2bcff8c33e1afc2614,0.0232,0.0232,1,24,186,104,1,fivesix,,,,,,,,,,,,,,,,,,,,,,,,,,,,,,,,,,,,,,,,,,,,,,,,,,,,,,,,,,,,,,,,,,,,,,,,,,,,,,,,,,,,,,,,,,,,,,,,,,,,,,,,,,,,,,,,,,,,,,,,,,,,,,,,,,,,,,,,,
,,60b8b31eb3143c92b950deba,2026-03-17_10h34.43.039,kallum_motion_pilot_GIST_update_2,2026.1.1,Win32,59.88023952,60b8b31eb3143c92b950deba,69b92ab4aef6dee357cd729a,69b92e2bcff8c33e1afc2614,0.0233,0.0233,1,25,187,46,1,fourtwo,,,,,,,,,,,,,,,,,,,,,,,,,,,,,,,,,,,,,,,,,,,,,,,,,,,,,,,,,,,,,,,,,,,,,,,,,,,,,,,,,,,,,,,,,,,,,,,,,,,,,,,,,,,,,,,,,,,,,,,,,,,,,,,,,,,,,,,,,
,,60b8b31eb3143c92b950deba,2026-03-17_10h34.43.039,kallum_motion_pilot_GIST_update_2,2026.1.1,Win32,59.88023952,60b8b31eb3143c92b950deba,69b92ab4aef6dee357cd729a,69b92e2bcff8c33e1afc2614,0.0234,0.0234,1,26,188,77,1,threefour,,,,,,,,,,,,,,,,,,,,,,,,,,,,,,,,,,,,,,,,,,,,,,,,,,,,,,,,,,,,,,,,,,,,,,,,,,,,,,,,,,,,,,,,,,,,,,,,,,,,,,,,,,,,,,,,,,,,,,,,,,,,,,,,,,,,,,,,,
,,60b8b31eb3143c92b950deba,2026-03-17_10h34.43.039,kallum_motion_pilot_GIST_update_2,2026.1.1,Win32,59.88023952,60b8b31eb3143c92b950deba,69b92ab4aef6dee357cd729a,69b92e2bcff8c33e1afc2614,0.0234,0.0234,1,27,189,110,1,eightsix,,,,,,,,,,,,,,,,,,,,,,,,,,,,,,,,,,,,,,,,,,,,,,,,,,,,,,,,,,,,,,,,,,,,,,,,,,,,,,,,,,,,,,,,,,,,,,,,,,,,,,,,,,,,,,,,,,,,,,,,,,,,,,,,,,,,,,,,,
,,60b8b31eb3143c92b950deba,2026-03-17_10h34.43.039,kallum_motion_pilot_GIST_update_2,2026.1.1,Win32,59.88023952,60b8b31eb3143c92b950deba,69b92ab4aef6dee357cd729a,69b92e2bcff8c33e1afc2614,0.0236,0.0236,1,28,190,111,1,eightseven,,,,,,,,,,,,,,,,,,,,,,,,,,,,,,,,,,,,,,,,,,,,,,,,,,,,,,,,,,,,,,,,,,,,,,,,,,,,,,,,,,,,,,,,,,,,,,,,,,,,,,,,,,,,,,,,,,,,,,,,,,,,,,,,,,,,,,,,,
,,60b8b31eb3143c92b950deba,2026-03-17_10h34.43.039,kallum_motion_pilot_GIST_update_2,2026.1.1,Win32,59.88023952,60b8b31eb3143c92b950deba,69b92ab4aef6dee357cd729a,69b92e2bcff8c33e1afc2614,0.0236,0.0236,1,29,191,126,1,eightsix,,,,,,,,,,,,,,,,,,,,,,,,,,,,,,,,,,,,,,,,,,,,,,,,,,,,,,,,,,,,,,,,,,,,,,,,,,,,,,,,,,,,,,,,,,,,,,,,,,,,,,,,,,,,,,,,,,,,,,,,,,,,,,,,,,,,,,,,,
,,60b8b31eb3143c92b950deba,2026-03-17_10h34.43.039,kallum_motion_pilot_GIST_update_2,2026.1.1,Win32,59.88023952,60b8b31eb3143c92b950deba,69b92ab4aef6dee357cd729a,69b92e2bcff8c33e1afc2614,0.0237,0.0237,1,30,192,4,1,threeone,,,,,,,,,,,,,,,,,,,,,,,,,,,,,,,,,,,,,,,,,,,,,,,,,,,,,,,,,,,,,,,,,,,,,,,,,,,,,,,,,,,,,,,,,,,,,,,,,,,,,,,,,,,,,,,,,,,,,,,,,,,,,,,,,,,,,,,,,
,,60b8b31eb3143c92b950deba,2026-03-17_10h34.43.039,kallum_motion_pilot_GIST_update_2,2026.1.1,Win32,59.88023952,60b8b31eb3143c92b950deba,69b92ab4aef6dee357cd729a,69b92e2bcff8c33e1afc2614,0.0238,0.0238,1,31,193,0,1,onetwo,,,,,,,,,,,,,,,,,,,,,,,,,,,,,,,,,,,,,,,,,,,,,,,,,,,,,,,,,,,,,,,,,,,,,,,,,,,,,,,,,,,,,,,,,,,,,,,,,,,,,,,,,,,,,,,,,,,,,,,,,,,,,,,,,,,,,,,,,
,,60b8b31eb3143c92b950deba,2026-03-17_10h34.43.039,kallum_motion_pilot_GIST_update_2,2026.1.1,Win32,59.88023952,60b8b31eb3143c92b950deba,69b92ab4aef6dee357cd729a,69b92e2bcff8c33e1afc2614,0.0238,0.0238,1,32,194,96,1,fivesix,,,,,,,,,,,,,,,,,,,,,,,,,,,,,,,,,,,,,,,,,,,,,,,,,,,,,,,,,,,,,,,,,,,,,,,,,,,,,,,,,,,,,,,,,,,,,,,,,,,,,,,,,,,,,,,,,,,,,,,,,,,,,,,,,,,,,,,,,
,,60b8b31eb3143c92b950deba,2026-03-17_10h34.43.039,kallum_motion_pilot_GIST_update_2,2026.1.1,Win32,59.88023952,60b8b31eb3143c92b950deba,69b92ab4aef6dee357cd729a,69b92e2bcff8c33e1afc2614,0.024,0.024,1,33,195,86,1,eightsix,,,,,,,,,,,,,,,,,,,,,,,,,,,,,,,,,,,,,,,,,,,,,,,,,,,,,,,,,,,,,,,,,,,,,,,,,,,,,,,,,,,,,,,,,,,,,,,,,,,,,,,,,,,,,,,,,,,,,,,,,,,,,,,,,,,,,,,,,
,,60b8b31eb3143c92b950deba,2026-03-17_10h34.43.039,kallum_motion_pilot_GIST_update_2,2026.1.1,Win32,59.88023952,60b8b31eb3143c92b950deba,69b92ab4aef6dee357cd729a,69b92e2bcff8c33e1afc2614,0.024,0.024,1,34,196,87,1,eightseven,,,,,,,,,,,,,,,,,,,,,,,,,,,,,,,,,,,,,,,,,,,,,,,,,,,,,,,,,,,,,,,,,,,,,,,,,,,,,,,,,,,,,,,,,,,,,,,,,,,,,,,,,,,,,,,,,,,,,,,,,,,,,,,,,,,,,,,,,
,,60b8b31eb3143c92b950deba,2026-03-17_10h34.43.039,kallum_motion_pilot_GIST_update_2,2026.1.1,Win32,59.88023952,60b8b31eb3143c92b950deba,69b92ab4aef6dee357cd729a,69b92e2bcff8c33e1afc2614,0.0241,0.0241,1,35,197,41,1,onethree,,,,,,,,,,,,,,,,,,,,,,,,,,,,,,,,,,,,,,,,,,,,,,,,,,,,,,,,,,,,,,,,,,,,,,,,,,,,,,,,,,,,,,,,,,,,,,,,,,,,,,,,,,,,,,,,,,,,,,,,,,,,,,,,,,,,,,,,,
,,60b8b31eb3143c92b950deba,2026-03-17_10h34.43.039,kallum_motion_pilot_GIST_update_2,2026.1.1,Win32,59.88023952,60b8b31eb3143c92b950deba,69b92ab4aef6dee357cd729a,69b92e2bcff8c33e1afc2614,0.0241,0.0241,1,36,198,52,1,threeone,,,,,,,,,,,,,,,,,,,,,,,,,,,,,,,,,,,,,,,,,,,,,,,,,,,,,,,,,,,,,,,,,,,,,,,,,,,,,,,,,,,,,,,,,,,,,,,,,,,,,,,,,,,,,,,,,,,,,,,,,,,,,,,,,,,,,,,,,
,,60b8b31eb3143c92b950deba,2026-03-17_10h34.43.039,kallum_motion_pilot_GIST_update_2,2026.1.1,Win32,59.88023952,60b8b31eb3143c92b950deba,69b92ab4aef6dee357cd729a,69b92e2bcff8c33e1afc2614,0.0242,0.0242,1,37,199,157,1,seveneight,,,,,,,,,,,,,,,,,,,,,,,,,,,,,,,,,,,,,,,,,,,,,,,,,,,,,,,,,,,,,,,,,,,,,,,,,,,,,,,,,,,,,,,,,,,,,,,,,,,,,,,,,,,,,,,,,,,,,,,,,,,,,,,,,,,,,,,,,
,,60b8b31eb3143c92b950deba,2026-03-17_10h34.43.039,kallum_motion_pilot_GIST_update_2,2026.1.1,Win32,59.88023952,60b8b31eb3143c92b950deba,69b92ab4aef6dee357cd729a,69b92e2bcff8c33e1afc2614,0.0242,0.0242,1,38,200,35,1,twofour,,,,,,,,,,,,,,,,,,,,,,,,,,,,,,,,,,,,,,,,,,,,,,,,,,,,,,,,,,,,,,,,,,,,,,,,,,,,,,,,,,,,,,,,,,,,,,,,,,,,,,,,,,,,,,,,,,,,,,,,,,,,,,,,,,,,,,,,,
,,60b8b31eb3143c92b950deba,2026-03-17_10h34.43.039,kallum_motion_pilot_GIST_update_2,2026.1.1,Win32,59.88023952,60b8b31eb3143c92b950deba,69b92ab4aef6dee357cd729a,69b92e2bcff8c33e1afc2614,0.0242,0.0242,1,39,201,160,1,fivesix,,,,,,,,,,,,,,,,,,,,,,,,,,,,,,,,,,,,,,,,,,,,,,,,,,,,,,,,,,,,,,,,,,,,,,,,,,,,,,,,,,,,,,,,,,,,,,,,,,,,,,,,,,,,,,,,,,,,,,,,,,,,,,,,,,,,,,,,,
,,60b8b31eb3143c92b950deba,2026-03-17_10h34.43.039,kallum_motion_pilot_GIST_update_2,2026.1.1,Win32,59.88023952,60b8b31eb3143c92b950deba,69b92ab4aef6dee357cd729a,69b92e2bcff8c33e1afc2614,0.0243,0.0243,1,40,202,42,1,twoone,,,,,,,,,,,,,,,,,,,,,,,,,,,,,,,,,,,,,,,,,,,,,,,,,,,,,,,,,,,,,,,,,,,,,,,,,,,,,,,,,,,,,,,,,,,,,,,,,,,,,,,,,,,,,,,,,,,,,,,,,,,,,,,,,,,,,,,,,
,,60b8b31eb3143c92b950deba,2026-03-17_10h34.43.039,kallum_motion_pilot_GIST_update_2,2026.1.1,Win32,59.88023952,60b8b31eb3143c92b950deba,69b92ab4aef6dee357cd729a,69b92e2bcff8c33e1afc2614,0.0244,0.0244,1,41,203,150,1,eightsix,,,,,,,,,,,,,,,,,,,,,,,,,,,,,,,,,,,,,,,,,,,,,,,,,,,,,,,,,,,,,,,,,,,,,,,,,,,,,,,,,,,,,,,,,,,,,,,,,,,,,,,,,,,,,,,,,,,,,,,,,,,,,,,,,,,,,,,,,
,,60b8b31eb3143c92b950deba,2026-03-17_10h34.43.039,kallum_motion_pilot_GIST_update_2,2026.1.1,Win32,59.88023952,60b8b31eb3143c92b950deba,69b92ab4aef6dee357cd729a,69b92e2bcff8c33e1afc2614,0.0244,0.0244,1,42,204,39,1,fourthree,,,,,,,,,,,,,,,,,,,,,,,,,,,,,,,,,,,,,,,,,,,,,,,,,,,,,,,,,,,,,,,,,,,,,,,,,,,,,,,,,,,,,,,,,,,,,,,,,,,,,,,,,,,,,,,,,,,,,,,,,,,,,,,,,,,,,,,,,
,,60b8b31eb3143c92b950deba,2026-03-17_10h34.43.039,kallum_motion_pilot_GIST_update_2,2026.1.1,Win32,59.88023952,60b8b31eb3143c92b950deba,69b92ab4aef6dee357cd729a,69b92e2bcff8c33e1afc2614,0.0245,0.0245,1,43,205,56,1,onetwo,,,,,,,,,,,,,,,,,,,,,,,,,,,,,,,,,,,,,,,,,,,,,,,,,,,,,,,,,,,,,,,,,,,,,,,,,,,,,,,,,,,,,,,,,,,,,,,,,,,,,,,,,,,,,,,,,,,,,,,,,,,,,,,,,,,,,,,,,
,,60b8b31eb3143c92b950deba,2026-03-17_10h34.43.039,kallum_motion_pilot_GIST_update_2,2026.1.1,Win32,59.88023952,60b8b31eb3143c92b950deba,69b92ab4aef6dee357cd729a,69b92e2bcff8c33e1afc2614,0.0245,0.0245,1,44,206,146,1,sixfive,,,,,,,,,,,,,,,,,,,,,,,,,,,,,,,,,,,,,,,,,,,,,,,,,,,,,,,,,,,,,,,,,,,,,,,,,,,,,,,,,,,,,,,,,,,,,,,,,,,,,,,,,,,,,,,,,,,,,,,,,,,,,,,,,,,,,,,,,
,,60b8b31eb3143c92b950deba,2026-03-17_10h34.43.039,kallum_motion_pilot_GIST_update_2,2026.1.1,Win32,59.88023952,60b8b31eb3143c92b950deba,69b92ab4aef6dee357cd729a,69b92e2bcff8c33e1afc2614,0.0246,0.0247,1,45,207,159,1,eightseven,,,,,,,,,,,,,,,,,,,,,,,,,,,,,,,,,,,,,,,,,,,,,,,,,,,,,,,,,,,,,,,,,,,,,,,,,,,,,,,,,,,,,,,,,,,,,,,,,,,,,,,,,,,,,,,,,,,,,,,,,,,,,,,,,,,,,,,,,
,,60b8b31eb3143c92b950deba,2026-03-17_10h34.43.039,kallum_motion_pilot_GIST_update_2,2026.1.1,Win32,59.88023952,60b8b31eb3143c92b950deba,69b92ab4aef6dee357cd729a,69b92e2bcff8c33e1afc2614,0.0247,0.0247,1,46,208,2,1,twoone,,,,,,,,,,,,,,,,,,,,,,,,,,,,,,,,,,,,,,,,,,,,,,,,,,,,,,,,,,,,,,,,,,,,,,,,,,,,,,,,,,,,,,,,,,,,,,,,,,,,,,,,,,,,,,,,,,,,,,,,,,,,,,,,,,,,,,,,,
,,60b8b31eb3143c92b950deba,2026-03-17_10h34.43.039,kallum_motion_pilot_GIST_update_2,2026.1.1,Win32,59.88023952,60b8b31eb3143c92b950deba,69b92ab4aef6dee357cd729a,69b92e2bcff8c33e1afc2614,0.0247,0.0247,1,47,209,120,1,fivesix,,,,,,,,,,,,,,,,,,,,,,,,,,,,,,,,,,,,,,,,,,,,,,,,,,,,,,,,,,,,,,,,,,,,,,,,,,,,,,,,,,,,,,,,,,,,,,,,,,,,,,,,,,,,,,,,,,,,,,,,,,,,,,,,,,,,,,,,,
,,60b8b31eb3143c92b950deba,2026-03-17_10h34.43.039,kallum_motion_pilot_GIST_update_2,2026.1.1,Win32,59.88023952,60b8b31eb3143c92b950deba,69b92ab4aef6dee357cd729a,69b92e2bcff8c33e1afc2614,0.0248,0.0248,1,48,210,11,1,twofour,,,,,,,,,,,,,,,,,,,,,,,,,,,,,,,,,,,,,,,,,,,,,,,,,,,,,,,,,,,,,,,,,,,,,,,,,,,,,,,,,,,,,,,,,,,,,,,,,,,,,,,,,,,,,,,,,,,,,,,,,,,,,,,,,,,,,,,,,
,,60b8b31eb3143c92b950deba,2026-03-17_10h34.43.039,kallum_motion_pilot_GIST_update_2,2026.1.1,Win32,59.88023952,60b8b31eb3143c92b950deba,69b92ab4aef6dee357cd729a,69b92e2bcff8c33e1afc2614,0.0248,0.0248,1,49,211,118,1,eightsix,,,,,,,,,,,,,,,,,,,,,,,,,,,,,,,,,,,,,,,,,,,,,,,,,,,,,,,,,,,,,,,,,,,,,,,,,,,,,,,,,,,,,,,,,,,,,,,,,,,,,,,,,,,,,,,,,,,,,,,,,,,,,,,,,,,,,,,,,
,,60b8b31eb3143c92b950deba,2026-03-17_10h34.43.039,kallum_motion_pilot_GIST_update_2,2026.1.1,Win32,59.88023952,60b8b31eb3143c92b950deba,69b92ab4aef6dee357cd729a,69b92e2bcff8c33e1afc2614,0.0249,0.0249,1,50,212,51,1,twofour,,,,,,,,,,,,,,,,,,,,,,,,,,,,,,,,,,,,,,,,,,,,,,,,,,,,,,,,,,,,,,,,,,,,,,,,,,,,,,,,,,,,,,,,,,,,,,,,,,,,,,,,,,,,,,,,,,,,,,,,,,,,,,,,,,,,,,,,,
,,60b8b31eb3143c92b950deba,2026-03-17_10h34.43.039,kallum_motion_pilot_GIST_update_2,2026.1.1,Win32,59.88023952,60b8b31eb3143c92b950deba,69b92ab4aef6dee357cd729a,69b92e2bcff8c33e1afc2614,0.025,0.025,1,51,213,132,1,sevenfive,,,,,,,,,,,,,,,,,,,,,,,,,,,,,,,,,,,,,,,,,,,,,,,,,,,,,,,,,,,,,,,,,,,,,,,,,,,,,,,,,,,,,,,,,,,,,,,,,,,,,,,,,,,,,,,,,,,,,,,,,,,,,,,,,,,,,,,,,
,,60b8b31eb3143c92b950deba,2026-03-17_10h34.43.039,kallum_motion_pilot_GIST_update_2,2026.1.1,Win32,59.88023952,60b8b31eb3143c92b950deba,69b92ab4aef6dee357cd729a,69b92e2bcff8c33e1afc2614,0.025,0.025,1,52,214,115,1,sixeight,,,,,,,,,,,,,,,,,,,,,,,,,,,,,,,,,,,,,,,,,,,,,,,,,,,,,,,,,,,,,,,,,,,,,,,,,,,,,,,,,,,,,,,,,,,,,,,,,,,,,,,,,,,,,,,,,,,,,,,,,,,,,,,,,,,,,,,,,
,,60b8b31eb3143c92b950deba,2026-03-17_10h34.43.039,kallum_motion_pilot_GIST_update_2,2026.1.1,Win32,59.88023952,60b8b31eb3143c92b950deba,69b92ab4aef6dee357cd729a,69b92e2bcff8c33e1afc2614,0.025,0.025,1,53,215,83,1,sixeight,,,,,,,,,,,,,,,,,,,,,,,,,,,,,,,,,,,,,,,,,,,,,,,,,,,,,,,,,,,,,,,,,,,,,,,,,,,,,,,,,,,,,,,,,,,,,,,,,,,,,,,,,,,,,,,,,,,,,,,,,,,,,,,,,,,,,,,,,
,,60b8b31eb3143c92b950deba,2026-03-17_10h34.43.039,kallum_motion_pilot_GIST_update_2,2026.1.1,Win32,59.88023952,60b8b31eb3143c92b950deba,69b92ab4aef6dee357cd729a,69b92e2bcff8c33e1afc2614,0.0251,0.0251,1,54,216,156,1,sevenfive,,,,,,,,,,,,,,,,,,,,,,,,,,,,,,,,,,,,,,,,,,,,,,,,,,,,,,,,,,,,,,,,,,,,,,,,,,,,,,,,,,,,,,,,,,,,,,,,,,,,,,,,,,,,,,,,,,,,,,,,,,,,,,,,,,,,,,,,,
,,60b8b31eb3143c92b950deba,2026-03-17_10h34.43.039,kallum_motion_pilot_GIST_update_2,2026.1.1,Win32,59.88023952,60b8b31eb3143c92b950deba,69b92ab4aef6dee357cd729a,69b92e2bcff8c33e1afc2614,0.0252,0.0252,1,55,217,93,1,seveneight,,,,,,,,,,,,,,,,,,,,,,,,,,,,,,,,,,,,,,,,,,,,,,,,,,,,,,,,,,,,,,,,,,,,,,,,,,,,,,,,,,,,,,,,,,,,,,,,,,,,,,,,,,,,,,,,,,,,,,,,,,,,,,,,,,,,,,,,,
,,60b8b31eb3143c92b950deba,2026-03-17_10h34.43.039,kallum_motion_pilot_GIST_update_2,2026.1.1,Win32,59.88023952,60b8b31eb3143c92b950deba,69b92ab4aef6dee357cd729a,69b92e2bcff8c33e1afc2614,0.0253,0.0253,1,56,218,112,1,fivesix,,,,,,,,,,,,,,,,,,,,,,,,,,,,,,,,,,,,,,,,,,,,,,,,,,,,,,,,,,,,,,,,,,,,,,,,,,,,,,,,,,,,,,,,,,,,,,,,,,,,,,,,,,,,,,,,,,,,,,,,,,,,,,,,,,,,,,,,,
,,60b8b31eb3143c92b950deba,2026-03-17_10h34.43.039,kallum_motion_pilot_GIST_update_2,2026.1.1,Win32,59.88023952,60b8b31eb3143c92b950deba,69b92ab4aef6dee357cd729a,69b92e2bcff8c33e1afc2614,0.0253,0.0253,1,57,219,20,1,threeone,,,,,,,,,,,,,,,,,,,,,,,,,,,,,,,,,,,,,,,,,,,,,,,,,,,,,,,,,,,,,,,,,,,,,,,,,,,,,,,,,,,,,,,,,,,,,,,,,,,,,,,,,,,,,,,,,,,,,,,,,,,,,,,,,,,,,,,,,
,,60b8b31eb3143c92b950deba,2026-03-17_10h34.43.039,kallum_motion_pilot_GIST_update_2,2026.1.1,Win32,59.88023952,60b8b31eb3143c92b950deba,69b92ab4aef6dee357cd729a,69b92e2bcff8c33e1afc2614,0.0253,0.0253,1,58,220,6,1,fourtwo,,,,,,,,,,,,,,,,,,,,,,,,,,,,,,,,,,,,,,,,,,,,,,,,,,,,,,,,,,,,,,,,,,,,,,,,,,,,,,,,,,,,,,,,,,,,,,,,,,,,,,,,,,,,,,,,,,,,,,,,,,,,,,,,,,,,,,,,,
,,60b8b31eb3143c92b950deba,2026-03-17_10h34.43.039,kallum_motion_pilot_GIST_update_2,2026.1.1,Win32,59.88023952,60b8b31eb3143c92b950deba,69b92ab4aef6dee357cd729a,69b92e2bcff8c33e1afc2614,0.0254,0.0254,1,59,221,10,1,twoone,,,,,,,,,,,,,,,,,,,,,,,,,,,,,,,,,,,,,,,,,,,,,,,,,,,,,,,,,,,,,,,,,,,,,,,,,,,,,,,,,,,,,,,,,,,,,,,,,,,,,,,,,,,,,,,,,,,,,,,,,,,,,,,,,,,,,,,,,
,,60b8b31eb3143c92b950deba,2026-03-17_10h34.43.039,kallum_motion_pilot_GIST_update_2,2026.1.1,Win32,59.88023952,60b8b31eb3143c92b950deba,69b92ab4aef6dee357cd729a,69b92e2bcff8c33e1afc2614,0.0254,0.0254,1,60,222,26,1,twoone,,,,,,,,,,,,,,,,,,,,,,,,,,,,,,,,,,,,,,,,,,,,,,,,,,,,,,,,,,,,,,,,,,,,,,,,,,,,,,,,,,,,,,,,,,,,,,,,,,,,,,,,,,,,,,,,,,,,,,,,,,,,,,,,,,,,,,,,,
,,60b8b31eb3143c92b950deba,2026-03-17_10h34.43.039,kallum_motion_pilot_GIST_update_2,2026.1.1,Win32,59.88023952,60b8b31eb3143c92b950deba,69b92ab4aef6dee357cd729a,69b92e2bcff8c33e1afc2614,0.0256,0.0256,1,61,223,67,1,twofour,,,,,,,,,,,,,,,,,,,,,,,,,,,,,,,,,,,,,,,,,,,,,,,,,,,,,,,,,,,,,,,,,,,,,,,,,,,,,,,,,,,,,,,,,,,,,,,,,,,,,,,,,,,,,,,,,,,,,,,,,,,,,,,,,,,,,,,,,
,,60b8b31eb3143c92b950deba,2026-03-17_10h34.43.039,kallum_motion_pilot_GIST_update_2,2026.1.1,Win32,59.88023952,60b8b31eb3143c92b950deba,69b92ab4aef6dee357cd729a,69b92e2bcff8c33e1afc2614,0.0256,0.0256,1,62,224,121,1,fiveseven,,,,,,,,,,,,,,,,,,,,,,,,,,,,,,,,,,,,,,,,,,,,,,,,,,,,,,,,,,,,,,,,,,,,,,,,,,,,,,,,,,,,,,,,,,,,,,,,,,,,,,,,,,,,,,,,,,,,,,,,,,,,,,,,,,,,,,,,,
,,60b8b31eb3143c92b950deba,2026-03-17_10h34.43.039,kallum_motion_pilot_GIST_update_2,2026.1.1,Win32,59.88023952,60b8b31eb3143c92b950deba,69b92ab4aef6dee357cd729a,69b92e2bcff8c33e1afc2614,0.0256,0.0256,1,63,225,97,1,fiveseven,,,,,,,,,,,,,,,,,,,,,,,,,,,,,,,,,,,,,,,,,,,,,,,,,,,,,,,,,,,,,,,,,,,,,,,,,,,,,,,,,,,,,,,,,,,,,,,,,,,,,,,,,,,,,,,,,,,,,,,,,,,,,,,,,,,,,,,,,
,,60b8b31eb3143c92b950deba,2026-03-17_10h34.43.039,kallum_motion_pilot_GIST_update_2,2026.1.1,Win32,59.88023952,60b8b31eb3143c92b950deba,69b92ab4aef6dee357cd729a,69b92e2bcff8c33e1afc2614,0.0258,0.0258,1,64,226,105,1,fiveseven,,,,,,,,,,,,,,,,,,,,,,,,,,,,,,,,,,,,,,,,,,,,,,,,,,,,,,,,,,,,,,,,,,,,,,,,,,,,,,,,,,,,,,,,,,,,,,,,,,,,,,,,,,,,,,,,,,,,,,,,,,,,,,,,,,,,,,,,,
,,60b8b31eb3143c92b950deba,2026-03-17_10h34.43.039,kallum_motion_pilot_GIST_update_2,2026.1.1,Win32,59.88023952,60b8b31eb3143c92b950deba,69b92ab4aef6dee357cd729a,69b92e2bcff8c33e1afc2614,0.0258,0.0258,1,65,227,22,1,fourtwo,,,,,,,,,,,,,,,,,,,,,,,,,,,,,,,,,,,,,,,,,,,,,,,,,,,,,,,,,,,,,,,,,,,,,,,,,,,,,,,,,,,,,,,,,,,,,,,,,,,,,,,,,,,,,,,,,,,,,,,,,,,,,,,,,,,,,,,,,
,,60b8b31eb3143c92b950deba,2026-03-17_10h34.43.039,kallum_motion_pilot_GIST_update_2,2026.1.1,Win32,59.88023952,60b8b31eb3143c92b950deba,69b92ab4aef6dee357cd729a,69b92e2bcff8c33e1afc2614,0.0259,0.0259,1,66,228,40,1,onetwo,,,,,,,,,,,,,,,,,,,,,,,,,,,,,,,,,,,,,,,,,,,,,,,,,,,,,,,,,,,,,,,,,,,,,,,,,,,,,,,,,,,,,,,,,,,,,,,,,,,,,,,,,,,,,,,,,,,,,,,,,,,,,,,,,,,,,,,,,
,,60b8b31eb3143c92b950deba,2026-03-17_10h34.43.039,kallum_motion_pilot_GIST_update_2,2026.1.1,Win32,59.88023952,60b8b31eb3143c92b950deba,69b92ab4aef6dee357cd729a,69b92e2bcff8c33e1afc2614,0.026,0.026,1,67,229,108,1,sevenfive,,,,,,,,,,,,,,,,,,,,,,,,,,,,,,,,,,,,,,,,,,,,,,,,,,,,,,,,,,,,,,,,,,,,,,,,,,,,,,,,,,,,,,,,,,,,,,,,,,,,,,,,,,,,,,,,,,,,,,,,,,,,,,,,,,,,,,,,,
,,60b8b31eb3143c92b950deba,2026-03-17_10h34.43.039,kallum_motion_pilot_GIST_update_2,2026.1.1,Win32,59.88023952,60b8b31eb3143c92b950deba,69b92ab4aef6dee357cd729a,69b92e2bcff8c33e1afc2614,0.026,0.026,1,68,230,125,1,seveneight,,,,,,,,,,,,,,,,,,,,,,,,,,,,,,,,,,,,,,,,,,,,,,,,,,,,,,,,,,,,,,,,,,,,,,,,,,,,,,,,,,,,,,,,,,,,,,,,,,,,,,,,,,,,,,,,,,,,,,,,,,,,,,,,,,,,,,,,,
,,60b8b31eb3143c92b950deba,2026-03-17_10h34.43.039,kallum_motion_pilot_GIST_update_2,2026.1.1,Win32,59.88023952,60b8b31eb3143c92b950deba,69b92ab4aef6dee357cd729a,69b92e2bcff8c33e1afc2614,0.0261,0.0261,1,69,231,59,1,twofour,,,,,,,,,,,,,,,,,,,,,,,,,,,,,,,,,,,,,,,,,,,,,,,,,,,,,,,,,,,,,,,,,,,,,,,,,,,,,,,,,,,,,,,,,,,,,,,,,,,,,,,,,,,,,,,,,,,,,,,,,,,,,,,,,,,,,,,,,
,,60b8b31eb3143c92b950deba,2026-03-17_10h34.43.039,kallum_motion_pilot_GIST_update_2,2026.1.1,Win32,59.88023952,60b8b31eb3143c92b950deba,69b92ab4aef6dee357cd729a,69b92e2bcff8c33e1afc2614,0.0261,0.0261,1,70,232,117,1,seveneight,,,,,,,,,,,,,,,,,,,,,,,,,,,,,,,,,,,,,,,,,,,,,,,,,,,,,,,,,,,,,,,,,,,,,,,,,,,,,,,,,,,,,,,,,,,,,,,,,,,,,,,,,,,,,,,,,,,,,,,,,,,,,,,,,,,,,,,,,
,,60b8b31eb3143c92b950deba,2026-03-17_10h34.43.039,kallum_motion_pilot_GIST_update_2,2026.1.1,Win32,59.88023952,60b8b31eb3143c92b950deba,69b92ab4aef6dee357cd729a,69b92e2bcff8c33e1afc2614,0.0262,0.0262,1,71,233,24,1,onetwo,,,,,,,,,,,,,,,,,,,,,,,,,,,,,,,,,,,,,,,,,,,,,,,,,,,,,,,,,,,,,,,,,,,,,,,,,,,,,,,,,,,,,,,,,,,,,,,,,,,,,,,,,,,,,,,,,,,,,,,,,,,,,,,,,,,,,,,,,
,,60b8b31eb3143c92b950deba,2026-03-17_10h34.43.039,kallum_motion_pilot_GIST_update_2,2026.1.1,Win32,59.88023952,60b8b31eb3143c92b950deba,69b92ab4aef6dee357cd729a,69b92e2bcff8c33e1afc2614,0.0262,0.0262,1,72,234,130,1,sixfive,,,,,,,,,,,,,,,,,,,,,,,,,,,,,,,,,,,,,,,,,,,,,,,,,,,,,,,,,,,,,,,,,,,,,,,,,,,,,,,,,,,,,,,,,,,,,,,,,,,,,,,,,,,,,,,,,,,,,,,,,,,,,,,,,,,,,,,,,
,,60b8b31eb3143c92b950deba,2026-03-17_10h34.43.039,kallum_motion_pilot_GIST_update_2,2026.1.1,Win32,59.88023952,60b8b31eb3143c92b950deba,69b92ab4aef6dee357cd729a,69b92e2bcff8c33e1afc2614,0.0263,0.0263,1,73,235,139,1,sixeight,,,,,,,,,,,,,,,,,,,,,,,,,,,,,,,,,,,,,,,,,,,,,,,,,,,,,,,,,,,,,,,,,,,,,,,,,,,,,,,,,,,,,,,,,,,,,,,,,,,,,,,,,,,,,,,,,,,,,,,,,,,,,,,,,,,,,,,,,
,,60b8b31eb3143c92b950deba,2026-03-17_10h34.43.039,kallum_motion_pilot_GIST_update_2,2026.1.1,Win32,59.88023952,60b8b31eb3143c92b950deba,69b92ab4aef6dee357cd729a,69b92e2bcff8c33e1afc2614,0.0264,0.0264,1,74,236,69,1,threefour,,,,,,,,,,,,,,,,,,,,,,,,,,,,,,,,,,,,,,,,,,,,,,,,,,,,,,,,,,,,,,,,,,,,,,,,,,,,,,,,,,,,,,,,,,,,,,,,,,,,,,,,,,,,,,,,,,,,,,,,,,,,,,,,,,,,,,,,,
,,60b8b31eb3143c92b950deba,2026-03-17_10h34.43.039,kallum_motion_pilot_GIST_update_2,2026.1.1,Win32,59.88023952,60b8b31eb3143c92b950deba,69b92ab4aef6dee357cd729a,69b92e2bcff8c33e1afc2614,0.0264,0.0264,1,75,237,137,1,fiveseven,,,,,,,,,,,,,,,,,,,,,,,,,,,,,,,,,,,,,,,,,,,,,,,,,,,,,,,,,,,,,,,,,,,,,,,,,,,,,,,,,,,,,,,,,,,,,,,,,,,,,,,,,,,,,,,,,,,,,,,,,,,,,,,,,,,,,,,,,
,,60b8b31eb3143c92b950deba,2026-03-17_10h34.43.039,kallum_motion_pilot_GIST_update_2,2026.1.1,Win32,59.88023952,60b8b31eb3143c92b950deba,69b92ab4aef6dee357cd729a,69b92e2bcff8c33e1afc2614,0.0265,0.0265,1,76,238,53,1,threefour,,,,,,,,,,,,,,,,,,,,,,,,,,,,,,,,,,,,,,,,,,,,,,,,,,,,,,,,,,,,,,,,,,,,,,,,,,,,,,,,,,,,,,,,,,,,,,,,,,,,,,,,,,,,,,,,,,,,,,,,,,,,,,,,,,,,,,,,,
,,60b8b31eb3143c92b950deba,2026-03-17_10h34.43.039,kallum_motion_pilot_GIST_update_2,2026.1.1,Win32,59.88023952,60b8b31eb3143c92b950deba,69b92ab4aef6dee357cd729a,69b92e2bcff8c33e1afc2614,0.0266,0.0266,1,77,239,148,1,sevenfive,,,,,,,,,,,,,,,,,,,,,,,,,,,,,,,,,,,,,,,,,,,,,,,,,,,,,,,,,,,,,,,,,,,,,,,,,,,,,,,,,,,,,,,,,,,,,,,,,,,,,,,,,,,,,,,,,,,,,,,,,,,,,,,,,,,,,,,,,
,,60b8b31eb3143c92b950deba,2026-03-17_10h34.43.039,kallum_motion_pilot_GIST_update_2,2026.1.1,Win32,59.88023952,60b8b31eb3143c92b950deba,69b92ab4aef6dee357cd729a,69b92e2bcff8c33e1afc2614,0.0266,0.0266,1,78,240,48,1,onetwo,,,,,,,,,,,,,,,,,,,,,,,,,,,,,,,,,,,,,,,,,,,,,,,,,,,,,,,,,,,,,,,,,,,,,,,,,,,,,,,,,,,,,,,,,,,,,,,,,,,,,,,,,,,,,,,,,,,,,,,,,,,,,,,,,,,,,,,,,
,,60b8b31eb3143c92b950deba,2026-03-17_10h34.43.039,kallum_motion_pilot_GIST_update_2,2026.1.1,Win32,59.88023952,60b8b31eb3143c92b950deba,69b92ab4aef6dee357cd729a,69b92e2bcff8c33e1afc2614,0.0267,0.0267,1,79,241,88,1,fivesix,,,,,,,,,,,,,,,,,,,,,,,,,,,,,,,,,,,,,,,,,,,,,,,,,,,,,,,,,,,,,,,,,,,,,,,,,,,,,,,,,,,,,,,,,,,,,,,,,,,,,,,,,,,,,,,,,,,,,,,,,,,,,,,,,,,,,,,,,
,,60b8b31eb3143c92b950deba,2026-03-17_10h34.43.039,kallum_motion_pilot_GIST_update_2,2026.1.1,Win32,59.88023952,60b8b31eb3143c92b950deba,69b92ab4aef6dee357cd729a,69b92e2bcff8c33e1afc2614,0.0267,0.0267,1,80,242,113,1,fiveseven,,,,,,,,,,,,,,,,,,,,,,,,,,,,,,,,,,,,,,,,,,,,,,,,,,,,,,,,,,,,,,,,,,,,,,,,,,,,,,,,,,,,,,,,,,,,,,,,,,,,,,,,,,,,,,,,,,,,,,,,,,,,,,,,,,,,,,,,,
,,60b8b31eb3143c92b950deba,2026-03-17_10h34.43.039,kallum_motion_pilot_GIST_update_2,2026.1.1,Win32,59.88023952,60b8b31eb3143c92b950deba,69b92ab4aef6dee357cd729a,69b92e2bcff8c33e1afc2614,0.0268,0.0268,1,81,243,33,1,onethree,,,,,,,,,,,,,,,,,,,,,,,,,,,,,,,,,,,,,,,,,,,,,,,,,,,,,,,,,,,,,,,,,,,,,,,,,,,,,,,,,,,,,,,,,,,,,,,,,,,,,,,,,,,,,,,,,,,,,,,,,,,,,,,,,,,,,,,,,
,,60b8b31eb3143c92b950deba,2026-03-17_10h34.43.039,kallum_motion_pilot_GIST_update_2,2026.1.1,Win32,59.88023952,60b8b31eb3143c92b950deba,69b92ab4aef6dee357cd729a,69b92e2bcff8c33e1afc2614,0.0269,0.0269,1,82,244,128,1,fivesix,,,,,,,,,,,,,,,,,,,,,,,,,,,,,,,,,,,,,,,,,,,,,,,,,,,,,,,,,,,,,,,,,,,,,,,,,,,,,,,,,,,,,,,,,,,,,,,,,,,,,,,,,,,,,,,,,,,,,,,,,,,,,,,,,,,,,,,,,
,,60b8b31eb3143c92b950deba,2026-03-17_10h34.43.039,kallum_motion_pilot_GIST_update_2,2026.1.1,Win32,59.88023952,60b8b31eb3143c92b950deba,69b92ab4aef6dee357cd729a,69b92e2bcff8c33e1afc2614,0.0269,0.0269,1,83,245,43,1,twofour,,,,,,,,,,,,,,,,,,,,,,,,,,,,,,,,,,,,,,,,,,,,,,,,,,,,,,,,,,,,,,,,,,,,,,,,,,,,,,,,,,,,,,,,,,,,,,,,,,,,,,,,,,,,,,,,,,,,,,,,,,,,,,,,,,,,,,,,,
,,60b8b31eb3143c92b950deba,2026-03-17_10h34.43.039,kallum_motion_pilot_GIST_update_2,2026.1.1,Win32,59.88023952,60b8b31eb3143c92b950deba,69b92ab4aef6dee357cd729a,69b92e2bcff8c33e1afc2614,0.027,0.027,1,84,246,34,1,twoone,,,,,,,,,,,,,,,,,,,,,,,,,,,,,,,,,,,,,,,,,,,,,,,,,,,,,,,,,,,,,,,,,,,,,,,,,,,,,,,,,,,,,,,,,,,,,,,,,,,,,,,,,,,,,,,,,,,,,,,,,,,,,,,,,,,,,,,,,
,,60b8b31eb3143c92b950deba,2026-03-17_10h34.43.039,kallum_motion_pilot_GIST_update_2,2026.1.1,Win32,59.88023952,60b8b31eb3143c92b950deba,69b92ab4aef6dee357cd729a,69b92e2bcff8c33e1afc2614,0.027,0.027,1,85,247,76,1,threeone,,,,,,,,,,,,,,,,,,,,,,,,,,,,,,,,,,,,,,,,,,,,,,,,,,,,,,,,,,,,,,,,,,,,,,,,,,,,,,,,,,,,,,,,,,,,,,,,,,,,,,,,,,,,,,,,,,,,,,,,,,,,,,,,,,,,,,,,,
,,60b8b31eb3143c92b950deba,2026-03-17_10h34.43.039,kallum_motion_pilot_GIST_update_2,2026.1.1,Win32,59.88023952,60b8b31eb3143c92b950deba,69b92ab4aef6dee357cd729a,69b92e2bcff8c33e1afc2614,0.0271,0.0271,1,86,248,124,1,sevenfive,,,,,,,,,,,,,,,,,,,,,,,,,,,,,,,,,,,,,,,,,,,,,,,,,,,,,,,,,,,,,,,,,,,,,,,,,,,,,,,,,,,,,,,,,,,,,,,,,,,,,,,,,,,,,,,,,,,,,,,,,,,,,,,,,,,,,,,,,
,,60b8b31eb3143c92b950deba,2026-03-17_10h34.43.039,kallum_motion_pilot_GIST_update_2,2026.1.1,Win32,59.88023952,60b8b31eb3143c92b950deba,69b92ab4aef6dee357cd729a,69b92e2bcff8c33e1afc2614,0.0272,0.0272,1,87,249,64,1,onetwo,,,,,,,,,,,,,,,,,,,,,,,,,,,,,,,,,,,,,,,,,,,,,,,,,,,,,,,,,,,,,,,,,,,,,,,,,,,,,,,,,,,,,,,,,,,,,,,,,,,,,,,,,,,,,,,,,,,,,,,,,,,,,,,,,,,,,,,,,
,,60b8b31eb3143c92b950deba,2026-03-17_10h34.43.039,kallum_motion_pilot_GIST_update_2,2026.1.1,Win32,59.88023952,60b8b31eb3143c92b950deba,69b92ab4aef6dee357cd729a,69b92e2bcff8c33e1afc2614,0.0272,0.0272,1,88,250,140,1,sevenfive,,,,,,,,,,,,,,,,,,,,,,,,,,,,,,,,,,,,,,,,,,,,,,,,,,,,,,,,,,,,,,,,,,,,,,,,,,,,,,,,,,,,,,,,,,,,,,,,,,,,,,,,,,,,,,,,,,,,,,,,,,,,,,,,,,,,,,,,,
,,60b8b31eb3143c92b950deba,2026-03-17_10h34.43.039,kallum_motion_pilot_GIST_update_2,2026.1.1,Win32,59.88023952,60b8b31eb3143c92b950deba,69b92ab4aef6dee357cd729a,69b92e2bcff8c33e1afc2614,0.0272,0.0272,1,89,251,80,1,fivesix,,,,,,,,,,,,,,,,,,,,,,,,,,,,,,,,,,,,,,,,,,,,,,,,,,,,,,,,,,,,,,,,,,,,,,,,,,,,,,,,,,,,,,,,,,,,,,,,,,,,,,,,,,,,,,,,,,,,,,,,,,,,,,,,,,,,,,,,,
,,60b8b31eb3143c92b950deba,2026-03-17_10h34.43.039,kallum_motion_pilot_GIST_update_2,2026.1.1,Win32,59.88023952,60b8b31eb3143c92b950deba,69b92ab4aef6dee357cd729a,69b92e2bcff8c33e1afc2614,0.0273,0.0273,1,90,252,149,1,seveneight,,,,,,,,,,,,,,,,,,,,,,,,,,,,,,,,,,,,,,,,,,,,,,,,,,,,,,,,,,,,,,,,,,,,,,,,,,,,,,,,,,,,,,,,,,,,,,,,,,,,,,,,,,,,,,,,,,,,,,,,,,,,,,,,,,,,,,,,,
,,60b8b31eb3143c92b950deba,2026-03-17_10h34.43.039,kallum_motion_pilot_GIST_update_2,2026.1.1,Win32,59.88023952,60b8b31eb3143c92b950deba,69b92ab4aef6dee357cd729a,69b92e2bcff8c33e1afc2614,0.0273,0.0273,1,91,253,9,1,onethree,,,,,,,,,,,,,,,,,,,,,,,,,,,,,,,,,,,,,,,,,,,,,,,,,,,,,,,,,,,,,,,,,,,,,,,,,,,,,,,,,,,,,,,,,,,,,,,,,,,,,,,,,,,,,,,,,,,,,,,,,,,,,,,,,,,,,,,,,
,,60b8b31eb3143c92b950deba,2026-03-17_10h34.43.039,kallum_motion_pilot_GIST_update_2,2026.1.1,Win32,59.88023952,60b8b31eb3143c92b950deba,69b92ab4aef6dee357cd729a,69b92e2bcff8c33e1afc2614,0.0274,0.0274,1,92,254,30,1,fourtwo,,,,,,,,,,,,,,,,,,,,,,,,,,,,,,,,,,,,,,,,,,,,,,,,,,,,,,,,,,,,,,,,,,,,,,,,,,,,,,,,,,,,,,,,,,,,,,,,,,,,,,,,,,,,,,,,,,,,,,,,,,,,,,,,,,,,,,,,,
,,60b8b31eb3143c92b950deba,2026-03-17_10h34.43.039,kallum_motion_pilot_GIST_update_2,2026.1.1,Win32,59.88023952,60b8b31eb3143c92b950deba,69b92ab4aef6dee357cd729a,69b92e2bcff8c33e1afc2614,0.0275,0.0275,1,93,255,57,1,onethree,,,,,,,,,,,,,,,,,,,,,,,,,,,,,,,,,,,,,,,,,,,,,,,,,,,,,,,,,,,,,,,,,,,,,,,,,,,,,,,,,,,,,,,,,,,,,,,,,,,,,,,,,,,,,,,,,,,,,,,,,,,,,,,,,,,,,,,,,
,,60b8b31eb3143c92b950deba,2026-03-17_10h34.43.039,kallum_motion_pilot_GIST_update_2,2026.1.1,Win32,59.88023952,60b8b31eb3143c92b950deba,69b92ab4aef6dee357cd729a,69b92e2bcff8c33e1afc2614,0.0276,0.0276,1,94,256,127,1,eightseven,,,,,,,,,,,,,,,,,,,,,,,,,,,,,,,,,,,,,,,,,,,,,,,,,,,,,,,,,,,,,,,,,,,,,,,,,,,,,,,,,,,,,,,,,,,,,,,,,,,,,,,,,,,,,,,,,,,,,,,,,,,,,,,,,,,,,,,,,
,,60b8b31eb3143c92b950deba,2026-03-17_10h34.43.039,kallum_motion_pilot_GIST_update_2,2026.1.1,Win32,59.88023952,60b8b31eb3143c92b950deba,69b92ab4aef6dee357cd729a,69b92e2bcff8c33e1afc2614,0.0277,0.0277,1,95,257,19,1,twofour,,,,,,,,,,,,,,,,,,,,,,,,,,,,,,,,,,,,,,,,,,,,,,,,,,,,,,,,,,,,,,,,,,,,,,,,,,,,,,,,,,,,,,,,,,,,,,,,,,,,,,,,,,,,,,,,,,,,,,,,,,,,,,,,,,,,,,,,,
,,60b8b31eb3143c92b950deba,2026-03-17_10h34.43.039,kallum_motion_pilot_GIST_update_2,2026.1.1,Win32,59.88023952,60b8b31eb3143c92b950deba,69b92ab4aef6dee357cd729a,69b92e2bcff8c33e1afc2614,0.0277,0.0277,1,96,258,147,1,sixeight,,,,,,,,,,,,,,,,,,,,,,,,,,,,,,,,,,,,,,,,,,,,,,,,,,,,,,,,,,,,,,,,,,,,,,,,,,,,,,,,,,,,,,,,,,,,,,,,,,,,,,,,,,,,,,,,,,,,,,,,,,,,,,,,,,,,,,,,,
,,60b8b31eb3143c92b950deba,2026-03-17_10h34.43.039,kallum_motion_pilot_GIST_update_2,2026.1.1,Win32,59.88023952,60b8b31eb3143c92b950deba,69b92ab4aef6dee357cd729a,69b92e2bcff8c33e1afc2614,0.0278,0.0278,1,97,259,14,1,fourtwo,,,,,,,,,,,,,,,,,,,,,,,,,,,,,,,,,,,,,,,,,,,,,,,,,,,,,,,,,,,,,,,,,,,,,,,,,,,,,,,,,,,,,,,,,,,,,,,,,,,,,,,,,,,,,,,,,,,,,,,,,,,,,,,,,,,,,,,,,
,,60b8b31eb3143c92b950deba,2026-03-17_10h34.43.039,kallum_motion_pilot_GIST_update_2,2026.1.1,Win32,59.88023952,60b8b31eb3143c92b950deba,69b92ab4aef6dee357cd729a,69b92e2bcff8c33e1afc2614,0.0278,0.0278,1,98,260,72,1,onetwo,,,,,,,,,,,,,,,,,,,,,,,,,,,,,,,,,,,,,,,,,,,,,,,,,,,,,,,,,,,,,,,,,,,,,,,,,,,,,,,,,,,,,,,,,,,,,,,,,,,,,,,,,,,,,,,,,,,,,,,,,,,,,,,,,,,,,,,,,
,,60b8b31eb3143c92b950deba,2026-03-17_10h34.43.039,kallum_motion_pilot_GIST_update_2,2026.1.1,Win32,59.88023952,60b8b31eb3143c92b950deba,69b92ab4aef6dee357cd729a,69b92e2bcff8c33e1afc2614,0.0278,0.0278,1,99,261,103,1,eightseven,,,,,,,,,,,,,,,,,,,,,,,,,,,,,,,,,,,,,,,,,,,,,,,,,,,,,,,,,,,,,,,,,,,,,,,,,,,,,,,,,,,,,,,,,,,,,,,,,,,,,,,,,,,,,,,,,,,,,,,,,,,,,,,,,,,,,,,,,
,,60b8b31eb3143c92b950deba,2026-03-17_10h34.43.039,kallum_motion_pilot_GIST_update_2,2026.1.1,Win32,59.88023952,60b8b31eb3143c92b950deba,69b92ab4aef6dee357cd729a,69b92e2bcff8c33e1afc2614,0.0279,0.0279,1,100,262,119,1,eightseven,,,,,,,,,,,,,,,,,,,,,,,,,,,,,,,,,,,,,,,,,,,,,,,,,,,,,,,,,,,,,,,,,,,,,,,,,,,,,,,,,,,,,,,,,,,,,,,,,,,,,,,,,,,,,,,,,,,,,,,,,,,,,,,,,,,,,,,,,
,,60b8b31eb3143c92b950deba,2026-03-17_10h34.43.039,kallum_motion_pilot_GIST_update_2,2026.1.1,Win32,59.88023952,60b8b31eb3143c92b950deba,69b92ab4aef6dee357cd729a,69b92e2bcff8c33e1afc2614,0.028,0.028,1,101,263,17,1,onethree,,,,,,,,,,,,,,,,,,,,,,,,,,,,,,,,,,,,,,,,,,,,,,,,,,,,,,,,,,,,,,,,,,,,,,,,,,,,,,,,,,,,,,,,,,,,,,,,,,,,,,,,,,,,,,,,,,,,,,,,,,,,,,,,,,,,,,,,,
,,60b8b31eb3143c92b950deba,2026-03-17_10h34.43.039,kallum_motion_pilot_GIST_update_2,2026.1.1,Win32,59.88023952,60b8b31eb3143c92b950deba,69b92ab4aef6dee357cd729a,69b92e2bcff8c33e1afc2614,0.028,0.028,1,102,264,122,1,sixfive,,,,,,,,,,,,,,,,,,,,,,,,,,,,,,,,,,,,,,,,,,,,,,,,,,,,,,,,,,,,,,,,,,,,,,,,,,,,,,,,,,,,,,,,,,,,,,,,,,,,,,,,,,,,,,,,,,,,,,,,,,,,,,,,,,,,,,,,,
,,60b8b31eb3143c92b950deba,2026-03-17_10h34.43.039,kallum_motion_pilot_GIST_update_2,2026.1.1,Win32,59.88023952,60b8b31eb3143c92b950deba,69b92ab4aef6dee357cd729a,69b92e2bcff8c33e1afc2614,0.0281,0.0281,1,103,265,61,1,threefour,,,,,,,,,,,,,,,,,,,,,,,,,,,,,,,,,,,,,,,,,,,,,,,,,,,,,,,,,,,,,,,,,,,,,,,,,,,,,,,,,,,,,,,,,,,,,,,,,,,,,,,,,,,,,,,,,,,,,,,,,,,,,,,,,,,,,,,,,
,,60b8b31eb3143c92b950deba,2026-03-17_10h34.43.039,kallum_motion_pilot_GIST_update_2,2026.1.1,Win32,59.88023952,60b8b31eb3143c92b950deba,69b92ab4aef6dee357cd729a,69b92e2bcff8c33e1afc2614,0.0281,0.0282,1,104,266,12,1,threeone,,,,,,,,,,,,,,,,,,,,,,,,,,,,,,,,,,,,,,,,,,,,,,,,,,,,,,,,,,,,,,,,,,,,,,,,,,,,,,,,,,,,,,,,,,,,,,,,,,,,,,,,,,,,,,,,,,,,,,,,,,,,,,,,,,,,,,,,,
