startup.started,startup.stopped,Prolific ID*,date,expName,psychopyVersion,OS,frameRate,participant,study_id,session,stimpositions.started,stimpositions.stopped,hardcoded_stimulus_positions.thisRepN,hardcoded_stimulus_positions.thisTrialN,hardcoded_stimulus_positions.thisN,hardcoded_stimulus_positions.thisIndex,hardcoded_stimulus_positions.ran,StimulusPos,stimorientation.started,stimorientation.stopped,prac_stimorientation_import_loop.thisRepN,prac_stimorientation_import_loop.thisTrialN,prac_stimorientation_import_loop.thisN,prac_stimorientation_import_loop.thisIndex,prac_stimorientation_import_loop.ran,Stimorientation,welcome_instr.started,welcome_instr.stopped,key_resp.keys,key_resp.rt,key_resp.duration,response_steppedout_1.started,response_steppedout_1.stopped,key_resp_20.keys,key_resp_20.rt,key_resp_20.duration,response_steppedout_2.started,response_steppedout_2.stopped,key_resp_19.keys,key_resp_19.rt,key_resp_19.duration,stim_response_instr.started,stim_response_instr.stopped,key_resp_15.keys,key_resp_15.rt,key_resp_15.duration,direction_instr_2.started,direction_instr_2.stopped,key_resp_9.keys,key_resp_9.rt,key_resp_9.duration,instr_prac.started,instr_prac.stopped,key_resp_10.keys,key_resp_10.rt,key_resp_10.duration,Stim1_display_prac.started,Stim1_display_prac.stopped,Ecc,Circle1_ori,Circle2_ori,response_prac.started,similarity,response_time,response_prac.stopped,mouse_5.x,mouse_5.y,mouse_5.leftButton,mouse_5.midButton,mouse_5.rightButton,mouse_5.clicked_name,responseprac_feedback.started,responseprac_feedback.stopped,summary2_prac.started,summary2_prac.stopped,mouse_6.x,mouse_6.y,mouse_6.leftButton,mouse_6.midButton,mouse_6.rightButton,mouse_6.clicked_name,duringprac.thisRepN,duringprac.thisTrialN,duringprac.thisN,duringprac.thisIndex,duringprac.ran,begin.started,begin.stopped,key_resp_22.keys,key_resp_22.rt,key_resp_22.duration,Stim1_display.started,Stim1_display.stopped,circle1_ori,circle2_ori,circle1_SF,circle2_SF,response.started,response.stopped,mouse.x,mouse.y,mouse.leftButton,mouse.midButton,mouse.rightButton,mouse.clicked_name,trialnumber,double_pass.thisRepN,double_pass.thisTrialN,double_pass.thisN,double_pass.thisIndex,double_pass.ran,double_pass.order,main_trial.thisRepN,main_trial.thisTrialN,main_trial.thisN,main_trial.thisIndex,main_trial.ran,main_trial.order,Trial_Counter,Catch,Frequencies,response_2.started,response_2.stopped,mouse_2.x,mouse_2.y,mouse_2.leftButton,mouse_2.midButton,mouse_2.rightButton,mouse_2.clicked_name,special_trial.started,special_trial.stopped,catch_1.started,catch_1.stopped,mouse_3.x,mouse_3.y,mouse_3.leftButton,mouse_3.midButton,mouse_3.rightButton,catchresponse,catchnumber,response_time_catch,response_sum.started,response_sum.stopped,mouse_11.x,mouse_11.y,mouse_11.leftButton,mouse_11.midButton,mouse_11.rightButton,flip_presentation_sequence_for_double_pass.started,flip_presentation_sequence_for_double_pass.stopped,goodbye.started,goodbye.stopped,key_resp_3.keys,key_resp_3.rt,key_resp_3.duration
0.0005,0.0006,60dc4394e9e27efa6657582b,2026-03-17_12h43.28.777,kallum_motion_pilot_GIST_update_2,2026.1.1,Win32,60.24096386,60dc4394e9e27efa6657582b,69b92ab4aef6dee357cd729a,69b92aeb6ae0f8bee3719e9f,,,,,,,,,,,,,,,,,,,,,,,,,,,,,,,,,,,,,,,,,,,,,,,,,,,,,,,,,,,,,,,,,,,,,,,,,,,,,,,,,,,,,,,,,,,,,,,,,,,,,,,,,,,,,,,,,,,,,,,,,,,,,,,,,,,,,,,,,,,,,,,,,
,,60dc4394e9e27efa6657582b,2026-03-17_12h43.28.777,kallum_motion_pilot_GIST_update_2,2026.1.1,Win32,60.24096386,60dc4394e9e27efa6657582b,69b92ab4aef6dee357cd729a,69b92aeb6ae0f8bee3719e9f,0.0214,0.0214,0,0,0,23,1,fourthree,,,,,,,,,,,,,,,,,,,,,,,,,,,,,,,,,,,,,,,,,,,,,,,,,,,,,,,,,,,,,,,,,,,,,,,,,,,,,,,,,,,,,,,,,,,,,,,,,,,,,,,,,,,,,,,,,,,,,,,,,,,,,,,,,,,,,,,,,
,,60dc4394e9e27efa6657582b,2026-03-17_12h43.28.777,kallum_motion_pilot_GIST_update_2,2026.1.1,Win32,60.24096386,60dc4394e9e27efa6657582b,69b92ab4aef6dee357cd729a,69b92aeb6ae0f8bee3719e9f,0.0218,0.0218,0,1,1,48,1,onetwo,,,,,,,,,,,,,,,,,,,,,,,,,,,,,,,,,,,,,,,,,,,,,,,,,,,,,,,,,,,,,,,,,,,,,,,,,,,,,,,,,,,,,,,,,,,,,,,,,,,,,,,,,,,,,,,,,,,,,,,,,,,,,,,,,,,,,,,,,
,,60dc4394e9e27efa6657582b,2026-03-17_12h43.28.777,kallum_motion_pilot_GIST_update_2,2026.1.1,Win32,60.24096386,60dc4394e9e27efa6657582b,69b92ab4aef6dee357cd729a,69b92aeb6ae0f8bee3719e9f,0.0219,0.0219,0,2,2,86,1,eightsix,,,,,,,,,,,,,,,,,,,,,,,,,,,,,,,,,,,,,,,,,,,,,,,,,,,,,,,,,,,,,,,,,,,,,,,,,,,,,,,,,,,,,,,,,,,,,,,,,,,,,,,,,,,,,,,,,,,,,,,,,,,,,,,,,,,,,,,,,
,,60dc4394e9e27efa6657582b,2026-03-17_12h43.28.777,kallum_motion_pilot_GIST_update_2,2026.1.1,Win32,60.24096386,60dc4394e9e27efa6657582b,69b92ab4aef6dee357cd729a,69b92aeb6ae0f8bee3719e9f,0.022,0.0221,0,3,3,153,1,fiveseven,,,,,,,,,,,,,,,,,,,,,,,,,,,,,,,,,,,,,,,,,,,,,,,,,,,,,,,,,,,,,,,,,,,,,,,,,,,,,,,,,,,,,,,,,,,,,,,,,,,,,,,,,,,,,,,,,,,,,,,,,,,,,,,,,,,,,,,,,
,,60dc4394e9e27efa6657582b,2026-03-17_12h43.28.777,kallum_motion_pilot_GIST_update_2,2026.1.1,Win32,60.24096386,60dc4394e9e27efa6657582b,69b92ab4aef6dee357cd729a,69b92aeb6ae0f8bee3719e9f,0.0221,0.0221,0,4,4,157,1,seveneight,,,,,,,,,,,,,,,,,,,,,,,,,,,,,,,,,,,,,,,,,,,,,,,,,,,,,,,,,,,,,,,,,,,,,,,,,,,,,,,,,,,,,,,,,,,,,,,,,,,,,,,,,,,,,,,,,,,,,,,,,,,,,,,,,,,,,,,,,
,,60dc4394e9e27efa6657582b,2026-03-17_12h43.28.777,kallum_motion_pilot_GIST_update_2,2026.1.1,Win32,60.24096386,60dc4394e9e27efa6657582b,69b92ab4aef6dee357cd729a,69b92aeb6ae0f8bee3719e9f,0.0223,0.0223,0,5,5,148,1,sevenfive,,,,,,,,,,,,,,,,,,,,,,,,,,,,,,,,,,,,,,,,,,,,,,,,,,,,,,,,,,,,,,,,,,,,,,,,,,,,,,,,,,,,,,,,,,,,,,,,,,,,,,,,,,,,,,,,,,,,,,,,,,,,,,,,,,,,,,,,,
,,60dc4394e9e27efa6657582b,2026-03-17_12h43.28.777,kallum_motion_pilot_GIST_update_2,2026.1.1,Win32,60.24096386,60dc4394e9e27efa6657582b,69b92ab4aef6dee357cd729a,69b92aeb6ae0f8bee3719e9f,0.0224,0.0224,0,6,6,132,1,sevenfive,,,,,,,,,,,,,,,,,,,,,,,,,,,,,,,,,,,,,,,,,,,,,,,,,,,,,,,,,,,,,,,,,,,,,,,,,,,,,,,,,,,,,,,,,,,,,,,,,,,,,,,,,,,,,,,,,,,,,,,,,,,,,,,,,,,,,,,,,
,,60dc4394e9e27efa6657582b,2026-03-17_12h43.28.777,kallum_motion_pilot_GIST_update_2,2026.1.1,Win32,60.24096386,60dc4394e9e27efa6657582b,69b92ab4aef6dee357cd729a,69b92aeb6ae0f8bee3719e9f,0.0224,0.0224,0,7,7,84,1,sevenfive,,,,,,,,,,,,,,,,,,,,,,,,,,,,,,,,,,,,,,,,,,,,,,,,,,,,,,,,,,,,,,,,,,,,,,,,,,,,,,,,,,,,,,,,,,,,,,,,,,,,,,,,,,,,,,,,,,,,,,,,,,,,,,,,,,,,,,,,,
,,60dc4394e9e27efa6657582b,2026-03-17_12h43.28.777,kallum_motion_pilot_GIST_update_2,2026.1.1,Win32,60.24096386,60dc4394e9e27efa6657582b,69b92ab4aef6dee357cd729a,69b92aeb6ae0f8bee3719e9f,0.0228,0.0228,0,8,8,152,1,fivesix,,,,,,,,,,,,,,,,,,,,,,,,,,,,,,,,,,,,,,,,,,,,,,,,,,,,,,,,,,,,,,,,,,,,,,,,,,,,,,,,,,,,,,,,,,,,,,,,,,,,,,,,,,,,,,,,,,,,,,,,,,,,,,,,,,,,,,,,,
,,60dc4394e9e27efa6657582b,2026-03-17_12h43.28.777,kallum_motion_pilot_GIST_update_2,2026.1.1,Win32,60.24096386,60dc4394e9e27efa6657582b,69b92ab4aef6dee357cd729a,69b92aeb6ae0f8bee3719e9f,0.0229,0.023,0,9,9,68,1,threeone,,,,,,,,,,,,,,,,,,,,,,,,,,,,,,,,,,,,,,,,,,,,,,,,,,,,,,,,,,,,,,,,,,,,,,,,,,,,,,,,,,,,,,,,,,,,,,,,,,,,,,,,,,,,,,,,,,,,,,,,,,,,,,,,,,,,,,,,,
,,60dc4394e9e27efa6657582b,2026-03-17_12h43.28.777,kallum_motion_pilot_GIST_update_2,2026.1.1,Win32,60.24096386,60dc4394e9e27efa6657582b,69b92ab4aef6dee357cd729a,69b92aeb6ae0f8bee3719e9f,0.0231,0.0231,0,10,10,95,1,eightseven,,,,,,,,,,,,,,,,,,,,,,,,,,,,,,,,,,,,,,,,,,,,,,,,,,,,,,,,,,,,,,,,,,,,,,,,,,,,,,,,,,,,,,,,,,,,,,,,,,,,,,,,,,,,,,,,,,,,,,,,,,,,,,,,,,,,,,,,,
,,60dc4394e9e27efa6657582b,2026-03-17_12h43.28.777,kallum_motion_pilot_GIST_update_2,2026.1.1,Win32,60.24096386,60dc4394e9e27efa6657582b,69b92ab4aef6dee357cd729a,69b92aeb6ae0f8bee3719e9f,0.0233,0.0233,0,11,11,44,1,threeone,,,,,,,,,,,,,,,,,,,,,,,,,,,,,,,,,,,,,,,,,,,,,,,,,,,,,,,,,,,,,,,,,,,,,,,,,,,,,,,,,,,,,,,,,,,,,,,,,,,,,,,,,,,,,,,,,,,,,,,,,,,,,,,,,,,,,,,,,
,,60dc4394e9e27efa6657582b,2026-03-17_12h43.28.777,kallum_motion_pilot_GIST_update_2,2026.1.1,Win32,60.24096386,60dc4394e9e27efa6657582b,69b92ab4aef6dee357cd729a,69b92aeb6ae0f8bee3719e9f,0.0234,0.0234,0,12,12,97,1,fiveseven,,,,,,,,,,,,,,,,,,,,,,,,,,,,,,,,,,,,,,,,,,,,,,,,,,,,,,,,,,,,,,,,,,,,,,,,,,,,,,,,,,,,,,,,,,,,,,,,,,,,,,,,,,,,,,,,,,,,,,,,,,,,,,,,,,,,,,,,,
,,60dc4394e9e27efa6657582b,2026-03-17_12h43.28.777,kallum_motion_pilot_GIST_update_2,2026.1.1,Win32,60.24096386,60dc4394e9e27efa6657582b,69b92ab4aef6dee357cd729a,69b92aeb6ae0f8bee3719e9f,0.0234,0.0234,0,13,13,160,1,fivesix,,,,,,,,,,,,,,,,,,,,,,,,,,,,,,,,,,,,,,,,,,,,,,,,,,,,,,,,,,,,,,,,,,,,,,,,,,,,,,,,,,,,,,,,,,,,,,,,,,,,,,,,,,,,,,,,,,,,,,,,,,,,,,,,,,,,,,,,,
,,60dc4394e9e27efa6657582b,2026-03-17_12h43.28.777,kallum_motion_pilot_GIST_update_2,2026.1.1,Win32,60.24096386,60dc4394e9e27efa6657582b,69b92ab4aef6dee357cd729a,69b92aeb6ae0f8bee3719e9f,0.0235,0.0235,0,14,14,124,1,sevenfive,,,,,,,,,,,,,,,,,,,,,,,,,,,,,,,,,,,,,,,,,,,,,,,,,,,,,,,,,,,,,,,,,,,,,,,,,,,,,,,,,,,,,,,,,,,,,,,,,,,,,,,,,,,,,,,,,,,,,,,,,,,,,,,,,,,,,,,,,
,,60dc4394e9e27efa6657582b,2026-03-17_12h43.28.777,kallum_motion_pilot_GIST_update_2,2026.1.1,Win32,60.24096386,60dc4394e9e27efa6657582b,69b92ab4aef6dee357cd729a,69b92aeb6ae0f8bee3719e9f,0.0236,0.0236,0,15,15,64,1,onetwo,,,,,,,,,,,,,,,,,,,,,,,,,,,,,,,,,,,,,,,,,,,,,,,,,,,,,,,,,,,,,,,,,,,,,,,,,,,,,,,,,,,,,,,,,,,,,,,,,,,,,,,,,,,,,,,,,,,,,,,,,,,,,,,,,,,,,,,,,
,,60dc4394e9e27efa6657582b,2026-03-17_12h43.28.777,kallum_motion_pilot_GIST_update_2,2026.1.1,Win32,60.24096386,60dc4394e9e27efa6657582b,69b92ab4aef6dee357cd729a,69b92aeb6ae0f8bee3719e9f,0.0237,0.0237,0,16,16,128,1,fivesix,,,,,,,,,,,,,,,,,,,,,,,,,,,,,,,,,,,,,,,,,,,,,,,,,,,,,,,,,,,,,,,,,,,,,,,,,,,,,,,,,,,,,,,,,,,,,,,,,,,,,,,,,,,,,,,,,,,,,,,,,,,,,,,,,,,,,,,,,
,,60dc4394e9e27efa6657582b,2026-03-17_12h43.28.777,kallum_motion_pilot_GIST_update_2,2026.1.1,Win32,60.24096386,60dc4394e9e27efa6657582b,69b92ab4aef6dee357cd729a,69b92aeb6ae0f8bee3719e9f,0.0239,0.0239,0,17,17,139,1,sixeight,,,,,,,,,,,,,,,,,,,,,,,,,,,,,,,,,,,,,,,,,,,,,,,,,,,,,,,,,,,,,,,,,,,,,,,,,,,,,,,,,,,,,,,,,,,,,,,,,,,,,,,,,,,,,,,,,,,,,,,,,,,,,,,,,,,,,,,,,
,,60dc4394e9e27efa6657582b,2026-03-17_12h43.28.777,kallum_motion_pilot_GIST_update_2,2026.1.1,Win32,60.24096386,60dc4394e9e27efa6657582b,69b92ab4aef6dee357cd729a,69b92aeb6ae0f8bee3719e9f,0.024,0.024,0,18,18,96,1,fivesix,,,,,,,,,,,,,,,,,,,,,,,,,,,,,,,,,,,,,,,,,,,,,,,,,,,,,,,,,,,,,,,,,,,,,,,,,,,,,,,,,,,,,,,,,,,,,,,,,,,,,,,,,,,,,,,,,,,,,,,,,,,,,,,,,,,,,,,,,
,,60dc4394e9e27efa6657582b,2026-03-17_12h43.28.777,kallum_motion_pilot_GIST_update_2,2026.1.1,Win32,60.24096386,60dc4394e9e27efa6657582b,69b92ab4aef6dee357cd729a,69b92aeb6ae0f8bee3719e9f,0.0241,0.0241,0,19,19,7,1,fourthree,,,,,,,,,,,,,,,,,,,,,,,,,,,,,,,,,,,,,,,,,,,,,,,,,,,,,,,,,,,,,,,,,,,,,,,,,,,,,,,,,,,,,,,,,,,,,,,,,,,,,,,,,,,,,,,,,,,,,,,,,,,,,,,,,,,,,,,,,
,,60dc4394e9e27efa6657582b,2026-03-17_12h43.28.777,kallum_motion_pilot_GIST_update_2,2026.1.1,Win32,60.24096386,60dc4394e9e27efa6657582b,69b92ab4aef6dee357cd729a,69b92aeb6ae0f8bee3719e9f,0.0242,0.0242,0,20,20,70,1,fourtwo,,,,,,,,,,,,,,,,,,,,,,,,,,,,,,,,,,,,,,,,,,,,,,,,,,,,,,,,,,,,,,,,,,,,,,,,,,,,,,,,,,,,,,,,,,,,,,,,,,,,,,,,,,,,,,,,,,,,,,,,,,,,,,,,,,,,,,,,,
,,60dc4394e9e27efa6657582b,2026-03-17_12h43.28.777,kallum_motion_pilot_GIST_update_2,2026.1.1,Win32,60.24096386,60dc4394e9e27efa6657582b,69b92ab4aef6dee357cd729a,69b92aeb6ae0f8bee3719e9f,0.0243,0.0243,0,21,21,149,1,seveneight,,,,,,,,,,,,,,,,,,,,,,,,,,,,,,,,,,,,,,,,,,,,,,,,,,,,,,,,,,,,,,,,,,,,,,,,,,,,,,,,,,,,,,,,,,,,,,,,,,,,,,,,,,,,,,,,,,,,,,,,,,,,,,,,,,,,,,,,,
,,60dc4394e9e27efa6657582b,2026-03-17_12h43.28.777,kallum_motion_pilot_GIST_update_2,2026.1.1,Win32,60.24096386,60dc4394e9e27efa6657582b,69b92ab4aef6dee357cd729a,69b92aeb6ae0f8bee3719e9f,0.0244,0.0244,0,22,22,53,1,threefour,,,,,,,,,,,,,,,,,,,,,,,,,,,,,,,,,,,,,,,,,,,,,,,,,,,,,,,,,,,,,,,,,,,,,,,,,,,,,,,,,,,,,,,,,,,,,,,,,,,,,,,,,,,,,,,,,,,,,,,,,,,,,,,,,,,,,,,,,
,,60dc4394e9e27efa6657582b,2026-03-17_12h43.28.777,kallum_motion_pilot_GIST_update_2,2026.1.1,Win32,60.24096386,60dc4394e9e27efa6657582b,69b92ab4aef6dee357cd729a,69b92aeb6ae0f8bee3719e9f,0.0244,0.0244,0,23,23,42,1,twoone,,,,,,,,,,,,,,,,,,,,,,,,,,,,,,,,,,,,,,,,,,,,,,,,,,,,,,,,,,,,,,,,,,,,,,,,,,,,,,,,,,,,,,,,,,,,,,,,,,,,,,,,,,,,,,,,,,,,,,,,,,,,,,,,,,,,,,,,,
,,60dc4394e9e27efa6657582b,2026-03-17_12h43.28.777,kallum_motion_pilot_GIST_update_2,2026.1.1,Win32,60.24096386,60dc4394e9e27efa6657582b,69b92ab4aef6dee357cd729a,69b92aeb6ae0f8bee3719e9f,0.0245,0.0245,0,24,24,13,1,threefour,,,,,,,,,,,,,,,,,,,,,,,,,,,,,,,,,,,,,,,,,,,,,,,,,,,,,,,,,,,,,,,,,,,,,,,,,,,,,,,,,,,,,,,,,,,,,,,,,,,,,,,,,,,,,,,,,,,,,,,,,,,,,,,,,,,,,,,,,
,,60dc4394e9e27efa6657582b,2026-03-17_12h43.28.777,kallum_motion_pilot_GIST_update_2,2026.1.1,Win32,60.24096386,60dc4394e9e27efa6657582b,69b92ab4aef6dee357cd729a,69b92aeb6ae0f8bee3719e9f,0.0247,0.0247,0,25,25,14,1,fourtwo,,,,,,,,,,,,,,,,,,,,,,,,,,,,,,,,,,,,,,,,,,,,,,,,,,,,,,,,,,,,,,,,,,,,,,,,,,,,,,,,,,,,,,,,,,,,,,,,,,,,,,,,,,,,,,,,,,,,,,,,,,,,,,,,,,,,,,,,,
,,60dc4394e9e27efa6657582b,2026-03-17_12h43.28.777,kallum_motion_pilot_GIST_update_2,2026.1.1,Win32,60.24096386,60dc4394e9e27efa6657582b,69b92ab4aef6dee357cd729a,69b92aeb6ae0f8bee3719e9f,0.0248,0.0248,0,26,26,2,1,twoone,,,,,,,,,,,,,,,,,,,,,,,,,,,,,,,,,,,,,,,,,,,,,,,,,,,,,,,,,,,,,,,,,,,,,,,,,,,,,,,,,,,,,,,,,,,,,,,,,,,,,,,,,,,,,,,,,,,,,,,,,,,,,,,,,,,,,,,,,
,,60dc4394e9e27efa6657582b,2026-03-17_12h43.28.777,kallum_motion_pilot_GIST_update_2,2026.1.1,Win32,60.24096386,60dc4394e9e27efa6657582b,69b92ab4aef6dee357cd729a,69b92aeb6ae0f8bee3719e9f,0.0248,0.0248,0,27,27,93,1,seveneight,,,,,,,,,,,,,,,,,,,,,,,,,,,,,,,,,,,,,,,,,,,,,,,,,,,,,,,,,,,,,,,,,,,,,,,,,,,,,,,,,,,,,,,,,,,,,,,,,,,,,,,,,,,,,,,,,,,,,,,,,,,,,,,,,,,,,,,,,
,,60dc4394e9e27efa6657582b,2026-03-17_12h43.28.777,kallum_motion_pilot_GIST_update_2,2026.1.1,Win32,60.24096386,60dc4394e9e27efa6657582b,69b92ab4aef6dee357cd729a,69b92aeb6ae0f8bee3719e9f,0.025,0.025,0,28,28,61,1,threefour,,,,,,,,,,,,,,,,,,,,,,,,,,,,,,,,,,,,,,,,,,,,,,,,,,,,,,,,,,,,,,,,,,,,,,,,,,,,,,,,,,,,,,,,,,,,,,,,,,,,,,,,,,,,,,,,,,,,,,,,,,,,,,,,,,,,,,,,,
,,60dc4394e9e27efa6657582b,2026-03-17_12h43.28.777,kallum_motion_pilot_GIST_update_2,2026.1.1,Win32,60.24096386,60dc4394e9e27efa6657582b,69b92ab4aef6dee357cd729a,69b92aeb6ae0f8bee3719e9f,0.025,0.025,0,29,29,108,1,sevenfive,,,,,,,,,,,,,,,,,,,,,,,,,,,,,,,,,,,,,,,,,,,,,,,,,,,,,,,,,,,,,,,,,,,,,,,,,,,,,,,,,,,,,,,,,,,,,,,,,,,,,,,,,,,,,,,,,,,,,,,,,,,,,,,,,,,,,,,,,
,,60dc4394e9e27efa6657582b,2026-03-17_12h43.28.777,kallum_motion_pilot_GIST_update_2,2026.1.1,Win32,60.24096386,60dc4394e9e27efa6657582b,69b92ab4aef6dee357cd729a,69b92aeb6ae0f8bee3719e9f,0.0252,0.0252,0,30,30,158,1,eightsix,,,,,,,,,,,,,,,,,,,,,,,,,,,,,,,,,,,,,,,,,,,,,,,,,,,,,,,,,,,,,,,,,,,,,,,,,,,,,,,,,,,,,,,,,,,,,,,,,,,,,,,,,,,,,,,,,,,,,,,,,,,,,,,,,,,,,,,,,
,,60dc4394e9e27efa6657582b,2026-03-17_12h43.28.777,kallum_motion_pilot_GIST_update_2,2026.1.1,Win32,60.24096386,60dc4394e9e27efa6657582b,69b92ab4aef6dee357cd729a,69b92aeb6ae0f8bee3719e9f,0.0253,0.0253,0,31,31,105,1,fiveseven,,,,,,,,,,,,,,,,,,,,,,,,,,,,,,,,,,,,,,,,,,,,,,,,,,,,,,,,,,,,,,,,,,,,,,,,,,,,,,,,,,,,,,,,,,,,,,,,,,,,,,,,,,,,,,,,,,,,,,,,,,,,,,,,,,,,,,,,,
,,60dc4394e9e27efa6657582b,2026-03-17_12h43.28.777,kallum_motion_pilot_GIST_update_2,2026.1.1,Win32,60.24096386,60dc4394e9e27efa6657582b,69b92ab4aef6dee357cd729a,69b92aeb6ae0f8bee3719e9f,0.0254,0.0254,0,32,32,51,1,twofour,,,,,,,,,,,,,,,,,,,,,,,,,,,,,,,,,,,,,,,,,,,,,,,,,,,,,,,,,,,,,,,,,,,,,,,,,,,,,,,,,,,,,,,,,,,,,,,,,,,,,,,,,,,,,,,,,,,,,,,,,,,,,,,,,,,,,,,,,
,,60dc4394e9e27efa6657582b,2026-03-17_12h43.28.777,kallum_motion_pilot_GIST_update_2,2026.1.1,Win32,60.24096386,60dc4394e9e27efa6657582b,69b92ab4aef6dee357cd729a,69b92aeb6ae0f8bee3719e9f,0.0254,0.0254,0,33,33,146,1,sixfive,,,,,,,,,,,,,,,,,,,,,,,,,,,,,,,,,,,,,,,,,,,,,,,,,,,,,,,,,,,,,,,,,,,,,,,,,,,,,,,,,,,,,,,,,,,,,,,,,,,,,,,,,,,,,,,,,,,,,,,,,,,,,,,,,,,,,,,,,
,,60dc4394e9e27efa6657582b,2026-03-17_12h43.28.777,kallum_motion_pilot_GIST_update_2,2026.1.1,Win32,60.24096386,60dc4394e9e27efa6657582b,69b92ab4aef6dee357cd729a,69b92aeb6ae0f8bee3719e9f,0.0255,0.0255,0,34,34,54,1,fourtwo,,,,,,,,,,,,,,,,,,,,,,,,,,,,,,,,,,,,,,,,,,,,,,,,,,,,,,,,,,,,,,,,,,,,,,,,,,,,,,,,,,,,,,,,,,,,,,,,,,,,,,,,,,,,,,,,,,,,,,,,,,,,,,,,,,,,,,,,,
,,60dc4394e9e27efa6657582b,2026-03-17_12h43.28.777,kallum_motion_pilot_GIST_update_2,2026.1.1,Win32,60.24096386,60dc4394e9e27efa6657582b,69b92ab4aef6dee357cd729a,69b92aeb6ae0f8bee3719e9f,0.0256,0.0256,0,35,35,147,1,sixeight,,,,,,,,,,,,,,,,,,,,,,,,,,,,,,,,,,,,,,,,,,,,,,,,,,,,,,,,,,,,,,,,,,,,,,,,,,,,,,,,,,,,,,,,,,,,,,,,,,,,,,,,,,,,,,,,,,,,,,,,,,,,,,,,,,,,,,,,,
,,60dc4394e9e27efa6657582b,2026-03-17_12h43.28.777,kallum_motion_pilot_GIST_update_2,2026.1.1,Win32,60.24096386,60dc4394e9e27efa6657582b,69b92ab4aef6dee357cd729a,69b92aeb6ae0f8bee3719e9f,0.0256,0.0256,0,36,36,4,1,threeone,,,,,,,,,,,,,,,,,,,,,,,,,,,,,,,,,,,,,,,,,,,,,,,,,,,,,,,,,,,,,,,,,,,,,,,,,,,,,,,,,,,,,,,,,,,,,,,,,,,,,,,,,,,,,,,,,,,,,,,,,,,,,,,,,,,,,,,,,
,,60dc4394e9e27efa6657582b,2026-03-17_12h43.28.777,kallum_motion_pilot_GIST_update_2,2026.1.1,Win32,60.24096386,60dc4394e9e27efa6657582b,69b92ab4aef6dee357cd729a,69b92aeb6ae0f8bee3719e9f,0.0257,0.0257,0,37,37,141,1,seveneight,,,,,,,,,,,,,,,,,,,,,,,,,,,,,,,,,,,,,,,,,,,,,,,,,,,,,,,,,,,,,,,,,,,,,,,,,,,,,,,,,,,,,,,,,,,,,,,,,,,,,,,,,,,,,,,,,,,,,,,,,,,,,,,,,,,,,,,,,
,,60dc4394e9e27efa6657582b,2026-03-17_12h43.28.777,kallum_motion_pilot_GIST_update_2,2026.1.1,Win32,60.24096386,60dc4394e9e27efa6657582b,69b92ab4aef6dee357cd729a,69b92aeb6ae0f8bee3719e9f,0.0258,0.0258,0,38,38,15,1,fourthree,,,,,,,,,,,,,,,,,,,,,,,,,,,,,,,,,,,,,,,,,,,,,,,,,,,,,,,,,,,,,,,,,,,,,,,,,,,,,,,,,,,,,,,,,,,,,,,,,,,,,,,,,,,,,,,,,,,,,,,,,,,,,,,,,,,,,,,,,
,,60dc4394e9e27efa6657582b,2026-03-17_12h43.28.777,kallum_motion_pilot_GIST_update_2,2026.1.1,Win32,60.24096386,60dc4394e9e27efa6657582b,69b92ab4aef6dee357cd729a,69b92aeb6ae0f8bee3719e9f,0.0259,0.0259,0,39,39,138,1,sixfive,,,,,,,,,,,,,,,,,,,,,,,,,,,,,,,,,,,,,,,,,,,,,,,,,,,,,,,,,,,,,,,,,,,,,,,,,,,,,,,,,,,,,,,,,,,,,,,,,,,,,,,,,,,,,,,,,,,,,,,,,,,,,,,,,,,,,,,,,
,,60dc4394e9e27efa6657582b,2026-03-17_12h43.28.777,kallum_motion_pilot_GIST_update_2,2026.1.1,Win32,60.24096386,60dc4394e9e27efa6657582b,69b92ab4aef6dee357cd729a,69b92aeb6ae0f8bee3719e9f,0.026,0.026,0,40,40,130,1,sixfive,,,,,,,,,,,,,,,,,,,,,,,,,,,,,,,,,,,,,,,,,,,,,,,,,,,,,,,,,,,,,,,,,,,,,,,,,,,,,,,,,,,,,,,,,,,,,,,,,,,,,,,,,,,,,,,,,,,,,,,,,,,,,,,,,,,,,,,,,
,,60dc4394e9e27efa6657582b,2026-03-17_12h43.28.777,kallum_motion_pilot_GIST_update_2,2026.1.1,Win32,60.24096386,60dc4394e9e27efa6657582b,69b92ab4aef6dee357cd729a,69b92aeb6ae0f8bee3719e9f,0.026,0.026,0,41,41,110,1,eightsix,,,,,,,,,,,,,,,,,,,,,,,,,,,,,,,,,,,,,,,,,,,,,,,,,,,,,,,,,,,,,,,,,,,,,,,,,,,,,,,,,,,,,,,,,,,,,,,,,,,,,,,,,,,,,,,,,,,,,,,,,,,,,,,,,,,,,,,,,
,,60dc4394e9e27efa6657582b,2026-03-17_12h43.28.777,kallum_motion_pilot_GIST_update_2,2026.1.1,Win32,60.24096386,60dc4394e9e27efa6657582b,69b92ab4aef6dee357cd729a,69b92aeb6ae0f8bee3719e9f,0.0261,0.0261,0,42,42,150,1,eightsix,,,,,,,,,,,,,,,,,,,,,,,,,,,,,,,,,,,,,,,,,,,,,,,,,,,,,,,,,,,,,,,,,,,,,,,,,,,,,,,,,,,,,,,,,,,,,,,,,,,,,,,,,,,,,,,,,,,,,,,,,,,,,,,,,,,,,,,,,
,,60dc4394e9e27efa6657582b,2026-03-17_12h43.28.777,kallum_motion_pilot_GIST_update_2,2026.1.1,Win32,60.24096386,60dc4394e9e27efa6657582b,69b92ab4aef6dee357cd729a,69b92aeb6ae0f8bee3719e9f,0.0262,0.0262,0,43,43,87,1,eightseven,,,,,,,,,,,,,,,,,,,,,,,,,,,,,,,,,,,,,,,,,,,,,,,,,,,,,,,,,,,,,,,,,,,,,,,,,,,,,,,,,,,,,,,,,,,,,,,,,,,,,,,,,,,,,,,,,,,,,,,,,,,,,,,,,,,,,,,,,
,,60dc4394e9e27efa6657582b,2026-03-17_12h43.28.777,kallum_motion_pilot_GIST_update_2,2026.1.1,Win32,60.24096386,60dc4394e9e27efa6657582b,69b92ab4aef6dee357cd729a,69b92aeb6ae0f8bee3719e9f,0.0262,0.0262,0,44,44,144,1,fivesix,,,,,,,,,,,,,,,,,,,,,,,,,,,,,,,,,,,,,,,,,,,,,,,,,,,,,,,,,,,,,,,,,,,,,,,,,,,,,,,,,,,,,,,,,,,,,,,,,,,,,,,,,,,,,,,,,,,,,,,,,,,,,,,,,,,,,,,,,
,,60dc4394e9e27efa6657582b,2026-03-17_12h43.28.777,kallum_motion_pilot_GIST_update_2,2026.1.1,Win32,60.24096386,60dc4394e9e27efa6657582b,69b92ab4aef6dee357cd729a,69b92aeb6ae0f8bee3719e9f,0.0263,0.0264,0,45,45,99,1,sixeight,,,,,,,,,,,,,,,,,,,,,,,,,,,,,,,,,,,,,,,,,,,,,,,,,,,,,,,,,,,,,,,,,,,,,,,,,,,,,,,,,,,,,,,,,,,,,,,,,,,,,,,,,,,,,,,,,,,,,,,,,,,,,,,,,,,,,,,,,
,,60dc4394e9e27efa6657582b,2026-03-17_12h43.28.777,kallum_motion_pilot_GIST_update_2,2026.1.1,Win32,60.24096386,60dc4394e9e27efa6657582b,69b92ab4aef6dee357cd729a,69b92aeb6ae0f8bee3719e9f,0.0264,0.0264,0,46,46,80,1,fivesix,,,,,,,,,,,,,,,,,,,,,,,,,,,,,,,,,,,,,,,,,,,,,,,,,,,,,,,,,,,,,,,,,,,,,,,,,,,,,,,,,,,,,,,,,,,,,,,,,,,,,,,,,,,,,,,,,,,,,,,,,,,,,,,,,,,,,,,,,
,,60dc4394e9e27efa6657582b,2026-03-17_12h43.28.777,kallum_motion_pilot_GIST_update_2,2026.1.1,Win32,60.24096386,60dc4394e9e27efa6657582b,69b92ab4aef6dee357cd729a,69b92aeb6ae0f8bee3719e9f,0.0265,0.0265,0,47,47,85,1,seveneight,,,,,,,,,,,,,,,,,,,,,,,,,,,,,,,,,,,,,,,,,,,,,,,,,,,,,,,,,,,,,,,,,,,,,,,,,,,,,,,,,,,,,,,,,,,,,,,,,,,,,,,,,,,,,,,,,,,,,,,,,,,,,,,,,,,,,,,,,
,,60dc4394e9e27efa6657582b,2026-03-17_12h43.28.777,kallum_motion_pilot_GIST_update_2,2026.1.1,Win32,60.24096386,60dc4394e9e27efa6657582b,69b92ab4aef6dee357cd729a,69b92aeb6ae0f8bee3719e9f,0.0266,0.0266,0,48,48,22,1,fourtwo,,,,,,,,,,,,,,,,,,,,,,,,,,,,,,,,,,,,,,,,,,,,,,,,,,,,,,,,,,,,,,,,,,,,,,,,,,,,,,,,,,,,,,,,,,,,,,,,,,,,,,,,,,,,,,,,,,,,,,,,,,,,,,,,,,,,,,,,,
,,60dc4394e9e27efa6657582b,2026-03-17_12h43.28.777,kallum_motion_pilot_GIST_update_2,2026.1.1,Win32,60.24096386,60dc4394e9e27efa6657582b,69b92ab4aef6dee357cd729a,69b92aeb6ae0f8bee3719e9f,0.0267,0.0267,0,49,49,31,1,fourthree,,,,,,,,,,,,,,,,,,,,,,,,,,,,,,,,,,,,,,,,,,,,,,,,,,,,,,,,,,,,,,,,,,,,,,,,,,,,,,,,,,,,,,,,,,,,,,,,,,,,,,,,,,,,,,,,,,,,,,,,,,,,,,,,,,,,,,,,,
,,60dc4394e9e27efa6657582b,2026-03-17_12h43.28.777,kallum_motion_pilot_GIST_update_2,2026.1.1,Win32,60.24096386,60dc4394e9e27efa6657582b,69b92ab4aef6dee357cd729a,69b92aeb6ae0f8bee3719e9f,0.0268,0.0268,0,50,50,57,1,onethree,,,,,,,,,,,,,,,,,,,,,,,,,,,,,,,,,,,,,,,,,,,,,,,,,,,,,,,,,,,,,,,,,,,,,,,,,,,,,,,,,,,,,,,,,,,,,,,,,,,,,,,,,,,,,,,,,,,,,,,,,,,,,,,,,,,,,,,,,
,,60dc4394e9e27efa6657582b,2026-03-17_12h43.28.777,kallum_motion_pilot_GIST_update_2,2026.1.1,Win32,60.24096386,60dc4394e9e27efa6657582b,69b92ab4aef6dee357cd729a,69b92aeb6ae0f8bee3719e9f,0.0269,0.0269,0,51,51,140,1,sevenfive,,,,,,,,,,,,,,,,,,,,,,,,,,,,,,,,,,,,,,,,,,,,,,,,,,,,,,,,,,,,,,,,,,,,,,,,,,,,,,,,,,,,,,,,,,,,,,,,,,,,,,,,,,,,,,,,,,,,,,,,,,,,,,,,,,,,,,,,,
,,60dc4394e9e27efa6657582b,2026-03-17_12h43.28.777,kallum_motion_pilot_GIST_update_2,2026.1.1,Win32,60.24096386,60dc4394e9e27efa6657582b,69b92ab4aef6dee357cd729a,69b92aeb6ae0f8bee3719e9f,0.027,0.027,0,52,52,116,1,sevenfive,,,,,,,,,,,,,,,,,,,,,,,,,,,,,,,,,,,,,,,,,,,,,,,,,,,,,,,,,,,,,,,,,,,,,,,,,,,,,,,,,,,,,,,,,,,,,,,,,,,,,,,,,,,,,,,,,,,,,,,,,,,,,,,,,,,,,,,,,
,,60dc4394e9e27efa6657582b,2026-03-17_12h43.28.777,kallum_motion_pilot_GIST_update_2,2026.1.1,Win32,60.24096386,60dc4394e9e27efa6657582b,69b92ab4aef6dee357cd729a,69b92aeb6ae0f8bee3719e9f,0.027,0.027,0,53,53,120,1,fivesix,,,,,,,,,,,,,,,,,,,,,,,,,,,,,,,,,,,,,,,,,,,,,,,,,,,,,,,,,,,,,,,,,,,,,,,,,,,,,,,,,,,,,,,,,,,,,,,,,,,,,,,,,,,,,,,,,,,,,,,,,,,,,,,,,,,,,,,,,
,,60dc4394e9e27efa6657582b,2026-03-17_12h43.28.777,kallum_motion_pilot_GIST_update_2,2026.1.1,Win32,60.24096386,60dc4394e9e27efa6657582b,69b92ab4aef6dee357cd729a,69b92aeb6ae0f8bee3719e9f,0.0271,0.0272,0,54,54,126,1,eightsix,,,,,,,,,,,,,,,,,,,,,,,,,,,,,,,,,,,,,,,,,,,,,,,,,,,,,,,,,,,,,,,,,,,,,,,,,,,,,,,,,,,,,,,,,,,,,,,,,,,,,,,,,,,,,,,,,,,,,,,,,,,,,,,,,,,,,,,,,
,,60dc4394e9e27efa6657582b,2026-03-17_12h43.28.777,kallum_motion_pilot_GIST_update_2,2026.1.1,Win32,60.24096386,60dc4394e9e27efa6657582b,69b92ab4aef6dee357cd729a,69b92aeb6ae0f8bee3719e9f,0.0273,0.0273,0,55,55,143,1,eightseven,,,,,,,,,,,,,,,,,,,,,,,,,,,,,,,,,,,,,,,,,,,,,,,,,,,,,,,,,,,,,,,,,,,,,,,,,,,,,,,,,,,,,,,,,,,,,,,,,,,,,,,,,,,,,,,,,,,,,,,,,,,,,,,,,,,,,,,,,
,,60dc4394e9e27efa6657582b,2026-03-17_12h43.28.777,kallum_motion_pilot_GIST_update_2,2026.1.1,Win32,60.24096386,60dc4394e9e27efa6657582b,69b92ab4aef6dee357cd729a,69b92aeb6ae0f8bee3719e9f,0.0274,0.0274,0,56,56,111,1,eightseven,,,,,,,,,,,,,,,,,,,,,,,,,,,,,,,,,,,,,,,,,,,,,,,,,,,,,,,,,,,,,,,,,,,,,,,,,,,,,,,,,,,,,,,,,,,,,,,,,,,,,,,,,,,,,,,,,,,,,,,,,,,,,,,,,,,,,,,,,
,,60dc4394e9e27efa6657582b,2026-03-17_12h43.28.777,kallum_motion_pilot_GIST_update_2,2026.1.1,Win32,60.24096386,60dc4394e9e27efa6657582b,69b92ab4aef6dee357cd729a,69b92aeb6ae0f8bee3719e9f,0.0275,0.0275,0,57,57,30,1,fourtwo,,,,,,,,,,,,,,,,,,,,,,,,,,,,,,,,,,,,,,,,,,,,,,,,,,,,,,,,,,,,,,,,,,,,,,,,,,,,,,,,,,,,,,,,,,,,,,,,,,,,,,,,,,,,,,,,,,,,,,,,,,,,,,,,,,,,,,,,,
,,60dc4394e9e27efa6657582b,2026-03-17_12h43.28.777,kallum_motion_pilot_GIST_update_2,2026.1.1,Win32,60.24096386,60dc4394e9e27efa6657582b,69b92ab4aef6dee357cd729a,69b92aeb6ae0f8bee3719e9f,0.0276,0.0276,0,58,58,43,1,twofour,,,,,,,,,,,,,,,,,,,,,,,,,,,,,,,,,,,,,,,,,,,,,,,,,,,,,,,,,,,,,,,,,,,,,,,,,,,,,,,,,,,,,,,,,,,,,,,,,,,,,,,,,,,,,,,,,,,,,,,,,,,,,,,,,,,,,,,,,
,,60dc4394e9e27efa6657582b,2026-03-17_12h43.28.777,kallum_motion_pilot_GIST_update_2,2026.1.1,Win32,60.24096386,60dc4394e9e27efa6657582b,69b92ab4aef6dee357cd729a,69b92aeb6ae0f8bee3719e9f,0.0277,0.0277,0,59,59,145,1,fiveseven,,,,,,,,,,,,,,,,,,,,,,,,,,,,,,,,,,,,,,,,,,,,,,,,,,,,,,,,,,,,,,,,,,,,,,,,,,,,,,,,,,,,,,,,,,,,,,,,,,,,,,,,,,,,,,,,,,,,,,,,,,,,,,,,,,,,,,,,,
,,60dc4394e9e27efa6657582b,2026-03-17_12h43.28.777,kallum_motion_pilot_GIST_update_2,2026.1.1,Win32,60.24096386,60dc4394e9e27efa6657582b,69b92ab4aef6dee357cd729a,69b92aeb6ae0f8bee3719e9f,0.0278,0.0278,0,60,60,113,1,fiveseven,,,,,,,,,,,,,,,,,,,,,,,,,,,,,,,,,,,,,,,,,,,,,,,,,,,,,,,,,,,,,,,,,,,,,,,,,,,,,,,,,,,,,,,,,,,,,,,,,,,,,,,,,,,,,,,,,,,,,,,,,,,,,,,,,,,,,,,,,
,,60dc4394e9e27efa6657582b,2026-03-17_12h43.28.777,kallum_motion_pilot_GIST_update_2,2026.1.1,Win32,60.24096386,60dc4394e9e27efa6657582b,69b92ab4aef6dee357cd729a,69b92aeb6ae0f8bee3719e9f,0.0278,0.0278,0,61,61,125,1,seveneight,,,,,,,,,,,,,,,,,,,,,,,,,,,,,,,,,,,,,,,,,,,,,,,,,,,,,,,,,,,,,,,,,,,,,,,,,,,,,,,,,,,,,,,,,,,,,,,,,,,,,,,,,,,,,,,,,,,,,,,,,,,,,,,,,,,,,,,,,
,,60dc4394e9e27efa6657582b,2026-03-17_12h43.28.777,kallum_motion_pilot_GIST_update_2,2026.1.1,Win32,60.24096386,60dc4394e9e27efa6657582b,69b92ab4aef6dee357cd729a,69b92aeb6ae0f8bee3719e9f,0.0279,0.0279,0,62,62,72,1,onetwo,,,,,,,,,,,,,,,,,,,,,,,,,,,,,,,,,,,,,,,,,,,,,,,,,,,,,,,,,,,,,,,,,,,,,,,,,,,,,,,,,,,,,,,,,,,,,,,,,,,,,,,,,,,,,,,,,,,,,,,,,,,,,,,,,,,,,,,,,
,,60dc4394e9e27efa6657582b,2026-03-17_12h43.28.777,kallum_motion_pilot_GIST_update_2,2026.1.1,Win32,60.24096386,60dc4394e9e27efa6657582b,69b92ab4aef6dee357cd729a,69b92aeb6ae0f8bee3719e9f,0.0281,0.0281,0,63,63,122,1,sixfive,,,,,,,,,,,,,,,,,,,,,,,,,,,,,,,,,,,,,,,,,,,,,,,,,,,,,,,,,,,,,,,,,,,,,,,,,,,,,,,,,,,,,,,,,,,,,,,,,,,,,,,,,,,,,,,,,,,,,,,,,,,,,,,,,,,,,,,,,
,,60dc4394e9e27efa6657582b,2026-03-17_12h43.28.777,kallum_motion_pilot_GIST_update_2,2026.1.1,Win32,60.24096386,60dc4394e9e27efa6657582b,69b92ab4aef6dee357cd729a,69b92aeb6ae0f8bee3719e9f,0.0282,0.0282,0,64,64,119,1,eightseven,,,,,,,,,,,,,,,,,,,,,,,,,,,,,,,,,,,,,,,,,,,,,,,,,,,,,,,,,,,,,,,,,,,,,,,,,,,,,,,,,,,,,,,,,,,,,,,,,,,,,,,,,,,,,,,,,,,,,,,,,,,,,,,,,,,,,,,,,
,,60dc4394e9e27efa6657582b,2026-03-17_12h43.28.777,kallum_motion_pilot_GIST_update_2,2026.1.1,Win32,60.24096386,60dc4394e9e27efa6657582b,69b92ab4aef6dee357cd729a,69b92aeb6ae0f8bee3719e9f,0.0283,0.0283,0,65,65,142,1,eightsix,,,,,,,,,,,,,,,,,,,,,,,,,,,,,,,,,,,,,,,,,,,,,,,,,,,,,,,,,,,,,,,,,,,,,,,,,,,,,,,,,,,,,,,,,,,,,,,,,,,,,,,,,,,,,,,,,,,,,,,,,,,,,,,,,,,,,,,,,
,,60dc4394e9e27efa6657582b,2026-03-17_12h43.28.777,kallum_motion_pilot_GIST_update_2,2026.1.1,Win32,60.24096386,60dc4394e9e27efa6657582b,69b92ab4aef6dee357cd729a,69b92aeb6ae0f8bee3719e9f,0.0284,0.0284,0,66,66,41,1,onethree,,,,,,,,,,,,,,,,,,,,,,,,,,,,,,,,,,,,,,,,,,,,,,,,,,,,,,,,,,,,,,,,,,,,,,,,,,,,,,,,,,,,,,,,,,,,,,,,,,,,,,,,,,,,,,,,,,,,,,,,,,,,,,,,,,,,,,,,,
,,60dc4394e9e27efa6657582b,2026-03-17_12h43.28.777,kallum_motion_pilot_GIST_update_2,2026.1.1,Win32,60.24096386,60dc4394e9e27efa6657582b,69b92ab4aef6dee357cd729a,69b92aeb6ae0f8bee3719e9f,0.0285,0.0285,0,67,67,118,1,eightsix,,,,,,,,,,,,,,,,,,,,,,,,,,,,,,,,,,,,,,,,,,,,,,,,,,,,,,,,,,,,,,,,,,,,,,,,,,,,,,,,,,,,,,,,,,,,,,,,,,,,,,,,,,,,,,,,,,,,,,,,,,,,,,,,,,,,,,,,,
,,60dc4394e9e27efa6657582b,2026-03-17_12h43.28.777,kallum_motion_pilot_GIST_update_2,2026.1.1,Win32,60.24096386,60dc4394e9e27efa6657582b,69b92ab4aef6dee357cd729a,69b92aeb6ae0f8bee3719e9f,0.0286,0.0286,0,68,68,26,1,twoone,,,,,,,,,,,,,,,,,,,,,,,,,,,,,,,,,,,,,,,,,,,,,,,,,,,,,,,,,,,,,,,,,,,,,,,,,,,,,,,,,,,,,,,,,,,,,,,,,,,,,,,,,,,,,,,,,,,,,,,,,,,,,,,,,,,,,,,,,
,,60dc4394e9e27efa6657582b,2026-03-17_12h43.28.777,kallum_motion_pilot_GIST_update_2,2026.1.1,Win32,60.24096386,60dc4394e9e27efa6657582b,69b92ab4aef6dee357cd729a,69b92aeb6ae0f8bee3719e9f,0.0287,0.0287,0,69,69,58,1,twoone,,,,,,,,,,,,,,,,,,,,,,,,,,,,,,,,,,,,,,,,,,,,,,,,,,,,,,,,,,,,,,,,,,,,,,,,,,,,,,,,,,,,,,,,,,,,,,,,,,,,,,,,,,,,,,,,,,,,,,,,,,,,,,,,,,,,,,,,,
,,60dc4394e9e27efa6657582b,2026-03-17_12h43.28.777,kallum_motion_pilot_GIST_update_2,2026.1.1,Win32,60.24096386,60dc4394e9e27efa6657582b,69b92ab4aef6dee357cd729a,69b92aeb6ae0f8bee3719e9f,0.0289,0.0289,0,70,70,134,1,eightsix,,,,,,,,,,,,,,,,,,,,,,,,,,,,,,,,,,,,,,,,,,,,,,,,,,,,,,,,,,,,,,,,,,,,,,,,,,,,,,,,,,,,,,,,,,,,,,,,,,,,,,,,,,,,,,,,,,,,,,,,,,,,,,,,,,,,,,,,,
,,60dc4394e9e27efa6657582b,2026-03-17_12h43.28.777,kallum_motion_pilot_GIST_update_2,2026.1.1,Win32,60.24096386,60dc4394e9e27efa6657582b,69b92ab4aef6dee357cd729a,69b92aeb6ae0f8bee3719e9f,0.0289,0.0289,0,71,71,133,1,seveneight,,,,,,,,,,,,,,,,,,,,,,,,,,,,,,,,,,,,,,,,,,,,,,,,,,,,,,,,,,,,,,,,,,,,,,,,,,,,,,,,,,,,,,,,,,,,,,,,,,,,,,,,,,,,,,,,,,,,,,,,,,,,,,,,,,,,,,,,,
,,60dc4394e9e27efa6657582b,2026-03-17_12h43.28.777,kallum_motion_pilot_GIST_update_2,2026.1.1,Win32,60.24096386,60dc4394e9e27efa6657582b,69b92ab4aef6dee357cd729a,69b92aeb6ae0f8bee3719e9f,0.0291,0.0291,0,72,72,66,1,twoone,,,,,,,,,,,,,,,,,,,,,,,,,,,,,,,,,,,,,,,,,,,,,,,,,,,,,,,,,,,,,,,,,,,,,,,,,,,,,,,,,,,,,,,,,,,,,,,,,,,,,,,,,,,,,,,,,,,,,,,,,,,,,,,,,,,,,,,,,
,,60dc4394e9e27efa6657582b,2026-03-17_12h43.28.777,kallum_motion_pilot_GIST_update_2,2026.1.1,Win32,60.24096386,60dc4394e9e27efa6657582b,69b92ab4aef6dee357cd729a,69b92aeb6ae0f8bee3719e9f,0.0291,0.0291,0,73,73,38,1,fourtwo,,,,,,,,,,,,,,,,,,,,,,,,,,,,,,,,,,,,,,,,,,,,,,,,,,,,,,,,,,,,,,,,,,,,,,,,,,,,,,,,,,,,,,,,,,,,,,,,,,,,,,,,,,,,,,,,,,,,,,,,,,,,,,,,,,,,,,,,,
,,60dc4394e9e27efa6657582b,2026-03-17_12h43.28.777,kallum_motion_pilot_GIST_update_2,2026.1.1,Win32,60.24096386,60dc4394e9e27efa6657582b,69b92ab4aef6dee357cd729a,69b92aeb6ae0f8bee3719e9f,0.0291,0.0291,0,74,74,5,1,threefour,,,,,,,,,,,,,,,,,,,,,,,,,,,,,,,,,,,,,,,,,,,,,,,,,,,,,,,,,,,,,,,,,,,,,,,,,,,,,,,,,,,,,,,,,,,,,,,,,,,,,,,,,,,,,,,,,,,,,,,,,,,,,,,,,,,,,,,,,
,,60dc4394e9e27efa6657582b,2026-03-17_12h43.28.777,kallum_motion_pilot_GIST_update_2,2026.1.1,Win32,60.24096386,60dc4394e9e27efa6657582b,69b92ab4aef6dee357cd729a,69b92aeb6ae0f8bee3719e9f,0.0292,0.0292,0,75,75,36,1,threeone,,,,,,,,,,,,,,,,,,,,,,,,,,,,,,,,,,,,,,,,,,,,,,,,,,,,,,,,,,,,,,,,,,,,,,,,,,,,,,,,,,,,,,,,,,,,,,,,,,,,,,,,,,,,,,,,,,,,,,,,,,,,,,,,,,,,,,,,,
,,60dc4394e9e27efa6657582b,2026-03-17_12h43.28.777,kallum_motion_pilot_GIST_update_2,2026.1.1,Win32,60.24096386,60dc4394e9e27efa6657582b,69b92ab4aef6dee357cd729a,69b92aeb6ae0f8bee3719e9f,0.0293,0.0293,0,76,76,159,1,eightseven,,,,,,,,,,,,,,,,,,,,,,,,,,,,,,,,,,,,,,,,,,,,,,,,,,,,,,,,,,,,,,,,,,,,,,,,,,,,,,,,,,,,,,,,,,,,,,,,,,,,,,,,,,,,,,,,,,,,,,,,,,,,,,,,,,,,,,,,,
,,60dc4394e9e27efa6657582b,2026-03-17_12h43.28.777,kallum_motion_pilot_GIST_update_2,2026.1.1,Win32,60.24096386,60dc4394e9e27efa6657582b,69b92ab4aef6dee357cd729a,69b92aeb6ae0f8bee3719e9f,0.0294,0.0294,0,77,77,83,1,sixeight,,,,,,,,,,,,,,,,,,,,,,,,,,,,,,,,,,,,,,,,,,,,,,,,,,,,,,,,,,,,,,,,,,,,,,,,,,,,,,,,,,,,,,,,,,,,,,,,,,,,,,,,,,,,,,,,,,,,,,,,,,,,,,,,,,,,,,,,,
,,60dc4394e9e27efa6657582b,2026-03-17_12h43.28.777,kallum_motion_pilot_GIST_update_2,2026.1.1,Win32,60.24096386,60dc4394e9e27efa6657582b,69b92ab4aef6dee357cd729a,69b92aeb6ae0f8bee3719e9f,0.0294,0.0294,0,78,78,103,1,eightseven,,,,,,,,,,,,,,,,,,,,,,,,,,,,,,,,,,,,,,,,,,,,,,,,,,,,,,,,,,,,,,,,,,,,,,,,,,,,,,,,,,,,,,,,,,,,,,,,,,,,,,,,,,,,,,,,,,,,,,,,,,,,,,,,,,,,,,,,,
,,60dc4394e9e27efa6657582b,2026-03-17_12h43.28.777,kallum_motion_pilot_GIST_update_2,2026.1.1,Win32,60.24096386,60dc4394e9e27efa6657582b,69b92ab4aef6dee357cd729a,69b92aeb6ae0f8bee3719e9f,0.0295,0.0295,0,79,79,123,1,sixeight,,,,,,,,,,,,,,,,,,,,,,,,,,,,,,,,,,,,,,,,,,,,,,,,,,,,,,,,,,,,,,,,,,,,,,,,,,,,,,,,,,,,,,,,,,,,,,,,,,,,,,,,,,,,,,,,,,,,,,,,,,,,,,,,,,,,,,,,,
,,60dc4394e9e27efa6657582b,2026-03-17_12h43.28.777,kallum_motion_pilot_GIST_update_2,2026.1.1,Win32,60.24096386,60dc4394e9e27efa6657582b,69b92ab4aef6dee357cd729a,69b92aeb6ae0f8bee3719e9f,0.0295,0.0295,0,80,80,67,1,twofour,,,,,,,,,,,,,,,,,,,,,,,,,,,,,,,,,,,,,,,,,,,,,,,,,,,,,,,,,,,,,,,,,,,,,,,,,,,,,,,,,,,,,,,,,,,,,,,,,,,,,,,,,,,,,,,,,,,,,,,,,,,,,,,,,,,,,,,,,
,,60dc4394e9e27efa6657582b,2026-03-17_12h43.28.777,kallum_motion_pilot_GIST_update_2,2026.1.1,Win32,60.24096386,60dc4394e9e27efa6657582b,69b92ab4aef6dee357cd729a,69b92aeb6ae0f8bee3719e9f,0.0295,0.0295,0,81,81,65,1,onethree,,,,,,,,,,,,,,,,,,,,,,,,,,,,,,,,,,,,,,,,,,,,,,,,,,,,,,,,,,,,,,,,,,,,,,,,,,,,,,,,,,,,,,,,,,,,,,,,,,,,,,,,,,,,,,,,,,,,,,,,,,,,,,,,,,,,,,,,,
,,60dc4394e9e27efa6657582b,2026-03-17_12h43.28.777,kallum_motion_pilot_GIST_update_2,2026.1.1,Win32,60.24096386,60dc4394e9e27efa6657582b,69b92ab4aef6dee357cd729a,69b92aeb6ae0f8bee3719e9f,0.0296,0.0296,0,82,82,17,1,onethree,,,,,,,,,,,,,,,,,,,,,,,,,,,,,,,,,,,,,,,,,,,,,,,,,,,,,,,,,,,,,,,,,,,,,,,,,,,,,,,,,,,,,,,,,,,,,,,,,,,,,,,,,,,,,,,,,,,,,,,,,,,,,,,,,,,,,,,,,
,,60dc4394e9e27efa6657582b,2026-03-17_12h43.28.777,kallum_motion_pilot_GIST_update_2,2026.1.1,Win32,60.24096386,60dc4394e9e27efa6657582b,69b92ab4aef6dee357cd729a,69b92aeb6ae0f8bee3719e9f,0.0297,0.0297,0,83,83,11,1,twofour,,,,,,,,,,,,,,,,,,,,,,,,,,,,,,,,,,,,,,,,,,,,,,,,,,,,,,,,,,,,,,,,,,,,,,,,,,,,,,,,,,,,,,,,,,,,,,,,,,,,,,,,,,,,,,,,,,,,,,,,,,,,,,,,,,,,,,,,,
,,60dc4394e9e27efa6657582b,2026-03-17_12h43.28.777,kallum_motion_pilot_GIST_update_2,2026.1.1,Win32,60.24096386,60dc4394e9e27efa6657582b,69b92ab4aef6dee357cd729a,69b92aeb6ae0f8bee3719e9f,0.0297,0.0297,0,84,84,40,1,onetwo,,,,,,,,,,,,,,,,,,,,,,,,,,,,,,,,,,,,,,,,,,,,,,,,,,,,,,,,,,,,,,,,,,,,,,,,,,,,,,,,,,,,,,,,,,,,,,,,,,,,,,,,,,,,,,,,,,,,,,,,,,,,,,,,,,,,,,,,,
,,60dc4394e9e27efa6657582b,2026-03-17_12h43.28.777,kallum_motion_pilot_GIST_update_2,2026.1.1,Win32,60.24096386,60dc4394e9e27efa6657582b,69b92ab4aef6dee357cd729a,69b92aeb6ae0f8bee3719e9f,0.0298,0.0298,0,85,85,24,1,onetwo,,,,,,,,,,,,,,,,,,,,,,,,,,,,,,,,,,,,,,,,,,,,,,,,,,,,,,,,,,,,,,,,,,,,,,,,,,,,,,,,,,,,,,,,,,,,,,,,,,,,,,,,,,,,,,,,,,,,,,,,,,,,,,,,,,,,,,,,,
,,60dc4394e9e27efa6657582b,2026-03-17_12h43.28.777,kallum_motion_pilot_GIST_update_2,2026.1.1,Win32,60.24096386,60dc4394e9e27efa6657582b,69b92ab4aef6dee357cd729a,69b92aeb6ae0f8bee3719e9f,0.0299,0.0299,0,86,86,88,1,fivesix,,,,,,,,,,,,,,,,,,,,,,,,,,,,,,,,,,,,,,,,,,,,,,,,,,,,,,,,,,,,,,,,,,,,,,,,,,,,,,,,,,,,,,,,,,,,,,,,,,,,,,,,,,,,,,,,,,,,,,,,,,,,,,,,,,,,,,,,,
,,60dc4394e9e27efa6657582b,2026-03-17_12h43.28.777,kallum_motion_pilot_GIST_update_2,2026.1.1,Win32,60.24096386,60dc4394e9e27efa6657582b,69b92ab4aef6dee357cd729a,69b92aeb6ae0f8bee3719e9f,0.03,0.03,0,87,87,63,1,fourthree,,,,,,,,,,,,,,,,,,,,,,,,,,,,,,,,,,,,,,,,,,,,,,,,,,,,,,,,,,,,,,,,,,,,,,,,,,,,,,,,,,,,,,,,,,,,,,,,,,,,,,,,,,,,,,,,,,,,,,,,,,,,,,,,,,,,,,,,,
,,60dc4394e9e27efa6657582b,2026-03-17_12h43.28.777,kallum_motion_pilot_GIST_update_2,2026.1.1,Win32,60.24096386,60dc4394e9e27efa6657582b,69b92ab4aef6dee357cd729a,69b92aeb6ae0f8bee3719e9f,0.0301,0.0301,0,88,88,20,1,threeone,,,,,,,,,,,,,,,,,,,,,,,,,,,,,,,,,,,,,,,,,,,,,,,,,,,,,,,,,,,,,,,,,,,,,,,,,,,,,,,,,,,,,,,,,,,,,,,,,,,,,,,,,,,,,,,,,,,,,,,,,,,,,,,,,,,,,,,,,
,,60dc4394e9e27efa6657582b,2026-03-17_12h43.28.777,kallum_motion_pilot_GIST_update_2,2026.1.1,Win32,60.24096386,60dc4394e9e27efa6657582b,69b92ab4aef6dee357cd729a,69b92aeb6ae0f8bee3719e9f,0.0302,0.0302,0,89,89,104,1,fivesix,,,,,,,,,,,,,,,,,,,,,,,,,,,,,,,,,,,,,,,,,,,,,,,,,,,,,,,,,,,,,,,,,,,,,,,,,,,,,,,,,,,,,,,,,,,,,,,,,,,,,,,,,,,,,,,,,,,,,,,,,,,,,,,,,,,,,,,,,
,,60dc4394e9e27efa6657582b,2026-03-17_12h43.28.777,kallum_motion_pilot_GIST_update_2,2026.1.1,Win32,60.24096386,60dc4394e9e27efa6657582b,69b92ab4aef6dee357cd729a,69b92aeb6ae0f8bee3719e9f,0.0303,0.0303,0,90,90,8,1,onetwo,,,,,,,,,,,,,,,,,,,,,,,,,,,,,,,,,,,,,,,,,,,,,,,,,,,,,,,,,,,,,,,,,,,,,,,,,,,,,,,,,,,,,,,,,,,,,,,,,,,,,,,,,,,,,,,,,,,,,,,,,,,,,,,,,,,,,,,,,
,,60dc4394e9e27efa6657582b,2026-03-17_12h43.28.777,kallum_motion_pilot_GIST_update_2,2026.1.1,Win32,60.24096386,60dc4394e9e27efa6657582b,69b92ab4aef6dee357cd729a,69b92aeb6ae0f8bee3719e9f,0.0304,0.0304,0,91,91,155,1,sixeight,,,,,,,,,,,,,,,,,,,,,,,,,,,,,,,,,,,,,,,,,,,,,,,,,,,,,,,,,,,,,,,,,,,,,,,,,,,,,,,,,,,,,,,,,,,,,,,,,,,,,,,,,,,,,,,,,,,,,,,,,,,,,,,,,,,,,,,,,
,,60dc4394e9e27efa6657582b,2026-03-17_12h43.28.777,kallum_motion_pilot_GIST_update_2,2026.1.1,Win32,60.24096386,60dc4394e9e27efa6657582b,69b92ab4aef6dee357cd729a,69b92aeb6ae0f8bee3719e9f,0.0305,0.0305,0,92,92,52,1,threeone,,,,,,,,,,,,,,,,,,,,,,,,,,,,,,,,,,,,,,,,,,,,,,,,,,,,,,,,,,,,,,,,,,,,,,,,,,,,,,,,,,,,,,,,,,,,,,,,,,,,,,,,,,,,,,,,,,,,,,,,,,,,,,,,,,,,,,,,,
,,60dc4394e9e27efa6657582b,2026-03-17_12h43.28.777,kallum_motion_pilot_GIST_update_2,2026.1.1,Win32,60.24096386,60dc4394e9e27efa6657582b,69b92ab4aef6dee357cd729a,69b92aeb6ae0f8bee3719e9f,0.0306,0.0306,0,93,93,27,1,twofour,,,,,,,,,,,,,,,,,,,,,,,,,,,,,,,,,,,,,,,,,,,,,,,,,,,,,,,,,,,,,,,,,,,,,,,,,,,,,,,,,,,,,,,,,,,,,,,,,,,,,,,,,,,,,,,,,,,,,,,,,,,,,,,,,,,,,,,,,
,,60dc4394e9e27efa6657582b,2026-03-17_12h43.28.777,kallum_motion_pilot_GIST_update_2,2026.1.1,Win32,60.24096386,60dc4394e9e27efa6657582b,69b92ab4aef6dee357cd729a,69b92aeb6ae0f8bee3719e9f,0.0307,0.0307,0,94,94,71,1,fourthree,,,,,,,,,,,,,,,,,,,,,,,,,,,,,,,,,,,,,,,,,,,,,,,,,,,,,,,,,,,,,,,,,,,,,,,,,,,,,,,,,,,,,,,,,,,,,,,,,,,,,,,,,,,,,,,,,,,,,,,,,,,,,,,,,,,,,,,,,
,,60dc4394e9e27efa6657582b,2026-03-17_12h43.28.777,kallum_motion_pilot_GIST_update_2,2026.1.1,Win32,60.24096386,60dc4394e9e27efa6657582b,69b92ab4aef6dee357cd729a,69b92aeb6ae0f8bee3719e9f,0.0308,0.0308,0,95,95,91,1,sixeight,,,,,,,,,,,,,,,,,,,,,,,,,,,,,,,,,,,,,,,,,,,,,,,,,,,,,,,,,,,,,,,,,,,,,,,,,,,,,,,,,,,,,,,,,,,,,,,,,,,,,,,,,,,,,,,,,,,,,,,,,,,,,,,,,,,,,,,,,
,,60dc4394e9e27efa6657582b,2026-03-17_12h43.28.777,kallum_motion_pilot_GIST_update_2,2026.1.1,Win32,60.24096386,60dc4394e9e27efa6657582b,69b92ab4aef6dee357cd729a,69b92aeb6ae0f8bee3719e9f,0.0309,0.0309,0,96,96,131,1,sixeight,,,,,,,,,,,,,,,,,,,,,,,,,,,,,,,,,,,,,,,,,,,,,,,,,,,,,,,,,,,,,,,,,,,,,,,,,,,,,,,,,,,,,,,,,,,,,,,,,,,,,,,,,,,,,,,,,,,,,,,,,,,,,,,,,,,,,,,,,
,,60dc4394e9e27efa6657582b,2026-03-17_12h43.28.777,kallum_motion_pilot_GIST_update_2,2026.1.1,Win32,60.24096386,60dc4394e9e27efa6657582b,69b92ab4aef6dee357cd729a,69b92aeb6ae0f8bee3719e9f,0.031,0.0311,0,97,97,109,1,seveneight,,,,,,,,,,,,,,,,,,,,,,,,,,,,,,,,,,,,,,,,,,,,,,,,,,,,,,,,,,,,,,,,,,,,,,,,,,,,,,,,,,,,,,,,,,,,,,,,,,,,,,,,,,,,,,,,,,,,,,,,,,,,,,,,,,,,,,,,,
,,60dc4394e9e27efa6657582b,2026-03-17_12h43.28.777,kallum_motion_pilot_GIST_update_2,2026.1.1,Win32,60.24096386,60dc4394e9e27efa6657582b,69b92ab4aef6dee357cd729a,69b92aeb6ae0f8bee3719e9f,0.0312,0.0312,0,98,98,101,1,seveneight,,,,,,,,,,,,,,,,,,,,,,,,,,,,,,,,,,,,,,,,,,,,,,,,,,,,,,,,,,,,,,,,,,,,,,,,,,,,,,,,,,,,,,,,,,,,,,,,,,,,,,,,,,,,,,,,,,,,,,,,,,,,,,,,,,,,,,,,,
,,60dc4394e9e27efa6657582b,2026-03-17_12h43.28.777,kallum_motion_pilot_GIST_update_2,2026.1.1,Win32,60.24096386,60dc4394e9e27efa6657582b,69b92ab4aef6dee357cd729a,69b92aeb6ae0f8bee3719e9f,0.0313,0.0313,0,99,99,115,1,sixeight,,,,,,,,,,,,,,,,,,,,,,,,,,,,,,,,,,,,,,,,,,,,,,,,,,,,,,,,,,,,,,,,,,,,,,,,,,,,,,,,,,,,,,,,,,,,,,,,,,,,,,,,,,,,,,,,,,,,,,,,,,,,,,,,,,,,,,,,,
,,60dc4394e9e27efa6657582b,2026-03-17_12h43.28.777,kallum_motion_pilot_GIST_update_2,2026.1.1,Win32,60.24096386,60dc4394e9e27efa6657582b,69b92ab4aef6dee357cd729a,69b92aeb6ae0f8bee3719e9f,0.0314,0.0314,0,100,100,89,1,fiveseven,,,,,,,,,,,,,,,,,,,,,,,,,,,,,,,,,,,,,,,,,,,,,,,,,,,,,,,,,,,,,,,,,,,,,,,,,,,,,,,,,,,,,,,,,,,,,,,,,,,,,,,,,,,,,,,,,,,,,,,,,,,,,,,,,,,,,,,,,
,,60dc4394e9e27efa6657582b,2026-03-17_12h43.28.777,kallum_motion_pilot_GIST_update_2,2026.1.1,Win32,60.24096386,60dc4394e9e27efa6657582b,69b92ab4aef6dee357cd729a,69b92aeb6ae0f8bee3719e9f,0.0314,0.0314,0,101,101,151,1,eightseven,,,,,,,,,,,,,,,,,,,,,,,,,,,,,,,,,,,,,,,,,,,,,,,,,,,,,,,,,,,,,,,,,,,,,,,,,,,,,,,,,,,,,,,,,,,,,,,,,,,,,,,,,,,,,,,,,,,,,,,,,,,,,,,,,,,,,,,,,
,,60dc4394e9e27efa6657582b,2026-03-17_12h43.28.777,kallum_motion_pilot_GIST_update_2,2026.1.1,Win32,60.24096386,60dc4394e9e27efa6657582b,69b92ab4aef6dee357cd729a,69b92aeb6ae0f8bee3719e9f,0.0316,0.0316,0,102,102,82,1,sixfive,,,,,,,,,,,,,,,,,,,,,,,,,,,,,,,,,,,,,,,,,,,,,,,,,,,,,,,,,,,,,,,,,,,,,,,,,,,,,,,,,,,,,,,,,,,,,,,,,,,,,,,,,,,,,,,,,,,,,,,,,,,,,,,,,,,,,,,,,
,,60dc4394e9e27efa6657582b,2026-03-17_12h43.28.777,kallum_motion_pilot_GIST_update_2,2026.1.1,Win32,60.24096386,60dc4394e9e27efa6657582b,69b92ab4aef6dee357cd729a,69b92aeb6ae0f8bee3719e9f,0.0316,0.0316,0,103,103,9,1,onethree,,,,,,,,,,,,,,,,,,,,,,,,,,,,,,,,,,,,,,,,,,,,,,,,,,,,,,,,,,,,,,,,,,,,,,,,,,,,,,,,,,,,,,,,,,,,,,,,,,,,,,,,,,,,,,,,,,,,,,,,,,,,,,,,,,,,,,,,,
,,60dc4394e9e27efa6657582b,2026-03-17_12h43.28.777,kallum_motion_pilot_GIST_update_2,2026.1.1,Win32,60.24096386,60dc4394e9e27efa6657582b,69b92ab4aef6dee357cd729a,69b92aeb6ae0f8bee3719e9f,0.0317,0.0317,0,104,104,117,1,seveneight,,,,,,,,,,,,,,,,,,,,,,,,,,,,,,,,,,,,,,,,,,,,,,,,,,,,,,,,,,,,,,,,,,,,,,,,,,,,,,,,,,,,,,,,,,,,,,,,,,,,,,,,,,,,,,,,,,,,,,,,,,,,,,,,,,,,,,,,,
,,60dc4394e9e27efa6657582b,2026-03-17_12h43.28.777,kallum_motion_pilot_GIST_update_2,2026.1.1,Win32,60.24096386,60dc4394e9e27efa6657582b,69b92ab4aef6dee357cd729a,69b92aeb6ae0f8bee3719e9f,0.0318,0.0318,0,105,105,37,1,threefour,,,,,,,,,,,,,,,,,,,,,,,,,,,,,,,,,,,,,,,,,,,,,,,,,,,,,,,,,,,,,,,,,,,,,,,,,,,,,,,,,,,,,,,,,,,,,,,,,,,,,,,,,,,,,,,,,,,,,,,,,,,,,,,,,,,,,,,,,
,,60dc4394e9e27efa6657582b,2026-03-17_12h43.28.777,kallum_motion_pilot_GIST_update_2,2026.1.1,Win32,60.24096386,60dc4394e9e27efa6657582b,69b92ab4aef6dee357cd729a,69b92aeb6ae0f8bee3719e9f,0.0319,0.0319,0,106,106,12,1,threeone,,,,,,,,,,,,,,,,,,,,,,,,,,,,,,,,,,,,,,,,,,,,,,,,,,,,,,,,,,,,,,,,,,,,,,,,,,,,,,,,,,,,,,,,,,,,,,,,,,,,,,,,,,,,,,,,,,,,,,,,,,,,,,,,,,,,,,,,,
,,60dc4394e9e27efa6657582b,2026-03-17_12h43.28.777,kallum_motion_pilot_GIST_update_2,2026.1.1,Win32,60.24096386,60dc4394e9e27efa6657582b,69b92ab4aef6dee357cd729a,69b92aeb6ae0f8bee3719e9f,0.032,0.032,0,107,107,25,1,onethree,,,,,,,,,,,,,,,,,,,,,,,,,,,,,,,,,,,,,,,,,,,,,,,,,,,,,,,,,,,,,,,,,,,,,,,,,,,,,,,,,,,,,,,,,,,,,,,,,,,,,,,,,,,,,,,,,,,,,,,,,,,,,,,,,,,,,,,,,
,,60dc4394e9e27efa6657582b,2026-03-17_12h43.28.777,kallum_motion_pilot_GIST_update_2,2026.1.1,Win32,60.24096386,60dc4394e9e27efa6657582b,69b92ab4aef6dee357cd729a,69b92aeb6ae0f8bee3719e9f,0.0321,0.0321,0,108,108,16,1,onetwo,,,,,,,,,,,,,,,,,,,,,,,,,,,,,,,,,,,,,,,,,,,,,,,,,,,,,,,,,,,,,,,,,,,,,,,,,,,,,,,,,,,,,,,,,,,,,,,,,,,,,,,,,,,,,,,,,,,,,,,,,,,,,,,,,,,,,,,,,
,,60dc4394e9e27efa6657582b,2026-03-17_12h43.28.777,kallum_motion_pilot_GIST_update_2,2026.1.1,Win32,60.24096386,60dc4394e9e27efa6657582b,69b92ab4aef6dee357cd729a,69b92aeb6ae0f8bee3719e9f,0.0322,0.0322,0,109,109,79,1,eightseven,,,,,,,,,,,,,,,,,,,,,,,,,,,,,,,,,,,,,,,,,,,,,,,,,,,,,,,,,,,,,,,,,,,,,,,,,,,,,,,,,,,,,,,,,,,,,,,,,,,,,,,,,,,,,,,,,,,,,,,,,,,,,,,,,,,,,,,,,
,,60dc4394e9e27efa6657582b,2026-03-17_12h43.28.777,kallum_motion_pilot_GIST_update_2,2026.1.1,Win32,60.24096386,60dc4394e9e27efa6657582b,69b92ab4aef6dee357cd729a,69b92aeb6ae0f8bee3719e9f,0.0324,0.0324,0,110,110,21,1,threefour,,,,,,,,,,,,,,,,,,,,,,,,,,,,,,,,,,,,,,,,,,,,,,,,,,,,,,,,,,,,,,,,,,,,,,,,,,,,,,,,,,,,,,,,,,,,,,,,,,,,,,,,,,,,,,,,,,,,,,,,,,,,,,,,,,,,,,,,,
,,60dc4394e9e27efa6657582b,2026-03-17_12h43.28.777,kallum_motion_pilot_GIST_update_2,2026.1.1,Win32,60.24096386,60dc4394e9e27efa6657582b,69b92ab4aef6dee357cd729a,69b92aeb6ae0f8bee3719e9f,0.0324,0.0324,0,111,111,62,1,fourtwo,,,,,,,,,,,,,,,,,,,,,,,,,,,,,,,,,,,,,,,,,,,,,,,,,,,,,,,,,,,,,,,,,,,,,,,,,,,,,,,,,,,,,,,,,,,,,,,,,,,,,,,,,,,,,,,,,,,,,,,,,,,,,,,,,,,,,,,,,
,,60dc4394e9e27efa6657582b,2026-03-17_12h43.28.777,kallum_motion_pilot_GIST_update_2,2026.1.1,Win32,60.24096386,60dc4394e9e27efa6657582b,69b92ab4aef6dee357cd729a,69b92aeb6ae0f8bee3719e9f,0.0325,0.0325,0,112,112,69,1,threefour,,,,,,,,,,,,,,,,,,,,,,,,,,,,,,,,,,,,,,,,,,,,,,,,,,,,,,,,,,,,,,,,,,,,,,,,,,,,,,,,,,,,,,,,,,,,,,,,,,,,,,,,,,,,,,,,,,,,,,,,,,,,,,,,,,,,,,,,,
,,60dc4394e9e27efa6657582b,2026-03-17_12h43.28.777,kallum_motion_pilot_GIST_update_2,2026.1.1,Win32,60.24096386,60dc4394e9e27efa6657582b,69b92ab4aef6dee357cd729a,69b92aeb6ae0f8bee3719e9f,0.0326,0.0327,0,113,113,34,1,twoone,,,,,,,,,,,,,,,,,,,,,,,,,,,,,,,,,,,,,,,,,,,,,,,,,,,,,,,,,,,,,,,,,,,,,,,,,,,,,,,,,,,,,,,,,,,,,,,,,,,,,,,,,,,,,,,,,,,,,,,,,,,,,,,,,,,,,,,,,
,,60dc4394e9e27efa6657582b,2026-03-17_12h43.28.777,kallum_motion_pilot_GIST_update_2,2026.1.1,Win32,60.24096386,60dc4394e9e27efa6657582b,69b92ab4aef6dee357cd729a,69b92aeb6ae0f8bee3719e9f,0.0328,0.0328,0,114,114,1,1,onethree,,,,,,,,,,,,,,,,,,,,,,,,,,,,,,,,,,,,,,,,,,,,,,,,,,,,,,,,,,,,,,,,,,,,,,,,,,,,,,,,,,,,,,,,,,,,,,,,,,,,,,,,,,,,,,,,,,,,,,,,,,,,,,,,,,,,,,,,,
,,60dc4394e9e27efa6657582b,2026-03-17_12h43.28.777,kallum_motion_pilot_GIST_update_2,2026.1.1,Win32,60.24096386,60dc4394e9e27efa6657582b,69b92ab4aef6dee357cd729a,69b92aeb6ae0f8bee3719e9f,0.0329,0.0329,0,115,115,10,1,twoone,,,,,,,,,,,,,,,,,,,,,,,,,,,,,,,,,,,,,,,,,,,,,,,,,,,,,,,,,,,,,,,,,,,,,,,,,,,,,,,,,,,,,,,,,,,,,,,,,,,,,,,,,,,,,,,,,,,,,,,,,,,,,,,,,,,,,,,,,
,,60dc4394e9e27efa6657582b,2026-03-17_12h43.28.777,kallum_motion_pilot_GIST_update_2,2026.1.1,Win32,60.24096386,60dc4394e9e27efa6657582b,69b92ab4aef6dee357cd729a,69b92aeb6ae0f8bee3719e9f,0.033,0.033,0,116,116,77,1,threefour,,,,,,,,,,,,,,,,,,,,,,,,,,,,,,,,,,,,,,,,,,,,,,,,,,,,,,,,,,,,,,,,,,,,,,,,,,,,,,,,,,,,,,,,,,,,,,,,,,,,,,,,,,,,,,,,,,,,,,,,,,,,,,,,,,,,,,,,,
,,60dc4394e9e27efa6657582b,2026-03-17_12h43.28.777,kallum_motion_pilot_GIST_update_2,2026.1.1,Win32,60.24096386,60dc4394e9e27efa6657582b,69b92ab4aef6dee357cd729a,69b92aeb6ae0f8bee3719e9f,0.0331,0.0331,0,117,117,90,1,sixfive,,,,,,,,,,,,,,,,,,,,,,,,,,,,,,,,,,,,,,,,,,,,,,,,,,,,,,,,,,,,,,,,,,,,,,,,,,,,,,,,,,,,,,,,,,,,,,,,,,,,,,,,,,,,,,,,,,,,,,,,,,,,,,,,,,,,,,,,,
,,60dc4394e9e27efa6657582b,2026-03-17_12h43.28.777,kallum_motion_pilot_GIST_update_2,2026.1.1,Win32,60.24096386,60dc4394e9e27efa6657582b,69b92ab4aef6dee357cd729a,69b92aeb6ae0f8bee3719e9f,0.0332,0.0332,0,118,118,98,1,sixfive,,,,,,,,,,,,,,,,,,,,,,,,,,,,,,,,,,,,,,,,,,,,,,,,,,,,,,,,,,,,,,,,,,,,,,,,,,,,,,,,,,,,,,,,,,,,,,,,,,,,,,,,,,,,,,,,,,,,,,,,,,,,,,,,,,,,,,,,,
,,60dc4394e9e27efa6657582b,2026-03-17_12h43.28.777,kallum_motion_pilot_GIST_update_2,2026.1.1,Win32,60.24096386,60dc4394e9e27efa6657582b,69b92ab4aef6dee357cd729a,69b92aeb6ae0f8bee3719e9f,0.0334,0.0334,0,119,119,154,1,sixfive,,,,,,,,,,,,,,,,,,,,,,,,,,,,,,,,,,,,,,,,,,,,,,,,,,,,,,,,,,,,,,,,,,,,,,,,,,,,,,,,,,,,,,,,,,,,,,,,,,,,,,,,,,,,,,,,,,,,,,,,,,,,,,,,,,,,,,,,,
,,60dc4394e9e27efa6657582b,2026-03-17_12h43.28.777,kallum_motion_pilot_GIST_update_2,2026.1.1,Win32,60.24096386,60dc4394e9e27efa6657582b,69b92ab4aef6dee357cd729a,69b92aeb6ae0f8bee3719e9f,0.0335,0.0335,0,120,120,74,1,twoone,,,,,,,,,,,,,,,,,,,,,,,,,,,,,,,,,,,,,,,,,,,,,,,,,,,,,,,,,,,,,,,,,,,,,,,,,,,,,,,,,,,,,,,,,,,,,,,,,,,,,,,,,,,,,,,,,,,,,,,,,,,,,,,,,,,,,,,,,
,,60dc4394e9e27efa6657582b,2026-03-17_12h43.28.777,kallum_motion_pilot_GIST_update_2,2026.1.1,Win32,60.24096386,60dc4394e9e27efa6657582b,69b92ab4aef6dee357cd729a,69b92aeb6ae0f8bee3719e9f,0.0337,0.0337,0,121,121,129,1,fiveseven,,,,,,,,,,,,,,,,,,,,,,,,,,,,,,,,,,,,,,,,,,,,,,,,,,,,,,,,,,,,,,,,,,,,,,,,,,,,,,,,,,,,,,,,,,,,,,,,,,,,,,,,,,,,,,,,,,,,,,,,,,,,,,,,,,,,,,,,,
,,60dc4394e9e27efa6657582b,2026-03-17_12h43.28.777,kallum_motion_pilot_GIST_update_2,2026.1.1,Win32,60.24096386,60dc4394e9e27efa6657582b,69b92ab4aef6dee357cd729a,69b92aeb6ae0f8bee3719e9f,0.0337,0.0337,0,122,122,156,1,sevenfive,,,,,,,,,,,,,,,,,,,,,,,,,,,,,,,,,,,,,,,,,,,,,,,,,,,,,,,,,,,,,,,,,,,,,,,,,,,,,,,,,,,,,,,,,,,,,,,,,,,,,,,,,,,,,,,,,,,,,,,,,,,,,,,,,,,,,,,,,
,,60dc4394e9e27efa6657582b,2026-03-17_12h43.28.777,kallum_motion_pilot_GIST_update_2,2026.1.1,Win32,60.24096386,60dc4394e9e27efa6657582b,69b92ab4aef6dee357cd729a,69b92aeb6ae0f8bee3719e9f,0.0338,0.0339,0,123,123,35,1,twofour,,,,,,,,,,,,,,,,,,,,,,,,,,,,,,,,,,,,,,,,,,,,,,,,,,,,,,,,,,,,,,,,,,,,,,,,,,,,,,,,,,,,,,,,,,,,,,,,,,,,,,,,,,,,,,,,,,,,,,,,,,,,,,,,,,,,,,,,,
,,60dc4394e9e27efa6657582b,2026-03-17_12h43.28.777,kallum_motion_pilot_GIST_update_2,2026.1.1,Win32,60.24096386,60dc4394e9e27efa6657582b,69b92ab4aef6dee357cd729a,69b92aeb6ae0f8bee3719e9f,0.034,0.034,0,124,124,135,1,eightseven,,,,,,,,,,,,,,,,,,,,,,,,,,,,,,,,,,,,,,,,,,,,,,,,,,,,,,,,,,,,,,,,,,,,,,,,,,,,,,,,,,,,,,,,,,,,,,,,,,,,,,,,,,,,,,,,,,,,,,,,,,,,,,,,,,,,,,,,,
,,60dc4394e9e27efa6657582b,2026-03-17_12h43.28.777,kallum_motion_pilot_GIST_update_2,2026.1.1,Win32,60.24096386,60dc4394e9e27efa6657582b,69b92ab4aef6dee357cd729a,69b92aeb6ae0f8bee3719e9f,0.0341,0.0341,0,125,125,94,1,eightsix,,,,,,,,,,,,,,,,,,,,,,,,,,,,,,,,,,,,,,,,,,,,,,,,,,,,,,,,,,,,,,,,,,,,,,,,,,,,,,,,,,,,,,,,,,,,,,,,,,,,,,,,,,,,,,,,,,,,,,,,,,,,,,,,,,,,,,,,,
,,60dc4394e9e27efa6657582b,2026-03-17_12h43.28.777,kallum_motion_pilot_GIST_update_2,2026.1.1,Win32,60.24096386,60dc4394e9e27efa6657582b,69b92ab4aef6dee357cd729a,69b92aeb6ae0f8bee3719e9f,0.0343,0.0343,0,126,126,28,1,threeone,,,,,,,,,,,,,,,,,,,,,,,,,,,,,,,,,,,,,,,,,,,,,,,,,,,,,,,,,,,,,,,,,,,,,,,,,,,,,,,,,,,,,,,,,,,,,,,,,,,,,,,,,,,,,,,,,,,,,,,,,,,,,,,,,,,,,,,,,
,,60dc4394e9e27efa6657582b,2026-03-17_12h43.28.777,kallum_motion_pilot_GIST_update_2,2026.1.1,Win32,60.24096386,60dc4394e9e27efa6657582b,69b92ab4aef6dee357cd729a,69b92aeb6ae0f8bee3719e9f,0.0344,0.0344,0,127,127,76,1,threeone,,,,,,,,,,,,,,,,,,,,,,,,,,,,,,,,,,,,,,,,,,,,,,,,,,,,,,,,,,,,,,,,,,,,,,,,,,,,,,,,,,,,,,,,,,,,,,,,,,,,,,,,,,,,,,,,,,,,,,,,,,,,,,,,,,,,,,,,,
,,60dc4394e9e27efa6657582b,2026-03-17_12h43.28.777,kallum_motion_pilot_GIST_update_2,2026.1.1,Win32,60.24096386,60dc4394e9e27efa6657582b,69b92ab4aef6dee357cd729a,69b92aeb6ae0f8bee3719e9f,0.0345,0.0345,0,128,128,39,1,fourthree,,,,,,,,,,,,,,,,,,,,,,,,,,,,,,,,,,,,,,,,,,,,,,,,,,,,,,,,,,,,,,,,,,,,,,,,,,,,,,,,,,,,,,,,,,,,,,,,,,,,,,,,,,,,,,,,,,,,,,,,,,,,,,,,,,,,,,,,,
,,60dc4394e9e27efa6657582b,2026-03-17_12h43.28.777,kallum_motion_pilot_GIST_update_2,2026.1.1,Win32,60.24096386,60dc4394e9e27efa6657582b,69b92ab4aef6dee357cd729a,69b92aeb6ae0f8bee3719e9f,0.0348,0.0348,0,129,129,6,1,fourtwo,,,,,,,,,,,,,,,,,,,,,,,,,,,,,,,,,,,,,,,,,,,,,,,,,,,,,,,,,,,,,,,,,,,,,,,,,,,,,,,,,,,,,,,,,,,,,,,,,,,,,,,,,,,,,,,,,,,,,,,,,,,,,,,,,,,,,,,,,
,,60dc4394e9e27efa6657582b,2026-03-17_12h43.28.777,kallum_motion_pilot_GIST_update_2,2026.1.1,Win32,60.24096386,60dc4394e9e27efa6657582b,69b92ab4aef6dee357cd729a,69b92aeb6ae0f8bee3719e9f,0.035,0.035,0,130,130,137,1,fiveseven,,,,,,,,,,,,,,,,,,,,,,,,,,,,,,,,,,,,,,,,,,,,,,,,,,,,,,,,,,,,,,,,,,,,,,,,,,,,,,,,,,,,,,,,,,,,,,,,,,,,,,,,,,,,,,,,,,,,,,,,,,,,,,,,,,,,,,,,,
,,60dc4394e9e27efa6657582b,2026-03-17_12h43.28.777,kallum_motion_pilot_GIST_update_2,2026.1.1,Win32,60.24096386,60dc4394e9e27efa6657582b,69b92ab4aef6dee357cd729a,69b92aeb6ae0f8bee3719e9f,0.0351,0.0351,0,131,131,46,1,fourtwo,,,,,,,,,,,,,,,,,,,,,,,,,,,,,,,,,,,,,,,,,,,,,,,,,,,,,,,,,,,,,,,,,,,,,,,,,,,,,,,,,,,,,,,,,,,,,,,,,,,,,,,,,,,,,,,,,,,,,,,,,,,,,,,,,,,,,,,,,
,,60dc4394e9e27efa6657582b,2026-03-17_12h43.28.777,kallum_motion_pilot_GIST_update_2,2026.1.1,Win32,60.24096386,60dc4394e9e27efa6657582b,69b92ab4aef6dee357cd729a,69b92aeb6ae0f8bee3719e9f,0.0352,0.0352,0,132,132,33,1,onethree,,,,,,,,,,,,,,,,,,,,,,,,,,,,,,,,,,,,,,,,,,,,,,,,,,,,,,,,,,,,,,,,,,,,,,,,,,,,,,,,,,,,,,,,,,,,,,,,,,,,,,,,,,,,,,,,,,,,,,,,,,,,,,,,,,,,,,,,,
,,60dc4394e9e27efa6657582b,2026-03-17_12h43.28.777,kallum_motion_pilot_GIST_update_2,2026.1.1,Win32,60.24096386,60dc4394e9e27efa6657582b,69b92ab4aef6dee357cd729a,69b92aeb6ae0f8bee3719e9f,0.0353,0.0353,0,133,133,102,1,eightsix,,,,,,,,,,,,,,,,,,,,,,,,,,,,,,,,,,,,,,,,,,,,,,,,,,,,,,,,,,,,,,,,,,,,,,,,,,,,,,,,,,,,,,,,,,,,,,,,,,,,,,,,,,,,,,,,,,,,,,,,,,,,,,,,,,,,,,,,,
,,60dc4394e9e27efa6657582b,2026-03-17_12h43.28.777,kallum_motion_pilot_GIST_update_2,2026.1.1,Win32,60.24096386,60dc4394e9e27efa6657582b,69b92ab4aef6dee357cd729a,69b92aeb6ae0f8bee3719e9f,0.0354,0.0354,0,134,134,136,1,fivesix,,,,,,,,,,,,,,,,,,,,,,,,,,,,,,,,,,,,,,,,,,,,,,,,,,,,,,,,,,,,,,,,,,,,,,,,,,,,,,,,,,,,,,,,,,,,,,,,,,,,,,,,,,,,,,,,,,,,,,,,,,,,,,,,,,,,,,,,,
,,60dc4394e9e27efa6657582b,2026-03-17_12h43.28.777,kallum_motion_pilot_GIST_update_2,2026.1.1,Win32,60.24096386,60dc4394e9e27efa6657582b,69b92ab4aef6dee357cd729a,69b92aeb6ae0f8bee3719e9f,0.0355,0.0355,0,135,135,47,1,fourthree,,,,,,,,,,,,,,,,,,,,,,,,,,,,,,,,,,,,,,,,,,,,,,,,,,,,,,,,,,,,,,,,,,,,,,,,,,,,,,,,,,,,,,,,,,,,,,,,,,,,,,,,,,,,,,,,,,,,,,,,,,,,,,,,,,,,,,,,,
,,60dc4394e9e27efa6657582b,2026-03-17_12h43.28.777,kallum_motion_pilot_GIST_update_2,2026.1.1,Win32,60.24096386,60dc4394e9e27efa6657582b,69b92ab4aef6dee357cd729a,69b92aeb6ae0f8bee3719e9f,0.0357,0.0357,0,136,136,45,1,threefour,,,,,,,,,,,,,,,,,,,,,,,,,,,,,,,,,,,,,,,,,,,,,,,,,,,,,,,,,,,,,,,,,,,,,,,,,,,,,,,,,,,,,,,,,,,,,,,,,,,,,,,,,,,,,,,,,,,,,,,,,,,,,,,,,,,,,,,,,
,,60dc4394e9e27efa6657582b,2026-03-17_12h43.28.777,kallum_motion_pilot_GIST_update_2,2026.1.1,Win32,60.24096386,60dc4394e9e27efa6657582b,69b92ab4aef6dee357cd729a,69b92aeb6ae0f8bee3719e9f,0.0358,0.0358,0,137,137,19,1,twofour,,,,,,,,,,,,,,,,,,,,,,,,,,,,,,,,,,,,,,,,,,,,,,,,,,,,,,,,,,,,,,,,,,,,,,,,,,,,,,,,,,,,,,,,,,,,,,,,,,,,,,,,,,,,,,,,,,,,,,,,,,,,,,,,,,,,,,,,,
,,60dc4394e9e27efa6657582b,2026-03-17_12h43.28.777,kallum_motion_pilot_GIST_update_2,2026.1.1,Win32,60.24096386,60dc4394e9e27efa6657582b,69b92ab4aef6dee357cd729a,69b92aeb6ae0f8bee3719e9f,0.0359,0.0359,0,138,138,32,1,onetwo,,,,,,,,,,,,,,,,,,,,,,,,,,,,,,,,,,,,,,,,,,,,,,,,,,,,,,,,,,,,,,,,,,,,,,,,,,,,,,,,,,,,,,,,,,,,,,,,,,,,,,,,,,,,,,,,,,,,,,,,,,,,,,,,,,,,,,,,,
,,60dc4394e9e27efa6657582b,2026-03-17_12h43.28.777,kallum_motion_pilot_GIST_update_2,2026.1.1,Win32,60.24096386,60dc4394e9e27efa6657582b,69b92ab4aef6dee357cd729a,69b92aeb6ae0f8bee3719e9f,0.036,0.036,0,139,139,75,1,twofour,,,,,,,,,,,,,,,,,,,,,,,,,,,,,,,,,,,,,,,,,,,,,,,,,,,,,,,,,,,,,,,,,,,,,,,,,,,,,,,,,,,,,,,,,,,,,,,,,,,,,,,,,,,,,,,,,,,,,,,,,,,,,,,,,,,,,,,,,
,,60dc4394e9e27efa6657582b,2026-03-17_12h43.28.777,kallum_motion_pilot_GIST_update_2,2026.1.1,Win32,60.24096386,60dc4394e9e27efa6657582b,69b92ab4aef6dee357cd729a,69b92aeb6ae0f8bee3719e9f,0.0361,0.0361,0,140,140,161,1,fiveseven,,,,,,,,,,,,,,,,,,,,,,,,,,,,,,,,,,,,,,,,,,,,,,,,,,,,,,,,,,,,,,,,,,,,,,,,,,,,,,,,,,,,,,,,,,,,,,,,,,,,,,,,,,,,,,,,,,,,,,,,,,,,,,,,,,,,,,,,,
,,60dc4394e9e27efa6657582b,2026-03-17_12h43.28.777,kallum_motion_pilot_GIST_update_2,2026.1.1,Win32,60.24096386,60dc4394e9e27efa6657582b,69b92ab4aef6dee357cd729a,69b92aeb6ae0f8bee3719e9f,0.0362,0.0362,0,141,141,18,1,twoone,,,,,,,,,,,,,,,,,,,,,,,,,,,,,,,,,,,,,,,,,,,,,,,,,,,,,,,,,,,,,,,,,,,,,,,,,,,,,,,,,,,,,,,,,,,,,,,,,,,,,,,,,,,,,,,,,,,,,,,,,,,,,,,,,,,,,,,,,
,,60dc4394e9e27efa6657582b,2026-03-17_12h43.28.777,kallum_motion_pilot_GIST_update_2,2026.1.1,Win32,60.24096386,60dc4394e9e27efa6657582b,69b92ab4aef6dee357cd729a,69b92aeb6ae0f8bee3719e9f,0.0363,0.0363,0,142,142,127,1,eightseven,,,,,,,,,,,,,,,,,,,,,,,,,,,,,,,,,,,,,,,,,,,,,,,,,,,,,,,,,,,,,,,,,,,,,,,,,,,,,,,,,,,,,,,,,,,,,,,,,,,,,,,,,,,,,,,,,,,,,,,,,,,,,,,,,,,,,,,,,
,,60dc4394e9e27efa6657582b,2026-03-17_12h43.28.777,kallum_motion_pilot_GIST_update_2,2026.1.1,Win32,60.24096386,60dc4394e9e27efa6657582b,69b92ab4aef6dee357cd729a,69b92aeb6ae0f8bee3719e9f,0.0364,0.0365,0,143,143,121,1,fiveseven,,,,,,,,,,,,,,,,,,,,,,,,,,,,,,,,,,,,,,,,,,,,,,,,,,,,,,,,,,,,,,,,,,,,,,,,,,,,,,,,,,,,,,,,,,,,,,,,,,,,,,,,,,,,,,,,,,,,,,,,,,,,,,,,,,,,,,,,,
,,60dc4394e9e27efa6657582b,2026-03-17_12h43.28.777,kallum_motion_pilot_GIST_update_2,2026.1.1,Win32,60.24096386,60dc4394e9e27efa6657582b,69b92ab4aef6dee357cd729a,69b92aeb6ae0f8bee3719e9f,0.0365,0.0365,0,144,144,114,1,sixfive,,,,,,,,,,,,,,,,,,,,,,,,,,,,,,,,,,,,,,,,,,,,,,,,,,,,,,,,,,,,,,,,,,,,,,,,,,,,,,,,,,,,,,,,,,,,,,,,,,,,,,,,,,,,,,,,,,,,,,,,,,,,,,,,,,,,,,,,,
,,60dc4394e9e27efa6657582b,2026-03-17_12h43.28.777,kallum_motion_pilot_GIST_update_2,2026.1.1,Win32,60.24096386,60dc4394e9e27efa6657582b,69b92ab4aef6dee357cd729a,69b92aeb6ae0f8bee3719e9f,0.0367,0.0367,0,145,145,112,1,fivesix,,,,,,,,,,,,,,,,,,,,,,,,,,,,,,,,,,,,,,,,,,,,,,,,,,,,,,,,,,,,,,,,,,,,,,,,,,,,,,,,,,,,,,,,,,,,,,,,,,,,,,,,,,,,,,,,,,,,,,,,,,,,,,,,,,,,,,,,,
,,60dc4394e9e27efa6657582b,2026-03-17_12h43.28.777,kallum_motion_pilot_GIST_update_2,2026.1.1,Win32,60.24096386,60dc4394e9e27efa6657582b,69b92ab4aef6dee357cd729a,69b92aeb6ae0f8bee3719e9f,0.0368,0.0368,0,146,146,92,1,sevenfive,,,,,,,,,,,,,,,,,,,,,,,,,,,,,,,,,,,,,,,,,,,,,,,,,,,,,,,,,,,,,,,,,,,,,,,,,,,,,,,,,,,,,,,,,,,,,,,,,,,,,,,,,,,,,,,,,,,,,,,,,,,,,,,,,,,,,,,,,
,,60dc4394e9e27efa6657582b,2026-03-17_12h43.28.777,kallum_motion_pilot_GIST_update_2,2026.1.1,Win32,60.24096386,60dc4394e9e27efa6657582b,69b92ab4aef6dee357cd729a,69b92aeb6ae0f8bee3719e9f,0.0369,0.0369,0,147,147,107,1,sixeight,,,,,,,,,,,,,,,,,,,,,,,,,,,,,,,,,,,,,,,,,,,,,,,,,,,,,,,,,,,,,,,,,,,,,,,,,,,,,,,,,,,,,,,,,,,,,,,,,,,,,,,,,,,,,,,,,,,,,,,,,,,,,,,,,,,,,,,,,
,,60dc4394e9e27efa6657582b,2026-03-17_12h43.28.777,kallum_motion_pilot_GIST_update_2,2026.1.1,Win32,60.24096386,60dc4394e9e27efa6657582b,69b92ab4aef6dee357cd729a,69b92aeb6ae0f8bee3719e9f,0.037,0.037,0,148,148,49,1,onethree,,,,,,,,,,,,,,,,,,,,,,,,,,,,,,,,,,,,,,,,,,,,,,,,,,,,,,,,,,,,,,,,,,,,,,,,,,,,,,,,,,,,,,,,,,,,,,,,,,,,,,,,,,,,,,,,,,,,,,,,,,,,,,,,,,,,,,,,,
,,60dc4394e9e27efa6657582b,2026-03-17_12h43.28.777,kallum_motion_pilot_GIST_update_2,2026.1.1,Win32,60.24096386,60dc4394e9e27efa6657582b,69b92ab4aef6dee357cd729a,69b92aeb6ae0f8bee3719e9f,0.0372,0.0372,0,149,149,106,1,sixfive,,,,,,,,,,,,,,,,,,,,,,,,,,,,,,,,,,,,,,,,,,,,,,,,,,,,,,,,,,,,,,,,,,,,,,,,,,,,,,,,,,,,,,,,,,,,,,,,,,,,,,,,,,,,,,,,,,,,,,,,,,,,,,,,,,,,,,,,,
,,60dc4394e9e27efa6657582b,2026-03-17_12h43.28.777,kallum_motion_pilot_GIST_update_2,2026.1.1,Win32,60.24096386,60dc4394e9e27efa6657582b,69b92ab4aef6dee357cd729a,69b92aeb6ae0f8bee3719e9f,0.0373,0.0373,0,150,150,73,1,onethree,,,,,,,,,,,,,,,,,,,,,,,,,,,,,,,,,,,,,,,,,,,,,,,,,,,,,,,,,,,,,,,,,,,,,,,,,,,,,,,,,,,,,,,,,,,,,,,,,,,,,,,,,,,,,,,,,,,,,,,,,,,,,,,,,,,,,,,,,
,,60dc4394e9e27efa6657582b,2026-03-17_12h43.28.777,kallum_motion_pilot_GIST_update_2,2026.1.1,Win32,60.24096386,60dc4394e9e27efa6657582b,69b92ab4aef6dee357cd729a,69b92aeb6ae0f8bee3719e9f,0.0374,0.0374,0,151,151,50,1,twoone,,,,,,,,,,,,,,,,,,,,,,,,,,,,,,,,,,,,,,,,,,,,,,,,,,,,,,,,,,,,,,,,,,,,,,,,,,,,,,,,,,,,,,,,,,,,,,,,,,,,,,,,,,,,,,,,,,,,,,,,,,,,,,,,,,,,,,,,,
,,60dc4394e9e27efa6657582b,2026-03-17_12h43.28.777,kallum_motion_pilot_GIST_update_2,2026.1.1,Win32,60.24096386,60dc4394e9e27efa6657582b,69b92ab4aef6dee357cd729a,69b92aeb6ae0f8bee3719e9f,0.0376,0.0376,0,152,152,3,1,twofour,,,,,,,,,,,,,,,,,,,,,,,,,,,,,,,,,,,,,,,,,,,,,,,,,,,,,,,,,,,,,,,,,,,,,,,,,,,,,,,,,,,,,,,,,,,,,,,,,,,,,,,,,,,,,,,,,,,,,,,,,,,,,,,,,,,,,,,,,
,,60dc4394e9e27efa6657582b,2026-03-17_12h43.28.777,kallum_motion_pilot_GIST_update_2,2026.1.1,Win32,60.24096386,60dc4394e9e27efa6657582b,69b92ab4aef6dee357cd729a,69b92aeb6ae0f8bee3719e9f,0.0377,0.0378,0,153,153,100,1,sevenfive,,,,,,,,,,,,,,,,,,,,,,,,,,,,,,,,,,,,,,,,,,,,,,,,,,,,,,,,,,,,,,,,,,,,,,,,,,,,,,,,,,,,,,,,,,,,,,,,,,,,,,,,,,,,,,,,,,,,,,,,,,,,,,,,,,,,,,,,,
,,60dc4394e9e27efa6657582b,2026-03-17_12h43.28.777,kallum_motion_pilot_GIST_update_2,2026.1.1,Win32,60.24096386,60dc4394e9e27efa6657582b,69b92ab4aef6dee357cd729a,69b92aeb6ae0f8bee3719e9f,0.0378,0.0378,0,154,154,29,1,threefour,,,,,,,,,,,,,,,,,,,,,,,,,,,,,,,,,,,,,,,,,,,,,,,,,,,,,,,,,,,,,,,,,,,,,,,,,,,,,,,,,,,,,,,,,,,,,,,,,,,,,,,,,,,,,,,,,,,,,,,,,,,,,,,,,,,,,,,,,
,,60dc4394e9e27efa6657582b,2026-03-17_12h43.28.777,kallum_motion_pilot_GIST_update_2,2026.1.1,Win32,60.24096386,60dc4394e9e27efa6657582b,69b92ab4aef6dee357cd729a,69b92aeb6ae0f8bee3719e9f,0.0379,0.0379,0,155,155,81,1,fiveseven,,,,,,,,,,,,,,,,,,,,,,,,,,,,,,,,,,,,,,,,,,,,,,,,,,,,,,,,,,,,,,,,,,,,,,,,,,,,,,,,,,,,,,,,,,,,,,,,,,,,,,,,,,,,,,,,,,,,,,,,,,,,,,,,,,,,,,,,,
,,60dc4394e9e27efa6657582b,2026-03-17_12h43.28.777,kallum_motion_pilot_GIST_update_2,2026.1.1,Win32,60.24096386,60dc4394e9e27efa6657582b,69b92ab4aef6dee357cd729a,69b92aeb6ae0f8bee3719e9f,0.038,0.038,0,156,156,56,1,onetwo,,,,,,,,,,,,,,,,,,,,,,,,,,,,,,,,,,,,,,,,,,,,,,,,,,,,,,,,,,,,,,,,,,,,,,,,,,,,,,,,,,,,,,,,,,,,,,,,,,,,,,,,,,,,,,,,,,,,,,,,,,,,,,,,,,,,,,,,,
,,60dc4394e9e27efa6657582b,2026-03-17_12h43.28.777,kallum_motion_pilot_GIST_update_2,2026.1.1,Win32,60.24096386,60dc4394e9e27efa6657582b,69b92ab4aef6dee357cd729a,69b92aeb6ae0f8bee3719e9f,0.0382,0.0382,0,157,157,59,1,twofour,,,,,,,,,,,,,,,,,,,,,,,,,,,,,,,,,,,,,,,,,,,,,,,,,,,,,,,,,,,,,,,,,,,,,,,,,,,,,,,,,,,,,,,,,,,,,,,,,,,,,,,,,,,,,,,,,,,,,,,,,,,,,,,,,,,,,,,,,
,,60dc4394e9e27efa6657582b,2026-03-17_12h43.28.777,kallum_motion_pilot_GIST_update_2,2026.1.1,Win32,60.24096386,60dc4394e9e27efa6657582b,69b92ab4aef6dee357cd729a,69b92aeb6ae0f8bee3719e9f,0.0382,0.0382,0,158,158,55,1,fourthree,,,,,,,,,,,,,,,,,,,,,,,,,,,,,,,,,,,,,,,,,,,,,,,,,,,,,,,,,,,,,,,,,,,,,,,,,,,,,,,,,,,,,,,,,,,,,,,,,,,,,,,,,,,,,,,,,,,,,,,,,,,,,,,,,,,,,,,,,
,,60dc4394e9e27efa6657582b,2026-03-17_12h43.28.777,kallum_motion_pilot_GIST_update_2,2026.1.1,Win32,60.24096386,60dc4394e9e27efa6657582b,69b92ab4aef6dee357cd729a,69b92aeb6ae0f8bee3719e9f,0.0383,0.0383,0,159,159,78,1,fourtwo,,,,,,,,,,,,,,,,,,,,,,,,,,,,,,,,,,,,,,,,,,,,,,,,,,,,,,,,,,,,,,,,,,,,,,,,,,,,,,,,,,,,,,,,,,,,,,,,,,,,,,,,,,,,,,,,,,,,,,,,,,,,,,,,,,,,,,,,,
,,60dc4394e9e27efa6657582b,2026-03-17_12h43.28.777,kallum_motion_pilot_GIST_update_2,2026.1.1,Win32,60.24096386,60dc4394e9e27efa6657582b,69b92ab4aef6dee357cd729a,69b92aeb6ae0f8bee3719e9f,0.0385,0.0385,0,160,160,0,1,onetwo,,,,,,,,,,,,,,,,,,,,,,,,,,,,,,,,,,,,,,,,,,,,,,,,,,,,,,,,,,,,,,,,,,,,,,,,,,,,,,,,,,,,,,,,,,,,,,,,,,,,,,,,,,,,,,,,,,,,,,,,,,,,,,,,,,,,,,,,,
,,60dc4394e9e27efa6657582b,2026-03-17_12h43.28.777,kallum_motion_pilot_GIST_update_2,2026.1.1,Win32,60.24096386,60dc4394e9e27efa6657582b,69b92ab4aef6dee357cd729a,69b92aeb6ae0f8bee3719e9f,0.0386,0.0386,0,161,161,60,1,threeone,,,,,,,,,,,,,,,,,,,,,,,,,,,,,,,,,,,,,,,,,,,,,,,,,,,,,,,,,,,,,,,,,,,,,,,,,,,,,,,,,,,,,,,,,,,,,,,,,,,,,,,,,,,,,,,,,,,,,,,,,,,,,,,,,,,,,,,,,
,,60dc4394e9e27efa6657582b,2026-03-17_12h43.28.777,kallum_motion_pilot_GIST_update_2,2026.1.1,Win32,60.24096386,60dc4394e9e27efa6657582b,69b92ab4aef6dee357cd729a,69b92aeb6ae0f8bee3719e9f,0.0388,0.0388,1,0,162,141,1,seveneight,,,,,,,,,,,,,,,,,,,,,,,,,,,,,,,,,,,,,,,,,,,,,,,,,,,,,,,,,,,,,,,,,,,,,,,,,,,,,,,,,,,,,,,,,,,,,,,,,,,,,,,,,,,,,,,,,,,,,,,,,,,,,,,,,,,,,,,,,
,,60dc4394e9e27efa6657582b,2026-03-17_12h43.28.777,kallum_motion_pilot_GIST_update_2,2026.1.1,Win32,60.24096386,60dc4394e9e27efa6657582b,69b92ab4aef6dee357cd729a,69b92aeb6ae0f8bee3719e9f,0.0389,0.0389,1,1,163,61,1,threefour,,,,,,,,,,,,,,,,,,,,,,,,,,,,,,,,,,,,,,,,,,,,,,,,,,,,,,,,,,,,,,,,,,,,,,,,,,,,,,,,,,,,,,,,,,,,,,,,,,,,,,,,,,,,,,,,,,,,,,,,,,,,,,,,,,,,,,,,,
,,60dc4394e9e27efa6657582b,2026-03-17_12h43.28.777,kallum_motion_pilot_GIST_update_2,2026.1.1,Win32,60.24096386,60dc4394e9e27efa6657582b,69b92ab4aef6dee357cd729a,69b92aeb6ae0f8bee3719e9f,0.0391,0.0391,1,2,164,100,1,sevenfive,,,,,,,,,,,,,,,,,,,,,,,,,,,,,,,,,,,,,,,,,,,,,,,,,,,,,,,,,,,,,,,,,,,,,,,,,,,,,,,,,,,,,,,,,,,,,,,,,,,,,,,,,,,,,,,,,,,,,,,,,,,,,,,,,,,,,,,,,
,,60dc4394e9e27efa6657582b,2026-03-17_12h43.28.777,kallum_motion_pilot_GIST_update_2,2026.1.1,Win32,60.24096386,60dc4394e9e27efa6657582b,69b92ab4aef6dee357cd729a,69b92aeb6ae0f8bee3719e9f,0.0391,0.0391,1,3,165,156,1,sevenfive,,,,,,,,,,,,,,,,,,,,,,,,,,,,,,,,,,,,,,,,,,,,,,,,,,,,,,,,,,,,,,,,,,,,,,,,,,,,,,,,,,,,,,,,,,,,,,,,,,,,,,,,,,,,,,,,,,,,,,,,,,,,,,,,,,,,,,,,,
,,60dc4394e9e27efa6657582b,2026-03-17_12h43.28.777,kallum_motion_pilot_GIST_update_2,2026.1.1,Win32,60.24096386,60dc4394e9e27efa6657582b,69b92ab4aef6dee357cd729a,69b92aeb6ae0f8bee3719e9f,0.0392,0.0392,1,4,166,155,1,sixeight,,,,,,,,,,,,,,,,,,,,,,,,,,,,,,,,,,,,,,,,,,,,,,,,,,,,,,,,,,,,,,,,,,,,,,,,,,,,,,,,,,,,,,,,,,,,,,,,,,,,,,,,,,,,,,,,,,,,,,,,,,,,,,,,,,,,,,,,,
,,60dc4394e9e27efa6657582b,2026-03-17_12h43.28.777,kallum_motion_pilot_GIST_update_2,2026.1.1,Win32,60.24096386,60dc4394e9e27efa6657582b,69b92ab4aef6dee357cd729a,69b92aeb6ae0f8bee3719e9f,0.0394,0.0394,1,5,167,98,1,sixfive,,,,,,,,,,,,,,,,,,,,,,,,,,,,,,,,,,,,,,,,,,,,,,,,,,,,,,,,,,,,,,,,,,,,,,,,,,,,,,,,,,,,,,,,,,,,,,,,,,,,,,,,,,,,,,,,,,,,,,,,,,,,,,,,,,,,,,,,,
,,60dc4394e9e27efa6657582b,2026-03-17_12h43.28.777,kallum_motion_pilot_GIST_update_2,2026.1.1,Win32,60.24096386,60dc4394e9e27efa6657582b,69b92ab4aef6dee357cd729a,69b92aeb6ae0f8bee3719e9f,0.0397,0.0397,1,6,168,31,1,fourthree,,,,,,,,,,,,,,,,,,,,,,,,,,,,,,,,,,,,,,,,,,,,,,,,,,,,,,,,,,,,,,,,,,,,,,,,,,,,,,,,,,,,,,,,,,,,,,,,,,,,,,,,,,,,,,,,,,,,,,,,,,,,,,,,,,,,,,,,,
,,60dc4394e9e27efa6657582b,2026-03-17_12h43.28.777,kallum_motion_pilot_GIST_update_2,2026.1.1,Win32,60.24096386,60dc4394e9e27efa6657582b,69b92ab4aef6dee357cd729a,69b92aeb6ae0f8bee3719e9f,0.0397,0.0397,1,7,169,77,1,threefour,,,,,,,,,,,,,,,,,,,,,,,,,,,,,,,,,,,,,,,,,,,,,,,,,,,,,,,,,,,,,,,,,,,,,,,,,,,,,,,,,,,,,,,,,,,,,,,,,,,,,,,,,,,,,,,,,,,,,,,,,,,,,,,,,,,,,,,,,
,,60dc4394e9e27efa6657582b,2026-03-17_12h43.28.777,kallum_motion_pilot_GIST_update_2,2026.1.1,Win32,60.24096386,60dc4394e9e27efa6657582b,69b92ab4aef6dee357cd729a,69b92aeb6ae0f8bee3719e9f,0.0398,0.0398,1,8,170,47,1,fourthree,,,,,,,,,,,,,,,,,,,,,,,,,,,,,,,,,,,,,,,,,,,,,,,,,,,,,,,,,,,,,,,,,,,,,,,,,,,,,,,,,,,,,,,,,,,,,,,,,,,,,,,,,,,,,,,,,,,,,,,,,,,,,,,,,,,,,,,,,
,,60dc4394e9e27efa6657582b,2026-03-17_12h43.28.777,kallum_motion_pilot_GIST_update_2,2026.1.1,Win32,60.24096386,60dc4394e9e27efa6657582b,69b92ab4aef6dee357cd729a,69b92aeb6ae0f8bee3719e9f,0.0399,0.0399,1,9,171,44,1,threeone,,,,,,,,,,,,,,,,,,,,,,,,,,,,,,,,,,,,,,,,,,,,,,,,,,,,,,,,,,,,,,,,,,,,,,,,,,,,,,,,,,,,,,,,,,,,,,,,,,,,,,,,,,,,,,,,,,,,,,,,,,,,,,,,,,,,,,,,,
,,60dc4394e9e27efa6657582b,2026-03-17_12h43.28.777,kallum_motion_pilot_GIST_update_2,2026.1.1,Win32,60.24096386,60dc4394e9e27efa6657582b,69b92ab4aef6dee357cd729a,69b92aeb6ae0f8bee3719e9f,0.04,0.04,1,10,172,49,1,onethree,,,,,,,,,,,,,,,,,,,,,,,,,,,,,,,,,,,,,,,,,,,,,,,,,,,,,,,,,,,,,,,,,,,,,,,,,,,,,,,,,,,,,,,,,,,,,,,,,,,,,,,,,,,,,,,,,,,,,,,,,,,,,,,,,,,,,,,,,
,,60dc4394e9e27efa6657582b,2026-03-17_12h43.28.777,kallum_motion_pilot_GIST_update_2,2026.1.1,Win32,60.24096386,60dc4394e9e27efa6657582b,69b92ab4aef6dee357cd729a,69b92aeb6ae0f8bee3719e9f,0.04,0.04,1,11,173,138,1,sixfive,,,,,,,,,,,,,,,,,,,,,,,,,,,,,,,,,,,,,,,,,,,,,,,,,,,,,,,,,,,,,,,,,,,,,,,,,,,,,,,,,,,,,,,,,,,,,,,,,,,,,,,,,,,,,,,,,,,,,,,,,,,,,,,,,,,,,,,,,
,,60dc4394e9e27efa6657582b,2026-03-17_12h43.28.777,kallum_motion_pilot_GIST_update_2,2026.1.1,Win32,60.24096386,60dc4394e9e27efa6657582b,69b92ab4aef6dee357cd729a,69b92aeb6ae0f8bee3719e9f,0.0402,0.0402,1,12,174,15,1,fourthree,,,,,,,,,,,,,,,,,,,,,,,,,,,,,,,,,,,,,,,,,,,,,,,,,,,,,,,,,,,,,,,,,,,,,,,,,,,,,,,,,,,,,,,,,,,,,,,,,,,,,,,,,,,,,,,,,,,,,,,,,,,,,,,,,,,,,,,,,
,,60dc4394e9e27efa6657582b,2026-03-17_12h43.28.777,kallum_motion_pilot_GIST_update_2,2026.1.1,Win32,60.24096386,60dc4394e9e27efa6657582b,69b92ab4aef6dee357cd729a,69b92aeb6ae0f8bee3719e9f,0.0403,0.0403,1,13,175,46,1,fourtwo,,,,,,,,,,,,,,,,,,,,,,,,,,,,,,,,,,,,,,,,,,,,,,,,,,,,,,,,,,,,,,,,,,,,,,,,,,,,,,,,,,,,,,,,,,,,,,,,,,,,,,,,,,,,,,,,,,,,,,,,,,,,,,,,,,,,,,,,,
,,60dc4394e9e27efa6657582b,2026-03-17_12h43.28.777,kallum_motion_pilot_GIST_update_2,2026.1.1,Win32,60.24096386,60dc4394e9e27efa6657582b,69b92ab4aef6dee357cd729a,69b92aeb6ae0f8bee3719e9f,0.0403,0.0403,1,14,176,110,1,eightsix,,,,,,,,,,,,,,,,,,,,,,,,,,,,,,,,,,,,,,,,,,,,,,,,,,,,,,,,,,,,,,,,,,,,,,,,,,,,,,,,,,,,,,,,,,,,,,,,,,,,,,,,,,,,,,,,,,,,,,,,,,,,,,,,,,,,,,,,,
,,60dc4394e9e27efa6657582b,2026-03-17_12h43.28.777,kallum_motion_pilot_GIST_update_2,2026.1.1,Win32,60.24096386,60dc4394e9e27efa6657582b,69b92ab4aef6dee357cd729a,69b92aeb6ae0f8bee3719e9f,0.0405,0.0405,1,15,177,120,1,fivesix,,,,,,,,,,,,,,,,,,,,,,,,,,,,,,,,,,,,,,,,,,,,,,,,,,,,,,,,,,,,,,,,,,,,,,,,,,,,,,,,,,,,,,,,,,,,,,,,,,,,,,,,,,,,,,,,,,,,,,,,,,,,,,,,,,,,,,,,,
,,60dc4394e9e27efa6657582b,2026-03-17_12h43.28.777,kallum_motion_pilot_GIST_update_2,2026.1.1,Win32,60.24096386,60dc4394e9e27efa6657582b,69b92ab4aef6dee357cd729a,69b92aeb6ae0f8bee3719e9f,0.0406,0.0406,1,16,178,96,1,fivesix,,,,,,,,,,,,,,,,,,,,,,,,,,,,,,,,,,,,,,,,,,,,,,,,,,,,,,,,,,,,,,,,,,,,,,,,,,,,,,,,,,,,,,,,,,,,,,,,,,,,,,,,,,,,,,,,,,,,,,,,,,,,,,,,,,,,,,,,,
,,60dc4394e9e27efa6657582b,2026-03-17_12h43.28.777,kallum_motion_pilot_GIST_update_2,2026.1.1,Win32,60.24096386,60dc4394e9e27efa6657582b,69b92ab4aef6dee357cd729a,69b92aeb6ae0f8bee3719e9f,0.0408,0.0408,1,17,179,111,1,eightseven,,,,,,,,,,,,,,,,,,,,,,,,,,,,,,,,,,,,,,,,,,,,,,,,,,,,,,,,,,,,,,,,,,,,,,,,,,,,,,,,,,,,,,,,,,,,,,,,,,,,,,,,,,,,,,,,,,,,,,,,,,,,,,,,,,,,,,,,,
,,60dc4394e9e27efa6657582b,2026-03-17_12h43.28.777,kallum_motion_pilot_GIST_update_2,2026.1.1,Win32,60.24096386,60dc4394e9e27efa6657582b,69b92ab4aef6dee357cd729a,69b92aeb6ae0f8bee3719e9f,0.0409,0.0409,1,18,180,81,1,fiveseven,,,,,,,,,,,,,,,,,,,,,,,,,,,,,,,,,,,,,,,,,,,,,,,,,,,,,,,,,,,,,,,,,,,,,,,,,,,,,,,,,,,,,,,,,,,,,,,,,,,,,,,,,,,,,,,,,,,,,,,,,,,,,,,,,,,,,,,,,
,,60dc4394e9e27efa6657582b,2026-03-17_12h43.28.777,kallum_motion_pilot_GIST_update_2,2026.1.1,Win32,60.24096386,60dc4394e9e27efa6657582b,69b92ab4aef6dee357cd729a,69b92aeb6ae0f8bee3719e9f,0.0409,0.0409,1,19,181,17,1,onethree,,,,,,,,,,,,,,,,,,,,,,,,,,,,,,,,,,,,,,,,,,,,,,,,,,,,,,,,,,,,,,,,,,,,,,,,,,,,,,,,,,,,,,,,,,,,,,,,,,,,,,,,,,,,,,,,,,,,,,,,,,,,,,,,,,,,,,,,,
,,60dc4394e9e27efa6657582b,2026-03-17_12h43.28.777,kallum_motion_pilot_GIST_update_2,2026.1.1,Win32,60.24096386,60dc4394e9e27efa6657582b,69b92ab4aef6dee357cd729a,69b92aeb6ae0f8bee3719e9f,0.0411,0.0411,1,20,182,57,1,onethree,,,,,,,,,,,,,,,,,,,,,,,,,,,,,,,,,,,,,,,,,,,,,,,,,,,,,,,,,,,,,,,,,,,,,,,,,,,,,,,,,,,,,,,,,,,,,,,,,,,,,,,,,,,,,,,,,,,,,,,,,,,,,,,,,,,,,,,,,
,,60dc4394e9e27efa6657582b,2026-03-17_12h43.28.777,kallum_motion_pilot_GIST_update_2,2026.1.1,Win32,60.24096386,60dc4394e9e27efa6657582b,69b92ab4aef6dee357cd729a,69b92aeb6ae0f8bee3719e9f,0.0412,0.0412,1,21,183,53,1,threefour,,,,,,,,,,,,,,,,,,,,,,,,,,,,,,,,,,,,,,,,,,,,,,,,,,,,,,,,,,,,,,,,,,,,,,,,,,,,,,,,,,,,,,,,,,,,,,,,,,,,,,,,,,,,,,,,,,,,,,,,,,,,,,,,,,,,,,,,,
,,60dc4394e9e27efa6657582b,2026-03-17_12h43.28.777,kallum_motion_pilot_GIST_update_2,2026.1.1,Win32,60.24096386,60dc4394e9e27efa6657582b,69b92ab4aef6dee357cd729a,69b92aeb6ae0f8bee3719e9f,0.0413,0.0413,1,22,184,22,1,fourtwo,,,,,,,,,,,,,,,,,,,,,,,,,,,,,,,,,,,,,,,,,,,,,,,,,,,,,,,,,,,,,,,,,,,,,,,,,,,,,,,,,,,,,,,,,,,,,,,,,,,,,,,,,,,,,,,,,,,,,,,,,,,,,,,,,,,,,,,,,
,,60dc4394e9e27efa6657582b,2026-03-17_12h43.28.777,kallum_motion_pilot_GIST_update_2,2026.1.1,Win32,60.24096386,60dc4394e9e27efa6657582b,69b92ab4aef6dee357cd729a,69b92aeb6ae0f8bee3719e9f,0.0414,0.0414,1,23,185,157,1,seveneight,,,,,,,,,,,,,,,,,,,,,,,,,,,,,,,,,,,,,,,,,,,,,,,,,,,,,,,,,,,,,,,,,,,,,,,,,,,,,,,,,,,,,,,,,,,,,,,,,,,,,,,,,,,,,,,,,,,,,,,,,,,,,,,,,,,,,,,,,
,,60dc4394e9e27efa6657582b,2026-03-17_12h43.28.777,kallum_motion_pilot_GIST_update_2,2026.1.1,Win32,60.24096386,60dc4394e9e27efa6657582b,69b92ab4aef6dee357cd729a,69b92aeb6ae0f8bee3719e9f,0.0415,0.0415,1,24,186,80,1,fivesix,,,,,,,,,,,,,,,,,,,,,,,,,,,,,,,,,,,,,,,,,,,,,,,,,,,,,,,,,,,,,,,,,,,,,,,,,,,,,,,,,,,,,,,,,,,,,,,,,,,,,,,,,,,,,,,,,,,,,,,,,,,,,,,,,,,,,,,,,
,,60dc4394e9e27efa6657582b,2026-03-17_12h43.28.777,kallum_motion_pilot_GIST_update_2,2026.1.1,Win32,60.24096386,60dc4394e9e27efa6657582b,69b92ab4aef6dee357cd729a,69b92aeb6ae0f8bee3719e9f,0.0416,0.0416,1,25,187,133,1,seveneight,,,,,,,,,,,,,,,,,,,,,,,,,,,,,,,,,,,,,,,,,,,,,,,,,,,,,,,,,,,,,,,,,,,,,,,,,,,,,,,,,,,,,,,,,,,,,,,,,,,,,,,,,,,,,,,,,,,,,,,,,,,,,,,,,,,,,,,,,
,,60dc4394e9e27efa6657582b,2026-03-17_12h43.28.777,kallum_motion_pilot_GIST_update_2,2026.1.1,Win32,60.24096386,60dc4394e9e27efa6657582b,69b92ab4aef6dee357cd729a,69b92aeb6ae0f8bee3719e9f,0.0418,0.0418,1,26,188,34,1,twoone,,,,,,,,,,,,,,,,,,,,,,,,,,,,,,,,,,,,,,,,,,,,,,,,,,,,,,,,,,,,,,,,,,,,,,,,,,,,,,,,,,,,,,,,,,,,,,,,,,,,,,,,,,,,,,,,,,,,,,,,,,,,,,,,,,,,,,,,,
,,60dc4394e9e27efa6657582b,2026-03-17_12h43.28.777,kallum_motion_pilot_GIST_update_2,2026.1.1,Win32,60.24096386,60dc4394e9e27efa6657582b,69b92ab4aef6dee357cd729a,69b92aeb6ae0f8bee3719e9f,0.0418,0.0418,1,27,189,56,1,onetwo,,,,,,,,,,,,,,,,,,,,,,,,,,,,,,,,,,,,,,,,,,,,,,,,,,,,,,,,,,,,,,,,,,,,,,,,,,,,,,,,,,,,,,,,,,,,,,,,,,,,,,,,,,,,,,,,,,,,,,,,,,,,,,,,,,,,,,,,,
,,60dc4394e9e27efa6657582b,2026-03-17_12h43.28.777,kallum_motion_pilot_GIST_update_2,2026.1.1,Win32,60.24096386,60dc4394e9e27efa6657582b,69b92ab4aef6dee357cd729a,69b92aeb6ae0f8bee3719e9f,0.042,0.042,1,28,190,59,1,twofour,,,,,,,,,,,,,,,,,,,,,,,,,,,,,,,,,,,,,,,,,,,,,,,,,,,,,,,,,,,,,,,,,,,,,,,,,,,,,,,,,,,,,,,,,,,,,,,,,,,,,,,,,,,,,,,,,,,,,,,,,,,,,,,,,,,,,,,,,
,,60dc4394e9e27efa6657582b,2026-03-17_12h43.28.777,kallum_motion_pilot_GIST_update_2,2026.1.1,Win32,60.24096386,60dc4394e9e27efa6657582b,69b92ab4aef6dee357cd729a,69b92aeb6ae0f8bee3719e9f,0.0421,0.0421,1,29,191,20,1,threeone,,,,,,,,,,,,,,,,,,,,,,,,,,,,,,,,,,,,,,,,,,,,,,,,,,,,,,,,,,,,,,,,,,,,,,,,,,,,,,,,,,,,,,,,,,,,,,,,,,,,,,,,,,,,,,,,,,,,,,,,,,,,,,,,,,,,,,,,,
,,60dc4394e9e27efa6657582b,2026-03-17_12h43.28.777,kallum_motion_pilot_GIST_update_2,2026.1.1,Win32,60.24096386,60dc4394e9e27efa6657582b,69b92ab4aef6dee357cd729a,69b92aeb6ae0f8bee3719e9f,0.0423,0.0423,1,30,192,84,1,sevenfive,,,,,,,,,,,,,,,,,,,,,,,,,,,,,,,,,,,,,,,,,,,,,,,,,,,,,,,,,,,,,,,,,,,,,,,,,,,,,,,,,,,,,,,,,,,,,,,,,,,,,,,,,,,,,,,,,,,,,,,,,,,,,,,,,,,,,,,,,
,,60dc4394e9e27efa6657582b,2026-03-17_12h43.28.777,kallum_motion_pilot_GIST_update_2,2026.1.1,Win32,60.24096386,60dc4394e9e27efa6657582b,69b92ab4aef6dee357cd729a,69b92aeb6ae0f8bee3719e9f,0.0424,0.0424,1,31,193,108,1,sevenfive,,,,,,,,,,,,,,,,,,,,,,,,,,,,,,,,,,,,,,,,,,,,,,,,,,,,,,,,,,,,,,,,,,,,,,,,,,,,,,,,,,,,,,,,,,,,,,,,,,,,,,,,,,,,,,,,,,,,,,,,,,,,,,,,,,,,,,,,,
,,60dc4394e9e27efa6657582b,2026-03-17_12h43.28.777,kallum_motion_pilot_GIST_update_2,2026.1.1,Win32,60.24096386,60dc4394e9e27efa6657582b,69b92ab4aef6dee357cd729a,69b92aeb6ae0f8bee3719e9f,0.0426,0.0426,1,32,194,121,1,fiveseven,,,,,,,,,,,,,,,,,,,,,,,,,,,,,,,,,,,,,,,,,,,,,,,,,,,,,,,,,,,,,,,,,,,,,,,,,,,,,,,,,,,,,,,,,,,,,,,,,,,,,,,,,,,,,,,,,,,,,,,,,,,,,,,,,,,,,,,,,
,,60dc4394e9e27efa6657582b,2026-03-17_12h43.28.777,kallum_motion_pilot_GIST_update_2,2026.1.1,Win32,60.24096386,60dc4394e9e27efa6657582b,69b92ab4aef6dee357cd729a,69b92aeb6ae0f8bee3719e9f,0.0427,0.0427,1,33,195,38,1,fourtwo,,,,,,,,,,,,,,,,,,,,,,,,,,,,,,,,,,,,,,,,,,,,,,,,,,,,,,,,,,,,,,,,,,,,,,,,,,,,,,,,,,,,,,,,,,,,,,,,,,,,,,,,,,,,,,,,,,,,,,,,,,,,,,,,,,,,,,,,,
,,60dc4394e9e27efa6657582b,2026-03-17_12h43.28.777,kallum_motion_pilot_GIST_update_2,2026.1.1,Win32,60.24096386,60dc4394e9e27efa6657582b,69b92ab4aef6dee357cd729a,69b92aeb6ae0f8bee3719e9f,0.0429,0.0429,1,34,196,151,1,eightseven,,,,,,,,,,,,,,,,,,,,,,,,,,,,,,,,,,,,,,,,,,,,,,,,,,,,,,,,,,,,,,,,,,,,,,,,,,,,,,,,,,,,,,,,,,,,,,,,,,,,,,,,,,,,,,,,,,,,,,,,,,,,,,,,,,,,,,,,,
,,60dc4394e9e27efa6657582b,2026-03-17_12h43.28.777,kallum_motion_pilot_GIST_update_2,2026.1.1,Win32,60.24096386,60dc4394e9e27efa6657582b,69b92ab4aef6dee357cd729a,69b92aeb6ae0f8bee3719e9f,0.043,0.043,1,35,197,37,1,threefour,,,,,,,,,,,,,,,,,,,,,,,,,,,,,,,,,,,,,,,,,,,,,,,,,,,,,,,,,,,,,,,,,,,,,,,,,,,,,,,,,,,,,,,,,,,,,,,,,,,,,,,,,,,,,,,,,,,,,,,,,,,,,,,,,,,,,,,,,
,,60dc4394e9e27efa6657582b,2026-03-17_12h43.28.777,kallum_motion_pilot_GIST_update_2,2026.1.1,Win32,60.24096386,60dc4394e9e27efa6657582b,69b92ab4aef6dee357cd729a,69b92aeb6ae0f8bee3719e9f,0.0431,0.0431,1,36,198,33,1,onethree,,,,,,,,,,,,,,,,,,,,,,,,,,,,,,,,,,,,,,,,,,,,,,,,,,,,,,,,,,,,,,,,,,,,,,,,,,,,,,,,,,,,,,,,,,,,,,,,,,,,,,,,,,,,,,,,,,,,,,,,,,,,,,,,,,,,,,,,,
,,60dc4394e9e27efa6657582b,2026-03-17_12h43.28.777,kallum_motion_pilot_GIST_update_2,2026.1.1,Win32,60.24096386,60dc4394e9e27efa6657582b,69b92ab4aef6dee357cd729a,69b92aeb6ae0f8bee3719e9f,0.0433,0.0433,1,37,199,146,1,sixfive,,,,,,,,,,,,,,,,,,,,,,,,,,,,,,,,,,,,,,,,,,,,,,,,,,,,,,,,,,,,,,,,,,,,,,,,,,,,,,,,,,,,,,,,,,,,,,,,,,,,,,,,,,,,,,,,,,,,,,,,,,,,,,,,,,,,,,,,,
,,60dc4394e9e27efa6657582b,2026-03-17_12h43.28.777,kallum_motion_pilot_GIST_update_2,2026.1.1,Win32,60.24096386,60dc4394e9e27efa6657582b,69b92ab4aef6dee357cd729a,69b92aeb6ae0f8bee3719e9f,0.0434,0.0434,1,38,200,112,1,fivesix,,,,,,,,,,,,,,,,,,,,,,,,,,,,,,,,,,,,,,,,,,,,,,,,,,,,,,,,,,,,,,,,,,,,,,,,,,,,,,,,,,,,,,,,,,,,,,,,,,,,,,,,,,,,,,,,,,,,,,,,,,,,,,,,,,,,,,,,,
,,60dc4394e9e27efa6657582b,2026-03-17_12h43.28.777,kallum_motion_pilot_GIST_update_2,2026.1.1,Win32,60.24096386,60dc4394e9e27efa6657582b,69b92ab4aef6dee357cd729a,69b92aeb6ae0f8bee3719e9f,0.0436,0.0436,1,39,201,105,1,fiveseven,,,,,,,,,,,,,,,,,,,,,,,,,,,,,,,,,,,,,,,,,,,,,,,,,,,,,,,,,,,,,,,,,,,,,,,,,,,,,,,,,,,,,,,,,,,,,,,,,,,,,,,,,,,,,,,,,,,,,,,,,,,,,,,,,,,,,,,,,
,,60dc4394e9e27efa6657582b,2026-03-17_12h43.28.777,kallum_motion_pilot_GIST_update_2,2026.1.1,Win32,60.24096386,60dc4394e9e27efa6657582b,69b92ab4aef6dee357cd729a,69b92aeb6ae0f8bee3719e9f,0.0437,0.0437,1,40,202,26,1,twoone,,,,,,,,,,,,,,,,,,,,,,,,,,,,,,,,,,,,,,,,,,,,,,,,,,,,,,,,,,,,,,,,,,,,,,,,,,,,,,,,,,,,,,,,,,,,,,,,,,,,,,,,,,,,,,,,,,,,,,,,,,,,,,,,,,,,,,,,,
,,60dc4394e9e27efa6657582b,2026-03-17_12h43.28.777,kallum_motion_pilot_GIST_update_2,2026.1.1,Win32,60.24096386,60dc4394e9e27efa6657582b,69b92ab4aef6dee357cd729a,69b92aeb6ae0f8bee3719e9f,0.0438,0.0439,1,41,203,63,1,fourthree,,,,,,,,,,,,,,,,,,,,,,,,,,,,,,,,,,,,,,,,,,,,,,,,,,,,,,,,,,,,,,,,,,,,,,,,,,,,,,,,,,,,,,,,,,,,,,,,,,,,,,,,,,,,,,,,,,,,,,,,,,,,,,,,,,,,,,,,,
,,60dc4394e9e27efa6657582b,2026-03-17_12h43.28.777,kallum_motion_pilot_GIST_update_2,2026.1.1,Win32,60.24096386,60dc4394e9e27efa6657582b,69b92ab4aef6dee357cd729a,69b92aeb6ae0f8bee3719e9f,0.044,0.044,1,42,204,119,1,eightseven,,,,,,,,,,,,,,,,,,,,,,,,,,,,,,,,,,,,,,,,,,,,,,,,,,,,,,,,,,,,,,,,,,,,,,,,,,,,,,,,,,,,,,,,,,,,,,,,,,,,,,,,,,,,,,,,,,,,,,,,,,,,,,,,,,,,,,,,,
,,60dc4394e9e27efa6657582b,2026-03-17_12h43.28.777,kallum_motion_pilot_GIST_update_2,2026.1.1,Win32,60.24096386,60dc4394e9e27efa6657582b,69b92ab4aef6dee357cd729a,69b92aeb6ae0f8bee3719e9f,0.0441,0.0441,1,43,205,134,1,eightsix,,,,,,,,,,,,,,,,,,,,,,,,,,,,,,,,,,,,,,,,,,,,,,,,,,,,,,,,,,,,,,,,,,,,,,,,,,,,,,,,,,,,,,,,,,,,,,,,,,,,,,,,,,,,,,,,,,,,,,,,,,,,,,,,,,,,,,,,,
,,60dc4394e9e27efa6657582b,2026-03-17_12h43.28.777,kallum_motion_pilot_GIST_update_2,2026.1.1,Win32,60.24096386,60dc4394e9e27efa6657582b,69b92ab4aef6dee357cd729a,69b92aeb6ae0f8bee3719e9f,0.0442,0.0442,1,44,206,160,1,fivesix,,,,,,,,,,,,,,,,,,,,,,,,,,,,,,,,,,,,,,,,,,,,,,,,,,,,,,,,,,,,,,,,,,,,,,,,,,,,,,,,,,,,,,,,,,,,,,,,,,,,,,,,,,,,,,,,,,,,,,,,,,,,,,,,,,,,,,,,,
,,60dc4394e9e27efa6657582b,2026-03-17_12h43.28.777,kallum_motion_pilot_GIST_update_2,2026.1.1,Win32,60.24096386,60dc4394e9e27efa6657582b,69b92ab4aef6dee357cd729a,69b92aeb6ae0f8bee3719e9f,0.0444,0.0444,1,45,207,19,1,twofour,,,,,,,,,,,,,,,,,,,,,,,,,,,,,,,,,,,,,,,,,,,,,,,,,,,,,,,,,,,,,,,,,,,,,,,,,,,,,,,,,,,,,,,,,,,,,,,,,,,,,,,,,,,,,,,,,,,,,,,,,,,,,,,,,,,,,,,,,
,,60dc4394e9e27efa6657582b,2026-03-17_12h43.28.777,kallum_motion_pilot_GIST_update_2,2026.1.1,Win32,60.24096386,60dc4394e9e27efa6657582b,69b92ab4aef6dee357cd729a,69b92aeb6ae0f8bee3719e9f,0.0446,0.0446,1,46,208,136,1,fivesix,,,,,,,,,,,,,,,,,,,,,,,,,,,,,,,,,,,,,,,,,,,,,,,,,,,,,,,,,,,,,,,,,,,,,,,,,,,,,,,,,,,,,,,,,,,,,,,,,,,,,,,,,,,,,,,,,,,,,,,,,,,,,,,,,,,,,,,,,
,,60dc4394e9e27efa6657582b,2026-03-17_12h43.28.777,kallum_motion_pilot_GIST_update_2,2026.1.1,Win32,60.24096386,60dc4394e9e27efa6657582b,69b92ab4aef6dee357cd729a,69b92aeb6ae0f8bee3719e9f,0.0447,0.0447,1,47,209,147,1,sixeight,,,,,,,,,,,,,,,,,,,,,,,,,,,,,,,,,,,,,,,,,,,,,,,,,,,,,,,,,,,,,,,,,,,,,,,,,,,,,,,,,,,,,,,,,,,,,,,,,,,,,,,,,,,,,,,,,,,,,,,,,,,,,,,,,,,,,,,,,
,,60dc4394e9e27efa6657582b,2026-03-17_12h43.28.777,kallum_motion_pilot_GIST_update_2,2026.1.1,Win32,60.24096386,60dc4394e9e27efa6657582b,69b92ab4aef6dee357cd729a,69b92aeb6ae0f8bee3719e9f,0.0448,0.0448,1,48,210,62,1,fourtwo,,,,,,,,,,,,,,,,,,,,,,,,,,,,,,,,,,,,,,,,,,,,,,,,,,,,,,,,,,,,,,,,,,,,,,,,,,,,,,,,,,,,,,,,,,,,,,,,,,,,,,,,,,,,,,,,,,,,,,,,,,,,,,,,,,,,,,,,,
,,60dc4394e9e27efa6657582b,2026-03-17_12h43.28.777,kallum_motion_pilot_GIST_update_2,2026.1.1,Win32,60.24096386,60dc4394e9e27efa6657582b,69b92ab4aef6dee357cd729a,69b92aeb6ae0f8bee3719e9f,0.045,0.045,1,49,211,143,1,eightseven,,,,,,,,,,,,,,,,,,,,,,,,,,,,,,,,,,,,,,,,,,,,,,,,,,,,,,,,,,,,,,,,,,,,,,,,,,,,,,,,,,,,,,,,,,,,,,,,,,,,,,,,,,,,,,,,,,,,,,,,,,,,,,,,,,,,,,,,,
,,60dc4394e9e27efa6657582b,2026-03-17_12h43.28.777,kallum_motion_pilot_GIST_update_2,2026.1.1,Win32,60.24096386,60dc4394e9e27efa6657582b,69b92ab4aef6dee357cd729a,69b92aeb6ae0f8bee3719e9f,0.0452,0.0452,1,50,212,14,1,fourtwo,,,,,,,,,,,,,,,,,,,,,,,,,,,,,,,,,,,,,,,,,,,,,,,,,,,,,,,,,,,,,,,,,,,,,,,,,,,,,,,,,,,,,,,,,,,,,,,,,,,,,,,,,,,,,,,,,,,,,,,,,,,,,,,,,,,,,,,,,
,,60dc4394e9e27efa6657582b,2026-03-17_12h43.28.777,kallum_motion_pilot_GIST_update_2,2026.1.1,Win32,60.24096386,60dc4394e9e27efa6657582b,69b92ab4aef6dee357cd729a,69b92aeb6ae0f8bee3719e9f,0.0453,0.0454,1,51,213,104,1,fivesix,,,,,,,,,,,,,,,,,,,,,,,,,,,,,,,,,,,,,,,,,,,,,,,,,,,,,,,,,,,,,,,,,,,,,,,,,,,,,,,,,,,,,,,,,,,,,,,,,,,,,,,,,,,,,,,,,,,,,,,,,,,,,,,,,,,,,,,,,
,,60dc4394e9e27efa6657582b,2026-03-17_12h43.28.777,kallum_motion_pilot_GIST_update_2,2026.1.1,Win32,60.24096386,60dc4394e9e27efa6657582b,69b92ab4aef6dee357cd729a,69b92aeb6ae0f8bee3719e9f,0.0454,0.0454,1,52,214,95,1,eightseven,,,,,,,,,,,,,,,,,,,,,,,,,,,,,,,,,,,,,,,,,,,,,,,,,,,,,,,,,,,,,,,,,,,,,,,,,,,,,,,,,,,,,,,,,,,,,,,,,,,,,,,,,,,,,,,,,,,,,,,,,,,,,,,,,,,,,,,,,
,,60dc4394e9e27efa6657582b,2026-03-17_12h43.28.777,kallum_motion_pilot_GIST_update_2,2026.1.1,Win32,60.24096386,60dc4394e9e27efa6657582b,69b92ab4aef6dee357cd729a,69b92aeb6ae0f8bee3719e9f,0.0456,0.0456,1,53,215,116,1,sevenfive,,,,,,,,,,,,,,,,,,,,,,,,,,,,,,,,,,,,,,,,,,,,,,,,,,,,,,,,,,,,,,,,,,,,,,,,,,,,,,,,,,,,,,,,,,,,,,,,,,,,,,,,,,,,,,,,,,,,,,,,,,,,,,,,,,,,,,,,,
,,60dc4394e9e27efa6657582b,2026-03-17_12h43.28.777,kallum_motion_pilot_GIST_update_2,2026.1.1,Win32,60.24096386,60dc4394e9e27efa6657582b,69b92ab4aef6dee357cd729a,69b92aeb6ae0f8bee3719e9f,0.0456,0.0457,1,54,216,6,1,fourtwo,,,,,,,,,,,,,,,,,,,,,,,,,,,,,,,,,,,,,,,,,,,,,,,,,,,,,,,,,,,,,,,,,,,,,,,,,,,,,,,,,,,,,,,,,,,,,,,,,,,,,,,,,,,,,,,,,,,,,,,,,,,,,,,,,,,,,,,,,
,,60dc4394e9e27efa6657582b,2026-03-17_12h43.28.777,kallum_motion_pilot_GIST_update_2,2026.1.1,Win32,60.24096386,60dc4394e9e27efa6657582b,69b92ab4aef6dee357cd729a,69b92aeb6ae0f8bee3719e9f,0.0458,0.0458,1,55,217,153,1,fiveseven,,,,,,,,,,,,,,,,,,,,,,,,,,,,,,,,,,,,,,,,,,,,,,,,,,,,,,,,,,,,,,,,,,,,,,,,,,,,,,,,,,,,,,,,,,,,,,,,,,,,,,,,,,,,,,,,,,,,,,,,,,,,,,,,,,,,,,,,,
,,60dc4394e9e27efa6657582b,2026-03-17_12h43.28.777,kallum_motion_pilot_GIST_update_2,2026.1.1,Win32,60.24096386,60dc4394e9e27efa6657582b,69b92ab4aef6dee357cd729a,69b92aeb6ae0f8bee3719e9f,0.0459,0.0459,1,56,218,29,1,threefour,,,,,,,,,,,,,,,,,,,,,,,,,,,,,,,,,,,,,,,,,,,,,,,,,,,,,,,,,,,,,,,,,,,,,,,,,,,,,,,,,,,,,,,,,,,,,,,,,,,,,,,,,,,,,,,,,,,,,,,,,,,,,,,,,,,,,,,,,
,,60dc4394e9e27efa6657582b,2026-03-17_12h43.28.777,kallum_motion_pilot_GIST_update_2,2026.1.1,Win32,60.24096386,60dc4394e9e27efa6657582b,69b92ab4aef6dee357cd729a,69b92aeb6ae0f8bee3719e9f,0.046,0.046,1,57,219,148,1,sevenfive,,,,,,,,,,,,,,,,,,,,,,,,,,,,,,,,,,,,,,,,,,,,,,,,,,,,,,,,,,,,,,,,,,,,,,,,,,,,,,,,,,,,,,,,,,,,,,,,,,,,,,,,,,,,,,,,,,,,,,,,,,,,,,,,,,,,,,,,,
,,60dc4394e9e27efa6657582b,2026-03-17_12h43.28.777,kallum_motion_pilot_GIST_update_2,2026.1.1,Win32,60.24096386,60dc4394e9e27efa6657582b,69b92ab4aef6dee357cd729a,69b92aeb6ae0f8bee3719e9f,0.0461,0.0461,1,58,220,55,1,fourthree,,,,,,,,,,,,,,,,,,,,,,,,,,,,,,,,,,,,,,,,,,,,,,,,,,,,,,,,,,,,,,,,,,,,,,,,,,,,,,,,,,,,,,,,,,,,,,,,,,,,,,,,,,,,,,,,,,,,,,,,,,,,,,,,,,,,,,,,,
,,60dc4394e9e27efa6657582b,2026-03-17_12h43.28.777,kallum_motion_pilot_GIST_update_2,2026.1.1,Win32,60.24096386,60dc4394e9e27efa6657582b,69b92ab4aef6dee357cd729a,69b92aeb6ae0f8bee3719e9f,0.0473,0.0473,1,59,221,158,1,eightsix,,,,,,,,,,,,,,,,,,,,,,,,,,,,,,,,,,,,,,,,,,,,,,,,,,,,,,,,,,,,,,,,,,,,,,,,,,,,,,,,,,,,,,,,,,,,,,,,,,,,,,,,,,,,,,,,,,,,,,,,,,,,,,,,,,,,,,,,,
,,60dc4394e9e27efa6657582b,2026-03-17_12h43.28.777,kallum_motion_pilot_GIST_update_2,2026.1.1,Win32,60.24096386,60dc4394e9e27efa6657582b,69b92ab4aef6dee357cd729a,69b92aeb6ae0f8bee3719e9f,0.0475,0.0475,1,60,222,140,1,sevenfive,,,,,,,,,,,,,,,,,,,,,,,,,,,,,,,,,,,,,,,,,,,,,,,,,,,,,,,,,,,,,,,,,,,,,,,,,,,,,,,,,,,,,,,,,,,,,,,,,,,,,,,,,,,,,,,,,,,,,,,,,,,,,,,,,,,,,,,,,
,,60dc4394e9e27efa6657582b,2026-03-17_12h43.28.777,kallum_motion_pilot_GIST_update_2,2026.1.1,Win32,60.24096386,60dc4394e9e27efa6657582b,69b92ab4aef6dee357cd729a,69b92aeb6ae0f8bee3719e9f,0.0477,0.0477,1,61,223,91,1,sixeight,,,,,,,,,,,,,,,,,,,,,,,,,,,,,,,,,,,,,,,,,,,,,,,,,,,,,,,,,,,,,,,,,,,,,,,,,,,,,,,,,,,,,,,,,,,,,,,,,,,,,,,,,,,,,,,,,,,,,,,,,,,,,,,,,,,,,,,,,
,,60dc4394e9e27efa6657582b,2026-03-17_12h43.28.777,kallum_motion_pilot_GIST_update_2,2026.1.1,Win32,60.24096386,60dc4394e9e27efa6657582b,69b92ab4aef6dee357cd729a,69b92aeb6ae0f8bee3719e9f,0.0478,0.0478,1,62,224,152,1,fivesix,,,,,,,,,,,,,,,,,,,,,,,,,,,,,,,,,,,,,,,,,,,,,,,,,,,,,,,,,,,,,,,,,,,,,,,,,,,,,,,,,,,,,,,,,,,,,,,,,,,,,,,,,,,,,,,,,,,,,,,,,,,,,,,,,,,,,,,,,
,,60dc4394e9e27efa6657582b,2026-03-17_12h43.28.777,kallum_motion_pilot_GIST_update_2,2026.1.1,Win32,60.24096386,60dc4394e9e27efa6657582b,69b92ab4aef6dee357cd729a,69b92aeb6ae0f8bee3719e9f,0.048,0.048,1,63,225,144,1,fivesix,,,,,,,,,,,,,,,,,,,,,,,,,,,,,,,,,,,,,,,,,,,,,,,,,,,,,,,,,,,,,,,,,,,,,,,,,,,,,,,,,,,,,,,,,,,,,,,,,,,,,,,,,,,,,,,,,,,,,,,,,,,,,,,,,,,,,,,,,
,,60dc4394e9e27efa6657582b,2026-03-17_12h43.28.777,kallum_motion_pilot_GIST_update_2,2026.1.1,Win32,60.24096386,60dc4394e9e27efa6657582b,69b92ab4aef6dee357cd729a,69b92aeb6ae0f8bee3719e9f,0.0481,0.0481,1,64,226,32,1,onetwo,,,,,,,,,,,,,,,,,,,,,,,,,,,,,,,,,,,,,,,,,,,,,,,,,,,,,,,,,,,,,,,,,,,,,,,,,,,,,,,,,,,,,,,,,,,,,,,,,,,,,,,,,,,,,,,,,,,,,,,,,,,,,,,,,,,,,,,,,
,,60dc4394e9e27efa6657582b,2026-03-17_12h43.28.777,kallum_motion_pilot_GIST_update_2,2026.1.1,Win32,60.24096386,60dc4394e9e27efa6657582b,69b92ab4aef6dee357cd729a,69b92aeb6ae0f8bee3719e9f,0.0483,0.0483,1,65,227,39,1,fourthree,,,,,,,,,,,,,,,,,,,,,,,,,,,,,,,,,,,,,,,,,,,,,,,,,,,,,,,,,,,,,,,,,,,,,,,,,,,,,,,,,,,,,,,,,,,,,,,,,,,,,,,,,,,,,,,,,,,,,,,,,,,,,,,,,,,,,,,,,
,,60dc4394e9e27efa6657582b,2026-03-17_12h43.28.777,kallum_motion_pilot_GIST_update_2,2026.1.1,Win32,60.24096386,60dc4394e9e27efa6657582b,69b92ab4aef6dee357cd729a,69b92aeb6ae0f8bee3719e9f,0.0485,0.0485,1,66,228,118,1,eightsix,,,,,,,,,,,,,,,,,,,,,,,,,,,,,,,,,,,,,,,,,,,,,,,,,,,,,,,,,,,,,,,,,,,,,,,,,,,,,,,,,,,,,,,,,,,,,,,,,,,,,,,,,,,,,,,,,,,,,,,,,,,,,,,,,,,,,,,,,
,,60dc4394e9e27efa6657582b,2026-03-17_12h43.28.777,kallum_motion_pilot_GIST_update_2,2026.1.1,Win32,60.24096386,60dc4394e9e27efa6657582b,69b92ab4aef6dee357cd729a,69b92aeb6ae0f8bee3719e9f,0.0486,0.0486,1,67,229,128,1,fivesix,,,,,,,,,,,,,,,,,,,,,,,,,,,,,,,,,,,,,,,,,,,,,,,,,,,,,,,,,,,,,,,,,,,,,,,,,,,,,,,,,,,,,,,,,,,,,,,,,,,,,,,,,,,,,,,,,,,,,,,,,,,,,,,,,,,,,,,,,
,,60dc4394e9e27efa6657582b,2026-03-17_12h43.28.777,kallum_motion_pilot_GIST_update_2,2026.1.1,Win32,60.24096386,60dc4394e9e27efa6657582b,69b92ab4aef6dee357cd729a,69b92aeb6ae0f8bee3719e9f,0.0488,0.0488,1,68,230,74,1,twoone,,,,,,,,,,,,,,,,,,,,,,,,,,,,,,,,,,,,,,,,,,,,,,,,,,,,,,,,,,,,,,,,,,,,,,,,,,,,,,,,,,,,,,,,,,,,,,,,,,,,,,,,,,,,,,,,,,,,,,,,,,,,,,,,,,,,,,,,,
,,60dc4394e9e27efa6657582b,2026-03-17_12h43.28.777,kallum_motion_pilot_GIST_update_2,2026.1.1,Win32,60.24096386,60dc4394e9e27efa6657582b,69b92ab4aef6dee357cd729a,69b92aeb6ae0f8bee3719e9f,0.0489,0.0489,1,69,231,78,1,fourtwo,,,,,,,,,,,,,,,,,,,,,,,,,,,,,,,,,,,,,,,,,,,,,,,,,,,,,,,,,,,,,,,,,,,,,,,,,,,,,,,,,,,,,,,,,,,,,,,,,,,,,,,,,,,,,,,,,,,,,,,,,,,,,,,,,,,,,,,,,
,,60dc4394e9e27efa6657582b,2026-03-17_12h43.28.777,kallum_motion_pilot_GIST_update_2,2026.1.1,Win32,60.24096386,60dc4394e9e27efa6657582b,69b92ab4aef6dee357cd729a,69b92aeb6ae0f8bee3719e9f,0.0491,0.0491,1,70,232,106,1,sixfive,,,,,,,,,,,,,,,,,,,,,,,,,,,,,,,,,,,,,,,,,,,,,,,,,,,,,,,,,,,,,,,,,,,,,,,,,,,,,,,,,,,,,,,,,,,,,,,,,,,,,,,,,,,,,,,,,,,,,,,,,,,,,,,,,,,,,,,,,
,,60dc4394e9e27efa6657582b,2026-03-17_12h43.28.777,kallum_motion_pilot_GIST_update_2,2026.1.1,Win32,60.24096386,60dc4394e9e27efa6657582b,69b92ab4aef6dee357cd729a,69b92aeb6ae0f8bee3719e9f,0.0492,0.0492,1,71,233,36,1,threeone,,,,,,,,,,,,,,,,,,,,,,,,,,,,,,,,,,,,,,,,,,,,,,,,,,,,,,,,,,,,,,,,,,,,,,,,,,,,,,,,,,,,,,,,,,,,,,,,,,,,,,,,,,,,,,,,,,,,,,,,,,,,,,,,,,,,,,,,,
,,60dc4394e9e27efa6657582b,2026-03-17_12h43.28.777,kallum_motion_pilot_GIST_update_2,2026.1.1,Win32,60.24096386,60dc4394e9e27efa6657582b,69b92ab4aef6dee357cd729a,69b92aeb6ae0f8bee3719e9f,0.0494,0.0494,1,72,234,48,1,onetwo,,,,,,,,,,,,,,,,,,,,,,,,,,,,,,,,,,,,,,,,,,,,,,,,,,,,,,,,,,,,,,,,,,,,,,,,,,,,,,,,,,,,,,,,,,,,,,,,,,,,,,,,,,,,,,,,,,,,,,,,,,,,,,,,,,,,,,,,,
,,60dc4394e9e27efa6657582b,2026-03-17_12h43.28.777,kallum_motion_pilot_GIST_update_2,2026.1.1,Win32,60.24096386,60dc4394e9e27efa6657582b,69b92ab4aef6dee357cd729a,69b92aeb6ae0f8bee3719e9f,0.0495,0.0495,1,73,235,124,1,sevenfive,,,,,,,,,,,,,,,,,,,,,,,,,,,,,,,,,,,,,,,,,,,,,,,,,,,,,,,,,,,,,,,,,,,,,,,,,,,,,,,,,,,,,,,,,,,,,,,,,,,,,,,,,,,,,,,,,,,,,,,,,,,,,,,,,,,,,,,,,
,,60dc4394e9e27efa6657582b,2026-03-17_12h43.28.777,kallum_motion_pilot_GIST_update_2,2026.1.1,Win32,60.24096386,60dc4394e9e27efa6657582b,69b92ab4aef6dee357cd729a,69b92aeb6ae0f8bee3719e9f,0.0496,0.0496,1,74,236,50,1,twoone,,,,,,,,,,,,,,,,,,,,,,,,,,,,,,,,,,,,,,,,,,,,,,,,,,,,,,,,,,,,,,,,,,,,,,,,,,,,,,,,,,,,,,,,,,,,,,,,,,,,,,,,,,,,,,,,,,,,,,,,,,,,,,,,,,,,,,,,,
,,60dc4394e9e27efa6657582b,2026-03-17_12h43.28.777,kallum_motion_pilot_GIST_update_2,2026.1.1,Win32,60.24096386,60dc4394e9e27efa6657582b,69b92ab4aef6dee357cd729a,69b92aeb6ae0f8bee3719e9f,0.0497,0.0497,1,75,237,115,1,sixeight,,,,,,,,,,,,,,,,,,,,,,,,,,,,,,,,,,,,,,,,,,,,,,,,,,,,,,,,,,,,,,,,,,,,,,,,,,,,,,,,,,,,,,,,,,,,,,,,,,,,,,,,,,,,,,,,,,,,,,,,,,,,,,,,,,,,,,,,,
,,60dc4394e9e27efa6657582b,2026-03-17_12h43.28.777,kallum_motion_pilot_GIST_update_2,2026.1.1,Win32,60.24096386,60dc4394e9e27efa6657582b,69b92ab4aef6dee357cd729a,69b92aeb6ae0f8bee3719e9f,0.0498,0.0498,1,76,238,4,1,threeone,,,,,,,,,,,,,,,,,,,,,,,,,,,,,,,,,,,,,,,,,,,,,,,,,,,,,,,,,,,,,,,,,,,,,,,,,,,,,,,,,,,,,,,,,,,,,,,,,,,,,,,,,,,,,,,,,,,,,,,,,,,,,,,,,,,,,,,,,
,,60dc4394e9e27efa6657582b,2026-03-17_12h43.28.777,kallum_motion_pilot_GIST_update_2,2026.1.1,Win32,60.24096386,60dc4394e9e27efa6657582b,69b92ab4aef6dee357cd729a,69b92aeb6ae0f8bee3719e9f,0.0498,0.0498,1,77,239,139,1,sixeight,,,,,,,,,,,,,,,,,,,,,,,,,,,,,,,,,,,,,,,,,,,,,,,,,,,,,,,,,,,,,,,,,,,,,,,,,,,,,,,,,,,,,,,,,,,,,,,,,,,,,,,,,,,,,,,,,,,,,,,,,,,,,,,,,,,,,,,,,
,,60dc4394e9e27efa6657582b,2026-03-17_12h43.28.777,kallum_motion_pilot_GIST_update_2,2026.1.1,Win32,60.24096386,60dc4394e9e27efa6657582b,69b92ab4aef6dee357cd729a,69b92aeb6ae0f8bee3719e9f,0.0499,0.0499,1,78,240,149,1,seveneight,,,,,,,,,,,,,,,,,,,,,,,,,,,,,,,,,,,,,,,,,,,,,,,,,,,,,,,,,,,,,,,,,,,,,,,,,,,,,,,,,,,,,,,,,,,,,,,,,,,,,,,,,,,,,,,,,,,,,,,,,,,,,,,,,,,,,,,,,
,,60dc4394e9e27efa6657582b,2026-03-17_12h43.28.777,kallum_motion_pilot_GIST_update_2,2026.1.1,Win32,60.24096386,60dc4394e9e27efa6657582b,69b92ab4aef6dee357cd729a,69b92aeb6ae0f8bee3719e9f,0.05,0.05,1,79,241,52,1,threeone,,,,,,,,,,,,,,,,,,,,,,,,,,,,,,,,,,,,,,,,,,,,,,,,,,,,,,,,,,,,,,,,,,,,,,,,,,,,,,,,,,,,,,,,,,,,,,,,,,,,,,,,,,,,,,,,,,,,,,,,,,,,,,,,,,,,,,,,,
,,60dc4394e9e27efa6657582b,2026-03-17_12h43.28.777,kallum_motion_pilot_GIST_update_2,2026.1.1,Win32,60.24096386,60dc4394e9e27efa6657582b,69b92ab4aef6dee357cd729a,69b92aeb6ae0f8bee3719e9f,0.0501,0.0501,1,80,242,76,1,threeone,,,,,,,,,,,,,,,,,,,,,,,,,,,,,,,,,,,,,,,,,,,,,,,,,,,,,,,,,,,,,,,,,,,,,,,,,,,,,,,,,,,,,,,,,,,,,,,,,,,,,,,,,,,,,,,,,,,,,,,,,,,,,,,,,,,,,,,,,
,,60dc4394e9e27efa6657582b,2026-03-17_12h43.28.777,kallum_motion_pilot_GIST_update_2,2026.1.1,Win32,60.24096386,60dc4394e9e27efa6657582b,69b92ab4aef6dee357cd729a,69b92aeb6ae0f8bee3719e9f,0.0501,0.0501,1,81,243,122,1,sixfive,,,,,,,,,,,,,,,,,,,,,,,,,,,,,,,,,,,,,,,,,,,,,,,,,,,,,,,,,,,,,,,,,,,,,,,,,,,,,,,,,,,,,,,,,,,,,,,,,,,,,,,,,,,,,,,,,,,,,,,,,,,,,,,,,,,,,,,,,
,,60dc4394e9e27efa6657582b,2026-03-17_12h43.28.777,kallum_motion_pilot_GIST_update_2,2026.1.1,Win32,60.24096386,60dc4394e9e27efa6657582b,69b92ab4aef6dee357cd729a,69b92aeb6ae0f8bee3719e9f,0.0503,0.0503,1,82,244,40,1,onetwo,,,,,,,,,,,,,,,,,,,,,,,,,,,,,,,,,,,,,,,,,,,,,,,,,,,,,,,,,,,,,,,,,,,,,,,,,,,,,,,,,,,,,,,,,,,,,,,,,,,,,,,,,,,,,,,,,,,,,,,,,,,,,,,,,,,,,,,,,
,,60dc4394e9e27efa6657582b,2026-03-17_12h43.28.777,kallum_motion_pilot_GIST_update_2,2026.1.1,Win32,60.24096386,60dc4394e9e27efa6657582b,69b92ab4aef6dee357cd729a,69b92aeb6ae0f8bee3719e9f,0.0504,0.0504,1,83,245,64,1,onetwo,,,,,,,,,,,,,,,,,,,,,,,,,,,,,,,,,,,,,,,,,,,,,,,,,,,,,,,,,,,,,,,,,,,,,,,,,,,,,,,,,,,,,,,,,,,,,,,,,,,,,,,,,,,,,,,,,,,,,,,,,,,,,,,,,,,,,,,,,
,,60dc4394e9e27efa6657582b,2026-03-17_12h43.28.777,kallum_motion_pilot_GIST_update_2,2026.1.1,Win32,60.24096386,60dc4394e9e27efa6657582b,69b92ab4aef6dee357cd729a,69b92aeb6ae0f8bee3719e9f,0.0506,0.0506,1,84,246,154,1,sixfive,,,,,,,,,,,,,,,,,,,,,,,,,,,,,,,,,,,,,,,,,,,,,,,,,,,,,,,,,,,,,,,,,,,,,,,,,,,,,,,,,,,,,,,,,,,,,,,,,,,,,,,,,,,,,,,,,,,,,,,,,,,,,,,,,,,,,,,,,
,,60dc4394e9e27efa6657582b,2026-03-17_12h43.28.777,kallum_motion_pilot_GIST_update_2,2026.1.1,Win32,60.24096386,60dc4394e9e27efa6657582b,69b92ab4aef6dee357cd729a,69b92aeb6ae0f8bee3719e9f,0.0507,0.0507,1,85,247,117,1,seveneight,,,,,,,,,,,,,,,,,,,,,,,,,,,,,,,,,,,,,,,,,,,,,,,,,,,,,,,,,,,,,,,,,,,,,,,,,,,,,,,,,,,,,,,,,,,,,,,,,,,,,,,,,,,,,,,,,,,,,,,,,,,,,,,,,,,,,,,,,
,,60dc4394e9e27efa6657582b,2026-03-17_12h43.28.777,kallum_motion_pilot_GIST_update_2,2026.1.1,Win32,60.24096386,60dc4394e9e27efa6657582b,69b92ab4aef6dee357cd729a,69b92aeb6ae0f8bee3719e9f,0.0509,0.0509,1,86,248,12,1,threeone,,,,,,,,,,,,,,,,,,,,,,,,,,,,,,,,,,,,,,,,,,,,,,,,,,,,,,,,,,,,,,,,,,,,,,,,,,,,,,,,,,,,,,,,,,,,,,,,,,,,,,,,,,,,,,,,,,,,,,,,,,,,,,,,,,,,,,,,,
,,60dc4394e9e27efa6657582b,2026-03-17_12h43.28.777,kallum_motion_pilot_GIST_update_2,2026.1.1,Win32,60.24096386,60dc4394e9e27efa6657582b,69b92ab4aef6dee357cd729a,69b92aeb6ae0f8bee3719e9f,0.051,0.051,1,87,249,10,1,twoone,,,,,,,,,,,,,,,,,,,,,,,,,,,,,,,,,,,,,,,,,,,,,,,,,,,,,,,,,,,,,,,,,,,,,,,,,,,,,,,,,,,,,,,,,,,,,,,,,,,,,,,,,,,,,,,,,,,,,,,,,,,,,,,,,,,,,,,,,
,,60dc4394e9e27efa6657582b,2026-03-17_12h43.28.777,kallum_motion_pilot_GIST_update_2,2026.1.1,Win32,60.24096386,60dc4394e9e27efa6657582b,69b92ab4aef6dee357cd729a,69b92aeb6ae0f8bee3719e9f,0.0511,0.0511,1,88,250,103,1,eightseven,,,,,,,,,,,,,,,,,,,,,,,,,,,,,,,,,,,,,,,,,,,,,,,,,,,,,,,,,,,,,,,,,,,,,,,,,,,,,,,,,,,,,,,,,,,,,,,,,,,,,,,,,,,,,,,,,,,,,,,,,,,,,,,,,,,,,,,,,
,,60dc4394e9e27efa6657582b,2026-03-17_12h43.28.777,kallum_motion_pilot_GIST_update_2,2026.1.1,Win32,60.24096386,60dc4394e9e27efa6657582b,69b92ab4aef6dee357cd729a,69b92aeb6ae0f8bee3719e9f,0.0512,0.0512,1,89,251,109,1,seveneight,,,,,,,,,,,,,,,,,,,,,,,,,,,,,,,,,,,,,,,,,,,,,,,,,,,,,,,,,,,,,,,,,,,,,,,,,,,,,,,,,,,,,,,,,,,,,,,,,,,,,,,,,,,,,,,,,,,,,,,,,,,,,,,,,,,,,,,,,
,,60dc4394e9e27efa6657582b,2026-03-17_12h43.28.777,kallum_motion_pilot_GIST_update_2,2026.1.1,Win32,60.24096386,60dc4394e9e27efa6657582b,69b92ab4aef6dee357cd729a,69b92aeb6ae0f8bee3719e9f,0.0514,0.0514,1,90,252,45,1,threefour,,,,,,,,,,,,,,,,,,,,,,,,,,,,,,,,,,,,,,,,,,,,,,,,,,,,,,,,,,,,,,,,,,,,,,,,,,,,,,,,,,,,,,,,,,,,,,,,,,,,,,,,,,,,,,,,,,,,,,,,,,,,,,,,,,,,,,,,,
,,60dc4394e9e27efa6657582b,2026-03-17_12h43.28.777,kallum_motion_pilot_GIST_update_2,2026.1.1,Win32,60.24096386,60dc4394e9e27efa6657582b,69b92ab4aef6dee357cd729a,69b92aeb6ae0f8bee3719e9f,0.0515,0.0515,1,91,253,35,1,twofour,,,,,,,,,,,,,,,,,,,,,,,,,,,,,,,,,,,,,,,,,,,,,,,,,,,,,,,,,,,,,,,,,,,,,,,,,,,,,,,,,,,,,,,,,,,,,,,,,,,,,,,,,,,,,,,,,,,,,,,,,,,,,,,,,,,,,,,,,
,,60dc4394e9e27efa6657582b,2026-03-17_12h43.28.777,kallum_motion_pilot_GIST_update_2,2026.1.1,Win32,60.24096386,60dc4394e9e27efa6657582b,69b92ab4aef6dee357cd729a,69b92aeb6ae0f8bee3719e9f,0.0516,0.0516,1,92,254,79,1,eightseven,,,,,,,,,,,,,,,,,,,,,,,,,,,,,,,,,,,,,,,,,,,,,,,,,,,,,,,,,,,,,,,,,,,,,,,,,,,,,,,,,,,,,,,,,,,,,,,,,,,,,,,,,,,,,,,,,,,,,,,,,,,,,,,,,,,,,,,,,
,,60dc4394e9e27efa6657582b,2026-03-17_12h43.28.777,kallum_motion_pilot_GIST_update_2,2026.1.1,Win32,60.24096386,60dc4394e9e27efa6657582b,69b92ab4aef6dee357cd729a,69b92aeb6ae0f8bee3719e9f,0.0517,0.0517,1,93,255,83,1,sixeight,,,,,,,,,,,,,,,,,,,,,,,,,,,,,,,,,,,,,,,,,,,,,,,,,,,,,,,,,,,,,,,,,,,,,,,,,,,,,,,,,,,,,,,,,,,,,,,,,,,,,,,,,,,,,,,,,,,,,,,,,,,,,,,,,,,,,,,,,
,,60dc4394e9e27efa6657582b,2026-03-17_12h43.28.777,kallum_motion_pilot_GIST_update_2,2026.1.1,Win32,60.24096386,60dc4394e9e27efa6657582b,69b92ab4aef6dee357cd729a,69b92aeb6ae0f8bee3719e9f,0.0518,0.0518,1,94,256,85,1,seveneight,,,,,,,,,,,,,,,,,,,,,,,,,,,,,,,,,,,,,,,,,,,,,,,,,,,,,,,,,,,,,,,,,,,,,,,,,,,,,,,,,,,,,,,,,,,,,,,,,,,,,,,,,,,,,,,,,,,,,,,,,,,,,,,,,,,,,,,,,
,,60dc4394e9e27efa6657582b,2026-03-17_12h43.28.777,kallum_motion_pilot_GIST_update_2,2026.1.1,Win32,60.24096386,60dc4394e9e27efa6657582b,69b92ab4aef6dee357cd729a,69b92aeb6ae0f8bee3719e9f,0.052,0.052,1,95,257,9,1,onethree,,,,,,,,,,,,,,,,,,,,,,,,,,,,,,,,,,,,,,,,,,,,,,,,,,,,,,,,,,,,,,,,,,,,,,,,,,,,,,,,,,,,,,,,,,,,,,,,,,,,,,,,,,,,,,,,,,,,,,,,,,,,,,,,,,,,,,,,,
,,60dc4394e9e27efa6657582b,2026-03-17_12h43.28.777,kallum_motion_pilot_GIST_update_2,2026.1.1,Win32,60.24096386,60dc4394e9e27efa6657582b,69b92ab4aef6dee357cd729a,69b92aeb6ae0f8bee3719e9f,0.052,0.052,1,96,258,23,1,fourthree,,,,,,,,,,,,,,,,,,,,,,,,,,,,,,,,,,,,,,,,,,,,,,,,,,,,,,,,,,,,,,,,,,,,,,,,,,,,,,,,,,,,,,,,,,,,,,,,,,,,,,,,,,,,,,,,,,,,,,,,,,,,,,,,,,,,,,,,,
,,60dc4394e9e27efa6657582b,2026-03-17_12h43.28.777,kallum_motion_pilot_GIST_update_2,2026.1.1,Win32,60.24096386,60dc4394e9e27efa6657582b,69b92ab4aef6dee357cd729a,69b92aeb6ae0f8bee3719e9f,0.0521,0.0521,1,97,259,125,1,seveneight,,,,,,,,,,,,,,,,,,,,,,,,,,,,,,,,,,,,,,,,,,,,,,,,,,,,,,,,,,,,,,,,,,,,,,,,,,,,,,,,,,,,,,,,,,,,,,,,,,,,,,,,,,,,,,,,,,,,,,,,,,,,,,,,,,,,,,,,,
,,60dc4394e9e27efa6657582b,2026-03-17_12h43.28.777,kallum_motion_pilot_GIST_update_2,2026.1.1,Win32,60.24096386,60dc4394e9e27efa6657582b,69b92ab4aef6dee357cd729a,69b92aeb6ae0f8bee3719e9f,0.0522,0.0522,1,98,260,13,1,threefour,,,,,,,,,,,,,,,,,,,,,,,,,,,,,,,,,,,,,,,,,,,,,,,,,,,,,,,,,,,,,,,,,,,,,,,,,,,,,,,,,,,,,,,,,,,,,,,,,,,,,,,,,,,,,,,,,,,,,,,,,,,,,,,,,,,,,,,,,
,,60dc4394e9e27efa6657582b,2026-03-17_12h43.28.777,kallum_motion_pilot_GIST_update_2,2026.1.1,Win32,60.24096386,60dc4394e9e27efa6657582b,69b92ab4aef6dee357cd729a,69b92aeb6ae0f8bee3719e9f,0.0522,0.0522,1,99,261,159,1,eightseven,,,,,,,,,,,,,,,,,,,,,,,,,,,,,,,,,,,,,,,,,,,,,,,,,,,,,,,,,,,,,,,,,,,,,,,,,,,,,,,,,,,,,,,,,,,,,,,,,,,,,,,,,,,,,,,,,,,,,,,,,,,,,,,,,,,,,,,,,
,,60dc4394e9e27efa6657582b,2026-03-17_12h43.28.777,kallum_motion_pilot_GIST_update_2,2026.1.1,Win32,60.24096386,60dc4394e9e27efa6657582b,69b92ab4aef6dee357cd729a,69b92aeb6ae0f8bee3719e9f,0.0523,0.0523,1,100,262,2,1,twoone,,,,,,,,,,,,,,,,,,,,,,,,,,,,,,,,,,,,,,,,,,,,,,,,,,,,,,,,,,,,,,,,,,,,,,,,,,,,,,,,,,,,,,,,,,,,,,,,,,,,,,,,,,,,,,,,,,,,,,,,,,,,,,,,,,,,,,,,,
,,60dc4394e9e27efa6657582b,2026-03-17_12h43.28.777,kallum_motion_pilot_GIST_update_2,2026.1.1,Win32,60.24096386,60dc4394e9e27efa6657582b,69b92ab4aef6dee357cd729a,69b92aeb6ae0f8bee3719e9f,0.0524,0.0524,1,101,263,86,1,eightsix,,,,,,,,,,,,,,,,,,,,,,,,,,,,,,,,,,,,,,,,,,,,,,,,,,,,,,,,,,,,,,,,,,,,,,,,,,,,,,,,,,,,,,,,,,,,,,,,,,,,,,,,,,,,,,,,,,,,,,,,,,,,,,,,,,,,,,,,,
,,60dc4394e9e27efa6657582b,2026-03-17_12h43.28.777,kallum_motion_pilot_GIST_update_2,2026.1.1,Win32,60.24096386,60dc4394e9e27efa6657582b,69b92ab4aef6dee357cd729a,69b92aeb6ae0f8bee3719e9f,0.0525,0.0525,1,102,264,72,1,onetwo,,,,,,,,,,,,,,,,,,,,,,,,,,,,,,,,,,,,,,,,,,,,,,,,,,,,,,,,,,,,,,,,,,,,,,,,,,,,,,,,,,,,,,,,,,,,,,,,,,,,,,,,,,,,,,,,,,,,,,,,,,,,,,,,,,,,,,,,,
,,60dc4394e9e27efa6657582b,2026-03-17_12h43.28.777,kallum_motion_pilot_GIST_update_2,2026.1.1,Win32,60.24096386,60dc4394e9e27efa6657582b,69b92ab4aef6dee357cd729a,69b92aeb6ae0f8bee3719e9f,0.0527,0.0527,1,103,265,68,1,threeone,,,,,,,,,,,,,,,,,,,,,,,,,,,,,,,,,,,,,,,,,,,,,,,,,,,,,,,,,,,,,,,,,,,,,,,,,,,,,,,,,,,,,,,,,,,,,,,,,,,,,,,,,,,,,,,,,,,,,,,,,,,,,,,,,,,,,,,,,
,,60dc4394e9e27efa6657582b,2026-03-17_12h43.28.777,kallum_motion_pilot_GIST_update_2,2026.1.1,Win32,60.24096386,60dc4394e9e27efa6657582b,69b92ab4aef6dee357cd729a,69b92aeb6ae0f8bee3719e9f,0.0528,0.0528,1,104,266,0,1,onetwo,,,,,,,,,,,,,,,,,,,,,,,,,,,,,,,,,,,,,,,,,,,,,,,,,,,,,,,,,,,,,,,,,,,,,,,,,,,,,,,,,,,,,,,,,,,,,,,,,,,,,,,,,,,,,,,,,,,,,,,,,,,,,,,,,,,,,,,,,
