startup.started,startup.stopped,Prolific ID*,date,expName,psychopyVersion,OS,frameRate,participant,study_id,session,stimpositions.started,stimpositions.stopped,hardcoded_stimulus_positions.thisRepN,hardcoded_stimulus_positions.thisTrialN,hardcoded_stimulus_positions.thisN,hardcoded_stimulus_positions.thisIndex,hardcoded_stimulus_positions.ran,StimulusPos,stimorientation.started,stimorientation.stopped,prac_stimorientation_import_loop.thisRepN,prac_stimorientation_import_loop.thisTrialN,prac_stimorientation_import_loop.thisN,prac_stimorientation_import_loop.thisIndex,prac_stimorientation_import_loop.ran,Stimorientation,welcome_instr.started,welcome_instr.stopped,key_resp.keys,key_resp.rt,key_resp.duration,response_steppedout_1.started,response_steppedout_1.stopped,key_resp_20.keys,key_resp_20.rt,key_resp_20.duration,response_steppedout_2.started,response_steppedout_2.stopped,key_resp_19.keys,key_resp_19.rt,key_resp_19.duration,stim_response_instr.started,stim_response_instr.stopped,key_resp_15.keys,key_resp_15.rt,key_resp_15.duration,direction_instr_2.started,direction_instr_2.stopped,key_resp_9.keys,key_resp_9.rt,key_resp_9.duration,instr_prac.started,instr_prac.stopped,key_resp_10.keys,key_resp_10.rt,key_resp_10.duration,Stim1_display_prac.started,Stim1_display_prac.stopped,Ecc,Circle1_ori,Circle2_ori,response_prac.started,similarity,response_time,response_prac.stopped,mouse_5.x,mouse_5.y,mouse_5.leftButton,mouse_5.midButton,mouse_5.rightButton,mouse_5.clicked_name,responseprac_feedback.started,responseprac_feedback.stopped,summary2_prac.started,summary2_prac.stopped,mouse_6.x,mouse_6.y,mouse_6.leftButton,mouse_6.midButton,mouse_6.rightButton,mouse_6.clicked_name,duringprac.thisRepN,duringprac.thisTrialN,duringprac.thisN,duringprac.thisIndex,duringprac.ran,begin.started,begin.stopped,key_resp_22.keys,key_resp_22.rt,key_resp_22.duration,Stim1_display.started,Stim1_display.stopped,circle1_ori,circle2_ori,circle1_SF,circle2_SF,response.started,response.stopped,mouse.x,mouse.y,mouse.leftButton,mouse.midButton,mouse.rightButton,mouse.clicked_name,trialnumber,double_pass.thisRepN,double_pass.thisTrialN,double_pass.thisN,double_pass.thisIndex,double_pass.ran,double_pass.order,main_trial.thisRepN,main_trial.thisTrialN,main_trial.thisN,main_trial.thisIndex,main_trial.ran,main_trial.order,Trial_Counter,Catch,Frequencies,response_2.started,response_2.stopped,mouse_2.x,mouse_2.y,mouse_2.leftButton,mouse_2.midButton,mouse_2.rightButton,mouse_2.clicked_name,special_trial.started,special_trial.stopped,catch_1.started,catch_1.stopped,mouse_3.x,mouse_3.y,mouse_3.leftButton,mouse_3.midButton,mouse_3.rightButton,catchresponse,catchnumber,response_time_catch,response_sum.started,response_sum.stopped,mouse_11.x,mouse_11.y,mouse_11.leftButton,mouse_11.midButton,mouse_11.rightButton,flip_presentation_sequence_for_double_pass.started,flip_presentation_sequence_for_double_pass.stopped,goodbye.started,goodbye.stopped,key_resp_3.keys,key_resp_3.rt,key_resp_3.duration
0.0014,0.0015,60f5763eb0c6dde109026ff5,2026-03-17_07h12.44.075,kallum_motion_pilot_GIST_update_2,2026.1.1,Win32,39.68253968,60f5763eb0c6dde109026ff5,69b95efdef24cd8a694e89ee,69b960d340c63512f8e68458,,,,,,,,,,,,,,,,,,,,,,,,,,,,,,,,,,,,,,,,,,,,,,,,,,,,,,,,,,,,,,,,,,,,,,,,,,,,,,,,,,,,,,,,,,,,,,,,,,,,,,,,,,,,,,,,,,,,,,,,,,,,,,,,,,,,,,,,,,,,,,,,,
,,60f5763eb0c6dde109026ff5,2026-03-17_07h12.44.075,kallum_motion_pilot_GIST_update_2,2026.1.1,Win32,39.68253968,60f5763eb0c6dde109026ff5,69b95efdef24cd8a694e89ee,69b960d340c63512f8e68458,0.0338,0.0338,0,0,0,71,1,fourthree,,,,,,,,,,,,,,,,,,,,,,,,,,,,,,,,,,,,,,,,,,,,,,,,,,,,,,,,,,,,,,,,,,,,,,,,,,,,,,,,,,,,,,,,,,,,,,,,,,,,,,,,,,,,,,,,,,,,,,,,,,,,,,,,,,,,,,,,,
,,60f5763eb0c6dde109026ff5,2026-03-17_07h12.44.075,kallum_motion_pilot_GIST_update_2,2026.1.1,Win32,39.68253968,60f5763eb0c6dde109026ff5,69b95efdef24cd8a694e89ee,69b960d340c63512f8e68458,0.0343,0.0343,0,1,1,67,1,twofour,,,,,,,,,,,,,,,,,,,,,,,,,,,,,,,,,,,,,,,,,,,,,,,,,,,,,,,,,,,,,,,,,,,,,,,,,,,,,,,,,,,,,,,,,,,,,,,,,,,,,,,,,,,,,,,,,,,,,,,,,,,,,,,,,,,,,,,,,
,,60f5763eb0c6dde109026ff5,2026-03-17_07h12.44.075,kallum_motion_pilot_GIST_update_2,2026.1.1,Win32,39.68253968,60f5763eb0c6dde109026ff5,69b95efdef24cd8a694e89ee,69b960d340c63512f8e68458,0.0344,0.0345,0,2,2,63,1,fourthree,,,,,,,,,,,,,,,,,,,,,,,,,,,,,,,,,,,,,,,,,,,,,,,,,,,,,,,,,,,,,,,,,,,,,,,,,,,,,,,,,,,,,,,,,,,,,,,,,,,,,,,,,,,,,,,,,,,,,,,,,,,,,,,,,,,,,,,,,
,,60f5763eb0c6dde109026ff5,2026-03-17_07h12.44.075,kallum_motion_pilot_GIST_update_2,2026.1.1,Win32,39.68253968,60f5763eb0c6dde109026ff5,69b95efdef24cd8a694e89ee,69b960d340c63512f8e68458,0.0348,0.0349,0,3,3,153,1,fiveseven,,,,,,,,,,,,,,,,,,,,,,,,,,,,,,,,,,,,,,,,,,,,,,,,,,,,,,,,,,,,,,,,,,,,,,,,,,,,,,,,,,,,,,,,,,,,,,,,,,,,,,,,,,,,,,,,,,,,,,,,,,,,,,,,,,,,,,,,,
,,60f5763eb0c6dde109026ff5,2026-03-17_07h12.44.075,kallum_motion_pilot_GIST_update_2,2026.1.1,Win32,39.68253968,60f5763eb0c6dde109026ff5,69b95efdef24cd8a694e89ee,69b960d340c63512f8e68458,0.0351,0.0351,0,4,4,86,1,eightsix,,,,,,,,,,,,,,,,,,,,,,,,,,,,,,,,,,,,,,,,,,,,,,,,,,,,,,,,,,,,,,,,,,,,,,,,,,,,,,,,,,,,,,,,,,,,,,,,,,,,,,,,,,,,,,,,,,,,,,,,,,,,,,,,,,,,,,,,,
,,60f5763eb0c6dde109026ff5,2026-03-17_07h12.44.075,kallum_motion_pilot_GIST_update_2,2026.1.1,Win32,39.68253968,60f5763eb0c6dde109026ff5,69b95efdef24cd8a694e89ee,69b960d340c63512f8e68458,0.0353,0.0353,0,5,5,110,1,eightsix,,,,,,,,,,,,,,,,,,,,,,,,,,,,,,,,,,,,,,,,,,,,,,,,,,,,,,,,,,,,,,,,,,,,,,,,,,,,,,,,,,,,,,,,,,,,,,,,,,,,,,,,,,,,,,,,,,,,,,,,,,,,,,,,,,,,,,,,,
,,60f5763eb0c6dde109026ff5,2026-03-17_07h12.44.075,kallum_motion_pilot_GIST_update_2,2026.1.1,Win32,39.68253968,60f5763eb0c6dde109026ff5,69b95efdef24cd8a694e89ee,69b960d340c63512f8e68458,0.0355,0.0355,0,6,6,25,1,onethree,,,,,,,,,,,,,,,,,,,,,,,,,,,,,,,,,,,,,,,,,,,,,,,,,,,,,,,,,,,,,,,,,,,,,,,,,,,,,,,,,,,,,,,,,,,,,,,,,,,,,,,,,,,,,,,,,,,,,,,,,,,,,,,,,,,,,,,,,
,,60f5763eb0c6dde109026ff5,2026-03-17_07h12.44.075,kallum_motion_pilot_GIST_update_2,2026.1.1,Win32,39.68253968,60f5763eb0c6dde109026ff5,69b95efdef24cd8a694e89ee,69b960d340c63512f8e68458,0.0356,0.0356,0,7,7,120,1,fivesix,,,,,,,,,,,,,,,,,,,,,,,,,,,,,,,,,,,,,,,,,,,,,,,,,,,,,,,,,,,,,,,,,,,,,,,,,,,,,,,,,,,,,,,,,,,,,,,,,,,,,,,,,,,,,,,,,,,,,,,,,,,,,,,,,,,,,,,,,
,,60f5763eb0c6dde109026ff5,2026-03-17_07h12.44.075,kallum_motion_pilot_GIST_update_2,2026.1.1,Win32,39.68253968,60f5763eb0c6dde109026ff5,69b95efdef24cd8a694e89ee,69b960d340c63512f8e68458,0.0359,0.036,0,8,8,87,1,eightseven,,,,,,,,,,,,,,,,,,,,,,,,,,,,,,,,,,,,,,,,,,,,,,,,,,,,,,,,,,,,,,,,,,,,,,,,,,,,,,,,,,,,,,,,,,,,,,,,,,,,,,,,,,,,,,,,,,,,,,,,,,,,,,,,,,,,,,,,,
,,60f5763eb0c6dde109026ff5,2026-03-17_07h12.44.075,kallum_motion_pilot_GIST_update_2,2026.1.1,Win32,39.68253968,60f5763eb0c6dde109026ff5,69b95efdef24cd8a694e89ee,69b960d340c63512f8e68458,0.0362,0.0362,0,9,9,89,1,fiveseven,,,,,,,,,,,,,,,,,,,,,,,,,,,,,,,,,,,,,,,,,,,,,,,,,,,,,,,,,,,,,,,,,,,,,,,,,,,,,,,,,,,,,,,,,,,,,,,,,,,,,,,,,,,,,,,,,,,,,,,,,,,,,,,,,,,,,,,,,
,,60f5763eb0c6dde109026ff5,2026-03-17_07h12.44.075,kallum_motion_pilot_GIST_update_2,2026.1.1,Win32,39.68253968,60f5763eb0c6dde109026ff5,69b95efdef24cd8a694e89ee,69b960d340c63512f8e68458,0.0364,0.0365,0,10,10,105,1,fiveseven,,,,,,,,,,,,,,,,,,,,,,,,,,,,,,,,,,,,,,,,,,,,,,,,,,,,,,,,,,,,,,,,,,,,,,,,,,,,,,,,,,,,,,,,,,,,,,,,,,,,,,,,,,,,,,,,,,,,,,,,,,,,,,,,,,,,,,,,,
,,60f5763eb0c6dde109026ff5,2026-03-17_07h12.44.075,kallum_motion_pilot_GIST_update_2,2026.1.1,Win32,39.68253968,60f5763eb0c6dde109026ff5,69b95efdef24cd8a694e89ee,69b960d340c63512f8e68458,0.0366,0.0366,0,11,11,78,1,fourtwo,,,,,,,,,,,,,,,,,,,,,,,,,,,,,,,,,,,,,,,,,,,,,,,,,,,,,,,,,,,,,,,,,,,,,,,,,,,,,,,,,,,,,,,,,,,,,,,,,,,,,,,,,,,,,,,,,,,,,,,,,,,,,,,,,,,,,,,,,
,,60f5763eb0c6dde109026ff5,2026-03-17_07h12.44.075,kallum_motion_pilot_GIST_update_2,2026.1.1,Win32,39.68253968,60f5763eb0c6dde109026ff5,69b95efdef24cd8a694e89ee,69b960d340c63512f8e68458,0.0367,0.0367,0,12,12,145,1,fiveseven,,,,,,,,,,,,,,,,,,,,,,,,,,,,,,,,,,,,,,,,,,,,,,,,,,,,,,,,,,,,,,,,,,,,,,,,,,,,,,,,,,,,,,,,,,,,,,,,,,,,,,,,,,,,,,,,,,,,,,,,,,,,,,,,,,,,,,,,,
,,60f5763eb0c6dde109026ff5,2026-03-17_07h12.44.075,kallum_motion_pilot_GIST_update_2,2026.1.1,Win32,39.68253968,60f5763eb0c6dde109026ff5,69b95efdef24cd8a694e89ee,69b960d340c63512f8e68458,0.037,0.037,0,13,13,88,1,fivesix,,,,,,,,,,,,,,,,,,,,,,,,,,,,,,,,,,,,,,,,,,,,,,,,,,,,,,,,,,,,,,,,,,,,,,,,,,,,,,,,,,,,,,,,,,,,,,,,,,,,,,,,,,,,,,,,,,,,,,,,,,,,,,,,,,,,,,,,,
,,60f5763eb0c6dde109026ff5,2026-03-17_07h12.44.075,kallum_motion_pilot_GIST_update_2,2026.1.1,Win32,39.68253968,60f5763eb0c6dde109026ff5,69b95efdef24cd8a694e89ee,69b960d340c63512f8e68458,0.0372,0.0372,0,14,14,3,1,twofour,,,,,,,,,,,,,,,,,,,,,,,,,,,,,,,,,,,,,,,,,,,,,,,,,,,,,,,,,,,,,,,,,,,,,,,,,,,,,,,,,,,,,,,,,,,,,,,,,,,,,,,,,,,,,,,,,,,,,,,,,,,,,,,,,,,,,,,,,
,,60f5763eb0c6dde109026ff5,2026-03-17_07h12.44.075,kallum_motion_pilot_GIST_update_2,2026.1.1,Win32,39.68253968,60f5763eb0c6dde109026ff5,69b95efdef24cd8a694e89ee,69b960d340c63512f8e68458,0.0373,0.0373,0,15,15,56,1,onetwo,,,,,,,,,,,,,,,,,,,,,,,,,,,,,,,,,,,,,,,,,,,,,,,,,,,,,,,,,,,,,,,,,,,,,,,,,,,,,,,,,,,,,,,,,,,,,,,,,,,,,,,,,,,,,,,,,,,,,,,,,,,,,,,,,,,,,,,,,
,,60f5763eb0c6dde109026ff5,2026-03-17_07h12.44.075,kallum_motion_pilot_GIST_update_2,2026.1.1,Win32,39.68253968,60f5763eb0c6dde109026ff5,69b95efdef24cd8a694e89ee,69b960d340c63512f8e68458,0.0374,0.0375,0,16,16,96,1,fivesix,,,,,,,,,,,,,,,,,,,,,,,,,,,,,,,,,,,,,,,,,,,,,,,,,,,,,,,,,,,,,,,,,,,,,,,,,,,,,,,,,,,,,,,,,,,,,,,,,,,,,,,,,,,,,,,,,,,,,,,,,,,,,,,,,,,,,,,,,
,,60f5763eb0c6dde109026ff5,2026-03-17_07h12.44.075,kallum_motion_pilot_GIST_update_2,2026.1.1,Win32,39.68253968,60f5763eb0c6dde109026ff5,69b95efdef24cd8a694e89ee,69b960d340c63512f8e68458,0.0376,0.0376,0,17,17,149,1,seveneight,,,,,,,,,,,,,,,,,,,,,,,,,,,,,,,,,,,,,,,,,,,,,,,,,,,,,,,,,,,,,,,,,,,,,,,,,,,,,,,,,,,,,,,,,,,,,,,,,,,,,,,,,,,,,,,,,,,,,,,,,,,,,,,,,,,,,,,,,
,,60f5763eb0c6dde109026ff5,2026-03-17_07h12.44.075,kallum_motion_pilot_GIST_update_2,2026.1.1,Win32,39.68253968,60f5763eb0c6dde109026ff5,69b95efdef24cd8a694e89ee,69b960d340c63512f8e68458,0.0377,0.0377,0,18,18,27,1,twofour,,,,,,,,,,,,,,,,,,,,,,,,,,,,,,,,,,,,,,,,,,,,,,,,,,,,,,,,,,,,,,,,,,,,,,,,,,,,,,,,,,,,,,,,,,,,,,,,,,,,,,,,,,,,,,,,,,,,,,,,,,,,,,,,,,,,,,,,,
,,60f5763eb0c6dde109026ff5,2026-03-17_07h12.44.075,kallum_motion_pilot_GIST_update_2,2026.1.1,Win32,39.68253968,60f5763eb0c6dde109026ff5,69b95efdef24cd8a694e89ee,69b960d340c63512f8e68458,0.038,0.038,0,19,19,127,1,eightseven,,,,,,,,,,,,,,,,,,,,,,,,,,,,,,,,,,,,,,,,,,,,,,,,,,,,,,,,,,,,,,,,,,,,,,,,,,,,,,,,,,,,,,,,,,,,,,,,,,,,,,,,,,,,,,,,,,,,,,,,,,,,,,,,,,,,,,,,,
,,60f5763eb0c6dde109026ff5,2026-03-17_07h12.44.075,kallum_motion_pilot_GIST_update_2,2026.1.1,Win32,39.68253968,60f5763eb0c6dde109026ff5,69b95efdef24cd8a694e89ee,69b960d340c63512f8e68458,0.0381,0.0381,0,20,20,112,1,fivesix,,,,,,,,,,,,,,,,,,,,,,,,,,,,,,,,,,,,,,,,,,,,,,,,,,,,,,,,,,,,,,,,,,,,,,,,,,,,,,,,,,,,,,,,,,,,,,,,,,,,,,,,,,,,,,,,,,,,,,,,,,,,,,,,,,,,,,,,,
,,60f5763eb0c6dde109026ff5,2026-03-17_07h12.44.075,kallum_motion_pilot_GIST_update_2,2026.1.1,Win32,39.68253968,60f5763eb0c6dde109026ff5,69b95efdef24cd8a694e89ee,69b960d340c63512f8e68458,0.0383,0.0383,0,21,21,131,1,sixeight,,,,,,,,,,,,,,,,,,,,,,,,,,,,,,,,,,,,,,,,,,,,,,,,,,,,,,,,,,,,,,,,,,,,,,,,,,,,,,,,,,,,,,,,,,,,,,,,,,,,,,,,,,,,,,,,,,,,,,,,,,,,,,,,,,,,,,,,,
,,60f5763eb0c6dde109026ff5,2026-03-17_07h12.44.075,kallum_motion_pilot_GIST_update_2,2026.1.1,Win32,39.68253968,60f5763eb0c6dde109026ff5,69b95efdef24cd8a694e89ee,69b960d340c63512f8e68458,0.0384,0.0385,0,22,22,26,1,twoone,,,,,,,,,,,,,,,,,,,,,,,,,,,,,,,,,,,,,,,,,,,,,,,,,,,,,,,,,,,,,,,,,,,,,,,,,,,,,,,,,,,,,,,,,,,,,,,,,,,,,,,,,,,,,,,,,,,,,,,,,,,,,,,,,,,,,,,,,
,,60f5763eb0c6dde109026ff5,2026-03-17_07h12.44.075,kallum_motion_pilot_GIST_update_2,2026.1.1,Win32,39.68253968,60f5763eb0c6dde109026ff5,69b95efdef24cd8a694e89ee,69b960d340c63512f8e68458,0.0385,0.0385,0,23,23,125,1,seveneight,,,,,,,,,,,,,,,,,,,,,,,,,,,,,,,,,,,,,,,,,,,,,,,,,,,,,,,,,,,,,,,,,,,,,,,,,,,,,,,,,,,,,,,,,,,,,,,,,,,,,,,,,,,,,,,,,,,,,,,,,,,,,,,,,,,,,,,,,
,,60f5763eb0c6dde109026ff5,2026-03-17_07h12.44.075,kallum_motion_pilot_GIST_update_2,2026.1.1,Win32,39.68253968,60f5763eb0c6dde109026ff5,69b95efdef24cd8a694e89ee,69b960d340c63512f8e68458,0.0387,0.0387,0,24,24,35,1,twofour,,,,,,,,,,,,,,,,,,,,,,,,,,,,,,,,,,,,,,,,,,,,,,,,,,,,,,,,,,,,,,,,,,,,,,,,,,,,,,,,,,,,,,,,,,,,,,,,,,,,,,,,,,,,,,,,,,,,,,,,,,,,,,,,,,,,,,,,,
,,60f5763eb0c6dde109026ff5,2026-03-17_07h12.44.075,kallum_motion_pilot_GIST_update_2,2026.1.1,Win32,39.68253968,60f5763eb0c6dde109026ff5,69b95efdef24cd8a694e89ee,69b960d340c63512f8e68458,0.039,0.039,0,25,25,150,1,eightsix,,,,,,,,,,,,,,,,,,,,,,,,,,,,,,,,,,,,,,,,,,,,,,,,,,,,,,,,,,,,,,,,,,,,,,,,,,,,,,,,,,,,,,,,,,,,,,,,,,,,,,,,,,,,,,,,,,,,,,,,,,,,,,,,,,,,,,,,,
,,60f5763eb0c6dde109026ff5,2026-03-17_07h12.44.075,kallum_motion_pilot_GIST_update_2,2026.1.1,Win32,39.68253968,60f5763eb0c6dde109026ff5,69b95efdef24cd8a694e89ee,69b960d340c63512f8e68458,0.0392,0.0392,0,26,26,5,1,threefour,,,,,,,,,,,,,,,,,,,,,,,,,,,,,,,,,,,,,,,,,,,,,,,,,,,,,,,,,,,,,,,,,,,,,,,,,,,,,,,,,,,,,,,,,,,,,,,,,,,,,,,,,,,,,,,,,,,,,,,,,,,,,,,,,,,,,,,,,
,,60f5763eb0c6dde109026ff5,2026-03-17_07h12.44.075,kallum_motion_pilot_GIST_update_2,2026.1.1,Win32,39.68253968,60f5763eb0c6dde109026ff5,69b95efdef24cd8a694e89ee,69b960d340c63512f8e68458,0.0394,0.0394,0,27,27,100,1,sevenfive,,,,,,,,,,,,,,,,,,,,,,,,,,,,,,,,,,,,,,,,,,,,,,,,,,,,,,,,,,,,,,,,,,,,,,,,,,,,,,,,,,,,,,,,,,,,,,,,,,,,,,,,,,,,,,,,,,,,,,,,,,,,,,,,,,,,,,,,,
,,60f5763eb0c6dde109026ff5,2026-03-17_07h12.44.075,kallum_motion_pilot_GIST_update_2,2026.1.1,Win32,39.68253968,60f5763eb0c6dde109026ff5,69b95efdef24cd8a694e89ee,69b960d340c63512f8e68458,0.0395,0.0396,0,28,28,18,1,twoone,,,,,,,,,,,,,,,,,,,,,,,,,,,,,,,,,,,,,,,,,,,,,,,,,,,,,,,,,,,,,,,,,,,,,,,,,,,,,,,,,,,,,,,,,,,,,,,,,,,,,,,,,,,,,,,,,,,,,,,,,,,,,,,,,,,,,,,,,
,,60f5763eb0c6dde109026ff5,2026-03-17_07h12.44.075,kallum_motion_pilot_GIST_update_2,2026.1.1,Win32,39.68253968,60f5763eb0c6dde109026ff5,69b95efdef24cd8a694e89ee,69b960d340c63512f8e68458,0.0398,0.0399,0,29,29,31,1,fourthree,,,,,,,,,,,,,,,,,,,,,,,,,,,,,,,,,,,,,,,,,,,,,,,,,,,,,,,,,,,,,,,,,,,,,,,,,,,,,,,,,,,,,,,,,,,,,,,,,,,,,,,,,,,,,,,,,,,,,,,,,,,,,,,,,,,,,,,,,
,,60f5763eb0c6dde109026ff5,2026-03-17_07h12.44.075,kallum_motion_pilot_GIST_update_2,2026.1.1,Win32,39.68253968,60f5763eb0c6dde109026ff5,69b95efdef24cd8a694e89ee,69b960d340c63512f8e68458,0.0402,0.0402,0,30,30,83,1,sixeight,,,,,,,,,,,,,,,,,,,,,,,,,,,,,,,,,,,,,,,,,,,,,,,,,,,,,,,,,,,,,,,,,,,,,,,,,,,,,,,,,,,,,,,,,,,,,,,,,,,,,,,,,,,,,,,,,,,,,,,,,,,,,,,,,,,,,,,,,
,,60f5763eb0c6dde109026ff5,2026-03-17_07h12.44.075,kallum_motion_pilot_GIST_update_2,2026.1.1,Win32,39.68253968,60f5763eb0c6dde109026ff5,69b95efdef24cd8a694e89ee,69b960d340c63512f8e68458,0.0404,0.0404,0,31,31,24,1,onetwo,,,,,,,,,,,,,,,,,,,,,,,,,,,,,,,,,,,,,,,,,,,,,,,,,,,,,,,,,,,,,,,,,,,,,,,,,,,,,,,,,,,,,,,,,,,,,,,,,,,,,,,,,,,,,,,,,,,,,,,,,,,,,,,,,,,,,,,,,
,,60f5763eb0c6dde109026ff5,2026-03-17_07h12.44.075,kallum_motion_pilot_GIST_update_2,2026.1.1,Win32,39.68253968,60f5763eb0c6dde109026ff5,69b95efdef24cd8a694e89ee,69b960d340c63512f8e68458,0.0406,0.0406,0,32,32,32,1,onetwo,,,,,,,,,,,,,,,,,,,,,,,,,,,,,,,,,,,,,,,,,,,,,,,,,,,,,,,,,,,,,,,,,,,,,,,,,,,,,,,,,,,,,,,,,,,,,,,,,,,,,,,,,,,,,,,,,,,,,,,,,,,,,,,,,,,,,,,,,
,,60f5763eb0c6dde109026ff5,2026-03-17_07h12.44.075,kallum_motion_pilot_GIST_update_2,2026.1.1,Win32,39.68253968,60f5763eb0c6dde109026ff5,69b95efdef24cd8a694e89ee,69b960d340c63512f8e68458,0.0407,0.0408,0,33,33,62,1,fourtwo,,,,,,,,,,,,,,,,,,,,,,,,,,,,,,,,,,,,,,,,,,,,,,,,,,,,,,,,,,,,,,,,,,,,,,,,,,,,,,,,,,,,,,,,,,,,,,,,,,,,,,,,,,,,,,,,,,,,,,,,,,,,,,,,,,,,,,,,,
,,60f5763eb0c6dde109026ff5,2026-03-17_07h12.44.075,kallum_motion_pilot_GIST_update_2,2026.1.1,Win32,39.68253968,60f5763eb0c6dde109026ff5,69b95efdef24cd8a694e89ee,69b960d340c63512f8e68458,0.0409,0.041,0,34,34,143,1,eightseven,,,,,,,,,,,,,,,,,,,,,,,,,,,,,,,,,,,,,,,,,,,,,,,,,,,,,,,,,,,,,,,,,,,,,,,,,,,,,,,,,,,,,,,,,,,,,,,,,,,,,,,,,,,,,,,,,,,,,,,,,,,,,,,,,,,,,,,,,
,,60f5763eb0c6dde109026ff5,2026-03-17_07h12.44.075,kallum_motion_pilot_GIST_update_2,2026.1.1,Win32,39.68253968,60f5763eb0c6dde109026ff5,69b95efdef24cd8a694e89ee,69b960d340c63512f8e68458,0.0411,0.0411,0,35,35,43,1,twofour,,,,,,,,,,,,,,,,,,,,,,,,,,,,,,,,,,,,,,,,,,,,,,,,,,,,,,,,,,,,,,,,,,,,,,,,,,,,,,,,,,,,,,,,,,,,,,,,,,,,,,,,,,,,,,,,,,,,,,,,,,,,,,,,,,,,,,,,,
,,60f5763eb0c6dde109026ff5,2026-03-17_07h12.44.075,kallum_motion_pilot_GIST_update_2,2026.1.1,Win32,39.68253968,60f5763eb0c6dde109026ff5,69b95efdef24cd8a694e89ee,69b960d340c63512f8e68458,0.0412,0.0412,0,36,36,155,1,sixeight,,,,,,,,,,,,,,,,,,,,,,,,,,,,,,,,,,,,,,,,,,,,,,,,,,,,,,,,,,,,,,,,,,,,,,,,,,,,,,,,,,,,,,,,,,,,,,,,,,,,,,,,,,,,,,,,,,,,,,,,,,,,,,,,,,,,,,,,,
,,60f5763eb0c6dde109026ff5,2026-03-17_07h12.44.075,kallum_motion_pilot_GIST_update_2,2026.1.1,Win32,39.68253968,60f5763eb0c6dde109026ff5,69b95efdef24cd8a694e89ee,69b960d340c63512f8e68458,0.0414,0.0414,0,37,37,65,1,onethree,,,,,,,,,,,,,,,,,,,,,,,,,,,,,,,,,,,,,,,,,,,,,,,,,,,,,,,,,,,,,,,,,,,,,,,,,,,,,,,,,,,,,,,,,,,,,,,,,,,,,,,,,,,,,,,,,,,,,,,,,,,,,,,,,,,,,,,,,
,,60f5763eb0c6dde109026ff5,2026-03-17_07h12.44.075,kallum_motion_pilot_GIST_update_2,2026.1.1,Win32,39.68253968,60f5763eb0c6dde109026ff5,69b95efdef24cd8a694e89ee,69b960d340c63512f8e68458,0.0416,0.0416,0,38,38,55,1,fourthree,,,,,,,,,,,,,,,,,,,,,,,,,,,,,,,,,,,,,,,,,,,,,,,,,,,,,,,,,,,,,,,,,,,,,,,,,,,,,,,,,,,,,,,,,,,,,,,,,,,,,,,,,,,,,,,,,,,,,,,,,,,,,,,,,,,,,,,,,
,,60f5763eb0c6dde109026ff5,2026-03-17_07h12.44.075,kallum_motion_pilot_GIST_update_2,2026.1.1,Win32,39.68253968,60f5763eb0c6dde109026ff5,69b95efdef24cd8a694e89ee,69b960d340c63512f8e68458,0.0417,0.0417,0,39,39,37,1,threefour,,,,,,,,,,,,,,,,,,,,,,,,,,,,,,,,,,,,,,,,,,,,,,,,,,,,,,,,,,,,,,,,,,,,,,,,,,,,,,,,,,,,,,,,,,,,,,,,,,,,,,,,,,,,,,,,,,,,,,,,,,,,,,,,,,,,,,,,,
,,60f5763eb0c6dde109026ff5,2026-03-17_07h12.44.075,kallum_motion_pilot_GIST_update_2,2026.1.1,Win32,39.68253968,60f5763eb0c6dde109026ff5,69b95efdef24cd8a694e89ee,69b960d340c63512f8e68458,0.0419,0.042,0,40,40,136,1,fivesix,,,,,,,,,,,,,,,,,,,,,,,,,,,,,,,,,,,,,,,,,,,,,,,,,,,,,,,,,,,,,,,,,,,,,,,,,,,,,,,,,,,,,,,,,,,,,,,,,,,,,,,,,,,,,,,,,,,,,,,,,,,,,,,,,,,,,,,,,
,,60f5763eb0c6dde109026ff5,2026-03-17_07h12.44.075,kallum_motion_pilot_GIST_update_2,2026.1.1,Win32,39.68253968,60f5763eb0c6dde109026ff5,69b95efdef24cd8a694e89ee,69b960d340c63512f8e68458,0.0421,0.0421,0,41,41,161,1,fiveseven,,,,,,,,,,,,,,,,,,,,,,,,,,,,,,,,,,,,,,,,,,,,,,,,,,,,,,,,,,,,,,,,,,,,,,,,,,,,,,,,,,,,,,,,,,,,,,,,,,,,,,,,,,,,,,,,,,,,,,,,,,,,,,,,,,,,,,,,,
,,60f5763eb0c6dde109026ff5,2026-03-17_07h12.44.075,kallum_motion_pilot_GIST_update_2,2026.1.1,Win32,39.68253968,60f5763eb0c6dde109026ff5,69b95efdef24cd8a694e89ee,69b960d340c63512f8e68458,0.0422,0.0423,0,42,42,142,1,eightsix,,,,,,,,,,,,,,,,,,,,,,,,,,,,,,,,,,,,,,,,,,,,,,,,,,,,,,,,,,,,,,,,,,,,,,,,,,,,,,,,,,,,,,,,,,,,,,,,,,,,,,,,,,,,,,,,,,,,,,,,,,,,,,,,,,,,,,,,,
,,60f5763eb0c6dde109026ff5,2026-03-17_07h12.44.075,kallum_motion_pilot_GIST_update_2,2026.1.1,Win32,39.68253968,60f5763eb0c6dde109026ff5,69b95efdef24cd8a694e89ee,69b960d340c63512f8e68458,0.0424,0.0424,0,43,43,90,1,sixfive,,,,,,,,,,,,,,,,,,,,,,,,,,,,,,,,,,,,,,,,,,,,,,,,,,,,,,,,,,,,,,,,,,,,,,,,,,,,,,,,,,,,,,,,,,,,,,,,,,,,,,,,,,,,,,,,,,,,,,,,,,,,,,,,,,,,,,,,,
,,60f5763eb0c6dde109026ff5,2026-03-17_07h12.44.075,kallum_motion_pilot_GIST_update_2,2026.1.1,Win32,39.68253968,60f5763eb0c6dde109026ff5,69b95efdef24cd8a694e89ee,69b960d340c63512f8e68458,0.0426,0.0426,0,44,44,13,1,threefour,,,,,,,,,,,,,,,,,,,,,,,,,,,,,,,,,,,,,,,,,,,,,,,,,,,,,,,,,,,,,,,,,,,,,,,,,,,,,,,,,,,,,,,,,,,,,,,,,,,,,,,,,,,,,,,,,,,,,,,,,,,,,,,,,,,,,,,,,
,,60f5763eb0c6dde109026ff5,2026-03-17_07h12.44.075,kallum_motion_pilot_GIST_update_2,2026.1.1,Win32,39.68253968,60f5763eb0c6dde109026ff5,69b95efdef24cd8a694e89ee,69b960d340c63512f8e68458,0.0427,0.0428,0,45,45,29,1,threefour,,,,,,,,,,,,,,,,,,,,,,,,,,,,,,,,,,,,,,,,,,,,,,,,,,,,,,,,,,,,,,,,,,,,,,,,,,,,,,,,,,,,,,,,,,,,,,,,,,,,,,,,,,,,,,,,,,,,,,,,,,,,,,,,,,,,,,,,,
,,60f5763eb0c6dde109026ff5,2026-03-17_07h12.44.075,kallum_motion_pilot_GIST_update_2,2026.1.1,Win32,39.68253968,60f5763eb0c6dde109026ff5,69b95efdef24cd8a694e89ee,69b960d340c63512f8e68458,0.0429,0.0429,0,46,46,139,1,sixeight,,,,,,,,,,,,,,,,,,,,,,,,,,,,,,,,,,,,,,,,,,,,,,,,,,,,,,,,,,,,,,,,,,,,,,,,,,,,,,,,,,,,,,,,,,,,,,,,,,,,,,,,,,,,,,,,,,,,,,,,,,,,,,,,,,,,,,,,,
,,60f5763eb0c6dde109026ff5,2026-03-17_07h12.44.075,kallum_motion_pilot_GIST_update_2,2026.1.1,Win32,39.68253968,60f5763eb0c6dde109026ff5,69b95efdef24cd8a694e89ee,69b960d340c63512f8e68458,0.0431,0.0431,0,47,47,119,1,eightseven,,,,,,,,,,,,,,,,,,,,,,,,,,,,,,,,,,,,,,,,,,,,,,,,,,,,,,,,,,,,,,,,,,,,,,,,,,,,,,,,,,,,,,,,,,,,,,,,,,,,,,,,,,,,,,,,,,,,,,,,,,,,,,,,,,,,,,,,,
,,60f5763eb0c6dde109026ff5,2026-03-17_07h12.44.075,kallum_motion_pilot_GIST_update_2,2026.1.1,Win32,39.68253968,60f5763eb0c6dde109026ff5,69b95efdef24cd8a694e89ee,69b960d340c63512f8e68458,0.0437,0.0437,0,48,48,85,1,seveneight,,,,,,,,,,,,,,,,,,,,,,,,,,,,,,,,,,,,,,,,,,,,,,,,,,,,,,,,,,,,,,,,,,,,,,,,,,,,,,,,,,,,,,,,,,,,,,,,,,,,,,,,,,,,,,,,,,,,,,,,,,,,,,,,,,,,,,,,,
,,60f5763eb0c6dde109026ff5,2026-03-17_07h12.44.075,kallum_motion_pilot_GIST_update_2,2026.1.1,Win32,39.68253968,60f5763eb0c6dde109026ff5,69b95efdef24cd8a694e89ee,69b960d340c63512f8e68458,0.044,0.044,0,49,49,0,1,onetwo,,,,,,,,,,,,,,,,,,,,,,,,,,,,,,,,,,,,,,,,,,,,,,,,,,,,,,,,,,,,,,,,,,,,,,,,,,,,,,,,,,,,,,,,,,,,,,,,,,,,,,,,,,,,,,,,,,,,,,,,,,,,,,,,,,,,,,,,,
,,60f5763eb0c6dde109026ff5,2026-03-17_07h12.44.075,kallum_motion_pilot_GIST_update_2,2026.1.1,Win32,39.68253968,60f5763eb0c6dde109026ff5,69b95efdef24cd8a694e89ee,69b960d340c63512f8e68458,0.0443,0.0443,0,50,50,73,1,onethree,,,,,,,,,,,,,,,,,,,,,,,,,,,,,,,,,,,,,,,,,,,,,,,,,,,,,,,,,,,,,,,,,,,,,,,,,,,,,,,,,,,,,,,,,,,,,,,,,,,,,,,,,,,,,,,,,,,,,,,,,,,,,,,,,,,,,,,,,
,,60f5763eb0c6dde109026ff5,2026-03-17_07h12.44.075,kallum_motion_pilot_GIST_update_2,2026.1.1,Win32,39.68253968,60f5763eb0c6dde109026ff5,69b95efdef24cd8a694e89ee,69b960d340c63512f8e68458,0.0445,0.0445,0,51,51,8,1,onetwo,,,,,,,,,,,,,,,,,,,,,,,,,,,,,,,,,,,,,,,,,,,,,,,,,,,,,,,,,,,,,,,,,,,,,,,,,,,,,,,,,,,,,,,,,,,,,,,,,,,,,,,,,,,,,,,,,,,,,,,,,,,,,,,,,,,,,,,,,
,,60f5763eb0c6dde109026ff5,2026-03-17_07h12.44.075,kallum_motion_pilot_GIST_update_2,2026.1.1,Win32,39.68253968,60f5763eb0c6dde109026ff5,69b95efdef24cd8a694e89ee,69b960d340c63512f8e68458,0.0448,0.0448,0,52,52,74,1,twoone,,,,,,,,,,,,,,,,,,,,,,,,,,,,,,,,,,,,,,,,,,,,,,,,,,,,,,,,,,,,,,,,,,,,,,,,,,,,,,,,,,,,,,,,,,,,,,,,,,,,,,,,,,,,,,,,,,,,,,,,,,,,,,,,,,,,,,,,,
,,60f5763eb0c6dde109026ff5,2026-03-17_07h12.44.075,kallum_motion_pilot_GIST_update_2,2026.1.1,Win32,39.68253968,60f5763eb0c6dde109026ff5,69b95efdef24cd8a694e89ee,69b960d340c63512f8e68458,0.0451,0.0451,0,53,53,47,1,fourthree,,,,,,,,,,,,,,,,,,,,,,,,,,,,,,,,,,,,,,,,,,,,,,,,,,,,,,,,,,,,,,,,,,,,,,,,,,,,,,,,,,,,,,,,,,,,,,,,,,,,,,,,,,,,,,,,,,,,,,,,,,,,,,,,,,,,,,,,,
,,60f5763eb0c6dde109026ff5,2026-03-17_07h12.44.075,kallum_motion_pilot_GIST_update_2,2026.1.1,Win32,39.68253968,60f5763eb0c6dde109026ff5,69b95efdef24cd8a694e89ee,69b960d340c63512f8e68458,0.0453,0.0454,0,54,54,116,1,sevenfive,,,,,,,,,,,,,,,,,,,,,,,,,,,,,,,,,,,,,,,,,,,,,,,,,,,,,,,,,,,,,,,,,,,,,,,,,,,,,,,,,,,,,,,,,,,,,,,,,,,,,,,,,,,,,,,,,,,,,,,,,,,,,,,,,,,,,,,,,
,,60f5763eb0c6dde109026ff5,2026-03-17_07h12.44.075,kallum_motion_pilot_GIST_update_2,2026.1.1,Win32,39.68253968,60f5763eb0c6dde109026ff5,69b95efdef24cd8a694e89ee,69b960d340c63512f8e68458,0.0456,0.0456,0,55,55,52,1,threeone,,,,,,,,,,,,,,,,,,,,,,,,,,,,,,,,,,,,,,,,,,,,,,,,,,,,,,,,,,,,,,,,,,,,,,,,,,,,,,,,,,,,,,,,,,,,,,,,,,,,,,,,,,,,,,,,,,,,,,,,,,,,,,,,,,,,,,,,,
,,60f5763eb0c6dde109026ff5,2026-03-17_07h12.44.075,kallum_motion_pilot_GIST_update_2,2026.1.1,Win32,39.68253968,60f5763eb0c6dde109026ff5,69b95efdef24cd8a694e89ee,69b960d340c63512f8e68458,0.0459,0.0459,0,56,56,20,1,threeone,,,,,,,,,,,,,,,,,,,,,,,,,,,,,,,,,,,,,,,,,,,,,,,,,,,,,,,,,,,,,,,,,,,,,,,,,,,,,,,,,,,,,,,,,,,,,,,,,,,,,,,,,,,,,,,,,,,,,,,,,,,,,,,,,,,,,,,,,
,,60f5763eb0c6dde109026ff5,2026-03-17_07h12.44.075,kallum_motion_pilot_GIST_update_2,2026.1.1,Win32,39.68253968,60f5763eb0c6dde109026ff5,69b95efdef24cd8a694e89ee,69b960d340c63512f8e68458,0.0461,0.0461,0,57,57,23,1,fourthree,,,,,,,,,,,,,,,,,,,,,,,,,,,,,,,,,,,,,,,,,,,,,,,,,,,,,,,,,,,,,,,,,,,,,,,,,,,,,,,,,,,,,,,,,,,,,,,,,,,,,,,,,,,,,,,,,,,,,,,,,,,,,,,,,,,,,,,,,
,,60f5763eb0c6dde109026ff5,2026-03-17_07h12.44.075,kallum_motion_pilot_GIST_update_2,2026.1.1,Win32,39.68253968,60f5763eb0c6dde109026ff5,69b95efdef24cd8a694e89ee,69b960d340c63512f8e68458,0.0464,0.0464,0,58,58,154,1,sixfive,,,,,,,,,,,,,,,,,,,,,,,,,,,,,,,,,,,,,,,,,,,,,,,,,,,,,,,,,,,,,,,,,,,,,,,,,,,,,,,,,,,,,,,,,,,,,,,,,,,,,,,,,,,,,,,,,,,,,,,,,,,,,,,,,,,,,,,,,
,,60f5763eb0c6dde109026ff5,2026-03-17_07h12.44.075,kallum_motion_pilot_GIST_update_2,2026.1.1,Win32,39.68253968,60f5763eb0c6dde109026ff5,69b95efdef24cd8a694e89ee,69b960d340c63512f8e68458,0.0466,0.0467,0,59,59,132,1,sevenfive,,,,,,,,,,,,,,,,,,,,,,,,,,,,,,,,,,,,,,,,,,,,,,,,,,,,,,,,,,,,,,,,,,,,,,,,,,,,,,,,,,,,,,,,,,,,,,,,,,,,,,,,,,,,,,,,,,,,,,,,,,,,,,,,,,,,,,,,,
,,60f5763eb0c6dde109026ff5,2026-03-17_07h12.44.075,kallum_motion_pilot_GIST_update_2,2026.1.1,Win32,39.68253968,60f5763eb0c6dde109026ff5,69b95efdef24cd8a694e89ee,69b960d340c63512f8e68458,0.0469,0.0469,0,60,60,81,1,fiveseven,,,,,,,,,,,,,,,,,,,,,,,,,,,,,,,,,,,,,,,,,,,,,,,,,,,,,,,,,,,,,,,,,,,,,,,,,,,,,,,,,,,,,,,,,,,,,,,,,,,,,,,,,,,,,,,,,,,,,,,,,,,,,,,,,,,,,,,,,
,,60f5763eb0c6dde109026ff5,2026-03-17_07h12.44.075,kallum_motion_pilot_GIST_update_2,2026.1.1,Win32,39.68253968,60f5763eb0c6dde109026ff5,69b95efdef24cd8a694e89ee,69b960d340c63512f8e68458,0.0472,0.0472,0,61,61,57,1,onethree,,,,,,,,,,,,,,,,,,,,,,,,,,,,,,,,,,,,,,,,,,,,,,,,,,,,,,,,,,,,,,,,,,,,,,,,,,,,,,,,,,,,,,,,,,,,,,,,,,,,,,,,,,,,,,,,,,,,,,,,,,,,,,,,,,,,,,,,,
,,60f5763eb0c6dde109026ff5,2026-03-17_07h12.44.075,kallum_motion_pilot_GIST_update_2,2026.1.1,Win32,39.68253968,60f5763eb0c6dde109026ff5,69b95efdef24cd8a694e89ee,69b960d340c63512f8e68458,0.0475,0.0475,0,62,62,91,1,sixeight,,,,,,,,,,,,,,,,,,,,,,,,,,,,,,,,,,,,,,,,,,,,,,,,,,,,,,,,,,,,,,,,,,,,,,,,,,,,,,,,,,,,,,,,,,,,,,,,,,,,,,,,,,,,,,,,,,,,,,,,,,,,,,,,,,,,,,,,,
,,60f5763eb0c6dde109026ff5,2026-03-17_07h12.44.075,kallum_motion_pilot_GIST_update_2,2026.1.1,Win32,39.68253968,60f5763eb0c6dde109026ff5,69b95efdef24cd8a694e89ee,69b960d340c63512f8e68458,0.0477,0.0478,0,63,63,2,1,twoone,,,,,,,,,,,,,,,,,,,,,,,,,,,,,,,,,,,,,,,,,,,,,,,,,,,,,,,,,,,,,,,,,,,,,,,,,,,,,,,,,,,,,,,,,,,,,,,,,,,,,,,,,,,,,,,,,,,,,,,,,,,,,,,,,,,,,,,,,
,,60f5763eb0c6dde109026ff5,2026-03-17_07h12.44.075,kallum_motion_pilot_GIST_update_2,2026.1.1,Win32,39.68253968,60f5763eb0c6dde109026ff5,69b95efdef24cd8a694e89ee,69b960d340c63512f8e68458,0.0481,0.0481,0,64,64,75,1,twofour,,,,,,,,,,,,,,,,,,,,,,,,,,,,,,,,,,,,,,,,,,,,,,,,,,,,,,,,,,,,,,,,,,,,,,,,,,,,,,,,,,,,,,,,,,,,,,,,,,,,,,,,,,,,,,,,,,,,,,,,,,,,,,,,,,,,,,,,,
,,60f5763eb0c6dde109026ff5,2026-03-17_07h12.44.075,kallum_motion_pilot_GIST_update_2,2026.1.1,Win32,39.68253968,60f5763eb0c6dde109026ff5,69b95efdef24cd8a694e89ee,69b960d340c63512f8e68458,0.0484,0.0484,0,65,65,152,1,fivesix,,,,,,,,,,,,,,,,,,,,,,,,,,,,,,,,,,,,,,,,,,,,,,,,,,,,,,,,,,,,,,,,,,,,,,,,,,,,,,,,,,,,,,,,,,,,,,,,,,,,,,,,,,,,,,,,,,,,,,,,,,,,,,,,,,,,,,,,,
,,60f5763eb0c6dde109026ff5,2026-03-17_07h12.44.075,kallum_motion_pilot_GIST_update_2,2026.1.1,Win32,39.68253968,60f5763eb0c6dde109026ff5,69b95efdef24cd8a694e89ee,69b960d340c63512f8e68458,0.0489,0.0489,0,66,66,46,1,fourtwo,,,,,,,,,,,,,,,,,,,,,,,,,,,,,,,,,,,,,,,,,,,,,,,,,,,,,,,,,,,,,,,,,,,,,,,,,,,,,,,,,,,,,,,,,,,,,,,,,,,,,,,,,,,,,,,,,,,,,,,,,,,,,,,,,,,,,,,,,
,,60f5763eb0c6dde109026ff5,2026-03-17_07h12.44.075,kallum_motion_pilot_GIST_update_2,2026.1.1,Win32,39.68253968,60f5763eb0c6dde109026ff5,69b95efdef24cd8a694e89ee,69b960d340c63512f8e68458,0.0492,0.0492,0,67,67,76,1,threeone,,,,,,,,,,,,,,,,,,,,,,,,,,,,,,,,,,,,,,,,,,,,,,,,,,,,,,,,,,,,,,,,,,,,,,,,,,,,,,,,,,,,,,,,,,,,,,,,,,,,,,,,,,,,,,,,,,,,,,,,,,,,,,,,,,,,,,,,,
,,60f5763eb0c6dde109026ff5,2026-03-17_07h12.44.075,kallum_motion_pilot_GIST_update_2,2026.1.1,Win32,39.68253968,60f5763eb0c6dde109026ff5,69b95efdef24cd8a694e89ee,69b960d340c63512f8e68458,0.0495,0.0495,0,68,68,108,1,sevenfive,,,,,,,,,,,,,,,,,,,,,,,,,,,,,,,,,,,,,,,,,,,,,,,,,,,,,,,,,,,,,,,,,,,,,,,,,,,,,,,,,,,,,,,,,,,,,,,,,,,,,,,,,,,,,,,,,,,,,,,,,,,,,,,,,,,,,,,,,
,,60f5763eb0c6dde109026ff5,2026-03-17_07h12.44.075,kallum_motion_pilot_GIST_update_2,2026.1.1,Win32,39.68253968,60f5763eb0c6dde109026ff5,69b95efdef24cd8a694e89ee,69b960d340c63512f8e68458,0.0498,0.0498,0,69,69,17,1,onethree,,,,,,,,,,,,,,,,,,,,,,,,,,,,,,,,,,,,,,,,,,,,,,,,,,,,,,,,,,,,,,,,,,,,,,,,,,,,,,,,,,,,,,,,,,,,,,,,,,,,,,,,,,,,,,,,,,,,,,,,,,,,,,,,,,,,,,,,,
,,60f5763eb0c6dde109026ff5,2026-03-17_07h12.44.075,kallum_motion_pilot_GIST_update_2,2026.1.1,Win32,39.68253968,60f5763eb0c6dde109026ff5,69b95efdef24cd8a694e89ee,69b960d340c63512f8e68458,0.0502,0.0502,0,70,70,137,1,fiveseven,,,,,,,,,,,,,,,,,,,,,,,,,,,,,,,,,,,,,,,,,,,,,,,,,,,,,,,,,,,,,,,,,,,,,,,,,,,,,,,,,,,,,,,,,,,,,,,,,,,,,,,,,,,,,,,,,,,,,,,,,,,,,,,,,,,,,,,,,
,,60f5763eb0c6dde109026ff5,2026-03-17_07h12.44.075,kallum_motion_pilot_GIST_update_2,2026.1.1,Win32,39.68253968,60f5763eb0c6dde109026ff5,69b95efdef24cd8a694e89ee,69b960d340c63512f8e68458,0.0505,0.0505,0,71,71,69,1,threefour,,,,,,,,,,,,,,,,,,,,,,,,,,,,,,,,,,,,,,,,,,,,,,,,,,,,,,,,,,,,,,,,,,,,,,,,,,,,,,,,,,,,,,,,,,,,,,,,,,,,,,,,,,,,,,,,,,,,,,,,,,,,,,,,,,,,,,,,,
,,60f5763eb0c6dde109026ff5,2026-03-17_07h12.44.075,kallum_motion_pilot_GIST_update_2,2026.1.1,Win32,39.68253968,60f5763eb0c6dde109026ff5,69b95efdef24cd8a694e89ee,69b960d340c63512f8e68458,0.0508,0.0508,0,72,72,107,1,sixeight,,,,,,,,,,,,,,,,,,,,,,,,,,,,,,,,,,,,,,,,,,,,,,,,,,,,,,,,,,,,,,,,,,,,,,,,,,,,,,,,,,,,,,,,,,,,,,,,,,,,,,,,,,,,,,,,,,,,,,,,,,,,,,,,,,,,,,,,,
,,60f5763eb0c6dde109026ff5,2026-03-17_07h12.44.075,kallum_motion_pilot_GIST_update_2,2026.1.1,Win32,39.68253968,60f5763eb0c6dde109026ff5,69b95efdef24cd8a694e89ee,69b960d340c63512f8e68458,0.051,0.0511,0,73,73,92,1,sevenfive,,,,,,,,,,,,,,,,,,,,,,,,,,,,,,,,,,,,,,,,,,,,,,,,,,,,,,,,,,,,,,,,,,,,,,,,,,,,,,,,,,,,,,,,,,,,,,,,,,,,,,,,,,,,,,,,,,,,,,,,,,,,,,,,,,,,,,,,,
,,60f5763eb0c6dde109026ff5,2026-03-17_07h12.44.075,kallum_motion_pilot_GIST_update_2,2026.1.1,Win32,39.68253968,60f5763eb0c6dde109026ff5,69b95efdef24cd8a694e89ee,69b960d340c63512f8e68458,0.0513,0.0513,0,74,74,135,1,eightseven,,,,,,,,,,,,,,,,,,,,,,,,,,,,,,,,,,,,,,,,,,,,,,,,,,,,,,,,,,,,,,,,,,,,,,,,,,,,,,,,,,,,,,,,,,,,,,,,,,,,,,,,,,,,,,,,,,,,,,,,,,,,,,,,,,,,,,,,,
,,60f5763eb0c6dde109026ff5,2026-03-17_07h12.44.075,kallum_motion_pilot_GIST_update_2,2026.1.1,Win32,39.68253968,60f5763eb0c6dde109026ff5,69b95efdef24cd8a694e89ee,69b960d340c63512f8e68458,0.0515,0.0516,0,75,75,44,1,threeone,,,,,,,,,,,,,,,,,,,,,,,,,,,,,,,,,,,,,,,,,,,,,,,,,,,,,,,,,,,,,,,,,,,,,,,,,,,,,,,,,,,,,,,,,,,,,,,,,,,,,,,,,,,,,,,,,,,,,,,,,,,,,,,,,,,,,,,,,
,,60f5763eb0c6dde109026ff5,2026-03-17_07h12.44.075,kallum_motion_pilot_GIST_update_2,2026.1.1,Win32,39.68253968,60f5763eb0c6dde109026ff5,69b95efdef24cd8a694e89ee,69b960d340c63512f8e68458,0.0519,0.0519,0,76,76,48,1,onetwo,,,,,,,,,,,,,,,,,,,,,,,,,,,,,,,,,,,,,,,,,,,,,,,,,,,,,,,,,,,,,,,,,,,,,,,,,,,,,,,,,,,,,,,,,,,,,,,,,,,,,,,,,,,,,,,,,,,,,,,,,,,,,,,,,,,,,,,,,
,,60f5763eb0c6dde109026ff5,2026-03-17_07h12.44.075,kallum_motion_pilot_GIST_update_2,2026.1.1,Win32,39.68253968,60f5763eb0c6dde109026ff5,69b95efdef24cd8a694e89ee,69b960d340c63512f8e68458,0.0521,0.0521,0,77,77,109,1,seveneight,,,,,,,,,,,,,,,,,,,,,,,,,,,,,,,,,,,,,,,,,,,,,,,,,,,,,,,,,,,,,,,,,,,,,,,,,,,,,,,,,,,,,,,,,,,,,,,,,,,,,,,,,,,,,,,,,,,,,,,,,,,,,,,,,,,,,,,,,
,,60f5763eb0c6dde109026ff5,2026-03-17_07h12.44.075,kallum_motion_pilot_GIST_update_2,2026.1.1,Win32,39.68253968,60f5763eb0c6dde109026ff5,69b95efdef24cd8a694e89ee,69b960d340c63512f8e68458,0.0524,0.0525,0,78,78,66,1,twoone,,,,,,,,,,,,,,,,,,,,,,,,,,,,,,,,,,,,,,,,,,,,,,,,,,,,,,,,,,,,,,,,,,,,,,,,,,,,,,,,,,,,,,,,,,,,,,,,,,,,,,,,,,,,,,,,,,,,,,,,,,,,,,,,,,,,,,,,,
,,60f5763eb0c6dde109026ff5,2026-03-17_07h12.44.075,kallum_motion_pilot_GIST_update_2,2026.1.1,Win32,39.68253968,60f5763eb0c6dde109026ff5,69b95efdef24cd8a694e89ee,69b960d340c63512f8e68458,0.0527,0.0527,0,79,79,10,1,twoone,,,,,,,,,,,,,,,,,,,,,,,,,,,,,,,,,,,,,,,,,,,,,,,,,,,,,,,,,,,,,,,,,,,,,,,,,,,,,,,,,,,,,,,,,,,,,,,,,,,,,,,,,,,,,,,,,,,,,,,,,,,,,,,,,,,,,,,,,
,,60f5763eb0c6dde109026ff5,2026-03-17_07h12.44.075,kallum_motion_pilot_GIST_update_2,2026.1.1,Win32,39.68253968,60f5763eb0c6dde109026ff5,69b95efdef24cd8a694e89ee,69b960d340c63512f8e68458,0.0529,0.0529,0,80,80,61,1,threefour,,,,,,,,,,,,,,,,,,,,,,,,,,,,,,,,,,,,,,,,,,,,,,,,,,,,,,,,,,,,,,,,,,,,,,,,,,,,,,,,,,,,,,,,,,,,,,,,,,,,,,,,,,,,,,,,,,,,,,,,,,,,,,,,,,,,,,,,,
,,60f5763eb0c6dde109026ff5,2026-03-17_07h12.44.075,kallum_motion_pilot_GIST_update_2,2026.1.1,Win32,39.68253968,60f5763eb0c6dde109026ff5,69b95efdef24cd8a694e89ee,69b960d340c63512f8e68458,0.0531,0.0531,0,81,81,121,1,fiveseven,,,,,,,,,,,,,,,,,,,,,,,,,,,,,,,,,,,,,,,,,,,,,,,,,,,,,,,,,,,,,,,,,,,,,,,,,,,,,,,,,,,,,,,,,,,,,,,,,,,,,,,,,,,,,,,,,,,,,,,,,,,,,,,,,,,,,,,,,
,,60f5763eb0c6dde109026ff5,2026-03-17_07h12.44.075,kallum_motion_pilot_GIST_update_2,2026.1.1,Win32,39.68253968,60f5763eb0c6dde109026ff5,69b95efdef24cd8a694e89ee,69b960d340c63512f8e68458,0.0534,0.0534,0,82,82,94,1,eightsix,,,,,,,,,,,,,,,,,,,,,,,,,,,,,,,,,,,,,,,,,,,,,,,,,,,,,,,,,,,,,,,,,,,,,,,,,,,,,,,,,,,,,,,,,,,,,,,,,,,,,,,,,,,,,,,,,,,,,,,,,,,,,,,,,,,,,,,,,
,,60f5763eb0c6dde109026ff5,2026-03-17_07h12.44.075,kallum_motion_pilot_GIST_update_2,2026.1.1,Win32,39.68253968,60f5763eb0c6dde109026ff5,69b95efdef24cd8a694e89ee,69b960d340c63512f8e68458,0.0536,0.0536,0,83,83,16,1,onetwo,,,,,,,,,,,,,,,,,,,,,,,,,,,,,,,,,,,,,,,,,,,,,,,,,,,,,,,,,,,,,,,,,,,,,,,,,,,,,,,,,,,,,,,,,,,,,,,,,,,,,,,,,,,,,,,,,,,,,,,,,,,,,,,,,,,,,,,,,
,,60f5763eb0c6dde109026ff5,2026-03-17_07h12.44.075,kallum_motion_pilot_GIST_update_2,2026.1.1,Win32,39.68253968,60f5763eb0c6dde109026ff5,69b95efdef24cd8a694e89ee,69b960d340c63512f8e68458,0.0539,0.054,0,84,84,99,1,sixeight,,,,,,,,,,,,,,,,,,,,,,,,,,,,,,,,,,,,,,,,,,,,,,,,,,,,,,,,,,,,,,,,,,,,,,,,,,,,,,,,,,,,,,,,,,,,,,,,,,,,,,,,,,,,,,,,,,,,,,,,,,,,,,,,,,,,,,,,,
,,60f5763eb0c6dde109026ff5,2026-03-17_07h12.44.075,kallum_motion_pilot_GIST_update_2,2026.1.1,Win32,39.68253968,60f5763eb0c6dde109026ff5,69b95efdef24cd8a694e89ee,69b960d340c63512f8e68458,0.0542,0.0542,0,85,85,160,1,fivesix,,,,,,,,,,,,,,,,,,,,,,,,,,,,,,,,,,,,,,,,,,,,,,,,,,,,,,,,,,,,,,,,,,,,,,,,,,,,,,,,,,,,,,,,,,,,,,,,,,,,,,,,,,,,,,,,,,,,,,,,,,,,,,,,,,,,,,,,,
,,60f5763eb0c6dde109026ff5,2026-03-17_07h12.44.075,kallum_motion_pilot_GIST_update_2,2026.1.1,Win32,39.68253968,60f5763eb0c6dde109026ff5,69b95efdef24cd8a694e89ee,69b960d340c63512f8e68458,0.0544,0.0544,0,86,86,118,1,eightsix,,,,,,,,,,,,,,,,,,,,,,,,,,,,,,,,,,,,,,,,,,,,,,,,,,,,,,,,,,,,,,,,,,,,,,,,,,,,,,,,,,,,,,,,,,,,,,,,,,,,,,,,,,,,,,,,,,,,,,,,,,,,,,,,,,,,,,,,,
,,60f5763eb0c6dde109026ff5,2026-03-17_07h12.44.075,kallum_motion_pilot_GIST_update_2,2026.1.1,Win32,39.68253968,60f5763eb0c6dde109026ff5,69b95efdef24cd8a694e89ee,69b960d340c63512f8e68458,0.0546,0.0547,0,87,87,141,1,seveneight,,,,,,,,,,,,,,,,,,,,,,,,,,,,,,,,,,,,,,,,,,,,,,,,,,,,,,,,,,,,,,,,,,,,,,,,,,,,,,,,,,,,,,,,,,,,,,,,,,,,,,,,,,,,,,,,,,,,,,,,,,,,,,,,,,,,,,,,,
,,60f5763eb0c6dde109026ff5,2026-03-17_07h12.44.075,kallum_motion_pilot_GIST_update_2,2026.1.1,Win32,39.68253968,60f5763eb0c6dde109026ff5,69b95efdef24cd8a694e89ee,69b960d340c63512f8e68458,0.055,0.055,0,88,88,4,1,threeone,,,,,,,,,,,,,,,,,,,,,,,,,,,,,,,,,,,,,,,,,,,,,,,,,,,,,,,,,,,,,,,,,,,,,,,,,,,,,,,,,,,,,,,,,,,,,,,,,,,,,,,,,,,,,,,,,,,,,,,,,,,,,,,,,,,,,,,,,
,,60f5763eb0c6dde109026ff5,2026-03-17_07h12.44.075,kallum_motion_pilot_GIST_update_2,2026.1.1,Win32,39.68253968,60f5763eb0c6dde109026ff5,69b95efdef24cd8a694e89ee,69b960d340c63512f8e68458,0.0553,0.0553,0,89,89,38,1,fourtwo,,,,,,,,,,,,,,,,,,,,,,,,,,,,,,,,,,,,,,,,,,,,,,,,,,,,,,,,,,,,,,,,,,,,,,,,,,,,,,,,,,,,,,,,,,,,,,,,,,,,,,,,,,,,,,,,,,,,,,,,,,,,,,,,,,,,,,,,,
,,60f5763eb0c6dde109026ff5,2026-03-17_07h12.44.075,kallum_motion_pilot_GIST_update_2,2026.1.1,Win32,39.68253968,60f5763eb0c6dde109026ff5,69b95efdef24cd8a694e89ee,69b960d340c63512f8e68458,0.0554,0.0555,0,90,90,106,1,sixfive,,,,,,,,,,,,,,,,,,,,,,,,,,,,,,,,,,,,,,,,,,,,,,,,,,,,,,,,,,,,,,,,,,,,,,,,,,,,,,,,,,,,,,,,,,,,,,,,,,,,,,,,,,,,,,,,,,,,,,,,,,,,,,,,,,,,,,,,,
,,60f5763eb0c6dde109026ff5,2026-03-17_07h12.44.075,kallum_motion_pilot_GIST_update_2,2026.1.1,Win32,39.68253968,60f5763eb0c6dde109026ff5,69b95efdef24cd8a694e89ee,69b960d340c63512f8e68458,0.0557,0.0557,0,91,91,42,1,twoone,,,,,,,,,,,,,,,,,,,,,,,,,,,,,,,,,,,,,,,,,,,,,,,,,,,,,,,,,,,,,,,,,,,,,,,,,,,,,,,,,,,,,,,,,,,,,,,,,,,,,,,,,,,,,,,,,,,,,,,,,,,,,,,,,,,,,,,,,
,,60f5763eb0c6dde109026ff5,2026-03-17_07h12.44.075,kallum_motion_pilot_GIST_update_2,2026.1.1,Win32,39.68253968,60f5763eb0c6dde109026ff5,69b95efdef24cd8a694e89ee,69b960d340c63512f8e68458,0.0559,0.0559,0,92,92,53,1,threefour,,,,,,,,,,,,,,,,,,,,,,,,,,,,,,,,,,,,,,,,,,,,,,,,,,,,,,,,,,,,,,,,,,,,,,,,,,,,,,,,,,,,,,,,,,,,,,,,,,,,,,,,,,,,,,,,,,,,,,,,,,,,,,,,,,,,,,,,,
,,60f5763eb0c6dde109026ff5,2026-03-17_07h12.44.075,kallum_motion_pilot_GIST_update_2,2026.1.1,Win32,39.68253968,60f5763eb0c6dde109026ff5,69b95efdef24cd8a694e89ee,69b960d340c63512f8e68458,0.0562,0.0563,0,93,93,40,1,onetwo,,,,,,,,,,,,,,,,,,,,,,,,,,,,,,,,,,,,,,,,,,,,,,,,,,,,,,,,,,,,,,,,,,,,,,,,,,,,,,,,,,,,,,,,,,,,,,,,,,,,,,,,,,,,,,,,,,,,,,,,,,,,,,,,,,,,,,,,,
,,60f5763eb0c6dde109026ff5,2026-03-17_07h12.44.075,kallum_motion_pilot_GIST_update_2,2026.1.1,Win32,39.68253968,60f5763eb0c6dde109026ff5,69b95efdef24cd8a694e89ee,69b960d340c63512f8e68458,0.0565,0.0565,0,94,94,129,1,fiveseven,,,,,,,,,,,,,,,,,,,,,,,,,,,,,,,,,,,,,,,,,,,,,,,,,,,,,,,,,,,,,,,,,,,,,,,,,,,,,,,,,,,,,,,,,,,,,,,,,,,,,,,,,,,,,,,,,,,,,,,,,,,,,,,,,,,,,,,,,
,,60f5763eb0c6dde109026ff5,2026-03-17_07h12.44.075,kallum_motion_pilot_GIST_update_2,2026.1.1,Win32,39.68253968,60f5763eb0c6dde109026ff5,69b95efdef24cd8a694e89ee,69b960d340c63512f8e68458,0.0567,0.0567,0,95,95,117,1,seveneight,,,,,,,,,,,,,,,,,,,,,,,,,,,,,,,,,,,,,,,,,,,,,,,,,,,,,,,,,,,,,,,,,,,,,,,,,,,,,,,,,,,,,,,,,,,,,,,,,,,,,,,,,,,,,,,,,,,,,,,,,,,,,,,,,,,,,,,,,
,,60f5763eb0c6dde109026ff5,2026-03-17_07h12.44.075,kallum_motion_pilot_GIST_update_2,2026.1.1,Win32,39.68253968,60f5763eb0c6dde109026ff5,69b95efdef24cd8a694e89ee,69b960d340c63512f8e68458,0.0571,0.0571,0,96,96,158,1,eightsix,,,,,,,,,,,,,,,,,,,,,,,,,,,,,,,,,,,,,,,,,,,,,,,,,,,,,,,,,,,,,,,,,,,,,,,,,,,,,,,,,,,,,,,,,,,,,,,,,,,,,,,,,,,,,,,,,,,,,,,,,,,,,,,,,,,,,,,,,
,,60f5763eb0c6dde109026ff5,2026-03-17_07h12.44.075,kallum_motion_pilot_GIST_update_2,2026.1.1,Win32,39.68253968,60f5763eb0c6dde109026ff5,69b95efdef24cd8a694e89ee,69b960d340c63512f8e68458,0.0575,0.0575,0,97,97,6,1,fourtwo,,,,,,,,,,,,,,,,,,,,,,,,,,,,,,,,,,,,,,,,,,,,,,,,,,,,,,,,,,,,,,,,,,,,,,,,,,,,,,,,,,,,,,,,,,,,,,,,,,,,,,,,,,,,,,,,,,,,,,,,,,,,,,,,,,,,,,,,,
,,60f5763eb0c6dde109026ff5,2026-03-17_07h12.44.075,kallum_motion_pilot_GIST_update_2,2026.1.1,Win32,39.68253968,60f5763eb0c6dde109026ff5,69b95efdef24cd8a694e89ee,69b960d340c63512f8e68458,0.0577,0.0577,0,98,98,70,1,fourtwo,,,,,,,,,,,,,,,,,,,,,,,,,,,,,,,,,,,,,,,,,,,,,,,,,,,,,,,,,,,,,,,,,,,,,,,,,,,,,,,,,,,,,,,,,,,,,,,,,,,,,,,,,,,,,,,,,,,,,,,,,,,,,,,,,,,,,,,,,
,,60f5763eb0c6dde109026ff5,2026-03-17_07h12.44.075,kallum_motion_pilot_GIST_update_2,2026.1.1,Win32,39.68253968,60f5763eb0c6dde109026ff5,69b95efdef24cd8a694e89ee,69b960d340c63512f8e68458,0.0579,0.0579,0,99,99,60,1,threeone,,,,,,,,,,,,,,,,,,,,,,,,,,,,,,,,,,,,,,,,,,,,,,,,,,,,,,,,,,,,,,,,,,,,,,,,,,,,,,,,,,,,,,,,,,,,,,,,,,,,,,,,,,,,,,,,,,,,,,,,,,,,,,,,,,,,,,,,,
,,60f5763eb0c6dde109026ff5,2026-03-17_07h12.44.075,kallum_motion_pilot_GIST_update_2,2026.1.1,Win32,39.68253968,60f5763eb0c6dde109026ff5,69b95efdef24cd8a694e89ee,69b960d340c63512f8e68458,0.0583,0.0583,0,100,100,77,1,threefour,,,,,,,,,,,,,,,,,,,,,,,,,,,,,,,,,,,,,,,,,,,,,,,,,,,,,,,,,,,,,,,,,,,,,,,,,,,,,,,,,,,,,,,,,,,,,,,,,,,,,,,,,,,,,,,,,,,,,,,,,,,,,,,,,,,,,,,,,
,,60f5763eb0c6dde109026ff5,2026-03-17_07h12.44.075,kallum_motion_pilot_GIST_update_2,2026.1.1,Win32,39.68253968,60f5763eb0c6dde109026ff5,69b95efdef24cd8a694e89ee,69b960d340c63512f8e68458,0.0585,0.0585,0,101,101,114,1,sixfive,,,,,,,,,,,,,,,,,,,,,,,,,,,,,,,,,,,,,,,,,,,,,,,,,,,,,,,,,,,,,,,,,,,,,,,,,,,,,,,,,,,,,,,,,,,,,,,,,,,,,,,,,,,,,,,,,,,,,,,,,,,,,,,,,,,,,,,,,
,,60f5763eb0c6dde109026ff5,2026-03-17_07h12.44.075,kallum_motion_pilot_GIST_update_2,2026.1.1,Win32,39.68253968,60f5763eb0c6dde109026ff5,69b95efdef24cd8a694e89ee,69b960d340c63512f8e68458,0.0588,0.0588,0,102,102,33,1,onethree,,,,,,,,,,,,,,,,,,,,,,,,,,,,,,,,,,,,,,,,,,,,,,,,,,,,,,,,,,,,,,,,,,,,,,,,,,,,,,,,,,,,,,,,,,,,,,,,,,,,,,,,,,,,,,,,,,,,,,,,,,,,,,,,,,,,,,,,,
,,60f5763eb0c6dde109026ff5,2026-03-17_07h12.44.075,kallum_motion_pilot_GIST_update_2,2026.1.1,Win32,39.68253968,60f5763eb0c6dde109026ff5,69b95efdef24cd8a694e89ee,69b960d340c63512f8e68458,0.0592,0.0592,0,103,103,104,1,fivesix,,,,,,,,,,,,,,,,,,,,,,,,,,,,,,,,,,,,,,,,,,,,,,,,,,,,,,,,,,,,,,,,,,,,,,,,,,,,,,,,,,,,,,,,,,,,,,,,,,,,,,,,,,,,,,,,,,,,,,,,,,,,,,,,,,,,,,,,,
,,60f5763eb0c6dde109026ff5,2026-03-17_07h12.44.075,kallum_motion_pilot_GIST_update_2,2026.1.1,Win32,39.68253968,60f5763eb0c6dde109026ff5,69b95efdef24cd8a694e89ee,69b960d340c63512f8e68458,0.0596,0.0596,0,104,104,21,1,threefour,,,,,,,,,,,,,,,,,,,,,,,,,,,,,,,,,,,,,,,,,,,,,,,,,,,,,,,,,,,,,,,,,,,,,,,,,,,,,,,,,,,,,,,,,,,,,,,,,,,,,,,,,,,,,,,,,,,,,,,,,,,,,,,,,,,,,,,,,
,,60f5763eb0c6dde109026ff5,2026-03-17_07h12.44.075,kallum_motion_pilot_GIST_update_2,2026.1.1,Win32,39.68253968,60f5763eb0c6dde109026ff5,69b95efdef24cd8a694e89ee,69b960d340c63512f8e68458,0.0599,0.0599,0,105,105,130,1,sixfive,,,,,,,,,,,,,,,,,,,,,,,,,,,,,,,,,,,,,,,,,,,,,,,,,,,,,,,,,,,,,,,,,,,,,,,,,,,,,,,,,,,,,,,,,,,,,,,,,,,,,,,,,,,,,,,,,,,,,,,,,,,,,,,,,,,,,,,,,
,,60f5763eb0c6dde109026ff5,2026-03-17_07h12.44.075,kallum_motion_pilot_GIST_update_2,2026.1.1,Win32,39.68253968,60f5763eb0c6dde109026ff5,69b95efdef24cd8a694e89ee,69b960d340c63512f8e68458,0.0602,0.0602,0,106,106,11,1,twofour,,,,,,,,,,,,,,,,,,,,,,,,,,,,,,,,,,,,,,,,,,,,,,,,,,,,,,,,,,,,,,,,,,,,,,,,,,,,,,,,,,,,,,,,,,,,,,,,,,,,,,,,,,,,,,,,,,,,,,,,,,,,,,,,,,,,,,,,,
,,60f5763eb0c6dde109026ff5,2026-03-17_07h12.44.075,kallum_motion_pilot_GIST_update_2,2026.1.1,Win32,39.68253968,60f5763eb0c6dde109026ff5,69b95efdef24cd8a694e89ee,69b960d340c63512f8e68458,0.0605,0.0605,0,107,107,58,1,twoone,,,,,,,,,,,,,,,,,,,,,,,,,,,,,,,,,,,,,,,,,,,,,,,,,,,,,,,,,,,,,,,,,,,,,,,,,,,,,,,,,,,,,,,,,,,,,,,,,,,,,,,,,,,,,,,,,,,,,,,,,,,,,,,,,,,,,,,,,
,,60f5763eb0c6dde109026ff5,2026-03-17_07h12.44.075,kallum_motion_pilot_GIST_update_2,2026.1.1,Win32,39.68253968,60f5763eb0c6dde109026ff5,69b95efdef24cd8a694e89ee,69b960d340c63512f8e68458,0.0607,0.0608,0,108,108,98,1,sixfive,,,,,,,,,,,,,,,,,,,,,,,,,,,,,,,,,,,,,,,,,,,,,,,,,,,,,,,,,,,,,,,,,,,,,,,,,,,,,,,,,,,,,,,,,,,,,,,,,,,,,,,,,,,,,,,,,,,,,,,,,,,,,,,,,,,,,,,,,
,,60f5763eb0c6dde109026ff5,2026-03-17_07h12.44.075,kallum_motion_pilot_GIST_update_2,2026.1.1,Win32,39.68253968,60f5763eb0c6dde109026ff5,69b95efdef24cd8a694e89ee,69b960d340c63512f8e68458,0.0611,0.0611,0,109,109,147,1,sixeight,,,,,,,,,,,,,,,,,,,,,,,,,,,,,,,,,,,,,,,,,,,,,,,,,,,,,,,,,,,,,,,,,,,,,,,,,,,,,,,,,,,,,,,,,,,,,,,,,,,,,,,,,,,,,,,,,,,,,,,,,,,,,,,,,,,,,,,,,
,,60f5763eb0c6dde109026ff5,2026-03-17_07h12.44.075,kallum_motion_pilot_GIST_update_2,2026.1.1,Win32,39.68253968,60f5763eb0c6dde109026ff5,69b95efdef24cd8a694e89ee,69b960d340c63512f8e68458,0.0613,0.0613,0,110,110,54,1,fourtwo,,,,,,,,,,,,,,,,,,,,,,,,,,,,,,,,,,,,,,,,,,,,,,,,,,,,,,,,,,,,,,,,,,,,,,,,,,,,,,,,,,,,,,,,,,,,,,,,,,,,,,,,,,,,,,,,,,,,,,,,,,,,,,,,,,,,,,,,,
,,60f5763eb0c6dde109026ff5,2026-03-17_07h12.44.075,kallum_motion_pilot_GIST_update_2,2026.1.1,Win32,39.68253968,60f5763eb0c6dde109026ff5,69b95efdef24cd8a694e89ee,69b960d340c63512f8e68458,0.0616,0.0616,0,111,111,22,1,fourtwo,,,,,,,,,,,,,,,,,,,,,,,,,,,,,,,,,,,,,,,,,,,,,,,,,,,,,,,,,,,,,,,,,,,,,,,,,,,,,,,,,,,,,,,,,,,,,,,,,,,,,,,,,,,,,,,,,,,,,,,,,,,,,,,,,,,,,,,,,
,,60f5763eb0c6dde109026ff5,2026-03-17_07h12.44.075,kallum_motion_pilot_GIST_update_2,2026.1.1,Win32,39.68253968,60f5763eb0c6dde109026ff5,69b95efdef24cd8a694e89ee,69b960d340c63512f8e68458,0.0619,0.0619,0,112,112,133,1,seveneight,,,,,,,,,,,,,,,,,,,,,,,,,,,,,,,,,,,,,,,,,,,,,,,,,,,,,,,,,,,,,,,,,,,,,,,,,,,,,,,,,,,,,,,,,,,,,,,,,,,,,,,,,,,,,,,,,,,,,,,,,,,,,,,,,,,,,,,,,
,,60f5763eb0c6dde109026ff5,2026-03-17_07h12.44.075,kallum_motion_pilot_GIST_update_2,2026.1.1,Win32,39.68253968,60f5763eb0c6dde109026ff5,69b95efdef24cd8a694e89ee,69b960d340c63512f8e68458,0.0621,0.0621,0,113,113,14,1,fourtwo,,,,,,,,,,,,,,,,,,,,,,,,,,,,,,,,,,,,,,,,,,,,,,,,,,,,,,,,,,,,,,,,,,,,,,,,,,,,,,,,,,,,,,,,,,,,,,,,,,,,,,,,,,,,,,,,,,,,,,,,,,,,,,,,,,,,,,,,,
,,60f5763eb0c6dde109026ff5,2026-03-17_07h12.44.075,kallum_motion_pilot_GIST_update_2,2026.1.1,Win32,39.68253968,60f5763eb0c6dde109026ff5,69b95efdef24cd8a694e89ee,69b960d340c63512f8e68458,0.0624,0.0624,0,114,114,157,1,seveneight,,,,,,,,,,,,,,,,,,,,,,,,,,,,,,,,,,,,,,,,,,,,,,,,,,,,,,,,,,,,,,,,,,,,,,,,,,,,,,,,,,,,,,,,,,,,,,,,,,,,,,,,,,,,,,,,,,,,,,,,,,,,,,,,,,,,,,,,,
,,60f5763eb0c6dde109026ff5,2026-03-17_07h12.44.075,kallum_motion_pilot_GIST_update_2,2026.1.1,Win32,39.68253968,60f5763eb0c6dde109026ff5,69b95efdef24cd8a694e89ee,69b960d340c63512f8e68458,0.0628,0.0628,0,115,115,59,1,twofour,,,,,,,,,,,,,,,,,,,,,,,,,,,,,,,,,,,,,,,,,,,,,,,,,,,,,,,,,,,,,,,,,,,,,,,,,,,,,,,,,,,,,,,,,,,,,,,,,,,,,,,,,,,,,,,,,,,,,,,,,,,,,,,,,,,,,,,,,
,,60f5763eb0c6dde109026ff5,2026-03-17_07h12.44.075,kallum_motion_pilot_GIST_update_2,2026.1.1,Win32,39.68253968,60f5763eb0c6dde109026ff5,69b95efdef24cd8a694e89ee,69b960d340c63512f8e68458,0.063,0.063,0,116,116,9,1,onethree,,,,,,,,,,,,,,,,,,,,,,,,,,,,,,,,,,,,,,,,,,,,,,,,,,,,,,,,,,,,,,,,,,,,,,,,,,,,,,,,,,,,,,,,,,,,,,,,,,,,,,,,,,,,,,,,,,,,,,,,,,,,,,,,,,,,,,,,,
,,60f5763eb0c6dde109026ff5,2026-03-17_07h12.44.075,kallum_motion_pilot_GIST_update_2,2026.1.1,Win32,39.68253968,60f5763eb0c6dde109026ff5,69b95efdef24cd8a694e89ee,69b960d340c63512f8e68458,0.0632,0.0632,0,117,117,39,1,fourthree,,,,,,,,,,,,,,,,,,,,,,,,,,,,,,,,,,,,,,,,,,,,,,,,,,,,,,,,,,,,,,,,,,,,,,,,,,,,,,,,,,,,,,,,,,,,,,,,,,,,,,,,,,,,,,,,,,,,,,,,,,,,,,,,,,,,,,,,,
,,60f5763eb0c6dde109026ff5,2026-03-17_07h12.44.075,kallum_motion_pilot_GIST_update_2,2026.1.1,Win32,39.68253968,60f5763eb0c6dde109026ff5,69b95efdef24cd8a694e89ee,69b960d340c63512f8e68458,0.0635,0.0635,0,118,118,97,1,fiveseven,,,,,,,,,,,,,,,,,,,,,,,,,,,,,,,,,,,,,,,,,,,,,,,,,,,,,,,,,,,,,,,,,,,,,,,,,,,,,,,,,,,,,,,,,,,,,,,,,,,,,,,,,,,,,,,,,,,,,,,,,,,,,,,,,,,,,,,,,
,,60f5763eb0c6dde109026ff5,2026-03-17_07h12.44.075,kallum_motion_pilot_GIST_update_2,2026.1.1,Win32,39.68253968,60f5763eb0c6dde109026ff5,69b95efdef24cd8a694e89ee,69b960d340c63512f8e68458,0.0639,0.0639,0,119,119,115,1,sixeight,,,,,,,,,,,,,,,,,,,,,,,,,,,,,,,,,,,,,,,,,,,,,,,,,,,,,,,,,,,,,,,,,,,,,,,,,,,,,,,,,,,,,,,,,,,,,,,,,,,,,,,,,,,,,,,,,,,,,,,,,,,,,,,,,,,,,,,,,
,,60f5763eb0c6dde109026ff5,2026-03-17_07h12.44.075,kallum_motion_pilot_GIST_update_2,2026.1.1,Win32,39.68253968,60f5763eb0c6dde109026ff5,69b95efdef24cd8a694e89ee,69b960d340c63512f8e68458,0.0642,0.0643,0,120,120,68,1,threeone,,,,,,,,,,,,,,,,,,,,,,,,,,,,,,,,,,,,,,,,,,,,,,,,,,,,,,,,,,,,,,,,,,,,,,,,,,,,,,,,,,,,,,,,,,,,,,,,,,,,,,,,,,,,,,,,,,,,,,,,,,,,,,,,,,,,,,,,,
,,60f5763eb0c6dde109026ff5,2026-03-17_07h12.44.075,kallum_motion_pilot_GIST_update_2,2026.1.1,Win32,39.68253968,60f5763eb0c6dde109026ff5,69b95efdef24cd8a694e89ee,69b960d340c63512f8e68458,0.0647,0.0647,0,121,121,144,1,fivesix,,,,,,,,,,,,,,,,,,,,,,,,,,,,,,,,,,,,,,,,,,,,,,,,,,,,,,,,,,,,,,,,,,,,,,,,,,,,,,,,,,,,,,,,,,,,,,,,,,,,,,,,,,,,,,,,,,,,,,,,,,,,,,,,,,,,,,,,,
,,60f5763eb0c6dde109026ff5,2026-03-17_07h12.44.075,kallum_motion_pilot_GIST_update_2,2026.1.1,Win32,39.68253968,60f5763eb0c6dde109026ff5,69b95efdef24cd8a694e89ee,69b960d340c63512f8e68458,0.065,0.065,0,122,122,124,1,sevenfive,,,,,,,,,,,,,,,,,,,,,,,,,,,,,,,,,,,,,,,,,,,,,,,,,,,,,,,,,,,,,,,,,,,,,,,,,,,,,,,,,,,,,,,,,,,,,,,,,,,,,,,,,,,,,,,,,,,,,,,,,,,,,,,,,,,,,,,,,
,,60f5763eb0c6dde109026ff5,2026-03-17_07h12.44.075,kallum_motion_pilot_GIST_update_2,2026.1.1,Win32,39.68253968,60f5763eb0c6dde109026ff5,69b95efdef24cd8a694e89ee,69b960d340c63512f8e68458,0.0652,0.0653,0,123,123,159,1,eightseven,,,,,,,,,,,,,,,,,,,,,,,,,,,,,,,,,,,,,,,,,,,,,,,,,,,,,,,,,,,,,,,,,,,,,,,,,,,,,,,,,,,,,,,,,,,,,,,,,,,,,,,,,,,,,,,,,,,,,,,,,,,,,,,,,,,,,,,,,
,,60f5763eb0c6dde109026ff5,2026-03-17_07h12.44.075,kallum_motion_pilot_GIST_update_2,2026.1.1,Win32,39.68253968,60f5763eb0c6dde109026ff5,69b95efdef24cd8a694e89ee,69b960d340c63512f8e68458,0.0656,0.0656,0,124,124,64,1,onetwo,,,,,,,,,,,,,,,,,,,,,,,,,,,,,,,,,,,,,,,,,,,,,,,,,,,,,,,,,,,,,,,,,,,,,,,,,,,,,,,,,,,,,,,,,,,,,,,,,,,,,,,,,,,,,,,,,,,,,,,,,,,,,,,,,,,,,,,,,
,,60f5763eb0c6dde109026ff5,2026-03-17_07h12.44.075,kallum_motion_pilot_GIST_update_2,2026.1.1,Win32,39.68253968,60f5763eb0c6dde109026ff5,69b95efdef24cd8a694e89ee,69b960d340c63512f8e68458,0.0658,0.0659,0,125,125,49,1,onethree,,,,,,,,,,,,,,,,,,,,,,,,,,,,,,,,,,,,,,,,,,,,,,,,,,,,,,,,,,,,,,,,,,,,,,,,,,,,,,,,,,,,,,,,,,,,,,,,,,,,,,,,,,,,,,,,,,,,,,,,,,,,,,,,,,,,,,,,,
,,60f5763eb0c6dde109026ff5,2026-03-17_07h12.44.075,kallum_motion_pilot_GIST_update_2,2026.1.1,Win32,39.68253968,60f5763eb0c6dde109026ff5,69b95efdef24cd8a694e89ee,69b960d340c63512f8e68458,0.0663,0.0663,0,126,126,34,1,twoone,,,,,,,,,,,,,,,,,,,,,,,,,,,,,,,,,,,,,,,,,,,,,,,,,,,,,,,,,,,,,,,,,,,,,,,,,,,,,,,,,,,,,,,,,,,,,,,,,,,,,,,,,,,,,,,,,,,,,,,,,,,,,,,,,,,,,,,,,
,,60f5763eb0c6dde109026ff5,2026-03-17_07h12.44.075,kallum_motion_pilot_GIST_update_2,2026.1.1,Win32,39.68253968,60f5763eb0c6dde109026ff5,69b95efdef24cd8a694e89ee,69b960d340c63512f8e68458,0.0665,0.0665,0,127,127,134,1,eightsix,,,,,,,,,,,,,,,,,,,,,,,,,,,,,,,,,,,,,,,,,,,,,,,,,,,,,,,,,,,,,,,,,,,,,,,,,,,,,,,,,,,,,,,,,,,,,,,,,,,,,,,,,,,,,,,,,,,,,,,,,,,,,,,,,,,,,,,,,
,,60f5763eb0c6dde109026ff5,2026-03-17_07h12.44.075,kallum_motion_pilot_GIST_update_2,2026.1.1,Win32,39.68253968,60f5763eb0c6dde109026ff5,69b95efdef24cd8a694e89ee,69b960d340c63512f8e68458,0.0668,0.0668,0,128,128,15,1,fourthree,,,,,,,,,,,,,,,,,,,,,,,,,,,,,,,,,,,,,,,,,,,,,,,,,,,,,,,,,,,,,,,,,,,,,,,,,,,,,,,,,,,,,,,,,,,,,,,,,,,,,,,,,,,,,,,,,,,,,,,,,,,,,,,,,,,,,,,,,
,,60f5763eb0c6dde109026ff5,2026-03-17_07h12.44.075,kallum_motion_pilot_GIST_update_2,2026.1.1,Win32,39.68253968,60f5763eb0c6dde109026ff5,69b95efdef24cd8a694e89ee,69b960d340c63512f8e68458,0.067,0.0671,0,129,129,126,1,eightsix,,,,,,,,,,,,,,,,,,,,,,,,,,,,,,,,,,,,,,,,,,,,,,,,,,,,,,,,,,,,,,,,,,,,,,,,,,,,,,,,,,,,,,,,,,,,,,,,,,,,,,,,,,,,,,,,,,,,,,,,,,,,,,,,,,,,,,,,,
,,60f5763eb0c6dde109026ff5,2026-03-17_07h12.44.075,kallum_motion_pilot_GIST_update_2,2026.1.1,Win32,39.68253968,60f5763eb0c6dde109026ff5,69b95efdef24cd8a694e89ee,69b960d340c63512f8e68458,0.0674,0.0674,0,130,130,79,1,eightseven,,,,,,,,,,,,,,,,,,,,,,,,,,,,,,,,,,,,,,,,,,,,,,,,,,,,,,,,,,,,,,,,,,,,,,,,,,,,,,,,,,,,,,,,,,,,,,,,,,,,,,,,,,,,,,,,,,,,,,,,,,,,,,,,,,,,,,,,,
,,60f5763eb0c6dde109026ff5,2026-03-17_07h12.44.075,kallum_motion_pilot_GIST_update_2,2026.1.1,Win32,39.68253968,60f5763eb0c6dde109026ff5,69b95efdef24cd8a694e89ee,69b960d340c63512f8e68458,0.0677,0.0677,0,131,131,80,1,fivesix,,,,,,,,,,,,,,,,,,,,,,,,,,,,,,,,,,,,,,,,,,,,,,,,,,,,,,,,,,,,,,,,,,,,,,,,,,,,,,,,,,,,,,,,,,,,,,,,,,,,,,,,,,,,,,,,,,,,,,,,,,,,,,,,,,,,,,,,,
,,60f5763eb0c6dde109026ff5,2026-03-17_07h12.44.075,kallum_motion_pilot_GIST_update_2,2026.1.1,Win32,39.68253968,60f5763eb0c6dde109026ff5,69b95efdef24cd8a694e89ee,69b960d340c63512f8e68458,0.0679,0.0679,0,132,132,30,1,fourtwo,,,,,,,,,,,,,,,,,,,,,,,,,,,,,,,,,,,,,,,,,,,,,,,,,,,,,,,,,,,,,,,,,,,,,,,,,,,,,,,,,,,,,,,,,,,,,,,,,,,,,,,,,,,,,,,,,,,,,,,,,,,,,,,,,,,,,,,,,
,,60f5763eb0c6dde109026ff5,2026-03-17_07h12.44.075,kallum_motion_pilot_GIST_update_2,2026.1.1,Win32,39.68253968,60f5763eb0c6dde109026ff5,69b95efdef24cd8a694e89ee,69b960d340c63512f8e68458,0.0682,0.0682,0,133,133,28,1,threeone,,,,,,,,,,,,,,,,,,,,,,,,,,,,,,,,,,,,,,,,,,,,,,,,,,,,,,,,,,,,,,,,,,,,,,,,,,,,,,,,,,,,,,,,,,,,,,,,,,,,,,,,,,,,,,,,,,,,,,,,,,,,,,,,,,,,,,,,,
,,60f5763eb0c6dde109026ff5,2026-03-17_07h12.44.075,kallum_motion_pilot_GIST_update_2,2026.1.1,Win32,39.68253968,60f5763eb0c6dde109026ff5,69b95efdef24cd8a694e89ee,69b960d340c63512f8e68458,0.0685,0.0685,0,134,134,148,1,sevenfive,,,,,,,,,,,,,,,,,,,,,,,,,,,,,,,,,,,,,,,,,,,,,,,,,,,,,,,,,,,,,,,,,,,,,,,,,,,,,,,,,,,,,,,,,,,,,,,,,,,,,,,,,,,,,,,,,,,,,,,,,,,,,,,,,,,,,,,,,
,,60f5763eb0c6dde109026ff5,2026-03-17_07h12.44.075,kallum_motion_pilot_GIST_update_2,2026.1.1,Win32,39.68253968,60f5763eb0c6dde109026ff5,69b95efdef24cd8a694e89ee,69b960d340c63512f8e68458,0.0688,0.0688,0,135,135,156,1,sevenfive,,,,,,,,,,,,,,,,,,,,,,,,,,,,,,,,,,,,,,,,,,,,,,,,,,,,,,,,,,,,,,,,,,,,,,,,,,,,,,,,,,,,,,,,,,,,,,,,,,,,,,,,,,,,,,,,,,,,,,,,,,,,,,,,,,,,,,,,,
,,60f5763eb0c6dde109026ff5,2026-03-17_07h12.44.075,kallum_motion_pilot_GIST_update_2,2026.1.1,Win32,39.68253968,60f5763eb0c6dde109026ff5,69b95efdef24cd8a694e89ee,69b960d340c63512f8e68458,0.0693,0.0693,0,136,136,51,1,twofour,,,,,,,,,,,,,,,,,,,,,,,,,,,,,,,,,,,,,,,,,,,,,,,,,,,,,,,,,,,,,,,,,,,,,,,,,,,,,,,,,,,,,,,,,,,,,,,,,,,,,,,,,,,,,,,,,,,,,,,,,,,,,,,,,,,,,,,,,
,,60f5763eb0c6dde109026ff5,2026-03-17_07h12.44.075,kallum_motion_pilot_GIST_update_2,2026.1.1,Win32,39.68253968,60f5763eb0c6dde109026ff5,69b95efdef24cd8a694e89ee,69b960d340c63512f8e68458,0.0697,0.0697,0,137,137,123,1,sixeight,,,,,,,,,,,,,,,,,,,,,,,,,,,,,,,,,,,,,,,,,,,,,,,,,,,,,,,,,,,,,,,,,,,,,,,,,,,,,,,,,,,,,,,,,,,,,,,,,,,,,,,,,,,,,,,,,,,,,,,,,,,,,,,,,,,,,,,,,
,,60f5763eb0c6dde109026ff5,2026-03-17_07h12.44.075,kallum_motion_pilot_GIST_update_2,2026.1.1,Win32,39.68253968,60f5763eb0c6dde109026ff5,69b95efdef24cd8a694e89ee,69b960d340c63512f8e68458,0.0701,0.0701,0,138,138,151,1,eightseven,,,,,,,,,,,,,,,,,,,,,,,,,,,,,,,,,,,,,,,,,,,,,,,,,,,,,,,,,,,,,,,,,,,,,,,,,,,,,,,,,,,,,,,,,,,,,,,,,,,,,,,,,,,,,,,,,,,,,,,,,,,,,,,,,,,,,,,,,
,,60f5763eb0c6dde109026ff5,2026-03-17_07h12.44.075,kallum_motion_pilot_GIST_update_2,2026.1.1,Win32,39.68253968,60f5763eb0c6dde109026ff5,69b95efdef24cd8a694e89ee,69b960d340c63512f8e68458,0.072,0.072,0,139,139,1,1,onethree,,,,,,,,,,,,,,,,,,,,,,,,,,,,,,,,,,,,,,,,,,,,,,,,,,,,,,,,,,,,,,,,,,,,,,,,,,,,,,,,,,,,,,,,,,,,,,,,,,,,,,,,,,,,,,,,,,,,,,,,,,,,,,,,,,,,,,,,,
,,60f5763eb0c6dde109026ff5,2026-03-17_07h12.44.075,kallum_motion_pilot_GIST_update_2,2026.1.1,Win32,39.68253968,60f5763eb0c6dde109026ff5,69b95efdef24cd8a694e89ee,69b960d340c63512f8e68458,0.0723,0.0724,0,140,140,103,1,eightseven,,,,,,,,,,,,,,,,,,,,,,,,,,,,,,,,,,,,,,,,,,,,,,,,,,,,,,,,,,,,,,,,,,,,,,,,,,,,,,,,,,,,,,,,,,,,,,,,,,,,,,,,,,,,,,,,,,,,,,,,,,,,,,,,,,,,,,,,,
,,60f5763eb0c6dde109026ff5,2026-03-17_07h12.44.075,kallum_motion_pilot_GIST_update_2,2026.1.1,Win32,39.68253968,60f5763eb0c6dde109026ff5,69b95efdef24cd8a694e89ee,69b960d340c63512f8e68458,0.0727,0.0727,0,141,141,122,1,sixfive,,,,,,,,,,,,,,,,,,,,,,,,,,,,,,,,,,,,,,,,,,,,,,,,,,,,,,,,,,,,,,,,,,,,,,,,,,,,,,,,,,,,,,,,,,,,,,,,,,,,,,,,,,,,,,,,,,,,,,,,,,,,,,,,,,,,,,,,,
,,60f5763eb0c6dde109026ff5,2026-03-17_07h12.44.075,kallum_motion_pilot_GIST_update_2,2026.1.1,Win32,39.68253968,60f5763eb0c6dde109026ff5,69b95efdef24cd8a694e89ee,69b960d340c63512f8e68458,0.073,0.073,0,142,142,19,1,twofour,,,,,,,,,,,,,,,,,,,,,,,,,,,,,,,,,,,,,,,,,,,,,,,,,,,,,,,,,,,,,,,,,,,,,,,,,,,,,,,,,,,,,,,,,,,,,,,,,,,,,,,,,,,,,,,,,,,,,,,,,,,,,,,,,,,,,,,,,
,,60f5763eb0c6dde109026ff5,2026-03-17_07h12.44.075,kallum_motion_pilot_GIST_update_2,2026.1.1,Win32,39.68253968,60f5763eb0c6dde109026ff5,69b95efdef24cd8a694e89ee,69b960d340c63512f8e68458,0.0733,0.0733,0,143,143,82,1,sixfive,,,,,,,,,,,,,,,,,,,,,,,,,,,,,,,,,,,,,,,,,,,,,,,,,,,,,,,,,,,,,,,,,,,,,,,,,,,,,,,,,,,,,,,,,,,,,,,,,,,,,,,,,,,,,,,,,,,,,,,,,,,,,,,,,,,,,,,,,
,,60f5763eb0c6dde109026ff5,2026-03-17_07h12.44.075,kallum_motion_pilot_GIST_update_2,2026.1.1,Win32,39.68253968,60f5763eb0c6dde109026ff5,69b95efdef24cd8a694e89ee,69b960d340c63512f8e68458,0.0736,0.0736,0,144,144,50,1,twoone,,,,,,,,,,,,,,,,,,,,,,,,,,,,,,,,,,,,,,,,,,,,,,,,,,,,,,,,,,,,,,,,,,,,,,,,,,,,,,,,,,,,,,,,,,,,,,,,,,,,,,,,,,,,,,,,,,,,,,,,,,,,,,,,,,,,,,,,,
,,60f5763eb0c6dde109026ff5,2026-03-17_07h12.44.075,kallum_motion_pilot_GIST_update_2,2026.1.1,Win32,39.68253968,60f5763eb0c6dde109026ff5,69b95efdef24cd8a694e89ee,69b960d340c63512f8e68458,0.0739,0.0739,0,145,145,101,1,seveneight,,,,,,,,,,,,,,,,,,,,,,,,,,,,,,,,,,,,,,,,,,,,,,,,,,,,,,,,,,,,,,,,,,,,,,,,,,,,,,,,,,,,,,,,,,,,,,,,,,,,,,,,,,,,,,,,,,,,,,,,,,,,,,,,,,,,,,,,,
,,60f5763eb0c6dde109026ff5,2026-03-17_07h12.44.075,kallum_motion_pilot_GIST_update_2,2026.1.1,Win32,39.68253968,60f5763eb0c6dde109026ff5,69b95efdef24cd8a694e89ee,69b960d340c63512f8e68458,0.0743,0.0743,0,146,146,45,1,threefour,,,,,,,,,,,,,,,,,,,,,,,,,,,,,,,,,,,,,,,,,,,,,,,,,,,,,,,,,,,,,,,,,,,,,,,,,,,,,,,,,,,,,,,,,,,,,,,,,,,,,,,,,,,,,,,,,,,,,,,,,,,,,,,,,,,,,,,,,
,,60f5763eb0c6dde109026ff5,2026-03-17_07h12.44.075,kallum_motion_pilot_GIST_update_2,2026.1.1,Win32,39.68253968,60f5763eb0c6dde109026ff5,69b95efdef24cd8a694e89ee,69b960d340c63512f8e68458,0.0745,0.0745,0,147,147,102,1,eightsix,,,,,,,,,,,,,,,,,,,,,,,,,,,,,,,,,,,,,,,,,,,,,,,,,,,,,,,,,,,,,,,,,,,,,,,,,,,,,,,,,,,,,,,,,,,,,,,,,,,,,,,,,,,,,,,,,,,,,,,,,,,,,,,,,,,,,,,,,
,,60f5763eb0c6dde109026ff5,2026-03-17_07h12.44.075,kallum_motion_pilot_GIST_update_2,2026.1.1,Win32,39.68253968,60f5763eb0c6dde109026ff5,69b95efdef24cd8a694e89ee,69b960d340c63512f8e68458,0.0749,0.0749,0,148,148,113,1,fiveseven,,,,,,,,,,,,,,,,,,,,,,,,,,,,,,,,,,,,,,,,,,,,,,,,,,,,,,,,,,,,,,,,,,,,,,,,,,,,,,,,,,,,,,,,,,,,,,,,,,,,,,,,,,,,,,,,,,,,,,,,,,,,,,,,,,,,,,,,,
,,60f5763eb0c6dde109026ff5,2026-03-17_07h12.44.075,kallum_motion_pilot_GIST_update_2,2026.1.1,Win32,39.68253968,60f5763eb0c6dde109026ff5,69b95efdef24cd8a694e89ee,69b960d340c63512f8e68458,0.0751,0.0751,0,149,149,146,1,sixfive,,,,,,,,,,,,,,,,,,,,,,,,,,,,,,,,,,,,,,,,,,,,,,,,,,,,,,,,,,,,,,,,,,,,,,,,,,,,,,,,,,,,,,,,,,,,,,,,,,,,,,,,,,,,,,,,,,,,,,,,,,,,,,,,,,,,,,,,,
,,60f5763eb0c6dde109026ff5,2026-03-17_07h12.44.075,kallum_motion_pilot_GIST_update_2,2026.1.1,Win32,39.68253968,60f5763eb0c6dde109026ff5,69b95efdef24cd8a694e89ee,69b960d340c63512f8e68458,0.0754,0.0754,0,150,150,41,1,onethree,,,,,,,,,,,,,,,,,,,,,,,,,,,,,,,,,,,,,,,,,,,,,,,,,,,,,,,,,,,,,,,,,,,,,,,,,,,,,,,,,,,,,,,,,,,,,,,,,,,,,,,,,,,,,,,,,,,,,,,,,,,,,,,,,,,,,,,,,
,,60f5763eb0c6dde109026ff5,2026-03-17_07h12.44.075,kallum_motion_pilot_GIST_update_2,2026.1.1,Win32,39.68253968,60f5763eb0c6dde109026ff5,69b95efdef24cd8a694e89ee,69b960d340c63512f8e68458,0.0756,0.0756,0,151,151,36,1,threeone,,,,,,,,,,,,,,,,,,,,,,,,,,,,,,,,,,,,,,,,,,,,,,,,,,,,,,,,,,,,,,,,,,,,,,,,,,,,,,,,,,,,,,,,,,,,,,,,,,,,,,,,,,,,,,,,,,,,,,,,,,,,,,,,,,,,,,,,,
,,60f5763eb0c6dde109026ff5,2026-03-17_07h12.44.075,kallum_motion_pilot_GIST_update_2,2026.1.1,Win32,39.68253968,60f5763eb0c6dde109026ff5,69b95efdef24cd8a694e89ee,69b960d340c63512f8e68458,0.0759,0.076,0,152,152,140,1,sevenfive,,,,,,,,,,,,,,,,,,,,,,,,,,,,,,,,,,,,,,,,,,,,,,,,,,,,,,,,,,,,,,,,,,,,,,,,,,,,,,,,,,,,,,,,,,,,,,,,,,,,,,,,,,,,,,,,,,,,,,,,,,,,,,,,,,,,,,,,,
,,60f5763eb0c6dde109026ff5,2026-03-17_07h12.44.075,kallum_motion_pilot_GIST_update_2,2026.1.1,Win32,39.68253968,60f5763eb0c6dde109026ff5,69b95efdef24cd8a694e89ee,69b960d340c63512f8e68458,0.0765,0.0765,0,153,153,138,1,sixfive,,,,,,,,,,,,,,,,,,,,,,,,,,,,,,,,,,,,,,,,,,,,,,,,,,,,,,,,,,,,,,,,,,,,,,,,,,,,,,,,,,,,,,,,,,,,,,,,,,,,,,,,,,,,,,,,,,,,,,,,,,,,,,,,,,,,,,,,,
,,60f5763eb0c6dde109026ff5,2026-03-17_07h12.44.075,kallum_motion_pilot_GIST_update_2,2026.1.1,Win32,39.68253968,60f5763eb0c6dde109026ff5,69b95efdef24cd8a694e89ee,69b960d340c63512f8e68458,0.0768,0.0768,0,154,154,7,1,fourthree,,,,,,,,,,,,,,,,,,,,,,,,,,,,,,,,,,,,,,,,,,,,,,,,,,,,,,,,,,,,,,,,,,,,,,,,,,,,,,,,,,,,,,,,,,,,,,,,,,,,,,,,,,,,,,,,,,,,,,,,,,,,,,,,,,,,,,,,,
,,60f5763eb0c6dde109026ff5,2026-03-17_07h12.44.075,kallum_motion_pilot_GIST_update_2,2026.1.1,Win32,39.68253968,60f5763eb0c6dde109026ff5,69b95efdef24cd8a694e89ee,69b960d340c63512f8e68458,0.0771,0.0771,0,155,155,72,1,onetwo,,,,,,,,,,,,,,,,,,,,,,,,,,,,,,,,,,,,,,,,,,,,,,,,,,,,,,,,,,,,,,,,,,,,,,,,,,,,,,,,,,,,,,,,,,,,,,,,,,,,,,,,,,,,,,,,,,,,,,,,,,,,,,,,,,,,,,,,,
,,60f5763eb0c6dde109026ff5,2026-03-17_07h12.44.075,kallum_motion_pilot_GIST_update_2,2026.1.1,Win32,39.68253968,60f5763eb0c6dde109026ff5,69b95efdef24cd8a694e89ee,69b960d340c63512f8e68458,0.0773,0.0774,0,156,156,95,1,eightseven,,,,,,,,,,,,,,,,,,,,,,,,,,,,,,,,,,,,,,,,,,,,,,,,,,,,,,,,,,,,,,,,,,,,,,,,,,,,,,,,,,,,,,,,,,,,,,,,,,,,,,,,,,,,,,,,,,,,,,,,,,,,,,,,,,,,,,,,,
,,60f5763eb0c6dde109026ff5,2026-03-17_07h12.44.075,kallum_motion_pilot_GIST_update_2,2026.1.1,Win32,39.68253968,60f5763eb0c6dde109026ff5,69b95efdef24cd8a694e89ee,69b960d340c63512f8e68458,0.0775,0.0776,0,157,157,128,1,fivesix,,,,,,,,,,,,,,,,,,,,,,,,,,,,,,,,,,,,,,,,,,,,,,,,,,,,,,,,,,,,,,,,,,,,,,,,,,,,,,,,,,,,,,,,,,,,,,,,,,,,,,,,,,,,,,,,,,,,,,,,,,,,,,,,,,,,,,,,,
,,60f5763eb0c6dde109026ff5,2026-03-17_07h12.44.075,kallum_motion_pilot_GIST_update_2,2026.1.1,Win32,39.68253968,60f5763eb0c6dde109026ff5,69b95efdef24cd8a694e89ee,69b960d340c63512f8e68458,0.0778,0.0779,0,158,158,111,1,eightseven,,,,,,,,,,,,,,,,,,,,,,,,,,,,,,,,,,,,,,,,,,,,,,,,,,,,,,,,,,,,,,,,,,,,,,,,,,,,,,,,,,,,,,,,,,,,,,,,,,,,,,,,,,,,,,,,,,,,,,,,,,,,,,,,,,,,,,,,,
,,60f5763eb0c6dde109026ff5,2026-03-17_07h12.44.075,kallum_motion_pilot_GIST_update_2,2026.1.1,Win32,39.68253968,60f5763eb0c6dde109026ff5,69b95efdef24cd8a694e89ee,69b960d340c63512f8e68458,0.0782,0.0782,0,159,159,93,1,seveneight,,,,,,,,,,,,,,,,,,,,,,,,,,,,,,,,,,,,,,,,,,,,,,,,,,,,,,,,,,,,,,,,,,,,,,,,,,,,,,,,,,,,,,,,,,,,,,,,,,,,,,,,,,,,,,,,,,,,,,,,,,,,,,,,,,,,,,,,,
,,60f5763eb0c6dde109026ff5,2026-03-17_07h12.44.075,kallum_motion_pilot_GIST_update_2,2026.1.1,Win32,39.68253968,60f5763eb0c6dde109026ff5,69b95efdef24cd8a694e89ee,69b960d340c63512f8e68458,0.0784,0.0785,0,160,160,12,1,threeone,,,,,,,,,,,,,,,,,,,,,,,,,,,,,,,,,,,,,,,,,,,,,,,,,,,,,,,,,,,,,,,,,,,,,,,,,,,,,,,,,,,,,,,,,,,,,,,,,,,,,,,,,,,,,,,,,,,,,,,,,,,,,,,,,,,,,,,,,
,,60f5763eb0c6dde109026ff5,2026-03-17_07h12.44.075,kallum_motion_pilot_GIST_update_2,2026.1.1,Win32,39.68253968,60f5763eb0c6dde109026ff5,69b95efdef24cd8a694e89ee,69b960d340c63512f8e68458,0.0787,0.0787,0,161,161,84,1,sevenfive,,,,,,,,,,,,,,,,,,,,,,,,,,,,,,,,,,,,,,,,,,,,,,,,,,,,,,,,,,,,,,,,,,,,,,,,,,,,,,,,,,,,,,,,,,,,,,,,,,,,,,,,,,,,,,,,,,,,,,,,,,,,,,,,,,,,,,,,,
,,60f5763eb0c6dde109026ff5,2026-03-17_07h12.44.075,kallum_motion_pilot_GIST_update_2,2026.1.1,Win32,39.68253968,60f5763eb0c6dde109026ff5,69b95efdef24cd8a694e89ee,69b960d340c63512f8e68458,0.0791,0.0791,1,0,162,24,1,onetwo,,,,,,,,,,,,,,,,,,,,,,,,,,,,,,,,,,,,,,,,,,,,,,,,,,,,,,,,,,,,,,,,,,,,,,,,,,,,,,,,,,,,,,,,,,,,,,,,,,,,,,,,,,,,,,,,,,,,,,,,,,,,,,,,,,,,,,,,,
,,60f5763eb0c6dde109026ff5,2026-03-17_07h12.44.075,kallum_motion_pilot_GIST_update_2,2026.1.1,Win32,39.68253968,60f5763eb0c6dde109026ff5,69b95efdef24cd8a694e89ee,69b960d340c63512f8e68458,0.0793,0.0794,1,1,163,118,1,eightsix,,,,,,,,,,,,,,,,,,,,,,,,,,,,,,,,,,,,,,,,,,,,,,,,,,,,,,,,,,,,,,,,,,,,,,,,,,,,,,,,,,,,,,,,,,,,,,,,,,,,,,,,,,,,,,,,,,,,,,,,,,,,,,,,,,,,,,,,,
,,60f5763eb0c6dde109026ff5,2026-03-17_07h12.44.075,kallum_motion_pilot_GIST_update_2,2026.1.1,Win32,39.68253968,60f5763eb0c6dde109026ff5,69b95efdef24cd8a694e89ee,69b960d340c63512f8e68458,0.0797,0.0798,1,2,164,104,1,fivesix,,,,,,,,,,,,,,,,,,,,,,,,,,,,,,,,,,,,,,,,,,,,,,,,,,,,,,,,,,,,,,,,,,,,,,,,,,,,,,,,,,,,,,,,,,,,,,,,,,,,,,,,,,,,,,,,,,,,,,,,,,,,,,,,,,,,,,,,,
,,60f5763eb0c6dde109026ff5,2026-03-17_07h12.44.075,kallum_motion_pilot_GIST_update_2,2026.1.1,Win32,39.68253968,60f5763eb0c6dde109026ff5,69b95efdef24cd8a694e89ee,69b960d340c63512f8e68458,0.0801,0.0802,1,3,165,33,1,onethree,,,,,,,,,,,,,,,,,,,,,,,,,,,,,,,,,,,,,,,,,,,,,,,,,,,,,,,,,,,,,,,,,,,,,,,,,,,,,,,,,,,,,,,,,,,,,,,,,,,,,,,,,,,,,,,,,,,,,,,,,,,,,,,,,,,,,,,,,
,,60f5763eb0c6dde109026ff5,2026-03-17_07h12.44.075,kallum_motion_pilot_GIST_update_2,2026.1.1,Win32,39.68253968,60f5763eb0c6dde109026ff5,69b95efdef24cd8a694e89ee,69b960d340c63512f8e68458,0.0805,0.0805,1,4,166,78,1,fourtwo,,,,,,,,,,,,,,,,,,,,,,,,,,,,,,,,,,,,,,,,,,,,,,,,,,,,,,,,,,,,,,,,,,,,,,,,,,,,,,,,,,,,,,,,,,,,,,,,,,,,,,,,,,,,,,,,,,,,,,,,,,,,,,,,,,,,,,,,,
,,60f5763eb0c6dde109026ff5,2026-03-17_07h12.44.075,kallum_motion_pilot_GIST_update_2,2026.1.1,Win32,39.68253968,60f5763eb0c6dde109026ff5,69b95efdef24cd8a694e89ee,69b960d340c63512f8e68458,0.0808,0.0808,1,5,167,138,1,sixfive,,,,,,,,,,,,,,,,,,,,,,,,,,,,,,,,,,,,,,,,,,,,,,,,,,,,,,,,,,,,,,,,,,,,,,,,,,,,,,,,,,,,,,,,,,,,,,,,,,,,,,,,,,,,,,,,,,,,,,,,,,,,,,,,,,,,,,,,,
,,60f5763eb0c6dde109026ff5,2026-03-17_07h12.44.075,kallum_motion_pilot_GIST_update_2,2026.1.1,Win32,39.68253968,60f5763eb0c6dde109026ff5,69b95efdef24cd8a694e89ee,69b960d340c63512f8e68458,0.0811,0.0811,1,6,168,88,1,fivesix,,,,,,,,,,,,,,,,,,,,,,,,,,,,,,,,,,,,,,,,,,,,,,,,,,,,,,,,,,,,,,,,,,,,,,,,,,,,,,,,,,,,,,,,,,,,,,,,,,,,,,,,,,,,,,,,,,,,,,,,,,,,,,,,,,,,,,,,,
,,60f5763eb0c6dde109026ff5,2026-03-17_07h12.44.075,kallum_motion_pilot_GIST_update_2,2026.1.1,Win32,39.68253968,60f5763eb0c6dde109026ff5,69b95efdef24cd8a694e89ee,69b960d340c63512f8e68458,0.0815,0.0815,1,7,169,20,1,threeone,,,,,,,,,,,,,,,,,,,,,,,,,,,,,,,,,,,,,,,,,,,,,,,,,,,,,,,,,,,,,,,,,,,,,,,,,,,,,,,,,,,,,,,,,,,,,,,,,,,,,,,,,,,,,,,,,,,,,,,,,,,,,,,,,,,,,,,,,
,,60f5763eb0c6dde109026ff5,2026-03-17_07h12.44.075,kallum_motion_pilot_GIST_update_2,2026.1.1,Win32,39.68253968,60f5763eb0c6dde109026ff5,69b95efdef24cd8a694e89ee,69b960d340c63512f8e68458,0.0817,0.0818,1,8,170,48,1,onetwo,,,,,,,,,,,,,,,,,,,,,,,,,,,,,,,,,,,,,,,,,,,,,,,,,,,,,,,,,,,,,,,,,,,,,,,,,,,,,,,,,,,,,,,,,,,,,,,,,,,,,,,,,,,,,,,,,,,,,,,,,,,,,,,,,,,,,,,,,
,,60f5763eb0c6dde109026ff5,2026-03-17_07h12.44.075,kallum_motion_pilot_GIST_update_2,2026.1.1,Win32,39.68253968,60f5763eb0c6dde109026ff5,69b95efdef24cd8a694e89ee,69b960d340c63512f8e68458,0.0822,0.0822,1,9,171,74,1,twoone,,,,,,,,,,,,,,,,,,,,,,,,,,,,,,,,,,,,,,,,,,,,,,,,,,,,,,,,,,,,,,,,,,,,,,,,,,,,,,,,,,,,,,,,,,,,,,,,,,,,,,,,,,,,,,,,,,,,,,,,,,,,,,,,,,,,,,,,,
,,60f5763eb0c6dde109026ff5,2026-03-17_07h12.44.075,kallum_motion_pilot_GIST_update_2,2026.1.1,Win32,39.68253968,60f5763eb0c6dde109026ff5,69b95efdef24cd8a694e89ee,69b960d340c63512f8e68458,0.0826,0.0826,1,10,172,126,1,eightsix,,,,,,,,,,,,,,,,,,,,,,,,,,,,,,,,,,,,,,,,,,,,,,,,,,,,,,,,,,,,,,,,,,,,,,,,,,,,,,,,,,,,,,,,,,,,,,,,,,,,,,,,,,,,,,,,,,,,,,,,,,,,,,,,,,,,,,,,,
,,60f5763eb0c6dde109026ff5,2026-03-17_07h12.44.075,kallum_motion_pilot_GIST_update_2,2026.1.1,Win32,39.68253968,60f5763eb0c6dde109026ff5,69b95efdef24cd8a694e89ee,69b960d340c63512f8e68458,0.0829,0.0829,1,11,173,4,1,threeone,,,,,,,,,,,,,,,,,,,,,,,,,,,,,,,,,,,,,,,,,,,,,,,,,,,,,,,,,,,,,,,,,,,,,,,,,,,,,,,,,,,,,,,,,,,,,,,,,,,,,,,,,,,,,,,,,,,,,,,,,,,,,,,,,,,,,,,,,
,,60f5763eb0c6dde109026ff5,2026-03-17_07h12.44.075,kallum_motion_pilot_GIST_update_2,2026.1.1,Win32,39.68253968,60f5763eb0c6dde109026ff5,69b95efdef24cd8a694e89ee,69b960d340c63512f8e68458,0.0831,0.0832,1,12,174,26,1,twoone,,,,,,,,,,,,,,,,,,,,,,,,,,,,,,,,,,,,,,,,,,,,,,,,,,,,,,,,,,,,,,,,,,,,,,,,,,,,,,,,,,,,,,,,,,,,,,,,,,,,,,,,,,,,,,,,,,,,,,,,,,,,,,,,,,,,,,,,,
,,60f5763eb0c6dde109026ff5,2026-03-17_07h12.44.075,kallum_motion_pilot_GIST_update_2,2026.1.1,Win32,39.68253968,60f5763eb0c6dde109026ff5,69b95efdef24cd8a694e89ee,69b960d340c63512f8e68458,0.0835,0.0835,1,13,175,1,1,onethree,,,,,,,,,,,,,,,,,,,,,,,,,,,,,,,,,,,,,,,,,,,,,,,,,,,,,,,,,,,,,,,,,,,,,,,,,,,,,,,,,,,,,,,,,,,,,,,,,,,,,,,,,,,,,,,,,,,,,,,,,,,,,,,,,,,,,,,,,
,,60f5763eb0c6dde109026ff5,2026-03-17_07h12.44.075,kallum_motion_pilot_GIST_update_2,2026.1.1,Win32,39.68253968,60f5763eb0c6dde109026ff5,69b95efdef24cd8a694e89ee,69b960d340c63512f8e68458,0.0838,0.0838,1,14,176,95,1,eightseven,,,,,,,,,,,,,,,,,,,,,,,,,,,,,,,,,,,,,,,,,,,,,,,,,,,,,,,,,,,,,,,,,,,,,,,,,,,,,,,,,,,,,,,,,,,,,,,,,,,,,,,,,,,,,,,,,,,,,,,,,,,,,,,,,,,,,,,,,
,,60f5763eb0c6dde109026ff5,2026-03-17_07h12.44.075,kallum_motion_pilot_GIST_update_2,2026.1.1,Win32,39.68253968,60f5763eb0c6dde109026ff5,69b95efdef24cd8a694e89ee,69b960d340c63512f8e68458,0.0841,0.0841,1,15,177,136,1,fivesix,,,,,,,,,,,,,,,,,,,,,,,,,,,,,,,,,,,,,,,,,,,,,,,,,,,,,,,,,,,,,,,,,,,,,,,,,,,,,,,,,,,,,,,,,,,,,,,,,,,,,,,,,,,,,,,,,,,,,,,,,,,,,,,,,,,,,,,,,
,,60f5763eb0c6dde109026ff5,2026-03-17_07h12.44.075,kallum_motion_pilot_GIST_update_2,2026.1.1,Win32,39.68253968,60f5763eb0c6dde109026ff5,69b95efdef24cd8a694e89ee,69b960d340c63512f8e68458,0.0844,0.0844,1,16,178,59,1,twofour,,,,,,,,,,,,,,,,,,,,,,,,,,,,,,,,,,,,,,,,,,,,,,,,,,,,,,,,,,,,,,,,,,,,,,,,,,,,,,,,,,,,,,,,,,,,,,,,,,,,,,,,,,,,,,,,,,,,,,,,,,,,,,,,,,,,,,,,,
,,60f5763eb0c6dde109026ff5,2026-03-17_07h12.44.075,kallum_motion_pilot_GIST_update_2,2026.1.1,Win32,39.68253968,60f5763eb0c6dde109026ff5,69b95efdef24cd8a694e89ee,69b960d340c63512f8e68458,0.0847,0.0847,1,17,179,77,1,threefour,,,,,,,,,,,,,,,,,,,,,,,,,,,,,,,,,,,,,,,,,,,,,,,,,,,,,,,,,,,,,,,,,,,,,,,,,,,,,,,,,,,,,,,,,,,,,,,,,,,,,,,,,,,,,,,,,,,,,,,,,,,,,,,,,,,,,,,,,
,,60f5763eb0c6dde109026ff5,2026-03-17_07h12.44.075,kallum_motion_pilot_GIST_update_2,2026.1.1,Win32,39.68253968,60f5763eb0c6dde109026ff5,69b95efdef24cd8a694e89ee,69b960d340c63512f8e68458,0.0851,0.0851,1,18,180,40,1,onetwo,,,,,,,,,,,,,,,,,,,,,,,,,,,,,,,,,,,,,,,,,,,,,,,,,,,,,,,,,,,,,,,,,,,,,,,,,,,,,,,,,,,,,,,,,,,,,,,,,,,,,,,,,,,,,,,,,,,,,,,,,,,,,,,,,,,,,,,,,
,,60f5763eb0c6dde109026ff5,2026-03-17_07h12.44.075,kallum_motion_pilot_GIST_update_2,2026.1.1,Win32,39.68253968,60f5763eb0c6dde109026ff5,69b95efdef24cd8a694e89ee,69b960d340c63512f8e68458,0.0854,0.0854,1,19,181,94,1,eightsix,,,,,,,,,,,,,,,,,,,,,,,,,,,,,,,,,,,,,,,,,,,,,,,,,,,,,,,,,,,,,,,,,,,,,,,,,,,,,,,,,,,,,,,,,,,,,,,,,,,,,,,,,,,,,,,,,,,,,,,,,,,,,,,,,,,,,,,,,
,,60f5763eb0c6dde109026ff5,2026-03-17_07h12.44.075,kallum_motion_pilot_GIST_update_2,2026.1.1,Win32,39.68253968,60f5763eb0c6dde109026ff5,69b95efdef24cd8a694e89ee,69b960d340c63512f8e68458,0.0857,0.0857,1,20,182,8,1,onetwo,,,,,,,,,,,,,,,,,,,,,,,,,,,,,,,,,,,,,,,,,,,,,,,,,,,,,,,,,,,,,,,,,,,,,,,,,,,,,,,,,,,,,,,,,,,,,,,,,,,,,,,,,,,,,,,,,,,,,,,,,,,,,,,,,,,,,,,,,
,,60f5763eb0c6dde109026ff5,2026-03-17_07h12.44.075,kallum_motion_pilot_GIST_update_2,2026.1.1,Win32,39.68253968,60f5763eb0c6dde109026ff5,69b95efdef24cd8a694e89ee,69b960d340c63512f8e68458,0.086,0.0861,1,21,183,14,1,fourtwo,,,,,,,,,,,,,,,,,,,,,,,,,,,,,,,,,,,,,,,,,,,,,,,,,,,,,,,,,,,,,,,,,,,,,,,,,,,,,,,,,,,,,,,,,,,,,,,,,,,,,,,,,,,,,,,,,,,,,,,,,,,,,,,,,,,,,,,,,
,,60f5763eb0c6dde109026ff5,2026-03-17_07h12.44.075,kallum_motion_pilot_GIST_update_2,2026.1.1,Win32,39.68253968,60f5763eb0c6dde109026ff5,69b95efdef24cd8a694e89ee,69b960d340c63512f8e68458,0.0863,0.0863,1,22,184,80,1,fivesix,,,,,,,,,,,,,,,,,,,,,,,,,,,,,,,,,,,,,,,,,,,,,,,,,,,,,,,,,,,,,,,,,,,,,,,,,,,,,,,,,,,,,,,,,,,,,,,,,,,,,,,,,,,,,,,,,,,,,,,,,,,,,,,,,,,,,,,,,
,,60f5763eb0c6dde109026ff5,2026-03-17_07h12.44.075,kallum_motion_pilot_GIST_update_2,2026.1.1,Win32,39.68253968,60f5763eb0c6dde109026ff5,69b95efdef24cd8a694e89ee,69b960d340c63512f8e68458,0.0867,0.0867,1,23,185,21,1,threefour,,,,,,,,,,,,,,,,,,,,,,,,,,,,,,,,,,,,,,,,,,,,,,,,,,,,,,,,,,,,,,,,,,,,,,,,,,,,,,,,,,,,,,,,,,,,,,,,,,,,,,,,,,,,,,,,,,,,,,,,,,,,,,,,,,,,,,,,,
,,60f5763eb0c6dde109026ff5,2026-03-17_07h12.44.075,kallum_motion_pilot_GIST_update_2,2026.1.1,Win32,39.68253968,60f5763eb0c6dde109026ff5,69b95efdef24cd8a694e89ee,69b960d340c63512f8e68458,0.0869,0.0869,1,24,186,12,1,threeone,,,,,,,,,,,,,,,,,,,,,,,,,,,,,,,,,,,,,,,,,,,,,,,,,,,,,,,,,,,,,,,,,,,,,,,,,,,,,,,,,,,,,,,,,,,,,,,,,,,,,,,,,,,,,,,,,,,,,,,,,,,,,,,,,,,,,,,,,
,,60f5763eb0c6dde109026ff5,2026-03-17_07h12.44.075,kallum_motion_pilot_GIST_update_2,2026.1.1,Win32,39.68253968,60f5763eb0c6dde109026ff5,69b95efdef24cd8a694e89ee,69b960d340c63512f8e68458,0.0873,0.0873,1,25,187,66,1,twoone,,,,,,,,,,,,,,,,,,,,,,,,,,,,,,,,,,,,,,,,,,,,,,,,,,,,,,,,,,,,,,,,,,,,,,,,,,,,,,,,,,,,,,,,,,,,,,,,,,,,,,,,,,,,,,,,,,,,,,,,,,,,,,,,,,,,,,,,,
,,60f5763eb0c6dde109026ff5,2026-03-17_07h12.44.075,kallum_motion_pilot_GIST_update_2,2026.1.1,Win32,39.68253968,60f5763eb0c6dde109026ff5,69b95efdef24cd8a694e89ee,69b960d340c63512f8e68458,0.0876,0.0877,1,26,188,45,1,threefour,,,,,,,,,,,,,,,,,,,,,,,,,,,,,,,,,,,,,,,,,,,,,,,,,,,,,,,,,,,,,,,,,,,,,,,,,,,,,,,,,,,,,,,,,,,,,,,,,,,,,,,,,,,,,,,,,,,,,,,,,,,,,,,,,,,,,,,,,
,,60f5763eb0c6dde109026ff5,2026-03-17_07h12.44.075,kallum_motion_pilot_GIST_update_2,2026.1.1,Win32,39.68253968,60f5763eb0c6dde109026ff5,69b95efdef24cd8a694e89ee,69b960d340c63512f8e68458,0.088,0.088,1,27,189,6,1,fourtwo,,,,,,,,,,,,,,,,,,,,,,,,,,,,,,,,,,,,,,,,,,,,,,,,,,,,,,,,,,,,,,,,,,,,,,,,,,,,,,,,,,,,,,,,,,,,,,,,,,,,,,,,,,,,,,,,,,,,,,,,,,,,,,,,,,,,,,,,,
,,60f5763eb0c6dde109026ff5,2026-03-17_07h12.44.075,kallum_motion_pilot_GIST_update_2,2026.1.1,Win32,39.68253968,60f5763eb0c6dde109026ff5,69b95efdef24cd8a694e89ee,69b960d340c63512f8e68458,0.0884,0.0884,1,28,190,91,1,sixeight,,,,,,,,,,,,,,,,,,,,,,,,,,,,,,,,,,,,,,,,,,,,,,,,,,,,,,,,,,,,,,,,,,,,,,,,,,,,,,,,,,,,,,,,,,,,,,,,,,,,,,,,,,,,,,,,,,,,,,,,,,,,,,,,,,,,,,,,,
,,60f5763eb0c6dde109026ff5,2026-03-17_07h12.44.075,kallum_motion_pilot_GIST_update_2,2026.1.1,Win32,39.68253968,60f5763eb0c6dde109026ff5,69b95efdef24cd8a694e89ee,69b960d340c63512f8e68458,0.0887,0.0887,1,29,191,102,1,eightsix,,,,,,,,,,,,,,,,,,,,,,,,,,,,,,,,,,,,,,,,,,,,,,,,,,,,,,,,,,,,,,,,,,,,,,,,,,,,,,,,,,,,,,,,,,,,,,,,,,,,,,,,,,,,,,,,,,,,,,,,,,,,,,,,,,,,,,,,,
,,60f5763eb0c6dde109026ff5,2026-03-17_07h12.44.075,kallum_motion_pilot_GIST_update_2,2026.1.1,Win32,39.68253968,60f5763eb0c6dde109026ff5,69b95efdef24cd8a694e89ee,69b960d340c63512f8e68458,0.089,0.089,1,30,192,23,1,fourthree,,,,,,,,,,,,,,,,,,,,,,,,,,,,,,,,,,,,,,,,,,,,,,,,,,,,,,,,,,,,,,,,,,,,,,,,,,,,,,,,,,,,,,,,,,,,,,,,,,,,,,,,,,,,,,,,,,,,,,,,,,,,,,,,,,,,,,,,,
,,60f5763eb0c6dde109026ff5,2026-03-17_07h12.44.075,kallum_motion_pilot_GIST_update_2,2026.1.1,Win32,39.68253968,60f5763eb0c6dde109026ff5,69b95efdef24cd8a694e89ee,69b960d340c63512f8e68458,0.0894,0.0894,1,31,193,58,1,twoone,,,,,,,,,,,,,,,,,,,,,,,,,,,,,,,,,,,,,,,,,,,,,,,,,,,,,,,,,,,,,,,,,,,,,,,,,,,,,,,,,,,,,,,,,,,,,,,,,,,,,,,,,,,,,,,,,,,,,,,,,,,,,,,,,,,,,,,,,
,,60f5763eb0c6dde109026ff5,2026-03-17_07h12.44.075,kallum_motion_pilot_GIST_update_2,2026.1.1,Win32,39.68253968,60f5763eb0c6dde109026ff5,69b95efdef24cd8a694e89ee,69b960d340c63512f8e68458,0.0898,0.0898,1,32,194,53,1,threefour,,,,,,,,,,,,,,,,,,,,,,,,,,,,,,,,,,,,,,,,,,,,,,,,,,,,,,,,,,,,,,,,,,,,,,,,,,,,,,,,,,,,,,,,,,,,,,,,,,,,,,,,,,,,,,,,,,,,,,,,,,,,,,,,,,,,,,,,,
,,60f5763eb0c6dde109026ff5,2026-03-17_07h12.44.075,kallum_motion_pilot_GIST_update_2,2026.1.1,Win32,39.68253968,60f5763eb0c6dde109026ff5,69b95efdef24cd8a694e89ee,69b960d340c63512f8e68458,0.0902,0.0903,1,33,195,124,1,sevenfive,,,,,,,,,,,,,,,,,,,,,,,,,,,,,,,,,,,,,,,,,,,,,,,,,,,,,,,,,,,,,,,,,,,,,,,,,,,,,,,,,,,,,,,,,,,,,,,,,,,,,,,,,,,,,,,,,,,,,,,,,,,,,,,,,,,,,,,,,
,,60f5763eb0c6dde109026ff5,2026-03-17_07h12.44.075,kallum_motion_pilot_GIST_update_2,2026.1.1,Win32,39.68253968,60f5763eb0c6dde109026ff5,69b95efdef24cd8a694e89ee,69b960d340c63512f8e68458,0.0905,0.0905,1,34,196,123,1,sixeight,,,,,,,,,,,,,,,,,,,,,,,,,,,,,,,,,,,,,,,,,,,,,,,,,,,,,,,,,,,,,,,,,,,,,,,,,,,,,,,,,,,,,,,,,,,,,,,,,,,,,,,,,,,,,,,,,,,,,,,,,,,,,,,,,,,,,,,,,
,,60f5763eb0c6dde109026ff5,2026-03-17_07h12.44.075,kallum_motion_pilot_GIST_update_2,2026.1.1,Win32,39.68253968,60f5763eb0c6dde109026ff5,69b95efdef24cd8a694e89ee,69b960d340c63512f8e68458,0.0909,0.0909,1,35,197,30,1,fourtwo,,,,,,,,,,,,,,,,,,,,,,,,,,,,,,,,,,,,,,,,,,,,,,,,,,,,,,,,,,,,,,,,,,,,,,,,,,,,,,,,,,,,,,,,,,,,,,,,,,,,,,,,,,,,,,,,,,,,,,,,,,,,,,,,,,,,,,,,,
,,60f5763eb0c6dde109026ff5,2026-03-17_07h12.44.075,kallum_motion_pilot_GIST_update_2,2026.1.1,Win32,39.68253968,60f5763eb0c6dde109026ff5,69b95efdef24cd8a694e89ee,69b960d340c63512f8e68458,0.0912,0.0912,1,36,198,109,1,seveneight,,,,,,,,,,,,,,,,,,,,,,,,,,,,,,,,,,,,,,,,,,,,,,,,,,,,,,,,,,,,,,,,,,,,,,,,,,,,,,,,,,,,,,,,,,,,,,,,,,,,,,,,,,,,,,,,,,,,,,,,,,,,,,,,,,,,,,,,,
,,60f5763eb0c6dde109026ff5,2026-03-17_07h12.44.075,kallum_motion_pilot_GIST_update_2,2026.1.1,Win32,39.68253968,60f5763eb0c6dde109026ff5,69b95efdef24cd8a694e89ee,69b960d340c63512f8e68458,0.0915,0.0915,1,37,199,64,1,onetwo,,,,,,,,,,,,,,,,,,,,,,,,,,,,,,,,,,,,,,,,,,,,,,,,,,,,,,,,,,,,,,,,,,,,,,,,,,,,,,,,,,,,,,,,,,,,,,,,,,,,,,,,,,,,,,,,,,,,,,,,,,,,,,,,,,,,,,,,,
,,60f5763eb0c6dde109026ff5,2026-03-17_07h12.44.075,kallum_motion_pilot_GIST_update_2,2026.1.1,Win32,39.68253968,60f5763eb0c6dde109026ff5,69b95efdef24cd8a694e89ee,69b960d340c63512f8e68458,0.0917,0.0917,1,38,200,25,1,onethree,,,,,,,,,,,,,,,,,,,,,,,,,,,,,,,,,,,,,,,,,,,,,,,,,,,,,,,,,,,,,,,,,,,,,,,,,,,,,,,,,,,,,,,,,,,,,,,,,,,,,,,,,,,,,,,,,,,,,,,,,,,,,,,,,,,,,,,,,
,,60f5763eb0c6dde109026ff5,2026-03-17_07h12.44.075,kallum_motion_pilot_GIST_update_2,2026.1.1,Win32,39.68253968,60f5763eb0c6dde109026ff5,69b95efdef24cd8a694e89ee,69b960d340c63512f8e68458,0.092,0.092,1,39,201,120,1,fivesix,,,,,,,,,,,,,,,,,,,,,,,,,,,,,,,,,,,,,,,,,,,,,,,,,,,,,,,,,,,,,,,,,,,,,,,,,,,,,,,,,,,,,,,,,,,,,,,,,,,,,,,,,,,,,,,,,,,,,,,,,,,,,,,,,,,,,,,,,
,,60f5763eb0c6dde109026ff5,2026-03-17_07h12.44.075,kallum_motion_pilot_GIST_update_2,2026.1.1,Win32,39.68253968,60f5763eb0c6dde109026ff5,69b95efdef24cd8a694e89ee,69b960d340c63512f8e68458,0.0923,0.0923,1,40,202,157,1,seveneight,,,,,,,,,,,,,,,,,,,,,,,,,,,,,,,,,,,,,,,,,,,,,,,,,,,,,,,,,,,,,,,,,,,,,,,,,,,,,,,,,,,,,,,,,,,,,,,,,,,,,,,,,,,,,,,,,,,,,,,,,,,,,,,,,,,,,,,,,
,,60f5763eb0c6dde109026ff5,2026-03-17_07h12.44.075,kallum_motion_pilot_GIST_update_2,2026.1.1,Win32,39.68253968,60f5763eb0c6dde109026ff5,69b95efdef24cd8a694e89ee,69b960d340c63512f8e68458,0.0926,0.0926,1,41,203,32,1,onetwo,,,,,,,,,,,,,,,,,,,,,,,,,,,,,,,,,,,,,,,,,,,,,,,,,,,,,,,,,,,,,,,,,,,,,,,,,,,,,,,,,,,,,,,,,,,,,,,,,,,,,,,,,,,,,,,,,,,,,,,,,,,,,,,,,,,,,,,,,
,,60f5763eb0c6dde109026ff5,2026-03-17_07h12.44.075,kallum_motion_pilot_GIST_update_2,2026.1.1,Win32,39.68253968,60f5763eb0c6dde109026ff5,69b95efdef24cd8a694e89ee,69b960d340c63512f8e68458,0.0928,0.0929,1,42,204,41,1,onethree,,,,,,,,,,,,,,,,,,,,,,,,,,,,,,,,,,,,,,,,,,,,,,,,,,,,,,,,,,,,,,,,,,,,,,,,,,,,,,,,,,,,,,,,,,,,,,,,,,,,,,,,,,,,,,,,,,,,,,,,,,,,,,,,,,,,,,,,,
,,60f5763eb0c6dde109026ff5,2026-03-17_07h12.44.075,kallum_motion_pilot_GIST_update_2,2026.1.1,Win32,39.68253968,60f5763eb0c6dde109026ff5,69b95efdef24cd8a694e89ee,69b960d340c63512f8e68458,0.0932,0.0932,1,43,205,9,1,onethree,,,,,,,,,,,,,,,,,,,,,,,,,,,,,,,,,,,,,,,,,,,,,,,,,,,,,,,,,,,,,,,,,,,,,,,,,,,,,,,,,,,,,,,,,,,,,,,,,,,,,,,,,,,,,,,,,,,,,,,,,,,,,,,,,,,,,,,,,
,,60f5763eb0c6dde109026ff5,2026-03-17_07h12.44.075,kallum_motion_pilot_GIST_update_2,2026.1.1,Win32,39.68253968,60f5763eb0c6dde109026ff5,69b95efdef24cd8a694e89ee,69b960d340c63512f8e68458,0.0935,0.0935,1,44,206,106,1,sixfive,,,,,,,,,,,,,,,,,,,,,,,,,,,,,,,,,,,,,,,,,,,,,,,,,,,,,,,,,,,,,,,,,,,,,,,,,,,,,,,,,,,,,,,,,,,,,,,,,,,,,,,,,,,,,,,,,,,,,,,,,,,,,,,,,,,,,,,,,
,,60f5763eb0c6dde109026ff5,2026-03-17_07h12.44.075,kallum_motion_pilot_GIST_update_2,2026.1.1,Win32,39.68253968,60f5763eb0c6dde109026ff5,69b95efdef24cd8a694e89ee,69b960d340c63512f8e68458,0.0938,0.0938,1,45,207,79,1,eightseven,,,,,,,,,,,,,,,,,,,,,,,,,,,,,,,,,,,,,,,,,,,,,,,,,,,,,,,,,,,,,,,,,,,,,,,,,,,,,,,,,,,,,,,,,,,,,,,,,,,,,,,,,,,,,,,,,,,,,,,,,,,,,,,,,,,,,,,,,
,,60f5763eb0c6dde109026ff5,2026-03-17_07h12.44.075,kallum_motion_pilot_GIST_update_2,2026.1.1,Win32,39.68253968,60f5763eb0c6dde109026ff5,69b95efdef24cd8a694e89ee,69b960d340c63512f8e68458,0.0941,0.0941,1,46,208,68,1,threeone,,,,,,,,,,,,,,,,,,,,,,,,,,,,,,,,,,,,,,,,,,,,,,,,,,,,,,,,,,,,,,,,,,,,,,,,,,,,,,,,,,,,,,,,,,,,,,,,,,,,,,,,,,,,,,,,,,,,,,,,,,,,,,,,,,,,,,,,,
,,60f5763eb0c6dde109026ff5,2026-03-17_07h12.44.075,kallum_motion_pilot_GIST_update_2,2026.1.1,Win32,39.68253968,60f5763eb0c6dde109026ff5,69b95efdef24cd8a694e89ee,69b960d340c63512f8e68458,0.0944,0.0944,1,47,209,65,1,onethree,,,,,,,,,,,,,,,,,,,,,,,,,,,,,,,,,,,,,,,,,,,,,,,,,,,,,,,,,,,,,,,,,,,,,,,,,,,,,,,,,,,,,,,,,,,,,,,,,,,,,,,,,,,,,,,,,,,,,,,,,,,,,,,,,,,,,,,,,
,,60f5763eb0c6dde109026ff5,2026-03-17_07h12.44.075,kallum_motion_pilot_GIST_update_2,2026.1.1,Win32,39.68253968,60f5763eb0c6dde109026ff5,69b95efdef24cd8a694e89ee,69b960d340c63512f8e68458,0.0946,0.0946,1,48,210,119,1,eightseven,,,,,,,,,,,,,,,,,,,,,,,,,,,,,,,,,,,,,,,,,,,,,,,,,,,,,,,,,,,,,,,,,,,,,,,,,,,,,,,,,,,,,,,,,,,,,,,,,,,,,,,,,,,,,,,,,,,,,,,,,,,,,,,,,,,,,,,,,
,,60f5763eb0c6dde109026ff5,2026-03-17_07h12.44.075,kallum_motion_pilot_GIST_update_2,2026.1.1,Win32,39.68253968,60f5763eb0c6dde109026ff5,69b95efdef24cd8a694e89ee,69b960d340c63512f8e68458,0.095,0.095,1,49,211,82,1,sixfive,,,,,,,,,,,,,,,,,,,,,,,,,,,,,,,,,,,,,,,,,,,,,,,,,,,,,,,,,,,,,,,,,,,,,,,,,,,,,,,,,,,,,,,,,,,,,,,,,,,,,,,,,,,,,,,,,,,,,,,,,,,,,,,,,,,,,,,,,
,,60f5763eb0c6dde109026ff5,2026-03-17_07h12.44.075,kallum_motion_pilot_GIST_update_2,2026.1.1,Win32,39.68253968,60f5763eb0c6dde109026ff5,69b95efdef24cd8a694e89ee,69b960d340c63512f8e68458,0.0952,0.0953,1,50,212,93,1,seveneight,,,,,,,,,,,,,,,,,,,,,,,,,,,,,,,,,,,,,,,,,,,,,,,,,,,,,,,,,,,,,,,,,,,,,,,,,,,,,,,,,,,,,,,,,,,,,,,,,,,,,,,,,,,,,,,,,,,,,,,,,,,,,,,,,,,,,,,,,
,,60f5763eb0c6dde109026ff5,2026-03-17_07h12.44.075,kallum_motion_pilot_GIST_update_2,2026.1.1,Win32,39.68253968,60f5763eb0c6dde109026ff5,69b95efdef24cd8a694e89ee,69b960d340c63512f8e68458,0.0957,0.0957,1,51,213,98,1,sixfive,,,,,,,,,,,,,,,,,,,,,,,,,,,,,,,,,,,,,,,,,,,,,,,,,,,,,,,,,,,,,,,,,,,,,,,,,,,,,,,,,,,,,,,,,,,,,,,,,,,,,,,,,,,,,,,,,,,,,,,,,,,,,,,,,,,,,,,,,
,,60f5763eb0c6dde109026ff5,2026-03-17_07h12.44.075,kallum_motion_pilot_GIST_update_2,2026.1.1,Win32,39.68253968,60f5763eb0c6dde109026ff5,69b95efdef24cd8a694e89ee,69b960d340c63512f8e68458,0.0959,0.0959,1,52,214,99,1,sixeight,,,,,,,,,,,,,,,,,,,,,,,,,,,,,,,,,,,,,,,,,,,,,,,,,,,,,,,,,,,,,,,,,,,,,,,,,,,,,,,,,,,,,,,,,,,,,,,,,,,,,,,,,,,,,,,,,,,,,,,,,,,,,,,,,,,,,,,,,
,,60f5763eb0c6dde109026ff5,2026-03-17_07h12.44.075,kallum_motion_pilot_GIST_update_2,2026.1.1,Win32,39.68253968,60f5763eb0c6dde109026ff5,69b95efdef24cd8a694e89ee,69b960d340c63512f8e68458,0.0963,0.0963,1,53,215,10,1,twoone,,,,,,,,,,,,,,,,,,,,,,,,,,,,,,,,,,,,,,,,,,,,,,,,,,,,,,,,,,,,,,,,,,,,,,,,,,,,,,,,,,,,,,,,,,,,,,,,,,,,,,,,,,,,,,,,,,,,,,,,,,,,,,,,,,,,,,,,,
,,60f5763eb0c6dde109026ff5,2026-03-17_07h12.44.075,kallum_motion_pilot_GIST_update_2,2026.1.1,Win32,39.68253968,60f5763eb0c6dde109026ff5,69b95efdef24cd8a694e89ee,69b960d340c63512f8e68458,0.0966,0.0967,1,54,216,22,1,fourtwo,,,,,,,,,,,,,,,,,,,,,,,,,,,,,,,,,,,,,,,,,,,,,,,,,,,,,,,,,,,,,,,,,,,,,,,,,,,,,,,,,,,,,,,,,,,,,,,,,,,,,,,,,,,,,,,,,,,,,,,,,,,,,,,,,,,,,,,,,
,,60f5763eb0c6dde109026ff5,2026-03-17_07h12.44.075,kallum_motion_pilot_GIST_update_2,2026.1.1,Win32,39.68253968,60f5763eb0c6dde109026ff5,69b95efdef24cd8a694e89ee,69b960d340c63512f8e68458,0.097,0.097,1,55,217,27,1,twofour,,,,,,,,,,,,,,,,,,,,,,,,,,,,,,,,,,,,,,,,,,,,,,,,,,,,,,,,,,,,,,,,,,,,,,,,,,,,,,,,,,,,,,,,,,,,,,,,,,,,,,,,,,,,,,,,,,,,,,,,,,,,,,,,,,,,,,,,,
,,60f5763eb0c6dde109026ff5,2026-03-17_07h12.44.075,kallum_motion_pilot_GIST_update_2,2026.1.1,Win32,39.68253968,60f5763eb0c6dde109026ff5,69b95efdef24cd8a694e89ee,69b960d340c63512f8e68458,0.0973,0.0973,1,56,218,130,1,sixfive,,,,,,,,,,,,,,,,,,,,,,,,,,,,,,,,,,,,,,,,,,,,,,,,,,,,,,,,,,,,,,,,,,,,,,,,,,,,,,,,,,,,,,,,,,,,,,,,,,,,,,,,,,,,,,,,,,,,,,,,,,,,,,,,,,,,,,,,,
,,60f5763eb0c6dde109026ff5,2026-03-17_07h12.44.075,kallum_motion_pilot_GIST_update_2,2026.1.1,Win32,39.68253968,60f5763eb0c6dde109026ff5,69b95efdef24cd8a694e89ee,69b960d340c63512f8e68458,0.0975,0.0975,1,57,219,5,1,threefour,,,,,,,,,,,,,,,,,,,,,,,,,,,,,,,,,,,,,,,,,,,,,,,,,,,,,,,,,,,,,,,,,,,,,,,,,,,,,,,,,,,,,,,,,,,,,,,,,,,,,,,,,,,,,,,,,,,,,,,,,,,,,,,,,,,,,,,,,
,,60f5763eb0c6dde109026ff5,2026-03-17_07h12.44.075,kallum_motion_pilot_GIST_update_2,2026.1.1,Win32,39.68253968,60f5763eb0c6dde109026ff5,69b95efdef24cd8a694e89ee,69b960d340c63512f8e68458,0.0978,0.0978,1,58,220,159,1,eightseven,,,,,,,,,,,,,,,,,,,,,,,,,,,,,,,,,,,,,,,,,,,,,,,,,,,,,,,,,,,,,,,,,,,,,,,,,,,,,,,,,,,,,,,,,,,,,,,,,,,,,,,,,,,,,,,,,,,,,,,,,,,,,,,,,,,,,,,,,
,,60f5763eb0c6dde109026ff5,2026-03-17_07h12.44.075,kallum_motion_pilot_GIST_update_2,2026.1.1,Win32,39.68253968,60f5763eb0c6dde109026ff5,69b95efdef24cd8a694e89ee,69b960d340c63512f8e68458,0.098,0.0981,1,59,221,134,1,eightsix,,,,,,,,,,,,,,,,,,,,,,,,,,,,,,,,,,,,,,,,,,,,,,,,,,,,,,,,,,,,,,,,,,,,,,,,,,,,,,,,,,,,,,,,,,,,,,,,,,,,,,,,,,,,,,,,,,,,,,,,,,,,,,,,,,,,,,,,,
,,60f5763eb0c6dde109026ff5,2026-03-17_07h12.44.075,kallum_motion_pilot_GIST_update_2,2026.1.1,Win32,39.68253968,60f5763eb0c6dde109026ff5,69b95efdef24cd8a694e89ee,69b960d340c63512f8e68458,0.0984,0.0984,1,60,222,28,1,threeone,,,,,,,,,,,,,,,,,,,,,,,,,,,,,,,,,,,,,,,,,,,,,,,,,,,,,,,,,,,,,,,,,,,,,,,,,,,,,,,,,,,,,,,,,,,,,,,,,,,,,,,,,,,,,,,,,,,,,,,,,,,,,,,,,,,,,,,,,
,,60f5763eb0c6dde109026ff5,2026-03-17_07h12.44.075,kallum_motion_pilot_GIST_update_2,2026.1.1,Win32,39.68253968,60f5763eb0c6dde109026ff5,69b95efdef24cd8a694e89ee,69b960d340c63512f8e68458,0.0987,0.0987,1,61,223,110,1,eightsix,,,,,,,,,,,,,,,,,,,,,,,,,,,,,,,,,,,,,,,,,,,,,,,,,,,,,,,,,,,,,,,,,,,,,,,,,,,,,,,,,,,,,,,,,,,,,,,,,,,,,,,,,,,,,,,,,,,,,,,,,,,,,,,,,,,,,,,,,
,,60f5763eb0c6dde109026ff5,2026-03-17_07h12.44.075,kallum_motion_pilot_GIST_update_2,2026.1.1,Win32,39.68253968,60f5763eb0c6dde109026ff5,69b95efdef24cd8a694e89ee,69b960d340c63512f8e68458,0.0989,0.0989,1,62,224,13,1,threefour,,,,,,,,,,,,,,,,,,,,,,,,,,,,,,,,,,,,,,,,,,,,,,,,,,,,,,,,,,,,,,,,,,,,,,,,,,,,,,,,,,,,,,,,,,,,,,,,,,,,,,,,,,,,,,,,,,,,,,,,,,,,,,,,,,,,,,,,,
,,60f5763eb0c6dde109026ff5,2026-03-17_07h12.44.075,kallum_motion_pilot_GIST_update_2,2026.1.1,Win32,39.68253968,60f5763eb0c6dde109026ff5,69b95efdef24cd8a694e89ee,69b960d340c63512f8e68458,0.0992,0.0992,1,63,225,131,1,sixeight,,,,,,,,,,,,,,,,,,,,,,,,,,,,,,,,,,,,,,,,,,,,,,,,,,,,,,,,,,,,,,,,,,,,,,,,,,,,,,,,,,,,,,,,,,,,,,,,,,,,,,,,,,,,,,,,,,,,,,,,,,,,,,,,,,,,,,,,,
,,60f5763eb0c6dde109026ff5,2026-03-17_07h12.44.075,kallum_motion_pilot_GIST_update_2,2026.1.1,Win32,39.68253968,60f5763eb0c6dde109026ff5,69b95efdef24cd8a694e89ee,69b960d340c63512f8e68458,0.0996,0.0996,1,64,226,46,1,fourtwo,,,,,,,,,,,,,,,,,,,,,,,,,,,,,,,,,,,,,,,,,,,,,,,,,,,,,,,,,,,,,,,,,,,,,,,,,,,,,,,,,,,,,,,,,,,,,,,,,,,,,,,,,,,,,,,,,,,,,,,,,,,,,,,,,,,,,,,,,
,,60f5763eb0c6dde109026ff5,2026-03-17_07h12.44.075,kallum_motion_pilot_GIST_update_2,2026.1.1,Win32,39.68253968,60f5763eb0c6dde109026ff5,69b95efdef24cd8a694e89ee,69b960d340c63512f8e68458,0.0999,0.0999,1,65,227,149,1,seveneight,,,,,,,,,,,,,,,,,,,,,,,,,,,,,,,,,,,,,,,,,,,,,,,,,,,,,,,,,,,,,,,,,,,,,,,,,,,,,,,,,,,,,,,,,,,,,,,,,,,,,,,,,,,,,,,,,,,,,,,,,,,,,,,,,,,,,,,,,
,,60f5763eb0c6dde109026ff5,2026-03-17_07h12.44.075,kallum_motion_pilot_GIST_update_2,2026.1.1,Win32,39.68253968,60f5763eb0c6dde109026ff5,69b95efdef24cd8a694e89ee,69b960d340c63512f8e68458,0.1002,0.1002,1,66,228,85,1,seveneight,,,,,,,,,,,,,,,,,,,,,,,,,,,,,,,,,,,,,,,,,,,,,,,,,,,,,,,,,,,,,,,,,,,,,,,,,,,,,,,,,,,,,,,,,,,,,,,,,,,,,,,,,,,,,,,,,,,,,,,,,,,,,,,,,,,,,,,,,
,,60f5763eb0c6dde109026ff5,2026-03-17_07h12.44.075,kallum_motion_pilot_GIST_update_2,2026.1.1,Win32,39.68253968,60f5763eb0c6dde109026ff5,69b95efdef24cd8a694e89ee,69b960d340c63512f8e68458,0.1004,0.1004,1,67,229,121,1,fiveseven,,,,,,,,,,,,,,,,,,,,,,,,,,,,,,,,,,,,,,,,,,,,,,,,,,,,,,,,,,,,,,,,,,,,,,,,,,,,,,,,,,,,,,,,,,,,,,,,,,,,,,,,,,,,,,,,,,,,,,,,,,,,,,,,,,,,,,,,,
,,60f5763eb0c6dde109026ff5,2026-03-17_07h12.44.075,kallum_motion_pilot_GIST_update_2,2026.1.1,Win32,39.68253968,60f5763eb0c6dde109026ff5,69b95efdef24cd8a694e89ee,69b960d340c63512f8e68458,0.1009,0.1009,1,68,230,19,1,twofour,,,,,,,,,,,,,,,,,,,,,,,,,,,,,,,,,,,,,,,,,,,,,,,,,,,,,,,,,,,,,,,,,,,,,,,,,,,,,,,,,,,,,,,,,,,,,,,,,,,,,,,,,,,,,,,,,,,,,,,,,,,,,,,,,,,,,,,,,
,,60f5763eb0c6dde109026ff5,2026-03-17_07h12.44.075,kallum_motion_pilot_GIST_update_2,2026.1.1,Win32,39.68253968,60f5763eb0c6dde109026ff5,69b95efdef24cd8a694e89ee,69b960d340c63512f8e68458,0.1013,0.1013,1,69,231,155,1,sixeight,,,,,,,,,,,,,,,,,,,,,,,,,,,,,,,,,,,,,,,,,,,,,,,,,,,,,,,,,,,,,,,,,,,,,,,,,,,,,,,,,,,,,,,,,,,,,,,,,,,,,,,,,,,,,,,,,,,,,,,,,,,,,,,,,,,,,,,,,
,,60f5763eb0c6dde109026ff5,2026-03-17_07h12.44.075,kallum_motion_pilot_GIST_update_2,2026.1.1,Win32,39.68253968,60f5763eb0c6dde109026ff5,69b95efdef24cd8a694e89ee,69b960d340c63512f8e68458,0.1015,0.1016,1,70,232,76,1,threeone,,,,,,,,,,,,,,,,,,,,,,,,,,,,,,,,,,,,,,,,,,,,,,,,,,,,,,,,,,,,,,,,,,,,,,,,,,,,,,,,,,,,,,,,,,,,,,,,,,,,,,,,,,,,,,,,,,,,,,,,,,,,,,,,,,,,,,,,,
,,60f5763eb0c6dde109026ff5,2026-03-17_07h12.44.075,kallum_motion_pilot_GIST_update_2,2026.1.1,Win32,39.68253968,60f5763eb0c6dde109026ff5,69b95efdef24cd8a694e89ee,69b960d340c63512f8e68458,0.102,0.102,1,71,233,37,1,threefour,,,,,,,,,,,,,,,,,,,,,,,,,,,,,,,,,,,,,,,,,,,,,,,,,,,,,,,,,,,,,,,,,,,,,,,,,,,,,,,,,,,,,,,,,,,,,,,,,,,,,,,,,,,,,,,,,,,,,,,,,,,,,,,,,,,,,,,,,
,,60f5763eb0c6dde109026ff5,2026-03-17_07h12.44.075,kallum_motion_pilot_GIST_update_2,2026.1.1,Win32,39.68253968,60f5763eb0c6dde109026ff5,69b95efdef24cd8a694e89ee,69b960d340c63512f8e68458,0.1022,0.1022,1,72,234,107,1,sixeight,,,,,,,,,,,,,,,,,,,,,,,,,,,,,,,,,,,,,,,,,,,,,,,,,,,,,,,,,,,,,,,,,,,,,,,,,,,,,,,,,,,,,,,,,,,,,,,,,,,,,,,,,,,,,,,,,,,,,,,,,,,,,,,,,,,,,,,,,
,,60f5763eb0c6dde109026ff5,2026-03-17_07h12.44.075,kallum_motion_pilot_GIST_update_2,2026.1.1,Win32,39.68253968,60f5763eb0c6dde109026ff5,69b95efdef24cd8a694e89ee,69b960d340c63512f8e68458,0.1025,0.1025,1,73,235,73,1,onethree,,,,,,,,,,,,,,,,,,,,,,,,,,,,,,,,,,,,,,,,,,,,,,,,,,,,,,,,,,,,,,,,,,,,,,,,,,,,,,,,,,,,,,,,,,,,,,,,,,,,,,,,,,,,,,,,,,,,,,,,,,,,,,,,,,,,,,,,,
,,60f5763eb0c6dde109026ff5,2026-03-17_07h12.44.075,kallum_motion_pilot_GIST_update_2,2026.1.1,Win32,39.68253968,60f5763eb0c6dde109026ff5,69b95efdef24cd8a694e89ee,69b960d340c63512f8e68458,0.1028,0.1028,1,74,236,0,1,onetwo,,,,,,,,,,,,,,,,,,,,,,,,,,,,,,,,,,,,,,,,,,,,,,,,,,,,,,,,,,,,,,,,,,,,,,,,,,,,,,,,,,,,,,,,,,,,,,,,,,,,,,,,,,,,,,,,,,,,,,,,,,,,,,,,,,,,,,,,,
,,60f5763eb0c6dde109026ff5,2026-03-17_07h12.44.075,kallum_motion_pilot_GIST_update_2,2026.1.1,Win32,39.68253968,60f5763eb0c6dde109026ff5,69b95efdef24cd8a694e89ee,69b960d340c63512f8e68458,0.1031,0.1031,1,75,237,63,1,fourthree,,,,,,,,,,,,,,,,,,,,,,,,,,,,,,,,,,,,,,,,,,,,,,,,,,,,,,,,,,,,,,,,,,,,,,,,,,,,,,,,,,,,,,,,,,,,,,,,,,,,,,,,,,,,,,,,,,,,,,,,,,,,,,,,,,,,,,,,,
,,60f5763eb0c6dde109026ff5,2026-03-17_07h12.44.075,kallum_motion_pilot_GIST_update_2,2026.1.1,Win32,39.68253968,60f5763eb0c6dde109026ff5,69b95efdef24cd8a694e89ee,69b960d340c63512f8e68458,0.1033,0.1033,1,76,238,16,1,onetwo,,,,,,,,,,,,,,,,,,,,,,,,,,,,,,,,,,,,,,,,,,,,,,,,,,,,,,,,,,,,,,,,,,,,,,,,,,,,,,,,,,,,,,,,,,,,,,,,,,,,,,,,,,,,,,,,,,,,,,,,,,,,,,,,,,,,,,,,,
,,60f5763eb0c6dde109026ff5,2026-03-17_07h12.44.075,kallum_motion_pilot_GIST_update_2,2026.1.1,Win32,39.68253968,60f5763eb0c6dde109026ff5,69b95efdef24cd8a694e89ee,69b960d340c63512f8e68458,0.1037,0.1037,1,77,239,100,1,sevenfive,,,,,,,,,,,,,,,,,,,,,,,,,,,,,,,,,,,,,,,,,,,,,,,,,,,,,,,,,,,,,,,,,,,,,,,,,,,,,,,,,,,,,,,,,,,,,,,,,,,,,,,,,,,,,,,,,,,,,,,,,,,,,,,,,,,,,,,,,
,,60f5763eb0c6dde109026ff5,2026-03-17_07h12.44.075,kallum_motion_pilot_GIST_update_2,2026.1.1,Win32,39.68253968,60f5763eb0c6dde109026ff5,69b95efdef24cd8a694e89ee,69b960d340c63512f8e68458,0.1039,0.1039,1,78,240,156,1,sevenfive,,,,,,,,,,,,,,,,,,,,,,,,,,,,,,,,,,,,,,,,,,,,,,,,,,,,,,,,,,,,,,,,,,,,,,,,,,,,,,,,,,,,,,,,,,,,,,,,,,,,,,,,,,,,,,,,,,,,,,,,,,,,,,,,,,,,,,,,,
,,60f5763eb0c6dde109026ff5,2026-03-17_07h12.44.075,kallum_motion_pilot_GIST_update_2,2026.1.1,Win32,39.68253968,60f5763eb0c6dde109026ff5,69b95efdef24cd8a694e89ee,69b960d340c63512f8e68458,0.1041,0.1041,1,79,241,70,1,fourtwo,,,,,,,,,,,,,,,,,,,,,,,,,,,,,,,,,,,,,,,,,,,,,,,,,,,,,,,,,,,,,,,,,,,,,,,,,,,,,,,,,,,,,,,,,,,,,,,,,,,,,,,,,,,,,,,,,,,,,,,,,,,,,,,,,,,,,,,,,
,,60f5763eb0c6dde109026ff5,2026-03-17_07h12.44.075,kallum_motion_pilot_GIST_update_2,2026.1.1,Win32,39.68253968,60f5763eb0c6dde109026ff5,69b95efdef24cd8a694e89ee,69b960d340c63512f8e68458,0.1044,0.1044,1,80,242,113,1,fiveseven,,,,,,,,,,,,,,,,,,,,,,,,,,,,,,,,,,,,,,,,,,,,,,,,,,,,,,,,,,,,,,,,,,,,,,,,,,,,,,,,,,,,,,,,,,,,,,,,,,,,,,,,,,,,,,,,,,,,,,,,,,,,,,,,,,,,,,,,,
,,60f5763eb0c6dde109026ff5,2026-03-17_07h12.44.075,kallum_motion_pilot_GIST_update_2,2026.1.1,Win32,39.68253968,60f5763eb0c6dde109026ff5,69b95efdef24cd8a694e89ee,69b960d340c63512f8e68458,0.1046,0.1046,1,81,243,125,1,seveneight,,,,,,,,,,,,,,,,,,,,,,,,,,,,,,,,,,,,,,,,,,,,,,,,,,,,,,,,,,,,,,,,,,,,,,,,,,,,,,,,,,,,,,,,,,,,,,,,,,,,,,,,,,,,,,,,,,,,,,,,,,,,,,,,,,,,,,,,,
,,60f5763eb0c6dde109026ff5,2026-03-17_07h12.44.075,kallum_motion_pilot_GIST_update_2,2026.1.1,Win32,39.68253968,60f5763eb0c6dde109026ff5,69b95efdef24cd8a694e89ee,69b960d340c63512f8e68458,0.105,0.105,1,82,244,81,1,fiveseven,,,,,,,,,,,,,,,,,,,,,,,,,,,,,,,,,,,,,,,,,,,,,,,,,,,,,,,,,,,,,,,,,,,,,,,,,,,,,,,,,,,,,,,,,,,,,,,,,,,,,,,,,,,,,,,,,,,,,,,,,,,,,,,,,,,,,,,,,
,,60f5763eb0c6dde109026ff5,2026-03-17_07h12.44.075,kallum_motion_pilot_GIST_update_2,2026.1.1,Win32,39.68253968,60f5763eb0c6dde109026ff5,69b95efdef24cd8a694e89ee,69b960d340c63512f8e68458,0.1053,0.1053,1,83,245,90,1,sixfive,,,,,,,,,,,,,,,,,,,,,,,,,,,,,,,,,,,,,,,,,,,,,,,,,,,,,,,,,,,,,,,,,,,,,,,,,,,,,,,,,,,,,,,,,,,,,,,,,,,,,,,,,,,,,,,,,,,,,,,,,,,,,,,,,,,,,,,,,
,,60f5763eb0c6dde109026ff5,2026-03-17_07h12.44.075,kallum_motion_pilot_GIST_update_2,2026.1.1,Win32,39.68253968,60f5763eb0c6dde109026ff5,69b95efdef24cd8a694e89ee,69b960d340c63512f8e68458,0.1055,0.1055,1,84,246,142,1,eightsix,,,,,,,,,,,,,,,,,,,,,,,,,,,,,,,,,,,,,,,,,,,,,,,,,,,,,,,,,,,,,,,,,,,,,,,,,,,,,,,,,,,,,,,,,,,,,,,,,,,,,,,,,,,,,,,,,,,,,,,,,,,,,,,,,,,,,,,,,
,,60f5763eb0c6dde109026ff5,2026-03-17_07h12.44.075,kallum_motion_pilot_GIST_update_2,2026.1.1,Win32,39.68253968,60f5763eb0c6dde109026ff5,69b95efdef24cd8a694e89ee,69b960d340c63512f8e68458,0.1058,0.1058,1,85,247,143,1,eightseven,,,,,,,,,,,,,,,,,,,,,,,,,,,,,,,,,,,,,,,,,,,,,,,,,,,,,,,,,,,,,,,,,,,,,,,,,,,,,,,,,,,,,,,,,,,,,,,,,,,,,,,,,,,,,,,,,,,,,,,,,,,,,,,,,,,,,,,,,
,,60f5763eb0c6dde109026ff5,2026-03-17_07h12.44.075,kallum_motion_pilot_GIST_update_2,2026.1.1,Win32,39.68253968,60f5763eb0c6dde109026ff5,69b95efdef24cd8a694e89ee,69b960d340c63512f8e68458,0.1061,0.1061,1,86,248,2,1,twoone,,,,,,,,,,,,,,,,,,,,,,,,,,,,,,,,,,,,,,,,,,,,,,,,,,,,,,,,,,,,,,,,,,,,,,,,,,,,,,,,,,,,,,,,,,,,,,,,,,,,,,,,,,,,,,,,,,,,,,,,,,,,,,,,,,,,,,,,,
,,60f5763eb0c6dde109026ff5,2026-03-17_07h12.44.075,kallum_motion_pilot_GIST_update_2,2026.1.1,Win32,39.68253968,60f5763eb0c6dde109026ff5,69b95efdef24cd8a694e89ee,69b960d340c63512f8e68458,0.1064,0.1064,1,87,249,111,1,eightseven,,,,,,,,,,,,,,,,,,,,,,,,,,,,,,,,,,,,,,,,,,,,,,,,,,,,,,,,,,,,,,,,,,,,,,,,,,,,,,,,,,,,,,,,,,,,,,,,,,,,,,,,,,,,,,,,,,,,,,,,,,,,,,,,,,,,,,,,,
,,60f5763eb0c6dde109026ff5,2026-03-17_07h12.44.075,kallum_motion_pilot_GIST_update_2,2026.1.1,Win32,39.68253968,60f5763eb0c6dde109026ff5,69b95efdef24cd8a694e89ee,69b960d340c63512f8e68458,0.1067,0.1067,1,88,250,152,1,fivesix,,,,,,,,,,,,,,,,,,,,,,,,,,,,,,,,,,,,,,,,,,,,,,,,,,,,,,,,,,,,,,,,,,,,,,,,,,,,,,,,,,,,,,,,,,,,,,,,,,,,,,,,,,,,,,,,,,,,,,,,,,,,,,,,,,,,,,,,,
,,60f5763eb0c6dde109026ff5,2026-03-17_07h12.44.075,kallum_motion_pilot_GIST_update_2,2026.1.1,Win32,39.68253968,60f5763eb0c6dde109026ff5,69b95efdef24cd8a694e89ee,69b960d340c63512f8e68458,0.1069,0.1069,1,89,251,148,1,sevenfive,,,,,,,,,,,,,,,,,,,,,,,,,,,,,,,,,,,,,,,,,,,,,,,,,,,,,,,,,,,,,,,,,,,,,,,,,,,,,,,,,,,,,,,,,,,,,,,,,,,,,,,,,,,,,,,,,,,,,,,,,,,,,,,,,,,,,,,,,
,,60f5763eb0c6dde109026ff5,2026-03-17_07h12.44.075,kallum_motion_pilot_GIST_update_2,2026.1.1,Win32,39.68253968,60f5763eb0c6dde109026ff5,69b95efdef24cd8a694e89ee,69b960d340c63512f8e68458,0.1072,0.1072,1,90,252,71,1,fourthree,,,,,,,,,,,,,,,,,,,,,,,,,,,,,,,,,,,,,,,,,,,,,,,,,,,,,,,,,,,,,,,,,,,,,,,,,,,,,,,,,,,,,,,,,,,,,,,,,,,,,,,,,,,,,,,,,,,,,,,,,,,,,,,,,,,,,,,,,
,,60f5763eb0c6dde109026ff5,2026-03-17_07h12.44.075,kallum_motion_pilot_GIST_update_2,2026.1.1,Win32,39.68253968,60f5763eb0c6dde109026ff5,69b95efdef24cd8a694e89ee,69b960d340c63512f8e68458,0.1075,0.1076,1,91,253,61,1,threefour,,,,,,,,,,,,,,,,,,,,,,,,,,,,,,,,,,,,,,,,,,,,,,,,,,,,,,,,,,,,,,,,,,,,,,,,,,,,,,,,,,,,,,,,,,,,,,,,,,,,,,,,,,,,,,,,,,,,,,,,,,,,,,,,,,,,,,,,,
,,60f5763eb0c6dde109026ff5,2026-03-17_07h12.44.075,kallum_motion_pilot_GIST_update_2,2026.1.1,Win32,39.68253968,60f5763eb0c6dde109026ff5,69b95efdef24cd8a694e89ee,69b960d340c63512f8e68458,0.108,0.108,1,92,254,147,1,sixeight,,,,,,,,,,,,,,,,,,,,,,,,,,,,,,,,,,,,,,,,,,,,,,,,,,,,,,,,,,,,,,,,,,,,,,,,,,,,,,,,,,,,,,,,,,,,,,,,,,,,,,,,,,,,,,,,,,,,,,,,,,,,,,,,,,,,,,,,,
,,60f5763eb0c6dde109026ff5,2026-03-17_07h12.44.075,kallum_motion_pilot_GIST_update_2,2026.1.1,Win32,39.68253968,60f5763eb0c6dde109026ff5,69b95efdef24cd8a694e89ee,69b960d340c63512f8e68458,0.1084,0.1084,1,93,255,97,1,fiveseven,,,,,,,,,,,,,,,,,,,,,,,,,,,,,,,,,,,,,,,,,,,,,,,,,,,,,,,,,,,,,,,,,,,,,,,,,,,,,,,,,,,,,,,,,,,,,,,,,,,,,,,,,,,,,,,,,,,,,,,,,,,,,,,,,,,,,,,,,
,,60f5763eb0c6dde109026ff5,2026-03-17_07h12.44.075,kallum_motion_pilot_GIST_update_2,2026.1.1,Win32,39.68253968,60f5763eb0c6dde109026ff5,69b95efdef24cd8a694e89ee,69b960d340c63512f8e68458,0.1087,0.1087,1,94,256,132,1,sevenfive,,,,,,,,,,,,,,,,,,,,,,,,,,,,,,,,,,,,,,,,,,,,,,,,,,,,,,,,,,,,,,,,,,,,,,,,,,,,,,,,,,,,,,,,,,,,,,,,,,,,,,,,,,,,,,,,,,,,,,,,,,,,,,,,,,,,,,,,,
,,60f5763eb0c6dde109026ff5,2026-03-17_07h12.44.075,kallum_motion_pilot_GIST_update_2,2026.1.1,Win32,39.68253968,60f5763eb0c6dde109026ff5,69b95efdef24cd8a694e89ee,69b960d340c63512f8e68458,0.109,0.109,1,95,257,101,1,seveneight,,,,,,,,,,,,,,,,,,,,,,,,,,,,,,,,,,,,,,,,,,,,,,,,,,,,,,,,,,,,,,,,,,,,,,,,,,,,,,,,,,,,,,,,,,,,,,,,,,,,,,,,,,,,,,,,,,,,,,,,,,,,,,,,,,,,,,,,,
,,60f5763eb0c6dde109026ff5,2026-03-17_07h12.44.075,kallum_motion_pilot_GIST_update_2,2026.1.1,Win32,39.68253968,60f5763eb0c6dde109026ff5,69b95efdef24cd8a694e89ee,69b960d340c63512f8e68458,0.1092,0.1092,1,96,258,11,1,twofour,,,,,,,,,,,,,,,,,,,,,,,,,,,,,,,,,,,,,,,,,,,,,,,,,,,,,,,,,,,,,,,,,,,,,,,,,,,,,,,,,,,,,,,,,,,,,,,,,,,,,,,,,,,,,,,,,,,,,,,,,,,,,,,,,,,,,,,,,
,,60f5763eb0c6dde109026ff5,2026-03-17_07h12.44.075,kallum_motion_pilot_GIST_update_2,2026.1.1,Win32,39.68253968,60f5763eb0c6dde109026ff5,69b95efdef24cd8a694e89ee,69b960d340c63512f8e68458,0.1096,0.1096,1,97,259,75,1,twofour,,,,,,,,,,,,,,,,,,,,,,,,,,,,,,,,,,,,,,,,,,,,,,,,,,,,,,,,,,,,,,,,,,,,,,,,,,,,,,,,,,,,,,,,,,,,,,,,,,,,,,,,,,,,,,,,,,,,,,,,,,,,,,,,,,,,,,,,,
,,60f5763eb0c6dde109026ff5,2026-03-17_07h12.44.075,kallum_motion_pilot_GIST_update_2,2026.1.1,Win32,39.68253968,60f5763eb0c6dde109026ff5,69b95efdef24cd8a694e89ee,69b960d340c63512f8e68458,0.1099,0.1099,1,98,260,153,1,fiveseven,,,,,,,,,,,,,,,,,,,,,,,,,,,,,,,,,,,,,,,,,,,,,,,,,,,,,,,,,,,,,,,,,,,,,,,,,,,,,,,,,,,,,,,,,,,,,,,,,,,,,,,,,,,,,,,,,,,,,,,,,,,,,,,,,,,,,,,,,
,,60f5763eb0c6dde109026ff5,2026-03-17_07h12.44.075,kallum_motion_pilot_GIST_update_2,2026.1.1,Win32,39.68253968,60f5763eb0c6dde109026ff5,69b95efdef24cd8a694e89ee,69b960d340c63512f8e68458,0.1102,0.1102,1,99,261,44,1,threeone,,,,,,,,,,,,,,,,,,,,,,,,,,,,,,,,,,,,,,,,,,,,,,,,,,,,,,,,,,,,,,,,,,,,,,,,,,,,,,,,,,,,,,,,,,,,,,,,,,,,,,,,,,,,,,,,,,,,,,,,,,,,,,,,,,,,,,,,,
,,60f5763eb0c6dde109026ff5,2026-03-17_07h12.44.075,kallum_motion_pilot_GIST_update_2,2026.1.1,Win32,39.68253968,60f5763eb0c6dde109026ff5,69b95efdef24cd8a694e89ee,69b960d340c63512f8e68458,0.1108,0.1108,1,100,262,115,1,sixeight,,,,,,,,,,,,,,,,,,,,,,,,,,,,,,,,,,,,,,,,,,,,,,,,,,,,,,,,,,,,,,,,,,,,,,,,,,,,,,,,,,,,,,,,,,,,,,,,,,,,,,,,,,,,,,,,,,,,,,,,,,,,,,,,,,,,,,,,,
,,60f5763eb0c6dde109026ff5,2026-03-17_07h12.44.075,kallum_motion_pilot_GIST_update_2,2026.1.1,Win32,39.68253968,60f5763eb0c6dde109026ff5,69b95efdef24cd8a694e89ee,69b960d340c63512f8e68458,0.1113,0.1114,1,101,263,133,1,seveneight,,,,,,,,,,,,,,,,,,,,,,,,,,,,,,,,,,,,,,,,,,,,,,,,,,,,,,,,,,,,,,,,,,,,,,,,,,,,,,,,,,,,,,,,,,,,,,,,,,,,,,,,,,,,,,,,,,,,,,,,,,,,,,,,,,,,,,,,,
,,60f5763eb0c6dde109026ff5,2026-03-17_07h12.44.075,kallum_motion_pilot_GIST_update_2,2026.1.1,Win32,39.68253968,60f5763eb0c6dde109026ff5,69b95efdef24cd8a694e89ee,69b960d340c63512f8e68458,0.1119,0.1119,1,102,264,112,1,fivesix,,,,,,,,,,,,,,,,,,,,,,,,,,,,,,,,,,,,,,,,,,,,,,,,,,,,,,,,,,,,,,,,,,,,,,,,,,,,,,,,,,,,,,,,,,,,,,,,,,,,,,,,,,,,,,,,,,,,,,,,,,,,,,,,,,,,,,,,,
,,60f5763eb0c6dde109026ff5,2026-03-17_07h12.44.075,kallum_motion_pilot_GIST_update_2,2026.1.1,Win32,39.68253968,60f5763eb0c6dde109026ff5,69b95efdef24cd8a694e89ee,69b960d340c63512f8e68458,0.1123,0.1124,1,103,265,145,1,fiveseven,,,,,,,,,,,,,,,,,,,,,,,,,,,,,,,,,,,,,,,,,,,,,,,,,,,,,,,,,,,,,,,,,,,,,,,,,,,,,,,,,,,,,,,,,,,,,,,,,,,,,,,,,,,,,,,,,,,,,,,,,,,,,,,,,,,,,,,,,
,,60f5763eb0c6dde109026ff5,2026-03-17_07h12.44.075,kallum_motion_pilot_GIST_update_2,2026.1.1,Win32,39.68253968,60f5763eb0c6dde109026ff5,69b95efdef24cd8a694e89ee,69b960d340c63512f8e68458,0.1127,0.1127,1,104,266,127,1,eightseven,,,,,,,,,,,,,,,,,,,,,,,,,,,,,,,,,,,,,,,,,,,,,,,,,,,,,,,,,,,,,,,,,,,,,,,,,,,,,,,,,,,,,,,,,,,,,,,,,,,,,,,,,,,,,,,,,,,,,,,,,,,,,,,,,,,,,,,,,
