startup.started,startup.stopped,Prolific ID*,date,expName,psychopyVersion,OS,frameRate,participant,study_id,session,stimpositions.started,stimpositions.stopped,hardcoded_stimulus_positions.thisRepN,hardcoded_stimulus_positions.thisTrialN,hardcoded_stimulus_positions.thisN,hardcoded_stimulus_positions.thisIndex,hardcoded_stimulus_positions.ran,StimulusPos,stimorientation.started,stimorientation.stopped,prac_stimorientation_import_loop.thisRepN,prac_stimorientation_import_loop.thisTrialN,prac_stimorientation_import_loop.thisN,prac_stimorientation_import_loop.thisIndex,prac_stimorientation_import_loop.ran,Stimorientation,welcome_instr.started,welcome_instr.stopped,key_resp.keys,key_resp.rt,key_resp.duration,response_steppedout_1.started,response_steppedout_1.stopped,key_resp_20.keys,key_resp_20.rt,key_resp_20.duration,response_steppedout_2.started,response_steppedout_2.stopped,key_resp_19.keys,key_resp_19.rt,key_resp_19.duration,stim_response_instr.started,stim_response_instr.stopped,key_resp_15.keys,key_resp_15.rt,key_resp_15.duration,direction_instr_2.started,direction_instr_2.stopped,key_resp_9.keys,key_resp_9.rt,key_resp_9.duration,instr_prac.started,instr_prac.stopped,key_resp_10.keys,key_resp_10.rt,key_resp_10.duration,Stim1_display_prac.started,Stim1_display_prac.stopped,Ecc,Circle1_ori,Circle2_ori,response_prac.started,similarity,response_time,response_prac.stopped,mouse_5.x,mouse_5.y,mouse_5.leftButton,mouse_5.midButton,mouse_5.rightButton,mouse_5.clicked_name,responseprac_feedback.started,responseprac_feedback.stopped,summary2_prac.started,summary2_prac.stopped,mouse_6.x,mouse_6.y,mouse_6.leftButton,mouse_6.midButton,mouse_6.rightButton,mouse_6.clicked_name,duringprac.thisRepN,duringprac.thisTrialN,duringprac.thisN,duringprac.thisIndex,duringprac.ran,begin.started,begin.stopped,key_resp_22.keys,key_resp_22.rt,key_resp_22.duration,Stim1_display.started,Stim1_display.stopped,circle1_ori,circle2_ori,circle1_SF,circle2_SF,response.started,response.stopped,mouse.x,mouse.y,mouse.leftButton,mouse.midButton,mouse.rightButton,mouse.clicked_name,trialnumber,double_pass.thisRepN,double_pass.thisTrialN,double_pass.thisN,double_pass.thisIndex,double_pass.ran,double_pass.order,main_trial.thisRepN,main_trial.thisTrialN,main_trial.thisN,main_trial.thisIndex,main_trial.ran,main_trial.order,Trial_Counter,Catch,Frequencies,response_2.started,response_2.stopped,mouse_2.x,mouse_2.y,mouse_2.leftButton,mouse_2.midButton,mouse_2.rightButton,mouse_2.clicked_name,special_trial.started,special_trial.stopped,catch_1.started,catch_1.stopped,mouse_3.x,mouse_3.y,mouse_3.leftButton,mouse_3.midButton,mouse_3.rightButton,catchresponse,catchnumber,response_time_catch,response_sum.started,response_sum.stopped,mouse_11.x,mouse_11.y,mouse_11.leftButton,mouse_11.midButton,mouse_11.rightButton,flip_presentation_sequence_for_double_pass.started,flip_presentation_sequence_for_double_pass.stopped,goodbye.started,goodbye.stopped,key_resp_3.keys,key_resp_3.rt,key_resp_3.duration
0.0046,0.0047,610192be9b03bd29e260fe74,2026-03-17_16h13.48.127,kallum_motion_pilot_GIST_update_2,2026.1.1,Win32,61.34969325,610192be9b03bd29e260fe74,69b95efdef24cd8a694e89ee,69b96080e75d2745959feb08,,,,,,,,,,,,,,,,,,,,,,,,,,,,,,,,,,,,,,,,,,,,,,,,,,,,,,,,,,,,,,,,,,,,,,,,,,,,,,,,,,,,,,,,,,,,,,,,,,,,,,,,,,,,,,,,,,,,,,,,,,,,,,,,,,,,,,,,,,,,,,,,,
,,610192be9b03bd29e260fe74,2026-03-17_16h13.48.127,kallum_motion_pilot_GIST_update_2,2026.1.1,Win32,61.34969325,610192be9b03bd29e260fe74,69b95efdef24cd8a694e89ee,69b96080e75d2745959feb08,0.0254,0.0256,0,0,0,40,1,onetwo,,,,,,,,,,,,,,,,,,,,,,,,,,,,,,,,,,,,,,,,,,,,,,,,,,,,,,,,,,,,,,,,,,,,,,,,,,,,,,,,,,,,,,,,,,,,,,,,,,,,,,,,,,,,,,,,,,,,,,,,,,,,,,,,,,,,,,,,,
,,610192be9b03bd29e260fe74,2026-03-17_16h13.48.127,kallum_motion_pilot_GIST_update_2,2026.1.1,Win32,61.34969325,610192be9b03bd29e260fe74,69b95efdef24cd8a694e89ee,69b96080e75d2745959feb08,0.0259,0.026,0,1,1,95,1,eightseven,,,,,,,,,,,,,,,,,,,,,,,,,,,,,,,,,,,,,,,,,,,,,,,,,,,,,,,,,,,,,,,,,,,,,,,,,,,,,,,,,,,,,,,,,,,,,,,,,,,,,,,,,,,,,,,,,,,,,,,,,,,,,,,,,,,,,,,,,
,,610192be9b03bd29e260fe74,2026-03-17_16h13.48.127,kallum_motion_pilot_GIST_update_2,2026.1.1,Win32,61.34969325,610192be9b03bd29e260fe74,69b95efdef24cd8a694e89ee,69b96080e75d2745959feb08,0.0262,0.0262,0,2,2,35,1,twofour,,,,,,,,,,,,,,,,,,,,,,,,,,,,,,,,,,,,,,,,,,,,,,,,,,,,,,,,,,,,,,,,,,,,,,,,,,,,,,,,,,,,,,,,,,,,,,,,,,,,,,,,,,,,,,,,,,,,,,,,,,,,,,,,,,,,,,,,,
,,610192be9b03bd29e260fe74,2026-03-17_16h13.48.127,kallum_motion_pilot_GIST_update_2,2026.1.1,Win32,61.34969325,610192be9b03bd29e260fe74,69b95efdef24cd8a694e89ee,69b96080e75d2745959feb08,0.0265,0.0265,0,3,3,134,1,eightsix,,,,,,,,,,,,,,,,,,,,,,,,,,,,,,,,,,,,,,,,,,,,,,,,,,,,,,,,,,,,,,,,,,,,,,,,,,,,,,,,,,,,,,,,,,,,,,,,,,,,,,,,,,,,,,,,,,,,,,,,,,,,,,,,,,,,,,,,,
,,610192be9b03bd29e260fe74,2026-03-17_16h13.48.127,kallum_motion_pilot_GIST_update_2,2026.1.1,Win32,61.34969325,610192be9b03bd29e260fe74,69b95efdef24cd8a694e89ee,69b96080e75d2745959feb08,0.0268,0.0268,0,4,4,68,1,threeone,,,,,,,,,,,,,,,,,,,,,,,,,,,,,,,,,,,,,,,,,,,,,,,,,,,,,,,,,,,,,,,,,,,,,,,,,,,,,,,,,,,,,,,,,,,,,,,,,,,,,,,,,,,,,,,,,,,,,,,,,,,,,,,,,,,,,,,,,
,,610192be9b03bd29e260fe74,2026-03-17_16h13.48.127,kallum_motion_pilot_GIST_update_2,2026.1.1,Win32,61.34969325,610192be9b03bd29e260fe74,69b95efdef24cd8a694e89ee,69b96080e75d2745959feb08,0.0272,0.0272,0,5,5,147,1,sixeight,,,,,,,,,,,,,,,,,,,,,,,,,,,,,,,,,,,,,,,,,,,,,,,,,,,,,,,,,,,,,,,,,,,,,,,,,,,,,,,,,,,,,,,,,,,,,,,,,,,,,,,,,,,,,,,,,,,,,,,,,,,,,,,,,,,,,,,,,
,,610192be9b03bd29e260fe74,2026-03-17_16h13.48.127,kallum_motion_pilot_GIST_update_2,2026.1.1,Win32,61.34969325,610192be9b03bd29e260fe74,69b95efdef24cd8a694e89ee,69b96080e75d2745959feb08,0.0274,0.0274,0,6,6,59,1,twofour,,,,,,,,,,,,,,,,,,,,,,,,,,,,,,,,,,,,,,,,,,,,,,,,,,,,,,,,,,,,,,,,,,,,,,,,,,,,,,,,,,,,,,,,,,,,,,,,,,,,,,,,,,,,,,,,,,,,,,,,,,,,,,,,,,,,,,,,,
,,610192be9b03bd29e260fe74,2026-03-17_16h13.48.127,kallum_motion_pilot_GIST_update_2,2026.1.1,Win32,61.34969325,610192be9b03bd29e260fe74,69b95efdef24cd8a694e89ee,69b96080e75d2745959feb08,0.0275,0.0275,0,7,7,69,1,threefour,,,,,,,,,,,,,,,,,,,,,,,,,,,,,,,,,,,,,,,,,,,,,,,,,,,,,,,,,,,,,,,,,,,,,,,,,,,,,,,,,,,,,,,,,,,,,,,,,,,,,,,,,,,,,,,,,,,,,,,,,,,,,,,,,,,,,,,,,
,,610192be9b03bd29e260fe74,2026-03-17_16h13.48.127,kallum_motion_pilot_GIST_update_2,2026.1.1,Win32,61.34969325,610192be9b03bd29e260fe74,69b95efdef24cd8a694e89ee,69b96080e75d2745959feb08,0.0277,0.0277,0,8,8,18,1,twoone,,,,,,,,,,,,,,,,,,,,,,,,,,,,,,,,,,,,,,,,,,,,,,,,,,,,,,,,,,,,,,,,,,,,,,,,,,,,,,,,,,,,,,,,,,,,,,,,,,,,,,,,,,,,,,,,,,,,,,,,,,,,,,,,,,,,,,,,,
,,610192be9b03bd29e260fe74,2026-03-17_16h13.48.127,kallum_motion_pilot_GIST_update_2,2026.1.1,Win32,61.34969325,610192be9b03bd29e260fe74,69b95efdef24cd8a694e89ee,69b96080e75d2745959feb08,0.0279,0.0279,0,9,9,117,1,seveneight,,,,,,,,,,,,,,,,,,,,,,,,,,,,,,,,,,,,,,,,,,,,,,,,,,,,,,,,,,,,,,,,,,,,,,,,,,,,,,,,,,,,,,,,,,,,,,,,,,,,,,,,,,,,,,,,,,,,,,,,,,,,,,,,,,,,,,,,,
,,610192be9b03bd29e260fe74,2026-03-17_16h13.48.127,kallum_motion_pilot_GIST_update_2,2026.1.1,Win32,61.34969325,610192be9b03bd29e260fe74,69b95efdef24cd8a694e89ee,69b96080e75d2745959feb08,0.028,0.028,0,10,10,106,1,sixfive,,,,,,,,,,,,,,,,,,,,,,,,,,,,,,,,,,,,,,,,,,,,,,,,,,,,,,,,,,,,,,,,,,,,,,,,,,,,,,,,,,,,,,,,,,,,,,,,,,,,,,,,,,,,,,,,,,,,,,,,,,,,,,,,,,,,,,,,,
,,610192be9b03bd29e260fe74,2026-03-17_16h13.48.127,kallum_motion_pilot_GIST_update_2,2026.1.1,Win32,61.34969325,610192be9b03bd29e260fe74,69b95efdef24cd8a694e89ee,69b96080e75d2745959feb08,0.028,0.028,0,11,11,66,1,twoone,,,,,,,,,,,,,,,,,,,,,,,,,,,,,,,,,,,,,,,,,,,,,,,,,,,,,,,,,,,,,,,,,,,,,,,,,,,,,,,,,,,,,,,,,,,,,,,,,,,,,,,,,,,,,,,,,,,,,,,,,,,,,,,,,,,,,,,,,
,,610192be9b03bd29e260fe74,2026-03-17_16h13.48.127,kallum_motion_pilot_GIST_update_2,2026.1.1,Win32,61.34969325,610192be9b03bd29e260fe74,69b95efdef24cd8a694e89ee,69b96080e75d2745959feb08,0.0281,0.0281,0,12,12,116,1,sevenfive,,,,,,,,,,,,,,,,,,,,,,,,,,,,,,,,,,,,,,,,,,,,,,,,,,,,,,,,,,,,,,,,,,,,,,,,,,,,,,,,,,,,,,,,,,,,,,,,,,,,,,,,,,,,,,,,,,,,,,,,,,,,,,,,,,,,,,,,,
,,610192be9b03bd29e260fe74,2026-03-17_16h13.48.127,kallum_motion_pilot_GIST_update_2,2026.1.1,Win32,61.34969325,610192be9b03bd29e260fe74,69b95efdef24cd8a694e89ee,69b96080e75d2745959feb08,0.0283,0.0283,0,13,13,71,1,fourthree,,,,,,,,,,,,,,,,,,,,,,,,,,,,,,,,,,,,,,,,,,,,,,,,,,,,,,,,,,,,,,,,,,,,,,,,,,,,,,,,,,,,,,,,,,,,,,,,,,,,,,,,,,,,,,,,,,,,,,,,,,,,,,,,,,,,,,,,,
,,610192be9b03bd29e260fe74,2026-03-17_16h13.48.127,kallum_motion_pilot_GIST_update_2,2026.1.1,Win32,61.34969325,610192be9b03bd29e260fe74,69b95efdef24cd8a694e89ee,69b96080e75d2745959feb08,0.0283,0.0283,0,14,14,127,1,eightseven,,,,,,,,,,,,,,,,,,,,,,,,,,,,,,,,,,,,,,,,,,,,,,,,,,,,,,,,,,,,,,,,,,,,,,,,,,,,,,,,,,,,,,,,,,,,,,,,,,,,,,,,,,,,,,,,,,,,,,,,,,,,,,,,,,,,,,,,,
,,610192be9b03bd29e260fe74,2026-03-17_16h13.48.127,kallum_motion_pilot_GIST_update_2,2026.1.1,Win32,61.34969325,610192be9b03bd29e260fe74,69b95efdef24cd8a694e89ee,69b96080e75d2745959feb08,0.0284,0.0284,0,15,15,37,1,threefour,,,,,,,,,,,,,,,,,,,,,,,,,,,,,,,,,,,,,,,,,,,,,,,,,,,,,,,,,,,,,,,,,,,,,,,,,,,,,,,,,,,,,,,,,,,,,,,,,,,,,,,,,,,,,,,,,,,,,,,,,,,,,,,,,,,,,,,,,
,,610192be9b03bd29e260fe74,2026-03-17_16h13.48.127,kallum_motion_pilot_GIST_update_2,2026.1.1,Win32,61.34969325,610192be9b03bd29e260fe74,69b95efdef24cd8a694e89ee,69b96080e75d2745959feb08,0.0285,0.0285,0,16,16,49,1,onethree,,,,,,,,,,,,,,,,,,,,,,,,,,,,,,,,,,,,,,,,,,,,,,,,,,,,,,,,,,,,,,,,,,,,,,,,,,,,,,,,,,,,,,,,,,,,,,,,,,,,,,,,,,,,,,,,,,,,,,,,,,,,,,,,,,,,,,,,,
,,610192be9b03bd29e260fe74,2026-03-17_16h13.48.127,kallum_motion_pilot_GIST_update_2,2026.1.1,Win32,61.34969325,610192be9b03bd29e260fe74,69b95efdef24cd8a694e89ee,69b96080e75d2745959feb08,0.0285,0.0285,0,17,17,77,1,threefour,,,,,,,,,,,,,,,,,,,,,,,,,,,,,,,,,,,,,,,,,,,,,,,,,,,,,,,,,,,,,,,,,,,,,,,,,,,,,,,,,,,,,,,,,,,,,,,,,,,,,,,,,,,,,,,,,,,,,,,,,,,,,,,,,,,,,,,,,
,,610192be9b03bd29e260fe74,2026-03-17_16h13.48.127,kallum_motion_pilot_GIST_update_2,2026.1.1,Win32,61.34969325,610192be9b03bd29e260fe74,69b95efdef24cd8a694e89ee,69b96080e75d2745959feb08,0.0287,0.0287,0,18,18,82,1,sixfive,,,,,,,,,,,,,,,,,,,,,,,,,,,,,,,,,,,,,,,,,,,,,,,,,,,,,,,,,,,,,,,,,,,,,,,,,,,,,,,,,,,,,,,,,,,,,,,,,,,,,,,,,,,,,,,,,,,,,,,,,,,,,,,,,,,,,,,,,
,,610192be9b03bd29e260fe74,2026-03-17_16h13.48.127,kallum_motion_pilot_GIST_update_2,2026.1.1,Win32,61.34969325,610192be9b03bd29e260fe74,69b95efdef24cd8a694e89ee,69b96080e75d2745959feb08,0.0287,0.0287,0,19,19,92,1,sevenfive,,,,,,,,,,,,,,,,,,,,,,,,,,,,,,,,,,,,,,,,,,,,,,,,,,,,,,,,,,,,,,,,,,,,,,,,,,,,,,,,,,,,,,,,,,,,,,,,,,,,,,,,,,,,,,,,,,,,,,,,,,,,,,,,,,,,,,,,,
,,610192be9b03bd29e260fe74,2026-03-17_16h13.48.127,kallum_motion_pilot_GIST_update_2,2026.1.1,Win32,61.34969325,610192be9b03bd29e260fe74,69b95efdef24cd8a694e89ee,69b96080e75d2745959feb08,0.0288,0.0288,0,20,20,89,1,fiveseven,,,,,,,,,,,,,,,,,,,,,,,,,,,,,,,,,,,,,,,,,,,,,,,,,,,,,,,,,,,,,,,,,,,,,,,,,,,,,,,,,,,,,,,,,,,,,,,,,,,,,,,,,,,,,,,,,,,,,,,,,,,,,,,,,,,,,,,,,
,,610192be9b03bd29e260fe74,2026-03-17_16h13.48.127,kallum_motion_pilot_GIST_update_2,2026.1.1,Win32,61.34969325,610192be9b03bd29e260fe74,69b95efdef24cd8a694e89ee,69b96080e75d2745959feb08,0.0289,0.0289,0,21,21,115,1,sixeight,,,,,,,,,,,,,,,,,,,,,,,,,,,,,,,,,,,,,,,,,,,,,,,,,,,,,,,,,,,,,,,,,,,,,,,,,,,,,,,,,,,,,,,,,,,,,,,,,,,,,,,,,,,,,,,,,,,,,,,,,,,,,,,,,,,,,,,,,
,,610192be9b03bd29e260fe74,2026-03-17_16h13.48.127,kallum_motion_pilot_GIST_update_2,2026.1.1,Win32,61.34969325,610192be9b03bd29e260fe74,69b95efdef24cd8a694e89ee,69b96080e75d2745959feb08,0.029,0.029,0,22,22,150,1,eightsix,,,,,,,,,,,,,,,,,,,,,,,,,,,,,,,,,,,,,,,,,,,,,,,,,,,,,,,,,,,,,,,,,,,,,,,,,,,,,,,,,,,,,,,,,,,,,,,,,,,,,,,,,,,,,,,,,,,,,,,,,,,,,,,,,,,,,,,,,
,,610192be9b03bd29e260fe74,2026-03-17_16h13.48.127,kallum_motion_pilot_GIST_update_2,2026.1.1,Win32,61.34969325,610192be9b03bd29e260fe74,69b95efdef24cd8a694e89ee,69b96080e75d2745959feb08,0.0291,0.0291,0,23,23,158,1,eightsix,,,,,,,,,,,,,,,,,,,,,,,,,,,,,,,,,,,,,,,,,,,,,,,,,,,,,,,,,,,,,,,,,,,,,,,,,,,,,,,,,,,,,,,,,,,,,,,,,,,,,,,,,,,,,,,,,,,,,,,,,,,,,,,,,,,,,,,,,
,,610192be9b03bd29e260fe74,2026-03-17_16h13.48.127,kallum_motion_pilot_GIST_update_2,2026.1.1,Win32,61.34969325,610192be9b03bd29e260fe74,69b95efdef24cd8a694e89ee,69b96080e75d2745959feb08,0.0292,0.0292,0,24,24,57,1,onethree,,,,,,,,,,,,,,,,,,,,,,,,,,,,,,,,,,,,,,,,,,,,,,,,,,,,,,,,,,,,,,,,,,,,,,,,,,,,,,,,,,,,,,,,,,,,,,,,,,,,,,,,,,,,,,,,,,,,,,,,,,,,,,,,,,,,,,,,,
,,610192be9b03bd29e260fe74,2026-03-17_16h13.48.127,kallum_motion_pilot_GIST_update_2,2026.1.1,Win32,61.34969325,610192be9b03bd29e260fe74,69b95efdef24cd8a694e89ee,69b96080e75d2745959feb08,0.0293,0.0293,0,25,25,45,1,threefour,,,,,,,,,,,,,,,,,,,,,,,,,,,,,,,,,,,,,,,,,,,,,,,,,,,,,,,,,,,,,,,,,,,,,,,,,,,,,,,,,,,,,,,,,,,,,,,,,,,,,,,,,,,,,,,,,,,,,,,,,,,,,,,,,,,,,,,,,
,,610192be9b03bd29e260fe74,2026-03-17_16h13.48.127,kallum_motion_pilot_GIST_update_2,2026.1.1,Win32,61.34969325,610192be9b03bd29e260fe74,69b95efdef24cd8a694e89ee,69b96080e75d2745959feb08,0.0294,0.0294,0,26,26,133,1,seveneight,,,,,,,,,,,,,,,,,,,,,,,,,,,,,,,,,,,,,,,,,,,,,,,,,,,,,,,,,,,,,,,,,,,,,,,,,,,,,,,,,,,,,,,,,,,,,,,,,,,,,,,,,,,,,,,,,,,,,,,,,,,,,,,,,,,,,,,,,
,,610192be9b03bd29e260fe74,2026-03-17_16h13.48.127,kallum_motion_pilot_GIST_update_2,2026.1.1,Win32,61.34969325,610192be9b03bd29e260fe74,69b95efdef24cd8a694e89ee,69b96080e75d2745959feb08,0.0294,0.0294,0,27,27,7,1,fourthree,,,,,,,,,,,,,,,,,,,,,,,,,,,,,,,,,,,,,,,,,,,,,,,,,,,,,,,,,,,,,,,,,,,,,,,,,,,,,,,,,,,,,,,,,,,,,,,,,,,,,,,,,,,,,,,,,,,,,,,,,,,,,,,,,,,,,,,,,
,,610192be9b03bd29e260fe74,2026-03-17_16h13.48.127,kallum_motion_pilot_GIST_update_2,2026.1.1,Win32,61.34969325,610192be9b03bd29e260fe74,69b95efdef24cd8a694e89ee,69b96080e75d2745959feb08,0.0295,0.0295,0,28,28,41,1,onethree,,,,,,,,,,,,,,,,,,,,,,,,,,,,,,,,,,,,,,,,,,,,,,,,,,,,,,,,,,,,,,,,,,,,,,,,,,,,,,,,,,,,,,,,,,,,,,,,,,,,,,,,,,,,,,,,,,,,,,,,,,,,,,,,,,,,,,,,,
,,610192be9b03bd29e260fe74,2026-03-17_16h13.48.127,kallum_motion_pilot_GIST_update_2,2026.1.1,Win32,61.34969325,610192be9b03bd29e260fe74,69b95efdef24cd8a694e89ee,69b96080e75d2745959feb08,0.0296,0.0296,0,29,29,114,1,sixfive,,,,,,,,,,,,,,,,,,,,,,,,,,,,,,,,,,,,,,,,,,,,,,,,,,,,,,,,,,,,,,,,,,,,,,,,,,,,,,,,,,,,,,,,,,,,,,,,,,,,,,,,,,,,,,,,,,,,,,,,,,,,,,,,,,,,,,,,,
,,610192be9b03bd29e260fe74,2026-03-17_16h13.48.127,kallum_motion_pilot_GIST_update_2,2026.1.1,Win32,61.34969325,610192be9b03bd29e260fe74,69b95efdef24cd8a694e89ee,69b96080e75d2745959feb08,0.0297,0.0297,0,30,30,44,1,threeone,,,,,,,,,,,,,,,,,,,,,,,,,,,,,,,,,,,,,,,,,,,,,,,,,,,,,,,,,,,,,,,,,,,,,,,,,,,,,,,,,,,,,,,,,,,,,,,,,,,,,,,,,,,,,,,,,,,,,,,,,,,,,,,,,,,,,,,,,
,,610192be9b03bd29e260fe74,2026-03-17_16h13.48.127,kallum_motion_pilot_GIST_update_2,2026.1.1,Win32,61.34969325,610192be9b03bd29e260fe74,69b95efdef24cd8a694e89ee,69b96080e75d2745959feb08,0.0298,0.0298,0,31,31,90,1,sixfive,,,,,,,,,,,,,,,,,,,,,,,,,,,,,,,,,,,,,,,,,,,,,,,,,,,,,,,,,,,,,,,,,,,,,,,,,,,,,,,,,,,,,,,,,,,,,,,,,,,,,,,,,,,,,,,,,,,,,,,,,,,,,,,,,,,,,,,,,
,,610192be9b03bd29e260fe74,2026-03-17_16h13.48.127,kallum_motion_pilot_GIST_update_2,2026.1.1,Win32,61.34969325,610192be9b03bd29e260fe74,69b95efdef24cd8a694e89ee,69b96080e75d2745959feb08,0.0299,0.0299,0,32,32,146,1,sixfive,,,,,,,,,,,,,,,,,,,,,,,,,,,,,,,,,,,,,,,,,,,,,,,,,,,,,,,,,,,,,,,,,,,,,,,,,,,,,,,,,,,,,,,,,,,,,,,,,,,,,,,,,,,,,,,,,,,,,,,,,,,,,,,,,,,,,,,,,
,,610192be9b03bd29e260fe74,2026-03-17_16h13.48.127,kallum_motion_pilot_GIST_update_2,2026.1.1,Win32,61.34969325,610192be9b03bd29e260fe74,69b95efdef24cd8a694e89ee,69b96080e75d2745959feb08,0.03,0.03,0,33,33,27,1,twofour,,,,,,,,,,,,,,,,,,,,,,,,,,,,,,,,,,,,,,,,,,,,,,,,,,,,,,,,,,,,,,,,,,,,,,,,,,,,,,,,,,,,,,,,,,,,,,,,,,,,,,,,,,,,,,,,,,,,,,,,,,,,,,,,,,,,,,,,,
,,610192be9b03bd29e260fe74,2026-03-17_16h13.48.127,kallum_motion_pilot_GIST_update_2,2026.1.1,Win32,61.34969325,610192be9b03bd29e260fe74,69b95efdef24cd8a694e89ee,69b96080e75d2745959feb08,0.0301,0.0301,0,34,34,93,1,seveneight,,,,,,,,,,,,,,,,,,,,,,,,,,,,,,,,,,,,,,,,,,,,,,,,,,,,,,,,,,,,,,,,,,,,,,,,,,,,,,,,,,,,,,,,,,,,,,,,,,,,,,,,,,,,,,,,,,,,,,,,,,,,,,,,,,,,,,,,,
,,610192be9b03bd29e260fe74,2026-03-17_16h13.48.127,kallum_motion_pilot_GIST_update_2,2026.1.1,Win32,61.34969325,610192be9b03bd29e260fe74,69b95efdef24cd8a694e89ee,69b96080e75d2745959feb08,0.0302,0.0302,0,35,35,153,1,fiveseven,,,,,,,,,,,,,,,,,,,,,,,,,,,,,,,,,,,,,,,,,,,,,,,,,,,,,,,,,,,,,,,,,,,,,,,,,,,,,,,,,,,,,,,,,,,,,,,,,,,,,,,,,,,,,,,,,,,,,,,,,,,,,,,,,,,,,,,,,
,,610192be9b03bd29e260fe74,2026-03-17_16h13.48.127,kallum_motion_pilot_GIST_update_2,2026.1.1,Win32,61.34969325,610192be9b03bd29e260fe74,69b95efdef24cd8a694e89ee,69b96080e75d2745959feb08,0.0303,0.0303,0,36,36,20,1,threeone,,,,,,,,,,,,,,,,,,,,,,,,,,,,,,,,,,,,,,,,,,,,,,,,,,,,,,,,,,,,,,,,,,,,,,,,,,,,,,,,,,,,,,,,,,,,,,,,,,,,,,,,,,,,,,,,,,,,,,,,,,,,,,,,,,,,,,,,,
,,610192be9b03bd29e260fe74,2026-03-17_16h13.48.127,kallum_motion_pilot_GIST_update_2,2026.1.1,Win32,61.34969325,610192be9b03bd29e260fe74,69b95efdef24cd8a694e89ee,69b96080e75d2745959feb08,0.0303,0.0303,0,37,37,79,1,eightseven,,,,,,,,,,,,,,,,,,,,,,,,,,,,,,,,,,,,,,,,,,,,,,,,,,,,,,,,,,,,,,,,,,,,,,,,,,,,,,,,,,,,,,,,,,,,,,,,,,,,,,,,,,,,,,,,,,,,,,,,,,,,,,,,,,,,,,,,,
,,610192be9b03bd29e260fe74,2026-03-17_16h13.48.127,kallum_motion_pilot_GIST_update_2,2026.1.1,Win32,61.34969325,610192be9b03bd29e260fe74,69b95efdef24cd8a694e89ee,69b96080e75d2745959feb08,0.0304,0.0304,0,38,38,111,1,eightseven,,,,,,,,,,,,,,,,,,,,,,,,,,,,,,,,,,,,,,,,,,,,,,,,,,,,,,,,,,,,,,,,,,,,,,,,,,,,,,,,,,,,,,,,,,,,,,,,,,,,,,,,,,,,,,,,,,,,,,,,,,,,,,,,,,,,,,,,,
,,610192be9b03bd29e260fe74,2026-03-17_16h13.48.127,kallum_motion_pilot_GIST_update_2,2026.1.1,Win32,61.34969325,610192be9b03bd29e260fe74,69b95efdef24cd8a694e89ee,69b96080e75d2745959feb08,0.0306,0.0306,0,39,39,30,1,fourtwo,,,,,,,,,,,,,,,,,,,,,,,,,,,,,,,,,,,,,,,,,,,,,,,,,,,,,,,,,,,,,,,,,,,,,,,,,,,,,,,,,,,,,,,,,,,,,,,,,,,,,,,,,,,,,,,,,,,,,,,,,,,,,,,,,,,,,,,,,
,,610192be9b03bd29e260fe74,2026-03-17_16h13.48.127,kallum_motion_pilot_GIST_update_2,2026.1.1,Win32,61.34969325,610192be9b03bd29e260fe74,69b95efdef24cd8a694e89ee,69b96080e75d2745959feb08,0.0306,0.0306,0,40,40,13,1,threefour,,,,,,,,,,,,,,,,,,,,,,,,,,,,,,,,,,,,,,,,,,,,,,,,,,,,,,,,,,,,,,,,,,,,,,,,,,,,,,,,,,,,,,,,,,,,,,,,,,,,,,,,,,,,,,,,,,,,,,,,,,,,,,,,,,,,,,,,,
,,610192be9b03bd29e260fe74,2026-03-17_16h13.48.127,kallum_motion_pilot_GIST_update_2,2026.1.1,Win32,61.34969325,610192be9b03bd29e260fe74,69b95efdef24cd8a694e89ee,69b96080e75d2745959feb08,0.0307,0.0307,0,41,41,118,1,eightsix,,,,,,,,,,,,,,,,,,,,,,,,,,,,,,,,,,,,,,,,,,,,,,,,,,,,,,,,,,,,,,,,,,,,,,,,,,,,,,,,,,,,,,,,,,,,,,,,,,,,,,,,,,,,,,,,,,,,,,,,,,,,,,,,,,,,,,,,,
,,610192be9b03bd29e260fe74,2026-03-17_16h13.48.127,kallum_motion_pilot_GIST_update_2,2026.1.1,Win32,61.34969325,610192be9b03bd29e260fe74,69b95efdef24cd8a694e89ee,69b96080e75d2745959feb08,0.0308,0.0308,0,42,42,132,1,sevenfive,,,,,,,,,,,,,,,,,,,,,,,,,,,,,,,,,,,,,,,,,,,,,,,,,,,,,,,,,,,,,,,,,,,,,,,,,,,,,,,,,,,,,,,,,,,,,,,,,,,,,,,,,,,,,,,,,,,,,,,,,,,,,,,,,,,,,,,,,
,,610192be9b03bd29e260fe74,2026-03-17_16h13.48.127,kallum_motion_pilot_GIST_update_2,2026.1.1,Win32,61.34969325,610192be9b03bd29e260fe74,69b95efdef24cd8a694e89ee,69b96080e75d2745959feb08,0.0309,0.0309,0,43,43,113,1,fiveseven,,,,,,,,,,,,,,,,,,,,,,,,,,,,,,,,,,,,,,,,,,,,,,,,,,,,,,,,,,,,,,,,,,,,,,,,,,,,,,,,,,,,,,,,,,,,,,,,,,,,,,,,,,,,,,,,,,,,,,,,,,,,,,,,,,,,,,,,,
,,610192be9b03bd29e260fe74,2026-03-17_16h13.48.127,kallum_motion_pilot_GIST_update_2,2026.1.1,Win32,61.34969325,610192be9b03bd29e260fe74,69b95efdef24cd8a694e89ee,69b96080e75d2745959feb08,0.031,0.031,0,44,44,10,1,twoone,,,,,,,,,,,,,,,,,,,,,,,,,,,,,,,,,,,,,,,,,,,,,,,,,,,,,,,,,,,,,,,,,,,,,,,,,,,,,,,,,,,,,,,,,,,,,,,,,,,,,,,,,,,,,,,,,,,,,,,,,,,,,,,,,,,,,,,,,
,,610192be9b03bd29e260fe74,2026-03-17_16h13.48.127,kallum_motion_pilot_GIST_update_2,2026.1.1,Win32,61.34969325,610192be9b03bd29e260fe74,69b95efdef24cd8a694e89ee,69b96080e75d2745959feb08,0.031,0.031,0,45,45,36,1,threeone,,,,,,,,,,,,,,,,,,,,,,,,,,,,,,,,,,,,,,,,,,,,,,,,,,,,,,,,,,,,,,,,,,,,,,,,,,,,,,,,,,,,,,,,,,,,,,,,,,,,,,,,,,,,,,,,,,,,,,,,,,,,,,,,,,,,,,,,,
,,610192be9b03bd29e260fe74,2026-03-17_16h13.48.127,kallum_motion_pilot_GIST_update_2,2026.1.1,Win32,61.34969325,610192be9b03bd29e260fe74,69b95efdef24cd8a694e89ee,69b96080e75d2745959feb08,0.0312,0.0312,0,46,46,98,1,sixfive,,,,,,,,,,,,,,,,,,,,,,,,,,,,,,,,,,,,,,,,,,,,,,,,,,,,,,,,,,,,,,,,,,,,,,,,,,,,,,,,,,,,,,,,,,,,,,,,,,,,,,,,,,,,,,,,,,,,,,,,,,,,,,,,,,,,,,,,,
,,610192be9b03bd29e260fe74,2026-03-17_16h13.48.127,kallum_motion_pilot_GIST_update_2,2026.1.1,Win32,61.34969325,610192be9b03bd29e260fe74,69b95efdef24cd8a694e89ee,69b96080e75d2745959feb08,0.0313,0.0313,0,47,47,50,1,twoone,,,,,,,,,,,,,,,,,,,,,,,,,,,,,,,,,,,,,,,,,,,,,,,,,,,,,,,,,,,,,,,,,,,,,,,,,,,,,,,,,,,,,,,,,,,,,,,,,,,,,,,,,,,,,,,,,,,,,,,,,,,,,,,,,,,,,,,,,
,,610192be9b03bd29e260fe74,2026-03-17_16h13.48.127,kallum_motion_pilot_GIST_update_2,2026.1.1,Win32,61.34969325,610192be9b03bd29e260fe74,69b95efdef24cd8a694e89ee,69b96080e75d2745959feb08,0.0313,0.0313,0,48,48,31,1,fourthree,,,,,,,,,,,,,,,,,,,,,,,,,,,,,,,,,,,,,,,,,,,,,,,,,,,,,,,,,,,,,,,,,,,,,,,,,,,,,,,,,,,,,,,,,,,,,,,,,,,,,,,,,,,,,,,,,,,,,,,,,,,,,,,,,,,,,,,,,
,,610192be9b03bd29e260fe74,2026-03-17_16h13.48.127,kallum_motion_pilot_GIST_update_2,2026.1.1,Win32,61.34969325,610192be9b03bd29e260fe74,69b95efdef24cd8a694e89ee,69b96080e75d2745959feb08,0.0314,0.0314,0,49,49,0,1,onetwo,,,,,,,,,,,,,,,,,,,,,,,,,,,,,,,,,,,,,,,,,,,,,,,,,,,,,,,,,,,,,,,,,,,,,,,,,,,,,,,,,,,,,,,,,,,,,,,,,,,,,,,,,,,,,,,,,,,,,,,,,,,,,,,,,,,,,,,,,
,,610192be9b03bd29e260fe74,2026-03-17_16h13.48.127,kallum_motion_pilot_GIST_update_2,2026.1.1,Win32,61.34969325,610192be9b03bd29e260fe74,69b95efdef24cd8a694e89ee,69b96080e75d2745959feb08,0.0315,0.0315,0,50,50,34,1,twoone,,,,,,,,,,,,,,,,,,,,,,,,,,,,,,,,,,,,,,,,,,,,,,,,,,,,,,,,,,,,,,,,,,,,,,,,,,,,,,,,,,,,,,,,,,,,,,,,,,,,,,,,,,,,,,,,,,,,,,,,,,,,,,,,,,,,,,,,,
,,610192be9b03bd29e260fe74,2026-03-17_16h13.48.127,kallum_motion_pilot_GIST_update_2,2026.1.1,Win32,61.34969325,610192be9b03bd29e260fe74,69b95efdef24cd8a694e89ee,69b96080e75d2745959feb08,0.0325,0.0325,0,51,51,155,1,sixeight,,,,,,,,,,,,,,,,,,,,,,,,,,,,,,,,,,,,,,,,,,,,,,,,,,,,,,,,,,,,,,,,,,,,,,,,,,,,,,,,,,,,,,,,,,,,,,,,,,,,,,,,,,,,,,,,,,,,,,,,,,,,,,,,,,,,,,,,,
,,610192be9b03bd29e260fe74,2026-03-17_16h13.48.127,kallum_motion_pilot_GIST_update_2,2026.1.1,Win32,61.34969325,610192be9b03bd29e260fe74,69b95efdef24cd8a694e89ee,69b96080e75d2745959feb08,0.0326,0.0326,0,52,52,16,1,onetwo,,,,,,,,,,,,,,,,,,,,,,,,,,,,,,,,,,,,,,,,,,,,,,,,,,,,,,,,,,,,,,,,,,,,,,,,,,,,,,,,,,,,,,,,,,,,,,,,,,,,,,,,,,,,,,,,,,,,,,,,,,,,,,,,,,,,,,,,,
,,610192be9b03bd29e260fe74,2026-03-17_16h13.48.127,kallum_motion_pilot_GIST_update_2,2026.1.1,Win32,61.34969325,610192be9b03bd29e260fe74,69b95efdef24cd8a694e89ee,69b96080e75d2745959feb08,0.0327,0.0327,0,53,53,101,1,seveneight,,,,,,,,,,,,,,,,,,,,,,,,,,,,,,,,,,,,,,,,,,,,,,,,,,,,,,,,,,,,,,,,,,,,,,,,,,,,,,,,,,,,,,,,,,,,,,,,,,,,,,,,,,,,,,,,,,,,,,,,,,,,,,,,,,,,,,,,,
,,610192be9b03bd29e260fe74,2026-03-17_16h13.48.127,kallum_motion_pilot_GIST_update_2,2026.1.1,Win32,61.34969325,610192be9b03bd29e260fe74,69b95efdef24cd8a694e89ee,69b96080e75d2745959feb08,0.0327,0.0327,0,54,54,19,1,twofour,,,,,,,,,,,,,,,,,,,,,,,,,,,,,,,,,,,,,,,,,,,,,,,,,,,,,,,,,,,,,,,,,,,,,,,,,,,,,,,,,,,,,,,,,,,,,,,,,,,,,,,,,,,,,,,,,,,,,,,,,,,,,,,,,,,,,,,,,
,,610192be9b03bd29e260fe74,2026-03-17_16h13.48.127,kallum_motion_pilot_GIST_update_2,2026.1.1,Win32,61.34969325,610192be9b03bd29e260fe74,69b95efdef24cd8a694e89ee,69b96080e75d2745959feb08,0.0329,0.0329,0,55,55,62,1,fourtwo,,,,,,,,,,,,,,,,,,,,,,,,,,,,,,,,,,,,,,,,,,,,,,,,,,,,,,,,,,,,,,,,,,,,,,,,,,,,,,,,,,,,,,,,,,,,,,,,,,,,,,,,,,,,,,,,,,,,,,,,,,,,,,,,,,,,,,,,,
,,610192be9b03bd29e260fe74,2026-03-17_16h13.48.127,kallum_motion_pilot_GIST_update_2,2026.1.1,Win32,61.34969325,610192be9b03bd29e260fe74,69b95efdef24cd8a694e89ee,69b96080e75d2745959feb08,0.033,0.033,0,56,56,87,1,eightseven,,,,,,,,,,,,,,,,,,,,,,,,,,,,,,,,,,,,,,,,,,,,,,,,,,,,,,,,,,,,,,,,,,,,,,,,,,,,,,,,,,,,,,,,,,,,,,,,,,,,,,,,,,,,,,,,,,,,,,,,,,,,,,,,,,,,,,,,,
,,610192be9b03bd29e260fe74,2026-03-17_16h13.48.127,kallum_motion_pilot_GIST_update_2,2026.1.1,Win32,61.34969325,610192be9b03bd29e260fe74,69b95efdef24cd8a694e89ee,69b96080e75d2745959feb08,0.0331,0.0331,0,57,57,91,1,sixeight,,,,,,,,,,,,,,,,,,,,,,,,,,,,,,,,,,,,,,,,,,,,,,,,,,,,,,,,,,,,,,,,,,,,,,,,,,,,,,,,,,,,,,,,,,,,,,,,,,,,,,,,,,,,,,,,,,,,,,,,,,,,,,,,,,,,,,,,,
,,610192be9b03bd29e260fe74,2026-03-17_16h13.48.127,kallum_motion_pilot_GIST_update_2,2026.1.1,Win32,61.34969325,610192be9b03bd29e260fe74,69b95efdef24cd8a694e89ee,69b96080e75d2745959feb08,0.0332,0.0332,0,58,58,54,1,fourtwo,,,,,,,,,,,,,,,,,,,,,,,,,,,,,,,,,,,,,,,,,,,,,,,,,,,,,,,,,,,,,,,,,,,,,,,,,,,,,,,,,,,,,,,,,,,,,,,,,,,,,,,,,,,,,,,,,,,,,,,,,,,,,,,,,,,,,,,,,
,,610192be9b03bd29e260fe74,2026-03-17_16h13.48.127,kallum_motion_pilot_GIST_update_2,2026.1.1,Win32,61.34969325,610192be9b03bd29e260fe74,69b95efdef24cd8a694e89ee,69b96080e75d2745959feb08,0.0332,0.0332,0,59,59,38,1,fourtwo,,,,,,,,,,,,,,,,,,,,,,,,,,,,,,,,,,,,,,,,,,,,,,,,,,,,,,,,,,,,,,,,,,,,,,,,,,,,,,,,,,,,,,,,,,,,,,,,,,,,,,,,,,,,,,,,,,,,,,,,,,,,,,,,,,,,,,,,,
,,610192be9b03bd29e260fe74,2026-03-17_16h13.48.127,kallum_motion_pilot_GIST_update_2,2026.1.1,Win32,61.34969325,610192be9b03bd29e260fe74,69b95efdef24cd8a694e89ee,69b96080e75d2745959feb08,0.0333,0.0333,0,60,60,9,1,onethree,,,,,,,,,,,,,,,,,,,,,,,,,,,,,,,,,,,,,,,,,,,,,,,,,,,,,,,,,,,,,,,,,,,,,,,,,,,,,,,,,,,,,,,,,,,,,,,,,,,,,,,,,,,,,,,,,,,,,,,,,,,,,,,,,,,,,,,,,
,,610192be9b03bd29e260fe74,2026-03-17_16h13.48.127,kallum_motion_pilot_GIST_update_2,2026.1.1,Win32,61.34969325,610192be9b03bd29e260fe74,69b95efdef24cd8a694e89ee,69b96080e75d2745959feb08,0.0334,0.0334,0,61,61,74,1,twoone,,,,,,,,,,,,,,,,,,,,,,,,,,,,,,,,,,,,,,,,,,,,,,,,,,,,,,,,,,,,,,,,,,,,,,,,,,,,,,,,,,,,,,,,,,,,,,,,,,,,,,,,,,,,,,,,,,,,,,,,,,,,,,,,,,,,,,,,,
,,610192be9b03bd29e260fe74,2026-03-17_16h13.48.127,kallum_motion_pilot_GIST_update_2,2026.1.1,Win32,61.34969325,610192be9b03bd29e260fe74,69b95efdef24cd8a694e89ee,69b96080e75d2745959feb08,0.0335,0.0335,0,62,62,130,1,sixfive,,,,,,,,,,,,,,,,,,,,,,,,,,,,,,,,,,,,,,,,,,,,,,,,,,,,,,,,,,,,,,,,,,,,,,,,,,,,,,,,,,,,,,,,,,,,,,,,,,,,,,,,,,,,,,,,,,,,,,,,,,,,,,,,,,,,,,,,,
,,610192be9b03bd29e260fe74,2026-03-17_16h13.48.127,kallum_motion_pilot_GIST_update_2,2026.1.1,Win32,61.34969325,610192be9b03bd29e260fe74,69b95efdef24cd8a694e89ee,69b96080e75d2745959feb08,0.0336,0.0336,0,63,63,25,1,onethree,,,,,,,,,,,,,,,,,,,,,,,,,,,,,,,,,,,,,,,,,,,,,,,,,,,,,,,,,,,,,,,,,,,,,,,,,,,,,,,,,,,,,,,,,,,,,,,,,,,,,,,,,,,,,,,,,,,,,,,,,,,,,,,,,,,,,,,,,
,,610192be9b03bd29e260fe74,2026-03-17_16h13.48.127,kallum_motion_pilot_GIST_update_2,2026.1.1,Win32,61.34969325,610192be9b03bd29e260fe74,69b95efdef24cd8a694e89ee,69b96080e75d2745959feb08,0.0337,0.0337,0,64,64,85,1,seveneight,,,,,,,,,,,,,,,,,,,,,,,,,,,,,,,,,,,,,,,,,,,,,,,,,,,,,,,,,,,,,,,,,,,,,,,,,,,,,,,,,,,,,,,,,,,,,,,,,,,,,,,,,,,,,,,,,,,,,,,,,,,,,,,,,,,,,,,,,
,,610192be9b03bd29e260fe74,2026-03-17_16h13.48.127,kallum_motion_pilot_GIST_update_2,2026.1.1,Win32,61.34969325,610192be9b03bd29e260fe74,69b95efdef24cd8a694e89ee,69b96080e75d2745959feb08,0.0338,0.0338,0,65,65,39,1,fourthree,,,,,,,,,,,,,,,,,,,,,,,,,,,,,,,,,,,,,,,,,,,,,,,,,,,,,,,,,,,,,,,,,,,,,,,,,,,,,,,,,,,,,,,,,,,,,,,,,,,,,,,,,,,,,,,,,,,,,,,,,,,,,,,,,,,,,,,,,
,,610192be9b03bd29e260fe74,2026-03-17_16h13.48.127,kallum_motion_pilot_GIST_update_2,2026.1.1,Win32,61.34969325,610192be9b03bd29e260fe74,69b95efdef24cd8a694e89ee,69b96080e75d2745959feb08,0.0339,0.0339,0,66,66,148,1,sevenfive,,,,,,,,,,,,,,,,,,,,,,,,,,,,,,,,,,,,,,,,,,,,,,,,,,,,,,,,,,,,,,,,,,,,,,,,,,,,,,,,,,,,,,,,,,,,,,,,,,,,,,,,,,,,,,,,,,,,,,,,,,,,,,,,,,,,,,,,,
,,610192be9b03bd29e260fe74,2026-03-17_16h13.48.127,kallum_motion_pilot_GIST_update_2,2026.1.1,Win32,61.34969325,610192be9b03bd29e260fe74,69b95efdef24cd8a694e89ee,69b96080e75d2745959feb08,0.034,0.034,0,67,67,75,1,twofour,,,,,,,,,,,,,,,,,,,,,,,,,,,,,,,,,,,,,,,,,,,,,,,,,,,,,,,,,,,,,,,,,,,,,,,,,,,,,,,,,,,,,,,,,,,,,,,,,,,,,,,,,,,,,,,,,,,,,,,,,,,,,,,,,,,,,,,,,
,,610192be9b03bd29e260fe74,2026-03-17_16h13.48.127,kallum_motion_pilot_GIST_update_2,2026.1.1,Win32,61.34969325,610192be9b03bd29e260fe74,69b95efdef24cd8a694e89ee,69b96080e75d2745959feb08,0.0341,0.0341,0,68,68,139,1,sixeight,,,,,,,,,,,,,,,,,,,,,,,,,,,,,,,,,,,,,,,,,,,,,,,,,,,,,,,,,,,,,,,,,,,,,,,,,,,,,,,,,,,,,,,,,,,,,,,,,,,,,,,,,,,,,,,,,,,,,,,,,,,,,,,,,,,,,,,,,
,,610192be9b03bd29e260fe74,2026-03-17_16h13.48.127,kallum_motion_pilot_GIST_update_2,2026.1.1,Win32,61.34969325,610192be9b03bd29e260fe74,69b95efdef24cd8a694e89ee,69b96080e75d2745959feb08,0.0342,0.0342,0,69,69,61,1,threefour,,,,,,,,,,,,,,,,,,,,,,,,,,,,,,,,,,,,,,,,,,,,,,,,,,,,,,,,,,,,,,,,,,,,,,,,,,,,,,,,,,,,,,,,,,,,,,,,,,,,,,,,,,,,,,,,,,,,,,,,,,,,,,,,,,,,,,,,,
,,610192be9b03bd29e260fe74,2026-03-17_16h13.48.127,kallum_motion_pilot_GIST_update_2,2026.1.1,Win32,61.34969325,610192be9b03bd29e260fe74,69b95efdef24cd8a694e89ee,69b96080e75d2745959feb08,0.0343,0.0343,0,70,70,105,1,fiveseven,,,,,,,,,,,,,,,,,,,,,,,,,,,,,,,,,,,,,,,,,,,,,,,,,,,,,,,,,,,,,,,,,,,,,,,,,,,,,,,,,,,,,,,,,,,,,,,,,,,,,,,,,,,,,,,,,,,,,,,,,,,,,,,,,,,,,,,,,
,,610192be9b03bd29e260fe74,2026-03-17_16h13.48.127,kallum_motion_pilot_GIST_update_2,2026.1.1,Win32,61.34969325,610192be9b03bd29e260fe74,69b95efdef24cd8a694e89ee,69b96080e75d2745959feb08,0.0344,0.0344,0,71,71,78,1,fourtwo,,,,,,,,,,,,,,,,,,,,,,,,,,,,,,,,,,,,,,,,,,,,,,,,,,,,,,,,,,,,,,,,,,,,,,,,,,,,,,,,,,,,,,,,,,,,,,,,,,,,,,,,,,,,,,,,,,,,,,,,,,,,,,,,,,,,,,,,,
,,610192be9b03bd29e260fe74,2026-03-17_16h13.48.127,kallum_motion_pilot_GIST_update_2,2026.1.1,Win32,61.34969325,610192be9b03bd29e260fe74,69b95efdef24cd8a694e89ee,69b96080e75d2745959feb08,0.0345,0.0345,0,72,72,160,1,fivesix,,,,,,,,,,,,,,,,,,,,,,,,,,,,,,,,,,,,,,,,,,,,,,,,,,,,,,,,,,,,,,,,,,,,,,,,,,,,,,,,,,,,,,,,,,,,,,,,,,,,,,,,,,,,,,,,,,,,,,,,,,,,,,,,,,,,,,,,,
,,610192be9b03bd29e260fe74,2026-03-17_16h13.48.127,kallum_motion_pilot_GIST_update_2,2026.1.1,Win32,61.34969325,610192be9b03bd29e260fe74,69b95efdef24cd8a694e89ee,69b96080e75d2745959feb08,0.0346,0.0346,0,73,73,103,1,eightseven,,,,,,,,,,,,,,,,,,,,,,,,,,,,,,,,,,,,,,,,,,,,,,,,,,,,,,,,,,,,,,,,,,,,,,,,,,,,,,,,,,,,,,,,,,,,,,,,,,,,,,,,,,,,,,,,,,,,,,,,,,,,,,,,,,,,,,,,,
,,610192be9b03bd29e260fe74,2026-03-17_16h13.48.127,kallum_motion_pilot_GIST_update_2,2026.1.1,Win32,61.34969325,610192be9b03bd29e260fe74,69b95efdef24cd8a694e89ee,69b96080e75d2745959feb08,0.0347,0.0348,0,74,74,142,1,eightsix,,,,,,,,,,,,,,,,,,,,,,,,,,,,,,,,,,,,,,,,,,,,,,,,,,,,,,,,,,,,,,,,,,,,,,,,,,,,,,,,,,,,,,,,,,,,,,,,,,,,,,,,,,,,,,,,,,,,,,,,,,,,,,,,,,,,,,,,,
,,610192be9b03bd29e260fe74,2026-03-17_16h13.48.127,kallum_motion_pilot_GIST_update_2,2026.1.1,Win32,61.34969325,610192be9b03bd29e260fe74,69b95efdef24cd8a694e89ee,69b96080e75d2745959feb08,0.0348,0.0348,0,75,75,76,1,threeone,,,,,,,,,,,,,,,,,,,,,,,,,,,,,,,,,,,,,,,,,,,,,,,,,,,,,,,,,,,,,,,,,,,,,,,,,,,,,,,,,,,,,,,,,,,,,,,,,,,,,,,,,,,,,,,,,,,,,,,,,,,,,,,,,,,,,,,,,
,,610192be9b03bd29e260fe74,2026-03-17_16h13.48.127,kallum_motion_pilot_GIST_update_2,2026.1.1,Win32,61.34969325,610192be9b03bd29e260fe74,69b95efdef24cd8a694e89ee,69b96080e75d2745959feb08,0.0349,0.0349,0,76,76,86,1,eightsix,,,,,,,,,,,,,,,,,,,,,,,,,,,,,,,,,,,,,,,,,,,,,,,,,,,,,,,,,,,,,,,,,,,,,,,,,,,,,,,,,,,,,,,,,,,,,,,,,,,,,,,,,,,,,,,,,,,,,,,,,,,,,,,,,,,,,,,,,
,,610192be9b03bd29e260fe74,2026-03-17_16h13.48.127,kallum_motion_pilot_GIST_update_2,2026.1.1,Win32,61.34969325,610192be9b03bd29e260fe74,69b95efdef24cd8a694e89ee,69b96080e75d2745959feb08,0.035,0.0351,0,77,77,135,1,eightseven,,,,,,,,,,,,,,,,,,,,,,,,,,,,,,,,,,,,,,,,,,,,,,,,,,,,,,,,,,,,,,,,,,,,,,,,,,,,,,,,,,,,,,,,,,,,,,,,,,,,,,,,,,,,,,,,,,,,,,,,,,,,,,,,,,,,,,,,,
,,610192be9b03bd29e260fe74,2026-03-17_16h13.48.127,kallum_motion_pilot_GIST_update_2,2026.1.1,Win32,61.34969325,610192be9b03bd29e260fe74,69b95efdef24cd8a694e89ee,69b96080e75d2745959feb08,0.0351,0.0351,0,78,78,121,1,fiveseven,,,,,,,,,,,,,,,,,,,,,,,,,,,,,,,,,,,,,,,,,,,,,,,,,,,,,,,,,,,,,,,,,,,,,,,,,,,,,,,,,,,,,,,,,,,,,,,,,,,,,,,,,,,,,,,,,,,,,,,,,,,,,,,,,,,,,,,,,
,,610192be9b03bd29e260fe74,2026-03-17_16h13.48.127,kallum_motion_pilot_GIST_update_2,2026.1.1,Win32,61.34969325,610192be9b03bd29e260fe74,69b95efdef24cd8a694e89ee,69b96080e75d2745959feb08,0.0352,0.0352,0,79,79,42,1,twoone,,,,,,,,,,,,,,,,,,,,,,,,,,,,,,,,,,,,,,,,,,,,,,,,,,,,,,,,,,,,,,,,,,,,,,,,,,,,,,,,,,,,,,,,,,,,,,,,,,,,,,,,,,,,,,,,,,,,,,,,,,,,,,,,,,,,,,,,,
,,610192be9b03bd29e260fe74,2026-03-17_16h13.48.127,kallum_motion_pilot_GIST_update_2,2026.1.1,Win32,61.34969325,610192be9b03bd29e260fe74,69b95efdef24cd8a694e89ee,69b96080e75d2745959feb08,0.0354,0.0354,0,80,80,28,1,threeone,,,,,,,,,,,,,,,,,,,,,,,,,,,,,,,,,,,,,,,,,,,,,,,,,,,,,,,,,,,,,,,,,,,,,,,,,,,,,,,,,,,,,,,,,,,,,,,,,,,,,,,,,,,,,,,,,,,,,,,,,,,,,,,,,,,,,,,,,
,,610192be9b03bd29e260fe74,2026-03-17_16h13.48.127,kallum_motion_pilot_GIST_update_2,2026.1.1,Win32,61.34969325,610192be9b03bd29e260fe74,69b95efdef24cd8a694e89ee,69b96080e75d2745959feb08,0.0355,0.0355,0,81,81,145,1,fiveseven,,,,,,,,,,,,,,,,,,,,,,,,,,,,,,,,,,,,,,,,,,,,,,,,,,,,,,,,,,,,,,,,,,,,,,,,,,,,,,,,,,,,,,,,,,,,,,,,,,,,,,,,,,,,,,,,,,,,,,,,,,,,,,,,,,,,,,,,,
,,610192be9b03bd29e260fe74,2026-03-17_16h13.48.127,kallum_motion_pilot_GIST_update_2,2026.1.1,Win32,61.34969325,610192be9b03bd29e260fe74,69b95efdef24cd8a694e89ee,69b96080e75d2745959feb08,0.0355,0.0355,0,82,82,33,1,onethree,,,,,,,,,,,,,,,,,,,,,,,,,,,,,,,,,,,,,,,,,,,,,,,,,,,,,,,,,,,,,,,,,,,,,,,,,,,,,,,,,,,,,,,,,,,,,,,,,,,,,,,,,,,,,,,,,,,,,,,,,,,,,,,,,,,,,,,,,
,,610192be9b03bd29e260fe74,2026-03-17_16h13.48.127,kallum_motion_pilot_GIST_update_2,2026.1.1,Win32,61.34969325,610192be9b03bd29e260fe74,69b95efdef24cd8a694e89ee,69b96080e75d2745959feb08,0.0356,0.0356,0,83,83,128,1,fivesix,,,,,,,,,,,,,,,,,,,,,,,,,,,,,,,,,,,,,,,,,,,,,,,,,,,,,,,,,,,,,,,,,,,,,,,,,,,,,,,,,,,,,,,,,,,,,,,,,,,,,,,,,,,,,,,,,,,,,,,,,,,,,,,,,,,,,,,,,
,,610192be9b03bd29e260fe74,2026-03-17_16h13.48.127,kallum_motion_pilot_GIST_update_2,2026.1.1,Win32,61.34969325,610192be9b03bd29e260fe74,69b95efdef24cd8a694e89ee,69b96080e75d2745959feb08,0.0357,0.0357,0,84,84,60,1,threeone,,,,,,,,,,,,,,,,,,,,,,,,,,,,,,,,,,,,,,,,,,,,,,,,,,,,,,,,,,,,,,,,,,,,,,,,,,,,,,,,,,,,,,,,,,,,,,,,,,,,,,,,,,,,,,,,,,,,,,,,,,,,,,,,,,,,,,,,,
,,610192be9b03bd29e260fe74,2026-03-17_16h13.48.127,kallum_motion_pilot_GIST_update_2,2026.1.1,Win32,61.34969325,610192be9b03bd29e260fe74,69b95efdef24cd8a694e89ee,69b96080e75d2745959feb08,0.0358,0.0358,0,85,85,32,1,onetwo,,,,,,,,,,,,,,,,,,,,,,,,,,,,,,,,,,,,,,,,,,,,,,,,,,,,,,,,,,,,,,,,,,,,,,,,,,,,,,,,,,,,,,,,,,,,,,,,,,,,,,,,,,,,,,,,,,,,,,,,,,,,,,,,,,,,,,,,,
,,610192be9b03bd29e260fe74,2026-03-17_16h13.48.127,kallum_motion_pilot_GIST_update_2,2026.1.1,Win32,61.34969325,610192be9b03bd29e260fe74,69b95efdef24cd8a694e89ee,69b96080e75d2745959feb08,0.0359,0.0359,0,86,86,149,1,seveneight,,,,,,,,,,,,,,,,,,,,,,,,,,,,,,,,,,,,,,,,,,,,,,,,,,,,,,,,,,,,,,,,,,,,,,,,,,,,,,,,,,,,,,,,,,,,,,,,,,,,,,,,,,,,,,,,,,,,,,,,,,,,,,,,,,,,,,,,,
,,610192be9b03bd29e260fe74,2026-03-17_16h13.48.127,kallum_motion_pilot_GIST_update_2,2026.1.1,Win32,61.34969325,610192be9b03bd29e260fe74,69b95efdef24cd8a694e89ee,69b96080e75d2745959feb08,0.036,0.036,0,87,87,56,1,onetwo,,,,,,,,,,,,,,,,,,,,,,,,,,,,,,,,,,,,,,,,,,,,,,,,,,,,,,,,,,,,,,,,,,,,,,,,,,,,,,,,,,,,,,,,,,,,,,,,,,,,,,,,,,,,,,,,,,,,,,,,,,,,,,,,,,,,,,,,,
,,610192be9b03bd29e260fe74,2026-03-17_16h13.48.127,kallum_motion_pilot_GIST_update_2,2026.1.1,Win32,61.34969325,610192be9b03bd29e260fe74,69b95efdef24cd8a694e89ee,69b96080e75d2745959feb08,0.0361,0.0361,0,88,88,15,1,fourthree,,,,,,,,,,,,,,,,,,,,,,,,,,,,,,,,,,,,,,,,,,,,,,,,,,,,,,,,,,,,,,,,,,,,,,,,,,,,,,,,,,,,,,,,,,,,,,,,,,,,,,,,,,,,,,,,,,,,,,,,,,,,,,,,,,,,,,,,,
,,610192be9b03bd29e260fe74,2026-03-17_16h13.48.127,kallum_motion_pilot_GIST_update_2,2026.1.1,Win32,61.34969325,610192be9b03bd29e260fe74,69b95efdef24cd8a694e89ee,69b96080e75d2745959feb08,0.0362,0.0362,0,89,89,154,1,sixfive,,,,,,,,,,,,,,,,,,,,,,,,,,,,,,,,,,,,,,,,,,,,,,,,,,,,,,,,,,,,,,,,,,,,,,,,,,,,,,,,,,,,,,,,,,,,,,,,,,,,,,,,,,,,,,,,,,,,,,,,,,,,,,,,,,,,,,,,,
,,610192be9b03bd29e260fe74,2026-03-17_16h13.48.127,kallum_motion_pilot_GIST_update_2,2026.1.1,Win32,61.34969325,610192be9b03bd29e260fe74,69b95efdef24cd8a694e89ee,69b96080e75d2745959feb08,0.0364,0.0364,0,90,90,109,1,seveneight,,,,,,,,,,,,,,,,,,,,,,,,,,,,,,,,,,,,,,,,,,,,,,,,,,,,,,,,,,,,,,,,,,,,,,,,,,,,,,,,,,,,,,,,,,,,,,,,,,,,,,,,,,,,,,,,,,,,,,,,,,,,,,,,,,,,,,,,,
,,610192be9b03bd29e260fe74,2026-03-17_16h13.48.127,kallum_motion_pilot_GIST_update_2,2026.1.1,Win32,61.34969325,610192be9b03bd29e260fe74,69b95efdef24cd8a694e89ee,69b96080e75d2745959feb08,0.0364,0.0364,0,91,91,102,1,eightsix,,,,,,,,,,,,,,,,,,,,,,,,,,,,,,,,,,,,,,,,,,,,,,,,,,,,,,,,,,,,,,,,,,,,,,,,,,,,,,,,,,,,,,,,,,,,,,,,,,,,,,,,,,,,,,,,,,,,,,,,,,,,,,,,,,,,,,,,,
,,610192be9b03bd29e260fe74,2026-03-17_16h13.48.127,kallum_motion_pilot_GIST_update_2,2026.1.1,Win32,61.34969325,610192be9b03bd29e260fe74,69b95efdef24cd8a694e89ee,69b96080e75d2745959feb08,0.0365,0.0366,0,92,92,112,1,fivesix,,,,,,,,,,,,,,,,,,,,,,,,,,,,,,,,,,,,,,,,,,,,,,,,,,,,,,,,,,,,,,,,,,,,,,,,,,,,,,,,,,,,,,,,,,,,,,,,,,,,,,,,,,,,,,,,,,,,,,,,,,,,,,,,,,,,,,,,,
,,610192be9b03bd29e260fe74,2026-03-17_16h13.48.127,kallum_motion_pilot_GIST_update_2,2026.1.1,Win32,61.34969325,610192be9b03bd29e260fe74,69b95efdef24cd8a694e89ee,69b96080e75d2745959feb08,0.0367,0.0367,0,93,93,8,1,onetwo,,,,,,,,,,,,,,,,,,,,,,,,,,,,,,,,,,,,,,,,,,,,,,,,,,,,,,,,,,,,,,,,,,,,,,,,,,,,,,,,,,,,,,,,,,,,,,,,,,,,,,,,,,,,,,,,,,,,,,,,,,,,,,,,,,,,,,,,,
,,610192be9b03bd29e260fe74,2026-03-17_16h13.48.127,kallum_motion_pilot_GIST_update_2,2026.1.1,Win32,61.34969325,610192be9b03bd29e260fe74,69b95efdef24cd8a694e89ee,69b96080e75d2745959feb08,0.0368,0.0368,0,94,94,14,1,fourtwo,,,,,,,,,,,,,,,,,,,,,,,,,,,,,,,,,,,,,,,,,,,,,,,,,,,,,,,,,,,,,,,,,,,,,,,,,,,,,,,,,,,,,,,,,,,,,,,,,,,,,,,,,,,,,,,,,,,,,,,,,,,,,,,,,,,,,,,,,
,,610192be9b03bd29e260fe74,2026-03-17_16h13.48.127,kallum_motion_pilot_GIST_update_2,2026.1.1,Win32,61.34969325,610192be9b03bd29e260fe74,69b95efdef24cd8a694e89ee,69b96080e75d2745959feb08,0.0369,0.037,0,95,95,46,1,fourtwo,,,,,,,,,,,,,,,,,,,,,,,,,,,,,,,,,,,,,,,,,,,,,,,,,,,,,,,,,,,,,,,,,,,,,,,,,,,,,,,,,,,,,,,,,,,,,,,,,,,,,,,,,,,,,,,,,,,,,,,,,,,,,,,,,,,,,,,,,
,,610192be9b03bd29e260fe74,2026-03-17_16h13.48.127,kallum_motion_pilot_GIST_update_2,2026.1.1,Win32,61.34969325,610192be9b03bd29e260fe74,69b95efdef24cd8a694e89ee,69b96080e75d2745959feb08,0.037,0.0371,0,96,96,143,1,eightseven,,,,,,,,,,,,,,,,,,,,,,,,,,,,,,,,,,,,,,,,,,,,,,,,,,,,,,,,,,,,,,,,,,,,,,,,,,,,,,,,,,,,,,,,,,,,,,,,,,,,,,,,,,,,,,,,,,,,,,,,,,,,,,,,,,,,,,,,,
,,610192be9b03bd29e260fe74,2026-03-17_16h13.48.127,kallum_motion_pilot_GIST_update_2,2026.1.1,Win32,61.34969325,610192be9b03bd29e260fe74,69b95efdef24cd8a694e89ee,69b96080e75d2745959feb08,0.0372,0.0372,0,97,97,58,1,twoone,,,,,,,,,,,,,,,,,,,,,,,,,,,,,,,,,,,,,,,,,,,,,,,,,,,,,,,,,,,,,,,,,,,,,,,,,,,,,,,,,,,,,,,,,,,,,,,,,,,,,,,,,,,,,,,,,,,,,,,,,,,,,,,,,,,,,,,,,
,,610192be9b03bd29e260fe74,2026-03-17_16h13.48.127,kallum_motion_pilot_GIST_update_2,2026.1.1,Win32,61.34969325,610192be9b03bd29e260fe74,69b95efdef24cd8a694e89ee,69b96080e75d2745959feb08,0.0372,0.0372,0,98,98,17,1,onethree,,,,,,,,,,,,,,,,,,,,,,,,,,,,,,,,,,,,,,,,,,,,,,,,,,,,,,,,,,,,,,,,,,,,,,,,,,,,,,,,,,,,,,,,,,,,,,,,,,,,,,,,,,,,,,,,,,,,,,,,,,,,,,,,,,,,,,,,,
,,610192be9b03bd29e260fe74,2026-03-17_16h13.48.127,kallum_motion_pilot_GIST_update_2,2026.1.1,Win32,61.34969325,610192be9b03bd29e260fe74,69b95efdef24cd8a694e89ee,69b96080e75d2745959feb08,0.0373,0.0373,0,99,99,107,1,sixeight,,,,,,,,,,,,,,,,,,,,,,,,,,,,,,,,,,,,,,,,,,,,,,,,,,,,,,,,,,,,,,,,,,,,,,,,,,,,,,,,,,,,,,,,,,,,,,,,,,,,,,,,,,,,,,,,,,,,,,,,,,,,,,,,,,,,,,,,,
,,610192be9b03bd29e260fe74,2026-03-17_16h13.48.127,kallum_motion_pilot_GIST_update_2,2026.1.1,Win32,61.34969325,610192be9b03bd29e260fe74,69b95efdef24cd8a694e89ee,69b96080e75d2745959feb08,0.0375,0.0375,0,100,100,124,1,sevenfive,,,,,,,,,,,,,,,,,,,,,,,,,,,,,,,,,,,,,,,,,,,,,,,,,,,,,,,,,,,,,,,,,,,,,,,,,,,,,,,,,,,,,,,,,,,,,,,,,,,,,,,,,,,,,,,,,,,,,,,,,,,,,,,,,,,,,,,,,
,,610192be9b03bd29e260fe74,2026-03-17_16h13.48.127,kallum_motion_pilot_GIST_update_2,2026.1.1,Win32,61.34969325,610192be9b03bd29e260fe74,69b95efdef24cd8a694e89ee,69b96080e75d2745959feb08,0.0376,0.0376,0,101,101,4,1,threeone,,,,,,,,,,,,,,,,,,,,,,,,,,,,,,,,,,,,,,,,,,,,,,,,,,,,,,,,,,,,,,,,,,,,,,,,,,,,,,,,,,,,,,,,,,,,,,,,,,,,,,,,,,,,,,,,,,,,,,,,,,,,,,,,,,,,,,,,,
,,610192be9b03bd29e260fe74,2026-03-17_16h13.48.127,kallum_motion_pilot_GIST_update_2,2026.1.1,Win32,61.34969325,610192be9b03bd29e260fe74,69b95efdef24cd8a694e89ee,69b96080e75d2745959feb08,0.0377,0.0377,0,102,102,81,1,fiveseven,,,,,,,,,,,,,,,,,,,,,,,,,,,,,,,,,,,,,,,,,,,,,,,,,,,,,,,,,,,,,,,,,,,,,,,,,,,,,,,,,,,,,,,,,,,,,,,,,,,,,,,,,,,,,,,,,,,,,,,,,,,,,,,,,,,,,,,,,
,,610192be9b03bd29e260fe74,2026-03-17_16h13.48.127,kallum_motion_pilot_GIST_update_2,2026.1.1,Win32,61.34969325,610192be9b03bd29e260fe74,69b95efdef24cd8a694e89ee,69b96080e75d2745959feb08,0.0378,0.0378,0,103,103,141,1,seveneight,,,,,,,,,,,,,,,,,,,,,,,,,,,,,,,,,,,,,,,,,,,,,,,,,,,,,,,,,,,,,,,,,,,,,,,,,,,,,,,,,,,,,,,,,,,,,,,,,,,,,,,,,,,,,,,,,,,,,,,,,,,,,,,,,,,,,,,,,
,,610192be9b03bd29e260fe74,2026-03-17_16h13.48.127,kallum_motion_pilot_GIST_update_2,2026.1.1,Win32,61.34969325,610192be9b03bd29e260fe74,69b95efdef24cd8a694e89ee,69b96080e75d2745959feb08,0.0379,0.0379,0,104,104,52,1,threeone,,,,,,,,,,,,,,,,,,,,,,,,,,,,,,,,,,,,,,,,,,,,,,,,,,,,,,,,,,,,,,,,,,,,,,,,,,,,,,,,,,,,,,,,,,,,,,,,,,,,,,,,,,,,,,,,,,,,,,,,,,,,,,,,,,,,,,,,,
,,610192be9b03bd29e260fe74,2026-03-17_16h13.48.127,kallum_motion_pilot_GIST_update_2,2026.1.1,Win32,61.34969325,610192be9b03bd29e260fe74,69b95efdef24cd8a694e89ee,69b96080e75d2745959feb08,0.038,0.038,0,105,105,97,1,fiveseven,,,,,,,,,,,,,,,,,,,,,,,,,,,,,,,,,,,,,,,,,,,,,,,,,,,,,,,,,,,,,,,,,,,,,,,,,,,,,,,,,,,,,,,,,,,,,,,,,,,,,,,,,,,,,,,,,,,,,,,,,,,,,,,,,,,,,,,,,
,,610192be9b03bd29e260fe74,2026-03-17_16h13.48.127,kallum_motion_pilot_GIST_update_2,2026.1.1,Win32,61.34969325,610192be9b03bd29e260fe74,69b95efdef24cd8a694e89ee,69b96080e75d2745959feb08,0.0381,0.0381,0,106,106,137,1,fiveseven,,,,,,,,,,,,,,,,,,,,,,,,,,,,,,,,,,,,,,,,,,,,,,,,,,,,,,,,,,,,,,,,,,,,,,,,,,,,,,,,,,,,,,,,,,,,,,,,,,,,,,,,,,,,,,,,,,,,,,,,,,,,,,,,,,,,,,,,,
,,610192be9b03bd29e260fe74,2026-03-17_16h13.48.127,kallum_motion_pilot_GIST_update_2,2026.1.1,Win32,61.34969325,610192be9b03bd29e260fe74,69b95efdef24cd8a694e89ee,69b96080e75d2745959feb08,0.0383,0.0383,0,107,107,22,1,fourtwo,,,,,,,,,,,,,,,,,,,,,,,,,,,,,,,,,,,,,,,,,,,,,,,,,,,,,,,,,,,,,,,,,,,,,,,,,,,,,,,,,,,,,,,,,,,,,,,,,,,,,,,,,,,,,,,,,,,,,,,,,,,,,,,,,,,,,,,,,
,,610192be9b03bd29e260fe74,2026-03-17_16h13.48.127,kallum_motion_pilot_GIST_update_2,2026.1.1,Win32,61.34969325,610192be9b03bd29e260fe74,69b95efdef24cd8a694e89ee,69b96080e75d2745959feb08,0.0384,0.0384,0,108,108,29,1,threefour,,,,,,,,,,,,,,,,,,,,,,,,,,,,,,,,,,,,,,,,,,,,,,,,,,,,,,,,,,,,,,,,,,,,,,,,,,,,,,,,,,,,,,,,,,,,,,,,,,,,,,,,,,,,,,,,,,,,,,,,,,,,,,,,,,,,,,,,,
,,610192be9b03bd29e260fe74,2026-03-17_16h13.48.127,kallum_motion_pilot_GIST_update_2,2026.1.1,Win32,61.34969325,610192be9b03bd29e260fe74,69b95efdef24cd8a694e89ee,69b96080e75d2745959feb08,0.0384,0.0384,0,109,109,126,1,eightsix,,,,,,,,,,,,,,,,,,,,,,,,,,,,,,,,,,,,,,,,,,,,,,,,,,,,,,,,,,,,,,,,,,,,,,,,,,,,,,,,,,,,,,,,,,,,,,,,,,,,,,,,,,,,,,,,,,,,,,,,,,,,,,,,,,,,,,,,,
,,610192be9b03bd29e260fe74,2026-03-17_16h13.48.127,kallum_motion_pilot_GIST_update_2,2026.1.1,Win32,61.34969325,610192be9b03bd29e260fe74,69b95efdef24cd8a694e89ee,69b96080e75d2745959feb08,0.0386,0.0386,0,110,110,3,1,twofour,,,,,,,,,,,,,,,,,,,,,,,,,,,,,,,,,,,,,,,,,,,,,,,,,,,,,,,,,,,,,,,,,,,,,,,,,,,,,,,,,,,,,,,,,,,,,,,,,,,,,,,,,,,,,,,,,,,,,,,,,,,,,,,,,,,,,,,,,
,,610192be9b03bd29e260fe74,2026-03-17_16h13.48.127,kallum_motion_pilot_GIST_update_2,2026.1.1,Win32,61.34969325,610192be9b03bd29e260fe74,69b95efdef24cd8a694e89ee,69b96080e75d2745959feb08,0.0387,0.0387,0,111,111,119,1,eightseven,,,,,,,,,,,,,,,,,,,,,,,,,,,,,,,,,,,,,,,,,,,,,,,,,,,,,,,,,,,,,,,,,,,,,,,,,,,,,,,,,,,,,,,,,,,,,,,,,,,,,,,,,,,,,,,,,,,,,,,,,,,,,,,,,,,,,,,,,
,,610192be9b03bd29e260fe74,2026-03-17_16h13.48.127,kallum_motion_pilot_GIST_update_2,2026.1.1,Win32,61.34969325,610192be9b03bd29e260fe74,69b95efdef24cd8a694e89ee,69b96080e75d2745959feb08,0.0388,0.0388,0,112,112,156,1,sevenfive,,,,,,,,,,,,,,,,,,,,,,,,,,,,,,,,,,,,,,,,,,,,,,,,,,,,,,,,,,,,,,,,,,,,,,,,,,,,,,,,,,,,,,,,,,,,,,,,,,,,,,,,,,,,,,,,,,,,,,,,,,,,,,,,,,,,,,,,,
,,610192be9b03bd29e260fe74,2026-03-17_16h13.48.127,kallum_motion_pilot_GIST_update_2,2026.1.1,Win32,61.34969325,610192be9b03bd29e260fe74,69b95efdef24cd8a694e89ee,69b96080e75d2745959feb08,0.0389,0.0389,0,113,113,51,1,twofour,,,,,,,,,,,,,,,,,,,,,,,,,,,,,,,,,,,,,,,,,,,,,,,,,,,,,,,,,,,,,,,,,,,,,,,,,,,,,,,,,,,,,,,,,,,,,,,,,,,,,,,,,,,,,,,,,,,,,,,,,,,,,,,,,,,,,,,,,
,,610192be9b03bd29e260fe74,2026-03-17_16h13.48.127,kallum_motion_pilot_GIST_update_2,2026.1.1,Win32,61.34969325,610192be9b03bd29e260fe74,69b95efdef24cd8a694e89ee,69b96080e75d2745959feb08,0.039,0.039,0,114,114,88,1,fivesix,,,,,,,,,,,,,,,,,,,,,,,,,,,,,,,,,,,,,,,,,,,,,,,,,,,,,,,,,,,,,,,,,,,,,,,,,,,,,,,,,,,,,,,,,,,,,,,,,,,,,,,,,,,,,,,,,,,,,,,,,,,,,,,,,,,,,,,,,
,,610192be9b03bd29e260fe74,2026-03-17_16h13.48.127,kallum_motion_pilot_GIST_update_2,2026.1.1,Win32,61.34969325,610192be9b03bd29e260fe74,69b95efdef24cd8a694e89ee,69b96080e75d2745959feb08,0.039,0.039,0,115,115,5,1,threefour,,,,,,,,,,,,,,,,,,,,,,,,,,,,,,,,,,,,,,,,,,,,,,,,,,,,,,,,,,,,,,,,,,,,,,,,,,,,,,,,,,,,,,,,,,,,,,,,,,,,,,,,,,,,,,,,,,,,,,,,,,,,,,,,,,,,,,,,,
,,610192be9b03bd29e260fe74,2026-03-17_16h13.48.127,kallum_motion_pilot_GIST_update_2,2026.1.1,Win32,61.34969325,610192be9b03bd29e260fe74,69b95efdef24cd8a694e89ee,69b96080e75d2745959feb08,0.0392,0.0392,0,116,116,136,1,fivesix,,,,,,,,,,,,,,,,,,,,,,,,,,,,,,,,,,,,,,,,,,,,,,,,,,,,,,,,,,,,,,,,,,,,,,,,,,,,,,,,,,,,,,,,,,,,,,,,,,,,,,,,,,,,,,,,,,,,,,,,,,,,,,,,,,,,,,,,,
,,610192be9b03bd29e260fe74,2026-03-17_16h13.48.127,kallum_motion_pilot_GIST_update_2,2026.1.1,Win32,61.34969325,610192be9b03bd29e260fe74,69b95efdef24cd8a694e89ee,69b96080e75d2745959feb08,0.0393,0.0393,0,117,117,43,1,twofour,,,,,,,,,,,,,,,,,,,,,,,,,,,,,,,,,,,,,,,,,,,,,,,,,,,,,,,,,,,,,,,,,,,,,,,,,,,,,,,,,,,,,,,,,,,,,,,,,,,,,,,,,,,,,,,,,,,,,,,,,,,,,,,,,,,,,,,,,
,,610192be9b03bd29e260fe74,2026-03-17_16h13.48.127,kallum_motion_pilot_GIST_update_2,2026.1.1,Win32,61.34969325,610192be9b03bd29e260fe74,69b95efdef24cd8a694e89ee,69b96080e75d2745959feb08,0.0394,0.0394,0,118,118,11,1,twofour,,,,,,,,,,,,,,,,,,,,,,,,,,,,,,,,,,,,,,,,,,,,,,,,,,,,,,,,,,,,,,,,,,,,,,,,,,,,,,,,,,,,,,,,,,,,,,,,,,,,,,,,,,,,,,,,,,,,,,,,,,,,,,,,,,,,,,,,,
,,610192be9b03bd29e260fe74,2026-03-17_16h13.48.127,kallum_motion_pilot_GIST_update_2,2026.1.1,Win32,61.34969325,610192be9b03bd29e260fe74,69b95efdef24cd8a694e89ee,69b96080e75d2745959feb08,0.0395,0.0395,0,119,119,140,1,sevenfive,,,,,,,,,,,,,,,,,,,,,,,,,,,,,,,,,,,,,,,,,,,,,,,,,,,,,,,,,,,,,,,,,,,,,,,,,,,,,,,,,,,,,,,,,,,,,,,,,,,,,,,,,,,,,,,,,,,,,,,,,,,,,,,,,,,,,,,,,
,,610192be9b03bd29e260fe74,2026-03-17_16h13.48.127,kallum_motion_pilot_GIST_update_2,2026.1.1,Win32,61.34969325,610192be9b03bd29e260fe74,69b95efdef24cd8a694e89ee,69b96080e75d2745959feb08,0.0396,0.0396,0,120,120,110,1,eightsix,,,,,,,,,,,,,,,,,,,,,,,,,,,,,,,,,,,,,,,,,,,,,,,,,,,,,,,,,,,,,,,,,,,,,,,,,,,,,,,,,,,,,,,,,,,,,,,,,,,,,,,,,,,,,,,,,,,,,,,,,,,,,,,,,,,,,,,,,
,,610192be9b03bd29e260fe74,2026-03-17_16h13.48.127,kallum_motion_pilot_GIST_update_2,2026.1.1,Win32,61.34969325,610192be9b03bd29e260fe74,69b95efdef24cd8a694e89ee,69b96080e75d2745959feb08,0.0398,0.0398,0,121,121,72,1,onetwo,,,,,,,,,,,,,,,,,,,,,,,,,,,,,,,,,,,,,,,,,,,,,,,,,,,,,,,,,,,,,,,,,,,,,,,,,,,,,,,,,,,,,,,,,,,,,,,,,,,,,,,,,,,,,,,,,,,,,,,,,,,,,,,,,,,,,,,,,
,,610192be9b03bd29e260fe74,2026-03-17_16h13.48.127,kallum_motion_pilot_GIST_update_2,2026.1.1,Win32,61.34969325,610192be9b03bd29e260fe74,69b95efdef24cd8a694e89ee,69b96080e75d2745959feb08,0.0399,0.0399,0,122,122,120,1,fivesix,,,,,,,,,,,,,,,,,,,,,,,,,,,,,,,,,,,,,,,,,,,,,,,,,,,,,,,,,,,,,,,,,,,,,,,,,,,,,,,,,,,,,,,,,,,,,,,,,,,,,,,,,,,,,,,,,,,,,,,,,,,,,,,,,,,,,,,,,
,,610192be9b03bd29e260fe74,2026-03-17_16h13.48.127,kallum_motion_pilot_GIST_update_2,2026.1.1,Win32,61.34969325,610192be9b03bd29e260fe74,69b95efdef24cd8a694e89ee,69b96080e75d2745959feb08,0.04,0.04,0,123,123,1,1,onethree,,,,,,,,,,,,,,,,,,,,,,,,,,,,,,,,,,,,,,,,,,,,,,,,,,,,,,,,,,,,,,,,,,,,,,,,,,,,,,,,,,,,,,,,,,,,,,,,,,,,,,,,,,,,,,,,,,,,,,,,,,,,,,,,,,,,,,,,,
,,610192be9b03bd29e260fe74,2026-03-17_16h13.48.127,kallum_motion_pilot_GIST_update_2,2026.1.1,Win32,61.34969325,610192be9b03bd29e260fe74,69b95efdef24cd8a694e89ee,69b96080e75d2745959feb08,0.04,0.04,0,124,124,99,1,sixeight,,,,,,,,,,,,,,,,,,,,,,,,,,,,,,,,,,,,,,,,,,,,,,,,,,,,,,,,,,,,,,,,,,,,,,,,,,,,,,,,,,,,,,,,,,,,,,,,,,,,,,,,,,,,,,,,,,,,,,,,,,,,,,,,,,,,,,,,,
,,610192be9b03bd29e260fe74,2026-03-17_16h13.48.127,kallum_motion_pilot_GIST_update_2,2026.1.1,Win32,61.34969325,610192be9b03bd29e260fe74,69b95efdef24cd8a694e89ee,69b96080e75d2745959feb08,0.0402,0.0402,0,125,125,67,1,twofour,,,,,,,,,,,,,,,,,,,,,,,,,,,,,,,,,,,,,,,,,,,,,,,,,,,,,,,,,,,,,,,,,,,,,,,,,,,,,,,,,,,,,,,,,,,,,,,,,,,,,,,,,,,,,,,,,,,,,,,,,,,,,,,,,,,,,,,,,
,,610192be9b03bd29e260fe74,2026-03-17_16h13.48.127,kallum_motion_pilot_GIST_update_2,2026.1.1,Win32,61.34969325,610192be9b03bd29e260fe74,69b95efdef24cd8a694e89ee,69b96080e75d2745959feb08,0.0403,0.0403,0,126,126,63,1,fourthree,,,,,,,,,,,,,,,,,,,,,,,,,,,,,,,,,,,,,,,,,,,,,,,,,,,,,,,,,,,,,,,,,,,,,,,,,,,,,,,,,,,,,,,,,,,,,,,,,,,,,,,,,,,,,,,,,,,,,,,,,,,,,,,,,,,,,,,,,
,,610192be9b03bd29e260fe74,2026-03-17_16h13.48.127,kallum_motion_pilot_GIST_update_2,2026.1.1,Win32,61.34969325,610192be9b03bd29e260fe74,69b95efdef24cd8a694e89ee,69b96080e75d2745959feb08,0.0405,0.0405,0,127,127,26,1,twoone,,,,,,,,,,,,,,,,,,,,,,,,,,,,,,,,,,,,,,,,,,,,,,,,,,,,,,,,,,,,,,,,,,,,,,,,,,,,,,,,,,,,,,,,,,,,,,,,,,,,,,,,,,,,,,,,,,,,,,,,,,,,,,,,,,,,,,,,,
,,610192be9b03bd29e260fe74,2026-03-17_16h13.48.127,kallum_motion_pilot_GIST_update_2,2026.1.1,Win32,61.34969325,610192be9b03bd29e260fe74,69b95efdef24cd8a694e89ee,69b96080e75d2745959feb08,0.0406,0.0406,0,128,128,157,1,seveneight,,,,,,,,,,,,,,,,,,,,,,,,,,,,,,,,,,,,,,,,,,,,,,,,,,,,,,,,,,,,,,,,,,,,,,,,,,,,,,,,,,,,,,,,,,,,,,,,,,,,,,,,,,,,,,,,,,,,,,,,,,,,,,,,,,,,,,,,,
,,610192be9b03bd29e260fe74,2026-03-17_16h13.48.127,kallum_motion_pilot_GIST_update_2,2026.1.1,Win32,61.34969325,610192be9b03bd29e260fe74,69b95efdef24cd8a694e89ee,69b96080e75d2745959feb08,0.0407,0.0407,0,129,129,64,1,onetwo,,,,,,,,,,,,,,,,,,,,,,,,,,,,,,,,,,,,,,,,,,,,,,,,,,,,,,,,,,,,,,,,,,,,,,,,,,,,,,,,,,,,,,,,,,,,,,,,,,,,,,,,,,,,,,,,,,,,,,,,,,,,,,,,,,,,,,,,,
,,610192be9b03bd29e260fe74,2026-03-17_16h13.48.127,kallum_motion_pilot_GIST_update_2,2026.1.1,Win32,61.34969325,610192be9b03bd29e260fe74,69b95efdef24cd8a694e89ee,69b96080e75d2745959feb08,0.0408,0.0408,0,130,130,123,1,sixeight,,,,,,,,,,,,,,,,,,,,,,,,,,,,,,,,,,,,,,,,,,,,,,,,,,,,,,,,,,,,,,,,,,,,,,,,,,,,,,,,,,,,,,,,,,,,,,,,,,,,,,,,,,,,,,,,,,,,,,,,,,,,,,,,,,,,,,,,,
,,610192be9b03bd29e260fe74,2026-03-17_16h13.48.127,kallum_motion_pilot_GIST_update_2,2026.1.1,Win32,61.34969325,610192be9b03bd29e260fe74,69b95efdef24cd8a694e89ee,69b96080e75d2745959feb08,0.0409,0.0409,0,131,131,21,1,threefour,,,,,,,,,,,,,,,,,,,,,,,,,,,,,,,,,,,,,,,,,,,,,,,,,,,,,,,,,,,,,,,,,,,,,,,,,,,,,,,,,,,,,,,,,,,,,,,,,,,,,,,,,,,,,,,,,,,,,,,,,,,,,,,,,,,,,,,,,
,,610192be9b03bd29e260fe74,2026-03-17_16h13.48.127,kallum_motion_pilot_GIST_update_2,2026.1.1,Win32,61.34969325,610192be9b03bd29e260fe74,69b95efdef24cd8a694e89ee,69b96080e75d2745959feb08,0.041,0.041,0,132,132,65,1,onethree,,,,,,,,,,,,,,,,,,,,,,,,,,,,,,,,,,,,,,,,,,,,,,,,,,,,,,,,,,,,,,,,,,,,,,,,,,,,,,,,,,,,,,,,,,,,,,,,,,,,,,,,,,,,,,,,,,,,,,,,,,,,,,,,,,,,,,,,,
,,610192be9b03bd29e260fe74,2026-03-17_16h13.48.127,kallum_motion_pilot_GIST_update_2,2026.1.1,Win32,61.34969325,610192be9b03bd29e260fe74,69b95efdef24cd8a694e89ee,69b96080e75d2745959feb08,0.0411,0.0411,0,133,133,70,1,fourtwo,,,,,,,,,,,,,,,,,,,,,,,,,,,,,,,,,,,,,,,,,,,,,,,,,,,,,,,,,,,,,,,,,,,,,,,,,,,,,,,,,,,,,,,,,,,,,,,,,,,,,,,,,,,,,,,,,,,,,,,,,,,,,,,,,,,,,,,,,
,,610192be9b03bd29e260fe74,2026-03-17_16h13.48.127,kallum_motion_pilot_GIST_update_2,2026.1.1,Win32,61.34969325,610192be9b03bd29e260fe74,69b95efdef24cd8a694e89ee,69b96080e75d2745959feb08,0.0412,0.0412,0,134,134,104,1,fivesix,,,,,,,,,,,,,,,,,,,,,,,,,,,,,,,,,,,,,,,,,,,,,,,,,,,,,,,,,,,,,,,,,,,,,,,,,,,,,,,,,,,,,,,,,,,,,,,,,,,,,,,,,,,,,,,,,,,,,,,,,,,,,,,,,,,,,,,,,
,,610192be9b03bd29e260fe74,2026-03-17_16h13.48.127,kallum_motion_pilot_GIST_update_2,2026.1.1,Win32,61.34969325,610192be9b03bd29e260fe74,69b95efdef24cd8a694e89ee,69b96080e75d2745959feb08,0.0413,0.0413,0,135,135,94,1,eightsix,,,,,,,,,,,,,,,,,,,,,,,,,,,,,,,,,,,,,,,,,,,,,,,,,,,,,,,,,,,,,,,,,,,,,,,,,,,,,,,,,,,,,,,,,,,,,,,,,,,,,,,,,,,,,,,,,,,,,,,,,,,,,,,,,,,,,,,,,
,,610192be9b03bd29e260fe74,2026-03-17_16h13.48.127,kallum_motion_pilot_GIST_update_2,2026.1.1,Win32,61.34969325,610192be9b03bd29e260fe74,69b95efdef24cd8a694e89ee,69b96080e75d2745959feb08,0.0415,0.0415,0,136,136,125,1,seveneight,,,,,,,,,,,,,,,,,,,,,,,,,,,,,,,,,,,,,,,,,,,,,,,,,,,,,,,,,,,,,,,,,,,,,,,,,,,,,,,,,,,,,,,,,,,,,,,,,,,,,,,,,,,,,,,,,,,,,,,,,,,,,,,,,,,,,,,,,
,,610192be9b03bd29e260fe74,2026-03-17_16h13.48.127,kallum_motion_pilot_GIST_update_2,2026.1.1,Win32,61.34969325,610192be9b03bd29e260fe74,69b95efdef24cd8a694e89ee,69b96080e75d2745959feb08,0.0416,0.0416,0,137,137,138,1,sixfive,,,,,,,,,,,,,,,,,,,,,,,,,,,,,,,,,,,,,,,,,,,,,,,,,,,,,,,,,,,,,,,,,,,,,,,,,,,,,,,,,,,,,,,,,,,,,,,,,,,,,,,,,,,,,,,,,,,,,,,,,,,,,,,,,,,,,,,,,
,,610192be9b03bd29e260fe74,2026-03-17_16h13.48.127,kallum_motion_pilot_GIST_update_2,2026.1.1,Win32,61.34969325,610192be9b03bd29e260fe74,69b95efdef24cd8a694e89ee,69b96080e75d2745959feb08,0.0419,0.0419,0,138,138,2,1,twoone,,,,,,,,,,,,,,,,,,,,,,,,,,,,,,,,,,,,,,,,,,,,,,,,,,,,,,,,,,,,,,,,,,,,,,,,,,,,,,,,,,,,,,,,,,,,,,,,,,,,,,,,,,,,,,,,,,,,,,,,,,,,,,,,,,,,,,,,,
,,610192be9b03bd29e260fe74,2026-03-17_16h13.48.127,kallum_motion_pilot_GIST_update_2,2026.1.1,Win32,61.34969325,610192be9b03bd29e260fe74,69b95efdef24cd8a694e89ee,69b96080e75d2745959feb08,0.0422,0.0422,0,139,139,6,1,fourtwo,,,,,,,,,,,,,,,,,,,,,,,,,,,,,,,,,,,,,,,,,,,,,,,,,,,,,,,,,,,,,,,,,,,,,,,,,,,,,,,,,,,,,,,,,,,,,,,,,,,,,,,,,,,,,,,,,,,,,,,,,,,,,,,,,,,,,,,,,
,,610192be9b03bd29e260fe74,2026-03-17_16h13.48.127,kallum_motion_pilot_GIST_update_2,2026.1.1,Win32,61.34969325,610192be9b03bd29e260fe74,69b95efdef24cd8a694e89ee,69b96080e75d2745959feb08,0.0428,0.0429,0,140,140,96,1,fivesix,,,,,,,,,,,,,,,,,,,,,,,,,,,,,,,,,,,,,,,,,,,,,,,,,,,,,,,,,,,,,,,,,,,,,,,,,,,,,,,,,,,,,,,,,,,,,,,,,,,,,,,,,,,,,,,,,,,,,,,,,,,,,,,,,,,,,,,,,
,,610192be9b03bd29e260fe74,2026-03-17_16h13.48.127,kallum_motion_pilot_GIST_update_2,2026.1.1,Win32,61.34969325,610192be9b03bd29e260fe74,69b95efdef24cd8a694e89ee,69b96080e75d2745959feb08,0.0434,0.0434,0,141,141,131,1,sixeight,,,,,,,,,,,,,,,,,,,,,,,,,,,,,,,,,,,,,,,,,,,,,,,,,,,,,,,,,,,,,,,,,,,,,,,,,,,,,,,,,,,,,,,,,,,,,,,,,,,,,,,,,,,,,,,,,,,,,,,,,,,,,,,,,,,,,,,,,
,,610192be9b03bd29e260fe74,2026-03-17_16h13.48.127,kallum_motion_pilot_GIST_update_2,2026.1.1,Win32,61.34969325,610192be9b03bd29e260fe74,69b95efdef24cd8a694e89ee,69b96080e75d2745959feb08,0.0438,0.0438,0,142,142,122,1,sixfive,,,,,,,,,,,,,,,,,,,,,,,,,,,,,,,,,,,,,,,,,,,,,,,,,,,,,,,,,,,,,,,,,,,,,,,,,,,,,,,,,,,,,,,,,,,,,,,,,,,,,,,,,,,,,,,,,,,,,,,,,,,,,,,,,,,,,,,,,
,,610192be9b03bd29e260fe74,2026-03-17_16h13.48.127,kallum_motion_pilot_GIST_update_2,2026.1.1,Win32,61.34969325,610192be9b03bd29e260fe74,69b95efdef24cd8a694e89ee,69b96080e75d2745959feb08,0.044,0.044,0,143,143,53,1,threefour,,,,,,,,,,,,,,,,,,,,,,,,,,,,,,,,,,,,,,,,,,,,,,,,,,,,,,,,,,,,,,,,,,,,,,,,,,,,,,,,,,,,,,,,,,,,,,,,,,,,,,,,,,,,,,,,,,,,,,,,,,,,,,,,,,,,,,,,,
,,610192be9b03bd29e260fe74,2026-03-17_16h13.48.127,kallum_motion_pilot_GIST_update_2,2026.1.1,Win32,61.34969325,610192be9b03bd29e260fe74,69b95efdef24cd8a694e89ee,69b96080e75d2745959feb08,0.0442,0.0442,0,144,144,84,1,sevenfive,,,,,,,,,,,,,,,,,,,,,,,,,,,,,,,,,,,,,,,,,,,,,,,,,,,,,,,,,,,,,,,,,,,,,,,,,,,,,,,,,,,,,,,,,,,,,,,,,,,,,,,,,,,,,,,,,,,,,,,,,,,,,,,,,,,,,,,,,
,,610192be9b03bd29e260fe74,2026-03-17_16h13.48.127,kallum_motion_pilot_GIST_update_2,2026.1.1,Win32,61.34969325,610192be9b03bd29e260fe74,69b95efdef24cd8a694e89ee,69b96080e75d2745959feb08,0.0443,0.0443,0,145,145,73,1,onethree,,,,,,,,,,,,,,,,,,,,,,,,,,,,,,,,,,,,,,,,,,,,,,,,,,,,,,,,,,,,,,,,,,,,,,,,,,,,,,,,,,,,,,,,,,,,,,,,,,,,,,,,,,,,,,,,,,,,,,,,,,,,,,,,,,,,,,,,,
,,610192be9b03bd29e260fe74,2026-03-17_16h13.48.127,kallum_motion_pilot_GIST_update_2,2026.1.1,Win32,61.34969325,610192be9b03bd29e260fe74,69b95efdef24cd8a694e89ee,69b96080e75d2745959feb08,0.0444,0.0444,0,146,146,108,1,sevenfive,,,,,,,,,,,,,,,,,,,,,,,,,,,,,,,,,,,,,,,,,,,,,,,,,,,,,,,,,,,,,,,,,,,,,,,,,,,,,,,,,,,,,,,,,,,,,,,,,,,,,,,,,,,,,,,,,,,,,,,,,,,,,,,,,,,,,,,,,
,,610192be9b03bd29e260fe74,2026-03-17_16h13.48.127,kallum_motion_pilot_GIST_update_2,2026.1.1,Win32,61.34969325,610192be9b03bd29e260fe74,69b95efdef24cd8a694e89ee,69b96080e75d2745959feb08,0.0445,0.0445,0,147,147,129,1,fiveseven,,,,,,,,,,,,,,,,,,,,,,,,,,,,,,,,,,,,,,,,,,,,,,,,,,,,,,,,,,,,,,,,,,,,,,,,,,,,,,,,,,,,,,,,,,,,,,,,,,,,,,,,,,,,,,,,,,,,,,,,,,,,,,,,,,,,,,,,,
,,610192be9b03bd29e260fe74,2026-03-17_16h13.48.127,kallum_motion_pilot_GIST_update_2,2026.1.1,Win32,61.34969325,610192be9b03bd29e260fe74,69b95efdef24cd8a694e89ee,69b96080e75d2745959feb08,0.0446,0.0446,0,148,148,48,1,onetwo,,,,,,,,,,,,,,,,,,,,,,,,,,,,,,,,,,,,,,,,,,,,,,,,,,,,,,,,,,,,,,,,,,,,,,,,,,,,,,,,,,,,,,,,,,,,,,,,,,,,,,,,,,,,,,,,,,,,,,,,,,,,,,,,,,,,,,,,,
,,610192be9b03bd29e260fe74,2026-03-17_16h13.48.127,kallum_motion_pilot_GIST_update_2,2026.1.1,Win32,61.34969325,610192be9b03bd29e260fe74,69b95efdef24cd8a694e89ee,69b96080e75d2745959feb08,0.0447,0.0447,0,149,149,100,1,sevenfive,,,,,,,,,,,,,,,,,,,,,,,,,,,,,,,,,,,,,,,,,,,,,,,,,,,,,,,,,,,,,,,,,,,,,,,,,,,,,,,,,,,,,,,,,,,,,,,,,,,,,,,,,,,,,,,,,,,,,,,,,,,,,,,,,,,,,,,,,
,,610192be9b03bd29e260fe74,2026-03-17_16h13.48.127,kallum_motion_pilot_GIST_update_2,2026.1.1,Win32,61.34969325,610192be9b03bd29e260fe74,69b95efdef24cd8a694e89ee,69b96080e75d2745959feb08,0.0448,0.0448,0,150,150,83,1,sixeight,,,,,,,,,,,,,,,,,,,,,,,,,,,,,,,,,,,,,,,,,,,,,,,,,,,,,,,,,,,,,,,,,,,,,,,,,,,,,,,,,,,,,,,,,,,,,,,,,,,,,,,,,,,,,,,,,,,,,,,,,,,,,,,,,,,,,,,,,
,,610192be9b03bd29e260fe74,2026-03-17_16h13.48.127,kallum_motion_pilot_GIST_update_2,2026.1.1,Win32,61.34969325,610192be9b03bd29e260fe74,69b95efdef24cd8a694e89ee,69b96080e75d2745959feb08,0.0449,0.0449,0,151,151,23,1,fourthree,,,,,,,,,,,,,,,,,,,,,,,,,,,,,,,,,,,,,,,,,,,,,,,,,,,,,,,,,,,,,,,,,,,,,,,,,,,,,,,,,,,,,,,,,,,,,,,,,,,,,,,,,,,,,,,,,,,,,,,,,,,,,,,,,,,,,,,,,
,,610192be9b03bd29e260fe74,2026-03-17_16h13.48.127,kallum_motion_pilot_GIST_update_2,2026.1.1,Win32,61.34969325,610192be9b03bd29e260fe74,69b95efdef24cd8a694e89ee,69b96080e75d2745959feb08,0.0451,0.0451,0,152,152,55,1,fourthree,,,,,,,,,,,,,,,,,,,,,,,,,,,,,,,,,,,,,,,,,,,,,,,,,,,,,,,,,,,,,,,,,,,,,,,,,,,,,,,,,,,,,,,,,,,,,,,,,,,,,,,,,,,,,,,,,,,,,,,,,,,,,,,,,,,,,,,,,
,,610192be9b03bd29e260fe74,2026-03-17_16h13.48.127,kallum_motion_pilot_GIST_update_2,2026.1.1,Win32,61.34969325,610192be9b03bd29e260fe74,69b95efdef24cd8a694e89ee,69b96080e75d2745959feb08,0.0452,0.0452,0,153,153,24,1,onetwo,,,,,,,,,,,,,,,,,,,,,,,,,,,,,,,,,,,,,,,,,,,,,,,,,,,,,,,,,,,,,,,,,,,,,,,,,,,,,,,,,,,,,,,,,,,,,,,,,,,,,,,,,,,,,,,,,,,,,,,,,,,,,,,,,,,,,,,,,
,,610192be9b03bd29e260fe74,2026-03-17_16h13.48.127,kallum_motion_pilot_GIST_update_2,2026.1.1,Win32,61.34969325,610192be9b03bd29e260fe74,69b95efdef24cd8a694e89ee,69b96080e75d2745959feb08,0.0454,0.0454,0,154,154,47,1,fourthree,,,,,,,,,,,,,,,,,,,,,,,,,,,,,,,,,,,,,,,,,,,,,,,,,,,,,,,,,,,,,,,,,,,,,,,,,,,,,,,,,,,,,,,,,,,,,,,,,,,,,,,,,,,,,,,,,,,,,,,,,,,,,,,,,,,,,,,,,
,,610192be9b03bd29e260fe74,2026-03-17_16h13.48.127,kallum_motion_pilot_GIST_update_2,2026.1.1,Win32,61.34969325,610192be9b03bd29e260fe74,69b95efdef24cd8a694e89ee,69b96080e75d2745959feb08,0.0455,0.0455,0,155,155,12,1,threeone,,,,,,,,,,,,,,,,,,,,,,,,,,,,,,,,,,,,,,,,,,,,,,,,,,,,,,,,,,,,,,,,,,,,,,,,,,,,,,,,,,,,,,,,,,,,,,,,,,,,,,,,,,,,,,,,,,,,,,,,,,,,,,,,,,,,,,,,,
,,610192be9b03bd29e260fe74,2026-03-17_16h13.48.127,kallum_motion_pilot_GIST_update_2,2026.1.1,Win32,61.34969325,610192be9b03bd29e260fe74,69b95efdef24cd8a694e89ee,69b96080e75d2745959feb08,0.0456,0.0456,0,156,156,144,1,fivesix,,,,,,,,,,,,,,,,,,,,,,,,,,,,,,,,,,,,,,,,,,,,,,,,,,,,,,,,,,,,,,,,,,,,,,,,,,,,,,,,,,,,,,,,,,,,,,,,,,,,,,,,,,,,,,,,,,,,,,,,,,,,,,,,,,,,,,,,,
,,610192be9b03bd29e260fe74,2026-03-17_16h13.48.127,kallum_motion_pilot_GIST_update_2,2026.1.1,Win32,61.34969325,610192be9b03bd29e260fe74,69b95efdef24cd8a694e89ee,69b96080e75d2745959feb08,0.0457,0.0457,0,157,157,152,1,fivesix,,,,,,,,,,,,,,,,,,,,,,,,,,,,,,,,,,,,,,,,,,,,,,,,,,,,,,,,,,,,,,,,,,,,,,,,,,,,,,,,,,,,,,,,,,,,,,,,,,,,,,,,,,,,,,,,,,,,,,,,,,,,,,,,,,,,,,,,,
,,610192be9b03bd29e260fe74,2026-03-17_16h13.48.127,kallum_motion_pilot_GIST_update_2,2026.1.1,Win32,61.34969325,610192be9b03bd29e260fe74,69b95efdef24cd8a694e89ee,69b96080e75d2745959feb08,0.0459,0.0459,0,158,158,151,1,eightseven,,,,,,,,,,,,,,,,,,,,,,,,,,,,,,,,,,,,,,,,,,,,,,,,,,,,,,,,,,,,,,,,,,,,,,,,,,,,,,,,,,,,,,,,,,,,,,,,,,,,,,,,,,,,,,,,,,,,,,,,,,,,,,,,,,,,,,,,,
,,610192be9b03bd29e260fe74,2026-03-17_16h13.48.127,kallum_motion_pilot_GIST_update_2,2026.1.1,Win32,61.34969325,610192be9b03bd29e260fe74,69b95efdef24cd8a694e89ee,69b96080e75d2745959feb08,0.046,0.046,0,159,159,159,1,eightseven,,,,,,,,,,,,,,,,,,,,,,,,,,,,,,,,,,,,,,,,,,,,,,,,,,,,,,,,,,,,,,,,,,,,,,,,,,,,,,,,,,,,,,,,,,,,,,,,,,,,,,,,,,,,,,,,,,,,,,,,,,,,,,,,,,,,,,,,,
,,610192be9b03bd29e260fe74,2026-03-17_16h13.48.127,kallum_motion_pilot_GIST_update_2,2026.1.1,Win32,61.34969325,610192be9b03bd29e260fe74,69b95efdef24cd8a694e89ee,69b96080e75d2745959feb08,0.0461,0.0461,0,160,160,161,1,fiveseven,,,,,,,,,,,,,,,,,,,,,,,,,,,,,,,,,,,,,,,,,,,,,,,,,,,,,,,,,,,,,,,,,,,,,,,,,,,,,,,,,,,,,,,,,,,,,,,,,,,,,,,,,,,,,,,,,,,,,,,,,,,,,,,,,,,,,,,,,
,,610192be9b03bd29e260fe74,2026-03-17_16h13.48.127,kallum_motion_pilot_GIST_update_2,2026.1.1,Win32,61.34969325,610192be9b03bd29e260fe74,69b95efdef24cd8a694e89ee,69b96080e75d2745959feb08,0.0462,0.0462,0,161,161,80,1,fivesix,,,,,,,,,,,,,,,,,,,,,,,,,,,,,,,,,,,,,,,,,,,,,,,,,,,,,,,,,,,,,,,,,,,,,,,,,,,,,,,,,,,,,,,,,,,,,,,,,,,,,,,,,,,,,,,,,,,,,,,,,,,,,,,,,,,,,,,,,
,,610192be9b03bd29e260fe74,2026-03-17_16h13.48.127,kallum_motion_pilot_GIST_update_2,2026.1.1,Win32,61.34969325,610192be9b03bd29e260fe74,69b95efdef24cd8a694e89ee,69b96080e75d2745959feb08,0.0462,0.0462,1,0,162,1,1,onethree,,,,,,,,,,,,,,,,,,,,,,,,,,,,,,,,,,,,,,,,,,,,,,,,,,,,,,,,,,,,,,,,,,,,,,,,,,,,,,,,,,,,,,,,,,,,,,,,,,,,,,,,,,,,,,,,,,,,,,,,,,,,,,,,,,,,,,,,,
,,610192be9b03bd29e260fe74,2026-03-17_16h13.48.127,kallum_motion_pilot_GIST_update_2,2026.1.1,Win32,61.34969325,610192be9b03bd29e260fe74,69b95efdef24cd8a694e89ee,69b96080e75d2745959feb08,0.0464,0.0464,1,1,163,19,1,twofour,,,,,,,,,,,,,,,,,,,,,,,,,,,,,,,,,,,,,,,,,,,,,,,,,,,,,,,,,,,,,,,,,,,,,,,,,,,,,,,,,,,,,,,,,,,,,,,,,,,,,,,,,,,,,,,,,,,,,,,,,,,,,,,,,,,,,,,,,
,,610192be9b03bd29e260fe74,2026-03-17_16h13.48.127,kallum_motion_pilot_GIST_update_2,2026.1.1,Win32,61.34969325,610192be9b03bd29e260fe74,69b95efdef24cd8a694e89ee,69b96080e75d2745959feb08,0.0466,0.0466,1,2,164,57,1,onethree,,,,,,,,,,,,,,,,,,,,,,,,,,,,,,,,,,,,,,,,,,,,,,,,,,,,,,,,,,,,,,,,,,,,,,,,,,,,,,,,,,,,,,,,,,,,,,,,,,,,,,,,,,,,,,,,,,,,,,,,,,,,,,,,,,,,,,,,,
,,610192be9b03bd29e260fe74,2026-03-17_16h13.48.127,kallum_motion_pilot_GIST_update_2,2026.1.1,Win32,61.34969325,610192be9b03bd29e260fe74,69b95efdef24cd8a694e89ee,69b96080e75d2745959feb08,0.0467,0.0467,1,3,165,20,1,threeone,,,,,,,,,,,,,,,,,,,,,,,,,,,,,,,,,,,,,,,,,,,,,,,,,,,,,,,,,,,,,,,,,,,,,,,,,,,,,,,,,,,,,,,,,,,,,,,,,,,,,,,,,,,,,,,,,,,,,,,,,,,,,,,,,,,,,,,,,
,,610192be9b03bd29e260fe74,2026-03-17_16h13.48.127,kallum_motion_pilot_GIST_update_2,2026.1.1,Win32,61.34969325,610192be9b03bd29e260fe74,69b95efdef24cd8a694e89ee,69b96080e75d2745959feb08,0.0468,0.0468,1,4,166,137,1,fiveseven,,,,,,,,,,,,,,,,,,,,,,,,,,,,,,,,,,,,,,,,,,,,,,,,,,,,,,,,,,,,,,,,,,,,,,,,,,,,,,,,,,,,,,,,,,,,,,,,,,,,,,,,,,,,,,,,,,,,,,,,,,,,,,,,,,,,,,,,,
,,610192be9b03bd29e260fe74,2026-03-17_16h13.48.127,kallum_motion_pilot_GIST_update_2,2026.1.1,Win32,61.34969325,610192be9b03bd29e260fe74,69b95efdef24cd8a694e89ee,69b96080e75d2745959feb08,0.0469,0.0469,1,5,167,92,1,sevenfive,,,,,,,,,,,,,,,,,,,,,,,,,,,,,,,,,,,,,,,,,,,,,,,,,,,,,,,,,,,,,,,,,,,,,,,,,,,,,,,,,,,,,,,,,,,,,,,,,,,,,,,,,,,,,,,,,,,,,,,,,,,,,,,,,,,,,,,,,
,,610192be9b03bd29e260fe74,2026-03-17_16h13.48.127,kallum_motion_pilot_GIST_update_2,2026.1.1,Win32,61.34969325,610192be9b03bd29e260fe74,69b95efdef24cd8a694e89ee,69b96080e75d2745959feb08,0.047,0.047,1,6,168,7,1,fourthree,,,,,,,,,,,,,,,,,,,,,,,,,,,,,,,,,,,,,,,,,,,,,,,,,,,,,,,,,,,,,,,,,,,,,,,,,,,,,,,,,,,,,,,,,,,,,,,,,,,,,,,,,,,,,,,,,,,,,,,,,,,,,,,,,,,,,,,,,
,,610192be9b03bd29e260fe74,2026-03-17_16h13.48.127,kallum_motion_pilot_GIST_update_2,2026.1.1,Win32,61.34969325,610192be9b03bd29e260fe74,69b95efdef24cd8a694e89ee,69b96080e75d2745959feb08,0.0472,0.0472,1,7,169,98,1,sixfive,,,,,,,,,,,,,,,,,,,,,,,,,,,,,,,,,,,,,,,,,,,,,,,,,,,,,,,,,,,,,,,,,,,,,,,,,,,,,,,,,,,,,,,,,,,,,,,,,,,,,,,,,,,,,,,,,,,,,,,,,,,,,,,,,,,,,,,,,
,,610192be9b03bd29e260fe74,2026-03-17_16h13.48.127,kallum_motion_pilot_GIST_update_2,2026.1.1,Win32,61.34969325,610192be9b03bd29e260fe74,69b95efdef24cd8a694e89ee,69b96080e75d2745959feb08,0.0473,0.0473,1,8,170,53,1,threefour,,,,,,,,,,,,,,,,,,,,,,,,,,,,,,,,,,,,,,,,,,,,,,,,,,,,,,,,,,,,,,,,,,,,,,,,,,,,,,,,,,,,,,,,,,,,,,,,,,,,,,,,,,,,,,,,,,,,,,,,,,,,,,,,,,,,,,,,,
,,610192be9b03bd29e260fe74,2026-03-17_16h13.48.127,kallum_motion_pilot_GIST_update_2,2026.1.1,Win32,61.34969325,610192be9b03bd29e260fe74,69b95efdef24cd8a694e89ee,69b96080e75d2745959feb08,0.0474,0.0474,1,9,171,54,1,fourtwo,,,,,,,,,,,,,,,,,,,,,,,,,,,,,,,,,,,,,,,,,,,,,,,,,,,,,,,,,,,,,,,,,,,,,,,,,,,,,,,,,,,,,,,,,,,,,,,,,,,,,,,,,,,,,,,,,,,,,,,,,,,,,,,,,,,,,,,,,
,,610192be9b03bd29e260fe74,2026-03-17_16h13.48.127,kallum_motion_pilot_GIST_update_2,2026.1.1,Win32,61.34969325,610192be9b03bd29e260fe74,69b95efdef24cd8a694e89ee,69b96080e75d2745959feb08,0.0475,0.0475,1,10,172,150,1,eightsix,,,,,,,,,,,,,,,,,,,,,,,,,,,,,,,,,,,,,,,,,,,,,,,,,,,,,,,,,,,,,,,,,,,,,,,,,,,,,,,,,,,,,,,,,,,,,,,,,,,,,,,,,,,,,,,,,,,,,,,,,,,,,,,,,,,,,,,,,
,,610192be9b03bd29e260fe74,2026-03-17_16h13.48.127,kallum_motion_pilot_GIST_update_2,2026.1.1,Win32,61.34969325,610192be9b03bd29e260fe74,69b95efdef24cd8a694e89ee,69b96080e75d2745959feb08,0.0476,0.0476,1,11,173,126,1,eightsix,,,,,,,,,,,,,,,,,,,,,,,,,,,,,,,,,,,,,,,,,,,,,,,,,,,,,,,,,,,,,,,,,,,,,,,,,,,,,,,,,,,,,,,,,,,,,,,,,,,,,,,,,,,,,,,,,,,,,,,,,,,,,,,,,,,,,,,,,
,,610192be9b03bd29e260fe74,2026-03-17_16h13.48.127,kallum_motion_pilot_GIST_update_2,2026.1.1,Win32,61.34969325,610192be9b03bd29e260fe74,69b95efdef24cd8a694e89ee,69b96080e75d2745959feb08,0.0477,0.0477,1,12,174,103,1,eightseven,,,,,,,,,,,,,,,,,,,,,,,,,,,,,,,,,,,,,,,,,,,,,,,,,,,,,,,,,,,,,,,,,,,,,,,,,,,,,,,,,,,,,,,,,,,,,,,,,,,,,,,,,,,,,,,,,,,,,,,,,,,,,,,,,,,,,,,,,
,,610192be9b03bd29e260fe74,2026-03-17_16h13.48.127,kallum_motion_pilot_GIST_update_2,2026.1.1,Win32,61.34969325,610192be9b03bd29e260fe74,69b95efdef24cd8a694e89ee,69b96080e75d2745959feb08,0.0479,0.0479,1,13,175,35,1,twofour,,,,,,,,,,,,,,,,,,,,,,,,,,,,,,,,,,,,,,,,,,,,,,,,,,,,,,,,,,,,,,,,,,,,,,,,,,,,,,,,,,,,,,,,,,,,,,,,,,,,,,,,,,,,,,,,,,,,,,,,,,,,,,,,,,,,,,,,,
,,610192be9b03bd29e260fe74,2026-03-17_16h13.48.127,kallum_motion_pilot_GIST_update_2,2026.1.1,Win32,61.34969325,610192be9b03bd29e260fe74,69b95efdef24cd8a694e89ee,69b96080e75d2745959feb08,0.0479,0.0479,1,14,176,111,1,eightseven,,,,,,,,,,,,,,,,,,,,,,,,,,,,,,,,,,,,,,,,,,,,,,,,,,,,,,,,,,,,,,,,,,,,,,,,,,,,,,,,,,,,,,,,,,,,,,,,,,,,,,,,,,,,,,,,,,,,,,,,,,,,,,,,,,,,,,,,,
,,610192be9b03bd29e260fe74,2026-03-17_16h13.48.127,kallum_motion_pilot_GIST_update_2,2026.1.1,Win32,61.34969325,610192be9b03bd29e260fe74,69b95efdef24cd8a694e89ee,69b96080e75d2745959feb08,0.0481,0.0481,1,15,177,28,1,threeone,,,,,,,,,,,,,,,,,,,,,,,,,,,,,,,,,,,,,,,,,,,,,,,,,,,,,,,,,,,,,,,,,,,,,,,,,,,,,,,,,,,,,,,,,,,,,,,,,,,,,,,,,,,,,,,,,,,,,,,,,,,,,,,,,,,,,,,,,
,,610192be9b03bd29e260fe74,2026-03-17_16h13.48.127,kallum_motion_pilot_GIST_update_2,2026.1.1,Win32,61.34969325,610192be9b03bd29e260fe74,69b95efdef24cd8a694e89ee,69b96080e75d2745959feb08,0.0482,0.0482,1,16,178,59,1,twofour,,,,,,,,,,,,,,,,,,,,,,,,,,,,,,,,,,,,,,,,,,,,,,,,,,,,,,,,,,,,,,,,,,,,,,,,,,,,,,,,,,,,,,,,,,,,,,,,,,,,,,,,,,,,,,,,,,,,,,,,,,,,,,,,,,,,,,,,,
,,610192be9b03bd29e260fe74,2026-03-17_16h13.48.127,kallum_motion_pilot_GIST_update_2,2026.1.1,Win32,61.34969325,610192be9b03bd29e260fe74,69b95efdef24cd8a694e89ee,69b96080e75d2745959feb08,0.0483,0.0483,1,17,179,102,1,eightsix,,,,,,,,,,,,,,,,,,,,,,,,,,,,,,,,,,,,,,,,,,,,,,,,,,,,,,,,,,,,,,,,,,,,,,,,,,,,,,,,,,,,,,,,,,,,,,,,,,,,,,,,,,,,,,,,,,,,,,,,,,,,,,,,,,,,,,,,,
,,610192be9b03bd29e260fe74,2026-03-17_16h13.48.127,kallum_motion_pilot_GIST_update_2,2026.1.1,Win32,61.34969325,610192be9b03bd29e260fe74,69b95efdef24cd8a694e89ee,69b96080e75d2745959feb08,0.0485,0.0485,1,18,180,105,1,fiveseven,,,,,,,,,,,,,,,,,,,,,,,,,,,,,,,,,,,,,,,,,,,,,,,,,,,,,,,,,,,,,,,,,,,,,,,,,,,,,,,,,,,,,,,,,,,,,,,,,,,,,,,,,,,,,,,,,,,,,,,,,,,,,,,,,,,,,,,,,
,,610192be9b03bd29e260fe74,2026-03-17_16h13.48.127,kallum_motion_pilot_GIST_update_2,2026.1.1,Win32,61.34969325,610192be9b03bd29e260fe74,69b95efdef24cd8a694e89ee,69b96080e75d2745959feb08,0.0486,0.0486,1,19,181,16,1,onetwo,,,,,,,,,,,,,,,,,,,,,,,,,,,,,,,,,,,,,,,,,,,,,,,,,,,,,,,,,,,,,,,,,,,,,,,,,,,,,,,,,,,,,,,,,,,,,,,,,,,,,,,,,,,,,,,,,,,,,,,,,,,,,,,,,,,,,,,,,
,,610192be9b03bd29e260fe74,2026-03-17_16h13.48.127,kallum_motion_pilot_GIST_update_2,2026.1.1,Win32,61.34969325,610192be9b03bd29e260fe74,69b95efdef24cd8a694e89ee,69b96080e75d2745959feb08,0.0487,0.0487,1,20,182,24,1,onetwo,,,,,,,,,,,,,,,,,,,,,,,,,,,,,,,,,,,,,,,,,,,,,,,,,,,,,,,,,,,,,,,,,,,,,,,,,,,,,,,,,,,,,,,,,,,,,,,,,,,,,,,,,,,,,,,,,,,,,,,,,,,,,,,,,,,,,,,,,
,,610192be9b03bd29e260fe74,2026-03-17_16h13.48.127,kallum_motion_pilot_GIST_update_2,2026.1.1,Win32,61.34969325,610192be9b03bd29e260fe74,69b95efdef24cd8a694e89ee,69b96080e75d2745959feb08,0.0489,0.0489,1,21,183,144,1,fivesix,,,,,,,,,,,,,,,,,,,,,,,,,,,,,,,,,,,,,,,,,,,,,,,,,,,,,,,,,,,,,,,,,,,,,,,,,,,,,,,,,,,,,,,,,,,,,,,,,,,,,,,,,,,,,,,,,,,,,,,,,,,,,,,,,,,,,,,,,
,,610192be9b03bd29e260fe74,2026-03-17_16h13.48.127,kallum_motion_pilot_GIST_update_2,2026.1.1,Win32,61.34969325,610192be9b03bd29e260fe74,69b95efdef24cd8a694e89ee,69b96080e75d2745959feb08,0.049,0.049,1,22,184,45,1,threefour,,,,,,,,,,,,,,,,,,,,,,,,,,,,,,,,,,,,,,,,,,,,,,,,,,,,,,,,,,,,,,,,,,,,,,,,,,,,,,,,,,,,,,,,,,,,,,,,,,,,,,,,,,,,,,,,,,,,,,,,,,,,,,,,,,,,,,,,,
,,610192be9b03bd29e260fe74,2026-03-17_16h13.48.127,kallum_motion_pilot_GIST_update_2,2026.1.1,Win32,61.34969325,610192be9b03bd29e260fe74,69b95efdef24cd8a694e89ee,69b96080e75d2745959feb08,0.0491,0.0491,1,23,185,58,1,twoone,,,,,,,,,,,,,,,,,,,,,,,,,,,,,,,,,,,,,,,,,,,,,,,,,,,,,,,,,,,,,,,,,,,,,,,,,,,,,,,,,,,,,,,,,,,,,,,,,,,,,,,,,,,,,,,,,,,,,,,,,,,,,,,,,,,,,,,,,
,,610192be9b03bd29e260fe74,2026-03-17_16h13.48.127,kallum_motion_pilot_GIST_update_2,2026.1.1,Win32,61.34969325,610192be9b03bd29e260fe74,69b95efdef24cd8a694e89ee,69b96080e75d2745959feb08,0.0492,0.0493,1,24,186,69,1,threefour,,,,,,,,,,,,,,,,,,,,,,,,,,,,,,,,,,,,,,,,,,,,,,,,,,,,,,,,,,,,,,,,,,,,,,,,,,,,,,,,,,,,,,,,,,,,,,,,,,,,,,,,,,,,,,,,,,,,,,,,,,,,,,,,,,,,,,,,,
,,610192be9b03bd29e260fe74,2026-03-17_16h13.48.127,kallum_motion_pilot_GIST_update_2,2026.1.1,Win32,61.34969325,610192be9b03bd29e260fe74,69b95efdef24cd8a694e89ee,69b96080e75d2745959feb08,0.0494,0.0494,1,25,187,50,1,twoone,,,,,,,,,,,,,,,,,,,,,,,,,,,,,,,,,,,,,,,,,,,,,,,,,,,,,,,,,,,,,,,,,,,,,,,,,,,,,,,,,,,,,,,,,,,,,,,,,,,,,,,,,,,,,,,,,,,,,,,,,,,,,,,,,,,,,,,,,
,,610192be9b03bd29e260fe74,2026-03-17_16h13.48.127,kallum_motion_pilot_GIST_update_2,2026.1.1,Win32,61.34969325,610192be9b03bd29e260fe74,69b95efdef24cd8a694e89ee,69b96080e75d2745959feb08,0.0494,0.0494,1,26,188,33,1,onethree,,,,,,,,,,,,,,,,,,,,,,,,,,,,,,,,,,,,,,,,,,,,,,,,,,,,,,,,,,,,,,,,,,,,,,,,,,,,,,,,,,,,,,,,,,,,,,,,,,,,,,,,,,,,,,,,,,,,,,,,,,,,,,,,,,,,,,,,,
,,610192be9b03bd29e260fe74,2026-03-17_16h13.48.127,kallum_motion_pilot_GIST_update_2,2026.1.1,Win32,61.34969325,610192be9b03bd29e260fe74,69b95efdef24cd8a694e89ee,69b96080e75d2745959feb08,0.0496,0.0496,1,27,189,37,1,threefour,,,,,,,,,,,,,,,,,,,,,,,,,,,,,,,,,,,,,,,,,,,,,,,,,,,,,,,,,,,,,,,,,,,,,,,,,,,,,,,,,,,,,,,,,,,,,,,,,,,,,,,,,,,,,,,,,,,,,,,,,,,,,,,,,,,,,,,,,
,,610192be9b03bd29e260fe74,2026-03-17_16h13.48.127,kallum_motion_pilot_GIST_update_2,2026.1.1,Win32,61.34969325,610192be9b03bd29e260fe74,69b95efdef24cd8a694e89ee,69b96080e75d2745959feb08,0.0497,0.0497,1,28,190,5,1,threefour,,,,,,,,,,,,,,,,,,,,,,,,,,,,,,,,,,,,,,,,,,,,,,,,,,,,,,,,,,,,,,,,,,,,,,,,,,,,,,,,,,,,,,,,,,,,,,,,,,,,,,,,,,,,,,,,,,,,,,,,,,,,,,,,,,,,,,,,,
,,610192be9b03bd29e260fe74,2026-03-17_16h13.48.127,kallum_motion_pilot_GIST_update_2,2026.1.1,Win32,61.34969325,610192be9b03bd29e260fe74,69b95efdef24cd8a694e89ee,69b96080e75d2745959feb08,0.0498,0.0498,1,29,191,43,1,twofour,,,,,,,,,,,,,,,,,,,,,,,,,,,,,,,,,,,,,,,,,,,,,,,,,,,,,,,,,,,,,,,,,,,,,,,,,,,,,,,,,,,,,,,,,,,,,,,,,,,,,,,,,,,,,,,,,,,,,,,,,,,,,,,,,,,,,,,,,
,,610192be9b03bd29e260fe74,2026-03-17_16h13.48.127,kallum_motion_pilot_GIST_update_2,2026.1.1,Win32,61.34969325,610192be9b03bd29e260fe74,69b95efdef24cd8a694e89ee,69b96080e75d2745959feb08,0.05,0.05,1,30,192,84,1,sevenfive,,,,,,,,,,,,,,,,,,,,,,,,,,,,,,,,,,,,,,,,,,,,,,,,,,,,,,,,,,,,,,,,,,,,,,,,,,,,,,,,,,,,,,,,,,,,,,,,,,,,,,,,,,,,,,,,,,,,,,,,,,,,,,,,,,,,,,,,,
,,610192be9b03bd29e260fe74,2026-03-17_16h13.48.127,kallum_motion_pilot_GIST_update_2,2026.1.1,Win32,61.34969325,610192be9b03bd29e260fe74,69b95efdef24cd8a694e89ee,69b96080e75d2745959feb08,0.0501,0.0501,1,31,193,88,1,fivesix,,,,,,,,,,,,,,,,,,,,,,,,,,,,,,,,,,,,,,,,,,,,,,,,,,,,,,,,,,,,,,,,,,,,,,,,,,,,,,,,,,,,,,,,,,,,,,,,,,,,,,,,,,,,,,,,,,,,,,,,,,,,,,,,,,,,,,,,,
,,610192be9b03bd29e260fe74,2026-03-17_16h13.48.127,kallum_motion_pilot_GIST_update_2,2026.1.1,Win32,61.34969325,610192be9b03bd29e260fe74,69b95efdef24cd8a694e89ee,69b96080e75d2745959feb08,0.0502,0.0502,1,32,194,80,1,fivesix,,,,,,,,,,,,,,,,,,,,,,,,,,,,,,,,,,,,,,,,,,,,,,,,,,,,,,,,,,,,,,,,,,,,,,,,,,,,,,,,,,,,,,,,,,,,,,,,,,,,,,,,,,,,,,,,,,,,,,,,,,,,,,,,,,,,,,,,,
,,610192be9b03bd29e260fe74,2026-03-17_16h13.48.127,kallum_motion_pilot_GIST_update_2,2026.1.1,Win32,61.34969325,610192be9b03bd29e260fe74,69b95efdef24cd8a694e89ee,69b96080e75d2745959feb08,0.0504,0.0504,1,33,195,22,1,fourtwo,,,,,,,,,,,,,,,,,,,,,,,,,,,,,,,,,,,,,,,,,,,,,,,,,,,,,,,,,,,,,,,,,,,,,,,,,,,,,,,,,,,,,,,,,,,,,,,,,,,,,,,,,,,,,,,,,,,,,,,,,,,,,,,,,,,,,,,,,
,,610192be9b03bd29e260fe74,2026-03-17_16h13.48.127,kallum_motion_pilot_GIST_update_2,2026.1.1,Win32,61.34969325,610192be9b03bd29e260fe74,69b95efdef24cd8a694e89ee,69b96080e75d2745959feb08,0.0506,0.0506,1,34,196,52,1,threeone,,,,,,,,,,,,,,,,,,,,,,,,,,,,,,,,,,,,,,,,,,,,,,,,,,,,,,,,,,,,,,,,,,,,,,,,,,,,,,,,,,,,,,,,,,,,,,,,,,,,,,,,,,,,,,,,,,,,,,,,,,,,,,,,,,,,,,,,,
,,610192be9b03bd29e260fe74,2026-03-17_16h13.48.127,kallum_motion_pilot_GIST_update_2,2026.1.1,Win32,61.34969325,610192be9b03bd29e260fe74,69b95efdef24cd8a694e89ee,69b96080e75d2745959feb08,0.0506,0.0506,1,35,197,121,1,fiveseven,,,,,,,,,,,,,,,,,,,,,,,,,,,,,,,,,,,,,,,,,,,,,,,,,,,,,,,,,,,,,,,,,,,,,,,,,,,,,,,,,,,,,,,,,,,,,,,,,,,,,,,,,,,,,,,,,,,,,,,,,,,,,,,,,,,,,,,,,
,,610192be9b03bd29e260fe74,2026-03-17_16h13.48.127,kallum_motion_pilot_GIST_update_2,2026.1.1,Win32,61.34969325,610192be9b03bd29e260fe74,69b95efdef24cd8a694e89ee,69b96080e75d2745959feb08,0.0508,0.0508,1,36,198,131,1,sixeight,,,,,,,,,,,,,,,,,,,,,,,,,,,,,,,,,,,,,,,,,,,,,,,,,,,,,,,,,,,,,,,,,,,,,,,,,,,,,,,,,,,,,,,,,,,,,,,,,,,,,,,,,,,,,,,,,,,,,,,,,,,,,,,,,,,,,,,,,
,,610192be9b03bd29e260fe74,2026-03-17_16h13.48.127,kallum_motion_pilot_GIST_update_2,2026.1.1,Win32,61.34969325,610192be9b03bd29e260fe74,69b95efdef24cd8a694e89ee,69b96080e75d2745959feb08,0.051,0.051,1,37,199,125,1,seveneight,,,,,,,,,,,,,,,,,,,,,,,,,,,,,,,,,,,,,,,,,,,,,,,,,,,,,,,,,,,,,,,,,,,,,,,,,,,,,,,,,,,,,,,,,,,,,,,,,,,,,,,,,,,,,,,,,,,,,,,,,,,,,,,,,,,,,,,,,
,,610192be9b03bd29e260fe74,2026-03-17_16h13.48.127,kallum_motion_pilot_GIST_update_2,2026.1.1,Win32,61.34969325,610192be9b03bd29e260fe74,69b95efdef24cd8a694e89ee,69b96080e75d2745959feb08,0.051,0.051,1,38,200,147,1,sixeight,,,,,,,,,,,,,,,,,,,,,,,,,,,,,,,,,,,,,,,,,,,,,,,,,,,,,,,,,,,,,,,,,,,,,,,,,,,,,,,,,,,,,,,,,,,,,,,,,,,,,,,,,,,,,,,,,,,,,,,,,,,,,,,,,,,,,,,,,
,,610192be9b03bd29e260fe74,2026-03-17_16h13.48.127,kallum_motion_pilot_GIST_update_2,2026.1.1,Win32,61.34969325,610192be9b03bd29e260fe74,69b95efdef24cd8a694e89ee,69b96080e75d2745959feb08,0.0512,0.0512,1,39,201,82,1,sixfive,,,,,,,,,,,,,,,,,,,,,,,,,,,,,,,,,,,,,,,,,,,,,,,,,,,,,,,,,,,,,,,,,,,,,,,,,,,,,,,,,,,,,,,,,,,,,,,,,,,,,,,,,,,,,,,,,,,,,,,,,,,,,,,,,,,,,,,,,
,,610192be9b03bd29e260fe74,2026-03-17_16h13.48.127,kallum_motion_pilot_GIST_update_2,2026.1.1,Win32,61.34969325,610192be9b03bd29e260fe74,69b95efdef24cd8a694e89ee,69b96080e75d2745959feb08,0.0514,0.0514,1,40,202,109,1,seveneight,,,,,,,,,,,,,,,,,,,,,,,,,,,,,,,,,,,,,,,,,,,,,,,,,,,,,,,,,,,,,,,,,,,,,,,,,,,,,,,,,,,,,,,,,,,,,,,,,,,,,,,,,,,,,,,,,,,,,,,,,,,,,,,,,,,,,,,,,
,,610192be9b03bd29e260fe74,2026-03-17_16h13.48.127,kallum_motion_pilot_GIST_update_2,2026.1.1,Win32,61.34969325,610192be9b03bd29e260fe74,69b95efdef24cd8a694e89ee,69b96080e75d2745959feb08,0.0515,0.0515,1,41,203,94,1,eightsix,,,,,,,,,,,,,,,,,,,,,,,,,,,,,,,,,,,,,,,,,,,,,,,,,,,,,,,,,,,,,,,,,,,,,,,,,,,,,,,,,,,,,,,,,,,,,,,,,,,,,,,,,,,,,,,,,,,,,,,,,,,,,,,,,,,,,,,,,
,,610192be9b03bd29e260fe74,2026-03-17_16h13.48.127,kallum_motion_pilot_GIST_update_2,2026.1.1,Win32,61.34969325,610192be9b03bd29e260fe74,69b95efdef24cd8a694e89ee,69b96080e75d2745959feb08,0.0515,0.0515,1,42,204,95,1,eightseven,,,,,,,,,,,,,,,,,,,,,,,,,,,,,,,,,,,,,,,,,,,,,,,,,,,,,,,,,,,,,,,,,,,,,,,,,,,,,,,,,,,,,,,,,,,,,,,,,,,,,,,,,,,,,,,,,,,,,,,,,,,,,,,,,,,,,,,,,
,,610192be9b03bd29e260fe74,2026-03-17_16h13.48.127,kallum_motion_pilot_GIST_update_2,2026.1.1,Win32,61.34969325,610192be9b03bd29e260fe74,69b95efdef24cd8a694e89ee,69b96080e75d2745959feb08,0.0517,0.0517,1,43,205,108,1,sevenfive,,,,,,,,,,,,,,,,,,,,,,,,,,,,,,,,,,,,,,,,,,,,,,,,,,,,,,,,,,,,,,,,,,,,,,,,,,,,,,,,,,,,,,,,,,,,,,,,,,,,,,,,,,,,,,,,,,,,,,,,,,,,,,,,,,,,,,,,,
,,610192be9b03bd29e260fe74,2026-03-17_16h13.48.127,kallum_motion_pilot_GIST_update_2,2026.1.1,Win32,61.34969325,610192be9b03bd29e260fe74,69b95efdef24cd8a694e89ee,69b96080e75d2745959feb08,0.0518,0.0518,1,44,206,40,1,onetwo,,,,,,,,,,,,,,,,,,,,,,,,,,,,,,,,,,,,,,,,,,,,,,,,,,,,,,,,,,,,,,,,,,,,,,,,,,,,,,,,,,,,,,,,,,,,,,,,,,,,,,,,,,,,,,,,,,,,,,,,,,,,,,,,,,,,,,,,,
,,610192be9b03bd29e260fe74,2026-03-17_16h13.48.127,kallum_motion_pilot_GIST_update_2,2026.1.1,Win32,61.34969325,610192be9b03bd29e260fe74,69b95efdef24cd8a694e89ee,69b96080e75d2745959feb08,0.0519,0.0519,1,45,207,71,1,fourthree,,,,,,,,,,,,,,,,,,,,,,,,,,,,,,,,,,,,,,,,,,,,,,,,,,,,,,,,,,,,,,,,,,,,,,,,,,,,,,,,,,,,,,,,,,,,,,,,,,,,,,,,,,,,,,,,,,,,,,,,,,,,,,,,,,,,,,,,,
,,610192be9b03bd29e260fe74,2026-03-17_16h13.48.127,kallum_motion_pilot_GIST_update_2,2026.1.1,Win32,61.34969325,610192be9b03bd29e260fe74,69b95efdef24cd8a694e89ee,69b96080e75d2745959feb08,0.0521,0.0521,1,46,208,12,1,threeone,,,,,,,,,,,,,,,,,,,,,,,,,,,,,,,,,,,,,,,,,,,,,,,,,,,,,,,,,,,,,,,,,,,,,,,,,,,,,,,,,,,,,,,,,,,,,,,,,,,,,,,,,,,,,,,,,,,,,,,,,,,,,,,,,,,,,,,,,
,,610192be9b03bd29e260fe74,2026-03-17_16h13.48.127,kallum_motion_pilot_GIST_update_2,2026.1.1,Win32,61.34969325,610192be9b03bd29e260fe74,69b95efdef24cd8a694e89ee,69b96080e75d2745959feb08,0.0521,0.0522,1,47,209,139,1,sixeight,,,,,,,,,,,,,,,,,,,,,,,,,,,,,,,,,,,,,,,,,,,,,,,,,,,,,,,,,,,,,,,,,,,,,,,,,,,,,,,,,,,,,,,,,,,,,,,,,,,,,,,,,,,,,,,,,,,,,,,,,,,,,,,,,,,,,,,,,
,,610192be9b03bd29e260fe74,2026-03-17_16h13.48.127,kallum_motion_pilot_GIST_update_2,2026.1.1,Win32,61.34969325,610192be9b03bd29e260fe74,69b95efdef24cd8a694e89ee,69b96080e75d2745959feb08,0.0523,0.0523,1,48,210,14,1,fourtwo,,,,,,,,,,,,,,,,,,,,,,,,,,,,,,,,,,,,,,,,,,,,,,,,,,,,,,,,,,,,,,,,,,,,,,,,,,,,,,,,,,,,,,,,,,,,,,,,,,,,,,,,,,,,,,,,,,,,,,,,,,,,,,,,,,,,,,,,,
,,610192be9b03bd29e260fe74,2026-03-17_16h13.48.127,kallum_motion_pilot_GIST_update_2,2026.1.1,Win32,61.34969325,610192be9b03bd29e260fe74,69b95efdef24cd8a694e89ee,69b96080e75d2745959feb08,0.0524,0.0524,1,49,211,116,1,sevenfive,,,,,,,,,,,,,,,,,,,,,,,,,,,,,,,,,,,,,,,,,,,,,,,,,,,,,,,,,,,,,,,,,,,,,,,,,,,,,,,,,,,,,,,,,,,,,,,,,,,,,,,,,,,,,,,,,,,,,,,,,,,,,,,,,,,,,,,,,
,,610192be9b03bd29e260fe74,2026-03-17_16h13.48.127,kallum_motion_pilot_GIST_update_2,2026.1.1,Win32,61.34969325,610192be9b03bd29e260fe74,69b95efdef24cd8a694e89ee,69b96080e75d2745959feb08,0.0526,0.0526,1,50,212,66,1,twoone,,,,,,,,,,,,,,,,,,,,,,,,,,,,,,,,,,,,,,,,,,,,,,,,,,,,,,,,,,,,,,,,,,,,,,,,,,,,,,,,,,,,,,,,,,,,,,,,,,,,,,,,,,,,,,,,,,,,,,,,,,,,,,,,,,,,,,,,,
,,610192be9b03bd29e260fe74,2026-03-17_16h13.48.127,kallum_motion_pilot_GIST_update_2,2026.1.1,Win32,61.34969325,610192be9b03bd29e260fe74,69b95efdef24cd8a694e89ee,69b96080e75d2745959feb08,0.0527,0.0527,1,51,213,31,1,fourthree,,,,,,,,,,,,,,,,,,,,,,,,,,,,,,,,,,,,,,,,,,,,,,,,,,,,,,,,,,,,,,,,,,,,,,,,,,,,,,,,,,,,,,,,,,,,,,,,,,,,,,,,,,,,,,,,,,,,,,,,,,,,,,,,,,,,,,,,,
,,610192be9b03bd29e260fe74,2026-03-17_16h13.48.127,kallum_motion_pilot_GIST_update_2,2026.1.1,Win32,61.34969325,610192be9b03bd29e260fe74,69b95efdef24cd8a694e89ee,69b96080e75d2745959feb08,0.0529,0.0529,1,52,214,123,1,sixeight,,,,,,,,,,,,,,,,,,,,,,,,,,,,,,,,,,,,,,,,,,,,,,,,,,,,,,,,,,,,,,,,,,,,,,,,,,,,,,,,,,,,,,,,,,,,,,,,,,,,,,,,,,,,,,,,,,,,,,,,,,,,,,,,,,,,,,,,,
,,610192be9b03bd29e260fe74,2026-03-17_16h13.48.127,kallum_motion_pilot_GIST_update_2,2026.1.1,Win32,61.34969325,610192be9b03bd29e260fe74,69b95efdef24cd8a694e89ee,69b96080e75d2745959feb08,0.053,0.053,1,53,215,115,1,sixeight,,,,,,,,,,,,,,,,,,,,,,,,,,,,,,,,,,,,,,,,,,,,,,,,,,,,,,,,,,,,,,,,,,,,,,,,,,,,,,,,,,,,,,,,,,,,,,,,,,,,,,,,,,,,,,,,,,,,,,,,,,,,,,,,,,,,,,,,,
,,610192be9b03bd29e260fe74,2026-03-17_16h13.48.127,kallum_motion_pilot_GIST_update_2,2026.1.1,Win32,61.34969325,610192be9b03bd29e260fe74,69b95efdef24cd8a694e89ee,69b96080e75d2745959feb08,0.0531,0.0531,1,54,216,107,1,sixeight,,,,,,,,,,,,,,,,,,,,,,,,,,,,,,,,,,,,,,,,,,,,,,,,,,,,,,,,,,,,,,,,,,,,,,,,,,,,,,,,,,,,,,,,,,,,,,,,,,,,,,,,,,,,,,,,,,,,,,,,,,,,,,,,,,,,,,,,,
,,610192be9b03bd29e260fe74,2026-03-17_16h13.48.127,kallum_motion_pilot_GIST_update_2,2026.1.1,Win32,61.34969325,610192be9b03bd29e260fe74,69b95efdef24cd8a694e89ee,69b96080e75d2745959feb08,0.0532,0.0532,1,55,217,90,1,sixfive,,,,,,,,,,,,,,,,,,,,,,,,,,,,,,,,,,,,,,,,,,,,,,,,,,,,,,,,,,,,,,,,,,,,,,,,,,,,,,,,,,,,,,,,,,,,,,,,,,,,,,,,,,,,,,,,,,,,,,,,,,,,,,,,,,,,,,,,,
,,610192be9b03bd29e260fe74,2026-03-17_16h13.48.127,kallum_motion_pilot_GIST_update_2,2026.1.1,Win32,61.34969325,610192be9b03bd29e260fe74,69b95efdef24cd8a694e89ee,69b96080e75d2745959feb08,0.0534,0.0534,1,56,218,29,1,threefour,,,,,,,,,,,,,,,,,,,,,,,,,,,,,,,,,,,,,,,,,,,,,,,,,,,,,,,,,,,,,,,,,,,,,,,,,,,,,,,,,,,,,,,,,,,,,,,,,,,,,,,,,,,,,,,,,,,,,,,,,,,,,,,,,,,,,,,,,
,,610192be9b03bd29e260fe74,2026-03-17_16h13.48.127,kallum_motion_pilot_GIST_update_2,2026.1.1,Win32,61.34969325,610192be9b03bd29e260fe74,69b95efdef24cd8a694e89ee,69b96080e75d2745959feb08,0.0535,0.0535,1,57,219,155,1,sixeight,,,,,,,,,,,,,,,,,,,,,,,,,,,,,,,,,,,,,,,,,,,,,,,,,,,,,,,,,,,,,,,,,,,,,,,,,,,,,,,,,,,,,,,,,,,,,,,,,,,,,,,,,,,,,,,,,,,,,,,,,,,,,,,,,,,,,,,,,
,,610192be9b03bd29e260fe74,2026-03-17_16h13.48.127,kallum_motion_pilot_GIST_update_2,2026.1.1,Win32,61.34969325,610192be9b03bd29e260fe74,69b95efdef24cd8a694e89ee,69b96080e75d2745959feb08,0.0536,0.0536,1,58,220,106,1,sixfive,,,,,,,,,,,,,,,,,,,,,,,,,,,,,,,,,,,,,,,,,,,,,,,,,,,,,,,,,,,,,,,,,,,,,,,,,,,,,,,,,,,,,,,,,,,,,,,,,,,,,,,,,,,,,,,,,,,,,,,,,,,,,,,,,,,,,,,,,
,,610192be9b03bd29e260fe74,2026-03-17_16h13.48.127,kallum_motion_pilot_GIST_update_2,2026.1.1,Win32,61.34969325,610192be9b03bd29e260fe74,69b95efdef24cd8a694e89ee,69b96080e75d2745959feb08,0.0537,0.0537,1,59,221,133,1,seveneight,,,,,,,,,,,,,,,,,,,,,,,,,,,,,,,,,,,,,,,,,,,,,,,,,,,,,,,,,,,,,,,,,,,,,,,,,,,,,,,,,,,,,,,,,,,,,,,,,,,,,,,,,,,,,,,,,,,,,,,,,,,,,,,,,,,,,,,,,
,,610192be9b03bd29e260fe74,2026-03-17_16h13.48.127,kallum_motion_pilot_GIST_update_2,2026.1.1,Win32,61.34969325,610192be9b03bd29e260fe74,69b95efdef24cd8a694e89ee,69b96080e75d2745959feb08,0.0539,0.0539,1,60,222,148,1,sevenfive,,,,,,,,,,,,,,,,,,,,,,,,,,,,,,,,,,,,,,,,,,,,,,,,,,,,,,,,,,,,,,,,,,,,,,,,,,,,,,,,,,,,,,,,,,,,,,,,,,,,,,,,,,,,,,,,,,,,,,,,,,,,,,,,,,,,,,,,,
,,610192be9b03bd29e260fe74,2026-03-17_16h13.48.127,kallum_motion_pilot_GIST_update_2,2026.1.1,Win32,61.34969325,610192be9b03bd29e260fe74,69b95efdef24cd8a694e89ee,69b96080e75d2745959feb08,0.0541,0.0541,1,61,223,75,1,twofour,,,,,,,,,,,,,,,,,,,,,,,,,,,,,,,,,,,,,,,,,,,,,,,,,,,,,,,,,,,,,,,,,,,,,,,,,,,,,,,,,,,,,,,,,,,,,,,,,,,,,,,,,,,,,,,,,,,,,,,,,,,,,,,,,,,,,,,,,
,,610192be9b03bd29e260fe74,2026-03-17_16h13.48.127,kallum_motion_pilot_GIST_update_2,2026.1.1,Win32,61.34969325,610192be9b03bd29e260fe74,69b95efdef24cd8a694e89ee,69b96080e75d2745959feb08,0.0542,0.0542,1,62,224,9,1,onethree,,,,,,,,,,,,,,,,,,,,,,,,,,,,,,,,,,,,,,,,,,,,,,,,,,,,,,,,,,,,,,,,,,,,,,,,,,,,,,,,,,,,,,,,,,,,,,,,,,,,,,,,,,,,,,,,,,,,,,,,,,,,,,,,,,,,,,,,,
,,610192be9b03bd29e260fe74,2026-03-17_16h13.48.127,kallum_motion_pilot_GIST_update_2,2026.1.1,Win32,61.34969325,610192be9b03bd29e260fe74,69b95efdef24cd8a694e89ee,69b96080e75d2745959feb08,0.0543,0.0543,1,63,225,156,1,sevenfive,,,,,,,,,,,,,,,,,,,,,,,,,,,,,,,,,,,,,,,,,,,,,,,,,,,,,,,,,,,,,,,,,,,,,,,,,,,,,,,,,,,,,,,,,,,,,,,,,,,,,,,,,,,,,,,,,,,,,,,,,,,,,,,,,,,,,,,,,
,,610192be9b03bd29e260fe74,2026-03-17_16h13.48.127,kallum_motion_pilot_GIST_update_2,2026.1.1,Win32,61.34969325,610192be9b03bd29e260fe74,69b95efdef24cd8a694e89ee,69b96080e75d2745959feb08,0.0545,0.0545,1,64,226,60,1,threeone,,,,,,,,,,,,,,,,,,,,,,,,,,,,,,,,,,,,,,,,,,,,,,,,,,,,,,,,,,,,,,,,,,,,,,,,,,,,,,,,,,,,,,,,,,,,,,,,,,,,,,,,,,,,,,,,,,,,,,,,,,,,,,,,,,,,,,,,,
,,610192be9b03bd29e260fe74,2026-03-17_16h13.48.127,kallum_motion_pilot_GIST_update_2,2026.1.1,Win32,61.34969325,610192be9b03bd29e260fe74,69b95efdef24cd8a694e89ee,69b96080e75d2745959feb08,0.0546,0.0546,1,65,227,72,1,onetwo,,,,,,,,,,,,,,,,,,,,,,,,,,,,,,,,,,,,,,,,,,,,,,,,,,,,,,,,,,,,,,,,,,,,,,,,,,,,,,,,,,,,,,,,,,,,,,,,,,,,,,,,,,,,,,,,,,,,,,,,,,,,,,,,,,,,,,,,,
,,610192be9b03bd29e260fe74,2026-03-17_16h13.48.127,kallum_motion_pilot_GIST_update_2,2026.1.1,Win32,61.34969325,610192be9b03bd29e260fe74,69b95efdef24cd8a694e89ee,69b96080e75d2745959feb08,0.0547,0.0547,1,66,228,120,1,fivesix,,,,,,,,,,,,,,,,,,,,,,,,,,,,,,,,,,,,,,,,,,,,,,,,,,,,,,,,,,,,,,,,,,,,,,,,,,,,,,,,,,,,,,,,,,,,,,,,,,,,,,,,,,,,,,,,,,,,,,,,,,,,,,,,,,,,,,,,,
,,610192be9b03bd29e260fe74,2026-03-17_16h13.48.127,kallum_motion_pilot_GIST_update_2,2026.1.1,Win32,61.34969325,610192be9b03bd29e260fe74,69b95efdef24cd8a694e89ee,69b96080e75d2745959feb08,0.0549,0.0549,1,67,229,13,1,threefour,,,,,,,,,,,,,,,,,,,,,,,,,,,,,,,,,,,,,,,,,,,,,,,,,,,,,,,,,,,,,,,,,,,,,,,,,,,,,,,,,,,,,,,,,,,,,,,,,,,,,,,,,,,,,,,,,,,,,,,,,,,,,,,,,,,,,,,,,
,,610192be9b03bd29e260fe74,2026-03-17_16h13.48.127,kallum_motion_pilot_GIST_update_2,2026.1.1,Win32,61.34969325,610192be9b03bd29e260fe74,69b95efdef24cd8a694e89ee,69b96080e75d2745959feb08,0.055,0.0551,1,68,230,140,1,sevenfive,,,,,,,,,,,,,,,,,,,,,,,,,,,,,,,,,,,,,,,,,,,,,,,,,,,,,,,,,,,,,,,,,,,,,,,,,,,,,,,,,,,,,,,,,,,,,,,,,,,,,,,,,,,,,,,,,,,,,,,,,,,,,,,,,,,,,,,,,
,,610192be9b03bd29e260fe74,2026-03-17_16h13.48.127,kallum_motion_pilot_GIST_update_2,2026.1.1,Win32,61.34969325,610192be9b03bd29e260fe74,69b95efdef24cd8a694e89ee,69b96080e75d2745959feb08,0.0551,0.0551,1,69,231,157,1,seveneight,,,,,,,,,,,,,,,,,,,,,,,,,,,,,,,,,,,,,,,,,,,,,,,,,,,,,,,,,,,,,,,,,,,,,,,,,,,,,,,,,,,,,,,,,,,,,,,,,,,,,,,,,,,,,,,,,,,,,,,,,,,,,,,,,,,,,,,,,
,,610192be9b03bd29e260fe74,2026-03-17_16h13.48.127,kallum_motion_pilot_GIST_update_2,2026.1.1,Win32,61.34969325,610192be9b03bd29e260fe74,69b95efdef24cd8a694e89ee,69b96080e75d2745959feb08,0.0553,0.0553,1,70,232,117,1,seveneight,,,,,,,,,,,,,,,,,,,,,,,,,,,,,,,,,,,,,,,,,,,,,,,,,,,,,,,,,,,,,,,,,,,,,,,,,,,,,,,,,,,,,,,,,,,,,,,,,,,,,,,,,,,,,,,,,,,,,,,,,,,,,,,,,,,,,,,,,
,,610192be9b03bd29e260fe74,2026-03-17_16h13.48.127,kallum_motion_pilot_GIST_update_2,2026.1.1,Win32,61.34969325,610192be9b03bd29e260fe74,69b95efdef24cd8a694e89ee,69b96080e75d2745959feb08,0.0554,0.0554,1,71,233,6,1,fourtwo,,,,,,,,,,,,,,,,,,,,,,,,,,,,,,,,,,,,,,,,,,,,,,,,,,,,,,,,,,,,,,,,,,,,,,,,,,,,,,,,,,,,,,,,,,,,,,,,,,,,,,,,,,,,,,,,,,,,,,,,,,,,,,,,,,,,,,,,,
,,610192be9b03bd29e260fe74,2026-03-17_16h13.48.127,kallum_motion_pilot_GIST_update_2,2026.1.1,Win32,61.34969325,610192be9b03bd29e260fe74,69b95efdef24cd8a694e89ee,69b96080e75d2745959feb08,0.0556,0.0556,1,72,234,61,1,threefour,,,,,,,,,,,,,,,,,,,,,,,,,,,,,,,,,,,,,,,,,,,,,,,,,,,,,,,,,,,,,,,,,,,,,,,,,,,,,,,,,,,,,,,,,,,,,,,,,,,,,,,,,,,,,,,,,,,,,,,,,,,,,,,,,,,,,,,,,
,,610192be9b03bd29e260fe74,2026-03-17_16h13.48.127,kallum_motion_pilot_GIST_update_2,2026.1.1,Win32,61.34969325,610192be9b03bd29e260fe74,69b95efdef24cd8a694e89ee,69b96080e75d2745959feb08,0.0558,0.0558,1,73,235,17,1,onethree,,,,,,,,,,,,,,,,,,,,,,,,,,,,,,,,,,,,,,,,,,,,,,,,,,,,,,,,,,,,,,,,,,,,,,,,,,,,,,,,,,,,,,,,,,,,,,,,,,,,,,,,,,,,,,,,,,,,,,,,,,,,,,,,,,,,,,,,,
,,610192be9b03bd29e260fe74,2026-03-17_16h13.48.127,kallum_motion_pilot_GIST_update_2,2026.1.1,Win32,61.34969325,610192be9b03bd29e260fe74,69b95efdef24cd8a694e89ee,69b96080e75d2745959feb08,0.0559,0.0559,1,74,236,34,1,twoone,,,,,,,,,,,,,,,,,,,,,,,,,,,,,,,,,,,,,,,,,,,,,,,,,,,,,,,,,,,,,,,,,,,,,,,,,,,,,,,,,,,,,,,,,,,,,,,,,,,,,,,,,,,,,,,,,,,,,,,,,,,,,,,,,,,,,,,,,
,,610192be9b03bd29e260fe74,2026-03-17_16h13.48.127,kallum_motion_pilot_GIST_update_2,2026.1.1,Win32,61.34969325,610192be9b03bd29e260fe74,69b95efdef24cd8a694e89ee,69b96080e75d2745959feb08,0.056,0.056,1,75,237,18,1,twoone,,,,,,,,,,,,,,,,,,,,,,,,,,,,,,,,,,,,,,,,,,,,,,,,,,,,,,,,,,,,,,,,,,,,,,,,,,,,,,,,,,,,,,,,,,,,,,,,,,,,,,,,,,,,,,,,,,,,,,,,,,,,,,,,,,,,,,,,,
,,610192be9b03bd29e260fe74,2026-03-17_16h13.48.127,kallum_motion_pilot_GIST_update_2,2026.1.1,Win32,61.34969325,610192be9b03bd29e260fe74,69b95efdef24cd8a694e89ee,69b96080e75d2745959feb08,0.0562,0.0562,1,76,238,97,1,fiveseven,,,,,,,,,,,,,,,,,,,,,,,,,,,,,,,,,,,,,,,,,,,,,,,,,,,,,,,,,,,,,,,,,,,,,,,,,,,,,,,,,,,,,,,,,,,,,,,,,,,,,,,,,,,,,,,,,,,,,,,,,,,,,,,,,,,,,,,,,
,,610192be9b03bd29e260fe74,2026-03-17_16h13.48.127,kallum_motion_pilot_GIST_update_2,2026.1.1,Win32,61.34969325,610192be9b03bd29e260fe74,69b95efdef24cd8a694e89ee,69b96080e75d2745959feb08,0.0563,0.0563,1,77,239,136,1,fivesix,,,,,,,,,,,,,,,,,,,,,,,,,,,,,,,,,,,,,,,,,,,,,,,,,,,,,,,,,,,,,,,,,,,,,,,,,,,,,,,,,,,,,,,,,,,,,,,,,,,,,,,,,,,,,,,,,,,,,,,,,,,,,,,,,,,,,,,,,
,,610192be9b03bd29e260fe74,2026-03-17_16h13.48.127,kallum_motion_pilot_GIST_update_2,2026.1.1,Win32,61.34969325,610192be9b03bd29e260fe74,69b95efdef24cd8a694e89ee,69b96080e75d2745959feb08,0.0564,0.0564,1,78,240,56,1,onetwo,,,,,,,,,,,,,,,,,,,,,,,,,,,,,,,,,,,,,,,,,,,,,,,,,,,,,,,,,,,,,,,,,,,,,,,,,,,,,,,,,,,,,,,,,,,,,,,,,,,,,,,,,,,,,,,,,,,,,,,,,,,,,,,,,,,,,,,,,
,,610192be9b03bd29e260fe74,2026-03-17_16h13.48.127,kallum_motion_pilot_GIST_update_2,2026.1.1,Win32,61.34969325,610192be9b03bd29e260fe74,69b95efdef24cd8a694e89ee,69b96080e75d2745959feb08,0.0566,0.0566,1,79,241,68,1,threeone,,,,,,,,,,,,,,,,,,,,,,,,,,,,,,,,,,,,,,,,,,,,,,,,,,,,,,,,,,,,,,,,,,,,,,,,,,,,,,,,,,,,,,,,,,,,,,,,,,,,,,,,,,,,,,,,,,,,,,,,,,,,,,,,,,,,,,,,,
,,610192be9b03bd29e260fe74,2026-03-17_16h13.48.127,kallum_motion_pilot_GIST_update_2,2026.1.1,Win32,61.34969325,610192be9b03bd29e260fe74,69b95efdef24cd8a694e89ee,69b96080e75d2745959feb08,0.0568,0.0568,1,80,242,51,1,twofour,,,,,,,,,,,,,,,,,,,,,,,,,,,,,,,,,,,,,,,,,,,,,,,,,,,,,,,,,,,,,,,,,,,,,,,,,,,,,,,,,,,,,,,,,,,,,,,,,,,,,,,,,,,,,,,,,,,,,,,,,,,,,,,,,,,,,,,,,
,,610192be9b03bd29e260fe74,2026-03-17_16h13.48.127,kallum_motion_pilot_GIST_update_2,2026.1.1,Win32,61.34969325,610192be9b03bd29e260fe74,69b95efdef24cd8a694e89ee,69b96080e75d2745959feb08,0.0568,0.0568,1,81,243,78,1,fourtwo,,,,,,,,,,,,,,,,,,,,,,,,,,,,,,,,,,,,,,,,,,,,,,,,,,,,,,,,,,,,,,,,,,,,,,,,,,,,,,,,,,,,,,,,,,,,,,,,,,,,,,,,,,,,,,,,,,,,,,,,,,,,,,,,,,,,,,,,,
,,610192be9b03bd29e260fe74,2026-03-17_16h13.48.127,kallum_motion_pilot_GIST_update_2,2026.1.1,Win32,61.34969325,610192be9b03bd29e260fe74,69b95efdef24cd8a694e89ee,69b96080e75d2745959feb08,0.057,0.057,1,82,244,154,1,sixfive,,,,,,,,,,,,,,,,,,,,,,,,,,,,,,,,,,,,,,,,,,,,,,,,,,,,,,,,,,,,,,,,,,,,,,,,,,,,,,,,,,,,,,,,,,,,,,,,,,,,,,,,,,,,,,,,,,,,,,,,,,,,,,,,,,,,,,,,,
,,610192be9b03bd29e260fe74,2026-03-17_16h13.48.127,kallum_motion_pilot_GIST_update_2,2026.1.1,Win32,61.34969325,610192be9b03bd29e260fe74,69b95efdef24cd8a694e89ee,69b96080e75d2745959feb08,0.0571,0.0571,1,83,245,64,1,onetwo,,,,,,,,,,,,,,,,,,,,,,,,,,,,,,,,,,,,,,,,,,,,,,,,,,,,,,,,,,,,,,,,,,,,,,,,,,,,,,,,,,,,,,,,,,,,,,,,,,,,,,,,,,,,,,,,,,,,,,,,,,,,,,,,,,,,,,,,,
,,610192be9b03bd29e260fe74,2026-03-17_16h13.48.127,kallum_motion_pilot_GIST_update_2,2026.1.1,Win32,61.34969325,610192be9b03bd29e260fe74,69b95efdef24cd8a694e89ee,69b96080e75d2745959feb08,0.0572,0.0572,1,84,246,151,1,eightseven,,,,,,,,,,,,,,,,,,,,,,,,,,,,,,,,,,,,,,,,,,,,,,,,,,,,,,,,,,,,,,,,,,,,,,,,,,,,,,,,,,,,,,,,,,,,,,,,,,,,,,,,,,,,,,,,,,,,,,,,,,,,,,,,,,,,,,,,,
,,610192be9b03bd29e260fe74,2026-03-17_16h13.48.127,kallum_motion_pilot_GIST_update_2,2026.1.1,Win32,61.34969325,610192be9b03bd29e260fe74,69b95efdef24cd8a694e89ee,69b96080e75d2745959feb08,0.0574,0.0574,1,85,247,62,1,fourtwo,,,,,,,,,,,,,,,,,,,,,,,,,,,,,,,,,,,,,,,,,,,,,,,,,,,,,,,,,,,,,,,,,,,,,,,,,,,,,,,,,,,,,,,,,,,,,,,,,,,,,,,,,,,,,,,,,,,,,,,,,,,,,,,,,,,,,,,,,
,,610192be9b03bd29e260fe74,2026-03-17_16h13.48.127,kallum_motion_pilot_GIST_update_2,2026.1.1,Win32,61.34969325,610192be9b03bd29e260fe74,69b95efdef24cd8a694e89ee,69b96080e75d2745959feb08,0.0575,0.0575,1,86,248,65,1,onethree,,,,,,,,,,,,,,,,,,,,,,,,,,,,,,,,,,,,,,,,,,,,,,,,,,,,,,,,,,,,,,,,,,,,,,,,,,,,,,,,,,,,,,,,,,,,,,,,,,,,,,,,,,,,,,,,,,,,,,,,,,,,,,,,,,,,,,,,,
,,610192be9b03bd29e260fe74,2026-03-17_16h13.48.127,kallum_motion_pilot_GIST_update_2,2026.1.1,Win32,61.34969325,610192be9b03bd29e260fe74,69b95efdef24cd8a694e89ee,69b96080e75d2745959feb08,0.0576,0.0576,1,87,249,4,1,threeone,,,,,,,,,,,,,,,,,,,,,,,,,,,,,,,,,,,,,,,,,,,,,,,,,,,,,,,,,,,,,,,,,,,,,,,,,,,,,,,,,,,,,,,,,,,,,,,,,,,,,,,,,,,,,,,,,,,,,,,,,,,,,,,,,,,,,,,,,
,,610192be9b03bd29e260fe74,2026-03-17_16h13.48.127,kallum_motion_pilot_GIST_update_2,2026.1.1,Win32,61.34969325,610192be9b03bd29e260fe74,69b95efdef24cd8a694e89ee,69b96080e75d2745959feb08,0.0577,0.0577,1,88,250,130,1,sixfive,,,,,,,,,,,,,,,,,,,,,,,,,,,,,,,,,,,,,,,,,,,,,,,,,,,,,,,,,,,,,,,,,,,,,,,,,,,,,,,,,,,,,,,,,,,,,,,,,,,,,,,,,,,,,,,,,,,,,,,,,,,,,,,,,,,,,,,,,
,,610192be9b03bd29e260fe74,2026-03-17_16h13.48.127,kallum_motion_pilot_GIST_update_2,2026.1.1,Win32,61.34969325,610192be9b03bd29e260fe74,69b95efdef24cd8a694e89ee,69b96080e75d2745959feb08,0.0578,0.0578,1,89,251,153,1,fiveseven,,,,,,,,,,,,,,,,,,,,,,,,,,,,,,,,,,,,,,,,,,,,,,,,,,,,,,,,,,,,,,,,,,,,,,,,,,,,,,,,,,,,,,,,,,,,,,,,,,,,,,,,,,,,,,,,,,,,,,,,,,,,,,,,,,,,,,,,,
,,610192be9b03bd29e260fe74,2026-03-17_16h13.48.127,kallum_motion_pilot_GIST_update_2,2026.1.1,Win32,61.34969325,610192be9b03bd29e260fe74,69b95efdef24cd8a694e89ee,69b96080e75d2745959feb08,0.058,0.058,1,90,252,47,1,fourthree,,,,,,,,,,,,,,,,,,,,,,,,,,,,,,,,,,,,,,,,,,,,,,,,,,,,,,,,,,,,,,,,,,,,,,,,,,,,,,,,,,,,,,,,,,,,,,,,,,,,,,,,,,,,,,,,,,,,,,,,,,,,,,,,,,,,,,,,,
,,610192be9b03bd29e260fe74,2026-03-17_16h13.48.127,kallum_motion_pilot_GIST_update_2,2026.1.1,Win32,61.34969325,610192be9b03bd29e260fe74,69b95efdef24cd8a694e89ee,69b96080e75d2745959feb08,0.0581,0.0581,1,91,253,76,1,threeone,,,,,,,,,,,,,,,,,,,,,,,,,,,,,,,,,,,,,,,,,,,,,,,,,,,,,,,,,,,,,,,,,,,,,,,,,,,,,,,,,,,,,,,,,,,,,,,,,,,,,,,,,,,,,,,,,,,,,,,,,,,,,,,,,,,,,,,,,
,,610192be9b03bd29e260fe74,2026-03-17_16h13.48.127,kallum_motion_pilot_GIST_update_2,2026.1.1,Win32,61.34969325,610192be9b03bd29e260fe74,69b95efdef24cd8a694e89ee,69b96080e75d2745959feb08,0.0582,0.0582,1,92,254,158,1,eightsix,,,,,,,,,,,,,,,,,,,,,,,,,,,,,,,,,,,,,,,,,,,,,,,,,,,,,,,,,,,,,,,,,,,,,,,,,,,,,,,,,,,,,,,,,,,,,,,,,,,,,,,,,,,,,,,,,,,,,,,,,,,,,,,,,,,,,,,,,
,,610192be9b03bd29e260fe74,2026-03-17_16h13.48.127,kallum_motion_pilot_GIST_update_2,2026.1.1,Win32,61.34969325,610192be9b03bd29e260fe74,69b95efdef24cd8a694e89ee,69b96080e75d2745959feb08,0.0585,0.0585,1,93,255,41,1,onethree,,,,,,,,,,,,,,,,,,,,,,,,,,,,,,,,,,,,,,,,,,,,,,,,,,,,,,,,,,,,,,,,,,,,,,,,,,,,,,,,,,,,,,,,,,,,,,,,,,,,,,,,,,,,,,,,,,,,,,,,,,,,,,,,,,,,,,,,,
,,610192be9b03bd29e260fe74,2026-03-17_16h13.48.127,kallum_motion_pilot_GIST_update_2,2026.1.1,Win32,61.34969325,610192be9b03bd29e260fe74,69b95efdef24cd8a694e89ee,69b96080e75d2745959feb08,0.0587,0.0587,1,94,256,81,1,fiveseven,,,,,,,,,,,,,,,,,,,,,,,,,,,,,,,,,,,,,,,,,,,,,,,,,,,,,,,,,,,,,,,,,,,,,,,,,,,,,,,,,,,,,,,,,,,,,,,,,,,,,,,,,,,,,,,,,,,,,,,,,,,,,,,,,,,,,,,,,
,,610192be9b03bd29e260fe74,2026-03-17_16h13.48.127,kallum_motion_pilot_GIST_update_2,2026.1.1,Win32,61.34969325,610192be9b03bd29e260fe74,69b95efdef24cd8a694e89ee,69b96080e75d2745959feb08,0.0589,0.0589,1,95,257,79,1,eightseven,,,,,,,,,,,,,,,,,,,,,,,,,,,,,,,,,,,,,,,,,,,,,,,,,,,,,,,,,,,,,,,,,,,,,,,,,,,,,,,,,,,,,,,,,,,,,,,,,,,,,,,,,,,,,,,,,,,,,,,,,,,,,,,,,,,,,,,,,
,,610192be9b03bd29e260fe74,2026-03-17_16h13.48.127,kallum_motion_pilot_GIST_update_2,2026.1.1,Win32,61.34969325,610192be9b03bd29e260fe74,69b95efdef24cd8a694e89ee,69b96080e75d2745959feb08,0.0591,0.0591,1,96,258,129,1,fiveseven,,,,,,,,,,,,,,,,,,,,,,,,,,,,,,,,,,,,,,,,,,,,,,,,,,,,,,,,,,,,,,,,,,,,,,,,,,,,,,,,,,,,,,,,,,,,,,,,,,,,,,,,,,,,,,,,,,,,,,,,,,,,,,,,,,,,,,,,,
,,610192be9b03bd29e260fe74,2026-03-17_16h13.48.127,kallum_motion_pilot_GIST_update_2,2026.1.1,Win32,61.34969325,610192be9b03bd29e260fe74,69b95efdef24cd8a694e89ee,69b96080e75d2745959feb08,0.0593,0.0593,1,97,259,23,1,fourthree,,,,,,,,,,,,,,,,,,,,,,,,,,,,,,,,,,,,,,,,,,,,,,,,,,,,,,,,,,,,,,,,,,,,,,,,,,,,,,,,,,,,,,,,,,,,,,,,,,,,,,,,,,,,,,,,,,,,,,,,,,,,,,,,,,,,,,,,,
,,610192be9b03bd29e260fe74,2026-03-17_16h13.48.127,kallum_motion_pilot_GIST_update_2,2026.1.1,Win32,61.34969325,610192be9b03bd29e260fe74,69b95efdef24cd8a694e89ee,69b96080e75d2745959feb08,0.0595,0.0595,1,98,260,146,1,sixfive,,,,,,,,,,,,,,,,,,,,,,,,,,,,,,,,,,,,,,,,,,,,,,,,,,,,,,,,,,,,,,,,,,,,,,,,,,,,,,,,,,,,,,,,,,,,,,,,,,,,,,,,,,,,,,,,,,,,,,,,,,,,,,,,,,,,,,,,,
,,610192be9b03bd29e260fe74,2026-03-17_16h13.48.127,kallum_motion_pilot_GIST_update_2,2026.1.1,Win32,61.34969325,610192be9b03bd29e260fe74,69b95efdef24cd8a694e89ee,69b96080e75d2745959feb08,0.0598,0.0598,1,99,261,127,1,eightseven,,,,,,,,,,,,,,,,,,,,,,,,,,,,,,,,,,,,,,,,,,,,,,,,,,,,,,,,,,,,,,,,,,,,,,,,,,,,,,,,,,,,,,,,,,,,,,,,,,,,,,,,,,,,,,,,,,,,,,,,,,,,,,,,,,,,,,,,,
,,610192be9b03bd29e260fe74,2026-03-17_16h13.48.127,kallum_motion_pilot_GIST_update_2,2026.1.1,Win32,61.34969325,610192be9b03bd29e260fe74,69b95efdef24cd8a694e89ee,69b96080e75d2745959feb08,0.0599,0.0599,1,100,262,112,1,fivesix,,,,,,,,,,,,,,,,,,,,,,,,,,,,,,,,,,,,,,,,,,,,,,,,,,,,,,,,,,,,,,,,,,,,,,,,,,,,,,,,,,,,,,,,,,,,,,,,,,,,,,,,,,,,,,,,,,,,,,,,,,,,,,,,,,,,,,,,,
,,610192be9b03bd29e260fe74,2026-03-17_16h13.48.127,kallum_motion_pilot_GIST_update_2,2026.1.1,Win32,61.34969325,610192be9b03bd29e260fe74,69b95efdef24cd8a694e89ee,69b96080e75d2745959feb08,0.0601,0.0601,1,101,263,2,1,twoone,,,,,,,,,,,,,,,,,,,,,,,,,,,,,,,,,,,,,,,,,,,,,,,,,,,,,,,,,,,,,,,,,,,,,,,,,,,,,,,,,,,,,,,,,,,,,,,,,,,,,,,,,,,,,,,,,,,,,,,,,,,,,,,,,,,,,,,,,
,,610192be9b03bd29e260fe74,2026-03-17_16h13.48.127,kallum_motion_pilot_GIST_update_2,2026.1.1,Win32,61.34969325,610192be9b03bd29e260fe74,69b95efdef24cd8a694e89ee,69b96080e75d2745959feb08,0.0604,0.0604,1,102,264,26,1,twoone,,,,,,,,,,,,,,,,,,,,,,,,,,,,,,,,,,,,,,,,,,,,,,,,,,,,,,,,,,,,,,,,,,,,,,,,,,,,,,,,,,,,,,,,,,,,,,,,,,,,,,,,,,,,,,,,,,,,,,,,,,,,,,,,,,,,,,,,,
,,610192be9b03bd29e260fe74,2026-03-17_16h13.48.127,kallum_motion_pilot_GIST_update_2,2026.1.1,Win32,61.34969325,610192be9b03bd29e260fe74,69b95efdef24cd8a694e89ee,69b96080e75d2745959feb08,0.0608,0.0608,1,103,265,38,1,fourtwo,,,,,,,,,,,,,,,,,,,,,,,,,,,,,,,,,,,,,,,,,,,,,,,,,,,,,,,,,,,,,,,,,,,,,,,,,,,,,,,,,,,,,,,,,,,,,,,,,,,,,,,,,,,,,,,,,,,,,,,,,,,,,,,,,,,,,,,,,
,,610192be9b03bd29e260fe74,2026-03-17_16h13.48.127,kallum_motion_pilot_GIST_update_2,2026.1.1,Win32,61.34969325,610192be9b03bd29e260fe74,69b95efdef24cd8a694e89ee,69b96080e75d2745959feb08,0.0609,0.0609,1,104,266,91,1,sixeight,,,,,,,,,,,,,,,,,,,,,,,,,,,,,,,,,,,,,,,,,,,,,,,,,,,,,,,,,,,,,,,,,,,,,,,,,,,,,,,,,,,,,,,,,,,,,,,,,,,,,,,,,,,,,,,,,,,,,,,,,,,,,,,,,,,,,,,,,
