startup.started,startup.stopped,Prolific ID*,date,expName,psychopyVersion,OS,frameRate,participant,study_id,session,stimpositions.started,stimpositions.stopped,hardcoded_stimulus_positions.thisRepN,hardcoded_stimulus_positions.thisTrialN,hardcoded_stimulus_positions.thisN,hardcoded_stimulus_positions.thisIndex,hardcoded_stimulus_positions.ran,StimulusPos,stimorientation.started,stimorientation.stopped,prac_stimorientation_import_loop.thisRepN,prac_stimorientation_import_loop.thisTrialN,prac_stimorientation_import_loop.thisN,prac_stimorientation_import_loop.thisIndex,prac_stimorientation_import_loop.ran,Stimorientation,welcome_instr.started,welcome_instr.stopped,key_resp.keys,key_resp.rt,key_resp.duration,response_steppedout_1.started,response_steppedout_1.stopped,key_resp_20.keys,key_resp_20.rt,key_resp_20.duration,response_steppedout_2.started,response_steppedout_2.stopped,key_resp_19.keys,key_resp_19.rt,key_resp_19.duration,stim_response_instr.started,stim_response_instr.stopped,key_resp_15.keys,key_resp_15.rt,key_resp_15.duration,direction_instr_2.started,direction_instr_2.stopped,key_resp_9.keys,key_resp_9.rt,key_resp_9.duration,instr_prac.started,instr_prac.stopped,key_resp_10.keys,key_resp_10.rt,key_resp_10.duration,Stim1_display_prac.started,Stim1_display_prac.stopped,Ecc,Circle1_ori,Circle2_ori,response_prac.started,similarity,response_time,response_prac.stopped,mouse_5.x,mouse_5.y,mouse_5.leftButton,mouse_5.midButton,mouse_5.rightButton,mouse_5.clicked_name,responseprac_feedback.started,responseprac_feedback.stopped,summary2_prac.started,summary2_prac.stopped,mouse_6.x,mouse_6.y,mouse_6.leftButton,mouse_6.midButton,mouse_6.rightButton,mouse_6.clicked_name,duringprac.thisRepN,duringprac.thisTrialN,duringprac.thisN,duringprac.thisIndex,duringprac.ran,begin.started,begin.stopped,key_resp_22.keys,key_resp_22.rt,key_resp_22.duration,Stim1_display.started,Stim1_display.stopped,circle1_ori,circle2_ori,circle1_SF,circle2_SF,response.started,response.stopped,mouse.x,mouse.y,mouse.leftButton,mouse.midButton,mouse.rightButton,mouse.clicked_name,trialnumber,double_pass.thisRepN,double_pass.thisTrialN,double_pass.thisN,double_pass.thisIndex,double_pass.ran,double_pass.order,main_trial.thisRepN,main_trial.thisTrialN,main_trial.thisN,main_trial.thisIndex,main_trial.ran,main_trial.order,Trial_Counter,Catch,Frequencies,response_2.started,response_2.stopped,mouse_2.x,mouse_2.y,mouse_2.leftButton,mouse_2.midButton,mouse_2.rightButton,mouse_2.clicked_name,special_trial.started,special_trial.stopped,catch_1.started,catch_1.stopped,mouse_3.x,mouse_3.y,mouse_3.leftButton,mouse_3.midButton,mouse_3.rightButton,catchresponse,catchnumber,response_time_catch,response_sum.started,response_sum.stopped,mouse_11.x,mouse_11.y,mouse_11.leftButton,mouse_11.midButton,mouse_11.rightButton,flip_presentation_sequence_for_double_pass.started,flip_presentation_sequence_for_double_pass.stopped,goodbye.started,goodbye.stopped,key_resp_3.keys,key_resp_3.rt,key_resp_3.duration
0.0065,0.0067,6112810f76d46087c3e2d208,2026-03-17_12h39.30.750,kallum_motion_pilot_GIST_update_2,2026.1.1,Win32,59.52380952,6112810f76d46087c3e2d208,69b92ab4aef6dee357cd729a,69b92f3c50b332c5606e0569,,,,,,,,,,,,,,,,,,,,,,,,,,,,,,,,,,,,,,,,,,,,,,,,,,,,,,,,,,,,,,,,,,,,,,,,,,,,,,,,,,,,,,,,,,,,,,,,,,,,,,,,,,,,,,,,,,,,,,,,,,,,,,,,,,,,,,,,,,,,,,,,,
,,6112810f76d46087c3e2d208,2026-03-17_12h39.30.750,kallum_motion_pilot_GIST_update_2,2026.1.1,Win32,59.52380952,6112810f76d46087c3e2d208,69b92ab4aef6dee357cd729a,69b92f3c50b332c5606e0569,0.0578,0.0579,0,0,0,17,1,onethree,,,,,,,,,,,,,,,,,,,,,,,,,,,,,,,,,,,,,,,,,,,,,,,,,,,,,,,,,,,,,,,,,,,,,,,,,,,,,,,,,,,,,,,,,,,,,,,,,,,,,,,,,,,,,,,,,,,,,,,,,,,,,,,,,,,,,,,,,
,,6112810f76d46087c3e2d208,2026-03-17_12h39.30.750,kallum_motion_pilot_GIST_update_2,2026.1.1,Win32,59.52380952,6112810f76d46087c3e2d208,69b92ab4aef6dee357cd729a,69b92f3c50b332c5606e0569,0.0585,0.0585,0,1,1,14,1,fourtwo,,,,,,,,,,,,,,,,,,,,,,,,,,,,,,,,,,,,,,,,,,,,,,,,,,,,,,,,,,,,,,,,,,,,,,,,,,,,,,,,,,,,,,,,,,,,,,,,,,,,,,,,,,,,,,,,,,,,,,,,,,,,,,,,,,,,,,,,,
,,6112810f76d46087c3e2d208,2026-03-17_12h39.30.750,kallum_motion_pilot_GIST_update_2,2026.1.1,Win32,59.52380952,6112810f76d46087c3e2d208,69b92ab4aef6dee357cd729a,69b92f3c50b332c5606e0569,0.0588,0.0589,0,2,2,129,1,fiveseven,,,,,,,,,,,,,,,,,,,,,,,,,,,,,,,,,,,,,,,,,,,,,,,,,,,,,,,,,,,,,,,,,,,,,,,,,,,,,,,,,,,,,,,,,,,,,,,,,,,,,,,,,,,,,,,,,,,,,,,,,,,,,,,,,,,,,,,,,
,,6112810f76d46087c3e2d208,2026-03-17_12h39.30.750,kallum_motion_pilot_GIST_update_2,2026.1.1,Win32,59.52380952,6112810f76d46087c3e2d208,69b92ab4aef6dee357cd729a,69b92f3c50b332c5606e0569,0.0592,0.0592,0,3,3,143,1,eightseven,,,,,,,,,,,,,,,,,,,,,,,,,,,,,,,,,,,,,,,,,,,,,,,,,,,,,,,,,,,,,,,,,,,,,,,,,,,,,,,,,,,,,,,,,,,,,,,,,,,,,,,,,,,,,,,,,,,,,,,,,,,,,,,,,,,,,,,,,
,,6112810f76d46087c3e2d208,2026-03-17_12h39.30.750,kallum_motion_pilot_GIST_update_2,2026.1.1,Win32,59.52380952,6112810f76d46087c3e2d208,69b92ab4aef6dee357cd729a,69b92f3c50b332c5606e0569,0.0595,0.0595,0,4,4,117,1,seveneight,,,,,,,,,,,,,,,,,,,,,,,,,,,,,,,,,,,,,,,,,,,,,,,,,,,,,,,,,,,,,,,,,,,,,,,,,,,,,,,,,,,,,,,,,,,,,,,,,,,,,,,,,,,,,,,,,,,,,,,,,,,,,,,,,,,,,,,,,
,,6112810f76d46087c3e2d208,2026-03-17_12h39.30.750,kallum_motion_pilot_GIST_update_2,2026.1.1,Win32,59.52380952,6112810f76d46087c3e2d208,69b92ab4aef6dee357cd729a,69b92f3c50b332c5606e0569,0.0597,0.0597,0,5,5,74,1,twoone,,,,,,,,,,,,,,,,,,,,,,,,,,,,,,,,,,,,,,,,,,,,,,,,,,,,,,,,,,,,,,,,,,,,,,,,,,,,,,,,,,,,,,,,,,,,,,,,,,,,,,,,,,,,,,,,,,,,,,,,,,,,,,,,,,,,,,,,,
,,6112810f76d46087c3e2d208,2026-03-17_12h39.30.750,kallum_motion_pilot_GIST_update_2,2026.1.1,Win32,59.52380952,6112810f76d46087c3e2d208,69b92ab4aef6dee357cd729a,69b92f3c50b332c5606e0569,0.06,0.06,0,6,6,58,1,twoone,,,,,,,,,,,,,,,,,,,,,,,,,,,,,,,,,,,,,,,,,,,,,,,,,,,,,,,,,,,,,,,,,,,,,,,,,,,,,,,,,,,,,,,,,,,,,,,,,,,,,,,,,,,,,,,,,,,,,,,,,,,,,,,,,,,,,,,,,
,,6112810f76d46087c3e2d208,2026-03-17_12h39.30.750,kallum_motion_pilot_GIST_update_2,2026.1.1,Win32,59.52380952,6112810f76d46087c3e2d208,69b92ab4aef6dee357cd729a,69b92f3c50b332c5606e0569,0.0602,0.0603,0,7,7,118,1,eightsix,,,,,,,,,,,,,,,,,,,,,,,,,,,,,,,,,,,,,,,,,,,,,,,,,,,,,,,,,,,,,,,,,,,,,,,,,,,,,,,,,,,,,,,,,,,,,,,,,,,,,,,,,,,,,,,,,,,,,,,,,,,,,,,,,,,,,,,,,
,,6112810f76d46087c3e2d208,2026-03-17_12h39.30.750,kallum_motion_pilot_GIST_update_2,2026.1.1,Win32,59.52380952,6112810f76d46087c3e2d208,69b92ab4aef6dee357cd729a,69b92f3c50b332c5606e0569,0.0606,0.0606,0,8,8,137,1,fiveseven,,,,,,,,,,,,,,,,,,,,,,,,,,,,,,,,,,,,,,,,,,,,,,,,,,,,,,,,,,,,,,,,,,,,,,,,,,,,,,,,,,,,,,,,,,,,,,,,,,,,,,,,,,,,,,,,,,,,,,,,,,,,,,,,,,,,,,,,,
,,6112810f76d46087c3e2d208,2026-03-17_12h39.30.750,kallum_motion_pilot_GIST_update_2,2026.1.1,Win32,59.52380952,6112810f76d46087c3e2d208,69b92ab4aef6dee357cd729a,69b92f3c50b332c5606e0569,0.0608,0.0608,0,9,9,26,1,twoone,,,,,,,,,,,,,,,,,,,,,,,,,,,,,,,,,,,,,,,,,,,,,,,,,,,,,,,,,,,,,,,,,,,,,,,,,,,,,,,,,,,,,,,,,,,,,,,,,,,,,,,,,,,,,,,,,,,,,,,,,,,,,,,,,,,,,,,,,
,,6112810f76d46087c3e2d208,2026-03-17_12h39.30.750,kallum_motion_pilot_GIST_update_2,2026.1.1,Win32,59.52380952,6112810f76d46087c3e2d208,69b92ab4aef6dee357cd729a,69b92f3c50b332c5606e0569,0.0611,0.0611,0,10,10,69,1,threefour,,,,,,,,,,,,,,,,,,,,,,,,,,,,,,,,,,,,,,,,,,,,,,,,,,,,,,,,,,,,,,,,,,,,,,,,,,,,,,,,,,,,,,,,,,,,,,,,,,,,,,,,,,,,,,,,,,,,,,,,,,,,,,,,,,,,,,,,,
,,6112810f76d46087c3e2d208,2026-03-17_12h39.30.750,kallum_motion_pilot_GIST_update_2,2026.1.1,Win32,59.52380952,6112810f76d46087c3e2d208,69b92ab4aef6dee357cd729a,69b92f3c50b332c5606e0569,0.0613,0.0613,0,11,11,42,1,twoone,,,,,,,,,,,,,,,,,,,,,,,,,,,,,,,,,,,,,,,,,,,,,,,,,,,,,,,,,,,,,,,,,,,,,,,,,,,,,,,,,,,,,,,,,,,,,,,,,,,,,,,,,,,,,,,,,,,,,,,,,,,,,,,,,,,,,,,,,
,,6112810f76d46087c3e2d208,2026-03-17_12h39.30.750,kallum_motion_pilot_GIST_update_2,2026.1.1,Win32,59.52380952,6112810f76d46087c3e2d208,69b92ab4aef6dee357cd729a,69b92f3c50b332c5606e0569,0.0615,0.0615,0,12,12,125,1,seveneight,,,,,,,,,,,,,,,,,,,,,,,,,,,,,,,,,,,,,,,,,,,,,,,,,,,,,,,,,,,,,,,,,,,,,,,,,,,,,,,,,,,,,,,,,,,,,,,,,,,,,,,,,,,,,,,,,,,,,,,,,,,,,,,,,,,,,,,,,
,,6112810f76d46087c3e2d208,2026-03-17_12h39.30.750,kallum_motion_pilot_GIST_update_2,2026.1.1,Win32,59.52380952,6112810f76d46087c3e2d208,69b92ab4aef6dee357cd729a,69b92f3c50b332c5606e0569,0.0619,0.0619,0,13,13,29,1,threefour,,,,,,,,,,,,,,,,,,,,,,,,,,,,,,,,,,,,,,,,,,,,,,,,,,,,,,,,,,,,,,,,,,,,,,,,,,,,,,,,,,,,,,,,,,,,,,,,,,,,,,,,,,,,,,,,,,,,,,,,,,,,,,,,,,,,,,,,,
,,6112810f76d46087c3e2d208,2026-03-17_12h39.30.750,kallum_motion_pilot_GIST_update_2,2026.1.1,Win32,59.52380952,6112810f76d46087c3e2d208,69b92ab4aef6dee357cd729a,69b92f3c50b332c5606e0569,0.0629,0.063,0,14,14,52,1,threeone,,,,,,,,,,,,,,,,,,,,,,,,,,,,,,,,,,,,,,,,,,,,,,,,,,,,,,,,,,,,,,,,,,,,,,,,,,,,,,,,,,,,,,,,,,,,,,,,,,,,,,,,,,,,,,,,,,,,,,,,,,,,,,,,,,,,,,,,,
,,6112810f76d46087c3e2d208,2026-03-17_12h39.30.750,kallum_motion_pilot_GIST_update_2,2026.1.1,Win32,59.52380952,6112810f76d46087c3e2d208,69b92ab4aef6dee357cd729a,69b92f3c50b332c5606e0569,0.0634,0.0634,0,15,15,33,1,onethree,,,,,,,,,,,,,,,,,,,,,,,,,,,,,,,,,,,,,,,,,,,,,,,,,,,,,,,,,,,,,,,,,,,,,,,,,,,,,,,,,,,,,,,,,,,,,,,,,,,,,,,,,,,,,,,,,,,,,,,,,,,,,,,,,,,,,,,,,
,,6112810f76d46087c3e2d208,2026-03-17_12h39.30.750,kallum_motion_pilot_GIST_update_2,2026.1.1,Win32,59.52380952,6112810f76d46087c3e2d208,69b92ab4aef6dee357cd729a,69b92f3c50b332c5606e0569,0.0637,0.0637,0,16,16,51,1,twofour,,,,,,,,,,,,,,,,,,,,,,,,,,,,,,,,,,,,,,,,,,,,,,,,,,,,,,,,,,,,,,,,,,,,,,,,,,,,,,,,,,,,,,,,,,,,,,,,,,,,,,,,,,,,,,,,,,,,,,,,,,,,,,,,,,,,,,,,,
,,6112810f76d46087c3e2d208,2026-03-17_12h39.30.750,kallum_motion_pilot_GIST_update_2,2026.1.1,Win32,59.52380952,6112810f76d46087c3e2d208,69b92ab4aef6dee357cd729a,69b92f3c50b332c5606e0569,0.0639,0.0639,0,17,17,116,1,sevenfive,,,,,,,,,,,,,,,,,,,,,,,,,,,,,,,,,,,,,,,,,,,,,,,,,,,,,,,,,,,,,,,,,,,,,,,,,,,,,,,,,,,,,,,,,,,,,,,,,,,,,,,,,,,,,,,,,,,,,,,,,,,,,,,,,,,,,,,,,
,,6112810f76d46087c3e2d208,2026-03-17_12h39.30.750,kallum_motion_pilot_GIST_update_2,2026.1.1,Win32,59.52380952,6112810f76d46087c3e2d208,69b92ab4aef6dee357cd729a,69b92f3c50b332c5606e0569,0.0642,0.0642,0,18,18,108,1,sevenfive,,,,,,,,,,,,,,,,,,,,,,,,,,,,,,,,,,,,,,,,,,,,,,,,,,,,,,,,,,,,,,,,,,,,,,,,,,,,,,,,,,,,,,,,,,,,,,,,,,,,,,,,,,,,,,,,,,,,,,,,,,,,,,,,,,,,,,,,,
,,6112810f76d46087c3e2d208,2026-03-17_12h39.30.750,kallum_motion_pilot_GIST_update_2,2026.1.1,Win32,59.52380952,6112810f76d46087c3e2d208,69b92ab4aef6dee357cd729a,69b92f3c50b332c5606e0569,0.0644,0.0644,0,19,19,41,1,onethree,,,,,,,,,,,,,,,,,,,,,,,,,,,,,,,,,,,,,,,,,,,,,,,,,,,,,,,,,,,,,,,,,,,,,,,,,,,,,,,,,,,,,,,,,,,,,,,,,,,,,,,,,,,,,,,,,,,,,,,,,,,,,,,,,,,,,,,,,
,,6112810f76d46087c3e2d208,2026-03-17_12h39.30.750,kallum_motion_pilot_GIST_update_2,2026.1.1,Win32,59.52380952,6112810f76d46087c3e2d208,69b92ab4aef6dee357cd729a,69b92f3c50b332c5606e0569,0.0647,0.0647,0,20,20,150,1,eightsix,,,,,,,,,,,,,,,,,,,,,,,,,,,,,,,,,,,,,,,,,,,,,,,,,,,,,,,,,,,,,,,,,,,,,,,,,,,,,,,,,,,,,,,,,,,,,,,,,,,,,,,,,,,,,,,,,,,,,,,,,,,,,,,,,,,,,,,,,
,,6112810f76d46087c3e2d208,2026-03-17_12h39.30.750,kallum_motion_pilot_GIST_update_2,2026.1.1,Win32,59.52380952,6112810f76d46087c3e2d208,69b92ab4aef6dee357cd729a,69b92f3c50b332c5606e0569,0.0649,0.0649,0,21,21,80,1,fivesix,,,,,,,,,,,,,,,,,,,,,,,,,,,,,,,,,,,,,,,,,,,,,,,,,,,,,,,,,,,,,,,,,,,,,,,,,,,,,,,,,,,,,,,,,,,,,,,,,,,,,,,,,,,,,,,,,,,,,,,,,,,,,,,,,,,,,,,,,
,,6112810f76d46087c3e2d208,2026-03-17_12h39.30.750,kallum_motion_pilot_GIST_update_2,2026.1.1,Win32,59.52380952,6112810f76d46087c3e2d208,69b92ab4aef6dee357cd729a,69b92f3c50b332c5606e0569,0.0652,0.0652,0,22,22,104,1,fivesix,,,,,,,,,,,,,,,,,,,,,,,,,,,,,,,,,,,,,,,,,,,,,,,,,,,,,,,,,,,,,,,,,,,,,,,,,,,,,,,,,,,,,,,,,,,,,,,,,,,,,,,,,,,,,,,,,,,,,,,,,,,,,,,,,,,,,,,,,
,,6112810f76d46087c3e2d208,2026-03-17_12h39.30.750,kallum_motion_pilot_GIST_update_2,2026.1.1,Win32,59.52380952,6112810f76d46087c3e2d208,69b92ab4aef6dee357cd729a,69b92f3c50b332c5606e0569,0.0654,0.0655,0,23,23,94,1,eightsix,,,,,,,,,,,,,,,,,,,,,,,,,,,,,,,,,,,,,,,,,,,,,,,,,,,,,,,,,,,,,,,,,,,,,,,,,,,,,,,,,,,,,,,,,,,,,,,,,,,,,,,,,,,,,,,,,,,,,,,,,,,,,,,,,,,,,,,,,
,,6112810f76d46087c3e2d208,2026-03-17_12h39.30.750,kallum_motion_pilot_GIST_update_2,2026.1.1,Win32,59.52380952,6112810f76d46087c3e2d208,69b92ab4aef6dee357cd729a,69b92f3c50b332c5606e0569,0.0658,0.0658,0,24,24,158,1,eightsix,,,,,,,,,,,,,,,,,,,,,,,,,,,,,,,,,,,,,,,,,,,,,,,,,,,,,,,,,,,,,,,,,,,,,,,,,,,,,,,,,,,,,,,,,,,,,,,,,,,,,,,,,,,,,,,,,,,,,,,,,,,,,,,,,,,,,,,,,
,,6112810f76d46087c3e2d208,2026-03-17_12h39.30.750,kallum_motion_pilot_GIST_update_2,2026.1.1,Win32,59.52380952,6112810f76d46087c3e2d208,69b92ab4aef6dee357cd729a,69b92f3c50b332c5606e0569,0.066,0.066,0,25,25,87,1,eightseven,,,,,,,,,,,,,,,,,,,,,,,,,,,,,,,,,,,,,,,,,,,,,,,,,,,,,,,,,,,,,,,,,,,,,,,,,,,,,,,,,,,,,,,,,,,,,,,,,,,,,,,,,,,,,,,,,,,,,,,,,,,,,,,,,,,,,,,,,
,,6112810f76d46087c3e2d208,2026-03-17_12h39.30.750,kallum_motion_pilot_GIST_update_2,2026.1.1,Win32,59.52380952,6112810f76d46087c3e2d208,69b92ab4aef6dee357cd729a,69b92f3c50b332c5606e0569,0.0663,0.0663,0,26,26,34,1,twoone,,,,,,,,,,,,,,,,,,,,,,,,,,,,,,,,,,,,,,,,,,,,,,,,,,,,,,,,,,,,,,,,,,,,,,,,,,,,,,,,,,,,,,,,,,,,,,,,,,,,,,,,,,,,,,,,,,,,,,,,,,,,,,,,,,,,,,,,,
,,6112810f76d46087c3e2d208,2026-03-17_12h39.30.750,kallum_motion_pilot_GIST_update_2,2026.1.1,Win32,59.52380952,6112810f76d46087c3e2d208,69b92ab4aef6dee357cd729a,69b92f3c50b332c5606e0569,0.0665,0.0665,0,27,27,32,1,onetwo,,,,,,,,,,,,,,,,,,,,,,,,,,,,,,,,,,,,,,,,,,,,,,,,,,,,,,,,,,,,,,,,,,,,,,,,,,,,,,,,,,,,,,,,,,,,,,,,,,,,,,,,,,,,,,,,,,,,,,,,,,,,,,,,,,,,,,,,,
,,6112810f76d46087c3e2d208,2026-03-17_12h39.30.750,kallum_motion_pilot_GIST_update_2,2026.1.1,Win32,59.52380952,6112810f76d46087c3e2d208,69b92ab4aef6dee357cd729a,69b92f3c50b332c5606e0569,0.0667,0.0667,0,28,28,31,1,fourthree,,,,,,,,,,,,,,,,,,,,,,,,,,,,,,,,,,,,,,,,,,,,,,,,,,,,,,,,,,,,,,,,,,,,,,,,,,,,,,,,,,,,,,,,,,,,,,,,,,,,,,,,,,,,,,,,,,,,,,,,,,,,,,,,,,,,,,,,,
,,6112810f76d46087c3e2d208,2026-03-17_12h39.30.750,kallum_motion_pilot_GIST_update_2,2026.1.1,Win32,59.52380952,6112810f76d46087c3e2d208,69b92ab4aef6dee357cd729a,69b92f3c50b332c5606e0569,0.067,0.067,0,29,29,131,1,sixeight,,,,,,,,,,,,,,,,,,,,,,,,,,,,,,,,,,,,,,,,,,,,,,,,,,,,,,,,,,,,,,,,,,,,,,,,,,,,,,,,,,,,,,,,,,,,,,,,,,,,,,,,,,,,,,,,,,,,,,,,,,,,,,,,,,,,,,,,,
,,6112810f76d46087c3e2d208,2026-03-17_12h39.30.750,kallum_motion_pilot_GIST_update_2,2026.1.1,Win32,59.52380952,6112810f76d46087c3e2d208,69b92ab4aef6dee357cd729a,69b92f3c50b332c5606e0569,0.0671,0.0671,0,30,30,113,1,fiveseven,,,,,,,,,,,,,,,,,,,,,,,,,,,,,,,,,,,,,,,,,,,,,,,,,,,,,,,,,,,,,,,,,,,,,,,,,,,,,,,,,,,,,,,,,,,,,,,,,,,,,,,,,,,,,,,,,,,,,,,,,,,,,,,,,,,,,,,,,
,,6112810f76d46087c3e2d208,2026-03-17_12h39.30.750,kallum_motion_pilot_GIST_update_2,2026.1.1,Win32,59.52380952,6112810f76d46087c3e2d208,69b92ab4aef6dee357cd729a,69b92f3c50b332c5606e0569,0.0674,0.0674,0,31,31,61,1,threefour,,,,,,,,,,,,,,,,,,,,,,,,,,,,,,,,,,,,,,,,,,,,,,,,,,,,,,,,,,,,,,,,,,,,,,,,,,,,,,,,,,,,,,,,,,,,,,,,,,,,,,,,,,,,,,,,,,,,,,,,,,,,,,,,,,,,,,,,,
,,6112810f76d46087c3e2d208,2026-03-17_12h39.30.750,kallum_motion_pilot_GIST_update_2,2026.1.1,Win32,59.52380952,6112810f76d46087c3e2d208,69b92ab4aef6dee357cd729a,69b92f3c50b332c5606e0569,0.0676,0.0676,0,32,32,105,1,fiveseven,,,,,,,,,,,,,,,,,,,,,,,,,,,,,,,,,,,,,,,,,,,,,,,,,,,,,,,,,,,,,,,,,,,,,,,,,,,,,,,,,,,,,,,,,,,,,,,,,,,,,,,,,,,,,,,,,,,,,,,,,,,,,,,,,,,,,,,,,
,,6112810f76d46087c3e2d208,2026-03-17_12h39.30.750,kallum_motion_pilot_GIST_update_2,2026.1.1,Win32,59.52380952,6112810f76d46087c3e2d208,69b92ab4aef6dee357cd729a,69b92f3c50b332c5606e0569,0.0678,0.0678,0,33,33,54,1,fourtwo,,,,,,,,,,,,,,,,,,,,,,,,,,,,,,,,,,,,,,,,,,,,,,,,,,,,,,,,,,,,,,,,,,,,,,,,,,,,,,,,,,,,,,,,,,,,,,,,,,,,,,,,,,,,,,,,,,,,,,,,,,,,,,,,,,,,,,,,,
,,6112810f76d46087c3e2d208,2026-03-17_12h39.30.750,kallum_motion_pilot_GIST_update_2,2026.1.1,Win32,59.52380952,6112810f76d46087c3e2d208,69b92ab4aef6dee357cd729a,69b92f3c50b332c5606e0569,0.068,0.068,0,34,34,97,1,fiveseven,,,,,,,,,,,,,,,,,,,,,,,,,,,,,,,,,,,,,,,,,,,,,,,,,,,,,,,,,,,,,,,,,,,,,,,,,,,,,,,,,,,,,,,,,,,,,,,,,,,,,,,,,,,,,,,,,,,,,,,,,,,,,,,,,,,,,,,,,
,,6112810f76d46087c3e2d208,2026-03-17_12h39.30.750,kallum_motion_pilot_GIST_update_2,2026.1.1,Win32,59.52380952,6112810f76d46087c3e2d208,69b92ab4aef6dee357cd729a,69b92f3c50b332c5606e0569,0.0682,0.0682,0,35,35,9,1,onethree,,,,,,,,,,,,,,,,,,,,,,,,,,,,,,,,,,,,,,,,,,,,,,,,,,,,,,,,,,,,,,,,,,,,,,,,,,,,,,,,,,,,,,,,,,,,,,,,,,,,,,,,,,,,,,,,,,,,,,,,,,,,,,,,,,,,,,,,,
,,6112810f76d46087c3e2d208,2026-03-17_12h39.30.750,kallum_motion_pilot_GIST_update_2,2026.1.1,Win32,59.52380952,6112810f76d46087c3e2d208,69b92ab4aef6dee357cd729a,69b92f3c50b332c5606e0569,0.0686,0.0686,0,36,36,24,1,onetwo,,,,,,,,,,,,,,,,,,,,,,,,,,,,,,,,,,,,,,,,,,,,,,,,,,,,,,,,,,,,,,,,,,,,,,,,,,,,,,,,,,,,,,,,,,,,,,,,,,,,,,,,,,,,,,,,,,,,,,,,,,,,,,,,,,,,,,,,,
,,6112810f76d46087c3e2d208,2026-03-17_12h39.30.750,kallum_motion_pilot_GIST_update_2,2026.1.1,Win32,59.52380952,6112810f76d46087c3e2d208,69b92ab4aef6dee357cd729a,69b92f3c50b332c5606e0569,0.0689,0.0689,0,37,37,133,1,seveneight,,,,,,,,,,,,,,,,,,,,,,,,,,,,,,,,,,,,,,,,,,,,,,,,,,,,,,,,,,,,,,,,,,,,,,,,,,,,,,,,,,,,,,,,,,,,,,,,,,,,,,,,,,,,,,,,,,,,,,,,,,,,,,,,,,,,,,,,,
,,6112810f76d46087c3e2d208,2026-03-17_12h39.30.750,kallum_motion_pilot_GIST_update_2,2026.1.1,Win32,59.52380952,6112810f76d46087c3e2d208,69b92ab4aef6dee357cd729a,69b92f3c50b332c5606e0569,0.0691,0.0691,0,38,38,141,1,seveneight,,,,,,,,,,,,,,,,,,,,,,,,,,,,,,,,,,,,,,,,,,,,,,,,,,,,,,,,,,,,,,,,,,,,,,,,,,,,,,,,,,,,,,,,,,,,,,,,,,,,,,,,,,,,,,,,,,,,,,,,,,,,,,,,,,,,,,,,,
,,6112810f76d46087c3e2d208,2026-03-17_12h39.30.750,kallum_motion_pilot_GIST_update_2,2026.1.1,Win32,59.52380952,6112810f76d46087c3e2d208,69b92ab4aef6dee357cd729a,69b92f3c50b332c5606e0569,0.0693,0.0693,0,39,39,81,1,fiveseven,,,,,,,,,,,,,,,,,,,,,,,,,,,,,,,,,,,,,,,,,,,,,,,,,,,,,,,,,,,,,,,,,,,,,,,,,,,,,,,,,,,,,,,,,,,,,,,,,,,,,,,,,,,,,,,,,,,,,,,,,,,,,,,,,,,,,,,,,
,,6112810f76d46087c3e2d208,2026-03-17_12h39.30.750,kallum_motion_pilot_GIST_update_2,2026.1.1,Win32,59.52380952,6112810f76d46087c3e2d208,69b92ab4aef6dee357cd729a,69b92f3c50b332c5606e0569,0.0695,0.0696,0,40,40,139,1,sixeight,,,,,,,,,,,,,,,,,,,,,,,,,,,,,,,,,,,,,,,,,,,,,,,,,,,,,,,,,,,,,,,,,,,,,,,,,,,,,,,,,,,,,,,,,,,,,,,,,,,,,,,,,,,,,,,,,,,,,,,,,,,,,,,,,,,,,,,,,
,,6112810f76d46087c3e2d208,2026-03-17_12h39.30.750,kallum_motion_pilot_GIST_update_2,2026.1.1,Win32,59.52380952,6112810f76d46087c3e2d208,69b92ab4aef6dee357cd729a,69b92f3c50b332c5606e0569,0.0698,0.0698,0,41,41,86,1,eightsix,,,,,,,,,,,,,,,,,,,,,,,,,,,,,,,,,,,,,,,,,,,,,,,,,,,,,,,,,,,,,,,,,,,,,,,,,,,,,,,,,,,,,,,,,,,,,,,,,,,,,,,,,,,,,,,,,,,,,,,,,,,,,,,,,,,,,,,,,
,,6112810f76d46087c3e2d208,2026-03-17_12h39.30.750,kallum_motion_pilot_GIST_update_2,2026.1.1,Win32,59.52380952,6112810f76d46087c3e2d208,69b92ab4aef6dee357cd729a,69b92f3c50b332c5606e0569,0.07,0.07,0,42,42,46,1,fourtwo,,,,,,,,,,,,,,,,,,,,,,,,,,,,,,,,,,,,,,,,,,,,,,,,,,,,,,,,,,,,,,,,,,,,,,,,,,,,,,,,,,,,,,,,,,,,,,,,,,,,,,,,,,,,,,,,,,,,,,,,,,,,,,,,,,,,,,,,,
,,6112810f76d46087c3e2d208,2026-03-17_12h39.30.750,kallum_motion_pilot_GIST_update_2,2026.1.1,Win32,59.52380952,6112810f76d46087c3e2d208,69b92ab4aef6dee357cd729a,69b92f3c50b332c5606e0569,0.0702,0.0702,0,43,43,138,1,sixfive,,,,,,,,,,,,,,,,,,,,,,,,,,,,,,,,,,,,,,,,,,,,,,,,,,,,,,,,,,,,,,,,,,,,,,,,,,,,,,,,,,,,,,,,,,,,,,,,,,,,,,,,,,,,,,,,,,,,,,,,,,,,,,,,,,,,,,,,,
,,6112810f76d46087c3e2d208,2026-03-17_12h39.30.750,kallum_motion_pilot_GIST_update_2,2026.1.1,Win32,59.52380952,6112810f76d46087c3e2d208,69b92ab4aef6dee357cd729a,69b92f3c50b332c5606e0569,0.0705,0.0705,0,44,44,126,1,eightsix,,,,,,,,,,,,,,,,,,,,,,,,,,,,,,,,,,,,,,,,,,,,,,,,,,,,,,,,,,,,,,,,,,,,,,,,,,,,,,,,,,,,,,,,,,,,,,,,,,,,,,,,,,,,,,,,,,,,,,,,,,,,,,,,,,,,,,,,,
,,6112810f76d46087c3e2d208,2026-03-17_12h39.30.750,kallum_motion_pilot_GIST_update_2,2026.1.1,Win32,59.52380952,6112810f76d46087c3e2d208,69b92ab4aef6dee357cd729a,69b92f3c50b332c5606e0569,0.0707,0.0707,0,45,45,110,1,eightsix,,,,,,,,,,,,,,,,,,,,,,,,,,,,,,,,,,,,,,,,,,,,,,,,,,,,,,,,,,,,,,,,,,,,,,,,,,,,,,,,,,,,,,,,,,,,,,,,,,,,,,,,,,,,,,,,,,,,,,,,,,,,,,,,,,,,,,,,,
,,6112810f76d46087c3e2d208,2026-03-17_12h39.30.750,kallum_motion_pilot_GIST_update_2,2026.1.1,Win32,59.52380952,6112810f76d46087c3e2d208,69b92ab4aef6dee357cd729a,69b92f3c50b332c5606e0569,0.0709,0.0709,0,46,46,146,1,sixfive,,,,,,,,,,,,,,,,,,,,,,,,,,,,,,,,,,,,,,,,,,,,,,,,,,,,,,,,,,,,,,,,,,,,,,,,,,,,,,,,,,,,,,,,,,,,,,,,,,,,,,,,,,,,,,,,,,,,,,,,,,,,,,,,,,,,,,,,,
,,6112810f76d46087c3e2d208,2026-03-17_12h39.30.750,kallum_motion_pilot_GIST_update_2,2026.1.1,Win32,59.52380952,6112810f76d46087c3e2d208,69b92ab4aef6dee357cd729a,69b92f3c50b332c5606e0569,0.0711,0.0711,0,47,47,142,1,eightsix,,,,,,,,,,,,,,,,,,,,,,,,,,,,,,,,,,,,,,,,,,,,,,,,,,,,,,,,,,,,,,,,,,,,,,,,,,,,,,,,,,,,,,,,,,,,,,,,,,,,,,,,,,,,,,,,,,,,,,,,,,,,,,,,,,,,,,,,,
,,6112810f76d46087c3e2d208,2026-03-17_12h39.30.750,kallum_motion_pilot_GIST_update_2,2026.1.1,Win32,59.52380952,6112810f76d46087c3e2d208,69b92ab4aef6dee357cd729a,69b92f3c50b332c5606e0569,0.0713,0.0714,0,48,48,82,1,sixfive,,,,,,,,,,,,,,,,,,,,,,,,,,,,,,,,,,,,,,,,,,,,,,,,,,,,,,,,,,,,,,,,,,,,,,,,,,,,,,,,,,,,,,,,,,,,,,,,,,,,,,,,,,,,,,,,,,,,,,,,,,,,,,,,,,,,,,,,,
,,6112810f76d46087c3e2d208,2026-03-17_12h39.30.750,kallum_motion_pilot_GIST_update_2,2026.1.1,Win32,59.52380952,6112810f76d46087c3e2d208,69b92ab4aef6dee357cd729a,69b92f3c50b332c5606e0569,0.0717,0.0717,0,49,49,53,1,threefour,,,,,,,,,,,,,,,,,,,,,,,,,,,,,,,,,,,,,,,,,,,,,,,,,,,,,,,,,,,,,,,,,,,,,,,,,,,,,,,,,,,,,,,,,,,,,,,,,,,,,,,,,,,,,,,,,,,,,,,,,,,,,,,,,,,,,,,,,
,,6112810f76d46087c3e2d208,2026-03-17_12h39.30.750,kallum_motion_pilot_GIST_update_2,2026.1.1,Win32,59.52380952,6112810f76d46087c3e2d208,69b92ab4aef6dee357cd729a,69b92f3c50b332c5606e0569,0.072,0.072,0,50,50,123,1,sixeight,,,,,,,,,,,,,,,,,,,,,,,,,,,,,,,,,,,,,,,,,,,,,,,,,,,,,,,,,,,,,,,,,,,,,,,,,,,,,,,,,,,,,,,,,,,,,,,,,,,,,,,,,,,,,,,,,,,,,,,,,,,,,,,,,,,,,,,,,
,,6112810f76d46087c3e2d208,2026-03-17_12h39.30.750,kallum_motion_pilot_GIST_update_2,2026.1.1,Win32,59.52380952,6112810f76d46087c3e2d208,69b92ab4aef6dee357cd729a,69b92f3c50b332c5606e0569,0.0722,0.0722,0,51,51,21,1,threefour,,,,,,,,,,,,,,,,,,,,,,,,,,,,,,,,,,,,,,,,,,,,,,,,,,,,,,,,,,,,,,,,,,,,,,,,,,,,,,,,,,,,,,,,,,,,,,,,,,,,,,,,,,,,,,,,,,,,,,,,,,,,,,,,,,,,,,,,,
,,6112810f76d46087c3e2d208,2026-03-17_12h39.30.750,kallum_motion_pilot_GIST_update_2,2026.1.1,Win32,59.52380952,6112810f76d46087c3e2d208,69b92ab4aef6dee357cd729a,69b92f3c50b332c5606e0569,0.0725,0.0725,0,52,52,93,1,seveneight,,,,,,,,,,,,,,,,,,,,,,,,,,,,,,,,,,,,,,,,,,,,,,,,,,,,,,,,,,,,,,,,,,,,,,,,,,,,,,,,,,,,,,,,,,,,,,,,,,,,,,,,,,,,,,,,,,,,,,,,,,,,,,,,,,,,,,,,,
,,6112810f76d46087c3e2d208,2026-03-17_12h39.30.750,kallum_motion_pilot_GIST_update_2,2026.1.1,Win32,59.52380952,6112810f76d46087c3e2d208,69b92ab4aef6dee357cd729a,69b92f3c50b332c5606e0569,0.0727,0.0727,0,53,53,140,1,sevenfive,,,,,,,,,,,,,,,,,,,,,,,,,,,,,,,,,,,,,,,,,,,,,,,,,,,,,,,,,,,,,,,,,,,,,,,,,,,,,,,,,,,,,,,,,,,,,,,,,,,,,,,,,,,,,,,,,,,,,,,,,,,,,,,,,,,,,,,,,
,,6112810f76d46087c3e2d208,2026-03-17_12h39.30.750,kallum_motion_pilot_GIST_update_2,2026.1.1,Win32,59.52380952,6112810f76d46087c3e2d208,69b92ab4aef6dee357cd729a,69b92f3c50b332c5606e0569,0.0729,0.0729,0,54,54,155,1,sixeight,,,,,,,,,,,,,,,,,,,,,,,,,,,,,,,,,,,,,,,,,,,,,,,,,,,,,,,,,,,,,,,,,,,,,,,,,,,,,,,,,,,,,,,,,,,,,,,,,,,,,,,,,,,,,,,,,,,,,,,,,,,,,,,,,,,,,,,,,
,,6112810f76d46087c3e2d208,2026-03-17_12h39.30.750,kallum_motion_pilot_GIST_update_2,2026.1.1,Win32,59.52380952,6112810f76d46087c3e2d208,69b92ab4aef6dee357cd729a,69b92f3c50b332c5606e0569,0.0731,0.0731,0,55,55,149,1,seveneight,,,,,,,,,,,,,,,,,,,,,,,,,,,,,,,,,,,,,,,,,,,,,,,,,,,,,,,,,,,,,,,,,,,,,,,,,,,,,,,,,,,,,,,,,,,,,,,,,,,,,,,,,,,,,,,,,,,,,,,,,,,,,,,,,,,,,,,,,
,,6112810f76d46087c3e2d208,2026-03-17_12h39.30.750,kallum_motion_pilot_GIST_update_2,2026.1.1,Win32,59.52380952,6112810f76d46087c3e2d208,69b92ab4aef6dee357cd729a,69b92f3c50b332c5606e0569,0.0734,0.0734,0,56,56,56,1,onetwo,,,,,,,,,,,,,,,,,,,,,,,,,,,,,,,,,,,,,,,,,,,,,,,,,,,,,,,,,,,,,,,,,,,,,,,,,,,,,,,,,,,,,,,,,,,,,,,,,,,,,,,,,,,,,,,,,,,,,,,,,,,,,,,,,,,,,,,,,
,,6112810f76d46087c3e2d208,2026-03-17_12h39.30.750,kallum_motion_pilot_GIST_update_2,2026.1.1,Win32,59.52380952,6112810f76d46087c3e2d208,69b92ab4aef6dee357cd729a,69b92f3c50b332c5606e0569,0.0736,0.0736,0,57,57,22,1,fourtwo,,,,,,,,,,,,,,,,,,,,,,,,,,,,,,,,,,,,,,,,,,,,,,,,,,,,,,,,,,,,,,,,,,,,,,,,,,,,,,,,,,,,,,,,,,,,,,,,,,,,,,,,,,,,,,,,,,,,,,,,,,,,,,,,,,,,,,,,,
,,6112810f76d46087c3e2d208,2026-03-17_12h39.30.750,kallum_motion_pilot_GIST_update_2,2026.1.1,Win32,59.52380952,6112810f76d46087c3e2d208,69b92ab4aef6dee357cd729a,69b92f3c50b332c5606e0569,0.0737,0.0737,0,58,58,20,1,threeone,,,,,,,,,,,,,,,,,,,,,,,,,,,,,,,,,,,,,,,,,,,,,,,,,,,,,,,,,,,,,,,,,,,,,,,,,,,,,,,,,,,,,,,,,,,,,,,,,,,,,,,,,,,,,,,,,,,,,,,,,,,,,,,,,,,,,,,,,
,,6112810f76d46087c3e2d208,2026-03-17_12h39.30.750,kallum_motion_pilot_GIST_update_2,2026.1.1,Win32,59.52380952,6112810f76d46087c3e2d208,69b92ab4aef6dee357cd729a,69b92f3c50b332c5606e0569,0.074,0.074,0,59,59,98,1,sixfive,,,,,,,,,,,,,,,,,,,,,,,,,,,,,,,,,,,,,,,,,,,,,,,,,,,,,,,,,,,,,,,,,,,,,,,,,,,,,,,,,,,,,,,,,,,,,,,,,,,,,,,,,,,,,,,,,,,,,,,,,,,,,,,,,,,,,,,,,
,,6112810f76d46087c3e2d208,2026-03-17_12h39.30.750,kallum_motion_pilot_GIST_update_2,2026.1.1,Win32,59.52380952,6112810f76d46087c3e2d208,69b92ab4aef6dee357cd729a,69b92f3c50b332c5606e0569,0.0742,0.0742,0,60,60,148,1,sevenfive,,,,,,,,,,,,,,,,,,,,,,,,,,,,,,,,,,,,,,,,,,,,,,,,,,,,,,,,,,,,,,,,,,,,,,,,,,,,,,,,,,,,,,,,,,,,,,,,,,,,,,,,,,,,,,,,,,,,,,,,,,,,,,,,,,,,,,,,,
,,6112810f76d46087c3e2d208,2026-03-17_12h39.30.750,kallum_motion_pilot_GIST_update_2,2026.1.1,Win32,59.52380952,6112810f76d46087c3e2d208,69b92ab4aef6dee357cd729a,69b92f3c50b332c5606e0569,0.0745,0.0745,0,61,61,62,1,fourtwo,,,,,,,,,,,,,,,,,,,,,,,,,,,,,,,,,,,,,,,,,,,,,,,,,,,,,,,,,,,,,,,,,,,,,,,,,,,,,,,,,,,,,,,,,,,,,,,,,,,,,,,,,,,,,,,,,,,,,,,,,,,,,,,,,,,,,,,,,
,,6112810f76d46087c3e2d208,2026-03-17_12h39.30.750,kallum_motion_pilot_GIST_update_2,2026.1.1,Win32,59.52380952,6112810f76d46087c3e2d208,69b92ab4aef6dee357cd729a,69b92f3c50b332c5606e0569,0.0746,0.0746,0,62,62,1,1,onethree,,,,,,,,,,,,,,,,,,,,,,,,,,,,,,,,,,,,,,,,,,,,,,,,,,,,,,,,,,,,,,,,,,,,,,,,,,,,,,,,,,,,,,,,,,,,,,,,,,,,,,,,,,,,,,,,,,,,,,,,,,,,,,,,,,,,,,,,,
,,6112810f76d46087c3e2d208,2026-03-17_12h39.30.750,kallum_motion_pilot_GIST_update_2,2026.1.1,Win32,59.52380952,6112810f76d46087c3e2d208,69b92ab4aef6dee357cd729a,69b92f3c50b332c5606e0569,0.075,0.075,0,63,63,91,1,sixeight,,,,,,,,,,,,,,,,,,,,,,,,,,,,,,,,,,,,,,,,,,,,,,,,,,,,,,,,,,,,,,,,,,,,,,,,,,,,,,,,,,,,,,,,,,,,,,,,,,,,,,,,,,,,,,,,,,,,,,,,,,,,,,,,,,,,,,,,,
,,6112810f76d46087c3e2d208,2026-03-17_12h39.30.750,kallum_motion_pilot_GIST_update_2,2026.1.1,Win32,59.52380952,6112810f76d46087c3e2d208,69b92ab4aef6dee357cd729a,69b92f3c50b332c5606e0569,0.0752,0.0752,0,64,64,66,1,twoone,,,,,,,,,,,,,,,,,,,,,,,,,,,,,,,,,,,,,,,,,,,,,,,,,,,,,,,,,,,,,,,,,,,,,,,,,,,,,,,,,,,,,,,,,,,,,,,,,,,,,,,,,,,,,,,,,,,,,,,,,,,,,,,,,,,,,,,,,
,,6112810f76d46087c3e2d208,2026-03-17_12h39.30.750,kallum_motion_pilot_GIST_update_2,2026.1.1,Win32,59.52380952,6112810f76d46087c3e2d208,69b92ab4aef6dee357cd729a,69b92f3c50b332c5606e0569,0.0755,0.0755,0,65,65,134,1,eightsix,,,,,,,,,,,,,,,,,,,,,,,,,,,,,,,,,,,,,,,,,,,,,,,,,,,,,,,,,,,,,,,,,,,,,,,,,,,,,,,,,,,,,,,,,,,,,,,,,,,,,,,,,,,,,,,,,,,,,,,,,,,,,,,,,,,,,,,,,
,,6112810f76d46087c3e2d208,2026-03-17_12h39.30.750,kallum_motion_pilot_GIST_update_2,2026.1.1,Win32,59.52380952,6112810f76d46087c3e2d208,69b92ab4aef6dee357cd729a,69b92f3c50b332c5606e0569,0.0757,0.0757,0,66,66,71,1,fourthree,,,,,,,,,,,,,,,,,,,,,,,,,,,,,,,,,,,,,,,,,,,,,,,,,,,,,,,,,,,,,,,,,,,,,,,,,,,,,,,,,,,,,,,,,,,,,,,,,,,,,,,,,,,,,,,,,,,,,,,,,,,,,,,,,,,,,,,,,
,,6112810f76d46087c3e2d208,2026-03-17_12h39.30.750,kallum_motion_pilot_GIST_update_2,2026.1.1,Win32,59.52380952,6112810f76d46087c3e2d208,69b92ab4aef6dee357cd729a,69b92f3c50b332c5606e0569,0.0761,0.0761,0,67,67,136,1,fivesix,,,,,,,,,,,,,,,,,,,,,,,,,,,,,,,,,,,,,,,,,,,,,,,,,,,,,,,,,,,,,,,,,,,,,,,,,,,,,,,,,,,,,,,,,,,,,,,,,,,,,,,,,,,,,,,,,,,,,,,,,,,,,,,,,,,,,,,,,
,,6112810f76d46087c3e2d208,2026-03-17_12h39.30.750,kallum_motion_pilot_GIST_update_2,2026.1.1,Win32,59.52380952,6112810f76d46087c3e2d208,69b92ab4aef6dee357cd729a,69b92f3c50b332c5606e0569,0.0764,0.0764,0,68,68,144,1,fivesix,,,,,,,,,,,,,,,,,,,,,,,,,,,,,,,,,,,,,,,,,,,,,,,,,,,,,,,,,,,,,,,,,,,,,,,,,,,,,,,,,,,,,,,,,,,,,,,,,,,,,,,,,,,,,,,,,,,,,,,,,,,,,,,,,,,,,,,,,
,,6112810f76d46087c3e2d208,2026-03-17_12h39.30.750,kallum_motion_pilot_GIST_update_2,2026.1.1,Win32,59.52380952,6112810f76d46087c3e2d208,69b92ab4aef6dee357cd729a,69b92f3c50b332c5606e0569,0.0766,0.0766,0,69,69,43,1,twofour,,,,,,,,,,,,,,,,,,,,,,,,,,,,,,,,,,,,,,,,,,,,,,,,,,,,,,,,,,,,,,,,,,,,,,,,,,,,,,,,,,,,,,,,,,,,,,,,,,,,,,,,,,,,,,,,,,,,,,,,,,,,,,,,,,,,,,,,,
,,6112810f76d46087c3e2d208,2026-03-17_12h39.30.750,kallum_motion_pilot_GIST_update_2,2026.1.1,Win32,59.52380952,6112810f76d46087c3e2d208,69b92ab4aef6dee357cd729a,69b92f3c50b332c5606e0569,0.077,0.0771,0,70,70,160,1,fivesix,,,,,,,,,,,,,,,,,,,,,,,,,,,,,,,,,,,,,,,,,,,,,,,,,,,,,,,,,,,,,,,,,,,,,,,,,,,,,,,,,,,,,,,,,,,,,,,,,,,,,,,,,,,,,,,,,,,,,,,,,,,,,,,,,,,,,,,,,
,,6112810f76d46087c3e2d208,2026-03-17_12h39.30.750,kallum_motion_pilot_GIST_update_2,2026.1.1,Win32,59.52380952,6112810f76d46087c3e2d208,69b92ab4aef6dee357cd729a,69b92f3c50b332c5606e0569,0.0773,0.0773,0,71,71,35,1,twofour,,,,,,,,,,,,,,,,,,,,,,,,,,,,,,,,,,,,,,,,,,,,,,,,,,,,,,,,,,,,,,,,,,,,,,,,,,,,,,,,,,,,,,,,,,,,,,,,,,,,,,,,,,,,,,,,,,,,,,,,,,,,,,,,,,,,,,,,,
,,6112810f76d46087c3e2d208,2026-03-17_12h39.30.750,kallum_motion_pilot_GIST_update_2,2026.1.1,Win32,59.52380952,6112810f76d46087c3e2d208,69b92ab4aef6dee357cd729a,69b92f3c50b332c5606e0569,0.0776,0.0776,0,72,72,44,1,threeone,,,,,,,,,,,,,,,,,,,,,,,,,,,,,,,,,,,,,,,,,,,,,,,,,,,,,,,,,,,,,,,,,,,,,,,,,,,,,,,,,,,,,,,,,,,,,,,,,,,,,,,,,,,,,,,,,,,,,,,,,,,,,,,,,,,,,,,,,
,,6112810f76d46087c3e2d208,2026-03-17_12h39.30.750,kallum_motion_pilot_GIST_update_2,2026.1.1,Win32,59.52380952,6112810f76d46087c3e2d208,69b92ab4aef6dee357cd729a,69b92f3c50b332c5606e0569,0.0778,0.0778,0,73,73,6,1,fourtwo,,,,,,,,,,,,,,,,,,,,,,,,,,,,,,,,,,,,,,,,,,,,,,,,,,,,,,,,,,,,,,,,,,,,,,,,,,,,,,,,,,,,,,,,,,,,,,,,,,,,,,,,,,,,,,,,,,,,,,,,,,,,,,,,,,,,,,,,,
,,6112810f76d46087c3e2d208,2026-03-17_12h39.30.750,kallum_motion_pilot_GIST_update_2,2026.1.1,Win32,59.52380952,6112810f76d46087c3e2d208,69b92ab4aef6dee357cd729a,69b92f3c50b332c5606e0569,0.0781,0.0781,0,74,74,78,1,fourtwo,,,,,,,,,,,,,,,,,,,,,,,,,,,,,,,,,,,,,,,,,,,,,,,,,,,,,,,,,,,,,,,,,,,,,,,,,,,,,,,,,,,,,,,,,,,,,,,,,,,,,,,,,,,,,,,,,,,,,,,,,,,,,,,,,,,,,,,,,
,,6112810f76d46087c3e2d208,2026-03-17_12h39.30.750,kallum_motion_pilot_GIST_update_2,2026.1.1,Win32,59.52380952,6112810f76d46087c3e2d208,69b92ab4aef6dee357cd729a,69b92f3c50b332c5606e0569,0.0786,0.0786,0,75,75,30,1,fourtwo,,,,,,,,,,,,,,,,,,,,,,,,,,,,,,,,,,,,,,,,,,,,,,,,,,,,,,,,,,,,,,,,,,,,,,,,,,,,,,,,,,,,,,,,,,,,,,,,,,,,,,,,,,,,,,,,,,,,,,,,,,,,,,,,,,,,,,,,,
,,6112810f76d46087c3e2d208,2026-03-17_12h39.30.750,kallum_motion_pilot_GIST_update_2,2026.1.1,Win32,59.52380952,6112810f76d46087c3e2d208,69b92ab4aef6dee357cd729a,69b92f3c50b332c5606e0569,0.079,0.0791,0,76,76,124,1,sevenfive,,,,,,,,,,,,,,,,,,,,,,,,,,,,,,,,,,,,,,,,,,,,,,,,,,,,,,,,,,,,,,,,,,,,,,,,,,,,,,,,,,,,,,,,,,,,,,,,,,,,,,,,,,,,,,,,,,,,,,,,,,,,,,,,,,,,,,,,,
,,6112810f76d46087c3e2d208,2026-03-17_12h39.30.750,kallum_motion_pilot_GIST_update_2,2026.1.1,Win32,59.52380952,6112810f76d46087c3e2d208,69b92ab4aef6dee357cd729a,69b92f3c50b332c5606e0569,0.0795,0.0795,0,77,77,109,1,seveneight,,,,,,,,,,,,,,,,,,,,,,,,,,,,,,,,,,,,,,,,,,,,,,,,,,,,,,,,,,,,,,,,,,,,,,,,,,,,,,,,,,,,,,,,,,,,,,,,,,,,,,,,,,,,,,,,,,,,,,,,,,,,,,,,,,,,,,,,,
,,6112810f76d46087c3e2d208,2026-03-17_12h39.30.750,kallum_motion_pilot_GIST_update_2,2026.1.1,Win32,59.52380952,6112810f76d46087c3e2d208,69b92ab4aef6dee357cd729a,69b92f3c50b332c5606e0569,0.0798,0.0799,0,78,78,72,1,onetwo,,,,,,,,,,,,,,,,,,,,,,,,,,,,,,,,,,,,,,,,,,,,,,,,,,,,,,,,,,,,,,,,,,,,,,,,,,,,,,,,,,,,,,,,,,,,,,,,,,,,,,,,,,,,,,,,,,,,,,,,,,,,,,,,,,,,,,,,,
,,6112810f76d46087c3e2d208,2026-03-17_12h39.30.750,kallum_motion_pilot_GIST_update_2,2026.1.1,Win32,59.52380952,6112810f76d46087c3e2d208,69b92ab4aef6dee357cd729a,69b92f3c50b332c5606e0569,0.0802,0.0802,0,79,79,70,1,fourtwo,,,,,,,,,,,,,,,,,,,,,,,,,,,,,,,,,,,,,,,,,,,,,,,,,,,,,,,,,,,,,,,,,,,,,,,,,,,,,,,,,,,,,,,,,,,,,,,,,,,,,,,,,,,,,,,,,,,,,,,,,,,,,,,,,,,,,,,,,
,,6112810f76d46087c3e2d208,2026-03-17_12h39.30.750,kallum_motion_pilot_GIST_update_2,2026.1.1,Win32,59.52380952,6112810f76d46087c3e2d208,69b92ab4aef6dee357cd729a,69b92f3c50b332c5606e0569,0.0805,0.0805,0,80,80,60,1,threeone,,,,,,,,,,,,,,,,,,,,,,,,,,,,,,,,,,,,,,,,,,,,,,,,,,,,,,,,,,,,,,,,,,,,,,,,,,,,,,,,,,,,,,,,,,,,,,,,,,,,,,,,,,,,,,,,,,,,,,,,,,,,,,,,,,,,,,,,,
,,6112810f76d46087c3e2d208,2026-03-17_12h39.30.750,kallum_motion_pilot_GIST_update_2,2026.1.1,Win32,59.52380952,6112810f76d46087c3e2d208,69b92ab4aef6dee357cd729a,69b92f3c50b332c5606e0569,0.0809,0.0809,0,81,81,95,1,eightseven,,,,,,,,,,,,,,,,,,,,,,,,,,,,,,,,,,,,,,,,,,,,,,,,,,,,,,,,,,,,,,,,,,,,,,,,,,,,,,,,,,,,,,,,,,,,,,,,,,,,,,,,,,,,,,,,,,,,,,,,,,,,,,,,,,,,,,,,,
,,6112810f76d46087c3e2d208,2026-03-17_12h39.30.750,kallum_motion_pilot_GIST_update_2,2026.1.1,Win32,59.52380952,6112810f76d46087c3e2d208,69b92ab4aef6dee357cd729a,69b92f3c50b332c5606e0569,0.0812,0.0812,0,82,82,115,1,sixeight,,,,,,,,,,,,,,,,,,,,,,,,,,,,,,,,,,,,,,,,,,,,,,,,,,,,,,,,,,,,,,,,,,,,,,,,,,,,,,,,,,,,,,,,,,,,,,,,,,,,,,,,,,,,,,,,,,,,,,,,,,,,,,,,,,,,,,,,,
,,6112810f76d46087c3e2d208,2026-03-17_12h39.30.750,kallum_motion_pilot_GIST_update_2,2026.1.1,Win32,59.52380952,6112810f76d46087c3e2d208,69b92ab4aef6dee357cd729a,69b92f3c50b332c5606e0569,0.0814,0.0814,0,83,83,16,1,onetwo,,,,,,,,,,,,,,,,,,,,,,,,,,,,,,,,,,,,,,,,,,,,,,,,,,,,,,,,,,,,,,,,,,,,,,,,,,,,,,,,,,,,,,,,,,,,,,,,,,,,,,,,,,,,,,,,,,,,,,,,,,,,,,,,,,,,,,,,,
,,6112810f76d46087c3e2d208,2026-03-17_12h39.30.750,kallum_motion_pilot_GIST_update_2,2026.1.1,Win32,59.52380952,6112810f76d46087c3e2d208,69b92ab4aef6dee357cd729a,69b92f3c50b332c5606e0569,0.0817,0.0817,0,84,84,79,1,eightseven,,,,,,,,,,,,,,,,,,,,,,,,,,,,,,,,,,,,,,,,,,,,,,,,,,,,,,,,,,,,,,,,,,,,,,,,,,,,,,,,,,,,,,,,,,,,,,,,,,,,,,,,,,,,,,,,,,,,,,,,,,,,,,,,,,,,,,,,,
,,6112810f76d46087c3e2d208,2026-03-17_12h39.30.750,kallum_motion_pilot_GIST_update_2,2026.1.1,Win32,59.52380952,6112810f76d46087c3e2d208,69b92ab4aef6dee357cd729a,69b92f3c50b332c5606e0569,0.082,0.082,0,85,85,19,1,twofour,,,,,,,,,,,,,,,,,,,,,,,,,,,,,,,,,,,,,,,,,,,,,,,,,,,,,,,,,,,,,,,,,,,,,,,,,,,,,,,,,,,,,,,,,,,,,,,,,,,,,,,,,,,,,,,,,,,,,,,,,,,,,,,,,,,,,,,,,
,,6112810f76d46087c3e2d208,2026-03-17_12h39.30.750,kallum_motion_pilot_GIST_update_2,2026.1.1,Win32,59.52380952,6112810f76d46087c3e2d208,69b92ab4aef6dee357cd729a,69b92f3c50b332c5606e0569,0.0823,0.0823,0,86,86,37,1,threefour,,,,,,,,,,,,,,,,,,,,,,,,,,,,,,,,,,,,,,,,,,,,,,,,,,,,,,,,,,,,,,,,,,,,,,,,,,,,,,,,,,,,,,,,,,,,,,,,,,,,,,,,,,,,,,,,,,,,,,,,,,,,,,,,,,,,,,,,,
,,6112810f76d46087c3e2d208,2026-03-17_12h39.30.750,kallum_motion_pilot_GIST_update_2,2026.1.1,Win32,59.52380952,6112810f76d46087c3e2d208,69b92ab4aef6dee357cd729a,69b92f3c50b332c5606e0569,0.0825,0.0826,0,87,87,130,1,sixfive,,,,,,,,,,,,,,,,,,,,,,,,,,,,,,,,,,,,,,,,,,,,,,,,,,,,,,,,,,,,,,,,,,,,,,,,,,,,,,,,,,,,,,,,,,,,,,,,,,,,,,,,,,,,,,,,,,,,,,,,,,,,,,,,,,,,,,,,,
,,6112810f76d46087c3e2d208,2026-03-17_12h39.30.750,kallum_motion_pilot_GIST_update_2,2026.1.1,Win32,59.52380952,6112810f76d46087c3e2d208,69b92ab4aef6dee357cd729a,69b92f3c50b332c5606e0569,0.0828,0.0828,0,88,88,85,1,seveneight,,,,,,,,,,,,,,,,,,,,,,,,,,,,,,,,,,,,,,,,,,,,,,,,,,,,,,,,,,,,,,,,,,,,,,,,,,,,,,,,,,,,,,,,,,,,,,,,,,,,,,,,,,,,,,,,,,,,,,,,,,,,,,,,,,,,,,,,,
,,6112810f76d46087c3e2d208,2026-03-17_12h39.30.750,kallum_motion_pilot_GIST_update_2,2026.1.1,Win32,59.52380952,6112810f76d46087c3e2d208,69b92ab4aef6dee357cd729a,69b92f3c50b332c5606e0569,0.0832,0.0832,0,89,89,75,1,twofour,,,,,,,,,,,,,,,,,,,,,,,,,,,,,,,,,,,,,,,,,,,,,,,,,,,,,,,,,,,,,,,,,,,,,,,,,,,,,,,,,,,,,,,,,,,,,,,,,,,,,,,,,,,,,,,,,,,,,,,,,,,,,,,,,,,,,,,,,
,,6112810f76d46087c3e2d208,2026-03-17_12h39.30.750,kallum_motion_pilot_GIST_update_2,2026.1.1,Win32,59.52380952,6112810f76d46087c3e2d208,69b92ab4aef6dee357cd729a,69b92f3c50b332c5606e0569,0.0834,0.0834,0,90,90,7,1,fourthree,,,,,,,,,,,,,,,,,,,,,,,,,,,,,,,,,,,,,,,,,,,,,,,,,,,,,,,,,,,,,,,,,,,,,,,,,,,,,,,,,,,,,,,,,,,,,,,,,,,,,,,,,,,,,,,,,,,,,,,,,,,,,,,,,,,,,,,,,
,,6112810f76d46087c3e2d208,2026-03-17_12h39.30.750,kallum_motion_pilot_GIST_update_2,2026.1.1,Win32,59.52380952,6112810f76d46087c3e2d208,69b92ab4aef6dee357cd729a,69b92f3c50b332c5606e0569,0.0837,0.0837,0,91,91,68,1,threeone,,,,,,,,,,,,,,,,,,,,,,,,,,,,,,,,,,,,,,,,,,,,,,,,,,,,,,,,,,,,,,,,,,,,,,,,,,,,,,,,,,,,,,,,,,,,,,,,,,,,,,,,,,,,,,,,,,,,,,,,,,,,,,,,,,,,,,,,,
,,6112810f76d46087c3e2d208,2026-03-17_12h39.30.750,kallum_motion_pilot_GIST_update_2,2026.1.1,Win32,59.52380952,6112810f76d46087c3e2d208,69b92ab4aef6dee357cd729a,69b92f3c50b332c5606e0569,0.084,0.084,0,92,92,11,1,twofour,,,,,,,,,,,,,,,,,,,,,,,,,,,,,,,,,,,,,,,,,,,,,,,,,,,,,,,,,,,,,,,,,,,,,,,,,,,,,,,,,,,,,,,,,,,,,,,,,,,,,,,,,,,,,,,,,,,,,,,,,,,,,,,,,,,,,,,,,
,,6112810f76d46087c3e2d208,2026-03-17_12h39.30.750,kallum_motion_pilot_GIST_update_2,2026.1.1,Win32,59.52380952,6112810f76d46087c3e2d208,69b92ab4aef6dee357cd729a,69b92f3c50b332c5606e0569,0.0843,0.0843,0,93,93,59,1,twofour,,,,,,,,,,,,,,,,,,,,,,,,,,,,,,,,,,,,,,,,,,,,,,,,,,,,,,,,,,,,,,,,,,,,,,,,,,,,,,,,,,,,,,,,,,,,,,,,,,,,,,,,,,,,,,,,,,,,,,,,,,,,,,,,,,,,,,,,,
,,6112810f76d46087c3e2d208,2026-03-17_12h39.30.750,kallum_motion_pilot_GIST_update_2,2026.1.1,Win32,59.52380952,6112810f76d46087c3e2d208,69b92ab4aef6dee357cd729a,69b92f3c50b332c5606e0569,0.0845,0.0845,0,94,94,28,1,threeone,,,,,,,,,,,,,,,,,,,,,,,,,,,,,,,,,,,,,,,,,,,,,,,,,,,,,,,,,,,,,,,,,,,,,,,,,,,,,,,,,,,,,,,,,,,,,,,,,,,,,,,,,,,,,,,,,,,,,,,,,,,,,,,,,,,,,,,,,
,,6112810f76d46087c3e2d208,2026-03-17_12h39.30.750,kallum_motion_pilot_GIST_update_2,2026.1.1,Win32,59.52380952,6112810f76d46087c3e2d208,69b92ab4aef6dee357cd729a,69b92f3c50b332c5606e0569,0.0848,0.0848,0,95,95,12,1,threeone,,,,,,,,,,,,,,,,,,,,,,,,,,,,,,,,,,,,,,,,,,,,,,,,,,,,,,,,,,,,,,,,,,,,,,,,,,,,,,,,,,,,,,,,,,,,,,,,,,,,,,,,,,,,,,,,,,,,,,,,,,,,,,,,,,,,,,,,,
,,6112810f76d46087c3e2d208,2026-03-17_12h39.30.750,kallum_motion_pilot_GIST_update_2,2026.1.1,Win32,59.52380952,6112810f76d46087c3e2d208,69b92ab4aef6dee357cd729a,69b92f3c50b332c5606e0569,0.0851,0.0851,0,96,96,10,1,twoone,,,,,,,,,,,,,,,,,,,,,,,,,,,,,,,,,,,,,,,,,,,,,,,,,,,,,,,,,,,,,,,,,,,,,,,,,,,,,,,,,,,,,,,,,,,,,,,,,,,,,,,,,,,,,,,,,,,,,,,,,,,,,,,,,,,,,,,,,
,,6112810f76d46087c3e2d208,2026-03-17_12h39.30.750,kallum_motion_pilot_GIST_update_2,2026.1.1,Win32,59.52380952,6112810f76d46087c3e2d208,69b92ab4aef6dee357cd729a,69b92f3c50b332c5606e0569,0.0853,0.0853,0,97,97,119,1,eightseven,,,,,,,,,,,,,,,,,,,,,,,,,,,,,,,,,,,,,,,,,,,,,,,,,,,,,,,,,,,,,,,,,,,,,,,,,,,,,,,,,,,,,,,,,,,,,,,,,,,,,,,,,,,,,,,,,,,,,,,,,,,,,,,,,,,,,,,,,
,,6112810f76d46087c3e2d208,2026-03-17_12h39.30.750,kallum_motion_pilot_GIST_update_2,2026.1.1,Win32,59.52380952,6112810f76d46087c3e2d208,69b92ab4aef6dee357cd729a,69b92f3c50b332c5606e0569,0.0856,0.0856,0,98,98,36,1,threeone,,,,,,,,,,,,,,,,,,,,,,,,,,,,,,,,,,,,,,,,,,,,,,,,,,,,,,,,,,,,,,,,,,,,,,,,,,,,,,,,,,,,,,,,,,,,,,,,,,,,,,,,,,,,,,,,,,,,,,,,,,,,,,,,,,,,,,,,,
,,6112810f76d46087c3e2d208,2026-03-17_12h39.30.750,kallum_motion_pilot_GIST_update_2,2026.1.1,Win32,59.52380952,6112810f76d46087c3e2d208,69b92ab4aef6dee357cd729a,69b92f3c50b332c5606e0569,0.0859,0.0859,0,99,99,120,1,fivesix,,,,,,,,,,,,,,,,,,,,,,,,,,,,,,,,,,,,,,,,,,,,,,,,,,,,,,,,,,,,,,,,,,,,,,,,,,,,,,,,,,,,,,,,,,,,,,,,,,,,,,,,,,,,,,,,,,,,,,,,,,,,,,,,,,,,,,,,,
,,6112810f76d46087c3e2d208,2026-03-17_12h39.30.750,kallum_motion_pilot_GIST_update_2,2026.1.1,Win32,59.52380952,6112810f76d46087c3e2d208,69b92ab4aef6dee357cd729a,69b92f3c50b332c5606e0569,0.0862,0.0862,0,100,100,73,1,onethree,,,,,,,,,,,,,,,,,,,,,,,,,,,,,,,,,,,,,,,,,,,,,,,,,,,,,,,,,,,,,,,,,,,,,,,,,,,,,,,,,,,,,,,,,,,,,,,,,,,,,,,,,,,,,,,,,,,,,,,,,,,,,,,,,,,,,,,,,
,,6112810f76d46087c3e2d208,2026-03-17_12h39.30.750,kallum_motion_pilot_GIST_update_2,2026.1.1,Win32,59.52380952,6112810f76d46087c3e2d208,69b92ab4aef6dee357cd729a,69b92f3c50b332c5606e0569,0.0864,0.0864,0,101,101,132,1,sevenfive,,,,,,,,,,,,,,,,,,,,,,,,,,,,,,,,,,,,,,,,,,,,,,,,,,,,,,,,,,,,,,,,,,,,,,,,,,,,,,,,,,,,,,,,,,,,,,,,,,,,,,,,,,,,,,,,,,,,,,,,,,,,,,,,,,,,,,,,,
,,6112810f76d46087c3e2d208,2026-03-17_12h39.30.750,kallum_motion_pilot_GIST_update_2,2026.1.1,Win32,59.52380952,6112810f76d46087c3e2d208,69b92ab4aef6dee357cd729a,69b92f3c50b332c5606e0569,0.0867,0.0867,0,102,102,39,1,fourthree,,,,,,,,,,,,,,,,,,,,,,,,,,,,,,,,,,,,,,,,,,,,,,,,,,,,,,,,,,,,,,,,,,,,,,,,,,,,,,,,,,,,,,,,,,,,,,,,,,,,,,,,,,,,,,,,,,,,,,,,,,,,,,,,,,,,,,,,,
,,6112810f76d46087c3e2d208,2026-03-17_12h39.30.750,kallum_motion_pilot_GIST_update_2,2026.1.1,Win32,59.52380952,6112810f76d46087c3e2d208,69b92ab4aef6dee357cd729a,69b92f3c50b332c5606e0569,0.0869,0.0869,0,103,103,83,1,sixeight,,,,,,,,,,,,,,,,,,,,,,,,,,,,,,,,,,,,,,,,,,,,,,,,,,,,,,,,,,,,,,,,,,,,,,,,,,,,,,,,,,,,,,,,,,,,,,,,,,,,,,,,,,,,,,,,,,,,,,,,,,,,,,,,,,,,,,,,,
,,6112810f76d46087c3e2d208,2026-03-17_12h39.30.750,kallum_motion_pilot_GIST_update_2,2026.1.1,Win32,59.52380952,6112810f76d46087c3e2d208,69b92ab4aef6dee357cd729a,69b92f3c50b332c5606e0569,0.0871,0.0871,0,104,104,38,1,fourtwo,,,,,,,,,,,,,,,,,,,,,,,,,,,,,,,,,,,,,,,,,,,,,,,,,,,,,,,,,,,,,,,,,,,,,,,,,,,,,,,,,,,,,,,,,,,,,,,,,,,,,,,,,,,,,,,,,,,,,,,,,,,,,,,,,,,,,,,,,
,,6112810f76d46087c3e2d208,2026-03-17_12h39.30.750,kallum_motion_pilot_GIST_update_2,2026.1.1,Win32,59.52380952,6112810f76d46087c3e2d208,69b92ab4aef6dee357cd729a,69b92f3c50b332c5606e0569,0.0874,0.0874,0,105,105,89,1,fiveseven,,,,,,,,,,,,,,,,,,,,,,,,,,,,,,,,,,,,,,,,,,,,,,,,,,,,,,,,,,,,,,,,,,,,,,,,,,,,,,,,,,,,,,,,,,,,,,,,,,,,,,,,,,,,,,,,,,,,,,,,,,,,,,,,,,,,,,,,,
,,6112810f76d46087c3e2d208,2026-03-17_12h39.30.750,kallum_motion_pilot_GIST_update_2,2026.1.1,Win32,59.52380952,6112810f76d46087c3e2d208,69b92ab4aef6dee357cd729a,69b92f3c50b332c5606e0569,0.0877,0.0877,0,106,106,76,1,threeone,,,,,,,,,,,,,,,,,,,,,,,,,,,,,,,,,,,,,,,,,,,,,,,,,,,,,,,,,,,,,,,,,,,,,,,,,,,,,,,,,,,,,,,,,,,,,,,,,,,,,,,,,,,,,,,,,,,,,,,,,,,,,,,,,,,,,,,,,
,,6112810f76d46087c3e2d208,2026-03-17_12h39.30.750,kallum_motion_pilot_GIST_update_2,2026.1.1,Win32,59.52380952,6112810f76d46087c3e2d208,69b92ab4aef6dee357cd729a,69b92f3c50b332c5606e0569,0.0879,0.0879,0,107,107,84,1,sevenfive,,,,,,,,,,,,,,,,,,,,,,,,,,,,,,,,,,,,,,,,,,,,,,,,,,,,,,,,,,,,,,,,,,,,,,,,,,,,,,,,,,,,,,,,,,,,,,,,,,,,,,,,,,,,,,,,,,,,,,,,,,,,,,,,,,,,,,,,,
,,6112810f76d46087c3e2d208,2026-03-17_12h39.30.750,kallum_motion_pilot_GIST_update_2,2026.1.1,Win32,59.52380952,6112810f76d46087c3e2d208,69b92ab4aef6dee357cd729a,69b92f3c50b332c5606e0569,0.0882,0.0883,0,108,108,40,1,onetwo,,,,,,,,,,,,,,,,,,,,,,,,,,,,,,,,,,,,,,,,,,,,,,,,,,,,,,,,,,,,,,,,,,,,,,,,,,,,,,,,,,,,,,,,,,,,,,,,,,,,,,,,,,,,,,,,,,,,,,,,,,,,,,,,,,,,,,,,,
,,6112810f76d46087c3e2d208,2026-03-17_12h39.30.750,kallum_motion_pilot_GIST_update_2,2026.1.1,Win32,59.52380952,6112810f76d46087c3e2d208,69b92ab4aef6dee357cd729a,69b92f3c50b332c5606e0569,0.0885,0.0885,0,109,109,147,1,sixeight,,,,,,,,,,,,,,,,,,,,,,,,,,,,,,,,,,,,,,,,,,,,,,,,,,,,,,,,,,,,,,,,,,,,,,,,,,,,,,,,,,,,,,,,,,,,,,,,,,,,,,,,,,,,,,,,,,,,,,,,,,,,,,,,,,,,,,,,,
,,6112810f76d46087c3e2d208,2026-03-17_12h39.30.750,kallum_motion_pilot_GIST_update_2,2026.1.1,Win32,59.52380952,6112810f76d46087c3e2d208,69b92ab4aef6dee357cd729a,69b92f3c50b332c5606e0569,0.0888,0.0888,0,110,110,50,1,twoone,,,,,,,,,,,,,,,,,,,,,,,,,,,,,,,,,,,,,,,,,,,,,,,,,,,,,,,,,,,,,,,,,,,,,,,,,,,,,,,,,,,,,,,,,,,,,,,,,,,,,,,,,,,,,,,,,,,,,,,,,,,,,,,,,,,,,,,,,
,,6112810f76d46087c3e2d208,2026-03-17_12h39.30.750,kallum_motion_pilot_GIST_update_2,2026.1.1,Win32,59.52380952,6112810f76d46087c3e2d208,69b92ab4aef6dee357cd729a,69b92f3c50b332c5606e0569,0.0891,0.0891,0,111,111,45,1,threefour,,,,,,,,,,,,,,,,,,,,,,,,,,,,,,,,,,,,,,,,,,,,,,,,,,,,,,,,,,,,,,,,,,,,,,,,,,,,,,,,,,,,,,,,,,,,,,,,,,,,,,,,,,,,,,,,,,,,,,,,,,,,,,,,,,,,,,,,,
,,6112810f76d46087c3e2d208,2026-03-17_12h39.30.750,kallum_motion_pilot_GIST_update_2,2026.1.1,Win32,59.52380952,6112810f76d46087c3e2d208,69b92ab4aef6dee357cd729a,69b92f3c50b332c5606e0569,0.0892,0.0893,0,112,112,57,1,onethree,,,,,,,,,,,,,,,,,,,,,,,,,,,,,,,,,,,,,,,,,,,,,,,,,,,,,,,,,,,,,,,,,,,,,,,,,,,,,,,,,,,,,,,,,,,,,,,,,,,,,,,,,,,,,,,,,,,,,,,,,,,,,,,,,,,,,,,,,
,,6112810f76d46087c3e2d208,2026-03-17_12h39.30.750,kallum_motion_pilot_GIST_update_2,2026.1.1,Win32,59.52380952,6112810f76d46087c3e2d208,69b92ab4aef6dee357cd729a,69b92f3c50b332c5606e0569,0.0895,0.0895,0,113,113,15,1,fourthree,,,,,,,,,,,,,,,,,,,,,,,,,,,,,,,,,,,,,,,,,,,,,,,,,,,,,,,,,,,,,,,,,,,,,,,,,,,,,,,,,,,,,,,,,,,,,,,,,,,,,,,,,,,,,,,,,,,,,,,,,,,,,,,,,,,,,,,,,
,,6112810f76d46087c3e2d208,2026-03-17_12h39.30.750,kallum_motion_pilot_GIST_update_2,2026.1.1,Win32,59.52380952,6112810f76d46087c3e2d208,69b92ab4aef6dee357cd729a,69b92f3c50b332c5606e0569,0.0898,0.0898,0,114,114,101,1,seveneight,,,,,,,,,,,,,,,,,,,,,,,,,,,,,,,,,,,,,,,,,,,,,,,,,,,,,,,,,,,,,,,,,,,,,,,,,,,,,,,,,,,,,,,,,,,,,,,,,,,,,,,,,,,,,,,,,,,,,,,,,,,,,,,,,,,,,,,,,
,,6112810f76d46087c3e2d208,2026-03-17_12h39.30.750,kallum_motion_pilot_GIST_update_2,2026.1.1,Win32,59.52380952,6112810f76d46087c3e2d208,69b92ab4aef6dee357cd729a,69b92f3c50b332c5606e0569,0.09,0.0901,0,115,115,111,1,eightseven,,,,,,,,,,,,,,,,,,,,,,,,,,,,,,,,,,,,,,,,,,,,,,,,,,,,,,,,,,,,,,,,,,,,,,,,,,,,,,,,,,,,,,,,,,,,,,,,,,,,,,,,,,,,,,,,,,,,,,,,,,,,,,,,,,,,,,,,,
,,6112810f76d46087c3e2d208,2026-03-17_12h39.30.750,kallum_motion_pilot_GIST_update_2,2026.1.1,Win32,59.52380952,6112810f76d46087c3e2d208,69b92ab4aef6dee357cd729a,69b92f3c50b332c5606e0569,0.0903,0.0903,0,116,116,2,1,twoone,,,,,,,,,,,,,,,,,,,,,,,,,,,,,,,,,,,,,,,,,,,,,,,,,,,,,,,,,,,,,,,,,,,,,,,,,,,,,,,,,,,,,,,,,,,,,,,,,,,,,,,,,,,,,,,,,,,,,,,,,,,,,,,,,,,,,,,,,
,,6112810f76d46087c3e2d208,2026-03-17_12h39.30.750,kallum_motion_pilot_GIST_update_2,2026.1.1,Win32,59.52380952,6112810f76d46087c3e2d208,69b92ab4aef6dee357cd729a,69b92f3c50b332c5606e0569,0.0906,0.0906,0,117,117,96,1,fivesix,,,,,,,,,,,,,,,,,,,,,,,,,,,,,,,,,,,,,,,,,,,,,,,,,,,,,,,,,,,,,,,,,,,,,,,,,,,,,,,,,,,,,,,,,,,,,,,,,,,,,,,,,,,,,,,,,,,,,,,,,,,,,,,,,,,,,,,,,
,,6112810f76d46087c3e2d208,2026-03-17_12h39.30.750,kallum_motion_pilot_GIST_update_2,2026.1.1,Win32,59.52380952,6112810f76d46087c3e2d208,69b92ab4aef6dee357cd729a,69b92f3c50b332c5606e0569,0.0907,0.0908,0,118,118,127,1,eightseven,,,,,,,,,,,,,,,,,,,,,,,,,,,,,,,,,,,,,,,,,,,,,,,,,,,,,,,,,,,,,,,,,,,,,,,,,,,,,,,,,,,,,,,,,,,,,,,,,,,,,,,,,,,,,,,,,,,,,,,,,,,,,,,,,,,,,,,,,
,,6112810f76d46087c3e2d208,2026-03-17_12h39.30.750,kallum_motion_pilot_GIST_update_2,2026.1.1,Win32,59.52380952,6112810f76d46087c3e2d208,69b92ab4aef6dee357cd729a,69b92f3c50b332c5606e0569,0.091,0.0911,0,119,119,55,1,fourthree,,,,,,,,,,,,,,,,,,,,,,,,,,,,,,,,,,,,,,,,,,,,,,,,,,,,,,,,,,,,,,,,,,,,,,,,,,,,,,,,,,,,,,,,,,,,,,,,,,,,,,,,,,,,,,,,,,,,,,,,,,,,,,,,,,,,,,,,,
,,6112810f76d46087c3e2d208,2026-03-17_12h39.30.750,kallum_motion_pilot_GIST_update_2,2026.1.1,Win32,59.52380952,6112810f76d46087c3e2d208,69b92ab4aef6dee357cd729a,69b92f3c50b332c5606e0569,0.0912,0.0913,0,120,120,3,1,twofour,,,,,,,,,,,,,,,,,,,,,,,,,,,,,,,,,,,,,,,,,,,,,,,,,,,,,,,,,,,,,,,,,,,,,,,,,,,,,,,,,,,,,,,,,,,,,,,,,,,,,,,,,,,,,,,,,,,,,,,,,,,,,,,,,,,,,,,,,
,,6112810f76d46087c3e2d208,2026-03-17_12h39.30.750,kallum_motion_pilot_GIST_update_2,2026.1.1,Win32,59.52380952,6112810f76d46087c3e2d208,69b92ab4aef6dee357cd729a,69b92f3c50b332c5606e0569,0.0916,0.0916,0,121,121,13,1,threefour,,,,,,,,,,,,,,,,,,,,,,,,,,,,,,,,,,,,,,,,,,,,,,,,,,,,,,,,,,,,,,,,,,,,,,,,,,,,,,,,,,,,,,,,,,,,,,,,,,,,,,,,,,,,,,,,,,,,,,,,,,,,,,,,,,,,,,,,,
,,6112810f76d46087c3e2d208,2026-03-17_12h39.30.750,kallum_motion_pilot_GIST_update_2,2026.1.1,Win32,59.52380952,6112810f76d46087c3e2d208,69b92ab4aef6dee357cd729a,69b92f3c50b332c5606e0569,0.0918,0.0918,0,122,122,8,1,onetwo,,,,,,,,,,,,,,,,,,,,,,,,,,,,,,,,,,,,,,,,,,,,,,,,,,,,,,,,,,,,,,,,,,,,,,,,,,,,,,,,,,,,,,,,,,,,,,,,,,,,,,,,,,,,,,,,,,,,,,,,,,,,,,,,,,,,,,,,,
,,6112810f76d46087c3e2d208,2026-03-17_12h39.30.750,kallum_motion_pilot_GIST_update_2,2026.1.1,Win32,59.52380952,6112810f76d46087c3e2d208,69b92ab4aef6dee357cd729a,69b92f3c50b332c5606e0569,0.0921,0.0921,0,123,123,161,1,fiveseven,,,,,,,,,,,,,,,,,,,,,,,,,,,,,,,,,,,,,,,,,,,,,,,,,,,,,,,,,,,,,,,,,,,,,,,,,,,,,,,,,,,,,,,,,,,,,,,,,,,,,,,,,,,,,,,,,,,,,,,,,,,,,,,,,,,,,,,,,
,,6112810f76d46087c3e2d208,2026-03-17_12h39.30.750,kallum_motion_pilot_GIST_update_2,2026.1.1,Win32,59.52380952,6112810f76d46087c3e2d208,69b92ab4aef6dee357cd729a,69b92f3c50b332c5606e0569,0.0925,0.0925,0,124,124,18,1,twoone,,,,,,,,,,,,,,,,,,,,,,,,,,,,,,,,,,,,,,,,,,,,,,,,,,,,,,,,,,,,,,,,,,,,,,,,,,,,,,,,,,,,,,,,,,,,,,,,,,,,,,,,,,,,,,,,,,,,,,,,,,,,,,,,,,,,,,,,,
,,6112810f76d46087c3e2d208,2026-03-17_12h39.30.750,kallum_motion_pilot_GIST_update_2,2026.1.1,Win32,59.52380952,6112810f76d46087c3e2d208,69b92ab4aef6dee357cd729a,69b92f3c50b332c5606e0569,0.0928,0.0928,0,125,125,121,1,fiveseven,,,,,,,,,,,,,,,,,,,,,,,,,,,,,,,,,,,,,,,,,,,,,,,,,,,,,,,,,,,,,,,,,,,,,,,,,,,,,,,,,,,,,,,,,,,,,,,,,,,,,,,,,,,,,,,,,,,,,,,,,,,,,,,,,,,,,,,,,
,,6112810f76d46087c3e2d208,2026-03-17_12h39.30.750,kallum_motion_pilot_GIST_update_2,2026.1.1,Win32,59.52380952,6112810f76d46087c3e2d208,69b92ab4aef6dee357cd729a,69b92f3c50b332c5606e0569,0.0931,0.0931,0,126,126,64,1,onetwo,,,,,,,,,,,,,,,,,,,,,,,,,,,,,,,,,,,,,,,,,,,,,,,,,,,,,,,,,,,,,,,,,,,,,,,,,,,,,,,,,,,,,,,,,,,,,,,,,,,,,,,,,,,,,,,,,,,,,,,,,,,,,,,,,,,,,,,,,
,,6112810f76d46087c3e2d208,2026-03-17_12h39.30.750,kallum_motion_pilot_GIST_update_2,2026.1.1,Win32,59.52380952,6112810f76d46087c3e2d208,69b92ab4aef6dee357cd729a,69b92f3c50b332c5606e0569,0.0933,0.0934,0,127,127,159,1,eightseven,,,,,,,,,,,,,,,,,,,,,,,,,,,,,,,,,,,,,,,,,,,,,,,,,,,,,,,,,,,,,,,,,,,,,,,,,,,,,,,,,,,,,,,,,,,,,,,,,,,,,,,,,,,,,,,,,,,,,,,,,,,,,,,,,,,,,,,,,
,,6112810f76d46087c3e2d208,2026-03-17_12h39.30.750,kallum_motion_pilot_GIST_update_2,2026.1.1,Win32,59.52380952,6112810f76d46087c3e2d208,69b92ab4aef6dee357cd729a,69b92f3c50b332c5606e0569,0.0936,0.0936,0,128,128,67,1,twofour,,,,,,,,,,,,,,,,,,,,,,,,,,,,,,,,,,,,,,,,,,,,,,,,,,,,,,,,,,,,,,,,,,,,,,,,,,,,,,,,,,,,,,,,,,,,,,,,,,,,,,,,,,,,,,,,,,,,,,,,,,,,,,,,,,,,,,,,,
,,6112810f76d46087c3e2d208,2026-03-17_12h39.30.750,kallum_motion_pilot_GIST_update_2,2026.1.1,Win32,59.52380952,6112810f76d46087c3e2d208,69b92ab4aef6dee357cd729a,69b92f3c50b332c5606e0569,0.0939,0.0939,0,129,129,92,1,sevenfive,,,,,,,,,,,,,,,,,,,,,,,,,,,,,,,,,,,,,,,,,,,,,,,,,,,,,,,,,,,,,,,,,,,,,,,,,,,,,,,,,,,,,,,,,,,,,,,,,,,,,,,,,,,,,,,,,,,,,,,,,,,,,,,,,,,,,,,,,
,,6112810f76d46087c3e2d208,2026-03-17_12h39.30.750,kallum_motion_pilot_GIST_update_2,2026.1.1,Win32,59.52380952,6112810f76d46087c3e2d208,69b92ab4aef6dee357cd729a,69b92f3c50b332c5606e0569,0.0941,0.0941,0,130,130,0,1,onetwo,,,,,,,,,,,,,,,,,,,,,,,,,,,,,,,,,,,,,,,,,,,,,,,,,,,,,,,,,,,,,,,,,,,,,,,,,,,,,,,,,,,,,,,,,,,,,,,,,,,,,,,,,,,,,,,,,,,,,,,,,,,,,,,,,,,,,,,,,
,,6112810f76d46087c3e2d208,2026-03-17_12h39.30.750,kallum_motion_pilot_GIST_update_2,2026.1.1,Win32,59.52380952,6112810f76d46087c3e2d208,69b92ab4aef6dee357cd729a,69b92f3c50b332c5606e0569,0.0943,0.0943,0,131,131,100,1,sevenfive,,,,,,,,,,,,,,,,,,,,,,,,,,,,,,,,,,,,,,,,,,,,,,,,,,,,,,,,,,,,,,,,,,,,,,,,,,,,,,,,,,,,,,,,,,,,,,,,,,,,,,,,,,,,,,,,,,,,,,,,,,,,,,,,,,,,,,,,,
,,6112810f76d46087c3e2d208,2026-03-17_12h39.30.750,kallum_motion_pilot_GIST_update_2,2026.1.1,Win32,59.52380952,6112810f76d46087c3e2d208,69b92ab4aef6dee357cd729a,69b92f3c50b332c5606e0569,0.0946,0.0946,0,132,132,25,1,onethree,,,,,,,,,,,,,,,,,,,,,,,,,,,,,,,,,,,,,,,,,,,,,,,,,,,,,,,,,,,,,,,,,,,,,,,,,,,,,,,,,,,,,,,,,,,,,,,,,,,,,,,,,,,,,,,,,,,,,,,,,,,,,,,,,,,,,,,,,
,,6112810f76d46087c3e2d208,2026-03-17_12h39.30.750,kallum_motion_pilot_GIST_update_2,2026.1.1,Win32,59.52380952,6112810f76d46087c3e2d208,69b92ab4aef6dee357cd729a,69b92f3c50b332c5606e0569,0.0948,0.0948,0,133,133,65,1,onethree,,,,,,,,,,,,,,,,,,,,,,,,,,,,,,,,,,,,,,,,,,,,,,,,,,,,,,,,,,,,,,,,,,,,,,,,,,,,,,,,,,,,,,,,,,,,,,,,,,,,,,,,,,,,,,,,,,,,,,,,,,,,,,,,,,,,,,,,,
,,6112810f76d46087c3e2d208,2026-03-17_12h39.30.750,kallum_motion_pilot_GIST_update_2,2026.1.1,Win32,59.52380952,6112810f76d46087c3e2d208,69b92ab4aef6dee357cd729a,69b92f3c50b332c5606e0569,0.0954,0.0954,0,134,134,77,1,threefour,,,,,,,,,,,,,,,,,,,,,,,,,,,,,,,,,,,,,,,,,,,,,,,,,,,,,,,,,,,,,,,,,,,,,,,,,,,,,,,,,,,,,,,,,,,,,,,,,,,,,,,,,,,,,,,,,,,,,,,,,,,,,,,,,,,,,,,,,
,,6112810f76d46087c3e2d208,2026-03-17_12h39.30.750,kallum_motion_pilot_GIST_update_2,2026.1.1,Win32,59.52380952,6112810f76d46087c3e2d208,69b92ab4aef6dee357cd729a,69b92f3c50b332c5606e0569,0.0958,0.0958,0,135,135,135,1,eightseven,,,,,,,,,,,,,,,,,,,,,,,,,,,,,,,,,,,,,,,,,,,,,,,,,,,,,,,,,,,,,,,,,,,,,,,,,,,,,,,,,,,,,,,,,,,,,,,,,,,,,,,,,,,,,,,,,,,,,,,,,,,,,,,,,,,,,,,,,
,,6112810f76d46087c3e2d208,2026-03-17_12h39.30.750,kallum_motion_pilot_GIST_update_2,2026.1.1,Win32,59.52380952,6112810f76d46087c3e2d208,69b92ab4aef6dee357cd729a,69b92f3c50b332c5606e0569,0.0961,0.0961,0,136,136,153,1,fiveseven,,,,,,,,,,,,,,,,,,,,,,,,,,,,,,,,,,,,,,,,,,,,,,,,,,,,,,,,,,,,,,,,,,,,,,,,,,,,,,,,,,,,,,,,,,,,,,,,,,,,,,,,,,,,,,,,,,,,,,,,,,,,,,,,,,,,,,,,,
,,6112810f76d46087c3e2d208,2026-03-17_12h39.30.750,kallum_motion_pilot_GIST_update_2,2026.1.1,Win32,59.52380952,6112810f76d46087c3e2d208,69b92ab4aef6dee357cd729a,69b92f3c50b332c5606e0569,0.0965,0.0966,0,137,137,88,1,fivesix,,,,,,,,,,,,,,,,,,,,,,,,,,,,,,,,,,,,,,,,,,,,,,,,,,,,,,,,,,,,,,,,,,,,,,,,,,,,,,,,,,,,,,,,,,,,,,,,,,,,,,,,,,,,,,,,,,,,,,,,,,,,,,,,,,,,,,,,,
,,6112810f76d46087c3e2d208,2026-03-17_12h39.30.750,kallum_motion_pilot_GIST_update_2,2026.1.1,Win32,59.52380952,6112810f76d46087c3e2d208,69b92ab4aef6dee357cd729a,69b92f3c50b332c5606e0569,0.0969,0.0969,0,138,138,156,1,sevenfive,,,,,,,,,,,,,,,,,,,,,,,,,,,,,,,,,,,,,,,,,,,,,,,,,,,,,,,,,,,,,,,,,,,,,,,,,,,,,,,,,,,,,,,,,,,,,,,,,,,,,,,,,,,,,,,,,,,,,,,,,,,,,,,,,,,,,,,,,
,,6112810f76d46087c3e2d208,2026-03-17_12h39.30.750,kallum_motion_pilot_GIST_update_2,2026.1.1,Win32,59.52380952,6112810f76d46087c3e2d208,69b92ab4aef6dee357cd729a,69b92f3c50b332c5606e0569,0.0974,0.0974,0,139,139,106,1,sixfive,,,,,,,,,,,,,,,,,,,,,,,,,,,,,,,,,,,,,,,,,,,,,,,,,,,,,,,,,,,,,,,,,,,,,,,,,,,,,,,,,,,,,,,,,,,,,,,,,,,,,,,,,,,,,,,,,,,,,,,,,,,,,,,,,,,,,,,,,
,,6112810f76d46087c3e2d208,2026-03-17_12h39.30.750,kallum_motion_pilot_GIST_update_2,2026.1.1,Win32,59.52380952,6112810f76d46087c3e2d208,69b92ab4aef6dee357cd729a,69b92f3c50b332c5606e0569,0.098,0.0981,0,140,140,99,1,sixeight,,,,,,,,,,,,,,,,,,,,,,,,,,,,,,,,,,,,,,,,,,,,,,,,,,,,,,,,,,,,,,,,,,,,,,,,,,,,,,,,,,,,,,,,,,,,,,,,,,,,,,,,,,,,,,,,,,,,,,,,,,,,,,,,,,,,,,,,,
,,6112810f76d46087c3e2d208,2026-03-17_12h39.30.750,kallum_motion_pilot_GIST_update_2,2026.1.1,Win32,59.52380952,6112810f76d46087c3e2d208,69b92ab4aef6dee357cd729a,69b92f3c50b332c5606e0569,0.0985,0.0986,0,141,141,48,1,onetwo,,,,,,,,,,,,,,,,,,,,,,,,,,,,,,,,,,,,,,,,,,,,,,,,,,,,,,,,,,,,,,,,,,,,,,,,,,,,,,,,,,,,,,,,,,,,,,,,,,,,,,,,,,,,,,,,,,,,,,,,,,,,,,,,,,,,,,,,,
,,6112810f76d46087c3e2d208,2026-03-17_12h39.30.750,kallum_motion_pilot_GIST_update_2,2026.1.1,Win32,59.52380952,6112810f76d46087c3e2d208,69b92ab4aef6dee357cd729a,69b92f3c50b332c5606e0569,0.0991,0.0991,0,142,142,107,1,sixeight,,,,,,,,,,,,,,,,,,,,,,,,,,,,,,,,,,,,,,,,,,,,,,,,,,,,,,,,,,,,,,,,,,,,,,,,,,,,,,,,,,,,,,,,,,,,,,,,,,,,,,,,,,,,,,,,,,,,,,,,,,,,,,,,,,,,,,,,,
,,6112810f76d46087c3e2d208,2026-03-17_12h39.30.750,kallum_motion_pilot_GIST_update_2,2026.1.1,Win32,59.52380952,6112810f76d46087c3e2d208,69b92ab4aef6dee357cd729a,69b92f3c50b332c5606e0569,0.0996,0.0997,0,143,143,114,1,sixfive,,,,,,,,,,,,,,,,,,,,,,,,,,,,,,,,,,,,,,,,,,,,,,,,,,,,,,,,,,,,,,,,,,,,,,,,,,,,,,,,,,,,,,,,,,,,,,,,,,,,,,,,,,,,,,,,,,,,,,,,,,,,,,,,,,,,,,,,,
,,6112810f76d46087c3e2d208,2026-03-17_12h39.30.750,kallum_motion_pilot_GIST_update_2,2026.1.1,Win32,59.52380952,6112810f76d46087c3e2d208,69b92ab4aef6dee357cd729a,69b92f3c50b332c5606e0569,0.1,0.1,0,144,144,151,1,eightseven,,,,,,,,,,,,,,,,,,,,,,,,,,,,,,,,,,,,,,,,,,,,,,,,,,,,,,,,,,,,,,,,,,,,,,,,,,,,,,,,,,,,,,,,,,,,,,,,,,,,,,,,,,,,,,,,,,,,,,,,,,,,,,,,,,,,,,,,,
,,6112810f76d46087c3e2d208,2026-03-17_12h39.30.750,kallum_motion_pilot_GIST_update_2,2026.1.1,Win32,59.52380952,6112810f76d46087c3e2d208,69b92ab4aef6dee357cd729a,69b92f3c50b332c5606e0569,0.1006,0.1006,0,145,145,90,1,sixfive,,,,,,,,,,,,,,,,,,,,,,,,,,,,,,,,,,,,,,,,,,,,,,,,,,,,,,,,,,,,,,,,,,,,,,,,,,,,,,,,,,,,,,,,,,,,,,,,,,,,,,,,,,,,,,,,,,,,,,,,,,,,,,,,,,,,,,,,,
,,6112810f76d46087c3e2d208,2026-03-17_12h39.30.750,kallum_motion_pilot_GIST_update_2,2026.1.1,Win32,59.52380952,6112810f76d46087c3e2d208,69b92ab4aef6dee357cd729a,69b92f3c50b332c5606e0569,0.1009,0.1009,0,146,146,157,1,seveneight,,,,,,,,,,,,,,,,,,,,,,,,,,,,,,,,,,,,,,,,,,,,,,,,,,,,,,,,,,,,,,,,,,,,,,,,,,,,,,,,,,,,,,,,,,,,,,,,,,,,,,,,,,,,,,,,,,,,,,,,,,,,,,,,,,,,,,,,,
,,6112810f76d46087c3e2d208,2026-03-17_12h39.30.750,kallum_motion_pilot_GIST_update_2,2026.1.1,Win32,59.52380952,6112810f76d46087c3e2d208,69b92ab4aef6dee357cd729a,69b92f3c50b332c5606e0569,0.1012,0.1013,0,147,147,63,1,fourthree,,,,,,,,,,,,,,,,,,,,,,,,,,,,,,,,,,,,,,,,,,,,,,,,,,,,,,,,,,,,,,,,,,,,,,,,,,,,,,,,,,,,,,,,,,,,,,,,,,,,,,,,,,,,,,,,,,,,,,,,,,,,,,,,,,,,,,,,,
,,6112810f76d46087c3e2d208,2026-03-17_12h39.30.750,kallum_motion_pilot_GIST_update_2,2026.1.1,Win32,59.52380952,6112810f76d46087c3e2d208,69b92ab4aef6dee357cd729a,69b92f3c50b332c5606e0569,0.1017,0.1017,0,148,148,27,1,twofour,,,,,,,,,,,,,,,,,,,,,,,,,,,,,,,,,,,,,,,,,,,,,,,,,,,,,,,,,,,,,,,,,,,,,,,,,,,,,,,,,,,,,,,,,,,,,,,,,,,,,,,,,,,,,,,,,,,,,,,,,,,,,,,,,,,,,,,,,
,,6112810f76d46087c3e2d208,2026-03-17_12h39.30.750,kallum_motion_pilot_GIST_update_2,2026.1.1,Win32,59.52380952,6112810f76d46087c3e2d208,69b92ab4aef6dee357cd729a,69b92f3c50b332c5606e0569,0.102,0.102,0,149,149,23,1,fourthree,,,,,,,,,,,,,,,,,,,,,,,,,,,,,,,,,,,,,,,,,,,,,,,,,,,,,,,,,,,,,,,,,,,,,,,,,,,,,,,,,,,,,,,,,,,,,,,,,,,,,,,,,,,,,,,,,,,,,,,,,,,,,,,,,,,,,,,,,
,,6112810f76d46087c3e2d208,2026-03-17_12h39.30.750,kallum_motion_pilot_GIST_update_2,2026.1.1,Win32,59.52380952,6112810f76d46087c3e2d208,69b92ab4aef6dee357cd729a,69b92f3c50b332c5606e0569,0.1024,0.1024,0,150,150,152,1,fivesix,,,,,,,,,,,,,,,,,,,,,,,,,,,,,,,,,,,,,,,,,,,,,,,,,,,,,,,,,,,,,,,,,,,,,,,,,,,,,,,,,,,,,,,,,,,,,,,,,,,,,,,,,,,,,,,,,,,,,,,,,,,,,,,,,,,,,,,,,
,,6112810f76d46087c3e2d208,2026-03-17_12h39.30.750,kallum_motion_pilot_GIST_update_2,2026.1.1,Win32,59.52380952,6112810f76d46087c3e2d208,69b92ab4aef6dee357cd729a,69b92f3c50b332c5606e0569,0.1026,0.1026,0,151,151,122,1,sixfive,,,,,,,,,,,,,,,,,,,,,,,,,,,,,,,,,,,,,,,,,,,,,,,,,,,,,,,,,,,,,,,,,,,,,,,,,,,,,,,,,,,,,,,,,,,,,,,,,,,,,,,,,,,,,,,,,,,,,,,,,,,,,,,,,,,,,,,,,
,,6112810f76d46087c3e2d208,2026-03-17_12h39.30.750,kallum_motion_pilot_GIST_update_2,2026.1.1,Win32,59.52380952,6112810f76d46087c3e2d208,69b92ab4aef6dee357cd729a,69b92f3c50b332c5606e0569,0.1029,0.103,0,152,152,5,1,threefour,,,,,,,,,,,,,,,,,,,,,,,,,,,,,,,,,,,,,,,,,,,,,,,,,,,,,,,,,,,,,,,,,,,,,,,,,,,,,,,,,,,,,,,,,,,,,,,,,,,,,,,,,,,,,,,,,,,,,,,,,,,,,,,,,,,,,,,,,
,,6112810f76d46087c3e2d208,2026-03-17_12h39.30.750,kallum_motion_pilot_GIST_update_2,2026.1.1,Win32,59.52380952,6112810f76d46087c3e2d208,69b92ab4aef6dee357cd729a,69b92f3c50b332c5606e0569,0.1032,0.1032,0,153,153,103,1,eightseven,,,,,,,,,,,,,,,,,,,,,,,,,,,,,,,,,,,,,,,,,,,,,,,,,,,,,,,,,,,,,,,,,,,,,,,,,,,,,,,,,,,,,,,,,,,,,,,,,,,,,,,,,,,,,,,,,,,,,,,,,,,,,,,,,,,,,,,,,
,,6112810f76d46087c3e2d208,2026-03-17_12h39.30.750,kallum_motion_pilot_GIST_update_2,2026.1.1,Win32,59.52380952,6112810f76d46087c3e2d208,69b92ab4aef6dee357cd729a,69b92f3c50b332c5606e0569,0.1034,0.1034,0,154,154,47,1,fourthree,,,,,,,,,,,,,,,,,,,,,,,,,,,,,,,,,,,,,,,,,,,,,,,,,,,,,,,,,,,,,,,,,,,,,,,,,,,,,,,,,,,,,,,,,,,,,,,,,,,,,,,,,,,,,,,,,,,,,,,,,,,,,,,,,,,,,,,,,
,,6112810f76d46087c3e2d208,2026-03-17_12h39.30.750,kallum_motion_pilot_GIST_update_2,2026.1.1,Win32,59.52380952,6112810f76d46087c3e2d208,69b92ab4aef6dee357cd729a,69b92f3c50b332c5606e0569,0.1036,0.1037,0,155,155,102,1,eightsix,,,,,,,,,,,,,,,,,,,,,,,,,,,,,,,,,,,,,,,,,,,,,,,,,,,,,,,,,,,,,,,,,,,,,,,,,,,,,,,,,,,,,,,,,,,,,,,,,,,,,,,,,,,,,,,,,,,,,,,,,,,,,,,,,,,,,,,,,
,,6112810f76d46087c3e2d208,2026-03-17_12h39.30.750,kallum_motion_pilot_GIST_update_2,2026.1.1,Win32,59.52380952,6112810f76d46087c3e2d208,69b92ab4aef6dee357cd729a,69b92f3c50b332c5606e0569,0.104,0.104,0,156,156,145,1,fiveseven,,,,,,,,,,,,,,,,,,,,,,,,,,,,,,,,,,,,,,,,,,,,,,,,,,,,,,,,,,,,,,,,,,,,,,,,,,,,,,,,,,,,,,,,,,,,,,,,,,,,,,,,,,,,,,,,,,,,,,,,,,,,,,,,,,,,,,,,,
,,6112810f76d46087c3e2d208,2026-03-17_12h39.30.750,kallum_motion_pilot_GIST_update_2,2026.1.1,Win32,59.52380952,6112810f76d46087c3e2d208,69b92ab4aef6dee357cd729a,69b92f3c50b332c5606e0569,0.1043,0.1043,0,157,157,49,1,onethree,,,,,,,,,,,,,,,,,,,,,,,,,,,,,,,,,,,,,,,,,,,,,,,,,,,,,,,,,,,,,,,,,,,,,,,,,,,,,,,,,,,,,,,,,,,,,,,,,,,,,,,,,,,,,,,,,,,,,,,,,,,,,,,,,,,,,,,,,
,,6112810f76d46087c3e2d208,2026-03-17_12h39.30.750,kallum_motion_pilot_GIST_update_2,2026.1.1,Win32,59.52380952,6112810f76d46087c3e2d208,69b92ab4aef6dee357cd729a,69b92f3c50b332c5606e0569,0.1045,0.1045,0,158,158,154,1,sixfive,,,,,,,,,,,,,,,,,,,,,,,,,,,,,,,,,,,,,,,,,,,,,,,,,,,,,,,,,,,,,,,,,,,,,,,,,,,,,,,,,,,,,,,,,,,,,,,,,,,,,,,,,,,,,,,,,,,,,,,,,,,,,,,,,,,,,,,,,
,,6112810f76d46087c3e2d208,2026-03-17_12h39.30.750,kallum_motion_pilot_GIST_update_2,2026.1.1,Win32,59.52380952,6112810f76d46087c3e2d208,69b92ab4aef6dee357cd729a,69b92f3c50b332c5606e0569,0.1047,0.1047,0,159,159,128,1,fivesix,,,,,,,,,,,,,,,,,,,,,,,,,,,,,,,,,,,,,,,,,,,,,,,,,,,,,,,,,,,,,,,,,,,,,,,,,,,,,,,,,,,,,,,,,,,,,,,,,,,,,,,,,,,,,,,,,,,,,,,,,,,,,,,,,,,,,,,,,
,,6112810f76d46087c3e2d208,2026-03-17_12h39.30.750,kallum_motion_pilot_GIST_update_2,2026.1.1,Win32,59.52380952,6112810f76d46087c3e2d208,69b92ab4aef6dee357cd729a,69b92f3c50b332c5606e0569,0.105,0.105,0,160,160,112,1,fivesix,,,,,,,,,,,,,,,,,,,,,,,,,,,,,,,,,,,,,,,,,,,,,,,,,,,,,,,,,,,,,,,,,,,,,,,,,,,,,,,,,,,,,,,,,,,,,,,,,,,,,,,,,,,,,,,,,,,,,,,,,,,,,,,,,,,,,,,,,
,,6112810f76d46087c3e2d208,2026-03-17_12h39.30.750,kallum_motion_pilot_GIST_update_2,2026.1.1,Win32,59.52380952,6112810f76d46087c3e2d208,69b92ab4aef6dee357cd729a,69b92f3c50b332c5606e0569,0.1053,0.1053,0,161,161,4,1,threeone,,,,,,,,,,,,,,,,,,,,,,,,,,,,,,,,,,,,,,,,,,,,,,,,,,,,,,,,,,,,,,,,,,,,,,,,,,,,,,,,,,,,,,,,,,,,,,,,,,,,,,,,,,,,,,,,,,,,,,,,,,,,,,,,,,,,,,,,,
,,6112810f76d46087c3e2d208,2026-03-17_12h39.30.750,kallum_motion_pilot_GIST_update_2,2026.1.1,Win32,59.52380952,6112810f76d46087c3e2d208,69b92ab4aef6dee357cd729a,69b92f3c50b332c5606e0569,0.1055,0.1056,1,0,162,126,1,eightsix,,,,,,,,,,,,,,,,,,,,,,,,,,,,,,,,,,,,,,,,,,,,,,,,,,,,,,,,,,,,,,,,,,,,,,,,,,,,,,,,,,,,,,,,,,,,,,,,,,,,,,,,,,,,,,,,,,,,,,,,,,,,,,,,,,,,,,,,,
,,6112810f76d46087c3e2d208,2026-03-17_12h39.30.750,kallum_motion_pilot_GIST_update_2,2026.1.1,Win32,59.52380952,6112810f76d46087c3e2d208,69b92ab4aef6dee357cd729a,69b92f3c50b332c5606e0569,0.1058,0.1058,1,1,163,85,1,seveneight,,,,,,,,,,,,,,,,,,,,,,,,,,,,,,,,,,,,,,,,,,,,,,,,,,,,,,,,,,,,,,,,,,,,,,,,,,,,,,,,,,,,,,,,,,,,,,,,,,,,,,,,,,,,,,,,,,,,,,,,,,,,,,,,,,,,,,,,,
,,6112810f76d46087c3e2d208,2026-03-17_12h39.30.750,kallum_motion_pilot_GIST_update_2,2026.1.1,Win32,59.52380952,6112810f76d46087c3e2d208,69b92ab4aef6dee357cd729a,69b92f3c50b332c5606e0569,0.1061,0.1061,1,2,164,108,1,sevenfive,,,,,,,,,,,,,,,,,,,,,,,,,,,,,,,,,,,,,,,,,,,,,,,,,,,,,,,,,,,,,,,,,,,,,,,,,,,,,,,,,,,,,,,,,,,,,,,,,,,,,,,,,,,,,,,,,,,,,,,,,,,,,,,,,,,,,,,,,
,,6112810f76d46087c3e2d208,2026-03-17_12h39.30.750,kallum_motion_pilot_GIST_update_2,2026.1.1,Win32,59.52380952,6112810f76d46087c3e2d208,69b92ab4aef6dee357cd729a,69b92f3c50b332c5606e0569,0.1062,0.1063,1,3,165,58,1,twoone,,,,,,,,,,,,,,,,,,,,,,,,,,,,,,,,,,,,,,,,,,,,,,,,,,,,,,,,,,,,,,,,,,,,,,,,,,,,,,,,,,,,,,,,,,,,,,,,,,,,,,,,,,,,,,,,,,,,,,,,,,,,,,,,,,,,,,,,,
,,6112810f76d46087c3e2d208,2026-03-17_12h39.30.750,kallum_motion_pilot_GIST_update_2,2026.1.1,Win32,59.52380952,6112810f76d46087c3e2d208,69b92ab4aef6dee357cd729a,69b92f3c50b332c5606e0569,0.1065,0.1065,1,4,166,79,1,eightseven,,,,,,,,,,,,,,,,,,,,,,,,,,,,,,,,,,,,,,,,,,,,,,,,,,,,,,,,,,,,,,,,,,,,,,,,,,,,,,,,,,,,,,,,,,,,,,,,,,,,,,,,,,,,,,,,,,,,,,,,,,,,,,,,,,,,,,,,,
,,6112810f76d46087c3e2d208,2026-03-17_12h39.30.750,kallum_motion_pilot_GIST_update_2,2026.1.1,Win32,59.52380952,6112810f76d46087c3e2d208,69b92ab4aef6dee357cd729a,69b92f3c50b332c5606e0569,0.1067,0.1067,1,5,167,106,1,sixfive,,,,,,,,,,,,,,,,,,,,,,,,,,,,,,,,,,,,,,,,,,,,,,,,,,,,,,,,,,,,,,,,,,,,,,,,,,,,,,,,,,,,,,,,,,,,,,,,,,,,,,,,,,,,,,,,,,,,,,,,,,,,,,,,,,,,,,,,,
,,6112810f76d46087c3e2d208,2026-03-17_12h39.30.750,kallum_motion_pilot_GIST_update_2,2026.1.1,Win32,59.52380952,6112810f76d46087c3e2d208,69b92ab4aef6dee357cd729a,69b92f3c50b332c5606e0569,0.107,0.107,1,6,168,152,1,fivesix,,,,,,,,,,,,,,,,,,,,,,,,,,,,,,,,,,,,,,,,,,,,,,,,,,,,,,,,,,,,,,,,,,,,,,,,,,,,,,,,,,,,,,,,,,,,,,,,,,,,,,,,,,,,,,,,,,,,,,,,,,,,,,,,,,,,,,,,,
,,6112810f76d46087c3e2d208,2026-03-17_12h39.30.750,kallum_motion_pilot_GIST_update_2,2026.1.1,Win32,59.52380952,6112810f76d46087c3e2d208,69b92ab4aef6dee357cd729a,69b92f3c50b332c5606e0569,0.1071,0.1071,1,7,169,115,1,sixeight,,,,,,,,,,,,,,,,,,,,,,,,,,,,,,,,,,,,,,,,,,,,,,,,,,,,,,,,,,,,,,,,,,,,,,,,,,,,,,,,,,,,,,,,,,,,,,,,,,,,,,,,,,,,,,,,,,,,,,,,,,,,,,,,,,,,,,,,,
,,6112810f76d46087c3e2d208,2026-03-17_12h39.30.750,kallum_motion_pilot_GIST_update_2,2026.1.1,Win32,59.52380952,6112810f76d46087c3e2d208,69b92ab4aef6dee357cd729a,69b92f3c50b332c5606e0569,0.1073,0.1073,1,8,170,123,1,sixeight,,,,,,,,,,,,,,,,,,,,,,,,,,,,,,,,,,,,,,,,,,,,,,,,,,,,,,,,,,,,,,,,,,,,,,,,,,,,,,,,,,,,,,,,,,,,,,,,,,,,,,,,,,,,,,,,,,,,,,,,,,,,,,,,,,,,,,,,,
,,6112810f76d46087c3e2d208,2026-03-17_12h39.30.750,kallum_motion_pilot_GIST_update_2,2026.1.1,Win32,59.52380952,6112810f76d46087c3e2d208,69b92ab4aef6dee357cd729a,69b92f3c50b332c5606e0569,0.1076,0.1076,1,9,171,5,1,threefour,,,,,,,,,,,,,,,,,,,,,,,,,,,,,,,,,,,,,,,,,,,,,,,,,,,,,,,,,,,,,,,,,,,,,,,,,,,,,,,,,,,,,,,,,,,,,,,,,,,,,,,,,,,,,,,,,,,,,,,,,,,,,,,,,,,,,,,,,
,,6112810f76d46087c3e2d208,2026-03-17_12h39.30.750,kallum_motion_pilot_GIST_update_2,2026.1.1,Win32,59.52380952,6112810f76d46087c3e2d208,69b92ab4aef6dee357cd729a,69b92f3c50b332c5606e0569,0.1078,0.1078,1,10,172,151,1,eightseven,,,,,,,,,,,,,,,,,,,,,,,,,,,,,,,,,,,,,,,,,,,,,,,,,,,,,,,,,,,,,,,,,,,,,,,,,,,,,,,,,,,,,,,,,,,,,,,,,,,,,,,,,,,,,,,,,,,,,,,,,,,,,,,,,,,,,,,,,
,,6112810f76d46087c3e2d208,2026-03-17_12h39.30.750,kallum_motion_pilot_GIST_update_2,2026.1.1,Win32,59.52380952,6112810f76d46087c3e2d208,69b92ab4aef6dee357cd729a,69b92f3c50b332c5606e0569,0.108,0.108,1,11,173,105,1,fiveseven,,,,,,,,,,,,,,,,,,,,,,,,,,,,,,,,,,,,,,,,,,,,,,,,,,,,,,,,,,,,,,,,,,,,,,,,,,,,,,,,,,,,,,,,,,,,,,,,,,,,,,,,,,,,,,,,,,,,,,,,,,,,,,,,,,,,,,,,,
,,6112810f76d46087c3e2d208,2026-03-17_12h39.30.750,kallum_motion_pilot_GIST_update_2,2026.1.1,Win32,59.52380952,6112810f76d46087c3e2d208,69b92ab4aef6dee357cd729a,69b92f3c50b332c5606e0569,0.1082,0.1082,1,12,174,31,1,fourthree,,,,,,,,,,,,,,,,,,,,,,,,,,,,,,,,,,,,,,,,,,,,,,,,,,,,,,,,,,,,,,,,,,,,,,,,,,,,,,,,,,,,,,,,,,,,,,,,,,,,,,,,,,,,,,,,,,,,,,,,,,,,,,,,,,,,,,,,,
,,6112810f76d46087c3e2d208,2026-03-17_12h39.30.750,kallum_motion_pilot_GIST_update_2,2026.1.1,Win32,59.52380952,6112810f76d46087c3e2d208,69b92ab4aef6dee357cd729a,69b92f3c50b332c5606e0569,0.1085,0.1085,1,13,175,153,1,fiveseven,,,,,,,,,,,,,,,,,,,,,,,,,,,,,,,,,,,,,,,,,,,,,,,,,,,,,,,,,,,,,,,,,,,,,,,,,,,,,,,,,,,,,,,,,,,,,,,,,,,,,,,,,,,,,,,,,,,,,,,,,,,,,,,,,,,,,,,,,
,,6112810f76d46087c3e2d208,2026-03-17_12h39.30.750,kallum_motion_pilot_GIST_update_2,2026.1.1,Win32,59.52380952,6112810f76d46087c3e2d208,69b92ab4aef6dee357cd729a,69b92f3c50b332c5606e0569,0.1086,0.1087,1,14,176,3,1,twofour,,,,,,,,,,,,,,,,,,,,,,,,,,,,,,,,,,,,,,,,,,,,,,,,,,,,,,,,,,,,,,,,,,,,,,,,,,,,,,,,,,,,,,,,,,,,,,,,,,,,,,,,,,,,,,,,,,,,,,,,,,,,,,,,,,,,,,,,,
,,6112810f76d46087c3e2d208,2026-03-17_12h39.30.750,kallum_motion_pilot_GIST_update_2,2026.1.1,Win32,59.52380952,6112810f76d46087c3e2d208,69b92ab4aef6dee357cd729a,69b92f3c50b332c5606e0569,0.1089,0.1089,1,15,177,38,1,fourtwo,,,,,,,,,,,,,,,,,,,,,,,,,,,,,,,,,,,,,,,,,,,,,,,,,,,,,,,,,,,,,,,,,,,,,,,,,,,,,,,,,,,,,,,,,,,,,,,,,,,,,,,,,,,,,,,,,,,,,,,,,,,,,,,,,,,,,,,,,
,,6112810f76d46087c3e2d208,2026-03-17_12h39.30.750,kallum_motion_pilot_GIST_update_2,2026.1.1,Win32,59.52380952,6112810f76d46087c3e2d208,69b92ab4aef6dee357cd729a,69b92f3c50b332c5606e0569,0.109,0.109,1,16,178,53,1,threefour,,,,,,,,,,,,,,,,,,,,,,,,,,,,,,,,,,,,,,,,,,,,,,,,,,,,,,,,,,,,,,,,,,,,,,,,,,,,,,,,,,,,,,,,,,,,,,,,,,,,,,,,,,,,,,,,,,,,,,,,,,,,,,,,,,,,,,,,,
,,6112810f76d46087c3e2d208,2026-03-17_12h39.30.750,kallum_motion_pilot_GIST_update_2,2026.1.1,Win32,59.52380952,6112810f76d46087c3e2d208,69b92ab4aef6dee357cd729a,69b92f3c50b332c5606e0569,0.1092,0.1092,1,17,179,93,1,seveneight,,,,,,,,,,,,,,,,,,,,,,,,,,,,,,,,,,,,,,,,,,,,,,,,,,,,,,,,,,,,,,,,,,,,,,,,,,,,,,,,,,,,,,,,,,,,,,,,,,,,,,,,,,,,,,,,,,,,,,,,,,,,,,,,,,,,,,,,,
,,6112810f76d46087c3e2d208,2026-03-17_12h39.30.750,kallum_motion_pilot_GIST_update_2,2026.1.1,Win32,59.52380952,6112810f76d46087c3e2d208,69b92ab4aef6dee357cd729a,69b92f3c50b332c5606e0569,0.1094,0.1094,1,18,180,22,1,fourtwo,,,,,,,,,,,,,,,,,,,,,,,,,,,,,,,,,,,,,,,,,,,,,,,,,,,,,,,,,,,,,,,,,,,,,,,,,,,,,,,,,,,,,,,,,,,,,,,,,,,,,,,,,,,,,,,,,,,,,,,,,,,,,,,,,,,,,,,,,
,,6112810f76d46087c3e2d208,2026-03-17_12h39.30.750,kallum_motion_pilot_GIST_update_2,2026.1.1,Win32,59.52380952,6112810f76d46087c3e2d208,69b92ab4aef6dee357cd729a,69b92f3c50b332c5606e0569,0.1096,0.1096,1,19,181,84,1,sevenfive,,,,,,,,,,,,,,,,,,,,,,,,,,,,,,,,,,,,,,,,,,,,,,,,,,,,,,,,,,,,,,,,,,,,,,,,,,,,,,,,,,,,,,,,,,,,,,,,,,,,,,,,,,,,,,,,,,,,,,,,,,,,,,,,,,,,,,,,,
,,6112810f76d46087c3e2d208,2026-03-17_12h39.30.750,kallum_motion_pilot_GIST_update_2,2026.1.1,Win32,59.52380952,6112810f76d46087c3e2d208,69b92ab4aef6dee357cd729a,69b92f3c50b332c5606e0569,0.1098,0.1098,1,20,182,146,1,sixfive,,,,,,,,,,,,,,,,,,,,,,,,,,,,,,,,,,,,,,,,,,,,,,,,,,,,,,,,,,,,,,,,,,,,,,,,,,,,,,,,,,,,,,,,,,,,,,,,,,,,,,,,,,,,,,,,,,,,,,,,,,,,,,,,,,,,,,,,,
,,6112810f76d46087c3e2d208,2026-03-17_12h39.30.750,kallum_motion_pilot_GIST_update_2,2026.1.1,Win32,59.52380952,6112810f76d46087c3e2d208,69b92ab4aef6dee357cd729a,69b92f3c50b332c5606e0569,0.11,0.11,1,21,183,96,1,fivesix,,,,,,,,,,,,,,,,,,,,,,,,,,,,,,,,,,,,,,,,,,,,,,,,,,,,,,,,,,,,,,,,,,,,,,,,,,,,,,,,,,,,,,,,,,,,,,,,,,,,,,,,,,,,,,,,,,,,,,,,,,,,,,,,,,,,,,,,,
,,6112810f76d46087c3e2d208,2026-03-17_12h39.30.750,kallum_motion_pilot_GIST_update_2,2026.1.1,Win32,59.52380952,6112810f76d46087c3e2d208,69b92ab4aef6dee357cd729a,69b92f3c50b332c5606e0569,0.1102,0.1102,1,22,184,88,1,fivesix,,,,,,,,,,,,,,,,,,,,,,,,,,,,,,,,,,,,,,,,,,,,,,,,,,,,,,,,,,,,,,,,,,,,,,,,,,,,,,,,,,,,,,,,,,,,,,,,,,,,,,,,,,,,,,,,,,,,,,,,,,,,,,,,,,,,,,,,,
,,6112810f76d46087c3e2d208,2026-03-17_12h39.30.750,kallum_motion_pilot_GIST_update_2,2026.1.1,Win32,59.52380952,6112810f76d46087c3e2d208,69b92ab4aef6dee357cd729a,69b92f3c50b332c5606e0569,0.1104,0.1104,1,23,185,149,1,seveneight,,,,,,,,,,,,,,,,,,,,,,,,,,,,,,,,,,,,,,,,,,,,,,,,,,,,,,,,,,,,,,,,,,,,,,,,,,,,,,,,,,,,,,,,,,,,,,,,,,,,,,,,,,,,,,,,,,,,,,,,,,,,,,,,,,,,,,,,,
,,6112810f76d46087c3e2d208,2026-03-17_12h39.30.750,kallum_motion_pilot_GIST_update_2,2026.1.1,Win32,59.52380952,6112810f76d46087c3e2d208,69b92ab4aef6dee357cd729a,69b92f3c50b332c5606e0569,0.1107,0.1107,1,24,186,15,1,fourthree,,,,,,,,,,,,,,,,,,,,,,,,,,,,,,,,,,,,,,,,,,,,,,,,,,,,,,,,,,,,,,,,,,,,,,,,,,,,,,,,,,,,,,,,,,,,,,,,,,,,,,,,,,,,,,,,,,,,,,,,,,,,,,,,,,,,,,,,,
,,6112810f76d46087c3e2d208,2026-03-17_12h39.30.750,kallum_motion_pilot_GIST_update_2,2026.1.1,Win32,59.52380952,6112810f76d46087c3e2d208,69b92ab4aef6dee357cd729a,69b92f3c50b332c5606e0569,0.1109,0.111,1,25,187,10,1,twoone,,,,,,,,,,,,,,,,,,,,,,,,,,,,,,,,,,,,,,,,,,,,,,,,,,,,,,,,,,,,,,,,,,,,,,,,,,,,,,,,,,,,,,,,,,,,,,,,,,,,,,,,,,,,,,,,,,,,,,,,,,,,,,,,,,,,,,,,,
,,6112810f76d46087c3e2d208,2026-03-17_12h39.30.750,kallum_motion_pilot_GIST_update_2,2026.1.1,Win32,59.52380952,6112810f76d46087c3e2d208,69b92ab4aef6dee357cd729a,69b92f3c50b332c5606e0569,0.1113,0.1114,1,26,188,125,1,seveneight,,,,,,,,,,,,,,,,,,,,,,,,,,,,,,,,,,,,,,,,,,,,,,,,,,,,,,,,,,,,,,,,,,,,,,,,,,,,,,,,,,,,,,,,,,,,,,,,,,,,,,,,,,,,,,,,,,,,,,,,,,,,,,,,,,,,,,,,,
,,6112810f76d46087c3e2d208,2026-03-17_12h39.30.750,kallum_motion_pilot_GIST_update_2,2026.1.1,Win32,59.52380952,6112810f76d46087c3e2d208,69b92ab4aef6dee357cd729a,69b92f3c50b332c5606e0569,0.1121,0.1121,1,27,189,112,1,fivesix,,,,,,,,,,,,,,,,,,,,,,,,,,,,,,,,,,,,,,,,,,,,,,,,,,,,,,,,,,,,,,,,,,,,,,,,,,,,,,,,,,,,,,,,,,,,,,,,,,,,,,,,,,,,,,,,,,,,,,,,,,,,,,,,,,,,,,,,,
,,6112810f76d46087c3e2d208,2026-03-17_12h39.30.750,kallum_motion_pilot_GIST_update_2,2026.1.1,Win32,59.52380952,6112810f76d46087c3e2d208,69b92ab4aef6dee357cd729a,69b92f3c50b332c5606e0569,0.1125,0.1125,1,28,190,1,1,onethree,,,,,,,,,,,,,,,,,,,,,,,,,,,,,,,,,,,,,,,,,,,,,,,,,,,,,,,,,,,,,,,,,,,,,,,,,,,,,,,,,,,,,,,,,,,,,,,,,,,,,,,,,,,,,,,,,,,,,,,,,,,,,,,,,,,,,,,,,
,,6112810f76d46087c3e2d208,2026-03-17_12h39.30.750,kallum_motion_pilot_GIST_update_2,2026.1.1,Win32,59.52380952,6112810f76d46087c3e2d208,69b92ab4aef6dee357cd729a,69b92f3c50b332c5606e0569,0.113,0.113,1,29,191,76,1,threeone,,,,,,,,,,,,,,,,,,,,,,,,,,,,,,,,,,,,,,,,,,,,,,,,,,,,,,,,,,,,,,,,,,,,,,,,,,,,,,,,,,,,,,,,,,,,,,,,,,,,,,,,,,,,,,,,,,,,,,,,,,,,,,,,,,,,,,,,,
,,6112810f76d46087c3e2d208,2026-03-17_12h39.30.750,kallum_motion_pilot_GIST_update_2,2026.1.1,Win32,59.52380952,6112810f76d46087c3e2d208,69b92ab4aef6dee357cd729a,69b92f3c50b332c5606e0569,0.1133,0.1134,1,30,192,27,1,twofour,,,,,,,,,,,,,,,,,,,,,,,,,,,,,,,,,,,,,,,,,,,,,,,,,,,,,,,,,,,,,,,,,,,,,,,,,,,,,,,,,,,,,,,,,,,,,,,,,,,,,,,,,,,,,,,,,,,,,,,,,,,,,,,,,,,,,,,,,
,,6112810f76d46087c3e2d208,2026-03-17_12h39.30.750,kallum_motion_pilot_GIST_update_2,2026.1.1,Win32,59.52380952,6112810f76d46087c3e2d208,69b92ab4aef6dee357cd729a,69b92f3c50b332c5606e0569,0.1137,0.1137,1,31,193,154,1,sixfive,,,,,,,,,,,,,,,,,,,,,,,,,,,,,,,,,,,,,,,,,,,,,,,,,,,,,,,,,,,,,,,,,,,,,,,,,,,,,,,,,,,,,,,,,,,,,,,,,,,,,,,,,,,,,,,,,,,,,,,,,,,,,,,,,,,,,,,,,
,,6112810f76d46087c3e2d208,2026-03-17_12h39.30.750,kallum_motion_pilot_GIST_update_2,2026.1.1,Win32,59.52380952,6112810f76d46087c3e2d208,69b92ab4aef6dee357cd729a,69b92f3c50b332c5606e0569,0.1139,0.1139,1,32,194,51,1,twofour,,,,,,,,,,,,,,,,,,,,,,,,,,,,,,,,,,,,,,,,,,,,,,,,,,,,,,,,,,,,,,,,,,,,,,,,,,,,,,,,,,,,,,,,,,,,,,,,,,,,,,,,,,,,,,,,,,,,,,,,,,,,,,,,,,,,,,,,,
,,6112810f76d46087c3e2d208,2026-03-17_12h39.30.750,kallum_motion_pilot_GIST_update_2,2026.1.1,Win32,59.52380952,6112810f76d46087c3e2d208,69b92ab4aef6dee357cd729a,69b92f3c50b332c5606e0569,0.1142,0.1142,1,33,195,133,1,seveneight,,,,,,,,,,,,,,,,,,,,,,,,,,,,,,,,,,,,,,,,,,,,,,,,,,,,,,,,,,,,,,,,,,,,,,,,,,,,,,,,,,,,,,,,,,,,,,,,,,,,,,,,,,,,,,,,,,,,,,,,,,,,,,,,,,,,,,,,,
,,6112810f76d46087c3e2d208,2026-03-17_12h39.30.750,kallum_motion_pilot_GIST_update_2,2026.1.1,Win32,59.52380952,6112810f76d46087c3e2d208,69b92ab4aef6dee357cd729a,69b92f3c50b332c5606e0569,0.1145,0.1145,1,34,196,159,1,eightseven,,,,,,,,,,,,,,,,,,,,,,,,,,,,,,,,,,,,,,,,,,,,,,,,,,,,,,,,,,,,,,,,,,,,,,,,,,,,,,,,,,,,,,,,,,,,,,,,,,,,,,,,,,,,,,,,,,,,,,,,,,,,,,,,,,,,,,,,,
,,6112810f76d46087c3e2d208,2026-03-17_12h39.30.750,kallum_motion_pilot_GIST_update_2,2026.1.1,Win32,59.52380952,6112810f76d46087c3e2d208,69b92ab4aef6dee357cd729a,69b92f3c50b332c5606e0569,0.1146,0.1147,1,35,197,9,1,onethree,,,,,,,,,,,,,,,,,,,,,,,,,,,,,,,,,,,,,,,,,,,,,,,,,,,,,,,,,,,,,,,,,,,,,,,,,,,,,,,,,,,,,,,,,,,,,,,,,,,,,,,,,,,,,,,,,,,,,,,,,,,,,,,,,,,,,,,,,
,,6112810f76d46087c3e2d208,2026-03-17_12h39.30.750,kallum_motion_pilot_GIST_update_2,2026.1.1,Win32,59.52380952,6112810f76d46087c3e2d208,69b92ab4aef6dee357cd729a,69b92f3c50b332c5606e0569,0.1149,0.1149,1,36,198,0,1,onetwo,,,,,,,,,,,,,,,,,,,,,,,,,,,,,,,,,,,,,,,,,,,,,,,,,,,,,,,,,,,,,,,,,,,,,,,,,,,,,,,,,,,,,,,,,,,,,,,,,,,,,,,,,,,,,,,,,,,,,,,,,,,,,,,,,,,,,,,,,
,,6112810f76d46087c3e2d208,2026-03-17_12h39.30.750,kallum_motion_pilot_GIST_update_2,2026.1.1,Win32,59.52380952,6112810f76d46087c3e2d208,69b92ab4aef6dee357cd729a,69b92f3c50b332c5606e0569,0.1151,0.1152,1,37,199,47,1,fourthree,,,,,,,,,,,,,,,,,,,,,,,,,,,,,,,,,,,,,,,,,,,,,,,,,,,,,,,,,,,,,,,,,,,,,,,,,,,,,,,,,,,,,,,,,,,,,,,,,,,,,,,,,,,,,,,,,,,,,,,,,,,,,,,,,,,,,,,,,
,,6112810f76d46087c3e2d208,2026-03-17_12h39.30.750,kallum_motion_pilot_GIST_update_2,2026.1.1,Win32,59.52380952,6112810f76d46087c3e2d208,69b92ab4aef6dee357cd729a,69b92f3c50b332c5606e0569,0.1155,0.1155,1,38,200,43,1,twofour,,,,,,,,,,,,,,,,,,,,,,,,,,,,,,,,,,,,,,,,,,,,,,,,,,,,,,,,,,,,,,,,,,,,,,,,,,,,,,,,,,,,,,,,,,,,,,,,,,,,,,,,,,,,,,,,,,,,,,,,,,,,,,,,,,,,,,,,,
,,6112810f76d46087c3e2d208,2026-03-17_12h39.30.750,kallum_motion_pilot_GIST_update_2,2026.1.1,Win32,59.52380952,6112810f76d46087c3e2d208,69b92ab4aef6dee357cd729a,69b92f3c50b332c5606e0569,0.1157,0.1157,1,39,201,148,1,sevenfive,,,,,,,,,,,,,,,,,,,,,,,,,,,,,,,,,,,,,,,,,,,,,,,,,,,,,,,,,,,,,,,,,,,,,,,,,,,,,,,,,,,,,,,,,,,,,,,,,,,,,,,,,,,,,,,,,,,,,,,,,,,,,,,,,,,,,,,,,
,,6112810f76d46087c3e2d208,2026-03-17_12h39.30.750,kallum_motion_pilot_GIST_update_2,2026.1.1,Win32,59.52380952,6112810f76d46087c3e2d208,69b92ab4aef6dee357cd729a,69b92f3c50b332c5606e0569,0.1159,0.1159,1,40,202,71,1,fourthree,,,,,,,,,,,,,,,,,,,,,,,,,,,,,,,,,,,,,,,,,,,,,,,,,,,,,,,,,,,,,,,,,,,,,,,,,,,,,,,,,,,,,,,,,,,,,,,,,,,,,,,,,,,,,,,,,,,,,,,,,,,,,,,,,,,,,,,,,
,,6112810f76d46087c3e2d208,2026-03-17_12h39.30.750,kallum_motion_pilot_GIST_update_2,2026.1.1,Win32,59.52380952,6112810f76d46087c3e2d208,69b92ab4aef6dee357cd729a,69b92f3c50b332c5606e0569,0.116,0.116,1,41,203,14,1,fourtwo,,,,,,,,,,,,,,,,,,,,,,,,,,,,,,,,,,,,,,,,,,,,,,,,,,,,,,,,,,,,,,,,,,,,,,,,,,,,,,,,,,,,,,,,,,,,,,,,,,,,,,,,,,,,,,,,,,,,,,,,,,,,,,,,,,,,,,,,,
,,6112810f76d46087c3e2d208,2026-03-17_12h39.30.750,kallum_motion_pilot_GIST_update_2,2026.1.1,Win32,59.52380952,6112810f76d46087c3e2d208,69b92ab4aef6dee357cd729a,69b92f3c50b332c5606e0569,0.1162,0.1162,1,42,204,113,1,fiveseven,,,,,,,,,,,,,,,,,,,,,,,,,,,,,,,,,,,,,,,,,,,,,,,,,,,,,,,,,,,,,,,,,,,,,,,,,,,,,,,,,,,,,,,,,,,,,,,,,,,,,,,,,,,,,,,,,,,,,,,,,,,,,,,,,,,,,,,,,
,,6112810f76d46087c3e2d208,2026-03-17_12h39.30.750,kallum_motion_pilot_GIST_update_2,2026.1.1,Win32,59.52380952,6112810f76d46087c3e2d208,69b92ab4aef6dee357cd729a,69b92f3c50b332c5606e0569,0.1164,0.1164,1,43,205,66,1,twoone,,,,,,,,,,,,,,,,,,,,,,,,,,,,,,,,,,,,,,,,,,,,,,,,,,,,,,,,,,,,,,,,,,,,,,,,,,,,,,,,,,,,,,,,,,,,,,,,,,,,,,,,,,,,,,,,,,,,,,,,,,,,,,,,,,,,,,,,,
,,6112810f76d46087c3e2d208,2026-03-17_12h39.30.750,kallum_motion_pilot_GIST_update_2,2026.1.1,Win32,59.52380952,6112810f76d46087c3e2d208,69b92ab4aef6dee357cd729a,69b92f3c50b332c5606e0569,0.1166,0.1166,1,44,206,147,1,sixeight,,,,,,,,,,,,,,,,,,,,,,,,,,,,,,,,,,,,,,,,,,,,,,,,,,,,,,,,,,,,,,,,,,,,,,,,,,,,,,,,,,,,,,,,,,,,,,,,,,,,,,,,,,,,,,,,,,,,,,,,,,,,,,,,,,,,,,,,,
,,6112810f76d46087c3e2d208,2026-03-17_12h39.30.750,kallum_motion_pilot_GIST_update_2,2026.1.1,Win32,59.52380952,6112810f76d46087c3e2d208,69b92ab4aef6dee357cd729a,69b92f3c50b332c5606e0569,0.1167,0.1167,1,45,207,117,1,seveneight,,,,,,,,,,,,,,,,,,,,,,,,,,,,,,,,,,,,,,,,,,,,,,,,,,,,,,,,,,,,,,,,,,,,,,,,,,,,,,,,,,,,,,,,,,,,,,,,,,,,,,,,,,,,,,,,,,,,,,,,,,,,,,,,,,,,,,,,,
,,6112810f76d46087c3e2d208,2026-03-17_12h39.30.750,kallum_motion_pilot_GIST_update_2,2026.1.1,Win32,59.52380952,6112810f76d46087c3e2d208,69b92ab4aef6dee357cd729a,69b92f3c50b332c5606e0569,0.117,0.117,1,46,208,40,1,onetwo,,,,,,,,,,,,,,,,,,,,,,,,,,,,,,,,,,,,,,,,,,,,,,,,,,,,,,,,,,,,,,,,,,,,,,,,,,,,,,,,,,,,,,,,,,,,,,,,,,,,,,,,,,,,,,,,,,,,,,,,,,,,,,,,,,,,,,,,,
,,6112810f76d46087c3e2d208,2026-03-17_12h39.30.750,kallum_motion_pilot_GIST_update_2,2026.1.1,Win32,59.52380952,6112810f76d46087c3e2d208,69b92ab4aef6dee357cd729a,69b92f3c50b332c5606e0569,0.1171,0.1171,1,47,209,128,1,fivesix,,,,,,,,,,,,,,,,,,,,,,,,,,,,,,,,,,,,,,,,,,,,,,,,,,,,,,,,,,,,,,,,,,,,,,,,,,,,,,,,,,,,,,,,,,,,,,,,,,,,,,,,,,,,,,,,,,,,,,,,,,,,,,,,,,,,,,,,,
,,6112810f76d46087c3e2d208,2026-03-17_12h39.30.750,kallum_motion_pilot_GIST_update_2,2026.1.1,Win32,59.52380952,6112810f76d46087c3e2d208,69b92ab4aef6dee357cd729a,69b92f3c50b332c5606e0569,0.1173,0.1173,1,48,210,120,1,fivesix,,,,,,,,,,,,,,,,,,,,,,,,,,,,,,,,,,,,,,,,,,,,,,,,,,,,,,,,,,,,,,,,,,,,,,,,,,,,,,,,,,,,,,,,,,,,,,,,,,,,,,,,,,,,,,,,,,,,,,,,,,,,,,,,,,,,,,,,,
,,6112810f76d46087c3e2d208,2026-03-17_12h39.30.750,kallum_motion_pilot_GIST_update_2,2026.1.1,Win32,59.52380952,6112810f76d46087c3e2d208,69b92ab4aef6dee357cd729a,69b92f3c50b332c5606e0569,0.1174,0.1174,1,49,211,4,1,threeone,,,,,,,,,,,,,,,,,,,,,,,,,,,,,,,,,,,,,,,,,,,,,,,,,,,,,,,,,,,,,,,,,,,,,,,,,,,,,,,,,,,,,,,,,,,,,,,,,,,,,,,,,,,,,,,,,,,,,,,,,,,,,,,,,,,,,,,,,
,,6112810f76d46087c3e2d208,2026-03-17_12h39.30.750,kallum_motion_pilot_GIST_update_2,2026.1.1,Win32,59.52380952,6112810f76d46087c3e2d208,69b92ab4aef6dee357cd729a,69b92f3c50b332c5606e0569,0.1176,0.1176,1,50,212,44,1,threeone,,,,,,,,,,,,,,,,,,,,,,,,,,,,,,,,,,,,,,,,,,,,,,,,,,,,,,,,,,,,,,,,,,,,,,,,,,,,,,,,,,,,,,,,,,,,,,,,,,,,,,,,,,,,,,,,,,,,,,,,,,,,,,,,,,,,,,,,,
,,6112810f76d46087c3e2d208,2026-03-17_12h39.30.750,kallum_motion_pilot_GIST_update_2,2026.1.1,Win32,59.52380952,6112810f76d46087c3e2d208,69b92ab4aef6dee357cd729a,69b92f3c50b332c5606e0569,0.1178,0.1178,1,51,213,68,1,threeone,,,,,,,,,,,,,,,,,,,,,,,,,,,,,,,,,,,,,,,,,,,,,,,,,,,,,,,,,,,,,,,,,,,,,,,,,,,,,,,,,,,,,,,,,,,,,,,,,,,,,,,,,,,,,,,,,,,,,,,,,,,,,,,,,,,,,,,,,
,,6112810f76d46087c3e2d208,2026-03-17_12h39.30.750,kallum_motion_pilot_GIST_update_2,2026.1.1,Win32,59.52380952,6112810f76d46087c3e2d208,69b92ab4aef6dee357cd729a,69b92f3c50b332c5606e0569,0.1179,0.118,1,52,214,83,1,sixeight,,,,,,,,,,,,,,,,,,,,,,,,,,,,,,,,,,,,,,,,,,,,,,,,,,,,,,,,,,,,,,,,,,,,,,,,,,,,,,,,,,,,,,,,,,,,,,,,,,,,,,,,,,,,,,,,,,,,,,,,,,,,,,,,,,,,,,,,,
,,6112810f76d46087c3e2d208,2026-03-17_12h39.30.750,kallum_motion_pilot_GIST_update_2,2026.1.1,Win32,59.52380952,6112810f76d46087c3e2d208,69b92ab4aef6dee357cd729a,69b92f3c50b332c5606e0569,0.1182,0.1182,1,53,215,30,1,fourtwo,,,,,,,,,,,,,,,,,,,,,,,,,,,,,,,,,,,,,,,,,,,,,,,,,,,,,,,,,,,,,,,,,,,,,,,,,,,,,,,,,,,,,,,,,,,,,,,,,,,,,,,,,,,,,,,,,,,,,,,,,,,,,,,,,,,,,,,,,
,,6112810f76d46087c3e2d208,2026-03-17_12h39.30.750,kallum_motion_pilot_GIST_update_2,2026.1.1,Win32,59.52380952,6112810f76d46087c3e2d208,69b92ab4aef6dee357cd729a,69b92f3c50b332c5606e0569,0.1183,0.1183,1,54,216,18,1,twoone,,,,,,,,,,,,,,,,,,,,,,,,,,,,,,,,,,,,,,,,,,,,,,,,,,,,,,,,,,,,,,,,,,,,,,,,,,,,,,,,,,,,,,,,,,,,,,,,,,,,,,,,,,,,,,,,,,,,,,,,,,,,,,,,,,,,,,,,,
,,6112810f76d46087c3e2d208,2026-03-17_12h39.30.750,kallum_motion_pilot_GIST_update_2,2026.1.1,Win32,59.52380952,6112810f76d46087c3e2d208,69b92ab4aef6dee357cd729a,69b92f3c50b332c5606e0569,0.1185,0.1185,1,55,217,60,1,threeone,,,,,,,,,,,,,,,,,,,,,,,,,,,,,,,,,,,,,,,,,,,,,,,,,,,,,,,,,,,,,,,,,,,,,,,,,,,,,,,,,,,,,,,,,,,,,,,,,,,,,,,,,,,,,,,,,,,,,,,,,,,,,,,,,,,,,,,,,
,,6112810f76d46087c3e2d208,2026-03-17_12h39.30.750,kallum_motion_pilot_GIST_update_2,2026.1.1,Win32,59.52380952,6112810f76d46087c3e2d208,69b92ab4aef6dee357cd729a,69b92f3c50b332c5606e0569,0.1188,0.1188,1,56,218,97,1,fiveseven,,,,,,,,,,,,,,,,,,,,,,,,,,,,,,,,,,,,,,,,,,,,,,,,,,,,,,,,,,,,,,,,,,,,,,,,,,,,,,,,,,,,,,,,,,,,,,,,,,,,,,,,,,,,,,,,,,,,,,,,,,,,,,,,,,,,,,,,,
,,6112810f76d46087c3e2d208,2026-03-17_12h39.30.750,kallum_motion_pilot_GIST_update_2,2026.1.1,Win32,59.52380952,6112810f76d46087c3e2d208,69b92ab4aef6dee357cd729a,69b92f3c50b332c5606e0569,0.1189,0.1189,1,57,219,155,1,sixeight,,,,,,,,,,,,,,,,,,,,,,,,,,,,,,,,,,,,,,,,,,,,,,,,,,,,,,,,,,,,,,,,,,,,,,,,,,,,,,,,,,,,,,,,,,,,,,,,,,,,,,,,,,,,,,,,,,,,,,,,,,,,,,,,,,,,,,,,,
,,6112810f76d46087c3e2d208,2026-03-17_12h39.30.750,kallum_motion_pilot_GIST_update_2,2026.1.1,Win32,59.52380952,6112810f76d46087c3e2d208,69b92ab4aef6dee357cd729a,69b92f3c50b332c5606e0569,0.119,0.119,1,58,220,104,1,fivesix,,,,,,,,,,,,,,,,,,,,,,,,,,,,,,,,,,,,,,,,,,,,,,,,,,,,,,,,,,,,,,,,,,,,,,,,,,,,,,,,,,,,,,,,,,,,,,,,,,,,,,,,,,,,,,,,,,,,,,,,,,,,,,,,,,,,,,,,,
,,6112810f76d46087c3e2d208,2026-03-17_12h39.30.750,kallum_motion_pilot_GIST_update_2,2026.1.1,Win32,59.52380952,6112810f76d46087c3e2d208,69b92ab4aef6dee357cd729a,69b92f3c50b332c5606e0569,0.1192,0.1193,1,59,221,136,1,fivesix,,,,,,,,,,,,,,,,,,,,,,,,,,,,,,,,,,,,,,,,,,,,,,,,,,,,,,,,,,,,,,,,,,,,,,,,,,,,,,,,,,,,,,,,,,,,,,,,,,,,,,,,,,,,,,,,,,,,,,,,,,,,,,,,,,,,,,,,,
,,6112810f76d46087c3e2d208,2026-03-17_12h39.30.750,kallum_motion_pilot_GIST_update_2,2026.1.1,Win32,59.52380952,6112810f76d46087c3e2d208,69b92ab4aef6dee357cd729a,69b92f3c50b332c5606e0569,0.1194,0.1194,1,60,222,131,1,sixeight,,,,,,,,,,,,,,,,,,,,,,,,,,,,,,,,,,,,,,,,,,,,,,,,,,,,,,,,,,,,,,,,,,,,,,,,,,,,,,,,,,,,,,,,,,,,,,,,,,,,,,,,,,,,,,,,,,,,,,,,,,,,,,,,,,,,,,,,,
,,6112810f76d46087c3e2d208,2026-03-17_12h39.30.750,kallum_motion_pilot_GIST_update_2,2026.1.1,Win32,59.52380952,6112810f76d46087c3e2d208,69b92ab4aef6dee357cd729a,69b92f3c50b332c5606e0569,0.1195,0.1195,1,61,223,150,1,eightsix,,,,,,,,,,,,,,,,,,,,,,,,,,,,,,,,,,,,,,,,,,,,,,,,,,,,,,,,,,,,,,,,,,,,,,,,,,,,,,,,,,,,,,,,,,,,,,,,,,,,,,,,,,,,,,,,,,,,,,,,,,,,,,,,,,,,,,,,,
,,6112810f76d46087c3e2d208,2026-03-17_12h39.30.750,kallum_motion_pilot_GIST_update_2,2026.1.1,Win32,59.52380952,6112810f76d46087c3e2d208,69b92ab4aef6dee357cd729a,69b92f3c50b332c5606e0569,0.1197,0.1197,1,62,224,140,1,sevenfive,,,,,,,,,,,,,,,,,,,,,,,,,,,,,,,,,,,,,,,,,,,,,,,,,,,,,,,,,,,,,,,,,,,,,,,,,,,,,,,,,,,,,,,,,,,,,,,,,,,,,,,,,,,,,,,,,,,,,,,,,,,,,,,,,,,,,,,,,
,,6112810f76d46087c3e2d208,2026-03-17_12h39.30.750,kallum_motion_pilot_GIST_update_2,2026.1.1,Win32,59.52380952,6112810f76d46087c3e2d208,69b92ab4aef6dee357cd729a,69b92f3c50b332c5606e0569,0.1199,0.1199,1,63,225,137,1,fiveseven,,,,,,,,,,,,,,,,,,,,,,,,,,,,,,,,,,,,,,,,,,,,,,,,,,,,,,,,,,,,,,,,,,,,,,,,,,,,,,,,,,,,,,,,,,,,,,,,,,,,,,,,,,,,,,,,,,,,,,,,,,,,,,,,,,,,,,,,,
,,6112810f76d46087c3e2d208,2026-03-17_12h39.30.750,kallum_motion_pilot_GIST_update_2,2026.1.1,Win32,59.52380952,6112810f76d46087c3e2d208,69b92ab4aef6dee357cd729a,69b92f3c50b332c5606e0569,0.1202,0.1202,1,64,226,121,1,fiveseven,,,,,,,,,,,,,,,,,,,,,,,,,,,,,,,,,,,,,,,,,,,,,,,,,,,,,,,,,,,,,,,,,,,,,,,,,,,,,,,,,,,,,,,,,,,,,,,,,,,,,,,,,,,,,,,,,,,,,,,,,,,,,,,,,,,,,,,,,
,,6112810f76d46087c3e2d208,2026-03-17_12h39.30.750,kallum_motion_pilot_GIST_update_2,2026.1.1,Win32,59.52380952,6112810f76d46087c3e2d208,69b92ab4aef6dee357cd729a,69b92f3c50b332c5606e0569,0.1202,0.1202,1,65,227,132,1,sevenfive,,,,,,,,,,,,,,,,,,,,,,,,,,,,,,,,,,,,,,,,,,,,,,,,,,,,,,,,,,,,,,,,,,,,,,,,,,,,,,,,,,,,,,,,,,,,,,,,,,,,,,,,,,,,,,,,,,,,,,,,,,,,,,,,,,,,,,,,,
,,6112810f76d46087c3e2d208,2026-03-17_12h39.30.750,kallum_motion_pilot_GIST_update_2,2026.1.1,Win32,59.52380952,6112810f76d46087c3e2d208,69b92ab4aef6dee357cd729a,69b92f3c50b332c5606e0569,0.1205,0.1205,1,66,228,143,1,eightseven,,,,,,,,,,,,,,,,,,,,,,,,,,,,,,,,,,,,,,,,,,,,,,,,,,,,,,,,,,,,,,,,,,,,,,,,,,,,,,,,,,,,,,,,,,,,,,,,,,,,,,,,,,,,,,,,,,,,,,,,,,,,,,,,,,,,,,,,,
,,6112810f76d46087c3e2d208,2026-03-17_12h39.30.750,kallum_motion_pilot_GIST_update_2,2026.1.1,Win32,59.52380952,6112810f76d46087c3e2d208,69b92ab4aef6dee357cd729a,69b92f3c50b332c5606e0569,0.1206,0.1206,1,67,229,89,1,fiveseven,,,,,,,,,,,,,,,,,,,,,,,,,,,,,,,,,,,,,,,,,,,,,,,,,,,,,,,,,,,,,,,,,,,,,,,,,,,,,,,,,,,,,,,,,,,,,,,,,,,,,,,,,,,,,,,,,,,,,,,,,,,,,,,,,,,,,,,,,
,,6112810f76d46087c3e2d208,2026-03-17_12h39.30.750,kallum_motion_pilot_GIST_update_2,2026.1.1,Win32,59.52380952,6112810f76d46087c3e2d208,69b92ab4aef6dee357cd729a,69b92f3c50b332c5606e0569,0.1208,0.1208,1,68,230,59,1,twofour,,,,,,,,,,,,,,,,,,,,,,,,,,,,,,,,,,,,,,,,,,,,,,,,,,,,,,,,,,,,,,,,,,,,,,,,,,,,,,,,,,,,,,,,,,,,,,,,,,,,,,,,,,,,,,,,,,,,,,,,,,,,,,,,,,,,,,,,,
,,6112810f76d46087c3e2d208,2026-03-17_12h39.30.750,kallum_motion_pilot_GIST_update_2,2026.1.1,Win32,59.52380952,6112810f76d46087c3e2d208,69b92ab4aef6dee357cd729a,69b92f3c50b332c5606e0569,0.1209,0.1209,1,69,231,80,1,fivesix,,,,,,,,,,,,,,,,,,,,,,,,,,,,,,,,,,,,,,,,,,,,,,,,,,,,,,,,,,,,,,,,,,,,,,,,,,,,,,,,,,,,,,,,,,,,,,,,,,,,,,,,,,,,,,,,,,,,,,,,,,,,,,,,,,,,,,,,,
,,6112810f76d46087c3e2d208,2026-03-17_12h39.30.750,kallum_motion_pilot_GIST_update_2,2026.1.1,Win32,59.52380952,6112810f76d46087c3e2d208,69b92ab4aef6dee357cd729a,69b92f3c50b332c5606e0569,0.1211,0.1211,1,70,232,107,1,sixeight,,,,,,,,,,,,,,,,,,,,,,,,,,,,,,,,,,,,,,,,,,,,,,,,,,,,,,,,,,,,,,,,,,,,,,,,,,,,,,,,,,,,,,,,,,,,,,,,,,,,,,,,,,,,,,,,,,,,,,,,,,,,,,,,,,,,,,,,,
,,6112810f76d46087c3e2d208,2026-03-17_12h39.30.750,kallum_motion_pilot_GIST_update_2,2026.1.1,Win32,59.52380952,6112810f76d46087c3e2d208,69b92ab4aef6dee357cd729a,69b92f3c50b332c5606e0569,0.1214,0.1214,1,71,233,114,1,sixfive,,,,,,,,,,,,,,,,,,,,,,,,,,,,,,,,,,,,,,,,,,,,,,,,,,,,,,,,,,,,,,,,,,,,,,,,,,,,,,,,,,,,,,,,,,,,,,,,,,,,,,,,,,,,,,,,,,,,,,,,,,,,,,,,,,,,,,,,,
,,6112810f76d46087c3e2d208,2026-03-17_12h39.30.750,kallum_motion_pilot_GIST_update_2,2026.1.1,Win32,59.52380952,6112810f76d46087c3e2d208,69b92ab4aef6dee357cd729a,69b92f3c50b332c5606e0569,0.1215,0.1215,1,72,234,73,1,onethree,,,,,,,,,,,,,,,,,,,,,,,,,,,,,,,,,,,,,,,,,,,,,,,,,,,,,,,,,,,,,,,,,,,,,,,,,,,,,,,,,,,,,,,,,,,,,,,,,,,,,,,,,,,,,,,,,,,,,,,,,,,,,,,,,,,,,,,,,
,,6112810f76d46087c3e2d208,2026-03-17_12h39.30.750,kallum_motion_pilot_GIST_update_2,2026.1.1,Win32,59.52380952,6112810f76d46087c3e2d208,69b92ab4aef6dee357cd729a,69b92f3c50b332c5606e0569,0.1217,0.1217,1,73,235,6,1,fourtwo,,,,,,,,,,,,,,,,,,,,,,,,,,,,,,,,,,,,,,,,,,,,,,,,,,,,,,,,,,,,,,,,,,,,,,,,,,,,,,,,,,,,,,,,,,,,,,,,,,,,,,,,,,,,,,,,,,,,,,,,,,,,,,,,,,,,,,,,,
,,6112810f76d46087c3e2d208,2026-03-17_12h39.30.750,kallum_motion_pilot_GIST_update_2,2026.1.1,Win32,59.52380952,6112810f76d46087c3e2d208,69b92ab4aef6dee357cd729a,69b92f3c50b332c5606e0569,0.1219,0.1219,1,74,236,99,1,sixeight,,,,,,,,,,,,,,,,,,,,,,,,,,,,,,,,,,,,,,,,,,,,,,,,,,,,,,,,,,,,,,,,,,,,,,,,,,,,,,,,,,,,,,,,,,,,,,,,,,,,,,,,,,,,,,,,,,,,,,,,,,,,,,,,,,,,,,,,,
,,6112810f76d46087c3e2d208,2026-03-17_12h39.30.750,kallum_motion_pilot_GIST_update_2,2026.1.1,Win32,59.52380952,6112810f76d46087c3e2d208,69b92ab4aef6dee357cd729a,69b92f3c50b332c5606e0569,0.122,0.122,1,75,237,124,1,sevenfive,,,,,,,,,,,,,,,,,,,,,,,,,,,,,,,,,,,,,,,,,,,,,,,,,,,,,,,,,,,,,,,,,,,,,,,,,,,,,,,,,,,,,,,,,,,,,,,,,,,,,,,,,,,,,,,,,,,,,,,,,,,,,,,,,,,,,,,,,
,,6112810f76d46087c3e2d208,2026-03-17_12h39.30.750,kallum_motion_pilot_GIST_update_2,2026.1.1,Win32,59.52380952,6112810f76d46087c3e2d208,69b92ab4aef6dee357cd729a,69b92f3c50b332c5606e0569,0.1222,0.1222,1,76,238,101,1,seveneight,,,,,,,,,,,,,,,,,,,,,,,,,,,,,,,,,,,,,,,,,,,,,,,,,,,,,,,,,,,,,,,,,,,,,,,,,,,,,,,,,,,,,,,,,,,,,,,,,,,,,,,,,,,,,,,,,,,,,,,,,,,,,,,,,,,,,,,,,
,,6112810f76d46087c3e2d208,2026-03-17_12h39.30.750,kallum_motion_pilot_GIST_update_2,2026.1.1,Win32,59.52380952,6112810f76d46087c3e2d208,69b92ab4aef6dee357cd729a,69b92f3c50b332c5606e0569,0.1224,0.1224,1,77,239,77,1,threefour,,,,,,,,,,,,,,,,,,,,,,,,,,,,,,,,,,,,,,,,,,,,,,,,,,,,,,,,,,,,,,,,,,,,,,,,,,,,,,,,,,,,,,,,,,,,,,,,,,,,,,,,,,,,,,,,,,,,,,,,,,,,,,,,,,,,,,,,,
,,6112810f76d46087c3e2d208,2026-03-17_12h39.30.750,kallum_motion_pilot_GIST_update_2,2026.1.1,Win32,59.52380952,6112810f76d46087c3e2d208,69b92ab4aef6dee357cd729a,69b92f3c50b332c5606e0569,0.1226,0.1226,1,78,240,17,1,onethree,,,,,,,,,,,,,,,,,,,,,,,,,,,,,,,,,,,,,,,,,,,,,,,,,,,,,,,,,,,,,,,,,,,,,,,,,,,,,,,,,,,,,,,,,,,,,,,,,,,,,,,,,,,,,,,,,,,,,,,,,,,,,,,,,,,,,,,,,
,,6112810f76d46087c3e2d208,2026-03-17_12h39.30.750,kallum_motion_pilot_GIST_update_2,2026.1.1,Win32,59.52380952,6112810f76d46087c3e2d208,69b92ab4aef6dee357cd729a,69b92f3c50b332c5606e0569,0.1227,0.1227,1,79,241,75,1,twofour,,,,,,,,,,,,,,,,,,,,,,,,,,,,,,,,,,,,,,,,,,,,,,,,,,,,,,,,,,,,,,,,,,,,,,,,,,,,,,,,,,,,,,,,,,,,,,,,,,,,,,,,,,,,,,,,,,,,,,,,,,,,,,,,,,,,,,,,,
,,6112810f76d46087c3e2d208,2026-03-17_12h39.30.750,kallum_motion_pilot_GIST_update_2,2026.1.1,Win32,59.52380952,6112810f76d46087c3e2d208,69b92ab4aef6dee357cd729a,69b92f3c50b332c5606e0569,0.123,0.123,1,80,242,33,1,onethree,,,,,,,,,,,,,,,,,,,,,,,,,,,,,,,,,,,,,,,,,,,,,,,,,,,,,,,,,,,,,,,,,,,,,,,,,,,,,,,,,,,,,,,,,,,,,,,,,,,,,,,,,,,,,,,,,,,,,,,,,,,,,,,,,,,,,,,,,
,,6112810f76d46087c3e2d208,2026-03-17_12h39.30.750,kallum_motion_pilot_GIST_update_2,2026.1.1,Win32,59.52380952,6112810f76d46087c3e2d208,69b92ab4aef6dee357cd729a,69b92f3c50b332c5606e0569,0.1231,0.1231,1,81,243,100,1,sevenfive,,,,,,,,,,,,,,,,,,,,,,,,,,,,,,,,,,,,,,,,,,,,,,,,,,,,,,,,,,,,,,,,,,,,,,,,,,,,,,,,,,,,,,,,,,,,,,,,,,,,,,,,,,,,,,,,,,,,,,,,,,,,,,,,,,,,,,,,,
,,6112810f76d46087c3e2d208,2026-03-17_12h39.30.750,kallum_motion_pilot_GIST_update_2,2026.1.1,Win32,59.52380952,6112810f76d46087c3e2d208,69b92ab4aef6dee357cd729a,69b92f3c50b332c5606e0569,0.1233,0.1233,1,82,244,111,1,eightseven,,,,,,,,,,,,,,,,,,,,,,,,,,,,,,,,,,,,,,,,,,,,,,,,,,,,,,,,,,,,,,,,,,,,,,,,,,,,,,,,,,,,,,,,,,,,,,,,,,,,,,,,,,,,,,,,,,,,,,,,,,,,,,,,,,,,,,,,,
,,6112810f76d46087c3e2d208,2026-03-17_12h39.30.750,kallum_motion_pilot_GIST_update_2,2026.1.1,Win32,59.52380952,6112810f76d46087c3e2d208,69b92ab4aef6dee357cd729a,69b92f3c50b332c5606e0569,0.1235,0.1236,1,83,245,129,1,fiveseven,,,,,,,,,,,,,,,,,,,,,,,,,,,,,,,,,,,,,,,,,,,,,,,,,,,,,,,,,,,,,,,,,,,,,,,,,,,,,,,,,,,,,,,,,,,,,,,,,,,,,,,,,,,,,,,,,,,,,,,,,,,,,,,,,,,,,,,,,
,,6112810f76d46087c3e2d208,2026-03-17_12h39.30.750,kallum_motion_pilot_GIST_update_2,2026.1.1,Win32,59.52380952,6112810f76d46087c3e2d208,69b92ab4aef6dee357cd729a,69b92f3c50b332c5606e0569,0.1237,0.1237,1,84,246,11,1,twofour,,,,,,,,,,,,,,,,,,,,,,,,,,,,,,,,,,,,,,,,,,,,,,,,,,,,,,,,,,,,,,,,,,,,,,,,,,,,,,,,,,,,,,,,,,,,,,,,,,,,,,,,,,,,,,,,,,,,,,,,,,,,,,,,,,,,,,,,,
,,6112810f76d46087c3e2d208,2026-03-17_12h39.30.750,kallum_motion_pilot_GIST_update_2,2026.1.1,Win32,59.52380952,6112810f76d46087c3e2d208,69b92ab4aef6dee357cd729a,69b92f3c50b332c5606e0569,0.1239,0.1239,1,85,247,69,1,threefour,,,,,,,,,,,,,,,,,,,,,,,,,,,,,,,,,,,,,,,,,,,,,,,,,,,,,,,,,,,,,,,,,,,,,,,,,,,,,,,,,,,,,,,,,,,,,,,,,,,,,,,,,,,,,,,,,,,,,,,,,,,,,,,,,,,,,,,,,
,,6112810f76d46087c3e2d208,2026-03-17_12h39.30.750,kallum_motion_pilot_GIST_update_2,2026.1.1,Win32,59.52380952,6112810f76d46087c3e2d208,69b92ab4aef6dee357cd729a,69b92f3c50b332c5606e0569,0.124,0.1241,1,86,248,161,1,fiveseven,,,,,,,,,,,,,,,,,,,,,,,,,,,,,,,,,,,,,,,,,,,,,,,,,,,,,,,,,,,,,,,,,,,,,,,,,,,,,,,,,,,,,,,,,,,,,,,,,,,,,,,,,,,,,,,,,,,,,,,,,,,,,,,,,,,,,,,,,
,,6112810f76d46087c3e2d208,2026-03-17_12h39.30.750,kallum_motion_pilot_GIST_update_2,2026.1.1,Win32,59.52380952,6112810f76d46087c3e2d208,69b92ab4aef6dee357cd729a,69b92f3c50b332c5606e0569,0.1243,0.1243,1,87,249,94,1,eightsix,,,,,,,,,,,,,,,,,,,,,,,,,,,,,,,,,,,,,,,,,,,,,,,,,,,,,,,,,,,,,,,,,,,,,,,,,,,,,,,,,,,,,,,,,,,,,,,,,,,,,,,,,,,,,,,,,,,,,,,,,,,,,,,,,,,,,,,,,
,,6112810f76d46087c3e2d208,2026-03-17_12h39.30.750,kallum_motion_pilot_GIST_update_2,2026.1.1,Win32,59.52380952,6112810f76d46087c3e2d208,69b92ab4aef6dee357cd729a,69b92f3c50b332c5606e0569,0.1244,0.1244,1,88,250,78,1,fourtwo,,,,,,,,,,,,,,,,,,,,,,,,,,,,,,,,,,,,,,,,,,,,,,,,,,,,,,,,,,,,,,,,,,,,,,,,,,,,,,,,,,,,,,,,,,,,,,,,,,,,,,,,,,,,,,,,,,,,,,,,,,,,,,,,,,,,,,,,,
,,6112810f76d46087c3e2d208,2026-03-17_12h39.30.750,kallum_motion_pilot_GIST_update_2,2026.1.1,Win32,59.52380952,6112810f76d46087c3e2d208,69b92ab4aef6dee357cd729a,69b92f3c50b332c5606e0569,0.1246,0.1246,1,89,251,134,1,eightsix,,,,,,,,,,,,,,,,,,,,,,,,,,,,,,,,,,,,,,,,,,,,,,,,,,,,,,,,,,,,,,,,,,,,,,,,,,,,,,,,,,,,,,,,,,,,,,,,,,,,,,,,,,,,,,,,,,,,,,,,,,,,,,,,,,,,,,,,,
,,6112810f76d46087c3e2d208,2026-03-17_12h39.30.750,kallum_motion_pilot_GIST_update_2,2026.1.1,Win32,59.52380952,6112810f76d46087c3e2d208,69b92ab4aef6dee357cd729a,69b92f3c50b332c5606e0569,0.1247,0.1247,1,90,252,28,1,threeone,,,,,,,,,,,,,,,,,,,,,,,,,,,,,,,,,,,,,,,,,,,,,,,,,,,,,,,,,,,,,,,,,,,,,,,,,,,,,,,,,,,,,,,,,,,,,,,,,,,,,,,,,,,,,,,,,,,,,,,,,,,,,,,,,,,,,,,,,
,,6112810f76d46087c3e2d208,2026-03-17_12h39.30.750,kallum_motion_pilot_GIST_update_2,2026.1.1,Win32,59.52380952,6112810f76d46087c3e2d208,69b92ab4aef6dee357cd729a,69b92f3c50b332c5606e0569,0.1249,0.125,1,91,253,52,1,threeone,,,,,,,,,,,,,,,,,,,,,,,,,,,,,,,,,,,,,,,,,,,,,,,,,,,,,,,,,,,,,,,,,,,,,,,,,,,,,,,,,,,,,,,,,,,,,,,,,,,,,,,,,,,,,,,,,,,,,,,,,,,,,,,,,,,,,,,,,
,,6112810f76d46087c3e2d208,2026-03-17_12h39.30.750,kallum_motion_pilot_GIST_update_2,2026.1.1,Win32,59.52380952,6112810f76d46087c3e2d208,69b92ab4aef6dee357cd729a,69b92f3c50b332c5606e0569,0.1251,0.1251,1,92,254,45,1,threefour,,,,,,,,,,,,,,,,,,,,,,,,,,,,,,,,,,,,,,,,,,,,,,,,,,,,,,,,,,,,,,,,,,,,,,,,,,,,,,,,,,,,,,,,,,,,,,,,,,,,,,,,,,,,,,,,,,,,,,,,,,,,,,,,,,,,,,,,,
,,6112810f76d46087c3e2d208,2026-03-17_12h39.30.750,kallum_motion_pilot_GIST_update_2,2026.1.1,Win32,59.52380952,6112810f76d46087c3e2d208,69b92ab4aef6dee357cd729a,69b92f3c50b332c5606e0569,0.1254,0.1254,1,93,255,42,1,twoone,,,,,,,,,,,,,,,,,,,,,,,,,,,,,,,,,,,,,,,,,,,,,,,,,,,,,,,,,,,,,,,,,,,,,,,,,,,,,,,,,,,,,,,,,,,,,,,,,,,,,,,,,,,,,,,,,,,,,,,,,,,,,,,,,,,,,,,,,
,,6112810f76d46087c3e2d208,2026-03-17_12h39.30.750,kallum_motion_pilot_GIST_update_2,2026.1.1,Win32,59.52380952,6112810f76d46087c3e2d208,69b92ab4aef6dee357cd729a,69b92f3c50b332c5606e0569,0.1256,0.1256,1,94,256,54,1,fourtwo,,,,,,,,,,,,,,,,,,,,,,,,,,,,,,,,,,,,,,,,,,,,,,,,,,,,,,,,,,,,,,,,,,,,,,,,,,,,,,,,,,,,,,,,,,,,,,,,,,,,,,,,,,,,,,,,,,,,,,,,,,,,,,,,,,,,,,,,,
,,6112810f76d46087c3e2d208,2026-03-17_12h39.30.750,kallum_motion_pilot_GIST_update_2,2026.1.1,Win32,59.52380952,6112810f76d46087c3e2d208,69b92ab4aef6dee357cd729a,69b92f3c50b332c5606e0569,0.1258,0.1258,1,95,257,16,1,onetwo,,,,,,,,,,,,,,,,,,,,,,,,,,,,,,,,,,,,,,,,,,,,,,,,,,,,,,,,,,,,,,,,,,,,,,,,,,,,,,,,,,,,,,,,,,,,,,,,,,,,,,,,,,,,,,,,,,,,,,,,,,,,,,,,,,,,,,,,,
,,6112810f76d46087c3e2d208,2026-03-17_12h39.30.750,kallum_motion_pilot_GIST_update_2,2026.1.1,Win32,59.52380952,6112810f76d46087c3e2d208,69b92ab4aef6dee357cd729a,69b92f3c50b332c5606e0569,0.1262,0.1262,1,96,258,34,1,twoone,,,,,,,,,,,,,,,,,,,,,,,,,,,,,,,,,,,,,,,,,,,,,,,,,,,,,,,,,,,,,,,,,,,,,,,,,,,,,,,,,,,,,,,,,,,,,,,,,,,,,,,,,,,,,,,,,,,,,,,,,,,,,,,,,,,,,,,,,
,,6112810f76d46087c3e2d208,2026-03-17_12h39.30.750,kallum_motion_pilot_GIST_update_2,2026.1.1,Win32,59.52380952,6112810f76d46087c3e2d208,69b92ab4aef6dee357cd729a,69b92f3c50b332c5606e0569,0.1264,0.1264,1,97,259,142,1,eightsix,,,,,,,,,,,,,,,,,,,,,,,,,,,,,,,,,,,,,,,,,,,,,,,,,,,,,,,,,,,,,,,,,,,,,,,,,,,,,,,,,,,,,,,,,,,,,,,,,,,,,,,,,,,,,,,,,,,,,,,,,,,,,,,,,,,,,,,,,
,,6112810f76d46087c3e2d208,2026-03-17_12h39.30.750,kallum_motion_pilot_GIST_update_2,2026.1.1,Win32,59.52380952,6112810f76d46087c3e2d208,69b92ab4aef6dee357cd729a,69b92f3c50b332c5606e0569,0.1266,0.1266,1,98,260,156,1,sevenfive,,,,,,,,,,,,,,,,,,,,,,,,,,,,,,,,,,,,,,,,,,,,,,,,,,,,,,,,,,,,,,,,,,,,,,,,,,,,,,,,,,,,,,,,,,,,,,,,,,,,,,,,,,,,,,,,,,,,,,,,,,,,,,,,,,,,,,,,,
,,6112810f76d46087c3e2d208,2026-03-17_12h39.30.750,kallum_motion_pilot_GIST_update_2,2026.1.1,Win32,59.52380952,6112810f76d46087c3e2d208,69b92ab4aef6dee357cd729a,69b92f3c50b332c5606e0569,0.1269,0.1269,1,99,261,110,1,eightsix,,,,,,,,,,,,,,,,,,,,,,,,,,,,,,,,,,,,,,,,,,,,,,,,,,,,,,,,,,,,,,,,,,,,,,,,,,,,,,,,,,,,,,,,,,,,,,,,,,,,,,,,,,,,,,,,,,,,,,,,,,,,,,,,,,,,,,,,,
,,6112810f76d46087c3e2d208,2026-03-17_12h39.30.750,kallum_motion_pilot_GIST_update_2,2026.1.1,Win32,59.52380952,6112810f76d46087c3e2d208,69b92ab4aef6dee357cd729a,69b92f3c50b332c5606e0569,0.1271,0.1271,1,100,262,8,1,onetwo,,,,,,,,,,,,,,,,,,,,,,,,,,,,,,,,,,,,,,,,,,,,,,,,,,,,,,,,,,,,,,,,,,,,,,,,,,,,,,,,,,,,,,,,,,,,,,,,,,,,,,,,,,,,,,,,,,,,,,,,,,,,,,,,,,,,,,,,,
,,6112810f76d46087c3e2d208,2026-03-17_12h39.30.750,kallum_motion_pilot_GIST_update_2,2026.1.1,Win32,59.52380952,6112810f76d46087c3e2d208,69b92ab4aef6dee357cd729a,69b92f3c50b332c5606e0569,0.1274,0.1274,1,101,263,160,1,fivesix,,,,,,,,,,,,,,,,,,,,,,,,,,,,,,,,,,,,,,,,,,,,,,,,,,,,,,,,,,,,,,,,,,,,,,,,,,,,,,,,,,,,,,,,,,,,,,,,,,,,,,,,,,,,,,,,,,,,,,,,,,,,,,,,,,,,,,,,,
,,6112810f76d46087c3e2d208,2026-03-17_12h39.30.750,kallum_motion_pilot_GIST_update_2,2026.1.1,Win32,59.52380952,6112810f76d46087c3e2d208,69b92ab4aef6dee357cd729a,69b92f3c50b332c5606e0569,0.1276,0.1276,1,102,264,103,1,eightseven,,,,,,,,,,,,,,,,,,,,,,,,,,,,,,,,,,,,,,,,,,,,,,,,,,,,,,,,,,,,,,,,,,,,,,,,,,,,,,,,,,,,,,,,,,,,,,,,,,,,,,,,,,,,,,,,,,,,,,,,,,,,,,,,,,,,,,,,,
,,6112810f76d46087c3e2d208,2026-03-17_12h39.30.750,kallum_motion_pilot_GIST_update_2,2026.1.1,Win32,59.52380952,6112810f76d46087c3e2d208,69b92ab4aef6dee357cd729a,69b92f3c50b332c5606e0569,0.1279,0.1279,1,103,265,98,1,sixfive,,,,,,,,,,,,,,,,,,,,,,,,,,,,,,,,,,,,,,,,,,,,,,,,,,,,,,,,,,,,,,,,,,,,,,,,,,,,,,,,,,,,,,,,,,,,,,,,,,,,,,,,,,,,,,,,,,,,,,,,,,,,,,,,,,,,,,,,,
,,6112810f76d46087c3e2d208,2026-03-17_12h39.30.750,kallum_motion_pilot_GIST_update_2,2026.1.1,Win32,59.52380952,6112810f76d46087c3e2d208,69b92ab4aef6dee357cd729a,69b92f3c50b332c5606e0569,0.1281,0.1281,1,104,266,144,1,fivesix,,,,,,,,,,,,,,,,,,,,,,,,,,,,,,,,,,,,,,,,,,,,,,,,,,,,,,,,,,,,,,,,,,,,,,,,,,,,,,,,,,,,,,,,,,,,,,,,,,,,,,,,,,,,,,,,,,,,,,,,,,,,,,,,,,,,,,,,,
