startup.started,startup.stopped,Prolific ID*,date,expName,psychopyVersion,OS,frameRate,participant,study_id,session,stimpositions.started,stimpositions.stopped,hardcoded_stimulus_positions.thisRepN,hardcoded_stimulus_positions.thisTrialN,hardcoded_stimulus_positions.thisN,hardcoded_stimulus_positions.thisIndex,hardcoded_stimulus_positions.ran,StimulusPos,stimorientation.started,stimorientation.stopped,prac_stimorientation_import_loop.thisRepN,prac_stimorientation_import_loop.thisTrialN,prac_stimorientation_import_loop.thisN,prac_stimorientation_import_loop.thisIndex,prac_stimorientation_import_loop.ran,Stimorientation,welcome_instr.started,welcome_instr.stopped,key_resp.keys,key_resp.rt,key_resp.duration,response_steppedout_1.started,response_steppedout_1.stopped,key_resp_20.keys,key_resp_20.rt,key_resp_20.duration,response_steppedout_2.started,response_steppedout_2.stopped,key_resp_19.keys,key_resp_19.rt,key_resp_19.duration,stim_response_instr.started,stim_response_instr.stopped,key_resp_15.keys,key_resp_15.rt,key_resp_15.duration,direction_instr_2.started,direction_instr_2.stopped,key_resp_9.keys,key_resp_9.rt,key_resp_9.duration,instr_prac.started,instr_prac.stopped,key_resp_10.keys,key_resp_10.rt,key_resp_10.duration,Stim1_display_prac.started,Stim1_display_prac.stopped,Ecc,Circle1_ori,Circle2_ori,response_prac.started,similarity,response_time,response_prac.stopped,mouse_5.x,mouse_5.y,mouse_5.leftButton,mouse_5.midButton,mouse_5.rightButton,mouse_5.clicked_name,responseprac_feedback.started,responseprac_feedback.stopped,summary2_prac.started,summary2_prac.stopped,mouse_6.x,mouse_6.y,mouse_6.leftButton,mouse_6.midButton,mouse_6.rightButton,mouse_6.clicked_name,duringprac.thisRepN,duringprac.thisTrialN,duringprac.thisN,duringprac.thisIndex,duringprac.ran,begin.started,begin.stopped,key_resp_22.keys,key_resp_22.rt,key_resp_22.duration,Stim1_display.started,Stim1_display.stopped,circle1_ori,circle2_ori,circle1_SF,circle2_SF,response.started,response.stopped,mouse.x,mouse.y,mouse.leftButton,mouse.midButton,mouse.rightButton,mouse.clicked_name,trialnumber,double_pass.thisRepN,double_pass.thisTrialN,double_pass.thisN,double_pass.thisIndex,double_pass.ran,double_pass.order,main_trial.thisRepN,main_trial.thisTrialN,main_trial.thisN,main_trial.thisIndex,main_trial.ran,main_trial.order,Trial_Counter,Catch,Frequencies,response_2.started,response_2.stopped,mouse_2.x,mouse_2.y,mouse_2.leftButton,mouse_2.midButton,mouse_2.rightButton,mouse_2.clicked_name,special_trial.started,special_trial.stopped,catch_1.started,catch_1.stopped,mouse_3.x,mouse_3.y,mouse_3.leftButton,mouse_3.midButton,mouse_3.rightButton,catchresponse,catchnumber,response_time_catch,response_sum.started,response_sum.stopped,mouse_11.x,mouse_11.y,mouse_11.leftButton,mouse_11.midButton,mouse_11.rightButton,flip_presentation_sequence_for_double_pass.started,flip_presentation_sequence_for_double_pass.stopped,goodbye.started,goodbye.stopped,key_resp_3.keys,key_resp_3.rt,key_resp_3.duration
0.0008,0.0011,6130c7f7d0112fa23b17079c,2026-03-17_10h21.58.202,kallum_motion_pilot_GIST_update_2,2026.1.1,Win32,59.88023952,6130c7f7d0112fa23b17079c,69b92ab4aef6dee357cd729a,69b92ad3783f0f99256e0009,,,,,,,,,,,,,,,,,,,,,,,,,,,,,,,,,,,,,,,,,,,,,,,,,,,,,,,,,,,,,,,,,,,,,,,,,,,,,,,,,,,,,,,,,,,,,,,,,,,,,,,,,,,,,,,,,,,,,,,,,,,,,,,,,,,,,,,,,,,,,,,,,
,,6130c7f7d0112fa23b17079c,2026-03-17_10h21.58.202,kallum_motion_pilot_GIST_update_2,2026.1.1,Win32,59.88023952,6130c7f7d0112fa23b17079c,69b92ab4aef6dee357cd729a,69b92ad3783f0f99256e0009,0.0793,0.0798,0,0,0,8,1,onetwo,,,,,,,,,,,,,,,,,,,,,,,,,,,,,,,,,,,,,,,,,,,,,,,,,,,,,,,,,,,,,,,,,,,,,,,,,,,,,,,,,,,,,,,,,,,,,,,,,,,,,,,,,,,,,,,,,,,,,,,,,,,,,,,,,,,,,,,,,
,,6130c7f7d0112fa23b17079c,2026-03-17_10h21.58.202,kallum_motion_pilot_GIST_update_2,2026.1.1,Win32,59.88023952,6130c7f7d0112fa23b17079c,69b92ab4aef6dee357cd729a,69b92ad3783f0f99256e0009,0.0806,0.0806,0,1,1,54,1,fourtwo,,,,,,,,,,,,,,,,,,,,,,,,,,,,,,,,,,,,,,,,,,,,,,,,,,,,,,,,,,,,,,,,,,,,,,,,,,,,,,,,,,,,,,,,,,,,,,,,,,,,,,,,,,,,,,,,,,,,,,,,,,,,,,,,,,,,,,,,,
,,6130c7f7d0112fa23b17079c,2026-03-17_10h21.58.202,kallum_motion_pilot_GIST_update_2,2026.1.1,Win32,59.88023952,6130c7f7d0112fa23b17079c,69b92ab4aef6dee357cd729a,69b92ad3783f0f99256e0009,0.0811,0.0812,0,2,2,155,1,sixeight,,,,,,,,,,,,,,,,,,,,,,,,,,,,,,,,,,,,,,,,,,,,,,,,,,,,,,,,,,,,,,,,,,,,,,,,,,,,,,,,,,,,,,,,,,,,,,,,,,,,,,,,,,,,,,,,,,,,,,,,,,,,,,,,,,,,,,,,,
,,6130c7f7d0112fa23b17079c,2026-03-17_10h21.58.202,kallum_motion_pilot_GIST_update_2,2026.1.1,Win32,59.88023952,6130c7f7d0112fa23b17079c,69b92ab4aef6dee357cd729a,69b92ad3783f0f99256e0009,0.0818,0.0818,0,3,3,132,1,sevenfive,,,,,,,,,,,,,,,,,,,,,,,,,,,,,,,,,,,,,,,,,,,,,,,,,,,,,,,,,,,,,,,,,,,,,,,,,,,,,,,,,,,,,,,,,,,,,,,,,,,,,,,,,,,,,,,,,,,,,,,,,,,,,,,,,,,,,,,,,
,,6130c7f7d0112fa23b17079c,2026-03-17_10h21.58.202,kallum_motion_pilot_GIST_update_2,2026.1.1,Win32,59.88023952,6130c7f7d0112fa23b17079c,69b92ab4aef6dee357cd729a,69b92ad3783f0f99256e0009,0.0823,0.0824,0,4,4,52,1,threeone,,,,,,,,,,,,,,,,,,,,,,,,,,,,,,,,,,,,,,,,,,,,,,,,,,,,,,,,,,,,,,,,,,,,,,,,,,,,,,,,,,,,,,,,,,,,,,,,,,,,,,,,,,,,,,,,,,,,,,,,,,,,,,,,,,,,,,,,,
,,6130c7f7d0112fa23b17079c,2026-03-17_10h21.58.202,kallum_motion_pilot_GIST_update_2,2026.1.1,Win32,59.88023952,6130c7f7d0112fa23b17079c,69b92ab4aef6dee357cd729a,69b92ad3783f0f99256e0009,0.0828,0.0829,0,5,5,41,1,onethree,,,,,,,,,,,,,,,,,,,,,,,,,,,,,,,,,,,,,,,,,,,,,,,,,,,,,,,,,,,,,,,,,,,,,,,,,,,,,,,,,,,,,,,,,,,,,,,,,,,,,,,,,,,,,,,,,,,,,,,,,,,,,,,,,,,,,,,,,
,,6130c7f7d0112fa23b17079c,2026-03-17_10h21.58.202,kallum_motion_pilot_GIST_update_2,2026.1.1,Win32,59.88023952,6130c7f7d0112fa23b17079c,69b92ab4aef6dee357cd729a,69b92ad3783f0f99256e0009,0.0834,0.0834,0,6,6,23,1,fourthree,,,,,,,,,,,,,,,,,,,,,,,,,,,,,,,,,,,,,,,,,,,,,,,,,,,,,,,,,,,,,,,,,,,,,,,,,,,,,,,,,,,,,,,,,,,,,,,,,,,,,,,,,,,,,,,,,,,,,,,,,,,,,,,,,,,,,,,,,
,,6130c7f7d0112fa23b17079c,2026-03-17_10h21.58.202,kallum_motion_pilot_GIST_update_2,2026.1.1,Win32,59.88023952,6130c7f7d0112fa23b17079c,69b92ab4aef6dee357cd729a,69b92ad3783f0f99256e0009,0.0839,0.084,0,7,7,94,1,eightsix,,,,,,,,,,,,,,,,,,,,,,,,,,,,,,,,,,,,,,,,,,,,,,,,,,,,,,,,,,,,,,,,,,,,,,,,,,,,,,,,,,,,,,,,,,,,,,,,,,,,,,,,,,,,,,,,,,,,,,,,,,,,,,,,,,,,,,,,,
,,6130c7f7d0112fa23b17079c,2026-03-17_10h21.58.202,kallum_motion_pilot_GIST_update_2,2026.1.1,Win32,59.88023952,6130c7f7d0112fa23b17079c,69b92ab4aef6dee357cd729a,69b92ad3783f0f99256e0009,0.0846,0.0847,0,8,8,90,1,sixfive,,,,,,,,,,,,,,,,,,,,,,,,,,,,,,,,,,,,,,,,,,,,,,,,,,,,,,,,,,,,,,,,,,,,,,,,,,,,,,,,,,,,,,,,,,,,,,,,,,,,,,,,,,,,,,,,,,,,,,,,,,,,,,,,,,,,,,,,,
,,6130c7f7d0112fa23b17079c,2026-03-17_10h21.58.202,kallum_motion_pilot_GIST_update_2,2026.1.1,Win32,59.88023952,6130c7f7d0112fa23b17079c,69b92ab4aef6dee357cd729a,69b92ad3783f0f99256e0009,0.0852,0.0852,0,9,9,62,1,fourtwo,,,,,,,,,,,,,,,,,,,,,,,,,,,,,,,,,,,,,,,,,,,,,,,,,,,,,,,,,,,,,,,,,,,,,,,,,,,,,,,,,,,,,,,,,,,,,,,,,,,,,,,,,,,,,,,,,,,,,,,,,,,,,,,,,,,,,,,,,
,,6130c7f7d0112fa23b17079c,2026-03-17_10h21.58.202,kallum_motion_pilot_GIST_update_2,2026.1.1,Win32,59.88023952,6130c7f7d0112fa23b17079c,69b92ab4aef6dee357cd729a,69b92ad3783f0f99256e0009,0.0858,0.0858,0,10,10,33,1,onethree,,,,,,,,,,,,,,,,,,,,,,,,,,,,,,,,,,,,,,,,,,,,,,,,,,,,,,,,,,,,,,,,,,,,,,,,,,,,,,,,,,,,,,,,,,,,,,,,,,,,,,,,,,,,,,,,,,,,,,,,,,,,,,,,,,,,,,,,,
,,6130c7f7d0112fa23b17079c,2026-03-17_10h21.58.202,kallum_motion_pilot_GIST_update_2,2026.1.1,Win32,59.88023952,6130c7f7d0112fa23b17079c,69b92ab4aef6dee357cd729a,69b92ad3783f0f99256e0009,0.0864,0.0864,0,11,11,127,1,eightseven,,,,,,,,,,,,,,,,,,,,,,,,,,,,,,,,,,,,,,,,,,,,,,,,,,,,,,,,,,,,,,,,,,,,,,,,,,,,,,,,,,,,,,,,,,,,,,,,,,,,,,,,,,,,,,,,,,,,,,,,,,,,,,,,,,,,,,,,,
,,6130c7f7d0112fa23b17079c,2026-03-17_10h21.58.202,kallum_motion_pilot_GIST_update_2,2026.1.1,Win32,59.88023952,6130c7f7d0112fa23b17079c,69b92ab4aef6dee357cd729a,69b92ad3783f0f99256e0009,0.0868,0.0869,0,12,12,145,1,fiveseven,,,,,,,,,,,,,,,,,,,,,,,,,,,,,,,,,,,,,,,,,,,,,,,,,,,,,,,,,,,,,,,,,,,,,,,,,,,,,,,,,,,,,,,,,,,,,,,,,,,,,,,,,,,,,,,,,,,,,,,,,,,,,,,,,,,,,,,,,
,,6130c7f7d0112fa23b17079c,2026-03-17_10h21.58.202,kallum_motion_pilot_GIST_update_2,2026.1.1,Win32,59.88023952,6130c7f7d0112fa23b17079c,69b92ab4aef6dee357cd729a,69b92ad3783f0f99256e0009,0.0873,0.0874,0,13,13,73,1,onethree,,,,,,,,,,,,,,,,,,,,,,,,,,,,,,,,,,,,,,,,,,,,,,,,,,,,,,,,,,,,,,,,,,,,,,,,,,,,,,,,,,,,,,,,,,,,,,,,,,,,,,,,,,,,,,,,,,,,,,,,,,,,,,,,,,,,,,,,,
,,6130c7f7d0112fa23b17079c,2026-03-17_10h21.58.202,kallum_motion_pilot_GIST_update_2,2026.1.1,Win32,59.88023952,6130c7f7d0112fa23b17079c,69b92ab4aef6dee357cd729a,69b92ad3783f0f99256e0009,0.0878,0.0878,0,14,14,40,1,onetwo,,,,,,,,,,,,,,,,,,,,,,,,,,,,,,,,,,,,,,,,,,,,,,,,,,,,,,,,,,,,,,,,,,,,,,,,,,,,,,,,,,,,,,,,,,,,,,,,,,,,,,,,,,,,,,,,,,,,,,,,,,,,,,,,,,,,,,,,,
,,6130c7f7d0112fa23b17079c,2026-03-17_10h21.58.202,kallum_motion_pilot_GIST_update_2,2026.1.1,Win32,59.88023952,6130c7f7d0112fa23b17079c,69b92ab4aef6dee357cd729a,69b92ad3783f0f99256e0009,0.0882,0.0883,0,15,15,49,1,onethree,,,,,,,,,,,,,,,,,,,,,,,,,,,,,,,,,,,,,,,,,,,,,,,,,,,,,,,,,,,,,,,,,,,,,,,,,,,,,,,,,,,,,,,,,,,,,,,,,,,,,,,,,,,,,,,,,,,,,,,,,,,,,,,,,,,,,,,,,
,,6130c7f7d0112fa23b17079c,2026-03-17_10h21.58.202,kallum_motion_pilot_GIST_update_2,2026.1.1,Win32,59.88023952,6130c7f7d0112fa23b17079c,69b92ab4aef6dee357cd729a,69b92ad3783f0f99256e0009,0.0889,0.089,0,16,16,29,1,threefour,,,,,,,,,,,,,,,,,,,,,,,,,,,,,,,,,,,,,,,,,,,,,,,,,,,,,,,,,,,,,,,,,,,,,,,,,,,,,,,,,,,,,,,,,,,,,,,,,,,,,,,,,,,,,,,,,,,,,,,,,,,,,,,,,,,,,,,,,
,,6130c7f7d0112fa23b17079c,2026-03-17_10h21.58.202,kallum_motion_pilot_GIST_update_2,2026.1.1,Win32,59.88023952,6130c7f7d0112fa23b17079c,69b92ab4aef6dee357cd729a,69b92ad3783f0f99256e0009,0.0895,0.0895,0,17,17,117,1,seveneight,,,,,,,,,,,,,,,,,,,,,,,,,,,,,,,,,,,,,,,,,,,,,,,,,,,,,,,,,,,,,,,,,,,,,,,,,,,,,,,,,,,,,,,,,,,,,,,,,,,,,,,,,,,,,,,,,,,,,,,,,,,,,,,,,,,,,,,,,
,,6130c7f7d0112fa23b17079c,2026-03-17_10h21.58.202,kallum_motion_pilot_GIST_update_2,2026.1.1,Win32,59.88023952,6130c7f7d0112fa23b17079c,69b92ab4aef6dee357cd729a,69b92ad3783f0f99256e0009,0.0899,0.09,0,18,18,158,1,eightsix,,,,,,,,,,,,,,,,,,,,,,,,,,,,,,,,,,,,,,,,,,,,,,,,,,,,,,,,,,,,,,,,,,,,,,,,,,,,,,,,,,,,,,,,,,,,,,,,,,,,,,,,,,,,,,,,,,,,,,,,,,,,,,,,,,,,,,,,,
,,6130c7f7d0112fa23b17079c,2026-03-17_10h21.58.202,kallum_motion_pilot_GIST_update_2,2026.1.1,Win32,59.88023952,6130c7f7d0112fa23b17079c,69b92ab4aef6dee357cd729a,69b92ad3783f0f99256e0009,0.0904,0.0904,0,19,19,113,1,fiveseven,,,,,,,,,,,,,,,,,,,,,,,,,,,,,,,,,,,,,,,,,,,,,,,,,,,,,,,,,,,,,,,,,,,,,,,,,,,,,,,,,,,,,,,,,,,,,,,,,,,,,,,,,,,,,,,,,,,,,,,,,,,,,,,,,,,,,,,,,
,,6130c7f7d0112fa23b17079c,2026-03-17_10h21.58.202,kallum_motion_pilot_GIST_update_2,2026.1.1,Win32,59.88023952,6130c7f7d0112fa23b17079c,69b92ab4aef6dee357cd729a,69b92ad3783f0f99256e0009,0.0908,0.0908,0,20,20,44,1,threeone,,,,,,,,,,,,,,,,,,,,,,,,,,,,,,,,,,,,,,,,,,,,,,,,,,,,,,,,,,,,,,,,,,,,,,,,,,,,,,,,,,,,,,,,,,,,,,,,,,,,,,,,,,,,,,,,,,,,,,,,,,,,,,,,,,,,,,,,,
,,6130c7f7d0112fa23b17079c,2026-03-17_10h21.58.202,kallum_motion_pilot_GIST_update_2,2026.1.1,Win32,59.88023952,6130c7f7d0112fa23b17079c,69b92ab4aef6dee357cd729a,69b92ad3783f0f99256e0009,0.0912,0.0912,0,21,21,21,1,threefour,,,,,,,,,,,,,,,,,,,,,,,,,,,,,,,,,,,,,,,,,,,,,,,,,,,,,,,,,,,,,,,,,,,,,,,,,,,,,,,,,,,,,,,,,,,,,,,,,,,,,,,,,,,,,,,,,,,,,,,,,,,,,,,,,,,,,,,,,
,,6130c7f7d0112fa23b17079c,2026-03-17_10h21.58.202,kallum_motion_pilot_GIST_update_2,2026.1.1,Win32,59.88023952,6130c7f7d0112fa23b17079c,69b92ab4aef6dee357cd729a,69b92ad3783f0f99256e0009,0.0917,0.0917,0,22,22,84,1,sevenfive,,,,,,,,,,,,,,,,,,,,,,,,,,,,,,,,,,,,,,,,,,,,,,,,,,,,,,,,,,,,,,,,,,,,,,,,,,,,,,,,,,,,,,,,,,,,,,,,,,,,,,,,,,,,,,,,,,,,,,,,,,,,,,,,,,,,,,,,,
,,6130c7f7d0112fa23b17079c,2026-03-17_10h21.58.202,kallum_motion_pilot_GIST_update_2,2026.1.1,Win32,59.88023952,6130c7f7d0112fa23b17079c,69b92ab4aef6dee357cd729a,69b92ad3783f0f99256e0009,0.0923,0.0923,0,23,23,159,1,eightseven,,,,,,,,,,,,,,,,,,,,,,,,,,,,,,,,,,,,,,,,,,,,,,,,,,,,,,,,,,,,,,,,,,,,,,,,,,,,,,,,,,,,,,,,,,,,,,,,,,,,,,,,,,,,,,,,,,,,,,,,,,,,,,,,,,,,,,,,,
,,6130c7f7d0112fa23b17079c,2026-03-17_10h21.58.202,kallum_motion_pilot_GIST_update_2,2026.1.1,Win32,59.88023952,6130c7f7d0112fa23b17079c,69b92ab4aef6dee357cd729a,69b92ad3783f0f99256e0009,0.0928,0.0928,0,24,24,98,1,sixfive,,,,,,,,,,,,,,,,,,,,,,,,,,,,,,,,,,,,,,,,,,,,,,,,,,,,,,,,,,,,,,,,,,,,,,,,,,,,,,,,,,,,,,,,,,,,,,,,,,,,,,,,,,,,,,,,,,,,,,,,,,,,,,,,,,,,,,,,,
,,6130c7f7d0112fa23b17079c,2026-03-17_10h21.58.202,kallum_motion_pilot_GIST_update_2,2026.1.1,Win32,59.88023952,6130c7f7d0112fa23b17079c,69b92ab4aef6dee357cd729a,69b92ad3783f0f99256e0009,0.0932,0.0932,0,25,25,46,1,fourtwo,,,,,,,,,,,,,,,,,,,,,,,,,,,,,,,,,,,,,,,,,,,,,,,,,,,,,,,,,,,,,,,,,,,,,,,,,,,,,,,,,,,,,,,,,,,,,,,,,,,,,,,,,,,,,,,,,,,,,,,,,,,,,,,,,,,,,,,,,
,,6130c7f7d0112fa23b17079c,2026-03-17_10h21.58.202,kallum_motion_pilot_GIST_update_2,2026.1.1,Win32,59.88023952,6130c7f7d0112fa23b17079c,69b92ab4aef6dee357cd729a,69b92ad3783f0f99256e0009,0.0939,0.094,0,26,26,157,1,seveneight,,,,,,,,,,,,,,,,,,,,,,,,,,,,,,,,,,,,,,,,,,,,,,,,,,,,,,,,,,,,,,,,,,,,,,,,,,,,,,,,,,,,,,,,,,,,,,,,,,,,,,,,,,,,,,,,,,,,,,,,,,,,,,,,,,,,,,,,,
,,6130c7f7d0112fa23b17079c,2026-03-17_10h21.58.202,kallum_motion_pilot_GIST_update_2,2026.1.1,Win32,59.88023952,6130c7f7d0112fa23b17079c,69b92ab4aef6dee357cd729a,69b92ad3783f0f99256e0009,0.0944,0.0945,0,27,27,68,1,threeone,,,,,,,,,,,,,,,,,,,,,,,,,,,,,,,,,,,,,,,,,,,,,,,,,,,,,,,,,,,,,,,,,,,,,,,,,,,,,,,,,,,,,,,,,,,,,,,,,,,,,,,,,,,,,,,,,,,,,,,,,,,,,,,,,,,,,,,,,
,,6130c7f7d0112fa23b17079c,2026-03-17_10h21.58.202,kallum_motion_pilot_GIST_update_2,2026.1.1,Win32,59.88023952,6130c7f7d0112fa23b17079c,69b92ab4aef6dee357cd729a,69b92ad3783f0f99256e0009,0.095,0.095,0,28,28,77,1,threefour,,,,,,,,,,,,,,,,,,,,,,,,,,,,,,,,,,,,,,,,,,,,,,,,,,,,,,,,,,,,,,,,,,,,,,,,,,,,,,,,,,,,,,,,,,,,,,,,,,,,,,,,,,,,,,,,,,,,,,,,,,,,,,,,,,,,,,,,,
,,6130c7f7d0112fa23b17079c,2026-03-17_10h21.58.202,kallum_motion_pilot_GIST_update_2,2026.1.1,Win32,59.88023952,6130c7f7d0112fa23b17079c,69b92ab4aef6dee357cd729a,69b92ad3783f0f99256e0009,0.0954,0.0958,0,29,29,143,1,eightseven,,,,,,,,,,,,,,,,,,,,,,,,,,,,,,,,,,,,,,,,,,,,,,,,,,,,,,,,,,,,,,,,,,,,,,,,,,,,,,,,,,,,,,,,,,,,,,,,,,,,,,,,,,,,,,,,,,,,,,,,,,,,,,,,,,,,,,,,,
,,6130c7f7d0112fa23b17079c,2026-03-17_10h21.58.202,kallum_motion_pilot_GIST_update_2,2026.1.1,Win32,59.88023952,6130c7f7d0112fa23b17079c,69b92ab4aef6dee357cd729a,69b92ad3783f0f99256e0009,0.0962,0.0962,0,30,30,147,1,sixeight,,,,,,,,,,,,,,,,,,,,,,,,,,,,,,,,,,,,,,,,,,,,,,,,,,,,,,,,,,,,,,,,,,,,,,,,,,,,,,,,,,,,,,,,,,,,,,,,,,,,,,,,,,,,,,,,,,,,,,,,,,,,,,,,,,,,,,,,,
,,6130c7f7d0112fa23b17079c,2026-03-17_10h21.58.202,kallum_motion_pilot_GIST_update_2,2026.1.1,Win32,59.88023952,6130c7f7d0112fa23b17079c,69b92ab4aef6dee357cd729a,69b92ad3783f0f99256e0009,0.0966,0.0966,0,31,31,116,1,sevenfive,,,,,,,,,,,,,,,,,,,,,,,,,,,,,,,,,,,,,,,,,,,,,,,,,,,,,,,,,,,,,,,,,,,,,,,,,,,,,,,,,,,,,,,,,,,,,,,,,,,,,,,,,,,,,,,,,,,,,,,,,,,,,,,,,,,,,,,,,
,,6130c7f7d0112fa23b17079c,2026-03-17_10h21.58.202,kallum_motion_pilot_GIST_update_2,2026.1.1,Win32,59.88023952,6130c7f7d0112fa23b17079c,69b92ab4aef6dee357cd729a,69b92ad3783f0f99256e0009,0.0971,0.0971,0,32,32,81,1,fiveseven,,,,,,,,,,,,,,,,,,,,,,,,,,,,,,,,,,,,,,,,,,,,,,,,,,,,,,,,,,,,,,,,,,,,,,,,,,,,,,,,,,,,,,,,,,,,,,,,,,,,,,,,,,,,,,,,,,,,,,,,,,,,,,,,,,,,,,,,,
,,6130c7f7d0112fa23b17079c,2026-03-17_10h21.58.202,kallum_motion_pilot_GIST_update_2,2026.1.1,Win32,59.88023952,6130c7f7d0112fa23b17079c,69b92ab4aef6dee357cd729a,69b92ad3783f0f99256e0009,0.0975,0.0976,0,33,33,19,1,twofour,,,,,,,,,,,,,,,,,,,,,,,,,,,,,,,,,,,,,,,,,,,,,,,,,,,,,,,,,,,,,,,,,,,,,,,,,,,,,,,,,,,,,,,,,,,,,,,,,,,,,,,,,,,,,,,,,,,,,,,,,,,,,,,,,,,,,,,,,
,,6130c7f7d0112fa23b17079c,2026-03-17_10h21.58.202,kallum_motion_pilot_GIST_update_2,2026.1.1,Win32,59.88023952,6130c7f7d0112fa23b17079c,69b92ab4aef6dee357cd729a,69b92ad3783f0f99256e0009,0.098,0.098,0,34,34,156,1,sevenfive,,,,,,,,,,,,,,,,,,,,,,,,,,,,,,,,,,,,,,,,,,,,,,,,,,,,,,,,,,,,,,,,,,,,,,,,,,,,,,,,,,,,,,,,,,,,,,,,,,,,,,,,,,,,,,,,,,,,,,,,,,,,,,,,,,,,,,,,,
,,6130c7f7d0112fa23b17079c,2026-03-17_10h21.58.202,kallum_motion_pilot_GIST_update_2,2026.1.1,Win32,59.88023952,6130c7f7d0112fa23b17079c,69b92ab4aef6dee357cd729a,69b92ad3783f0f99256e0009,0.0985,0.0985,0,35,35,103,1,eightseven,,,,,,,,,,,,,,,,,,,,,,,,,,,,,,,,,,,,,,,,,,,,,,,,,,,,,,,,,,,,,,,,,,,,,,,,,,,,,,,,,,,,,,,,,,,,,,,,,,,,,,,,,,,,,,,,,,,,,,,,,,,,,,,,,,,,,,,,,
,,6130c7f7d0112fa23b17079c,2026-03-17_10h21.58.202,kallum_motion_pilot_GIST_update_2,2026.1.1,Win32,59.88023952,6130c7f7d0112fa23b17079c,69b92ab4aef6dee357cd729a,69b92ad3783f0f99256e0009,0.0991,0.0991,0,36,36,133,1,seveneight,,,,,,,,,,,,,,,,,,,,,,,,,,,,,,,,,,,,,,,,,,,,,,,,,,,,,,,,,,,,,,,,,,,,,,,,,,,,,,,,,,,,,,,,,,,,,,,,,,,,,,,,,,,,,,,,,,,,,,,,,,,,,,,,,,,,,,,,,
,,6130c7f7d0112fa23b17079c,2026-03-17_10h21.58.202,kallum_motion_pilot_GIST_update_2,2026.1.1,Win32,59.88023952,6130c7f7d0112fa23b17079c,69b92ab4aef6dee357cd729a,69b92ad3783f0f99256e0009,0.0995,0.0995,0,37,37,122,1,sixfive,,,,,,,,,,,,,,,,,,,,,,,,,,,,,,,,,,,,,,,,,,,,,,,,,,,,,,,,,,,,,,,,,,,,,,,,,,,,,,,,,,,,,,,,,,,,,,,,,,,,,,,,,,,,,,,,,,,,,,,,,,,,,,,,,,,,,,,,,
,,6130c7f7d0112fa23b17079c,2026-03-17_10h21.58.202,kallum_motion_pilot_GIST_update_2,2026.1.1,Win32,59.88023952,6130c7f7d0112fa23b17079c,69b92ab4aef6dee357cd729a,69b92ad3783f0f99256e0009,0.1,0.1,0,38,38,7,1,fourthree,,,,,,,,,,,,,,,,,,,,,,,,,,,,,,,,,,,,,,,,,,,,,,,,,,,,,,,,,,,,,,,,,,,,,,,,,,,,,,,,,,,,,,,,,,,,,,,,,,,,,,,,,,,,,,,,,,,,,,,,,,,,,,,,,,,,,,,,,
,,6130c7f7d0112fa23b17079c,2026-03-17_10h21.58.202,kallum_motion_pilot_GIST_update_2,2026.1.1,Win32,59.88023952,6130c7f7d0112fa23b17079c,69b92ab4aef6dee357cd729a,69b92ad3783f0f99256e0009,0.1004,0.1004,0,39,39,92,1,sevenfive,,,,,,,,,,,,,,,,,,,,,,,,,,,,,,,,,,,,,,,,,,,,,,,,,,,,,,,,,,,,,,,,,,,,,,,,,,,,,,,,,,,,,,,,,,,,,,,,,,,,,,,,,,,,,,,,,,,,,,,,,,,,,,,,,,,,,,,,,
,,6130c7f7d0112fa23b17079c,2026-03-17_10h21.58.202,kallum_motion_pilot_GIST_update_2,2026.1.1,Win32,59.88023952,6130c7f7d0112fa23b17079c,69b92ab4aef6dee357cd729a,69b92ad3783f0f99256e0009,0.1009,0.101,0,40,40,111,1,eightseven,,,,,,,,,,,,,,,,,,,,,,,,,,,,,,,,,,,,,,,,,,,,,,,,,,,,,,,,,,,,,,,,,,,,,,,,,,,,,,,,,,,,,,,,,,,,,,,,,,,,,,,,,,,,,,,,,,,,,,,,,,,,,,,,,,,,,,,,,
,,6130c7f7d0112fa23b17079c,2026-03-17_10h21.58.202,kallum_motion_pilot_GIST_update_2,2026.1.1,Win32,59.88023952,6130c7f7d0112fa23b17079c,69b92ab4aef6dee357cd729a,69b92ad3783f0f99256e0009,0.1013,0.1013,0,41,41,142,1,eightsix,,,,,,,,,,,,,,,,,,,,,,,,,,,,,,,,,,,,,,,,,,,,,,,,,,,,,,,,,,,,,,,,,,,,,,,,,,,,,,,,,,,,,,,,,,,,,,,,,,,,,,,,,,,,,,,,,,,,,,,,,,,,,,,,,,,,,,,,,
,,6130c7f7d0112fa23b17079c,2026-03-17_10h21.58.202,kallum_motion_pilot_GIST_update_2,2026.1.1,Win32,59.88023952,6130c7f7d0112fa23b17079c,69b92ab4aef6dee357cd729a,69b92ad3783f0f99256e0009,0.1018,0.1018,0,42,42,86,1,eightsix,,,,,,,,,,,,,,,,,,,,,,,,,,,,,,,,,,,,,,,,,,,,,,,,,,,,,,,,,,,,,,,,,,,,,,,,,,,,,,,,,,,,,,,,,,,,,,,,,,,,,,,,,,,,,,,,,,,,,,,,,,,,,,,,,,,,,,,,,
,,6130c7f7d0112fa23b17079c,2026-03-17_10h21.58.202,kallum_motion_pilot_GIST_update_2,2026.1.1,Win32,59.88023952,6130c7f7d0112fa23b17079c,69b92ab4aef6dee357cd729a,69b92ad3783f0f99256e0009,0.1023,0.1023,0,43,43,95,1,eightseven,,,,,,,,,,,,,,,,,,,,,,,,,,,,,,,,,,,,,,,,,,,,,,,,,,,,,,,,,,,,,,,,,,,,,,,,,,,,,,,,,,,,,,,,,,,,,,,,,,,,,,,,,,,,,,,,,,,,,,,,,,,,,,,,,,,,,,,,,
,,6130c7f7d0112fa23b17079c,2026-03-17_10h21.58.202,kallum_motion_pilot_GIST_update_2,2026.1.1,Win32,59.88023952,6130c7f7d0112fa23b17079c,69b92ab4aef6dee357cd729a,69b92ad3783f0f99256e0009,0.1028,0.1028,0,44,44,60,1,threeone,,,,,,,,,,,,,,,,,,,,,,,,,,,,,,,,,,,,,,,,,,,,,,,,,,,,,,,,,,,,,,,,,,,,,,,,,,,,,,,,,,,,,,,,,,,,,,,,,,,,,,,,,,,,,,,,,,,,,,,,,,,,,,,,,,,,,,,,,
,,6130c7f7d0112fa23b17079c,2026-03-17_10h21.58.202,kallum_motion_pilot_GIST_update_2,2026.1.1,Win32,59.88023952,6130c7f7d0112fa23b17079c,69b92ab4aef6dee357cd729a,69b92ad3783f0f99256e0009,0.1034,0.1034,0,45,45,104,1,fivesix,,,,,,,,,,,,,,,,,,,,,,,,,,,,,,,,,,,,,,,,,,,,,,,,,,,,,,,,,,,,,,,,,,,,,,,,,,,,,,,,,,,,,,,,,,,,,,,,,,,,,,,,,,,,,,,,,,,,,,,,,,,,,,,,,,,,,,,,,
,,6130c7f7d0112fa23b17079c,2026-03-17_10h21.58.202,kallum_motion_pilot_GIST_update_2,2026.1.1,Win32,59.88023952,6130c7f7d0112fa23b17079c,69b92ab4aef6dee357cd729a,69b92ad3783f0f99256e0009,0.1039,0.1039,0,46,46,61,1,threefour,,,,,,,,,,,,,,,,,,,,,,,,,,,,,,,,,,,,,,,,,,,,,,,,,,,,,,,,,,,,,,,,,,,,,,,,,,,,,,,,,,,,,,,,,,,,,,,,,,,,,,,,,,,,,,,,,,,,,,,,,,,,,,,,,,,,,,,,,
,,6130c7f7d0112fa23b17079c,2026-03-17_10h21.58.202,kallum_motion_pilot_GIST_update_2,2026.1.1,Win32,59.88023952,6130c7f7d0112fa23b17079c,69b92ab4aef6dee357cd729a,69b92ad3783f0f99256e0009,0.1043,0.1043,0,47,47,100,1,sevenfive,,,,,,,,,,,,,,,,,,,,,,,,,,,,,,,,,,,,,,,,,,,,,,,,,,,,,,,,,,,,,,,,,,,,,,,,,,,,,,,,,,,,,,,,,,,,,,,,,,,,,,,,,,,,,,,,,,,,,,,,,,,,,,,,,,,,,,,,,
,,6130c7f7d0112fa23b17079c,2026-03-17_10h21.58.202,kallum_motion_pilot_GIST_update_2,2026.1.1,Win32,59.88023952,6130c7f7d0112fa23b17079c,69b92ab4aef6dee357cd729a,69b92ad3783f0f99256e0009,0.1048,0.1048,0,48,48,58,1,twoone,,,,,,,,,,,,,,,,,,,,,,,,,,,,,,,,,,,,,,,,,,,,,,,,,,,,,,,,,,,,,,,,,,,,,,,,,,,,,,,,,,,,,,,,,,,,,,,,,,,,,,,,,,,,,,,,,,,,,,,,,,,,,,,,,,,,,,,,,
,,6130c7f7d0112fa23b17079c,2026-03-17_10h21.58.202,kallum_motion_pilot_GIST_update_2,2026.1.1,Win32,59.88023952,6130c7f7d0112fa23b17079c,69b92ab4aef6dee357cd729a,69b92ad3783f0f99256e0009,0.1053,0.1053,0,49,49,150,1,eightsix,,,,,,,,,,,,,,,,,,,,,,,,,,,,,,,,,,,,,,,,,,,,,,,,,,,,,,,,,,,,,,,,,,,,,,,,,,,,,,,,,,,,,,,,,,,,,,,,,,,,,,,,,,,,,,,,,,,,,,,,,,,,,,,,,,,,,,,,,
,,6130c7f7d0112fa23b17079c,2026-03-17_10h21.58.202,kallum_motion_pilot_GIST_update_2,2026.1.1,Win32,59.88023952,6130c7f7d0112fa23b17079c,69b92ab4aef6dee357cd729a,69b92ad3783f0f99256e0009,0.1059,0.1059,0,50,50,161,1,fiveseven,,,,,,,,,,,,,,,,,,,,,,,,,,,,,,,,,,,,,,,,,,,,,,,,,,,,,,,,,,,,,,,,,,,,,,,,,,,,,,,,,,,,,,,,,,,,,,,,,,,,,,,,,,,,,,,,,,,,,,,,,,,,,,,,,,,,,,,,,
,,6130c7f7d0112fa23b17079c,2026-03-17_10h21.58.202,kallum_motion_pilot_GIST_update_2,2026.1.1,Win32,59.88023952,6130c7f7d0112fa23b17079c,69b92ab4aef6dee357cd729a,69b92ad3783f0f99256e0009,0.1063,0.1064,0,51,51,110,1,eightsix,,,,,,,,,,,,,,,,,,,,,,,,,,,,,,,,,,,,,,,,,,,,,,,,,,,,,,,,,,,,,,,,,,,,,,,,,,,,,,,,,,,,,,,,,,,,,,,,,,,,,,,,,,,,,,,,,,,,,,,,,,,,,,,,,,,,,,,,,
,,6130c7f7d0112fa23b17079c,2026-03-17_10h21.58.202,kallum_motion_pilot_GIST_update_2,2026.1.1,Win32,59.88023952,6130c7f7d0112fa23b17079c,69b92ab4aef6dee357cd729a,69b92ad3783f0f99256e0009,0.1069,0.1069,0,52,52,16,1,onetwo,,,,,,,,,,,,,,,,,,,,,,,,,,,,,,,,,,,,,,,,,,,,,,,,,,,,,,,,,,,,,,,,,,,,,,,,,,,,,,,,,,,,,,,,,,,,,,,,,,,,,,,,,,,,,,,,,,,,,,,,,,,,,,,,,,,,,,,,,
,,6130c7f7d0112fa23b17079c,2026-03-17_10h21.58.202,kallum_motion_pilot_GIST_update_2,2026.1.1,Win32,59.88023952,6130c7f7d0112fa23b17079c,69b92ab4aef6dee357cd729a,69b92ad3783f0f99256e0009,0.1074,0.1074,0,53,53,2,1,twoone,,,,,,,,,,,,,,,,,,,,,,,,,,,,,,,,,,,,,,,,,,,,,,,,,,,,,,,,,,,,,,,,,,,,,,,,,,,,,,,,,,,,,,,,,,,,,,,,,,,,,,,,,,,,,,,,,,,,,,,,,,,,,,,,,,,,,,,,,
,,6130c7f7d0112fa23b17079c,2026-03-17_10h21.58.202,kallum_motion_pilot_GIST_update_2,2026.1.1,Win32,59.88023952,6130c7f7d0112fa23b17079c,69b92ab4aef6dee357cd729a,69b92ad3783f0f99256e0009,0.1079,0.108,0,54,54,28,1,threeone,,,,,,,,,,,,,,,,,,,,,,,,,,,,,,,,,,,,,,,,,,,,,,,,,,,,,,,,,,,,,,,,,,,,,,,,,,,,,,,,,,,,,,,,,,,,,,,,,,,,,,,,,,,,,,,,,,,,,,,,,,,,,,,,,,,,,,,,,
,,6130c7f7d0112fa23b17079c,2026-03-17_10h21.58.202,kallum_motion_pilot_GIST_update_2,2026.1.1,Win32,59.88023952,6130c7f7d0112fa23b17079c,69b92ab4aef6dee357cd729a,69b92ad3783f0f99256e0009,0.1083,0.1083,0,55,55,50,1,twoone,,,,,,,,,,,,,,,,,,,,,,,,,,,,,,,,,,,,,,,,,,,,,,,,,,,,,,,,,,,,,,,,,,,,,,,,,,,,,,,,,,,,,,,,,,,,,,,,,,,,,,,,,,,,,,,,,,,,,,,,,,,,,,,,,,,,,,,,,
,,6130c7f7d0112fa23b17079c,2026-03-17_10h21.58.202,kallum_motion_pilot_GIST_update_2,2026.1.1,Win32,59.88023952,6130c7f7d0112fa23b17079c,69b92ab4aef6dee357cd729a,69b92ad3783f0f99256e0009,0.1089,0.1089,0,56,56,34,1,twoone,,,,,,,,,,,,,,,,,,,,,,,,,,,,,,,,,,,,,,,,,,,,,,,,,,,,,,,,,,,,,,,,,,,,,,,,,,,,,,,,,,,,,,,,,,,,,,,,,,,,,,,,,,,,,,,,,,,,,,,,,,,,,,,,,,,,,,,,,
,,6130c7f7d0112fa23b17079c,2026-03-17_10h21.58.202,kallum_motion_pilot_GIST_update_2,2026.1.1,Win32,59.88023952,6130c7f7d0112fa23b17079c,69b92ab4aef6dee357cd729a,69b92ad3783f0f99256e0009,0.1094,0.1094,0,57,57,108,1,sevenfive,,,,,,,,,,,,,,,,,,,,,,,,,,,,,,,,,,,,,,,,,,,,,,,,,,,,,,,,,,,,,,,,,,,,,,,,,,,,,,,,,,,,,,,,,,,,,,,,,,,,,,,,,,,,,,,,,,,,,,,,,,,,,,,,,,,,,,,,,
,,6130c7f7d0112fa23b17079c,2026-03-17_10h21.58.202,kallum_motion_pilot_GIST_update_2,2026.1.1,Win32,59.88023952,6130c7f7d0112fa23b17079c,69b92ab4aef6dee357cd729a,69b92ad3783f0f99256e0009,0.11,0.11,0,58,58,130,1,sixfive,,,,,,,,,,,,,,,,,,,,,,,,,,,,,,,,,,,,,,,,,,,,,,,,,,,,,,,,,,,,,,,,,,,,,,,,,,,,,,,,,,,,,,,,,,,,,,,,,,,,,,,,,,,,,,,,,,,,,,,,,,,,,,,,,,,,,,,,,
,,6130c7f7d0112fa23b17079c,2026-03-17_10h21.58.202,kallum_motion_pilot_GIST_update_2,2026.1.1,Win32,59.88023952,6130c7f7d0112fa23b17079c,69b92ab4aef6dee357cd729a,69b92ad3783f0f99256e0009,0.1104,0.1104,0,59,59,27,1,twofour,,,,,,,,,,,,,,,,,,,,,,,,,,,,,,,,,,,,,,,,,,,,,,,,,,,,,,,,,,,,,,,,,,,,,,,,,,,,,,,,,,,,,,,,,,,,,,,,,,,,,,,,,,,,,,,,,,,,,,,,,,,,,,,,,,,,,,,,,
,,6130c7f7d0112fa23b17079c,2026-03-17_10h21.58.202,kallum_motion_pilot_GIST_update_2,2026.1.1,Win32,59.88023952,6130c7f7d0112fa23b17079c,69b92ab4aef6dee357cd729a,69b92ad3783f0f99256e0009,0.1111,0.1112,0,60,60,80,1,fivesix,,,,,,,,,,,,,,,,,,,,,,,,,,,,,,,,,,,,,,,,,,,,,,,,,,,,,,,,,,,,,,,,,,,,,,,,,,,,,,,,,,,,,,,,,,,,,,,,,,,,,,,,,,,,,,,,,,,,,,,,,,,,,,,,,,,,,,,,,
,,6130c7f7d0112fa23b17079c,2026-03-17_10h21.58.202,kallum_motion_pilot_GIST_update_2,2026.1.1,Win32,59.88023952,6130c7f7d0112fa23b17079c,69b92ab4aef6dee357cd729a,69b92ad3783f0f99256e0009,0.1116,0.1117,0,61,61,82,1,sixfive,,,,,,,,,,,,,,,,,,,,,,,,,,,,,,,,,,,,,,,,,,,,,,,,,,,,,,,,,,,,,,,,,,,,,,,,,,,,,,,,,,,,,,,,,,,,,,,,,,,,,,,,,,,,,,,,,,,,,,,,,,,,,,,,,,,,,,,,,
,,6130c7f7d0112fa23b17079c,2026-03-17_10h21.58.202,kallum_motion_pilot_GIST_update_2,2026.1.1,Win32,59.88023952,6130c7f7d0112fa23b17079c,69b92ab4aef6dee357cd729a,69b92ad3783f0f99256e0009,0.1122,0.1122,0,62,62,9,1,onethree,,,,,,,,,,,,,,,,,,,,,,,,,,,,,,,,,,,,,,,,,,,,,,,,,,,,,,,,,,,,,,,,,,,,,,,,,,,,,,,,,,,,,,,,,,,,,,,,,,,,,,,,,,,,,,,,,,,,,,,,,,,,,,,,,,,,,,,,,
,,6130c7f7d0112fa23b17079c,2026-03-17_10h21.58.202,kallum_motion_pilot_GIST_update_2,2026.1.1,Win32,59.88023952,6130c7f7d0112fa23b17079c,69b92ab4aef6dee357cd729a,69b92ad3783f0f99256e0009,0.1128,0.1128,0,63,63,154,1,sixfive,,,,,,,,,,,,,,,,,,,,,,,,,,,,,,,,,,,,,,,,,,,,,,,,,,,,,,,,,,,,,,,,,,,,,,,,,,,,,,,,,,,,,,,,,,,,,,,,,,,,,,,,,,,,,,,,,,,,,,,,,,,,,,,,,,,,,,,,,
,,6130c7f7d0112fa23b17079c,2026-03-17_10h21.58.202,kallum_motion_pilot_GIST_update_2,2026.1.1,Win32,59.88023952,6130c7f7d0112fa23b17079c,69b92ab4aef6dee357cd729a,69b92ad3783f0f99256e0009,0.1134,0.1134,0,64,64,66,1,twoone,,,,,,,,,,,,,,,,,,,,,,,,,,,,,,,,,,,,,,,,,,,,,,,,,,,,,,,,,,,,,,,,,,,,,,,,,,,,,,,,,,,,,,,,,,,,,,,,,,,,,,,,,,,,,,,,,,,,,,,,,,,,,,,,,,,,,,,,,
,,6130c7f7d0112fa23b17079c,2026-03-17_10h21.58.202,kallum_motion_pilot_GIST_update_2,2026.1.1,Win32,59.88023952,6130c7f7d0112fa23b17079c,69b92ab4aef6dee357cd729a,69b92ad3783f0f99256e0009,0.114,0.114,0,65,65,152,1,fivesix,,,,,,,,,,,,,,,,,,,,,,,,,,,,,,,,,,,,,,,,,,,,,,,,,,,,,,,,,,,,,,,,,,,,,,,,,,,,,,,,,,,,,,,,,,,,,,,,,,,,,,,,,,,,,,,,,,,,,,,,,,,,,,,,,,,,,,,,,
,,6130c7f7d0112fa23b17079c,2026-03-17_10h21.58.202,kallum_motion_pilot_GIST_update_2,2026.1.1,Win32,59.88023952,6130c7f7d0112fa23b17079c,69b92ab4aef6dee357cd729a,69b92ad3783f0f99256e0009,0.1146,0.1146,0,66,66,107,1,sixeight,,,,,,,,,,,,,,,,,,,,,,,,,,,,,,,,,,,,,,,,,,,,,,,,,,,,,,,,,,,,,,,,,,,,,,,,,,,,,,,,,,,,,,,,,,,,,,,,,,,,,,,,,,,,,,,,,,,,,,,,,,,,,,,,,,,,,,,,,
,,6130c7f7d0112fa23b17079c,2026-03-17_10h21.58.202,kallum_motion_pilot_GIST_update_2,2026.1.1,Win32,59.88023952,6130c7f7d0112fa23b17079c,69b92ab4aef6dee357cd729a,69b92ad3783f0f99256e0009,0.1151,0.1151,0,67,67,11,1,twofour,,,,,,,,,,,,,,,,,,,,,,,,,,,,,,,,,,,,,,,,,,,,,,,,,,,,,,,,,,,,,,,,,,,,,,,,,,,,,,,,,,,,,,,,,,,,,,,,,,,,,,,,,,,,,,,,,,,,,,,,,,,,,,,,,,,,,,,,,
,,6130c7f7d0112fa23b17079c,2026-03-17_10h21.58.202,kallum_motion_pilot_GIST_update_2,2026.1.1,Win32,59.88023952,6130c7f7d0112fa23b17079c,69b92ab4aef6dee357cd729a,69b92ad3783f0f99256e0009,0.1158,0.116,0,68,68,1,1,onethree,,,,,,,,,,,,,,,,,,,,,,,,,,,,,,,,,,,,,,,,,,,,,,,,,,,,,,,,,,,,,,,,,,,,,,,,,,,,,,,,,,,,,,,,,,,,,,,,,,,,,,,,,,,,,,,,,,,,,,,,,,,,,,,,,,,,,,,,,
,,6130c7f7d0112fa23b17079c,2026-03-17_10h21.58.202,kallum_motion_pilot_GIST_update_2,2026.1.1,Win32,59.88023952,6130c7f7d0112fa23b17079c,69b92ab4aef6dee357cd729a,69b92ad3783f0f99256e0009,0.1163,0.1164,0,69,69,146,1,sixfive,,,,,,,,,,,,,,,,,,,,,,,,,,,,,,,,,,,,,,,,,,,,,,,,,,,,,,,,,,,,,,,,,,,,,,,,,,,,,,,,,,,,,,,,,,,,,,,,,,,,,,,,,,,,,,,,,,,,,,,,,,,,,,,,,,,,,,,,,
,,6130c7f7d0112fa23b17079c,2026-03-17_10h21.58.202,kallum_motion_pilot_GIST_update_2,2026.1.1,Win32,59.88023952,6130c7f7d0112fa23b17079c,69b92ab4aef6dee357cd729a,69b92ad3783f0f99256e0009,0.1169,0.1169,0,70,70,79,1,eightseven,,,,,,,,,,,,,,,,,,,,,,,,,,,,,,,,,,,,,,,,,,,,,,,,,,,,,,,,,,,,,,,,,,,,,,,,,,,,,,,,,,,,,,,,,,,,,,,,,,,,,,,,,,,,,,,,,,,,,,,,,,,,,,,,,,,,,,,,,
,,6130c7f7d0112fa23b17079c,2026-03-17_10h21.58.202,kallum_motion_pilot_GIST_update_2,2026.1.1,Win32,59.88023952,6130c7f7d0112fa23b17079c,69b92ab4aef6dee357cd729a,69b92ad3783f0f99256e0009,0.1172,0.1173,0,71,71,106,1,sixfive,,,,,,,,,,,,,,,,,,,,,,,,,,,,,,,,,,,,,,,,,,,,,,,,,,,,,,,,,,,,,,,,,,,,,,,,,,,,,,,,,,,,,,,,,,,,,,,,,,,,,,,,,,,,,,,,,,,,,,,,,,,,,,,,,,,,,,,,,
,,6130c7f7d0112fa23b17079c,2026-03-17_10h21.58.202,kallum_motion_pilot_GIST_update_2,2026.1.1,Win32,59.88023952,6130c7f7d0112fa23b17079c,69b92ab4aef6dee357cd729a,69b92ad3783f0f99256e0009,0.1178,0.1179,0,72,72,126,1,eightsix,,,,,,,,,,,,,,,,,,,,,,,,,,,,,,,,,,,,,,,,,,,,,,,,,,,,,,,,,,,,,,,,,,,,,,,,,,,,,,,,,,,,,,,,,,,,,,,,,,,,,,,,,,,,,,,,,,,,,,,,,,,,,,,,,,,,,,,,,
,,6130c7f7d0112fa23b17079c,2026-03-17_10h21.58.202,kallum_motion_pilot_GIST_update_2,2026.1.1,Win32,59.88023952,6130c7f7d0112fa23b17079c,69b92ab4aef6dee357cd729a,69b92ad3783f0f99256e0009,0.1183,0.1183,0,73,73,43,1,twofour,,,,,,,,,,,,,,,,,,,,,,,,,,,,,,,,,,,,,,,,,,,,,,,,,,,,,,,,,,,,,,,,,,,,,,,,,,,,,,,,,,,,,,,,,,,,,,,,,,,,,,,,,,,,,,,,,,,,,,,,,,,,,,,,,,,,,,,,,
,,6130c7f7d0112fa23b17079c,2026-03-17_10h21.58.202,kallum_motion_pilot_GIST_update_2,2026.1.1,Win32,59.88023952,6130c7f7d0112fa23b17079c,69b92ab4aef6dee357cd729a,69b92ad3783f0f99256e0009,0.1189,0.119,0,74,74,97,1,fiveseven,,,,,,,,,,,,,,,,,,,,,,,,,,,,,,,,,,,,,,,,,,,,,,,,,,,,,,,,,,,,,,,,,,,,,,,,,,,,,,,,,,,,,,,,,,,,,,,,,,,,,,,,,,,,,,,,,,,,,,,,,,,,,,,,,,,,,,,,,
,,6130c7f7d0112fa23b17079c,2026-03-17_10h21.58.202,kallum_motion_pilot_GIST_update_2,2026.1.1,Win32,59.88023952,6130c7f7d0112fa23b17079c,69b92ab4aef6dee357cd729a,69b92ad3783f0f99256e0009,0.1195,0.1195,0,75,75,39,1,fourthree,,,,,,,,,,,,,,,,,,,,,,,,,,,,,,,,,,,,,,,,,,,,,,,,,,,,,,,,,,,,,,,,,,,,,,,,,,,,,,,,,,,,,,,,,,,,,,,,,,,,,,,,,,,,,,,,,,,,,,,,,,,,,,,,,,,,,,,,,
,,6130c7f7d0112fa23b17079c,2026-03-17_10h21.58.202,kallum_motion_pilot_GIST_update_2,2026.1.1,Win32,59.88023952,6130c7f7d0112fa23b17079c,69b92ab4aef6dee357cd729a,69b92ad3783f0f99256e0009,0.12,0.1202,0,76,76,59,1,twofour,,,,,,,,,,,,,,,,,,,,,,,,,,,,,,,,,,,,,,,,,,,,,,,,,,,,,,,,,,,,,,,,,,,,,,,,,,,,,,,,,,,,,,,,,,,,,,,,,,,,,,,,,,,,,,,,,,,,,,,,,,,,,,,,,,,,,,,,,
,,6130c7f7d0112fa23b17079c,2026-03-17_10h21.58.202,kallum_motion_pilot_GIST_update_2,2026.1.1,Win32,59.88023952,6130c7f7d0112fa23b17079c,69b92ab4aef6dee357cd729a,69b92ad3783f0f99256e0009,0.1208,0.1208,0,77,77,139,1,sixeight,,,,,,,,,,,,,,,,,,,,,,,,,,,,,,,,,,,,,,,,,,,,,,,,,,,,,,,,,,,,,,,,,,,,,,,,,,,,,,,,,,,,,,,,,,,,,,,,,,,,,,,,,,,,,,,,,,,,,,,,,,,,,,,,,,,,,,,,,
,,6130c7f7d0112fa23b17079c,2026-03-17_10h21.58.202,kallum_motion_pilot_GIST_update_2,2026.1.1,Win32,59.88023952,6130c7f7d0112fa23b17079c,69b92ab4aef6dee357cd729a,69b92ad3783f0f99256e0009,0.1213,0.1213,0,78,78,22,1,fourtwo,,,,,,,,,,,,,,,,,,,,,,,,,,,,,,,,,,,,,,,,,,,,,,,,,,,,,,,,,,,,,,,,,,,,,,,,,,,,,,,,,,,,,,,,,,,,,,,,,,,,,,,,,,,,,,,,,,,,,,,,,,,,,,,,,,,,,,,,,
,,6130c7f7d0112fa23b17079c,2026-03-17_10h21.58.202,kallum_motion_pilot_GIST_update_2,2026.1.1,Win32,59.88023952,6130c7f7d0112fa23b17079c,69b92ab4aef6dee357cd729a,69b92ad3783f0f99256e0009,0.122,0.122,0,79,79,119,1,eightseven,,,,,,,,,,,,,,,,,,,,,,,,,,,,,,,,,,,,,,,,,,,,,,,,,,,,,,,,,,,,,,,,,,,,,,,,,,,,,,,,,,,,,,,,,,,,,,,,,,,,,,,,,,,,,,,,,,,,,,,,,,,,,,,,,,,,,,,,,
,,6130c7f7d0112fa23b17079c,2026-03-17_10h21.58.202,kallum_motion_pilot_GIST_update_2,2026.1.1,Win32,59.88023952,6130c7f7d0112fa23b17079c,69b92ab4aef6dee357cd729a,69b92ad3783f0f99256e0009,0.1224,0.1225,0,80,80,57,1,onethree,,,,,,,,,,,,,,,,,,,,,,,,,,,,,,,,,,,,,,,,,,,,,,,,,,,,,,,,,,,,,,,,,,,,,,,,,,,,,,,,,,,,,,,,,,,,,,,,,,,,,,,,,,,,,,,,,,,,,,,,,,,,,,,,,,,,,,,,,
,,6130c7f7d0112fa23b17079c,2026-03-17_10h21.58.202,kallum_motion_pilot_GIST_update_2,2026.1.1,Win32,59.88023952,6130c7f7d0112fa23b17079c,69b92ab4aef6dee357cd729a,69b92ad3783f0f99256e0009,0.1229,0.1229,0,81,81,70,1,fourtwo,,,,,,,,,,,,,,,,,,,,,,,,,,,,,,,,,,,,,,,,,,,,,,,,,,,,,,,,,,,,,,,,,,,,,,,,,,,,,,,,,,,,,,,,,,,,,,,,,,,,,,,,,,,,,,,,,,,,,,,,,,,,,,,,,,,,,,,,,
,,6130c7f7d0112fa23b17079c,2026-03-17_10h21.58.202,kallum_motion_pilot_GIST_update_2,2026.1.1,Win32,59.88023952,6130c7f7d0112fa23b17079c,69b92ab4aef6dee357cd729a,69b92ad3783f0f99256e0009,0.1234,0.1234,0,82,82,6,1,fourtwo,,,,,,,,,,,,,,,,,,,,,,,,,,,,,,,,,,,,,,,,,,,,,,,,,,,,,,,,,,,,,,,,,,,,,,,,,,,,,,,,,,,,,,,,,,,,,,,,,,,,,,,,,,,,,,,,,,,,,,,,,,,,,,,,,,,,,,,,,
,,6130c7f7d0112fa23b17079c,2026-03-17_10h21.58.202,kallum_motion_pilot_GIST_update_2,2026.1.1,Win32,59.88023952,6130c7f7d0112fa23b17079c,69b92ab4aef6dee357cd729a,69b92ad3783f0f99256e0009,0.1239,0.1239,0,83,83,12,1,threeone,,,,,,,,,,,,,,,,,,,,,,,,,,,,,,,,,,,,,,,,,,,,,,,,,,,,,,,,,,,,,,,,,,,,,,,,,,,,,,,,,,,,,,,,,,,,,,,,,,,,,,,,,,,,,,,,,,,,,,,,,,,,,,,,,,,,,,,,,
,,6130c7f7d0112fa23b17079c,2026-03-17_10h21.58.202,kallum_motion_pilot_GIST_update_2,2026.1.1,Win32,59.88023952,6130c7f7d0112fa23b17079c,69b92ab4aef6dee357cd729a,69b92ad3783f0f99256e0009,0.1245,0.1245,0,84,84,151,1,eightseven,,,,,,,,,,,,,,,,,,,,,,,,,,,,,,,,,,,,,,,,,,,,,,,,,,,,,,,,,,,,,,,,,,,,,,,,,,,,,,,,,,,,,,,,,,,,,,,,,,,,,,,,,,,,,,,,,,,,,,,,,,,,,,,,,,,,,,,,,
,,6130c7f7d0112fa23b17079c,2026-03-17_10h21.58.202,kallum_motion_pilot_GIST_update_2,2026.1.1,Win32,59.88023952,6130c7f7d0112fa23b17079c,69b92ab4aef6dee357cd729a,69b92ad3783f0f99256e0009,0.125,0.125,0,85,85,18,1,twoone,,,,,,,,,,,,,,,,,,,,,,,,,,,,,,,,,,,,,,,,,,,,,,,,,,,,,,,,,,,,,,,,,,,,,,,,,,,,,,,,,,,,,,,,,,,,,,,,,,,,,,,,,,,,,,,,,,,,,,,,,,,,,,,,,,,,,,,,,
,,6130c7f7d0112fa23b17079c,2026-03-17_10h21.58.202,kallum_motion_pilot_GIST_update_2,2026.1.1,Win32,59.88023952,6130c7f7d0112fa23b17079c,69b92ab4aef6dee357cd729a,69b92ad3783f0f99256e0009,0.1256,0.1256,0,86,86,83,1,sixeight,,,,,,,,,,,,,,,,,,,,,,,,,,,,,,,,,,,,,,,,,,,,,,,,,,,,,,,,,,,,,,,,,,,,,,,,,,,,,,,,,,,,,,,,,,,,,,,,,,,,,,,,,,,,,,,,,,,,,,,,,,,,,,,,,,,,,,,,,
,,6130c7f7d0112fa23b17079c,2026-03-17_10h21.58.202,kallum_motion_pilot_GIST_update_2,2026.1.1,Win32,59.88023952,6130c7f7d0112fa23b17079c,69b92ab4aef6dee357cd729a,69b92ad3783f0f99256e0009,0.1262,0.1263,0,87,87,51,1,twofour,,,,,,,,,,,,,,,,,,,,,,,,,,,,,,,,,,,,,,,,,,,,,,,,,,,,,,,,,,,,,,,,,,,,,,,,,,,,,,,,,,,,,,,,,,,,,,,,,,,,,,,,,,,,,,,,,,,,,,,,,,,,,,,,,,,,,,,,,
,,6130c7f7d0112fa23b17079c,2026-03-17_10h21.58.202,kallum_motion_pilot_GIST_update_2,2026.1.1,Win32,59.88023952,6130c7f7d0112fa23b17079c,69b92ab4aef6dee357cd729a,69b92ad3783f0f99256e0009,0.1269,0.1269,0,88,88,96,1,fivesix,,,,,,,,,,,,,,,,,,,,,,,,,,,,,,,,,,,,,,,,,,,,,,,,,,,,,,,,,,,,,,,,,,,,,,,,,,,,,,,,,,,,,,,,,,,,,,,,,,,,,,,,,,,,,,,,,,,,,,,,,,,,,,,,,,,,,,,,,
,,6130c7f7d0112fa23b17079c,2026-03-17_10h21.58.202,kallum_motion_pilot_GIST_update_2,2026.1.1,Win32,59.88023952,6130c7f7d0112fa23b17079c,69b92ab4aef6dee357cd729a,69b92ad3783f0f99256e0009,0.1277,0.1277,0,89,89,88,1,fivesix,,,,,,,,,,,,,,,,,,,,,,,,,,,,,,,,,,,,,,,,,,,,,,,,,,,,,,,,,,,,,,,,,,,,,,,,,,,,,,,,,,,,,,,,,,,,,,,,,,,,,,,,,,,,,,,,,,,,,,,,,,,,,,,,,,,,,,,,,
,,6130c7f7d0112fa23b17079c,2026-03-17_10h21.58.202,kallum_motion_pilot_GIST_update_2,2026.1.1,Win32,59.88023952,6130c7f7d0112fa23b17079c,69b92ab4aef6dee357cd729a,69b92ad3783f0f99256e0009,0.1282,0.1282,0,90,90,134,1,eightsix,,,,,,,,,,,,,,,,,,,,,,,,,,,,,,,,,,,,,,,,,,,,,,,,,,,,,,,,,,,,,,,,,,,,,,,,,,,,,,,,,,,,,,,,,,,,,,,,,,,,,,,,,,,,,,,,,,,,,,,,,,,,,,,,,,,,,,,,,
,,6130c7f7d0112fa23b17079c,2026-03-17_10h21.58.202,kallum_motion_pilot_GIST_update_2,2026.1.1,Win32,59.88023952,6130c7f7d0112fa23b17079c,69b92ab4aef6dee357cd729a,69b92ad3783f0f99256e0009,0.1291,0.1291,0,91,91,47,1,fourthree,,,,,,,,,,,,,,,,,,,,,,,,,,,,,,,,,,,,,,,,,,,,,,,,,,,,,,,,,,,,,,,,,,,,,,,,,,,,,,,,,,,,,,,,,,,,,,,,,,,,,,,,,,,,,,,,,,,,,,,,,,,,,,,,,,,,,,,,,
,,6130c7f7d0112fa23b17079c,2026-03-17_10h21.58.202,kallum_motion_pilot_GIST_update_2,2026.1.1,Win32,59.88023952,6130c7f7d0112fa23b17079c,69b92ab4aef6dee357cd729a,69b92ad3783f0f99256e0009,0.1296,0.1296,0,92,92,101,1,seveneight,,,,,,,,,,,,,,,,,,,,,,,,,,,,,,,,,,,,,,,,,,,,,,,,,,,,,,,,,,,,,,,,,,,,,,,,,,,,,,,,,,,,,,,,,,,,,,,,,,,,,,,,,,,,,,,,,,,,,,,,,,,,,,,,,,,,,,,,,
,,6130c7f7d0112fa23b17079c,2026-03-17_10h21.58.202,kallum_motion_pilot_GIST_update_2,2026.1.1,Win32,59.88023952,6130c7f7d0112fa23b17079c,69b92ab4aef6dee357cd729a,69b92ad3783f0f99256e0009,0.1302,0.1302,0,93,93,30,1,fourtwo,,,,,,,,,,,,,,,,,,,,,,,,,,,,,,,,,,,,,,,,,,,,,,,,,,,,,,,,,,,,,,,,,,,,,,,,,,,,,,,,,,,,,,,,,,,,,,,,,,,,,,,,,,,,,,,,,,,,,,,,,,,,,,,,,,,,,,,,,
,,6130c7f7d0112fa23b17079c,2026-03-17_10h21.58.202,kallum_motion_pilot_GIST_update_2,2026.1.1,Win32,59.88023952,6130c7f7d0112fa23b17079c,69b92ab4aef6dee357cd729a,69b92ad3783f0f99256e0009,0.1307,0.1307,0,94,94,76,1,threeone,,,,,,,,,,,,,,,,,,,,,,,,,,,,,,,,,,,,,,,,,,,,,,,,,,,,,,,,,,,,,,,,,,,,,,,,,,,,,,,,,,,,,,,,,,,,,,,,,,,,,,,,,,,,,,,,,,,,,,,,,,,,,,,,,,,,,,,,,
,,6130c7f7d0112fa23b17079c,2026-03-17_10h21.58.202,kallum_motion_pilot_GIST_update_2,2026.1.1,Win32,59.88023952,6130c7f7d0112fa23b17079c,69b92ab4aef6dee357cd729a,69b92ad3783f0f99256e0009,0.1312,0.1312,0,95,95,128,1,fivesix,,,,,,,,,,,,,,,,,,,,,,,,,,,,,,,,,,,,,,,,,,,,,,,,,,,,,,,,,,,,,,,,,,,,,,,,,,,,,,,,,,,,,,,,,,,,,,,,,,,,,,,,,,,,,,,,,,,,,,,,,,,,,,,,,,,,,,,,,
,,6130c7f7d0112fa23b17079c,2026-03-17_10h21.58.202,kallum_motion_pilot_GIST_update_2,2026.1.1,Win32,59.88023952,6130c7f7d0112fa23b17079c,69b92ab4aef6dee357cd729a,69b92ad3783f0f99256e0009,0.1317,0.1317,0,96,96,141,1,seveneight,,,,,,,,,,,,,,,,,,,,,,,,,,,,,,,,,,,,,,,,,,,,,,,,,,,,,,,,,,,,,,,,,,,,,,,,,,,,,,,,,,,,,,,,,,,,,,,,,,,,,,,,,,,,,,,,,,,,,,,,,,,,,,,,,,,,,,,,,
,,6130c7f7d0112fa23b17079c,2026-03-17_10h21.58.202,kallum_motion_pilot_GIST_update_2,2026.1.1,Win32,59.88023952,6130c7f7d0112fa23b17079c,69b92ab4aef6dee357cd729a,69b92ad3783f0f99256e0009,0.1323,0.1323,0,97,97,115,1,sixeight,,,,,,,,,,,,,,,,,,,,,,,,,,,,,,,,,,,,,,,,,,,,,,,,,,,,,,,,,,,,,,,,,,,,,,,,,,,,,,,,,,,,,,,,,,,,,,,,,,,,,,,,,,,,,,,,,,,,,,,,,,,,,,,,,,,,,,,,,
,,6130c7f7d0112fa23b17079c,2026-03-17_10h21.58.202,kallum_motion_pilot_GIST_update_2,2026.1.1,Win32,59.88023952,6130c7f7d0112fa23b17079c,69b92ab4aef6dee357cd729a,69b92ad3783f0f99256e0009,0.1329,0.1329,0,98,98,53,1,threefour,,,,,,,,,,,,,,,,,,,,,,,,,,,,,,,,,,,,,,,,,,,,,,,,,,,,,,,,,,,,,,,,,,,,,,,,,,,,,,,,,,,,,,,,,,,,,,,,,,,,,,,,,,,,,,,,,,,,,,,,,,,,,,,,,,,,,,,,,
,,6130c7f7d0112fa23b17079c,2026-03-17_10h21.58.202,kallum_motion_pilot_GIST_update_2,2026.1.1,Win32,59.88023952,6130c7f7d0112fa23b17079c,69b92ab4aef6dee357cd729a,69b92ad3783f0f99256e0009,0.1335,0.1335,0,99,99,144,1,fivesix,,,,,,,,,,,,,,,,,,,,,,,,,,,,,,,,,,,,,,,,,,,,,,,,,,,,,,,,,,,,,,,,,,,,,,,,,,,,,,,,,,,,,,,,,,,,,,,,,,,,,,,,,,,,,,,,,,,,,,,,,,,,,,,,,,,,,,,,,
,,6130c7f7d0112fa23b17079c,2026-03-17_10h21.58.202,kallum_motion_pilot_GIST_update_2,2026.1.1,Win32,59.88023952,6130c7f7d0112fa23b17079c,69b92ab4aef6dee357cd729a,69b92ad3783f0f99256e0009,0.1338,0.1339,0,100,100,31,1,fourthree,,,,,,,,,,,,,,,,,,,,,,,,,,,,,,,,,,,,,,,,,,,,,,,,,,,,,,,,,,,,,,,,,,,,,,,,,,,,,,,,,,,,,,,,,,,,,,,,,,,,,,,,,,,,,,,,,,,,,,,,,,,,,,,,,,,,,,,,,
,,6130c7f7d0112fa23b17079c,2026-03-17_10h21.58.202,kallum_motion_pilot_GIST_update_2,2026.1.1,Win32,59.88023952,6130c7f7d0112fa23b17079c,69b92ab4aef6dee357cd729a,69b92ad3783f0f99256e0009,0.1345,0.1345,0,101,101,64,1,onetwo,,,,,,,,,,,,,,,,,,,,,,,,,,,,,,,,,,,,,,,,,,,,,,,,,,,,,,,,,,,,,,,,,,,,,,,,,,,,,,,,,,,,,,,,,,,,,,,,,,,,,,,,,,,,,,,,,,,,,,,,,,,,,,,,,,,,,,,,,
,,6130c7f7d0112fa23b17079c,2026-03-17_10h21.58.202,kallum_motion_pilot_GIST_update_2,2026.1.1,Win32,59.88023952,6130c7f7d0112fa23b17079c,69b92ab4aef6dee357cd729a,69b92ad3783f0f99256e0009,0.135,0.135,0,102,102,45,1,threefour,,,,,,,,,,,,,,,,,,,,,,,,,,,,,,,,,,,,,,,,,,,,,,,,,,,,,,,,,,,,,,,,,,,,,,,,,,,,,,,,,,,,,,,,,,,,,,,,,,,,,,,,,,,,,,,,,,,,,,,,,,,,,,,,,,,,,,,,,
,,6130c7f7d0112fa23b17079c,2026-03-17_10h21.58.202,kallum_motion_pilot_GIST_update_2,2026.1.1,Win32,59.88023952,6130c7f7d0112fa23b17079c,69b92ab4aef6dee357cd729a,69b92ad3783f0f99256e0009,0.1356,0.1356,0,103,103,148,1,sevenfive,,,,,,,,,,,,,,,,,,,,,,,,,,,,,,,,,,,,,,,,,,,,,,,,,,,,,,,,,,,,,,,,,,,,,,,,,,,,,,,,,,,,,,,,,,,,,,,,,,,,,,,,,,,,,,,,,,,,,,,,,,,,,,,,,,,,,,,,,
,,6130c7f7d0112fa23b17079c,2026-03-17_10h21.58.202,kallum_motion_pilot_GIST_update_2,2026.1.1,Win32,59.88023952,6130c7f7d0112fa23b17079c,69b92ab4aef6dee357cd729a,69b92ad3783f0f99256e0009,0.1362,0.1362,0,104,104,10,1,twoone,,,,,,,,,,,,,,,,,,,,,,,,,,,,,,,,,,,,,,,,,,,,,,,,,,,,,,,,,,,,,,,,,,,,,,,,,,,,,,,,,,,,,,,,,,,,,,,,,,,,,,,,,,,,,,,,,,,,,,,,,,,,,,,,,,,,,,,,,
,,6130c7f7d0112fa23b17079c,2026-03-17_10h21.58.202,kallum_motion_pilot_GIST_update_2,2026.1.1,Win32,59.88023952,6130c7f7d0112fa23b17079c,69b92ab4aef6dee357cd729a,69b92ad3783f0f99256e0009,0.1369,0.137,0,105,105,112,1,fivesix,,,,,,,,,,,,,,,,,,,,,,,,,,,,,,,,,,,,,,,,,,,,,,,,,,,,,,,,,,,,,,,,,,,,,,,,,,,,,,,,,,,,,,,,,,,,,,,,,,,,,,,,,,,,,,,,,,,,,,,,,,,,,,,,,,,,,,,,,
,,6130c7f7d0112fa23b17079c,2026-03-17_10h21.58.202,kallum_motion_pilot_GIST_update_2,2026.1.1,Win32,59.88023952,6130c7f7d0112fa23b17079c,69b92ab4aef6dee357cd729a,69b92ad3783f0f99256e0009,0.1376,0.1376,0,106,106,17,1,onethree,,,,,,,,,,,,,,,,,,,,,,,,,,,,,,,,,,,,,,,,,,,,,,,,,,,,,,,,,,,,,,,,,,,,,,,,,,,,,,,,,,,,,,,,,,,,,,,,,,,,,,,,,,,,,,,,,,,,,,,,,,,,,,,,,,,,,,,,,
,,6130c7f7d0112fa23b17079c,2026-03-17_10h21.58.202,kallum_motion_pilot_GIST_update_2,2026.1.1,Win32,59.88023952,6130c7f7d0112fa23b17079c,69b92ab4aef6dee357cd729a,69b92ad3783f0f99256e0009,0.1381,0.1382,0,107,107,74,1,twoone,,,,,,,,,,,,,,,,,,,,,,,,,,,,,,,,,,,,,,,,,,,,,,,,,,,,,,,,,,,,,,,,,,,,,,,,,,,,,,,,,,,,,,,,,,,,,,,,,,,,,,,,,,,,,,,,,,,,,,,,,,,,,,,,,,,,,,,,,
,,6130c7f7d0112fa23b17079c,2026-03-17_10h21.58.202,kallum_motion_pilot_GIST_update_2,2026.1.1,Win32,59.88023952,6130c7f7d0112fa23b17079c,69b92ab4aef6dee357cd729a,69b92ad3783f0f99256e0009,0.1389,0.139,0,108,108,65,1,onethree,,,,,,,,,,,,,,,,,,,,,,,,,,,,,,,,,,,,,,,,,,,,,,,,,,,,,,,,,,,,,,,,,,,,,,,,,,,,,,,,,,,,,,,,,,,,,,,,,,,,,,,,,,,,,,,,,,,,,,,,,,,,,,,,,,,,,,,,,
,,6130c7f7d0112fa23b17079c,2026-03-17_10h21.58.202,kallum_motion_pilot_GIST_update_2,2026.1.1,Win32,59.88023952,6130c7f7d0112fa23b17079c,69b92ab4aef6dee357cd729a,69b92ad3783f0f99256e0009,0.1396,0.1397,0,109,109,35,1,twofour,,,,,,,,,,,,,,,,,,,,,,,,,,,,,,,,,,,,,,,,,,,,,,,,,,,,,,,,,,,,,,,,,,,,,,,,,,,,,,,,,,,,,,,,,,,,,,,,,,,,,,,,,,,,,,,,,,,,,,,,,,,,,,,,,,,,,,,,,
,,6130c7f7d0112fa23b17079c,2026-03-17_10h21.58.202,kallum_motion_pilot_GIST_update_2,2026.1.1,Win32,59.88023952,6130c7f7d0112fa23b17079c,69b92ab4aef6dee357cd729a,69b92ad3783f0f99256e0009,0.1403,0.1403,0,110,110,13,1,threefour,,,,,,,,,,,,,,,,,,,,,,,,,,,,,,,,,,,,,,,,,,,,,,,,,,,,,,,,,,,,,,,,,,,,,,,,,,,,,,,,,,,,,,,,,,,,,,,,,,,,,,,,,,,,,,,,,,,,,,,,,,,,,,,,,,,,,,,,,
,,6130c7f7d0112fa23b17079c,2026-03-17_10h21.58.202,kallum_motion_pilot_GIST_update_2,2026.1.1,Win32,59.88023952,6130c7f7d0112fa23b17079c,69b92ab4aef6dee357cd729a,69b92ad3783f0f99256e0009,0.1409,0.141,0,111,111,149,1,seveneight,,,,,,,,,,,,,,,,,,,,,,,,,,,,,,,,,,,,,,,,,,,,,,,,,,,,,,,,,,,,,,,,,,,,,,,,,,,,,,,,,,,,,,,,,,,,,,,,,,,,,,,,,,,,,,,,,,,,,,,,,,,,,,,,,,,,,,,,,
,,6130c7f7d0112fa23b17079c,2026-03-17_10h21.58.202,kallum_motion_pilot_GIST_update_2,2026.1.1,Win32,59.88023952,6130c7f7d0112fa23b17079c,69b92ab4aef6dee357cd729a,69b92ad3783f0f99256e0009,0.1417,0.1417,0,112,112,140,1,sevenfive,,,,,,,,,,,,,,,,,,,,,,,,,,,,,,,,,,,,,,,,,,,,,,,,,,,,,,,,,,,,,,,,,,,,,,,,,,,,,,,,,,,,,,,,,,,,,,,,,,,,,,,,,,,,,,,,,,,,,,,,,,,,,,,,,,,,,,,,,
,,6130c7f7d0112fa23b17079c,2026-03-17_10h21.58.202,kallum_motion_pilot_GIST_update_2,2026.1.1,Win32,59.88023952,6130c7f7d0112fa23b17079c,69b92ab4aef6dee357cd729a,69b92ad3783f0f99256e0009,0.1423,0.1423,0,113,113,26,1,twoone,,,,,,,,,,,,,,,,,,,,,,,,,,,,,,,,,,,,,,,,,,,,,,,,,,,,,,,,,,,,,,,,,,,,,,,,,,,,,,,,,,,,,,,,,,,,,,,,,,,,,,,,,,,,,,,,,,,,,,,,,,,,,,,,,,,,,,,,,
,,6130c7f7d0112fa23b17079c,2026-03-17_10h21.58.202,kallum_motion_pilot_GIST_update_2,2026.1.1,Win32,59.88023952,6130c7f7d0112fa23b17079c,69b92ab4aef6dee357cd729a,69b92ad3783f0f99256e0009,0.1428,0.1428,0,114,114,118,1,eightsix,,,,,,,,,,,,,,,,,,,,,,,,,,,,,,,,,,,,,,,,,,,,,,,,,,,,,,,,,,,,,,,,,,,,,,,,,,,,,,,,,,,,,,,,,,,,,,,,,,,,,,,,,,,,,,,,,,,,,,,,,,,,,,,,,,,,,,,,,
,,6130c7f7d0112fa23b17079c,2026-03-17_10h21.58.202,kallum_motion_pilot_GIST_update_2,2026.1.1,Win32,59.88023952,6130c7f7d0112fa23b17079c,69b92ab4aef6dee357cd729a,69b92ad3783f0f99256e0009,0.1434,0.1434,0,115,115,123,1,sixeight,,,,,,,,,,,,,,,,,,,,,,,,,,,,,,,,,,,,,,,,,,,,,,,,,,,,,,,,,,,,,,,,,,,,,,,,,,,,,,,,,,,,,,,,,,,,,,,,,,,,,,,,,,,,,,,,,,,,,,,,,,,,,,,,,,,,,,,,,
,,6130c7f7d0112fa23b17079c,2026-03-17_10h21.58.202,kallum_motion_pilot_GIST_update_2,2026.1.1,Win32,59.88023952,6130c7f7d0112fa23b17079c,69b92ab4aef6dee357cd729a,69b92ad3783f0f99256e0009,0.144,0.1442,0,116,116,120,1,fivesix,,,,,,,,,,,,,,,,,,,,,,,,,,,,,,,,,,,,,,,,,,,,,,,,,,,,,,,,,,,,,,,,,,,,,,,,,,,,,,,,,,,,,,,,,,,,,,,,,,,,,,,,,,,,,,,,,,,,,,,,,,,,,,,,,,,,,,,,,
,,6130c7f7d0112fa23b17079c,2026-03-17_10h21.58.202,kallum_motion_pilot_GIST_update_2,2026.1.1,Win32,59.88023952,6130c7f7d0112fa23b17079c,69b92ab4aef6dee357cd729a,69b92ad3783f0f99256e0009,0.1448,0.1449,0,117,117,72,1,onetwo,,,,,,,,,,,,,,,,,,,,,,,,,,,,,,,,,,,,,,,,,,,,,,,,,,,,,,,,,,,,,,,,,,,,,,,,,,,,,,,,,,,,,,,,,,,,,,,,,,,,,,,,,,,,,,,,,,,,,,,,,,,,,,,,,,,,,,,,,
,,6130c7f7d0112fa23b17079c,2026-03-17_10h21.58.202,kallum_motion_pilot_GIST_update_2,2026.1.1,Win32,59.88023952,6130c7f7d0112fa23b17079c,69b92ab4aef6dee357cd729a,69b92ad3783f0f99256e0009,0.1455,0.1456,0,118,118,4,1,threeone,,,,,,,,,,,,,,,,,,,,,,,,,,,,,,,,,,,,,,,,,,,,,,,,,,,,,,,,,,,,,,,,,,,,,,,,,,,,,,,,,,,,,,,,,,,,,,,,,,,,,,,,,,,,,,,,,,,,,,,,,,,,,,,,,,,,,,,,,
,,6130c7f7d0112fa23b17079c,2026-03-17_10h21.58.202,kallum_motion_pilot_GIST_update_2,2026.1.1,Win32,59.88023952,6130c7f7d0112fa23b17079c,69b92ab4aef6dee357cd729a,69b92ad3783f0f99256e0009,0.1462,0.1462,0,119,119,85,1,seveneight,,,,,,,,,,,,,,,,,,,,,,,,,,,,,,,,,,,,,,,,,,,,,,,,,,,,,,,,,,,,,,,,,,,,,,,,,,,,,,,,,,,,,,,,,,,,,,,,,,,,,,,,,,,,,,,,,,,,,,,,,,,,,,,,,,,,,,,,,
,,6130c7f7d0112fa23b17079c,2026-03-17_10h21.58.202,kallum_motion_pilot_GIST_update_2,2026.1.1,Win32,59.88023952,6130c7f7d0112fa23b17079c,69b92ab4aef6dee357cd729a,69b92ad3783f0f99256e0009,0.1467,0.1467,0,120,120,63,1,fourthree,,,,,,,,,,,,,,,,,,,,,,,,,,,,,,,,,,,,,,,,,,,,,,,,,,,,,,,,,,,,,,,,,,,,,,,,,,,,,,,,,,,,,,,,,,,,,,,,,,,,,,,,,,,,,,,,,,,,,,,,,,,,,,,,,,,,,,,,,
,,6130c7f7d0112fa23b17079c,2026-03-17_10h21.58.202,kallum_motion_pilot_GIST_update_2,2026.1.1,Win32,59.88023952,6130c7f7d0112fa23b17079c,69b92ab4aef6dee357cd729a,69b92ad3783f0f99256e0009,0.1473,0.1474,0,121,121,69,1,threefour,,,,,,,,,,,,,,,,,,,,,,,,,,,,,,,,,,,,,,,,,,,,,,,,,,,,,,,,,,,,,,,,,,,,,,,,,,,,,,,,,,,,,,,,,,,,,,,,,,,,,,,,,,,,,,,,,,,,,,,,,,,,,,,,,,,,,,,,,
,,6130c7f7d0112fa23b17079c,2026-03-17_10h21.58.202,kallum_motion_pilot_GIST_update_2,2026.1.1,Win32,59.88023952,6130c7f7d0112fa23b17079c,69b92ab4aef6dee357cd729a,69b92ad3783f0f99256e0009,0.1479,0.1479,0,122,122,15,1,fourthree,,,,,,,,,,,,,,,,,,,,,,,,,,,,,,,,,,,,,,,,,,,,,,,,,,,,,,,,,,,,,,,,,,,,,,,,,,,,,,,,,,,,,,,,,,,,,,,,,,,,,,,,,,,,,,,,,,,,,,,,,,,,,,,,,,,,,,,,,
,,6130c7f7d0112fa23b17079c,2026-03-17_10h21.58.202,kallum_motion_pilot_GIST_update_2,2026.1.1,Win32,59.88023952,6130c7f7d0112fa23b17079c,69b92ab4aef6dee357cd729a,69b92ad3783f0f99256e0009,0.1484,0.1484,0,123,123,37,1,threefour,,,,,,,,,,,,,,,,,,,,,,,,,,,,,,,,,,,,,,,,,,,,,,,,,,,,,,,,,,,,,,,,,,,,,,,,,,,,,,,,,,,,,,,,,,,,,,,,,,,,,,,,,,,,,,,,,,,,,,,,,,,,,,,,,,,,,,,,,
,,6130c7f7d0112fa23b17079c,2026-03-17_10h21.58.202,kallum_motion_pilot_GIST_update_2,2026.1.1,Win32,59.88023952,6130c7f7d0112fa23b17079c,69b92ab4aef6dee357cd729a,69b92ad3783f0f99256e0009,0.1491,0.1491,0,124,124,109,1,seveneight,,,,,,,,,,,,,,,,,,,,,,,,,,,,,,,,,,,,,,,,,,,,,,,,,,,,,,,,,,,,,,,,,,,,,,,,,,,,,,,,,,,,,,,,,,,,,,,,,,,,,,,,,,,,,,,,,,,,,,,,,,,,,,,,,,,,,,,,,
,,6130c7f7d0112fa23b17079c,2026-03-17_10h21.58.202,kallum_motion_pilot_GIST_update_2,2026.1.1,Win32,59.88023952,6130c7f7d0112fa23b17079c,69b92ab4aef6dee357cd729a,69b92ad3783f0f99256e0009,0.1496,0.1498,0,125,125,56,1,onetwo,,,,,,,,,,,,,,,,,,,,,,,,,,,,,,,,,,,,,,,,,,,,,,,,,,,,,,,,,,,,,,,,,,,,,,,,,,,,,,,,,,,,,,,,,,,,,,,,,,,,,,,,,,,,,,,,,,,,,,,,,,,,,,,,,,,,,,,,,
,,6130c7f7d0112fa23b17079c,2026-03-17_10h21.58.202,kallum_motion_pilot_GIST_update_2,2026.1.1,Win32,59.88023952,6130c7f7d0112fa23b17079c,69b92ab4aef6dee357cd729a,69b92ad3783f0f99256e0009,0.1504,0.1504,0,126,126,135,1,eightseven,,,,,,,,,,,,,,,,,,,,,,,,,,,,,,,,,,,,,,,,,,,,,,,,,,,,,,,,,,,,,,,,,,,,,,,,,,,,,,,,,,,,,,,,,,,,,,,,,,,,,,,,,,,,,,,,,,,,,,,,,,,,,,,,,,,,,,,,,
,,6130c7f7d0112fa23b17079c,2026-03-17_10h21.58.202,kallum_motion_pilot_GIST_update_2,2026.1.1,Win32,59.88023952,6130c7f7d0112fa23b17079c,69b92ab4aef6dee357cd729a,69b92ad3783f0f99256e0009,0.1511,0.1512,0,127,127,125,1,seveneight,,,,,,,,,,,,,,,,,,,,,,,,,,,,,,,,,,,,,,,,,,,,,,,,,,,,,,,,,,,,,,,,,,,,,,,,,,,,,,,,,,,,,,,,,,,,,,,,,,,,,,,,,,,,,,,,,,,,,,,,,,,,,,,,,,,,,,,,,
,,6130c7f7d0112fa23b17079c,2026-03-17_10h21.58.202,kallum_motion_pilot_GIST_update_2,2026.1.1,Win32,59.88023952,6130c7f7d0112fa23b17079c,69b92ab4aef6dee357cd729a,69b92ad3783f0f99256e0009,0.1516,0.1517,0,128,128,87,1,eightseven,,,,,,,,,,,,,,,,,,,,,,,,,,,,,,,,,,,,,,,,,,,,,,,,,,,,,,,,,,,,,,,,,,,,,,,,,,,,,,,,,,,,,,,,,,,,,,,,,,,,,,,,,,,,,,,,,,,,,,,,,,,,,,,,,,,,,,,,,
,,6130c7f7d0112fa23b17079c,2026-03-17_10h21.58.202,kallum_motion_pilot_GIST_update_2,2026.1.1,Win32,59.88023952,6130c7f7d0112fa23b17079c,69b92ab4aef6dee357cd729a,69b92ad3783f0f99256e0009,0.1522,0.1522,0,129,129,78,1,fourtwo,,,,,,,,,,,,,,,,,,,,,,,,,,,,,,,,,,,,,,,,,,,,,,,,,,,,,,,,,,,,,,,,,,,,,,,,,,,,,,,,,,,,,,,,,,,,,,,,,,,,,,,,,,,,,,,,,,,,,,,,,,,,,,,,,,,,,,,,,
,,6130c7f7d0112fa23b17079c,2026-03-17_10h21.58.202,kallum_motion_pilot_GIST_update_2,2026.1.1,Win32,59.88023952,6130c7f7d0112fa23b17079c,69b92ab4aef6dee357cd729a,69b92ad3783f0f99256e0009,0.1527,0.1527,0,130,130,114,1,sixfive,,,,,,,,,,,,,,,,,,,,,,,,,,,,,,,,,,,,,,,,,,,,,,,,,,,,,,,,,,,,,,,,,,,,,,,,,,,,,,,,,,,,,,,,,,,,,,,,,,,,,,,,,,,,,,,,,,,,,,,,,,,,,,,,,,,,,,,,,
,,6130c7f7d0112fa23b17079c,2026-03-17_10h21.58.202,kallum_motion_pilot_GIST_update_2,2026.1.1,Win32,59.88023952,6130c7f7d0112fa23b17079c,69b92ab4aef6dee357cd729a,69b92ad3783f0f99256e0009,0.1532,0.1532,0,131,131,42,1,twoone,,,,,,,,,,,,,,,,,,,,,,,,,,,,,,,,,,,,,,,,,,,,,,,,,,,,,,,,,,,,,,,,,,,,,,,,,,,,,,,,,,,,,,,,,,,,,,,,,,,,,,,,,,,,,,,,,,,,,,,,,,,,,,,,,,,,,,,,,
,,6130c7f7d0112fa23b17079c,2026-03-17_10h21.58.202,kallum_motion_pilot_GIST_update_2,2026.1.1,Win32,59.88023952,6130c7f7d0112fa23b17079c,69b92ab4aef6dee357cd729a,69b92ad3783f0f99256e0009,0.1537,0.1538,0,132,132,32,1,onetwo,,,,,,,,,,,,,,,,,,,,,,,,,,,,,,,,,,,,,,,,,,,,,,,,,,,,,,,,,,,,,,,,,,,,,,,,,,,,,,,,,,,,,,,,,,,,,,,,,,,,,,,,,,,,,,,,,,,,,,,,,,,,,,,,,,,,,,,,,
,,6130c7f7d0112fa23b17079c,2026-03-17_10h21.58.202,kallum_motion_pilot_GIST_update_2,2026.1.1,Win32,59.88023952,6130c7f7d0112fa23b17079c,69b92ab4aef6dee357cd729a,69b92ad3783f0f99256e0009,0.1543,0.1543,0,133,133,102,1,eightsix,,,,,,,,,,,,,,,,,,,,,,,,,,,,,,,,,,,,,,,,,,,,,,,,,,,,,,,,,,,,,,,,,,,,,,,,,,,,,,,,,,,,,,,,,,,,,,,,,,,,,,,,,,,,,,,,,,,,,,,,,,,,,,,,,,,,,,,,,
,,6130c7f7d0112fa23b17079c,2026-03-17_10h21.58.202,kallum_motion_pilot_GIST_update_2,2026.1.1,Win32,59.88023952,6130c7f7d0112fa23b17079c,69b92ab4aef6dee357cd729a,69b92ad3783f0f99256e0009,0.1548,0.1548,0,134,134,160,1,fivesix,,,,,,,,,,,,,,,,,,,,,,,,,,,,,,,,,,,,,,,,,,,,,,,,,,,,,,,,,,,,,,,,,,,,,,,,,,,,,,,,,,,,,,,,,,,,,,,,,,,,,,,,,,,,,,,,,,,,,,,,,,,,,,,,,,,,,,,,,
,,6130c7f7d0112fa23b17079c,2026-03-17_10h21.58.202,kallum_motion_pilot_GIST_update_2,2026.1.1,Win32,59.88023952,6130c7f7d0112fa23b17079c,69b92ab4aef6dee357cd729a,69b92ad3783f0f99256e0009,0.1554,0.1554,0,135,135,136,1,fivesix,,,,,,,,,,,,,,,,,,,,,,,,,,,,,,,,,,,,,,,,,,,,,,,,,,,,,,,,,,,,,,,,,,,,,,,,,,,,,,,,,,,,,,,,,,,,,,,,,,,,,,,,,,,,,,,,,,,,,,,,,,,,,,,,,,,,,,,,,
,,6130c7f7d0112fa23b17079c,2026-03-17_10h21.58.202,kallum_motion_pilot_GIST_update_2,2026.1.1,Win32,59.88023952,6130c7f7d0112fa23b17079c,69b92ab4aef6dee357cd729a,69b92ad3783f0f99256e0009,0.1561,0.1561,0,136,136,124,1,sevenfive,,,,,,,,,,,,,,,,,,,,,,,,,,,,,,,,,,,,,,,,,,,,,,,,,,,,,,,,,,,,,,,,,,,,,,,,,,,,,,,,,,,,,,,,,,,,,,,,,,,,,,,,,,,,,,,,,,,,,,,,,,,,,,,,,,,,,,,,,
,,6130c7f7d0112fa23b17079c,2026-03-17_10h21.58.202,kallum_motion_pilot_GIST_update_2,2026.1.1,Win32,59.88023952,6130c7f7d0112fa23b17079c,69b92ab4aef6dee357cd729a,69b92ad3783f0f99256e0009,0.1566,0.1567,0,137,137,5,1,threefour,,,,,,,,,,,,,,,,,,,,,,,,,,,,,,,,,,,,,,,,,,,,,,,,,,,,,,,,,,,,,,,,,,,,,,,,,,,,,,,,,,,,,,,,,,,,,,,,,,,,,,,,,,,,,,,,,,,,,,,,,,,,,,,,,,,,,,,,,
,,6130c7f7d0112fa23b17079c,2026-03-17_10h21.58.202,kallum_motion_pilot_GIST_update_2,2026.1.1,Win32,59.88023952,6130c7f7d0112fa23b17079c,69b92ab4aef6dee357cd729a,69b92ad3783f0f99256e0009,0.1572,0.1573,0,138,138,91,1,sixeight,,,,,,,,,,,,,,,,,,,,,,,,,,,,,,,,,,,,,,,,,,,,,,,,,,,,,,,,,,,,,,,,,,,,,,,,,,,,,,,,,,,,,,,,,,,,,,,,,,,,,,,,,,,,,,,,,,,,,,,,,,,,,,,,,,,,,,,,,
,,6130c7f7d0112fa23b17079c,2026-03-17_10h21.58.202,kallum_motion_pilot_GIST_update_2,2026.1.1,Win32,59.88023952,6130c7f7d0112fa23b17079c,69b92ab4aef6dee357cd729a,69b92ad3783f0f99256e0009,0.16,0.1601,0,139,139,121,1,fiveseven,,,,,,,,,,,,,,,,,,,,,,,,,,,,,,,,,,,,,,,,,,,,,,,,,,,,,,,,,,,,,,,,,,,,,,,,,,,,,,,,,,,,,,,,,,,,,,,,,,,,,,,,,,,,,,,,,,,,,,,,,,,,,,,,,,,,,,,,,
,,6130c7f7d0112fa23b17079c,2026-03-17_10h21.58.202,kallum_motion_pilot_GIST_update_2,2026.1.1,Win32,59.88023952,6130c7f7d0112fa23b17079c,69b92ab4aef6dee357cd729a,69b92ad3783f0f99256e0009,0.1607,0.1608,0,140,140,137,1,fiveseven,,,,,,,,,,,,,,,,,,,,,,,,,,,,,,,,,,,,,,,,,,,,,,,,,,,,,,,,,,,,,,,,,,,,,,,,,,,,,,,,,,,,,,,,,,,,,,,,,,,,,,,,,,,,,,,,,,,,,,,,,,,,,,,,,,,,,,,,,
,,6130c7f7d0112fa23b17079c,2026-03-17_10h21.58.202,kallum_motion_pilot_GIST_update_2,2026.1.1,Win32,59.88023952,6130c7f7d0112fa23b17079c,69b92ab4aef6dee357cd729a,69b92ad3783f0f99256e0009,0.1614,0.1614,0,141,141,67,1,twofour,,,,,,,,,,,,,,,,,,,,,,,,,,,,,,,,,,,,,,,,,,,,,,,,,,,,,,,,,,,,,,,,,,,,,,,,,,,,,,,,,,,,,,,,,,,,,,,,,,,,,,,,,,,,,,,,,,,,,,,,,,,,,,,,,,,,,,,,,
,,6130c7f7d0112fa23b17079c,2026-03-17_10h21.58.202,kallum_motion_pilot_GIST_update_2,2026.1.1,Win32,59.88023952,6130c7f7d0112fa23b17079c,69b92ab4aef6dee357cd729a,69b92ad3783f0f99256e0009,0.1619,0.1619,0,142,142,129,1,fiveseven,,,,,,,,,,,,,,,,,,,,,,,,,,,,,,,,,,,,,,,,,,,,,,,,,,,,,,,,,,,,,,,,,,,,,,,,,,,,,,,,,,,,,,,,,,,,,,,,,,,,,,,,,,,,,,,,,,,,,,,,,,,,,,,,,,,,,,,,,
,,6130c7f7d0112fa23b17079c,2026-03-17_10h21.58.202,kallum_motion_pilot_GIST_update_2,2026.1.1,Win32,59.88023952,6130c7f7d0112fa23b17079c,69b92ab4aef6dee357cd729a,69b92ad3783f0f99256e0009,0.1624,0.1625,0,143,143,55,1,fourthree,,,,,,,,,,,,,,,,,,,,,,,,,,,,,,,,,,,,,,,,,,,,,,,,,,,,,,,,,,,,,,,,,,,,,,,,,,,,,,,,,,,,,,,,,,,,,,,,,,,,,,,,,,,,,,,,,,,,,,,,,,,,,,,,,,,,,,,,,
,,6130c7f7d0112fa23b17079c,2026-03-17_10h21.58.202,kallum_motion_pilot_GIST_update_2,2026.1.1,Win32,59.88023952,6130c7f7d0112fa23b17079c,69b92ab4aef6dee357cd729a,69b92ad3783f0f99256e0009,0.1629,0.1629,0,144,144,3,1,twofour,,,,,,,,,,,,,,,,,,,,,,,,,,,,,,,,,,,,,,,,,,,,,,,,,,,,,,,,,,,,,,,,,,,,,,,,,,,,,,,,,,,,,,,,,,,,,,,,,,,,,,,,,,,,,,,,,,,,,,,,,,,,,,,,,,,,,,,,,
,,6130c7f7d0112fa23b17079c,2026-03-17_10h21.58.202,kallum_motion_pilot_GIST_update_2,2026.1.1,Win32,59.88023952,6130c7f7d0112fa23b17079c,69b92ab4aef6dee357cd729a,69b92ad3783f0f99256e0009,0.1636,0.1636,0,145,145,99,1,sixeight,,,,,,,,,,,,,,,,,,,,,,,,,,,,,,,,,,,,,,,,,,,,,,,,,,,,,,,,,,,,,,,,,,,,,,,,,,,,,,,,,,,,,,,,,,,,,,,,,,,,,,,,,,,,,,,,,,,,,,,,,,,,,,,,,,,,,,,,,
,,6130c7f7d0112fa23b17079c,2026-03-17_10h21.58.202,kallum_motion_pilot_GIST_update_2,2026.1.1,Win32,59.88023952,6130c7f7d0112fa23b17079c,69b92ab4aef6dee357cd729a,69b92ad3783f0f99256e0009,0.164,0.164,0,146,146,14,1,fourtwo,,,,,,,,,,,,,,,,,,,,,,,,,,,,,,,,,,,,,,,,,,,,,,,,,,,,,,,,,,,,,,,,,,,,,,,,,,,,,,,,,,,,,,,,,,,,,,,,,,,,,,,,,,,,,,,,,,,,,,,,,,,,,,,,,,,,,,,,,
,,6130c7f7d0112fa23b17079c,2026-03-17_10h21.58.202,kallum_motion_pilot_GIST_update_2,2026.1.1,Win32,59.88023952,6130c7f7d0112fa23b17079c,69b92ab4aef6dee357cd729a,69b92ad3783f0f99256e0009,0.1646,0.1646,0,147,147,105,1,fiveseven,,,,,,,,,,,,,,,,,,,,,,,,,,,,,,,,,,,,,,,,,,,,,,,,,,,,,,,,,,,,,,,,,,,,,,,,,,,,,,,,,,,,,,,,,,,,,,,,,,,,,,,,,,,,,,,,,,,,,,,,,,,,,,,,,,,,,,,,,
,,6130c7f7d0112fa23b17079c,2026-03-17_10h21.58.202,kallum_motion_pilot_GIST_update_2,2026.1.1,Win32,59.88023952,6130c7f7d0112fa23b17079c,69b92ab4aef6dee357cd729a,69b92ad3783f0f99256e0009,0.1651,0.1651,0,148,148,89,1,fiveseven,,,,,,,,,,,,,,,,,,,,,,,,,,,,,,,,,,,,,,,,,,,,,,,,,,,,,,,,,,,,,,,,,,,,,,,,,,,,,,,,,,,,,,,,,,,,,,,,,,,,,,,,,,,,,,,,,,,,,,,,,,,,,,,,,,,,,,,,,
,,6130c7f7d0112fa23b17079c,2026-03-17_10h21.58.202,kallum_motion_pilot_GIST_update_2,2026.1.1,Win32,59.88023952,6130c7f7d0112fa23b17079c,69b92ab4aef6dee357cd729a,69b92ad3783f0f99256e0009,0.1656,0.1657,0,149,149,24,1,onetwo,,,,,,,,,,,,,,,,,,,,,,,,,,,,,,,,,,,,,,,,,,,,,,,,,,,,,,,,,,,,,,,,,,,,,,,,,,,,,,,,,,,,,,,,,,,,,,,,,,,,,,,,,,,,,,,,,,,,,,,,,,,,,,,,,,,,,,,,,
,,6130c7f7d0112fa23b17079c,2026-03-17_10h21.58.202,kallum_motion_pilot_GIST_update_2,2026.1.1,Win32,59.88023952,6130c7f7d0112fa23b17079c,69b92ab4aef6dee357cd729a,69b92ad3783f0f99256e0009,0.1662,0.1663,0,150,150,75,1,twofour,,,,,,,,,,,,,,,,,,,,,,,,,,,,,,,,,,,,,,,,,,,,,,,,,,,,,,,,,,,,,,,,,,,,,,,,,,,,,,,,,,,,,,,,,,,,,,,,,,,,,,,,,,,,,,,,,,,,,,,,,,,,,,,,,,,,,,,,,
,,6130c7f7d0112fa23b17079c,2026-03-17_10h21.58.202,kallum_motion_pilot_GIST_update_2,2026.1.1,Win32,59.88023952,6130c7f7d0112fa23b17079c,69b92ab4aef6dee357cd729a,69b92ad3783f0f99256e0009,0.1668,0.1669,0,151,151,38,1,fourtwo,,,,,,,,,,,,,,,,,,,,,,,,,,,,,,,,,,,,,,,,,,,,,,,,,,,,,,,,,,,,,,,,,,,,,,,,,,,,,,,,,,,,,,,,,,,,,,,,,,,,,,,,,,,,,,,,,,,,,,,,,,,,,,,,,,,,,,,,,
,,6130c7f7d0112fa23b17079c,2026-03-17_10h21.58.202,kallum_motion_pilot_GIST_update_2,2026.1.1,Win32,59.88023952,6130c7f7d0112fa23b17079c,69b92ab4aef6dee357cd729a,69b92ad3783f0f99256e0009,0.1674,0.1674,0,152,152,138,1,sixfive,,,,,,,,,,,,,,,,,,,,,,,,,,,,,,,,,,,,,,,,,,,,,,,,,,,,,,,,,,,,,,,,,,,,,,,,,,,,,,,,,,,,,,,,,,,,,,,,,,,,,,,,,,,,,,,,,,,,,,,,,,,,,,,,,,,,,,,,,
,,6130c7f7d0112fa23b17079c,2026-03-17_10h21.58.202,kallum_motion_pilot_GIST_update_2,2026.1.1,Win32,59.88023952,6130c7f7d0112fa23b17079c,69b92ab4aef6dee357cd729a,69b92ad3783f0f99256e0009,0.168,0.1681,0,153,153,20,1,threeone,,,,,,,,,,,,,,,,,,,,,,,,,,,,,,,,,,,,,,,,,,,,,,,,,,,,,,,,,,,,,,,,,,,,,,,,,,,,,,,,,,,,,,,,,,,,,,,,,,,,,,,,,,,,,,,,,,,,,,,,,,,,,,,,,,,,,,,,,
,,6130c7f7d0112fa23b17079c,2026-03-17_10h21.58.202,kallum_motion_pilot_GIST_update_2,2026.1.1,Win32,59.88023952,6130c7f7d0112fa23b17079c,69b92ab4aef6dee357cd729a,69b92ad3783f0f99256e0009,0.1685,0.1686,0,154,154,36,1,threeone,,,,,,,,,,,,,,,,,,,,,,,,,,,,,,,,,,,,,,,,,,,,,,,,,,,,,,,,,,,,,,,,,,,,,,,,,,,,,,,,,,,,,,,,,,,,,,,,,,,,,,,,,,,,,,,,,,,,,,,,,,,,,,,,,,,,,,,,,
,,6130c7f7d0112fa23b17079c,2026-03-17_10h21.58.202,kallum_motion_pilot_GIST_update_2,2026.1.1,Win32,59.88023952,6130c7f7d0112fa23b17079c,69b92ab4aef6dee357cd729a,69b92ad3783f0f99256e0009,0.1693,0.1693,0,155,155,0,1,onetwo,,,,,,,,,,,,,,,,,,,,,,,,,,,,,,,,,,,,,,,,,,,,,,,,,,,,,,,,,,,,,,,,,,,,,,,,,,,,,,,,,,,,,,,,,,,,,,,,,,,,,,,,,,,,,,,,,,,,,,,,,,,,,,,,,,,,,,,,,
,,6130c7f7d0112fa23b17079c,2026-03-17_10h21.58.202,kallum_motion_pilot_GIST_update_2,2026.1.1,Win32,59.88023952,6130c7f7d0112fa23b17079c,69b92ab4aef6dee357cd729a,69b92ad3783f0f99256e0009,0.1698,0.1698,0,156,156,93,1,seveneight,,,,,,,,,,,,,,,,,,,,,,,,,,,,,,,,,,,,,,,,,,,,,,,,,,,,,,,,,,,,,,,,,,,,,,,,,,,,,,,,,,,,,,,,,,,,,,,,,,,,,,,,,,,,,,,,,,,,,,,,,,,,,,,,,,,,,,,,,
,,6130c7f7d0112fa23b17079c,2026-03-17_10h21.58.202,kallum_motion_pilot_GIST_update_2,2026.1.1,Win32,59.88023952,6130c7f7d0112fa23b17079c,69b92ab4aef6dee357cd729a,69b92ad3783f0f99256e0009,0.1705,0.1705,0,157,157,48,1,onetwo,,,,,,,,,,,,,,,,,,,,,,,,,,,,,,,,,,,,,,,,,,,,,,,,,,,,,,,,,,,,,,,,,,,,,,,,,,,,,,,,,,,,,,,,,,,,,,,,,,,,,,,,,,,,,,,,,,,,,,,,,,,,,,,,,,,,,,,,,
,,6130c7f7d0112fa23b17079c,2026-03-17_10h21.58.202,kallum_motion_pilot_GIST_update_2,2026.1.1,Win32,59.88023952,6130c7f7d0112fa23b17079c,69b92ab4aef6dee357cd729a,69b92ad3783f0f99256e0009,0.1711,0.1711,0,158,158,71,1,fourthree,,,,,,,,,,,,,,,,,,,,,,,,,,,,,,,,,,,,,,,,,,,,,,,,,,,,,,,,,,,,,,,,,,,,,,,,,,,,,,,,,,,,,,,,,,,,,,,,,,,,,,,,,,,,,,,,,,,,,,,,,,,,,,,,,,,,,,,,,
,,6130c7f7d0112fa23b17079c,2026-03-17_10h21.58.202,kallum_motion_pilot_GIST_update_2,2026.1.1,Win32,59.88023952,6130c7f7d0112fa23b17079c,69b92ab4aef6dee357cd729a,69b92ad3783f0f99256e0009,0.1716,0.1716,0,159,159,131,1,sixeight,,,,,,,,,,,,,,,,,,,,,,,,,,,,,,,,,,,,,,,,,,,,,,,,,,,,,,,,,,,,,,,,,,,,,,,,,,,,,,,,,,,,,,,,,,,,,,,,,,,,,,,,,,,,,,,,,,,,,,,,,,,,,,,,,,,,,,,,,
,,6130c7f7d0112fa23b17079c,2026-03-17_10h21.58.202,kallum_motion_pilot_GIST_update_2,2026.1.1,Win32,59.88023952,6130c7f7d0112fa23b17079c,69b92ab4aef6dee357cd729a,69b92ad3783f0f99256e0009,0.1721,0.1721,0,160,160,25,1,onethree,,,,,,,,,,,,,,,,,,,,,,,,,,,,,,,,,,,,,,,,,,,,,,,,,,,,,,,,,,,,,,,,,,,,,,,,,,,,,,,,,,,,,,,,,,,,,,,,,,,,,,,,,,,,,,,,,,,,,,,,,,,,,,,,,,,,,,,,,
,,6130c7f7d0112fa23b17079c,2026-03-17_10h21.58.202,kallum_motion_pilot_GIST_update_2,2026.1.1,Win32,59.88023952,6130c7f7d0112fa23b17079c,69b92ab4aef6dee357cd729a,69b92ad3783f0f99256e0009,0.1727,0.1728,0,161,161,153,1,fiveseven,,,,,,,,,,,,,,,,,,,,,,,,,,,,,,,,,,,,,,,,,,,,,,,,,,,,,,,,,,,,,,,,,,,,,,,,,,,,,,,,,,,,,,,,,,,,,,,,,,,,,,,,,,,,,,,,,,,,,,,,,,,,,,,,,,,,,,,,,
,,6130c7f7d0112fa23b17079c,2026-03-17_10h21.58.202,kallum_motion_pilot_GIST_update_2,2026.1.1,Win32,59.88023952,6130c7f7d0112fa23b17079c,69b92ab4aef6dee357cd729a,69b92ad3783f0f99256e0009,0.1733,0.1733,1,0,162,30,1,fourtwo,,,,,,,,,,,,,,,,,,,,,,,,,,,,,,,,,,,,,,,,,,,,,,,,,,,,,,,,,,,,,,,,,,,,,,,,,,,,,,,,,,,,,,,,,,,,,,,,,,,,,,,,,,,,,,,,,,,,,,,,,,,,,,,,,,,,,,,,,
,,6130c7f7d0112fa23b17079c,2026-03-17_10h21.58.202,kallum_motion_pilot_GIST_update_2,2026.1.1,Win32,59.88023952,6130c7f7d0112fa23b17079c,69b92ab4aef6dee357cd729a,69b92ad3783f0f99256e0009,0.174,0.174,1,1,163,9,1,onethree,,,,,,,,,,,,,,,,,,,,,,,,,,,,,,,,,,,,,,,,,,,,,,,,,,,,,,,,,,,,,,,,,,,,,,,,,,,,,,,,,,,,,,,,,,,,,,,,,,,,,,,,,,,,,,,,,,,,,,,,,,,,,,,,,,,,,,,,,
,,6130c7f7d0112fa23b17079c,2026-03-17_10h21.58.202,kallum_motion_pilot_GIST_update_2,2026.1.1,Win32,59.88023952,6130c7f7d0112fa23b17079c,69b92ab4aef6dee357cd729a,69b92ad3783f0f99256e0009,0.1745,0.1746,1,2,164,115,1,sixeight,,,,,,,,,,,,,,,,,,,,,,,,,,,,,,,,,,,,,,,,,,,,,,,,,,,,,,,,,,,,,,,,,,,,,,,,,,,,,,,,,,,,,,,,,,,,,,,,,,,,,,,,,,,,,,,,,,,,,,,,,,,,,,,,,,,,,,,,,
,,6130c7f7d0112fa23b17079c,2026-03-17_10h21.58.202,kallum_motion_pilot_GIST_update_2,2026.1.1,Win32,59.88023952,6130c7f7d0112fa23b17079c,69b92ab4aef6dee357cd729a,69b92ad3783f0f99256e0009,0.1754,0.1754,1,3,165,37,1,threefour,,,,,,,,,,,,,,,,,,,,,,,,,,,,,,,,,,,,,,,,,,,,,,,,,,,,,,,,,,,,,,,,,,,,,,,,,,,,,,,,,,,,,,,,,,,,,,,,,,,,,,,,,,,,,,,,,,,,,,,,,,,,,,,,,,,,,,,,,
,,6130c7f7d0112fa23b17079c,2026-03-17_10h21.58.202,kallum_motion_pilot_GIST_update_2,2026.1.1,Win32,59.88023952,6130c7f7d0112fa23b17079c,69b92ab4aef6dee357cd729a,69b92ad3783f0f99256e0009,0.1761,0.1761,1,4,166,40,1,onetwo,,,,,,,,,,,,,,,,,,,,,,,,,,,,,,,,,,,,,,,,,,,,,,,,,,,,,,,,,,,,,,,,,,,,,,,,,,,,,,,,,,,,,,,,,,,,,,,,,,,,,,,,,,,,,,,,,,,,,,,,,,,,,,,,,,,,,,,,,
,,6130c7f7d0112fa23b17079c,2026-03-17_10h21.58.202,kallum_motion_pilot_GIST_update_2,2026.1.1,Win32,59.88023952,6130c7f7d0112fa23b17079c,69b92ab4aef6dee357cd729a,69b92ad3783f0f99256e0009,0.1767,0.1767,1,5,167,50,1,twoone,,,,,,,,,,,,,,,,,,,,,,,,,,,,,,,,,,,,,,,,,,,,,,,,,,,,,,,,,,,,,,,,,,,,,,,,,,,,,,,,,,,,,,,,,,,,,,,,,,,,,,,,,,,,,,,,,,,,,,,,,,,,,,,,,,,,,,,,,
,,6130c7f7d0112fa23b17079c,2026-03-17_10h21.58.202,kallum_motion_pilot_GIST_update_2,2026.1.1,Win32,59.88023952,6130c7f7d0112fa23b17079c,69b92ab4aef6dee357cd729a,69b92ad3783f0f99256e0009,0.1776,0.1776,1,6,168,66,1,twoone,,,,,,,,,,,,,,,,,,,,,,,,,,,,,,,,,,,,,,,,,,,,,,,,,,,,,,,,,,,,,,,,,,,,,,,,,,,,,,,,,,,,,,,,,,,,,,,,,,,,,,,,,,,,,,,,,,,,,,,,,,,,,,,,,,,,,,,,,
,,6130c7f7d0112fa23b17079c,2026-03-17_10h21.58.202,kallum_motion_pilot_GIST_update_2,2026.1.1,Win32,59.88023952,6130c7f7d0112fa23b17079c,69b92ab4aef6dee357cd729a,69b92ad3783f0f99256e0009,0.1782,0.1782,1,7,169,88,1,fivesix,,,,,,,,,,,,,,,,,,,,,,,,,,,,,,,,,,,,,,,,,,,,,,,,,,,,,,,,,,,,,,,,,,,,,,,,,,,,,,,,,,,,,,,,,,,,,,,,,,,,,,,,,,,,,,,,,,,,,,,,,,,,,,,,,,,,,,,,,
,,6130c7f7d0112fa23b17079c,2026-03-17_10h21.58.202,kallum_motion_pilot_GIST_update_2,2026.1.1,Win32,59.88023952,6130c7f7d0112fa23b17079c,69b92ab4aef6dee357cd729a,69b92ad3783f0f99256e0009,0.179,0.179,1,8,170,73,1,onethree,,,,,,,,,,,,,,,,,,,,,,,,,,,,,,,,,,,,,,,,,,,,,,,,,,,,,,,,,,,,,,,,,,,,,,,,,,,,,,,,,,,,,,,,,,,,,,,,,,,,,,,,,,,,,,,,,,,,,,,,,,,,,,,,,,,,,,,,,
,,6130c7f7d0112fa23b17079c,2026-03-17_10h21.58.202,kallum_motion_pilot_GIST_update_2,2026.1.1,Win32,59.88023952,6130c7f7d0112fa23b17079c,69b92ab4aef6dee357cd729a,69b92ad3783f0f99256e0009,0.1797,0.1797,1,9,171,148,1,sevenfive,,,,,,,,,,,,,,,,,,,,,,,,,,,,,,,,,,,,,,,,,,,,,,,,,,,,,,,,,,,,,,,,,,,,,,,,,,,,,,,,,,,,,,,,,,,,,,,,,,,,,,,,,,,,,,,,,,,,,,,,,,,,,,,,,,,,,,,,,
,,6130c7f7d0112fa23b17079c,2026-03-17_10h21.58.202,kallum_motion_pilot_GIST_update_2,2026.1.1,Win32,59.88023952,6130c7f7d0112fa23b17079c,69b92ab4aef6dee357cd729a,69b92ad3783f0f99256e0009,0.1802,0.1802,1,10,172,94,1,eightsix,,,,,,,,,,,,,,,,,,,,,,,,,,,,,,,,,,,,,,,,,,,,,,,,,,,,,,,,,,,,,,,,,,,,,,,,,,,,,,,,,,,,,,,,,,,,,,,,,,,,,,,,,,,,,,,,,,,,,,,,,,,,,,,,,,,,,,,,,
,,6130c7f7d0112fa23b17079c,2026-03-17_10h21.58.202,kallum_motion_pilot_GIST_update_2,2026.1.1,Win32,59.88023952,6130c7f7d0112fa23b17079c,69b92ab4aef6dee357cd729a,69b92ad3783f0f99256e0009,0.1807,0.1807,1,11,173,63,1,fourthree,,,,,,,,,,,,,,,,,,,,,,,,,,,,,,,,,,,,,,,,,,,,,,,,,,,,,,,,,,,,,,,,,,,,,,,,,,,,,,,,,,,,,,,,,,,,,,,,,,,,,,,,,,,,,,,,,,,,,,,,,,,,,,,,,,,,,,,,,
,,6130c7f7d0112fa23b17079c,2026-03-17_10h21.58.202,kallum_motion_pilot_GIST_update_2,2026.1.1,Win32,59.88023952,6130c7f7d0112fa23b17079c,69b92ab4aef6dee357cd729a,69b92ad3783f0f99256e0009,0.1812,0.1812,1,12,174,59,1,twofour,,,,,,,,,,,,,,,,,,,,,,,,,,,,,,,,,,,,,,,,,,,,,,,,,,,,,,,,,,,,,,,,,,,,,,,,,,,,,,,,,,,,,,,,,,,,,,,,,,,,,,,,,,,,,,,,,,,,,,,,,,,,,,,,,,,,,,,,,
,,6130c7f7d0112fa23b17079c,2026-03-17_10h21.58.202,kallum_motion_pilot_GIST_update_2,2026.1.1,Win32,59.88023952,6130c7f7d0112fa23b17079c,69b92ab4aef6dee357cd729a,69b92ad3783f0f99256e0009,0.1818,0.1818,1,13,175,121,1,fiveseven,,,,,,,,,,,,,,,,,,,,,,,,,,,,,,,,,,,,,,,,,,,,,,,,,,,,,,,,,,,,,,,,,,,,,,,,,,,,,,,,,,,,,,,,,,,,,,,,,,,,,,,,,,,,,,,,,,,,,,,,,,,,,,,,,,,,,,,,,
,,6130c7f7d0112fa23b17079c,2026-03-17_10h21.58.202,kallum_motion_pilot_GIST_update_2,2026.1.1,Win32,59.88023952,6130c7f7d0112fa23b17079c,69b92ab4aef6dee357cd729a,69b92ad3783f0f99256e0009,0.1824,0.1824,1,14,176,27,1,twofour,,,,,,,,,,,,,,,,,,,,,,,,,,,,,,,,,,,,,,,,,,,,,,,,,,,,,,,,,,,,,,,,,,,,,,,,,,,,,,,,,,,,,,,,,,,,,,,,,,,,,,,,,,,,,,,,,,,,,,,,,,,,,,,,,,,,,,,,,
,,6130c7f7d0112fa23b17079c,2026-03-17_10h21.58.202,kallum_motion_pilot_GIST_update_2,2026.1.1,Win32,59.88023952,6130c7f7d0112fa23b17079c,69b92ab4aef6dee357cd729a,69b92ad3783f0f99256e0009,0.1829,0.1829,1,15,177,39,1,fourthree,,,,,,,,,,,,,,,,,,,,,,,,,,,,,,,,,,,,,,,,,,,,,,,,,,,,,,,,,,,,,,,,,,,,,,,,,,,,,,,,,,,,,,,,,,,,,,,,,,,,,,,,,,,,,,,,,,,,,,,,,,,,,,,,,,,,,,,,,
,,6130c7f7d0112fa23b17079c,2026-03-17_10h21.58.202,kallum_motion_pilot_GIST_update_2,2026.1.1,Win32,59.88023952,6130c7f7d0112fa23b17079c,69b92ab4aef6dee357cd729a,69b92ad3783f0f99256e0009,0.1834,0.1834,1,16,178,32,1,onetwo,,,,,,,,,,,,,,,,,,,,,,,,,,,,,,,,,,,,,,,,,,,,,,,,,,,,,,,,,,,,,,,,,,,,,,,,,,,,,,,,,,,,,,,,,,,,,,,,,,,,,,,,,,,,,,,,,,,,,,,,,,,,,,,,,,,,,,,,,
,,6130c7f7d0112fa23b17079c,2026-03-17_10h21.58.202,kallum_motion_pilot_GIST_update_2,2026.1.1,Win32,59.88023952,6130c7f7d0112fa23b17079c,69b92ab4aef6dee357cd729a,69b92ad3783f0f99256e0009,0.184,0.184,1,17,179,105,1,fiveseven,,,,,,,,,,,,,,,,,,,,,,,,,,,,,,,,,,,,,,,,,,,,,,,,,,,,,,,,,,,,,,,,,,,,,,,,,,,,,,,,,,,,,,,,,,,,,,,,,,,,,,,,,,,,,,,,,,,,,,,,,,,,,,,,,,,,,,,,,
,,6130c7f7d0112fa23b17079c,2026-03-17_10h21.58.202,kallum_motion_pilot_GIST_update_2,2026.1.1,Win32,59.88023952,6130c7f7d0112fa23b17079c,69b92ab4aef6dee357cd729a,69b92ad3783f0f99256e0009,0.1845,0.1845,1,18,180,36,1,threeone,,,,,,,,,,,,,,,,,,,,,,,,,,,,,,,,,,,,,,,,,,,,,,,,,,,,,,,,,,,,,,,,,,,,,,,,,,,,,,,,,,,,,,,,,,,,,,,,,,,,,,,,,,,,,,,,,,,,,,,,,,,,,,,,,,,,,,,,,
,,6130c7f7d0112fa23b17079c,2026-03-17_10h21.58.202,kallum_motion_pilot_GIST_update_2,2026.1.1,Win32,59.88023952,6130c7f7d0112fa23b17079c,69b92ab4aef6dee357cd729a,69b92ad3783f0f99256e0009,0.185,0.1851,1,19,181,130,1,sixfive,,,,,,,,,,,,,,,,,,,,,,,,,,,,,,,,,,,,,,,,,,,,,,,,,,,,,,,,,,,,,,,,,,,,,,,,,,,,,,,,,,,,,,,,,,,,,,,,,,,,,,,,,,,,,,,,,,,,,,,,,,,,,,,,,,,,,,,,,
,,6130c7f7d0112fa23b17079c,2026-03-17_10h21.58.202,kallum_motion_pilot_GIST_update_2,2026.1.1,Win32,59.88023952,6130c7f7d0112fa23b17079c,69b92ab4aef6dee357cd729a,69b92ad3783f0f99256e0009,0.1856,0.1857,1,20,182,141,1,seveneight,,,,,,,,,,,,,,,,,,,,,,,,,,,,,,,,,,,,,,,,,,,,,,,,,,,,,,,,,,,,,,,,,,,,,,,,,,,,,,,,,,,,,,,,,,,,,,,,,,,,,,,,,,,,,,,,,,,,,,,,,,,,,,,,,,,,,,,,,
,,6130c7f7d0112fa23b17079c,2026-03-17_10h21.58.202,kallum_motion_pilot_GIST_update_2,2026.1.1,Win32,59.88023952,6130c7f7d0112fa23b17079c,69b92ab4aef6dee357cd729a,69b92ad3783f0f99256e0009,0.1864,0.1864,1,21,183,107,1,sixeight,,,,,,,,,,,,,,,,,,,,,,,,,,,,,,,,,,,,,,,,,,,,,,,,,,,,,,,,,,,,,,,,,,,,,,,,,,,,,,,,,,,,,,,,,,,,,,,,,,,,,,,,,,,,,,,,,,,,,,,,,,,,,,,,,,,,,,,,,
,,6130c7f7d0112fa23b17079c,2026-03-17_10h21.58.202,kallum_motion_pilot_GIST_update_2,2026.1.1,Win32,59.88023952,6130c7f7d0112fa23b17079c,69b92ab4aef6dee357cd729a,69b92ad3783f0f99256e0009,0.187,0.1871,1,22,184,144,1,fivesix,,,,,,,,,,,,,,,,,,,,,,,,,,,,,,,,,,,,,,,,,,,,,,,,,,,,,,,,,,,,,,,,,,,,,,,,,,,,,,,,,,,,,,,,,,,,,,,,,,,,,,,,,,,,,,,,,,,,,,,,,,,,,,,,,,,,,,,,,
,,6130c7f7d0112fa23b17079c,2026-03-17_10h21.58.202,kallum_motion_pilot_GIST_update_2,2026.1.1,Win32,59.88023952,6130c7f7d0112fa23b17079c,69b92ab4aef6dee357cd729a,69b92ad3783f0f99256e0009,0.1876,0.1876,1,23,185,33,1,onethree,,,,,,,,,,,,,,,,,,,,,,,,,,,,,,,,,,,,,,,,,,,,,,,,,,,,,,,,,,,,,,,,,,,,,,,,,,,,,,,,,,,,,,,,,,,,,,,,,,,,,,,,,,,,,,,,,,,,,,,,,,,,,,,,,,,,,,,,,
,,6130c7f7d0112fa23b17079c,2026-03-17_10h21.58.202,kallum_motion_pilot_GIST_update_2,2026.1.1,Win32,59.88023952,6130c7f7d0112fa23b17079c,69b92ab4aef6dee357cd729a,69b92ad3783f0f99256e0009,0.1882,0.1882,1,24,186,118,1,eightsix,,,,,,,,,,,,,,,,,,,,,,,,,,,,,,,,,,,,,,,,,,,,,,,,,,,,,,,,,,,,,,,,,,,,,,,,,,,,,,,,,,,,,,,,,,,,,,,,,,,,,,,,,,,,,,,,,,,,,,,,,,,,,,,,,,,,,,,,,
,,6130c7f7d0112fa23b17079c,2026-03-17_10h21.58.202,kallum_motion_pilot_GIST_update_2,2026.1.1,Win32,59.88023952,6130c7f7d0112fa23b17079c,69b92ab4aef6dee357cd729a,69b92ad3783f0f99256e0009,0.1889,0.1889,1,25,187,31,1,fourthree,,,,,,,,,,,,,,,,,,,,,,,,,,,,,,,,,,,,,,,,,,,,,,,,,,,,,,,,,,,,,,,,,,,,,,,,,,,,,,,,,,,,,,,,,,,,,,,,,,,,,,,,,,,,,,,,,,,,,,,,,,,,,,,,,,,,,,,,,
,,6130c7f7d0112fa23b17079c,2026-03-17_10h21.58.202,kallum_motion_pilot_GIST_update_2,2026.1.1,Win32,59.88023952,6130c7f7d0112fa23b17079c,69b92ab4aef6dee357cd729a,69b92ad3783f0f99256e0009,0.1894,0.1895,1,26,188,100,1,sevenfive,,,,,,,,,,,,,,,,,,,,,,,,,,,,,,,,,,,,,,,,,,,,,,,,,,,,,,,,,,,,,,,,,,,,,,,,,,,,,,,,,,,,,,,,,,,,,,,,,,,,,,,,,,,,,,,,,,,,,,,,,,,,,,,,,,,,,,,,,
,,6130c7f7d0112fa23b17079c,2026-03-17_10h21.58.202,kallum_motion_pilot_GIST_update_2,2026.1.1,Win32,59.88023952,6130c7f7d0112fa23b17079c,69b92ab4aef6dee357cd729a,69b92ad3783f0f99256e0009,0.1903,0.1903,1,27,189,65,1,onethree,,,,,,,,,,,,,,,,,,,,,,,,,,,,,,,,,,,,,,,,,,,,,,,,,,,,,,,,,,,,,,,,,,,,,,,,,,,,,,,,,,,,,,,,,,,,,,,,,,,,,,,,,,,,,,,,,,,,,,,,,,,,,,,,,,,,,,,,,
,,6130c7f7d0112fa23b17079c,2026-03-17_10h21.58.202,kallum_motion_pilot_GIST_update_2,2026.1.1,Win32,59.88023952,6130c7f7d0112fa23b17079c,69b92ab4aef6dee357cd729a,69b92ad3783f0f99256e0009,0.1909,0.1909,1,28,190,35,1,twofour,,,,,,,,,,,,,,,,,,,,,,,,,,,,,,,,,,,,,,,,,,,,,,,,,,,,,,,,,,,,,,,,,,,,,,,,,,,,,,,,,,,,,,,,,,,,,,,,,,,,,,,,,,,,,,,,,,,,,,,,,,,,,,,,,,,,,,,,,
,,6130c7f7d0112fa23b17079c,2026-03-17_10h21.58.202,kallum_motion_pilot_GIST_update_2,2026.1.1,Win32,59.88023952,6130c7f7d0112fa23b17079c,69b92ab4aef6dee357cd729a,69b92ad3783f0f99256e0009,0.1915,0.1915,1,29,191,42,1,twoone,,,,,,,,,,,,,,,,,,,,,,,,,,,,,,,,,,,,,,,,,,,,,,,,,,,,,,,,,,,,,,,,,,,,,,,,,,,,,,,,,,,,,,,,,,,,,,,,,,,,,,,,,,,,,,,,,,,,,,,,,,,,,,,,,,,,,,,,,
,,6130c7f7d0112fa23b17079c,2026-03-17_10h21.58.202,kallum_motion_pilot_GIST_update_2,2026.1.1,Win32,59.88023952,6130c7f7d0112fa23b17079c,69b92ab4aef6dee357cd729a,69b92ad3783f0f99256e0009,0.192,0.192,1,30,192,20,1,threeone,,,,,,,,,,,,,,,,,,,,,,,,,,,,,,,,,,,,,,,,,,,,,,,,,,,,,,,,,,,,,,,,,,,,,,,,,,,,,,,,,,,,,,,,,,,,,,,,,,,,,,,,,,,,,,,,,,,,,,,,,,,,,,,,,,,,,,,,,
,,6130c7f7d0112fa23b17079c,2026-03-17_10h21.58.202,kallum_motion_pilot_GIST_update_2,2026.1.1,Win32,59.88023952,6130c7f7d0112fa23b17079c,69b92ab4aef6dee357cd729a,69b92ad3783f0f99256e0009,0.1928,0.1928,1,31,193,16,1,onetwo,,,,,,,,,,,,,,,,,,,,,,,,,,,,,,,,,,,,,,,,,,,,,,,,,,,,,,,,,,,,,,,,,,,,,,,,,,,,,,,,,,,,,,,,,,,,,,,,,,,,,,,,,,,,,,,,,,,,,,,,,,,,,,,,,,,,,,,,,
,,6130c7f7d0112fa23b17079c,2026-03-17_10h21.58.202,kallum_motion_pilot_GIST_update_2,2026.1.1,Win32,59.88023952,6130c7f7d0112fa23b17079c,69b92ab4aef6dee357cd729a,69b92ad3783f0f99256e0009,0.194,0.1941,1,32,194,2,1,twoone,,,,,,,,,,,,,,,,,,,,,,,,,,,,,,,,,,,,,,,,,,,,,,,,,,,,,,,,,,,,,,,,,,,,,,,,,,,,,,,,,,,,,,,,,,,,,,,,,,,,,,,,,,,,,,,,,,,,,,,,,,,,,,,,,,,,,,,,,
,,6130c7f7d0112fa23b17079c,2026-03-17_10h21.58.202,kallum_motion_pilot_GIST_update_2,2026.1.1,Win32,59.88023952,6130c7f7d0112fa23b17079c,69b92ab4aef6dee357cd729a,69b92ad3783f0f99256e0009,0.1952,0.1952,1,33,195,104,1,fivesix,,,,,,,,,,,,,,,,,,,,,,,,,,,,,,,,,,,,,,,,,,,,,,,,,,,,,,,,,,,,,,,,,,,,,,,,,,,,,,,,,,,,,,,,,,,,,,,,,,,,,,,,,,,,,,,,,,,,,,,,,,,,,,,,,,,,,,,,,
,,6130c7f7d0112fa23b17079c,2026-03-17_10h21.58.202,kallum_motion_pilot_GIST_update_2,2026.1.1,Win32,59.88023952,6130c7f7d0112fa23b17079c,69b92ab4aef6dee357cd729a,69b92ad3783f0f99256e0009,0.196,0.1961,1,34,196,125,1,seveneight,,,,,,,,,,,,,,,,,,,,,,,,,,,,,,,,,,,,,,,,,,,,,,,,,,,,,,,,,,,,,,,,,,,,,,,,,,,,,,,,,,,,,,,,,,,,,,,,,,,,,,,,,,,,,,,,,,,,,,,,,,,,,,,,,,,,,,,,,
,,6130c7f7d0112fa23b17079c,2026-03-17_10h21.58.202,kallum_motion_pilot_GIST_update_2,2026.1.1,Win32,59.88023952,6130c7f7d0112fa23b17079c,69b92ab4aef6dee357cd729a,69b92ad3783f0f99256e0009,0.1966,0.1967,1,35,197,44,1,threeone,,,,,,,,,,,,,,,,,,,,,,,,,,,,,,,,,,,,,,,,,,,,,,,,,,,,,,,,,,,,,,,,,,,,,,,,,,,,,,,,,,,,,,,,,,,,,,,,,,,,,,,,,,,,,,,,,,,,,,,,,,,,,,,,,,,,,,,,,
,,6130c7f7d0112fa23b17079c,2026-03-17_10h21.58.202,kallum_motion_pilot_GIST_update_2,2026.1.1,Win32,59.88023952,6130c7f7d0112fa23b17079c,69b92ab4aef6dee357cd729a,69b92ad3783f0f99256e0009,0.1972,0.1972,1,36,198,53,1,threefour,,,,,,,,,,,,,,,,,,,,,,,,,,,,,,,,,,,,,,,,,,,,,,,,,,,,,,,,,,,,,,,,,,,,,,,,,,,,,,,,,,,,,,,,,,,,,,,,,,,,,,,,,,,,,,,,,,,,,,,,,,,,,,,,,,,,,,,,,
,,6130c7f7d0112fa23b17079c,2026-03-17_10h21.58.202,kallum_motion_pilot_GIST_update_2,2026.1.1,Win32,59.88023952,6130c7f7d0112fa23b17079c,69b92ab4aef6dee357cd729a,69b92ad3783f0f99256e0009,0.198,0.1981,1,37,199,13,1,threefour,,,,,,,,,,,,,,,,,,,,,,,,,,,,,,,,,,,,,,,,,,,,,,,,,,,,,,,,,,,,,,,,,,,,,,,,,,,,,,,,,,,,,,,,,,,,,,,,,,,,,,,,,,,,,,,,,,,,,,,,,,,,,,,,,,,,,,,,,
,,6130c7f7d0112fa23b17079c,2026-03-17_10h21.58.202,kallum_motion_pilot_GIST_update_2,2026.1.1,Win32,59.88023952,6130c7f7d0112fa23b17079c,69b92ab4aef6dee357cd729a,69b92ad3783f0f99256e0009,0.1988,0.1988,1,38,200,146,1,sixfive,,,,,,,,,,,,,,,,,,,,,,,,,,,,,,,,,,,,,,,,,,,,,,,,,,,,,,,,,,,,,,,,,,,,,,,,,,,,,,,,,,,,,,,,,,,,,,,,,,,,,,,,,,,,,,,,,,,,,,,,,,,,,,,,,,,,,,,,,
,,6130c7f7d0112fa23b17079c,2026-03-17_10h21.58.202,kallum_motion_pilot_GIST_update_2,2026.1.1,Win32,59.88023952,6130c7f7d0112fa23b17079c,69b92ab4aef6dee357cd729a,69b92ad3783f0f99256e0009,0.1994,0.1995,1,39,201,69,1,threefour,,,,,,,,,,,,,,,,,,,,,,,,,,,,,,,,,,,,,,,,,,,,,,,,,,,,,,,,,,,,,,,,,,,,,,,,,,,,,,,,,,,,,,,,,,,,,,,,,,,,,,,,,,,,,,,,,,,,,,,,,,,,,,,,,,,,,,,,,
,,6130c7f7d0112fa23b17079c,2026-03-17_10h21.58.202,kallum_motion_pilot_GIST_update_2,2026.1.1,Win32,59.88023952,6130c7f7d0112fa23b17079c,69b92ab4aef6dee357cd729a,69b92ad3783f0f99256e0009,0.2001,0.2001,1,40,202,67,1,twofour,,,,,,,,,,,,,,,,,,,,,,,,,,,,,,,,,,,,,,,,,,,,,,,,,,,,,,,,,,,,,,,,,,,,,,,,,,,,,,,,,,,,,,,,,,,,,,,,,,,,,,,,,,,,,,,,,,,,,,,,,,,,,,,,,,,,,,,,,
,,6130c7f7d0112fa23b17079c,2026-03-17_10h21.58.202,kallum_motion_pilot_GIST_update_2,2026.1.1,Win32,59.88023952,6130c7f7d0112fa23b17079c,69b92ab4aef6dee357cd729a,69b92ad3783f0f99256e0009,0.2008,0.2008,1,41,203,60,1,threeone,,,,,,,,,,,,,,,,,,,,,,,,,,,,,,,,,,,,,,,,,,,,,,,,,,,,,,,,,,,,,,,,,,,,,,,,,,,,,,,,,,,,,,,,,,,,,,,,,,,,,,,,,,,,,,,,,,,,,,,,,,,,,,,,,,,,,,,,,
,,6130c7f7d0112fa23b17079c,2026-03-17_10h21.58.202,kallum_motion_pilot_GIST_update_2,2026.1.1,Win32,59.88023952,6130c7f7d0112fa23b17079c,69b92ab4aef6dee357cd729a,69b92ad3783f0f99256e0009,0.2013,0.2014,1,42,204,124,1,sevenfive,,,,,,,,,,,,,,,,,,,,,,,,,,,,,,,,,,,,,,,,,,,,,,,,,,,,,,,,,,,,,,,,,,,,,,,,,,,,,,,,,,,,,,,,,,,,,,,,,,,,,,,,,,,,,,,,,,,,,,,,,,,,,,,,,,,,,,,,,
,,6130c7f7d0112fa23b17079c,2026-03-17_10h21.58.202,kallum_motion_pilot_GIST_update_2,2026.1.1,Win32,59.88023952,6130c7f7d0112fa23b17079c,69b92ab4aef6dee357cd729a,69b92ad3783f0f99256e0009,0.202,0.2022,1,43,205,120,1,fivesix,,,,,,,,,,,,,,,,,,,,,,,,,,,,,,,,,,,,,,,,,,,,,,,,,,,,,,,,,,,,,,,,,,,,,,,,,,,,,,,,,,,,,,,,,,,,,,,,,,,,,,,,,,,,,,,,,,,,,,,,,,,,,,,,,,,,,,,,,
,,6130c7f7d0112fa23b17079c,2026-03-17_10h21.58.202,kallum_motion_pilot_GIST_update_2,2026.1.1,Win32,59.88023952,6130c7f7d0112fa23b17079c,69b92ab4aef6dee357cd729a,69b92ad3783f0f99256e0009,0.2028,0.2029,1,44,206,134,1,eightsix,,,,,,,,,,,,,,,,,,,,,,,,,,,,,,,,,,,,,,,,,,,,,,,,,,,,,,,,,,,,,,,,,,,,,,,,,,,,,,,,,,,,,,,,,,,,,,,,,,,,,,,,,,,,,,,,,,,,,,,,,,,,,,,,,,,,,,,,,
,,6130c7f7d0112fa23b17079c,2026-03-17_10h21.58.202,kallum_motion_pilot_GIST_update_2,2026.1.1,Win32,59.88023952,6130c7f7d0112fa23b17079c,69b92ab4aef6dee357cd729a,69b92ad3783f0f99256e0009,0.2035,0.2037,1,45,207,82,1,sixfive,,,,,,,,,,,,,,,,,,,,,,,,,,,,,,,,,,,,,,,,,,,,,,,,,,,,,,,,,,,,,,,,,,,,,,,,,,,,,,,,,,,,,,,,,,,,,,,,,,,,,,,,,,,,,,,,,,,,,,,,,,,,,,,,,,,,,,,,,
,,6130c7f7d0112fa23b17079c,2026-03-17_10h21.58.202,kallum_motion_pilot_GIST_update_2,2026.1.1,Win32,59.88023952,6130c7f7d0112fa23b17079c,69b92ab4aef6dee357cd729a,69b92ad3783f0f99256e0009,0.2042,0.2043,1,46,208,135,1,eightseven,,,,,,,,,,,,,,,,,,,,,,,,,,,,,,,,,,,,,,,,,,,,,,,,,,,,,,,,,,,,,,,,,,,,,,,,,,,,,,,,,,,,,,,,,,,,,,,,,,,,,,,,,,,,,,,,,,,,,,,,,,,,,,,,,,,,,,,,,
,,6130c7f7d0112fa23b17079c,2026-03-17_10h21.58.202,kallum_motion_pilot_GIST_update_2,2026.1.1,Win32,59.88023952,6130c7f7d0112fa23b17079c,69b92ab4aef6dee357cd729a,69b92ad3783f0f99256e0009,0.205,0.205,1,47,209,92,1,sevenfive,,,,,,,,,,,,,,,,,,,,,,,,,,,,,,,,,,,,,,,,,,,,,,,,,,,,,,,,,,,,,,,,,,,,,,,,,,,,,,,,,,,,,,,,,,,,,,,,,,,,,,,,,,,,,,,,,,,,,,,,,,,,,,,,,,,,,,,,,
,,6130c7f7d0112fa23b17079c,2026-03-17_10h21.58.202,kallum_motion_pilot_GIST_update_2,2026.1.1,Win32,59.88023952,6130c7f7d0112fa23b17079c,69b92ab4aef6dee357cd729a,69b92ad3783f0f99256e0009,0.2058,0.2058,1,48,210,7,1,fourthree,,,,,,,,,,,,,,,,,,,,,,,,,,,,,,,,,,,,,,,,,,,,,,,,,,,,,,,,,,,,,,,,,,,,,,,,,,,,,,,,,,,,,,,,,,,,,,,,,,,,,,,,,,,,,,,,,,,,,,,,,,,,,,,,,,,,,,,,,
,,6130c7f7d0112fa23b17079c,2026-03-17_10h21.58.202,kallum_motion_pilot_GIST_update_2,2026.1.1,Win32,59.88023952,6130c7f7d0112fa23b17079c,69b92ab4aef6dee357cd729a,69b92ad3783f0f99256e0009,0.2065,0.2066,1,49,211,54,1,fourtwo,,,,,,,,,,,,,,,,,,,,,,,,,,,,,,,,,,,,,,,,,,,,,,,,,,,,,,,,,,,,,,,,,,,,,,,,,,,,,,,,,,,,,,,,,,,,,,,,,,,,,,,,,,,,,,,,,,,,,,,,,,,,,,,,,,,,,,,,,
,,6130c7f7d0112fa23b17079c,2026-03-17_10h21.58.202,kallum_motion_pilot_GIST_update_2,2026.1.1,Win32,59.88023952,6130c7f7d0112fa23b17079c,69b92ab4aef6dee357cd729a,69b92ad3783f0f99256e0009,0.2073,0.2073,1,50,212,72,1,onetwo,,,,,,,,,,,,,,,,,,,,,,,,,,,,,,,,,,,,,,,,,,,,,,,,,,,,,,,,,,,,,,,,,,,,,,,,,,,,,,,,,,,,,,,,,,,,,,,,,,,,,,,,,,,,,,,,,,,,,,,,,,,,,,,,,,,,,,,,,
,,6130c7f7d0112fa23b17079c,2026-03-17_10h21.58.202,kallum_motion_pilot_GIST_update_2,2026.1.1,Win32,59.88023952,6130c7f7d0112fa23b17079c,69b92ab4aef6dee357cd729a,69b92ad3783f0f99256e0009,0.2079,0.208,1,51,213,80,1,fivesix,,,,,,,,,,,,,,,,,,,,,,,,,,,,,,,,,,,,,,,,,,,,,,,,,,,,,,,,,,,,,,,,,,,,,,,,,,,,,,,,,,,,,,,,,,,,,,,,,,,,,,,,,,,,,,,,,,,,,,,,,,,,,,,,,,,,,,,,,
,,6130c7f7d0112fa23b17079c,2026-03-17_10h21.58.202,kallum_motion_pilot_GIST_update_2,2026.1.1,Win32,59.88023952,6130c7f7d0112fa23b17079c,69b92ab4aef6dee357cd729a,69b92ad3783f0f99256e0009,0.2086,0.2087,1,52,214,58,1,twoone,,,,,,,,,,,,,,,,,,,,,,,,,,,,,,,,,,,,,,,,,,,,,,,,,,,,,,,,,,,,,,,,,,,,,,,,,,,,,,,,,,,,,,,,,,,,,,,,,,,,,,,,,,,,,,,,,,,,,,,,,,,,,,,,,,,,,,,,,
,,6130c7f7d0112fa23b17079c,2026-03-17_10h21.58.202,kallum_motion_pilot_GIST_update_2,2026.1.1,Win32,59.88023952,6130c7f7d0112fa23b17079c,69b92ab4aef6dee357cd729a,69b92ad3783f0f99256e0009,0.2096,0.2096,1,53,215,161,1,fiveseven,,,,,,,,,,,,,,,,,,,,,,,,,,,,,,,,,,,,,,,,,,,,,,,,,,,,,,,,,,,,,,,,,,,,,,,,,,,,,,,,,,,,,,,,,,,,,,,,,,,,,,,,,,,,,,,,,,,,,,,,,,,,,,,,,,,,,,,,,
,,6130c7f7d0112fa23b17079c,2026-03-17_10h21.58.202,kallum_motion_pilot_GIST_update_2,2026.1.1,Win32,59.88023952,6130c7f7d0112fa23b17079c,69b92ab4aef6dee357cd729a,69b92ad3783f0f99256e0009,0.2103,0.2103,1,54,216,97,1,fiveseven,,,,,,,,,,,,,,,,,,,,,,,,,,,,,,,,,,,,,,,,,,,,,,,,,,,,,,,,,,,,,,,,,,,,,,,,,,,,,,,,,,,,,,,,,,,,,,,,,,,,,,,,,,,,,,,,,,,,,,,,,,,,,,,,,,,,,,,,,
,,6130c7f7d0112fa23b17079c,2026-03-17_10h21.58.202,kallum_motion_pilot_GIST_update_2,2026.1.1,Win32,59.88023952,6130c7f7d0112fa23b17079c,69b92ab4aef6dee357cd729a,69b92ad3783f0f99256e0009,0.2111,0.2112,1,55,217,19,1,twofour,,,,,,,,,,,,,,,,,,,,,,,,,,,,,,,,,,,,,,,,,,,,,,,,,,,,,,,,,,,,,,,,,,,,,,,,,,,,,,,,,,,,,,,,,,,,,,,,,,,,,,,,,,,,,,,,,,,,,,,,,,,,,,,,,,,,,,,,,
,,6130c7f7d0112fa23b17079c,2026-03-17_10h21.58.202,kallum_motion_pilot_GIST_update_2,2026.1.1,Win32,59.88023952,6130c7f7d0112fa23b17079c,69b92ab4aef6dee357cd729a,69b92ad3783f0f99256e0009,0.2119,0.2119,1,56,218,86,1,eightsix,,,,,,,,,,,,,,,,,,,,,,,,,,,,,,,,,,,,,,,,,,,,,,,,,,,,,,,,,,,,,,,,,,,,,,,,,,,,,,,,,,,,,,,,,,,,,,,,,,,,,,,,,,,,,,,,,,,,,,,,,,,,,,,,,,,,,,,,,
,,6130c7f7d0112fa23b17079c,2026-03-17_10h21.58.202,kallum_motion_pilot_GIST_update_2,2026.1.1,Win32,59.88023952,6130c7f7d0112fa23b17079c,69b92ab4aef6dee357cd729a,69b92ad3783f0f99256e0009,0.2126,0.2126,1,57,219,43,1,twofour,,,,,,,,,,,,,,,,,,,,,,,,,,,,,,,,,,,,,,,,,,,,,,,,,,,,,,,,,,,,,,,,,,,,,,,,,,,,,,,,,,,,,,,,,,,,,,,,,,,,,,,,,,,,,,,,,,,,,,,,,,,,,,,,,,,,,,,,,
,,6130c7f7d0112fa23b17079c,2026-03-17_10h21.58.202,kallum_motion_pilot_GIST_update_2,2026.1.1,Win32,59.88023952,6130c7f7d0112fa23b17079c,69b92ab4aef6dee357cd729a,69b92ad3783f0f99256e0009,0.2133,0.2133,1,58,220,56,1,onetwo,,,,,,,,,,,,,,,,,,,,,,,,,,,,,,,,,,,,,,,,,,,,,,,,,,,,,,,,,,,,,,,,,,,,,,,,,,,,,,,,,,,,,,,,,,,,,,,,,,,,,,,,,,,,,,,,,,,,,,,,,,,,,,,,,,,,,,,,,
,,6130c7f7d0112fa23b17079c,2026-03-17_10h21.58.202,kallum_motion_pilot_GIST_update_2,2026.1.1,Win32,59.88023952,6130c7f7d0112fa23b17079c,69b92ab4aef6dee357cd729a,69b92ad3783f0f99256e0009,0.2138,0.2138,1,59,221,136,1,fivesix,,,,,,,,,,,,,,,,,,,,,,,,,,,,,,,,,,,,,,,,,,,,,,,,,,,,,,,,,,,,,,,,,,,,,,,,,,,,,,,,,,,,,,,,,,,,,,,,,,,,,,,,,,,,,,,,,,,,,,,,,,,,,,,,,,,,,,,,,
,,6130c7f7d0112fa23b17079c,2026-03-17_10h21.58.202,kallum_motion_pilot_GIST_update_2,2026.1.1,Win32,59.88023952,6130c7f7d0112fa23b17079c,69b92ab4aef6dee357cd729a,69b92ad3783f0f99256e0009,0.2145,0.2145,1,60,222,24,1,onetwo,,,,,,,,,,,,,,,,,,,,,,,,,,,,,,,,,,,,,,,,,,,,,,,,,,,,,,,,,,,,,,,,,,,,,,,,,,,,,,,,,,,,,,,,,,,,,,,,,,,,,,,,,,,,,,,,,,,,,,,,,,,,,,,,,,,,,,,,,
,,6130c7f7d0112fa23b17079c,2026-03-17_10h21.58.202,kallum_motion_pilot_GIST_update_2,2026.1.1,Win32,59.88023952,6130c7f7d0112fa23b17079c,69b92ab4aef6dee357cd729a,69b92ad3783f0f99256e0009,0.2153,0.2153,1,61,223,75,1,twofour,,,,,,,,,,,,,,,,,,,,,,,,,,,,,,,,,,,,,,,,,,,,,,,,,,,,,,,,,,,,,,,,,,,,,,,,,,,,,,,,,,,,,,,,,,,,,,,,,,,,,,,,,,,,,,,,,,,,,,,,,,,,,,,,,,,,,,,,,
,,6130c7f7d0112fa23b17079c,2026-03-17_10h21.58.202,kallum_motion_pilot_GIST_update_2,2026.1.1,Win32,59.88023952,6130c7f7d0112fa23b17079c,69b92ab4aef6dee357cd729a,69b92ad3783f0f99256e0009,0.216,0.216,1,62,224,112,1,fivesix,,,,,,,,,,,,,,,,,,,,,,,,,,,,,,,,,,,,,,,,,,,,,,,,,,,,,,,,,,,,,,,,,,,,,,,,,,,,,,,,,,,,,,,,,,,,,,,,,,,,,,,,,,,,,,,,,,,,,,,,,,,,,,,,,,,,,,,,,
,,6130c7f7d0112fa23b17079c,2026-03-17_10h21.58.202,kallum_motion_pilot_GIST_update_2,2026.1.1,Win32,59.88023952,6130c7f7d0112fa23b17079c,69b92ab4aef6dee357cd729a,69b92ad3783f0f99256e0009,0.2167,0.2167,1,63,225,79,1,eightseven,,,,,,,,,,,,,,,,,,,,,,,,,,,,,,,,,,,,,,,,,,,,,,,,,,,,,,,,,,,,,,,,,,,,,,,,,,,,,,,,,,,,,,,,,,,,,,,,,,,,,,,,,,,,,,,,,,,,,,,,,,,,,,,,,,,,,,,,,
,,6130c7f7d0112fa23b17079c,2026-03-17_10h21.58.202,kallum_motion_pilot_GIST_update_2,2026.1.1,Win32,59.88023952,6130c7f7d0112fa23b17079c,69b92ab4aef6dee357cd729a,69b92ad3783f0f99256e0009,0.2175,0.2175,1,64,226,98,1,sixfive,,,,,,,,,,,,,,,,,,,,,,,,,,,,,,,,,,,,,,,,,,,,,,,,,,,,,,,,,,,,,,,,,,,,,,,,,,,,,,,,,,,,,,,,,,,,,,,,,,,,,,,,,,,,,,,,,,,,,,,,,,,,,,,,,,,,,,,,,
,,6130c7f7d0112fa23b17079c,2026-03-17_10h21.58.202,kallum_motion_pilot_GIST_update_2,2026.1.1,Win32,59.88023952,6130c7f7d0112fa23b17079c,69b92ab4aef6dee357cd729a,69b92ad3783f0f99256e0009,0.2182,0.2182,1,65,227,123,1,sixeight,,,,,,,,,,,,,,,,,,,,,,,,,,,,,,,,,,,,,,,,,,,,,,,,,,,,,,,,,,,,,,,,,,,,,,,,,,,,,,,,,,,,,,,,,,,,,,,,,,,,,,,,,,,,,,,,,,,,,,,,,,,,,,,,,,,,,,,,,
,,6130c7f7d0112fa23b17079c,2026-03-17_10h21.58.202,kallum_motion_pilot_GIST_update_2,2026.1.1,Win32,59.88023952,6130c7f7d0112fa23b17079c,69b92ab4aef6dee357cd729a,69b92ad3783f0f99256e0009,0.2189,0.2189,1,66,228,137,1,fiveseven,,,,,,,,,,,,,,,,,,,,,,,,,,,,,,,,,,,,,,,,,,,,,,,,,,,,,,,,,,,,,,,,,,,,,,,,,,,,,,,,,,,,,,,,,,,,,,,,,,,,,,,,,,,,,,,,,,,,,,,,,,,,,,,,,,,,,,,,,
,,6130c7f7d0112fa23b17079c,2026-03-17_10h21.58.202,kallum_motion_pilot_GIST_update_2,2026.1.1,Win32,59.88023952,6130c7f7d0112fa23b17079c,69b92ab4aef6dee357cd729a,69b92ad3783f0f99256e0009,0.2196,0.2197,1,67,229,83,1,sixeight,,,,,,,,,,,,,,,,,,,,,,,,,,,,,,,,,,,,,,,,,,,,,,,,,,,,,,,,,,,,,,,,,,,,,,,,,,,,,,,,,,,,,,,,,,,,,,,,,,,,,,,,,,,,,,,,,,,,,,,,,,,,,,,,,,,,,,,,,
,,6130c7f7d0112fa23b17079c,2026-03-17_10h21.58.202,kallum_motion_pilot_GIST_update_2,2026.1.1,Win32,59.88023952,6130c7f7d0112fa23b17079c,69b92ab4aef6dee357cd729a,69b92ad3783f0f99256e0009,0.2204,0.2204,1,68,230,108,1,sevenfive,,,,,,,,,,,,,,,,,,,,,,,,,,,,,,,,,,,,,,,,,,,,,,,,,,,,,,,,,,,,,,,,,,,,,,,,,,,,,,,,,,,,,,,,,,,,,,,,,,,,,,,,,,,,,,,,,,,,,,,,,,,,,,,,,,,,,,,,,
,,6130c7f7d0112fa23b17079c,2026-03-17_10h21.58.202,kallum_motion_pilot_GIST_update_2,2026.1.1,Win32,59.88023952,6130c7f7d0112fa23b17079c,69b92ab4aef6dee357cd729a,69b92ad3783f0f99256e0009,0.2211,0.2212,1,69,231,116,1,sevenfive,,,,,,,,,,,,,,,,,,,,,,,,,,,,,,,,,,,,,,,,,,,,,,,,,,,,,,,,,,,,,,,,,,,,,,,,,,,,,,,,,,,,,,,,,,,,,,,,,,,,,,,,,,,,,,,,,,,,,,,,,,,,,,,,,,,,,,,,,
,,6130c7f7d0112fa23b17079c,2026-03-17_10h21.58.202,kallum_motion_pilot_GIST_update_2,2026.1.1,Win32,59.88023952,6130c7f7d0112fa23b17079c,69b92ab4aef6dee357cd729a,69b92ad3783f0f99256e0009,0.2218,0.2219,1,70,232,117,1,seveneight,,,,,,,,,,,,,,,,,,,,,,,,,,,,,,,,,,,,,,,,,,,,,,,,,,,,,,,,,,,,,,,,,,,,,,,,,,,,,,,,,,,,,,,,,,,,,,,,,,,,,,,,,,,,,,,,,,,,,,,,,,,,,,,,,,,,,,,,,
,,6130c7f7d0112fa23b17079c,2026-03-17_10h21.58.202,kallum_motion_pilot_GIST_update_2,2026.1.1,Win32,59.88023952,6130c7f7d0112fa23b17079c,69b92ab4aef6dee357cd729a,69b92ad3783f0f99256e0009,0.2226,0.2226,1,71,233,55,1,fourthree,,,,,,,,,,,,,,,,,,,,,,,,,,,,,,,,,,,,,,,,,,,,,,,,,,,,,,,,,,,,,,,,,,,,,,,,,,,,,,,,,,,,,,,,,,,,,,,,,,,,,,,,,,,,,,,,,,,,,,,,,,,,,,,,,,,,,,,,,
,,6130c7f7d0112fa23b17079c,2026-03-17_10h21.58.202,kallum_motion_pilot_GIST_update_2,2026.1.1,Win32,59.88023952,6130c7f7d0112fa23b17079c,69b92ab4aef6dee357cd729a,69b92ad3783f0f99256e0009,0.2233,0.2233,1,72,234,29,1,threefour,,,,,,,,,,,,,,,,,,,,,,,,,,,,,,,,,,,,,,,,,,,,,,,,,,,,,,,,,,,,,,,,,,,,,,,,,,,,,,,,,,,,,,,,,,,,,,,,,,,,,,,,,,,,,,,,,,,,,,,,,,,,,,,,,,,,,,,,,
,,6130c7f7d0112fa23b17079c,2026-03-17_10h21.58.202,kallum_motion_pilot_GIST_update_2,2026.1.1,Win32,59.88023952,6130c7f7d0112fa23b17079c,69b92ab4aef6dee357cd729a,69b92ad3783f0f99256e0009,0.2244,0.2245,1,73,235,102,1,eightsix,,,,,,,,,,,,,,,,,,,,,,,,,,,,,,,,,,,,,,,,,,,,,,,,,,,,,,,,,,,,,,,,,,,,,,,,,,,,,,,,,,,,,,,,,,,,,,,,,,,,,,,,,,,,,,,,,,,,,,,,,,,,,,,,,,,,,,,,,
,,6130c7f7d0112fa23b17079c,2026-03-17_10h21.58.202,kallum_motion_pilot_GIST_update_2,2026.1.1,Win32,59.88023952,6130c7f7d0112fa23b17079c,69b92ab4aef6dee357cd729a,69b92ad3783f0f99256e0009,0.2252,0.2252,1,74,236,95,1,eightseven,,,,,,,,,,,,,,,,,,,,,,,,,,,,,,,,,,,,,,,,,,,,,,,,,,,,,,,,,,,,,,,,,,,,,,,,,,,,,,,,,,,,,,,,,,,,,,,,,,,,,,,,,,,,,,,,,,,,,,,,,,,,,,,,,,,,,,,,,
,,6130c7f7d0112fa23b17079c,2026-03-17_10h21.58.202,kallum_motion_pilot_GIST_update_2,2026.1.1,Win32,59.88023952,6130c7f7d0112fa23b17079c,69b92ab4aef6dee357cd729a,69b92ad3783f0f99256e0009,0.2261,0.2262,1,75,237,12,1,threeone,,,,,,,,,,,,,,,,,,,,,,,,,,,,,,,,,,,,,,,,,,,,,,,,,,,,,,,,,,,,,,,,,,,,,,,,,,,,,,,,,,,,,,,,,,,,,,,,,,,,,,,,,,,,,,,,,,,,,,,,,,,,,,,,,,,,,,,,,
,,6130c7f7d0112fa23b17079c,2026-03-17_10h21.58.202,kallum_motion_pilot_GIST_update_2,2026.1.1,Win32,59.88023952,6130c7f7d0112fa23b17079c,69b92ab4aef6dee357cd729a,69b92ad3783f0f99256e0009,0.2269,0.227,1,76,238,132,1,sevenfive,,,,,,,,,,,,,,,,,,,,,,,,,,,,,,,,,,,,,,,,,,,,,,,,,,,,,,,,,,,,,,,,,,,,,,,,,,,,,,,,,,,,,,,,,,,,,,,,,,,,,,,,,,,,,,,,,,,,,,,,,,,,,,,,,,,,,,,,,
,,6130c7f7d0112fa23b17079c,2026-03-17_10h21.58.202,kallum_motion_pilot_GIST_update_2,2026.1.1,Win32,59.88023952,6130c7f7d0112fa23b17079c,69b92ab4aef6dee357cd729a,69b92ad3783f0f99256e0009,0.2278,0.2278,1,77,239,110,1,eightsix,,,,,,,,,,,,,,,,,,,,,,,,,,,,,,,,,,,,,,,,,,,,,,,,,,,,,,,,,,,,,,,,,,,,,,,,,,,,,,,,,,,,,,,,,,,,,,,,,,,,,,,,,,,,,,,,,,,,,,,,,,,,,,,,,,,,,,,,,
,,6130c7f7d0112fa23b17079c,2026-03-17_10h21.58.202,kallum_motion_pilot_GIST_update_2,2026.1.1,Win32,59.88023952,6130c7f7d0112fa23b17079c,69b92ab4aef6dee357cd729a,69b92ad3783f0f99256e0009,0.2283,0.2284,1,78,240,6,1,fourtwo,,,,,,,,,,,,,,,,,,,,,,,,,,,,,,,,,,,,,,,,,,,,,,,,,,,,,,,,,,,,,,,,,,,,,,,,,,,,,,,,,,,,,,,,,,,,,,,,,,,,,,,,,,,,,,,,,,,,,,,,,,,,,,,,,,,,,,,,,
,,6130c7f7d0112fa23b17079c,2026-03-17_10h21.58.202,kallum_motion_pilot_GIST_update_2,2026.1.1,Win32,59.88023952,6130c7f7d0112fa23b17079c,69b92ab4aef6dee357cd729a,69b92ad3783f0f99256e0009,0.229,0.229,1,79,241,78,1,fourtwo,,,,,,,,,,,,,,,,,,,,,,,,,,,,,,,,,,,,,,,,,,,,,,,,,,,,,,,,,,,,,,,,,,,,,,,,,,,,,,,,,,,,,,,,,,,,,,,,,,,,,,,,,,,,,,,,,,,,,,,,,,,,,,,,,,,,,,,,,
,,6130c7f7d0112fa23b17079c,2026-03-17_10h21.58.202,kallum_motion_pilot_GIST_update_2,2026.1.1,Win32,59.88023952,6130c7f7d0112fa23b17079c,69b92ab4aef6dee357cd729a,69b92ad3783f0f99256e0009,0.2297,0.2297,1,80,242,84,1,sevenfive,,,,,,,,,,,,,,,,,,,,,,,,,,,,,,,,,,,,,,,,,,,,,,,,,,,,,,,,,,,,,,,,,,,,,,,,,,,,,,,,,,,,,,,,,,,,,,,,,,,,,,,,,,,,,,,,,,,,,,,,,,,,,,,,,,,,,,,,,
,,6130c7f7d0112fa23b17079c,2026-03-17_10h21.58.202,kallum_motion_pilot_GIST_update_2,2026.1.1,Win32,59.88023952,6130c7f7d0112fa23b17079c,69b92ab4aef6dee357cd729a,69b92ad3783f0f99256e0009,0.2302,0.2303,1,81,243,145,1,fiveseven,,,,,,,,,,,,,,,,,,,,,,,,,,,,,,,,,,,,,,,,,,,,,,,,,,,,,,,,,,,,,,,,,,,,,,,,,,,,,,,,,,,,,,,,,,,,,,,,,,,,,,,,,,,,,,,,,,,,,,,,,,,,,,,,,,,,,,,,,
,,6130c7f7d0112fa23b17079c,2026-03-17_10h21.58.202,kallum_motion_pilot_GIST_update_2,2026.1.1,Win32,59.88023952,6130c7f7d0112fa23b17079c,69b92ab4aef6dee357cd729a,69b92ad3783f0f99256e0009,0.2309,0.2309,1,82,244,143,1,eightseven,,,,,,,,,,,,,,,,,,,,,,,,,,,,,,,,,,,,,,,,,,,,,,,,,,,,,,,,,,,,,,,,,,,,,,,,,,,,,,,,,,,,,,,,,,,,,,,,,,,,,,,,,,,,,,,,,,,,,,,,,,,,,,,,,,,,,,,,,
,,6130c7f7d0112fa23b17079c,2026-03-17_10h21.58.202,kallum_motion_pilot_GIST_update_2,2026.1.1,Win32,59.88023952,6130c7f7d0112fa23b17079c,69b92ab4aef6dee357cd729a,69b92ad3783f0f99256e0009,0.2315,0.2315,1,83,245,103,1,eightseven,,,,,,,,,,,,,,,,,,,,,,,,,,,,,,,,,,,,,,,,,,,,,,,,,,,,,,,,,,,,,,,,,,,,,,,,,,,,,,,,,,,,,,,,,,,,,,,,,,,,,,,,,,,,,,,,,,,,,,,,,,,,,,,,,,,,,,,,,
,,6130c7f7d0112fa23b17079c,2026-03-17_10h21.58.202,kallum_motion_pilot_GIST_update_2,2026.1.1,Win32,59.88023952,6130c7f7d0112fa23b17079c,69b92ab4aef6dee357cd729a,69b92ad3783f0f99256e0009,0.232,0.232,1,84,246,89,1,fiveseven,,,,,,,,,,,,,,,,,,,,,,,,,,,,,,,,,,,,,,,,,,,,,,,,,,,,,,,,,,,,,,,,,,,,,,,,,,,,,,,,,,,,,,,,,,,,,,,,,,,,,,,,,,,,,,,,,,,,,,,,,,,,,,,,,,,,,,,,,
,,6130c7f7d0112fa23b17079c,2026-03-17_10h21.58.202,kallum_motion_pilot_GIST_update_2,2026.1.1,Win32,59.88023952,6130c7f7d0112fa23b17079c,69b92ab4aef6dee357cd729a,69b92ad3783f0f99256e0009,0.2326,0.2326,1,85,247,158,1,eightsix,,,,,,,,,,,,,,,,,,,,,,,,,,,,,,,,,,,,,,,,,,,,,,,,,,,,,,,,,,,,,,,,,,,,,,,,,,,,,,,,,,,,,,,,,,,,,,,,,,,,,,,,,,,,,,,,,,,,,,,,,,,,,,,,,,,,,,,,,
,,6130c7f7d0112fa23b17079c,2026-03-17_10h21.58.202,kallum_motion_pilot_GIST_update_2,2026.1.1,Win32,59.88023952,6130c7f7d0112fa23b17079c,69b92ab4aef6dee357cd729a,69b92ad3783f0f99256e0009,0.2332,0.2333,1,86,248,138,1,sixfive,,,,,,,,,,,,,,,,,,,,,,,,,,,,,,,,,,,,,,,,,,,,,,,,,,,,,,,,,,,,,,,,,,,,,,,,,,,,,,,,,,,,,,,,,,,,,,,,,,,,,,,,,,,,,,,,,,,,,,,,,,,,,,,,,,,,,,,,,
,,6130c7f7d0112fa23b17079c,2026-03-17_10h21.58.202,kallum_motion_pilot_GIST_update_2,2026.1.1,Win32,59.88023952,6130c7f7d0112fa23b17079c,69b92ab4aef6dee357cd729a,69b92ad3783f0f99256e0009,0.2338,0.2338,1,87,249,131,1,sixeight,,,,,,,,,,,,,,,,,,,,,,,,,,,,,,,,,,,,,,,,,,,,,,,,,,,,,,,,,,,,,,,,,,,,,,,,,,,,,,,,,,,,,,,,,,,,,,,,,,,,,,,,,,,,,,,,,,,,,,,,,,,,,,,,,,,,,,,,,
,,6130c7f7d0112fa23b17079c,2026-03-17_10h21.58.202,kallum_motion_pilot_GIST_update_2,2026.1.1,Win32,59.88023952,6130c7f7d0112fa23b17079c,69b92ab4aef6dee357cd729a,69b92ad3783f0f99256e0009,0.2343,0.2344,1,88,250,47,1,fourthree,,,,,,,,,,,,,,,,,,,,,,,,,,,,,,,,,,,,,,,,,,,,,,,,,,,,,,,,,,,,,,,,,,,,,,,,,,,,,,,,,,,,,,,,,,,,,,,,,,,,,,,,,,,,,,,,,,,,,,,,,,,,,,,,,,,,,,,,,
,,6130c7f7d0112fa23b17079c,2026-03-17_10h21.58.202,kallum_motion_pilot_GIST_update_2,2026.1.1,Win32,59.88023952,6130c7f7d0112fa23b17079c,69b92ab4aef6dee357cd729a,69b92ad3783f0f99256e0009,0.2349,0.2349,1,89,251,150,1,eightsix,,,,,,,,,,,,,,,,,,,,,,,,,,,,,,,,,,,,,,,,,,,,,,,,,,,,,,,,,,,,,,,,,,,,,,,,,,,,,,,,,,,,,,,,,,,,,,,,,,,,,,,,,,,,,,,,,,,,,,,,,,,,,,,,,,,,,,,,,
,,6130c7f7d0112fa23b17079c,2026-03-17_10h21.58.202,kallum_motion_pilot_GIST_update_2,2026.1.1,Win32,59.88023952,6130c7f7d0112fa23b17079c,69b92ab4aef6dee357cd729a,69b92ad3783f0f99256e0009,0.2357,0.2357,1,90,252,128,1,fivesix,,,,,,,,,,,,,,,,,,,,,,,,,,,,,,,,,,,,,,,,,,,,,,,,,,,,,,,,,,,,,,,,,,,,,,,,,,,,,,,,,,,,,,,,,,,,,,,,,,,,,,,,,,,,,,,,,,,,,,,,,,,,,,,,,,,,,,,,,
,,6130c7f7d0112fa23b17079c,2026-03-17_10h21.58.202,kallum_motion_pilot_GIST_update_2,2026.1.1,Win32,59.88023952,6130c7f7d0112fa23b17079c,69b92ab4aef6dee357cd729a,69b92ad3783f0f99256e0009,0.2363,0.2363,1,91,253,41,1,onethree,,,,,,,,,,,,,,,,,,,,,,,,,,,,,,,,,,,,,,,,,,,,,,,,,,,,,,,,,,,,,,,,,,,,,,,,,,,,,,,,,,,,,,,,,,,,,,,,,,,,,,,,,,,,,,,,,,,,,,,,,,,,,,,,,,,,,,,,,
,,6130c7f7d0112fa23b17079c,2026-03-17_10h21.58.202,kallum_motion_pilot_GIST_update_2,2026.1.1,Win32,59.88023952,6130c7f7d0112fa23b17079c,69b92ab4aef6dee357cd729a,69b92ad3783f0f99256e0009,0.237,0.237,1,92,254,156,1,sevenfive,,,,,,,,,,,,,,,,,,,,,,,,,,,,,,,,,,,,,,,,,,,,,,,,,,,,,,,,,,,,,,,,,,,,,,,,,,,,,,,,,,,,,,,,,,,,,,,,,,,,,,,,,,,,,,,,,,,,,,,,,,,,,,,,,,,,,,,,,
,,6130c7f7d0112fa23b17079c,2026-03-17_10h21.58.202,kallum_motion_pilot_GIST_update_2,2026.1.1,Win32,59.88023952,6130c7f7d0112fa23b17079c,69b92ab4aef6dee357cd729a,69b92ad3783f0f99256e0009,0.2378,0.2378,1,93,255,18,1,twoone,,,,,,,,,,,,,,,,,,,,,,,,,,,,,,,,,,,,,,,,,,,,,,,,,,,,,,,,,,,,,,,,,,,,,,,,,,,,,,,,,,,,,,,,,,,,,,,,,,,,,,,,,,,,,,,,,,,,,,,,,,,,,,,,,,,,,,,,,
,,6130c7f7d0112fa23b17079c,2026-03-17_10h21.58.202,kallum_motion_pilot_GIST_update_2,2026.1.1,Win32,59.88023952,6130c7f7d0112fa23b17079c,69b92ab4aef6dee357cd729a,69b92ad3783f0f99256e0009,0.2384,0.2385,1,94,256,52,1,threeone,,,,,,,,,,,,,,,,,,,,,,,,,,,,,,,,,,,,,,,,,,,,,,,,,,,,,,,,,,,,,,,,,,,,,,,,,,,,,,,,,,,,,,,,,,,,,,,,,,,,,,,,,,,,,,,,,,,,,,,,,,,,,,,,,,,,,,,,,
,,6130c7f7d0112fa23b17079c,2026-03-17_10h21.58.202,kallum_motion_pilot_GIST_update_2,2026.1.1,Win32,59.88023952,6130c7f7d0112fa23b17079c,69b92ab4aef6dee357cd729a,69b92ad3783f0f99256e0009,0.2392,0.2393,1,95,257,155,1,sixeight,,,,,,,,,,,,,,,,,,,,,,,,,,,,,,,,,,,,,,,,,,,,,,,,,,,,,,,,,,,,,,,,,,,,,,,,,,,,,,,,,,,,,,,,,,,,,,,,,,,,,,,,,,,,,,,,,,,,,,,,,,,,,,,,,,,,,,,,,
,,6130c7f7d0112fa23b17079c,2026-03-17_10h21.58.202,kallum_motion_pilot_GIST_update_2,2026.1.1,Win32,59.88023952,6130c7f7d0112fa23b17079c,69b92ab4aef6dee357cd729a,69b92ad3783f0f99256e0009,0.2399,0.2399,1,96,258,62,1,fourtwo,,,,,,,,,,,,,,,,,,,,,,,,,,,,,,,,,,,,,,,,,,,,,,,,,,,,,,,,,,,,,,,,,,,,,,,,,,,,,,,,,,,,,,,,,,,,,,,,,,,,,,,,,,,,,,,,,,,,,,,,,,,,,,,,,,,,,,,,,
,,6130c7f7d0112fa23b17079c,2026-03-17_10h21.58.202,kallum_motion_pilot_GIST_update_2,2026.1.1,Win32,59.88023952,6130c7f7d0112fa23b17079c,69b92ab4aef6dee357cd729a,69b92ad3783f0f99256e0009,0.2406,0.2406,1,97,259,113,1,fiveseven,,,,,,,,,,,,,,,,,,,,,,,,,,,,,,,,,,,,,,,,,,,,,,,,,,,,,,,,,,,,,,,,,,,,,,,,,,,,,,,,,,,,,,,,,,,,,,,,,,,,,,,,,,,,,,,,,,,,,,,,,,,,,,,,,,,,,,,,,
,,6130c7f7d0112fa23b17079c,2026-03-17_10h21.58.202,kallum_motion_pilot_GIST_update_2,2026.1.1,Win32,59.88023952,6130c7f7d0112fa23b17079c,69b92ab4aef6dee357cd729a,69b92ad3783f0f99256e0009,0.2413,0.2414,1,98,260,25,1,onethree,,,,,,,,,,,,,,,,,,,,,,,,,,,,,,,,,,,,,,,,,,,,,,,,,,,,,,,,,,,,,,,,,,,,,,,,,,,,,,,,,,,,,,,,,,,,,,,,,,,,,,,,,,,,,,,,,,,,,,,,,,,,,,,,,,,,,,,,,
,,6130c7f7d0112fa23b17079c,2026-03-17_10h21.58.202,kallum_motion_pilot_GIST_update_2,2026.1.1,Win32,59.88023952,6130c7f7d0112fa23b17079c,69b92ab4aef6dee357cd729a,69b92ad3783f0f99256e0009,0.2421,0.2421,1,99,261,76,1,threeone,,,,,,,,,,,,,,,,,,,,,,,,,,,,,,,,,,,,,,,,,,,,,,,,,,,,,,,,,,,,,,,,,,,,,,,,,,,,,,,,,,,,,,,,,,,,,,,,,,,,,,,,,,,,,,,,,,,,,,,,,,,,,,,,,,,,,,,,,
,,6130c7f7d0112fa23b17079c,2026-03-17_10h21.58.202,kallum_motion_pilot_GIST_update_2,2026.1.1,Win32,59.88023952,6130c7f7d0112fa23b17079c,69b92ab4aef6dee357cd729a,69b92ad3783f0f99256e0009,0.2427,0.2427,1,100,262,61,1,threefour,,,,,,,,,,,,,,,,,,,,,,,,,,,,,,,,,,,,,,,,,,,,,,,,,,,,,,,,,,,,,,,,,,,,,,,,,,,,,,,,,,,,,,,,,,,,,,,,,,,,,,,,,,,,,,,,,,,,,,,,,,,,,,,,,,,,,,,,,
,,6130c7f7d0112fa23b17079c,2026-03-17_10h21.58.202,kallum_motion_pilot_GIST_update_2,2026.1.1,Win32,59.88023952,6130c7f7d0112fa23b17079c,69b92ab4aef6dee357cd729a,69b92ad3783f0f99256e0009,0.2433,0.2433,1,101,263,81,1,fiveseven,,,,,,,,,,,,,,,,,,,,,,,,,,,,,,,,,,,,,,,,,,,,,,,,,,,,,,,,,,,,,,,,,,,,,,,,,,,,,,,,,,,,,,,,,,,,,,,,,,,,,,,,,,,,,,,,,,,,,,,,,,,,,,,,,,,,,,,,,
,,6130c7f7d0112fa23b17079c,2026-03-17_10h21.58.202,kallum_motion_pilot_GIST_update_2,2026.1.1,Win32,59.88023952,6130c7f7d0112fa23b17079c,69b92ab4aef6dee357cd729a,69b92ad3783f0f99256e0009,0.2444,0.2445,1,102,264,122,1,sixfive,,,,,,,,,,,,,,,,,,,,,,,,,,,,,,,,,,,,,,,,,,,,,,,,,,,,,,,,,,,,,,,,,,,,,,,,,,,,,,,,,,,,,,,,,,,,,,,,,,,,,,,,,,,,,,,,,,,,,,,,,,,,,,,,,,,,,,,,,
,,6130c7f7d0112fa23b17079c,2026-03-17_10h21.58.202,kallum_motion_pilot_GIST_update_2,2026.1.1,Win32,59.88023952,6130c7f7d0112fa23b17079c,69b92ab4aef6dee357cd729a,69b92ad3783f0f99256e0009,0.2451,0.2452,1,103,265,87,1,eightseven,,,,,,,,,,,,,,,,,,,,,,,,,,,,,,,,,,,,,,,,,,,,,,,,,,,,,,,,,,,,,,,,,,,,,,,,,,,,,,,,,,,,,,,,,,,,,,,,,,,,,,,,,,,,,,,,,,,,,,,,,,,,,,,,,,,,,,,,,
,,6130c7f7d0112fa23b17079c,2026-03-17_10h21.58.202,kallum_motion_pilot_GIST_update_2,2026.1.1,Win32,59.88023952,6130c7f7d0112fa23b17079c,69b92ab4aef6dee357cd729a,69b92ad3783f0f99256e0009,0.2458,0.2459,1,104,266,26,1,twoone,,,,,,,,,,,,,,,,,,,,,,,,,,,,,,,,,,,,,,,,,,,,,,,,,,,,,,,,,,,,,,,,,,,,,,,,,,,,,,,,,,,,,,,,,,,,,,,,,,,,,,,,,,,,,,,,,,,,,,,,,,,,,,,,,,,,,,,,,
