startup.started,startup.stopped,Prolific ID*,date,expName,psychopyVersion,OS,frameRate,participant,study_id,session,stimpositions.started,stimpositions.stopped,hardcoded_stimulus_positions.thisRepN,hardcoded_stimulus_positions.thisTrialN,hardcoded_stimulus_positions.thisN,hardcoded_stimulus_positions.thisIndex,hardcoded_stimulus_positions.ran,StimulusPos,stimorientation.started,stimorientation.stopped,prac_stimorientation_import_loop.thisRepN,prac_stimorientation_import_loop.thisTrialN,prac_stimorientation_import_loop.thisN,prac_stimorientation_import_loop.thisIndex,prac_stimorientation_import_loop.ran,Stimorientation,welcome_instr.started,welcome_instr.stopped,key_resp.keys,key_resp.rt,key_resp.duration,response_steppedout_1.started,response_steppedout_1.stopped,key_resp_20.keys,key_resp_20.rt,key_resp_20.duration,response_steppedout_2.started,response_steppedout_2.stopped,key_resp_19.keys,key_resp_19.rt,key_resp_19.duration,stim_response_instr.started,stim_response_instr.stopped,key_resp_15.keys,key_resp_15.rt,key_resp_15.duration,direction_instr_2.started,direction_instr_2.stopped,key_resp_9.keys,key_resp_9.rt,key_resp_9.duration,instr_prac.started,instr_prac.stopped,key_resp_10.keys,key_resp_10.rt,key_resp_10.duration,Stim1_display_prac.started,Stim1_display_prac.stopped,Ecc,Circle1_ori,Circle2_ori,response_prac.started,similarity,response_time,response_prac.stopped,mouse_5.x,mouse_5.y,mouse_5.leftButton,mouse_5.midButton,mouse_5.rightButton,mouse_5.clicked_name,responseprac_feedback.started,responseprac_feedback.stopped,summary2_prac.started,summary2_prac.stopped,mouse_6.x,mouse_6.y,mouse_6.leftButton,mouse_6.midButton,mouse_6.rightButton,mouse_6.clicked_name,duringprac.thisRepN,duringprac.thisTrialN,duringprac.thisN,duringprac.thisIndex,duringprac.ran,begin.started,begin.stopped,key_resp_22.keys,key_resp_22.rt,key_resp_22.duration,Stim1_display.started,Stim1_display.stopped,circle1_ori,circle2_ori,circle1_SF,circle2_SF,response.started,response.stopped,mouse.x,mouse.y,mouse.leftButton,mouse.midButton,mouse.rightButton,mouse.clicked_name,trialnumber,double_pass.thisRepN,double_pass.thisTrialN,double_pass.thisN,double_pass.thisIndex,double_pass.ran,double_pass.order,main_trial.thisRepN,main_trial.thisTrialN,main_trial.thisN,main_trial.thisIndex,main_trial.ran,main_trial.order,Trial_Counter,Catch,Frequencies,response_2.started,response_2.stopped,mouse_2.x,mouse_2.y,mouse_2.leftButton,mouse_2.midButton,mouse_2.rightButton,mouse_2.clicked_name,special_trial.started,special_trial.stopped,catch_1.started,catch_1.stopped,mouse_3.x,mouse_3.y,mouse_3.leftButton,mouse_3.midButton,mouse_3.rightButton,catchresponse,catchnumber,response_time_catch,response_sum.started,response_sum.stopped,mouse_11.x,mouse_11.y,mouse_11.leftButton,mouse_11.midButton,mouse_11.rightButton,flip_presentation_sequence_for_double_pass.started,flip_presentation_sequence_for_double_pass.stopped,goodbye.started,goodbye.stopped,key_resp_3.keys,key_resp_3.rt,key_resp_3.duration
0.0002,0.0003,6136266c04528ef90b95faa5,2026-03-17_12h20.37.460,kallum_motion_pilot_GIST_update_2,2026.1.1,Win32,60.24096386,6136266c04528ef90b95faa5,69b92ab4aef6dee357cd729a,69b92ae4e684930f88b65b4a,,,,,,,,,,,,,,,,,,,,,,,,,,,,,,,,,,,,,,,,,,,,,,,,,,,,,,,,,,,,,,,,,,,,,,,,,,,,,,,,,,,,,,,,,,,,,,,,,,,,,,,,,,,,,,,,,,,,,,,,,,,,,,,,,,,,,,,,,,,,,,,,,
,,6136266c04528ef90b95faa5,2026-03-17_12h20.37.460,kallum_motion_pilot_GIST_update_2,2026.1.1,Win32,60.24096386,6136266c04528ef90b95faa5,69b92ab4aef6dee357cd729a,69b92ae4e684930f88b65b4a,0.0175,0.0176,0,0,0,142,1,eightsix,,,,,,,,,,,,,,,,,,,,,,,,,,,,,,,,,,,,,,,,,,,,,,,,,,,,,,,,,,,,,,,,,,,,,,,,,,,,,,,,,,,,,,,,,,,,,,,,,,,,,,,,,,,,,,,,,,,,,,,,,,,,,,,,,,,,,,,,,
,,6136266c04528ef90b95faa5,2026-03-17_12h20.37.460,kallum_motion_pilot_GIST_update_2,2026.1.1,Win32,60.24096386,6136266c04528ef90b95faa5,69b92ab4aef6dee357cd729a,69b92ae4e684930f88b65b4a,0.0178,0.0178,0,1,1,112,1,fivesix,,,,,,,,,,,,,,,,,,,,,,,,,,,,,,,,,,,,,,,,,,,,,,,,,,,,,,,,,,,,,,,,,,,,,,,,,,,,,,,,,,,,,,,,,,,,,,,,,,,,,,,,,,,,,,,,,,,,,,,,,,,,,,,,,,,,,,,,,
,,6136266c04528ef90b95faa5,2026-03-17_12h20.37.460,kallum_motion_pilot_GIST_update_2,2026.1.1,Win32,60.24096386,6136266c04528ef90b95faa5,69b92ab4aef6dee357cd729a,69b92ae4e684930f88b65b4a,0.0179,0.0179,0,2,2,96,1,fivesix,,,,,,,,,,,,,,,,,,,,,,,,,,,,,,,,,,,,,,,,,,,,,,,,,,,,,,,,,,,,,,,,,,,,,,,,,,,,,,,,,,,,,,,,,,,,,,,,,,,,,,,,,,,,,,,,,,,,,,,,,,,,,,,,,,,,,,,,,
,,6136266c04528ef90b95faa5,2026-03-17_12h20.37.460,kallum_motion_pilot_GIST_update_2,2026.1.1,Win32,60.24096386,6136266c04528ef90b95faa5,69b92ab4aef6dee357cd729a,69b92ae4e684930f88b65b4a,0.0179,0.0179,0,3,3,95,1,eightseven,,,,,,,,,,,,,,,,,,,,,,,,,,,,,,,,,,,,,,,,,,,,,,,,,,,,,,,,,,,,,,,,,,,,,,,,,,,,,,,,,,,,,,,,,,,,,,,,,,,,,,,,,,,,,,,,,,,,,,,,,,,,,,,,,,,,,,,,,
,,6136266c04528ef90b95faa5,2026-03-17_12h20.37.460,kallum_motion_pilot_GIST_update_2,2026.1.1,Win32,60.24096386,6136266c04528ef90b95faa5,69b92ab4aef6dee357cd729a,69b92ae4e684930f88b65b4a,0.018,0.018,0,4,4,90,1,sixfive,,,,,,,,,,,,,,,,,,,,,,,,,,,,,,,,,,,,,,,,,,,,,,,,,,,,,,,,,,,,,,,,,,,,,,,,,,,,,,,,,,,,,,,,,,,,,,,,,,,,,,,,,,,,,,,,,,,,,,,,,,,,,,,,,,,,,,,,,
,,6136266c04528ef90b95faa5,2026-03-17_12h20.37.460,kallum_motion_pilot_GIST_update_2,2026.1.1,Win32,60.24096386,6136266c04528ef90b95faa5,69b92ab4aef6dee357cd729a,69b92ae4e684930f88b65b4a,0.0181,0.0181,0,5,5,55,1,fourthree,,,,,,,,,,,,,,,,,,,,,,,,,,,,,,,,,,,,,,,,,,,,,,,,,,,,,,,,,,,,,,,,,,,,,,,,,,,,,,,,,,,,,,,,,,,,,,,,,,,,,,,,,,,,,,,,,,,,,,,,,,,,,,,,,,,,,,,,,
,,6136266c04528ef90b95faa5,2026-03-17_12h20.37.460,kallum_motion_pilot_GIST_update_2,2026.1.1,Win32,60.24096386,6136266c04528ef90b95faa5,69b92ab4aef6dee357cd729a,69b92ae4e684930f88b65b4a,0.0182,0.0182,0,6,6,49,1,onethree,,,,,,,,,,,,,,,,,,,,,,,,,,,,,,,,,,,,,,,,,,,,,,,,,,,,,,,,,,,,,,,,,,,,,,,,,,,,,,,,,,,,,,,,,,,,,,,,,,,,,,,,,,,,,,,,,,,,,,,,,,,,,,,,,,,,,,,,,
,,6136266c04528ef90b95faa5,2026-03-17_12h20.37.460,kallum_motion_pilot_GIST_update_2,2026.1.1,Win32,60.24096386,6136266c04528ef90b95faa5,69b92ab4aef6dee357cd729a,69b92ae4e684930f88b65b4a,0.0183,0.0184,0,7,7,5,1,threefour,,,,,,,,,,,,,,,,,,,,,,,,,,,,,,,,,,,,,,,,,,,,,,,,,,,,,,,,,,,,,,,,,,,,,,,,,,,,,,,,,,,,,,,,,,,,,,,,,,,,,,,,,,,,,,,,,,,,,,,,,,,,,,,,,,,,,,,,,
,,6136266c04528ef90b95faa5,2026-03-17_12h20.37.460,kallum_motion_pilot_GIST_update_2,2026.1.1,Win32,60.24096386,6136266c04528ef90b95faa5,69b92ab4aef6dee357cd729a,69b92ae4e684930f88b65b4a,0.0184,0.0184,0,8,8,114,1,sixfive,,,,,,,,,,,,,,,,,,,,,,,,,,,,,,,,,,,,,,,,,,,,,,,,,,,,,,,,,,,,,,,,,,,,,,,,,,,,,,,,,,,,,,,,,,,,,,,,,,,,,,,,,,,,,,,,,,,,,,,,,,,,,,,,,,,,,,,,,
,,6136266c04528ef90b95faa5,2026-03-17_12h20.37.460,kallum_motion_pilot_GIST_update_2,2026.1.1,Win32,60.24096386,6136266c04528ef90b95faa5,69b92ab4aef6dee357cd729a,69b92ae4e684930f88b65b4a,0.0185,0.0185,0,9,9,74,1,twoone,,,,,,,,,,,,,,,,,,,,,,,,,,,,,,,,,,,,,,,,,,,,,,,,,,,,,,,,,,,,,,,,,,,,,,,,,,,,,,,,,,,,,,,,,,,,,,,,,,,,,,,,,,,,,,,,,,,,,,,,,,,,,,,,,,,,,,,,,
,,6136266c04528ef90b95faa5,2026-03-17_12h20.37.460,kallum_motion_pilot_GIST_update_2,2026.1.1,Win32,60.24096386,6136266c04528ef90b95faa5,69b92ab4aef6dee357cd729a,69b92ae4e684930f88b65b4a,0.0186,0.0186,0,10,10,46,1,fourtwo,,,,,,,,,,,,,,,,,,,,,,,,,,,,,,,,,,,,,,,,,,,,,,,,,,,,,,,,,,,,,,,,,,,,,,,,,,,,,,,,,,,,,,,,,,,,,,,,,,,,,,,,,,,,,,,,,,,,,,,,,,,,,,,,,,,,,,,,,
,,6136266c04528ef90b95faa5,2026-03-17_12h20.37.460,kallum_motion_pilot_GIST_update_2,2026.1.1,Win32,60.24096386,6136266c04528ef90b95faa5,69b92ab4aef6dee357cd729a,69b92ae4e684930f88b65b4a,0.0187,0.0187,0,11,11,149,1,seveneight,,,,,,,,,,,,,,,,,,,,,,,,,,,,,,,,,,,,,,,,,,,,,,,,,,,,,,,,,,,,,,,,,,,,,,,,,,,,,,,,,,,,,,,,,,,,,,,,,,,,,,,,,,,,,,,,,,,,,,,,,,,,,,,,,,,,,,,,,
,,6136266c04528ef90b95faa5,2026-03-17_12h20.37.460,kallum_motion_pilot_GIST_update_2,2026.1.1,Win32,60.24096386,6136266c04528ef90b95faa5,69b92ab4aef6dee357cd729a,69b92ae4e684930f88b65b4a,0.0188,0.0188,0,12,12,13,1,threefour,,,,,,,,,,,,,,,,,,,,,,,,,,,,,,,,,,,,,,,,,,,,,,,,,,,,,,,,,,,,,,,,,,,,,,,,,,,,,,,,,,,,,,,,,,,,,,,,,,,,,,,,,,,,,,,,,,,,,,,,,,,,,,,,,,,,,,,,,
,,6136266c04528ef90b95faa5,2026-03-17_12h20.37.460,kallum_motion_pilot_GIST_update_2,2026.1.1,Win32,60.24096386,6136266c04528ef90b95faa5,69b92ab4aef6dee357cd729a,69b92ae4e684930f88b65b4a,0.0188,0.0188,0,13,13,143,1,eightseven,,,,,,,,,,,,,,,,,,,,,,,,,,,,,,,,,,,,,,,,,,,,,,,,,,,,,,,,,,,,,,,,,,,,,,,,,,,,,,,,,,,,,,,,,,,,,,,,,,,,,,,,,,,,,,,,,,,,,,,,,,,,,,,,,,,,,,,,,
,,6136266c04528ef90b95faa5,2026-03-17_12h20.37.460,kallum_motion_pilot_GIST_update_2,2026.1.1,Win32,60.24096386,6136266c04528ef90b95faa5,69b92ab4aef6dee357cd729a,69b92ae4e684930f88b65b4a,0.0189,0.0189,0,14,14,155,1,sixeight,,,,,,,,,,,,,,,,,,,,,,,,,,,,,,,,,,,,,,,,,,,,,,,,,,,,,,,,,,,,,,,,,,,,,,,,,,,,,,,,,,,,,,,,,,,,,,,,,,,,,,,,,,,,,,,,,,,,,,,,,,,,,,,,,,,,,,,,,
,,6136266c04528ef90b95faa5,2026-03-17_12h20.37.460,kallum_motion_pilot_GIST_update_2,2026.1.1,Win32,60.24096386,6136266c04528ef90b95faa5,69b92ab4aef6dee357cd729a,69b92ae4e684930f88b65b4a,0.0189,0.0189,0,15,15,15,1,fourthree,,,,,,,,,,,,,,,,,,,,,,,,,,,,,,,,,,,,,,,,,,,,,,,,,,,,,,,,,,,,,,,,,,,,,,,,,,,,,,,,,,,,,,,,,,,,,,,,,,,,,,,,,,,,,,,,,,,,,,,,,,,,,,,,,,,,,,,,,
,,6136266c04528ef90b95faa5,2026-03-17_12h20.37.460,kallum_motion_pilot_GIST_update_2,2026.1.1,Win32,60.24096386,6136266c04528ef90b95faa5,69b92ab4aef6dee357cd729a,69b92ae4e684930f88b65b4a,0.019,0.019,0,16,16,22,1,fourtwo,,,,,,,,,,,,,,,,,,,,,,,,,,,,,,,,,,,,,,,,,,,,,,,,,,,,,,,,,,,,,,,,,,,,,,,,,,,,,,,,,,,,,,,,,,,,,,,,,,,,,,,,,,,,,,,,,,,,,,,,,,,,,,,,,,,,,,,,,
,,6136266c04528ef90b95faa5,2026-03-17_12h20.37.460,kallum_motion_pilot_GIST_update_2,2026.1.1,Win32,60.24096386,6136266c04528ef90b95faa5,69b92ab4aef6dee357cd729a,69b92ae4e684930f88b65b4a,0.0191,0.0191,0,17,17,66,1,twoone,,,,,,,,,,,,,,,,,,,,,,,,,,,,,,,,,,,,,,,,,,,,,,,,,,,,,,,,,,,,,,,,,,,,,,,,,,,,,,,,,,,,,,,,,,,,,,,,,,,,,,,,,,,,,,,,,,,,,,,,,,,,,,,,,,,,,,,,,
,,6136266c04528ef90b95faa5,2026-03-17_12h20.37.460,kallum_motion_pilot_GIST_update_2,2026.1.1,Win32,60.24096386,6136266c04528ef90b95faa5,69b92ab4aef6dee357cd729a,69b92ae4e684930f88b65b4a,0.0192,0.0192,0,18,18,79,1,eightseven,,,,,,,,,,,,,,,,,,,,,,,,,,,,,,,,,,,,,,,,,,,,,,,,,,,,,,,,,,,,,,,,,,,,,,,,,,,,,,,,,,,,,,,,,,,,,,,,,,,,,,,,,,,,,,,,,,,,,,,,,,,,,,,,,,,,,,,,,
,,6136266c04528ef90b95faa5,2026-03-17_12h20.37.460,kallum_motion_pilot_GIST_update_2,2026.1.1,Win32,60.24096386,6136266c04528ef90b95faa5,69b92ab4aef6dee357cd729a,69b92ae4e684930f88b65b4a,0.0194,0.0194,0,19,19,82,1,sixfive,,,,,,,,,,,,,,,,,,,,,,,,,,,,,,,,,,,,,,,,,,,,,,,,,,,,,,,,,,,,,,,,,,,,,,,,,,,,,,,,,,,,,,,,,,,,,,,,,,,,,,,,,,,,,,,,,,,,,,,,,,,,,,,,,,,,,,,,,
,,6136266c04528ef90b95faa5,2026-03-17_12h20.37.460,kallum_motion_pilot_GIST_update_2,2026.1.1,Win32,60.24096386,6136266c04528ef90b95faa5,69b92ab4aef6dee357cd729a,69b92ae4e684930f88b65b4a,0.0195,0.0196,0,20,20,30,1,fourtwo,,,,,,,,,,,,,,,,,,,,,,,,,,,,,,,,,,,,,,,,,,,,,,,,,,,,,,,,,,,,,,,,,,,,,,,,,,,,,,,,,,,,,,,,,,,,,,,,,,,,,,,,,,,,,,,,,,,,,,,,,,,,,,,,,,,,,,,,,
,,6136266c04528ef90b95faa5,2026-03-17_12h20.37.460,kallum_motion_pilot_GIST_update_2,2026.1.1,Win32,60.24096386,6136266c04528ef90b95faa5,69b92ab4aef6dee357cd729a,69b92ae4e684930f88b65b4a,0.0196,0.0196,0,21,21,20,1,threeone,,,,,,,,,,,,,,,,,,,,,,,,,,,,,,,,,,,,,,,,,,,,,,,,,,,,,,,,,,,,,,,,,,,,,,,,,,,,,,,,,,,,,,,,,,,,,,,,,,,,,,,,,,,,,,,,,,,,,,,,,,,,,,,,,,,,,,,,,
,,6136266c04528ef90b95faa5,2026-03-17_12h20.37.460,kallum_motion_pilot_GIST_update_2,2026.1.1,Win32,60.24096386,6136266c04528ef90b95faa5,69b92ab4aef6dee357cd729a,69b92ae4e684930f88b65b4a,0.0198,0.0198,0,22,22,56,1,onetwo,,,,,,,,,,,,,,,,,,,,,,,,,,,,,,,,,,,,,,,,,,,,,,,,,,,,,,,,,,,,,,,,,,,,,,,,,,,,,,,,,,,,,,,,,,,,,,,,,,,,,,,,,,,,,,,,,,,,,,,,,,,,,,,,,,,,,,,,,
,,6136266c04528ef90b95faa5,2026-03-17_12h20.37.460,kallum_motion_pilot_GIST_update_2,2026.1.1,Win32,60.24096386,6136266c04528ef90b95faa5,69b92ab4aef6dee357cd729a,69b92ae4e684930f88b65b4a,0.0199,0.0199,0,23,23,8,1,onetwo,,,,,,,,,,,,,,,,,,,,,,,,,,,,,,,,,,,,,,,,,,,,,,,,,,,,,,,,,,,,,,,,,,,,,,,,,,,,,,,,,,,,,,,,,,,,,,,,,,,,,,,,,,,,,,,,,,,,,,,,,,,,,,,,,,,,,,,,,
,,6136266c04528ef90b95faa5,2026-03-17_12h20.37.460,kallum_motion_pilot_GIST_update_2,2026.1.1,Win32,60.24096386,6136266c04528ef90b95faa5,69b92ab4aef6dee357cd729a,69b92ae4e684930f88b65b4a,0.02,0.02,0,24,24,41,1,onethree,,,,,,,,,,,,,,,,,,,,,,,,,,,,,,,,,,,,,,,,,,,,,,,,,,,,,,,,,,,,,,,,,,,,,,,,,,,,,,,,,,,,,,,,,,,,,,,,,,,,,,,,,,,,,,,,,,,,,,,,,,,,,,,,,,,,,,,,,
,,6136266c04528ef90b95faa5,2026-03-17_12h20.37.460,kallum_motion_pilot_GIST_update_2,2026.1.1,Win32,60.24096386,6136266c04528ef90b95faa5,69b92ab4aef6dee357cd729a,69b92ae4e684930f88b65b4a,0.02,0.0201,0,25,25,34,1,twoone,,,,,,,,,,,,,,,,,,,,,,,,,,,,,,,,,,,,,,,,,,,,,,,,,,,,,,,,,,,,,,,,,,,,,,,,,,,,,,,,,,,,,,,,,,,,,,,,,,,,,,,,,,,,,,,,,,,,,,,,,,,,,,,,,,,,,,,,,
,,6136266c04528ef90b95faa5,2026-03-17_12h20.37.460,kallum_motion_pilot_GIST_update_2,2026.1.1,Win32,60.24096386,6136266c04528ef90b95faa5,69b92ab4aef6dee357cd729a,69b92ae4e684930f88b65b4a,0.0201,0.0201,0,26,26,157,1,seveneight,,,,,,,,,,,,,,,,,,,,,,,,,,,,,,,,,,,,,,,,,,,,,,,,,,,,,,,,,,,,,,,,,,,,,,,,,,,,,,,,,,,,,,,,,,,,,,,,,,,,,,,,,,,,,,,,,,,,,,,,,,,,,,,,,,,,,,,,,
,,6136266c04528ef90b95faa5,2026-03-17_12h20.37.460,kallum_motion_pilot_GIST_update_2,2026.1.1,Win32,60.24096386,6136266c04528ef90b95faa5,69b92ab4aef6dee357cd729a,69b92ae4e684930f88b65b4a,0.0202,0.0202,0,27,27,147,1,sixeight,,,,,,,,,,,,,,,,,,,,,,,,,,,,,,,,,,,,,,,,,,,,,,,,,,,,,,,,,,,,,,,,,,,,,,,,,,,,,,,,,,,,,,,,,,,,,,,,,,,,,,,,,,,,,,,,,,,,,,,,,,,,,,,,,,,,,,,,,
,,6136266c04528ef90b95faa5,2026-03-17_12h20.37.460,kallum_motion_pilot_GIST_update_2,2026.1.1,Win32,60.24096386,6136266c04528ef90b95faa5,69b92ab4aef6dee357cd729a,69b92ae4e684930f88b65b4a,0.0203,0.0203,0,28,28,145,1,fiveseven,,,,,,,,,,,,,,,,,,,,,,,,,,,,,,,,,,,,,,,,,,,,,,,,,,,,,,,,,,,,,,,,,,,,,,,,,,,,,,,,,,,,,,,,,,,,,,,,,,,,,,,,,,,,,,,,,,,,,,,,,,,,,,,,,,,,,,,,,
,,6136266c04528ef90b95faa5,2026-03-17_12h20.37.460,kallum_motion_pilot_GIST_update_2,2026.1.1,Win32,60.24096386,6136266c04528ef90b95faa5,69b92ab4aef6dee357cd729a,69b92ae4e684930f88b65b4a,0.0203,0.0203,0,29,29,91,1,sixeight,,,,,,,,,,,,,,,,,,,,,,,,,,,,,,,,,,,,,,,,,,,,,,,,,,,,,,,,,,,,,,,,,,,,,,,,,,,,,,,,,,,,,,,,,,,,,,,,,,,,,,,,,,,,,,,,,,,,,,,,,,,,,,,,,,,,,,,,,
,,6136266c04528ef90b95faa5,2026-03-17_12h20.37.460,kallum_motion_pilot_GIST_update_2,2026.1.1,Win32,60.24096386,6136266c04528ef90b95faa5,69b92ab4aef6dee357cd729a,69b92ae4e684930f88b65b4a,0.0204,0.0204,0,30,30,159,1,eightseven,,,,,,,,,,,,,,,,,,,,,,,,,,,,,,,,,,,,,,,,,,,,,,,,,,,,,,,,,,,,,,,,,,,,,,,,,,,,,,,,,,,,,,,,,,,,,,,,,,,,,,,,,,,,,,,,,,,,,,,,,,,,,,,,,,,,,,,,,
,,6136266c04528ef90b95faa5,2026-03-17_12h20.37.460,kallum_motion_pilot_GIST_update_2,2026.1.1,Win32,60.24096386,6136266c04528ef90b95faa5,69b92ab4aef6dee357cd729a,69b92ae4e684930f88b65b4a,0.0204,0.0205,0,31,31,150,1,eightsix,,,,,,,,,,,,,,,,,,,,,,,,,,,,,,,,,,,,,,,,,,,,,,,,,,,,,,,,,,,,,,,,,,,,,,,,,,,,,,,,,,,,,,,,,,,,,,,,,,,,,,,,,,,,,,,,,,,,,,,,,,,,,,,,,,,,,,,,,
,,6136266c04528ef90b95faa5,2026-03-17_12h20.37.460,kallum_motion_pilot_GIST_update_2,2026.1.1,Win32,60.24096386,6136266c04528ef90b95faa5,69b92ab4aef6dee357cd729a,69b92ae4e684930f88b65b4a,0.0206,0.0206,0,32,32,115,1,sixeight,,,,,,,,,,,,,,,,,,,,,,,,,,,,,,,,,,,,,,,,,,,,,,,,,,,,,,,,,,,,,,,,,,,,,,,,,,,,,,,,,,,,,,,,,,,,,,,,,,,,,,,,,,,,,,,,,,,,,,,,,,,,,,,,,,,,,,,,,
,,6136266c04528ef90b95faa5,2026-03-17_12h20.37.460,kallum_motion_pilot_GIST_update_2,2026.1.1,Win32,60.24096386,6136266c04528ef90b95faa5,69b92ab4aef6dee357cd729a,69b92ae4e684930f88b65b4a,0.0206,0.0206,0,33,33,47,1,fourthree,,,,,,,,,,,,,,,,,,,,,,,,,,,,,,,,,,,,,,,,,,,,,,,,,,,,,,,,,,,,,,,,,,,,,,,,,,,,,,,,,,,,,,,,,,,,,,,,,,,,,,,,,,,,,,,,,,,,,,,,,,,,,,,,,,,,,,,,,
,,6136266c04528ef90b95faa5,2026-03-17_12h20.37.460,kallum_motion_pilot_GIST_update_2,2026.1.1,Win32,60.24096386,6136266c04528ef90b95faa5,69b92ab4aef6dee357cd729a,69b92ae4e684930f88b65b4a,0.0207,0.0207,0,34,34,38,1,fourtwo,,,,,,,,,,,,,,,,,,,,,,,,,,,,,,,,,,,,,,,,,,,,,,,,,,,,,,,,,,,,,,,,,,,,,,,,,,,,,,,,,,,,,,,,,,,,,,,,,,,,,,,,,,,,,,,,,,,,,,,,,,,,,,,,,,,,,,,,,
,,6136266c04528ef90b95faa5,2026-03-17_12h20.37.460,kallum_motion_pilot_GIST_update_2,2026.1.1,Win32,60.24096386,6136266c04528ef90b95faa5,69b92ab4aef6dee357cd729a,69b92ae4e684930f88b65b4a,0.0208,0.0208,0,35,35,141,1,seveneight,,,,,,,,,,,,,,,,,,,,,,,,,,,,,,,,,,,,,,,,,,,,,,,,,,,,,,,,,,,,,,,,,,,,,,,,,,,,,,,,,,,,,,,,,,,,,,,,,,,,,,,,,,,,,,,,,,,,,,,,,,,,,,,,,,,,,,,,,
,,6136266c04528ef90b95faa5,2026-03-17_12h20.37.460,kallum_motion_pilot_GIST_update_2,2026.1.1,Win32,60.24096386,6136266c04528ef90b95faa5,69b92ab4aef6dee357cd729a,69b92ae4e684930f88b65b4a,0.0209,0.0209,0,36,36,93,1,seveneight,,,,,,,,,,,,,,,,,,,,,,,,,,,,,,,,,,,,,,,,,,,,,,,,,,,,,,,,,,,,,,,,,,,,,,,,,,,,,,,,,,,,,,,,,,,,,,,,,,,,,,,,,,,,,,,,,,,,,,,,,,,,,,,,,,,,,,,,,
,,6136266c04528ef90b95faa5,2026-03-17_12h20.37.460,kallum_motion_pilot_GIST_update_2,2026.1.1,Win32,60.24096386,6136266c04528ef90b95faa5,69b92ab4aef6dee357cd729a,69b92ae4e684930f88b65b4a,0.021,0.021,0,37,37,130,1,sixfive,,,,,,,,,,,,,,,,,,,,,,,,,,,,,,,,,,,,,,,,,,,,,,,,,,,,,,,,,,,,,,,,,,,,,,,,,,,,,,,,,,,,,,,,,,,,,,,,,,,,,,,,,,,,,,,,,,,,,,,,,,,,,,,,,,,,,,,,,
,,6136266c04528ef90b95faa5,2026-03-17_12h20.37.460,kallum_motion_pilot_GIST_update_2,2026.1.1,Win32,60.24096386,6136266c04528ef90b95faa5,69b92ab4aef6dee357cd729a,69b92ae4e684930f88b65b4a,0.0211,0.0211,0,38,38,21,1,threefour,,,,,,,,,,,,,,,,,,,,,,,,,,,,,,,,,,,,,,,,,,,,,,,,,,,,,,,,,,,,,,,,,,,,,,,,,,,,,,,,,,,,,,,,,,,,,,,,,,,,,,,,,,,,,,,,,,,,,,,,,,,,,,,,,,,,,,,,,
,,6136266c04528ef90b95faa5,2026-03-17_12h20.37.460,kallum_motion_pilot_GIST_update_2,2026.1.1,Win32,60.24096386,6136266c04528ef90b95faa5,69b92ab4aef6dee357cd729a,69b92ae4e684930f88b65b4a,0.0211,0.0211,0,39,39,131,1,sixeight,,,,,,,,,,,,,,,,,,,,,,,,,,,,,,,,,,,,,,,,,,,,,,,,,,,,,,,,,,,,,,,,,,,,,,,,,,,,,,,,,,,,,,,,,,,,,,,,,,,,,,,,,,,,,,,,,,,,,,,,,,,,,,,,,,,,,,,,,
,,6136266c04528ef90b95faa5,2026-03-17_12h20.37.460,kallum_motion_pilot_GIST_update_2,2026.1.1,Win32,60.24096386,6136266c04528ef90b95faa5,69b92ab4aef6dee357cd729a,69b92ae4e684930f88b65b4a,0.0212,0.0212,0,40,40,83,1,sixeight,,,,,,,,,,,,,,,,,,,,,,,,,,,,,,,,,,,,,,,,,,,,,,,,,,,,,,,,,,,,,,,,,,,,,,,,,,,,,,,,,,,,,,,,,,,,,,,,,,,,,,,,,,,,,,,,,,,,,,,,,,,,,,,,,,,,,,,,,
,,6136266c04528ef90b95faa5,2026-03-17_12h20.37.460,kallum_motion_pilot_GIST_update_2,2026.1.1,Win32,60.24096386,6136266c04528ef90b95faa5,69b92ab4aef6dee357cd729a,69b92ae4e684930f88b65b4a,0.0213,0.0213,0,41,41,124,1,sevenfive,,,,,,,,,,,,,,,,,,,,,,,,,,,,,,,,,,,,,,,,,,,,,,,,,,,,,,,,,,,,,,,,,,,,,,,,,,,,,,,,,,,,,,,,,,,,,,,,,,,,,,,,,,,,,,,,,,,,,,,,,,,,,,,,,,,,,,,,,
,,6136266c04528ef90b95faa5,2026-03-17_12h20.37.460,kallum_motion_pilot_GIST_update_2,2026.1.1,Win32,60.24096386,6136266c04528ef90b95faa5,69b92ab4aef6dee357cd729a,69b92ae4e684930f88b65b4a,0.0213,0.0213,0,42,42,32,1,onetwo,,,,,,,,,,,,,,,,,,,,,,,,,,,,,,,,,,,,,,,,,,,,,,,,,,,,,,,,,,,,,,,,,,,,,,,,,,,,,,,,,,,,,,,,,,,,,,,,,,,,,,,,,,,,,,,,,,,,,,,,,,,,,,,,,,,,,,,,,
,,6136266c04528ef90b95faa5,2026-03-17_12h20.37.460,kallum_motion_pilot_GIST_update_2,2026.1.1,Win32,60.24096386,6136266c04528ef90b95faa5,69b92ab4aef6dee357cd729a,69b92ae4e684930f88b65b4a,0.0214,0.0214,0,43,43,102,1,eightsix,,,,,,,,,,,,,,,,,,,,,,,,,,,,,,,,,,,,,,,,,,,,,,,,,,,,,,,,,,,,,,,,,,,,,,,,,,,,,,,,,,,,,,,,,,,,,,,,,,,,,,,,,,,,,,,,,,,,,,,,,,,,,,,,,,,,,,,,,
,,6136266c04528ef90b95faa5,2026-03-17_12h20.37.460,kallum_motion_pilot_GIST_update_2,2026.1.1,Win32,60.24096386,6136266c04528ef90b95faa5,69b92ab4aef6dee357cd729a,69b92ae4e684930f88b65b4a,0.0215,0.0215,0,44,44,81,1,fiveseven,,,,,,,,,,,,,,,,,,,,,,,,,,,,,,,,,,,,,,,,,,,,,,,,,,,,,,,,,,,,,,,,,,,,,,,,,,,,,,,,,,,,,,,,,,,,,,,,,,,,,,,,,,,,,,,,,,,,,,,,,,,,,,,,,,,,,,,,,
,,6136266c04528ef90b95faa5,2026-03-17_12h20.37.460,kallum_motion_pilot_GIST_update_2,2026.1.1,Win32,60.24096386,6136266c04528ef90b95faa5,69b92ab4aef6dee357cd729a,69b92ae4e684930f88b65b4a,0.0215,0.0215,0,45,45,129,1,fiveseven,,,,,,,,,,,,,,,,,,,,,,,,,,,,,,,,,,,,,,,,,,,,,,,,,,,,,,,,,,,,,,,,,,,,,,,,,,,,,,,,,,,,,,,,,,,,,,,,,,,,,,,,,,,,,,,,,,,,,,,,,,,,,,,,,,,,,,,,,
,,6136266c04528ef90b95faa5,2026-03-17_12h20.37.460,kallum_motion_pilot_GIST_update_2,2026.1.1,Win32,60.24096386,6136266c04528ef90b95faa5,69b92ab4aef6dee357cd729a,69b92ae4e684930f88b65b4a,0.0216,0.0216,0,46,46,154,1,sixfive,,,,,,,,,,,,,,,,,,,,,,,,,,,,,,,,,,,,,,,,,,,,,,,,,,,,,,,,,,,,,,,,,,,,,,,,,,,,,,,,,,,,,,,,,,,,,,,,,,,,,,,,,,,,,,,,,,,,,,,,,,,,,,,,,,,,,,,,,
,,6136266c04528ef90b95faa5,2026-03-17_12h20.37.460,kallum_motion_pilot_GIST_update_2,2026.1.1,Win32,60.24096386,6136266c04528ef90b95faa5,69b92ab4aef6dee357cd729a,69b92ae4e684930f88b65b4a,0.0217,0.0217,0,47,47,78,1,fourtwo,,,,,,,,,,,,,,,,,,,,,,,,,,,,,,,,,,,,,,,,,,,,,,,,,,,,,,,,,,,,,,,,,,,,,,,,,,,,,,,,,,,,,,,,,,,,,,,,,,,,,,,,,,,,,,,,,,,,,,,,,,,,,,,,,,,,,,,,,
,,6136266c04528ef90b95faa5,2026-03-17_12h20.37.460,kallum_motion_pilot_GIST_update_2,2026.1.1,Win32,60.24096386,6136266c04528ef90b95faa5,69b92ab4aef6dee357cd729a,69b92ae4e684930f88b65b4a,0.0218,0.0218,0,48,48,70,1,fourtwo,,,,,,,,,,,,,,,,,,,,,,,,,,,,,,,,,,,,,,,,,,,,,,,,,,,,,,,,,,,,,,,,,,,,,,,,,,,,,,,,,,,,,,,,,,,,,,,,,,,,,,,,,,,,,,,,,,,,,,,,,,,,,,,,,,,,,,,,,
,,6136266c04528ef90b95faa5,2026-03-17_12h20.37.460,kallum_motion_pilot_GIST_update_2,2026.1.1,Win32,60.24096386,6136266c04528ef90b95faa5,69b92ab4aef6dee357cd729a,69b92ae4e684930f88b65b4a,0.0219,0.0219,0,49,49,98,1,sixfive,,,,,,,,,,,,,,,,,,,,,,,,,,,,,,,,,,,,,,,,,,,,,,,,,,,,,,,,,,,,,,,,,,,,,,,,,,,,,,,,,,,,,,,,,,,,,,,,,,,,,,,,,,,,,,,,,,,,,,,,,,,,,,,,,,,,,,,,,
,,6136266c04528ef90b95faa5,2026-03-17_12h20.37.460,kallum_motion_pilot_GIST_update_2,2026.1.1,Win32,60.24096386,6136266c04528ef90b95faa5,69b92ab4aef6dee357cd729a,69b92ae4e684930f88b65b4a,0.0219,0.0219,0,50,50,6,1,fourtwo,,,,,,,,,,,,,,,,,,,,,,,,,,,,,,,,,,,,,,,,,,,,,,,,,,,,,,,,,,,,,,,,,,,,,,,,,,,,,,,,,,,,,,,,,,,,,,,,,,,,,,,,,,,,,,,,,,,,,,,,,,,,,,,,,,,,,,,,,
,,6136266c04528ef90b95faa5,2026-03-17_12h20.37.460,kallum_motion_pilot_GIST_update_2,2026.1.1,Win32,60.24096386,6136266c04528ef90b95faa5,69b92ab4aef6dee357cd729a,69b92ae4e684930f88b65b4a,0.022,0.022,0,51,51,29,1,threefour,,,,,,,,,,,,,,,,,,,,,,,,,,,,,,,,,,,,,,,,,,,,,,,,,,,,,,,,,,,,,,,,,,,,,,,,,,,,,,,,,,,,,,,,,,,,,,,,,,,,,,,,,,,,,,,,,,,,,,,,,,,,,,,,,,,,,,,,,
,,6136266c04528ef90b95faa5,2026-03-17_12h20.37.460,kallum_motion_pilot_GIST_update_2,2026.1.1,Win32,60.24096386,6136266c04528ef90b95faa5,69b92ab4aef6dee357cd729a,69b92ae4e684930f88b65b4a,0.0221,0.0221,0,52,52,35,1,twofour,,,,,,,,,,,,,,,,,,,,,,,,,,,,,,,,,,,,,,,,,,,,,,,,,,,,,,,,,,,,,,,,,,,,,,,,,,,,,,,,,,,,,,,,,,,,,,,,,,,,,,,,,,,,,,,,,,,,,,,,,,,,,,,,,,,,,,,,,
,,6136266c04528ef90b95faa5,2026-03-17_12h20.37.460,kallum_motion_pilot_GIST_update_2,2026.1.1,Win32,60.24096386,6136266c04528ef90b95faa5,69b92ab4aef6dee357cd729a,69b92ae4e684930f88b65b4a,0.0222,0.0222,0,53,53,50,1,twoone,,,,,,,,,,,,,,,,,,,,,,,,,,,,,,,,,,,,,,,,,,,,,,,,,,,,,,,,,,,,,,,,,,,,,,,,,,,,,,,,,,,,,,,,,,,,,,,,,,,,,,,,,,,,,,,,,,,,,,,,,,,,,,,,,,,,,,,,,
,,6136266c04528ef90b95faa5,2026-03-17_12h20.37.460,kallum_motion_pilot_GIST_update_2,2026.1.1,Win32,60.24096386,6136266c04528ef90b95faa5,69b92ab4aef6dee357cd729a,69b92ae4e684930f88b65b4a,0.0223,0.0223,0,54,54,48,1,onetwo,,,,,,,,,,,,,,,,,,,,,,,,,,,,,,,,,,,,,,,,,,,,,,,,,,,,,,,,,,,,,,,,,,,,,,,,,,,,,,,,,,,,,,,,,,,,,,,,,,,,,,,,,,,,,,,,,,,,,,,,,,,,,,,,,,,,,,,,,
,,6136266c04528ef90b95faa5,2026-03-17_12h20.37.460,kallum_motion_pilot_GIST_update_2,2026.1.1,Win32,60.24096386,6136266c04528ef90b95faa5,69b92ab4aef6dee357cd729a,69b92ae4e684930f88b65b4a,0.0223,0.0223,0,55,55,4,1,threeone,,,,,,,,,,,,,,,,,,,,,,,,,,,,,,,,,,,,,,,,,,,,,,,,,,,,,,,,,,,,,,,,,,,,,,,,,,,,,,,,,,,,,,,,,,,,,,,,,,,,,,,,,,,,,,,,,,,,,,,,,,,,,,,,,,,,,,,,,
,,6136266c04528ef90b95faa5,2026-03-17_12h20.37.460,kallum_motion_pilot_GIST_update_2,2026.1.1,Win32,60.24096386,6136266c04528ef90b95faa5,69b92ab4aef6dee357cd729a,69b92ae4e684930f88b65b4a,0.0224,0.0225,0,56,56,7,1,fourthree,,,,,,,,,,,,,,,,,,,,,,,,,,,,,,,,,,,,,,,,,,,,,,,,,,,,,,,,,,,,,,,,,,,,,,,,,,,,,,,,,,,,,,,,,,,,,,,,,,,,,,,,,,,,,,,,,,,,,,,,,,,,,,,,,,,,,,,,,
,,6136266c04528ef90b95faa5,2026-03-17_12h20.37.460,kallum_motion_pilot_GIST_update_2,2026.1.1,Win32,60.24096386,6136266c04528ef90b95faa5,69b92ab4aef6dee357cd729a,69b92ae4e684930f88b65b4a,0.0225,0.0225,0,57,57,75,1,twofour,,,,,,,,,,,,,,,,,,,,,,,,,,,,,,,,,,,,,,,,,,,,,,,,,,,,,,,,,,,,,,,,,,,,,,,,,,,,,,,,,,,,,,,,,,,,,,,,,,,,,,,,,,,,,,,,,,,,,,,,,,,,,,,,,,,,,,,,,
,,6136266c04528ef90b95faa5,2026-03-17_12h20.37.460,kallum_motion_pilot_GIST_update_2,2026.1.1,Win32,60.24096386,6136266c04528ef90b95faa5,69b92ab4aef6dee357cd729a,69b92ae4e684930f88b65b4a,0.0226,0.0226,0,58,58,61,1,threefour,,,,,,,,,,,,,,,,,,,,,,,,,,,,,,,,,,,,,,,,,,,,,,,,,,,,,,,,,,,,,,,,,,,,,,,,,,,,,,,,,,,,,,,,,,,,,,,,,,,,,,,,,,,,,,,,,,,,,,,,,,,,,,,,,,,,,,,,,
,,6136266c04528ef90b95faa5,2026-03-17_12h20.37.460,kallum_motion_pilot_GIST_update_2,2026.1.1,Win32,60.24096386,6136266c04528ef90b95faa5,69b92ab4aef6dee357cd729a,69b92ae4e684930f88b65b4a,0.0227,0.0227,0,59,59,109,1,seveneight,,,,,,,,,,,,,,,,,,,,,,,,,,,,,,,,,,,,,,,,,,,,,,,,,,,,,,,,,,,,,,,,,,,,,,,,,,,,,,,,,,,,,,,,,,,,,,,,,,,,,,,,,,,,,,,,,,,,,,,,,,,,,,,,,,,,,,,,,
,,6136266c04528ef90b95faa5,2026-03-17_12h20.37.460,kallum_motion_pilot_GIST_update_2,2026.1.1,Win32,60.24096386,6136266c04528ef90b95faa5,69b92ab4aef6dee357cd729a,69b92ae4e684930f88b65b4a,0.0227,0.0227,0,60,60,18,1,twoone,,,,,,,,,,,,,,,,,,,,,,,,,,,,,,,,,,,,,,,,,,,,,,,,,,,,,,,,,,,,,,,,,,,,,,,,,,,,,,,,,,,,,,,,,,,,,,,,,,,,,,,,,,,,,,,,,,,,,,,,,,,,,,,,,,,,,,,,,
,,6136266c04528ef90b95faa5,2026-03-17_12h20.37.460,kallum_motion_pilot_GIST_update_2,2026.1.1,Win32,60.24096386,6136266c04528ef90b95faa5,69b92ab4aef6dee357cd729a,69b92ae4e684930f88b65b4a,0.0228,0.0228,0,61,61,69,1,threefour,,,,,,,,,,,,,,,,,,,,,,,,,,,,,,,,,,,,,,,,,,,,,,,,,,,,,,,,,,,,,,,,,,,,,,,,,,,,,,,,,,,,,,,,,,,,,,,,,,,,,,,,,,,,,,,,,,,,,,,,,,,,,,,,,,,,,,,,,
,,6136266c04528ef90b95faa5,2026-03-17_12h20.37.460,kallum_motion_pilot_GIST_update_2,2026.1.1,Win32,60.24096386,6136266c04528ef90b95faa5,69b92ab4aef6dee357cd729a,69b92ae4e684930f88b65b4a,0.0229,0.0229,0,62,62,43,1,twofour,,,,,,,,,,,,,,,,,,,,,,,,,,,,,,,,,,,,,,,,,,,,,,,,,,,,,,,,,,,,,,,,,,,,,,,,,,,,,,,,,,,,,,,,,,,,,,,,,,,,,,,,,,,,,,,,,,,,,,,,,,,,,,,,,,,,,,,,,
,,6136266c04528ef90b95faa5,2026-03-17_12h20.37.460,kallum_motion_pilot_GIST_update_2,2026.1.1,Win32,60.24096386,6136266c04528ef90b95faa5,69b92ab4aef6dee357cd729a,69b92ae4e684930f88b65b4a,0.023,0.023,0,63,63,158,1,eightsix,,,,,,,,,,,,,,,,,,,,,,,,,,,,,,,,,,,,,,,,,,,,,,,,,,,,,,,,,,,,,,,,,,,,,,,,,,,,,,,,,,,,,,,,,,,,,,,,,,,,,,,,,,,,,,,,,,,,,,,,,,,,,,,,,,,,,,,,,
,,6136266c04528ef90b95faa5,2026-03-17_12h20.37.460,kallum_motion_pilot_GIST_update_2,2026.1.1,Win32,60.24096386,6136266c04528ef90b95faa5,69b92ab4aef6dee357cd729a,69b92ae4e684930f88b65b4a,0.0231,0.0231,0,64,64,65,1,onethree,,,,,,,,,,,,,,,,,,,,,,,,,,,,,,,,,,,,,,,,,,,,,,,,,,,,,,,,,,,,,,,,,,,,,,,,,,,,,,,,,,,,,,,,,,,,,,,,,,,,,,,,,,,,,,,,,,,,,,,,,,,,,,,,,,,,,,,,,
,,6136266c04528ef90b95faa5,2026-03-17_12h20.37.460,kallum_motion_pilot_GIST_update_2,2026.1.1,Win32,60.24096386,6136266c04528ef90b95faa5,69b92ab4aef6dee357cd729a,69b92ae4e684930f88b65b4a,0.0232,0.0232,0,65,65,1,1,onethree,,,,,,,,,,,,,,,,,,,,,,,,,,,,,,,,,,,,,,,,,,,,,,,,,,,,,,,,,,,,,,,,,,,,,,,,,,,,,,,,,,,,,,,,,,,,,,,,,,,,,,,,,,,,,,,,,,,,,,,,,,,,,,,,,,,,,,,,,
,,6136266c04528ef90b95faa5,2026-03-17_12h20.37.460,kallum_motion_pilot_GIST_update_2,2026.1.1,Win32,60.24096386,6136266c04528ef90b95faa5,69b92ab4aef6dee357cd729a,69b92ae4e684930f88b65b4a,0.0233,0.0233,0,66,66,39,1,fourthree,,,,,,,,,,,,,,,,,,,,,,,,,,,,,,,,,,,,,,,,,,,,,,,,,,,,,,,,,,,,,,,,,,,,,,,,,,,,,,,,,,,,,,,,,,,,,,,,,,,,,,,,,,,,,,,,,,,,,,,,,,,,,,,,,,,,,,,,,
,,6136266c04528ef90b95faa5,2026-03-17_12h20.37.460,kallum_motion_pilot_GIST_update_2,2026.1.1,Win32,60.24096386,6136266c04528ef90b95faa5,69b92ab4aef6dee357cd729a,69b92ae4e684930f88b65b4a,0.0233,0.0234,0,67,67,140,1,sevenfive,,,,,,,,,,,,,,,,,,,,,,,,,,,,,,,,,,,,,,,,,,,,,,,,,,,,,,,,,,,,,,,,,,,,,,,,,,,,,,,,,,,,,,,,,,,,,,,,,,,,,,,,,,,,,,,,,,,,,,,,,,,,,,,,,,,,,,,,,
,,6136266c04528ef90b95faa5,2026-03-17_12h20.37.460,kallum_motion_pilot_GIST_update_2,2026.1.1,Win32,60.24096386,6136266c04528ef90b95faa5,69b92ab4aef6dee357cd729a,69b92ae4e684930f88b65b4a,0.0234,0.0235,0,68,68,119,1,eightseven,,,,,,,,,,,,,,,,,,,,,,,,,,,,,,,,,,,,,,,,,,,,,,,,,,,,,,,,,,,,,,,,,,,,,,,,,,,,,,,,,,,,,,,,,,,,,,,,,,,,,,,,,,,,,,,,,,,,,,,,,,,,,,,,,,,,,,,,,
,,6136266c04528ef90b95faa5,2026-03-17_12h20.37.460,kallum_motion_pilot_GIST_update_2,2026.1.1,Win32,60.24096386,6136266c04528ef90b95faa5,69b92ab4aef6dee357cd729a,69b92ae4e684930f88b65b4a,0.0236,0.0236,0,69,69,94,1,eightsix,,,,,,,,,,,,,,,,,,,,,,,,,,,,,,,,,,,,,,,,,,,,,,,,,,,,,,,,,,,,,,,,,,,,,,,,,,,,,,,,,,,,,,,,,,,,,,,,,,,,,,,,,,,,,,,,,,,,,,,,,,,,,,,,,,,,,,,,,
,,6136266c04528ef90b95faa5,2026-03-17_12h20.37.460,kallum_motion_pilot_GIST_update_2,2026.1.1,Win32,60.24096386,6136266c04528ef90b95faa5,69b92ab4aef6dee357cd729a,69b92ae4e684930f88b65b4a,0.0237,0.0237,0,70,70,92,1,sevenfive,,,,,,,,,,,,,,,,,,,,,,,,,,,,,,,,,,,,,,,,,,,,,,,,,,,,,,,,,,,,,,,,,,,,,,,,,,,,,,,,,,,,,,,,,,,,,,,,,,,,,,,,,,,,,,,,,,,,,,,,,,,,,,,,,,,,,,,,,
,,6136266c04528ef90b95faa5,2026-03-17_12h20.37.460,kallum_motion_pilot_GIST_update_2,2026.1.1,Win32,60.24096386,6136266c04528ef90b95faa5,69b92ab4aef6dee357cd729a,69b92ae4e684930f88b65b4a,0.0237,0.0238,0,71,71,45,1,threefour,,,,,,,,,,,,,,,,,,,,,,,,,,,,,,,,,,,,,,,,,,,,,,,,,,,,,,,,,,,,,,,,,,,,,,,,,,,,,,,,,,,,,,,,,,,,,,,,,,,,,,,,,,,,,,,,,,,,,,,,,,,,,,,,,,,,,,,,,
,,6136266c04528ef90b95faa5,2026-03-17_12h20.37.460,kallum_motion_pilot_GIST_update_2,2026.1.1,Win32,60.24096386,6136266c04528ef90b95faa5,69b92ab4aef6dee357cd729a,69b92ae4e684930f88b65b4a,0.0238,0.0238,0,72,72,120,1,fivesix,,,,,,,,,,,,,,,,,,,,,,,,,,,,,,,,,,,,,,,,,,,,,,,,,,,,,,,,,,,,,,,,,,,,,,,,,,,,,,,,,,,,,,,,,,,,,,,,,,,,,,,,,,,,,,,,,,,,,,,,,,,,,,,,,,,,,,,,,
,,6136266c04528ef90b95faa5,2026-03-17_12h20.37.460,kallum_motion_pilot_GIST_update_2,2026.1.1,Win32,60.24096386,6136266c04528ef90b95faa5,69b92ab4aef6dee357cd729a,69b92ae4e684930f88b65b4a,0.0239,0.0239,0,73,73,52,1,threeone,,,,,,,,,,,,,,,,,,,,,,,,,,,,,,,,,,,,,,,,,,,,,,,,,,,,,,,,,,,,,,,,,,,,,,,,,,,,,,,,,,,,,,,,,,,,,,,,,,,,,,,,,,,,,,,,,,,,,,,,,,,,,,,,,,,,,,,,,
,,6136266c04528ef90b95faa5,2026-03-17_12h20.37.460,kallum_motion_pilot_GIST_update_2,2026.1.1,Win32,60.24096386,6136266c04528ef90b95faa5,69b92ab4aef6dee357cd729a,69b92ae4e684930f88b65b4a,0.024,0.024,0,74,74,121,1,fiveseven,,,,,,,,,,,,,,,,,,,,,,,,,,,,,,,,,,,,,,,,,,,,,,,,,,,,,,,,,,,,,,,,,,,,,,,,,,,,,,,,,,,,,,,,,,,,,,,,,,,,,,,,,,,,,,,,,,,,,,,,,,,,,,,,,,,,,,,,,
,,6136266c04528ef90b95faa5,2026-03-17_12h20.37.460,kallum_motion_pilot_GIST_update_2,2026.1.1,Win32,60.24096386,6136266c04528ef90b95faa5,69b92ab4aef6dee357cd729a,69b92ae4e684930f88b65b4a,0.024,0.0241,0,75,75,122,1,sixfive,,,,,,,,,,,,,,,,,,,,,,,,,,,,,,,,,,,,,,,,,,,,,,,,,,,,,,,,,,,,,,,,,,,,,,,,,,,,,,,,,,,,,,,,,,,,,,,,,,,,,,,,,,,,,,,,,,,,,,,,,,,,,,,,,,,,,,,,,
,,6136266c04528ef90b95faa5,2026-03-17_12h20.37.460,kallum_motion_pilot_GIST_update_2,2026.1.1,Win32,60.24096386,6136266c04528ef90b95faa5,69b92ab4aef6dee357cd729a,69b92ae4e684930f88b65b4a,0.0241,0.0241,0,76,76,84,1,sevenfive,,,,,,,,,,,,,,,,,,,,,,,,,,,,,,,,,,,,,,,,,,,,,,,,,,,,,,,,,,,,,,,,,,,,,,,,,,,,,,,,,,,,,,,,,,,,,,,,,,,,,,,,,,,,,,,,,,,,,,,,,,,,,,,,,,,,,,,,,
,,6136266c04528ef90b95faa5,2026-03-17_12h20.37.460,kallum_motion_pilot_GIST_update_2,2026.1.1,Win32,60.24096386,6136266c04528ef90b95faa5,69b92ab4aef6dee357cd729a,69b92ae4e684930f88b65b4a,0.0243,0.0243,0,77,77,2,1,twoone,,,,,,,,,,,,,,,,,,,,,,,,,,,,,,,,,,,,,,,,,,,,,,,,,,,,,,,,,,,,,,,,,,,,,,,,,,,,,,,,,,,,,,,,,,,,,,,,,,,,,,,,,,,,,,,,,,,,,,,,,,,,,,,,,,,,,,,,,
,,6136266c04528ef90b95faa5,2026-03-17_12h20.37.460,kallum_motion_pilot_GIST_update_2,2026.1.1,Win32,60.24096386,6136266c04528ef90b95faa5,69b92ab4aef6dee357cd729a,69b92ae4e684930f88b65b4a,0.0244,0.0244,0,78,78,59,1,twofour,,,,,,,,,,,,,,,,,,,,,,,,,,,,,,,,,,,,,,,,,,,,,,,,,,,,,,,,,,,,,,,,,,,,,,,,,,,,,,,,,,,,,,,,,,,,,,,,,,,,,,,,,,,,,,,,,,,,,,,,,,,,,,,,,,,,,,,,,
,,6136266c04528ef90b95faa5,2026-03-17_12h20.37.460,kallum_motion_pilot_GIST_update_2,2026.1.1,Win32,60.24096386,6136266c04528ef90b95faa5,69b92ab4aef6dee357cd729a,69b92ae4e684930f88b65b4a,0.0244,0.0244,0,79,79,148,1,sevenfive,,,,,,,,,,,,,,,,,,,,,,,,,,,,,,,,,,,,,,,,,,,,,,,,,,,,,,,,,,,,,,,,,,,,,,,,,,,,,,,,,,,,,,,,,,,,,,,,,,,,,,,,,,,,,,,,,,,,,,,,,,,,,,,,,,,,,,,,,
,,6136266c04528ef90b95faa5,2026-03-17_12h20.37.460,kallum_motion_pilot_GIST_update_2,2026.1.1,Win32,60.24096386,6136266c04528ef90b95faa5,69b92ab4aef6dee357cd729a,69b92ae4e684930f88b65b4a,0.0245,0.0245,0,80,80,16,1,onetwo,,,,,,,,,,,,,,,,,,,,,,,,,,,,,,,,,,,,,,,,,,,,,,,,,,,,,,,,,,,,,,,,,,,,,,,,,,,,,,,,,,,,,,,,,,,,,,,,,,,,,,,,,,,,,,,,,,,,,,,,,,,,,,,,,,,,,,,,,
,,6136266c04528ef90b95faa5,2026-03-17_12h20.37.460,kallum_motion_pilot_GIST_update_2,2026.1.1,Win32,60.24096386,6136266c04528ef90b95faa5,69b92ab4aef6dee357cd729a,69b92ae4e684930f88b65b4a,0.0246,0.0246,0,81,81,126,1,eightsix,,,,,,,,,,,,,,,,,,,,,,,,,,,,,,,,,,,,,,,,,,,,,,,,,,,,,,,,,,,,,,,,,,,,,,,,,,,,,,,,,,,,,,,,,,,,,,,,,,,,,,,,,,,,,,,,,,,,,,,,,,,,,,,,,,,,,,,,,
,,6136266c04528ef90b95faa5,2026-03-17_12h20.37.460,kallum_motion_pilot_GIST_update_2,2026.1.1,Win32,60.24096386,6136266c04528ef90b95faa5,69b92ab4aef6dee357cd729a,69b92ae4e684930f88b65b4a,0.0247,0.0247,0,82,82,111,1,eightseven,,,,,,,,,,,,,,,,,,,,,,,,,,,,,,,,,,,,,,,,,,,,,,,,,,,,,,,,,,,,,,,,,,,,,,,,,,,,,,,,,,,,,,,,,,,,,,,,,,,,,,,,,,,,,,,,,,,,,,,,,,,,,,,,,,,,,,,,,
,,6136266c04528ef90b95faa5,2026-03-17_12h20.37.460,kallum_motion_pilot_GIST_update_2,2026.1.1,Win32,60.24096386,6136266c04528ef90b95faa5,69b92ab4aef6dee357cd729a,69b92ae4e684930f88b65b4a,0.0247,0.0248,0,83,83,33,1,onethree,,,,,,,,,,,,,,,,,,,,,,,,,,,,,,,,,,,,,,,,,,,,,,,,,,,,,,,,,,,,,,,,,,,,,,,,,,,,,,,,,,,,,,,,,,,,,,,,,,,,,,,,,,,,,,,,,,,,,,,,,,,,,,,,,,,,,,,,,
,,6136266c04528ef90b95faa5,2026-03-17_12h20.37.460,kallum_motion_pilot_GIST_update_2,2026.1.1,Win32,60.24096386,6136266c04528ef90b95faa5,69b92ab4aef6dee357cd729a,69b92ae4e684930f88b65b4a,0.0249,0.0249,0,84,84,53,1,threefour,,,,,,,,,,,,,,,,,,,,,,,,,,,,,,,,,,,,,,,,,,,,,,,,,,,,,,,,,,,,,,,,,,,,,,,,,,,,,,,,,,,,,,,,,,,,,,,,,,,,,,,,,,,,,,,,,,,,,,,,,,,,,,,,,,,,,,,,,
,,6136266c04528ef90b95faa5,2026-03-17_12h20.37.460,kallum_motion_pilot_GIST_update_2,2026.1.1,Win32,60.24096386,6136266c04528ef90b95faa5,69b92ab4aef6dee357cd729a,69b92ae4e684930f88b65b4a,0.0249,0.0249,0,85,85,68,1,threeone,,,,,,,,,,,,,,,,,,,,,,,,,,,,,,,,,,,,,,,,,,,,,,,,,,,,,,,,,,,,,,,,,,,,,,,,,,,,,,,,,,,,,,,,,,,,,,,,,,,,,,,,,,,,,,,,,,,,,,,,,,,,,,,,,,,,,,,,,
,,6136266c04528ef90b95faa5,2026-03-17_12h20.37.460,kallum_motion_pilot_GIST_update_2,2026.1.1,Win32,60.24096386,6136266c04528ef90b95faa5,69b92ab4aef6dee357cd729a,69b92ae4e684930f88b65b4a,0.025,0.025,0,86,86,51,1,twofour,,,,,,,,,,,,,,,,,,,,,,,,,,,,,,,,,,,,,,,,,,,,,,,,,,,,,,,,,,,,,,,,,,,,,,,,,,,,,,,,,,,,,,,,,,,,,,,,,,,,,,,,,,,,,,,,,,,,,,,,,,,,,,,,,,,,,,,,,
,,6136266c04528ef90b95faa5,2026-03-17_12h20.37.460,kallum_motion_pilot_GIST_update_2,2026.1.1,Win32,60.24096386,6136266c04528ef90b95faa5,69b92ab4aef6dee357cd729a,69b92ae4e684930f88b65b4a,0.0251,0.0251,0,87,87,19,1,twofour,,,,,,,,,,,,,,,,,,,,,,,,,,,,,,,,,,,,,,,,,,,,,,,,,,,,,,,,,,,,,,,,,,,,,,,,,,,,,,,,,,,,,,,,,,,,,,,,,,,,,,,,,,,,,,,,,,,,,,,,,,,,,,,,,,,,,,,,,
,,6136266c04528ef90b95faa5,2026-03-17_12h20.37.460,kallum_motion_pilot_GIST_update_2,2026.1.1,Win32,60.24096386,6136266c04528ef90b95faa5,69b92ab4aef6dee357cd729a,69b92ae4e684930f88b65b4a,0.0252,0.0252,0,88,88,153,1,fiveseven,,,,,,,,,,,,,,,,,,,,,,,,,,,,,,,,,,,,,,,,,,,,,,,,,,,,,,,,,,,,,,,,,,,,,,,,,,,,,,,,,,,,,,,,,,,,,,,,,,,,,,,,,,,,,,,,,,,,,,,,,,,,,,,,,,,,,,,,,
,,6136266c04528ef90b95faa5,2026-03-17_12h20.37.460,kallum_motion_pilot_GIST_update_2,2026.1.1,Win32,60.24096386,6136266c04528ef90b95faa5,69b92ab4aef6dee357cd729a,69b92ae4e684930f88b65b4a,0.0253,0.0253,0,89,89,117,1,seveneight,,,,,,,,,,,,,,,,,,,,,,,,,,,,,,,,,,,,,,,,,,,,,,,,,,,,,,,,,,,,,,,,,,,,,,,,,,,,,,,,,,,,,,,,,,,,,,,,,,,,,,,,,,,,,,,,,,,,,,,,,,,,,,,,,,,,,,,,,
,,6136266c04528ef90b95faa5,2026-03-17_12h20.37.460,kallum_motion_pilot_GIST_update_2,2026.1.1,Win32,60.24096386,6136266c04528ef90b95faa5,69b92ab4aef6dee357cd729a,69b92ae4e684930f88b65b4a,0.0254,0.0254,0,90,90,86,1,eightsix,,,,,,,,,,,,,,,,,,,,,,,,,,,,,,,,,,,,,,,,,,,,,,,,,,,,,,,,,,,,,,,,,,,,,,,,,,,,,,,,,,,,,,,,,,,,,,,,,,,,,,,,,,,,,,,,,,,,,,,,,,,,,,,,,,,,,,,,,
,,6136266c04528ef90b95faa5,2026-03-17_12h20.37.460,kallum_motion_pilot_GIST_update_2,2026.1.1,Win32,60.24096386,6136266c04528ef90b95faa5,69b92ab4aef6dee357cd729a,69b92ae4e684930f88b65b4a,0.0254,0.0254,0,91,91,144,1,fivesix,,,,,,,,,,,,,,,,,,,,,,,,,,,,,,,,,,,,,,,,,,,,,,,,,,,,,,,,,,,,,,,,,,,,,,,,,,,,,,,,,,,,,,,,,,,,,,,,,,,,,,,,,,,,,,,,,,,,,,,,,,,,,,,,,,,,,,,,,
,,6136266c04528ef90b95faa5,2026-03-17_12h20.37.460,kallum_motion_pilot_GIST_update_2,2026.1.1,Win32,60.24096386,6136266c04528ef90b95faa5,69b92ab4aef6dee357cd729a,69b92ae4e684930f88b65b4a,0.0255,0.0255,0,92,92,62,1,fourtwo,,,,,,,,,,,,,,,,,,,,,,,,,,,,,,,,,,,,,,,,,,,,,,,,,,,,,,,,,,,,,,,,,,,,,,,,,,,,,,,,,,,,,,,,,,,,,,,,,,,,,,,,,,,,,,,,,,,,,,,,,,,,,,,,,,,,,,,,,
,,6136266c04528ef90b95faa5,2026-03-17_12h20.37.460,kallum_motion_pilot_GIST_update_2,2026.1.1,Win32,60.24096386,6136266c04528ef90b95faa5,69b92ab4aef6dee357cd729a,69b92ae4e684930f88b65b4a,0.0257,0.0257,0,93,93,133,1,seveneight,,,,,,,,,,,,,,,,,,,,,,,,,,,,,,,,,,,,,,,,,,,,,,,,,,,,,,,,,,,,,,,,,,,,,,,,,,,,,,,,,,,,,,,,,,,,,,,,,,,,,,,,,,,,,,,,,,,,,,,,,,,,,,,,,,,,,,,,,
,,6136266c04528ef90b95faa5,2026-03-17_12h20.37.460,kallum_motion_pilot_GIST_update_2,2026.1.1,Win32,60.24096386,6136266c04528ef90b95faa5,69b92ab4aef6dee357cd729a,69b92ae4e684930f88b65b4a,0.0257,0.0257,0,94,94,3,1,twofour,,,,,,,,,,,,,,,,,,,,,,,,,,,,,,,,,,,,,,,,,,,,,,,,,,,,,,,,,,,,,,,,,,,,,,,,,,,,,,,,,,,,,,,,,,,,,,,,,,,,,,,,,,,,,,,,,,,,,,,,,,,,,,,,,,,,,,,,,
,,6136266c04528ef90b95faa5,2026-03-17_12h20.37.460,kallum_motion_pilot_GIST_update_2,2026.1.1,Win32,60.24096386,6136266c04528ef90b95faa5,69b92ab4aef6dee357cd729a,69b92ae4e684930f88b65b4a,0.0258,0.0258,0,95,95,151,1,eightseven,,,,,,,,,,,,,,,,,,,,,,,,,,,,,,,,,,,,,,,,,,,,,,,,,,,,,,,,,,,,,,,,,,,,,,,,,,,,,,,,,,,,,,,,,,,,,,,,,,,,,,,,,,,,,,,,,,,,,,,,,,,,,,,,,,,,,,,,,
,,6136266c04528ef90b95faa5,2026-03-17_12h20.37.460,kallum_motion_pilot_GIST_update_2,2026.1.1,Win32,60.24096386,6136266c04528ef90b95faa5,69b92ab4aef6dee357cd729a,69b92ae4e684930f88b65b4a,0.0259,0.0259,0,96,96,42,1,twoone,,,,,,,,,,,,,,,,,,,,,,,,,,,,,,,,,,,,,,,,,,,,,,,,,,,,,,,,,,,,,,,,,,,,,,,,,,,,,,,,,,,,,,,,,,,,,,,,,,,,,,,,,,,,,,,,,,,,,,,,,,,,,,,,,,,,,,,,,
,,6136266c04528ef90b95faa5,2026-03-17_12h20.37.460,kallum_motion_pilot_GIST_update_2,2026.1.1,Win32,60.24096386,6136266c04528ef90b95faa5,69b92ab4aef6dee357cd729a,69b92ae4e684930f88b65b4a,0.026,0.026,0,97,97,27,1,twofour,,,,,,,,,,,,,,,,,,,,,,,,,,,,,,,,,,,,,,,,,,,,,,,,,,,,,,,,,,,,,,,,,,,,,,,,,,,,,,,,,,,,,,,,,,,,,,,,,,,,,,,,,,,,,,,,,,,,,,,,,,,,,,,,,,,,,,,,,
,,6136266c04528ef90b95faa5,2026-03-17_12h20.37.460,kallum_motion_pilot_GIST_update_2,2026.1.1,Win32,60.24096386,6136266c04528ef90b95faa5,69b92ab4aef6dee357cd729a,69b92ae4e684930f88b65b4a,0.0261,0.0261,0,98,98,17,1,onethree,,,,,,,,,,,,,,,,,,,,,,,,,,,,,,,,,,,,,,,,,,,,,,,,,,,,,,,,,,,,,,,,,,,,,,,,,,,,,,,,,,,,,,,,,,,,,,,,,,,,,,,,,,,,,,,,,,,,,,,,,,,,,,,,,,,,,,,,,
,,6136266c04528ef90b95faa5,2026-03-17_12h20.37.460,kallum_motion_pilot_GIST_update_2,2026.1.1,Win32,60.24096386,6136266c04528ef90b95faa5,69b92ab4aef6dee357cd729a,69b92ae4e684930f88b65b4a,0.0261,0.0261,0,99,99,134,1,eightsix,,,,,,,,,,,,,,,,,,,,,,,,,,,,,,,,,,,,,,,,,,,,,,,,,,,,,,,,,,,,,,,,,,,,,,,,,,,,,,,,,,,,,,,,,,,,,,,,,,,,,,,,,,,,,,,,,,,,,,,,,,,,,,,,,,,,,,,,,
,,6136266c04528ef90b95faa5,2026-03-17_12h20.37.460,kallum_motion_pilot_GIST_update_2,2026.1.1,Win32,60.24096386,6136266c04528ef90b95faa5,69b92ab4aef6dee357cd729a,69b92ae4e684930f88b65b4a,0.0262,0.0262,0,100,100,89,1,fiveseven,,,,,,,,,,,,,,,,,,,,,,,,,,,,,,,,,,,,,,,,,,,,,,,,,,,,,,,,,,,,,,,,,,,,,,,,,,,,,,,,,,,,,,,,,,,,,,,,,,,,,,,,,,,,,,,,,,,,,,,,,,,,,,,,,,,,,,,,,
,,6136266c04528ef90b95faa5,2026-03-17_12h20.37.460,kallum_motion_pilot_GIST_update_2,2026.1.1,Win32,60.24096386,6136266c04528ef90b95faa5,69b92ab4aef6dee357cd729a,69b92ae4e684930f88b65b4a,0.0264,0.0264,0,101,101,116,1,sevenfive,,,,,,,,,,,,,,,,,,,,,,,,,,,,,,,,,,,,,,,,,,,,,,,,,,,,,,,,,,,,,,,,,,,,,,,,,,,,,,,,,,,,,,,,,,,,,,,,,,,,,,,,,,,,,,,,,,,,,,,,,,,,,,,,,,,,,,,,,
,,6136266c04528ef90b95faa5,2026-03-17_12h20.37.460,kallum_motion_pilot_GIST_update_2,2026.1.1,Win32,60.24096386,6136266c04528ef90b95faa5,69b92ab4aef6dee357cd729a,69b92ae4e684930f88b65b4a,0.0265,0.0265,0,102,102,97,1,fiveseven,,,,,,,,,,,,,,,,,,,,,,,,,,,,,,,,,,,,,,,,,,,,,,,,,,,,,,,,,,,,,,,,,,,,,,,,,,,,,,,,,,,,,,,,,,,,,,,,,,,,,,,,,,,,,,,,,,,,,,,,,,,,,,,,,,,,,,,,,
,,6136266c04528ef90b95faa5,2026-03-17_12h20.37.460,kallum_motion_pilot_GIST_update_2,2026.1.1,Win32,60.24096386,6136266c04528ef90b95faa5,69b92ab4aef6dee357cd729a,69b92ae4e684930f88b65b4a,0.0266,0.0266,0,103,103,24,1,onetwo,,,,,,,,,,,,,,,,,,,,,,,,,,,,,,,,,,,,,,,,,,,,,,,,,,,,,,,,,,,,,,,,,,,,,,,,,,,,,,,,,,,,,,,,,,,,,,,,,,,,,,,,,,,,,,,,,,,,,,,,,,,,,,,,,,,,,,,,,
,,6136266c04528ef90b95faa5,2026-03-17_12h20.37.460,kallum_motion_pilot_GIST_update_2,2026.1.1,Win32,60.24096386,6136266c04528ef90b95faa5,69b92ab4aef6dee357cd729a,69b92ae4e684930f88b65b4a,0.0267,0.0267,0,104,104,105,1,fiveseven,,,,,,,,,,,,,,,,,,,,,,,,,,,,,,,,,,,,,,,,,,,,,,,,,,,,,,,,,,,,,,,,,,,,,,,,,,,,,,,,,,,,,,,,,,,,,,,,,,,,,,,,,,,,,,,,,,,,,,,,,,,,,,,,,,,,,,,,,
,,6136266c04528ef90b95faa5,2026-03-17_12h20.37.460,kallum_motion_pilot_GIST_update_2,2026.1.1,Win32,60.24096386,6136266c04528ef90b95faa5,69b92ab4aef6dee357cd729a,69b92ae4e684930f88b65b4a,0.0267,0.0267,0,105,105,64,1,onetwo,,,,,,,,,,,,,,,,,,,,,,,,,,,,,,,,,,,,,,,,,,,,,,,,,,,,,,,,,,,,,,,,,,,,,,,,,,,,,,,,,,,,,,,,,,,,,,,,,,,,,,,,,,,,,,,,,,,,,,,,,,,,,,,,,,,,,,,,,
,,6136266c04528ef90b95faa5,2026-03-17_12h20.37.460,kallum_motion_pilot_GIST_update_2,2026.1.1,Win32,60.24096386,6136266c04528ef90b95faa5,69b92ab4aef6dee357cd729a,69b92ae4e684930f88b65b4a,0.0268,0.0268,0,106,106,156,1,sevenfive,,,,,,,,,,,,,,,,,,,,,,,,,,,,,,,,,,,,,,,,,,,,,,,,,,,,,,,,,,,,,,,,,,,,,,,,,,,,,,,,,,,,,,,,,,,,,,,,,,,,,,,,,,,,,,,,,,,,,,,,,,,,,,,,,,,,,,,,,
,,6136266c04528ef90b95faa5,2026-03-17_12h20.37.460,kallum_motion_pilot_GIST_update_2,2026.1.1,Win32,60.24096386,6136266c04528ef90b95faa5,69b92ab4aef6dee357cd729a,69b92ae4e684930f88b65b4a,0.0269,0.0269,0,107,107,146,1,sixfive,,,,,,,,,,,,,,,,,,,,,,,,,,,,,,,,,,,,,,,,,,,,,,,,,,,,,,,,,,,,,,,,,,,,,,,,,,,,,,,,,,,,,,,,,,,,,,,,,,,,,,,,,,,,,,,,,,,,,,,,,,,,,,,,,,,,,,,,,
,,6136266c04528ef90b95faa5,2026-03-17_12h20.37.460,kallum_motion_pilot_GIST_update_2,2026.1.1,Win32,60.24096386,6136266c04528ef90b95faa5,69b92ab4aef6dee357cd729a,69b92ae4e684930f88b65b4a,0.027,0.027,0,108,108,139,1,sixeight,,,,,,,,,,,,,,,,,,,,,,,,,,,,,,,,,,,,,,,,,,,,,,,,,,,,,,,,,,,,,,,,,,,,,,,,,,,,,,,,,,,,,,,,,,,,,,,,,,,,,,,,,,,,,,,,,,,,,,,,,,,,,,,,,,,,,,,,,
,,6136266c04528ef90b95faa5,2026-03-17_12h20.37.460,kallum_motion_pilot_GIST_update_2,2026.1.1,Win32,60.24096386,6136266c04528ef90b95faa5,69b92ab4aef6dee357cd729a,69b92ae4e684930f88b65b4a,0.0271,0.0271,0,109,109,113,1,fiveseven,,,,,,,,,,,,,,,,,,,,,,,,,,,,,,,,,,,,,,,,,,,,,,,,,,,,,,,,,,,,,,,,,,,,,,,,,,,,,,,,,,,,,,,,,,,,,,,,,,,,,,,,,,,,,,,,,,,,,,,,,,,,,,,,,,,,,,,,,
,,6136266c04528ef90b95faa5,2026-03-17_12h20.37.460,kallum_motion_pilot_GIST_update_2,2026.1.1,Win32,60.24096386,6136266c04528ef90b95faa5,69b92ab4aef6dee357cd729a,69b92ae4e684930f88b65b4a,0.0272,0.0272,0,110,110,57,1,onethree,,,,,,,,,,,,,,,,,,,,,,,,,,,,,,,,,,,,,,,,,,,,,,,,,,,,,,,,,,,,,,,,,,,,,,,,,,,,,,,,,,,,,,,,,,,,,,,,,,,,,,,,,,,,,,,,,,,,,,,,,,,,,,,,,,,,,,,,,
,,6136266c04528ef90b95faa5,2026-03-17_12h20.37.460,kallum_motion_pilot_GIST_update_2,2026.1.1,Win32,60.24096386,6136266c04528ef90b95faa5,69b92ab4aef6dee357cd729a,69b92ae4e684930f88b65b4a,0.0273,0.0273,0,111,111,118,1,eightsix,,,,,,,,,,,,,,,,,,,,,,,,,,,,,,,,,,,,,,,,,,,,,,,,,,,,,,,,,,,,,,,,,,,,,,,,,,,,,,,,,,,,,,,,,,,,,,,,,,,,,,,,,,,,,,,,,,,,,,,,,,,,,,,,,,,,,,,,,
,,6136266c04528ef90b95faa5,2026-03-17_12h20.37.460,kallum_motion_pilot_GIST_update_2,2026.1.1,Win32,60.24096386,6136266c04528ef90b95faa5,69b92ab4aef6dee357cd729a,69b92ae4e684930f88b65b4a,0.0274,0.0274,0,112,112,125,1,seveneight,,,,,,,,,,,,,,,,,,,,,,,,,,,,,,,,,,,,,,,,,,,,,,,,,,,,,,,,,,,,,,,,,,,,,,,,,,,,,,,,,,,,,,,,,,,,,,,,,,,,,,,,,,,,,,,,,,,,,,,,,,,,,,,,,,,,,,,,,
,,6136266c04528ef90b95faa5,2026-03-17_12h20.37.460,kallum_motion_pilot_GIST_update_2,2026.1.1,Win32,60.24096386,6136266c04528ef90b95faa5,69b92ab4aef6dee357cd729a,69b92ae4e684930f88b65b4a,0.0275,0.0275,0,113,113,71,1,fourthree,,,,,,,,,,,,,,,,,,,,,,,,,,,,,,,,,,,,,,,,,,,,,,,,,,,,,,,,,,,,,,,,,,,,,,,,,,,,,,,,,,,,,,,,,,,,,,,,,,,,,,,,,,,,,,,,,,,,,,,,,,,,,,,,,,,,,,,,,
,,6136266c04528ef90b95faa5,2026-03-17_12h20.37.460,kallum_motion_pilot_GIST_update_2,2026.1.1,Win32,60.24096386,6136266c04528ef90b95faa5,69b92ab4aef6dee357cd729a,69b92ae4e684930f88b65b4a,0.0275,0.0275,0,114,114,152,1,fivesix,,,,,,,,,,,,,,,,,,,,,,,,,,,,,,,,,,,,,,,,,,,,,,,,,,,,,,,,,,,,,,,,,,,,,,,,,,,,,,,,,,,,,,,,,,,,,,,,,,,,,,,,,,,,,,,,,,,,,,,,,,,,,,,,,,,,,,,,,
,,6136266c04528ef90b95faa5,2026-03-17_12h20.37.460,kallum_motion_pilot_GIST_update_2,2026.1.1,Win32,60.24096386,6136266c04528ef90b95faa5,69b92ab4aef6dee357cd729a,69b92ae4e684930f88b65b4a,0.0276,0.0276,0,115,115,72,1,onetwo,,,,,,,,,,,,,,,,,,,,,,,,,,,,,,,,,,,,,,,,,,,,,,,,,,,,,,,,,,,,,,,,,,,,,,,,,,,,,,,,,,,,,,,,,,,,,,,,,,,,,,,,,,,,,,,,,,,,,,,,,,,,,,,,,,,,,,,,,
,,6136266c04528ef90b95faa5,2026-03-17_12h20.37.460,kallum_motion_pilot_GIST_update_2,2026.1.1,Win32,60.24096386,6136266c04528ef90b95faa5,69b92ab4aef6dee357cd729a,69b92ae4e684930f88b65b4a,0.0278,0.0278,0,116,116,14,1,fourtwo,,,,,,,,,,,,,,,,,,,,,,,,,,,,,,,,,,,,,,,,,,,,,,,,,,,,,,,,,,,,,,,,,,,,,,,,,,,,,,,,,,,,,,,,,,,,,,,,,,,,,,,,,,,,,,,,,,,,,,,,,,,,,,,,,,,,,,,,,
,,6136266c04528ef90b95faa5,2026-03-17_12h20.37.460,kallum_motion_pilot_GIST_update_2,2026.1.1,Win32,60.24096386,6136266c04528ef90b95faa5,69b92ab4aef6dee357cd729a,69b92ae4e684930f88b65b4a,0.0279,0.0279,0,117,117,11,1,twofour,,,,,,,,,,,,,,,,,,,,,,,,,,,,,,,,,,,,,,,,,,,,,,,,,,,,,,,,,,,,,,,,,,,,,,,,,,,,,,,,,,,,,,,,,,,,,,,,,,,,,,,,,,,,,,,,,,,,,,,,,,,,,,,,,,,,,,,,,
,,6136266c04528ef90b95faa5,2026-03-17_12h20.37.460,kallum_motion_pilot_GIST_update_2,2026.1.1,Win32,60.24096386,6136266c04528ef90b95faa5,69b92ab4aef6dee357cd729a,69b92ae4e684930f88b65b4a,0.0279,0.0279,0,118,118,128,1,fivesix,,,,,,,,,,,,,,,,,,,,,,,,,,,,,,,,,,,,,,,,,,,,,,,,,,,,,,,,,,,,,,,,,,,,,,,,,,,,,,,,,,,,,,,,,,,,,,,,,,,,,,,,,,,,,,,,,,,,,,,,,,,,,,,,,,,,,,,,,
,,6136266c04528ef90b95faa5,2026-03-17_12h20.37.460,kallum_motion_pilot_GIST_update_2,2026.1.1,Win32,60.24096386,6136266c04528ef90b95faa5,69b92ab4aef6dee357cd729a,69b92ae4e684930f88b65b4a,0.028,0.028,0,119,119,160,1,fivesix,,,,,,,,,,,,,,,,,,,,,,,,,,,,,,,,,,,,,,,,,,,,,,,,,,,,,,,,,,,,,,,,,,,,,,,,,,,,,,,,,,,,,,,,,,,,,,,,,,,,,,,,,,,,,,,,,,,,,,,,,,,,,,,,,,,,,,,,,
,,6136266c04528ef90b95faa5,2026-03-17_12h20.37.460,kallum_motion_pilot_GIST_update_2,2026.1.1,Win32,60.24096386,6136266c04528ef90b95faa5,69b92ab4aef6dee357cd729a,69b92ae4e684930f88b65b4a,0.0281,0.0281,0,120,120,80,1,fivesix,,,,,,,,,,,,,,,,,,,,,,,,,,,,,,,,,,,,,,,,,,,,,,,,,,,,,,,,,,,,,,,,,,,,,,,,,,,,,,,,,,,,,,,,,,,,,,,,,,,,,,,,,,,,,,,,,,,,,,,,,,,,,,,,,,,,,,,,,
,,6136266c04528ef90b95faa5,2026-03-17_12h20.37.460,kallum_motion_pilot_GIST_update_2,2026.1.1,Win32,60.24096386,6136266c04528ef90b95faa5,69b92ab4aef6dee357cd729a,69b92ae4e684930f88b65b4a,0.0282,0.0282,0,121,121,77,1,threefour,,,,,,,,,,,,,,,,,,,,,,,,,,,,,,,,,,,,,,,,,,,,,,,,,,,,,,,,,,,,,,,,,,,,,,,,,,,,,,,,,,,,,,,,,,,,,,,,,,,,,,,,,,,,,,,,,,,,,,,,,,,,,,,,,,,,,,,,,
,,6136266c04528ef90b95faa5,2026-03-17_12h20.37.460,kallum_motion_pilot_GIST_update_2,2026.1.1,Win32,60.24096386,6136266c04528ef90b95faa5,69b92ab4aef6dee357cd729a,69b92ae4e684930f88b65b4a,0.0283,0.0283,0,122,122,87,1,eightseven,,,,,,,,,,,,,,,,,,,,,,,,,,,,,,,,,,,,,,,,,,,,,,,,,,,,,,,,,,,,,,,,,,,,,,,,,,,,,,,,,,,,,,,,,,,,,,,,,,,,,,,,,,,,,,,,,,,,,,,,,,,,,,,,,,,,,,,,,
,,6136266c04528ef90b95faa5,2026-03-17_12h20.37.460,kallum_motion_pilot_GIST_update_2,2026.1.1,Win32,60.24096386,6136266c04528ef90b95faa5,69b92ab4aef6dee357cd729a,69b92ae4e684930f88b65b4a,0.0284,0.0284,0,123,123,73,1,onethree,,,,,,,,,,,,,,,,,,,,,,,,,,,,,,,,,,,,,,,,,,,,,,,,,,,,,,,,,,,,,,,,,,,,,,,,,,,,,,,,,,,,,,,,,,,,,,,,,,,,,,,,,,,,,,,,,,,,,,,,,,,,,,,,,,,,,,,,,
,,6136266c04528ef90b95faa5,2026-03-17_12h20.37.460,kallum_motion_pilot_GIST_update_2,2026.1.1,Win32,60.24096386,6136266c04528ef90b95faa5,69b92ab4aef6dee357cd729a,69b92ae4e684930f88b65b4a,0.0285,0.0285,0,124,124,36,1,threeone,,,,,,,,,,,,,,,,,,,,,,,,,,,,,,,,,,,,,,,,,,,,,,,,,,,,,,,,,,,,,,,,,,,,,,,,,,,,,,,,,,,,,,,,,,,,,,,,,,,,,,,,,,,,,,,,,,,,,,,,,,,,,,,,,,,,,,,,,
,,6136266c04528ef90b95faa5,2026-03-17_12h20.37.460,kallum_motion_pilot_GIST_update_2,2026.1.1,Win32,60.24096386,6136266c04528ef90b95faa5,69b92ab4aef6dee357cd729a,69b92ae4e684930f88b65b4a,0.0286,0.0286,0,125,125,85,1,seveneight,,,,,,,,,,,,,,,,,,,,,,,,,,,,,,,,,,,,,,,,,,,,,,,,,,,,,,,,,,,,,,,,,,,,,,,,,,,,,,,,,,,,,,,,,,,,,,,,,,,,,,,,,,,,,,,,,,,,,,,,,,,,,,,,,,,,,,,,,
,,6136266c04528ef90b95faa5,2026-03-17_12h20.37.460,kallum_motion_pilot_GIST_update_2,2026.1.1,Win32,60.24096386,6136266c04528ef90b95faa5,69b92ab4aef6dee357cd729a,69b92ae4e684930f88b65b4a,0.0287,0.0287,0,126,126,10,1,twoone,,,,,,,,,,,,,,,,,,,,,,,,,,,,,,,,,,,,,,,,,,,,,,,,,,,,,,,,,,,,,,,,,,,,,,,,,,,,,,,,,,,,,,,,,,,,,,,,,,,,,,,,,,,,,,,,,,,,,,,,,,,,,,,,,,,,,,,,,
,,6136266c04528ef90b95faa5,2026-03-17_12h20.37.460,kallum_motion_pilot_GIST_update_2,2026.1.1,Win32,60.24096386,6136266c04528ef90b95faa5,69b92ab4aef6dee357cd729a,69b92ae4e684930f88b65b4a,0.0288,0.0288,0,127,127,58,1,twoone,,,,,,,,,,,,,,,,,,,,,,,,,,,,,,,,,,,,,,,,,,,,,,,,,,,,,,,,,,,,,,,,,,,,,,,,,,,,,,,,,,,,,,,,,,,,,,,,,,,,,,,,,,,,,,,,,,,,,,,,,,,,,,,,,,,,,,,,,
,,6136266c04528ef90b95faa5,2026-03-17_12h20.37.460,kallum_motion_pilot_GIST_update_2,2026.1.1,Win32,60.24096386,6136266c04528ef90b95faa5,69b92ab4aef6dee357cd729a,69b92ae4e684930f88b65b4a,0.0288,0.0288,0,128,128,26,1,twoone,,,,,,,,,,,,,,,,,,,,,,,,,,,,,,,,,,,,,,,,,,,,,,,,,,,,,,,,,,,,,,,,,,,,,,,,,,,,,,,,,,,,,,,,,,,,,,,,,,,,,,,,,,,,,,,,,,,,,,,,,,,,,,,,,,,,,,,,,
,,6136266c04528ef90b95faa5,2026-03-17_12h20.37.460,kallum_motion_pilot_GIST_update_2,2026.1.1,Win32,60.24096386,6136266c04528ef90b95faa5,69b92ab4aef6dee357cd729a,69b92ae4e684930f88b65b4a,0.0289,0.0289,0,129,129,137,1,fiveseven,,,,,,,,,,,,,,,,,,,,,,,,,,,,,,,,,,,,,,,,,,,,,,,,,,,,,,,,,,,,,,,,,,,,,,,,,,,,,,,,,,,,,,,,,,,,,,,,,,,,,,,,,,,,,,,,,,,,,,,,,,,,,,,,,,,,,,,,,
,,6136266c04528ef90b95faa5,2026-03-17_12h20.37.460,kallum_motion_pilot_GIST_update_2,2026.1.1,Win32,60.24096386,6136266c04528ef90b95faa5,69b92ab4aef6dee357cd729a,69b92ae4e684930f88b65b4a,0.029,0.029,0,130,130,123,1,sixeight,,,,,,,,,,,,,,,,,,,,,,,,,,,,,,,,,,,,,,,,,,,,,,,,,,,,,,,,,,,,,,,,,,,,,,,,,,,,,,,,,,,,,,,,,,,,,,,,,,,,,,,,,,,,,,,,,,,,,,,,,,,,,,,,,,,,,,,,,
,,6136266c04528ef90b95faa5,2026-03-17_12h20.37.460,kallum_motion_pilot_GIST_update_2,2026.1.1,Win32,60.24096386,6136266c04528ef90b95faa5,69b92ab4aef6dee357cd729a,69b92ae4e684930f88b65b4a,0.0291,0.0291,0,131,131,138,1,sixfive,,,,,,,,,,,,,,,,,,,,,,,,,,,,,,,,,,,,,,,,,,,,,,,,,,,,,,,,,,,,,,,,,,,,,,,,,,,,,,,,,,,,,,,,,,,,,,,,,,,,,,,,,,,,,,,,,,,,,,,,,,,,,,,,,,,,,,,,,
,,6136266c04528ef90b95faa5,2026-03-17_12h20.37.460,kallum_motion_pilot_GIST_update_2,2026.1.1,Win32,60.24096386,6136266c04528ef90b95faa5,69b92ab4aef6dee357cd729a,69b92ae4e684930f88b65b4a,0.0292,0.0292,0,132,132,40,1,onetwo,,,,,,,,,,,,,,,,,,,,,,,,,,,,,,,,,,,,,,,,,,,,,,,,,,,,,,,,,,,,,,,,,,,,,,,,,,,,,,,,,,,,,,,,,,,,,,,,,,,,,,,,,,,,,,,,,,,,,,,,,,,,,,,,,,,,,,,,,
,,6136266c04528ef90b95faa5,2026-03-17_12h20.37.460,kallum_motion_pilot_GIST_update_2,2026.1.1,Win32,60.24096386,6136266c04528ef90b95faa5,69b92ab4aef6dee357cd729a,69b92ae4e684930f88b65b4a,0.0294,0.0294,0,133,133,135,1,eightseven,,,,,,,,,,,,,,,,,,,,,,,,,,,,,,,,,,,,,,,,,,,,,,,,,,,,,,,,,,,,,,,,,,,,,,,,,,,,,,,,,,,,,,,,,,,,,,,,,,,,,,,,,,,,,,,,,,,,,,,,,,,,,,,,,,,,,,,,,
,,6136266c04528ef90b95faa5,2026-03-17_12h20.37.460,kallum_motion_pilot_GIST_update_2,2026.1.1,Win32,60.24096386,6136266c04528ef90b95faa5,69b92ab4aef6dee357cd729a,69b92ae4e684930f88b65b4a,0.0295,0.0295,0,134,134,132,1,sevenfive,,,,,,,,,,,,,,,,,,,,,,,,,,,,,,,,,,,,,,,,,,,,,,,,,,,,,,,,,,,,,,,,,,,,,,,,,,,,,,,,,,,,,,,,,,,,,,,,,,,,,,,,,,,,,,,,,,,,,,,,,,,,,,,,,,,,,,,,,
,,6136266c04528ef90b95faa5,2026-03-17_12h20.37.460,kallum_motion_pilot_GIST_update_2,2026.1.1,Win32,60.24096386,6136266c04528ef90b95faa5,69b92ab4aef6dee357cd729a,69b92ae4e684930f88b65b4a,0.0295,0.0295,0,135,135,104,1,fivesix,,,,,,,,,,,,,,,,,,,,,,,,,,,,,,,,,,,,,,,,,,,,,,,,,,,,,,,,,,,,,,,,,,,,,,,,,,,,,,,,,,,,,,,,,,,,,,,,,,,,,,,,,,,,,,,,,,,,,,,,,,,,,,,,,,,,,,,,,
,,6136266c04528ef90b95faa5,2026-03-17_12h20.37.460,kallum_motion_pilot_GIST_update_2,2026.1.1,Win32,60.24096386,6136266c04528ef90b95faa5,69b92ab4aef6dee357cd729a,69b92ae4e684930f88b65b4a,0.0296,0.0296,0,136,136,127,1,eightseven,,,,,,,,,,,,,,,,,,,,,,,,,,,,,,,,,,,,,,,,,,,,,,,,,,,,,,,,,,,,,,,,,,,,,,,,,,,,,,,,,,,,,,,,,,,,,,,,,,,,,,,,,,,,,,,,,,,,,,,,,,,,,,,,,,,,,,,,,
,,6136266c04528ef90b95faa5,2026-03-17_12h20.37.460,kallum_motion_pilot_GIST_update_2,2026.1.1,Win32,60.24096386,6136266c04528ef90b95faa5,69b92ab4aef6dee357cd729a,69b92ae4e684930f88b65b4a,0.0297,0.0297,0,137,137,54,1,fourtwo,,,,,,,,,,,,,,,,,,,,,,,,,,,,,,,,,,,,,,,,,,,,,,,,,,,,,,,,,,,,,,,,,,,,,,,,,,,,,,,,,,,,,,,,,,,,,,,,,,,,,,,,,,,,,,,,,,,,,,,,,,,,,,,,,,,,,,,,,
,,6136266c04528ef90b95faa5,2026-03-17_12h20.37.460,kallum_motion_pilot_GIST_update_2,2026.1.1,Win32,60.24096386,6136266c04528ef90b95faa5,69b92ab4aef6dee357cd729a,69b92ae4e684930f88b65b4a,0.0298,0.0298,0,138,138,99,1,sixeight,,,,,,,,,,,,,,,,,,,,,,,,,,,,,,,,,,,,,,,,,,,,,,,,,,,,,,,,,,,,,,,,,,,,,,,,,,,,,,,,,,,,,,,,,,,,,,,,,,,,,,,,,,,,,,,,,,,,,,,,,,,,,,,,,,,,,,,,,
,,6136266c04528ef90b95faa5,2026-03-17_12h20.37.460,kallum_motion_pilot_GIST_update_2,2026.1.1,Win32,60.24096386,6136266c04528ef90b95faa5,69b92ab4aef6dee357cd729a,69b92ae4e684930f88b65b4a,0.03,0.03,0,139,139,101,1,seveneight,,,,,,,,,,,,,,,,,,,,,,,,,,,,,,,,,,,,,,,,,,,,,,,,,,,,,,,,,,,,,,,,,,,,,,,,,,,,,,,,,,,,,,,,,,,,,,,,,,,,,,,,,,,,,,,,,,,,,,,,,,,,,,,,,,,,,,,,,
,,6136266c04528ef90b95faa5,2026-03-17_12h20.37.460,kallum_motion_pilot_GIST_update_2,2026.1.1,Win32,60.24096386,6136266c04528ef90b95faa5,69b92ab4aef6dee357cd729a,69b92ae4e684930f88b65b4a,0.03,0.03,0,140,140,31,1,fourthree,,,,,,,,,,,,,,,,,,,,,,,,,,,,,,,,,,,,,,,,,,,,,,,,,,,,,,,,,,,,,,,,,,,,,,,,,,,,,,,,,,,,,,,,,,,,,,,,,,,,,,,,,,,,,,,,,,,,,,,,,,,,,,,,,,,,,,,,,
,,6136266c04528ef90b95faa5,2026-03-17_12h20.37.460,kallum_motion_pilot_GIST_update_2,2026.1.1,Win32,60.24096386,6136266c04528ef90b95faa5,69b92ab4aef6dee357cd729a,69b92ae4e684930f88b65b4a,0.0301,0.0301,0,141,141,106,1,sixfive,,,,,,,,,,,,,,,,,,,,,,,,,,,,,,,,,,,,,,,,,,,,,,,,,,,,,,,,,,,,,,,,,,,,,,,,,,,,,,,,,,,,,,,,,,,,,,,,,,,,,,,,,,,,,,,,,,,,,,,,,,,,,,,,,,,,,,,,,
,,6136266c04528ef90b95faa5,2026-03-17_12h20.37.460,kallum_motion_pilot_GIST_update_2,2026.1.1,Win32,60.24096386,6136266c04528ef90b95faa5,69b92ab4aef6dee357cd729a,69b92ae4e684930f88b65b4a,0.0302,0.0302,0,142,142,100,1,sevenfive,,,,,,,,,,,,,,,,,,,,,,,,,,,,,,,,,,,,,,,,,,,,,,,,,,,,,,,,,,,,,,,,,,,,,,,,,,,,,,,,,,,,,,,,,,,,,,,,,,,,,,,,,,,,,,,,,,,,,,,,,,,,,,,,,,,,,,,,,
,,6136266c04528ef90b95faa5,2026-03-17_12h20.37.460,kallum_motion_pilot_GIST_update_2,2026.1.1,Win32,60.24096386,6136266c04528ef90b95faa5,69b92ab4aef6dee357cd729a,69b92ae4e684930f88b65b4a,0.0302,0.0302,0,143,143,44,1,threeone,,,,,,,,,,,,,,,,,,,,,,,,,,,,,,,,,,,,,,,,,,,,,,,,,,,,,,,,,,,,,,,,,,,,,,,,,,,,,,,,,,,,,,,,,,,,,,,,,,,,,,,,,,,,,,,,,,,,,,,,,,,,,,,,,,,,,,,,,
,,6136266c04528ef90b95faa5,2026-03-17_12h20.37.460,kallum_motion_pilot_GIST_update_2,2026.1.1,Win32,60.24096386,6136266c04528ef90b95faa5,69b92ab4aef6dee357cd729a,69b92ae4e684930f88b65b4a,0.0304,0.0304,0,144,144,110,1,eightsix,,,,,,,,,,,,,,,,,,,,,,,,,,,,,,,,,,,,,,,,,,,,,,,,,,,,,,,,,,,,,,,,,,,,,,,,,,,,,,,,,,,,,,,,,,,,,,,,,,,,,,,,,,,,,,,,,,,,,,,,,,,,,,,,,,,,,,,,,
,,6136266c04528ef90b95faa5,2026-03-17_12h20.37.460,kallum_motion_pilot_GIST_update_2,2026.1.1,Win32,60.24096386,6136266c04528ef90b95faa5,69b92ab4aef6dee357cd729a,69b92ae4e684930f88b65b4a,0.0304,0.0304,0,145,145,108,1,sevenfive,,,,,,,,,,,,,,,,,,,,,,,,,,,,,,,,,,,,,,,,,,,,,,,,,,,,,,,,,,,,,,,,,,,,,,,,,,,,,,,,,,,,,,,,,,,,,,,,,,,,,,,,,,,,,,,,,,,,,,,,,,,,,,,,,,,,,,,,,
,,6136266c04528ef90b95faa5,2026-03-17_12h20.37.460,kallum_motion_pilot_GIST_update_2,2026.1.1,Win32,60.24096386,6136266c04528ef90b95faa5,69b92ab4aef6dee357cd729a,69b92ae4e684930f88b65b4a,0.0305,0.0305,0,146,146,23,1,fourthree,,,,,,,,,,,,,,,,,,,,,,,,,,,,,,,,,,,,,,,,,,,,,,,,,,,,,,,,,,,,,,,,,,,,,,,,,,,,,,,,,,,,,,,,,,,,,,,,,,,,,,,,,,,,,,,,,,,,,,,,,,,,,,,,,,,,,,,,,
,,6136266c04528ef90b95faa5,2026-03-17_12h20.37.460,kallum_motion_pilot_GIST_update_2,2026.1.1,Win32,60.24096386,6136266c04528ef90b95faa5,69b92ab4aef6dee357cd729a,69b92ae4e684930f88b65b4a,0.0307,0.0307,0,147,147,76,1,threeone,,,,,,,,,,,,,,,,,,,,,,,,,,,,,,,,,,,,,,,,,,,,,,,,,,,,,,,,,,,,,,,,,,,,,,,,,,,,,,,,,,,,,,,,,,,,,,,,,,,,,,,,,,,,,,,,,,,,,,,,,,,,,,,,,,,,,,,,,
,,6136266c04528ef90b95faa5,2026-03-17_12h20.37.460,kallum_motion_pilot_GIST_update_2,2026.1.1,Win32,60.24096386,6136266c04528ef90b95faa5,69b92ab4aef6dee357cd729a,69b92ae4e684930f88b65b4a,0.0308,0.0308,0,148,148,67,1,twofour,,,,,,,,,,,,,,,,,,,,,,,,,,,,,,,,,,,,,,,,,,,,,,,,,,,,,,,,,,,,,,,,,,,,,,,,,,,,,,,,,,,,,,,,,,,,,,,,,,,,,,,,,,,,,,,,,,,,,,,,,,,,,,,,,,,,,,,,,
,,6136266c04528ef90b95faa5,2026-03-17_12h20.37.460,kallum_motion_pilot_GIST_update_2,2026.1.1,Win32,60.24096386,6136266c04528ef90b95faa5,69b92ab4aef6dee357cd729a,69b92ae4e684930f88b65b4a,0.0308,0.0308,0,149,149,63,1,fourthree,,,,,,,,,,,,,,,,,,,,,,,,,,,,,,,,,,,,,,,,,,,,,,,,,,,,,,,,,,,,,,,,,,,,,,,,,,,,,,,,,,,,,,,,,,,,,,,,,,,,,,,,,,,,,,,,,,,,,,,,,,,,,,,,,,,,,,,,,
,,6136266c04528ef90b95faa5,2026-03-17_12h20.37.460,kallum_motion_pilot_GIST_update_2,2026.1.1,Win32,60.24096386,6136266c04528ef90b95faa5,69b92ab4aef6dee357cd729a,69b92ae4e684930f88b65b4a,0.0309,0.0309,0,150,150,0,1,onetwo,,,,,,,,,,,,,,,,,,,,,,,,,,,,,,,,,,,,,,,,,,,,,,,,,,,,,,,,,,,,,,,,,,,,,,,,,,,,,,,,,,,,,,,,,,,,,,,,,,,,,,,,,,,,,,,,,,,,,,,,,,,,,,,,,,,,,,,,,
,,6136266c04528ef90b95faa5,2026-03-17_12h20.37.460,kallum_motion_pilot_GIST_update_2,2026.1.1,Win32,60.24096386,6136266c04528ef90b95faa5,69b92ab4aef6dee357cd729a,69b92ae4e684930f88b65b4a,0.031,0.031,0,151,151,25,1,onethree,,,,,,,,,,,,,,,,,,,,,,,,,,,,,,,,,,,,,,,,,,,,,,,,,,,,,,,,,,,,,,,,,,,,,,,,,,,,,,,,,,,,,,,,,,,,,,,,,,,,,,,,,,,,,,,,,,,,,,,,,,,,,,,,,,,,,,,,,
,,6136266c04528ef90b95faa5,2026-03-17_12h20.37.460,kallum_motion_pilot_GIST_update_2,2026.1.1,Win32,60.24096386,6136266c04528ef90b95faa5,69b92ab4aef6dee357cd729a,69b92ae4e684930f88b65b4a,0.0311,0.0311,0,152,152,37,1,threefour,,,,,,,,,,,,,,,,,,,,,,,,,,,,,,,,,,,,,,,,,,,,,,,,,,,,,,,,,,,,,,,,,,,,,,,,,,,,,,,,,,,,,,,,,,,,,,,,,,,,,,,,,,,,,,,,,,,,,,,,,,,,,,,,,,,,,,,,,
,,6136266c04528ef90b95faa5,2026-03-17_12h20.37.460,kallum_motion_pilot_GIST_update_2,2026.1.1,Win32,60.24096386,6136266c04528ef90b95faa5,69b92ab4aef6dee357cd729a,69b92ae4e684930f88b65b4a,0.0312,0.0312,0,153,153,161,1,fiveseven,,,,,,,,,,,,,,,,,,,,,,,,,,,,,,,,,,,,,,,,,,,,,,,,,,,,,,,,,,,,,,,,,,,,,,,,,,,,,,,,,,,,,,,,,,,,,,,,,,,,,,,,,,,,,,,,,,,,,,,,,,,,,,,,,,,,,,,,,
,,6136266c04528ef90b95faa5,2026-03-17_12h20.37.460,kallum_motion_pilot_GIST_update_2,2026.1.1,Win32,60.24096386,6136266c04528ef90b95faa5,69b92ab4aef6dee357cd729a,69b92ae4e684930f88b65b4a,0.0313,0.0313,0,154,154,12,1,threeone,,,,,,,,,,,,,,,,,,,,,,,,,,,,,,,,,,,,,,,,,,,,,,,,,,,,,,,,,,,,,,,,,,,,,,,,,,,,,,,,,,,,,,,,,,,,,,,,,,,,,,,,,,,,,,,,,,,,,,,,,,,,,,,,,,,,,,,,,
,,6136266c04528ef90b95faa5,2026-03-17_12h20.37.460,kallum_motion_pilot_GIST_update_2,2026.1.1,Win32,60.24096386,6136266c04528ef90b95faa5,69b92ab4aef6dee357cd729a,69b92ae4e684930f88b65b4a,0.0314,0.0314,0,155,155,107,1,sixeight,,,,,,,,,,,,,,,,,,,,,,,,,,,,,,,,,,,,,,,,,,,,,,,,,,,,,,,,,,,,,,,,,,,,,,,,,,,,,,,,,,,,,,,,,,,,,,,,,,,,,,,,,,,,,,,,,,,,,,,,,,,,,,,,,,,,,,,,,
,,6136266c04528ef90b95faa5,2026-03-17_12h20.37.460,kallum_motion_pilot_GIST_update_2,2026.1.1,Win32,60.24096386,6136266c04528ef90b95faa5,69b92ab4aef6dee357cd729a,69b92ae4e684930f88b65b4a,0.0315,0.0315,0,156,156,28,1,threeone,,,,,,,,,,,,,,,,,,,,,,,,,,,,,,,,,,,,,,,,,,,,,,,,,,,,,,,,,,,,,,,,,,,,,,,,,,,,,,,,,,,,,,,,,,,,,,,,,,,,,,,,,,,,,,,,,,,,,,,,,,,,,,,,,,,,,,,,,
,,6136266c04528ef90b95faa5,2026-03-17_12h20.37.460,kallum_motion_pilot_GIST_update_2,2026.1.1,Win32,60.24096386,6136266c04528ef90b95faa5,69b92ab4aef6dee357cd729a,69b92ae4e684930f88b65b4a,0.0316,0.0316,0,157,157,9,1,onethree,,,,,,,,,,,,,,,,,,,,,,,,,,,,,,,,,,,,,,,,,,,,,,,,,,,,,,,,,,,,,,,,,,,,,,,,,,,,,,,,,,,,,,,,,,,,,,,,,,,,,,,,,,,,,,,,,,,,,,,,,,,,,,,,,,,,,,,,,
,,6136266c04528ef90b95faa5,2026-03-17_12h20.37.460,kallum_motion_pilot_GIST_update_2,2026.1.1,Win32,60.24096386,6136266c04528ef90b95faa5,69b92ab4aef6dee357cd729a,69b92ae4e684930f88b65b4a,0.0317,0.0317,0,158,158,60,1,threeone,,,,,,,,,,,,,,,,,,,,,,,,,,,,,,,,,,,,,,,,,,,,,,,,,,,,,,,,,,,,,,,,,,,,,,,,,,,,,,,,,,,,,,,,,,,,,,,,,,,,,,,,,,,,,,,,,,,,,,,,,,,,,,,,,,,,,,,,,
,,6136266c04528ef90b95faa5,2026-03-17_12h20.37.460,kallum_motion_pilot_GIST_update_2,2026.1.1,Win32,60.24096386,6136266c04528ef90b95faa5,69b92ab4aef6dee357cd729a,69b92ae4e684930f88b65b4a,0.0318,0.0318,0,159,159,136,1,fivesix,,,,,,,,,,,,,,,,,,,,,,,,,,,,,,,,,,,,,,,,,,,,,,,,,,,,,,,,,,,,,,,,,,,,,,,,,,,,,,,,,,,,,,,,,,,,,,,,,,,,,,,,,,,,,,,,,,,,,,,,,,,,,,,,,,,,,,,,,
,,6136266c04528ef90b95faa5,2026-03-17_12h20.37.460,kallum_motion_pilot_GIST_update_2,2026.1.1,Win32,60.24096386,6136266c04528ef90b95faa5,69b92ab4aef6dee357cd729a,69b92ae4e684930f88b65b4a,0.0319,0.0319,0,160,160,103,1,eightseven,,,,,,,,,,,,,,,,,,,,,,,,,,,,,,,,,,,,,,,,,,,,,,,,,,,,,,,,,,,,,,,,,,,,,,,,,,,,,,,,,,,,,,,,,,,,,,,,,,,,,,,,,,,,,,,,,,,,,,,,,,,,,,,,,,,,,,,,,
,,6136266c04528ef90b95faa5,2026-03-17_12h20.37.460,kallum_motion_pilot_GIST_update_2,2026.1.1,Win32,60.24096386,6136266c04528ef90b95faa5,69b92ab4aef6dee357cd729a,69b92ae4e684930f88b65b4a,0.032,0.032,0,161,161,88,1,fivesix,,,,,,,,,,,,,,,,,,,,,,,,,,,,,,,,,,,,,,,,,,,,,,,,,,,,,,,,,,,,,,,,,,,,,,,,,,,,,,,,,,,,,,,,,,,,,,,,,,,,,,,,,,,,,,,,,,,,,,,,,,,,,,,,,,,,,,,,,
,,6136266c04528ef90b95faa5,2026-03-17_12h20.37.460,kallum_motion_pilot_GIST_update_2,2026.1.1,Win32,60.24096386,6136266c04528ef90b95faa5,69b92ab4aef6dee357cd729a,69b92ae4e684930f88b65b4a,0.0321,0.0321,1,0,162,41,1,onethree,,,,,,,,,,,,,,,,,,,,,,,,,,,,,,,,,,,,,,,,,,,,,,,,,,,,,,,,,,,,,,,,,,,,,,,,,,,,,,,,,,,,,,,,,,,,,,,,,,,,,,,,,,,,,,,,,,,,,,,,,,,,,,,,,,,,,,,,,
,,6136266c04528ef90b95faa5,2026-03-17_12h20.37.460,kallum_motion_pilot_GIST_update_2,2026.1.1,Win32,60.24096386,6136266c04528ef90b95faa5,69b92ab4aef6dee357cd729a,69b92ae4e684930f88b65b4a,0.0322,0.0322,1,1,163,17,1,onethree,,,,,,,,,,,,,,,,,,,,,,,,,,,,,,,,,,,,,,,,,,,,,,,,,,,,,,,,,,,,,,,,,,,,,,,,,,,,,,,,,,,,,,,,,,,,,,,,,,,,,,,,,,,,,,,,,,,,,,,,,,,,,,,,,,,,,,,,,
,,6136266c04528ef90b95faa5,2026-03-17_12h20.37.460,kallum_motion_pilot_GIST_update_2,2026.1.1,Win32,60.24096386,6136266c04528ef90b95faa5,69b92ab4aef6dee357cd729a,69b92ae4e684930f88b65b4a,0.0323,0.0323,1,2,164,16,1,onetwo,,,,,,,,,,,,,,,,,,,,,,,,,,,,,,,,,,,,,,,,,,,,,,,,,,,,,,,,,,,,,,,,,,,,,,,,,,,,,,,,,,,,,,,,,,,,,,,,,,,,,,,,,,,,,,,,,,,,,,,,,,,,,,,,,,,,,,,,,
,,6136266c04528ef90b95faa5,2026-03-17_12h20.37.460,kallum_motion_pilot_GIST_update_2,2026.1.1,Win32,60.24096386,6136266c04528ef90b95faa5,69b92ab4aef6dee357cd729a,69b92ae4e684930f88b65b4a,0.0324,0.0324,1,3,165,108,1,sevenfive,,,,,,,,,,,,,,,,,,,,,,,,,,,,,,,,,,,,,,,,,,,,,,,,,,,,,,,,,,,,,,,,,,,,,,,,,,,,,,,,,,,,,,,,,,,,,,,,,,,,,,,,,,,,,,,,,,,,,,,,,,,,,,,,,,,,,,,,,
,,6136266c04528ef90b95faa5,2026-03-17_12h20.37.460,kallum_motion_pilot_GIST_update_2,2026.1.1,Win32,60.24096386,6136266c04528ef90b95faa5,69b92ab4aef6dee357cd729a,69b92ae4e684930f88b65b4a,0.0325,0.0325,1,4,166,72,1,onetwo,,,,,,,,,,,,,,,,,,,,,,,,,,,,,,,,,,,,,,,,,,,,,,,,,,,,,,,,,,,,,,,,,,,,,,,,,,,,,,,,,,,,,,,,,,,,,,,,,,,,,,,,,,,,,,,,,,,,,,,,,,,,,,,,,,,,,,,,,
,,6136266c04528ef90b95faa5,2026-03-17_12h20.37.460,kallum_motion_pilot_GIST_update_2,2026.1.1,Win32,60.24096386,6136266c04528ef90b95faa5,69b92ab4aef6dee357cd729a,69b92ae4e684930f88b65b4a,0.0326,0.0326,1,5,167,148,1,sevenfive,,,,,,,,,,,,,,,,,,,,,,,,,,,,,,,,,,,,,,,,,,,,,,,,,,,,,,,,,,,,,,,,,,,,,,,,,,,,,,,,,,,,,,,,,,,,,,,,,,,,,,,,,,,,,,,,,,,,,,,,,,,,,,,,,,,,,,,,,
,,6136266c04528ef90b95faa5,2026-03-17_12h20.37.460,kallum_motion_pilot_GIST_update_2,2026.1.1,Win32,60.24096386,6136266c04528ef90b95faa5,69b92ab4aef6dee357cd729a,69b92ae4e684930f88b65b4a,0.0327,0.0327,1,6,168,51,1,twofour,,,,,,,,,,,,,,,,,,,,,,,,,,,,,,,,,,,,,,,,,,,,,,,,,,,,,,,,,,,,,,,,,,,,,,,,,,,,,,,,,,,,,,,,,,,,,,,,,,,,,,,,,,,,,,,,,,,,,,,,,,,,,,,,,,,,,,,,,
,,6136266c04528ef90b95faa5,2026-03-17_12h20.37.460,kallum_motion_pilot_GIST_update_2,2026.1.1,Win32,60.24096386,6136266c04528ef90b95faa5,69b92ab4aef6dee357cd729a,69b92ae4e684930f88b65b4a,0.0328,0.0328,1,7,169,69,1,threefour,,,,,,,,,,,,,,,,,,,,,,,,,,,,,,,,,,,,,,,,,,,,,,,,,,,,,,,,,,,,,,,,,,,,,,,,,,,,,,,,,,,,,,,,,,,,,,,,,,,,,,,,,,,,,,,,,,,,,,,,,,,,,,,,,,,,,,,,,
,,6136266c04528ef90b95faa5,2026-03-17_12h20.37.460,kallum_motion_pilot_GIST_update_2,2026.1.1,Win32,60.24096386,6136266c04528ef90b95faa5,69b92ab4aef6dee357cd729a,69b92ae4e684930f88b65b4a,0.0329,0.0329,1,8,170,50,1,twoone,,,,,,,,,,,,,,,,,,,,,,,,,,,,,,,,,,,,,,,,,,,,,,,,,,,,,,,,,,,,,,,,,,,,,,,,,,,,,,,,,,,,,,,,,,,,,,,,,,,,,,,,,,,,,,,,,,,,,,,,,,,,,,,,,,,,,,,,,
,,6136266c04528ef90b95faa5,2026-03-17_12h20.37.460,kallum_motion_pilot_GIST_update_2,2026.1.1,Win32,60.24096386,6136266c04528ef90b95faa5,69b92ab4aef6dee357cd729a,69b92ae4e684930f88b65b4a,0.033,0.033,1,9,171,93,1,seveneight,,,,,,,,,,,,,,,,,,,,,,,,,,,,,,,,,,,,,,,,,,,,,,,,,,,,,,,,,,,,,,,,,,,,,,,,,,,,,,,,,,,,,,,,,,,,,,,,,,,,,,,,,,,,,,,,,,,,,,,,,,,,,,,,,,,,,,,,,
,,6136266c04528ef90b95faa5,2026-03-17_12h20.37.460,kallum_motion_pilot_GIST_update_2,2026.1.1,Win32,60.24096386,6136266c04528ef90b95faa5,69b92ab4aef6dee357cd729a,69b92ae4e684930f88b65b4a,0.033,0.033,1,10,172,78,1,fourtwo,,,,,,,,,,,,,,,,,,,,,,,,,,,,,,,,,,,,,,,,,,,,,,,,,,,,,,,,,,,,,,,,,,,,,,,,,,,,,,,,,,,,,,,,,,,,,,,,,,,,,,,,,,,,,,,,,,,,,,,,,,,,,,,,,,,,,,,,,
,,6136266c04528ef90b95faa5,2026-03-17_12h20.37.460,kallum_motion_pilot_GIST_update_2,2026.1.1,Win32,60.24096386,6136266c04528ef90b95faa5,69b92ab4aef6dee357cd729a,69b92ae4e684930f88b65b4a,0.0332,0.0332,1,11,173,25,1,onethree,,,,,,,,,,,,,,,,,,,,,,,,,,,,,,,,,,,,,,,,,,,,,,,,,,,,,,,,,,,,,,,,,,,,,,,,,,,,,,,,,,,,,,,,,,,,,,,,,,,,,,,,,,,,,,,,,,,,,,,,,,,,,,,,,,,,,,,,,
,,6136266c04528ef90b95faa5,2026-03-17_12h20.37.460,kallum_motion_pilot_GIST_update_2,2026.1.1,Win32,60.24096386,6136266c04528ef90b95faa5,69b92ab4aef6dee357cd729a,69b92ae4e684930f88b65b4a,0.0333,0.0333,1,12,174,135,1,eightseven,,,,,,,,,,,,,,,,,,,,,,,,,,,,,,,,,,,,,,,,,,,,,,,,,,,,,,,,,,,,,,,,,,,,,,,,,,,,,,,,,,,,,,,,,,,,,,,,,,,,,,,,,,,,,,,,,,,,,,,,,,,,,,,,,,,,,,,,,
,,6136266c04528ef90b95faa5,2026-03-17_12h20.37.460,kallum_motion_pilot_GIST_update_2,2026.1.1,Win32,60.24096386,6136266c04528ef90b95faa5,69b92ab4aef6dee357cd729a,69b92ae4e684930f88b65b4a,0.0333,0.0333,1,13,175,117,1,seveneight,,,,,,,,,,,,,,,,,,,,,,,,,,,,,,,,,,,,,,,,,,,,,,,,,,,,,,,,,,,,,,,,,,,,,,,,,,,,,,,,,,,,,,,,,,,,,,,,,,,,,,,,,,,,,,,,,,,,,,,,,,,,,,,,,,,,,,,,,
,,6136266c04528ef90b95faa5,2026-03-17_12h20.37.460,kallum_motion_pilot_GIST_update_2,2026.1.1,Win32,60.24096386,6136266c04528ef90b95faa5,69b92ab4aef6dee357cd729a,69b92ae4e684930f88b65b4a,0.0335,0.0335,1,14,176,39,1,fourthree,,,,,,,,,,,,,,,,,,,,,,,,,,,,,,,,,,,,,,,,,,,,,,,,,,,,,,,,,,,,,,,,,,,,,,,,,,,,,,,,,,,,,,,,,,,,,,,,,,,,,,,,,,,,,,,,,,,,,,,,,,,,,,,,,,,,,,,,,
,,6136266c04528ef90b95faa5,2026-03-17_12h20.37.460,kallum_motion_pilot_GIST_update_2,2026.1.1,Win32,60.24096386,6136266c04528ef90b95faa5,69b92ab4aef6dee357cd729a,69b92ae4e684930f88b65b4a,0.0336,0.0336,1,15,177,116,1,sevenfive,,,,,,,,,,,,,,,,,,,,,,,,,,,,,,,,,,,,,,,,,,,,,,,,,,,,,,,,,,,,,,,,,,,,,,,,,,,,,,,,,,,,,,,,,,,,,,,,,,,,,,,,,,,,,,,,,,,,,,,,,,,,,,,,,,,,,,,,,
,,6136266c04528ef90b95faa5,2026-03-17_12h20.37.460,kallum_motion_pilot_GIST_update_2,2026.1.1,Win32,60.24096386,6136266c04528ef90b95faa5,69b92ab4aef6dee357cd729a,69b92ae4e684930f88b65b4a,0.0337,0.0337,1,16,178,97,1,fiveseven,,,,,,,,,,,,,,,,,,,,,,,,,,,,,,,,,,,,,,,,,,,,,,,,,,,,,,,,,,,,,,,,,,,,,,,,,,,,,,,,,,,,,,,,,,,,,,,,,,,,,,,,,,,,,,,,,,,,,,,,,,,,,,,,,,,,,,,,,
,,6136266c04528ef90b95faa5,2026-03-17_12h20.37.460,kallum_motion_pilot_GIST_update_2,2026.1.1,Win32,60.24096386,6136266c04528ef90b95faa5,69b92ab4aef6dee357cd729a,69b92ae4e684930f88b65b4a,0.0338,0.0338,1,17,179,110,1,eightsix,,,,,,,,,,,,,,,,,,,,,,,,,,,,,,,,,,,,,,,,,,,,,,,,,,,,,,,,,,,,,,,,,,,,,,,,,,,,,,,,,,,,,,,,,,,,,,,,,,,,,,,,,,,,,,,,,,,,,,,,,,,,,,,,,,,,,,,,,
,,6136266c04528ef90b95faa5,2026-03-17_12h20.37.460,kallum_motion_pilot_GIST_update_2,2026.1.1,Win32,60.24096386,6136266c04528ef90b95faa5,69b92ab4aef6dee357cd729a,69b92ae4e684930f88b65b4a,0.0338,0.0338,1,18,180,91,1,sixeight,,,,,,,,,,,,,,,,,,,,,,,,,,,,,,,,,,,,,,,,,,,,,,,,,,,,,,,,,,,,,,,,,,,,,,,,,,,,,,,,,,,,,,,,,,,,,,,,,,,,,,,,,,,,,,,,,,,,,,,,,,,,,,,,,,,,,,,,,
,,6136266c04528ef90b95faa5,2026-03-17_12h20.37.460,kallum_motion_pilot_GIST_update_2,2026.1.1,Win32,60.24096386,6136266c04528ef90b95faa5,69b92ab4aef6dee357cd729a,69b92ae4e684930f88b65b4a,0.0339,0.0339,1,19,181,90,1,sixfive,,,,,,,,,,,,,,,,,,,,,,,,,,,,,,,,,,,,,,,,,,,,,,,,,,,,,,,,,,,,,,,,,,,,,,,,,,,,,,,,,,,,,,,,,,,,,,,,,,,,,,,,,,,,,,,,,,,,,,,,,,,,,,,,,,,,,,,,,
,,6136266c04528ef90b95faa5,2026-03-17_12h20.37.460,kallum_motion_pilot_GIST_update_2,2026.1.1,Win32,60.24096386,6136266c04528ef90b95faa5,69b92ab4aef6dee357cd729a,69b92ae4e684930f88b65b4a,0.034,0.034,1,20,182,150,1,eightsix,,,,,,,,,,,,,,,,,,,,,,,,,,,,,,,,,,,,,,,,,,,,,,,,,,,,,,,,,,,,,,,,,,,,,,,,,,,,,,,,,,,,,,,,,,,,,,,,,,,,,,,,,,,,,,,,,,,,,,,,,,,,,,,,,,,,,,,,,
,,6136266c04528ef90b95faa5,2026-03-17_12h20.37.460,kallum_motion_pilot_GIST_update_2,2026.1.1,Win32,60.24096386,6136266c04528ef90b95faa5,69b92ab4aef6dee357cd729a,69b92ae4e684930f88b65b4a,0.0341,0.0341,1,21,183,127,1,eightseven,,,,,,,,,,,,,,,,,,,,,,,,,,,,,,,,,,,,,,,,,,,,,,,,,,,,,,,,,,,,,,,,,,,,,,,,,,,,,,,,,,,,,,,,,,,,,,,,,,,,,,,,,,,,,,,,,,,,,,,,,,,,,,,,,,,,,,,,,
,,6136266c04528ef90b95faa5,2026-03-17_12h20.37.460,kallum_motion_pilot_GIST_update_2,2026.1.1,Win32,60.24096386,6136266c04528ef90b95faa5,69b92ab4aef6dee357cd729a,69b92ae4e684930f88b65b4a,0.0343,0.0343,1,22,184,104,1,fivesix,,,,,,,,,,,,,,,,,,,,,,,,,,,,,,,,,,,,,,,,,,,,,,,,,,,,,,,,,,,,,,,,,,,,,,,,,,,,,,,,,,,,,,,,,,,,,,,,,,,,,,,,,,,,,,,,,,,,,,,,,,,,,,,,,,,,,,,,,
,,6136266c04528ef90b95faa5,2026-03-17_12h20.37.460,kallum_motion_pilot_GIST_update_2,2026.1.1,Win32,60.24096386,6136266c04528ef90b95faa5,69b92ab4aef6dee357cd729a,69b92ae4e684930f88b65b4a,0.0343,0.0343,1,23,185,33,1,onethree,,,,,,,,,,,,,,,,,,,,,,,,,,,,,,,,,,,,,,,,,,,,,,,,,,,,,,,,,,,,,,,,,,,,,,,,,,,,,,,,,,,,,,,,,,,,,,,,,,,,,,,,,,,,,,,,,,,,,,,,,,,,,,,,,,,,,,,,,
,,6136266c04528ef90b95faa5,2026-03-17_12h20.37.460,kallum_motion_pilot_GIST_update_2,2026.1.1,Win32,60.24096386,6136266c04528ef90b95faa5,69b92ab4aef6dee357cd729a,69b92ae4e684930f88b65b4a,0.0345,0.0345,1,24,186,37,1,threefour,,,,,,,,,,,,,,,,,,,,,,,,,,,,,,,,,,,,,,,,,,,,,,,,,,,,,,,,,,,,,,,,,,,,,,,,,,,,,,,,,,,,,,,,,,,,,,,,,,,,,,,,,,,,,,,,,,,,,,,,,,,,,,,,,,,,,,,,,
,,6136266c04528ef90b95faa5,2026-03-17_12h20.37.460,kallum_motion_pilot_GIST_update_2,2026.1.1,Win32,60.24096386,6136266c04528ef90b95faa5,69b92ab4aef6dee357cd729a,69b92ae4e684930f88b65b4a,0.0345,0.0345,1,25,187,147,1,sixeight,,,,,,,,,,,,,,,,,,,,,,,,,,,,,,,,,,,,,,,,,,,,,,,,,,,,,,,,,,,,,,,,,,,,,,,,,,,,,,,,,,,,,,,,,,,,,,,,,,,,,,,,,,,,,,,,,,,,,,,,,,,,,,,,,,,,,,,,,
,,6136266c04528ef90b95faa5,2026-03-17_12h20.37.460,kallum_motion_pilot_GIST_update_2,2026.1.1,Win32,60.24096386,6136266c04528ef90b95faa5,69b92ab4aef6dee357cd729a,69b92ae4e684930f88b65b4a,0.0347,0.0347,1,26,188,105,1,fiveseven,,,,,,,,,,,,,,,,,,,,,,,,,,,,,,,,,,,,,,,,,,,,,,,,,,,,,,,,,,,,,,,,,,,,,,,,,,,,,,,,,,,,,,,,,,,,,,,,,,,,,,,,,,,,,,,,,,,,,,,,,,,,,,,,,,,,,,,,,
,,6136266c04528ef90b95faa5,2026-03-17_12h20.37.460,kallum_motion_pilot_GIST_update_2,2026.1.1,Win32,60.24096386,6136266c04528ef90b95faa5,69b92ab4aef6dee357cd729a,69b92ae4e684930f88b65b4a,0.0347,0.0347,1,27,189,156,1,sevenfive,,,,,,,,,,,,,,,,,,,,,,,,,,,,,,,,,,,,,,,,,,,,,,,,,,,,,,,,,,,,,,,,,,,,,,,,,,,,,,,,,,,,,,,,,,,,,,,,,,,,,,,,,,,,,,,,,,,,,,,,,,,,,,,,,,,,,,,,,
,,6136266c04528ef90b95faa5,2026-03-17_12h20.37.460,kallum_motion_pilot_GIST_update_2,2026.1.1,Win32,60.24096386,6136266c04528ef90b95faa5,69b92ab4aef6dee357cd729a,69b92ae4e684930f88b65b4a,0.0349,0.0349,1,28,190,112,1,fivesix,,,,,,,,,,,,,,,,,,,,,,,,,,,,,,,,,,,,,,,,,,,,,,,,,,,,,,,,,,,,,,,,,,,,,,,,,,,,,,,,,,,,,,,,,,,,,,,,,,,,,,,,,,,,,,,,,,,,,,,,,,,,,,,,,,,,,,,,,
,,6136266c04528ef90b95faa5,2026-03-17_12h20.37.460,kallum_motion_pilot_GIST_update_2,2026.1.1,Win32,60.24096386,6136266c04528ef90b95faa5,69b92ab4aef6dee357cd729a,69b92ae4e684930f88b65b4a,0.035,0.035,1,29,191,73,1,onethree,,,,,,,,,,,,,,,,,,,,,,,,,,,,,,,,,,,,,,,,,,,,,,,,,,,,,,,,,,,,,,,,,,,,,,,,,,,,,,,,,,,,,,,,,,,,,,,,,,,,,,,,,,,,,,,,,,,,,,,,,,,,,,,,,,,,,,,,,
,,6136266c04528ef90b95faa5,2026-03-17_12h20.37.460,kallum_motion_pilot_GIST_update_2,2026.1.1,Win32,60.24096386,6136266c04528ef90b95faa5,69b92ab4aef6dee357cd729a,69b92ae4e684930f88b65b4a,0.0351,0.0351,1,30,192,119,1,eightseven,,,,,,,,,,,,,,,,,,,,,,,,,,,,,,,,,,,,,,,,,,,,,,,,,,,,,,,,,,,,,,,,,,,,,,,,,,,,,,,,,,,,,,,,,,,,,,,,,,,,,,,,,,,,,,,,,,,,,,,,,,,,,,,,,,,,,,,,,
,,6136266c04528ef90b95faa5,2026-03-17_12h20.37.460,kallum_motion_pilot_GIST_update_2,2026.1.1,Win32,60.24096386,6136266c04528ef90b95faa5,69b92ab4aef6dee357cd729a,69b92ae4e684930f88b65b4a,0.0352,0.0352,1,31,193,142,1,eightsix,,,,,,,,,,,,,,,,,,,,,,,,,,,,,,,,,,,,,,,,,,,,,,,,,,,,,,,,,,,,,,,,,,,,,,,,,,,,,,,,,,,,,,,,,,,,,,,,,,,,,,,,,,,,,,,,,,,,,,,,,,,,,,,,,,,,,,,,,
,,6136266c04528ef90b95faa5,2026-03-17_12h20.37.460,kallum_motion_pilot_GIST_update_2,2026.1.1,Win32,60.24096386,6136266c04528ef90b95faa5,69b92ab4aef6dee357cd729a,69b92ae4e684930f88b65b4a,0.0353,0.0353,1,32,194,62,1,fourtwo,,,,,,,,,,,,,,,,,,,,,,,,,,,,,,,,,,,,,,,,,,,,,,,,,,,,,,,,,,,,,,,,,,,,,,,,,,,,,,,,,,,,,,,,,,,,,,,,,,,,,,,,,,,,,,,,,,,,,,,,,,,,,,,,,,,,,,,,,
,,6136266c04528ef90b95faa5,2026-03-17_12h20.37.460,kallum_motion_pilot_GIST_update_2,2026.1.1,Win32,60.24096386,6136266c04528ef90b95faa5,69b92ab4aef6dee357cd729a,69b92ae4e684930f88b65b4a,0.0354,0.0354,1,33,195,15,1,fourthree,,,,,,,,,,,,,,,,,,,,,,,,,,,,,,,,,,,,,,,,,,,,,,,,,,,,,,,,,,,,,,,,,,,,,,,,,,,,,,,,,,,,,,,,,,,,,,,,,,,,,,,,,,,,,,,,,,,,,,,,,,,,,,,,,,,,,,,,,
,,6136266c04528ef90b95faa5,2026-03-17_12h20.37.460,kallum_motion_pilot_GIST_update_2,2026.1.1,Win32,60.24096386,6136266c04528ef90b95faa5,69b92ab4aef6dee357cd729a,69b92ae4e684930f88b65b4a,0.0354,0.0354,1,34,196,145,1,fiveseven,,,,,,,,,,,,,,,,,,,,,,,,,,,,,,,,,,,,,,,,,,,,,,,,,,,,,,,,,,,,,,,,,,,,,,,,,,,,,,,,,,,,,,,,,,,,,,,,,,,,,,,,,,,,,,,,,,,,,,,,,,,,,,,,,,,,,,,,,
,,6136266c04528ef90b95faa5,2026-03-17_12h20.37.460,kallum_motion_pilot_GIST_update_2,2026.1.1,Win32,60.24096386,6136266c04528ef90b95faa5,69b92ab4aef6dee357cd729a,69b92ae4e684930f88b65b4a,0.0356,0.0356,1,35,197,55,1,fourthree,,,,,,,,,,,,,,,,,,,,,,,,,,,,,,,,,,,,,,,,,,,,,,,,,,,,,,,,,,,,,,,,,,,,,,,,,,,,,,,,,,,,,,,,,,,,,,,,,,,,,,,,,,,,,,,,,,,,,,,,,,,,,,,,,,,,,,,,,
,,6136266c04528ef90b95faa5,2026-03-17_12h20.37.460,kallum_motion_pilot_GIST_update_2,2026.1.1,Win32,60.24096386,6136266c04528ef90b95faa5,69b92ab4aef6dee357cd729a,69b92ae4e684930f88b65b4a,0.0357,0.0357,1,36,198,40,1,onetwo,,,,,,,,,,,,,,,,,,,,,,,,,,,,,,,,,,,,,,,,,,,,,,,,,,,,,,,,,,,,,,,,,,,,,,,,,,,,,,,,,,,,,,,,,,,,,,,,,,,,,,,,,,,,,,,,,,,,,,,,,,,,,,,,,,,,,,,,,
,,6136266c04528ef90b95faa5,2026-03-17_12h20.37.460,kallum_motion_pilot_GIST_update_2,2026.1.1,Win32,60.24096386,6136266c04528ef90b95faa5,69b92ab4aef6dee357cd729a,69b92ae4e684930f88b65b4a,0.0358,0.0358,1,37,199,134,1,eightsix,,,,,,,,,,,,,,,,,,,,,,,,,,,,,,,,,,,,,,,,,,,,,,,,,,,,,,,,,,,,,,,,,,,,,,,,,,,,,,,,,,,,,,,,,,,,,,,,,,,,,,,,,,,,,,,,,,,,,,,,,,,,,,,,,,,,,,,,,
,,6136266c04528ef90b95faa5,2026-03-17_12h20.37.460,kallum_motion_pilot_GIST_update_2,2026.1.1,Win32,60.24096386,6136266c04528ef90b95faa5,69b92ab4aef6dee357cd729a,69b92ae4e684930f88b65b4a,0.0359,0.0359,1,38,200,54,1,fourtwo,,,,,,,,,,,,,,,,,,,,,,,,,,,,,,,,,,,,,,,,,,,,,,,,,,,,,,,,,,,,,,,,,,,,,,,,,,,,,,,,,,,,,,,,,,,,,,,,,,,,,,,,,,,,,,,,,,,,,,,,,,,,,,,,,,,,,,,,,
,,6136266c04528ef90b95faa5,2026-03-17_12h20.37.460,kallum_motion_pilot_GIST_update_2,2026.1.1,Win32,60.24096386,6136266c04528ef90b95faa5,69b92ab4aef6dee357cd729a,69b92ae4e684930f88b65b4a,0.0361,0.0361,1,39,201,3,1,twofour,,,,,,,,,,,,,,,,,,,,,,,,,,,,,,,,,,,,,,,,,,,,,,,,,,,,,,,,,,,,,,,,,,,,,,,,,,,,,,,,,,,,,,,,,,,,,,,,,,,,,,,,,,,,,,,,,,,,,,,,,,,,,,,,,,,,,,,,,
,,6136266c04528ef90b95faa5,2026-03-17_12h20.37.460,kallum_motion_pilot_GIST_update_2,2026.1.1,Win32,60.24096386,6136266c04528ef90b95faa5,69b92ab4aef6dee357cd729a,69b92ae4e684930f88b65b4a,0.0363,0.0363,1,40,202,141,1,seveneight,,,,,,,,,,,,,,,,,,,,,,,,,,,,,,,,,,,,,,,,,,,,,,,,,,,,,,,,,,,,,,,,,,,,,,,,,,,,,,,,,,,,,,,,,,,,,,,,,,,,,,,,,,,,,,,,,,,,,,,,,,,,,,,,,,,,,,,,,
,,6136266c04528ef90b95faa5,2026-03-17_12h20.37.460,kallum_motion_pilot_GIST_update_2,2026.1.1,Win32,60.24096386,6136266c04528ef90b95faa5,69b92ab4aef6dee357cd729a,69b92ae4e684930f88b65b4a,0.0364,0.0364,1,41,203,61,1,threefour,,,,,,,,,,,,,,,,,,,,,,,,,,,,,,,,,,,,,,,,,,,,,,,,,,,,,,,,,,,,,,,,,,,,,,,,,,,,,,,,,,,,,,,,,,,,,,,,,,,,,,,,,,,,,,,,,,,,,,,,,,,,,,,,,,,,,,,,,
,,6136266c04528ef90b95faa5,2026-03-17_12h20.37.460,kallum_motion_pilot_GIST_update_2,2026.1.1,Win32,60.24096386,6136266c04528ef90b95faa5,69b92ab4aef6dee357cd729a,69b92ae4e684930f88b65b4a,0.0364,0.0364,1,42,204,63,1,fourthree,,,,,,,,,,,,,,,,,,,,,,,,,,,,,,,,,,,,,,,,,,,,,,,,,,,,,,,,,,,,,,,,,,,,,,,,,,,,,,,,,,,,,,,,,,,,,,,,,,,,,,,,,,,,,,,,,,,,,,,,,,,,,,,,,,,,,,,,,
,,6136266c04528ef90b95faa5,2026-03-17_12h20.37.460,kallum_motion_pilot_GIST_update_2,2026.1.1,Win32,60.24096386,6136266c04528ef90b95faa5,69b92ab4aef6dee357cd729a,69b92ae4e684930f88b65b4a,0.0366,0.0366,1,43,205,101,1,seveneight,,,,,,,,,,,,,,,,,,,,,,,,,,,,,,,,,,,,,,,,,,,,,,,,,,,,,,,,,,,,,,,,,,,,,,,,,,,,,,,,,,,,,,,,,,,,,,,,,,,,,,,,,,,,,,,,,,,,,,,,,,,,,,,,,,,,,,,,,
,,6136266c04528ef90b95faa5,2026-03-17_12h20.37.460,kallum_motion_pilot_GIST_update_2,2026.1.1,Win32,60.24096386,6136266c04528ef90b95faa5,69b92ab4aef6dee357cd729a,69b92ae4e684930f88b65b4a,0.0367,0.0367,1,44,206,161,1,fiveseven,,,,,,,,,,,,,,,,,,,,,,,,,,,,,,,,,,,,,,,,,,,,,,,,,,,,,,,,,,,,,,,,,,,,,,,,,,,,,,,,,,,,,,,,,,,,,,,,,,,,,,,,,,,,,,,,,,,,,,,,,,,,,,,,,,,,,,,,,
,,6136266c04528ef90b95faa5,2026-03-17_12h20.37.460,kallum_motion_pilot_GIST_update_2,2026.1.1,Win32,60.24096386,6136266c04528ef90b95faa5,69b92ab4aef6dee357cd729a,69b92ae4e684930f88b65b4a,0.0368,0.0368,1,45,207,9,1,onethree,,,,,,,,,,,,,,,,,,,,,,,,,,,,,,,,,,,,,,,,,,,,,,,,,,,,,,,,,,,,,,,,,,,,,,,,,,,,,,,,,,,,,,,,,,,,,,,,,,,,,,,,,,,,,,,,,,,,,,,,,,,,,,,,,,,,,,,,,
,,6136266c04528ef90b95faa5,2026-03-17_12h20.37.460,kallum_motion_pilot_GIST_update_2,2026.1.1,Win32,60.24096386,6136266c04528ef90b95faa5,69b92ab4aef6dee357cd729a,69b92ae4e684930f88b65b4a,0.0369,0.0369,1,46,208,23,1,fourthree,,,,,,,,,,,,,,,,,,,,,,,,,,,,,,,,,,,,,,,,,,,,,,,,,,,,,,,,,,,,,,,,,,,,,,,,,,,,,,,,,,,,,,,,,,,,,,,,,,,,,,,,,,,,,,,,,,,,,,,,,,,,,,,,,,,,,,,,,
,,6136266c04528ef90b95faa5,2026-03-17_12h20.37.460,kallum_motion_pilot_GIST_update_2,2026.1.1,Win32,60.24096386,6136266c04528ef90b95faa5,69b92ab4aef6dee357cd729a,69b92ae4e684930f88b65b4a,0.037,0.037,1,47,209,38,1,fourtwo,,,,,,,,,,,,,,,,,,,,,,,,,,,,,,,,,,,,,,,,,,,,,,,,,,,,,,,,,,,,,,,,,,,,,,,,,,,,,,,,,,,,,,,,,,,,,,,,,,,,,,,,,,,,,,,,,,,,,,,,,,,,,,,,,,,,,,,,,
,,6136266c04528ef90b95faa5,2026-03-17_12h20.37.460,kallum_motion_pilot_GIST_update_2,2026.1.1,Win32,60.24096386,6136266c04528ef90b95faa5,69b92ab4aef6dee357cd729a,69b92ae4e684930f88b65b4a,0.0371,0.0371,1,48,210,64,1,onetwo,,,,,,,,,,,,,,,,,,,,,,,,,,,,,,,,,,,,,,,,,,,,,,,,,,,,,,,,,,,,,,,,,,,,,,,,,,,,,,,,,,,,,,,,,,,,,,,,,,,,,,,,,,,,,,,,,,,,,,,,,,,,,,,,,,,,,,,,,
,,6136266c04528ef90b95faa5,2026-03-17_12h20.37.460,kallum_motion_pilot_GIST_update_2,2026.1.1,Win32,60.24096386,6136266c04528ef90b95faa5,69b92ab4aef6dee357cd729a,69b92ae4e684930f88b65b4a,0.0372,0.0373,1,49,211,19,1,twofour,,,,,,,,,,,,,,,,,,,,,,,,,,,,,,,,,,,,,,,,,,,,,,,,,,,,,,,,,,,,,,,,,,,,,,,,,,,,,,,,,,,,,,,,,,,,,,,,,,,,,,,,,,,,,,,,,,,,,,,,,,,,,,,,,,,,,,,,,
,,6136266c04528ef90b95faa5,2026-03-17_12h20.37.460,kallum_motion_pilot_GIST_update_2,2026.1.1,Win32,60.24096386,6136266c04528ef90b95faa5,69b92ab4aef6dee357cd729a,69b92ae4e684930f88b65b4a,0.0373,0.0373,1,50,212,32,1,onetwo,,,,,,,,,,,,,,,,,,,,,,,,,,,,,,,,,,,,,,,,,,,,,,,,,,,,,,,,,,,,,,,,,,,,,,,,,,,,,,,,,,,,,,,,,,,,,,,,,,,,,,,,,,,,,,,,,,,,,,,,,,,,,,,,,,,,,,,,,
,,6136266c04528ef90b95faa5,2026-03-17_12h20.37.460,kallum_motion_pilot_GIST_update_2,2026.1.1,Win32,60.24096386,6136266c04528ef90b95faa5,69b92ab4aef6dee357cd729a,69b92ae4e684930f88b65b4a,0.0374,0.0374,1,51,213,76,1,threeone,,,,,,,,,,,,,,,,,,,,,,,,,,,,,,,,,,,,,,,,,,,,,,,,,,,,,,,,,,,,,,,,,,,,,,,,,,,,,,,,,,,,,,,,,,,,,,,,,,,,,,,,,,,,,,,,,,,,,,,,,,,,,,,,,,,,,,,,,
,,6136266c04528ef90b95faa5,2026-03-17_12h20.37.460,kallum_motion_pilot_GIST_update_2,2026.1.1,Win32,60.24096386,6136266c04528ef90b95faa5,69b92ab4aef6dee357cd729a,69b92ae4e684930f88b65b4a,0.0375,0.0375,1,52,214,98,1,sixfive,,,,,,,,,,,,,,,,,,,,,,,,,,,,,,,,,,,,,,,,,,,,,,,,,,,,,,,,,,,,,,,,,,,,,,,,,,,,,,,,,,,,,,,,,,,,,,,,,,,,,,,,,,,,,,,,,,,,,,,,,,,,,,,,,,,,,,,,,
,,6136266c04528ef90b95faa5,2026-03-17_12h20.37.460,kallum_motion_pilot_GIST_update_2,2026.1.1,Win32,60.24096386,6136266c04528ef90b95faa5,69b92ab4aef6dee357cd729a,69b92ae4e684930f88b65b4a,0.0376,0.0376,1,53,215,132,1,sevenfive,,,,,,,,,,,,,,,,,,,,,,,,,,,,,,,,,,,,,,,,,,,,,,,,,,,,,,,,,,,,,,,,,,,,,,,,,,,,,,,,,,,,,,,,,,,,,,,,,,,,,,,,,,,,,,,,,,,,,,,,,,,,,,,,,,,,,,,,,
,,6136266c04528ef90b95faa5,2026-03-17_12h20.37.460,kallum_motion_pilot_GIST_update_2,2026.1.1,Win32,60.24096386,6136266c04528ef90b95faa5,69b92ab4aef6dee357cd729a,69b92ae4e684930f88b65b4a,0.0377,0.0377,1,54,216,100,1,sevenfive,,,,,,,,,,,,,,,,,,,,,,,,,,,,,,,,,,,,,,,,,,,,,,,,,,,,,,,,,,,,,,,,,,,,,,,,,,,,,,,,,,,,,,,,,,,,,,,,,,,,,,,,,,,,,,,,,,,,,,,,,,,,,,,,,,,,,,,,,
,,6136266c04528ef90b95faa5,2026-03-17_12h20.37.460,kallum_motion_pilot_GIST_update_2,2026.1.1,Win32,60.24096386,6136266c04528ef90b95faa5,69b92ab4aef6dee357cd729a,69b92ae4e684930f88b65b4a,0.0378,0.0378,1,55,217,7,1,fourthree,,,,,,,,,,,,,,,,,,,,,,,,,,,,,,,,,,,,,,,,,,,,,,,,,,,,,,,,,,,,,,,,,,,,,,,,,,,,,,,,,,,,,,,,,,,,,,,,,,,,,,,,,,,,,,,,,,,,,,,,,,,,,,,,,,,,,,,,,
,,6136266c04528ef90b95faa5,2026-03-17_12h20.37.460,kallum_motion_pilot_GIST_update_2,2026.1.1,Win32,60.24096386,6136266c04528ef90b95faa5,69b92ab4aef6dee357cd729a,69b92ae4e684930f88b65b4a,0.0379,0.0379,1,56,218,48,1,onetwo,,,,,,,,,,,,,,,,,,,,,,,,,,,,,,,,,,,,,,,,,,,,,,,,,,,,,,,,,,,,,,,,,,,,,,,,,,,,,,,,,,,,,,,,,,,,,,,,,,,,,,,,,,,,,,,,,,,,,,,,,,,,,,,,,,,,,,,,,
,,6136266c04528ef90b95faa5,2026-03-17_12h20.37.460,kallum_motion_pilot_GIST_update_2,2026.1.1,Win32,60.24096386,6136266c04528ef90b95faa5,69b92ab4aef6dee357cd729a,69b92ae4e684930f88b65b4a,0.0381,0.0381,1,57,219,123,1,sixeight,,,,,,,,,,,,,,,,,,,,,,,,,,,,,,,,,,,,,,,,,,,,,,,,,,,,,,,,,,,,,,,,,,,,,,,,,,,,,,,,,,,,,,,,,,,,,,,,,,,,,,,,,,,,,,,,,,,,,,,,,,,,,,,,,,,,,,,,,
,,6136266c04528ef90b95faa5,2026-03-17_12h20.37.460,kallum_motion_pilot_GIST_update_2,2026.1.1,Win32,60.24096386,6136266c04528ef90b95faa5,69b92ab4aef6dee357cd729a,69b92ae4e684930f88b65b4a,0.0381,0.0381,1,58,220,12,1,threeone,,,,,,,,,,,,,,,,,,,,,,,,,,,,,,,,,,,,,,,,,,,,,,,,,,,,,,,,,,,,,,,,,,,,,,,,,,,,,,,,,,,,,,,,,,,,,,,,,,,,,,,,,,,,,,,,,,,,,,,,,,,,,,,,,,,,,,,,,
,,6136266c04528ef90b95faa5,2026-03-17_12h20.37.460,kallum_motion_pilot_GIST_update_2,2026.1.1,Win32,60.24096386,6136266c04528ef90b95faa5,69b92ab4aef6dee357cd729a,69b92ae4e684930f88b65b4a,0.0382,0.0382,1,59,221,36,1,threeone,,,,,,,,,,,,,,,,,,,,,,,,,,,,,,,,,,,,,,,,,,,,,,,,,,,,,,,,,,,,,,,,,,,,,,,,,,,,,,,,,,,,,,,,,,,,,,,,,,,,,,,,,,,,,,,,,,,,,,,,,,,,,,,,,,,,,,,,,
,,6136266c04528ef90b95faa5,2026-03-17_12h20.37.460,kallum_motion_pilot_GIST_update_2,2026.1.1,Win32,60.24096386,6136266c04528ef90b95faa5,69b92ab4aef6dee357cd729a,69b92ae4e684930f88b65b4a,0.0384,0.0384,1,60,222,125,1,seveneight,,,,,,,,,,,,,,,,,,,,,,,,,,,,,,,,,,,,,,,,,,,,,,,,,,,,,,,,,,,,,,,,,,,,,,,,,,,,,,,,,,,,,,,,,,,,,,,,,,,,,,,,,,,,,,,,,,,,,,,,,,,,,,,,,,,,,,,,,
,,6136266c04528ef90b95faa5,2026-03-17_12h20.37.460,kallum_motion_pilot_GIST_update_2,2026.1.1,Win32,60.24096386,6136266c04528ef90b95faa5,69b92ab4aef6dee357cd729a,69b92ae4e684930f88b65b4a,0.0384,0.0384,1,61,223,122,1,sixfive,,,,,,,,,,,,,,,,,,,,,,,,,,,,,,,,,,,,,,,,,,,,,,,,,,,,,,,,,,,,,,,,,,,,,,,,,,,,,,,,,,,,,,,,,,,,,,,,,,,,,,,,,,,,,,,,,,,,,,,,,,,,,,,,,,,,,,,,,
,,6136266c04528ef90b95faa5,2026-03-17_12h20.37.460,kallum_motion_pilot_GIST_update_2,2026.1.1,Win32,60.24096386,6136266c04528ef90b95faa5,69b92ab4aef6dee357cd729a,69b92ae4e684930f88b65b4a,0.0386,0.0386,1,62,224,85,1,seveneight,,,,,,,,,,,,,,,,,,,,,,,,,,,,,,,,,,,,,,,,,,,,,,,,,,,,,,,,,,,,,,,,,,,,,,,,,,,,,,,,,,,,,,,,,,,,,,,,,,,,,,,,,,,,,,,,,,,,,,,,,,,,,,,,,,,,,,,,,
,,6136266c04528ef90b95faa5,2026-03-17_12h20.37.460,kallum_motion_pilot_GIST_update_2,2026.1.1,Win32,60.24096386,6136266c04528ef90b95faa5,69b92ab4aef6dee357cd729a,69b92ae4e684930f88b65b4a,0.0386,0.0386,1,63,225,89,1,fiveseven,,,,,,,,,,,,,,,,,,,,,,,,,,,,,,,,,,,,,,,,,,,,,,,,,,,,,,,,,,,,,,,,,,,,,,,,,,,,,,,,,,,,,,,,,,,,,,,,,,,,,,,,,,,,,,,,,,,,,,,,,,,,,,,,,,,,,,,,,
,,6136266c04528ef90b95faa5,2026-03-17_12h20.37.460,kallum_motion_pilot_GIST_update_2,2026.1.1,Win32,60.24096386,6136266c04528ef90b95faa5,69b92ab4aef6dee357cd729a,69b92ae4e684930f88b65b4a,0.0388,0.0388,1,64,226,153,1,fiveseven,,,,,,,,,,,,,,,,,,,,,,,,,,,,,,,,,,,,,,,,,,,,,,,,,,,,,,,,,,,,,,,,,,,,,,,,,,,,,,,,,,,,,,,,,,,,,,,,,,,,,,,,,,,,,,,,,,,,,,,,,,,,,,,,,,,,,,,,,
,,6136266c04528ef90b95faa5,2026-03-17_12h20.37.460,kallum_motion_pilot_GIST_update_2,2026.1.1,Win32,60.24096386,6136266c04528ef90b95faa5,69b92ab4aef6dee357cd729a,69b92ae4e684930f88b65b4a,0.0388,0.0388,1,65,227,103,1,eightseven,,,,,,,,,,,,,,,,,,,,,,,,,,,,,,,,,,,,,,,,,,,,,,,,,,,,,,,,,,,,,,,,,,,,,,,,,,,,,,,,,,,,,,,,,,,,,,,,,,,,,,,,,,,,,,,,,,,,,,,,,,,,,,,,,,,,,,,,,
,,6136266c04528ef90b95faa5,2026-03-17_12h20.37.460,kallum_motion_pilot_GIST_update_2,2026.1.1,Win32,60.24096386,6136266c04528ef90b95faa5,69b92ab4aef6dee357cd729a,69b92ae4e684930f88b65b4a,0.039,0.039,1,66,228,2,1,twoone,,,,,,,,,,,,,,,,,,,,,,,,,,,,,,,,,,,,,,,,,,,,,,,,,,,,,,,,,,,,,,,,,,,,,,,,,,,,,,,,,,,,,,,,,,,,,,,,,,,,,,,,,,,,,,,,,,,,,,,,,,,,,,,,,,,,,,,,,
,,6136266c04528ef90b95faa5,2026-03-17_12h20.37.460,kallum_motion_pilot_GIST_update_2,2026.1.1,Win32,60.24096386,6136266c04528ef90b95faa5,69b92ab4aef6dee357cd729a,69b92ae4e684930f88b65b4a,0.0391,0.0391,1,67,229,42,1,twoone,,,,,,,,,,,,,,,,,,,,,,,,,,,,,,,,,,,,,,,,,,,,,,,,,,,,,,,,,,,,,,,,,,,,,,,,,,,,,,,,,,,,,,,,,,,,,,,,,,,,,,,,,,,,,,,,,,,,,,,,,,,,,,,,,,,,,,,,,
,,6136266c04528ef90b95faa5,2026-03-17_12h20.37.460,kallum_motion_pilot_GIST_update_2,2026.1.1,Win32,60.24096386,6136266c04528ef90b95faa5,69b92ab4aef6dee357cd729a,69b92ae4e684930f88b65b4a,0.0392,0.0392,1,68,230,79,1,eightseven,,,,,,,,,,,,,,,,,,,,,,,,,,,,,,,,,,,,,,,,,,,,,,,,,,,,,,,,,,,,,,,,,,,,,,,,,,,,,,,,,,,,,,,,,,,,,,,,,,,,,,,,,,,,,,,,,,,,,,,,,,,,,,,,,,,,,,,,,
,,6136266c04528ef90b95faa5,2026-03-17_12h20.37.460,kallum_motion_pilot_GIST_update_2,2026.1.1,Win32,60.24096386,6136266c04528ef90b95faa5,69b92ab4aef6dee357cd729a,69b92ae4e684930f88b65b4a,0.0393,0.0393,1,69,231,74,1,twoone,,,,,,,,,,,,,,,,,,,,,,,,,,,,,,,,,,,,,,,,,,,,,,,,,,,,,,,,,,,,,,,,,,,,,,,,,,,,,,,,,,,,,,,,,,,,,,,,,,,,,,,,,,,,,,,,,,,,,,,,,,,,,,,,,,,,,,,,,
,,6136266c04528ef90b95faa5,2026-03-17_12h20.37.460,kallum_motion_pilot_GIST_update_2,2026.1.1,Win32,60.24096386,6136266c04528ef90b95faa5,69b92ab4aef6dee357cd729a,69b92ae4e684930f88b65b4a,0.0394,0.0394,1,70,232,146,1,sixfive,,,,,,,,,,,,,,,,,,,,,,,,,,,,,,,,,,,,,,,,,,,,,,,,,,,,,,,,,,,,,,,,,,,,,,,,,,,,,,,,,,,,,,,,,,,,,,,,,,,,,,,,,,,,,,,,,,,,,,,,,,,,,,,,,,,,,,,,,
,,6136266c04528ef90b95faa5,2026-03-17_12h20.37.460,kallum_motion_pilot_GIST_update_2,2026.1.1,Win32,60.24096386,6136266c04528ef90b95faa5,69b92ab4aef6dee357cd729a,69b92ae4e684930f88b65b4a,0.0395,0.0395,1,71,233,160,1,fivesix,,,,,,,,,,,,,,,,,,,,,,,,,,,,,,,,,,,,,,,,,,,,,,,,,,,,,,,,,,,,,,,,,,,,,,,,,,,,,,,,,,,,,,,,,,,,,,,,,,,,,,,,,,,,,,,,,,,,,,,,,,,,,,,,,,,,,,,,,
,,6136266c04528ef90b95faa5,2026-03-17_12h20.37.460,kallum_motion_pilot_GIST_update_2,2026.1.1,Win32,60.24096386,6136266c04528ef90b95faa5,69b92ab4aef6dee357cd729a,69b92ae4e684930f88b65b4a,0.0396,0.0396,1,72,234,102,1,eightsix,,,,,,,,,,,,,,,,,,,,,,,,,,,,,,,,,,,,,,,,,,,,,,,,,,,,,,,,,,,,,,,,,,,,,,,,,,,,,,,,,,,,,,,,,,,,,,,,,,,,,,,,,,,,,,,,,,,,,,,,,,,,,,,,,,,,,,,,,
,,6136266c04528ef90b95faa5,2026-03-17_12h20.37.460,kallum_motion_pilot_GIST_update_2,2026.1.1,Win32,60.24096386,6136266c04528ef90b95faa5,69b92ab4aef6dee357cd729a,69b92ae4e684930f88b65b4a,0.0398,0.0398,1,73,235,14,1,fourtwo,,,,,,,,,,,,,,,,,,,,,,,,,,,,,,,,,,,,,,,,,,,,,,,,,,,,,,,,,,,,,,,,,,,,,,,,,,,,,,,,,,,,,,,,,,,,,,,,,,,,,,,,,,,,,,,,,,,,,,,,,,,,,,,,,,,,,,,,,
,,6136266c04528ef90b95faa5,2026-03-17_12h20.37.460,kallum_motion_pilot_GIST_update_2,2026.1.1,Win32,60.24096386,6136266c04528ef90b95faa5,69b92ab4aef6dee357cd729a,69b92ae4e684930f88b65b4a,0.0399,0.0399,1,74,236,87,1,eightseven,,,,,,,,,,,,,,,,,,,,,,,,,,,,,,,,,,,,,,,,,,,,,,,,,,,,,,,,,,,,,,,,,,,,,,,,,,,,,,,,,,,,,,,,,,,,,,,,,,,,,,,,,,,,,,,,,,,,,,,,,,,,,,,,,,,,,,,,,
,,6136266c04528ef90b95faa5,2026-03-17_12h20.37.460,kallum_motion_pilot_GIST_update_2,2026.1.1,Win32,60.24096386,6136266c04528ef90b95faa5,69b92ab4aef6dee357cd729a,69b92ae4e684930f88b65b4a,0.04,0.04,1,75,237,59,1,twofour,,,,,,,,,,,,,,,,,,,,,,,,,,,,,,,,,,,,,,,,,,,,,,,,,,,,,,,,,,,,,,,,,,,,,,,,,,,,,,,,,,,,,,,,,,,,,,,,,,,,,,,,,,,,,,,,,,,,,,,,,,,,,,,,,,,,,,,,,
,,6136266c04528ef90b95faa5,2026-03-17_12h20.37.460,kallum_motion_pilot_GIST_update_2,2026.1.1,Win32,60.24096386,6136266c04528ef90b95faa5,69b92ab4aef6dee357cd729a,69b92ae4e684930f88b65b4a,0.04,0.04,1,76,238,46,1,fourtwo,,,,,,,,,,,,,,,,,,,,,,,,,,,,,,,,,,,,,,,,,,,,,,,,,,,,,,,,,,,,,,,,,,,,,,,,,,,,,,,,,,,,,,,,,,,,,,,,,,,,,,,,,,,,,,,,,,,,,,,,,,,,,,,,,,,,,,,,,
,,6136266c04528ef90b95faa5,2026-03-17_12h20.37.460,kallum_motion_pilot_GIST_update_2,2026.1.1,Win32,60.24096386,6136266c04528ef90b95faa5,69b92ab4aef6dee357cd729a,69b92ae4e684930f88b65b4a,0.0401,0.0401,1,77,239,34,1,twoone,,,,,,,,,,,,,,,,,,,,,,,,,,,,,,,,,,,,,,,,,,,,,,,,,,,,,,,,,,,,,,,,,,,,,,,,,,,,,,,,,,,,,,,,,,,,,,,,,,,,,,,,,,,,,,,,,,,,,,,,,,,,,,,,,,,,,,,,,
,,6136266c04528ef90b95faa5,2026-03-17_12h20.37.460,kallum_motion_pilot_GIST_update_2,2026.1.1,Win32,60.24096386,6136266c04528ef90b95faa5,69b92ab4aef6dee357cd729a,69b92ae4e684930f88b65b4a,0.0402,0.0402,1,78,240,86,1,eightsix,,,,,,,,,,,,,,,,,,,,,,,,,,,,,,,,,,,,,,,,,,,,,,,,,,,,,,,,,,,,,,,,,,,,,,,,,,,,,,,,,,,,,,,,,,,,,,,,,,,,,,,,,,,,,,,,,,,,,,,,,,,,,,,,,,,,,,,,,
,,6136266c04528ef90b95faa5,2026-03-17_12h20.37.460,kallum_motion_pilot_GIST_update_2,2026.1.1,Win32,60.24096386,6136266c04528ef90b95faa5,69b92ab4aef6dee357cd729a,69b92ae4e684930f88b65b4a,0.0404,0.0404,1,79,241,13,1,threefour,,,,,,,,,,,,,,,,,,,,,,,,,,,,,,,,,,,,,,,,,,,,,,,,,,,,,,,,,,,,,,,,,,,,,,,,,,,,,,,,,,,,,,,,,,,,,,,,,,,,,,,,,,,,,,,,,,,,,,,,,,,,,,,,,,,,,,,,,
,,6136266c04528ef90b95faa5,2026-03-17_12h20.37.460,kallum_motion_pilot_GIST_update_2,2026.1.1,Win32,60.24096386,6136266c04528ef90b95faa5,69b92ab4aef6dee357cd729a,69b92ae4e684930f88b65b4a,0.0404,0.0404,1,80,242,49,1,onethree,,,,,,,,,,,,,,,,,,,,,,,,,,,,,,,,,,,,,,,,,,,,,,,,,,,,,,,,,,,,,,,,,,,,,,,,,,,,,,,,,,,,,,,,,,,,,,,,,,,,,,,,,,,,,,,,,,,,,,,,,,,,,,,,,,,,,,,,,
,,6136266c04528ef90b95faa5,2026-03-17_12h20.37.460,kallum_motion_pilot_GIST_update_2,2026.1.1,Win32,60.24096386,6136266c04528ef90b95faa5,69b92ab4aef6dee357cd729a,69b92ae4e684930f88b65b4a,0.0406,0.0406,1,81,243,22,1,fourtwo,,,,,,,,,,,,,,,,,,,,,,,,,,,,,,,,,,,,,,,,,,,,,,,,,,,,,,,,,,,,,,,,,,,,,,,,,,,,,,,,,,,,,,,,,,,,,,,,,,,,,,,,,,,,,,,,,,,,,,,,,,,,,,,,,,,,,,,,,
,,6136266c04528ef90b95faa5,2026-03-17_12h20.37.460,kallum_motion_pilot_GIST_update_2,2026.1.1,Win32,60.24096386,6136266c04528ef90b95faa5,69b92ab4aef6dee357cd729a,69b92ae4e684930f88b65b4a,0.0406,0.0406,1,82,244,8,1,onetwo,,,,,,,,,,,,,,,,,,,,,,,,,,,,,,,,,,,,,,,,,,,,,,,,,,,,,,,,,,,,,,,,,,,,,,,,,,,,,,,,,,,,,,,,,,,,,,,,,,,,,,,,,,,,,,,,,,,,,,,,,,,,,,,,,,,,,,,,,
,,6136266c04528ef90b95faa5,2026-03-17_12h20.37.460,kallum_motion_pilot_GIST_update_2,2026.1.1,Win32,60.24096386,6136266c04528ef90b95faa5,69b92ab4aef6dee357cd729a,69b92ae4e684930f88b65b4a,0.0407,0.0407,1,83,245,53,1,threefour,,,,,,,,,,,,,,,,,,,,,,,,,,,,,,,,,,,,,,,,,,,,,,,,,,,,,,,,,,,,,,,,,,,,,,,,,,,,,,,,,,,,,,,,,,,,,,,,,,,,,,,,,,,,,,,,,,,,,,,,,,,,,,,,,,,,,,,,,
,,6136266c04528ef90b95faa5,2026-03-17_12h20.37.460,kallum_motion_pilot_GIST_update_2,2026.1.1,Win32,60.24096386,6136266c04528ef90b95faa5,69b92ab4aef6dee357cd729a,69b92ae4e684930f88b65b4a,0.0408,0.0408,1,84,246,44,1,threeone,,,,,,,,,,,,,,,,,,,,,,,,,,,,,,,,,,,,,,,,,,,,,,,,,,,,,,,,,,,,,,,,,,,,,,,,,,,,,,,,,,,,,,,,,,,,,,,,,,,,,,,,,,,,,,,,,,,,,,,,,,,,,,,,,,,,,,,,,
,,6136266c04528ef90b95faa5,2026-03-17_12h20.37.460,kallum_motion_pilot_GIST_update_2,2026.1.1,Win32,60.24096386,6136266c04528ef90b95faa5,69b92ab4aef6dee357cd729a,69b92ae4e684930f88b65b4a,0.0409,0.0409,1,85,247,137,1,fiveseven,,,,,,,,,,,,,,,,,,,,,,,,,,,,,,,,,,,,,,,,,,,,,,,,,,,,,,,,,,,,,,,,,,,,,,,,,,,,,,,,,,,,,,,,,,,,,,,,,,,,,,,,,,,,,,,,,,,,,,,,,,,,,,,,,,,,,,,,,
,,6136266c04528ef90b95faa5,2026-03-17_12h20.37.460,kallum_motion_pilot_GIST_update_2,2026.1.1,Win32,60.24096386,6136266c04528ef90b95faa5,69b92ab4aef6dee357cd729a,69b92ae4e684930f88b65b4a,0.0411,0.0411,1,86,248,18,1,twoone,,,,,,,,,,,,,,,,,,,,,,,,,,,,,,,,,,,,,,,,,,,,,,,,,,,,,,,,,,,,,,,,,,,,,,,,,,,,,,,,,,,,,,,,,,,,,,,,,,,,,,,,,,,,,,,,,,,,,,,,,,,,,,,,,,,,,,,,,
,,6136266c04528ef90b95faa5,2026-03-17_12h20.37.460,kallum_motion_pilot_GIST_update_2,2026.1.1,Win32,60.24096386,6136266c04528ef90b95faa5,69b92ab4aef6dee357cd729a,69b92ae4e684930f88b65b4a,0.0412,0.0412,1,87,249,10,1,twoone,,,,,,,,,,,,,,,,,,,,,,,,,,,,,,,,,,,,,,,,,,,,,,,,,,,,,,,,,,,,,,,,,,,,,,,,,,,,,,,,,,,,,,,,,,,,,,,,,,,,,,,,,,,,,,,,,,,,,,,,,,,,,,,,,,,,,,,,,
,,6136266c04528ef90b95faa5,2026-03-17_12h20.37.460,kallum_motion_pilot_GIST_update_2,2026.1.1,Win32,60.24096386,6136266c04528ef90b95faa5,69b92ab4aef6dee357cd729a,69b92ae4e684930f88b65b4a,0.0413,0.0413,1,88,250,81,1,fiveseven,,,,,,,,,,,,,,,,,,,,,,,,,,,,,,,,,,,,,,,,,,,,,,,,,,,,,,,,,,,,,,,,,,,,,,,,,,,,,,,,,,,,,,,,,,,,,,,,,,,,,,,,,,,,,,,,,,,,,,,,,,,,,,,,,,,,,,,,,
,,6136266c04528ef90b95faa5,2026-03-17_12h20.37.460,kallum_motion_pilot_GIST_update_2,2026.1.1,Win32,60.24096386,6136266c04528ef90b95faa5,69b92ab4aef6dee357cd729a,69b92ae4e684930f88b65b4a,0.0414,0.0414,1,89,251,77,1,threefour,,,,,,,,,,,,,,,,,,,,,,,,,,,,,,,,,,,,,,,,,,,,,,,,,,,,,,,,,,,,,,,,,,,,,,,,,,,,,,,,,,,,,,,,,,,,,,,,,,,,,,,,,,,,,,,,,,,,,,,,,,,,,,,,,,,,,,,,,
,,6136266c04528ef90b95faa5,2026-03-17_12h20.37.460,kallum_motion_pilot_GIST_update_2,2026.1.1,Win32,60.24096386,6136266c04528ef90b95faa5,69b92ab4aef6dee357cd729a,69b92ae4e684930f88b65b4a,0.0415,0.0415,1,90,252,155,1,sixeight,,,,,,,,,,,,,,,,,,,,,,,,,,,,,,,,,,,,,,,,,,,,,,,,,,,,,,,,,,,,,,,,,,,,,,,,,,,,,,,,,,,,,,,,,,,,,,,,,,,,,,,,,,,,,,,,,,,,,,,,,,,,,,,,,,,,,,,,,
,,6136266c04528ef90b95faa5,2026-03-17_12h20.37.460,kallum_motion_pilot_GIST_update_2,2026.1.1,Win32,60.24096386,6136266c04528ef90b95faa5,69b92ab4aef6dee357cd729a,69b92ae4e684930f88b65b4a,0.0416,0.0416,1,91,253,96,1,fivesix,,,,,,,,,,,,,,,,,,,,,,,,,,,,,,,,,,,,,,,,,,,,,,,,,,,,,,,,,,,,,,,,,,,,,,,,,,,,,,,,,,,,,,,,,,,,,,,,,,,,,,,,,,,,,,,,,,,,,,,,,,,,,,,,,,,,,,,,,
,,6136266c04528ef90b95faa5,2026-03-17_12h20.37.460,kallum_motion_pilot_GIST_update_2,2026.1.1,Win32,60.24096386,6136266c04528ef90b95faa5,69b92ab4aef6dee357cd729a,69b92ae4e684930f88b65b4a,0.0417,0.0417,1,92,254,58,1,twoone,,,,,,,,,,,,,,,,,,,,,,,,,,,,,,,,,,,,,,,,,,,,,,,,,,,,,,,,,,,,,,,,,,,,,,,,,,,,,,,,,,,,,,,,,,,,,,,,,,,,,,,,,,,,,,,,,,,,,,,,,,,,,,,,,,,,,,,,,
,,6136266c04528ef90b95faa5,2026-03-17_12h20.37.460,kallum_motion_pilot_GIST_update_2,2026.1.1,Win32,60.24096386,6136266c04528ef90b95faa5,69b92ab4aef6dee357cd729a,69b92ae4e684930f88b65b4a,0.0419,0.0419,1,93,255,144,1,fivesix,,,,,,,,,,,,,,,,,,,,,,,,,,,,,,,,,,,,,,,,,,,,,,,,,,,,,,,,,,,,,,,,,,,,,,,,,,,,,,,,,,,,,,,,,,,,,,,,,,,,,,,,,,,,,,,,,,,,,,,,,,,,,,,,,,,,,,,,,
,,6136266c04528ef90b95faa5,2026-03-17_12h20.37.460,kallum_motion_pilot_GIST_update_2,2026.1.1,Win32,60.24096386,6136266c04528ef90b95faa5,69b92ab4aef6dee357cd729a,69b92ae4e684930f88b65b4a,0.0419,0.042,1,94,256,21,1,threefour,,,,,,,,,,,,,,,,,,,,,,,,,,,,,,,,,,,,,,,,,,,,,,,,,,,,,,,,,,,,,,,,,,,,,,,,,,,,,,,,,,,,,,,,,,,,,,,,,,,,,,,,,,,,,,,,,,,,,,,,,,,,,,,,,,,,,,,,,
,,6136266c04528ef90b95faa5,2026-03-17_12h20.37.460,kallum_motion_pilot_GIST_update_2,2026.1.1,Win32,60.24096386,6136266c04528ef90b95faa5,69b92ab4aef6dee357cd729a,69b92ae4e684930f88b65b4a,0.0421,0.0421,1,95,257,133,1,seveneight,,,,,,,,,,,,,,,,,,,,,,,,,,,,,,,,,,,,,,,,,,,,,,,,,,,,,,,,,,,,,,,,,,,,,,,,,,,,,,,,,,,,,,,,,,,,,,,,,,,,,,,,,,,,,,,,,,,,,,,,,,,,,,,,,,,,,,,,,
,,6136266c04528ef90b95faa5,2026-03-17_12h20.37.460,kallum_motion_pilot_GIST_update_2,2026.1.1,Win32,60.24096386,6136266c04528ef90b95faa5,69b92ab4aef6dee357cd729a,69b92ae4e684930f88b65b4a,0.0422,0.0422,1,96,258,115,1,sixeight,,,,,,,,,,,,,,,,,,,,,,,,,,,,,,,,,,,,,,,,,,,,,,,,,,,,,,,,,,,,,,,,,,,,,,,,,,,,,,,,,,,,,,,,,,,,,,,,,,,,,,,,,,,,,,,,,,,,,,,,,,,,,,,,,,,,,,,,,
,,6136266c04528ef90b95faa5,2026-03-17_12h20.37.460,kallum_motion_pilot_GIST_update_2,2026.1.1,Win32,60.24096386,6136266c04528ef90b95faa5,69b92ab4aef6dee357cd729a,69b92ae4e684930f88b65b4a,0.0423,0.0424,1,97,259,20,1,threeone,,,,,,,,,,,,,,,,,,,,,,,,,,,,,,,,,,,,,,,,,,,,,,,,,,,,,,,,,,,,,,,,,,,,,,,,,,,,,,,,,,,,,,,,,,,,,,,,,,,,,,,,,,,,,,,,,,,,,,,,,,,,,,,,,,,,,,,,,
,,6136266c04528ef90b95faa5,2026-03-17_12h20.37.460,kallum_motion_pilot_GIST_update_2,2026.1.1,Win32,60.24096386,6136266c04528ef90b95faa5,69b92ab4aef6dee357cd729a,69b92ae4e684930f88b65b4a,0.0424,0.0424,1,98,260,111,1,eightseven,,,,,,,,,,,,,,,,,,,,,,,,,,,,,,,,,,,,,,,,,,,,,,,,,,,,,,,,,,,,,,,,,,,,,,,,,,,,,,,,,,,,,,,,,,,,,,,,,,,,,,,,,,,,,,,,,,,,,,,,,,,,,,,,,,,,,,,,,
,,6136266c04528ef90b95faa5,2026-03-17_12h20.37.460,kallum_motion_pilot_GIST_update_2,2026.1.1,Win32,60.24096386,6136266c04528ef90b95faa5,69b92ab4aef6dee357cd729a,69b92ae4e684930f88b65b4a,0.0425,0.0425,1,99,261,11,1,twofour,,,,,,,,,,,,,,,,,,,,,,,,,,,,,,,,,,,,,,,,,,,,,,,,,,,,,,,,,,,,,,,,,,,,,,,,,,,,,,,,,,,,,,,,,,,,,,,,,,,,,,,,,,,,,,,,,,,,,,,,,,,,,,,,,,,,,,,,,
,,6136266c04528ef90b95faa5,2026-03-17_12h20.37.460,kallum_motion_pilot_GIST_update_2,2026.1.1,Win32,60.24096386,6136266c04528ef90b95faa5,69b92ab4aef6dee357cd729a,69b92ae4e684930f88b65b4a,0.0426,0.0426,1,100,262,82,1,sixfive,,,,,,,,,,,,,,,,,,,,,,,,,,,,,,,,,,,,,,,,,,,,,,,,,,,,,,,,,,,,,,,,,,,,,,,,,,,,,,,,,,,,,,,,,,,,,,,,,,,,,,,,,,,,,,,,,,,,,,,,,,,,,,,,,,,,,,,,,
,,6136266c04528ef90b95faa5,2026-03-17_12h20.37.460,kallum_motion_pilot_GIST_update_2,2026.1.1,Win32,60.24096386,6136266c04528ef90b95faa5,69b92ab4aef6dee357cd729a,69b92ae4e684930f88b65b4a,0.0427,0.0427,1,101,263,94,1,eightsix,,,,,,,,,,,,,,,,,,,,,,,,,,,,,,,,,,,,,,,,,,,,,,,,,,,,,,,,,,,,,,,,,,,,,,,,,,,,,,,,,,,,,,,,,,,,,,,,,,,,,,,,,,,,,,,,,,,,,,,,,,,,,,,,,,,,,,,,,
,,6136266c04528ef90b95faa5,2026-03-17_12h20.37.460,kallum_motion_pilot_GIST_update_2,2026.1.1,Win32,60.24096386,6136266c04528ef90b95faa5,69b92ab4aef6dee357cd729a,69b92ae4e684930f88b65b4a,0.0428,0.0428,1,102,264,109,1,seveneight,,,,,,,,,,,,,,,,,,,,,,,,,,,,,,,,,,,,,,,,,,,,,,,,,,,,,,,,,,,,,,,,,,,,,,,,,,,,,,,,,,,,,,,,,,,,,,,,,,,,,,,,,,,,,,,,,,,,,,,,,,,,,,,,,,,,,,,,,
,,6136266c04528ef90b95faa5,2026-03-17_12h20.37.460,kallum_motion_pilot_GIST_update_2,2026.1.1,Win32,60.24096386,6136266c04528ef90b95faa5,69b92ab4aef6dee357cd729a,69b92ae4e684930f88b65b4a,0.0429,0.0429,1,103,265,140,1,sevenfive,,,,,,,,,,,,,,,,,,,,,,,,,,,,,,,,,,,,,,,,,,,,,,,,,,,,,,,,,,,,,,,,,,,,,,,,,,,,,,,,,,,,,,,,,,,,,,,,,,,,,,,,,,,,,,,,,,,,,,,,,,,,,,,,,,,,,,,,,
,,6136266c04528ef90b95faa5,2026-03-17_12h20.37.460,kallum_motion_pilot_GIST_update_2,2026.1.1,Win32,60.24096386,6136266c04528ef90b95faa5,69b92ab4aef6dee357cd729a,69b92ae4e684930f88b65b4a,0.0431,0.0431,1,104,266,92,1,sevenfive,,,,,,,,,,,,,,,,,,,,,,,,,,,,,,,,,,,,,,,,,,,,,,,,,,,,,,,,,,,,,,,,,,,,,,,,,,,,,,,,,,,,,,,,,,,,,,,,,,,,,,,,,,,,,,,,,,,,,,,,,,,,,,,,,,,,,,,,,
