startup.started,startup.stopped,Prolific ID*,date,expName,psychopyVersion,OS,frameRate,participant,study_id,session,stimpositions.started,stimpositions.stopped,hardcoded_stimulus_positions.thisRepN,hardcoded_stimulus_positions.thisTrialN,hardcoded_stimulus_positions.thisN,hardcoded_stimulus_positions.thisIndex,hardcoded_stimulus_positions.ran,StimulusPos,stimorientation.started,stimorientation.stopped,prac_stimorientation_import_loop.thisRepN,prac_stimorientation_import_loop.thisTrialN,prac_stimorientation_import_loop.thisN,prac_stimorientation_import_loop.thisIndex,prac_stimorientation_import_loop.ran,Stimorientation,welcome_instr.started,welcome_instr.stopped,key_resp.keys,key_resp.rt,key_resp.duration,response_steppedout_1.started,response_steppedout_1.stopped,key_resp_20.keys,key_resp_20.rt,key_resp_20.duration,response_steppedout_2.started,response_steppedout_2.stopped,key_resp_19.keys,key_resp_19.rt,key_resp_19.duration,stim_response_instr.started,stim_response_instr.stopped,key_resp_15.keys,key_resp_15.rt,key_resp_15.duration,direction_instr_2.started,direction_instr_2.stopped,key_resp_9.keys,key_resp_9.rt,key_resp_9.duration,instr_prac.started,instr_prac.stopped,key_resp_10.keys,key_resp_10.rt,key_resp_10.duration,Stim1_display_prac.started,Stim1_display_prac.stopped,Ecc,Circle1_ori,Circle2_ori,response_prac.started,similarity,response_time,response_prac.stopped,mouse_5.x,mouse_5.y,mouse_5.leftButton,mouse_5.midButton,mouse_5.rightButton,mouse_5.clicked_name,responseprac_feedback.started,responseprac_feedback.stopped,summary2_prac.started,summary2_prac.stopped,mouse_6.x,mouse_6.y,mouse_6.leftButton,mouse_6.midButton,mouse_6.rightButton,mouse_6.clicked_name,duringprac.thisRepN,duringprac.thisTrialN,duringprac.thisN,duringprac.thisIndex,duringprac.ran,begin.started,begin.stopped,key_resp_22.keys,key_resp_22.rt,key_resp_22.duration,Stim1_display.started,Stim1_display.stopped,circle1_ori,circle2_ori,circle1_SF,circle2_SF,response.started,response.stopped,mouse.x,mouse.y,mouse.leftButton,mouse.midButton,mouse.rightButton,mouse.clicked_name,trialnumber,double_pass.thisRepN,double_pass.thisTrialN,double_pass.thisN,double_pass.thisIndex,double_pass.ran,double_pass.order,main_trial.thisRepN,main_trial.thisTrialN,main_trial.thisN,main_trial.thisIndex,main_trial.ran,main_trial.order,Trial_Counter,Catch,Frequencies,response_2.started,response_2.stopped,mouse_2.x,mouse_2.y,mouse_2.leftButton,mouse_2.midButton,mouse_2.rightButton,mouse_2.clicked_name,special_trial.started,special_trial.stopped,catch_1.started,catch_1.stopped,mouse_3.x,mouse_3.y,mouse_3.leftButton,mouse_3.midButton,mouse_3.rightButton,catchresponse,catchnumber,response_time_catch,response_sum.started,response_sum.stopped,mouse_11.x,mouse_11.y,mouse_11.leftButton,mouse_11.midButton,mouse_11.rightButton,flip_presentation_sequence_for_double_pass.started,flip_presentation_sequence_for_double_pass.stopped,goodbye.started,goodbye.stopped,key_resp_3.keys,key_resp_3.rt,key_resp_3.duration
0.0014,0.0016,615f8daae239715a12492306,2026-03-17_16h07.32.969,kallum_motion_pilot_GIST_update_2,2026.1.1,Win32,59.88023952,615f8daae239715a12492306,69b95efdef24cd8a694e89ee,69b960024a6040ca440812c1,,,,,,,,,,,,,,,,,,,,,,,,,,,,,,,,,,,,,,,,,,,,,,,,,,,,,,,,,,,,,,,,,,,,,,,,,,,,,,,,,,,,,,,,,,,,,,,,,,,,,,,,,,,,,,,,,,,,,,,,,,,,,,,,,,,,,,,,,,,,,,,,,
,,615f8daae239715a12492306,2026-03-17_16h07.32.969,kallum_motion_pilot_GIST_update_2,2026.1.1,Win32,59.88023952,615f8daae239715a12492306,69b95efdef24cd8a694e89ee,69b960024a6040ca440812c1,0.0205,0.0205,0,0,0,55,1,fourthree,,,,,,,,,,,,,,,,,,,,,,,,,,,,,,,,,,,,,,,,,,,,,,,,,,,,,,,,,,,,,,,,,,,,,,,,,,,,,,,,,,,,,,,,,,,,,,,,,,,,,,,,,,,,,,,,,,,,,,,,,,,,,,,,,,,,,,,,,
,,615f8daae239715a12492306,2026-03-17_16h07.32.969,kallum_motion_pilot_GIST_update_2,2026.1.1,Win32,59.88023952,615f8daae239715a12492306,69b95efdef24cd8a694e89ee,69b960024a6040ca440812c1,0.0207,0.0207,0,1,1,51,1,twofour,,,,,,,,,,,,,,,,,,,,,,,,,,,,,,,,,,,,,,,,,,,,,,,,,,,,,,,,,,,,,,,,,,,,,,,,,,,,,,,,,,,,,,,,,,,,,,,,,,,,,,,,,,,,,,,,,,,,,,,,,,,,,,,,,,,,,,,,,
,,615f8daae239715a12492306,2026-03-17_16h07.32.969,kallum_motion_pilot_GIST_update_2,2026.1.1,Win32,59.88023952,615f8daae239715a12492306,69b95efdef24cd8a694e89ee,69b960024a6040ca440812c1,0.0208,0.0209,0,2,2,22,1,fourtwo,,,,,,,,,,,,,,,,,,,,,,,,,,,,,,,,,,,,,,,,,,,,,,,,,,,,,,,,,,,,,,,,,,,,,,,,,,,,,,,,,,,,,,,,,,,,,,,,,,,,,,,,,,,,,,,,,,,,,,,,,,,,,,,,,,,,,,,,,
,,615f8daae239715a12492306,2026-03-17_16h07.32.969,kallum_motion_pilot_GIST_update_2,2026.1.1,Win32,59.88023952,615f8daae239715a12492306,69b95efdef24cd8a694e89ee,69b960024a6040ca440812c1,0.0209,0.0209,0,3,3,71,1,fourthree,,,,,,,,,,,,,,,,,,,,,,,,,,,,,,,,,,,,,,,,,,,,,,,,,,,,,,,,,,,,,,,,,,,,,,,,,,,,,,,,,,,,,,,,,,,,,,,,,,,,,,,,,,,,,,,,,,,,,,,,,,,,,,,,,,,,,,,,,
,,615f8daae239715a12492306,2026-03-17_16h07.32.969,kallum_motion_pilot_GIST_update_2,2026.1.1,Win32,59.88023952,615f8daae239715a12492306,69b95efdef24cd8a694e89ee,69b960024a6040ca440812c1,0.021,0.021,0,4,4,78,1,fourtwo,,,,,,,,,,,,,,,,,,,,,,,,,,,,,,,,,,,,,,,,,,,,,,,,,,,,,,,,,,,,,,,,,,,,,,,,,,,,,,,,,,,,,,,,,,,,,,,,,,,,,,,,,,,,,,,,,,,,,,,,,,,,,,,,,,,,,,,,,
,,615f8daae239715a12492306,2026-03-17_16h07.32.969,kallum_motion_pilot_GIST_update_2,2026.1.1,Win32,59.88023952,615f8daae239715a12492306,69b95efdef24cd8a694e89ee,69b960024a6040ca440812c1,0.0212,0.0212,0,5,5,57,1,onethree,,,,,,,,,,,,,,,,,,,,,,,,,,,,,,,,,,,,,,,,,,,,,,,,,,,,,,,,,,,,,,,,,,,,,,,,,,,,,,,,,,,,,,,,,,,,,,,,,,,,,,,,,,,,,,,,,,,,,,,,,,,,,,,,,,,,,,,,,
,,615f8daae239715a12492306,2026-03-17_16h07.32.969,kallum_motion_pilot_GIST_update_2,2026.1.1,Win32,59.88023952,615f8daae239715a12492306,69b95efdef24cd8a694e89ee,69b960024a6040ca440812c1,0.0212,0.0212,0,6,6,2,1,twoone,,,,,,,,,,,,,,,,,,,,,,,,,,,,,,,,,,,,,,,,,,,,,,,,,,,,,,,,,,,,,,,,,,,,,,,,,,,,,,,,,,,,,,,,,,,,,,,,,,,,,,,,,,,,,,,,,,,,,,,,,,,,,,,,,,,,,,,,,
,,615f8daae239715a12492306,2026-03-17_16h07.32.969,kallum_motion_pilot_GIST_update_2,2026.1.1,Win32,59.88023952,615f8daae239715a12492306,69b95efdef24cd8a694e89ee,69b960024a6040ca440812c1,0.0213,0.0213,0,7,7,68,1,threeone,,,,,,,,,,,,,,,,,,,,,,,,,,,,,,,,,,,,,,,,,,,,,,,,,,,,,,,,,,,,,,,,,,,,,,,,,,,,,,,,,,,,,,,,,,,,,,,,,,,,,,,,,,,,,,,,,,,,,,,,,,,,,,,,,,,,,,,,,
,,615f8daae239715a12492306,2026-03-17_16h07.32.969,kallum_motion_pilot_GIST_update_2,2026.1.1,Win32,59.88023952,615f8daae239715a12492306,69b95efdef24cd8a694e89ee,69b960024a6040ca440812c1,0.022,0.022,0,8,8,153,1,fiveseven,,,,,,,,,,,,,,,,,,,,,,,,,,,,,,,,,,,,,,,,,,,,,,,,,,,,,,,,,,,,,,,,,,,,,,,,,,,,,,,,,,,,,,,,,,,,,,,,,,,,,,,,,,,,,,,,,,,,,,,,,,,,,,,,,,,,,,,,,
,,615f8daae239715a12492306,2026-03-17_16h07.32.969,kallum_motion_pilot_GIST_update_2,2026.1.1,Win32,59.88023952,615f8daae239715a12492306,69b95efdef24cd8a694e89ee,69b960024a6040ca440812c1,0.0222,0.0222,0,9,9,59,1,twofour,,,,,,,,,,,,,,,,,,,,,,,,,,,,,,,,,,,,,,,,,,,,,,,,,,,,,,,,,,,,,,,,,,,,,,,,,,,,,,,,,,,,,,,,,,,,,,,,,,,,,,,,,,,,,,,,,,,,,,,,,,,,,,,,,,,,,,,,,
,,615f8daae239715a12492306,2026-03-17_16h07.32.969,kallum_motion_pilot_GIST_update_2,2026.1.1,Win32,59.88023952,615f8daae239715a12492306,69b95efdef24cd8a694e89ee,69b960024a6040ca440812c1,0.0223,0.0223,0,10,10,115,1,sixeight,,,,,,,,,,,,,,,,,,,,,,,,,,,,,,,,,,,,,,,,,,,,,,,,,,,,,,,,,,,,,,,,,,,,,,,,,,,,,,,,,,,,,,,,,,,,,,,,,,,,,,,,,,,,,,,,,,,,,,,,,,,,,,,,,,,,,,,,,
,,615f8daae239715a12492306,2026-03-17_16h07.32.969,kallum_motion_pilot_GIST_update_2,2026.1.1,Win32,59.88023952,615f8daae239715a12492306,69b95efdef24cd8a694e89ee,69b960024a6040ca440812c1,0.0224,0.0224,0,11,11,82,1,sixfive,,,,,,,,,,,,,,,,,,,,,,,,,,,,,,,,,,,,,,,,,,,,,,,,,,,,,,,,,,,,,,,,,,,,,,,,,,,,,,,,,,,,,,,,,,,,,,,,,,,,,,,,,,,,,,,,,,,,,,,,,,,,,,,,,,,,,,,,,
,,615f8daae239715a12492306,2026-03-17_16h07.32.969,kallum_motion_pilot_GIST_update_2,2026.1.1,Win32,59.88023952,615f8daae239715a12492306,69b95efdef24cd8a694e89ee,69b960024a6040ca440812c1,0.0225,0.0225,0,12,12,85,1,seveneight,,,,,,,,,,,,,,,,,,,,,,,,,,,,,,,,,,,,,,,,,,,,,,,,,,,,,,,,,,,,,,,,,,,,,,,,,,,,,,,,,,,,,,,,,,,,,,,,,,,,,,,,,,,,,,,,,,,,,,,,,,,,,,,,,,,,,,,,,
,,615f8daae239715a12492306,2026-03-17_16h07.32.969,kallum_motion_pilot_GIST_update_2,2026.1.1,Win32,59.88023952,615f8daae239715a12492306,69b95efdef24cd8a694e89ee,69b960024a6040ca440812c1,0.0226,0.0226,0,13,13,87,1,eightseven,,,,,,,,,,,,,,,,,,,,,,,,,,,,,,,,,,,,,,,,,,,,,,,,,,,,,,,,,,,,,,,,,,,,,,,,,,,,,,,,,,,,,,,,,,,,,,,,,,,,,,,,,,,,,,,,,,,,,,,,,,,,,,,,,,,,,,,,,
,,615f8daae239715a12492306,2026-03-17_16h07.32.969,kallum_motion_pilot_GIST_update_2,2026.1.1,Win32,59.88023952,615f8daae239715a12492306,69b95efdef24cd8a694e89ee,69b960024a6040ca440812c1,0.0226,0.0226,0,14,14,56,1,onetwo,,,,,,,,,,,,,,,,,,,,,,,,,,,,,,,,,,,,,,,,,,,,,,,,,,,,,,,,,,,,,,,,,,,,,,,,,,,,,,,,,,,,,,,,,,,,,,,,,,,,,,,,,,,,,,,,,,,,,,,,,,,,,,,,,,,,,,,,,
,,615f8daae239715a12492306,2026-03-17_16h07.32.969,kallum_motion_pilot_GIST_update_2,2026.1.1,Win32,59.88023952,615f8daae239715a12492306,69b95efdef24cd8a694e89ee,69b960024a6040ca440812c1,0.0227,0.0227,0,15,15,97,1,fiveseven,,,,,,,,,,,,,,,,,,,,,,,,,,,,,,,,,,,,,,,,,,,,,,,,,,,,,,,,,,,,,,,,,,,,,,,,,,,,,,,,,,,,,,,,,,,,,,,,,,,,,,,,,,,,,,,,,,,,,,,,,,,,,,,,,,,,,,,,,
,,615f8daae239715a12492306,2026-03-17_16h07.32.969,kallum_motion_pilot_GIST_update_2,2026.1.1,Win32,59.88023952,615f8daae239715a12492306,69b95efdef24cd8a694e89ee,69b960024a6040ca440812c1,0.0228,0.0228,0,16,16,133,1,seveneight,,,,,,,,,,,,,,,,,,,,,,,,,,,,,,,,,,,,,,,,,,,,,,,,,,,,,,,,,,,,,,,,,,,,,,,,,,,,,,,,,,,,,,,,,,,,,,,,,,,,,,,,,,,,,,,,,,,,,,,,,,,,,,,,,,,,,,,,,
,,615f8daae239715a12492306,2026-03-17_16h07.32.969,kallum_motion_pilot_GIST_update_2,2026.1.1,Win32,59.88023952,615f8daae239715a12492306,69b95efdef24cd8a694e89ee,69b960024a6040ca440812c1,0.0229,0.0229,0,17,17,86,1,eightsix,,,,,,,,,,,,,,,,,,,,,,,,,,,,,,,,,,,,,,,,,,,,,,,,,,,,,,,,,,,,,,,,,,,,,,,,,,,,,,,,,,,,,,,,,,,,,,,,,,,,,,,,,,,,,,,,,,,,,,,,,,,,,,,,,,,,,,,,,
,,615f8daae239715a12492306,2026-03-17_16h07.32.969,kallum_motion_pilot_GIST_update_2,2026.1.1,Win32,59.88023952,615f8daae239715a12492306,69b95efdef24cd8a694e89ee,69b960024a6040ca440812c1,0.0229,0.0229,0,18,18,142,1,eightsix,,,,,,,,,,,,,,,,,,,,,,,,,,,,,,,,,,,,,,,,,,,,,,,,,,,,,,,,,,,,,,,,,,,,,,,,,,,,,,,,,,,,,,,,,,,,,,,,,,,,,,,,,,,,,,,,,,,,,,,,,,,,,,,,,,,,,,,,,
,,615f8daae239715a12492306,2026-03-17_16h07.32.969,kallum_motion_pilot_GIST_update_2,2026.1.1,Win32,59.88023952,615f8daae239715a12492306,69b95efdef24cd8a694e89ee,69b960024a6040ca440812c1,0.023,0.023,0,19,19,158,1,eightsix,,,,,,,,,,,,,,,,,,,,,,,,,,,,,,,,,,,,,,,,,,,,,,,,,,,,,,,,,,,,,,,,,,,,,,,,,,,,,,,,,,,,,,,,,,,,,,,,,,,,,,,,,,,,,,,,,,,,,,,,,,,,,,,,,,,,,,,,,
,,615f8daae239715a12492306,2026-03-17_16h07.32.969,kallum_motion_pilot_GIST_update_2,2026.1.1,Win32,59.88023952,615f8daae239715a12492306,69b95efdef24cd8a694e89ee,69b960024a6040ca440812c1,0.023,0.023,0,20,20,70,1,fourtwo,,,,,,,,,,,,,,,,,,,,,,,,,,,,,,,,,,,,,,,,,,,,,,,,,,,,,,,,,,,,,,,,,,,,,,,,,,,,,,,,,,,,,,,,,,,,,,,,,,,,,,,,,,,,,,,,,,,,,,,,,,,,,,,,,,,,,,,,,
,,615f8daae239715a12492306,2026-03-17_16h07.32.969,kallum_motion_pilot_GIST_update_2,2026.1.1,Win32,59.88023952,615f8daae239715a12492306,69b95efdef24cd8a694e89ee,69b960024a6040ca440812c1,0.0232,0.0232,0,21,21,137,1,fiveseven,,,,,,,,,,,,,,,,,,,,,,,,,,,,,,,,,,,,,,,,,,,,,,,,,,,,,,,,,,,,,,,,,,,,,,,,,,,,,,,,,,,,,,,,,,,,,,,,,,,,,,,,,,,,,,,,,,,,,,,,,,,,,,,,,,,,,,,,,
,,615f8daae239715a12492306,2026-03-17_16h07.32.969,kallum_motion_pilot_GIST_update_2,2026.1.1,Win32,59.88023952,615f8daae239715a12492306,69b95efdef24cd8a694e89ee,69b960024a6040ca440812c1,0.0232,0.0232,0,22,22,45,1,threefour,,,,,,,,,,,,,,,,,,,,,,,,,,,,,,,,,,,,,,,,,,,,,,,,,,,,,,,,,,,,,,,,,,,,,,,,,,,,,,,,,,,,,,,,,,,,,,,,,,,,,,,,,,,,,,,,,,,,,,,,,,,,,,,,,,,,,,,,,
,,615f8daae239715a12492306,2026-03-17_16h07.32.969,kallum_motion_pilot_GIST_update_2,2026.1.1,Win32,59.88023952,615f8daae239715a12492306,69b95efdef24cd8a694e89ee,69b960024a6040ca440812c1,0.0233,0.0233,0,23,23,95,1,eightseven,,,,,,,,,,,,,,,,,,,,,,,,,,,,,,,,,,,,,,,,,,,,,,,,,,,,,,,,,,,,,,,,,,,,,,,,,,,,,,,,,,,,,,,,,,,,,,,,,,,,,,,,,,,,,,,,,,,,,,,,,,,,,,,,,,,,,,,,,
,,615f8daae239715a12492306,2026-03-17_16h07.32.969,kallum_motion_pilot_GIST_update_2,2026.1.1,Win32,59.88023952,615f8daae239715a12492306,69b95efdef24cd8a694e89ee,69b960024a6040ca440812c1,0.0234,0.0234,0,24,24,119,1,eightseven,,,,,,,,,,,,,,,,,,,,,,,,,,,,,,,,,,,,,,,,,,,,,,,,,,,,,,,,,,,,,,,,,,,,,,,,,,,,,,,,,,,,,,,,,,,,,,,,,,,,,,,,,,,,,,,,,,,,,,,,,,,,,,,,,,,,,,,,,
,,615f8daae239715a12492306,2026-03-17_16h07.32.969,kallum_motion_pilot_GIST_update_2,2026.1.1,Win32,59.88023952,615f8daae239715a12492306,69b95efdef24cd8a694e89ee,69b960024a6040ca440812c1,0.0235,0.0235,0,25,25,146,1,sixfive,,,,,,,,,,,,,,,,,,,,,,,,,,,,,,,,,,,,,,,,,,,,,,,,,,,,,,,,,,,,,,,,,,,,,,,,,,,,,,,,,,,,,,,,,,,,,,,,,,,,,,,,,,,,,,,,,,,,,,,,,,,,,,,,,,,,,,,,,
,,615f8daae239715a12492306,2026-03-17_16h07.32.969,kallum_motion_pilot_GIST_update_2,2026.1.1,Win32,59.88023952,615f8daae239715a12492306,69b95efdef24cd8a694e89ee,69b960024a6040ca440812c1,0.0236,0.0236,0,26,26,50,1,twoone,,,,,,,,,,,,,,,,,,,,,,,,,,,,,,,,,,,,,,,,,,,,,,,,,,,,,,,,,,,,,,,,,,,,,,,,,,,,,,,,,,,,,,,,,,,,,,,,,,,,,,,,,,,,,,,,,,,,,,,,,,,,,,,,,,,,,,,,,
,,615f8daae239715a12492306,2026-03-17_16h07.32.969,kallum_motion_pilot_GIST_update_2,2026.1.1,Win32,59.88023952,615f8daae239715a12492306,69b95efdef24cd8a694e89ee,69b960024a6040ca440812c1,0.0238,0.0238,0,27,27,109,1,seveneight,,,,,,,,,,,,,,,,,,,,,,,,,,,,,,,,,,,,,,,,,,,,,,,,,,,,,,,,,,,,,,,,,,,,,,,,,,,,,,,,,,,,,,,,,,,,,,,,,,,,,,,,,,,,,,,,,,,,,,,,,,,,,,,,,,,,,,,,,
,,615f8daae239715a12492306,2026-03-17_16h07.32.969,kallum_motion_pilot_GIST_update_2,2026.1.1,Win32,59.88023952,615f8daae239715a12492306,69b95efdef24cd8a694e89ee,69b960024a6040ca440812c1,0.0238,0.0238,0,28,28,124,1,sevenfive,,,,,,,,,,,,,,,,,,,,,,,,,,,,,,,,,,,,,,,,,,,,,,,,,,,,,,,,,,,,,,,,,,,,,,,,,,,,,,,,,,,,,,,,,,,,,,,,,,,,,,,,,,,,,,,,,,,,,,,,,,,,,,,,,,,,,,,,,
,,615f8daae239715a12492306,2026-03-17_16h07.32.969,kallum_motion_pilot_GIST_update_2,2026.1.1,Win32,59.88023952,615f8daae239715a12492306,69b95efdef24cd8a694e89ee,69b960024a6040ca440812c1,0.0239,0.0239,0,29,29,98,1,sixfive,,,,,,,,,,,,,,,,,,,,,,,,,,,,,,,,,,,,,,,,,,,,,,,,,,,,,,,,,,,,,,,,,,,,,,,,,,,,,,,,,,,,,,,,,,,,,,,,,,,,,,,,,,,,,,,,,,,,,,,,,,,,,,,,,,,,,,,,,
,,615f8daae239715a12492306,2026-03-17_16h07.32.969,kallum_motion_pilot_GIST_update_2,2026.1.1,Win32,59.88023952,615f8daae239715a12492306,69b95efdef24cd8a694e89ee,69b960024a6040ca440812c1,0.0239,0.0239,0,30,30,5,1,threefour,,,,,,,,,,,,,,,,,,,,,,,,,,,,,,,,,,,,,,,,,,,,,,,,,,,,,,,,,,,,,,,,,,,,,,,,,,,,,,,,,,,,,,,,,,,,,,,,,,,,,,,,,,,,,,,,,,,,,,,,,,,,,,,,,,,,,,,,,
,,615f8daae239715a12492306,2026-03-17_16h07.32.969,kallum_motion_pilot_GIST_update_2,2026.1.1,Win32,59.88023952,615f8daae239715a12492306,69b95efdef24cd8a694e89ee,69b960024a6040ca440812c1,0.024,0.024,0,31,31,14,1,fourtwo,,,,,,,,,,,,,,,,,,,,,,,,,,,,,,,,,,,,,,,,,,,,,,,,,,,,,,,,,,,,,,,,,,,,,,,,,,,,,,,,,,,,,,,,,,,,,,,,,,,,,,,,,,,,,,,,,,,,,,,,,,,,,,,,,,,,,,,,,
,,615f8daae239715a12492306,2026-03-17_16h07.32.969,kallum_motion_pilot_GIST_update_2,2026.1.1,Win32,59.88023952,615f8daae239715a12492306,69b95efdef24cd8a694e89ee,69b960024a6040ca440812c1,0.0241,0.0241,0,32,32,122,1,sixfive,,,,,,,,,,,,,,,,,,,,,,,,,,,,,,,,,,,,,,,,,,,,,,,,,,,,,,,,,,,,,,,,,,,,,,,,,,,,,,,,,,,,,,,,,,,,,,,,,,,,,,,,,,,,,,,,,,,,,,,,,,,,,,,,,,,,,,,,,
,,615f8daae239715a12492306,2026-03-17_16h07.32.969,kallum_motion_pilot_GIST_update_2,2026.1.1,Win32,59.88023952,615f8daae239715a12492306,69b95efdef24cd8a694e89ee,69b960024a6040ca440812c1,0.0242,0.0242,0,33,33,92,1,sevenfive,,,,,,,,,,,,,,,,,,,,,,,,,,,,,,,,,,,,,,,,,,,,,,,,,,,,,,,,,,,,,,,,,,,,,,,,,,,,,,,,,,,,,,,,,,,,,,,,,,,,,,,,,,,,,,,,,,,,,,,,,,,,,,,,,,,,,,,,,
,,615f8daae239715a12492306,2026-03-17_16h07.32.969,kallum_motion_pilot_GIST_update_2,2026.1.1,Win32,59.88023952,615f8daae239715a12492306,69b95efdef24cd8a694e89ee,69b960024a6040ca440812c1,0.0242,0.0242,0,34,34,149,1,seveneight,,,,,,,,,,,,,,,,,,,,,,,,,,,,,,,,,,,,,,,,,,,,,,,,,,,,,,,,,,,,,,,,,,,,,,,,,,,,,,,,,,,,,,,,,,,,,,,,,,,,,,,,,,,,,,,,,,,,,,,,,,,,,,,,,,,,,,,,,
,,615f8daae239715a12492306,2026-03-17_16h07.32.969,kallum_motion_pilot_GIST_update_2,2026.1.1,Win32,59.88023952,615f8daae239715a12492306,69b95efdef24cd8a694e89ee,69b960024a6040ca440812c1,0.0243,0.0243,0,35,35,100,1,sevenfive,,,,,,,,,,,,,,,,,,,,,,,,,,,,,,,,,,,,,,,,,,,,,,,,,,,,,,,,,,,,,,,,,,,,,,,,,,,,,,,,,,,,,,,,,,,,,,,,,,,,,,,,,,,,,,,,,,,,,,,,,,,,,,,,,,,,,,,,,
,,615f8daae239715a12492306,2026-03-17_16h07.32.969,kallum_motion_pilot_GIST_update_2,2026.1.1,Win32,59.88023952,615f8daae239715a12492306,69b95efdef24cd8a694e89ee,69b960024a6040ca440812c1,0.0244,0.0244,0,36,36,17,1,onethree,,,,,,,,,,,,,,,,,,,,,,,,,,,,,,,,,,,,,,,,,,,,,,,,,,,,,,,,,,,,,,,,,,,,,,,,,,,,,,,,,,,,,,,,,,,,,,,,,,,,,,,,,,,,,,,,,,,,,,,,,,,,,,,,,,,,,,,,,
,,615f8daae239715a12492306,2026-03-17_16h07.32.969,kallum_motion_pilot_GIST_update_2,2026.1.1,Win32,59.88023952,615f8daae239715a12492306,69b95efdef24cd8a694e89ee,69b960024a6040ca440812c1,0.0246,0.0246,0,37,37,88,1,fivesix,,,,,,,,,,,,,,,,,,,,,,,,,,,,,,,,,,,,,,,,,,,,,,,,,,,,,,,,,,,,,,,,,,,,,,,,,,,,,,,,,,,,,,,,,,,,,,,,,,,,,,,,,,,,,,,,,,,,,,,,,,,,,,,,,,,,,,,,,
,,615f8daae239715a12492306,2026-03-17_16h07.32.969,kallum_motion_pilot_GIST_update_2,2026.1.1,Win32,59.88023952,615f8daae239715a12492306,69b95efdef24cd8a694e89ee,69b960024a6040ca440812c1,0.0246,0.0246,0,38,38,126,1,eightsix,,,,,,,,,,,,,,,,,,,,,,,,,,,,,,,,,,,,,,,,,,,,,,,,,,,,,,,,,,,,,,,,,,,,,,,,,,,,,,,,,,,,,,,,,,,,,,,,,,,,,,,,,,,,,,,,,,,,,,,,,,,,,,,,,,,,,,,,,
,,615f8daae239715a12492306,2026-03-17_16h07.32.969,kallum_motion_pilot_GIST_update_2,2026.1.1,Win32,59.88023952,615f8daae239715a12492306,69b95efdef24cd8a694e89ee,69b960024a6040ca440812c1,0.0247,0.0247,0,39,39,161,1,fiveseven,,,,,,,,,,,,,,,,,,,,,,,,,,,,,,,,,,,,,,,,,,,,,,,,,,,,,,,,,,,,,,,,,,,,,,,,,,,,,,,,,,,,,,,,,,,,,,,,,,,,,,,,,,,,,,,,,,,,,,,,,,,,,,,,,,,,,,,,,
,,615f8daae239715a12492306,2026-03-17_16h07.32.969,kallum_motion_pilot_GIST_update_2,2026.1.1,Win32,59.88023952,615f8daae239715a12492306,69b95efdef24cd8a694e89ee,69b960024a6040ca440812c1,0.0248,0.0248,0,40,40,18,1,twoone,,,,,,,,,,,,,,,,,,,,,,,,,,,,,,,,,,,,,,,,,,,,,,,,,,,,,,,,,,,,,,,,,,,,,,,,,,,,,,,,,,,,,,,,,,,,,,,,,,,,,,,,,,,,,,,,,,,,,,,,,,,,,,,,,,,,,,,,,
,,615f8daae239715a12492306,2026-03-17_16h07.32.969,kallum_motion_pilot_GIST_update_2,2026.1.1,Win32,59.88023952,615f8daae239715a12492306,69b95efdef24cd8a694e89ee,69b960024a6040ca440812c1,0.0249,0.0249,0,41,41,69,1,threefour,,,,,,,,,,,,,,,,,,,,,,,,,,,,,,,,,,,,,,,,,,,,,,,,,,,,,,,,,,,,,,,,,,,,,,,,,,,,,,,,,,,,,,,,,,,,,,,,,,,,,,,,,,,,,,,,,,,,,,,,,,,,,,,,,,,,,,,,,
,,615f8daae239715a12492306,2026-03-17_16h07.32.969,kallum_motion_pilot_GIST_update_2,2026.1.1,Win32,59.88023952,615f8daae239715a12492306,69b95efdef24cd8a694e89ee,69b960024a6040ca440812c1,0.0249,0.0249,0,42,42,25,1,onethree,,,,,,,,,,,,,,,,,,,,,,,,,,,,,,,,,,,,,,,,,,,,,,,,,,,,,,,,,,,,,,,,,,,,,,,,,,,,,,,,,,,,,,,,,,,,,,,,,,,,,,,,,,,,,,,,,,,,,,,,,,,,,,,,,,,,,,,,,
,,615f8daae239715a12492306,2026-03-17_16h07.32.969,kallum_motion_pilot_GIST_update_2,2026.1.1,Win32,59.88023952,615f8daae239715a12492306,69b95efdef24cd8a694e89ee,69b960024a6040ca440812c1,0.025,0.025,0,43,43,111,1,eightseven,,,,,,,,,,,,,,,,,,,,,,,,,,,,,,,,,,,,,,,,,,,,,,,,,,,,,,,,,,,,,,,,,,,,,,,,,,,,,,,,,,,,,,,,,,,,,,,,,,,,,,,,,,,,,,,,,,,,,,,,,,,,,,,,,,,,,,,,,
,,615f8daae239715a12492306,2026-03-17_16h07.32.969,kallum_motion_pilot_GIST_update_2,2026.1.1,Win32,59.88023952,615f8daae239715a12492306,69b95efdef24cd8a694e89ee,69b960024a6040ca440812c1,0.0251,0.0251,0,44,44,28,1,threeone,,,,,,,,,,,,,,,,,,,,,,,,,,,,,,,,,,,,,,,,,,,,,,,,,,,,,,,,,,,,,,,,,,,,,,,,,,,,,,,,,,,,,,,,,,,,,,,,,,,,,,,,,,,,,,,,,,,,,,,,,,,,,,,,,,,,,,,,,
,,615f8daae239715a12492306,2026-03-17_16h07.32.969,kallum_motion_pilot_GIST_update_2,2026.1.1,Win32,59.88023952,615f8daae239715a12492306,69b95efdef24cd8a694e89ee,69b960024a6040ca440812c1,0.0252,0.0252,0,45,45,96,1,fivesix,,,,,,,,,,,,,,,,,,,,,,,,,,,,,,,,,,,,,,,,,,,,,,,,,,,,,,,,,,,,,,,,,,,,,,,,,,,,,,,,,,,,,,,,,,,,,,,,,,,,,,,,,,,,,,,,,,,,,,,,,,,,,,,,,,,,,,,,,
,,615f8daae239715a12492306,2026-03-17_16h07.32.969,kallum_motion_pilot_GIST_update_2,2026.1.1,Win32,59.88023952,615f8daae239715a12492306,69b95efdef24cd8a694e89ee,69b960024a6040ca440812c1,0.0253,0.0253,0,46,46,34,1,twoone,,,,,,,,,,,,,,,,,,,,,,,,,,,,,,,,,,,,,,,,,,,,,,,,,,,,,,,,,,,,,,,,,,,,,,,,,,,,,,,,,,,,,,,,,,,,,,,,,,,,,,,,,,,,,,,,,,,,,,,,,,,,,,,,,,,,,,,,,
,,615f8daae239715a12492306,2026-03-17_16h07.32.969,kallum_motion_pilot_GIST_update_2,2026.1.1,Win32,59.88023952,615f8daae239715a12492306,69b95efdef24cd8a694e89ee,69b960024a6040ca440812c1,0.0253,0.0253,0,47,47,26,1,twoone,,,,,,,,,,,,,,,,,,,,,,,,,,,,,,,,,,,,,,,,,,,,,,,,,,,,,,,,,,,,,,,,,,,,,,,,,,,,,,,,,,,,,,,,,,,,,,,,,,,,,,,,,,,,,,,,,,,,,,,,,,,,,,,,,,,,,,,,,
,,615f8daae239715a12492306,2026-03-17_16h07.32.969,kallum_motion_pilot_GIST_update_2,2026.1.1,Win32,59.88023952,615f8daae239715a12492306,69b95efdef24cd8a694e89ee,69b960024a6040ca440812c1,0.0254,0.0254,0,48,48,104,1,fivesix,,,,,,,,,,,,,,,,,,,,,,,,,,,,,,,,,,,,,,,,,,,,,,,,,,,,,,,,,,,,,,,,,,,,,,,,,,,,,,,,,,,,,,,,,,,,,,,,,,,,,,,,,,,,,,,,,,,,,,,,,,,,,,,,,,,,,,,,,
,,615f8daae239715a12492306,2026-03-17_16h07.32.969,kallum_motion_pilot_GIST_update_2,2026.1.1,Win32,59.88023952,615f8daae239715a12492306,69b95efdef24cd8a694e89ee,69b960024a6040ca440812c1,0.0254,0.0254,0,49,49,39,1,fourthree,,,,,,,,,,,,,,,,,,,,,,,,,,,,,,,,,,,,,,,,,,,,,,,,,,,,,,,,,,,,,,,,,,,,,,,,,,,,,,,,,,,,,,,,,,,,,,,,,,,,,,,,,,,,,,,,,,,,,,,,,,,,,,,,,,,,,,,,,
,,615f8daae239715a12492306,2026-03-17_16h07.32.969,kallum_motion_pilot_GIST_update_2,2026.1.1,Win32,59.88023952,615f8daae239715a12492306,69b95efdef24cd8a694e89ee,69b960024a6040ca440812c1,0.0256,0.0256,0,50,50,152,1,fivesix,,,,,,,,,,,,,,,,,,,,,,,,,,,,,,,,,,,,,,,,,,,,,,,,,,,,,,,,,,,,,,,,,,,,,,,,,,,,,,,,,,,,,,,,,,,,,,,,,,,,,,,,,,,,,,,,,,,,,,,,,,,,,,,,,,,,,,,,,
,,615f8daae239715a12492306,2026-03-17_16h07.32.969,kallum_motion_pilot_GIST_update_2,2026.1.1,Win32,59.88023952,615f8daae239715a12492306,69b95efdef24cd8a694e89ee,69b960024a6040ca440812c1,0.0257,0.0257,0,51,51,32,1,onetwo,,,,,,,,,,,,,,,,,,,,,,,,,,,,,,,,,,,,,,,,,,,,,,,,,,,,,,,,,,,,,,,,,,,,,,,,,,,,,,,,,,,,,,,,,,,,,,,,,,,,,,,,,,,,,,,,,,,,,,,,,,,,,,,,,,,,,,,,,
,,615f8daae239715a12492306,2026-03-17_16h07.32.969,kallum_motion_pilot_GIST_update_2,2026.1.1,Win32,59.88023952,615f8daae239715a12492306,69b95efdef24cd8a694e89ee,69b960024a6040ca440812c1,0.0258,0.0258,0,52,52,11,1,twofour,,,,,,,,,,,,,,,,,,,,,,,,,,,,,,,,,,,,,,,,,,,,,,,,,,,,,,,,,,,,,,,,,,,,,,,,,,,,,,,,,,,,,,,,,,,,,,,,,,,,,,,,,,,,,,,,,,,,,,,,,,,,,,,,,,,,,,,,,
,,615f8daae239715a12492306,2026-03-17_16h07.32.969,kallum_motion_pilot_GIST_update_2,2026.1.1,Win32,59.88023952,615f8daae239715a12492306,69b95efdef24cd8a694e89ee,69b960024a6040ca440812c1,0.0258,0.0258,0,53,53,35,1,twofour,,,,,,,,,,,,,,,,,,,,,,,,,,,,,,,,,,,,,,,,,,,,,,,,,,,,,,,,,,,,,,,,,,,,,,,,,,,,,,,,,,,,,,,,,,,,,,,,,,,,,,,,,,,,,,,,,,,,,,,,,,,,,,,,,,,,,,,,,
,,615f8daae239715a12492306,2026-03-17_16h07.32.969,kallum_motion_pilot_GIST_update_2,2026.1.1,Win32,59.88023952,615f8daae239715a12492306,69b95efdef24cd8a694e89ee,69b960024a6040ca440812c1,0.0259,0.0259,0,54,54,23,1,fourthree,,,,,,,,,,,,,,,,,,,,,,,,,,,,,,,,,,,,,,,,,,,,,,,,,,,,,,,,,,,,,,,,,,,,,,,,,,,,,,,,,,,,,,,,,,,,,,,,,,,,,,,,,,,,,,,,,,,,,,,,,,,,,,,,,,,,,,,,,
,,615f8daae239715a12492306,2026-03-17_16h07.32.969,kallum_motion_pilot_GIST_update_2,2026.1.1,Win32,59.88023952,615f8daae239715a12492306,69b95efdef24cd8a694e89ee,69b960024a6040ca440812c1,0.026,0.026,0,55,55,41,1,onethree,,,,,,,,,,,,,,,,,,,,,,,,,,,,,,,,,,,,,,,,,,,,,,,,,,,,,,,,,,,,,,,,,,,,,,,,,,,,,,,,,,,,,,,,,,,,,,,,,,,,,,,,,,,,,,,,,,,,,,,,,,,,,,,,,,,,,,,,,
,,615f8daae239715a12492306,2026-03-17_16h07.32.969,kallum_motion_pilot_GIST_update_2,2026.1.1,Win32,59.88023952,615f8daae239715a12492306,69b95efdef24cd8a694e89ee,69b960024a6040ca440812c1,0.0261,0.0261,0,56,56,94,1,eightsix,,,,,,,,,,,,,,,,,,,,,,,,,,,,,,,,,,,,,,,,,,,,,,,,,,,,,,,,,,,,,,,,,,,,,,,,,,,,,,,,,,,,,,,,,,,,,,,,,,,,,,,,,,,,,,,,,,,,,,,,,,,,,,,,,,,,,,,,,
,,615f8daae239715a12492306,2026-03-17_16h07.32.969,kallum_motion_pilot_GIST_update_2,2026.1.1,Win32,59.88023952,615f8daae239715a12492306,69b95efdef24cd8a694e89ee,69b960024a6040ca440812c1,0.0262,0.0262,0,57,57,90,1,sixfive,,,,,,,,,,,,,,,,,,,,,,,,,,,,,,,,,,,,,,,,,,,,,,,,,,,,,,,,,,,,,,,,,,,,,,,,,,,,,,,,,,,,,,,,,,,,,,,,,,,,,,,,,,,,,,,,,,,,,,,,,,,,,,,,,,,,,,,,,
,,615f8daae239715a12492306,2026-03-17_16h07.32.969,kallum_motion_pilot_GIST_update_2,2026.1.1,Win32,59.88023952,615f8daae239715a12492306,69b95efdef24cd8a694e89ee,69b960024a6040ca440812c1,0.0262,0.0262,0,58,58,13,1,threefour,,,,,,,,,,,,,,,,,,,,,,,,,,,,,,,,,,,,,,,,,,,,,,,,,,,,,,,,,,,,,,,,,,,,,,,,,,,,,,,,,,,,,,,,,,,,,,,,,,,,,,,,,,,,,,,,,,,,,,,,,,,,,,,,,,,,,,,,,
,,615f8daae239715a12492306,2026-03-17_16h07.32.969,kallum_motion_pilot_GIST_update_2,2026.1.1,Win32,59.88023952,615f8daae239715a12492306,69b95efdef24cd8a694e89ee,69b960024a6040ca440812c1,0.0262,0.0262,0,59,59,53,1,threefour,,,,,,,,,,,,,,,,,,,,,,,,,,,,,,,,,,,,,,,,,,,,,,,,,,,,,,,,,,,,,,,,,,,,,,,,,,,,,,,,,,,,,,,,,,,,,,,,,,,,,,,,,,,,,,,,,,,,,,,,,,,,,,,,,,,,,,,,,
,,615f8daae239715a12492306,2026-03-17_16h07.32.969,kallum_motion_pilot_GIST_update_2,2026.1.1,Win32,59.88023952,615f8daae239715a12492306,69b95efdef24cd8a694e89ee,69b960024a6040ca440812c1,0.0263,0.0264,0,60,60,20,1,threeone,,,,,,,,,,,,,,,,,,,,,,,,,,,,,,,,,,,,,,,,,,,,,,,,,,,,,,,,,,,,,,,,,,,,,,,,,,,,,,,,,,,,,,,,,,,,,,,,,,,,,,,,,,,,,,,,,,,,,,,,,,,,,,,,,,,,,,,,,
,,615f8daae239715a12492306,2026-03-17_16h07.32.969,kallum_motion_pilot_GIST_update_2,2026.1.1,Win32,59.88023952,615f8daae239715a12492306,69b95efdef24cd8a694e89ee,69b960024a6040ca440812c1,0.0265,0.0265,0,61,61,46,1,fourtwo,,,,,,,,,,,,,,,,,,,,,,,,,,,,,,,,,,,,,,,,,,,,,,,,,,,,,,,,,,,,,,,,,,,,,,,,,,,,,,,,,,,,,,,,,,,,,,,,,,,,,,,,,,,,,,,,,,,,,,,,,,,,,,,,,,,,,,,,,
,,615f8daae239715a12492306,2026-03-17_16h07.32.969,kallum_motion_pilot_GIST_update_2,2026.1.1,Win32,59.88023952,615f8daae239715a12492306,69b95efdef24cd8a694e89ee,69b960024a6040ca440812c1,0.0265,0.0265,0,62,62,63,1,fourthree,,,,,,,,,,,,,,,,,,,,,,,,,,,,,,,,,,,,,,,,,,,,,,,,,,,,,,,,,,,,,,,,,,,,,,,,,,,,,,,,,,,,,,,,,,,,,,,,,,,,,,,,,,,,,,,,,,,,,,,,,,,,,,,,,,,,,,,,,
,,615f8daae239715a12492306,2026-03-17_16h07.32.969,kallum_motion_pilot_GIST_update_2,2026.1.1,Win32,59.88023952,615f8daae239715a12492306,69b95efdef24cd8a694e89ee,69b960024a6040ca440812c1,0.0266,0.0266,0,63,63,112,1,fivesix,,,,,,,,,,,,,,,,,,,,,,,,,,,,,,,,,,,,,,,,,,,,,,,,,,,,,,,,,,,,,,,,,,,,,,,,,,,,,,,,,,,,,,,,,,,,,,,,,,,,,,,,,,,,,,,,,,,,,,,,,,,,,,,,,,,,,,,,,
,,615f8daae239715a12492306,2026-03-17_16h07.32.969,kallum_motion_pilot_GIST_update_2,2026.1.1,Win32,59.88023952,615f8daae239715a12492306,69b95efdef24cd8a694e89ee,69b960024a6040ca440812c1,0.0268,0.0268,0,64,64,4,1,threeone,,,,,,,,,,,,,,,,,,,,,,,,,,,,,,,,,,,,,,,,,,,,,,,,,,,,,,,,,,,,,,,,,,,,,,,,,,,,,,,,,,,,,,,,,,,,,,,,,,,,,,,,,,,,,,,,,,,,,,,,,,,,,,,,,,,,,,,,,
,,615f8daae239715a12492306,2026-03-17_16h07.32.969,kallum_motion_pilot_GIST_update_2,2026.1.1,Win32,59.88023952,615f8daae239715a12492306,69b95efdef24cd8a694e89ee,69b960024a6040ca440812c1,0.0269,0.0269,0,65,65,114,1,sixfive,,,,,,,,,,,,,,,,,,,,,,,,,,,,,,,,,,,,,,,,,,,,,,,,,,,,,,,,,,,,,,,,,,,,,,,,,,,,,,,,,,,,,,,,,,,,,,,,,,,,,,,,,,,,,,,,,,,,,,,,,,,,,,,,,,,,,,,,,
,,615f8daae239715a12492306,2026-03-17_16h07.32.969,kallum_motion_pilot_GIST_update_2,2026.1.1,Win32,59.88023952,615f8daae239715a12492306,69b95efdef24cd8a694e89ee,69b960024a6040ca440812c1,0.027,0.027,0,66,66,160,1,fivesix,,,,,,,,,,,,,,,,,,,,,,,,,,,,,,,,,,,,,,,,,,,,,,,,,,,,,,,,,,,,,,,,,,,,,,,,,,,,,,,,,,,,,,,,,,,,,,,,,,,,,,,,,,,,,,,,,,,,,,,,,,,,,,,,,,,,,,,,,
,,615f8daae239715a12492306,2026-03-17_16h07.32.969,kallum_motion_pilot_GIST_update_2,2026.1.1,Win32,59.88023952,615f8daae239715a12492306,69b95efdef24cd8a694e89ee,69b960024a6040ca440812c1,0.0272,0.0272,0,67,67,130,1,sixfive,,,,,,,,,,,,,,,,,,,,,,,,,,,,,,,,,,,,,,,,,,,,,,,,,,,,,,,,,,,,,,,,,,,,,,,,,,,,,,,,,,,,,,,,,,,,,,,,,,,,,,,,,,,,,,,,,,,,,,,,,,,,,,,,,,,,,,,,,
,,615f8daae239715a12492306,2026-03-17_16h07.32.969,kallum_motion_pilot_GIST_update_2,2026.1.1,Win32,59.88023952,615f8daae239715a12492306,69b95efdef24cd8a694e89ee,69b960024a6040ca440812c1,0.0273,0.0273,0,68,68,123,1,sixeight,,,,,,,,,,,,,,,,,,,,,,,,,,,,,,,,,,,,,,,,,,,,,,,,,,,,,,,,,,,,,,,,,,,,,,,,,,,,,,,,,,,,,,,,,,,,,,,,,,,,,,,,,,,,,,,,,,,,,,,,,,,,,,,,,,,,,,,,,
,,615f8daae239715a12492306,2026-03-17_16h07.32.969,kallum_motion_pilot_GIST_update_2,2026.1.1,Win32,59.88023952,615f8daae239715a12492306,69b95efdef24cd8a694e89ee,69b960024a6040ca440812c1,0.0274,0.0274,0,69,69,61,1,threefour,,,,,,,,,,,,,,,,,,,,,,,,,,,,,,,,,,,,,,,,,,,,,,,,,,,,,,,,,,,,,,,,,,,,,,,,,,,,,,,,,,,,,,,,,,,,,,,,,,,,,,,,,,,,,,,,,,,,,,,,,,,,,,,,,,,,,,,,,
,,615f8daae239715a12492306,2026-03-17_16h07.32.969,kallum_motion_pilot_GIST_update_2,2026.1.1,Win32,59.88023952,615f8daae239715a12492306,69b95efdef24cd8a694e89ee,69b960024a6040ca440812c1,0.0275,0.0275,0,70,70,157,1,seveneight,,,,,,,,,,,,,,,,,,,,,,,,,,,,,,,,,,,,,,,,,,,,,,,,,,,,,,,,,,,,,,,,,,,,,,,,,,,,,,,,,,,,,,,,,,,,,,,,,,,,,,,,,,,,,,,,,,,,,,,,,,,,,,,,,,,,,,,,,
,,615f8daae239715a12492306,2026-03-17_16h07.32.969,kallum_motion_pilot_GIST_update_2,2026.1.1,Win32,59.88023952,615f8daae239715a12492306,69b95efdef24cd8a694e89ee,69b960024a6040ca440812c1,0.0276,0.0276,0,71,71,148,1,sevenfive,,,,,,,,,,,,,,,,,,,,,,,,,,,,,,,,,,,,,,,,,,,,,,,,,,,,,,,,,,,,,,,,,,,,,,,,,,,,,,,,,,,,,,,,,,,,,,,,,,,,,,,,,,,,,,,,,,,,,,,,,,,,,,,,,,,,,,,,,
,,615f8daae239715a12492306,2026-03-17_16h07.32.969,kallum_motion_pilot_GIST_update_2,2026.1.1,Win32,59.88023952,615f8daae239715a12492306,69b95efdef24cd8a694e89ee,69b960024a6040ca440812c1,0.0278,0.0278,0,72,72,155,1,sixeight,,,,,,,,,,,,,,,,,,,,,,,,,,,,,,,,,,,,,,,,,,,,,,,,,,,,,,,,,,,,,,,,,,,,,,,,,,,,,,,,,,,,,,,,,,,,,,,,,,,,,,,,,,,,,,,,,,,,,,,,,,,,,,,,,,,,,,,,,
,,615f8daae239715a12492306,2026-03-17_16h07.32.969,kallum_motion_pilot_GIST_update_2,2026.1.1,Win32,59.88023952,615f8daae239715a12492306,69b95efdef24cd8a694e89ee,69b960024a6040ca440812c1,0.0278,0.0279,0,73,73,139,1,sixeight,,,,,,,,,,,,,,,,,,,,,,,,,,,,,,,,,,,,,,,,,,,,,,,,,,,,,,,,,,,,,,,,,,,,,,,,,,,,,,,,,,,,,,,,,,,,,,,,,,,,,,,,,,,,,,,,,,,,,,,,,,,,,,,,,,,,,,,,,
,,615f8daae239715a12492306,2026-03-17_16h07.32.969,kallum_motion_pilot_GIST_update_2,2026.1.1,Win32,59.88023952,615f8daae239715a12492306,69b95efdef24cd8a694e89ee,69b960024a6040ca440812c1,0.0279,0.028,0,74,74,103,1,eightseven,,,,,,,,,,,,,,,,,,,,,,,,,,,,,,,,,,,,,,,,,,,,,,,,,,,,,,,,,,,,,,,,,,,,,,,,,,,,,,,,,,,,,,,,,,,,,,,,,,,,,,,,,,,,,,,,,,,,,,,,,,,,,,,,,,,,,,,,,
,,615f8daae239715a12492306,2026-03-17_16h07.32.969,kallum_motion_pilot_GIST_update_2,2026.1.1,Win32,59.88023952,615f8daae239715a12492306,69b95efdef24cd8a694e89ee,69b960024a6040ca440812c1,0.028,0.028,0,75,75,135,1,eightseven,,,,,,,,,,,,,,,,,,,,,,,,,,,,,,,,,,,,,,,,,,,,,,,,,,,,,,,,,,,,,,,,,,,,,,,,,,,,,,,,,,,,,,,,,,,,,,,,,,,,,,,,,,,,,,,,,,,,,,,,,,,,,,,,,,,,,,,,,
,,615f8daae239715a12492306,2026-03-17_16h07.32.969,kallum_motion_pilot_GIST_update_2,2026.1.1,Win32,59.88023952,615f8daae239715a12492306,69b95efdef24cd8a694e89ee,69b960024a6040ca440812c1,0.0281,0.0282,0,76,76,67,1,twofour,,,,,,,,,,,,,,,,,,,,,,,,,,,,,,,,,,,,,,,,,,,,,,,,,,,,,,,,,,,,,,,,,,,,,,,,,,,,,,,,,,,,,,,,,,,,,,,,,,,,,,,,,,,,,,,,,,,,,,,,,,,,,,,,,,,,,,,,,
,,615f8daae239715a12492306,2026-03-17_16h07.32.969,kallum_motion_pilot_GIST_update_2,2026.1.1,Win32,59.88023952,615f8daae239715a12492306,69b95efdef24cd8a694e89ee,69b960024a6040ca440812c1,0.0282,0.0282,0,77,77,134,1,eightsix,,,,,,,,,,,,,,,,,,,,,,,,,,,,,,,,,,,,,,,,,,,,,,,,,,,,,,,,,,,,,,,,,,,,,,,,,,,,,,,,,,,,,,,,,,,,,,,,,,,,,,,,,,,,,,,,,,,,,,,,,,,,,,,,,,,,,,,,,
,,615f8daae239715a12492306,2026-03-17_16h07.32.969,kallum_motion_pilot_GIST_update_2,2026.1.1,Win32,59.88023952,615f8daae239715a12492306,69b95efdef24cd8a694e89ee,69b960024a6040ca440812c1,0.0283,0.0283,0,78,78,0,1,onetwo,,,,,,,,,,,,,,,,,,,,,,,,,,,,,,,,,,,,,,,,,,,,,,,,,,,,,,,,,,,,,,,,,,,,,,,,,,,,,,,,,,,,,,,,,,,,,,,,,,,,,,,,,,,,,,,,,,,,,,,,,,,,,,,,,,,,,,,,,
,,615f8daae239715a12492306,2026-03-17_16h07.32.969,kallum_motion_pilot_GIST_update_2,2026.1.1,Win32,59.88023952,615f8daae239715a12492306,69b95efdef24cd8a694e89ee,69b960024a6040ca440812c1,0.0284,0.0284,0,79,79,120,1,fivesix,,,,,,,,,,,,,,,,,,,,,,,,,,,,,,,,,,,,,,,,,,,,,,,,,,,,,,,,,,,,,,,,,,,,,,,,,,,,,,,,,,,,,,,,,,,,,,,,,,,,,,,,,,,,,,,,,,,,,,,,,,,,,,,,,,,,,,,,,
,,615f8daae239715a12492306,2026-03-17_16h07.32.969,kallum_motion_pilot_GIST_update_2,2026.1.1,Win32,59.88023952,615f8daae239715a12492306,69b95efdef24cd8a694e89ee,69b960024a6040ca440812c1,0.0285,0.0285,0,80,80,48,1,onetwo,,,,,,,,,,,,,,,,,,,,,,,,,,,,,,,,,,,,,,,,,,,,,,,,,,,,,,,,,,,,,,,,,,,,,,,,,,,,,,,,,,,,,,,,,,,,,,,,,,,,,,,,,,,,,,,,,,,,,,,,,,,,,,,,,,,,,,,,,
,,615f8daae239715a12492306,2026-03-17_16h07.32.969,kallum_motion_pilot_GIST_update_2,2026.1.1,Win32,59.88023952,615f8daae239715a12492306,69b95efdef24cd8a694e89ee,69b960024a6040ca440812c1,0.0286,0.0286,0,81,81,29,1,threefour,,,,,,,,,,,,,,,,,,,,,,,,,,,,,,,,,,,,,,,,,,,,,,,,,,,,,,,,,,,,,,,,,,,,,,,,,,,,,,,,,,,,,,,,,,,,,,,,,,,,,,,,,,,,,,,,,,,,,,,,,,,,,,,,,,,,,,,,,
,,615f8daae239715a12492306,2026-03-17_16h07.32.969,kallum_motion_pilot_GIST_update_2,2026.1.1,Win32,59.88023952,615f8daae239715a12492306,69b95efdef24cd8a694e89ee,69b960024a6040ca440812c1,0.0287,0.0287,0,82,82,107,1,sixeight,,,,,,,,,,,,,,,,,,,,,,,,,,,,,,,,,,,,,,,,,,,,,,,,,,,,,,,,,,,,,,,,,,,,,,,,,,,,,,,,,,,,,,,,,,,,,,,,,,,,,,,,,,,,,,,,,,,,,,,,,,,,,,,,,,,,,,,,,
,,615f8daae239715a12492306,2026-03-17_16h07.32.969,kallum_motion_pilot_GIST_update_2,2026.1.1,Win32,59.88023952,615f8daae239715a12492306,69b95efdef24cd8a694e89ee,69b960024a6040ca440812c1,0.0288,0.0288,0,83,83,33,1,onethree,,,,,,,,,,,,,,,,,,,,,,,,,,,,,,,,,,,,,,,,,,,,,,,,,,,,,,,,,,,,,,,,,,,,,,,,,,,,,,,,,,,,,,,,,,,,,,,,,,,,,,,,,,,,,,,,,,,,,,,,,,,,,,,,,,,,,,,,,
,,615f8daae239715a12492306,2026-03-17_16h07.32.969,kallum_motion_pilot_GIST_update_2,2026.1.1,Win32,59.88023952,615f8daae239715a12492306,69b95efdef24cd8a694e89ee,69b960024a6040ca440812c1,0.0289,0.0289,0,84,84,8,1,onetwo,,,,,,,,,,,,,,,,,,,,,,,,,,,,,,,,,,,,,,,,,,,,,,,,,,,,,,,,,,,,,,,,,,,,,,,,,,,,,,,,,,,,,,,,,,,,,,,,,,,,,,,,,,,,,,,,,,,,,,,,,,,,,,,,,,,,,,,,,
,,615f8daae239715a12492306,2026-03-17_16h07.32.969,kallum_motion_pilot_GIST_update_2,2026.1.1,Win32,59.88023952,615f8daae239715a12492306,69b95efdef24cd8a694e89ee,69b960024a6040ca440812c1,0.029,0.029,0,85,85,132,1,sevenfive,,,,,,,,,,,,,,,,,,,,,,,,,,,,,,,,,,,,,,,,,,,,,,,,,,,,,,,,,,,,,,,,,,,,,,,,,,,,,,,,,,,,,,,,,,,,,,,,,,,,,,,,,,,,,,,,,,,,,,,,,,,,,,,,,,,,,,,,,
,,615f8daae239715a12492306,2026-03-17_16h07.32.969,kallum_motion_pilot_GIST_update_2,2026.1.1,Win32,59.88023952,615f8daae239715a12492306,69b95efdef24cd8a694e89ee,69b960024a6040ca440812c1,0.0291,0.0291,0,86,86,62,1,fourtwo,,,,,,,,,,,,,,,,,,,,,,,,,,,,,,,,,,,,,,,,,,,,,,,,,,,,,,,,,,,,,,,,,,,,,,,,,,,,,,,,,,,,,,,,,,,,,,,,,,,,,,,,,,,,,,,,,,,,,,,,,,,,,,,,,,,,,,,,,
,,615f8daae239715a12492306,2026-03-17_16h07.32.969,kallum_motion_pilot_GIST_update_2,2026.1.1,Win32,59.88023952,615f8daae239715a12492306,69b95efdef24cd8a694e89ee,69b960024a6040ca440812c1,0.0293,0.0293,0,87,87,151,1,eightseven,,,,,,,,,,,,,,,,,,,,,,,,,,,,,,,,,,,,,,,,,,,,,,,,,,,,,,,,,,,,,,,,,,,,,,,,,,,,,,,,,,,,,,,,,,,,,,,,,,,,,,,,,,,,,,,,,,,,,,,,,,,,,,,,,,,,,,,,,
,,615f8daae239715a12492306,2026-03-17_16h07.32.969,kallum_motion_pilot_GIST_update_2,2026.1.1,Win32,59.88023952,615f8daae239715a12492306,69b95efdef24cd8a694e89ee,69b960024a6040ca440812c1,0.0294,0.0294,0,88,88,99,1,sixeight,,,,,,,,,,,,,,,,,,,,,,,,,,,,,,,,,,,,,,,,,,,,,,,,,,,,,,,,,,,,,,,,,,,,,,,,,,,,,,,,,,,,,,,,,,,,,,,,,,,,,,,,,,,,,,,,,,,,,,,,,,,,,,,,,,,,,,,,,
,,615f8daae239715a12492306,2026-03-17_16h07.32.969,kallum_motion_pilot_GIST_update_2,2026.1.1,Win32,59.88023952,615f8daae239715a12492306,69b95efdef24cd8a694e89ee,69b960024a6040ca440812c1,0.0295,0.0295,0,89,89,76,1,threeone,,,,,,,,,,,,,,,,,,,,,,,,,,,,,,,,,,,,,,,,,,,,,,,,,,,,,,,,,,,,,,,,,,,,,,,,,,,,,,,,,,,,,,,,,,,,,,,,,,,,,,,,,,,,,,,,,,,,,,,,,,,,,,,,,,,,,,,,,
,,615f8daae239715a12492306,2026-03-17_16h07.32.969,kallum_motion_pilot_GIST_update_2,2026.1.1,Win32,59.88023952,615f8daae239715a12492306,69b95efdef24cd8a694e89ee,69b960024a6040ca440812c1,0.0296,0.0296,0,90,90,102,1,eightsix,,,,,,,,,,,,,,,,,,,,,,,,,,,,,,,,,,,,,,,,,,,,,,,,,,,,,,,,,,,,,,,,,,,,,,,,,,,,,,,,,,,,,,,,,,,,,,,,,,,,,,,,,,,,,,,,,,,,,,,,,,,,,,,,,,,,,,,,,
,,615f8daae239715a12492306,2026-03-17_16h07.32.969,kallum_motion_pilot_GIST_update_2,2026.1.1,Win32,59.88023952,615f8daae239715a12492306,69b95efdef24cd8a694e89ee,69b960024a6040ca440812c1,0.0297,0.0297,0,91,91,7,1,fourthree,,,,,,,,,,,,,,,,,,,,,,,,,,,,,,,,,,,,,,,,,,,,,,,,,,,,,,,,,,,,,,,,,,,,,,,,,,,,,,,,,,,,,,,,,,,,,,,,,,,,,,,,,,,,,,,,,,,,,,,,,,,,,,,,,,,,,,,,,
,,615f8daae239715a12492306,2026-03-17_16h07.32.969,kallum_motion_pilot_GIST_update_2,2026.1.1,Win32,59.88023952,615f8daae239715a12492306,69b95efdef24cd8a694e89ee,69b960024a6040ca440812c1,0.0297,0.0297,0,92,92,84,1,sevenfive,,,,,,,,,,,,,,,,,,,,,,,,,,,,,,,,,,,,,,,,,,,,,,,,,,,,,,,,,,,,,,,,,,,,,,,,,,,,,,,,,,,,,,,,,,,,,,,,,,,,,,,,,,,,,,,,,,,,,,,,,,,,,,,,,,,,,,,,,
,,615f8daae239715a12492306,2026-03-17_16h07.32.969,kallum_motion_pilot_GIST_update_2,2026.1.1,Win32,59.88023952,615f8daae239715a12492306,69b95efdef24cd8a694e89ee,69b960024a6040ca440812c1,0.0299,0.0299,0,93,93,81,1,fiveseven,,,,,,,,,,,,,,,,,,,,,,,,,,,,,,,,,,,,,,,,,,,,,,,,,,,,,,,,,,,,,,,,,,,,,,,,,,,,,,,,,,,,,,,,,,,,,,,,,,,,,,,,,,,,,,,,,,,,,,,,,,,,,,,,,,,,,,,,,
,,615f8daae239715a12492306,2026-03-17_16h07.32.969,kallum_motion_pilot_GIST_update_2,2026.1.1,Win32,59.88023952,615f8daae239715a12492306,69b95efdef24cd8a694e89ee,69b960024a6040ca440812c1,0.0299,0.0299,0,94,94,21,1,threefour,,,,,,,,,,,,,,,,,,,,,,,,,,,,,,,,,,,,,,,,,,,,,,,,,,,,,,,,,,,,,,,,,,,,,,,,,,,,,,,,,,,,,,,,,,,,,,,,,,,,,,,,,,,,,,,,,,,,,,,,,,,,,,,,,,,,,,,,,
,,615f8daae239715a12492306,2026-03-17_16h07.32.969,kallum_motion_pilot_GIST_update_2,2026.1.1,Win32,59.88023952,615f8daae239715a12492306,69b95efdef24cd8a694e89ee,69b960024a6040ca440812c1,0.03,0.03,0,95,95,131,1,sixeight,,,,,,,,,,,,,,,,,,,,,,,,,,,,,,,,,,,,,,,,,,,,,,,,,,,,,,,,,,,,,,,,,,,,,,,,,,,,,,,,,,,,,,,,,,,,,,,,,,,,,,,,,,,,,,,,,,,,,,,,,,,,,,,,,,,,,,,,,
,,615f8daae239715a12492306,2026-03-17_16h07.32.969,kallum_motion_pilot_GIST_update_2,2026.1.1,Win32,59.88023952,615f8daae239715a12492306,69b95efdef24cd8a694e89ee,69b960024a6040ca440812c1,0.0301,0.0301,0,96,96,52,1,threeone,,,,,,,,,,,,,,,,,,,,,,,,,,,,,,,,,,,,,,,,,,,,,,,,,,,,,,,,,,,,,,,,,,,,,,,,,,,,,,,,,,,,,,,,,,,,,,,,,,,,,,,,,,,,,,,,,,,,,,,,,,,,,,,,,,,,,,,,,
,,615f8daae239715a12492306,2026-03-17_16h07.32.969,kallum_motion_pilot_GIST_update_2,2026.1.1,Win32,59.88023952,615f8daae239715a12492306,69b95efdef24cd8a694e89ee,69b960024a6040ca440812c1,0.0303,0.0303,0,97,97,73,1,onethree,,,,,,,,,,,,,,,,,,,,,,,,,,,,,,,,,,,,,,,,,,,,,,,,,,,,,,,,,,,,,,,,,,,,,,,,,,,,,,,,,,,,,,,,,,,,,,,,,,,,,,,,,,,,,,,,,,,,,,,,,,,,,,,,,,,,,,,,,
,,615f8daae239715a12492306,2026-03-17_16h07.32.969,kallum_motion_pilot_GIST_update_2,2026.1.1,Win32,59.88023952,615f8daae239715a12492306,69b95efdef24cd8a694e89ee,69b960024a6040ca440812c1,0.0304,0.0304,0,98,98,24,1,onetwo,,,,,,,,,,,,,,,,,,,,,,,,,,,,,,,,,,,,,,,,,,,,,,,,,,,,,,,,,,,,,,,,,,,,,,,,,,,,,,,,,,,,,,,,,,,,,,,,,,,,,,,,,,,,,,,,,,,,,,,,,,,,,,,,,,,,,,,,,
,,615f8daae239715a12492306,2026-03-17_16h07.32.969,kallum_motion_pilot_GIST_update_2,2026.1.1,Win32,59.88023952,615f8daae239715a12492306,69b95efdef24cd8a694e89ee,69b960024a6040ca440812c1,0.0304,0.0304,0,99,99,64,1,onetwo,,,,,,,,,,,,,,,,,,,,,,,,,,,,,,,,,,,,,,,,,,,,,,,,,,,,,,,,,,,,,,,,,,,,,,,,,,,,,,,,,,,,,,,,,,,,,,,,,,,,,,,,,,,,,,,,,,,,,,,,,,,,,,,,,,,,,,,,,
,,615f8daae239715a12492306,2026-03-17_16h07.32.969,kallum_motion_pilot_GIST_update_2,2026.1.1,Win32,59.88023952,615f8daae239715a12492306,69b95efdef24cd8a694e89ee,69b960024a6040ca440812c1,0.0305,0.0305,0,100,100,117,1,seveneight,,,,,,,,,,,,,,,,,,,,,,,,,,,,,,,,,,,,,,,,,,,,,,,,,,,,,,,,,,,,,,,,,,,,,,,,,,,,,,,,,,,,,,,,,,,,,,,,,,,,,,,,,,,,,,,,,,,,,,,,,,,,,,,,,,,,,,,,,
,,615f8daae239715a12492306,2026-03-17_16h07.32.969,kallum_motion_pilot_GIST_update_2,2026.1.1,Win32,59.88023952,615f8daae239715a12492306,69b95efdef24cd8a694e89ee,69b960024a6040ca440812c1,0.0306,0.0306,0,101,101,58,1,twoone,,,,,,,,,,,,,,,,,,,,,,,,,,,,,,,,,,,,,,,,,,,,,,,,,,,,,,,,,,,,,,,,,,,,,,,,,,,,,,,,,,,,,,,,,,,,,,,,,,,,,,,,,,,,,,,,,,,,,,,,,,,,,,,,,,,,,,,,,
,,615f8daae239715a12492306,2026-03-17_16h07.32.969,kallum_motion_pilot_GIST_update_2,2026.1.1,Win32,59.88023952,615f8daae239715a12492306,69b95efdef24cd8a694e89ee,69b960024a6040ca440812c1,0.0307,0.0308,0,102,102,30,1,fourtwo,,,,,,,,,,,,,,,,,,,,,,,,,,,,,,,,,,,,,,,,,,,,,,,,,,,,,,,,,,,,,,,,,,,,,,,,,,,,,,,,,,,,,,,,,,,,,,,,,,,,,,,,,,,,,,,,,,,,,,,,,,,,,,,,,,,,,,,,,
,,615f8daae239715a12492306,2026-03-17_16h07.32.969,kallum_motion_pilot_GIST_update_2,2026.1.1,Win32,59.88023952,615f8daae239715a12492306,69b95efdef24cd8a694e89ee,69b960024a6040ca440812c1,0.0308,0.0308,0,103,103,128,1,fivesix,,,,,,,,,,,,,,,,,,,,,,,,,,,,,,,,,,,,,,,,,,,,,,,,,,,,,,,,,,,,,,,,,,,,,,,,,,,,,,,,,,,,,,,,,,,,,,,,,,,,,,,,,,,,,,,,,,,,,,,,,,,,,,,,,,,,,,,,,
,,615f8daae239715a12492306,2026-03-17_16h07.32.969,kallum_motion_pilot_GIST_update_2,2026.1.1,Win32,59.88023952,615f8daae239715a12492306,69b95efdef24cd8a694e89ee,69b960024a6040ca440812c1,0.031,0.031,0,104,104,101,1,seveneight,,,,,,,,,,,,,,,,,,,,,,,,,,,,,,,,,,,,,,,,,,,,,,,,,,,,,,,,,,,,,,,,,,,,,,,,,,,,,,,,,,,,,,,,,,,,,,,,,,,,,,,,,,,,,,,,,,,,,,,,,,,,,,,,,,,,,,,,,
,,615f8daae239715a12492306,2026-03-17_16h07.32.969,kallum_motion_pilot_GIST_update_2,2026.1.1,Win32,59.88023952,615f8daae239715a12492306,69b95efdef24cd8a694e89ee,69b960024a6040ca440812c1,0.0311,0.0311,0,105,105,36,1,threeone,,,,,,,,,,,,,,,,,,,,,,,,,,,,,,,,,,,,,,,,,,,,,,,,,,,,,,,,,,,,,,,,,,,,,,,,,,,,,,,,,,,,,,,,,,,,,,,,,,,,,,,,,,,,,,,,,,,,,,,,,,,,,,,,,,,,,,,,,
,,615f8daae239715a12492306,2026-03-17_16h07.32.969,kallum_motion_pilot_GIST_update_2,2026.1.1,Win32,59.88023952,615f8daae239715a12492306,69b95efdef24cd8a694e89ee,69b960024a6040ca440812c1,0.0311,0.0311,0,106,106,116,1,sevenfive,,,,,,,,,,,,,,,,,,,,,,,,,,,,,,,,,,,,,,,,,,,,,,,,,,,,,,,,,,,,,,,,,,,,,,,,,,,,,,,,,,,,,,,,,,,,,,,,,,,,,,,,,,,,,,,,,,,,,,,,,,,,,,,,,,,,,,,,,
,,615f8daae239715a12492306,2026-03-17_16h07.32.969,kallum_motion_pilot_GIST_update_2,2026.1.1,Win32,59.88023952,615f8daae239715a12492306,69b95efdef24cd8a694e89ee,69b960024a6040ca440812c1,0.0312,0.0312,0,107,107,3,1,twofour,,,,,,,,,,,,,,,,,,,,,,,,,,,,,,,,,,,,,,,,,,,,,,,,,,,,,,,,,,,,,,,,,,,,,,,,,,,,,,,,,,,,,,,,,,,,,,,,,,,,,,,,,,,,,,,,,,,,,,,,,,,,,,,,,,,,,,,,,
,,615f8daae239715a12492306,2026-03-17_16h07.32.969,kallum_motion_pilot_GIST_update_2,2026.1.1,Win32,59.88023952,615f8daae239715a12492306,69b95efdef24cd8a694e89ee,69b960024a6040ca440812c1,0.0313,0.0313,0,108,108,147,1,sixeight,,,,,,,,,,,,,,,,,,,,,,,,,,,,,,,,,,,,,,,,,,,,,,,,,,,,,,,,,,,,,,,,,,,,,,,,,,,,,,,,,,,,,,,,,,,,,,,,,,,,,,,,,,,,,,,,,,,,,,,,,,,,,,,,,,,,,,,,,
,,615f8daae239715a12492306,2026-03-17_16h07.32.969,kallum_motion_pilot_GIST_update_2,2026.1.1,Win32,59.88023952,615f8daae239715a12492306,69b95efdef24cd8a694e89ee,69b960024a6040ca440812c1,0.0313,0.0313,0,109,109,89,1,fiveseven,,,,,,,,,,,,,,,,,,,,,,,,,,,,,,,,,,,,,,,,,,,,,,,,,,,,,,,,,,,,,,,,,,,,,,,,,,,,,,,,,,,,,,,,,,,,,,,,,,,,,,,,,,,,,,,,,,,,,,,,,,,,,,,,,,,,,,,,,
,,615f8daae239715a12492306,2026-03-17_16h07.32.969,kallum_motion_pilot_GIST_update_2,2026.1.1,Win32,59.88023952,615f8daae239715a12492306,69b95efdef24cd8a694e89ee,69b960024a6040ca440812c1,0.0315,0.0315,0,110,110,91,1,sixeight,,,,,,,,,,,,,,,,,,,,,,,,,,,,,,,,,,,,,,,,,,,,,,,,,,,,,,,,,,,,,,,,,,,,,,,,,,,,,,,,,,,,,,,,,,,,,,,,,,,,,,,,,,,,,,,,,,,,,,,,,,,,,,,,,,,,,,,,,
,,615f8daae239715a12492306,2026-03-17_16h07.32.969,kallum_motion_pilot_GIST_update_2,2026.1.1,Win32,59.88023952,615f8daae239715a12492306,69b95efdef24cd8a694e89ee,69b960024a6040ca440812c1,0.0316,0.0316,0,111,111,144,1,fivesix,,,,,,,,,,,,,,,,,,,,,,,,,,,,,,,,,,,,,,,,,,,,,,,,,,,,,,,,,,,,,,,,,,,,,,,,,,,,,,,,,,,,,,,,,,,,,,,,,,,,,,,,,,,,,,,,,,,,,,,,,,,,,,,,,,,,,,,,,
,,615f8daae239715a12492306,2026-03-17_16h07.32.969,kallum_motion_pilot_GIST_update_2,2026.1.1,Win32,59.88023952,615f8daae239715a12492306,69b95efdef24cd8a694e89ee,69b960024a6040ca440812c1,0.0317,0.0317,0,112,112,113,1,fiveseven,,,,,,,,,,,,,,,,,,,,,,,,,,,,,,,,,,,,,,,,,,,,,,,,,,,,,,,,,,,,,,,,,,,,,,,,,,,,,,,,,,,,,,,,,,,,,,,,,,,,,,,,,,,,,,,,,,,,,,,,,,,,,,,,,,,,,,,,,
,,615f8daae239715a12492306,2026-03-17_16h07.32.969,kallum_motion_pilot_GIST_update_2,2026.1.1,Win32,59.88023952,615f8daae239715a12492306,69b95efdef24cd8a694e89ee,69b960024a6040ca440812c1,0.0318,0.0318,0,113,113,125,1,seveneight,,,,,,,,,,,,,,,,,,,,,,,,,,,,,,,,,,,,,,,,,,,,,,,,,,,,,,,,,,,,,,,,,,,,,,,,,,,,,,,,,,,,,,,,,,,,,,,,,,,,,,,,,,,,,,,,,,,,,,,,,,,,,,,,,,,,,,,,,
,,615f8daae239715a12492306,2026-03-17_16h07.32.969,kallum_motion_pilot_GIST_update_2,2026.1.1,Win32,59.88023952,615f8daae239715a12492306,69b95efdef24cd8a694e89ee,69b960024a6040ca440812c1,0.0319,0.0319,0,114,114,129,1,fiveseven,,,,,,,,,,,,,,,,,,,,,,,,,,,,,,,,,,,,,,,,,,,,,,,,,,,,,,,,,,,,,,,,,,,,,,,,,,,,,,,,,,,,,,,,,,,,,,,,,,,,,,,,,,,,,,,,,,,,,,,,,,,,,,,,,,,,,,,,,
,,615f8daae239715a12492306,2026-03-17_16h07.32.969,kallum_motion_pilot_GIST_update_2,2026.1.1,Win32,59.88023952,615f8daae239715a12492306,69b95efdef24cd8a694e89ee,69b960024a6040ca440812c1,0.0319,0.0319,0,115,115,138,1,sixfive,,,,,,,,,,,,,,,,,,,,,,,,,,,,,,,,,,,,,,,,,,,,,,,,,,,,,,,,,,,,,,,,,,,,,,,,,,,,,,,,,,,,,,,,,,,,,,,,,,,,,,,,,,,,,,,,,,,,,,,,,,,,,,,,,,,,,,,,,
,,615f8daae239715a12492306,2026-03-17_16h07.32.969,kallum_motion_pilot_GIST_update_2,2026.1.1,Win32,59.88023952,615f8daae239715a12492306,69b95efdef24cd8a694e89ee,69b960024a6040ca440812c1,0.0321,0.0321,0,116,116,145,1,fiveseven,,,,,,,,,,,,,,,,,,,,,,,,,,,,,,,,,,,,,,,,,,,,,,,,,,,,,,,,,,,,,,,,,,,,,,,,,,,,,,,,,,,,,,,,,,,,,,,,,,,,,,,,,,,,,,,,,,,,,,,,,,,,,,,,,,,,,,,,,
,,615f8daae239715a12492306,2026-03-17_16h07.32.969,kallum_motion_pilot_GIST_update_2,2026.1.1,Win32,59.88023952,615f8daae239715a12492306,69b95efdef24cd8a694e89ee,69b960024a6040ca440812c1,0.0321,0.0321,0,117,117,6,1,fourtwo,,,,,,,,,,,,,,,,,,,,,,,,,,,,,,,,,,,,,,,,,,,,,,,,,,,,,,,,,,,,,,,,,,,,,,,,,,,,,,,,,,,,,,,,,,,,,,,,,,,,,,,,,,,,,,,,,,,,,,,,,,,,,,,,,,,,,,,,,
,,615f8daae239715a12492306,2026-03-17_16h07.32.969,kallum_motion_pilot_GIST_update_2,2026.1.1,Win32,59.88023952,615f8daae239715a12492306,69b95efdef24cd8a694e89ee,69b960024a6040ca440812c1,0.0322,0.0322,0,118,118,79,1,eightseven,,,,,,,,,,,,,,,,,,,,,,,,,,,,,,,,,,,,,,,,,,,,,,,,,,,,,,,,,,,,,,,,,,,,,,,,,,,,,,,,,,,,,,,,,,,,,,,,,,,,,,,,,,,,,,,,,,,,,,,,,,,,,,,,,,,,,,,,,
,,615f8daae239715a12492306,2026-03-17_16h07.32.969,kallum_motion_pilot_GIST_update_2,2026.1.1,Win32,59.88023952,615f8daae239715a12492306,69b95efdef24cd8a694e89ee,69b960024a6040ca440812c1,0.0323,0.0323,0,119,119,65,1,onethree,,,,,,,,,,,,,,,,,,,,,,,,,,,,,,,,,,,,,,,,,,,,,,,,,,,,,,,,,,,,,,,,,,,,,,,,,,,,,,,,,,,,,,,,,,,,,,,,,,,,,,,,,,,,,,,,,,,,,,,,,,,,,,,,,,,,,,,,,
,,615f8daae239715a12492306,2026-03-17_16h07.32.969,kallum_motion_pilot_GIST_update_2,2026.1.1,Win32,59.88023952,615f8daae239715a12492306,69b95efdef24cd8a694e89ee,69b960024a6040ca440812c1,0.0324,0.0324,0,120,120,40,1,onetwo,,,,,,,,,,,,,,,,,,,,,,,,,,,,,,,,,,,,,,,,,,,,,,,,,,,,,,,,,,,,,,,,,,,,,,,,,,,,,,,,,,,,,,,,,,,,,,,,,,,,,,,,,,,,,,,,,,,,,,,,,,,,,,,,,,,,,,,,,
,,615f8daae239715a12492306,2026-03-17_16h07.32.969,kallum_motion_pilot_GIST_update_2,2026.1.1,Win32,59.88023952,615f8daae239715a12492306,69b95efdef24cd8a694e89ee,69b960024a6040ca440812c1,0.0326,0.0326,0,121,121,19,1,twofour,,,,,,,,,,,,,,,,,,,,,,,,,,,,,,,,,,,,,,,,,,,,,,,,,,,,,,,,,,,,,,,,,,,,,,,,,,,,,,,,,,,,,,,,,,,,,,,,,,,,,,,,,,,,,,,,,,,,,,,,,,,,,,,,,,,,,,,,,
,,615f8daae239715a12492306,2026-03-17_16h07.32.969,kallum_motion_pilot_GIST_update_2,2026.1.1,Win32,59.88023952,615f8daae239715a12492306,69b95efdef24cd8a694e89ee,69b960024a6040ca440812c1,0.0327,0.0327,0,122,122,110,1,eightsix,,,,,,,,,,,,,,,,,,,,,,,,,,,,,,,,,,,,,,,,,,,,,,,,,,,,,,,,,,,,,,,,,,,,,,,,,,,,,,,,,,,,,,,,,,,,,,,,,,,,,,,,,,,,,,,,,,,,,,,,,,,,,,,,,,,,,,,,,
,,615f8daae239715a12492306,2026-03-17_16h07.32.969,kallum_motion_pilot_GIST_update_2,2026.1.1,Win32,59.88023952,615f8daae239715a12492306,69b95efdef24cd8a694e89ee,69b960024a6040ca440812c1,0.0327,0.0327,0,123,123,74,1,twoone,,,,,,,,,,,,,,,,,,,,,,,,,,,,,,,,,,,,,,,,,,,,,,,,,,,,,,,,,,,,,,,,,,,,,,,,,,,,,,,,,,,,,,,,,,,,,,,,,,,,,,,,,,,,,,,,,,,,,,,,,,,,,,,,,,,,,,,,,
,,615f8daae239715a12492306,2026-03-17_16h07.32.969,kallum_motion_pilot_GIST_update_2,2026.1.1,Win32,59.88023952,615f8daae239715a12492306,69b95efdef24cd8a694e89ee,69b960024a6040ca440812c1,0.0329,0.0329,0,124,124,42,1,twoone,,,,,,,,,,,,,,,,,,,,,,,,,,,,,,,,,,,,,,,,,,,,,,,,,,,,,,,,,,,,,,,,,,,,,,,,,,,,,,,,,,,,,,,,,,,,,,,,,,,,,,,,,,,,,,,,,,,,,,,,,,,,,,,,,,,,,,,,,
,,615f8daae239715a12492306,2026-03-17_16h07.32.969,kallum_motion_pilot_GIST_update_2,2026.1.1,Win32,59.88023952,615f8daae239715a12492306,69b95efdef24cd8a694e89ee,69b960024a6040ca440812c1,0.033,0.033,0,125,125,156,1,sevenfive,,,,,,,,,,,,,,,,,,,,,,,,,,,,,,,,,,,,,,,,,,,,,,,,,,,,,,,,,,,,,,,,,,,,,,,,,,,,,,,,,,,,,,,,,,,,,,,,,,,,,,,,,,,,,,,,,,,,,,,,,,,,,,,,,,,,,,,,,
,,615f8daae239715a12492306,2026-03-17_16h07.32.969,kallum_motion_pilot_GIST_update_2,2026.1.1,Win32,59.88023952,615f8daae239715a12492306,69b95efdef24cd8a694e89ee,69b960024a6040ca440812c1,0.0331,0.0331,0,126,126,54,1,fourtwo,,,,,,,,,,,,,,,,,,,,,,,,,,,,,,,,,,,,,,,,,,,,,,,,,,,,,,,,,,,,,,,,,,,,,,,,,,,,,,,,,,,,,,,,,,,,,,,,,,,,,,,,,,,,,,,,,,,,,,,,,,,,,,,,,,,,,,,,,
,,615f8daae239715a12492306,2026-03-17_16h07.32.969,kallum_motion_pilot_GIST_update_2,2026.1.1,Win32,59.88023952,615f8daae239715a12492306,69b95efdef24cd8a694e89ee,69b960024a6040ca440812c1,0.0333,0.0333,0,127,127,127,1,eightseven,,,,,,,,,,,,,,,,,,,,,,,,,,,,,,,,,,,,,,,,,,,,,,,,,,,,,,,,,,,,,,,,,,,,,,,,,,,,,,,,,,,,,,,,,,,,,,,,,,,,,,,,,,,,,,,,,,,,,,,,,,,,,,,,,,,,,,,,,
,,615f8daae239715a12492306,2026-03-17_16h07.32.969,kallum_motion_pilot_GIST_update_2,2026.1.1,Win32,59.88023952,615f8daae239715a12492306,69b95efdef24cd8a694e89ee,69b960024a6040ca440812c1,0.0333,0.0333,0,128,128,37,1,threefour,,,,,,,,,,,,,,,,,,,,,,,,,,,,,,,,,,,,,,,,,,,,,,,,,,,,,,,,,,,,,,,,,,,,,,,,,,,,,,,,,,,,,,,,,,,,,,,,,,,,,,,,,,,,,,,,,,,,,,,,,,,,,,,,,,,,,,,,,
,,615f8daae239715a12492306,2026-03-17_16h07.32.969,kallum_motion_pilot_GIST_update_2,2026.1.1,Win32,59.88023952,615f8daae239715a12492306,69b95efdef24cd8a694e89ee,69b960024a6040ca440812c1,0.0335,0.0335,0,129,129,38,1,fourtwo,,,,,,,,,,,,,,,,,,,,,,,,,,,,,,,,,,,,,,,,,,,,,,,,,,,,,,,,,,,,,,,,,,,,,,,,,,,,,,,,,,,,,,,,,,,,,,,,,,,,,,,,,,,,,,,,,,,,,,,,,,,,,,,,,,,,,,,,,
,,615f8daae239715a12492306,2026-03-17_16h07.32.969,kallum_motion_pilot_GIST_update_2,2026.1.1,Win32,59.88023952,615f8daae239715a12492306,69b95efdef24cd8a694e89ee,69b960024a6040ca440812c1,0.0335,0.0335,0,130,130,108,1,sevenfive,,,,,,,,,,,,,,,,,,,,,,,,,,,,,,,,,,,,,,,,,,,,,,,,,,,,,,,,,,,,,,,,,,,,,,,,,,,,,,,,,,,,,,,,,,,,,,,,,,,,,,,,,,,,,,,,,,,,,,,,,,,,,,,,,,,,,,,,,
,,615f8daae239715a12492306,2026-03-17_16h07.32.969,kallum_motion_pilot_GIST_update_2,2026.1.1,Win32,59.88023952,615f8daae239715a12492306,69b95efdef24cd8a694e89ee,69b960024a6040ca440812c1,0.0336,0.0336,0,131,131,16,1,onetwo,,,,,,,,,,,,,,,,,,,,,,,,,,,,,,,,,,,,,,,,,,,,,,,,,,,,,,,,,,,,,,,,,,,,,,,,,,,,,,,,,,,,,,,,,,,,,,,,,,,,,,,,,,,,,,,,,,,,,,,,,,,,,,,,,,,,,,,,,
,,615f8daae239715a12492306,2026-03-17_16h07.32.969,kallum_motion_pilot_GIST_update_2,2026.1.1,Win32,59.88023952,615f8daae239715a12492306,69b95efdef24cd8a694e89ee,69b960024a6040ca440812c1,0.0337,0.0337,0,132,132,154,1,sixfive,,,,,,,,,,,,,,,,,,,,,,,,,,,,,,,,,,,,,,,,,,,,,,,,,,,,,,,,,,,,,,,,,,,,,,,,,,,,,,,,,,,,,,,,,,,,,,,,,,,,,,,,,,,,,,,,,,,,,,,,,,,,,,,,,,,,,,,,,
,,615f8daae239715a12492306,2026-03-17_16h07.32.969,kallum_motion_pilot_GIST_update_2,2026.1.1,Win32,59.88023952,615f8daae239715a12492306,69b95efdef24cd8a694e89ee,69b960024a6040ca440812c1,0.0338,0.0338,0,133,133,47,1,fourthree,,,,,,,,,,,,,,,,,,,,,,,,,,,,,,,,,,,,,,,,,,,,,,,,,,,,,,,,,,,,,,,,,,,,,,,,,,,,,,,,,,,,,,,,,,,,,,,,,,,,,,,,,,,,,,,,,,,,,,,,,,,,,,,,,,,,,,,,,
,,615f8daae239715a12492306,2026-03-17_16h07.32.969,kallum_motion_pilot_GIST_update_2,2026.1.1,Win32,59.88023952,615f8daae239715a12492306,69b95efdef24cd8a694e89ee,69b960024a6040ca440812c1,0.0339,0.0339,0,134,134,66,1,twoone,,,,,,,,,,,,,,,,,,,,,,,,,,,,,,,,,,,,,,,,,,,,,,,,,,,,,,,,,,,,,,,,,,,,,,,,,,,,,,,,,,,,,,,,,,,,,,,,,,,,,,,,,,,,,,,,,,,,,,,,,,,,,,,,,,,,,,,,,
,,615f8daae239715a12492306,2026-03-17_16h07.32.969,kallum_motion_pilot_GIST_update_2,2026.1.1,Win32,59.88023952,615f8daae239715a12492306,69b95efdef24cd8a694e89ee,69b960024a6040ca440812c1,0.034,0.034,0,135,135,15,1,fourthree,,,,,,,,,,,,,,,,,,,,,,,,,,,,,,,,,,,,,,,,,,,,,,,,,,,,,,,,,,,,,,,,,,,,,,,,,,,,,,,,,,,,,,,,,,,,,,,,,,,,,,,,,,,,,,,,,,,,,,,,,,,,,,,,,,,,,,,,,
,,615f8daae239715a12492306,2026-03-17_16h07.32.969,kallum_motion_pilot_GIST_update_2,2026.1.1,Win32,59.88023952,615f8daae239715a12492306,69b95efdef24cd8a694e89ee,69b960024a6040ca440812c1,0.0341,0.0341,0,136,136,105,1,fiveseven,,,,,,,,,,,,,,,,,,,,,,,,,,,,,,,,,,,,,,,,,,,,,,,,,,,,,,,,,,,,,,,,,,,,,,,,,,,,,,,,,,,,,,,,,,,,,,,,,,,,,,,,,,,,,,,,,,,,,,,,,,,,,,,,,,,,,,,,,
,,615f8daae239715a12492306,2026-03-17_16h07.32.969,kallum_motion_pilot_GIST_update_2,2026.1.1,Win32,59.88023952,615f8daae239715a12492306,69b95efdef24cd8a694e89ee,69b960024a6040ca440812c1,0.0342,0.0342,0,137,137,60,1,threeone,,,,,,,,,,,,,,,,,,,,,,,,,,,,,,,,,,,,,,,,,,,,,,,,,,,,,,,,,,,,,,,,,,,,,,,,,,,,,,,,,,,,,,,,,,,,,,,,,,,,,,,,,,,,,,,,,,,,,,,,,,,,,,,,,,,,,,,,,
,,615f8daae239715a12492306,2026-03-17_16h07.32.969,kallum_motion_pilot_GIST_update_2,2026.1.1,Win32,59.88023952,615f8daae239715a12492306,69b95efdef24cd8a694e89ee,69b960024a6040ca440812c1,0.0343,0.0343,0,138,138,31,1,fourthree,,,,,,,,,,,,,,,,,,,,,,,,,,,,,,,,,,,,,,,,,,,,,,,,,,,,,,,,,,,,,,,,,,,,,,,,,,,,,,,,,,,,,,,,,,,,,,,,,,,,,,,,,,,,,,,,,,,,,,,,,,,,,,,,,,,,,,,,,
,,615f8daae239715a12492306,2026-03-17_16h07.32.969,kallum_motion_pilot_GIST_update_2,2026.1.1,Win32,59.88023952,615f8daae239715a12492306,69b95efdef24cd8a694e89ee,69b960024a6040ca440812c1,0.0343,0.0343,0,139,139,150,1,eightsix,,,,,,,,,,,,,,,,,,,,,,,,,,,,,,,,,,,,,,,,,,,,,,,,,,,,,,,,,,,,,,,,,,,,,,,,,,,,,,,,,,,,,,,,,,,,,,,,,,,,,,,,,,,,,,,,,,,,,,,,,,,,,,,,,,,,,,,,,
,,615f8daae239715a12492306,2026-03-17_16h07.32.969,kallum_motion_pilot_GIST_update_2,2026.1.1,Win32,59.88023952,615f8daae239715a12492306,69b95efdef24cd8a694e89ee,69b960024a6040ca440812c1,0.0345,0.0345,0,140,140,43,1,twofour,,,,,,,,,,,,,,,,,,,,,,,,,,,,,,,,,,,,,,,,,,,,,,,,,,,,,,,,,,,,,,,,,,,,,,,,,,,,,,,,,,,,,,,,,,,,,,,,,,,,,,,,,,,,,,,,,,,,,,,,,,,,,,,,,,,,,,,,,
,,615f8daae239715a12492306,2026-03-17_16h07.32.969,kallum_motion_pilot_GIST_update_2,2026.1.1,Win32,59.88023952,615f8daae239715a12492306,69b95efdef24cd8a694e89ee,69b960024a6040ca440812c1,0.0346,0.0346,0,141,141,121,1,fiveseven,,,,,,,,,,,,,,,,,,,,,,,,,,,,,,,,,,,,,,,,,,,,,,,,,,,,,,,,,,,,,,,,,,,,,,,,,,,,,,,,,,,,,,,,,,,,,,,,,,,,,,,,,,,,,,,,,,,,,,,,,,,,,,,,,,,,,,,,,
,,615f8daae239715a12492306,2026-03-17_16h07.32.969,kallum_motion_pilot_GIST_update_2,2026.1.1,Win32,59.88023952,615f8daae239715a12492306,69b95efdef24cd8a694e89ee,69b960024a6040ca440812c1,0.0347,0.0347,0,142,142,72,1,onetwo,,,,,,,,,,,,,,,,,,,,,,,,,,,,,,,,,,,,,,,,,,,,,,,,,,,,,,,,,,,,,,,,,,,,,,,,,,,,,,,,,,,,,,,,,,,,,,,,,,,,,,,,,,,,,,,,,,,,,,,,,,,,,,,,,,,,,,,,,
,,615f8daae239715a12492306,2026-03-17_16h07.32.969,kallum_motion_pilot_GIST_update_2,2026.1.1,Win32,59.88023952,615f8daae239715a12492306,69b95efdef24cd8a694e89ee,69b960024a6040ca440812c1,0.0348,0.0348,0,143,143,44,1,threeone,,,,,,,,,,,,,,,,,,,,,,,,,,,,,,,,,,,,,,,,,,,,,,,,,,,,,,,,,,,,,,,,,,,,,,,,,,,,,,,,,,,,,,,,,,,,,,,,,,,,,,,,,,,,,,,,,,,,,,,,,,,,,,,,,,,,,,,,,
,,615f8daae239715a12492306,2026-03-17_16h07.32.969,kallum_motion_pilot_GIST_update_2,2026.1.1,Win32,59.88023952,615f8daae239715a12492306,69b95efdef24cd8a694e89ee,69b960024a6040ca440812c1,0.0349,0.0349,0,144,144,27,1,twofour,,,,,,,,,,,,,,,,,,,,,,,,,,,,,,,,,,,,,,,,,,,,,,,,,,,,,,,,,,,,,,,,,,,,,,,,,,,,,,,,,,,,,,,,,,,,,,,,,,,,,,,,,,,,,,,,,,,,,,,,,,,,,,,,,,,,,,,,,
,,615f8daae239715a12492306,2026-03-17_16h07.32.969,kallum_motion_pilot_GIST_update_2,2026.1.1,Win32,59.88023952,615f8daae239715a12492306,69b95efdef24cd8a694e89ee,69b960024a6040ca440812c1,0.035,0.035,0,145,145,136,1,fivesix,,,,,,,,,,,,,,,,,,,,,,,,,,,,,,,,,,,,,,,,,,,,,,,,,,,,,,,,,,,,,,,,,,,,,,,,,,,,,,,,,,,,,,,,,,,,,,,,,,,,,,,,,,,,,,,,,,,,,,,,,,,,,,,,,,,,,,,,,
,,615f8daae239715a12492306,2026-03-17_16h07.32.969,kallum_motion_pilot_GIST_update_2,2026.1.1,Win32,59.88023952,615f8daae239715a12492306,69b95efdef24cd8a694e89ee,69b960024a6040ca440812c1,0.0351,0.0351,0,146,146,75,1,twofour,,,,,,,,,,,,,,,,,,,,,,,,,,,,,,,,,,,,,,,,,,,,,,,,,,,,,,,,,,,,,,,,,,,,,,,,,,,,,,,,,,,,,,,,,,,,,,,,,,,,,,,,,,,,,,,,,,,,,,,,,,,,,,,,,,,,,,,,,
,,615f8daae239715a12492306,2026-03-17_16h07.32.969,kallum_motion_pilot_GIST_update_2,2026.1.1,Win32,59.88023952,615f8daae239715a12492306,69b95efdef24cd8a694e89ee,69b960024a6040ca440812c1,0.0352,0.0352,0,147,147,141,1,seveneight,,,,,,,,,,,,,,,,,,,,,,,,,,,,,,,,,,,,,,,,,,,,,,,,,,,,,,,,,,,,,,,,,,,,,,,,,,,,,,,,,,,,,,,,,,,,,,,,,,,,,,,,,,,,,,,,,,,,,,,,,,,,,,,,,,,,,,,,,
,,615f8daae239715a12492306,2026-03-17_16h07.32.969,kallum_motion_pilot_GIST_update_2,2026.1.1,Win32,59.88023952,615f8daae239715a12492306,69b95efdef24cd8a694e89ee,69b960024a6040ca440812c1,0.0353,0.0353,0,148,148,106,1,sixfive,,,,,,,,,,,,,,,,,,,,,,,,,,,,,,,,,,,,,,,,,,,,,,,,,,,,,,,,,,,,,,,,,,,,,,,,,,,,,,,,,,,,,,,,,,,,,,,,,,,,,,,,,,,,,,,,,,,,,,,,,,,,,,,,,,,,,,,,,
,,615f8daae239715a12492306,2026-03-17_16h07.32.969,kallum_motion_pilot_GIST_update_2,2026.1.1,Win32,59.88023952,615f8daae239715a12492306,69b95efdef24cd8a694e89ee,69b960024a6040ca440812c1,0.0353,0.0353,0,149,149,12,1,threeone,,,,,,,,,,,,,,,,,,,,,,,,,,,,,,,,,,,,,,,,,,,,,,,,,,,,,,,,,,,,,,,,,,,,,,,,,,,,,,,,,,,,,,,,,,,,,,,,,,,,,,,,,,,,,,,,,,,,,,,,,,,,,,,,,,,,,,,,,
,,615f8daae239715a12492306,2026-03-17_16h07.32.969,kallum_motion_pilot_GIST_update_2,2026.1.1,Win32,59.88023952,615f8daae239715a12492306,69b95efdef24cd8a694e89ee,69b960024a6040ca440812c1,0.0355,0.0355,0,150,150,140,1,sevenfive,,,,,,,,,,,,,,,,,,,,,,,,,,,,,,,,,,,,,,,,,,,,,,,,,,,,,,,,,,,,,,,,,,,,,,,,,,,,,,,,,,,,,,,,,,,,,,,,,,,,,,,,,,,,,,,,,,,,,,,,,,,,,,,,,,,,,,,,,
,,615f8daae239715a12492306,2026-03-17_16h07.32.969,kallum_motion_pilot_GIST_update_2,2026.1.1,Win32,59.88023952,615f8daae239715a12492306,69b95efdef24cd8a694e89ee,69b960024a6040ca440812c1,0.0355,0.0355,0,151,151,77,1,threefour,,,,,,,,,,,,,,,,,,,,,,,,,,,,,,,,,,,,,,,,,,,,,,,,,,,,,,,,,,,,,,,,,,,,,,,,,,,,,,,,,,,,,,,,,,,,,,,,,,,,,,,,,,,,,,,,,,,,,,,,,,,,,,,,,,,,,,,,,
,,615f8daae239715a12492306,2026-03-17_16h07.32.969,kallum_motion_pilot_GIST_update_2,2026.1.1,Win32,59.88023952,615f8daae239715a12492306,69b95efdef24cd8a694e89ee,69b960024a6040ca440812c1,0.0357,0.0357,0,152,152,83,1,sixeight,,,,,,,,,,,,,,,,,,,,,,,,,,,,,,,,,,,,,,,,,,,,,,,,,,,,,,,,,,,,,,,,,,,,,,,,,,,,,,,,,,,,,,,,,,,,,,,,,,,,,,,,,,,,,,,,,,,,,,,,,,,,,,,,,,,,,,,,,
,,615f8daae239715a12492306,2026-03-17_16h07.32.969,kallum_motion_pilot_GIST_update_2,2026.1.1,Win32,59.88023952,615f8daae239715a12492306,69b95efdef24cd8a694e89ee,69b960024a6040ca440812c1,0.0357,0.0357,0,153,153,159,1,eightseven,,,,,,,,,,,,,,,,,,,,,,,,,,,,,,,,,,,,,,,,,,,,,,,,,,,,,,,,,,,,,,,,,,,,,,,,,,,,,,,,,,,,,,,,,,,,,,,,,,,,,,,,,,,,,,,,,,,,,,,,,,,,,,,,,,,,,,,,,
,,615f8daae239715a12492306,2026-03-17_16h07.32.969,kallum_motion_pilot_GIST_update_2,2026.1.1,Win32,59.88023952,615f8daae239715a12492306,69b95efdef24cd8a694e89ee,69b960024a6040ca440812c1,0.0358,0.0358,0,154,154,10,1,twoone,,,,,,,,,,,,,,,,,,,,,,,,,,,,,,,,,,,,,,,,,,,,,,,,,,,,,,,,,,,,,,,,,,,,,,,,,,,,,,,,,,,,,,,,,,,,,,,,,,,,,,,,,,,,,,,,,,,,,,,,,,,,,,,,,,,,,,,,,
,,615f8daae239715a12492306,2026-03-17_16h07.32.969,kallum_motion_pilot_GIST_update_2,2026.1.1,Win32,59.88023952,615f8daae239715a12492306,69b95efdef24cd8a694e89ee,69b960024a6040ca440812c1,0.0359,0.0359,0,155,155,49,1,onethree,,,,,,,,,,,,,,,,,,,,,,,,,,,,,,,,,,,,,,,,,,,,,,,,,,,,,,,,,,,,,,,,,,,,,,,,,,,,,,,,,,,,,,,,,,,,,,,,,,,,,,,,,,,,,,,,,,,,,,,,,,,,,,,,,,,,,,,,,
,,615f8daae239715a12492306,2026-03-17_16h07.32.969,kallum_motion_pilot_GIST_update_2,2026.1.1,Win32,59.88023952,615f8daae239715a12492306,69b95efdef24cd8a694e89ee,69b960024a6040ca440812c1,0.036,0.036,0,156,156,143,1,eightseven,,,,,,,,,,,,,,,,,,,,,,,,,,,,,,,,,,,,,,,,,,,,,,,,,,,,,,,,,,,,,,,,,,,,,,,,,,,,,,,,,,,,,,,,,,,,,,,,,,,,,,,,,,,,,,,,,,,,,,,,,,,,,,,,,,,,,,,,,
,,615f8daae239715a12492306,2026-03-17_16h07.32.969,kallum_motion_pilot_GIST_update_2,2026.1.1,Win32,59.88023952,615f8daae239715a12492306,69b95efdef24cd8a694e89ee,69b960024a6040ca440812c1,0.0361,0.0362,0,157,157,1,1,onethree,,,,,,,,,,,,,,,,,,,,,,,,,,,,,,,,,,,,,,,,,,,,,,,,,,,,,,,,,,,,,,,,,,,,,,,,,,,,,,,,,,,,,,,,,,,,,,,,,,,,,,,,,,,,,,,,,,,,,,,,,,,,,,,,,,,,,,,,,
,,615f8daae239715a12492306,2026-03-17_16h07.32.969,kallum_motion_pilot_GIST_update_2,2026.1.1,Win32,59.88023952,615f8daae239715a12492306,69b95efdef24cd8a694e89ee,69b960024a6040ca440812c1,0.0362,0.0362,0,158,158,93,1,seveneight,,,,,,,,,,,,,,,,,,,,,,,,,,,,,,,,,,,,,,,,,,,,,,,,,,,,,,,,,,,,,,,,,,,,,,,,,,,,,,,,,,,,,,,,,,,,,,,,,,,,,,,,,,,,,,,,,,,,,,,,,,,,,,,,,,,,,,,,,
,,615f8daae239715a12492306,2026-03-17_16h07.32.969,kallum_motion_pilot_GIST_update_2,2026.1.1,Win32,59.88023952,615f8daae239715a12492306,69b95efdef24cd8a694e89ee,69b960024a6040ca440812c1,0.0363,0.0363,0,159,159,80,1,fivesix,,,,,,,,,,,,,,,,,,,,,,,,,,,,,,,,,,,,,,,,,,,,,,,,,,,,,,,,,,,,,,,,,,,,,,,,,,,,,,,,,,,,,,,,,,,,,,,,,,,,,,,,,,,,,,,,,,,,,,,,,,,,,,,,,,,,,,,,,
,,615f8daae239715a12492306,2026-03-17_16h07.32.969,kallum_motion_pilot_GIST_update_2,2026.1.1,Win32,59.88023952,615f8daae239715a12492306,69b95efdef24cd8a694e89ee,69b960024a6040ca440812c1,0.0364,0.0364,0,160,160,9,1,onethree,,,,,,,,,,,,,,,,,,,,,,,,,,,,,,,,,,,,,,,,,,,,,,,,,,,,,,,,,,,,,,,,,,,,,,,,,,,,,,,,,,,,,,,,,,,,,,,,,,,,,,,,,,,,,,,,,,,,,,,,,,,,,,,,,,,,,,,,,
,,615f8daae239715a12492306,2026-03-17_16h07.32.969,kallum_motion_pilot_GIST_update_2,2026.1.1,Win32,59.88023952,615f8daae239715a12492306,69b95efdef24cd8a694e89ee,69b960024a6040ca440812c1,0.0365,0.0365,0,161,161,118,1,eightsix,,,,,,,,,,,,,,,,,,,,,,,,,,,,,,,,,,,,,,,,,,,,,,,,,,,,,,,,,,,,,,,,,,,,,,,,,,,,,,,,,,,,,,,,,,,,,,,,,,,,,,,,,,,,,,,,,,,,,,,,,,,,,,,,,,,,,,,,,
,,615f8daae239715a12492306,2026-03-17_16h07.32.969,kallum_motion_pilot_GIST_update_2,2026.1.1,Win32,59.88023952,615f8daae239715a12492306,69b95efdef24cd8a694e89ee,69b960024a6040ca440812c1,0.0366,0.0366,1,0,162,6,1,fourtwo,,,,,,,,,,,,,,,,,,,,,,,,,,,,,,,,,,,,,,,,,,,,,,,,,,,,,,,,,,,,,,,,,,,,,,,,,,,,,,,,,,,,,,,,,,,,,,,,,,,,,,,,,,,,,,,,,,,,,,,,,,,,,,,,,,,,,,,,,
,,615f8daae239715a12492306,2026-03-17_16h07.32.969,kallum_motion_pilot_GIST_update_2,2026.1.1,Win32,59.88023952,615f8daae239715a12492306,69b95efdef24cd8a694e89ee,69b960024a6040ca440812c1,0.0367,0.0367,1,1,163,96,1,fivesix,,,,,,,,,,,,,,,,,,,,,,,,,,,,,,,,,,,,,,,,,,,,,,,,,,,,,,,,,,,,,,,,,,,,,,,,,,,,,,,,,,,,,,,,,,,,,,,,,,,,,,,,,,,,,,,,,,,,,,,,,,,,,,,,,,,,,,,,,
,,615f8daae239715a12492306,2026-03-17_16h07.32.969,kallum_motion_pilot_GIST_update_2,2026.1.1,Win32,59.88023952,615f8daae239715a12492306,69b95efdef24cd8a694e89ee,69b960024a6040ca440812c1,0.0368,0.0368,1,2,164,103,1,eightseven,,,,,,,,,,,,,,,,,,,,,,,,,,,,,,,,,,,,,,,,,,,,,,,,,,,,,,,,,,,,,,,,,,,,,,,,,,,,,,,,,,,,,,,,,,,,,,,,,,,,,,,,,,,,,,,,,,,,,,,,,,,,,,,,,,,,,,,,,
,,615f8daae239715a12492306,2026-03-17_16h07.32.969,kallum_motion_pilot_GIST_update_2,2026.1.1,Win32,59.88023952,615f8daae239715a12492306,69b95efdef24cd8a694e89ee,69b960024a6040ca440812c1,0.0369,0.0369,1,3,165,150,1,eightsix,,,,,,,,,,,,,,,,,,,,,,,,,,,,,,,,,,,,,,,,,,,,,,,,,,,,,,,,,,,,,,,,,,,,,,,,,,,,,,,,,,,,,,,,,,,,,,,,,,,,,,,,,,,,,,,,,,,,,,,,,,,,,,,,,,,,,,,,,
,,615f8daae239715a12492306,2026-03-17_16h07.32.969,kallum_motion_pilot_GIST_update_2,2026.1.1,Win32,59.88023952,615f8daae239715a12492306,69b95efdef24cd8a694e89ee,69b960024a6040ca440812c1,0.037,0.037,1,4,166,157,1,seveneight,,,,,,,,,,,,,,,,,,,,,,,,,,,,,,,,,,,,,,,,,,,,,,,,,,,,,,,,,,,,,,,,,,,,,,,,,,,,,,,,,,,,,,,,,,,,,,,,,,,,,,,,,,,,,,,,,,,,,,,,,,,,,,,,,,,,,,,,,
,,615f8daae239715a12492306,2026-03-17_16h07.32.969,kallum_motion_pilot_GIST_update_2,2026.1.1,Win32,59.88023952,615f8daae239715a12492306,69b95efdef24cd8a694e89ee,69b960024a6040ca440812c1,0.0371,0.0371,1,5,167,107,1,sixeight,,,,,,,,,,,,,,,,,,,,,,,,,,,,,,,,,,,,,,,,,,,,,,,,,,,,,,,,,,,,,,,,,,,,,,,,,,,,,,,,,,,,,,,,,,,,,,,,,,,,,,,,,,,,,,,,,,,,,,,,,,,,,,,,,,,,,,,,,
,,615f8daae239715a12492306,2026-03-17_16h07.32.969,kallum_motion_pilot_GIST_update_2,2026.1.1,Win32,59.88023952,615f8daae239715a12492306,69b95efdef24cd8a694e89ee,69b960024a6040ca440812c1,0.0371,0.0371,1,6,168,127,1,eightseven,,,,,,,,,,,,,,,,,,,,,,,,,,,,,,,,,,,,,,,,,,,,,,,,,,,,,,,,,,,,,,,,,,,,,,,,,,,,,,,,,,,,,,,,,,,,,,,,,,,,,,,,,,,,,,,,,,,,,,,,,,,,,,,,,,,,,,,,,
,,615f8daae239715a12492306,2026-03-17_16h07.32.969,kallum_motion_pilot_GIST_update_2,2026.1.1,Win32,59.88023952,615f8daae239715a12492306,69b95efdef24cd8a694e89ee,69b960024a6040ca440812c1,0.0372,0.0372,1,7,169,108,1,sevenfive,,,,,,,,,,,,,,,,,,,,,,,,,,,,,,,,,,,,,,,,,,,,,,,,,,,,,,,,,,,,,,,,,,,,,,,,,,,,,,,,,,,,,,,,,,,,,,,,,,,,,,,,,,,,,,,,,,,,,,,,,,,,,,,,,,,,,,,,,
,,615f8daae239715a12492306,2026-03-17_16h07.32.969,kallum_motion_pilot_GIST_update_2,2026.1.1,Win32,59.88023952,615f8daae239715a12492306,69b95efdef24cd8a694e89ee,69b960024a6040ca440812c1,0.0373,0.0373,1,8,170,92,1,sevenfive,,,,,,,,,,,,,,,,,,,,,,,,,,,,,,,,,,,,,,,,,,,,,,,,,,,,,,,,,,,,,,,,,,,,,,,,,,,,,,,,,,,,,,,,,,,,,,,,,,,,,,,,,,,,,,,,,,,,,,,,,,,,,,,,,,,,,,,,,
,,615f8daae239715a12492306,2026-03-17_16h07.32.969,kallum_motion_pilot_GIST_update_2,2026.1.1,Win32,59.88023952,615f8daae239715a12492306,69b95efdef24cd8a694e89ee,69b960024a6040ca440812c1,0.0375,0.0375,1,9,171,8,1,onetwo,,,,,,,,,,,,,,,,,,,,,,,,,,,,,,,,,,,,,,,,,,,,,,,,,,,,,,,,,,,,,,,,,,,,,,,,,,,,,,,,,,,,,,,,,,,,,,,,,,,,,,,,,,,,,,,,,,,,,,,,,,,,,,,,,,,,,,,,,
,,615f8daae239715a12492306,2026-03-17_16h07.32.969,kallum_motion_pilot_GIST_update_2,2026.1.1,Win32,59.88023952,615f8daae239715a12492306,69b95efdef24cd8a694e89ee,69b960024a6040ca440812c1,0.0376,0.0376,1,10,172,76,1,threeone,,,,,,,,,,,,,,,,,,,,,,,,,,,,,,,,,,,,,,,,,,,,,,,,,,,,,,,,,,,,,,,,,,,,,,,,,,,,,,,,,,,,,,,,,,,,,,,,,,,,,,,,,,,,,,,,,,,,,,,,,,,,,,,,,,,,,,,,,
,,615f8daae239715a12492306,2026-03-17_16h07.32.969,kallum_motion_pilot_GIST_update_2,2026.1.1,Win32,59.88023952,615f8daae239715a12492306,69b95efdef24cd8a694e89ee,69b960024a6040ca440812c1,0.0377,0.0377,1,11,173,112,1,fivesix,,,,,,,,,,,,,,,,,,,,,,,,,,,,,,,,,,,,,,,,,,,,,,,,,,,,,,,,,,,,,,,,,,,,,,,,,,,,,,,,,,,,,,,,,,,,,,,,,,,,,,,,,,,,,,,,,,,,,,,,,,,,,,,,,,,,,,,,,
,,615f8daae239715a12492306,2026-03-17_16h07.32.969,kallum_motion_pilot_GIST_update_2,2026.1.1,Win32,59.88023952,615f8daae239715a12492306,69b95efdef24cd8a694e89ee,69b960024a6040ca440812c1,0.0378,0.0378,1,12,174,147,1,sixeight,,,,,,,,,,,,,,,,,,,,,,,,,,,,,,,,,,,,,,,,,,,,,,,,,,,,,,,,,,,,,,,,,,,,,,,,,,,,,,,,,,,,,,,,,,,,,,,,,,,,,,,,,,,,,,,,,,,,,,,,,,,,,,,,,,,,,,,,,
,,615f8daae239715a12492306,2026-03-17_16h07.32.969,kallum_motion_pilot_GIST_update_2,2026.1.1,Win32,59.88023952,615f8daae239715a12492306,69b95efdef24cd8a694e89ee,69b960024a6040ca440812c1,0.0379,0.0379,1,13,175,28,1,threeone,,,,,,,,,,,,,,,,,,,,,,,,,,,,,,,,,,,,,,,,,,,,,,,,,,,,,,,,,,,,,,,,,,,,,,,,,,,,,,,,,,,,,,,,,,,,,,,,,,,,,,,,,,,,,,,,,,,,,,,,,,,,,,,,,,,,,,,,,
,,615f8daae239715a12492306,2026-03-17_16h07.32.969,kallum_motion_pilot_GIST_update_2,2026.1.1,Win32,59.88023952,615f8daae239715a12492306,69b95efdef24cd8a694e89ee,69b960024a6040ca440812c1,0.038,0.038,1,14,176,19,1,twofour,,,,,,,,,,,,,,,,,,,,,,,,,,,,,,,,,,,,,,,,,,,,,,,,,,,,,,,,,,,,,,,,,,,,,,,,,,,,,,,,,,,,,,,,,,,,,,,,,,,,,,,,,,,,,,,,,,,,,,,,,,,,,,,,,,,,,,,,,
,,615f8daae239715a12492306,2026-03-17_16h07.32.969,kallum_motion_pilot_GIST_update_2,2026.1.1,Win32,59.88023952,615f8daae239715a12492306,69b95efdef24cd8a694e89ee,69b960024a6040ca440812c1,0.0381,0.0381,1,15,177,83,1,sixeight,,,,,,,,,,,,,,,,,,,,,,,,,,,,,,,,,,,,,,,,,,,,,,,,,,,,,,,,,,,,,,,,,,,,,,,,,,,,,,,,,,,,,,,,,,,,,,,,,,,,,,,,,,,,,,,,,,,,,,,,,,,,,,,,,,,,,,,,,
,,615f8daae239715a12492306,2026-03-17_16h07.32.969,kallum_motion_pilot_GIST_update_2,2026.1.1,Win32,59.88023952,615f8daae239715a12492306,69b95efdef24cd8a694e89ee,69b960024a6040ca440812c1,0.0382,0.0382,1,16,178,97,1,fiveseven,,,,,,,,,,,,,,,,,,,,,,,,,,,,,,,,,,,,,,,,,,,,,,,,,,,,,,,,,,,,,,,,,,,,,,,,,,,,,,,,,,,,,,,,,,,,,,,,,,,,,,,,,,,,,,,,,,,,,,,,,,,,,,,,,,,,,,,,,
,,615f8daae239715a12492306,2026-03-17_16h07.32.969,kallum_motion_pilot_GIST_update_2,2026.1.1,Win32,59.88023952,615f8daae239715a12492306,69b95efdef24cd8a694e89ee,69b960024a6040ca440812c1,0.0382,0.0382,1,17,179,82,1,sixfive,,,,,,,,,,,,,,,,,,,,,,,,,,,,,,,,,,,,,,,,,,,,,,,,,,,,,,,,,,,,,,,,,,,,,,,,,,,,,,,,,,,,,,,,,,,,,,,,,,,,,,,,,,,,,,,,,,,,,,,,,,,,,,,,,,,,,,,,,
,,615f8daae239715a12492306,2026-03-17_16h07.32.969,kallum_motion_pilot_GIST_update_2,2026.1.1,Win32,59.88023952,615f8daae239715a12492306,69b95efdef24cd8a694e89ee,69b960024a6040ca440812c1,0.0384,0.0384,1,18,180,24,1,onetwo,,,,,,,,,,,,,,,,,,,,,,,,,,,,,,,,,,,,,,,,,,,,,,,,,,,,,,,,,,,,,,,,,,,,,,,,,,,,,,,,,,,,,,,,,,,,,,,,,,,,,,,,,,,,,,,,,,,,,,,,,,,,,,,,,,,,,,,,,
,,615f8daae239715a12492306,2026-03-17_16h07.32.969,kallum_motion_pilot_GIST_update_2,2026.1.1,Win32,59.88023952,615f8daae239715a12492306,69b95efdef24cd8a694e89ee,69b960024a6040ca440812c1,0.0385,0.0385,1,19,181,148,1,sevenfive,,,,,,,,,,,,,,,,,,,,,,,,,,,,,,,,,,,,,,,,,,,,,,,,,,,,,,,,,,,,,,,,,,,,,,,,,,,,,,,,,,,,,,,,,,,,,,,,,,,,,,,,,,,,,,,,,,,,,,,,,,,,,,,,,,,,,,,,,
,,615f8daae239715a12492306,2026-03-17_16h07.32.969,kallum_motion_pilot_GIST_update_2,2026.1.1,Win32,59.88023952,615f8daae239715a12492306,69b95efdef24cd8a694e89ee,69b960024a6040ca440812c1,0.0386,0.0386,1,20,182,100,1,sevenfive,,,,,,,,,,,,,,,,,,,,,,,,,,,,,,,,,,,,,,,,,,,,,,,,,,,,,,,,,,,,,,,,,,,,,,,,,,,,,,,,,,,,,,,,,,,,,,,,,,,,,,,,,,,,,,,,,,,,,,,,,,,,,,,,,,,,,,,,,
,,615f8daae239715a12492306,2026-03-17_16h07.32.969,kallum_motion_pilot_GIST_update_2,2026.1.1,Win32,59.88023952,615f8daae239715a12492306,69b95efdef24cd8a694e89ee,69b960024a6040ca440812c1,0.0387,0.0387,1,21,183,34,1,twoone,,,,,,,,,,,,,,,,,,,,,,,,,,,,,,,,,,,,,,,,,,,,,,,,,,,,,,,,,,,,,,,,,,,,,,,,,,,,,,,,,,,,,,,,,,,,,,,,,,,,,,,,,,,,,,,,,,,,,,,,,,,,,,,,,,,,,,,,,
,,615f8daae239715a12492306,2026-03-17_16h07.32.969,kallum_motion_pilot_GIST_update_2,2026.1.1,Win32,59.88023952,615f8daae239715a12492306,69b95efdef24cd8a694e89ee,69b960024a6040ca440812c1,0.0388,0.0388,1,22,184,25,1,onethree,,,,,,,,,,,,,,,,,,,,,,,,,,,,,,,,,,,,,,,,,,,,,,,,,,,,,,,,,,,,,,,,,,,,,,,,,,,,,,,,,,,,,,,,,,,,,,,,,,,,,,,,,,,,,,,,,,,,,,,,,,,,,,,,,,,,,,,,,
,,615f8daae239715a12492306,2026-03-17_16h07.32.969,kallum_motion_pilot_GIST_update_2,2026.1.1,Win32,59.88023952,615f8daae239715a12492306,69b95efdef24cd8a694e89ee,69b960024a6040ca440812c1,0.0389,0.0389,1,23,185,126,1,eightsix,,,,,,,,,,,,,,,,,,,,,,,,,,,,,,,,,,,,,,,,,,,,,,,,,,,,,,,,,,,,,,,,,,,,,,,,,,,,,,,,,,,,,,,,,,,,,,,,,,,,,,,,,,,,,,,,,,,,,,,,,,,,,,,,,,,,,,,,,
,,615f8daae239715a12492306,2026-03-17_16h07.32.969,kallum_motion_pilot_GIST_update_2,2026.1.1,Win32,59.88023952,615f8daae239715a12492306,69b95efdef24cd8a694e89ee,69b960024a6040ca440812c1,0.039,0.039,1,24,186,144,1,fivesix,,,,,,,,,,,,,,,,,,,,,,,,,,,,,,,,,,,,,,,,,,,,,,,,,,,,,,,,,,,,,,,,,,,,,,,,,,,,,,,,,,,,,,,,,,,,,,,,,,,,,,,,,,,,,,,,,,,,,,,,,,,,,,,,,,,,,,,,,
,,615f8daae239715a12492306,2026-03-17_16h07.32.969,kallum_motion_pilot_GIST_update_2,2026.1.1,Win32,59.88023952,615f8daae239715a12492306,69b95efdef24cd8a694e89ee,69b960024a6040ca440812c1,0.0392,0.0392,1,25,187,137,1,fiveseven,,,,,,,,,,,,,,,,,,,,,,,,,,,,,,,,,,,,,,,,,,,,,,,,,,,,,,,,,,,,,,,,,,,,,,,,,,,,,,,,,,,,,,,,,,,,,,,,,,,,,,,,,,,,,,,,,,,,,,,,,,,,,,,,,,,,,,,,,
,,615f8daae239715a12492306,2026-03-17_16h07.32.969,kallum_motion_pilot_GIST_update_2,2026.1.1,Win32,59.88023952,615f8daae239715a12492306,69b95efdef24cd8a694e89ee,69b960024a6040ca440812c1,0.0394,0.0394,1,26,188,111,1,eightseven,,,,,,,,,,,,,,,,,,,,,,,,,,,,,,,,,,,,,,,,,,,,,,,,,,,,,,,,,,,,,,,,,,,,,,,,,,,,,,,,,,,,,,,,,,,,,,,,,,,,,,,,,,,,,,,,,,,,,,,,,,,,,,,,,,,,,,,,,
,,615f8daae239715a12492306,2026-03-17_16h07.32.969,kallum_motion_pilot_GIST_update_2,2026.1.1,Win32,59.88023952,615f8daae239715a12492306,69b95efdef24cd8a694e89ee,69b960024a6040ca440812c1,0.0396,0.0396,1,27,189,68,1,threeone,,,,,,,,,,,,,,,,,,,,,,,,,,,,,,,,,,,,,,,,,,,,,,,,,,,,,,,,,,,,,,,,,,,,,,,,,,,,,,,,,,,,,,,,,,,,,,,,,,,,,,,,,,,,,,,,,,,,,,,,,,,,,,,,,,,,,,,,,
,,615f8daae239715a12492306,2026-03-17_16h07.32.969,kallum_motion_pilot_GIST_update_2,2026.1.1,Win32,59.88023952,615f8daae239715a12492306,69b95efdef24cd8a694e89ee,69b960024a6040ca440812c1,0.0398,0.0398,1,28,190,50,1,twoone,,,,,,,,,,,,,,,,,,,,,,,,,,,,,,,,,,,,,,,,,,,,,,,,,,,,,,,,,,,,,,,,,,,,,,,,,,,,,,,,,,,,,,,,,,,,,,,,,,,,,,,,,,,,,,,,,,,,,,,,,,,,,,,,,,,,,,,,,
,,615f8daae239715a12492306,2026-03-17_16h07.32.969,kallum_motion_pilot_GIST_update_2,2026.1.1,Win32,59.88023952,615f8daae239715a12492306,69b95efdef24cd8a694e89ee,69b960024a6040ca440812c1,0.0399,0.0399,1,29,191,11,1,twofour,,,,,,,,,,,,,,,,,,,,,,,,,,,,,,,,,,,,,,,,,,,,,,,,,,,,,,,,,,,,,,,,,,,,,,,,,,,,,,,,,,,,,,,,,,,,,,,,,,,,,,,,,,,,,,,,,,,,,,,,,,,,,,,,,,,,,,,,,
,,615f8daae239715a12492306,2026-03-17_16h07.32.969,kallum_motion_pilot_GIST_update_2,2026.1.1,Win32,59.88023952,615f8daae239715a12492306,69b95efdef24cd8a694e89ee,69b960024a6040ca440812c1,0.0401,0.0401,1,30,192,33,1,onethree,,,,,,,,,,,,,,,,,,,,,,,,,,,,,,,,,,,,,,,,,,,,,,,,,,,,,,,,,,,,,,,,,,,,,,,,,,,,,,,,,,,,,,,,,,,,,,,,,,,,,,,,,,,,,,,,,,,,,,,,,,,,,,,,,,,,,,,,,
,,615f8daae239715a12492306,2026-03-17_16h07.32.969,kallum_motion_pilot_GIST_update_2,2026.1.1,Win32,59.88023952,615f8daae239715a12492306,69b95efdef24cd8a694e89ee,69b960024a6040ca440812c1,0.0402,0.0402,1,31,193,72,1,onetwo,,,,,,,,,,,,,,,,,,,,,,,,,,,,,,,,,,,,,,,,,,,,,,,,,,,,,,,,,,,,,,,,,,,,,,,,,,,,,,,,,,,,,,,,,,,,,,,,,,,,,,,,,,,,,,,,,,,,,,,,,,,,,,,,,,,,,,,,,
,,615f8daae239715a12492306,2026-03-17_16h07.32.969,kallum_motion_pilot_GIST_update_2,2026.1.1,Win32,59.88023952,615f8daae239715a12492306,69b95efdef24cd8a694e89ee,69b960024a6040ca440812c1,0.0403,0.0403,1,32,194,59,1,twofour,,,,,,,,,,,,,,,,,,,,,,,,,,,,,,,,,,,,,,,,,,,,,,,,,,,,,,,,,,,,,,,,,,,,,,,,,,,,,,,,,,,,,,,,,,,,,,,,,,,,,,,,,,,,,,,,,,,,,,,,,,,,,,,,,,,,,,,,,
,,615f8daae239715a12492306,2026-03-17_16h07.32.969,kallum_motion_pilot_GIST_update_2,2026.1.1,Win32,59.88023952,615f8daae239715a12492306,69b95efdef24cd8a694e89ee,69b960024a6040ca440812c1,0.0404,0.0404,1,33,195,109,1,seveneight,,,,,,,,,,,,,,,,,,,,,,,,,,,,,,,,,,,,,,,,,,,,,,,,,,,,,,,,,,,,,,,,,,,,,,,,,,,,,,,,,,,,,,,,,,,,,,,,,,,,,,,,,,,,,,,,,,,,,,,,,,,,,,,,,,,,,,,,,
,,615f8daae239715a12492306,2026-03-17_16h07.32.969,kallum_motion_pilot_GIST_update_2,2026.1.1,Win32,59.88023952,615f8daae239715a12492306,69b95efdef24cd8a694e89ee,69b960024a6040ca440812c1,0.0404,0.0404,1,34,196,154,1,sixfive,,,,,,,,,,,,,,,,,,,,,,,,,,,,,,,,,,,,,,,,,,,,,,,,,,,,,,,,,,,,,,,,,,,,,,,,,,,,,,,,,,,,,,,,,,,,,,,,,,,,,,,,,,,,,,,,,,,,,,,,,,,,,,,,,,,,,,,,,
,,615f8daae239715a12492306,2026-03-17_16h07.32.969,kallum_motion_pilot_GIST_update_2,2026.1.1,Win32,59.88023952,615f8daae239715a12492306,69b95efdef24cd8a694e89ee,69b960024a6040ca440812c1,0.0406,0.0406,1,35,197,114,1,sixfive,,,,,,,,,,,,,,,,,,,,,,,,,,,,,,,,,,,,,,,,,,,,,,,,,,,,,,,,,,,,,,,,,,,,,,,,,,,,,,,,,,,,,,,,,,,,,,,,,,,,,,,,,,,,,,,,,,,,,,,,,,,,,,,,,,,,,,,,,
,,615f8daae239715a12492306,2026-03-17_16h07.32.969,kallum_motion_pilot_GIST_update_2,2026.1.1,Win32,59.88023952,615f8daae239715a12492306,69b95efdef24cd8a694e89ee,69b960024a6040ca440812c1,0.0407,0.0407,1,36,198,43,1,twofour,,,,,,,,,,,,,,,,,,,,,,,,,,,,,,,,,,,,,,,,,,,,,,,,,,,,,,,,,,,,,,,,,,,,,,,,,,,,,,,,,,,,,,,,,,,,,,,,,,,,,,,,,,,,,,,,,,,,,,,,,,,,,,,,,,,,,,,,,
,,615f8daae239715a12492306,2026-03-17_16h07.32.969,kallum_motion_pilot_GIST_update_2,2026.1.1,Win32,59.88023952,615f8daae239715a12492306,69b95efdef24cd8a694e89ee,69b960024a6040ca440812c1,0.0408,0.0408,1,37,199,94,1,eightsix,,,,,,,,,,,,,,,,,,,,,,,,,,,,,,,,,,,,,,,,,,,,,,,,,,,,,,,,,,,,,,,,,,,,,,,,,,,,,,,,,,,,,,,,,,,,,,,,,,,,,,,,,,,,,,,,,,,,,,,,,,,,,,,,,,,,,,,,,
,,615f8daae239715a12492306,2026-03-17_16h07.32.969,kallum_motion_pilot_GIST_update_2,2026.1.1,Win32,59.88023952,615f8daae239715a12492306,69b95efdef24cd8a694e89ee,69b960024a6040ca440812c1,0.041,0.041,1,38,200,105,1,fiveseven,,,,,,,,,,,,,,,,,,,,,,,,,,,,,,,,,,,,,,,,,,,,,,,,,,,,,,,,,,,,,,,,,,,,,,,,,,,,,,,,,,,,,,,,,,,,,,,,,,,,,,,,,,,,,,,,,,,,,,,,,,,,,,,,,,,,,,,,,
,,615f8daae239715a12492306,2026-03-17_16h07.32.969,kallum_motion_pilot_GIST_update_2,2026.1.1,Win32,59.88023952,615f8daae239715a12492306,69b95efdef24cd8a694e89ee,69b960024a6040ca440812c1,0.041,0.041,1,39,201,81,1,fiveseven,,,,,,,,,,,,,,,,,,,,,,,,,,,,,,,,,,,,,,,,,,,,,,,,,,,,,,,,,,,,,,,,,,,,,,,,,,,,,,,,,,,,,,,,,,,,,,,,,,,,,,,,,,,,,,,,,,,,,,,,,,,,,,,,,,,,,,,,,
,,615f8daae239715a12492306,2026-03-17_16h07.32.969,kallum_motion_pilot_GIST_update_2,2026.1.1,Win32,59.88023952,615f8daae239715a12492306,69b95efdef24cd8a694e89ee,69b960024a6040ca440812c1,0.0412,0.0412,1,40,202,115,1,sixeight,,,,,,,,,,,,,,,,,,,,,,,,,,,,,,,,,,,,,,,,,,,,,,,,,,,,,,,,,,,,,,,,,,,,,,,,,,,,,,,,,,,,,,,,,,,,,,,,,,,,,,,,,,,,,,,,,,,,,,,,,,,,,,,,,,,,,,,,,
,,615f8daae239715a12492306,2026-03-17_16h07.32.969,kallum_motion_pilot_GIST_update_2,2026.1.1,Win32,59.88023952,615f8daae239715a12492306,69b95efdef24cd8a694e89ee,69b960024a6040ca440812c1,0.0412,0.0412,1,41,203,54,1,fourtwo,,,,,,,,,,,,,,,,,,,,,,,,,,,,,,,,,,,,,,,,,,,,,,,,,,,,,,,,,,,,,,,,,,,,,,,,,,,,,,,,,,,,,,,,,,,,,,,,,,,,,,,,,,,,,,,,,,,,,,,,,,,,,,,,,,,,,,,,,
,,615f8daae239715a12492306,2026-03-17_16h07.32.969,kallum_motion_pilot_GIST_update_2,2026.1.1,Win32,59.88023952,615f8daae239715a12492306,69b95efdef24cd8a694e89ee,69b960024a6040ca440812c1,0.0414,0.0414,1,42,204,139,1,sixeight,,,,,,,,,,,,,,,,,,,,,,,,,,,,,,,,,,,,,,,,,,,,,,,,,,,,,,,,,,,,,,,,,,,,,,,,,,,,,,,,,,,,,,,,,,,,,,,,,,,,,,,,,,,,,,,,,,,,,,,,,,,,,,,,,,,,,,,,,
,,615f8daae239715a12492306,2026-03-17_16h07.32.969,kallum_motion_pilot_GIST_update_2,2026.1.1,Win32,59.88023952,615f8daae239715a12492306,69b95efdef24cd8a694e89ee,69b960024a6040ca440812c1,0.0415,0.0415,1,43,205,140,1,sevenfive,,,,,,,,,,,,,,,,,,,,,,,,,,,,,,,,,,,,,,,,,,,,,,,,,,,,,,,,,,,,,,,,,,,,,,,,,,,,,,,,,,,,,,,,,,,,,,,,,,,,,,,,,,,,,,,,,,,,,,,,,,,,,,,,,,,,,,,,,
,,615f8daae239715a12492306,2026-03-17_16h07.32.969,kallum_motion_pilot_GIST_update_2,2026.1.1,Win32,59.88023952,615f8daae239715a12492306,69b95efdef24cd8a694e89ee,69b960024a6040ca440812c1,0.0416,0.0416,1,44,206,39,1,fourthree,,,,,,,,,,,,,,,,,,,,,,,,,,,,,,,,,,,,,,,,,,,,,,,,,,,,,,,,,,,,,,,,,,,,,,,,,,,,,,,,,,,,,,,,,,,,,,,,,,,,,,,,,,,,,,,,,,,,,,,,,,,,,,,,,,,,,,,,,
,,615f8daae239715a12492306,2026-03-17_16h07.32.969,kallum_motion_pilot_GIST_update_2,2026.1.1,Win32,59.88023952,615f8daae239715a12492306,69b95efdef24cd8a694e89ee,69b960024a6040ca440812c1,0.0418,0.0418,1,45,207,31,1,fourthree,,,,,,,,,,,,,,,,,,,,,,,,,,,,,,,,,,,,,,,,,,,,,,,,,,,,,,,,,,,,,,,,,,,,,,,,,,,,,,,,,,,,,,,,,,,,,,,,,,,,,,,,,,,,,,,,,,,,,,,,,,,,,,,,,,,,,,,,,
,,615f8daae239715a12492306,2026-03-17_16h07.32.969,kallum_motion_pilot_GIST_update_2,2026.1.1,Win32,59.88023952,615f8daae239715a12492306,69b95efdef24cd8a694e89ee,69b960024a6040ca440812c1,0.0418,0.0418,1,46,208,27,1,twofour,,,,,,,,,,,,,,,,,,,,,,,,,,,,,,,,,,,,,,,,,,,,,,,,,,,,,,,,,,,,,,,,,,,,,,,,,,,,,,,,,,,,,,,,,,,,,,,,,,,,,,,,,,,,,,,,,,,,,,,,,,,,,,,,,,,,,,,,,
,,615f8daae239715a12492306,2026-03-17_16h07.32.969,kallum_motion_pilot_GIST_update_2,2026.1.1,Win32,59.88023952,615f8daae239715a12492306,69b95efdef24cd8a694e89ee,69b960024a6040ca440812c1,0.0419,0.0419,1,47,209,123,1,sixeight,,,,,,,,,,,,,,,,,,,,,,,,,,,,,,,,,,,,,,,,,,,,,,,,,,,,,,,,,,,,,,,,,,,,,,,,,,,,,,,,,,,,,,,,,,,,,,,,,,,,,,,,,,,,,,,,,,,,,,,,,,,,,,,,,,,,,,,,,
,,615f8daae239715a12492306,2026-03-17_16h07.32.969,kallum_motion_pilot_GIST_update_2,2026.1.1,Win32,59.88023952,615f8daae239715a12492306,69b95efdef24cd8a694e89ee,69b960024a6040ca440812c1,0.042,0.042,1,48,210,71,1,fourthree,,,,,,,,,,,,,,,,,,,,,,,,,,,,,,,,,,,,,,,,,,,,,,,,,,,,,,,,,,,,,,,,,,,,,,,,,,,,,,,,,,,,,,,,,,,,,,,,,,,,,,,,,,,,,,,,,,,,,,,,,,,,,,,,,,,,,,,,,
,,615f8daae239715a12492306,2026-03-17_16h07.32.969,kallum_motion_pilot_GIST_update_2,2026.1.1,Win32,59.88023952,615f8daae239715a12492306,69b95efdef24cd8a694e89ee,69b960024a6040ca440812c1,0.0421,0.0421,1,49,211,48,1,onetwo,,,,,,,,,,,,,,,,,,,,,,,,,,,,,,,,,,,,,,,,,,,,,,,,,,,,,,,,,,,,,,,,,,,,,,,,,,,,,,,,,,,,,,,,,,,,,,,,,,,,,,,,,,,,,,,,,,,,,,,,,,,,,,,,,,,,,,,,,
,,615f8daae239715a12492306,2026-03-17_16h07.32.969,kallum_motion_pilot_GIST_update_2,2026.1.1,Win32,59.88023952,615f8daae239715a12492306,69b95efdef24cd8a694e89ee,69b960024a6040ca440812c1,0.0422,0.0422,1,50,212,26,1,twoone,,,,,,,,,,,,,,,,,,,,,,,,,,,,,,,,,,,,,,,,,,,,,,,,,,,,,,,,,,,,,,,,,,,,,,,,,,,,,,,,,,,,,,,,,,,,,,,,,,,,,,,,,,,,,,,,,,,,,,,,,,,,,,,,,,,,,,,,,
,,615f8daae239715a12492306,2026-03-17_16h07.32.969,kallum_motion_pilot_GIST_update_2,2026.1.1,Win32,59.88023952,615f8daae239715a12492306,69b95efdef24cd8a694e89ee,69b960024a6040ca440812c1,0.0424,0.0424,1,51,213,110,1,eightsix,,,,,,,,,,,,,,,,,,,,,,,,,,,,,,,,,,,,,,,,,,,,,,,,,,,,,,,,,,,,,,,,,,,,,,,,,,,,,,,,,,,,,,,,,,,,,,,,,,,,,,,,,,,,,,,,,,,,,,,,,,,,,,,,,,,,,,,,,
,,615f8daae239715a12492306,2026-03-17_16h07.32.969,kallum_motion_pilot_GIST_update_2,2026.1.1,Win32,59.88023952,615f8daae239715a12492306,69b95efdef24cd8a694e89ee,69b960024a6040ca440812c1,0.0425,0.0425,1,52,214,18,1,twoone,,,,,,,,,,,,,,,,,,,,,,,,,,,,,,,,,,,,,,,,,,,,,,,,,,,,,,,,,,,,,,,,,,,,,,,,,,,,,,,,,,,,,,,,,,,,,,,,,,,,,,,,,,,,,,,,,,,,,,,,,,,,,,,,,,,,,,,,,
,,615f8daae239715a12492306,2026-03-17_16h07.32.969,kallum_motion_pilot_GIST_update_2,2026.1.1,Win32,59.88023952,615f8daae239715a12492306,69b95efdef24cd8a694e89ee,69b960024a6040ca440812c1,0.0426,0.0426,1,53,215,4,1,threeone,,,,,,,,,,,,,,,,,,,,,,,,,,,,,,,,,,,,,,,,,,,,,,,,,,,,,,,,,,,,,,,,,,,,,,,,,,,,,,,,,,,,,,,,,,,,,,,,,,,,,,,,,,,,,,,,,,,,,,,,,,,,,,,,,,,,,,,,,
,,615f8daae239715a12492306,2026-03-17_16h07.32.969,kallum_motion_pilot_GIST_update_2,2026.1.1,Win32,59.88023952,615f8daae239715a12492306,69b95efdef24cd8a694e89ee,69b960024a6040ca440812c1,0.0427,0.0427,1,54,216,87,1,eightseven,,,,,,,,,,,,,,,,,,,,,,,,,,,,,,,,,,,,,,,,,,,,,,,,,,,,,,,,,,,,,,,,,,,,,,,,,,,,,,,,,,,,,,,,,,,,,,,,,,,,,,,,,,,,,,,,,,,,,,,,,,,,,,,,,,,,,,,,,
,,615f8daae239715a12492306,2026-03-17_16h07.32.969,kallum_motion_pilot_GIST_update_2,2026.1.1,Win32,59.88023952,615f8daae239715a12492306,69b95efdef24cd8a694e89ee,69b960024a6040ca440812c1,0.0428,0.0428,1,55,217,155,1,sixeight,,,,,,,,,,,,,,,,,,,,,,,,,,,,,,,,,,,,,,,,,,,,,,,,,,,,,,,,,,,,,,,,,,,,,,,,,,,,,,,,,,,,,,,,,,,,,,,,,,,,,,,,,,,,,,,,,,,,,,,,,,,,,,,,,,,,,,,,,
,,615f8daae239715a12492306,2026-03-17_16h07.32.969,kallum_motion_pilot_GIST_update_2,2026.1.1,Win32,59.88023952,615f8daae239715a12492306,69b95efdef24cd8a694e89ee,69b960024a6040ca440812c1,0.0429,0.0429,1,56,218,84,1,sevenfive,,,,,,,,,,,,,,,,,,,,,,,,,,,,,,,,,,,,,,,,,,,,,,,,,,,,,,,,,,,,,,,,,,,,,,,,,,,,,,,,,,,,,,,,,,,,,,,,,,,,,,,,,,,,,,,,,,,,,,,,,,,,,,,,,,,,,,,,,
,,615f8daae239715a12492306,2026-03-17_16h07.32.969,kallum_motion_pilot_GIST_update_2,2026.1.1,Win32,59.88023952,615f8daae239715a12492306,69b95efdef24cd8a694e89ee,69b960024a6040ca440812c1,0.043,0.043,1,57,219,85,1,seveneight,,,,,,,,,,,,,,,,,,,,,,,,,,,,,,,,,,,,,,,,,,,,,,,,,,,,,,,,,,,,,,,,,,,,,,,,,,,,,,,,,,,,,,,,,,,,,,,,,,,,,,,,,,,,,,,,,,,,,,,,,,,,,,,,,,,,,,,,,
,,615f8daae239715a12492306,2026-03-17_16h07.32.969,kallum_motion_pilot_GIST_update_2,2026.1.1,Win32,59.88023952,615f8daae239715a12492306,69b95efdef24cd8a694e89ee,69b960024a6040ca440812c1,0.0431,0.0431,1,58,220,23,1,fourthree,,,,,,,,,,,,,,,,,,,,,,,,,,,,,,,,,,,,,,,,,,,,,,,,,,,,,,,,,,,,,,,,,,,,,,,,,,,,,,,,,,,,,,,,,,,,,,,,,,,,,,,,,,,,,,,,,,,,,,,,,,,,,,,,,,,,,,,,,
,,615f8daae239715a12492306,2026-03-17_16h07.32.969,kallum_motion_pilot_GIST_update_2,2026.1.1,Win32,59.88023952,615f8daae239715a12492306,69b95efdef24cd8a694e89ee,69b960024a6040ca440812c1,0.0432,0.0432,1,59,221,16,1,onetwo,,,,,,,,,,,,,,,,,,,,,,,,,,,,,,,,,,,,,,,,,,,,,,,,,,,,,,,,,,,,,,,,,,,,,,,,,,,,,,,,,,,,,,,,,,,,,,,,,,,,,,,,,,,,,,,,,,,,,,,,,,,,,,,,,,,,,,,,,
,,615f8daae239715a12492306,2026-03-17_16h07.32.969,kallum_motion_pilot_GIST_update_2,2026.1.1,Win32,59.88023952,615f8daae239715a12492306,69b95efdef24cd8a694e89ee,69b960024a6040ca440812c1,0.0433,0.0433,1,60,222,49,1,onethree,,,,,,,,,,,,,,,,,,,,,,,,,,,,,,,,,,,,,,,,,,,,,,,,,,,,,,,,,,,,,,,,,,,,,,,,,,,,,,,,,,,,,,,,,,,,,,,,,,,,,,,,,,,,,,,,,,,,,,,,,,,,,,,,,,,,,,,,,
,,615f8daae239715a12492306,2026-03-17_16h07.32.969,kallum_motion_pilot_GIST_update_2,2026.1.1,Win32,59.88023952,615f8daae239715a12492306,69b95efdef24cd8a694e89ee,69b960024a6040ca440812c1,0.0434,0.0434,1,61,223,131,1,sixeight,,,,,,,,,,,,,,,,,,,,,,,,,,,,,,,,,,,,,,,,,,,,,,,,,,,,,,,,,,,,,,,,,,,,,,,,,,,,,,,,,,,,,,,,,,,,,,,,,,,,,,,,,,,,,,,,,,,,,,,,,,,,,,,,,,,,,,,,,
,,615f8daae239715a12492306,2026-03-17_16h07.32.969,kallum_motion_pilot_GIST_update_2,2026.1.1,Win32,59.88023952,615f8daae239715a12492306,69b95efdef24cd8a694e89ee,69b960024a6040ca440812c1,0.0436,0.0436,1,62,224,1,1,onethree,,,,,,,,,,,,,,,,,,,,,,,,,,,,,,,,,,,,,,,,,,,,,,,,,,,,,,,,,,,,,,,,,,,,,,,,,,,,,,,,,,,,,,,,,,,,,,,,,,,,,,,,,,,,,,,,,,,,,,,,,,,,,,,,,,,,,,,,,
,,615f8daae239715a12492306,2026-03-17_16h07.32.969,kallum_motion_pilot_GIST_update_2,2026.1.1,Win32,59.88023952,615f8daae239715a12492306,69b95efdef24cd8a694e89ee,69b960024a6040ca440812c1,0.0436,0.0436,1,63,225,41,1,onethree,,,,,,,,,,,,,,,,,,,,,,,,,,,,,,,,,,,,,,,,,,,,,,,,,,,,,,,,,,,,,,,,,,,,,,,,,,,,,,,,,,,,,,,,,,,,,,,,,,,,,,,,,,,,,,,,,,,,,,,,,,,,,,,,,,,,,,,,,
,,615f8daae239715a12492306,2026-03-17_16h07.32.969,kallum_motion_pilot_GIST_update_2,2026.1.1,Win32,59.88023952,615f8daae239715a12492306,69b95efdef24cd8a694e89ee,69b960024a6040ca440812c1,0.0437,0.0437,1,64,226,51,1,twofour,,,,,,,,,,,,,,,,,,,,,,,,,,,,,,,,,,,,,,,,,,,,,,,,,,,,,,,,,,,,,,,,,,,,,,,,,,,,,,,,,,,,,,,,,,,,,,,,,,,,,,,,,,,,,,,,,,,,,,,,,,,,,,,,,,,,,,,,,
,,615f8daae239715a12492306,2026-03-17_16h07.32.969,kallum_motion_pilot_GIST_update_2,2026.1.1,Win32,59.88023952,615f8daae239715a12492306,69b95efdef24cd8a694e89ee,69b960024a6040ca440812c1,0.0438,0.0438,1,65,227,149,1,seveneight,,,,,,,,,,,,,,,,,,,,,,,,,,,,,,,,,,,,,,,,,,,,,,,,,,,,,,,,,,,,,,,,,,,,,,,,,,,,,,,,,,,,,,,,,,,,,,,,,,,,,,,,,,,,,,,,,,,,,,,,,,,,,,,,,,,,,,,,,
,,615f8daae239715a12492306,2026-03-17_16h07.32.969,kallum_motion_pilot_GIST_update_2,2026.1.1,Win32,59.88023952,615f8daae239715a12492306,69b95efdef24cd8a694e89ee,69b960024a6040ca440812c1,0.044,0.044,1,66,228,44,1,threeone,,,,,,,,,,,,,,,,,,,,,,,,,,,,,,,,,,,,,,,,,,,,,,,,,,,,,,,,,,,,,,,,,,,,,,,,,,,,,,,,,,,,,,,,,,,,,,,,,,,,,,,,,,,,,,,,,,,,,,,,,,,,,,,,,,,,,,,,,
,,615f8daae239715a12492306,2026-03-17_16h07.32.969,kallum_motion_pilot_GIST_update_2,2026.1.1,Win32,59.88023952,615f8daae239715a12492306,69b95efdef24cd8a694e89ee,69b960024a6040ca440812c1,0.0441,0.0441,1,67,229,22,1,fourtwo,,,,,,,,,,,,,,,,,,,,,,,,,,,,,,,,,,,,,,,,,,,,,,,,,,,,,,,,,,,,,,,,,,,,,,,,,,,,,,,,,,,,,,,,,,,,,,,,,,,,,,,,,,,,,,,,,,,,,,,,,,,,,,,,,,,,,,,,,
,,615f8daae239715a12492306,2026-03-17_16h07.32.969,kallum_motion_pilot_GIST_update_2,2026.1.1,Win32,59.88023952,615f8daae239715a12492306,69b95efdef24cd8a694e89ee,69b960024a6040ca440812c1,0.0442,0.0442,1,68,230,146,1,sixfive,,,,,,,,,,,,,,,,,,,,,,,,,,,,,,,,,,,,,,,,,,,,,,,,,,,,,,,,,,,,,,,,,,,,,,,,,,,,,,,,,,,,,,,,,,,,,,,,,,,,,,,,,,,,,,,,,,,,,,,,,,,,,,,,,,,,,,,,,
,,615f8daae239715a12492306,2026-03-17_16h07.32.969,kallum_motion_pilot_GIST_update_2,2026.1.1,Win32,59.88023952,615f8daae239715a12492306,69b95efdef24cd8a694e89ee,69b960024a6040ca440812c1,0.0442,0.0442,1,69,231,121,1,fiveseven,,,,,,,,,,,,,,,,,,,,,,,,,,,,,,,,,,,,,,,,,,,,,,,,,,,,,,,,,,,,,,,,,,,,,,,,,,,,,,,,,,,,,,,,,,,,,,,,,,,,,,,,,,,,,,,,,,,,,,,,,,,,,,,,,,,,,,,,,
,,615f8daae239715a12492306,2026-03-17_16h07.32.969,kallum_motion_pilot_GIST_update_2,2026.1.1,Win32,59.88023952,615f8daae239715a12492306,69b95efdef24cd8a694e89ee,69b960024a6040ca440812c1,0.0443,0.0443,1,70,232,116,1,sevenfive,,,,,,,,,,,,,,,,,,,,,,,,,,,,,,,,,,,,,,,,,,,,,,,,,,,,,,,,,,,,,,,,,,,,,,,,,,,,,,,,,,,,,,,,,,,,,,,,,,,,,,,,,,,,,,,,,,,,,,,,,,,,,,,,,,,,,,,,,
,,615f8daae239715a12492306,2026-03-17_16h07.32.969,kallum_motion_pilot_GIST_update_2,2026.1.1,Win32,59.88023952,615f8daae239715a12492306,69b95efdef24cd8a694e89ee,69b960024a6040ca440812c1,0.0445,0.0445,1,71,233,129,1,fiveseven,,,,,,,,,,,,,,,,,,,,,,,,,,,,,,,,,,,,,,,,,,,,,,,,,,,,,,,,,,,,,,,,,,,,,,,,,,,,,,,,,,,,,,,,,,,,,,,,,,,,,,,,,,,,,,,,,,,,,,,,,,,,,,,,,,,,,,,,,
,,615f8daae239715a12492306,2026-03-17_16h07.32.969,kallum_motion_pilot_GIST_update_2,2026.1.1,Win32,59.88023952,615f8daae239715a12492306,69b95efdef24cd8a694e89ee,69b960024a6040ca440812c1,0.0446,0.0446,1,72,234,113,1,fiveseven,,,,,,,,,,,,,,,,,,,,,,,,,,,,,,,,,,,,,,,,,,,,,,,,,,,,,,,,,,,,,,,,,,,,,,,,,,,,,,,,,,,,,,,,,,,,,,,,,,,,,,,,,,,,,,,,,,,,,,,,,,,,,,,,,,,,,,,,,
,,615f8daae239715a12492306,2026-03-17_16h07.32.969,kallum_motion_pilot_GIST_update_2,2026.1.1,Win32,59.88023952,615f8daae239715a12492306,69b95efdef24cd8a694e89ee,69b960024a6040ca440812c1,0.0446,0.0446,1,73,235,159,1,eightseven,,,,,,,,,,,,,,,,,,,,,,,,,,,,,,,,,,,,,,,,,,,,,,,,,,,,,,,,,,,,,,,,,,,,,,,,,,,,,,,,,,,,,,,,,,,,,,,,,,,,,,,,,,,,,,,,,,,,,,,,,,,,,,,,,,,,,,,,,
,,615f8daae239715a12492306,2026-03-17_16h07.32.969,kallum_motion_pilot_GIST_update_2,2026.1.1,Win32,59.88023952,615f8daae239715a12492306,69b95efdef24cd8a694e89ee,69b960024a6040ca440812c1,0.0447,0.0447,1,74,236,64,1,onetwo,,,,,,,,,,,,,,,,,,,,,,,,,,,,,,,,,,,,,,,,,,,,,,,,,,,,,,,,,,,,,,,,,,,,,,,,,,,,,,,,,,,,,,,,,,,,,,,,,,,,,,,,,,,,,,,,,,,,,,,,,,,,,,,,,,,,,,,,,
,,615f8daae239715a12492306,2026-03-17_16h07.32.969,kallum_motion_pilot_GIST_update_2,2026.1.1,Win32,59.88023952,615f8daae239715a12492306,69b95efdef24cd8a694e89ee,69b960024a6040ca440812c1,0.0448,0.0448,1,75,237,120,1,fivesix,,,,,,,,,,,,,,,,,,,,,,,,,,,,,,,,,,,,,,,,,,,,,,,,,,,,,,,,,,,,,,,,,,,,,,,,,,,,,,,,,,,,,,,,,,,,,,,,,,,,,,,,,,,,,,,,,,,,,,,,,,,,,,,,,,,,,,,,,
,,615f8daae239715a12492306,2026-03-17_16h07.32.969,kallum_motion_pilot_GIST_update_2,2026.1.1,Win32,59.88023952,615f8daae239715a12492306,69b95efdef24cd8a694e89ee,69b960024a6040ca440812c1,0.0449,0.0449,1,76,238,141,1,seveneight,,,,,,,,,,,,,,,,,,,,,,,,,,,,,,,,,,,,,,,,,,,,,,,,,,,,,,,,,,,,,,,,,,,,,,,,,,,,,,,,,,,,,,,,,,,,,,,,,,,,,,,,,,,,,,,,,,,,,,,,,,,,,,,,,,,,,,,,,
,,615f8daae239715a12492306,2026-03-17_16h07.32.969,kallum_motion_pilot_GIST_update_2,2026.1.1,Win32,59.88023952,615f8daae239715a12492306,69b95efdef24cd8a694e89ee,69b960024a6040ca440812c1,0.0451,0.0451,1,77,239,161,1,fiveseven,,,,,,,,,,,,,,,,,,,,,,,,,,,,,,,,,,,,,,,,,,,,,,,,,,,,,,,,,,,,,,,,,,,,,,,,,,,,,,,,,,,,,,,,,,,,,,,,,,,,,,,,,,,,,,,,,,,,,,,,,,,,,,,,,,,,,,,,,
,,615f8daae239715a12492306,2026-03-17_16h07.32.969,kallum_motion_pilot_GIST_update_2,2026.1.1,Win32,59.88023952,615f8daae239715a12492306,69b95efdef24cd8a694e89ee,69b960024a6040ca440812c1,0.0452,0.0452,1,78,240,90,1,sixfive,,,,,,,,,,,,,,,,,,,,,,,,,,,,,,,,,,,,,,,,,,,,,,,,,,,,,,,,,,,,,,,,,,,,,,,,,,,,,,,,,,,,,,,,,,,,,,,,,,,,,,,,,,,,,,,,,,,,,,,,,,,,,,,,,,,,,,,,,
,,615f8daae239715a12492306,2026-03-17_16h07.32.969,kallum_motion_pilot_GIST_update_2,2026.1.1,Win32,59.88023952,615f8daae239715a12492306,69b95efdef24cd8a694e89ee,69b960024a6040ca440812c1,0.0453,0.0453,1,79,241,66,1,twoone,,,,,,,,,,,,,,,,,,,,,,,,,,,,,,,,,,,,,,,,,,,,,,,,,,,,,,,,,,,,,,,,,,,,,,,,,,,,,,,,,,,,,,,,,,,,,,,,,,,,,,,,,,,,,,,,,,,,,,,,,,,,,,,,,,,,,,,,,
,,615f8daae239715a12492306,2026-03-17_16h07.32.969,kallum_motion_pilot_GIST_update_2,2026.1.1,Win32,59.88023952,615f8daae239715a12492306,69b95efdef24cd8a694e89ee,69b960024a6040ca440812c1,0.0454,0.0454,1,80,242,153,1,fiveseven,,,,,,,,,,,,,,,,,,,,,,,,,,,,,,,,,,,,,,,,,,,,,,,,,,,,,,,,,,,,,,,,,,,,,,,,,,,,,,,,,,,,,,,,,,,,,,,,,,,,,,,,,,,,,,,,,,,,,,,,,,,,,,,,,,,,,,,,,
,,615f8daae239715a12492306,2026-03-17_16h07.32.969,kallum_motion_pilot_GIST_update_2,2026.1.1,Win32,59.88023952,615f8daae239715a12492306,69b95efdef24cd8a694e89ee,69b960024a6040ca440812c1,0.0455,0.0455,1,81,243,2,1,twoone,,,,,,,,,,,,,,,,,,,,,,,,,,,,,,,,,,,,,,,,,,,,,,,,,,,,,,,,,,,,,,,,,,,,,,,,,,,,,,,,,,,,,,,,,,,,,,,,,,,,,,,,,,,,,,,,,,,,,,,,,,,,,,,,,,,,,,,,,
,,615f8daae239715a12492306,2026-03-17_16h07.32.969,kallum_motion_pilot_GIST_update_2,2026.1.1,Win32,59.88023952,615f8daae239715a12492306,69b95efdef24cd8a694e89ee,69b960024a6040ca440812c1,0.0456,0.0456,1,82,244,52,1,threeone,,,,,,,,,,,,,,,,,,,,,,,,,,,,,,,,,,,,,,,,,,,,,,,,,,,,,,,,,,,,,,,,,,,,,,,,,,,,,,,,,,,,,,,,,,,,,,,,,,,,,,,,,,,,,,,,,,,,,,,,,,,,,,,,,,,,,,,,,
,,615f8daae239715a12492306,2026-03-17_16h07.32.969,kallum_motion_pilot_GIST_update_2,2026.1.1,Win32,59.88023952,615f8daae239715a12492306,69b95efdef24cd8a694e89ee,69b960024a6040ca440812c1,0.0457,0.0457,1,83,245,78,1,fourtwo,,,,,,,,,,,,,,,,,,,,,,,,,,,,,,,,,,,,,,,,,,,,,,,,,,,,,,,,,,,,,,,,,,,,,,,,,,,,,,,,,,,,,,,,,,,,,,,,,,,,,,,,,,,,,,,,,,,,,,,,,,,,,,,,,,,,,,,,,
,,615f8daae239715a12492306,2026-03-17_16h07.32.969,kallum_motion_pilot_GIST_update_2,2026.1.1,Win32,59.88023952,615f8daae239715a12492306,69b95efdef24cd8a694e89ee,69b960024a6040ca440812c1,0.0459,0.0459,1,84,246,101,1,seveneight,,,,,,,,,,,,,,,,,,,,,,,,,,,,,,,,,,,,,,,,,,,,,,,,,,,,,,,,,,,,,,,,,,,,,,,,,,,,,,,,,,,,,,,,,,,,,,,,,,,,,,,,,,,,,,,,,,,,,,,,,,,,,,,,,,,,,,,,,
,,615f8daae239715a12492306,2026-03-17_16h07.32.969,kallum_motion_pilot_GIST_update_2,2026.1.1,Win32,59.88023952,615f8daae239715a12492306,69b95efdef24cd8a694e89ee,69b960024a6040ca440812c1,0.046,0.046,1,85,247,5,1,threefour,,,,,,,,,,,,,,,,,,,,,,,,,,,,,,,,,,,,,,,,,,,,,,,,,,,,,,,,,,,,,,,,,,,,,,,,,,,,,,,,,,,,,,,,,,,,,,,,,,,,,,,,,,,,,,,,,,,,,,,,,,,,,,,,,,,,,,,,,
,,615f8daae239715a12492306,2026-03-17_16h07.32.969,kallum_motion_pilot_GIST_update_2,2026.1.1,Win32,59.88023952,615f8daae239715a12492306,69b95efdef24cd8a694e89ee,69b960024a6040ca440812c1,0.0461,0.0461,1,86,248,79,1,eightseven,,,,,,,,,,,,,,,,,,,,,,,,,,,,,,,,,,,,,,,,,,,,,,,,,,,,,,,,,,,,,,,,,,,,,,,,,,,,,,,,,,,,,,,,,,,,,,,,,,,,,,,,,,,,,,,,,,,,,,,,,,,,,,,,,,,,,,,,,
,,615f8daae239715a12492306,2026-03-17_16h07.32.969,kallum_motion_pilot_GIST_update_2,2026.1.1,Win32,59.88023952,615f8daae239715a12492306,69b95efdef24cd8a694e89ee,69b960024a6040ca440812c1,0.0462,0.0462,1,87,249,124,1,sevenfive,,,,,,,,,,,,,,,,,,,,,,,,,,,,,,,,,,,,,,,,,,,,,,,,,,,,,,,,,,,,,,,,,,,,,,,,,,,,,,,,,,,,,,,,,,,,,,,,,,,,,,,,,,,,,,,,,,,,,,,,,,,,,,,,,,,,,,,,,
,,615f8daae239715a12492306,2026-03-17_16h07.32.969,kallum_motion_pilot_GIST_update_2,2026.1.1,Win32,59.88023952,615f8daae239715a12492306,69b95efdef24cd8a694e89ee,69b960024a6040ca440812c1,0.0463,0.0463,1,88,250,13,1,threefour,,,,,,,,,,,,,,,,,,,,,,,,,,,,,,,,,,,,,,,,,,,,,,,,,,,,,,,,,,,,,,,,,,,,,,,,,,,,,,,,,,,,,,,,,,,,,,,,,,,,,,,,,,,,,,,,,,,,,,,,,,,,,,,,,,,,,,,,,
,,615f8daae239715a12492306,2026-03-17_16h07.32.969,kallum_motion_pilot_GIST_update_2,2026.1.1,Win32,59.88023952,615f8daae239715a12492306,69b95efdef24cd8a694e89ee,69b960024a6040ca440812c1,0.0465,0.0465,1,89,251,42,1,twoone,,,,,,,,,,,,,,,,,,,,,,,,,,,,,,,,,,,,,,,,,,,,,,,,,,,,,,,,,,,,,,,,,,,,,,,,,,,,,,,,,,,,,,,,,,,,,,,,,,,,,,,,,,,,,,,,,,,,,,,,,,,,,,,,,,,,,,,,,
,,615f8daae239715a12492306,2026-03-17_16h07.32.969,kallum_motion_pilot_GIST_update_2,2026.1.1,Win32,59.88023952,615f8daae239715a12492306,69b95efdef24cd8a694e89ee,69b960024a6040ca440812c1,0.0466,0.0466,1,90,252,77,1,threefour,,,,,,,,,,,,,,,,,,,,,,,,,,,,,,,,,,,,,,,,,,,,,,,,,,,,,,,,,,,,,,,,,,,,,,,,,,,,,,,,,,,,,,,,,,,,,,,,,,,,,,,,,,,,,,,,,,,,,,,,,,,,,,,,,,,,,,,,,
,,615f8daae239715a12492306,2026-03-17_16h07.32.969,kallum_motion_pilot_GIST_update_2,2026.1.1,Win32,59.88023952,615f8daae239715a12492306,69b95efdef24cd8a694e89ee,69b960024a6040ca440812c1,0.0467,0.0467,1,91,253,138,1,sixfive,,,,,,,,,,,,,,,,,,,,,,,,,,,,,,,,,,,,,,,,,,,,,,,,,,,,,,,,,,,,,,,,,,,,,,,,,,,,,,,,,,,,,,,,,,,,,,,,,,,,,,,,,,,,,,,,,,,,,,,,,,,,,,,,,,,,,,,,,
,,615f8daae239715a12492306,2026-03-17_16h07.32.969,kallum_motion_pilot_GIST_update_2,2026.1.1,Win32,59.88023952,615f8daae239715a12492306,69b95efdef24cd8a694e89ee,69b960024a6040ca440812c1,0.0468,0.0468,1,92,254,119,1,eightseven,,,,,,,,,,,,,,,,,,,,,,,,,,,,,,,,,,,,,,,,,,,,,,,,,,,,,,,,,,,,,,,,,,,,,,,,,,,,,,,,,,,,,,,,,,,,,,,,,,,,,,,,,,,,,,,,,,,,,,,,,,,,,,,,,,,,,,,,,
,,615f8daae239715a12492306,2026-03-17_16h07.32.969,kallum_motion_pilot_GIST_update_2,2026.1.1,Win32,59.88023952,615f8daae239715a12492306,69b95efdef24cd8a694e89ee,69b960024a6040ca440812c1,0.047,0.047,1,93,255,38,1,fourtwo,,,,,,,,,,,,,,,,,,,,,,,,,,,,,,,,,,,,,,,,,,,,,,,,,,,,,,,,,,,,,,,,,,,,,,,,,,,,,,,,,,,,,,,,,,,,,,,,,,,,,,,,,,,,,,,,,,,,,,,,,,,,,,,,,,,,,,,,,
,,615f8daae239715a12492306,2026-03-17_16h07.32.969,kallum_motion_pilot_GIST_update_2,2026.1.1,Win32,59.88023952,615f8daae239715a12492306,69b95efdef24cd8a694e89ee,69b960024a6040ca440812c1,0.0471,0.0471,1,94,256,125,1,seveneight,,,,,,,,,,,,,,,,,,,,,,,,,,,,,,,,,,,,,,,,,,,,,,,,,,,,,,,,,,,,,,,,,,,,,,,,,,,,,,,,,,,,,,,,,,,,,,,,,,,,,,,,,,,,,,,,,,,,,,,,,,,,,,,,,,,,,,,,,
,,615f8daae239715a12492306,2026-03-17_16h07.32.969,kallum_motion_pilot_GIST_update_2,2026.1.1,Win32,59.88023952,615f8daae239715a12492306,69b95efdef24cd8a694e89ee,69b960024a6040ca440812c1,0.0472,0.0472,1,95,257,58,1,twoone,,,,,,,,,,,,,,,,,,,,,,,,,,,,,,,,,,,,,,,,,,,,,,,,,,,,,,,,,,,,,,,,,,,,,,,,,,,,,,,,,,,,,,,,,,,,,,,,,,,,,,,,,,,,,,,,,,,,,,,,,,,,,,,,,,,,,,,,,
,,615f8daae239715a12492306,2026-03-17_16h07.32.969,kallum_motion_pilot_GIST_update_2,2026.1.1,Win32,59.88023952,615f8daae239715a12492306,69b95efdef24cd8a694e89ee,69b960024a6040ca440812c1,0.0473,0.0473,1,96,258,93,1,seveneight,,,,,,,,,,,,,,,,,,,,,,,,,,,,,,,,,,,,,,,,,,,,,,,,,,,,,,,,,,,,,,,,,,,,,,,,,,,,,,,,,,,,,,,,,,,,,,,,,,,,,,,,,,,,,,,,,,,,,,,,,,,,,,,,,,,,,,,,,
,,615f8daae239715a12492306,2026-03-17_16h07.32.969,kallum_motion_pilot_GIST_update_2,2026.1.1,Win32,59.88023952,615f8daae239715a12492306,69b95efdef24cd8a694e89ee,69b960024a6040ca440812c1,0.0474,0.0474,1,97,259,89,1,fiveseven,,,,,,,,,,,,,,,,,,,,,,,,,,,,,,,,,,,,,,,,,,,,,,,,,,,,,,,,,,,,,,,,,,,,,,,,,,,,,,,,,,,,,,,,,,,,,,,,,,,,,,,,,,,,,,,,,,,,,,,,,,,,,,,,,,,,,,,,,
,,615f8daae239715a12492306,2026-03-17_16h07.32.969,kallum_motion_pilot_GIST_update_2,2026.1.1,Win32,59.88023952,615f8daae239715a12492306,69b95efdef24cd8a694e89ee,69b960024a6040ca440812c1,0.0476,0.0476,1,98,260,99,1,sixeight,,,,,,,,,,,,,,,,,,,,,,,,,,,,,,,,,,,,,,,,,,,,,,,,,,,,,,,,,,,,,,,,,,,,,,,,,,,,,,,,,,,,,,,,,,,,,,,,,,,,,,,,,,,,,,,,,,,,,,,,,,,,,,,,,,,,,,,,,
,,615f8daae239715a12492306,2026-03-17_16h07.32.969,kallum_motion_pilot_GIST_update_2,2026.1.1,Win32,59.88023952,615f8daae239715a12492306,69b95efdef24cd8a694e89ee,69b960024a6040ca440812c1,0.0477,0.0477,1,99,261,35,1,twofour,,,,,,,,,,,,,,,,,,,,,,,,,,,,,,,,,,,,,,,,,,,,,,,,,,,,,,,,,,,,,,,,,,,,,,,,,,,,,,,,,,,,,,,,,,,,,,,,,,,,,,,,,,,,,,,,,,,,,,,,,,,,,,,,,,,,,,,,,
,,615f8daae239715a12492306,2026-03-17_16h07.32.969,kallum_motion_pilot_GIST_update_2,2026.1.1,Win32,59.88023952,615f8daae239715a12492306,69b95efdef24cd8a694e89ee,69b960024a6040ca440812c1,0.0478,0.0478,1,100,262,145,1,fiveseven,,,,,,,,,,,,,,,,,,,,,,,,,,,,,,,,,,,,,,,,,,,,,,,,,,,,,,,,,,,,,,,,,,,,,,,,,,,,,,,,,,,,,,,,,,,,,,,,,,,,,,,,,,,,,,,,,,,,,,,,,,,,,,,,,,,,,,,,,
,,615f8daae239715a12492306,2026-03-17_16h07.32.969,kallum_motion_pilot_GIST_update_2,2026.1.1,Win32,59.88023952,615f8daae239715a12492306,69b95efdef24cd8a694e89ee,69b960024a6040ca440812c1,0.0479,0.0479,1,101,263,74,1,twoone,,,,,,,,,,,,,,,,,,,,,,,,,,,,,,,,,,,,,,,,,,,,,,,,,,,,,,,,,,,,,,,,,,,,,,,,,,,,,,,,,,,,,,,,,,,,,,,,,,,,,,,,,,,,,,,,,,,,,,,,,,,,,,,,,,,,,,,,,
,,615f8daae239715a12492306,2026-03-17_16h07.32.969,kallum_motion_pilot_GIST_update_2,2026.1.1,Win32,59.88023952,615f8daae239715a12492306,69b95efdef24cd8a694e89ee,69b960024a6040ca440812c1,0.048,0.048,1,102,264,69,1,threefour,,,,,,,,,,,,,,,,,,,,,,,,,,,,,,,,,,,,,,,,,,,,,,,,,,,,,,,,,,,,,,,,,,,,,,,,,,,,,,,,,,,,,,,,,,,,,,,,,,,,,,,,,,,,,,,,,,,,,,,,,,,,,,,,,,,,,,,,,
,,615f8daae239715a12492306,2026-03-17_16h07.32.969,kallum_motion_pilot_GIST_update_2,2026.1.1,Win32,59.88023952,615f8daae239715a12492306,69b95efdef24cd8a694e89ee,69b960024a6040ca440812c1,0.0482,0.0482,1,103,265,55,1,fourthree,,,,,,,,,,,,,,,,,,,,,,,,,,,,,,,,,,,,,,,,,,,,,,,,,,,,,,,,,,,,,,,,,,,,,,,,,,,,,,,,,,,,,,,,,,,,,,,,,,,,,,,,,,,,,,,,,,,,,,,,,,,,,,,,,,,,,,,,,
,,615f8daae239715a12492306,2026-03-17_16h07.32.969,kallum_motion_pilot_GIST_update_2,2026.1.1,Win32,59.88023952,615f8daae239715a12492306,69b95efdef24cd8a694e89ee,69b960024a6040ca440812c1,0.0483,0.0483,1,104,266,143,1,eightseven,,,,,,,,,,,,,,,,,,,,,,,,,,,,,,,,,,,,,,,,,,,,,,,,,,,,,,,,,,,,,,,,,,,,,,,,,,,,,,,,,,,,,,,,,,,,,,,,,,,,,,,,,,,,,,,,,,,,,,,,,,,,,,,,,,,,,,,,,
