startup.started,startup.stopped,Prolific ID*,date,expName,psychopyVersion,OS,frameRate,participant,study_id,session,stimpositions.started,stimpositions.stopped,hardcoded_stimulus_positions.thisRepN,hardcoded_stimulus_positions.thisTrialN,hardcoded_stimulus_positions.thisN,hardcoded_stimulus_positions.thisIndex,hardcoded_stimulus_positions.ran,StimulusPos,stimorientation.started,stimorientation.stopped,prac_stimorientation_import_loop.thisRepN,prac_stimorientation_import_loop.thisTrialN,prac_stimorientation_import_loop.thisN,prac_stimorientation_import_loop.thisIndex,prac_stimorientation_import_loop.ran,Stimorientation,welcome_instr.started,welcome_instr.stopped,key_resp.keys,key_resp.rt,key_resp.duration,response_steppedout_1.started,response_steppedout_1.stopped,key_resp_20.keys,key_resp_20.rt,key_resp_20.duration,response_steppedout_2.started,response_steppedout_2.stopped,key_resp_19.keys,key_resp_19.rt,key_resp_19.duration,stim_response_instr.started,stim_response_instr.stopped,key_resp_15.keys,key_resp_15.rt,key_resp_15.duration,direction_instr_2.started,direction_instr_2.stopped,key_resp_9.keys,key_resp_9.rt,key_resp_9.duration,instr_prac.started,instr_prac.stopped,key_resp_10.keys,key_resp_10.rt,key_resp_10.duration,Stim1_display_prac.started,Stim1_display_prac.stopped,Ecc,Circle1_ori,Circle2_ori,response_prac.started,similarity,response_time,response_prac.stopped,mouse_5.x,mouse_5.y,mouse_5.leftButton,mouse_5.midButton,mouse_5.rightButton,mouse_5.clicked_name,responseprac_feedback.started,responseprac_feedback.stopped,summary2_prac.started,summary2_prac.stopped,mouse_6.x,mouse_6.y,mouse_6.leftButton,mouse_6.midButton,mouse_6.rightButton,mouse_6.clicked_name,duringprac.thisRepN,duringprac.thisTrialN,duringprac.thisN,duringprac.thisIndex,duringprac.ran,begin.started,begin.stopped,key_resp_22.keys,key_resp_22.rt,key_resp_22.duration,Stim1_display.started,Stim1_display.stopped,circle1_ori,circle2_ori,circle1_SF,circle2_SF,response.started,response.stopped,mouse.x,mouse.y,mouse.leftButton,mouse.midButton,mouse.rightButton,mouse.clicked_name,trialnumber,double_pass.thisRepN,double_pass.thisTrialN,double_pass.thisN,double_pass.thisIndex,double_pass.ran,double_pass.order,main_trial.thisRepN,main_trial.thisTrialN,main_trial.thisN,main_trial.thisIndex,main_trial.ran,main_trial.order,Trial_Counter,Catch,Frequencies,response_2.started,response_2.stopped,mouse_2.x,mouse_2.y,mouse_2.leftButton,mouse_2.midButton,mouse_2.rightButton,mouse_2.clicked_name,special_trial.started,special_trial.stopped,catch_1.started,catch_1.stopped,mouse_3.x,mouse_3.y,mouse_3.leftButton,mouse_3.midButton,mouse_3.rightButton,catchresponse,catchnumber,response_time_catch,response_sum.started,response_sum.stopped,mouse_11.x,mouse_11.y,mouse_11.leftButton,mouse_11.midButton,mouse_11.rightButton,flip_presentation_sequence_for_double_pass.started,flip_presentation_sequence_for_double_pass.stopped,goodbye.started,goodbye.stopped,key_resp_3.keys,key_resp_3.rt,key_resp_3.duration
0.002,0.0022,616f798530ff27d100493ede,2026-03-17_16h08.03.122,kallum_motion_pilot_GIST_update_2,2026.1.1,Win32,59.52380952,616f798530ff27d100493ede,69b95efdef24cd8a694e89ee,69b9601795c307edc53c932c,,,,,,,,,,,,,,,,,,,,,,,,,,,,,,,,,,,,,,,,,,,,,,,,,,,,,,,,,,,,,,,,,,,,,,,,,,,,,,,,,,,,,,,,,,,,,,,,,,,,,,,,,,,,,,,,,,,,,,,,,,,,,,,,,,,,,,,,,,,,,,,,,
,,616f798530ff27d100493ede,2026-03-17_16h08.03.122,kallum_motion_pilot_GIST_update_2,2026.1.1,Win32,59.52380952,616f798530ff27d100493ede,69b95efdef24cd8a694e89ee,69b9601795c307edc53c932c,0.0469,0.0473,0,0,0,28,1,threeone,,,,,,,,,,,,,,,,,,,,,,,,,,,,,,,,,,,,,,,,,,,,,,,,,,,,,,,,,,,,,,,,,,,,,,,,,,,,,,,,,,,,,,,,,,,,,,,,,,,,,,,,,,,,,,,,,,,,,,,,,,,,,,,,,,,,,,,,,
,,616f798530ff27d100493ede,2026-03-17_16h08.03.122,kallum_motion_pilot_GIST_update_2,2026.1.1,Win32,59.52380952,616f798530ff27d100493ede,69b95efdef24cd8a694e89ee,69b9601795c307edc53c932c,0.0478,0.0478,0,1,1,13,1,threefour,,,,,,,,,,,,,,,,,,,,,,,,,,,,,,,,,,,,,,,,,,,,,,,,,,,,,,,,,,,,,,,,,,,,,,,,,,,,,,,,,,,,,,,,,,,,,,,,,,,,,,,,,,,,,,,,,,,,,,,,,,,,,,,,,,,,,,,,,
,,616f798530ff27d100493ede,2026-03-17_16h08.03.122,kallum_motion_pilot_GIST_update_2,2026.1.1,Win32,59.52380952,616f798530ff27d100493ede,69b95efdef24cd8a694e89ee,69b9601795c307edc53c932c,0.048,0.048,0,2,2,63,1,fourthree,,,,,,,,,,,,,,,,,,,,,,,,,,,,,,,,,,,,,,,,,,,,,,,,,,,,,,,,,,,,,,,,,,,,,,,,,,,,,,,,,,,,,,,,,,,,,,,,,,,,,,,,,,,,,,,,,,,,,,,,,,,,,,,,,,,,,,,,,
,,616f798530ff27d100493ede,2026-03-17_16h08.03.122,kallum_motion_pilot_GIST_update_2,2026.1.1,Win32,59.52380952,616f798530ff27d100493ede,69b95efdef24cd8a694e89ee,69b9601795c307edc53c932c,0.0483,0.0483,0,3,3,27,1,twofour,,,,,,,,,,,,,,,,,,,,,,,,,,,,,,,,,,,,,,,,,,,,,,,,,,,,,,,,,,,,,,,,,,,,,,,,,,,,,,,,,,,,,,,,,,,,,,,,,,,,,,,,,,,,,,,,,,,,,,,,,,,,,,,,,,,,,,,,,
,,616f798530ff27d100493ede,2026-03-17_16h08.03.122,kallum_motion_pilot_GIST_update_2,2026.1.1,Win32,59.52380952,616f798530ff27d100493ede,69b95efdef24cd8a694e89ee,69b9601795c307edc53c932c,0.0486,0.0486,0,4,4,70,1,fourtwo,,,,,,,,,,,,,,,,,,,,,,,,,,,,,,,,,,,,,,,,,,,,,,,,,,,,,,,,,,,,,,,,,,,,,,,,,,,,,,,,,,,,,,,,,,,,,,,,,,,,,,,,,,,,,,,,,,,,,,,,,,,,,,,,,,,,,,,,,
,,616f798530ff27d100493ede,2026-03-17_16h08.03.122,kallum_motion_pilot_GIST_update_2,2026.1.1,Win32,59.52380952,616f798530ff27d100493ede,69b95efdef24cd8a694e89ee,69b9601795c307edc53c932c,0.0488,0.0488,0,5,5,10,1,twoone,,,,,,,,,,,,,,,,,,,,,,,,,,,,,,,,,,,,,,,,,,,,,,,,,,,,,,,,,,,,,,,,,,,,,,,,,,,,,,,,,,,,,,,,,,,,,,,,,,,,,,,,,,,,,,,,,,,,,,,,,,,,,,,,,,,,,,,,,
,,616f798530ff27d100493ede,2026-03-17_16h08.03.122,kallum_motion_pilot_GIST_update_2,2026.1.1,Win32,59.52380952,616f798530ff27d100493ede,69b95efdef24cd8a694e89ee,69b9601795c307edc53c932c,0.0491,0.0491,0,6,6,135,1,eightseven,,,,,,,,,,,,,,,,,,,,,,,,,,,,,,,,,,,,,,,,,,,,,,,,,,,,,,,,,,,,,,,,,,,,,,,,,,,,,,,,,,,,,,,,,,,,,,,,,,,,,,,,,,,,,,,,,,,,,,,,,,,,,,,,,,,,,,,,,
,,616f798530ff27d100493ede,2026-03-17_16h08.03.122,kallum_motion_pilot_GIST_update_2,2026.1.1,Win32,59.52380952,616f798530ff27d100493ede,69b95efdef24cd8a694e89ee,69b9601795c307edc53c932c,0.0493,0.0494,0,7,7,153,1,fiveseven,,,,,,,,,,,,,,,,,,,,,,,,,,,,,,,,,,,,,,,,,,,,,,,,,,,,,,,,,,,,,,,,,,,,,,,,,,,,,,,,,,,,,,,,,,,,,,,,,,,,,,,,,,,,,,,,,,,,,,,,,,,,,,,,,,,,,,,,,
,,616f798530ff27d100493ede,2026-03-17_16h08.03.122,kallum_motion_pilot_GIST_update_2,2026.1.1,Win32,59.52380952,616f798530ff27d100493ede,69b95efdef24cd8a694e89ee,69b9601795c307edc53c932c,0.0501,0.0502,0,8,8,88,1,fivesix,,,,,,,,,,,,,,,,,,,,,,,,,,,,,,,,,,,,,,,,,,,,,,,,,,,,,,,,,,,,,,,,,,,,,,,,,,,,,,,,,,,,,,,,,,,,,,,,,,,,,,,,,,,,,,,,,,,,,,,,,,,,,,,,,,,,,,,,,
,,616f798530ff27d100493ede,2026-03-17_16h08.03.122,kallum_motion_pilot_GIST_update_2,2026.1.1,Win32,59.52380952,616f798530ff27d100493ede,69b95efdef24cd8a694e89ee,69b9601795c307edc53c932c,0.0504,0.0504,0,9,9,145,1,fiveseven,,,,,,,,,,,,,,,,,,,,,,,,,,,,,,,,,,,,,,,,,,,,,,,,,,,,,,,,,,,,,,,,,,,,,,,,,,,,,,,,,,,,,,,,,,,,,,,,,,,,,,,,,,,,,,,,,,,,,,,,,,,,,,,,,,,,,,,,,
,,616f798530ff27d100493ede,2026-03-17_16h08.03.122,kallum_motion_pilot_GIST_update_2,2026.1.1,Win32,59.52380952,616f798530ff27d100493ede,69b95efdef24cd8a694e89ee,69b9601795c307edc53c932c,0.0506,0.0506,0,10,10,45,1,threefour,,,,,,,,,,,,,,,,,,,,,,,,,,,,,,,,,,,,,,,,,,,,,,,,,,,,,,,,,,,,,,,,,,,,,,,,,,,,,,,,,,,,,,,,,,,,,,,,,,,,,,,,,,,,,,,,,,,,,,,,,,,,,,,,,,,,,,,,,
,,616f798530ff27d100493ede,2026-03-17_16h08.03.122,kallum_motion_pilot_GIST_update_2,2026.1.1,Win32,59.52380952,616f798530ff27d100493ede,69b95efdef24cd8a694e89ee,69b9601795c307edc53c932c,0.051,0.051,0,11,11,1,1,onethree,,,,,,,,,,,,,,,,,,,,,,,,,,,,,,,,,,,,,,,,,,,,,,,,,,,,,,,,,,,,,,,,,,,,,,,,,,,,,,,,,,,,,,,,,,,,,,,,,,,,,,,,,,,,,,,,,,,,,,,,,,,,,,,,,,,,,,,,,
,,616f798530ff27d100493ede,2026-03-17_16h08.03.122,kallum_motion_pilot_GIST_update_2,2026.1.1,Win32,59.52380952,616f798530ff27d100493ede,69b95efdef24cd8a694e89ee,69b9601795c307edc53c932c,0.0512,0.0512,0,12,12,84,1,sevenfive,,,,,,,,,,,,,,,,,,,,,,,,,,,,,,,,,,,,,,,,,,,,,,,,,,,,,,,,,,,,,,,,,,,,,,,,,,,,,,,,,,,,,,,,,,,,,,,,,,,,,,,,,,,,,,,,,,,,,,,,,,,,,,,,,,,,,,,,,
,,616f798530ff27d100493ede,2026-03-17_16h08.03.122,kallum_motion_pilot_GIST_update_2,2026.1.1,Win32,59.52380952,616f798530ff27d100493ede,69b95efdef24cd8a694e89ee,69b9601795c307edc53c932c,0.0514,0.0515,0,13,13,141,1,seveneight,,,,,,,,,,,,,,,,,,,,,,,,,,,,,,,,,,,,,,,,,,,,,,,,,,,,,,,,,,,,,,,,,,,,,,,,,,,,,,,,,,,,,,,,,,,,,,,,,,,,,,,,,,,,,,,,,,,,,,,,,,,,,,,,,,,,,,,,,
,,616f798530ff27d100493ede,2026-03-17_16h08.03.122,kallum_motion_pilot_GIST_update_2,2026.1.1,Win32,59.52380952,616f798530ff27d100493ede,69b95efdef24cd8a694e89ee,69b9601795c307edc53c932c,0.0516,0.0516,0,14,14,137,1,fiveseven,,,,,,,,,,,,,,,,,,,,,,,,,,,,,,,,,,,,,,,,,,,,,,,,,,,,,,,,,,,,,,,,,,,,,,,,,,,,,,,,,,,,,,,,,,,,,,,,,,,,,,,,,,,,,,,,,,,,,,,,,,,,,,,,,,,,,,,,,
,,616f798530ff27d100493ede,2026-03-17_16h08.03.122,kallum_motion_pilot_GIST_update_2,2026.1.1,Win32,59.52380952,616f798530ff27d100493ede,69b95efdef24cd8a694e89ee,69b9601795c307edc53c932c,0.0519,0.052,0,15,15,106,1,sixfive,,,,,,,,,,,,,,,,,,,,,,,,,,,,,,,,,,,,,,,,,,,,,,,,,,,,,,,,,,,,,,,,,,,,,,,,,,,,,,,,,,,,,,,,,,,,,,,,,,,,,,,,,,,,,,,,,,,,,,,,,,,,,,,,,,,,,,,,,
,,616f798530ff27d100493ede,2026-03-17_16h08.03.122,kallum_motion_pilot_GIST_update_2,2026.1.1,Win32,59.52380952,616f798530ff27d100493ede,69b95efdef24cd8a694e89ee,69b9601795c307edc53c932c,0.0522,0.0522,0,16,16,65,1,onethree,,,,,,,,,,,,,,,,,,,,,,,,,,,,,,,,,,,,,,,,,,,,,,,,,,,,,,,,,,,,,,,,,,,,,,,,,,,,,,,,,,,,,,,,,,,,,,,,,,,,,,,,,,,,,,,,,,,,,,,,,,,,,,,,,,,,,,,,,
,,616f798530ff27d100493ede,2026-03-17_16h08.03.122,kallum_motion_pilot_GIST_update_2,2026.1.1,Win32,59.52380952,616f798530ff27d100493ede,69b95efdef24cd8a694e89ee,69b9601795c307edc53c932c,0.0524,0.0525,0,17,17,6,1,fourtwo,,,,,,,,,,,,,,,,,,,,,,,,,,,,,,,,,,,,,,,,,,,,,,,,,,,,,,,,,,,,,,,,,,,,,,,,,,,,,,,,,,,,,,,,,,,,,,,,,,,,,,,,,,,,,,,,,,,,,,,,,,,,,,,,,,,,,,,,,
,,616f798530ff27d100493ede,2026-03-17_16h08.03.122,kallum_motion_pilot_GIST_update_2,2026.1.1,Win32,59.52380952,616f798530ff27d100493ede,69b95efdef24cd8a694e89ee,69b9601795c307edc53c932c,0.0526,0.0526,0,18,18,77,1,threefour,,,,,,,,,,,,,,,,,,,,,,,,,,,,,,,,,,,,,,,,,,,,,,,,,,,,,,,,,,,,,,,,,,,,,,,,,,,,,,,,,,,,,,,,,,,,,,,,,,,,,,,,,,,,,,,,,,,,,,,,,,,,,,,,,,,,,,,,,
,,616f798530ff27d100493ede,2026-03-17_16h08.03.122,kallum_motion_pilot_GIST_update_2,2026.1.1,Win32,59.52380952,616f798530ff27d100493ede,69b95efdef24cd8a694e89ee,69b9601795c307edc53c932c,0.0529,0.0529,0,19,19,127,1,eightseven,,,,,,,,,,,,,,,,,,,,,,,,,,,,,,,,,,,,,,,,,,,,,,,,,,,,,,,,,,,,,,,,,,,,,,,,,,,,,,,,,,,,,,,,,,,,,,,,,,,,,,,,,,,,,,,,,,,,,,,,,,,,,,,,,,,,,,,,,
,,616f798530ff27d100493ede,2026-03-17_16h08.03.122,kallum_motion_pilot_GIST_update_2,2026.1.1,Win32,59.52380952,616f798530ff27d100493ede,69b95efdef24cd8a694e89ee,69b9601795c307edc53c932c,0.0532,0.0532,0,20,20,21,1,threefour,,,,,,,,,,,,,,,,,,,,,,,,,,,,,,,,,,,,,,,,,,,,,,,,,,,,,,,,,,,,,,,,,,,,,,,,,,,,,,,,,,,,,,,,,,,,,,,,,,,,,,,,,,,,,,,,,,,,,,,,,,,,,,,,,,,,,,,,,
,,616f798530ff27d100493ede,2026-03-17_16h08.03.122,kallum_motion_pilot_GIST_update_2,2026.1.1,Win32,59.52380952,616f798530ff27d100493ede,69b95efdef24cd8a694e89ee,69b9601795c307edc53c932c,0.0535,0.0535,0,21,21,4,1,threeone,,,,,,,,,,,,,,,,,,,,,,,,,,,,,,,,,,,,,,,,,,,,,,,,,,,,,,,,,,,,,,,,,,,,,,,,,,,,,,,,,,,,,,,,,,,,,,,,,,,,,,,,,,,,,,,,,,,,,,,,,,,,,,,,,,,,,,,,,
,,616f798530ff27d100493ede,2026-03-17_16h08.03.122,kallum_motion_pilot_GIST_update_2,2026.1.1,Win32,59.52380952,616f798530ff27d100493ede,69b95efdef24cd8a694e89ee,69b9601795c307edc53c932c,0.0537,0.0537,0,22,22,51,1,twofour,,,,,,,,,,,,,,,,,,,,,,,,,,,,,,,,,,,,,,,,,,,,,,,,,,,,,,,,,,,,,,,,,,,,,,,,,,,,,,,,,,,,,,,,,,,,,,,,,,,,,,,,,,,,,,,,,,,,,,,,,,,,,,,,,,,,,,,,,
,,616f798530ff27d100493ede,2026-03-17_16h08.03.122,kallum_motion_pilot_GIST_update_2,2026.1.1,Win32,59.52380952,616f798530ff27d100493ede,69b95efdef24cd8a694e89ee,69b9601795c307edc53c932c,0.0539,0.0539,0,23,23,14,1,fourtwo,,,,,,,,,,,,,,,,,,,,,,,,,,,,,,,,,,,,,,,,,,,,,,,,,,,,,,,,,,,,,,,,,,,,,,,,,,,,,,,,,,,,,,,,,,,,,,,,,,,,,,,,,,,,,,,,,,,,,,,,,,,,,,,,,,,,,,,,,
,,616f798530ff27d100493ede,2026-03-17_16h08.03.122,kallum_motion_pilot_GIST_update_2,2026.1.1,Win32,59.52380952,616f798530ff27d100493ede,69b95efdef24cd8a694e89ee,69b9601795c307edc53c932c,0.0542,0.0542,0,24,24,83,1,sixeight,,,,,,,,,,,,,,,,,,,,,,,,,,,,,,,,,,,,,,,,,,,,,,,,,,,,,,,,,,,,,,,,,,,,,,,,,,,,,,,,,,,,,,,,,,,,,,,,,,,,,,,,,,,,,,,,,,,,,,,,,,,,,,,,,,,,,,,,,
,,616f798530ff27d100493ede,2026-03-17_16h08.03.122,kallum_motion_pilot_GIST_update_2,2026.1.1,Win32,59.52380952,616f798530ff27d100493ede,69b95efdef24cd8a694e89ee,69b9601795c307edc53c932c,0.0544,0.0544,0,25,25,12,1,threeone,,,,,,,,,,,,,,,,,,,,,,,,,,,,,,,,,,,,,,,,,,,,,,,,,,,,,,,,,,,,,,,,,,,,,,,,,,,,,,,,,,,,,,,,,,,,,,,,,,,,,,,,,,,,,,,,,,,,,,,,,,,,,,,,,,,,,,,,,
,,616f798530ff27d100493ede,2026-03-17_16h08.03.122,kallum_motion_pilot_GIST_update_2,2026.1.1,Win32,59.52380952,616f798530ff27d100493ede,69b95efdef24cd8a694e89ee,69b9601795c307edc53c932c,0.0546,0.0546,0,26,26,155,1,sixeight,,,,,,,,,,,,,,,,,,,,,,,,,,,,,,,,,,,,,,,,,,,,,,,,,,,,,,,,,,,,,,,,,,,,,,,,,,,,,,,,,,,,,,,,,,,,,,,,,,,,,,,,,,,,,,,,,,,,,,,,,,,,,,,,,,,,,,,,,
,,616f798530ff27d100493ede,2026-03-17_16h08.03.122,kallum_motion_pilot_GIST_update_2,2026.1.1,Win32,59.52380952,616f798530ff27d100493ede,69b95efdef24cd8a694e89ee,69b9601795c307edc53c932c,0.0549,0.0549,0,27,27,15,1,fourthree,,,,,,,,,,,,,,,,,,,,,,,,,,,,,,,,,,,,,,,,,,,,,,,,,,,,,,,,,,,,,,,,,,,,,,,,,,,,,,,,,,,,,,,,,,,,,,,,,,,,,,,,,,,,,,,,,,,,,,,,,,,,,,,,,,,,,,,,,
,,616f798530ff27d100493ede,2026-03-17_16h08.03.122,kallum_motion_pilot_GIST_update_2,2026.1.1,Win32,59.52380952,616f798530ff27d100493ede,69b95efdef24cd8a694e89ee,69b9601795c307edc53c932c,0.0551,0.0551,0,28,28,115,1,sixeight,,,,,,,,,,,,,,,,,,,,,,,,,,,,,,,,,,,,,,,,,,,,,,,,,,,,,,,,,,,,,,,,,,,,,,,,,,,,,,,,,,,,,,,,,,,,,,,,,,,,,,,,,,,,,,,,,,,,,,,,,,,,,,,,,,,,,,,,,
,,616f798530ff27d100493ede,2026-03-17_16h08.03.122,kallum_motion_pilot_GIST_update_2,2026.1.1,Win32,59.52380952,616f798530ff27d100493ede,69b95efdef24cd8a694e89ee,69b9601795c307edc53c932c,0.0553,0.0553,0,29,29,140,1,sevenfive,,,,,,,,,,,,,,,,,,,,,,,,,,,,,,,,,,,,,,,,,,,,,,,,,,,,,,,,,,,,,,,,,,,,,,,,,,,,,,,,,,,,,,,,,,,,,,,,,,,,,,,,,,,,,,,,,,,,,,,,,,,,,,,,,,,,,,,,,
,,616f798530ff27d100493ede,2026-03-17_16h08.03.122,kallum_motion_pilot_GIST_update_2,2026.1.1,Win32,59.52380952,616f798530ff27d100493ede,69b95efdef24cd8a694e89ee,69b9601795c307edc53c932c,0.0555,0.0555,0,30,30,17,1,onethree,,,,,,,,,,,,,,,,,,,,,,,,,,,,,,,,,,,,,,,,,,,,,,,,,,,,,,,,,,,,,,,,,,,,,,,,,,,,,,,,,,,,,,,,,,,,,,,,,,,,,,,,,,,,,,,,,,,,,,,,,,,,,,,,,,,,,,,,,
,,616f798530ff27d100493ede,2026-03-17_16h08.03.122,kallum_motion_pilot_GIST_update_2,2026.1.1,Win32,59.52380952,616f798530ff27d100493ede,69b95efdef24cd8a694e89ee,69b9601795c307edc53c932c,0.0557,0.0557,0,31,31,19,1,twofour,,,,,,,,,,,,,,,,,,,,,,,,,,,,,,,,,,,,,,,,,,,,,,,,,,,,,,,,,,,,,,,,,,,,,,,,,,,,,,,,,,,,,,,,,,,,,,,,,,,,,,,,,,,,,,,,,,,,,,,,,,,,,,,,,,,,,,,,,
,,616f798530ff27d100493ede,2026-03-17_16h08.03.122,kallum_motion_pilot_GIST_update_2,2026.1.1,Win32,59.52380952,616f798530ff27d100493ede,69b95efdef24cd8a694e89ee,69b9601795c307edc53c932c,0.0559,0.0559,0,32,32,22,1,fourtwo,,,,,,,,,,,,,,,,,,,,,,,,,,,,,,,,,,,,,,,,,,,,,,,,,,,,,,,,,,,,,,,,,,,,,,,,,,,,,,,,,,,,,,,,,,,,,,,,,,,,,,,,,,,,,,,,,,,,,,,,,,,,,,,,,,,,,,,,,
,,616f798530ff27d100493ede,2026-03-17_16h08.03.122,kallum_motion_pilot_GIST_update_2,2026.1.1,Win32,59.52380952,616f798530ff27d100493ede,69b95efdef24cd8a694e89ee,69b9601795c307edc53c932c,0.0562,0.0562,0,33,33,7,1,fourthree,,,,,,,,,,,,,,,,,,,,,,,,,,,,,,,,,,,,,,,,,,,,,,,,,,,,,,,,,,,,,,,,,,,,,,,,,,,,,,,,,,,,,,,,,,,,,,,,,,,,,,,,,,,,,,,,,,,,,,,,,,,,,,,,,,,,,,,,,
,,616f798530ff27d100493ede,2026-03-17_16h08.03.122,kallum_motion_pilot_GIST_update_2,2026.1.1,Win32,59.52380952,616f798530ff27d100493ede,69b95efdef24cd8a694e89ee,69b9601795c307edc53c932c,0.0565,0.0565,0,34,34,111,1,eightseven,,,,,,,,,,,,,,,,,,,,,,,,,,,,,,,,,,,,,,,,,,,,,,,,,,,,,,,,,,,,,,,,,,,,,,,,,,,,,,,,,,,,,,,,,,,,,,,,,,,,,,,,,,,,,,,,,,,,,,,,,,,,,,,,,,,,,,,,,
,,616f798530ff27d100493ede,2026-03-17_16h08.03.122,kallum_motion_pilot_GIST_update_2,2026.1.1,Win32,59.52380952,616f798530ff27d100493ede,69b95efdef24cd8a694e89ee,69b9601795c307edc53c932c,0.0567,0.0567,0,35,35,112,1,fivesix,,,,,,,,,,,,,,,,,,,,,,,,,,,,,,,,,,,,,,,,,,,,,,,,,,,,,,,,,,,,,,,,,,,,,,,,,,,,,,,,,,,,,,,,,,,,,,,,,,,,,,,,,,,,,,,,,,,,,,,,,,,,,,,,,,,,,,,,,
,,616f798530ff27d100493ede,2026-03-17_16h08.03.122,kallum_motion_pilot_GIST_update_2,2026.1.1,Win32,59.52380952,616f798530ff27d100493ede,69b95efdef24cd8a694e89ee,69b9601795c307edc53c932c,0.0569,0.0569,0,36,36,67,1,twofour,,,,,,,,,,,,,,,,,,,,,,,,,,,,,,,,,,,,,,,,,,,,,,,,,,,,,,,,,,,,,,,,,,,,,,,,,,,,,,,,,,,,,,,,,,,,,,,,,,,,,,,,,,,,,,,,,,,,,,,,,,,,,,,,,,,,,,,,,
,,616f798530ff27d100493ede,2026-03-17_16h08.03.122,kallum_motion_pilot_GIST_update_2,2026.1.1,Win32,59.52380952,616f798530ff27d100493ede,69b95efdef24cd8a694e89ee,69b9601795c307edc53c932c,0.0572,0.0572,0,37,37,98,1,sixfive,,,,,,,,,,,,,,,,,,,,,,,,,,,,,,,,,,,,,,,,,,,,,,,,,,,,,,,,,,,,,,,,,,,,,,,,,,,,,,,,,,,,,,,,,,,,,,,,,,,,,,,,,,,,,,,,,,,,,,,,,,,,,,,,,,,,,,,,,
,,616f798530ff27d100493ede,2026-03-17_16h08.03.122,kallum_motion_pilot_GIST_update_2,2026.1.1,Win32,59.52380952,616f798530ff27d100493ede,69b95efdef24cd8a694e89ee,69b9601795c307edc53c932c,0.0574,0.0575,0,38,38,42,1,twoone,,,,,,,,,,,,,,,,,,,,,,,,,,,,,,,,,,,,,,,,,,,,,,,,,,,,,,,,,,,,,,,,,,,,,,,,,,,,,,,,,,,,,,,,,,,,,,,,,,,,,,,,,,,,,,,,,,,,,,,,,,,,,,,,,,,,,,,,,
,,616f798530ff27d100493ede,2026-03-17_16h08.03.122,kallum_motion_pilot_GIST_update_2,2026.1.1,Win32,59.52380952,616f798530ff27d100493ede,69b95efdef24cd8a694e89ee,69b9601795c307edc53c932c,0.0577,0.0577,0,39,39,143,1,eightseven,,,,,,,,,,,,,,,,,,,,,,,,,,,,,,,,,,,,,,,,,,,,,,,,,,,,,,,,,,,,,,,,,,,,,,,,,,,,,,,,,,,,,,,,,,,,,,,,,,,,,,,,,,,,,,,,,,,,,,,,,,,,,,,,,,,,,,,,,
,,616f798530ff27d100493ede,2026-03-17_16h08.03.122,kallum_motion_pilot_GIST_update_2,2026.1.1,Win32,59.52380952,616f798530ff27d100493ede,69b95efdef24cd8a694e89ee,69b9601795c307edc53c932c,0.058,0.058,0,40,40,104,1,fivesix,,,,,,,,,,,,,,,,,,,,,,,,,,,,,,,,,,,,,,,,,,,,,,,,,,,,,,,,,,,,,,,,,,,,,,,,,,,,,,,,,,,,,,,,,,,,,,,,,,,,,,,,,,,,,,,,,,,,,,,,,,,,,,,,,,,,,,,,,
,,616f798530ff27d100493ede,2026-03-17_16h08.03.122,kallum_motion_pilot_GIST_update_2,2026.1.1,Win32,59.52380952,616f798530ff27d100493ede,69b95efdef24cd8a694e89ee,69b9601795c307edc53c932c,0.0582,0.0582,0,41,41,86,1,eightsix,,,,,,,,,,,,,,,,,,,,,,,,,,,,,,,,,,,,,,,,,,,,,,,,,,,,,,,,,,,,,,,,,,,,,,,,,,,,,,,,,,,,,,,,,,,,,,,,,,,,,,,,,,,,,,,,,,,,,,,,,,,,,,,,,,,,,,,,,
,,616f798530ff27d100493ede,2026-03-17_16h08.03.122,kallum_motion_pilot_GIST_update_2,2026.1.1,Win32,59.52380952,616f798530ff27d100493ede,69b95efdef24cd8a694e89ee,69b9601795c307edc53c932c,0.0585,0.0585,0,42,42,32,1,onetwo,,,,,,,,,,,,,,,,,,,,,,,,,,,,,,,,,,,,,,,,,,,,,,,,,,,,,,,,,,,,,,,,,,,,,,,,,,,,,,,,,,,,,,,,,,,,,,,,,,,,,,,,,,,,,,,,,,,,,,,,,,,,,,,,,,,,,,,,,
,,616f798530ff27d100493ede,2026-03-17_16h08.03.122,kallum_motion_pilot_GIST_update_2,2026.1.1,Win32,59.52380952,616f798530ff27d100493ede,69b95efdef24cd8a694e89ee,69b9601795c307edc53c932c,0.0587,0.0588,0,43,43,147,1,sixeight,,,,,,,,,,,,,,,,,,,,,,,,,,,,,,,,,,,,,,,,,,,,,,,,,,,,,,,,,,,,,,,,,,,,,,,,,,,,,,,,,,,,,,,,,,,,,,,,,,,,,,,,,,,,,,,,,,,,,,,,,,,,,,,,,,,,,,,,,
,,616f798530ff27d100493ede,2026-03-17_16h08.03.122,kallum_motion_pilot_GIST_update_2,2026.1.1,Win32,59.52380952,616f798530ff27d100493ede,69b95efdef24cd8a694e89ee,69b9601795c307edc53c932c,0.0591,0.0591,0,44,44,126,1,eightsix,,,,,,,,,,,,,,,,,,,,,,,,,,,,,,,,,,,,,,,,,,,,,,,,,,,,,,,,,,,,,,,,,,,,,,,,,,,,,,,,,,,,,,,,,,,,,,,,,,,,,,,,,,,,,,,,,,,,,,,,,,,,,,,,,,,,,,,,,
,,616f798530ff27d100493ede,2026-03-17_16h08.03.122,kallum_motion_pilot_GIST_update_2,2026.1.1,Win32,59.52380952,616f798530ff27d100493ede,69b95efdef24cd8a694e89ee,69b9601795c307edc53c932c,0.0593,0.0593,0,45,45,57,1,onethree,,,,,,,,,,,,,,,,,,,,,,,,,,,,,,,,,,,,,,,,,,,,,,,,,,,,,,,,,,,,,,,,,,,,,,,,,,,,,,,,,,,,,,,,,,,,,,,,,,,,,,,,,,,,,,,,,,,,,,,,,,,,,,,,,,,,,,,,,
,,616f798530ff27d100493ede,2026-03-17_16h08.03.122,kallum_motion_pilot_GIST_update_2,2026.1.1,Win32,59.52380952,616f798530ff27d100493ede,69b95efdef24cd8a694e89ee,69b9601795c307edc53c932c,0.0595,0.0595,0,46,46,124,1,sevenfive,,,,,,,,,,,,,,,,,,,,,,,,,,,,,,,,,,,,,,,,,,,,,,,,,,,,,,,,,,,,,,,,,,,,,,,,,,,,,,,,,,,,,,,,,,,,,,,,,,,,,,,,,,,,,,,,,,,,,,,,,,,,,,,,,,,,,,,,,
,,616f798530ff27d100493ede,2026-03-17_16h08.03.122,kallum_motion_pilot_GIST_update_2,2026.1.1,Win32,59.52380952,616f798530ff27d100493ede,69b95efdef24cd8a694e89ee,69b9601795c307edc53c932c,0.0598,0.0598,0,47,47,114,1,sixfive,,,,,,,,,,,,,,,,,,,,,,,,,,,,,,,,,,,,,,,,,,,,,,,,,,,,,,,,,,,,,,,,,,,,,,,,,,,,,,,,,,,,,,,,,,,,,,,,,,,,,,,,,,,,,,,,,,,,,,,,,,,,,,,,,,,,,,,,,
,,616f798530ff27d100493ede,2026-03-17_16h08.03.122,kallum_motion_pilot_GIST_update_2,2026.1.1,Win32,59.52380952,616f798530ff27d100493ede,69b95efdef24cd8a694e89ee,69b9601795c307edc53c932c,0.06,0.06,0,48,48,3,1,twofour,,,,,,,,,,,,,,,,,,,,,,,,,,,,,,,,,,,,,,,,,,,,,,,,,,,,,,,,,,,,,,,,,,,,,,,,,,,,,,,,,,,,,,,,,,,,,,,,,,,,,,,,,,,,,,,,,,,,,,,,,,,,,,,,,,,,,,,,,
,,616f798530ff27d100493ede,2026-03-17_16h08.03.122,kallum_motion_pilot_GIST_update_2,2026.1.1,Win32,59.52380952,616f798530ff27d100493ede,69b95efdef24cd8a694e89ee,69b9601795c307edc53c932c,0.0602,0.0602,0,49,49,24,1,onetwo,,,,,,,,,,,,,,,,,,,,,,,,,,,,,,,,,,,,,,,,,,,,,,,,,,,,,,,,,,,,,,,,,,,,,,,,,,,,,,,,,,,,,,,,,,,,,,,,,,,,,,,,,,,,,,,,,,,,,,,,,,,,,,,,,,,,,,,,,
,,616f798530ff27d100493ede,2026-03-17_16h08.03.122,kallum_motion_pilot_GIST_update_2,2026.1.1,Win32,59.52380952,616f798530ff27d100493ede,69b95efdef24cd8a694e89ee,69b9601795c307edc53c932c,0.0604,0.0604,0,50,50,48,1,onetwo,,,,,,,,,,,,,,,,,,,,,,,,,,,,,,,,,,,,,,,,,,,,,,,,,,,,,,,,,,,,,,,,,,,,,,,,,,,,,,,,,,,,,,,,,,,,,,,,,,,,,,,,,,,,,,,,,,,,,,,,,,,,,,,,,,,,,,,,,
,,616f798530ff27d100493ede,2026-03-17_16h08.03.122,kallum_motion_pilot_GIST_update_2,2026.1.1,Win32,59.52380952,616f798530ff27d100493ede,69b95efdef24cd8a694e89ee,69b9601795c307edc53c932c,0.0606,0.0607,0,51,51,105,1,fiveseven,,,,,,,,,,,,,,,,,,,,,,,,,,,,,,,,,,,,,,,,,,,,,,,,,,,,,,,,,,,,,,,,,,,,,,,,,,,,,,,,,,,,,,,,,,,,,,,,,,,,,,,,,,,,,,,,,,,,,,,,,,,,,,,,,,,,,,,,,
,,616f798530ff27d100493ede,2026-03-17_16h08.03.122,kallum_motion_pilot_GIST_update_2,2026.1.1,Win32,59.52380952,616f798530ff27d100493ede,69b95efdef24cd8a694e89ee,69b9601795c307edc53c932c,0.061,0.061,0,52,52,89,1,fiveseven,,,,,,,,,,,,,,,,,,,,,,,,,,,,,,,,,,,,,,,,,,,,,,,,,,,,,,,,,,,,,,,,,,,,,,,,,,,,,,,,,,,,,,,,,,,,,,,,,,,,,,,,,,,,,,,,,,,,,,,,,,,,,,,,,,,,,,,,,
,,616f798530ff27d100493ede,2026-03-17_16h08.03.122,kallum_motion_pilot_GIST_update_2,2026.1.1,Win32,59.52380952,616f798530ff27d100493ede,69b95efdef24cd8a694e89ee,69b9601795c307edc53c932c,0.0612,0.0612,0,53,53,146,1,sixfive,,,,,,,,,,,,,,,,,,,,,,,,,,,,,,,,,,,,,,,,,,,,,,,,,,,,,,,,,,,,,,,,,,,,,,,,,,,,,,,,,,,,,,,,,,,,,,,,,,,,,,,,,,,,,,,,,,,,,,,,,,,,,,,,,,,,,,,,,
,,616f798530ff27d100493ede,2026-03-17_16h08.03.122,kallum_motion_pilot_GIST_update_2,2026.1.1,Win32,59.52380952,616f798530ff27d100493ede,69b95efdef24cd8a694e89ee,69b9601795c307edc53c932c,0.0614,0.0614,0,54,54,156,1,sevenfive,,,,,,,,,,,,,,,,,,,,,,,,,,,,,,,,,,,,,,,,,,,,,,,,,,,,,,,,,,,,,,,,,,,,,,,,,,,,,,,,,,,,,,,,,,,,,,,,,,,,,,,,,,,,,,,,,,,,,,,,,,,,,,,,,,,,,,,,,
,,616f798530ff27d100493ede,2026-03-17_16h08.03.122,kallum_motion_pilot_GIST_update_2,2026.1.1,Win32,59.52380952,616f798530ff27d100493ede,69b95efdef24cd8a694e89ee,69b9601795c307edc53c932c,0.0617,0.0617,0,55,55,30,1,fourtwo,,,,,,,,,,,,,,,,,,,,,,,,,,,,,,,,,,,,,,,,,,,,,,,,,,,,,,,,,,,,,,,,,,,,,,,,,,,,,,,,,,,,,,,,,,,,,,,,,,,,,,,,,,,,,,,,,,,,,,,,,,,,,,,,,,,,,,,,,
,,616f798530ff27d100493ede,2026-03-17_16h08.03.122,kallum_motion_pilot_GIST_update_2,2026.1.1,Win32,59.52380952,616f798530ff27d100493ede,69b95efdef24cd8a694e89ee,69b9601795c307edc53c932c,0.0619,0.0619,0,56,56,92,1,sevenfive,,,,,,,,,,,,,,,,,,,,,,,,,,,,,,,,,,,,,,,,,,,,,,,,,,,,,,,,,,,,,,,,,,,,,,,,,,,,,,,,,,,,,,,,,,,,,,,,,,,,,,,,,,,,,,,,,,,,,,,,,,,,,,,,,,,,,,,,,
,,616f798530ff27d100493ede,2026-03-17_16h08.03.122,kallum_motion_pilot_GIST_update_2,2026.1.1,Win32,59.52380952,616f798530ff27d100493ede,69b95efdef24cd8a694e89ee,69b9601795c307edc53c932c,0.0621,0.0621,0,57,57,139,1,sixeight,,,,,,,,,,,,,,,,,,,,,,,,,,,,,,,,,,,,,,,,,,,,,,,,,,,,,,,,,,,,,,,,,,,,,,,,,,,,,,,,,,,,,,,,,,,,,,,,,,,,,,,,,,,,,,,,,,,,,,,,,,,,,,,,,,,,,,,,,
,,616f798530ff27d100493ede,2026-03-17_16h08.03.122,kallum_motion_pilot_GIST_update_2,2026.1.1,Win32,59.52380952,616f798530ff27d100493ede,69b95efdef24cd8a694e89ee,69b9601795c307edc53c932c,0.0623,0.0623,0,58,58,80,1,fivesix,,,,,,,,,,,,,,,,,,,,,,,,,,,,,,,,,,,,,,,,,,,,,,,,,,,,,,,,,,,,,,,,,,,,,,,,,,,,,,,,,,,,,,,,,,,,,,,,,,,,,,,,,,,,,,,,,,,,,,,,,,,,,,,,,,,,,,,,,
,,616f798530ff27d100493ede,2026-03-17_16h08.03.122,kallum_motion_pilot_GIST_update_2,2026.1.1,Win32,59.52380952,616f798530ff27d100493ede,69b95efdef24cd8a694e89ee,69b9601795c307edc53c932c,0.0626,0.0626,0,59,59,64,1,onetwo,,,,,,,,,,,,,,,,,,,,,,,,,,,,,,,,,,,,,,,,,,,,,,,,,,,,,,,,,,,,,,,,,,,,,,,,,,,,,,,,,,,,,,,,,,,,,,,,,,,,,,,,,,,,,,,,,,,,,,,,,,,,,,,,,,,,,,,,,
,,616f798530ff27d100493ede,2026-03-17_16h08.03.122,kallum_motion_pilot_GIST_update_2,2026.1.1,Win32,59.52380952,616f798530ff27d100493ede,69b95efdef24cd8a694e89ee,69b9601795c307edc53c932c,0.0629,0.0629,0,60,60,33,1,onethree,,,,,,,,,,,,,,,,,,,,,,,,,,,,,,,,,,,,,,,,,,,,,,,,,,,,,,,,,,,,,,,,,,,,,,,,,,,,,,,,,,,,,,,,,,,,,,,,,,,,,,,,,,,,,,,,,,,,,,,,,,,,,,,,,,,,,,,,,
,,616f798530ff27d100493ede,2026-03-17_16h08.03.122,kallum_motion_pilot_GIST_update_2,2026.1.1,Win32,59.52380952,616f798530ff27d100493ede,69b95efdef24cd8a694e89ee,69b9601795c307edc53c932c,0.0632,0.0632,0,61,61,76,1,threeone,,,,,,,,,,,,,,,,,,,,,,,,,,,,,,,,,,,,,,,,,,,,,,,,,,,,,,,,,,,,,,,,,,,,,,,,,,,,,,,,,,,,,,,,,,,,,,,,,,,,,,,,,,,,,,,,,,,,,,,,,,,,,,,,,,,,,,,,,
,,616f798530ff27d100493ede,2026-03-17_16h08.03.122,kallum_motion_pilot_GIST_update_2,2026.1.1,Win32,59.52380952,616f798530ff27d100493ede,69b95efdef24cd8a694e89ee,69b9601795c307edc53c932c,0.0636,0.0636,0,62,62,113,1,fiveseven,,,,,,,,,,,,,,,,,,,,,,,,,,,,,,,,,,,,,,,,,,,,,,,,,,,,,,,,,,,,,,,,,,,,,,,,,,,,,,,,,,,,,,,,,,,,,,,,,,,,,,,,,,,,,,,,,,,,,,,,,,,,,,,,,,,,,,,,,
,,616f798530ff27d100493ede,2026-03-17_16h08.03.122,kallum_motion_pilot_GIST_update_2,2026.1.1,Win32,59.52380952,616f798530ff27d100493ede,69b95efdef24cd8a694e89ee,69b9601795c307edc53c932c,0.0642,0.0642,0,63,63,102,1,eightsix,,,,,,,,,,,,,,,,,,,,,,,,,,,,,,,,,,,,,,,,,,,,,,,,,,,,,,,,,,,,,,,,,,,,,,,,,,,,,,,,,,,,,,,,,,,,,,,,,,,,,,,,,,,,,,,,,,,,,,,,,,,,,,,,,,,,,,,,,
,,616f798530ff27d100493ede,2026-03-17_16h08.03.122,kallum_motion_pilot_GIST_update_2,2026.1.1,Win32,59.52380952,616f798530ff27d100493ede,69b95efdef24cd8a694e89ee,69b9601795c307edc53c932c,0.0644,0.0644,0,64,64,87,1,eightseven,,,,,,,,,,,,,,,,,,,,,,,,,,,,,,,,,,,,,,,,,,,,,,,,,,,,,,,,,,,,,,,,,,,,,,,,,,,,,,,,,,,,,,,,,,,,,,,,,,,,,,,,,,,,,,,,,,,,,,,,,,,,,,,,,,,,,,,,,
,,616f798530ff27d100493ede,2026-03-17_16h08.03.122,kallum_motion_pilot_GIST_update_2,2026.1.1,Win32,59.52380952,616f798530ff27d100493ede,69b95efdef24cd8a694e89ee,69b9601795c307edc53c932c,0.0648,0.0648,0,65,65,149,1,seveneight,,,,,,,,,,,,,,,,,,,,,,,,,,,,,,,,,,,,,,,,,,,,,,,,,,,,,,,,,,,,,,,,,,,,,,,,,,,,,,,,,,,,,,,,,,,,,,,,,,,,,,,,,,,,,,,,,,,,,,,,,,,,,,,,,,,,,,,,,
,,616f798530ff27d100493ede,2026-03-17_16h08.03.122,kallum_motion_pilot_GIST_update_2,2026.1.1,Win32,59.52380952,616f798530ff27d100493ede,69b95efdef24cd8a694e89ee,69b9601795c307edc53c932c,0.065,0.065,0,66,66,36,1,threeone,,,,,,,,,,,,,,,,,,,,,,,,,,,,,,,,,,,,,,,,,,,,,,,,,,,,,,,,,,,,,,,,,,,,,,,,,,,,,,,,,,,,,,,,,,,,,,,,,,,,,,,,,,,,,,,,,,,,,,,,,,,,,,,,,,,,,,,,,
,,616f798530ff27d100493ede,2026-03-17_16h08.03.122,kallum_motion_pilot_GIST_update_2,2026.1.1,Win32,59.52380952,616f798530ff27d100493ede,69b95efdef24cd8a694e89ee,69b9601795c307edc53c932c,0.0653,0.0654,0,67,67,90,1,sixfive,,,,,,,,,,,,,,,,,,,,,,,,,,,,,,,,,,,,,,,,,,,,,,,,,,,,,,,,,,,,,,,,,,,,,,,,,,,,,,,,,,,,,,,,,,,,,,,,,,,,,,,,,,,,,,,,,,,,,,,,,,,,,,,,,,,,,,,,,
,,616f798530ff27d100493ede,2026-03-17_16h08.03.122,kallum_motion_pilot_GIST_update_2,2026.1.1,Win32,59.52380952,616f798530ff27d100493ede,69b95efdef24cd8a694e89ee,69b9601795c307edc53c932c,0.0656,0.0656,0,68,68,71,1,fourthree,,,,,,,,,,,,,,,,,,,,,,,,,,,,,,,,,,,,,,,,,,,,,,,,,,,,,,,,,,,,,,,,,,,,,,,,,,,,,,,,,,,,,,,,,,,,,,,,,,,,,,,,,,,,,,,,,,,,,,,,,,,,,,,,,,,,,,,,,
,,616f798530ff27d100493ede,2026-03-17_16h08.03.122,kallum_motion_pilot_GIST_update_2,2026.1.1,Win32,59.52380952,616f798530ff27d100493ede,69b95efdef24cd8a694e89ee,69b9601795c307edc53c932c,0.0659,0.0659,0,69,69,44,1,threeone,,,,,,,,,,,,,,,,,,,,,,,,,,,,,,,,,,,,,,,,,,,,,,,,,,,,,,,,,,,,,,,,,,,,,,,,,,,,,,,,,,,,,,,,,,,,,,,,,,,,,,,,,,,,,,,,,,,,,,,,,,,,,,,,,,,,,,,,,
,,616f798530ff27d100493ede,2026-03-17_16h08.03.122,kallum_motion_pilot_GIST_update_2,2026.1.1,Win32,59.52380952,616f798530ff27d100493ede,69b95efdef24cd8a694e89ee,69b9601795c307edc53c932c,0.0661,0.0661,0,70,70,142,1,eightsix,,,,,,,,,,,,,,,,,,,,,,,,,,,,,,,,,,,,,,,,,,,,,,,,,,,,,,,,,,,,,,,,,,,,,,,,,,,,,,,,,,,,,,,,,,,,,,,,,,,,,,,,,,,,,,,,,,,,,,,,,,,,,,,,,,,,,,,,,
,,616f798530ff27d100493ede,2026-03-17_16h08.03.122,kallum_motion_pilot_GIST_update_2,2026.1.1,Win32,59.52380952,616f798530ff27d100493ede,69b95efdef24cd8a694e89ee,69b9601795c307edc53c932c,0.0663,0.0664,0,71,71,16,1,onetwo,,,,,,,,,,,,,,,,,,,,,,,,,,,,,,,,,,,,,,,,,,,,,,,,,,,,,,,,,,,,,,,,,,,,,,,,,,,,,,,,,,,,,,,,,,,,,,,,,,,,,,,,,,,,,,,,,,,,,,,,,,,,,,,,,,,,,,,,,
,,616f798530ff27d100493ede,2026-03-17_16h08.03.122,kallum_motion_pilot_GIST_update_2,2026.1.1,Win32,59.52380952,616f798530ff27d100493ede,69b95efdef24cd8a694e89ee,69b9601795c307edc53c932c,0.0666,0.0666,0,72,72,9,1,onethree,,,,,,,,,,,,,,,,,,,,,,,,,,,,,,,,,,,,,,,,,,,,,,,,,,,,,,,,,,,,,,,,,,,,,,,,,,,,,,,,,,,,,,,,,,,,,,,,,,,,,,,,,,,,,,,,,,,,,,,,,,,,,,,,,,,,,,,,,
,,616f798530ff27d100493ede,2026-03-17_16h08.03.122,kallum_motion_pilot_GIST_update_2,2026.1.1,Win32,59.52380952,616f798530ff27d100493ede,69b95efdef24cd8a694e89ee,69b9601795c307edc53c932c,0.0669,0.0669,0,73,73,131,1,sixeight,,,,,,,,,,,,,,,,,,,,,,,,,,,,,,,,,,,,,,,,,,,,,,,,,,,,,,,,,,,,,,,,,,,,,,,,,,,,,,,,,,,,,,,,,,,,,,,,,,,,,,,,,,,,,,,,,,,,,,,,,,,,,,,,,,,,,,,,,
,,616f798530ff27d100493ede,2026-03-17_16h08.03.122,kallum_motion_pilot_GIST_update_2,2026.1.1,Win32,59.52380952,616f798530ff27d100493ede,69b95efdef24cd8a694e89ee,69b9601795c307edc53c932c,0.0671,0.0672,0,74,74,107,1,sixeight,,,,,,,,,,,,,,,,,,,,,,,,,,,,,,,,,,,,,,,,,,,,,,,,,,,,,,,,,,,,,,,,,,,,,,,,,,,,,,,,,,,,,,,,,,,,,,,,,,,,,,,,,,,,,,,,,,,,,,,,,,,,,,,,,,,,,,,,,
,,616f798530ff27d100493ede,2026-03-17_16h08.03.122,kallum_motion_pilot_GIST_update_2,2026.1.1,Win32,59.52380952,616f798530ff27d100493ede,69b95efdef24cd8a694e89ee,69b9601795c307edc53c932c,0.0675,0.0675,0,75,75,58,1,twoone,,,,,,,,,,,,,,,,,,,,,,,,,,,,,,,,,,,,,,,,,,,,,,,,,,,,,,,,,,,,,,,,,,,,,,,,,,,,,,,,,,,,,,,,,,,,,,,,,,,,,,,,,,,,,,,,,,,,,,,,,,,,,,,,,,,,,,,,,
,,616f798530ff27d100493ede,2026-03-17_16h08.03.122,kallum_motion_pilot_GIST_update_2,2026.1.1,Win32,59.52380952,616f798530ff27d100493ede,69b95efdef24cd8a694e89ee,69b9601795c307edc53c932c,0.0678,0.0678,0,76,76,132,1,sevenfive,,,,,,,,,,,,,,,,,,,,,,,,,,,,,,,,,,,,,,,,,,,,,,,,,,,,,,,,,,,,,,,,,,,,,,,,,,,,,,,,,,,,,,,,,,,,,,,,,,,,,,,,,,,,,,,,,,,,,,,,,,,,,,,,,,,,,,,,,
,,616f798530ff27d100493ede,2026-03-17_16h08.03.122,kallum_motion_pilot_GIST_update_2,2026.1.1,Win32,59.52380952,616f798530ff27d100493ede,69b95efdef24cd8a694e89ee,69b9601795c307edc53c932c,0.068,0.068,0,77,77,100,1,sevenfive,,,,,,,,,,,,,,,,,,,,,,,,,,,,,,,,,,,,,,,,,,,,,,,,,,,,,,,,,,,,,,,,,,,,,,,,,,,,,,,,,,,,,,,,,,,,,,,,,,,,,,,,,,,,,,,,,,,,,,,,,,,,,,,,,,,,,,,,,
,,616f798530ff27d100493ede,2026-03-17_16h08.03.122,kallum_motion_pilot_GIST_update_2,2026.1.1,Win32,59.52380952,616f798530ff27d100493ede,69b95efdef24cd8a694e89ee,69b9601795c307edc53c932c,0.0682,0.0682,0,78,78,40,1,onetwo,,,,,,,,,,,,,,,,,,,,,,,,,,,,,,,,,,,,,,,,,,,,,,,,,,,,,,,,,,,,,,,,,,,,,,,,,,,,,,,,,,,,,,,,,,,,,,,,,,,,,,,,,,,,,,,,,,,,,,,,,,,,,,,,,,,,,,,,,
,,616f798530ff27d100493ede,2026-03-17_16h08.03.122,kallum_motion_pilot_GIST_update_2,2026.1.1,Win32,59.52380952,616f798530ff27d100493ede,69b95efdef24cd8a694e89ee,69b9601795c307edc53c932c,0.0685,0.0685,0,79,79,130,1,sixfive,,,,,,,,,,,,,,,,,,,,,,,,,,,,,,,,,,,,,,,,,,,,,,,,,,,,,,,,,,,,,,,,,,,,,,,,,,,,,,,,,,,,,,,,,,,,,,,,,,,,,,,,,,,,,,,,,,,,,,,,,,,,,,,,,,,,,,,,,
,,616f798530ff27d100493ede,2026-03-17_16h08.03.122,kallum_motion_pilot_GIST_update_2,2026.1.1,Win32,59.52380952,616f798530ff27d100493ede,69b95efdef24cd8a694e89ee,69b9601795c307edc53c932c,0.0687,0.0687,0,80,80,34,1,twoone,,,,,,,,,,,,,,,,,,,,,,,,,,,,,,,,,,,,,,,,,,,,,,,,,,,,,,,,,,,,,,,,,,,,,,,,,,,,,,,,,,,,,,,,,,,,,,,,,,,,,,,,,,,,,,,,,,,,,,,,,,,,,,,,,,,,,,,,,
,,616f798530ff27d100493ede,2026-03-17_16h08.03.122,kallum_motion_pilot_GIST_update_2,2026.1.1,Win32,59.52380952,616f798530ff27d100493ede,69b95efdef24cd8a694e89ee,69b9601795c307edc53c932c,0.0691,0.0691,0,81,81,148,1,sevenfive,,,,,,,,,,,,,,,,,,,,,,,,,,,,,,,,,,,,,,,,,,,,,,,,,,,,,,,,,,,,,,,,,,,,,,,,,,,,,,,,,,,,,,,,,,,,,,,,,,,,,,,,,,,,,,,,,,,,,,,,,,,,,,,,,,,,,,,,,
,,616f798530ff27d100493ede,2026-03-17_16h08.03.122,kallum_motion_pilot_GIST_update_2,2026.1.1,Win32,59.52380952,616f798530ff27d100493ede,69b95efdef24cd8a694e89ee,69b9601795c307edc53c932c,0.0693,0.0694,0,82,82,31,1,fourthree,,,,,,,,,,,,,,,,,,,,,,,,,,,,,,,,,,,,,,,,,,,,,,,,,,,,,,,,,,,,,,,,,,,,,,,,,,,,,,,,,,,,,,,,,,,,,,,,,,,,,,,,,,,,,,,,,,,,,,,,,,,,,,,,,,,,,,,,,
,,616f798530ff27d100493ede,2026-03-17_16h08.03.122,kallum_motion_pilot_GIST_update_2,2026.1.1,Win32,59.52380952,616f798530ff27d100493ede,69b95efdef24cd8a694e89ee,69b9601795c307edc53c932c,0.0696,0.0696,0,83,83,20,1,threeone,,,,,,,,,,,,,,,,,,,,,,,,,,,,,,,,,,,,,,,,,,,,,,,,,,,,,,,,,,,,,,,,,,,,,,,,,,,,,,,,,,,,,,,,,,,,,,,,,,,,,,,,,,,,,,,,,,,,,,,,,,,,,,,,,,,,,,,,,
,,616f798530ff27d100493ede,2026-03-17_16h08.03.122,kallum_motion_pilot_GIST_update_2,2026.1.1,Win32,59.52380952,616f798530ff27d100493ede,69b95efdef24cd8a694e89ee,69b9601795c307edc53c932c,0.0698,0.0699,0,84,84,138,1,sixfive,,,,,,,,,,,,,,,,,,,,,,,,,,,,,,,,,,,,,,,,,,,,,,,,,,,,,,,,,,,,,,,,,,,,,,,,,,,,,,,,,,,,,,,,,,,,,,,,,,,,,,,,,,,,,,,,,,,,,,,,,,,,,,,,,,,,,,,,,
,,616f798530ff27d100493ede,2026-03-17_16h08.03.122,kallum_motion_pilot_GIST_update_2,2026.1.1,Win32,59.52380952,616f798530ff27d100493ede,69b95efdef24cd8a694e89ee,69b9601795c307edc53c932c,0.0701,0.0701,0,85,85,158,1,eightsix,,,,,,,,,,,,,,,,,,,,,,,,,,,,,,,,,,,,,,,,,,,,,,,,,,,,,,,,,,,,,,,,,,,,,,,,,,,,,,,,,,,,,,,,,,,,,,,,,,,,,,,,,,,,,,,,,,,,,,,,,,,,,,,,,,,,,,,,,
,,616f798530ff27d100493ede,2026-03-17_16h08.03.122,kallum_motion_pilot_GIST_update_2,2026.1.1,Win32,59.52380952,616f798530ff27d100493ede,69b95efdef24cd8a694e89ee,69b9601795c307edc53c932c,0.0704,0.0704,0,86,86,69,1,threefour,,,,,,,,,,,,,,,,,,,,,,,,,,,,,,,,,,,,,,,,,,,,,,,,,,,,,,,,,,,,,,,,,,,,,,,,,,,,,,,,,,,,,,,,,,,,,,,,,,,,,,,,,,,,,,,,,,,,,,,,,,,,,,,,,,,,,,,,,
,,616f798530ff27d100493ede,2026-03-17_16h08.03.122,kallum_motion_pilot_GIST_update_2,2026.1.1,Win32,59.52380952,616f798530ff27d100493ede,69b95efdef24cd8a694e89ee,69b9601795c307edc53c932c,0.0707,0.0707,0,87,87,121,1,fiveseven,,,,,,,,,,,,,,,,,,,,,,,,,,,,,,,,,,,,,,,,,,,,,,,,,,,,,,,,,,,,,,,,,,,,,,,,,,,,,,,,,,,,,,,,,,,,,,,,,,,,,,,,,,,,,,,,,,,,,,,,,,,,,,,,,,,,,,,,,
,,616f798530ff27d100493ede,2026-03-17_16h08.03.122,kallum_motion_pilot_GIST_update_2,2026.1.1,Win32,59.52380952,616f798530ff27d100493ede,69b95efdef24cd8a694e89ee,69b9601795c307edc53c932c,0.0709,0.0709,0,88,88,53,1,threefour,,,,,,,,,,,,,,,,,,,,,,,,,,,,,,,,,,,,,,,,,,,,,,,,,,,,,,,,,,,,,,,,,,,,,,,,,,,,,,,,,,,,,,,,,,,,,,,,,,,,,,,,,,,,,,,,,,,,,,,,,,,,,,,,,,,,,,,,,
,,616f798530ff27d100493ede,2026-03-17_16h08.03.122,kallum_motion_pilot_GIST_update_2,2026.1.1,Win32,59.52380952,616f798530ff27d100493ede,69b95efdef24cd8a694e89ee,69b9601795c307edc53c932c,0.0712,0.0712,0,89,89,26,1,twoone,,,,,,,,,,,,,,,,,,,,,,,,,,,,,,,,,,,,,,,,,,,,,,,,,,,,,,,,,,,,,,,,,,,,,,,,,,,,,,,,,,,,,,,,,,,,,,,,,,,,,,,,,,,,,,,,,,,,,,,,,,,,,,,,,,,,,,,,,
,,616f798530ff27d100493ede,2026-03-17_16h08.03.122,kallum_motion_pilot_GIST_update_2,2026.1.1,Win32,59.52380952,616f798530ff27d100493ede,69b95efdef24cd8a694e89ee,69b9601795c307edc53c932c,0.0715,0.0715,0,90,90,99,1,sixeight,,,,,,,,,,,,,,,,,,,,,,,,,,,,,,,,,,,,,,,,,,,,,,,,,,,,,,,,,,,,,,,,,,,,,,,,,,,,,,,,,,,,,,,,,,,,,,,,,,,,,,,,,,,,,,,,,,,,,,,,,,,,,,,,,,,,,,,,,
,,616f798530ff27d100493ede,2026-03-17_16h08.03.122,kallum_motion_pilot_GIST_update_2,2026.1.1,Win32,59.52380952,616f798530ff27d100493ede,69b95efdef24cd8a694e89ee,69b9601795c307edc53c932c,0.0717,0.0718,0,91,91,157,1,seveneight,,,,,,,,,,,,,,,,,,,,,,,,,,,,,,,,,,,,,,,,,,,,,,,,,,,,,,,,,,,,,,,,,,,,,,,,,,,,,,,,,,,,,,,,,,,,,,,,,,,,,,,,,,,,,,,,,,,,,,,,,,,,,,,,,,,,,,,,,
,,616f798530ff27d100493ede,2026-03-17_16h08.03.122,kallum_motion_pilot_GIST_update_2,2026.1.1,Win32,59.52380952,616f798530ff27d100493ede,69b95efdef24cd8a694e89ee,69b9601795c307edc53c932c,0.072,0.072,0,92,92,46,1,fourtwo,,,,,,,,,,,,,,,,,,,,,,,,,,,,,,,,,,,,,,,,,,,,,,,,,,,,,,,,,,,,,,,,,,,,,,,,,,,,,,,,,,,,,,,,,,,,,,,,,,,,,,,,,,,,,,,,,,,,,,,,,,,,,,,,,,,,,,,,,
,,616f798530ff27d100493ede,2026-03-17_16h08.03.122,kallum_motion_pilot_GIST_update_2,2026.1.1,Win32,59.52380952,616f798530ff27d100493ede,69b95efdef24cd8a694e89ee,69b9601795c307edc53c932c,0.0723,0.0723,0,93,93,160,1,fivesix,,,,,,,,,,,,,,,,,,,,,,,,,,,,,,,,,,,,,,,,,,,,,,,,,,,,,,,,,,,,,,,,,,,,,,,,,,,,,,,,,,,,,,,,,,,,,,,,,,,,,,,,,,,,,,,,,,,,,,,,,,,,,,,,,,,,,,,,,
,,616f798530ff27d100493ede,2026-03-17_16h08.03.122,kallum_motion_pilot_GIST_update_2,2026.1.1,Win32,59.52380952,616f798530ff27d100493ede,69b95efdef24cd8a694e89ee,69b9601795c307edc53c932c,0.0725,0.0725,0,94,94,108,1,sevenfive,,,,,,,,,,,,,,,,,,,,,,,,,,,,,,,,,,,,,,,,,,,,,,,,,,,,,,,,,,,,,,,,,,,,,,,,,,,,,,,,,,,,,,,,,,,,,,,,,,,,,,,,,,,,,,,,,,,,,,,,,,,,,,,,,,,,,,,,,
,,616f798530ff27d100493ede,2026-03-17_16h08.03.122,kallum_motion_pilot_GIST_update_2,2026.1.1,Win32,59.52380952,616f798530ff27d100493ede,69b95efdef24cd8a694e89ee,69b9601795c307edc53c932c,0.0728,0.0728,0,95,95,117,1,seveneight,,,,,,,,,,,,,,,,,,,,,,,,,,,,,,,,,,,,,,,,,,,,,,,,,,,,,,,,,,,,,,,,,,,,,,,,,,,,,,,,,,,,,,,,,,,,,,,,,,,,,,,,,,,,,,,,,,,,,,,,,,,,,,,,,,,,,,,,,
,,616f798530ff27d100493ede,2026-03-17_16h08.03.122,kallum_motion_pilot_GIST_update_2,2026.1.1,Win32,59.52380952,616f798530ff27d100493ede,69b95efdef24cd8a694e89ee,69b9601795c307edc53c932c,0.0731,0.0732,0,96,96,120,1,fivesix,,,,,,,,,,,,,,,,,,,,,,,,,,,,,,,,,,,,,,,,,,,,,,,,,,,,,,,,,,,,,,,,,,,,,,,,,,,,,,,,,,,,,,,,,,,,,,,,,,,,,,,,,,,,,,,,,,,,,,,,,,,,,,,,,,,,,,,,,
,,616f798530ff27d100493ede,2026-03-17_16h08.03.122,kallum_motion_pilot_GIST_update_2,2026.1.1,Win32,59.52380952,616f798530ff27d100493ede,69b95efdef24cd8a694e89ee,69b9601795c307edc53c932c,0.0734,0.0735,0,97,97,116,1,sevenfive,,,,,,,,,,,,,,,,,,,,,,,,,,,,,,,,,,,,,,,,,,,,,,,,,,,,,,,,,,,,,,,,,,,,,,,,,,,,,,,,,,,,,,,,,,,,,,,,,,,,,,,,,,,,,,,,,,,,,,,,,,,,,,,,,,,,,,,,,
,,616f798530ff27d100493ede,2026-03-17_16h08.03.122,kallum_motion_pilot_GIST_update_2,2026.1.1,Win32,59.52380952,616f798530ff27d100493ede,69b95efdef24cd8a694e89ee,69b9601795c307edc53c932c,0.0739,0.0739,0,98,98,41,1,onethree,,,,,,,,,,,,,,,,,,,,,,,,,,,,,,,,,,,,,,,,,,,,,,,,,,,,,,,,,,,,,,,,,,,,,,,,,,,,,,,,,,,,,,,,,,,,,,,,,,,,,,,,,,,,,,,,,,,,,,,,,,,,,,,,,,,,,,,,,
,,616f798530ff27d100493ede,2026-03-17_16h08.03.122,kallum_motion_pilot_GIST_update_2,2026.1.1,Win32,59.52380952,616f798530ff27d100493ede,69b95efdef24cd8a694e89ee,69b9601795c307edc53c932c,0.0742,0.0742,0,99,99,78,1,fourtwo,,,,,,,,,,,,,,,,,,,,,,,,,,,,,,,,,,,,,,,,,,,,,,,,,,,,,,,,,,,,,,,,,,,,,,,,,,,,,,,,,,,,,,,,,,,,,,,,,,,,,,,,,,,,,,,,,,,,,,,,,,,,,,,,,,,,,,,,,
,,616f798530ff27d100493ede,2026-03-17_16h08.03.122,kallum_motion_pilot_GIST_update_2,2026.1.1,Win32,59.52380952,616f798530ff27d100493ede,69b95efdef24cd8a694e89ee,69b9601795c307edc53c932c,0.0745,0.0745,0,100,100,18,1,twoone,,,,,,,,,,,,,,,,,,,,,,,,,,,,,,,,,,,,,,,,,,,,,,,,,,,,,,,,,,,,,,,,,,,,,,,,,,,,,,,,,,,,,,,,,,,,,,,,,,,,,,,,,,,,,,,,,,,,,,,,,,,,,,,,,,,,,,,,,
,,616f798530ff27d100493ede,2026-03-17_16h08.03.122,kallum_motion_pilot_GIST_update_2,2026.1.1,Win32,59.52380952,616f798530ff27d100493ede,69b95efdef24cd8a694e89ee,69b9601795c307edc53c932c,0.0747,0.0748,0,101,101,23,1,fourthree,,,,,,,,,,,,,,,,,,,,,,,,,,,,,,,,,,,,,,,,,,,,,,,,,,,,,,,,,,,,,,,,,,,,,,,,,,,,,,,,,,,,,,,,,,,,,,,,,,,,,,,,,,,,,,,,,,,,,,,,,,,,,,,,,,,,,,,,,
,,616f798530ff27d100493ede,2026-03-17_16h08.03.122,kallum_motion_pilot_GIST_update_2,2026.1.1,Win32,59.52380952,616f798530ff27d100493ede,69b95efdef24cd8a694e89ee,69b9601795c307edc53c932c,0.0751,0.0751,0,102,102,122,1,sixfive,,,,,,,,,,,,,,,,,,,,,,,,,,,,,,,,,,,,,,,,,,,,,,,,,,,,,,,,,,,,,,,,,,,,,,,,,,,,,,,,,,,,,,,,,,,,,,,,,,,,,,,,,,,,,,,,,,,,,,,,,,,,,,,,,,,,,,,,,
,,616f798530ff27d100493ede,2026-03-17_16h08.03.122,kallum_motion_pilot_GIST_update_2,2026.1.1,Win32,59.52380952,616f798530ff27d100493ede,69b95efdef24cd8a694e89ee,69b9601795c307edc53c932c,0.0754,0.0754,0,103,103,2,1,twoone,,,,,,,,,,,,,,,,,,,,,,,,,,,,,,,,,,,,,,,,,,,,,,,,,,,,,,,,,,,,,,,,,,,,,,,,,,,,,,,,,,,,,,,,,,,,,,,,,,,,,,,,,,,,,,,,,,,,,,,,,,,,,,,,,,,,,,,,,
,,616f798530ff27d100493ede,2026-03-17_16h08.03.122,kallum_motion_pilot_GIST_update_2,2026.1.1,Win32,59.52380952,616f798530ff27d100493ede,69b95efdef24cd8a694e89ee,69b9601795c307edc53c932c,0.0757,0.0757,0,104,104,43,1,twofour,,,,,,,,,,,,,,,,,,,,,,,,,,,,,,,,,,,,,,,,,,,,,,,,,,,,,,,,,,,,,,,,,,,,,,,,,,,,,,,,,,,,,,,,,,,,,,,,,,,,,,,,,,,,,,,,,,,,,,,,,,,,,,,,,,,,,,,,,
,,616f798530ff27d100493ede,2026-03-17_16h08.03.122,kallum_motion_pilot_GIST_update_2,2026.1.1,Win32,59.52380952,616f798530ff27d100493ede,69b95efdef24cd8a694e89ee,69b9601795c307edc53c932c,0.076,0.076,0,105,105,25,1,onethree,,,,,,,,,,,,,,,,,,,,,,,,,,,,,,,,,,,,,,,,,,,,,,,,,,,,,,,,,,,,,,,,,,,,,,,,,,,,,,,,,,,,,,,,,,,,,,,,,,,,,,,,,,,,,,,,,,,,,,,,,,,,,,,,,,,,,,,,,
,,616f798530ff27d100493ede,2026-03-17_16h08.03.122,kallum_motion_pilot_GIST_update_2,2026.1.1,Win32,59.52380952,616f798530ff27d100493ede,69b95efdef24cd8a694e89ee,69b9601795c307edc53c932c,0.0763,0.0763,0,106,106,136,1,fivesix,,,,,,,,,,,,,,,,,,,,,,,,,,,,,,,,,,,,,,,,,,,,,,,,,,,,,,,,,,,,,,,,,,,,,,,,,,,,,,,,,,,,,,,,,,,,,,,,,,,,,,,,,,,,,,,,,,,,,,,,,,,,,,,,,,,,,,,,,
,,616f798530ff27d100493ede,2026-03-17_16h08.03.122,kallum_motion_pilot_GIST_update_2,2026.1.1,Win32,59.52380952,616f798530ff27d100493ede,69b95efdef24cd8a694e89ee,69b9601795c307edc53c932c,0.0765,0.0765,0,107,107,110,1,eightsix,,,,,,,,,,,,,,,,,,,,,,,,,,,,,,,,,,,,,,,,,,,,,,,,,,,,,,,,,,,,,,,,,,,,,,,,,,,,,,,,,,,,,,,,,,,,,,,,,,,,,,,,,,,,,,,,,,,,,,,,,,,,,,,,,,,,,,,,,
,,616f798530ff27d100493ede,2026-03-17_16h08.03.122,kallum_motion_pilot_GIST_update_2,2026.1.1,Win32,59.52380952,616f798530ff27d100493ede,69b95efdef24cd8a694e89ee,69b9601795c307edc53c932c,0.0767,0.0768,0,108,108,74,1,twoone,,,,,,,,,,,,,,,,,,,,,,,,,,,,,,,,,,,,,,,,,,,,,,,,,,,,,,,,,,,,,,,,,,,,,,,,,,,,,,,,,,,,,,,,,,,,,,,,,,,,,,,,,,,,,,,,,,,,,,,,,,,,,,,,,,,,,,,,,
,,616f798530ff27d100493ede,2026-03-17_16h08.03.122,kallum_motion_pilot_GIST_update_2,2026.1.1,Win32,59.52380952,616f798530ff27d100493ede,69b95efdef24cd8a694e89ee,69b9601795c307edc53c932c,0.0771,0.0771,0,109,109,62,1,fourtwo,,,,,,,,,,,,,,,,,,,,,,,,,,,,,,,,,,,,,,,,,,,,,,,,,,,,,,,,,,,,,,,,,,,,,,,,,,,,,,,,,,,,,,,,,,,,,,,,,,,,,,,,,,,,,,,,,,,,,,,,,,,,,,,,,,,,,,,,,
,,616f798530ff27d100493ede,2026-03-17_16h08.03.122,kallum_motion_pilot_GIST_update_2,2026.1.1,Win32,59.52380952,616f798530ff27d100493ede,69b95efdef24cd8a694e89ee,69b9601795c307edc53c932c,0.0773,0.0773,0,110,110,5,1,threefour,,,,,,,,,,,,,,,,,,,,,,,,,,,,,,,,,,,,,,,,,,,,,,,,,,,,,,,,,,,,,,,,,,,,,,,,,,,,,,,,,,,,,,,,,,,,,,,,,,,,,,,,,,,,,,,,,,,,,,,,,,,,,,,,,,,,,,,,,
,,616f798530ff27d100493ede,2026-03-17_16h08.03.122,kallum_motion_pilot_GIST_update_2,2026.1.1,Win32,59.52380952,616f798530ff27d100493ede,69b95efdef24cd8a694e89ee,69b9601795c307edc53c932c,0.0776,0.0776,0,111,111,91,1,sixeight,,,,,,,,,,,,,,,,,,,,,,,,,,,,,,,,,,,,,,,,,,,,,,,,,,,,,,,,,,,,,,,,,,,,,,,,,,,,,,,,,,,,,,,,,,,,,,,,,,,,,,,,,,,,,,,,,,,,,,,,,,,,,,,,,,,,,,,,,
,,616f798530ff27d100493ede,2026-03-17_16h08.03.122,kallum_motion_pilot_GIST_update_2,2026.1.1,Win32,59.52380952,616f798530ff27d100493ede,69b95efdef24cd8a694e89ee,69b9601795c307edc53c932c,0.0778,0.0779,0,112,112,73,1,onethree,,,,,,,,,,,,,,,,,,,,,,,,,,,,,,,,,,,,,,,,,,,,,,,,,,,,,,,,,,,,,,,,,,,,,,,,,,,,,,,,,,,,,,,,,,,,,,,,,,,,,,,,,,,,,,,,,,,,,,,,,,,,,,,,,,,,,,,,,
,,616f798530ff27d100493ede,2026-03-17_16h08.03.122,kallum_motion_pilot_GIST_update_2,2026.1.1,Win32,59.52380952,616f798530ff27d100493ede,69b95efdef24cd8a694e89ee,69b9601795c307edc53c932c,0.0781,0.0782,0,113,113,109,1,seveneight,,,,,,,,,,,,,,,,,,,,,,,,,,,,,,,,,,,,,,,,,,,,,,,,,,,,,,,,,,,,,,,,,,,,,,,,,,,,,,,,,,,,,,,,,,,,,,,,,,,,,,,,,,,,,,,,,,,,,,,,,,,,,,,,,,,,,,,,,
,,616f798530ff27d100493ede,2026-03-17_16h08.03.122,kallum_motion_pilot_GIST_update_2,2026.1.1,Win32,59.52380952,616f798530ff27d100493ede,69b95efdef24cd8a694e89ee,69b9601795c307edc53c932c,0.0784,0.0784,0,114,114,154,1,sixfive,,,,,,,,,,,,,,,,,,,,,,,,,,,,,,,,,,,,,,,,,,,,,,,,,,,,,,,,,,,,,,,,,,,,,,,,,,,,,,,,,,,,,,,,,,,,,,,,,,,,,,,,,,,,,,,,,,,,,,,,,,,,,,,,,,,,,,,,,
,,616f798530ff27d100493ede,2026-03-17_16h08.03.122,kallum_motion_pilot_GIST_update_2,2026.1.1,Win32,59.52380952,616f798530ff27d100493ede,69b95efdef24cd8a694e89ee,69b9601795c307edc53c932c,0.0787,0.0787,0,115,115,49,1,onethree,,,,,,,,,,,,,,,,,,,,,,,,,,,,,,,,,,,,,,,,,,,,,,,,,,,,,,,,,,,,,,,,,,,,,,,,,,,,,,,,,,,,,,,,,,,,,,,,,,,,,,,,,,,,,,,,,,,,,,,,,,,,,,,,,,,,,,,,,
,,616f798530ff27d100493ede,2026-03-17_16h08.03.122,kallum_motion_pilot_GIST_update_2,2026.1.1,Win32,59.52380952,616f798530ff27d100493ede,69b95efdef24cd8a694e89ee,69b9601795c307edc53c932c,0.0793,0.0793,0,116,116,82,1,sixfive,,,,,,,,,,,,,,,,,,,,,,,,,,,,,,,,,,,,,,,,,,,,,,,,,,,,,,,,,,,,,,,,,,,,,,,,,,,,,,,,,,,,,,,,,,,,,,,,,,,,,,,,,,,,,,,,,,,,,,,,,,,,,,,,,,,,,,,,,
,,616f798530ff27d100493ede,2026-03-17_16h08.03.122,kallum_motion_pilot_GIST_update_2,2026.1.1,Win32,59.52380952,616f798530ff27d100493ede,69b95efdef24cd8a694e89ee,69b9601795c307edc53c932c,0.0796,0.0797,0,117,117,59,1,twofour,,,,,,,,,,,,,,,,,,,,,,,,,,,,,,,,,,,,,,,,,,,,,,,,,,,,,,,,,,,,,,,,,,,,,,,,,,,,,,,,,,,,,,,,,,,,,,,,,,,,,,,,,,,,,,,,,,,,,,,,,,,,,,,,,,,,,,,,,
,,616f798530ff27d100493ede,2026-03-17_16h08.03.122,kallum_motion_pilot_GIST_update_2,2026.1.1,Win32,59.52380952,616f798530ff27d100493ede,69b95efdef24cd8a694e89ee,69b9601795c307edc53c932c,0.0799,0.0799,0,118,118,133,1,seveneight,,,,,,,,,,,,,,,,,,,,,,,,,,,,,,,,,,,,,,,,,,,,,,,,,,,,,,,,,,,,,,,,,,,,,,,,,,,,,,,,,,,,,,,,,,,,,,,,,,,,,,,,,,,,,,,,,,,,,,,,,,,,,,,,,,,,,,,,,
,,616f798530ff27d100493ede,2026-03-17_16h08.03.122,kallum_motion_pilot_GIST_update_2,2026.1.1,Win32,59.52380952,616f798530ff27d100493ede,69b95efdef24cd8a694e89ee,69b9601795c307edc53c932c,0.0802,0.0803,0,119,119,39,1,fourthree,,,,,,,,,,,,,,,,,,,,,,,,,,,,,,,,,,,,,,,,,,,,,,,,,,,,,,,,,,,,,,,,,,,,,,,,,,,,,,,,,,,,,,,,,,,,,,,,,,,,,,,,,,,,,,,,,,,,,,,,,,,,,,,,,,,,,,,,,
,,616f798530ff27d100493ede,2026-03-17_16h08.03.122,kallum_motion_pilot_GIST_update_2,2026.1.1,Win32,59.52380952,616f798530ff27d100493ede,69b95efdef24cd8a694e89ee,69b9601795c307edc53c932c,0.0807,0.0807,0,120,120,79,1,eightseven,,,,,,,,,,,,,,,,,,,,,,,,,,,,,,,,,,,,,,,,,,,,,,,,,,,,,,,,,,,,,,,,,,,,,,,,,,,,,,,,,,,,,,,,,,,,,,,,,,,,,,,,,,,,,,,,,,,,,,,,,,,,,,,,,,,,,,,,,
,,616f798530ff27d100493ede,2026-03-17_16h08.03.122,kallum_motion_pilot_GIST_update_2,2026.1.1,Win32,59.52380952,616f798530ff27d100493ede,69b95efdef24cd8a694e89ee,69b9601795c307edc53c932c,0.0812,0.0812,0,121,121,54,1,fourtwo,,,,,,,,,,,,,,,,,,,,,,,,,,,,,,,,,,,,,,,,,,,,,,,,,,,,,,,,,,,,,,,,,,,,,,,,,,,,,,,,,,,,,,,,,,,,,,,,,,,,,,,,,,,,,,,,,,,,,,,,,,,,,,,,,,,,,,,,,
,,616f798530ff27d100493ede,2026-03-17_16h08.03.122,kallum_motion_pilot_GIST_update_2,2026.1.1,Win32,59.52380952,616f798530ff27d100493ede,69b95efdef24cd8a694e89ee,69b9601795c307edc53c932c,0.0814,0.0814,0,122,122,161,1,fiveseven,,,,,,,,,,,,,,,,,,,,,,,,,,,,,,,,,,,,,,,,,,,,,,,,,,,,,,,,,,,,,,,,,,,,,,,,,,,,,,,,,,,,,,,,,,,,,,,,,,,,,,,,,,,,,,,,,,,,,,,,,,,,,,,,,,,,,,,,,
,,616f798530ff27d100493ede,2026-03-17_16h08.03.122,kallum_motion_pilot_GIST_update_2,2026.1.1,Win32,59.52380952,616f798530ff27d100493ede,69b95efdef24cd8a694e89ee,69b9601795c307edc53c932c,0.0816,0.0816,0,123,123,47,1,fourthree,,,,,,,,,,,,,,,,,,,,,,,,,,,,,,,,,,,,,,,,,,,,,,,,,,,,,,,,,,,,,,,,,,,,,,,,,,,,,,,,,,,,,,,,,,,,,,,,,,,,,,,,,,,,,,,,,,,,,,,,,,,,,,,,,,,,,,,,,
,,616f798530ff27d100493ede,2026-03-17_16h08.03.122,kallum_motion_pilot_GIST_update_2,2026.1.1,Win32,59.52380952,616f798530ff27d100493ede,69b95efdef24cd8a694e89ee,69b9601795c307edc53c932c,0.082,0.082,0,124,124,68,1,threeone,,,,,,,,,,,,,,,,,,,,,,,,,,,,,,,,,,,,,,,,,,,,,,,,,,,,,,,,,,,,,,,,,,,,,,,,,,,,,,,,,,,,,,,,,,,,,,,,,,,,,,,,,,,,,,,,,,,,,,,,,,,,,,,,,,,,,,,,,
,,616f798530ff27d100493ede,2026-03-17_16h08.03.122,kallum_motion_pilot_GIST_update_2,2026.1.1,Win32,59.52380952,616f798530ff27d100493ede,69b95efdef24cd8a694e89ee,69b9601795c307edc53c932c,0.0822,0.0823,0,125,125,118,1,eightsix,,,,,,,,,,,,,,,,,,,,,,,,,,,,,,,,,,,,,,,,,,,,,,,,,,,,,,,,,,,,,,,,,,,,,,,,,,,,,,,,,,,,,,,,,,,,,,,,,,,,,,,,,,,,,,,,,,,,,,,,,,,,,,,,,,,,,,,,,
,,616f798530ff27d100493ede,2026-03-17_16h08.03.122,kallum_motion_pilot_GIST_update_2,2026.1.1,Win32,59.52380952,616f798530ff27d100493ede,69b95efdef24cd8a694e89ee,69b9601795c307edc53c932c,0.0826,0.0826,0,126,126,11,1,twofour,,,,,,,,,,,,,,,,,,,,,,,,,,,,,,,,,,,,,,,,,,,,,,,,,,,,,,,,,,,,,,,,,,,,,,,,,,,,,,,,,,,,,,,,,,,,,,,,,,,,,,,,,,,,,,,,,,,,,,,,,,,,,,,,,,,,,,,,,
,,616f798530ff27d100493ede,2026-03-17_16h08.03.122,kallum_motion_pilot_GIST_update_2,2026.1.1,Win32,59.52380952,616f798530ff27d100493ede,69b95efdef24cd8a694e89ee,69b9601795c307edc53c932c,0.0832,0.0832,0,127,127,50,1,twoone,,,,,,,,,,,,,,,,,,,,,,,,,,,,,,,,,,,,,,,,,,,,,,,,,,,,,,,,,,,,,,,,,,,,,,,,,,,,,,,,,,,,,,,,,,,,,,,,,,,,,,,,,,,,,,,,,,,,,,,,,,,,,,,,,,,,,,,,,
,,616f798530ff27d100493ede,2026-03-17_16h08.03.122,kallum_motion_pilot_GIST_update_2,2026.1.1,Win32,59.52380952,616f798530ff27d100493ede,69b95efdef24cd8a694e89ee,69b9601795c307edc53c932c,0.0835,0.0835,0,128,128,159,1,eightseven,,,,,,,,,,,,,,,,,,,,,,,,,,,,,,,,,,,,,,,,,,,,,,,,,,,,,,,,,,,,,,,,,,,,,,,,,,,,,,,,,,,,,,,,,,,,,,,,,,,,,,,,,,,,,,,,,,,,,,,,,,,,,,,,,,,,,,,,,
,,616f798530ff27d100493ede,2026-03-17_16h08.03.122,kallum_motion_pilot_GIST_update_2,2026.1.1,Win32,59.52380952,616f798530ff27d100493ede,69b95efdef24cd8a694e89ee,69b9601795c307edc53c932c,0.0837,0.0837,0,129,129,52,1,threeone,,,,,,,,,,,,,,,,,,,,,,,,,,,,,,,,,,,,,,,,,,,,,,,,,,,,,,,,,,,,,,,,,,,,,,,,,,,,,,,,,,,,,,,,,,,,,,,,,,,,,,,,,,,,,,,,,,,,,,,,,,,,,,,,,,,,,,,,,
,,616f798530ff27d100493ede,2026-03-17_16h08.03.122,kallum_motion_pilot_GIST_update_2,2026.1.1,Win32,59.52380952,616f798530ff27d100493ede,69b95efdef24cd8a694e89ee,69b9601795c307edc53c932c,0.084,0.0841,0,130,130,129,1,fiveseven,,,,,,,,,,,,,,,,,,,,,,,,,,,,,,,,,,,,,,,,,,,,,,,,,,,,,,,,,,,,,,,,,,,,,,,,,,,,,,,,,,,,,,,,,,,,,,,,,,,,,,,,,,,,,,,,,,,,,,,,,,,,,,,,,,,,,,,,,
,,616f798530ff27d100493ede,2026-03-17_16h08.03.122,kallum_motion_pilot_GIST_update_2,2026.1.1,Win32,59.52380952,616f798530ff27d100493ede,69b95efdef24cd8a694e89ee,69b9601795c307edc53c932c,0.0843,0.0843,0,131,131,123,1,sixeight,,,,,,,,,,,,,,,,,,,,,,,,,,,,,,,,,,,,,,,,,,,,,,,,,,,,,,,,,,,,,,,,,,,,,,,,,,,,,,,,,,,,,,,,,,,,,,,,,,,,,,,,,,,,,,,,,,,,,,,,,,,,,,,,,,,,,,,,,
,,616f798530ff27d100493ede,2026-03-17_16h08.03.122,kallum_motion_pilot_GIST_update_2,2026.1.1,Win32,59.52380952,616f798530ff27d100493ede,69b95efdef24cd8a694e89ee,69b9601795c307edc53c932c,0.0846,0.0846,0,132,132,150,1,eightsix,,,,,,,,,,,,,,,,,,,,,,,,,,,,,,,,,,,,,,,,,,,,,,,,,,,,,,,,,,,,,,,,,,,,,,,,,,,,,,,,,,,,,,,,,,,,,,,,,,,,,,,,,,,,,,,,,,,,,,,,,,,,,,,,,,,,,,,,,
,,616f798530ff27d100493ede,2026-03-17_16h08.03.122,kallum_motion_pilot_GIST_update_2,2026.1.1,Win32,59.52380952,616f798530ff27d100493ede,69b95efdef24cd8a694e89ee,69b9601795c307edc53c932c,0.0848,0.0848,0,133,133,29,1,threefour,,,,,,,,,,,,,,,,,,,,,,,,,,,,,,,,,,,,,,,,,,,,,,,,,,,,,,,,,,,,,,,,,,,,,,,,,,,,,,,,,,,,,,,,,,,,,,,,,,,,,,,,,,,,,,,,,,,,,,,,,,,,,,,,,,,,,,,,,
,,616f798530ff27d100493ede,2026-03-17_16h08.03.122,kallum_motion_pilot_GIST_update_2,2026.1.1,Win32,59.52380952,616f798530ff27d100493ede,69b95efdef24cd8a694e89ee,69b9601795c307edc53c932c,0.0852,0.0852,0,134,134,94,1,eightsix,,,,,,,,,,,,,,,,,,,,,,,,,,,,,,,,,,,,,,,,,,,,,,,,,,,,,,,,,,,,,,,,,,,,,,,,,,,,,,,,,,,,,,,,,,,,,,,,,,,,,,,,,,,,,,,,,,,,,,,,,,,,,,,,,,,,,,,,,
,,616f798530ff27d100493ede,2026-03-17_16h08.03.122,kallum_motion_pilot_GIST_update_2,2026.1.1,Win32,59.52380952,616f798530ff27d100493ede,69b95efdef24cd8a694e89ee,69b9601795c307edc53c932c,0.0855,0.0855,0,135,135,60,1,threeone,,,,,,,,,,,,,,,,,,,,,,,,,,,,,,,,,,,,,,,,,,,,,,,,,,,,,,,,,,,,,,,,,,,,,,,,,,,,,,,,,,,,,,,,,,,,,,,,,,,,,,,,,,,,,,,,,,,,,,,,,,,,,,,,,,,,,,,,,
,,616f798530ff27d100493ede,2026-03-17_16h08.03.122,kallum_motion_pilot_GIST_update_2,2026.1.1,Win32,59.52380952,616f798530ff27d100493ede,69b95efdef24cd8a694e89ee,69b9601795c307edc53c932c,0.0858,0.0858,0,136,136,96,1,fivesix,,,,,,,,,,,,,,,,,,,,,,,,,,,,,,,,,,,,,,,,,,,,,,,,,,,,,,,,,,,,,,,,,,,,,,,,,,,,,,,,,,,,,,,,,,,,,,,,,,,,,,,,,,,,,,,,,,,,,,,,,,,,,,,,,,,,,,,,,
,,616f798530ff27d100493ede,2026-03-17_16h08.03.122,kallum_motion_pilot_GIST_update_2,2026.1.1,Win32,59.52380952,616f798530ff27d100493ede,69b95efdef24cd8a694e89ee,69b9601795c307edc53c932c,0.0861,0.0861,0,137,137,134,1,eightsix,,,,,,,,,,,,,,,,,,,,,,,,,,,,,,,,,,,,,,,,,,,,,,,,,,,,,,,,,,,,,,,,,,,,,,,,,,,,,,,,,,,,,,,,,,,,,,,,,,,,,,,,,,,,,,,,,,,,,,,,,,,,,,,,,,,,,,,,,
,,616f798530ff27d100493ede,2026-03-17_16h08.03.122,kallum_motion_pilot_GIST_update_2,2026.1.1,Win32,59.52380952,616f798530ff27d100493ede,69b95efdef24cd8a694e89ee,69b9601795c307edc53c932c,0.0863,0.0863,0,138,138,37,1,threefour,,,,,,,,,,,,,,,,,,,,,,,,,,,,,,,,,,,,,,,,,,,,,,,,,,,,,,,,,,,,,,,,,,,,,,,,,,,,,,,,,,,,,,,,,,,,,,,,,,,,,,,,,,,,,,,,,,,,,,,,,,,,,,,,,,,,,,,,,
,,616f798530ff27d100493ede,2026-03-17_16h08.03.122,kallum_motion_pilot_GIST_update_2,2026.1.1,Win32,59.52380952,616f798530ff27d100493ede,69b95efdef24cd8a694e89ee,69b9601795c307edc53c932c,0.0866,0.0866,0,139,139,85,1,seveneight,,,,,,,,,,,,,,,,,,,,,,,,,,,,,,,,,,,,,,,,,,,,,,,,,,,,,,,,,,,,,,,,,,,,,,,,,,,,,,,,,,,,,,,,,,,,,,,,,,,,,,,,,,,,,,,,,,,,,,,,,,,,,,,,,,,,,,,,,
,,616f798530ff27d100493ede,2026-03-17_16h08.03.122,kallum_motion_pilot_GIST_update_2,2026.1.1,Win32,59.52380952,616f798530ff27d100493ede,69b95efdef24cd8a694e89ee,69b9601795c307edc53c932c,0.0868,0.0869,0,140,140,66,1,twoone,,,,,,,,,,,,,,,,,,,,,,,,,,,,,,,,,,,,,,,,,,,,,,,,,,,,,,,,,,,,,,,,,,,,,,,,,,,,,,,,,,,,,,,,,,,,,,,,,,,,,,,,,,,,,,,,,,,,,,,,,,,,,,,,,,,,,,,,,
,,616f798530ff27d100493ede,2026-03-17_16h08.03.122,kallum_motion_pilot_GIST_update_2,2026.1.1,Win32,59.52380952,616f798530ff27d100493ede,69b95efdef24cd8a694e89ee,69b9601795c307edc53c932c,0.0872,0.0873,0,141,141,72,1,onetwo,,,,,,,,,,,,,,,,,,,,,,,,,,,,,,,,,,,,,,,,,,,,,,,,,,,,,,,,,,,,,,,,,,,,,,,,,,,,,,,,,,,,,,,,,,,,,,,,,,,,,,,,,,,,,,,,,,,,,,,,,,,,,,,,,,,,,,,,,
,,616f798530ff27d100493ede,2026-03-17_16h08.03.122,kallum_motion_pilot_GIST_update_2,2026.1.1,Win32,59.52380952,616f798530ff27d100493ede,69b95efdef24cd8a694e89ee,69b9601795c307edc53c932c,0.0876,0.0876,0,142,142,101,1,seveneight,,,,,,,,,,,,,,,,,,,,,,,,,,,,,,,,,,,,,,,,,,,,,,,,,,,,,,,,,,,,,,,,,,,,,,,,,,,,,,,,,,,,,,,,,,,,,,,,,,,,,,,,,,,,,,,,,,,,,,,,,,,,,,,,,,,,,,,,,
,,616f798530ff27d100493ede,2026-03-17_16h08.03.122,kallum_motion_pilot_GIST_update_2,2026.1.1,Win32,59.52380952,616f798530ff27d100493ede,69b95efdef24cd8a694e89ee,69b9601795c307edc53c932c,0.0879,0.0879,0,143,143,61,1,threefour,,,,,,,,,,,,,,,,,,,,,,,,,,,,,,,,,,,,,,,,,,,,,,,,,,,,,,,,,,,,,,,,,,,,,,,,,,,,,,,,,,,,,,,,,,,,,,,,,,,,,,,,,,,,,,,,,,,,,,,,,,,,,,,,,,,,,,,,,
,,616f798530ff27d100493ede,2026-03-17_16h08.03.122,kallum_motion_pilot_GIST_update_2,2026.1.1,Win32,59.52380952,616f798530ff27d100493ede,69b95efdef24cd8a694e89ee,69b9601795c307edc53c932c,0.0882,0.0882,0,144,144,125,1,seveneight,,,,,,,,,,,,,,,,,,,,,,,,,,,,,,,,,,,,,,,,,,,,,,,,,,,,,,,,,,,,,,,,,,,,,,,,,,,,,,,,,,,,,,,,,,,,,,,,,,,,,,,,,,,,,,,,,,,,,,,,,,,,,,,,,,,,,,,,,
,,616f798530ff27d100493ede,2026-03-17_16h08.03.122,kallum_motion_pilot_GIST_update_2,2026.1.1,Win32,59.52380952,616f798530ff27d100493ede,69b95efdef24cd8a694e89ee,69b9601795c307edc53c932c,0.0885,0.0885,0,145,145,81,1,fiveseven,,,,,,,,,,,,,,,,,,,,,,,,,,,,,,,,,,,,,,,,,,,,,,,,,,,,,,,,,,,,,,,,,,,,,,,,,,,,,,,,,,,,,,,,,,,,,,,,,,,,,,,,,,,,,,,,,,,,,,,,,,,,,,,,,,,,,,,,,
,,616f798530ff27d100493ede,2026-03-17_16h08.03.122,kallum_motion_pilot_GIST_update_2,2026.1.1,Win32,59.52380952,616f798530ff27d100493ede,69b95efdef24cd8a694e89ee,69b9601795c307edc53c932c,0.0888,0.0888,0,146,146,93,1,seveneight,,,,,,,,,,,,,,,,,,,,,,,,,,,,,,,,,,,,,,,,,,,,,,,,,,,,,,,,,,,,,,,,,,,,,,,,,,,,,,,,,,,,,,,,,,,,,,,,,,,,,,,,,,,,,,,,,,,,,,,,,,,,,,,,,,,,,,,,,
,,616f798530ff27d100493ede,2026-03-17_16h08.03.122,kallum_motion_pilot_GIST_update_2,2026.1.1,Win32,59.52380952,616f798530ff27d100493ede,69b95efdef24cd8a694e89ee,69b9601795c307edc53c932c,0.0891,0.0891,0,147,147,152,1,fivesix,,,,,,,,,,,,,,,,,,,,,,,,,,,,,,,,,,,,,,,,,,,,,,,,,,,,,,,,,,,,,,,,,,,,,,,,,,,,,,,,,,,,,,,,,,,,,,,,,,,,,,,,,,,,,,,,,,,,,,,,,,,,,,,,,,,,,,,,,
,,616f798530ff27d100493ede,2026-03-17_16h08.03.122,kallum_motion_pilot_GIST_update_2,2026.1.1,Win32,59.52380952,616f798530ff27d100493ede,69b95efdef24cd8a694e89ee,69b9601795c307edc53c932c,0.0894,0.0894,0,148,148,8,1,onetwo,,,,,,,,,,,,,,,,,,,,,,,,,,,,,,,,,,,,,,,,,,,,,,,,,,,,,,,,,,,,,,,,,,,,,,,,,,,,,,,,,,,,,,,,,,,,,,,,,,,,,,,,,,,,,,,,,,,,,,,,,,,,,,,,,,,,,,,,,
,,616f798530ff27d100493ede,2026-03-17_16h08.03.122,kallum_motion_pilot_GIST_update_2,2026.1.1,Win32,59.52380952,616f798530ff27d100493ede,69b95efdef24cd8a694e89ee,69b9601795c307edc53c932c,0.0897,0.0897,0,149,149,35,1,twofour,,,,,,,,,,,,,,,,,,,,,,,,,,,,,,,,,,,,,,,,,,,,,,,,,,,,,,,,,,,,,,,,,,,,,,,,,,,,,,,,,,,,,,,,,,,,,,,,,,,,,,,,,,,,,,,,,,,,,,,,,,,,,,,,,,,,,,,,,
,,616f798530ff27d100493ede,2026-03-17_16h08.03.122,kallum_motion_pilot_GIST_update_2,2026.1.1,Win32,59.52380952,616f798530ff27d100493ede,69b95efdef24cd8a694e89ee,69b9601795c307edc53c932c,0.09,0.09,0,150,150,103,1,eightseven,,,,,,,,,,,,,,,,,,,,,,,,,,,,,,,,,,,,,,,,,,,,,,,,,,,,,,,,,,,,,,,,,,,,,,,,,,,,,,,,,,,,,,,,,,,,,,,,,,,,,,,,,,,,,,,,,,,,,,,,,,,,,,,,,,,,,,,,,
,,616f798530ff27d100493ede,2026-03-17_16h08.03.122,kallum_motion_pilot_GIST_update_2,2026.1.1,Win32,59.52380952,616f798530ff27d100493ede,69b95efdef24cd8a694e89ee,69b9601795c307edc53c932c,0.0903,0.0903,0,151,151,56,1,onetwo,,,,,,,,,,,,,,,,,,,,,,,,,,,,,,,,,,,,,,,,,,,,,,,,,,,,,,,,,,,,,,,,,,,,,,,,,,,,,,,,,,,,,,,,,,,,,,,,,,,,,,,,,,,,,,,,,,,,,,,,,,,,,,,,,,,,,,,,,
,,616f798530ff27d100493ede,2026-03-17_16h08.03.122,kallum_motion_pilot_GIST_update_2,2026.1.1,Win32,59.52380952,616f798530ff27d100493ede,69b95efdef24cd8a694e89ee,69b9601795c307edc53c932c,0.0906,0.0907,0,152,152,0,1,onetwo,,,,,,,,,,,,,,,,,,,,,,,,,,,,,,,,,,,,,,,,,,,,,,,,,,,,,,,,,,,,,,,,,,,,,,,,,,,,,,,,,,,,,,,,,,,,,,,,,,,,,,,,,,,,,,,,,,,,,,,,,,,,,,,,,,,,,,,,,
,,616f798530ff27d100493ede,2026-03-17_16h08.03.122,kallum_motion_pilot_GIST_update_2,2026.1.1,Win32,59.52380952,616f798530ff27d100493ede,69b95efdef24cd8a694e89ee,69b9601795c307edc53c932c,0.0909,0.0909,0,153,153,128,1,fivesix,,,,,,,,,,,,,,,,,,,,,,,,,,,,,,,,,,,,,,,,,,,,,,,,,,,,,,,,,,,,,,,,,,,,,,,,,,,,,,,,,,,,,,,,,,,,,,,,,,,,,,,,,,,,,,,,,,,,,,,,,,,,,,,,,,,,,,,,,
,,616f798530ff27d100493ede,2026-03-17_16h08.03.122,kallum_motion_pilot_GIST_update_2,2026.1.1,Win32,59.52380952,616f798530ff27d100493ede,69b95efdef24cd8a694e89ee,69b9601795c307edc53c932c,0.0911,0.0912,0,154,154,119,1,eightseven,,,,,,,,,,,,,,,,,,,,,,,,,,,,,,,,,,,,,,,,,,,,,,,,,,,,,,,,,,,,,,,,,,,,,,,,,,,,,,,,,,,,,,,,,,,,,,,,,,,,,,,,,,,,,,,,,,,,,,,,,,,,,,,,,,,,,,,,,
,,616f798530ff27d100493ede,2026-03-17_16h08.03.122,kallum_motion_pilot_GIST_update_2,2026.1.1,Win32,59.52380952,616f798530ff27d100493ede,69b95efdef24cd8a694e89ee,69b9601795c307edc53c932c,0.0914,0.0914,0,155,155,75,1,twofour,,,,,,,,,,,,,,,,,,,,,,,,,,,,,,,,,,,,,,,,,,,,,,,,,,,,,,,,,,,,,,,,,,,,,,,,,,,,,,,,,,,,,,,,,,,,,,,,,,,,,,,,,,,,,,,,,,,,,,,,,,,,,,,,,,,,,,,,,
,,616f798530ff27d100493ede,2026-03-17_16h08.03.122,kallum_motion_pilot_GIST_update_2,2026.1.1,Win32,59.52380952,616f798530ff27d100493ede,69b95efdef24cd8a694e89ee,69b9601795c307edc53c932c,0.0918,0.0918,0,156,156,95,1,eightseven,,,,,,,,,,,,,,,,,,,,,,,,,,,,,,,,,,,,,,,,,,,,,,,,,,,,,,,,,,,,,,,,,,,,,,,,,,,,,,,,,,,,,,,,,,,,,,,,,,,,,,,,,,,,,,,,,,,,,,,,,,,,,,,,,,,,,,,,,
,,616f798530ff27d100493ede,2026-03-17_16h08.03.122,kallum_motion_pilot_GIST_update_2,2026.1.1,Win32,59.52380952,616f798530ff27d100493ede,69b95efdef24cd8a694e89ee,69b9601795c307edc53c932c,0.0921,0.0921,0,157,157,151,1,eightseven,,,,,,,,,,,,,,,,,,,,,,,,,,,,,,,,,,,,,,,,,,,,,,,,,,,,,,,,,,,,,,,,,,,,,,,,,,,,,,,,,,,,,,,,,,,,,,,,,,,,,,,,,,,,,,,,,,,,,,,,,,,,,,,,,,,,,,,,,
,,616f798530ff27d100493ede,2026-03-17_16h08.03.122,kallum_motion_pilot_GIST_update_2,2026.1.1,Win32,59.52380952,616f798530ff27d100493ede,69b95efdef24cd8a694e89ee,69b9601795c307edc53c932c,0.0923,0.0923,0,158,158,38,1,fourtwo,,,,,,,,,,,,,,,,,,,,,,,,,,,,,,,,,,,,,,,,,,,,,,,,,,,,,,,,,,,,,,,,,,,,,,,,,,,,,,,,,,,,,,,,,,,,,,,,,,,,,,,,,,,,,,,,,,,,,,,,,,,,,,,,,,,,,,,,,
,,616f798530ff27d100493ede,2026-03-17_16h08.03.122,kallum_motion_pilot_GIST_update_2,2026.1.1,Win32,59.52380952,616f798530ff27d100493ede,69b95efdef24cd8a694e89ee,69b9601795c307edc53c932c,0.0926,0.0926,0,159,159,144,1,fivesix,,,,,,,,,,,,,,,,,,,,,,,,,,,,,,,,,,,,,,,,,,,,,,,,,,,,,,,,,,,,,,,,,,,,,,,,,,,,,,,,,,,,,,,,,,,,,,,,,,,,,,,,,,,,,,,,,,,,,,,,,,,,,,,,,,,,,,,,,
,,616f798530ff27d100493ede,2026-03-17_16h08.03.122,kallum_motion_pilot_GIST_update_2,2026.1.1,Win32,59.52380952,616f798530ff27d100493ede,69b95efdef24cd8a694e89ee,69b9601795c307edc53c932c,0.0928,0.0929,0,160,160,55,1,fourthree,,,,,,,,,,,,,,,,,,,,,,,,,,,,,,,,,,,,,,,,,,,,,,,,,,,,,,,,,,,,,,,,,,,,,,,,,,,,,,,,,,,,,,,,,,,,,,,,,,,,,,,,,,,,,,,,,,,,,,,,,,,,,,,,,,,,,,,,,
,,616f798530ff27d100493ede,2026-03-17_16h08.03.122,kallum_motion_pilot_GIST_update_2,2026.1.1,Win32,59.52380952,616f798530ff27d100493ede,69b95efdef24cd8a694e89ee,69b9601795c307edc53c932c,0.0932,0.0932,0,161,161,97,1,fiveseven,,,,,,,,,,,,,,,,,,,,,,,,,,,,,,,,,,,,,,,,,,,,,,,,,,,,,,,,,,,,,,,,,,,,,,,,,,,,,,,,,,,,,,,,,,,,,,,,,,,,,,,,,,,,,,,,,,,,,,,,,,,,,,,,,,,,,,,,,
,,616f798530ff27d100493ede,2026-03-17_16h08.03.122,kallum_motion_pilot_GIST_update_2,2026.1.1,Win32,59.52380952,616f798530ff27d100493ede,69b95efdef24cd8a694e89ee,69b9601795c307edc53c932c,0.0936,0.0936,1,0,162,47,1,fourthree,,,,,,,,,,,,,,,,,,,,,,,,,,,,,,,,,,,,,,,,,,,,,,,,,,,,,,,,,,,,,,,,,,,,,,,,,,,,,,,,,,,,,,,,,,,,,,,,,,,,,,,,,,,,,,,,,,,,,,,,,,,,,,,,,,,,,,,,,
,,616f798530ff27d100493ede,2026-03-17_16h08.03.122,kallum_motion_pilot_GIST_update_2,2026.1.1,Win32,59.52380952,616f798530ff27d100493ede,69b95efdef24cd8a694e89ee,69b9601795c307edc53c932c,0.0939,0.0939,1,1,163,34,1,twoone,,,,,,,,,,,,,,,,,,,,,,,,,,,,,,,,,,,,,,,,,,,,,,,,,,,,,,,,,,,,,,,,,,,,,,,,,,,,,,,,,,,,,,,,,,,,,,,,,,,,,,,,,,,,,,,,,,,,,,,,,,,,,,,,,,,,,,,,,
,,616f798530ff27d100493ede,2026-03-17_16h08.03.122,kallum_motion_pilot_GIST_update_2,2026.1.1,Win32,59.52380952,616f798530ff27d100493ede,69b95efdef24cd8a694e89ee,69b9601795c307edc53c932c,0.0942,0.0942,1,2,164,69,1,threefour,,,,,,,,,,,,,,,,,,,,,,,,,,,,,,,,,,,,,,,,,,,,,,,,,,,,,,,,,,,,,,,,,,,,,,,,,,,,,,,,,,,,,,,,,,,,,,,,,,,,,,,,,,,,,,,,,,,,,,,,,,,,,,,,,,,,,,,,,
,,616f798530ff27d100493ede,2026-03-17_16h08.03.122,kallum_motion_pilot_GIST_update_2,2026.1.1,Win32,59.52380952,616f798530ff27d100493ede,69b95efdef24cd8a694e89ee,69b9601795c307edc53c932c,0.0945,0.0945,1,3,165,90,1,sixfive,,,,,,,,,,,,,,,,,,,,,,,,,,,,,,,,,,,,,,,,,,,,,,,,,,,,,,,,,,,,,,,,,,,,,,,,,,,,,,,,,,,,,,,,,,,,,,,,,,,,,,,,,,,,,,,,,,,,,,,,,,,,,,,,,,,,,,,,,
,,616f798530ff27d100493ede,2026-03-17_16h08.03.122,kallum_motion_pilot_GIST_update_2,2026.1.1,Win32,59.52380952,616f798530ff27d100493ede,69b95efdef24cd8a694e89ee,69b9601795c307edc53c932c,0.0948,0.0948,1,4,166,111,1,eightseven,,,,,,,,,,,,,,,,,,,,,,,,,,,,,,,,,,,,,,,,,,,,,,,,,,,,,,,,,,,,,,,,,,,,,,,,,,,,,,,,,,,,,,,,,,,,,,,,,,,,,,,,,,,,,,,,,,,,,,,,,,,,,,,,,,,,,,,,,
,,616f798530ff27d100493ede,2026-03-17_16h08.03.122,kallum_motion_pilot_GIST_update_2,2026.1.1,Win32,59.52380952,616f798530ff27d100493ede,69b95efdef24cd8a694e89ee,69b9601795c307edc53c932c,0.095,0.0951,1,5,167,148,1,sevenfive,,,,,,,,,,,,,,,,,,,,,,,,,,,,,,,,,,,,,,,,,,,,,,,,,,,,,,,,,,,,,,,,,,,,,,,,,,,,,,,,,,,,,,,,,,,,,,,,,,,,,,,,,,,,,,,,,,,,,,,,,,,,,,,,,,,,,,,,,
,,616f798530ff27d100493ede,2026-03-17_16h08.03.122,kallum_motion_pilot_GIST_update_2,2026.1.1,Win32,59.52380952,616f798530ff27d100493ede,69b95efdef24cd8a694e89ee,69b9601795c307edc53c932c,0.0953,0.0953,1,6,168,59,1,twofour,,,,,,,,,,,,,,,,,,,,,,,,,,,,,,,,,,,,,,,,,,,,,,,,,,,,,,,,,,,,,,,,,,,,,,,,,,,,,,,,,,,,,,,,,,,,,,,,,,,,,,,,,,,,,,,,,,,,,,,,,,,,,,,,,,,,,,,,,
,,616f798530ff27d100493ede,2026-03-17_16h08.03.122,kallum_motion_pilot_GIST_update_2,2026.1.1,Win32,59.52380952,616f798530ff27d100493ede,69b95efdef24cd8a694e89ee,69b9601795c307edc53c932c,0.0956,0.0956,1,7,169,95,1,eightseven,,,,,,,,,,,,,,,,,,,,,,,,,,,,,,,,,,,,,,,,,,,,,,,,,,,,,,,,,,,,,,,,,,,,,,,,,,,,,,,,,,,,,,,,,,,,,,,,,,,,,,,,,,,,,,,,,,,,,,,,,,,,,,,,,,,,,,,,,
,,616f798530ff27d100493ede,2026-03-17_16h08.03.122,kallum_motion_pilot_GIST_update_2,2026.1.1,Win32,59.52380952,616f798530ff27d100493ede,69b95efdef24cd8a694e89ee,69b9601795c307edc53c932c,0.0959,0.0959,1,8,170,64,1,onetwo,,,,,,,,,,,,,,,,,,,,,,,,,,,,,,,,,,,,,,,,,,,,,,,,,,,,,,,,,,,,,,,,,,,,,,,,,,,,,,,,,,,,,,,,,,,,,,,,,,,,,,,,,,,,,,,,,,,,,,,,,,,,,,,,,,,,,,,,,
,,616f798530ff27d100493ede,2026-03-17_16h08.03.122,kallum_motion_pilot_GIST_update_2,2026.1.1,Win32,59.52380952,616f798530ff27d100493ede,69b95efdef24cd8a694e89ee,69b9601795c307edc53c932c,0.0961,0.0962,1,9,171,88,1,fivesix,,,,,,,,,,,,,,,,,,,,,,,,,,,,,,,,,,,,,,,,,,,,,,,,,,,,,,,,,,,,,,,,,,,,,,,,,,,,,,,,,,,,,,,,,,,,,,,,,,,,,,,,,,,,,,,,,,,,,,,,,,,,,,,,,,,,,,,,,
,,616f798530ff27d100493ede,2026-03-17_16h08.03.122,kallum_motion_pilot_GIST_update_2,2026.1.1,Win32,59.52380952,616f798530ff27d100493ede,69b95efdef24cd8a694e89ee,69b9601795c307edc53c932c,0.0964,0.0964,1,10,172,135,1,eightseven,,,,,,,,,,,,,,,,,,,,,,,,,,,,,,,,,,,,,,,,,,,,,,,,,,,,,,,,,,,,,,,,,,,,,,,,,,,,,,,,,,,,,,,,,,,,,,,,,,,,,,,,,,,,,,,,,,,,,,,,,,,,,,,,,,,,,,,,,
,,616f798530ff27d100493ede,2026-03-17_16h08.03.122,kallum_motion_pilot_GIST_update_2,2026.1.1,Win32,59.52380952,616f798530ff27d100493ede,69b95efdef24cd8a694e89ee,69b9601795c307edc53c932c,0.0968,0.0968,1,11,173,70,1,fourtwo,,,,,,,,,,,,,,,,,,,,,,,,,,,,,,,,,,,,,,,,,,,,,,,,,,,,,,,,,,,,,,,,,,,,,,,,,,,,,,,,,,,,,,,,,,,,,,,,,,,,,,,,,,,,,,,,,,,,,,,,,,,,,,,,,,,,,,,,,
,,616f798530ff27d100493ede,2026-03-17_16h08.03.122,kallum_motion_pilot_GIST_update_2,2026.1.1,Win32,59.52380952,616f798530ff27d100493ede,69b95efdef24cd8a694e89ee,69b9601795c307edc53c932c,0.097,0.097,1,12,174,53,1,threefour,,,,,,,,,,,,,,,,,,,,,,,,,,,,,,,,,,,,,,,,,,,,,,,,,,,,,,,,,,,,,,,,,,,,,,,,,,,,,,,,,,,,,,,,,,,,,,,,,,,,,,,,,,,,,,,,,,,,,,,,,,,,,,,,,,,,,,,,,
,,616f798530ff27d100493ede,2026-03-17_16h08.03.122,kallum_motion_pilot_GIST_update_2,2026.1.1,Win32,59.52380952,616f798530ff27d100493ede,69b95efdef24cd8a694e89ee,69b9601795c307edc53c932c,0.0973,0.0973,1,13,175,77,1,threefour,,,,,,,,,,,,,,,,,,,,,,,,,,,,,,,,,,,,,,,,,,,,,,,,,,,,,,,,,,,,,,,,,,,,,,,,,,,,,,,,,,,,,,,,,,,,,,,,,,,,,,,,,,,,,,,,,,,,,,,,,,,,,,,,,,,,,,,,,
,,616f798530ff27d100493ede,2026-03-17_16h08.03.122,kallum_motion_pilot_GIST_update_2,2026.1.1,Win32,59.52380952,616f798530ff27d100493ede,69b95efdef24cd8a694e89ee,69b9601795c307edc53c932c,0.0977,0.0977,1,14,176,48,1,onetwo,,,,,,,,,,,,,,,,,,,,,,,,,,,,,,,,,,,,,,,,,,,,,,,,,,,,,,,,,,,,,,,,,,,,,,,,,,,,,,,,,,,,,,,,,,,,,,,,,,,,,,,,,,,,,,,,,,,,,,,,,,,,,,,,,,,,,,,,,
,,616f798530ff27d100493ede,2026-03-17_16h08.03.122,kallum_motion_pilot_GIST_update_2,2026.1.1,Win32,59.52380952,616f798530ff27d100493ede,69b95efdef24cd8a694e89ee,69b9601795c307edc53c932c,0.0981,0.0981,1,15,177,5,1,threefour,,,,,,,,,,,,,,,,,,,,,,,,,,,,,,,,,,,,,,,,,,,,,,,,,,,,,,,,,,,,,,,,,,,,,,,,,,,,,,,,,,,,,,,,,,,,,,,,,,,,,,,,,,,,,,,,,,,,,,,,,,,,,,,,,,,,,,,,,
,,616f798530ff27d100493ede,2026-03-17_16h08.03.122,kallum_motion_pilot_GIST_update_2,2026.1.1,Win32,59.52380952,616f798530ff27d100493ede,69b95efdef24cd8a694e89ee,69b9601795c307edc53c932c,0.0984,0.0984,1,16,178,156,1,sevenfive,,,,,,,,,,,,,,,,,,,,,,,,,,,,,,,,,,,,,,,,,,,,,,,,,,,,,,,,,,,,,,,,,,,,,,,,,,,,,,,,,,,,,,,,,,,,,,,,,,,,,,,,,,,,,,,,,,,,,,,,,,,,,,,,,,,,,,,,,
,,616f798530ff27d100493ede,2026-03-17_16h08.03.122,kallum_motion_pilot_GIST_update_2,2026.1.1,Win32,59.52380952,616f798530ff27d100493ede,69b95efdef24cd8a694e89ee,69b9601795c307edc53c932c,0.0987,0.0987,1,17,179,44,1,threeone,,,,,,,,,,,,,,,,,,,,,,,,,,,,,,,,,,,,,,,,,,,,,,,,,,,,,,,,,,,,,,,,,,,,,,,,,,,,,,,,,,,,,,,,,,,,,,,,,,,,,,,,,,,,,,,,,,,,,,,,,,,,,,,,,,,,,,,,,
,,616f798530ff27d100493ede,2026-03-17_16h08.03.122,kallum_motion_pilot_GIST_update_2,2026.1.1,Win32,59.52380952,616f798530ff27d100493ede,69b95efdef24cd8a694e89ee,69b9601795c307edc53c932c,0.099,0.0991,1,18,180,103,1,eightseven,,,,,,,,,,,,,,,,,,,,,,,,,,,,,,,,,,,,,,,,,,,,,,,,,,,,,,,,,,,,,,,,,,,,,,,,,,,,,,,,,,,,,,,,,,,,,,,,,,,,,,,,,,,,,,,,,,,,,,,,,,,,,,,,,,,,,,,,,
,,616f798530ff27d100493ede,2026-03-17_16h08.03.122,kallum_motion_pilot_GIST_update_2,2026.1.1,Win32,59.52380952,616f798530ff27d100493ede,69b95efdef24cd8a694e89ee,69b9601795c307edc53c932c,0.0994,0.0994,1,19,181,26,1,twoone,,,,,,,,,,,,,,,,,,,,,,,,,,,,,,,,,,,,,,,,,,,,,,,,,,,,,,,,,,,,,,,,,,,,,,,,,,,,,,,,,,,,,,,,,,,,,,,,,,,,,,,,,,,,,,,,,,,,,,,,,,,,,,,,,,,,,,,,,
,,616f798530ff27d100493ede,2026-03-17_16h08.03.122,kallum_motion_pilot_GIST_update_2,2026.1.1,Win32,59.52380952,616f798530ff27d100493ede,69b95efdef24cd8a694e89ee,69b9601795c307edc53c932c,0.0998,0.0998,1,20,182,145,1,fiveseven,,,,,,,,,,,,,,,,,,,,,,,,,,,,,,,,,,,,,,,,,,,,,,,,,,,,,,,,,,,,,,,,,,,,,,,,,,,,,,,,,,,,,,,,,,,,,,,,,,,,,,,,,,,,,,,,,,,,,,,,,,,,,,,,,,,,,,,,,
,,616f798530ff27d100493ede,2026-03-17_16h08.03.122,kallum_motion_pilot_GIST_update_2,2026.1.1,Win32,59.52380952,616f798530ff27d100493ede,69b95efdef24cd8a694e89ee,69b9601795c307edc53c932c,0.1,0.1001,1,21,183,113,1,fiveseven,,,,,,,,,,,,,,,,,,,,,,,,,,,,,,,,,,,,,,,,,,,,,,,,,,,,,,,,,,,,,,,,,,,,,,,,,,,,,,,,,,,,,,,,,,,,,,,,,,,,,,,,,,,,,,,,,,,,,,,,,,,,,,,,,,,,,,,,,
,,616f798530ff27d100493ede,2026-03-17_16h08.03.122,kallum_motion_pilot_GIST_update_2,2026.1.1,Win32,59.52380952,616f798530ff27d100493ede,69b95efdef24cd8a694e89ee,69b9601795c307edc53c932c,0.1004,0.1004,1,22,184,96,1,fivesix,,,,,,,,,,,,,,,,,,,,,,,,,,,,,,,,,,,,,,,,,,,,,,,,,,,,,,,,,,,,,,,,,,,,,,,,,,,,,,,,,,,,,,,,,,,,,,,,,,,,,,,,,,,,,,,,,,,,,,,,,,,,,,,,,,,,,,,,,
,,616f798530ff27d100493ede,2026-03-17_16h08.03.122,kallum_motion_pilot_GIST_update_2,2026.1.1,Win32,59.52380952,616f798530ff27d100493ede,69b95efdef24cd8a694e89ee,69b9601795c307edc53c932c,0.1007,0.1007,1,23,185,25,1,onethree,,,,,,,,,,,,,,,,,,,,,,,,,,,,,,,,,,,,,,,,,,,,,,,,,,,,,,,,,,,,,,,,,,,,,,,,,,,,,,,,,,,,,,,,,,,,,,,,,,,,,,,,,,,,,,,,,,,,,,,,,,,,,,,,,,,,,,,,,
,,616f798530ff27d100493ede,2026-03-17_16h08.03.122,kallum_motion_pilot_GIST_update_2,2026.1.1,Win32,59.52380952,616f798530ff27d100493ede,69b95efdef24cd8a694e89ee,69b9601795c307edc53c932c,0.1011,0.1011,1,24,186,37,1,threefour,,,,,,,,,,,,,,,,,,,,,,,,,,,,,,,,,,,,,,,,,,,,,,,,,,,,,,,,,,,,,,,,,,,,,,,,,,,,,,,,,,,,,,,,,,,,,,,,,,,,,,,,,,,,,,,,,,,,,,,,,,,,,,,,,,,,,,,,,
,,616f798530ff27d100493ede,2026-03-17_16h08.03.122,kallum_motion_pilot_GIST_update_2,2026.1.1,Win32,59.52380952,616f798530ff27d100493ede,69b95efdef24cd8a694e89ee,69b9601795c307edc53c932c,0.1015,0.1015,1,25,187,74,1,twoone,,,,,,,,,,,,,,,,,,,,,,,,,,,,,,,,,,,,,,,,,,,,,,,,,,,,,,,,,,,,,,,,,,,,,,,,,,,,,,,,,,,,,,,,,,,,,,,,,,,,,,,,,,,,,,,,,,,,,,,,,,,,,,,,,,,,,,,,,
,,616f798530ff27d100493ede,2026-03-17_16h08.03.122,kallum_motion_pilot_GIST_update_2,2026.1.1,Win32,59.52380952,616f798530ff27d100493ede,69b95efdef24cd8a694e89ee,69b9601795c307edc53c932c,0.1018,0.1018,1,26,188,9,1,onethree,,,,,,,,,,,,,,,,,,,,,,,,,,,,,,,,,,,,,,,,,,,,,,,,,,,,,,,,,,,,,,,,,,,,,,,,,,,,,,,,,,,,,,,,,,,,,,,,,,,,,,,,,,,,,,,,,,,,,,,,,,,,,,,,,,,,,,,,,
,,616f798530ff27d100493ede,2026-03-17_16h08.03.122,kallum_motion_pilot_GIST_update_2,2026.1.1,Win32,59.52380952,616f798530ff27d100493ede,69b95efdef24cd8a694e89ee,69b9601795c307edc53c932c,0.1021,0.1021,1,27,189,143,1,eightseven,,,,,,,,,,,,,,,,,,,,,,,,,,,,,,,,,,,,,,,,,,,,,,,,,,,,,,,,,,,,,,,,,,,,,,,,,,,,,,,,,,,,,,,,,,,,,,,,,,,,,,,,,,,,,,,,,,,,,,,,,,,,,,,,,,,,,,,,,
,,616f798530ff27d100493ede,2026-03-17_16h08.03.122,kallum_motion_pilot_GIST_update_2,2026.1.1,Win32,59.52380952,616f798530ff27d100493ede,69b95efdef24cd8a694e89ee,69b9601795c307edc53c932c,0.1024,0.1024,1,28,190,17,1,onethree,,,,,,,,,,,,,,,,,,,,,,,,,,,,,,,,,,,,,,,,,,,,,,,,,,,,,,,,,,,,,,,,,,,,,,,,,,,,,,,,,,,,,,,,,,,,,,,,,,,,,,,,,,,,,,,,,,,,,,,,,,,,,,,,,,,,,,,,,
,,616f798530ff27d100493ede,2026-03-17_16h08.03.122,kallum_motion_pilot_GIST_update_2,2026.1.1,Win32,59.52380952,616f798530ff27d100493ede,69b95efdef24cd8a694e89ee,69b9601795c307edc53c932c,0.1027,0.1028,1,29,191,117,1,seveneight,,,,,,,,,,,,,,,,,,,,,,,,,,,,,,,,,,,,,,,,,,,,,,,,,,,,,,,,,,,,,,,,,,,,,,,,,,,,,,,,,,,,,,,,,,,,,,,,,,,,,,,,,,,,,,,,,,,,,,,,,,,,,,,,,,,,,,,,,
,,616f798530ff27d100493ede,2026-03-17_16h08.03.122,kallum_motion_pilot_GIST_update_2,2026.1.1,Win32,59.52380952,616f798530ff27d100493ede,69b95efdef24cd8a694e89ee,69b9601795c307edc53c932c,0.1034,0.1034,1,30,192,89,1,fiveseven,,,,,,,,,,,,,,,,,,,,,,,,,,,,,,,,,,,,,,,,,,,,,,,,,,,,,,,,,,,,,,,,,,,,,,,,,,,,,,,,,,,,,,,,,,,,,,,,,,,,,,,,,,,,,,,,,,,,,,,,,,,,,,,,,,,,,,,,,
,,616f798530ff27d100493ede,2026-03-17_16h08.03.122,kallum_motion_pilot_GIST_update_2,2026.1.1,Win32,59.52380952,616f798530ff27d100493ede,69b95efdef24cd8a694e89ee,69b9601795c307edc53c932c,0.1036,0.1036,1,31,193,119,1,eightseven,,,,,,,,,,,,,,,,,,,,,,,,,,,,,,,,,,,,,,,,,,,,,,,,,,,,,,,,,,,,,,,,,,,,,,,,,,,,,,,,,,,,,,,,,,,,,,,,,,,,,,,,,,,,,,,,,,,,,,,,,,,,,,,,,,,,,,,,,
,,616f798530ff27d100493ede,2026-03-17_16h08.03.122,kallum_motion_pilot_GIST_update_2,2026.1.1,Win32,59.52380952,616f798530ff27d100493ede,69b95efdef24cd8a694e89ee,69b9601795c307edc53c932c,0.104,0.104,1,32,194,123,1,sixeight,,,,,,,,,,,,,,,,,,,,,,,,,,,,,,,,,,,,,,,,,,,,,,,,,,,,,,,,,,,,,,,,,,,,,,,,,,,,,,,,,,,,,,,,,,,,,,,,,,,,,,,,,,,,,,,,,,,,,,,,,,,,,,,,,,,,,,,,,
,,616f798530ff27d100493ede,2026-03-17_16h08.03.122,kallum_motion_pilot_GIST_update_2,2026.1.1,Win32,59.52380952,616f798530ff27d100493ede,69b95efdef24cd8a694e89ee,69b9601795c307edc53c932c,0.1044,0.1044,1,33,195,52,1,threeone,,,,,,,,,,,,,,,,,,,,,,,,,,,,,,,,,,,,,,,,,,,,,,,,,,,,,,,,,,,,,,,,,,,,,,,,,,,,,,,,,,,,,,,,,,,,,,,,,,,,,,,,,,,,,,,,,,,,,,,,,,,,,,,,,,,,,,,,,
,,616f798530ff27d100493ede,2026-03-17_16h08.03.122,kallum_motion_pilot_GIST_update_2,2026.1.1,Win32,59.52380952,616f798530ff27d100493ede,69b95efdef24cd8a694e89ee,69b9601795c307edc53c932c,0.1046,0.1046,1,34,196,1,1,onethree,,,,,,,,,,,,,,,,,,,,,,,,,,,,,,,,,,,,,,,,,,,,,,,,,,,,,,,,,,,,,,,,,,,,,,,,,,,,,,,,,,,,,,,,,,,,,,,,,,,,,,,,,,,,,,,,,,,,,,,,,,,,,,,,,,,,,,,,,
,,616f798530ff27d100493ede,2026-03-17_16h08.03.122,kallum_motion_pilot_GIST_update_2,2026.1.1,Win32,59.52380952,616f798530ff27d100493ede,69b95efdef24cd8a694e89ee,69b9601795c307edc53c932c,0.1049,0.1049,1,35,197,149,1,seveneight,,,,,,,,,,,,,,,,,,,,,,,,,,,,,,,,,,,,,,,,,,,,,,,,,,,,,,,,,,,,,,,,,,,,,,,,,,,,,,,,,,,,,,,,,,,,,,,,,,,,,,,,,,,,,,,,,,,,,,,,,,,,,,,,,,,,,,,,,
,,616f798530ff27d100493ede,2026-03-17_16h08.03.122,kallum_motion_pilot_GIST_update_2,2026.1.1,Win32,59.52380952,616f798530ff27d100493ede,69b95efdef24cd8a694e89ee,69b9601795c307edc53c932c,0.1052,0.1052,1,36,198,157,1,seveneight,,,,,,,,,,,,,,,,,,,,,,,,,,,,,,,,,,,,,,,,,,,,,,,,,,,,,,,,,,,,,,,,,,,,,,,,,,,,,,,,,,,,,,,,,,,,,,,,,,,,,,,,,,,,,,,,,,,,,,,,,,,,,,,,,,,,,,,,,
,,616f798530ff27d100493ede,2026-03-17_16h08.03.122,kallum_motion_pilot_GIST_update_2,2026.1.1,Win32,59.52380952,616f798530ff27d100493ede,69b95efdef24cd8a694e89ee,69b9601795c307edc53c932c,0.1055,0.1055,1,37,199,65,1,onethree,,,,,,,,,,,,,,,,,,,,,,,,,,,,,,,,,,,,,,,,,,,,,,,,,,,,,,,,,,,,,,,,,,,,,,,,,,,,,,,,,,,,,,,,,,,,,,,,,,,,,,,,,,,,,,,,,,,,,,,,,,,,,,,,,,,,,,,,,
,,616f798530ff27d100493ede,2026-03-17_16h08.03.122,kallum_motion_pilot_GIST_update_2,2026.1.1,Win32,59.52380952,616f798530ff27d100493ede,69b95efdef24cd8a694e89ee,69b9601795c307edc53c932c,0.1058,0.1058,1,38,200,43,1,twofour,,,,,,,,,,,,,,,,,,,,,,,,,,,,,,,,,,,,,,,,,,,,,,,,,,,,,,,,,,,,,,,,,,,,,,,,,,,,,,,,,,,,,,,,,,,,,,,,,,,,,,,,,,,,,,,,,,,,,,,,,,,,,,,,,,,,,,,,,
,,616f798530ff27d100493ede,2026-03-17_16h08.03.122,kallum_motion_pilot_GIST_update_2,2026.1.1,Win32,59.52380952,616f798530ff27d100493ede,69b95efdef24cd8a694e89ee,69b9601795c307edc53c932c,0.106,0.1061,1,39,201,36,1,threeone,,,,,,,,,,,,,,,,,,,,,,,,,,,,,,,,,,,,,,,,,,,,,,,,,,,,,,,,,,,,,,,,,,,,,,,,,,,,,,,,,,,,,,,,,,,,,,,,,,,,,,,,,,,,,,,,,,,,,,,,,,,,,,,,,,,,,,,,,
,,616f798530ff27d100493ede,2026-03-17_16h08.03.122,kallum_motion_pilot_GIST_update_2,2026.1.1,Win32,59.52380952,616f798530ff27d100493ede,69b95efdef24cd8a694e89ee,69b9601795c307edc53c932c,0.1063,0.1064,1,40,202,122,1,sixfive,,,,,,,,,,,,,,,,,,,,,,,,,,,,,,,,,,,,,,,,,,,,,,,,,,,,,,,,,,,,,,,,,,,,,,,,,,,,,,,,,,,,,,,,,,,,,,,,,,,,,,,,,,,,,,,,,,,,,,,,,,,,,,,,,,,,,,,,,
,,616f798530ff27d100493ede,2026-03-17_16h08.03.122,kallum_motion_pilot_GIST_update_2,2026.1.1,Win32,59.52380952,616f798530ff27d100493ede,69b95efdef24cd8a694e89ee,69b9601795c307edc53c932c,0.1066,0.1066,1,41,203,112,1,fivesix,,,,,,,,,,,,,,,,,,,,,,,,,,,,,,,,,,,,,,,,,,,,,,,,,,,,,,,,,,,,,,,,,,,,,,,,,,,,,,,,,,,,,,,,,,,,,,,,,,,,,,,,,,,,,,,,,,,,,,,,,,,,,,,,,,,,,,,,,
,,616f798530ff27d100493ede,2026-03-17_16h08.03.122,kallum_motion_pilot_GIST_update_2,2026.1.1,Win32,59.52380952,616f798530ff27d100493ede,69b95efdef24cd8a694e89ee,69b9601795c307edc53c932c,0.1069,0.1069,1,42,204,97,1,fiveseven,,,,,,,,,,,,,,,,,,,,,,,,,,,,,,,,,,,,,,,,,,,,,,,,,,,,,,,,,,,,,,,,,,,,,,,,,,,,,,,,,,,,,,,,,,,,,,,,,,,,,,,,,,,,,,,,,,,,,,,,,,,,,,,,,,,,,,,,,
,,616f798530ff27d100493ede,2026-03-17_16h08.03.122,kallum_motion_pilot_GIST_update_2,2026.1.1,Win32,59.52380952,616f798530ff27d100493ede,69b95efdef24cd8a694e89ee,69b9601795c307edc53c932c,0.1072,0.1072,1,43,205,49,1,onethree,,,,,,,,,,,,,,,,,,,,,,,,,,,,,,,,,,,,,,,,,,,,,,,,,,,,,,,,,,,,,,,,,,,,,,,,,,,,,,,,,,,,,,,,,,,,,,,,,,,,,,,,,,,,,,,,,,,,,,,,,,,,,,,,,,,,,,,,,
,,616f798530ff27d100493ede,2026-03-17_16h08.03.122,kallum_motion_pilot_GIST_update_2,2026.1.1,Win32,59.52380952,616f798530ff27d100493ede,69b95efdef24cd8a694e89ee,69b9601795c307edc53c932c,0.1075,0.1075,1,44,206,24,1,onetwo,,,,,,,,,,,,,,,,,,,,,,,,,,,,,,,,,,,,,,,,,,,,,,,,,,,,,,,,,,,,,,,,,,,,,,,,,,,,,,,,,,,,,,,,,,,,,,,,,,,,,,,,,,,,,,,,,,,,,,,,,,,,,,,,,,,,,,,,,
,,616f798530ff27d100493ede,2026-03-17_16h08.03.122,kallum_motion_pilot_GIST_update_2,2026.1.1,Win32,59.52380952,616f798530ff27d100493ede,69b95efdef24cd8a694e89ee,69b9601795c307edc53c932c,0.1078,0.1078,1,45,207,38,1,fourtwo,,,,,,,,,,,,,,,,,,,,,,,,,,,,,,,,,,,,,,,,,,,,,,,,,,,,,,,,,,,,,,,,,,,,,,,,,,,,,,,,,,,,,,,,,,,,,,,,,,,,,,,,,,,,,,,,,,,,,,,,,,,,,,,,,,,,,,,,,
,,616f798530ff27d100493ede,2026-03-17_16h08.03.122,kallum_motion_pilot_GIST_update_2,2026.1.1,Win32,59.52380952,616f798530ff27d100493ede,69b95efdef24cd8a694e89ee,69b9601795c307edc53c932c,0.1081,0.1081,1,46,208,30,1,fourtwo,,,,,,,,,,,,,,,,,,,,,,,,,,,,,,,,,,,,,,,,,,,,,,,,,,,,,,,,,,,,,,,,,,,,,,,,,,,,,,,,,,,,,,,,,,,,,,,,,,,,,,,,,,,,,,,,,,,,,,,,,,,,,,,,,,,,,,,,,
,,616f798530ff27d100493ede,2026-03-17_16h08.03.122,kallum_motion_pilot_GIST_update_2,2026.1.1,Win32,59.52380952,616f798530ff27d100493ede,69b95efdef24cd8a694e89ee,69b9601795c307edc53c932c,0.1084,0.1085,1,47,209,72,1,onetwo,,,,,,,,,,,,,,,,,,,,,,,,,,,,,,,,,,,,,,,,,,,,,,,,,,,,,,,,,,,,,,,,,,,,,,,,,,,,,,,,,,,,,,,,,,,,,,,,,,,,,,,,,,,,,,,,,,,,,,,,,,,,,,,,,,,,,,,,,
,,616f798530ff27d100493ede,2026-03-17_16h08.03.122,kallum_motion_pilot_GIST_update_2,2026.1.1,Win32,59.52380952,616f798530ff27d100493ede,69b95efdef24cd8a694e89ee,69b9601795c307edc53c932c,0.1088,0.1088,1,48,210,28,1,threeone,,,,,,,,,,,,,,,,,,,,,,,,,,,,,,,,,,,,,,,,,,,,,,,,,,,,,,,,,,,,,,,,,,,,,,,,,,,,,,,,,,,,,,,,,,,,,,,,,,,,,,,,,,,,,,,,,,,,,,,,,,,,,,,,,,,,,,,,,
,,616f798530ff27d100493ede,2026-03-17_16h08.03.122,kallum_motion_pilot_GIST_update_2,2026.1.1,Win32,59.52380952,616f798530ff27d100493ede,69b95efdef24cd8a694e89ee,69b9601795c307edc53c932c,0.109,0.1091,1,49,211,151,1,eightseven,,,,,,,,,,,,,,,,,,,,,,,,,,,,,,,,,,,,,,,,,,,,,,,,,,,,,,,,,,,,,,,,,,,,,,,,,,,,,,,,,,,,,,,,,,,,,,,,,,,,,,,,,,,,,,,,,,,,,,,,,,,,,,,,,,,,,,,,,
,,616f798530ff27d100493ede,2026-03-17_16h08.03.122,kallum_motion_pilot_GIST_update_2,2026.1.1,Win32,59.52380952,616f798530ff27d100493ede,69b95efdef24cd8a694e89ee,69b9601795c307edc53c932c,0.1094,0.1094,1,50,212,100,1,sevenfive,,,,,,,,,,,,,,,,,,,,,,,,,,,,,,,,,,,,,,,,,,,,,,,,,,,,,,,,,,,,,,,,,,,,,,,,,,,,,,,,,,,,,,,,,,,,,,,,,,,,,,,,,,,,,,,,,,,,,,,,,,,,,,,,,,,,,,,,,
,,616f798530ff27d100493ede,2026-03-17_16h08.03.122,kallum_motion_pilot_GIST_update_2,2026.1.1,Win32,59.52380952,616f798530ff27d100493ede,69b95efdef24cd8a694e89ee,69b9601795c307edc53c932c,0.1097,0.1097,1,51,213,63,1,fourthree,,,,,,,,,,,,,,,,,,,,,,,,,,,,,,,,,,,,,,,,,,,,,,,,,,,,,,,,,,,,,,,,,,,,,,,,,,,,,,,,,,,,,,,,,,,,,,,,,,,,,,,,,,,,,,,,,,,,,,,,,,,,,,,,,,,,,,,,,
,,616f798530ff27d100493ede,2026-03-17_16h08.03.122,kallum_motion_pilot_GIST_update_2,2026.1.1,Win32,59.52380952,616f798530ff27d100493ede,69b95efdef24cd8a694e89ee,69b9601795c307edc53c932c,0.11,0.11,1,52,214,3,1,twofour,,,,,,,,,,,,,,,,,,,,,,,,,,,,,,,,,,,,,,,,,,,,,,,,,,,,,,,,,,,,,,,,,,,,,,,,,,,,,,,,,,,,,,,,,,,,,,,,,,,,,,,,,,,,,,,,,,,,,,,,,,,,,,,,,,,,,,,,,
,,616f798530ff27d100493ede,2026-03-17_16h08.03.122,kallum_motion_pilot_GIST_update_2,2026.1.1,Win32,59.52380952,616f798530ff27d100493ede,69b95efdef24cd8a694e89ee,69b9601795c307edc53c932c,0.1102,0.1102,1,53,215,2,1,twoone,,,,,,,,,,,,,,,,,,,,,,,,,,,,,,,,,,,,,,,,,,,,,,,,,,,,,,,,,,,,,,,,,,,,,,,,,,,,,,,,,,,,,,,,,,,,,,,,,,,,,,,,,,,,,,,,,,,,,,,,,,,,,,,,,,,,,,,,,
,,616f798530ff27d100493ede,2026-03-17_16h08.03.122,kallum_motion_pilot_GIST_update_2,2026.1.1,Win32,59.52380952,616f798530ff27d100493ede,69b95efdef24cd8a694e89ee,69b9601795c307edc53c932c,0.1107,0.1107,1,54,216,120,1,fivesix,,,,,,,,,,,,,,,,,,,,,,,,,,,,,,,,,,,,,,,,,,,,,,,,,,,,,,,,,,,,,,,,,,,,,,,,,,,,,,,,,,,,,,,,,,,,,,,,,,,,,,,,,,,,,,,,,,,,,,,,,,,,,,,,,,,,,,,,,
,,616f798530ff27d100493ede,2026-03-17_16h08.03.122,kallum_motion_pilot_GIST_update_2,2026.1.1,Win32,59.52380952,616f798530ff27d100493ede,69b95efdef24cd8a694e89ee,69b9601795c307edc53c932c,0.111,0.111,1,55,217,18,1,twoone,,,,,,,,,,,,,,,,,,,,,,,,,,,,,,,,,,,,,,,,,,,,,,,,,,,,,,,,,,,,,,,,,,,,,,,,,,,,,,,,,,,,,,,,,,,,,,,,,,,,,,,,,,,,,,,,,,,,,,,,,,,,,,,,,,,,,,,,,
,,616f798530ff27d100493ede,2026-03-17_16h08.03.122,kallum_motion_pilot_GIST_update_2,2026.1.1,Win32,59.52380952,616f798530ff27d100493ede,69b95efdef24cd8a694e89ee,69b9601795c307edc53c932c,0.1112,0.1112,1,56,218,41,1,onethree,,,,,,,,,,,,,,,,,,,,,,,,,,,,,,,,,,,,,,,,,,,,,,,,,,,,,,,,,,,,,,,,,,,,,,,,,,,,,,,,,,,,,,,,,,,,,,,,,,,,,,,,,,,,,,,,,,,,,,,,,,,,,,,,,,,,,,,,,
,,616f798530ff27d100493ede,2026-03-17_16h08.03.122,kallum_motion_pilot_GIST_update_2,2026.1.1,Win32,59.52380952,616f798530ff27d100493ede,69b95efdef24cd8a694e89ee,69b9601795c307edc53c932c,0.1115,0.1115,1,57,219,116,1,sevenfive,,,,,,,,,,,,,,,,,,,,,,,,,,,,,,,,,,,,,,,,,,,,,,,,,,,,,,,,,,,,,,,,,,,,,,,,,,,,,,,,,,,,,,,,,,,,,,,,,,,,,,,,,,,,,,,,,,,,,,,,,,,,,,,,,,,,,,,,,
,,616f798530ff27d100493ede,2026-03-17_16h08.03.122,kallum_motion_pilot_GIST_update_2,2026.1.1,Win32,59.52380952,616f798530ff27d100493ede,69b95efdef24cd8a694e89ee,69b9601795c307edc53c932c,0.1118,0.1118,1,58,220,58,1,twoone,,,,,,,,,,,,,,,,,,,,,,,,,,,,,,,,,,,,,,,,,,,,,,,,,,,,,,,,,,,,,,,,,,,,,,,,,,,,,,,,,,,,,,,,,,,,,,,,,,,,,,,,,,,,,,,,,,,,,,,,,,,,,,,,,,,,,,,,,
,,616f798530ff27d100493ede,2026-03-17_16h08.03.122,kallum_motion_pilot_GIST_update_2,2026.1.1,Win32,59.52380952,616f798530ff27d100493ede,69b95efdef24cd8a694e89ee,69b9601795c307edc53c932c,0.1122,0.1122,1,59,221,80,1,fivesix,,,,,,,,,,,,,,,,,,,,,,,,,,,,,,,,,,,,,,,,,,,,,,,,,,,,,,,,,,,,,,,,,,,,,,,,,,,,,,,,,,,,,,,,,,,,,,,,,,,,,,,,,,,,,,,,,,,,,,,,,,,,,,,,,,,,,,,,,
,,616f798530ff27d100493ede,2026-03-17_16h08.03.122,kallum_motion_pilot_GIST_update_2,2026.1.1,Win32,59.52380952,616f798530ff27d100493ede,69b95efdef24cd8a694e89ee,69b9601795c307edc53c932c,0.1126,0.1126,1,60,222,22,1,fourtwo,,,,,,,,,,,,,,,,,,,,,,,,,,,,,,,,,,,,,,,,,,,,,,,,,,,,,,,,,,,,,,,,,,,,,,,,,,,,,,,,,,,,,,,,,,,,,,,,,,,,,,,,,,,,,,,,,,,,,,,,,,,,,,,,,,,,,,,,,
,,616f798530ff27d100493ede,2026-03-17_16h08.03.122,kallum_motion_pilot_GIST_update_2,2026.1.1,Win32,59.52380952,616f798530ff27d100493ede,69b95efdef24cd8a694e89ee,69b9601795c307edc53c932c,0.1129,0.1129,1,61,223,78,1,fourtwo,,,,,,,,,,,,,,,,,,,,,,,,,,,,,,,,,,,,,,,,,,,,,,,,,,,,,,,,,,,,,,,,,,,,,,,,,,,,,,,,,,,,,,,,,,,,,,,,,,,,,,,,,,,,,,,,,,,,,,,,,,,,,,,,,,,,,,,,,
,,616f798530ff27d100493ede,2026-03-17_16h08.03.122,kallum_motion_pilot_GIST_update_2,2026.1.1,Win32,59.52380952,616f798530ff27d100493ede,69b95efdef24cd8a694e89ee,69b9601795c307edc53c932c,0.1133,0.1133,1,62,224,134,1,eightsix,,,,,,,,,,,,,,,,,,,,,,,,,,,,,,,,,,,,,,,,,,,,,,,,,,,,,,,,,,,,,,,,,,,,,,,,,,,,,,,,,,,,,,,,,,,,,,,,,,,,,,,,,,,,,,,,,,,,,,,,,,,,,,,,,,,,,,,,,
,,616f798530ff27d100493ede,2026-03-17_16h08.03.122,kallum_motion_pilot_GIST_update_2,2026.1.1,Win32,59.52380952,616f798530ff27d100493ede,69b95efdef24cd8a694e89ee,69b9601795c307edc53c932c,0.1136,0.1138,1,63,225,15,1,fourthree,,,,,,,,,,,,,,,,,,,,,,,,,,,,,,,,,,,,,,,,,,,,,,,,,,,,,,,,,,,,,,,,,,,,,,,,,,,,,,,,,,,,,,,,,,,,,,,,,,,,,,,,,,,,,,,,,,,,,,,,,,,,,,,,,,,,,,,,,
,,616f798530ff27d100493ede,2026-03-17_16h08.03.122,kallum_motion_pilot_GIST_update_2,2026.1.1,Win32,59.52380952,616f798530ff27d100493ede,69b95efdef24cd8a694e89ee,69b9601795c307edc53c932c,0.1142,0.1142,1,64,226,152,1,fivesix,,,,,,,,,,,,,,,,,,,,,,,,,,,,,,,,,,,,,,,,,,,,,,,,,,,,,,,,,,,,,,,,,,,,,,,,,,,,,,,,,,,,,,,,,,,,,,,,,,,,,,,,,,,,,,,,,,,,,,,,,,,,,,,,,,,,,,,,,
,,616f798530ff27d100493ede,2026-03-17_16h08.03.122,kallum_motion_pilot_GIST_update_2,2026.1.1,Win32,59.52380952,616f798530ff27d100493ede,69b95efdef24cd8a694e89ee,69b9601795c307edc53c932c,0.1146,0.1147,1,65,227,75,1,twofour,,,,,,,,,,,,,,,,,,,,,,,,,,,,,,,,,,,,,,,,,,,,,,,,,,,,,,,,,,,,,,,,,,,,,,,,,,,,,,,,,,,,,,,,,,,,,,,,,,,,,,,,,,,,,,,,,,,,,,,,,,,,,,,,,,,,,,,,,
,,616f798530ff27d100493ede,2026-03-17_16h08.03.122,kallum_motion_pilot_GIST_update_2,2026.1.1,Win32,59.52380952,616f798530ff27d100493ede,69b95efdef24cd8a694e89ee,69b9601795c307edc53c932c,0.115,0.115,1,66,228,109,1,seveneight,,,,,,,,,,,,,,,,,,,,,,,,,,,,,,,,,,,,,,,,,,,,,,,,,,,,,,,,,,,,,,,,,,,,,,,,,,,,,,,,,,,,,,,,,,,,,,,,,,,,,,,,,,,,,,,,,,,,,,,,,,,,,,,,,,,,,,,,,
,,616f798530ff27d100493ede,2026-03-17_16h08.03.122,kallum_motion_pilot_GIST_update_2,2026.1.1,Win32,59.52380952,616f798530ff27d100493ede,69b95efdef24cd8a694e89ee,69b9601795c307edc53c932c,0.1153,0.1153,1,67,229,131,1,sixeight,,,,,,,,,,,,,,,,,,,,,,,,,,,,,,,,,,,,,,,,,,,,,,,,,,,,,,,,,,,,,,,,,,,,,,,,,,,,,,,,,,,,,,,,,,,,,,,,,,,,,,,,,,,,,,,,,,,,,,,,,,,,,,,,,,,,,,,,,
,,616f798530ff27d100493ede,2026-03-17_16h08.03.122,kallum_motion_pilot_GIST_update_2,2026.1.1,Win32,59.52380952,616f798530ff27d100493ede,69b95efdef24cd8a694e89ee,69b9601795c307edc53c932c,0.1156,0.1156,1,68,230,128,1,fivesix,,,,,,,,,,,,,,,,,,,,,,,,,,,,,,,,,,,,,,,,,,,,,,,,,,,,,,,,,,,,,,,,,,,,,,,,,,,,,,,,,,,,,,,,,,,,,,,,,,,,,,,,,,,,,,,,,,,,,,,,,,,,,,,,,,,,,,,,,
,,616f798530ff27d100493ede,2026-03-17_16h08.03.122,kallum_motion_pilot_GIST_update_2,2026.1.1,Win32,59.52380952,616f798530ff27d100493ede,69b95efdef24cd8a694e89ee,69b9601795c307edc53c932c,0.116,0.116,1,69,231,54,1,fourtwo,,,,,,,,,,,,,,,,,,,,,,,,,,,,,,,,,,,,,,,,,,,,,,,,,,,,,,,,,,,,,,,,,,,,,,,,,,,,,,,,,,,,,,,,,,,,,,,,,,,,,,,,,,,,,,,,,,,,,,,,,,,,,,,,,,,,,,,,,
,,616f798530ff27d100493ede,2026-03-17_16h08.03.122,kallum_motion_pilot_GIST_update_2,2026.1.1,Win32,59.52380952,616f798530ff27d100493ede,69b95efdef24cd8a694e89ee,69b9601795c307edc53c932c,0.1163,0.1163,1,70,232,20,1,threeone,,,,,,,,,,,,,,,,,,,,,,,,,,,,,,,,,,,,,,,,,,,,,,,,,,,,,,,,,,,,,,,,,,,,,,,,,,,,,,,,,,,,,,,,,,,,,,,,,,,,,,,,,,,,,,,,,,,,,,,,,,,,,,,,,,,,,,,,,
,,616f798530ff27d100493ede,2026-03-17_16h08.03.122,kallum_motion_pilot_GIST_update_2,2026.1.1,Win32,59.52380952,616f798530ff27d100493ede,69b95efdef24cd8a694e89ee,69b9601795c307edc53c932c,0.1166,0.1166,1,71,233,6,1,fourtwo,,,,,,,,,,,,,,,,,,,,,,,,,,,,,,,,,,,,,,,,,,,,,,,,,,,,,,,,,,,,,,,,,,,,,,,,,,,,,,,,,,,,,,,,,,,,,,,,,,,,,,,,,,,,,,,,,,,,,,,,,,,,,,,,,,,,,,,,,
,,616f798530ff27d100493ede,2026-03-17_16h08.03.122,kallum_motion_pilot_GIST_update_2,2026.1.1,Win32,59.52380952,616f798530ff27d100493ede,69b95efdef24cd8a694e89ee,69b9601795c307edc53c932c,0.1169,0.1169,1,72,234,13,1,threefour,,,,,,,,,,,,,,,,,,,,,,,,,,,,,,,,,,,,,,,,,,,,,,,,,,,,,,,,,,,,,,,,,,,,,,,,,,,,,,,,,,,,,,,,,,,,,,,,,,,,,,,,,,,,,,,,,,,,,,,,,,,,,,,,,,,,,,,,,
,,616f798530ff27d100493ede,2026-03-17_16h08.03.122,kallum_motion_pilot_GIST_update_2,2026.1.1,Win32,59.52380952,616f798530ff27d100493ede,69b95efdef24cd8a694e89ee,69b9601795c307edc53c932c,0.1171,0.1171,1,73,235,55,1,fourthree,,,,,,,,,,,,,,,,,,,,,,,,,,,,,,,,,,,,,,,,,,,,,,,,,,,,,,,,,,,,,,,,,,,,,,,,,,,,,,,,,,,,,,,,,,,,,,,,,,,,,,,,,,,,,,,,,,,,,,,,,,,,,,,,,,,,,,,,,
,,616f798530ff27d100493ede,2026-03-17_16h08.03.122,kallum_motion_pilot_GIST_update_2,2026.1.1,Win32,59.52380952,616f798530ff27d100493ede,69b95efdef24cd8a694e89ee,69b9601795c307edc53c932c,0.1174,0.1174,1,74,236,146,1,sixfive,,,,,,,,,,,,,,,,,,,,,,,,,,,,,,,,,,,,,,,,,,,,,,,,,,,,,,,,,,,,,,,,,,,,,,,,,,,,,,,,,,,,,,,,,,,,,,,,,,,,,,,,,,,,,,,,,,,,,,,,,,,,,,,,,,,,,,,,,
,,616f798530ff27d100493ede,2026-03-17_16h08.03.122,kallum_motion_pilot_GIST_update_2,2026.1.1,Win32,59.52380952,616f798530ff27d100493ede,69b95efdef24cd8a694e89ee,69b9601795c307edc53c932c,0.1177,0.1178,1,75,237,129,1,fiveseven,,,,,,,,,,,,,,,,,,,,,,,,,,,,,,,,,,,,,,,,,,,,,,,,,,,,,,,,,,,,,,,,,,,,,,,,,,,,,,,,,,,,,,,,,,,,,,,,,,,,,,,,,,,,,,,,,,,,,,,,,,,,,,,,,,,,,,,,,
,,616f798530ff27d100493ede,2026-03-17_16h08.03.122,kallum_motion_pilot_GIST_update_2,2026.1.1,Win32,59.52380952,616f798530ff27d100493ede,69b95efdef24cd8a694e89ee,69b9601795c307edc53c932c,0.118,0.118,1,76,238,81,1,fiveseven,,,,,,,,,,,,,,,,,,,,,,,,,,,,,,,,,,,,,,,,,,,,,,,,,,,,,,,,,,,,,,,,,,,,,,,,,,,,,,,,,,,,,,,,,,,,,,,,,,,,,,,,,,,,,,,,,,,,,,,,,,,,,,,,,,,,,,,,,
,,616f798530ff27d100493ede,2026-03-17_16h08.03.122,kallum_motion_pilot_GIST_update_2,2026.1.1,Win32,59.52380952,616f798530ff27d100493ede,69b95efdef24cd8a694e89ee,69b9601795c307edc53c932c,0.1183,0.1183,1,77,239,14,1,fourtwo,,,,,,,,,,,,,,,,,,,,,,,,,,,,,,,,,,,,,,,,,,,,,,,,,,,,,,,,,,,,,,,,,,,,,,,,,,,,,,,,,,,,,,,,,,,,,,,,,,,,,,,,,,,,,,,,,,,,,,,,,,,,,,,,,,,,,,,,,
,,616f798530ff27d100493ede,2026-03-17_16h08.03.122,kallum_motion_pilot_GIST_update_2,2026.1.1,Win32,59.52380952,616f798530ff27d100493ede,69b95efdef24cd8a694e89ee,69b9601795c307edc53c932c,0.1186,0.1186,1,78,240,0,1,onetwo,,,,,,,,,,,,,,,,,,,,,,,,,,,,,,,,,,,,,,,,,,,,,,,,,,,,,,,,,,,,,,,,,,,,,,,,,,,,,,,,,,,,,,,,,,,,,,,,,,,,,,,,,,,,,,,,,,,,,,,,,,,,,,,,,,,,,,,,,
,,616f798530ff27d100493ede,2026-03-17_16h08.03.122,kallum_motion_pilot_GIST_update_2,2026.1.1,Win32,59.52380952,616f798530ff27d100493ede,69b95efdef24cd8a694e89ee,69b9601795c307edc53c932c,0.1189,0.1189,1,79,241,61,1,threefour,,,,,,,,,,,,,,,,,,,,,,,,,,,,,,,,,,,,,,,,,,,,,,,,,,,,,,,,,,,,,,,,,,,,,,,,,,,,,,,,,,,,,,,,,,,,,,,,,,,,,,,,,,,,,,,,,,,,,,,,,,,,,,,,,,,,,,,,,
,,616f798530ff27d100493ede,2026-03-17_16h08.03.122,kallum_motion_pilot_GIST_update_2,2026.1.1,Win32,59.52380952,616f798530ff27d100493ede,69b95efdef24cd8a694e89ee,69b9601795c307edc53c932c,0.1192,0.1192,1,80,242,31,1,fourthree,,,,,,,,,,,,,,,,,,,,,,,,,,,,,,,,,,,,,,,,,,,,,,,,,,,,,,,,,,,,,,,,,,,,,,,,,,,,,,,,,,,,,,,,,,,,,,,,,,,,,,,,,,,,,,,,,,,,,,,,,,,,,,,,,,,,,,,,,
,,616f798530ff27d100493ede,2026-03-17_16h08.03.122,kallum_motion_pilot_GIST_update_2,2026.1.1,Win32,59.52380952,616f798530ff27d100493ede,69b95efdef24cd8a694e89ee,69b9601795c307edc53c932c,0.1195,0.1195,1,81,243,106,1,sixfive,,,,,,,,,,,,,,,,,,,,,,,,,,,,,,,,,,,,,,,,,,,,,,,,,,,,,,,,,,,,,,,,,,,,,,,,,,,,,,,,,,,,,,,,,,,,,,,,,,,,,,,,,,,,,,,,,,,,,,,,,,,,,,,,,,,,,,,,,
,,616f798530ff27d100493ede,2026-03-17_16h08.03.122,kallum_motion_pilot_GIST_update_2,2026.1.1,Win32,59.52380952,616f798530ff27d100493ede,69b95efdef24cd8a694e89ee,69b9601795c307edc53c932c,0.1199,0.1199,1,82,244,142,1,eightsix,,,,,,,,,,,,,,,,,,,,,,,,,,,,,,,,,,,,,,,,,,,,,,,,,,,,,,,,,,,,,,,,,,,,,,,,,,,,,,,,,,,,,,,,,,,,,,,,,,,,,,,,,,,,,,,,,,,,,,,,,,,,,,,,,,,,,,,,,
,,616f798530ff27d100493ede,2026-03-17_16h08.03.122,kallum_motion_pilot_GIST_update_2,2026.1.1,Win32,59.52380952,616f798530ff27d100493ede,69b95efdef24cd8a694e89ee,69b9601795c307edc53c932c,0.1202,0.1202,1,83,245,42,1,twoone,,,,,,,,,,,,,,,,,,,,,,,,,,,,,,,,,,,,,,,,,,,,,,,,,,,,,,,,,,,,,,,,,,,,,,,,,,,,,,,,,,,,,,,,,,,,,,,,,,,,,,,,,,,,,,,,,,,,,,,,,,,,,,,,,,,,,,,,,
,,616f798530ff27d100493ede,2026-03-17_16h08.03.122,kallum_motion_pilot_GIST_update_2,2026.1.1,Win32,59.52380952,616f798530ff27d100493ede,69b95efdef24cd8a694e89ee,69b9601795c307edc53c932c,0.1206,0.1206,1,84,246,159,1,eightseven,,,,,,,,,,,,,,,,,,,,,,,,,,,,,,,,,,,,,,,,,,,,,,,,,,,,,,,,,,,,,,,,,,,,,,,,,,,,,,,,,,,,,,,,,,,,,,,,,,,,,,,,,,,,,,,,,,,,,,,,,,,,,,,,,,,,,,,,,
,,616f798530ff27d100493ede,2026-03-17_16h08.03.122,kallum_motion_pilot_GIST_update_2,2026.1.1,Win32,59.52380952,616f798530ff27d100493ede,69b95efdef24cd8a694e89ee,69b9601795c307edc53c932c,0.121,0.121,1,85,247,21,1,threefour,,,,,,,,,,,,,,,,,,,,,,,,,,,,,,,,,,,,,,,,,,,,,,,,,,,,,,,,,,,,,,,,,,,,,,,,,,,,,,,,,,,,,,,,,,,,,,,,,,,,,,,,,,,,,,,,,,,,,,,,,,,,,,,,,,,,,,,,,
,,616f798530ff27d100493ede,2026-03-17_16h08.03.122,kallum_motion_pilot_GIST_update_2,2026.1.1,Win32,59.52380952,616f798530ff27d100493ede,69b95efdef24cd8a694e89ee,69b9601795c307edc53c932c,0.1213,0.1213,1,86,248,130,1,sixfive,,,,,,,,,,,,,,,,,,,,,,,,,,,,,,,,,,,,,,,,,,,,,,,,,,,,,,,,,,,,,,,,,,,,,,,,,,,,,,,,,,,,,,,,,,,,,,,,,,,,,,,,,,,,,,,,,,,,,,,,,,,,,,,,,,,,,,,,,
,,616f798530ff27d100493ede,2026-03-17_16h08.03.122,kallum_motion_pilot_GIST_update_2,2026.1.1,Win32,59.52380952,616f798530ff27d100493ede,69b95efdef24cd8a694e89ee,69b9601795c307edc53c932c,0.1216,0.1217,1,87,249,71,1,fourthree,,,,,,,,,,,,,,,,,,,,,,,,,,,,,,,,,,,,,,,,,,,,,,,,,,,,,,,,,,,,,,,,,,,,,,,,,,,,,,,,,,,,,,,,,,,,,,,,,,,,,,,,,,,,,,,,,,,,,,,,,,,,,,,,,,,,,,,,,
,,616f798530ff27d100493ede,2026-03-17_16h08.03.122,kallum_motion_pilot_GIST_update_2,2026.1.1,Win32,59.52380952,616f798530ff27d100493ede,69b95efdef24cd8a694e89ee,69b9601795c307edc53c932c,0.1219,0.1219,1,88,250,126,1,eightsix,,,,,,,,,,,,,,,,,,,,,,,,,,,,,,,,,,,,,,,,,,,,,,,,,,,,,,,,,,,,,,,,,,,,,,,,,,,,,,,,,,,,,,,,,,,,,,,,,,,,,,,,,,,,,,,,,,,,,,,,,,,,,,,,,,,,,,,,,
,,616f798530ff27d100493ede,2026-03-17_16h08.03.122,kallum_motion_pilot_GIST_update_2,2026.1.1,Win32,59.52380952,616f798530ff27d100493ede,69b95efdef24cd8a694e89ee,69b9601795c307edc53c932c,0.1222,0.1223,1,89,251,29,1,threefour,,,,,,,,,,,,,,,,,,,,,,,,,,,,,,,,,,,,,,,,,,,,,,,,,,,,,,,,,,,,,,,,,,,,,,,,,,,,,,,,,,,,,,,,,,,,,,,,,,,,,,,,,,,,,,,,,,,,,,,,,,,,,,,,,,,,,,,,,
,,616f798530ff27d100493ede,2026-03-17_16h08.03.122,kallum_motion_pilot_GIST_update_2,2026.1.1,Win32,59.52380952,616f798530ff27d100493ede,69b95efdef24cd8a694e89ee,69b9601795c307edc53c932c,0.1226,0.1226,1,90,252,154,1,sixfive,,,,,,,,,,,,,,,,,,,,,,,,,,,,,,,,,,,,,,,,,,,,,,,,,,,,,,,,,,,,,,,,,,,,,,,,,,,,,,,,,,,,,,,,,,,,,,,,,,,,,,,,,,,,,,,,,,,,,,,,,,,,,,,,,,,,,,,,,
,,616f798530ff27d100493ede,2026-03-17_16h08.03.122,kallum_motion_pilot_GIST_update_2,2026.1.1,Win32,59.52380952,616f798530ff27d100493ede,69b95efdef24cd8a694e89ee,69b9601795c307edc53c932c,0.1234,0.1234,1,91,253,92,1,sevenfive,,,,,,,,,,,,,,,,,,,,,,,,,,,,,,,,,,,,,,,,,,,,,,,,,,,,,,,,,,,,,,,,,,,,,,,,,,,,,,,,,,,,,,,,,,,,,,,,,,,,,,,,,,,,,,,,,,,,,,,,,,,,,,,,,,,,,,,,,
,,616f798530ff27d100493ede,2026-03-17_16h08.03.122,kallum_motion_pilot_GIST_update_2,2026.1.1,Win32,59.52380952,616f798530ff27d100493ede,69b95efdef24cd8a694e89ee,69b9601795c307edc53c932c,0.1237,0.1237,1,92,254,144,1,fivesix,,,,,,,,,,,,,,,,,,,,,,,,,,,,,,,,,,,,,,,,,,,,,,,,,,,,,,,,,,,,,,,,,,,,,,,,,,,,,,,,,,,,,,,,,,,,,,,,,,,,,,,,,,,,,,,,,,,,,,,,,,,,,,,,,,,,,,,,,
,,616f798530ff27d100493ede,2026-03-17_16h08.03.122,kallum_motion_pilot_GIST_update_2,2026.1.1,Win32,59.52380952,616f798530ff27d100493ede,69b95efdef24cd8a694e89ee,69b9601795c307edc53c932c,0.1241,0.1242,1,93,255,110,1,eightsix,,,,,,,,,,,,,,,,,,,,,,,,,,,,,,,,,,,,,,,,,,,,,,,,,,,,,,,,,,,,,,,,,,,,,,,,,,,,,,,,,,,,,,,,,,,,,,,,,,,,,,,,,,,,,,,,,,,,,,,,,,,,,,,,,,,,,,,,,
,,616f798530ff27d100493ede,2026-03-17_16h08.03.122,kallum_motion_pilot_GIST_update_2,2026.1.1,Win32,59.52380952,616f798530ff27d100493ede,69b95efdef24cd8a694e89ee,69b9601795c307edc53c932c,0.1245,0.1245,1,94,256,87,1,eightseven,,,,,,,,,,,,,,,,,,,,,,,,,,,,,,,,,,,,,,,,,,,,,,,,,,,,,,,,,,,,,,,,,,,,,,,,,,,,,,,,,,,,,,,,,,,,,,,,,,,,,,,,,,,,,,,,,,,,,,,,,,,,,,,,,,,,,,,,,
,,616f798530ff27d100493ede,2026-03-17_16h08.03.122,kallum_motion_pilot_GIST_update_2,2026.1.1,Win32,59.52380952,616f798530ff27d100493ede,69b95efdef24cd8a694e89ee,69b9601795c307edc53c932c,0.1248,0.1248,1,95,257,125,1,seveneight,,,,,,,,,,,,,,,,,,,,,,,,,,,,,,,,,,,,,,,,,,,,,,,,,,,,,,,,,,,,,,,,,,,,,,,,,,,,,,,,,,,,,,,,,,,,,,,,,,,,,,,,,,,,,,,,,,,,,,,,,,,,,,,,,,,,,,,,,
,,616f798530ff27d100493ede,2026-03-17_16h08.03.122,kallum_motion_pilot_GIST_update_2,2026.1.1,Win32,59.52380952,616f798530ff27d100493ede,69b95efdef24cd8a694e89ee,69b9601795c307edc53c932c,0.1252,0.1252,1,96,258,147,1,sixeight,,,,,,,,,,,,,,,,,,,,,,,,,,,,,,,,,,,,,,,,,,,,,,,,,,,,,,,,,,,,,,,,,,,,,,,,,,,,,,,,,,,,,,,,,,,,,,,,,,,,,,,,,,,,,,,,,,,,,,,,,,,,,,,,,,,,,,,,,
,,616f798530ff27d100493ede,2026-03-17_16h08.03.122,kallum_motion_pilot_GIST_update_2,2026.1.1,Win32,59.52380952,616f798530ff27d100493ede,69b95efdef24cd8a694e89ee,69b9601795c307edc53c932c,0.1255,0.1256,1,97,259,127,1,eightseven,,,,,,,,,,,,,,,,,,,,,,,,,,,,,,,,,,,,,,,,,,,,,,,,,,,,,,,,,,,,,,,,,,,,,,,,,,,,,,,,,,,,,,,,,,,,,,,,,,,,,,,,,,,,,,,,,,,,,,,,,,,,,,,,,,,,,,,,,
,,616f798530ff27d100493ede,2026-03-17_16h08.03.122,kallum_motion_pilot_GIST_update_2,2026.1.1,Win32,59.52380952,616f798530ff27d100493ede,69b95efdef24cd8a694e89ee,69b9601795c307edc53c932c,0.1258,0.1258,1,98,260,133,1,seveneight,,,,,,,,,,,,,,,,,,,,,,,,,,,,,,,,,,,,,,,,,,,,,,,,,,,,,,,,,,,,,,,,,,,,,,,,,,,,,,,,,,,,,,,,,,,,,,,,,,,,,,,,,,,,,,,,,,,,,,,,,,,,,,,,,,,,,,,,,
,,616f798530ff27d100493ede,2026-03-17_16h08.03.122,kallum_motion_pilot_GIST_update_2,2026.1.1,Win32,59.52380952,616f798530ff27d100493ede,69b95efdef24cd8a694e89ee,69b9601795c307edc53c932c,0.1262,0.1262,1,99,261,45,1,threefour,,,,,,,,,,,,,,,,,,,,,,,,,,,,,,,,,,,,,,,,,,,,,,,,,,,,,,,,,,,,,,,,,,,,,,,,,,,,,,,,,,,,,,,,,,,,,,,,,,,,,,,,,,,,,,,,,,,,,,,,,,,,,,,,,,,,,,,,,
,,616f798530ff27d100493ede,2026-03-17_16h08.03.122,kallum_motion_pilot_GIST_update_2,2026.1.1,Win32,59.52380952,616f798530ff27d100493ede,69b95efdef24cd8a694e89ee,69b9601795c307edc53c932c,0.1265,0.1266,1,100,262,91,1,sixeight,,,,,,,,,,,,,,,,,,,,,,,,,,,,,,,,,,,,,,,,,,,,,,,,,,,,,,,,,,,,,,,,,,,,,,,,,,,,,,,,,,,,,,,,,,,,,,,,,,,,,,,,,,,,,,,,,,,,,,,,,,,,,,,,,,,,,,,,,
,,616f798530ff27d100493ede,2026-03-17_16h08.03.122,kallum_motion_pilot_GIST_update_2,2026.1.1,Win32,59.52380952,616f798530ff27d100493ede,69b95efdef24cd8a694e89ee,69b9601795c307edc53c932c,0.1269,0.1269,1,101,263,160,1,fivesix,,,,,,,,,,,,,,,,,,,,,,,,,,,,,,,,,,,,,,,,,,,,,,,,,,,,,,,,,,,,,,,,,,,,,,,,,,,,,,,,,,,,,,,,,,,,,,,,,,,,,,,,,,,,,,,,,,,,,,,,,,,,,,,,,,,,,,,,,
,,616f798530ff27d100493ede,2026-03-17_16h08.03.122,kallum_motion_pilot_GIST_update_2,2026.1.1,Win32,59.52380952,616f798530ff27d100493ede,69b95efdef24cd8a694e89ee,69b9601795c307edc53c932c,0.1273,0.1273,1,102,264,35,1,twofour,,,,,,,,,,,,,,,,,,,,,,,,,,,,,,,,,,,,,,,,,,,,,,,,,,,,,,,,,,,,,,,,,,,,,,,,,,,,,,,,,,,,,,,,,,,,,,,,,,,,,,,,,,,,,,,,,,,,,,,,,,,,,,,,,,,,,,,,,
,,616f798530ff27d100493ede,2026-03-17_16h08.03.122,kallum_motion_pilot_GIST_update_2,2026.1.1,Win32,59.52380952,616f798530ff27d100493ede,69b95efdef24cd8a694e89ee,69b9601795c307edc53c932c,0.1276,0.1276,1,103,265,19,1,twofour,,,,,,,,,,,,,,,,,,,,,,,,,,,,,,,,,,,,,,,,,,,,,,,,,,,,,,,,,,,,,,,,,,,,,,,,,,,,,,,,,,,,,,,,,,,,,,,,,,,,,,,,,,,,,,,,,,,,,,,,,,,,,,,,,,,,,,,,,
,,616f798530ff27d100493ede,2026-03-17_16h08.03.122,kallum_motion_pilot_GIST_update_2,2026.1.1,Win32,59.52380952,616f798530ff27d100493ede,69b95efdef24cd8a694e89ee,69b9601795c307edc53c932c,0.128,0.128,1,104,266,33,1,onethree,,,,,,,,,,,,,,,,,,,,,,,,,,,,,,,,,,,,,,,,,,,,,,,,,,,,,,,,,,,,,,,,,,,,,,,,,,,,,,,,,,,,,,,,,,,,,,,,,,,,,,,,,,,,,,,,,,,,,,,,,,,,,,,,,,,,,,,,,
