startup.started,startup.stopped,Prolific ID*,date,expName,psychopyVersion,OS,frameRate,participant,study_id,session,stimpositions.started,stimpositions.stopped,hardcoded_stimulus_positions.thisRepN,hardcoded_stimulus_positions.thisTrialN,hardcoded_stimulus_positions.thisN,hardcoded_stimulus_positions.thisIndex,hardcoded_stimulus_positions.ran,StimulusPos,stimorientation.started,stimorientation.stopped,prac_stimorientation_import_loop.thisRepN,prac_stimorientation_import_loop.thisTrialN,prac_stimorientation_import_loop.thisN,prac_stimorientation_import_loop.thisIndex,prac_stimorientation_import_loop.ran,Stimorientation,welcome_instr.started,welcome_instr.stopped,key_resp.keys,key_resp.rt,key_resp.duration,response_steppedout_1.started,response_steppedout_1.stopped,key_resp_20.keys,key_resp_20.rt,key_resp_20.duration,response_steppedout_2.started,response_steppedout_2.stopped,key_resp_19.keys,key_resp_19.rt,key_resp_19.duration,stim_response_instr.started,stim_response_instr.stopped,key_resp_15.keys,key_resp_15.rt,key_resp_15.duration,direction_instr_2.started,direction_instr_2.stopped,key_resp_9.keys,key_resp_9.rt,key_resp_9.duration,instr_prac.started,instr_prac.stopped,key_resp_10.keys,key_resp_10.rt,key_resp_10.duration,Stim1_display_prac.started,Stim1_display_prac.stopped,Ecc,Circle1_ori,Circle2_ori,response_prac.started,similarity,response_time,response_prac.stopped,mouse_5.x,mouse_5.y,mouse_5.leftButton,mouse_5.midButton,mouse_5.rightButton,mouse_5.clicked_name,responseprac_feedback.started,responseprac_feedback.stopped,summary2_prac.started,summary2_prac.stopped,mouse_6.x,mouse_6.y,mouse_6.leftButton,mouse_6.midButton,mouse_6.rightButton,mouse_6.clicked_name,duringprac.thisRepN,duringprac.thisTrialN,duringprac.thisN,duringprac.thisIndex,duringprac.ran,begin.started,begin.stopped,key_resp_22.keys,key_resp_22.rt,key_resp_22.duration,Stim1_display.started,Stim1_display.stopped,circle1_ori,circle2_ori,circle1_SF,circle2_SF,response.started,response.stopped,mouse.x,mouse.y,mouse.leftButton,mouse.midButton,mouse.rightButton,mouse.clicked_name,trialnumber,double_pass.thisRepN,double_pass.thisTrialN,double_pass.thisN,double_pass.thisIndex,double_pass.ran,double_pass.order,main_trial.thisRepN,main_trial.thisTrialN,main_trial.thisN,main_trial.thisIndex,main_trial.ran,main_trial.order,Trial_Counter,Catch,Frequencies,response_2.started,response_2.stopped,mouse_2.x,mouse_2.y,mouse_2.leftButton,mouse_2.midButton,mouse_2.rightButton,mouse_2.clicked_name,special_trial.started,special_trial.stopped,catch_1.started,catch_1.stopped,mouse_3.x,mouse_3.y,mouse_3.leftButton,mouse_3.midButton,mouse_3.rightButton,catchresponse,catchnumber,response_time_catch,response_sum.started,response_sum.stopped,mouse_11.x,mouse_11.y,mouse_11.leftButton,mouse_11.midButton,mouse_11.rightButton,flip_presentation_sequence_for_double_pass.started,flip_presentation_sequence_for_double_pass.stopped,goodbye.started,goodbye.stopped,key_resp_3.keys,key_resp_3.rt,key_resp_3.duration
0.0062,0.0063,6171165b0a955ac648f01d30,2026-03-17_16h08.58.738,kallum_motion_pilot_GIST_update_2,2026.1.1,Win32,30.03003003,6171165b0a955ac648f01d30,69b95efdef24cd8a694e89ee,69b9600b7c82187620f679d3,,,,,,,,,,,,,,,,,,,,,,,,,,,,,,,,,,,,,,,,,,,,,,,,,,,,,,,,,,,,,,,,,,,,,,,,,,,,,,,,,,,,,,,,,,,,,,,,,,,,,,,,,,,,,,,,,,,,,,,,,,,,,,,,,,,,,,,,,,,,,,,,,
,,6171165b0a955ac648f01d30,2026-03-17_16h08.58.738,kallum_motion_pilot_GIST_update_2,2026.1.1,Win32,30.03003003,6171165b0a955ac648f01d30,69b95efdef24cd8a694e89ee,69b9600b7c82187620f679d3,0.0404,0.0405,0,0,0,1,1,onethree,,,,,,,,,,,,,,,,,,,,,,,,,,,,,,,,,,,,,,,,,,,,,,,,,,,,,,,,,,,,,,,,,,,,,,,,,,,,,,,,,,,,,,,,,,,,,,,,,,,,,,,,,,,,,,,,,,,,,,,,,,,,,,,,,,,,,,,,,
,,6171165b0a955ac648f01d30,2026-03-17_16h08.58.738,kallum_motion_pilot_GIST_update_2,2026.1.1,Win32,30.03003003,6171165b0a955ac648f01d30,69b95efdef24cd8a694e89ee,69b9600b7c82187620f679d3,0.0408,0.0408,0,1,1,61,1,threefour,,,,,,,,,,,,,,,,,,,,,,,,,,,,,,,,,,,,,,,,,,,,,,,,,,,,,,,,,,,,,,,,,,,,,,,,,,,,,,,,,,,,,,,,,,,,,,,,,,,,,,,,,,,,,,,,,,,,,,,,,,,,,,,,,,,,,,,,,
,,6171165b0a955ac648f01d30,2026-03-17_16h08.58.738,kallum_motion_pilot_GIST_update_2,2026.1.1,Win32,30.03003003,6171165b0a955ac648f01d30,69b95efdef24cd8a694e89ee,69b9600b7c82187620f679d3,0.041,0.041,0,2,2,119,1,eightseven,,,,,,,,,,,,,,,,,,,,,,,,,,,,,,,,,,,,,,,,,,,,,,,,,,,,,,,,,,,,,,,,,,,,,,,,,,,,,,,,,,,,,,,,,,,,,,,,,,,,,,,,,,,,,,,,,,,,,,,,,,,,,,,,,,,,,,,,,
,,6171165b0a955ac648f01d30,2026-03-17_16h08.58.738,kallum_motion_pilot_GIST_update_2,2026.1.1,Win32,30.03003003,6171165b0a955ac648f01d30,69b95efdef24cd8a694e89ee,69b9600b7c82187620f679d3,0.0412,0.0412,0,3,3,5,1,threefour,,,,,,,,,,,,,,,,,,,,,,,,,,,,,,,,,,,,,,,,,,,,,,,,,,,,,,,,,,,,,,,,,,,,,,,,,,,,,,,,,,,,,,,,,,,,,,,,,,,,,,,,,,,,,,,,,,,,,,,,,,,,,,,,,,,,,,,,,
,,6171165b0a955ac648f01d30,2026-03-17_16h08.58.738,kallum_motion_pilot_GIST_update_2,2026.1.1,Win32,30.03003003,6171165b0a955ac648f01d30,69b95efdef24cd8a694e89ee,69b9600b7c82187620f679d3,0.0415,0.0415,0,4,4,139,1,sixeight,,,,,,,,,,,,,,,,,,,,,,,,,,,,,,,,,,,,,,,,,,,,,,,,,,,,,,,,,,,,,,,,,,,,,,,,,,,,,,,,,,,,,,,,,,,,,,,,,,,,,,,,,,,,,,,,,,,,,,,,,,,,,,,,,,,,,,,,,
,,6171165b0a955ac648f01d30,2026-03-17_16h08.58.738,kallum_motion_pilot_GIST_update_2,2026.1.1,Win32,30.03003003,6171165b0a955ac648f01d30,69b95efdef24cd8a694e89ee,69b9600b7c82187620f679d3,0.0419,0.0419,0,5,5,155,1,sixeight,,,,,,,,,,,,,,,,,,,,,,,,,,,,,,,,,,,,,,,,,,,,,,,,,,,,,,,,,,,,,,,,,,,,,,,,,,,,,,,,,,,,,,,,,,,,,,,,,,,,,,,,,,,,,,,,,,,,,,,,,,,,,,,,,,,,,,,,,
,,6171165b0a955ac648f01d30,2026-03-17_16h08.58.738,kallum_motion_pilot_GIST_update_2,2026.1.1,Win32,30.03003003,6171165b0a955ac648f01d30,69b95efdef24cd8a694e89ee,69b9600b7c82187620f679d3,0.0421,0.0421,0,6,6,94,1,eightsix,,,,,,,,,,,,,,,,,,,,,,,,,,,,,,,,,,,,,,,,,,,,,,,,,,,,,,,,,,,,,,,,,,,,,,,,,,,,,,,,,,,,,,,,,,,,,,,,,,,,,,,,,,,,,,,,,,,,,,,,,,,,,,,,,,,,,,,,,
,,6171165b0a955ac648f01d30,2026-03-17_16h08.58.738,kallum_motion_pilot_GIST_update_2,2026.1.1,Win32,30.03003003,6171165b0a955ac648f01d30,69b95efdef24cd8a694e89ee,69b9600b7c82187620f679d3,0.0423,0.0423,0,7,7,6,1,fourtwo,,,,,,,,,,,,,,,,,,,,,,,,,,,,,,,,,,,,,,,,,,,,,,,,,,,,,,,,,,,,,,,,,,,,,,,,,,,,,,,,,,,,,,,,,,,,,,,,,,,,,,,,,,,,,,,,,,,,,,,,,,,,,,,,,,,,,,,,,
,,6171165b0a955ac648f01d30,2026-03-17_16h08.58.738,kallum_motion_pilot_GIST_update_2,2026.1.1,Win32,30.03003003,6171165b0a955ac648f01d30,69b95efdef24cd8a694e89ee,69b9600b7c82187620f679d3,0.0426,0.0426,0,8,8,41,1,onethree,,,,,,,,,,,,,,,,,,,,,,,,,,,,,,,,,,,,,,,,,,,,,,,,,,,,,,,,,,,,,,,,,,,,,,,,,,,,,,,,,,,,,,,,,,,,,,,,,,,,,,,,,,,,,,,,,,,,,,,,,,,,,,,,,,,,,,,,,
,,6171165b0a955ac648f01d30,2026-03-17_16h08.58.738,kallum_motion_pilot_GIST_update_2,2026.1.1,Win32,30.03003003,6171165b0a955ac648f01d30,69b95efdef24cd8a694e89ee,69b9600b7c82187620f679d3,0.0427,0.0427,0,9,9,143,1,eightseven,,,,,,,,,,,,,,,,,,,,,,,,,,,,,,,,,,,,,,,,,,,,,,,,,,,,,,,,,,,,,,,,,,,,,,,,,,,,,,,,,,,,,,,,,,,,,,,,,,,,,,,,,,,,,,,,,,,,,,,,,,,,,,,,,,,,,,,,,
,,6171165b0a955ac648f01d30,2026-03-17_16h08.58.738,kallum_motion_pilot_GIST_update_2,2026.1.1,Win32,30.03003003,6171165b0a955ac648f01d30,69b95efdef24cd8a694e89ee,69b9600b7c82187620f679d3,0.0428,0.0428,0,10,10,58,1,twoone,,,,,,,,,,,,,,,,,,,,,,,,,,,,,,,,,,,,,,,,,,,,,,,,,,,,,,,,,,,,,,,,,,,,,,,,,,,,,,,,,,,,,,,,,,,,,,,,,,,,,,,,,,,,,,,,,,,,,,,,,,,,,,,,,,,,,,,,,
,,6171165b0a955ac648f01d30,2026-03-17_16h08.58.738,kallum_motion_pilot_GIST_update_2,2026.1.1,Win32,30.03003003,6171165b0a955ac648f01d30,69b95efdef24cd8a694e89ee,69b9600b7c82187620f679d3,0.0429,0.0429,0,11,11,92,1,sevenfive,,,,,,,,,,,,,,,,,,,,,,,,,,,,,,,,,,,,,,,,,,,,,,,,,,,,,,,,,,,,,,,,,,,,,,,,,,,,,,,,,,,,,,,,,,,,,,,,,,,,,,,,,,,,,,,,,,,,,,,,,,,,,,,,,,,,,,,,,
,,6171165b0a955ac648f01d30,2026-03-17_16h08.58.738,kallum_motion_pilot_GIST_update_2,2026.1.1,Win32,30.03003003,6171165b0a955ac648f01d30,69b95efdef24cd8a694e89ee,69b9600b7c82187620f679d3,0.043,0.0431,0,12,12,118,1,eightsix,,,,,,,,,,,,,,,,,,,,,,,,,,,,,,,,,,,,,,,,,,,,,,,,,,,,,,,,,,,,,,,,,,,,,,,,,,,,,,,,,,,,,,,,,,,,,,,,,,,,,,,,,,,,,,,,,,,,,,,,,,,,,,,,,,,,,,,,,
,,6171165b0a955ac648f01d30,2026-03-17_16h08.58.738,kallum_motion_pilot_GIST_update_2,2026.1.1,Win32,30.03003003,6171165b0a955ac648f01d30,69b95efdef24cd8a694e89ee,69b9600b7c82187620f679d3,0.0431,0.0432,0,13,13,11,1,twofour,,,,,,,,,,,,,,,,,,,,,,,,,,,,,,,,,,,,,,,,,,,,,,,,,,,,,,,,,,,,,,,,,,,,,,,,,,,,,,,,,,,,,,,,,,,,,,,,,,,,,,,,,,,,,,,,,,,,,,,,,,,,,,,,,,,,,,,,,
,,6171165b0a955ac648f01d30,2026-03-17_16h08.58.738,kallum_motion_pilot_GIST_update_2,2026.1.1,Win32,30.03003003,6171165b0a955ac648f01d30,69b95efdef24cd8a694e89ee,69b9600b7c82187620f679d3,0.0432,0.0432,0,14,14,46,1,fourtwo,,,,,,,,,,,,,,,,,,,,,,,,,,,,,,,,,,,,,,,,,,,,,,,,,,,,,,,,,,,,,,,,,,,,,,,,,,,,,,,,,,,,,,,,,,,,,,,,,,,,,,,,,,,,,,,,,,,,,,,,,,,,,,,,,,,,,,,,,
,,6171165b0a955ac648f01d30,2026-03-17_16h08.58.738,kallum_motion_pilot_GIST_update_2,2026.1.1,Win32,30.03003003,6171165b0a955ac648f01d30,69b95efdef24cd8a694e89ee,69b9600b7c82187620f679d3,0.0433,0.0433,0,15,15,62,1,fourtwo,,,,,,,,,,,,,,,,,,,,,,,,,,,,,,,,,,,,,,,,,,,,,,,,,,,,,,,,,,,,,,,,,,,,,,,,,,,,,,,,,,,,,,,,,,,,,,,,,,,,,,,,,,,,,,,,,,,,,,,,,,,,,,,,,,,,,,,,,
,,6171165b0a955ac648f01d30,2026-03-17_16h08.58.738,kallum_motion_pilot_GIST_update_2,2026.1.1,Win32,30.03003003,6171165b0a955ac648f01d30,69b95efdef24cd8a694e89ee,69b9600b7c82187620f679d3,0.0435,0.0435,0,16,16,156,1,sevenfive,,,,,,,,,,,,,,,,,,,,,,,,,,,,,,,,,,,,,,,,,,,,,,,,,,,,,,,,,,,,,,,,,,,,,,,,,,,,,,,,,,,,,,,,,,,,,,,,,,,,,,,,,,,,,,,,,,,,,,,,,,,,,,,,,,,,,,,,,
,,6171165b0a955ac648f01d30,2026-03-17_16h08.58.738,kallum_motion_pilot_GIST_update_2,2026.1.1,Win32,30.03003003,6171165b0a955ac648f01d30,69b95efdef24cd8a694e89ee,69b9600b7c82187620f679d3,0.0436,0.0437,0,17,17,74,1,twoone,,,,,,,,,,,,,,,,,,,,,,,,,,,,,,,,,,,,,,,,,,,,,,,,,,,,,,,,,,,,,,,,,,,,,,,,,,,,,,,,,,,,,,,,,,,,,,,,,,,,,,,,,,,,,,,,,,,,,,,,,,,,,,,,,,,,,,,,,
,,6171165b0a955ac648f01d30,2026-03-17_16h08.58.738,kallum_motion_pilot_GIST_update_2,2026.1.1,Win32,30.03003003,6171165b0a955ac648f01d30,69b95efdef24cd8a694e89ee,69b9600b7c82187620f679d3,0.0438,0.0438,0,18,18,77,1,threefour,,,,,,,,,,,,,,,,,,,,,,,,,,,,,,,,,,,,,,,,,,,,,,,,,,,,,,,,,,,,,,,,,,,,,,,,,,,,,,,,,,,,,,,,,,,,,,,,,,,,,,,,,,,,,,,,,,,,,,,,,,,,,,,,,,,,,,,,,
,,6171165b0a955ac648f01d30,2026-03-17_16h08.58.738,kallum_motion_pilot_GIST_update_2,2026.1.1,Win32,30.03003003,6171165b0a955ac648f01d30,69b95efdef24cd8a694e89ee,69b9600b7c82187620f679d3,0.0438,0.0438,0,19,19,144,1,fivesix,,,,,,,,,,,,,,,,,,,,,,,,,,,,,,,,,,,,,,,,,,,,,,,,,,,,,,,,,,,,,,,,,,,,,,,,,,,,,,,,,,,,,,,,,,,,,,,,,,,,,,,,,,,,,,,,,,,,,,,,,,,,,,,,,,,,,,,,,
,,6171165b0a955ac648f01d30,2026-03-17_16h08.58.738,kallum_motion_pilot_GIST_update_2,2026.1.1,Win32,30.03003003,6171165b0a955ac648f01d30,69b95efdef24cd8a694e89ee,69b9600b7c82187620f679d3,0.044,0.044,0,20,20,66,1,twoone,,,,,,,,,,,,,,,,,,,,,,,,,,,,,,,,,,,,,,,,,,,,,,,,,,,,,,,,,,,,,,,,,,,,,,,,,,,,,,,,,,,,,,,,,,,,,,,,,,,,,,,,,,,,,,,,,,,,,,,,,,,,,,,,,,,,,,,,,
,,6171165b0a955ac648f01d30,2026-03-17_16h08.58.738,kallum_motion_pilot_GIST_update_2,2026.1.1,Win32,30.03003003,6171165b0a955ac648f01d30,69b95efdef24cd8a694e89ee,69b9600b7c82187620f679d3,0.0441,0.0441,0,21,21,91,1,sixeight,,,,,,,,,,,,,,,,,,,,,,,,,,,,,,,,,,,,,,,,,,,,,,,,,,,,,,,,,,,,,,,,,,,,,,,,,,,,,,,,,,,,,,,,,,,,,,,,,,,,,,,,,,,,,,,,,,,,,,,,,,,,,,,,,,,,,,,,,
,,6171165b0a955ac648f01d30,2026-03-17_16h08.58.738,kallum_motion_pilot_GIST_update_2,2026.1.1,Win32,30.03003003,6171165b0a955ac648f01d30,69b95efdef24cd8a694e89ee,69b9600b7c82187620f679d3,0.0442,0.0442,0,22,22,93,1,seveneight,,,,,,,,,,,,,,,,,,,,,,,,,,,,,,,,,,,,,,,,,,,,,,,,,,,,,,,,,,,,,,,,,,,,,,,,,,,,,,,,,,,,,,,,,,,,,,,,,,,,,,,,,,,,,,,,,,,,,,,,,,,,,,,,,,,,,,,,,
,,6171165b0a955ac648f01d30,2026-03-17_16h08.58.738,kallum_motion_pilot_GIST_update_2,2026.1.1,Win32,30.03003003,6171165b0a955ac648f01d30,69b95efdef24cd8a694e89ee,69b9600b7c82187620f679d3,0.0444,0.0444,0,23,23,14,1,fourtwo,,,,,,,,,,,,,,,,,,,,,,,,,,,,,,,,,,,,,,,,,,,,,,,,,,,,,,,,,,,,,,,,,,,,,,,,,,,,,,,,,,,,,,,,,,,,,,,,,,,,,,,,,,,,,,,,,,,,,,,,,,,,,,,,,,,,,,,,,
,,6171165b0a955ac648f01d30,2026-03-17_16h08.58.738,kallum_motion_pilot_GIST_update_2,2026.1.1,Win32,30.03003003,6171165b0a955ac648f01d30,69b95efdef24cd8a694e89ee,69b9600b7c82187620f679d3,0.0444,0.0444,0,24,24,88,1,fivesix,,,,,,,,,,,,,,,,,,,,,,,,,,,,,,,,,,,,,,,,,,,,,,,,,,,,,,,,,,,,,,,,,,,,,,,,,,,,,,,,,,,,,,,,,,,,,,,,,,,,,,,,,,,,,,,,,,,,,,,,,,,,,,,,,,,,,,,,,
,,6171165b0a955ac648f01d30,2026-03-17_16h08.58.738,kallum_motion_pilot_GIST_update_2,2026.1.1,Win32,30.03003003,6171165b0a955ac648f01d30,69b95efdef24cd8a694e89ee,69b9600b7c82187620f679d3,0.0451,0.0451,0,25,25,146,1,sixfive,,,,,,,,,,,,,,,,,,,,,,,,,,,,,,,,,,,,,,,,,,,,,,,,,,,,,,,,,,,,,,,,,,,,,,,,,,,,,,,,,,,,,,,,,,,,,,,,,,,,,,,,,,,,,,,,,,,,,,,,,,,,,,,,,,,,,,,,,
,,6171165b0a955ac648f01d30,2026-03-17_16h08.58.738,kallum_motion_pilot_GIST_update_2,2026.1.1,Win32,30.03003003,6171165b0a955ac648f01d30,69b95efdef24cd8a694e89ee,69b9600b7c82187620f679d3,0.0454,0.0455,0,26,26,47,1,fourthree,,,,,,,,,,,,,,,,,,,,,,,,,,,,,,,,,,,,,,,,,,,,,,,,,,,,,,,,,,,,,,,,,,,,,,,,,,,,,,,,,,,,,,,,,,,,,,,,,,,,,,,,,,,,,,,,,,,,,,,,,,,,,,,,,,,,,,,,,
,,6171165b0a955ac648f01d30,2026-03-17_16h08.58.738,kallum_motion_pilot_GIST_update_2,2026.1.1,Win32,30.03003003,6171165b0a955ac648f01d30,69b95efdef24cd8a694e89ee,69b9600b7c82187620f679d3,0.0457,0.0458,0,27,27,23,1,fourthree,,,,,,,,,,,,,,,,,,,,,,,,,,,,,,,,,,,,,,,,,,,,,,,,,,,,,,,,,,,,,,,,,,,,,,,,,,,,,,,,,,,,,,,,,,,,,,,,,,,,,,,,,,,,,,,,,,,,,,,,,,,,,,,,,,,,,,,,,
,,6171165b0a955ac648f01d30,2026-03-17_16h08.58.738,kallum_motion_pilot_GIST_update_2,2026.1.1,Win32,30.03003003,6171165b0a955ac648f01d30,69b95efdef24cd8a694e89ee,69b9600b7c82187620f679d3,0.046,0.046,0,28,28,106,1,sixfive,,,,,,,,,,,,,,,,,,,,,,,,,,,,,,,,,,,,,,,,,,,,,,,,,,,,,,,,,,,,,,,,,,,,,,,,,,,,,,,,,,,,,,,,,,,,,,,,,,,,,,,,,,,,,,,,,,,,,,,,,,,,,,,,,,,,,,,,,
,,6171165b0a955ac648f01d30,2026-03-17_16h08.58.738,kallum_motion_pilot_GIST_update_2,2026.1.1,Win32,30.03003003,6171165b0a955ac648f01d30,69b95efdef24cd8a694e89ee,69b9600b7c82187620f679d3,0.046,0.046,0,29,29,18,1,twoone,,,,,,,,,,,,,,,,,,,,,,,,,,,,,,,,,,,,,,,,,,,,,,,,,,,,,,,,,,,,,,,,,,,,,,,,,,,,,,,,,,,,,,,,,,,,,,,,,,,,,,,,,,,,,,,,,,,,,,,,,,,,,,,,,,,,,,,,,
,,6171165b0a955ac648f01d30,2026-03-17_16h08.58.738,kallum_motion_pilot_GIST_update_2,2026.1.1,Win32,30.03003003,6171165b0a955ac648f01d30,69b95efdef24cd8a694e89ee,69b9600b7c82187620f679d3,0.0462,0.0462,0,30,30,159,1,eightseven,,,,,,,,,,,,,,,,,,,,,,,,,,,,,,,,,,,,,,,,,,,,,,,,,,,,,,,,,,,,,,,,,,,,,,,,,,,,,,,,,,,,,,,,,,,,,,,,,,,,,,,,,,,,,,,,,,,,,,,,,,,,,,,,,,,,,,,,,
,,6171165b0a955ac648f01d30,2026-03-17_16h08.58.738,kallum_motion_pilot_GIST_update_2,2026.1.1,Win32,30.03003003,6171165b0a955ac648f01d30,69b95efdef24cd8a694e89ee,69b9600b7c82187620f679d3,0.0463,0.0463,0,31,31,135,1,eightseven,,,,,,,,,,,,,,,,,,,,,,,,,,,,,,,,,,,,,,,,,,,,,,,,,,,,,,,,,,,,,,,,,,,,,,,,,,,,,,,,,,,,,,,,,,,,,,,,,,,,,,,,,,,,,,,,,,,,,,,,,,,,,,,,,,,,,,,,,
,,6171165b0a955ac648f01d30,2026-03-17_16h08.58.738,kallum_motion_pilot_GIST_update_2,2026.1.1,Win32,30.03003003,6171165b0a955ac648f01d30,69b95efdef24cd8a694e89ee,69b9600b7c82187620f679d3,0.0463,0.0463,0,32,32,39,1,fourthree,,,,,,,,,,,,,,,,,,,,,,,,,,,,,,,,,,,,,,,,,,,,,,,,,,,,,,,,,,,,,,,,,,,,,,,,,,,,,,,,,,,,,,,,,,,,,,,,,,,,,,,,,,,,,,,,,,,,,,,,,,,,,,,,,,,,,,,,,
,,6171165b0a955ac648f01d30,2026-03-17_16h08.58.738,kallum_motion_pilot_GIST_update_2,2026.1.1,Win32,30.03003003,6171165b0a955ac648f01d30,69b95efdef24cd8a694e89ee,69b9600b7c82187620f679d3,0.0464,0.0464,0,33,33,121,1,fiveseven,,,,,,,,,,,,,,,,,,,,,,,,,,,,,,,,,,,,,,,,,,,,,,,,,,,,,,,,,,,,,,,,,,,,,,,,,,,,,,,,,,,,,,,,,,,,,,,,,,,,,,,,,,,,,,,,,,,,,,,,,,,,,,,,,,,,,,,,,
,,6171165b0a955ac648f01d30,2026-03-17_16h08.58.738,kallum_motion_pilot_GIST_update_2,2026.1.1,Win32,30.03003003,6171165b0a955ac648f01d30,69b95efdef24cd8a694e89ee,69b9600b7c82187620f679d3,0.0466,0.0466,0,34,34,64,1,onetwo,,,,,,,,,,,,,,,,,,,,,,,,,,,,,,,,,,,,,,,,,,,,,,,,,,,,,,,,,,,,,,,,,,,,,,,,,,,,,,,,,,,,,,,,,,,,,,,,,,,,,,,,,,,,,,,,,,,,,,,,,,,,,,,,,,,,,,,,,
,,6171165b0a955ac648f01d30,2026-03-17_16h08.58.738,kallum_motion_pilot_GIST_update_2,2026.1.1,Win32,30.03003003,6171165b0a955ac648f01d30,69b95efdef24cd8a694e89ee,69b9600b7c82187620f679d3,0.0467,0.0467,0,35,35,113,1,fiveseven,,,,,,,,,,,,,,,,,,,,,,,,,,,,,,,,,,,,,,,,,,,,,,,,,,,,,,,,,,,,,,,,,,,,,,,,,,,,,,,,,,,,,,,,,,,,,,,,,,,,,,,,,,,,,,,,,,,,,,,,,,,,,,,,,,,,,,,,,
,,6171165b0a955ac648f01d30,2026-03-17_16h08.58.738,kallum_motion_pilot_GIST_update_2,2026.1.1,Win32,30.03003003,6171165b0a955ac648f01d30,69b95efdef24cd8a694e89ee,69b9600b7c82187620f679d3,0.0469,0.0469,0,36,36,57,1,onethree,,,,,,,,,,,,,,,,,,,,,,,,,,,,,,,,,,,,,,,,,,,,,,,,,,,,,,,,,,,,,,,,,,,,,,,,,,,,,,,,,,,,,,,,,,,,,,,,,,,,,,,,,,,,,,,,,,,,,,,,,,,,,,,,,,,,,,,,,
,,6171165b0a955ac648f01d30,2026-03-17_16h08.58.738,kallum_motion_pilot_GIST_update_2,2026.1.1,Win32,30.03003003,6171165b0a955ac648f01d30,69b95efdef24cd8a694e89ee,69b9600b7c82187620f679d3,0.0472,0.0472,0,37,37,125,1,seveneight,,,,,,,,,,,,,,,,,,,,,,,,,,,,,,,,,,,,,,,,,,,,,,,,,,,,,,,,,,,,,,,,,,,,,,,,,,,,,,,,,,,,,,,,,,,,,,,,,,,,,,,,,,,,,,,,,,,,,,,,,,,,,,,,,,,,,,,,,
,,6171165b0a955ac648f01d30,2026-03-17_16h08.58.738,kallum_motion_pilot_GIST_update_2,2026.1.1,Win32,30.03003003,6171165b0a955ac648f01d30,69b95efdef24cd8a694e89ee,69b9600b7c82187620f679d3,0.0474,0.0474,0,38,38,161,1,fiveseven,,,,,,,,,,,,,,,,,,,,,,,,,,,,,,,,,,,,,,,,,,,,,,,,,,,,,,,,,,,,,,,,,,,,,,,,,,,,,,,,,,,,,,,,,,,,,,,,,,,,,,,,,,,,,,,,,,,,,,,,,,,,,,,,,,,,,,,,,
,,6171165b0a955ac648f01d30,2026-03-17_16h08.58.738,kallum_motion_pilot_GIST_update_2,2026.1.1,Win32,30.03003003,6171165b0a955ac648f01d30,69b95efdef24cd8a694e89ee,69b9600b7c82187620f679d3,0.0475,0.0475,0,39,39,27,1,twofour,,,,,,,,,,,,,,,,,,,,,,,,,,,,,,,,,,,,,,,,,,,,,,,,,,,,,,,,,,,,,,,,,,,,,,,,,,,,,,,,,,,,,,,,,,,,,,,,,,,,,,,,,,,,,,,,,,,,,,,,,,,,,,,,,,,,,,,,,
,,6171165b0a955ac648f01d30,2026-03-17_16h08.58.738,kallum_motion_pilot_GIST_update_2,2026.1.1,Win32,30.03003003,6171165b0a955ac648f01d30,69b95efdef24cd8a694e89ee,69b9600b7c82187620f679d3,0.0477,0.0477,0,40,40,79,1,eightseven,,,,,,,,,,,,,,,,,,,,,,,,,,,,,,,,,,,,,,,,,,,,,,,,,,,,,,,,,,,,,,,,,,,,,,,,,,,,,,,,,,,,,,,,,,,,,,,,,,,,,,,,,,,,,,,,,,,,,,,,,,,,,,,,,,,,,,,,,
,,6171165b0a955ac648f01d30,2026-03-17_16h08.58.738,kallum_motion_pilot_GIST_update_2,2026.1.1,Win32,30.03003003,6171165b0a955ac648f01d30,69b95efdef24cd8a694e89ee,69b9600b7c82187620f679d3,0.0478,0.0478,0,41,41,103,1,eightseven,,,,,,,,,,,,,,,,,,,,,,,,,,,,,,,,,,,,,,,,,,,,,,,,,,,,,,,,,,,,,,,,,,,,,,,,,,,,,,,,,,,,,,,,,,,,,,,,,,,,,,,,,,,,,,,,,,,,,,,,,,,,,,,,,,,,,,,,,
,,6171165b0a955ac648f01d30,2026-03-17_16h08.58.738,kallum_motion_pilot_GIST_update_2,2026.1.1,Win32,30.03003003,6171165b0a955ac648f01d30,69b95efdef24cd8a694e89ee,69b9600b7c82187620f679d3,0.0481,0.0481,0,42,42,82,1,sixfive,,,,,,,,,,,,,,,,,,,,,,,,,,,,,,,,,,,,,,,,,,,,,,,,,,,,,,,,,,,,,,,,,,,,,,,,,,,,,,,,,,,,,,,,,,,,,,,,,,,,,,,,,,,,,,,,,,,,,,,,,,,,,,,,,,,,,,,,,
,,6171165b0a955ac648f01d30,2026-03-17_16h08.58.738,kallum_motion_pilot_GIST_update_2,2026.1.1,Win32,30.03003003,6171165b0a955ac648f01d30,69b95efdef24cd8a694e89ee,69b9600b7c82187620f679d3,0.0482,0.0482,0,43,43,12,1,threeone,,,,,,,,,,,,,,,,,,,,,,,,,,,,,,,,,,,,,,,,,,,,,,,,,,,,,,,,,,,,,,,,,,,,,,,,,,,,,,,,,,,,,,,,,,,,,,,,,,,,,,,,,,,,,,,,,,,,,,,,,,,,,,,,,,,,,,,,,
,,6171165b0a955ac648f01d30,2026-03-17_16h08.58.738,kallum_motion_pilot_GIST_update_2,2026.1.1,Win32,30.03003003,6171165b0a955ac648f01d30,69b95efdef24cd8a694e89ee,69b9600b7c82187620f679d3,0.0484,0.0484,0,44,44,24,1,onetwo,,,,,,,,,,,,,,,,,,,,,,,,,,,,,,,,,,,,,,,,,,,,,,,,,,,,,,,,,,,,,,,,,,,,,,,,,,,,,,,,,,,,,,,,,,,,,,,,,,,,,,,,,,,,,,,,,,,,,,,,,,,,,,,,,,,,,,,,,
,,6171165b0a955ac648f01d30,2026-03-17_16h08.58.738,kallum_motion_pilot_GIST_update_2,2026.1.1,Win32,30.03003003,6171165b0a955ac648f01d30,69b95efdef24cd8a694e89ee,69b9600b7c82187620f679d3,0.0486,0.0486,0,45,45,56,1,onetwo,,,,,,,,,,,,,,,,,,,,,,,,,,,,,,,,,,,,,,,,,,,,,,,,,,,,,,,,,,,,,,,,,,,,,,,,,,,,,,,,,,,,,,,,,,,,,,,,,,,,,,,,,,,,,,,,,,,,,,,,,,,,,,,,,,,,,,,,,
,,6171165b0a955ac648f01d30,2026-03-17_16h08.58.738,kallum_motion_pilot_GIST_update_2,2026.1.1,Win32,30.03003003,6171165b0a955ac648f01d30,69b95efdef24cd8a694e89ee,69b9600b7c82187620f679d3,0.0487,0.0487,0,46,46,19,1,twofour,,,,,,,,,,,,,,,,,,,,,,,,,,,,,,,,,,,,,,,,,,,,,,,,,,,,,,,,,,,,,,,,,,,,,,,,,,,,,,,,,,,,,,,,,,,,,,,,,,,,,,,,,,,,,,,,,,,,,,,,,,,,,,,,,,,,,,,,,
,,6171165b0a955ac648f01d30,2026-03-17_16h08.58.738,kallum_motion_pilot_GIST_update_2,2026.1.1,Win32,30.03003003,6171165b0a955ac648f01d30,69b95efdef24cd8a694e89ee,69b9600b7c82187620f679d3,0.0489,0.0489,0,47,47,52,1,threeone,,,,,,,,,,,,,,,,,,,,,,,,,,,,,,,,,,,,,,,,,,,,,,,,,,,,,,,,,,,,,,,,,,,,,,,,,,,,,,,,,,,,,,,,,,,,,,,,,,,,,,,,,,,,,,,,,,,,,,,,,,,,,,,,,,,,,,,,,
,,6171165b0a955ac648f01d30,2026-03-17_16h08.58.738,kallum_motion_pilot_GIST_update_2,2026.1.1,Win32,30.03003003,6171165b0a955ac648f01d30,69b95efdef24cd8a694e89ee,69b9600b7c82187620f679d3,0.049,0.0491,0,48,48,130,1,sixfive,,,,,,,,,,,,,,,,,,,,,,,,,,,,,,,,,,,,,,,,,,,,,,,,,,,,,,,,,,,,,,,,,,,,,,,,,,,,,,,,,,,,,,,,,,,,,,,,,,,,,,,,,,,,,,,,,,,,,,,,,,,,,,,,,,,,,,,,,
,,6171165b0a955ac648f01d30,2026-03-17_16h08.58.738,kallum_motion_pilot_GIST_update_2,2026.1.1,Win32,30.03003003,6171165b0a955ac648f01d30,69b95efdef24cd8a694e89ee,69b9600b7c82187620f679d3,0.0491,0.0492,0,49,49,7,1,fourthree,,,,,,,,,,,,,,,,,,,,,,,,,,,,,,,,,,,,,,,,,,,,,,,,,,,,,,,,,,,,,,,,,,,,,,,,,,,,,,,,,,,,,,,,,,,,,,,,,,,,,,,,,,,,,,,,,,,,,,,,,,,,,,,,,,,,,,,,,
,,6171165b0a955ac648f01d30,2026-03-17_16h08.58.738,kallum_motion_pilot_GIST_update_2,2026.1.1,Win32,30.03003003,6171165b0a955ac648f01d30,69b95efdef24cd8a694e89ee,69b9600b7c82187620f679d3,0.0494,0.0494,0,50,50,149,1,seveneight,,,,,,,,,,,,,,,,,,,,,,,,,,,,,,,,,,,,,,,,,,,,,,,,,,,,,,,,,,,,,,,,,,,,,,,,,,,,,,,,,,,,,,,,,,,,,,,,,,,,,,,,,,,,,,,,,,,,,,,,,,,,,,,,,,,,,,,,,
,,6171165b0a955ac648f01d30,2026-03-17_16h08.58.738,kallum_motion_pilot_GIST_update_2,2026.1.1,Win32,30.03003003,6171165b0a955ac648f01d30,69b95efdef24cd8a694e89ee,69b9600b7c82187620f679d3,0.0496,0.0496,0,51,51,132,1,sevenfive,,,,,,,,,,,,,,,,,,,,,,,,,,,,,,,,,,,,,,,,,,,,,,,,,,,,,,,,,,,,,,,,,,,,,,,,,,,,,,,,,,,,,,,,,,,,,,,,,,,,,,,,,,,,,,,,,,,,,,,,,,,,,,,,,,,,,,,,,
,,6171165b0a955ac648f01d30,2026-03-17_16h08.58.738,kallum_motion_pilot_GIST_update_2,2026.1.1,Win32,30.03003003,6171165b0a955ac648f01d30,69b95efdef24cd8a694e89ee,69b9600b7c82187620f679d3,0.0497,0.0497,0,52,52,31,1,fourthree,,,,,,,,,,,,,,,,,,,,,,,,,,,,,,,,,,,,,,,,,,,,,,,,,,,,,,,,,,,,,,,,,,,,,,,,,,,,,,,,,,,,,,,,,,,,,,,,,,,,,,,,,,,,,,,,,,,,,,,,,,,,,,,,,,,,,,,,,
,,6171165b0a955ac648f01d30,2026-03-17_16h08.58.738,kallum_motion_pilot_GIST_update_2,2026.1.1,Win32,30.03003003,6171165b0a955ac648f01d30,69b95efdef24cd8a694e89ee,69b9600b7c82187620f679d3,0.0498,0.0498,0,53,53,160,1,fivesix,,,,,,,,,,,,,,,,,,,,,,,,,,,,,,,,,,,,,,,,,,,,,,,,,,,,,,,,,,,,,,,,,,,,,,,,,,,,,,,,,,,,,,,,,,,,,,,,,,,,,,,,,,,,,,,,,,,,,,,,,,,,,,,,,,,,,,,,,
,,6171165b0a955ac648f01d30,2026-03-17_16h08.58.738,kallum_motion_pilot_GIST_update_2,2026.1.1,Win32,30.03003003,6171165b0a955ac648f01d30,69b95efdef24cd8a694e89ee,69b9600b7c82187620f679d3,0.0499,0.0499,0,54,54,151,1,eightseven,,,,,,,,,,,,,,,,,,,,,,,,,,,,,,,,,,,,,,,,,,,,,,,,,,,,,,,,,,,,,,,,,,,,,,,,,,,,,,,,,,,,,,,,,,,,,,,,,,,,,,,,,,,,,,,,,,,,,,,,,,,,,,,,,,,,,,,,,
,,6171165b0a955ac648f01d30,2026-03-17_16h08.58.738,kallum_motion_pilot_GIST_update_2,2026.1.1,Win32,30.03003003,6171165b0a955ac648f01d30,69b95efdef24cd8a694e89ee,69b9600b7c82187620f679d3,0.05,0.05,0,55,55,85,1,seveneight,,,,,,,,,,,,,,,,,,,,,,,,,,,,,,,,,,,,,,,,,,,,,,,,,,,,,,,,,,,,,,,,,,,,,,,,,,,,,,,,,,,,,,,,,,,,,,,,,,,,,,,,,,,,,,,,,,,,,,,,,,,,,,,,,,,,,,,,,
,,6171165b0a955ac648f01d30,2026-03-17_16h08.58.738,kallum_motion_pilot_GIST_update_2,2026.1.1,Win32,30.03003003,6171165b0a955ac648f01d30,69b95efdef24cd8a694e89ee,69b9600b7c82187620f679d3,0.0501,0.0501,0,56,56,49,1,onethree,,,,,,,,,,,,,,,,,,,,,,,,,,,,,,,,,,,,,,,,,,,,,,,,,,,,,,,,,,,,,,,,,,,,,,,,,,,,,,,,,,,,,,,,,,,,,,,,,,,,,,,,,,,,,,,,,,,,,,,,,,,,,,,,,,,,,,,,,
,,6171165b0a955ac648f01d30,2026-03-17_16h08.58.738,kallum_motion_pilot_GIST_update_2,2026.1.1,Win32,30.03003003,6171165b0a955ac648f01d30,69b95efdef24cd8a694e89ee,69b9600b7c82187620f679d3,0.0503,0.0503,0,57,57,63,1,fourthree,,,,,,,,,,,,,,,,,,,,,,,,,,,,,,,,,,,,,,,,,,,,,,,,,,,,,,,,,,,,,,,,,,,,,,,,,,,,,,,,,,,,,,,,,,,,,,,,,,,,,,,,,,,,,,,,,,,,,,,,,,,,,,,,,,,,,,,,,
,,6171165b0a955ac648f01d30,2026-03-17_16h08.58.738,kallum_motion_pilot_GIST_update_2,2026.1.1,Win32,30.03003003,6171165b0a955ac648f01d30,69b95efdef24cd8a694e89ee,69b9600b7c82187620f679d3,0.0503,0.0503,0,58,58,42,1,twoone,,,,,,,,,,,,,,,,,,,,,,,,,,,,,,,,,,,,,,,,,,,,,,,,,,,,,,,,,,,,,,,,,,,,,,,,,,,,,,,,,,,,,,,,,,,,,,,,,,,,,,,,,,,,,,,,,,,,,,,,,,,,,,,,,,,,,,,,,
,,6171165b0a955ac648f01d30,2026-03-17_16h08.58.738,kallum_motion_pilot_GIST_update_2,2026.1.1,Win32,30.03003003,6171165b0a955ac648f01d30,69b95efdef24cd8a694e89ee,69b9600b7c82187620f679d3,0.0505,0.0506,0,59,59,8,1,onetwo,,,,,,,,,,,,,,,,,,,,,,,,,,,,,,,,,,,,,,,,,,,,,,,,,,,,,,,,,,,,,,,,,,,,,,,,,,,,,,,,,,,,,,,,,,,,,,,,,,,,,,,,,,,,,,,,,,,,,,,,,,,,,,,,,,,,,,,,,
,,6171165b0a955ac648f01d30,2026-03-17_16h08.58.738,kallum_motion_pilot_GIST_update_2,2026.1.1,Win32,30.03003003,6171165b0a955ac648f01d30,69b95efdef24cd8a694e89ee,69b9600b7c82187620f679d3,0.0506,0.0506,0,60,60,70,1,fourtwo,,,,,,,,,,,,,,,,,,,,,,,,,,,,,,,,,,,,,,,,,,,,,,,,,,,,,,,,,,,,,,,,,,,,,,,,,,,,,,,,,,,,,,,,,,,,,,,,,,,,,,,,,,,,,,,,,,,,,,,,,,,,,,,,,,,,,,,,,
,,6171165b0a955ac648f01d30,2026-03-17_16h08.58.738,kallum_motion_pilot_GIST_update_2,2026.1.1,Win32,30.03003003,6171165b0a955ac648f01d30,69b95efdef24cd8a694e89ee,69b9600b7c82187620f679d3,0.0507,0.0507,0,61,61,20,1,threeone,,,,,,,,,,,,,,,,,,,,,,,,,,,,,,,,,,,,,,,,,,,,,,,,,,,,,,,,,,,,,,,,,,,,,,,,,,,,,,,,,,,,,,,,,,,,,,,,,,,,,,,,,,,,,,,,,,,,,,,,,,,,,,,,,,,,,,,,,
,,6171165b0a955ac648f01d30,2026-03-17_16h08.58.738,kallum_motion_pilot_GIST_update_2,2026.1.1,Win32,30.03003003,6171165b0a955ac648f01d30,69b95efdef24cd8a694e89ee,69b9600b7c82187620f679d3,0.0508,0.0508,0,62,62,60,1,threeone,,,,,,,,,,,,,,,,,,,,,,,,,,,,,,,,,,,,,,,,,,,,,,,,,,,,,,,,,,,,,,,,,,,,,,,,,,,,,,,,,,,,,,,,,,,,,,,,,,,,,,,,,,,,,,,,,,,,,,,,,,,,,,,,,,,,,,,,,
,,6171165b0a955ac648f01d30,2026-03-17_16h08.58.738,kallum_motion_pilot_GIST_update_2,2026.1.1,Win32,30.03003003,6171165b0a955ac648f01d30,69b95efdef24cd8a694e89ee,69b9600b7c82187620f679d3,0.0509,0.0509,0,63,63,115,1,sixeight,,,,,,,,,,,,,,,,,,,,,,,,,,,,,,,,,,,,,,,,,,,,,,,,,,,,,,,,,,,,,,,,,,,,,,,,,,,,,,,,,,,,,,,,,,,,,,,,,,,,,,,,,,,,,,,,,,,,,,,,,,,,,,,,,,,,,,,,,
,,6171165b0a955ac648f01d30,2026-03-17_16h08.58.738,kallum_motion_pilot_GIST_update_2,2026.1.1,Win32,30.03003003,6171165b0a955ac648f01d30,69b95efdef24cd8a694e89ee,69b9600b7c82187620f679d3,0.051,0.051,0,64,64,15,1,fourthree,,,,,,,,,,,,,,,,,,,,,,,,,,,,,,,,,,,,,,,,,,,,,,,,,,,,,,,,,,,,,,,,,,,,,,,,,,,,,,,,,,,,,,,,,,,,,,,,,,,,,,,,,,,,,,,,,,,,,,,,,,,,,,,,,,,,,,,,,
,,6171165b0a955ac648f01d30,2026-03-17_16h08.58.738,kallum_motion_pilot_GIST_update_2,2026.1.1,Win32,30.03003003,6171165b0a955ac648f01d30,69b95efdef24cd8a694e89ee,69b9600b7c82187620f679d3,0.051,0.051,0,65,65,65,1,onethree,,,,,,,,,,,,,,,,,,,,,,,,,,,,,,,,,,,,,,,,,,,,,,,,,,,,,,,,,,,,,,,,,,,,,,,,,,,,,,,,,,,,,,,,,,,,,,,,,,,,,,,,,,,,,,,,,,,,,,,,,,,,,,,,,,,,,,,,,
,,6171165b0a955ac648f01d30,2026-03-17_16h08.58.738,kallum_motion_pilot_GIST_update_2,2026.1.1,Win32,30.03003003,6171165b0a955ac648f01d30,69b95efdef24cd8a694e89ee,69b9600b7c82187620f679d3,0.0512,0.0513,0,66,66,10,1,twoone,,,,,,,,,,,,,,,,,,,,,,,,,,,,,,,,,,,,,,,,,,,,,,,,,,,,,,,,,,,,,,,,,,,,,,,,,,,,,,,,,,,,,,,,,,,,,,,,,,,,,,,,,,,,,,,,,,,,,,,,,,,,,,,,,,,,,,,,,
,,6171165b0a955ac648f01d30,2026-03-17_16h08.58.738,kallum_motion_pilot_GIST_update_2,2026.1.1,Win32,30.03003003,6171165b0a955ac648f01d30,69b95efdef24cd8a694e89ee,69b9600b7c82187620f679d3,0.0518,0.0518,0,67,67,36,1,threeone,,,,,,,,,,,,,,,,,,,,,,,,,,,,,,,,,,,,,,,,,,,,,,,,,,,,,,,,,,,,,,,,,,,,,,,,,,,,,,,,,,,,,,,,,,,,,,,,,,,,,,,,,,,,,,,,,,,,,,,,,,,,,,,,,,,,,,,,,
,,6171165b0a955ac648f01d30,2026-03-17_16h08.58.738,kallum_motion_pilot_GIST_update_2,2026.1.1,Win32,30.03003003,6171165b0a955ac648f01d30,69b95efdef24cd8a694e89ee,69b9600b7c82187620f679d3,0.0522,0.0522,0,68,68,38,1,fourtwo,,,,,,,,,,,,,,,,,,,,,,,,,,,,,,,,,,,,,,,,,,,,,,,,,,,,,,,,,,,,,,,,,,,,,,,,,,,,,,,,,,,,,,,,,,,,,,,,,,,,,,,,,,,,,,,,,,,,,,,,,,,,,,,,,,,,,,,,,
,,6171165b0a955ac648f01d30,2026-03-17_16h08.58.738,kallum_motion_pilot_GIST_update_2,2026.1.1,Win32,30.03003003,6171165b0a955ac648f01d30,69b95efdef24cd8a694e89ee,69b9600b7c82187620f679d3,0.0524,0.0524,0,69,69,30,1,fourtwo,,,,,,,,,,,,,,,,,,,,,,,,,,,,,,,,,,,,,,,,,,,,,,,,,,,,,,,,,,,,,,,,,,,,,,,,,,,,,,,,,,,,,,,,,,,,,,,,,,,,,,,,,,,,,,,,,,,,,,,,,,,,,,,,,,,,,,,,,
,,6171165b0a955ac648f01d30,2026-03-17_16h08.58.738,kallum_motion_pilot_GIST_update_2,2026.1.1,Win32,30.03003003,6171165b0a955ac648f01d30,69b95efdef24cd8a694e89ee,69b9600b7c82187620f679d3,0.0526,0.0526,0,70,70,81,1,fiveseven,,,,,,,,,,,,,,,,,,,,,,,,,,,,,,,,,,,,,,,,,,,,,,,,,,,,,,,,,,,,,,,,,,,,,,,,,,,,,,,,,,,,,,,,,,,,,,,,,,,,,,,,,,,,,,,,,,,,,,,,,,,,,,,,,,,,,,,,,
,,6171165b0a955ac648f01d30,2026-03-17_16h08.58.738,kallum_motion_pilot_GIST_update_2,2026.1.1,Win32,30.03003003,6171165b0a955ac648f01d30,69b95efdef24cd8a694e89ee,69b9600b7c82187620f679d3,0.0528,0.0528,0,71,71,3,1,twofour,,,,,,,,,,,,,,,,,,,,,,,,,,,,,,,,,,,,,,,,,,,,,,,,,,,,,,,,,,,,,,,,,,,,,,,,,,,,,,,,,,,,,,,,,,,,,,,,,,,,,,,,,,,,,,,,,,,,,,,,,,,,,,,,,,,,,,,,,
,,6171165b0a955ac648f01d30,2026-03-17_16h08.58.738,kallum_motion_pilot_GIST_update_2,2026.1.1,Win32,30.03003003,6171165b0a955ac648f01d30,69b95efdef24cd8a694e89ee,69b9600b7c82187620f679d3,0.0528,0.0528,0,72,72,40,1,onetwo,,,,,,,,,,,,,,,,,,,,,,,,,,,,,,,,,,,,,,,,,,,,,,,,,,,,,,,,,,,,,,,,,,,,,,,,,,,,,,,,,,,,,,,,,,,,,,,,,,,,,,,,,,,,,,,,,,,,,,,,,,,,,,,,,,,,,,,,,
,,6171165b0a955ac648f01d30,2026-03-17_16h08.58.738,kallum_motion_pilot_GIST_update_2,2026.1.1,Win32,30.03003003,6171165b0a955ac648f01d30,69b95efdef24cd8a694e89ee,69b9600b7c82187620f679d3,0.053,0.053,0,73,73,71,1,fourthree,,,,,,,,,,,,,,,,,,,,,,,,,,,,,,,,,,,,,,,,,,,,,,,,,,,,,,,,,,,,,,,,,,,,,,,,,,,,,,,,,,,,,,,,,,,,,,,,,,,,,,,,,,,,,,,,,,,,,,,,,,,,,,,,,,,,,,,,,
,,6171165b0a955ac648f01d30,2026-03-17_16h08.58.738,kallum_motion_pilot_GIST_update_2,2026.1.1,Win32,30.03003003,6171165b0a955ac648f01d30,69b95efdef24cd8a694e89ee,69b9600b7c82187620f679d3,0.053,0.0531,0,74,74,154,1,sixfive,,,,,,,,,,,,,,,,,,,,,,,,,,,,,,,,,,,,,,,,,,,,,,,,,,,,,,,,,,,,,,,,,,,,,,,,,,,,,,,,,,,,,,,,,,,,,,,,,,,,,,,,,,,,,,,,,,,,,,,,,,,,,,,,,,,,,,,,,
,,6171165b0a955ac648f01d30,2026-03-17_16h08.58.738,kallum_motion_pilot_GIST_update_2,2026.1.1,Win32,30.03003003,6171165b0a955ac648f01d30,69b95efdef24cd8a694e89ee,69b9600b7c82187620f679d3,0.0532,0.0532,0,75,75,114,1,sixfive,,,,,,,,,,,,,,,,,,,,,,,,,,,,,,,,,,,,,,,,,,,,,,,,,,,,,,,,,,,,,,,,,,,,,,,,,,,,,,,,,,,,,,,,,,,,,,,,,,,,,,,,,,,,,,,,,,,,,,,,,,,,,,,,,,,,,,,,,
,,6171165b0a955ac648f01d30,2026-03-17_16h08.58.738,kallum_motion_pilot_GIST_update_2,2026.1.1,Win32,30.03003003,6171165b0a955ac648f01d30,69b95efdef24cd8a694e89ee,69b9600b7c82187620f679d3,0.0534,0.0534,0,76,76,128,1,fivesix,,,,,,,,,,,,,,,,,,,,,,,,,,,,,,,,,,,,,,,,,,,,,,,,,,,,,,,,,,,,,,,,,,,,,,,,,,,,,,,,,,,,,,,,,,,,,,,,,,,,,,,,,,,,,,,,,,,,,,,,,,,,,,,,,,,,,,,,,
,,6171165b0a955ac648f01d30,2026-03-17_16h08.58.738,kallum_motion_pilot_GIST_update_2,2026.1.1,Win32,30.03003003,6171165b0a955ac648f01d30,69b95efdef24cd8a694e89ee,69b9600b7c82187620f679d3,0.0534,0.0534,0,77,77,84,1,sevenfive,,,,,,,,,,,,,,,,,,,,,,,,,,,,,,,,,,,,,,,,,,,,,,,,,,,,,,,,,,,,,,,,,,,,,,,,,,,,,,,,,,,,,,,,,,,,,,,,,,,,,,,,,,,,,,,,,,,,,,,,,,,,,,,,,,,,,,,,,
,,6171165b0a955ac648f01d30,2026-03-17_16h08.58.738,kallum_motion_pilot_GIST_update_2,2026.1.1,Win32,30.03003003,6171165b0a955ac648f01d30,69b95efdef24cd8a694e89ee,69b9600b7c82187620f679d3,0.0536,0.0536,0,78,78,102,1,eightsix,,,,,,,,,,,,,,,,,,,,,,,,,,,,,,,,,,,,,,,,,,,,,,,,,,,,,,,,,,,,,,,,,,,,,,,,,,,,,,,,,,,,,,,,,,,,,,,,,,,,,,,,,,,,,,,,,,,,,,,,,,,,,,,,,,,,,,,,,
,,6171165b0a955ac648f01d30,2026-03-17_16h08.58.738,kallum_motion_pilot_GIST_update_2,2026.1.1,Win32,30.03003003,6171165b0a955ac648f01d30,69b95efdef24cd8a694e89ee,69b9600b7c82187620f679d3,0.0537,0.0538,0,79,79,104,1,fivesix,,,,,,,,,,,,,,,,,,,,,,,,,,,,,,,,,,,,,,,,,,,,,,,,,,,,,,,,,,,,,,,,,,,,,,,,,,,,,,,,,,,,,,,,,,,,,,,,,,,,,,,,,,,,,,,,,,,,,,,,,,,,,,,,,,,,,,,,,
,,6171165b0a955ac648f01d30,2026-03-17_16h08.58.738,kallum_motion_pilot_GIST_update_2,2026.1.1,Win32,30.03003003,6171165b0a955ac648f01d30,69b95efdef24cd8a694e89ee,69b9600b7c82187620f679d3,0.0538,0.0538,0,80,80,122,1,sixfive,,,,,,,,,,,,,,,,,,,,,,,,,,,,,,,,,,,,,,,,,,,,,,,,,,,,,,,,,,,,,,,,,,,,,,,,,,,,,,,,,,,,,,,,,,,,,,,,,,,,,,,,,,,,,,,,,,,,,,,,,,,,,,,,,,,,,,,,,
,,6171165b0a955ac648f01d30,2026-03-17_16h08.58.738,kallum_motion_pilot_GIST_update_2,2026.1.1,Win32,30.03003003,6171165b0a955ac648f01d30,69b95efdef24cd8a694e89ee,69b9600b7c82187620f679d3,0.054,0.054,0,81,81,153,1,fiveseven,,,,,,,,,,,,,,,,,,,,,,,,,,,,,,,,,,,,,,,,,,,,,,,,,,,,,,,,,,,,,,,,,,,,,,,,,,,,,,,,,,,,,,,,,,,,,,,,,,,,,,,,,,,,,,,,,,,,,,,,,,,,,,,,,,,,,,,,,
,,6171165b0a955ac648f01d30,2026-03-17_16h08.58.738,kallum_motion_pilot_GIST_update_2,2026.1.1,Win32,30.03003003,6171165b0a955ac648f01d30,69b95efdef24cd8a694e89ee,69b9600b7c82187620f679d3,0.0542,0.0542,0,82,82,150,1,eightsix,,,,,,,,,,,,,,,,,,,,,,,,,,,,,,,,,,,,,,,,,,,,,,,,,,,,,,,,,,,,,,,,,,,,,,,,,,,,,,,,,,,,,,,,,,,,,,,,,,,,,,,,,,,,,,,,,,,,,,,,,,,,,,,,,,,,,,,,,
,,6171165b0a955ac648f01d30,2026-03-17_16h08.58.738,kallum_motion_pilot_GIST_update_2,2026.1.1,Win32,30.03003003,6171165b0a955ac648f01d30,69b95efdef24cd8a694e89ee,69b9600b7c82187620f679d3,0.0544,0.0544,0,83,83,98,1,sixfive,,,,,,,,,,,,,,,,,,,,,,,,,,,,,,,,,,,,,,,,,,,,,,,,,,,,,,,,,,,,,,,,,,,,,,,,,,,,,,,,,,,,,,,,,,,,,,,,,,,,,,,,,,,,,,,,,,,,,,,,,,,,,,,,,,,,,,,,,
,,6171165b0a955ac648f01d30,2026-03-17_16h08.58.738,kallum_motion_pilot_GIST_update_2,2026.1.1,Win32,30.03003003,6171165b0a955ac648f01d30,69b95efdef24cd8a694e89ee,69b9600b7c82187620f679d3,0.0546,0.0546,0,84,84,109,1,seveneight,,,,,,,,,,,,,,,,,,,,,,,,,,,,,,,,,,,,,,,,,,,,,,,,,,,,,,,,,,,,,,,,,,,,,,,,,,,,,,,,,,,,,,,,,,,,,,,,,,,,,,,,,,,,,,,,,,,,,,,,,,,,,,,,,,,,,,,,,
,,6171165b0a955ac648f01d30,2026-03-17_16h08.58.738,kallum_motion_pilot_GIST_update_2,2026.1.1,Win32,30.03003003,6171165b0a955ac648f01d30,69b95efdef24cd8a694e89ee,69b9600b7c82187620f679d3,0.0547,0.0548,0,85,85,116,1,sevenfive,,,,,,,,,,,,,,,,,,,,,,,,,,,,,,,,,,,,,,,,,,,,,,,,,,,,,,,,,,,,,,,,,,,,,,,,,,,,,,,,,,,,,,,,,,,,,,,,,,,,,,,,,,,,,,,,,,,,,,,,,,,,,,,,,,,,,,,,,
,,6171165b0a955ac648f01d30,2026-03-17_16h08.58.738,kallum_motion_pilot_GIST_update_2,2026.1.1,Win32,30.03003003,6171165b0a955ac648f01d30,69b95efdef24cd8a694e89ee,69b9600b7c82187620f679d3,0.055,0.055,0,86,86,17,1,onethree,,,,,,,,,,,,,,,,,,,,,,,,,,,,,,,,,,,,,,,,,,,,,,,,,,,,,,,,,,,,,,,,,,,,,,,,,,,,,,,,,,,,,,,,,,,,,,,,,,,,,,,,,,,,,,,,,,,,,,,,,,,,,,,,,,,,,,,,,
,,6171165b0a955ac648f01d30,2026-03-17_16h08.58.738,kallum_motion_pilot_GIST_update_2,2026.1.1,Win32,30.03003003,6171165b0a955ac648f01d30,69b95efdef24cd8a694e89ee,69b9600b7c82187620f679d3,0.0552,0.0552,0,87,87,96,1,fivesix,,,,,,,,,,,,,,,,,,,,,,,,,,,,,,,,,,,,,,,,,,,,,,,,,,,,,,,,,,,,,,,,,,,,,,,,,,,,,,,,,,,,,,,,,,,,,,,,,,,,,,,,,,,,,,,,,,,,,,,,,,,,,,,,,,,,,,,,,
,,6171165b0a955ac648f01d30,2026-03-17_16h08.58.738,kallum_motion_pilot_GIST_update_2,2026.1.1,Win32,30.03003003,6171165b0a955ac648f01d30,69b95efdef24cd8a694e89ee,69b9600b7c82187620f679d3,0.0554,0.0554,0,88,88,16,1,onetwo,,,,,,,,,,,,,,,,,,,,,,,,,,,,,,,,,,,,,,,,,,,,,,,,,,,,,,,,,,,,,,,,,,,,,,,,,,,,,,,,,,,,,,,,,,,,,,,,,,,,,,,,,,,,,,,,,,,,,,,,,,,,,,,,,,,,,,,,,
,,6171165b0a955ac648f01d30,2026-03-17_16h08.58.738,kallum_motion_pilot_GIST_update_2,2026.1.1,Win32,30.03003003,6171165b0a955ac648f01d30,69b95efdef24cd8a694e89ee,69b9600b7c82187620f679d3,0.0556,0.0556,0,89,89,117,1,seveneight,,,,,,,,,,,,,,,,,,,,,,,,,,,,,,,,,,,,,,,,,,,,,,,,,,,,,,,,,,,,,,,,,,,,,,,,,,,,,,,,,,,,,,,,,,,,,,,,,,,,,,,,,,,,,,,,,,,,,,,,,,,,,,,,,,,,,,,,,
,,6171165b0a955ac648f01d30,2026-03-17_16h08.58.738,kallum_motion_pilot_GIST_update_2,2026.1.1,Win32,30.03003003,6171165b0a955ac648f01d30,69b95efdef24cd8a694e89ee,69b9600b7c82187620f679d3,0.0556,0.0557,0,90,90,80,1,fivesix,,,,,,,,,,,,,,,,,,,,,,,,,,,,,,,,,,,,,,,,,,,,,,,,,,,,,,,,,,,,,,,,,,,,,,,,,,,,,,,,,,,,,,,,,,,,,,,,,,,,,,,,,,,,,,,,,,,,,,,,,,,,,,,,,,,,,,,,,
,,6171165b0a955ac648f01d30,2026-03-17_16h08.58.738,kallum_motion_pilot_GIST_update_2,2026.1.1,Win32,30.03003003,6171165b0a955ac648f01d30,69b95efdef24cd8a694e89ee,69b9600b7c82187620f679d3,0.0558,0.0558,0,91,91,2,1,twoone,,,,,,,,,,,,,,,,,,,,,,,,,,,,,,,,,,,,,,,,,,,,,,,,,,,,,,,,,,,,,,,,,,,,,,,,,,,,,,,,,,,,,,,,,,,,,,,,,,,,,,,,,,,,,,,,,,,,,,,,,,,,,,,,,,,,,,,,,
,,6171165b0a955ac648f01d30,2026-03-17_16h08.58.738,kallum_motion_pilot_GIST_update_2,2026.1.1,Win32,30.03003003,6171165b0a955ac648f01d30,69b95efdef24cd8a694e89ee,69b9600b7c82187620f679d3,0.056,0.056,0,92,92,131,1,sixeight,,,,,,,,,,,,,,,,,,,,,,,,,,,,,,,,,,,,,,,,,,,,,,,,,,,,,,,,,,,,,,,,,,,,,,,,,,,,,,,,,,,,,,,,,,,,,,,,,,,,,,,,,,,,,,,,,,,,,,,,,,,,,,,,,,,,,,,,,
,,6171165b0a955ac648f01d30,2026-03-17_16h08.58.738,kallum_motion_pilot_GIST_update_2,2026.1.1,Win32,30.03003003,6171165b0a955ac648f01d30,69b95efdef24cd8a694e89ee,69b9600b7c82187620f679d3,0.0561,0.0561,0,93,93,127,1,eightseven,,,,,,,,,,,,,,,,,,,,,,,,,,,,,,,,,,,,,,,,,,,,,,,,,,,,,,,,,,,,,,,,,,,,,,,,,,,,,,,,,,,,,,,,,,,,,,,,,,,,,,,,,,,,,,,,,,,,,,,,,,,,,,,,,,,,,,,,,
,,6171165b0a955ac648f01d30,2026-03-17_16h08.58.738,kallum_motion_pilot_GIST_update_2,2026.1.1,Win32,30.03003003,6171165b0a955ac648f01d30,69b95efdef24cd8a694e89ee,69b9600b7c82187620f679d3,0.0563,0.0563,0,94,94,90,1,sixfive,,,,,,,,,,,,,,,,,,,,,,,,,,,,,,,,,,,,,,,,,,,,,,,,,,,,,,,,,,,,,,,,,,,,,,,,,,,,,,,,,,,,,,,,,,,,,,,,,,,,,,,,,,,,,,,,,,,,,,,,,,,,,,,,,,,,,,,,,
,,6171165b0a955ac648f01d30,2026-03-17_16h08.58.738,kallum_motion_pilot_GIST_update_2,2026.1.1,Win32,30.03003003,6171165b0a955ac648f01d30,69b95efdef24cd8a694e89ee,69b9600b7c82187620f679d3,0.0564,0.0564,0,95,95,83,1,sixeight,,,,,,,,,,,,,,,,,,,,,,,,,,,,,,,,,,,,,,,,,,,,,,,,,,,,,,,,,,,,,,,,,,,,,,,,,,,,,,,,,,,,,,,,,,,,,,,,,,,,,,,,,,,,,,,,,,,,,,,,,,,,,,,,,,,,,,,,,
,,6171165b0a955ac648f01d30,2026-03-17_16h08.58.738,kallum_motion_pilot_GIST_update_2,2026.1.1,Win32,30.03003003,6171165b0a955ac648f01d30,69b95efdef24cd8a694e89ee,69b9600b7c82187620f679d3,0.0566,0.0567,0,96,96,152,1,fivesix,,,,,,,,,,,,,,,,,,,,,,,,,,,,,,,,,,,,,,,,,,,,,,,,,,,,,,,,,,,,,,,,,,,,,,,,,,,,,,,,,,,,,,,,,,,,,,,,,,,,,,,,,,,,,,,,,,,,,,,,,,,,,,,,,,,,,,,,,
,,6171165b0a955ac648f01d30,2026-03-17_16h08.58.738,kallum_motion_pilot_GIST_update_2,2026.1.1,Win32,30.03003003,6171165b0a955ac648f01d30,69b95efdef24cd8a694e89ee,69b9600b7c82187620f679d3,0.0568,0.0568,0,97,97,142,1,eightsix,,,,,,,,,,,,,,,,,,,,,,,,,,,,,,,,,,,,,,,,,,,,,,,,,,,,,,,,,,,,,,,,,,,,,,,,,,,,,,,,,,,,,,,,,,,,,,,,,,,,,,,,,,,,,,,,,,,,,,,,,,,,,,,,,,,,,,,,,
,,6171165b0a955ac648f01d30,2026-03-17_16h08.58.738,kallum_motion_pilot_GIST_update_2,2026.1.1,Win32,30.03003003,6171165b0a955ac648f01d30,69b95efdef24cd8a694e89ee,69b9600b7c82187620f679d3,0.0569,0.0569,0,98,98,44,1,threeone,,,,,,,,,,,,,,,,,,,,,,,,,,,,,,,,,,,,,,,,,,,,,,,,,,,,,,,,,,,,,,,,,,,,,,,,,,,,,,,,,,,,,,,,,,,,,,,,,,,,,,,,,,,,,,,,,,,,,,,,,,,,,,,,,,,,,,,,,
,,6171165b0a955ac648f01d30,2026-03-17_16h08.58.738,kallum_motion_pilot_GIST_update_2,2026.1.1,Win32,30.03003003,6171165b0a955ac648f01d30,69b95efdef24cd8a694e89ee,69b9600b7c82187620f679d3,0.0571,0.0572,0,99,99,21,1,threefour,,,,,,,,,,,,,,,,,,,,,,,,,,,,,,,,,,,,,,,,,,,,,,,,,,,,,,,,,,,,,,,,,,,,,,,,,,,,,,,,,,,,,,,,,,,,,,,,,,,,,,,,,,,,,,,,,,,,,,,,,,,,,,,,,,,,,,,,,
,,6171165b0a955ac648f01d30,2026-03-17_16h08.58.738,kallum_motion_pilot_GIST_update_2,2026.1.1,Win32,30.03003003,6171165b0a955ac648f01d30,69b95efdef24cd8a694e89ee,69b9600b7c82187620f679d3,0.0575,0.0575,0,100,100,43,1,twofour,,,,,,,,,,,,,,,,,,,,,,,,,,,,,,,,,,,,,,,,,,,,,,,,,,,,,,,,,,,,,,,,,,,,,,,,,,,,,,,,,,,,,,,,,,,,,,,,,,,,,,,,,,,,,,,,,,,,,,,,,,,,,,,,,,,,,,,,,
,,6171165b0a955ac648f01d30,2026-03-17_16h08.58.738,kallum_motion_pilot_GIST_update_2,2026.1.1,Win32,30.03003003,6171165b0a955ac648f01d30,69b95efdef24cd8a694e89ee,69b9600b7c82187620f679d3,0.0577,0.0577,0,101,101,100,1,sevenfive,,,,,,,,,,,,,,,,,,,,,,,,,,,,,,,,,,,,,,,,,,,,,,,,,,,,,,,,,,,,,,,,,,,,,,,,,,,,,,,,,,,,,,,,,,,,,,,,,,,,,,,,,,,,,,,,,,,,,,,,,,,,,,,,,,,,,,,,,
,,6171165b0a955ac648f01d30,2026-03-17_16h08.58.738,kallum_motion_pilot_GIST_update_2,2026.1.1,Win32,30.03003003,6171165b0a955ac648f01d30,69b95efdef24cd8a694e89ee,69b9600b7c82187620f679d3,0.058,0.0581,0,102,102,13,1,threefour,,,,,,,,,,,,,,,,,,,,,,,,,,,,,,,,,,,,,,,,,,,,,,,,,,,,,,,,,,,,,,,,,,,,,,,,,,,,,,,,,,,,,,,,,,,,,,,,,,,,,,,,,,,,,,,,,,,,,,,,,,,,,,,,,,,,,,,,,
,,6171165b0a955ac648f01d30,2026-03-17_16h08.58.738,kallum_motion_pilot_GIST_update_2,2026.1.1,Win32,30.03003003,6171165b0a955ac648f01d30,69b95efdef24cd8a694e89ee,69b9600b7c82187620f679d3,0.0584,0.0584,0,103,103,123,1,sixeight,,,,,,,,,,,,,,,,,,,,,,,,,,,,,,,,,,,,,,,,,,,,,,,,,,,,,,,,,,,,,,,,,,,,,,,,,,,,,,,,,,,,,,,,,,,,,,,,,,,,,,,,,,,,,,,,,,,,,,,,,,,,,,,,,,,,,,,,,
,,6171165b0a955ac648f01d30,2026-03-17_16h08.58.738,kallum_motion_pilot_GIST_update_2,2026.1.1,Win32,30.03003003,6171165b0a955ac648f01d30,69b95efdef24cd8a694e89ee,69b9600b7c82187620f679d3,0.0587,0.0587,0,104,104,22,1,fourtwo,,,,,,,,,,,,,,,,,,,,,,,,,,,,,,,,,,,,,,,,,,,,,,,,,,,,,,,,,,,,,,,,,,,,,,,,,,,,,,,,,,,,,,,,,,,,,,,,,,,,,,,,,,,,,,,,,,,,,,,,,,,,,,,,,,,,,,,,,
,,6171165b0a955ac648f01d30,2026-03-17_16h08.58.738,kallum_motion_pilot_GIST_update_2,2026.1.1,Win32,30.03003003,6171165b0a955ac648f01d30,69b95efdef24cd8a694e89ee,69b9600b7c82187620f679d3,0.0587,0.0587,0,105,105,107,1,sixeight,,,,,,,,,,,,,,,,,,,,,,,,,,,,,,,,,,,,,,,,,,,,,,,,,,,,,,,,,,,,,,,,,,,,,,,,,,,,,,,,,,,,,,,,,,,,,,,,,,,,,,,,,,,,,,,,,,,,,,,,,,,,,,,,,,,,,,,,,
,,6171165b0a955ac648f01d30,2026-03-17_16h08.58.738,kallum_motion_pilot_GIST_update_2,2026.1.1,Win32,30.03003003,6171165b0a955ac648f01d30,69b95efdef24cd8a694e89ee,69b9600b7c82187620f679d3,0.0589,0.0589,0,106,106,25,1,onethree,,,,,,,,,,,,,,,,,,,,,,,,,,,,,,,,,,,,,,,,,,,,,,,,,,,,,,,,,,,,,,,,,,,,,,,,,,,,,,,,,,,,,,,,,,,,,,,,,,,,,,,,,,,,,,,,,,,,,,,,,,,,,,,,,,,,,,,,,
,,6171165b0a955ac648f01d30,2026-03-17_16h08.58.738,kallum_motion_pilot_GIST_update_2,2026.1.1,Win32,30.03003003,6171165b0a955ac648f01d30,69b95efdef24cd8a694e89ee,69b9600b7c82187620f679d3,0.059,0.059,0,107,107,33,1,onethree,,,,,,,,,,,,,,,,,,,,,,,,,,,,,,,,,,,,,,,,,,,,,,,,,,,,,,,,,,,,,,,,,,,,,,,,,,,,,,,,,,,,,,,,,,,,,,,,,,,,,,,,,,,,,,,,,,,,,,,,,,,,,,,,,,,,,,,,,
,,6171165b0a955ac648f01d30,2026-03-17_16h08.58.738,kallum_motion_pilot_GIST_update_2,2026.1.1,Win32,30.03003003,6171165b0a955ac648f01d30,69b95efdef24cd8a694e89ee,69b9600b7c82187620f679d3,0.059,0.059,0,108,108,53,1,threefour,,,,,,,,,,,,,,,,,,,,,,,,,,,,,,,,,,,,,,,,,,,,,,,,,,,,,,,,,,,,,,,,,,,,,,,,,,,,,,,,,,,,,,,,,,,,,,,,,,,,,,,,,,,,,,,,,,,,,,,,,,,,,,,,,,,,,,,,,
,,6171165b0a955ac648f01d30,2026-03-17_16h08.58.738,kallum_motion_pilot_GIST_update_2,2026.1.1,Win32,30.03003003,6171165b0a955ac648f01d30,69b95efdef24cd8a694e89ee,69b9600b7c82187620f679d3,0.0591,0.0591,0,109,109,97,1,fiveseven,,,,,,,,,,,,,,,,,,,,,,,,,,,,,,,,,,,,,,,,,,,,,,,,,,,,,,,,,,,,,,,,,,,,,,,,,,,,,,,,,,,,,,,,,,,,,,,,,,,,,,,,,,,,,,,,,,,,,,,,,,,,,,,,,,,,,,,,,
,,6171165b0a955ac648f01d30,2026-03-17_16h08.58.738,kallum_motion_pilot_GIST_update_2,2026.1.1,Win32,30.03003003,6171165b0a955ac648f01d30,69b95efdef24cd8a694e89ee,69b9600b7c82187620f679d3,0.0616,0.0616,0,110,110,112,1,fivesix,,,,,,,,,,,,,,,,,,,,,,,,,,,,,,,,,,,,,,,,,,,,,,,,,,,,,,,,,,,,,,,,,,,,,,,,,,,,,,,,,,,,,,,,,,,,,,,,,,,,,,,,,,,,,,,,,,,,,,,,,,,,,,,,,,,,,,,,,
,,6171165b0a955ac648f01d30,2026-03-17_16h08.58.738,kallum_motion_pilot_GIST_update_2,2026.1.1,Win32,30.03003003,6171165b0a955ac648f01d30,69b95efdef24cd8a694e89ee,69b9600b7c82187620f679d3,0.0618,0.0618,0,111,111,133,1,seveneight,,,,,,,,,,,,,,,,,,,,,,,,,,,,,,,,,,,,,,,,,,,,,,,,,,,,,,,,,,,,,,,,,,,,,,,,,,,,,,,,,,,,,,,,,,,,,,,,,,,,,,,,,,,,,,,,,,,,,,,,,,,,,,,,,,,,,,,,,
,,6171165b0a955ac648f01d30,2026-03-17_16h08.58.738,kallum_motion_pilot_GIST_update_2,2026.1.1,Win32,30.03003003,6171165b0a955ac648f01d30,69b95efdef24cd8a694e89ee,69b9600b7c82187620f679d3,0.0619,0.062,0,112,112,4,1,threeone,,,,,,,,,,,,,,,,,,,,,,,,,,,,,,,,,,,,,,,,,,,,,,,,,,,,,,,,,,,,,,,,,,,,,,,,,,,,,,,,,,,,,,,,,,,,,,,,,,,,,,,,,,,,,,,,,,,,,,,,,,,,,,,,,,,,,,,,,
,,6171165b0a955ac648f01d30,2026-03-17_16h08.58.738,kallum_motion_pilot_GIST_update_2,2026.1.1,Win32,30.03003003,6171165b0a955ac648f01d30,69b95efdef24cd8a694e89ee,69b9600b7c82187620f679d3,0.0621,0.0621,0,113,113,89,1,fiveseven,,,,,,,,,,,,,,,,,,,,,,,,,,,,,,,,,,,,,,,,,,,,,,,,,,,,,,,,,,,,,,,,,,,,,,,,,,,,,,,,,,,,,,,,,,,,,,,,,,,,,,,,,,,,,,,,,,,,,,,,,,,,,,,,,,,,,,,,,
,,6171165b0a955ac648f01d30,2026-03-17_16h08.58.738,kallum_motion_pilot_GIST_update_2,2026.1.1,Win32,30.03003003,6171165b0a955ac648f01d30,69b95efdef24cd8a694e89ee,69b9600b7c82187620f679d3,0.0622,0.0622,0,114,114,50,1,twoone,,,,,,,,,,,,,,,,,,,,,,,,,,,,,,,,,,,,,,,,,,,,,,,,,,,,,,,,,,,,,,,,,,,,,,,,,,,,,,,,,,,,,,,,,,,,,,,,,,,,,,,,,,,,,,,,,,,,,,,,,,,,,,,,,,,,,,,,,
,,6171165b0a955ac648f01d30,2026-03-17_16h08.58.738,kallum_motion_pilot_GIST_update_2,2026.1.1,Win32,30.03003003,6171165b0a955ac648f01d30,69b95efdef24cd8a694e89ee,69b9600b7c82187620f679d3,0.0625,0.0626,0,115,115,105,1,fiveseven,,,,,,,,,,,,,,,,,,,,,,,,,,,,,,,,,,,,,,,,,,,,,,,,,,,,,,,,,,,,,,,,,,,,,,,,,,,,,,,,,,,,,,,,,,,,,,,,,,,,,,,,,,,,,,,,,,,,,,,,,,,,,,,,,,,,,,,,,
,,6171165b0a955ac648f01d30,2026-03-17_16h08.58.738,kallum_motion_pilot_GIST_update_2,2026.1.1,Win32,30.03003003,6171165b0a955ac648f01d30,69b95efdef24cd8a694e89ee,69b9600b7c82187620f679d3,0.063,0.063,0,116,116,108,1,sevenfive,,,,,,,,,,,,,,,,,,,,,,,,,,,,,,,,,,,,,,,,,,,,,,,,,,,,,,,,,,,,,,,,,,,,,,,,,,,,,,,,,,,,,,,,,,,,,,,,,,,,,,,,,,,,,,,,,,,,,,,,,,,,,,,,,,,,,,,,,
,,6171165b0a955ac648f01d30,2026-03-17_16h08.58.738,kallum_motion_pilot_GIST_update_2,2026.1.1,Win32,30.03003003,6171165b0a955ac648f01d30,69b95efdef24cd8a694e89ee,69b9600b7c82187620f679d3,0.0634,0.0634,0,117,117,110,1,eightsix,,,,,,,,,,,,,,,,,,,,,,,,,,,,,,,,,,,,,,,,,,,,,,,,,,,,,,,,,,,,,,,,,,,,,,,,,,,,,,,,,,,,,,,,,,,,,,,,,,,,,,,,,,,,,,,,,,,,,,,,,,,,,,,,,,,,,,,,,
,,6171165b0a955ac648f01d30,2026-03-17_16h08.58.738,kallum_motion_pilot_GIST_update_2,2026.1.1,Win32,30.03003003,6171165b0a955ac648f01d30,69b95efdef24cd8a694e89ee,69b9600b7c82187620f679d3,0.0636,0.0636,0,118,118,124,1,sevenfive,,,,,,,,,,,,,,,,,,,,,,,,,,,,,,,,,,,,,,,,,,,,,,,,,,,,,,,,,,,,,,,,,,,,,,,,,,,,,,,,,,,,,,,,,,,,,,,,,,,,,,,,,,,,,,,,,,,,,,,,,,,,,,,,,,,,,,,,,
,,6171165b0a955ac648f01d30,2026-03-17_16h08.58.738,kallum_motion_pilot_GIST_update_2,2026.1.1,Win32,30.03003003,6171165b0a955ac648f01d30,69b95efdef24cd8a694e89ee,69b9600b7c82187620f679d3,0.0637,0.0637,0,119,119,28,1,threeone,,,,,,,,,,,,,,,,,,,,,,,,,,,,,,,,,,,,,,,,,,,,,,,,,,,,,,,,,,,,,,,,,,,,,,,,,,,,,,,,,,,,,,,,,,,,,,,,,,,,,,,,,,,,,,,,,,,,,,,,,,,,,,,,,,,,,,,,,
,,6171165b0a955ac648f01d30,2026-03-17_16h08.58.738,kallum_motion_pilot_GIST_update_2,2026.1.1,Win32,30.03003003,6171165b0a955ac648f01d30,69b95efdef24cd8a694e89ee,69b9600b7c82187620f679d3,0.0639,0.0639,0,120,120,68,1,threeone,,,,,,,,,,,,,,,,,,,,,,,,,,,,,,,,,,,,,,,,,,,,,,,,,,,,,,,,,,,,,,,,,,,,,,,,,,,,,,,,,,,,,,,,,,,,,,,,,,,,,,,,,,,,,,,,,,,,,,,,,,,,,,,,,,,,,,,,,
,,6171165b0a955ac648f01d30,2026-03-17_16h08.58.738,kallum_motion_pilot_GIST_update_2,2026.1.1,Win32,30.03003003,6171165b0a955ac648f01d30,69b95efdef24cd8a694e89ee,69b9600b7c82187620f679d3,0.0644,0.0644,0,121,121,140,1,sevenfive,,,,,,,,,,,,,,,,,,,,,,,,,,,,,,,,,,,,,,,,,,,,,,,,,,,,,,,,,,,,,,,,,,,,,,,,,,,,,,,,,,,,,,,,,,,,,,,,,,,,,,,,,,,,,,,,,,,,,,,,,,,,,,,,,,,,,,,,,
,,6171165b0a955ac648f01d30,2026-03-17_16h08.58.738,kallum_motion_pilot_GIST_update_2,2026.1.1,Win32,30.03003003,6171165b0a955ac648f01d30,69b95efdef24cd8a694e89ee,69b9600b7c82187620f679d3,0.0648,0.0648,0,122,122,138,1,sixfive,,,,,,,,,,,,,,,,,,,,,,,,,,,,,,,,,,,,,,,,,,,,,,,,,,,,,,,,,,,,,,,,,,,,,,,,,,,,,,,,,,,,,,,,,,,,,,,,,,,,,,,,,,,,,,,,,,,,,,,,,,,,,,,,,,,,,,,,,
,,6171165b0a955ac648f01d30,2026-03-17_16h08.58.738,kallum_motion_pilot_GIST_update_2,2026.1.1,Win32,30.03003003,6171165b0a955ac648f01d30,69b95efdef24cd8a694e89ee,69b9600b7c82187620f679d3,0.0652,0.0653,0,123,123,9,1,onethree,,,,,,,,,,,,,,,,,,,,,,,,,,,,,,,,,,,,,,,,,,,,,,,,,,,,,,,,,,,,,,,,,,,,,,,,,,,,,,,,,,,,,,,,,,,,,,,,,,,,,,,,,,,,,,,,,,,,,,,,,,,,,,,,,,,,,,,,,
,,6171165b0a955ac648f01d30,2026-03-17_16h08.58.738,kallum_motion_pilot_GIST_update_2,2026.1.1,Win32,30.03003003,6171165b0a955ac648f01d30,69b95efdef24cd8a694e89ee,69b9600b7c82187620f679d3,0.0656,0.0656,0,124,124,111,1,eightseven,,,,,,,,,,,,,,,,,,,,,,,,,,,,,,,,,,,,,,,,,,,,,,,,,,,,,,,,,,,,,,,,,,,,,,,,,,,,,,,,,,,,,,,,,,,,,,,,,,,,,,,,,,,,,,,,,,,,,,,,,,,,,,,,,,,,,,,,,
,,6171165b0a955ac648f01d30,2026-03-17_16h08.58.738,kallum_motion_pilot_GIST_update_2,2026.1.1,Win32,30.03003003,6171165b0a955ac648f01d30,69b95efdef24cd8a694e89ee,69b9600b7c82187620f679d3,0.0659,0.0659,0,125,125,101,1,seveneight,,,,,,,,,,,,,,,,,,,,,,,,,,,,,,,,,,,,,,,,,,,,,,,,,,,,,,,,,,,,,,,,,,,,,,,,,,,,,,,,,,,,,,,,,,,,,,,,,,,,,,,,,,,,,,,,,,,,,,,,,,,,,,,,,,,,,,,,,
,,6171165b0a955ac648f01d30,2026-03-17_16h08.58.738,kallum_motion_pilot_GIST_update_2,2026.1.1,Win32,30.03003003,6171165b0a955ac648f01d30,69b95efdef24cd8a694e89ee,69b9600b7c82187620f679d3,0.0663,0.0663,0,126,126,157,1,seveneight,,,,,,,,,,,,,,,,,,,,,,,,,,,,,,,,,,,,,,,,,,,,,,,,,,,,,,,,,,,,,,,,,,,,,,,,,,,,,,,,,,,,,,,,,,,,,,,,,,,,,,,,,,,,,,,,,,,,,,,,,,,,,,,,,,,,,,,,,
,,6171165b0a955ac648f01d30,2026-03-17_16h08.58.738,kallum_motion_pilot_GIST_update_2,2026.1.1,Win32,30.03003003,6171165b0a955ac648f01d30,69b95efdef24cd8a694e89ee,69b9600b7c82187620f679d3,0.0667,0.0667,0,127,127,145,1,fiveseven,,,,,,,,,,,,,,,,,,,,,,,,,,,,,,,,,,,,,,,,,,,,,,,,,,,,,,,,,,,,,,,,,,,,,,,,,,,,,,,,,,,,,,,,,,,,,,,,,,,,,,,,,,,,,,,,,,,,,,,,,,,,,,,,,,,,,,,,,
,,6171165b0a955ac648f01d30,2026-03-17_16h08.58.738,kallum_motion_pilot_GIST_update_2,2026.1.1,Win32,30.03003003,6171165b0a955ac648f01d30,69b95efdef24cd8a694e89ee,69b9600b7c82187620f679d3,0.067,0.067,0,128,128,134,1,eightsix,,,,,,,,,,,,,,,,,,,,,,,,,,,,,,,,,,,,,,,,,,,,,,,,,,,,,,,,,,,,,,,,,,,,,,,,,,,,,,,,,,,,,,,,,,,,,,,,,,,,,,,,,,,,,,,,,,,,,,,,,,,,,,,,,,,,,,,,,
,,6171165b0a955ac648f01d30,2026-03-17_16h08.58.738,kallum_motion_pilot_GIST_update_2,2026.1.1,Win32,30.03003003,6171165b0a955ac648f01d30,69b95efdef24cd8a694e89ee,69b9600b7c82187620f679d3,0.0671,0.0671,0,129,129,29,1,threefour,,,,,,,,,,,,,,,,,,,,,,,,,,,,,,,,,,,,,,,,,,,,,,,,,,,,,,,,,,,,,,,,,,,,,,,,,,,,,,,,,,,,,,,,,,,,,,,,,,,,,,,,,,,,,,,,,,,,,,,,,,,,,,,,,,,,,,,,,
,,6171165b0a955ac648f01d30,2026-03-17_16h08.58.738,kallum_motion_pilot_GIST_update_2,2026.1.1,Win32,30.03003003,6171165b0a955ac648f01d30,69b95efdef24cd8a694e89ee,69b9600b7c82187620f679d3,0.0672,0.0672,0,130,130,73,1,onethree,,,,,,,,,,,,,,,,,,,,,,,,,,,,,,,,,,,,,,,,,,,,,,,,,,,,,,,,,,,,,,,,,,,,,,,,,,,,,,,,,,,,,,,,,,,,,,,,,,,,,,,,,,,,,,,,,,,,,,,,,,,,,,,,,,,,,,,,,
,,6171165b0a955ac648f01d30,2026-03-17_16h08.58.738,kallum_motion_pilot_GIST_update_2,2026.1.1,Win32,30.03003003,6171165b0a955ac648f01d30,69b95efdef24cd8a694e89ee,69b9600b7c82187620f679d3,0.0675,0.0675,0,131,131,158,1,eightsix,,,,,,,,,,,,,,,,,,,,,,,,,,,,,,,,,,,,,,,,,,,,,,,,,,,,,,,,,,,,,,,,,,,,,,,,,,,,,,,,,,,,,,,,,,,,,,,,,,,,,,,,,,,,,,,,,,,,,,,,,,,,,,,,,,,,,,,,,
,,6171165b0a955ac648f01d30,2026-03-17_16h08.58.738,kallum_motion_pilot_GIST_update_2,2026.1.1,Win32,30.03003003,6171165b0a955ac648f01d30,69b95efdef24cd8a694e89ee,69b9600b7c82187620f679d3,0.0678,0.0679,0,132,132,26,1,twoone,,,,,,,,,,,,,,,,,,,,,,,,,,,,,,,,,,,,,,,,,,,,,,,,,,,,,,,,,,,,,,,,,,,,,,,,,,,,,,,,,,,,,,,,,,,,,,,,,,,,,,,,,,,,,,,,,,,,,,,,,,,,,,,,,,,,,,,,,
,,6171165b0a955ac648f01d30,2026-03-17_16h08.58.738,kallum_motion_pilot_GIST_update_2,2026.1.1,Win32,30.03003003,6171165b0a955ac648f01d30,69b95efdef24cd8a694e89ee,69b9600b7c82187620f679d3,0.0681,0.0681,0,133,133,69,1,threefour,,,,,,,,,,,,,,,,,,,,,,,,,,,,,,,,,,,,,,,,,,,,,,,,,,,,,,,,,,,,,,,,,,,,,,,,,,,,,,,,,,,,,,,,,,,,,,,,,,,,,,,,,,,,,,,,,,,,,,,,,,,,,,,,,,,,,,,,,
,,6171165b0a955ac648f01d30,2026-03-17_16h08.58.738,kallum_motion_pilot_GIST_update_2,2026.1.1,Win32,30.03003003,6171165b0a955ac648f01d30,69b95efdef24cd8a694e89ee,69b9600b7c82187620f679d3,0.0684,0.0684,0,134,134,76,1,threeone,,,,,,,,,,,,,,,,,,,,,,,,,,,,,,,,,,,,,,,,,,,,,,,,,,,,,,,,,,,,,,,,,,,,,,,,,,,,,,,,,,,,,,,,,,,,,,,,,,,,,,,,,,,,,,,,,,,,,,,,,,,,,,,,,,,,,,,,,
,,6171165b0a955ac648f01d30,2026-03-17_16h08.58.738,kallum_motion_pilot_GIST_update_2,2026.1.1,Win32,30.03003003,6171165b0a955ac648f01d30,69b95efdef24cd8a694e89ee,69b9600b7c82187620f679d3,0.0687,0.0688,0,135,135,126,1,eightsix,,,,,,,,,,,,,,,,,,,,,,,,,,,,,,,,,,,,,,,,,,,,,,,,,,,,,,,,,,,,,,,,,,,,,,,,,,,,,,,,,,,,,,,,,,,,,,,,,,,,,,,,,,,,,,,,,,,,,,,,,,,,,,,,,,,,,,,,,
,,6171165b0a955ac648f01d30,2026-03-17_16h08.58.738,kallum_motion_pilot_GIST_update_2,2026.1.1,Win32,30.03003003,6171165b0a955ac648f01d30,69b95efdef24cd8a694e89ee,69b9600b7c82187620f679d3,0.0691,0.0691,0,136,136,120,1,fivesix,,,,,,,,,,,,,,,,,,,,,,,,,,,,,,,,,,,,,,,,,,,,,,,,,,,,,,,,,,,,,,,,,,,,,,,,,,,,,,,,,,,,,,,,,,,,,,,,,,,,,,,,,,,,,,,,,,,,,,,,,,,,,,,,,,,,,,,,,
,,6171165b0a955ac648f01d30,2026-03-17_16h08.58.738,kallum_motion_pilot_GIST_update_2,2026.1.1,Win32,30.03003003,6171165b0a955ac648f01d30,69b95efdef24cd8a694e89ee,69b9600b7c82187620f679d3,0.0695,0.0695,0,137,137,78,1,fourtwo,,,,,,,,,,,,,,,,,,,,,,,,,,,,,,,,,,,,,,,,,,,,,,,,,,,,,,,,,,,,,,,,,,,,,,,,,,,,,,,,,,,,,,,,,,,,,,,,,,,,,,,,,,,,,,,,,,,,,,,,,,,,,,,,,,,,,,,,,
,,6171165b0a955ac648f01d30,2026-03-17_16h08.58.738,kallum_motion_pilot_GIST_update_2,2026.1.1,Win32,30.03003003,6171165b0a955ac648f01d30,69b95efdef24cd8a694e89ee,69b9600b7c82187620f679d3,0.0697,0.0697,0,138,138,95,1,eightseven,,,,,,,,,,,,,,,,,,,,,,,,,,,,,,,,,,,,,,,,,,,,,,,,,,,,,,,,,,,,,,,,,,,,,,,,,,,,,,,,,,,,,,,,,,,,,,,,,,,,,,,,,,,,,,,,,,,,,,,,,,,,,,,,,,,,,,,,,
,,6171165b0a955ac648f01d30,2026-03-17_16h08.58.738,kallum_motion_pilot_GIST_update_2,2026.1.1,Win32,30.03003003,6171165b0a955ac648f01d30,69b95efdef24cd8a694e89ee,69b9600b7c82187620f679d3,0.0698,0.0699,0,139,139,99,1,sixeight,,,,,,,,,,,,,,,,,,,,,,,,,,,,,,,,,,,,,,,,,,,,,,,,,,,,,,,,,,,,,,,,,,,,,,,,,,,,,,,,,,,,,,,,,,,,,,,,,,,,,,,,,,,,,,,,,,,,,,,,,,,,,,,,,,,,,,,,,
,,6171165b0a955ac648f01d30,2026-03-17_16h08.58.738,kallum_motion_pilot_GIST_update_2,2026.1.1,Win32,30.03003003,6171165b0a955ac648f01d30,69b95efdef24cd8a694e89ee,69b9600b7c82187620f679d3,0.07,0.07,0,140,140,35,1,twofour,,,,,,,,,,,,,,,,,,,,,,,,,,,,,,,,,,,,,,,,,,,,,,,,,,,,,,,,,,,,,,,,,,,,,,,,,,,,,,,,,,,,,,,,,,,,,,,,,,,,,,,,,,,,,,,,,,,,,,,,,,,,,,,,,,,,,,,,,
,,6171165b0a955ac648f01d30,2026-03-17_16h08.58.738,kallum_motion_pilot_GIST_update_2,2026.1.1,Win32,30.03003003,6171165b0a955ac648f01d30,69b95efdef24cd8a694e89ee,69b9600b7c82187620f679d3,0.0703,0.0703,0,141,141,51,1,twofour,,,,,,,,,,,,,,,,,,,,,,,,,,,,,,,,,,,,,,,,,,,,,,,,,,,,,,,,,,,,,,,,,,,,,,,,,,,,,,,,,,,,,,,,,,,,,,,,,,,,,,,,,,,,,,,,,,,,,,,,,,,,,,,,,,,,,,,,,
,,6171165b0a955ac648f01d30,2026-03-17_16h08.58.738,kallum_motion_pilot_GIST_update_2,2026.1.1,Win32,30.03003003,6171165b0a955ac648f01d30,69b95efdef24cd8a694e89ee,69b9600b7c82187620f679d3,0.0705,0.0705,0,142,142,87,1,eightseven,,,,,,,,,,,,,,,,,,,,,,,,,,,,,,,,,,,,,,,,,,,,,,,,,,,,,,,,,,,,,,,,,,,,,,,,,,,,,,,,,,,,,,,,,,,,,,,,,,,,,,,,,,,,,,,,,,,,,,,,,,,,,,,,,,,,,,,,,
,,6171165b0a955ac648f01d30,2026-03-17_16h08.58.738,kallum_motion_pilot_GIST_update_2,2026.1.1,Win32,30.03003003,6171165b0a955ac648f01d30,69b95efdef24cd8a694e89ee,69b9600b7c82187620f679d3,0.0709,0.0709,0,143,143,37,1,threefour,,,,,,,,,,,,,,,,,,,,,,,,,,,,,,,,,,,,,,,,,,,,,,,,,,,,,,,,,,,,,,,,,,,,,,,,,,,,,,,,,,,,,,,,,,,,,,,,,,,,,,,,,,,,,,,,,,,,,,,,,,,,,,,,,,,,,,,,,
,,6171165b0a955ac648f01d30,2026-03-17_16h08.58.738,kallum_motion_pilot_GIST_update_2,2026.1.1,Win32,30.03003003,6171165b0a955ac648f01d30,69b95efdef24cd8a694e89ee,69b9600b7c82187620f679d3,0.0711,0.0711,0,144,144,136,1,fivesix,,,,,,,,,,,,,,,,,,,,,,,,,,,,,,,,,,,,,,,,,,,,,,,,,,,,,,,,,,,,,,,,,,,,,,,,,,,,,,,,,,,,,,,,,,,,,,,,,,,,,,,,,,,,,,,,,,,,,,,,,,,,,,,,,,,,,,,,,
,,6171165b0a955ac648f01d30,2026-03-17_16h08.58.738,kallum_motion_pilot_GIST_update_2,2026.1.1,Win32,30.03003003,6171165b0a955ac648f01d30,69b95efdef24cd8a694e89ee,69b9600b7c82187620f679d3,0.0714,0.0714,0,145,145,75,1,twofour,,,,,,,,,,,,,,,,,,,,,,,,,,,,,,,,,,,,,,,,,,,,,,,,,,,,,,,,,,,,,,,,,,,,,,,,,,,,,,,,,,,,,,,,,,,,,,,,,,,,,,,,,,,,,,,,,,,,,,,,,,,,,,,,,,,,,,,,,
,,6171165b0a955ac648f01d30,2026-03-17_16h08.58.738,kallum_motion_pilot_GIST_update_2,2026.1.1,Win32,30.03003003,6171165b0a955ac648f01d30,69b95efdef24cd8a694e89ee,69b9600b7c82187620f679d3,0.0717,0.0717,0,146,146,148,1,sevenfive,,,,,,,,,,,,,,,,,,,,,,,,,,,,,,,,,,,,,,,,,,,,,,,,,,,,,,,,,,,,,,,,,,,,,,,,,,,,,,,,,,,,,,,,,,,,,,,,,,,,,,,,,,,,,,,,,,,,,,,,,,,,,,,,,,,,,,,,,
,,6171165b0a955ac648f01d30,2026-03-17_16h08.58.738,kallum_motion_pilot_GIST_update_2,2026.1.1,Win32,30.03003003,6171165b0a955ac648f01d30,69b95efdef24cd8a694e89ee,69b9600b7c82187620f679d3,0.0718,0.0718,0,147,147,147,1,sixeight,,,,,,,,,,,,,,,,,,,,,,,,,,,,,,,,,,,,,,,,,,,,,,,,,,,,,,,,,,,,,,,,,,,,,,,,,,,,,,,,,,,,,,,,,,,,,,,,,,,,,,,,,,,,,,,,,,,,,,,,,,,,,,,,,,,,,,,,,
,,6171165b0a955ac648f01d30,2026-03-17_16h08.58.738,kallum_motion_pilot_GIST_update_2,2026.1.1,Win32,30.03003003,6171165b0a955ac648f01d30,69b95efdef24cd8a694e89ee,69b9600b7c82187620f679d3,0.0721,0.0721,0,148,148,72,1,onetwo,,,,,,,,,,,,,,,,,,,,,,,,,,,,,,,,,,,,,,,,,,,,,,,,,,,,,,,,,,,,,,,,,,,,,,,,,,,,,,,,,,,,,,,,,,,,,,,,,,,,,,,,,,,,,,,,,,,,,,,,,,,,,,,,,,,,,,,,,
,,6171165b0a955ac648f01d30,2026-03-17_16h08.58.738,kallum_motion_pilot_GIST_update_2,2026.1.1,Win32,30.03003003,6171165b0a955ac648f01d30,69b95efdef24cd8a694e89ee,69b9600b7c82187620f679d3,0.0724,0.0724,0,149,149,34,1,twoone,,,,,,,,,,,,,,,,,,,,,,,,,,,,,,,,,,,,,,,,,,,,,,,,,,,,,,,,,,,,,,,,,,,,,,,,,,,,,,,,,,,,,,,,,,,,,,,,,,,,,,,,,,,,,,,,,,,,,,,,,,,,,,,,,,,,,,,,,
,,6171165b0a955ac648f01d30,2026-03-17_16h08.58.738,kallum_motion_pilot_GIST_update_2,2026.1.1,Win32,30.03003003,6171165b0a955ac648f01d30,69b95efdef24cd8a694e89ee,69b9600b7c82187620f679d3,0.0726,0.0726,0,150,150,45,1,threefour,,,,,,,,,,,,,,,,,,,,,,,,,,,,,,,,,,,,,,,,,,,,,,,,,,,,,,,,,,,,,,,,,,,,,,,,,,,,,,,,,,,,,,,,,,,,,,,,,,,,,,,,,,,,,,,,,,,,,,,,,,,,,,,,,,,,,,,,,
,,6171165b0a955ac648f01d30,2026-03-17_16h08.58.738,kallum_motion_pilot_GIST_update_2,2026.1.1,Win32,30.03003003,6171165b0a955ac648f01d30,69b95efdef24cd8a694e89ee,69b9600b7c82187620f679d3,0.0727,0.0727,0,151,151,129,1,fiveseven,,,,,,,,,,,,,,,,,,,,,,,,,,,,,,,,,,,,,,,,,,,,,,,,,,,,,,,,,,,,,,,,,,,,,,,,,,,,,,,,,,,,,,,,,,,,,,,,,,,,,,,,,,,,,,,,,,,,,,,,,,,,,,,,,,,,,,,,,
,,6171165b0a955ac648f01d30,2026-03-17_16h08.58.738,kallum_motion_pilot_GIST_update_2,2026.1.1,Win32,30.03003003,6171165b0a955ac648f01d30,69b95efdef24cd8a694e89ee,69b9600b7c82187620f679d3,0.0727,0.0727,0,152,152,59,1,twofour,,,,,,,,,,,,,,,,,,,,,,,,,,,,,,,,,,,,,,,,,,,,,,,,,,,,,,,,,,,,,,,,,,,,,,,,,,,,,,,,,,,,,,,,,,,,,,,,,,,,,,,,,,,,,,,,,,,,,,,,,,,,,,,,,,,,,,,,,
,,6171165b0a955ac648f01d30,2026-03-17_16h08.58.738,kallum_motion_pilot_GIST_update_2,2026.1.1,Win32,30.03003003,6171165b0a955ac648f01d30,69b95efdef24cd8a694e89ee,69b9600b7c82187620f679d3,0.0728,0.0728,0,153,153,54,1,fourtwo,,,,,,,,,,,,,,,,,,,,,,,,,,,,,,,,,,,,,,,,,,,,,,,,,,,,,,,,,,,,,,,,,,,,,,,,,,,,,,,,,,,,,,,,,,,,,,,,,,,,,,,,,,,,,,,,,,,,,,,,,,,,,,,,,,,,,,,,,
,,6171165b0a955ac648f01d30,2026-03-17_16h08.58.738,kallum_motion_pilot_GIST_update_2,2026.1.1,Win32,30.03003003,6171165b0a955ac648f01d30,69b95efdef24cd8a694e89ee,69b9600b7c82187620f679d3,0.0729,0.0729,0,154,154,48,1,onetwo,,,,,,,,,,,,,,,,,,,,,,,,,,,,,,,,,,,,,,,,,,,,,,,,,,,,,,,,,,,,,,,,,,,,,,,,,,,,,,,,,,,,,,,,,,,,,,,,,,,,,,,,,,,,,,,,,,,,,,,,,,,,,,,,,,,,,,,,,
,,6171165b0a955ac648f01d30,2026-03-17_16h08.58.738,kallum_motion_pilot_GIST_update_2,2026.1.1,Win32,30.03003003,6171165b0a955ac648f01d30,69b95efdef24cd8a694e89ee,69b9600b7c82187620f679d3,0.0731,0.0731,0,155,155,67,1,twofour,,,,,,,,,,,,,,,,,,,,,,,,,,,,,,,,,,,,,,,,,,,,,,,,,,,,,,,,,,,,,,,,,,,,,,,,,,,,,,,,,,,,,,,,,,,,,,,,,,,,,,,,,,,,,,,,,,,,,,,,,,,,,,,,,,,,,,,,,
,,6171165b0a955ac648f01d30,2026-03-17_16h08.58.738,kallum_motion_pilot_GIST_update_2,2026.1.1,Win32,30.03003003,6171165b0a955ac648f01d30,69b95efdef24cd8a694e89ee,69b9600b7c82187620f679d3,0.0732,0.0732,0,156,156,137,1,fiveseven,,,,,,,,,,,,,,,,,,,,,,,,,,,,,,,,,,,,,,,,,,,,,,,,,,,,,,,,,,,,,,,,,,,,,,,,,,,,,,,,,,,,,,,,,,,,,,,,,,,,,,,,,,,,,,,,,,,,,,,,,,,,,,,,,,,,,,,,,
,,6171165b0a955ac648f01d30,2026-03-17_16h08.58.738,kallum_motion_pilot_GIST_update_2,2026.1.1,Win32,30.03003003,6171165b0a955ac648f01d30,69b95efdef24cd8a694e89ee,69b9600b7c82187620f679d3,0.0733,0.0733,0,157,157,55,1,fourthree,,,,,,,,,,,,,,,,,,,,,,,,,,,,,,,,,,,,,,,,,,,,,,,,,,,,,,,,,,,,,,,,,,,,,,,,,,,,,,,,,,,,,,,,,,,,,,,,,,,,,,,,,,,,,,,,,,,,,,,,,,,,,,,,,,,,,,,,,
,,6171165b0a955ac648f01d30,2026-03-17_16h08.58.738,kallum_motion_pilot_GIST_update_2,2026.1.1,Win32,30.03003003,6171165b0a955ac648f01d30,69b95efdef24cd8a694e89ee,69b9600b7c82187620f679d3,0.0735,0.0735,0,158,158,86,1,eightsix,,,,,,,,,,,,,,,,,,,,,,,,,,,,,,,,,,,,,,,,,,,,,,,,,,,,,,,,,,,,,,,,,,,,,,,,,,,,,,,,,,,,,,,,,,,,,,,,,,,,,,,,,,,,,,,,,,,,,,,,,,,,,,,,,,,,,,,,,
,,6171165b0a955ac648f01d30,2026-03-17_16h08.58.738,kallum_motion_pilot_GIST_update_2,2026.1.1,Win32,30.03003003,6171165b0a955ac648f01d30,69b95efdef24cd8a694e89ee,69b9600b7c82187620f679d3,0.0737,0.0737,0,159,159,32,1,onetwo,,,,,,,,,,,,,,,,,,,,,,,,,,,,,,,,,,,,,,,,,,,,,,,,,,,,,,,,,,,,,,,,,,,,,,,,,,,,,,,,,,,,,,,,,,,,,,,,,,,,,,,,,,,,,,,,,,,,,,,,,,,,,,,,,,,,,,,,,
,,6171165b0a955ac648f01d30,2026-03-17_16h08.58.738,kallum_motion_pilot_GIST_update_2,2026.1.1,Win32,30.03003003,6171165b0a955ac648f01d30,69b95efdef24cd8a694e89ee,69b9600b7c82187620f679d3,0.0739,0.0739,0,160,160,0,1,onetwo,,,,,,,,,,,,,,,,,,,,,,,,,,,,,,,,,,,,,,,,,,,,,,,,,,,,,,,,,,,,,,,,,,,,,,,,,,,,,,,,,,,,,,,,,,,,,,,,,,,,,,,,,,,,,,,,,,,,,,,,,,,,,,,,,,,,,,,,,
,,6171165b0a955ac648f01d30,2026-03-17_16h08.58.738,kallum_motion_pilot_GIST_update_2,2026.1.1,Win32,30.03003003,6171165b0a955ac648f01d30,69b95efdef24cd8a694e89ee,69b9600b7c82187620f679d3,0.0741,0.0741,0,161,161,141,1,seveneight,,,,,,,,,,,,,,,,,,,,,,,,,,,,,,,,,,,,,,,,,,,,,,,,,,,,,,,,,,,,,,,,,,,,,,,,,,,,,,,,,,,,,,,,,,,,,,,,,,,,,,,,,,,,,,,,,,,,,,,,,,,,,,,,,,,,,,,,,
,,6171165b0a955ac648f01d30,2026-03-17_16h08.58.738,kallum_motion_pilot_GIST_update_2,2026.1.1,Win32,30.03003003,6171165b0a955ac648f01d30,69b95efdef24cd8a694e89ee,69b9600b7c82187620f679d3,0.0744,0.0744,1,0,162,104,1,fivesix,,,,,,,,,,,,,,,,,,,,,,,,,,,,,,,,,,,,,,,,,,,,,,,,,,,,,,,,,,,,,,,,,,,,,,,,,,,,,,,,,,,,,,,,,,,,,,,,,,,,,,,,,,,,,,,,,,,,,,,,,,,,,,,,,,,,,,,,,
,,6171165b0a955ac648f01d30,2026-03-17_16h08.58.738,kallum_motion_pilot_GIST_update_2,2026.1.1,Win32,30.03003003,6171165b0a955ac648f01d30,69b95efdef24cd8a694e89ee,69b9600b7c82187620f679d3,0.0747,0.0747,1,1,163,92,1,sevenfive,,,,,,,,,,,,,,,,,,,,,,,,,,,,,,,,,,,,,,,,,,,,,,,,,,,,,,,,,,,,,,,,,,,,,,,,,,,,,,,,,,,,,,,,,,,,,,,,,,,,,,,,,,,,,,,,,,,,,,,,,,,,,,,,,,,,,,,,,
,,6171165b0a955ac648f01d30,2026-03-17_16h08.58.738,kallum_motion_pilot_GIST_update_2,2026.1.1,Win32,30.03003003,6171165b0a955ac648f01d30,69b95efdef24cd8a694e89ee,69b9600b7c82187620f679d3,0.0756,0.0756,1,2,164,67,1,twofour,,,,,,,,,,,,,,,,,,,,,,,,,,,,,,,,,,,,,,,,,,,,,,,,,,,,,,,,,,,,,,,,,,,,,,,,,,,,,,,,,,,,,,,,,,,,,,,,,,,,,,,,,,,,,,,,,,,,,,,,,,,,,,,,,,,,,,,,,
,,6171165b0a955ac648f01d30,2026-03-17_16h08.58.738,kallum_motion_pilot_GIST_update_2,2026.1.1,Win32,30.03003003,6171165b0a955ac648f01d30,69b95efdef24cd8a694e89ee,69b9600b7c82187620f679d3,0.0761,0.0762,1,3,165,12,1,threeone,,,,,,,,,,,,,,,,,,,,,,,,,,,,,,,,,,,,,,,,,,,,,,,,,,,,,,,,,,,,,,,,,,,,,,,,,,,,,,,,,,,,,,,,,,,,,,,,,,,,,,,,,,,,,,,,,,,,,,,,,,,,,,,,,,,,,,,,,
,,6171165b0a955ac648f01d30,2026-03-17_16h08.58.738,kallum_motion_pilot_GIST_update_2,2026.1.1,Win32,30.03003003,6171165b0a955ac648f01d30,69b95efdef24cd8a694e89ee,69b9600b7c82187620f679d3,0.0766,0.0767,1,4,166,140,1,sevenfive,,,,,,,,,,,,,,,,,,,,,,,,,,,,,,,,,,,,,,,,,,,,,,,,,,,,,,,,,,,,,,,,,,,,,,,,,,,,,,,,,,,,,,,,,,,,,,,,,,,,,,,,,,,,,,,,,,,,,,,,,,,,,,,,,,,,,,,,,
,,6171165b0a955ac648f01d30,2026-03-17_16h08.58.738,kallum_motion_pilot_GIST_update_2,2026.1.1,Win32,30.03003003,6171165b0a955ac648f01d30,69b95efdef24cd8a694e89ee,69b9600b7c82187620f679d3,0.0769,0.0769,1,5,167,96,1,fivesix,,,,,,,,,,,,,,,,,,,,,,,,,,,,,,,,,,,,,,,,,,,,,,,,,,,,,,,,,,,,,,,,,,,,,,,,,,,,,,,,,,,,,,,,,,,,,,,,,,,,,,,,,,,,,,,,,,,,,,,,,,,,,,,,,,,,,,,,,
,,6171165b0a955ac648f01d30,2026-03-17_16h08.58.738,kallum_motion_pilot_GIST_update_2,2026.1.1,Win32,30.03003003,6171165b0a955ac648f01d30,69b95efdef24cd8a694e89ee,69b9600b7c82187620f679d3,0.0772,0.0772,1,6,168,116,1,sevenfive,,,,,,,,,,,,,,,,,,,,,,,,,,,,,,,,,,,,,,,,,,,,,,,,,,,,,,,,,,,,,,,,,,,,,,,,,,,,,,,,,,,,,,,,,,,,,,,,,,,,,,,,,,,,,,,,,,,,,,,,,,,,,,,,,,,,,,,,,
,,6171165b0a955ac648f01d30,2026-03-17_16h08.58.738,kallum_motion_pilot_GIST_update_2,2026.1.1,Win32,30.03003003,6171165b0a955ac648f01d30,69b95efdef24cd8a694e89ee,69b9600b7c82187620f679d3,0.0778,0.0778,1,7,169,112,1,fivesix,,,,,,,,,,,,,,,,,,,,,,,,,,,,,,,,,,,,,,,,,,,,,,,,,,,,,,,,,,,,,,,,,,,,,,,,,,,,,,,,,,,,,,,,,,,,,,,,,,,,,,,,,,,,,,,,,,,,,,,,,,,,,,,,,,,,,,,,,
,,6171165b0a955ac648f01d30,2026-03-17_16h08.58.738,kallum_motion_pilot_GIST_update_2,2026.1.1,Win32,30.03003003,6171165b0a955ac648f01d30,69b95efdef24cd8a694e89ee,69b9600b7c82187620f679d3,0.0782,0.0783,1,8,170,139,1,sixeight,,,,,,,,,,,,,,,,,,,,,,,,,,,,,,,,,,,,,,,,,,,,,,,,,,,,,,,,,,,,,,,,,,,,,,,,,,,,,,,,,,,,,,,,,,,,,,,,,,,,,,,,,,,,,,,,,,,,,,,,,,,,,,,,,,,,,,,,,
,,6171165b0a955ac648f01d30,2026-03-17_16h08.58.738,kallum_motion_pilot_GIST_update_2,2026.1.1,Win32,30.03003003,6171165b0a955ac648f01d30,69b95efdef24cd8a694e89ee,69b9600b7c82187620f679d3,0.0785,0.0785,1,9,171,49,1,onethree,,,,,,,,,,,,,,,,,,,,,,,,,,,,,,,,,,,,,,,,,,,,,,,,,,,,,,,,,,,,,,,,,,,,,,,,,,,,,,,,,,,,,,,,,,,,,,,,,,,,,,,,,,,,,,,,,,,,,,,,,,,,,,,,,,,,,,,,,
,,6171165b0a955ac648f01d30,2026-03-17_16h08.58.738,kallum_motion_pilot_GIST_update_2,2026.1.1,Win32,30.03003003,6171165b0a955ac648f01d30,69b95efdef24cd8a694e89ee,69b9600b7c82187620f679d3,0.0787,0.0787,1,10,172,131,1,sixeight,,,,,,,,,,,,,,,,,,,,,,,,,,,,,,,,,,,,,,,,,,,,,,,,,,,,,,,,,,,,,,,,,,,,,,,,,,,,,,,,,,,,,,,,,,,,,,,,,,,,,,,,,,,,,,,,,,,,,,,,,,,,,,,,,,,,,,,,,
,,6171165b0a955ac648f01d30,2026-03-17_16h08.58.738,kallum_motion_pilot_GIST_update_2,2026.1.1,Win32,30.03003003,6171165b0a955ac648f01d30,69b95efdef24cd8a694e89ee,69b9600b7c82187620f679d3,0.0788,0.0788,1,11,173,109,1,seveneight,,,,,,,,,,,,,,,,,,,,,,,,,,,,,,,,,,,,,,,,,,,,,,,,,,,,,,,,,,,,,,,,,,,,,,,,,,,,,,,,,,,,,,,,,,,,,,,,,,,,,,,,,,,,,,,,,,,,,,,,,,,,,,,,,,,,,,,,,
,,6171165b0a955ac648f01d30,2026-03-17_16h08.58.738,kallum_motion_pilot_GIST_update_2,2026.1.1,Win32,30.03003003,6171165b0a955ac648f01d30,69b95efdef24cd8a694e89ee,69b9600b7c82187620f679d3,0.0792,0.0793,1,12,174,52,1,threeone,,,,,,,,,,,,,,,,,,,,,,,,,,,,,,,,,,,,,,,,,,,,,,,,,,,,,,,,,,,,,,,,,,,,,,,,,,,,,,,,,,,,,,,,,,,,,,,,,,,,,,,,,,,,,,,,,,,,,,,,,,,,,,,,,,,,,,,,,
,,6171165b0a955ac648f01d30,2026-03-17_16h08.58.738,kallum_motion_pilot_GIST_update_2,2026.1.1,Win32,30.03003003,6171165b0a955ac648f01d30,69b95efdef24cd8a694e89ee,69b9600b7c82187620f679d3,0.0796,0.0796,1,13,175,64,1,onetwo,,,,,,,,,,,,,,,,,,,,,,,,,,,,,,,,,,,,,,,,,,,,,,,,,,,,,,,,,,,,,,,,,,,,,,,,,,,,,,,,,,,,,,,,,,,,,,,,,,,,,,,,,,,,,,,,,,,,,,,,,,,,,,,,,,,,,,,,,
,,6171165b0a955ac648f01d30,2026-03-17_16h08.58.738,kallum_motion_pilot_GIST_update_2,2026.1.1,Win32,30.03003003,6171165b0a955ac648f01d30,69b95efdef24cd8a694e89ee,69b9600b7c82187620f679d3,0.0801,0.0802,1,14,176,30,1,fourtwo,,,,,,,,,,,,,,,,,,,,,,,,,,,,,,,,,,,,,,,,,,,,,,,,,,,,,,,,,,,,,,,,,,,,,,,,,,,,,,,,,,,,,,,,,,,,,,,,,,,,,,,,,,,,,,,,,,,,,,,,,,,,,,,,,,,,,,,,,
,,6171165b0a955ac648f01d30,2026-03-17_16h08.58.738,kallum_motion_pilot_GIST_update_2,2026.1.1,Win32,30.03003003,6171165b0a955ac648f01d30,69b95efdef24cd8a694e89ee,69b9600b7c82187620f679d3,0.0806,0.0806,1,15,177,153,1,fiveseven,,,,,,,,,,,,,,,,,,,,,,,,,,,,,,,,,,,,,,,,,,,,,,,,,,,,,,,,,,,,,,,,,,,,,,,,,,,,,,,,,,,,,,,,,,,,,,,,,,,,,,,,,,,,,,,,,,,,,,,,,,,,,,,,,,,,,,,,,
,,6171165b0a955ac648f01d30,2026-03-17_16h08.58.738,kallum_motion_pilot_GIST_update_2,2026.1.1,Win32,30.03003003,6171165b0a955ac648f01d30,69b95efdef24cd8a694e89ee,69b9600b7c82187620f679d3,0.0808,0.0808,1,16,178,73,1,onethree,,,,,,,,,,,,,,,,,,,,,,,,,,,,,,,,,,,,,,,,,,,,,,,,,,,,,,,,,,,,,,,,,,,,,,,,,,,,,,,,,,,,,,,,,,,,,,,,,,,,,,,,,,,,,,,,,,,,,,,,,,,,,,,,,,,,,,,,,
,,6171165b0a955ac648f01d30,2026-03-17_16h08.58.738,kallum_motion_pilot_GIST_update_2,2026.1.1,Win32,30.03003003,6171165b0a955ac648f01d30,69b95efdef24cd8a694e89ee,69b9600b7c82187620f679d3,0.081,0.081,1,17,179,103,1,eightseven,,,,,,,,,,,,,,,,,,,,,,,,,,,,,,,,,,,,,,,,,,,,,,,,,,,,,,,,,,,,,,,,,,,,,,,,,,,,,,,,,,,,,,,,,,,,,,,,,,,,,,,,,,,,,,,,,,,,,,,,,,,,,,,,,,,,,,,,,
,,6171165b0a955ac648f01d30,2026-03-17_16h08.58.738,kallum_motion_pilot_GIST_update_2,2026.1.1,Win32,30.03003003,6171165b0a955ac648f01d30,69b95efdef24cd8a694e89ee,69b9600b7c82187620f679d3,0.0811,0.0811,1,18,180,98,1,sixfive,,,,,,,,,,,,,,,,,,,,,,,,,,,,,,,,,,,,,,,,,,,,,,,,,,,,,,,,,,,,,,,,,,,,,,,,,,,,,,,,,,,,,,,,,,,,,,,,,,,,,,,,,,,,,,,,,,,,,,,,,,,,,,,,,,,,,,,,,
,,6171165b0a955ac648f01d30,2026-03-17_16h08.58.738,kallum_motion_pilot_GIST_update_2,2026.1.1,Win32,30.03003003,6171165b0a955ac648f01d30,69b95efdef24cd8a694e89ee,69b9600b7c82187620f679d3,0.0815,0.0815,1,19,181,79,1,eightseven,,,,,,,,,,,,,,,,,,,,,,,,,,,,,,,,,,,,,,,,,,,,,,,,,,,,,,,,,,,,,,,,,,,,,,,,,,,,,,,,,,,,,,,,,,,,,,,,,,,,,,,,,,,,,,,,,,,,,,,,,,,,,,,,,,,,,,,,,
,,6171165b0a955ac648f01d30,2026-03-17_16h08.58.738,kallum_motion_pilot_GIST_update_2,2026.1.1,Win32,30.03003003,6171165b0a955ac648f01d30,69b95efdef24cd8a694e89ee,69b9600b7c82187620f679d3,0.0818,0.0819,1,20,182,43,1,twofour,,,,,,,,,,,,,,,,,,,,,,,,,,,,,,,,,,,,,,,,,,,,,,,,,,,,,,,,,,,,,,,,,,,,,,,,,,,,,,,,,,,,,,,,,,,,,,,,,,,,,,,,,,,,,,,,,,,,,,,,,,,,,,,,,,,,,,,,,
,,6171165b0a955ac648f01d30,2026-03-17_16h08.58.738,kallum_motion_pilot_GIST_update_2,2026.1.1,Win32,30.03003003,6171165b0a955ac648f01d30,69b95efdef24cd8a694e89ee,69b9600b7c82187620f679d3,0.0822,0.0822,1,21,183,71,1,fourthree,,,,,,,,,,,,,,,,,,,,,,,,,,,,,,,,,,,,,,,,,,,,,,,,,,,,,,,,,,,,,,,,,,,,,,,,,,,,,,,,,,,,,,,,,,,,,,,,,,,,,,,,,,,,,,,,,,,,,,,,,,,,,,,,,,,,,,,,,
,,6171165b0a955ac648f01d30,2026-03-17_16h08.58.738,kallum_motion_pilot_GIST_update_2,2026.1.1,Win32,30.03003003,6171165b0a955ac648f01d30,69b95efdef24cd8a694e89ee,69b9600b7c82187620f679d3,0.0825,0.0825,1,22,184,142,1,eightsix,,,,,,,,,,,,,,,,,,,,,,,,,,,,,,,,,,,,,,,,,,,,,,,,,,,,,,,,,,,,,,,,,,,,,,,,,,,,,,,,,,,,,,,,,,,,,,,,,,,,,,,,,,,,,,,,,,,,,,,,,,,,,,,,,,,,,,,,,
,,6171165b0a955ac648f01d30,2026-03-17_16h08.58.738,kallum_motion_pilot_GIST_update_2,2026.1.1,Win32,30.03003003,6171165b0a955ac648f01d30,69b95efdef24cd8a694e89ee,69b9600b7c82187620f679d3,0.0827,0.0827,1,23,185,121,1,fiveseven,,,,,,,,,,,,,,,,,,,,,,,,,,,,,,,,,,,,,,,,,,,,,,,,,,,,,,,,,,,,,,,,,,,,,,,,,,,,,,,,,,,,,,,,,,,,,,,,,,,,,,,,,,,,,,,,,,,,,,,,,,,,,,,,,,,,,,,,,
,,6171165b0a955ac648f01d30,2026-03-17_16h08.58.738,kallum_motion_pilot_GIST_update_2,2026.1.1,Win32,30.03003003,6171165b0a955ac648f01d30,69b95efdef24cd8a694e89ee,69b9600b7c82187620f679d3,0.083,0.083,1,24,186,35,1,twofour,,,,,,,,,,,,,,,,,,,,,,,,,,,,,,,,,,,,,,,,,,,,,,,,,,,,,,,,,,,,,,,,,,,,,,,,,,,,,,,,,,,,,,,,,,,,,,,,,,,,,,,,,,,,,,,,,,,,,,,,,,,,,,,,,,,,,,,,,
,,6171165b0a955ac648f01d30,2026-03-17_16h08.58.738,kallum_motion_pilot_GIST_update_2,2026.1.1,Win32,30.03003003,6171165b0a955ac648f01d30,69b95efdef24cd8a694e89ee,69b9600b7c82187620f679d3,0.0834,0.0834,1,25,187,22,1,fourtwo,,,,,,,,,,,,,,,,,,,,,,,,,,,,,,,,,,,,,,,,,,,,,,,,,,,,,,,,,,,,,,,,,,,,,,,,,,,,,,,,,,,,,,,,,,,,,,,,,,,,,,,,,,,,,,,,,,,,,,,,,,,,,,,,,,,,,,,,,
,,6171165b0a955ac648f01d30,2026-03-17_16h08.58.738,kallum_motion_pilot_GIST_update_2,2026.1.1,Win32,30.03003003,6171165b0a955ac648f01d30,69b95efdef24cd8a694e89ee,69b9600b7c82187620f679d3,0.0836,0.0837,1,26,188,144,1,fivesix,,,,,,,,,,,,,,,,,,,,,,,,,,,,,,,,,,,,,,,,,,,,,,,,,,,,,,,,,,,,,,,,,,,,,,,,,,,,,,,,,,,,,,,,,,,,,,,,,,,,,,,,,,,,,,,,,,,,,,,,,,,,,,,,,,,,,,,,,
,,6171165b0a955ac648f01d30,2026-03-17_16h08.58.738,kallum_motion_pilot_GIST_update_2,2026.1.1,Win32,30.03003003,6171165b0a955ac648f01d30,69b95efdef24cd8a694e89ee,69b9600b7c82187620f679d3,0.0841,0.0841,1,27,189,134,1,eightsix,,,,,,,,,,,,,,,,,,,,,,,,,,,,,,,,,,,,,,,,,,,,,,,,,,,,,,,,,,,,,,,,,,,,,,,,,,,,,,,,,,,,,,,,,,,,,,,,,,,,,,,,,,,,,,,,,,,,,,,,,,,,,,,,,,,,,,,,,
,,6171165b0a955ac648f01d30,2026-03-17_16h08.58.738,kallum_motion_pilot_GIST_update_2,2026.1.1,Win32,30.03003003,6171165b0a955ac648f01d30,69b95efdef24cd8a694e89ee,69b9600b7c82187620f679d3,0.0846,0.0846,1,28,190,50,1,twoone,,,,,,,,,,,,,,,,,,,,,,,,,,,,,,,,,,,,,,,,,,,,,,,,,,,,,,,,,,,,,,,,,,,,,,,,,,,,,,,,,,,,,,,,,,,,,,,,,,,,,,,,,,,,,,,,,,,,,,,,,,,,,,,,,,,,,,,,,
,,6171165b0a955ac648f01d30,2026-03-17_16h08.58.738,kallum_motion_pilot_GIST_update_2,2026.1.1,Win32,30.03003003,6171165b0a955ac648f01d30,69b95efdef24cd8a694e89ee,69b9600b7c82187620f679d3,0.085,0.085,1,29,191,107,1,sixeight,,,,,,,,,,,,,,,,,,,,,,,,,,,,,,,,,,,,,,,,,,,,,,,,,,,,,,,,,,,,,,,,,,,,,,,,,,,,,,,,,,,,,,,,,,,,,,,,,,,,,,,,,,,,,,,,,,,,,,,,,,,,,,,,,,,,,,,,,
,,6171165b0a955ac648f01d30,2026-03-17_16h08.58.738,kallum_motion_pilot_GIST_update_2,2026.1.1,Win32,30.03003003,6171165b0a955ac648f01d30,69b95efdef24cd8a694e89ee,69b9600b7c82187620f679d3,0.0855,0.0855,1,30,192,15,1,fourthree,,,,,,,,,,,,,,,,,,,,,,,,,,,,,,,,,,,,,,,,,,,,,,,,,,,,,,,,,,,,,,,,,,,,,,,,,,,,,,,,,,,,,,,,,,,,,,,,,,,,,,,,,,,,,,,,,,,,,,,,,,,,,,,,,,,,,,,,,
,,6171165b0a955ac648f01d30,2026-03-17_16h08.58.738,kallum_motion_pilot_GIST_update_2,2026.1.1,Win32,30.03003003,6171165b0a955ac648f01d30,69b95efdef24cd8a694e89ee,69b9600b7c82187620f679d3,0.086,0.086,1,31,193,106,1,sixfive,,,,,,,,,,,,,,,,,,,,,,,,,,,,,,,,,,,,,,,,,,,,,,,,,,,,,,,,,,,,,,,,,,,,,,,,,,,,,,,,,,,,,,,,,,,,,,,,,,,,,,,,,,,,,,,,,,,,,,,,,,,,,,,,,,,,,,,,,
,,6171165b0a955ac648f01d30,2026-03-17_16h08.58.738,kallum_motion_pilot_GIST_update_2,2026.1.1,Win32,30.03003003,6171165b0a955ac648f01d30,69b95efdef24cd8a694e89ee,69b9600b7c82187620f679d3,0.0865,0.0866,1,32,194,55,1,fourthree,,,,,,,,,,,,,,,,,,,,,,,,,,,,,,,,,,,,,,,,,,,,,,,,,,,,,,,,,,,,,,,,,,,,,,,,,,,,,,,,,,,,,,,,,,,,,,,,,,,,,,,,,,,,,,,,,,,,,,,,,,,,,,,,,,,,,,,,,
,,6171165b0a955ac648f01d30,2026-03-17_16h08.58.738,kallum_motion_pilot_GIST_update_2,2026.1.1,Win32,30.03003003,6171165b0a955ac648f01d30,69b95efdef24cd8a694e89ee,69b9600b7c82187620f679d3,0.087,0.0871,1,33,195,80,1,fivesix,,,,,,,,,,,,,,,,,,,,,,,,,,,,,,,,,,,,,,,,,,,,,,,,,,,,,,,,,,,,,,,,,,,,,,,,,,,,,,,,,,,,,,,,,,,,,,,,,,,,,,,,,,,,,,,,,,,,,,,,,,,,,,,,,,,,,,,,,
,,6171165b0a955ac648f01d30,2026-03-17_16h08.58.738,kallum_motion_pilot_GIST_update_2,2026.1.1,Win32,30.03003003,6171165b0a955ac648f01d30,69b95efdef24cd8a694e89ee,69b9600b7c82187620f679d3,0.0876,0.0876,1,34,196,6,1,fourtwo,,,,,,,,,,,,,,,,,,,,,,,,,,,,,,,,,,,,,,,,,,,,,,,,,,,,,,,,,,,,,,,,,,,,,,,,,,,,,,,,,,,,,,,,,,,,,,,,,,,,,,,,,,,,,,,,,,,,,,,,,,,,,,,,,,,,,,,,,
,,6171165b0a955ac648f01d30,2026-03-17_16h08.58.738,kallum_motion_pilot_GIST_update_2,2026.1.1,Win32,30.03003003,6171165b0a955ac648f01d30,69b95efdef24cd8a694e89ee,69b9600b7c82187620f679d3,0.0881,0.0882,1,35,197,124,1,sevenfive,,,,,,,,,,,,,,,,,,,,,,,,,,,,,,,,,,,,,,,,,,,,,,,,,,,,,,,,,,,,,,,,,,,,,,,,,,,,,,,,,,,,,,,,,,,,,,,,,,,,,,,,,,,,,,,,,,,,,,,,,,,,,,,,,,,,,,,,,
,,6171165b0a955ac648f01d30,2026-03-17_16h08.58.738,kallum_motion_pilot_GIST_update_2,2026.1.1,Win32,30.03003003,6171165b0a955ac648f01d30,69b95efdef24cd8a694e89ee,69b9600b7c82187620f679d3,0.0887,0.0887,1,36,198,56,1,onetwo,,,,,,,,,,,,,,,,,,,,,,,,,,,,,,,,,,,,,,,,,,,,,,,,,,,,,,,,,,,,,,,,,,,,,,,,,,,,,,,,,,,,,,,,,,,,,,,,,,,,,,,,,,,,,,,,,,,,,,,,,,,,,,,,,,,,,,,,,
,,6171165b0a955ac648f01d30,2026-03-17_16h08.58.738,kallum_motion_pilot_GIST_update_2,2026.1.1,Win32,30.03003003,6171165b0a955ac648f01d30,69b95efdef24cd8a694e89ee,69b9600b7c82187620f679d3,0.0891,0.0891,1,37,199,37,1,threefour,,,,,,,,,,,,,,,,,,,,,,,,,,,,,,,,,,,,,,,,,,,,,,,,,,,,,,,,,,,,,,,,,,,,,,,,,,,,,,,,,,,,,,,,,,,,,,,,,,,,,,,,,,,,,,,,,,,,,,,,,,,,,,,,,,,,,,,,,
,,6171165b0a955ac648f01d30,2026-03-17_16h08.58.738,kallum_motion_pilot_GIST_update_2,2026.1.1,Win32,30.03003003,6171165b0a955ac648f01d30,69b95efdef24cd8a694e89ee,69b9600b7c82187620f679d3,0.0894,0.0894,1,38,200,21,1,threefour,,,,,,,,,,,,,,,,,,,,,,,,,,,,,,,,,,,,,,,,,,,,,,,,,,,,,,,,,,,,,,,,,,,,,,,,,,,,,,,,,,,,,,,,,,,,,,,,,,,,,,,,,,,,,,,,,,,,,,,,,,,,,,,,,,,,,,,,,
,,6171165b0a955ac648f01d30,2026-03-17_16h08.58.738,kallum_motion_pilot_GIST_update_2,2026.1.1,Win32,30.03003003,6171165b0a955ac648f01d30,69b95efdef24cd8a694e89ee,69b9600b7c82187620f679d3,0.0897,0.0897,1,39,201,11,1,twofour,,,,,,,,,,,,,,,,,,,,,,,,,,,,,,,,,,,,,,,,,,,,,,,,,,,,,,,,,,,,,,,,,,,,,,,,,,,,,,,,,,,,,,,,,,,,,,,,,,,,,,,,,,,,,,,,,,,,,,,,,,,,,,,,,,,,,,,,,
,,6171165b0a955ac648f01d30,2026-03-17_16h08.58.738,kallum_motion_pilot_GIST_update_2,2026.1.1,Win32,30.03003003,6171165b0a955ac648f01d30,69b95efdef24cd8a694e89ee,69b9600b7c82187620f679d3,0.09,0.09,1,40,202,14,1,fourtwo,,,,,,,,,,,,,,,,,,,,,,,,,,,,,,,,,,,,,,,,,,,,,,,,,,,,,,,,,,,,,,,,,,,,,,,,,,,,,,,,,,,,,,,,,,,,,,,,,,,,,,,,,,,,,,,,,,,,,,,,,,,,,,,,,,,,,,,,,
,,6171165b0a955ac648f01d30,2026-03-17_16h08.58.738,kallum_motion_pilot_GIST_update_2,2026.1.1,Win32,30.03003003,6171165b0a955ac648f01d30,69b95efdef24cd8a694e89ee,69b9600b7c82187620f679d3,0.0902,0.0902,1,41,203,47,1,fourthree,,,,,,,,,,,,,,,,,,,,,,,,,,,,,,,,,,,,,,,,,,,,,,,,,,,,,,,,,,,,,,,,,,,,,,,,,,,,,,,,,,,,,,,,,,,,,,,,,,,,,,,,,,,,,,,,,,,,,,,,,,,,,,,,,,,,,,,,,
,,6171165b0a955ac648f01d30,2026-03-17_16h08.58.738,kallum_motion_pilot_GIST_update_2,2026.1.1,Win32,30.03003003,6171165b0a955ac648f01d30,69b95efdef24cd8a694e89ee,69b9600b7c82187620f679d3,0.0904,0.0904,1,42,204,69,1,threefour,,,,,,,,,,,,,,,,,,,,,,,,,,,,,,,,,,,,,,,,,,,,,,,,,,,,,,,,,,,,,,,,,,,,,,,,,,,,,,,,,,,,,,,,,,,,,,,,,,,,,,,,,,,,,,,,,,,,,,,,,,,,,,,,,,,,,,,,,
,,6171165b0a955ac648f01d30,2026-03-17_16h08.58.738,kallum_motion_pilot_GIST_update_2,2026.1.1,Win32,30.03003003,6171165b0a955ac648f01d30,69b95efdef24cd8a694e89ee,69b9600b7c82187620f679d3,0.0905,0.0905,1,43,205,44,1,threeone,,,,,,,,,,,,,,,,,,,,,,,,,,,,,,,,,,,,,,,,,,,,,,,,,,,,,,,,,,,,,,,,,,,,,,,,,,,,,,,,,,,,,,,,,,,,,,,,,,,,,,,,,,,,,,,,,,,,,,,,,,,,,,,,,,,,,,,,,
,,6171165b0a955ac648f01d30,2026-03-17_16h08.58.738,kallum_motion_pilot_GIST_update_2,2026.1.1,Win32,30.03003003,6171165b0a955ac648f01d30,69b95efdef24cd8a694e89ee,69b9600b7c82187620f679d3,0.0907,0.0907,1,44,206,24,1,onetwo,,,,,,,,,,,,,,,,,,,,,,,,,,,,,,,,,,,,,,,,,,,,,,,,,,,,,,,,,,,,,,,,,,,,,,,,,,,,,,,,,,,,,,,,,,,,,,,,,,,,,,,,,,,,,,,,,,,,,,,,,,,,,,,,,,,,,,,,,
,,6171165b0a955ac648f01d30,2026-03-17_16h08.58.738,kallum_motion_pilot_GIST_update_2,2026.1.1,Win32,30.03003003,6171165b0a955ac648f01d30,69b95efdef24cd8a694e89ee,69b9600b7c82187620f679d3,0.091,0.091,1,45,207,89,1,fiveseven,,,,,,,,,,,,,,,,,,,,,,,,,,,,,,,,,,,,,,,,,,,,,,,,,,,,,,,,,,,,,,,,,,,,,,,,,,,,,,,,,,,,,,,,,,,,,,,,,,,,,,,,,,,,,,,,,,,,,,,,,,,,,,,,,,,,,,,,,
,,6171165b0a955ac648f01d30,2026-03-17_16h08.58.738,kallum_motion_pilot_GIST_update_2,2026.1.1,Win32,30.03003003,6171165b0a955ac648f01d30,69b95efdef24cd8a694e89ee,69b9600b7c82187620f679d3,0.0912,0.0912,1,46,208,28,1,threeone,,,,,,,,,,,,,,,,,,,,,,,,,,,,,,,,,,,,,,,,,,,,,,,,,,,,,,,,,,,,,,,,,,,,,,,,,,,,,,,,,,,,,,,,,,,,,,,,,,,,,,,,,,,,,,,,,,,,,,,,,,,,,,,,,,,,,,,,,
,,6171165b0a955ac648f01d30,2026-03-17_16h08.58.738,kallum_motion_pilot_GIST_update_2,2026.1.1,Win32,30.03003003,6171165b0a955ac648f01d30,69b95efdef24cd8a694e89ee,69b9600b7c82187620f679d3,0.0914,0.0915,1,47,209,111,1,eightseven,,,,,,,,,,,,,,,,,,,,,,,,,,,,,,,,,,,,,,,,,,,,,,,,,,,,,,,,,,,,,,,,,,,,,,,,,,,,,,,,,,,,,,,,,,,,,,,,,,,,,,,,,,,,,,,,,,,,,,,,,,,,,,,,,,,,,,,,,
,,6171165b0a955ac648f01d30,2026-03-17_16h08.58.738,kallum_motion_pilot_GIST_update_2,2026.1.1,Win32,30.03003003,6171165b0a955ac648f01d30,69b95efdef24cd8a694e89ee,69b9600b7c82187620f679d3,0.0917,0.0917,1,48,210,51,1,twofour,,,,,,,,,,,,,,,,,,,,,,,,,,,,,,,,,,,,,,,,,,,,,,,,,,,,,,,,,,,,,,,,,,,,,,,,,,,,,,,,,,,,,,,,,,,,,,,,,,,,,,,,,,,,,,,,,,,,,,,,,,,,,,,,,,,,,,,,,
,,6171165b0a955ac648f01d30,2026-03-17_16h08.58.738,kallum_motion_pilot_GIST_update_2,2026.1.1,Win32,30.03003003,6171165b0a955ac648f01d30,69b95efdef24cd8a694e89ee,69b9600b7c82187620f679d3,0.092,0.092,1,49,211,41,1,onethree,,,,,,,,,,,,,,,,,,,,,,,,,,,,,,,,,,,,,,,,,,,,,,,,,,,,,,,,,,,,,,,,,,,,,,,,,,,,,,,,,,,,,,,,,,,,,,,,,,,,,,,,,,,,,,,,,,,,,,,,,,,,,,,,,,,,,,,,,
,,6171165b0a955ac648f01d30,2026-03-17_16h08.58.738,kallum_motion_pilot_GIST_update_2,2026.1.1,Win32,30.03003003,6171165b0a955ac648f01d30,69b95efdef24cd8a694e89ee,69b9600b7c82187620f679d3,0.0921,0.0921,1,50,212,117,1,seveneight,,,,,,,,,,,,,,,,,,,,,,,,,,,,,,,,,,,,,,,,,,,,,,,,,,,,,,,,,,,,,,,,,,,,,,,,,,,,,,,,,,,,,,,,,,,,,,,,,,,,,,,,,,,,,,,,,,,,,,,,,,,,,,,,,,,,,,,,,
,,6171165b0a955ac648f01d30,2026-03-17_16h08.58.738,kallum_motion_pilot_GIST_update_2,2026.1.1,Win32,30.03003003,6171165b0a955ac648f01d30,69b95efdef24cd8a694e89ee,69b9600b7c82187620f679d3,0.0922,0.0923,1,51,213,34,1,twoone,,,,,,,,,,,,,,,,,,,,,,,,,,,,,,,,,,,,,,,,,,,,,,,,,,,,,,,,,,,,,,,,,,,,,,,,,,,,,,,,,,,,,,,,,,,,,,,,,,,,,,,,,,,,,,,,,,,,,,,,,,,,,,,,,,,,,,,,,
,,6171165b0a955ac648f01d30,2026-03-17_16h08.58.738,kallum_motion_pilot_GIST_update_2,2026.1.1,Win32,30.03003003,6171165b0a955ac648f01d30,69b95efdef24cd8a694e89ee,69b9600b7c82187620f679d3,0.0924,0.0925,1,52,214,20,1,threeone,,,,,,,,,,,,,,,,,,,,,,,,,,,,,,,,,,,,,,,,,,,,,,,,,,,,,,,,,,,,,,,,,,,,,,,,,,,,,,,,,,,,,,,,,,,,,,,,,,,,,,,,,,,,,,,,,,,,,,,,,,,,,,,,,,,,,,,,,
,,6171165b0a955ac648f01d30,2026-03-17_16h08.58.738,kallum_motion_pilot_GIST_update_2,2026.1.1,Win32,30.03003003,6171165b0a955ac648f01d30,69b95efdef24cd8a694e89ee,69b9600b7c82187620f679d3,0.0927,0.0927,1,53,215,95,1,eightseven,,,,,,,,,,,,,,,,,,,,,,,,,,,,,,,,,,,,,,,,,,,,,,,,,,,,,,,,,,,,,,,,,,,,,,,,,,,,,,,,,,,,,,,,,,,,,,,,,,,,,,,,,,,,,,,,,,,,,,,,,,,,,,,,,,,,,,,,,
,,6171165b0a955ac648f01d30,2026-03-17_16h08.58.738,kallum_motion_pilot_GIST_update_2,2026.1.1,Win32,30.03003003,6171165b0a955ac648f01d30,69b95efdef24cd8a694e89ee,69b9600b7c82187620f679d3,0.0929,0.0929,1,54,216,77,1,threefour,,,,,,,,,,,,,,,,,,,,,,,,,,,,,,,,,,,,,,,,,,,,,,,,,,,,,,,,,,,,,,,,,,,,,,,,,,,,,,,,,,,,,,,,,,,,,,,,,,,,,,,,,,,,,,,,,,,,,,,,,,,,,,,,,,,,,,,,,
,,6171165b0a955ac648f01d30,2026-03-17_16h08.58.738,kallum_motion_pilot_GIST_update_2,2026.1.1,Win32,30.03003003,6171165b0a955ac648f01d30,69b95efdef24cd8a694e89ee,69b9600b7c82187620f679d3,0.0931,0.0931,1,55,217,59,1,twofour,,,,,,,,,,,,,,,,,,,,,,,,,,,,,,,,,,,,,,,,,,,,,,,,,,,,,,,,,,,,,,,,,,,,,,,,,,,,,,,,,,,,,,,,,,,,,,,,,,,,,,,,,,,,,,,,,,,,,,,,,,,,,,,,,,,,,,,,,
,,6171165b0a955ac648f01d30,2026-03-17_16h08.58.738,kallum_motion_pilot_GIST_update_2,2026.1.1,Win32,30.03003003,6171165b0a955ac648f01d30,69b95efdef24cd8a694e89ee,69b9600b7c82187620f679d3,0.0933,0.0933,1,56,218,83,1,sixeight,,,,,,,,,,,,,,,,,,,,,,,,,,,,,,,,,,,,,,,,,,,,,,,,,,,,,,,,,,,,,,,,,,,,,,,,,,,,,,,,,,,,,,,,,,,,,,,,,,,,,,,,,,,,,,,,,,,,,,,,,,,,,,,,,,,,,,,,,
,,6171165b0a955ac648f01d30,2026-03-17_16h08.58.738,kallum_motion_pilot_GIST_update_2,2026.1.1,Win32,30.03003003,6171165b0a955ac648f01d30,69b95efdef24cd8a694e89ee,69b9600b7c82187620f679d3,0.0935,0.0935,1,57,219,31,1,fourthree,,,,,,,,,,,,,,,,,,,,,,,,,,,,,,,,,,,,,,,,,,,,,,,,,,,,,,,,,,,,,,,,,,,,,,,,,,,,,,,,,,,,,,,,,,,,,,,,,,,,,,,,,,,,,,,,,,,,,,,,,,,,,,,,,,,,,,,,,
,,6171165b0a955ac648f01d30,2026-03-17_16h08.58.738,kallum_motion_pilot_GIST_update_2,2026.1.1,Win32,30.03003003,6171165b0a955ac648f01d30,69b95efdef24cd8a694e89ee,69b9600b7c82187620f679d3,0.0936,0.0936,1,58,220,17,1,onethree,,,,,,,,,,,,,,,,,,,,,,,,,,,,,,,,,,,,,,,,,,,,,,,,,,,,,,,,,,,,,,,,,,,,,,,,,,,,,,,,,,,,,,,,,,,,,,,,,,,,,,,,,,,,,,,,,,,,,,,,,,,,,,,,,,,,,,,,,
,,6171165b0a955ac648f01d30,2026-03-17_16h08.58.738,kallum_motion_pilot_GIST_update_2,2026.1.1,Win32,30.03003003,6171165b0a955ac648f01d30,69b95efdef24cd8a694e89ee,69b9600b7c82187620f679d3,0.0937,0.0937,1,59,221,88,1,fivesix,,,,,,,,,,,,,,,,,,,,,,,,,,,,,,,,,,,,,,,,,,,,,,,,,,,,,,,,,,,,,,,,,,,,,,,,,,,,,,,,,,,,,,,,,,,,,,,,,,,,,,,,,,,,,,,,,,,,,,,,,,,,,,,,,,,,,,,,,
,,6171165b0a955ac648f01d30,2026-03-17_16h08.58.738,kallum_motion_pilot_GIST_update_2,2026.1.1,Win32,30.03003003,6171165b0a955ac648f01d30,69b95efdef24cd8a694e89ee,69b9600b7c82187620f679d3,0.0939,0.0939,1,60,222,87,1,eightseven,,,,,,,,,,,,,,,,,,,,,,,,,,,,,,,,,,,,,,,,,,,,,,,,,,,,,,,,,,,,,,,,,,,,,,,,,,,,,,,,,,,,,,,,,,,,,,,,,,,,,,,,,,,,,,,,,,,,,,,,,,,,,,,,,,,,,,,,,
,,6171165b0a955ac648f01d30,2026-03-17_16h08.58.738,kallum_motion_pilot_GIST_update_2,2026.1.1,Win32,30.03003003,6171165b0a955ac648f01d30,69b95efdef24cd8a694e89ee,69b9600b7c82187620f679d3,0.0942,0.0942,1,61,223,0,1,onetwo,,,,,,,,,,,,,,,,,,,,,,,,,,,,,,,,,,,,,,,,,,,,,,,,,,,,,,,,,,,,,,,,,,,,,,,,,,,,,,,,,,,,,,,,,,,,,,,,,,,,,,,,,,,,,,,,,,,,,,,,,,,,,,,,,,,,,,,,,
,,6171165b0a955ac648f01d30,2026-03-17_16h08.58.738,kallum_motion_pilot_GIST_update_2,2026.1.1,Win32,30.03003003,6171165b0a955ac648f01d30,69b95efdef24cd8a694e89ee,69b9600b7c82187620f679d3,0.0945,0.0945,1,62,224,145,1,fiveseven,,,,,,,,,,,,,,,,,,,,,,,,,,,,,,,,,,,,,,,,,,,,,,,,,,,,,,,,,,,,,,,,,,,,,,,,,,,,,,,,,,,,,,,,,,,,,,,,,,,,,,,,,,,,,,,,,,,,,,,,,,,,,,,,,,,,,,,,,
,,6171165b0a955ac648f01d30,2026-03-17_16h08.58.738,kallum_motion_pilot_GIST_update_2,2026.1.1,Win32,30.03003003,6171165b0a955ac648f01d30,69b95efdef24cd8a694e89ee,69b9600b7c82187620f679d3,0.0946,0.0947,1,63,225,5,1,threefour,,,,,,,,,,,,,,,,,,,,,,,,,,,,,,,,,,,,,,,,,,,,,,,,,,,,,,,,,,,,,,,,,,,,,,,,,,,,,,,,,,,,,,,,,,,,,,,,,,,,,,,,,,,,,,,,,,,,,,,,,,,,,,,,,,,,,,,,,
,,6171165b0a955ac648f01d30,2026-03-17_16h08.58.738,kallum_motion_pilot_GIST_update_2,2026.1.1,Win32,30.03003003,6171165b0a955ac648f01d30,69b95efdef24cd8a694e89ee,69b9600b7c82187620f679d3,0.095,0.095,1,64,226,40,1,onetwo,,,,,,,,,,,,,,,,,,,,,,,,,,,,,,,,,,,,,,,,,,,,,,,,,,,,,,,,,,,,,,,,,,,,,,,,,,,,,,,,,,,,,,,,,,,,,,,,,,,,,,,,,,,,,,,,,,,,,,,,,,,,,,,,,,,,,,,,,
,,6171165b0a955ac648f01d30,2026-03-17_16h08.58.738,kallum_motion_pilot_GIST_update_2,2026.1.1,Win32,30.03003003,6171165b0a955ac648f01d30,69b95efdef24cd8a694e89ee,69b9600b7c82187620f679d3,0.0954,0.0954,1,65,227,13,1,threefour,,,,,,,,,,,,,,,,,,,,,,,,,,,,,,,,,,,,,,,,,,,,,,,,,,,,,,,,,,,,,,,,,,,,,,,,,,,,,,,,,,,,,,,,,,,,,,,,,,,,,,,,,,,,,,,,,,,,,,,,,,,,,,,,,,,,,,,,,
,,6171165b0a955ac648f01d30,2026-03-17_16h08.58.738,kallum_motion_pilot_GIST_update_2,2026.1.1,Win32,30.03003003,6171165b0a955ac648f01d30,69b95efdef24cd8a694e89ee,69b9600b7c82187620f679d3,0.0957,0.0957,1,66,228,75,1,twofour,,,,,,,,,,,,,,,,,,,,,,,,,,,,,,,,,,,,,,,,,,,,,,,,,,,,,,,,,,,,,,,,,,,,,,,,,,,,,,,,,,,,,,,,,,,,,,,,,,,,,,,,,,,,,,,,,,,,,,,,,,,,,,,,,,,,,,,,,
,,6171165b0a955ac648f01d30,2026-03-17_16h08.58.738,kallum_motion_pilot_GIST_update_2,2026.1.1,Win32,30.03003003,6171165b0a955ac648f01d30,69b95efdef24cd8a694e89ee,69b9600b7c82187620f679d3,0.0959,0.0959,1,67,229,25,1,onethree,,,,,,,,,,,,,,,,,,,,,,,,,,,,,,,,,,,,,,,,,,,,,,,,,,,,,,,,,,,,,,,,,,,,,,,,,,,,,,,,,,,,,,,,,,,,,,,,,,,,,,,,,,,,,,,,,,,,,,,,,,,,,,,,,,,,,,,,,
,,6171165b0a955ac648f01d30,2026-03-17_16h08.58.738,kallum_motion_pilot_GIST_update_2,2026.1.1,Win32,30.03003003,6171165b0a955ac648f01d30,69b95efdef24cd8a694e89ee,69b9600b7c82187620f679d3,0.0962,0.0962,1,68,230,1,1,onethree,,,,,,,,,,,,,,,,,,,,,,,,,,,,,,,,,,,,,,,,,,,,,,,,,,,,,,,,,,,,,,,,,,,,,,,,,,,,,,,,,,,,,,,,,,,,,,,,,,,,,,,,,,,,,,,,,,,,,,,,,,,,,,,,,,,,,,,,,
,,6171165b0a955ac648f01d30,2026-03-17_16h08.58.738,kallum_motion_pilot_GIST_update_2,2026.1.1,Win32,30.03003003,6171165b0a955ac648f01d30,69b95efdef24cd8a694e89ee,69b9600b7c82187620f679d3,0.0964,0.0965,1,69,231,147,1,sixeight,,,,,,,,,,,,,,,,,,,,,,,,,,,,,,,,,,,,,,,,,,,,,,,,,,,,,,,,,,,,,,,,,,,,,,,,,,,,,,,,,,,,,,,,,,,,,,,,,,,,,,,,,,,,,,,,,,,,,,,,,,,,,,,,,,,,,,,,,
,,6171165b0a955ac648f01d30,2026-03-17_16h08.58.738,kallum_motion_pilot_GIST_update_2,2026.1.1,Win32,30.03003003,6171165b0a955ac648f01d30,69b95efdef24cd8a694e89ee,69b9600b7c82187620f679d3,0.0967,0.0967,1,70,232,126,1,eightsix,,,,,,,,,,,,,,,,,,,,,,,,,,,,,,,,,,,,,,,,,,,,,,,,,,,,,,,,,,,,,,,,,,,,,,,,,,,,,,,,,,,,,,,,,,,,,,,,,,,,,,,,,,,,,,,,,,,,,,,,,,,,,,,,,,,,,,,,,
,,6171165b0a955ac648f01d30,2026-03-17_16h08.58.738,kallum_motion_pilot_GIST_update_2,2026.1.1,Win32,30.03003003,6171165b0a955ac648f01d30,69b95efdef24cd8a694e89ee,69b9600b7c82187620f679d3,0.0968,0.0969,1,71,233,10,1,twoone,,,,,,,,,,,,,,,,,,,,,,,,,,,,,,,,,,,,,,,,,,,,,,,,,,,,,,,,,,,,,,,,,,,,,,,,,,,,,,,,,,,,,,,,,,,,,,,,,,,,,,,,,,,,,,,,,,,,,,,,,,,,,,,,,,,,,,,,,
,,6171165b0a955ac648f01d30,2026-03-17_16h08.58.738,kallum_motion_pilot_GIST_update_2,2026.1.1,Win32,30.03003003,6171165b0a955ac648f01d30,69b95efdef24cd8a694e89ee,69b9600b7c82187620f679d3,0.097,0.097,1,72,234,160,1,fivesix,,,,,,,,,,,,,,,,,,,,,,,,,,,,,,,,,,,,,,,,,,,,,,,,,,,,,,,,,,,,,,,,,,,,,,,,,,,,,,,,,,,,,,,,,,,,,,,,,,,,,,,,,,,,,,,,,,,,,,,,,,,,,,,,,,,,,,,,,
,,6171165b0a955ac648f01d30,2026-03-17_16h08.58.738,kallum_motion_pilot_GIST_update_2,2026.1.1,Win32,30.03003003,6171165b0a955ac648f01d30,69b95efdef24cd8a694e89ee,69b9600b7c82187620f679d3,0.0972,0.0972,1,73,235,38,1,fourtwo,,,,,,,,,,,,,,,,,,,,,,,,,,,,,,,,,,,,,,,,,,,,,,,,,,,,,,,,,,,,,,,,,,,,,,,,,,,,,,,,,,,,,,,,,,,,,,,,,,,,,,,,,,,,,,,,,,,,,,,,,,,,,,,,,,,,,,,,,
,,6171165b0a955ac648f01d30,2026-03-17_16h08.58.738,kallum_motion_pilot_GIST_update_2,2026.1.1,Win32,30.03003003,6171165b0a955ac648f01d30,69b95efdef24cd8a694e89ee,69b9600b7c82187620f679d3,0.0973,0.0973,1,74,236,138,1,sixfive,,,,,,,,,,,,,,,,,,,,,,,,,,,,,,,,,,,,,,,,,,,,,,,,,,,,,,,,,,,,,,,,,,,,,,,,,,,,,,,,,,,,,,,,,,,,,,,,,,,,,,,,,,,,,,,,,,,,,,,,,,,,,,,,,,,,,,,,,
,,6171165b0a955ac648f01d30,2026-03-17_16h08.58.738,kallum_motion_pilot_GIST_update_2,2026.1.1,Win32,30.03003003,6171165b0a955ac648f01d30,69b95efdef24cd8a694e89ee,69b9600b7c82187620f679d3,0.0974,0.0974,1,75,237,143,1,eightseven,,,,,,,,,,,,,,,,,,,,,,,,,,,,,,,,,,,,,,,,,,,,,,,,,,,,,,,,,,,,,,,,,,,,,,,,,,,,,,,,,,,,,,,,,,,,,,,,,,,,,,,,,,,,,,,,,,,,,,,,,,,,,,,,,,,,,,,,,
,,6171165b0a955ac648f01d30,2026-03-17_16h08.58.738,kallum_motion_pilot_GIST_update_2,2026.1.1,Win32,30.03003003,6171165b0a955ac648f01d30,69b95efdef24cd8a694e89ee,69b9600b7c82187620f679d3,0.0975,0.0975,1,76,238,26,1,twoone,,,,,,,,,,,,,,,,,,,,,,,,,,,,,,,,,,,,,,,,,,,,,,,,,,,,,,,,,,,,,,,,,,,,,,,,,,,,,,,,,,,,,,,,,,,,,,,,,,,,,,,,,,,,,,,,,,,,,,,,,,,,,,,,,,,,,,,,,
,,6171165b0a955ac648f01d30,2026-03-17_16h08.58.738,kallum_motion_pilot_GIST_update_2,2026.1.1,Win32,30.03003003,6171165b0a955ac648f01d30,69b95efdef24cd8a694e89ee,69b9600b7c82187620f679d3,0.0977,0.0977,1,77,239,58,1,twoone,,,,,,,,,,,,,,,,,,,,,,,,,,,,,,,,,,,,,,,,,,,,,,,,,,,,,,,,,,,,,,,,,,,,,,,,,,,,,,,,,,,,,,,,,,,,,,,,,,,,,,,,,,,,,,,,,,,,,,,,,,,,,,,,,,,,,,,,,
,,6171165b0a955ac648f01d30,2026-03-17_16h08.58.738,kallum_motion_pilot_GIST_update_2,2026.1.1,Win32,30.03003003,6171165b0a955ac648f01d30,69b95efdef24cd8a694e89ee,69b9600b7c82187620f679d3,0.0978,0.0978,1,78,240,101,1,seveneight,,,,,,,,,,,,,,,,,,,,,,,,,,,,,,,,,,,,,,,,,,,,,,,,,,,,,,,,,,,,,,,,,,,,,,,,,,,,,,,,,,,,,,,,,,,,,,,,,,,,,,,,,,,,,,,,,,,,,,,,,,,,,,,,,,,,,,,,,
,,6171165b0a955ac648f01d30,2026-03-17_16h08.58.738,kallum_motion_pilot_GIST_update_2,2026.1.1,Win32,30.03003003,6171165b0a955ac648f01d30,69b95efdef24cd8a694e89ee,69b9600b7c82187620f679d3,0.098,0.098,1,79,241,91,1,sixeight,,,,,,,,,,,,,,,,,,,,,,,,,,,,,,,,,,,,,,,,,,,,,,,,,,,,,,,,,,,,,,,,,,,,,,,,,,,,,,,,,,,,,,,,,,,,,,,,,,,,,,,,,,,,,,,,,,,,,,,,,,,,,,,,,,,,,,,,,
,,6171165b0a955ac648f01d30,2026-03-17_16h08.58.738,kallum_motion_pilot_GIST_update_2,2026.1.1,Win32,30.03003003,6171165b0a955ac648f01d30,69b95efdef24cd8a694e89ee,69b9600b7c82187620f679d3,0.0982,0.0982,1,80,242,78,1,fourtwo,,,,,,,,,,,,,,,,,,,,,,,,,,,,,,,,,,,,,,,,,,,,,,,,,,,,,,,,,,,,,,,,,,,,,,,,,,,,,,,,,,,,,,,,,,,,,,,,,,,,,,,,,,,,,,,,,,,,,,,,,,,,,,,,,,,,,,,,,
,,6171165b0a955ac648f01d30,2026-03-17_16h08.58.738,kallum_motion_pilot_GIST_update_2,2026.1.1,Win32,30.03003003,6171165b0a955ac648f01d30,69b95efdef24cd8a694e89ee,69b9600b7c82187620f679d3,0.0983,0.0983,1,81,243,29,1,threefour,,,,,,,,,,,,,,,,,,,,,,,,,,,,,,,,,,,,,,,,,,,,,,,,,,,,,,,,,,,,,,,,,,,,,,,,,,,,,,,,,,,,,,,,,,,,,,,,,,,,,,,,,,,,,,,,,,,,,,,,,,,,,,,,,,,,,,,,,
,,6171165b0a955ac648f01d30,2026-03-17_16h08.58.738,kallum_motion_pilot_GIST_update_2,2026.1.1,Win32,30.03003003,6171165b0a955ac648f01d30,69b95efdef24cd8a694e89ee,69b9600b7c82187620f679d3,0.0985,0.0985,1,82,244,146,1,sixfive,,,,,,,,,,,,,,,,,,,,,,,,,,,,,,,,,,,,,,,,,,,,,,,,,,,,,,,,,,,,,,,,,,,,,,,,,,,,,,,,,,,,,,,,,,,,,,,,,,,,,,,,,,,,,,,,,,,,,,,,,,,,,,,,,,,,,,,,,
,,6171165b0a955ac648f01d30,2026-03-17_16h08.58.738,kallum_motion_pilot_GIST_update_2,2026.1.1,Win32,30.03003003,6171165b0a955ac648f01d30,69b95efdef24cd8a694e89ee,69b9600b7c82187620f679d3,0.0985,0.0985,1,83,245,8,1,onetwo,,,,,,,,,,,,,,,,,,,,,,,,,,,,,,,,,,,,,,,,,,,,,,,,,,,,,,,,,,,,,,,,,,,,,,,,,,,,,,,,,,,,,,,,,,,,,,,,,,,,,,,,,,,,,,,,,,,,,,,,,,,,,,,,,,,,,,,,,
,,6171165b0a955ac648f01d30,2026-03-17_16h08.58.738,kallum_motion_pilot_GIST_update_2,2026.1.1,Win32,30.03003003,6171165b0a955ac648f01d30,69b95efdef24cd8a694e89ee,69b9600b7c82187620f679d3,0.0987,0.0987,1,84,246,72,1,onetwo,,,,,,,,,,,,,,,,,,,,,,,,,,,,,,,,,,,,,,,,,,,,,,,,,,,,,,,,,,,,,,,,,,,,,,,,,,,,,,,,,,,,,,,,,,,,,,,,,,,,,,,,,,,,,,,,,,,,,,,,,,,,,,,,,,,,,,,,,
,,6171165b0a955ac648f01d30,2026-03-17_16h08.58.738,kallum_motion_pilot_GIST_update_2,2026.1.1,Win32,30.03003003,6171165b0a955ac648f01d30,69b95efdef24cd8a694e89ee,69b9600b7c82187620f679d3,0.0988,0.0988,1,85,247,122,1,sixfive,,,,,,,,,,,,,,,,,,,,,,,,,,,,,,,,,,,,,,,,,,,,,,,,,,,,,,,,,,,,,,,,,,,,,,,,,,,,,,,,,,,,,,,,,,,,,,,,,,,,,,,,,,,,,,,,,,,,,,,,,,,,,,,,,,,,,,,,,
,,6171165b0a955ac648f01d30,2026-03-17_16h08.58.738,kallum_motion_pilot_GIST_update_2,2026.1.1,Win32,30.03003003,6171165b0a955ac648f01d30,69b95efdef24cd8a694e89ee,69b9600b7c82187620f679d3,0.0988,0.0988,1,86,248,100,1,sevenfive,,,,,,,,,,,,,,,,,,,,,,,,,,,,,,,,,,,,,,,,,,,,,,,,,,,,,,,,,,,,,,,,,,,,,,,,,,,,,,,,,,,,,,,,,,,,,,,,,,,,,,,,,,,,,,,,,,,,,,,,,,,,,,,,,,,,,,,,,
,,6171165b0a955ac648f01d30,2026-03-17_16h08.58.738,kallum_motion_pilot_GIST_update_2,2026.1.1,Win32,30.03003003,6171165b0a955ac648f01d30,69b95efdef24cd8a694e89ee,69b9600b7c82187620f679d3,0.0991,0.0991,1,87,249,76,1,threeone,,,,,,,,,,,,,,,,,,,,,,,,,,,,,,,,,,,,,,,,,,,,,,,,,,,,,,,,,,,,,,,,,,,,,,,,,,,,,,,,,,,,,,,,,,,,,,,,,,,,,,,,,,,,,,,,,,,,,,,,,,,,,,,,,,,,,,,,,
,,6171165b0a955ac648f01d30,2026-03-17_16h08.58.738,kallum_motion_pilot_GIST_update_2,2026.1.1,Win32,30.03003003,6171165b0a955ac648f01d30,69b95efdef24cd8a694e89ee,69b9600b7c82187620f679d3,0.0991,0.0991,1,88,250,127,1,eightseven,,,,,,,,,,,,,,,,,,,,,,,,,,,,,,,,,,,,,,,,,,,,,,,,,,,,,,,,,,,,,,,,,,,,,,,,,,,,,,,,,,,,,,,,,,,,,,,,,,,,,,,,,,,,,,,,,,,,,,,,,,,,,,,,,,,,,,,,,
,,6171165b0a955ac648f01d30,2026-03-17_16h08.58.738,kallum_motion_pilot_GIST_update_2,2026.1.1,Win32,30.03003003,6171165b0a955ac648f01d30,69b95efdef24cd8a694e89ee,69b9600b7c82187620f679d3,0.0995,0.0995,1,89,251,161,1,fiveseven,,,,,,,,,,,,,,,,,,,,,,,,,,,,,,,,,,,,,,,,,,,,,,,,,,,,,,,,,,,,,,,,,,,,,,,,,,,,,,,,,,,,,,,,,,,,,,,,,,,,,,,,,,,,,,,,,,,,,,,,,,,,,,,,,,,,,,,,,
,,6171165b0a955ac648f01d30,2026-03-17_16h08.58.738,kallum_motion_pilot_GIST_update_2,2026.1.1,Win32,30.03003003,6171165b0a955ac648f01d30,69b95efdef24cd8a694e89ee,69b9600b7c82187620f679d3,0.0996,0.0996,1,90,252,4,1,threeone,,,,,,,,,,,,,,,,,,,,,,,,,,,,,,,,,,,,,,,,,,,,,,,,,,,,,,,,,,,,,,,,,,,,,,,,,,,,,,,,,,,,,,,,,,,,,,,,,,,,,,,,,,,,,,,,,,,,,,,,,,,,,,,,,,,,,,,,,
,,6171165b0a955ac648f01d30,2026-03-17_16h08.58.738,kallum_motion_pilot_GIST_update_2,2026.1.1,Win32,30.03003003,6171165b0a955ac648f01d30,69b95efdef24cd8a694e89ee,69b9600b7c82187620f679d3,0.0998,0.0998,1,91,253,9,1,onethree,,,,,,,,,,,,,,,,,,,,,,,,,,,,,,,,,,,,,,,,,,,,,,,,,,,,,,,,,,,,,,,,,,,,,,,,,,,,,,,,,,,,,,,,,,,,,,,,,,,,,,,,,,,,,,,,,,,,,,,,,,,,,,,,,,,,,,,,,
,,6171165b0a955ac648f01d30,2026-03-17_16h08.58.738,kallum_motion_pilot_GIST_update_2,2026.1.1,Win32,30.03003003,6171165b0a955ac648f01d30,69b95efdef24cd8a694e89ee,69b9600b7c82187620f679d3,0.0999,0.0999,1,92,254,120,1,fivesix,,,,,,,,,,,,,,,,,,,,,,,,,,,,,,,,,,,,,,,,,,,,,,,,,,,,,,,,,,,,,,,,,,,,,,,,,,,,,,,,,,,,,,,,,,,,,,,,,,,,,,,,,,,,,,,,,,,,,,,,,,,,,,,,,,,,,,,,,
,,6171165b0a955ac648f01d30,2026-03-17_16h08.58.738,kallum_motion_pilot_GIST_update_2,2026.1.1,Win32,30.03003003,6171165b0a955ac648f01d30,69b95efdef24cd8a694e89ee,69b9600b7c82187620f679d3,0.1001,0.1001,1,93,255,3,1,twofour,,,,,,,,,,,,,,,,,,,,,,,,,,,,,,,,,,,,,,,,,,,,,,,,,,,,,,,,,,,,,,,,,,,,,,,,,,,,,,,,,,,,,,,,,,,,,,,,,,,,,,,,,,,,,,,,,,,,,,,,,,,,,,,,,,,,,,,,,
,,6171165b0a955ac648f01d30,2026-03-17_16h08.58.738,kallum_motion_pilot_GIST_update_2,2026.1.1,Win32,30.03003003,6171165b0a955ac648f01d30,69b95efdef24cd8a694e89ee,69b9600b7c82187620f679d3,0.1004,0.1004,1,94,256,63,1,fourthree,,,,,,,,,,,,,,,,,,,,,,,,,,,,,,,,,,,,,,,,,,,,,,,,,,,,,,,,,,,,,,,,,,,,,,,,,,,,,,,,,,,,,,,,,,,,,,,,,,,,,,,,,,,,,,,,,,,,,,,,,,,,,,,,,,,,,,,,,
,,6171165b0a955ac648f01d30,2026-03-17_16h08.58.738,kallum_motion_pilot_GIST_update_2,2026.1.1,Win32,30.03003003,6171165b0a955ac648f01d30,69b95efdef24cd8a694e89ee,69b9600b7c82187620f679d3,0.1006,0.1006,1,95,257,16,1,onetwo,,,,,,,,,,,,,,,,,,,,,,,,,,,,,,,,,,,,,,,,,,,,,,,,,,,,,,,,,,,,,,,,,,,,,,,,,,,,,,,,,,,,,,,,,,,,,,,,,,,,,,,,,,,,,,,,,,,,,,,,,,,,,,,,,,,,,,,,,
,,6171165b0a955ac648f01d30,2026-03-17_16h08.58.738,kallum_motion_pilot_GIST_update_2,2026.1.1,Win32,30.03003003,6171165b0a955ac648f01d30,69b95efdef24cd8a694e89ee,69b9600b7c82187620f679d3,0.1009,0.1009,1,96,258,115,1,sixeight,,,,,,,,,,,,,,,,,,,,,,,,,,,,,,,,,,,,,,,,,,,,,,,,,,,,,,,,,,,,,,,,,,,,,,,,,,,,,,,,,,,,,,,,,,,,,,,,,,,,,,,,,,,,,,,,,,,,,,,,,,,,,,,,,,,,,,,,,
,,6171165b0a955ac648f01d30,2026-03-17_16h08.58.738,kallum_motion_pilot_GIST_update_2,2026.1.1,Win32,30.03003003,6171165b0a955ac648f01d30,69b95efdef24cd8a694e89ee,69b9600b7c82187620f679d3,0.101,0.101,1,97,259,148,1,sevenfive,,,,,,,,,,,,,,,,,,,,,,,,,,,,,,,,,,,,,,,,,,,,,,,,,,,,,,,,,,,,,,,,,,,,,,,,,,,,,,,,,,,,,,,,,,,,,,,,,,,,,,,,,,,,,,,,,,,,,,,,,,,,,,,,,,,,,,,,,
,,6171165b0a955ac648f01d30,2026-03-17_16h08.58.738,kallum_motion_pilot_GIST_update_2,2026.1.1,Win32,30.03003003,6171165b0a955ac648f01d30,69b95efdef24cd8a694e89ee,69b9600b7c82187620f679d3,0.1011,0.1011,1,98,260,129,1,fiveseven,,,,,,,,,,,,,,,,,,,,,,,,,,,,,,,,,,,,,,,,,,,,,,,,,,,,,,,,,,,,,,,,,,,,,,,,,,,,,,,,,,,,,,,,,,,,,,,,,,,,,,,,,,,,,,,,,,,,,,,,,,,,,,,,,,,,,,,,,
,,6171165b0a955ac648f01d30,2026-03-17_16h08.58.738,kallum_motion_pilot_GIST_update_2,2026.1.1,Win32,30.03003003,6171165b0a955ac648f01d30,69b95efdef24cd8a694e89ee,69b9600b7c82187620f679d3,0.1013,0.1013,1,99,261,27,1,twofour,,,,,,,,,,,,,,,,,,,,,,,,,,,,,,,,,,,,,,,,,,,,,,,,,,,,,,,,,,,,,,,,,,,,,,,,,,,,,,,,,,,,,,,,,,,,,,,,,,,,,,,,,,,,,,,,,,,,,,,,,,,,,,,,,,,,,,,,,
,,6171165b0a955ac648f01d30,2026-03-17_16h08.58.738,kallum_motion_pilot_GIST_update_2,2026.1.1,Win32,30.03003003,6171165b0a955ac648f01d30,69b95efdef24cd8a694e89ee,69b9600b7c82187620f679d3,0.1015,0.1015,1,100,262,158,1,eightsix,,,,,,,,,,,,,,,,,,,,,,,,,,,,,,,,,,,,,,,,,,,,,,,,,,,,,,,,,,,,,,,,,,,,,,,,,,,,,,,,,,,,,,,,,,,,,,,,,,,,,,,,,,,,,,,,,,,,,,,,,,,,,,,,,,,,,,,,,
,,6171165b0a955ac648f01d30,2026-03-17_16h08.58.738,kallum_motion_pilot_GIST_update_2,2026.1.1,Win32,30.03003003,6171165b0a955ac648f01d30,69b95efdef24cd8a694e89ee,69b9600b7c82187620f679d3,0.1017,0.1017,1,101,263,48,1,onetwo,,,,,,,,,,,,,,,,,,,,,,,,,,,,,,,,,,,,,,,,,,,,,,,,,,,,,,,,,,,,,,,,,,,,,,,,,,,,,,,,,,,,,,,,,,,,,,,,,,,,,,,,,,,,,,,,,,,,,,,,,,,,,,,,,,,,,,,,,
,,6171165b0a955ac648f01d30,2026-03-17_16h08.58.738,kallum_motion_pilot_GIST_update_2,2026.1.1,Win32,30.03003003,6171165b0a955ac648f01d30,69b95efdef24cd8a694e89ee,69b9600b7c82187620f679d3,0.102,0.102,1,102,264,155,1,sixeight,,,,,,,,,,,,,,,,,,,,,,,,,,,,,,,,,,,,,,,,,,,,,,,,,,,,,,,,,,,,,,,,,,,,,,,,,,,,,,,,,,,,,,,,,,,,,,,,,,,,,,,,,,,,,,,,,,,,,,,,,,,,,,,,,,,,,,,,,
,,6171165b0a955ac648f01d30,2026-03-17_16h08.58.738,kallum_motion_pilot_GIST_update_2,2026.1.1,Win32,30.03003003,6171165b0a955ac648f01d30,69b95efdef24cd8a694e89ee,69b9600b7c82187620f679d3,0.1023,0.1023,1,103,265,119,1,eightseven,,,,,,,,,,,,,,,,,,,,,,,,,,,,,,,,,,,,,,,,,,,,,,,,,,,,,,,,,,,,,,,,,,,,,,,,,,,,,,,,,,,,,,,,,,,,,,,,,,,,,,,,,,,,,,,,,,,,,,,,,,,,,,,,,,,,,,,,,
,,6171165b0a955ac648f01d30,2026-03-17_16h08.58.738,kallum_motion_pilot_GIST_update_2,2026.1.1,Win32,30.03003003,6171165b0a955ac648f01d30,69b95efdef24cd8a694e89ee,69b9600b7c82187620f679d3,0.1024,0.1024,1,104,266,57,1,onethree,,,,,,,,,,,,,,,,,,,,,,,,,,,,,,,,,,,,,,,,,,,,,,,,,,,,,,,,,,,,,,,,,,,,,,,,,,,,,,,,,,,,,,,,,,,,,,,,,,,,,,,,,,,,,,,,,,,,,,,,,,,,,,,,,,,,,,,,,
