startup.started,startup.stopped,Prolific ID*,date,expName,psychopyVersion,OS,frameRate,participant,study_id,session,stimpositions.started,stimpositions.stopped,hardcoded_stimulus_positions.thisRepN,hardcoded_stimulus_positions.thisTrialN,hardcoded_stimulus_positions.thisN,hardcoded_stimulus_positions.thisIndex,hardcoded_stimulus_positions.ran,StimulusPos,stimorientation.started,stimorientation.stopped,prac_stimorientation_import_loop.thisRepN,prac_stimorientation_import_loop.thisTrialN,prac_stimorientation_import_loop.thisN,prac_stimorientation_import_loop.thisIndex,prac_stimorientation_import_loop.ran,Stimorientation,welcome_instr.started,welcome_instr.stopped,key_resp.keys,key_resp.rt,key_resp.duration,response_steppedout_1.started,response_steppedout_1.stopped,key_resp_20.keys,key_resp_20.rt,key_resp_20.duration,response_steppedout_2.started,response_steppedout_2.stopped,key_resp_19.keys,key_resp_19.rt,key_resp_19.duration,stim_response_instr.started,stim_response_instr.stopped,key_resp_15.keys,key_resp_15.rt,key_resp_15.duration,direction_instr_2.started,direction_instr_2.stopped,key_resp_9.keys,key_resp_9.rt,key_resp_9.duration,instr_prac.started,instr_prac.stopped,key_resp_10.keys,key_resp_10.rt,key_resp_10.duration,Stim1_display_prac.started,Stim1_display_prac.stopped,Ecc,Circle1_ori,Circle2_ori,response_prac.started,similarity,response_time,response_prac.stopped,mouse_5.x,mouse_5.y,mouse_5.leftButton,mouse_5.midButton,mouse_5.rightButton,mouse_5.clicked_name,responseprac_feedback.started,responseprac_feedback.stopped,summary2_prac.started,summary2_prac.stopped,mouse_6.x,mouse_6.y,mouse_6.leftButton,mouse_6.midButton,mouse_6.rightButton,mouse_6.clicked_name,duringprac.thisRepN,duringprac.thisTrialN,duringprac.thisN,duringprac.thisIndex,duringprac.ran,begin.started,begin.stopped,key_resp_22.keys,key_resp_22.rt,key_resp_22.duration,Stim1_display.started,Stim1_display.stopped,circle1_ori,circle2_ori,circle1_SF,circle2_SF,response.started,response.stopped,mouse.x,mouse.y,mouse.leftButton,mouse.midButton,mouse.rightButton,mouse.clicked_name,trialnumber,double_pass.thisRepN,double_pass.thisTrialN,double_pass.thisN,double_pass.thisIndex,double_pass.ran,double_pass.order,main_trial.thisRepN,main_trial.thisTrialN,main_trial.thisN,main_trial.thisIndex,main_trial.ran,main_trial.order,Trial_Counter,Catch,Frequencies,response_2.started,response_2.stopped,mouse_2.x,mouse_2.y,mouse_2.leftButton,mouse_2.midButton,mouse_2.rightButton,mouse_2.clicked_name,special_trial.started,special_trial.stopped,catch_1.started,catch_1.stopped,mouse_3.x,mouse_3.y,mouse_3.leftButton,mouse_3.midButton,mouse_3.rightButton,catchresponse,catchnumber,response_time_catch,response_sum.started,response_sum.stopped,mouse_11.x,mouse_11.y,mouse_11.leftButton,mouse_11.midButton,mouse_11.rightButton,flip_presentation_sequence_for_double_pass.started,flip_presentation_sequence_for_double_pass.stopped,goodbye.started,goodbye.stopped,key_resp_3.keys,key_resp_3.rt,key_resp_3.duration
0.0002,0.0002,63359b3bffb1f6a9f45b7c60,2026-03-17_11h27.35.816,kallum_motion_pilot_GIST_update_2,2026.1.1,Win32,59.88023952,63359b3bffb1f6a9f45b7c60,69b92ab4aef6dee357cd729a,69b92c7c70f632511d559757,,,,,,,,,,,,,,,,,,,,,,,,,,,,,,,,,,,,,,,,,,,,,,,,,,,,,,,,,,,,,,,,,,,,,,,,,,,,,,,,,,,,,,,,,,,,,,,,,,,,,,,,,,,,,,,,,,,,,,,,,,,,,,,,,,,,,,,,,,,,,,,,,
,,63359b3bffb1f6a9f45b7c60,2026-03-17_11h27.35.816,kallum_motion_pilot_GIST_update_2,2026.1.1,Win32,59.88023952,63359b3bffb1f6a9f45b7c60,69b92ab4aef6dee357cd729a,69b92c7c70f632511d559757,0.0187,0.0188,0,0,0,17,1,onethree,,,,,,,,,,,,,,,,,,,,,,,,,,,,,,,,,,,,,,,,,,,,,,,,,,,,,,,,,,,,,,,,,,,,,,,,,,,,,,,,,,,,,,,,,,,,,,,,,,,,,,,,,,,,,,,,,,,,,,,,,,,,,,,,,,,,,,,,,
,,63359b3bffb1f6a9f45b7c60,2026-03-17_11h27.35.816,kallum_motion_pilot_GIST_update_2,2026.1.1,Win32,59.88023952,63359b3bffb1f6a9f45b7c60,69b92ab4aef6dee357cd729a,69b92c7c70f632511d559757,0.0192,0.0192,0,1,1,57,1,onethree,,,,,,,,,,,,,,,,,,,,,,,,,,,,,,,,,,,,,,,,,,,,,,,,,,,,,,,,,,,,,,,,,,,,,,,,,,,,,,,,,,,,,,,,,,,,,,,,,,,,,,,,,,,,,,,,,,,,,,,,,,,,,,,,,,,,,,,,,
,,63359b3bffb1f6a9f45b7c60,2026-03-17_11h27.35.816,kallum_motion_pilot_GIST_update_2,2026.1.1,Win32,59.88023952,63359b3bffb1f6a9f45b7c60,69b92ab4aef6dee357cd729a,69b92c7c70f632511d559757,0.0193,0.0193,0,2,2,50,1,twoone,,,,,,,,,,,,,,,,,,,,,,,,,,,,,,,,,,,,,,,,,,,,,,,,,,,,,,,,,,,,,,,,,,,,,,,,,,,,,,,,,,,,,,,,,,,,,,,,,,,,,,,,,,,,,,,,,,,,,,,,,,,,,,,,,,,,,,,,,
,,63359b3bffb1f6a9f45b7c60,2026-03-17_11h27.35.816,kallum_motion_pilot_GIST_update_2,2026.1.1,Win32,59.88023952,63359b3bffb1f6a9f45b7c60,69b92ab4aef6dee357cd729a,69b92c7c70f632511d559757,0.0195,0.0195,0,3,3,3,1,twofour,,,,,,,,,,,,,,,,,,,,,,,,,,,,,,,,,,,,,,,,,,,,,,,,,,,,,,,,,,,,,,,,,,,,,,,,,,,,,,,,,,,,,,,,,,,,,,,,,,,,,,,,,,,,,,,,,,,,,,,,,,,,,,,,,,,,,,,,,
,,63359b3bffb1f6a9f45b7c60,2026-03-17_11h27.35.816,kallum_motion_pilot_GIST_update_2,2026.1.1,Win32,59.88023952,63359b3bffb1f6a9f45b7c60,69b92ab4aef6dee357cd729a,69b92c7c70f632511d559757,0.0196,0.0197,0,4,4,40,1,onetwo,,,,,,,,,,,,,,,,,,,,,,,,,,,,,,,,,,,,,,,,,,,,,,,,,,,,,,,,,,,,,,,,,,,,,,,,,,,,,,,,,,,,,,,,,,,,,,,,,,,,,,,,,,,,,,,,,,,,,,,,,,,,,,,,,,,,,,,,,
,,63359b3bffb1f6a9f45b7c60,2026-03-17_11h27.35.816,kallum_motion_pilot_GIST_update_2,2026.1.1,Win32,59.88023952,63359b3bffb1f6a9f45b7c60,69b92ab4aef6dee357cd729a,69b92c7c70f632511d559757,0.0197,0.0197,0,5,5,81,1,fiveseven,,,,,,,,,,,,,,,,,,,,,,,,,,,,,,,,,,,,,,,,,,,,,,,,,,,,,,,,,,,,,,,,,,,,,,,,,,,,,,,,,,,,,,,,,,,,,,,,,,,,,,,,,,,,,,,,,,,,,,,,,,,,,,,,,,,,,,,,,
,,63359b3bffb1f6a9f45b7c60,2026-03-17_11h27.35.816,kallum_motion_pilot_GIST_update_2,2026.1.1,Win32,59.88023952,63359b3bffb1f6a9f45b7c60,69b92ab4aef6dee357cd729a,69b92c7c70f632511d559757,0.0198,0.0198,0,6,6,61,1,threefour,,,,,,,,,,,,,,,,,,,,,,,,,,,,,,,,,,,,,,,,,,,,,,,,,,,,,,,,,,,,,,,,,,,,,,,,,,,,,,,,,,,,,,,,,,,,,,,,,,,,,,,,,,,,,,,,,,,,,,,,,,,,,,,,,,,,,,,,,
,,63359b3bffb1f6a9f45b7c60,2026-03-17_11h27.35.816,kallum_motion_pilot_GIST_update_2,2026.1.1,Win32,59.88023952,63359b3bffb1f6a9f45b7c60,69b92ab4aef6dee357cd729a,69b92c7c70f632511d559757,0.02,0.02,0,7,7,22,1,fourtwo,,,,,,,,,,,,,,,,,,,,,,,,,,,,,,,,,,,,,,,,,,,,,,,,,,,,,,,,,,,,,,,,,,,,,,,,,,,,,,,,,,,,,,,,,,,,,,,,,,,,,,,,,,,,,,,,,,,,,,,,,,,,,,,,,,,,,,,,,
,,63359b3bffb1f6a9f45b7c60,2026-03-17_11h27.35.816,kallum_motion_pilot_GIST_update_2,2026.1.1,Win32,59.88023952,63359b3bffb1f6a9f45b7c60,69b92ab4aef6dee357cd729a,69b92c7c70f632511d559757,0.0201,0.0202,0,8,8,139,1,sixeight,,,,,,,,,,,,,,,,,,,,,,,,,,,,,,,,,,,,,,,,,,,,,,,,,,,,,,,,,,,,,,,,,,,,,,,,,,,,,,,,,,,,,,,,,,,,,,,,,,,,,,,,,,,,,,,,,,,,,,,,,,,,,,,,,,,,,,,,,
,,63359b3bffb1f6a9f45b7c60,2026-03-17_11h27.35.816,kallum_motion_pilot_GIST_update_2,2026.1.1,Win32,59.88023952,63359b3bffb1f6a9f45b7c60,69b92ab4aef6dee357cd729a,69b92c7c70f632511d559757,0.0204,0.0204,0,9,9,144,1,fivesix,,,,,,,,,,,,,,,,,,,,,,,,,,,,,,,,,,,,,,,,,,,,,,,,,,,,,,,,,,,,,,,,,,,,,,,,,,,,,,,,,,,,,,,,,,,,,,,,,,,,,,,,,,,,,,,,,,,,,,,,,,,,,,,,,,,,,,,,,
,,63359b3bffb1f6a9f45b7c60,2026-03-17_11h27.35.816,kallum_motion_pilot_GIST_update_2,2026.1.1,Win32,59.88023952,63359b3bffb1f6a9f45b7c60,69b92ab4aef6dee357cd729a,69b92c7c70f632511d559757,0.0206,0.0206,0,10,10,74,1,twoone,,,,,,,,,,,,,,,,,,,,,,,,,,,,,,,,,,,,,,,,,,,,,,,,,,,,,,,,,,,,,,,,,,,,,,,,,,,,,,,,,,,,,,,,,,,,,,,,,,,,,,,,,,,,,,,,,,,,,,,,,,,,,,,,,,,,,,,,,
,,63359b3bffb1f6a9f45b7c60,2026-03-17_11h27.35.816,kallum_motion_pilot_GIST_update_2,2026.1.1,Win32,59.88023952,63359b3bffb1f6a9f45b7c60,69b92ab4aef6dee357cd729a,69b92c7c70f632511d559757,0.0207,0.0207,0,11,11,141,1,seveneight,,,,,,,,,,,,,,,,,,,,,,,,,,,,,,,,,,,,,,,,,,,,,,,,,,,,,,,,,,,,,,,,,,,,,,,,,,,,,,,,,,,,,,,,,,,,,,,,,,,,,,,,,,,,,,,,,,,,,,,,,,,,,,,,,,,,,,,,,
,,63359b3bffb1f6a9f45b7c60,2026-03-17_11h27.35.816,kallum_motion_pilot_GIST_update_2,2026.1.1,Win32,59.88023952,63359b3bffb1f6a9f45b7c60,69b92ab4aef6dee357cd729a,69b92c7c70f632511d559757,0.0208,0.0208,0,12,12,1,1,onethree,,,,,,,,,,,,,,,,,,,,,,,,,,,,,,,,,,,,,,,,,,,,,,,,,,,,,,,,,,,,,,,,,,,,,,,,,,,,,,,,,,,,,,,,,,,,,,,,,,,,,,,,,,,,,,,,,,,,,,,,,,,,,,,,,,,,,,,,,
,,63359b3bffb1f6a9f45b7c60,2026-03-17_11h27.35.816,kallum_motion_pilot_GIST_update_2,2026.1.1,Win32,59.88023952,63359b3bffb1f6a9f45b7c60,69b92ab4aef6dee357cd729a,69b92c7c70f632511d559757,0.0209,0.0209,0,13,13,64,1,onetwo,,,,,,,,,,,,,,,,,,,,,,,,,,,,,,,,,,,,,,,,,,,,,,,,,,,,,,,,,,,,,,,,,,,,,,,,,,,,,,,,,,,,,,,,,,,,,,,,,,,,,,,,,,,,,,,,,,,,,,,,,,,,,,,,,,,,,,,,,
,,63359b3bffb1f6a9f45b7c60,2026-03-17_11h27.35.816,kallum_motion_pilot_GIST_update_2,2026.1.1,Win32,59.88023952,63359b3bffb1f6a9f45b7c60,69b92ab4aef6dee357cd729a,69b92c7c70f632511d559757,0.0211,0.0211,0,14,14,91,1,sixeight,,,,,,,,,,,,,,,,,,,,,,,,,,,,,,,,,,,,,,,,,,,,,,,,,,,,,,,,,,,,,,,,,,,,,,,,,,,,,,,,,,,,,,,,,,,,,,,,,,,,,,,,,,,,,,,,,,,,,,,,,,,,,,,,,,,,,,,,,
,,63359b3bffb1f6a9f45b7c60,2026-03-17_11h27.35.816,kallum_motion_pilot_GIST_update_2,2026.1.1,Win32,59.88023952,63359b3bffb1f6a9f45b7c60,69b92ab4aef6dee357cd729a,69b92c7c70f632511d559757,0.0212,0.0212,0,15,15,150,1,eightsix,,,,,,,,,,,,,,,,,,,,,,,,,,,,,,,,,,,,,,,,,,,,,,,,,,,,,,,,,,,,,,,,,,,,,,,,,,,,,,,,,,,,,,,,,,,,,,,,,,,,,,,,,,,,,,,,,,,,,,,,,,,,,,,,,,,,,,,,,
,,63359b3bffb1f6a9f45b7c60,2026-03-17_11h27.35.816,kallum_motion_pilot_GIST_update_2,2026.1.1,Win32,59.88023952,63359b3bffb1f6a9f45b7c60,69b92ab4aef6dee357cd729a,69b92c7c70f632511d559757,0.0213,0.0213,0,16,16,39,1,fourthree,,,,,,,,,,,,,,,,,,,,,,,,,,,,,,,,,,,,,,,,,,,,,,,,,,,,,,,,,,,,,,,,,,,,,,,,,,,,,,,,,,,,,,,,,,,,,,,,,,,,,,,,,,,,,,,,,,,,,,,,,,,,,,,,,,,,,,,,,
,,63359b3bffb1f6a9f45b7c60,2026-03-17_11h27.35.816,kallum_motion_pilot_GIST_update_2,2026.1.1,Win32,59.88023952,63359b3bffb1f6a9f45b7c60,69b92ab4aef6dee357cd729a,69b92c7c70f632511d559757,0.0214,0.0215,0,17,17,77,1,threefour,,,,,,,,,,,,,,,,,,,,,,,,,,,,,,,,,,,,,,,,,,,,,,,,,,,,,,,,,,,,,,,,,,,,,,,,,,,,,,,,,,,,,,,,,,,,,,,,,,,,,,,,,,,,,,,,,,,,,,,,,,,,,,,,,,,,,,,,,
,,63359b3bffb1f6a9f45b7c60,2026-03-17_11h27.35.816,kallum_motion_pilot_GIST_update_2,2026.1.1,Win32,59.88023952,63359b3bffb1f6a9f45b7c60,69b92ab4aef6dee357cd729a,69b92c7c70f632511d559757,0.0216,0.0216,0,18,18,128,1,fivesix,,,,,,,,,,,,,,,,,,,,,,,,,,,,,,,,,,,,,,,,,,,,,,,,,,,,,,,,,,,,,,,,,,,,,,,,,,,,,,,,,,,,,,,,,,,,,,,,,,,,,,,,,,,,,,,,,,,,,,,,,,,,,,,,,,,,,,,,,
,,63359b3bffb1f6a9f45b7c60,2026-03-17_11h27.35.816,kallum_motion_pilot_GIST_update_2,2026.1.1,Win32,59.88023952,63359b3bffb1f6a9f45b7c60,69b92ab4aef6dee357cd729a,69b92c7c70f632511d559757,0.0217,0.0217,0,19,19,125,1,seveneight,,,,,,,,,,,,,,,,,,,,,,,,,,,,,,,,,,,,,,,,,,,,,,,,,,,,,,,,,,,,,,,,,,,,,,,,,,,,,,,,,,,,,,,,,,,,,,,,,,,,,,,,,,,,,,,,,,,,,,,,,,,,,,,,,,,,,,,,,
,,63359b3bffb1f6a9f45b7c60,2026-03-17_11h27.35.816,kallum_motion_pilot_GIST_update_2,2026.1.1,Win32,59.88023952,63359b3bffb1f6a9f45b7c60,69b92ab4aef6dee357cd729a,69b92c7c70f632511d559757,0.0218,0.0218,0,20,20,0,1,onetwo,,,,,,,,,,,,,,,,,,,,,,,,,,,,,,,,,,,,,,,,,,,,,,,,,,,,,,,,,,,,,,,,,,,,,,,,,,,,,,,,,,,,,,,,,,,,,,,,,,,,,,,,,,,,,,,,,,,,,,,,,,,,,,,,,,,,,,,,,
,,63359b3bffb1f6a9f45b7c60,2026-03-17_11h27.35.816,kallum_motion_pilot_GIST_update_2,2026.1.1,Win32,59.88023952,63359b3bffb1f6a9f45b7c60,69b92ab4aef6dee357cd729a,69b92c7c70f632511d559757,0.0219,0.0219,0,21,21,10,1,twoone,,,,,,,,,,,,,,,,,,,,,,,,,,,,,,,,,,,,,,,,,,,,,,,,,,,,,,,,,,,,,,,,,,,,,,,,,,,,,,,,,,,,,,,,,,,,,,,,,,,,,,,,,,,,,,,,,,,,,,,,,,,,,,,,,,,,,,,,,
,,63359b3bffb1f6a9f45b7c60,2026-03-17_11h27.35.816,kallum_motion_pilot_GIST_update_2,2026.1.1,Win32,59.88023952,63359b3bffb1f6a9f45b7c60,69b92ab4aef6dee357cd729a,69b92c7c70f632511d559757,0.022,0.022,0,22,22,121,1,fiveseven,,,,,,,,,,,,,,,,,,,,,,,,,,,,,,,,,,,,,,,,,,,,,,,,,,,,,,,,,,,,,,,,,,,,,,,,,,,,,,,,,,,,,,,,,,,,,,,,,,,,,,,,,,,,,,,,,,,,,,,,,,,,,,,,,,,,,,,,,
,,63359b3bffb1f6a9f45b7c60,2026-03-17_11h27.35.816,kallum_motion_pilot_GIST_update_2,2026.1.1,Win32,59.88023952,63359b3bffb1f6a9f45b7c60,69b92ab4aef6dee357cd729a,69b92c7c70f632511d559757,0.0222,0.0222,0,23,23,53,1,threefour,,,,,,,,,,,,,,,,,,,,,,,,,,,,,,,,,,,,,,,,,,,,,,,,,,,,,,,,,,,,,,,,,,,,,,,,,,,,,,,,,,,,,,,,,,,,,,,,,,,,,,,,,,,,,,,,,,,,,,,,,,,,,,,,,,,,,,,,,
,,63359b3bffb1f6a9f45b7c60,2026-03-17_11h27.35.816,kallum_motion_pilot_GIST_update_2,2026.1.1,Win32,59.88023952,63359b3bffb1f6a9f45b7c60,69b92ab4aef6dee357cd729a,69b92c7c70f632511d559757,0.0224,0.0224,0,24,24,96,1,fivesix,,,,,,,,,,,,,,,,,,,,,,,,,,,,,,,,,,,,,,,,,,,,,,,,,,,,,,,,,,,,,,,,,,,,,,,,,,,,,,,,,,,,,,,,,,,,,,,,,,,,,,,,,,,,,,,,,,,,,,,,,,,,,,,,,,,,,,,,,
,,63359b3bffb1f6a9f45b7c60,2026-03-17_11h27.35.816,kallum_motion_pilot_GIST_update_2,2026.1.1,Win32,59.88023952,63359b3bffb1f6a9f45b7c60,69b92ab4aef6dee357cd729a,69b92c7c70f632511d559757,0.0226,0.0226,0,25,25,25,1,onethree,,,,,,,,,,,,,,,,,,,,,,,,,,,,,,,,,,,,,,,,,,,,,,,,,,,,,,,,,,,,,,,,,,,,,,,,,,,,,,,,,,,,,,,,,,,,,,,,,,,,,,,,,,,,,,,,,,,,,,,,,,,,,,,,,,,,,,,,,
,,63359b3bffb1f6a9f45b7c60,2026-03-17_11h27.35.816,kallum_motion_pilot_GIST_update_2,2026.1.1,Win32,59.88023952,63359b3bffb1f6a9f45b7c60,69b92ab4aef6dee357cd729a,69b92c7c70f632511d559757,0.0227,0.0227,0,26,26,155,1,sixeight,,,,,,,,,,,,,,,,,,,,,,,,,,,,,,,,,,,,,,,,,,,,,,,,,,,,,,,,,,,,,,,,,,,,,,,,,,,,,,,,,,,,,,,,,,,,,,,,,,,,,,,,,,,,,,,,,,,,,,,,,,,,,,,,,,,,,,,,,
,,63359b3bffb1f6a9f45b7c60,2026-03-17_11h27.35.816,kallum_motion_pilot_GIST_update_2,2026.1.1,Win32,59.88023952,63359b3bffb1f6a9f45b7c60,69b92ab4aef6dee357cd729a,69b92c7c70f632511d559757,0.0228,0.0228,0,27,27,76,1,threeone,,,,,,,,,,,,,,,,,,,,,,,,,,,,,,,,,,,,,,,,,,,,,,,,,,,,,,,,,,,,,,,,,,,,,,,,,,,,,,,,,,,,,,,,,,,,,,,,,,,,,,,,,,,,,,,,,,,,,,,,,,,,,,,,,,,,,,,,,
,,63359b3bffb1f6a9f45b7c60,2026-03-17_11h27.35.816,kallum_motion_pilot_GIST_update_2,2026.1.1,Win32,59.88023952,63359b3bffb1f6a9f45b7c60,69b92ab4aef6dee357cd729a,69b92c7c70f632511d559757,0.0228,0.0229,0,28,28,34,1,twoone,,,,,,,,,,,,,,,,,,,,,,,,,,,,,,,,,,,,,,,,,,,,,,,,,,,,,,,,,,,,,,,,,,,,,,,,,,,,,,,,,,,,,,,,,,,,,,,,,,,,,,,,,,,,,,,,,,,,,,,,,,,,,,,,,,,,,,,,,
,,63359b3bffb1f6a9f45b7c60,2026-03-17_11h27.35.816,kallum_motion_pilot_GIST_update_2,2026.1.1,Win32,59.88023952,63359b3bffb1f6a9f45b7c60,69b92ab4aef6dee357cd729a,69b92c7c70f632511d559757,0.0229,0.0229,0,29,29,29,1,threefour,,,,,,,,,,,,,,,,,,,,,,,,,,,,,,,,,,,,,,,,,,,,,,,,,,,,,,,,,,,,,,,,,,,,,,,,,,,,,,,,,,,,,,,,,,,,,,,,,,,,,,,,,,,,,,,,,,,,,,,,,,,,,,,,,,,,,,,,,
,,63359b3bffb1f6a9f45b7c60,2026-03-17_11h27.35.816,kallum_motion_pilot_GIST_update_2,2026.1.1,Win32,59.88023952,63359b3bffb1f6a9f45b7c60,69b92ab4aef6dee357cd729a,69b92c7c70f632511d559757,0.023,0.023,0,30,30,30,1,fourtwo,,,,,,,,,,,,,,,,,,,,,,,,,,,,,,,,,,,,,,,,,,,,,,,,,,,,,,,,,,,,,,,,,,,,,,,,,,,,,,,,,,,,,,,,,,,,,,,,,,,,,,,,,,,,,,,,,,,,,,,,,,,,,,,,,,,,,,,,,
,,63359b3bffb1f6a9f45b7c60,2026-03-17_11h27.35.816,kallum_motion_pilot_GIST_update_2,2026.1.1,Win32,59.88023952,63359b3bffb1f6a9f45b7c60,69b92ab4aef6dee357cd729a,69b92c7c70f632511d559757,0.0231,0.0231,0,31,31,93,1,seveneight,,,,,,,,,,,,,,,,,,,,,,,,,,,,,,,,,,,,,,,,,,,,,,,,,,,,,,,,,,,,,,,,,,,,,,,,,,,,,,,,,,,,,,,,,,,,,,,,,,,,,,,,,,,,,,,,,,,,,,,,,,,,,,,,,,,,,,,,,
,,63359b3bffb1f6a9f45b7c60,2026-03-17_11h27.35.816,kallum_motion_pilot_GIST_update_2,2026.1.1,Win32,59.88023952,63359b3bffb1f6a9f45b7c60,69b92ab4aef6dee357cd729a,69b92c7c70f632511d559757,0.0231,0.0231,0,32,32,90,1,sixfive,,,,,,,,,,,,,,,,,,,,,,,,,,,,,,,,,,,,,,,,,,,,,,,,,,,,,,,,,,,,,,,,,,,,,,,,,,,,,,,,,,,,,,,,,,,,,,,,,,,,,,,,,,,,,,,,,,,,,,,,,,,,,,,,,,,,,,,,,
,,63359b3bffb1f6a9f45b7c60,2026-03-17_11h27.35.816,kallum_motion_pilot_GIST_update_2,2026.1.1,Win32,59.88023952,63359b3bffb1f6a9f45b7c60,69b92ab4aef6dee357cd729a,69b92c7c70f632511d559757,0.0233,0.0233,0,33,33,63,1,fourthree,,,,,,,,,,,,,,,,,,,,,,,,,,,,,,,,,,,,,,,,,,,,,,,,,,,,,,,,,,,,,,,,,,,,,,,,,,,,,,,,,,,,,,,,,,,,,,,,,,,,,,,,,,,,,,,,,,,,,,,,,,,,,,,,,,,,,,,,,
,,63359b3bffb1f6a9f45b7c60,2026-03-17_11h27.35.816,kallum_motion_pilot_GIST_update_2,2026.1.1,Win32,59.88023952,63359b3bffb1f6a9f45b7c60,69b92ab4aef6dee357cd729a,69b92c7c70f632511d559757,0.0233,0.0233,0,34,34,6,1,fourtwo,,,,,,,,,,,,,,,,,,,,,,,,,,,,,,,,,,,,,,,,,,,,,,,,,,,,,,,,,,,,,,,,,,,,,,,,,,,,,,,,,,,,,,,,,,,,,,,,,,,,,,,,,,,,,,,,,,,,,,,,,,,,,,,,,,,,,,,,,
,,63359b3bffb1f6a9f45b7c60,2026-03-17_11h27.35.816,kallum_motion_pilot_GIST_update_2,2026.1.1,Win32,59.88023952,63359b3bffb1f6a9f45b7c60,69b92ab4aef6dee357cd729a,69b92c7c70f632511d559757,0.0234,0.0234,0,35,35,12,1,threeone,,,,,,,,,,,,,,,,,,,,,,,,,,,,,,,,,,,,,,,,,,,,,,,,,,,,,,,,,,,,,,,,,,,,,,,,,,,,,,,,,,,,,,,,,,,,,,,,,,,,,,,,,,,,,,,,,,,,,,,,,,,,,,,,,,,,,,,,,
,,63359b3bffb1f6a9f45b7c60,2026-03-17_11h27.35.816,kallum_motion_pilot_GIST_update_2,2026.1.1,Win32,59.88023952,63359b3bffb1f6a9f45b7c60,69b92ab4aef6dee357cd729a,69b92c7c70f632511d559757,0.0235,0.0235,0,36,36,88,1,fivesix,,,,,,,,,,,,,,,,,,,,,,,,,,,,,,,,,,,,,,,,,,,,,,,,,,,,,,,,,,,,,,,,,,,,,,,,,,,,,,,,,,,,,,,,,,,,,,,,,,,,,,,,,,,,,,,,,,,,,,,,,,,,,,,,,,,,,,,,,
,,63359b3bffb1f6a9f45b7c60,2026-03-17_11h27.35.816,kallum_motion_pilot_GIST_update_2,2026.1.1,Win32,59.88023952,63359b3bffb1f6a9f45b7c60,69b92ab4aef6dee357cd729a,69b92c7c70f632511d559757,0.0236,0.0236,0,37,37,9,1,onethree,,,,,,,,,,,,,,,,,,,,,,,,,,,,,,,,,,,,,,,,,,,,,,,,,,,,,,,,,,,,,,,,,,,,,,,,,,,,,,,,,,,,,,,,,,,,,,,,,,,,,,,,,,,,,,,,,,,,,,,,,,,,,,,,,,,,,,,,,
,,63359b3bffb1f6a9f45b7c60,2026-03-17_11h27.35.816,kallum_motion_pilot_GIST_update_2,2026.1.1,Win32,59.88023952,63359b3bffb1f6a9f45b7c60,69b92ab4aef6dee357cd729a,69b92c7c70f632511d559757,0.0236,0.0236,0,38,38,147,1,sixeight,,,,,,,,,,,,,,,,,,,,,,,,,,,,,,,,,,,,,,,,,,,,,,,,,,,,,,,,,,,,,,,,,,,,,,,,,,,,,,,,,,,,,,,,,,,,,,,,,,,,,,,,,,,,,,,,,,,,,,,,,,,,,,,,,,,,,,,,,
,,63359b3bffb1f6a9f45b7c60,2026-03-17_11h27.35.816,kallum_motion_pilot_GIST_update_2,2026.1.1,Win32,59.88023952,63359b3bffb1f6a9f45b7c60,69b92ab4aef6dee357cd729a,69b92c7c70f632511d559757,0.0238,0.0238,0,39,39,138,1,sixfive,,,,,,,,,,,,,,,,,,,,,,,,,,,,,,,,,,,,,,,,,,,,,,,,,,,,,,,,,,,,,,,,,,,,,,,,,,,,,,,,,,,,,,,,,,,,,,,,,,,,,,,,,,,,,,,,,,,,,,,,,,,,,,,,,,,,,,,,,
,,63359b3bffb1f6a9f45b7c60,2026-03-17_11h27.35.816,kallum_motion_pilot_GIST_update_2,2026.1.1,Win32,59.88023952,63359b3bffb1f6a9f45b7c60,69b92ab4aef6dee357cd729a,69b92c7c70f632511d559757,0.0238,0.0238,0,40,40,110,1,eightsix,,,,,,,,,,,,,,,,,,,,,,,,,,,,,,,,,,,,,,,,,,,,,,,,,,,,,,,,,,,,,,,,,,,,,,,,,,,,,,,,,,,,,,,,,,,,,,,,,,,,,,,,,,,,,,,,,,,,,,,,,,,,,,,,,,,,,,,,,
,,63359b3bffb1f6a9f45b7c60,2026-03-17_11h27.35.816,kallum_motion_pilot_GIST_update_2,2026.1.1,Win32,59.88023952,63359b3bffb1f6a9f45b7c60,69b92ab4aef6dee357cd729a,69b92c7c70f632511d559757,0.0239,0.024,0,41,41,119,1,eightseven,,,,,,,,,,,,,,,,,,,,,,,,,,,,,,,,,,,,,,,,,,,,,,,,,,,,,,,,,,,,,,,,,,,,,,,,,,,,,,,,,,,,,,,,,,,,,,,,,,,,,,,,,,,,,,,,,,,,,,,,,,,,,,,,,,,,,,,,,
,,63359b3bffb1f6a9f45b7c60,2026-03-17_11h27.35.816,kallum_motion_pilot_GIST_update_2,2026.1.1,Win32,59.88023952,63359b3bffb1f6a9f45b7c60,69b92ab4aef6dee357cd729a,69b92c7c70f632511d559757,0.0241,0.0241,0,42,42,143,1,eightseven,,,,,,,,,,,,,,,,,,,,,,,,,,,,,,,,,,,,,,,,,,,,,,,,,,,,,,,,,,,,,,,,,,,,,,,,,,,,,,,,,,,,,,,,,,,,,,,,,,,,,,,,,,,,,,,,,,,,,,,,,,,,,,,,,,,,,,,,,
,,63359b3bffb1f6a9f45b7c60,2026-03-17_11h27.35.816,kallum_motion_pilot_GIST_update_2,2026.1.1,Win32,59.88023952,63359b3bffb1f6a9f45b7c60,69b92ab4aef6dee357cd729a,69b92c7c70f632511d559757,0.0242,0.0242,0,43,43,130,1,sixfive,,,,,,,,,,,,,,,,,,,,,,,,,,,,,,,,,,,,,,,,,,,,,,,,,,,,,,,,,,,,,,,,,,,,,,,,,,,,,,,,,,,,,,,,,,,,,,,,,,,,,,,,,,,,,,,,,,,,,,,,,,,,,,,,,,,,,,,,,
,,63359b3bffb1f6a9f45b7c60,2026-03-17_11h27.35.816,kallum_motion_pilot_GIST_update_2,2026.1.1,Win32,59.88023952,63359b3bffb1f6a9f45b7c60,69b92ab4aef6dee357cd729a,69b92c7c70f632511d559757,0.0243,0.0243,0,44,44,48,1,onetwo,,,,,,,,,,,,,,,,,,,,,,,,,,,,,,,,,,,,,,,,,,,,,,,,,,,,,,,,,,,,,,,,,,,,,,,,,,,,,,,,,,,,,,,,,,,,,,,,,,,,,,,,,,,,,,,,,,,,,,,,,,,,,,,,,,,,,,,,,
,,63359b3bffb1f6a9f45b7c60,2026-03-17_11h27.35.816,kallum_motion_pilot_GIST_update_2,2026.1.1,Win32,59.88023952,63359b3bffb1f6a9f45b7c60,69b92ab4aef6dee357cd729a,69b92c7c70f632511d559757,0.0244,0.0244,0,45,45,142,1,eightsix,,,,,,,,,,,,,,,,,,,,,,,,,,,,,,,,,,,,,,,,,,,,,,,,,,,,,,,,,,,,,,,,,,,,,,,,,,,,,,,,,,,,,,,,,,,,,,,,,,,,,,,,,,,,,,,,,,,,,,,,,,,,,,,,,,,,,,,,,
,,63359b3bffb1f6a9f45b7c60,2026-03-17_11h27.35.816,kallum_motion_pilot_GIST_update_2,2026.1.1,Win32,59.88023952,63359b3bffb1f6a9f45b7c60,69b92ab4aef6dee357cd729a,69b92c7c70f632511d559757,0.0246,0.0246,0,46,46,123,1,sixeight,,,,,,,,,,,,,,,,,,,,,,,,,,,,,,,,,,,,,,,,,,,,,,,,,,,,,,,,,,,,,,,,,,,,,,,,,,,,,,,,,,,,,,,,,,,,,,,,,,,,,,,,,,,,,,,,,,,,,,,,,,,,,,,,,,,,,,,,,
,,63359b3bffb1f6a9f45b7c60,2026-03-17_11h27.35.816,kallum_motion_pilot_GIST_update_2,2026.1.1,Win32,59.88023952,63359b3bffb1f6a9f45b7c60,69b92ab4aef6dee357cd729a,69b92c7c70f632511d559757,0.0248,0.0248,0,47,47,120,1,fivesix,,,,,,,,,,,,,,,,,,,,,,,,,,,,,,,,,,,,,,,,,,,,,,,,,,,,,,,,,,,,,,,,,,,,,,,,,,,,,,,,,,,,,,,,,,,,,,,,,,,,,,,,,,,,,,,,,,,,,,,,,,,,,,,,,,,,,,,,,
,,63359b3bffb1f6a9f45b7c60,2026-03-17_11h27.35.816,kallum_motion_pilot_GIST_update_2,2026.1.1,Win32,59.88023952,63359b3bffb1f6a9f45b7c60,69b92ab4aef6dee357cd729a,69b92c7c70f632511d559757,0.0248,0.0248,0,48,48,46,1,fourtwo,,,,,,,,,,,,,,,,,,,,,,,,,,,,,,,,,,,,,,,,,,,,,,,,,,,,,,,,,,,,,,,,,,,,,,,,,,,,,,,,,,,,,,,,,,,,,,,,,,,,,,,,,,,,,,,,,,,,,,,,,,,,,,,,,,,,,,,,,
,,63359b3bffb1f6a9f45b7c60,2026-03-17_11h27.35.816,kallum_motion_pilot_GIST_update_2,2026.1.1,Win32,59.88023952,63359b3bffb1f6a9f45b7c60,69b92ab4aef6dee357cd729a,69b92c7c70f632511d559757,0.025,0.025,0,49,49,70,1,fourtwo,,,,,,,,,,,,,,,,,,,,,,,,,,,,,,,,,,,,,,,,,,,,,,,,,,,,,,,,,,,,,,,,,,,,,,,,,,,,,,,,,,,,,,,,,,,,,,,,,,,,,,,,,,,,,,,,,,,,,,,,,,,,,,,,,,,,,,,,,
,,63359b3bffb1f6a9f45b7c60,2026-03-17_11h27.35.816,kallum_motion_pilot_GIST_update_2,2026.1.1,Win32,59.88023952,63359b3bffb1f6a9f45b7c60,69b92ab4aef6dee357cd729a,69b92c7c70f632511d559757,0.0251,0.0251,0,50,50,85,1,seveneight,,,,,,,,,,,,,,,,,,,,,,,,,,,,,,,,,,,,,,,,,,,,,,,,,,,,,,,,,,,,,,,,,,,,,,,,,,,,,,,,,,,,,,,,,,,,,,,,,,,,,,,,,,,,,,,,,,,,,,,,,,,,,,,,,,,,,,,,,
,,63359b3bffb1f6a9f45b7c60,2026-03-17_11h27.35.816,kallum_motion_pilot_GIST_update_2,2026.1.1,Win32,59.88023952,63359b3bffb1f6a9f45b7c60,69b92ab4aef6dee357cd729a,69b92c7c70f632511d559757,0.0253,0.0253,0,51,51,145,1,fiveseven,,,,,,,,,,,,,,,,,,,,,,,,,,,,,,,,,,,,,,,,,,,,,,,,,,,,,,,,,,,,,,,,,,,,,,,,,,,,,,,,,,,,,,,,,,,,,,,,,,,,,,,,,,,,,,,,,,,,,,,,,,,,,,,,,,,,,,,,,
,,63359b3bffb1f6a9f45b7c60,2026-03-17_11h27.35.816,kallum_motion_pilot_GIST_update_2,2026.1.1,Win32,59.88023952,63359b3bffb1f6a9f45b7c60,69b92ab4aef6dee357cd729a,69b92c7c70f632511d559757,0.0254,0.0254,0,52,52,51,1,twofour,,,,,,,,,,,,,,,,,,,,,,,,,,,,,,,,,,,,,,,,,,,,,,,,,,,,,,,,,,,,,,,,,,,,,,,,,,,,,,,,,,,,,,,,,,,,,,,,,,,,,,,,,,,,,,,,,,,,,,,,,,,,,,,,,,,,,,,,,
,,63359b3bffb1f6a9f45b7c60,2026-03-17_11h27.35.816,kallum_motion_pilot_GIST_update_2,2026.1.1,Win32,59.88023952,63359b3bffb1f6a9f45b7c60,69b92ab4aef6dee357cd729a,69b92c7c70f632511d559757,0.0255,0.0255,0,53,53,116,1,sevenfive,,,,,,,,,,,,,,,,,,,,,,,,,,,,,,,,,,,,,,,,,,,,,,,,,,,,,,,,,,,,,,,,,,,,,,,,,,,,,,,,,,,,,,,,,,,,,,,,,,,,,,,,,,,,,,,,,,,,,,,,,,,,,,,,,,,,,,,,,
,,63359b3bffb1f6a9f45b7c60,2026-03-17_11h27.35.816,kallum_motion_pilot_GIST_update_2,2026.1.1,Win32,59.88023952,63359b3bffb1f6a9f45b7c60,69b92ab4aef6dee357cd729a,69b92c7c70f632511d559757,0.0256,0.0257,0,54,54,89,1,fiveseven,,,,,,,,,,,,,,,,,,,,,,,,,,,,,,,,,,,,,,,,,,,,,,,,,,,,,,,,,,,,,,,,,,,,,,,,,,,,,,,,,,,,,,,,,,,,,,,,,,,,,,,,,,,,,,,,,,,,,,,,,,,,,,,,,,,,,,,,,
,,63359b3bffb1f6a9f45b7c60,2026-03-17_11h27.35.816,kallum_motion_pilot_GIST_update_2,2026.1.1,Win32,59.88023952,63359b3bffb1f6a9f45b7c60,69b92ab4aef6dee357cd729a,69b92c7c70f632511d559757,0.0257,0.0257,0,55,55,23,1,fourthree,,,,,,,,,,,,,,,,,,,,,,,,,,,,,,,,,,,,,,,,,,,,,,,,,,,,,,,,,,,,,,,,,,,,,,,,,,,,,,,,,,,,,,,,,,,,,,,,,,,,,,,,,,,,,,,,,,,,,,,,,,,,,,,,,,,,,,,,,
,,63359b3bffb1f6a9f45b7c60,2026-03-17_11h27.35.816,kallum_motion_pilot_GIST_update_2,2026.1.1,Win32,59.88023952,63359b3bffb1f6a9f45b7c60,69b92ab4aef6dee357cd729a,69b92c7c70f632511d559757,0.0258,0.0259,0,56,56,45,1,threefour,,,,,,,,,,,,,,,,,,,,,,,,,,,,,,,,,,,,,,,,,,,,,,,,,,,,,,,,,,,,,,,,,,,,,,,,,,,,,,,,,,,,,,,,,,,,,,,,,,,,,,,,,,,,,,,,,,,,,,,,,,,,,,,,,,,,,,,,,
,,63359b3bffb1f6a9f45b7c60,2026-03-17_11h27.35.816,kallum_motion_pilot_GIST_update_2,2026.1.1,Win32,59.88023952,63359b3bffb1f6a9f45b7c60,69b92ab4aef6dee357cd729a,69b92c7c70f632511d559757,0.0259,0.0259,0,57,57,24,1,onetwo,,,,,,,,,,,,,,,,,,,,,,,,,,,,,,,,,,,,,,,,,,,,,,,,,,,,,,,,,,,,,,,,,,,,,,,,,,,,,,,,,,,,,,,,,,,,,,,,,,,,,,,,,,,,,,,,,,,,,,,,,,,,,,,,,,,,,,,,,
,,63359b3bffb1f6a9f45b7c60,2026-03-17_11h27.35.816,kallum_motion_pilot_GIST_update_2,2026.1.1,Win32,59.88023952,63359b3bffb1f6a9f45b7c60,69b92ab4aef6dee357cd729a,69b92c7c70f632511d559757,0.026,0.026,0,58,58,98,1,sixfive,,,,,,,,,,,,,,,,,,,,,,,,,,,,,,,,,,,,,,,,,,,,,,,,,,,,,,,,,,,,,,,,,,,,,,,,,,,,,,,,,,,,,,,,,,,,,,,,,,,,,,,,,,,,,,,,,,,,,,,,,,,,,,,,,,,,,,,,,
,,63359b3bffb1f6a9f45b7c60,2026-03-17_11h27.35.816,kallum_motion_pilot_GIST_update_2,2026.1.1,Win32,59.88023952,63359b3bffb1f6a9f45b7c60,69b92ab4aef6dee357cd729a,69b92c7c70f632511d559757,0.0261,0.0261,0,59,59,129,1,fiveseven,,,,,,,,,,,,,,,,,,,,,,,,,,,,,,,,,,,,,,,,,,,,,,,,,,,,,,,,,,,,,,,,,,,,,,,,,,,,,,,,,,,,,,,,,,,,,,,,,,,,,,,,,,,,,,,,,,,,,,,,,,,,,,,,,,,,,,,,,
,,63359b3bffb1f6a9f45b7c60,2026-03-17_11h27.35.816,kallum_motion_pilot_GIST_update_2,2026.1.1,Win32,59.88023952,63359b3bffb1f6a9f45b7c60,69b92ab4aef6dee357cd729a,69b92c7c70f632511d559757,0.0261,0.0261,0,60,60,133,1,seveneight,,,,,,,,,,,,,,,,,,,,,,,,,,,,,,,,,,,,,,,,,,,,,,,,,,,,,,,,,,,,,,,,,,,,,,,,,,,,,,,,,,,,,,,,,,,,,,,,,,,,,,,,,,,,,,,,,,,,,,,,,,,,,,,,,,,,,,,,,
,,63359b3bffb1f6a9f45b7c60,2026-03-17_11h27.35.816,kallum_motion_pilot_GIST_update_2,2026.1.1,Win32,59.88023952,63359b3bffb1f6a9f45b7c60,69b92ab4aef6dee357cd729a,69b92c7c70f632511d559757,0.0263,0.0263,0,61,61,159,1,eightseven,,,,,,,,,,,,,,,,,,,,,,,,,,,,,,,,,,,,,,,,,,,,,,,,,,,,,,,,,,,,,,,,,,,,,,,,,,,,,,,,,,,,,,,,,,,,,,,,,,,,,,,,,,,,,,,,,,,,,,,,,,,,,,,,,,,,,,,,,
,,63359b3bffb1f6a9f45b7c60,2026-03-17_11h27.35.816,kallum_motion_pilot_GIST_update_2,2026.1.1,Win32,59.88023952,63359b3bffb1f6a9f45b7c60,69b92ab4aef6dee357cd729a,69b92c7c70f632511d559757,0.0264,0.0264,0,62,62,55,1,fourthree,,,,,,,,,,,,,,,,,,,,,,,,,,,,,,,,,,,,,,,,,,,,,,,,,,,,,,,,,,,,,,,,,,,,,,,,,,,,,,,,,,,,,,,,,,,,,,,,,,,,,,,,,,,,,,,,,,,,,,,,,,,,,,,,,,,,,,,,,
,,63359b3bffb1f6a9f45b7c60,2026-03-17_11h27.35.816,kallum_motion_pilot_GIST_update_2,2026.1.1,Win32,59.88023952,63359b3bffb1f6a9f45b7c60,69b92ab4aef6dee357cd729a,69b92c7c70f632511d559757,0.0265,0.0265,0,63,63,41,1,onethree,,,,,,,,,,,,,,,,,,,,,,,,,,,,,,,,,,,,,,,,,,,,,,,,,,,,,,,,,,,,,,,,,,,,,,,,,,,,,,,,,,,,,,,,,,,,,,,,,,,,,,,,,,,,,,,,,,,,,,,,,,,,,,,,,,,,,,,,,
,,63359b3bffb1f6a9f45b7c60,2026-03-17_11h27.35.816,kallum_motion_pilot_GIST_update_2,2026.1.1,Win32,59.88023952,63359b3bffb1f6a9f45b7c60,69b92ab4aef6dee357cd729a,69b92c7c70f632511d559757,0.0266,0.0266,0,64,64,134,1,eightsix,,,,,,,,,,,,,,,,,,,,,,,,,,,,,,,,,,,,,,,,,,,,,,,,,,,,,,,,,,,,,,,,,,,,,,,,,,,,,,,,,,,,,,,,,,,,,,,,,,,,,,,,,,,,,,,,,,,,,,,,,,,,,,,,,,,,,,,,,
,,63359b3bffb1f6a9f45b7c60,2026-03-17_11h27.35.816,kallum_motion_pilot_GIST_update_2,2026.1.1,Win32,59.88023952,63359b3bffb1f6a9f45b7c60,69b92ab4aef6dee357cd729a,69b92c7c70f632511d559757,0.0266,0.0266,0,65,65,42,1,twoone,,,,,,,,,,,,,,,,,,,,,,,,,,,,,,,,,,,,,,,,,,,,,,,,,,,,,,,,,,,,,,,,,,,,,,,,,,,,,,,,,,,,,,,,,,,,,,,,,,,,,,,,,,,,,,,,,,,,,,,,,,,,,,,,,,,,,,,,,
,,63359b3bffb1f6a9f45b7c60,2026-03-17_11h27.35.816,kallum_motion_pilot_GIST_update_2,2026.1.1,Win32,59.88023952,63359b3bffb1f6a9f45b7c60,69b92ab4aef6dee357cd729a,69b92c7c70f632511d559757,0.0267,0.0267,0,66,66,56,1,onetwo,,,,,,,,,,,,,,,,,,,,,,,,,,,,,,,,,,,,,,,,,,,,,,,,,,,,,,,,,,,,,,,,,,,,,,,,,,,,,,,,,,,,,,,,,,,,,,,,,,,,,,,,,,,,,,,,,,,,,,,,,,,,,,,,,,,,,,,,,
,,63359b3bffb1f6a9f45b7c60,2026-03-17_11h27.35.816,kallum_motion_pilot_GIST_update_2,2026.1.1,Win32,59.88023952,63359b3bffb1f6a9f45b7c60,69b92ab4aef6dee357cd729a,69b92c7c70f632511d559757,0.0269,0.0269,0,67,67,7,1,fourthree,,,,,,,,,,,,,,,,,,,,,,,,,,,,,,,,,,,,,,,,,,,,,,,,,,,,,,,,,,,,,,,,,,,,,,,,,,,,,,,,,,,,,,,,,,,,,,,,,,,,,,,,,,,,,,,,,,,,,,,,,,,,,,,,,,,,,,,,,
,,63359b3bffb1f6a9f45b7c60,2026-03-17_11h27.35.816,kallum_motion_pilot_GIST_update_2,2026.1.1,Win32,59.88023952,63359b3bffb1f6a9f45b7c60,69b92ab4aef6dee357cd729a,69b92c7c70f632511d559757,0.0269,0.0269,0,68,68,160,1,fivesix,,,,,,,,,,,,,,,,,,,,,,,,,,,,,,,,,,,,,,,,,,,,,,,,,,,,,,,,,,,,,,,,,,,,,,,,,,,,,,,,,,,,,,,,,,,,,,,,,,,,,,,,,,,,,,,,,,,,,,,,,,,,,,,,,,,,,,,,,
,,63359b3bffb1f6a9f45b7c60,2026-03-17_11h27.35.816,kallum_motion_pilot_GIST_update_2,2026.1.1,Win32,59.88023952,63359b3bffb1f6a9f45b7c60,69b92ab4aef6dee357cd729a,69b92c7c70f632511d559757,0.027,0.027,0,69,69,62,1,fourtwo,,,,,,,,,,,,,,,,,,,,,,,,,,,,,,,,,,,,,,,,,,,,,,,,,,,,,,,,,,,,,,,,,,,,,,,,,,,,,,,,,,,,,,,,,,,,,,,,,,,,,,,,,,,,,,,,,,,,,,,,,,,,,,,,,,,,,,,,,
,,63359b3bffb1f6a9f45b7c60,2026-03-17_11h27.35.816,kallum_motion_pilot_GIST_update_2,2026.1.1,Win32,59.88023952,63359b3bffb1f6a9f45b7c60,69b92ab4aef6dee357cd729a,69b92c7c70f632511d559757,0.0272,0.0272,0,70,70,33,1,onethree,,,,,,,,,,,,,,,,,,,,,,,,,,,,,,,,,,,,,,,,,,,,,,,,,,,,,,,,,,,,,,,,,,,,,,,,,,,,,,,,,,,,,,,,,,,,,,,,,,,,,,,,,,,,,,,,,,,,,,,,,,,,,,,,,,,,,,,,,
,,63359b3bffb1f6a9f45b7c60,2026-03-17_11h27.35.816,kallum_motion_pilot_GIST_update_2,2026.1.1,Win32,59.88023952,63359b3bffb1f6a9f45b7c60,69b92ab4aef6dee357cd729a,69b92c7c70f632511d559757,0.0273,0.0273,0,71,71,80,1,fivesix,,,,,,,,,,,,,,,,,,,,,,,,,,,,,,,,,,,,,,,,,,,,,,,,,,,,,,,,,,,,,,,,,,,,,,,,,,,,,,,,,,,,,,,,,,,,,,,,,,,,,,,,,,,,,,,,,,,,,,,,,,,,,,,,,,,,,,,,,
,,63359b3bffb1f6a9f45b7c60,2026-03-17_11h27.35.816,kallum_motion_pilot_GIST_update_2,2026.1.1,Win32,59.88023952,63359b3bffb1f6a9f45b7c60,69b92ab4aef6dee357cd729a,69b92c7c70f632511d559757,0.0273,0.0273,0,72,72,153,1,fiveseven,,,,,,,,,,,,,,,,,,,,,,,,,,,,,,,,,,,,,,,,,,,,,,,,,,,,,,,,,,,,,,,,,,,,,,,,,,,,,,,,,,,,,,,,,,,,,,,,,,,,,,,,,,,,,,,,,,,,,,,,,,,,,,,,,,,,,,,,,
,,63359b3bffb1f6a9f45b7c60,2026-03-17_11h27.35.816,kallum_motion_pilot_GIST_update_2,2026.1.1,Win32,59.88023952,63359b3bffb1f6a9f45b7c60,69b92ab4aef6dee357cd729a,69b92c7c70f632511d559757,0.0275,0.0275,0,73,73,11,1,twofour,,,,,,,,,,,,,,,,,,,,,,,,,,,,,,,,,,,,,,,,,,,,,,,,,,,,,,,,,,,,,,,,,,,,,,,,,,,,,,,,,,,,,,,,,,,,,,,,,,,,,,,,,,,,,,,,,,,,,,,,,,,,,,,,,,,,,,,,,
,,63359b3bffb1f6a9f45b7c60,2026-03-17_11h27.35.816,kallum_motion_pilot_GIST_update_2,2026.1.1,Win32,59.88023952,63359b3bffb1f6a9f45b7c60,69b92ab4aef6dee357cd729a,69b92c7c70f632511d559757,0.0275,0.0275,0,74,74,60,1,threeone,,,,,,,,,,,,,,,,,,,,,,,,,,,,,,,,,,,,,,,,,,,,,,,,,,,,,,,,,,,,,,,,,,,,,,,,,,,,,,,,,,,,,,,,,,,,,,,,,,,,,,,,,,,,,,,,,,,,,,,,,,,,,,,,,,,,,,,,,
,,63359b3bffb1f6a9f45b7c60,2026-03-17_11h27.35.816,kallum_motion_pilot_GIST_update_2,2026.1.1,Win32,59.88023952,63359b3bffb1f6a9f45b7c60,69b92ab4aef6dee357cd729a,69b92c7c70f632511d559757,0.0276,0.0276,0,75,75,35,1,twofour,,,,,,,,,,,,,,,,,,,,,,,,,,,,,,,,,,,,,,,,,,,,,,,,,,,,,,,,,,,,,,,,,,,,,,,,,,,,,,,,,,,,,,,,,,,,,,,,,,,,,,,,,,,,,,,,,,,,,,,,,,,,,,,,,,,,,,,,,
,,63359b3bffb1f6a9f45b7c60,2026-03-17_11h27.35.816,kallum_motion_pilot_GIST_update_2,2026.1.1,Win32,59.88023952,63359b3bffb1f6a9f45b7c60,69b92ab4aef6dee357cd729a,69b92c7c70f632511d559757,0.0277,0.0277,0,76,76,44,1,threeone,,,,,,,,,,,,,,,,,,,,,,,,,,,,,,,,,,,,,,,,,,,,,,,,,,,,,,,,,,,,,,,,,,,,,,,,,,,,,,,,,,,,,,,,,,,,,,,,,,,,,,,,,,,,,,,,,,,,,,,,,,,,,,,,,,,,,,,,,
,,63359b3bffb1f6a9f45b7c60,2026-03-17_11h27.35.816,kallum_motion_pilot_GIST_update_2,2026.1.1,Win32,59.88023952,63359b3bffb1f6a9f45b7c60,69b92ab4aef6dee357cd729a,69b92c7c70f632511d559757,0.0278,0.0278,0,77,77,78,1,fourtwo,,,,,,,,,,,,,,,,,,,,,,,,,,,,,,,,,,,,,,,,,,,,,,,,,,,,,,,,,,,,,,,,,,,,,,,,,,,,,,,,,,,,,,,,,,,,,,,,,,,,,,,,,,,,,,,,,,,,,,,,,,,,,,,,,,,,,,,,,
,,63359b3bffb1f6a9f45b7c60,2026-03-17_11h27.35.816,kallum_motion_pilot_GIST_update_2,2026.1.1,Win32,59.88023952,63359b3bffb1f6a9f45b7c60,69b92ab4aef6dee357cd729a,69b92c7c70f632511d559757,0.0279,0.0279,0,78,78,107,1,sixeight,,,,,,,,,,,,,,,,,,,,,,,,,,,,,,,,,,,,,,,,,,,,,,,,,,,,,,,,,,,,,,,,,,,,,,,,,,,,,,,,,,,,,,,,,,,,,,,,,,,,,,,,,,,,,,,,,,,,,,,,,,,,,,,,,,,,,,,,,
,,63359b3bffb1f6a9f45b7c60,2026-03-17_11h27.35.816,kallum_motion_pilot_GIST_update_2,2026.1.1,Win32,59.88023952,63359b3bffb1f6a9f45b7c60,69b92ab4aef6dee357cd729a,69b92c7c70f632511d559757,0.0281,0.0281,0,79,79,5,1,threefour,,,,,,,,,,,,,,,,,,,,,,,,,,,,,,,,,,,,,,,,,,,,,,,,,,,,,,,,,,,,,,,,,,,,,,,,,,,,,,,,,,,,,,,,,,,,,,,,,,,,,,,,,,,,,,,,,,,,,,,,,,,,,,,,,,,,,,,,,
,,63359b3bffb1f6a9f45b7c60,2026-03-17_11h27.35.816,kallum_motion_pilot_GIST_update_2,2026.1.1,Win32,59.88023952,63359b3bffb1f6a9f45b7c60,69b92ab4aef6dee357cd729a,69b92c7c70f632511d559757,0.0282,0.0282,0,80,80,16,1,onetwo,,,,,,,,,,,,,,,,,,,,,,,,,,,,,,,,,,,,,,,,,,,,,,,,,,,,,,,,,,,,,,,,,,,,,,,,,,,,,,,,,,,,,,,,,,,,,,,,,,,,,,,,,,,,,,,,,,,,,,,,,,,,,,,,,,,,,,,,,
,,63359b3bffb1f6a9f45b7c60,2026-03-17_11h27.35.816,kallum_motion_pilot_GIST_update_2,2026.1.1,Win32,59.88023952,63359b3bffb1f6a9f45b7c60,69b92ab4aef6dee357cd729a,69b92c7c70f632511d559757,0.0283,0.0283,0,81,81,59,1,twofour,,,,,,,,,,,,,,,,,,,,,,,,,,,,,,,,,,,,,,,,,,,,,,,,,,,,,,,,,,,,,,,,,,,,,,,,,,,,,,,,,,,,,,,,,,,,,,,,,,,,,,,,,,,,,,,,,,,,,,,,,,,,,,,,,,,,,,,,,
,,63359b3bffb1f6a9f45b7c60,2026-03-17_11h27.35.816,kallum_motion_pilot_GIST_update_2,2026.1.1,Win32,59.88023952,63359b3bffb1f6a9f45b7c60,69b92ab4aef6dee357cd729a,69b92c7c70f632511d559757,0.0283,0.0283,0,82,82,131,1,sixeight,,,,,,,,,,,,,,,,,,,,,,,,,,,,,,,,,,,,,,,,,,,,,,,,,,,,,,,,,,,,,,,,,,,,,,,,,,,,,,,,,,,,,,,,,,,,,,,,,,,,,,,,,,,,,,,,,,,,,,,,,,,,,,,,,,,,,,,,,
,,63359b3bffb1f6a9f45b7c60,2026-03-17_11h27.35.816,kallum_motion_pilot_GIST_update_2,2026.1.1,Win32,59.88023952,63359b3bffb1f6a9f45b7c60,69b92ab4aef6dee357cd729a,69b92c7c70f632511d559757,0.0285,0.0285,0,83,83,92,1,sevenfive,,,,,,,,,,,,,,,,,,,,,,,,,,,,,,,,,,,,,,,,,,,,,,,,,,,,,,,,,,,,,,,,,,,,,,,,,,,,,,,,,,,,,,,,,,,,,,,,,,,,,,,,,,,,,,,,,,,,,,,,,,,,,,,,,,,,,,,,,
,,63359b3bffb1f6a9f45b7c60,2026-03-17_11h27.35.816,kallum_motion_pilot_GIST_update_2,2026.1.1,Win32,59.88023952,63359b3bffb1f6a9f45b7c60,69b92ab4aef6dee357cd729a,69b92c7c70f632511d559757,0.0286,0.0286,0,84,84,158,1,eightsix,,,,,,,,,,,,,,,,,,,,,,,,,,,,,,,,,,,,,,,,,,,,,,,,,,,,,,,,,,,,,,,,,,,,,,,,,,,,,,,,,,,,,,,,,,,,,,,,,,,,,,,,,,,,,,,,,,,,,,,,,,,,,,,,,,,,,,,,,
,,63359b3bffb1f6a9f45b7c60,2026-03-17_11h27.35.816,kallum_motion_pilot_GIST_update_2,2026.1.1,Win32,59.88023952,63359b3bffb1f6a9f45b7c60,69b92ab4aef6dee357cd729a,69b92c7c70f632511d559757,0.0286,0.0286,0,85,85,52,1,threeone,,,,,,,,,,,,,,,,,,,,,,,,,,,,,,,,,,,,,,,,,,,,,,,,,,,,,,,,,,,,,,,,,,,,,,,,,,,,,,,,,,,,,,,,,,,,,,,,,,,,,,,,,,,,,,,,,,,,,,,,,,,,,,,,,,,,,,,,,
,,63359b3bffb1f6a9f45b7c60,2026-03-17_11h27.35.816,kallum_motion_pilot_GIST_update_2,2026.1.1,Win32,59.88023952,63359b3bffb1f6a9f45b7c60,69b92ab4aef6dee357cd729a,69b92c7c70f632511d559757,0.0288,0.0288,0,86,86,154,1,sixfive,,,,,,,,,,,,,,,,,,,,,,,,,,,,,,,,,,,,,,,,,,,,,,,,,,,,,,,,,,,,,,,,,,,,,,,,,,,,,,,,,,,,,,,,,,,,,,,,,,,,,,,,,,,,,,,,,,,,,,,,,,,,,,,,,,,,,,,,,
,,63359b3bffb1f6a9f45b7c60,2026-03-17_11h27.35.816,kallum_motion_pilot_GIST_update_2,2026.1.1,Win32,59.88023952,63359b3bffb1f6a9f45b7c60,69b92ab4aef6dee357cd729a,69b92c7c70f632511d559757,0.029,0.029,0,87,87,2,1,twoone,,,,,,,,,,,,,,,,,,,,,,,,,,,,,,,,,,,,,,,,,,,,,,,,,,,,,,,,,,,,,,,,,,,,,,,,,,,,,,,,,,,,,,,,,,,,,,,,,,,,,,,,,,,,,,,,,,,,,,,,,,,,,,,,,,,,,,,,,
,,63359b3bffb1f6a9f45b7c60,2026-03-17_11h27.35.816,kallum_motion_pilot_GIST_update_2,2026.1.1,Win32,59.88023952,63359b3bffb1f6a9f45b7c60,69b92ab4aef6dee357cd729a,69b92c7c70f632511d559757,0.0291,0.0291,0,88,88,82,1,sixfive,,,,,,,,,,,,,,,,,,,,,,,,,,,,,,,,,,,,,,,,,,,,,,,,,,,,,,,,,,,,,,,,,,,,,,,,,,,,,,,,,,,,,,,,,,,,,,,,,,,,,,,,,,,,,,,,,,,,,,,,,,,,,,,,,,,,,,,,,
,,63359b3bffb1f6a9f45b7c60,2026-03-17_11h27.35.816,kallum_motion_pilot_GIST_update_2,2026.1.1,Win32,59.88023952,63359b3bffb1f6a9f45b7c60,69b92ab4aef6dee357cd729a,69b92c7c70f632511d559757,0.0292,0.0292,0,89,89,75,1,twofour,,,,,,,,,,,,,,,,,,,,,,,,,,,,,,,,,,,,,,,,,,,,,,,,,,,,,,,,,,,,,,,,,,,,,,,,,,,,,,,,,,,,,,,,,,,,,,,,,,,,,,,,,,,,,,,,,,,,,,,,,,,,,,,,,,,,,,,,,
,,63359b3bffb1f6a9f45b7c60,2026-03-17_11h27.35.816,kallum_motion_pilot_GIST_update_2,2026.1.1,Win32,59.88023952,63359b3bffb1f6a9f45b7c60,69b92ab4aef6dee357cd729a,69b92c7c70f632511d559757,0.0292,0.0292,0,90,90,95,1,eightseven,,,,,,,,,,,,,,,,,,,,,,,,,,,,,,,,,,,,,,,,,,,,,,,,,,,,,,,,,,,,,,,,,,,,,,,,,,,,,,,,,,,,,,,,,,,,,,,,,,,,,,,,,,,,,,,,,,,,,,,,,,,,,,,,,,,,,,,,,
,,63359b3bffb1f6a9f45b7c60,2026-03-17_11h27.35.816,kallum_motion_pilot_GIST_update_2,2026.1.1,Win32,59.88023952,63359b3bffb1f6a9f45b7c60,69b92ab4aef6dee357cd729a,69b92c7c70f632511d559757,0.0294,0.0294,0,91,91,43,1,twofour,,,,,,,,,,,,,,,,,,,,,,,,,,,,,,,,,,,,,,,,,,,,,,,,,,,,,,,,,,,,,,,,,,,,,,,,,,,,,,,,,,,,,,,,,,,,,,,,,,,,,,,,,,,,,,,,,,,,,,,,,,,,,,,,,,,,,,,,,
,,63359b3bffb1f6a9f45b7c60,2026-03-17_11h27.35.816,kallum_motion_pilot_GIST_update_2,2026.1.1,Win32,59.88023952,63359b3bffb1f6a9f45b7c60,69b92ab4aef6dee357cd729a,69b92c7c70f632511d559757,0.0295,0.0295,0,92,92,31,1,fourthree,,,,,,,,,,,,,,,,,,,,,,,,,,,,,,,,,,,,,,,,,,,,,,,,,,,,,,,,,,,,,,,,,,,,,,,,,,,,,,,,,,,,,,,,,,,,,,,,,,,,,,,,,,,,,,,,,,,,,,,,,,,,,,,,,,,,,,,,,
,,63359b3bffb1f6a9f45b7c60,2026-03-17_11h27.35.816,kallum_motion_pilot_GIST_update_2,2026.1.1,Win32,59.88023952,63359b3bffb1f6a9f45b7c60,69b92ab4aef6dee357cd729a,69b92c7c70f632511d559757,0.0296,0.0296,0,93,93,37,1,threefour,,,,,,,,,,,,,,,,,,,,,,,,,,,,,,,,,,,,,,,,,,,,,,,,,,,,,,,,,,,,,,,,,,,,,,,,,,,,,,,,,,,,,,,,,,,,,,,,,,,,,,,,,,,,,,,,,,,,,,,,,,,,,,,,,,,,,,,,,
,,63359b3bffb1f6a9f45b7c60,2026-03-17_11h27.35.816,kallum_motion_pilot_GIST_update_2,2026.1.1,Win32,59.88023952,63359b3bffb1f6a9f45b7c60,69b92ab4aef6dee357cd729a,69b92c7c70f632511d559757,0.0297,0.0297,0,94,94,126,1,eightsix,,,,,,,,,,,,,,,,,,,,,,,,,,,,,,,,,,,,,,,,,,,,,,,,,,,,,,,,,,,,,,,,,,,,,,,,,,,,,,,,,,,,,,,,,,,,,,,,,,,,,,,,,,,,,,,,,,,,,,,,,,,,,,,,,,,,,,,,,
,,63359b3bffb1f6a9f45b7c60,2026-03-17_11h27.35.816,kallum_motion_pilot_GIST_update_2,2026.1.1,Win32,59.88023952,63359b3bffb1f6a9f45b7c60,69b92ab4aef6dee357cd729a,69b92c7c70f632511d559757,0.0298,0.0298,0,95,95,54,1,fourtwo,,,,,,,,,,,,,,,,,,,,,,,,,,,,,,,,,,,,,,,,,,,,,,,,,,,,,,,,,,,,,,,,,,,,,,,,,,,,,,,,,,,,,,,,,,,,,,,,,,,,,,,,,,,,,,,,,,,,,,,,,,,,,,,,,,,,,,,,,
,,63359b3bffb1f6a9f45b7c60,2026-03-17_11h27.35.816,kallum_motion_pilot_GIST_update_2,2026.1.1,Win32,59.88023952,63359b3bffb1f6a9f45b7c60,69b92ab4aef6dee357cd729a,69b92c7c70f632511d559757,0.0299,0.03,0,96,96,104,1,fivesix,,,,,,,,,,,,,,,,,,,,,,,,,,,,,,,,,,,,,,,,,,,,,,,,,,,,,,,,,,,,,,,,,,,,,,,,,,,,,,,,,,,,,,,,,,,,,,,,,,,,,,,,,,,,,,,,,,,,,,,,,,,,,,,,,,,,,,,,,
,,63359b3bffb1f6a9f45b7c60,2026-03-17_11h27.35.816,kallum_motion_pilot_GIST_update_2,2026.1.1,Win32,59.88023952,63359b3bffb1f6a9f45b7c60,69b92ab4aef6dee357cd729a,69b92c7c70f632511d559757,0.03,0.03,0,97,97,27,1,twofour,,,,,,,,,,,,,,,,,,,,,,,,,,,,,,,,,,,,,,,,,,,,,,,,,,,,,,,,,,,,,,,,,,,,,,,,,,,,,,,,,,,,,,,,,,,,,,,,,,,,,,,,,,,,,,,,,,,,,,,,,,,,,,,,,,,,,,,,,
,,63359b3bffb1f6a9f45b7c60,2026-03-17_11h27.35.816,kallum_motion_pilot_GIST_update_2,2026.1.1,Win32,59.88023952,63359b3bffb1f6a9f45b7c60,69b92ab4aef6dee357cd729a,69b92c7c70f632511d559757,0.0301,0.0301,0,98,98,124,1,sevenfive,,,,,,,,,,,,,,,,,,,,,,,,,,,,,,,,,,,,,,,,,,,,,,,,,,,,,,,,,,,,,,,,,,,,,,,,,,,,,,,,,,,,,,,,,,,,,,,,,,,,,,,,,,,,,,,,,,,,,,,,,,,,,,,,,,,,,,,,,
,,63359b3bffb1f6a9f45b7c60,2026-03-17_11h27.35.816,kallum_motion_pilot_GIST_update_2,2026.1.1,Win32,59.88023952,63359b3bffb1f6a9f45b7c60,69b92ab4aef6dee357cd729a,69b92c7c70f632511d559757,0.0302,0.0302,0,99,99,71,1,fourthree,,,,,,,,,,,,,,,,,,,,,,,,,,,,,,,,,,,,,,,,,,,,,,,,,,,,,,,,,,,,,,,,,,,,,,,,,,,,,,,,,,,,,,,,,,,,,,,,,,,,,,,,,,,,,,,,,,,,,,,,,,,,,,,,,,,,,,,,,
,,63359b3bffb1f6a9f45b7c60,2026-03-17_11h27.35.816,kallum_motion_pilot_GIST_update_2,2026.1.1,Win32,59.88023952,63359b3bffb1f6a9f45b7c60,69b92ab4aef6dee357cd729a,69b92c7c70f632511d559757,0.0303,0.0303,0,100,100,111,1,eightseven,,,,,,,,,,,,,,,,,,,,,,,,,,,,,,,,,,,,,,,,,,,,,,,,,,,,,,,,,,,,,,,,,,,,,,,,,,,,,,,,,,,,,,,,,,,,,,,,,,,,,,,,,,,,,,,,,,,,,,,,,,,,,,,,,,,,,,,,,
,,63359b3bffb1f6a9f45b7c60,2026-03-17_11h27.35.816,kallum_motion_pilot_GIST_update_2,2026.1.1,Win32,59.88023952,63359b3bffb1f6a9f45b7c60,69b92ab4aef6dee357cd729a,69b92c7c70f632511d559757,0.0304,0.0304,0,101,101,152,1,fivesix,,,,,,,,,,,,,,,,,,,,,,,,,,,,,,,,,,,,,,,,,,,,,,,,,,,,,,,,,,,,,,,,,,,,,,,,,,,,,,,,,,,,,,,,,,,,,,,,,,,,,,,,,,,,,,,,,,,,,,,,,,,,,,,,,,,,,,,,,
,,63359b3bffb1f6a9f45b7c60,2026-03-17_11h27.35.816,kallum_motion_pilot_GIST_update_2,2026.1.1,Win32,59.88023952,63359b3bffb1f6a9f45b7c60,69b92ab4aef6dee357cd729a,69b92c7c70f632511d559757,0.0305,0.0305,0,102,102,122,1,sixfive,,,,,,,,,,,,,,,,,,,,,,,,,,,,,,,,,,,,,,,,,,,,,,,,,,,,,,,,,,,,,,,,,,,,,,,,,,,,,,,,,,,,,,,,,,,,,,,,,,,,,,,,,,,,,,,,,,,,,,,,,,,,,,,,,,,,,,,,,
,,63359b3bffb1f6a9f45b7c60,2026-03-17_11h27.35.816,kallum_motion_pilot_GIST_update_2,2026.1.1,Win32,59.88023952,63359b3bffb1f6a9f45b7c60,69b92ab4aef6dee357cd729a,69b92c7c70f632511d559757,0.0306,0.0306,0,103,103,4,1,threeone,,,,,,,,,,,,,,,,,,,,,,,,,,,,,,,,,,,,,,,,,,,,,,,,,,,,,,,,,,,,,,,,,,,,,,,,,,,,,,,,,,,,,,,,,,,,,,,,,,,,,,,,,,,,,,,,,,,,,,,,,,,,,,,,,,,,,,,,,
,,63359b3bffb1f6a9f45b7c60,2026-03-17_11h27.35.816,kallum_motion_pilot_GIST_update_2,2026.1.1,Win32,59.88023952,63359b3bffb1f6a9f45b7c60,69b92ab4aef6dee357cd729a,69b92c7c70f632511d559757,0.0307,0.0307,0,104,104,108,1,sevenfive,,,,,,,,,,,,,,,,,,,,,,,,,,,,,,,,,,,,,,,,,,,,,,,,,,,,,,,,,,,,,,,,,,,,,,,,,,,,,,,,,,,,,,,,,,,,,,,,,,,,,,,,,,,,,,,,,,,,,,,,,,,,,,,,,,,,,,,,,
,,63359b3bffb1f6a9f45b7c60,2026-03-17_11h27.35.816,kallum_motion_pilot_GIST_update_2,2026.1.1,Win32,59.88023952,63359b3bffb1f6a9f45b7c60,69b92ab4aef6dee357cd729a,69b92c7c70f632511d559757,0.0308,0.0309,0,105,105,114,1,sixfive,,,,,,,,,,,,,,,,,,,,,,,,,,,,,,,,,,,,,,,,,,,,,,,,,,,,,,,,,,,,,,,,,,,,,,,,,,,,,,,,,,,,,,,,,,,,,,,,,,,,,,,,,,,,,,,,,,,,,,,,,,,,,,,,,,,,,,,,,
,,63359b3bffb1f6a9f45b7c60,2026-03-17_11h27.35.816,kallum_motion_pilot_GIST_update_2,2026.1.1,Win32,59.88023952,63359b3bffb1f6a9f45b7c60,69b92ab4aef6dee357cd729a,69b92c7c70f632511d559757,0.0309,0.0309,0,106,106,8,1,onetwo,,,,,,,,,,,,,,,,,,,,,,,,,,,,,,,,,,,,,,,,,,,,,,,,,,,,,,,,,,,,,,,,,,,,,,,,,,,,,,,,,,,,,,,,,,,,,,,,,,,,,,,,,,,,,,,,,,,,,,,,,,,,,,,,,,,,,,,,,
,,63359b3bffb1f6a9f45b7c60,2026-03-17_11h27.35.816,kallum_motion_pilot_GIST_update_2,2026.1.1,Win32,59.88023952,63359b3bffb1f6a9f45b7c60,69b92ab4aef6dee357cd729a,69b92c7c70f632511d559757,0.031,0.031,0,107,107,157,1,seveneight,,,,,,,,,,,,,,,,,,,,,,,,,,,,,,,,,,,,,,,,,,,,,,,,,,,,,,,,,,,,,,,,,,,,,,,,,,,,,,,,,,,,,,,,,,,,,,,,,,,,,,,,,,,,,,,,,,,,,,,,,,,,,,,,,,,,,,,,,
,,63359b3bffb1f6a9f45b7c60,2026-03-17_11h27.35.816,kallum_motion_pilot_GIST_update_2,2026.1.1,Win32,59.88023952,63359b3bffb1f6a9f45b7c60,69b92ab4aef6dee357cd729a,69b92c7c70f632511d559757,0.0312,0.0312,0,108,108,87,1,eightseven,,,,,,,,,,,,,,,,,,,,,,,,,,,,,,,,,,,,,,,,,,,,,,,,,,,,,,,,,,,,,,,,,,,,,,,,,,,,,,,,,,,,,,,,,,,,,,,,,,,,,,,,,,,,,,,,,,,,,,,,,,,,,,,,,,,,,,,,,
,,63359b3bffb1f6a9f45b7c60,2026-03-17_11h27.35.816,kallum_motion_pilot_GIST_update_2,2026.1.1,Win32,59.88023952,63359b3bffb1f6a9f45b7c60,69b92ab4aef6dee357cd729a,69b92c7c70f632511d559757,0.0312,0.0312,0,109,109,118,1,eightsix,,,,,,,,,,,,,,,,,,,,,,,,,,,,,,,,,,,,,,,,,,,,,,,,,,,,,,,,,,,,,,,,,,,,,,,,,,,,,,,,,,,,,,,,,,,,,,,,,,,,,,,,,,,,,,,,,,,,,,,,,,,,,,,,,,,,,,,,,
,,63359b3bffb1f6a9f45b7c60,2026-03-17_11h27.35.816,kallum_motion_pilot_GIST_update_2,2026.1.1,Win32,59.88023952,63359b3bffb1f6a9f45b7c60,69b92ab4aef6dee357cd729a,69b92c7c70f632511d559757,0.0313,0.0313,0,110,110,106,1,sixfive,,,,,,,,,,,,,,,,,,,,,,,,,,,,,,,,,,,,,,,,,,,,,,,,,,,,,,,,,,,,,,,,,,,,,,,,,,,,,,,,,,,,,,,,,,,,,,,,,,,,,,,,,,,,,,,,,,,,,,,,,,,,,,,,,,,,,,,,,
,,63359b3bffb1f6a9f45b7c60,2026-03-17_11h27.35.816,kallum_motion_pilot_GIST_update_2,2026.1.1,Win32,59.88023952,63359b3bffb1f6a9f45b7c60,69b92ab4aef6dee357cd729a,69b92c7c70f632511d559757,0.0314,0.0314,0,111,111,47,1,fourthree,,,,,,,,,,,,,,,,,,,,,,,,,,,,,,,,,,,,,,,,,,,,,,,,,,,,,,,,,,,,,,,,,,,,,,,,,,,,,,,,,,,,,,,,,,,,,,,,,,,,,,,,,,,,,,,,,,,,,,,,,,,,,,,,,,,,,,,,,
,,63359b3bffb1f6a9f45b7c60,2026-03-17_11h27.35.816,kallum_motion_pilot_GIST_update_2,2026.1.1,Win32,59.88023952,63359b3bffb1f6a9f45b7c60,69b92ab4aef6dee357cd729a,69b92c7c70f632511d559757,0.0315,0.0315,0,112,112,113,1,fiveseven,,,,,,,,,,,,,,,,,,,,,,,,,,,,,,,,,,,,,,,,,,,,,,,,,,,,,,,,,,,,,,,,,,,,,,,,,,,,,,,,,,,,,,,,,,,,,,,,,,,,,,,,,,,,,,,,,,,,,,,,,,,,,,,,,,,,,,,,,
,,63359b3bffb1f6a9f45b7c60,2026-03-17_11h27.35.816,kallum_motion_pilot_GIST_update_2,2026.1.1,Win32,59.88023952,63359b3bffb1f6a9f45b7c60,69b92ab4aef6dee357cd729a,69b92c7c70f632511d559757,0.0316,0.0316,0,113,113,101,1,seveneight,,,,,,,,,,,,,,,,,,,,,,,,,,,,,,,,,,,,,,,,,,,,,,,,,,,,,,,,,,,,,,,,,,,,,,,,,,,,,,,,,,,,,,,,,,,,,,,,,,,,,,,,,,,,,,,,,,,,,,,,,,,,,,,,,,,,,,,,,
,,63359b3bffb1f6a9f45b7c60,2026-03-17_11h27.35.816,kallum_motion_pilot_GIST_update_2,2026.1.1,Win32,59.88023952,63359b3bffb1f6a9f45b7c60,69b92ab4aef6dee357cd729a,69b92c7c70f632511d559757,0.0317,0.0317,0,114,114,135,1,eightseven,,,,,,,,,,,,,,,,,,,,,,,,,,,,,,,,,,,,,,,,,,,,,,,,,,,,,,,,,,,,,,,,,,,,,,,,,,,,,,,,,,,,,,,,,,,,,,,,,,,,,,,,,,,,,,,,,,,,,,,,,,,,,,,,,,,,,,,,,
,,63359b3bffb1f6a9f45b7c60,2026-03-17_11h27.35.816,kallum_motion_pilot_GIST_update_2,2026.1.1,Win32,59.88023952,63359b3bffb1f6a9f45b7c60,69b92ab4aef6dee357cd729a,69b92c7c70f632511d559757,0.0318,0.0318,0,115,115,13,1,threefour,,,,,,,,,,,,,,,,,,,,,,,,,,,,,,,,,,,,,,,,,,,,,,,,,,,,,,,,,,,,,,,,,,,,,,,,,,,,,,,,,,,,,,,,,,,,,,,,,,,,,,,,,,,,,,,,,,,,,,,,,,,,,,,,,,,,,,,,,
,,63359b3bffb1f6a9f45b7c60,2026-03-17_11h27.35.816,kallum_motion_pilot_GIST_update_2,2026.1.1,Win32,59.88023952,63359b3bffb1f6a9f45b7c60,69b92ab4aef6dee357cd729a,69b92c7c70f632511d559757,0.0319,0.0319,0,116,116,14,1,fourtwo,,,,,,,,,,,,,,,,,,,,,,,,,,,,,,,,,,,,,,,,,,,,,,,,,,,,,,,,,,,,,,,,,,,,,,,,,,,,,,,,,,,,,,,,,,,,,,,,,,,,,,,,,,,,,,,,,,,,,,,,,,,,,,,,,,,,,,,,,
,,63359b3bffb1f6a9f45b7c60,2026-03-17_11h27.35.816,kallum_motion_pilot_GIST_update_2,2026.1.1,Win32,59.88023952,63359b3bffb1f6a9f45b7c60,69b92ab4aef6dee357cd729a,69b92c7c70f632511d559757,0.032,0.032,0,117,117,68,1,threeone,,,,,,,,,,,,,,,,,,,,,,,,,,,,,,,,,,,,,,,,,,,,,,,,,,,,,,,,,,,,,,,,,,,,,,,,,,,,,,,,,,,,,,,,,,,,,,,,,,,,,,,,,,,,,,,,,,,,,,,,,,,,,,,,,,,,,,,,,
,,63359b3bffb1f6a9f45b7c60,2026-03-17_11h27.35.816,kallum_motion_pilot_GIST_update_2,2026.1.1,Win32,59.88023952,63359b3bffb1f6a9f45b7c60,69b92ab4aef6dee357cd729a,69b92c7c70f632511d559757,0.0322,0.0322,0,118,118,109,1,seveneight,,,,,,,,,,,,,,,,,,,,,,,,,,,,,,,,,,,,,,,,,,,,,,,,,,,,,,,,,,,,,,,,,,,,,,,,,,,,,,,,,,,,,,,,,,,,,,,,,,,,,,,,,,,,,,,,,,,,,,,,,,,,,,,,,,,,,,,,,
,,63359b3bffb1f6a9f45b7c60,2026-03-17_11h27.35.816,kallum_motion_pilot_GIST_update_2,2026.1.1,Win32,59.88023952,63359b3bffb1f6a9f45b7c60,69b92ab4aef6dee357cd729a,69b92c7c70f632511d559757,0.0323,0.0323,0,119,119,19,1,twofour,,,,,,,,,,,,,,,,,,,,,,,,,,,,,,,,,,,,,,,,,,,,,,,,,,,,,,,,,,,,,,,,,,,,,,,,,,,,,,,,,,,,,,,,,,,,,,,,,,,,,,,,,,,,,,,,,,,,,,,,,,,,,,,,,,,,,,,,,
,,63359b3bffb1f6a9f45b7c60,2026-03-17_11h27.35.816,kallum_motion_pilot_GIST_update_2,2026.1.1,Win32,59.88023952,63359b3bffb1f6a9f45b7c60,69b92ab4aef6dee357cd729a,69b92c7c70f632511d559757,0.0324,0.0324,0,120,120,86,1,eightsix,,,,,,,,,,,,,,,,,,,,,,,,,,,,,,,,,,,,,,,,,,,,,,,,,,,,,,,,,,,,,,,,,,,,,,,,,,,,,,,,,,,,,,,,,,,,,,,,,,,,,,,,,,,,,,,,,,,,,,,,,,,,,,,,,,,,,,,,,
,,63359b3bffb1f6a9f45b7c60,2026-03-17_11h27.35.816,kallum_motion_pilot_GIST_update_2,2026.1.1,Win32,59.88023952,63359b3bffb1f6a9f45b7c60,69b92ab4aef6dee357cd729a,69b92c7c70f632511d559757,0.0325,0.0325,0,121,121,83,1,sixeight,,,,,,,,,,,,,,,,,,,,,,,,,,,,,,,,,,,,,,,,,,,,,,,,,,,,,,,,,,,,,,,,,,,,,,,,,,,,,,,,,,,,,,,,,,,,,,,,,,,,,,,,,,,,,,,,,,,,,,,,,,,,,,,,,,,,,,,,,
,,63359b3bffb1f6a9f45b7c60,2026-03-17_11h27.35.816,kallum_motion_pilot_GIST_update_2,2026.1.1,Win32,59.88023952,63359b3bffb1f6a9f45b7c60,69b92ab4aef6dee357cd729a,69b92c7c70f632511d559757,0.0326,0.0326,0,122,122,69,1,threefour,,,,,,,,,,,,,,,,,,,,,,,,,,,,,,,,,,,,,,,,,,,,,,,,,,,,,,,,,,,,,,,,,,,,,,,,,,,,,,,,,,,,,,,,,,,,,,,,,,,,,,,,,,,,,,,,,,,,,,,,,,,,,,,,,,,,,,,,,
,,63359b3bffb1f6a9f45b7c60,2026-03-17_11h27.35.816,kallum_motion_pilot_GIST_update_2,2026.1.1,Win32,59.88023952,63359b3bffb1f6a9f45b7c60,69b92ab4aef6dee357cd729a,69b92c7c70f632511d559757,0.0327,0.0327,0,123,123,99,1,sixeight,,,,,,,,,,,,,,,,,,,,,,,,,,,,,,,,,,,,,,,,,,,,,,,,,,,,,,,,,,,,,,,,,,,,,,,,,,,,,,,,,,,,,,,,,,,,,,,,,,,,,,,,,,,,,,,,,,,,,,,,,,,,,,,,,,,,,,,,,
,,63359b3bffb1f6a9f45b7c60,2026-03-17_11h27.35.816,kallum_motion_pilot_GIST_update_2,2026.1.1,Win32,59.88023952,63359b3bffb1f6a9f45b7c60,69b92ab4aef6dee357cd729a,69b92c7c70f632511d559757,0.0328,0.0328,0,124,124,79,1,eightseven,,,,,,,,,,,,,,,,,,,,,,,,,,,,,,,,,,,,,,,,,,,,,,,,,,,,,,,,,,,,,,,,,,,,,,,,,,,,,,,,,,,,,,,,,,,,,,,,,,,,,,,,,,,,,,,,,,,,,,,,,,,,,,,,,,,,,,,,,
,,63359b3bffb1f6a9f45b7c60,2026-03-17_11h27.35.816,kallum_motion_pilot_GIST_update_2,2026.1.1,Win32,59.88023952,63359b3bffb1f6a9f45b7c60,69b92ab4aef6dee357cd729a,69b92c7c70f632511d559757,0.0328,0.0329,0,125,125,112,1,fivesix,,,,,,,,,,,,,,,,,,,,,,,,,,,,,,,,,,,,,,,,,,,,,,,,,,,,,,,,,,,,,,,,,,,,,,,,,,,,,,,,,,,,,,,,,,,,,,,,,,,,,,,,,,,,,,,,,,,,,,,,,,,,,,,,,,,,,,,,,
,,63359b3bffb1f6a9f45b7c60,2026-03-17_11h27.35.816,kallum_motion_pilot_GIST_update_2,2026.1.1,Win32,59.88023952,63359b3bffb1f6a9f45b7c60,69b92ab4aef6dee357cd729a,69b92c7c70f632511d559757,0.0331,0.0331,0,126,126,26,1,twoone,,,,,,,,,,,,,,,,,,,,,,,,,,,,,,,,,,,,,,,,,,,,,,,,,,,,,,,,,,,,,,,,,,,,,,,,,,,,,,,,,,,,,,,,,,,,,,,,,,,,,,,,,,,,,,,,,,,,,,,,,,,,,,,,,,,,,,,,,
,,63359b3bffb1f6a9f45b7c60,2026-03-17_11h27.35.816,kallum_motion_pilot_GIST_update_2,2026.1.1,Win32,59.88023952,63359b3bffb1f6a9f45b7c60,69b92ab4aef6dee357cd729a,69b92c7c70f632511d559757,0.0332,0.0332,0,127,127,21,1,threefour,,,,,,,,,,,,,,,,,,,,,,,,,,,,,,,,,,,,,,,,,,,,,,,,,,,,,,,,,,,,,,,,,,,,,,,,,,,,,,,,,,,,,,,,,,,,,,,,,,,,,,,,,,,,,,,,,,,,,,,,,,,,,,,,,,,,,,,,,
,,63359b3bffb1f6a9f45b7c60,2026-03-17_11h27.35.816,kallum_motion_pilot_GIST_update_2,2026.1.1,Win32,59.88023952,63359b3bffb1f6a9f45b7c60,69b92ab4aef6dee357cd729a,69b92c7c70f632511d559757,0.0333,0.0333,0,128,128,18,1,twoone,,,,,,,,,,,,,,,,,,,,,,,,,,,,,,,,,,,,,,,,,,,,,,,,,,,,,,,,,,,,,,,,,,,,,,,,,,,,,,,,,,,,,,,,,,,,,,,,,,,,,,,,,,,,,,,,,,,,,,,,,,,,,,,,,,,,,,,,,
,,63359b3bffb1f6a9f45b7c60,2026-03-17_11h27.35.816,kallum_motion_pilot_GIST_update_2,2026.1.1,Win32,59.88023952,63359b3bffb1f6a9f45b7c60,69b92ab4aef6dee357cd729a,69b92c7c70f632511d559757,0.0334,0.0334,0,129,129,67,1,twofour,,,,,,,,,,,,,,,,,,,,,,,,,,,,,,,,,,,,,,,,,,,,,,,,,,,,,,,,,,,,,,,,,,,,,,,,,,,,,,,,,,,,,,,,,,,,,,,,,,,,,,,,,,,,,,,,,,,,,,,,,,,,,,,,,,,,,,,,,
,,63359b3bffb1f6a9f45b7c60,2026-03-17_11h27.35.816,kallum_motion_pilot_GIST_update_2,2026.1.1,Win32,59.88023952,63359b3bffb1f6a9f45b7c60,69b92ab4aef6dee357cd729a,69b92c7c70f632511d559757,0.0335,0.0335,0,130,130,73,1,onethree,,,,,,,,,,,,,,,,,,,,,,,,,,,,,,,,,,,,,,,,,,,,,,,,,,,,,,,,,,,,,,,,,,,,,,,,,,,,,,,,,,,,,,,,,,,,,,,,,,,,,,,,,,,,,,,,,,,,,,,,,,,,,,,,,,,,,,,,,
,,63359b3bffb1f6a9f45b7c60,2026-03-17_11h27.35.816,kallum_motion_pilot_GIST_update_2,2026.1.1,Win32,59.88023952,63359b3bffb1f6a9f45b7c60,69b92ab4aef6dee357cd729a,69b92c7c70f632511d559757,0.0336,0.0336,0,131,131,105,1,fiveseven,,,,,,,,,,,,,,,,,,,,,,,,,,,,,,,,,,,,,,,,,,,,,,,,,,,,,,,,,,,,,,,,,,,,,,,,,,,,,,,,,,,,,,,,,,,,,,,,,,,,,,,,,,,,,,,,,,,,,,,,,,,,,,,,,,,,,,,,,
,,63359b3bffb1f6a9f45b7c60,2026-03-17_11h27.35.816,kallum_motion_pilot_GIST_update_2,2026.1.1,Win32,59.88023952,63359b3bffb1f6a9f45b7c60,69b92ab4aef6dee357cd729a,69b92c7c70f632511d559757,0.0338,0.0338,0,132,132,28,1,threeone,,,,,,,,,,,,,,,,,,,,,,,,,,,,,,,,,,,,,,,,,,,,,,,,,,,,,,,,,,,,,,,,,,,,,,,,,,,,,,,,,,,,,,,,,,,,,,,,,,,,,,,,,,,,,,,,,,,,,,,,,,,,,,,,,,,,,,,,,
,,63359b3bffb1f6a9f45b7c60,2026-03-17_11h27.35.816,kallum_motion_pilot_GIST_update_2,2026.1.1,Win32,59.88023952,63359b3bffb1f6a9f45b7c60,69b92ab4aef6dee357cd729a,69b92c7c70f632511d559757,0.0338,0.0338,0,133,133,38,1,fourtwo,,,,,,,,,,,,,,,,,,,,,,,,,,,,,,,,,,,,,,,,,,,,,,,,,,,,,,,,,,,,,,,,,,,,,,,,,,,,,,,,,,,,,,,,,,,,,,,,,,,,,,,,,,,,,,,,,,,,,,,,,,,,,,,,,,,,,,,,,
,,63359b3bffb1f6a9f45b7c60,2026-03-17_11h27.35.816,kallum_motion_pilot_GIST_update_2,2026.1.1,Win32,59.88023952,63359b3bffb1f6a9f45b7c60,69b92ab4aef6dee357cd729a,69b92c7c70f632511d559757,0.0339,0.034,0,134,134,66,1,twoone,,,,,,,,,,,,,,,,,,,,,,,,,,,,,,,,,,,,,,,,,,,,,,,,,,,,,,,,,,,,,,,,,,,,,,,,,,,,,,,,,,,,,,,,,,,,,,,,,,,,,,,,,,,,,,,,,,,,,,,,,,,,,,,,,,,,,,,,,
,,63359b3bffb1f6a9f45b7c60,2026-03-17_11h27.35.816,kallum_motion_pilot_GIST_update_2,2026.1.1,Win32,59.88023952,63359b3bffb1f6a9f45b7c60,69b92ab4aef6dee357cd729a,69b92c7c70f632511d559757,0.0341,0.0341,0,135,135,151,1,eightseven,,,,,,,,,,,,,,,,,,,,,,,,,,,,,,,,,,,,,,,,,,,,,,,,,,,,,,,,,,,,,,,,,,,,,,,,,,,,,,,,,,,,,,,,,,,,,,,,,,,,,,,,,,,,,,,,,,,,,,,,,,,,,,,,,,,,,,,,,
,,63359b3bffb1f6a9f45b7c60,2026-03-17_11h27.35.816,kallum_motion_pilot_GIST_update_2,2026.1.1,Win32,59.88023952,63359b3bffb1f6a9f45b7c60,69b92ab4aef6dee357cd729a,69b92c7c70f632511d559757,0.0342,0.0342,0,136,136,84,1,sevenfive,,,,,,,,,,,,,,,,,,,,,,,,,,,,,,,,,,,,,,,,,,,,,,,,,,,,,,,,,,,,,,,,,,,,,,,,,,,,,,,,,,,,,,,,,,,,,,,,,,,,,,,,,,,,,,,,,,,,,,,,,,,,,,,,,,,,,,,,,
,,63359b3bffb1f6a9f45b7c60,2026-03-17_11h27.35.816,kallum_motion_pilot_GIST_update_2,2026.1.1,Win32,59.88023952,63359b3bffb1f6a9f45b7c60,69b92ab4aef6dee357cd729a,69b92c7c70f632511d559757,0.0343,0.0343,0,137,137,58,1,twoone,,,,,,,,,,,,,,,,,,,,,,,,,,,,,,,,,,,,,,,,,,,,,,,,,,,,,,,,,,,,,,,,,,,,,,,,,,,,,,,,,,,,,,,,,,,,,,,,,,,,,,,,,,,,,,,,,,,,,,,,,,,,,,,,,,,,,,,,,
,,63359b3bffb1f6a9f45b7c60,2026-03-17_11h27.35.816,kallum_motion_pilot_GIST_update_2,2026.1.1,Win32,59.88023952,63359b3bffb1f6a9f45b7c60,69b92ab4aef6dee357cd729a,69b92c7c70f632511d559757,0.0344,0.0344,0,138,138,103,1,eightseven,,,,,,,,,,,,,,,,,,,,,,,,,,,,,,,,,,,,,,,,,,,,,,,,,,,,,,,,,,,,,,,,,,,,,,,,,,,,,,,,,,,,,,,,,,,,,,,,,,,,,,,,,,,,,,,,,,,,,,,,,,,,,,,,,,,,,,,,,
,,63359b3bffb1f6a9f45b7c60,2026-03-17_11h27.35.816,kallum_motion_pilot_GIST_update_2,2026.1.1,Win32,59.88023952,63359b3bffb1f6a9f45b7c60,69b92ab4aef6dee357cd729a,69b92c7c70f632511d559757,0.0345,0.0345,0,139,139,72,1,onetwo,,,,,,,,,,,,,,,,,,,,,,,,,,,,,,,,,,,,,,,,,,,,,,,,,,,,,,,,,,,,,,,,,,,,,,,,,,,,,,,,,,,,,,,,,,,,,,,,,,,,,,,,,,,,,,,,,,,,,,,,,,,,,,,,,,,,,,,,,
,,63359b3bffb1f6a9f45b7c60,2026-03-17_11h27.35.816,kallum_motion_pilot_GIST_update_2,2026.1.1,Win32,59.88023952,63359b3bffb1f6a9f45b7c60,69b92ab4aef6dee357cd729a,69b92c7c70f632511d559757,0.0346,0.0346,0,140,140,115,1,sixeight,,,,,,,,,,,,,,,,,,,,,,,,,,,,,,,,,,,,,,,,,,,,,,,,,,,,,,,,,,,,,,,,,,,,,,,,,,,,,,,,,,,,,,,,,,,,,,,,,,,,,,,,,,,,,,,,,,,,,,,,,,,,,,,,,,,,,,,,,
,,63359b3bffb1f6a9f45b7c60,2026-03-17_11h27.35.816,kallum_motion_pilot_GIST_update_2,2026.1.1,Win32,59.88023952,63359b3bffb1f6a9f45b7c60,69b92ab4aef6dee357cd729a,69b92c7c70f632511d559757,0.0347,0.0347,0,141,141,97,1,fiveseven,,,,,,,,,,,,,,,,,,,,,,,,,,,,,,,,,,,,,,,,,,,,,,,,,,,,,,,,,,,,,,,,,,,,,,,,,,,,,,,,,,,,,,,,,,,,,,,,,,,,,,,,,,,,,,,,,,,,,,,,,,,,,,,,,,,,,,,,,
,,63359b3bffb1f6a9f45b7c60,2026-03-17_11h27.35.816,kallum_motion_pilot_GIST_update_2,2026.1.1,Win32,59.88023952,63359b3bffb1f6a9f45b7c60,69b92ab4aef6dee357cd729a,69b92c7c70f632511d559757,0.0348,0.0348,0,142,142,117,1,seveneight,,,,,,,,,,,,,,,,,,,,,,,,,,,,,,,,,,,,,,,,,,,,,,,,,,,,,,,,,,,,,,,,,,,,,,,,,,,,,,,,,,,,,,,,,,,,,,,,,,,,,,,,,,,,,,,,,,,,,,,,,,,,,,,,,,,,,,,,,
,,63359b3bffb1f6a9f45b7c60,2026-03-17_11h27.35.816,kallum_motion_pilot_GIST_update_2,2026.1.1,Win32,59.88023952,63359b3bffb1f6a9f45b7c60,69b92ab4aef6dee357cd729a,69b92c7c70f632511d559757,0.0349,0.0349,0,143,143,102,1,eightsix,,,,,,,,,,,,,,,,,,,,,,,,,,,,,,,,,,,,,,,,,,,,,,,,,,,,,,,,,,,,,,,,,,,,,,,,,,,,,,,,,,,,,,,,,,,,,,,,,,,,,,,,,,,,,,,,,,,,,,,,,,,,,,,,,,,,,,,,,
,,63359b3bffb1f6a9f45b7c60,2026-03-17_11h27.35.816,kallum_motion_pilot_GIST_update_2,2026.1.1,Win32,59.88023952,63359b3bffb1f6a9f45b7c60,69b92ab4aef6dee357cd729a,69b92c7c70f632511d559757,0.035,0.0351,0,144,144,15,1,fourthree,,,,,,,,,,,,,,,,,,,,,,,,,,,,,,,,,,,,,,,,,,,,,,,,,,,,,,,,,,,,,,,,,,,,,,,,,,,,,,,,,,,,,,,,,,,,,,,,,,,,,,,,,,,,,,,,,,,,,,,,,,,,,,,,,,,,,,,,,
,,63359b3bffb1f6a9f45b7c60,2026-03-17_11h27.35.816,kallum_motion_pilot_GIST_update_2,2026.1.1,Win32,59.88023952,63359b3bffb1f6a9f45b7c60,69b92ab4aef6dee357cd729a,69b92c7c70f632511d559757,0.0353,0.0353,0,145,145,20,1,threeone,,,,,,,,,,,,,,,,,,,,,,,,,,,,,,,,,,,,,,,,,,,,,,,,,,,,,,,,,,,,,,,,,,,,,,,,,,,,,,,,,,,,,,,,,,,,,,,,,,,,,,,,,,,,,,,,,,,,,,,,,,,,,,,,,,,,,,,,,
,,63359b3bffb1f6a9f45b7c60,2026-03-17_11h27.35.816,kallum_motion_pilot_GIST_update_2,2026.1.1,Win32,59.88023952,63359b3bffb1f6a9f45b7c60,69b92ab4aef6dee357cd729a,69b92c7c70f632511d559757,0.0354,0.0354,0,146,146,156,1,sevenfive,,,,,,,,,,,,,,,,,,,,,,,,,,,,,,,,,,,,,,,,,,,,,,,,,,,,,,,,,,,,,,,,,,,,,,,,,,,,,,,,,,,,,,,,,,,,,,,,,,,,,,,,,,,,,,,,,,,,,,,,,,,,,,,,,,,,,,,,,
,,63359b3bffb1f6a9f45b7c60,2026-03-17_11h27.35.816,kallum_motion_pilot_GIST_update_2,2026.1.1,Win32,59.88023952,63359b3bffb1f6a9f45b7c60,69b92ab4aef6dee357cd729a,69b92c7c70f632511d559757,0.0356,0.0356,0,147,147,32,1,onetwo,,,,,,,,,,,,,,,,,,,,,,,,,,,,,,,,,,,,,,,,,,,,,,,,,,,,,,,,,,,,,,,,,,,,,,,,,,,,,,,,,,,,,,,,,,,,,,,,,,,,,,,,,,,,,,,,,,,,,,,,,,,,,,,,,,,,,,,,,
,,63359b3bffb1f6a9f45b7c60,2026-03-17_11h27.35.816,kallum_motion_pilot_GIST_update_2,2026.1.1,Win32,59.88023952,63359b3bffb1f6a9f45b7c60,69b92ab4aef6dee357cd729a,69b92c7c70f632511d559757,0.0357,0.0357,0,148,148,49,1,onethree,,,,,,,,,,,,,,,,,,,,,,,,,,,,,,,,,,,,,,,,,,,,,,,,,,,,,,,,,,,,,,,,,,,,,,,,,,,,,,,,,,,,,,,,,,,,,,,,,,,,,,,,,,,,,,,,,,,,,,,,,,,,,,,,,,,,,,,,,
,,63359b3bffb1f6a9f45b7c60,2026-03-17_11h27.35.816,kallum_motion_pilot_GIST_update_2,2026.1.1,Win32,59.88023952,63359b3bffb1f6a9f45b7c60,69b92ab4aef6dee357cd729a,69b92c7c70f632511d559757,0.0358,0.0358,0,149,149,94,1,eightsix,,,,,,,,,,,,,,,,,,,,,,,,,,,,,,,,,,,,,,,,,,,,,,,,,,,,,,,,,,,,,,,,,,,,,,,,,,,,,,,,,,,,,,,,,,,,,,,,,,,,,,,,,,,,,,,,,,,,,,,,,,,,,,,,,,,,,,,,,
,,63359b3bffb1f6a9f45b7c60,2026-03-17_11h27.35.816,kallum_motion_pilot_GIST_update_2,2026.1.1,Win32,59.88023952,63359b3bffb1f6a9f45b7c60,69b92ab4aef6dee357cd729a,69b92c7c70f632511d559757,0.0361,0.0361,0,150,150,146,1,sixfive,,,,,,,,,,,,,,,,,,,,,,,,,,,,,,,,,,,,,,,,,,,,,,,,,,,,,,,,,,,,,,,,,,,,,,,,,,,,,,,,,,,,,,,,,,,,,,,,,,,,,,,,,,,,,,,,,,,,,,,,,,,,,,,,,,,,,,,,,
,,63359b3bffb1f6a9f45b7c60,2026-03-17_11h27.35.816,kallum_motion_pilot_GIST_update_2,2026.1.1,Win32,59.88023952,63359b3bffb1f6a9f45b7c60,69b92ab4aef6dee357cd729a,69b92c7c70f632511d559757,0.0362,0.0362,0,151,151,136,1,fivesix,,,,,,,,,,,,,,,,,,,,,,,,,,,,,,,,,,,,,,,,,,,,,,,,,,,,,,,,,,,,,,,,,,,,,,,,,,,,,,,,,,,,,,,,,,,,,,,,,,,,,,,,,,,,,,,,,,,,,,,,,,,,,,,,,,,,,,,,,
,,63359b3bffb1f6a9f45b7c60,2026-03-17_11h27.35.816,kallum_motion_pilot_GIST_update_2,2026.1.1,Win32,59.88023952,63359b3bffb1f6a9f45b7c60,69b92ab4aef6dee357cd729a,69b92c7c70f632511d559757,0.0362,0.0362,0,152,152,65,1,onethree,,,,,,,,,,,,,,,,,,,,,,,,,,,,,,,,,,,,,,,,,,,,,,,,,,,,,,,,,,,,,,,,,,,,,,,,,,,,,,,,,,,,,,,,,,,,,,,,,,,,,,,,,,,,,,,,,,,,,,,,,,,,,,,,,,,,,,,,,
,,63359b3bffb1f6a9f45b7c60,2026-03-17_11h27.35.816,kallum_motion_pilot_GIST_update_2,2026.1.1,Win32,59.88023952,63359b3bffb1f6a9f45b7c60,69b92ab4aef6dee357cd729a,69b92c7c70f632511d559757,0.0364,0.0364,0,153,153,36,1,threeone,,,,,,,,,,,,,,,,,,,,,,,,,,,,,,,,,,,,,,,,,,,,,,,,,,,,,,,,,,,,,,,,,,,,,,,,,,,,,,,,,,,,,,,,,,,,,,,,,,,,,,,,,,,,,,,,,,,,,,,,,,,,,,,,,,,,,,,,,
,,63359b3bffb1f6a9f45b7c60,2026-03-17_11h27.35.816,kallum_motion_pilot_GIST_update_2,2026.1.1,Win32,59.88023952,63359b3bffb1f6a9f45b7c60,69b92ab4aef6dee357cd729a,69b92c7c70f632511d559757,0.0365,0.0365,0,154,154,140,1,sevenfive,,,,,,,,,,,,,,,,,,,,,,,,,,,,,,,,,,,,,,,,,,,,,,,,,,,,,,,,,,,,,,,,,,,,,,,,,,,,,,,,,,,,,,,,,,,,,,,,,,,,,,,,,,,,,,,,,,,,,,,,,,,,,,,,,,,,,,,,,
,,63359b3bffb1f6a9f45b7c60,2026-03-17_11h27.35.816,kallum_motion_pilot_GIST_update_2,2026.1.1,Win32,59.88023952,63359b3bffb1f6a9f45b7c60,69b92ab4aef6dee357cd729a,69b92c7c70f632511d559757,0.0366,0.0366,0,155,155,148,1,sevenfive,,,,,,,,,,,,,,,,,,,,,,,,,,,,,,,,,,,,,,,,,,,,,,,,,,,,,,,,,,,,,,,,,,,,,,,,,,,,,,,,,,,,,,,,,,,,,,,,,,,,,,,,,,,,,,,,,,,,,,,,,,,,,,,,,,,,,,,,,
,,63359b3bffb1f6a9f45b7c60,2026-03-17_11h27.35.816,kallum_motion_pilot_GIST_update_2,2026.1.1,Win32,59.88023952,63359b3bffb1f6a9f45b7c60,69b92ab4aef6dee357cd729a,69b92c7c70f632511d559757,0.0368,0.0368,0,156,156,100,1,sevenfive,,,,,,,,,,,,,,,,,,,,,,,,,,,,,,,,,,,,,,,,,,,,,,,,,,,,,,,,,,,,,,,,,,,,,,,,,,,,,,,,,,,,,,,,,,,,,,,,,,,,,,,,,,,,,,,,,,,,,,,,,,,,,,,,,,,,,,,,,
,,63359b3bffb1f6a9f45b7c60,2026-03-17_11h27.35.816,kallum_motion_pilot_GIST_update_2,2026.1.1,Win32,59.88023952,63359b3bffb1f6a9f45b7c60,69b92ab4aef6dee357cd729a,69b92c7c70f632511d559757,0.0368,0.0368,0,157,157,149,1,seveneight,,,,,,,,,,,,,,,,,,,,,,,,,,,,,,,,,,,,,,,,,,,,,,,,,,,,,,,,,,,,,,,,,,,,,,,,,,,,,,,,,,,,,,,,,,,,,,,,,,,,,,,,,,,,,,,,,,,,,,,,,,,,,,,,,,,,,,,,,
,,63359b3bffb1f6a9f45b7c60,2026-03-17_11h27.35.816,kallum_motion_pilot_GIST_update_2,2026.1.1,Win32,59.88023952,63359b3bffb1f6a9f45b7c60,69b92ab4aef6dee357cd729a,69b92c7c70f632511d559757,0.037,0.037,0,158,158,137,1,fiveseven,,,,,,,,,,,,,,,,,,,,,,,,,,,,,,,,,,,,,,,,,,,,,,,,,,,,,,,,,,,,,,,,,,,,,,,,,,,,,,,,,,,,,,,,,,,,,,,,,,,,,,,,,,,,,,,,,,,,,,,,,,,,,,,,,,,,,,,,,
,,63359b3bffb1f6a9f45b7c60,2026-03-17_11h27.35.816,kallum_motion_pilot_GIST_update_2,2026.1.1,Win32,59.88023952,63359b3bffb1f6a9f45b7c60,69b92ab4aef6dee357cd729a,69b92c7c70f632511d559757,0.0371,0.0372,0,159,159,127,1,eightseven,,,,,,,,,,,,,,,,,,,,,,,,,,,,,,,,,,,,,,,,,,,,,,,,,,,,,,,,,,,,,,,,,,,,,,,,,,,,,,,,,,,,,,,,,,,,,,,,,,,,,,,,,,,,,,,,,,,,,,,,,,,,,,,,,,,,,,,,,
,,63359b3bffb1f6a9f45b7c60,2026-03-17_11h27.35.816,kallum_motion_pilot_GIST_update_2,2026.1.1,Win32,59.88023952,63359b3bffb1f6a9f45b7c60,69b92ab4aef6dee357cd729a,69b92c7c70f632511d559757,0.0372,0.0372,0,160,160,132,1,sevenfive,,,,,,,,,,,,,,,,,,,,,,,,,,,,,,,,,,,,,,,,,,,,,,,,,,,,,,,,,,,,,,,,,,,,,,,,,,,,,,,,,,,,,,,,,,,,,,,,,,,,,,,,,,,,,,,,,,,,,,,,,,,,,,,,,,,,,,,,,
,,63359b3bffb1f6a9f45b7c60,2026-03-17_11h27.35.816,kallum_motion_pilot_GIST_update_2,2026.1.1,Win32,59.88023952,63359b3bffb1f6a9f45b7c60,69b92ab4aef6dee357cd729a,69b92c7c70f632511d559757,0.0373,0.0373,0,161,161,161,1,fiveseven,,,,,,,,,,,,,,,,,,,,,,,,,,,,,,,,,,,,,,,,,,,,,,,,,,,,,,,,,,,,,,,,,,,,,,,,,,,,,,,,,,,,,,,,,,,,,,,,,,,,,,,,,,,,,,,,,,,,,,,,,,,,,,,,,,,,,,,,,
,,63359b3bffb1f6a9f45b7c60,2026-03-17_11h27.35.816,kallum_motion_pilot_GIST_update_2,2026.1.1,Win32,59.88023952,63359b3bffb1f6a9f45b7c60,69b92ab4aef6dee357cd729a,69b92c7c70f632511d559757,0.0375,0.0375,1,0,162,52,1,threeone,,,,,,,,,,,,,,,,,,,,,,,,,,,,,,,,,,,,,,,,,,,,,,,,,,,,,,,,,,,,,,,,,,,,,,,,,,,,,,,,,,,,,,,,,,,,,,,,,,,,,,,,,,,,,,,,,,,,,,,,,,,,,,,,,,,,,,,,,
,,63359b3bffb1f6a9f45b7c60,2026-03-17_11h27.35.816,kallum_motion_pilot_GIST_update_2,2026.1.1,Win32,59.88023952,63359b3bffb1f6a9f45b7c60,69b92ab4aef6dee357cd729a,69b92c7c70f632511d559757,0.0376,0.0376,1,1,163,116,1,sevenfive,,,,,,,,,,,,,,,,,,,,,,,,,,,,,,,,,,,,,,,,,,,,,,,,,,,,,,,,,,,,,,,,,,,,,,,,,,,,,,,,,,,,,,,,,,,,,,,,,,,,,,,,,,,,,,,,,,,,,,,,,,,,,,,,,,,,,,,,,
,,63359b3bffb1f6a9f45b7c60,2026-03-17_11h27.35.816,kallum_motion_pilot_GIST_update_2,2026.1.1,Win32,59.88023952,63359b3bffb1f6a9f45b7c60,69b92ab4aef6dee357cd729a,69b92c7c70f632511d559757,0.0378,0.0378,1,2,164,48,1,onetwo,,,,,,,,,,,,,,,,,,,,,,,,,,,,,,,,,,,,,,,,,,,,,,,,,,,,,,,,,,,,,,,,,,,,,,,,,,,,,,,,,,,,,,,,,,,,,,,,,,,,,,,,,,,,,,,,,,,,,,,,,,,,,,,,,,,,,,,,,
,,63359b3bffb1f6a9f45b7c60,2026-03-17_11h27.35.816,kallum_motion_pilot_GIST_update_2,2026.1.1,Win32,59.88023952,63359b3bffb1f6a9f45b7c60,69b92ab4aef6dee357cd729a,69b92c7c70f632511d559757,0.0379,0.0379,1,3,165,97,1,fiveseven,,,,,,,,,,,,,,,,,,,,,,,,,,,,,,,,,,,,,,,,,,,,,,,,,,,,,,,,,,,,,,,,,,,,,,,,,,,,,,,,,,,,,,,,,,,,,,,,,,,,,,,,,,,,,,,,,,,,,,,,,,,,,,,,,,,,,,,,,
,,63359b3bffb1f6a9f45b7c60,2026-03-17_11h27.35.816,kallum_motion_pilot_GIST_update_2,2026.1.1,Win32,59.88023952,63359b3bffb1f6a9f45b7c60,69b92ab4aef6dee357cd729a,69b92c7c70f632511d559757,0.0381,0.0381,1,4,166,5,1,threefour,,,,,,,,,,,,,,,,,,,,,,,,,,,,,,,,,,,,,,,,,,,,,,,,,,,,,,,,,,,,,,,,,,,,,,,,,,,,,,,,,,,,,,,,,,,,,,,,,,,,,,,,,,,,,,,,,,,,,,,,,,,,,,,,,,,,,,,,,
,,63359b3bffb1f6a9f45b7c60,2026-03-17_11h27.35.816,kallum_motion_pilot_GIST_update_2,2026.1.1,Win32,59.88023952,63359b3bffb1f6a9f45b7c60,69b92ab4aef6dee357cd729a,69b92c7c70f632511d559757,0.0382,0.0382,1,5,167,68,1,threeone,,,,,,,,,,,,,,,,,,,,,,,,,,,,,,,,,,,,,,,,,,,,,,,,,,,,,,,,,,,,,,,,,,,,,,,,,,,,,,,,,,,,,,,,,,,,,,,,,,,,,,,,,,,,,,,,,,,,,,,,,,,,,,,,,,,,,,,,,
,,63359b3bffb1f6a9f45b7c60,2026-03-17_11h27.35.816,kallum_motion_pilot_GIST_update_2,2026.1.1,Win32,59.88023952,63359b3bffb1f6a9f45b7c60,69b92ab4aef6dee357cd729a,69b92c7c70f632511d559757,0.0384,0.0384,1,6,168,54,1,fourtwo,,,,,,,,,,,,,,,,,,,,,,,,,,,,,,,,,,,,,,,,,,,,,,,,,,,,,,,,,,,,,,,,,,,,,,,,,,,,,,,,,,,,,,,,,,,,,,,,,,,,,,,,,,,,,,,,,,,,,,,,,,,,,,,,,,,,,,,,,
,,63359b3bffb1f6a9f45b7c60,2026-03-17_11h27.35.816,kallum_motion_pilot_GIST_update_2,2026.1.1,Win32,59.88023952,63359b3bffb1f6a9f45b7c60,69b92ab4aef6dee357cd729a,69b92c7c70f632511d559757,0.0384,0.0384,1,7,169,8,1,onetwo,,,,,,,,,,,,,,,,,,,,,,,,,,,,,,,,,,,,,,,,,,,,,,,,,,,,,,,,,,,,,,,,,,,,,,,,,,,,,,,,,,,,,,,,,,,,,,,,,,,,,,,,,,,,,,,,,,,,,,,,,,,,,,,,,,,,,,,,,
,,63359b3bffb1f6a9f45b7c60,2026-03-17_11h27.35.816,kallum_motion_pilot_GIST_update_2,2026.1.1,Win32,59.88023952,63359b3bffb1f6a9f45b7c60,69b92ab4aef6dee357cd729a,69b92c7c70f632511d559757,0.0386,0.0386,1,8,170,57,1,onethree,,,,,,,,,,,,,,,,,,,,,,,,,,,,,,,,,,,,,,,,,,,,,,,,,,,,,,,,,,,,,,,,,,,,,,,,,,,,,,,,,,,,,,,,,,,,,,,,,,,,,,,,,,,,,,,,,,,,,,,,,,,,,,,,,,,,,,,,,
,,63359b3bffb1f6a9f45b7c60,2026-03-17_11h27.35.816,kallum_motion_pilot_GIST_update_2,2026.1.1,Win32,59.88023952,63359b3bffb1f6a9f45b7c60,69b92ab4aef6dee357cd729a,69b92c7c70f632511d559757,0.0387,0.0387,1,9,171,43,1,twofour,,,,,,,,,,,,,,,,,,,,,,,,,,,,,,,,,,,,,,,,,,,,,,,,,,,,,,,,,,,,,,,,,,,,,,,,,,,,,,,,,,,,,,,,,,,,,,,,,,,,,,,,,,,,,,,,,,,,,,,,,,,,,,,,,,,,,,,,,
,,63359b3bffb1f6a9f45b7c60,2026-03-17_11h27.35.816,kallum_motion_pilot_GIST_update_2,2026.1.1,Win32,59.88023952,63359b3bffb1f6a9f45b7c60,69b92ab4aef6dee357cd729a,69b92c7c70f632511d559757,0.0389,0.0389,1,10,172,17,1,onethree,,,,,,,,,,,,,,,,,,,,,,,,,,,,,,,,,,,,,,,,,,,,,,,,,,,,,,,,,,,,,,,,,,,,,,,,,,,,,,,,,,,,,,,,,,,,,,,,,,,,,,,,,,,,,,,,,,,,,,,,,,,,,,,,,,,,,,,,,
,,63359b3bffb1f6a9f45b7c60,2026-03-17_11h27.35.816,kallum_motion_pilot_GIST_update_2,2026.1.1,Win32,59.88023952,63359b3bffb1f6a9f45b7c60,69b92ab4aef6dee357cd729a,69b92c7c70f632511d559757,0.0389,0.0389,1,11,173,59,1,twofour,,,,,,,,,,,,,,,,,,,,,,,,,,,,,,,,,,,,,,,,,,,,,,,,,,,,,,,,,,,,,,,,,,,,,,,,,,,,,,,,,,,,,,,,,,,,,,,,,,,,,,,,,,,,,,,,,,,,,,,,,,,,,,,,,,,,,,,,,
,,63359b3bffb1f6a9f45b7c60,2026-03-17_11h27.35.816,kallum_motion_pilot_GIST_update_2,2026.1.1,Win32,59.88023952,63359b3bffb1f6a9f45b7c60,69b92ab4aef6dee357cd729a,69b92c7c70f632511d559757,0.0391,0.0391,1,12,174,82,1,sixfive,,,,,,,,,,,,,,,,,,,,,,,,,,,,,,,,,,,,,,,,,,,,,,,,,,,,,,,,,,,,,,,,,,,,,,,,,,,,,,,,,,,,,,,,,,,,,,,,,,,,,,,,,,,,,,,,,,,,,,,,,,,,,,,,,,,,,,,,,
,,63359b3bffb1f6a9f45b7c60,2026-03-17_11h27.35.816,kallum_motion_pilot_GIST_update_2,2026.1.1,Win32,59.88023952,63359b3bffb1f6a9f45b7c60,69b92ab4aef6dee357cd729a,69b92c7c70f632511d559757,0.0392,0.0392,1,13,175,159,1,eightseven,,,,,,,,,,,,,,,,,,,,,,,,,,,,,,,,,,,,,,,,,,,,,,,,,,,,,,,,,,,,,,,,,,,,,,,,,,,,,,,,,,,,,,,,,,,,,,,,,,,,,,,,,,,,,,,,,,,,,,,,,,,,,,,,,,,,,,,,,
,,63359b3bffb1f6a9f45b7c60,2026-03-17_11h27.35.816,kallum_motion_pilot_GIST_update_2,2026.1.1,Win32,59.88023952,63359b3bffb1f6a9f45b7c60,69b92ab4aef6dee357cd729a,69b92c7c70f632511d559757,0.0392,0.0392,1,14,176,118,1,eightsix,,,,,,,,,,,,,,,,,,,,,,,,,,,,,,,,,,,,,,,,,,,,,,,,,,,,,,,,,,,,,,,,,,,,,,,,,,,,,,,,,,,,,,,,,,,,,,,,,,,,,,,,,,,,,,,,,,,,,,,,,,,,,,,,,,,,,,,,,
,,63359b3bffb1f6a9f45b7c60,2026-03-17_11h27.35.816,kallum_motion_pilot_GIST_update_2,2026.1.1,Win32,59.88023952,63359b3bffb1f6a9f45b7c60,69b92ab4aef6dee357cd729a,69b92c7c70f632511d559757,0.0394,0.0394,1,15,177,30,1,fourtwo,,,,,,,,,,,,,,,,,,,,,,,,,,,,,,,,,,,,,,,,,,,,,,,,,,,,,,,,,,,,,,,,,,,,,,,,,,,,,,,,,,,,,,,,,,,,,,,,,,,,,,,,,,,,,,,,,,,,,,,,,,,,,,,,,,,,,,,,,
,,63359b3bffb1f6a9f45b7c60,2026-03-17_11h27.35.816,kallum_motion_pilot_GIST_update_2,2026.1.1,Win32,59.88023952,63359b3bffb1f6a9f45b7c60,69b92ab4aef6dee357cd729a,69b92c7c70f632511d559757,0.0395,0.0395,1,16,178,139,1,sixeight,,,,,,,,,,,,,,,,,,,,,,,,,,,,,,,,,,,,,,,,,,,,,,,,,,,,,,,,,,,,,,,,,,,,,,,,,,,,,,,,,,,,,,,,,,,,,,,,,,,,,,,,,,,,,,,,,,,,,,,,,,,,,,,,,,,,,,,,,
,,63359b3bffb1f6a9f45b7c60,2026-03-17_11h27.35.816,kallum_motion_pilot_GIST_update_2,2026.1.1,Win32,59.88023952,63359b3bffb1f6a9f45b7c60,69b92ab4aef6dee357cd729a,69b92c7c70f632511d559757,0.0397,0.0397,1,17,179,45,1,threefour,,,,,,,,,,,,,,,,,,,,,,,,,,,,,,,,,,,,,,,,,,,,,,,,,,,,,,,,,,,,,,,,,,,,,,,,,,,,,,,,,,,,,,,,,,,,,,,,,,,,,,,,,,,,,,,,,,,,,,,,,,,,,,,,,,,,,,,,,
,,63359b3bffb1f6a9f45b7c60,2026-03-17_11h27.35.816,kallum_motion_pilot_GIST_update_2,2026.1.1,Win32,59.88023952,63359b3bffb1f6a9f45b7c60,69b92ab4aef6dee357cd729a,69b92c7c70f632511d559757,0.0408,0.0408,1,18,180,135,1,eightseven,,,,,,,,,,,,,,,,,,,,,,,,,,,,,,,,,,,,,,,,,,,,,,,,,,,,,,,,,,,,,,,,,,,,,,,,,,,,,,,,,,,,,,,,,,,,,,,,,,,,,,,,,,,,,,,,,,,,,,,,,,,,,,,,,,,,,,,,,
,,63359b3bffb1f6a9f45b7c60,2026-03-17_11h27.35.816,kallum_motion_pilot_GIST_update_2,2026.1.1,Win32,59.88023952,63359b3bffb1f6a9f45b7c60,69b92ab4aef6dee357cd729a,69b92c7c70f632511d559757,0.041,0.041,1,19,181,46,1,fourtwo,,,,,,,,,,,,,,,,,,,,,,,,,,,,,,,,,,,,,,,,,,,,,,,,,,,,,,,,,,,,,,,,,,,,,,,,,,,,,,,,,,,,,,,,,,,,,,,,,,,,,,,,,,,,,,,,,,,,,,,,,,,,,,,,,,,,,,,,,
,,63359b3bffb1f6a9f45b7c60,2026-03-17_11h27.35.816,kallum_motion_pilot_GIST_update_2,2026.1.1,Win32,59.88023952,63359b3bffb1f6a9f45b7c60,69b92ab4aef6dee357cd729a,69b92c7c70f632511d559757,0.0411,0.0411,1,20,182,76,1,threeone,,,,,,,,,,,,,,,,,,,,,,,,,,,,,,,,,,,,,,,,,,,,,,,,,,,,,,,,,,,,,,,,,,,,,,,,,,,,,,,,,,,,,,,,,,,,,,,,,,,,,,,,,,,,,,,,,,,,,,,,,,,,,,,,,,,,,,,,,
,,63359b3bffb1f6a9f45b7c60,2026-03-17_11h27.35.816,kallum_motion_pilot_GIST_update_2,2026.1.1,Win32,59.88023952,63359b3bffb1f6a9f45b7c60,69b92ab4aef6dee357cd729a,69b92c7c70f632511d559757,0.0412,0.0412,1,21,183,88,1,fivesix,,,,,,,,,,,,,,,,,,,,,,,,,,,,,,,,,,,,,,,,,,,,,,,,,,,,,,,,,,,,,,,,,,,,,,,,,,,,,,,,,,,,,,,,,,,,,,,,,,,,,,,,,,,,,,,,,,,,,,,,,,,,,,,,,,,,,,,,,
,,63359b3bffb1f6a9f45b7c60,2026-03-17_11h27.35.816,kallum_motion_pilot_GIST_update_2,2026.1.1,Win32,59.88023952,63359b3bffb1f6a9f45b7c60,69b92ab4aef6dee357cd729a,69b92c7c70f632511d559757,0.0414,0.0414,1,22,184,106,1,sixfive,,,,,,,,,,,,,,,,,,,,,,,,,,,,,,,,,,,,,,,,,,,,,,,,,,,,,,,,,,,,,,,,,,,,,,,,,,,,,,,,,,,,,,,,,,,,,,,,,,,,,,,,,,,,,,,,,,,,,,,,,,,,,,,,,,,,,,,,,
,,63359b3bffb1f6a9f45b7c60,2026-03-17_11h27.35.816,kallum_motion_pilot_GIST_update_2,2026.1.1,Win32,59.88023952,63359b3bffb1f6a9f45b7c60,69b92ab4aef6dee357cd729a,69b92c7c70f632511d559757,0.0414,0.0414,1,23,185,32,1,onetwo,,,,,,,,,,,,,,,,,,,,,,,,,,,,,,,,,,,,,,,,,,,,,,,,,,,,,,,,,,,,,,,,,,,,,,,,,,,,,,,,,,,,,,,,,,,,,,,,,,,,,,,,,,,,,,,,,,,,,,,,,,,,,,,,,,,,,,,,,
,,63359b3bffb1f6a9f45b7c60,2026-03-17_11h27.35.816,kallum_motion_pilot_GIST_update_2,2026.1.1,Win32,59.88023952,63359b3bffb1f6a9f45b7c60,69b92ab4aef6dee357cd729a,69b92c7c70f632511d559757,0.0416,0.0416,1,24,186,2,1,twoone,,,,,,,,,,,,,,,,,,,,,,,,,,,,,,,,,,,,,,,,,,,,,,,,,,,,,,,,,,,,,,,,,,,,,,,,,,,,,,,,,,,,,,,,,,,,,,,,,,,,,,,,,,,,,,,,,,,,,,,,,,,,,,,,,,,,,,,,,
,,63359b3bffb1f6a9f45b7c60,2026-03-17_11h27.35.816,kallum_motion_pilot_GIST_update_2,2026.1.1,Win32,59.88023952,63359b3bffb1f6a9f45b7c60,69b92ab4aef6dee357cd729a,69b92c7c70f632511d559757,0.0417,0.0417,1,25,187,3,1,twofour,,,,,,,,,,,,,,,,,,,,,,,,,,,,,,,,,,,,,,,,,,,,,,,,,,,,,,,,,,,,,,,,,,,,,,,,,,,,,,,,,,,,,,,,,,,,,,,,,,,,,,,,,,,,,,,,,,,,,,,,,,,,,,,,,,,,,,,,,
,,63359b3bffb1f6a9f45b7c60,2026-03-17_11h27.35.816,kallum_motion_pilot_GIST_update_2,2026.1.1,Win32,59.88023952,63359b3bffb1f6a9f45b7c60,69b92ab4aef6dee357cd729a,69b92c7c70f632511d559757,0.0418,0.0418,1,26,188,11,1,twofour,,,,,,,,,,,,,,,,,,,,,,,,,,,,,,,,,,,,,,,,,,,,,,,,,,,,,,,,,,,,,,,,,,,,,,,,,,,,,,,,,,,,,,,,,,,,,,,,,,,,,,,,,,,,,,,,,,,,,,,,,,,,,,,,,,,,,,,,,
,,63359b3bffb1f6a9f45b7c60,2026-03-17_11h27.35.816,kallum_motion_pilot_GIST_update_2,2026.1.1,Win32,59.88023952,63359b3bffb1f6a9f45b7c60,69b92ab4aef6dee357cd729a,69b92c7c70f632511d559757,0.0419,0.0419,1,27,189,7,1,fourthree,,,,,,,,,,,,,,,,,,,,,,,,,,,,,,,,,,,,,,,,,,,,,,,,,,,,,,,,,,,,,,,,,,,,,,,,,,,,,,,,,,,,,,,,,,,,,,,,,,,,,,,,,,,,,,,,,,,,,,,,,,,,,,,,,,,,,,,,,
,,63359b3bffb1f6a9f45b7c60,2026-03-17_11h27.35.816,kallum_motion_pilot_GIST_update_2,2026.1.1,Win32,59.88023952,63359b3bffb1f6a9f45b7c60,69b92ab4aef6dee357cd729a,69b92c7c70f632511d559757,0.042,0.042,1,28,190,153,1,fiveseven,,,,,,,,,,,,,,,,,,,,,,,,,,,,,,,,,,,,,,,,,,,,,,,,,,,,,,,,,,,,,,,,,,,,,,,,,,,,,,,,,,,,,,,,,,,,,,,,,,,,,,,,,,,,,,,,,,,,,,,,,,,,,,,,,,,,,,,,,
,,63359b3bffb1f6a9f45b7c60,2026-03-17_11h27.35.816,kallum_motion_pilot_GIST_update_2,2026.1.1,Win32,59.88023952,63359b3bffb1f6a9f45b7c60,69b92ab4aef6dee357cd729a,69b92c7c70f632511d559757,0.0422,0.0422,1,29,191,39,1,fourthree,,,,,,,,,,,,,,,,,,,,,,,,,,,,,,,,,,,,,,,,,,,,,,,,,,,,,,,,,,,,,,,,,,,,,,,,,,,,,,,,,,,,,,,,,,,,,,,,,,,,,,,,,,,,,,,,,,,,,,,,,,,,,,,,,,,,,,,,,
,,63359b3bffb1f6a9f45b7c60,2026-03-17_11h27.35.816,kallum_motion_pilot_GIST_update_2,2026.1.1,Win32,59.88023952,63359b3bffb1f6a9f45b7c60,69b92ab4aef6dee357cd729a,69b92c7c70f632511d559757,0.0423,0.0423,1,30,192,157,1,seveneight,,,,,,,,,,,,,,,,,,,,,,,,,,,,,,,,,,,,,,,,,,,,,,,,,,,,,,,,,,,,,,,,,,,,,,,,,,,,,,,,,,,,,,,,,,,,,,,,,,,,,,,,,,,,,,,,,,,,,,,,,,,,,,,,,,,,,,,,,
,,63359b3bffb1f6a9f45b7c60,2026-03-17_11h27.35.816,kallum_motion_pilot_GIST_update_2,2026.1.1,Win32,59.88023952,63359b3bffb1f6a9f45b7c60,69b92ab4aef6dee357cd729a,69b92c7c70f632511d559757,0.0424,0.0424,1,31,193,10,1,twoone,,,,,,,,,,,,,,,,,,,,,,,,,,,,,,,,,,,,,,,,,,,,,,,,,,,,,,,,,,,,,,,,,,,,,,,,,,,,,,,,,,,,,,,,,,,,,,,,,,,,,,,,,,,,,,,,,,,,,,,,,,,,,,,,,,,,,,,,,
,,63359b3bffb1f6a9f45b7c60,2026-03-17_11h27.35.816,kallum_motion_pilot_GIST_update_2,2026.1.1,Win32,59.88023952,63359b3bffb1f6a9f45b7c60,69b92ab4aef6dee357cd729a,69b92c7c70f632511d559757,0.0425,0.0425,1,32,194,127,1,eightseven,,,,,,,,,,,,,,,,,,,,,,,,,,,,,,,,,,,,,,,,,,,,,,,,,,,,,,,,,,,,,,,,,,,,,,,,,,,,,,,,,,,,,,,,,,,,,,,,,,,,,,,,,,,,,,,,,,,,,,,,,,,,,,,,,,,,,,,,,
,,63359b3bffb1f6a9f45b7c60,2026-03-17_11h27.35.816,kallum_motion_pilot_GIST_update_2,2026.1.1,Win32,59.88023952,63359b3bffb1f6a9f45b7c60,69b92ab4aef6dee357cd729a,69b92c7c70f632511d559757,0.0426,0.0426,1,33,195,50,1,twoone,,,,,,,,,,,,,,,,,,,,,,,,,,,,,,,,,,,,,,,,,,,,,,,,,,,,,,,,,,,,,,,,,,,,,,,,,,,,,,,,,,,,,,,,,,,,,,,,,,,,,,,,,,,,,,,,,,,,,,,,,,,,,,,,,,,,,,,,,
,,63359b3bffb1f6a9f45b7c60,2026-03-17_11h27.35.816,kallum_motion_pilot_GIST_update_2,2026.1.1,Win32,59.88023952,63359b3bffb1f6a9f45b7c60,69b92ab4aef6dee357cd729a,69b92c7c70f632511d559757,0.0427,0.0428,1,34,196,21,1,threefour,,,,,,,,,,,,,,,,,,,,,,,,,,,,,,,,,,,,,,,,,,,,,,,,,,,,,,,,,,,,,,,,,,,,,,,,,,,,,,,,,,,,,,,,,,,,,,,,,,,,,,,,,,,,,,,,,,,,,,,,,,,,,,,,,,,,,,,,,
,,63359b3bffb1f6a9f45b7c60,2026-03-17_11h27.35.816,kallum_motion_pilot_GIST_update_2,2026.1.1,Win32,59.88023952,63359b3bffb1f6a9f45b7c60,69b92ab4aef6dee357cd729a,69b92c7c70f632511d559757,0.0429,0.0429,1,35,197,154,1,sixfive,,,,,,,,,,,,,,,,,,,,,,,,,,,,,,,,,,,,,,,,,,,,,,,,,,,,,,,,,,,,,,,,,,,,,,,,,,,,,,,,,,,,,,,,,,,,,,,,,,,,,,,,,,,,,,,,,,,,,,,,,,,,,,,,,,,,,,,,,
,,63359b3bffb1f6a9f45b7c60,2026-03-17_11h27.35.816,kallum_motion_pilot_GIST_update_2,2026.1.1,Win32,59.88023952,63359b3bffb1f6a9f45b7c60,69b92ab4aef6dee357cd729a,69b92c7c70f632511d559757,0.043,0.0431,1,36,198,66,1,twoone,,,,,,,,,,,,,,,,,,,,,,,,,,,,,,,,,,,,,,,,,,,,,,,,,,,,,,,,,,,,,,,,,,,,,,,,,,,,,,,,,,,,,,,,,,,,,,,,,,,,,,,,,,,,,,,,,,,,,,,,,,,,,,,,,,,,,,,,,
,,63359b3bffb1f6a9f45b7c60,2026-03-17_11h27.35.816,kallum_motion_pilot_GIST_update_2,2026.1.1,Win32,59.88023952,63359b3bffb1f6a9f45b7c60,69b92ab4aef6dee357cd729a,69b92c7c70f632511d559757,0.0432,0.0432,1,37,199,101,1,seveneight,,,,,,,,,,,,,,,,,,,,,,,,,,,,,,,,,,,,,,,,,,,,,,,,,,,,,,,,,,,,,,,,,,,,,,,,,,,,,,,,,,,,,,,,,,,,,,,,,,,,,,,,,,,,,,,,,,,,,,,,,,,,,,,,,,,,,,,,,
,,63359b3bffb1f6a9f45b7c60,2026-03-17_11h27.35.816,kallum_motion_pilot_GIST_update_2,2026.1.1,Win32,59.88023952,63359b3bffb1f6a9f45b7c60,69b92ab4aef6dee357cd729a,69b92c7c70f632511d559757,0.0433,0.0433,1,38,200,122,1,sixfive,,,,,,,,,,,,,,,,,,,,,,,,,,,,,,,,,,,,,,,,,,,,,,,,,,,,,,,,,,,,,,,,,,,,,,,,,,,,,,,,,,,,,,,,,,,,,,,,,,,,,,,,,,,,,,,,,,,,,,,,,,,,,,,,,,,,,,,,,
,,63359b3bffb1f6a9f45b7c60,2026-03-17_11h27.35.816,kallum_motion_pilot_GIST_update_2,2026.1.1,Win32,59.88023952,63359b3bffb1f6a9f45b7c60,69b92ab4aef6dee357cd729a,69b92c7c70f632511d559757,0.0434,0.0434,1,39,201,63,1,fourthree,,,,,,,,,,,,,,,,,,,,,,,,,,,,,,,,,,,,,,,,,,,,,,,,,,,,,,,,,,,,,,,,,,,,,,,,,,,,,,,,,,,,,,,,,,,,,,,,,,,,,,,,,,,,,,,,,,,,,,,,,,,,,,,,,,,,,,,,,
,,63359b3bffb1f6a9f45b7c60,2026-03-17_11h27.35.816,kallum_motion_pilot_GIST_update_2,2026.1.1,Win32,59.88023952,63359b3bffb1f6a9f45b7c60,69b92ab4aef6dee357cd729a,69b92c7c70f632511d559757,0.0435,0.0435,1,40,202,71,1,fourthree,,,,,,,,,,,,,,,,,,,,,,,,,,,,,,,,,,,,,,,,,,,,,,,,,,,,,,,,,,,,,,,,,,,,,,,,,,,,,,,,,,,,,,,,,,,,,,,,,,,,,,,,,,,,,,,,,,,,,,,,,,,,,,,,,,,,,,,,,
,,63359b3bffb1f6a9f45b7c60,2026-03-17_11h27.35.816,kallum_motion_pilot_GIST_update_2,2026.1.1,Win32,59.88023952,63359b3bffb1f6a9f45b7c60,69b92ab4aef6dee357cd729a,69b92c7c70f632511d559757,0.0436,0.0436,1,41,203,129,1,fiveseven,,,,,,,,,,,,,,,,,,,,,,,,,,,,,,,,,,,,,,,,,,,,,,,,,,,,,,,,,,,,,,,,,,,,,,,,,,,,,,,,,,,,,,,,,,,,,,,,,,,,,,,,,,,,,,,,,,,,,,,,,,,,,,,,,,,,,,,,,
,,63359b3bffb1f6a9f45b7c60,2026-03-17_11h27.35.816,kallum_motion_pilot_GIST_update_2,2026.1.1,Win32,59.88023952,63359b3bffb1f6a9f45b7c60,69b92ab4aef6dee357cd729a,69b92c7c70f632511d559757,0.0438,0.0438,1,42,204,25,1,onethree,,,,,,,,,,,,,,,,,,,,,,,,,,,,,,,,,,,,,,,,,,,,,,,,,,,,,,,,,,,,,,,,,,,,,,,,,,,,,,,,,,,,,,,,,,,,,,,,,,,,,,,,,,,,,,,,,,,,,,,,,,,,,,,,,,,,,,,,,
,,63359b3bffb1f6a9f45b7c60,2026-03-17_11h27.35.816,kallum_motion_pilot_GIST_update_2,2026.1.1,Win32,59.88023952,63359b3bffb1f6a9f45b7c60,69b92ab4aef6dee357cd729a,69b92c7c70f632511d559757,0.0438,0.0438,1,43,205,158,1,eightsix,,,,,,,,,,,,,,,,,,,,,,,,,,,,,,,,,,,,,,,,,,,,,,,,,,,,,,,,,,,,,,,,,,,,,,,,,,,,,,,,,,,,,,,,,,,,,,,,,,,,,,,,,,,,,,,,,,,,,,,,,,,,,,,,,,,,,,,,,
,,63359b3bffb1f6a9f45b7c60,2026-03-17_11h27.35.816,kallum_motion_pilot_GIST_update_2,2026.1.1,Win32,59.88023952,63359b3bffb1f6a9f45b7c60,69b92ab4aef6dee357cd729a,69b92c7c70f632511d559757,0.0439,0.0439,1,44,206,126,1,eightsix,,,,,,,,,,,,,,,,,,,,,,,,,,,,,,,,,,,,,,,,,,,,,,,,,,,,,,,,,,,,,,,,,,,,,,,,,,,,,,,,,,,,,,,,,,,,,,,,,,,,,,,,,,,,,,,,,,,,,,,,,,,,,,,,,,,,,,,,,
,,63359b3bffb1f6a9f45b7c60,2026-03-17_11h27.35.816,kallum_motion_pilot_GIST_update_2,2026.1.1,Win32,59.88023952,63359b3bffb1f6a9f45b7c60,69b92ab4aef6dee357cd729a,69b92c7c70f632511d559757,0.0441,0.0441,1,45,207,36,1,threeone,,,,,,,,,,,,,,,,,,,,,,,,,,,,,,,,,,,,,,,,,,,,,,,,,,,,,,,,,,,,,,,,,,,,,,,,,,,,,,,,,,,,,,,,,,,,,,,,,,,,,,,,,,,,,,,,,,,,,,,,,,,,,,,,,,,,,,,,,
,,63359b3bffb1f6a9f45b7c60,2026-03-17_11h27.35.816,kallum_motion_pilot_GIST_update_2,2026.1.1,Win32,59.88023952,63359b3bffb1f6a9f45b7c60,69b92ab4aef6dee357cd729a,69b92c7c70f632511d559757,0.0442,0.0442,1,46,208,145,1,fiveseven,,,,,,,,,,,,,,,,,,,,,,,,,,,,,,,,,,,,,,,,,,,,,,,,,,,,,,,,,,,,,,,,,,,,,,,,,,,,,,,,,,,,,,,,,,,,,,,,,,,,,,,,,,,,,,,,,,,,,,,,,,,,,,,,,,,,,,,,,
,,63359b3bffb1f6a9f45b7c60,2026-03-17_11h27.35.816,kallum_motion_pilot_GIST_update_2,2026.1.1,Win32,59.88023952,63359b3bffb1f6a9f45b7c60,69b92ab4aef6dee357cd729a,69b92c7c70f632511d559757,0.0443,0.0443,1,47,209,112,1,fivesix,,,,,,,,,,,,,,,,,,,,,,,,,,,,,,,,,,,,,,,,,,,,,,,,,,,,,,,,,,,,,,,,,,,,,,,,,,,,,,,,,,,,,,,,,,,,,,,,,,,,,,,,,,,,,,,,,,,,,,,,,,,,,,,,,,,,,,,,,
,,63359b3bffb1f6a9f45b7c60,2026-03-17_11h27.35.816,kallum_motion_pilot_GIST_update_2,2026.1.1,Win32,59.88023952,63359b3bffb1f6a9f45b7c60,69b92ab4aef6dee357cd729a,69b92c7c70f632511d559757,0.0444,0.0444,1,48,210,148,1,sevenfive,,,,,,,,,,,,,,,,,,,,,,,,,,,,,,,,,,,,,,,,,,,,,,,,,,,,,,,,,,,,,,,,,,,,,,,,,,,,,,,,,,,,,,,,,,,,,,,,,,,,,,,,,,,,,,,,,,,,,,,,,,,,,,,,,,,,,,,,,
,,63359b3bffb1f6a9f45b7c60,2026-03-17_11h27.35.816,kallum_motion_pilot_GIST_update_2,2026.1.1,Win32,59.88023952,63359b3bffb1f6a9f45b7c60,69b92ab4aef6dee357cd729a,69b92c7c70f632511d559757,0.0446,0.0446,1,49,211,146,1,sixfive,,,,,,,,,,,,,,,,,,,,,,,,,,,,,,,,,,,,,,,,,,,,,,,,,,,,,,,,,,,,,,,,,,,,,,,,,,,,,,,,,,,,,,,,,,,,,,,,,,,,,,,,,,,,,,,,,,,,,,,,,,,,,,,,,,,,,,,,,
,,63359b3bffb1f6a9f45b7c60,2026-03-17_11h27.35.816,kallum_motion_pilot_GIST_update_2,2026.1.1,Win32,59.88023952,63359b3bffb1f6a9f45b7c60,69b92ab4aef6dee357cd729a,69b92c7c70f632511d559757,0.0446,0.0446,1,50,212,161,1,fiveseven,,,,,,,,,,,,,,,,,,,,,,,,,,,,,,,,,,,,,,,,,,,,,,,,,,,,,,,,,,,,,,,,,,,,,,,,,,,,,,,,,,,,,,,,,,,,,,,,,,,,,,,,,,,,,,,,,,,,,,,,,,,,,,,,,,,,,,,,,
,,63359b3bffb1f6a9f45b7c60,2026-03-17_11h27.35.816,kallum_motion_pilot_GIST_update_2,2026.1.1,Win32,59.88023952,63359b3bffb1f6a9f45b7c60,69b92ab4aef6dee357cd729a,69b92c7c70f632511d559757,0.0447,0.0447,1,51,213,20,1,threeone,,,,,,,,,,,,,,,,,,,,,,,,,,,,,,,,,,,,,,,,,,,,,,,,,,,,,,,,,,,,,,,,,,,,,,,,,,,,,,,,,,,,,,,,,,,,,,,,,,,,,,,,,,,,,,,,,,,,,,,,,,,,,,,,,,,,,,,,,
,,63359b3bffb1f6a9f45b7c60,2026-03-17_11h27.35.816,kallum_motion_pilot_GIST_update_2,2026.1.1,Win32,59.88023952,63359b3bffb1f6a9f45b7c60,69b92ab4aef6dee357cd729a,69b92c7c70f632511d559757,0.0449,0.0449,1,52,214,151,1,eightseven,,,,,,,,,,,,,,,,,,,,,,,,,,,,,,,,,,,,,,,,,,,,,,,,,,,,,,,,,,,,,,,,,,,,,,,,,,,,,,,,,,,,,,,,,,,,,,,,,,,,,,,,,,,,,,,,,,,,,,,,,,,,,,,,,,,,,,,,,
,,63359b3bffb1f6a9f45b7c60,2026-03-17_11h27.35.816,kallum_motion_pilot_GIST_update_2,2026.1.1,Win32,59.88023952,63359b3bffb1f6a9f45b7c60,69b92ab4aef6dee357cd729a,69b92c7c70f632511d559757,0.045,0.045,1,53,215,38,1,fourtwo,,,,,,,,,,,,,,,,,,,,,,,,,,,,,,,,,,,,,,,,,,,,,,,,,,,,,,,,,,,,,,,,,,,,,,,,,,,,,,,,,,,,,,,,,,,,,,,,,,,,,,,,,,,,,,,,,,,,,,,,,,,,,,,,,,,,,,,,,
,,63359b3bffb1f6a9f45b7c60,2026-03-17_11h27.35.816,kallum_motion_pilot_GIST_update_2,2026.1.1,Win32,59.88023952,63359b3bffb1f6a9f45b7c60,69b92ab4aef6dee357cd729a,69b92c7c70f632511d559757,0.0451,0.0451,1,54,216,155,1,sixeight,,,,,,,,,,,,,,,,,,,,,,,,,,,,,,,,,,,,,,,,,,,,,,,,,,,,,,,,,,,,,,,,,,,,,,,,,,,,,,,,,,,,,,,,,,,,,,,,,,,,,,,,,,,,,,,,,,,,,,,,,,,,,,,,,,,,,,,,,
,,63359b3bffb1f6a9f45b7c60,2026-03-17_11h27.35.816,kallum_motion_pilot_GIST_update_2,2026.1.1,Win32,59.88023952,63359b3bffb1f6a9f45b7c60,69b92ab4aef6dee357cd729a,69b92c7c70f632511d559757,0.0452,0.0452,1,55,217,138,1,sixfive,,,,,,,,,,,,,,,,,,,,,,,,,,,,,,,,,,,,,,,,,,,,,,,,,,,,,,,,,,,,,,,,,,,,,,,,,,,,,,,,,,,,,,,,,,,,,,,,,,,,,,,,,,,,,,,,,,,,,,,,,,,,,,,,,,,,,,,,,
,,63359b3bffb1f6a9f45b7c60,2026-03-17_11h27.35.816,kallum_motion_pilot_GIST_update_2,2026.1.1,Win32,59.88023952,63359b3bffb1f6a9f45b7c60,69b92ab4aef6dee357cd729a,69b92c7c70f632511d559757,0.0453,0.0453,1,56,218,13,1,threefour,,,,,,,,,,,,,,,,,,,,,,,,,,,,,,,,,,,,,,,,,,,,,,,,,,,,,,,,,,,,,,,,,,,,,,,,,,,,,,,,,,,,,,,,,,,,,,,,,,,,,,,,,,,,,,,,,,,,,,,,,,,,,,,,,,,,,,,,,
,,63359b3bffb1f6a9f45b7c60,2026-03-17_11h27.35.816,kallum_motion_pilot_GIST_update_2,2026.1.1,Win32,59.88023952,63359b3bffb1f6a9f45b7c60,69b92ab4aef6dee357cd729a,69b92c7c70f632511d559757,0.0454,0.0454,1,57,219,55,1,fourthree,,,,,,,,,,,,,,,,,,,,,,,,,,,,,,,,,,,,,,,,,,,,,,,,,,,,,,,,,,,,,,,,,,,,,,,,,,,,,,,,,,,,,,,,,,,,,,,,,,,,,,,,,,,,,,,,,,,,,,,,,,,,,,,,,,,,,,,,,
,,63359b3bffb1f6a9f45b7c60,2026-03-17_11h27.35.816,kallum_motion_pilot_GIST_update_2,2026.1.1,Win32,59.88023952,63359b3bffb1f6a9f45b7c60,69b92ab4aef6dee357cd729a,69b92c7c70f632511d559757,0.0455,0.0455,1,58,220,144,1,fivesix,,,,,,,,,,,,,,,,,,,,,,,,,,,,,,,,,,,,,,,,,,,,,,,,,,,,,,,,,,,,,,,,,,,,,,,,,,,,,,,,,,,,,,,,,,,,,,,,,,,,,,,,,,,,,,,,,,,,,,,,,,,,,,,,,,,,,,,,,
,,63359b3bffb1f6a9f45b7c60,2026-03-17_11h27.35.816,kallum_motion_pilot_GIST_update_2,2026.1.1,Win32,59.88023952,63359b3bffb1f6a9f45b7c60,69b92ab4aef6dee357cd729a,69b92c7c70f632511d559757,0.0457,0.0457,1,59,221,75,1,twofour,,,,,,,,,,,,,,,,,,,,,,,,,,,,,,,,,,,,,,,,,,,,,,,,,,,,,,,,,,,,,,,,,,,,,,,,,,,,,,,,,,,,,,,,,,,,,,,,,,,,,,,,,,,,,,,,,,,,,,,,,,,,,,,,,,,,,,,,,
,,63359b3bffb1f6a9f45b7c60,2026-03-17_11h27.35.816,kallum_motion_pilot_GIST_update_2,2026.1.1,Win32,59.88023952,63359b3bffb1f6a9f45b7c60,69b92ab4aef6dee357cd729a,69b92c7c70f632511d559757,0.0458,0.0458,1,60,222,51,1,twofour,,,,,,,,,,,,,,,,,,,,,,,,,,,,,,,,,,,,,,,,,,,,,,,,,,,,,,,,,,,,,,,,,,,,,,,,,,,,,,,,,,,,,,,,,,,,,,,,,,,,,,,,,,,,,,,,,,,,,,,,,,,,,,,,,,,,,,,,,
,,63359b3bffb1f6a9f45b7c60,2026-03-17_11h27.35.816,kallum_motion_pilot_GIST_update_2,2026.1.1,Win32,59.88023952,63359b3bffb1f6a9f45b7c60,69b92ab4aef6dee357cd729a,69b92c7c70f632511d559757,0.0459,0.0459,1,61,223,133,1,seveneight,,,,,,,,,,,,,,,,,,,,,,,,,,,,,,,,,,,,,,,,,,,,,,,,,,,,,,,,,,,,,,,,,,,,,,,,,,,,,,,,,,,,,,,,,,,,,,,,,,,,,,,,,,,,,,,,,,,,,,,,,,,,,,,,,,,,,,,,,
,,63359b3bffb1f6a9f45b7c60,2026-03-17_11h27.35.816,kallum_motion_pilot_GIST_update_2,2026.1.1,Win32,59.88023952,63359b3bffb1f6a9f45b7c60,69b92ab4aef6dee357cd729a,69b92c7c70f632511d559757,0.046,0.046,1,62,224,117,1,seveneight,,,,,,,,,,,,,,,,,,,,,,,,,,,,,,,,,,,,,,,,,,,,,,,,,,,,,,,,,,,,,,,,,,,,,,,,,,,,,,,,,,,,,,,,,,,,,,,,,,,,,,,,,,,,,,,,,,,,,,,,,,,,,,,,,,,,,,,,,
,,63359b3bffb1f6a9f45b7c60,2026-03-17_11h27.35.816,kallum_motion_pilot_GIST_update_2,2026.1.1,Win32,59.88023952,63359b3bffb1f6a9f45b7c60,69b92ab4aef6dee357cd729a,69b92c7c70f632511d559757,0.0461,0.0461,1,63,225,131,1,sixeight,,,,,,,,,,,,,,,,,,,,,,,,,,,,,,,,,,,,,,,,,,,,,,,,,,,,,,,,,,,,,,,,,,,,,,,,,,,,,,,,,,,,,,,,,,,,,,,,,,,,,,,,,,,,,,,,,,,,,,,,,,,,,,,,,,,,,,,,,
,,63359b3bffb1f6a9f45b7c60,2026-03-17_11h27.35.816,kallum_motion_pilot_GIST_update_2,2026.1.1,Win32,59.88023952,63359b3bffb1f6a9f45b7c60,69b92ab4aef6dee357cd729a,69b92c7c70f632511d559757,0.0463,0.0463,1,64,226,147,1,sixeight,,,,,,,,,,,,,,,,,,,,,,,,,,,,,,,,,,,,,,,,,,,,,,,,,,,,,,,,,,,,,,,,,,,,,,,,,,,,,,,,,,,,,,,,,,,,,,,,,,,,,,,,,,,,,,,,,,,,,,,,,,,,,,,,,,,,,,,,,
,,63359b3bffb1f6a9f45b7c60,2026-03-17_11h27.35.816,kallum_motion_pilot_GIST_update_2,2026.1.1,Win32,59.88023952,63359b3bffb1f6a9f45b7c60,69b92ab4aef6dee357cd729a,69b92c7c70f632511d559757,0.0463,0.0463,1,65,227,87,1,eightseven,,,,,,,,,,,,,,,,,,,,,,,,,,,,,,,,,,,,,,,,,,,,,,,,,,,,,,,,,,,,,,,,,,,,,,,,,,,,,,,,,,,,,,,,,,,,,,,,,,,,,,,,,,,,,,,,,,,,,,,,,,,,,,,,,,,,,,,,,
,,63359b3bffb1f6a9f45b7c60,2026-03-17_11h27.35.816,kallum_motion_pilot_GIST_update_2,2026.1.1,Win32,59.88023952,63359b3bffb1f6a9f45b7c60,69b92ab4aef6dee357cd729a,69b92c7c70f632511d559757,0.0465,0.0465,1,66,228,137,1,fiveseven,,,,,,,,,,,,,,,,,,,,,,,,,,,,,,,,,,,,,,,,,,,,,,,,,,,,,,,,,,,,,,,,,,,,,,,,,,,,,,,,,,,,,,,,,,,,,,,,,,,,,,,,,,,,,,,,,,,,,,,,,,,,,,,,,,,,,,,,,
,,63359b3bffb1f6a9f45b7c60,2026-03-17_11h27.35.816,kallum_motion_pilot_GIST_update_2,2026.1.1,Win32,59.88023952,63359b3bffb1f6a9f45b7c60,69b92ab4aef6dee357cd729a,69b92c7c70f632511d559757,0.0466,0.0466,1,67,229,58,1,twoone,,,,,,,,,,,,,,,,,,,,,,,,,,,,,,,,,,,,,,,,,,,,,,,,,,,,,,,,,,,,,,,,,,,,,,,,,,,,,,,,,,,,,,,,,,,,,,,,,,,,,,,,,,,,,,,,,,,,,,,,,,,,,,,,,,,,,,,,,
,,63359b3bffb1f6a9f45b7c60,2026-03-17_11h27.35.816,kallum_motion_pilot_GIST_update_2,2026.1.1,Win32,59.88023952,63359b3bffb1f6a9f45b7c60,69b92ab4aef6dee357cd729a,69b92c7c70f632511d559757,0.0466,0.0466,1,68,230,119,1,eightseven,,,,,,,,,,,,,,,,,,,,,,,,,,,,,,,,,,,,,,,,,,,,,,,,,,,,,,,,,,,,,,,,,,,,,,,,,,,,,,,,,,,,,,,,,,,,,,,,,,,,,,,,,,,,,,,,,,,,,,,,,,,,,,,,,,,,,,,,,
,,63359b3bffb1f6a9f45b7c60,2026-03-17_11h27.35.816,kallum_motion_pilot_GIST_update_2,2026.1.1,Win32,59.88023952,63359b3bffb1f6a9f45b7c60,69b92ab4aef6dee357cd729a,69b92c7c70f632511d559757,0.0468,0.0468,1,69,231,34,1,twoone,,,,,,,,,,,,,,,,,,,,,,,,,,,,,,,,,,,,,,,,,,,,,,,,,,,,,,,,,,,,,,,,,,,,,,,,,,,,,,,,,,,,,,,,,,,,,,,,,,,,,,,,,,,,,,,,,,,,,,,,,,,,,,,,,,,,,,,,,
,,63359b3bffb1f6a9f45b7c60,2026-03-17_11h27.35.816,kallum_motion_pilot_GIST_update_2,2026.1.1,Win32,59.88023952,63359b3bffb1f6a9f45b7c60,69b92ab4aef6dee357cd729a,69b92c7c70f632511d559757,0.0469,0.047,1,70,232,0,1,onetwo,,,,,,,,,,,,,,,,,,,,,,,,,,,,,,,,,,,,,,,,,,,,,,,,,,,,,,,,,,,,,,,,,,,,,,,,,,,,,,,,,,,,,,,,,,,,,,,,,,,,,,,,,,,,,,,,,,,,,,,,,,,,,,,,,,,,,,,,,
,,63359b3bffb1f6a9f45b7c60,2026-03-17_11h27.35.816,kallum_motion_pilot_GIST_update_2,2026.1.1,Win32,59.88023952,63359b3bffb1f6a9f45b7c60,69b92ab4aef6dee357cd729a,69b92c7c70f632511d559757,0.0471,0.0471,1,71,233,6,1,fourtwo,,,,,,,,,,,,,,,,,,,,,,,,,,,,,,,,,,,,,,,,,,,,,,,,,,,,,,,,,,,,,,,,,,,,,,,,,,,,,,,,,,,,,,,,,,,,,,,,,,,,,,,,,,,,,,,,,,,,,,,,,,,,,,,,,,,,,,,,,
,,63359b3bffb1f6a9f45b7c60,2026-03-17_11h27.35.816,kallum_motion_pilot_GIST_update_2,2026.1.1,Win32,59.88023952,63359b3bffb1f6a9f45b7c60,69b92ab4aef6dee357cd729a,69b92c7c70f632511d559757,0.0471,0.0471,1,72,234,9,1,onethree,,,,,,,,,,,,,,,,,,,,,,,,,,,,,,,,,,,,,,,,,,,,,,,,,,,,,,,,,,,,,,,,,,,,,,,,,,,,,,,,,,,,,,,,,,,,,,,,,,,,,,,,,,,,,,,,,,,,,,,,,,,,,,,,,,,,,,,,,
,,63359b3bffb1f6a9f45b7c60,2026-03-17_11h27.35.816,kallum_motion_pilot_GIST_update_2,2026.1.1,Win32,59.88023952,63359b3bffb1f6a9f45b7c60,69b92ab4aef6dee357cd729a,69b92c7c70f632511d559757,0.0473,0.0473,1,73,235,16,1,onetwo,,,,,,,,,,,,,,,,,,,,,,,,,,,,,,,,,,,,,,,,,,,,,,,,,,,,,,,,,,,,,,,,,,,,,,,,,,,,,,,,,,,,,,,,,,,,,,,,,,,,,,,,,,,,,,,,,,,,,,,,,,,,,,,,,,,,,,,,,
,,63359b3bffb1f6a9f45b7c60,2026-03-17_11h27.35.816,kallum_motion_pilot_GIST_update_2,2026.1.1,Win32,59.88023952,63359b3bffb1f6a9f45b7c60,69b92ab4aef6dee357cd729a,69b92c7c70f632511d559757,0.0474,0.0474,1,74,236,134,1,eightsix,,,,,,,,,,,,,,,,,,,,,,,,,,,,,,,,,,,,,,,,,,,,,,,,,,,,,,,,,,,,,,,,,,,,,,,,,,,,,,,,,,,,,,,,,,,,,,,,,,,,,,,,,,,,,,,,,,,,,,,,,,,,,,,,,,,,,,,,,
,,63359b3bffb1f6a9f45b7c60,2026-03-17_11h27.35.816,kallum_motion_pilot_GIST_update_2,2026.1.1,Win32,59.88023952,63359b3bffb1f6a9f45b7c60,69b92ab4aef6dee357cd729a,69b92c7c70f632511d559757,0.0476,0.0476,1,75,237,102,1,eightsix,,,,,,,,,,,,,,,,,,,,,,,,,,,,,,,,,,,,,,,,,,,,,,,,,,,,,,,,,,,,,,,,,,,,,,,,,,,,,,,,,,,,,,,,,,,,,,,,,,,,,,,,,,,,,,,,,,,,,,,,,,,,,,,,,,,,,,,,,
,,63359b3bffb1f6a9f45b7c60,2026-03-17_11h27.35.816,kallum_motion_pilot_GIST_update_2,2026.1.1,Win32,59.88023952,63359b3bffb1f6a9f45b7c60,69b92ab4aef6dee357cd729a,69b92c7c70f632511d559757,0.0477,0.0477,1,76,238,35,1,twofour,,,,,,,,,,,,,,,,,,,,,,,,,,,,,,,,,,,,,,,,,,,,,,,,,,,,,,,,,,,,,,,,,,,,,,,,,,,,,,,,,,,,,,,,,,,,,,,,,,,,,,,,,,,,,,,,,,,,,,,,,,,,,,,,,,,,,,,,,
,,63359b3bffb1f6a9f45b7c60,2026-03-17_11h27.35.816,kallum_motion_pilot_GIST_update_2,2026.1.1,Win32,59.88023952,63359b3bffb1f6a9f45b7c60,69b92ab4aef6dee357cd729a,69b92c7c70f632511d559757,0.0478,0.0478,1,77,239,56,1,onetwo,,,,,,,,,,,,,,,,,,,,,,,,,,,,,,,,,,,,,,,,,,,,,,,,,,,,,,,,,,,,,,,,,,,,,,,,,,,,,,,,,,,,,,,,,,,,,,,,,,,,,,,,,,,,,,,,,,,,,,,,,,,,,,,,,,,,,,,,,
,,63359b3bffb1f6a9f45b7c60,2026-03-17_11h27.35.816,kallum_motion_pilot_GIST_update_2,2026.1.1,Win32,59.88023952,63359b3bffb1f6a9f45b7c60,69b92ab4aef6dee357cd729a,69b92c7c70f632511d559757,0.0478,0.0478,1,78,240,156,1,sevenfive,,,,,,,,,,,,,,,,,,,,,,,,,,,,,,,,,,,,,,,,,,,,,,,,,,,,,,,,,,,,,,,,,,,,,,,,,,,,,,,,,,,,,,,,,,,,,,,,,,,,,,,,,,,,,,,,,,,,,,,,,,,,,,,,,,,,,,,,,
,,63359b3bffb1f6a9f45b7c60,2026-03-17_11h27.35.816,kallum_motion_pilot_GIST_update_2,2026.1.1,Win32,59.88023952,63359b3bffb1f6a9f45b7c60,69b92ab4aef6dee357cd729a,69b92c7c70f632511d559757,0.048,0.048,1,79,241,85,1,seveneight,,,,,,,,,,,,,,,,,,,,,,,,,,,,,,,,,,,,,,,,,,,,,,,,,,,,,,,,,,,,,,,,,,,,,,,,,,,,,,,,,,,,,,,,,,,,,,,,,,,,,,,,,,,,,,,,,,,,,,,,,,,,,,,,,,,,,,,,,
,,63359b3bffb1f6a9f45b7c60,2026-03-17_11h27.35.816,kallum_motion_pilot_GIST_update_2,2026.1.1,Win32,59.88023952,63359b3bffb1f6a9f45b7c60,69b92ab4aef6dee357cd729a,69b92c7c70f632511d559757,0.0481,0.0481,1,80,242,29,1,threefour,,,,,,,,,,,,,,,,,,,,,,,,,,,,,,,,,,,,,,,,,,,,,,,,,,,,,,,,,,,,,,,,,,,,,,,,,,,,,,,,,,,,,,,,,,,,,,,,,,,,,,,,,,,,,,,,,,,,,,,,,,,,,,,,,,,,,,,,,
,,63359b3bffb1f6a9f45b7c60,2026-03-17_11h27.35.816,kallum_motion_pilot_GIST_update_2,2026.1.1,Win32,59.88023952,63359b3bffb1f6a9f45b7c60,69b92ab4aef6dee357cd729a,69b92c7c70f632511d559757,0.0482,0.0482,1,81,243,105,1,fiveseven,,,,,,,,,,,,,,,,,,,,,,,,,,,,,,,,,,,,,,,,,,,,,,,,,,,,,,,,,,,,,,,,,,,,,,,,,,,,,,,,,,,,,,,,,,,,,,,,,,,,,,,,,,,,,,,,,,,,,,,,,,,,,,,,,,,,,,,,,
,,63359b3bffb1f6a9f45b7c60,2026-03-17_11h27.35.816,kallum_motion_pilot_GIST_update_2,2026.1.1,Win32,59.88023952,63359b3bffb1f6a9f45b7c60,69b92ab4aef6dee357cd729a,69b92c7c70f632511d559757,0.0484,0.0484,1,82,244,4,1,threeone,,,,,,,,,,,,,,,,,,,,,,,,,,,,,,,,,,,,,,,,,,,,,,,,,,,,,,,,,,,,,,,,,,,,,,,,,,,,,,,,,,,,,,,,,,,,,,,,,,,,,,,,,,,,,,,,,,,,,,,,,,,,,,,,,,,,,,,,,
,,63359b3bffb1f6a9f45b7c60,2026-03-17_11h27.35.816,kallum_motion_pilot_GIST_update_2,2026.1.1,Win32,59.88023952,63359b3bffb1f6a9f45b7c60,69b92ab4aef6dee357cd729a,69b92c7c70f632511d559757,0.0486,0.0486,1,83,245,98,1,sixfive,,,,,,,,,,,,,,,,,,,,,,,,,,,,,,,,,,,,,,,,,,,,,,,,,,,,,,,,,,,,,,,,,,,,,,,,,,,,,,,,,,,,,,,,,,,,,,,,,,,,,,,,,,,,,,,,,,,,,,,,,,,,,,,,,,,,,,,,,
,,63359b3bffb1f6a9f45b7c60,2026-03-17_11h27.35.816,kallum_motion_pilot_GIST_update_2,2026.1.1,Win32,59.88023952,63359b3bffb1f6a9f45b7c60,69b92ab4aef6dee357cd729a,69b92c7c70f632511d559757,0.0487,0.0487,1,84,246,150,1,eightsix,,,,,,,,,,,,,,,,,,,,,,,,,,,,,,,,,,,,,,,,,,,,,,,,,,,,,,,,,,,,,,,,,,,,,,,,,,,,,,,,,,,,,,,,,,,,,,,,,,,,,,,,,,,,,,,,,,,,,,,,,,,,,,,,,,,,,,,,,
,,63359b3bffb1f6a9f45b7c60,2026-03-17_11h27.35.816,kallum_motion_pilot_GIST_update_2,2026.1.1,Win32,59.88023952,63359b3bffb1f6a9f45b7c60,69b92ab4aef6dee357cd729a,69b92c7c70f632511d559757,0.0489,0.0489,1,85,247,115,1,sixeight,,,,,,,,,,,,,,,,,,,,,,,,,,,,,,,,,,,,,,,,,,,,,,,,,,,,,,,,,,,,,,,,,,,,,,,,,,,,,,,,,,,,,,,,,,,,,,,,,,,,,,,,,,,,,,,,,,,,,,,,,,,,,,,,,,,,,,,,,
,,63359b3bffb1f6a9f45b7c60,2026-03-17_11h27.35.816,kallum_motion_pilot_GIST_update_2,2026.1.1,Win32,59.88023952,63359b3bffb1f6a9f45b7c60,69b92ab4aef6dee357cd729a,69b92c7c70f632511d559757,0.049,0.049,1,86,248,18,1,twoone,,,,,,,,,,,,,,,,,,,,,,,,,,,,,,,,,,,,,,,,,,,,,,,,,,,,,,,,,,,,,,,,,,,,,,,,,,,,,,,,,,,,,,,,,,,,,,,,,,,,,,,,,,,,,,,,,,,,,,,,,,,,,,,,,,,,,,,,,
,,63359b3bffb1f6a9f45b7c60,2026-03-17_11h27.35.816,kallum_motion_pilot_GIST_update_2,2026.1.1,Win32,59.88023952,63359b3bffb1f6a9f45b7c60,69b92ab4aef6dee357cd729a,69b92c7c70f632511d559757,0.0492,0.0492,1,87,249,94,1,eightsix,,,,,,,,,,,,,,,,,,,,,,,,,,,,,,,,,,,,,,,,,,,,,,,,,,,,,,,,,,,,,,,,,,,,,,,,,,,,,,,,,,,,,,,,,,,,,,,,,,,,,,,,,,,,,,,,,,,,,,,,,,,,,,,,,,,,,,,,,
,,63359b3bffb1f6a9f45b7c60,2026-03-17_11h27.35.816,kallum_motion_pilot_GIST_update_2,2026.1.1,Win32,59.88023952,63359b3bffb1f6a9f45b7c60,69b92ab4aef6dee357cd729a,69b92c7c70f632511d559757,0.0492,0.0492,1,88,250,132,1,sevenfive,,,,,,,,,,,,,,,,,,,,,,,,,,,,,,,,,,,,,,,,,,,,,,,,,,,,,,,,,,,,,,,,,,,,,,,,,,,,,,,,,,,,,,,,,,,,,,,,,,,,,,,,,,,,,,,,,,,,,,,,,,,,,,,,,,,,,,,,,
,,63359b3bffb1f6a9f45b7c60,2026-03-17_11h27.35.816,kallum_motion_pilot_GIST_update_2,2026.1.1,Win32,59.88023952,63359b3bffb1f6a9f45b7c60,69b92ab4aef6dee357cd729a,69b92c7c70f632511d559757,0.0495,0.0495,1,89,251,114,1,sixfive,,,,,,,,,,,,,,,,,,,,,,,,,,,,,,,,,,,,,,,,,,,,,,,,,,,,,,,,,,,,,,,,,,,,,,,,,,,,,,,,,,,,,,,,,,,,,,,,,,,,,,,,,,,,,,,,,,,,,,,,,,,,,,,,,,,,,,,,,
,,63359b3bffb1f6a9f45b7c60,2026-03-17_11h27.35.816,kallum_motion_pilot_GIST_update_2,2026.1.1,Win32,59.88023952,63359b3bffb1f6a9f45b7c60,69b92ab4aef6dee357cd729a,69b92c7c70f632511d559757,0.0495,0.0495,1,90,252,80,1,fivesix,,,,,,,,,,,,,,,,,,,,,,,,,,,,,,,,,,,,,,,,,,,,,,,,,,,,,,,,,,,,,,,,,,,,,,,,,,,,,,,,,,,,,,,,,,,,,,,,,,,,,,,,,,,,,,,,,,,,,,,,,,,,,,,,,,,,,,,,,
,,63359b3bffb1f6a9f45b7c60,2026-03-17_11h27.35.816,kallum_motion_pilot_GIST_update_2,2026.1.1,Win32,59.88023952,63359b3bffb1f6a9f45b7c60,69b92ab4aef6dee357cd729a,69b92c7c70f632511d559757,0.0497,0.0497,1,91,253,31,1,fourthree,,,,,,,,,,,,,,,,,,,,,,,,,,,,,,,,,,,,,,,,,,,,,,,,,,,,,,,,,,,,,,,,,,,,,,,,,,,,,,,,,,,,,,,,,,,,,,,,,,,,,,,,,,,,,,,,,,,,,,,,,,,,,,,,,,,,,,,,,
,,63359b3bffb1f6a9f45b7c60,2026-03-17_11h27.35.816,kallum_motion_pilot_GIST_update_2,2026.1.1,Win32,59.88023952,63359b3bffb1f6a9f45b7c60,69b92ab4aef6dee357cd729a,69b92c7c70f632511d559757,0.0498,0.0498,1,92,254,74,1,twoone,,,,,,,,,,,,,,,,,,,,,,,,,,,,,,,,,,,,,,,,,,,,,,,,,,,,,,,,,,,,,,,,,,,,,,,,,,,,,,,,,,,,,,,,,,,,,,,,,,,,,,,,,,,,,,,,,,,,,,,,,,,,,,,,,,,,,,,,,
,,63359b3bffb1f6a9f45b7c60,2026-03-17_11h27.35.816,kallum_motion_pilot_GIST_update_2,2026.1.1,Win32,59.88023952,63359b3bffb1f6a9f45b7c60,69b92ab4aef6dee357cd729a,69b92c7c70f632511d559757,0.05,0.05,1,93,255,65,1,onethree,,,,,,,,,,,,,,,,,,,,,,,,,,,,,,,,,,,,,,,,,,,,,,,,,,,,,,,,,,,,,,,,,,,,,,,,,,,,,,,,,,,,,,,,,,,,,,,,,,,,,,,,,,,,,,,,,,,,,,,,,,,,,,,,,,,,,,,,,
,,63359b3bffb1f6a9f45b7c60,2026-03-17_11h27.35.816,kallum_motion_pilot_GIST_update_2,2026.1.1,Win32,59.88023952,63359b3bffb1f6a9f45b7c60,69b92ab4aef6dee357cd729a,69b92c7c70f632511d559757,0.0502,0.0502,1,94,256,53,1,threefour,,,,,,,,,,,,,,,,,,,,,,,,,,,,,,,,,,,,,,,,,,,,,,,,,,,,,,,,,,,,,,,,,,,,,,,,,,,,,,,,,,,,,,,,,,,,,,,,,,,,,,,,,,,,,,,,,,,,,,,,,,,,,,,,,,,,,,,,,
,,63359b3bffb1f6a9f45b7c60,2026-03-17_11h27.35.816,kallum_motion_pilot_GIST_update_2,2026.1.1,Win32,59.88023952,63359b3bffb1f6a9f45b7c60,69b92ab4aef6dee357cd729a,69b92c7c70f632511d559757,0.0503,0.0503,1,95,257,64,1,onetwo,,,,,,,,,,,,,,,,,,,,,,,,,,,,,,,,,,,,,,,,,,,,,,,,,,,,,,,,,,,,,,,,,,,,,,,,,,,,,,,,,,,,,,,,,,,,,,,,,,,,,,,,,,,,,,,,,,,,,,,,,,,,,,,,,,,,,,,,,
,,63359b3bffb1f6a9f45b7c60,2026-03-17_11h27.35.816,kallum_motion_pilot_GIST_update_2,2026.1.1,Win32,59.88023952,63359b3bffb1f6a9f45b7c60,69b92ab4aef6dee357cd729a,69b92c7c70f632511d559757,0.0504,0.0504,1,96,258,23,1,fourthree,,,,,,,,,,,,,,,,,,,,,,,,,,,,,,,,,,,,,,,,,,,,,,,,,,,,,,,,,,,,,,,,,,,,,,,,,,,,,,,,,,,,,,,,,,,,,,,,,,,,,,,,,,,,,,,,,,,,,,,,,,,,,,,,,,,,,,,,,
,,63359b3bffb1f6a9f45b7c60,2026-03-17_11h27.35.816,kallum_motion_pilot_GIST_update_2,2026.1.1,Win32,59.88023952,63359b3bffb1f6a9f45b7c60,69b92ab4aef6dee357cd729a,69b92c7c70f632511d559757,0.0505,0.0505,1,97,259,60,1,threeone,,,,,,,,,,,,,,,,,,,,,,,,,,,,,,,,,,,,,,,,,,,,,,,,,,,,,,,,,,,,,,,,,,,,,,,,,,,,,,,,,,,,,,,,,,,,,,,,,,,,,,,,,,,,,,,,,,,,,,,,,,,,,,,,,,,,,,,,,
,,63359b3bffb1f6a9f45b7c60,2026-03-17_11h27.35.816,kallum_motion_pilot_GIST_update_2,2026.1.1,Win32,59.88023952,63359b3bffb1f6a9f45b7c60,69b92ab4aef6dee357cd729a,69b92c7c70f632511d559757,0.0507,0.0507,1,98,260,104,1,fivesix,,,,,,,,,,,,,,,,,,,,,,,,,,,,,,,,,,,,,,,,,,,,,,,,,,,,,,,,,,,,,,,,,,,,,,,,,,,,,,,,,,,,,,,,,,,,,,,,,,,,,,,,,,,,,,,,,,,,,,,,,,,,,,,,,,,,,,,,,
,,63359b3bffb1f6a9f45b7c60,2026-03-17_11h27.35.816,kallum_motion_pilot_GIST_update_2,2026.1.1,Win32,59.88023952,63359b3bffb1f6a9f45b7c60,69b92ab4aef6dee357cd729a,69b92c7c70f632511d559757,0.0507,0.0507,1,99,261,41,1,onethree,,,,,,,,,,,,,,,,,,,,,,,,,,,,,,,,,,,,,,,,,,,,,,,,,,,,,,,,,,,,,,,,,,,,,,,,,,,,,,,,,,,,,,,,,,,,,,,,,,,,,,,,,,,,,,,,,,,,,,,,,,,,,,,,,,,,,,,,,
,,63359b3bffb1f6a9f45b7c60,2026-03-17_11h27.35.816,kallum_motion_pilot_GIST_update_2,2026.1.1,Win32,59.88023952,63359b3bffb1f6a9f45b7c60,69b92ab4aef6dee357cd729a,69b92c7c70f632511d559757,0.0509,0.0509,1,100,262,107,1,sixeight,,,,,,,,,,,,,,,,,,,,,,,,,,,,,,,,,,,,,,,,,,,,,,,,,,,,,,,,,,,,,,,,,,,,,,,,,,,,,,,,,,,,,,,,,,,,,,,,,,,,,,,,,,,,,,,,,,,,,,,,,,,,,,,,,,,,,,,,,
,,63359b3bffb1f6a9f45b7c60,2026-03-17_11h27.35.816,kallum_motion_pilot_GIST_update_2,2026.1.1,Win32,59.88023952,63359b3bffb1f6a9f45b7c60,69b92ab4aef6dee357cd729a,69b92c7c70f632511d559757,0.051,0.051,1,101,263,149,1,seveneight,,,,,,,,,,,,,,,,,,,,,,,,,,,,,,,,,,,,,,,,,,,,,,,,,,,,,,,,,,,,,,,,,,,,,,,,,,,,,,,,,,,,,,,,,,,,,,,,,,,,,,,,,,,,,,,,,,,,,,,,,,,,,,,,,,,,,,,,,
,,63359b3bffb1f6a9f45b7c60,2026-03-17_11h27.35.816,kallum_motion_pilot_GIST_update_2,2026.1.1,Win32,59.88023952,63359b3bffb1f6a9f45b7c60,69b92ab4aef6dee357cd729a,69b92c7c70f632511d559757,0.0512,0.0512,1,102,264,113,1,fiveseven,,,,,,,,,,,,,,,,,,,,,,,,,,,,,,,,,,,,,,,,,,,,,,,,,,,,,,,,,,,,,,,,,,,,,,,,,,,,,,,,,,,,,,,,,,,,,,,,,,,,,,,,,,,,,,,,,,,,,,,,,,,,,,,,,,,,,,,,,
,,63359b3bffb1f6a9f45b7c60,2026-03-17_11h27.35.816,kallum_motion_pilot_GIST_update_2,2026.1.1,Win32,59.88023952,63359b3bffb1f6a9f45b7c60,69b92ab4aef6dee357cd729a,69b92c7c70f632511d559757,0.0513,0.0513,1,103,265,136,1,fivesix,,,,,,,,,,,,,,,,,,,,,,,,,,,,,,,,,,,,,,,,,,,,,,,,,,,,,,,,,,,,,,,,,,,,,,,,,,,,,,,,,,,,,,,,,,,,,,,,,,,,,,,,,,,,,,,,,,,,,,,,,,,,,,,,,,,,,,,,,
,,63359b3bffb1f6a9f45b7c60,2026-03-17_11h27.35.816,kallum_motion_pilot_GIST_update_2,2026.1.1,Win32,59.88023952,63359b3bffb1f6a9f45b7c60,69b92ab4aef6dee357cd729a,69b92c7c70f632511d559757,0.0515,0.0515,1,104,266,78,1,fourtwo,,,,,,,,,,,,,,,,,,,,,,,,,,,,,,,,,,,,,,,,,,,,,,,,,,,,,,,,,,,,,,,,,,,,,,,,,,,,,,,,,,,,,,,,,,,,,,,,,,,,,,,,,,,,,,,,,,,,,,,,,,,,,,,,,,,,,,,,,
