startup.started,startup.stopped,Prolific ID*,date,expName,psychopyVersion,OS,frameRate,participant,study_id,session,stimpositions.started,stimpositions.stopped,hardcoded_stimulus_positions.thisRepN,hardcoded_stimulus_positions.thisTrialN,hardcoded_stimulus_positions.thisN,hardcoded_stimulus_positions.thisIndex,hardcoded_stimulus_positions.ran,StimulusPos,stimorientation.started,stimorientation.stopped,prac_stimorientation_import_loop.thisRepN,prac_stimorientation_import_loop.thisTrialN,prac_stimorientation_import_loop.thisN,prac_stimorientation_import_loop.thisIndex,prac_stimorientation_import_loop.ran,Stimorientation,welcome_instr.started,welcome_instr.stopped,key_resp.keys,key_resp.rt,key_resp.duration,response_steppedout_1.started,response_steppedout_1.stopped,key_resp_20.keys,key_resp_20.rt,key_resp_20.duration,response_steppedout_2.started,response_steppedout_2.stopped,key_resp_19.keys,key_resp_19.rt,key_resp_19.duration,stim_response_instr.started,stim_response_instr.stopped,key_resp_15.keys,key_resp_15.rt,key_resp_15.duration,direction_instr_2.started,direction_instr_2.stopped,key_resp_9.keys,key_resp_9.rt,key_resp_9.duration,instr_prac.started,instr_prac.stopped,key_resp_10.keys,key_resp_10.rt,key_resp_10.duration,Stim1_display_prac.started,Stim1_display_prac.stopped,Ecc,Circle1_ori,Circle2_ori,response_prac.started,similarity,response_time,response_prac.stopped,mouse_5.x,mouse_5.y,mouse_5.leftButton,mouse_5.midButton,mouse_5.rightButton,mouse_5.clicked_name,responseprac_feedback.started,responseprac_feedback.stopped,summary2_prac.started,summary2_prac.stopped,mouse_6.x,mouse_6.y,mouse_6.leftButton,mouse_6.midButton,mouse_6.rightButton,mouse_6.clicked_name,duringprac.thisRepN,duringprac.thisTrialN,duringprac.thisN,duringprac.thisIndex,duringprac.ran,begin.started,begin.stopped,key_resp_22.keys,key_resp_22.rt,key_resp_22.duration,Stim1_display.started,Stim1_display.stopped,circle1_ori,circle2_ori,circle1_SF,circle2_SF,response.started,response.stopped,mouse.x,mouse.y,mouse.leftButton,mouse.midButton,mouse.rightButton,mouse.clicked_name,trialnumber,double_pass.thisRepN,double_pass.thisTrialN,double_pass.thisN,double_pass.thisIndex,double_pass.ran,double_pass.order,main_trial.thisRepN,main_trial.thisTrialN,main_trial.thisN,main_trial.thisIndex,main_trial.ran,main_trial.order,Trial_Counter,Catch,Frequencies,response_2.started,response_2.stopped,mouse_2.x,mouse_2.y,mouse_2.leftButton,mouse_2.midButton,mouse_2.rightButton,mouse_2.clicked_name,special_trial.started,special_trial.stopped,catch_1.started,catch_1.stopped,mouse_3.x,mouse_3.y,mouse_3.leftButton,mouse_3.midButton,mouse_3.rightButton,catchresponse,catchnumber,response_time_catch,response_sum.started,response_sum.stopped,mouse_11.x,mouse_11.y,mouse_11.leftButton,mouse_11.midButton,mouse_11.rightButton,flip_presentation_sequence_for_double_pass.started,flip_presentation_sequence_for_double_pass.stopped,goodbye.started,goodbye.stopped,key_resp_3.keys,key_resp_3.rt,key_resp_3.duration
0.0008,0.001,641384b3dffcf39ec42d3c23,2026-03-17_14h07.27.671,kallum_motion_pilot_GIST_update_2,2026.1.1,Win32,74.62686567,641384b3dffcf39ec42d3c23,69b95efdef24cd8a694e89ee,69b96011d3eac86b7e9fe07e,,,,,,,,,,,,,,,,,,,,,,,,,,,,,,,,,,,,,,,,,,,,,,,,,,,,,,,,,,,,,,,,,,,,,,,,,,,,,,,,,,,,,,,,,,,,,,,,,,,,,,,,,,,,,,,,,,,,,,,,,,,,,,,,,,,,,,,,,,,,,,,,,
,,641384b3dffcf39ec42d3c23,2026-03-17_14h07.27.671,kallum_motion_pilot_GIST_update_2,2026.1.1,Win32,74.62686567,641384b3dffcf39ec42d3c23,69b95efdef24cd8a694e89ee,69b96011d3eac86b7e9fe07e,0.0356,0.0357,0,0,0,161,1,fiveseven,,,,,,,,,,,,,,,,,,,,,,,,,,,,,,,,,,,,,,,,,,,,,,,,,,,,,,,,,,,,,,,,,,,,,,,,,,,,,,,,,,,,,,,,,,,,,,,,,,,,,,,,,,,,,,,,,,,,,,,,,,,,,,,,,,,,,,,,,
,,641384b3dffcf39ec42d3c23,2026-03-17_14h07.27.671,kallum_motion_pilot_GIST_update_2,2026.1.1,Win32,74.62686567,641384b3dffcf39ec42d3c23,69b95efdef24cd8a694e89ee,69b96011d3eac86b7e9fe07e,0.0361,0.0361,0,1,1,121,1,fiveseven,,,,,,,,,,,,,,,,,,,,,,,,,,,,,,,,,,,,,,,,,,,,,,,,,,,,,,,,,,,,,,,,,,,,,,,,,,,,,,,,,,,,,,,,,,,,,,,,,,,,,,,,,,,,,,,,,,,,,,,,,,,,,,,,,,,,,,,,,
,,641384b3dffcf39ec42d3c23,2026-03-17_14h07.27.671,kallum_motion_pilot_GIST_update_2,2026.1.1,Win32,74.62686567,641384b3dffcf39ec42d3c23,69b95efdef24cd8a694e89ee,69b96011d3eac86b7e9fe07e,0.0365,0.0366,0,2,2,15,1,fourthree,,,,,,,,,,,,,,,,,,,,,,,,,,,,,,,,,,,,,,,,,,,,,,,,,,,,,,,,,,,,,,,,,,,,,,,,,,,,,,,,,,,,,,,,,,,,,,,,,,,,,,,,,,,,,,,,,,,,,,,,,,,,,,,,,,,,,,,,,
,,641384b3dffcf39ec42d3c23,2026-03-17_14h07.27.671,kallum_motion_pilot_GIST_update_2,2026.1.1,Win32,74.62686567,641384b3dffcf39ec42d3c23,69b95efdef24cd8a694e89ee,69b96011d3eac86b7e9fe07e,0.0369,0.0369,0,3,3,41,1,onethree,,,,,,,,,,,,,,,,,,,,,,,,,,,,,,,,,,,,,,,,,,,,,,,,,,,,,,,,,,,,,,,,,,,,,,,,,,,,,,,,,,,,,,,,,,,,,,,,,,,,,,,,,,,,,,,,,,,,,,,,,,,,,,,,,,,,,,,,,
,,641384b3dffcf39ec42d3c23,2026-03-17_14h07.27.671,kallum_motion_pilot_GIST_update_2,2026.1.1,Win32,74.62686567,641384b3dffcf39ec42d3c23,69b95efdef24cd8a694e89ee,69b96011d3eac86b7e9fe07e,0.0372,0.0372,0,4,4,61,1,threefour,,,,,,,,,,,,,,,,,,,,,,,,,,,,,,,,,,,,,,,,,,,,,,,,,,,,,,,,,,,,,,,,,,,,,,,,,,,,,,,,,,,,,,,,,,,,,,,,,,,,,,,,,,,,,,,,,,,,,,,,,,,,,,,,,,,,,,,,,
,,641384b3dffcf39ec42d3c23,2026-03-17_14h07.27.671,kallum_motion_pilot_GIST_update_2,2026.1.1,Win32,74.62686567,641384b3dffcf39ec42d3c23,69b95efdef24cd8a694e89ee,69b96011d3eac86b7e9fe07e,0.0375,0.0375,0,5,5,125,1,seveneight,,,,,,,,,,,,,,,,,,,,,,,,,,,,,,,,,,,,,,,,,,,,,,,,,,,,,,,,,,,,,,,,,,,,,,,,,,,,,,,,,,,,,,,,,,,,,,,,,,,,,,,,,,,,,,,,,,,,,,,,,,,,,,,,,,,,,,,,,
,,641384b3dffcf39ec42d3c23,2026-03-17_14h07.27.671,kallum_motion_pilot_GIST_update_2,2026.1.1,Win32,74.62686567,641384b3dffcf39ec42d3c23,69b95efdef24cd8a694e89ee,69b96011d3eac86b7e9fe07e,0.0378,0.0378,0,6,6,1,1,onethree,,,,,,,,,,,,,,,,,,,,,,,,,,,,,,,,,,,,,,,,,,,,,,,,,,,,,,,,,,,,,,,,,,,,,,,,,,,,,,,,,,,,,,,,,,,,,,,,,,,,,,,,,,,,,,,,,,,,,,,,,,,,,,,,,,,,,,,,,
,,641384b3dffcf39ec42d3c23,2026-03-17_14h07.27.671,kallum_motion_pilot_GIST_update_2,2026.1.1,Win32,74.62686567,641384b3dffcf39ec42d3c23,69b95efdef24cd8a694e89ee,69b96011d3eac86b7e9fe07e,0.0381,0.0382,0,7,7,80,1,fivesix,,,,,,,,,,,,,,,,,,,,,,,,,,,,,,,,,,,,,,,,,,,,,,,,,,,,,,,,,,,,,,,,,,,,,,,,,,,,,,,,,,,,,,,,,,,,,,,,,,,,,,,,,,,,,,,,,,,,,,,,,,,,,,,,,,,,,,,,,
,,641384b3dffcf39ec42d3c23,2026-03-17_14h07.27.671,kallum_motion_pilot_GIST_update_2,2026.1.1,Win32,74.62686567,641384b3dffcf39ec42d3c23,69b95efdef24cd8a694e89ee,69b96011d3eac86b7e9fe07e,0.0385,0.0386,0,8,8,47,1,fourthree,,,,,,,,,,,,,,,,,,,,,,,,,,,,,,,,,,,,,,,,,,,,,,,,,,,,,,,,,,,,,,,,,,,,,,,,,,,,,,,,,,,,,,,,,,,,,,,,,,,,,,,,,,,,,,,,,,,,,,,,,,,,,,,,,,,,,,,,,
,,641384b3dffcf39ec42d3c23,2026-03-17_14h07.27.671,kallum_motion_pilot_GIST_update_2,2026.1.1,Win32,74.62686567,641384b3dffcf39ec42d3c23,69b95efdef24cd8a694e89ee,69b96011d3eac86b7e9fe07e,0.0388,0.0388,0,9,9,96,1,fivesix,,,,,,,,,,,,,,,,,,,,,,,,,,,,,,,,,,,,,,,,,,,,,,,,,,,,,,,,,,,,,,,,,,,,,,,,,,,,,,,,,,,,,,,,,,,,,,,,,,,,,,,,,,,,,,,,,,,,,,,,,,,,,,,,,,,,,,,,,
,,641384b3dffcf39ec42d3c23,2026-03-17_14h07.27.671,kallum_motion_pilot_GIST_update_2,2026.1.1,Win32,74.62686567,641384b3dffcf39ec42d3c23,69b95efdef24cd8a694e89ee,69b96011d3eac86b7e9fe07e,0.039,0.039,0,10,10,128,1,fivesix,,,,,,,,,,,,,,,,,,,,,,,,,,,,,,,,,,,,,,,,,,,,,,,,,,,,,,,,,,,,,,,,,,,,,,,,,,,,,,,,,,,,,,,,,,,,,,,,,,,,,,,,,,,,,,,,,,,,,,,,,,,,,,,,,,,,,,,,,
,,641384b3dffcf39ec42d3c23,2026-03-17_14h07.27.671,kallum_motion_pilot_GIST_update_2,2026.1.1,Win32,74.62686567,641384b3dffcf39ec42d3c23,69b95efdef24cd8a694e89ee,69b96011d3eac86b7e9fe07e,0.0391,0.0391,0,11,11,58,1,twoone,,,,,,,,,,,,,,,,,,,,,,,,,,,,,,,,,,,,,,,,,,,,,,,,,,,,,,,,,,,,,,,,,,,,,,,,,,,,,,,,,,,,,,,,,,,,,,,,,,,,,,,,,,,,,,,,,,,,,,,,,,,,,,,,,,,,,,,,,
,,641384b3dffcf39ec42d3c23,2026-03-17_14h07.27.671,kallum_motion_pilot_GIST_update_2,2026.1.1,Win32,74.62686567,641384b3dffcf39ec42d3c23,69b95efdef24cd8a694e89ee,69b96011d3eac86b7e9fe07e,0.0393,0.0393,0,12,12,16,1,onetwo,,,,,,,,,,,,,,,,,,,,,,,,,,,,,,,,,,,,,,,,,,,,,,,,,,,,,,,,,,,,,,,,,,,,,,,,,,,,,,,,,,,,,,,,,,,,,,,,,,,,,,,,,,,,,,,,,,,,,,,,,,,,,,,,,,,,,,,,,
,,641384b3dffcf39ec42d3c23,2026-03-17_14h07.27.671,kallum_motion_pilot_GIST_update_2,2026.1.1,Win32,74.62686567,641384b3dffcf39ec42d3c23,69b95efdef24cd8a694e89ee,69b96011d3eac86b7e9fe07e,0.0395,0.0395,0,13,13,151,1,eightseven,,,,,,,,,,,,,,,,,,,,,,,,,,,,,,,,,,,,,,,,,,,,,,,,,,,,,,,,,,,,,,,,,,,,,,,,,,,,,,,,,,,,,,,,,,,,,,,,,,,,,,,,,,,,,,,,,,,,,,,,,,,,,,,,,,,,,,,,,
,,641384b3dffcf39ec42d3c23,2026-03-17_14h07.27.671,kallum_motion_pilot_GIST_update_2,2026.1.1,Win32,74.62686567,641384b3dffcf39ec42d3c23,69b95efdef24cd8a694e89ee,69b96011d3eac86b7e9fe07e,0.0396,0.0396,0,14,14,44,1,threeone,,,,,,,,,,,,,,,,,,,,,,,,,,,,,,,,,,,,,,,,,,,,,,,,,,,,,,,,,,,,,,,,,,,,,,,,,,,,,,,,,,,,,,,,,,,,,,,,,,,,,,,,,,,,,,,,,,,,,,,,,,,,,,,,,,,,,,,,,
,,641384b3dffcf39ec42d3c23,2026-03-17_14h07.27.671,kallum_motion_pilot_GIST_update_2,2026.1.1,Win32,74.62686567,641384b3dffcf39ec42d3c23,69b95efdef24cd8a694e89ee,69b96011d3eac86b7e9fe07e,0.0398,0.0398,0,15,15,38,1,fourtwo,,,,,,,,,,,,,,,,,,,,,,,,,,,,,,,,,,,,,,,,,,,,,,,,,,,,,,,,,,,,,,,,,,,,,,,,,,,,,,,,,,,,,,,,,,,,,,,,,,,,,,,,,,,,,,,,,,,,,,,,,,,,,,,,,,,,,,,,,
,,641384b3dffcf39ec42d3c23,2026-03-17_14h07.27.671,kallum_motion_pilot_GIST_update_2,2026.1.1,Win32,74.62686567,641384b3dffcf39ec42d3c23,69b95efdef24cd8a694e89ee,69b96011d3eac86b7e9fe07e,0.04,0.04,0,16,16,79,1,eightseven,,,,,,,,,,,,,,,,,,,,,,,,,,,,,,,,,,,,,,,,,,,,,,,,,,,,,,,,,,,,,,,,,,,,,,,,,,,,,,,,,,,,,,,,,,,,,,,,,,,,,,,,,,,,,,,,,,,,,,,,,,,,,,,,,,,,,,,,,
,,641384b3dffcf39ec42d3c23,2026-03-17_14h07.27.671,kallum_motion_pilot_GIST_update_2,2026.1.1,Win32,74.62686567,641384b3dffcf39ec42d3c23,69b95efdef24cd8a694e89ee,69b96011d3eac86b7e9fe07e,0.0402,0.0402,0,17,17,127,1,eightseven,,,,,,,,,,,,,,,,,,,,,,,,,,,,,,,,,,,,,,,,,,,,,,,,,,,,,,,,,,,,,,,,,,,,,,,,,,,,,,,,,,,,,,,,,,,,,,,,,,,,,,,,,,,,,,,,,,,,,,,,,,,,,,,,,,,,,,,,,
,,641384b3dffcf39ec42d3c23,2026-03-17_14h07.27.671,kallum_motion_pilot_GIST_update_2,2026.1.1,Win32,74.62686567,641384b3dffcf39ec42d3c23,69b95efdef24cd8a694e89ee,69b96011d3eac86b7e9fe07e,0.0403,0.0403,0,18,18,29,1,threefour,,,,,,,,,,,,,,,,,,,,,,,,,,,,,,,,,,,,,,,,,,,,,,,,,,,,,,,,,,,,,,,,,,,,,,,,,,,,,,,,,,,,,,,,,,,,,,,,,,,,,,,,,,,,,,,,,,,,,,,,,,,,,,,,,,,,,,,,,
,,641384b3dffcf39ec42d3c23,2026-03-17_14h07.27.671,kallum_motion_pilot_GIST_update_2,2026.1.1,Win32,74.62686567,641384b3dffcf39ec42d3c23,69b95efdef24cd8a694e89ee,69b96011d3eac86b7e9fe07e,0.0405,0.0405,0,19,19,72,1,onetwo,,,,,,,,,,,,,,,,,,,,,,,,,,,,,,,,,,,,,,,,,,,,,,,,,,,,,,,,,,,,,,,,,,,,,,,,,,,,,,,,,,,,,,,,,,,,,,,,,,,,,,,,,,,,,,,,,,,,,,,,,,,,,,,,,,,,,,,,,
,,641384b3dffcf39ec42d3c23,2026-03-17_14h07.27.671,kallum_motion_pilot_GIST_update_2,2026.1.1,Win32,74.62686567,641384b3dffcf39ec42d3c23,69b95efdef24cd8a694e89ee,69b96011d3eac86b7e9fe07e,0.0406,0.0406,0,20,20,136,1,fivesix,,,,,,,,,,,,,,,,,,,,,,,,,,,,,,,,,,,,,,,,,,,,,,,,,,,,,,,,,,,,,,,,,,,,,,,,,,,,,,,,,,,,,,,,,,,,,,,,,,,,,,,,,,,,,,,,,,,,,,,,,,,,,,,,,,,,,,,,,
,,641384b3dffcf39ec42d3c23,2026-03-17_14h07.27.671,kallum_motion_pilot_GIST_update_2,2026.1.1,Win32,74.62686567,641384b3dffcf39ec42d3c23,69b95efdef24cd8a694e89ee,69b96011d3eac86b7e9fe07e,0.0407,0.0407,0,21,21,33,1,onethree,,,,,,,,,,,,,,,,,,,,,,,,,,,,,,,,,,,,,,,,,,,,,,,,,,,,,,,,,,,,,,,,,,,,,,,,,,,,,,,,,,,,,,,,,,,,,,,,,,,,,,,,,,,,,,,,,,,,,,,,,,,,,,,,,,,,,,,,,
,,641384b3dffcf39ec42d3c23,2026-03-17_14h07.27.671,kallum_motion_pilot_GIST_update_2,2026.1.1,Win32,74.62686567,641384b3dffcf39ec42d3c23,69b95efdef24cd8a694e89ee,69b96011d3eac86b7e9fe07e,0.0409,0.0409,0,22,22,159,1,eightseven,,,,,,,,,,,,,,,,,,,,,,,,,,,,,,,,,,,,,,,,,,,,,,,,,,,,,,,,,,,,,,,,,,,,,,,,,,,,,,,,,,,,,,,,,,,,,,,,,,,,,,,,,,,,,,,,,,,,,,,,,,,,,,,,,,,,,,,,,
,,641384b3dffcf39ec42d3c23,2026-03-17_14h07.27.671,kallum_motion_pilot_GIST_update_2,2026.1.1,Win32,74.62686567,641384b3dffcf39ec42d3c23,69b95efdef24cd8a694e89ee,69b96011d3eac86b7e9fe07e,0.041,0.041,0,23,23,126,1,eightsix,,,,,,,,,,,,,,,,,,,,,,,,,,,,,,,,,,,,,,,,,,,,,,,,,,,,,,,,,,,,,,,,,,,,,,,,,,,,,,,,,,,,,,,,,,,,,,,,,,,,,,,,,,,,,,,,,,,,,,,,,,,,,,,,,,,,,,,,,
,,641384b3dffcf39ec42d3c23,2026-03-17_14h07.27.671,kallum_motion_pilot_GIST_update_2,2026.1.1,Win32,74.62686567,641384b3dffcf39ec42d3c23,69b95efdef24cd8a694e89ee,69b96011d3eac86b7e9fe07e,0.0412,0.0413,0,24,24,87,1,eightseven,,,,,,,,,,,,,,,,,,,,,,,,,,,,,,,,,,,,,,,,,,,,,,,,,,,,,,,,,,,,,,,,,,,,,,,,,,,,,,,,,,,,,,,,,,,,,,,,,,,,,,,,,,,,,,,,,,,,,,,,,,,,,,,,,,,,,,,,,
,,641384b3dffcf39ec42d3c23,2026-03-17_14h07.27.671,kallum_motion_pilot_GIST_update_2,2026.1.1,Win32,74.62686567,641384b3dffcf39ec42d3c23,69b95efdef24cd8a694e89ee,69b96011d3eac86b7e9fe07e,0.0416,0.0416,0,25,25,91,1,sixeight,,,,,,,,,,,,,,,,,,,,,,,,,,,,,,,,,,,,,,,,,,,,,,,,,,,,,,,,,,,,,,,,,,,,,,,,,,,,,,,,,,,,,,,,,,,,,,,,,,,,,,,,,,,,,,,,,,,,,,,,,,,,,,,,,,,,,,,,,
,,641384b3dffcf39ec42d3c23,2026-03-17_14h07.27.671,kallum_motion_pilot_GIST_update_2,2026.1.1,Win32,74.62686567,641384b3dffcf39ec42d3c23,69b95efdef24cd8a694e89ee,69b96011d3eac86b7e9fe07e,0.0418,0.0418,0,26,26,5,1,threefour,,,,,,,,,,,,,,,,,,,,,,,,,,,,,,,,,,,,,,,,,,,,,,,,,,,,,,,,,,,,,,,,,,,,,,,,,,,,,,,,,,,,,,,,,,,,,,,,,,,,,,,,,,,,,,,,,,,,,,,,,,,,,,,,,,,,,,,,,
,,641384b3dffcf39ec42d3c23,2026-03-17_14h07.27.671,kallum_motion_pilot_GIST_update_2,2026.1.1,Win32,74.62686567,641384b3dffcf39ec42d3c23,69b95efdef24cd8a694e89ee,69b96011d3eac86b7e9fe07e,0.042,0.0421,0,27,27,14,1,fourtwo,,,,,,,,,,,,,,,,,,,,,,,,,,,,,,,,,,,,,,,,,,,,,,,,,,,,,,,,,,,,,,,,,,,,,,,,,,,,,,,,,,,,,,,,,,,,,,,,,,,,,,,,,,,,,,,,,,,,,,,,,,,,,,,,,,,,,,,,,
,,641384b3dffcf39ec42d3c23,2026-03-17_14h07.27.671,kallum_motion_pilot_GIST_update_2,2026.1.1,Win32,74.62686567,641384b3dffcf39ec42d3c23,69b95efdef24cd8a694e89ee,69b96011d3eac86b7e9fe07e,0.0423,0.0423,0,28,28,144,1,fivesix,,,,,,,,,,,,,,,,,,,,,,,,,,,,,,,,,,,,,,,,,,,,,,,,,,,,,,,,,,,,,,,,,,,,,,,,,,,,,,,,,,,,,,,,,,,,,,,,,,,,,,,,,,,,,,,,,,,,,,,,,,,,,,,,,,,,,,,,,
,,641384b3dffcf39ec42d3c23,2026-03-17_14h07.27.671,kallum_motion_pilot_GIST_update_2,2026.1.1,Win32,74.62686567,641384b3dffcf39ec42d3c23,69b95efdef24cd8a694e89ee,69b96011d3eac86b7e9fe07e,0.0424,0.0424,0,29,29,135,1,eightseven,,,,,,,,,,,,,,,,,,,,,,,,,,,,,,,,,,,,,,,,,,,,,,,,,,,,,,,,,,,,,,,,,,,,,,,,,,,,,,,,,,,,,,,,,,,,,,,,,,,,,,,,,,,,,,,,,,,,,,,,,,,,,,,,,,,,,,,,,
,,641384b3dffcf39ec42d3c23,2026-03-17_14h07.27.671,kallum_motion_pilot_GIST_update_2,2026.1.1,Win32,74.62686567,641384b3dffcf39ec42d3c23,69b95efdef24cd8a694e89ee,69b96011d3eac86b7e9fe07e,0.0425,0.0425,0,30,30,0,1,onetwo,,,,,,,,,,,,,,,,,,,,,,,,,,,,,,,,,,,,,,,,,,,,,,,,,,,,,,,,,,,,,,,,,,,,,,,,,,,,,,,,,,,,,,,,,,,,,,,,,,,,,,,,,,,,,,,,,,,,,,,,,,,,,,,,,,,,,,,,,
,,641384b3dffcf39ec42d3c23,2026-03-17_14h07.27.671,kallum_motion_pilot_GIST_update_2,2026.1.1,Win32,74.62686567,641384b3dffcf39ec42d3c23,69b95efdef24cd8a694e89ee,69b96011d3eac86b7e9fe07e,0.0426,0.0427,0,31,31,11,1,twofour,,,,,,,,,,,,,,,,,,,,,,,,,,,,,,,,,,,,,,,,,,,,,,,,,,,,,,,,,,,,,,,,,,,,,,,,,,,,,,,,,,,,,,,,,,,,,,,,,,,,,,,,,,,,,,,,,,,,,,,,,,,,,,,,,,,,,,,,,
,,641384b3dffcf39ec42d3c23,2026-03-17_14h07.27.671,kallum_motion_pilot_GIST_update_2,2026.1.1,Win32,74.62686567,641384b3dffcf39ec42d3c23,69b95efdef24cd8a694e89ee,69b96011d3eac86b7e9fe07e,0.0429,0.0429,0,32,32,75,1,twofour,,,,,,,,,,,,,,,,,,,,,,,,,,,,,,,,,,,,,,,,,,,,,,,,,,,,,,,,,,,,,,,,,,,,,,,,,,,,,,,,,,,,,,,,,,,,,,,,,,,,,,,,,,,,,,,,,,,,,,,,,,,,,,,,,,,,,,,,,
,,641384b3dffcf39ec42d3c23,2026-03-17_14h07.27.671,kallum_motion_pilot_GIST_update_2,2026.1.1,Win32,74.62686567,641384b3dffcf39ec42d3c23,69b95efdef24cd8a694e89ee,69b96011d3eac86b7e9fe07e,0.043,0.043,0,33,33,130,1,sixfive,,,,,,,,,,,,,,,,,,,,,,,,,,,,,,,,,,,,,,,,,,,,,,,,,,,,,,,,,,,,,,,,,,,,,,,,,,,,,,,,,,,,,,,,,,,,,,,,,,,,,,,,,,,,,,,,,,,,,,,,,,,,,,,,,,,,,,,,,
,,641384b3dffcf39ec42d3c23,2026-03-17_14h07.27.671,kallum_motion_pilot_GIST_update_2,2026.1.1,Win32,74.62686567,641384b3dffcf39ec42d3c23,69b95efdef24cd8a694e89ee,69b96011d3eac86b7e9fe07e,0.0431,0.0432,0,34,34,140,1,sevenfive,,,,,,,,,,,,,,,,,,,,,,,,,,,,,,,,,,,,,,,,,,,,,,,,,,,,,,,,,,,,,,,,,,,,,,,,,,,,,,,,,,,,,,,,,,,,,,,,,,,,,,,,,,,,,,,,,,,,,,,,,,,,,,,,,,,,,,,,,
,,641384b3dffcf39ec42d3c23,2026-03-17_14h07.27.671,kallum_motion_pilot_GIST_update_2,2026.1.1,Win32,74.62686567,641384b3dffcf39ec42d3c23,69b95efdef24cd8a694e89ee,69b96011d3eac86b7e9fe07e,0.0433,0.0433,0,35,35,8,1,onetwo,,,,,,,,,,,,,,,,,,,,,,,,,,,,,,,,,,,,,,,,,,,,,,,,,,,,,,,,,,,,,,,,,,,,,,,,,,,,,,,,,,,,,,,,,,,,,,,,,,,,,,,,,,,,,,,,,,,,,,,,,,,,,,,,,,,,,,,,,
,,641384b3dffcf39ec42d3c23,2026-03-17_14h07.27.671,kallum_motion_pilot_GIST_update_2,2026.1.1,Win32,74.62686567,641384b3dffcf39ec42d3c23,69b95efdef24cd8a694e89ee,69b96011d3eac86b7e9fe07e,0.0434,0.0434,0,36,36,137,1,fiveseven,,,,,,,,,,,,,,,,,,,,,,,,,,,,,,,,,,,,,,,,,,,,,,,,,,,,,,,,,,,,,,,,,,,,,,,,,,,,,,,,,,,,,,,,,,,,,,,,,,,,,,,,,,,,,,,,,,,,,,,,,,,,,,,,,,,,,,,,,
,,641384b3dffcf39ec42d3c23,2026-03-17_14h07.27.671,kallum_motion_pilot_GIST_update_2,2026.1.1,Win32,74.62686567,641384b3dffcf39ec42d3c23,69b95efdef24cd8a694e89ee,69b96011d3eac86b7e9fe07e,0.0436,0.0436,0,37,37,100,1,sevenfive,,,,,,,,,,,,,,,,,,,,,,,,,,,,,,,,,,,,,,,,,,,,,,,,,,,,,,,,,,,,,,,,,,,,,,,,,,,,,,,,,,,,,,,,,,,,,,,,,,,,,,,,,,,,,,,,,,,,,,,,,,,,,,,,,,,,,,,,,
,,641384b3dffcf39ec42d3c23,2026-03-17_14h07.27.671,kallum_motion_pilot_GIST_update_2,2026.1.1,Win32,74.62686567,641384b3dffcf39ec42d3c23,69b95efdef24cd8a694e89ee,69b96011d3eac86b7e9fe07e,0.0438,0.0438,0,38,38,150,1,eightsix,,,,,,,,,,,,,,,,,,,,,,,,,,,,,,,,,,,,,,,,,,,,,,,,,,,,,,,,,,,,,,,,,,,,,,,,,,,,,,,,,,,,,,,,,,,,,,,,,,,,,,,,,,,,,,,,,,,,,,,,,,,,,,,,,,,,,,,,,
,,641384b3dffcf39ec42d3c23,2026-03-17_14h07.27.671,kallum_motion_pilot_GIST_update_2,2026.1.1,Win32,74.62686567,641384b3dffcf39ec42d3c23,69b95efdef24cd8a694e89ee,69b96011d3eac86b7e9fe07e,0.0439,0.0439,0,39,39,69,1,threefour,,,,,,,,,,,,,,,,,,,,,,,,,,,,,,,,,,,,,,,,,,,,,,,,,,,,,,,,,,,,,,,,,,,,,,,,,,,,,,,,,,,,,,,,,,,,,,,,,,,,,,,,,,,,,,,,,,,,,,,,,,,,,,,,,,,,,,,,,
,,641384b3dffcf39ec42d3c23,2026-03-17_14h07.27.671,kallum_motion_pilot_GIST_update_2,2026.1.1,Win32,74.62686567,641384b3dffcf39ec42d3c23,69b95efdef24cd8a694e89ee,69b96011d3eac86b7e9fe07e,0.044,0.044,0,40,40,46,1,fourtwo,,,,,,,,,,,,,,,,,,,,,,,,,,,,,,,,,,,,,,,,,,,,,,,,,,,,,,,,,,,,,,,,,,,,,,,,,,,,,,,,,,,,,,,,,,,,,,,,,,,,,,,,,,,,,,,,,,,,,,,,,,,,,,,,,,,,,,,,,
,,641384b3dffcf39ec42d3c23,2026-03-17_14h07.27.671,kallum_motion_pilot_GIST_update_2,2026.1.1,Win32,74.62686567,641384b3dffcf39ec42d3c23,69b95efdef24cd8a694e89ee,69b96011d3eac86b7e9fe07e,0.0442,0.0442,0,41,41,83,1,sixeight,,,,,,,,,,,,,,,,,,,,,,,,,,,,,,,,,,,,,,,,,,,,,,,,,,,,,,,,,,,,,,,,,,,,,,,,,,,,,,,,,,,,,,,,,,,,,,,,,,,,,,,,,,,,,,,,,,,,,,,,,,,,,,,,,,,,,,,,,
,,641384b3dffcf39ec42d3c23,2026-03-17_14h07.27.671,kallum_motion_pilot_GIST_update_2,2026.1.1,Win32,74.62686567,641384b3dffcf39ec42d3c23,69b95efdef24cd8a694e89ee,69b96011d3eac86b7e9fe07e,0.0444,0.0444,0,42,42,115,1,sixeight,,,,,,,,,,,,,,,,,,,,,,,,,,,,,,,,,,,,,,,,,,,,,,,,,,,,,,,,,,,,,,,,,,,,,,,,,,,,,,,,,,,,,,,,,,,,,,,,,,,,,,,,,,,,,,,,,,,,,,,,,,,,,,,,,,,,,,,,,
,,641384b3dffcf39ec42d3c23,2026-03-17_14h07.27.671,kallum_motion_pilot_GIST_update_2,2026.1.1,Win32,74.62686567,641384b3dffcf39ec42d3c23,69b95efdef24cd8a694e89ee,69b96011d3eac86b7e9fe07e,0.0445,0.0445,0,43,43,30,1,fourtwo,,,,,,,,,,,,,,,,,,,,,,,,,,,,,,,,,,,,,,,,,,,,,,,,,,,,,,,,,,,,,,,,,,,,,,,,,,,,,,,,,,,,,,,,,,,,,,,,,,,,,,,,,,,,,,,,,,,,,,,,,,,,,,,,,,,,,,,,,
,,641384b3dffcf39ec42d3c23,2026-03-17_14h07.27.671,kallum_motion_pilot_GIST_update_2,2026.1.1,Win32,74.62686567,641384b3dffcf39ec42d3c23,69b95efdef24cd8a694e89ee,69b96011d3eac86b7e9fe07e,0.0446,0.0446,0,44,44,120,1,fivesix,,,,,,,,,,,,,,,,,,,,,,,,,,,,,,,,,,,,,,,,,,,,,,,,,,,,,,,,,,,,,,,,,,,,,,,,,,,,,,,,,,,,,,,,,,,,,,,,,,,,,,,,,,,,,,,,,,,,,,,,,,,,,,,,,,,,,,,,,
,,641384b3dffcf39ec42d3c23,2026-03-17_14h07.27.671,kallum_motion_pilot_GIST_update_2,2026.1.1,Win32,74.62686567,641384b3dffcf39ec42d3c23,69b95efdef24cd8a694e89ee,69b96011d3eac86b7e9fe07e,0.0448,0.0448,0,45,45,97,1,fiveseven,,,,,,,,,,,,,,,,,,,,,,,,,,,,,,,,,,,,,,,,,,,,,,,,,,,,,,,,,,,,,,,,,,,,,,,,,,,,,,,,,,,,,,,,,,,,,,,,,,,,,,,,,,,,,,,,,,,,,,,,,,,,,,,,,,,,,,,,,
,,641384b3dffcf39ec42d3c23,2026-03-17_14h07.27.671,kallum_motion_pilot_GIST_update_2,2026.1.1,Win32,74.62686567,641384b3dffcf39ec42d3c23,69b95efdef24cd8a694e89ee,69b96011d3eac86b7e9fe07e,0.0451,0.0451,0,46,46,117,1,seveneight,,,,,,,,,,,,,,,,,,,,,,,,,,,,,,,,,,,,,,,,,,,,,,,,,,,,,,,,,,,,,,,,,,,,,,,,,,,,,,,,,,,,,,,,,,,,,,,,,,,,,,,,,,,,,,,,,,,,,,,,,,,,,,,,,,,,,,,,,
,,641384b3dffcf39ec42d3c23,2026-03-17_14h07.27.671,kallum_motion_pilot_GIST_update_2,2026.1.1,Win32,74.62686567,641384b3dffcf39ec42d3c23,69b95efdef24cd8a694e89ee,69b96011d3eac86b7e9fe07e,0.0452,0.0452,0,47,47,77,1,threefour,,,,,,,,,,,,,,,,,,,,,,,,,,,,,,,,,,,,,,,,,,,,,,,,,,,,,,,,,,,,,,,,,,,,,,,,,,,,,,,,,,,,,,,,,,,,,,,,,,,,,,,,,,,,,,,,,,,,,,,,,,,,,,,,,,,,,,,,,
,,641384b3dffcf39ec42d3c23,2026-03-17_14h07.27.671,kallum_motion_pilot_GIST_update_2,2026.1.1,Win32,74.62686567,641384b3dffcf39ec42d3c23,69b95efdef24cd8a694e89ee,69b96011d3eac86b7e9fe07e,0.0454,0.0454,0,48,48,81,1,fiveseven,,,,,,,,,,,,,,,,,,,,,,,,,,,,,,,,,,,,,,,,,,,,,,,,,,,,,,,,,,,,,,,,,,,,,,,,,,,,,,,,,,,,,,,,,,,,,,,,,,,,,,,,,,,,,,,,,,,,,,,,,,,,,,,,,,,,,,,,,
,,641384b3dffcf39ec42d3c23,2026-03-17_14h07.27.671,kallum_motion_pilot_GIST_update_2,2026.1.1,Win32,74.62686567,641384b3dffcf39ec42d3c23,69b95efdef24cd8a694e89ee,69b96011d3eac86b7e9fe07e,0.0455,0.0455,0,49,49,133,1,seveneight,,,,,,,,,,,,,,,,,,,,,,,,,,,,,,,,,,,,,,,,,,,,,,,,,,,,,,,,,,,,,,,,,,,,,,,,,,,,,,,,,,,,,,,,,,,,,,,,,,,,,,,,,,,,,,,,,,,,,,,,,,,,,,,,,,,,,,,,,
,,641384b3dffcf39ec42d3c23,2026-03-17_14h07.27.671,kallum_motion_pilot_GIST_update_2,2026.1.1,Win32,74.62686567,641384b3dffcf39ec42d3c23,69b95efdef24cd8a694e89ee,69b96011d3eac86b7e9fe07e,0.0457,0.0457,0,50,50,59,1,twofour,,,,,,,,,,,,,,,,,,,,,,,,,,,,,,,,,,,,,,,,,,,,,,,,,,,,,,,,,,,,,,,,,,,,,,,,,,,,,,,,,,,,,,,,,,,,,,,,,,,,,,,,,,,,,,,,,,,,,,,,,,,,,,,,,,,,,,,,,
,,641384b3dffcf39ec42d3c23,2026-03-17_14h07.27.671,kallum_motion_pilot_GIST_update_2,2026.1.1,Win32,74.62686567,641384b3dffcf39ec42d3c23,69b95efdef24cd8a694e89ee,69b96011d3eac86b7e9fe07e,0.0459,0.0459,0,51,51,86,1,eightsix,,,,,,,,,,,,,,,,,,,,,,,,,,,,,,,,,,,,,,,,,,,,,,,,,,,,,,,,,,,,,,,,,,,,,,,,,,,,,,,,,,,,,,,,,,,,,,,,,,,,,,,,,,,,,,,,,,,,,,,,,,,,,,,,,,,,,,,,,
,,641384b3dffcf39ec42d3c23,2026-03-17_14h07.27.671,kallum_motion_pilot_GIST_update_2,2026.1.1,Win32,74.62686567,641384b3dffcf39ec42d3c23,69b95efdef24cd8a694e89ee,69b96011d3eac86b7e9fe07e,0.046,0.046,0,52,52,139,1,sixeight,,,,,,,,,,,,,,,,,,,,,,,,,,,,,,,,,,,,,,,,,,,,,,,,,,,,,,,,,,,,,,,,,,,,,,,,,,,,,,,,,,,,,,,,,,,,,,,,,,,,,,,,,,,,,,,,,,,,,,,,,,,,,,,,,,,,,,,,,
,,641384b3dffcf39ec42d3c23,2026-03-17_14h07.27.671,kallum_motion_pilot_GIST_update_2,2026.1.1,Win32,74.62686567,641384b3dffcf39ec42d3c23,69b95efdef24cd8a694e89ee,69b96011d3eac86b7e9fe07e,0.0462,0.0462,0,53,53,102,1,eightsix,,,,,,,,,,,,,,,,,,,,,,,,,,,,,,,,,,,,,,,,,,,,,,,,,,,,,,,,,,,,,,,,,,,,,,,,,,,,,,,,,,,,,,,,,,,,,,,,,,,,,,,,,,,,,,,,,,,,,,,,,,,,,,,,,,,,,,,,,
,,641384b3dffcf39ec42d3c23,2026-03-17_14h07.27.671,kallum_motion_pilot_GIST_update_2,2026.1.1,Win32,74.62686567,641384b3dffcf39ec42d3c23,69b95efdef24cd8a694e89ee,69b96011d3eac86b7e9fe07e,0.0463,0.0464,0,54,54,119,1,eightseven,,,,,,,,,,,,,,,,,,,,,,,,,,,,,,,,,,,,,,,,,,,,,,,,,,,,,,,,,,,,,,,,,,,,,,,,,,,,,,,,,,,,,,,,,,,,,,,,,,,,,,,,,,,,,,,,,,,,,,,,,,,,,,,,,,,,,,,,,
,,641384b3dffcf39ec42d3c23,2026-03-17_14h07.27.671,kallum_motion_pilot_GIST_update_2,2026.1.1,Win32,74.62686567,641384b3dffcf39ec42d3c23,69b95efdef24cd8a694e89ee,69b96011d3eac86b7e9fe07e,0.0464,0.0464,0,55,55,48,1,onetwo,,,,,,,,,,,,,,,,,,,,,,,,,,,,,,,,,,,,,,,,,,,,,,,,,,,,,,,,,,,,,,,,,,,,,,,,,,,,,,,,,,,,,,,,,,,,,,,,,,,,,,,,,,,,,,,,,,,,,,,,,,,,,,,,,,,,,,,,,
,,641384b3dffcf39ec42d3c23,2026-03-17_14h07.27.671,kallum_motion_pilot_GIST_update_2,2026.1.1,Win32,74.62686567,641384b3dffcf39ec42d3c23,69b95efdef24cd8a694e89ee,69b96011d3eac86b7e9fe07e,0.0466,0.0466,0,56,56,26,1,twoone,,,,,,,,,,,,,,,,,,,,,,,,,,,,,,,,,,,,,,,,,,,,,,,,,,,,,,,,,,,,,,,,,,,,,,,,,,,,,,,,,,,,,,,,,,,,,,,,,,,,,,,,,,,,,,,,,,,,,,,,,,,,,,,,,,,,,,,,,
,,641384b3dffcf39ec42d3c23,2026-03-17_14h07.27.671,kallum_motion_pilot_GIST_update_2,2026.1.1,Win32,74.62686567,641384b3dffcf39ec42d3c23,69b95efdef24cd8a694e89ee,69b96011d3eac86b7e9fe07e,0.0468,0.0468,0,57,57,34,1,twoone,,,,,,,,,,,,,,,,,,,,,,,,,,,,,,,,,,,,,,,,,,,,,,,,,,,,,,,,,,,,,,,,,,,,,,,,,,,,,,,,,,,,,,,,,,,,,,,,,,,,,,,,,,,,,,,,,,,,,,,,,,,,,,,,,,,,,,,,,
,,641384b3dffcf39ec42d3c23,2026-03-17_14h07.27.671,kallum_motion_pilot_GIST_update_2,2026.1.1,Win32,74.62686567,641384b3dffcf39ec42d3c23,69b95efdef24cd8a694e89ee,69b96011d3eac86b7e9fe07e,0.0469,0.0469,0,58,58,108,1,sevenfive,,,,,,,,,,,,,,,,,,,,,,,,,,,,,,,,,,,,,,,,,,,,,,,,,,,,,,,,,,,,,,,,,,,,,,,,,,,,,,,,,,,,,,,,,,,,,,,,,,,,,,,,,,,,,,,,,,,,,,,,,,,,,,,,,,,,,,,,,
,,641384b3dffcf39ec42d3c23,2026-03-17_14h07.27.671,kallum_motion_pilot_GIST_update_2,2026.1.1,Win32,74.62686567,641384b3dffcf39ec42d3c23,69b95efdef24cd8a694e89ee,69b96011d3eac86b7e9fe07e,0.0471,0.0471,0,59,59,55,1,fourthree,,,,,,,,,,,,,,,,,,,,,,,,,,,,,,,,,,,,,,,,,,,,,,,,,,,,,,,,,,,,,,,,,,,,,,,,,,,,,,,,,,,,,,,,,,,,,,,,,,,,,,,,,,,,,,,,,,,,,,,,,,,,,,,,,,,,,,,,,
,,641384b3dffcf39ec42d3c23,2026-03-17_14h07.27.671,kallum_motion_pilot_GIST_update_2,2026.1.1,Win32,74.62686567,641384b3dffcf39ec42d3c23,69b95efdef24cd8a694e89ee,69b96011d3eac86b7e9fe07e,0.0473,0.0473,0,60,60,106,1,sixfive,,,,,,,,,,,,,,,,,,,,,,,,,,,,,,,,,,,,,,,,,,,,,,,,,,,,,,,,,,,,,,,,,,,,,,,,,,,,,,,,,,,,,,,,,,,,,,,,,,,,,,,,,,,,,,,,,,,,,,,,,,,,,,,,,,,,,,,,,
,,641384b3dffcf39ec42d3c23,2026-03-17_14h07.27.671,kallum_motion_pilot_GIST_update_2,2026.1.1,Win32,74.62686567,641384b3dffcf39ec42d3c23,69b95efdef24cd8a694e89ee,69b96011d3eac86b7e9fe07e,0.0475,0.0475,0,61,61,114,1,sixfive,,,,,,,,,,,,,,,,,,,,,,,,,,,,,,,,,,,,,,,,,,,,,,,,,,,,,,,,,,,,,,,,,,,,,,,,,,,,,,,,,,,,,,,,,,,,,,,,,,,,,,,,,,,,,,,,,,,,,,,,,,,,,,,,,,,,,,,,,
,,641384b3dffcf39ec42d3c23,2026-03-17_14h07.27.671,kallum_motion_pilot_GIST_update_2,2026.1.1,Win32,74.62686567,641384b3dffcf39ec42d3c23,69b95efdef24cd8a694e89ee,69b96011d3eac86b7e9fe07e,0.0477,0.0477,0,62,62,129,1,fiveseven,,,,,,,,,,,,,,,,,,,,,,,,,,,,,,,,,,,,,,,,,,,,,,,,,,,,,,,,,,,,,,,,,,,,,,,,,,,,,,,,,,,,,,,,,,,,,,,,,,,,,,,,,,,,,,,,,,,,,,,,,,,,,,,,,,,,,,,,,
,,641384b3dffcf39ec42d3c23,2026-03-17_14h07.27.671,kallum_motion_pilot_GIST_update_2,2026.1.1,Win32,74.62686567,641384b3dffcf39ec42d3c23,69b95efdef24cd8a694e89ee,69b96011d3eac86b7e9fe07e,0.0479,0.0479,0,63,63,64,1,onetwo,,,,,,,,,,,,,,,,,,,,,,,,,,,,,,,,,,,,,,,,,,,,,,,,,,,,,,,,,,,,,,,,,,,,,,,,,,,,,,,,,,,,,,,,,,,,,,,,,,,,,,,,,,,,,,,,,,,,,,,,,,,,,,,,,,,,,,,,,
,,641384b3dffcf39ec42d3c23,2026-03-17_14h07.27.671,kallum_motion_pilot_GIST_update_2,2026.1.1,Win32,74.62686567,641384b3dffcf39ec42d3c23,69b95efdef24cd8a694e89ee,69b96011d3eac86b7e9fe07e,0.0482,0.0482,0,64,64,4,1,threeone,,,,,,,,,,,,,,,,,,,,,,,,,,,,,,,,,,,,,,,,,,,,,,,,,,,,,,,,,,,,,,,,,,,,,,,,,,,,,,,,,,,,,,,,,,,,,,,,,,,,,,,,,,,,,,,,,,,,,,,,,,,,,,,,,,,,,,,,,
,,641384b3dffcf39ec42d3c23,2026-03-17_14h07.27.671,kallum_motion_pilot_GIST_update_2,2026.1.1,Win32,74.62686567,641384b3dffcf39ec42d3c23,69b95efdef24cd8a694e89ee,69b96011d3eac86b7e9fe07e,0.0484,0.0484,0,65,65,65,1,onethree,,,,,,,,,,,,,,,,,,,,,,,,,,,,,,,,,,,,,,,,,,,,,,,,,,,,,,,,,,,,,,,,,,,,,,,,,,,,,,,,,,,,,,,,,,,,,,,,,,,,,,,,,,,,,,,,,,,,,,,,,,,,,,,,,,,,,,,,,
,,641384b3dffcf39ec42d3c23,2026-03-17_14h07.27.671,kallum_motion_pilot_GIST_update_2,2026.1.1,Win32,74.62686567,641384b3dffcf39ec42d3c23,69b95efdef24cd8a694e89ee,69b96011d3eac86b7e9fe07e,0.0486,0.0486,0,66,66,18,1,twoone,,,,,,,,,,,,,,,,,,,,,,,,,,,,,,,,,,,,,,,,,,,,,,,,,,,,,,,,,,,,,,,,,,,,,,,,,,,,,,,,,,,,,,,,,,,,,,,,,,,,,,,,,,,,,,,,,,,,,,,,,,,,,,,,,,,,,,,,,
,,641384b3dffcf39ec42d3c23,2026-03-17_14h07.27.671,kallum_motion_pilot_GIST_update_2,2026.1.1,Win32,74.62686567,641384b3dffcf39ec42d3c23,69b95efdef24cd8a694e89ee,69b96011d3eac86b7e9fe07e,0.0489,0.0489,0,67,67,156,1,sevenfive,,,,,,,,,,,,,,,,,,,,,,,,,,,,,,,,,,,,,,,,,,,,,,,,,,,,,,,,,,,,,,,,,,,,,,,,,,,,,,,,,,,,,,,,,,,,,,,,,,,,,,,,,,,,,,,,,,,,,,,,,,,,,,,,,,,,,,,,,
,,641384b3dffcf39ec42d3c23,2026-03-17_14h07.27.671,kallum_motion_pilot_GIST_update_2,2026.1.1,Win32,74.62686567,641384b3dffcf39ec42d3c23,69b95efdef24cd8a694e89ee,69b96011d3eac86b7e9fe07e,0.0491,0.0491,0,68,68,20,1,threeone,,,,,,,,,,,,,,,,,,,,,,,,,,,,,,,,,,,,,,,,,,,,,,,,,,,,,,,,,,,,,,,,,,,,,,,,,,,,,,,,,,,,,,,,,,,,,,,,,,,,,,,,,,,,,,,,,,,,,,,,,,,,,,,,,,,,,,,,,
,,641384b3dffcf39ec42d3c23,2026-03-17_14h07.27.671,kallum_motion_pilot_GIST_update_2,2026.1.1,Win32,74.62686567,641384b3dffcf39ec42d3c23,69b95efdef24cd8a694e89ee,69b96011d3eac86b7e9fe07e,0.0494,0.0494,0,69,69,43,1,twofour,,,,,,,,,,,,,,,,,,,,,,,,,,,,,,,,,,,,,,,,,,,,,,,,,,,,,,,,,,,,,,,,,,,,,,,,,,,,,,,,,,,,,,,,,,,,,,,,,,,,,,,,,,,,,,,,,,,,,,,,,,,,,,,,,,,,,,,,,
,,641384b3dffcf39ec42d3c23,2026-03-17_14h07.27.671,kallum_motion_pilot_GIST_update_2,2026.1.1,Win32,74.62686567,641384b3dffcf39ec42d3c23,69b95efdef24cd8a694e89ee,69b96011d3eac86b7e9fe07e,0.0497,0.0497,0,70,70,160,1,fivesix,,,,,,,,,,,,,,,,,,,,,,,,,,,,,,,,,,,,,,,,,,,,,,,,,,,,,,,,,,,,,,,,,,,,,,,,,,,,,,,,,,,,,,,,,,,,,,,,,,,,,,,,,,,,,,,,,,,,,,,,,,,,,,,,,,,,,,,,,
,,641384b3dffcf39ec42d3c23,2026-03-17_14h07.27.671,kallum_motion_pilot_GIST_update_2,2026.1.1,Win32,74.62686567,641384b3dffcf39ec42d3c23,69b95efdef24cd8a694e89ee,69b96011d3eac86b7e9fe07e,0.05,0.05,0,71,71,84,1,sevenfive,,,,,,,,,,,,,,,,,,,,,,,,,,,,,,,,,,,,,,,,,,,,,,,,,,,,,,,,,,,,,,,,,,,,,,,,,,,,,,,,,,,,,,,,,,,,,,,,,,,,,,,,,,,,,,,,,,,,,,,,,,,,,,,,,,,,,,,,,
,,641384b3dffcf39ec42d3c23,2026-03-17_14h07.27.671,kallum_motion_pilot_GIST_update_2,2026.1.1,Win32,74.62686567,641384b3dffcf39ec42d3c23,69b95efdef24cd8a694e89ee,69b96011d3eac86b7e9fe07e,0.0504,0.0504,0,72,72,124,1,sevenfive,,,,,,,,,,,,,,,,,,,,,,,,,,,,,,,,,,,,,,,,,,,,,,,,,,,,,,,,,,,,,,,,,,,,,,,,,,,,,,,,,,,,,,,,,,,,,,,,,,,,,,,,,,,,,,,,,,,,,,,,,,,,,,,,,,,,,,,,,
,,641384b3dffcf39ec42d3c23,2026-03-17_14h07.27.671,kallum_motion_pilot_GIST_update_2,2026.1.1,Win32,74.62686567,641384b3dffcf39ec42d3c23,69b95efdef24cd8a694e89ee,69b96011d3eac86b7e9fe07e,0.0507,0.0507,0,73,73,49,1,onethree,,,,,,,,,,,,,,,,,,,,,,,,,,,,,,,,,,,,,,,,,,,,,,,,,,,,,,,,,,,,,,,,,,,,,,,,,,,,,,,,,,,,,,,,,,,,,,,,,,,,,,,,,,,,,,,,,,,,,,,,,,,,,,,,,,,,,,,,,
,,641384b3dffcf39ec42d3c23,2026-03-17_14h07.27.671,kallum_motion_pilot_GIST_update_2,2026.1.1,Win32,74.62686567,641384b3dffcf39ec42d3c23,69b95efdef24cd8a694e89ee,69b96011d3eac86b7e9fe07e,0.051,0.051,0,74,74,132,1,sevenfive,,,,,,,,,,,,,,,,,,,,,,,,,,,,,,,,,,,,,,,,,,,,,,,,,,,,,,,,,,,,,,,,,,,,,,,,,,,,,,,,,,,,,,,,,,,,,,,,,,,,,,,,,,,,,,,,,,,,,,,,,,,,,,,,,,,,,,,,,
,,641384b3dffcf39ec42d3c23,2026-03-17_14h07.27.671,kallum_motion_pilot_GIST_update_2,2026.1.1,Win32,74.62686567,641384b3dffcf39ec42d3c23,69b95efdef24cd8a694e89ee,69b96011d3eac86b7e9fe07e,0.0513,0.0513,0,75,75,153,1,fiveseven,,,,,,,,,,,,,,,,,,,,,,,,,,,,,,,,,,,,,,,,,,,,,,,,,,,,,,,,,,,,,,,,,,,,,,,,,,,,,,,,,,,,,,,,,,,,,,,,,,,,,,,,,,,,,,,,,,,,,,,,,,,,,,,,,,,,,,,,,
,,641384b3dffcf39ec42d3c23,2026-03-17_14h07.27.671,kallum_motion_pilot_GIST_update_2,2026.1.1,Win32,74.62686567,641384b3dffcf39ec42d3c23,69b95efdef24cd8a694e89ee,69b96011d3eac86b7e9fe07e,0.0515,0.0515,0,76,76,24,1,onetwo,,,,,,,,,,,,,,,,,,,,,,,,,,,,,,,,,,,,,,,,,,,,,,,,,,,,,,,,,,,,,,,,,,,,,,,,,,,,,,,,,,,,,,,,,,,,,,,,,,,,,,,,,,,,,,,,,,,,,,,,,,,,,,,,,,,,,,,,,
,,641384b3dffcf39ec42d3c23,2026-03-17_14h07.27.671,kallum_motion_pilot_GIST_update_2,2026.1.1,Win32,74.62686567,641384b3dffcf39ec42d3c23,69b95efdef24cd8a694e89ee,69b96011d3eac86b7e9fe07e,0.0517,0.0517,0,77,77,45,1,threefour,,,,,,,,,,,,,,,,,,,,,,,,,,,,,,,,,,,,,,,,,,,,,,,,,,,,,,,,,,,,,,,,,,,,,,,,,,,,,,,,,,,,,,,,,,,,,,,,,,,,,,,,,,,,,,,,,,,,,,,,,,,,,,,,,,,,,,,,,
,,641384b3dffcf39ec42d3c23,2026-03-17_14h07.27.671,kallum_motion_pilot_GIST_update_2,2026.1.1,Win32,74.62686567,641384b3dffcf39ec42d3c23,69b95efdef24cd8a694e89ee,69b96011d3eac86b7e9fe07e,0.0518,0.0518,0,78,78,104,1,fivesix,,,,,,,,,,,,,,,,,,,,,,,,,,,,,,,,,,,,,,,,,,,,,,,,,,,,,,,,,,,,,,,,,,,,,,,,,,,,,,,,,,,,,,,,,,,,,,,,,,,,,,,,,,,,,,,,,,,,,,,,,,,,,,,,,,,,,,,,,
,,641384b3dffcf39ec42d3c23,2026-03-17_14h07.27.671,kallum_motion_pilot_GIST_update_2,2026.1.1,Win32,74.62686567,641384b3dffcf39ec42d3c23,69b95efdef24cd8a694e89ee,69b96011d3eac86b7e9fe07e,0.0519,0.0519,0,79,79,37,1,threefour,,,,,,,,,,,,,,,,,,,,,,,,,,,,,,,,,,,,,,,,,,,,,,,,,,,,,,,,,,,,,,,,,,,,,,,,,,,,,,,,,,,,,,,,,,,,,,,,,,,,,,,,,,,,,,,,,,,,,,,,,,,,,,,,,,,,,,,,,
,,641384b3dffcf39ec42d3c23,2026-03-17_14h07.27.671,kallum_motion_pilot_GIST_update_2,2026.1.1,Win32,74.62686567,641384b3dffcf39ec42d3c23,69b95efdef24cd8a694e89ee,69b96011d3eac86b7e9fe07e,0.0522,0.0522,0,80,80,78,1,fourtwo,,,,,,,,,,,,,,,,,,,,,,,,,,,,,,,,,,,,,,,,,,,,,,,,,,,,,,,,,,,,,,,,,,,,,,,,,,,,,,,,,,,,,,,,,,,,,,,,,,,,,,,,,,,,,,,,,,,,,,,,,,,,,,,,,,,,,,,,,
,,641384b3dffcf39ec42d3c23,2026-03-17_14h07.27.671,kallum_motion_pilot_GIST_update_2,2026.1.1,Win32,74.62686567,641384b3dffcf39ec42d3c23,69b95efdef24cd8a694e89ee,69b96011d3eac86b7e9fe07e,0.0524,0.0524,0,81,81,118,1,eightsix,,,,,,,,,,,,,,,,,,,,,,,,,,,,,,,,,,,,,,,,,,,,,,,,,,,,,,,,,,,,,,,,,,,,,,,,,,,,,,,,,,,,,,,,,,,,,,,,,,,,,,,,,,,,,,,,,,,,,,,,,,,,,,,,,,,,,,,,,
,,641384b3dffcf39ec42d3c23,2026-03-17_14h07.27.671,kallum_motion_pilot_GIST_update_2,2026.1.1,Win32,74.62686567,641384b3dffcf39ec42d3c23,69b95efdef24cd8a694e89ee,69b96011d3eac86b7e9fe07e,0.0525,0.0525,0,82,82,147,1,sixeight,,,,,,,,,,,,,,,,,,,,,,,,,,,,,,,,,,,,,,,,,,,,,,,,,,,,,,,,,,,,,,,,,,,,,,,,,,,,,,,,,,,,,,,,,,,,,,,,,,,,,,,,,,,,,,,,,,,,,,,,,,,,,,,,,,,,,,,,,
,,641384b3dffcf39ec42d3c23,2026-03-17_14h07.27.671,kallum_motion_pilot_GIST_update_2,2026.1.1,Win32,74.62686567,641384b3dffcf39ec42d3c23,69b95efdef24cd8a694e89ee,69b96011d3eac86b7e9fe07e,0.0526,0.0526,0,83,83,142,1,eightsix,,,,,,,,,,,,,,,,,,,,,,,,,,,,,,,,,,,,,,,,,,,,,,,,,,,,,,,,,,,,,,,,,,,,,,,,,,,,,,,,,,,,,,,,,,,,,,,,,,,,,,,,,,,,,,,,,,,,,,,,,,,,,,,,,,,,,,,,,
,,641384b3dffcf39ec42d3c23,2026-03-17_14h07.27.671,kallum_motion_pilot_GIST_update_2,2026.1.1,Win32,74.62686567,641384b3dffcf39ec42d3c23,69b95efdef24cd8a694e89ee,69b96011d3eac86b7e9fe07e,0.0529,0.0529,0,84,84,22,1,fourtwo,,,,,,,,,,,,,,,,,,,,,,,,,,,,,,,,,,,,,,,,,,,,,,,,,,,,,,,,,,,,,,,,,,,,,,,,,,,,,,,,,,,,,,,,,,,,,,,,,,,,,,,,,,,,,,,,,,,,,,,,,,,,,,,,,,,,,,,,,
,,641384b3dffcf39ec42d3c23,2026-03-17_14h07.27.671,kallum_motion_pilot_GIST_update_2,2026.1.1,Win32,74.62686567,641384b3dffcf39ec42d3c23,69b95efdef24cd8a694e89ee,69b96011d3eac86b7e9fe07e,0.053,0.053,0,85,85,28,1,threeone,,,,,,,,,,,,,,,,,,,,,,,,,,,,,,,,,,,,,,,,,,,,,,,,,,,,,,,,,,,,,,,,,,,,,,,,,,,,,,,,,,,,,,,,,,,,,,,,,,,,,,,,,,,,,,,,,,,,,,,,,,,,,,,,,,,,,,,,,
,,641384b3dffcf39ec42d3c23,2026-03-17_14h07.27.671,kallum_motion_pilot_GIST_update_2,2026.1.1,Win32,74.62686567,641384b3dffcf39ec42d3c23,69b95efdef24cd8a694e89ee,69b96011d3eac86b7e9fe07e,0.0532,0.0532,0,86,86,112,1,fivesix,,,,,,,,,,,,,,,,,,,,,,,,,,,,,,,,,,,,,,,,,,,,,,,,,,,,,,,,,,,,,,,,,,,,,,,,,,,,,,,,,,,,,,,,,,,,,,,,,,,,,,,,,,,,,,,,,,,,,,,,,,,,,,,,,,,,,,,,,
,,641384b3dffcf39ec42d3c23,2026-03-17_14h07.27.671,kallum_motion_pilot_GIST_update_2,2026.1.1,Win32,74.62686567,641384b3dffcf39ec42d3c23,69b95efdef24cd8a694e89ee,69b96011d3eac86b7e9fe07e,0.0533,0.0533,0,87,87,94,1,eightsix,,,,,,,,,,,,,,,,,,,,,,,,,,,,,,,,,,,,,,,,,,,,,,,,,,,,,,,,,,,,,,,,,,,,,,,,,,,,,,,,,,,,,,,,,,,,,,,,,,,,,,,,,,,,,,,,,,,,,,,,,,,,,,,,,,,,,,,,,
,,641384b3dffcf39ec42d3c23,2026-03-17_14h07.27.671,kallum_motion_pilot_GIST_update_2,2026.1.1,Win32,74.62686567,641384b3dffcf39ec42d3c23,69b95efdef24cd8a694e89ee,69b96011d3eac86b7e9fe07e,0.0535,0.0535,0,88,88,103,1,eightseven,,,,,,,,,,,,,,,,,,,,,,,,,,,,,,,,,,,,,,,,,,,,,,,,,,,,,,,,,,,,,,,,,,,,,,,,,,,,,,,,,,,,,,,,,,,,,,,,,,,,,,,,,,,,,,,,,,,,,,,,,,,,,,,,,,,,,,,,,
,,641384b3dffcf39ec42d3c23,2026-03-17_14h07.27.671,kallum_motion_pilot_GIST_update_2,2026.1.1,Win32,74.62686567,641384b3dffcf39ec42d3c23,69b95efdef24cd8a694e89ee,69b96011d3eac86b7e9fe07e,0.0537,0.0537,0,89,89,3,1,twofour,,,,,,,,,,,,,,,,,,,,,,,,,,,,,,,,,,,,,,,,,,,,,,,,,,,,,,,,,,,,,,,,,,,,,,,,,,,,,,,,,,,,,,,,,,,,,,,,,,,,,,,,,,,,,,,,,,,,,,,,,,,,,,,,,,,,,,,,,
,,641384b3dffcf39ec42d3c23,2026-03-17_14h07.27.671,kallum_motion_pilot_GIST_update_2,2026.1.1,Win32,74.62686567,641384b3dffcf39ec42d3c23,69b95efdef24cd8a694e89ee,69b96011d3eac86b7e9fe07e,0.0539,0.0539,0,90,90,35,1,twofour,,,,,,,,,,,,,,,,,,,,,,,,,,,,,,,,,,,,,,,,,,,,,,,,,,,,,,,,,,,,,,,,,,,,,,,,,,,,,,,,,,,,,,,,,,,,,,,,,,,,,,,,,,,,,,,,,,,,,,,,,,,,,,,,,,,,,,,,,
,,641384b3dffcf39ec42d3c23,2026-03-17_14h07.27.671,kallum_motion_pilot_GIST_update_2,2026.1.1,Win32,74.62686567,641384b3dffcf39ec42d3c23,69b95efdef24cd8a694e89ee,69b96011d3eac86b7e9fe07e,0.054,0.054,0,91,91,27,1,twofour,,,,,,,,,,,,,,,,,,,,,,,,,,,,,,,,,,,,,,,,,,,,,,,,,,,,,,,,,,,,,,,,,,,,,,,,,,,,,,,,,,,,,,,,,,,,,,,,,,,,,,,,,,,,,,,,,,,,,,,,,,,,,,,,,,,,,,,,,
,,641384b3dffcf39ec42d3c23,2026-03-17_14h07.27.671,kallum_motion_pilot_GIST_update_2,2026.1.1,Win32,74.62686567,641384b3dffcf39ec42d3c23,69b95efdef24cd8a694e89ee,69b96011d3eac86b7e9fe07e,0.0542,0.0542,0,92,92,66,1,twoone,,,,,,,,,,,,,,,,,,,,,,,,,,,,,,,,,,,,,,,,,,,,,,,,,,,,,,,,,,,,,,,,,,,,,,,,,,,,,,,,,,,,,,,,,,,,,,,,,,,,,,,,,,,,,,,,,,,,,,,,,,,,,,,,,,,,,,,,,
,,641384b3dffcf39ec42d3c23,2026-03-17_14h07.27.671,kallum_motion_pilot_GIST_update_2,2026.1.1,Win32,74.62686567,641384b3dffcf39ec42d3c23,69b95efdef24cd8a694e89ee,69b96011d3eac86b7e9fe07e,0.0544,0.0544,0,93,93,76,1,threeone,,,,,,,,,,,,,,,,,,,,,,,,,,,,,,,,,,,,,,,,,,,,,,,,,,,,,,,,,,,,,,,,,,,,,,,,,,,,,,,,,,,,,,,,,,,,,,,,,,,,,,,,,,,,,,,,,,,,,,,,,,,,,,,,,,,,,,,,,
,,641384b3dffcf39ec42d3c23,2026-03-17_14h07.27.671,kallum_motion_pilot_GIST_update_2,2026.1.1,Win32,74.62686567,641384b3dffcf39ec42d3c23,69b95efdef24cd8a694e89ee,69b96011d3eac86b7e9fe07e,0.0545,0.0545,0,94,94,85,1,seveneight,,,,,,,,,,,,,,,,,,,,,,,,,,,,,,,,,,,,,,,,,,,,,,,,,,,,,,,,,,,,,,,,,,,,,,,,,,,,,,,,,,,,,,,,,,,,,,,,,,,,,,,,,,,,,,,,,,,,,,,,,,,,,,,,,,,,,,,,,
,,641384b3dffcf39ec42d3c23,2026-03-17_14h07.27.671,kallum_motion_pilot_GIST_update_2,2026.1.1,Win32,74.62686567,641384b3dffcf39ec42d3c23,69b95efdef24cd8a694e89ee,69b96011d3eac86b7e9fe07e,0.0547,0.0547,0,95,95,42,1,twoone,,,,,,,,,,,,,,,,,,,,,,,,,,,,,,,,,,,,,,,,,,,,,,,,,,,,,,,,,,,,,,,,,,,,,,,,,,,,,,,,,,,,,,,,,,,,,,,,,,,,,,,,,,,,,,,,,,,,,,,,,,,,,,,,,,,,,,,,,
,,641384b3dffcf39ec42d3c23,2026-03-17_14h07.27.671,kallum_motion_pilot_GIST_update_2,2026.1.1,Win32,74.62686567,641384b3dffcf39ec42d3c23,69b95efdef24cd8a694e89ee,69b96011d3eac86b7e9fe07e,0.0549,0.0549,0,96,96,36,1,threeone,,,,,,,,,,,,,,,,,,,,,,,,,,,,,,,,,,,,,,,,,,,,,,,,,,,,,,,,,,,,,,,,,,,,,,,,,,,,,,,,,,,,,,,,,,,,,,,,,,,,,,,,,,,,,,,,,,,,,,,,,,,,,,,,,,,,,,,,,
,,641384b3dffcf39ec42d3c23,2026-03-17_14h07.27.671,kallum_motion_pilot_GIST_update_2,2026.1.1,Win32,74.62686567,641384b3dffcf39ec42d3c23,69b95efdef24cd8a694e89ee,69b96011d3eac86b7e9fe07e,0.0551,0.0551,0,97,97,12,1,threeone,,,,,,,,,,,,,,,,,,,,,,,,,,,,,,,,,,,,,,,,,,,,,,,,,,,,,,,,,,,,,,,,,,,,,,,,,,,,,,,,,,,,,,,,,,,,,,,,,,,,,,,,,,,,,,,,,,,,,,,,,,,,,,,,,,,,,,,,,
,,641384b3dffcf39ec42d3c23,2026-03-17_14h07.27.671,kallum_motion_pilot_GIST_update_2,2026.1.1,Win32,74.62686567,641384b3dffcf39ec42d3c23,69b95efdef24cd8a694e89ee,69b96011d3eac86b7e9fe07e,0.0552,0.0552,0,98,98,21,1,threefour,,,,,,,,,,,,,,,,,,,,,,,,,,,,,,,,,,,,,,,,,,,,,,,,,,,,,,,,,,,,,,,,,,,,,,,,,,,,,,,,,,,,,,,,,,,,,,,,,,,,,,,,,,,,,,,,,,,,,,,,,,,,,,,,,,,,,,,,,
,,641384b3dffcf39ec42d3c23,2026-03-17_14h07.27.671,kallum_motion_pilot_GIST_update_2,2026.1.1,Win32,74.62686567,641384b3dffcf39ec42d3c23,69b95efdef24cd8a694e89ee,69b96011d3eac86b7e9fe07e,0.0555,0.0555,0,99,99,7,1,fourthree,,,,,,,,,,,,,,,,,,,,,,,,,,,,,,,,,,,,,,,,,,,,,,,,,,,,,,,,,,,,,,,,,,,,,,,,,,,,,,,,,,,,,,,,,,,,,,,,,,,,,,,,,,,,,,,,,,,,,,,,,,,,,,,,,,,,,,,,,
,,641384b3dffcf39ec42d3c23,2026-03-17_14h07.27.671,kallum_motion_pilot_GIST_update_2,2026.1.1,Win32,74.62686567,641384b3dffcf39ec42d3c23,69b95efdef24cd8a694e89ee,69b96011d3eac86b7e9fe07e,0.0556,0.0556,0,100,100,39,1,fourthree,,,,,,,,,,,,,,,,,,,,,,,,,,,,,,,,,,,,,,,,,,,,,,,,,,,,,,,,,,,,,,,,,,,,,,,,,,,,,,,,,,,,,,,,,,,,,,,,,,,,,,,,,,,,,,,,,,,,,,,,,,,,,,,,,,,,,,,,,
,,641384b3dffcf39ec42d3c23,2026-03-17_14h07.27.671,kallum_motion_pilot_GIST_update_2,2026.1.1,Win32,74.62686567,641384b3dffcf39ec42d3c23,69b95efdef24cd8a694e89ee,69b96011d3eac86b7e9fe07e,0.0558,0.0558,0,101,101,107,1,sixeight,,,,,,,,,,,,,,,,,,,,,,,,,,,,,,,,,,,,,,,,,,,,,,,,,,,,,,,,,,,,,,,,,,,,,,,,,,,,,,,,,,,,,,,,,,,,,,,,,,,,,,,,,,,,,,,,,,,,,,,,,,,,,,,,,,,,,,,,,
,,641384b3dffcf39ec42d3c23,2026-03-17_14h07.27.671,kallum_motion_pilot_GIST_update_2,2026.1.1,Win32,74.62686567,641384b3dffcf39ec42d3c23,69b95efdef24cd8a694e89ee,69b96011d3eac86b7e9fe07e,0.056,0.056,0,102,102,88,1,fivesix,,,,,,,,,,,,,,,,,,,,,,,,,,,,,,,,,,,,,,,,,,,,,,,,,,,,,,,,,,,,,,,,,,,,,,,,,,,,,,,,,,,,,,,,,,,,,,,,,,,,,,,,,,,,,,,,,,,,,,,,,,,,,,,,,,,,,,,,,
,,641384b3dffcf39ec42d3c23,2026-03-17_14h07.27.671,kallum_motion_pilot_GIST_update_2,2026.1.1,Win32,74.62686567,641384b3dffcf39ec42d3c23,69b95efdef24cd8a694e89ee,69b96011d3eac86b7e9fe07e,0.0561,0.0561,0,103,103,149,1,seveneight,,,,,,,,,,,,,,,,,,,,,,,,,,,,,,,,,,,,,,,,,,,,,,,,,,,,,,,,,,,,,,,,,,,,,,,,,,,,,,,,,,,,,,,,,,,,,,,,,,,,,,,,,,,,,,,,,,,,,,,,,,,,,,,,,,,,,,,,,
,,641384b3dffcf39ec42d3c23,2026-03-17_14h07.27.671,kallum_motion_pilot_GIST_update_2,2026.1.1,Win32,74.62686567,641384b3dffcf39ec42d3c23,69b95efdef24cd8a694e89ee,69b96011d3eac86b7e9fe07e,0.0563,0.0563,0,104,104,82,1,sixfive,,,,,,,,,,,,,,,,,,,,,,,,,,,,,,,,,,,,,,,,,,,,,,,,,,,,,,,,,,,,,,,,,,,,,,,,,,,,,,,,,,,,,,,,,,,,,,,,,,,,,,,,,,,,,,,,,,,,,,,,,,,,,,,,,,,,,,,,,
,,641384b3dffcf39ec42d3c23,2026-03-17_14h07.27.671,kallum_motion_pilot_GIST_update_2,2026.1.1,Win32,74.62686567,641384b3dffcf39ec42d3c23,69b95efdef24cd8a694e89ee,69b96011d3eac86b7e9fe07e,0.0565,0.0565,0,105,105,6,1,fourtwo,,,,,,,,,,,,,,,,,,,,,,,,,,,,,,,,,,,,,,,,,,,,,,,,,,,,,,,,,,,,,,,,,,,,,,,,,,,,,,,,,,,,,,,,,,,,,,,,,,,,,,,,,,,,,,,,,,,,,,,,,,,,,,,,,,,,,,,,,
,,641384b3dffcf39ec42d3c23,2026-03-17_14h07.27.671,kallum_motion_pilot_GIST_update_2,2026.1.1,Win32,74.62686567,641384b3dffcf39ec42d3c23,69b95efdef24cd8a694e89ee,69b96011d3eac86b7e9fe07e,0.0567,0.0567,0,106,106,93,1,seveneight,,,,,,,,,,,,,,,,,,,,,,,,,,,,,,,,,,,,,,,,,,,,,,,,,,,,,,,,,,,,,,,,,,,,,,,,,,,,,,,,,,,,,,,,,,,,,,,,,,,,,,,,,,,,,,,,,,,,,,,,,,,,,,,,,,,,,,,,,
,,641384b3dffcf39ec42d3c23,2026-03-17_14h07.27.671,kallum_motion_pilot_GIST_update_2,2026.1.1,Win32,74.62686567,641384b3dffcf39ec42d3c23,69b95efdef24cd8a694e89ee,69b96011d3eac86b7e9fe07e,0.0568,0.0568,0,107,107,157,1,seveneight,,,,,,,,,,,,,,,,,,,,,,,,,,,,,,,,,,,,,,,,,,,,,,,,,,,,,,,,,,,,,,,,,,,,,,,,,,,,,,,,,,,,,,,,,,,,,,,,,,,,,,,,,,,,,,,,,,,,,,,,,,,,,,,,,,,,,,,,,
,,641384b3dffcf39ec42d3c23,2026-03-17_14h07.27.671,kallum_motion_pilot_GIST_update_2,2026.1.1,Win32,74.62686567,641384b3dffcf39ec42d3c23,69b95efdef24cd8a694e89ee,69b96011d3eac86b7e9fe07e,0.057,0.0571,0,108,108,113,1,fiveseven,,,,,,,,,,,,,,,,,,,,,,,,,,,,,,,,,,,,,,,,,,,,,,,,,,,,,,,,,,,,,,,,,,,,,,,,,,,,,,,,,,,,,,,,,,,,,,,,,,,,,,,,,,,,,,,,,,,,,,,,,,,,,,,,,,,,,,,,,
,,641384b3dffcf39ec42d3c23,2026-03-17_14h07.27.671,kallum_motion_pilot_GIST_update_2,2026.1.1,Win32,74.62686567,641384b3dffcf39ec42d3c23,69b95efdef24cd8a694e89ee,69b96011d3eac86b7e9fe07e,0.0572,0.0573,0,109,109,73,1,onethree,,,,,,,,,,,,,,,,,,,,,,,,,,,,,,,,,,,,,,,,,,,,,,,,,,,,,,,,,,,,,,,,,,,,,,,,,,,,,,,,,,,,,,,,,,,,,,,,,,,,,,,,,,,,,,,,,,,,,,,,,,,,,,,,,,,,,,,,,
,,641384b3dffcf39ec42d3c23,2026-03-17_14h07.27.671,kallum_motion_pilot_GIST_update_2,2026.1.1,Win32,74.62686567,641384b3dffcf39ec42d3c23,69b95efdef24cd8a694e89ee,69b96011d3eac86b7e9fe07e,0.0575,0.0575,0,110,110,138,1,sixfive,,,,,,,,,,,,,,,,,,,,,,,,,,,,,,,,,,,,,,,,,,,,,,,,,,,,,,,,,,,,,,,,,,,,,,,,,,,,,,,,,,,,,,,,,,,,,,,,,,,,,,,,,,,,,,,,,,,,,,,,,,,,,,,,,,,,,,,,,
,,641384b3dffcf39ec42d3c23,2026-03-17_14h07.27.671,kallum_motion_pilot_GIST_update_2,2026.1.1,Win32,74.62686567,641384b3dffcf39ec42d3c23,69b95efdef24cd8a694e89ee,69b96011d3eac86b7e9fe07e,0.0578,0.0578,0,111,111,131,1,sixeight,,,,,,,,,,,,,,,,,,,,,,,,,,,,,,,,,,,,,,,,,,,,,,,,,,,,,,,,,,,,,,,,,,,,,,,,,,,,,,,,,,,,,,,,,,,,,,,,,,,,,,,,,,,,,,,,,,,,,,,,,,,,,,,,,,,,,,,,,
,,641384b3dffcf39ec42d3c23,2026-03-17_14h07.27.671,kallum_motion_pilot_GIST_update_2,2026.1.1,Win32,74.62686567,641384b3dffcf39ec42d3c23,69b95efdef24cd8a694e89ee,69b96011d3eac86b7e9fe07e,0.058,0.058,0,112,112,74,1,twoone,,,,,,,,,,,,,,,,,,,,,,,,,,,,,,,,,,,,,,,,,,,,,,,,,,,,,,,,,,,,,,,,,,,,,,,,,,,,,,,,,,,,,,,,,,,,,,,,,,,,,,,,,,,,,,,,,,,,,,,,,,,,,,,,,,,,,,,,,
,,641384b3dffcf39ec42d3c23,2026-03-17_14h07.27.671,kallum_motion_pilot_GIST_update_2,2026.1.1,Win32,74.62686567,641384b3dffcf39ec42d3c23,69b95efdef24cd8a694e89ee,69b96011d3eac86b7e9fe07e,0.0583,0.0583,0,113,113,10,1,twoone,,,,,,,,,,,,,,,,,,,,,,,,,,,,,,,,,,,,,,,,,,,,,,,,,,,,,,,,,,,,,,,,,,,,,,,,,,,,,,,,,,,,,,,,,,,,,,,,,,,,,,,,,,,,,,,,,,,,,,,,,,,,,,,,,,,,,,,,,
,,641384b3dffcf39ec42d3c23,2026-03-17_14h07.27.671,kallum_motion_pilot_GIST_update_2,2026.1.1,Win32,74.62686567,641384b3dffcf39ec42d3c23,69b95efdef24cd8a694e89ee,69b96011d3eac86b7e9fe07e,0.0584,0.0584,0,114,114,122,1,sixfive,,,,,,,,,,,,,,,,,,,,,,,,,,,,,,,,,,,,,,,,,,,,,,,,,,,,,,,,,,,,,,,,,,,,,,,,,,,,,,,,,,,,,,,,,,,,,,,,,,,,,,,,,,,,,,,,,,,,,,,,,,,,,,,,,,,,,,,,,
,,641384b3dffcf39ec42d3c23,2026-03-17_14h07.27.671,kallum_motion_pilot_GIST_update_2,2026.1.1,Win32,74.62686567,641384b3dffcf39ec42d3c23,69b95efdef24cd8a694e89ee,69b96011d3eac86b7e9fe07e,0.0586,0.0586,0,115,115,40,1,onetwo,,,,,,,,,,,,,,,,,,,,,,,,,,,,,,,,,,,,,,,,,,,,,,,,,,,,,,,,,,,,,,,,,,,,,,,,,,,,,,,,,,,,,,,,,,,,,,,,,,,,,,,,,,,,,,,,,,,,,,,,,,,,,,,,,,,,,,,,,
,,641384b3dffcf39ec42d3c23,2026-03-17_14h07.27.671,kallum_motion_pilot_GIST_update_2,2026.1.1,Win32,74.62686567,641384b3dffcf39ec42d3c23,69b95efdef24cd8a694e89ee,69b96011d3eac86b7e9fe07e,0.0588,0.0588,0,116,116,123,1,sixeight,,,,,,,,,,,,,,,,,,,,,,,,,,,,,,,,,,,,,,,,,,,,,,,,,,,,,,,,,,,,,,,,,,,,,,,,,,,,,,,,,,,,,,,,,,,,,,,,,,,,,,,,,,,,,,,,,,,,,,,,,,,,,,,,,,,,,,,,,
,,641384b3dffcf39ec42d3c23,2026-03-17_14h07.27.671,kallum_motion_pilot_GIST_update_2,2026.1.1,Win32,74.62686567,641384b3dffcf39ec42d3c23,69b95efdef24cd8a694e89ee,69b96011d3eac86b7e9fe07e,0.0589,0.0589,0,117,117,56,1,onetwo,,,,,,,,,,,,,,,,,,,,,,,,,,,,,,,,,,,,,,,,,,,,,,,,,,,,,,,,,,,,,,,,,,,,,,,,,,,,,,,,,,,,,,,,,,,,,,,,,,,,,,,,,,,,,,,,,,,,,,,,,,,,,,,,,,,,,,,,,
,,641384b3dffcf39ec42d3c23,2026-03-17_14h07.27.671,kallum_motion_pilot_GIST_update_2,2026.1.1,Win32,74.62686567,641384b3dffcf39ec42d3c23,69b95efdef24cd8a694e89ee,69b96011d3eac86b7e9fe07e,0.0591,0.0591,0,118,118,146,1,sixfive,,,,,,,,,,,,,,,,,,,,,,,,,,,,,,,,,,,,,,,,,,,,,,,,,,,,,,,,,,,,,,,,,,,,,,,,,,,,,,,,,,,,,,,,,,,,,,,,,,,,,,,,,,,,,,,,,,,,,,,,,,,,,,,,,,,,,,,,,
,,641384b3dffcf39ec42d3c23,2026-03-17_14h07.27.671,kallum_motion_pilot_GIST_update_2,2026.1.1,Win32,74.62686567,641384b3dffcf39ec42d3c23,69b95efdef24cd8a694e89ee,69b96011d3eac86b7e9fe07e,0.0594,0.0594,0,119,119,95,1,eightseven,,,,,,,,,,,,,,,,,,,,,,,,,,,,,,,,,,,,,,,,,,,,,,,,,,,,,,,,,,,,,,,,,,,,,,,,,,,,,,,,,,,,,,,,,,,,,,,,,,,,,,,,,,,,,,,,,,,,,,,,,,,,,,,,,,,,,,,,,
,,641384b3dffcf39ec42d3c23,2026-03-17_14h07.27.671,kallum_motion_pilot_GIST_update_2,2026.1.1,Win32,74.62686567,641384b3dffcf39ec42d3c23,69b95efdef24cd8a694e89ee,69b96011d3eac86b7e9fe07e,0.0596,0.0596,0,120,120,54,1,fourtwo,,,,,,,,,,,,,,,,,,,,,,,,,,,,,,,,,,,,,,,,,,,,,,,,,,,,,,,,,,,,,,,,,,,,,,,,,,,,,,,,,,,,,,,,,,,,,,,,,,,,,,,,,,,,,,,,,,,,,,,,,,,,,,,,,,,,,,,,,
,,641384b3dffcf39ec42d3c23,2026-03-17_14h07.27.671,kallum_motion_pilot_GIST_update_2,2026.1.1,Win32,74.62686567,641384b3dffcf39ec42d3c23,69b95efdef24cd8a694e89ee,69b96011d3eac86b7e9fe07e,0.0599,0.0599,0,121,121,134,1,eightsix,,,,,,,,,,,,,,,,,,,,,,,,,,,,,,,,,,,,,,,,,,,,,,,,,,,,,,,,,,,,,,,,,,,,,,,,,,,,,,,,,,,,,,,,,,,,,,,,,,,,,,,,,,,,,,,,,,,,,,,,,,,,,,,,,,,,,,,,,
,,641384b3dffcf39ec42d3c23,2026-03-17_14h07.27.671,kallum_motion_pilot_GIST_update_2,2026.1.1,Win32,74.62686567,641384b3dffcf39ec42d3c23,69b95efdef24cd8a694e89ee,69b96011d3eac86b7e9fe07e,0.0602,0.0602,0,122,122,60,1,threeone,,,,,,,,,,,,,,,,,,,,,,,,,,,,,,,,,,,,,,,,,,,,,,,,,,,,,,,,,,,,,,,,,,,,,,,,,,,,,,,,,,,,,,,,,,,,,,,,,,,,,,,,,,,,,,,,,,,,,,,,,,,,,,,,,,,,,,,,,
,,641384b3dffcf39ec42d3c23,2026-03-17_14h07.27.671,kallum_motion_pilot_GIST_update_2,2026.1.1,Win32,74.62686567,641384b3dffcf39ec42d3c23,69b95efdef24cd8a694e89ee,69b96011d3eac86b7e9fe07e,0.0605,0.0605,0,123,123,57,1,onethree,,,,,,,,,,,,,,,,,,,,,,,,,,,,,,,,,,,,,,,,,,,,,,,,,,,,,,,,,,,,,,,,,,,,,,,,,,,,,,,,,,,,,,,,,,,,,,,,,,,,,,,,,,,,,,,,,,,,,,,,,,,,,,,,,,,,,,,,,
,,641384b3dffcf39ec42d3c23,2026-03-17_14h07.27.671,kallum_motion_pilot_GIST_update_2,2026.1.1,Win32,74.62686567,641384b3dffcf39ec42d3c23,69b95efdef24cd8a694e89ee,69b96011d3eac86b7e9fe07e,0.0607,0.0607,0,124,124,116,1,sevenfive,,,,,,,,,,,,,,,,,,,,,,,,,,,,,,,,,,,,,,,,,,,,,,,,,,,,,,,,,,,,,,,,,,,,,,,,,,,,,,,,,,,,,,,,,,,,,,,,,,,,,,,,,,,,,,,,,,,,,,,,,,,,,,,,,,,,,,,,,
,,641384b3dffcf39ec42d3c23,2026-03-17_14h07.27.671,kallum_motion_pilot_GIST_update_2,2026.1.1,Win32,74.62686567,641384b3dffcf39ec42d3c23,69b95efdef24cd8a694e89ee,69b96011d3eac86b7e9fe07e,0.0609,0.0609,0,125,125,101,1,seveneight,,,,,,,,,,,,,,,,,,,,,,,,,,,,,,,,,,,,,,,,,,,,,,,,,,,,,,,,,,,,,,,,,,,,,,,,,,,,,,,,,,,,,,,,,,,,,,,,,,,,,,,,,,,,,,,,,,,,,,,,,,,,,,,,,,,,,,,,,
,,641384b3dffcf39ec42d3c23,2026-03-17_14h07.27.671,kallum_motion_pilot_GIST_update_2,2026.1.1,Win32,74.62686567,641384b3dffcf39ec42d3c23,69b95efdef24cd8a694e89ee,69b96011d3eac86b7e9fe07e,0.0611,0.0611,0,126,126,89,1,fiveseven,,,,,,,,,,,,,,,,,,,,,,,,,,,,,,,,,,,,,,,,,,,,,,,,,,,,,,,,,,,,,,,,,,,,,,,,,,,,,,,,,,,,,,,,,,,,,,,,,,,,,,,,,,,,,,,,,,,,,,,,,,,,,,,,,,,,,,,,,
,,641384b3dffcf39ec42d3c23,2026-03-17_14h07.27.671,kallum_motion_pilot_GIST_update_2,2026.1.1,Win32,74.62686567,641384b3dffcf39ec42d3c23,69b95efdef24cd8a694e89ee,69b96011d3eac86b7e9fe07e,0.0613,0.0614,0,127,127,23,1,fourthree,,,,,,,,,,,,,,,,,,,,,,,,,,,,,,,,,,,,,,,,,,,,,,,,,,,,,,,,,,,,,,,,,,,,,,,,,,,,,,,,,,,,,,,,,,,,,,,,,,,,,,,,,,,,,,,,,,,,,,,,,,,,,,,,,,,,,,,,,
,,641384b3dffcf39ec42d3c23,2026-03-17_14h07.27.671,kallum_motion_pilot_GIST_update_2,2026.1.1,Win32,74.62686567,641384b3dffcf39ec42d3c23,69b95efdef24cd8a694e89ee,69b96011d3eac86b7e9fe07e,0.0615,0.0615,0,128,128,141,1,seveneight,,,,,,,,,,,,,,,,,,,,,,,,,,,,,,,,,,,,,,,,,,,,,,,,,,,,,,,,,,,,,,,,,,,,,,,,,,,,,,,,,,,,,,,,,,,,,,,,,,,,,,,,,,,,,,,,,,,,,,,,,,,,,,,,,,,,,,,,,
,,641384b3dffcf39ec42d3c23,2026-03-17_14h07.27.671,kallum_motion_pilot_GIST_update_2,2026.1.1,Win32,74.62686567,641384b3dffcf39ec42d3c23,69b95efdef24cd8a694e89ee,69b96011d3eac86b7e9fe07e,0.0617,0.0617,0,129,129,143,1,eightseven,,,,,,,,,,,,,,,,,,,,,,,,,,,,,,,,,,,,,,,,,,,,,,,,,,,,,,,,,,,,,,,,,,,,,,,,,,,,,,,,,,,,,,,,,,,,,,,,,,,,,,,,,,,,,,,,,,,,,,,,,,,,,,,,,,,,,,,,,
,,641384b3dffcf39ec42d3c23,2026-03-17_14h07.27.671,kallum_motion_pilot_GIST_update_2,2026.1.1,Win32,74.62686567,641384b3dffcf39ec42d3c23,69b95efdef24cd8a694e89ee,69b96011d3eac86b7e9fe07e,0.0619,0.0619,0,130,130,154,1,sixfive,,,,,,,,,,,,,,,,,,,,,,,,,,,,,,,,,,,,,,,,,,,,,,,,,,,,,,,,,,,,,,,,,,,,,,,,,,,,,,,,,,,,,,,,,,,,,,,,,,,,,,,,,,,,,,,,,,,,,,,,,,,,,,,,,,,,,,,,,
,,641384b3dffcf39ec42d3c23,2026-03-17_14h07.27.671,kallum_motion_pilot_GIST_update_2,2026.1.1,Win32,74.62686567,641384b3dffcf39ec42d3c23,69b95efdef24cd8a694e89ee,69b96011d3eac86b7e9fe07e,0.0621,0.0621,0,131,131,98,1,sixfive,,,,,,,,,,,,,,,,,,,,,,,,,,,,,,,,,,,,,,,,,,,,,,,,,,,,,,,,,,,,,,,,,,,,,,,,,,,,,,,,,,,,,,,,,,,,,,,,,,,,,,,,,,,,,,,,,,,,,,,,,,,,,,,,,,,,,,,,,
,,641384b3dffcf39ec42d3c23,2026-03-17_14h07.27.671,kallum_motion_pilot_GIST_update_2,2026.1.1,Win32,74.62686567,641384b3dffcf39ec42d3c23,69b95efdef24cd8a694e89ee,69b96011d3eac86b7e9fe07e,0.0623,0.0623,0,132,132,109,1,seveneight,,,,,,,,,,,,,,,,,,,,,,,,,,,,,,,,,,,,,,,,,,,,,,,,,,,,,,,,,,,,,,,,,,,,,,,,,,,,,,,,,,,,,,,,,,,,,,,,,,,,,,,,,,,,,,,,,,,,,,,,,,,,,,,,,,,,,,,,,
,,641384b3dffcf39ec42d3c23,2026-03-17_14h07.27.671,kallum_motion_pilot_GIST_update_2,2026.1.1,Win32,74.62686567,641384b3dffcf39ec42d3c23,69b95efdef24cd8a694e89ee,69b96011d3eac86b7e9fe07e,0.0625,0.0625,0,133,133,19,1,twofour,,,,,,,,,,,,,,,,,,,,,,,,,,,,,,,,,,,,,,,,,,,,,,,,,,,,,,,,,,,,,,,,,,,,,,,,,,,,,,,,,,,,,,,,,,,,,,,,,,,,,,,,,,,,,,,,,,,,,,,,,,,,,,,,,,,,,,,,,
,,641384b3dffcf39ec42d3c23,2026-03-17_14h07.27.671,kallum_motion_pilot_GIST_update_2,2026.1.1,Win32,74.62686567,641384b3dffcf39ec42d3c23,69b95efdef24cd8a694e89ee,69b96011d3eac86b7e9fe07e,0.0627,0.0627,0,134,134,71,1,fourthree,,,,,,,,,,,,,,,,,,,,,,,,,,,,,,,,,,,,,,,,,,,,,,,,,,,,,,,,,,,,,,,,,,,,,,,,,,,,,,,,,,,,,,,,,,,,,,,,,,,,,,,,,,,,,,,,,,,,,,,,,,,,,,,,,,,,,,,,,
,,641384b3dffcf39ec42d3c23,2026-03-17_14h07.27.671,kallum_motion_pilot_GIST_update_2,2026.1.1,Win32,74.62686567,641384b3dffcf39ec42d3c23,69b95efdef24cd8a694e89ee,69b96011d3eac86b7e9fe07e,0.0631,0.0631,0,135,135,155,1,sixeight,,,,,,,,,,,,,,,,,,,,,,,,,,,,,,,,,,,,,,,,,,,,,,,,,,,,,,,,,,,,,,,,,,,,,,,,,,,,,,,,,,,,,,,,,,,,,,,,,,,,,,,,,,,,,,,,,,,,,,,,,,,,,,,,,,,,,,,,,
,,641384b3dffcf39ec42d3c23,2026-03-17_14h07.27.671,kallum_motion_pilot_GIST_update_2,2026.1.1,Win32,74.62686567,641384b3dffcf39ec42d3c23,69b95efdef24cd8a694e89ee,69b96011d3eac86b7e9fe07e,0.0636,0.0637,0,136,136,51,1,twofour,,,,,,,,,,,,,,,,,,,,,,,,,,,,,,,,,,,,,,,,,,,,,,,,,,,,,,,,,,,,,,,,,,,,,,,,,,,,,,,,,,,,,,,,,,,,,,,,,,,,,,,,,,,,,,,,,,,,,,,,,,,,,,,,,,,,,,,,,
,,641384b3dffcf39ec42d3c23,2026-03-17_14h07.27.671,kallum_motion_pilot_GIST_update_2,2026.1.1,Win32,74.62686567,641384b3dffcf39ec42d3c23,69b95efdef24cd8a694e89ee,69b96011d3eac86b7e9fe07e,0.064,0.064,0,137,137,99,1,sixeight,,,,,,,,,,,,,,,,,,,,,,,,,,,,,,,,,,,,,,,,,,,,,,,,,,,,,,,,,,,,,,,,,,,,,,,,,,,,,,,,,,,,,,,,,,,,,,,,,,,,,,,,,,,,,,,,,,,,,,,,,,,,,,,,,,,,,,,,,
,,641384b3dffcf39ec42d3c23,2026-03-17_14h07.27.671,kallum_motion_pilot_GIST_update_2,2026.1.1,Win32,74.62686567,641384b3dffcf39ec42d3c23,69b95efdef24cd8a694e89ee,69b96011d3eac86b7e9fe07e,0.0643,0.0643,0,138,138,70,1,fourtwo,,,,,,,,,,,,,,,,,,,,,,,,,,,,,,,,,,,,,,,,,,,,,,,,,,,,,,,,,,,,,,,,,,,,,,,,,,,,,,,,,,,,,,,,,,,,,,,,,,,,,,,,,,,,,,,,,,,,,,,,,,,,,,,,,,,,,,,,,
,,641384b3dffcf39ec42d3c23,2026-03-17_14h07.27.671,kallum_motion_pilot_GIST_update_2,2026.1.1,Win32,74.62686567,641384b3dffcf39ec42d3c23,69b95efdef24cd8a694e89ee,69b96011d3eac86b7e9fe07e,0.0646,0.0646,0,139,139,158,1,eightsix,,,,,,,,,,,,,,,,,,,,,,,,,,,,,,,,,,,,,,,,,,,,,,,,,,,,,,,,,,,,,,,,,,,,,,,,,,,,,,,,,,,,,,,,,,,,,,,,,,,,,,,,,,,,,,,,,,,,,,,,,,,,,,,,,,,,,,,,,
,,641384b3dffcf39ec42d3c23,2026-03-17_14h07.27.671,kallum_motion_pilot_GIST_update_2,2026.1.1,Win32,74.62686567,641384b3dffcf39ec42d3c23,69b95efdef24cd8a694e89ee,69b96011d3eac86b7e9fe07e,0.0648,0.0648,0,140,140,9,1,onethree,,,,,,,,,,,,,,,,,,,,,,,,,,,,,,,,,,,,,,,,,,,,,,,,,,,,,,,,,,,,,,,,,,,,,,,,,,,,,,,,,,,,,,,,,,,,,,,,,,,,,,,,,,,,,,,,,,,,,,,,,,,,,,,,,,,,,,,,,
,,641384b3dffcf39ec42d3c23,2026-03-17_14h07.27.671,kallum_motion_pilot_GIST_update_2,2026.1.1,Win32,74.62686567,641384b3dffcf39ec42d3c23,69b95efdef24cd8a694e89ee,69b96011d3eac86b7e9fe07e,0.065,0.0651,0,141,141,63,1,fourthree,,,,,,,,,,,,,,,,,,,,,,,,,,,,,,,,,,,,,,,,,,,,,,,,,,,,,,,,,,,,,,,,,,,,,,,,,,,,,,,,,,,,,,,,,,,,,,,,,,,,,,,,,,,,,,,,,,,,,,,,,,,,,,,,,,,,,,,,,
,,641384b3dffcf39ec42d3c23,2026-03-17_14h07.27.671,kallum_motion_pilot_GIST_update_2,2026.1.1,Win32,74.62686567,641384b3dffcf39ec42d3c23,69b95efdef24cd8a694e89ee,69b96011d3eac86b7e9fe07e,0.0653,0.0653,0,142,142,145,1,fiveseven,,,,,,,,,,,,,,,,,,,,,,,,,,,,,,,,,,,,,,,,,,,,,,,,,,,,,,,,,,,,,,,,,,,,,,,,,,,,,,,,,,,,,,,,,,,,,,,,,,,,,,,,,,,,,,,,,,,,,,,,,,,,,,,,,,,,,,,,,
,,641384b3dffcf39ec42d3c23,2026-03-17_14h07.27.671,kallum_motion_pilot_GIST_update_2,2026.1.1,Win32,74.62686567,641384b3dffcf39ec42d3c23,69b95efdef24cd8a694e89ee,69b96011d3eac86b7e9fe07e,0.0654,0.0654,0,143,143,105,1,fiveseven,,,,,,,,,,,,,,,,,,,,,,,,,,,,,,,,,,,,,,,,,,,,,,,,,,,,,,,,,,,,,,,,,,,,,,,,,,,,,,,,,,,,,,,,,,,,,,,,,,,,,,,,,,,,,,,,,,,,,,,,,,,,,,,,,,,,,,,,,
,,641384b3dffcf39ec42d3c23,2026-03-17_14h07.27.671,kallum_motion_pilot_GIST_update_2,2026.1.1,Win32,74.62686567,641384b3dffcf39ec42d3c23,69b95efdef24cd8a694e89ee,69b96011d3eac86b7e9fe07e,0.0656,0.0656,0,144,144,17,1,onethree,,,,,,,,,,,,,,,,,,,,,,,,,,,,,,,,,,,,,,,,,,,,,,,,,,,,,,,,,,,,,,,,,,,,,,,,,,,,,,,,,,,,,,,,,,,,,,,,,,,,,,,,,,,,,,,,,,,,,,,,,,,,,,,,,,,,,,,,,
,,641384b3dffcf39ec42d3c23,2026-03-17_14h07.27.671,kallum_motion_pilot_GIST_update_2,2026.1.1,Win32,74.62686567,641384b3dffcf39ec42d3c23,69b95efdef24cd8a694e89ee,69b96011d3eac86b7e9fe07e,0.0658,0.0658,0,145,145,68,1,threeone,,,,,,,,,,,,,,,,,,,,,,,,,,,,,,,,,,,,,,,,,,,,,,,,,,,,,,,,,,,,,,,,,,,,,,,,,,,,,,,,,,,,,,,,,,,,,,,,,,,,,,,,,,,,,,,,,,,,,,,,,,,,,,,,,,,,,,,,,
,,641384b3dffcf39ec42d3c23,2026-03-17_14h07.27.671,kallum_motion_pilot_GIST_update_2,2026.1.1,Win32,74.62686567,641384b3dffcf39ec42d3c23,69b95efdef24cd8a694e89ee,69b96011d3eac86b7e9fe07e,0.0661,0.0661,0,146,146,32,1,onetwo,,,,,,,,,,,,,,,,,,,,,,,,,,,,,,,,,,,,,,,,,,,,,,,,,,,,,,,,,,,,,,,,,,,,,,,,,,,,,,,,,,,,,,,,,,,,,,,,,,,,,,,,,,,,,,,,,,,,,,,,,,,,,,,,,,,,,,,,,
,,641384b3dffcf39ec42d3c23,2026-03-17_14h07.27.671,kallum_motion_pilot_GIST_update_2,2026.1.1,Win32,74.62686567,641384b3dffcf39ec42d3c23,69b95efdef24cd8a694e89ee,69b96011d3eac86b7e9fe07e,0.0664,0.0664,0,147,147,2,1,twoone,,,,,,,,,,,,,,,,,,,,,,,,,,,,,,,,,,,,,,,,,,,,,,,,,,,,,,,,,,,,,,,,,,,,,,,,,,,,,,,,,,,,,,,,,,,,,,,,,,,,,,,,,,,,,,,,,,,,,,,,,,,,,,,,,,,,,,,,,
,,641384b3dffcf39ec42d3c23,2026-03-17_14h07.27.671,kallum_motion_pilot_GIST_update_2,2026.1.1,Win32,74.62686567,641384b3dffcf39ec42d3c23,69b95efdef24cd8a694e89ee,69b96011d3eac86b7e9fe07e,0.0667,0.0667,0,148,148,25,1,onethree,,,,,,,,,,,,,,,,,,,,,,,,,,,,,,,,,,,,,,,,,,,,,,,,,,,,,,,,,,,,,,,,,,,,,,,,,,,,,,,,,,,,,,,,,,,,,,,,,,,,,,,,,,,,,,,,,,,,,,,,,,,,,,,,,,,,,,,,,
,,641384b3dffcf39ec42d3c23,2026-03-17_14h07.27.671,kallum_motion_pilot_GIST_update_2,2026.1.1,Win32,74.62686567,641384b3dffcf39ec42d3c23,69b95efdef24cd8a694e89ee,69b96011d3eac86b7e9fe07e,0.0671,0.0671,0,149,149,148,1,sevenfive,,,,,,,,,,,,,,,,,,,,,,,,,,,,,,,,,,,,,,,,,,,,,,,,,,,,,,,,,,,,,,,,,,,,,,,,,,,,,,,,,,,,,,,,,,,,,,,,,,,,,,,,,,,,,,,,,,,,,,,,,,,,,,,,,,,,,,,,,
,,641384b3dffcf39ec42d3c23,2026-03-17_14h07.27.671,kallum_motion_pilot_GIST_update_2,2026.1.1,Win32,74.62686567,641384b3dffcf39ec42d3c23,69b95efdef24cd8a694e89ee,69b96011d3eac86b7e9fe07e,0.0675,0.0675,0,150,150,52,1,threeone,,,,,,,,,,,,,,,,,,,,,,,,,,,,,,,,,,,,,,,,,,,,,,,,,,,,,,,,,,,,,,,,,,,,,,,,,,,,,,,,,,,,,,,,,,,,,,,,,,,,,,,,,,,,,,,,,,,,,,,,,,,,,,,,,,,,,,,,,
,,641384b3dffcf39ec42d3c23,2026-03-17_14h07.27.671,kallum_motion_pilot_GIST_update_2,2026.1.1,Win32,74.62686567,641384b3dffcf39ec42d3c23,69b95efdef24cd8a694e89ee,69b96011d3eac86b7e9fe07e,0.0678,0.0678,0,151,151,62,1,fourtwo,,,,,,,,,,,,,,,,,,,,,,,,,,,,,,,,,,,,,,,,,,,,,,,,,,,,,,,,,,,,,,,,,,,,,,,,,,,,,,,,,,,,,,,,,,,,,,,,,,,,,,,,,,,,,,,,,,,,,,,,,,,,,,,,,,,,,,,,,
,,641384b3dffcf39ec42d3c23,2026-03-17_14h07.27.671,kallum_motion_pilot_GIST_update_2,2026.1.1,Win32,74.62686567,641384b3dffcf39ec42d3c23,69b95efdef24cd8a694e89ee,69b96011d3eac86b7e9fe07e,0.0681,0.0681,0,152,152,67,1,twofour,,,,,,,,,,,,,,,,,,,,,,,,,,,,,,,,,,,,,,,,,,,,,,,,,,,,,,,,,,,,,,,,,,,,,,,,,,,,,,,,,,,,,,,,,,,,,,,,,,,,,,,,,,,,,,,,,,,,,,,,,,,,,,,,,,,,,,,,,
,,641384b3dffcf39ec42d3c23,2026-03-17_14h07.27.671,kallum_motion_pilot_GIST_update_2,2026.1.1,Win32,74.62686567,641384b3dffcf39ec42d3c23,69b95efdef24cd8a694e89ee,69b96011d3eac86b7e9fe07e,0.0685,0.0685,0,153,153,152,1,fivesix,,,,,,,,,,,,,,,,,,,,,,,,,,,,,,,,,,,,,,,,,,,,,,,,,,,,,,,,,,,,,,,,,,,,,,,,,,,,,,,,,,,,,,,,,,,,,,,,,,,,,,,,,,,,,,,,,,,,,,,,,,,,,,,,,,,,,,,,,
,,641384b3dffcf39ec42d3c23,2026-03-17_14h07.27.671,kallum_motion_pilot_GIST_update_2,2026.1.1,Win32,74.62686567,641384b3dffcf39ec42d3c23,69b95efdef24cd8a694e89ee,69b96011d3eac86b7e9fe07e,0.0687,0.0688,0,154,154,53,1,threefour,,,,,,,,,,,,,,,,,,,,,,,,,,,,,,,,,,,,,,,,,,,,,,,,,,,,,,,,,,,,,,,,,,,,,,,,,,,,,,,,,,,,,,,,,,,,,,,,,,,,,,,,,,,,,,,,,,,,,,,,,,,,,,,,,,,,,,,,,
,,641384b3dffcf39ec42d3c23,2026-03-17_14h07.27.671,kallum_motion_pilot_GIST_update_2,2026.1.1,Win32,74.62686567,641384b3dffcf39ec42d3c23,69b95efdef24cd8a694e89ee,69b96011d3eac86b7e9fe07e,0.0691,0.0691,0,155,155,111,1,eightseven,,,,,,,,,,,,,,,,,,,,,,,,,,,,,,,,,,,,,,,,,,,,,,,,,,,,,,,,,,,,,,,,,,,,,,,,,,,,,,,,,,,,,,,,,,,,,,,,,,,,,,,,,,,,,,,,,,,,,,,,,,,,,,,,,,,,,,,,,
,,641384b3dffcf39ec42d3c23,2026-03-17_14h07.27.671,kallum_motion_pilot_GIST_update_2,2026.1.1,Win32,74.62686567,641384b3dffcf39ec42d3c23,69b95efdef24cd8a694e89ee,69b96011d3eac86b7e9fe07e,0.0694,0.0694,0,156,156,13,1,threefour,,,,,,,,,,,,,,,,,,,,,,,,,,,,,,,,,,,,,,,,,,,,,,,,,,,,,,,,,,,,,,,,,,,,,,,,,,,,,,,,,,,,,,,,,,,,,,,,,,,,,,,,,,,,,,,,,,,,,,,,,,,,,,,,,,,,,,,,,
,,641384b3dffcf39ec42d3c23,2026-03-17_14h07.27.671,kallum_motion_pilot_GIST_update_2,2026.1.1,Win32,74.62686567,641384b3dffcf39ec42d3c23,69b95efdef24cd8a694e89ee,69b96011d3eac86b7e9fe07e,0.0697,0.0697,0,157,157,31,1,fourthree,,,,,,,,,,,,,,,,,,,,,,,,,,,,,,,,,,,,,,,,,,,,,,,,,,,,,,,,,,,,,,,,,,,,,,,,,,,,,,,,,,,,,,,,,,,,,,,,,,,,,,,,,,,,,,,,,,,,,,,,,,,,,,,,,,,,,,,,,
,,641384b3dffcf39ec42d3c23,2026-03-17_14h07.27.671,kallum_motion_pilot_GIST_update_2,2026.1.1,Win32,74.62686567,641384b3dffcf39ec42d3c23,69b95efdef24cd8a694e89ee,69b96011d3eac86b7e9fe07e,0.0699,0.0699,0,158,158,90,1,sixfive,,,,,,,,,,,,,,,,,,,,,,,,,,,,,,,,,,,,,,,,,,,,,,,,,,,,,,,,,,,,,,,,,,,,,,,,,,,,,,,,,,,,,,,,,,,,,,,,,,,,,,,,,,,,,,,,,,,,,,,,,,,,,,,,,,,,,,,,,
,,641384b3dffcf39ec42d3c23,2026-03-17_14h07.27.671,kallum_motion_pilot_GIST_update_2,2026.1.1,Win32,74.62686567,641384b3dffcf39ec42d3c23,69b95efdef24cd8a694e89ee,69b96011d3eac86b7e9fe07e,0.0701,0.0701,0,159,159,110,1,eightsix,,,,,,,,,,,,,,,,,,,,,,,,,,,,,,,,,,,,,,,,,,,,,,,,,,,,,,,,,,,,,,,,,,,,,,,,,,,,,,,,,,,,,,,,,,,,,,,,,,,,,,,,,,,,,,,,,,,,,,,,,,,,,,,,,,,,,,,,,
,,641384b3dffcf39ec42d3c23,2026-03-17_14h07.27.671,kallum_motion_pilot_GIST_update_2,2026.1.1,Win32,74.62686567,641384b3dffcf39ec42d3c23,69b95efdef24cd8a694e89ee,69b96011d3eac86b7e9fe07e,0.0704,0.0704,0,160,160,50,1,twoone,,,,,,,,,,,,,,,,,,,,,,,,,,,,,,,,,,,,,,,,,,,,,,,,,,,,,,,,,,,,,,,,,,,,,,,,,,,,,,,,,,,,,,,,,,,,,,,,,,,,,,,,,,,,,,,,,,,,,,,,,,,,,,,,,,,,,,,,,
,,641384b3dffcf39ec42d3c23,2026-03-17_14h07.27.671,kallum_motion_pilot_GIST_update_2,2026.1.1,Win32,74.62686567,641384b3dffcf39ec42d3c23,69b95efdef24cd8a694e89ee,69b96011d3eac86b7e9fe07e,0.0707,0.0707,0,161,161,92,1,sevenfive,,,,,,,,,,,,,,,,,,,,,,,,,,,,,,,,,,,,,,,,,,,,,,,,,,,,,,,,,,,,,,,,,,,,,,,,,,,,,,,,,,,,,,,,,,,,,,,,,,,,,,,,,,,,,,,,,,,,,,,,,,,,,,,,,,,,,,,,,
,,641384b3dffcf39ec42d3c23,2026-03-17_14h07.27.671,kallum_motion_pilot_GIST_update_2,2026.1.1,Win32,74.62686567,641384b3dffcf39ec42d3c23,69b95efdef24cd8a694e89ee,69b96011d3eac86b7e9fe07e,0.0709,0.0709,1,0,162,3,1,twofour,,,,,,,,,,,,,,,,,,,,,,,,,,,,,,,,,,,,,,,,,,,,,,,,,,,,,,,,,,,,,,,,,,,,,,,,,,,,,,,,,,,,,,,,,,,,,,,,,,,,,,,,,,,,,,,,,,,,,,,,,,,,,,,,,,,,,,,,,
,,641384b3dffcf39ec42d3c23,2026-03-17_14h07.27.671,kallum_motion_pilot_GIST_update_2,2026.1.1,Win32,74.62686567,641384b3dffcf39ec42d3c23,69b95efdef24cd8a694e89ee,69b96011d3eac86b7e9fe07e,0.0712,0.0713,1,1,163,50,1,twoone,,,,,,,,,,,,,,,,,,,,,,,,,,,,,,,,,,,,,,,,,,,,,,,,,,,,,,,,,,,,,,,,,,,,,,,,,,,,,,,,,,,,,,,,,,,,,,,,,,,,,,,,,,,,,,,,,,,,,,,,,,,,,,,,,,,,,,,,,
,,641384b3dffcf39ec42d3c23,2026-03-17_14h07.27.671,kallum_motion_pilot_GIST_update_2,2026.1.1,Win32,74.62686567,641384b3dffcf39ec42d3c23,69b95efdef24cd8a694e89ee,69b96011d3eac86b7e9fe07e,0.0715,0.0715,1,2,164,11,1,twofour,,,,,,,,,,,,,,,,,,,,,,,,,,,,,,,,,,,,,,,,,,,,,,,,,,,,,,,,,,,,,,,,,,,,,,,,,,,,,,,,,,,,,,,,,,,,,,,,,,,,,,,,,,,,,,,,,,,,,,,,,,,,,,,,,,,,,,,,,
,,641384b3dffcf39ec42d3c23,2026-03-17_14h07.27.671,kallum_motion_pilot_GIST_update_2,2026.1.1,Win32,74.62686567,641384b3dffcf39ec42d3c23,69b95efdef24cd8a694e89ee,69b96011d3eac86b7e9fe07e,0.0717,0.0718,1,3,165,4,1,threeone,,,,,,,,,,,,,,,,,,,,,,,,,,,,,,,,,,,,,,,,,,,,,,,,,,,,,,,,,,,,,,,,,,,,,,,,,,,,,,,,,,,,,,,,,,,,,,,,,,,,,,,,,,,,,,,,,,,,,,,,,,,,,,,,,,,,,,,,,
,,641384b3dffcf39ec42d3c23,2026-03-17_14h07.27.671,kallum_motion_pilot_GIST_update_2,2026.1.1,Win32,74.62686567,641384b3dffcf39ec42d3c23,69b95efdef24cd8a694e89ee,69b96011d3eac86b7e9fe07e,0.072,0.072,1,4,166,135,1,eightseven,,,,,,,,,,,,,,,,,,,,,,,,,,,,,,,,,,,,,,,,,,,,,,,,,,,,,,,,,,,,,,,,,,,,,,,,,,,,,,,,,,,,,,,,,,,,,,,,,,,,,,,,,,,,,,,,,,,,,,,,,,,,,,,,,,,,,,,,,
,,641384b3dffcf39ec42d3c23,2026-03-17_14h07.27.671,kallum_motion_pilot_GIST_update_2,2026.1.1,Win32,74.62686567,641384b3dffcf39ec42d3c23,69b95efdef24cd8a694e89ee,69b96011d3eac86b7e9fe07e,0.0724,0.0724,1,5,167,67,1,twofour,,,,,,,,,,,,,,,,,,,,,,,,,,,,,,,,,,,,,,,,,,,,,,,,,,,,,,,,,,,,,,,,,,,,,,,,,,,,,,,,,,,,,,,,,,,,,,,,,,,,,,,,,,,,,,,,,,,,,,,,,,,,,,,,,,,,,,,,,
,,641384b3dffcf39ec42d3c23,2026-03-17_14h07.27.671,kallum_motion_pilot_GIST_update_2,2026.1.1,Win32,74.62686567,641384b3dffcf39ec42d3c23,69b95efdef24cd8a694e89ee,69b96011d3eac86b7e9fe07e,0.0726,0.0726,1,6,168,106,1,sixfive,,,,,,,,,,,,,,,,,,,,,,,,,,,,,,,,,,,,,,,,,,,,,,,,,,,,,,,,,,,,,,,,,,,,,,,,,,,,,,,,,,,,,,,,,,,,,,,,,,,,,,,,,,,,,,,,,,,,,,,,,,,,,,,,,,,,,,,,,
,,641384b3dffcf39ec42d3c23,2026-03-17_14h07.27.671,kallum_motion_pilot_GIST_update_2,2026.1.1,Win32,74.62686567,641384b3dffcf39ec42d3c23,69b95efdef24cd8a694e89ee,69b96011d3eac86b7e9fe07e,0.0729,0.0729,1,7,169,82,1,sixfive,,,,,,,,,,,,,,,,,,,,,,,,,,,,,,,,,,,,,,,,,,,,,,,,,,,,,,,,,,,,,,,,,,,,,,,,,,,,,,,,,,,,,,,,,,,,,,,,,,,,,,,,,,,,,,,,,,,,,,,,,,,,,,,,,,,,,,,,,
,,641384b3dffcf39ec42d3c23,2026-03-17_14h07.27.671,kallum_motion_pilot_GIST_update_2,2026.1.1,Win32,74.62686567,641384b3dffcf39ec42d3c23,69b95efdef24cd8a694e89ee,69b96011d3eac86b7e9fe07e,0.0731,0.0731,1,8,170,41,1,onethree,,,,,,,,,,,,,,,,,,,,,,,,,,,,,,,,,,,,,,,,,,,,,,,,,,,,,,,,,,,,,,,,,,,,,,,,,,,,,,,,,,,,,,,,,,,,,,,,,,,,,,,,,,,,,,,,,,,,,,,,,,,,,,,,,,,,,,,,,
,,641384b3dffcf39ec42d3c23,2026-03-17_14h07.27.671,kallum_motion_pilot_GIST_update_2,2026.1.1,Win32,74.62686567,641384b3dffcf39ec42d3c23,69b95efdef24cd8a694e89ee,69b96011d3eac86b7e9fe07e,0.0734,0.0734,1,9,171,141,1,seveneight,,,,,,,,,,,,,,,,,,,,,,,,,,,,,,,,,,,,,,,,,,,,,,,,,,,,,,,,,,,,,,,,,,,,,,,,,,,,,,,,,,,,,,,,,,,,,,,,,,,,,,,,,,,,,,,,,,,,,,,,,,,,,,,,,,,,,,,,,
,,641384b3dffcf39ec42d3c23,2026-03-17_14h07.27.671,kallum_motion_pilot_GIST_update_2,2026.1.1,Win32,74.62686567,641384b3dffcf39ec42d3c23,69b95efdef24cd8a694e89ee,69b96011d3eac86b7e9fe07e,0.0737,0.0737,1,10,172,96,1,fivesix,,,,,,,,,,,,,,,,,,,,,,,,,,,,,,,,,,,,,,,,,,,,,,,,,,,,,,,,,,,,,,,,,,,,,,,,,,,,,,,,,,,,,,,,,,,,,,,,,,,,,,,,,,,,,,,,,,,,,,,,,,,,,,,,,,,,,,,,,
,,641384b3dffcf39ec42d3c23,2026-03-17_14h07.27.671,kallum_motion_pilot_GIST_update_2,2026.1.1,Win32,74.62686567,641384b3dffcf39ec42d3c23,69b95efdef24cd8a694e89ee,69b96011d3eac86b7e9fe07e,0.0739,0.0739,1,11,173,122,1,sixfive,,,,,,,,,,,,,,,,,,,,,,,,,,,,,,,,,,,,,,,,,,,,,,,,,,,,,,,,,,,,,,,,,,,,,,,,,,,,,,,,,,,,,,,,,,,,,,,,,,,,,,,,,,,,,,,,,,,,,,,,,,,,,,,,,,,,,,,,,
,,641384b3dffcf39ec42d3c23,2026-03-17_14h07.27.671,kallum_motion_pilot_GIST_update_2,2026.1.1,Win32,74.62686567,641384b3dffcf39ec42d3c23,69b95efdef24cd8a694e89ee,69b96011d3eac86b7e9fe07e,0.0742,0.0743,1,12,174,107,1,sixeight,,,,,,,,,,,,,,,,,,,,,,,,,,,,,,,,,,,,,,,,,,,,,,,,,,,,,,,,,,,,,,,,,,,,,,,,,,,,,,,,,,,,,,,,,,,,,,,,,,,,,,,,,,,,,,,,,,,,,,,,,,,,,,,,,,,,,,,,,
,,641384b3dffcf39ec42d3c23,2026-03-17_14h07.27.671,kallum_motion_pilot_GIST_update_2,2026.1.1,Win32,74.62686567,641384b3dffcf39ec42d3c23,69b95efdef24cd8a694e89ee,69b96011d3eac86b7e9fe07e,0.0745,0.0745,1,13,175,40,1,onetwo,,,,,,,,,,,,,,,,,,,,,,,,,,,,,,,,,,,,,,,,,,,,,,,,,,,,,,,,,,,,,,,,,,,,,,,,,,,,,,,,,,,,,,,,,,,,,,,,,,,,,,,,,,,,,,,,,,,,,,,,,,,,,,,,,,,,,,,,,
,,641384b3dffcf39ec42d3c23,2026-03-17_14h07.27.671,kallum_motion_pilot_GIST_update_2,2026.1.1,Win32,74.62686567,641384b3dffcf39ec42d3c23,69b95efdef24cd8a694e89ee,69b96011d3eac86b7e9fe07e,0.0747,0.0747,1,14,176,154,1,sixfive,,,,,,,,,,,,,,,,,,,,,,,,,,,,,,,,,,,,,,,,,,,,,,,,,,,,,,,,,,,,,,,,,,,,,,,,,,,,,,,,,,,,,,,,,,,,,,,,,,,,,,,,,,,,,,,,,,,,,,,,,,,,,,,,,,,,,,,,,
,,641384b3dffcf39ec42d3c23,2026-03-17_14h07.27.671,kallum_motion_pilot_GIST_update_2,2026.1.1,Win32,74.62686567,641384b3dffcf39ec42d3c23,69b95efdef24cd8a694e89ee,69b96011d3eac86b7e9fe07e,0.075,0.075,1,15,177,30,1,fourtwo,,,,,,,,,,,,,,,,,,,,,,,,,,,,,,,,,,,,,,,,,,,,,,,,,,,,,,,,,,,,,,,,,,,,,,,,,,,,,,,,,,,,,,,,,,,,,,,,,,,,,,,,,,,,,,,,,,,,,,,,,,,,,,,,,,,,,,,,,
,,641384b3dffcf39ec42d3c23,2026-03-17_14h07.27.671,kallum_motion_pilot_GIST_update_2,2026.1.1,Win32,74.62686567,641384b3dffcf39ec42d3c23,69b95efdef24cd8a694e89ee,69b96011d3eac86b7e9fe07e,0.0753,0.0753,1,16,178,37,1,threefour,,,,,,,,,,,,,,,,,,,,,,,,,,,,,,,,,,,,,,,,,,,,,,,,,,,,,,,,,,,,,,,,,,,,,,,,,,,,,,,,,,,,,,,,,,,,,,,,,,,,,,,,,,,,,,,,,,,,,,,,,,,,,,,,,,,,,,,,,
,,641384b3dffcf39ec42d3c23,2026-03-17_14h07.27.671,kallum_motion_pilot_GIST_update_2,2026.1.1,Win32,74.62686567,641384b3dffcf39ec42d3c23,69b95efdef24cd8a694e89ee,69b96011d3eac86b7e9fe07e,0.0755,0.0755,1,17,179,150,1,eightsix,,,,,,,,,,,,,,,,,,,,,,,,,,,,,,,,,,,,,,,,,,,,,,,,,,,,,,,,,,,,,,,,,,,,,,,,,,,,,,,,,,,,,,,,,,,,,,,,,,,,,,,,,,,,,,,,,,,,,,,,,,,,,,,,,,,,,,,,,
,,641384b3dffcf39ec42d3c23,2026-03-17_14h07.27.671,kallum_motion_pilot_GIST_update_2,2026.1.1,Win32,74.62686567,641384b3dffcf39ec42d3c23,69b95efdef24cd8a694e89ee,69b96011d3eac86b7e9fe07e,0.0758,0.0758,1,18,180,148,1,sevenfive,,,,,,,,,,,,,,,,,,,,,,,,,,,,,,,,,,,,,,,,,,,,,,,,,,,,,,,,,,,,,,,,,,,,,,,,,,,,,,,,,,,,,,,,,,,,,,,,,,,,,,,,,,,,,,,,,,,,,,,,,,,,,,,,,,,,,,,,,
,,641384b3dffcf39ec42d3c23,2026-03-17_14h07.27.671,kallum_motion_pilot_GIST_update_2,2026.1.1,Win32,74.62686567,641384b3dffcf39ec42d3c23,69b95efdef24cd8a694e89ee,69b96011d3eac86b7e9fe07e,0.076,0.076,1,19,181,124,1,sevenfive,,,,,,,,,,,,,,,,,,,,,,,,,,,,,,,,,,,,,,,,,,,,,,,,,,,,,,,,,,,,,,,,,,,,,,,,,,,,,,,,,,,,,,,,,,,,,,,,,,,,,,,,,,,,,,,,,,,,,,,,,,,,,,,,,,,,,,,,,
,,641384b3dffcf39ec42d3c23,2026-03-17_14h07.27.671,kallum_motion_pilot_GIST_update_2,2026.1.1,Win32,74.62686567,641384b3dffcf39ec42d3c23,69b95efdef24cd8a694e89ee,69b96011d3eac86b7e9fe07e,0.0763,0.0764,1,20,182,137,1,fiveseven,,,,,,,,,,,,,,,,,,,,,,,,,,,,,,,,,,,,,,,,,,,,,,,,,,,,,,,,,,,,,,,,,,,,,,,,,,,,,,,,,,,,,,,,,,,,,,,,,,,,,,,,,,,,,,,,,,,,,,,,,,,,,,,,,,,,,,,,,
,,641384b3dffcf39ec42d3c23,2026-03-17_14h07.27.671,kallum_motion_pilot_GIST_update_2,2026.1.1,Win32,74.62686567,641384b3dffcf39ec42d3c23,69b95efdef24cd8a694e89ee,69b96011d3eac86b7e9fe07e,0.0767,0.0767,1,21,183,6,1,fourtwo,,,,,,,,,,,,,,,,,,,,,,,,,,,,,,,,,,,,,,,,,,,,,,,,,,,,,,,,,,,,,,,,,,,,,,,,,,,,,,,,,,,,,,,,,,,,,,,,,,,,,,,,,,,,,,,,,,,,,,,,,,,,,,,,,,,,,,,,,
,,641384b3dffcf39ec42d3c23,2026-03-17_14h07.27.671,kallum_motion_pilot_GIST_update_2,2026.1.1,Win32,74.62686567,641384b3dffcf39ec42d3c23,69b95efdef24cd8a694e89ee,69b96011d3eac86b7e9fe07e,0.0769,0.0769,1,22,184,85,1,seveneight,,,,,,,,,,,,,,,,,,,,,,,,,,,,,,,,,,,,,,,,,,,,,,,,,,,,,,,,,,,,,,,,,,,,,,,,,,,,,,,,,,,,,,,,,,,,,,,,,,,,,,,,,,,,,,,,,,,,,,,,,,,,,,,,,,,,,,,,,
,,641384b3dffcf39ec42d3c23,2026-03-17_14h07.27.671,kallum_motion_pilot_GIST_update_2,2026.1.1,Win32,74.62686567,641384b3dffcf39ec42d3c23,69b95efdef24cd8a694e89ee,69b96011d3eac86b7e9fe07e,0.0772,0.0772,1,23,185,86,1,eightsix,,,,,,,,,,,,,,,,,,,,,,,,,,,,,,,,,,,,,,,,,,,,,,,,,,,,,,,,,,,,,,,,,,,,,,,,,,,,,,,,,,,,,,,,,,,,,,,,,,,,,,,,,,,,,,,,,,,,,,,,,,,,,,,,,,,,,,,,,
,,641384b3dffcf39ec42d3c23,2026-03-17_14h07.27.671,kallum_motion_pilot_GIST_update_2,2026.1.1,Win32,74.62686567,641384b3dffcf39ec42d3c23,69b95efdef24cd8a694e89ee,69b96011d3eac86b7e9fe07e,0.0774,0.0774,1,24,186,35,1,twofour,,,,,,,,,,,,,,,,,,,,,,,,,,,,,,,,,,,,,,,,,,,,,,,,,,,,,,,,,,,,,,,,,,,,,,,,,,,,,,,,,,,,,,,,,,,,,,,,,,,,,,,,,,,,,,,,,,,,,,,,,,,,,,,,,,,,,,,,,
,,641384b3dffcf39ec42d3c23,2026-03-17_14h07.27.671,kallum_motion_pilot_GIST_update_2,2026.1.1,Win32,74.62686567,641384b3dffcf39ec42d3c23,69b95efdef24cd8a694e89ee,69b96011d3eac86b7e9fe07e,0.0777,0.0777,1,25,187,32,1,onetwo,,,,,,,,,,,,,,,,,,,,,,,,,,,,,,,,,,,,,,,,,,,,,,,,,,,,,,,,,,,,,,,,,,,,,,,,,,,,,,,,,,,,,,,,,,,,,,,,,,,,,,,,,,,,,,,,,,,,,,,,,,,,,,,,,,,,,,,,,
,,641384b3dffcf39ec42d3c23,2026-03-17_14h07.27.671,kallum_motion_pilot_GIST_update_2,2026.1.1,Win32,74.62686567,641384b3dffcf39ec42d3c23,69b95efdef24cd8a694e89ee,69b96011d3eac86b7e9fe07e,0.078,0.078,1,26,188,123,1,sixeight,,,,,,,,,,,,,,,,,,,,,,,,,,,,,,,,,,,,,,,,,,,,,,,,,,,,,,,,,,,,,,,,,,,,,,,,,,,,,,,,,,,,,,,,,,,,,,,,,,,,,,,,,,,,,,,,,,,,,,,,,,,,,,,,,,,,,,,,,
,,641384b3dffcf39ec42d3c23,2026-03-17_14h07.27.671,kallum_motion_pilot_GIST_update_2,2026.1.1,Win32,74.62686567,641384b3dffcf39ec42d3c23,69b95efdef24cd8a694e89ee,69b96011d3eac86b7e9fe07e,0.0781,0.0781,1,27,189,16,1,onetwo,,,,,,,,,,,,,,,,,,,,,,,,,,,,,,,,,,,,,,,,,,,,,,,,,,,,,,,,,,,,,,,,,,,,,,,,,,,,,,,,,,,,,,,,,,,,,,,,,,,,,,,,,,,,,,,,,,,,,,,,,,,,,,,,,,,,,,,,,
,,641384b3dffcf39ec42d3c23,2026-03-17_14h07.27.671,kallum_motion_pilot_GIST_update_2,2026.1.1,Win32,74.62686567,641384b3dffcf39ec42d3c23,69b95efdef24cd8a694e89ee,69b96011d3eac86b7e9fe07e,0.0784,0.0784,1,28,190,65,1,onethree,,,,,,,,,,,,,,,,,,,,,,,,,,,,,,,,,,,,,,,,,,,,,,,,,,,,,,,,,,,,,,,,,,,,,,,,,,,,,,,,,,,,,,,,,,,,,,,,,,,,,,,,,,,,,,,,,,,,,,,,,,,,,,,,,,,,,,,,,
,,641384b3dffcf39ec42d3c23,2026-03-17_14h07.27.671,kallum_motion_pilot_GIST_update_2,2026.1.1,Win32,74.62686567,641384b3dffcf39ec42d3c23,69b95efdef24cd8a694e89ee,69b96011d3eac86b7e9fe07e,0.0787,0.0787,1,29,191,108,1,sevenfive,,,,,,,,,,,,,,,,,,,,,,,,,,,,,,,,,,,,,,,,,,,,,,,,,,,,,,,,,,,,,,,,,,,,,,,,,,,,,,,,,,,,,,,,,,,,,,,,,,,,,,,,,,,,,,,,,,,,,,,,,,,,,,,,,,,,,,,,,
,,641384b3dffcf39ec42d3c23,2026-03-17_14h07.27.671,kallum_motion_pilot_GIST_update_2,2026.1.1,Win32,74.62686567,641384b3dffcf39ec42d3c23,69b95efdef24cd8a694e89ee,69b96011d3eac86b7e9fe07e,0.0789,0.0789,1,30,192,110,1,eightsix,,,,,,,,,,,,,,,,,,,,,,,,,,,,,,,,,,,,,,,,,,,,,,,,,,,,,,,,,,,,,,,,,,,,,,,,,,,,,,,,,,,,,,,,,,,,,,,,,,,,,,,,,,,,,,,,,,,,,,,,,,,,,,,,,,,,,,,,,
,,641384b3dffcf39ec42d3c23,2026-03-17_14h07.27.671,kallum_motion_pilot_GIST_update_2,2026.1.1,Win32,74.62686567,641384b3dffcf39ec42d3c23,69b95efdef24cd8a694e89ee,69b96011d3eac86b7e9fe07e,0.0791,0.0791,1,31,193,153,1,fiveseven,,,,,,,,,,,,,,,,,,,,,,,,,,,,,,,,,,,,,,,,,,,,,,,,,,,,,,,,,,,,,,,,,,,,,,,,,,,,,,,,,,,,,,,,,,,,,,,,,,,,,,,,,,,,,,,,,,,,,,,,,,,,,,,,,,,,,,,,,
,,641384b3dffcf39ec42d3c23,2026-03-17_14h07.27.671,kallum_motion_pilot_GIST_update_2,2026.1.1,Win32,74.62686567,641384b3dffcf39ec42d3c23,69b95efdef24cd8a694e89ee,69b96011d3eac86b7e9fe07e,0.0793,0.0794,1,32,194,23,1,fourthree,,,,,,,,,,,,,,,,,,,,,,,,,,,,,,,,,,,,,,,,,,,,,,,,,,,,,,,,,,,,,,,,,,,,,,,,,,,,,,,,,,,,,,,,,,,,,,,,,,,,,,,,,,,,,,,,,,,,,,,,,,,,,,,,,,,,,,,,,
,,641384b3dffcf39ec42d3c23,2026-03-17_14h07.27.671,kallum_motion_pilot_GIST_update_2,2026.1.1,Win32,74.62686567,641384b3dffcf39ec42d3c23,69b95efdef24cd8a694e89ee,69b96011d3eac86b7e9fe07e,0.0796,0.0796,1,33,195,104,1,fivesix,,,,,,,,,,,,,,,,,,,,,,,,,,,,,,,,,,,,,,,,,,,,,,,,,,,,,,,,,,,,,,,,,,,,,,,,,,,,,,,,,,,,,,,,,,,,,,,,,,,,,,,,,,,,,,,,,,,,,,,,,,,,,,,,,,,,,,,,,
,,641384b3dffcf39ec42d3c23,2026-03-17_14h07.27.671,kallum_motion_pilot_GIST_update_2,2026.1.1,Win32,74.62686567,641384b3dffcf39ec42d3c23,69b95efdef24cd8a694e89ee,69b96011d3eac86b7e9fe07e,0.08,0.08,1,34,196,99,1,sixeight,,,,,,,,,,,,,,,,,,,,,,,,,,,,,,,,,,,,,,,,,,,,,,,,,,,,,,,,,,,,,,,,,,,,,,,,,,,,,,,,,,,,,,,,,,,,,,,,,,,,,,,,,,,,,,,,,,,,,,,,,,,,,,,,,,,,,,,,,
,,641384b3dffcf39ec42d3c23,2026-03-17_14h07.27.671,kallum_motion_pilot_GIST_update_2,2026.1.1,Win32,74.62686567,641384b3dffcf39ec42d3c23,69b95efdef24cd8a694e89ee,69b96011d3eac86b7e9fe07e,0.0802,0.0802,1,35,197,24,1,onetwo,,,,,,,,,,,,,,,,,,,,,,,,,,,,,,,,,,,,,,,,,,,,,,,,,,,,,,,,,,,,,,,,,,,,,,,,,,,,,,,,,,,,,,,,,,,,,,,,,,,,,,,,,,,,,,,,,,,,,,,,,,,,,,,,,,,,,,,,,
,,641384b3dffcf39ec42d3c23,2026-03-17_14h07.27.671,kallum_motion_pilot_GIST_update_2,2026.1.1,Win32,74.62686567,641384b3dffcf39ec42d3c23,69b95efdef24cd8a694e89ee,69b96011d3eac86b7e9fe07e,0.0804,0.0804,1,36,198,160,1,fivesix,,,,,,,,,,,,,,,,,,,,,,,,,,,,,,,,,,,,,,,,,,,,,,,,,,,,,,,,,,,,,,,,,,,,,,,,,,,,,,,,,,,,,,,,,,,,,,,,,,,,,,,,,,,,,,,,,,,,,,,,,,,,,,,,,,,,,,,,,
,,641384b3dffcf39ec42d3c23,2026-03-17_14h07.27.671,kallum_motion_pilot_GIST_update_2,2026.1.1,Win32,74.62686567,641384b3dffcf39ec42d3c23,69b95efdef24cd8a694e89ee,69b96011d3eac86b7e9fe07e,0.0806,0.0806,1,37,199,111,1,eightseven,,,,,,,,,,,,,,,,,,,,,,,,,,,,,,,,,,,,,,,,,,,,,,,,,,,,,,,,,,,,,,,,,,,,,,,,,,,,,,,,,,,,,,,,,,,,,,,,,,,,,,,,,,,,,,,,,,,,,,,,,,,,,,,,,,,,,,,,,
,,641384b3dffcf39ec42d3c23,2026-03-17_14h07.27.671,kallum_motion_pilot_GIST_update_2,2026.1.1,Win32,74.62686567,641384b3dffcf39ec42d3c23,69b95efdef24cd8a694e89ee,69b96011d3eac86b7e9fe07e,0.0808,0.0808,1,38,200,142,1,eightsix,,,,,,,,,,,,,,,,,,,,,,,,,,,,,,,,,,,,,,,,,,,,,,,,,,,,,,,,,,,,,,,,,,,,,,,,,,,,,,,,,,,,,,,,,,,,,,,,,,,,,,,,,,,,,,,,,,,,,,,,,,,,,,,,,,,,,,,,,
,,641384b3dffcf39ec42d3c23,2026-03-17_14h07.27.671,kallum_motion_pilot_GIST_update_2,2026.1.1,Win32,74.62686567,641384b3dffcf39ec42d3c23,69b95efdef24cd8a694e89ee,69b96011d3eac86b7e9fe07e,0.0809,0.081,1,39,201,79,1,eightseven,,,,,,,,,,,,,,,,,,,,,,,,,,,,,,,,,,,,,,,,,,,,,,,,,,,,,,,,,,,,,,,,,,,,,,,,,,,,,,,,,,,,,,,,,,,,,,,,,,,,,,,,,,,,,,,,,,,,,,,,,,,,,,,,,,,,,,,,,
,,641384b3dffcf39ec42d3c23,2026-03-17_14h07.27.671,kallum_motion_pilot_GIST_update_2,2026.1.1,Win32,74.62686567,641384b3dffcf39ec42d3c23,69b95efdef24cd8a694e89ee,69b96011d3eac86b7e9fe07e,0.0812,0.0812,1,40,202,158,1,eightsix,,,,,,,,,,,,,,,,,,,,,,,,,,,,,,,,,,,,,,,,,,,,,,,,,,,,,,,,,,,,,,,,,,,,,,,,,,,,,,,,,,,,,,,,,,,,,,,,,,,,,,,,,,,,,,,,,,,,,,,,,,,,,,,,,,,,,,,,,
,,641384b3dffcf39ec42d3c23,2026-03-17_14h07.27.671,kallum_motion_pilot_GIST_update_2,2026.1.1,Win32,74.62686567,641384b3dffcf39ec42d3c23,69b95efdef24cd8a694e89ee,69b96011d3eac86b7e9fe07e,0.0813,0.0813,1,41,203,28,1,threeone,,,,,,,,,,,,,,,,,,,,,,,,,,,,,,,,,,,,,,,,,,,,,,,,,,,,,,,,,,,,,,,,,,,,,,,,,,,,,,,,,,,,,,,,,,,,,,,,,,,,,,,,,,,,,,,,,,,,,,,,,,,,,,,,,,,,,,,,,
,,641384b3dffcf39ec42d3c23,2026-03-17_14h07.27.671,kallum_motion_pilot_GIST_update_2,2026.1.1,Win32,74.62686567,641384b3dffcf39ec42d3c23,69b95efdef24cd8a694e89ee,69b96011d3eac86b7e9fe07e,0.0816,0.0816,1,42,204,18,1,twoone,,,,,,,,,,,,,,,,,,,,,,,,,,,,,,,,,,,,,,,,,,,,,,,,,,,,,,,,,,,,,,,,,,,,,,,,,,,,,,,,,,,,,,,,,,,,,,,,,,,,,,,,,,,,,,,,,,,,,,,,,,,,,,,,,,,,,,,,,
,,641384b3dffcf39ec42d3c23,2026-03-17_14h07.27.671,kallum_motion_pilot_GIST_update_2,2026.1.1,Win32,74.62686567,641384b3dffcf39ec42d3c23,69b95efdef24cd8a694e89ee,69b96011d3eac86b7e9fe07e,0.0817,0.0817,1,43,205,114,1,sixfive,,,,,,,,,,,,,,,,,,,,,,,,,,,,,,,,,,,,,,,,,,,,,,,,,,,,,,,,,,,,,,,,,,,,,,,,,,,,,,,,,,,,,,,,,,,,,,,,,,,,,,,,,,,,,,,,,,,,,,,,,,,,,,,,,,,,,,,,,
,,641384b3dffcf39ec42d3c23,2026-03-17_14h07.27.671,kallum_motion_pilot_GIST_update_2,2026.1.1,Win32,74.62686567,641384b3dffcf39ec42d3c23,69b95efdef24cd8a694e89ee,69b96011d3eac86b7e9fe07e,0.082,0.082,1,44,206,25,1,onethree,,,,,,,,,,,,,,,,,,,,,,,,,,,,,,,,,,,,,,,,,,,,,,,,,,,,,,,,,,,,,,,,,,,,,,,,,,,,,,,,,,,,,,,,,,,,,,,,,,,,,,,,,,,,,,,,,,,,,,,,,,,,,,,,,,,,,,,,,
,,641384b3dffcf39ec42d3c23,2026-03-17_14h07.27.671,kallum_motion_pilot_GIST_update_2,2026.1.1,Win32,74.62686567,641384b3dffcf39ec42d3c23,69b95efdef24cd8a694e89ee,69b96011d3eac86b7e9fe07e,0.0821,0.0821,1,45,207,89,1,fiveseven,,,,,,,,,,,,,,,,,,,,,,,,,,,,,,,,,,,,,,,,,,,,,,,,,,,,,,,,,,,,,,,,,,,,,,,,,,,,,,,,,,,,,,,,,,,,,,,,,,,,,,,,,,,,,,,,,,,,,,,,,,,,,,,,,,,,,,,,,
,,641384b3dffcf39ec42d3c23,2026-03-17_14h07.27.671,kallum_motion_pilot_GIST_update_2,2026.1.1,Win32,74.62686567,641384b3dffcf39ec42d3c23,69b95efdef24cd8a694e89ee,69b96011d3eac86b7e9fe07e,0.0823,0.0823,1,46,208,34,1,twoone,,,,,,,,,,,,,,,,,,,,,,,,,,,,,,,,,,,,,,,,,,,,,,,,,,,,,,,,,,,,,,,,,,,,,,,,,,,,,,,,,,,,,,,,,,,,,,,,,,,,,,,,,,,,,,,,,,,,,,,,,,,,,,,,,,,,,,,,,
,,641384b3dffcf39ec42d3c23,2026-03-17_14h07.27.671,kallum_motion_pilot_GIST_update_2,2026.1.1,Win32,74.62686567,641384b3dffcf39ec42d3c23,69b95efdef24cd8a694e89ee,69b96011d3eac86b7e9fe07e,0.0825,0.0825,1,47,209,144,1,fivesix,,,,,,,,,,,,,,,,,,,,,,,,,,,,,,,,,,,,,,,,,,,,,,,,,,,,,,,,,,,,,,,,,,,,,,,,,,,,,,,,,,,,,,,,,,,,,,,,,,,,,,,,,,,,,,,,,,,,,,,,,,,,,,,,,,,,,,,,,
,,641384b3dffcf39ec42d3c23,2026-03-17_14h07.27.671,kallum_motion_pilot_GIST_update_2,2026.1.1,Win32,74.62686567,641384b3dffcf39ec42d3c23,69b95efdef24cd8a694e89ee,69b96011d3eac86b7e9fe07e,0.0827,0.0827,1,48,210,61,1,threefour,,,,,,,,,,,,,,,,,,,,,,,,,,,,,,,,,,,,,,,,,,,,,,,,,,,,,,,,,,,,,,,,,,,,,,,,,,,,,,,,,,,,,,,,,,,,,,,,,,,,,,,,,,,,,,,,,,,,,,,,,,,,,,,,,,,,,,,,,
,,641384b3dffcf39ec42d3c23,2026-03-17_14h07.27.671,kallum_motion_pilot_GIST_update_2,2026.1.1,Win32,74.62686567,641384b3dffcf39ec42d3c23,69b95efdef24cd8a694e89ee,69b96011d3eac86b7e9fe07e,0.0829,0.0829,1,49,211,91,1,sixeight,,,,,,,,,,,,,,,,,,,,,,,,,,,,,,,,,,,,,,,,,,,,,,,,,,,,,,,,,,,,,,,,,,,,,,,,,,,,,,,,,,,,,,,,,,,,,,,,,,,,,,,,,,,,,,,,,,,,,,,,,,,,,,,,,,,,,,,,,
,,641384b3dffcf39ec42d3c23,2026-03-17_14h07.27.671,kallum_motion_pilot_GIST_update_2,2026.1.1,Win32,74.62686567,641384b3dffcf39ec42d3c23,69b95efdef24cd8a694e89ee,69b96011d3eac86b7e9fe07e,0.0831,0.0831,1,50,212,95,1,eightseven,,,,,,,,,,,,,,,,,,,,,,,,,,,,,,,,,,,,,,,,,,,,,,,,,,,,,,,,,,,,,,,,,,,,,,,,,,,,,,,,,,,,,,,,,,,,,,,,,,,,,,,,,,,,,,,,,,,,,,,,,,,,,,,,,,,,,,,,,
,,641384b3dffcf39ec42d3c23,2026-03-17_14h07.27.671,kallum_motion_pilot_GIST_update_2,2026.1.1,Win32,74.62686567,641384b3dffcf39ec42d3c23,69b95efdef24cd8a694e89ee,69b96011d3eac86b7e9fe07e,0.0833,0.0833,1,51,213,98,1,sixfive,,,,,,,,,,,,,,,,,,,,,,,,,,,,,,,,,,,,,,,,,,,,,,,,,,,,,,,,,,,,,,,,,,,,,,,,,,,,,,,,,,,,,,,,,,,,,,,,,,,,,,,,,,,,,,,,,,,,,,,,,,,,,,,,,,,,,,,,,
,,641384b3dffcf39ec42d3c23,2026-03-17_14h07.27.671,kallum_motion_pilot_GIST_update_2,2026.1.1,Win32,74.62686567,641384b3dffcf39ec42d3c23,69b95efdef24cd8a694e89ee,69b96011d3eac86b7e9fe07e,0.0836,0.0836,1,52,214,56,1,onetwo,,,,,,,,,,,,,,,,,,,,,,,,,,,,,,,,,,,,,,,,,,,,,,,,,,,,,,,,,,,,,,,,,,,,,,,,,,,,,,,,,,,,,,,,,,,,,,,,,,,,,,,,,,,,,,,,,,,,,,,,,,,,,,,,,,,,,,,,,
,,641384b3dffcf39ec42d3c23,2026-03-17_14h07.27.671,kallum_motion_pilot_GIST_update_2,2026.1.1,Win32,74.62686567,641384b3dffcf39ec42d3c23,69b95efdef24cd8a694e89ee,69b96011d3eac86b7e9fe07e,0.0837,0.0837,1,53,215,115,1,sixeight,,,,,,,,,,,,,,,,,,,,,,,,,,,,,,,,,,,,,,,,,,,,,,,,,,,,,,,,,,,,,,,,,,,,,,,,,,,,,,,,,,,,,,,,,,,,,,,,,,,,,,,,,,,,,,,,,,,,,,,,,,,,,,,,,,,,,,,,,
,,641384b3dffcf39ec42d3c23,2026-03-17_14h07.27.671,kallum_motion_pilot_GIST_update_2,2026.1.1,Win32,74.62686567,641384b3dffcf39ec42d3c23,69b95efdef24cd8a694e89ee,69b96011d3eac86b7e9fe07e,0.0839,0.0839,1,54,216,103,1,eightseven,,,,,,,,,,,,,,,,,,,,,,,,,,,,,,,,,,,,,,,,,,,,,,,,,,,,,,,,,,,,,,,,,,,,,,,,,,,,,,,,,,,,,,,,,,,,,,,,,,,,,,,,,,,,,,,,,,,,,,,,,,,,,,,,,,,,,,,,,
,,641384b3dffcf39ec42d3c23,2026-03-17_14h07.27.671,kallum_motion_pilot_GIST_update_2,2026.1.1,Win32,74.62686567,641384b3dffcf39ec42d3c23,69b95efdef24cd8a694e89ee,69b96011d3eac86b7e9fe07e,0.0841,0.0841,1,55,217,105,1,fiveseven,,,,,,,,,,,,,,,,,,,,,,,,,,,,,,,,,,,,,,,,,,,,,,,,,,,,,,,,,,,,,,,,,,,,,,,,,,,,,,,,,,,,,,,,,,,,,,,,,,,,,,,,,,,,,,,,,,,,,,,,,,,,,,,,,,,,,,,,,
,,641384b3dffcf39ec42d3c23,2026-03-17_14h07.27.671,kallum_motion_pilot_GIST_update_2,2026.1.1,Win32,74.62686567,641384b3dffcf39ec42d3c23,69b95efdef24cd8a694e89ee,69b96011d3eac86b7e9fe07e,0.0843,0.0843,1,56,218,21,1,threefour,,,,,,,,,,,,,,,,,,,,,,,,,,,,,,,,,,,,,,,,,,,,,,,,,,,,,,,,,,,,,,,,,,,,,,,,,,,,,,,,,,,,,,,,,,,,,,,,,,,,,,,,,,,,,,,,,,,,,,,,,,,,,,,,,,,,,,,,,
,,641384b3dffcf39ec42d3c23,2026-03-17_14h07.27.671,kallum_motion_pilot_GIST_update_2,2026.1.1,Win32,74.62686567,641384b3dffcf39ec42d3c23,69b95efdef24cd8a694e89ee,69b96011d3eac86b7e9fe07e,0.0845,0.0845,1,57,219,155,1,sixeight,,,,,,,,,,,,,,,,,,,,,,,,,,,,,,,,,,,,,,,,,,,,,,,,,,,,,,,,,,,,,,,,,,,,,,,,,,,,,,,,,,,,,,,,,,,,,,,,,,,,,,,,,,,,,,,,,,,,,,,,,,,,,,,,,,,,,,,,,
,,641384b3dffcf39ec42d3c23,2026-03-17_14h07.27.671,kallum_motion_pilot_GIST_update_2,2026.1.1,Win32,74.62686567,641384b3dffcf39ec42d3c23,69b95efdef24cd8a694e89ee,69b96011d3eac86b7e9fe07e,0.0847,0.0847,1,58,220,149,1,seveneight,,,,,,,,,,,,,,,,,,,,,,,,,,,,,,,,,,,,,,,,,,,,,,,,,,,,,,,,,,,,,,,,,,,,,,,,,,,,,,,,,,,,,,,,,,,,,,,,,,,,,,,,,,,,,,,,,,,,,,,,,,,,,,,,,,,,,,,,,
,,641384b3dffcf39ec42d3c23,2026-03-17_14h07.27.671,kallum_motion_pilot_GIST_update_2,2026.1.1,Win32,74.62686567,641384b3dffcf39ec42d3c23,69b95efdef24cd8a694e89ee,69b96011d3eac86b7e9fe07e,0.0849,0.0849,1,59,221,145,1,fiveseven,,,,,,,,,,,,,,,,,,,,,,,,,,,,,,,,,,,,,,,,,,,,,,,,,,,,,,,,,,,,,,,,,,,,,,,,,,,,,,,,,,,,,,,,,,,,,,,,,,,,,,,,,,,,,,,,,,,,,,,,,,,,,,,,,,,,,,,,,
,,641384b3dffcf39ec42d3c23,2026-03-17_14h07.27.671,kallum_motion_pilot_GIST_update_2,2026.1.1,Win32,74.62686567,641384b3dffcf39ec42d3c23,69b95efdef24cd8a694e89ee,69b96011d3eac86b7e9fe07e,0.0851,0.0851,1,60,222,93,1,seveneight,,,,,,,,,,,,,,,,,,,,,,,,,,,,,,,,,,,,,,,,,,,,,,,,,,,,,,,,,,,,,,,,,,,,,,,,,,,,,,,,,,,,,,,,,,,,,,,,,,,,,,,,,,,,,,,,,,,,,,,,,,,,,,,,,,,,,,,,,
,,641384b3dffcf39ec42d3c23,2026-03-17_14h07.27.671,kallum_motion_pilot_GIST_update_2,2026.1.1,Win32,74.62686567,641384b3dffcf39ec42d3c23,69b95efdef24cd8a694e89ee,69b96011d3eac86b7e9fe07e,0.0853,0.0853,1,61,223,80,1,fivesix,,,,,,,,,,,,,,,,,,,,,,,,,,,,,,,,,,,,,,,,,,,,,,,,,,,,,,,,,,,,,,,,,,,,,,,,,,,,,,,,,,,,,,,,,,,,,,,,,,,,,,,,,,,,,,,,,,,,,,,,,,,,,,,,,,,,,,,,,
,,641384b3dffcf39ec42d3c23,2026-03-17_14h07.27.671,kallum_motion_pilot_GIST_update_2,2026.1.1,Win32,74.62686567,641384b3dffcf39ec42d3c23,69b95efdef24cd8a694e89ee,69b96011d3eac86b7e9fe07e,0.0855,0.0855,1,62,224,84,1,sevenfive,,,,,,,,,,,,,,,,,,,,,,,,,,,,,,,,,,,,,,,,,,,,,,,,,,,,,,,,,,,,,,,,,,,,,,,,,,,,,,,,,,,,,,,,,,,,,,,,,,,,,,,,,,,,,,,,,,,,,,,,,,,,,,,,,,,,,,,,,
,,641384b3dffcf39ec42d3c23,2026-03-17_14h07.27.671,kallum_motion_pilot_GIST_update_2,2026.1.1,Win32,74.62686567,641384b3dffcf39ec42d3c23,69b95efdef24cd8a694e89ee,69b96011d3eac86b7e9fe07e,0.0857,0.0857,1,63,225,55,1,fourthree,,,,,,,,,,,,,,,,,,,,,,,,,,,,,,,,,,,,,,,,,,,,,,,,,,,,,,,,,,,,,,,,,,,,,,,,,,,,,,,,,,,,,,,,,,,,,,,,,,,,,,,,,,,,,,,,,,,,,,,,,,,,,,,,,,,,,,,,,
,,641384b3dffcf39ec42d3c23,2026-03-17_14h07.27.671,kallum_motion_pilot_GIST_update_2,2026.1.1,Win32,74.62686567,641384b3dffcf39ec42d3c23,69b95efdef24cd8a694e89ee,69b96011d3eac86b7e9fe07e,0.0858,0.0859,1,64,226,147,1,sixeight,,,,,,,,,,,,,,,,,,,,,,,,,,,,,,,,,,,,,,,,,,,,,,,,,,,,,,,,,,,,,,,,,,,,,,,,,,,,,,,,,,,,,,,,,,,,,,,,,,,,,,,,,,,,,,,,,,,,,,,,,,,,,,,,,,,,,,,,,
,,641384b3dffcf39ec42d3c23,2026-03-17_14h07.27.671,kallum_motion_pilot_GIST_update_2,2026.1.1,Win32,74.62686567,641384b3dffcf39ec42d3c23,69b95efdef24cd8a694e89ee,69b96011d3eac86b7e9fe07e,0.0861,0.0861,1,65,227,102,1,eightsix,,,,,,,,,,,,,,,,,,,,,,,,,,,,,,,,,,,,,,,,,,,,,,,,,,,,,,,,,,,,,,,,,,,,,,,,,,,,,,,,,,,,,,,,,,,,,,,,,,,,,,,,,,,,,,,,,,,,,,,,,,,,,,,,,,,,,,,,,
,,641384b3dffcf39ec42d3c23,2026-03-17_14h07.27.671,kallum_motion_pilot_GIST_update_2,2026.1.1,Win32,74.62686567,641384b3dffcf39ec42d3c23,69b95efdef24cd8a694e89ee,69b96011d3eac86b7e9fe07e,0.0863,0.0863,1,66,228,161,1,fiveseven,,,,,,,,,,,,,,,,,,,,,,,,,,,,,,,,,,,,,,,,,,,,,,,,,,,,,,,,,,,,,,,,,,,,,,,,,,,,,,,,,,,,,,,,,,,,,,,,,,,,,,,,,,,,,,,,,,,,,,,,,,,,,,,,,,,,,,,,,
,,641384b3dffcf39ec42d3c23,2026-03-17_14h07.27.671,kallum_motion_pilot_GIST_update_2,2026.1.1,Win32,74.62686567,641384b3dffcf39ec42d3c23,69b95efdef24cd8a694e89ee,69b96011d3eac86b7e9fe07e,0.0865,0.0865,1,67,229,92,1,sevenfive,,,,,,,,,,,,,,,,,,,,,,,,,,,,,,,,,,,,,,,,,,,,,,,,,,,,,,,,,,,,,,,,,,,,,,,,,,,,,,,,,,,,,,,,,,,,,,,,,,,,,,,,,,,,,,,,,,,,,,,,,,,,,,,,,,,,,,,,,
,,641384b3dffcf39ec42d3c23,2026-03-17_14h07.27.671,kallum_motion_pilot_GIST_update_2,2026.1.1,Win32,74.62686567,641384b3dffcf39ec42d3c23,69b95efdef24cd8a694e89ee,69b96011d3eac86b7e9fe07e,0.0867,0.0867,1,68,230,81,1,fiveseven,,,,,,,,,,,,,,,,,,,,,,,,,,,,,,,,,,,,,,,,,,,,,,,,,,,,,,,,,,,,,,,,,,,,,,,,,,,,,,,,,,,,,,,,,,,,,,,,,,,,,,,,,,,,,,,,,,,,,,,,,,,,,,,,,,,,,,,,,
,,641384b3dffcf39ec42d3c23,2026-03-17_14h07.27.671,kallum_motion_pilot_GIST_update_2,2026.1.1,Win32,74.62686567,641384b3dffcf39ec42d3c23,69b95efdef24cd8a694e89ee,69b96011d3eac86b7e9fe07e,0.0869,0.0869,1,69,231,74,1,twoone,,,,,,,,,,,,,,,,,,,,,,,,,,,,,,,,,,,,,,,,,,,,,,,,,,,,,,,,,,,,,,,,,,,,,,,,,,,,,,,,,,,,,,,,,,,,,,,,,,,,,,,,,,,,,,,,,,,,,,,,,,,,,,,,,,,,,,,,,
,,641384b3dffcf39ec42d3c23,2026-03-17_14h07.27.671,kallum_motion_pilot_GIST_update_2,2026.1.1,Win32,74.62686567,641384b3dffcf39ec42d3c23,69b95efdef24cd8a694e89ee,69b96011d3eac86b7e9fe07e,0.087,0.087,1,70,232,129,1,fiveseven,,,,,,,,,,,,,,,,,,,,,,,,,,,,,,,,,,,,,,,,,,,,,,,,,,,,,,,,,,,,,,,,,,,,,,,,,,,,,,,,,,,,,,,,,,,,,,,,,,,,,,,,,,,,,,,,,,,,,,,,,,,,,,,,,,,,,,,,,
,,641384b3dffcf39ec42d3c23,2026-03-17_14h07.27.671,kallum_motion_pilot_GIST_update_2,2026.1.1,Win32,74.62686567,641384b3dffcf39ec42d3c23,69b95efdef24cd8a694e89ee,69b96011d3eac86b7e9fe07e,0.0873,0.0873,1,71,233,7,1,fourthree,,,,,,,,,,,,,,,,,,,,,,,,,,,,,,,,,,,,,,,,,,,,,,,,,,,,,,,,,,,,,,,,,,,,,,,,,,,,,,,,,,,,,,,,,,,,,,,,,,,,,,,,,,,,,,,,,,,,,,,,,,,,,,,,,,,,,,,,,
,,641384b3dffcf39ec42d3c23,2026-03-17_14h07.27.671,kallum_motion_pilot_GIST_update_2,2026.1.1,Win32,74.62686567,641384b3dffcf39ec42d3c23,69b95efdef24cd8a694e89ee,69b96011d3eac86b7e9fe07e,0.0876,0.0876,1,72,234,1,1,onethree,,,,,,,,,,,,,,,,,,,,,,,,,,,,,,,,,,,,,,,,,,,,,,,,,,,,,,,,,,,,,,,,,,,,,,,,,,,,,,,,,,,,,,,,,,,,,,,,,,,,,,,,,,,,,,,,,,,,,,,,,,,,,,,,,,,,,,,,,
,,641384b3dffcf39ec42d3c23,2026-03-17_14h07.27.671,kallum_motion_pilot_GIST_update_2,2026.1.1,Win32,74.62686567,641384b3dffcf39ec42d3c23,69b95efdef24cd8a694e89ee,69b96011d3eac86b7e9fe07e,0.0877,0.0878,1,73,235,121,1,fiveseven,,,,,,,,,,,,,,,,,,,,,,,,,,,,,,,,,,,,,,,,,,,,,,,,,,,,,,,,,,,,,,,,,,,,,,,,,,,,,,,,,,,,,,,,,,,,,,,,,,,,,,,,,,,,,,,,,,,,,,,,,,,,,,,,,,,,,,,,,
,,641384b3dffcf39ec42d3c23,2026-03-17_14h07.27.671,kallum_motion_pilot_GIST_update_2,2026.1.1,Win32,74.62686567,641384b3dffcf39ec42d3c23,69b95efdef24cd8a694e89ee,69b96011d3eac86b7e9fe07e,0.088,0.088,1,74,236,156,1,sevenfive,,,,,,,,,,,,,,,,,,,,,,,,,,,,,,,,,,,,,,,,,,,,,,,,,,,,,,,,,,,,,,,,,,,,,,,,,,,,,,,,,,,,,,,,,,,,,,,,,,,,,,,,,,,,,,,,,,,,,,,,,,,,,,,,,,,,,,,,,
,,641384b3dffcf39ec42d3c23,2026-03-17_14h07.27.671,kallum_motion_pilot_GIST_update_2,2026.1.1,Win32,74.62686567,641384b3dffcf39ec42d3c23,69b95efdef24cd8a694e89ee,69b96011d3eac86b7e9fe07e,0.0881,0.0881,1,75,237,97,1,fiveseven,,,,,,,,,,,,,,,,,,,,,,,,,,,,,,,,,,,,,,,,,,,,,,,,,,,,,,,,,,,,,,,,,,,,,,,,,,,,,,,,,,,,,,,,,,,,,,,,,,,,,,,,,,,,,,,,,,,,,,,,,,,,,,,,,,,,,,,,,
,,641384b3dffcf39ec42d3c23,2026-03-17_14h07.27.671,kallum_motion_pilot_GIST_update_2,2026.1.1,Win32,74.62686567,641384b3dffcf39ec42d3c23,69b95efdef24cd8a694e89ee,69b96011d3eac86b7e9fe07e,0.0884,0.0884,1,76,238,78,1,fourtwo,,,,,,,,,,,,,,,,,,,,,,,,,,,,,,,,,,,,,,,,,,,,,,,,,,,,,,,,,,,,,,,,,,,,,,,,,,,,,,,,,,,,,,,,,,,,,,,,,,,,,,,,,,,,,,,,,,,,,,,,,,,,,,,,,,,,,,,,,
,,641384b3dffcf39ec42d3c23,2026-03-17_14h07.27.671,kallum_motion_pilot_GIST_update_2,2026.1.1,Win32,74.62686567,641384b3dffcf39ec42d3c23,69b95efdef24cd8a694e89ee,69b96011d3eac86b7e9fe07e,0.0887,0.0887,1,77,239,22,1,fourtwo,,,,,,,,,,,,,,,,,,,,,,,,,,,,,,,,,,,,,,,,,,,,,,,,,,,,,,,,,,,,,,,,,,,,,,,,,,,,,,,,,,,,,,,,,,,,,,,,,,,,,,,,,,,,,,,,,,,,,,,,,,,,,,,,,,,,,,,,,
,,641384b3dffcf39ec42d3c23,2026-03-17_14h07.27.671,kallum_motion_pilot_GIST_update_2,2026.1.1,Win32,74.62686567,641384b3dffcf39ec42d3c23,69b95efdef24cd8a694e89ee,69b96011d3eac86b7e9fe07e,0.0891,0.0891,1,78,240,139,1,sixeight,,,,,,,,,,,,,,,,,,,,,,,,,,,,,,,,,,,,,,,,,,,,,,,,,,,,,,,,,,,,,,,,,,,,,,,,,,,,,,,,,,,,,,,,,,,,,,,,,,,,,,,,,,,,,,,,,,,,,,,,,,,,,,,,,,,,,,,,,
,,641384b3dffcf39ec42d3c23,2026-03-17_14h07.27.671,kallum_motion_pilot_GIST_update_2,2026.1.1,Win32,74.62686567,641384b3dffcf39ec42d3c23,69b95efdef24cd8a694e89ee,69b96011d3eac86b7e9fe07e,0.0894,0.0894,1,79,241,117,1,seveneight,,,,,,,,,,,,,,,,,,,,,,,,,,,,,,,,,,,,,,,,,,,,,,,,,,,,,,,,,,,,,,,,,,,,,,,,,,,,,,,,,,,,,,,,,,,,,,,,,,,,,,,,,,,,,,,,,,,,,,,,,,,,,,,,,,,,,,,,,
,,641384b3dffcf39ec42d3c23,2026-03-17_14h07.27.671,kallum_motion_pilot_GIST_update_2,2026.1.1,Win32,74.62686567,641384b3dffcf39ec42d3c23,69b95efdef24cd8a694e89ee,69b96011d3eac86b7e9fe07e,0.0899,0.0899,1,80,242,15,1,fourthree,,,,,,,,,,,,,,,,,,,,,,,,,,,,,,,,,,,,,,,,,,,,,,,,,,,,,,,,,,,,,,,,,,,,,,,,,,,,,,,,,,,,,,,,,,,,,,,,,,,,,,,,,,,,,,,,,,,,,,,,,,,,,,,,,,,,,,,,,
,,641384b3dffcf39ec42d3c23,2026-03-17_14h07.27.671,kallum_motion_pilot_GIST_update_2,2026.1.1,Win32,74.62686567,641384b3dffcf39ec42d3c23,69b95efdef24cd8a694e89ee,69b96011d3eac86b7e9fe07e,0.0905,0.0905,1,81,243,66,1,twoone,,,,,,,,,,,,,,,,,,,,,,,,,,,,,,,,,,,,,,,,,,,,,,,,,,,,,,,,,,,,,,,,,,,,,,,,,,,,,,,,,,,,,,,,,,,,,,,,,,,,,,,,,,,,,,,,,,,,,,,,,,,,,,,,,,,,,,,,,
,,641384b3dffcf39ec42d3c23,2026-03-17_14h07.27.671,kallum_motion_pilot_GIST_update_2,2026.1.1,Win32,74.62686567,641384b3dffcf39ec42d3c23,69b95efdef24cd8a694e89ee,69b96011d3eac86b7e9fe07e,0.0908,0.0909,1,82,244,42,1,twoone,,,,,,,,,,,,,,,,,,,,,,,,,,,,,,,,,,,,,,,,,,,,,,,,,,,,,,,,,,,,,,,,,,,,,,,,,,,,,,,,,,,,,,,,,,,,,,,,,,,,,,,,,,,,,,,,,,,,,,,,,,,,,,,,,,,,,,,,,
,,641384b3dffcf39ec42d3c23,2026-03-17_14h07.27.671,kallum_motion_pilot_GIST_update_2,2026.1.1,Win32,74.62686567,641384b3dffcf39ec42d3c23,69b95efdef24cd8a694e89ee,69b96011d3eac86b7e9fe07e,0.0912,0.0912,1,83,245,39,1,fourthree,,,,,,,,,,,,,,,,,,,,,,,,,,,,,,,,,,,,,,,,,,,,,,,,,,,,,,,,,,,,,,,,,,,,,,,,,,,,,,,,,,,,,,,,,,,,,,,,,,,,,,,,,,,,,,,,,,,,,,,,,,,,,,,,,,,,,,,,,
,,641384b3dffcf39ec42d3c23,2026-03-17_14h07.27.671,kallum_motion_pilot_GIST_update_2,2026.1.1,Win32,74.62686567,641384b3dffcf39ec42d3c23,69b95efdef24cd8a694e89ee,69b96011d3eac86b7e9fe07e,0.0915,0.0915,1,84,246,113,1,fiveseven,,,,,,,,,,,,,,,,,,,,,,,,,,,,,,,,,,,,,,,,,,,,,,,,,,,,,,,,,,,,,,,,,,,,,,,,,,,,,,,,,,,,,,,,,,,,,,,,,,,,,,,,,,,,,,,,,,,,,,,,,,,,,,,,,,,,,,,,,
,,641384b3dffcf39ec42d3c23,2026-03-17_14h07.27.671,kallum_motion_pilot_GIST_update_2,2026.1.1,Win32,74.62686567,641384b3dffcf39ec42d3c23,69b95efdef24cd8a694e89ee,69b96011d3eac86b7e9fe07e,0.0917,0.0917,1,85,247,143,1,eightseven,,,,,,,,,,,,,,,,,,,,,,,,,,,,,,,,,,,,,,,,,,,,,,,,,,,,,,,,,,,,,,,,,,,,,,,,,,,,,,,,,,,,,,,,,,,,,,,,,,,,,,,,,,,,,,,,,,,,,,,,,,,,,,,,,,,,,,,,,
,,641384b3dffcf39ec42d3c23,2026-03-17_14h07.27.671,kallum_motion_pilot_GIST_update_2,2026.1.1,Win32,74.62686567,641384b3dffcf39ec42d3c23,69b95efdef24cd8a694e89ee,69b96011d3eac86b7e9fe07e,0.092,0.092,1,86,248,8,1,onetwo,,,,,,,,,,,,,,,,,,,,,,,,,,,,,,,,,,,,,,,,,,,,,,,,,,,,,,,,,,,,,,,,,,,,,,,,,,,,,,,,,,,,,,,,,,,,,,,,,,,,,,,,,,,,,,,,,,,,,,,,,,,,,,,,,,,,,,,,,
,,641384b3dffcf39ec42d3c23,2026-03-17_14h07.27.671,kallum_motion_pilot_GIST_update_2,2026.1.1,Win32,74.62686567,641384b3dffcf39ec42d3c23,69b95efdef24cd8a694e89ee,69b96011d3eac86b7e9fe07e,0.0921,0.0921,1,87,249,58,1,twoone,,,,,,,,,,,,,,,,,,,,,,,,,,,,,,,,,,,,,,,,,,,,,,,,,,,,,,,,,,,,,,,,,,,,,,,,,,,,,,,,,,,,,,,,,,,,,,,,,,,,,,,,,,,,,,,,,,,,,,,,,,,,,,,,,,,,,,,,,
,,641384b3dffcf39ec42d3c23,2026-03-17_14h07.27.671,kallum_motion_pilot_GIST_update_2,2026.1.1,Win32,74.62686567,641384b3dffcf39ec42d3c23,69b95efdef24cd8a694e89ee,69b96011d3eac86b7e9fe07e,0.0923,0.0923,1,88,250,127,1,eightseven,,,,,,,,,,,,,,,,,,,,,,,,,,,,,,,,,,,,,,,,,,,,,,,,,,,,,,,,,,,,,,,,,,,,,,,,,,,,,,,,,,,,,,,,,,,,,,,,,,,,,,,,,,,,,,,,,,,,,,,,,,,,,,,,,,,,,,,,,
,,641384b3dffcf39ec42d3c23,2026-03-17_14h07.27.671,kallum_motion_pilot_GIST_update_2,2026.1.1,Win32,74.62686567,641384b3dffcf39ec42d3c23,69b95efdef24cd8a694e89ee,69b96011d3eac86b7e9fe07e,0.0926,0.0926,1,89,251,119,1,eightseven,,,,,,,,,,,,,,,,,,,,,,,,,,,,,,,,,,,,,,,,,,,,,,,,,,,,,,,,,,,,,,,,,,,,,,,,,,,,,,,,,,,,,,,,,,,,,,,,,,,,,,,,,,,,,,,,,,,,,,,,,,,,,,,,,,,,,,,,,
,,641384b3dffcf39ec42d3c23,2026-03-17_14h07.27.671,kallum_motion_pilot_GIST_update_2,2026.1.1,Win32,74.62686567,641384b3dffcf39ec42d3c23,69b95efdef24cd8a694e89ee,69b96011d3eac86b7e9fe07e,0.0927,0.0927,1,90,252,133,1,seveneight,,,,,,,,,,,,,,,,,,,,,,,,,,,,,,,,,,,,,,,,,,,,,,,,,,,,,,,,,,,,,,,,,,,,,,,,,,,,,,,,,,,,,,,,,,,,,,,,,,,,,,,,,,,,,,,,,,,,,,,,,,,,,,,,,,,,,,,,,
,,641384b3dffcf39ec42d3c23,2026-03-17_14h07.27.671,kallum_motion_pilot_GIST_update_2,2026.1.1,Win32,74.62686567,641384b3dffcf39ec42d3c23,69b95efdef24cd8a694e89ee,69b96011d3eac86b7e9fe07e,0.093,0.093,1,91,253,46,1,fourtwo,,,,,,,,,,,,,,,,,,,,,,,,,,,,,,,,,,,,,,,,,,,,,,,,,,,,,,,,,,,,,,,,,,,,,,,,,,,,,,,,,,,,,,,,,,,,,,,,,,,,,,,,,,,,,,,,,,,,,,,,,,,,,,,,,,,,,,,,,
,,641384b3dffcf39ec42d3c23,2026-03-17_14h07.27.671,kallum_motion_pilot_GIST_update_2,2026.1.1,Win32,74.62686567,641384b3dffcf39ec42d3c23,69b95efdef24cd8a694e89ee,69b96011d3eac86b7e9fe07e,0.0932,0.0932,1,92,254,29,1,threefour,,,,,,,,,,,,,,,,,,,,,,,,,,,,,,,,,,,,,,,,,,,,,,,,,,,,,,,,,,,,,,,,,,,,,,,,,,,,,,,,,,,,,,,,,,,,,,,,,,,,,,,,,,,,,,,,,,,,,,,,,,,,,,,,,,,,,,,,,
,,641384b3dffcf39ec42d3c23,2026-03-17_14h07.27.671,kallum_motion_pilot_GIST_update_2,2026.1.1,Win32,74.62686567,641384b3dffcf39ec42d3c23,69b95efdef24cd8a694e89ee,69b96011d3eac86b7e9fe07e,0.0935,0.0935,1,93,255,136,1,fivesix,,,,,,,,,,,,,,,,,,,,,,,,,,,,,,,,,,,,,,,,,,,,,,,,,,,,,,,,,,,,,,,,,,,,,,,,,,,,,,,,,,,,,,,,,,,,,,,,,,,,,,,,,,,,,,,,,,,,,,,,,,,,,,,,,,,,,,,,,
,,641384b3dffcf39ec42d3c23,2026-03-17_14h07.27.671,kallum_motion_pilot_GIST_update_2,2026.1.1,Win32,74.62686567,641384b3dffcf39ec42d3c23,69b95efdef24cd8a694e89ee,69b96011d3eac86b7e9fe07e,0.0937,0.0937,1,94,256,134,1,eightsix,,,,,,,,,,,,,,,,,,,,,,,,,,,,,,,,,,,,,,,,,,,,,,,,,,,,,,,,,,,,,,,,,,,,,,,,,,,,,,,,,,,,,,,,,,,,,,,,,,,,,,,,,,,,,,,,,,,,,,,,,,,,,,,,,,,,,,,,,
,,641384b3dffcf39ec42d3c23,2026-03-17_14h07.27.671,kallum_motion_pilot_GIST_update_2,2026.1.1,Win32,74.62686567,641384b3dffcf39ec42d3c23,69b95efdef24cd8a694e89ee,69b96011d3eac86b7e9fe07e,0.0939,0.0939,1,95,257,45,1,threefour,,,,,,,,,,,,,,,,,,,,,,,,,,,,,,,,,,,,,,,,,,,,,,,,,,,,,,,,,,,,,,,,,,,,,,,,,,,,,,,,,,,,,,,,,,,,,,,,,,,,,,,,,,,,,,,,,,,,,,,,,,,,,,,,,,,,,,,,,
,,641384b3dffcf39ec42d3c23,2026-03-17_14h07.27.671,kallum_motion_pilot_GIST_update_2,2026.1.1,Win32,74.62686567,641384b3dffcf39ec42d3c23,69b95efdef24cd8a694e89ee,69b96011d3eac86b7e9fe07e,0.0942,0.0942,1,96,258,14,1,fourtwo,,,,,,,,,,,,,,,,,,,,,,,,,,,,,,,,,,,,,,,,,,,,,,,,,,,,,,,,,,,,,,,,,,,,,,,,,,,,,,,,,,,,,,,,,,,,,,,,,,,,,,,,,,,,,,,,,,,,,,,,,,,,,,,,,,,,,,,,,
,,641384b3dffcf39ec42d3c23,2026-03-17_14h07.27.671,kallum_motion_pilot_GIST_update_2,2026.1.1,Win32,74.62686567,641384b3dffcf39ec42d3c23,69b95efdef24cd8a694e89ee,69b96011d3eac86b7e9fe07e,0.0943,0.0944,1,97,259,109,1,seveneight,,,,,,,,,,,,,,,,,,,,,,,,,,,,,,,,,,,,,,,,,,,,,,,,,,,,,,,,,,,,,,,,,,,,,,,,,,,,,,,,,,,,,,,,,,,,,,,,,,,,,,,,,,,,,,,,,,,,,,,,,,,,,,,,,,,,,,,,,
,,641384b3dffcf39ec42d3c23,2026-03-17_14h07.27.671,kallum_motion_pilot_GIST_update_2,2026.1.1,Win32,74.62686567,641384b3dffcf39ec42d3c23,69b95efdef24cd8a694e89ee,69b96011d3eac86b7e9fe07e,0.0946,0.0946,1,98,260,36,1,threeone,,,,,,,,,,,,,,,,,,,,,,,,,,,,,,,,,,,,,,,,,,,,,,,,,,,,,,,,,,,,,,,,,,,,,,,,,,,,,,,,,,,,,,,,,,,,,,,,,,,,,,,,,,,,,,,,,,,,,,,,,,,,,,,,,,,,,,,,,
,,641384b3dffcf39ec42d3c23,2026-03-17_14h07.27.671,kallum_motion_pilot_GIST_update_2,2026.1.1,Win32,74.62686567,641384b3dffcf39ec42d3c23,69b95efdef24cd8a694e89ee,69b96011d3eac86b7e9fe07e,0.0947,0.0947,1,99,261,20,1,threeone,,,,,,,,,,,,,,,,,,,,,,,,,,,,,,,,,,,,,,,,,,,,,,,,,,,,,,,,,,,,,,,,,,,,,,,,,,,,,,,,,,,,,,,,,,,,,,,,,,,,,,,,,,,,,,,,,,,,,,,,,,,,,,,,,,,,,,,,,
,,641384b3dffcf39ec42d3c23,2026-03-17_14h07.27.671,kallum_motion_pilot_GIST_update_2,2026.1.1,Win32,74.62686567,641384b3dffcf39ec42d3c23,69b95efdef24cd8a694e89ee,69b96011d3eac86b7e9fe07e,0.0949,0.0949,1,100,262,47,1,fourthree,,,,,,,,,,,,,,,,,,,,,,,,,,,,,,,,,,,,,,,,,,,,,,,,,,,,,,,,,,,,,,,,,,,,,,,,,,,,,,,,,,,,,,,,,,,,,,,,,,,,,,,,,,,,,,,,,,,,,,,,,,,,,,,,,,,,,,,,,
,,641384b3dffcf39ec42d3c23,2026-03-17_14h07.27.671,kallum_motion_pilot_GIST_update_2,2026.1.1,Win32,74.62686567,641384b3dffcf39ec42d3c23,69b95efdef24cd8a694e89ee,69b96011d3eac86b7e9fe07e,0.0953,0.0953,1,101,263,5,1,threefour,,,,,,,,,,,,,,,,,,,,,,,,,,,,,,,,,,,,,,,,,,,,,,,,,,,,,,,,,,,,,,,,,,,,,,,,,,,,,,,,,,,,,,,,,,,,,,,,,,,,,,,,,,,,,,,,,,,,,,,,,,,,,,,,,,,,,,,,,
,,641384b3dffcf39ec42d3c23,2026-03-17_14h07.27.671,kallum_motion_pilot_GIST_update_2,2026.1.1,Win32,74.62686567,641384b3dffcf39ec42d3c23,69b95efdef24cd8a694e89ee,69b96011d3eac86b7e9fe07e,0.0955,0.0955,1,102,264,100,1,sevenfive,,,,,,,,,,,,,,,,,,,,,,,,,,,,,,,,,,,,,,,,,,,,,,,,,,,,,,,,,,,,,,,,,,,,,,,,,,,,,,,,,,,,,,,,,,,,,,,,,,,,,,,,,,,,,,,,,,,,,,,,,,,,,,,,,,,,,,,,,
,,641384b3dffcf39ec42d3c23,2026-03-17_14h07.27.671,kallum_motion_pilot_GIST_update_2,2026.1.1,Win32,74.62686567,641384b3dffcf39ec42d3c23,69b95efdef24cd8a694e89ee,69b96011d3eac86b7e9fe07e,0.0958,0.0958,1,103,265,75,1,twofour,,,,,,,,,,,,,,,,,,,,,,,,,,,,,,,,,,,,,,,,,,,,,,,,,,,,,,,,,,,,,,,,,,,,,,,,,,,,,,,,,,,,,,,,,,,,,,,,,,,,,,,,,,,,,,,,,,,,,,,,,,,,,,,,,,,,,,,,,
,,641384b3dffcf39ec42d3c23,2026-03-17_14h07.27.671,kallum_motion_pilot_GIST_update_2,2026.1.1,Win32,74.62686567,641384b3dffcf39ec42d3c23,69b95efdef24cd8a694e89ee,69b96011d3eac86b7e9fe07e,0.0962,0.0962,1,104,266,112,1,fivesix,,,,,,,,,,,,,,,,,,,,,,,,,,,,,,,,,,,,,,,,,,,,,,,,,,,,,,,,,,,,,,,,,,,,,,,,,,,,,,,,,,,,,,,,,,,,,,,,,,,,,,,,,,,,,,,,,,,,,,,,,,,,,,,,,,,,,,,,,
