startup.started,startup.stopped,Prolific ID*,date,expName,psychopyVersion,OS,frameRate,participant,study_id,session,stimpositions.started,stimpositions.stopped,hardcoded_stimulus_positions.thisRepN,hardcoded_stimulus_positions.thisTrialN,hardcoded_stimulus_positions.thisN,hardcoded_stimulus_positions.thisIndex,hardcoded_stimulus_positions.ran,StimulusPos,stimorientation.started,stimorientation.stopped,prac_stimorientation_import_loop.thisRepN,prac_stimorientation_import_loop.thisTrialN,prac_stimorientation_import_loop.thisN,prac_stimorientation_import_loop.thisIndex,prac_stimorientation_import_loop.ran,Stimorientation,welcome_instr.started,welcome_instr.stopped,key_resp.keys,key_resp.rt,key_resp.duration,response_steppedout_1.started,response_steppedout_1.stopped,key_resp_20.keys,key_resp_20.rt,key_resp_20.duration,response_steppedout_2.started,response_steppedout_2.stopped,key_resp_19.keys,key_resp_19.rt,key_resp_19.duration,stim_response_instr.started,stim_response_instr.stopped,key_resp_15.keys,key_resp_15.rt,key_resp_15.duration,direction_instr_2.started,direction_instr_2.stopped,key_resp_9.keys,key_resp_9.rt,key_resp_9.duration,instr_prac.started,instr_prac.stopped,key_resp_10.keys,key_resp_10.rt,key_resp_10.duration,Stim1_display_prac.started,Stim1_display_prac.stopped,Ecc,Circle1_ori,Circle2_ori,response_prac.started,similarity,response_time,response_prac.stopped,mouse_5.x,mouse_5.y,mouse_5.leftButton,mouse_5.midButton,mouse_5.rightButton,mouse_5.clicked_name,responseprac_feedback.started,responseprac_feedback.stopped,summary2_prac.started,summary2_prac.stopped,mouse_6.x,mouse_6.y,mouse_6.leftButton,mouse_6.midButton,mouse_6.rightButton,mouse_6.clicked_name,duringprac.thisRepN,duringprac.thisTrialN,duringprac.thisN,duringprac.thisIndex,duringprac.ran,begin.started,begin.stopped,key_resp_22.keys,key_resp_22.rt,key_resp_22.duration,Stim1_display.started,Stim1_display.stopped,circle1_ori,circle2_ori,circle1_SF,circle2_SF,response.started,response.stopped,mouse.x,mouse.y,mouse.leftButton,mouse.midButton,mouse.rightButton,mouse.clicked_name,trialnumber,double_pass.thisRepN,double_pass.thisTrialN,double_pass.thisN,double_pass.thisIndex,double_pass.ran,double_pass.order,main_trial.thisRepN,main_trial.thisTrialN,main_trial.thisN,main_trial.thisIndex,main_trial.ran,main_trial.order,Trial_Counter,Catch,Frequencies,response_2.started,response_2.stopped,mouse_2.x,mouse_2.y,mouse_2.leftButton,mouse_2.midButton,mouse_2.rightButton,mouse_2.clicked_name,special_trial.started,special_trial.stopped,catch_1.started,catch_1.stopped,mouse_3.x,mouse_3.y,mouse_3.leftButton,mouse_3.midButton,mouse_3.rightButton,catchresponse,catchnumber,response_time_catch,response_sum.started,response_sum.stopped,mouse_11.x,mouse_11.y,mouse_11.leftButton,mouse_11.midButton,mouse_11.rightButton,flip_presentation_sequence_for_double_pass.started,flip_presentation_sequence_for_double_pass.stopped,goodbye.started,goodbye.stopped,key_resp_3.keys,key_resp_3.rt,key_resp_3.duration
0.001,0.0013,65e6f4d668bfc2134b26348e,2026-03-17_16h10.11.672,kallum_motion_pilot_GIST_update_2,2026.1.1,Win32,29.94011976,65e6f4d668bfc2134b26348e,69b95efdef24cd8a694e89ee,69b960b7b7c602b7011d0e1b,,,,,,,,,,,,,,,,,,,,,,,,,,,,,,,,,,,,,,,,,,,,,,,,,,,,,,,,,,,,,,,,,,,,,,,,,,,,,,,,,,,,,,,,,,,,,,,,,,,,,,,,,,,,,,,,,,,,,,,,,,,,,,,,,,,,,,,,,,,,,,,,,
,,65e6f4d668bfc2134b26348e,2026-03-17_16h10.11.672,kallum_motion_pilot_GIST_update_2,2026.1.1,Win32,29.94011976,65e6f4d668bfc2134b26348e,69b95efdef24cd8a694e89ee,69b960b7b7c602b7011d0e1b,0.0557,0.056,0,0,0,107,1,sixeight,,,,,,,,,,,,,,,,,,,,,,,,,,,,,,,,,,,,,,,,,,,,,,,,,,,,,,,,,,,,,,,,,,,,,,,,,,,,,,,,,,,,,,,,,,,,,,,,,,,,,,,,,,,,,,,,,,,,,,,,,,,,,,,,,,,,,,,,,
,,65e6f4d668bfc2134b26348e,2026-03-17_16h10.11.672,kallum_motion_pilot_GIST_update_2,2026.1.1,Win32,29.94011976,65e6f4d668bfc2134b26348e,69b95efdef24cd8a694e89ee,69b960b7b7c602b7011d0e1b,0.0568,0.0568,0,1,1,69,1,threefour,,,,,,,,,,,,,,,,,,,,,,,,,,,,,,,,,,,,,,,,,,,,,,,,,,,,,,,,,,,,,,,,,,,,,,,,,,,,,,,,,,,,,,,,,,,,,,,,,,,,,,,,,,,,,,,,,,,,,,,,,,,,,,,,,,,,,,,,,
,,65e6f4d668bfc2134b26348e,2026-03-17_16h10.11.672,kallum_motion_pilot_GIST_update_2,2026.1.1,Win32,29.94011976,65e6f4d668bfc2134b26348e,69b95efdef24cd8a694e89ee,69b960b7b7c602b7011d0e1b,0.0575,0.0575,0,2,2,153,1,fiveseven,,,,,,,,,,,,,,,,,,,,,,,,,,,,,,,,,,,,,,,,,,,,,,,,,,,,,,,,,,,,,,,,,,,,,,,,,,,,,,,,,,,,,,,,,,,,,,,,,,,,,,,,,,,,,,,,,,,,,,,,,,,,,,,,,,,,,,,,,
,,65e6f4d668bfc2134b26348e,2026-03-17_16h10.11.672,kallum_motion_pilot_GIST_update_2,2026.1.1,Win32,29.94011976,65e6f4d668bfc2134b26348e,69b95efdef24cd8a694e89ee,69b960b7b7c602b7011d0e1b,0.0581,0.0581,0,3,3,68,1,threeone,,,,,,,,,,,,,,,,,,,,,,,,,,,,,,,,,,,,,,,,,,,,,,,,,,,,,,,,,,,,,,,,,,,,,,,,,,,,,,,,,,,,,,,,,,,,,,,,,,,,,,,,,,,,,,,,,,,,,,,,,,,,,,,,,,,,,,,,,
,,65e6f4d668bfc2134b26348e,2026-03-17_16h10.11.672,kallum_motion_pilot_GIST_update_2,2026.1.1,Win32,29.94011976,65e6f4d668bfc2134b26348e,69b95efdef24cd8a694e89ee,69b960b7b7c602b7011d0e1b,0.0586,0.0586,0,4,4,145,1,fiveseven,,,,,,,,,,,,,,,,,,,,,,,,,,,,,,,,,,,,,,,,,,,,,,,,,,,,,,,,,,,,,,,,,,,,,,,,,,,,,,,,,,,,,,,,,,,,,,,,,,,,,,,,,,,,,,,,,,,,,,,,,,,,,,,,,,,,,,,,,
,,65e6f4d668bfc2134b26348e,2026-03-17_16h10.11.672,kallum_motion_pilot_GIST_update_2,2026.1.1,Win32,29.94011976,65e6f4d668bfc2134b26348e,69b95efdef24cd8a694e89ee,69b960b7b7c602b7011d0e1b,0.0589,0.0589,0,5,5,113,1,fiveseven,,,,,,,,,,,,,,,,,,,,,,,,,,,,,,,,,,,,,,,,,,,,,,,,,,,,,,,,,,,,,,,,,,,,,,,,,,,,,,,,,,,,,,,,,,,,,,,,,,,,,,,,,,,,,,,,,,,,,,,,,,,,,,,,,,,,,,,,,
,,65e6f4d668bfc2134b26348e,2026-03-17_16h10.11.672,kallum_motion_pilot_GIST_update_2,2026.1.1,Win32,29.94011976,65e6f4d668bfc2134b26348e,69b95efdef24cd8a694e89ee,69b960b7b7c602b7011d0e1b,0.0593,0.0593,0,6,6,97,1,fiveseven,,,,,,,,,,,,,,,,,,,,,,,,,,,,,,,,,,,,,,,,,,,,,,,,,,,,,,,,,,,,,,,,,,,,,,,,,,,,,,,,,,,,,,,,,,,,,,,,,,,,,,,,,,,,,,,,,,,,,,,,,,,,,,,,,,,,,,,,,
,,65e6f4d668bfc2134b26348e,2026-03-17_16h10.11.672,kallum_motion_pilot_GIST_update_2,2026.1.1,Win32,29.94011976,65e6f4d668bfc2134b26348e,69b95efdef24cd8a694e89ee,69b960b7b7c602b7011d0e1b,0.06,0.06,0,7,7,1,1,onethree,,,,,,,,,,,,,,,,,,,,,,,,,,,,,,,,,,,,,,,,,,,,,,,,,,,,,,,,,,,,,,,,,,,,,,,,,,,,,,,,,,,,,,,,,,,,,,,,,,,,,,,,,,,,,,,,,,,,,,,,,,,,,,,,,,,,,,,,,
,,65e6f4d668bfc2134b26348e,2026-03-17_16h10.11.672,kallum_motion_pilot_GIST_update_2,2026.1.1,Win32,29.94011976,65e6f4d668bfc2134b26348e,69b95efdef24cd8a694e89ee,69b960b7b7c602b7011d0e1b,0.0603,0.0604,0,8,8,24,1,onetwo,,,,,,,,,,,,,,,,,,,,,,,,,,,,,,,,,,,,,,,,,,,,,,,,,,,,,,,,,,,,,,,,,,,,,,,,,,,,,,,,,,,,,,,,,,,,,,,,,,,,,,,,,,,,,,,,,,,,,,,,,,,,,,,,,,,,,,,,,
,,65e6f4d668bfc2134b26348e,2026-03-17_16h10.11.672,kallum_motion_pilot_GIST_update_2,2026.1.1,Win32,29.94011976,65e6f4d668bfc2134b26348e,69b95efdef24cd8a694e89ee,69b960b7b7c602b7011d0e1b,0.0609,0.061,0,9,9,26,1,twoone,,,,,,,,,,,,,,,,,,,,,,,,,,,,,,,,,,,,,,,,,,,,,,,,,,,,,,,,,,,,,,,,,,,,,,,,,,,,,,,,,,,,,,,,,,,,,,,,,,,,,,,,,,,,,,,,,,,,,,,,,,,,,,,,,,,,,,,,,
,,65e6f4d668bfc2134b26348e,2026-03-17_16h10.11.672,kallum_motion_pilot_GIST_update_2,2026.1.1,Win32,29.94011976,65e6f4d668bfc2134b26348e,69b95efdef24cd8a694e89ee,69b960b7b7c602b7011d0e1b,0.0613,0.0613,0,10,10,137,1,fiveseven,,,,,,,,,,,,,,,,,,,,,,,,,,,,,,,,,,,,,,,,,,,,,,,,,,,,,,,,,,,,,,,,,,,,,,,,,,,,,,,,,,,,,,,,,,,,,,,,,,,,,,,,,,,,,,,,,,,,,,,,,,,,,,,,,,,,,,,,,
,,65e6f4d668bfc2134b26348e,2026-03-17_16h10.11.672,kallum_motion_pilot_GIST_update_2,2026.1.1,Win32,29.94011976,65e6f4d668bfc2134b26348e,69b95efdef24cd8a694e89ee,69b960b7b7c602b7011d0e1b,0.0617,0.0617,0,11,11,70,1,fourtwo,,,,,,,,,,,,,,,,,,,,,,,,,,,,,,,,,,,,,,,,,,,,,,,,,,,,,,,,,,,,,,,,,,,,,,,,,,,,,,,,,,,,,,,,,,,,,,,,,,,,,,,,,,,,,,,,,,,,,,,,,,,,,,,,,,,,,,,,,
,,65e6f4d668bfc2134b26348e,2026-03-17_16h10.11.672,kallum_motion_pilot_GIST_update_2,2026.1.1,Win32,29.94011976,65e6f4d668bfc2134b26348e,69b95efdef24cd8a694e89ee,69b960b7b7c602b7011d0e1b,0.0621,0.0621,0,12,12,62,1,fourtwo,,,,,,,,,,,,,,,,,,,,,,,,,,,,,,,,,,,,,,,,,,,,,,,,,,,,,,,,,,,,,,,,,,,,,,,,,,,,,,,,,,,,,,,,,,,,,,,,,,,,,,,,,,,,,,,,,,,,,,,,,,,,,,,,,,,,,,,,,
,,65e6f4d668bfc2134b26348e,2026-03-17_16h10.11.672,kallum_motion_pilot_GIST_update_2,2026.1.1,Win32,29.94011976,65e6f4d668bfc2134b26348e,69b95efdef24cd8a694e89ee,69b960b7b7c602b7011d0e1b,0.0624,0.0625,0,13,13,157,1,seveneight,,,,,,,,,,,,,,,,,,,,,,,,,,,,,,,,,,,,,,,,,,,,,,,,,,,,,,,,,,,,,,,,,,,,,,,,,,,,,,,,,,,,,,,,,,,,,,,,,,,,,,,,,,,,,,,,,,,,,,,,,,,,,,,,,,,,,,,,,
,,65e6f4d668bfc2134b26348e,2026-03-17_16h10.11.672,kallum_motion_pilot_GIST_update_2,2026.1.1,Win32,29.94011976,65e6f4d668bfc2134b26348e,69b95efdef24cd8a694e89ee,69b960b7b7c602b7011d0e1b,0.0628,0.0629,0,14,14,27,1,twofour,,,,,,,,,,,,,,,,,,,,,,,,,,,,,,,,,,,,,,,,,,,,,,,,,,,,,,,,,,,,,,,,,,,,,,,,,,,,,,,,,,,,,,,,,,,,,,,,,,,,,,,,,,,,,,,,,,,,,,,,,,,,,,,,,,,,,,,,,
,,65e6f4d668bfc2134b26348e,2026-03-17_16h10.11.672,kallum_motion_pilot_GIST_update_2,2026.1.1,Win32,29.94011976,65e6f4d668bfc2134b26348e,69b95efdef24cd8a694e89ee,69b960b7b7c602b7011d0e1b,0.0632,0.0632,0,15,15,89,1,fiveseven,,,,,,,,,,,,,,,,,,,,,,,,,,,,,,,,,,,,,,,,,,,,,,,,,,,,,,,,,,,,,,,,,,,,,,,,,,,,,,,,,,,,,,,,,,,,,,,,,,,,,,,,,,,,,,,,,,,,,,,,,,,,,,,,,,,,,,,,,
,,65e6f4d668bfc2134b26348e,2026-03-17_16h10.11.672,kallum_motion_pilot_GIST_update_2,2026.1.1,Win32,29.94011976,65e6f4d668bfc2134b26348e,69b95efdef24cd8a694e89ee,69b960b7b7c602b7011d0e1b,0.0635,0.0635,0,16,16,104,1,fivesix,,,,,,,,,,,,,,,,,,,,,,,,,,,,,,,,,,,,,,,,,,,,,,,,,,,,,,,,,,,,,,,,,,,,,,,,,,,,,,,,,,,,,,,,,,,,,,,,,,,,,,,,,,,,,,,,,,,,,,,,,,,,,,,,,,,,,,,,,
,,65e6f4d668bfc2134b26348e,2026-03-17_16h10.11.672,kallum_motion_pilot_GIST_update_2,2026.1.1,Win32,29.94011976,65e6f4d668bfc2134b26348e,69b95efdef24cd8a694e89ee,69b960b7b7c602b7011d0e1b,0.0639,0.0639,0,17,17,36,1,threeone,,,,,,,,,,,,,,,,,,,,,,,,,,,,,,,,,,,,,,,,,,,,,,,,,,,,,,,,,,,,,,,,,,,,,,,,,,,,,,,,,,,,,,,,,,,,,,,,,,,,,,,,,,,,,,,,,,,,,,,,,,,,,,,,,,,,,,,,,
,,65e6f4d668bfc2134b26348e,2026-03-17_16h10.11.672,kallum_motion_pilot_GIST_update_2,2026.1.1,Win32,29.94011976,65e6f4d668bfc2134b26348e,69b95efdef24cd8a694e89ee,69b960b7b7c602b7011d0e1b,0.0643,0.0643,0,18,18,102,1,eightsix,,,,,,,,,,,,,,,,,,,,,,,,,,,,,,,,,,,,,,,,,,,,,,,,,,,,,,,,,,,,,,,,,,,,,,,,,,,,,,,,,,,,,,,,,,,,,,,,,,,,,,,,,,,,,,,,,,,,,,,,,,,,,,,,,,,,,,,,,
,,65e6f4d668bfc2134b26348e,2026-03-17_16h10.11.672,kallum_motion_pilot_GIST_update_2,2026.1.1,Win32,29.94011976,65e6f4d668bfc2134b26348e,69b95efdef24cd8a694e89ee,69b960b7b7c602b7011d0e1b,0.0647,0.0647,0,19,19,99,1,sixeight,,,,,,,,,,,,,,,,,,,,,,,,,,,,,,,,,,,,,,,,,,,,,,,,,,,,,,,,,,,,,,,,,,,,,,,,,,,,,,,,,,,,,,,,,,,,,,,,,,,,,,,,,,,,,,,,,,,,,,,,,,,,,,,,,,,,,,,,,
,,65e6f4d668bfc2134b26348e,2026-03-17_16h10.11.672,kallum_motion_pilot_GIST_update_2,2026.1.1,Win32,29.94011976,65e6f4d668bfc2134b26348e,69b95efdef24cd8a694e89ee,69b960b7b7c602b7011d0e1b,0.065,0.0651,0,20,20,117,1,seveneight,,,,,,,,,,,,,,,,,,,,,,,,,,,,,,,,,,,,,,,,,,,,,,,,,,,,,,,,,,,,,,,,,,,,,,,,,,,,,,,,,,,,,,,,,,,,,,,,,,,,,,,,,,,,,,,,,,,,,,,,,,,,,,,,,,,,,,,,,
,,65e6f4d668bfc2134b26348e,2026-03-17_16h10.11.672,kallum_motion_pilot_GIST_update_2,2026.1.1,Win32,29.94011976,65e6f4d668bfc2134b26348e,69b95efdef24cd8a694e89ee,69b960b7b7c602b7011d0e1b,0.0654,0.0654,0,21,21,55,1,fourthree,,,,,,,,,,,,,,,,,,,,,,,,,,,,,,,,,,,,,,,,,,,,,,,,,,,,,,,,,,,,,,,,,,,,,,,,,,,,,,,,,,,,,,,,,,,,,,,,,,,,,,,,,,,,,,,,,,,,,,,,,,,,,,,,,,,,,,,,,
,,65e6f4d668bfc2134b26348e,2026-03-17_16h10.11.672,kallum_motion_pilot_GIST_update_2,2026.1.1,Win32,29.94011976,65e6f4d668bfc2134b26348e,69b95efdef24cd8a694e89ee,69b960b7b7c602b7011d0e1b,0.0658,0.0658,0,22,22,80,1,fivesix,,,,,,,,,,,,,,,,,,,,,,,,,,,,,,,,,,,,,,,,,,,,,,,,,,,,,,,,,,,,,,,,,,,,,,,,,,,,,,,,,,,,,,,,,,,,,,,,,,,,,,,,,,,,,,,,,,,,,,,,,,,,,,,,,,,,,,,,,
,,65e6f4d668bfc2134b26348e,2026-03-17_16h10.11.672,kallum_motion_pilot_GIST_update_2,2026.1.1,Win32,29.94011976,65e6f4d668bfc2134b26348e,69b95efdef24cd8a694e89ee,69b960b7b7c602b7011d0e1b,0.0661,0.0662,0,23,23,147,1,sixeight,,,,,,,,,,,,,,,,,,,,,,,,,,,,,,,,,,,,,,,,,,,,,,,,,,,,,,,,,,,,,,,,,,,,,,,,,,,,,,,,,,,,,,,,,,,,,,,,,,,,,,,,,,,,,,,,,,,,,,,,,,,,,,,,,,,,,,,,,
,,65e6f4d668bfc2134b26348e,2026-03-17_16h10.11.672,kallum_motion_pilot_GIST_update_2,2026.1.1,Win32,29.94011976,65e6f4d668bfc2134b26348e,69b95efdef24cd8a694e89ee,69b960b7b7c602b7011d0e1b,0.0667,0.0667,0,24,24,123,1,sixeight,,,,,,,,,,,,,,,,,,,,,,,,,,,,,,,,,,,,,,,,,,,,,,,,,,,,,,,,,,,,,,,,,,,,,,,,,,,,,,,,,,,,,,,,,,,,,,,,,,,,,,,,,,,,,,,,,,,,,,,,,,,,,,,,,,,,,,,,,
,,65e6f4d668bfc2134b26348e,2026-03-17_16h10.11.672,kallum_motion_pilot_GIST_update_2,2026.1.1,Win32,29.94011976,65e6f4d668bfc2134b26348e,69b95efdef24cd8a694e89ee,69b960b7b7c602b7011d0e1b,0.067,0.067,0,25,25,81,1,fiveseven,,,,,,,,,,,,,,,,,,,,,,,,,,,,,,,,,,,,,,,,,,,,,,,,,,,,,,,,,,,,,,,,,,,,,,,,,,,,,,,,,,,,,,,,,,,,,,,,,,,,,,,,,,,,,,,,,,,,,,,,,,,,,,,,,,,,,,,,,
,,65e6f4d668bfc2134b26348e,2026-03-17_16h10.11.672,kallum_motion_pilot_GIST_update_2,2026.1.1,Win32,29.94011976,65e6f4d668bfc2134b26348e,69b95efdef24cd8a694e89ee,69b960b7b7c602b7011d0e1b,0.0674,0.0674,0,26,26,141,1,seveneight,,,,,,,,,,,,,,,,,,,,,,,,,,,,,,,,,,,,,,,,,,,,,,,,,,,,,,,,,,,,,,,,,,,,,,,,,,,,,,,,,,,,,,,,,,,,,,,,,,,,,,,,,,,,,,,,,,,,,,,,,,,,,,,,,,,,,,,,,
,,65e6f4d668bfc2134b26348e,2026-03-17_16h10.11.672,kallum_motion_pilot_GIST_update_2,2026.1.1,Win32,29.94011976,65e6f4d668bfc2134b26348e,69b95efdef24cd8a694e89ee,69b960b7b7c602b7011d0e1b,0.0678,0.0678,0,27,27,44,1,threeone,,,,,,,,,,,,,,,,,,,,,,,,,,,,,,,,,,,,,,,,,,,,,,,,,,,,,,,,,,,,,,,,,,,,,,,,,,,,,,,,,,,,,,,,,,,,,,,,,,,,,,,,,,,,,,,,,,,,,,,,,,,,,,,,,,,,,,,,,
,,65e6f4d668bfc2134b26348e,2026-03-17_16h10.11.672,kallum_motion_pilot_GIST_update_2,2026.1.1,Win32,29.94011976,65e6f4d668bfc2134b26348e,69b95efdef24cd8a694e89ee,69b960b7b7c602b7011d0e1b,0.0681,0.0681,0,28,28,132,1,sevenfive,,,,,,,,,,,,,,,,,,,,,,,,,,,,,,,,,,,,,,,,,,,,,,,,,,,,,,,,,,,,,,,,,,,,,,,,,,,,,,,,,,,,,,,,,,,,,,,,,,,,,,,,,,,,,,,,,,,,,,,,,,,,,,,,,,,,,,,,,
,,65e6f4d668bfc2134b26348e,2026-03-17_16h10.11.672,kallum_motion_pilot_GIST_update_2,2026.1.1,Win32,29.94011976,65e6f4d668bfc2134b26348e,69b95efdef24cd8a694e89ee,69b960b7b7c602b7011d0e1b,0.0685,0.0685,0,29,29,23,1,fourthree,,,,,,,,,,,,,,,,,,,,,,,,,,,,,,,,,,,,,,,,,,,,,,,,,,,,,,,,,,,,,,,,,,,,,,,,,,,,,,,,,,,,,,,,,,,,,,,,,,,,,,,,,,,,,,,,,,,,,,,,,,,,,,,,,,,,,,,,,
,,65e6f4d668bfc2134b26348e,2026-03-17_16h10.11.672,kallum_motion_pilot_GIST_update_2,2026.1.1,Win32,29.94011976,65e6f4d668bfc2134b26348e,69b95efdef24cd8a694e89ee,69b960b7b7c602b7011d0e1b,0.0688,0.0688,0,30,30,92,1,sevenfive,,,,,,,,,,,,,,,,,,,,,,,,,,,,,,,,,,,,,,,,,,,,,,,,,,,,,,,,,,,,,,,,,,,,,,,,,,,,,,,,,,,,,,,,,,,,,,,,,,,,,,,,,,,,,,,,,,,,,,,,,,,,,,,,,,,,,,,,,
,,65e6f4d668bfc2134b26348e,2026-03-17_16h10.11.672,kallum_motion_pilot_GIST_update_2,2026.1.1,Win32,29.94011976,65e6f4d668bfc2134b26348e,69b95efdef24cd8a694e89ee,69b960b7b7c602b7011d0e1b,0.0692,0.0692,0,31,31,67,1,twofour,,,,,,,,,,,,,,,,,,,,,,,,,,,,,,,,,,,,,,,,,,,,,,,,,,,,,,,,,,,,,,,,,,,,,,,,,,,,,,,,,,,,,,,,,,,,,,,,,,,,,,,,,,,,,,,,,,,,,,,,,,,,,,,,,,,,,,,,,
,,65e6f4d668bfc2134b26348e,2026-03-17_16h10.11.672,kallum_motion_pilot_GIST_update_2,2026.1.1,Win32,29.94011976,65e6f4d668bfc2134b26348e,69b95efdef24cd8a694e89ee,69b960b7b7c602b7011d0e1b,0.0697,0.0698,0,32,32,32,1,onetwo,,,,,,,,,,,,,,,,,,,,,,,,,,,,,,,,,,,,,,,,,,,,,,,,,,,,,,,,,,,,,,,,,,,,,,,,,,,,,,,,,,,,,,,,,,,,,,,,,,,,,,,,,,,,,,,,,,,,,,,,,,,,,,,,,,,,,,,,,
,,65e6f4d668bfc2134b26348e,2026-03-17_16h10.11.672,kallum_motion_pilot_GIST_update_2,2026.1.1,Win32,29.94011976,65e6f4d668bfc2134b26348e,69b95efdef24cd8a694e89ee,69b960b7b7c602b7011d0e1b,0.0701,0.0701,0,33,33,39,1,fourthree,,,,,,,,,,,,,,,,,,,,,,,,,,,,,,,,,,,,,,,,,,,,,,,,,,,,,,,,,,,,,,,,,,,,,,,,,,,,,,,,,,,,,,,,,,,,,,,,,,,,,,,,,,,,,,,,,,,,,,,,,,,,,,,,,,,,,,,,,
,,65e6f4d668bfc2134b26348e,2026-03-17_16h10.11.672,kallum_motion_pilot_GIST_update_2,2026.1.1,Win32,29.94011976,65e6f4d668bfc2134b26348e,69b95efdef24cd8a694e89ee,69b960b7b7c602b7011d0e1b,0.0705,0.0705,0,34,34,72,1,onetwo,,,,,,,,,,,,,,,,,,,,,,,,,,,,,,,,,,,,,,,,,,,,,,,,,,,,,,,,,,,,,,,,,,,,,,,,,,,,,,,,,,,,,,,,,,,,,,,,,,,,,,,,,,,,,,,,,,,,,,,,,,,,,,,,,,,,,,,,,
,,65e6f4d668bfc2134b26348e,2026-03-17_16h10.11.672,kallum_motion_pilot_GIST_update_2,2026.1.1,Win32,29.94011976,65e6f4d668bfc2134b26348e,69b95efdef24cd8a694e89ee,69b960b7b7c602b7011d0e1b,0.0708,0.0709,0,35,35,12,1,threeone,,,,,,,,,,,,,,,,,,,,,,,,,,,,,,,,,,,,,,,,,,,,,,,,,,,,,,,,,,,,,,,,,,,,,,,,,,,,,,,,,,,,,,,,,,,,,,,,,,,,,,,,,,,,,,,,,,,,,,,,,,,,,,,,,,,,,,,,,
,,65e6f4d668bfc2134b26348e,2026-03-17_16h10.11.672,kallum_motion_pilot_GIST_update_2,2026.1.1,Win32,29.94011976,65e6f4d668bfc2134b26348e,69b95efdef24cd8a694e89ee,69b960b7b7c602b7011d0e1b,0.0712,0.0712,0,36,36,85,1,seveneight,,,,,,,,,,,,,,,,,,,,,,,,,,,,,,,,,,,,,,,,,,,,,,,,,,,,,,,,,,,,,,,,,,,,,,,,,,,,,,,,,,,,,,,,,,,,,,,,,,,,,,,,,,,,,,,,,,,,,,,,,,,,,,,,,,,,,,,,,
,,65e6f4d668bfc2134b26348e,2026-03-17_16h10.11.672,kallum_motion_pilot_GIST_update_2,2026.1.1,Win32,29.94011976,65e6f4d668bfc2134b26348e,69b95efdef24cd8a694e89ee,69b960b7b7c602b7011d0e1b,0.0716,0.0716,0,37,37,135,1,eightseven,,,,,,,,,,,,,,,,,,,,,,,,,,,,,,,,,,,,,,,,,,,,,,,,,,,,,,,,,,,,,,,,,,,,,,,,,,,,,,,,,,,,,,,,,,,,,,,,,,,,,,,,,,,,,,,,,,,,,,,,,,,,,,,,,,,,,,,,,
,,65e6f4d668bfc2134b26348e,2026-03-17_16h10.11.672,kallum_motion_pilot_GIST_update_2,2026.1.1,Win32,29.94011976,65e6f4d668bfc2134b26348e,69b95efdef24cd8a694e89ee,69b960b7b7c602b7011d0e1b,0.0719,0.072,0,38,38,136,1,fivesix,,,,,,,,,,,,,,,,,,,,,,,,,,,,,,,,,,,,,,,,,,,,,,,,,,,,,,,,,,,,,,,,,,,,,,,,,,,,,,,,,,,,,,,,,,,,,,,,,,,,,,,,,,,,,,,,,,,,,,,,,,,,,,,,,,,,,,,,,
,,65e6f4d668bfc2134b26348e,2026-03-17_16h10.11.672,kallum_motion_pilot_GIST_update_2,2026.1.1,Win32,29.94011976,65e6f4d668bfc2134b26348e,69b95efdef24cd8a694e89ee,69b960b7b7c602b7011d0e1b,0.0723,0.0724,0,39,39,159,1,eightseven,,,,,,,,,,,,,,,,,,,,,,,,,,,,,,,,,,,,,,,,,,,,,,,,,,,,,,,,,,,,,,,,,,,,,,,,,,,,,,,,,,,,,,,,,,,,,,,,,,,,,,,,,,,,,,,,,,,,,,,,,,,,,,,,,,,,,,,,,
,,65e6f4d668bfc2134b26348e,2026-03-17_16h10.11.672,kallum_motion_pilot_GIST_update_2,2026.1.1,Win32,29.94011976,65e6f4d668bfc2134b26348e,69b95efdef24cd8a694e89ee,69b960b7b7c602b7011d0e1b,0.0727,0.0728,0,40,40,14,1,fourtwo,,,,,,,,,,,,,,,,,,,,,,,,,,,,,,,,,,,,,,,,,,,,,,,,,,,,,,,,,,,,,,,,,,,,,,,,,,,,,,,,,,,,,,,,,,,,,,,,,,,,,,,,,,,,,,,,,,,,,,,,,,,,,,,,,,,,,,,,,
,,65e6f4d668bfc2134b26348e,2026-03-17_16h10.11.672,kallum_motion_pilot_GIST_update_2,2026.1.1,Win32,29.94011976,65e6f4d668bfc2134b26348e,69b95efdef24cd8a694e89ee,69b960b7b7c602b7011d0e1b,0.0731,0.0731,0,41,41,94,1,eightsix,,,,,,,,,,,,,,,,,,,,,,,,,,,,,,,,,,,,,,,,,,,,,,,,,,,,,,,,,,,,,,,,,,,,,,,,,,,,,,,,,,,,,,,,,,,,,,,,,,,,,,,,,,,,,,,,,,,,,,,,,,,,,,,,,,,,,,,,,
,,65e6f4d668bfc2134b26348e,2026-03-17_16h10.11.672,kallum_motion_pilot_GIST_update_2,2026.1.1,Win32,29.94011976,65e6f4d668bfc2134b26348e,69b95efdef24cd8a694e89ee,69b960b7b7c602b7011d0e1b,0.0735,0.0735,0,42,42,17,1,onethree,,,,,,,,,,,,,,,,,,,,,,,,,,,,,,,,,,,,,,,,,,,,,,,,,,,,,,,,,,,,,,,,,,,,,,,,,,,,,,,,,,,,,,,,,,,,,,,,,,,,,,,,,,,,,,,,,,,,,,,,,,,,,,,,,,,,,,,,,
,,65e6f4d668bfc2134b26348e,2026-03-17_16h10.11.672,kallum_motion_pilot_GIST_update_2,2026.1.1,Win32,29.94011976,65e6f4d668bfc2134b26348e,69b95efdef24cd8a694e89ee,69b960b7b7c602b7011d0e1b,0.0742,0.0744,0,43,43,65,1,onethree,,,,,,,,,,,,,,,,,,,,,,,,,,,,,,,,,,,,,,,,,,,,,,,,,,,,,,,,,,,,,,,,,,,,,,,,,,,,,,,,,,,,,,,,,,,,,,,,,,,,,,,,,,,,,,,,,,,,,,,,,,,,,,,,,,,,,,,,,
,,65e6f4d668bfc2134b26348e,2026-03-17_16h10.11.672,kallum_motion_pilot_GIST_update_2,2026.1.1,Win32,29.94011976,65e6f4d668bfc2134b26348e,69b95efdef24cd8a694e89ee,69b960b7b7c602b7011d0e1b,0.0748,0.0748,0,44,44,146,1,sixfive,,,,,,,,,,,,,,,,,,,,,,,,,,,,,,,,,,,,,,,,,,,,,,,,,,,,,,,,,,,,,,,,,,,,,,,,,,,,,,,,,,,,,,,,,,,,,,,,,,,,,,,,,,,,,,,,,,,,,,,,,,,,,,,,,,,,,,,,,
,,65e6f4d668bfc2134b26348e,2026-03-17_16h10.11.672,kallum_motion_pilot_GIST_update_2,2026.1.1,Win32,29.94011976,65e6f4d668bfc2134b26348e,69b95efdef24cd8a694e89ee,69b960b7b7c602b7011d0e1b,0.0751,0.0752,0,45,45,22,1,fourtwo,,,,,,,,,,,,,,,,,,,,,,,,,,,,,,,,,,,,,,,,,,,,,,,,,,,,,,,,,,,,,,,,,,,,,,,,,,,,,,,,,,,,,,,,,,,,,,,,,,,,,,,,,,,,,,,,,,,,,,,,,,,,,,,,,,,,,,,,,
,,65e6f4d668bfc2134b26348e,2026-03-17_16h10.11.672,kallum_motion_pilot_GIST_update_2,2026.1.1,Win32,29.94011976,65e6f4d668bfc2134b26348e,69b95efdef24cd8a694e89ee,69b960b7b7c602b7011d0e1b,0.0755,0.0756,0,46,46,60,1,threeone,,,,,,,,,,,,,,,,,,,,,,,,,,,,,,,,,,,,,,,,,,,,,,,,,,,,,,,,,,,,,,,,,,,,,,,,,,,,,,,,,,,,,,,,,,,,,,,,,,,,,,,,,,,,,,,,,,,,,,,,,,,,,,,,,,,,,,,,,
,,65e6f4d668bfc2134b26348e,2026-03-17_16h10.11.672,kallum_motion_pilot_GIST_update_2,2026.1.1,Win32,29.94011976,65e6f4d668bfc2134b26348e,69b95efdef24cd8a694e89ee,69b960b7b7c602b7011d0e1b,0.0758,0.0759,0,47,47,90,1,sixfive,,,,,,,,,,,,,,,,,,,,,,,,,,,,,,,,,,,,,,,,,,,,,,,,,,,,,,,,,,,,,,,,,,,,,,,,,,,,,,,,,,,,,,,,,,,,,,,,,,,,,,,,,,,,,,,,,,,,,,,,,,,,,,,,,,,,,,,,,
,,65e6f4d668bfc2134b26348e,2026-03-17_16h10.11.672,kallum_motion_pilot_GIST_update_2,2026.1.1,Win32,29.94011976,65e6f4d668bfc2134b26348e,69b95efdef24cd8a694e89ee,69b960b7b7c602b7011d0e1b,0.0762,0.0762,0,48,48,148,1,sevenfive,,,,,,,,,,,,,,,,,,,,,,,,,,,,,,,,,,,,,,,,,,,,,,,,,,,,,,,,,,,,,,,,,,,,,,,,,,,,,,,,,,,,,,,,,,,,,,,,,,,,,,,,,,,,,,,,,,,,,,,,,,,,,,,,,,,,,,,,,
,,65e6f4d668bfc2134b26348e,2026-03-17_16h10.11.672,kallum_motion_pilot_GIST_update_2,2026.1.1,Win32,29.94011976,65e6f4d668bfc2134b26348e,69b95efdef24cd8a694e89ee,69b960b7b7c602b7011d0e1b,0.0765,0.0766,0,49,49,106,1,sixfive,,,,,,,,,,,,,,,,,,,,,,,,,,,,,,,,,,,,,,,,,,,,,,,,,,,,,,,,,,,,,,,,,,,,,,,,,,,,,,,,,,,,,,,,,,,,,,,,,,,,,,,,,,,,,,,,,,,,,,,,,,,,,,,,,,,,,,,,,
,,65e6f4d668bfc2134b26348e,2026-03-17_16h10.11.672,kallum_motion_pilot_GIST_update_2,2026.1.1,Win32,29.94011976,65e6f4d668bfc2134b26348e,69b95efdef24cd8a694e89ee,69b960b7b7c602b7011d0e1b,0.0769,0.0769,0,50,50,77,1,threefour,,,,,,,,,,,,,,,,,,,,,,,,,,,,,,,,,,,,,,,,,,,,,,,,,,,,,,,,,,,,,,,,,,,,,,,,,,,,,,,,,,,,,,,,,,,,,,,,,,,,,,,,,,,,,,,,,,,,,,,,,,,,,,,,,,,,,,,,,
,,65e6f4d668bfc2134b26348e,2026-03-17_16h10.11.672,kallum_motion_pilot_GIST_update_2,2026.1.1,Win32,29.94011976,65e6f4d668bfc2134b26348e,69b95efdef24cd8a694e89ee,69b960b7b7c602b7011d0e1b,0.0773,0.0773,0,51,51,128,1,fivesix,,,,,,,,,,,,,,,,,,,,,,,,,,,,,,,,,,,,,,,,,,,,,,,,,,,,,,,,,,,,,,,,,,,,,,,,,,,,,,,,,,,,,,,,,,,,,,,,,,,,,,,,,,,,,,,,,,,,,,,,,,,,,,,,,,,,,,,,,
,,65e6f4d668bfc2134b26348e,2026-03-17_16h10.11.672,kallum_motion_pilot_GIST_update_2,2026.1.1,Win32,29.94011976,65e6f4d668bfc2134b26348e,69b95efdef24cd8a694e89ee,69b960b7b7c602b7011d0e1b,0.0776,0.0777,0,52,52,11,1,twofour,,,,,,,,,,,,,,,,,,,,,,,,,,,,,,,,,,,,,,,,,,,,,,,,,,,,,,,,,,,,,,,,,,,,,,,,,,,,,,,,,,,,,,,,,,,,,,,,,,,,,,,,,,,,,,,,,,,,,,,,,,,,,,,,,,,,,,,,,
,,65e6f4d668bfc2134b26348e,2026-03-17_16h10.11.672,kallum_motion_pilot_GIST_update_2,2026.1.1,Win32,29.94011976,65e6f4d668bfc2134b26348e,69b95efdef24cd8a694e89ee,69b960b7b7c602b7011d0e1b,0.078,0.078,0,53,53,156,1,sevenfive,,,,,,,,,,,,,,,,,,,,,,,,,,,,,,,,,,,,,,,,,,,,,,,,,,,,,,,,,,,,,,,,,,,,,,,,,,,,,,,,,,,,,,,,,,,,,,,,,,,,,,,,,,,,,,,,,,,,,,,,,,,,,,,,,,,,,,,,,
,,65e6f4d668bfc2134b26348e,2026-03-17_16h10.11.672,kallum_motion_pilot_GIST_update_2,2026.1.1,Win32,29.94011976,65e6f4d668bfc2134b26348e,69b95efdef24cd8a694e89ee,69b960b7b7c602b7011d0e1b,0.0784,0.0784,0,54,54,143,1,eightseven,,,,,,,,,,,,,,,,,,,,,,,,,,,,,,,,,,,,,,,,,,,,,,,,,,,,,,,,,,,,,,,,,,,,,,,,,,,,,,,,,,,,,,,,,,,,,,,,,,,,,,,,,,,,,,,,,,,,,,,,,,,,,,,,,,,,,,,,,
,,65e6f4d668bfc2134b26348e,2026-03-17_16h10.11.672,kallum_motion_pilot_GIST_update_2,2026.1.1,Win32,29.94011976,65e6f4d668bfc2134b26348e,69b95efdef24cd8a694e89ee,69b960b7b7c602b7011d0e1b,0.0787,0.0787,0,55,55,66,1,twoone,,,,,,,,,,,,,,,,,,,,,,,,,,,,,,,,,,,,,,,,,,,,,,,,,,,,,,,,,,,,,,,,,,,,,,,,,,,,,,,,,,,,,,,,,,,,,,,,,,,,,,,,,,,,,,,,,,,,,,,,,,,,,,,,,,,,,,,,,
,,65e6f4d668bfc2134b26348e,2026-03-17_16h10.11.672,kallum_motion_pilot_GIST_update_2,2026.1.1,Win32,29.94011976,65e6f4d668bfc2134b26348e,69b95efdef24cd8a694e89ee,69b960b7b7c602b7011d0e1b,0.0791,0.0791,0,56,56,96,1,fivesix,,,,,,,,,,,,,,,,,,,,,,,,,,,,,,,,,,,,,,,,,,,,,,,,,,,,,,,,,,,,,,,,,,,,,,,,,,,,,,,,,,,,,,,,,,,,,,,,,,,,,,,,,,,,,,,,,,,,,,,,,,,,,,,,,,,,,,,,,
,,65e6f4d668bfc2134b26348e,2026-03-17_16h10.11.672,kallum_motion_pilot_GIST_update_2,2026.1.1,Win32,29.94011976,65e6f4d668bfc2134b26348e,69b95efdef24cd8a694e89ee,69b960b7b7c602b7011d0e1b,0.0796,0.0796,0,57,57,64,1,onetwo,,,,,,,,,,,,,,,,,,,,,,,,,,,,,,,,,,,,,,,,,,,,,,,,,,,,,,,,,,,,,,,,,,,,,,,,,,,,,,,,,,,,,,,,,,,,,,,,,,,,,,,,,,,,,,,,,,,,,,,,,,,,,,,,,,,,,,,,,
,,65e6f4d668bfc2134b26348e,2026-03-17_16h10.11.672,kallum_motion_pilot_GIST_update_2,2026.1.1,Win32,29.94011976,65e6f4d668bfc2134b26348e,69b95efdef24cd8a694e89ee,69b960b7b7c602b7011d0e1b,0.08,0.08,0,58,58,127,1,eightseven,,,,,,,,,,,,,,,,,,,,,,,,,,,,,,,,,,,,,,,,,,,,,,,,,,,,,,,,,,,,,,,,,,,,,,,,,,,,,,,,,,,,,,,,,,,,,,,,,,,,,,,,,,,,,,,,,,,,,,,,,,,,,,,,,,,,,,,,,
,,65e6f4d668bfc2134b26348e,2026-03-17_16h10.11.672,kallum_motion_pilot_GIST_update_2,2026.1.1,Win32,29.94011976,65e6f4d668bfc2134b26348e,69b95efdef24cd8a694e89ee,69b960b7b7c602b7011d0e1b,0.0804,0.0804,0,59,59,86,1,eightsix,,,,,,,,,,,,,,,,,,,,,,,,,,,,,,,,,,,,,,,,,,,,,,,,,,,,,,,,,,,,,,,,,,,,,,,,,,,,,,,,,,,,,,,,,,,,,,,,,,,,,,,,,,,,,,,,,,,,,,,,,,,,,,,,,,,,,,,,,
,,65e6f4d668bfc2134b26348e,2026-03-17_16h10.11.672,kallum_motion_pilot_GIST_update_2,2026.1.1,Win32,29.94011976,65e6f4d668bfc2134b26348e,69b95efdef24cd8a694e89ee,69b960b7b7c602b7011d0e1b,0.0808,0.0808,0,60,60,18,1,twoone,,,,,,,,,,,,,,,,,,,,,,,,,,,,,,,,,,,,,,,,,,,,,,,,,,,,,,,,,,,,,,,,,,,,,,,,,,,,,,,,,,,,,,,,,,,,,,,,,,,,,,,,,,,,,,,,,,,,,,,,,,,,,,,,,,,,,,,,,
,,65e6f4d668bfc2134b26348e,2026-03-17_16h10.11.672,kallum_motion_pilot_GIST_update_2,2026.1.1,Win32,29.94011976,65e6f4d668bfc2134b26348e,69b95efdef24cd8a694e89ee,69b960b7b7c602b7011d0e1b,0.0811,0.0811,0,61,61,152,1,fivesix,,,,,,,,,,,,,,,,,,,,,,,,,,,,,,,,,,,,,,,,,,,,,,,,,,,,,,,,,,,,,,,,,,,,,,,,,,,,,,,,,,,,,,,,,,,,,,,,,,,,,,,,,,,,,,,,,,,,,,,,,,,,,,,,,,,,,,,,,
,,65e6f4d668bfc2134b26348e,2026-03-17_16h10.11.672,kallum_motion_pilot_GIST_update_2,2026.1.1,Win32,29.94011976,65e6f4d668bfc2134b26348e,69b95efdef24cd8a694e89ee,69b960b7b7c602b7011d0e1b,0.0815,0.0815,0,62,62,158,1,eightsix,,,,,,,,,,,,,,,,,,,,,,,,,,,,,,,,,,,,,,,,,,,,,,,,,,,,,,,,,,,,,,,,,,,,,,,,,,,,,,,,,,,,,,,,,,,,,,,,,,,,,,,,,,,,,,,,,,,,,,,,,,,,,,,,,,,,,,,,,
,,65e6f4d668bfc2134b26348e,2026-03-17_16h10.11.672,kallum_motion_pilot_GIST_update_2,2026.1.1,Win32,29.94011976,65e6f4d668bfc2134b26348e,69b95efdef24cd8a694e89ee,69b960b7b7c602b7011d0e1b,0.082,0.0821,0,63,63,51,1,twofour,,,,,,,,,,,,,,,,,,,,,,,,,,,,,,,,,,,,,,,,,,,,,,,,,,,,,,,,,,,,,,,,,,,,,,,,,,,,,,,,,,,,,,,,,,,,,,,,,,,,,,,,,,,,,,,,,,,,,,,,,,,,,,,,,,,,,,,,,
,,65e6f4d668bfc2134b26348e,2026-03-17_16h10.11.672,kallum_motion_pilot_GIST_update_2,2026.1.1,Win32,29.94011976,65e6f4d668bfc2134b26348e,69b95efdef24cd8a694e89ee,69b960b7b7c602b7011d0e1b,0.0827,0.0827,0,64,64,47,1,fourthree,,,,,,,,,,,,,,,,,,,,,,,,,,,,,,,,,,,,,,,,,,,,,,,,,,,,,,,,,,,,,,,,,,,,,,,,,,,,,,,,,,,,,,,,,,,,,,,,,,,,,,,,,,,,,,,,,,,,,,,,,,,,,,,,,,,,,,,,,
,,65e6f4d668bfc2134b26348e,2026-03-17_16h10.11.672,kallum_motion_pilot_GIST_update_2,2026.1.1,Win32,29.94011976,65e6f4d668bfc2134b26348e,69b95efdef24cd8a694e89ee,69b960b7b7c602b7011d0e1b,0.0832,0.0832,0,65,65,124,1,sevenfive,,,,,,,,,,,,,,,,,,,,,,,,,,,,,,,,,,,,,,,,,,,,,,,,,,,,,,,,,,,,,,,,,,,,,,,,,,,,,,,,,,,,,,,,,,,,,,,,,,,,,,,,,,,,,,,,,,,,,,,,,,,,,,,,,,,,,,,,,
,,65e6f4d668bfc2134b26348e,2026-03-17_16h10.11.672,kallum_motion_pilot_GIST_update_2,2026.1.1,Win32,29.94011976,65e6f4d668bfc2134b26348e,69b95efdef24cd8a694e89ee,69b960b7b7c602b7011d0e1b,0.0837,0.0838,0,66,66,34,1,twoone,,,,,,,,,,,,,,,,,,,,,,,,,,,,,,,,,,,,,,,,,,,,,,,,,,,,,,,,,,,,,,,,,,,,,,,,,,,,,,,,,,,,,,,,,,,,,,,,,,,,,,,,,,,,,,,,,,,,,,,,,,,,,,,,,,,,,,,,,
,,65e6f4d668bfc2134b26348e,2026-03-17_16h10.11.672,kallum_motion_pilot_GIST_update_2,2026.1.1,Win32,29.94011976,65e6f4d668bfc2134b26348e,69b95efdef24cd8a694e89ee,69b960b7b7c602b7011d0e1b,0.0841,0.0841,0,67,67,49,1,onethree,,,,,,,,,,,,,,,,,,,,,,,,,,,,,,,,,,,,,,,,,,,,,,,,,,,,,,,,,,,,,,,,,,,,,,,,,,,,,,,,,,,,,,,,,,,,,,,,,,,,,,,,,,,,,,,,,,,,,,,,,,,,,,,,,,,,,,,,,
,,65e6f4d668bfc2134b26348e,2026-03-17_16h10.11.672,kallum_motion_pilot_GIST_update_2,2026.1.1,Win32,29.94011976,65e6f4d668bfc2134b26348e,69b95efdef24cd8a694e89ee,69b960b7b7c602b7011d0e1b,0.0845,0.0845,0,68,68,138,1,sixfive,,,,,,,,,,,,,,,,,,,,,,,,,,,,,,,,,,,,,,,,,,,,,,,,,,,,,,,,,,,,,,,,,,,,,,,,,,,,,,,,,,,,,,,,,,,,,,,,,,,,,,,,,,,,,,,,,,,,,,,,,,,,,,,,,,,,,,,,,
,,65e6f4d668bfc2134b26348e,2026-03-17_16h10.11.672,kallum_motion_pilot_GIST_update_2,2026.1.1,Win32,29.94011976,65e6f4d668bfc2134b26348e,69b95efdef24cd8a694e89ee,69b960b7b7c602b7011d0e1b,0.0849,0.0849,0,69,69,144,1,fivesix,,,,,,,,,,,,,,,,,,,,,,,,,,,,,,,,,,,,,,,,,,,,,,,,,,,,,,,,,,,,,,,,,,,,,,,,,,,,,,,,,,,,,,,,,,,,,,,,,,,,,,,,,,,,,,,,,,,,,,,,,,,,,,,,,,,,,,,,,
,,65e6f4d668bfc2134b26348e,2026-03-17_16h10.11.672,kallum_motion_pilot_GIST_update_2,2026.1.1,Win32,29.94011976,65e6f4d668bfc2134b26348e,69b95efdef24cd8a694e89ee,69b960b7b7c602b7011d0e1b,0.0852,0.0852,0,70,70,46,1,fourtwo,,,,,,,,,,,,,,,,,,,,,,,,,,,,,,,,,,,,,,,,,,,,,,,,,,,,,,,,,,,,,,,,,,,,,,,,,,,,,,,,,,,,,,,,,,,,,,,,,,,,,,,,,,,,,,,,,,,,,,,,,,,,,,,,,,,,,,,,,
,,65e6f4d668bfc2134b26348e,2026-03-17_16h10.11.672,kallum_motion_pilot_GIST_update_2,2026.1.1,Win32,29.94011976,65e6f4d668bfc2134b26348e,69b95efdef24cd8a694e89ee,69b960b7b7c602b7011d0e1b,0.0857,0.0857,0,71,71,48,1,onetwo,,,,,,,,,,,,,,,,,,,,,,,,,,,,,,,,,,,,,,,,,,,,,,,,,,,,,,,,,,,,,,,,,,,,,,,,,,,,,,,,,,,,,,,,,,,,,,,,,,,,,,,,,,,,,,,,,,,,,,,,,,,,,,,,,,,,,,,,,
,,65e6f4d668bfc2134b26348e,2026-03-17_16h10.11.672,kallum_motion_pilot_GIST_update_2,2026.1.1,Win32,29.94011976,65e6f4d668bfc2134b26348e,69b95efdef24cd8a694e89ee,69b960b7b7c602b7011d0e1b,0.0859,0.086,0,72,72,155,1,sixeight,,,,,,,,,,,,,,,,,,,,,,,,,,,,,,,,,,,,,,,,,,,,,,,,,,,,,,,,,,,,,,,,,,,,,,,,,,,,,,,,,,,,,,,,,,,,,,,,,,,,,,,,,,,,,,,,,,,,,,,,,,,,,,,,,,,,,,,,,
,,65e6f4d668bfc2134b26348e,2026-03-17_16h10.11.672,kallum_motion_pilot_GIST_update_2,2026.1.1,Win32,29.94011976,65e6f4d668bfc2134b26348e,69b95efdef24cd8a694e89ee,69b960b7b7c602b7011d0e1b,0.0864,0.0864,0,73,73,38,1,fourtwo,,,,,,,,,,,,,,,,,,,,,,,,,,,,,,,,,,,,,,,,,,,,,,,,,,,,,,,,,,,,,,,,,,,,,,,,,,,,,,,,,,,,,,,,,,,,,,,,,,,,,,,,,,,,,,,,,,,,,,,,,,,,,,,,,,,,,,,,,
,,65e6f4d668bfc2134b26348e,2026-03-17_16h10.11.672,kallum_motion_pilot_GIST_update_2,2026.1.1,Win32,29.94011976,65e6f4d668bfc2134b26348e,69b95efdef24cd8a694e89ee,69b960b7b7c602b7011d0e1b,0.0868,0.0869,0,74,74,154,1,sixfive,,,,,,,,,,,,,,,,,,,,,,,,,,,,,,,,,,,,,,,,,,,,,,,,,,,,,,,,,,,,,,,,,,,,,,,,,,,,,,,,,,,,,,,,,,,,,,,,,,,,,,,,,,,,,,,,,,,,,,,,,,,,,,,,,,,,,,,,,
,,65e6f4d668bfc2134b26348e,2026-03-17_16h10.11.672,kallum_motion_pilot_GIST_update_2,2026.1.1,Win32,29.94011976,65e6f4d668bfc2134b26348e,69b95efdef24cd8a694e89ee,69b960b7b7c602b7011d0e1b,0.0872,0.0873,0,75,75,50,1,twoone,,,,,,,,,,,,,,,,,,,,,,,,,,,,,,,,,,,,,,,,,,,,,,,,,,,,,,,,,,,,,,,,,,,,,,,,,,,,,,,,,,,,,,,,,,,,,,,,,,,,,,,,,,,,,,,,,,,,,,,,,,,,,,,,,,,,,,,,,
,,65e6f4d668bfc2134b26348e,2026-03-17_16h10.11.672,kallum_motion_pilot_GIST_update_2,2026.1.1,Win32,29.94011976,65e6f4d668bfc2134b26348e,69b95efdef24cd8a694e89ee,69b960b7b7c602b7011d0e1b,0.0876,0.0877,0,76,76,33,1,onethree,,,,,,,,,,,,,,,,,,,,,,,,,,,,,,,,,,,,,,,,,,,,,,,,,,,,,,,,,,,,,,,,,,,,,,,,,,,,,,,,,,,,,,,,,,,,,,,,,,,,,,,,,,,,,,,,,,,,,,,,,,,,,,,,,,,,,,,,,
,,65e6f4d668bfc2134b26348e,2026-03-17_16h10.11.672,kallum_motion_pilot_GIST_update_2,2026.1.1,Win32,29.94011976,65e6f4d668bfc2134b26348e,69b95efdef24cd8a694e89ee,69b960b7b7c602b7011d0e1b,0.0882,0.0882,0,77,77,0,1,onetwo,,,,,,,,,,,,,,,,,,,,,,,,,,,,,,,,,,,,,,,,,,,,,,,,,,,,,,,,,,,,,,,,,,,,,,,,,,,,,,,,,,,,,,,,,,,,,,,,,,,,,,,,,,,,,,,,,,,,,,,,,,,,,,,,,,,,,,,,,
,,65e6f4d668bfc2134b26348e,2026-03-17_16h10.11.672,kallum_motion_pilot_GIST_update_2,2026.1.1,Win32,29.94011976,65e6f4d668bfc2134b26348e,69b95efdef24cd8a694e89ee,69b960b7b7c602b7011d0e1b,0.0886,0.0887,0,78,78,150,1,eightsix,,,,,,,,,,,,,,,,,,,,,,,,,,,,,,,,,,,,,,,,,,,,,,,,,,,,,,,,,,,,,,,,,,,,,,,,,,,,,,,,,,,,,,,,,,,,,,,,,,,,,,,,,,,,,,,,,,,,,,,,,,,,,,,,,,,,,,,,,
,,65e6f4d668bfc2134b26348e,2026-03-17_16h10.11.672,kallum_motion_pilot_GIST_update_2,2026.1.1,Win32,29.94011976,65e6f4d668bfc2134b26348e,69b95efdef24cd8a694e89ee,69b960b7b7c602b7011d0e1b,0.089,0.0891,0,79,79,21,1,threefour,,,,,,,,,,,,,,,,,,,,,,,,,,,,,,,,,,,,,,,,,,,,,,,,,,,,,,,,,,,,,,,,,,,,,,,,,,,,,,,,,,,,,,,,,,,,,,,,,,,,,,,,,,,,,,,,,,,,,,,,,,,,,,,,,,,,,,,,,
,,65e6f4d668bfc2134b26348e,2026-03-17_16h10.11.672,kallum_motion_pilot_GIST_update_2,2026.1.1,Win32,29.94011976,65e6f4d668bfc2134b26348e,69b95efdef24cd8a694e89ee,69b960b7b7c602b7011d0e1b,0.0897,0.0897,0,80,80,115,1,sixeight,,,,,,,,,,,,,,,,,,,,,,,,,,,,,,,,,,,,,,,,,,,,,,,,,,,,,,,,,,,,,,,,,,,,,,,,,,,,,,,,,,,,,,,,,,,,,,,,,,,,,,,,,,,,,,,,,,,,,,,,,,,,,,,,,,,,,,,,,
,,65e6f4d668bfc2134b26348e,2026-03-17_16h10.11.672,kallum_motion_pilot_GIST_update_2,2026.1.1,Win32,29.94011976,65e6f4d668bfc2134b26348e,69b95efdef24cd8a694e89ee,69b960b7b7c602b7011d0e1b,0.0904,0.0905,0,81,81,149,1,seveneight,,,,,,,,,,,,,,,,,,,,,,,,,,,,,,,,,,,,,,,,,,,,,,,,,,,,,,,,,,,,,,,,,,,,,,,,,,,,,,,,,,,,,,,,,,,,,,,,,,,,,,,,,,,,,,,,,,,,,,,,,,,,,,,,,,,,,,,,,
,,65e6f4d668bfc2134b26348e,2026-03-17_16h10.11.672,kallum_motion_pilot_GIST_update_2,2026.1.1,Win32,29.94011976,65e6f4d668bfc2134b26348e,69b95efdef24cd8a694e89ee,69b960b7b7c602b7011d0e1b,0.0911,0.0912,0,82,82,142,1,eightsix,,,,,,,,,,,,,,,,,,,,,,,,,,,,,,,,,,,,,,,,,,,,,,,,,,,,,,,,,,,,,,,,,,,,,,,,,,,,,,,,,,,,,,,,,,,,,,,,,,,,,,,,,,,,,,,,,,,,,,,,,,,,,,,,,,,,,,,,,
,,65e6f4d668bfc2134b26348e,2026-03-17_16h10.11.672,kallum_motion_pilot_GIST_update_2,2026.1.1,Win32,29.94011976,65e6f4d668bfc2134b26348e,69b95efdef24cd8a694e89ee,69b960b7b7c602b7011d0e1b,0.0916,0.0916,0,83,83,19,1,twofour,,,,,,,,,,,,,,,,,,,,,,,,,,,,,,,,,,,,,,,,,,,,,,,,,,,,,,,,,,,,,,,,,,,,,,,,,,,,,,,,,,,,,,,,,,,,,,,,,,,,,,,,,,,,,,,,,,,,,,,,,,,,,,,,,,,,,,,,,
,,65e6f4d668bfc2134b26348e,2026-03-17_16h10.11.672,kallum_motion_pilot_GIST_update_2,2026.1.1,Win32,29.94011976,65e6f4d668bfc2134b26348e,69b95efdef24cd8a694e89ee,69b960b7b7c602b7011d0e1b,0.0919,0.092,0,84,84,82,1,sixfive,,,,,,,,,,,,,,,,,,,,,,,,,,,,,,,,,,,,,,,,,,,,,,,,,,,,,,,,,,,,,,,,,,,,,,,,,,,,,,,,,,,,,,,,,,,,,,,,,,,,,,,,,,,,,,,,,,,,,,,,,,,,,,,,,,,,,,,,,
,,65e6f4d668bfc2134b26348e,2026-03-17_16h10.11.672,kallum_motion_pilot_GIST_update_2,2026.1.1,Win32,29.94011976,65e6f4d668bfc2134b26348e,69b95efdef24cd8a694e89ee,69b960b7b7c602b7011d0e1b,0.0925,0.0925,0,85,85,109,1,seveneight,,,,,,,,,,,,,,,,,,,,,,,,,,,,,,,,,,,,,,,,,,,,,,,,,,,,,,,,,,,,,,,,,,,,,,,,,,,,,,,,,,,,,,,,,,,,,,,,,,,,,,,,,,,,,,,,,,,,,,,,,,,,,,,,,,,,,,,,,
,,65e6f4d668bfc2134b26348e,2026-03-17_16h10.11.672,kallum_motion_pilot_GIST_update_2,2026.1.1,Win32,29.94011976,65e6f4d668bfc2134b26348e,69b95efdef24cd8a694e89ee,69b960b7b7c602b7011d0e1b,0.0929,0.093,0,86,86,100,1,sevenfive,,,,,,,,,,,,,,,,,,,,,,,,,,,,,,,,,,,,,,,,,,,,,,,,,,,,,,,,,,,,,,,,,,,,,,,,,,,,,,,,,,,,,,,,,,,,,,,,,,,,,,,,,,,,,,,,,,,,,,,,,,,,,,,,,,,,,,,,,
,,65e6f4d668bfc2134b26348e,2026-03-17_16h10.11.672,kallum_motion_pilot_GIST_update_2,2026.1.1,Win32,29.94011976,65e6f4d668bfc2134b26348e,69b95efdef24cd8a694e89ee,69b960b7b7c602b7011d0e1b,0.0933,0.0933,0,87,87,120,1,fivesix,,,,,,,,,,,,,,,,,,,,,,,,,,,,,,,,,,,,,,,,,,,,,,,,,,,,,,,,,,,,,,,,,,,,,,,,,,,,,,,,,,,,,,,,,,,,,,,,,,,,,,,,,,,,,,,,,,,,,,,,,,,,,,,,,,,,,,,,,
,,65e6f4d668bfc2134b26348e,2026-03-17_16h10.11.672,kallum_motion_pilot_GIST_update_2,2026.1.1,Win32,29.94011976,65e6f4d668bfc2134b26348e,69b95efdef24cd8a694e89ee,69b960b7b7c602b7011d0e1b,0.094,0.094,0,88,88,5,1,threefour,,,,,,,,,,,,,,,,,,,,,,,,,,,,,,,,,,,,,,,,,,,,,,,,,,,,,,,,,,,,,,,,,,,,,,,,,,,,,,,,,,,,,,,,,,,,,,,,,,,,,,,,,,,,,,,,,,,,,,,,,,,,,,,,,,,,,,,,,
,,65e6f4d668bfc2134b26348e,2026-03-17_16h10.11.672,kallum_motion_pilot_GIST_update_2,2026.1.1,Win32,29.94011976,65e6f4d668bfc2134b26348e,69b95efdef24cd8a694e89ee,69b960b7b7c602b7011d0e1b,0.0943,0.0944,0,89,89,52,1,threeone,,,,,,,,,,,,,,,,,,,,,,,,,,,,,,,,,,,,,,,,,,,,,,,,,,,,,,,,,,,,,,,,,,,,,,,,,,,,,,,,,,,,,,,,,,,,,,,,,,,,,,,,,,,,,,,,,,,,,,,,,,,,,,,,,,,,,,,,,
,,65e6f4d668bfc2134b26348e,2026-03-17_16h10.11.672,kallum_motion_pilot_GIST_update_2,2026.1.1,Win32,29.94011976,65e6f4d668bfc2134b26348e,69b95efdef24cd8a694e89ee,69b960b7b7c602b7011d0e1b,0.0947,0.0947,0,90,90,119,1,eightseven,,,,,,,,,,,,,,,,,,,,,,,,,,,,,,,,,,,,,,,,,,,,,,,,,,,,,,,,,,,,,,,,,,,,,,,,,,,,,,,,,,,,,,,,,,,,,,,,,,,,,,,,,,,,,,,,,,,,,,,,,,,,,,,,,,,,,,,,,
,,65e6f4d668bfc2134b26348e,2026-03-17_16h10.11.672,kallum_motion_pilot_GIST_update_2,2026.1.1,Win32,29.94011976,65e6f4d668bfc2134b26348e,69b95efdef24cd8a694e89ee,69b960b7b7c602b7011d0e1b,0.0951,0.0952,0,91,91,139,1,sixeight,,,,,,,,,,,,,,,,,,,,,,,,,,,,,,,,,,,,,,,,,,,,,,,,,,,,,,,,,,,,,,,,,,,,,,,,,,,,,,,,,,,,,,,,,,,,,,,,,,,,,,,,,,,,,,,,,,,,,,,,,,,,,,,,,,,,,,,,,
,,65e6f4d668bfc2134b26348e,2026-03-17_16h10.11.672,kallum_motion_pilot_GIST_update_2,2026.1.1,Win32,29.94011976,65e6f4d668bfc2134b26348e,69b95efdef24cd8a694e89ee,69b960b7b7c602b7011d0e1b,0.0955,0.0955,0,92,92,121,1,fiveseven,,,,,,,,,,,,,,,,,,,,,,,,,,,,,,,,,,,,,,,,,,,,,,,,,,,,,,,,,,,,,,,,,,,,,,,,,,,,,,,,,,,,,,,,,,,,,,,,,,,,,,,,,,,,,,,,,,,,,,,,,,,,,,,,,,,,,,,,,
,,65e6f4d668bfc2134b26348e,2026-03-17_16h10.11.672,kallum_motion_pilot_GIST_update_2,2026.1.1,Win32,29.94011976,65e6f4d668bfc2134b26348e,69b95efdef24cd8a694e89ee,69b960b7b7c602b7011d0e1b,0.0959,0.0959,0,93,93,78,1,fourtwo,,,,,,,,,,,,,,,,,,,,,,,,,,,,,,,,,,,,,,,,,,,,,,,,,,,,,,,,,,,,,,,,,,,,,,,,,,,,,,,,,,,,,,,,,,,,,,,,,,,,,,,,,,,,,,,,,,,,,,,,,,,,,,,,,,,,,,,,,
,,65e6f4d668bfc2134b26348e,2026-03-17_16h10.11.672,kallum_motion_pilot_GIST_update_2,2026.1.1,Win32,29.94011976,65e6f4d668bfc2134b26348e,69b95efdef24cd8a694e89ee,69b960b7b7c602b7011d0e1b,0.0962,0.0964,0,94,94,131,1,sixeight,,,,,,,,,,,,,,,,,,,,,,,,,,,,,,,,,,,,,,,,,,,,,,,,,,,,,,,,,,,,,,,,,,,,,,,,,,,,,,,,,,,,,,,,,,,,,,,,,,,,,,,,,,,,,,,,,,,,,,,,,,,,,,,,,,,,,,,,,
,,65e6f4d668bfc2134b26348e,2026-03-17_16h10.11.672,kallum_motion_pilot_GIST_update_2,2026.1.1,Win32,29.94011976,65e6f4d668bfc2134b26348e,69b95efdef24cd8a694e89ee,69b960b7b7c602b7011d0e1b,0.0967,0.0968,0,95,95,10,1,twoone,,,,,,,,,,,,,,,,,,,,,,,,,,,,,,,,,,,,,,,,,,,,,,,,,,,,,,,,,,,,,,,,,,,,,,,,,,,,,,,,,,,,,,,,,,,,,,,,,,,,,,,,,,,,,,,,,,,,,,,,,,,,,,,,,,,,,,,,,
,,65e6f4d668bfc2134b26348e,2026-03-17_16h10.11.672,kallum_motion_pilot_GIST_update_2,2026.1.1,Win32,29.94011976,65e6f4d668bfc2134b26348e,69b95efdef24cd8a694e89ee,69b960b7b7c602b7011d0e1b,0.0973,0.0973,0,96,96,13,1,threefour,,,,,,,,,,,,,,,,,,,,,,,,,,,,,,,,,,,,,,,,,,,,,,,,,,,,,,,,,,,,,,,,,,,,,,,,,,,,,,,,,,,,,,,,,,,,,,,,,,,,,,,,,,,,,,,,,,,,,,,,,,,,,,,,,,,,,,,,,
,,65e6f4d668bfc2134b26348e,2026-03-17_16h10.11.672,kallum_motion_pilot_GIST_update_2,2026.1.1,Win32,29.94011976,65e6f4d668bfc2134b26348e,69b95efdef24cd8a694e89ee,69b960b7b7c602b7011d0e1b,0.0977,0.0977,0,97,97,61,1,threefour,,,,,,,,,,,,,,,,,,,,,,,,,,,,,,,,,,,,,,,,,,,,,,,,,,,,,,,,,,,,,,,,,,,,,,,,,,,,,,,,,,,,,,,,,,,,,,,,,,,,,,,,,,,,,,,,,,,,,,,,,,,,,,,,,,,,,,,,,
,,65e6f4d668bfc2134b26348e,2026-03-17_16h10.11.672,kallum_motion_pilot_GIST_update_2,2026.1.1,Win32,29.94011976,65e6f4d668bfc2134b26348e,69b95efdef24cd8a694e89ee,69b960b7b7c602b7011d0e1b,0.0981,0.0981,0,98,98,101,1,seveneight,,,,,,,,,,,,,,,,,,,,,,,,,,,,,,,,,,,,,,,,,,,,,,,,,,,,,,,,,,,,,,,,,,,,,,,,,,,,,,,,,,,,,,,,,,,,,,,,,,,,,,,,,,,,,,,,,,,,,,,,,,,,,,,,,,,,,,,,,
,,65e6f4d668bfc2134b26348e,2026-03-17_16h10.11.672,kallum_motion_pilot_GIST_update_2,2026.1.1,Win32,29.94011976,65e6f4d668bfc2134b26348e,69b95efdef24cd8a694e89ee,69b960b7b7c602b7011d0e1b,0.0985,0.0985,0,99,99,111,1,eightseven,,,,,,,,,,,,,,,,,,,,,,,,,,,,,,,,,,,,,,,,,,,,,,,,,,,,,,,,,,,,,,,,,,,,,,,,,,,,,,,,,,,,,,,,,,,,,,,,,,,,,,,,,,,,,,,,,,,,,,,,,,,,,,,,,,,,,,,,,
,,65e6f4d668bfc2134b26348e,2026-03-17_16h10.11.672,kallum_motion_pilot_GIST_update_2,2026.1.1,Win32,29.94011976,65e6f4d668bfc2134b26348e,69b95efdef24cd8a694e89ee,69b960b7b7c602b7011d0e1b,0.0988,0.0989,0,100,100,42,1,twoone,,,,,,,,,,,,,,,,,,,,,,,,,,,,,,,,,,,,,,,,,,,,,,,,,,,,,,,,,,,,,,,,,,,,,,,,,,,,,,,,,,,,,,,,,,,,,,,,,,,,,,,,,,,,,,,,,,,,,,,,,,,,,,,,,,,,,,,,,
,,65e6f4d668bfc2134b26348e,2026-03-17_16h10.11.672,kallum_motion_pilot_GIST_update_2,2026.1.1,Win32,29.94011976,65e6f4d668bfc2134b26348e,69b95efdef24cd8a694e89ee,69b960b7b7c602b7011d0e1b,0.0999,0.0999,0,101,101,4,1,threeone,,,,,,,,,,,,,,,,,,,,,,,,,,,,,,,,,,,,,,,,,,,,,,,,,,,,,,,,,,,,,,,,,,,,,,,,,,,,,,,,,,,,,,,,,,,,,,,,,,,,,,,,,,,,,,,,,,,,,,,,,,,,,,,,,,,,,,,,,
,,65e6f4d668bfc2134b26348e,2026-03-17_16h10.11.672,kallum_motion_pilot_GIST_update_2,2026.1.1,Win32,29.94011976,65e6f4d668bfc2134b26348e,69b95efdef24cd8a694e89ee,69b960b7b7c602b7011d0e1b,0.1005,0.1005,0,102,102,73,1,onethree,,,,,,,,,,,,,,,,,,,,,,,,,,,,,,,,,,,,,,,,,,,,,,,,,,,,,,,,,,,,,,,,,,,,,,,,,,,,,,,,,,,,,,,,,,,,,,,,,,,,,,,,,,,,,,,,,,,,,,,,,,,,,,,,,,,,,,,,,
,,65e6f4d668bfc2134b26348e,2026-03-17_16h10.11.672,kallum_motion_pilot_GIST_update_2,2026.1.1,Win32,29.94011976,65e6f4d668bfc2134b26348e,69b95efdef24cd8a694e89ee,69b960b7b7c602b7011d0e1b,0.101,0.101,0,103,103,71,1,fourthree,,,,,,,,,,,,,,,,,,,,,,,,,,,,,,,,,,,,,,,,,,,,,,,,,,,,,,,,,,,,,,,,,,,,,,,,,,,,,,,,,,,,,,,,,,,,,,,,,,,,,,,,,,,,,,,,,,,,,,,,,,,,,,,,,,,,,,,,,
,,65e6f4d668bfc2134b26348e,2026-03-17_16h10.11.672,kallum_motion_pilot_GIST_update_2,2026.1.1,Win32,29.94011976,65e6f4d668bfc2134b26348e,69b95efdef24cd8a694e89ee,69b960b7b7c602b7011d0e1b,0.1013,0.1013,0,104,104,29,1,threefour,,,,,,,,,,,,,,,,,,,,,,,,,,,,,,,,,,,,,,,,,,,,,,,,,,,,,,,,,,,,,,,,,,,,,,,,,,,,,,,,,,,,,,,,,,,,,,,,,,,,,,,,,,,,,,,,,,,,,,,,,,,,,,,,,,,,,,,,,
,,65e6f4d668bfc2134b26348e,2026-03-17_16h10.11.672,kallum_motion_pilot_GIST_update_2,2026.1.1,Win32,29.94011976,65e6f4d668bfc2134b26348e,69b95efdef24cd8a694e89ee,69b960b7b7c602b7011d0e1b,0.1018,0.1018,0,105,105,95,1,eightseven,,,,,,,,,,,,,,,,,,,,,,,,,,,,,,,,,,,,,,,,,,,,,,,,,,,,,,,,,,,,,,,,,,,,,,,,,,,,,,,,,,,,,,,,,,,,,,,,,,,,,,,,,,,,,,,,,,,,,,,,,,,,,,,,,,,,,,,,,
,,65e6f4d668bfc2134b26348e,2026-03-17_16h10.11.672,kallum_motion_pilot_GIST_update_2,2026.1.1,Win32,29.94011976,65e6f4d668bfc2134b26348e,69b95efdef24cd8a694e89ee,69b960b7b7c602b7011d0e1b,0.1022,0.1022,0,106,106,75,1,twofour,,,,,,,,,,,,,,,,,,,,,,,,,,,,,,,,,,,,,,,,,,,,,,,,,,,,,,,,,,,,,,,,,,,,,,,,,,,,,,,,,,,,,,,,,,,,,,,,,,,,,,,,,,,,,,,,,,,,,,,,,,,,,,,,,,,,,,,,,
,,65e6f4d668bfc2134b26348e,2026-03-17_16h10.11.672,kallum_motion_pilot_GIST_update_2,2026.1.1,Win32,29.94011976,65e6f4d668bfc2134b26348e,69b95efdef24cd8a694e89ee,69b960b7b7c602b7011d0e1b,0.1027,0.1028,0,107,107,76,1,threeone,,,,,,,,,,,,,,,,,,,,,,,,,,,,,,,,,,,,,,,,,,,,,,,,,,,,,,,,,,,,,,,,,,,,,,,,,,,,,,,,,,,,,,,,,,,,,,,,,,,,,,,,,,,,,,,,,,,,,,,,,,,,,,,,,,,,,,,,,
,,65e6f4d668bfc2134b26348e,2026-03-17_16h10.11.672,kallum_motion_pilot_GIST_update_2,2026.1.1,Win32,29.94011976,65e6f4d668bfc2134b26348e,69b95efdef24cd8a694e89ee,69b960b7b7c602b7011d0e1b,0.1031,0.1031,0,108,108,133,1,seveneight,,,,,,,,,,,,,,,,,,,,,,,,,,,,,,,,,,,,,,,,,,,,,,,,,,,,,,,,,,,,,,,,,,,,,,,,,,,,,,,,,,,,,,,,,,,,,,,,,,,,,,,,,,,,,,,,,,,,,,,,,,,,,,,,,,,,,,,,,
,,65e6f4d668bfc2134b26348e,2026-03-17_16h10.11.672,kallum_motion_pilot_GIST_update_2,2026.1.1,Win32,29.94011976,65e6f4d668bfc2134b26348e,69b95efdef24cd8a694e89ee,69b960b7b7c602b7011d0e1b,0.1035,0.1036,0,109,109,93,1,seveneight,,,,,,,,,,,,,,,,,,,,,,,,,,,,,,,,,,,,,,,,,,,,,,,,,,,,,,,,,,,,,,,,,,,,,,,,,,,,,,,,,,,,,,,,,,,,,,,,,,,,,,,,,,,,,,,,,,,,,,,,,,,,,,,,,,,,,,,,,
,,65e6f4d668bfc2134b26348e,2026-03-17_16h10.11.672,kallum_motion_pilot_GIST_update_2,2026.1.1,Win32,29.94011976,65e6f4d668bfc2134b26348e,69b95efdef24cd8a694e89ee,69b960b7b7c602b7011d0e1b,0.1039,0.104,0,110,110,20,1,threeone,,,,,,,,,,,,,,,,,,,,,,,,,,,,,,,,,,,,,,,,,,,,,,,,,,,,,,,,,,,,,,,,,,,,,,,,,,,,,,,,,,,,,,,,,,,,,,,,,,,,,,,,,,,,,,,,,,,,,,,,,,,,,,,,,,,,,,,,,
,,65e6f4d668bfc2134b26348e,2026-03-17_16h10.11.672,kallum_motion_pilot_GIST_update_2,2026.1.1,Win32,29.94011976,65e6f4d668bfc2134b26348e,69b95efdef24cd8a694e89ee,69b960b7b7c602b7011d0e1b,0.1046,0.1046,0,111,111,129,1,fiveseven,,,,,,,,,,,,,,,,,,,,,,,,,,,,,,,,,,,,,,,,,,,,,,,,,,,,,,,,,,,,,,,,,,,,,,,,,,,,,,,,,,,,,,,,,,,,,,,,,,,,,,,,,,,,,,,,,,,,,,,,,,,,,,,,,,,,,,,,,
,,65e6f4d668bfc2134b26348e,2026-03-17_16h10.11.672,kallum_motion_pilot_GIST_update_2,2026.1.1,Win32,29.94011976,65e6f4d668bfc2134b26348e,69b95efdef24cd8a694e89ee,69b960b7b7c602b7011d0e1b,0.1052,0.1053,0,112,112,6,1,fourtwo,,,,,,,,,,,,,,,,,,,,,,,,,,,,,,,,,,,,,,,,,,,,,,,,,,,,,,,,,,,,,,,,,,,,,,,,,,,,,,,,,,,,,,,,,,,,,,,,,,,,,,,,,,,,,,,,,,,,,,,,,,,,,,,,,,,,,,,,,
,,65e6f4d668bfc2134b26348e,2026-03-17_16h10.11.672,kallum_motion_pilot_GIST_update_2,2026.1.1,Win32,29.94011976,65e6f4d668bfc2134b26348e,69b95efdef24cd8a694e89ee,69b960b7b7c602b7011d0e1b,0.1056,0.1056,0,113,113,7,1,fourthree,,,,,,,,,,,,,,,,,,,,,,,,,,,,,,,,,,,,,,,,,,,,,,,,,,,,,,,,,,,,,,,,,,,,,,,,,,,,,,,,,,,,,,,,,,,,,,,,,,,,,,,,,,,,,,,,,,,,,,,,,,,,,,,,,,,,,,,,,
,,65e6f4d668bfc2134b26348e,2026-03-17_16h10.11.672,kallum_motion_pilot_GIST_update_2,2026.1.1,Win32,29.94011976,65e6f4d668bfc2134b26348e,69b95efdef24cd8a694e89ee,69b960b7b7c602b7011d0e1b,0.106,0.106,0,114,114,37,1,threefour,,,,,,,,,,,,,,,,,,,,,,,,,,,,,,,,,,,,,,,,,,,,,,,,,,,,,,,,,,,,,,,,,,,,,,,,,,,,,,,,,,,,,,,,,,,,,,,,,,,,,,,,,,,,,,,,,,,,,,,,,,,,,,,,,,,,,,,,,
,,65e6f4d668bfc2134b26348e,2026-03-17_16h10.11.672,kallum_motion_pilot_GIST_update_2,2026.1.1,Win32,29.94011976,65e6f4d668bfc2134b26348e,69b95efdef24cd8a694e89ee,69b960b7b7c602b7011d0e1b,0.1065,0.1065,0,115,115,151,1,eightseven,,,,,,,,,,,,,,,,,,,,,,,,,,,,,,,,,,,,,,,,,,,,,,,,,,,,,,,,,,,,,,,,,,,,,,,,,,,,,,,,,,,,,,,,,,,,,,,,,,,,,,,,,,,,,,,,,,,,,,,,,,,,,,,,,,,,,,,,,
,,65e6f4d668bfc2134b26348e,2026-03-17_16h10.11.672,kallum_motion_pilot_GIST_update_2,2026.1.1,Win32,29.94011976,65e6f4d668bfc2134b26348e,69b95efdef24cd8a694e89ee,69b960b7b7c602b7011d0e1b,0.1069,0.1069,0,116,116,110,1,eightsix,,,,,,,,,,,,,,,,,,,,,,,,,,,,,,,,,,,,,,,,,,,,,,,,,,,,,,,,,,,,,,,,,,,,,,,,,,,,,,,,,,,,,,,,,,,,,,,,,,,,,,,,,,,,,,,,,,,,,,,,,,,,,,,,,,,,,,,,,
,,65e6f4d668bfc2134b26348e,2026-03-17_16h10.11.672,kallum_motion_pilot_GIST_update_2,2026.1.1,Win32,29.94011976,65e6f4d668bfc2134b26348e,69b95efdef24cd8a694e89ee,69b960b7b7c602b7011d0e1b,0.1077,0.1077,0,117,117,126,1,eightsix,,,,,,,,,,,,,,,,,,,,,,,,,,,,,,,,,,,,,,,,,,,,,,,,,,,,,,,,,,,,,,,,,,,,,,,,,,,,,,,,,,,,,,,,,,,,,,,,,,,,,,,,,,,,,,,,,,,,,,,,,,,,,,,,,,,,,,,,,
,,65e6f4d668bfc2134b26348e,2026-03-17_16h10.11.672,kallum_motion_pilot_GIST_update_2,2026.1.1,Win32,29.94011976,65e6f4d668bfc2134b26348e,69b95efdef24cd8a694e89ee,69b960b7b7c602b7011d0e1b,0.1081,0.1082,0,118,118,35,1,twofour,,,,,,,,,,,,,,,,,,,,,,,,,,,,,,,,,,,,,,,,,,,,,,,,,,,,,,,,,,,,,,,,,,,,,,,,,,,,,,,,,,,,,,,,,,,,,,,,,,,,,,,,,,,,,,,,,,,,,,,,,,,,,,,,,,,,,,,,,
,,65e6f4d668bfc2134b26348e,2026-03-17_16h10.11.672,kallum_motion_pilot_GIST_update_2,2026.1.1,Win32,29.94011976,65e6f4d668bfc2134b26348e,69b95efdef24cd8a694e89ee,69b960b7b7c602b7011d0e1b,0.1086,0.1086,0,119,119,2,1,twoone,,,,,,,,,,,,,,,,,,,,,,,,,,,,,,,,,,,,,,,,,,,,,,,,,,,,,,,,,,,,,,,,,,,,,,,,,,,,,,,,,,,,,,,,,,,,,,,,,,,,,,,,,,,,,,,,,,,,,,,,,,,,,,,,,,,,,,,,,
,,65e6f4d668bfc2134b26348e,2026-03-17_16h10.11.672,kallum_motion_pilot_GIST_update_2,2026.1.1,Win32,29.94011976,65e6f4d668bfc2134b26348e,69b95efdef24cd8a694e89ee,69b960b7b7c602b7011d0e1b,0.1091,0.1091,0,120,120,84,1,sevenfive,,,,,,,,,,,,,,,,,,,,,,,,,,,,,,,,,,,,,,,,,,,,,,,,,,,,,,,,,,,,,,,,,,,,,,,,,,,,,,,,,,,,,,,,,,,,,,,,,,,,,,,,,,,,,,,,,,,,,,,,,,,,,,,,,,,,,,,,,
,,65e6f4d668bfc2134b26348e,2026-03-17_16h10.11.672,kallum_motion_pilot_GIST_update_2,2026.1.1,Win32,29.94011976,65e6f4d668bfc2134b26348e,69b95efdef24cd8a694e89ee,69b960b7b7c602b7011d0e1b,0.1097,0.1097,0,121,121,53,1,threefour,,,,,,,,,,,,,,,,,,,,,,,,,,,,,,,,,,,,,,,,,,,,,,,,,,,,,,,,,,,,,,,,,,,,,,,,,,,,,,,,,,,,,,,,,,,,,,,,,,,,,,,,,,,,,,,,,,,,,,,,,,,,,,,,,,,,,,,,,
,,65e6f4d668bfc2134b26348e,2026-03-17_16h10.11.672,kallum_motion_pilot_GIST_update_2,2026.1.1,Win32,29.94011976,65e6f4d668bfc2134b26348e,69b95efdef24cd8a694e89ee,69b960b7b7c602b7011d0e1b,0.11,0.1101,0,122,122,59,1,twofour,,,,,,,,,,,,,,,,,,,,,,,,,,,,,,,,,,,,,,,,,,,,,,,,,,,,,,,,,,,,,,,,,,,,,,,,,,,,,,,,,,,,,,,,,,,,,,,,,,,,,,,,,,,,,,,,,,,,,,,,,,,,,,,,,,,,,,,,,
,,65e6f4d668bfc2134b26348e,2026-03-17_16h10.11.672,kallum_motion_pilot_GIST_update_2,2026.1.1,Win32,29.94011976,65e6f4d668bfc2134b26348e,69b95efdef24cd8a694e89ee,69b960b7b7c602b7011d0e1b,0.1104,0.1105,0,123,123,9,1,onethree,,,,,,,,,,,,,,,,,,,,,,,,,,,,,,,,,,,,,,,,,,,,,,,,,,,,,,,,,,,,,,,,,,,,,,,,,,,,,,,,,,,,,,,,,,,,,,,,,,,,,,,,,,,,,,,,,,,,,,,,,,,,,,,,,,,,,,,,,
,,65e6f4d668bfc2134b26348e,2026-03-17_16h10.11.672,kallum_motion_pilot_GIST_update_2,2026.1.1,Win32,29.94011976,65e6f4d668bfc2134b26348e,69b95efdef24cd8a694e89ee,69b960b7b7c602b7011d0e1b,0.1109,0.1109,0,124,124,140,1,sevenfive,,,,,,,,,,,,,,,,,,,,,,,,,,,,,,,,,,,,,,,,,,,,,,,,,,,,,,,,,,,,,,,,,,,,,,,,,,,,,,,,,,,,,,,,,,,,,,,,,,,,,,,,,,,,,,,,,,,,,,,,,,,,,,,,,,,,,,,,,
,,65e6f4d668bfc2134b26348e,2026-03-17_16h10.11.672,kallum_motion_pilot_GIST_update_2,2026.1.1,Win32,29.94011976,65e6f4d668bfc2134b26348e,69b95efdef24cd8a694e89ee,69b960b7b7c602b7011d0e1b,0.1113,0.1114,0,125,125,125,1,seveneight,,,,,,,,,,,,,,,,,,,,,,,,,,,,,,,,,,,,,,,,,,,,,,,,,,,,,,,,,,,,,,,,,,,,,,,,,,,,,,,,,,,,,,,,,,,,,,,,,,,,,,,,,,,,,,,,,,,,,,,,,,,,,,,,,,,,,,,,,
,,65e6f4d668bfc2134b26348e,2026-03-17_16h10.11.672,kallum_motion_pilot_GIST_update_2,2026.1.1,Win32,29.94011976,65e6f4d668bfc2134b26348e,69b95efdef24cd8a694e89ee,69b960b7b7c602b7011d0e1b,0.1117,0.1118,0,126,126,16,1,onetwo,,,,,,,,,,,,,,,,,,,,,,,,,,,,,,,,,,,,,,,,,,,,,,,,,,,,,,,,,,,,,,,,,,,,,,,,,,,,,,,,,,,,,,,,,,,,,,,,,,,,,,,,,,,,,,,,,,,,,,,,,,,,,,,,,,,,,,,,,
,,65e6f4d668bfc2134b26348e,2026-03-17_16h10.11.672,kallum_motion_pilot_GIST_update_2,2026.1.1,Win32,29.94011976,65e6f4d668bfc2134b26348e,69b95efdef24cd8a694e89ee,69b960b7b7c602b7011d0e1b,0.1122,0.1122,0,127,127,130,1,sixfive,,,,,,,,,,,,,,,,,,,,,,,,,,,,,,,,,,,,,,,,,,,,,,,,,,,,,,,,,,,,,,,,,,,,,,,,,,,,,,,,,,,,,,,,,,,,,,,,,,,,,,,,,,,,,,,,,,,,,,,,,,,,,,,,,,,,,,,,,
,,65e6f4d668bfc2134b26348e,2026-03-17_16h10.11.672,kallum_motion_pilot_GIST_update_2,2026.1.1,Win32,29.94011976,65e6f4d668bfc2134b26348e,69b95efdef24cd8a694e89ee,69b960b7b7c602b7011d0e1b,0.1125,0.1126,0,128,128,91,1,sixeight,,,,,,,,,,,,,,,,,,,,,,,,,,,,,,,,,,,,,,,,,,,,,,,,,,,,,,,,,,,,,,,,,,,,,,,,,,,,,,,,,,,,,,,,,,,,,,,,,,,,,,,,,,,,,,,,,,,,,,,,,,,,,,,,,,,,,,,,,
,,65e6f4d668bfc2134b26348e,2026-03-17_16h10.11.672,kallum_motion_pilot_GIST_update_2,2026.1.1,Win32,29.94011976,65e6f4d668bfc2134b26348e,69b95efdef24cd8a694e89ee,69b960b7b7c602b7011d0e1b,0.1129,0.1129,0,129,129,45,1,threefour,,,,,,,,,,,,,,,,,,,,,,,,,,,,,,,,,,,,,,,,,,,,,,,,,,,,,,,,,,,,,,,,,,,,,,,,,,,,,,,,,,,,,,,,,,,,,,,,,,,,,,,,,,,,,,,,,,,,,,,,,,,,,,,,,,,,,,,,,
,,65e6f4d668bfc2134b26348e,2026-03-17_16h10.11.672,kallum_motion_pilot_GIST_update_2,2026.1.1,Win32,29.94011976,65e6f4d668bfc2134b26348e,69b95efdef24cd8a694e89ee,69b960b7b7c602b7011d0e1b,0.1133,0.1134,0,130,130,15,1,fourthree,,,,,,,,,,,,,,,,,,,,,,,,,,,,,,,,,,,,,,,,,,,,,,,,,,,,,,,,,,,,,,,,,,,,,,,,,,,,,,,,,,,,,,,,,,,,,,,,,,,,,,,,,,,,,,,,,,,,,,,,,,,,,,,,,,,,,,,,,
,,65e6f4d668bfc2134b26348e,2026-03-17_16h10.11.672,kallum_motion_pilot_GIST_update_2,2026.1.1,Win32,29.94011976,65e6f4d668bfc2134b26348e,69b95efdef24cd8a694e89ee,69b960b7b7c602b7011d0e1b,0.1137,0.1138,0,131,131,161,1,fiveseven,,,,,,,,,,,,,,,,,,,,,,,,,,,,,,,,,,,,,,,,,,,,,,,,,,,,,,,,,,,,,,,,,,,,,,,,,,,,,,,,,,,,,,,,,,,,,,,,,,,,,,,,,,,,,,,,,,,,,,,,,,,,,,,,,,,,,,,,,
,,65e6f4d668bfc2134b26348e,2026-03-17_16h10.11.672,kallum_motion_pilot_GIST_update_2,2026.1.1,Win32,29.94011976,65e6f4d668bfc2134b26348e,69b95efdef24cd8a694e89ee,69b960b7b7c602b7011d0e1b,0.1141,0.1142,0,132,132,114,1,sixfive,,,,,,,,,,,,,,,,,,,,,,,,,,,,,,,,,,,,,,,,,,,,,,,,,,,,,,,,,,,,,,,,,,,,,,,,,,,,,,,,,,,,,,,,,,,,,,,,,,,,,,,,,,,,,,,,,,,,,,,,,,,,,,,,,,,,,,,,,
,,65e6f4d668bfc2134b26348e,2026-03-17_16h10.11.672,kallum_motion_pilot_GIST_update_2,2026.1.1,Win32,29.94011976,65e6f4d668bfc2134b26348e,69b95efdef24cd8a694e89ee,69b960b7b7c602b7011d0e1b,0.1145,0.1146,0,133,133,25,1,onethree,,,,,,,,,,,,,,,,,,,,,,,,,,,,,,,,,,,,,,,,,,,,,,,,,,,,,,,,,,,,,,,,,,,,,,,,,,,,,,,,,,,,,,,,,,,,,,,,,,,,,,,,,,,,,,,,,,,,,,,,,,,,,,,,,,,,,,,,,
,,65e6f4d668bfc2134b26348e,2026-03-17_16h10.11.672,kallum_motion_pilot_GIST_update_2,2026.1.1,Win32,29.94011976,65e6f4d668bfc2134b26348e,69b95efdef24cd8a694e89ee,69b960b7b7c602b7011d0e1b,0.1149,0.115,0,134,134,83,1,sixeight,,,,,,,,,,,,,,,,,,,,,,,,,,,,,,,,,,,,,,,,,,,,,,,,,,,,,,,,,,,,,,,,,,,,,,,,,,,,,,,,,,,,,,,,,,,,,,,,,,,,,,,,,,,,,,,,,,,,,,,,,,,,,,,,,,,,,,,,,
,,65e6f4d668bfc2134b26348e,2026-03-17_16h10.11.672,kallum_motion_pilot_GIST_update_2,2026.1.1,Win32,29.94011976,65e6f4d668bfc2134b26348e,69b95efdef24cd8a694e89ee,69b960b7b7c602b7011d0e1b,0.1153,0.1153,0,135,135,112,1,fivesix,,,,,,,,,,,,,,,,,,,,,,,,,,,,,,,,,,,,,,,,,,,,,,,,,,,,,,,,,,,,,,,,,,,,,,,,,,,,,,,,,,,,,,,,,,,,,,,,,,,,,,,,,,,,,,,,,,,,,,,,,,,,,,,,,,,,,,,,,
,,65e6f4d668bfc2134b26348e,2026-03-17_16h10.11.672,kallum_motion_pilot_GIST_update_2,2026.1.1,Win32,29.94011976,65e6f4d668bfc2134b26348e,69b95efdef24cd8a694e89ee,69b960b7b7c602b7011d0e1b,0.1157,0.1158,0,136,136,87,1,eightseven,,,,,,,,,,,,,,,,,,,,,,,,,,,,,,,,,,,,,,,,,,,,,,,,,,,,,,,,,,,,,,,,,,,,,,,,,,,,,,,,,,,,,,,,,,,,,,,,,,,,,,,,,,,,,,,,,,,,,,,,,,,,,,,,,,,,,,,,,
,,65e6f4d668bfc2134b26348e,2026-03-17_16h10.11.672,kallum_motion_pilot_GIST_update_2,2026.1.1,Win32,29.94011976,65e6f4d668bfc2134b26348e,69b95efdef24cd8a694e89ee,69b960b7b7c602b7011d0e1b,0.1162,0.1162,0,137,137,8,1,onetwo,,,,,,,,,,,,,,,,,,,,,,,,,,,,,,,,,,,,,,,,,,,,,,,,,,,,,,,,,,,,,,,,,,,,,,,,,,,,,,,,,,,,,,,,,,,,,,,,,,,,,,,,,,,,,,,,,,,,,,,,,,,,,,,,,,,,,,,,,
,,65e6f4d668bfc2134b26348e,2026-03-17_16h10.11.672,kallum_motion_pilot_GIST_update_2,2026.1.1,Win32,29.94011976,65e6f4d668bfc2134b26348e,69b95efdef24cd8a694e89ee,69b960b7b7c602b7011d0e1b,0.1165,0.1165,0,138,138,134,1,eightsix,,,,,,,,,,,,,,,,,,,,,,,,,,,,,,,,,,,,,,,,,,,,,,,,,,,,,,,,,,,,,,,,,,,,,,,,,,,,,,,,,,,,,,,,,,,,,,,,,,,,,,,,,,,,,,,,,,,,,,,,,,,,,,,,,,,,,,,,,
,,65e6f4d668bfc2134b26348e,2026-03-17_16h10.11.672,kallum_motion_pilot_GIST_update_2,2026.1.1,Win32,29.94011976,65e6f4d668bfc2134b26348e,69b95efdef24cd8a694e89ee,69b960b7b7c602b7011d0e1b,0.1169,0.1171,0,139,139,116,1,sevenfive,,,,,,,,,,,,,,,,,,,,,,,,,,,,,,,,,,,,,,,,,,,,,,,,,,,,,,,,,,,,,,,,,,,,,,,,,,,,,,,,,,,,,,,,,,,,,,,,,,,,,,,,,,,,,,,,,,,,,,,,,,,,,,,,,,,,,,,,,
,,65e6f4d668bfc2134b26348e,2026-03-17_16h10.11.672,kallum_motion_pilot_GIST_update_2,2026.1.1,Win32,29.94011976,65e6f4d668bfc2134b26348e,69b95efdef24cd8a694e89ee,69b960b7b7c602b7011d0e1b,0.1173,0.1174,0,140,140,88,1,fivesix,,,,,,,,,,,,,,,,,,,,,,,,,,,,,,,,,,,,,,,,,,,,,,,,,,,,,,,,,,,,,,,,,,,,,,,,,,,,,,,,,,,,,,,,,,,,,,,,,,,,,,,,,,,,,,,,,,,,,,,,,,,,,,,,,,,,,,,,,
,,65e6f4d668bfc2134b26348e,2026-03-17_16h10.11.672,kallum_motion_pilot_GIST_update_2,2026.1.1,Win32,29.94011976,65e6f4d668bfc2134b26348e,69b95efdef24cd8a694e89ee,69b960b7b7c602b7011d0e1b,0.1177,0.1178,0,141,141,63,1,fourthree,,,,,,,,,,,,,,,,,,,,,,,,,,,,,,,,,,,,,,,,,,,,,,,,,,,,,,,,,,,,,,,,,,,,,,,,,,,,,,,,,,,,,,,,,,,,,,,,,,,,,,,,,,,,,,,,,,,,,,,,,,,,,,,,,,,,,,,,,
,,65e6f4d668bfc2134b26348e,2026-03-17_16h10.11.672,kallum_motion_pilot_GIST_update_2,2026.1.1,Win32,29.94011976,65e6f4d668bfc2134b26348e,69b95efdef24cd8a694e89ee,69b960b7b7c602b7011d0e1b,0.1181,0.1181,0,142,142,122,1,sixfive,,,,,,,,,,,,,,,,,,,,,,,,,,,,,,,,,,,,,,,,,,,,,,,,,,,,,,,,,,,,,,,,,,,,,,,,,,,,,,,,,,,,,,,,,,,,,,,,,,,,,,,,,,,,,,,,,,,,,,,,,,,,,,,,,,,,,,,,,
,,65e6f4d668bfc2134b26348e,2026-03-17_16h10.11.672,kallum_motion_pilot_GIST_update_2,2026.1.1,Win32,29.94011976,65e6f4d668bfc2134b26348e,69b95efdef24cd8a694e89ee,69b960b7b7c602b7011d0e1b,0.1187,0.1187,0,143,143,56,1,onetwo,,,,,,,,,,,,,,,,,,,,,,,,,,,,,,,,,,,,,,,,,,,,,,,,,,,,,,,,,,,,,,,,,,,,,,,,,,,,,,,,,,,,,,,,,,,,,,,,,,,,,,,,,,,,,,,,,,,,,,,,,,,,,,,,,,,,,,,,,
,,65e6f4d668bfc2134b26348e,2026-03-17_16h10.11.672,kallum_motion_pilot_GIST_update_2,2026.1.1,Win32,29.94011976,65e6f4d668bfc2134b26348e,69b95efdef24cd8a694e89ee,69b960b7b7c602b7011d0e1b,0.119,0.1191,0,144,144,54,1,fourtwo,,,,,,,,,,,,,,,,,,,,,,,,,,,,,,,,,,,,,,,,,,,,,,,,,,,,,,,,,,,,,,,,,,,,,,,,,,,,,,,,,,,,,,,,,,,,,,,,,,,,,,,,,,,,,,,,,,,,,,,,,,,,,,,,,,,,,,,,,
,,65e6f4d668bfc2134b26348e,2026-03-17_16h10.11.672,kallum_motion_pilot_GIST_update_2,2026.1.1,Win32,29.94011976,65e6f4d668bfc2134b26348e,69b95efdef24cd8a694e89ee,69b960b7b7c602b7011d0e1b,0.1197,0.1197,0,145,145,79,1,eightseven,,,,,,,,,,,,,,,,,,,,,,,,,,,,,,,,,,,,,,,,,,,,,,,,,,,,,,,,,,,,,,,,,,,,,,,,,,,,,,,,,,,,,,,,,,,,,,,,,,,,,,,,,,,,,,,,,,,,,,,,,,,,,,,,,,,,,,,,,
,,65e6f4d668bfc2134b26348e,2026-03-17_16h10.11.672,kallum_motion_pilot_GIST_update_2,2026.1.1,Win32,29.94011976,65e6f4d668bfc2134b26348e,69b95efdef24cd8a694e89ee,69b960b7b7c602b7011d0e1b,0.1201,0.1201,0,146,146,58,1,twoone,,,,,,,,,,,,,,,,,,,,,,,,,,,,,,,,,,,,,,,,,,,,,,,,,,,,,,,,,,,,,,,,,,,,,,,,,,,,,,,,,,,,,,,,,,,,,,,,,,,,,,,,,,,,,,,,,,,,,,,,,,,,,,,,,,,,,,,,,
,,65e6f4d668bfc2134b26348e,2026-03-17_16h10.11.672,kallum_motion_pilot_GIST_update_2,2026.1.1,Win32,29.94011976,65e6f4d668bfc2134b26348e,69b95efdef24cd8a694e89ee,69b960b7b7c602b7011d0e1b,0.1204,0.1204,0,147,147,160,1,fivesix,,,,,,,,,,,,,,,,,,,,,,,,,,,,,,,,,,,,,,,,,,,,,,,,,,,,,,,,,,,,,,,,,,,,,,,,,,,,,,,,,,,,,,,,,,,,,,,,,,,,,,,,,,,,,,,,,,,,,,,,,,,,,,,,,,,,,,,,,
,,65e6f4d668bfc2134b26348e,2026-03-17_16h10.11.672,kallum_motion_pilot_GIST_update_2,2026.1.1,Win32,29.94011976,65e6f4d668bfc2134b26348e,69b95efdef24cd8a694e89ee,69b960b7b7c602b7011d0e1b,0.1209,0.1209,0,148,148,74,1,twoone,,,,,,,,,,,,,,,,,,,,,,,,,,,,,,,,,,,,,,,,,,,,,,,,,,,,,,,,,,,,,,,,,,,,,,,,,,,,,,,,,,,,,,,,,,,,,,,,,,,,,,,,,,,,,,,,,,,,,,,,,,,,,,,,,,,,,,,,,
,,65e6f4d668bfc2134b26348e,2026-03-17_16h10.11.672,kallum_motion_pilot_GIST_update_2,2026.1.1,Win32,29.94011976,65e6f4d668bfc2134b26348e,69b95efdef24cd8a694e89ee,69b960b7b7c602b7011d0e1b,0.1212,0.1212,0,149,149,28,1,threeone,,,,,,,,,,,,,,,,,,,,,,,,,,,,,,,,,,,,,,,,,,,,,,,,,,,,,,,,,,,,,,,,,,,,,,,,,,,,,,,,,,,,,,,,,,,,,,,,,,,,,,,,,,,,,,,,,,,,,,,,,,,,,,,,,,,,,,,,,
,,65e6f4d668bfc2134b26348e,2026-03-17_16h10.11.672,kallum_motion_pilot_GIST_update_2,2026.1.1,Win32,29.94011976,65e6f4d668bfc2134b26348e,69b95efdef24cd8a694e89ee,69b960b7b7c602b7011d0e1b,0.1218,0.1218,0,150,150,43,1,twofour,,,,,,,,,,,,,,,,,,,,,,,,,,,,,,,,,,,,,,,,,,,,,,,,,,,,,,,,,,,,,,,,,,,,,,,,,,,,,,,,,,,,,,,,,,,,,,,,,,,,,,,,,,,,,,,,,,,,,,,,,,,,,,,,,,,,,,,,,
,,65e6f4d668bfc2134b26348e,2026-03-17_16h10.11.672,kallum_motion_pilot_GIST_update_2,2026.1.1,Win32,29.94011976,65e6f4d668bfc2134b26348e,69b95efdef24cd8a694e89ee,69b960b7b7c602b7011d0e1b,0.1222,0.1222,0,151,151,30,1,fourtwo,,,,,,,,,,,,,,,,,,,,,,,,,,,,,,,,,,,,,,,,,,,,,,,,,,,,,,,,,,,,,,,,,,,,,,,,,,,,,,,,,,,,,,,,,,,,,,,,,,,,,,,,,,,,,,,,,,,,,,,,,,,,,,,,,,,,,,,,,
,,65e6f4d668bfc2134b26348e,2026-03-17_16h10.11.672,kallum_motion_pilot_GIST_update_2,2026.1.1,Win32,29.94011976,65e6f4d668bfc2134b26348e,69b95efdef24cd8a694e89ee,69b960b7b7c602b7011d0e1b,0.1225,0.1225,0,152,152,118,1,eightsix,,,,,,,,,,,,,,,,,,,,,,,,,,,,,,,,,,,,,,,,,,,,,,,,,,,,,,,,,,,,,,,,,,,,,,,,,,,,,,,,,,,,,,,,,,,,,,,,,,,,,,,,,,,,,,,,,,,,,,,,,,,,,,,,,,,,,,,,,
,,65e6f4d668bfc2134b26348e,2026-03-17_16h10.11.672,kallum_motion_pilot_GIST_update_2,2026.1.1,Win32,29.94011976,65e6f4d668bfc2134b26348e,69b95efdef24cd8a694e89ee,69b960b7b7c602b7011d0e1b,0.1229,0.123,0,153,153,3,1,twofour,,,,,,,,,,,,,,,,,,,,,,,,,,,,,,,,,,,,,,,,,,,,,,,,,,,,,,,,,,,,,,,,,,,,,,,,,,,,,,,,,,,,,,,,,,,,,,,,,,,,,,,,,,,,,,,,,,,,,,,,,,,,,,,,,,,,,,,,,
,,65e6f4d668bfc2134b26348e,2026-03-17_16h10.11.672,kallum_motion_pilot_GIST_update_2,2026.1.1,Win32,29.94011976,65e6f4d668bfc2134b26348e,69b95efdef24cd8a694e89ee,69b960b7b7c602b7011d0e1b,0.1233,0.1234,0,154,154,108,1,sevenfive,,,,,,,,,,,,,,,,,,,,,,,,,,,,,,,,,,,,,,,,,,,,,,,,,,,,,,,,,,,,,,,,,,,,,,,,,,,,,,,,,,,,,,,,,,,,,,,,,,,,,,,,,,,,,,,,,,,,,,,,,,,,,,,,,,,,,,,,,
,,65e6f4d668bfc2134b26348e,2026-03-17_16h10.11.672,kallum_motion_pilot_GIST_update_2,2026.1.1,Win32,29.94011976,65e6f4d668bfc2134b26348e,69b95efdef24cd8a694e89ee,69b960b7b7c602b7011d0e1b,0.1238,0.1238,0,155,155,57,1,onethree,,,,,,,,,,,,,,,,,,,,,,,,,,,,,,,,,,,,,,,,,,,,,,,,,,,,,,,,,,,,,,,,,,,,,,,,,,,,,,,,,,,,,,,,,,,,,,,,,,,,,,,,,,,,,,,,,,,,,,,,,,,,,,,,,,,,,,,,,
,,65e6f4d668bfc2134b26348e,2026-03-17_16h10.11.672,kallum_motion_pilot_GIST_update_2,2026.1.1,Win32,29.94011976,65e6f4d668bfc2134b26348e,69b95efdef24cd8a694e89ee,69b960b7b7c602b7011d0e1b,0.1247,0.1248,0,156,156,40,1,onetwo,,,,,,,,,,,,,,,,,,,,,,,,,,,,,,,,,,,,,,,,,,,,,,,,,,,,,,,,,,,,,,,,,,,,,,,,,,,,,,,,,,,,,,,,,,,,,,,,,,,,,,,,,,,,,,,,,,,,,,,,,,,,,,,,,,,,,,,,,
,,65e6f4d668bfc2134b26348e,2026-03-17_16h10.11.672,kallum_motion_pilot_GIST_update_2,2026.1.1,Win32,29.94011976,65e6f4d668bfc2134b26348e,69b95efdef24cd8a694e89ee,69b960b7b7c602b7011d0e1b,0.1251,0.1252,0,157,157,31,1,fourthree,,,,,,,,,,,,,,,,,,,,,,,,,,,,,,,,,,,,,,,,,,,,,,,,,,,,,,,,,,,,,,,,,,,,,,,,,,,,,,,,,,,,,,,,,,,,,,,,,,,,,,,,,,,,,,,,,,,,,,,,,,,,,,,,,,,,,,,,,
,,65e6f4d668bfc2134b26348e,2026-03-17_16h10.11.672,kallum_motion_pilot_GIST_update_2,2026.1.1,Win32,29.94011976,65e6f4d668bfc2134b26348e,69b95efdef24cd8a694e89ee,69b960b7b7c602b7011d0e1b,0.1256,0.1256,0,158,158,41,1,onethree,,,,,,,,,,,,,,,,,,,,,,,,,,,,,,,,,,,,,,,,,,,,,,,,,,,,,,,,,,,,,,,,,,,,,,,,,,,,,,,,,,,,,,,,,,,,,,,,,,,,,,,,,,,,,,,,,,,,,,,,,,,,,,,,,,,,,,,,,
,,65e6f4d668bfc2134b26348e,2026-03-17_16h10.11.672,kallum_motion_pilot_GIST_update_2,2026.1.1,Win32,29.94011976,65e6f4d668bfc2134b26348e,69b95efdef24cd8a694e89ee,69b960b7b7c602b7011d0e1b,0.1259,0.126,0,159,159,103,1,eightseven,,,,,,,,,,,,,,,,,,,,,,,,,,,,,,,,,,,,,,,,,,,,,,,,,,,,,,,,,,,,,,,,,,,,,,,,,,,,,,,,,,,,,,,,,,,,,,,,,,,,,,,,,,,,,,,,,,,,,,,,,,,,,,,,,,,,,,,,,
,,65e6f4d668bfc2134b26348e,2026-03-17_16h10.11.672,kallum_motion_pilot_GIST_update_2,2026.1.1,Win32,29.94011976,65e6f4d668bfc2134b26348e,69b95efdef24cd8a694e89ee,69b960b7b7c602b7011d0e1b,0.1263,0.1263,0,160,160,98,1,sixfive,,,,,,,,,,,,,,,,,,,,,,,,,,,,,,,,,,,,,,,,,,,,,,,,,,,,,,,,,,,,,,,,,,,,,,,,,,,,,,,,,,,,,,,,,,,,,,,,,,,,,,,,,,,,,,,,,,,,,,,,,,,,,,,,,,,,,,,,,
,,65e6f4d668bfc2134b26348e,2026-03-17_16h10.11.672,kallum_motion_pilot_GIST_update_2,2026.1.1,Win32,29.94011976,65e6f4d668bfc2134b26348e,69b95efdef24cd8a694e89ee,69b960b7b7c602b7011d0e1b,0.1267,0.1267,0,161,161,105,1,fiveseven,,,,,,,,,,,,,,,,,,,,,,,,,,,,,,,,,,,,,,,,,,,,,,,,,,,,,,,,,,,,,,,,,,,,,,,,,,,,,,,,,,,,,,,,,,,,,,,,,,,,,,,,,,,,,,,,,,,,,,,,,,,,,,,,,,,,,,,,,
,,65e6f4d668bfc2134b26348e,2026-03-17_16h10.11.672,kallum_motion_pilot_GIST_update_2,2026.1.1,Win32,29.94011976,65e6f4d668bfc2134b26348e,69b95efdef24cd8a694e89ee,69b960b7b7c602b7011d0e1b,0.1271,0.1271,1,0,162,122,1,sixfive,,,,,,,,,,,,,,,,,,,,,,,,,,,,,,,,,,,,,,,,,,,,,,,,,,,,,,,,,,,,,,,,,,,,,,,,,,,,,,,,,,,,,,,,,,,,,,,,,,,,,,,,,,,,,,,,,,,,,,,,,,,,,,,,,,,,,,,,,
,,65e6f4d668bfc2134b26348e,2026-03-17_16h10.11.672,kallum_motion_pilot_GIST_update_2,2026.1.1,Win32,29.94011976,65e6f4d668bfc2134b26348e,69b95efdef24cd8a694e89ee,69b960b7b7c602b7011d0e1b,0.1275,0.1276,1,1,163,108,1,sevenfive,,,,,,,,,,,,,,,,,,,,,,,,,,,,,,,,,,,,,,,,,,,,,,,,,,,,,,,,,,,,,,,,,,,,,,,,,,,,,,,,,,,,,,,,,,,,,,,,,,,,,,,,,,,,,,,,,,,,,,,,,,,,,,,,,,,,,,,,,
,,65e6f4d668bfc2134b26348e,2026-03-17_16h10.11.672,kallum_motion_pilot_GIST_update_2,2026.1.1,Win32,29.94011976,65e6f4d668bfc2134b26348e,69b95efdef24cd8a694e89ee,69b960b7b7c602b7011d0e1b,0.1279,0.128,1,2,164,156,1,sevenfive,,,,,,,,,,,,,,,,,,,,,,,,,,,,,,,,,,,,,,,,,,,,,,,,,,,,,,,,,,,,,,,,,,,,,,,,,,,,,,,,,,,,,,,,,,,,,,,,,,,,,,,,,,,,,,,,,,,,,,,,,,,,,,,,,,,,,,,,,
,,65e6f4d668bfc2134b26348e,2026-03-17_16h10.11.672,kallum_motion_pilot_GIST_update_2,2026.1.1,Win32,29.94011976,65e6f4d668bfc2134b26348e,69b95efdef24cd8a694e89ee,69b960b7b7c602b7011d0e1b,0.1284,0.1284,1,3,165,130,1,sixfive,,,,,,,,,,,,,,,,,,,,,,,,,,,,,,,,,,,,,,,,,,,,,,,,,,,,,,,,,,,,,,,,,,,,,,,,,,,,,,,,,,,,,,,,,,,,,,,,,,,,,,,,,,,,,,,,,,,,,,,,,,,,,,,,,,,,,,,,,
,,65e6f4d668bfc2134b26348e,2026-03-17_16h10.11.672,kallum_motion_pilot_GIST_update_2,2026.1.1,Win32,29.94011976,65e6f4d668bfc2134b26348e,69b95efdef24cd8a694e89ee,69b960b7b7c602b7011d0e1b,0.1288,0.1289,1,4,166,159,1,eightseven,,,,,,,,,,,,,,,,,,,,,,,,,,,,,,,,,,,,,,,,,,,,,,,,,,,,,,,,,,,,,,,,,,,,,,,,,,,,,,,,,,,,,,,,,,,,,,,,,,,,,,,,,,,,,,,,,,,,,,,,,,,,,,,,,,,,,,,,,
,,65e6f4d668bfc2134b26348e,2026-03-17_16h10.11.672,kallum_motion_pilot_GIST_update_2,2026.1.1,Win32,29.94011976,65e6f4d668bfc2134b26348e,69b95efdef24cd8a694e89ee,69b960b7b7c602b7011d0e1b,0.1292,0.1294,1,5,167,58,1,twoone,,,,,,,,,,,,,,,,,,,,,,,,,,,,,,,,,,,,,,,,,,,,,,,,,,,,,,,,,,,,,,,,,,,,,,,,,,,,,,,,,,,,,,,,,,,,,,,,,,,,,,,,,,,,,,,,,,,,,,,,,,,,,,,,,,,,,,,,,
,,65e6f4d668bfc2134b26348e,2026-03-17_16h10.11.672,kallum_motion_pilot_GIST_update_2,2026.1.1,Win32,29.94011976,65e6f4d668bfc2134b26348e,69b95efdef24cd8a694e89ee,69b960b7b7c602b7011d0e1b,0.1299,0.1299,1,6,168,21,1,threefour,,,,,,,,,,,,,,,,,,,,,,,,,,,,,,,,,,,,,,,,,,,,,,,,,,,,,,,,,,,,,,,,,,,,,,,,,,,,,,,,,,,,,,,,,,,,,,,,,,,,,,,,,,,,,,,,,,,,,,,,,,,,,,,,,,,,,,,,,
,,65e6f4d668bfc2134b26348e,2026-03-17_16h10.11.672,kallum_motion_pilot_GIST_update_2,2026.1.1,Win32,29.94011976,65e6f4d668bfc2134b26348e,69b95efdef24cd8a694e89ee,69b960b7b7c602b7011d0e1b,0.1302,0.1302,1,7,169,40,1,onetwo,,,,,,,,,,,,,,,,,,,,,,,,,,,,,,,,,,,,,,,,,,,,,,,,,,,,,,,,,,,,,,,,,,,,,,,,,,,,,,,,,,,,,,,,,,,,,,,,,,,,,,,,,,,,,,,,,,,,,,,,,,,,,,,,,,,,,,,,,
,,65e6f4d668bfc2134b26348e,2026-03-17_16h10.11.672,kallum_motion_pilot_GIST_update_2,2026.1.1,Win32,29.94011976,65e6f4d668bfc2134b26348e,69b95efdef24cd8a694e89ee,69b960b7b7c602b7011d0e1b,0.1306,0.1306,1,8,170,68,1,threeone,,,,,,,,,,,,,,,,,,,,,,,,,,,,,,,,,,,,,,,,,,,,,,,,,,,,,,,,,,,,,,,,,,,,,,,,,,,,,,,,,,,,,,,,,,,,,,,,,,,,,,,,,,,,,,,,,,,,,,,,,,,,,,,,,,,,,,,,,
,,65e6f4d668bfc2134b26348e,2026-03-17_16h10.11.672,kallum_motion_pilot_GIST_update_2,2026.1.1,Win32,29.94011976,65e6f4d668bfc2134b26348e,69b95efdef24cd8a694e89ee,69b960b7b7c602b7011d0e1b,0.1311,0.1311,1,9,171,60,1,threeone,,,,,,,,,,,,,,,,,,,,,,,,,,,,,,,,,,,,,,,,,,,,,,,,,,,,,,,,,,,,,,,,,,,,,,,,,,,,,,,,,,,,,,,,,,,,,,,,,,,,,,,,,,,,,,,,,,,,,,,,,,,,,,,,,,,,,,,,,
,,65e6f4d668bfc2134b26348e,2026-03-17_16h10.11.672,kallum_motion_pilot_GIST_update_2,2026.1.1,Win32,29.94011976,65e6f4d668bfc2134b26348e,69b95efdef24cd8a694e89ee,69b960b7b7c602b7011d0e1b,0.1314,0.1315,1,10,172,92,1,sevenfive,,,,,,,,,,,,,,,,,,,,,,,,,,,,,,,,,,,,,,,,,,,,,,,,,,,,,,,,,,,,,,,,,,,,,,,,,,,,,,,,,,,,,,,,,,,,,,,,,,,,,,,,,,,,,,,,,,,,,,,,,,,,,,,,,,,,,,,,,
,,65e6f4d668bfc2134b26348e,2026-03-17_16h10.11.672,kallum_motion_pilot_GIST_update_2,2026.1.1,Win32,29.94011976,65e6f4d668bfc2134b26348e,69b95efdef24cd8a694e89ee,69b960b7b7c602b7011d0e1b,0.1319,0.1319,1,11,173,24,1,onetwo,,,,,,,,,,,,,,,,,,,,,,,,,,,,,,,,,,,,,,,,,,,,,,,,,,,,,,,,,,,,,,,,,,,,,,,,,,,,,,,,,,,,,,,,,,,,,,,,,,,,,,,,,,,,,,,,,,,,,,,,,,,,,,,,,,,,,,,,,
,,65e6f4d668bfc2134b26348e,2026-03-17_16h10.11.672,kallum_motion_pilot_GIST_update_2,2026.1.1,Win32,29.94011976,65e6f4d668bfc2134b26348e,69b95efdef24cd8a694e89ee,69b960b7b7c602b7011d0e1b,0.1322,0.1322,1,12,174,57,1,onethree,,,,,,,,,,,,,,,,,,,,,,,,,,,,,,,,,,,,,,,,,,,,,,,,,,,,,,,,,,,,,,,,,,,,,,,,,,,,,,,,,,,,,,,,,,,,,,,,,,,,,,,,,,,,,,,,,,,,,,,,,,,,,,,,,,,,,,,,,
,,65e6f4d668bfc2134b26348e,2026-03-17_16h10.11.672,kallum_motion_pilot_GIST_update_2,2026.1.1,Win32,29.94011976,65e6f4d668bfc2134b26348e,69b95efdef24cd8a694e89ee,69b960b7b7c602b7011d0e1b,0.1326,0.1327,1,13,175,15,1,fourthree,,,,,,,,,,,,,,,,,,,,,,,,,,,,,,,,,,,,,,,,,,,,,,,,,,,,,,,,,,,,,,,,,,,,,,,,,,,,,,,,,,,,,,,,,,,,,,,,,,,,,,,,,,,,,,,,,,,,,,,,,,,,,,,,,,,,,,,,,
,,65e6f4d668bfc2134b26348e,2026-03-17_16h10.11.672,kallum_motion_pilot_GIST_update_2,2026.1.1,Win32,29.94011976,65e6f4d668bfc2134b26348e,69b95efdef24cd8a694e89ee,69b960b7b7c602b7011d0e1b,0.1331,0.1331,1,14,176,22,1,fourtwo,,,,,,,,,,,,,,,,,,,,,,,,,,,,,,,,,,,,,,,,,,,,,,,,,,,,,,,,,,,,,,,,,,,,,,,,,,,,,,,,,,,,,,,,,,,,,,,,,,,,,,,,,,,,,,,,,,,,,,,,,,,,,,,,,,,,,,,,,
,,65e6f4d668bfc2134b26348e,2026-03-17_16h10.11.672,kallum_motion_pilot_GIST_update_2,2026.1.1,Win32,29.94011976,65e6f4d668bfc2134b26348e,69b95efdef24cd8a694e89ee,69b960b7b7c602b7011d0e1b,0.1334,0.1335,1,15,177,161,1,fiveseven,,,,,,,,,,,,,,,,,,,,,,,,,,,,,,,,,,,,,,,,,,,,,,,,,,,,,,,,,,,,,,,,,,,,,,,,,,,,,,,,,,,,,,,,,,,,,,,,,,,,,,,,,,,,,,,,,,,,,,,,,,,,,,,,,,,,,,,,,
,,65e6f4d668bfc2134b26348e,2026-03-17_16h10.11.672,kallum_motion_pilot_GIST_update_2,2026.1.1,Win32,29.94011976,65e6f4d668bfc2134b26348e,69b95efdef24cd8a694e89ee,69b960b7b7c602b7011d0e1b,0.1365,0.1365,1,16,178,3,1,twofour,,,,,,,,,,,,,,,,,,,,,,,,,,,,,,,,,,,,,,,,,,,,,,,,,,,,,,,,,,,,,,,,,,,,,,,,,,,,,,,,,,,,,,,,,,,,,,,,,,,,,,,,,,,,,,,,,,,,,,,,,,,,,,,,,,,,,,,,,
,,65e6f4d668bfc2134b26348e,2026-03-17_16h10.11.672,kallum_motion_pilot_GIST_update_2,2026.1.1,Win32,29.94011976,65e6f4d668bfc2134b26348e,69b95efdef24cd8a694e89ee,69b960b7b7c602b7011d0e1b,0.137,0.137,1,17,179,80,1,fivesix,,,,,,,,,,,,,,,,,,,,,,,,,,,,,,,,,,,,,,,,,,,,,,,,,,,,,,,,,,,,,,,,,,,,,,,,,,,,,,,,,,,,,,,,,,,,,,,,,,,,,,,,,,,,,,,,,,,,,,,,,,,,,,,,,,,,,,,,,
,,65e6f4d668bfc2134b26348e,2026-03-17_16h10.11.672,kallum_motion_pilot_GIST_update_2,2026.1.1,Win32,29.94011976,65e6f4d668bfc2134b26348e,69b95efdef24cd8a694e89ee,69b960b7b7c602b7011d0e1b,0.1374,0.1374,1,18,180,109,1,seveneight,,,,,,,,,,,,,,,,,,,,,,,,,,,,,,,,,,,,,,,,,,,,,,,,,,,,,,,,,,,,,,,,,,,,,,,,,,,,,,,,,,,,,,,,,,,,,,,,,,,,,,,,,,,,,,,,,,,,,,,,,,,,,,,,,,,,,,,,,
,,65e6f4d668bfc2134b26348e,2026-03-17_16h10.11.672,kallum_motion_pilot_GIST_update_2,2026.1.1,Win32,29.94011976,65e6f4d668bfc2134b26348e,69b95efdef24cd8a694e89ee,69b960b7b7c602b7011d0e1b,0.1378,0.1379,1,19,181,62,1,fourtwo,,,,,,,,,,,,,,,,,,,,,,,,,,,,,,,,,,,,,,,,,,,,,,,,,,,,,,,,,,,,,,,,,,,,,,,,,,,,,,,,,,,,,,,,,,,,,,,,,,,,,,,,,,,,,,,,,,,,,,,,,,,,,,,,,,,,,,,,,
,,65e6f4d668bfc2134b26348e,2026-03-17_16h10.11.672,kallum_motion_pilot_GIST_update_2,2026.1.1,Win32,29.94011976,65e6f4d668bfc2134b26348e,69b95efdef24cd8a694e89ee,69b960b7b7c602b7011d0e1b,0.1383,0.1383,1,20,182,48,1,onetwo,,,,,,,,,,,,,,,,,,,,,,,,,,,,,,,,,,,,,,,,,,,,,,,,,,,,,,,,,,,,,,,,,,,,,,,,,,,,,,,,,,,,,,,,,,,,,,,,,,,,,,,,,,,,,,,,,,,,,,,,,,,,,,,,,,,,,,,,,
,,65e6f4d668bfc2134b26348e,2026-03-17_16h10.11.672,kallum_motion_pilot_GIST_update_2,2026.1.1,Win32,29.94011976,65e6f4d668bfc2134b26348e,69b95efdef24cd8a694e89ee,69b960b7b7c602b7011d0e1b,0.1387,0.1387,1,21,183,20,1,threeone,,,,,,,,,,,,,,,,,,,,,,,,,,,,,,,,,,,,,,,,,,,,,,,,,,,,,,,,,,,,,,,,,,,,,,,,,,,,,,,,,,,,,,,,,,,,,,,,,,,,,,,,,,,,,,,,,,,,,,,,,,,,,,,,,,,,,,,,,
,,65e6f4d668bfc2134b26348e,2026-03-17_16h10.11.672,kallum_motion_pilot_GIST_update_2,2026.1.1,Win32,29.94011976,65e6f4d668bfc2134b26348e,69b95efdef24cd8a694e89ee,69b960b7b7c602b7011d0e1b,0.139,0.1391,1,22,184,63,1,fourthree,,,,,,,,,,,,,,,,,,,,,,,,,,,,,,,,,,,,,,,,,,,,,,,,,,,,,,,,,,,,,,,,,,,,,,,,,,,,,,,,,,,,,,,,,,,,,,,,,,,,,,,,,,,,,,,,,,,,,,,,,,,,,,,,,,,,,,,,,
,,65e6f4d668bfc2134b26348e,2026-03-17_16h10.11.672,kallum_motion_pilot_GIST_update_2,2026.1.1,Win32,29.94011976,65e6f4d668bfc2134b26348e,69b95efdef24cd8a694e89ee,69b960b7b7c602b7011d0e1b,0.1396,0.1397,1,23,185,112,1,fivesix,,,,,,,,,,,,,,,,,,,,,,,,,,,,,,,,,,,,,,,,,,,,,,,,,,,,,,,,,,,,,,,,,,,,,,,,,,,,,,,,,,,,,,,,,,,,,,,,,,,,,,,,,,,,,,,,,,,,,,,,,,,,,,,,,,,,,,,,,
,,65e6f4d668bfc2134b26348e,2026-03-17_16h10.11.672,kallum_motion_pilot_GIST_update_2,2026.1.1,Win32,29.94011976,65e6f4d668bfc2134b26348e,69b95efdef24cd8a694e89ee,69b960b7b7c602b7011d0e1b,0.1401,0.1402,1,24,186,52,1,threeone,,,,,,,,,,,,,,,,,,,,,,,,,,,,,,,,,,,,,,,,,,,,,,,,,,,,,,,,,,,,,,,,,,,,,,,,,,,,,,,,,,,,,,,,,,,,,,,,,,,,,,,,,,,,,,,,,,,,,,,,,,,,,,,,,,,,,,,,,
,,65e6f4d668bfc2134b26348e,2026-03-17_16h10.11.672,kallum_motion_pilot_GIST_update_2,2026.1.1,Win32,29.94011976,65e6f4d668bfc2134b26348e,69b95efdef24cd8a694e89ee,69b960b7b7c602b7011d0e1b,0.1409,0.1409,1,25,187,28,1,threeone,,,,,,,,,,,,,,,,,,,,,,,,,,,,,,,,,,,,,,,,,,,,,,,,,,,,,,,,,,,,,,,,,,,,,,,,,,,,,,,,,,,,,,,,,,,,,,,,,,,,,,,,,,,,,,,,,,,,,,,,,,,,,,,,,,,,,,,,,
,,65e6f4d668bfc2134b26348e,2026-03-17_16h10.11.672,kallum_motion_pilot_GIST_update_2,2026.1.1,Win32,29.94011976,65e6f4d668bfc2134b26348e,69b95efdef24cd8a694e89ee,69b960b7b7c602b7011d0e1b,0.1415,0.1416,1,26,188,111,1,eightseven,,,,,,,,,,,,,,,,,,,,,,,,,,,,,,,,,,,,,,,,,,,,,,,,,,,,,,,,,,,,,,,,,,,,,,,,,,,,,,,,,,,,,,,,,,,,,,,,,,,,,,,,,,,,,,,,,,,,,,,,,,,,,,,,,,,,,,,,,
,,65e6f4d668bfc2134b26348e,2026-03-17_16h10.11.672,kallum_motion_pilot_GIST_update_2,2026.1.1,Win32,29.94011976,65e6f4d668bfc2134b26348e,69b95efdef24cd8a694e89ee,69b960b7b7c602b7011d0e1b,0.1422,0.1422,1,27,189,103,1,eightseven,,,,,,,,,,,,,,,,,,,,,,,,,,,,,,,,,,,,,,,,,,,,,,,,,,,,,,,,,,,,,,,,,,,,,,,,,,,,,,,,,,,,,,,,,,,,,,,,,,,,,,,,,,,,,,,,,,,,,,,,,,,,,,,,,,,,,,,,,
,,65e6f4d668bfc2134b26348e,2026-03-17_16h10.11.672,kallum_motion_pilot_GIST_update_2,2026.1.1,Win32,29.94011976,65e6f4d668bfc2134b26348e,69b95efdef24cd8a694e89ee,69b960b7b7c602b7011d0e1b,0.1425,0.1426,1,28,190,6,1,fourtwo,,,,,,,,,,,,,,,,,,,,,,,,,,,,,,,,,,,,,,,,,,,,,,,,,,,,,,,,,,,,,,,,,,,,,,,,,,,,,,,,,,,,,,,,,,,,,,,,,,,,,,,,,,,,,,,,,,,,,,,,,,,,,,,,,,,,,,,,,
,,65e6f4d668bfc2134b26348e,2026-03-17_16h10.11.672,kallum_motion_pilot_GIST_update_2,2026.1.1,Win32,29.94011976,65e6f4d668bfc2134b26348e,69b95efdef24cd8a694e89ee,69b960b7b7c602b7011d0e1b,0.1429,0.1429,1,29,191,74,1,twoone,,,,,,,,,,,,,,,,,,,,,,,,,,,,,,,,,,,,,,,,,,,,,,,,,,,,,,,,,,,,,,,,,,,,,,,,,,,,,,,,,,,,,,,,,,,,,,,,,,,,,,,,,,,,,,,,,,,,,,,,,,,,,,,,,,,,,,,,,
,,65e6f4d668bfc2134b26348e,2026-03-17_16h10.11.672,kallum_motion_pilot_GIST_update_2,2026.1.1,Win32,29.94011976,65e6f4d668bfc2134b26348e,69b95efdef24cd8a694e89ee,69b960b7b7c602b7011d0e1b,0.1436,0.1436,1,30,192,29,1,threefour,,,,,,,,,,,,,,,,,,,,,,,,,,,,,,,,,,,,,,,,,,,,,,,,,,,,,,,,,,,,,,,,,,,,,,,,,,,,,,,,,,,,,,,,,,,,,,,,,,,,,,,,,,,,,,,,,,,,,,,,,,,,,,,,,,,,,,,,,
,,65e6f4d668bfc2134b26348e,2026-03-17_16h10.11.672,kallum_motion_pilot_GIST_update_2,2026.1.1,Win32,29.94011976,65e6f4d668bfc2134b26348e,69b95efdef24cd8a694e89ee,69b960b7b7c602b7011d0e1b,0.1441,0.1442,1,31,193,131,1,sixeight,,,,,,,,,,,,,,,,,,,,,,,,,,,,,,,,,,,,,,,,,,,,,,,,,,,,,,,,,,,,,,,,,,,,,,,,,,,,,,,,,,,,,,,,,,,,,,,,,,,,,,,,,,,,,,,,,,,,,,,,,,,,,,,,,,,,,,,,,
,,65e6f4d668bfc2134b26348e,2026-03-17_16h10.11.672,kallum_motion_pilot_GIST_update_2,2026.1.1,Win32,29.94011976,65e6f4d668bfc2134b26348e,69b95efdef24cd8a694e89ee,69b960b7b7c602b7011d0e1b,0.1446,0.1446,1,32,194,141,1,seveneight,,,,,,,,,,,,,,,,,,,,,,,,,,,,,,,,,,,,,,,,,,,,,,,,,,,,,,,,,,,,,,,,,,,,,,,,,,,,,,,,,,,,,,,,,,,,,,,,,,,,,,,,,,,,,,,,,,,,,,,,,,,,,,,,,,,,,,,,,
,,65e6f4d668bfc2134b26348e,2026-03-17_16h10.11.672,kallum_motion_pilot_GIST_update_2,2026.1.1,Win32,29.94011976,65e6f4d668bfc2134b26348e,69b95efdef24cd8a694e89ee,69b960b7b7c602b7011d0e1b,0.145,0.145,1,33,195,54,1,fourtwo,,,,,,,,,,,,,,,,,,,,,,,,,,,,,,,,,,,,,,,,,,,,,,,,,,,,,,,,,,,,,,,,,,,,,,,,,,,,,,,,,,,,,,,,,,,,,,,,,,,,,,,,,,,,,,,,,,,,,,,,,,,,,,,,,,,,,,,,,
,,65e6f4d668bfc2134b26348e,2026-03-17_16h10.11.672,kallum_motion_pilot_GIST_update_2,2026.1.1,Win32,29.94011976,65e6f4d668bfc2134b26348e,69b95efdef24cd8a694e89ee,69b960b7b7c602b7011d0e1b,0.1454,0.1454,1,34,196,117,1,seveneight,,,,,,,,,,,,,,,,,,,,,,,,,,,,,,,,,,,,,,,,,,,,,,,,,,,,,,,,,,,,,,,,,,,,,,,,,,,,,,,,,,,,,,,,,,,,,,,,,,,,,,,,,,,,,,,,,,,,,,,,,,,,,,,,,,,,,,,,,
,,65e6f4d668bfc2134b26348e,2026-03-17_16h10.11.672,kallum_motion_pilot_GIST_update_2,2026.1.1,Win32,29.94011976,65e6f4d668bfc2134b26348e,69b95efdef24cd8a694e89ee,69b960b7b7c602b7011d0e1b,0.1458,0.1458,1,35,197,153,1,fiveseven,,,,,,,,,,,,,,,,,,,,,,,,,,,,,,,,,,,,,,,,,,,,,,,,,,,,,,,,,,,,,,,,,,,,,,,,,,,,,,,,,,,,,,,,,,,,,,,,,,,,,,,,,,,,,,,,,,,,,,,,,,,,,,,,,,,,,,,,,
,,65e6f4d668bfc2134b26348e,2026-03-17_16h10.11.672,kallum_motion_pilot_GIST_update_2,2026.1.1,Win32,29.94011976,65e6f4d668bfc2134b26348e,69b95efdef24cd8a694e89ee,69b960b7b7c602b7011d0e1b,0.1462,0.1462,1,36,198,129,1,fiveseven,,,,,,,,,,,,,,,,,,,,,,,,,,,,,,,,,,,,,,,,,,,,,,,,,,,,,,,,,,,,,,,,,,,,,,,,,,,,,,,,,,,,,,,,,,,,,,,,,,,,,,,,,,,,,,,,,,,,,,,,,,,,,,,,,,,,,,,,,
,,65e6f4d668bfc2134b26348e,2026-03-17_16h10.11.672,kallum_motion_pilot_GIST_update_2,2026.1.1,Win32,29.94011976,65e6f4d668bfc2134b26348e,69b95efdef24cd8a694e89ee,69b960b7b7c602b7011d0e1b,0.1467,0.1467,1,37,199,35,1,twofour,,,,,,,,,,,,,,,,,,,,,,,,,,,,,,,,,,,,,,,,,,,,,,,,,,,,,,,,,,,,,,,,,,,,,,,,,,,,,,,,,,,,,,,,,,,,,,,,,,,,,,,,,,,,,,,,,,,,,,,,,,,,,,,,,,,,,,,,,
,,65e6f4d668bfc2134b26348e,2026-03-17_16h10.11.672,kallum_motion_pilot_GIST_update_2,2026.1.1,Win32,29.94011976,65e6f4d668bfc2134b26348e,69b95efdef24cd8a694e89ee,69b960b7b7c602b7011d0e1b,0.1471,0.1471,1,38,200,27,1,twofour,,,,,,,,,,,,,,,,,,,,,,,,,,,,,,,,,,,,,,,,,,,,,,,,,,,,,,,,,,,,,,,,,,,,,,,,,,,,,,,,,,,,,,,,,,,,,,,,,,,,,,,,,,,,,,,,,,,,,,,,,,,,,,,,,,,,,,,,,
,,65e6f4d668bfc2134b26348e,2026-03-17_16h10.11.672,kallum_motion_pilot_GIST_update_2,2026.1.1,Win32,29.94011976,65e6f4d668bfc2134b26348e,69b95efdef24cd8a694e89ee,69b960b7b7c602b7011d0e1b,0.1474,0.1475,1,39,201,133,1,seveneight,,,,,,,,,,,,,,,,,,,,,,,,,,,,,,,,,,,,,,,,,,,,,,,,,,,,,,,,,,,,,,,,,,,,,,,,,,,,,,,,,,,,,,,,,,,,,,,,,,,,,,,,,,,,,,,,,,,,,,,,,,,,,,,,,,,,,,,,,
,,65e6f4d668bfc2134b26348e,2026-03-17_16h10.11.672,kallum_motion_pilot_GIST_update_2,2026.1.1,Win32,29.94011976,65e6f4d668bfc2134b26348e,69b95efdef24cd8a694e89ee,69b960b7b7c602b7011d0e1b,0.1479,0.1479,1,40,202,45,1,threefour,,,,,,,,,,,,,,,,,,,,,,,,,,,,,,,,,,,,,,,,,,,,,,,,,,,,,,,,,,,,,,,,,,,,,,,,,,,,,,,,,,,,,,,,,,,,,,,,,,,,,,,,,,,,,,,,,,,,,,,,,,,,,,,,,,,,,,,,,
,,65e6f4d668bfc2134b26348e,2026-03-17_16h10.11.672,kallum_motion_pilot_GIST_update_2,2026.1.1,Win32,29.94011976,65e6f4d668bfc2134b26348e,69b95efdef24cd8a694e89ee,69b960b7b7c602b7011d0e1b,0.1483,0.1483,1,41,203,87,1,eightseven,,,,,,,,,,,,,,,,,,,,,,,,,,,,,,,,,,,,,,,,,,,,,,,,,,,,,,,,,,,,,,,,,,,,,,,,,,,,,,,,,,,,,,,,,,,,,,,,,,,,,,,,,,,,,,,,,,,,,,,,,,,,,,,,,,,,,,,,,
,,65e6f4d668bfc2134b26348e,2026-03-17_16h10.11.672,kallum_motion_pilot_GIST_update_2,2026.1.1,Win32,29.94011976,65e6f4d668bfc2134b26348e,69b95efdef24cd8a694e89ee,69b960b7b7c602b7011d0e1b,0.1487,0.1487,1,42,204,106,1,sixfive,,,,,,,,,,,,,,,,,,,,,,,,,,,,,,,,,,,,,,,,,,,,,,,,,,,,,,,,,,,,,,,,,,,,,,,,,,,,,,,,,,,,,,,,,,,,,,,,,,,,,,,,,,,,,,,,,,,,,,,,,,,,,,,,,,,,,,,,,
,,65e6f4d668bfc2134b26348e,2026-03-17_16h10.11.672,kallum_motion_pilot_GIST_update_2,2026.1.1,Win32,29.94011976,65e6f4d668bfc2134b26348e,69b95efdef24cd8a694e89ee,69b960b7b7c602b7011d0e1b,0.1491,0.1493,1,43,205,102,1,eightsix,,,,,,,,,,,,,,,,,,,,,,,,,,,,,,,,,,,,,,,,,,,,,,,,,,,,,,,,,,,,,,,,,,,,,,,,,,,,,,,,,,,,,,,,,,,,,,,,,,,,,,,,,,,,,,,,,,,,,,,,,,,,,,,,,,,,,,,,,
,,65e6f4d668bfc2134b26348e,2026-03-17_16h10.11.672,kallum_motion_pilot_GIST_update_2,2026.1.1,Win32,29.94011976,65e6f4d668bfc2134b26348e,69b95efdef24cd8a694e89ee,69b960b7b7c602b7011d0e1b,0.1498,0.1498,1,44,206,119,1,eightseven,,,,,,,,,,,,,,,,,,,,,,,,,,,,,,,,,,,,,,,,,,,,,,,,,,,,,,,,,,,,,,,,,,,,,,,,,,,,,,,,,,,,,,,,,,,,,,,,,,,,,,,,,,,,,,,,,,,,,,,,,,,,,,,,,,,,,,,,,
,,65e6f4d668bfc2134b26348e,2026-03-17_16h10.11.672,kallum_motion_pilot_GIST_update_2,2026.1.1,Win32,29.94011976,65e6f4d668bfc2134b26348e,69b95efdef24cd8a694e89ee,69b960b7b7c602b7011d0e1b,0.1503,0.1503,1,45,207,121,1,fiveseven,,,,,,,,,,,,,,,,,,,,,,,,,,,,,,,,,,,,,,,,,,,,,,,,,,,,,,,,,,,,,,,,,,,,,,,,,,,,,,,,,,,,,,,,,,,,,,,,,,,,,,,,,,,,,,,,,,,,,,,,,,,,,,,,,,,,,,,,,
,,65e6f4d668bfc2134b26348e,2026-03-17_16h10.11.672,kallum_motion_pilot_GIST_update_2,2026.1.1,Win32,29.94011976,65e6f4d668bfc2134b26348e,69b95efdef24cd8a694e89ee,69b960b7b7c602b7011d0e1b,0.1507,0.1507,1,46,208,89,1,fiveseven,,,,,,,,,,,,,,,,,,,,,,,,,,,,,,,,,,,,,,,,,,,,,,,,,,,,,,,,,,,,,,,,,,,,,,,,,,,,,,,,,,,,,,,,,,,,,,,,,,,,,,,,,,,,,,,,,,,,,,,,,,,,,,,,,,,,,,,,,
,,65e6f4d668bfc2134b26348e,2026-03-17_16h10.11.672,kallum_motion_pilot_GIST_update_2,2026.1.1,Win32,29.94011976,65e6f4d668bfc2134b26348e,69b95efdef24cd8a694e89ee,69b960b7b7c602b7011d0e1b,0.1511,0.1511,1,47,209,31,1,fourthree,,,,,,,,,,,,,,,,,,,,,,,,,,,,,,,,,,,,,,,,,,,,,,,,,,,,,,,,,,,,,,,,,,,,,,,,,,,,,,,,,,,,,,,,,,,,,,,,,,,,,,,,,,,,,,,,,,,,,,,,,,,,,,,,,,,,,,,,,
,,65e6f4d668bfc2134b26348e,2026-03-17_16h10.11.672,kallum_motion_pilot_GIST_update_2,2026.1.1,Win32,29.94011976,65e6f4d668bfc2134b26348e,69b95efdef24cd8a694e89ee,69b960b7b7c602b7011d0e1b,0.1514,0.1514,1,48,210,55,1,fourthree,,,,,,,,,,,,,,,,,,,,,,,,,,,,,,,,,,,,,,,,,,,,,,,,,,,,,,,,,,,,,,,,,,,,,,,,,,,,,,,,,,,,,,,,,,,,,,,,,,,,,,,,,,,,,,,,,,,,,,,,,,,,,,,,,,,,,,,,,
,,65e6f4d668bfc2134b26348e,2026-03-17_16h10.11.672,kallum_motion_pilot_GIST_update_2,2026.1.1,Win32,29.94011976,65e6f4d668bfc2134b26348e,69b95efdef24cd8a694e89ee,69b960b7b7c602b7011d0e1b,0.1518,0.1519,1,49,211,34,1,twoone,,,,,,,,,,,,,,,,,,,,,,,,,,,,,,,,,,,,,,,,,,,,,,,,,,,,,,,,,,,,,,,,,,,,,,,,,,,,,,,,,,,,,,,,,,,,,,,,,,,,,,,,,,,,,,,,,,,,,,,,,,,,,,,,,,,,,,,,,
,,65e6f4d668bfc2134b26348e,2026-03-17_16h10.11.672,kallum_motion_pilot_GIST_update_2,2026.1.1,Win32,29.94011976,65e6f4d668bfc2134b26348e,69b95efdef24cd8a694e89ee,69b960b7b7c602b7011d0e1b,0.1522,0.1523,1,50,212,42,1,twoone,,,,,,,,,,,,,,,,,,,,,,,,,,,,,,,,,,,,,,,,,,,,,,,,,,,,,,,,,,,,,,,,,,,,,,,,,,,,,,,,,,,,,,,,,,,,,,,,,,,,,,,,,,,,,,,,,,,,,,,,,,,,,,,,,,,,,,,,,
,,65e6f4d668bfc2134b26348e,2026-03-17_16h10.11.672,kallum_motion_pilot_GIST_update_2,2026.1.1,Win32,29.94011976,65e6f4d668bfc2134b26348e,69b95efdef24cd8a694e89ee,69b960b7b7c602b7011d0e1b,0.1527,0.1527,1,51,213,88,1,fivesix,,,,,,,,,,,,,,,,,,,,,,,,,,,,,,,,,,,,,,,,,,,,,,,,,,,,,,,,,,,,,,,,,,,,,,,,,,,,,,,,,,,,,,,,,,,,,,,,,,,,,,,,,,,,,,,,,,,,,,,,,,,,,,,,,,,,,,,,,
,,65e6f4d668bfc2134b26348e,2026-03-17_16h10.11.672,kallum_motion_pilot_GIST_update_2,2026.1.1,Win32,29.94011976,65e6f4d668bfc2134b26348e,69b95efdef24cd8a694e89ee,69b960b7b7c602b7011d0e1b,0.1531,0.1531,1,52,214,148,1,sevenfive,,,,,,,,,,,,,,,,,,,,,,,,,,,,,,,,,,,,,,,,,,,,,,,,,,,,,,,,,,,,,,,,,,,,,,,,,,,,,,,,,,,,,,,,,,,,,,,,,,,,,,,,,,,,,,,,,,,,,,,,,,,,,,,,,,,,,,,,,
,,65e6f4d668bfc2134b26348e,2026-03-17_16h10.11.672,kallum_motion_pilot_GIST_update_2,2026.1.1,Win32,29.94011976,65e6f4d668bfc2134b26348e,69b95efdef24cd8a694e89ee,69b960b7b7c602b7011d0e1b,0.1535,0.1535,1,53,215,124,1,sevenfive,,,,,,,,,,,,,,,,,,,,,,,,,,,,,,,,,,,,,,,,,,,,,,,,,,,,,,,,,,,,,,,,,,,,,,,,,,,,,,,,,,,,,,,,,,,,,,,,,,,,,,,,,,,,,,,,,,,,,,,,,,,,,,,,,,,,,,,,,
,,65e6f4d668bfc2134b26348e,2026-03-17_16h10.11.672,kallum_motion_pilot_GIST_update_2,2026.1.1,Win32,29.94011976,65e6f4d668bfc2134b26348e,69b95efdef24cd8a694e89ee,69b960b7b7c602b7011d0e1b,0.1539,0.1539,1,54,216,32,1,onetwo,,,,,,,,,,,,,,,,,,,,,,,,,,,,,,,,,,,,,,,,,,,,,,,,,,,,,,,,,,,,,,,,,,,,,,,,,,,,,,,,,,,,,,,,,,,,,,,,,,,,,,,,,,,,,,,,,,,,,,,,,,,,,,,,,,,,,,,,,
,,65e6f4d668bfc2134b26348e,2026-03-17_16h10.11.672,kallum_motion_pilot_GIST_update_2,2026.1.1,Win32,29.94011976,65e6f4d668bfc2134b26348e,69b95efdef24cd8a694e89ee,69b960b7b7c602b7011d0e1b,0.1543,0.1543,1,55,217,71,1,fourthree,,,,,,,,,,,,,,,,,,,,,,,,,,,,,,,,,,,,,,,,,,,,,,,,,,,,,,,,,,,,,,,,,,,,,,,,,,,,,,,,,,,,,,,,,,,,,,,,,,,,,,,,,,,,,,,,,,,,,,,,,,,,,,,,,,,,,,,,,
,,65e6f4d668bfc2134b26348e,2026-03-17_16h10.11.672,kallum_motion_pilot_GIST_update_2,2026.1.1,Win32,29.94011976,65e6f4d668bfc2134b26348e,69b95efdef24cd8a694e89ee,69b960b7b7c602b7011d0e1b,0.1546,0.1547,1,56,218,56,1,onetwo,,,,,,,,,,,,,,,,,,,,,,,,,,,,,,,,,,,,,,,,,,,,,,,,,,,,,,,,,,,,,,,,,,,,,,,,,,,,,,,,,,,,,,,,,,,,,,,,,,,,,,,,,,,,,,,,,,,,,,,,,,,,,,,,,,,,,,,,,
,,65e6f4d668bfc2134b26348e,2026-03-17_16h10.11.672,kallum_motion_pilot_GIST_update_2,2026.1.1,Win32,29.94011976,65e6f4d668bfc2134b26348e,69b95efdef24cd8a694e89ee,69b960b7b7c602b7011d0e1b,0.1551,0.1551,1,57,219,51,1,twofour,,,,,,,,,,,,,,,,,,,,,,,,,,,,,,,,,,,,,,,,,,,,,,,,,,,,,,,,,,,,,,,,,,,,,,,,,,,,,,,,,,,,,,,,,,,,,,,,,,,,,,,,,,,,,,,,,,,,,,,,,,,,,,,,,,,,,,,,,
,,65e6f4d668bfc2134b26348e,2026-03-17_16h10.11.672,kallum_motion_pilot_GIST_update_2,2026.1.1,Win32,29.94011976,65e6f4d668bfc2134b26348e,69b95efdef24cd8a694e89ee,69b960b7b7c602b7011d0e1b,0.1555,0.1555,1,58,220,136,1,fivesix,,,,,,,,,,,,,,,,,,,,,,,,,,,,,,,,,,,,,,,,,,,,,,,,,,,,,,,,,,,,,,,,,,,,,,,,,,,,,,,,,,,,,,,,,,,,,,,,,,,,,,,,,,,,,,,,,,,,,,,,,,,,,,,,,,,,,,,,,
,,65e6f4d668bfc2134b26348e,2026-03-17_16h10.11.672,kallum_motion_pilot_GIST_update_2,2026.1.1,Win32,29.94011976,65e6f4d668bfc2134b26348e,69b95efdef24cd8a694e89ee,69b960b7b7c602b7011d0e1b,0.1559,0.1559,1,59,221,96,1,fivesix,,,,,,,,,,,,,,,,,,,,,,,,,,,,,,,,,,,,,,,,,,,,,,,,,,,,,,,,,,,,,,,,,,,,,,,,,,,,,,,,,,,,,,,,,,,,,,,,,,,,,,,,,,,,,,,,,,,,,,,,,,,,,,,,,,,,,,,,,
,,65e6f4d668bfc2134b26348e,2026-03-17_16h10.11.672,kallum_motion_pilot_GIST_update_2,2026.1.1,Win32,29.94011976,65e6f4d668bfc2134b26348e,69b95efdef24cd8a694e89ee,69b960b7b7c602b7011d0e1b,0.1563,0.1563,1,60,222,19,1,twofour,,,,,,,,,,,,,,,,,,,,,,,,,,,,,,,,,,,,,,,,,,,,,,,,,,,,,,,,,,,,,,,,,,,,,,,,,,,,,,,,,,,,,,,,,,,,,,,,,,,,,,,,,,,,,,,,,,,,,,,,,,,,,,,,,,,,,,,,,
,,65e6f4d668bfc2134b26348e,2026-03-17_16h10.11.672,kallum_motion_pilot_GIST_update_2,2026.1.1,Win32,29.94011976,65e6f4d668bfc2134b26348e,69b95efdef24cd8a694e89ee,69b960b7b7c602b7011d0e1b,0.1567,0.1567,1,61,223,101,1,seveneight,,,,,,,,,,,,,,,,,,,,,,,,,,,,,,,,,,,,,,,,,,,,,,,,,,,,,,,,,,,,,,,,,,,,,,,,,,,,,,,,,,,,,,,,,,,,,,,,,,,,,,,,,,,,,,,,,,,,,,,,,,,,,,,,,,,,,,,,,
,,65e6f4d668bfc2134b26348e,2026-03-17_16h10.11.672,kallum_motion_pilot_GIST_update_2,2026.1.1,Win32,29.94011976,65e6f4d668bfc2134b26348e,69b95efdef24cd8a694e89ee,69b960b7b7c602b7011d0e1b,0.1576,0.1577,1,62,224,14,1,fourtwo,,,,,,,,,,,,,,,,,,,,,,,,,,,,,,,,,,,,,,,,,,,,,,,,,,,,,,,,,,,,,,,,,,,,,,,,,,,,,,,,,,,,,,,,,,,,,,,,,,,,,,,,,,,,,,,,,,,,,,,,,,,,,,,,,,,,,,,,,
,,65e6f4d668bfc2134b26348e,2026-03-17_16h10.11.672,kallum_motion_pilot_GIST_update_2,2026.1.1,Win32,29.94011976,65e6f4d668bfc2134b26348e,69b95efdef24cd8a694e89ee,69b960b7b7c602b7011d0e1b,0.1581,0.1581,1,63,225,86,1,eightsix,,,,,,,,,,,,,,,,,,,,,,,,,,,,,,,,,,,,,,,,,,,,,,,,,,,,,,,,,,,,,,,,,,,,,,,,,,,,,,,,,,,,,,,,,,,,,,,,,,,,,,,,,,,,,,,,,,,,,,,,,,,,,,,,,,,,,,,,,
,,65e6f4d668bfc2134b26348e,2026-03-17_16h10.11.672,kallum_motion_pilot_GIST_update_2,2026.1.1,Win32,29.94011976,65e6f4d668bfc2134b26348e,69b95efdef24cd8a694e89ee,69b960b7b7c602b7011d0e1b,0.1587,0.1587,1,64,226,116,1,sevenfive,,,,,,,,,,,,,,,,,,,,,,,,,,,,,,,,,,,,,,,,,,,,,,,,,,,,,,,,,,,,,,,,,,,,,,,,,,,,,,,,,,,,,,,,,,,,,,,,,,,,,,,,,,,,,,,,,,,,,,,,,,,,,,,,,,,,,,,,,
,,65e6f4d668bfc2134b26348e,2026-03-17_16h10.11.672,kallum_motion_pilot_GIST_update_2,2026.1.1,Win32,29.94011976,65e6f4d668bfc2134b26348e,69b95efdef24cd8a694e89ee,69b960b7b7c602b7011d0e1b,0.159,0.1591,1,65,227,66,1,twoone,,,,,,,,,,,,,,,,,,,,,,,,,,,,,,,,,,,,,,,,,,,,,,,,,,,,,,,,,,,,,,,,,,,,,,,,,,,,,,,,,,,,,,,,,,,,,,,,,,,,,,,,,,,,,,,,,,,,,,,,,,,,,,,,,,,,,,,,,
,,65e6f4d668bfc2134b26348e,2026-03-17_16h10.11.672,kallum_motion_pilot_GIST_update_2,2026.1.1,Win32,29.94011976,65e6f4d668bfc2134b26348e,69b95efdef24cd8a694e89ee,69b960b7b7c602b7011d0e1b,0.1596,0.1597,1,66,228,77,1,threefour,,,,,,,,,,,,,,,,,,,,,,,,,,,,,,,,,,,,,,,,,,,,,,,,,,,,,,,,,,,,,,,,,,,,,,,,,,,,,,,,,,,,,,,,,,,,,,,,,,,,,,,,,,,,,,,,,,,,,,,,,,,,,,,,,,,,,,,,,
,,65e6f4d668bfc2134b26348e,2026-03-17_16h10.11.672,kallum_motion_pilot_GIST_update_2,2026.1.1,Win32,29.94011976,65e6f4d668bfc2134b26348e,69b95efdef24cd8a694e89ee,69b960b7b7c602b7011d0e1b,0.1601,0.1602,1,67,229,1,1,onethree,,,,,,,,,,,,,,,,,,,,,,,,,,,,,,,,,,,,,,,,,,,,,,,,,,,,,,,,,,,,,,,,,,,,,,,,,,,,,,,,,,,,,,,,,,,,,,,,,,,,,,,,,,,,,,,,,,,,,,,,,,,,,,,,,,,,,,,,,
,,65e6f4d668bfc2134b26348e,2026-03-17_16h10.11.672,kallum_motion_pilot_GIST_update_2,2026.1.1,Win32,29.94011976,65e6f4d668bfc2134b26348e,69b95efdef24cd8a694e89ee,69b960b7b7c602b7011d0e1b,0.1605,0.1605,1,68,230,154,1,sixfive,,,,,,,,,,,,,,,,,,,,,,,,,,,,,,,,,,,,,,,,,,,,,,,,,,,,,,,,,,,,,,,,,,,,,,,,,,,,,,,,,,,,,,,,,,,,,,,,,,,,,,,,,,,,,,,,,,,,,,,,,,,,,,,,,,,,,,,,,
,,65e6f4d668bfc2134b26348e,2026-03-17_16h10.11.672,kallum_motion_pilot_GIST_update_2,2026.1.1,Win32,29.94011976,65e6f4d668bfc2134b26348e,69b95efdef24cd8a694e89ee,69b960b7b7c602b7011d0e1b,0.1609,0.1609,1,69,231,41,1,onethree,,,,,,,,,,,,,,,,,,,,,,,,,,,,,,,,,,,,,,,,,,,,,,,,,,,,,,,,,,,,,,,,,,,,,,,,,,,,,,,,,,,,,,,,,,,,,,,,,,,,,,,,,,,,,,,,,,,,,,,,,,,,,,,,,,,,,,,,,
,,65e6f4d668bfc2134b26348e,2026-03-17_16h10.11.672,kallum_motion_pilot_GIST_update_2,2026.1.1,Win32,29.94011976,65e6f4d668bfc2134b26348e,69b95efdef24cd8a694e89ee,69b960b7b7c602b7011d0e1b,0.1614,0.1614,1,70,232,82,1,sixfive,,,,,,,,,,,,,,,,,,,,,,,,,,,,,,,,,,,,,,,,,,,,,,,,,,,,,,,,,,,,,,,,,,,,,,,,,,,,,,,,,,,,,,,,,,,,,,,,,,,,,,,,,,,,,,,,,,,,,,,,,,,,,,,,,,,,,,,,,
,,65e6f4d668bfc2134b26348e,2026-03-17_16h10.11.672,kallum_motion_pilot_GIST_update_2,2026.1.1,Win32,29.94011976,65e6f4d668bfc2134b26348e,69b95efdef24cd8a694e89ee,69b960b7b7c602b7011d0e1b,0.1618,0.1618,1,71,233,98,1,sixfive,,,,,,,,,,,,,,,,,,,,,,,,,,,,,,,,,,,,,,,,,,,,,,,,,,,,,,,,,,,,,,,,,,,,,,,,,,,,,,,,,,,,,,,,,,,,,,,,,,,,,,,,,,,,,,,,,,,,,,,,,,,,,,,,,,,,,,,,,
,,65e6f4d668bfc2134b26348e,2026-03-17_16h10.11.672,kallum_motion_pilot_GIST_update_2,2026.1.1,Win32,29.94011976,65e6f4d668bfc2134b26348e,69b95efdef24cd8a694e89ee,69b960b7b7c602b7011d0e1b,0.1622,0.1622,1,72,234,105,1,fiveseven,,,,,,,,,,,,,,,,,,,,,,,,,,,,,,,,,,,,,,,,,,,,,,,,,,,,,,,,,,,,,,,,,,,,,,,,,,,,,,,,,,,,,,,,,,,,,,,,,,,,,,,,,,,,,,,,,,,,,,,,,,,,,,,,,,,,,,,,,
,,65e6f4d668bfc2134b26348e,2026-03-17_16h10.11.672,kallum_motion_pilot_GIST_update_2,2026.1.1,Win32,29.94011976,65e6f4d668bfc2134b26348e,69b95efdef24cd8a694e89ee,69b960b7b7c602b7011d0e1b,0.1627,0.1627,1,73,235,107,1,sixeight,,,,,,,,,,,,,,,,,,,,,,,,,,,,,,,,,,,,,,,,,,,,,,,,,,,,,,,,,,,,,,,,,,,,,,,,,,,,,,,,,,,,,,,,,,,,,,,,,,,,,,,,,,,,,,,,,,,,,,,,,,,,,,,,,,,,,,,,,
,,65e6f4d668bfc2134b26348e,2026-03-17_16h10.11.672,kallum_motion_pilot_GIST_update_2,2026.1.1,Win32,29.94011976,65e6f4d668bfc2134b26348e,69b95efdef24cd8a694e89ee,69b960b7b7c602b7011d0e1b,0.163,0.163,1,74,236,7,1,fourthree,,,,,,,,,,,,,,,,,,,,,,,,,,,,,,,,,,,,,,,,,,,,,,,,,,,,,,,,,,,,,,,,,,,,,,,,,,,,,,,,,,,,,,,,,,,,,,,,,,,,,,,,,,,,,,,,,,,,,,,,,,,,,,,,,,,,,,,,,
,,65e6f4d668bfc2134b26348e,2026-03-17_16h10.11.672,kallum_motion_pilot_GIST_update_2,2026.1.1,Win32,29.94011976,65e6f4d668bfc2134b26348e,69b95efdef24cd8a694e89ee,69b960b7b7c602b7011d0e1b,0.1634,0.1634,1,75,237,160,1,fivesix,,,,,,,,,,,,,,,,,,,,,,,,,,,,,,,,,,,,,,,,,,,,,,,,,,,,,,,,,,,,,,,,,,,,,,,,,,,,,,,,,,,,,,,,,,,,,,,,,,,,,,,,,,,,,,,,,,,,,,,,,,,,,,,,,,,,,,,,,
,,65e6f4d668bfc2134b26348e,2026-03-17_16h10.11.672,kallum_motion_pilot_GIST_update_2,2026.1.1,Win32,29.94011976,65e6f4d668bfc2134b26348e,69b95efdef24cd8a694e89ee,69b960b7b7c602b7011d0e1b,0.1638,0.1638,1,76,238,12,1,threeone,,,,,,,,,,,,,,,,,,,,,,,,,,,,,,,,,,,,,,,,,,,,,,,,,,,,,,,,,,,,,,,,,,,,,,,,,,,,,,,,,,,,,,,,,,,,,,,,,,,,,,,,,,,,,,,,,,,,,,,,,,,,,,,,,,,,,,,,,
,,65e6f4d668bfc2134b26348e,2026-03-17_16h10.11.672,kallum_motion_pilot_GIST_update_2,2026.1.1,Win32,29.94011976,65e6f4d668bfc2134b26348e,69b95efdef24cd8a694e89ee,69b960b7b7c602b7011d0e1b,0.1643,0.1643,1,77,239,145,1,fiveseven,,,,,,,,,,,,,,,,,,,,,,,,,,,,,,,,,,,,,,,,,,,,,,,,,,,,,,,,,,,,,,,,,,,,,,,,,,,,,,,,,,,,,,,,,,,,,,,,,,,,,,,,,,,,,,,,,,,,,,,,,,,,,,,,,,,,,,,,,
,,65e6f4d668bfc2134b26348e,2026-03-17_16h10.11.672,kallum_motion_pilot_GIST_update_2,2026.1.1,Win32,29.94011976,65e6f4d668bfc2134b26348e,69b95efdef24cd8a694e89ee,69b960b7b7c602b7011d0e1b,0.1648,0.1648,1,78,240,46,1,fourtwo,,,,,,,,,,,,,,,,,,,,,,,,,,,,,,,,,,,,,,,,,,,,,,,,,,,,,,,,,,,,,,,,,,,,,,,,,,,,,,,,,,,,,,,,,,,,,,,,,,,,,,,,,,,,,,,,,,,,,,,,,,,,,,,,,,,,,,,,,
,,65e6f4d668bfc2134b26348e,2026-03-17_16h10.11.672,kallum_motion_pilot_GIST_update_2,2026.1.1,Win32,29.94011976,65e6f4d668bfc2134b26348e,69b95efdef24cd8a694e89ee,69b960b7b7c602b7011d0e1b,0.1652,0.1652,1,79,241,43,1,twofour,,,,,,,,,,,,,,,,,,,,,,,,,,,,,,,,,,,,,,,,,,,,,,,,,,,,,,,,,,,,,,,,,,,,,,,,,,,,,,,,,,,,,,,,,,,,,,,,,,,,,,,,,,,,,,,,,,,,,,,,,,,,,,,,,,,,,,,,,
,,65e6f4d668bfc2134b26348e,2026-03-17_16h10.11.672,kallum_motion_pilot_GIST_update_2,2026.1.1,Win32,29.94011976,65e6f4d668bfc2134b26348e,69b95efdef24cd8a694e89ee,69b960b7b7c602b7011d0e1b,0.1656,0.1657,1,80,242,30,1,fourtwo,,,,,,,,,,,,,,,,,,,,,,,,,,,,,,,,,,,,,,,,,,,,,,,,,,,,,,,,,,,,,,,,,,,,,,,,,,,,,,,,,,,,,,,,,,,,,,,,,,,,,,,,,,,,,,,,,,,,,,,,,,,,,,,,,,,,,,,,,
,,65e6f4d668bfc2134b26348e,2026-03-17_16h10.11.672,kallum_motion_pilot_GIST_update_2,2026.1.1,Win32,29.94011976,65e6f4d668bfc2134b26348e,69b95efdef24cd8a694e89ee,69b960b7b7c602b7011d0e1b,0.166,0.166,1,81,243,39,1,fourthree,,,,,,,,,,,,,,,,,,,,,,,,,,,,,,,,,,,,,,,,,,,,,,,,,,,,,,,,,,,,,,,,,,,,,,,,,,,,,,,,,,,,,,,,,,,,,,,,,,,,,,,,,,,,,,,,,,,,,,,,,,,,,,,,,,,,,,,,,
,,65e6f4d668bfc2134b26348e,2026-03-17_16h10.11.672,kallum_motion_pilot_GIST_update_2,2026.1.1,Win32,29.94011976,65e6f4d668bfc2134b26348e,69b95efdef24cd8a694e89ee,69b960b7b7c602b7011d0e1b,0.1664,0.1664,1,82,244,53,1,threefour,,,,,,,,,,,,,,,,,,,,,,,,,,,,,,,,,,,,,,,,,,,,,,,,,,,,,,,,,,,,,,,,,,,,,,,,,,,,,,,,,,,,,,,,,,,,,,,,,,,,,,,,,,,,,,,,,,,,,,,,,,,,,,,,,,,,,,,,,
,,65e6f4d668bfc2134b26348e,2026-03-17_16h10.11.672,kallum_motion_pilot_GIST_update_2,2026.1.1,Win32,29.94011976,65e6f4d668bfc2134b26348e,69b95efdef24cd8a694e89ee,69b960b7b7c602b7011d0e1b,0.1669,0.1669,1,83,245,50,1,twoone,,,,,,,,,,,,,,,,,,,,,,,,,,,,,,,,,,,,,,,,,,,,,,,,,,,,,,,,,,,,,,,,,,,,,,,,,,,,,,,,,,,,,,,,,,,,,,,,,,,,,,,,,,,,,,,,,,,,,,,,,,,,,,,,,,,,,,,,,
,,65e6f4d668bfc2134b26348e,2026-03-17_16h10.11.672,kallum_motion_pilot_GIST_update_2,2026.1.1,Win32,29.94011976,65e6f4d668bfc2134b26348e,69b95efdef24cd8a694e89ee,69b960b7b7c602b7011d0e1b,0.1672,0.1673,1,84,246,5,1,threefour,,,,,,,,,,,,,,,,,,,,,,,,,,,,,,,,,,,,,,,,,,,,,,,,,,,,,,,,,,,,,,,,,,,,,,,,,,,,,,,,,,,,,,,,,,,,,,,,,,,,,,,,,,,,,,,,,,,,,,,,,,,,,,,,,,,,,,,,,
,,65e6f4d668bfc2134b26348e,2026-03-17_16h10.11.672,kallum_motion_pilot_GIST_update_2,2026.1.1,Win32,29.94011976,65e6f4d668bfc2134b26348e,69b95efdef24cd8a694e89ee,69b960b7b7c602b7011d0e1b,0.1677,0.1677,1,85,247,152,1,fivesix,,,,,,,,,,,,,,,,,,,,,,,,,,,,,,,,,,,,,,,,,,,,,,,,,,,,,,,,,,,,,,,,,,,,,,,,,,,,,,,,,,,,,,,,,,,,,,,,,,,,,,,,,,,,,,,,,,,,,,,,,,,,,,,,,,,,,,,,,
,,65e6f4d668bfc2134b26348e,2026-03-17_16h10.11.672,kallum_motion_pilot_GIST_update_2,2026.1.1,Win32,29.94011976,65e6f4d668bfc2134b26348e,69b95efdef24cd8a694e89ee,69b960b7b7c602b7011d0e1b,0.168,0.168,1,86,248,67,1,twofour,,,,,,,,,,,,,,,,,,,,,,,,,,,,,,,,,,,,,,,,,,,,,,,,,,,,,,,,,,,,,,,,,,,,,,,,,,,,,,,,,,,,,,,,,,,,,,,,,,,,,,,,,,,,,,,,,,,,,,,,,,,,,,,,,,,,,,,,,
,,65e6f4d668bfc2134b26348e,2026-03-17_16h10.11.672,kallum_motion_pilot_GIST_update_2,2026.1.1,Win32,29.94011976,65e6f4d668bfc2134b26348e,69b95efdef24cd8a694e89ee,69b960b7b7c602b7011d0e1b,0.1685,0.1685,1,87,249,151,1,eightseven,,,,,,,,,,,,,,,,,,,,,,,,,,,,,,,,,,,,,,,,,,,,,,,,,,,,,,,,,,,,,,,,,,,,,,,,,,,,,,,,,,,,,,,,,,,,,,,,,,,,,,,,,,,,,,,,,,,,,,,,,,,,,,,,,,,,,,,,,
,,65e6f4d668bfc2134b26348e,2026-03-17_16h10.11.672,kallum_motion_pilot_GIST_update_2,2026.1.1,Win32,29.94011976,65e6f4d668bfc2134b26348e,69b95efdef24cd8a694e89ee,69b960b7b7c602b7011d0e1b,0.1693,0.1695,1,88,250,157,1,seveneight,,,,,,,,,,,,,,,,,,,,,,,,,,,,,,,,,,,,,,,,,,,,,,,,,,,,,,,,,,,,,,,,,,,,,,,,,,,,,,,,,,,,,,,,,,,,,,,,,,,,,,,,,,,,,,,,,,,,,,,,,,,,,,,,,,,,,,,,,
,,65e6f4d668bfc2134b26348e,2026-03-17_16h10.11.672,kallum_motion_pilot_GIST_update_2,2026.1.1,Win32,29.94011976,65e6f4d668bfc2134b26348e,69b95efdef24cd8a694e89ee,69b960b7b7c602b7011d0e1b,0.1699,0.1699,1,89,251,142,1,eightsix,,,,,,,,,,,,,,,,,,,,,,,,,,,,,,,,,,,,,,,,,,,,,,,,,,,,,,,,,,,,,,,,,,,,,,,,,,,,,,,,,,,,,,,,,,,,,,,,,,,,,,,,,,,,,,,,,,,,,,,,,,,,,,,,,,,,,,,,,
,,65e6f4d668bfc2134b26348e,2026-03-17_16h10.11.672,kallum_motion_pilot_GIST_update_2,2026.1.1,Win32,29.94011976,65e6f4d668bfc2134b26348e,69b95efdef24cd8a694e89ee,69b960b7b7c602b7011d0e1b,0.1704,0.1704,1,90,252,94,1,eightsix,,,,,,,,,,,,,,,,,,,,,,,,,,,,,,,,,,,,,,,,,,,,,,,,,,,,,,,,,,,,,,,,,,,,,,,,,,,,,,,,,,,,,,,,,,,,,,,,,,,,,,,,,,,,,,,,,,,,,,,,,,,,,,,,,,,,,,,,,
,,65e6f4d668bfc2134b26348e,2026-03-17_16h10.11.672,kallum_motion_pilot_GIST_update_2,2026.1.1,Win32,29.94011976,65e6f4d668bfc2134b26348e,69b95efdef24cd8a694e89ee,69b960b7b7c602b7011d0e1b,0.1708,0.1708,1,91,253,76,1,threeone,,,,,,,,,,,,,,,,,,,,,,,,,,,,,,,,,,,,,,,,,,,,,,,,,,,,,,,,,,,,,,,,,,,,,,,,,,,,,,,,,,,,,,,,,,,,,,,,,,,,,,,,,,,,,,,,,,,,,,,,,,,,,,,,,,,,,,,,,
,,65e6f4d668bfc2134b26348e,2026-03-17_16h10.11.672,kallum_motion_pilot_GIST_update_2,2026.1.1,Win32,29.94011976,65e6f4d668bfc2134b26348e,69b95efdef24cd8a694e89ee,69b960b7b7c602b7011d0e1b,0.1714,0.1714,1,92,254,83,1,sixeight,,,,,,,,,,,,,,,,,,,,,,,,,,,,,,,,,,,,,,,,,,,,,,,,,,,,,,,,,,,,,,,,,,,,,,,,,,,,,,,,,,,,,,,,,,,,,,,,,,,,,,,,,,,,,,,,,,,,,,,,,,,,,,,,,,,,,,,,,
,,65e6f4d668bfc2134b26348e,2026-03-17_16h10.11.672,kallum_motion_pilot_GIST_update_2,2026.1.1,Win32,29.94011976,65e6f4d668bfc2134b26348e,69b95efdef24cd8a694e89ee,69b960b7b7c602b7011d0e1b,0.1719,0.1719,1,93,255,110,1,eightsix,,,,,,,,,,,,,,,,,,,,,,,,,,,,,,,,,,,,,,,,,,,,,,,,,,,,,,,,,,,,,,,,,,,,,,,,,,,,,,,,,,,,,,,,,,,,,,,,,,,,,,,,,,,,,,,,,,,,,,,,,,,,,,,,,,,,,,,,,
,,65e6f4d668bfc2134b26348e,2026-03-17_16h10.11.672,kallum_motion_pilot_GIST_update_2,2026.1.1,Win32,29.94011976,65e6f4d668bfc2134b26348e,69b95efdef24cd8a694e89ee,69b960b7b7c602b7011d0e1b,0.1724,0.1725,1,94,256,134,1,eightsix,,,,,,,,,,,,,,,,,,,,,,,,,,,,,,,,,,,,,,,,,,,,,,,,,,,,,,,,,,,,,,,,,,,,,,,,,,,,,,,,,,,,,,,,,,,,,,,,,,,,,,,,,,,,,,,,,,,,,,,,,,,,,,,,,,,,,,,,,
,,65e6f4d668bfc2134b26348e,2026-03-17_16h10.11.672,kallum_motion_pilot_GIST_update_2,2026.1.1,Win32,29.94011976,65e6f4d668bfc2134b26348e,69b95efdef24cd8a694e89ee,69b960b7b7c602b7011d0e1b,0.1729,0.1729,1,95,257,26,1,twoone,,,,,,,,,,,,,,,,,,,,,,,,,,,,,,,,,,,,,,,,,,,,,,,,,,,,,,,,,,,,,,,,,,,,,,,,,,,,,,,,,,,,,,,,,,,,,,,,,,,,,,,,,,,,,,,,,,,,,,,,,,,,,,,,,,,,,,,,,
,,65e6f4d668bfc2134b26348e,2026-03-17_16h10.11.672,kallum_motion_pilot_GIST_update_2,2026.1.1,Win32,29.94011976,65e6f4d668bfc2134b26348e,69b95efdef24cd8a694e89ee,69b960b7b7c602b7011d0e1b,0.1733,0.1734,1,96,258,144,1,fivesix,,,,,,,,,,,,,,,,,,,,,,,,,,,,,,,,,,,,,,,,,,,,,,,,,,,,,,,,,,,,,,,,,,,,,,,,,,,,,,,,,,,,,,,,,,,,,,,,,,,,,,,,,,,,,,,,,,,,,,,,,,,,,,,,,,,,,,,,,
,,65e6f4d668bfc2134b26348e,2026-03-17_16h10.11.672,kallum_motion_pilot_GIST_update_2,2026.1.1,Win32,29.94011976,65e6f4d668bfc2134b26348e,69b95efdef24cd8a694e89ee,69b960b7b7c602b7011d0e1b,0.1737,0.1738,1,97,259,4,1,threeone,,,,,,,,,,,,,,,,,,,,,,,,,,,,,,,,,,,,,,,,,,,,,,,,,,,,,,,,,,,,,,,,,,,,,,,,,,,,,,,,,,,,,,,,,,,,,,,,,,,,,,,,,,,,,,,,,,,,,,,,,,,,,,,,,,,,,,,,,
,,65e6f4d668bfc2134b26348e,2026-03-17_16h10.11.672,kallum_motion_pilot_GIST_update_2,2026.1.1,Win32,29.94011976,65e6f4d668bfc2134b26348e,69b95efdef24cd8a694e89ee,69b960b7b7c602b7011d0e1b,0.1745,0.1746,1,98,260,9,1,onethree,,,,,,,,,,,,,,,,,,,,,,,,,,,,,,,,,,,,,,,,,,,,,,,,,,,,,,,,,,,,,,,,,,,,,,,,,,,,,,,,,,,,,,,,,,,,,,,,,,,,,,,,,,,,,,,,,,,,,,,,,,,,,,,,,,,,,,,,,
,,65e6f4d668bfc2134b26348e,2026-03-17_16h10.11.672,kallum_motion_pilot_GIST_update_2,2026.1.1,Win32,29.94011976,65e6f4d668bfc2134b26348e,69b95efdef24cd8a694e89ee,69b960b7b7c602b7011d0e1b,0.175,0.175,1,99,261,47,1,fourthree,,,,,,,,,,,,,,,,,,,,,,,,,,,,,,,,,,,,,,,,,,,,,,,,,,,,,,,,,,,,,,,,,,,,,,,,,,,,,,,,,,,,,,,,,,,,,,,,,,,,,,,,,,,,,,,,,,,,,,,,,,,,,,,,,,,,,,,,,
,,65e6f4d668bfc2134b26348e,2026-03-17_16h10.11.672,kallum_motion_pilot_GIST_update_2,2026.1.1,Win32,29.94011976,65e6f4d668bfc2134b26348e,69b95efdef24cd8a694e89ee,69b960b7b7c602b7011d0e1b,0.1753,0.1754,1,100,262,64,1,onetwo,,,,,,,,,,,,,,,,,,,,,,,,,,,,,,,,,,,,,,,,,,,,,,,,,,,,,,,,,,,,,,,,,,,,,,,,,,,,,,,,,,,,,,,,,,,,,,,,,,,,,,,,,,,,,,,,,,,,,,,,,,,,,,,,,,,,,,,,,
,,65e6f4d668bfc2134b26348e,2026-03-17_16h10.11.672,kallum_motion_pilot_GIST_update_2,2026.1.1,Win32,29.94011976,65e6f4d668bfc2134b26348e,69b95efdef24cd8a694e89ee,69b960b7b7c602b7011d0e1b,0.1757,0.1758,1,101,263,147,1,sixeight,,,,,,,,,,,,,,,,,,,,,,,,,,,,,,,,,,,,,,,,,,,,,,,,,,,,,,,,,,,,,,,,,,,,,,,,,,,,,,,,,,,,,,,,,,,,,,,,,,,,,,,,,,,,,,,,,,,,,,,,,,,,,,,,,,,,,,,,,
,,65e6f4d668bfc2134b26348e,2026-03-17_16h10.11.672,kallum_motion_pilot_GIST_update_2,2026.1.1,Win32,29.94011976,65e6f4d668bfc2134b26348e,69b95efdef24cd8a694e89ee,69b960b7b7c602b7011d0e1b,0.1762,0.1763,1,102,264,149,1,seveneight,,,,,,,,,,,,,,,,,,,,,,,,,,,,,,,,,,,,,,,,,,,,,,,,,,,,,,,,,,,,,,,,,,,,,,,,,,,,,,,,,,,,,,,,,,,,,,,,,,,,,,,,,,,,,,,,,,,,,,,,,,,,,,,,,,,,,,,,,
,,65e6f4d668bfc2134b26348e,2026-03-17_16h10.11.672,kallum_motion_pilot_GIST_update_2,2026.1.1,Win32,29.94011976,65e6f4d668bfc2134b26348e,69b95efdef24cd8a694e89ee,69b960b7b7c602b7011d0e1b,0.1766,0.1767,1,103,265,10,1,twoone,,,,,,,,,,,,,,,,,,,,,,,,,,,,,,,,,,,,,,,,,,,,,,,,,,,,,,,,,,,,,,,,,,,,,,,,,,,,,,,,,,,,,,,,,,,,,,,,,,,,,,,,,,,,,,,,,,,,,,,,,,,,,,,,,,,,,,,,,
,,65e6f4d668bfc2134b26348e,2026-03-17_16h10.11.672,kallum_motion_pilot_GIST_update_2,2026.1.1,Win32,29.94011976,65e6f4d668bfc2134b26348e,69b95efdef24cd8a694e89ee,69b960b7b7c602b7011d0e1b,0.1771,0.1771,1,104,266,79,1,eightseven,,,,,,,,,,,,,,,,,,,,,,,,,,,,,,,,,,,,,,,,,,,,,,,,,,,,,,,,,,,,,,,,,,,,,,,,,,,,,,,,,,,,,,,,,,,,,,,,,,,,,,,,,,,,,,,,,,,,,,,,,,,,,,,,,,,,,,,,,
