startup.started,startup.stopped,Prolific ID*,date,expName,psychopyVersion,OS,frameRate,participant,study_id,session,stimpositions.started,stimpositions.stopped,hardcoded_stimulus_positions.thisRepN,hardcoded_stimulus_positions.thisTrialN,hardcoded_stimulus_positions.thisN,hardcoded_stimulus_positions.thisIndex,hardcoded_stimulus_positions.ran,StimulusPos,stimorientation.started,stimorientation.stopped,prac_stimorientation_import_loop.thisRepN,prac_stimorientation_import_loop.thisTrialN,prac_stimorientation_import_loop.thisN,prac_stimorientation_import_loop.thisIndex,prac_stimorientation_import_loop.ran,Stimorientation,welcome_instr.started,welcome_instr.stopped,key_resp.keys,key_resp.rt,key_resp.duration,response_steppedout_1.started,response_steppedout_1.stopped,key_resp_20.keys,key_resp_20.rt,key_resp_20.duration,response_steppedout_2.started,response_steppedout_2.stopped,key_resp_19.keys,key_resp_19.rt,key_resp_19.duration,stim_response_instr.started,stim_response_instr.stopped,key_resp_15.keys,key_resp_15.rt,key_resp_15.duration,direction_instr_2.started,direction_instr_2.stopped,key_resp_9.keys,key_resp_9.rt,key_resp_9.duration,instr_prac.started,instr_prac.stopped,key_resp_10.keys,key_resp_10.rt,key_resp_10.duration,Stim1_display_prac.started,Stim1_display_prac.stopped,Ecc,Circle1_ori,Circle2_ori,response_prac.started,similarity,response_time,response_prac.stopped,mouse_5.x,mouse_5.y,mouse_5.leftButton,mouse_5.midButton,mouse_5.rightButton,mouse_5.clicked_name,responseprac_feedback.started,responseprac_feedback.stopped,summary2_prac.started,summary2_prac.stopped,mouse_6.x,mouse_6.y,mouse_6.leftButton,mouse_6.midButton,mouse_6.rightButton,mouse_6.clicked_name,duringprac.thisRepN,duringprac.thisTrialN,duringprac.thisN,duringprac.thisIndex,duringprac.ran,begin.started,begin.stopped,key_resp_22.keys,key_resp_22.rt,key_resp_22.duration,Stim1_display.started,Stim1_display.stopped,circle1_ori,circle2_ori,circle1_SF,circle2_SF,response.started,response.stopped,mouse.x,mouse.y,mouse.leftButton,mouse.midButton,mouse.rightButton,mouse.clicked_name,trialnumber,double_pass.thisRepN,double_pass.thisTrialN,double_pass.thisN,double_pass.thisIndex,double_pass.ran,double_pass.order,main_trial.thisRepN,main_trial.thisTrialN,main_trial.thisN,main_trial.thisIndex,main_trial.ran,main_trial.order,Trial_Counter,Catch,Frequencies,response_2.started,response_2.stopped,mouse_2.x,mouse_2.y,mouse_2.leftButton,mouse_2.midButton,mouse_2.rightButton,mouse_2.clicked_name,special_trial.started,special_trial.stopped,catch_1.started,catch_1.stopped,mouse_3.x,mouse_3.y,mouse_3.leftButton,mouse_3.midButton,mouse_3.rightButton,catchresponse,catchnumber,response_time_catch,response_sum.started,response_sum.stopped,mouse_11.x,mouse_11.y,mouse_11.leftButton,mouse_11.midButton,mouse_11.rightButton,flip_presentation_sequence_for_double_pass.started,flip_presentation_sequence_for_double_pass.stopped,goodbye.started,goodbye.stopped,key_resp_3.keys,key_resp_3.rt,key_resp_3.duration
0.0012,0.0013,65fadd16dd68b34863129702,2026-03-17_17h08.44.826,kallum_motion_pilot_GIST_update_2,2026.1.1,Win32,60.24096386,65fadd16dd68b34863129702,69b95efdef24cd8a694e89ee,69b960141fa5510b539f03b4,,,,,,,,,,,,,,,,,,,,,,,,,,,,,,,,,,,,,,,,,,,,,,,,,,,,,,,,,,,,,,,,,,,,,,,,,,,,,,,,,,,,,,,,,,,,,,,,,,,,,,,,,,,,,,,,,,,,,,,,,,,,,,,,,,,,,,,,,,,,,,,,,
,,65fadd16dd68b34863129702,2026-03-17_17h08.44.826,kallum_motion_pilot_GIST_update_2,2026.1.1,Win32,60.24096386,65fadd16dd68b34863129702,69b95efdef24cd8a694e89ee,69b960141fa5510b539f03b4,0.0285,0.0285,0,0,0,37,1,threefour,,,,,,,,,,,,,,,,,,,,,,,,,,,,,,,,,,,,,,,,,,,,,,,,,,,,,,,,,,,,,,,,,,,,,,,,,,,,,,,,,,,,,,,,,,,,,,,,,,,,,,,,,,,,,,,,,,,,,,,,,,,,,,,,,,,,,,,,,
,,65fadd16dd68b34863129702,2026-03-17_17h08.44.826,kallum_motion_pilot_GIST_update_2,2026.1.1,Win32,60.24096386,65fadd16dd68b34863129702,69b95efdef24cd8a694e89ee,69b960141fa5510b539f03b4,0.0288,0.0288,0,1,1,76,1,threeone,,,,,,,,,,,,,,,,,,,,,,,,,,,,,,,,,,,,,,,,,,,,,,,,,,,,,,,,,,,,,,,,,,,,,,,,,,,,,,,,,,,,,,,,,,,,,,,,,,,,,,,,,,,,,,,,,,,,,,,,,,,,,,,,,,,,,,,,,
,,65fadd16dd68b34863129702,2026-03-17_17h08.44.826,kallum_motion_pilot_GIST_update_2,2026.1.1,Win32,60.24096386,65fadd16dd68b34863129702,69b95efdef24cd8a694e89ee,69b960141fa5510b539f03b4,0.029,0.0291,0,2,2,22,1,fourtwo,,,,,,,,,,,,,,,,,,,,,,,,,,,,,,,,,,,,,,,,,,,,,,,,,,,,,,,,,,,,,,,,,,,,,,,,,,,,,,,,,,,,,,,,,,,,,,,,,,,,,,,,,,,,,,,,,,,,,,,,,,,,,,,,,,,,,,,,,
,,65fadd16dd68b34863129702,2026-03-17_17h08.44.826,kallum_motion_pilot_GIST_update_2,2026.1.1,Win32,60.24096386,65fadd16dd68b34863129702,69b95efdef24cd8a694e89ee,69b960141fa5510b539f03b4,0.0292,0.0292,0,3,3,55,1,fourthree,,,,,,,,,,,,,,,,,,,,,,,,,,,,,,,,,,,,,,,,,,,,,,,,,,,,,,,,,,,,,,,,,,,,,,,,,,,,,,,,,,,,,,,,,,,,,,,,,,,,,,,,,,,,,,,,,,,,,,,,,,,,,,,,,,,,,,,,,
,,65fadd16dd68b34863129702,2026-03-17_17h08.44.826,kallum_motion_pilot_GIST_update_2,2026.1.1,Win32,60.24096386,65fadd16dd68b34863129702,69b95efdef24cd8a694e89ee,69b960141fa5510b539f03b4,0.0293,0.0294,0,4,4,112,1,fivesix,,,,,,,,,,,,,,,,,,,,,,,,,,,,,,,,,,,,,,,,,,,,,,,,,,,,,,,,,,,,,,,,,,,,,,,,,,,,,,,,,,,,,,,,,,,,,,,,,,,,,,,,,,,,,,,,,,,,,,,,,,,,,,,,,,,,,,,,,
,,65fadd16dd68b34863129702,2026-03-17_17h08.44.826,kallum_motion_pilot_GIST_update_2,2026.1.1,Win32,60.24096386,65fadd16dd68b34863129702,69b95efdef24cd8a694e89ee,69b960141fa5510b539f03b4,0.0296,0.0296,0,5,5,111,1,eightseven,,,,,,,,,,,,,,,,,,,,,,,,,,,,,,,,,,,,,,,,,,,,,,,,,,,,,,,,,,,,,,,,,,,,,,,,,,,,,,,,,,,,,,,,,,,,,,,,,,,,,,,,,,,,,,,,,,,,,,,,,,,,,,,,,,,,,,,,,
,,65fadd16dd68b34863129702,2026-03-17_17h08.44.826,kallum_motion_pilot_GIST_update_2,2026.1.1,Win32,60.24096386,65fadd16dd68b34863129702,69b95efdef24cd8a694e89ee,69b960141fa5510b539f03b4,0.0297,0.0297,0,6,6,34,1,twoone,,,,,,,,,,,,,,,,,,,,,,,,,,,,,,,,,,,,,,,,,,,,,,,,,,,,,,,,,,,,,,,,,,,,,,,,,,,,,,,,,,,,,,,,,,,,,,,,,,,,,,,,,,,,,,,,,,,,,,,,,,,,,,,,,,,,,,,,,
,,65fadd16dd68b34863129702,2026-03-17_17h08.44.826,kallum_motion_pilot_GIST_update_2,2026.1.1,Win32,60.24096386,65fadd16dd68b34863129702,69b95efdef24cd8a694e89ee,69b960141fa5510b539f03b4,0.0298,0.0298,0,7,7,25,1,onethree,,,,,,,,,,,,,,,,,,,,,,,,,,,,,,,,,,,,,,,,,,,,,,,,,,,,,,,,,,,,,,,,,,,,,,,,,,,,,,,,,,,,,,,,,,,,,,,,,,,,,,,,,,,,,,,,,,,,,,,,,,,,,,,,,,,,,,,,,
,,65fadd16dd68b34863129702,2026-03-17_17h08.44.826,kallum_motion_pilot_GIST_update_2,2026.1.1,Win32,60.24096386,65fadd16dd68b34863129702,69b95efdef24cd8a694e89ee,69b960141fa5510b539f03b4,0.03,0.0301,0,8,8,135,1,eightseven,,,,,,,,,,,,,,,,,,,,,,,,,,,,,,,,,,,,,,,,,,,,,,,,,,,,,,,,,,,,,,,,,,,,,,,,,,,,,,,,,,,,,,,,,,,,,,,,,,,,,,,,,,,,,,,,,,,,,,,,,,,,,,,,,,,,,,,,,
,,65fadd16dd68b34863129702,2026-03-17_17h08.44.826,kallum_motion_pilot_GIST_update_2,2026.1.1,Win32,60.24096386,65fadd16dd68b34863129702,69b95efdef24cd8a694e89ee,69b960141fa5510b539f03b4,0.0303,0.0303,0,9,9,31,1,fourthree,,,,,,,,,,,,,,,,,,,,,,,,,,,,,,,,,,,,,,,,,,,,,,,,,,,,,,,,,,,,,,,,,,,,,,,,,,,,,,,,,,,,,,,,,,,,,,,,,,,,,,,,,,,,,,,,,,,,,,,,,,,,,,,,,,,,,,,,,
,,65fadd16dd68b34863129702,2026-03-17_17h08.44.826,kallum_motion_pilot_GIST_update_2,2026.1.1,Win32,60.24096386,65fadd16dd68b34863129702,69b95efdef24cd8a694e89ee,69b960141fa5510b539f03b4,0.0305,0.0305,0,10,10,118,1,eightsix,,,,,,,,,,,,,,,,,,,,,,,,,,,,,,,,,,,,,,,,,,,,,,,,,,,,,,,,,,,,,,,,,,,,,,,,,,,,,,,,,,,,,,,,,,,,,,,,,,,,,,,,,,,,,,,,,,,,,,,,,,,,,,,,,,,,,,,,,
,,65fadd16dd68b34863129702,2026-03-17_17h08.44.826,kallum_motion_pilot_GIST_update_2,2026.1.1,Win32,60.24096386,65fadd16dd68b34863129702,69b95efdef24cd8a694e89ee,69b960141fa5510b539f03b4,0.0306,0.0306,0,11,11,128,1,fivesix,,,,,,,,,,,,,,,,,,,,,,,,,,,,,,,,,,,,,,,,,,,,,,,,,,,,,,,,,,,,,,,,,,,,,,,,,,,,,,,,,,,,,,,,,,,,,,,,,,,,,,,,,,,,,,,,,,,,,,,,,,,,,,,,,,,,,,,,,
,,65fadd16dd68b34863129702,2026-03-17_17h08.44.826,kallum_motion_pilot_GIST_update_2,2026.1.1,Win32,60.24096386,65fadd16dd68b34863129702,69b95efdef24cd8a694e89ee,69b960141fa5510b539f03b4,0.0307,0.0307,0,12,12,57,1,onethree,,,,,,,,,,,,,,,,,,,,,,,,,,,,,,,,,,,,,,,,,,,,,,,,,,,,,,,,,,,,,,,,,,,,,,,,,,,,,,,,,,,,,,,,,,,,,,,,,,,,,,,,,,,,,,,,,,,,,,,,,,,,,,,,,,,,,,,,,
,,65fadd16dd68b34863129702,2026-03-17_17h08.44.826,kallum_motion_pilot_GIST_update_2,2026.1.1,Win32,60.24096386,65fadd16dd68b34863129702,69b95efdef24cd8a694e89ee,69b960141fa5510b539f03b4,0.0309,0.0309,0,13,13,48,1,onetwo,,,,,,,,,,,,,,,,,,,,,,,,,,,,,,,,,,,,,,,,,,,,,,,,,,,,,,,,,,,,,,,,,,,,,,,,,,,,,,,,,,,,,,,,,,,,,,,,,,,,,,,,,,,,,,,,,,,,,,,,,,,,,,,,,,,,,,,,,
,,65fadd16dd68b34863129702,2026-03-17_17h08.44.826,kallum_motion_pilot_GIST_update_2,2026.1.1,Win32,60.24096386,65fadd16dd68b34863129702,69b95efdef24cd8a694e89ee,69b960141fa5510b539f03b4,0.031,0.0311,0,14,14,77,1,threefour,,,,,,,,,,,,,,,,,,,,,,,,,,,,,,,,,,,,,,,,,,,,,,,,,,,,,,,,,,,,,,,,,,,,,,,,,,,,,,,,,,,,,,,,,,,,,,,,,,,,,,,,,,,,,,,,,,,,,,,,,,,,,,,,,,,,,,,,,
,,65fadd16dd68b34863129702,2026-03-17_17h08.44.826,kallum_motion_pilot_GIST_update_2,2026.1.1,Win32,60.24096386,65fadd16dd68b34863129702,69b95efdef24cd8a694e89ee,69b960141fa5510b539f03b4,0.0311,0.0312,0,15,15,61,1,threefour,,,,,,,,,,,,,,,,,,,,,,,,,,,,,,,,,,,,,,,,,,,,,,,,,,,,,,,,,,,,,,,,,,,,,,,,,,,,,,,,,,,,,,,,,,,,,,,,,,,,,,,,,,,,,,,,,,,,,,,,,,,,,,,,,,,,,,,,,
,,65fadd16dd68b34863129702,2026-03-17_17h08.44.826,kallum_motion_pilot_GIST_update_2,2026.1.1,Win32,60.24096386,65fadd16dd68b34863129702,69b95efdef24cd8a694e89ee,69b960141fa5510b539f03b4,0.0313,0.0313,0,16,16,122,1,sixfive,,,,,,,,,,,,,,,,,,,,,,,,,,,,,,,,,,,,,,,,,,,,,,,,,,,,,,,,,,,,,,,,,,,,,,,,,,,,,,,,,,,,,,,,,,,,,,,,,,,,,,,,,,,,,,,,,,,,,,,,,,,,,,,,,,,,,,,,,
,,65fadd16dd68b34863129702,2026-03-17_17h08.44.826,kallum_motion_pilot_GIST_update_2,2026.1.1,Win32,60.24096386,65fadd16dd68b34863129702,69b95efdef24cd8a694e89ee,69b960141fa5510b539f03b4,0.0314,0.0314,0,17,17,6,1,fourtwo,,,,,,,,,,,,,,,,,,,,,,,,,,,,,,,,,,,,,,,,,,,,,,,,,,,,,,,,,,,,,,,,,,,,,,,,,,,,,,,,,,,,,,,,,,,,,,,,,,,,,,,,,,,,,,,,,,,,,,,,,,,,,,,,,,,,,,,,,
,,65fadd16dd68b34863129702,2026-03-17_17h08.44.826,kallum_motion_pilot_GIST_update_2,2026.1.1,Win32,60.24096386,65fadd16dd68b34863129702,69b95efdef24cd8a694e89ee,69b960141fa5510b539f03b4,0.0316,0.0316,0,18,18,145,1,fiveseven,,,,,,,,,,,,,,,,,,,,,,,,,,,,,,,,,,,,,,,,,,,,,,,,,,,,,,,,,,,,,,,,,,,,,,,,,,,,,,,,,,,,,,,,,,,,,,,,,,,,,,,,,,,,,,,,,,,,,,,,,,,,,,,,,,,,,,,,,
,,65fadd16dd68b34863129702,2026-03-17_17h08.44.826,kallum_motion_pilot_GIST_update_2,2026.1.1,Win32,60.24096386,65fadd16dd68b34863129702,69b95efdef24cd8a694e89ee,69b960141fa5510b539f03b4,0.0317,0.0317,0,19,19,98,1,sixfive,,,,,,,,,,,,,,,,,,,,,,,,,,,,,,,,,,,,,,,,,,,,,,,,,,,,,,,,,,,,,,,,,,,,,,,,,,,,,,,,,,,,,,,,,,,,,,,,,,,,,,,,,,,,,,,,,,,,,,,,,,,,,,,,,,,,,,,,,
,,65fadd16dd68b34863129702,2026-03-17_17h08.44.826,kallum_motion_pilot_GIST_update_2,2026.1.1,Win32,60.24096386,65fadd16dd68b34863129702,69b95efdef24cd8a694e89ee,69b960141fa5510b539f03b4,0.032,0.032,0,20,20,110,1,eightsix,,,,,,,,,,,,,,,,,,,,,,,,,,,,,,,,,,,,,,,,,,,,,,,,,,,,,,,,,,,,,,,,,,,,,,,,,,,,,,,,,,,,,,,,,,,,,,,,,,,,,,,,,,,,,,,,,,,,,,,,,,,,,,,,,,,,,,,,,
,,65fadd16dd68b34863129702,2026-03-17_17h08.44.826,kallum_motion_pilot_GIST_update_2,2026.1.1,Win32,60.24096386,65fadd16dd68b34863129702,69b95efdef24cd8a694e89ee,69b960141fa5510b539f03b4,0.0322,0.0322,0,21,21,28,1,threeone,,,,,,,,,,,,,,,,,,,,,,,,,,,,,,,,,,,,,,,,,,,,,,,,,,,,,,,,,,,,,,,,,,,,,,,,,,,,,,,,,,,,,,,,,,,,,,,,,,,,,,,,,,,,,,,,,,,,,,,,,,,,,,,,,,,,,,,,,
,,65fadd16dd68b34863129702,2026-03-17_17h08.44.826,kallum_motion_pilot_GIST_update_2,2026.1.1,Win32,60.24096386,65fadd16dd68b34863129702,69b95efdef24cd8a694e89ee,69b960141fa5510b539f03b4,0.0323,0.0323,0,22,22,4,1,threeone,,,,,,,,,,,,,,,,,,,,,,,,,,,,,,,,,,,,,,,,,,,,,,,,,,,,,,,,,,,,,,,,,,,,,,,,,,,,,,,,,,,,,,,,,,,,,,,,,,,,,,,,,,,,,,,,,,,,,,,,,,,,,,,,,,,,,,,,,
,,65fadd16dd68b34863129702,2026-03-17_17h08.44.826,kallum_motion_pilot_GIST_update_2,2026.1.1,Win32,60.24096386,65fadd16dd68b34863129702,69b95efdef24cd8a694e89ee,69b960141fa5510b539f03b4,0.0324,0.0324,0,23,23,89,1,fiveseven,,,,,,,,,,,,,,,,,,,,,,,,,,,,,,,,,,,,,,,,,,,,,,,,,,,,,,,,,,,,,,,,,,,,,,,,,,,,,,,,,,,,,,,,,,,,,,,,,,,,,,,,,,,,,,,,,,,,,,,,,,,,,,,,,,,,,,,,,
,,65fadd16dd68b34863129702,2026-03-17_17h08.44.826,kallum_motion_pilot_GIST_update_2,2026.1.1,Win32,60.24096386,65fadd16dd68b34863129702,69b95efdef24cd8a694e89ee,69b960141fa5510b539f03b4,0.0326,0.0326,0,24,24,94,1,eightsix,,,,,,,,,,,,,,,,,,,,,,,,,,,,,,,,,,,,,,,,,,,,,,,,,,,,,,,,,,,,,,,,,,,,,,,,,,,,,,,,,,,,,,,,,,,,,,,,,,,,,,,,,,,,,,,,,,,,,,,,,,,,,,,,,,,,,,,,,
,,65fadd16dd68b34863129702,2026-03-17_17h08.44.826,kallum_motion_pilot_GIST_update_2,2026.1.1,Win32,60.24096386,65fadd16dd68b34863129702,69b95efdef24cd8a694e89ee,69b960141fa5510b539f03b4,0.0328,0.0328,0,25,25,137,1,fiveseven,,,,,,,,,,,,,,,,,,,,,,,,,,,,,,,,,,,,,,,,,,,,,,,,,,,,,,,,,,,,,,,,,,,,,,,,,,,,,,,,,,,,,,,,,,,,,,,,,,,,,,,,,,,,,,,,,,,,,,,,,,,,,,,,,,,,,,,,,
,,65fadd16dd68b34863129702,2026-03-17_17h08.44.826,kallum_motion_pilot_GIST_update_2,2026.1.1,Win32,60.24096386,65fadd16dd68b34863129702,69b95efdef24cd8a694e89ee,69b960141fa5510b539f03b4,0.033,0.033,0,26,26,132,1,sevenfive,,,,,,,,,,,,,,,,,,,,,,,,,,,,,,,,,,,,,,,,,,,,,,,,,,,,,,,,,,,,,,,,,,,,,,,,,,,,,,,,,,,,,,,,,,,,,,,,,,,,,,,,,,,,,,,,,,,,,,,,,,,,,,,,,,,,,,,,,
,,65fadd16dd68b34863129702,2026-03-17_17h08.44.826,kallum_motion_pilot_GIST_update_2,2026.1.1,Win32,60.24096386,65fadd16dd68b34863129702,69b95efdef24cd8a694e89ee,69b960141fa5510b539f03b4,0.0331,0.0331,0,27,27,88,1,fivesix,,,,,,,,,,,,,,,,,,,,,,,,,,,,,,,,,,,,,,,,,,,,,,,,,,,,,,,,,,,,,,,,,,,,,,,,,,,,,,,,,,,,,,,,,,,,,,,,,,,,,,,,,,,,,,,,,,,,,,,,,,,,,,,,,,,,,,,,,
,,65fadd16dd68b34863129702,2026-03-17_17h08.44.826,kallum_motion_pilot_GIST_update_2,2026.1.1,Win32,60.24096386,65fadd16dd68b34863129702,69b95efdef24cd8a694e89ee,69b960141fa5510b539f03b4,0.0333,0.0334,0,28,28,85,1,seveneight,,,,,,,,,,,,,,,,,,,,,,,,,,,,,,,,,,,,,,,,,,,,,,,,,,,,,,,,,,,,,,,,,,,,,,,,,,,,,,,,,,,,,,,,,,,,,,,,,,,,,,,,,,,,,,,,,,,,,,,,,,,,,,,,,,,,,,,,,
,,65fadd16dd68b34863129702,2026-03-17_17h08.44.826,kallum_motion_pilot_GIST_update_2,2026.1.1,Win32,60.24096386,65fadd16dd68b34863129702,69b95efdef24cd8a694e89ee,69b960141fa5510b539f03b4,0.0335,0.0335,0,29,29,96,1,fivesix,,,,,,,,,,,,,,,,,,,,,,,,,,,,,,,,,,,,,,,,,,,,,,,,,,,,,,,,,,,,,,,,,,,,,,,,,,,,,,,,,,,,,,,,,,,,,,,,,,,,,,,,,,,,,,,,,,,,,,,,,,,,,,,,,,,,,,,,,
,,65fadd16dd68b34863129702,2026-03-17_17h08.44.826,kallum_motion_pilot_GIST_update_2,2026.1.1,Win32,60.24096386,65fadd16dd68b34863129702,69b95efdef24cd8a694e89ee,69b960141fa5510b539f03b4,0.0336,0.0337,0,30,30,51,1,twofour,,,,,,,,,,,,,,,,,,,,,,,,,,,,,,,,,,,,,,,,,,,,,,,,,,,,,,,,,,,,,,,,,,,,,,,,,,,,,,,,,,,,,,,,,,,,,,,,,,,,,,,,,,,,,,,,,,,,,,,,,,,,,,,,,,,,,,,,,
,,65fadd16dd68b34863129702,2026-03-17_17h08.44.826,kallum_motion_pilot_GIST_update_2,2026.1.1,Win32,60.24096386,65fadd16dd68b34863129702,69b95efdef24cd8a694e89ee,69b960141fa5510b539f03b4,0.0338,0.0338,0,31,31,65,1,onethree,,,,,,,,,,,,,,,,,,,,,,,,,,,,,,,,,,,,,,,,,,,,,,,,,,,,,,,,,,,,,,,,,,,,,,,,,,,,,,,,,,,,,,,,,,,,,,,,,,,,,,,,,,,,,,,,,,,,,,,,,,,,,,,,,,,,,,,,,
,,65fadd16dd68b34863129702,2026-03-17_17h08.44.826,kallum_motion_pilot_GIST_update_2,2026.1.1,Win32,60.24096386,65fadd16dd68b34863129702,69b95efdef24cd8a694e89ee,69b960141fa5510b539f03b4,0.0339,0.034,0,32,32,147,1,sixeight,,,,,,,,,,,,,,,,,,,,,,,,,,,,,,,,,,,,,,,,,,,,,,,,,,,,,,,,,,,,,,,,,,,,,,,,,,,,,,,,,,,,,,,,,,,,,,,,,,,,,,,,,,,,,,,,,,,,,,,,,,,,,,,,,,,,,,,,,
,,65fadd16dd68b34863129702,2026-03-17_17h08.44.826,kallum_motion_pilot_GIST_update_2,2026.1.1,Win32,60.24096386,65fadd16dd68b34863129702,69b95efdef24cd8a694e89ee,69b960141fa5510b539f03b4,0.034,0.034,0,33,33,50,1,twoone,,,,,,,,,,,,,,,,,,,,,,,,,,,,,,,,,,,,,,,,,,,,,,,,,,,,,,,,,,,,,,,,,,,,,,,,,,,,,,,,,,,,,,,,,,,,,,,,,,,,,,,,,,,,,,,,,,,,,,,,,,,,,,,,,,,,,,,,,
,,65fadd16dd68b34863129702,2026-03-17_17h08.44.826,kallum_motion_pilot_GIST_update_2,2026.1.1,Win32,60.24096386,65fadd16dd68b34863129702,69b95efdef24cd8a694e89ee,69b960141fa5510b539f03b4,0.0343,0.0343,0,34,34,47,1,fourthree,,,,,,,,,,,,,,,,,,,,,,,,,,,,,,,,,,,,,,,,,,,,,,,,,,,,,,,,,,,,,,,,,,,,,,,,,,,,,,,,,,,,,,,,,,,,,,,,,,,,,,,,,,,,,,,,,,,,,,,,,,,,,,,,,,,,,,,,,
,,65fadd16dd68b34863129702,2026-03-17_17h08.44.826,kallum_motion_pilot_GIST_update_2,2026.1.1,Win32,60.24096386,65fadd16dd68b34863129702,69b95efdef24cd8a694e89ee,69b960141fa5510b539f03b4,0.0343,0.0344,0,35,35,17,1,onethree,,,,,,,,,,,,,,,,,,,,,,,,,,,,,,,,,,,,,,,,,,,,,,,,,,,,,,,,,,,,,,,,,,,,,,,,,,,,,,,,,,,,,,,,,,,,,,,,,,,,,,,,,,,,,,,,,,,,,,,,,,,,,,,,,,,,,,,,,
,,65fadd16dd68b34863129702,2026-03-17_17h08.44.826,kallum_motion_pilot_GIST_update_2,2026.1.1,Win32,60.24096386,65fadd16dd68b34863129702,69b95efdef24cd8a694e89ee,69b960141fa5510b539f03b4,0.0345,0.0346,0,36,36,36,1,threeone,,,,,,,,,,,,,,,,,,,,,,,,,,,,,,,,,,,,,,,,,,,,,,,,,,,,,,,,,,,,,,,,,,,,,,,,,,,,,,,,,,,,,,,,,,,,,,,,,,,,,,,,,,,,,,,,,,,,,,,,,,,,,,,,,,,,,,,,,
,,65fadd16dd68b34863129702,2026-03-17_17h08.44.826,kallum_motion_pilot_GIST_update_2,2026.1.1,Win32,60.24096386,65fadd16dd68b34863129702,69b95efdef24cd8a694e89ee,69b960141fa5510b539f03b4,0.0347,0.0347,0,37,37,105,1,fiveseven,,,,,,,,,,,,,,,,,,,,,,,,,,,,,,,,,,,,,,,,,,,,,,,,,,,,,,,,,,,,,,,,,,,,,,,,,,,,,,,,,,,,,,,,,,,,,,,,,,,,,,,,,,,,,,,,,,,,,,,,,,,,,,,,,,,,,,,,,
,,65fadd16dd68b34863129702,2026-03-17_17h08.44.826,kallum_motion_pilot_GIST_update_2,2026.1.1,Win32,60.24096386,65fadd16dd68b34863129702,69b95efdef24cd8a694e89ee,69b960141fa5510b539f03b4,0.0348,0.0348,0,38,38,103,1,eightseven,,,,,,,,,,,,,,,,,,,,,,,,,,,,,,,,,,,,,,,,,,,,,,,,,,,,,,,,,,,,,,,,,,,,,,,,,,,,,,,,,,,,,,,,,,,,,,,,,,,,,,,,,,,,,,,,,,,,,,,,,,,,,,,,,,,,,,,,,
,,65fadd16dd68b34863129702,2026-03-17_17h08.44.826,kallum_motion_pilot_GIST_update_2,2026.1.1,Win32,60.24096386,65fadd16dd68b34863129702,69b95efdef24cd8a694e89ee,69b960141fa5510b539f03b4,0.035,0.035,0,39,39,59,1,twofour,,,,,,,,,,,,,,,,,,,,,,,,,,,,,,,,,,,,,,,,,,,,,,,,,,,,,,,,,,,,,,,,,,,,,,,,,,,,,,,,,,,,,,,,,,,,,,,,,,,,,,,,,,,,,,,,,,,,,,,,,,,,,,,,,,,,,,,,,
,,65fadd16dd68b34863129702,2026-03-17_17h08.44.826,kallum_motion_pilot_GIST_update_2,2026.1.1,Win32,60.24096386,65fadd16dd68b34863129702,69b95efdef24cd8a694e89ee,69b960141fa5510b539f03b4,0.0352,0.0352,0,40,40,68,1,threeone,,,,,,,,,,,,,,,,,,,,,,,,,,,,,,,,,,,,,,,,,,,,,,,,,,,,,,,,,,,,,,,,,,,,,,,,,,,,,,,,,,,,,,,,,,,,,,,,,,,,,,,,,,,,,,,,,,,,,,,,,,,,,,,,,,,,,,,,,
,,65fadd16dd68b34863129702,2026-03-17_17h08.44.826,kallum_motion_pilot_GIST_update_2,2026.1.1,Win32,60.24096386,65fadd16dd68b34863129702,69b95efdef24cd8a694e89ee,69b960141fa5510b539f03b4,0.0353,0.0353,0,41,41,120,1,fivesix,,,,,,,,,,,,,,,,,,,,,,,,,,,,,,,,,,,,,,,,,,,,,,,,,,,,,,,,,,,,,,,,,,,,,,,,,,,,,,,,,,,,,,,,,,,,,,,,,,,,,,,,,,,,,,,,,,,,,,,,,,,,,,,,,,,,,,,,,
,,65fadd16dd68b34863129702,2026-03-17_17h08.44.826,kallum_motion_pilot_GIST_update_2,2026.1.1,Win32,60.24096386,65fadd16dd68b34863129702,69b95efdef24cd8a694e89ee,69b960141fa5510b539f03b4,0.0355,0.0355,0,42,42,15,1,fourthree,,,,,,,,,,,,,,,,,,,,,,,,,,,,,,,,,,,,,,,,,,,,,,,,,,,,,,,,,,,,,,,,,,,,,,,,,,,,,,,,,,,,,,,,,,,,,,,,,,,,,,,,,,,,,,,,,,,,,,,,,,,,,,,,,,,,,,,,,
,,65fadd16dd68b34863129702,2026-03-17_17h08.44.826,kallum_motion_pilot_GIST_update_2,2026.1.1,Win32,60.24096386,65fadd16dd68b34863129702,69b95efdef24cd8a694e89ee,69b960141fa5510b539f03b4,0.0356,0.0357,0,43,43,107,1,sixeight,,,,,,,,,,,,,,,,,,,,,,,,,,,,,,,,,,,,,,,,,,,,,,,,,,,,,,,,,,,,,,,,,,,,,,,,,,,,,,,,,,,,,,,,,,,,,,,,,,,,,,,,,,,,,,,,,,,,,,,,,,,,,,,,,,,,,,,,,
,,65fadd16dd68b34863129702,2026-03-17_17h08.44.826,kallum_motion_pilot_GIST_update_2,2026.1.1,Win32,60.24096386,65fadd16dd68b34863129702,69b95efdef24cd8a694e89ee,69b960141fa5510b539f03b4,0.0358,0.0358,0,44,44,114,1,sixfive,,,,,,,,,,,,,,,,,,,,,,,,,,,,,,,,,,,,,,,,,,,,,,,,,,,,,,,,,,,,,,,,,,,,,,,,,,,,,,,,,,,,,,,,,,,,,,,,,,,,,,,,,,,,,,,,,,,,,,,,,,,,,,,,,,,,,,,,,
,,65fadd16dd68b34863129702,2026-03-17_17h08.44.826,kallum_motion_pilot_GIST_update_2,2026.1.1,Win32,60.24096386,65fadd16dd68b34863129702,69b95efdef24cd8a694e89ee,69b960141fa5510b539f03b4,0.0359,0.0359,0,45,45,142,1,eightsix,,,,,,,,,,,,,,,,,,,,,,,,,,,,,,,,,,,,,,,,,,,,,,,,,,,,,,,,,,,,,,,,,,,,,,,,,,,,,,,,,,,,,,,,,,,,,,,,,,,,,,,,,,,,,,,,,,,,,,,,,,,,,,,,,,,,,,,,,
,,65fadd16dd68b34863129702,2026-03-17_17h08.44.826,kallum_motion_pilot_GIST_update_2,2026.1.1,Win32,60.24096386,65fadd16dd68b34863129702,69b95efdef24cd8a694e89ee,69b960141fa5510b539f03b4,0.0361,0.0361,0,46,46,101,1,seveneight,,,,,,,,,,,,,,,,,,,,,,,,,,,,,,,,,,,,,,,,,,,,,,,,,,,,,,,,,,,,,,,,,,,,,,,,,,,,,,,,,,,,,,,,,,,,,,,,,,,,,,,,,,,,,,,,,,,,,,,,,,,,,,,,,,,,,,,,,
,,65fadd16dd68b34863129702,2026-03-17_17h08.44.826,kallum_motion_pilot_GIST_update_2,2026.1.1,Win32,60.24096386,65fadd16dd68b34863129702,69b95efdef24cd8a694e89ee,69b960141fa5510b539f03b4,0.0363,0.0363,0,47,47,80,1,fivesix,,,,,,,,,,,,,,,,,,,,,,,,,,,,,,,,,,,,,,,,,,,,,,,,,,,,,,,,,,,,,,,,,,,,,,,,,,,,,,,,,,,,,,,,,,,,,,,,,,,,,,,,,,,,,,,,,,,,,,,,,,,,,,,,,,,,,,,,,
,,65fadd16dd68b34863129702,2026-03-17_17h08.44.826,kallum_motion_pilot_GIST_update_2,2026.1.1,Win32,60.24096386,65fadd16dd68b34863129702,69b95efdef24cd8a694e89ee,69b960141fa5510b539f03b4,0.0364,0.0365,0,48,48,11,1,twofour,,,,,,,,,,,,,,,,,,,,,,,,,,,,,,,,,,,,,,,,,,,,,,,,,,,,,,,,,,,,,,,,,,,,,,,,,,,,,,,,,,,,,,,,,,,,,,,,,,,,,,,,,,,,,,,,,,,,,,,,,,,,,,,,,,,,,,,,,
,,65fadd16dd68b34863129702,2026-03-17_17h08.44.826,kallum_motion_pilot_GIST_update_2,2026.1.1,Win32,60.24096386,65fadd16dd68b34863129702,69b95efdef24cd8a694e89ee,69b960141fa5510b539f03b4,0.0366,0.0366,0,49,49,161,1,fiveseven,,,,,,,,,,,,,,,,,,,,,,,,,,,,,,,,,,,,,,,,,,,,,,,,,,,,,,,,,,,,,,,,,,,,,,,,,,,,,,,,,,,,,,,,,,,,,,,,,,,,,,,,,,,,,,,,,,,,,,,,,,,,,,,,,,,,,,,,,
,,65fadd16dd68b34863129702,2026-03-17_17h08.44.826,kallum_motion_pilot_GIST_update_2,2026.1.1,Win32,60.24096386,65fadd16dd68b34863129702,69b95efdef24cd8a694e89ee,69b960141fa5510b539f03b4,0.0369,0.0369,0,50,50,64,1,onetwo,,,,,,,,,,,,,,,,,,,,,,,,,,,,,,,,,,,,,,,,,,,,,,,,,,,,,,,,,,,,,,,,,,,,,,,,,,,,,,,,,,,,,,,,,,,,,,,,,,,,,,,,,,,,,,,,,,,,,,,,,,,,,,,,,,,,,,,,,
,,65fadd16dd68b34863129702,2026-03-17_17h08.44.826,kallum_motion_pilot_GIST_update_2,2026.1.1,Win32,60.24096386,65fadd16dd68b34863129702,69b95efdef24cd8a694e89ee,69b960141fa5510b539f03b4,0.0372,0.0373,0,51,51,62,1,fourtwo,,,,,,,,,,,,,,,,,,,,,,,,,,,,,,,,,,,,,,,,,,,,,,,,,,,,,,,,,,,,,,,,,,,,,,,,,,,,,,,,,,,,,,,,,,,,,,,,,,,,,,,,,,,,,,,,,,,,,,,,,,,,,,,,,,,,,,,,,
,,65fadd16dd68b34863129702,2026-03-17_17h08.44.826,kallum_motion_pilot_GIST_update_2,2026.1.1,Win32,60.24096386,65fadd16dd68b34863129702,69b95efdef24cd8a694e89ee,69b960141fa5510b539f03b4,0.0376,0.0376,0,52,52,133,1,seveneight,,,,,,,,,,,,,,,,,,,,,,,,,,,,,,,,,,,,,,,,,,,,,,,,,,,,,,,,,,,,,,,,,,,,,,,,,,,,,,,,,,,,,,,,,,,,,,,,,,,,,,,,,,,,,,,,,,,,,,,,,,,,,,,,,,,,,,,,,
,,65fadd16dd68b34863129702,2026-03-17_17h08.44.826,kallum_motion_pilot_GIST_update_2,2026.1.1,Win32,60.24096386,65fadd16dd68b34863129702,69b95efdef24cd8a694e89ee,69b960141fa5510b539f03b4,0.0377,0.0378,0,53,53,158,1,eightsix,,,,,,,,,,,,,,,,,,,,,,,,,,,,,,,,,,,,,,,,,,,,,,,,,,,,,,,,,,,,,,,,,,,,,,,,,,,,,,,,,,,,,,,,,,,,,,,,,,,,,,,,,,,,,,,,,,,,,,,,,,,,,,,,,,,,,,,,,
,,65fadd16dd68b34863129702,2026-03-17_17h08.44.826,kallum_motion_pilot_GIST_update_2,2026.1.1,Win32,60.24096386,65fadd16dd68b34863129702,69b95efdef24cd8a694e89ee,69b960141fa5510b539f03b4,0.0378,0.0378,0,54,54,12,1,threeone,,,,,,,,,,,,,,,,,,,,,,,,,,,,,,,,,,,,,,,,,,,,,,,,,,,,,,,,,,,,,,,,,,,,,,,,,,,,,,,,,,,,,,,,,,,,,,,,,,,,,,,,,,,,,,,,,,,,,,,,,,,,,,,,,,,,,,,,,
,,65fadd16dd68b34863129702,2026-03-17_17h08.44.826,kallum_motion_pilot_GIST_update_2,2026.1.1,Win32,60.24096386,65fadd16dd68b34863129702,69b95efdef24cd8a694e89ee,69b960141fa5510b539f03b4,0.0379,0.0379,0,55,55,134,1,eightsix,,,,,,,,,,,,,,,,,,,,,,,,,,,,,,,,,,,,,,,,,,,,,,,,,,,,,,,,,,,,,,,,,,,,,,,,,,,,,,,,,,,,,,,,,,,,,,,,,,,,,,,,,,,,,,,,,,,,,,,,,,,,,,,,,,,,,,,,,
,,65fadd16dd68b34863129702,2026-03-17_17h08.44.826,kallum_motion_pilot_GIST_update_2,2026.1.1,Win32,60.24096386,65fadd16dd68b34863129702,69b95efdef24cd8a694e89ee,69b960141fa5510b539f03b4,0.0381,0.0381,0,56,56,86,1,eightsix,,,,,,,,,,,,,,,,,,,,,,,,,,,,,,,,,,,,,,,,,,,,,,,,,,,,,,,,,,,,,,,,,,,,,,,,,,,,,,,,,,,,,,,,,,,,,,,,,,,,,,,,,,,,,,,,,,,,,,,,,,,,,,,,,,,,,,,,,
,,65fadd16dd68b34863129702,2026-03-17_17h08.44.826,kallum_motion_pilot_GIST_update_2,2026.1.1,Win32,60.24096386,65fadd16dd68b34863129702,69b95efdef24cd8a694e89ee,69b960141fa5510b539f03b4,0.0383,0.0383,0,57,57,84,1,sevenfive,,,,,,,,,,,,,,,,,,,,,,,,,,,,,,,,,,,,,,,,,,,,,,,,,,,,,,,,,,,,,,,,,,,,,,,,,,,,,,,,,,,,,,,,,,,,,,,,,,,,,,,,,,,,,,,,,,,,,,,,,,,,,,,,,,,,,,,,,
,,65fadd16dd68b34863129702,2026-03-17_17h08.44.826,kallum_motion_pilot_GIST_update_2,2026.1.1,Win32,60.24096386,65fadd16dd68b34863129702,69b95efdef24cd8a694e89ee,69b960141fa5510b539f03b4,0.0384,0.0384,0,58,58,21,1,threefour,,,,,,,,,,,,,,,,,,,,,,,,,,,,,,,,,,,,,,,,,,,,,,,,,,,,,,,,,,,,,,,,,,,,,,,,,,,,,,,,,,,,,,,,,,,,,,,,,,,,,,,,,,,,,,,,,,,,,,,,,,,,,,,,,,,,,,,,,
,,65fadd16dd68b34863129702,2026-03-17_17h08.44.826,kallum_motion_pilot_GIST_update_2,2026.1.1,Win32,60.24096386,65fadd16dd68b34863129702,69b95efdef24cd8a694e89ee,69b960141fa5510b539f03b4,0.0386,0.0386,0,59,59,115,1,sixeight,,,,,,,,,,,,,,,,,,,,,,,,,,,,,,,,,,,,,,,,,,,,,,,,,,,,,,,,,,,,,,,,,,,,,,,,,,,,,,,,,,,,,,,,,,,,,,,,,,,,,,,,,,,,,,,,,,,,,,,,,,,,,,,,,,,,,,,,,
,,65fadd16dd68b34863129702,2026-03-17_17h08.44.826,kallum_motion_pilot_GIST_update_2,2026.1.1,Win32,60.24096386,65fadd16dd68b34863129702,69b95efdef24cd8a694e89ee,69b960141fa5510b539f03b4,0.0387,0.0387,0,60,60,78,1,fourtwo,,,,,,,,,,,,,,,,,,,,,,,,,,,,,,,,,,,,,,,,,,,,,,,,,,,,,,,,,,,,,,,,,,,,,,,,,,,,,,,,,,,,,,,,,,,,,,,,,,,,,,,,,,,,,,,,,,,,,,,,,,,,,,,,,,,,,,,,,
,,65fadd16dd68b34863129702,2026-03-17_17h08.44.826,kallum_motion_pilot_GIST_update_2,2026.1.1,Win32,60.24096386,65fadd16dd68b34863129702,69b95efdef24cd8a694e89ee,69b960141fa5510b539f03b4,0.0389,0.0389,0,61,61,123,1,sixeight,,,,,,,,,,,,,,,,,,,,,,,,,,,,,,,,,,,,,,,,,,,,,,,,,,,,,,,,,,,,,,,,,,,,,,,,,,,,,,,,,,,,,,,,,,,,,,,,,,,,,,,,,,,,,,,,,,,,,,,,,,,,,,,,,,,,,,,,,
,,65fadd16dd68b34863129702,2026-03-17_17h08.44.826,kallum_motion_pilot_GIST_update_2,2026.1.1,Win32,60.24096386,65fadd16dd68b34863129702,69b95efdef24cd8a694e89ee,69b960141fa5510b539f03b4,0.0391,0.0391,0,62,62,83,1,sixeight,,,,,,,,,,,,,,,,,,,,,,,,,,,,,,,,,,,,,,,,,,,,,,,,,,,,,,,,,,,,,,,,,,,,,,,,,,,,,,,,,,,,,,,,,,,,,,,,,,,,,,,,,,,,,,,,,,,,,,,,,,,,,,,,,,,,,,,,,
,,65fadd16dd68b34863129702,2026-03-17_17h08.44.826,kallum_motion_pilot_GIST_update_2,2026.1.1,Win32,60.24096386,65fadd16dd68b34863129702,69b95efdef24cd8a694e89ee,69b960141fa5510b539f03b4,0.0392,0.0392,0,63,63,127,1,eightseven,,,,,,,,,,,,,,,,,,,,,,,,,,,,,,,,,,,,,,,,,,,,,,,,,,,,,,,,,,,,,,,,,,,,,,,,,,,,,,,,,,,,,,,,,,,,,,,,,,,,,,,,,,,,,,,,,,,,,,,,,,,,,,,,,,,,,,,,,
,,65fadd16dd68b34863129702,2026-03-17_17h08.44.826,kallum_motion_pilot_GIST_update_2,2026.1.1,Win32,60.24096386,65fadd16dd68b34863129702,69b95efdef24cd8a694e89ee,69b960141fa5510b539f03b4,0.0396,0.0396,0,64,64,58,1,twoone,,,,,,,,,,,,,,,,,,,,,,,,,,,,,,,,,,,,,,,,,,,,,,,,,,,,,,,,,,,,,,,,,,,,,,,,,,,,,,,,,,,,,,,,,,,,,,,,,,,,,,,,,,,,,,,,,,,,,,,,,,,,,,,,,,,,,,,,,
,,65fadd16dd68b34863129702,2026-03-17_17h08.44.826,kallum_motion_pilot_GIST_update_2,2026.1.1,Win32,60.24096386,65fadd16dd68b34863129702,69b95efdef24cd8a694e89ee,69b960141fa5510b539f03b4,0.0398,0.0398,0,65,65,140,1,sevenfive,,,,,,,,,,,,,,,,,,,,,,,,,,,,,,,,,,,,,,,,,,,,,,,,,,,,,,,,,,,,,,,,,,,,,,,,,,,,,,,,,,,,,,,,,,,,,,,,,,,,,,,,,,,,,,,,,,,,,,,,,,,,,,,,,,,,,,,,,
,,65fadd16dd68b34863129702,2026-03-17_17h08.44.826,kallum_motion_pilot_GIST_update_2,2026.1.1,Win32,60.24096386,65fadd16dd68b34863129702,69b95efdef24cd8a694e89ee,69b960141fa5510b539f03b4,0.0401,0.0401,0,66,66,156,1,sevenfive,,,,,,,,,,,,,,,,,,,,,,,,,,,,,,,,,,,,,,,,,,,,,,,,,,,,,,,,,,,,,,,,,,,,,,,,,,,,,,,,,,,,,,,,,,,,,,,,,,,,,,,,,,,,,,,,,,,,,,,,,,,,,,,,,,,,,,,,,
,,65fadd16dd68b34863129702,2026-03-17_17h08.44.826,kallum_motion_pilot_GIST_update_2,2026.1.1,Win32,60.24096386,65fadd16dd68b34863129702,69b95efdef24cd8a694e89ee,69b960141fa5510b539f03b4,0.0403,0.0403,0,67,67,41,1,onethree,,,,,,,,,,,,,,,,,,,,,,,,,,,,,,,,,,,,,,,,,,,,,,,,,,,,,,,,,,,,,,,,,,,,,,,,,,,,,,,,,,,,,,,,,,,,,,,,,,,,,,,,,,,,,,,,,,,,,,,,,,,,,,,,,,,,,,,,,
,,65fadd16dd68b34863129702,2026-03-17_17h08.44.826,kallum_motion_pilot_GIST_update_2,2026.1.1,Win32,60.24096386,65fadd16dd68b34863129702,69b95efdef24cd8a694e89ee,69b960141fa5510b539f03b4,0.0405,0.0405,0,68,68,24,1,onetwo,,,,,,,,,,,,,,,,,,,,,,,,,,,,,,,,,,,,,,,,,,,,,,,,,,,,,,,,,,,,,,,,,,,,,,,,,,,,,,,,,,,,,,,,,,,,,,,,,,,,,,,,,,,,,,,,,,,,,,,,,,,,,,,,,,,,,,,,,
,,65fadd16dd68b34863129702,2026-03-17_17h08.44.826,kallum_motion_pilot_GIST_update_2,2026.1.1,Win32,60.24096386,65fadd16dd68b34863129702,69b95efdef24cd8a694e89ee,69b960141fa5510b539f03b4,0.0406,0.0406,0,69,69,42,1,twoone,,,,,,,,,,,,,,,,,,,,,,,,,,,,,,,,,,,,,,,,,,,,,,,,,,,,,,,,,,,,,,,,,,,,,,,,,,,,,,,,,,,,,,,,,,,,,,,,,,,,,,,,,,,,,,,,,,,,,,,,,,,,,,,,,,,,,,,,,
,,65fadd16dd68b34863129702,2026-03-17_17h08.44.826,kallum_motion_pilot_GIST_update_2,2026.1.1,Win32,60.24096386,65fadd16dd68b34863129702,69b95efdef24cd8a694e89ee,69b960141fa5510b539f03b4,0.0408,0.0408,0,70,70,33,1,onethree,,,,,,,,,,,,,,,,,,,,,,,,,,,,,,,,,,,,,,,,,,,,,,,,,,,,,,,,,,,,,,,,,,,,,,,,,,,,,,,,,,,,,,,,,,,,,,,,,,,,,,,,,,,,,,,,,,,,,,,,,,,,,,,,,,,,,,,,,
,,65fadd16dd68b34863129702,2026-03-17_17h08.44.826,kallum_motion_pilot_GIST_update_2,2026.1.1,Win32,60.24096386,65fadd16dd68b34863129702,69b95efdef24cd8a694e89ee,69b960141fa5510b539f03b4,0.0409,0.041,0,71,71,14,1,fourtwo,,,,,,,,,,,,,,,,,,,,,,,,,,,,,,,,,,,,,,,,,,,,,,,,,,,,,,,,,,,,,,,,,,,,,,,,,,,,,,,,,,,,,,,,,,,,,,,,,,,,,,,,,,,,,,,,,,,,,,,,,,,,,,,,,,,,,,,,,
,,65fadd16dd68b34863129702,2026-03-17_17h08.44.826,kallum_motion_pilot_GIST_update_2,2026.1.1,Win32,60.24096386,65fadd16dd68b34863129702,69b95efdef24cd8a694e89ee,69b960141fa5510b539f03b4,0.0411,0.0411,0,72,72,39,1,fourthree,,,,,,,,,,,,,,,,,,,,,,,,,,,,,,,,,,,,,,,,,,,,,,,,,,,,,,,,,,,,,,,,,,,,,,,,,,,,,,,,,,,,,,,,,,,,,,,,,,,,,,,,,,,,,,,,,,,,,,,,,,,,,,,,,,,,,,,,,
,,65fadd16dd68b34863129702,2026-03-17_17h08.44.826,kallum_motion_pilot_GIST_update_2,2026.1.1,Win32,60.24096386,65fadd16dd68b34863129702,69b95efdef24cd8a694e89ee,69b960141fa5510b539f03b4,0.0413,0.0413,0,73,73,93,1,seveneight,,,,,,,,,,,,,,,,,,,,,,,,,,,,,,,,,,,,,,,,,,,,,,,,,,,,,,,,,,,,,,,,,,,,,,,,,,,,,,,,,,,,,,,,,,,,,,,,,,,,,,,,,,,,,,,,,,,,,,,,,,,,,,,,,,,,,,,,,
,,65fadd16dd68b34863129702,2026-03-17_17h08.44.826,kallum_motion_pilot_GIST_update_2,2026.1.1,Win32,60.24096386,65fadd16dd68b34863129702,69b95efdef24cd8a694e89ee,69b960141fa5510b539f03b4,0.0415,0.0415,0,74,74,148,1,sevenfive,,,,,,,,,,,,,,,,,,,,,,,,,,,,,,,,,,,,,,,,,,,,,,,,,,,,,,,,,,,,,,,,,,,,,,,,,,,,,,,,,,,,,,,,,,,,,,,,,,,,,,,,,,,,,,,,,,,,,,,,,,,,,,,,,,,,,,,,,
,,65fadd16dd68b34863129702,2026-03-17_17h08.44.826,kallum_motion_pilot_GIST_update_2,2026.1.1,Win32,60.24096386,65fadd16dd68b34863129702,69b95efdef24cd8a694e89ee,69b960141fa5510b539f03b4,0.0417,0.0417,0,75,75,126,1,eightsix,,,,,,,,,,,,,,,,,,,,,,,,,,,,,,,,,,,,,,,,,,,,,,,,,,,,,,,,,,,,,,,,,,,,,,,,,,,,,,,,,,,,,,,,,,,,,,,,,,,,,,,,,,,,,,,,,,,,,,,,,,,,,,,,,,,,,,,,,
,,65fadd16dd68b34863129702,2026-03-17_17h08.44.826,kallum_motion_pilot_GIST_update_2,2026.1.1,Win32,60.24096386,65fadd16dd68b34863129702,69b95efdef24cd8a694e89ee,69b960141fa5510b539f03b4,0.0418,0.0418,0,76,76,54,1,fourtwo,,,,,,,,,,,,,,,,,,,,,,,,,,,,,,,,,,,,,,,,,,,,,,,,,,,,,,,,,,,,,,,,,,,,,,,,,,,,,,,,,,,,,,,,,,,,,,,,,,,,,,,,,,,,,,,,,,,,,,,,,,,,,,,,,,,,,,,,,
,,65fadd16dd68b34863129702,2026-03-17_17h08.44.826,kallum_motion_pilot_GIST_update_2,2026.1.1,Win32,60.24096386,65fadd16dd68b34863129702,69b95efdef24cd8a694e89ee,69b960141fa5510b539f03b4,0.042,0.042,0,77,77,141,1,seveneight,,,,,,,,,,,,,,,,,,,,,,,,,,,,,,,,,,,,,,,,,,,,,,,,,,,,,,,,,,,,,,,,,,,,,,,,,,,,,,,,,,,,,,,,,,,,,,,,,,,,,,,,,,,,,,,,,,,,,,,,,,,,,,,,,,,,,,,,,
,,65fadd16dd68b34863129702,2026-03-17_17h08.44.826,kallum_motion_pilot_GIST_update_2,2026.1.1,Win32,60.24096386,65fadd16dd68b34863129702,69b95efdef24cd8a694e89ee,69b960141fa5510b539f03b4,0.0422,0.0422,0,78,78,102,1,eightsix,,,,,,,,,,,,,,,,,,,,,,,,,,,,,,,,,,,,,,,,,,,,,,,,,,,,,,,,,,,,,,,,,,,,,,,,,,,,,,,,,,,,,,,,,,,,,,,,,,,,,,,,,,,,,,,,,,,,,,,,,,,,,,,,,,,,,,,,,
,,65fadd16dd68b34863129702,2026-03-17_17h08.44.826,kallum_motion_pilot_GIST_update_2,2026.1.1,Win32,60.24096386,65fadd16dd68b34863129702,69b95efdef24cd8a694e89ee,69b960141fa5510b539f03b4,0.0423,0.0423,0,79,79,71,1,fourthree,,,,,,,,,,,,,,,,,,,,,,,,,,,,,,,,,,,,,,,,,,,,,,,,,,,,,,,,,,,,,,,,,,,,,,,,,,,,,,,,,,,,,,,,,,,,,,,,,,,,,,,,,,,,,,,,,,,,,,,,,,,,,,,,,,,,,,,,,
,,65fadd16dd68b34863129702,2026-03-17_17h08.44.826,kallum_motion_pilot_GIST_update_2,2026.1.1,Win32,60.24096386,65fadd16dd68b34863129702,69b95efdef24cd8a694e89ee,69b960141fa5510b539f03b4,0.0425,0.0425,0,80,80,52,1,threeone,,,,,,,,,,,,,,,,,,,,,,,,,,,,,,,,,,,,,,,,,,,,,,,,,,,,,,,,,,,,,,,,,,,,,,,,,,,,,,,,,,,,,,,,,,,,,,,,,,,,,,,,,,,,,,,,,,,,,,,,,,,,,,,,,,,,,,,,,
,,65fadd16dd68b34863129702,2026-03-17_17h08.44.826,kallum_motion_pilot_GIST_update_2,2026.1.1,Win32,60.24096386,65fadd16dd68b34863129702,69b95efdef24cd8a694e89ee,69b960141fa5510b539f03b4,0.0427,0.0427,0,81,81,5,1,threefour,,,,,,,,,,,,,,,,,,,,,,,,,,,,,,,,,,,,,,,,,,,,,,,,,,,,,,,,,,,,,,,,,,,,,,,,,,,,,,,,,,,,,,,,,,,,,,,,,,,,,,,,,,,,,,,,,,,,,,,,,,,,,,,,,,,,,,,,,
,,65fadd16dd68b34863129702,2026-03-17_17h08.44.826,kallum_motion_pilot_GIST_update_2,2026.1.1,Win32,60.24096386,65fadd16dd68b34863129702,69b95efdef24cd8a694e89ee,69b960141fa5510b539f03b4,0.0429,0.0429,0,82,82,99,1,sixeight,,,,,,,,,,,,,,,,,,,,,,,,,,,,,,,,,,,,,,,,,,,,,,,,,,,,,,,,,,,,,,,,,,,,,,,,,,,,,,,,,,,,,,,,,,,,,,,,,,,,,,,,,,,,,,,,,,,,,,,,,,,,,,,,,,,,,,,,,
,,65fadd16dd68b34863129702,2026-03-17_17h08.44.826,kallum_motion_pilot_GIST_update_2,2026.1.1,Win32,60.24096386,65fadd16dd68b34863129702,69b95efdef24cd8a694e89ee,69b960141fa5510b539f03b4,0.043,0.043,0,83,83,125,1,seveneight,,,,,,,,,,,,,,,,,,,,,,,,,,,,,,,,,,,,,,,,,,,,,,,,,,,,,,,,,,,,,,,,,,,,,,,,,,,,,,,,,,,,,,,,,,,,,,,,,,,,,,,,,,,,,,,,,,,,,,,,,,,,,,,,,,,,,,,,,
,,65fadd16dd68b34863129702,2026-03-17_17h08.44.826,kallum_motion_pilot_GIST_update_2,2026.1.1,Win32,60.24096386,65fadd16dd68b34863129702,69b95efdef24cd8a694e89ee,69b960141fa5510b539f03b4,0.0432,0.0432,0,84,84,46,1,fourtwo,,,,,,,,,,,,,,,,,,,,,,,,,,,,,,,,,,,,,,,,,,,,,,,,,,,,,,,,,,,,,,,,,,,,,,,,,,,,,,,,,,,,,,,,,,,,,,,,,,,,,,,,,,,,,,,,,,,,,,,,,,,,,,,,,,,,,,,,,
,,65fadd16dd68b34863129702,2026-03-17_17h08.44.826,kallum_motion_pilot_GIST_update_2,2026.1.1,Win32,60.24096386,65fadd16dd68b34863129702,69b95efdef24cd8a694e89ee,69b960141fa5510b539f03b4,0.0434,0.0434,0,85,85,117,1,seveneight,,,,,,,,,,,,,,,,,,,,,,,,,,,,,,,,,,,,,,,,,,,,,,,,,,,,,,,,,,,,,,,,,,,,,,,,,,,,,,,,,,,,,,,,,,,,,,,,,,,,,,,,,,,,,,,,,,,,,,,,,,,,,,,,,,,,,,,,,
,,65fadd16dd68b34863129702,2026-03-17_17h08.44.826,kallum_motion_pilot_GIST_update_2,2026.1.1,Win32,60.24096386,65fadd16dd68b34863129702,69b95efdef24cd8a694e89ee,69b960141fa5510b539f03b4,0.0436,0.0436,0,86,86,67,1,twofour,,,,,,,,,,,,,,,,,,,,,,,,,,,,,,,,,,,,,,,,,,,,,,,,,,,,,,,,,,,,,,,,,,,,,,,,,,,,,,,,,,,,,,,,,,,,,,,,,,,,,,,,,,,,,,,,,,,,,,,,,,,,,,,,,,,,,,,,,
,,65fadd16dd68b34863129702,2026-03-17_17h08.44.826,kallum_motion_pilot_GIST_update_2,2026.1.1,Win32,60.24096386,65fadd16dd68b34863129702,69b95efdef24cd8a694e89ee,69b960141fa5510b539f03b4,0.0437,0.0437,0,87,87,45,1,threefour,,,,,,,,,,,,,,,,,,,,,,,,,,,,,,,,,,,,,,,,,,,,,,,,,,,,,,,,,,,,,,,,,,,,,,,,,,,,,,,,,,,,,,,,,,,,,,,,,,,,,,,,,,,,,,,,,,,,,,,,,,,,,,,,,,,,,,,,,
,,65fadd16dd68b34863129702,2026-03-17_17h08.44.826,kallum_motion_pilot_GIST_update_2,2026.1.1,Win32,60.24096386,65fadd16dd68b34863129702,69b95efdef24cd8a694e89ee,69b960141fa5510b539f03b4,0.0439,0.0439,0,88,88,92,1,sevenfive,,,,,,,,,,,,,,,,,,,,,,,,,,,,,,,,,,,,,,,,,,,,,,,,,,,,,,,,,,,,,,,,,,,,,,,,,,,,,,,,,,,,,,,,,,,,,,,,,,,,,,,,,,,,,,,,,,,,,,,,,,,,,,,,,,,,,,,,,
,,65fadd16dd68b34863129702,2026-03-17_17h08.44.826,kallum_motion_pilot_GIST_update_2,2026.1.1,Win32,60.24096386,65fadd16dd68b34863129702,69b95efdef24cd8a694e89ee,69b960141fa5510b539f03b4,0.0441,0.0441,0,89,89,73,1,onethree,,,,,,,,,,,,,,,,,,,,,,,,,,,,,,,,,,,,,,,,,,,,,,,,,,,,,,,,,,,,,,,,,,,,,,,,,,,,,,,,,,,,,,,,,,,,,,,,,,,,,,,,,,,,,,,,,,,,,,,,,,,,,,,,,,,,,,,,,
,,65fadd16dd68b34863129702,2026-03-17_17h08.44.826,kallum_motion_pilot_GIST_update_2,2026.1.1,Win32,60.24096386,65fadd16dd68b34863129702,69b95efdef24cd8a694e89ee,69b960141fa5510b539f03b4,0.0443,0.0443,0,90,90,32,1,onetwo,,,,,,,,,,,,,,,,,,,,,,,,,,,,,,,,,,,,,,,,,,,,,,,,,,,,,,,,,,,,,,,,,,,,,,,,,,,,,,,,,,,,,,,,,,,,,,,,,,,,,,,,,,,,,,,,,,,,,,,,,,,,,,,,,,,,,,,,,
,,65fadd16dd68b34863129702,2026-03-17_17h08.44.826,kallum_motion_pilot_GIST_update_2,2026.1.1,Win32,60.24096386,65fadd16dd68b34863129702,69b95efdef24cd8a694e89ee,69b960141fa5510b539f03b4,0.0444,0.0445,0,91,91,2,1,twoone,,,,,,,,,,,,,,,,,,,,,,,,,,,,,,,,,,,,,,,,,,,,,,,,,,,,,,,,,,,,,,,,,,,,,,,,,,,,,,,,,,,,,,,,,,,,,,,,,,,,,,,,,,,,,,,,,,,,,,,,,,,,,,,,,,,,,,,,,
,,65fadd16dd68b34863129702,2026-03-17_17h08.44.826,kallum_motion_pilot_GIST_update_2,2026.1.1,Win32,60.24096386,65fadd16dd68b34863129702,69b95efdef24cd8a694e89ee,69b960141fa5510b539f03b4,0.0446,0.0446,0,92,92,7,1,fourthree,,,,,,,,,,,,,,,,,,,,,,,,,,,,,,,,,,,,,,,,,,,,,,,,,,,,,,,,,,,,,,,,,,,,,,,,,,,,,,,,,,,,,,,,,,,,,,,,,,,,,,,,,,,,,,,,,,,,,,,,,,,,,,,,,,,,,,,,,
,,65fadd16dd68b34863129702,2026-03-17_17h08.44.826,kallum_motion_pilot_GIST_update_2,2026.1.1,Win32,60.24096386,65fadd16dd68b34863129702,69b95efdef24cd8a694e89ee,69b960141fa5510b539f03b4,0.0447,0.0448,0,93,93,131,1,sixeight,,,,,,,,,,,,,,,,,,,,,,,,,,,,,,,,,,,,,,,,,,,,,,,,,,,,,,,,,,,,,,,,,,,,,,,,,,,,,,,,,,,,,,,,,,,,,,,,,,,,,,,,,,,,,,,,,,,,,,,,,,,,,,,,,,,,,,,,,
,,65fadd16dd68b34863129702,2026-03-17_17h08.44.826,kallum_motion_pilot_GIST_update_2,2026.1.1,Win32,60.24096386,65fadd16dd68b34863129702,69b95efdef24cd8a694e89ee,69b960141fa5510b539f03b4,0.0449,0.0449,0,94,94,146,1,sixfive,,,,,,,,,,,,,,,,,,,,,,,,,,,,,,,,,,,,,,,,,,,,,,,,,,,,,,,,,,,,,,,,,,,,,,,,,,,,,,,,,,,,,,,,,,,,,,,,,,,,,,,,,,,,,,,,,,,,,,,,,,,,,,,,,,,,,,,,,
,,65fadd16dd68b34863129702,2026-03-17_17h08.44.826,kallum_motion_pilot_GIST_update_2,2026.1.1,Win32,60.24096386,65fadd16dd68b34863129702,69b95efdef24cd8a694e89ee,69b960141fa5510b539f03b4,0.045,0.0451,0,95,95,56,1,onetwo,,,,,,,,,,,,,,,,,,,,,,,,,,,,,,,,,,,,,,,,,,,,,,,,,,,,,,,,,,,,,,,,,,,,,,,,,,,,,,,,,,,,,,,,,,,,,,,,,,,,,,,,,,,,,,,,,,,,,,,,,,,,,,,,,,,,,,,,,
,,65fadd16dd68b34863129702,2026-03-17_17h08.44.826,kallum_motion_pilot_GIST_update_2,2026.1.1,Win32,60.24096386,65fadd16dd68b34863129702,69b95efdef24cd8a694e89ee,69b960141fa5510b539f03b4,0.0451,0.0452,0,96,96,20,1,threeone,,,,,,,,,,,,,,,,,,,,,,,,,,,,,,,,,,,,,,,,,,,,,,,,,,,,,,,,,,,,,,,,,,,,,,,,,,,,,,,,,,,,,,,,,,,,,,,,,,,,,,,,,,,,,,,,,,,,,,,,,,,,,,,,,,,,,,,,,
,,65fadd16dd68b34863129702,2026-03-17_17h08.44.826,kallum_motion_pilot_GIST_update_2,2026.1.1,Win32,60.24096386,65fadd16dd68b34863129702,69b95efdef24cd8a694e89ee,69b960141fa5510b539f03b4,0.0453,0.0454,0,97,97,43,1,twofour,,,,,,,,,,,,,,,,,,,,,,,,,,,,,,,,,,,,,,,,,,,,,,,,,,,,,,,,,,,,,,,,,,,,,,,,,,,,,,,,,,,,,,,,,,,,,,,,,,,,,,,,,,,,,,,,,,,,,,,,,,,,,,,,,,,,,,,,,
,,65fadd16dd68b34863129702,2026-03-17_17h08.44.826,kallum_motion_pilot_GIST_update_2,2026.1.1,Win32,60.24096386,65fadd16dd68b34863129702,69b95efdef24cd8a694e89ee,69b960141fa5510b539f03b4,0.0455,0.0455,0,98,98,9,1,onethree,,,,,,,,,,,,,,,,,,,,,,,,,,,,,,,,,,,,,,,,,,,,,,,,,,,,,,,,,,,,,,,,,,,,,,,,,,,,,,,,,,,,,,,,,,,,,,,,,,,,,,,,,,,,,,,,,,,,,,,,,,,,,,,,,,,,,,,,,
,,65fadd16dd68b34863129702,2026-03-17_17h08.44.826,kallum_motion_pilot_GIST_update_2,2026.1.1,Win32,60.24096386,65fadd16dd68b34863129702,69b95efdef24cd8a694e89ee,69b960141fa5510b539f03b4,0.0457,0.0457,0,99,99,79,1,eightseven,,,,,,,,,,,,,,,,,,,,,,,,,,,,,,,,,,,,,,,,,,,,,,,,,,,,,,,,,,,,,,,,,,,,,,,,,,,,,,,,,,,,,,,,,,,,,,,,,,,,,,,,,,,,,,,,,,,,,,,,,,,,,,,,,,,,,,,,,
,,65fadd16dd68b34863129702,2026-03-17_17h08.44.826,kallum_motion_pilot_GIST_update_2,2026.1.1,Win32,60.24096386,65fadd16dd68b34863129702,69b95efdef24cd8a694e89ee,69b960141fa5510b539f03b4,0.0458,0.0458,0,100,100,124,1,sevenfive,,,,,,,,,,,,,,,,,,,,,,,,,,,,,,,,,,,,,,,,,,,,,,,,,,,,,,,,,,,,,,,,,,,,,,,,,,,,,,,,,,,,,,,,,,,,,,,,,,,,,,,,,,,,,,,,,,,,,,,,,,,,,,,,,,,,,,,,,
,,65fadd16dd68b34863129702,2026-03-17_17h08.44.826,kallum_motion_pilot_GIST_update_2,2026.1.1,Win32,60.24096386,65fadd16dd68b34863129702,69b95efdef24cd8a694e89ee,69b960141fa5510b539f03b4,0.046,0.046,0,101,101,70,1,fourtwo,,,,,,,,,,,,,,,,,,,,,,,,,,,,,,,,,,,,,,,,,,,,,,,,,,,,,,,,,,,,,,,,,,,,,,,,,,,,,,,,,,,,,,,,,,,,,,,,,,,,,,,,,,,,,,,,,,,,,,,,,,,,,,,,,,,,,,,,,
,,65fadd16dd68b34863129702,2026-03-17_17h08.44.826,kallum_motion_pilot_GIST_update_2,2026.1.1,Win32,60.24096386,65fadd16dd68b34863129702,69b95efdef24cd8a694e89ee,69b960141fa5510b539f03b4,0.0462,0.0462,0,102,102,90,1,sixfive,,,,,,,,,,,,,,,,,,,,,,,,,,,,,,,,,,,,,,,,,,,,,,,,,,,,,,,,,,,,,,,,,,,,,,,,,,,,,,,,,,,,,,,,,,,,,,,,,,,,,,,,,,,,,,,,,,,,,,,,,,,,,,,,,,,,,,,,,
,,65fadd16dd68b34863129702,2026-03-17_17h08.44.826,kallum_motion_pilot_GIST_update_2,2026.1.1,Win32,60.24096386,65fadd16dd68b34863129702,69b95efdef24cd8a694e89ee,69b960141fa5510b539f03b4,0.0464,0.0464,0,103,103,160,1,fivesix,,,,,,,,,,,,,,,,,,,,,,,,,,,,,,,,,,,,,,,,,,,,,,,,,,,,,,,,,,,,,,,,,,,,,,,,,,,,,,,,,,,,,,,,,,,,,,,,,,,,,,,,,,,,,,,,,,,,,,,,,,,,,,,,,,,,,,,,,
,,65fadd16dd68b34863129702,2026-03-17_17h08.44.826,kallum_motion_pilot_GIST_update_2,2026.1.1,Win32,60.24096386,65fadd16dd68b34863129702,69b95efdef24cd8a694e89ee,69b960141fa5510b539f03b4,0.0465,0.0465,0,104,104,18,1,twoone,,,,,,,,,,,,,,,,,,,,,,,,,,,,,,,,,,,,,,,,,,,,,,,,,,,,,,,,,,,,,,,,,,,,,,,,,,,,,,,,,,,,,,,,,,,,,,,,,,,,,,,,,,,,,,,,,,,,,,,,,,,,,,,,,,,,,,,,,
,,65fadd16dd68b34863129702,2026-03-17_17h08.44.826,kallum_motion_pilot_GIST_update_2,2026.1.1,Win32,60.24096386,65fadd16dd68b34863129702,69b95efdef24cd8a694e89ee,69b960141fa5510b539f03b4,0.0467,0.0467,0,105,105,106,1,sixfive,,,,,,,,,,,,,,,,,,,,,,,,,,,,,,,,,,,,,,,,,,,,,,,,,,,,,,,,,,,,,,,,,,,,,,,,,,,,,,,,,,,,,,,,,,,,,,,,,,,,,,,,,,,,,,,,,,,,,,,,,,,,,,,,,,,,,,,,,
,,65fadd16dd68b34863129702,2026-03-17_17h08.44.826,kallum_motion_pilot_GIST_update_2,2026.1.1,Win32,60.24096386,65fadd16dd68b34863129702,69b95efdef24cd8a694e89ee,69b960141fa5510b539f03b4,0.0469,0.0469,0,106,106,74,1,twoone,,,,,,,,,,,,,,,,,,,,,,,,,,,,,,,,,,,,,,,,,,,,,,,,,,,,,,,,,,,,,,,,,,,,,,,,,,,,,,,,,,,,,,,,,,,,,,,,,,,,,,,,,,,,,,,,,,,,,,,,,,,,,,,,,,,,,,,,,
,,65fadd16dd68b34863129702,2026-03-17_17h08.44.826,kallum_motion_pilot_GIST_update_2,2026.1.1,Win32,60.24096386,65fadd16dd68b34863129702,69b95efdef24cd8a694e89ee,69b960141fa5510b539f03b4,0.0472,0.0472,0,107,107,8,1,onetwo,,,,,,,,,,,,,,,,,,,,,,,,,,,,,,,,,,,,,,,,,,,,,,,,,,,,,,,,,,,,,,,,,,,,,,,,,,,,,,,,,,,,,,,,,,,,,,,,,,,,,,,,,,,,,,,,,,,,,,,,,,,,,,,,,,,,,,,,,
,,65fadd16dd68b34863129702,2026-03-17_17h08.44.826,kallum_motion_pilot_GIST_update_2,2026.1.1,Win32,60.24096386,65fadd16dd68b34863129702,69b95efdef24cd8a694e89ee,69b960141fa5510b539f03b4,0.0473,0.0473,0,108,108,16,1,onetwo,,,,,,,,,,,,,,,,,,,,,,,,,,,,,,,,,,,,,,,,,,,,,,,,,,,,,,,,,,,,,,,,,,,,,,,,,,,,,,,,,,,,,,,,,,,,,,,,,,,,,,,,,,,,,,,,,,,,,,,,,,,,,,,,,,,,,,,,,
,,65fadd16dd68b34863129702,2026-03-17_17h08.44.826,kallum_motion_pilot_GIST_update_2,2026.1.1,Win32,60.24096386,65fadd16dd68b34863129702,69b95efdef24cd8a694e89ee,69b960141fa5510b539f03b4,0.0475,0.0476,0,109,109,151,1,eightseven,,,,,,,,,,,,,,,,,,,,,,,,,,,,,,,,,,,,,,,,,,,,,,,,,,,,,,,,,,,,,,,,,,,,,,,,,,,,,,,,,,,,,,,,,,,,,,,,,,,,,,,,,,,,,,,,,,,,,,,,,,,,,,,,,,,,,,,,,
,,65fadd16dd68b34863129702,2026-03-17_17h08.44.826,kallum_motion_pilot_GIST_update_2,2026.1.1,Win32,60.24096386,65fadd16dd68b34863129702,69b95efdef24cd8a694e89ee,69b960141fa5510b539f03b4,0.0477,0.0477,0,110,110,23,1,fourthree,,,,,,,,,,,,,,,,,,,,,,,,,,,,,,,,,,,,,,,,,,,,,,,,,,,,,,,,,,,,,,,,,,,,,,,,,,,,,,,,,,,,,,,,,,,,,,,,,,,,,,,,,,,,,,,,,,,,,,,,,,,,,,,,,,,,,,,,,
,,65fadd16dd68b34863129702,2026-03-17_17h08.44.826,kallum_motion_pilot_GIST_update_2,2026.1.1,Win32,60.24096386,65fadd16dd68b34863129702,69b95efdef24cd8a694e89ee,69b960141fa5510b539f03b4,0.0478,0.0478,0,111,111,35,1,twofour,,,,,,,,,,,,,,,,,,,,,,,,,,,,,,,,,,,,,,,,,,,,,,,,,,,,,,,,,,,,,,,,,,,,,,,,,,,,,,,,,,,,,,,,,,,,,,,,,,,,,,,,,,,,,,,,,,,,,,,,,,,,,,,,,,,,,,,,,
,,65fadd16dd68b34863129702,2026-03-17_17h08.44.826,kallum_motion_pilot_GIST_update_2,2026.1.1,Win32,60.24096386,65fadd16dd68b34863129702,69b95efdef24cd8a694e89ee,69b960141fa5510b539f03b4,0.048,0.048,0,112,112,119,1,eightseven,,,,,,,,,,,,,,,,,,,,,,,,,,,,,,,,,,,,,,,,,,,,,,,,,,,,,,,,,,,,,,,,,,,,,,,,,,,,,,,,,,,,,,,,,,,,,,,,,,,,,,,,,,,,,,,,,,,,,,,,,,,,,,,,,,,,,,,,,
,,65fadd16dd68b34863129702,2026-03-17_17h08.44.826,kallum_motion_pilot_GIST_update_2,2026.1.1,Win32,60.24096386,65fadd16dd68b34863129702,69b95efdef24cd8a694e89ee,69b960141fa5510b539f03b4,0.0482,0.0482,0,113,113,19,1,twofour,,,,,,,,,,,,,,,,,,,,,,,,,,,,,,,,,,,,,,,,,,,,,,,,,,,,,,,,,,,,,,,,,,,,,,,,,,,,,,,,,,,,,,,,,,,,,,,,,,,,,,,,,,,,,,,,,,,,,,,,,,,,,,,,,,,,,,,,,
,,65fadd16dd68b34863129702,2026-03-17_17h08.44.826,kallum_motion_pilot_GIST_update_2,2026.1.1,Win32,60.24096386,65fadd16dd68b34863129702,69b95efdef24cd8a694e89ee,69b960141fa5510b539f03b4,0.0484,0.0484,0,114,114,130,1,sixfive,,,,,,,,,,,,,,,,,,,,,,,,,,,,,,,,,,,,,,,,,,,,,,,,,,,,,,,,,,,,,,,,,,,,,,,,,,,,,,,,,,,,,,,,,,,,,,,,,,,,,,,,,,,,,,,,,,,,,,,,,,,,,,,,,,,,,,,,,
,,65fadd16dd68b34863129702,2026-03-17_17h08.44.826,kallum_motion_pilot_GIST_update_2,2026.1.1,Win32,60.24096386,65fadd16dd68b34863129702,69b95efdef24cd8a694e89ee,69b960141fa5510b539f03b4,0.0486,0.0486,0,115,115,113,1,fiveseven,,,,,,,,,,,,,,,,,,,,,,,,,,,,,,,,,,,,,,,,,,,,,,,,,,,,,,,,,,,,,,,,,,,,,,,,,,,,,,,,,,,,,,,,,,,,,,,,,,,,,,,,,,,,,,,,,,,,,,,,,,,,,,,,,,,,,,,,,
,,65fadd16dd68b34863129702,2026-03-17_17h08.44.826,kallum_motion_pilot_GIST_update_2,2026.1.1,Win32,60.24096386,65fadd16dd68b34863129702,69b95efdef24cd8a694e89ee,69b960141fa5510b539f03b4,0.0487,0.0487,0,116,116,100,1,sevenfive,,,,,,,,,,,,,,,,,,,,,,,,,,,,,,,,,,,,,,,,,,,,,,,,,,,,,,,,,,,,,,,,,,,,,,,,,,,,,,,,,,,,,,,,,,,,,,,,,,,,,,,,,,,,,,,,,,,,,,,,,,,,,,,,,,,,,,,,,
,,65fadd16dd68b34863129702,2026-03-17_17h08.44.826,kallum_motion_pilot_GIST_update_2,2026.1.1,Win32,60.24096386,65fadd16dd68b34863129702,69b95efdef24cd8a694e89ee,69b960141fa5510b539f03b4,0.0489,0.0489,0,117,117,60,1,threeone,,,,,,,,,,,,,,,,,,,,,,,,,,,,,,,,,,,,,,,,,,,,,,,,,,,,,,,,,,,,,,,,,,,,,,,,,,,,,,,,,,,,,,,,,,,,,,,,,,,,,,,,,,,,,,,,,,,,,,,,,,,,,,,,,,,,,,,,,
,,65fadd16dd68b34863129702,2026-03-17_17h08.44.826,kallum_motion_pilot_GIST_update_2,2026.1.1,Win32,60.24096386,65fadd16dd68b34863129702,69b95efdef24cd8a694e89ee,69b960141fa5510b539f03b4,0.049,0.049,0,118,118,69,1,threefour,,,,,,,,,,,,,,,,,,,,,,,,,,,,,,,,,,,,,,,,,,,,,,,,,,,,,,,,,,,,,,,,,,,,,,,,,,,,,,,,,,,,,,,,,,,,,,,,,,,,,,,,,,,,,,,,,,,,,,,,,,,,,,,,,,,,,,,,,
,,65fadd16dd68b34863129702,2026-03-17_17h08.44.826,kallum_motion_pilot_GIST_update_2,2026.1.1,Win32,60.24096386,65fadd16dd68b34863129702,69b95efdef24cd8a694e89ee,69b960141fa5510b539f03b4,0.0492,0.0493,0,119,119,155,1,sixeight,,,,,,,,,,,,,,,,,,,,,,,,,,,,,,,,,,,,,,,,,,,,,,,,,,,,,,,,,,,,,,,,,,,,,,,,,,,,,,,,,,,,,,,,,,,,,,,,,,,,,,,,,,,,,,,,,,,,,,,,,,,,,,,,,,,,,,,,,
,,65fadd16dd68b34863129702,2026-03-17_17h08.44.826,kallum_motion_pilot_GIST_update_2,2026.1.1,Win32,60.24096386,65fadd16dd68b34863129702,69b95efdef24cd8a694e89ee,69b960141fa5510b539f03b4,0.0494,0.0494,0,120,120,91,1,sixeight,,,,,,,,,,,,,,,,,,,,,,,,,,,,,,,,,,,,,,,,,,,,,,,,,,,,,,,,,,,,,,,,,,,,,,,,,,,,,,,,,,,,,,,,,,,,,,,,,,,,,,,,,,,,,,,,,,,,,,,,,,,,,,,,,,,,,,,,,
,,65fadd16dd68b34863129702,2026-03-17_17h08.44.826,kallum_motion_pilot_GIST_update_2,2026.1.1,Win32,60.24096386,65fadd16dd68b34863129702,69b95efdef24cd8a694e89ee,69b960141fa5510b539f03b4,0.0496,0.0496,0,121,121,108,1,sevenfive,,,,,,,,,,,,,,,,,,,,,,,,,,,,,,,,,,,,,,,,,,,,,,,,,,,,,,,,,,,,,,,,,,,,,,,,,,,,,,,,,,,,,,,,,,,,,,,,,,,,,,,,,,,,,,,,,,,,,,,,,,,,,,,,,,,,,,,,,
,,65fadd16dd68b34863129702,2026-03-17_17h08.44.826,kallum_motion_pilot_GIST_update_2,2026.1.1,Win32,60.24096386,65fadd16dd68b34863129702,69b95efdef24cd8a694e89ee,69b960141fa5510b539f03b4,0.0498,0.0498,0,122,122,38,1,fourtwo,,,,,,,,,,,,,,,,,,,,,,,,,,,,,,,,,,,,,,,,,,,,,,,,,,,,,,,,,,,,,,,,,,,,,,,,,,,,,,,,,,,,,,,,,,,,,,,,,,,,,,,,,,,,,,,,,,,,,,,,,,,,,,,,,,,,,,,,,
,,65fadd16dd68b34863129702,2026-03-17_17h08.44.826,kallum_motion_pilot_GIST_update_2,2026.1.1,Win32,60.24096386,65fadd16dd68b34863129702,69b95efdef24cd8a694e89ee,69b960141fa5510b539f03b4,0.0501,0.0501,0,123,123,95,1,eightseven,,,,,,,,,,,,,,,,,,,,,,,,,,,,,,,,,,,,,,,,,,,,,,,,,,,,,,,,,,,,,,,,,,,,,,,,,,,,,,,,,,,,,,,,,,,,,,,,,,,,,,,,,,,,,,,,,,,,,,,,,,,,,,,,,,,,,,,,,
,,65fadd16dd68b34863129702,2026-03-17_17h08.44.826,kallum_motion_pilot_GIST_update_2,2026.1.1,Win32,60.24096386,65fadd16dd68b34863129702,69b95efdef24cd8a694e89ee,69b960141fa5510b539f03b4,0.0503,0.0503,0,124,124,109,1,seveneight,,,,,,,,,,,,,,,,,,,,,,,,,,,,,,,,,,,,,,,,,,,,,,,,,,,,,,,,,,,,,,,,,,,,,,,,,,,,,,,,,,,,,,,,,,,,,,,,,,,,,,,,,,,,,,,,,,,,,,,,,,,,,,,,,,,,,,,,,
,,65fadd16dd68b34863129702,2026-03-17_17h08.44.826,kallum_motion_pilot_GIST_update_2,2026.1.1,Win32,60.24096386,65fadd16dd68b34863129702,69b95efdef24cd8a694e89ee,69b960141fa5510b539f03b4,0.0504,0.0505,0,125,125,87,1,eightseven,,,,,,,,,,,,,,,,,,,,,,,,,,,,,,,,,,,,,,,,,,,,,,,,,,,,,,,,,,,,,,,,,,,,,,,,,,,,,,,,,,,,,,,,,,,,,,,,,,,,,,,,,,,,,,,,,,,,,,,,,,,,,,,,,,,,,,,,,
,,65fadd16dd68b34863129702,2026-03-17_17h08.44.826,kallum_motion_pilot_GIST_update_2,2026.1.1,Win32,60.24096386,65fadd16dd68b34863129702,69b95efdef24cd8a694e89ee,69b960141fa5510b539f03b4,0.0507,0.0507,0,126,126,10,1,twoone,,,,,,,,,,,,,,,,,,,,,,,,,,,,,,,,,,,,,,,,,,,,,,,,,,,,,,,,,,,,,,,,,,,,,,,,,,,,,,,,,,,,,,,,,,,,,,,,,,,,,,,,,,,,,,,,,,,,,,,,,,,,,,,,,,,,,,,,,
,,65fadd16dd68b34863129702,2026-03-17_17h08.44.826,kallum_motion_pilot_GIST_update_2,2026.1.1,Win32,60.24096386,65fadd16dd68b34863129702,69b95efdef24cd8a694e89ee,69b960141fa5510b539f03b4,0.0509,0.0509,0,127,127,13,1,threefour,,,,,,,,,,,,,,,,,,,,,,,,,,,,,,,,,,,,,,,,,,,,,,,,,,,,,,,,,,,,,,,,,,,,,,,,,,,,,,,,,,,,,,,,,,,,,,,,,,,,,,,,,,,,,,,,,,,,,,,,,,,,,,,,,,,,,,,,,
,,65fadd16dd68b34863129702,2026-03-17_17h08.44.826,kallum_motion_pilot_GIST_update_2,2026.1.1,Win32,60.24096386,65fadd16dd68b34863129702,69b95efdef24cd8a694e89ee,69b960141fa5510b539f03b4,0.0511,0.0511,0,128,128,82,1,sixfive,,,,,,,,,,,,,,,,,,,,,,,,,,,,,,,,,,,,,,,,,,,,,,,,,,,,,,,,,,,,,,,,,,,,,,,,,,,,,,,,,,,,,,,,,,,,,,,,,,,,,,,,,,,,,,,,,,,,,,,,,,,,,,,,,,,,,,,,,
,,65fadd16dd68b34863129702,2026-03-17_17h08.44.826,kallum_motion_pilot_GIST_update_2,2026.1.1,Win32,60.24096386,65fadd16dd68b34863129702,69b95efdef24cd8a694e89ee,69b960141fa5510b539f03b4,0.0513,0.0513,0,129,129,30,1,fourtwo,,,,,,,,,,,,,,,,,,,,,,,,,,,,,,,,,,,,,,,,,,,,,,,,,,,,,,,,,,,,,,,,,,,,,,,,,,,,,,,,,,,,,,,,,,,,,,,,,,,,,,,,,,,,,,,,,,,,,,,,,,,,,,,,,,,,,,,,,
,,65fadd16dd68b34863129702,2026-03-17_17h08.44.826,kallum_motion_pilot_GIST_update_2,2026.1.1,Win32,60.24096386,65fadd16dd68b34863129702,69b95efdef24cd8a694e89ee,69b960141fa5510b539f03b4,0.0514,0.0514,0,130,130,150,1,eightsix,,,,,,,,,,,,,,,,,,,,,,,,,,,,,,,,,,,,,,,,,,,,,,,,,,,,,,,,,,,,,,,,,,,,,,,,,,,,,,,,,,,,,,,,,,,,,,,,,,,,,,,,,,,,,,,,,,,,,,,,,,,,,,,,,,,,,,,,,
,,65fadd16dd68b34863129702,2026-03-17_17h08.44.826,kallum_motion_pilot_GIST_update_2,2026.1.1,Win32,60.24096386,65fadd16dd68b34863129702,69b95efdef24cd8a694e89ee,69b960141fa5510b539f03b4,0.0516,0.0516,0,131,131,144,1,fivesix,,,,,,,,,,,,,,,,,,,,,,,,,,,,,,,,,,,,,,,,,,,,,,,,,,,,,,,,,,,,,,,,,,,,,,,,,,,,,,,,,,,,,,,,,,,,,,,,,,,,,,,,,,,,,,,,,,,,,,,,,,,,,,,,,,,,,,,,,
,,65fadd16dd68b34863129702,2026-03-17_17h08.44.826,kallum_motion_pilot_GIST_update_2,2026.1.1,Win32,60.24096386,65fadd16dd68b34863129702,69b95efdef24cd8a694e89ee,69b960141fa5510b539f03b4,0.0517,0.0517,0,132,132,26,1,twoone,,,,,,,,,,,,,,,,,,,,,,,,,,,,,,,,,,,,,,,,,,,,,,,,,,,,,,,,,,,,,,,,,,,,,,,,,,,,,,,,,,,,,,,,,,,,,,,,,,,,,,,,,,,,,,,,,,,,,,,,,,,,,,,,,,,,,,,,,
,,65fadd16dd68b34863129702,2026-03-17_17h08.44.826,kallum_motion_pilot_GIST_update_2,2026.1.1,Win32,60.24096386,65fadd16dd68b34863129702,69b95efdef24cd8a694e89ee,69b960141fa5510b539f03b4,0.0519,0.052,0,133,133,44,1,threeone,,,,,,,,,,,,,,,,,,,,,,,,,,,,,,,,,,,,,,,,,,,,,,,,,,,,,,,,,,,,,,,,,,,,,,,,,,,,,,,,,,,,,,,,,,,,,,,,,,,,,,,,,,,,,,,,,,,,,,,,,,,,,,,,,,,,,,,,,
,,65fadd16dd68b34863129702,2026-03-17_17h08.44.826,kallum_motion_pilot_GIST_update_2,2026.1.1,Win32,60.24096386,65fadd16dd68b34863129702,69b95efdef24cd8a694e89ee,69b960141fa5510b539f03b4,0.0521,0.0521,0,134,134,75,1,twofour,,,,,,,,,,,,,,,,,,,,,,,,,,,,,,,,,,,,,,,,,,,,,,,,,,,,,,,,,,,,,,,,,,,,,,,,,,,,,,,,,,,,,,,,,,,,,,,,,,,,,,,,,,,,,,,,,,,,,,,,,,,,,,,,,,,,,,,,,
,,65fadd16dd68b34863129702,2026-03-17_17h08.44.826,kallum_motion_pilot_GIST_update_2,2026.1.1,Win32,60.24096386,65fadd16dd68b34863129702,69b95efdef24cd8a694e89ee,69b960141fa5510b539f03b4,0.0522,0.0522,0,135,135,152,1,fivesix,,,,,,,,,,,,,,,,,,,,,,,,,,,,,,,,,,,,,,,,,,,,,,,,,,,,,,,,,,,,,,,,,,,,,,,,,,,,,,,,,,,,,,,,,,,,,,,,,,,,,,,,,,,,,,,,,,,,,,,,,,,,,,,,,,,,,,,,,
,,65fadd16dd68b34863129702,2026-03-17_17h08.44.826,kallum_motion_pilot_GIST_update_2,2026.1.1,Win32,60.24096386,65fadd16dd68b34863129702,69b95efdef24cd8a694e89ee,69b960141fa5510b539f03b4,0.0524,0.0524,0,136,136,143,1,eightseven,,,,,,,,,,,,,,,,,,,,,,,,,,,,,,,,,,,,,,,,,,,,,,,,,,,,,,,,,,,,,,,,,,,,,,,,,,,,,,,,,,,,,,,,,,,,,,,,,,,,,,,,,,,,,,,,,,,,,,,,,,,,,,,,,,,,,,,,,
,,65fadd16dd68b34863129702,2026-03-17_17h08.44.826,kallum_motion_pilot_GIST_update_2,2026.1.1,Win32,60.24096386,65fadd16dd68b34863129702,69b95efdef24cd8a694e89ee,69b960141fa5510b539f03b4,0.0525,0.0525,0,137,137,29,1,threefour,,,,,,,,,,,,,,,,,,,,,,,,,,,,,,,,,,,,,,,,,,,,,,,,,,,,,,,,,,,,,,,,,,,,,,,,,,,,,,,,,,,,,,,,,,,,,,,,,,,,,,,,,,,,,,,,,,,,,,,,,,,,,,,,,,,,,,,,,
,,65fadd16dd68b34863129702,2026-03-17_17h08.44.826,kallum_motion_pilot_GIST_update_2,2026.1.1,Win32,60.24096386,65fadd16dd68b34863129702,69b95efdef24cd8a694e89ee,69b960141fa5510b539f03b4,0.0527,0.0527,0,138,138,157,1,seveneight,,,,,,,,,,,,,,,,,,,,,,,,,,,,,,,,,,,,,,,,,,,,,,,,,,,,,,,,,,,,,,,,,,,,,,,,,,,,,,,,,,,,,,,,,,,,,,,,,,,,,,,,,,,,,,,,,,,,,,,,,,,,,,,,,,,,,,,,,
,,65fadd16dd68b34863129702,2026-03-17_17h08.44.826,kallum_motion_pilot_GIST_update_2,2026.1.1,Win32,60.24096386,65fadd16dd68b34863129702,69b95efdef24cd8a694e89ee,69b960141fa5510b539f03b4,0.0528,0.0528,0,139,139,121,1,fiveseven,,,,,,,,,,,,,,,,,,,,,,,,,,,,,,,,,,,,,,,,,,,,,,,,,,,,,,,,,,,,,,,,,,,,,,,,,,,,,,,,,,,,,,,,,,,,,,,,,,,,,,,,,,,,,,,,,,,,,,,,,,,,,,,,,,,,,,,,,
,,65fadd16dd68b34863129702,2026-03-17_17h08.44.826,kallum_motion_pilot_GIST_update_2,2026.1.1,Win32,60.24096386,65fadd16dd68b34863129702,69b95efdef24cd8a694e89ee,69b960141fa5510b539f03b4,0.053,0.053,0,140,140,0,1,onetwo,,,,,,,,,,,,,,,,,,,,,,,,,,,,,,,,,,,,,,,,,,,,,,,,,,,,,,,,,,,,,,,,,,,,,,,,,,,,,,,,,,,,,,,,,,,,,,,,,,,,,,,,,,,,,,,,,,,,,,,,,,,,,,,,,,,,,,,,,
,,65fadd16dd68b34863129702,2026-03-17_17h08.44.826,kallum_motion_pilot_GIST_update_2,2026.1.1,Win32,60.24096386,65fadd16dd68b34863129702,69b95efdef24cd8a694e89ee,69b960141fa5510b539f03b4,0.0532,0.0532,0,141,141,63,1,fourthree,,,,,,,,,,,,,,,,,,,,,,,,,,,,,,,,,,,,,,,,,,,,,,,,,,,,,,,,,,,,,,,,,,,,,,,,,,,,,,,,,,,,,,,,,,,,,,,,,,,,,,,,,,,,,,,,,,,,,,,,,,,,,,,,,,,,,,,,,
,,65fadd16dd68b34863129702,2026-03-17_17h08.44.826,kallum_motion_pilot_GIST_update_2,2026.1.1,Win32,60.24096386,65fadd16dd68b34863129702,69b95efdef24cd8a694e89ee,69b960141fa5510b539f03b4,0.0534,0.0534,0,142,142,72,1,onetwo,,,,,,,,,,,,,,,,,,,,,,,,,,,,,,,,,,,,,,,,,,,,,,,,,,,,,,,,,,,,,,,,,,,,,,,,,,,,,,,,,,,,,,,,,,,,,,,,,,,,,,,,,,,,,,,,,,,,,,,,,,,,,,,,,,,,,,,,,
,,65fadd16dd68b34863129702,2026-03-17_17h08.44.826,kallum_motion_pilot_GIST_update_2,2026.1.1,Win32,60.24096386,65fadd16dd68b34863129702,69b95efdef24cd8a694e89ee,69b960141fa5510b539f03b4,0.0535,0.0535,0,143,143,136,1,fivesix,,,,,,,,,,,,,,,,,,,,,,,,,,,,,,,,,,,,,,,,,,,,,,,,,,,,,,,,,,,,,,,,,,,,,,,,,,,,,,,,,,,,,,,,,,,,,,,,,,,,,,,,,,,,,,,,,,,,,,,,,,,,,,,,,,,,,,,,,
,,65fadd16dd68b34863129702,2026-03-17_17h08.44.826,kallum_motion_pilot_GIST_update_2,2026.1.1,Win32,60.24096386,65fadd16dd68b34863129702,69b95efdef24cd8a694e89ee,69b960141fa5510b539f03b4,0.0538,0.0538,0,144,144,149,1,seveneight,,,,,,,,,,,,,,,,,,,,,,,,,,,,,,,,,,,,,,,,,,,,,,,,,,,,,,,,,,,,,,,,,,,,,,,,,,,,,,,,,,,,,,,,,,,,,,,,,,,,,,,,,,,,,,,,,,,,,,,,,,,,,,,,,,,,,,,,,
,,65fadd16dd68b34863129702,2026-03-17_17h08.44.826,kallum_motion_pilot_GIST_update_2,2026.1.1,Win32,60.24096386,65fadd16dd68b34863129702,69b95efdef24cd8a694e89ee,69b960141fa5510b539f03b4,0.054,0.054,0,145,145,40,1,onetwo,,,,,,,,,,,,,,,,,,,,,,,,,,,,,,,,,,,,,,,,,,,,,,,,,,,,,,,,,,,,,,,,,,,,,,,,,,,,,,,,,,,,,,,,,,,,,,,,,,,,,,,,,,,,,,,,,,,,,,,,,,,,,,,,,,,,,,,,,
,,65fadd16dd68b34863129702,2026-03-17_17h08.44.826,kallum_motion_pilot_GIST_update_2,2026.1.1,Win32,60.24096386,65fadd16dd68b34863129702,69b95efdef24cd8a694e89ee,69b960141fa5510b539f03b4,0.0543,0.0543,0,146,146,104,1,fivesix,,,,,,,,,,,,,,,,,,,,,,,,,,,,,,,,,,,,,,,,,,,,,,,,,,,,,,,,,,,,,,,,,,,,,,,,,,,,,,,,,,,,,,,,,,,,,,,,,,,,,,,,,,,,,,,,,,,,,,,,,,,,,,,,,,,,,,,,,
,,65fadd16dd68b34863129702,2026-03-17_17h08.44.826,kallum_motion_pilot_GIST_update_2,2026.1.1,Win32,60.24096386,65fadd16dd68b34863129702,69b95efdef24cd8a694e89ee,69b960141fa5510b539f03b4,0.0545,0.0545,0,147,147,159,1,eightseven,,,,,,,,,,,,,,,,,,,,,,,,,,,,,,,,,,,,,,,,,,,,,,,,,,,,,,,,,,,,,,,,,,,,,,,,,,,,,,,,,,,,,,,,,,,,,,,,,,,,,,,,,,,,,,,,,,,,,,,,,,,,,,,,,,,,,,,,,
,,65fadd16dd68b34863129702,2026-03-17_17h08.44.826,kallum_motion_pilot_GIST_update_2,2026.1.1,Win32,60.24096386,65fadd16dd68b34863129702,69b95efdef24cd8a694e89ee,69b960141fa5510b539f03b4,0.0546,0.0546,0,148,148,116,1,sevenfive,,,,,,,,,,,,,,,,,,,,,,,,,,,,,,,,,,,,,,,,,,,,,,,,,,,,,,,,,,,,,,,,,,,,,,,,,,,,,,,,,,,,,,,,,,,,,,,,,,,,,,,,,,,,,,,,,,,,,,,,,,,,,,,,,,,,,,,,,
,,65fadd16dd68b34863129702,2026-03-17_17h08.44.826,kallum_motion_pilot_GIST_update_2,2026.1.1,Win32,60.24096386,65fadd16dd68b34863129702,69b95efdef24cd8a694e89ee,69b960141fa5510b539f03b4,0.0548,0.0549,0,149,149,53,1,threefour,,,,,,,,,,,,,,,,,,,,,,,,,,,,,,,,,,,,,,,,,,,,,,,,,,,,,,,,,,,,,,,,,,,,,,,,,,,,,,,,,,,,,,,,,,,,,,,,,,,,,,,,,,,,,,,,,,,,,,,,,,,,,,,,,,,,,,,,,
,,65fadd16dd68b34863129702,2026-03-17_17h08.44.826,kallum_motion_pilot_GIST_update_2,2026.1.1,Win32,60.24096386,65fadd16dd68b34863129702,69b95efdef24cd8a694e89ee,69b960141fa5510b539f03b4,0.0551,0.0551,0,150,150,138,1,sixfive,,,,,,,,,,,,,,,,,,,,,,,,,,,,,,,,,,,,,,,,,,,,,,,,,,,,,,,,,,,,,,,,,,,,,,,,,,,,,,,,,,,,,,,,,,,,,,,,,,,,,,,,,,,,,,,,,,,,,,,,,,,,,,,,,,,,,,,,,
,,65fadd16dd68b34863129702,2026-03-17_17h08.44.826,kallum_motion_pilot_GIST_update_2,2026.1.1,Win32,60.24096386,65fadd16dd68b34863129702,69b95efdef24cd8a694e89ee,69b960141fa5510b539f03b4,0.0553,0.0553,0,151,151,97,1,fiveseven,,,,,,,,,,,,,,,,,,,,,,,,,,,,,,,,,,,,,,,,,,,,,,,,,,,,,,,,,,,,,,,,,,,,,,,,,,,,,,,,,,,,,,,,,,,,,,,,,,,,,,,,,,,,,,,,,,,,,,,,,,,,,,,,,,,,,,,,,
,,65fadd16dd68b34863129702,2026-03-17_17h08.44.826,kallum_motion_pilot_GIST_update_2,2026.1.1,Win32,60.24096386,65fadd16dd68b34863129702,69b95efdef24cd8a694e89ee,69b960141fa5510b539f03b4,0.0555,0.0555,0,152,152,154,1,sixfive,,,,,,,,,,,,,,,,,,,,,,,,,,,,,,,,,,,,,,,,,,,,,,,,,,,,,,,,,,,,,,,,,,,,,,,,,,,,,,,,,,,,,,,,,,,,,,,,,,,,,,,,,,,,,,,,,,,,,,,,,,,,,,,,,,,,,,,,,
,,65fadd16dd68b34863129702,2026-03-17_17h08.44.826,kallum_motion_pilot_GIST_update_2,2026.1.1,Win32,60.24096386,65fadd16dd68b34863129702,69b95efdef24cd8a694e89ee,69b960141fa5510b539f03b4,0.0556,0.0556,0,153,153,81,1,fiveseven,,,,,,,,,,,,,,,,,,,,,,,,,,,,,,,,,,,,,,,,,,,,,,,,,,,,,,,,,,,,,,,,,,,,,,,,,,,,,,,,,,,,,,,,,,,,,,,,,,,,,,,,,,,,,,,,,,,,,,,,,,,,,,,,,,,,,,,,,
,,65fadd16dd68b34863129702,2026-03-17_17h08.44.826,kallum_motion_pilot_GIST_update_2,2026.1.1,Win32,60.24096386,65fadd16dd68b34863129702,69b95efdef24cd8a694e89ee,69b960141fa5510b539f03b4,0.0558,0.0558,0,154,154,3,1,twofour,,,,,,,,,,,,,,,,,,,,,,,,,,,,,,,,,,,,,,,,,,,,,,,,,,,,,,,,,,,,,,,,,,,,,,,,,,,,,,,,,,,,,,,,,,,,,,,,,,,,,,,,,,,,,,,,,,,,,,,,,,,,,,,,,,,,,,,,,
,,65fadd16dd68b34863129702,2026-03-17_17h08.44.826,kallum_motion_pilot_GIST_update_2,2026.1.1,Win32,60.24096386,65fadd16dd68b34863129702,69b95efdef24cd8a694e89ee,69b960141fa5510b539f03b4,0.056,0.056,0,155,155,27,1,twofour,,,,,,,,,,,,,,,,,,,,,,,,,,,,,,,,,,,,,,,,,,,,,,,,,,,,,,,,,,,,,,,,,,,,,,,,,,,,,,,,,,,,,,,,,,,,,,,,,,,,,,,,,,,,,,,,,,,,,,,,,,,,,,,,,,,,,,,,,
,,65fadd16dd68b34863129702,2026-03-17_17h08.44.826,kallum_motion_pilot_GIST_update_2,2026.1.1,Win32,60.24096386,65fadd16dd68b34863129702,69b95efdef24cd8a694e89ee,69b960141fa5510b539f03b4,0.0562,0.0562,0,156,156,153,1,fiveseven,,,,,,,,,,,,,,,,,,,,,,,,,,,,,,,,,,,,,,,,,,,,,,,,,,,,,,,,,,,,,,,,,,,,,,,,,,,,,,,,,,,,,,,,,,,,,,,,,,,,,,,,,,,,,,,,,,,,,,,,,,,,,,,,,,,,,,,,,
,,65fadd16dd68b34863129702,2026-03-17_17h08.44.826,kallum_motion_pilot_GIST_update_2,2026.1.1,Win32,60.24096386,65fadd16dd68b34863129702,69b95efdef24cd8a694e89ee,69b960141fa5510b539f03b4,0.0564,0.0564,0,157,157,49,1,onethree,,,,,,,,,,,,,,,,,,,,,,,,,,,,,,,,,,,,,,,,,,,,,,,,,,,,,,,,,,,,,,,,,,,,,,,,,,,,,,,,,,,,,,,,,,,,,,,,,,,,,,,,,,,,,,,,,,,,,,,,,,,,,,,,,,,,,,,,,
,,65fadd16dd68b34863129702,2026-03-17_17h08.44.826,kallum_motion_pilot_GIST_update_2,2026.1.1,Win32,60.24096386,65fadd16dd68b34863129702,69b95efdef24cd8a694e89ee,69b960141fa5510b539f03b4,0.0566,0.0566,0,158,158,66,1,twoone,,,,,,,,,,,,,,,,,,,,,,,,,,,,,,,,,,,,,,,,,,,,,,,,,,,,,,,,,,,,,,,,,,,,,,,,,,,,,,,,,,,,,,,,,,,,,,,,,,,,,,,,,,,,,,,,,,,,,,,,,,,,,,,,,,,,,,,,,
,,65fadd16dd68b34863129702,2026-03-17_17h08.44.826,kallum_motion_pilot_GIST_update_2,2026.1.1,Win32,60.24096386,65fadd16dd68b34863129702,69b95efdef24cd8a694e89ee,69b960141fa5510b539f03b4,0.0568,0.0568,0,159,159,129,1,fiveseven,,,,,,,,,,,,,,,,,,,,,,,,,,,,,,,,,,,,,,,,,,,,,,,,,,,,,,,,,,,,,,,,,,,,,,,,,,,,,,,,,,,,,,,,,,,,,,,,,,,,,,,,,,,,,,,,,,,,,,,,,,,,,,,,,,,,,,,,,
,,65fadd16dd68b34863129702,2026-03-17_17h08.44.826,kallum_motion_pilot_GIST_update_2,2026.1.1,Win32,60.24096386,65fadd16dd68b34863129702,69b95efdef24cd8a694e89ee,69b960141fa5510b539f03b4,0.057,0.057,0,160,160,139,1,sixeight,,,,,,,,,,,,,,,,,,,,,,,,,,,,,,,,,,,,,,,,,,,,,,,,,,,,,,,,,,,,,,,,,,,,,,,,,,,,,,,,,,,,,,,,,,,,,,,,,,,,,,,,,,,,,,,,,,,,,,,,,,,,,,,,,,,,,,,,,
,,65fadd16dd68b34863129702,2026-03-17_17h08.44.826,kallum_motion_pilot_GIST_update_2,2026.1.1,Win32,60.24096386,65fadd16dd68b34863129702,69b95efdef24cd8a694e89ee,69b960141fa5510b539f03b4,0.0573,0.0573,0,161,161,1,1,onethree,,,,,,,,,,,,,,,,,,,,,,,,,,,,,,,,,,,,,,,,,,,,,,,,,,,,,,,,,,,,,,,,,,,,,,,,,,,,,,,,,,,,,,,,,,,,,,,,,,,,,,,,,,,,,,,,,,,,,,,,,,,,,,,,,,,,,,,,,
,,65fadd16dd68b34863129702,2026-03-17_17h08.44.826,kallum_motion_pilot_GIST_update_2,2026.1.1,Win32,60.24096386,65fadd16dd68b34863129702,69b95efdef24cd8a694e89ee,69b960141fa5510b539f03b4,0.0575,0.0575,1,0,162,152,1,fivesix,,,,,,,,,,,,,,,,,,,,,,,,,,,,,,,,,,,,,,,,,,,,,,,,,,,,,,,,,,,,,,,,,,,,,,,,,,,,,,,,,,,,,,,,,,,,,,,,,,,,,,,,,,,,,,,,,,,,,,,,,,,,,,,,,,,,,,,,,
,,65fadd16dd68b34863129702,2026-03-17_17h08.44.826,kallum_motion_pilot_GIST_update_2,2026.1.1,Win32,60.24096386,65fadd16dd68b34863129702,69b95efdef24cd8a694e89ee,69b960141fa5510b539f03b4,0.0578,0.0578,1,1,163,150,1,eightsix,,,,,,,,,,,,,,,,,,,,,,,,,,,,,,,,,,,,,,,,,,,,,,,,,,,,,,,,,,,,,,,,,,,,,,,,,,,,,,,,,,,,,,,,,,,,,,,,,,,,,,,,,,,,,,,,,,,,,,,,,,,,,,,,,,,,,,,,,
,,65fadd16dd68b34863129702,2026-03-17_17h08.44.826,kallum_motion_pilot_GIST_update_2,2026.1.1,Win32,60.24096386,65fadd16dd68b34863129702,69b95efdef24cd8a694e89ee,69b960141fa5510b539f03b4,0.058,0.058,1,2,164,63,1,fourthree,,,,,,,,,,,,,,,,,,,,,,,,,,,,,,,,,,,,,,,,,,,,,,,,,,,,,,,,,,,,,,,,,,,,,,,,,,,,,,,,,,,,,,,,,,,,,,,,,,,,,,,,,,,,,,,,,,,,,,,,,,,,,,,,,,,,,,,,,
,,65fadd16dd68b34863129702,2026-03-17_17h08.44.826,kallum_motion_pilot_GIST_update_2,2026.1.1,Win32,60.24096386,65fadd16dd68b34863129702,69b95efdef24cd8a694e89ee,69b960141fa5510b539f03b4,0.0582,0.0582,1,3,165,145,1,fiveseven,,,,,,,,,,,,,,,,,,,,,,,,,,,,,,,,,,,,,,,,,,,,,,,,,,,,,,,,,,,,,,,,,,,,,,,,,,,,,,,,,,,,,,,,,,,,,,,,,,,,,,,,,,,,,,,,,,,,,,,,,,,,,,,,,,,,,,,,,
,,65fadd16dd68b34863129702,2026-03-17_17h08.44.826,kallum_motion_pilot_GIST_update_2,2026.1.1,Win32,60.24096386,65fadd16dd68b34863129702,69b95efdef24cd8a694e89ee,69b960141fa5510b539f03b4,0.0583,0.0583,1,4,166,78,1,fourtwo,,,,,,,,,,,,,,,,,,,,,,,,,,,,,,,,,,,,,,,,,,,,,,,,,,,,,,,,,,,,,,,,,,,,,,,,,,,,,,,,,,,,,,,,,,,,,,,,,,,,,,,,,,,,,,,,,,,,,,,,,,,,,,,,,,,,,,,,,
,,65fadd16dd68b34863129702,2026-03-17_17h08.44.826,kallum_motion_pilot_GIST_update_2,2026.1.1,Win32,60.24096386,65fadd16dd68b34863129702,69b95efdef24cd8a694e89ee,69b960141fa5510b539f03b4,0.0586,0.0586,1,5,167,131,1,sixeight,,,,,,,,,,,,,,,,,,,,,,,,,,,,,,,,,,,,,,,,,,,,,,,,,,,,,,,,,,,,,,,,,,,,,,,,,,,,,,,,,,,,,,,,,,,,,,,,,,,,,,,,,,,,,,,,,,,,,,,,,,,,,,,,,,,,,,,,,
,,65fadd16dd68b34863129702,2026-03-17_17h08.44.826,kallum_motion_pilot_GIST_update_2,2026.1.1,Win32,60.24096386,65fadd16dd68b34863129702,69b95efdef24cd8a694e89ee,69b960141fa5510b539f03b4,0.0588,0.0588,1,6,168,110,1,eightsix,,,,,,,,,,,,,,,,,,,,,,,,,,,,,,,,,,,,,,,,,,,,,,,,,,,,,,,,,,,,,,,,,,,,,,,,,,,,,,,,,,,,,,,,,,,,,,,,,,,,,,,,,,,,,,,,,,,,,,,,,,,,,,,,,,,,,,,,,
,,65fadd16dd68b34863129702,2026-03-17_17h08.44.826,kallum_motion_pilot_GIST_update_2,2026.1.1,Win32,60.24096386,65fadd16dd68b34863129702,69b95efdef24cd8a694e89ee,69b960141fa5510b539f03b4,0.059,0.059,1,7,169,59,1,twofour,,,,,,,,,,,,,,,,,,,,,,,,,,,,,,,,,,,,,,,,,,,,,,,,,,,,,,,,,,,,,,,,,,,,,,,,,,,,,,,,,,,,,,,,,,,,,,,,,,,,,,,,,,,,,,,,,,,,,,,,,,,,,,,,,,,,,,,,,
,,65fadd16dd68b34863129702,2026-03-17_17h08.44.826,kallum_motion_pilot_GIST_update_2,2026.1.1,Win32,60.24096386,65fadd16dd68b34863129702,69b95efdef24cd8a694e89ee,69b960141fa5510b539f03b4,0.0592,0.0592,1,8,170,80,1,fivesix,,,,,,,,,,,,,,,,,,,,,,,,,,,,,,,,,,,,,,,,,,,,,,,,,,,,,,,,,,,,,,,,,,,,,,,,,,,,,,,,,,,,,,,,,,,,,,,,,,,,,,,,,,,,,,,,,,,,,,,,,,,,,,,,,,,,,,,,,
,,65fadd16dd68b34863129702,2026-03-17_17h08.44.826,kallum_motion_pilot_GIST_update_2,2026.1.1,Win32,60.24096386,65fadd16dd68b34863129702,69b95efdef24cd8a694e89ee,69b960141fa5510b539f03b4,0.0593,0.0594,1,9,171,62,1,fourtwo,,,,,,,,,,,,,,,,,,,,,,,,,,,,,,,,,,,,,,,,,,,,,,,,,,,,,,,,,,,,,,,,,,,,,,,,,,,,,,,,,,,,,,,,,,,,,,,,,,,,,,,,,,,,,,,,,,,,,,,,,,,,,,,,,,,,,,,,,
,,65fadd16dd68b34863129702,2026-03-17_17h08.44.826,kallum_motion_pilot_GIST_update_2,2026.1.1,Win32,60.24096386,65fadd16dd68b34863129702,69b95efdef24cd8a694e89ee,69b960141fa5510b539f03b4,0.0596,0.0596,1,10,172,99,1,sixeight,,,,,,,,,,,,,,,,,,,,,,,,,,,,,,,,,,,,,,,,,,,,,,,,,,,,,,,,,,,,,,,,,,,,,,,,,,,,,,,,,,,,,,,,,,,,,,,,,,,,,,,,,,,,,,,,,,,,,,,,,,,,,,,,,,,,,,,,,
,,65fadd16dd68b34863129702,2026-03-17_17h08.44.826,kallum_motion_pilot_GIST_update_2,2026.1.1,Win32,60.24096386,65fadd16dd68b34863129702,69b95efdef24cd8a694e89ee,69b960141fa5510b539f03b4,0.0598,0.0598,1,11,173,28,1,threeone,,,,,,,,,,,,,,,,,,,,,,,,,,,,,,,,,,,,,,,,,,,,,,,,,,,,,,,,,,,,,,,,,,,,,,,,,,,,,,,,,,,,,,,,,,,,,,,,,,,,,,,,,,,,,,,,,,,,,,,,,,,,,,,,,,,,,,,,,
,,65fadd16dd68b34863129702,2026-03-17_17h08.44.826,kallum_motion_pilot_GIST_update_2,2026.1.1,Win32,60.24096386,65fadd16dd68b34863129702,69b95efdef24cd8a694e89ee,69b960141fa5510b539f03b4,0.06,0.06,1,12,174,73,1,onethree,,,,,,,,,,,,,,,,,,,,,,,,,,,,,,,,,,,,,,,,,,,,,,,,,,,,,,,,,,,,,,,,,,,,,,,,,,,,,,,,,,,,,,,,,,,,,,,,,,,,,,,,,,,,,,,,,,,,,,,,,,,,,,,,,,,,,,,,,
,,65fadd16dd68b34863129702,2026-03-17_17h08.44.826,kallum_motion_pilot_GIST_update_2,2026.1.1,Win32,60.24096386,65fadd16dd68b34863129702,69b95efdef24cd8a694e89ee,69b960141fa5510b539f03b4,0.0601,0.0601,1,13,175,39,1,fourthree,,,,,,,,,,,,,,,,,,,,,,,,,,,,,,,,,,,,,,,,,,,,,,,,,,,,,,,,,,,,,,,,,,,,,,,,,,,,,,,,,,,,,,,,,,,,,,,,,,,,,,,,,,,,,,,,,,,,,,,,,,,,,,,,,,,,,,,,,
,,65fadd16dd68b34863129702,2026-03-17_17h08.44.826,kallum_motion_pilot_GIST_update_2,2026.1.1,Win32,60.24096386,65fadd16dd68b34863129702,69b95efdef24cd8a694e89ee,69b960141fa5510b539f03b4,0.0604,0.0604,1,14,176,0,1,onetwo,,,,,,,,,,,,,,,,,,,,,,,,,,,,,,,,,,,,,,,,,,,,,,,,,,,,,,,,,,,,,,,,,,,,,,,,,,,,,,,,,,,,,,,,,,,,,,,,,,,,,,,,,,,,,,,,,,,,,,,,,,,,,,,,,,,,,,,,,
,,65fadd16dd68b34863129702,2026-03-17_17h08.44.826,kallum_motion_pilot_GIST_update_2,2026.1.1,Win32,60.24096386,65fadd16dd68b34863129702,69b95efdef24cd8a694e89ee,69b960141fa5510b539f03b4,0.0606,0.0606,1,15,177,114,1,sixfive,,,,,,,,,,,,,,,,,,,,,,,,,,,,,,,,,,,,,,,,,,,,,,,,,,,,,,,,,,,,,,,,,,,,,,,,,,,,,,,,,,,,,,,,,,,,,,,,,,,,,,,,,,,,,,,,,,,,,,,,,,,,,,,,,,,,,,,,,
,,65fadd16dd68b34863129702,2026-03-17_17h08.44.826,kallum_motion_pilot_GIST_update_2,2026.1.1,Win32,60.24096386,65fadd16dd68b34863129702,69b95efdef24cd8a694e89ee,69b960141fa5510b539f03b4,0.0608,0.0608,1,16,178,40,1,onetwo,,,,,,,,,,,,,,,,,,,,,,,,,,,,,,,,,,,,,,,,,,,,,,,,,,,,,,,,,,,,,,,,,,,,,,,,,,,,,,,,,,,,,,,,,,,,,,,,,,,,,,,,,,,,,,,,,,,,,,,,,,,,,,,,,,,,,,,,,
,,65fadd16dd68b34863129702,2026-03-17_17h08.44.826,kallum_motion_pilot_GIST_update_2,2026.1.1,Win32,60.24096386,65fadd16dd68b34863129702,69b95efdef24cd8a694e89ee,69b960141fa5510b539f03b4,0.061,0.061,1,17,179,143,1,eightseven,,,,,,,,,,,,,,,,,,,,,,,,,,,,,,,,,,,,,,,,,,,,,,,,,,,,,,,,,,,,,,,,,,,,,,,,,,,,,,,,,,,,,,,,,,,,,,,,,,,,,,,,,,,,,,,,,,,,,,,,,,,,,,,,,,,,,,,,,
,,65fadd16dd68b34863129702,2026-03-17_17h08.44.826,kallum_motion_pilot_GIST_update_2,2026.1.1,Win32,60.24096386,65fadd16dd68b34863129702,69b95efdef24cd8a694e89ee,69b960141fa5510b539f03b4,0.0611,0.0611,1,18,180,7,1,fourthree,,,,,,,,,,,,,,,,,,,,,,,,,,,,,,,,,,,,,,,,,,,,,,,,,,,,,,,,,,,,,,,,,,,,,,,,,,,,,,,,,,,,,,,,,,,,,,,,,,,,,,,,,,,,,,,,,,,,,,,,,,,,,,,,,,,,,,,,,
,,65fadd16dd68b34863129702,2026-03-17_17h08.44.826,kallum_motion_pilot_GIST_update_2,2026.1.1,Win32,60.24096386,65fadd16dd68b34863129702,69b95efdef24cd8a694e89ee,69b960141fa5510b539f03b4,0.0613,0.0613,1,19,181,8,1,onetwo,,,,,,,,,,,,,,,,,,,,,,,,,,,,,,,,,,,,,,,,,,,,,,,,,,,,,,,,,,,,,,,,,,,,,,,,,,,,,,,,,,,,,,,,,,,,,,,,,,,,,,,,,,,,,,,,,,,,,,,,,,,,,,,,,,,,,,,,,
,,65fadd16dd68b34863129702,2026-03-17_17h08.44.826,kallum_motion_pilot_GIST_update_2,2026.1.1,Win32,60.24096386,65fadd16dd68b34863129702,69b95efdef24cd8a694e89ee,69b960141fa5510b539f03b4,0.0615,0.0615,1,20,182,42,1,twoone,,,,,,,,,,,,,,,,,,,,,,,,,,,,,,,,,,,,,,,,,,,,,,,,,,,,,,,,,,,,,,,,,,,,,,,,,,,,,,,,,,,,,,,,,,,,,,,,,,,,,,,,,,,,,,,,,,,,,,,,,,,,,,,,,,,,,,,,,
,,65fadd16dd68b34863129702,2026-03-17_17h08.44.826,kallum_motion_pilot_GIST_update_2,2026.1.1,Win32,60.24096386,65fadd16dd68b34863129702,69b95efdef24cd8a694e89ee,69b960141fa5510b539f03b4,0.0616,0.0616,1,21,183,154,1,sixfive,,,,,,,,,,,,,,,,,,,,,,,,,,,,,,,,,,,,,,,,,,,,,,,,,,,,,,,,,,,,,,,,,,,,,,,,,,,,,,,,,,,,,,,,,,,,,,,,,,,,,,,,,,,,,,,,,,,,,,,,,,,,,,,,,,,,,,,,,
,,65fadd16dd68b34863129702,2026-03-17_17h08.44.826,kallum_motion_pilot_GIST_update_2,2026.1.1,Win32,60.24096386,65fadd16dd68b34863129702,69b95efdef24cd8a694e89ee,69b960141fa5510b539f03b4,0.0617,0.0617,1,22,184,9,1,onethree,,,,,,,,,,,,,,,,,,,,,,,,,,,,,,,,,,,,,,,,,,,,,,,,,,,,,,,,,,,,,,,,,,,,,,,,,,,,,,,,,,,,,,,,,,,,,,,,,,,,,,,,,,,,,,,,,,,,,,,,,,,,,,,,,,,,,,,,,
,,65fadd16dd68b34863129702,2026-03-17_17h08.44.826,kallum_motion_pilot_GIST_update_2,2026.1.1,Win32,60.24096386,65fadd16dd68b34863129702,69b95efdef24cd8a694e89ee,69b960141fa5510b539f03b4,0.0619,0.0619,1,23,185,119,1,eightseven,,,,,,,,,,,,,,,,,,,,,,,,,,,,,,,,,,,,,,,,,,,,,,,,,,,,,,,,,,,,,,,,,,,,,,,,,,,,,,,,,,,,,,,,,,,,,,,,,,,,,,,,,,,,,,,,,,,,,,,,,,,,,,,,,,,,,,,,,
,,65fadd16dd68b34863129702,2026-03-17_17h08.44.826,kallum_motion_pilot_GIST_update_2,2026.1.1,Win32,60.24096386,65fadd16dd68b34863129702,69b95efdef24cd8a694e89ee,69b960141fa5510b539f03b4,0.062,0.062,1,24,186,12,1,threeone,,,,,,,,,,,,,,,,,,,,,,,,,,,,,,,,,,,,,,,,,,,,,,,,,,,,,,,,,,,,,,,,,,,,,,,,,,,,,,,,,,,,,,,,,,,,,,,,,,,,,,,,,,,,,,,,,,,,,,,,,,,,,,,,,,,,,,,,,
,,65fadd16dd68b34863129702,2026-03-17_17h08.44.826,kallum_motion_pilot_GIST_update_2,2026.1.1,Win32,60.24096386,65fadd16dd68b34863129702,69b95efdef24cd8a694e89ee,69b960141fa5510b539f03b4,0.0623,0.0623,1,25,187,139,1,sixeight,,,,,,,,,,,,,,,,,,,,,,,,,,,,,,,,,,,,,,,,,,,,,,,,,,,,,,,,,,,,,,,,,,,,,,,,,,,,,,,,,,,,,,,,,,,,,,,,,,,,,,,,,,,,,,,,,,,,,,,,,,,,,,,,,,,,,,,,,
,,65fadd16dd68b34863129702,2026-03-17_17h08.44.826,kallum_motion_pilot_GIST_update_2,2026.1.1,Win32,60.24096386,65fadd16dd68b34863129702,69b95efdef24cd8a694e89ee,69b960141fa5510b539f03b4,0.0626,0.0626,1,26,188,30,1,fourtwo,,,,,,,,,,,,,,,,,,,,,,,,,,,,,,,,,,,,,,,,,,,,,,,,,,,,,,,,,,,,,,,,,,,,,,,,,,,,,,,,,,,,,,,,,,,,,,,,,,,,,,,,,,,,,,,,,,,,,,,,,,,,,,,,,,,,,,,,,
,,65fadd16dd68b34863129702,2026-03-17_17h08.44.826,kallum_motion_pilot_GIST_update_2,2026.1.1,Win32,60.24096386,65fadd16dd68b34863129702,69b95efdef24cd8a694e89ee,69b960141fa5510b539f03b4,0.0628,0.0628,1,27,189,68,1,threeone,,,,,,,,,,,,,,,,,,,,,,,,,,,,,,,,,,,,,,,,,,,,,,,,,,,,,,,,,,,,,,,,,,,,,,,,,,,,,,,,,,,,,,,,,,,,,,,,,,,,,,,,,,,,,,,,,,,,,,,,,,,,,,,,,,,,,,,,,
,,65fadd16dd68b34863129702,2026-03-17_17h08.44.826,kallum_motion_pilot_GIST_update_2,2026.1.1,Win32,60.24096386,65fadd16dd68b34863129702,69b95efdef24cd8a694e89ee,69b960141fa5510b539f03b4,0.063,0.0631,1,28,190,127,1,eightseven,,,,,,,,,,,,,,,,,,,,,,,,,,,,,,,,,,,,,,,,,,,,,,,,,,,,,,,,,,,,,,,,,,,,,,,,,,,,,,,,,,,,,,,,,,,,,,,,,,,,,,,,,,,,,,,,,,,,,,,,,,,,,,,,,,,,,,,,,
,,65fadd16dd68b34863129702,2026-03-17_17h08.44.826,kallum_motion_pilot_GIST_update_2,2026.1.1,Win32,60.24096386,65fadd16dd68b34863129702,69b95efdef24cd8a694e89ee,69b960141fa5510b539f03b4,0.0632,0.0632,1,29,191,25,1,onethree,,,,,,,,,,,,,,,,,,,,,,,,,,,,,,,,,,,,,,,,,,,,,,,,,,,,,,,,,,,,,,,,,,,,,,,,,,,,,,,,,,,,,,,,,,,,,,,,,,,,,,,,,,,,,,,,,,,,,,,,,,,,,,,,,,,,,,,,,
,,65fadd16dd68b34863129702,2026-03-17_17h08.44.826,kallum_motion_pilot_GIST_update_2,2026.1.1,Win32,60.24096386,65fadd16dd68b34863129702,69b95efdef24cd8a694e89ee,69b960141fa5510b539f03b4,0.0635,0.0635,1,30,192,157,1,seveneight,,,,,,,,,,,,,,,,,,,,,,,,,,,,,,,,,,,,,,,,,,,,,,,,,,,,,,,,,,,,,,,,,,,,,,,,,,,,,,,,,,,,,,,,,,,,,,,,,,,,,,,,,,,,,,,,,,,,,,,,,,,,,,,,,,,,,,,,,
,,65fadd16dd68b34863129702,2026-03-17_17h08.44.826,kallum_motion_pilot_GIST_update_2,2026.1.1,Win32,60.24096386,65fadd16dd68b34863129702,69b95efdef24cd8a694e89ee,69b960141fa5510b539f03b4,0.0652,0.0652,1,31,193,32,1,onetwo,,,,,,,,,,,,,,,,,,,,,,,,,,,,,,,,,,,,,,,,,,,,,,,,,,,,,,,,,,,,,,,,,,,,,,,,,,,,,,,,,,,,,,,,,,,,,,,,,,,,,,,,,,,,,,,,,,,,,,,,,,,,,,,,,,,,,,,,,
,,65fadd16dd68b34863129702,2026-03-17_17h08.44.826,kallum_motion_pilot_GIST_update_2,2026.1.1,Win32,60.24096386,65fadd16dd68b34863129702,69b95efdef24cd8a694e89ee,69b960141fa5510b539f03b4,0.0654,0.0654,1,32,194,137,1,fiveseven,,,,,,,,,,,,,,,,,,,,,,,,,,,,,,,,,,,,,,,,,,,,,,,,,,,,,,,,,,,,,,,,,,,,,,,,,,,,,,,,,,,,,,,,,,,,,,,,,,,,,,,,,,,,,,,,,,,,,,,,,,,,,,,,,,,,,,,,,
,,65fadd16dd68b34863129702,2026-03-17_17h08.44.826,kallum_motion_pilot_GIST_update_2,2026.1.1,Win32,60.24096386,65fadd16dd68b34863129702,69b95efdef24cd8a694e89ee,69b960141fa5510b539f03b4,0.0657,0.0657,1,33,195,6,1,fourtwo,,,,,,,,,,,,,,,,,,,,,,,,,,,,,,,,,,,,,,,,,,,,,,,,,,,,,,,,,,,,,,,,,,,,,,,,,,,,,,,,,,,,,,,,,,,,,,,,,,,,,,,,,,,,,,,,,,,,,,,,,,,,,,,,,,,,,,,,,
,,65fadd16dd68b34863129702,2026-03-17_17h08.44.826,kallum_motion_pilot_GIST_update_2,2026.1.1,Win32,60.24096386,65fadd16dd68b34863129702,69b95efdef24cd8a694e89ee,69b960141fa5510b539f03b4,0.0659,0.0659,1,34,196,138,1,sixfive,,,,,,,,,,,,,,,,,,,,,,,,,,,,,,,,,,,,,,,,,,,,,,,,,,,,,,,,,,,,,,,,,,,,,,,,,,,,,,,,,,,,,,,,,,,,,,,,,,,,,,,,,,,,,,,,,,,,,,,,,,,,,,,,,,,,,,,,,
,,65fadd16dd68b34863129702,2026-03-17_17h08.44.826,kallum_motion_pilot_GIST_update_2,2026.1.1,Win32,60.24096386,65fadd16dd68b34863129702,69b95efdef24cd8a694e89ee,69b960141fa5510b539f03b4,0.0661,0.0662,1,35,197,58,1,twoone,,,,,,,,,,,,,,,,,,,,,,,,,,,,,,,,,,,,,,,,,,,,,,,,,,,,,,,,,,,,,,,,,,,,,,,,,,,,,,,,,,,,,,,,,,,,,,,,,,,,,,,,,,,,,,,,,,,,,,,,,,,,,,,,,,,,,,,,,
,,65fadd16dd68b34863129702,2026-03-17_17h08.44.826,kallum_motion_pilot_GIST_update_2,2026.1.1,Win32,60.24096386,65fadd16dd68b34863129702,69b95efdef24cd8a694e89ee,69b960141fa5510b539f03b4,0.0664,0.0664,1,36,198,128,1,fivesix,,,,,,,,,,,,,,,,,,,,,,,,,,,,,,,,,,,,,,,,,,,,,,,,,,,,,,,,,,,,,,,,,,,,,,,,,,,,,,,,,,,,,,,,,,,,,,,,,,,,,,,,,,,,,,,,,,,,,,,,,,,,,,,,,,,,,,,,,
,,65fadd16dd68b34863129702,2026-03-17_17h08.44.826,kallum_motion_pilot_GIST_update_2,2026.1.1,Win32,60.24096386,65fadd16dd68b34863129702,69b95efdef24cd8a694e89ee,69b960141fa5510b539f03b4,0.0665,0.0665,1,37,199,20,1,threeone,,,,,,,,,,,,,,,,,,,,,,,,,,,,,,,,,,,,,,,,,,,,,,,,,,,,,,,,,,,,,,,,,,,,,,,,,,,,,,,,,,,,,,,,,,,,,,,,,,,,,,,,,,,,,,,,,,,,,,,,,,,,,,,,,,,,,,,,,
,,65fadd16dd68b34863129702,2026-03-17_17h08.44.826,kallum_motion_pilot_GIST_update_2,2026.1.1,Win32,60.24096386,65fadd16dd68b34863129702,69b95efdef24cd8a694e89ee,69b960141fa5510b539f03b4,0.0667,0.0667,1,38,200,106,1,sixfive,,,,,,,,,,,,,,,,,,,,,,,,,,,,,,,,,,,,,,,,,,,,,,,,,,,,,,,,,,,,,,,,,,,,,,,,,,,,,,,,,,,,,,,,,,,,,,,,,,,,,,,,,,,,,,,,,,,,,,,,,,,,,,,,,,,,,,,,,
,,65fadd16dd68b34863129702,2026-03-17_17h08.44.826,kallum_motion_pilot_GIST_update_2,2026.1.1,Win32,60.24096386,65fadd16dd68b34863129702,69b95efdef24cd8a694e89ee,69b960141fa5510b539f03b4,0.0669,0.0669,1,39,201,56,1,onetwo,,,,,,,,,,,,,,,,,,,,,,,,,,,,,,,,,,,,,,,,,,,,,,,,,,,,,,,,,,,,,,,,,,,,,,,,,,,,,,,,,,,,,,,,,,,,,,,,,,,,,,,,,,,,,,,,,,,,,,,,,,,,,,,,,,,,,,,,,
,,65fadd16dd68b34863129702,2026-03-17_17h08.44.826,kallum_motion_pilot_GIST_update_2,2026.1.1,Win32,60.24096386,65fadd16dd68b34863129702,69b95efdef24cd8a694e89ee,69b960141fa5510b539f03b4,0.067,0.0671,1,40,202,98,1,sixfive,,,,,,,,,,,,,,,,,,,,,,,,,,,,,,,,,,,,,,,,,,,,,,,,,,,,,,,,,,,,,,,,,,,,,,,,,,,,,,,,,,,,,,,,,,,,,,,,,,,,,,,,,,,,,,,,,,,,,,,,,,,,,,,,,,,,,,,,,
,,65fadd16dd68b34863129702,2026-03-17_17h08.44.826,kallum_motion_pilot_GIST_update_2,2026.1.1,Win32,60.24096386,65fadd16dd68b34863129702,69b95efdef24cd8a694e89ee,69b960141fa5510b539f03b4,0.0672,0.0672,1,41,203,95,1,eightseven,,,,,,,,,,,,,,,,,,,,,,,,,,,,,,,,,,,,,,,,,,,,,,,,,,,,,,,,,,,,,,,,,,,,,,,,,,,,,,,,,,,,,,,,,,,,,,,,,,,,,,,,,,,,,,,,,,,,,,,,,,,,,,,,,,,,,,,,,
,,65fadd16dd68b34863129702,2026-03-17_17h08.44.826,kallum_motion_pilot_GIST_update_2,2026.1.1,Win32,60.24096386,65fadd16dd68b34863129702,69b95efdef24cd8a694e89ee,69b960141fa5510b539f03b4,0.0675,0.0675,1,42,204,47,1,fourthree,,,,,,,,,,,,,,,,,,,,,,,,,,,,,,,,,,,,,,,,,,,,,,,,,,,,,,,,,,,,,,,,,,,,,,,,,,,,,,,,,,,,,,,,,,,,,,,,,,,,,,,,,,,,,,,,,,,,,,,,,,,,,,,,,,,,,,,,,
,,65fadd16dd68b34863129702,2026-03-17_17h08.44.826,kallum_motion_pilot_GIST_update_2,2026.1.1,Win32,60.24096386,65fadd16dd68b34863129702,69b95efdef24cd8a694e89ee,69b960141fa5510b539f03b4,0.0677,0.0677,1,43,205,75,1,twofour,,,,,,,,,,,,,,,,,,,,,,,,,,,,,,,,,,,,,,,,,,,,,,,,,,,,,,,,,,,,,,,,,,,,,,,,,,,,,,,,,,,,,,,,,,,,,,,,,,,,,,,,,,,,,,,,,,,,,,,,,,,,,,,,,,,,,,,,,
,,65fadd16dd68b34863129702,2026-03-17_17h08.44.826,kallum_motion_pilot_GIST_update_2,2026.1.1,Win32,60.24096386,65fadd16dd68b34863129702,69b95efdef24cd8a694e89ee,69b960141fa5510b539f03b4,0.0679,0.0679,1,44,206,41,1,onethree,,,,,,,,,,,,,,,,,,,,,,,,,,,,,,,,,,,,,,,,,,,,,,,,,,,,,,,,,,,,,,,,,,,,,,,,,,,,,,,,,,,,,,,,,,,,,,,,,,,,,,,,,,,,,,,,,,,,,,,,,,,,,,,,,,,,,,,,,
,,65fadd16dd68b34863129702,2026-03-17_17h08.44.826,kallum_motion_pilot_GIST_update_2,2026.1.1,Win32,60.24096386,65fadd16dd68b34863129702,69b95efdef24cd8a694e89ee,69b960141fa5510b539f03b4,0.0681,0.0681,1,45,207,51,1,twofour,,,,,,,,,,,,,,,,,,,,,,,,,,,,,,,,,,,,,,,,,,,,,,,,,,,,,,,,,,,,,,,,,,,,,,,,,,,,,,,,,,,,,,,,,,,,,,,,,,,,,,,,,,,,,,,,,,,,,,,,,,,,,,,,,,,,,,,,,
,,65fadd16dd68b34863129702,2026-03-17_17h08.44.826,kallum_motion_pilot_GIST_update_2,2026.1.1,Win32,60.24096386,65fadd16dd68b34863129702,69b95efdef24cd8a694e89ee,69b960141fa5510b539f03b4,0.0682,0.0682,1,46,208,10,1,twoone,,,,,,,,,,,,,,,,,,,,,,,,,,,,,,,,,,,,,,,,,,,,,,,,,,,,,,,,,,,,,,,,,,,,,,,,,,,,,,,,,,,,,,,,,,,,,,,,,,,,,,,,,,,,,,,,,,,,,,,,,,,,,,,,,,,,,,,,,
,,65fadd16dd68b34863129702,2026-03-17_17h08.44.826,kallum_motion_pilot_GIST_update_2,2026.1.1,Win32,60.24096386,65fadd16dd68b34863129702,69b95efdef24cd8a694e89ee,69b960141fa5510b539f03b4,0.0683,0.0684,1,47,209,126,1,eightsix,,,,,,,,,,,,,,,,,,,,,,,,,,,,,,,,,,,,,,,,,,,,,,,,,,,,,,,,,,,,,,,,,,,,,,,,,,,,,,,,,,,,,,,,,,,,,,,,,,,,,,,,,,,,,,,,,,,,,,,,,,,,,,,,,,,,,,,,,
,,65fadd16dd68b34863129702,2026-03-17_17h08.44.826,kallum_motion_pilot_GIST_update_2,2026.1.1,Win32,60.24096386,65fadd16dd68b34863129702,69b95efdef24cd8a694e89ee,69b960141fa5510b539f03b4,0.0686,0.0686,1,48,210,107,1,sixeight,,,,,,,,,,,,,,,,,,,,,,,,,,,,,,,,,,,,,,,,,,,,,,,,,,,,,,,,,,,,,,,,,,,,,,,,,,,,,,,,,,,,,,,,,,,,,,,,,,,,,,,,,,,,,,,,,,,,,,,,,,,,,,,,,,,,,,,,,
,,65fadd16dd68b34863129702,2026-03-17_17h08.44.826,kallum_motion_pilot_GIST_update_2,2026.1.1,Win32,60.24096386,65fadd16dd68b34863129702,69b95efdef24cd8a694e89ee,69b960141fa5510b539f03b4,0.0689,0.0689,1,49,211,132,1,sevenfive,,,,,,,,,,,,,,,,,,,,,,,,,,,,,,,,,,,,,,,,,,,,,,,,,,,,,,,,,,,,,,,,,,,,,,,,,,,,,,,,,,,,,,,,,,,,,,,,,,,,,,,,,,,,,,,,,,,,,,,,,,,,,,,,,,,,,,,,,
,,65fadd16dd68b34863129702,2026-03-17_17h08.44.826,kallum_motion_pilot_GIST_update_2,2026.1.1,Win32,60.24096386,65fadd16dd68b34863129702,69b95efdef24cd8a694e89ee,69b960141fa5510b539f03b4,0.069,0.069,1,50,212,65,1,onethree,,,,,,,,,,,,,,,,,,,,,,,,,,,,,,,,,,,,,,,,,,,,,,,,,,,,,,,,,,,,,,,,,,,,,,,,,,,,,,,,,,,,,,,,,,,,,,,,,,,,,,,,,,,,,,,,,,,,,,,,,,,,,,,,,,,,,,,,,
,,65fadd16dd68b34863129702,2026-03-17_17h08.44.826,kallum_motion_pilot_GIST_update_2,2026.1.1,Win32,60.24096386,65fadd16dd68b34863129702,69b95efdef24cd8a694e89ee,69b960141fa5510b539f03b4,0.0692,0.0692,1,51,213,94,1,eightsix,,,,,,,,,,,,,,,,,,,,,,,,,,,,,,,,,,,,,,,,,,,,,,,,,,,,,,,,,,,,,,,,,,,,,,,,,,,,,,,,,,,,,,,,,,,,,,,,,,,,,,,,,,,,,,,,,,,,,,,,,,,,,,,,,,,,,,,,,
,,65fadd16dd68b34863129702,2026-03-17_17h08.44.826,kallum_motion_pilot_GIST_update_2,2026.1.1,Win32,60.24096386,65fadd16dd68b34863129702,69b95efdef24cd8a694e89ee,69b960141fa5510b539f03b4,0.0694,0.0694,1,52,214,120,1,fivesix,,,,,,,,,,,,,,,,,,,,,,,,,,,,,,,,,,,,,,,,,,,,,,,,,,,,,,,,,,,,,,,,,,,,,,,,,,,,,,,,,,,,,,,,,,,,,,,,,,,,,,,,,,,,,,,,,,,,,,,,,,,,,,,,,,,,,,,,,
,,65fadd16dd68b34863129702,2026-03-17_17h08.44.826,kallum_motion_pilot_GIST_update_2,2026.1.1,Win32,60.24096386,65fadd16dd68b34863129702,69b95efdef24cd8a694e89ee,69b960141fa5510b539f03b4,0.0696,0.0696,1,53,215,89,1,fiveseven,,,,,,,,,,,,,,,,,,,,,,,,,,,,,,,,,,,,,,,,,,,,,,,,,,,,,,,,,,,,,,,,,,,,,,,,,,,,,,,,,,,,,,,,,,,,,,,,,,,,,,,,,,,,,,,,,,,,,,,,,,,,,,,,,,,,,,,,,
,,65fadd16dd68b34863129702,2026-03-17_17h08.44.826,kallum_motion_pilot_GIST_update_2,2026.1.1,Win32,60.24096386,65fadd16dd68b34863129702,69b95efdef24cd8a694e89ee,69b960141fa5510b539f03b4,0.0698,0.0698,1,54,216,3,1,twofour,,,,,,,,,,,,,,,,,,,,,,,,,,,,,,,,,,,,,,,,,,,,,,,,,,,,,,,,,,,,,,,,,,,,,,,,,,,,,,,,,,,,,,,,,,,,,,,,,,,,,,,,,,,,,,,,,,,,,,,,,,,,,,,,,,,,,,,,,
,,65fadd16dd68b34863129702,2026-03-17_17h08.44.826,kallum_motion_pilot_GIST_update_2,2026.1.1,Win32,60.24096386,65fadd16dd68b34863129702,69b95efdef24cd8a694e89ee,69b960141fa5510b539f03b4,0.07,0.07,1,55,217,92,1,sevenfive,,,,,,,,,,,,,,,,,,,,,,,,,,,,,,,,,,,,,,,,,,,,,,,,,,,,,,,,,,,,,,,,,,,,,,,,,,,,,,,,,,,,,,,,,,,,,,,,,,,,,,,,,,,,,,,,,,,,,,,,,,,,,,,,,,,,,,,,,
,,65fadd16dd68b34863129702,2026-03-17_17h08.44.826,kallum_motion_pilot_GIST_update_2,2026.1.1,Win32,60.24096386,65fadd16dd68b34863129702,69b95efdef24cd8a694e89ee,69b960141fa5510b539f03b4,0.0702,0.0702,1,56,218,146,1,sixfive,,,,,,,,,,,,,,,,,,,,,,,,,,,,,,,,,,,,,,,,,,,,,,,,,,,,,,,,,,,,,,,,,,,,,,,,,,,,,,,,,,,,,,,,,,,,,,,,,,,,,,,,,,,,,,,,,,,,,,,,,,,,,,,,,,,,,,,,,
,,65fadd16dd68b34863129702,2026-03-17_17h08.44.826,kallum_motion_pilot_GIST_update_2,2026.1.1,Win32,60.24096386,65fadd16dd68b34863129702,69b95efdef24cd8a694e89ee,69b960141fa5510b539f03b4,0.0705,0.0705,1,57,219,34,1,twoone,,,,,,,,,,,,,,,,,,,,,,,,,,,,,,,,,,,,,,,,,,,,,,,,,,,,,,,,,,,,,,,,,,,,,,,,,,,,,,,,,,,,,,,,,,,,,,,,,,,,,,,,,,,,,,,,,,,,,,,,,,,,,,,,,,,,,,,,,
,,65fadd16dd68b34863129702,2026-03-17_17h08.44.826,kallum_motion_pilot_GIST_update_2,2026.1.1,Win32,60.24096386,65fadd16dd68b34863129702,69b95efdef24cd8a694e89ee,69b960141fa5510b539f03b4,0.0707,0.0707,1,58,220,109,1,seveneight,,,,,,,,,,,,,,,,,,,,,,,,,,,,,,,,,,,,,,,,,,,,,,,,,,,,,,,,,,,,,,,,,,,,,,,,,,,,,,,,,,,,,,,,,,,,,,,,,,,,,,,,,,,,,,,,,,,,,,,,,,,,,,,,,,,,,,,,,
,,65fadd16dd68b34863129702,2026-03-17_17h08.44.826,kallum_motion_pilot_GIST_update_2,2026.1.1,Win32,60.24096386,65fadd16dd68b34863129702,69b95efdef24cd8a694e89ee,69b960141fa5510b539f03b4,0.0709,0.0709,1,59,221,141,1,seveneight,,,,,,,,,,,,,,,,,,,,,,,,,,,,,,,,,,,,,,,,,,,,,,,,,,,,,,,,,,,,,,,,,,,,,,,,,,,,,,,,,,,,,,,,,,,,,,,,,,,,,,,,,,,,,,,,,,,,,,,,,,,,,,,,,,,,,,,,,
,,65fadd16dd68b34863129702,2026-03-17_17h08.44.826,kallum_motion_pilot_GIST_update_2,2026.1.1,Win32,60.24096386,65fadd16dd68b34863129702,69b95efdef24cd8a694e89ee,69b960141fa5510b539f03b4,0.0711,0.0711,1,60,222,91,1,sixeight,,,,,,,,,,,,,,,,,,,,,,,,,,,,,,,,,,,,,,,,,,,,,,,,,,,,,,,,,,,,,,,,,,,,,,,,,,,,,,,,,,,,,,,,,,,,,,,,,,,,,,,,,,,,,,,,,,,,,,,,,,,,,,,,,,,,,,,,,
,,65fadd16dd68b34863129702,2026-03-17_17h08.44.826,kallum_motion_pilot_GIST_update_2,2026.1.1,Win32,60.24096386,65fadd16dd68b34863129702,69b95efdef24cd8a694e89ee,69b960141fa5510b539f03b4,0.0713,0.0713,1,61,223,49,1,onethree,,,,,,,,,,,,,,,,,,,,,,,,,,,,,,,,,,,,,,,,,,,,,,,,,,,,,,,,,,,,,,,,,,,,,,,,,,,,,,,,,,,,,,,,,,,,,,,,,,,,,,,,,,,,,,,,,,,,,,,,,,,,,,,,,,,,,,,,,
,,65fadd16dd68b34863129702,2026-03-17_17h08.44.826,kallum_motion_pilot_GIST_update_2,2026.1.1,Win32,60.24096386,65fadd16dd68b34863129702,69b95efdef24cd8a694e89ee,69b960141fa5510b539f03b4,0.0715,0.0716,1,62,224,46,1,fourtwo,,,,,,,,,,,,,,,,,,,,,,,,,,,,,,,,,,,,,,,,,,,,,,,,,,,,,,,,,,,,,,,,,,,,,,,,,,,,,,,,,,,,,,,,,,,,,,,,,,,,,,,,,,,,,,,,,,,,,,,,,,,,,,,,,,,,,,,,,
,,65fadd16dd68b34863129702,2026-03-17_17h08.44.826,kallum_motion_pilot_GIST_update_2,2026.1.1,Win32,60.24096386,65fadd16dd68b34863129702,69b95efdef24cd8a694e89ee,69b960141fa5510b539f03b4,0.0716,0.0717,1,63,225,16,1,onetwo,,,,,,,,,,,,,,,,,,,,,,,,,,,,,,,,,,,,,,,,,,,,,,,,,,,,,,,,,,,,,,,,,,,,,,,,,,,,,,,,,,,,,,,,,,,,,,,,,,,,,,,,,,,,,,,,,,,,,,,,,,,,,,,,,,,,,,,,,
,,65fadd16dd68b34863129702,2026-03-17_17h08.44.826,kallum_motion_pilot_GIST_update_2,2026.1.1,Win32,60.24096386,65fadd16dd68b34863129702,69b95efdef24cd8a694e89ee,69b960141fa5510b539f03b4,0.0719,0.0719,1,64,226,24,1,onetwo,,,,,,,,,,,,,,,,,,,,,,,,,,,,,,,,,,,,,,,,,,,,,,,,,,,,,,,,,,,,,,,,,,,,,,,,,,,,,,,,,,,,,,,,,,,,,,,,,,,,,,,,,,,,,,,,,,,,,,,,,,,,,,,,,,,,,,,,,
,,65fadd16dd68b34863129702,2026-03-17_17h08.44.826,kallum_motion_pilot_GIST_update_2,2026.1.1,Win32,60.24096386,65fadd16dd68b34863129702,69b95efdef24cd8a694e89ee,69b960141fa5510b539f03b4,0.0721,0.0721,1,65,227,11,1,twofour,,,,,,,,,,,,,,,,,,,,,,,,,,,,,,,,,,,,,,,,,,,,,,,,,,,,,,,,,,,,,,,,,,,,,,,,,,,,,,,,,,,,,,,,,,,,,,,,,,,,,,,,,,,,,,,,,,,,,,,,,,,,,,,,,,,,,,,,,
,,65fadd16dd68b34863129702,2026-03-17_17h08.44.826,kallum_motion_pilot_GIST_update_2,2026.1.1,Win32,60.24096386,65fadd16dd68b34863129702,69b95efdef24cd8a694e89ee,69b960141fa5510b539f03b4,0.0723,0.0723,1,66,228,76,1,threeone,,,,,,,,,,,,,,,,,,,,,,,,,,,,,,,,,,,,,,,,,,,,,,,,,,,,,,,,,,,,,,,,,,,,,,,,,,,,,,,,,,,,,,,,,,,,,,,,,,,,,,,,,,,,,,,,,,,,,,,,,,,,,,,,,,,,,,,,,
,,65fadd16dd68b34863129702,2026-03-17_17h08.44.826,kallum_motion_pilot_GIST_update_2,2026.1.1,Win32,60.24096386,65fadd16dd68b34863129702,69b95efdef24cd8a694e89ee,69b960141fa5510b539f03b4,0.0724,0.0724,1,67,229,17,1,onethree,,,,,,,,,,,,,,,,,,,,,,,,,,,,,,,,,,,,,,,,,,,,,,,,,,,,,,,,,,,,,,,,,,,,,,,,,,,,,,,,,,,,,,,,,,,,,,,,,,,,,,,,,,,,,,,,,,,,,,,,,,,,,,,,,,,,,,,,,
,,65fadd16dd68b34863129702,2026-03-17_17h08.44.826,kallum_motion_pilot_GIST_update_2,2026.1.1,Win32,60.24096386,65fadd16dd68b34863129702,69b95efdef24cd8a694e89ee,69b960141fa5510b539f03b4,0.0726,0.0726,1,68,230,29,1,threefour,,,,,,,,,,,,,,,,,,,,,,,,,,,,,,,,,,,,,,,,,,,,,,,,,,,,,,,,,,,,,,,,,,,,,,,,,,,,,,,,,,,,,,,,,,,,,,,,,,,,,,,,,,,,,,,,,,,,,,,,,,,,,,,,,,,,,,,,,
,,65fadd16dd68b34863129702,2026-03-17_17h08.44.826,kallum_motion_pilot_GIST_update_2,2026.1.1,Win32,60.24096386,65fadd16dd68b34863129702,69b95efdef24cd8a694e89ee,69b960141fa5510b539f03b4,0.0728,0.0728,1,69,231,87,1,eightseven,,,,,,,,,,,,,,,,,,,,,,,,,,,,,,,,,,,,,,,,,,,,,,,,,,,,,,,,,,,,,,,,,,,,,,,,,,,,,,,,,,,,,,,,,,,,,,,,,,,,,,,,,,,,,,,,,,,,,,,,,,,,,,,,,,,,,,,,,
,,65fadd16dd68b34863129702,2026-03-17_17h08.44.826,kallum_motion_pilot_GIST_update_2,2026.1.1,Win32,60.24096386,65fadd16dd68b34863129702,69b95efdef24cd8a694e89ee,69b960141fa5510b539f03b4,0.0729,0.0729,1,70,232,161,1,fiveseven,,,,,,,,,,,,,,,,,,,,,,,,,,,,,,,,,,,,,,,,,,,,,,,,,,,,,,,,,,,,,,,,,,,,,,,,,,,,,,,,,,,,,,,,,,,,,,,,,,,,,,,,,,,,,,,,,,,,,,,,,,,,,,,,,,,,,,,,,
,,65fadd16dd68b34863129702,2026-03-17_17h08.44.826,kallum_motion_pilot_GIST_update_2,2026.1.1,Win32,60.24096386,65fadd16dd68b34863129702,69b95efdef24cd8a694e89ee,69b960141fa5510b539f03b4,0.0731,0.0731,1,71,233,129,1,fiveseven,,,,,,,,,,,,,,,,,,,,,,,,,,,,,,,,,,,,,,,,,,,,,,,,,,,,,,,,,,,,,,,,,,,,,,,,,,,,,,,,,,,,,,,,,,,,,,,,,,,,,,,,,,,,,,,,,,,,,,,,,,,,,,,,,,,,,,,,,
,,65fadd16dd68b34863129702,2026-03-17_17h08.44.826,kallum_motion_pilot_GIST_update_2,2026.1.1,Win32,60.24096386,65fadd16dd68b34863129702,69b95efdef24cd8a694e89ee,69b960141fa5510b539f03b4,0.0733,0.0733,1,72,234,100,1,sevenfive,,,,,,,,,,,,,,,,,,,,,,,,,,,,,,,,,,,,,,,,,,,,,,,,,,,,,,,,,,,,,,,,,,,,,,,,,,,,,,,,,,,,,,,,,,,,,,,,,,,,,,,,,,,,,,,,,,,,,,,,,,,,,,,,,,,,,,,,,
,,65fadd16dd68b34863129702,2026-03-17_17h08.44.826,kallum_motion_pilot_GIST_update_2,2026.1.1,Win32,60.24096386,65fadd16dd68b34863129702,69b95efdef24cd8a694e89ee,69b960141fa5510b539f03b4,0.0734,0.0734,1,73,235,53,1,threefour,,,,,,,,,,,,,,,,,,,,,,,,,,,,,,,,,,,,,,,,,,,,,,,,,,,,,,,,,,,,,,,,,,,,,,,,,,,,,,,,,,,,,,,,,,,,,,,,,,,,,,,,,,,,,,,,,,,,,,,,,,,,,,,,,,,,,,,,,
,,65fadd16dd68b34863129702,2026-03-17_17h08.44.826,kallum_motion_pilot_GIST_update_2,2026.1.1,Win32,60.24096386,65fadd16dd68b34863129702,69b95efdef24cd8a694e89ee,69b960141fa5510b539f03b4,0.0737,0.0737,1,74,236,48,1,onetwo,,,,,,,,,,,,,,,,,,,,,,,,,,,,,,,,,,,,,,,,,,,,,,,,,,,,,,,,,,,,,,,,,,,,,,,,,,,,,,,,,,,,,,,,,,,,,,,,,,,,,,,,,,,,,,,,,,,,,,,,,,,,,,,,,,,,,,,,,
,,65fadd16dd68b34863129702,2026-03-17_17h08.44.826,kallum_motion_pilot_GIST_update_2,2026.1.1,Win32,60.24096386,65fadd16dd68b34863129702,69b95efdef24cd8a694e89ee,69b960141fa5510b539f03b4,0.0738,0.0738,1,75,237,57,1,onethree,,,,,,,,,,,,,,,,,,,,,,,,,,,,,,,,,,,,,,,,,,,,,,,,,,,,,,,,,,,,,,,,,,,,,,,,,,,,,,,,,,,,,,,,,,,,,,,,,,,,,,,,,,,,,,,,,,,,,,,,,,,,,,,,,,,,,,,,,
,,65fadd16dd68b34863129702,2026-03-17_17h08.44.826,kallum_motion_pilot_GIST_update_2,2026.1.1,Win32,60.24096386,65fadd16dd68b34863129702,69b95efdef24cd8a694e89ee,69b960141fa5510b539f03b4,0.074,0.074,1,76,238,153,1,fiveseven,,,,,,,,,,,,,,,,,,,,,,,,,,,,,,,,,,,,,,,,,,,,,,,,,,,,,,,,,,,,,,,,,,,,,,,,,,,,,,,,,,,,,,,,,,,,,,,,,,,,,,,,,,,,,,,,,,,,,,,,,,,,,,,,,,,,,,,,,
,,65fadd16dd68b34863129702,2026-03-17_17h08.44.826,kallum_motion_pilot_GIST_update_2,2026.1.1,Win32,60.24096386,65fadd16dd68b34863129702,69b95efdef24cd8a694e89ee,69b960141fa5510b539f03b4,0.0741,0.0741,1,77,239,112,1,fivesix,,,,,,,,,,,,,,,,,,,,,,,,,,,,,,,,,,,,,,,,,,,,,,,,,,,,,,,,,,,,,,,,,,,,,,,,,,,,,,,,,,,,,,,,,,,,,,,,,,,,,,,,,,,,,,,,,,,,,,,,,,,,,,,,,,,,,,,,,
,,65fadd16dd68b34863129702,2026-03-17_17h08.44.826,kallum_motion_pilot_GIST_update_2,2026.1.1,Win32,60.24096386,65fadd16dd68b34863129702,69b95efdef24cd8a694e89ee,69b960141fa5510b539f03b4,0.0744,0.0744,1,78,240,52,1,threeone,,,,,,,,,,,,,,,,,,,,,,,,,,,,,,,,,,,,,,,,,,,,,,,,,,,,,,,,,,,,,,,,,,,,,,,,,,,,,,,,,,,,,,,,,,,,,,,,,,,,,,,,,,,,,,,,,,,,,,,,,,,,,,,,,,,,,,,,,
,,65fadd16dd68b34863129702,2026-03-17_17h08.44.826,kallum_motion_pilot_GIST_update_2,2026.1.1,Win32,60.24096386,65fadd16dd68b34863129702,69b95efdef24cd8a694e89ee,69b960141fa5510b539f03b4,0.0745,0.0745,1,79,241,125,1,seveneight,,,,,,,,,,,,,,,,,,,,,,,,,,,,,,,,,,,,,,,,,,,,,,,,,,,,,,,,,,,,,,,,,,,,,,,,,,,,,,,,,,,,,,,,,,,,,,,,,,,,,,,,,,,,,,,,,,,,,,,,,,,,,,,,,,,,,,,,,
,,65fadd16dd68b34863129702,2026-03-17_17h08.44.826,kallum_motion_pilot_GIST_update_2,2026.1.1,Win32,60.24096386,65fadd16dd68b34863129702,69b95efdef24cd8a694e89ee,69b960141fa5510b539f03b4,0.0746,0.0746,1,80,242,84,1,sevenfive,,,,,,,,,,,,,,,,,,,,,,,,,,,,,,,,,,,,,,,,,,,,,,,,,,,,,,,,,,,,,,,,,,,,,,,,,,,,,,,,,,,,,,,,,,,,,,,,,,,,,,,,,,,,,,,,,,,,,,,,,,,,,,,,,,,,,,,,,
,,65fadd16dd68b34863129702,2026-03-17_17h08.44.826,kallum_motion_pilot_GIST_update_2,2026.1.1,Win32,60.24096386,65fadd16dd68b34863129702,69b95efdef24cd8a694e89ee,69b960141fa5510b539f03b4,0.0748,0.0748,1,81,243,72,1,onetwo,,,,,,,,,,,,,,,,,,,,,,,,,,,,,,,,,,,,,,,,,,,,,,,,,,,,,,,,,,,,,,,,,,,,,,,,,,,,,,,,,,,,,,,,,,,,,,,,,,,,,,,,,,,,,,,,,,,,,,,,,,,,,,,,,,,,,,,,,
,,65fadd16dd68b34863129702,2026-03-17_17h08.44.826,kallum_motion_pilot_GIST_update_2,2026.1.1,Win32,60.24096386,65fadd16dd68b34863129702,69b95efdef24cd8a694e89ee,69b960141fa5510b539f03b4,0.075,0.075,1,82,244,23,1,fourthree,,,,,,,,,,,,,,,,,,,,,,,,,,,,,,,,,,,,,,,,,,,,,,,,,,,,,,,,,,,,,,,,,,,,,,,,,,,,,,,,,,,,,,,,,,,,,,,,,,,,,,,,,,,,,,,,,,,,,,,,,,,,,,,,,,,,,,,,,
,,65fadd16dd68b34863129702,2026-03-17_17h08.44.826,kallum_motion_pilot_GIST_update_2,2026.1.1,Win32,60.24096386,65fadd16dd68b34863129702,69b95efdef24cd8a694e89ee,69b960141fa5510b539f03b4,0.0752,0.0752,1,83,245,142,1,eightsix,,,,,,,,,,,,,,,,,,,,,,,,,,,,,,,,,,,,,,,,,,,,,,,,,,,,,,,,,,,,,,,,,,,,,,,,,,,,,,,,,,,,,,,,,,,,,,,,,,,,,,,,,,,,,,,,,,,,,,,,,,,,,,,,,,,,,,,,,
,,65fadd16dd68b34863129702,2026-03-17_17h08.44.826,kallum_motion_pilot_GIST_update_2,2026.1.1,Win32,60.24096386,65fadd16dd68b34863129702,69b95efdef24cd8a694e89ee,69b960141fa5510b539f03b4,0.0754,0.0754,1,84,246,36,1,threeone,,,,,,,,,,,,,,,,,,,,,,,,,,,,,,,,,,,,,,,,,,,,,,,,,,,,,,,,,,,,,,,,,,,,,,,,,,,,,,,,,,,,,,,,,,,,,,,,,,,,,,,,,,,,,,,,,,,,,,,,,,,,,,,,,,,,,,,,,
,,65fadd16dd68b34863129702,2026-03-17_17h08.44.826,kallum_motion_pilot_GIST_update_2,2026.1.1,Win32,60.24096386,65fadd16dd68b34863129702,69b95efdef24cd8a694e89ee,69b960141fa5510b539f03b4,0.0755,0.0756,1,85,247,149,1,seveneight,,,,,,,,,,,,,,,,,,,,,,,,,,,,,,,,,,,,,,,,,,,,,,,,,,,,,,,,,,,,,,,,,,,,,,,,,,,,,,,,,,,,,,,,,,,,,,,,,,,,,,,,,,,,,,,,,,,,,,,,,,,,,,,,,,,,,,,,,
,,65fadd16dd68b34863129702,2026-03-17_17h08.44.826,kallum_motion_pilot_GIST_update_2,2026.1.1,Win32,60.24096386,65fadd16dd68b34863129702,69b95efdef24cd8a694e89ee,69b960141fa5510b539f03b4,0.0757,0.0758,1,86,248,64,1,onetwo,,,,,,,,,,,,,,,,,,,,,,,,,,,,,,,,,,,,,,,,,,,,,,,,,,,,,,,,,,,,,,,,,,,,,,,,,,,,,,,,,,,,,,,,,,,,,,,,,,,,,,,,,,,,,,,,,,,,,,,,,,,,,,,,,,,,,,,,,
,,65fadd16dd68b34863129702,2026-03-17_17h08.44.826,kallum_motion_pilot_GIST_update_2,2026.1.1,Win32,60.24096386,65fadd16dd68b34863129702,69b95efdef24cd8a694e89ee,69b960141fa5510b539f03b4,0.0759,0.0759,1,87,249,61,1,threefour,,,,,,,,,,,,,,,,,,,,,,,,,,,,,,,,,,,,,,,,,,,,,,,,,,,,,,,,,,,,,,,,,,,,,,,,,,,,,,,,,,,,,,,,,,,,,,,,,,,,,,,,,,,,,,,,,,,,,,,,,,,,,,,,,,,,,,,,,
,,65fadd16dd68b34863129702,2026-03-17_17h08.44.826,kallum_motion_pilot_GIST_update_2,2026.1.1,Win32,60.24096386,65fadd16dd68b34863129702,69b95efdef24cd8a694e89ee,69b960141fa5510b539f03b4,0.0762,0.0762,1,88,250,35,1,twofour,,,,,,,,,,,,,,,,,,,,,,,,,,,,,,,,,,,,,,,,,,,,,,,,,,,,,,,,,,,,,,,,,,,,,,,,,,,,,,,,,,,,,,,,,,,,,,,,,,,,,,,,,,,,,,,,,,,,,,,,,,,,,,,,,,,,,,,,,
,,65fadd16dd68b34863129702,2026-03-17_17h08.44.826,kallum_motion_pilot_GIST_update_2,2026.1.1,Win32,60.24096386,65fadd16dd68b34863129702,69b95efdef24cd8a694e89ee,69b960141fa5510b539f03b4,0.0764,0.0764,1,89,251,97,1,fiveseven,,,,,,,,,,,,,,,,,,,,,,,,,,,,,,,,,,,,,,,,,,,,,,,,,,,,,,,,,,,,,,,,,,,,,,,,,,,,,,,,,,,,,,,,,,,,,,,,,,,,,,,,,,,,,,,,,,,,,,,,,,,,,,,,,,,,,,,,,
,,65fadd16dd68b34863129702,2026-03-17_17h08.44.826,kallum_motion_pilot_GIST_update_2,2026.1.1,Win32,60.24096386,65fadd16dd68b34863129702,69b95efdef24cd8a694e89ee,69b960141fa5510b539f03b4,0.0767,0.0767,1,90,252,19,1,twofour,,,,,,,,,,,,,,,,,,,,,,,,,,,,,,,,,,,,,,,,,,,,,,,,,,,,,,,,,,,,,,,,,,,,,,,,,,,,,,,,,,,,,,,,,,,,,,,,,,,,,,,,,,,,,,,,,,,,,,,,,,,,,,,,,,,,,,,,,
,,65fadd16dd68b34863129702,2026-03-17_17h08.44.826,kallum_motion_pilot_GIST_update_2,2026.1.1,Win32,60.24096386,65fadd16dd68b34863129702,69b95efdef24cd8a694e89ee,69b960141fa5510b539f03b4,0.0769,0.0769,1,91,253,70,1,fourtwo,,,,,,,,,,,,,,,,,,,,,,,,,,,,,,,,,,,,,,,,,,,,,,,,,,,,,,,,,,,,,,,,,,,,,,,,,,,,,,,,,,,,,,,,,,,,,,,,,,,,,,,,,,,,,,,,,,,,,,,,,,,,,,,,,,,,,,,,,
,,65fadd16dd68b34863129702,2026-03-17_17h08.44.826,kallum_motion_pilot_GIST_update_2,2026.1.1,Win32,60.24096386,65fadd16dd68b34863129702,69b95efdef24cd8a694e89ee,69b960141fa5510b539f03b4,0.0771,0.0771,1,92,254,101,1,seveneight,,,,,,,,,,,,,,,,,,,,,,,,,,,,,,,,,,,,,,,,,,,,,,,,,,,,,,,,,,,,,,,,,,,,,,,,,,,,,,,,,,,,,,,,,,,,,,,,,,,,,,,,,,,,,,,,,,,,,,,,,,,,,,,,,,,,,,,,,
,,65fadd16dd68b34863129702,2026-03-17_17h08.44.826,kallum_motion_pilot_GIST_update_2,2026.1.1,Win32,60.24096386,65fadd16dd68b34863129702,69b95efdef24cd8a694e89ee,69b960141fa5510b539f03b4,0.0774,0.0775,1,93,255,144,1,fivesix,,,,,,,,,,,,,,,,,,,,,,,,,,,,,,,,,,,,,,,,,,,,,,,,,,,,,,,,,,,,,,,,,,,,,,,,,,,,,,,,,,,,,,,,,,,,,,,,,,,,,,,,,,,,,,,,,,,,,,,,,,,,,,,,,,,,,,,,,
,,65fadd16dd68b34863129702,2026-03-17_17h08.44.826,kallum_motion_pilot_GIST_update_2,2026.1.1,Win32,60.24096386,65fadd16dd68b34863129702,69b95efdef24cd8a694e89ee,69b960141fa5510b539f03b4,0.0777,0.0777,1,94,256,67,1,twofour,,,,,,,,,,,,,,,,,,,,,,,,,,,,,,,,,,,,,,,,,,,,,,,,,,,,,,,,,,,,,,,,,,,,,,,,,,,,,,,,,,,,,,,,,,,,,,,,,,,,,,,,,,,,,,,,,,,,,,,,,,,,,,,,,,,,,,,,,
,,65fadd16dd68b34863129702,2026-03-17_17h08.44.826,kallum_motion_pilot_GIST_update_2,2026.1.1,Win32,60.24096386,65fadd16dd68b34863129702,69b95efdef24cd8a694e89ee,69b960141fa5510b539f03b4,0.0779,0.0779,1,95,257,121,1,fiveseven,,,,,,,,,,,,,,,,,,,,,,,,,,,,,,,,,,,,,,,,,,,,,,,,,,,,,,,,,,,,,,,,,,,,,,,,,,,,,,,,,,,,,,,,,,,,,,,,,,,,,,,,,,,,,,,,,,,,,,,,,,,,,,,,,,,,,,,,,
,,65fadd16dd68b34863129702,2026-03-17_17h08.44.826,kallum_motion_pilot_GIST_update_2,2026.1.1,Win32,60.24096386,65fadd16dd68b34863129702,69b95efdef24cd8a694e89ee,69b960141fa5510b539f03b4,0.078,0.078,1,96,258,103,1,eightseven,,,,,,,,,,,,,,,,,,,,,,,,,,,,,,,,,,,,,,,,,,,,,,,,,,,,,,,,,,,,,,,,,,,,,,,,,,,,,,,,,,,,,,,,,,,,,,,,,,,,,,,,,,,,,,,,,,,,,,,,,,,,,,,,,,,,,,,,,
,,65fadd16dd68b34863129702,2026-03-17_17h08.44.826,kallum_motion_pilot_GIST_update_2,2026.1.1,Win32,60.24096386,65fadd16dd68b34863129702,69b95efdef24cd8a694e89ee,69b960141fa5510b539f03b4,0.0783,0.0783,1,97,259,38,1,fourtwo,,,,,,,,,,,,,,,,,,,,,,,,,,,,,,,,,,,,,,,,,,,,,,,,,,,,,,,,,,,,,,,,,,,,,,,,,,,,,,,,,,,,,,,,,,,,,,,,,,,,,,,,,,,,,,,,,,,,,,,,,,,,,,,,,,,,,,,,,
,,65fadd16dd68b34863129702,2026-03-17_17h08.44.826,kallum_motion_pilot_GIST_update_2,2026.1.1,Win32,60.24096386,65fadd16dd68b34863129702,69b95efdef24cd8a694e89ee,69b960141fa5510b539f03b4,0.0785,0.0785,1,98,260,82,1,sixfive,,,,,,,,,,,,,,,,,,,,,,,,,,,,,,,,,,,,,,,,,,,,,,,,,,,,,,,,,,,,,,,,,,,,,,,,,,,,,,,,,,,,,,,,,,,,,,,,,,,,,,,,,,,,,,,,,,,,,,,,,,,,,,,,,,,,,,,,,
,,65fadd16dd68b34863129702,2026-03-17_17h08.44.826,kallum_motion_pilot_GIST_update_2,2026.1.1,Win32,60.24096386,65fadd16dd68b34863129702,69b95efdef24cd8a694e89ee,69b960141fa5510b539f03b4,0.0786,0.0786,1,99,261,124,1,sevenfive,,,,,,,,,,,,,,,,,,,,,,,,,,,,,,,,,,,,,,,,,,,,,,,,,,,,,,,,,,,,,,,,,,,,,,,,,,,,,,,,,,,,,,,,,,,,,,,,,,,,,,,,,,,,,,,,,,,,,,,,,,,,,,,,,,,,,,,,,
,,65fadd16dd68b34863129702,2026-03-17_17h08.44.826,kallum_motion_pilot_GIST_update_2,2026.1.1,Win32,60.24096386,65fadd16dd68b34863129702,69b95efdef24cd8a694e89ee,69b960141fa5510b539f03b4,0.0788,0.0789,1,100,262,44,1,threeone,,,,,,,,,,,,,,,,,,,,,,,,,,,,,,,,,,,,,,,,,,,,,,,,,,,,,,,,,,,,,,,,,,,,,,,,,,,,,,,,,,,,,,,,,,,,,,,,,,,,,,,,,,,,,,,,,,,,,,,,,,,,,,,,,,,,,,,,,
,,65fadd16dd68b34863129702,2026-03-17_17h08.44.826,kallum_motion_pilot_GIST_update_2,2026.1.1,Win32,60.24096386,65fadd16dd68b34863129702,69b95efdef24cd8a694e89ee,69b960141fa5510b539f03b4,0.079,0.079,1,101,263,96,1,fivesix,,,,,,,,,,,,,,,,,,,,,,,,,,,,,,,,,,,,,,,,,,,,,,,,,,,,,,,,,,,,,,,,,,,,,,,,,,,,,,,,,,,,,,,,,,,,,,,,,,,,,,,,,,,,,,,,,,,,,,,,,,,,,,,,,,,,,,,,,
,,65fadd16dd68b34863129702,2026-03-17_17h08.44.826,kallum_motion_pilot_GIST_update_2,2026.1.1,Win32,60.24096386,65fadd16dd68b34863129702,69b95efdef24cd8a694e89ee,69b960141fa5510b539f03b4,0.0794,0.0794,1,102,264,104,1,fivesix,,,,,,,,,,,,,,,,,,,,,,,,,,,,,,,,,,,,,,,,,,,,,,,,,,,,,,,,,,,,,,,,,,,,,,,,,,,,,,,,,,,,,,,,,,,,,,,,,,,,,,,,,,,,,,,,,,,,,,,,,,,,,,,,,,,,,,,,,
,,65fadd16dd68b34863129702,2026-03-17_17h08.44.826,kallum_motion_pilot_GIST_update_2,2026.1.1,Win32,60.24096386,65fadd16dd68b34863129702,69b95efdef24cd8a694e89ee,69b960141fa5510b539f03b4,0.0796,0.0796,1,103,265,5,1,threefour,,,,,,,,,,,,,,,,,,,,,,,,,,,,,,,,,,,,,,,,,,,,,,,,,,,,,,,,,,,,,,,,,,,,,,,,,,,,,,,,,,,,,,,,,,,,,,,,,,,,,,,,,,,,,,,,,,,,,,,,,,,,,,,,,,,,,,,,,
,,65fadd16dd68b34863129702,2026-03-17_17h08.44.826,kallum_motion_pilot_GIST_update_2,2026.1.1,Win32,60.24096386,65fadd16dd68b34863129702,69b95efdef24cd8a694e89ee,69b960141fa5510b539f03b4,0.0797,0.0797,1,104,266,22,1,fourtwo,,,,,,,,,,,,,,,,,,,,,,,,,,,,,,,,,,,,,,,,,,,,,,,,,,,,,,,,,,,,,,,,,,,,,,,,,,,,,,,,,,,,,,,,,,,,,,,,,,,,,,,,,,,,,,,,,,,,,,,,,,,,,,,,,,,,,,,,,
