startup.started,startup.stopped,Prolific ID*,date,expName,psychopyVersion,OS,frameRate,participant,study_id,session,stimpositions.started,stimpositions.stopped,hardcoded_stimulus_positions.thisRepN,hardcoded_stimulus_positions.thisTrialN,hardcoded_stimulus_positions.thisN,hardcoded_stimulus_positions.thisIndex,hardcoded_stimulus_positions.ran,StimulusPos,stimorientation.started,stimorientation.stopped,prac_stimorientation_import_loop.thisRepN,prac_stimorientation_import_loop.thisTrialN,prac_stimorientation_import_loop.thisN,prac_stimorientation_import_loop.thisIndex,prac_stimorientation_import_loop.ran,Stimorientation,welcome_instr.started,welcome_instr.stopped,key_resp.keys,key_resp.rt,key_resp.duration,response_steppedout_1.started,response_steppedout_1.stopped,key_resp_20.keys,key_resp_20.rt,key_resp_20.duration,response_steppedout_2.started,response_steppedout_2.stopped,key_resp_19.keys,key_resp_19.rt,key_resp_19.duration,stim_response_instr.started,stim_response_instr.stopped,key_resp_15.keys,key_resp_15.rt,key_resp_15.duration,direction_instr_2.started,direction_instr_2.stopped,key_resp_9.keys,key_resp_9.rt,key_resp_9.duration,instr_prac.started,instr_prac.stopped,key_resp_10.keys,key_resp_10.rt,key_resp_10.duration,Stim1_display_prac.started,Stim1_display_prac.stopped,Ecc,Circle1_ori,Circle2_ori,response_prac.started,similarity,response_time,response_prac.stopped,mouse_5.x,mouse_5.y,mouse_5.leftButton,mouse_5.midButton,mouse_5.rightButton,mouse_5.clicked_name,responseprac_feedback.started,responseprac_feedback.stopped,summary2_prac.started,summary2_prac.stopped,mouse_6.x,mouse_6.y,mouse_6.leftButton,mouse_6.midButton,mouse_6.rightButton,mouse_6.clicked_name,duringprac.thisRepN,duringprac.thisTrialN,duringprac.thisN,duringprac.thisIndex,duringprac.ran,begin.started,begin.stopped,key_resp_22.keys,key_resp_22.rt,key_resp_22.duration,Stim1_display.started,Stim1_display.stopped,circle1_ori,circle2_ori,circle1_SF,circle2_SF,response.started,response.stopped,mouse.x,mouse.y,mouse.leftButton,mouse.midButton,mouse.rightButton,mouse.clicked_name,trialnumber,double_pass.thisRepN,double_pass.thisTrialN,double_pass.thisN,double_pass.thisIndex,double_pass.ran,double_pass.order,main_trial.thisRepN,main_trial.thisTrialN,main_trial.thisN,main_trial.thisIndex,main_trial.ran,main_trial.order,Trial_Counter,Catch,Frequencies,response_2.started,response_2.stopped,mouse_2.x,mouse_2.y,mouse_2.leftButton,mouse_2.midButton,mouse_2.rightButton,mouse_2.clicked_name,special_trial.started,special_trial.stopped,catch_1.started,catch_1.stopped,mouse_3.x,mouse_3.y,mouse_3.leftButton,mouse_3.midButton,mouse_3.rightButton,catchresponse,catchnumber,response_time_catch,response_sum.started,response_sum.stopped,mouse_11.x,mouse_11.y,mouse_11.leftButton,mouse_11.midButton,mouse_11.rightButton,flip_presentation_sequence_for_double_pass.started,flip_presentation_sequence_for_double_pass.stopped,goodbye.started,goodbye.stopped,key_resp_3.keys,key_resp_3.rt,key_resp_3.duration
0.002,0.0022,660d675bbdf59327d9deb4ad,2026-03-17_12h22.53.345,kallum_motion_pilot_GIST_update_2,2026.1.1,Win32,58.13953488,660d675bbdf59327d9deb4ad,69b92ab4aef6dee357cd729a,69b92b3516a5e416439f5b5b,,,,,,,,,,,,,,,,,,,,,,,,,,,,,,,,,,,,,,,,,,,,,,,,,,,,,,,,,,,,,,,,,,,,,,,,,,,,,,,,,,,,,,,,,,,,,,,,,,,,,,,,,,,,,,,,,,,,,,,,,,,,,,,,,,,,,,,,,,,,,,,,,
,,660d675bbdf59327d9deb4ad,2026-03-17_12h22.53.345,kallum_motion_pilot_GIST_update_2,2026.1.1,Win32,58.13953488,660d675bbdf59327d9deb4ad,69b92ab4aef6dee357cd729a,69b92b3516a5e416439f5b5b,0.0432,0.0433,0,0,0,44,1,threeone,,,,,,,,,,,,,,,,,,,,,,,,,,,,,,,,,,,,,,,,,,,,,,,,,,,,,,,,,,,,,,,,,,,,,,,,,,,,,,,,,,,,,,,,,,,,,,,,,,,,,,,,,,,,,,,,,,,,,,,,,,,,,,,,,,,,,,,,,
,,660d675bbdf59327d9deb4ad,2026-03-17_12h22.53.345,kallum_motion_pilot_GIST_update_2,2026.1.1,Win32,58.13953488,660d675bbdf59327d9deb4ad,69b92ab4aef6dee357cd729a,69b92b3516a5e416439f5b5b,0.044,0.0441,0,1,1,133,1,seveneight,,,,,,,,,,,,,,,,,,,,,,,,,,,,,,,,,,,,,,,,,,,,,,,,,,,,,,,,,,,,,,,,,,,,,,,,,,,,,,,,,,,,,,,,,,,,,,,,,,,,,,,,,,,,,,,,,,,,,,,,,,,,,,,,,,,,,,,,,
,,660d675bbdf59327d9deb4ad,2026-03-17_12h22.53.345,kallum_motion_pilot_GIST_update_2,2026.1.1,Win32,58.13953488,660d675bbdf59327d9deb4ad,69b92ab4aef6dee357cd729a,69b92b3516a5e416439f5b5b,0.0444,0.0444,0,2,2,37,1,threefour,,,,,,,,,,,,,,,,,,,,,,,,,,,,,,,,,,,,,,,,,,,,,,,,,,,,,,,,,,,,,,,,,,,,,,,,,,,,,,,,,,,,,,,,,,,,,,,,,,,,,,,,,,,,,,,,,,,,,,,,,,,,,,,,,,,,,,,,,
,,660d675bbdf59327d9deb4ad,2026-03-17_12h22.53.345,kallum_motion_pilot_GIST_update_2,2026.1.1,Win32,58.13953488,660d675bbdf59327d9deb4ad,69b92ab4aef6dee357cd729a,69b92b3516a5e416439f5b5b,0.0448,0.0448,0,3,3,150,1,eightsix,,,,,,,,,,,,,,,,,,,,,,,,,,,,,,,,,,,,,,,,,,,,,,,,,,,,,,,,,,,,,,,,,,,,,,,,,,,,,,,,,,,,,,,,,,,,,,,,,,,,,,,,,,,,,,,,,,,,,,,,,,,,,,,,,,,,,,,,,
,,660d675bbdf59327d9deb4ad,2026-03-17_12h22.53.345,kallum_motion_pilot_GIST_update_2,2026.1.1,Win32,58.13953488,660d675bbdf59327d9deb4ad,69b92ab4aef6dee357cd729a,69b92b3516a5e416439f5b5b,0.0452,0.0453,0,4,4,27,1,twofour,,,,,,,,,,,,,,,,,,,,,,,,,,,,,,,,,,,,,,,,,,,,,,,,,,,,,,,,,,,,,,,,,,,,,,,,,,,,,,,,,,,,,,,,,,,,,,,,,,,,,,,,,,,,,,,,,,,,,,,,,,,,,,,,,,,,,,,,,
,,660d675bbdf59327d9deb4ad,2026-03-17_12h22.53.345,kallum_motion_pilot_GIST_update_2,2026.1.1,Win32,58.13953488,660d675bbdf59327d9deb4ad,69b92ab4aef6dee357cd729a,69b92b3516a5e416439f5b5b,0.0456,0.0457,0,5,5,103,1,eightseven,,,,,,,,,,,,,,,,,,,,,,,,,,,,,,,,,,,,,,,,,,,,,,,,,,,,,,,,,,,,,,,,,,,,,,,,,,,,,,,,,,,,,,,,,,,,,,,,,,,,,,,,,,,,,,,,,,,,,,,,,,,,,,,,,,,,,,,,,
,,660d675bbdf59327d9deb4ad,2026-03-17_12h22.53.345,kallum_motion_pilot_GIST_update_2,2026.1.1,Win32,58.13953488,660d675bbdf59327d9deb4ad,69b92ab4aef6dee357cd729a,69b92b3516a5e416439f5b5b,0.046,0.046,0,6,6,114,1,sixfive,,,,,,,,,,,,,,,,,,,,,,,,,,,,,,,,,,,,,,,,,,,,,,,,,,,,,,,,,,,,,,,,,,,,,,,,,,,,,,,,,,,,,,,,,,,,,,,,,,,,,,,,,,,,,,,,,,,,,,,,,,,,,,,,,,,,,,,,,
,,660d675bbdf59327d9deb4ad,2026-03-17_12h22.53.345,kallum_motion_pilot_GIST_update_2,2026.1.1,Win32,58.13953488,660d675bbdf59327d9deb4ad,69b92ab4aef6dee357cd729a,69b92b3516a5e416439f5b5b,0.0462,0.0463,0,7,7,54,1,fourtwo,,,,,,,,,,,,,,,,,,,,,,,,,,,,,,,,,,,,,,,,,,,,,,,,,,,,,,,,,,,,,,,,,,,,,,,,,,,,,,,,,,,,,,,,,,,,,,,,,,,,,,,,,,,,,,,,,,,,,,,,,,,,,,,,,,,,,,,,,
,,660d675bbdf59327d9deb4ad,2026-03-17_12h22.53.345,kallum_motion_pilot_GIST_update_2,2026.1.1,Win32,58.13953488,660d675bbdf59327d9deb4ad,69b92ab4aef6dee357cd729a,69b92b3516a5e416439f5b5b,0.0466,0.0466,0,8,8,84,1,sevenfive,,,,,,,,,,,,,,,,,,,,,,,,,,,,,,,,,,,,,,,,,,,,,,,,,,,,,,,,,,,,,,,,,,,,,,,,,,,,,,,,,,,,,,,,,,,,,,,,,,,,,,,,,,,,,,,,,,,,,,,,,,,,,,,,,,,,,,,,,
,,660d675bbdf59327d9deb4ad,2026-03-17_12h22.53.345,kallum_motion_pilot_GIST_update_2,2026.1.1,Win32,58.13953488,660d675bbdf59327d9deb4ad,69b92ab4aef6dee357cd729a,69b92b3516a5e416439f5b5b,0.0469,0.0469,0,9,9,141,1,seveneight,,,,,,,,,,,,,,,,,,,,,,,,,,,,,,,,,,,,,,,,,,,,,,,,,,,,,,,,,,,,,,,,,,,,,,,,,,,,,,,,,,,,,,,,,,,,,,,,,,,,,,,,,,,,,,,,,,,,,,,,,,,,,,,,,,,,,,,,,
,,660d675bbdf59327d9deb4ad,2026-03-17_12h22.53.345,kallum_motion_pilot_GIST_update_2,2026.1.1,Win32,58.13953488,660d675bbdf59327d9deb4ad,69b92ab4aef6dee357cd729a,69b92b3516a5e416439f5b5b,0.0473,0.0473,0,10,10,67,1,twofour,,,,,,,,,,,,,,,,,,,,,,,,,,,,,,,,,,,,,,,,,,,,,,,,,,,,,,,,,,,,,,,,,,,,,,,,,,,,,,,,,,,,,,,,,,,,,,,,,,,,,,,,,,,,,,,,,,,,,,,,,,,,,,,,,,,,,,,,,
,,660d675bbdf59327d9deb4ad,2026-03-17_12h22.53.345,kallum_motion_pilot_GIST_update_2,2026.1.1,Win32,58.13953488,660d675bbdf59327d9deb4ad,69b92ab4aef6dee357cd729a,69b92b3516a5e416439f5b5b,0.0476,0.0476,0,11,11,65,1,onethree,,,,,,,,,,,,,,,,,,,,,,,,,,,,,,,,,,,,,,,,,,,,,,,,,,,,,,,,,,,,,,,,,,,,,,,,,,,,,,,,,,,,,,,,,,,,,,,,,,,,,,,,,,,,,,,,,,,,,,,,,,,,,,,,,,,,,,,,,
,,660d675bbdf59327d9deb4ad,2026-03-17_12h22.53.345,kallum_motion_pilot_GIST_update_2,2026.1.1,Win32,58.13953488,660d675bbdf59327d9deb4ad,69b92ab4aef6dee357cd729a,69b92b3516a5e416439f5b5b,0.0478,0.0478,0,12,12,40,1,onetwo,,,,,,,,,,,,,,,,,,,,,,,,,,,,,,,,,,,,,,,,,,,,,,,,,,,,,,,,,,,,,,,,,,,,,,,,,,,,,,,,,,,,,,,,,,,,,,,,,,,,,,,,,,,,,,,,,,,,,,,,,,,,,,,,,,,,,,,,,
,,660d675bbdf59327d9deb4ad,2026-03-17_12h22.53.345,kallum_motion_pilot_GIST_update_2,2026.1.1,Win32,58.13953488,660d675bbdf59327d9deb4ad,69b92ab4aef6dee357cd729a,69b92b3516a5e416439f5b5b,0.0481,0.0482,0,13,13,6,1,fourtwo,,,,,,,,,,,,,,,,,,,,,,,,,,,,,,,,,,,,,,,,,,,,,,,,,,,,,,,,,,,,,,,,,,,,,,,,,,,,,,,,,,,,,,,,,,,,,,,,,,,,,,,,,,,,,,,,,,,,,,,,,,,,,,,,,,,,,,,,,
,,660d675bbdf59327d9deb4ad,2026-03-17_12h22.53.345,kallum_motion_pilot_GIST_update_2,2026.1.1,Win32,58.13953488,660d675bbdf59327d9deb4ad,69b92ab4aef6dee357cd729a,69b92b3516a5e416439f5b5b,0.0484,0.0484,0,14,14,95,1,eightseven,,,,,,,,,,,,,,,,,,,,,,,,,,,,,,,,,,,,,,,,,,,,,,,,,,,,,,,,,,,,,,,,,,,,,,,,,,,,,,,,,,,,,,,,,,,,,,,,,,,,,,,,,,,,,,,,,,,,,,,,,,,,,,,,,,,,,,,,,
,,660d675bbdf59327d9deb4ad,2026-03-17_12h22.53.345,kallum_motion_pilot_GIST_update_2,2026.1.1,Win32,58.13953488,660d675bbdf59327d9deb4ad,69b92ab4aef6dee357cd729a,69b92b3516a5e416439f5b5b,0.0487,0.0488,0,15,15,149,1,seveneight,,,,,,,,,,,,,,,,,,,,,,,,,,,,,,,,,,,,,,,,,,,,,,,,,,,,,,,,,,,,,,,,,,,,,,,,,,,,,,,,,,,,,,,,,,,,,,,,,,,,,,,,,,,,,,,,,,,,,,,,,,,,,,,,,,,,,,,,,
,,660d675bbdf59327d9deb4ad,2026-03-17_12h22.53.345,kallum_motion_pilot_GIST_update_2,2026.1.1,Win32,58.13953488,660d675bbdf59327d9deb4ad,69b92ab4aef6dee357cd729a,69b92b3516a5e416439f5b5b,0.0489,0.049,0,16,16,1,1,onethree,,,,,,,,,,,,,,,,,,,,,,,,,,,,,,,,,,,,,,,,,,,,,,,,,,,,,,,,,,,,,,,,,,,,,,,,,,,,,,,,,,,,,,,,,,,,,,,,,,,,,,,,,,,,,,,,,,,,,,,,,,,,,,,,,,,,,,,,,
,,660d675bbdf59327d9deb4ad,2026-03-17_12h22.53.345,kallum_motion_pilot_GIST_update_2,2026.1.1,Win32,58.13953488,660d675bbdf59327d9deb4ad,69b92ab4aef6dee357cd729a,69b92b3516a5e416439f5b5b,0.0492,0.0492,0,17,17,112,1,fivesix,,,,,,,,,,,,,,,,,,,,,,,,,,,,,,,,,,,,,,,,,,,,,,,,,,,,,,,,,,,,,,,,,,,,,,,,,,,,,,,,,,,,,,,,,,,,,,,,,,,,,,,,,,,,,,,,,,,,,,,,,,,,,,,,,,,,,,,,,
,,660d675bbdf59327d9deb4ad,2026-03-17_12h22.53.345,kallum_motion_pilot_GIST_update_2,2026.1.1,Win32,58.13953488,660d675bbdf59327d9deb4ad,69b92ab4aef6dee357cd729a,69b92b3516a5e416439f5b5b,0.0495,0.0495,0,18,18,50,1,twoone,,,,,,,,,,,,,,,,,,,,,,,,,,,,,,,,,,,,,,,,,,,,,,,,,,,,,,,,,,,,,,,,,,,,,,,,,,,,,,,,,,,,,,,,,,,,,,,,,,,,,,,,,,,,,,,,,,,,,,,,,,,,,,,,,,,,,,,,,
,,660d675bbdf59327d9deb4ad,2026-03-17_12h22.53.345,kallum_motion_pilot_GIST_update_2,2026.1.1,Win32,58.13953488,660d675bbdf59327d9deb4ad,69b92ab4aef6dee357cd729a,69b92b3516a5e416439f5b5b,0.0498,0.0498,0,19,19,3,1,twofour,,,,,,,,,,,,,,,,,,,,,,,,,,,,,,,,,,,,,,,,,,,,,,,,,,,,,,,,,,,,,,,,,,,,,,,,,,,,,,,,,,,,,,,,,,,,,,,,,,,,,,,,,,,,,,,,,,,,,,,,,,,,,,,,,,,,,,,,,
,,660d675bbdf59327d9deb4ad,2026-03-17_12h22.53.345,kallum_motion_pilot_GIST_update_2,2026.1.1,Win32,58.13953488,660d675bbdf59327d9deb4ad,69b92ab4aef6dee357cd729a,69b92b3516a5e416439f5b5b,0.0501,0.0501,0,20,20,138,1,sixfive,,,,,,,,,,,,,,,,,,,,,,,,,,,,,,,,,,,,,,,,,,,,,,,,,,,,,,,,,,,,,,,,,,,,,,,,,,,,,,,,,,,,,,,,,,,,,,,,,,,,,,,,,,,,,,,,,,,,,,,,,,,,,,,,,,,,,,,,,
,,660d675bbdf59327d9deb4ad,2026-03-17_12h22.53.345,kallum_motion_pilot_GIST_update_2,2026.1.1,Win32,58.13953488,660d675bbdf59327d9deb4ad,69b92ab4aef6dee357cd729a,69b92b3516a5e416439f5b5b,0.0503,0.0503,0,21,21,161,1,fiveseven,,,,,,,,,,,,,,,,,,,,,,,,,,,,,,,,,,,,,,,,,,,,,,,,,,,,,,,,,,,,,,,,,,,,,,,,,,,,,,,,,,,,,,,,,,,,,,,,,,,,,,,,,,,,,,,,,,,,,,,,,,,,,,,,,,,,,,,,,
,,660d675bbdf59327d9deb4ad,2026-03-17_12h22.53.345,kallum_motion_pilot_GIST_update_2,2026.1.1,Win32,58.13953488,660d675bbdf59327d9deb4ad,69b92ab4aef6dee357cd729a,69b92b3516a5e416439f5b5b,0.0506,0.0506,0,22,22,108,1,sevenfive,,,,,,,,,,,,,,,,,,,,,,,,,,,,,,,,,,,,,,,,,,,,,,,,,,,,,,,,,,,,,,,,,,,,,,,,,,,,,,,,,,,,,,,,,,,,,,,,,,,,,,,,,,,,,,,,,,,,,,,,,,,,,,,,,,,,,,,,,
,,660d675bbdf59327d9deb4ad,2026-03-17_12h22.53.345,kallum_motion_pilot_GIST_update_2,2026.1.1,Win32,58.13953488,660d675bbdf59327d9deb4ad,69b92ab4aef6dee357cd729a,69b92b3516a5e416439f5b5b,0.0509,0.0509,0,23,23,93,1,seveneight,,,,,,,,,,,,,,,,,,,,,,,,,,,,,,,,,,,,,,,,,,,,,,,,,,,,,,,,,,,,,,,,,,,,,,,,,,,,,,,,,,,,,,,,,,,,,,,,,,,,,,,,,,,,,,,,,,,,,,,,,,,,,,,,,,,,,,,,,
,,660d675bbdf59327d9deb4ad,2026-03-17_12h22.53.345,kallum_motion_pilot_GIST_update_2,2026.1.1,Win32,58.13953488,660d675bbdf59327d9deb4ad,69b92ab4aef6dee357cd729a,69b92b3516a5e416439f5b5b,0.0512,0.0512,0,24,24,159,1,eightseven,,,,,,,,,,,,,,,,,,,,,,,,,,,,,,,,,,,,,,,,,,,,,,,,,,,,,,,,,,,,,,,,,,,,,,,,,,,,,,,,,,,,,,,,,,,,,,,,,,,,,,,,,,,,,,,,,,,,,,,,,,,,,,,,,,,,,,,,,
,,660d675bbdf59327d9deb4ad,2026-03-17_12h22.53.345,kallum_motion_pilot_GIST_update_2,2026.1.1,Win32,58.13953488,660d675bbdf59327d9deb4ad,69b92ab4aef6dee357cd729a,69b92b3516a5e416439f5b5b,0.0514,0.0515,0,25,25,94,1,eightsix,,,,,,,,,,,,,,,,,,,,,,,,,,,,,,,,,,,,,,,,,,,,,,,,,,,,,,,,,,,,,,,,,,,,,,,,,,,,,,,,,,,,,,,,,,,,,,,,,,,,,,,,,,,,,,,,,,,,,,,,,,,,,,,,,,,,,,,,,
,,660d675bbdf59327d9deb4ad,2026-03-17_12h22.53.345,kallum_motion_pilot_GIST_update_2,2026.1.1,Win32,58.13953488,660d675bbdf59327d9deb4ad,69b92ab4aef6dee357cd729a,69b92b3516a5e416439f5b5b,0.0518,0.0518,0,26,26,81,1,fiveseven,,,,,,,,,,,,,,,,,,,,,,,,,,,,,,,,,,,,,,,,,,,,,,,,,,,,,,,,,,,,,,,,,,,,,,,,,,,,,,,,,,,,,,,,,,,,,,,,,,,,,,,,,,,,,,,,,,,,,,,,,,,,,,,,,,,,,,,,,
,,660d675bbdf59327d9deb4ad,2026-03-17_12h22.53.345,kallum_motion_pilot_GIST_update_2,2026.1.1,Win32,58.13953488,660d675bbdf59327d9deb4ad,69b92ab4aef6dee357cd729a,69b92b3516a5e416439f5b5b,0.0521,0.0521,0,27,27,146,1,sixfive,,,,,,,,,,,,,,,,,,,,,,,,,,,,,,,,,,,,,,,,,,,,,,,,,,,,,,,,,,,,,,,,,,,,,,,,,,,,,,,,,,,,,,,,,,,,,,,,,,,,,,,,,,,,,,,,,,,,,,,,,,,,,,,,,,,,,,,,,
,,660d675bbdf59327d9deb4ad,2026-03-17_12h22.53.345,kallum_motion_pilot_GIST_update_2,2026.1.1,Win32,58.13953488,660d675bbdf59327d9deb4ad,69b92ab4aef6dee357cd729a,69b92b3516a5e416439f5b5b,0.0525,0.0526,0,28,28,64,1,onetwo,,,,,,,,,,,,,,,,,,,,,,,,,,,,,,,,,,,,,,,,,,,,,,,,,,,,,,,,,,,,,,,,,,,,,,,,,,,,,,,,,,,,,,,,,,,,,,,,,,,,,,,,,,,,,,,,,,,,,,,,,,,,,,,,,,,,,,,,,
,,660d675bbdf59327d9deb4ad,2026-03-17_12h22.53.345,kallum_motion_pilot_GIST_update_2,2026.1.1,Win32,58.13953488,660d675bbdf59327d9deb4ad,69b92ab4aef6dee357cd729a,69b92b3516a5e416439f5b5b,0.0529,0.0529,0,29,29,139,1,sixeight,,,,,,,,,,,,,,,,,,,,,,,,,,,,,,,,,,,,,,,,,,,,,,,,,,,,,,,,,,,,,,,,,,,,,,,,,,,,,,,,,,,,,,,,,,,,,,,,,,,,,,,,,,,,,,,,,,,,,,,,,,,,,,,,,,,,,,,,,
,,660d675bbdf59327d9deb4ad,2026-03-17_12h22.53.345,kallum_motion_pilot_GIST_update_2,2026.1.1,Win32,58.13953488,660d675bbdf59327d9deb4ad,69b92ab4aef6dee357cd729a,69b92b3516a5e416439f5b5b,0.0532,0.0532,0,30,30,134,1,eightsix,,,,,,,,,,,,,,,,,,,,,,,,,,,,,,,,,,,,,,,,,,,,,,,,,,,,,,,,,,,,,,,,,,,,,,,,,,,,,,,,,,,,,,,,,,,,,,,,,,,,,,,,,,,,,,,,,,,,,,,,,,,,,,,,,,,,,,,,,
,,660d675bbdf59327d9deb4ad,2026-03-17_12h22.53.345,kallum_motion_pilot_GIST_update_2,2026.1.1,Win32,58.13953488,660d675bbdf59327d9deb4ad,69b92ab4aef6dee357cd729a,69b92b3516a5e416439f5b5b,0.0534,0.0534,0,31,31,52,1,threeone,,,,,,,,,,,,,,,,,,,,,,,,,,,,,,,,,,,,,,,,,,,,,,,,,,,,,,,,,,,,,,,,,,,,,,,,,,,,,,,,,,,,,,,,,,,,,,,,,,,,,,,,,,,,,,,,,,,,,,,,,,,,,,,,,,,,,,,,,
,,660d675bbdf59327d9deb4ad,2026-03-17_12h22.53.345,kallum_motion_pilot_GIST_update_2,2026.1.1,Win32,58.13953488,660d675bbdf59327d9deb4ad,69b92ab4aef6dee357cd729a,69b92b3516a5e416439f5b5b,0.0537,0.0537,0,32,32,49,1,onethree,,,,,,,,,,,,,,,,,,,,,,,,,,,,,,,,,,,,,,,,,,,,,,,,,,,,,,,,,,,,,,,,,,,,,,,,,,,,,,,,,,,,,,,,,,,,,,,,,,,,,,,,,,,,,,,,,,,,,,,,,,,,,,,,,,,,,,,,,
,,660d675bbdf59327d9deb4ad,2026-03-17_12h22.53.345,kallum_motion_pilot_GIST_update_2,2026.1.1,Win32,58.13953488,660d675bbdf59327d9deb4ad,69b92ab4aef6dee357cd729a,69b92b3516a5e416439f5b5b,0.054,0.054,0,33,33,131,1,sixeight,,,,,,,,,,,,,,,,,,,,,,,,,,,,,,,,,,,,,,,,,,,,,,,,,,,,,,,,,,,,,,,,,,,,,,,,,,,,,,,,,,,,,,,,,,,,,,,,,,,,,,,,,,,,,,,,,,,,,,,,,,,,,,,,,,,,,,,,,
,,660d675bbdf59327d9deb4ad,2026-03-17_12h22.53.345,kallum_motion_pilot_GIST_update_2,2026.1.1,Win32,58.13953488,660d675bbdf59327d9deb4ad,69b92ab4aef6dee357cd729a,69b92b3516a5e416439f5b5b,0.0542,0.0543,0,34,34,38,1,fourtwo,,,,,,,,,,,,,,,,,,,,,,,,,,,,,,,,,,,,,,,,,,,,,,,,,,,,,,,,,,,,,,,,,,,,,,,,,,,,,,,,,,,,,,,,,,,,,,,,,,,,,,,,,,,,,,,,,,,,,,,,,,,,,,,,,,,,,,,,,
,,660d675bbdf59327d9deb4ad,2026-03-17_12h22.53.345,kallum_motion_pilot_GIST_update_2,2026.1.1,Win32,58.13953488,660d675bbdf59327d9deb4ad,69b92ab4aef6dee357cd729a,69b92b3516a5e416439f5b5b,0.0546,0.0546,0,35,35,156,1,sevenfive,,,,,,,,,,,,,,,,,,,,,,,,,,,,,,,,,,,,,,,,,,,,,,,,,,,,,,,,,,,,,,,,,,,,,,,,,,,,,,,,,,,,,,,,,,,,,,,,,,,,,,,,,,,,,,,,,,,,,,,,,,,,,,,,,,,,,,,,,
,,660d675bbdf59327d9deb4ad,2026-03-17_12h22.53.345,kallum_motion_pilot_GIST_update_2,2026.1.1,Win32,58.13953488,660d675bbdf59327d9deb4ad,69b92ab4aef6dee357cd729a,69b92b3516a5e416439f5b5b,0.0548,0.0549,0,36,36,92,1,sevenfive,,,,,,,,,,,,,,,,,,,,,,,,,,,,,,,,,,,,,,,,,,,,,,,,,,,,,,,,,,,,,,,,,,,,,,,,,,,,,,,,,,,,,,,,,,,,,,,,,,,,,,,,,,,,,,,,,,,,,,,,,,,,,,,,,,,,,,,,,
,,660d675bbdf59327d9deb4ad,2026-03-17_12h22.53.345,kallum_motion_pilot_GIST_update_2,2026.1.1,Win32,58.13953488,660d675bbdf59327d9deb4ad,69b92ab4aef6dee357cd729a,69b92b3516a5e416439f5b5b,0.0552,0.0552,0,37,37,8,1,onetwo,,,,,,,,,,,,,,,,,,,,,,,,,,,,,,,,,,,,,,,,,,,,,,,,,,,,,,,,,,,,,,,,,,,,,,,,,,,,,,,,,,,,,,,,,,,,,,,,,,,,,,,,,,,,,,,,,,,,,,,,,,,,,,,,,,,,,,,,,
,,660d675bbdf59327d9deb4ad,2026-03-17_12h22.53.345,kallum_motion_pilot_GIST_update_2,2026.1.1,Win32,58.13953488,660d675bbdf59327d9deb4ad,69b92ab4aef6dee357cd729a,69b92b3516a5e416439f5b5b,0.0555,0.0555,0,38,38,22,1,fourtwo,,,,,,,,,,,,,,,,,,,,,,,,,,,,,,,,,,,,,,,,,,,,,,,,,,,,,,,,,,,,,,,,,,,,,,,,,,,,,,,,,,,,,,,,,,,,,,,,,,,,,,,,,,,,,,,,,,,,,,,,,,,,,,,,,,,,,,,,,
,,660d675bbdf59327d9deb4ad,2026-03-17_12h22.53.345,kallum_motion_pilot_GIST_update_2,2026.1.1,Win32,58.13953488,660d675bbdf59327d9deb4ad,69b92ab4aef6dee357cd729a,69b92b3516a5e416439f5b5b,0.056,0.056,0,39,39,128,1,fivesix,,,,,,,,,,,,,,,,,,,,,,,,,,,,,,,,,,,,,,,,,,,,,,,,,,,,,,,,,,,,,,,,,,,,,,,,,,,,,,,,,,,,,,,,,,,,,,,,,,,,,,,,,,,,,,,,,,,,,,,,,,,,,,,,,,,,,,,,,
,,660d675bbdf59327d9deb4ad,2026-03-17_12h22.53.345,kallum_motion_pilot_GIST_update_2,2026.1.1,Win32,58.13953488,660d675bbdf59327d9deb4ad,69b92ab4aef6dee357cd729a,69b92b3516a5e416439f5b5b,0.0563,0.0563,0,40,40,102,1,eightsix,,,,,,,,,,,,,,,,,,,,,,,,,,,,,,,,,,,,,,,,,,,,,,,,,,,,,,,,,,,,,,,,,,,,,,,,,,,,,,,,,,,,,,,,,,,,,,,,,,,,,,,,,,,,,,,,,,,,,,,,,,,,,,,,,,,,,,,,,
,,660d675bbdf59327d9deb4ad,2026-03-17_12h22.53.345,kallum_motion_pilot_GIST_update_2,2026.1.1,Win32,58.13953488,660d675bbdf59327d9deb4ad,69b92ab4aef6dee357cd729a,69b92b3516a5e416439f5b5b,0.0567,0.0567,0,41,41,35,1,twofour,,,,,,,,,,,,,,,,,,,,,,,,,,,,,,,,,,,,,,,,,,,,,,,,,,,,,,,,,,,,,,,,,,,,,,,,,,,,,,,,,,,,,,,,,,,,,,,,,,,,,,,,,,,,,,,,,,,,,,,,,,,,,,,,,,,,,,,,,
,,660d675bbdf59327d9deb4ad,2026-03-17_12h22.53.345,kallum_motion_pilot_GIST_update_2,2026.1.1,Win32,58.13953488,660d675bbdf59327d9deb4ad,69b92ab4aef6dee357cd729a,69b92b3516a5e416439f5b5b,0.057,0.057,0,42,42,36,1,threeone,,,,,,,,,,,,,,,,,,,,,,,,,,,,,,,,,,,,,,,,,,,,,,,,,,,,,,,,,,,,,,,,,,,,,,,,,,,,,,,,,,,,,,,,,,,,,,,,,,,,,,,,,,,,,,,,,,,,,,,,,,,,,,,,,,,,,,,,,
,,660d675bbdf59327d9deb4ad,2026-03-17_12h22.53.345,kallum_motion_pilot_GIST_update_2,2026.1.1,Win32,58.13953488,660d675bbdf59327d9deb4ad,69b92ab4aef6dee357cd729a,69b92b3516a5e416439f5b5b,0.0572,0.0573,0,43,43,33,1,onethree,,,,,,,,,,,,,,,,,,,,,,,,,,,,,,,,,,,,,,,,,,,,,,,,,,,,,,,,,,,,,,,,,,,,,,,,,,,,,,,,,,,,,,,,,,,,,,,,,,,,,,,,,,,,,,,,,,,,,,,,,,,,,,,,,,,,,,,,,
,,660d675bbdf59327d9deb4ad,2026-03-17_12h22.53.345,kallum_motion_pilot_GIST_update_2,2026.1.1,Win32,58.13953488,660d675bbdf59327d9deb4ad,69b92ab4aef6dee357cd729a,69b92b3516a5e416439f5b5b,0.0576,0.0576,0,44,44,79,1,eightseven,,,,,,,,,,,,,,,,,,,,,,,,,,,,,,,,,,,,,,,,,,,,,,,,,,,,,,,,,,,,,,,,,,,,,,,,,,,,,,,,,,,,,,,,,,,,,,,,,,,,,,,,,,,,,,,,,,,,,,,,,,,,,,,,,,,,,,,,,
,,660d675bbdf59327d9deb4ad,2026-03-17_12h22.53.345,kallum_motion_pilot_GIST_update_2,2026.1.1,Win32,58.13953488,660d675bbdf59327d9deb4ad,69b92ab4aef6dee357cd729a,69b92b3516a5e416439f5b5b,0.0578,0.0578,0,45,45,31,1,fourthree,,,,,,,,,,,,,,,,,,,,,,,,,,,,,,,,,,,,,,,,,,,,,,,,,,,,,,,,,,,,,,,,,,,,,,,,,,,,,,,,,,,,,,,,,,,,,,,,,,,,,,,,,,,,,,,,,,,,,,,,,,,,,,,,,,,,,,,,,
,,660d675bbdf59327d9deb4ad,2026-03-17_12h22.53.345,kallum_motion_pilot_GIST_update_2,2026.1.1,Win32,58.13953488,660d675bbdf59327d9deb4ad,69b92ab4aef6dee357cd729a,69b92b3516a5e416439f5b5b,0.0582,0.0582,0,46,46,66,1,twoone,,,,,,,,,,,,,,,,,,,,,,,,,,,,,,,,,,,,,,,,,,,,,,,,,,,,,,,,,,,,,,,,,,,,,,,,,,,,,,,,,,,,,,,,,,,,,,,,,,,,,,,,,,,,,,,,,,,,,,,,,,,,,,,,,,,,,,,,,
,,660d675bbdf59327d9deb4ad,2026-03-17_12h22.53.345,kallum_motion_pilot_GIST_update_2,2026.1.1,Win32,58.13953488,660d675bbdf59327d9deb4ad,69b92ab4aef6dee357cd729a,69b92b3516a5e416439f5b5b,0.0584,0.0584,0,47,47,13,1,threefour,,,,,,,,,,,,,,,,,,,,,,,,,,,,,,,,,,,,,,,,,,,,,,,,,,,,,,,,,,,,,,,,,,,,,,,,,,,,,,,,,,,,,,,,,,,,,,,,,,,,,,,,,,,,,,,,,,,,,,,,,,,,,,,,,,,,,,,,,
,,660d675bbdf59327d9deb4ad,2026-03-17_12h22.53.345,kallum_motion_pilot_GIST_update_2,2026.1.1,Win32,58.13953488,660d675bbdf59327d9deb4ad,69b92ab4aef6dee357cd729a,69b92b3516a5e416439f5b5b,0.0586,0.0587,0,48,48,30,1,fourtwo,,,,,,,,,,,,,,,,,,,,,,,,,,,,,,,,,,,,,,,,,,,,,,,,,,,,,,,,,,,,,,,,,,,,,,,,,,,,,,,,,,,,,,,,,,,,,,,,,,,,,,,,,,,,,,,,,,,,,,,,,,,,,,,,,,,,,,,,,
,,660d675bbdf59327d9deb4ad,2026-03-17_12h22.53.345,kallum_motion_pilot_GIST_update_2,2026.1.1,Win32,58.13953488,660d675bbdf59327d9deb4ad,69b92ab4aef6dee357cd729a,69b92b3516a5e416439f5b5b,0.059,0.059,0,49,49,14,1,fourtwo,,,,,,,,,,,,,,,,,,,,,,,,,,,,,,,,,,,,,,,,,,,,,,,,,,,,,,,,,,,,,,,,,,,,,,,,,,,,,,,,,,,,,,,,,,,,,,,,,,,,,,,,,,,,,,,,,,,,,,,,,,,,,,,,,,,,,,,,,
,,660d675bbdf59327d9deb4ad,2026-03-17_12h22.53.345,kallum_motion_pilot_GIST_update_2,2026.1.1,Win32,58.13953488,660d675bbdf59327d9deb4ad,69b92ab4aef6dee357cd729a,69b92b3516a5e416439f5b5b,0.0592,0.0592,0,50,50,101,1,seveneight,,,,,,,,,,,,,,,,,,,,,,,,,,,,,,,,,,,,,,,,,,,,,,,,,,,,,,,,,,,,,,,,,,,,,,,,,,,,,,,,,,,,,,,,,,,,,,,,,,,,,,,,,,,,,,,,,,,,,,,,,,,,,,,,,,,,,,,,,
,,660d675bbdf59327d9deb4ad,2026-03-17_12h22.53.345,kallum_motion_pilot_GIST_update_2,2026.1.1,Win32,58.13953488,660d675bbdf59327d9deb4ad,69b92ab4aef6dee357cd729a,69b92b3516a5e416439f5b5b,0.0595,0.0596,0,51,51,107,1,sixeight,,,,,,,,,,,,,,,,,,,,,,,,,,,,,,,,,,,,,,,,,,,,,,,,,,,,,,,,,,,,,,,,,,,,,,,,,,,,,,,,,,,,,,,,,,,,,,,,,,,,,,,,,,,,,,,,,,,,,,,,,,,,,,,,,,,,,,,,,
,,660d675bbdf59327d9deb4ad,2026-03-17_12h22.53.345,kallum_motion_pilot_GIST_update_2,2026.1.1,Win32,58.13953488,660d675bbdf59327d9deb4ad,69b92ab4aef6dee357cd729a,69b92b3516a5e416439f5b5b,0.0598,0.0598,0,52,52,152,1,fivesix,,,,,,,,,,,,,,,,,,,,,,,,,,,,,,,,,,,,,,,,,,,,,,,,,,,,,,,,,,,,,,,,,,,,,,,,,,,,,,,,,,,,,,,,,,,,,,,,,,,,,,,,,,,,,,,,,,,,,,,,,,,,,,,,,,,,,,,,,
,,660d675bbdf59327d9deb4ad,2026-03-17_12h22.53.345,kallum_motion_pilot_GIST_update_2,2026.1.1,Win32,58.13953488,660d675bbdf59327d9deb4ad,69b92ab4aef6dee357cd729a,69b92b3516a5e416439f5b5b,0.06,0.06,0,53,53,71,1,fourthree,,,,,,,,,,,,,,,,,,,,,,,,,,,,,,,,,,,,,,,,,,,,,,,,,,,,,,,,,,,,,,,,,,,,,,,,,,,,,,,,,,,,,,,,,,,,,,,,,,,,,,,,,,,,,,,,,,,,,,,,,,,,,,,,,,,,,,,,,
,,660d675bbdf59327d9deb4ad,2026-03-17_12h22.53.345,kallum_motion_pilot_GIST_update_2,2026.1.1,Win32,58.13953488,660d675bbdf59327d9deb4ad,69b92ab4aef6dee357cd729a,69b92b3516a5e416439f5b5b,0.0603,0.0604,0,54,54,87,1,eightseven,,,,,,,,,,,,,,,,,,,,,,,,,,,,,,,,,,,,,,,,,,,,,,,,,,,,,,,,,,,,,,,,,,,,,,,,,,,,,,,,,,,,,,,,,,,,,,,,,,,,,,,,,,,,,,,,,,,,,,,,,,,,,,,,,,,,,,,,,
,,660d675bbdf59327d9deb4ad,2026-03-17_12h22.53.345,kallum_motion_pilot_GIST_update_2,2026.1.1,Win32,58.13953488,660d675bbdf59327d9deb4ad,69b92ab4aef6dee357cd729a,69b92b3516a5e416439f5b5b,0.0606,0.0606,0,55,55,53,1,threefour,,,,,,,,,,,,,,,,,,,,,,,,,,,,,,,,,,,,,,,,,,,,,,,,,,,,,,,,,,,,,,,,,,,,,,,,,,,,,,,,,,,,,,,,,,,,,,,,,,,,,,,,,,,,,,,,,,,,,,,,,,,,,,,,,,,,,,,,,
,,660d675bbdf59327d9deb4ad,2026-03-17_12h22.53.345,kallum_motion_pilot_GIST_update_2,2026.1.1,Win32,58.13953488,660d675bbdf59327d9deb4ad,69b92ab4aef6dee357cd729a,69b92b3516a5e416439f5b5b,0.0608,0.0608,0,56,56,99,1,sixeight,,,,,,,,,,,,,,,,,,,,,,,,,,,,,,,,,,,,,,,,,,,,,,,,,,,,,,,,,,,,,,,,,,,,,,,,,,,,,,,,,,,,,,,,,,,,,,,,,,,,,,,,,,,,,,,,,,,,,,,,,,,,,,,,,,,,,,,,,
,,660d675bbdf59327d9deb4ad,2026-03-17_12h22.53.345,kallum_motion_pilot_GIST_update_2,2026.1.1,Win32,58.13953488,660d675bbdf59327d9deb4ad,69b92ab4aef6dee357cd729a,69b92b3516a5e416439f5b5b,0.0612,0.0612,0,57,57,145,1,fiveseven,,,,,,,,,,,,,,,,,,,,,,,,,,,,,,,,,,,,,,,,,,,,,,,,,,,,,,,,,,,,,,,,,,,,,,,,,,,,,,,,,,,,,,,,,,,,,,,,,,,,,,,,,,,,,,,,,,,,,,,,,,,,,,,,,,,,,,,,,
,,660d675bbdf59327d9deb4ad,2026-03-17_12h22.53.345,kallum_motion_pilot_GIST_update_2,2026.1.1,Win32,58.13953488,660d675bbdf59327d9deb4ad,69b92ab4aef6dee357cd729a,69b92b3516a5e416439f5b5b,0.0615,0.0615,0,58,58,29,1,threefour,,,,,,,,,,,,,,,,,,,,,,,,,,,,,,,,,,,,,,,,,,,,,,,,,,,,,,,,,,,,,,,,,,,,,,,,,,,,,,,,,,,,,,,,,,,,,,,,,,,,,,,,,,,,,,,,,,,,,,,,,,,,,,,,,,,,,,,,,
,,660d675bbdf59327d9deb4ad,2026-03-17_12h22.53.345,kallum_motion_pilot_GIST_update_2,2026.1.1,Win32,58.13953488,660d675bbdf59327d9deb4ad,69b92ab4aef6dee357cd729a,69b92b3516a5e416439f5b5b,0.0618,0.0618,0,59,59,26,1,twoone,,,,,,,,,,,,,,,,,,,,,,,,,,,,,,,,,,,,,,,,,,,,,,,,,,,,,,,,,,,,,,,,,,,,,,,,,,,,,,,,,,,,,,,,,,,,,,,,,,,,,,,,,,,,,,,,,,,,,,,,,,,,,,,,,,,,,,,,,
,,660d675bbdf59327d9deb4ad,2026-03-17_12h22.53.345,kallum_motion_pilot_GIST_update_2,2026.1.1,Win32,58.13953488,660d675bbdf59327d9deb4ad,69b92ab4aef6dee357cd729a,69b92b3516a5e416439f5b5b,0.0622,0.0622,0,60,60,110,1,eightsix,,,,,,,,,,,,,,,,,,,,,,,,,,,,,,,,,,,,,,,,,,,,,,,,,,,,,,,,,,,,,,,,,,,,,,,,,,,,,,,,,,,,,,,,,,,,,,,,,,,,,,,,,,,,,,,,,,,,,,,,,,,,,,,,,,,,,,,,,
,,660d675bbdf59327d9deb4ad,2026-03-17_12h22.53.345,kallum_motion_pilot_GIST_update_2,2026.1.1,Win32,58.13953488,660d675bbdf59327d9deb4ad,69b92ab4aef6dee357cd729a,69b92b3516a5e416439f5b5b,0.0627,0.0627,0,61,61,132,1,sevenfive,,,,,,,,,,,,,,,,,,,,,,,,,,,,,,,,,,,,,,,,,,,,,,,,,,,,,,,,,,,,,,,,,,,,,,,,,,,,,,,,,,,,,,,,,,,,,,,,,,,,,,,,,,,,,,,,,,,,,,,,,,,,,,,,,,,,,,,,,
,,660d675bbdf59327d9deb4ad,2026-03-17_12h22.53.345,kallum_motion_pilot_GIST_update_2,2026.1.1,Win32,58.13953488,660d675bbdf59327d9deb4ad,69b92ab4aef6dee357cd729a,69b92b3516a5e416439f5b5b,0.063,0.063,0,62,62,160,1,fivesix,,,,,,,,,,,,,,,,,,,,,,,,,,,,,,,,,,,,,,,,,,,,,,,,,,,,,,,,,,,,,,,,,,,,,,,,,,,,,,,,,,,,,,,,,,,,,,,,,,,,,,,,,,,,,,,,,,,,,,,,,,,,,,,,,,,,,,,,,
,,660d675bbdf59327d9deb4ad,2026-03-17_12h22.53.345,kallum_motion_pilot_GIST_update_2,2026.1.1,Win32,58.13953488,660d675bbdf59327d9deb4ad,69b92ab4aef6dee357cd729a,69b92b3516a5e416439f5b5b,0.0632,0.0632,0,63,63,123,1,sixeight,,,,,,,,,,,,,,,,,,,,,,,,,,,,,,,,,,,,,,,,,,,,,,,,,,,,,,,,,,,,,,,,,,,,,,,,,,,,,,,,,,,,,,,,,,,,,,,,,,,,,,,,,,,,,,,,,,,,,,,,,,,,,,,,,,,,,,,,,
,,660d675bbdf59327d9deb4ad,2026-03-17_12h22.53.345,kallum_motion_pilot_GIST_update_2,2026.1.1,Win32,58.13953488,660d675bbdf59327d9deb4ad,69b92ab4aef6dee357cd729a,69b92b3516a5e416439f5b5b,0.0636,0.0637,0,64,64,69,1,threefour,,,,,,,,,,,,,,,,,,,,,,,,,,,,,,,,,,,,,,,,,,,,,,,,,,,,,,,,,,,,,,,,,,,,,,,,,,,,,,,,,,,,,,,,,,,,,,,,,,,,,,,,,,,,,,,,,,,,,,,,,,,,,,,,,,,,,,,,,
,,660d675bbdf59327d9deb4ad,2026-03-17_12h22.53.345,kallum_motion_pilot_GIST_update_2,2026.1.1,Win32,58.13953488,660d675bbdf59327d9deb4ad,69b92ab4aef6dee357cd729a,69b92b3516a5e416439f5b5b,0.0642,0.0642,0,65,65,105,1,fiveseven,,,,,,,,,,,,,,,,,,,,,,,,,,,,,,,,,,,,,,,,,,,,,,,,,,,,,,,,,,,,,,,,,,,,,,,,,,,,,,,,,,,,,,,,,,,,,,,,,,,,,,,,,,,,,,,,,,,,,,,,,,,,,,,,,,,,,,,,,
,,660d675bbdf59327d9deb4ad,2026-03-17_12h22.53.345,kallum_motion_pilot_GIST_update_2,2026.1.1,Win32,58.13953488,660d675bbdf59327d9deb4ad,69b92ab4aef6dee357cd729a,69b92b3516a5e416439f5b5b,0.0645,0.0646,0,66,66,97,1,fiveseven,,,,,,,,,,,,,,,,,,,,,,,,,,,,,,,,,,,,,,,,,,,,,,,,,,,,,,,,,,,,,,,,,,,,,,,,,,,,,,,,,,,,,,,,,,,,,,,,,,,,,,,,,,,,,,,,,,,,,,,,,,,,,,,,,,,,,,,,,
,,660d675bbdf59327d9deb4ad,2026-03-17_12h22.53.345,kallum_motion_pilot_GIST_update_2,2026.1.1,Win32,58.13953488,660d675bbdf59327d9deb4ad,69b92ab4aef6dee357cd729a,69b92b3516a5e416439f5b5b,0.0649,0.0649,0,67,67,0,1,onetwo,,,,,,,,,,,,,,,,,,,,,,,,,,,,,,,,,,,,,,,,,,,,,,,,,,,,,,,,,,,,,,,,,,,,,,,,,,,,,,,,,,,,,,,,,,,,,,,,,,,,,,,,,,,,,,,,,,,,,,,,,,,,,,,,,,,,,,,,,
,,660d675bbdf59327d9deb4ad,2026-03-17_12h22.53.345,kallum_motion_pilot_GIST_update_2,2026.1.1,Win32,58.13953488,660d675bbdf59327d9deb4ad,69b92ab4aef6dee357cd729a,69b92b3516a5e416439f5b5b,0.0652,0.0652,0,68,68,60,1,threeone,,,,,,,,,,,,,,,,,,,,,,,,,,,,,,,,,,,,,,,,,,,,,,,,,,,,,,,,,,,,,,,,,,,,,,,,,,,,,,,,,,,,,,,,,,,,,,,,,,,,,,,,,,,,,,,,,,,,,,,,,,,,,,,,,,,,,,,,,
,,660d675bbdf59327d9deb4ad,2026-03-17_12h22.53.345,kallum_motion_pilot_GIST_update_2,2026.1.1,Win32,58.13953488,660d675bbdf59327d9deb4ad,69b92ab4aef6dee357cd729a,69b92b3516a5e416439f5b5b,0.0655,0.0655,0,69,69,109,1,seveneight,,,,,,,,,,,,,,,,,,,,,,,,,,,,,,,,,,,,,,,,,,,,,,,,,,,,,,,,,,,,,,,,,,,,,,,,,,,,,,,,,,,,,,,,,,,,,,,,,,,,,,,,,,,,,,,,,,,,,,,,,,,,,,,,,,,,,,,,,
,,660d675bbdf59327d9deb4ad,2026-03-17_12h22.53.345,kallum_motion_pilot_GIST_update_2,2026.1.1,Win32,58.13953488,660d675bbdf59327d9deb4ad,69b92ab4aef6dee357cd729a,69b92b3516a5e416439f5b5b,0.0658,0.0658,0,70,70,56,1,onetwo,,,,,,,,,,,,,,,,,,,,,,,,,,,,,,,,,,,,,,,,,,,,,,,,,,,,,,,,,,,,,,,,,,,,,,,,,,,,,,,,,,,,,,,,,,,,,,,,,,,,,,,,,,,,,,,,,,,,,,,,,,,,,,,,,,,,,,,,,
,,660d675bbdf59327d9deb4ad,2026-03-17_12h22.53.345,kallum_motion_pilot_GIST_update_2,2026.1.1,Win32,58.13953488,660d675bbdf59327d9deb4ad,69b92ab4aef6dee357cd729a,69b92b3516a5e416439f5b5b,0.066,0.0661,0,71,71,130,1,sixfive,,,,,,,,,,,,,,,,,,,,,,,,,,,,,,,,,,,,,,,,,,,,,,,,,,,,,,,,,,,,,,,,,,,,,,,,,,,,,,,,,,,,,,,,,,,,,,,,,,,,,,,,,,,,,,,,,,,,,,,,,,,,,,,,,,,,,,,,,
,,660d675bbdf59327d9deb4ad,2026-03-17_12h22.53.345,kallum_motion_pilot_GIST_update_2,2026.1.1,Win32,58.13953488,660d675bbdf59327d9deb4ad,69b92ab4aef6dee357cd729a,69b92b3516a5e416439f5b5b,0.0664,0.0664,0,72,72,121,1,fiveseven,,,,,,,,,,,,,,,,,,,,,,,,,,,,,,,,,,,,,,,,,,,,,,,,,,,,,,,,,,,,,,,,,,,,,,,,,,,,,,,,,,,,,,,,,,,,,,,,,,,,,,,,,,,,,,,,,,,,,,,,,,,,,,,,,,,,,,,,,
,,660d675bbdf59327d9deb4ad,2026-03-17_12h22.53.345,kallum_motion_pilot_GIST_update_2,2026.1.1,Win32,58.13953488,660d675bbdf59327d9deb4ad,69b92ab4aef6dee357cd729a,69b92b3516a5e416439f5b5b,0.0667,0.0667,0,73,73,89,1,fiveseven,,,,,,,,,,,,,,,,,,,,,,,,,,,,,,,,,,,,,,,,,,,,,,,,,,,,,,,,,,,,,,,,,,,,,,,,,,,,,,,,,,,,,,,,,,,,,,,,,,,,,,,,,,,,,,,,,,,,,,,,,,,,,,,,,,,,,,,,,
,,660d675bbdf59327d9deb4ad,2026-03-17_12h22.53.345,kallum_motion_pilot_GIST_update_2,2026.1.1,Win32,58.13953488,660d675bbdf59327d9deb4ad,69b92ab4aef6dee357cd729a,69b92b3516a5e416439f5b5b,0.067,0.067,0,74,74,118,1,eightsix,,,,,,,,,,,,,,,,,,,,,,,,,,,,,,,,,,,,,,,,,,,,,,,,,,,,,,,,,,,,,,,,,,,,,,,,,,,,,,,,,,,,,,,,,,,,,,,,,,,,,,,,,,,,,,,,,,,,,,,,,,,,,,,,,,,,,,,,,
,,660d675bbdf59327d9deb4ad,2026-03-17_12h22.53.345,kallum_motion_pilot_GIST_update_2,2026.1.1,Win32,58.13953488,660d675bbdf59327d9deb4ad,69b92ab4aef6dee357cd729a,69b92b3516a5e416439f5b5b,0.0673,0.0673,0,75,75,24,1,onetwo,,,,,,,,,,,,,,,,,,,,,,,,,,,,,,,,,,,,,,,,,,,,,,,,,,,,,,,,,,,,,,,,,,,,,,,,,,,,,,,,,,,,,,,,,,,,,,,,,,,,,,,,,,,,,,,,,,,,,,,,,,,,,,,,,,,,,,,,,
,,660d675bbdf59327d9deb4ad,2026-03-17_12h22.53.345,kallum_motion_pilot_GIST_update_2,2026.1.1,Win32,58.13953488,660d675bbdf59327d9deb4ad,69b92ab4aef6dee357cd729a,69b92b3516a5e416439f5b5b,0.0676,0.0676,0,76,76,34,1,twoone,,,,,,,,,,,,,,,,,,,,,,,,,,,,,,,,,,,,,,,,,,,,,,,,,,,,,,,,,,,,,,,,,,,,,,,,,,,,,,,,,,,,,,,,,,,,,,,,,,,,,,,,,,,,,,,,,,,,,,,,,,,,,,,,,,,,,,,,,
,,660d675bbdf59327d9deb4ad,2026-03-17_12h22.53.345,kallum_motion_pilot_GIST_update_2,2026.1.1,Win32,58.13953488,660d675bbdf59327d9deb4ad,69b92ab4aef6dee357cd729a,69b92b3516a5e416439f5b5b,0.0679,0.0679,0,77,77,85,1,seveneight,,,,,,,,,,,,,,,,,,,,,,,,,,,,,,,,,,,,,,,,,,,,,,,,,,,,,,,,,,,,,,,,,,,,,,,,,,,,,,,,,,,,,,,,,,,,,,,,,,,,,,,,,,,,,,,,,,,,,,,,,,,,,,,,,,,,,,,,,
,,660d675bbdf59327d9deb4ad,2026-03-17_12h22.53.345,kallum_motion_pilot_GIST_update_2,2026.1.1,Win32,58.13953488,660d675bbdf59327d9deb4ad,69b92ab4aef6dee357cd729a,69b92b3516a5e416439f5b5b,0.0681,0.0681,0,78,78,7,1,fourthree,,,,,,,,,,,,,,,,,,,,,,,,,,,,,,,,,,,,,,,,,,,,,,,,,,,,,,,,,,,,,,,,,,,,,,,,,,,,,,,,,,,,,,,,,,,,,,,,,,,,,,,,,,,,,,,,,,,,,,,,,,,,,,,,,,,,,,,,,
,,660d675bbdf59327d9deb4ad,2026-03-17_12h22.53.345,kallum_motion_pilot_GIST_update_2,2026.1.1,Win32,58.13953488,660d675bbdf59327d9deb4ad,69b92ab4aef6dee357cd729a,69b92b3516a5e416439f5b5b,0.0685,0.0685,0,79,79,91,1,sixeight,,,,,,,,,,,,,,,,,,,,,,,,,,,,,,,,,,,,,,,,,,,,,,,,,,,,,,,,,,,,,,,,,,,,,,,,,,,,,,,,,,,,,,,,,,,,,,,,,,,,,,,,,,,,,,,,,,,,,,,,,,,,,,,,,,,,,,,,,
,,660d675bbdf59327d9deb4ad,2026-03-17_12h22.53.345,kallum_motion_pilot_GIST_update_2,2026.1.1,Win32,58.13953488,660d675bbdf59327d9deb4ad,69b92ab4aef6dee357cd729a,69b92b3516a5e416439f5b5b,0.0687,0.0687,0,80,80,17,1,onethree,,,,,,,,,,,,,,,,,,,,,,,,,,,,,,,,,,,,,,,,,,,,,,,,,,,,,,,,,,,,,,,,,,,,,,,,,,,,,,,,,,,,,,,,,,,,,,,,,,,,,,,,,,,,,,,,,,,,,,,,,,,,,,,,,,,,,,,,,
,,660d675bbdf59327d9deb4ad,2026-03-17_12h22.53.345,kallum_motion_pilot_GIST_update_2,2026.1.1,Win32,58.13953488,660d675bbdf59327d9deb4ad,69b92ab4aef6dee357cd729a,69b92b3516a5e416439f5b5b,0.0691,0.0691,0,81,81,122,1,sixfive,,,,,,,,,,,,,,,,,,,,,,,,,,,,,,,,,,,,,,,,,,,,,,,,,,,,,,,,,,,,,,,,,,,,,,,,,,,,,,,,,,,,,,,,,,,,,,,,,,,,,,,,,,,,,,,,,,,,,,,,,,,,,,,,,,,,,,,,,
,,660d675bbdf59327d9deb4ad,2026-03-17_12h22.53.345,kallum_motion_pilot_GIST_update_2,2026.1.1,Win32,58.13953488,660d675bbdf59327d9deb4ad,69b92ab4aef6dee357cd729a,69b92b3516a5e416439f5b5b,0.0693,0.0693,0,82,82,125,1,seveneight,,,,,,,,,,,,,,,,,,,,,,,,,,,,,,,,,,,,,,,,,,,,,,,,,,,,,,,,,,,,,,,,,,,,,,,,,,,,,,,,,,,,,,,,,,,,,,,,,,,,,,,,,,,,,,,,,,,,,,,,,,,,,,,,,,,,,,,,,
,,660d675bbdf59327d9deb4ad,2026-03-17_12h22.53.345,kallum_motion_pilot_GIST_update_2,2026.1.1,Win32,58.13953488,660d675bbdf59327d9deb4ad,69b92ab4aef6dee357cd729a,69b92b3516a5e416439f5b5b,0.0697,0.0697,0,83,83,80,1,fivesix,,,,,,,,,,,,,,,,,,,,,,,,,,,,,,,,,,,,,,,,,,,,,,,,,,,,,,,,,,,,,,,,,,,,,,,,,,,,,,,,,,,,,,,,,,,,,,,,,,,,,,,,,,,,,,,,,,,,,,,,,,,,,,,,,,,,,,,,,
,,660d675bbdf59327d9deb4ad,2026-03-17_12h22.53.345,kallum_motion_pilot_GIST_update_2,2026.1.1,Win32,58.13953488,660d675bbdf59327d9deb4ad,69b92ab4aef6dee357cd729a,69b92b3516a5e416439f5b5b,0.0699,0.0699,0,84,84,116,1,sevenfive,,,,,,,,,,,,,,,,,,,,,,,,,,,,,,,,,,,,,,,,,,,,,,,,,,,,,,,,,,,,,,,,,,,,,,,,,,,,,,,,,,,,,,,,,,,,,,,,,,,,,,,,,,,,,,,,,,,,,,,,,,,,,,,,,,,,,,,,,
,,660d675bbdf59327d9deb4ad,2026-03-17_12h22.53.345,kallum_motion_pilot_GIST_update_2,2026.1.1,Win32,58.13953488,660d675bbdf59327d9deb4ad,69b92ab4aef6dee357cd729a,69b92b3516a5e416439f5b5b,0.0702,0.0703,0,85,85,18,1,twoone,,,,,,,,,,,,,,,,,,,,,,,,,,,,,,,,,,,,,,,,,,,,,,,,,,,,,,,,,,,,,,,,,,,,,,,,,,,,,,,,,,,,,,,,,,,,,,,,,,,,,,,,,,,,,,,,,,,,,,,,,,,,,,,,,,,,,,,,,
,,660d675bbdf59327d9deb4ad,2026-03-17_12h22.53.345,kallum_motion_pilot_GIST_update_2,2026.1.1,Win32,58.13953488,660d675bbdf59327d9deb4ad,69b92ab4aef6dee357cd729a,69b92b3516a5e416439f5b5b,0.0705,0.0705,0,86,86,12,1,threeone,,,,,,,,,,,,,,,,,,,,,,,,,,,,,,,,,,,,,,,,,,,,,,,,,,,,,,,,,,,,,,,,,,,,,,,,,,,,,,,,,,,,,,,,,,,,,,,,,,,,,,,,,,,,,,,,,,,,,,,,,,,,,,,,,,,,,,,,,
,,660d675bbdf59327d9deb4ad,2026-03-17_12h22.53.345,kallum_motion_pilot_GIST_update_2,2026.1.1,Win32,58.13953488,660d675bbdf59327d9deb4ad,69b92ab4aef6dee357cd729a,69b92b3516a5e416439f5b5b,0.0709,0.0709,0,87,87,28,1,threeone,,,,,,,,,,,,,,,,,,,,,,,,,,,,,,,,,,,,,,,,,,,,,,,,,,,,,,,,,,,,,,,,,,,,,,,,,,,,,,,,,,,,,,,,,,,,,,,,,,,,,,,,,,,,,,,,,,,,,,,,,,,,,,,,,,,,,,,,,
,,660d675bbdf59327d9deb4ad,2026-03-17_12h22.53.345,kallum_motion_pilot_GIST_update_2,2026.1.1,Win32,58.13953488,660d675bbdf59327d9deb4ad,69b92ab4aef6dee357cd729a,69b92b3516a5e416439f5b5b,0.0712,0.0712,0,88,88,55,1,fourthree,,,,,,,,,,,,,,,,,,,,,,,,,,,,,,,,,,,,,,,,,,,,,,,,,,,,,,,,,,,,,,,,,,,,,,,,,,,,,,,,,,,,,,,,,,,,,,,,,,,,,,,,,,,,,,,,,,,,,,,,,,,,,,,,,,,,,,,,,
,,660d675bbdf59327d9deb4ad,2026-03-17_12h22.53.345,kallum_motion_pilot_GIST_update_2,2026.1.1,Win32,58.13953488,660d675bbdf59327d9deb4ad,69b92ab4aef6dee357cd729a,69b92b3516a5e416439f5b5b,0.0714,0.0714,0,89,89,82,1,sixfive,,,,,,,,,,,,,,,,,,,,,,,,,,,,,,,,,,,,,,,,,,,,,,,,,,,,,,,,,,,,,,,,,,,,,,,,,,,,,,,,,,,,,,,,,,,,,,,,,,,,,,,,,,,,,,,,,,,,,,,,,,,,,,,,,,,,,,,,,
,,660d675bbdf59327d9deb4ad,2026-03-17_12h22.53.345,kallum_motion_pilot_GIST_update_2,2026.1.1,Win32,58.13953488,660d675bbdf59327d9deb4ad,69b92ab4aef6dee357cd729a,69b92b3516a5e416439f5b5b,0.0717,0.0718,0,90,90,135,1,eightseven,,,,,,,,,,,,,,,,,,,,,,,,,,,,,,,,,,,,,,,,,,,,,,,,,,,,,,,,,,,,,,,,,,,,,,,,,,,,,,,,,,,,,,,,,,,,,,,,,,,,,,,,,,,,,,,,,,,,,,,,,,,,,,,,,,,,,,,,,
,,660d675bbdf59327d9deb4ad,2026-03-17_12h22.53.345,kallum_motion_pilot_GIST_update_2,2026.1.1,Win32,58.13953488,660d675bbdf59327d9deb4ad,69b92ab4aef6dee357cd729a,69b92b3516a5e416439f5b5b,0.0722,0.0722,0,91,91,142,1,eightsix,,,,,,,,,,,,,,,,,,,,,,,,,,,,,,,,,,,,,,,,,,,,,,,,,,,,,,,,,,,,,,,,,,,,,,,,,,,,,,,,,,,,,,,,,,,,,,,,,,,,,,,,,,,,,,,,,,,,,,,,,,,,,,,,,,,,,,,,,
,,660d675bbdf59327d9deb4ad,2026-03-17_12h22.53.345,kallum_motion_pilot_GIST_update_2,2026.1.1,Win32,58.13953488,660d675bbdf59327d9deb4ad,69b92ab4aef6dee357cd729a,69b92b3516a5e416439f5b5b,0.0728,0.0729,0,92,92,70,1,fourtwo,,,,,,,,,,,,,,,,,,,,,,,,,,,,,,,,,,,,,,,,,,,,,,,,,,,,,,,,,,,,,,,,,,,,,,,,,,,,,,,,,,,,,,,,,,,,,,,,,,,,,,,,,,,,,,,,,,,,,,,,,,,,,,,,,,,,,,,,,
,,660d675bbdf59327d9deb4ad,2026-03-17_12h22.53.345,kallum_motion_pilot_GIST_update_2,2026.1.1,Win32,58.13953488,660d675bbdf59327d9deb4ad,69b92ab4aef6dee357cd729a,69b92b3516a5e416439f5b5b,0.0732,0.0733,0,93,93,157,1,seveneight,,,,,,,,,,,,,,,,,,,,,,,,,,,,,,,,,,,,,,,,,,,,,,,,,,,,,,,,,,,,,,,,,,,,,,,,,,,,,,,,,,,,,,,,,,,,,,,,,,,,,,,,,,,,,,,,,,,,,,,,,,,,,,,,,,,,,,,,,
,,660d675bbdf59327d9deb4ad,2026-03-17_12h22.53.345,kallum_motion_pilot_GIST_update_2,2026.1.1,Win32,58.13953488,660d675bbdf59327d9deb4ad,69b92ab4aef6dee357cd729a,69b92b3516a5e416439f5b5b,0.0736,0.0736,0,94,94,126,1,eightsix,,,,,,,,,,,,,,,,,,,,,,,,,,,,,,,,,,,,,,,,,,,,,,,,,,,,,,,,,,,,,,,,,,,,,,,,,,,,,,,,,,,,,,,,,,,,,,,,,,,,,,,,,,,,,,,,,,,,,,,,,,,,,,,,,,,,,,,,,
,,660d675bbdf59327d9deb4ad,2026-03-17_12h22.53.345,kallum_motion_pilot_GIST_update_2,2026.1.1,Win32,58.13953488,660d675bbdf59327d9deb4ad,69b92ab4aef6dee357cd729a,69b92b3516a5e416439f5b5b,0.0738,0.0739,0,95,95,90,1,sixfive,,,,,,,,,,,,,,,,,,,,,,,,,,,,,,,,,,,,,,,,,,,,,,,,,,,,,,,,,,,,,,,,,,,,,,,,,,,,,,,,,,,,,,,,,,,,,,,,,,,,,,,,,,,,,,,,,,,,,,,,,,,,,,,,,,,,,,,,,
,,660d675bbdf59327d9deb4ad,2026-03-17_12h22.53.345,kallum_motion_pilot_GIST_update_2,2026.1.1,Win32,58.13953488,660d675bbdf59327d9deb4ad,69b92ab4aef6dee357cd729a,69b92b3516a5e416439f5b5b,0.0741,0.0742,0,96,96,111,1,eightseven,,,,,,,,,,,,,,,,,,,,,,,,,,,,,,,,,,,,,,,,,,,,,,,,,,,,,,,,,,,,,,,,,,,,,,,,,,,,,,,,,,,,,,,,,,,,,,,,,,,,,,,,,,,,,,,,,,,,,,,,,,,,,,,,,,,,,,,,,
,,660d675bbdf59327d9deb4ad,2026-03-17_12h22.53.345,kallum_motion_pilot_GIST_update_2,2026.1.1,Win32,58.13953488,660d675bbdf59327d9deb4ad,69b92ab4aef6dee357cd729a,69b92b3516a5e416439f5b5b,0.0745,0.0745,0,97,97,61,1,threefour,,,,,,,,,,,,,,,,,,,,,,,,,,,,,,,,,,,,,,,,,,,,,,,,,,,,,,,,,,,,,,,,,,,,,,,,,,,,,,,,,,,,,,,,,,,,,,,,,,,,,,,,,,,,,,,,,,,,,,,,,,,,,,,,,,,,,,,,,
,,660d675bbdf59327d9deb4ad,2026-03-17_12h22.53.345,kallum_motion_pilot_GIST_update_2,2026.1.1,Win32,58.13953488,660d675bbdf59327d9deb4ad,69b92ab4aef6dee357cd729a,69b92b3516a5e416439f5b5b,0.0748,0.0748,0,98,98,45,1,threefour,,,,,,,,,,,,,,,,,,,,,,,,,,,,,,,,,,,,,,,,,,,,,,,,,,,,,,,,,,,,,,,,,,,,,,,,,,,,,,,,,,,,,,,,,,,,,,,,,,,,,,,,,,,,,,,,,,,,,,,,,,,,,,,,,,,,,,,,,
,,660d675bbdf59327d9deb4ad,2026-03-17_12h22.53.345,kallum_motion_pilot_GIST_update_2,2026.1.1,Win32,58.13953488,660d675bbdf59327d9deb4ad,69b92ab4aef6dee357cd729a,69b92b3516a5e416439f5b5b,0.075,0.075,0,99,99,151,1,eightseven,,,,,,,,,,,,,,,,,,,,,,,,,,,,,,,,,,,,,,,,,,,,,,,,,,,,,,,,,,,,,,,,,,,,,,,,,,,,,,,,,,,,,,,,,,,,,,,,,,,,,,,,,,,,,,,,,,,,,,,,,,,,,,,,,,,,,,,,,
,,660d675bbdf59327d9deb4ad,2026-03-17_12h22.53.345,kallum_motion_pilot_GIST_update_2,2026.1.1,Win32,58.13953488,660d675bbdf59327d9deb4ad,69b92ab4aef6dee357cd729a,69b92b3516a5e416439f5b5b,0.0754,0.0754,0,100,100,43,1,twofour,,,,,,,,,,,,,,,,,,,,,,,,,,,,,,,,,,,,,,,,,,,,,,,,,,,,,,,,,,,,,,,,,,,,,,,,,,,,,,,,,,,,,,,,,,,,,,,,,,,,,,,,,,,,,,,,,,,,,,,,,,,,,,,,,,,,,,,,,
,,660d675bbdf59327d9deb4ad,2026-03-17_12h22.53.345,kallum_motion_pilot_GIST_update_2,2026.1.1,Win32,58.13953488,660d675bbdf59327d9deb4ad,69b92ab4aef6dee357cd729a,69b92b3516a5e416439f5b5b,0.0756,0.0757,0,101,101,154,1,sixfive,,,,,,,,,,,,,,,,,,,,,,,,,,,,,,,,,,,,,,,,,,,,,,,,,,,,,,,,,,,,,,,,,,,,,,,,,,,,,,,,,,,,,,,,,,,,,,,,,,,,,,,,,,,,,,,,,,,,,,,,,,,,,,,,,,,,,,,,,
,,660d675bbdf59327d9deb4ad,2026-03-17_12h22.53.345,kallum_motion_pilot_GIST_update_2,2026.1.1,Win32,58.13953488,660d675bbdf59327d9deb4ad,69b92ab4aef6dee357cd729a,69b92b3516a5e416439f5b5b,0.076,0.076,0,102,102,106,1,sixfive,,,,,,,,,,,,,,,,,,,,,,,,,,,,,,,,,,,,,,,,,,,,,,,,,,,,,,,,,,,,,,,,,,,,,,,,,,,,,,,,,,,,,,,,,,,,,,,,,,,,,,,,,,,,,,,,,,,,,,,,,,,,,,,,,,,,,,,,,
,,660d675bbdf59327d9deb4ad,2026-03-17_12h22.53.345,kallum_motion_pilot_GIST_update_2,2026.1.1,Win32,58.13953488,660d675bbdf59327d9deb4ad,69b92ab4aef6dee357cd729a,69b92b3516a5e416439f5b5b,0.0763,0.0763,0,103,103,41,1,onethree,,,,,,,,,,,,,,,,,,,,,,,,,,,,,,,,,,,,,,,,,,,,,,,,,,,,,,,,,,,,,,,,,,,,,,,,,,,,,,,,,,,,,,,,,,,,,,,,,,,,,,,,,,,,,,,,,,,,,,,,,,,,,,,,,,,,,,,,,
,,660d675bbdf59327d9deb4ad,2026-03-17_12h22.53.345,kallum_motion_pilot_GIST_update_2,2026.1.1,Win32,58.13953488,660d675bbdf59327d9deb4ad,69b92ab4aef6dee357cd729a,69b92b3516a5e416439f5b5b,0.0766,0.0766,0,104,104,127,1,eightseven,,,,,,,,,,,,,,,,,,,,,,,,,,,,,,,,,,,,,,,,,,,,,,,,,,,,,,,,,,,,,,,,,,,,,,,,,,,,,,,,,,,,,,,,,,,,,,,,,,,,,,,,,,,,,,,,,,,,,,,,,,,,,,,,,,,,,,,,,
,,660d675bbdf59327d9deb4ad,2026-03-17_12h22.53.345,kallum_motion_pilot_GIST_update_2,2026.1.1,Win32,58.13953488,660d675bbdf59327d9deb4ad,69b92ab4aef6dee357cd729a,69b92b3516a5e416439f5b5b,0.0769,0.0769,0,105,105,23,1,fourthree,,,,,,,,,,,,,,,,,,,,,,,,,,,,,,,,,,,,,,,,,,,,,,,,,,,,,,,,,,,,,,,,,,,,,,,,,,,,,,,,,,,,,,,,,,,,,,,,,,,,,,,,,,,,,,,,,,,,,,,,,,,,,,,,,,,,,,,,,
,,660d675bbdf59327d9deb4ad,2026-03-17_12h22.53.345,kallum_motion_pilot_GIST_update_2,2026.1.1,Win32,58.13953488,660d675bbdf59327d9deb4ad,69b92ab4aef6dee357cd729a,69b92b3516a5e416439f5b5b,0.0772,0.0772,0,106,106,148,1,sevenfive,,,,,,,,,,,,,,,,,,,,,,,,,,,,,,,,,,,,,,,,,,,,,,,,,,,,,,,,,,,,,,,,,,,,,,,,,,,,,,,,,,,,,,,,,,,,,,,,,,,,,,,,,,,,,,,,,,,,,,,,,,,,,,,,,,,,,,,,,
,,660d675bbdf59327d9deb4ad,2026-03-17_12h22.53.345,kallum_motion_pilot_GIST_update_2,2026.1.1,Win32,58.13953488,660d675bbdf59327d9deb4ad,69b92ab4aef6dee357cd729a,69b92b3516a5e416439f5b5b,0.0774,0.0774,0,107,107,25,1,onethree,,,,,,,,,,,,,,,,,,,,,,,,,,,,,,,,,,,,,,,,,,,,,,,,,,,,,,,,,,,,,,,,,,,,,,,,,,,,,,,,,,,,,,,,,,,,,,,,,,,,,,,,,,,,,,,,,,,,,,,,,,,,,,,,,,,,,,,,,
,,660d675bbdf59327d9deb4ad,2026-03-17_12h22.53.345,kallum_motion_pilot_GIST_update_2,2026.1.1,Win32,58.13953488,660d675bbdf59327d9deb4ad,69b92ab4aef6dee357cd729a,69b92b3516a5e416439f5b5b,0.0778,0.0778,0,108,108,100,1,sevenfive,,,,,,,,,,,,,,,,,,,,,,,,,,,,,,,,,,,,,,,,,,,,,,,,,,,,,,,,,,,,,,,,,,,,,,,,,,,,,,,,,,,,,,,,,,,,,,,,,,,,,,,,,,,,,,,,,,,,,,,,,,,,,,,,,,,,,,,,,
,,660d675bbdf59327d9deb4ad,2026-03-17_12h22.53.345,kallum_motion_pilot_GIST_update_2,2026.1.1,Win32,58.13953488,660d675bbdf59327d9deb4ad,69b92ab4aef6dee357cd729a,69b92b3516a5e416439f5b5b,0.0781,0.0781,0,109,109,73,1,onethree,,,,,,,,,,,,,,,,,,,,,,,,,,,,,,,,,,,,,,,,,,,,,,,,,,,,,,,,,,,,,,,,,,,,,,,,,,,,,,,,,,,,,,,,,,,,,,,,,,,,,,,,,,,,,,,,,,,,,,,,,,,,,,,,,,,,,,,,,
,,660d675bbdf59327d9deb4ad,2026-03-17_12h22.53.345,kallum_motion_pilot_GIST_update_2,2026.1.1,Win32,58.13953488,660d675bbdf59327d9deb4ad,69b92ab4aef6dee357cd729a,69b92b3516a5e416439f5b5b,0.0784,0.0784,0,110,110,42,1,twoone,,,,,,,,,,,,,,,,,,,,,,,,,,,,,,,,,,,,,,,,,,,,,,,,,,,,,,,,,,,,,,,,,,,,,,,,,,,,,,,,,,,,,,,,,,,,,,,,,,,,,,,,,,,,,,,,,,,,,,,,,,,,,,,,,,,,,,,,,
,,660d675bbdf59327d9deb4ad,2026-03-17_12h22.53.345,kallum_motion_pilot_GIST_update_2,2026.1.1,Win32,58.13953488,660d675bbdf59327d9deb4ad,69b92ab4aef6dee357cd729a,69b92b3516a5e416439f5b5b,0.0787,0.0787,0,111,111,124,1,sevenfive,,,,,,,,,,,,,,,,,,,,,,,,,,,,,,,,,,,,,,,,,,,,,,,,,,,,,,,,,,,,,,,,,,,,,,,,,,,,,,,,,,,,,,,,,,,,,,,,,,,,,,,,,,,,,,,,,,,,,,,,,,,,,,,,,,,,,,,,,
,,660d675bbdf59327d9deb4ad,2026-03-17_12h22.53.345,kallum_motion_pilot_GIST_update_2,2026.1.1,Win32,58.13953488,660d675bbdf59327d9deb4ad,69b92ab4aef6dee357cd729a,69b92b3516a5e416439f5b5b,0.079,0.079,0,112,112,57,1,onethree,,,,,,,,,,,,,,,,,,,,,,,,,,,,,,,,,,,,,,,,,,,,,,,,,,,,,,,,,,,,,,,,,,,,,,,,,,,,,,,,,,,,,,,,,,,,,,,,,,,,,,,,,,,,,,,,,,,,,,,,,,,,,,,,,,,,,,,,,
,,660d675bbdf59327d9deb4ad,2026-03-17_12h22.53.345,kallum_motion_pilot_GIST_update_2,2026.1.1,Win32,58.13953488,660d675bbdf59327d9deb4ad,69b92ab4aef6dee357cd729a,69b92b3516a5e416439f5b5b,0.0792,0.0793,0,113,113,46,1,fourtwo,,,,,,,,,,,,,,,,,,,,,,,,,,,,,,,,,,,,,,,,,,,,,,,,,,,,,,,,,,,,,,,,,,,,,,,,,,,,,,,,,,,,,,,,,,,,,,,,,,,,,,,,,,,,,,,,,,,,,,,,,,,,,,,,,,,,,,,,,
,,660d675bbdf59327d9deb4ad,2026-03-17_12h22.53.345,kallum_motion_pilot_GIST_update_2,2026.1.1,Win32,58.13953488,660d675bbdf59327d9deb4ad,69b92ab4aef6dee357cd729a,69b92b3516a5e416439f5b5b,0.0795,0.0795,0,114,114,144,1,fivesix,,,,,,,,,,,,,,,,,,,,,,,,,,,,,,,,,,,,,,,,,,,,,,,,,,,,,,,,,,,,,,,,,,,,,,,,,,,,,,,,,,,,,,,,,,,,,,,,,,,,,,,,,,,,,,,,,,,,,,,,,,,,,,,,,,,,,,,,,
,,660d675bbdf59327d9deb4ad,2026-03-17_12h22.53.345,kallum_motion_pilot_GIST_update_2,2026.1.1,Win32,58.13953488,660d675bbdf59327d9deb4ad,69b92ab4aef6dee357cd729a,69b92b3516a5e416439f5b5b,0.0798,0.0799,0,115,115,88,1,fivesix,,,,,,,,,,,,,,,,,,,,,,,,,,,,,,,,,,,,,,,,,,,,,,,,,,,,,,,,,,,,,,,,,,,,,,,,,,,,,,,,,,,,,,,,,,,,,,,,,,,,,,,,,,,,,,,,,,,,,,,,,,,,,,,,,,,,,,,,,
,,660d675bbdf59327d9deb4ad,2026-03-17_12h22.53.345,kallum_motion_pilot_GIST_update_2,2026.1.1,Win32,58.13953488,660d675bbdf59327d9deb4ad,69b92ab4aef6dee357cd729a,69b92b3516a5e416439f5b5b,0.0801,0.0801,0,116,116,59,1,twofour,,,,,,,,,,,,,,,,,,,,,,,,,,,,,,,,,,,,,,,,,,,,,,,,,,,,,,,,,,,,,,,,,,,,,,,,,,,,,,,,,,,,,,,,,,,,,,,,,,,,,,,,,,,,,,,,,,,,,,,,,,,,,,,,,,,,,,,,,
,,660d675bbdf59327d9deb4ad,2026-03-17_12h22.53.345,kallum_motion_pilot_GIST_update_2,2026.1.1,Win32,58.13953488,660d675bbdf59327d9deb4ad,69b92ab4aef6dee357cd729a,69b92b3516a5e416439f5b5b,0.0804,0.0804,0,117,117,96,1,fivesix,,,,,,,,,,,,,,,,,,,,,,,,,,,,,,,,,,,,,,,,,,,,,,,,,,,,,,,,,,,,,,,,,,,,,,,,,,,,,,,,,,,,,,,,,,,,,,,,,,,,,,,,,,,,,,,,,,,,,,,,,,,,,,,,,,,,,,,,,
,,660d675bbdf59327d9deb4ad,2026-03-17_12h22.53.345,kallum_motion_pilot_GIST_update_2,2026.1.1,Win32,58.13953488,660d675bbdf59327d9deb4ad,69b92ab4aef6dee357cd729a,69b92b3516a5e416439f5b5b,0.0807,0.0808,0,118,118,9,1,onethree,,,,,,,,,,,,,,,,,,,,,,,,,,,,,,,,,,,,,,,,,,,,,,,,,,,,,,,,,,,,,,,,,,,,,,,,,,,,,,,,,,,,,,,,,,,,,,,,,,,,,,,,,,,,,,,,,,,,,,,,,,,,,,,,,,,,,,,,,
,,660d675bbdf59327d9deb4ad,2026-03-17_12h22.53.345,kallum_motion_pilot_GIST_update_2,2026.1.1,Win32,58.13953488,660d675bbdf59327d9deb4ad,69b92ab4aef6dee357cd729a,69b92b3516a5e416439f5b5b,0.081,0.0811,0,119,119,155,1,sixeight,,,,,,,,,,,,,,,,,,,,,,,,,,,,,,,,,,,,,,,,,,,,,,,,,,,,,,,,,,,,,,,,,,,,,,,,,,,,,,,,,,,,,,,,,,,,,,,,,,,,,,,,,,,,,,,,,,,,,,,,,,,,,,,,,,,,,,,,,
,,660d675bbdf59327d9deb4ad,2026-03-17_12h22.53.345,kallum_motion_pilot_GIST_update_2,2026.1.1,Win32,58.13953488,660d675bbdf59327d9deb4ad,69b92ab4aef6dee357cd729a,69b92b3516a5e416439f5b5b,0.0813,0.0813,0,120,120,75,1,twofour,,,,,,,,,,,,,,,,,,,,,,,,,,,,,,,,,,,,,,,,,,,,,,,,,,,,,,,,,,,,,,,,,,,,,,,,,,,,,,,,,,,,,,,,,,,,,,,,,,,,,,,,,,,,,,,,,,,,,,,,,,,,,,,,,,,,,,,,,
,,660d675bbdf59327d9deb4ad,2026-03-17_12h22.53.345,kallum_motion_pilot_GIST_update_2,2026.1.1,Win32,58.13953488,660d675bbdf59327d9deb4ad,69b92ab4aef6dee357cd729a,69b92b3516a5e416439f5b5b,0.0817,0.0817,0,121,121,48,1,onetwo,,,,,,,,,,,,,,,,,,,,,,,,,,,,,,,,,,,,,,,,,,,,,,,,,,,,,,,,,,,,,,,,,,,,,,,,,,,,,,,,,,,,,,,,,,,,,,,,,,,,,,,,,,,,,,,,,,,,,,,,,,,,,,,,,,,,,,,,,
,,660d675bbdf59327d9deb4ad,2026-03-17_12h22.53.345,kallum_motion_pilot_GIST_update_2,2026.1.1,Win32,58.13953488,660d675bbdf59327d9deb4ad,69b92ab4aef6dee357cd729a,69b92b3516a5e416439f5b5b,0.082,0.082,0,122,122,120,1,fivesix,,,,,,,,,,,,,,,,,,,,,,,,,,,,,,,,,,,,,,,,,,,,,,,,,,,,,,,,,,,,,,,,,,,,,,,,,,,,,,,,,,,,,,,,,,,,,,,,,,,,,,,,,,,,,,,,,,,,,,,,,,,,,,,,,,,,,,,,,
,,660d675bbdf59327d9deb4ad,2026-03-17_12h22.53.345,kallum_motion_pilot_GIST_update_2,2026.1.1,Win32,58.13953488,660d675bbdf59327d9deb4ad,69b92ab4aef6dee357cd729a,69b92b3516a5e416439f5b5b,0.0825,0.0825,0,123,123,63,1,fourthree,,,,,,,,,,,,,,,,,,,,,,,,,,,,,,,,,,,,,,,,,,,,,,,,,,,,,,,,,,,,,,,,,,,,,,,,,,,,,,,,,,,,,,,,,,,,,,,,,,,,,,,,,,,,,,,,,,,,,,,,,,,,,,,,,,,,,,,,,
,,660d675bbdf59327d9deb4ad,2026-03-17_12h22.53.345,kallum_motion_pilot_GIST_update_2,2026.1.1,Win32,58.13953488,660d675bbdf59327d9deb4ad,69b92ab4aef6dee357cd729a,69b92b3516a5e416439f5b5b,0.0828,0.0828,0,124,124,147,1,sixeight,,,,,,,,,,,,,,,,,,,,,,,,,,,,,,,,,,,,,,,,,,,,,,,,,,,,,,,,,,,,,,,,,,,,,,,,,,,,,,,,,,,,,,,,,,,,,,,,,,,,,,,,,,,,,,,,,,,,,,,,,,,,,,,,,,,,,,,,,
,,660d675bbdf59327d9deb4ad,2026-03-17_12h22.53.345,kallum_motion_pilot_GIST_update_2,2026.1.1,Win32,58.13953488,660d675bbdf59327d9deb4ad,69b92ab4aef6dee357cd729a,69b92b3516a5e416439f5b5b,0.0831,0.0832,0,125,125,5,1,threefour,,,,,,,,,,,,,,,,,,,,,,,,,,,,,,,,,,,,,,,,,,,,,,,,,,,,,,,,,,,,,,,,,,,,,,,,,,,,,,,,,,,,,,,,,,,,,,,,,,,,,,,,,,,,,,,,,,,,,,,,,,,,,,,,,,,,,,,,,
,,660d675bbdf59327d9deb4ad,2026-03-17_12h22.53.345,kallum_motion_pilot_GIST_update_2,2026.1.1,Win32,58.13953488,660d675bbdf59327d9deb4ad,69b92ab4aef6dee357cd729a,69b92b3516a5e416439f5b5b,0.0834,0.0835,0,126,126,32,1,onetwo,,,,,,,,,,,,,,,,,,,,,,,,,,,,,,,,,,,,,,,,,,,,,,,,,,,,,,,,,,,,,,,,,,,,,,,,,,,,,,,,,,,,,,,,,,,,,,,,,,,,,,,,,,,,,,,,,,,,,,,,,,,,,,,,,,,,,,,,,
,,660d675bbdf59327d9deb4ad,2026-03-17_12h22.53.345,kallum_motion_pilot_GIST_update_2,2026.1.1,Win32,58.13953488,660d675bbdf59327d9deb4ad,69b92ab4aef6dee357cd729a,69b92b3516a5e416439f5b5b,0.0837,0.0838,0,127,127,113,1,fiveseven,,,,,,,,,,,,,,,,,,,,,,,,,,,,,,,,,,,,,,,,,,,,,,,,,,,,,,,,,,,,,,,,,,,,,,,,,,,,,,,,,,,,,,,,,,,,,,,,,,,,,,,,,,,,,,,,,,,,,,,,,,,,,,,,,,,,,,,,,
,,660d675bbdf59327d9deb4ad,2026-03-17_12h22.53.345,kallum_motion_pilot_GIST_update_2,2026.1.1,Win32,58.13953488,660d675bbdf59327d9deb4ad,69b92ab4aef6dee357cd729a,69b92b3516a5e416439f5b5b,0.084,0.084,0,128,128,143,1,eightseven,,,,,,,,,,,,,,,,,,,,,,,,,,,,,,,,,,,,,,,,,,,,,,,,,,,,,,,,,,,,,,,,,,,,,,,,,,,,,,,,,,,,,,,,,,,,,,,,,,,,,,,,,,,,,,,,,,,,,,,,,,,,,,,,,,,,,,,,,
,,660d675bbdf59327d9deb4ad,2026-03-17_12h22.53.345,kallum_motion_pilot_GIST_update_2,2026.1.1,Win32,58.13953488,660d675bbdf59327d9deb4ad,69b92ab4aef6dee357cd729a,69b92b3516a5e416439f5b5b,0.0843,0.0843,0,129,129,115,1,sixeight,,,,,,,,,,,,,,,,,,,,,,,,,,,,,,,,,,,,,,,,,,,,,,,,,,,,,,,,,,,,,,,,,,,,,,,,,,,,,,,,,,,,,,,,,,,,,,,,,,,,,,,,,,,,,,,,,,,,,,,,,,,,,,,,,,,,,,,,,
,,660d675bbdf59327d9deb4ad,2026-03-17_12h22.53.345,kallum_motion_pilot_GIST_update_2,2026.1.1,Win32,58.13953488,660d675bbdf59327d9deb4ad,69b92ab4aef6dee357cd729a,69b92b3516a5e416439f5b5b,0.0847,0.0847,0,130,130,158,1,eightsix,,,,,,,,,,,,,,,,,,,,,,,,,,,,,,,,,,,,,,,,,,,,,,,,,,,,,,,,,,,,,,,,,,,,,,,,,,,,,,,,,,,,,,,,,,,,,,,,,,,,,,,,,,,,,,,,,,,,,,,,,,,,,,,,,,,,,,,,,
,,660d675bbdf59327d9deb4ad,2026-03-17_12h22.53.345,kallum_motion_pilot_GIST_update_2,2026.1.1,Win32,58.13953488,660d675bbdf59327d9deb4ad,69b92ab4aef6dee357cd729a,69b92b3516a5e416439f5b5b,0.0849,0.0849,0,131,131,83,1,sixeight,,,,,,,,,,,,,,,,,,,,,,,,,,,,,,,,,,,,,,,,,,,,,,,,,,,,,,,,,,,,,,,,,,,,,,,,,,,,,,,,,,,,,,,,,,,,,,,,,,,,,,,,,,,,,,,,,,,,,,,,,,,,,,,,,,,,,,,,,
,,660d675bbdf59327d9deb4ad,2026-03-17_12h22.53.345,kallum_motion_pilot_GIST_update_2,2026.1.1,Win32,58.13953488,660d675bbdf59327d9deb4ad,69b92ab4aef6dee357cd729a,69b92b3516a5e416439f5b5b,0.0853,0.0853,0,132,132,62,1,fourtwo,,,,,,,,,,,,,,,,,,,,,,,,,,,,,,,,,,,,,,,,,,,,,,,,,,,,,,,,,,,,,,,,,,,,,,,,,,,,,,,,,,,,,,,,,,,,,,,,,,,,,,,,,,,,,,,,,,,,,,,,,,,,,,,,,,,,,,,,,
,,660d675bbdf59327d9deb4ad,2026-03-17_12h22.53.345,kallum_motion_pilot_GIST_update_2,2026.1.1,Win32,58.13953488,660d675bbdf59327d9deb4ad,69b92ab4aef6dee357cd729a,69b92b3516a5e416439f5b5b,0.0856,0.0856,0,133,133,39,1,fourthree,,,,,,,,,,,,,,,,,,,,,,,,,,,,,,,,,,,,,,,,,,,,,,,,,,,,,,,,,,,,,,,,,,,,,,,,,,,,,,,,,,,,,,,,,,,,,,,,,,,,,,,,,,,,,,,,,,,,,,,,,,,,,,,,,,,,,,,,,
,,660d675bbdf59327d9deb4ad,2026-03-17_12h22.53.345,kallum_motion_pilot_GIST_update_2,2026.1.1,Win32,58.13953488,660d675bbdf59327d9deb4ad,69b92ab4aef6dee357cd729a,69b92b3516a5e416439f5b5b,0.0859,0.0859,0,134,134,78,1,fourtwo,,,,,,,,,,,,,,,,,,,,,,,,,,,,,,,,,,,,,,,,,,,,,,,,,,,,,,,,,,,,,,,,,,,,,,,,,,,,,,,,,,,,,,,,,,,,,,,,,,,,,,,,,,,,,,,,,,,,,,,,,,,,,,,,,,,,,,,,,
,,660d675bbdf59327d9deb4ad,2026-03-17_12h22.53.345,kallum_motion_pilot_GIST_update_2,2026.1.1,Win32,58.13953488,660d675bbdf59327d9deb4ad,69b92ab4aef6dee357cd729a,69b92b3516a5e416439f5b5b,0.0862,0.0862,0,135,135,137,1,fiveseven,,,,,,,,,,,,,,,,,,,,,,,,,,,,,,,,,,,,,,,,,,,,,,,,,,,,,,,,,,,,,,,,,,,,,,,,,,,,,,,,,,,,,,,,,,,,,,,,,,,,,,,,,,,,,,,,,,,,,,,,,,,,,,,,,,,,,,,,,
,,660d675bbdf59327d9deb4ad,2026-03-17_12h22.53.345,kallum_motion_pilot_GIST_update_2,2026.1.1,Win32,58.13953488,660d675bbdf59327d9deb4ad,69b92ab4aef6dee357cd729a,69b92b3516a5e416439f5b5b,0.0865,0.0865,0,136,136,19,1,twofour,,,,,,,,,,,,,,,,,,,,,,,,,,,,,,,,,,,,,,,,,,,,,,,,,,,,,,,,,,,,,,,,,,,,,,,,,,,,,,,,,,,,,,,,,,,,,,,,,,,,,,,,,,,,,,,,,,,,,,,,,,,,,,,,,,,,,,,,,
,,660d675bbdf59327d9deb4ad,2026-03-17_12h22.53.345,kallum_motion_pilot_GIST_update_2,2026.1.1,Win32,58.13953488,660d675bbdf59327d9deb4ad,69b92ab4aef6dee357cd729a,69b92b3516a5e416439f5b5b,0.0867,0.0867,0,137,137,77,1,threefour,,,,,,,,,,,,,,,,,,,,,,,,,,,,,,,,,,,,,,,,,,,,,,,,,,,,,,,,,,,,,,,,,,,,,,,,,,,,,,,,,,,,,,,,,,,,,,,,,,,,,,,,,,,,,,,,,,,,,,,,,,,,,,,,,,,,,,,,,
,,660d675bbdf59327d9deb4ad,2026-03-17_12h22.53.345,kallum_motion_pilot_GIST_update_2,2026.1.1,Win32,58.13953488,660d675bbdf59327d9deb4ad,69b92ab4aef6dee357cd729a,69b92b3516a5e416439f5b5b,0.0871,0.0871,0,138,138,129,1,fiveseven,,,,,,,,,,,,,,,,,,,,,,,,,,,,,,,,,,,,,,,,,,,,,,,,,,,,,,,,,,,,,,,,,,,,,,,,,,,,,,,,,,,,,,,,,,,,,,,,,,,,,,,,,,,,,,,,,,,,,,,,,,,,,,,,,,,,,,,,,
,,660d675bbdf59327d9deb4ad,2026-03-17_12h22.53.345,kallum_motion_pilot_GIST_update_2,2026.1.1,Win32,58.13953488,660d675bbdf59327d9deb4ad,69b92ab4aef6dee357cd729a,69b92b3516a5e416439f5b5b,0.0874,0.0874,0,139,139,136,1,fivesix,,,,,,,,,,,,,,,,,,,,,,,,,,,,,,,,,,,,,,,,,,,,,,,,,,,,,,,,,,,,,,,,,,,,,,,,,,,,,,,,,,,,,,,,,,,,,,,,,,,,,,,,,,,,,,,,,,,,,,,,,,,,,,,,,,,,,,,,,
,,660d675bbdf59327d9deb4ad,2026-03-17_12h22.53.345,kallum_motion_pilot_GIST_update_2,2026.1.1,Win32,58.13953488,660d675bbdf59327d9deb4ad,69b92ab4aef6dee357cd729a,69b92b3516a5e416439f5b5b,0.0877,0.0877,0,140,140,74,1,twoone,,,,,,,,,,,,,,,,,,,,,,,,,,,,,,,,,,,,,,,,,,,,,,,,,,,,,,,,,,,,,,,,,,,,,,,,,,,,,,,,,,,,,,,,,,,,,,,,,,,,,,,,,,,,,,,,,,,,,,,,,,,,,,,,,,,,,,,,,
,,660d675bbdf59327d9deb4ad,2026-03-17_12h22.53.345,kallum_motion_pilot_GIST_update_2,2026.1.1,Win32,58.13953488,660d675bbdf59327d9deb4ad,69b92ab4aef6dee357cd729a,69b92b3516a5e416439f5b5b,0.088,0.088,0,141,141,140,1,sevenfive,,,,,,,,,,,,,,,,,,,,,,,,,,,,,,,,,,,,,,,,,,,,,,,,,,,,,,,,,,,,,,,,,,,,,,,,,,,,,,,,,,,,,,,,,,,,,,,,,,,,,,,,,,,,,,,,,,,,,,,,,,,,,,,,,,,,,,,,,
,,660d675bbdf59327d9deb4ad,2026-03-17_12h22.53.345,kallum_motion_pilot_GIST_update_2,2026.1.1,Win32,58.13953488,660d675bbdf59327d9deb4ad,69b92ab4aef6dee357cd729a,69b92b3516a5e416439f5b5b,0.0883,0.0883,0,142,142,51,1,twofour,,,,,,,,,,,,,,,,,,,,,,,,,,,,,,,,,,,,,,,,,,,,,,,,,,,,,,,,,,,,,,,,,,,,,,,,,,,,,,,,,,,,,,,,,,,,,,,,,,,,,,,,,,,,,,,,,,,,,,,,,,,,,,,,,,,,,,,,,
,,660d675bbdf59327d9deb4ad,2026-03-17_12h22.53.345,kallum_motion_pilot_GIST_update_2,2026.1.1,Win32,58.13953488,660d675bbdf59327d9deb4ad,69b92ab4aef6dee357cd729a,69b92b3516a5e416439f5b5b,0.0887,0.0887,0,143,143,15,1,fourthree,,,,,,,,,,,,,,,,,,,,,,,,,,,,,,,,,,,,,,,,,,,,,,,,,,,,,,,,,,,,,,,,,,,,,,,,,,,,,,,,,,,,,,,,,,,,,,,,,,,,,,,,,,,,,,,,,,,,,,,,,,,,,,,,,,,,,,,,,
,,660d675bbdf59327d9deb4ad,2026-03-17_12h22.53.345,kallum_motion_pilot_GIST_update_2,2026.1.1,Win32,58.13953488,660d675bbdf59327d9deb4ad,69b92ab4aef6dee357cd729a,69b92b3516a5e416439f5b5b,0.0889,0.0889,0,144,144,76,1,threeone,,,,,,,,,,,,,,,,,,,,,,,,,,,,,,,,,,,,,,,,,,,,,,,,,,,,,,,,,,,,,,,,,,,,,,,,,,,,,,,,,,,,,,,,,,,,,,,,,,,,,,,,,,,,,,,,,,,,,,,,,,,,,,,,,,,,,,,,,
,,660d675bbdf59327d9deb4ad,2026-03-17_12h22.53.345,kallum_motion_pilot_GIST_update_2,2026.1.1,Win32,58.13953488,660d675bbdf59327d9deb4ad,69b92ab4aef6dee357cd729a,69b92b3516a5e416439f5b5b,0.0895,0.0895,0,145,145,72,1,onetwo,,,,,,,,,,,,,,,,,,,,,,,,,,,,,,,,,,,,,,,,,,,,,,,,,,,,,,,,,,,,,,,,,,,,,,,,,,,,,,,,,,,,,,,,,,,,,,,,,,,,,,,,,,,,,,,,,,,,,,,,,,,,,,,,,,,,,,,,,
,,660d675bbdf59327d9deb4ad,2026-03-17_12h22.53.345,kallum_motion_pilot_GIST_update_2,2026.1.1,Win32,58.13953488,660d675bbdf59327d9deb4ad,69b92ab4aef6dee357cd729a,69b92b3516a5e416439f5b5b,0.0897,0.0897,0,146,146,117,1,seveneight,,,,,,,,,,,,,,,,,,,,,,,,,,,,,,,,,,,,,,,,,,,,,,,,,,,,,,,,,,,,,,,,,,,,,,,,,,,,,,,,,,,,,,,,,,,,,,,,,,,,,,,,,,,,,,,,,,,,,,,,,,,,,,,,,,,,,,,,,
,,660d675bbdf59327d9deb4ad,2026-03-17_12h22.53.345,kallum_motion_pilot_GIST_update_2,2026.1.1,Win32,58.13953488,660d675bbdf59327d9deb4ad,69b92ab4aef6dee357cd729a,69b92b3516a5e416439f5b5b,0.0901,0.0901,0,147,147,4,1,threeone,,,,,,,,,,,,,,,,,,,,,,,,,,,,,,,,,,,,,,,,,,,,,,,,,,,,,,,,,,,,,,,,,,,,,,,,,,,,,,,,,,,,,,,,,,,,,,,,,,,,,,,,,,,,,,,,,,,,,,,,,,,,,,,,,,,,,,,,,
,,660d675bbdf59327d9deb4ad,2026-03-17_12h22.53.345,kallum_motion_pilot_GIST_update_2,2026.1.1,Win32,58.13953488,660d675bbdf59327d9deb4ad,69b92ab4aef6dee357cd729a,69b92b3516a5e416439f5b5b,0.0904,0.0904,0,148,148,2,1,twoone,,,,,,,,,,,,,,,,,,,,,,,,,,,,,,,,,,,,,,,,,,,,,,,,,,,,,,,,,,,,,,,,,,,,,,,,,,,,,,,,,,,,,,,,,,,,,,,,,,,,,,,,,,,,,,,,,,,,,,,,,,,,,,,,,,,,,,,,,
,,660d675bbdf59327d9deb4ad,2026-03-17_12h22.53.345,kallum_motion_pilot_GIST_update_2,2026.1.1,Win32,58.13953488,660d675bbdf59327d9deb4ad,69b92ab4aef6dee357cd729a,69b92b3516a5e416439f5b5b,0.0907,0.0908,0,149,149,16,1,onetwo,,,,,,,,,,,,,,,,,,,,,,,,,,,,,,,,,,,,,,,,,,,,,,,,,,,,,,,,,,,,,,,,,,,,,,,,,,,,,,,,,,,,,,,,,,,,,,,,,,,,,,,,,,,,,,,,,,,,,,,,,,,,,,,,,,,,,,,,,
,,660d675bbdf59327d9deb4ad,2026-03-17_12h22.53.345,kallum_motion_pilot_GIST_update_2,2026.1.1,Win32,58.13953488,660d675bbdf59327d9deb4ad,69b92ab4aef6dee357cd729a,69b92b3516a5e416439f5b5b,0.0911,0.0911,0,150,150,58,1,twoone,,,,,,,,,,,,,,,,,,,,,,,,,,,,,,,,,,,,,,,,,,,,,,,,,,,,,,,,,,,,,,,,,,,,,,,,,,,,,,,,,,,,,,,,,,,,,,,,,,,,,,,,,,,,,,,,,,,,,,,,,,,,,,,,,,,,,,,,,
,,660d675bbdf59327d9deb4ad,2026-03-17_12h22.53.345,kallum_motion_pilot_GIST_update_2,2026.1.1,Win32,58.13953488,660d675bbdf59327d9deb4ad,69b92ab4aef6dee357cd729a,69b92b3516a5e416439f5b5b,0.0914,0.0914,0,151,151,20,1,threeone,,,,,,,,,,,,,,,,,,,,,,,,,,,,,,,,,,,,,,,,,,,,,,,,,,,,,,,,,,,,,,,,,,,,,,,,,,,,,,,,,,,,,,,,,,,,,,,,,,,,,,,,,,,,,,,,,,,,,,,,,,,,,,,,,,,,,,,,,
,,660d675bbdf59327d9deb4ad,2026-03-17_12h22.53.345,kallum_motion_pilot_GIST_update_2,2026.1.1,Win32,58.13953488,660d675bbdf59327d9deb4ad,69b92ab4aef6dee357cd729a,69b92b3516a5e416439f5b5b,0.0917,0.0917,0,152,152,86,1,eightsix,,,,,,,,,,,,,,,,,,,,,,,,,,,,,,,,,,,,,,,,,,,,,,,,,,,,,,,,,,,,,,,,,,,,,,,,,,,,,,,,,,,,,,,,,,,,,,,,,,,,,,,,,,,,,,,,,,,,,,,,,,,,,,,,,,,,,,,,,
,,660d675bbdf59327d9deb4ad,2026-03-17_12h22.53.345,kallum_motion_pilot_GIST_update_2,2026.1.1,Win32,58.13953488,660d675bbdf59327d9deb4ad,69b92ab4aef6dee357cd729a,69b92b3516a5e416439f5b5b,0.0921,0.0921,0,153,153,98,1,sixfive,,,,,,,,,,,,,,,,,,,,,,,,,,,,,,,,,,,,,,,,,,,,,,,,,,,,,,,,,,,,,,,,,,,,,,,,,,,,,,,,,,,,,,,,,,,,,,,,,,,,,,,,,,,,,,,,,,,,,,,,,,,,,,,,,,,,,,,,,
,,660d675bbdf59327d9deb4ad,2026-03-17_12h22.53.345,kallum_motion_pilot_GIST_update_2,2026.1.1,Win32,58.13953488,660d675bbdf59327d9deb4ad,69b92ab4aef6dee357cd729a,69b92b3516a5e416439f5b5b,0.0926,0.0926,0,154,154,68,1,threeone,,,,,,,,,,,,,,,,,,,,,,,,,,,,,,,,,,,,,,,,,,,,,,,,,,,,,,,,,,,,,,,,,,,,,,,,,,,,,,,,,,,,,,,,,,,,,,,,,,,,,,,,,,,,,,,,,,,,,,,,,,,,,,,,,,,,,,,,,
,,660d675bbdf59327d9deb4ad,2026-03-17_12h22.53.345,kallum_motion_pilot_GIST_update_2,2026.1.1,Win32,58.13953488,660d675bbdf59327d9deb4ad,69b92ab4aef6dee357cd729a,69b92b3516a5e416439f5b5b,0.0929,0.0929,0,155,155,119,1,eightseven,,,,,,,,,,,,,,,,,,,,,,,,,,,,,,,,,,,,,,,,,,,,,,,,,,,,,,,,,,,,,,,,,,,,,,,,,,,,,,,,,,,,,,,,,,,,,,,,,,,,,,,,,,,,,,,,,,,,,,,,,,,,,,,,,,,,,,,,,
,,660d675bbdf59327d9deb4ad,2026-03-17_12h22.53.345,kallum_motion_pilot_GIST_update_2,2026.1.1,Win32,58.13953488,660d675bbdf59327d9deb4ad,69b92ab4aef6dee357cd729a,69b92b3516a5e416439f5b5b,0.0933,0.0933,0,156,156,104,1,fivesix,,,,,,,,,,,,,,,,,,,,,,,,,,,,,,,,,,,,,,,,,,,,,,,,,,,,,,,,,,,,,,,,,,,,,,,,,,,,,,,,,,,,,,,,,,,,,,,,,,,,,,,,,,,,,,,,,,,,,,,,,,,,,,,,,,,,,,,,,
,,660d675bbdf59327d9deb4ad,2026-03-17_12h22.53.345,kallum_motion_pilot_GIST_update_2,2026.1.1,Win32,58.13953488,660d675bbdf59327d9deb4ad,69b92ab4aef6dee357cd729a,69b92b3516a5e416439f5b5b,0.0936,0.0936,0,157,157,47,1,fourthree,,,,,,,,,,,,,,,,,,,,,,,,,,,,,,,,,,,,,,,,,,,,,,,,,,,,,,,,,,,,,,,,,,,,,,,,,,,,,,,,,,,,,,,,,,,,,,,,,,,,,,,,,,,,,,,,,,,,,,,,,,,,,,,,,,,,,,,,,
,,660d675bbdf59327d9deb4ad,2026-03-17_12h22.53.345,kallum_motion_pilot_GIST_update_2,2026.1.1,Win32,58.13953488,660d675bbdf59327d9deb4ad,69b92ab4aef6dee357cd729a,69b92b3516a5e416439f5b5b,0.0939,0.0939,0,158,158,10,1,twoone,,,,,,,,,,,,,,,,,,,,,,,,,,,,,,,,,,,,,,,,,,,,,,,,,,,,,,,,,,,,,,,,,,,,,,,,,,,,,,,,,,,,,,,,,,,,,,,,,,,,,,,,,,,,,,,,,,,,,,,,,,,,,,,,,,,,,,,,,
,,660d675bbdf59327d9deb4ad,2026-03-17_12h22.53.345,kallum_motion_pilot_GIST_update_2,2026.1.1,Win32,58.13953488,660d675bbdf59327d9deb4ad,69b92ab4aef6dee357cd729a,69b92b3516a5e416439f5b5b,0.0942,0.0942,0,159,159,11,1,twofour,,,,,,,,,,,,,,,,,,,,,,,,,,,,,,,,,,,,,,,,,,,,,,,,,,,,,,,,,,,,,,,,,,,,,,,,,,,,,,,,,,,,,,,,,,,,,,,,,,,,,,,,,,,,,,,,,,,,,,,,,,,,,,,,,,,,,,,,,
,,660d675bbdf59327d9deb4ad,2026-03-17_12h22.53.345,kallum_motion_pilot_GIST_update_2,2026.1.1,Win32,58.13953488,660d675bbdf59327d9deb4ad,69b92ab4aef6dee357cd729a,69b92b3516a5e416439f5b5b,0.0945,0.0945,0,160,160,21,1,threefour,,,,,,,,,,,,,,,,,,,,,,,,,,,,,,,,,,,,,,,,,,,,,,,,,,,,,,,,,,,,,,,,,,,,,,,,,,,,,,,,,,,,,,,,,,,,,,,,,,,,,,,,,,,,,,,,,,,,,,,,,,,,,,,,,,,,,,,,,
,,660d675bbdf59327d9deb4ad,2026-03-17_12h22.53.345,kallum_motion_pilot_GIST_update_2,2026.1.1,Win32,58.13953488,660d675bbdf59327d9deb4ad,69b92ab4aef6dee357cd729a,69b92b3516a5e416439f5b5b,0.0947,0.0948,0,161,161,153,1,fiveseven,,,,,,,,,,,,,,,,,,,,,,,,,,,,,,,,,,,,,,,,,,,,,,,,,,,,,,,,,,,,,,,,,,,,,,,,,,,,,,,,,,,,,,,,,,,,,,,,,,,,,,,,,,,,,,,,,,,,,,,,,,,,,,,,,,,,,,,,,
,,660d675bbdf59327d9deb4ad,2026-03-17_12h22.53.345,kallum_motion_pilot_GIST_update_2,2026.1.1,Win32,58.13953488,660d675bbdf59327d9deb4ad,69b92ab4aef6dee357cd729a,69b92b3516a5e416439f5b5b,0.095,0.095,1,0,162,41,1,onethree,,,,,,,,,,,,,,,,,,,,,,,,,,,,,,,,,,,,,,,,,,,,,,,,,,,,,,,,,,,,,,,,,,,,,,,,,,,,,,,,,,,,,,,,,,,,,,,,,,,,,,,,,,,,,,,,,,,,,,,,,,,,,,,,,,,,,,,,,
,,660d675bbdf59327d9deb4ad,2026-03-17_12h22.53.345,kallum_motion_pilot_GIST_update_2,2026.1.1,Win32,58.13953488,660d675bbdf59327d9deb4ad,69b92ab4aef6dee357cd729a,69b92b3516a5e416439f5b5b,0.0954,0.0954,1,1,163,71,1,fourthree,,,,,,,,,,,,,,,,,,,,,,,,,,,,,,,,,,,,,,,,,,,,,,,,,,,,,,,,,,,,,,,,,,,,,,,,,,,,,,,,,,,,,,,,,,,,,,,,,,,,,,,,,,,,,,,,,,,,,,,,,,,,,,,,,,,,,,,,,
,,660d675bbdf59327d9deb4ad,2026-03-17_12h22.53.345,kallum_motion_pilot_GIST_update_2,2026.1.1,Win32,58.13953488,660d675bbdf59327d9deb4ad,69b92ab4aef6dee357cd729a,69b92b3516a5e416439f5b5b,0.0957,0.0957,1,2,164,122,1,sixfive,,,,,,,,,,,,,,,,,,,,,,,,,,,,,,,,,,,,,,,,,,,,,,,,,,,,,,,,,,,,,,,,,,,,,,,,,,,,,,,,,,,,,,,,,,,,,,,,,,,,,,,,,,,,,,,,,,,,,,,,,,,,,,,,,,,,,,,,,
,,660d675bbdf59327d9deb4ad,2026-03-17_12h22.53.345,kallum_motion_pilot_GIST_update_2,2026.1.1,Win32,58.13953488,660d675bbdf59327d9deb4ad,69b92ab4aef6dee357cd729a,69b92b3516a5e416439f5b5b,0.0985,0.0985,1,3,165,1,1,onethree,,,,,,,,,,,,,,,,,,,,,,,,,,,,,,,,,,,,,,,,,,,,,,,,,,,,,,,,,,,,,,,,,,,,,,,,,,,,,,,,,,,,,,,,,,,,,,,,,,,,,,,,,,,,,,,,,,,,,,,,,,,,,,,,,,,,,,,,,
,,660d675bbdf59327d9deb4ad,2026-03-17_12h22.53.345,kallum_motion_pilot_GIST_update_2,2026.1.1,Win32,58.13953488,660d675bbdf59327d9deb4ad,69b92ab4aef6dee357cd729a,69b92b3516a5e416439f5b5b,0.0988,0.0988,1,4,166,72,1,onetwo,,,,,,,,,,,,,,,,,,,,,,,,,,,,,,,,,,,,,,,,,,,,,,,,,,,,,,,,,,,,,,,,,,,,,,,,,,,,,,,,,,,,,,,,,,,,,,,,,,,,,,,,,,,,,,,,,,,,,,,,,,,,,,,,,,,,,,,,,
,,660d675bbdf59327d9deb4ad,2026-03-17_12h22.53.345,kallum_motion_pilot_GIST_update_2,2026.1.1,Win32,58.13953488,660d675bbdf59327d9deb4ad,69b92ab4aef6dee357cd729a,69b92b3516a5e416439f5b5b,0.0991,0.0991,1,5,167,19,1,twofour,,,,,,,,,,,,,,,,,,,,,,,,,,,,,,,,,,,,,,,,,,,,,,,,,,,,,,,,,,,,,,,,,,,,,,,,,,,,,,,,,,,,,,,,,,,,,,,,,,,,,,,,,,,,,,,,,,,,,,,,,,,,,,,,,,,,,,,,,
,,660d675bbdf59327d9deb4ad,2026-03-17_12h22.53.345,kallum_motion_pilot_GIST_update_2,2026.1.1,Win32,58.13953488,660d675bbdf59327d9deb4ad,69b92ab4aef6dee357cd729a,69b92b3516a5e416439f5b5b,0.0994,0.0994,1,6,168,48,1,onetwo,,,,,,,,,,,,,,,,,,,,,,,,,,,,,,,,,,,,,,,,,,,,,,,,,,,,,,,,,,,,,,,,,,,,,,,,,,,,,,,,,,,,,,,,,,,,,,,,,,,,,,,,,,,,,,,,,,,,,,,,,,,,,,,,,,,,,,,,,
,,660d675bbdf59327d9deb4ad,2026-03-17_12h22.53.345,kallum_motion_pilot_GIST_update_2,2026.1.1,Win32,58.13953488,660d675bbdf59327d9deb4ad,69b92ab4aef6dee357cd729a,69b92b3516a5e416439f5b5b,0.0998,0.0998,1,7,169,114,1,sixfive,,,,,,,,,,,,,,,,,,,,,,,,,,,,,,,,,,,,,,,,,,,,,,,,,,,,,,,,,,,,,,,,,,,,,,,,,,,,,,,,,,,,,,,,,,,,,,,,,,,,,,,,,,,,,,,,,,,,,,,,,,,,,,,,,,,,,,,,,
,,660d675bbdf59327d9deb4ad,2026-03-17_12h22.53.345,kallum_motion_pilot_GIST_update_2,2026.1.1,Win32,58.13953488,660d675bbdf59327d9deb4ad,69b92ab4aef6dee357cd729a,69b92b3516a5e416439f5b5b,0.1,0.1,1,8,170,87,1,eightseven,,,,,,,,,,,,,,,,,,,,,,,,,,,,,,,,,,,,,,,,,,,,,,,,,,,,,,,,,,,,,,,,,,,,,,,,,,,,,,,,,,,,,,,,,,,,,,,,,,,,,,,,,,,,,,,,,,,,,,,,,,,,,,,,,,,,,,,,,
,,660d675bbdf59327d9deb4ad,2026-03-17_12h22.53.345,kallum_motion_pilot_GIST_update_2,2026.1.1,Win32,58.13953488,660d675bbdf59327d9deb4ad,69b92ab4aef6dee357cd729a,69b92b3516a5e416439f5b5b,0.1003,0.1004,1,9,171,44,1,threeone,,,,,,,,,,,,,,,,,,,,,,,,,,,,,,,,,,,,,,,,,,,,,,,,,,,,,,,,,,,,,,,,,,,,,,,,,,,,,,,,,,,,,,,,,,,,,,,,,,,,,,,,,,,,,,,,,,,,,,,,,,,,,,,,,,,,,,,,,
,,660d675bbdf59327d9deb4ad,2026-03-17_12h22.53.345,kallum_motion_pilot_GIST_update_2,2026.1.1,Win32,58.13953488,660d675bbdf59327d9deb4ad,69b92ab4aef6dee357cd729a,69b92b3516a5e416439f5b5b,0.1006,0.1006,1,10,172,154,1,sixfive,,,,,,,,,,,,,,,,,,,,,,,,,,,,,,,,,,,,,,,,,,,,,,,,,,,,,,,,,,,,,,,,,,,,,,,,,,,,,,,,,,,,,,,,,,,,,,,,,,,,,,,,,,,,,,,,,,,,,,,,,,,,,,,,,,,,,,,,,
,,660d675bbdf59327d9deb4ad,2026-03-17_12h22.53.345,kallum_motion_pilot_GIST_update_2,2026.1.1,Win32,58.13953488,660d675bbdf59327d9deb4ad,69b92ab4aef6dee357cd729a,69b92b3516a5e416439f5b5b,0.1009,0.101,1,11,173,34,1,twoone,,,,,,,,,,,,,,,,,,,,,,,,,,,,,,,,,,,,,,,,,,,,,,,,,,,,,,,,,,,,,,,,,,,,,,,,,,,,,,,,,,,,,,,,,,,,,,,,,,,,,,,,,,,,,,,,,,,,,,,,,,,,,,,,,,,,,,,,,
,,660d675bbdf59327d9deb4ad,2026-03-17_12h22.53.345,kallum_motion_pilot_GIST_update_2,2026.1.1,Win32,58.13953488,660d675bbdf59327d9deb4ad,69b92ab4aef6dee357cd729a,69b92b3516a5e416439f5b5b,0.1013,0.1013,1,12,174,124,1,sevenfive,,,,,,,,,,,,,,,,,,,,,,,,,,,,,,,,,,,,,,,,,,,,,,,,,,,,,,,,,,,,,,,,,,,,,,,,,,,,,,,,,,,,,,,,,,,,,,,,,,,,,,,,,,,,,,,,,,,,,,,,,,,,,,,,,,,,,,,,,
,,660d675bbdf59327d9deb4ad,2026-03-17_12h22.53.345,kallum_motion_pilot_GIST_update_2,2026.1.1,Win32,58.13953488,660d675bbdf59327d9deb4ad,69b92ab4aef6dee357cd729a,69b92b3516a5e416439f5b5b,0.1015,0.1015,1,13,175,53,1,threefour,,,,,,,,,,,,,,,,,,,,,,,,,,,,,,,,,,,,,,,,,,,,,,,,,,,,,,,,,,,,,,,,,,,,,,,,,,,,,,,,,,,,,,,,,,,,,,,,,,,,,,,,,,,,,,,,,,,,,,,,,,,,,,,,,,,,,,,,,
,,660d675bbdf59327d9deb4ad,2026-03-17_12h22.53.345,kallum_motion_pilot_GIST_update_2,2026.1.1,Win32,58.13953488,660d675bbdf59327d9deb4ad,69b92ab4aef6dee357cd729a,69b92b3516a5e416439f5b5b,0.1018,0.1019,1,14,176,135,1,eightseven,,,,,,,,,,,,,,,,,,,,,,,,,,,,,,,,,,,,,,,,,,,,,,,,,,,,,,,,,,,,,,,,,,,,,,,,,,,,,,,,,,,,,,,,,,,,,,,,,,,,,,,,,,,,,,,,,,,,,,,,,,,,,,,,,,,,,,,,,
,,660d675bbdf59327d9deb4ad,2026-03-17_12h22.53.345,kallum_motion_pilot_GIST_update_2,2026.1.1,Win32,58.13953488,660d675bbdf59327d9deb4ad,69b92ab4aef6dee357cd729a,69b92b3516a5e416439f5b5b,0.1022,0.1022,1,15,177,113,1,fiveseven,,,,,,,,,,,,,,,,,,,,,,,,,,,,,,,,,,,,,,,,,,,,,,,,,,,,,,,,,,,,,,,,,,,,,,,,,,,,,,,,,,,,,,,,,,,,,,,,,,,,,,,,,,,,,,,,,,,,,,,,,,,,,,,,,,,,,,,,,
,,660d675bbdf59327d9deb4ad,2026-03-17_12h22.53.345,kallum_motion_pilot_GIST_update_2,2026.1.1,Win32,58.13953488,660d675bbdf59327d9deb4ad,69b92ab4aef6dee357cd729a,69b92b3516a5e416439f5b5b,0.1027,0.1027,1,16,178,81,1,fiveseven,,,,,,,,,,,,,,,,,,,,,,,,,,,,,,,,,,,,,,,,,,,,,,,,,,,,,,,,,,,,,,,,,,,,,,,,,,,,,,,,,,,,,,,,,,,,,,,,,,,,,,,,,,,,,,,,,,,,,,,,,,,,,,,,,,,,,,,,,
,,660d675bbdf59327d9deb4ad,2026-03-17_12h22.53.345,kallum_motion_pilot_GIST_update_2,2026.1.1,Win32,58.13953488,660d675bbdf59327d9deb4ad,69b92ab4aef6dee357cd729a,69b92b3516a5e416439f5b5b,0.1029,0.103,1,17,179,140,1,sevenfive,,,,,,,,,,,,,,,,,,,,,,,,,,,,,,,,,,,,,,,,,,,,,,,,,,,,,,,,,,,,,,,,,,,,,,,,,,,,,,,,,,,,,,,,,,,,,,,,,,,,,,,,,,,,,,,,,,,,,,,,,,,,,,,,,,,,,,,,,
,,660d675bbdf59327d9deb4ad,2026-03-17_12h22.53.345,kallum_motion_pilot_GIST_update_2,2026.1.1,Win32,58.13953488,660d675bbdf59327d9deb4ad,69b92ab4aef6dee357cd729a,69b92b3516a5e416439f5b5b,0.1033,0.1033,1,18,180,103,1,eightseven,,,,,,,,,,,,,,,,,,,,,,,,,,,,,,,,,,,,,,,,,,,,,,,,,,,,,,,,,,,,,,,,,,,,,,,,,,,,,,,,,,,,,,,,,,,,,,,,,,,,,,,,,,,,,,,,,,,,,,,,,,,,,,,,,,,,,,,,,
,,660d675bbdf59327d9deb4ad,2026-03-17_12h22.53.345,kallum_motion_pilot_GIST_update_2,2026.1.1,Win32,58.13953488,660d675bbdf59327d9deb4ad,69b92ab4aef6dee357cd729a,69b92b3516a5e416439f5b5b,0.1036,0.1036,1,19,181,68,1,threeone,,,,,,,,,,,,,,,,,,,,,,,,,,,,,,,,,,,,,,,,,,,,,,,,,,,,,,,,,,,,,,,,,,,,,,,,,,,,,,,,,,,,,,,,,,,,,,,,,,,,,,,,,,,,,,,,,,,,,,,,,,,,,,,,,,,,,,,,,
,,660d675bbdf59327d9deb4ad,2026-03-17_12h22.53.345,kallum_motion_pilot_GIST_update_2,2026.1.1,Win32,58.13953488,660d675bbdf59327d9deb4ad,69b92ab4aef6dee357cd729a,69b92b3516a5e416439f5b5b,0.1038,0.1038,1,20,182,23,1,fourthree,,,,,,,,,,,,,,,,,,,,,,,,,,,,,,,,,,,,,,,,,,,,,,,,,,,,,,,,,,,,,,,,,,,,,,,,,,,,,,,,,,,,,,,,,,,,,,,,,,,,,,,,,,,,,,,,,,,,,,,,,,,,,,,,,,,,,,,,,
,,660d675bbdf59327d9deb4ad,2026-03-17_12h22.53.345,kallum_motion_pilot_GIST_update_2,2026.1.1,Win32,58.13953488,660d675bbdf59327d9deb4ad,69b92ab4aef6dee357cd729a,69b92b3516a5e416439f5b5b,0.1041,0.1042,1,21,183,30,1,fourtwo,,,,,,,,,,,,,,,,,,,,,,,,,,,,,,,,,,,,,,,,,,,,,,,,,,,,,,,,,,,,,,,,,,,,,,,,,,,,,,,,,,,,,,,,,,,,,,,,,,,,,,,,,,,,,,,,,,,,,,,,,,,,,,,,,,,,,,,,,
,,660d675bbdf59327d9deb4ad,2026-03-17_12h22.53.345,kallum_motion_pilot_GIST_update_2,2026.1.1,Win32,58.13953488,660d675bbdf59327d9deb4ad,69b92ab4aef6dee357cd729a,69b92b3516a5e416439f5b5b,0.1044,0.1045,1,22,184,109,1,seveneight,,,,,,,,,,,,,,,,,,,,,,,,,,,,,,,,,,,,,,,,,,,,,,,,,,,,,,,,,,,,,,,,,,,,,,,,,,,,,,,,,,,,,,,,,,,,,,,,,,,,,,,,,,,,,,,,,,,,,,,,,,,,,,,,,,,,,,,,,
,,660d675bbdf59327d9deb4ad,2026-03-17_12h22.53.345,kallum_motion_pilot_GIST_update_2,2026.1.1,Win32,58.13953488,660d675bbdf59327d9deb4ad,69b92ab4aef6dee357cd729a,69b92b3516a5e416439f5b5b,0.1047,0.1048,1,23,185,42,1,twoone,,,,,,,,,,,,,,,,,,,,,,,,,,,,,,,,,,,,,,,,,,,,,,,,,,,,,,,,,,,,,,,,,,,,,,,,,,,,,,,,,,,,,,,,,,,,,,,,,,,,,,,,,,,,,,,,,,,,,,,,,,,,,,,,,,,,,,,,,
,,660d675bbdf59327d9deb4ad,2026-03-17_12h22.53.345,kallum_motion_pilot_GIST_update_2,2026.1.1,Win32,58.13953488,660d675bbdf59327d9deb4ad,69b92ab4aef6dee357cd729a,69b92b3516a5e416439f5b5b,0.1051,0.1051,1,24,186,106,1,sixfive,,,,,,,,,,,,,,,,,,,,,,,,,,,,,,,,,,,,,,,,,,,,,,,,,,,,,,,,,,,,,,,,,,,,,,,,,,,,,,,,,,,,,,,,,,,,,,,,,,,,,,,,,,,,,,,,,,,,,,,,,,,,,,,,,,,,,,,,,
,,660d675bbdf59327d9deb4ad,2026-03-17_12h22.53.345,kallum_motion_pilot_GIST_update_2,2026.1.1,Win32,58.13953488,660d675bbdf59327d9deb4ad,69b92ab4aef6dee357cd729a,69b92b3516a5e416439f5b5b,0.1054,0.1054,1,25,187,75,1,twofour,,,,,,,,,,,,,,,,,,,,,,,,,,,,,,,,,,,,,,,,,,,,,,,,,,,,,,,,,,,,,,,,,,,,,,,,,,,,,,,,,,,,,,,,,,,,,,,,,,,,,,,,,,,,,,,,,,,,,,,,,,,,,,,,,,,,,,,,,
,,660d675bbdf59327d9deb4ad,2026-03-17_12h22.53.345,kallum_motion_pilot_GIST_update_2,2026.1.1,Win32,58.13953488,660d675bbdf59327d9deb4ad,69b92ab4aef6dee357cd729a,69b92b3516a5e416439f5b5b,0.1059,0.106,1,26,188,149,1,seveneight,,,,,,,,,,,,,,,,,,,,,,,,,,,,,,,,,,,,,,,,,,,,,,,,,,,,,,,,,,,,,,,,,,,,,,,,,,,,,,,,,,,,,,,,,,,,,,,,,,,,,,,,,,,,,,,,,,,,,,,,,,,,,,,,,,,,,,,,,
,,660d675bbdf59327d9deb4ad,2026-03-17_12h22.53.345,kallum_motion_pilot_GIST_update_2,2026.1.1,Win32,58.13953488,660d675bbdf59327d9deb4ad,69b92ab4aef6dee357cd729a,69b92b3516a5e416439f5b5b,0.1064,0.1064,1,27,189,22,1,fourtwo,,,,,,,,,,,,,,,,,,,,,,,,,,,,,,,,,,,,,,,,,,,,,,,,,,,,,,,,,,,,,,,,,,,,,,,,,,,,,,,,,,,,,,,,,,,,,,,,,,,,,,,,,,,,,,,,,,,,,,,,,,,,,,,,,,,,,,,,,
,,660d675bbdf59327d9deb4ad,2026-03-17_12h22.53.345,kallum_motion_pilot_GIST_update_2,2026.1.1,Win32,58.13953488,660d675bbdf59327d9deb4ad,69b92ab4aef6dee357cd729a,69b92b3516a5e416439f5b5b,0.1068,0.1068,1,28,190,118,1,eightsix,,,,,,,,,,,,,,,,,,,,,,,,,,,,,,,,,,,,,,,,,,,,,,,,,,,,,,,,,,,,,,,,,,,,,,,,,,,,,,,,,,,,,,,,,,,,,,,,,,,,,,,,,,,,,,,,,,,,,,,,,,,,,,,,,,,,,,,,,
,,660d675bbdf59327d9deb4ad,2026-03-17_12h22.53.345,kallum_motion_pilot_GIST_update_2,2026.1.1,Win32,58.13953488,660d675bbdf59327d9deb4ad,69b92ab4aef6dee357cd729a,69b92b3516a5e416439f5b5b,0.1072,0.1072,1,29,191,7,1,fourthree,,,,,,,,,,,,,,,,,,,,,,,,,,,,,,,,,,,,,,,,,,,,,,,,,,,,,,,,,,,,,,,,,,,,,,,,,,,,,,,,,,,,,,,,,,,,,,,,,,,,,,,,,,,,,,,,,,,,,,,,,,,,,,,,,,,,,,,,,
,,660d675bbdf59327d9deb4ad,2026-03-17_12h22.53.345,kallum_motion_pilot_GIST_update_2,2026.1.1,Win32,58.13953488,660d675bbdf59327d9deb4ad,69b92ab4aef6dee357cd729a,69b92b3516a5e416439f5b5b,0.1076,0.1076,1,30,192,97,1,fiveseven,,,,,,,,,,,,,,,,,,,,,,,,,,,,,,,,,,,,,,,,,,,,,,,,,,,,,,,,,,,,,,,,,,,,,,,,,,,,,,,,,,,,,,,,,,,,,,,,,,,,,,,,,,,,,,,,,,,,,,,,,,,,,,,,,,,,,,,,,
,,660d675bbdf59327d9deb4ad,2026-03-17_12h22.53.345,kallum_motion_pilot_GIST_update_2,2026.1.1,Win32,58.13953488,660d675bbdf59327d9deb4ad,69b92ab4aef6dee357cd729a,69b92b3516a5e416439f5b5b,0.1082,0.1082,1,31,193,74,1,twoone,,,,,,,,,,,,,,,,,,,,,,,,,,,,,,,,,,,,,,,,,,,,,,,,,,,,,,,,,,,,,,,,,,,,,,,,,,,,,,,,,,,,,,,,,,,,,,,,,,,,,,,,,,,,,,,,,,,,,,,,,,,,,,,,,,,,,,,,,
,,660d675bbdf59327d9deb4ad,2026-03-17_12h22.53.345,kallum_motion_pilot_GIST_update_2,2026.1.1,Win32,58.13953488,660d675bbdf59327d9deb4ad,69b92ab4aef6dee357cd729a,69b92b3516a5e416439f5b5b,0.1085,0.1085,1,32,194,17,1,onethree,,,,,,,,,,,,,,,,,,,,,,,,,,,,,,,,,,,,,,,,,,,,,,,,,,,,,,,,,,,,,,,,,,,,,,,,,,,,,,,,,,,,,,,,,,,,,,,,,,,,,,,,,,,,,,,,,,,,,,,,,,,,,,,,,,,,,,,,,
,,660d675bbdf59327d9deb4ad,2026-03-17_12h22.53.345,kallum_motion_pilot_GIST_update_2,2026.1.1,Win32,58.13953488,660d675bbdf59327d9deb4ad,69b92ab4aef6dee357cd729a,69b92b3516a5e416439f5b5b,0.1088,0.1088,1,33,195,132,1,sevenfive,,,,,,,,,,,,,,,,,,,,,,,,,,,,,,,,,,,,,,,,,,,,,,,,,,,,,,,,,,,,,,,,,,,,,,,,,,,,,,,,,,,,,,,,,,,,,,,,,,,,,,,,,,,,,,,,,,,,,,,,,,,,,,,,,,,,,,,,,
,,660d675bbdf59327d9deb4ad,2026-03-17_12h22.53.345,kallum_motion_pilot_GIST_update_2,2026.1.1,Win32,58.13953488,660d675bbdf59327d9deb4ad,69b92ab4aef6dee357cd729a,69b92b3516a5e416439f5b5b,0.1091,0.1091,1,34,196,134,1,eightsix,,,,,,,,,,,,,,,,,,,,,,,,,,,,,,,,,,,,,,,,,,,,,,,,,,,,,,,,,,,,,,,,,,,,,,,,,,,,,,,,,,,,,,,,,,,,,,,,,,,,,,,,,,,,,,,,,,,,,,,,,,,,,,,,,,,,,,,,,
,,660d675bbdf59327d9deb4ad,2026-03-17_12h22.53.345,kallum_motion_pilot_GIST_update_2,2026.1.1,Win32,58.13953488,660d675bbdf59327d9deb4ad,69b92ab4aef6dee357cd729a,69b92b3516a5e416439f5b5b,0.1094,0.1094,1,35,197,69,1,threefour,,,,,,,,,,,,,,,,,,,,,,,,,,,,,,,,,,,,,,,,,,,,,,,,,,,,,,,,,,,,,,,,,,,,,,,,,,,,,,,,,,,,,,,,,,,,,,,,,,,,,,,,,,,,,,,,,,,,,,,,,,,,,,,,,,,,,,,,,
,,660d675bbdf59327d9deb4ad,2026-03-17_12h22.53.345,kallum_motion_pilot_GIST_update_2,2026.1.1,Win32,58.13953488,660d675bbdf59327d9deb4ad,69b92ab4aef6dee357cd729a,69b92b3516a5e416439f5b5b,0.1097,0.1097,1,36,198,157,1,seveneight,,,,,,,,,,,,,,,,,,,,,,,,,,,,,,,,,,,,,,,,,,,,,,,,,,,,,,,,,,,,,,,,,,,,,,,,,,,,,,,,,,,,,,,,,,,,,,,,,,,,,,,,,,,,,,,,,,,,,,,,,,,,,,,,,,,,,,,,,
,,660d675bbdf59327d9deb4ad,2026-03-17_12h22.53.345,kallum_motion_pilot_GIST_update_2,2026.1.1,Win32,58.13953488,660d675bbdf59327d9deb4ad,69b92ab4aef6dee357cd729a,69b92b3516a5e416439f5b5b,0.11,0.11,1,37,199,133,1,seveneight,,,,,,,,,,,,,,,,,,,,,,,,,,,,,,,,,,,,,,,,,,,,,,,,,,,,,,,,,,,,,,,,,,,,,,,,,,,,,,,,,,,,,,,,,,,,,,,,,,,,,,,,,,,,,,,,,,,,,,,,,,,,,,,,,,,,,,,,,
,,660d675bbdf59327d9deb4ad,2026-03-17_12h22.53.345,kallum_motion_pilot_GIST_update_2,2026.1.1,Win32,58.13953488,660d675bbdf59327d9deb4ad,69b92ab4aef6dee357cd729a,69b92b3516a5e416439f5b5b,0.1103,0.1103,1,38,200,57,1,onethree,,,,,,,,,,,,,,,,,,,,,,,,,,,,,,,,,,,,,,,,,,,,,,,,,,,,,,,,,,,,,,,,,,,,,,,,,,,,,,,,,,,,,,,,,,,,,,,,,,,,,,,,,,,,,,,,,,,,,,,,,,,,,,,,,,,,,,,,,
,,660d675bbdf59327d9deb4ad,2026-03-17_12h22.53.345,kallum_motion_pilot_GIST_update_2,2026.1.1,Win32,58.13953488,660d675bbdf59327d9deb4ad,69b92ab4aef6dee357cd729a,69b92b3516a5e416439f5b5b,0.1106,0.1106,1,39,201,24,1,onetwo,,,,,,,,,,,,,,,,,,,,,,,,,,,,,,,,,,,,,,,,,,,,,,,,,,,,,,,,,,,,,,,,,,,,,,,,,,,,,,,,,,,,,,,,,,,,,,,,,,,,,,,,,,,,,,,,,,,,,,,,,,,,,,,,,,,,,,,,,
,,660d675bbdf59327d9deb4ad,2026-03-17_12h22.53.345,kallum_motion_pilot_GIST_update_2,2026.1.1,Win32,58.13953488,660d675bbdf59327d9deb4ad,69b92ab4aef6dee357cd729a,69b92b3516a5e416439f5b5b,0.1109,0.111,1,40,202,84,1,sevenfive,,,,,,,,,,,,,,,,,,,,,,,,,,,,,,,,,,,,,,,,,,,,,,,,,,,,,,,,,,,,,,,,,,,,,,,,,,,,,,,,,,,,,,,,,,,,,,,,,,,,,,,,,,,,,,,,,,,,,,,,,,,,,,,,,,,,,,,,,
,,660d675bbdf59327d9deb4ad,2026-03-17_12h22.53.345,kallum_motion_pilot_GIST_update_2,2026.1.1,Win32,58.13953488,660d675bbdf59327d9deb4ad,69b92ab4aef6dee357cd729a,69b92b3516a5e416439f5b5b,0.1112,0.1113,1,41,203,80,1,fivesix,,,,,,,,,,,,,,,,,,,,,,,,,,,,,,,,,,,,,,,,,,,,,,,,,,,,,,,,,,,,,,,,,,,,,,,,,,,,,,,,,,,,,,,,,,,,,,,,,,,,,,,,,,,,,,,,,,,,,,,,,,,,,,,,,,,,,,,,,
,,660d675bbdf59327d9deb4ad,2026-03-17_12h22.53.345,kallum_motion_pilot_GIST_update_2,2026.1.1,Win32,58.13953488,660d675bbdf59327d9deb4ad,69b92ab4aef6dee357cd729a,69b92b3516a5e416439f5b5b,0.1117,0.1117,1,42,204,78,1,fourtwo,,,,,,,,,,,,,,,,,,,,,,,,,,,,,,,,,,,,,,,,,,,,,,,,,,,,,,,,,,,,,,,,,,,,,,,,,,,,,,,,,,,,,,,,,,,,,,,,,,,,,,,,,,,,,,,,,,,,,,,,,,,,,,,,,,,,,,,,,
,,660d675bbdf59327d9deb4ad,2026-03-17_12h22.53.345,kallum_motion_pilot_GIST_update_2,2026.1.1,Win32,58.13953488,660d675bbdf59327d9deb4ad,69b92ab4aef6dee357cd729a,69b92b3516a5e416439f5b5b,0.1121,0.1122,1,43,205,91,1,sixeight,,,,,,,,,,,,,,,,,,,,,,,,,,,,,,,,,,,,,,,,,,,,,,,,,,,,,,,,,,,,,,,,,,,,,,,,,,,,,,,,,,,,,,,,,,,,,,,,,,,,,,,,,,,,,,,,,,,,,,,,,,,,,,,,,,,,,,,,,
,,660d675bbdf59327d9deb4ad,2026-03-17_12h22.53.345,kallum_motion_pilot_GIST_update_2,2026.1.1,Win32,58.13953488,660d675bbdf59327d9deb4ad,69b92ab4aef6dee357cd729a,69b92b3516a5e416439f5b5b,0.1126,0.1126,1,44,206,153,1,fiveseven,,,,,,,,,,,,,,,,,,,,,,,,,,,,,,,,,,,,,,,,,,,,,,,,,,,,,,,,,,,,,,,,,,,,,,,,,,,,,,,,,,,,,,,,,,,,,,,,,,,,,,,,,,,,,,,,,,,,,,,,,,,,,,,,,,,,,,,,,
,,660d675bbdf59327d9deb4ad,2026-03-17_12h22.53.345,kallum_motion_pilot_GIST_update_2,2026.1.1,Win32,58.13953488,660d675bbdf59327d9deb4ad,69b92ab4aef6dee357cd729a,69b92b3516a5e416439f5b5b,0.1129,0.1129,1,45,207,3,1,twofour,,,,,,,,,,,,,,,,,,,,,,,,,,,,,,,,,,,,,,,,,,,,,,,,,,,,,,,,,,,,,,,,,,,,,,,,,,,,,,,,,,,,,,,,,,,,,,,,,,,,,,,,,,,,,,,,,,,,,,,,,,,,,,,,,,,,,,,,,
,,660d675bbdf59327d9deb4ad,2026-03-17_12h22.53.345,kallum_motion_pilot_GIST_update_2,2026.1.1,Win32,58.13953488,660d675bbdf59327d9deb4ad,69b92ab4aef6dee357cd729a,69b92b3516a5e416439f5b5b,0.1132,0.1132,1,46,208,77,1,threefour,,,,,,,,,,,,,,,,,,,,,,,,,,,,,,,,,,,,,,,,,,,,,,,,,,,,,,,,,,,,,,,,,,,,,,,,,,,,,,,,,,,,,,,,,,,,,,,,,,,,,,,,,,,,,,,,,,,,,,,,,,,,,,,,,,,,,,,,,
,,660d675bbdf59327d9deb4ad,2026-03-17_12h22.53.345,kallum_motion_pilot_GIST_update_2,2026.1.1,Win32,58.13953488,660d675bbdf59327d9deb4ad,69b92ab4aef6dee357cd729a,69b92b3516a5e416439f5b5b,0.1135,0.1135,1,47,209,58,1,twoone,,,,,,,,,,,,,,,,,,,,,,,,,,,,,,,,,,,,,,,,,,,,,,,,,,,,,,,,,,,,,,,,,,,,,,,,,,,,,,,,,,,,,,,,,,,,,,,,,,,,,,,,,,,,,,,,,,,,,,,,,,,,,,,,,,,,,,,,,
,,660d675bbdf59327d9deb4ad,2026-03-17_12h22.53.345,kallum_motion_pilot_GIST_update_2,2026.1.1,Win32,58.13953488,660d675bbdf59327d9deb4ad,69b92ab4aef6dee357cd729a,69b92b3516a5e416439f5b5b,0.1138,0.1138,1,48,210,11,1,twofour,,,,,,,,,,,,,,,,,,,,,,,,,,,,,,,,,,,,,,,,,,,,,,,,,,,,,,,,,,,,,,,,,,,,,,,,,,,,,,,,,,,,,,,,,,,,,,,,,,,,,,,,,,,,,,,,,,,,,,,,,,,,,,,,,,,,,,,,,
,,660d675bbdf59327d9deb4ad,2026-03-17_12h22.53.345,kallum_motion_pilot_GIST_update_2,2026.1.1,Win32,58.13953488,660d675bbdf59327d9deb4ad,69b92ab4aef6dee357cd729a,69b92b3516a5e416439f5b5b,0.1142,0.1142,1,49,211,0,1,onetwo,,,,,,,,,,,,,,,,,,,,,,,,,,,,,,,,,,,,,,,,,,,,,,,,,,,,,,,,,,,,,,,,,,,,,,,,,,,,,,,,,,,,,,,,,,,,,,,,,,,,,,,,,,,,,,,,,,,,,,,,,,,,,,,,,,,,,,,,,
,,660d675bbdf59327d9deb4ad,2026-03-17_12h22.53.345,kallum_motion_pilot_GIST_update_2,2026.1.1,Win32,58.13953488,660d675bbdf59327d9deb4ad,69b92ab4aef6dee357cd729a,69b92b3516a5e416439f5b5b,0.1144,0.1144,1,50,212,65,1,onethree,,,,,,,,,,,,,,,,,,,,,,,,,,,,,,,,,,,,,,,,,,,,,,,,,,,,,,,,,,,,,,,,,,,,,,,,,,,,,,,,,,,,,,,,,,,,,,,,,,,,,,,,,,,,,,,,,,,,,,,,,,,,,,,,,,,,,,,,,
,,660d675bbdf59327d9deb4ad,2026-03-17_12h22.53.345,kallum_motion_pilot_GIST_update_2,2026.1.1,Win32,58.13953488,660d675bbdf59327d9deb4ad,69b92ab4aef6dee357cd729a,69b92b3516a5e416439f5b5b,0.1148,0.1148,1,51,213,83,1,sixeight,,,,,,,,,,,,,,,,,,,,,,,,,,,,,,,,,,,,,,,,,,,,,,,,,,,,,,,,,,,,,,,,,,,,,,,,,,,,,,,,,,,,,,,,,,,,,,,,,,,,,,,,,,,,,,,,,,,,,,,,,,,,,,,,,,,,,,,,,
,,660d675bbdf59327d9deb4ad,2026-03-17_12h22.53.345,kallum_motion_pilot_GIST_update_2,2026.1.1,Win32,58.13953488,660d675bbdf59327d9deb4ad,69b92ab4aef6dee357cd729a,69b92b3516a5e416439f5b5b,0.1151,0.1151,1,52,214,115,1,sixeight,,,,,,,,,,,,,,,,,,,,,,,,,,,,,,,,,,,,,,,,,,,,,,,,,,,,,,,,,,,,,,,,,,,,,,,,,,,,,,,,,,,,,,,,,,,,,,,,,,,,,,,,,,,,,,,,,,,,,,,,,,,,,,,,,,,,,,,,,
,,660d675bbdf59327d9deb4ad,2026-03-17_12h22.53.345,kallum_motion_pilot_GIST_update_2,2026.1.1,Win32,58.13953488,660d675bbdf59327d9deb4ad,69b92ab4aef6dee357cd729a,69b92b3516a5e416439f5b5b,0.1154,0.1154,1,53,215,56,1,onetwo,,,,,,,,,,,,,,,,,,,,,,,,,,,,,,,,,,,,,,,,,,,,,,,,,,,,,,,,,,,,,,,,,,,,,,,,,,,,,,,,,,,,,,,,,,,,,,,,,,,,,,,,,,,,,,,,,,,,,,,,,,,,,,,,,,,,,,,,,
,,660d675bbdf59327d9deb4ad,2026-03-17_12h22.53.345,kallum_motion_pilot_GIST_update_2,2026.1.1,Win32,58.13953488,660d675bbdf59327d9deb4ad,69b92ab4aef6dee357cd729a,69b92b3516a5e416439f5b5b,0.1157,0.1157,1,54,216,39,1,fourthree,,,,,,,,,,,,,,,,,,,,,,,,,,,,,,,,,,,,,,,,,,,,,,,,,,,,,,,,,,,,,,,,,,,,,,,,,,,,,,,,,,,,,,,,,,,,,,,,,,,,,,,,,,,,,,,,,,,,,,,,,,,,,,,,,,,,,,,,,
,,660d675bbdf59327d9deb4ad,2026-03-17_12h22.53.345,kallum_motion_pilot_GIST_update_2,2026.1.1,Win32,58.13953488,660d675bbdf59327d9deb4ad,69b92ab4aef6dee357cd729a,69b92b3516a5e416439f5b5b,0.116,0.116,1,55,217,12,1,threeone,,,,,,,,,,,,,,,,,,,,,,,,,,,,,,,,,,,,,,,,,,,,,,,,,,,,,,,,,,,,,,,,,,,,,,,,,,,,,,,,,,,,,,,,,,,,,,,,,,,,,,,,,,,,,,,,,,,,,,,,,,,,,,,,,,,,,,,,,
,,660d675bbdf59327d9deb4ad,2026-03-17_12h22.53.345,kallum_motion_pilot_GIST_update_2,2026.1.1,Win32,58.13953488,660d675bbdf59327d9deb4ad,69b92ab4aef6dee357cd729a,69b92b3516a5e416439f5b5b,0.1163,0.1163,1,56,218,43,1,twofour,,,,,,,,,,,,,,,,,,,,,,,,,,,,,,,,,,,,,,,,,,,,,,,,,,,,,,,,,,,,,,,,,,,,,,,,,,,,,,,,,,,,,,,,,,,,,,,,,,,,,,,,,,,,,,,,,,,,,,,,,,,,,,,,,,,,,,,,,
,,660d675bbdf59327d9deb4ad,2026-03-17_12h22.53.345,kallum_motion_pilot_GIST_update_2,2026.1.1,Win32,58.13953488,660d675bbdf59327d9deb4ad,69b92ab4aef6dee357cd729a,69b92b3516a5e416439f5b5b,0.1166,0.1166,1,57,219,50,1,twoone,,,,,,,,,,,,,,,,,,,,,,,,,,,,,,,,,,,,,,,,,,,,,,,,,,,,,,,,,,,,,,,,,,,,,,,,,,,,,,,,,,,,,,,,,,,,,,,,,,,,,,,,,,,,,,,,,,,,,,,,,,,,,,,,,,,,,,,,,
,,660d675bbdf59327d9deb4ad,2026-03-17_12h22.53.345,kallum_motion_pilot_GIST_update_2,2026.1.1,Win32,58.13953488,660d675bbdf59327d9deb4ad,69b92ab4aef6dee357cd729a,69b92b3516a5e416439f5b5b,0.1168,0.1168,1,58,220,59,1,twofour,,,,,,,,,,,,,,,,,,,,,,,,,,,,,,,,,,,,,,,,,,,,,,,,,,,,,,,,,,,,,,,,,,,,,,,,,,,,,,,,,,,,,,,,,,,,,,,,,,,,,,,,,,,,,,,,,,,,,,,,,,,,,,,,,,,,,,,,,
,,660d675bbdf59327d9deb4ad,2026-03-17_12h22.53.345,kallum_motion_pilot_GIST_update_2,2026.1.1,Win32,58.13953488,660d675bbdf59327d9deb4ad,69b92ab4aef6dee357cd729a,69b92b3516a5e416439f5b5b,0.1171,0.1171,1,59,221,150,1,eightsix,,,,,,,,,,,,,,,,,,,,,,,,,,,,,,,,,,,,,,,,,,,,,,,,,,,,,,,,,,,,,,,,,,,,,,,,,,,,,,,,,,,,,,,,,,,,,,,,,,,,,,,,,,,,,,,,,,,,,,,,,,,,,,,,,,,,,,,,,
,,660d675bbdf59327d9deb4ad,2026-03-17_12h22.53.345,kallum_motion_pilot_GIST_update_2,2026.1.1,Win32,58.13953488,660d675bbdf59327d9deb4ad,69b92ab4aef6dee357cd729a,69b92b3516a5e416439f5b5b,0.1174,0.1174,1,60,222,5,1,threefour,,,,,,,,,,,,,,,,,,,,,,,,,,,,,,,,,,,,,,,,,,,,,,,,,,,,,,,,,,,,,,,,,,,,,,,,,,,,,,,,,,,,,,,,,,,,,,,,,,,,,,,,,,,,,,,,,,,,,,,,,,,,,,,,,,,,,,,,,
,,660d675bbdf59327d9deb4ad,2026-03-17_12h22.53.345,kallum_motion_pilot_GIST_update_2,2026.1.1,Win32,58.13953488,660d675bbdf59327d9deb4ad,69b92ab4aef6dee357cd729a,69b92b3516a5e416439f5b5b,0.1177,0.1177,1,61,223,79,1,eightseven,,,,,,,,,,,,,,,,,,,,,,,,,,,,,,,,,,,,,,,,,,,,,,,,,,,,,,,,,,,,,,,,,,,,,,,,,,,,,,,,,,,,,,,,,,,,,,,,,,,,,,,,,,,,,,,,,,,,,,,,,,,,,,,,,,,,,,,,,
,,660d675bbdf59327d9deb4ad,2026-03-17_12h22.53.345,kallum_motion_pilot_GIST_update_2,2026.1.1,Win32,58.13953488,660d675bbdf59327d9deb4ad,69b92ab4aef6dee357cd729a,69b92b3516a5e416439f5b5b,0.118,0.1181,1,62,224,37,1,threefour,,,,,,,,,,,,,,,,,,,,,,,,,,,,,,,,,,,,,,,,,,,,,,,,,,,,,,,,,,,,,,,,,,,,,,,,,,,,,,,,,,,,,,,,,,,,,,,,,,,,,,,,,,,,,,,,,,,,,,,,,,,,,,,,,,,,,,,,,
,,660d675bbdf59327d9deb4ad,2026-03-17_12h22.53.345,kallum_motion_pilot_GIST_update_2,2026.1.1,Win32,58.13953488,660d675bbdf59327d9deb4ad,69b92ab4aef6dee357cd729a,69b92b3516a5e416439f5b5b,0.1184,0.1184,1,63,225,47,1,fourthree,,,,,,,,,,,,,,,,,,,,,,,,,,,,,,,,,,,,,,,,,,,,,,,,,,,,,,,,,,,,,,,,,,,,,,,,,,,,,,,,,,,,,,,,,,,,,,,,,,,,,,,,,,,,,,,,,,,,,,,,,,,,,,,,,,,,,,,,,
,,660d675bbdf59327d9deb4ad,2026-03-17_12h22.53.345,kallum_motion_pilot_GIST_update_2,2026.1.1,Win32,58.13953488,660d675bbdf59327d9deb4ad,69b92ab4aef6dee357cd729a,69b92b3516a5e416439f5b5b,0.1187,0.1187,1,64,226,8,1,onetwo,,,,,,,,,,,,,,,,,,,,,,,,,,,,,,,,,,,,,,,,,,,,,,,,,,,,,,,,,,,,,,,,,,,,,,,,,,,,,,,,,,,,,,,,,,,,,,,,,,,,,,,,,,,,,,,,,,,,,,,,,,,,,,,,,,,,,,,,,
,,660d675bbdf59327d9deb4ad,2026-03-17_12h22.53.345,kallum_motion_pilot_GIST_update_2,2026.1.1,Win32,58.13953488,660d675bbdf59327d9deb4ad,69b92ab4aef6dee357cd729a,69b92b3516a5e416439f5b5b,0.119,0.119,1,65,227,143,1,eightseven,,,,,,,,,,,,,,,,,,,,,,,,,,,,,,,,,,,,,,,,,,,,,,,,,,,,,,,,,,,,,,,,,,,,,,,,,,,,,,,,,,,,,,,,,,,,,,,,,,,,,,,,,,,,,,,,,,,,,,,,,,,,,,,,,,,,,,,,,
,,660d675bbdf59327d9deb4ad,2026-03-17_12h22.53.345,kallum_motion_pilot_GIST_update_2,2026.1.1,Win32,58.13953488,660d675bbdf59327d9deb4ad,69b92ab4aef6dee357cd729a,69b92b3516a5e416439f5b5b,0.1193,0.1193,1,66,228,32,1,onetwo,,,,,,,,,,,,,,,,,,,,,,,,,,,,,,,,,,,,,,,,,,,,,,,,,,,,,,,,,,,,,,,,,,,,,,,,,,,,,,,,,,,,,,,,,,,,,,,,,,,,,,,,,,,,,,,,,,,,,,,,,,,,,,,,,,,,,,,,,
,,660d675bbdf59327d9deb4ad,2026-03-17_12h22.53.345,kallum_motion_pilot_GIST_update_2,2026.1.1,Win32,58.13953488,660d675bbdf59327d9deb4ad,69b92ab4aef6dee357cd729a,69b92b3516a5e416439f5b5b,0.1196,0.1196,1,67,229,33,1,onethree,,,,,,,,,,,,,,,,,,,,,,,,,,,,,,,,,,,,,,,,,,,,,,,,,,,,,,,,,,,,,,,,,,,,,,,,,,,,,,,,,,,,,,,,,,,,,,,,,,,,,,,,,,,,,,,,,,,,,,,,,,,,,,,,,,,,,,,,,
,,660d675bbdf59327d9deb4ad,2026-03-17_12h22.53.345,kallum_motion_pilot_GIST_update_2,2026.1.1,Win32,58.13953488,660d675bbdf59327d9deb4ad,69b92ab4aef6dee357cd729a,69b92b3516a5e416439f5b5b,0.1198,0.1199,1,68,230,62,1,fourtwo,,,,,,,,,,,,,,,,,,,,,,,,,,,,,,,,,,,,,,,,,,,,,,,,,,,,,,,,,,,,,,,,,,,,,,,,,,,,,,,,,,,,,,,,,,,,,,,,,,,,,,,,,,,,,,,,,,,,,,,,,,,,,,,,,,,,,,,,,
,,660d675bbdf59327d9deb4ad,2026-03-17_12h22.53.345,kallum_motion_pilot_GIST_update_2,2026.1.1,Win32,58.13953488,660d675bbdf59327d9deb4ad,69b92ab4aef6dee357cd729a,69b92b3516a5e416439f5b5b,0.1202,0.1202,1,69,231,6,1,fourtwo,,,,,,,,,,,,,,,,,,,,,,,,,,,,,,,,,,,,,,,,,,,,,,,,,,,,,,,,,,,,,,,,,,,,,,,,,,,,,,,,,,,,,,,,,,,,,,,,,,,,,,,,,,,,,,,,,,,,,,,,,,,,,,,,,,,,,,,,,
,,660d675bbdf59327d9deb4ad,2026-03-17_12h22.53.345,kallum_motion_pilot_GIST_update_2,2026.1.1,Win32,58.13953488,660d675bbdf59327d9deb4ad,69b92ab4aef6dee357cd729a,69b92b3516a5e416439f5b5b,0.1204,0.1205,1,70,232,96,1,fivesix,,,,,,,,,,,,,,,,,,,,,,,,,,,,,,,,,,,,,,,,,,,,,,,,,,,,,,,,,,,,,,,,,,,,,,,,,,,,,,,,,,,,,,,,,,,,,,,,,,,,,,,,,,,,,,,,,,,,,,,,,,,,,,,,,,,,,,,,,
,,660d675bbdf59327d9deb4ad,2026-03-17_12h22.53.345,kallum_motion_pilot_GIST_update_2,2026.1.1,Win32,58.13953488,660d675bbdf59327d9deb4ad,69b92ab4aef6dee357cd729a,69b92b3516a5e416439f5b5b,0.1207,0.1207,1,71,233,55,1,fourthree,,,,,,,,,,,,,,,,,,,,,,,,,,,,,,,,,,,,,,,,,,,,,,,,,,,,,,,,,,,,,,,,,,,,,,,,,,,,,,,,,,,,,,,,,,,,,,,,,,,,,,,,,,,,,,,,,,,,,,,,,,,,,,,,,,,,,,,,,
,,660d675bbdf59327d9deb4ad,2026-03-17_12h22.53.345,kallum_motion_pilot_GIST_update_2,2026.1.1,Win32,58.13953488,660d675bbdf59327d9deb4ad,69b92ab4aef6dee357cd729a,69b92b3516a5e416439f5b5b,0.1212,0.1212,1,72,234,139,1,sixeight,,,,,,,,,,,,,,,,,,,,,,,,,,,,,,,,,,,,,,,,,,,,,,,,,,,,,,,,,,,,,,,,,,,,,,,,,,,,,,,,,,,,,,,,,,,,,,,,,,,,,,,,,,,,,,,,,,,,,,,,,,,,,,,,,,,,,,,,,
,,660d675bbdf59327d9deb4ad,2026-03-17_12h22.53.345,kallum_motion_pilot_GIST_update_2,2026.1.1,Win32,58.13953488,660d675bbdf59327d9deb4ad,69b92ab4aef6dee357cd729a,69b92b3516a5e416439f5b5b,0.1214,0.1214,1,73,235,63,1,fourthree,,,,,,,,,,,,,,,,,,,,,,,,,,,,,,,,,,,,,,,,,,,,,,,,,,,,,,,,,,,,,,,,,,,,,,,,,,,,,,,,,,,,,,,,,,,,,,,,,,,,,,,,,,,,,,,,,,,,,,,,,,,,,,,,,,,,,,,,,
,,660d675bbdf59327d9deb4ad,2026-03-17_12h22.53.345,kallum_motion_pilot_GIST_update_2,2026.1.1,Win32,58.13953488,660d675bbdf59327d9deb4ad,69b92ab4aef6dee357cd729a,69b92b3516a5e416439f5b5b,0.1217,0.1218,1,74,236,156,1,sevenfive,,,,,,,,,,,,,,,,,,,,,,,,,,,,,,,,,,,,,,,,,,,,,,,,,,,,,,,,,,,,,,,,,,,,,,,,,,,,,,,,,,,,,,,,,,,,,,,,,,,,,,,,,,,,,,,,,,,,,,,,,,,,,,,,,,,,,,,,,
,,660d675bbdf59327d9deb4ad,2026-03-17_12h22.53.345,kallum_motion_pilot_GIST_update_2,2026.1.1,Win32,58.13953488,660d675bbdf59327d9deb4ad,69b92ab4aef6dee357cd729a,69b92b3516a5e416439f5b5b,0.1222,0.1222,1,75,237,51,1,twofour,,,,,,,,,,,,,,,,,,,,,,,,,,,,,,,,,,,,,,,,,,,,,,,,,,,,,,,,,,,,,,,,,,,,,,,,,,,,,,,,,,,,,,,,,,,,,,,,,,,,,,,,,,,,,,,,,,,,,,,,,,,,,,,,,,,,,,,,,
,,660d675bbdf59327d9deb4ad,2026-03-17_12h22.53.345,kallum_motion_pilot_GIST_update_2,2026.1.1,Win32,58.13953488,660d675bbdf59327d9deb4ad,69b92ab4aef6dee357cd729a,69b92b3516a5e416439f5b5b,0.123,0.123,1,76,238,136,1,fivesix,,,,,,,,,,,,,,,,,,,,,,,,,,,,,,,,,,,,,,,,,,,,,,,,,,,,,,,,,,,,,,,,,,,,,,,,,,,,,,,,,,,,,,,,,,,,,,,,,,,,,,,,,,,,,,,,,,,,,,,,,,,,,,,,,,,,,,,,,
,,660d675bbdf59327d9deb4ad,2026-03-17_12h22.53.345,kallum_motion_pilot_GIST_update_2,2026.1.1,Win32,58.13953488,660d675bbdf59327d9deb4ad,69b92ab4aef6dee357cd729a,69b92b3516a5e416439f5b5b,0.1234,0.1234,1,77,239,142,1,eightsix,,,,,,,,,,,,,,,,,,,,,,,,,,,,,,,,,,,,,,,,,,,,,,,,,,,,,,,,,,,,,,,,,,,,,,,,,,,,,,,,,,,,,,,,,,,,,,,,,,,,,,,,,,,,,,,,,,,,,,,,,,,,,,,,,,,,,,,,,
,,660d675bbdf59327d9deb4ad,2026-03-17_12h22.53.345,kallum_motion_pilot_GIST_update_2,2026.1.1,Win32,58.13953488,660d675bbdf59327d9deb4ad,69b92ab4aef6dee357cd729a,69b92b3516a5e416439f5b5b,0.1237,0.1238,1,78,240,25,1,onethree,,,,,,,,,,,,,,,,,,,,,,,,,,,,,,,,,,,,,,,,,,,,,,,,,,,,,,,,,,,,,,,,,,,,,,,,,,,,,,,,,,,,,,,,,,,,,,,,,,,,,,,,,,,,,,,,,,,,,,,,,,,,,,,,,,,,,,,,,
,,660d675bbdf59327d9deb4ad,2026-03-17_12h22.53.345,kallum_motion_pilot_GIST_update_2,2026.1.1,Win32,58.13953488,660d675bbdf59327d9deb4ad,69b92ab4aef6dee357cd729a,69b92b3516a5e416439f5b5b,0.1241,0.1242,1,79,241,90,1,sixfive,,,,,,,,,,,,,,,,,,,,,,,,,,,,,,,,,,,,,,,,,,,,,,,,,,,,,,,,,,,,,,,,,,,,,,,,,,,,,,,,,,,,,,,,,,,,,,,,,,,,,,,,,,,,,,,,,,,,,,,,,,,,,,,,,,,,,,,,,
,,660d675bbdf59327d9deb4ad,2026-03-17_12h22.53.345,kallum_motion_pilot_GIST_update_2,2026.1.1,Win32,58.13953488,660d675bbdf59327d9deb4ad,69b92ab4aef6dee357cd729a,69b92b3516a5e416439f5b5b,0.1246,0.1246,1,80,242,123,1,sixeight,,,,,,,,,,,,,,,,,,,,,,,,,,,,,,,,,,,,,,,,,,,,,,,,,,,,,,,,,,,,,,,,,,,,,,,,,,,,,,,,,,,,,,,,,,,,,,,,,,,,,,,,,,,,,,,,,,,,,,,,,,,,,,,,,,,,,,,,,
,,660d675bbdf59327d9deb4ad,2026-03-17_12h22.53.345,kallum_motion_pilot_GIST_update_2,2026.1.1,Win32,58.13953488,660d675bbdf59327d9deb4ad,69b92ab4aef6dee357cd729a,69b92b3516a5e416439f5b5b,0.1249,0.125,1,81,243,14,1,fourtwo,,,,,,,,,,,,,,,,,,,,,,,,,,,,,,,,,,,,,,,,,,,,,,,,,,,,,,,,,,,,,,,,,,,,,,,,,,,,,,,,,,,,,,,,,,,,,,,,,,,,,,,,,,,,,,,,,,,,,,,,,,,,,,,,,,,,,,,,,
,,660d675bbdf59327d9deb4ad,2026-03-17_12h22.53.345,kallum_motion_pilot_GIST_update_2,2026.1.1,Win32,58.13953488,660d675bbdf59327d9deb4ad,69b92ab4aef6dee357cd729a,69b92b3516a5e416439f5b5b,0.1253,0.1253,1,82,244,116,1,sevenfive,,,,,,,,,,,,,,,,,,,,,,,,,,,,,,,,,,,,,,,,,,,,,,,,,,,,,,,,,,,,,,,,,,,,,,,,,,,,,,,,,,,,,,,,,,,,,,,,,,,,,,,,,,,,,,,,,,,,,,,,,,,,,,,,,,,,,,,,,
,,660d675bbdf59327d9deb4ad,2026-03-17_12h22.53.345,kallum_motion_pilot_GIST_update_2,2026.1.1,Win32,58.13953488,660d675bbdf59327d9deb4ad,69b92ab4aef6dee357cd729a,69b92b3516a5e416439f5b5b,0.1257,0.1257,1,83,245,119,1,eightseven,,,,,,,,,,,,,,,,,,,,,,,,,,,,,,,,,,,,,,,,,,,,,,,,,,,,,,,,,,,,,,,,,,,,,,,,,,,,,,,,,,,,,,,,,,,,,,,,,,,,,,,,,,,,,,,,,,,,,,,,,,,,,,,,,,,,,,,,,
,,660d675bbdf59327d9deb4ad,2026-03-17_12h22.53.345,kallum_motion_pilot_GIST_update_2,2026.1.1,Win32,58.13953488,660d675bbdf59327d9deb4ad,69b92ab4aef6dee357cd729a,69b92b3516a5e416439f5b5b,0.126,0.126,1,84,246,117,1,seveneight,,,,,,,,,,,,,,,,,,,,,,,,,,,,,,,,,,,,,,,,,,,,,,,,,,,,,,,,,,,,,,,,,,,,,,,,,,,,,,,,,,,,,,,,,,,,,,,,,,,,,,,,,,,,,,,,,,,,,,,,,,,,,,,,,,,,,,,,,
,,660d675bbdf59327d9deb4ad,2026-03-17_12h22.53.345,kallum_motion_pilot_GIST_update_2,2026.1.1,Win32,58.13953488,660d675bbdf59327d9deb4ad,69b92ab4aef6dee357cd729a,69b92b3516a5e416439f5b5b,0.1264,0.1264,1,85,247,73,1,onethree,,,,,,,,,,,,,,,,,,,,,,,,,,,,,,,,,,,,,,,,,,,,,,,,,,,,,,,,,,,,,,,,,,,,,,,,,,,,,,,,,,,,,,,,,,,,,,,,,,,,,,,,,,,,,,,,,,,,,,,,,,,,,,,,,,,,,,,,,
,,660d675bbdf59327d9deb4ad,2026-03-17_12h22.53.345,kallum_motion_pilot_GIST_update_2,2026.1.1,Win32,58.13953488,660d675bbdf59327d9deb4ad,69b92ab4aef6dee357cd729a,69b92b3516a5e416439f5b5b,0.1268,0.1268,1,86,248,107,1,sixeight,,,,,,,,,,,,,,,,,,,,,,,,,,,,,,,,,,,,,,,,,,,,,,,,,,,,,,,,,,,,,,,,,,,,,,,,,,,,,,,,,,,,,,,,,,,,,,,,,,,,,,,,,,,,,,,,,,,,,,,,,,,,,,,,,,,,,,,,,
,,660d675bbdf59327d9deb4ad,2026-03-17_12h22.53.345,kallum_motion_pilot_GIST_update_2,2026.1.1,Win32,58.13953488,660d675bbdf59327d9deb4ad,69b92ab4aef6dee357cd729a,69b92b3516a5e416439f5b5b,0.1272,0.1272,1,87,249,67,1,twofour,,,,,,,,,,,,,,,,,,,,,,,,,,,,,,,,,,,,,,,,,,,,,,,,,,,,,,,,,,,,,,,,,,,,,,,,,,,,,,,,,,,,,,,,,,,,,,,,,,,,,,,,,,,,,,,,,,,,,,,,,,,,,,,,,,,,,,,,,
,,660d675bbdf59327d9deb4ad,2026-03-17_12h22.53.345,kallum_motion_pilot_GIST_update_2,2026.1.1,Win32,58.13953488,660d675bbdf59327d9deb4ad,69b92ab4aef6dee357cd729a,69b92b3516a5e416439f5b5b,0.1276,0.1276,1,88,250,26,1,twoone,,,,,,,,,,,,,,,,,,,,,,,,,,,,,,,,,,,,,,,,,,,,,,,,,,,,,,,,,,,,,,,,,,,,,,,,,,,,,,,,,,,,,,,,,,,,,,,,,,,,,,,,,,,,,,,,,,,,,,,,,,,,,,,,,,,,,,,,,
,,660d675bbdf59327d9deb4ad,2026-03-17_12h22.53.345,kallum_motion_pilot_GIST_update_2,2026.1.1,Win32,58.13953488,660d675bbdf59327d9deb4ad,69b92ab4aef6dee357cd729a,69b92b3516a5e416439f5b5b,0.128,0.128,1,89,251,85,1,seveneight,,,,,,,,,,,,,,,,,,,,,,,,,,,,,,,,,,,,,,,,,,,,,,,,,,,,,,,,,,,,,,,,,,,,,,,,,,,,,,,,,,,,,,,,,,,,,,,,,,,,,,,,,,,,,,,,,,,,,,,,,,,,,,,,,,,,,,,,,
,,660d675bbdf59327d9deb4ad,2026-03-17_12h22.53.345,kallum_motion_pilot_GIST_update_2,2026.1.1,Win32,58.13953488,660d675bbdf59327d9deb4ad,69b92ab4aef6dee357cd729a,69b92b3516a5e416439f5b5b,0.1282,0.1283,1,90,252,10,1,twoone,,,,,,,,,,,,,,,,,,,,,,,,,,,,,,,,,,,,,,,,,,,,,,,,,,,,,,,,,,,,,,,,,,,,,,,,,,,,,,,,,,,,,,,,,,,,,,,,,,,,,,,,,,,,,,,,,,,,,,,,,,,,,,,,,,,,,,,,,
,,660d675bbdf59327d9deb4ad,2026-03-17_12h22.53.345,kallum_motion_pilot_GIST_update_2,2026.1.1,Win32,58.13953488,660d675bbdf59327d9deb4ad,69b92ab4aef6dee357cd729a,69b92b3516a5e416439f5b5b,0.1286,0.1286,1,91,253,16,1,onetwo,,,,,,,,,,,,,,,,,,,,,,,,,,,,,,,,,,,,,,,,,,,,,,,,,,,,,,,,,,,,,,,,,,,,,,,,,,,,,,,,,,,,,,,,,,,,,,,,,,,,,,,,,,,,,,,,,,,,,,,,,,,,,,,,,,,,,,,,,
,,660d675bbdf59327d9deb4ad,2026-03-17_12h22.53.345,kallum_motion_pilot_GIST_update_2,2026.1.1,Win32,58.13953488,660d675bbdf59327d9deb4ad,69b92ab4aef6dee357cd729a,69b92b3516a5e416439f5b5b,0.1291,0.1291,1,92,254,29,1,threefour,,,,,,,,,,,,,,,,,,,,,,,,,,,,,,,,,,,,,,,,,,,,,,,,,,,,,,,,,,,,,,,,,,,,,,,,,,,,,,,,,,,,,,,,,,,,,,,,,,,,,,,,,,,,,,,,,,,,,,,,,,,,,,,,,,,,,,,,,
,,660d675bbdf59327d9deb4ad,2026-03-17_12h22.53.345,kallum_motion_pilot_GIST_update_2,2026.1.1,Win32,58.13953488,660d675bbdf59327d9deb4ad,69b92ab4aef6dee357cd729a,69b92b3516a5e416439f5b5b,0.1295,0.1295,1,93,255,147,1,sixeight,,,,,,,,,,,,,,,,,,,,,,,,,,,,,,,,,,,,,,,,,,,,,,,,,,,,,,,,,,,,,,,,,,,,,,,,,,,,,,,,,,,,,,,,,,,,,,,,,,,,,,,,,,,,,,,,,,,,,,,,,,,,,,,,,,,,,,,,,
,,660d675bbdf59327d9deb4ad,2026-03-17_12h22.53.345,kallum_motion_pilot_GIST_update_2,2026.1.1,Win32,58.13953488,660d675bbdf59327d9deb4ad,69b92ab4aef6dee357cd729a,69b92b3516a5e416439f5b5b,0.1299,0.1299,1,94,256,141,1,seveneight,,,,,,,,,,,,,,,,,,,,,,,,,,,,,,,,,,,,,,,,,,,,,,,,,,,,,,,,,,,,,,,,,,,,,,,,,,,,,,,,,,,,,,,,,,,,,,,,,,,,,,,,,,,,,,,,,,,,,,,,,,,,,,,,,,,,,,,,,
,,660d675bbdf59327d9deb4ad,2026-03-17_12h22.53.345,kallum_motion_pilot_GIST_update_2,2026.1.1,Win32,58.13953488,660d675bbdf59327d9deb4ad,69b92ab4aef6dee357cd729a,69b92b3516a5e416439f5b5b,0.1301,0.1301,1,95,257,66,1,twoone,,,,,,,,,,,,,,,,,,,,,,,,,,,,,,,,,,,,,,,,,,,,,,,,,,,,,,,,,,,,,,,,,,,,,,,,,,,,,,,,,,,,,,,,,,,,,,,,,,,,,,,,,,,,,,,,,,,,,,,,,,,,,,,,,,,,,,,,,
,,660d675bbdf59327d9deb4ad,2026-03-17_12h22.53.345,kallum_motion_pilot_GIST_update_2,2026.1.1,Win32,58.13953488,660d675bbdf59327d9deb4ad,69b92ab4aef6dee357cd729a,69b92b3516a5e416439f5b5b,0.1305,0.1305,1,96,258,89,1,fiveseven,,,,,,,,,,,,,,,,,,,,,,,,,,,,,,,,,,,,,,,,,,,,,,,,,,,,,,,,,,,,,,,,,,,,,,,,,,,,,,,,,,,,,,,,,,,,,,,,,,,,,,,,,,,,,,,,,,,,,,,,,,,,,,,,,,,,,,,,,
,,660d675bbdf59327d9deb4ad,2026-03-17_12h22.53.345,kallum_motion_pilot_GIST_update_2,2026.1.1,Win32,58.13953488,660d675bbdf59327d9deb4ad,69b92ab4aef6dee357cd729a,69b92b3516a5e416439f5b5b,0.1309,0.1309,1,97,259,31,1,fourthree,,,,,,,,,,,,,,,,,,,,,,,,,,,,,,,,,,,,,,,,,,,,,,,,,,,,,,,,,,,,,,,,,,,,,,,,,,,,,,,,,,,,,,,,,,,,,,,,,,,,,,,,,,,,,,,,,,,,,,,,,,,,,,,,,,,,,,,,,
,,660d675bbdf59327d9deb4ad,2026-03-17_12h22.53.345,kallum_motion_pilot_GIST_update_2,2026.1.1,Win32,58.13953488,660d675bbdf59327d9deb4ad,69b92ab4aef6dee357cd729a,69b92b3516a5e416439f5b5b,0.1312,0.1312,1,98,260,155,1,sixeight,,,,,,,,,,,,,,,,,,,,,,,,,,,,,,,,,,,,,,,,,,,,,,,,,,,,,,,,,,,,,,,,,,,,,,,,,,,,,,,,,,,,,,,,,,,,,,,,,,,,,,,,,,,,,,,,,,,,,,,,,,,,,,,,,,,,,,,,,
,,660d675bbdf59327d9deb4ad,2026-03-17_12h22.53.345,kallum_motion_pilot_GIST_update_2,2026.1.1,Win32,58.13953488,660d675bbdf59327d9deb4ad,69b92ab4aef6dee357cd729a,69b92b3516a5e416439f5b5b,0.1316,0.1316,1,99,261,131,1,sixeight,,,,,,,,,,,,,,,,,,,,,,,,,,,,,,,,,,,,,,,,,,,,,,,,,,,,,,,,,,,,,,,,,,,,,,,,,,,,,,,,,,,,,,,,,,,,,,,,,,,,,,,,,,,,,,,,,,,,,,,,,,,,,,,,,,,,,,,,,
,,660d675bbdf59327d9deb4ad,2026-03-17_12h22.53.345,kallum_motion_pilot_GIST_update_2,2026.1.1,Win32,58.13953488,660d675bbdf59327d9deb4ad,69b92ab4aef6dee357cd729a,69b92b3516a5e416439f5b5b,0.1319,0.1319,1,100,262,4,1,threeone,,,,,,,,,,,,,,,,,,,,,,,,,,,,,,,,,,,,,,,,,,,,,,,,,,,,,,,,,,,,,,,,,,,,,,,,,,,,,,,,,,,,,,,,,,,,,,,,,,,,,,,,,,,,,,,,,,,,,,,,,,,,,,,,,,,,,,,,,
,,660d675bbdf59327d9deb4ad,2026-03-17_12h22.53.345,kallum_motion_pilot_GIST_update_2,2026.1.1,Win32,58.13953488,660d675bbdf59327d9deb4ad,69b92ab4aef6dee357cd729a,69b92b3516a5e416439f5b5b,0.1324,0.1324,1,101,263,152,1,fivesix,,,,,,,,,,,,,,,,,,,,,,,,,,,,,,,,,,,,,,,,,,,,,,,,,,,,,,,,,,,,,,,,,,,,,,,,,,,,,,,,,,,,,,,,,,,,,,,,,,,,,,,,,,,,,,,,,,,,,,,,,,,,,,,,,,,,,,,,,
,,660d675bbdf59327d9deb4ad,2026-03-17_12h22.53.345,kallum_motion_pilot_GIST_update_2,2026.1.1,Win32,58.13953488,660d675bbdf59327d9deb4ad,69b92ab4aef6dee357cd729a,69b92b3516a5e416439f5b5b,0.1328,0.1329,1,102,264,144,1,fivesix,,,,,,,,,,,,,,,,,,,,,,,,,,,,,,,,,,,,,,,,,,,,,,,,,,,,,,,,,,,,,,,,,,,,,,,,,,,,,,,,,,,,,,,,,,,,,,,,,,,,,,,,,,,,,,,,,,,,,,,,,,,,,,,,,,,,,,,,,
,,660d675bbdf59327d9deb4ad,2026-03-17_12h22.53.345,kallum_motion_pilot_GIST_update_2,2026.1.1,Win32,58.13953488,660d675bbdf59327d9deb4ad,69b92ab4aef6dee357cd729a,69b92b3516a5e416439f5b5b,0.1331,0.1331,1,103,265,125,1,seveneight,,,,,,,,,,,,,,,,,,,,,,,,,,,,,,,,,,,,,,,,,,,,,,,,,,,,,,,,,,,,,,,,,,,,,,,,,,,,,,,,,,,,,,,,,,,,,,,,,,,,,,,,,,,,,,,,,,,,,,,,,,,,,,,,,,,,,,,,,
,,660d675bbdf59327d9deb4ad,2026-03-17_12h22.53.345,kallum_motion_pilot_GIST_update_2,2026.1.1,Win32,58.13953488,660d675bbdf59327d9deb4ad,69b92ab4aef6dee357cd729a,69b92b3516a5e416439f5b5b,0.1335,0.1335,1,104,266,110,1,eightsix,,,,,,,,,,,,,,,,,,,,,,,,,,,,,,,,,,,,,,,,,,,,,,,,,,,,,,,,,,,,,,,,,,,,,,,,,,,,,,,,,,,,,,,,,,,,,,,,,,,,,,,,,,,,,,,,,,,,,,,,,,,,,,,,,,,,,,,,,
