startup.started,startup.stopped,Prolific ID*,date,expName,psychopyVersion,OS,frameRate,participant,study_id,session,stimpositions.started,stimpositions.stopped,hardcoded_stimulus_positions.thisRepN,hardcoded_stimulus_positions.thisTrialN,hardcoded_stimulus_positions.thisN,hardcoded_stimulus_positions.thisIndex,hardcoded_stimulus_positions.ran,StimulusPos,stimorientation.started,stimorientation.stopped,prac_stimorientation_import_loop.thisRepN,prac_stimorientation_import_loop.thisTrialN,prac_stimorientation_import_loop.thisN,prac_stimorientation_import_loop.thisIndex,prac_stimorientation_import_loop.ran,Stimorientation,welcome_instr.started,welcome_instr.stopped,key_resp.keys,key_resp.rt,key_resp.duration,response_steppedout_1.started,response_steppedout_1.stopped,key_resp_20.keys,key_resp_20.rt,key_resp_20.duration,response_steppedout_2.started,response_steppedout_2.stopped,key_resp_19.keys,key_resp_19.rt,key_resp_19.duration,stim_response_instr.started,stim_response_instr.stopped,key_resp_15.keys,key_resp_15.rt,key_resp_15.duration,direction_instr_2.started,direction_instr_2.stopped,key_resp_9.keys,key_resp_9.rt,key_resp_9.duration,instr_prac.started,instr_prac.stopped,key_resp_10.keys,key_resp_10.rt,key_resp_10.duration,Stim1_display_prac.started,Stim1_display_prac.stopped,Ecc,Circle1_ori,Circle2_ori,response_prac.started,similarity,response_time,response_prac.stopped,mouse_5.x,mouse_5.y,mouse_5.leftButton,mouse_5.midButton,mouse_5.rightButton,mouse_5.clicked_name,responseprac_feedback.started,responseprac_feedback.stopped,summary2_prac.started,summary2_prac.stopped,mouse_6.x,mouse_6.y,mouse_6.leftButton,mouse_6.midButton,mouse_6.rightButton,mouse_6.clicked_name,duringprac.thisRepN,duringprac.thisTrialN,duringprac.thisN,duringprac.thisIndex,duringprac.ran,begin.started,begin.stopped,key_resp_22.keys,key_resp_22.rt,key_resp_22.duration,Stim1_display.started,Stim1_display.stopped,circle1_ori,circle2_ori,circle1_SF,circle2_SF,response.started,response.stopped,mouse.x,mouse.y,mouse.leftButton,mouse.midButton,mouse.rightButton,mouse.clicked_name,trialnumber,double_pass.thisRepN,double_pass.thisTrialN,double_pass.thisN,double_pass.thisIndex,double_pass.ran,double_pass.order,main_trial.thisRepN,main_trial.thisTrialN,main_trial.thisN,main_trial.thisIndex,main_trial.ran,main_trial.order,Trial_Counter,Catch,Frequencies,response_2.started,response_2.stopped,mouse_2.x,mouse_2.y,mouse_2.leftButton,mouse_2.midButton,mouse_2.rightButton,mouse_2.clicked_name,special_trial.started,special_trial.stopped,catch_1.started,catch_1.stopped,mouse_3.x,mouse_3.y,mouse_3.leftButton,mouse_3.midButton,mouse_3.rightButton,catchresponse,catchnumber,response_time_catch,response_sum.started,response_sum.stopped,mouse_11.x,mouse_11.y,mouse_11.leftButton,mouse_11.midButton,mouse_11.rightButton,flip_presentation_sequence_for_double_pass.started,flip_presentation_sequence_for_double_pass.stopped,goodbye.started,goodbye.stopped,key_resp_3.keys,key_resp_3.rt,key_resp_3.duration
0.0002,0.0003,663b638be7226d4e3fcc255f,2026-03-17_10h55.40.295,kallum_motion_pilot_GIST_update_2,2026.1.1,Win32,61.34969325,663b638be7226d4e3fcc255f,69b92ab4aef6dee357cd729a,69b92b5a139c8e40709ed6d2,,,,,,,,,,,,,,,,,,,,,,,,,,,,,,,,,,,,,,,,,,,,,,,,,,,,,,,,,,,,,,,,,,,,,,,,,,,,,,,,,,,,,,,,,,,,,,,,,,,,,,,,,,,,,,,,,,,,,,,,,,,,,,,,,,,,,,,,,,,,,,,,,
,,663b638be7226d4e3fcc255f,2026-03-17_10h55.40.295,kallum_motion_pilot_GIST_update_2,2026.1.1,Win32,61.34969325,663b638be7226d4e3fcc255f,69b92ab4aef6dee357cd729a,69b92b5a139c8e40709ed6d2,0.0186,0.0186,0,0,0,128,1,fivesix,,,,,,,,,,,,,,,,,,,,,,,,,,,,,,,,,,,,,,,,,,,,,,,,,,,,,,,,,,,,,,,,,,,,,,,,,,,,,,,,,,,,,,,,,,,,,,,,,,,,,,,,,,,,,,,,,,,,,,,,,,,,,,,,,,,,,,,,,
,,663b638be7226d4e3fcc255f,2026-03-17_10h55.40.295,kallum_motion_pilot_GIST_update_2,2026.1.1,Win32,61.34969325,663b638be7226d4e3fcc255f,69b92ab4aef6dee357cd729a,69b92b5a139c8e40709ed6d2,0.019,0.019,0,1,1,151,1,eightseven,,,,,,,,,,,,,,,,,,,,,,,,,,,,,,,,,,,,,,,,,,,,,,,,,,,,,,,,,,,,,,,,,,,,,,,,,,,,,,,,,,,,,,,,,,,,,,,,,,,,,,,,,,,,,,,,,,,,,,,,,,,,,,,,,,,,,,,,,
,,663b638be7226d4e3fcc255f,2026-03-17_10h55.40.295,kallum_motion_pilot_GIST_update_2,2026.1.1,Win32,61.34969325,663b638be7226d4e3fcc255f,69b92ab4aef6dee357cd729a,69b92b5a139c8e40709ed6d2,0.0191,0.0191,0,2,2,6,1,fourtwo,,,,,,,,,,,,,,,,,,,,,,,,,,,,,,,,,,,,,,,,,,,,,,,,,,,,,,,,,,,,,,,,,,,,,,,,,,,,,,,,,,,,,,,,,,,,,,,,,,,,,,,,,,,,,,,,,,,,,,,,,,,,,,,,,,,,,,,,,
,,663b638be7226d4e3fcc255f,2026-03-17_10h55.40.295,kallum_motion_pilot_GIST_update_2,2026.1.1,Win32,61.34969325,663b638be7226d4e3fcc255f,69b92ab4aef6dee357cd729a,69b92b5a139c8e40709ed6d2,0.0193,0.0193,0,3,3,144,1,fivesix,,,,,,,,,,,,,,,,,,,,,,,,,,,,,,,,,,,,,,,,,,,,,,,,,,,,,,,,,,,,,,,,,,,,,,,,,,,,,,,,,,,,,,,,,,,,,,,,,,,,,,,,,,,,,,,,,,,,,,,,,,,,,,,,,,,,,,,,,
,,663b638be7226d4e3fcc255f,2026-03-17_10h55.40.295,kallum_motion_pilot_GIST_update_2,2026.1.1,Win32,61.34969325,663b638be7226d4e3fcc255f,69b92ab4aef6dee357cd729a,69b92b5a139c8e40709ed6d2,0.0195,0.0195,0,4,4,62,1,fourtwo,,,,,,,,,,,,,,,,,,,,,,,,,,,,,,,,,,,,,,,,,,,,,,,,,,,,,,,,,,,,,,,,,,,,,,,,,,,,,,,,,,,,,,,,,,,,,,,,,,,,,,,,,,,,,,,,,,,,,,,,,,,,,,,,,,,,,,,,,
,,663b638be7226d4e3fcc255f,2026-03-17_10h55.40.295,kallum_motion_pilot_GIST_update_2,2026.1.1,Win32,61.34969325,663b638be7226d4e3fcc255f,69b92ab4aef6dee357cd729a,69b92b5a139c8e40709ed6d2,0.0196,0.0196,0,5,5,142,1,eightsix,,,,,,,,,,,,,,,,,,,,,,,,,,,,,,,,,,,,,,,,,,,,,,,,,,,,,,,,,,,,,,,,,,,,,,,,,,,,,,,,,,,,,,,,,,,,,,,,,,,,,,,,,,,,,,,,,,,,,,,,,,,,,,,,,,,,,,,,,
,,663b638be7226d4e3fcc255f,2026-03-17_10h55.40.295,kallum_motion_pilot_GIST_update_2,2026.1.1,Win32,61.34969325,663b638be7226d4e3fcc255f,69b92ab4aef6dee357cd729a,69b92b5a139c8e40709ed6d2,0.0197,0.0197,0,6,6,80,1,fivesix,,,,,,,,,,,,,,,,,,,,,,,,,,,,,,,,,,,,,,,,,,,,,,,,,,,,,,,,,,,,,,,,,,,,,,,,,,,,,,,,,,,,,,,,,,,,,,,,,,,,,,,,,,,,,,,,,,,,,,,,,,,,,,,,,,,,,,,,,
,,663b638be7226d4e3fcc255f,2026-03-17_10h55.40.295,kallum_motion_pilot_GIST_update_2,2026.1.1,Win32,61.34969325,663b638be7226d4e3fcc255f,69b92ab4aef6dee357cd729a,69b92b5a139c8e40709ed6d2,0.0198,0.0198,0,7,7,131,1,sixeight,,,,,,,,,,,,,,,,,,,,,,,,,,,,,,,,,,,,,,,,,,,,,,,,,,,,,,,,,,,,,,,,,,,,,,,,,,,,,,,,,,,,,,,,,,,,,,,,,,,,,,,,,,,,,,,,,,,,,,,,,,,,,,,,,,,,,,,,,
,,663b638be7226d4e3fcc255f,2026-03-17_10h55.40.295,kallum_motion_pilot_GIST_update_2,2026.1.1,Win32,61.34969325,663b638be7226d4e3fcc255f,69b92ab4aef6dee357cd729a,69b92b5a139c8e40709ed6d2,0.0199,0.0199,0,8,8,72,1,onetwo,,,,,,,,,,,,,,,,,,,,,,,,,,,,,,,,,,,,,,,,,,,,,,,,,,,,,,,,,,,,,,,,,,,,,,,,,,,,,,,,,,,,,,,,,,,,,,,,,,,,,,,,,,,,,,,,,,,,,,,,,,,,,,,,,,,,,,,,,
,,663b638be7226d4e3fcc255f,2026-03-17_10h55.40.295,kallum_motion_pilot_GIST_update_2,2026.1.1,Win32,61.34969325,663b638be7226d4e3fcc255f,69b92ab4aef6dee357cd729a,69b92b5a139c8e40709ed6d2,0.0201,0.0201,0,9,9,70,1,fourtwo,,,,,,,,,,,,,,,,,,,,,,,,,,,,,,,,,,,,,,,,,,,,,,,,,,,,,,,,,,,,,,,,,,,,,,,,,,,,,,,,,,,,,,,,,,,,,,,,,,,,,,,,,,,,,,,,,,,,,,,,,,,,,,,,,,,,,,,,,
,,663b638be7226d4e3fcc255f,2026-03-17_10h55.40.295,kallum_motion_pilot_GIST_update_2,2026.1.1,Win32,61.34969325,663b638be7226d4e3fcc255f,69b92ab4aef6dee357cd729a,69b92b5a139c8e40709ed6d2,0.0202,0.0202,0,10,10,14,1,fourtwo,,,,,,,,,,,,,,,,,,,,,,,,,,,,,,,,,,,,,,,,,,,,,,,,,,,,,,,,,,,,,,,,,,,,,,,,,,,,,,,,,,,,,,,,,,,,,,,,,,,,,,,,,,,,,,,,,,,,,,,,,,,,,,,,,,,,,,,,,
,,663b638be7226d4e3fcc255f,2026-03-17_10h55.40.295,kallum_motion_pilot_GIST_update_2,2026.1.1,Win32,61.34969325,663b638be7226d4e3fcc255f,69b92ab4aef6dee357cd729a,69b92b5a139c8e40709ed6d2,0.0202,0.0202,0,11,11,45,1,threefour,,,,,,,,,,,,,,,,,,,,,,,,,,,,,,,,,,,,,,,,,,,,,,,,,,,,,,,,,,,,,,,,,,,,,,,,,,,,,,,,,,,,,,,,,,,,,,,,,,,,,,,,,,,,,,,,,,,,,,,,,,,,,,,,,,,,,,,,,
,,663b638be7226d4e3fcc255f,2026-03-17_10h55.40.295,kallum_motion_pilot_GIST_update_2,2026.1.1,Win32,61.34969325,663b638be7226d4e3fcc255f,69b92ab4aef6dee357cd729a,69b92b5a139c8e40709ed6d2,0.0203,0.0203,0,12,12,38,1,fourtwo,,,,,,,,,,,,,,,,,,,,,,,,,,,,,,,,,,,,,,,,,,,,,,,,,,,,,,,,,,,,,,,,,,,,,,,,,,,,,,,,,,,,,,,,,,,,,,,,,,,,,,,,,,,,,,,,,,,,,,,,,,,,,,,,,,,,,,,,,
,,663b638be7226d4e3fcc255f,2026-03-17_10h55.40.295,kallum_motion_pilot_GIST_update_2,2026.1.1,Win32,61.34969325,663b638be7226d4e3fcc255f,69b92ab4aef6dee357cd729a,69b92b5a139c8e40709ed6d2,0.0204,0.0204,0,13,13,4,1,threeone,,,,,,,,,,,,,,,,,,,,,,,,,,,,,,,,,,,,,,,,,,,,,,,,,,,,,,,,,,,,,,,,,,,,,,,,,,,,,,,,,,,,,,,,,,,,,,,,,,,,,,,,,,,,,,,,,,,,,,,,,,,,,,,,,,,,,,,,,
,,663b638be7226d4e3fcc255f,2026-03-17_10h55.40.295,kallum_motion_pilot_GIST_update_2,2026.1.1,Win32,61.34969325,663b638be7226d4e3fcc255f,69b92ab4aef6dee357cd729a,69b92b5a139c8e40709ed6d2,0.0204,0.0204,0,14,14,46,1,fourtwo,,,,,,,,,,,,,,,,,,,,,,,,,,,,,,,,,,,,,,,,,,,,,,,,,,,,,,,,,,,,,,,,,,,,,,,,,,,,,,,,,,,,,,,,,,,,,,,,,,,,,,,,,,,,,,,,,,,,,,,,,,,,,,,,,,,,,,,,,
,,663b638be7226d4e3fcc255f,2026-03-17_10h55.40.295,kallum_motion_pilot_GIST_update_2,2026.1.1,Win32,61.34969325,663b638be7226d4e3fcc255f,69b92ab4aef6dee357cd729a,69b92b5a139c8e40709ed6d2,0.0205,0.0205,0,15,15,87,1,eightseven,,,,,,,,,,,,,,,,,,,,,,,,,,,,,,,,,,,,,,,,,,,,,,,,,,,,,,,,,,,,,,,,,,,,,,,,,,,,,,,,,,,,,,,,,,,,,,,,,,,,,,,,,,,,,,,,,,,,,,,,,,,,,,,,,,,,,,,,,
,,663b638be7226d4e3fcc255f,2026-03-17_10h55.40.295,kallum_motion_pilot_GIST_update_2,2026.1.1,Win32,61.34969325,663b638be7226d4e3fcc255f,69b92ab4aef6dee357cd729a,69b92b5a139c8e40709ed6d2,0.0205,0.0205,0,16,16,19,1,twofour,,,,,,,,,,,,,,,,,,,,,,,,,,,,,,,,,,,,,,,,,,,,,,,,,,,,,,,,,,,,,,,,,,,,,,,,,,,,,,,,,,,,,,,,,,,,,,,,,,,,,,,,,,,,,,,,,,,,,,,,,,,,,,,,,,,,,,,,,
,,663b638be7226d4e3fcc255f,2026-03-17_10h55.40.295,kallum_motion_pilot_GIST_update_2,2026.1.1,Win32,61.34969325,663b638be7226d4e3fcc255f,69b92ab4aef6dee357cd729a,69b92b5a139c8e40709ed6d2,0.0206,0.0207,0,17,17,55,1,fourthree,,,,,,,,,,,,,,,,,,,,,,,,,,,,,,,,,,,,,,,,,,,,,,,,,,,,,,,,,,,,,,,,,,,,,,,,,,,,,,,,,,,,,,,,,,,,,,,,,,,,,,,,,,,,,,,,,,,,,,,,,,,,,,,,,,,,,,,,,
,,663b638be7226d4e3fcc255f,2026-03-17_10h55.40.295,kallum_motion_pilot_GIST_update_2,2026.1.1,Win32,61.34969325,663b638be7226d4e3fcc255f,69b92ab4aef6dee357cd729a,69b92b5a139c8e40709ed6d2,0.0207,0.0207,0,18,18,5,1,threefour,,,,,,,,,,,,,,,,,,,,,,,,,,,,,,,,,,,,,,,,,,,,,,,,,,,,,,,,,,,,,,,,,,,,,,,,,,,,,,,,,,,,,,,,,,,,,,,,,,,,,,,,,,,,,,,,,,,,,,,,,,,,,,,,,,,,,,,,,
,,663b638be7226d4e3fcc255f,2026-03-17_10h55.40.295,kallum_motion_pilot_GIST_update_2,2026.1.1,Win32,61.34969325,663b638be7226d4e3fcc255f,69b92ab4aef6dee357cd729a,69b92b5a139c8e40709ed6d2,0.0207,0.0207,0,19,19,125,1,seveneight,,,,,,,,,,,,,,,,,,,,,,,,,,,,,,,,,,,,,,,,,,,,,,,,,,,,,,,,,,,,,,,,,,,,,,,,,,,,,,,,,,,,,,,,,,,,,,,,,,,,,,,,,,,,,,,,,,,,,,,,,,,,,,,,,,,,,,,,,
,,663b638be7226d4e3fcc255f,2026-03-17_10h55.40.295,kallum_motion_pilot_GIST_update_2,2026.1.1,Win32,61.34969325,663b638be7226d4e3fcc255f,69b92ab4aef6dee357cd729a,69b92b5a139c8e40709ed6d2,0.0208,0.0208,0,20,20,33,1,onethree,,,,,,,,,,,,,,,,,,,,,,,,,,,,,,,,,,,,,,,,,,,,,,,,,,,,,,,,,,,,,,,,,,,,,,,,,,,,,,,,,,,,,,,,,,,,,,,,,,,,,,,,,,,,,,,,,,,,,,,,,,,,,,,,,,,,,,,,,
,,663b638be7226d4e3fcc255f,2026-03-17_10h55.40.295,kallum_motion_pilot_GIST_update_2,2026.1.1,Win32,61.34969325,663b638be7226d4e3fcc255f,69b92ab4aef6dee357cd729a,69b92b5a139c8e40709ed6d2,0.0208,0.0208,0,21,21,51,1,twofour,,,,,,,,,,,,,,,,,,,,,,,,,,,,,,,,,,,,,,,,,,,,,,,,,,,,,,,,,,,,,,,,,,,,,,,,,,,,,,,,,,,,,,,,,,,,,,,,,,,,,,,,,,,,,,,,,,,,,,,,,,,,,,,,,,,,,,,,,
,,663b638be7226d4e3fcc255f,2026-03-17_10h55.40.295,kallum_motion_pilot_GIST_update_2,2026.1.1,Win32,61.34969325,663b638be7226d4e3fcc255f,69b92ab4aef6dee357cd729a,69b92b5a139c8e40709ed6d2,0.0209,0.0209,0,22,22,120,1,fivesix,,,,,,,,,,,,,,,,,,,,,,,,,,,,,,,,,,,,,,,,,,,,,,,,,,,,,,,,,,,,,,,,,,,,,,,,,,,,,,,,,,,,,,,,,,,,,,,,,,,,,,,,,,,,,,,,,,,,,,,,,,,,,,,,,,,,,,,,,
,,663b638be7226d4e3fcc255f,2026-03-17_10h55.40.295,kallum_motion_pilot_GIST_update_2,2026.1.1,Win32,61.34969325,663b638be7226d4e3fcc255f,69b92ab4aef6dee357cd729a,69b92b5a139c8e40709ed6d2,0.0209,0.0209,0,23,23,34,1,twoone,,,,,,,,,,,,,,,,,,,,,,,,,,,,,,,,,,,,,,,,,,,,,,,,,,,,,,,,,,,,,,,,,,,,,,,,,,,,,,,,,,,,,,,,,,,,,,,,,,,,,,,,,,,,,,,,,,,,,,,,,,,,,,,,,,,,,,,,,
,,663b638be7226d4e3fcc255f,2026-03-17_10h55.40.295,kallum_motion_pilot_GIST_update_2,2026.1.1,Win32,61.34969325,663b638be7226d4e3fcc255f,69b92ab4aef6dee357cd729a,69b92b5a139c8e40709ed6d2,0.0211,0.0211,0,24,24,12,1,threeone,,,,,,,,,,,,,,,,,,,,,,,,,,,,,,,,,,,,,,,,,,,,,,,,,,,,,,,,,,,,,,,,,,,,,,,,,,,,,,,,,,,,,,,,,,,,,,,,,,,,,,,,,,,,,,,,,,,,,,,,,,,,,,,,,,,,,,,,,
,,663b638be7226d4e3fcc255f,2026-03-17_10h55.40.295,kallum_motion_pilot_GIST_update_2,2026.1.1,Win32,61.34969325,663b638be7226d4e3fcc255f,69b92ab4aef6dee357cd729a,69b92b5a139c8e40709ed6d2,0.0211,0.0211,0,25,25,8,1,onetwo,,,,,,,,,,,,,,,,,,,,,,,,,,,,,,,,,,,,,,,,,,,,,,,,,,,,,,,,,,,,,,,,,,,,,,,,,,,,,,,,,,,,,,,,,,,,,,,,,,,,,,,,,,,,,,,,,,,,,,,,,,,,,,,,,,,,,,,,,
,,663b638be7226d4e3fcc255f,2026-03-17_10h55.40.295,kallum_motion_pilot_GIST_update_2,2026.1.1,Win32,61.34969325,663b638be7226d4e3fcc255f,69b92ab4aef6dee357cd729a,69b92b5a139c8e40709ed6d2,0.0212,0.0212,0,26,26,48,1,onetwo,,,,,,,,,,,,,,,,,,,,,,,,,,,,,,,,,,,,,,,,,,,,,,,,,,,,,,,,,,,,,,,,,,,,,,,,,,,,,,,,,,,,,,,,,,,,,,,,,,,,,,,,,,,,,,,,,,,,,,,,,,,,,,,,,,,,,,,,,
,,663b638be7226d4e3fcc255f,2026-03-17_10h55.40.295,kallum_motion_pilot_GIST_update_2,2026.1.1,Win32,61.34969325,663b638be7226d4e3fcc255f,69b92ab4aef6dee357cd729a,69b92b5a139c8e40709ed6d2,0.0213,0.0213,0,27,27,68,1,threeone,,,,,,,,,,,,,,,,,,,,,,,,,,,,,,,,,,,,,,,,,,,,,,,,,,,,,,,,,,,,,,,,,,,,,,,,,,,,,,,,,,,,,,,,,,,,,,,,,,,,,,,,,,,,,,,,,,,,,,,,,,,,,,,,,,,,,,,,,
,,663b638be7226d4e3fcc255f,2026-03-17_10h55.40.295,kallum_motion_pilot_GIST_update_2,2026.1.1,Win32,61.34969325,663b638be7226d4e3fcc255f,69b92ab4aef6dee357cd729a,69b92b5a139c8e40709ed6d2,0.0213,0.0213,0,28,28,109,1,seveneight,,,,,,,,,,,,,,,,,,,,,,,,,,,,,,,,,,,,,,,,,,,,,,,,,,,,,,,,,,,,,,,,,,,,,,,,,,,,,,,,,,,,,,,,,,,,,,,,,,,,,,,,,,,,,,,,,,,,,,,,,,,,,,,,,,,,,,,,,
,,663b638be7226d4e3fcc255f,2026-03-17_10h55.40.295,kallum_motion_pilot_GIST_update_2,2026.1.1,Win32,61.34969325,663b638be7226d4e3fcc255f,69b92ab4aef6dee357cd729a,69b92b5a139c8e40709ed6d2,0.0214,0.0214,0,29,29,124,1,sevenfive,,,,,,,,,,,,,,,,,,,,,,,,,,,,,,,,,,,,,,,,,,,,,,,,,,,,,,,,,,,,,,,,,,,,,,,,,,,,,,,,,,,,,,,,,,,,,,,,,,,,,,,,,,,,,,,,,,,,,,,,,,,,,,,,,,,,,,,,,
,,663b638be7226d4e3fcc255f,2026-03-17_10h55.40.295,kallum_motion_pilot_GIST_update_2,2026.1.1,Win32,61.34969325,663b638be7226d4e3fcc255f,69b92ab4aef6dee357cd729a,69b92b5a139c8e40709ed6d2,0.0215,0.0215,0,30,30,7,1,fourthree,,,,,,,,,,,,,,,,,,,,,,,,,,,,,,,,,,,,,,,,,,,,,,,,,,,,,,,,,,,,,,,,,,,,,,,,,,,,,,,,,,,,,,,,,,,,,,,,,,,,,,,,,,,,,,,,,,,,,,,,,,,,,,,,,,,,,,,,,
,,663b638be7226d4e3fcc255f,2026-03-17_10h55.40.295,kallum_motion_pilot_GIST_update_2,2026.1.1,Win32,61.34969325,663b638be7226d4e3fcc255f,69b92ab4aef6dee357cd729a,69b92b5a139c8e40709ed6d2,0.0216,0.0216,0,31,31,97,1,fiveseven,,,,,,,,,,,,,,,,,,,,,,,,,,,,,,,,,,,,,,,,,,,,,,,,,,,,,,,,,,,,,,,,,,,,,,,,,,,,,,,,,,,,,,,,,,,,,,,,,,,,,,,,,,,,,,,,,,,,,,,,,,,,,,,,,,,,,,,,,
,,663b638be7226d4e3fcc255f,2026-03-17_10h55.40.295,kallum_motion_pilot_GIST_update_2,2026.1.1,Win32,61.34969325,663b638be7226d4e3fcc255f,69b92ab4aef6dee357cd729a,69b92b5a139c8e40709ed6d2,0.0217,0.0217,0,32,32,93,1,seveneight,,,,,,,,,,,,,,,,,,,,,,,,,,,,,,,,,,,,,,,,,,,,,,,,,,,,,,,,,,,,,,,,,,,,,,,,,,,,,,,,,,,,,,,,,,,,,,,,,,,,,,,,,,,,,,,,,,,,,,,,,,,,,,,,,,,,,,,,,
,,663b638be7226d4e3fcc255f,2026-03-17_10h55.40.295,kallum_motion_pilot_GIST_update_2,2026.1.1,Win32,61.34969325,663b638be7226d4e3fcc255f,69b92ab4aef6dee357cd729a,69b92b5a139c8e40709ed6d2,0.0217,0.0217,0,33,33,148,1,sevenfive,,,,,,,,,,,,,,,,,,,,,,,,,,,,,,,,,,,,,,,,,,,,,,,,,,,,,,,,,,,,,,,,,,,,,,,,,,,,,,,,,,,,,,,,,,,,,,,,,,,,,,,,,,,,,,,,,,,,,,,,,,,,,,,,,,,,,,,,,
,,663b638be7226d4e3fcc255f,2026-03-17_10h55.40.295,kallum_motion_pilot_GIST_update_2,2026.1.1,Win32,61.34969325,663b638be7226d4e3fcc255f,69b92ab4aef6dee357cd729a,69b92b5a139c8e40709ed6d2,0.0218,0.0218,0,34,34,82,1,sixfive,,,,,,,,,,,,,,,,,,,,,,,,,,,,,,,,,,,,,,,,,,,,,,,,,,,,,,,,,,,,,,,,,,,,,,,,,,,,,,,,,,,,,,,,,,,,,,,,,,,,,,,,,,,,,,,,,,,,,,,,,,,,,,,,,,,,,,,,,
,,663b638be7226d4e3fcc255f,2026-03-17_10h55.40.295,kallum_motion_pilot_GIST_update_2,2026.1.1,Win32,61.34969325,663b638be7226d4e3fcc255f,69b92ab4aef6dee357cd729a,69b92b5a139c8e40709ed6d2,0.0218,0.0218,0,35,35,74,1,twoone,,,,,,,,,,,,,,,,,,,,,,,,,,,,,,,,,,,,,,,,,,,,,,,,,,,,,,,,,,,,,,,,,,,,,,,,,,,,,,,,,,,,,,,,,,,,,,,,,,,,,,,,,,,,,,,,,,,,,,,,,,,,,,,,,,,,,,,,,
,,663b638be7226d4e3fcc255f,2026-03-17_10h55.40.295,kallum_motion_pilot_GIST_update_2,2026.1.1,Win32,61.34969325,663b638be7226d4e3fcc255f,69b92ab4aef6dee357cd729a,69b92b5a139c8e40709ed6d2,0.0219,0.022,0,36,36,10,1,twoone,,,,,,,,,,,,,,,,,,,,,,,,,,,,,,,,,,,,,,,,,,,,,,,,,,,,,,,,,,,,,,,,,,,,,,,,,,,,,,,,,,,,,,,,,,,,,,,,,,,,,,,,,,,,,,,,,,,,,,,,,,,,,,,,,,,,,,,,,
,,663b638be7226d4e3fcc255f,2026-03-17_10h55.40.295,kallum_motion_pilot_GIST_update_2,2026.1.1,Win32,61.34969325,663b638be7226d4e3fcc255f,69b92ab4aef6dee357cd729a,69b92b5a139c8e40709ed6d2,0.022,0.022,0,37,37,136,1,fivesix,,,,,,,,,,,,,,,,,,,,,,,,,,,,,,,,,,,,,,,,,,,,,,,,,,,,,,,,,,,,,,,,,,,,,,,,,,,,,,,,,,,,,,,,,,,,,,,,,,,,,,,,,,,,,,,,,,,,,,,,,,,,,,,,,,,,,,,,,
,,663b638be7226d4e3fcc255f,2026-03-17_10h55.40.295,kallum_motion_pilot_GIST_update_2,2026.1.1,Win32,61.34969325,663b638be7226d4e3fcc255f,69b92ab4aef6dee357cd729a,69b92b5a139c8e40709ed6d2,0.0221,0.0221,0,38,38,156,1,sevenfive,,,,,,,,,,,,,,,,,,,,,,,,,,,,,,,,,,,,,,,,,,,,,,,,,,,,,,,,,,,,,,,,,,,,,,,,,,,,,,,,,,,,,,,,,,,,,,,,,,,,,,,,,,,,,,,,,,,,,,,,,,,,,,,,,,,,,,,,,
,,663b638be7226d4e3fcc255f,2026-03-17_10h55.40.295,kallum_motion_pilot_GIST_update_2,2026.1.1,Win32,61.34969325,663b638be7226d4e3fcc255f,69b92ab4aef6dee357cd729a,69b92b5a139c8e40709ed6d2,0.0221,0.0222,0,39,39,146,1,sixfive,,,,,,,,,,,,,,,,,,,,,,,,,,,,,,,,,,,,,,,,,,,,,,,,,,,,,,,,,,,,,,,,,,,,,,,,,,,,,,,,,,,,,,,,,,,,,,,,,,,,,,,,,,,,,,,,,,,,,,,,,,,,,,,,,,,,,,,,,
,,663b638be7226d4e3fcc255f,2026-03-17_10h55.40.295,kallum_motion_pilot_GIST_update_2,2026.1.1,Win32,61.34969325,663b638be7226d4e3fcc255f,69b92ab4aef6dee357cd729a,69b92b5a139c8e40709ed6d2,0.0223,0.0223,0,40,40,129,1,fiveseven,,,,,,,,,,,,,,,,,,,,,,,,,,,,,,,,,,,,,,,,,,,,,,,,,,,,,,,,,,,,,,,,,,,,,,,,,,,,,,,,,,,,,,,,,,,,,,,,,,,,,,,,,,,,,,,,,,,,,,,,,,,,,,,,,,,,,,,,,
,,663b638be7226d4e3fcc255f,2026-03-17_10h55.40.295,kallum_motion_pilot_GIST_update_2,2026.1.1,Win32,61.34969325,663b638be7226d4e3fcc255f,69b92ab4aef6dee357cd729a,69b92b5a139c8e40709ed6d2,0.0223,0.0224,0,41,41,88,1,fivesix,,,,,,,,,,,,,,,,,,,,,,,,,,,,,,,,,,,,,,,,,,,,,,,,,,,,,,,,,,,,,,,,,,,,,,,,,,,,,,,,,,,,,,,,,,,,,,,,,,,,,,,,,,,,,,,,,,,,,,,,,,,,,,,,,,,,,,,,,
,,663b638be7226d4e3fcc255f,2026-03-17_10h55.40.295,kallum_motion_pilot_GIST_update_2,2026.1.1,Win32,61.34969325,663b638be7226d4e3fcc255f,69b92ab4aef6dee357cd729a,69b92b5a139c8e40709ed6d2,0.0224,0.0224,0,42,42,2,1,twoone,,,,,,,,,,,,,,,,,,,,,,,,,,,,,,,,,,,,,,,,,,,,,,,,,,,,,,,,,,,,,,,,,,,,,,,,,,,,,,,,,,,,,,,,,,,,,,,,,,,,,,,,,,,,,,,,,,,,,,,,,,,,,,,,,,,,,,,,,
,,663b638be7226d4e3fcc255f,2026-03-17_10h55.40.295,kallum_motion_pilot_GIST_update_2,2026.1.1,Win32,61.34969325,663b638be7226d4e3fcc255f,69b92ab4aef6dee357cd729a,69b92b5a139c8e40709ed6d2,0.0225,0.0225,0,43,43,98,1,sixfive,,,,,,,,,,,,,,,,,,,,,,,,,,,,,,,,,,,,,,,,,,,,,,,,,,,,,,,,,,,,,,,,,,,,,,,,,,,,,,,,,,,,,,,,,,,,,,,,,,,,,,,,,,,,,,,,,,,,,,,,,,,,,,,,,,,,,,,,,
,,663b638be7226d4e3fcc255f,2026-03-17_10h55.40.295,kallum_motion_pilot_GIST_update_2,2026.1.1,Win32,61.34969325,663b638be7226d4e3fcc255f,69b92ab4aef6dee357cd729a,69b92b5a139c8e40709ed6d2,0.0226,0.0226,0,44,44,53,1,threefour,,,,,,,,,,,,,,,,,,,,,,,,,,,,,,,,,,,,,,,,,,,,,,,,,,,,,,,,,,,,,,,,,,,,,,,,,,,,,,,,,,,,,,,,,,,,,,,,,,,,,,,,,,,,,,,,,,,,,,,,,,,,,,,,,,,,,,,,,
,,663b638be7226d4e3fcc255f,2026-03-17_10h55.40.295,kallum_motion_pilot_GIST_update_2,2026.1.1,Win32,61.34969325,663b638be7226d4e3fcc255f,69b92ab4aef6dee357cd729a,69b92b5a139c8e40709ed6d2,0.0226,0.0226,0,45,45,147,1,sixeight,,,,,,,,,,,,,,,,,,,,,,,,,,,,,,,,,,,,,,,,,,,,,,,,,,,,,,,,,,,,,,,,,,,,,,,,,,,,,,,,,,,,,,,,,,,,,,,,,,,,,,,,,,,,,,,,,,,,,,,,,,,,,,,,,,,,,,,,,
,,663b638be7226d4e3fcc255f,2026-03-17_10h55.40.295,kallum_motion_pilot_GIST_update_2,2026.1.1,Win32,61.34969325,663b638be7226d4e3fcc255f,69b92ab4aef6dee357cd729a,69b92b5a139c8e40709ed6d2,0.0227,0.0227,0,46,46,161,1,fiveseven,,,,,,,,,,,,,,,,,,,,,,,,,,,,,,,,,,,,,,,,,,,,,,,,,,,,,,,,,,,,,,,,,,,,,,,,,,,,,,,,,,,,,,,,,,,,,,,,,,,,,,,,,,,,,,,,,,,,,,,,,,,,,,,,,,,,,,,,,
,,663b638be7226d4e3fcc255f,2026-03-17_10h55.40.295,kallum_motion_pilot_GIST_update_2,2026.1.1,Win32,61.34969325,663b638be7226d4e3fcc255f,69b92ab4aef6dee357cd729a,69b92b5a139c8e40709ed6d2,0.0228,0.0228,0,47,47,150,1,eightsix,,,,,,,,,,,,,,,,,,,,,,,,,,,,,,,,,,,,,,,,,,,,,,,,,,,,,,,,,,,,,,,,,,,,,,,,,,,,,,,,,,,,,,,,,,,,,,,,,,,,,,,,,,,,,,,,,,,,,,,,,,,,,,,,,,,,,,,,,
,,663b638be7226d4e3fcc255f,2026-03-17_10h55.40.295,kallum_motion_pilot_GIST_update_2,2026.1.1,Win32,61.34969325,663b638be7226d4e3fcc255f,69b92ab4aef6dee357cd729a,69b92b5a139c8e40709ed6d2,0.0228,0.0228,0,48,48,107,1,sixeight,,,,,,,,,,,,,,,,,,,,,,,,,,,,,,,,,,,,,,,,,,,,,,,,,,,,,,,,,,,,,,,,,,,,,,,,,,,,,,,,,,,,,,,,,,,,,,,,,,,,,,,,,,,,,,,,,,,,,,,,,,,,,,,,,,,,,,,,,
,,663b638be7226d4e3fcc255f,2026-03-17_10h55.40.295,kallum_motion_pilot_GIST_update_2,2026.1.1,Win32,61.34969325,663b638be7226d4e3fcc255f,69b92ab4aef6dee357cd729a,69b92b5a139c8e40709ed6d2,0.0229,0.0229,0,49,49,79,1,eightseven,,,,,,,,,,,,,,,,,,,,,,,,,,,,,,,,,,,,,,,,,,,,,,,,,,,,,,,,,,,,,,,,,,,,,,,,,,,,,,,,,,,,,,,,,,,,,,,,,,,,,,,,,,,,,,,,,,,,,,,,,,,,,,,,,,,,,,,,,
,,663b638be7226d4e3fcc255f,2026-03-17_10h55.40.295,kallum_motion_pilot_GIST_update_2,2026.1.1,Win32,61.34969325,663b638be7226d4e3fcc255f,69b92ab4aef6dee357cd729a,69b92b5a139c8e40709ed6d2,0.0229,0.0229,0,50,50,106,1,sixfive,,,,,,,,,,,,,,,,,,,,,,,,,,,,,,,,,,,,,,,,,,,,,,,,,,,,,,,,,,,,,,,,,,,,,,,,,,,,,,,,,,,,,,,,,,,,,,,,,,,,,,,,,,,,,,,,,,,,,,,,,,,,,,,,,,,,,,,,,
,,663b638be7226d4e3fcc255f,2026-03-17_10h55.40.295,kallum_motion_pilot_GIST_update_2,2026.1.1,Win32,61.34969325,663b638be7226d4e3fcc255f,69b92ab4aef6dee357cd729a,69b92b5a139c8e40709ed6d2,0.023,0.023,0,51,51,132,1,sevenfive,,,,,,,,,,,,,,,,,,,,,,,,,,,,,,,,,,,,,,,,,,,,,,,,,,,,,,,,,,,,,,,,,,,,,,,,,,,,,,,,,,,,,,,,,,,,,,,,,,,,,,,,,,,,,,,,,,,,,,,,,,,,,,,,,,,,,,,,,
,,663b638be7226d4e3fcc255f,2026-03-17_10h55.40.295,kallum_motion_pilot_GIST_update_2,2026.1.1,Win32,61.34969325,663b638be7226d4e3fcc255f,69b92ab4aef6dee357cd729a,69b92b5a139c8e40709ed6d2,0.0231,0.0231,0,52,52,18,1,twoone,,,,,,,,,,,,,,,,,,,,,,,,,,,,,,,,,,,,,,,,,,,,,,,,,,,,,,,,,,,,,,,,,,,,,,,,,,,,,,,,,,,,,,,,,,,,,,,,,,,,,,,,,,,,,,,,,,,,,,,,,,,,,,,,,,,,,,,,,
,,663b638be7226d4e3fcc255f,2026-03-17_10h55.40.295,kallum_motion_pilot_GIST_update_2,2026.1.1,Win32,61.34969325,663b638be7226d4e3fcc255f,69b92ab4aef6dee357cd729a,69b92b5a139c8e40709ed6d2,0.0232,0.0232,0,53,53,158,1,eightsix,,,,,,,,,,,,,,,,,,,,,,,,,,,,,,,,,,,,,,,,,,,,,,,,,,,,,,,,,,,,,,,,,,,,,,,,,,,,,,,,,,,,,,,,,,,,,,,,,,,,,,,,,,,,,,,,,,,,,,,,,,,,,,,,,,,,,,,,,
,,663b638be7226d4e3fcc255f,2026-03-17_10h55.40.295,kallum_motion_pilot_GIST_update_2,2026.1.1,Win32,61.34969325,663b638be7226d4e3fcc255f,69b92ab4aef6dee357cd729a,69b92b5a139c8e40709ed6d2,0.0232,0.0232,0,54,54,64,1,onetwo,,,,,,,,,,,,,,,,,,,,,,,,,,,,,,,,,,,,,,,,,,,,,,,,,,,,,,,,,,,,,,,,,,,,,,,,,,,,,,,,,,,,,,,,,,,,,,,,,,,,,,,,,,,,,,,,,,,,,,,,,,,,,,,,,,,,,,,,,
,,663b638be7226d4e3fcc255f,2026-03-17_10h55.40.295,kallum_motion_pilot_GIST_update_2,2026.1.1,Win32,61.34969325,663b638be7226d4e3fcc255f,69b92ab4aef6dee357cd729a,69b92b5a139c8e40709ed6d2,0.0233,0.0233,0,55,55,114,1,sixfive,,,,,,,,,,,,,,,,,,,,,,,,,,,,,,,,,,,,,,,,,,,,,,,,,,,,,,,,,,,,,,,,,,,,,,,,,,,,,,,,,,,,,,,,,,,,,,,,,,,,,,,,,,,,,,,,,,,,,,,,,,,,,,,,,,,,,,,,,
,,663b638be7226d4e3fcc255f,2026-03-17_10h55.40.295,kallum_motion_pilot_GIST_update_2,2026.1.1,Win32,61.34969325,663b638be7226d4e3fcc255f,69b92ab4aef6dee357cd729a,69b92b5a139c8e40709ed6d2,0.0234,0.0234,0,56,56,126,1,eightsix,,,,,,,,,,,,,,,,,,,,,,,,,,,,,,,,,,,,,,,,,,,,,,,,,,,,,,,,,,,,,,,,,,,,,,,,,,,,,,,,,,,,,,,,,,,,,,,,,,,,,,,,,,,,,,,,,,,,,,,,,,,,,,,,,,,,,,,,,
,,663b638be7226d4e3fcc255f,2026-03-17_10h55.40.295,kallum_motion_pilot_GIST_update_2,2026.1.1,Win32,61.34969325,663b638be7226d4e3fcc255f,69b92ab4aef6dee357cd729a,69b92b5a139c8e40709ed6d2,0.0234,0.0234,0,57,57,122,1,sixfive,,,,,,,,,,,,,,,,,,,,,,,,,,,,,,,,,,,,,,,,,,,,,,,,,,,,,,,,,,,,,,,,,,,,,,,,,,,,,,,,,,,,,,,,,,,,,,,,,,,,,,,,,,,,,,,,,,,,,,,,,,,,,,,,,,,,,,,,,
,,663b638be7226d4e3fcc255f,2026-03-17_10h55.40.295,kallum_motion_pilot_GIST_update_2,2026.1.1,Win32,61.34969325,663b638be7226d4e3fcc255f,69b92ab4aef6dee357cd729a,69b92b5a139c8e40709ed6d2,0.0235,0.0235,0,58,58,139,1,sixeight,,,,,,,,,,,,,,,,,,,,,,,,,,,,,,,,,,,,,,,,,,,,,,,,,,,,,,,,,,,,,,,,,,,,,,,,,,,,,,,,,,,,,,,,,,,,,,,,,,,,,,,,,,,,,,,,,,,,,,,,,,,,,,,,,,,,,,,,,
,,663b638be7226d4e3fcc255f,2026-03-17_10h55.40.295,kallum_motion_pilot_GIST_update_2,2026.1.1,Win32,61.34969325,663b638be7226d4e3fcc255f,69b92ab4aef6dee357cd729a,69b92b5a139c8e40709ed6d2,0.0235,0.0235,0,59,59,15,1,fourthree,,,,,,,,,,,,,,,,,,,,,,,,,,,,,,,,,,,,,,,,,,,,,,,,,,,,,,,,,,,,,,,,,,,,,,,,,,,,,,,,,,,,,,,,,,,,,,,,,,,,,,,,,,,,,,,,,,,,,,,,,,,,,,,,,,,,,,,,,
,,663b638be7226d4e3fcc255f,2026-03-17_10h55.40.295,kallum_motion_pilot_GIST_update_2,2026.1.1,Win32,61.34969325,663b638be7226d4e3fcc255f,69b92ab4aef6dee357cd729a,69b92b5a139c8e40709ed6d2,0.0236,0.0236,0,60,60,66,1,twoone,,,,,,,,,,,,,,,,,,,,,,,,,,,,,,,,,,,,,,,,,,,,,,,,,,,,,,,,,,,,,,,,,,,,,,,,,,,,,,,,,,,,,,,,,,,,,,,,,,,,,,,,,,,,,,,,,,,,,,,,,,,,,,,,,,,,,,,,,
,,663b638be7226d4e3fcc255f,2026-03-17_10h55.40.295,kallum_motion_pilot_GIST_update_2,2026.1.1,Win32,61.34969325,663b638be7226d4e3fcc255f,69b92ab4aef6dee357cd729a,69b92b5a139c8e40709ed6d2,0.0237,0.0237,0,61,61,116,1,sevenfive,,,,,,,,,,,,,,,,,,,,,,,,,,,,,,,,,,,,,,,,,,,,,,,,,,,,,,,,,,,,,,,,,,,,,,,,,,,,,,,,,,,,,,,,,,,,,,,,,,,,,,,,,,,,,,,,,,,,,,,,,,,,,,,,,,,,,,,,,
,,663b638be7226d4e3fcc255f,2026-03-17_10h55.40.295,kallum_motion_pilot_GIST_update_2,2026.1.1,Win32,61.34969325,663b638be7226d4e3fcc255f,69b92ab4aef6dee357cd729a,69b92b5a139c8e40709ed6d2,0.0238,0.0238,0,62,62,155,1,sixeight,,,,,,,,,,,,,,,,,,,,,,,,,,,,,,,,,,,,,,,,,,,,,,,,,,,,,,,,,,,,,,,,,,,,,,,,,,,,,,,,,,,,,,,,,,,,,,,,,,,,,,,,,,,,,,,,,,,,,,,,,,,,,,,,,,,,,,,,,
,,663b638be7226d4e3fcc255f,2026-03-17_10h55.40.295,kallum_motion_pilot_GIST_update_2,2026.1.1,Win32,61.34969325,663b638be7226d4e3fcc255f,69b92ab4aef6dee357cd729a,69b92b5a139c8e40709ed6d2,0.0239,0.0239,0,63,63,17,1,onethree,,,,,,,,,,,,,,,,,,,,,,,,,,,,,,,,,,,,,,,,,,,,,,,,,,,,,,,,,,,,,,,,,,,,,,,,,,,,,,,,,,,,,,,,,,,,,,,,,,,,,,,,,,,,,,,,,,,,,,,,,,,,,,,,,,,,,,,,,
,,663b638be7226d4e3fcc255f,2026-03-17_10h55.40.295,kallum_motion_pilot_GIST_update_2,2026.1.1,Win32,61.34969325,663b638be7226d4e3fcc255f,69b92ab4aef6dee357cd729a,69b92b5a139c8e40709ed6d2,0.024,0.0241,0,64,64,152,1,fivesix,,,,,,,,,,,,,,,,,,,,,,,,,,,,,,,,,,,,,,,,,,,,,,,,,,,,,,,,,,,,,,,,,,,,,,,,,,,,,,,,,,,,,,,,,,,,,,,,,,,,,,,,,,,,,,,,,,,,,,,,,,,,,,,,,,,,,,,,,
,,663b638be7226d4e3fcc255f,2026-03-17_10h55.40.295,kallum_motion_pilot_GIST_update_2,2026.1.1,Win32,61.34969325,663b638be7226d4e3fcc255f,69b92ab4aef6dee357cd729a,69b92b5a139c8e40709ed6d2,0.0243,0.0243,0,65,65,91,1,sixeight,,,,,,,,,,,,,,,,,,,,,,,,,,,,,,,,,,,,,,,,,,,,,,,,,,,,,,,,,,,,,,,,,,,,,,,,,,,,,,,,,,,,,,,,,,,,,,,,,,,,,,,,,,,,,,,,,,,,,,,,,,,,,,,,,,,,,,,,,
,,663b638be7226d4e3fcc255f,2026-03-17_10h55.40.295,kallum_motion_pilot_GIST_update_2,2026.1.1,Win32,61.34969325,663b638be7226d4e3fcc255f,69b92ab4aef6dee357cd729a,69b92b5a139c8e40709ed6d2,0.0244,0.0244,0,66,66,127,1,eightseven,,,,,,,,,,,,,,,,,,,,,,,,,,,,,,,,,,,,,,,,,,,,,,,,,,,,,,,,,,,,,,,,,,,,,,,,,,,,,,,,,,,,,,,,,,,,,,,,,,,,,,,,,,,,,,,,,,,,,,,,,,,,,,,,,,,,,,,,,
,,663b638be7226d4e3fcc255f,2026-03-17_10h55.40.295,kallum_motion_pilot_GIST_update_2,2026.1.1,Win32,61.34969325,663b638be7226d4e3fcc255f,69b92ab4aef6dee357cd729a,69b92b5a139c8e40709ed6d2,0.0246,0.0246,0,67,67,44,1,threeone,,,,,,,,,,,,,,,,,,,,,,,,,,,,,,,,,,,,,,,,,,,,,,,,,,,,,,,,,,,,,,,,,,,,,,,,,,,,,,,,,,,,,,,,,,,,,,,,,,,,,,,,,,,,,,,,,,,,,,,,,,,,,,,,,,,,,,,,,
,,663b638be7226d4e3fcc255f,2026-03-17_10h55.40.295,kallum_motion_pilot_GIST_update_2,2026.1.1,Win32,61.34969325,663b638be7226d4e3fcc255f,69b92ab4aef6dee357cd729a,69b92b5a139c8e40709ed6d2,0.0246,0.0246,0,68,68,67,1,twofour,,,,,,,,,,,,,,,,,,,,,,,,,,,,,,,,,,,,,,,,,,,,,,,,,,,,,,,,,,,,,,,,,,,,,,,,,,,,,,,,,,,,,,,,,,,,,,,,,,,,,,,,,,,,,,,,,,,,,,,,,,,,,,,,,,,,,,,,,
,,663b638be7226d4e3fcc255f,2026-03-17_10h55.40.295,kallum_motion_pilot_GIST_update_2,2026.1.1,Win32,61.34969325,663b638be7226d4e3fcc255f,69b92ab4aef6dee357cd729a,69b92b5a139c8e40709ed6d2,0.0247,0.0247,0,69,69,134,1,eightsix,,,,,,,,,,,,,,,,,,,,,,,,,,,,,,,,,,,,,,,,,,,,,,,,,,,,,,,,,,,,,,,,,,,,,,,,,,,,,,,,,,,,,,,,,,,,,,,,,,,,,,,,,,,,,,,,,,,,,,,,,,,,,,,,,,,,,,,,,
,,663b638be7226d4e3fcc255f,2026-03-17_10h55.40.295,kallum_motion_pilot_GIST_update_2,2026.1.1,Win32,61.34969325,663b638be7226d4e3fcc255f,69b92ab4aef6dee357cd729a,69b92b5a139c8e40709ed6d2,0.0248,0.0248,0,70,70,157,1,seveneight,,,,,,,,,,,,,,,,,,,,,,,,,,,,,,,,,,,,,,,,,,,,,,,,,,,,,,,,,,,,,,,,,,,,,,,,,,,,,,,,,,,,,,,,,,,,,,,,,,,,,,,,,,,,,,,,,,,,,,,,,,,,,,,,,,,,,,,,,
,,663b638be7226d4e3fcc255f,2026-03-17_10h55.40.295,kallum_motion_pilot_GIST_update_2,2026.1.1,Win32,61.34969325,663b638be7226d4e3fcc255f,69b92ab4aef6dee357cd729a,69b92b5a139c8e40709ed6d2,0.0249,0.0249,0,71,71,113,1,fiveseven,,,,,,,,,,,,,,,,,,,,,,,,,,,,,,,,,,,,,,,,,,,,,,,,,,,,,,,,,,,,,,,,,,,,,,,,,,,,,,,,,,,,,,,,,,,,,,,,,,,,,,,,,,,,,,,,,,,,,,,,,,,,,,,,,,,,,,,,,
,,663b638be7226d4e3fcc255f,2026-03-17_10h55.40.295,kallum_motion_pilot_GIST_update_2,2026.1.1,Win32,61.34969325,663b638be7226d4e3fcc255f,69b92ab4aef6dee357cd729a,69b92b5a139c8e40709ed6d2,0.0249,0.0249,0,72,72,13,1,threefour,,,,,,,,,,,,,,,,,,,,,,,,,,,,,,,,,,,,,,,,,,,,,,,,,,,,,,,,,,,,,,,,,,,,,,,,,,,,,,,,,,,,,,,,,,,,,,,,,,,,,,,,,,,,,,,,,,,,,,,,,,,,,,,,,,,,,,,,,
,,663b638be7226d4e3fcc255f,2026-03-17_10h55.40.295,kallum_motion_pilot_GIST_update_2,2026.1.1,Win32,61.34969325,663b638be7226d4e3fcc255f,69b92ab4aef6dee357cd729a,69b92b5a139c8e40709ed6d2,0.025,0.025,0,73,73,73,1,onethree,,,,,,,,,,,,,,,,,,,,,,,,,,,,,,,,,,,,,,,,,,,,,,,,,,,,,,,,,,,,,,,,,,,,,,,,,,,,,,,,,,,,,,,,,,,,,,,,,,,,,,,,,,,,,,,,,,,,,,,,,,,,,,,,,,,,,,,,,
,,663b638be7226d4e3fcc255f,2026-03-17_10h55.40.295,kallum_motion_pilot_GIST_update_2,2026.1.1,Win32,61.34969325,663b638be7226d4e3fcc255f,69b92ab4aef6dee357cd729a,69b92b5a139c8e40709ed6d2,0.025,0.0251,0,74,74,61,1,threefour,,,,,,,,,,,,,,,,,,,,,,,,,,,,,,,,,,,,,,,,,,,,,,,,,,,,,,,,,,,,,,,,,,,,,,,,,,,,,,,,,,,,,,,,,,,,,,,,,,,,,,,,,,,,,,,,,,,,,,,,,,,,,,,,,,,,,,,,,
,,663b638be7226d4e3fcc255f,2026-03-17_10h55.40.295,kallum_motion_pilot_GIST_update_2,2026.1.1,Win32,61.34969325,663b638be7226d4e3fcc255f,69b92ab4aef6dee357cd729a,69b92b5a139c8e40709ed6d2,0.0251,0.0251,0,75,75,60,1,threeone,,,,,,,,,,,,,,,,,,,,,,,,,,,,,,,,,,,,,,,,,,,,,,,,,,,,,,,,,,,,,,,,,,,,,,,,,,,,,,,,,,,,,,,,,,,,,,,,,,,,,,,,,,,,,,,,,,,,,,,,,,,,,,,,,,,,,,,,,
,,663b638be7226d4e3fcc255f,2026-03-17_10h55.40.295,kallum_motion_pilot_GIST_update_2,2026.1.1,Win32,61.34969325,663b638be7226d4e3fcc255f,69b92ab4aef6dee357cd729a,69b92b5a139c8e40709ed6d2,0.0253,0.0253,0,76,76,75,1,twofour,,,,,,,,,,,,,,,,,,,,,,,,,,,,,,,,,,,,,,,,,,,,,,,,,,,,,,,,,,,,,,,,,,,,,,,,,,,,,,,,,,,,,,,,,,,,,,,,,,,,,,,,,,,,,,,,,,,,,,,,,,,,,,,,,,,,,,,,,
,,663b638be7226d4e3fcc255f,2026-03-17_10h55.40.295,kallum_motion_pilot_GIST_update_2,2026.1.1,Win32,61.34969325,663b638be7226d4e3fcc255f,69b92ab4aef6dee357cd729a,69b92b5a139c8e40709ed6d2,0.0253,0.0253,0,77,77,54,1,fourtwo,,,,,,,,,,,,,,,,,,,,,,,,,,,,,,,,,,,,,,,,,,,,,,,,,,,,,,,,,,,,,,,,,,,,,,,,,,,,,,,,,,,,,,,,,,,,,,,,,,,,,,,,,,,,,,,,,,,,,,,,,,,,,,,,,,,,,,,,,
,,663b638be7226d4e3fcc255f,2026-03-17_10h55.40.295,kallum_motion_pilot_GIST_update_2,2026.1.1,Win32,61.34969325,663b638be7226d4e3fcc255f,69b92ab4aef6dee357cd729a,69b92b5a139c8e40709ed6d2,0.0254,0.0255,0,78,78,101,1,seveneight,,,,,,,,,,,,,,,,,,,,,,,,,,,,,,,,,,,,,,,,,,,,,,,,,,,,,,,,,,,,,,,,,,,,,,,,,,,,,,,,,,,,,,,,,,,,,,,,,,,,,,,,,,,,,,,,,,,,,,,,,,,,,,,,,,,,,,,,,
,,663b638be7226d4e3fcc255f,2026-03-17_10h55.40.295,kallum_motion_pilot_GIST_update_2,2026.1.1,Win32,61.34969325,663b638be7226d4e3fcc255f,69b92ab4aef6dee357cd729a,69b92b5a139c8e40709ed6d2,0.0256,0.0256,0,79,79,96,1,fivesix,,,,,,,,,,,,,,,,,,,,,,,,,,,,,,,,,,,,,,,,,,,,,,,,,,,,,,,,,,,,,,,,,,,,,,,,,,,,,,,,,,,,,,,,,,,,,,,,,,,,,,,,,,,,,,,,,,,,,,,,,,,,,,,,,,,,,,,,,
,,663b638be7226d4e3fcc255f,2026-03-17_10h55.40.295,kallum_motion_pilot_GIST_update_2,2026.1.1,Win32,61.34969325,663b638be7226d4e3fcc255f,69b92ab4aef6dee357cd729a,69b92b5a139c8e40709ed6d2,0.0256,0.0256,0,80,80,22,1,fourtwo,,,,,,,,,,,,,,,,,,,,,,,,,,,,,,,,,,,,,,,,,,,,,,,,,,,,,,,,,,,,,,,,,,,,,,,,,,,,,,,,,,,,,,,,,,,,,,,,,,,,,,,,,,,,,,,,,,,,,,,,,,,,,,,,,,,,,,,,,
,,663b638be7226d4e3fcc255f,2026-03-17_10h55.40.295,kallum_motion_pilot_GIST_update_2,2026.1.1,Win32,61.34969325,663b638be7226d4e3fcc255f,69b92ab4aef6dee357cd729a,69b92b5a139c8e40709ed6d2,0.0257,0.0257,0,81,81,89,1,fiveseven,,,,,,,,,,,,,,,,,,,,,,,,,,,,,,,,,,,,,,,,,,,,,,,,,,,,,,,,,,,,,,,,,,,,,,,,,,,,,,,,,,,,,,,,,,,,,,,,,,,,,,,,,,,,,,,,,,,,,,,,,,,,,,,,,,,,,,,,,
,,663b638be7226d4e3fcc255f,2026-03-17_10h55.40.295,kallum_motion_pilot_GIST_update_2,2026.1.1,Win32,61.34969325,663b638be7226d4e3fcc255f,69b92ab4aef6dee357cd729a,69b92b5a139c8e40709ed6d2,0.0258,0.0258,0,82,82,69,1,threefour,,,,,,,,,,,,,,,,,,,,,,,,,,,,,,,,,,,,,,,,,,,,,,,,,,,,,,,,,,,,,,,,,,,,,,,,,,,,,,,,,,,,,,,,,,,,,,,,,,,,,,,,,,,,,,,,,,,,,,,,,,,,,,,,,,,,,,,,,
,,663b638be7226d4e3fcc255f,2026-03-17_10h55.40.295,kallum_motion_pilot_GIST_update_2,2026.1.1,Win32,61.34969325,663b638be7226d4e3fcc255f,69b92ab4aef6dee357cd729a,69b92b5a139c8e40709ed6d2,0.0259,0.0259,0,83,83,39,1,fourthree,,,,,,,,,,,,,,,,,,,,,,,,,,,,,,,,,,,,,,,,,,,,,,,,,,,,,,,,,,,,,,,,,,,,,,,,,,,,,,,,,,,,,,,,,,,,,,,,,,,,,,,,,,,,,,,,,,,,,,,,,,,,,,,,,,,,,,,,,
,,663b638be7226d4e3fcc255f,2026-03-17_10h55.40.295,kallum_motion_pilot_GIST_update_2,2026.1.1,Win32,61.34969325,663b638be7226d4e3fcc255f,69b92ab4aef6dee357cd729a,69b92b5a139c8e40709ed6d2,0.0259,0.0259,0,84,84,160,1,fivesix,,,,,,,,,,,,,,,,,,,,,,,,,,,,,,,,,,,,,,,,,,,,,,,,,,,,,,,,,,,,,,,,,,,,,,,,,,,,,,,,,,,,,,,,,,,,,,,,,,,,,,,,,,,,,,,,,,,,,,,,,,,,,,,,,,,,,,,,,
,,663b638be7226d4e3fcc255f,2026-03-17_10h55.40.295,kallum_motion_pilot_GIST_update_2,2026.1.1,Win32,61.34969325,663b638be7226d4e3fcc255f,69b92ab4aef6dee357cd729a,69b92b5a139c8e40709ed6d2,0.026,0.026,0,85,85,47,1,fourthree,,,,,,,,,,,,,,,,,,,,,,,,,,,,,,,,,,,,,,,,,,,,,,,,,,,,,,,,,,,,,,,,,,,,,,,,,,,,,,,,,,,,,,,,,,,,,,,,,,,,,,,,,,,,,,,,,,,,,,,,,,,,,,,,,,,,,,,,,
,,663b638be7226d4e3fcc255f,2026-03-17_10h55.40.295,kallum_motion_pilot_GIST_update_2,2026.1.1,Win32,61.34969325,663b638be7226d4e3fcc255f,69b92ab4aef6dee357cd729a,69b92b5a139c8e40709ed6d2,0.0261,0.0261,0,86,86,21,1,threefour,,,,,,,,,,,,,,,,,,,,,,,,,,,,,,,,,,,,,,,,,,,,,,,,,,,,,,,,,,,,,,,,,,,,,,,,,,,,,,,,,,,,,,,,,,,,,,,,,,,,,,,,,,,,,,,,,,,,,,,,,,,,,,,,,,,,,,,,,
,,663b638be7226d4e3fcc255f,2026-03-17_10h55.40.295,kallum_motion_pilot_GIST_update_2,2026.1.1,Win32,61.34969325,663b638be7226d4e3fcc255f,69b92ab4aef6dee357cd729a,69b92b5a139c8e40709ed6d2,0.0263,0.0263,0,87,87,81,1,fiveseven,,,,,,,,,,,,,,,,,,,,,,,,,,,,,,,,,,,,,,,,,,,,,,,,,,,,,,,,,,,,,,,,,,,,,,,,,,,,,,,,,,,,,,,,,,,,,,,,,,,,,,,,,,,,,,,,,,,,,,,,,,,,,,,,,,,,,,,,,
,,663b638be7226d4e3fcc255f,2026-03-17_10h55.40.295,kallum_motion_pilot_GIST_update_2,2026.1.1,Win32,61.34969325,663b638be7226d4e3fcc255f,69b92ab4aef6dee357cd729a,69b92b5a139c8e40709ed6d2,0.0264,0.0264,0,88,88,149,1,seveneight,,,,,,,,,,,,,,,,,,,,,,,,,,,,,,,,,,,,,,,,,,,,,,,,,,,,,,,,,,,,,,,,,,,,,,,,,,,,,,,,,,,,,,,,,,,,,,,,,,,,,,,,,,,,,,,,,,,,,,,,,,,,,,,,,,,,,,,,,
,,663b638be7226d4e3fcc255f,2026-03-17_10h55.40.295,kallum_motion_pilot_GIST_update_2,2026.1.1,Win32,61.34969325,663b638be7226d4e3fcc255f,69b92ab4aef6dee357cd729a,69b92b5a139c8e40709ed6d2,0.0264,0.0264,0,89,89,112,1,fivesix,,,,,,,,,,,,,,,,,,,,,,,,,,,,,,,,,,,,,,,,,,,,,,,,,,,,,,,,,,,,,,,,,,,,,,,,,,,,,,,,,,,,,,,,,,,,,,,,,,,,,,,,,,,,,,,,,,,,,,,,,,,,,,,,,,,,,,,,,
,,663b638be7226d4e3fcc255f,2026-03-17_10h55.40.295,kallum_motion_pilot_GIST_update_2,2026.1.1,Win32,61.34969325,663b638be7226d4e3fcc255f,69b92ab4aef6dee357cd729a,69b92b5a139c8e40709ed6d2,0.0265,0.0265,0,90,90,143,1,eightseven,,,,,,,,,,,,,,,,,,,,,,,,,,,,,,,,,,,,,,,,,,,,,,,,,,,,,,,,,,,,,,,,,,,,,,,,,,,,,,,,,,,,,,,,,,,,,,,,,,,,,,,,,,,,,,,,,,,,,,,,,,,,,,,,,,,,,,,,,
,,663b638be7226d4e3fcc255f,2026-03-17_10h55.40.295,kallum_motion_pilot_GIST_update_2,2026.1.1,Win32,61.34969325,663b638be7226d4e3fcc255f,69b92ab4aef6dee357cd729a,69b92b5a139c8e40709ed6d2,0.0265,0.0265,0,91,91,110,1,eightsix,,,,,,,,,,,,,,,,,,,,,,,,,,,,,,,,,,,,,,,,,,,,,,,,,,,,,,,,,,,,,,,,,,,,,,,,,,,,,,,,,,,,,,,,,,,,,,,,,,,,,,,,,,,,,,,,,,,,,,,,,,,,,,,,,,,,,,,,,
,,663b638be7226d4e3fcc255f,2026-03-17_10h55.40.295,kallum_motion_pilot_GIST_update_2,2026.1.1,Win32,61.34969325,663b638be7226d4e3fcc255f,69b92ab4aef6dee357cd729a,69b92b5a139c8e40709ed6d2,0.0267,0.0267,0,92,92,138,1,sixfive,,,,,,,,,,,,,,,,,,,,,,,,,,,,,,,,,,,,,,,,,,,,,,,,,,,,,,,,,,,,,,,,,,,,,,,,,,,,,,,,,,,,,,,,,,,,,,,,,,,,,,,,,,,,,,,,,,,,,,,,,,,,,,,,,,,,,,,,,
,,663b638be7226d4e3fcc255f,2026-03-17_10h55.40.295,kallum_motion_pilot_GIST_update_2,2026.1.1,Win32,61.34969325,663b638be7226d4e3fcc255f,69b92ab4aef6dee357cd729a,69b92b5a139c8e40709ed6d2,0.0267,0.0267,0,93,93,41,1,onethree,,,,,,,,,,,,,,,,,,,,,,,,,,,,,,,,,,,,,,,,,,,,,,,,,,,,,,,,,,,,,,,,,,,,,,,,,,,,,,,,,,,,,,,,,,,,,,,,,,,,,,,,,,,,,,,,,,,,,,,,,,,,,,,,,,,,,,,,,
,,663b638be7226d4e3fcc255f,2026-03-17_10h55.40.295,kallum_motion_pilot_GIST_update_2,2026.1.1,Win32,61.34969325,663b638be7226d4e3fcc255f,69b92ab4aef6dee357cd729a,69b92b5a139c8e40709ed6d2,0.0268,0.0268,0,94,94,105,1,fiveseven,,,,,,,,,,,,,,,,,,,,,,,,,,,,,,,,,,,,,,,,,,,,,,,,,,,,,,,,,,,,,,,,,,,,,,,,,,,,,,,,,,,,,,,,,,,,,,,,,,,,,,,,,,,,,,,,,,,,,,,,,,,,,,,,,,,,,,,,,
,,663b638be7226d4e3fcc255f,2026-03-17_10h55.40.295,kallum_motion_pilot_GIST_update_2,2026.1.1,Win32,61.34969325,663b638be7226d4e3fcc255f,69b92ab4aef6dee357cd729a,69b92b5a139c8e40709ed6d2,0.0269,0.0269,0,95,95,58,1,twoone,,,,,,,,,,,,,,,,,,,,,,,,,,,,,,,,,,,,,,,,,,,,,,,,,,,,,,,,,,,,,,,,,,,,,,,,,,,,,,,,,,,,,,,,,,,,,,,,,,,,,,,,,,,,,,,,,,,,,,,,,,,,,,,,,,,,,,,,,
,,663b638be7226d4e3fcc255f,2026-03-17_10h55.40.295,kallum_motion_pilot_GIST_update_2,2026.1.1,Win32,61.34969325,663b638be7226d4e3fcc255f,69b92ab4aef6dee357cd729a,69b92b5a139c8e40709ed6d2,0.027,0.027,0,96,96,135,1,eightseven,,,,,,,,,,,,,,,,,,,,,,,,,,,,,,,,,,,,,,,,,,,,,,,,,,,,,,,,,,,,,,,,,,,,,,,,,,,,,,,,,,,,,,,,,,,,,,,,,,,,,,,,,,,,,,,,,,,,,,,,,,,,,,,,,,,,,,,,,
,,663b638be7226d4e3fcc255f,2026-03-17_10h55.40.295,kallum_motion_pilot_GIST_update_2,2026.1.1,Win32,61.34969325,663b638be7226d4e3fcc255f,69b92ab4aef6dee357cd729a,69b92b5a139c8e40709ed6d2,0.0271,0.0271,0,97,97,102,1,eightsix,,,,,,,,,,,,,,,,,,,,,,,,,,,,,,,,,,,,,,,,,,,,,,,,,,,,,,,,,,,,,,,,,,,,,,,,,,,,,,,,,,,,,,,,,,,,,,,,,,,,,,,,,,,,,,,,,,,,,,,,,,,,,,,,,,,,,,,,,
,,663b638be7226d4e3fcc255f,2026-03-17_10h55.40.295,kallum_motion_pilot_GIST_update_2,2026.1.1,Win32,61.34969325,663b638be7226d4e3fcc255f,69b92ab4aef6dee357cd729a,69b92b5a139c8e40709ed6d2,0.0272,0.0272,0,98,98,154,1,sixfive,,,,,,,,,,,,,,,,,,,,,,,,,,,,,,,,,,,,,,,,,,,,,,,,,,,,,,,,,,,,,,,,,,,,,,,,,,,,,,,,,,,,,,,,,,,,,,,,,,,,,,,,,,,,,,,,,,,,,,,,,,,,,,,,,,,,,,,,,
,,663b638be7226d4e3fcc255f,2026-03-17_10h55.40.295,kallum_motion_pilot_GIST_update_2,2026.1.1,Win32,61.34969325,663b638be7226d4e3fcc255f,69b92ab4aef6dee357cd729a,69b92b5a139c8e40709ed6d2,0.0272,0.0273,0,99,99,29,1,threefour,,,,,,,,,,,,,,,,,,,,,,,,,,,,,,,,,,,,,,,,,,,,,,,,,,,,,,,,,,,,,,,,,,,,,,,,,,,,,,,,,,,,,,,,,,,,,,,,,,,,,,,,,,,,,,,,,,,,,,,,,,,,,,,,,,,,,,,,,
,,663b638be7226d4e3fcc255f,2026-03-17_10h55.40.295,kallum_motion_pilot_GIST_update_2,2026.1.1,Win32,61.34969325,663b638be7226d4e3fcc255f,69b92ab4aef6dee357cd729a,69b92b5a139c8e40709ed6d2,0.0274,0.0274,0,100,100,57,1,onethree,,,,,,,,,,,,,,,,,,,,,,,,,,,,,,,,,,,,,,,,,,,,,,,,,,,,,,,,,,,,,,,,,,,,,,,,,,,,,,,,,,,,,,,,,,,,,,,,,,,,,,,,,,,,,,,,,,,,,,,,,,,,,,,,,,,,,,,,,
,,663b638be7226d4e3fcc255f,2026-03-17_10h55.40.295,kallum_motion_pilot_GIST_update_2,2026.1.1,Win32,61.34969325,663b638be7226d4e3fcc255f,69b92ab4aef6dee357cd729a,69b92b5a139c8e40709ed6d2,0.0274,0.0274,0,101,101,36,1,threeone,,,,,,,,,,,,,,,,,,,,,,,,,,,,,,,,,,,,,,,,,,,,,,,,,,,,,,,,,,,,,,,,,,,,,,,,,,,,,,,,,,,,,,,,,,,,,,,,,,,,,,,,,,,,,,,,,,,,,,,,,,,,,,,,,,,,,,,,,
,,663b638be7226d4e3fcc255f,2026-03-17_10h55.40.295,kallum_motion_pilot_GIST_update_2,2026.1.1,Win32,61.34969325,663b638be7226d4e3fcc255f,69b92ab4aef6dee357cd729a,69b92b5a139c8e40709ed6d2,0.0276,0.0276,0,102,102,117,1,seveneight,,,,,,,,,,,,,,,,,,,,,,,,,,,,,,,,,,,,,,,,,,,,,,,,,,,,,,,,,,,,,,,,,,,,,,,,,,,,,,,,,,,,,,,,,,,,,,,,,,,,,,,,,,,,,,,,,,,,,,,,,,,,,,,,,,,,,,,,,
,,663b638be7226d4e3fcc255f,2026-03-17_10h55.40.295,kallum_motion_pilot_GIST_update_2,2026.1.1,Win32,61.34969325,663b638be7226d4e3fcc255f,69b92ab4aef6dee357cd729a,69b92b5a139c8e40709ed6d2,0.0276,0.0277,0,103,103,99,1,sixeight,,,,,,,,,,,,,,,,,,,,,,,,,,,,,,,,,,,,,,,,,,,,,,,,,,,,,,,,,,,,,,,,,,,,,,,,,,,,,,,,,,,,,,,,,,,,,,,,,,,,,,,,,,,,,,,,,,,,,,,,,,,,,,,,,,,,,,,,,
,,663b638be7226d4e3fcc255f,2026-03-17_10h55.40.295,kallum_motion_pilot_GIST_update_2,2026.1.1,Win32,61.34969325,663b638be7226d4e3fcc255f,69b92ab4aef6dee357cd729a,69b92b5a139c8e40709ed6d2,0.0277,0.0277,0,104,104,43,1,twofour,,,,,,,,,,,,,,,,,,,,,,,,,,,,,,,,,,,,,,,,,,,,,,,,,,,,,,,,,,,,,,,,,,,,,,,,,,,,,,,,,,,,,,,,,,,,,,,,,,,,,,,,,,,,,,,,,,,,,,,,,,,,,,,,,,,,,,,,,
,,663b638be7226d4e3fcc255f,2026-03-17_10h55.40.295,kallum_motion_pilot_GIST_update_2,2026.1.1,Win32,61.34969325,663b638be7226d4e3fcc255f,69b92ab4aef6dee357cd729a,69b92b5a139c8e40709ed6d2,0.0278,0.0278,0,105,105,71,1,fourthree,,,,,,,,,,,,,,,,,,,,,,,,,,,,,,,,,,,,,,,,,,,,,,,,,,,,,,,,,,,,,,,,,,,,,,,,,,,,,,,,,,,,,,,,,,,,,,,,,,,,,,,,,,,,,,,,,,,,,,,,,,,,,,,,,,,,,,,,,
,,663b638be7226d4e3fcc255f,2026-03-17_10h55.40.295,kallum_motion_pilot_GIST_update_2,2026.1.1,Win32,61.34969325,663b638be7226d4e3fcc255f,69b92ab4aef6dee357cd729a,69b92b5a139c8e40709ed6d2,0.0279,0.0279,0,106,106,0,1,onetwo,,,,,,,,,,,,,,,,,,,,,,,,,,,,,,,,,,,,,,,,,,,,,,,,,,,,,,,,,,,,,,,,,,,,,,,,,,,,,,,,,,,,,,,,,,,,,,,,,,,,,,,,,,,,,,,,,,,,,,,,,,,,,,,,,,,,,,,,,
,,663b638be7226d4e3fcc255f,2026-03-17_10h55.40.295,kallum_motion_pilot_GIST_update_2,2026.1.1,Win32,61.34969325,663b638be7226d4e3fcc255f,69b92ab4aef6dee357cd729a,69b92b5a139c8e40709ed6d2,0.028,0.028,0,107,107,59,1,twofour,,,,,,,,,,,,,,,,,,,,,,,,,,,,,,,,,,,,,,,,,,,,,,,,,,,,,,,,,,,,,,,,,,,,,,,,,,,,,,,,,,,,,,,,,,,,,,,,,,,,,,,,,,,,,,,,,,,,,,,,,,,,,,,,,,,,,,,,,
,,663b638be7226d4e3fcc255f,2026-03-17_10h55.40.295,kallum_motion_pilot_GIST_update_2,2026.1.1,Win32,61.34969325,663b638be7226d4e3fcc255f,69b92ab4aef6dee357cd729a,69b92b5a139c8e40709ed6d2,0.0281,0.0281,0,108,108,83,1,sixeight,,,,,,,,,,,,,,,,,,,,,,,,,,,,,,,,,,,,,,,,,,,,,,,,,,,,,,,,,,,,,,,,,,,,,,,,,,,,,,,,,,,,,,,,,,,,,,,,,,,,,,,,,,,,,,,,,,,,,,,,,,,,,,,,,,,,,,,,,
,,663b638be7226d4e3fcc255f,2026-03-17_10h55.40.295,kallum_motion_pilot_GIST_update_2,2026.1.1,Win32,61.34969325,663b638be7226d4e3fcc255f,69b92ab4aef6dee357cd729a,69b92b5a139c8e40709ed6d2,0.0282,0.0282,0,109,109,27,1,twofour,,,,,,,,,,,,,,,,,,,,,,,,,,,,,,,,,,,,,,,,,,,,,,,,,,,,,,,,,,,,,,,,,,,,,,,,,,,,,,,,,,,,,,,,,,,,,,,,,,,,,,,,,,,,,,,,,,,,,,,,,,,,,,,,,,,,,,,,,
,,663b638be7226d4e3fcc255f,2026-03-17_10h55.40.295,kallum_motion_pilot_GIST_update_2,2026.1.1,Win32,61.34969325,663b638be7226d4e3fcc255f,69b92ab4aef6dee357cd729a,69b92b5a139c8e40709ed6d2,0.0282,0.0282,0,110,110,94,1,eightsix,,,,,,,,,,,,,,,,,,,,,,,,,,,,,,,,,,,,,,,,,,,,,,,,,,,,,,,,,,,,,,,,,,,,,,,,,,,,,,,,,,,,,,,,,,,,,,,,,,,,,,,,,,,,,,,,,,,,,,,,,,,,,,,,,,,,,,,,,
,,663b638be7226d4e3fcc255f,2026-03-17_10h55.40.295,kallum_motion_pilot_GIST_update_2,2026.1.1,Win32,61.34969325,663b638be7226d4e3fcc255f,69b92ab4aef6dee357cd729a,69b92b5a139c8e40709ed6d2,0.0284,0.0284,0,111,111,63,1,fourthree,,,,,,,,,,,,,,,,,,,,,,,,,,,,,,,,,,,,,,,,,,,,,,,,,,,,,,,,,,,,,,,,,,,,,,,,,,,,,,,,,,,,,,,,,,,,,,,,,,,,,,,,,,,,,,,,,,,,,,,,,,,,,,,,,,,,,,,,,
,,663b638be7226d4e3fcc255f,2026-03-17_10h55.40.295,kallum_motion_pilot_GIST_update_2,2026.1.1,Win32,61.34969325,663b638be7226d4e3fcc255f,69b92ab4aef6dee357cd729a,69b92b5a139c8e40709ed6d2,0.0285,0.0285,0,112,112,90,1,sixfive,,,,,,,,,,,,,,,,,,,,,,,,,,,,,,,,,,,,,,,,,,,,,,,,,,,,,,,,,,,,,,,,,,,,,,,,,,,,,,,,,,,,,,,,,,,,,,,,,,,,,,,,,,,,,,,,,,,,,,,,,,,,,,,,,,,,,,,,,
,,663b638be7226d4e3fcc255f,2026-03-17_10h55.40.295,kallum_motion_pilot_GIST_update_2,2026.1.1,Win32,61.34969325,663b638be7226d4e3fcc255f,69b92ab4aef6dee357cd729a,69b92b5a139c8e40709ed6d2,0.0286,0.0286,0,113,113,153,1,fiveseven,,,,,,,,,,,,,,,,,,,,,,,,,,,,,,,,,,,,,,,,,,,,,,,,,,,,,,,,,,,,,,,,,,,,,,,,,,,,,,,,,,,,,,,,,,,,,,,,,,,,,,,,,,,,,,,,,,,,,,,,,,,,,,,,,,,,,,,,,
,,663b638be7226d4e3fcc255f,2026-03-17_10h55.40.295,kallum_motion_pilot_GIST_update_2,2026.1.1,Win32,61.34969325,663b638be7226d4e3fcc255f,69b92ab4aef6dee357cd729a,69b92b5a139c8e40709ed6d2,0.0286,0.0286,0,114,114,115,1,sixeight,,,,,,,,,,,,,,,,,,,,,,,,,,,,,,,,,,,,,,,,,,,,,,,,,,,,,,,,,,,,,,,,,,,,,,,,,,,,,,,,,,,,,,,,,,,,,,,,,,,,,,,,,,,,,,,,,,,,,,,,,,,,,,,,,,,,,,,,,
,,663b638be7226d4e3fcc255f,2026-03-17_10h55.40.295,kallum_motion_pilot_GIST_update_2,2026.1.1,Win32,61.34969325,663b638be7226d4e3fcc255f,69b92ab4aef6dee357cd729a,69b92b5a139c8e40709ed6d2,0.0287,0.0287,0,115,115,24,1,onetwo,,,,,,,,,,,,,,,,,,,,,,,,,,,,,,,,,,,,,,,,,,,,,,,,,,,,,,,,,,,,,,,,,,,,,,,,,,,,,,,,,,,,,,,,,,,,,,,,,,,,,,,,,,,,,,,,,,,,,,,,,,,,,,,,,,,,,,,,,
,,663b638be7226d4e3fcc255f,2026-03-17_10h55.40.295,kallum_motion_pilot_GIST_update_2,2026.1.1,Win32,61.34969325,663b638be7226d4e3fcc255f,69b92ab4aef6dee357cd729a,69b92b5a139c8e40709ed6d2,0.0288,0.0288,0,116,116,26,1,twoone,,,,,,,,,,,,,,,,,,,,,,,,,,,,,,,,,,,,,,,,,,,,,,,,,,,,,,,,,,,,,,,,,,,,,,,,,,,,,,,,,,,,,,,,,,,,,,,,,,,,,,,,,,,,,,,,,,,,,,,,,,,,,,,,,,,,,,,,,
,,663b638be7226d4e3fcc255f,2026-03-17_10h55.40.295,kallum_motion_pilot_GIST_update_2,2026.1.1,Win32,61.34969325,663b638be7226d4e3fcc255f,69b92ab4aef6dee357cd729a,69b92b5a139c8e40709ed6d2,0.0289,0.0289,0,117,117,50,1,twoone,,,,,,,,,,,,,,,,,,,,,,,,,,,,,,,,,,,,,,,,,,,,,,,,,,,,,,,,,,,,,,,,,,,,,,,,,,,,,,,,,,,,,,,,,,,,,,,,,,,,,,,,,,,,,,,,,,,,,,,,,,,,,,,,,,,,,,,,,
,,663b638be7226d4e3fcc255f,2026-03-17_10h55.40.295,kallum_motion_pilot_GIST_update_2,2026.1.1,Win32,61.34969325,663b638be7226d4e3fcc255f,69b92ab4aef6dee357cd729a,69b92b5a139c8e40709ed6d2,0.029,0.029,0,118,118,119,1,eightseven,,,,,,,,,,,,,,,,,,,,,,,,,,,,,,,,,,,,,,,,,,,,,,,,,,,,,,,,,,,,,,,,,,,,,,,,,,,,,,,,,,,,,,,,,,,,,,,,,,,,,,,,,,,,,,,,,,,,,,,,,,,,,,,,,,,,,,,,,
,,663b638be7226d4e3fcc255f,2026-03-17_10h55.40.295,kallum_motion_pilot_GIST_update_2,2026.1.1,Win32,61.34969325,663b638be7226d4e3fcc255f,69b92ab4aef6dee357cd729a,69b92b5a139c8e40709ed6d2,0.0291,0.0291,0,119,119,137,1,fiveseven,,,,,,,,,,,,,,,,,,,,,,,,,,,,,,,,,,,,,,,,,,,,,,,,,,,,,,,,,,,,,,,,,,,,,,,,,,,,,,,,,,,,,,,,,,,,,,,,,,,,,,,,,,,,,,,,,,,,,,,,,,,,,,,,,,,,,,,,,
,,663b638be7226d4e3fcc255f,2026-03-17_10h55.40.295,kallum_motion_pilot_GIST_update_2,2026.1.1,Win32,61.34969325,663b638be7226d4e3fcc255f,69b92ab4aef6dee357cd729a,69b92b5a139c8e40709ed6d2,0.0292,0.0292,0,120,120,130,1,sixfive,,,,,,,,,,,,,,,,,,,,,,,,,,,,,,,,,,,,,,,,,,,,,,,,,,,,,,,,,,,,,,,,,,,,,,,,,,,,,,,,,,,,,,,,,,,,,,,,,,,,,,,,,,,,,,,,,,,,,,,,,,,,,,,,,,,,,,,,,
,,663b638be7226d4e3fcc255f,2026-03-17_10h55.40.295,kallum_motion_pilot_GIST_update_2,2026.1.1,Win32,61.34969325,663b638be7226d4e3fcc255f,69b92ab4aef6dee357cd729a,69b92b5a139c8e40709ed6d2,0.0293,0.0293,0,121,121,28,1,threeone,,,,,,,,,,,,,,,,,,,,,,,,,,,,,,,,,,,,,,,,,,,,,,,,,,,,,,,,,,,,,,,,,,,,,,,,,,,,,,,,,,,,,,,,,,,,,,,,,,,,,,,,,,,,,,,,,,,,,,,,,,,,,,,,,,,,,,,,,
,,663b638be7226d4e3fcc255f,2026-03-17_10h55.40.295,kallum_motion_pilot_GIST_update_2,2026.1.1,Win32,61.34969325,663b638be7226d4e3fcc255f,69b92ab4aef6dee357cd729a,69b92b5a139c8e40709ed6d2,0.0294,0.0294,0,122,122,95,1,eightseven,,,,,,,,,,,,,,,,,,,,,,,,,,,,,,,,,,,,,,,,,,,,,,,,,,,,,,,,,,,,,,,,,,,,,,,,,,,,,,,,,,,,,,,,,,,,,,,,,,,,,,,,,,,,,,,,,,,,,,,,,,,,,,,,,,,,,,,,,
,,663b638be7226d4e3fcc255f,2026-03-17_10h55.40.295,kallum_motion_pilot_GIST_update_2,2026.1.1,Win32,61.34969325,663b638be7226d4e3fcc255f,69b92ab4aef6dee357cd729a,69b92b5a139c8e40709ed6d2,0.0295,0.0295,0,123,123,1,1,onethree,,,,,,,,,,,,,,,,,,,,,,,,,,,,,,,,,,,,,,,,,,,,,,,,,,,,,,,,,,,,,,,,,,,,,,,,,,,,,,,,,,,,,,,,,,,,,,,,,,,,,,,,,,,,,,,,,,,,,,,,,,,,,,,,,,,,,,,,,
,,663b638be7226d4e3fcc255f,2026-03-17_10h55.40.295,kallum_motion_pilot_GIST_update_2,2026.1.1,Win32,61.34969325,663b638be7226d4e3fcc255f,69b92ab4aef6dee357cd729a,69b92b5a139c8e40709ed6d2,0.0295,0.0295,0,124,124,103,1,eightseven,,,,,,,,,,,,,,,,,,,,,,,,,,,,,,,,,,,,,,,,,,,,,,,,,,,,,,,,,,,,,,,,,,,,,,,,,,,,,,,,,,,,,,,,,,,,,,,,,,,,,,,,,,,,,,,,,,,,,,,,,,,,,,,,,,,,,,,,,
,,663b638be7226d4e3fcc255f,2026-03-17_10h55.40.295,kallum_motion_pilot_GIST_update_2,2026.1.1,Win32,61.34969325,663b638be7226d4e3fcc255f,69b92ab4aef6dee357cd729a,69b92b5a139c8e40709ed6d2,0.0297,0.0297,0,125,125,76,1,threeone,,,,,,,,,,,,,,,,,,,,,,,,,,,,,,,,,,,,,,,,,,,,,,,,,,,,,,,,,,,,,,,,,,,,,,,,,,,,,,,,,,,,,,,,,,,,,,,,,,,,,,,,,,,,,,,,,,,,,,,,,,,,,,,,,,,,,,,,,
,,663b638be7226d4e3fcc255f,2026-03-17_10h55.40.295,kallum_motion_pilot_GIST_update_2,2026.1.1,Win32,61.34969325,663b638be7226d4e3fcc255f,69b92ab4aef6dee357cd729a,69b92b5a139c8e40709ed6d2,0.0299,0.0299,0,126,126,42,1,twoone,,,,,,,,,,,,,,,,,,,,,,,,,,,,,,,,,,,,,,,,,,,,,,,,,,,,,,,,,,,,,,,,,,,,,,,,,,,,,,,,,,,,,,,,,,,,,,,,,,,,,,,,,,,,,,,,,,,,,,,,,,,,,,,,,,,,,,,,,
,,663b638be7226d4e3fcc255f,2026-03-17_10h55.40.295,kallum_motion_pilot_GIST_update_2,2026.1.1,Win32,61.34969325,663b638be7226d4e3fcc255f,69b92ab4aef6dee357cd729a,69b92b5a139c8e40709ed6d2,0.03,0.03,0,127,127,16,1,onetwo,,,,,,,,,,,,,,,,,,,,,,,,,,,,,,,,,,,,,,,,,,,,,,,,,,,,,,,,,,,,,,,,,,,,,,,,,,,,,,,,,,,,,,,,,,,,,,,,,,,,,,,,,,,,,,,,,,,,,,,,,,,,,,,,,,,,,,,,,
,,663b638be7226d4e3fcc255f,2026-03-17_10h55.40.295,kallum_motion_pilot_GIST_update_2,2026.1.1,Win32,61.34969325,663b638be7226d4e3fcc255f,69b92ab4aef6dee357cd729a,69b92b5a139c8e40709ed6d2,0.0301,0.0301,0,128,128,30,1,fourtwo,,,,,,,,,,,,,,,,,,,,,,,,,,,,,,,,,,,,,,,,,,,,,,,,,,,,,,,,,,,,,,,,,,,,,,,,,,,,,,,,,,,,,,,,,,,,,,,,,,,,,,,,,,,,,,,,,,,,,,,,,,,,,,,,,,,,,,,,,
,,663b638be7226d4e3fcc255f,2026-03-17_10h55.40.295,kallum_motion_pilot_GIST_update_2,2026.1.1,Win32,61.34969325,663b638be7226d4e3fcc255f,69b92ab4aef6dee357cd729a,69b92b5a139c8e40709ed6d2,0.0303,0.0303,0,129,129,104,1,fivesix,,,,,,,,,,,,,,,,,,,,,,,,,,,,,,,,,,,,,,,,,,,,,,,,,,,,,,,,,,,,,,,,,,,,,,,,,,,,,,,,,,,,,,,,,,,,,,,,,,,,,,,,,,,,,,,,,,,,,,,,,,,,,,,,,,,,,,,,,
,,663b638be7226d4e3fcc255f,2026-03-17_10h55.40.295,kallum_motion_pilot_GIST_update_2,2026.1.1,Win32,61.34969325,663b638be7226d4e3fcc255f,69b92ab4aef6dee357cd729a,69b92b5a139c8e40709ed6d2,0.0304,0.0304,0,130,130,159,1,eightseven,,,,,,,,,,,,,,,,,,,,,,,,,,,,,,,,,,,,,,,,,,,,,,,,,,,,,,,,,,,,,,,,,,,,,,,,,,,,,,,,,,,,,,,,,,,,,,,,,,,,,,,,,,,,,,,,,,,,,,,,,,,,,,,,,,,,,,,,,
,,663b638be7226d4e3fcc255f,2026-03-17_10h55.40.295,kallum_motion_pilot_GIST_update_2,2026.1.1,Win32,61.34969325,663b638be7226d4e3fcc255f,69b92ab4aef6dee357cd729a,69b92b5a139c8e40709ed6d2,0.0305,0.0305,0,131,131,85,1,seveneight,,,,,,,,,,,,,,,,,,,,,,,,,,,,,,,,,,,,,,,,,,,,,,,,,,,,,,,,,,,,,,,,,,,,,,,,,,,,,,,,,,,,,,,,,,,,,,,,,,,,,,,,,,,,,,,,,,,,,,,,,,,,,,,,,,,,,,,,,
,,663b638be7226d4e3fcc255f,2026-03-17_10h55.40.295,kallum_motion_pilot_GIST_update_2,2026.1.1,Win32,61.34969325,663b638be7226d4e3fcc255f,69b92ab4aef6dee357cd729a,69b92b5a139c8e40709ed6d2,0.0306,0.0306,0,132,132,52,1,threeone,,,,,,,,,,,,,,,,,,,,,,,,,,,,,,,,,,,,,,,,,,,,,,,,,,,,,,,,,,,,,,,,,,,,,,,,,,,,,,,,,,,,,,,,,,,,,,,,,,,,,,,,,,,,,,,,,,,,,,,,,,,,,,,,,,,,,,,,,
,,663b638be7226d4e3fcc255f,2026-03-17_10h55.40.295,kallum_motion_pilot_GIST_update_2,2026.1.1,Win32,61.34969325,663b638be7226d4e3fcc255f,69b92ab4aef6dee357cd729a,69b92b5a139c8e40709ed6d2,0.0307,0.0308,0,133,133,111,1,eightseven,,,,,,,,,,,,,,,,,,,,,,,,,,,,,,,,,,,,,,,,,,,,,,,,,,,,,,,,,,,,,,,,,,,,,,,,,,,,,,,,,,,,,,,,,,,,,,,,,,,,,,,,,,,,,,,,,,,,,,,,,,,,,,,,,,,,,,,,,
,,663b638be7226d4e3fcc255f,2026-03-17_10h55.40.295,kallum_motion_pilot_GIST_update_2,2026.1.1,Win32,61.34969325,663b638be7226d4e3fcc255f,69b92ab4aef6dee357cd729a,69b92b5a139c8e40709ed6d2,0.0308,0.0308,0,134,134,49,1,onethree,,,,,,,,,,,,,,,,,,,,,,,,,,,,,,,,,,,,,,,,,,,,,,,,,,,,,,,,,,,,,,,,,,,,,,,,,,,,,,,,,,,,,,,,,,,,,,,,,,,,,,,,,,,,,,,,,,,,,,,,,,,,,,,,,,,,,,,,,
,,663b638be7226d4e3fcc255f,2026-03-17_10h55.40.295,kallum_motion_pilot_GIST_update_2,2026.1.1,Win32,61.34969325,663b638be7226d4e3fcc255f,69b92ab4aef6dee357cd729a,69b92b5a139c8e40709ed6d2,0.031,0.0311,0,135,135,121,1,fiveseven,,,,,,,,,,,,,,,,,,,,,,,,,,,,,,,,,,,,,,,,,,,,,,,,,,,,,,,,,,,,,,,,,,,,,,,,,,,,,,,,,,,,,,,,,,,,,,,,,,,,,,,,,,,,,,,,,,,,,,,,,,,,,,,,,,,,,,,,,
,,663b638be7226d4e3fcc255f,2026-03-17_10h55.40.295,kallum_motion_pilot_GIST_update_2,2026.1.1,Win32,61.34969325,663b638be7226d4e3fcc255f,69b92ab4aef6dee357cd729a,69b92b5a139c8e40709ed6d2,0.0311,0.0312,0,136,136,40,1,onetwo,,,,,,,,,,,,,,,,,,,,,,,,,,,,,,,,,,,,,,,,,,,,,,,,,,,,,,,,,,,,,,,,,,,,,,,,,,,,,,,,,,,,,,,,,,,,,,,,,,,,,,,,,,,,,,,,,,,,,,,,,,,,,,,,,,,,,,,,,
,,663b638be7226d4e3fcc255f,2026-03-17_10h55.40.295,kallum_motion_pilot_GIST_update_2,2026.1.1,Win32,61.34969325,663b638be7226d4e3fcc255f,69b92ab4aef6dee357cd729a,69b92b5a139c8e40709ed6d2,0.0313,0.0313,0,137,137,118,1,eightsix,,,,,,,,,,,,,,,,,,,,,,,,,,,,,,,,,,,,,,,,,,,,,,,,,,,,,,,,,,,,,,,,,,,,,,,,,,,,,,,,,,,,,,,,,,,,,,,,,,,,,,,,,,,,,,,,,,,,,,,,,,,,,,,,,,,,,,,,,
,,663b638be7226d4e3fcc255f,2026-03-17_10h55.40.295,kallum_motion_pilot_GIST_update_2,2026.1.1,Win32,61.34969325,663b638be7226d4e3fcc255f,69b92ab4aef6dee357cd729a,69b92b5a139c8e40709ed6d2,0.0314,0.0315,0,138,138,35,1,twofour,,,,,,,,,,,,,,,,,,,,,,,,,,,,,,,,,,,,,,,,,,,,,,,,,,,,,,,,,,,,,,,,,,,,,,,,,,,,,,,,,,,,,,,,,,,,,,,,,,,,,,,,,,,,,,,,,,,,,,,,,,,,,,,,,,,,,,,,,
,,663b638be7226d4e3fcc255f,2026-03-17_10h55.40.295,kallum_motion_pilot_GIST_update_2,2026.1.1,Win32,61.34969325,663b638be7226d4e3fcc255f,69b92ab4aef6dee357cd729a,69b92b5a139c8e40709ed6d2,0.0315,0.0315,0,139,139,20,1,threeone,,,,,,,,,,,,,,,,,,,,,,,,,,,,,,,,,,,,,,,,,,,,,,,,,,,,,,,,,,,,,,,,,,,,,,,,,,,,,,,,,,,,,,,,,,,,,,,,,,,,,,,,,,,,,,,,,,,,,,,,,,,,,,,,,,,,,,,,,
,,663b638be7226d4e3fcc255f,2026-03-17_10h55.40.295,kallum_motion_pilot_GIST_update_2,2026.1.1,Win32,61.34969325,663b638be7226d4e3fcc255f,69b92ab4aef6dee357cd729a,69b92b5a139c8e40709ed6d2,0.0317,0.0317,0,140,140,86,1,eightsix,,,,,,,,,,,,,,,,,,,,,,,,,,,,,,,,,,,,,,,,,,,,,,,,,,,,,,,,,,,,,,,,,,,,,,,,,,,,,,,,,,,,,,,,,,,,,,,,,,,,,,,,,,,,,,,,,,,,,,,,,,,,,,,,,,,,,,,,,
,,663b638be7226d4e3fcc255f,2026-03-17_10h55.40.295,kallum_motion_pilot_GIST_update_2,2026.1.1,Win32,61.34969325,663b638be7226d4e3fcc255f,69b92ab4aef6dee357cd729a,69b92b5a139c8e40709ed6d2,0.0318,0.0318,0,141,141,141,1,seveneight,,,,,,,,,,,,,,,,,,,,,,,,,,,,,,,,,,,,,,,,,,,,,,,,,,,,,,,,,,,,,,,,,,,,,,,,,,,,,,,,,,,,,,,,,,,,,,,,,,,,,,,,,,,,,,,,,,,,,,,,,,,,,,,,,,,,,,,,,
,,663b638be7226d4e3fcc255f,2026-03-17_10h55.40.295,kallum_motion_pilot_GIST_update_2,2026.1.1,Win32,61.34969325,663b638be7226d4e3fcc255f,69b92ab4aef6dee357cd729a,69b92b5a139c8e40709ed6d2,0.0318,0.0318,0,142,142,25,1,onethree,,,,,,,,,,,,,,,,,,,,,,,,,,,,,,,,,,,,,,,,,,,,,,,,,,,,,,,,,,,,,,,,,,,,,,,,,,,,,,,,,,,,,,,,,,,,,,,,,,,,,,,,,,,,,,,,,,,,,,,,,,,,,,,,,,,,,,,,,
,,663b638be7226d4e3fcc255f,2026-03-17_10h55.40.295,kallum_motion_pilot_GIST_update_2,2026.1.1,Win32,61.34969325,663b638be7226d4e3fcc255f,69b92ab4aef6dee357cd729a,69b92b5a139c8e40709ed6d2,0.0319,0.0319,0,143,143,3,1,twofour,,,,,,,,,,,,,,,,,,,,,,,,,,,,,,,,,,,,,,,,,,,,,,,,,,,,,,,,,,,,,,,,,,,,,,,,,,,,,,,,,,,,,,,,,,,,,,,,,,,,,,,,,,,,,,,,,,,,,,,,,,,,,,,,,,,,,,,,,
,,663b638be7226d4e3fcc255f,2026-03-17_10h55.40.295,kallum_motion_pilot_GIST_update_2,2026.1.1,Win32,61.34969325,663b638be7226d4e3fcc255f,69b92ab4aef6dee357cd729a,69b92b5a139c8e40709ed6d2,0.0319,0.0319,0,144,144,78,1,fourtwo,,,,,,,,,,,,,,,,,,,,,,,,,,,,,,,,,,,,,,,,,,,,,,,,,,,,,,,,,,,,,,,,,,,,,,,,,,,,,,,,,,,,,,,,,,,,,,,,,,,,,,,,,,,,,,,,,,,,,,,,,,,,,,,,,,,,,,,,,
,,663b638be7226d4e3fcc255f,2026-03-17_10h55.40.295,kallum_motion_pilot_GIST_update_2,2026.1.1,Win32,61.34969325,663b638be7226d4e3fcc255f,69b92ab4aef6dee357cd729a,69b92b5a139c8e40709ed6d2,0.0321,0.0321,0,145,145,100,1,sevenfive,,,,,,,,,,,,,,,,,,,,,,,,,,,,,,,,,,,,,,,,,,,,,,,,,,,,,,,,,,,,,,,,,,,,,,,,,,,,,,,,,,,,,,,,,,,,,,,,,,,,,,,,,,,,,,,,,,,,,,,,,,,,,,,,,,,,,,,,,
,,663b638be7226d4e3fcc255f,2026-03-17_10h55.40.295,kallum_motion_pilot_GIST_update_2,2026.1.1,Win32,61.34969325,663b638be7226d4e3fcc255f,69b92ab4aef6dee357cd729a,69b92b5a139c8e40709ed6d2,0.0321,0.0321,0,146,146,133,1,seveneight,,,,,,,,,,,,,,,,,,,,,,,,,,,,,,,,,,,,,,,,,,,,,,,,,,,,,,,,,,,,,,,,,,,,,,,,,,,,,,,,,,,,,,,,,,,,,,,,,,,,,,,,,,,,,,,,,,,,,,,,,,,,,,,,,,,,,,,,,
,,663b638be7226d4e3fcc255f,2026-03-17_10h55.40.295,kallum_motion_pilot_GIST_update_2,2026.1.1,Win32,61.34969325,663b638be7226d4e3fcc255f,69b92ab4aef6dee357cd729a,69b92b5a139c8e40709ed6d2,0.0322,0.0322,0,147,147,123,1,sixeight,,,,,,,,,,,,,,,,,,,,,,,,,,,,,,,,,,,,,,,,,,,,,,,,,,,,,,,,,,,,,,,,,,,,,,,,,,,,,,,,,,,,,,,,,,,,,,,,,,,,,,,,,,,,,,,,,,,,,,,,,,,,,,,,,,,,,,,,,
,,663b638be7226d4e3fcc255f,2026-03-17_10h55.40.295,kallum_motion_pilot_GIST_update_2,2026.1.1,Win32,61.34969325,663b638be7226d4e3fcc255f,69b92ab4aef6dee357cd729a,69b92b5a139c8e40709ed6d2,0.0323,0.0323,0,148,148,145,1,fiveseven,,,,,,,,,,,,,,,,,,,,,,,,,,,,,,,,,,,,,,,,,,,,,,,,,,,,,,,,,,,,,,,,,,,,,,,,,,,,,,,,,,,,,,,,,,,,,,,,,,,,,,,,,,,,,,,,,,,,,,,,,,,,,,,,,,,,,,,,,
,,663b638be7226d4e3fcc255f,2026-03-17_10h55.40.295,kallum_motion_pilot_GIST_update_2,2026.1.1,Win32,61.34969325,663b638be7226d4e3fcc255f,69b92ab4aef6dee357cd729a,69b92b5a139c8e40709ed6d2,0.0325,0.0325,0,149,149,56,1,onetwo,,,,,,,,,,,,,,,,,,,,,,,,,,,,,,,,,,,,,,,,,,,,,,,,,,,,,,,,,,,,,,,,,,,,,,,,,,,,,,,,,,,,,,,,,,,,,,,,,,,,,,,,,,,,,,,,,,,,,,,,,,,,,,,,,,,,,,,,,
,,663b638be7226d4e3fcc255f,2026-03-17_10h55.40.295,kallum_motion_pilot_GIST_update_2,2026.1.1,Win32,61.34969325,663b638be7226d4e3fcc255f,69b92ab4aef6dee357cd729a,69b92b5a139c8e40709ed6d2,0.0325,0.0325,0,150,150,77,1,threefour,,,,,,,,,,,,,,,,,,,,,,,,,,,,,,,,,,,,,,,,,,,,,,,,,,,,,,,,,,,,,,,,,,,,,,,,,,,,,,,,,,,,,,,,,,,,,,,,,,,,,,,,,,,,,,,,,,,,,,,,,,,,,,,,,,,,,,,,,
,,663b638be7226d4e3fcc255f,2026-03-17_10h55.40.295,kallum_motion_pilot_GIST_update_2,2026.1.1,Win32,61.34969325,663b638be7226d4e3fcc255f,69b92ab4aef6dee357cd729a,69b92b5a139c8e40709ed6d2,0.0326,0.0326,0,151,151,32,1,onetwo,,,,,,,,,,,,,,,,,,,,,,,,,,,,,,,,,,,,,,,,,,,,,,,,,,,,,,,,,,,,,,,,,,,,,,,,,,,,,,,,,,,,,,,,,,,,,,,,,,,,,,,,,,,,,,,,,,,,,,,,,,,,,,,,,,,,,,,,,
,,663b638be7226d4e3fcc255f,2026-03-17_10h55.40.295,kallum_motion_pilot_GIST_update_2,2026.1.1,Win32,61.34969325,663b638be7226d4e3fcc255f,69b92ab4aef6dee357cd729a,69b92b5a139c8e40709ed6d2,0.0327,0.0327,0,152,152,23,1,fourthree,,,,,,,,,,,,,,,,,,,,,,,,,,,,,,,,,,,,,,,,,,,,,,,,,,,,,,,,,,,,,,,,,,,,,,,,,,,,,,,,,,,,,,,,,,,,,,,,,,,,,,,,,,,,,,,,,,,,,,,,,,,,,,,,,,,,,,,,,
,,663b638be7226d4e3fcc255f,2026-03-17_10h55.40.295,kallum_motion_pilot_GIST_update_2,2026.1.1,Win32,61.34969325,663b638be7226d4e3fcc255f,69b92ab4aef6dee357cd729a,69b92b5a139c8e40709ed6d2,0.0327,0.0327,0,153,153,108,1,sevenfive,,,,,,,,,,,,,,,,,,,,,,,,,,,,,,,,,,,,,,,,,,,,,,,,,,,,,,,,,,,,,,,,,,,,,,,,,,,,,,,,,,,,,,,,,,,,,,,,,,,,,,,,,,,,,,,,,,,,,,,,,,,,,,,,,,,,,,,,,
,,663b638be7226d4e3fcc255f,2026-03-17_10h55.40.295,kallum_motion_pilot_GIST_update_2,2026.1.1,Win32,61.34969325,663b638be7226d4e3fcc255f,69b92ab4aef6dee357cd729a,69b92b5a139c8e40709ed6d2,0.0329,0.0329,0,154,154,65,1,onethree,,,,,,,,,,,,,,,,,,,,,,,,,,,,,,,,,,,,,,,,,,,,,,,,,,,,,,,,,,,,,,,,,,,,,,,,,,,,,,,,,,,,,,,,,,,,,,,,,,,,,,,,,,,,,,,,,,,,,,,,,,,,,,,,,,,,,,,,,
,,663b638be7226d4e3fcc255f,2026-03-17_10h55.40.295,kallum_motion_pilot_GIST_update_2,2026.1.1,Win32,61.34969325,663b638be7226d4e3fcc255f,69b92ab4aef6dee357cd729a,69b92b5a139c8e40709ed6d2,0.033,0.033,0,155,155,140,1,sevenfive,,,,,,,,,,,,,,,,,,,,,,,,,,,,,,,,,,,,,,,,,,,,,,,,,,,,,,,,,,,,,,,,,,,,,,,,,,,,,,,,,,,,,,,,,,,,,,,,,,,,,,,,,,,,,,,,,,,,,,,,,,,,,,,,,,,,,,,,,
,,663b638be7226d4e3fcc255f,2026-03-17_10h55.40.295,kallum_motion_pilot_GIST_update_2,2026.1.1,Win32,61.34969325,663b638be7226d4e3fcc255f,69b92ab4aef6dee357cd729a,69b92b5a139c8e40709ed6d2,0.0331,0.0331,0,156,156,92,1,sevenfive,,,,,,,,,,,,,,,,,,,,,,,,,,,,,,,,,,,,,,,,,,,,,,,,,,,,,,,,,,,,,,,,,,,,,,,,,,,,,,,,,,,,,,,,,,,,,,,,,,,,,,,,,,,,,,,,,,,,,,,,,,,,,,,,,,,,,,,,,
,,663b638be7226d4e3fcc255f,2026-03-17_10h55.40.295,kallum_motion_pilot_GIST_update_2,2026.1.1,Win32,61.34969325,663b638be7226d4e3fcc255f,69b92ab4aef6dee357cd729a,69b92b5a139c8e40709ed6d2,0.0332,0.0332,0,157,157,37,1,threefour,,,,,,,,,,,,,,,,,,,,,,,,,,,,,,,,,,,,,,,,,,,,,,,,,,,,,,,,,,,,,,,,,,,,,,,,,,,,,,,,,,,,,,,,,,,,,,,,,,,,,,,,,,,,,,,,,,,,,,,,,,,,,,,,,,,,,,,,,
,,663b638be7226d4e3fcc255f,2026-03-17_10h55.40.295,kallum_motion_pilot_GIST_update_2,2026.1.1,Win32,61.34969325,663b638be7226d4e3fcc255f,69b92ab4aef6dee357cd729a,69b92b5a139c8e40709ed6d2,0.0333,0.0333,0,158,158,31,1,fourthree,,,,,,,,,,,,,,,,,,,,,,,,,,,,,,,,,,,,,,,,,,,,,,,,,,,,,,,,,,,,,,,,,,,,,,,,,,,,,,,,,,,,,,,,,,,,,,,,,,,,,,,,,,,,,,,,,,,,,,,,,,,,,,,,,,,,,,,,,
,,663b638be7226d4e3fcc255f,2026-03-17_10h55.40.295,kallum_motion_pilot_GIST_update_2,2026.1.1,Win32,61.34969325,663b638be7226d4e3fcc255f,69b92ab4aef6dee357cd729a,69b92b5a139c8e40709ed6d2,0.0333,0.0333,0,159,159,11,1,twofour,,,,,,,,,,,,,,,,,,,,,,,,,,,,,,,,,,,,,,,,,,,,,,,,,,,,,,,,,,,,,,,,,,,,,,,,,,,,,,,,,,,,,,,,,,,,,,,,,,,,,,,,,,,,,,,,,,,,,,,,,,,,,,,,,,,,,,,,,
,,663b638be7226d4e3fcc255f,2026-03-17_10h55.40.295,kallum_motion_pilot_GIST_update_2,2026.1.1,Win32,61.34969325,663b638be7226d4e3fcc255f,69b92ab4aef6dee357cd729a,69b92b5a139c8e40709ed6d2,0.0333,0.0333,0,160,160,84,1,sevenfive,,,,,,,,,,,,,,,,,,,,,,,,,,,,,,,,,,,,,,,,,,,,,,,,,,,,,,,,,,,,,,,,,,,,,,,,,,,,,,,,,,,,,,,,,,,,,,,,,,,,,,,,,,,,,,,,,,,,,,,,,,,,,,,,,,,,,,,,,
,,663b638be7226d4e3fcc255f,2026-03-17_10h55.40.295,kallum_motion_pilot_GIST_update_2,2026.1.1,Win32,61.34969325,663b638be7226d4e3fcc255f,69b92ab4aef6dee357cd729a,69b92b5a139c8e40709ed6d2,0.0335,0.0337,0,161,161,9,1,onethree,,,,,,,,,,,,,,,,,,,,,,,,,,,,,,,,,,,,,,,,,,,,,,,,,,,,,,,,,,,,,,,,,,,,,,,,,,,,,,,,,,,,,,,,,,,,,,,,,,,,,,,,,,,,,,,,,,,,,,,,,,,,,,,,,,,,,,,,,
,,663b638be7226d4e3fcc255f,2026-03-17_10h55.40.295,kallum_motion_pilot_GIST_update_2,2026.1.1,Win32,61.34969325,663b638be7226d4e3fcc255f,69b92ab4aef6dee357cd729a,69b92b5a139c8e40709ed6d2,0.0339,0.0339,1,0,162,97,1,fiveseven,,,,,,,,,,,,,,,,,,,,,,,,,,,,,,,,,,,,,,,,,,,,,,,,,,,,,,,,,,,,,,,,,,,,,,,,,,,,,,,,,,,,,,,,,,,,,,,,,,,,,,,,,,,,,,,,,,,,,,,,,,,,,,,,,,,,,,,,,
,,663b638be7226d4e3fcc255f,2026-03-17_10h55.40.295,kallum_motion_pilot_GIST_update_2,2026.1.1,Win32,61.34969325,663b638be7226d4e3fcc255f,69b92ab4aef6dee357cd729a,69b92b5a139c8e40709ed6d2,0.034,0.034,1,1,163,130,1,sixfive,,,,,,,,,,,,,,,,,,,,,,,,,,,,,,,,,,,,,,,,,,,,,,,,,,,,,,,,,,,,,,,,,,,,,,,,,,,,,,,,,,,,,,,,,,,,,,,,,,,,,,,,,,,,,,,,,,,,,,,,,,,,,,,,,,,,,,,,,
,,663b638be7226d4e3fcc255f,2026-03-17_10h55.40.295,kallum_motion_pilot_GIST_update_2,2026.1.1,Win32,61.34969325,663b638be7226d4e3fcc255f,69b92ab4aef6dee357cd729a,69b92b5a139c8e40709ed6d2,0.0342,0.0342,1,2,164,73,1,onethree,,,,,,,,,,,,,,,,,,,,,,,,,,,,,,,,,,,,,,,,,,,,,,,,,,,,,,,,,,,,,,,,,,,,,,,,,,,,,,,,,,,,,,,,,,,,,,,,,,,,,,,,,,,,,,,,,,,,,,,,,,,,,,,,,,,,,,,,,
,,663b638be7226d4e3fcc255f,2026-03-17_10h55.40.295,kallum_motion_pilot_GIST_update_2,2026.1.1,Win32,61.34969325,663b638be7226d4e3fcc255f,69b92ab4aef6dee357cd729a,69b92b5a139c8e40709ed6d2,0.0344,0.0344,1,3,165,57,1,onethree,,,,,,,,,,,,,,,,,,,,,,,,,,,,,,,,,,,,,,,,,,,,,,,,,,,,,,,,,,,,,,,,,,,,,,,,,,,,,,,,,,,,,,,,,,,,,,,,,,,,,,,,,,,,,,,,,,,,,,,,,,,,,,,,,,,,,,,,,
,,663b638be7226d4e3fcc255f,2026-03-17_10h55.40.295,kallum_motion_pilot_GIST_update_2,2026.1.1,Win32,61.34969325,663b638be7226d4e3fcc255f,69b92ab4aef6dee357cd729a,69b92b5a139c8e40709ed6d2,0.0345,0.0345,1,4,166,128,1,fivesix,,,,,,,,,,,,,,,,,,,,,,,,,,,,,,,,,,,,,,,,,,,,,,,,,,,,,,,,,,,,,,,,,,,,,,,,,,,,,,,,,,,,,,,,,,,,,,,,,,,,,,,,,,,,,,,,,,,,,,,,,,,,,,,,,,,,,,,,,
,,663b638be7226d4e3fcc255f,2026-03-17_10h55.40.295,kallum_motion_pilot_GIST_update_2,2026.1.1,Win32,61.34969325,663b638be7226d4e3fcc255f,69b92ab4aef6dee357cd729a,69b92b5a139c8e40709ed6d2,0.0346,0.0347,1,5,167,52,1,threeone,,,,,,,,,,,,,,,,,,,,,,,,,,,,,,,,,,,,,,,,,,,,,,,,,,,,,,,,,,,,,,,,,,,,,,,,,,,,,,,,,,,,,,,,,,,,,,,,,,,,,,,,,,,,,,,,,,,,,,,,,,,,,,,,,,,,,,,,,
,,663b638be7226d4e3fcc255f,2026-03-17_10h55.40.295,kallum_motion_pilot_GIST_update_2,2026.1.1,Win32,61.34969325,663b638be7226d4e3fcc255f,69b92ab4aef6dee357cd729a,69b92b5a139c8e40709ed6d2,0.0348,0.0348,1,6,168,2,1,twoone,,,,,,,,,,,,,,,,,,,,,,,,,,,,,,,,,,,,,,,,,,,,,,,,,,,,,,,,,,,,,,,,,,,,,,,,,,,,,,,,,,,,,,,,,,,,,,,,,,,,,,,,,,,,,,,,,,,,,,,,,,,,,,,,,,,,,,,,,
,,663b638be7226d4e3fcc255f,2026-03-17_10h55.40.295,kallum_motion_pilot_GIST_update_2,2026.1.1,Win32,61.34969325,663b638be7226d4e3fcc255f,69b92ab4aef6dee357cd729a,69b92b5a139c8e40709ed6d2,0.0348,0.0349,1,7,169,45,1,threefour,,,,,,,,,,,,,,,,,,,,,,,,,,,,,,,,,,,,,,,,,,,,,,,,,,,,,,,,,,,,,,,,,,,,,,,,,,,,,,,,,,,,,,,,,,,,,,,,,,,,,,,,,,,,,,,,,,,,,,,,,,,,,,,,,,,,,,,,,
,,663b638be7226d4e3fcc255f,2026-03-17_10h55.40.295,kallum_motion_pilot_GIST_update_2,2026.1.1,Win32,61.34969325,663b638be7226d4e3fcc255f,69b92ab4aef6dee357cd729a,69b92b5a139c8e40709ed6d2,0.0351,0.0351,1,8,170,43,1,twofour,,,,,,,,,,,,,,,,,,,,,,,,,,,,,,,,,,,,,,,,,,,,,,,,,,,,,,,,,,,,,,,,,,,,,,,,,,,,,,,,,,,,,,,,,,,,,,,,,,,,,,,,,,,,,,,,,,,,,,,,,,,,,,,,,,,,,,,,,
,,663b638be7226d4e3fcc255f,2026-03-17_10h55.40.295,kallum_motion_pilot_GIST_update_2,2026.1.1,Win32,61.34969325,663b638be7226d4e3fcc255f,69b92ab4aef6dee357cd729a,69b92b5a139c8e40709ed6d2,0.0352,0.0352,1,9,171,71,1,fourthree,,,,,,,,,,,,,,,,,,,,,,,,,,,,,,,,,,,,,,,,,,,,,,,,,,,,,,,,,,,,,,,,,,,,,,,,,,,,,,,,,,,,,,,,,,,,,,,,,,,,,,,,,,,,,,,,,,,,,,,,,,,,,,,,,,,,,,,,,
,,663b638be7226d4e3fcc255f,2026-03-17_10h55.40.295,kallum_motion_pilot_GIST_update_2,2026.1.1,Win32,61.34969325,663b638be7226d4e3fcc255f,69b92ab4aef6dee357cd729a,69b92b5a139c8e40709ed6d2,0.0354,0.0354,1,10,172,51,1,twofour,,,,,,,,,,,,,,,,,,,,,,,,,,,,,,,,,,,,,,,,,,,,,,,,,,,,,,,,,,,,,,,,,,,,,,,,,,,,,,,,,,,,,,,,,,,,,,,,,,,,,,,,,,,,,,,,,,,,,,,,,,,,,,,,,,,,,,,,,
,,663b638be7226d4e3fcc255f,2026-03-17_10h55.40.295,kallum_motion_pilot_GIST_update_2,2026.1.1,Win32,61.34969325,663b638be7226d4e3fcc255f,69b92ab4aef6dee357cd729a,69b92b5a139c8e40709ed6d2,0.0355,0.0355,1,11,173,23,1,fourthree,,,,,,,,,,,,,,,,,,,,,,,,,,,,,,,,,,,,,,,,,,,,,,,,,,,,,,,,,,,,,,,,,,,,,,,,,,,,,,,,,,,,,,,,,,,,,,,,,,,,,,,,,,,,,,,,,,,,,,,,,,,,,,,,,,,,,,,,,
,,663b638be7226d4e3fcc255f,2026-03-17_10h55.40.295,kallum_motion_pilot_GIST_update_2,2026.1.1,Win32,61.34969325,663b638be7226d4e3fcc255f,69b92ab4aef6dee357cd729a,69b92b5a139c8e40709ed6d2,0.0357,0.0357,1,12,174,69,1,threefour,,,,,,,,,,,,,,,,,,,,,,,,,,,,,,,,,,,,,,,,,,,,,,,,,,,,,,,,,,,,,,,,,,,,,,,,,,,,,,,,,,,,,,,,,,,,,,,,,,,,,,,,,,,,,,,,,,,,,,,,,,,,,,,,,,,,,,,,,
,,663b638be7226d4e3fcc255f,2026-03-17_10h55.40.295,kallum_motion_pilot_GIST_update_2,2026.1.1,Win32,61.34969325,663b638be7226d4e3fcc255f,69b92ab4aef6dee357cd729a,69b92b5a139c8e40709ed6d2,0.0357,0.0358,1,13,175,56,1,onetwo,,,,,,,,,,,,,,,,,,,,,,,,,,,,,,,,,,,,,,,,,,,,,,,,,,,,,,,,,,,,,,,,,,,,,,,,,,,,,,,,,,,,,,,,,,,,,,,,,,,,,,,,,,,,,,,,,,,,,,,,,,,,,,,,,,,,,,,,,
,,663b638be7226d4e3fcc255f,2026-03-17_10h55.40.295,kallum_motion_pilot_GIST_update_2,2026.1.1,Win32,61.34969325,663b638be7226d4e3fcc255f,69b92ab4aef6dee357cd729a,69b92b5a139c8e40709ed6d2,0.0359,0.0359,1,14,176,14,1,fourtwo,,,,,,,,,,,,,,,,,,,,,,,,,,,,,,,,,,,,,,,,,,,,,,,,,,,,,,,,,,,,,,,,,,,,,,,,,,,,,,,,,,,,,,,,,,,,,,,,,,,,,,,,,,,,,,,,,,,,,,,,,,,,,,,,,,,,,,,,,
,,663b638be7226d4e3fcc255f,2026-03-17_10h55.40.295,kallum_motion_pilot_GIST_update_2,2026.1.1,Win32,61.34969325,663b638be7226d4e3fcc255f,69b92ab4aef6dee357cd729a,69b92b5a139c8e40709ed6d2,0.0361,0.0361,1,15,177,64,1,onetwo,,,,,,,,,,,,,,,,,,,,,,,,,,,,,,,,,,,,,,,,,,,,,,,,,,,,,,,,,,,,,,,,,,,,,,,,,,,,,,,,,,,,,,,,,,,,,,,,,,,,,,,,,,,,,,,,,,,,,,,,,,,,,,,,,,,,,,,,,
,,663b638be7226d4e3fcc255f,2026-03-17_10h55.40.295,kallum_motion_pilot_GIST_update_2,2026.1.1,Win32,61.34969325,663b638be7226d4e3fcc255f,69b92ab4aef6dee357cd729a,69b92b5a139c8e40709ed6d2,0.0362,0.0362,1,16,178,44,1,threeone,,,,,,,,,,,,,,,,,,,,,,,,,,,,,,,,,,,,,,,,,,,,,,,,,,,,,,,,,,,,,,,,,,,,,,,,,,,,,,,,,,,,,,,,,,,,,,,,,,,,,,,,,,,,,,,,,,,,,,,,,,,,,,,,,,,,,,,,,
,,663b638be7226d4e3fcc255f,2026-03-17_10h55.40.295,kallum_motion_pilot_GIST_update_2,2026.1.1,Win32,61.34969325,663b638be7226d4e3fcc255f,69b92ab4aef6dee357cd729a,69b92b5a139c8e40709ed6d2,0.0363,0.0363,1,17,179,18,1,twoone,,,,,,,,,,,,,,,,,,,,,,,,,,,,,,,,,,,,,,,,,,,,,,,,,,,,,,,,,,,,,,,,,,,,,,,,,,,,,,,,,,,,,,,,,,,,,,,,,,,,,,,,,,,,,,,,,,,,,,,,,,,,,,,,,,,,,,,,,
,,663b638be7226d4e3fcc255f,2026-03-17_10h55.40.295,kallum_motion_pilot_GIST_update_2,2026.1.1,Win32,61.34969325,663b638be7226d4e3fcc255f,69b92ab4aef6dee357cd729a,69b92b5a139c8e40709ed6d2,0.0364,0.0364,1,18,180,17,1,onethree,,,,,,,,,,,,,,,,,,,,,,,,,,,,,,,,,,,,,,,,,,,,,,,,,,,,,,,,,,,,,,,,,,,,,,,,,,,,,,,,,,,,,,,,,,,,,,,,,,,,,,,,,,,,,,,,,,,,,,,,,,,,,,,,,,,,,,,,,
,,663b638be7226d4e3fcc255f,2026-03-17_10h55.40.295,kallum_motion_pilot_GIST_update_2,2026.1.1,Win32,61.34969325,663b638be7226d4e3fcc255f,69b92ab4aef6dee357cd729a,69b92b5a139c8e40709ed6d2,0.0365,0.0365,1,19,181,66,1,twoone,,,,,,,,,,,,,,,,,,,,,,,,,,,,,,,,,,,,,,,,,,,,,,,,,,,,,,,,,,,,,,,,,,,,,,,,,,,,,,,,,,,,,,,,,,,,,,,,,,,,,,,,,,,,,,,,,,,,,,,,,,,,,,,,,,,,,,,,,
,,663b638be7226d4e3fcc255f,2026-03-17_10h55.40.295,kallum_motion_pilot_GIST_update_2,2026.1.1,Win32,61.34969325,663b638be7226d4e3fcc255f,69b92ab4aef6dee357cd729a,69b92b5a139c8e40709ed6d2,0.0366,0.0366,1,20,182,127,1,eightseven,,,,,,,,,,,,,,,,,,,,,,,,,,,,,,,,,,,,,,,,,,,,,,,,,,,,,,,,,,,,,,,,,,,,,,,,,,,,,,,,,,,,,,,,,,,,,,,,,,,,,,,,,,,,,,,,,,,,,,,,,,,,,,,,,,,,,,,,,
,,663b638be7226d4e3fcc255f,2026-03-17_10h55.40.295,kallum_motion_pilot_GIST_update_2,2026.1.1,Win32,61.34969325,663b638be7226d4e3fcc255f,69b92ab4aef6dee357cd729a,69b92b5a139c8e40709ed6d2,0.0366,0.0366,1,21,183,156,1,sevenfive,,,,,,,,,,,,,,,,,,,,,,,,,,,,,,,,,,,,,,,,,,,,,,,,,,,,,,,,,,,,,,,,,,,,,,,,,,,,,,,,,,,,,,,,,,,,,,,,,,,,,,,,,,,,,,,,,,,,,,,,,,,,,,,,,,,,,,,,,
,,663b638be7226d4e3fcc255f,2026-03-17_10h55.40.295,kallum_motion_pilot_GIST_update_2,2026.1.1,Win32,61.34969325,663b638be7226d4e3fcc255f,69b92ab4aef6dee357cd729a,69b92b5a139c8e40709ed6d2,0.0368,0.0368,1,22,184,113,1,fiveseven,,,,,,,,,,,,,,,,,,,,,,,,,,,,,,,,,,,,,,,,,,,,,,,,,,,,,,,,,,,,,,,,,,,,,,,,,,,,,,,,,,,,,,,,,,,,,,,,,,,,,,,,,,,,,,,,,,,,,,,,,,,,,,,,,,,,,,,,,
,,663b638be7226d4e3fcc255f,2026-03-17_10h55.40.295,kallum_motion_pilot_GIST_update_2,2026.1.1,Win32,61.34969325,663b638be7226d4e3fcc255f,69b92ab4aef6dee357cd729a,69b92b5a139c8e40709ed6d2,0.0368,0.0368,1,23,185,150,1,eightsix,,,,,,,,,,,,,,,,,,,,,,,,,,,,,,,,,,,,,,,,,,,,,,,,,,,,,,,,,,,,,,,,,,,,,,,,,,,,,,,,,,,,,,,,,,,,,,,,,,,,,,,,,,,,,,,,,,,,,,,,,,,,,,,,,,,,,,,,,
,,663b638be7226d4e3fcc255f,2026-03-17_10h55.40.295,kallum_motion_pilot_GIST_update_2,2026.1.1,Win32,61.34969325,663b638be7226d4e3fcc255f,69b92ab4aef6dee357cd729a,69b92b5a139c8e40709ed6d2,0.037,0.037,1,24,186,157,1,seveneight,,,,,,,,,,,,,,,,,,,,,,,,,,,,,,,,,,,,,,,,,,,,,,,,,,,,,,,,,,,,,,,,,,,,,,,,,,,,,,,,,,,,,,,,,,,,,,,,,,,,,,,,,,,,,,,,,,,,,,,,,,,,,,,,,,,,,,,,,
,,663b638be7226d4e3fcc255f,2026-03-17_10h55.40.295,kallum_motion_pilot_GIST_update_2,2026.1.1,Win32,61.34969325,663b638be7226d4e3fcc255f,69b92ab4aef6dee357cd729a,69b92b5a139c8e40709ed6d2,0.0371,0.0371,1,25,187,93,1,seveneight,,,,,,,,,,,,,,,,,,,,,,,,,,,,,,,,,,,,,,,,,,,,,,,,,,,,,,,,,,,,,,,,,,,,,,,,,,,,,,,,,,,,,,,,,,,,,,,,,,,,,,,,,,,,,,,,,,,,,,,,,,,,,,,,,,,,,,,,,
,,663b638be7226d4e3fcc255f,2026-03-17_10h55.40.295,kallum_motion_pilot_GIST_update_2,2026.1.1,Win32,61.34969325,663b638be7226d4e3fcc255f,69b92ab4aef6dee357cd729a,69b92b5a139c8e40709ed6d2,0.0372,0.0373,1,26,188,79,1,eightseven,,,,,,,,,,,,,,,,,,,,,,,,,,,,,,,,,,,,,,,,,,,,,,,,,,,,,,,,,,,,,,,,,,,,,,,,,,,,,,,,,,,,,,,,,,,,,,,,,,,,,,,,,,,,,,,,,,,,,,,,,,,,,,,,,,,,,,,,,
,,663b638be7226d4e3fcc255f,2026-03-17_10h55.40.295,kallum_motion_pilot_GIST_update_2,2026.1.1,Win32,61.34969325,663b638be7226d4e3fcc255f,69b92ab4aef6dee357cd729a,69b92b5a139c8e40709ed6d2,0.0374,0.0374,1,27,189,98,1,sixfive,,,,,,,,,,,,,,,,,,,,,,,,,,,,,,,,,,,,,,,,,,,,,,,,,,,,,,,,,,,,,,,,,,,,,,,,,,,,,,,,,,,,,,,,,,,,,,,,,,,,,,,,,,,,,,,,,,,,,,,,,,,,,,,,,,,,,,,,,
,,663b638be7226d4e3fcc255f,2026-03-17_10h55.40.295,kallum_motion_pilot_GIST_update_2,2026.1.1,Win32,61.34969325,663b638be7226d4e3fcc255f,69b92ab4aef6dee357cd729a,69b92b5a139c8e40709ed6d2,0.0375,0.0375,1,28,190,148,1,sevenfive,,,,,,,,,,,,,,,,,,,,,,,,,,,,,,,,,,,,,,,,,,,,,,,,,,,,,,,,,,,,,,,,,,,,,,,,,,,,,,,,,,,,,,,,,,,,,,,,,,,,,,,,,,,,,,,,,,,,,,,,,,,,,,,,,,,,,,,,,
,,663b638be7226d4e3fcc255f,2026-03-17_10h55.40.295,kallum_motion_pilot_GIST_update_2,2026.1.1,Win32,61.34969325,663b638be7226d4e3fcc255f,69b92ab4aef6dee357cd729a,69b92b5a139c8e40709ed6d2,0.0377,0.0377,1,29,191,139,1,sixeight,,,,,,,,,,,,,,,,,,,,,,,,,,,,,,,,,,,,,,,,,,,,,,,,,,,,,,,,,,,,,,,,,,,,,,,,,,,,,,,,,,,,,,,,,,,,,,,,,,,,,,,,,,,,,,,,,,,,,,,,,,,,,,,,,,,,,,,,,
,,663b638be7226d4e3fcc255f,2026-03-17_10h55.40.295,kallum_motion_pilot_GIST_update_2,2026.1.1,Win32,61.34969325,663b638be7226d4e3fcc255f,69b92ab4aef6dee357cd729a,69b92b5a139c8e40709ed6d2,0.0378,0.0378,1,30,192,30,1,fourtwo,,,,,,,,,,,,,,,,,,,,,,,,,,,,,,,,,,,,,,,,,,,,,,,,,,,,,,,,,,,,,,,,,,,,,,,,,,,,,,,,,,,,,,,,,,,,,,,,,,,,,,,,,,,,,,,,,,,,,,,,,,,,,,,,,,,,,,,,,
,,663b638be7226d4e3fcc255f,2026-03-17_10h55.40.295,kallum_motion_pilot_GIST_update_2,2026.1.1,Win32,61.34969325,663b638be7226d4e3fcc255f,69b92ab4aef6dee357cd729a,69b92b5a139c8e40709ed6d2,0.038,0.038,1,31,193,147,1,sixeight,,,,,,,,,,,,,,,,,,,,,,,,,,,,,,,,,,,,,,,,,,,,,,,,,,,,,,,,,,,,,,,,,,,,,,,,,,,,,,,,,,,,,,,,,,,,,,,,,,,,,,,,,,,,,,,,,,,,,,,,,,,,,,,,,,,,,,,,,
,,663b638be7226d4e3fcc255f,2026-03-17_10h55.40.295,kallum_motion_pilot_GIST_update_2,2026.1.1,Win32,61.34969325,663b638be7226d4e3fcc255f,69b92ab4aef6dee357cd729a,69b92b5a139c8e40709ed6d2,0.0381,0.0381,1,32,194,72,1,onetwo,,,,,,,,,,,,,,,,,,,,,,,,,,,,,,,,,,,,,,,,,,,,,,,,,,,,,,,,,,,,,,,,,,,,,,,,,,,,,,,,,,,,,,,,,,,,,,,,,,,,,,,,,,,,,,,,,,,,,,,,,,,,,,,,,,,,,,,,,
,,663b638be7226d4e3fcc255f,2026-03-17_10h55.40.295,kallum_motion_pilot_GIST_update_2,2026.1.1,Win32,61.34969325,663b638be7226d4e3fcc255f,69b92ab4aef6dee357cd729a,69b92b5a139c8e40709ed6d2,0.0383,0.0383,1,33,195,46,1,fourtwo,,,,,,,,,,,,,,,,,,,,,,,,,,,,,,,,,,,,,,,,,,,,,,,,,,,,,,,,,,,,,,,,,,,,,,,,,,,,,,,,,,,,,,,,,,,,,,,,,,,,,,,,,,,,,,,,,,,,,,,,,,,,,,,,,,,,,,,,,
,,663b638be7226d4e3fcc255f,2026-03-17_10h55.40.295,kallum_motion_pilot_GIST_update_2,2026.1.1,Win32,61.34969325,663b638be7226d4e3fcc255f,69b92ab4aef6dee357cd729a,69b92b5a139c8e40709ed6d2,0.0384,0.0384,1,34,196,143,1,eightseven,,,,,,,,,,,,,,,,,,,,,,,,,,,,,,,,,,,,,,,,,,,,,,,,,,,,,,,,,,,,,,,,,,,,,,,,,,,,,,,,,,,,,,,,,,,,,,,,,,,,,,,,,,,,,,,,,,,,,,,,,,,,,,,,,,,,,,,,,
,,663b638be7226d4e3fcc255f,2026-03-17_10h55.40.295,kallum_motion_pilot_GIST_update_2,2026.1.1,Win32,61.34969325,663b638be7226d4e3fcc255f,69b92ab4aef6dee357cd729a,69b92b5a139c8e40709ed6d2,0.0385,0.0385,1,35,197,159,1,eightseven,,,,,,,,,,,,,,,,,,,,,,,,,,,,,,,,,,,,,,,,,,,,,,,,,,,,,,,,,,,,,,,,,,,,,,,,,,,,,,,,,,,,,,,,,,,,,,,,,,,,,,,,,,,,,,,,,,,,,,,,,,,,,,,,,,,,,,,,,
,,663b638be7226d4e3fcc255f,2026-03-17_10h55.40.295,kallum_motion_pilot_GIST_update_2,2026.1.1,Win32,61.34969325,663b638be7226d4e3fcc255f,69b92ab4aef6dee357cd729a,69b92b5a139c8e40709ed6d2,0.0386,0.0386,1,36,198,21,1,threefour,,,,,,,,,,,,,,,,,,,,,,,,,,,,,,,,,,,,,,,,,,,,,,,,,,,,,,,,,,,,,,,,,,,,,,,,,,,,,,,,,,,,,,,,,,,,,,,,,,,,,,,,,,,,,,,,,,,,,,,,,,,,,,,,,,,,,,,,,
,,663b638be7226d4e3fcc255f,2026-03-17_10h55.40.295,kallum_motion_pilot_GIST_update_2,2026.1.1,Win32,61.34969325,663b638be7226d4e3fcc255f,69b92ab4aef6dee357cd729a,69b92b5a139c8e40709ed6d2,0.0386,0.0386,1,37,199,29,1,threefour,,,,,,,,,,,,,,,,,,,,,,,,,,,,,,,,,,,,,,,,,,,,,,,,,,,,,,,,,,,,,,,,,,,,,,,,,,,,,,,,,,,,,,,,,,,,,,,,,,,,,,,,,,,,,,,,,,,,,,,,,,,,,,,,,,,,,,,,,
,,663b638be7226d4e3fcc255f,2026-03-17_10h55.40.295,kallum_motion_pilot_GIST_update_2,2026.1.1,Win32,61.34969325,663b638be7226d4e3fcc255f,69b92ab4aef6dee357cd729a,69b92b5a139c8e40709ed6d2,0.0387,0.0387,1,38,200,158,1,eightsix,,,,,,,,,,,,,,,,,,,,,,,,,,,,,,,,,,,,,,,,,,,,,,,,,,,,,,,,,,,,,,,,,,,,,,,,,,,,,,,,,,,,,,,,,,,,,,,,,,,,,,,,,,,,,,,,,,,,,,,,,,,,,,,,,,,,,,,,,
,,663b638be7226d4e3fcc255f,2026-03-17_10h55.40.295,kallum_motion_pilot_GIST_update_2,2026.1.1,Win32,61.34969325,663b638be7226d4e3fcc255f,69b92ab4aef6dee357cd729a,69b92b5a139c8e40709ed6d2,0.0388,0.0388,1,39,201,142,1,eightsix,,,,,,,,,,,,,,,,,,,,,,,,,,,,,,,,,,,,,,,,,,,,,,,,,,,,,,,,,,,,,,,,,,,,,,,,,,,,,,,,,,,,,,,,,,,,,,,,,,,,,,,,,,,,,,,,,,,,,,,,,,,,,,,,,,,,,,,,,
,,663b638be7226d4e3fcc255f,2026-03-17_10h55.40.295,kallum_motion_pilot_GIST_update_2,2026.1.1,Win32,61.34969325,663b638be7226d4e3fcc255f,69b92ab4aef6dee357cd729a,69b92b5a139c8e40709ed6d2,0.039,0.039,1,40,202,131,1,sixeight,,,,,,,,,,,,,,,,,,,,,,,,,,,,,,,,,,,,,,,,,,,,,,,,,,,,,,,,,,,,,,,,,,,,,,,,,,,,,,,,,,,,,,,,,,,,,,,,,,,,,,,,,,,,,,,,,,,,,,,,,,,,,,,,,,,,,,,,,
,,663b638be7226d4e3fcc255f,2026-03-17_10h55.40.295,kallum_motion_pilot_GIST_update_2,2026.1.1,Win32,61.34969325,663b638be7226d4e3fcc255f,69b92ab4aef6dee357cd729a,69b92b5a139c8e40709ed6d2,0.0391,0.0391,1,41,203,48,1,onetwo,,,,,,,,,,,,,,,,,,,,,,,,,,,,,,,,,,,,,,,,,,,,,,,,,,,,,,,,,,,,,,,,,,,,,,,,,,,,,,,,,,,,,,,,,,,,,,,,,,,,,,,,,,,,,,,,,,,,,,,,,,,,,,,,,,,,,,,,,
,,663b638be7226d4e3fcc255f,2026-03-17_10h55.40.295,kallum_motion_pilot_GIST_update_2,2026.1.1,Win32,61.34969325,663b638be7226d4e3fcc255f,69b92ab4aef6dee357cd729a,69b92b5a139c8e40709ed6d2,0.0392,0.0392,1,42,204,35,1,twofour,,,,,,,,,,,,,,,,,,,,,,,,,,,,,,,,,,,,,,,,,,,,,,,,,,,,,,,,,,,,,,,,,,,,,,,,,,,,,,,,,,,,,,,,,,,,,,,,,,,,,,,,,,,,,,,,,,,,,,,,,,,,,,,,,,,,,,,,,
,,663b638be7226d4e3fcc255f,2026-03-17_10h55.40.295,kallum_motion_pilot_GIST_update_2,2026.1.1,Win32,61.34969325,663b638be7226d4e3fcc255f,69b92ab4aef6dee357cd729a,69b92b5a139c8e40709ed6d2,0.0393,0.0393,1,43,205,129,1,fiveseven,,,,,,,,,,,,,,,,,,,,,,,,,,,,,,,,,,,,,,,,,,,,,,,,,,,,,,,,,,,,,,,,,,,,,,,,,,,,,,,,,,,,,,,,,,,,,,,,,,,,,,,,,,,,,,,,,,,,,,,,,,,,,,,,,,,,,,,,,
,,663b638be7226d4e3fcc255f,2026-03-17_10h55.40.295,kallum_motion_pilot_GIST_update_2,2026.1.1,Win32,61.34969325,663b638be7226d4e3fcc255f,69b92ab4aef6dee357cd729a,69b92b5a139c8e40709ed6d2,0.0395,0.0395,1,44,206,95,1,eightseven,,,,,,,,,,,,,,,,,,,,,,,,,,,,,,,,,,,,,,,,,,,,,,,,,,,,,,,,,,,,,,,,,,,,,,,,,,,,,,,,,,,,,,,,,,,,,,,,,,,,,,,,,,,,,,,,,,,,,,,,,,,,,,,,,,,,,,,,,
,,663b638be7226d4e3fcc255f,2026-03-17_10h55.40.295,kallum_motion_pilot_GIST_update_2,2026.1.1,Win32,61.34969325,663b638be7226d4e3fcc255f,69b92ab4aef6dee357cd729a,69b92b5a139c8e40709ed6d2,0.0396,0.0396,1,45,207,31,1,fourthree,,,,,,,,,,,,,,,,,,,,,,,,,,,,,,,,,,,,,,,,,,,,,,,,,,,,,,,,,,,,,,,,,,,,,,,,,,,,,,,,,,,,,,,,,,,,,,,,,,,,,,,,,,,,,,,,,,,,,,,,,,,,,,,,,,,,,,,,,
,,663b638be7226d4e3fcc255f,2026-03-17_10h55.40.295,kallum_motion_pilot_GIST_update_2,2026.1.1,Win32,61.34969325,663b638be7226d4e3fcc255f,69b92ab4aef6dee357cd729a,69b92b5a139c8e40709ed6d2,0.0396,0.0396,1,46,208,160,1,fivesix,,,,,,,,,,,,,,,,,,,,,,,,,,,,,,,,,,,,,,,,,,,,,,,,,,,,,,,,,,,,,,,,,,,,,,,,,,,,,,,,,,,,,,,,,,,,,,,,,,,,,,,,,,,,,,,,,,,,,,,,,,,,,,,,,,,,,,,,,
,,663b638be7226d4e3fcc255f,2026-03-17_10h55.40.295,kallum_motion_pilot_GIST_update_2,2026.1.1,Win32,61.34969325,663b638be7226d4e3fcc255f,69b92ab4aef6dee357cd729a,69b92b5a139c8e40709ed6d2,0.0398,0.0398,1,47,209,63,1,fourthree,,,,,,,,,,,,,,,,,,,,,,,,,,,,,,,,,,,,,,,,,,,,,,,,,,,,,,,,,,,,,,,,,,,,,,,,,,,,,,,,,,,,,,,,,,,,,,,,,,,,,,,,,,,,,,,,,,,,,,,,,,,,,,,,,,,,,,,,,
,,663b638be7226d4e3fcc255f,2026-03-17_10h55.40.295,kallum_motion_pilot_GIST_update_2,2026.1.1,Win32,61.34969325,663b638be7226d4e3fcc255f,69b92ab4aef6dee357cd729a,69b92b5a139c8e40709ed6d2,0.0399,0.0399,1,48,210,137,1,fiveseven,,,,,,,,,,,,,,,,,,,,,,,,,,,,,,,,,,,,,,,,,,,,,,,,,,,,,,,,,,,,,,,,,,,,,,,,,,,,,,,,,,,,,,,,,,,,,,,,,,,,,,,,,,,,,,,,,,,,,,,,,,,,,,,,,,,,,,,,,
,,663b638be7226d4e3fcc255f,2026-03-17_10h55.40.295,kallum_motion_pilot_GIST_update_2,2026.1.1,Win32,61.34969325,663b638be7226d4e3fcc255f,69b92ab4aef6dee357cd729a,69b92b5a139c8e40709ed6d2,0.0401,0.0401,1,49,211,96,1,fivesix,,,,,,,,,,,,,,,,,,,,,,,,,,,,,,,,,,,,,,,,,,,,,,,,,,,,,,,,,,,,,,,,,,,,,,,,,,,,,,,,,,,,,,,,,,,,,,,,,,,,,,,,,,,,,,,,,,,,,,,,,,,,,,,,,,,,,,,,,
,,663b638be7226d4e3fcc255f,2026-03-17_10h55.40.295,kallum_motion_pilot_GIST_update_2,2026.1.1,Win32,61.34969325,663b638be7226d4e3fcc255f,69b92ab4aef6dee357cd729a,69b92b5a139c8e40709ed6d2,0.0402,0.0402,1,50,212,12,1,threeone,,,,,,,,,,,,,,,,,,,,,,,,,,,,,,,,,,,,,,,,,,,,,,,,,,,,,,,,,,,,,,,,,,,,,,,,,,,,,,,,,,,,,,,,,,,,,,,,,,,,,,,,,,,,,,,,,,,,,,,,,,,,,,,,,,,,,,,,,
,,663b638be7226d4e3fcc255f,2026-03-17_10h55.40.295,kallum_motion_pilot_GIST_update_2,2026.1.1,Win32,61.34969325,663b638be7226d4e3fcc255f,69b92ab4aef6dee357cd729a,69b92b5a139c8e40709ed6d2,0.0403,0.0403,1,51,213,7,1,fourthree,,,,,,,,,,,,,,,,,,,,,,,,,,,,,,,,,,,,,,,,,,,,,,,,,,,,,,,,,,,,,,,,,,,,,,,,,,,,,,,,,,,,,,,,,,,,,,,,,,,,,,,,,,,,,,,,,,,,,,,,,,,,,,,,,,,,,,,,,
,,663b638be7226d4e3fcc255f,2026-03-17_10h55.40.295,kallum_motion_pilot_GIST_update_2,2026.1.1,Win32,61.34969325,663b638be7226d4e3fcc255f,69b92ab4aef6dee357cd729a,69b92b5a139c8e40709ed6d2,0.0404,0.0404,1,52,214,125,1,seveneight,,,,,,,,,,,,,,,,,,,,,,,,,,,,,,,,,,,,,,,,,,,,,,,,,,,,,,,,,,,,,,,,,,,,,,,,,,,,,,,,,,,,,,,,,,,,,,,,,,,,,,,,,,,,,,,,,,,,,,,,,,,,,,,,,,,,,,,,,
,,663b638be7226d4e3fcc255f,2026-03-17_10h55.40.295,kallum_motion_pilot_GIST_update_2,2026.1.1,Win32,61.34969325,663b638be7226d4e3fcc255f,69b92ab4aef6dee357cd729a,69b92b5a139c8e40709ed6d2,0.0405,0.0405,1,53,215,126,1,eightsix,,,,,,,,,,,,,,,,,,,,,,,,,,,,,,,,,,,,,,,,,,,,,,,,,,,,,,,,,,,,,,,,,,,,,,,,,,,,,,,,,,,,,,,,,,,,,,,,,,,,,,,,,,,,,,,,,,,,,,,,,,,,,,,,,,,,,,,,,
,,663b638be7226d4e3fcc255f,2026-03-17_10h55.40.295,kallum_motion_pilot_GIST_update_2,2026.1.1,Win32,61.34969325,663b638be7226d4e3fcc255f,69b92ab4aef6dee357cd729a,69b92b5a139c8e40709ed6d2,0.0406,0.0406,1,54,216,28,1,threeone,,,,,,,,,,,,,,,,,,,,,,,,,,,,,,,,,,,,,,,,,,,,,,,,,,,,,,,,,,,,,,,,,,,,,,,,,,,,,,,,,,,,,,,,,,,,,,,,,,,,,,,,,,,,,,,,,,,,,,,,,,,,,,,,,,,,,,,,,
,,663b638be7226d4e3fcc255f,2026-03-17_10h55.40.295,kallum_motion_pilot_GIST_update_2,2026.1.1,Win32,61.34969325,663b638be7226d4e3fcc255f,69b92ab4aef6dee357cd729a,69b92b5a139c8e40709ed6d2,0.0407,0.0407,1,55,217,117,1,seveneight,,,,,,,,,,,,,,,,,,,,,,,,,,,,,,,,,,,,,,,,,,,,,,,,,,,,,,,,,,,,,,,,,,,,,,,,,,,,,,,,,,,,,,,,,,,,,,,,,,,,,,,,,,,,,,,,,,,,,,,,,,,,,,,,,,,,,,,,,
,,663b638be7226d4e3fcc255f,2026-03-17_10h55.40.295,kallum_motion_pilot_GIST_update_2,2026.1.1,Win32,61.34969325,663b638be7226d4e3fcc255f,69b92ab4aef6dee357cd729a,69b92b5a139c8e40709ed6d2,0.0408,0.0408,1,56,218,82,1,sixfive,,,,,,,,,,,,,,,,,,,,,,,,,,,,,,,,,,,,,,,,,,,,,,,,,,,,,,,,,,,,,,,,,,,,,,,,,,,,,,,,,,,,,,,,,,,,,,,,,,,,,,,,,,,,,,,,,,,,,,,,,,,,,,,,,,,,,,,,,
,,663b638be7226d4e3fcc255f,2026-03-17_10h55.40.295,kallum_motion_pilot_GIST_update_2,2026.1.1,Win32,61.34969325,663b638be7226d4e3fcc255f,69b92ab4aef6dee357cd729a,69b92b5a139c8e40709ed6d2,0.0409,0.0409,1,57,219,32,1,onetwo,,,,,,,,,,,,,,,,,,,,,,,,,,,,,,,,,,,,,,,,,,,,,,,,,,,,,,,,,,,,,,,,,,,,,,,,,,,,,,,,,,,,,,,,,,,,,,,,,,,,,,,,,,,,,,,,,,,,,,,,,,,,,,,,,,,,,,,,,
,,663b638be7226d4e3fcc255f,2026-03-17_10h55.40.295,kallum_motion_pilot_GIST_update_2,2026.1.1,Win32,61.34969325,663b638be7226d4e3fcc255f,69b92ab4aef6dee357cd729a,69b92b5a139c8e40709ed6d2,0.041,0.041,1,58,220,149,1,seveneight,,,,,,,,,,,,,,,,,,,,,,,,,,,,,,,,,,,,,,,,,,,,,,,,,,,,,,,,,,,,,,,,,,,,,,,,,,,,,,,,,,,,,,,,,,,,,,,,,,,,,,,,,,,,,,,,,,,,,,,,,,,,,,,,,,,,,,,,,
,,663b638be7226d4e3fcc255f,2026-03-17_10h55.40.295,kallum_motion_pilot_GIST_update_2,2026.1.1,Win32,61.34969325,663b638be7226d4e3fcc255f,69b92ab4aef6dee357cd729a,69b92b5a139c8e40709ed6d2,0.0411,0.0411,1,59,221,91,1,sixeight,,,,,,,,,,,,,,,,,,,,,,,,,,,,,,,,,,,,,,,,,,,,,,,,,,,,,,,,,,,,,,,,,,,,,,,,,,,,,,,,,,,,,,,,,,,,,,,,,,,,,,,,,,,,,,,,,,,,,,,,,,,,,,,,,,,,,,,,,
,,663b638be7226d4e3fcc255f,2026-03-17_10h55.40.295,kallum_motion_pilot_GIST_update_2,2026.1.1,Win32,61.34969325,663b638be7226d4e3fcc255f,69b92ab4aef6dee357cd729a,69b92b5a139c8e40709ed6d2,0.0413,0.0413,1,60,222,119,1,eightseven,,,,,,,,,,,,,,,,,,,,,,,,,,,,,,,,,,,,,,,,,,,,,,,,,,,,,,,,,,,,,,,,,,,,,,,,,,,,,,,,,,,,,,,,,,,,,,,,,,,,,,,,,,,,,,,,,,,,,,,,,,,,,,,,,,,,,,,,,
,,663b638be7226d4e3fcc255f,2026-03-17_10h55.40.295,kallum_motion_pilot_GIST_update_2,2026.1.1,Win32,61.34969325,663b638be7226d4e3fcc255f,69b92ab4aef6dee357cd729a,69b92b5a139c8e40709ed6d2,0.0414,0.0414,1,61,223,83,1,sixeight,,,,,,,,,,,,,,,,,,,,,,,,,,,,,,,,,,,,,,,,,,,,,,,,,,,,,,,,,,,,,,,,,,,,,,,,,,,,,,,,,,,,,,,,,,,,,,,,,,,,,,,,,,,,,,,,,,,,,,,,,,,,,,,,,,,,,,,,,
,,663b638be7226d4e3fcc255f,2026-03-17_10h55.40.295,kallum_motion_pilot_GIST_update_2,2026.1.1,Win32,61.34969325,663b638be7226d4e3fcc255f,69b92ab4aef6dee357cd729a,69b92b5a139c8e40709ed6d2,0.0415,0.0415,1,62,224,25,1,onethree,,,,,,,,,,,,,,,,,,,,,,,,,,,,,,,,,,,,,,,,,,,,,,,,,,,,,,,,,,,,,,,,,,,,,,,,,,,,,,,,,,,,,,,,,,,,,,,,,,,,,,,,,,,,,,,,,,,,,,,,,,,,,,,,,,,,,,,,,
,,663b638be7226d4e3fcc255f,2026-03-17_10h55.40.295,kallum_motion_pilot_GIST_update_2,2026.1.1,Win32,61.34969325,663b638be7226d4e3fcc255f,69b92ab4aef6dee357cd729a,69b92b5a139c8e40709ed6d2,0.0416,0.0416,1,63,225,122,1,sixfive,,,,,,,,,,,,,,,,,,,,,,,,,,,,,,,,,,,,,,,,,,,,,,,,,,,,,,,,,,,,,,,,,,,,,,,,,,,,,,,,,,,,,,,,,,,,,,,,,,,,,,,,,,,,,,,,,,,,,,,,,,,,,,,,,,,,,,,,,
,,663b638be7226d4e3fcc255f,2026-03-17_10h55.40.295,kallum_motion_pilot_GIST_update_2,2026.1.1,Win32,61.34969325,663b638be7226d4e3fcc255f,69b92ab4aef6dee357cd729a,69b92b5a139c8e40709ed6d2,0.0417,0.0417,1,64,226,110,1,eightsix,,,,,,,,,,,,,,,,,,,,,,,,,,,,,,,,,,,,,,,,,,,,,,,,,,,,,,,,,,,,,,,,,,,,,,,,,,,,,,,,,,,,,,,,,,,,,,,,,,,,,,,,,,,,,,,,,,,,,,,,,,,,,,,,,,,,,,,,,
,,663b638be7226d4e3fcc255f,2026-03-17_10h55.40.295,kallum_motion_pilot_GIST_update_2,2026.1.1,Win32,61.34969325,663b638be7226d4e3fcc255f,69b92ab4aef6dee357cd729a,69b92b5a139c8e40709ed6d2,0.0418,0.0418,1,65,227,132,1,sevenfive,,,,,,,,,,,,,,,,,,,,,,,,,,,,,,,,,,,,,,,,,,,,,,,,,,,,,,,,,,,,,,,,,,,,,,,,,,,,,,,,,,,,,,,,,,,,,,,,,,,,,,,,,,,,,,,,,,,,,,,,,,,,,,,,,,,,,,,,,
,,663b638be7226d4e3fcc255f,2026-03-17_10h55.40.295,kallum_motion_pilot_GIST_update_2,2026.1.1,Win32,61.34969325,663b638be7226d4e3fcc255f,69b92ab4aef6dee357cd729a,69b92b5a139c8e40709ed6d2,0.0419,0.0419,1,66,228,26,1,twoone,,,,,,,,,,,,,,,,,,,,,,,,,,,,,,,,,,,,,,,,,,,,,,,,,,,,,,,,,,,,,,,,,,,,,,,,,,,,,,,,,,,,,,,,,,,,,,,,,,,,,,,,,,,,,,,,,,,,,,,,,,,,,,,,,,,,,,,,,
,,663b638be7226d4e3fcc255f,2026-03-17_10h55.40.295,kallum_motion_pilot_GIST_update_2,2026.1.1,Win32,61.34969325,663b638be7226d4e3fcc255f,69b92ab4aef6dee357cd729a,69b92b5a139c8e40709ed6d2,0.042,0.042,1,67,229,102,1,eightsix,,,,,,,,,,,,,,,,,,,,,,,,,,,,,,,,,,,,,,,,,,,,,,,,,,,,,,,,,,,,,,,,,,,,,,,,,,,,,,,,,,,,,,,,,,,,,,,,,,,,,,,,,,,,,,,,,,,,,,,,,,,,,,,,,,,,,,,,,
,,663b638be7226d4e3fcc255f,2026-03-17_10h55.40.295,kallum_motion_pilot_GIST_update_2,2026.1.1,Win32,61.34969325,663b638be7226d4e3fcc255f,69b92ab4aef6dee357cd729a,69b92b5a139c8e40709ed6d2,0.0422,0.0422,1,68,230,19,1,twofour,,,,,,,,,,,,,,,,,,,,,,,,,,,,,,,,,,,,,,,,,,,,,,,,,,,,,,,,,,,,,,,,,,,,,,,,,,,,,,,,,,,,,,,,,,,,,,,,,,,,,,,,,,,,,,,,,,,,,,,,,,,,,,,,,,,,,,,,,
,,663b638be7226d4e3fcc255f,2026-03-17_10h55.40.295,kallum_motion_pilot_GIST_update_2,2026.1.1,Win32,61.34969325,663b638be7226d4e3fcc255f,69b92ab4aef6dee357cd729a,69b92b5a139c8e40709ed6d2,0.0422,0.0422,1,69,231,112,1,fivesix,,,,,,,,,,,,,,,,,,,,,,,,,,,,,,,,,,,,,,,,,,,,,,,,,,,,,,,,,,,,,,,,,,,,,,,,,,,,,,,,,,,,,,,,,,,,,,,,,,,,,,,,,,,,,,,,,,,,,,,,,,,,,,,,,,,,,,,,,
,,663b638be7226d4e3fcc255f,2026-03-17_10h55.40.295,kallum_motion_pilot_GIST_update_2,2026.1.1,Win32,61.34969325,663b638be7226d4e3fcc255f,69b92ab4aef6dee357cd729a,69b92b5a139c8e40709ed6d2,0.0424,0.0424,1,70,232,20,1,threeone,,,,,,,,,,,,,,,,,,,,,,,,,,,,,,,,,,,,,,,,,,,,,,,,,,,,,,,,,,,,,,,,,,,,,,,,,,,,,,,,,,,,,,,,,,,,,,,,,,,,,,,,,,,,,,,,,,,,,,,,,,,,,,,,,,,,,,,,,
,,663b638be7226d4e3fcc255f,2026-03-17_10h55.40.295,kallum_motion_pilot_GIST_update_2,2026.1.1,Win32,61.34969325,663b638be7226d4e3fcc255f,69b92ab4aef6dee357cd729a,69b92b5a139c8e40709ed6d2,0.0425,0.0425,1,71,233,155,1,sixeight,,,,,,,,,,,,,,,,,,,,,,,,,,,,,,,,,,,,,,,,,,,,,,,,,,,,,,,,,,,,,,,,,,,,,,,,,,,,,,,,,,,,,,,,,,,,,,,,,,,,,,,,,,,,,,,,,,,,,,,,,,,,,,,,,,,,,,,,,
,,663b638be7226d4e3fcc255f,2026-03-17_10h55.40.295,kallum_motion_pilot_GIST_update_2,2026.1.1,Win32,61.34969325,663b638be7226d4e3fcc255f,69b92ab4aef6dee357cd729a,69b92b5a139c8e40709ed6d2,0.0426,0.0426,1,72,234,55,1,fourthree,,,,,,,,,,,,,,,,,,,,,,,,,,,,,,,,,,,,,,,,,,,,,,,,,,,,,,,,,,,,,,,,,,,,,,,,,,,,,,,,,,,,,,,,,,,,,,,,,,,,,,,,,,,,,,,,,,,,,,,,,,,,,,,,,,,,,,,,,
,,663b638be7226d4e3fcc255f,2026-03-17_10h55.40.295,kallum_motion_pilot_GIST_update_2,2026.1.1,Win32,61.34969325,663b638be7226d4e3fcc255f,69b92ab4aef6dee357cd729a,69b92b5a139c8e40709ed6d2,0.0427,0.0427,1,73,235,67,1,twofour,,,,,,,,,,,,,,,,,,,,,,,,,,,,,,,,,,,,,,,,,,,,,,,,,,,,,,,,,,,,,,,,,,,,,,,,,,,,,,,,,,,,,,,,,,,,,,,,,,,,,,,,,,,,,,,,,,,,,,,,,,,,,,,,,,,,,,,,,
,,663b638be7226d4e3fcc255f,2026-03-17_10h55.40.295,kallum_motion_pilot_GIST_update_2,2026.1.1,Win32,61.34969325,663b638be7226d4e3fcc255f,69b92ab4aef6dee357cd729a,69b92b5a139c8e40709ed6d2,0.0428,0.0428,1,74,236,80,1,fivesix,,,,,,,,,,,,,,,,,,,,,,,,,,,,,,,,,,,,,,,,,,,,,,,,,,,,,,,,,,,,,,,,,,,,,,,,,,,,,,,,,,,,,,,,,,,,,,,,,,,,,,,,,,,,,,,,,,,,,,,,,,,,,,,,,,,,,,,,,
,,663b638be7226d4e3fcc255f,2026-03-17_10h55.40.295,kallum_motion_pilot_GIST_update_2,2026.1.1,Win32,61.34969325,663b638be7226d4e3fcc255f,69b92ab4aef6dee357cd729a,69b92b5a139c8e40709ed6d2,0.0429,0.0429,1,75,237,40,1,onetwo,,,,,,,,,,,,,,,,,,,,,,,,,,,,,,,,,,,,,,,,,,,,,,,,,,,,,,,,,,,,,,,,,,,,,,,,,,,,,,,,,,,,,,,,,,,,,,,,,,,,,,,,,,,,,,,,,,,,,,,,,,,,,,,,,,,,,,,,,
,,663b638be7226d4e3fcc255f,2026-03-17_10h55.40.295,kallum_motion_pilot_GIST_update_2,2026.1.1,Win32,61.34969325,663b638be7226d4e3fcc255f,69b92ab4aef6dee357cd729a,69b92b5a139c8e40709ed6d2,0.0431,0.0431,1,76,238,146,1,sixfive,,,,,,,,,,,,,,,,,,,,,,,,,,,,,,,,,,,,,,,,,,,,,,,,,,,,,,,,,,,,,,,,,,,,,,,,,,,,,,,,,,,,,,,,,,,,,,,,,,,,,,,,,,,,,,,,,,,,,,,,,,,,,,,,,,,,,,,,,
,,663b638be7226d4e3fcc255f,2026-03-17_10h55.40.295,kallum_motion_pilot_GIST_update_2,2026.1.1,Win32,61.34969325,663b638be7226d4e3fcc255f,69b92ab4aef6dee357cd729a,69b92b5a139c8e40709ed6d2,0.0431,0.0431,1,77,239,123,1,sixeight,,,,,,,,,,,,,,,,,,,,,,,,,,,,,,,,,,,,,,,,,,,,,,,,,,,,,,,,,,,,,,,,,,,,,,,,,,,,,,,,,,,,,,,,,,,,,,,,,,,,,,,,,,,,,,,,,,,,,,,,,,,,,,,,,,,,,,,,,
,,663b638be7226d4e3fcc255f,2026-03-17_10h55.40.295,kallum_motion_pilot_GIST_update_2,2026.1.1,Win32,61.34969325,663b638be7226d4e3fcc255f,69b92ab4aef6dee357cd729a,69b92b5a139c8e40709ed6d2,0.0432,0.0432,1,78,240,140,1,sevenfive,,,,,,,,,,,,,,,,,,,,,,,,,,,,,,,,,,,,,,,,,,,,,,,,,,,,,,,,,,,,,,,,,,,,,,,,,,,,,,,,,,,,,,,,,,,,,,,,,,,,,,,,,,,,,,,,,,,,,,,,,,,,,,,,,,,,,,,,,
,,663b638be7226d4e3fcc255f,2026-03-17_10h55.40.295,kallum_motion_pilot_GIST_update_2,2026.1.1,Win32,61.34969325,663b638be7226d4e3fcc255f,69b92ab4aef6dee357cd729a,69b92b5a139c8e40709ed6d2,0.0433,0.0433,1,79,241,13,1,threefour,,,,,,,,,,,,,,,,,,,,,,,,,,,,,,,,,,,,,,,,,,,,,,,,,,,,,,,,,,,,,,,,,,,,,,,,,,,,,,,,,,,,,,,,,,,,,,,,,,,,,,,,,,,,,,,,,,,,,,,,,,,,,,,,,,,,,,,,,
,,663b638be7226d4e3fcc255f,2026-03-17_10h55.40.295,kallum_motion_pilot_GIST_update_2,2026.1.1,Win32,61.34969325,663b638be7226d4e3fcc255f,69b92ab4aef6dee357cd729a,69b92b5a139c8e40709ed6d2,0.0434,0.0434,1,80,242,1,1,onethree,,,,,,,,,,,,,,,,,,,,,,,,,,,,,,,,,,,,,,,,,,,,,,,,,,,,,,,,,,,,,,,,,,,,,,,,,,,,,,,,,,,,,,,,,,,,,,,,,,,,,,,,,,,,,,,,,,,,,,,,,,,,,,,,,,,,,,,,,
,,663b638be7226d4e3fcc255f,2026-03-17_10h55.40.295,kallum_motion_pilot_GIST_update_2,2026.1.1,Win32,61.34969325,663b638be7226d4e3fcc255f,69b92ab4aef6dee357cd729a,69b92b5a139c8e40709ed6d2,0.0436,0.0436,1,81,243,152,1,fivesix,,,,,,,,,,,,,,,,,,,,,,,,,,,,,,,,,,,,,,,,,,,,,,,,,,,,,,,,,,,,,,,,,,,,,,,,,,,,,,,,,,,,,,,,,,,,,,,,,,,,,,,,,,,,,,,,,,,,,,,,,,,,,,,,,,,,,,,,,
,,663b638be7226d4e3fcc255f,2026-03-17_10h55.40.295,kallum_motion_pilot_GIST_update_2,2026.1.1,Win32,61.34969325,663b638be7226d4e3fcc255f,69b92ab4aef6dee357cd729a,69b92b5a139c8e40709ed6d2,0.0437,0.0437,1,82,244,50,1,twoone,,,,,,,,,,,,,,,,,,,,,,,,,,,,,,,,,,,,,,,,,,,,,,,,,,,,,,,,,,,,,,,,,,,,,,,,,,,,,,,,,,,,,,,,,,,,,,,,,,,,,,,,,,,,,,,,,,,,,,,,,,,,,,,,,,,,,,,,,
,,663b638be7226d4e3fcc255f,2026-03-17_10h55.40.295,kallum_motion_pilot_GIST_update_2,2026.1.1,Win32,61.34969325,663b638be7226d4e3fcc255f,69b92ab4aef6dee357cd729a,69b92b5a139c8e40709ed6d2,0.0438,0.0438,1,83,245,99,1,sixeight,,,,,,,,,,,,,,,,,,,,,,,,,,,,,,,,,,,,,,,,,,,,,,,,,,,,,,,,,,,,,,,,,,,,,,,,,,,,,,,,,,,,,,,,,,,,,,,,,,,,,,,,,,,,,,,,,,,,,,,,,,,,,,,,,,,,,,,,,
,,663b638be7226d4e3fcc255f,2026-03-17_10h55.40.295,kallum_motion_pilot_GIST_update_2,2026.1.1,Win32,61.34969325,663b638be7226d4e3fcc255f,69b92ab4aef6dee357cd729a,69b92b5a139c8e40709ed6d2,0.0439,0.0439,1,84,246,135,1,eightseven,,,,,,,,,,,,,,,,,,,,,,,,,,,,,,,,,,,,,,,,,,,,,,,,,,,,,,,,,,,,,,,,,,,,,,,,,,,,,,,,,,,,,,,,,,,,,,,,,,,,,,,,,,,,,,,,,,,,,,,,,,,,,,,,,,,,,,,,,
,,663b638be7226d4e3fcc255f,2026-03-17_10h55.40.295,kallum_motion_pilot_GIST_update_2,2026.1.1,Win32,61.34969325,663b638be7226d4e3fcc255f,69b92ab4aef6dee357cd729a,69b92b5a139c8e40709ed6d2,0.044,0.044,1,85,247,53,1,threefour,,,,,,,,,,,,,,,,,,,,,,,,,,,,,,,,,,,,,,,,,,,,,,,,,,,,,,,,,,,,,,,,,,,,,,,,,,,,,,,,,,,,,,,,,,,,,,,,,,,,,,,,,,,,,,,,,,,,,,,,,,,,,,,,,,,,,,,,,
,,663b638be7226d4e3fcc255f,2026-03-17_10h55.40.295,kallum_motion_pilot_GIST_update_2,2026.1.1,Win32,61.34969325,663b638be7226d4e3fcc255f,69b92ab4aef6dee357cd729a,69b92b5a139c8e40709ed6d2,0.0441,0.0441,1,86,248,68,1,threeone,,,,,,,,,,,,,,,,,,,,,,,,,,,,,,,,,,,,,,,,,,,,,,,,,,,,,,,,,,,,,,,,,,,,,,,,,,,,,,,,,,,,,,,,,,,,,,,,,,,,,,,,,,,,,,,,,,,,,,,,,,,,,,,,,,,,,,,,,
,,663b638be7226d4e3fcc255f,2026-03-17_10h55.40.295,kallum_motion_pilot_GIST_update_2,2026.1.1,Win32,61.34969325,663b638be7226d4e3fcc255f,69b92ab4aef6dee357cd729a,69b92b5a139c8e40709ed6d2,0.0442,0.0442,1,87,249,133,1,seveneight,,,,,,,,,,,,,,,,,,,,,,,,,,,,,,,,,,,,,,,,,,,,,,,,,,,,,,,,,,,,,,,,,,,,,,,,,,,,,,,,,,,,,,,,,,,,,,,,,,,,,,,,,,,,,,,,,,,,,,,,,,,,,,,,,,,,,,,,,
,,663b638be7226d4e3fcc255f,2026-03-17_10h55.40.295,kallum_motion_pilot_GIST_update_2,2026.1.1,Win32,61.34969325,663b638be7226d4e3fcc255f,69b92ab4aef6dee357cd729a,69b92b5a139c8e40709ed6d2,0.0444,0.0444,1,88,250,120,1,fivesix,,,,,,,,,,,,,,,,,,,,,,,,,,,,,,,,,,,,,,,,,,,,,,,,,,,,,,,,,,,,,,,,,,,,,,,,,,,,,,,,,,,,,,,,,,,,,,,,,,,,,,,,,,,,,,,,,,,,,,,,,,,,,,,,,,,,,,,,,
,,663b638be7226d4e3fcc255f,2026-03-17_10h55.40.295,kallum_motion_pilot_GIST_update_2,2026.1.1,Win32,61.34969325,663b638be7226d4e3fcc255f,69b92ab4aef6dee357cd729a,69b92b5a139c8e40709ed6d2,0.0444,0.0445,1,89,251,4,1,threeone,,,,,,,,,,,,,,,,,,,,,,,,,,,,,,,,,,,,,,,,,,,,,,,,,,,,,,,,,,,,,,,,,,,,,,,,,,,,,,,,,,,,,,,,,,,,,,,,,,,,,,,,,,,,,,,,,,,,,,,,,,,,,,,,,,,,,,,,,
,,663b638be7226d4e3fcc255f,2026-03-17_10h55.40.295,kallum_motion_pilot_GIST_update_2,2026.1.1,Win32,61.34969325,663b638be7226d4e3fcc255f,69b92ab4aef6dee357cd729a,69b92b5a139c8e40709ed6d2,0.0446,0.0446,1,90,252,104,1,fivesix,,,,,,,,,,,,,,,,,,,,,,,,,,,,,,,,,,,,,,,,,,,,,,,,,,,,,,,,,,,,,,,,,,,,,,,,,,,,,,,,,,,,,,,,,,,,,,,,,,,,,,,,,,,,,,,,,,,,,,,,,,,,,,,,,,,,,,,,,
,,663b638be7226d4e3fcc255f,2026-03-17_10h55.40.295,kallum_motion_pilot_GIST_update_2,2026.1.1,Win32,61.34969325,663b638be7226d4e3fcc255f,69b92ab4aef6dee357cd729a,69b92b5a139c8e40709ed6d2,0.0446,0.0446,1,91,253,161,1,fiveseven,,,,,,,,,,,,,,,,,,,,,,,,,,,,,,,,,,,,,,,,,,,,,,,,,,,,,,,,,,,,,,,,,,,,,,,,,,,,,,,,,,,,,,,,,,,,,,,,,,,,,,,,,,,,,,,,,,,,,,,,,,,,,,,,,,,,,,,,,
,,663b638be7226d4e3fcc255f,2026-03-17_10h55.40.295,kallum_motion_pilot_GIST_update_2,2026.1.1,Win32,61.34969325,663b638be7226d4e3fcc255f,69b92ab4aef6dee357cd729a,69b92b5a139c8e40709ed6d2,0.0448,0.0448,1,92,254,11,1,twofour,,,,,,,,,,,,,,,,,,,,,,,,,,,,,,,,,,,,,,,,,,,,,,,,,,,,,,,,,,,,,,,,,,,,,,,,,,,,,,,,,,,,,,,,,,,,,,,,,,,,,,,,,,,,,,,,,,,,,,,,,,,,,,,,,,,,,,,,,
,,663b638be7226d4e3fcc255f,2026-03-17_10h55.40.295,kallum_motion_pilot_GIST_update_2,2026.1.1,Win32,61.34969325,663b638be7226d4e3fcc255f,69b92ab4aef6dee357cd729a,69b92b5a139c8e40709ed6d2,0.0449,0.0449,1,93,255,62,1,fourtwo,,,,,,,,,,,,,,,,,,,,,,,,,,,,,,,,,,,,,,,,,,,,,,,,,,,,,,,,,,,,,,,,,,,,,,,,,,,,,,,,,,,,,,,,,,,,,,,,,,,,,,,,,,,,,,,,,,,,,,,,,,,,,,,,,,,,,,,,,
,,663b638be7226d4e3fcc255f,2026-03-17_10h55.40.295,kallum_motion_pilot_GIST_update_2,2026.1.1,Win32,61.34969325,663b638be7226d4e3fcc255f,69b92ab4aef6dee357cd729a,69b92b5a139c8e40709ed6d2,0.0451,0.0451,1,94,256,85,1,seveneight,,,,,,,,,,,,,,,,,,,,,,,,,,,,,,,,,,,,,,,,,,,,,,,,,,,,,,,,,,,,,,,,,,,,,,,,,,,,,,,,,,,,,,,,,,,,,,,,,,,,,,,,,,,,,,,,,,,,,,,,,,,,,,,,,,,,,,,,,
,,663b638be7226d4e3fcc255f,2026-03-17_10h55.40.295,kallum_motion_pilot_GIST_update_2,2026.1.1,Win32,61.34969325,663b638be7226d4e3fcc255f,69b92ab4aef6dee357cd729a,69b92b5a139c8e40709ed6d2,0.0452,0.0452,1,95,257,76,1,threeone,,,,,,,,,,,,,,,,,,,,,,,,,,,,,,,,,,,,,,,,,,,,,,,,,,,,,,,,,,,,,,,,,,,,,,,,,,,,,,,,,,,,,,,,,,,,,,,,,,,,,,,,,,,,,,,,,,,,,,,,,,,,,,,,,,,,,,,,,
,,663b638be7226d4e3fcc255f,2026-03-17_10h55.40.295,kallum_motion_pilot_GIST_update_2,2026.1.1,Win32,61.34969325,663b638be7226d4e3fcc255f,69b92ab4aef6dee357cd729a,69b92b5a139c8e40709ed6d2,0.0453,0.0453,1,96,258,81,1,fiveseven,,,,,,,,,,,,,,,,,,,,,,,,,,,,,,,,,,,,,,,,,,,,,,,,,,,,,,,,,,,,,,,,,,,,,,,,,,,,,,,,,,,,,,,,,,,,,,,,,,,,,,,,,,,,,,,,,,,,,,,,,,,,,,,,,,,,,,,,,
,,663b638be7226d4e3fcc255f,2026-03-17_10h55.40.295,kallum_motion_pilot_GIST_update_2,2026.1.1,Win32,61.34969325,663b638be7226d4e3fcc255f,69b92ab4aef6dee357cd729a,69b92b5a139c8e40709ed6d2,0.0455,0.0455,1,97,259,136,1,fivesix,,,,,,,,,,,,,,,,,,,,,,,,,,,,,,,,,,,,,,,,,,,,,,,,,,,,,,,,,,,,,,,,,,,,,,,,,,,,,,,,,,,,,,,,,,,,,,,,,,,,,,,,,,,,,,,,,,,,,,,,,,,,,,,,,,,,,,,,,
,,663b638be7226d4e3fcc255f,2026-03-17_10h55.40.295,kallum_motion_pilot_GIST_update_2,2026.1.1,Win32,61.34969325,663b638be7226d4e3fcc255f,69b92ab4aef6dee357cd729a,69b92b5a139c8e40709ed6d2,0.0455,0.0455,1,98,260,77,1,threefour,,,,,,,,,,,,,,,,,,,,,,,,,,,,,,,,,,,,,,,,,,,,,,,,,,,,,,,,,,,,,,,,,,,,,,,,,,,,,,,,,,,,,,,,,,,,,,,,,,,,,,,,,,,,,,,,,,,,,,,,,,,,,,,,,,,,,,,,,
,,663b638be7226d4e3fcc255f,2026-03-17_10h55.40.295,kallum_motion_pilot_GIST_update_2,2026.1.1,Win32,61.34969325,663b638be7226d4e3fcc255f,69b92ab4aef6dee357cd729a,69b92b5a139c8e40709ed6d2,0.0456,0.0456,1,99,261,0,1,onetwo,,,,,,,,,,,,,,,,,,,,,,,,,,,,,,,,,,,,,,,,,,,,,,,,,,,,,,,,,,,,,,,,,,,,,,,,,,,,,,,,,,,,,,,,,,,,,,,,,,,,,,,,,,,,,,,,,,,,,,,,,,,,,,,,,,,,,,,,,
,,663b638be7226d4e3fcc255f,2026-03-17_10h55.40.295,kallum_motion_pilot_GIST_update_2,2026.1.1,Win32,61.34969325,663b638be7226d4e3fcc255f,69b92ab4aef6dee357cd729a,69b92b5a139c8e40709ed6d2,0.0457,0.0457,1,100,262,42,1,twoone,,,,,,,,,,,,,,,,,,,,,,,,,,,,,,,,,,,,,,,,,,,,,,,,,,,,,,,,,,,,,,,,,,,,,,,,,,,,,,,,,,,,,,,,,,,,,,,,,,,,,,,,,,,,,,,,,,,,,,,,,,,,,,,,,,,,,,,,,
,,663b638be7226d4e3fcc255f,2026-03-17_10h55.40.295,kallum_motion_pilot_GIST_update_2,2026.1.1,Win32,61.34969325,663b638be7226d4e3fcc255f,69b92ab4aef6dee357cd729a,69b92b5a139c8e40709ed6d2,0.046,0.046,1,101,263,8,1,onetwo,,,,,,,,,,,,,,,,,,,,,,,,,,,,,,,,,,,,,,,,,,,,,,,,,,,,,,,,,,,,,,,,,,,,,,,,,,,,,,,,,,,,,,,,,,,,,,,,,,,,,,,,,,,,,,,,,,,,,,,,,,,,,,,,,,,,,,,,,
,,663b638be7226d4e3fcc255f,2026-03-17_10h55.40.295,kallum_motion_pilot_GIST_update_2,2026.1.1,Win32,61.34969325,663b638be7226d4e3fcc255f,69b92ab4aef6dee357cd729a,69b92b5a139c8e40709ed6d2,0.0461,0.0461,1,102,264,22,1,fourtwo,,,,,,,,,,,,,,,,,,,,,,,,,,,,,,,,,,,,,,,,,,,,,,,,,,,,,,,,,,,,,,,,,,,,,,,,,,,,,,,,,,,,,,,,,,,,,,,,,,,,,,,,,,,,,,,,,,,,,,,,,,,,,,,,,,,,,,,,,
,,663b638be7226d4e3fcc255f,2026-03-17_10h55.40.295,kallum_motion_pilot_GIST_update_2,2026.1.1,Win32,61.34969325,663b638be7226d4e3fcc255f,69b92ab4aef6dee357cd729a,69b92b5a139c8e40709ed6d2,0.0463,0.0463,1,103,265,154,1,sixfive,,,,,,,,,,,,,,,,,,,,,,,,,,,,,,,,,,,,,,,,,,,,,,,,,,,,,,,,,,,,,,,,,,,,,,,,,,,,,,,,,,,,,,,,,,,,,,,,,,,,,,,,,,,,,,,,,,,,,,,,,,,,,,,,,,,,,,,,,
,,663b638be7226d4e3fcc255f,2026-03-17_10h55.40.295,kallum_motion_pilot_GIST_update_2,2026.1.1,Win32,61.34969325,663b638be7226d4e3fcc255f,69b92ab4aef6dee357cd729a,69b92b5a139c8e40709ed6d2,0.0464,0.0464,1,104,266,87,1,eightseven,,,,,,,,,,,,,,,,,,,,,,,,,,,,,,,,,,,,,,,,,,,,,,,,,,,,,,,,,,,,,,,,,,,,,,,,,,,,,,,,,,,,,,,,,,,,,,,,,,,,,,,,,,,,,,,,,,,,,,,,,,,,,,,,,,,,,,,,,
