startup.started,startup.stopped,Prolific ID*,date,expName,psychopyVersion,OS,frameRate,participant,study_id,session,stimpositions.started,stimpositions.stopped,hardcoded_stimulus_positions.thisRepN,hardcoded_stimulus_positions.thisTrialN,hardcoded_stimulus_positions.thisN,hardcoded_stimulus_positions.thisIndex,hardcoded_stimulus_positions.ran,StimulusPos,stimorientation.started,stimorientation.stopped,prac_stimorientation_import_loop.thisRepN,prac_stimorientation_import_loop.thisTrialN,prac_stimorientation_import_loop.thisN,prac_stimorientation_import_loop.thisIndex,prac_stimorientation_import_loop.ran,Stimorientation,welcome_instr.started,welcome_instr.stopped,key_resp.keys,key_resp.rt,key_resp.duration,response_steppedout_1.started,response_steppedout_1.stopped,key_resp_20.keys,key_resp_20.rt,key_resp_20.duration,response_steppedout_2.started,response_steppedout_2.stopped,key_resp_19.keys,key_resp_19.rt,key_resp_19.duration,stim_response_instr.started,stim_response_instr.stopped,key_resp_15.keys,key_resp_15.rt,key_resp_15.duration,direction_instr_2.started,direction_instr_2.stopped,key_resp_9.keys,key_resp_9.rt,key_resp_9.duration,instr_prac.started,instr_prac.stopped,key_resp_10.keys,key_resp_10.rt,key_resp_10.duration,Stim1_display_prac.started,Stim1_display_prac.stopped,Ecc,Circle1_ori,Circle2_ori,response_prac.started,similarity,response_time,response_prac.stopped,mouse_5.x,mouse_5.y,mouse_5.leftButton,mouse_5.midButton,mouse_5.rightButton,mouse_5.clicked_name,responseprac_feedback.started,responseprac_feedback.stopped,summary2_prac.started,summary2_prac.stopped,mouse_6.x,mouse_6.y,mouse_6.leftButton,mouse_6.midButton,mouse_6.rightButton,mouse_6.clicked_name,duringprac.thisRepN,duringprac.thisTrialN,duringprac.thisN,duringprac.thisIndex,duringprac.ran,begin.started,begin.stopped,key_resp_22.keys,key_resp_22.rt,key_resp_22.duration,Stim1_display.started,Stim1_display.stopped,circle1_ori,circle2_ori,circle1_SF,circle2_SF,response.started,response.stopped,mouse.x,mouse.y,mouse.leftButton,mouse.midButton,mouse.rightButton,mouse.clicked_name,trialnumber,double_pass.thisRepN,double_pass.thisTrialN,double_pass.thisN,double_pass.thisIndex,double_pass.ran,double_pass.order,main_trial.thisRepN,main_trial.thisTrialN,main_trial.thisN,main_trial.thisIndex,main_trial.ran,main_trial.order,Trial_Counter,Catch,Frequencies,response_2.started,response_2.stopped,mouse_2.x,mouse_2.y,mouse_2.leftButton,mouse_2.midButton,mouse_2.rightButton,mouse_2.clicked_name,special_trial.started,special_trial.stopped,catch_1.started,catch_1.stopped,mouse_3.x,mouse_3.y,mouse_3.leftButton,mouse_3.midButton,mouse_3.rightButton,catchresponse,catchnumber,response_time_catch,response_sum.started,response_sum.stopped,mouse_11.x,mouse_11.y,mouse_11.leftButton,mouse_11.midButton,mouse_11.rightButton,flip_presentation_sequence_for_double_pass.started,flip_presentation_sequence_for_double_pass.stopped,goodbye.started,goodbye.stopped,key_resp_3.keys,key_resp_3.rt,key_resp_3.duration
0.0012,0.0018,6669f64ecd7e3ec30632f607,2026-03-17_14h10.34.102,kallum_motion_pilot_GIST_update_2,2026.1.1,Win32,40.32258065,6669f64ecd7e3ec30632f607,69b95efdef24cd8a694e89ee,69b960837a1bd02e9f26447e,,,,,,,,,,,,,,,,,,,,,,,,,,,,,,,,,,,,,,,,,,,,,,,,,,,,,,,,,,,,,,,,,,,,,,,,,,,,,,,,,,,,,,,,,,,,,,,,,,,,,,,,,,,,,,,,,,,,,,,,,,,,,,,,,,,,,,,,,,,,,,,,,
,,6669f64ecd7e3ec30632f607,2026-03-17_14h10.34.102,kallum_motion_pilot_GIST_update_2,2026.1.1,Win32,40.32258065,6669f64ecd7e3ec30632f607,69b95efdef24cd8a694e89ee,69b960837a1bd02e9f26447e,0.103,0.1036,0,0,0,2,1,twoone,,,,,,,,,,,,,,,,,,,,,,,,,,,,,,,,,,,,,,,,,,,,,,,,,,,,,,,,,,,,,,,,,,,,,,,,,,,,,,,,,,,,,,,,,,,,,,,,,,,,,,,,,,,,,,,,,,,,,,,,,,,,,,,,,,,,,,,,,
,,6669f64ecd7e3ec30632f607,2026-03-17_14h10.34.102,kallum_motion_pilot_GIST_update_2,2026.1.1,Win32,40.32258065,6669f64ecd7e3ec30632f607,69b95efdef24cd8a694e89ee,69b960837a1bd02e9f26447e,0.1047,0.1048,0,1,1,57,1,onethree,,,,,,,,,,,,,,,,,,,,,,,,,,,,,,,,,,,,,,,,,,,,,,,,,,,,,,,,,,,,,,,,,,,,,,,,,,,,,,,,,,,,,,,,,,,,,,,,,,,,,,,,,,,,,,,,,,,,,,,,,,,,,,,,,,,,,,,,,
,,6669f64ecd7e3ec30632f607,2026-03-17_14h10.34.102,kallum_motion_pilot_GIST_update_2,2026.1.1,Win32,40.32258065,6669f64ecd7e3ec30632f607,69b95efdef24cd8a694e89ee,69b960837a1bd02e9f26447e,0.1055,0.1055,0,2,2,98,1,sixfive,,,,,,,,,,,,,,,,,,,,,,,,,,,,,,,,,,,,,,,,,,,,,,,,,,,,,,,,,,,,,,,,,,,,,,,,,,,,,,,,,,,,,,,,,,,,,,,,,,,,,,,,,,,,,,,,,,,,,,,,,,,,,,,,,,,,,,,,,
,,6669f64ecd7e3ec30632f607,2026-03-17_14h10.34.102,kallum_motion_pilot_GIST_update_2,2026.1.1,Win32,40.32258065,6669f64ecd7e3ec30632f607,69b95efdef24cd8a694e89ee,69b960837a1bd02e9f26447e,0.1062,0.1063,0,3,3,31,1,fourthree,,,,,,,,,,,,,,,,,,,,,,,,,,,,,,,,,,,,,,,,,,,,,,,,,,,,,,,,,,,,,,,,,,,,,,,,,,,,,,,,,,,,,,,,,,,,,,,,,,,,,,,,,,,,,,,,,,,,,,,,,,,,,,,,,,,,,,,,,
,,6669f64ecd7e3ec30632f607,2026-03-17_14h10.34.102,kallum_motion_pilot_GIST_update_2,2026.1.1,Win32,40.32258065,6669f64ecd7e3ec30632f607,69b95efdef24cd8a694e89ee,69b960837a1bd02e9f26447e,0.1071,0.1072,0,4,4,27,1,twofour,,,,,,,,,,,,,,,,,,,,,,,,,,,,,,,,,,,,,,,,,,,,,,,,,,,,,,,,,,,,,,,,,,,,,,,,,,,,,,,,,,,,,,,,,,,,,,,,,,,,,,,,,,,,,,,,,,,,,,,,,,,,,,,,,,,,,,,,,
,,6669f64ecd7e3ec30632f607,2026-03-17_14h10.34.102,kallum_motion_pilot_GIST_update_2,2026.1.1,Win32,40.32258065,6669f64ecd7e3ec30632f607,69b95efdef24cd8a694e89ee,69b960837a1bd02e9f26447e,0.1078,0.1078,0,5,5,23,1,fourthree,,,,,,,,,,,,,,,,,,,,,,,,,,,,,,,,,,,,,,,,,,,,,,,,,,,,,,,,,,,,,,,,,,,,,,,,,,,,,,,,,,,,,,,,,,,,,,,,,,,,,,,,,,,,,,,,,,,,,,,,,,,,,,,,,,,,,,,,,
,,6669f64ecd7e3ec30632f607,2026-03-17_14h10.34.102,kallum_motion_pilot_GIST_update_2,2026.1.1,Win32,40.32258065,6669f64ecd7e3ec30632f607,69b95efdef24cd8a694e89ee,69b960837a1bd02e9f26447e,0.1084,0.1086,0,6,6,146,1,sixfive,,,,,,,,,,,,,,,,,,,,,,,,,,,,,,,,,,,,,,,,,,,,,,,,,,,,,,,,,,,,,,,,,,,,,,,,,,,,,,,,,,,,,,,,,,,,,,,,,,,,,,,,,,,,,,,,,,,,,,,,,,,,,,,,,,,,,,,,,
,,6669f64ecd7e3ec30632f607,2026-03-17_14h10.34.102,kallum_motion_pilot_GIST_update_2,2026.1.1,Win32,40.32258065,6669f64ecd7e3ec30632f607,69b95efdef24cd8a694e89ee,69b960837a1bd02e9f26447e,0.1092,0.1092,0,7,7,51,1,twofour,,,,,,,,,,,,,,,,,,,,,,,,,,,,,,,,,,,,,,,,,,,,,,,,,,,,,,,,,,,,,,,,,,,,,,,,,,,,,,,,,,,,,,,,,,,,,,,,,,,,,,,,,,,,,,,,,,,,,,,,,,,,,,,,,,,,,,,,,
,,6669f64ecd7e3ec30632f607,2026-03-17_14h10.34.102,kallum_motion_pilot_GIST_update_2,2026.1.1,Win32,40.32258065,6669f64ecd7e3ec30632f607,69b95efdef24cd8a694e89ee,69b960837a1bd02e9f26447e,0.11,0.1104,0,8,8,55,1,fourthree,,,,,,,,,,,,,,,,,,,,,,,,,,,,,,,,,,,,,,,,,,,,,,,,,,,,,,,,,,,,,,,,,,,,,,,,,,,,,,,,,,,,,,,,,,,,,,,,,,,,,,,,,,,,,,,,,,,,,,,,,,,,,,,,,,,,,,,,,
,,6669f64ecd7e3ec30632f607,2026-03-17_14h10.34.102,kallum_motion_pilot_GIST_update_2,2026.1.1,Win32,40.32258065,6669f64ecd7e3ec30632f607,69b95efdef24cd8a694e89ee,69b960837a1bd02e9f26447e,0.1113,0.1114,0,9,9,119,1,eightseven,,,,,,,,,,,,,,,,,,,,,,,,,,,,,,,,,,,,,,,,,,,,,,,,,,,,,,,,,,,,,,,,,,,,,,,,,,,,,,,,,,,,,,,,,,,,,,,,,,,,,,,,,,,,,,,,,,,,,,,,,,,,,,,,,,,,,,,,,
,,6669f64ecd7e3ec30632f607,2026-03-17_14h10.34.102,kallum_motion_pilot_GIST_update_2,2026.1.1,Win32,40.32258065,6669f64ecd7e3ec30632f607,69b95efdef24cd8a694e89ee,69b960837a1bd02e9f26447e,0.112,0.112,0,10,10,1,1,onethree,,,,,,,,,,,,,,,,,,,,,,,,,,,,,,,,,,,,,,,,,,,,,,,,,,,,,,,,,,,,,,,,,,,,,,,,,,,,,,,,,,,,,,,,,,,,,,,,,,,,,,,,,,,,,,,,,,,,,,,,,,,,,,,,,,,,,,,,,
,,6669f64ecd7e3ec30632f607,2026-03-17_14h10.34.102,kallum_motion_pilot_GIST_update_2,2026.1.1,Win32,40.32258065,6669f64ecd7e3ec30632f607,69b95efdef24cd8a694e89ee,69b960837a1bd02e9f26447e,0.1127,0.1128,0,11,11,149,1,seveneight,,,,,,,,,,,,,,,,,,,,,,,,,,,,,,,,,,,,,,,,,,,,,,,,,,,,,,,,,,,,,,,,,,,,,,,,,,,,,,,,,,,,,,,,,,,,,,,,,,,,,,,,,,,,,,,,,,,,,,,,,,,,,,,,,,,,,,,,,
,,6669f64ecd7e3ec30632f607,2026-03-17_14h10.34.102,kallum_motion_pilot_GIST_update_2,2026.1.1,Win32,40.32258065,6669f64ecd7e3ec30632f607,69b95efdef24cd8a694e89ee,69b960837a1bd02e9f26447e,0.1135,0.1135,0,12,12,36,1,threeone,,,,,,,,,,,,,,,,,,,,,,,,,,,,,,,,,,,,,,,,,,,,,,,,,,,,,,,,,,,,,,,,,,,,,,,,,,,,,,,,,,,,,,,,,,,,,,,,,,,,,,,,,,,,,,,,,,,,,,,,,,,,,,,,,,,,,,,,,
,,6669f64ecd7e3ec30632f607,2026-03-17_14h10.34.102,kallum_motion_pilot_GIST_update_2,2026.1.1,Win32,40.32258065,6669f64ecd7e3ec30632f607,69b95efdef24cd8a694e89ee,69b960837a1bd02e9f26447e,0.1141,0.1142,0,13,13,76,1,threeone,,,,,,,,,,,,,,,,,,,,,,,,,,,,,,,,,,,,,,,,,,,,,,,,,,,,,,,,,,,,,,,,,,,,,,,,,,,,,,,,,,,,,,,,,,,,,,,,,,,,,,,,,,,,,,,,,,,,,,,,,,,,,,,,,,,,,,,,,
,,6669f64ecd7e3ec30632f607,2026-03-17_14h10.34.102,kallum_motion_pilot_GIST_update_2,2026.1.1,Win32,40.32258065,6669f64ecd7e3ec30632f607,69b95efdef24cd8a694e89ee,69b960837a1bd02e9f26447e,0.1149,0.1149,0,14,14,22,1,fourtwo,,,,,,,,,,,,,,,,,,,,,,,,,,,,,,,,,,,,,,,,,,,,,,,,,,,,,,,,,,,,,,,,,,,,,,,,,,,,,,,,,,,,,,,,,,,,,,,,,,,,,,,,,,,,,,,,,,,,,,,,,,,,,,,,,,,,,,,,,
,,6669f64ecd7e3ec30632f607,2026-03-17_14h10.34.102,kallum_motion_pilot_GIST_update_2,2026.1.1,Win32,40.32258065,6669f64ecd7e3ec30632f607,69b95efdef24cd8a694e89ee,69b960837a1bd02e9f26447e,0.1156,0.1157,0,15,15,125,1,seveneight,,,,,,,,,,,,,,,,,,,,,,,,,,,,,,,,,,,,,,,,,,,,,,,,,,,,,,,,,,,,,,,,,,,,,,,,,,,,,,,,,,,,,,,,,,,,,,,,,,,,,,,,,,,,,,,,,,,,,,,,,,,,,,,,,,,,,,,,,
,,6669f64ecd7e3ec30632f607,2026-03-17_14h10.34.102,kallum_motion_pilot_GIST_update_2,2026.1.1,Win32,40.32258065,6669f64ecd7e3ec30632f607,69b95efdef24cd8a694e89ee,69b960837a1bd02e9f26447e,0.1164,0.1164,0,16,16,20,1,threeone,,,,,,,,,,,,,,,,,,,,,,,,,,,,,,,,,,,,,,,,,,,,,,,,,,,,,,,,,,,,,,,,,,,,,,,,,,,,,,,,,,,,,,,,,,,,,,,,,,,,,,,,,,,,,,,,,,,,,,,,,,,,,,,,,,,,,,,,,
,,6669f64ecd7e3ec30632f607,2026-03-17_14h10.34.102,kallum_motion_pilot_GIST_update_2,2026.1.1,Win32,40.32258065,6669f64ecd7e3ec30632f607,69b95efdef24cd8a694e89ee,69b960837a1bd02e9f26447e,0.1172,0.1172,0,17,17,128,1,fivesix,,,,,,,,,,,,,,,,,,,,,,,,,,,,,,,,,,,,,,,,,,,,,,,,,,,,,,,,,,,,,,,,,,,,,,,,,,,,,,,,,,,,,,,,,,,,,,,,,,,,,,,,,,,,,,,,,,,,,,,,,,,,,,,,,,,,,,,,,
,,6669f64ecd7e3ec30632f607,2026-03-17_14h10.34.102,kallum_motion_pilot_GIST_update_2,2026.1.1,Win32,40.32258065,6669f64ecd7e3ec30632f607,69b95efdef24cd8a694e89ee,69b960837a1bd02e9f26447e,0.118,0.118,0,18,18,124,1,sevenfive,,,,,,,,,,,,,,,,,,,,,,,,,,,,,,,,,,,,,,,,,,,,,,,,,,,,,,,,,,,,,,,,,,,,,,,,,,,,,,,,,,,,,,,,,,,,,,,,,,,,,,,,,,,,,,,,,,,,,,,,,,,,,,,,,,,,,,,,,
,,6669f64ecd7e3ec30632f607,2026-03-17_14h10.34.102,kallum_motion_pilot_GIST_update_2,2026.1.1,Win32,40.32258065,6669f64ecd7e3ec30632f607,69b95efdef24cd8a694e89ee,69b960837a1bd02e9f26447e,0.1187,0.1188,0,19,19,68,1,threeone,,,,,,,,,,,,,,,,,,,,,,,,,,,,,,,,,,,,,,,,,,,,,,,,,,,,,,,,,,,,,,,,,,,,,,,,,,,,,,,,,,,,,,,,,,,,,,,,,,,,,,,,,,,,,,,,,,,,,,,,,,,,,,,,,,,,,,,,,
,,6669f64ecd7e3ec30632f607,2026-03-17_14h10.34.102,kallum_motion_pilot_GIST_update_2,2026.1.1,Win32,40.32258065,6669f64ecd7e3ec30632f607,69b95efdef24cd8a694e89ee,69b960837a1bd02e9f26447e,0.1194,0.1194,0,20,20,38,1,fourtwo,,,,,,,,,,,,,,,,,,,,,,,,,,,,,,,,,,,,,,,,,,,,,,,,,,,,,,,,,,,,,,,,,,,,,,,,,,,,,,,,,,,,,,,,,,,,,,,,,,,,,,,,,,,,,,,,,,,,,,,,,,,,,,,,,,,,,,,,,
,,6669f64ecd7e3ec30632f607,2026-03-17_14h10.34.102,kallum_motion_pilot_GIST_update_2,2026.1.1,Win32,40.32258065,6669f64ecd7e3ec30632f607,69b95efdef24cd8a694e89ee,69b960837a1bd02e9f26447e,0.1204,0.1204,0,21,21,41,1,onethree,,,,,,,,,,,,,,,,,,,,,,,,,,,,,,,,,,,,,,,,,,,,,,,,,,,,,,,,,,,,,,,,,,,,,,,,,,,,,,,,,,,,,,,,,,,,,,,,,,,,,,,,,,,,,,,,,,,,,,,,,,,,,,,,,,,,,,,,,
,,6669f64ecd7e3ec30632f607,2026-03-17_14h10.34.102,kallum_motion_pilot_GIST_update_2,2026.1.1,Win32,40.32258065,6669f64ecd7e3ec30632f607,69b95efdef24cd8a694e89ee,69b960837a1bd02e9f26447e,0.1212,0.1213,0,22,22,56,1,onetwo,,,,,,,,,,,,,,,,,,,,,,,,,,,,,,,,,,,,,,,,,,,,,,,,,,,,,,,,,,,,,,,,,,,,,,,,,,,,,,,,,,,,,,,,,,,,,,,,,,,,,,,,,,,,,,,,,,,,,,,,,,,,,,,,,,,,,,,,,
,,6669f64ecd7e3ec30632f607,2026-03-17_14h10.34.102,kallum_motion_pilot_GIST_update_2,2026.1.1,Win32,40.32258065,6669f64ecd7e3ec30632f607,69b95efdef24cd8a694e89ee,69b960837a1bd02e9f26447e,0.1221,0.1221,0,23,23,116,1,sevenfive,,,,,,,,,,,,,,,,,,,,,,,,,,,,,,,,,,,,,,,,,,,,,,,,,,,,,,,,,,,,,,,,,,,,,,,,,,,,,,,,,,,,,,,,,,,,,,,,,,,,,,,,,,,,,,,,,,,,,,,,,,,,,,,,,,,,,,,,,
,,6669f64ecd7e3ec30632f607,2026-03-17_14h10.34.102,kallum_motion_pilot_GIST_update_2,2026.1.1,Win32,40.32258065,6669f64ecd7e3ec30632f607,69b95efdef24cd8a694e89ee,69b960837a1bd02e9f26447e,0.1229,0.123,0,24,24,102,1,eightsix,,,,,,,,,,,,,,,,,,,,,,,,,,,,,,,,,,,,,,,,,,,,,,,,,,,,,,,,,,,,,,,,,,,,,,,,,,,,,,,,,,,,,,,,,,,,,,,,,,,,,,,,,,,,,,,,,,,,,,,,,,,,,,,,,,,,,,,,,
,,6669f64ecd7e3ec30632f607,2026-03-17_14h10.34.102,kallum_motion_pilot_GIST_update_2,2026.1.1,Win32,40.32258065,6669f64ecd7e3ec30632f607,69b95efdef24cd8a694e89ee,69b960837a1bd02e9f26447e,0.1237,0.1238,0,25,25,37,1,threefour,,,,,,,,,,,,,,,,,,,,,,,,,,,,,,,,,,,,,,,,,,,,,,,,,,,,,,,,,,,,,,,,,,,,,,,,,,,,,,,,,,,,,,,,,,,,,,,,,,,,,,,,,,,,,,,,,,,,,,,,,,,,,,,,,,,,,,,,,
,,6669f64ecd7e3ec30632f607,2026-03-17_14h10.34.102,kallum_motion_pilot_GIST_update_2,2026.1.1,Win32,40.32258065,6669f64ecd7e3ec30632f607,69b95efdef24cd8a694e89ee,69b960837a1bd02e9f26447e,0.1244,0.1245,0,26,26,90,1,sixfive,,,,,,,,,,,,,,,,,,,,,,,,,,,,,,,,,,,,,,,,,,,,,,,,,,,,,,,,,,,,,,,,,,,,,,,,,,,,,,,,,,,,,,,,,,,,,,,,,,,,,,,,,,,,,,,,,,,,,,,,,,,,,,,,,,,,,,,,,
,,6669f64ecd7e3ec30632f607,2026-03-17_14h10.34.102,kallum_motion_pilot_GIST_update_2,2026.1.1,Win32,40.32258065,6669f64ecd7e3ec30632f607,69b95efdef24cd8a694e89ee,69b960837a1bd02e9f26447e,0.1252,0.1253,0,27,27,33,1,onethree,,,,,,,,,,,,,,,,,,,,,,,,,,,,,,,,,,,,,,,,,,,,,,,,,,,,,,,,,,,,,,,,,,,,,,,,,,,,,,,,,,,,,,,,,,,,,,,,,,,,,,,,,,,,,,,,,,,,,,,,,,,,,,,,,,,,,,,,,
,,6669f64ecd7e3ec30632f607,2026-03-17_14h10.34.102,kallum_motion_pilot_GIST_update_2,2026.1.1,Win32,40.32258065,6669f64ecd7e3ec30632f607,69b95efdef24cd8a694e89ee,69b960837a1bd02e9f26447e,0.126,0.1261,0,28,28,99,1,sixeight,,,,,,,,,,,,,,,,,,,,,,,,,,,,,,,,,,,,,,,,,,,,,,,,,,,,,,,,,,,,,,,,,,,,,,,,,,,,,,,,,,,,,,,,,,,,,,,,,,,,,,,,,,,,,,,,,,,,,,,,,,,,,,,,,,,,,,,,,
,,6669f64ecd7e3ec30632f607,2026-03-17_14h10.34.102,kallum_motion_pilot_GIST_update_2,2026.1.1,Win32,40.32258065,6669f64ecd7e3ec30632f607,69b95efdef24cd8a694e89ee,69b960837a1bd02e9f26447e,0.1268,0.1269,0,29,29,7,1,fourthree,,,,,,,,,,,,,,,,,,,,,,,,,,,,,,,,,,,,,,,,,,,,,,,,,,,,,,,,,,,,,,,,,,,,,,,,,,,,,,,,,,,,,,,,,,,,,,,,,,,,,,,,,,,,,,,,,,,,,,,,,,,,,,,,,,,,,,,,,
,,6669f64ecd7e3ec30632f607,2026-03-17_14h10.34.102,kallum_motion_pilot_GIST_update_2,2026.1.1,Win32,40.32258065,6669f64ecd7e3ec30632f607,69b95efdef24cd8a694e89ee,69b960837a1bd02e9f26447e,0.1275,0.1276,0,30,30,106,1,sixfive,,,,,,,,,,,,,,,,,,,,,,,,,,,,,,,,,,,,,,,,,,,,,,,,,,,,,,,,,,,,,,,,,,,,,,,,,,,,,,,,,,,,,,,,,,,,,,,,,,,,,,,,,,,,,,,,,,,,,,,,,,,,,,,,,,,,,,,,,
,,6669f64ecd7e3ec30632f607,2026-03-17_14h10.34.102,kallum_motion_pilot_GIST_update_2,2026.1.1,Win32,40.32258065,6669f64ecd7e3ec30632f607,69b95efdef24cd8a694e89ee,69b960837a1bd02e9f26447e,0.1283,0.1284,0,31,31,88,1,fivesix,,,,,,,,,,,,,,,,,,,,,,,,,,,,,,,,,,,,,,,,,,,,,,,,,,,,,,,,,,,,,,,,,,,,,,,,,,,,,,,,,,,,,,,,,,,,,,,,,,,,,,,,,,,,,,,,,,,,,,,,,,,,,,,,,,,,,,,,,
,,6669f64ecd7e3ec30632f607,2026-03-17_14h10.34.102,kallum_motion_pilot_GIST_update_2,2026.1.1,Win32,40.32258065,6669f64ecd7e3ec30632f607,69b95efdef24cd8a694e89ee,69b960837a1bd02e9f26447e,0.129,0.129,0,32,32,104,1,fivesix,,,,,,,,,,,,,,,,,,,,,,,,,,,,,,,,,,,,,,,,,,,,,,,,,,,,,,,,,,,,,,,,,,,,,,,,,,,,,,,,,,,,,,,,,,,,,,,,,,,,,,,,,,,,,,,,,,,,,,,,,,,,,,,,,,,,,,,,,
,,6669f64ecd7e3ec30632f607,2026-03-17_14h10.34.102,kallum_motion_pilot_GIST_update_2,2026.1.1,Win32,40.32258065,6669f64ecd7e3ec30632f607,69b95efdef24cd8a694e89ee,69b960837a1bd02e9f26447e,0.1297,0.1298,0,33,33,152,1,fivesix,,,,,,,,,,,,,,,,,,,,,,,,,,,,,,,,,,,,,,,,,,,,,,,,,,,,,,,,,,,,,,,,,,,,,,,,,,,,,,,,,,,,,,,,,,,,,,,,,,,,,,,,,,,,,,,,,,,,,,,,,,,,,,,,,,,,,,,,,
,,6669f64ecd7e3ec30632f607,2026-03-17_14h10.34.102,kallum_motion_pilot_GIST_update_2,2026.1.1,Win32,40.32258065,6669f64ecd7e3ec30632f607,69b95efdef24cd8a694e89ee,69b960837a1bd02e9f26447e,0.1306,0.1306,0,34,34,9,1,onethree,,,,,,,,,,,,,,,,,,,,,,,,,,,,,,,,,,,,,,,,,,,,,,,,,,,,,,,,,,,,,,,,,,,,,,,,,,,,,,,,,,,,,,,,,,,,,,,,,,,,,,,,,,,,,,,,,,,,,,,,,,,,,,,,,,,,,,,,,
,,6669f64ecd7e3ec30632f607,2026-03-17_14h10.34.102,kallum_motion_pilot_GIST_update_2,2026.1.1,Win32,40.32258065,6669f64ecd7e3ec30632f607,69b95efdef24cd8a694e89ee,69b960837a1bd02e9f26447e,0.1314,0.1315,0,35,35,42,1,twoone,,,,,,,,,,,,,,,,,,,,,,,,,,,,,,,,,,,,,,,,,,,,,,,,,,,,,,,,,,,,,,,,,,,,,,,,,,,,,,,,,,,,,,,,,,,,,,,,,,,,,,,,,,,,,,,,,,,,,,,,,,,,,,,,,,,,,,,,,
,,6669f64ecd7e3ec30632f607,2026-03-17_14h10.34.102,kallum_motion_pilot_GIST_update_2,2026.1.1,Win32,40.32258065,6669f64ecd7e3ec30632f607,69b95efdef24cd8a694e89ee,69b960837a1bd02e9f26447e,0.1322,0.1322,0,36,36,123,1,sixeight,,,,,,,,,,,,,,,,,,,,,,,,,,,,,,,,,,,,,,,,,,,,,,,,,,,,,,,,,,,,,,,,,,,,,,,,,,,,,,,,,,,,,,,,,,,,,,,,,,,,,,,,,,,,,,,,,,,,,,,,,,,,,,,,,,,,,,,,,
,,6669f64ecd7e3ec30632f607,2026-03-17_14h10.34.102,kallum_motion_pilot_GIST_update_2,2026.1.1,Win32,40.32258065,6669f64ecd7e3ec30632f607,69b95efdef24cd8a694e89ee,69b960837a1bd02e9f26447e,0.1331,0.1331,0,37,37,0,1,onetwo,,,,,,,,,,,,,,,,,,,,,,,,,,,,,,,,,,,,,,,,,,,,,,,,,,,,,,,,,,,,,,,,,,,,,,,,,,,,,,,,,,,,,,,,,,,,,,,,,,,,,,,,,,,,,,,,,,,,,,,,,,,,,,,,,,,,,,,,,
,,6669f64ecd7e3ec30632f607,2026-03-17_14h10.34.102,kallum_motion_pilot_GIST_update_2,2026.1.1,Win32,40.32258065,6669f64ecd7e3ec30632f607,69b95efdef24cd8a694e89ee,69b960837a1bd02e9f26447e,0.134,0.1341,0,38,38,79,1,eightseven,,,,,,,,,,,,,,,,,,,,,,,,,,,,,,,,,,,,,,,,,,,,,,,,,,,,,,,,,,,,,,,,,,,,,,,,,,,,,,,,,,,,,,,,,,,,,,,,,,,,,,,,,,,,,,,,,,,,,,,,,,,,,,,,,,,,,,,,,
,,6669f64ecd7e3ec30632f607,2026-03-17_14h10.34.102,kallum_motion_pilot_GIST_update_2,2026.1.1,Win32,40.32258065,6669f64ecd7e3ec30632f607,69b95efdef24cd8a694e89ee,69b960837a1bd02e9f26447e,0.1348,0.1349,0,39,39,110,1,eightsix,,,,,,,,,,,,,,,,,,,,,,,,,,,,,,,,,,,,,,,,,,,,,,,,,,,,,,,,,,,,,,,,,,,,,,,,,,,,,,,,,,,,,,,,,,,,,,,,,,,,,,,,,,,,,,,,,,,,,,,,,,,,,,,,,,,,,,,,,
,,6669f64ecd7e3ec30632f607,2026-03-17_14h10.34.102,kallum_motion_pilot_GIST_update_2,2026.1.1,Win32,40.32258065,6669f64ecd7e3ec30632f607,69b95efdef24cd8a694e89ee,69b960837a1bd02e9f26447e,0.1358,0.136,0,40,40,77,1,threefour,,,,,,,,,,,,,,,,,,,,,,,,,,,,,,,,,,,,,,,,,,,,,,,,,,,,,,,,,,,,,,,,,,,,,,,,,,,,,,,,,,,,,,,,,,,,,,,,,,,,,,,,,,,,,,,,,,,,,,,,,,,,,,,,,,,,,,,,,
,,6669f64ecd7e3ec30632f607,2026-03-17_14h10.34.102,kallum_motion_pilot_GIST_update_2,2026.1.1,Win32,40.32258065,6669f64ecd7e3ec30632f607,69b95efdef24cd8a694e89ee,69b960837a1bd02e9f26447e,0.1367,0.1367,0,41,41,113,1,fiveseven,,,,,,,,,,,,,,,,,,,,,,,,,,,,,,,,,,,,,,,,,,,,,,,,,,,,,,,,,,,,,,,,,,,,,,,,,,,,,,,,,,,,,,,,,,,,,,,,,,,,,,,,,,,,,,,,,,,,,,,,,,,,,,,,,,,,,,,,,
,,6669f64ecd7e3ec30632f607,2026-03-17_14h10.34.102,kallum_motion_pilot_GIST_update_2,2026.1.1,Win32,40.32258065,6669f64ecd7e3ec30632f607,69b95efdef24cd8a694e89ee,69b960837a1bd02e9f26447e,0.1375,0.1375,0,42,42,148,1,sevenfive,,,,,,,,,,,,,,,,,,,,,,,,,,,,,,,,,,,,,,,,,,,,,,,,,,,,,,,,,,,,,,,,,,,,,,,,,,,,,,,,,,,,,,,,,,,,,,,,,,,,,,,,,,,,,,,,,,,,,,,,,,,,,,,,,,,,,,,,,
,,6669f64ecd7e3ec30632f607,2026-03-17_14h10.34.102,kallum_motion_pilot_GIST_update_2,2026.1.1,Win32,40.32258065,6669f64ecd7e3ec30632f607,69b95efdef24cd8a694e89ee,69b960837a1bd02e9f26447e,0.1382,0.1383,0,43,43,145,1,fiveseven,,,,,,,,,,,,,,,,,,,,,,,,,,,,,,,,,,,,,,,,,,,,,,,,,,,,,,,,,,,,,,,,,,,,,,,,,,,,,,,,,,,,,,,,,,,,,,,,,,,,,,,,,,,,,,,,,,,,,,,,,,,,,,,,,,,,,,,,,
,,6669f64ecd7e3ec30632f607,2026-03-17_14h10.34.102,kallum_motion_pilot_GIST_update_2,2026.1.1,Win32,40.32258065,6669f64ecd7e3ec30632f607,69b95efdef24cd8a694e89ee,69b960837a1bd02e9f26447e,0.139,0.139,0,44,44,160,1,fivesix,,,,,,,,,,,,,,,,,,,,,,,,,,,,,,,,,,,,,,,,,,,,,,,,,,,,,,,,,,,,,,,,,,,,,,,,,,,,,,,,,,,,,,,,,,,,,,,,,,,,,,,,,,,,,,,,,,,,,,,,,,,,,,,,,,,,,,,,,
,,6669f64ecd7e3ec30632f607,2026-03-17_14h10.34.102,kallum_motion_pilot_GIST_update_2,2026.1.1,Win32,40.32258065,6669f64ecd7e3ec30632f607,69b95efdef24cd8a694e89ee,69b960837a1bd02e9f26447e,0.1397,0.1397,0,45,45,26,1,twoone,,,,,,,,,,,,,,,,,,,,,,,,,,,,,,,,,,,,,,,,,,,,,,,,,,,,,,,,,,,,,,,,,,,,,,,,,,,,,,,,,,,,,,,,,,,,,,,,,,,,,,,,,,,,,,,,,,,,,,,,,,,,,,,,,,,,,,,,,
,,6669f64ecd7e3ec30632f607,2026-03-17_14h10.34.102,kallum_motion_pilot_GIST_update_2,2026.1.1,Win32,40.32258065,6669f64ecd7e3ec30632f607,69b95efdef24cd8a694e89ee,69b960837a1bd02e9f26447e,0.1405,0.1406,0,46,46,17,1,onethree,,,,,,,,,,,,,,,,,,,,,,,,,,,,,,,,,,,,,,,,,,,,,,,,,,,,,,,,,,,,,,,,,,,,,,,,,,,,,,,,,,,,,,,,,,,,,,,,,,,,,,,,,,,,,,,,,,,,,,,,,,,,,,,,,,,,,,,,,
,,6669f64ecd7e3ec30632f607,2026-03-17_14h10.34.102,kallum_motion_pilot_GIST_update_2,2026.1.1,Win32,40.32258065,6669f64ecd7e3ec30632f607,69b95efdef24cd8a694e89ee,69b960837a1bd02e9f26447e,0.1415,0.1416,0,47,47,11,1,twofour,,,,,,,,,,,,,,,,,,,,,,,,,,,,,,,,,,,,,,,,,,,,,,,,,,,,,,,,,,,,,,,,,,,,,,,,,,,,,,,,,,,,,,,,,,,,,,,,,,,,,,,,,,,,,,,,,,,,,,,,,,,,,,,,,,,,,,,,,
,,6669f64ecd7e3ec30632f607,2026-03-17_14h10.34.102,kallum_motion_pilot_GIST_update_2,2026.1.1,Win32,40.32258065,6669f64ecd7e3ec30632f607,69b95efdef24cd8a694e89ee,69b960837a1bd02e9f26447e,0.1424,0.1424,0,48,48,35,1,twofour,,,,,,,,,,,,,,,,,,,,,,,,,,,,,,,,,,,,,,,,,,,,,,,,,,,,,,,,,,,,,,,,,,,,,,,,,,,,,,,,,,,,,,,,,,,,,,,,,,,,,,,,,,,,,,,,,,,,,,,,,,,,,,,,,,,,,,,,,
,,6669f64ecd7e3ec30632f607,2026-03-17_14h10.34.102,kallum_motion_pilot_GIST_update_2,2026.1.1,Win32,40.32258065,6669f64ecd7e3ec30632f607,69b95efdef24cd8a694e89ee,69b960837a1bd02e9f26447e,0.1432,0.1432,0,49,49,62,1,fourtwo,,,,,,,,,,,,,,,,,,,,,,,,,,,,,,,,,,,,,,,,,,,,,,,,,,,,,,,,,,,,,,,,,,,,,,,,,,,,,,,,,,,,,,,,,,,,,,,,,,,,,,,,,,,,,,,,,,,,,,,,,,,,,,,,,,,,,,,,,
,,6669f64ecd7e3ec30632f607,2026-03-17_14h10.34.102,kallum_motion_pilot_GIST_update_2,2026.1.1,Win32,40.32258065,6669f64ecd7e3ec30632f607,69b95efdef24cd8a694e89ee,69b960837a1bd02e9f26447e,0.144,0.144,0,50,50,133,1,seveneight,,,,,,,,,,,,,,,,,,,,,,,,,,,,,,,,,,,,,,,,,,,,,,,,,,,,,,,,,,,,,,,,,,,,,,,,,,,,,,,,,,,,,,,,,,,,,,,,,,,,,,,,,,,,,,,,,,,,,,,,,,,,,,,,,,,,,,,,,
,,6669f64ecd7e3ec30632f607,2026-03-17_14h10.34.102,kallum_motion_pilot_GIST_update_2,2026.1.1,Win32,40.32258065,6669f64ecd7e3ec30632f607,69b95efdef24cd8a694e89ee,69b960837a1bd02e9f26447e,0.1448,0.1448,0,51,51,129,1,fiveseven,,,,,,,,,,,,,,,,,,,,,,,,,,,,,,,,,,,,,,,,,,,,,,,,,,,,,,,,,,,,,,,,,,,,,,,,,,,,,,,,,,,,,,,,,,,,,,,,,,,,,,,,,,,,,,,,,,,,,,,,,,,,,,,,,,,,,,,,,
,,6669f64ecd7e3ec30632f607,2026-03-17_14h10.34.102,kallum_motion_pilot_GIST_update_2,2026.1.1,Win32,40.32258065,6669f64ecd7e3ec30632f607,69b95efdef24cd8a694e89ee,69b960837a1bd02e9f26447e,0.1456,0.1456,0,52,52,70,1,fourtwo,,,,,,,,,,,,,,,,,,,,,,,,,,,,,,,,,,,,,,,,,,,,,,,,,,,,,,,,,,,,,,,,,,,,,,,,,,,,,,,,,,,,,,,,,,,,,,,,,,,,,,,,,,,,,,,,,,,,,,,,,,,,,,,,,,,,,,,,,
,,6669f64ecd7e3ec30632f607,2026-03-17_14h10.34.102,kallum_motion_pilot_GIST_update_2,2026.1.1,Win32,40.32258065,6669f64ecd7e3ec30632f607,69b95efdef24cd8a694e89ee,69b960837a1bd02e9f26447e,0.1463,0.1463,0,53,53,135,1,eightseven,,,,,,,,,,,,,,,,,,,,,,,,,,,,,,,,,,,,,,,,,,,,,,,,,,,,,,,,,,,,,,,,,,,,,,,,,,,,,,,,,,,,,,,,,,,,,,,,,,,,,,,,,,,,,,,,,,,,,,,,,,,,,,,,,,,,,,,,,
,,6669f64ecd7e3ec30632f607,2026-03-17_14h10.34.102,kallum_motion_pilot_GIST_update_2,2026.1.1,Win32,40.32258065,6669f64ecd7e3ec30632f607,69b95efdef24cd8a694e89ee,69b960837a1bd02e9f26447e,0.1471,0.1471,0,54,54,101,1,seveneight,,,,,,,,,,,,,,,,,,,,,,,,,,,,,,,,,,,,,,,,,,,,,,,,,,,,,,,,,,,,,,,,,,,,,,,,,,,,,,,,,,,,,,,,,,,,,,,,,,,,,,,,,,,,,,,,,,,,,,,,,,,,,,,,,,,,,,,,,
,,6669f64ecd7e3ec30632f607,2026-03-17_14h10.34.102,kallum_motion_pilot_GIST_update_2,2026.1.1,Win32,40.32258065,6669f64ecd7e3ec30632f607,69b95efdef24cd8a694e89ee,69b960837a1bd02e9f26447e,0.1478,0.1479,0,55,55,159,1,eightseven,,,,,,,,,,,,,,,,,,,,,,,,,,,,,,,,,,,,,,,,,,,,,,,,,,,,,,,,,,,,,,,,,,,,,,,,,,,,,,,,,,,,,,,,,,,,,,,,,,,,,,,,,,,,,,,,,,,,,,,,,,,,,,,,,,,,,,,,,
,,6669f64ecd7e3ec30632f607,2026-03-17_14h10.34.102,kallum_motion_pilot_GIST_update_2,2026.1.1,Win32,40.32258065,6669f64ecd7e3ec30632f607,69b95efdef24cd8a694e89ee,69b960837a1bd02e9f26447e,0.1486,0.1487,0,56,56,105,1,fiveseven,,,,,,,,,,,,,,,,,,,,,,,,,,,,,,,,,,,,,,,,,,,,,,,,,,,,,,,,,,,,,,,,,,,,,,,,,,,,,,,,,,,,,,,,,,,,,,,,,,,,,,,,,,,,,,,,,,,,,,,,,,,,,,,,,,,,,,,,,
,,6669f64ecd7e3ec30632f607,2026-03-17_14h10.34.102,kallum_motion_pilot_GIST_update_2,2026.1.1,Win32,40.32258065,6669f64ecd7e3ec30632f607,69b95efdef24cd8a694e89ee,69b960837a1bd02e9f26447e,0.1497,0.1498,0,57,57,141,1,seveneight,,,,,,,,,,,,,,,,,,,,,,,,,,,,,,,,,,,,,,,,,,,,,,,,,,,,,,,,,,,,,,,,,,,,,,,,,,,,,,,,,,,,,,,,,,,,,,,,,,,,,,,,,,,,,,,,,,,,,,,,,,,,,,,,,,,,,,,,,
,,6669f64ecd7e3ec30632f607,2026-03-17_14h10.34.102,kallum_motion_pilot_GIST_update_2,2026.1.1,Win32,40.32258065,6669f64ecd7e3ec30632f607,69b95efdef24cd8a694e89ee,69b960837a1bd02e9f26447e,0.1507,0.1508,0,58,58,44,1,threeone,,,,,,,,,,,,,,,,,,,,,,,,,,,,,,,,,,,,,,,,,,,,,,,,,,,,,,,,,,,,,,,,,,,,,,,,,,,,,,,,,,,,,,,,,,,,,,,,,,,,,,,,,,,,,,,,,,,,,,,,,,,,,,,,,,,,,,,,,
,,6669f64ecd7e3ec30632f607,2026-03-17_14h10.34.102,kallum_motion_pilot_GIST_update_2,2026.1.1,Win32,40.32258065,6669f64ecd7e3ec30632f607,69b95efdef24cd8a694e89ee,69b960837a1bd02e9f26447e,0.1517,0.1518,0,59,59,54,1,fourtwo,,,,,,,,,,,,,,,,,,,,,,,,,,,,,,,,,,,,,,,,,,,,,,,,,,,,,,,,,,,,,,,,,,,,,,,,,,,,,,,,,,,,,,,,,,,,,,,,,,,,,,,,,,,,,,,,,,,,,,,,,,,,,,,,,,,,,,,,,
,,6669f64ecd7e3ec30632f607,2026-03-17_14h10.34.102,kallum_motion_pilot_GIST_update_2,2026.1.1,Win32,40.32258065,6669f64ecd7e3ec30632f607,69b95efdef24cd8a694e89ee,69b960837a1bd02e9f26447e,0.1526,0.1526,0,60,60,75,1,twofour,,,,,,,,,,,,,,,,,,,,,,,,,,,,,,,,,,,,,,,,,,,,,,,,,,,,,,,,,,,,,,,,,,,,,,,,,,,,,,,,,,,,,,,,,,,,,,,,,,,,,,,,,,,,,,,,,,,,,,,,,,,,,,,,,,,,,,,,,
,,6669f64ecd7e3ec30632f607,2026-03-17_14h10.34.102,kallum_motion_pilot_GIST_update_2,2026.1.1,Win32,40.32258065,6669f64ecd7e3ec30632f607,69b95efdef24cd8a694e89ee,69b960837a1bd02e9f26447e,0.1534,0.1534,0,61,61,89,1,fiveseven,,,,,,,,,,,,,,,,,,,,,,,,,,,,,,,,,,,,,,,,,,,,,,,,,,,,,,,,,,,,,,,,,,,,,,,,,,,,,,,,,,,,,,,,,,,,,,,,,,,,,,,,,,,,,,,,,,,,,,,,,,,,,,,,,,,,,,,,,
,,6669f64ecd7e3ec30632f607,2026-03-17_14h10.34.102,kallum_motion_pilot_GIST_update_2,2026.1.1,Win32,40.32258065,6669f64ecd7e3ec30632f607,69b95efdef24cd8a694e89ee,69b960837a1bd02e9f26447e,0.1542,0.1542,0,62,62,137,1,fiveseven,,,,,,,,,,,,,,,,,,,,,,,,,,,,,,,,,,,,,,,,,,,,,,,,,,,,,,,,,,,,,,,,,,,,,,,,,,,,,,,,,,,,,,,,,,,,,,,,,,,,,,,,,,,,,,,,,,,,,,,,,,,,,,,,,,,,,,,,,
,,6669f64ecd7e3ec30632f607,2026-03-17_14h10.34.102,kallum_motion_pilot_GIST_update_2,2026.1.1,Win32,40.32258065,6669f64ecd7e3ec30632f607,69b95efdef24cd8a694e89ee,69b960837a1bd02e9f26447e,0.1557,0.1558,0,63,63,156,1,sevenfive,,,,,,,,,,,,,,,,,,,,,,,,,,,,,,,,,,,,,,,,,,,,,,,,,,,,,,,,,,,,,,,,,,,,,,,,,,,,,,,,,,,,,,,,,,,,,,,,,,,,,,,,,,,,,,,,,,,,,,,,,,,,,,,,,,,,,,,,,
,,6669f64ecd7e3ec30632f607,2026-03-17_14h10.34.102,kallum_motion_pilot_GIST_update_2,2026.1.1,Win32,40.32258065,6669f64ecd7e3ec30632f607,69b95efdef24cd8a694e89ee,69b960837a1bd02e9f26447e,0.1567,0.1567,0,64,64,8,1,onetwo,,,,,,,,,,,,,,,,,,,,,,,,,,,,,,,,,,,,,,,,,,,,,,,,,,,,,,,,,,,,,,,,,,,,,,,,,,,,,,,,,,,,,,,,,,,,,,,,,,,,,,,,,,,,,,,,,,,,,,,,,,,,,,,,,,,,,,,,,
,,6669f64ecd7e3ec30632f607,2026-03-17_14h10.34.102,kallum_motion_pilot_GIST_update_2,2026.1.1,Win32,40.32258065,6669f64ecd7e3ec30632f607,69b95efdef24cd8a694e89ee,69b960837a1bd02e9f26447e,0.1574,0.1575,0,65,65,30,1,fourtwo,,,,,,,,,,,,,,,,,,,,,,,,,,,,,,,,,,,,,,,,,,,,,,,,,,,,,,,,,,,,,,,,,,,,,,,,,,,,,,,,,,,,,,,,,,,,,,,,,,,,,,,,,,,,,,,,,,,,,,,,,,,,,,,,,,,,,,,,,
,,6669f64ecd7e3ec30632f607,2026-03-17_14h10.34.102,kallum_motion_pilot_GIST_update_2,2026.1.1,Win32,40.32258065,6669f64ecd7e3ec30632f607,69b95efdef24cd8a694e89ee,69b960837a1bd02e9f26447e,0.1582,0.1582,0,66,66,50,1,twoone,,,,,,,,,,,,,,,,,,,,,,,,,,,,,,,,,,,,,,,,,,,,,,,,,,,,,,,,,,,,,,,,,,,,,,,,,,,,,,,,,,,,,,,,,,,,,,,,,,,,,,,,,,,,,,,,,,,,,,,,,,,,,,,,,,,,,,,,,
,,6669f64ecd7e3ec30632f607,2026-03-17_14h10.34.102,kallum_motion_pilot_GIST_update_2,2026.1.1,Win32,40.32258065,6669f64ecd7e3ec30632f607,69b95efdef24cd8a694e89ee,69b960837a1bd02e9f26447e,0.1684,0.1685,0,67,67,111,1,eightseven,,,,,,,,,,,,,,,,,,,,,,,,,,,,,,,,,,,,,,,,,,,,,,,,,,,,,,,,,,,,,,,,,,,,,,,,,,,,,,,,,,,,,,,,,,,,,,,,,,,,,,,,,,,,,,,,,,,,,,,,,,,,,,,,,,,,,,,,,
,,6669f64ecd7e3ec30632f607,2026-03-17_14h10.34.102,kallum_motion_pilot_GIST_update_2,2026.1.1,Win32,40.32258065,6669f64ecd7e3ec30632f607,69b95efdef24cd8a694e89ee,69b960837a1bd02e9f26447e,0.1693,0.1693,0,68,68,59,1,twofour,,,,,,,,,,,,,,,,,,,,,,,,,,,,,,,,,,,,,,,,,,,,,,,,,,,,,,,,,,,,,,,,,,,,,,,,,,,,,,,,,,,,,,,,,,,,,,,,,,,,,,,,,,,,,,,,,,,,,,,,,,,,,,,,,,,,,,,,,
,,6669f64ecd7e3ec30632f607,2026-03-17_14h10.34.102,kallum_motion_pilot_GIST_update_2,2026.1.1,Win32,40.32258065,6669f64ecd7e3ec30632f607,69b95efdef24cd8a694e89ee,69b960837a1bd02e9f26447e,0.1704,0.1704,0,69,69,64,1,onetwo,,,,,,,,,,,,,,,,,,,,,,,,,,,,,,,,,,,,,,,,,,,,,,,,,,,,,,,,,,,,,,,,,,,,,,,,,,,,,,,,,,,,,,,,,,,,,,,,,,,,,,,,,,,,,,,,,,,,,,,,,,,,,,,,,,,,,,,,,
,,6669f64ecd7e3ec30632f607,2026-03-17_14h10.34.102,kallum_motion_pilot_GIST_update_2,2026.1.1,Win32,40.32258065,6669f64ecd7e3ec30632f607,69b95efdef24cd8a694e89ee,69b960837a1bd02e9f26447e,0.1712,0.1713,0,70,70,114,1,sixfive,,,,,,,,,,,,,,,,,,,,,,,,,,,,,,,,,,,,,,,,,,,,,,,,,,,,,,,,,,,,,,,,,,,,,,,,,,,,,,,,,,,,,,,,,,,,,,,,,,,,,,,,,,,,,,,,,,,,,,,,,,,,,,,,,,,,,,,,,
,,6669f64ecd7e3ec30632f607,2026-03-17_14h10.34.102,kallum_motion_pilot_GIST_update_2,2026.1.1,Win32,40.32258065,6669f64ecd7e3ec30632f607,69b95efdef24cd8a694e89ee,69b960837a1bd02e9f26447e,0.172,0.1721,0,71,71,132,1,sevenfive,,,,,,,,,,,,,,,,,,,,,,,,,,,,,,,,,,,,,,,,,,,,,,,,,,,,,,,,,,,,,,,,,,,,,,,,,,,,,,,,,,,,,,,,,,,,,,,,,,,,,,,,,,,,,,,,,,,,,,,,,,,,,,,,,,,,,,,,,
,,6669f64ecd7e3ec30632f607,2026-03-17_14h10.34.102,kallum_motion_pilot_GIST_update_2,2026.1.1,Win32,40.32258065,6669f64ecd7e3ec30632f607,69b95efdef24cd8a694e89ee,69b960837a1bd02e9f26447e,0.1728,0.1729,0,72,72,58,1,twoone,,,,,,,,,,,,,,,,,,,,,,,,,,,,,,,,,,,,,,,,,,,,,,,,,,,,,,,,,,,,,,,,,,,,,,,,,,,,,,,,,,,,,,,,,,,,,,,,,,,,,,,,,,,,,,,,,,,,,,,,,,,,,,,,,,,,,,,,,
,,6669f64ecd7e3ec30632f607,2026-03-17_14h10.34.102,kallum_motion_pilot_GIST_update_2,2026.1.1,Win32,40.32258065,6669f64ecd7e3ec30632f607,69b95efdef24cd8a694e89ee,69b960837a1bd02e9f26447e,0.1736,0.1736,0,73,73,4,1,threeone,,,,,,,,,,,,,,,,,,,,,,,,,,,,,,,,,,,,,,,,,,,,,,,,,,,,,,,,,,,,,,,,,,,,,,,,,,,,,,,,,,,,,,,,,,,,,,,,,,,,,,,,,,,,,,,,,,,,,,,,,,,,,,,,,,,,,,,,,
,,6669f64ecd7e3ec30632f607,2026-03-17_14h10.34.102,kallum_motion_pilot_GIST_update_2,2026.1.1,Win32,40.32258065,6669f64ecd7e3ec30632f607,69b95efdef24cd8a694e89ee,69b960837a1bd02e9f26447e,0.1743,0.1744,0,74,74,120,1,fivesix,,,,,,,,,,,,,,,,,,,,,,,,,,,,,,,,,,,,,,,,,,,,,,,,,,,,,,,,,,,,,,,,,,,,,,,,,,,,,,,,,,,,,,,,,,,,,,,,,,,,,,,,,,,,,,,,,,,,,,,,,,,,,,,,,,,,,,,,,
,,6669f64ecd7e3ec30632f607,2026-03-17_14h10.34.102,kallum_motion_pilot_GIST_update_2,2026.1.1,Win32,40.32258065,6669f64ecd7e3ec30632f607,69b95efdef24cd8a694e89ee,69b960837a1bd02e9f26447e,0.1751,0.1752,0,75,75,13,1,threefour,,,,,,,,,,,,,,,,,,,,,,,,,,,,,,,,,,,,,,,,,,,,,,,,,,,,,,,,,,,,,,,,,,,,,,,,,,,,,,,,,,,,,,,,,,,,,,,,,,,,,,,,,,,,,,,,,,,,,,,,,,,,,,,,,,,,,,,,,
,,6669f64ecd7e3ec30632f607,2026-03-17_14h10.34.102,kallum_motion_pilot_GIST_update_2,2026.1.1,Win32,40.32258065,6669f64ecd7e3ec30632f607,69b95efdef24cd8a694e89ee,69b960837a1bd02e9f26447e,0.176,0.1761,0,76,76,80,1,fivesix,,,,,,,,,,,,,,,,,,,,,,,,,,,,,,,,,,,,,,,,,,,,,,,,,,,,,,,,,,,,,,,,,,,,,,,,,,,,,,,,,,,,,,,,,,,,,,,,,,,,,,,,,,,,,,,,,,,,,,,,,,,,,,,,,,,,,,,,,
,,6669f64ecd7e3ec30632f607,2026-03-17_14h10.34.102,kallum_motion_pilot_GIST_update_2,2026.1.1,Win32,40.32258065,6669f64ecd7e3ec30632f607,69b95efdef24cd8a694e89ee,69b960837a1bd02e9f26447e,0.1769,0.177,0,77,77,134,1,eightsix,,,,,,,,,,,,,,,,,,,,,,,,,,,,,,,,,,,,,,,,,,,,,,,,,,,,,,,,,,,,,,,,,,,,,,,,,,,,,,,,,,,,,,,,,,,,,,,,,,,,,,,,,,,,,,,,,,,,,,,,,,,,,,,,,,,,,,,,,
,,6669f64ecd7e3ec30632f607,2026-03-17_14h10.34.102,kallum_motion_pilot_GIST_update_2,2026.1.1,Win32,40.32258065,6669f64ecd7e3ec30632f607,69b95efdef24cd8a694e89ee,69b960837a1bd02e9f26447e,0.1777,0.1779,0,78,78,48,1,onetwo,,,,,,,,,,,,,,,,,,,,,,,,,,,,,,,,,,,,,,,,,,,,,,,,,,,,,,,,,,,,,,,,,,,,,,,,,,,,,,,,,,,,,,,,,,,,,,,,,,,,,,,,,,,,,,,,,,,,,,,,,,,,,,,,,,,,,,,,,
,,6669f64ecd7e3ec30632f607,2026-03-17_14h10.34.102,kallum_motion_pilot_GIST_update_2,2026.1.1,Win32,40.32258065,6669f64ecd7e3ec30632f607,69b95efdef24cd8a694e89ee,69b960837a1bd02e9f26447e,0.1785,0.1786,0,79,79,16,1,onetwo,,,,,,,,,,,,,,,,,,,,,,,,,,,,,,,,,,,,,,,,,,,,,,,,,,,,,,,,,,,,,,,,,,,,,,,,,,,,,,,,,,,,,,,,,,,,,,,,,,,,,,,,,,,,,,,,,,,,,,,,,,,,,,,,,,,,,,,,,
,,6669f64ecd7e3ec30632f607,2026-03-17_14h10.34.102,kallum_motion_pilot_GIST_update_2,2026.1.1,Win32,40.32258065,6669f64ecd7e3ec30632f607,69b95efdef24cd8a694e89ee,69b960837a1bd02e9f26447e,0.1794,0.1795,0,80,80,103,1,eightseven,,,,,,,,,,,,,,,,,,,,,,,,,,,,,,,,,,,,,,,,,,,,,,,,,,,,,,,,,,,,,,,,,,,,,,,,,,,,,,,,,,,,,,,,,,,,,,,,,,,,,,,,,,,,,,,,,,,,,,,,,,,,,,,,,,,,,,,,,
,,6669f64ecd7e3ec30632f607,2026-03-17_14h10.34.102,kallum_motion_pilot_GIST_update_2,2026.1.1,Win32,40.32258065,6669f64ecd7e3ec30632f607,69b95efdef24cd8a694e89ee,69b960837a1bd02e9f26447e,0.1803,0.1804,0,81,81,14,1,fourtwo,,,,,,,,,,,,,,,,,,,,,,,,,,,,,,,,,,,,,,,,,,,,,,,,,,,,,,,,,,,,,,,,,,,,,,,,,,,,,,,,,,,,,,,,,,,,,,,,,,,,,,,,,,,,,,,,,,,,,,,,,,,,,,,,,,,,,,,,,
,,6669f64ecd7e3ec30632f607,2026-03-17_14h10.34.102,kallum_motion_pilot_GIST_update_2,2026.1.1,Win32,40.32258065,6669f64ecd7e3ec30632f607,69b95efdef24cd8a694e89ee,69b960837a1bd02e9f26447e,0.1812,0.1813,0,82,82,60,1,threeone,,,,,,,,,,,,,,,,,,,,,,,,,,,,,,,,,,,,,,,,,,,,,,,,,,,,,,,,,,,,,,,,,,,,,,,,,,,,,,,,,,,,,,,,,,,,,,,,,,,,,,,,,,,,,,,,,,,,,,,,,,,,,,,,,,,,,,,,,
,,6669f64ecd7e3ec30632f607,2026-03-17_14h10.34.102,kallum_motion_pilot_GIST_update_2,2026.1.1,Win32,40.32258065,6669f64ecd7e3ec30632f607,69b95efdef24cd8a694e89ee,69b960837a1bd02e9f26447e,0.1822,0.1822,0,83,83,5,1,threefour,,,,,,,,,,,,,,,,,,,,,,,,,,,,,,,,,,,,,,,,,,,,,,,,,,,,,,,,,,,,,,,,,,,,,,,,,,,,,,,,,,,,,,,,,,,,,,,,,,,,,,,,,,,,,,,,,,,,,,,,,,,,,,,,,,,,,,,,,
,,6669f64ecd7e3ec30632f607,2026-03-17_14h10.34.102,kallum_motion_pilot_GIST_update_2,2026.1.1,Win32,40.32258065,6669f64ecd7e3ec30632f607,69b95efdef24cd8a694e89ee,69b960837a1bd02e9f26447e,0.183,0.1831,0,84,84,121,1,fiveseven,,,,,,,,,,,,,,,,,,,,,,,,,,,,,,,,,,,,,,,,,,,,,,,,,,,,,,,,,,,,,,,,,,,,,,,,,,,,,,,,,,,,,,,,,,,,,,,,,,,,,,,,,,,,,,,,,,,,,,,,,,,,,,,,,,,,,,,,,
,,6669f64ecd7e3ec30632f607,2026-03-17_14h10.34.102,kallum_motion_pilot_GIST_update_2,2026.1.1,Win32,40.32258065,6669f64ecd7e3ec30632f607,69b95efdef24cd8a694e89ee,69b960837a1bd02e9f26447e,0.184,0.1841,0,85,85,67,1,twofour,,,,,,,,,,,,,,,,,,,,,,,,,,,,,,,,,,,,,,,,,,,,,,,,,,,,,,,,,,,,,,,,,,,,,,,,,,,,,,,,,,,,,,,,,,,,,,,,,,,,,,,,,,,,,,,,,,,,,,,,,,,,,,,,,,,,,,,,,
,,6669f64ecd7e3ec30632f607,2026-03-17_14h10.34.102,kallum_motion_pilot_GIST_update_2,2026.1.1,Win32,40.32258065,6669f64ecd7e3ec30632f607,69b95efdef24cd8a694e89ee,69b960837a1bd02e9f26447e,0.1848,0.1848,0,86,86,94,1,eightsix,,,,,,,,,,,,,,,,,,,,,,,,,,,,,,,,,,,,,,,,,,,,,,,,,,,,,,,,,,,,,,,,,,,,,,,,,,,,,,,,,,,,,,,,,,,,,,,,,,,,,,,,,,,,,,,,,,,,,,,,,,,,,,,,,,,,,,,,,
,,6669f64ecd7e3ec30632f607,2026-03-17_14h10.34.102,kallum_motion_pilot_GIST_update_2,2026.1.1,Win32,40.32258065,6669f64ecd7e3ec30632f607,69b95efdef24cd8a694e89ee,69b960837a1bd02e9f26447e,0.186,0.186,0,87,87,138,1,sixfive,,,,,,,,,,,,,,,,,,,,,,,,,,,,,,,,,,,,,,,,,,,,,,,,,,,,,,,,,,,,,,,,,,,,,,,,,,,,,,,,,,,,,,,,,,,,,,,,,,,,,,,,,,,,,,,,,,,,,,,,,,,,,,,,,,,,,,,,,
,,6669f64ecd7e3ec30632f607,2026-03-17_14h10.34.102,kallum_motion_pilot_GIST_update_2,2026.1.1,Win32,40.32258065,6669f64ecd7e3ec30632f607,69b95efdef24cd8a694e89ee,69b960837a1bd02e9f26447e,0.1868,0.1868,0,88,88,143,1,eightseven,,,,,,,,,,,,,,,,,,,,,,,,,,,,,,,,,,,,,,,,,,,,,,,,,,,,,,,,,,,,,,,,,,,,,,,,,,,,,,,,,,,,,,,,,,,,,,,,,,,,,,,,,,,,,,,,,,,,,,,,,,,,,,,,,,,,,,,,,
,,6669f64ecd7e3ec30632f607,2026-03-17_14h10.34.102,kallum_motion_pilot_GIST_update_2,2026.1.1,Win32,40.32258065,6669f64ecd7e3ec30632f607,69b95efdef24cd8a694e89ee,69b960837a1bd02e9f26447e,0.1875,0.1876,0,89,89,18,1,twoone,,,,,,,,,,,,,,,,,,,,,,,,,,,,,,,,,,,,,,,,,,,,,,,,,,,,,,,,,,,,,,,,,,,,,,,,,,,,,,,,,,,,,,,,,,,,,,,,,,,,,,,,,,,,,,,,,,,,,,,,,,,,,,,,,,,,,,,,,
,,6669f64ecd7e3ec30632f607,2026-03-17_14h10.34.102,kallum_motion_pilot_GIST_update_2,2026.1.1,Win32,40.32258065,6669f64ecd7e3ec30632f607,69b95efdef24cd8a694e89ee,69b960837a1bd02e9f26447e,0.1884,0.1885,0,90,90,154,1,sixfive,,,,,,,,,,,,,,,,,,,,,,,,,,,,,,,,,,,,,,,,,,,,,,,,,,,,,,,,,,,,,,,,,,,,,,,,,,,,,,,,,,,,,,,,,,,,,,,,,,,,,,,,,,,,,,,,,,,,,,,,,,,,,,,,,,,,,,,,,
,,6669f64ecd7e3ec30632f607,2026-03-17_14h10.34.102,kallum_motion_pilot_GIST_update_2,2026.1.1,Win32,40.32258065,6669f64ecd7e3ec30632f607,69b95efdef24cd8a694e89ee,69b960837a1bd02e9f26447e,0.1892,0.1894,0,91,91,144,1,fivesix,,,,,,,,,,,,,,,,,,,,,,,,,,,,,,,,,,,,,,,,,,,,,,,,,,,,,,,,,,,,,,,,,,,,,,,,,,,,,,,,,,,,,,,,,,,,,,,,,,,,,,,,,,,,,,,,,,,,,,,,,,,,,,,,,,,,,,,,,
,,6669f64ecd7e3ec30632f607,2026-03-17_14h10.34.102,kallum_motion_pilot_GIST_update_2,2026.1.1,Win32,40.32258065,6669f64ecd7e3ec30632f607,69b95efdef24cd8a694e89ee,69b960837a1bd02e9f26447e,0.1901,0.1902,0,92,92,142,1,eightsix,,,,,,,,,,,,,,,,,,,,,,,,,,,,,,,,,,,,,,,,,,,,,,,,,,,,,,,,,,,,,,,,,,,,,,,,,,,,,,,,,,,,,,,,,,,,,,,,,,,,,,,,,,,,,,,,,,,,,,,,,,,,,,,,,,,,,,,,,
,,6669f64ecd7e3ec30632f607,2026-03-17_14h10.34.102,kallum_motion_pilot_GIST_update_2,2026.1.1,Win32,40.32258065,6669f64ecd7e3ec30632f607,69b95efdef24cd8a694e89ee,69b960837a1bd02e9f26447e,0.1911,0.1912,0,93,93,40,1,onetwo,,,,,,,,,,,,,,,,,,,,,,,,,,,,,,,,,,,,,,,,,,,,,,,,,,,,,,,,,,,,,,,,,,,,,,,,,,,,,,,,,,,,,,,,,,,,,,,,,,,,,,,,,,,,,,,,,,,,,,,,,,,,,,,,,,,,,,,,,
,,6669f64ecd7e3ec30632f607,2026-03-17_14h10.34.102,kallum_motion_pilot_GIST_update_2,2026.1.1,Win32,40.32258065,6669f64ecd7e3ec30632f607,69b95efdef24cd8a694e89ee,69b960837a1bd02e9f26447e,0.192,0.1922,0,94,94,19,1,twofour,,,,,,,,,,,,,,,,,,,,,,,,,,,,,,,,,,,,,,,,,,,,,,,,,,,,,,,,,,,,,,,,,,,,,,,,,,,,,,,,,,,,,,,,,,,,,,,,,,,,,,,,,,,,,,,,,,,,,,,,,,,,,,,,,,,,,,,,,
,,6669f64ecd7e3ec30632f607,2026-03-17_14h10.34.102,kallum_motion_pilot_GIST_update_2,2026.1.1,Win32,40.32258065,6669f64ecd7e3ec30632f607,69b95efdef24cd8a694e89ee,69b960837a1bd02e9f26447e,0.1929,0.193,0,95,95,85,1,seveneight,,,,,,,,,,,,,,,,,,,,,,,,,,,,,,,,,,,,,,,,,,,,,,,,,,,,,,,,,,,,,,,,,,,,,,,,,,,,,,,,,,,,,,,,,,,,,,,,,,,,,,,,,,,,,,,,,,,,,,,,,,,,,,,,,,,,,,,,,
,,6669f64ecd7e3ec30632f607,2026-03-17_14h10.34.102,kallum_motion_pilot_GIST_update_2,2026.1.1,Win32,40.32258065,6669f64ecd7e3ec30632f607,69b95efdef24cd8a694e89ee,69b960837a1bd02e9f26447e,0.1938,0.1939,0,96,96,74,1,twoone,,,,,,,,,,,,,,,,,,,,,,,,,,,,,,,,,,,,,,,,,,,,,,,,,,,,,,,,,,,,,,,,,,,,,,,,,,,,,,,,,,,,,,,,,,,,,,,,,,,,,,,,,,,,,,,,,,,,,,,,,,,,,,,,,,,,,,,,,
,,6669f64ecd7e3ec30632f607,2026-03-17_14h10.34.102,kallum_motion_pilot_GIST_update_2,2026.1.1,Win32,40.32258065,6669f64ecd7e3ec30632f607,69b95efdef24cd8a694e89ee,69b960837a1bd02e9f26447e,0.1946,0.1947,0,97,97,63,1,fourthree,,,,,,,,,,,,,,,,,,,,,,,,,,,,,,,,,,,,,,,,,,,,,,,,,,,,,,,,,,,,,,,,,,,,,,,,,,,,,,,,,,,,,,,,,,,,,,,,,,,,,,,,,,,,,,,,,,,,,,,,,,,,,,,,,,,,,,,,,
,,6669f64ecd7e3ec30632f607,2026-03-17_14h10.34.102,kallum_motion_pilot_GIST_update_2,2026.1.1,Win32,40.32258065,6669f64ecd7e3ec30632f607,69b95efdef24cd8a694e89ee,69b960837a1bd02e9f26447e,0.1954,0.1955,0,98,98,71,1,fourthree,,,,,,,,,,,,,,,,,,,,,,,,,,,,,,,,,,,,,,,,,,,,,,,,,,,,,,,,,,,,,,,,,,,,,,,,,,,,,,,,,,,,,,,,,,,,,,,,,,,,,,,,,,,,,,,,,,,,,,,,,,,,,,,,,,,,,,,,,
,,6669f64ecd7e3ec30632f607,2026-03-17_14h10.34.102,kallum_motion_pilot_GIST_update_2,2026.1.1,Win32,40.32258065,6669f64ecd7e3ec30632f607,69b95efdef24cd8a694e89ee,69b960837a1bd02e9f26447e,0.1963,0.1964,0,99,99,73,1,onethree,,,,,,,,,,,,,,,,,,,,,,,,,,,,,,,,,,,,,,,,,,,,,,,,,,,,,,,,,,,,,,,,,,,,,,,,,,,,,,,,,,,,,,,,,,,,,,,,,,,,,,,,,,,,,,,,,,,,,,,,,,,,,,,,,,,,,,,,,
,,6669f64ecd7e3ec30632f607,2026-03-17_14h10.34.102,kallum_motion_pilot_GIST_update_2,2026.1.1,Win32,40.32258065,6669f64ecd7e3ec30632f607,69b95efdef24cd8a694e89ee,69b960837a1bd02e9f26447e,0.1972,0.1973,0,100,100,139,1,sixeight,,,,,,,,,,,,,,,,,,,,,,,,,,,,,,,,,,,,,,,,,,,,,,,,,,,,,,,,,,,,,,,,,,,,,,,,,,,,,,,,,,,,,,,,,,,,,,,,,,,,,,,,,,,,,,,,,,,,,,,,,,,,,,,,,,,,,,,,,
,,6669f64ecd7e3ec30632f607,2026-03-17_14h10.34.102,kallum_motion_pilot_GIST_update_2,2026.1.1,Win32,40.32258065,6669f64ecd7e3ec30632f607,69b95efdef24cd8a694e89ee,69b960837a1bd02e9f26447e,0.1981,0.1981,0,101,101,140,1,sevenfive,,,,,,,,,,,,,,,,,,,,,,,,,,,,,,,,,,,,,,,,,,,,,,,,,,,,,,,,,,,,,,,,,,,,,,,,,,,,,,,,,,,,,,,,,,,,,,,,,,,,,,,,,,,,,,,,,,,,,,,,,,,,,,,,,,,,,,,,,
,,6669f64ecd7e3ec30632f607,2026-03-17_14h10.34.102,kallum_motion_pilot_GIST_update_2,2026.1.1,Win32,40.32258065,6669f64ecd7e3ec30632f607,69b95efdef24cd8a694e89ee,69b960837a1bd02e9f26447e,0.1989,0.1989,0,102,102,69,1,threefour,,,,,,,,,,,,,,,,,,,,,,,,,,,,,,,,,,,,,,,,,,,,,,,,,,,,,,,,,,,,,,,,,,,,,,,,,,,,,,,,,,,,,,,,,,,,,,,,,,,,,,,,,,,,,,,,,,,,,,,,,,,,,,,,,,,,,,,,,
,,6669f64ecd7e3ec30632f607,2026-03-17_14h10.34.102,kallum_motion_pilot_GIST_update_2,2026.1.1,Win32,40.32258065,6669f64ecd7e3ec30632f607,69b95efdef24cd8a694e89ee,69b960837a1bd02e9f26447e,0.1998,0.1998,0,103,103,96,1,fivesix,,,,,,,,,,,,,,,,,,,,,,,,,,,,,,,,,,,,,,,,,,,,,,,,,,,,,,,,,,,,,,,,,,,,,,,,,,,,,,,,,,,,,,,,,,,,,,,,,,,,,,,,,,,,,,,,,,,,,,,,,,,,,,,,,,,,,,,,,
,,6669f64ecd7e3ec30632f607,2026-03-17_14h10.34.102,kallum_motion_pilot_GIST_update_2,2026.1.1,Win32,40.32258065,6669f64ecd7e3ec30632f607,69b95efdef24cd8a694e89ee,69b960837a1bd02e9f26447e,0.2011,0.2012,0,104,104,72,1,onetwo,,,,,,,,,,,,,,,,,,,,,,,,,,,,,,,,,,,,,,,,,,,,,,,,,,,,,,,,,,,,,,,,,,,,,,,,,,,,,,,,,,,,,,,,,,,,,,,,,,,,,,,,,,,,,,,,,,,,,,,,,,,,,,,,,,,,,,,,,
,,6669f64ecd7e3ec30632f607,2026-03-17_14h10.34.102,kallum_motion_pilot_GIST_update_2,2026.1.1,Win32,40.32258065,6669f64ecd7e3ec30632f607,69b95efdef24cd8a694e89ee,69b960837a1bd02e9f26447e,0.202,0.2022,0,105,105,91,1,sixeight,,,,,,,,,,,,,,,,,,,,,,,,,,,,,,,,,,,,,,,,,,,,,,,,,,,,,,,,,,,,,,,,,,,,,,,,,,,,,,,,,,,,,,,,,,,,,,,,,,,,,,,,,,,,,,,,,,,,,,,,,,,,,,,,,,,,,,,,,
,,6669f64ecd7e3ec30632f607,2026-03-17_14h10.34.102,kallum_motion_pilot_GIST_update_2,2026.1.1,Win32,40.32258065,6669f64ecd7e3ec30632f607,69b95efdef24cd8a694e89ee,69b960837a1bd02e9f26447e,0.2029,0.203,0,106,106,126,1,eightsix,,,,,,,,,,,,,,,,,,,,,,,,,,,,,,,,,,,,,,,,,,,,,,,,,,,,,,,,,,,,,,,,,,,,,,,,,,,,,,,,,,,,,,,,,,,,,,,,,,,,,,,,,,,,,,,,,,,,,,,,,,,,,,,,,,,,,,,,,
,,6669f64ecd7e3ec30632f607,2026-03-17_14h10.34.102,kallum_motion_pilot_GIST_update_2,2026.1.1,Win32,40.32258065,6669f64ecd7e3ec30632f607,69b95efdef24cd8a694e89ee,69b960837a1bd02e9f26447e,0.2038,0.2039,0,107,107,155,1,sixeight,,,,,,,,,,,,,,,,,,,,,,,,,,,,,,,,,,,,,,,,,,,,,,,,,,,,,,,,,,,,,,,,,,,,,,,,,,,,,,,,,,,,,,,,,,,,,,,,,,,,,,,,,,,,,,,,,,,,,,,,,,,,,,,,,,,,,,,,,
,,6669f64ecd7e3ec30632f607,2026-03-17_14h10.34.102,kallum_motion_pilot_GIST_update_2,2026.1.1,Win32,40.32258065,6669f64ecd7e3ec30632f607,69b95efdef24cd8a694e89ee,69b960837a1bd02e9f26447e,0.2046,0.2047,0,108,108,49,1,onethree,,,,,,,,,,,,,,,,,,,,,,,,,,,,,,,,,,,,,,,,,,,,,,,,,,,,,,,,,,,,,,,,,,,,,,,,,,,,,,,,,,,,,,,,,,,,,,,,,,,,,,,,,,,,,,,,,,,,,,,,,,,,,,,,,,,,,,,,,
,,6669f64ecd7e3ec30632f607,2026-03-17_14h10.34.102,kallum_motion_pilot_GIST_update_2,2026.1.1,Win32,40.32258065,6669f64ecd7e3ec30632f607,69b95efdef24cd8a694e89ee,69b960837a1bd02e9f26447e,0.2055,0.2056,0,109,109,81,1,fiveseven,,,,,,,,,,,,,,,,,,,,,,,,,,,,,,,,,,,,,,,,,,,,,,,,,,,,,,,,,,,,,,,,,,,,,,,,,,,,,,,,,,,,,,,,,,,,,,,,,,,,,,,,,,,,,,,,,,,,,,,,,,,,,,,,,,,,,,,,,
,,6669f64ecd7e3ec30632f607,2026-03-17_14h10.34.102,kallum_motion_pilot_GIST_update_2,2026.1.1,Win32,40.32258065,6669f64ecd7e3ec30632f607,69b95efdef24cd8a694e89ee,69b960837a1bd02e9f26447e,0.2063,0.2063,0,110,110,118,1,eightsix,,,,,,,,,,,,,,,,,,,,,,,,,,,,,,,,,,,,,,,,,,,,,,,,,,,,,,,,,,,,,,,,,,,,,,,,,,,,,,,,,,,,,,,,,,,,,,,,,,,,,,,,,,,,,,,,,,,,,,,,,,,,,,,,,,,,,,,,,
,,6669f64ecd7e3ec30632f607,2026-03-17_14h10.34.102,kallum_motion_pilot_GIST_update_2,2026.1.1,Win32,40.32258065,6669f64ecd7e3ec30632f607,69b95efdef24cd8a694e89ee,69b960837a1bd02e9f26447e,0.2071,0.2072,0,111,111,46,1,fourtwo,,,,,,,,,,,,,,,,,,,,,,,,,,,,,,,,,,,,,,,,,,,,,,,,,,,,,,,,,,,,,,,,,,,,,,,,,,,,,,,,,,,,,,,,,,,,,,,,,,,,,,,,,,,,,,,,,,,,,,,,,,,,,,,,,,,,,,,,,
,,6669f64ecd7e3ec30632f607,2026-03-17_14h10.34.102,kallum_motion_pilot_GIST_update_2,2026.1.1,Win32,40.32258065,6669f64ecd7e3ec30632f607,69b95efdef24cd8a694e89ee,69b960837a1bd02e9f26447e,0.2079,0.2081,0,112,112,65,1,onethree,,,,,,,,,,,,,,,,,,,,,,,,,,,,,,,,,,,,,,,,,,,,,,,,,,,,,,,,,,,,,,,,,,,,,,,,,,,,,,,,,,,,,,,,,,,,,,,,,,,,,,,,,,,,,,,,,,,,,,,,,,,,,,,,,,,,,,,,,
,,6669f64ecd7e3ec30632f607,2026-03-17_14h10.34.102,kallum_motion_pilot_GIST_update_2,2026.1.1,Win32,40.32258065,6669f64ecd7e3ec30632f607,69b95efdef24cd8a694e89ee,69b960837a1bd02e9f26447e,0.2089,0.209,0,113,113,15,1,fourthree,,,,,,,,,,,,,,,,,,,,,,,,,,,,,,,,,,,,,,,,,,,,,,,,,,,,,,,,,,,,,,,,,,,,,,,,,,,,,,,,,,,,,,,,,,,,,,,,,,,,,,,,,,,,,,,,,,,,,,,,,,,,,,,,,,,,,,,,,
,,6669f64ecd7e3ec30632f607,2026-03-17_14h10.34.102,kallum_motion_pilot_GIST_update_2,2026.1.1,Win32,40.32258065,6669f64ecd7e3ec30632f607,69b95efdef24cd8a694e89ee,69b960837a1bd02e9f26447e,0.2105,0.2107,0,114,114,24,1,onetwo,,,,,,,,,,,,,,,,,,,,,,,,,,,,,,,,,,,,,,,,,,,,,,,,,,,,,,,,,,,,,,,,,,,,,,,,,,,,,,,,,,,,,,,,,,,,,,,,,,,,,,,,,,,,,,,,,,,,,,,,,,,,,,,,,,,,,,,,,
,,6669f64ecd7e3ec30632f607,2026-03-17_14h10.34.102,kallum_motion_pilot_GIST_update_2,2026.1.1,Win32,40.32258065,6669f64ecd7e3ec30632f607,69b95efdef24cd8a694e89ee,69b960837a1bd02e9f26447e,0.2115,0.2115,0,115,115,3,1,twofour,,,,,,,,,,,,,,,,,,,,,,,,,,,,,,,,,,,,,,,,,,,,,,,,,,,,,,,,,,,,,,,,,,,,,,,,,,,,,,,,,,,,,,,,,,,,,,,,,,,,,,,,,,,,,,,,,,,,,,,,,,,,,,,,,,,,,,,,,
,,6669f64ecd7e3ec30632f607,2026-03-17_14h10.34.102,kallum_motion_pilot_GIST_update_2,2026.1.1,Win32,40.32258065,6669f64ecd7e3ec30632f607,69b95efdef24cd8a694e89ee,69b960837a1bd02e9f26447e,0.2123,0.2124,0,116,116,28,1,threeone,,,,,,,,,,,,,,,,,,,,,,,,,,,,,,,,,,,,,,,,,,,,,,,,,,,,,,,,,,,,,,,,,,,,,,,,,,,,,,,,,,,,,,,,,,,,,,,,,,,,,,,,,,,,,,,,,,,,,,,,,,,,,,,,,,,,,,,,,
,,6669f64ecd7e3ec30632f607,2026-03-17_14h10.34.102,kallum_motion_pilot_GIST_update_2,2026.1.1,Win32,40.32258065,6669f64ecd7e3ec30632f607,69b95efdef24cd8a694e89ee,69b960837a1bd02e9f26447e,0.2132,0.2132,0,117,117,52,1,threeone,,,,,,,,,,,,,,,,,,,,,,,,,,,,,,,,,,,,,,,,,,,,,,,,,,,,,,,,,,,,,,,,,,,,,,,,,,,,,,,,,,,,,,,,,,,,,,,,,,,,,,,,,,,,,,,,,,,,,,,,,,,,,,,,,,,,,,,,,
,,6669f64ecd7e3ec30632f607,2026-03-17_14h10.34.102,kallum_motion_pilot_GIST_update_2,2026.1.1,Win32,40.32258065,6669f64ecd7e3ec30632f607,69b95efdef24cd8a694e89ee,69b960837a1bd02e9f26447e,0.214,0.214,0,118,118,32,1,onetwo,,,,,,,,,,,,,,,,,,,,,,,,,,,,,,,,,,,,,,,,,,,,,,,,,,,,,,,,,,,,,,,,,,,,,,,,,,,,,,,,,,,,,,,,,,,,,,,,,,,,,,,,,,,,,,,,,,,,,,,,,,,,,,,,,,,,,,,,,
,,6669f64ecd7e3ec30632f607,2026-03-17_14h10.34.102,kallum_motion_pilot_GIST_update_2,2026.1.1,Win32,40.32258065,6669f64ecd7e3ec30632f607,69b95efdef24cd8a694e89ee,69b960837a1bd02e9f26447e,0.2148,0.2149,0,119,119,153,1,fiveseven,,,,,,,,,,,,,,,,,,,,,,,,,,,,,,,,,,,,,,,,,,,,,,,,,,,,,,,,,,,,,,,,,,,,,,,,,,,,,,,,,,,,,,,,,,,,,,,,,,,,,,,,,,,,,,,,,,,,,,,,,,,,,,,,,,,,,,,,,
,,6669f64ecd7e3ec30632f607,2026-03-17_14h10.34.102,kallum_motion_pilot_GIST_update_2,2026.1.1,Win32,40.32258065,6669f64ecd7e3ec30632f607,69b95efdef24cd8a694e89ee,69b960837a1bd02e9f26447e,0.2155,0.2156,0,120,120,158,1,eightsix,,,,,,,,,,,,,,,,,,,,,,,,,,,,,,,,,,,,,,,,,,,,,,,,,,,,,,,,,,,,,,,,,,,,,,,,,,,,,,,,,,,,,,,,,,,,,,,,,,,,,,,,,,,,,,,,,,,,,,,,,,,,,,,,,,,,,,,,,
,,6669f64ecd7e3ec30632f607,2026-03-17_14h10.34.102,kallum_motion_pilot_GIST_update_2,2026.1.1,Win32,40.32258065,6669f64ecd7e3ec30632f607,69b95efdef24cd8a694e89ee,69b960837a1bd02e9f26447e,0.2169,0.217,0,121,121,93,1,seveneight,,,,,,,,,,,,,,,,,,,,,,,,,,,,,,,,,,,,,,,,,,,,,,,,,,,,,,,,,,,,,,,,,,,,,,,,,,,,,,,,,,,,,,,,,,,,,,,,,,,,,,,,,,,,,,,,,,,,,,,,,,,,,,,,,,,,,,,,,
,,6669f64ecd7e3ec30632f607,2026-03-17_14h10.34.102,kallum_motion_pilot_GIST_update_2,2026.1.1,Win32,40.32258065,6669f64ecd7e3ec30632f607,69b95efdef24cd8a694e89ee,69b960837a1bd02e9f26447e,0.2179,0.2179,0,122,122,161,1,fiveseven,,,,,,,,,,,,,,,,,,,,,,,,,,,,,,,,,,,,,,,,,,,,,,,,,,,,,,,,,,,,,,,,,,,,,,,,,,,,,,,,,,,,,,,,,,,,,,,,,,,,,,,,,,,,,,,,,,,,,,,,,,,,,,,,,,,,,,,,,
,,6669f64ecd7e3ec30632f607,2026-03-17_14h10.34.102,kallum_motion_pilot_GIST_update_2,2026.1.1,Win32,40.32258065,6669f64ecd7e3ec30632f607,69b95efdef24cd8a694e89ee,69b960837a1bd02e9f26447e,0.2188,0.2188,0,123,123,78,1,fourtwo,,,,,,,,,,,,,,,,,,,,,,,,,,,,,,,,,,,,,,,,,,,,,,,,,,,,,,,,,,,,,,,,,,,,,,,,,,,,,,,,,,,,,,,,,,,,,,,,,,,,,,,,,,,,,,,,,,,,,,,,,,,,,,,,,,,,,,,,,
,,6669f64ecd7e3ec30632f607,2026-03-17_14h10.34.102,kallum_motion_pilot_GIST_update_2,2026.1.1,Win32,40.32258065,6669f64ecd7e3ec30632f607,69b95efdef24cd8a694e89ee,69b960837a1bd02e9f26447e,0.2197,0.2198,0,124,124,87,1,eightseven,,,,,,,,,,,,,,,,,,,,,,,,,,,,,,,,,,,,,,,,,,,,,,,,,,,,,,,,,,,,,,,,,,,,,,,,,,,,,,,,,,,,,,,,,,,,,,,,,,,,,,,,,,,,,,,,,,,,,,,,,,,,,,,,,,,,,,,,,
,,6669f64ecd7e3ec30632f607,2026-03-17_14h10.34.102,kallum_motion_pilot_GIST_update_2,2026.1.1,Win32,40.32258065,6669f64ecd7e3ec30632f607,69b95efdef24cd8a694e89ee,69b960837a1bd02e9f26447e,0.2223,0.2224,0,125,125,12,1,threeone,,,,,,,,,,,,,,,,,,,,,,,,,,,,,,,,,,,,,,,,,,,,,,,,,,,,,,,,,,,,,,,,,,,,,,,,,,,,,,,,,,,,,,,,,,,,,,,,,,,,,,,,,,,,,,,,,,,,,,,,,,,,,,,,,,,,,,,,,
,,6669f64ecd7e3ec30632f607,2026-03-17_14h10.34.102,kallum_motion_pilot_GIST_update_2,2026.1.1,Win32,40.32258065,6669f64ecd7e3ec30632f607,69b95efdef24cd8a694e89ee,69b960837a1bd02e9f26447e,0.2236,0.2237,0,126,126,150,1,eightsix,,,,,,,,,,,,,,,,,,,,,,,,,,,,,,,,,,,,,,,,,,,,,,,,,,,,,,,,,,,,,,,,,,,,,,,,,,,,,,,,,,,,,,,,,,,,,,,,,,,,,,,,,,,,,,,,,,,,,,,,,,,,,,,,,,,,,,,,,
,,6669f64ecd7e3ec30632f607,2026-03-17_14h10.34.102,kallum_motion_pilot_GIST_update_2,2026.1.1,Win32,40.32258065,6669f64ecd7e3ec30632f607,69b95efdef24cd8a694e89ee,69b960837a1bd02e9f26447e,0.2252,0.2253,0,127,127,66,1,twoone,,,,,,,,,,,,,,,,,,,,,,,,,,,,,,,,,,,,,,,,,,,,,,,,,,,,,,,,,,,,,,,,,,,,,,,,,,,,,,,,,,,,,,,,,,,,,,,,,,,,,,,,,,,,,,,,,,,,,,,,,,,,,,,,,,,,,,,,,
,,6669f64ecd7e3ec30632f607,2026-03-17_14h10.34.102,kallum_motion_pilot_GIST_update_2,2026.1.1,Win32,40.32258065,6669f64ecd7e3ec30632f607,69b95efdef24cd8a694e89ee,69b960837a1bd02e9f26447e,0.2261,0.2262,0,128,128,34,1,twoone,,,,,,,,,,,,,,,,,,,,,,,,,,,,,,,,,,,,,,,,,,,,,,,,,,,,,,,,,,,,,,,,,,,,,,,,,,,,,,,,,,,,,,,,,,,,,,,,,,,,,,,,,,,,,,,,,,,,,,,,,,,,,,,,,,,,,,,,,
,,6669f64ecd7e3ec30632f607,2026-03-17_14h10.34.102,kallum_motion_pilot_GIST_update_2,2026.1.1,Win32,40.32258065,6669f64ecd7e3ec30632f607,69b95efdef24cd8a694e89ee,69b960837a1bd02e9f26447e,0.227,0.2271,0,129,129,82,1,sixfive,,,,,,,,,,,,,,,,,,,,,,,,,,,,,,,,,,,,,,,,,,,,,,,,,,,,,,,,,,,,,,,,,,,,,,,,,,,,,,,,,,,,,,,,,,,,,,,,,,,,,,,,,,,,,,,,,,,,,,,,,,,,,,,,,,,,,,,,,
,,6669f64ecd7e3ec30632f607,2026-03-17_14h10.34.102,kallum_motion_pilot_GIST_update_2,2026.1.1,Win32,40.32258065,6669f64ecd7e3ec30632f607,69b95efdef24cd8a694e89ee,69b960837a1bd02e9f26447e,0.2279,0.228,0,130,130,122,1,sixfive,,,,,,,,,,,,,,,,,,,,,,,,,,,,,,,,,,,,,,,,,,,,,,,,,,,,,,,,,,,,,,,,,,,,,,,,,,,,,,,,,,,,,,,,,,,,,,,,,,,,,,,,,,,,,,,,,,,,,,,,,,,,,,,,,,,,,,,,,
,,6669f64ecd7e3ec30632f607,2026-03-17_14h10.34.102,kallum_motion_pilot_GIST_update_2,2026.1.1,Win32,40.32258065,6669f64ecd7e3ec30632f607,69b95efdef24cd8a694e89ee,69b960837a1bd02e9f26447e,0.2288,0.2289,0,131,131,84,1,sevenfive,,,,,,,,,,,,,,,,,,,,,,,,,,,,,,,,,,,,,,,,,,,,,,,,,,,,,,,,,,,,,,,,,,,,,,,,,,,,,,,,,,,,,,,,,,,,,,,,,,,,,,,,,,,,,,,,,,,,,,,,,,,,,,,,,,,,,,,,,
,,6669f64ecd7e3ec30632f607,2026-03-17_14h10.34.102,kallum_motion_pilot_GIST_update_2,2026.1.1,Win32,40.32258065,6669f64ecd7e3ec30632f607,69b95efdef24cd8a694e89ee,69b960837a1bd02e9f26447e,0.2304,0.2304,0,132,132,29,1,threefour,,,,,,,,,,,,,,,,,,,,,,,,,,,,,,,,,,,,,,,,,,,,,,,,,,,,,,,,,,,,,,,,,,,,,,,,,,,,,,,,,,,,,,,,,,,,,,,,,,,,,,,,,,,,,,,,,,,,,,,,,,,,,,,,,,,,,,,,,
,,6669f64ecd7e3ec30632f607,2026-03-17_14h10.34.102,kallum_motion_pilot_GIST_update_2,2026.1.1,Win32,40.32258065,6669f64ecd7e3ec30632f607,69b95efdef24cd8a694e89ee,69b960837a1bd02e9f26447e,0.2318,0.2319,0,133,133,109,1,seveneight,,,,,,,,,,,,,,,,,,,,,,,,,,,,,,,,,,,,,,,,,,,,,,,,,,,,,,,,,,,,,,,,,,,,,,,,,,,,,,,,,,,,,,,,,,,,,,,,,,,,,,,,,,,,,,,,,,,,,,,,,,,,,,,,,,,,,,,,,
,,6669f64ecd7e3ec30632f607,2026-03-17_14h10.34.102,kallum_motion_pilot_GIST_update_2,2026.1.1,Win32,40.32258065,6669f64ecd7e3ec30632f607,69b95efdef24cd8a694e89ee,69b960837a1bd02e9f26447e,0.2326,0.2328,0,134,134,43,1,twofour,,,,,,,,,,,,,,,,,,,,,,,,,,,,,,,,,,,,,,,,,,,,,,,,,,,,,,,,,,,,,,,,,,,,,,,,,,,,,,,,,,,,,,,,,,,,,,,,,,,,,,,,,,,,,,,,,,,,,,,,,,,,,,,,,,,,,,,,,
,,6669f64ecd7e3ec30632f607,2026-03-17_14h10.34.102,kallum_motion_pilot_GIST_update_2,2026.1.1,Win32,40.32258065,6669f64ecd7e3ec30632f607,69b95efdef24cd8a694e89ee,69b960837a1bd02e9f26447e,0.2338,0.2338,0,135,135,86,1,eightsix,,,,,,,,,,,,,,,,,,,,,,,,,,,,,,,,,,,,,,,,,,,,,,,,,,,,,,,,,,,,,,,,,,,,,,,,,,,,,,,,,,,,,,,,,,,,,,,,,,,,,,,,,,,,,,,,,,,,,,,,,,,,,,,,,,,,,,,,,
,,6669f64ecd7e3ec30632f607,2026-03-17_14h10.34.102,kallum_motion_pilot_GIST_update_2,2026.1.1,Win32,40.32258065,6669f64ecd7e3ec30632f607,69b95efdef24cd8a694e89ee,69b960837a1bd02e9f26447e,0.2347,0.2348,0,136,136,95,1,eightseven,,,,,,,,,,,,,,,,,,,,,,,,,,,,,,,,,,,,,,,,,,,,,,,,,,,,,,,,,,,,,,,,,,,,,,,,,,,,,,,,,,,,,,,,,,,,,,,,,,,,,,,,,,,,,,,,,,,,,,,,,,,,,,,,,,,,,,,,,
,,6669f64ecd7e3ec30632f607,2026-03-17_14h10.34.102,kallum_motion_pilot_GIST_update_2,2026.1.1,Win32,40.32258065,6669f64ecd7e3ec30632f607,69b95efdef24cd8a694e89ee,69b960837a1bd02e9f26447e,0.2357,0.2359,0,137,137,10,1,twoone,,,,,,,,,,,,,,,,,,,,,,,,,,,,,,,,,,,,,,,,,,,,,,,,,,,,,,,,,,,,,,,,,,,,,,,,,,,,,,,,,,,,,,,,,,,,,,,,,,,,,,,,,,,,,,,,,,,,,,,,,,,,,,,,,,,,,,,,,
,,6669f64ecd7e3ec30632f607,2026-03-17_14h10.34.102,kallum_motion_pilot_GIST_update_2,2026.1.1,Win32,40.32258065,6669f64ecd7e3ec30632f607,69b95efdef24cd8a694e89ee,69b960837a1bd02e9f26447e,0.237,0.2371,0,138,138,147,1,sixeight,,,,,,,,,,,,,,,,,,,,,,,,,,,,,,,,,,,,,,,,,,,,,,,,,,,,,,,,,,,,,,,,,,,,,,,,,,,,,,,,,,,,,,,,,,,,,,,,,,,,,,,,,,,,,,,,,,,,,,,,,,,,,,,,,,,,,,,,,
,,6669f64ecd7e3ec30632f607,2026-03-17_14h10.34.102,kallum_motion_pilot_GIST_update_2,2026.1.1,Win32,40.32258065,6669f64ecd7e3ec30632f607,69b95efdef24cd8a694e89ee,69b960837a1bd02e9f26447e,0.238,0.2381,0,139,139,127,1,eightseven,,,,,,,,,,,,,,,,,,,,,,,,,,,,,,,,,,,,,,,,,,,,,,,,,,,,,,,,,,,,,,,,,,,,,,,,,,,,,,,,,,,,,,,,,,,,,,,,,,,,,,,,,,,,,,,,,,,,,,,,,,,,,,,,,,,,,,,,,
,,6669f64ecd7e3ec30632f607,2026-03-17_14h10.34.102,kallum_motion_pilot_GIST_update_2,2026.1.1,Win32,40.32258065,6669f64ecd7e3ec30632f607,69b95efdef24cd8a694e89ee,69b960837a1bd02e9f26447e,0.2391,0.2392,0,140,140,45,1,threefour,,,,,,,,,,,,,,,,,,,,,,,,,,,,,,,,,,,,,,,,,,,,,,,,,,,,,,,,,,,,,,,,,,,,,,,,,,,,,,,,,,,,,,,,,,,,,,,,,,,,,,,,,,,,,,,,,,,,,,,,,,,,,,,,,,,,,,,,,
,,6669f64ecd7e3ec30632f607,2026-03-17_14h10.34.102,kallum_motion_pilot_GIST_update_2,2026.1.1,Win32,40.32258065,6669f64ecd7e3ec30632f607,69b95efdef24cd8a694e89ee,69b960837a1bd02e9f26447e,0.2439,0.2439,0,141,141,108,1,sevenfive,,,,,,,,,,,,,,,,,,,,,,,,,,,,,,,,,,,,,,,,,,,,,,,,,,,,,,,,,,,,,,,,,,,,,,,,,,,,,,,,,,,,,,,,,,,,,,,,,,,,,,,,,,,,,,,,,,,,,,,,,,,,,,,,,,,,,,,,,
,,6669f64ecd7e3ec30632f607,2026-03-17_14h10.34.102,kallum_motion_pilot_GIST_update_2,2026.1.1,Win32,40.32258065,6669f64ecd7e3ec30632f607,69b95efdef24cd8a694e89ee,69b960837a1bd02e9f26447e,0.2449,0.245,0,142,142,117,1,seveneight,,,,,,,,,,,,,,,,,,,,,,,,,,,,,,,,,,,,,,,,,,,,,,,,,,,,,,,,,,,,,,,,,,,,,,,,,,,,,,,,,,,,,,,,,,,,,,,,,,,,,,,,,,,,,,,,,,,,,,,,,,,,,,,,,,,,,,,,,
,,6669f64ecd7e3ec30632f607,2026-03-17_14h10.34.102,kallum_motion_pilot_GIST_update_2,2026.1.1,Win32,40.32258065,6669f64ecd7e3ec30632f607,69b95efdef24cd8a694e89ee,69b960837a1bd02e9f26447e,0.2458,0.2459,0,143,143,115,1,sixeight,,,,,,,,,,,,,,,,,,,,,,,,,,,,,,,,,,,,,,,,,,,,,,,,,,,,,,,,,,,,,,,,,,,,,,,,,,,,,,,,,,,,,,,,,,,,,,,,,,,,,,,,,,,,,,,,,,,,,,,,,,,,,,,,,,,,,,,,,
,,6669f64ecd7e3ec30632f607,2026-03-17_14h10.34.102,kallum_motion_pilot_GIST_update_2,2026.1.1,Win32,40.32258065,6669f64ecd7e3ec30632f607,69b95efdef24cd8a694e89ee,69b960837a1bd02e9f26447e,0.2468,0.247,0,144,144,130,1,sixfive,,,,,,,,,,,,,,,,,,,,,,,,,,,,,,,,,,,,,,,,,,,,,,,,,,,,,,,,,,,,,,,,,,,,,,,,,,,,,,,,,,,,,,,,,,,,,,,,,,,,,,,,,,,,,,,,,,,,,,,,,,,,,,,,,,,,,,,,,
,,6669f64ecd7e3ec30632f607,2026-03-17_14h10.34.102,kallum_motion_pilot_GIST_update_2,2026.1.1,Win32,40.32258065,6669f64ecd7e3ec30632f607,69b95efdef24cd8a694e89ee,69b960837a1bd02e9f26447e,0.2478,0.2478,0,145,145,47,1,fourthree,,,,,,,,,,,,,,,,,,,,,,,,,,,,,,,,,,,,,,,,,,,,,,,,,,,,,,,,,,,,,,,,,,,,,,,,,,,,,,,,,,,,,,,,,,,,,,,,,,,,,,,,,,,,,,,,,,,,,,,,,,,,,,,,,,,,,,,,,
,,6669f64ecd7e3ec30632f607,2026-03-17_14h10.34.102,kallum_motion_pilot_GIST_update_2,2026.1.1,Win32,40.32258065,6669f64ecd7e3ec30632f607,69b95efdef24cd8a694e89ee,69b960837a1bd02e9f26447e,0.2488,0.2488,0,146,146,92,1,sevenfive,,,,,,,,,,,,,,,,,,,,,,,,,,,,,,,,,,,,,,,,,,,,,,,,,,,,,,,,,,,,,,,,,,,,,,,,,,,,,,,,,,,,,,,,,,,,,,,,,,,,,,,,,,,,,,,,,,,,,,,,,,,,,,,,,,,,,,,,,
,,6669f64ecd7e3ec30632f607,2026-03-17_14h10.34.102,kallum_motion_pilot_GIST_update_2,2026.1.1,Win32,40.32258065,6669f64ecd7e3ec30632f607,69b95efdef24cd8a694e89ee,69b960837a1bd02e9f26447e,0.2501,0.2502,0,147,147,61,1,threefour,,,,,,,,,,,,,,,,,,,,,,,,,,,,,,,,,,,,,,,,,,,,,,,,,,,,,,,,,,,,,,,,,,,,,,,,,,,,,,,,,,,,,,,,,,,,,,,,,,,,,,,,,,,,,,,,,,,,,,,,,,,,,,,,,,,,,,,,,
,,6669f64ecd7e3ec30632f607,2026-03-17_14h10.34.102,kallum_motion_pilot_GIST_update_2,2026.1.1,Win32,40.32258065,6669f64ecd7e3ec30632f607,69b95efdef24cd8a694e89ee,69b960837a1bd02e9f26447e,0.2512,0.2512,0,148,148,83,1,sixeight,,,,,,,,,,,,,,,,,,,,,,,,,,,,,,,,,,,,,,,,,,,,,,,,,,,,,,,,,,,,,,,,,,,,,,,,,,,,,,,,,,,,,,,,,,,,,,,,,,,,,,,,,,,,,,,,,,,,,,,,,,,,,,,,,,,,,,,,,
,,6669f64ecd7e3ec30632f607,2026-03-17_14h10.34.102,kallum_motion_pilot_GIST_update_2,2026.1.1,Win32,40.32258065,6669f64ecd7e3ec30632f607,69b95efdef24cd8a694e89ee,69b960837a1bd02e9f26447e,0.2521,0.2522,0,149,149,25,1,onethree,,,,,,,,,,,,,,,,,,,,,,,,,,,,,,,,,,,,,,,,,,,,,,,,,,,,,,,,,,,,,,,,,,,,,,,,,,,,,,,,,,,,,,,,,,,,,,,,,,,,,,,,,,,,,,,,,,,,,,,,,,,,,,,,,,,,,,,,,
,,6669f64ecd7e3ec30632f607,2026-03-17_14h10.34.102,kallum_motion_pilot_GIST_update_2,2026.1.1,Win32,40.32258065,6669f64ecd7e3ec30632f607,69b95efdef24cd8a694e89ee,69b960837a1bd02e9f26447e,0.2534,0.2535,0,150,150,97,1,fiveseven,,,,,,,,,,,,,,,,,,,,,,,,,,,,,,,,,,,,,,,,,,,,,,,,,,,,,,,,,,,,,,,,,,,,,,,,,,,,,,,,,,,,,,,,,,,,,,,,,,,,,,,,,,,,,,,,,,,,,,,,,,,,,,,,,,,,,,,,,
,,6669f64ecd7e3ec30632f607,2026-03-17_14h10.34.102,kallum_motion_pilot_GIST_update_2,2026.1.1,Win32,40.32258065,6669f64ecd7e3ec30632f607,69b95efdef24cd8a694e89ee,69b960837a1bd02e9f26447e,0.2543,0.2544,0,151,151,131,1,sixeight,,,,,,,,,,,,,,,,,,,,,,,,,,,,,,,,,,,,,,,,,,,,,,,,,,,,,,,,,,,,,,,,,,,,,,,,,,,,,,,,,,,,,,,,,,,,,,,,,,,,,,,,,,,,,,,,,,,,,,,,,,,,,,,,,,,,,,,,,
,,6669f64ecd7e3ec30632f607,2026-03-17_14h10.34.102,kallum_motion_pilot_GIST_update_2,2026.1.1,Win32,40.32258065,6669f64ecd7e3ec30632f607,69b95efdef24cd8a694e89ee,69b960837a1bd02e9f26447e,0.2553,0.2553,0,152,152,53,1,threefour,,,,,,,,,,,,,,,,,,,,,,,,,,,,,,,,,,,,,,,,,,,,,,,,,,,,,,,,,,,,,,,,,,,,,,,,,,,,,,,,,,,,,,,,,,,,,,,,,,,,,,,,,,,,,,,,,,,,,,,,,,,,,,,,,,,,,,,,,
,,6669f64ecd7e3ec30632f607,2026-03-17_14h10.34.102,kallum_motion_pilot_GIST_update_2,2026.1.1,Win32,40.32258065,6669f64ecd7e3ec30632f607,69b95efdef24cd8a694e89ee,69b960837a1bd02e9f26447e,0.2569,0.2569,0,153,153,112,1,fivesix,,,,,,,,,,,,,,,,,,,,,,,,,,,,,,,,,,,,,,,,,,,,,,,,,,,,,,,,,,,,,,,,,,,,,,,,,,,,,,,,,,,,,,,,,,,,,,,,,,,,,,,,,,,,,,,,,,,,,,,,,,,,,,,,,,,,,,,,,
,,6669f64ecd7e3ec30632f607,2026-03-17_14h10.34.102,kallum_motion_pilot_GIST_update_2,2026.1.1,Win32,40.32258065,6669f64ecd7e3ec30632f607,69b95efdef24cd8a694e89ee,69b960837a1bd02e9f26447e,0.258,0.258,0,154,154,107,1,sixeight,,,,,,,,,,,,,,,,,,,,,,,,,,,,,,,,,,,,,,,,,,,,,,,,,,,,,,,,,,,,,,,,,,,,,,,,,,,,,,,,,,,,,,,,,,,,,,,,,,,,,,,,,,,,,,,,,,,,,,,,,,,,,,,,,,,,,,,,,
,,6669f64ecd7e3ec30632f607,2026-03-17_14h10.34.102,kallum_motion_pilot_GIST_update_2,2026.1.1,Win32,40.32258065,6669f64ecd7e3ec30632f607,69b95efdef24cd8a694e89ee,69b960837a1bd02e9f26447e,0.2589,0.259,0,155,155,39,1,fourthree,,,,,,,,,,,,,,,,,,,,,,,,,,,,,,,,,,,,,,,,,,,,,,,,,,,,,,,,,,,,,,,,,,,,,,,,,,,,,,,,,,,,,,,,,,,,,,,,,,,,,,,,,,,,,,,,,,,,,,,,,,,,,,,,,,,,,,,,,
,,6669f64ecd7e3ec30632f607,2026-03-17_14h10.34.102,kallum_motion_pilot_GIST_update_2,2026.1.1,Win32,40.32258065,6669f64ecd7e3ec30632f607,69b95efdef24cd8a694e89ee,69b960837a1bd02e9f26447e,0.2598,0.2599,0,156,156,136,1,fivesix,,,,,,,,,,,,,,,,,,,,,,,,,,,,,,,,,,,,,,,,,,,,,,,,,,,,,,,,,,,,,,,,,,,,,,,,,,,,,,,,,,,,,,,,,,,,,,,,,,,,,,,,,,,,,,,,,,,,,,,,,,,,,,,,,,,,,,,,,
,,6669f64ecd7e3ec30632f607,2026-03-17_14h10.34.102,kallum_motion_pilot_GIST_update_2,2026.1.1,Win32,40.32258065,6669f64ecd7e3ec30632f607,69b95efdef24cd8a694e89ee,69b960837a1bd02e9f26447e,0.2616,0.2618,0,157,157,21,1,threefour,,,,,,,,,,,,,,,,,,,,,,,,,,,,,,,,,,,,,,,,,,,,,,,,,,,,,,,,,,,,,,,,,,,,,,,,,,,,,,,,,,,,,,,,,,,,,,,,,,,,,,,,,,,,,,,,,,,,,,,,,,,,,,,,,,,,,,,,,
,,6669f64ecd7e3ec30632f607,2026-03-17_14h10.34.102,kallum_motion_pilot_GIST_update_2,2026.1.1,Win32,40.32258065,6669f64ecd7e3ec30632f607,69b95efdef24cd8a694e89ee,69b960837a1bd02e9f26447e,0.2626,0.2627,0,158,158,100,1,sevenfive,,,,,,,,,,,,,,,,,,,,,,,,,,,,,,,,,,,,,,,,,,,,,,,,,,,,,,,,,,,,,,,,,,,,,,,,,,,,,,,,,,,,,,,,,,,,,,,,,,,,,,,,,,,,,,,,,,,,,,,,,,,,,,,,,,,,,,,,,
,,6669f64ecd7e3ec30632f607,2026-03-17_14h10.34.102,kallum_motion_pilot_GIST_update_2,2026.1.1,Win32,40.32258065,6669f64ecd7e3ec30632f607,69b95efdef24cd8a694e89ee,69b960837a1bd02e9f26447e,0.2636,0.2637,0,159,159,6,1,fourtwo,,,,,,,,,,,,,,,,,,,,,,,,,,,,,,,,,,,,,,,,,,,,,,,,,,,,,,,,,,,,,,,,,,,,,,,,,,,,,,,,,,,,,,,,,,,,,,,,,,,,,,,,,,,,,,,,,,,,,,,,,,,,,,,,,,,,,,,,,
,,6669f64ecd7e3ec30632f607,2026-03-17_14h10.34.102,kallum_motion_pilot_GIST_update_2,2026.1.1,Win32,40.32258065,6669f64ecd7e3ec30632f607,69b95efdef24cd8a694e89ee,69b960837a1bd02e9f26447e,0.2645,0.2646,0,160,160,151,1,eightseven,,,,,,,,,,,,,,,,,,,,,,,,,,,,,,,,,,,,,,,,,,,,,,,,,,,,,,,,,,,,,,,,,,,,,,,,,,,,,,,,,,,,,,,,,,,,,,,,,,,,,,,,,,,,,,,,,,,,,,,,,,,,,,,,,,,,,,,,,
,,6669f64ecd7e3ec30632f607,2026-03-17_14h10.34.102,kallum_motion_pilot_GIST_update_2,2026.1.1,Win32,40.32258065,6669f64ecd7e3ec30632f607,69b95efdef24cd8a694e89ee,69b960837a1bd02e9f26447e,0.2654,0.2655,0,161,161,157,1,seveneight,,,,,,,,,,,,,,,,,,,,,,,,,,,,,,,,,,,,,,,,,,,,,,,,,,,,,,,,,,,,,,,,,,,,,,,,,,,,,,,,,,,,,,,,,,,,,,,,,,,,,,,,,,,,,,,,,,,,,,,,,,,,,,,,,,,,,,,,,
,,6669f64ecd7e3ec30632f607,2026-03-17_14h10.34.102,kallum_motion_pilot_GIST_update_2,2026.1.1,Win32,40.32258065,6669f64ecd7e3ec30632f607,69b95efdef24cd8a694e89ee,69b960837a1bd02e9f26447e,0.2666,0.2669,1,0,162,11,1,twofour,,,,,,,,,,,,,,,,,,,,,,,,,,,,,,,,,,,,,,,,,,,,,,,,,,,,,,,,,,,,,,,,,,,,,,,,,,,,,,,,,,,,,,,,,,,,,,,,,,,,,,,,,,,,,,,,,,,,,,,,,,,,,,,,,,,,,,,,,
,,6669f64ecd7e3ec30632f607,2026-03-17_14h10.34.102,kallum_motion_pilot_GIST_update_2,2026.1.1,Win32,40.32258065,6669f64ecd7e3ec30632f607,69b95efdef24cd8a694e89ee,69b960837a1bd02e9f26447e,0.2677,0.2677,1,1,163,51,1,twofour,,,,,,,,,,,,,,,,,,,,,,,,,,,,,,,,,,,,,,,,,,,,,,,,,,,,,,,,,,,,,,,,,,,,,,,,,,,,,,,,,,,,,,,,,,,,,,,,,,,,,,,,,,,,,,,,,,,,,,,,,,,,,,,,,,,,,,,,,
,,6669f64ecd7e3ec30632f607,2026-03-17_14h10.34.102,kallum_motion_pilot_GIST_update_2,2026.1.1,Win32,40.32258065,6669f64ecd7e3ec30632f607,69b95efdef24cd8a694e89ee,69b960837a1bd02e9f26447e,0.2695,0.2696,1,2,164,73,1,onethree,,,,,,,,,,,,,,,,,,,,,,,,,,,,,,,,,,,,,,,,,,,,,,,,,,,,,,,,,,,,,,,,,,,,,,,,,,,,,,,,,,,,,,,,,,,,,,,,,,,,,,,,,,,,,,,,,,,,,,,,,,,,,,,,,,,,,,,,,
,,6669f64ecd7e3ec30632f607,2026-03-17_14h10.34.102,kallum_motion_pilot_GIST_update_2,2026.1.1,Win32,40.32258065,6669f64ecd7e3ec30632f607,69b95efdef24cd8a694e89ee,69b960837a1bd02e9f26447e,0.2706,0.2707,1,3,165,63,1,fourthree,,,,,,,,,,,,,,,,,,,,,,,,,,,,,,,,,,,,,,,,,,,,,,,,,,,,,,,,,,,,,,,,,,,,,,,,,,,,,,,,,,,,,,,,,,,,,,,,,,,,,,,,,,,,,,,,,,,,,,,,,,,,,,,,,,,,,,,,,
,,6669f64ecd7e3ec30632f607,2026-03-17_14h10.34.102,kallum_motion_pilot_GIST_update_2,2026.1.1,Win32,40.32258065,6669f64ecd7e3ec30632f607,69b95efdef24cd8a694e89ee,69b960837a1bd02e9f26447e,0.2717,0.2718,1,4,166,118,1,eightsix,,,,,,,,,,,,,,,,,,,,,,,,,,,,,,,,,,,,,,,,,,,,,,,,,,,,,,,,,,,,,,,,,,,,,,,,,,,,,,,,,,,,,,,,,,,,,,,,,,,,,,,,,,,,,,,,,,,,,,,,,,,,,,,,,,,,,,,,,
,,6669f64ecd7e3ec30632f607,2026-03-17_14h10.34.102,kallum_motion_pilot_GIST_update_2,2026.1.1,Win32,40.32258065,6669f64ecd7e3ec30632f607,69b95efdef24cd8a694e89ee,69b960837a1bd02e9f26447e,0.2727,0.2728,1,5,167,89,1,fiveseven,,,,,,,,,,,,,,,,,,,,,,,,,,,,,,,,,,,,,,,,,,,,,,,,,,,,,,,,,,,,,,,,,,,,,,,,,,,,,,,,,,,,,,,,,,,,,,,,,,,,,,,,,,,,,,,,,,,,,,,,,,,,,,,,,,,,,,,,,
,,6669f64ecd7e3ec30632f607,2026-03-17_14h10.34.102,kallum_motion_pilot_GIST_update_2,2026.1.1,Win32,40.32258065,6669f64ecd7e3ec30632f607,69b95efdef24cd8a694e89ee,69b960837a1bd02e9f26447e,0.2736,0.2738,1,6,168,66,1,twoone,,,,,,,,,,,,,,,,,,,,,,,,,,,,,,,,,,,,,,,,,,,,,,,,,,,,,,,,,,,,,,,,,,,,,,,,,,,,,,,,,,,,,,,,,,,,,,,,,,,,,,,,,,,,,,,,,,,,,,,,,,,,,,,,,,,,,,,,,
,,6669f64ecd7e3ec30632f607,2026-03-17_14h10.34.102,kallum_motion_pilot_GIST_update_2,2026.1.1,Win32,40.32258065,6669f64ecd7e3ec30632f607,69b95efdef24cd8a694e89ee,69b960837a1bd02e9f26447e,0.2746,0.2747,1,7,169,35,1,twofour,,,,,,,,,,,,,,,,,,,,,,,,,,,,,,,,,,,,,,,,,,,,,,,,,,,,,,,,,,,,,,,,,,,,,,,,,,,,,,,,,,,,,,,,,,,,,,,,,,,,,,,,,,,,,,,,,,,,,,,,,,,,,,,,,,,,,,,,,
,,6669f64ecd7e3ec30632f607,2026-03-17_14h10.34.102,kallum_motion_pilot_GIST_update_2,2026.1.1,Win32,40.32258065,6669f64ecd7e3ec30632f607,69b95efdef24cd8a694e89ee,69b960837a1bd02e9f26447e,0.2756,0.2757,1,8,170,83,1,sixeight,,,,,,,,,,,,,,,,,,,,,,,,,,,,,,,,,,,,,,,,,,,,,,,,,,,,,,,,,,,,,,,,,,,,,,,,,,,,,,,,,,,,,,,,,,,,,,,,,,,,,,,,,,,,,,,,,,,,,,,,,,,,,,,,,,,,,,,,,
,,6669f64ecd7e3ec30632f607,2026-03-17_14h10.34.102,kallum_motion_pilot_GIST_update_2,2026.1.1,Win32,40.32258065,6669f64ecd7e3ec30632f607,69b95efdef24cd8a694e89ee,69b960837a1bd02e9f26447e,0.2764,0.2766,1,9,171,42,1,twoone,,,,,,,,,,,,,,,,,,,,,,,,,,,,,,,,,,,,,,,,,,,,,,,,,,,,,,,,,,,,,,,,,,,,,,,,,,,,,,,,,,,,,,,,,,,,,,,,,,,,,,,,,,,,,,,,,,,,,,,,,,,,,,,,,,,,,,,,,
,,6669f64ecd7e3ec30632f607,2026-03-17_14h10.34.102,kallum_motion_pilot_GIST_update_2,2026.1.1,Win32,40.32258065,6669f64ecd7e3ec30632f607,69b95efdef24cd8a694e89ee,69b960837a1bd02e9f26447e,0.2773,0.2775,1,10,172,7,1,fourthree,,,,,,,,,,,,,,,,,,,,,,,,,,,,,,,,,,,,,,,,,,,,,,,,,,,,,,,,,,,,,,,,,,,,,,,,,,,,,,,,,,,,,,,,,,,,,,,,,,,,,,,,,,,,,,,,,,,,,,,,,,,,,,,,,,,,,,,,,
,,6669f64ecd7e3ec30632f607,2026-03-17_14h10.34.102,kallum_motion_pilot_GIST_update_2,2026.1.1,Win32,40.32258065,6669f64ecd7e3ec30632f607,69b95efdef24cd8a694e89ee,69b960837a1bd02e9f26447e,0.2783,0.2784,1,11,173,149,1,seveneight,,,,,,,,,,,,,,,,,,,,,,,,,,,,,,,,,,,,,,,,,,,,,,,,,,,,,,,,,,,,,,,,,,,,,,,,,,,,,,,,,,,,,,,,,,,,,,,,,,,,,,,,,,,,,,,,,,,,,,,,,,,,,,,,,,,,,,,,,
,,6669f64ecd7e3ec30632f607,2026-03-17_14h10.34.102,kallum_motion_pilot_GIST_update_2,2026.1.1,Win32,40.32258065,6669f64ecd7e3ec30632f607,69b95efdef24cd8a694e89ee,69b960837a1bd02e9f26447e,0.2792,0.2793,1,12,174,121,1,fiveseven,,,,,,,,,,,,,,,,,,,,,,,,,,,,,,,,,,,,,,,,,,,,,,,,,,,,,,,,,,,,,,,,,,,,,,,,,,,,,,,,,,,,,,,,,,,,,,,,,,,,,,,,,,,,,,,,,,,,,,,,,,,,,,,,,,,,,,,,,
,,6669f64ecd7e3ec30632f607,2026-03-17_14h10.34.102,kallum_motion_pilot_GIST_update_2,2026.1.1,Win32,40.32258065,6669f64ecd7e3ec30632f607,69b95efdef24cd8a694e89ee,69b960837a1bd02e9f26447e,0.2806,0.2808,1,13,175,25,1,onethree,,,,,,,,,,,,,,,,,,,,,,,,,,,,,,,,,,,,,,,,,,,,,,,,,,,,,,,,,,,,,,,,,,,,,,,,,,,,,,,,,,,,,,,,,,,,,,,,,,,,,,,,,,,,,,,,,,,,,,,,,,,,,,,,,,,,,,,,,
,,6669f64ecd7e3ec30632f607,2026-03-17_14h10.34.102,kallum_motion_pilot_GIST_update_2,2026.1.1,Win32,40.32258065,6669f64ecd7e3ec30632f607,69b95efdef24cd8a694e89ee,69b960837a1bd02e9f26447e,0.2817,0.2818,1,14,176,75,1,twofour,,,,,,,,,,,,,,,,,,,,,,,,,,,,,,,,,,,,,,,,,,,,,,,,,,,,,,,,,,,,,,,,,,,,,,,,,,,,,,,,,,,,,,,,,,,,,,,,,,,,,,,,,,,,,,,,,,,,,,,,,,,,,,,,,,,,,,,,,
,,6669f64ecd7e3ec30632f607,2026-03-17_14h10.34.102,kallum_motion_pilot_GIST_update_2,2026.1.1,Win32,40.32258065,6669f64ecd7e3ec30632f607,69b95efdef24cd8a694e89ee,69b960837a1bd02e9f26447e,0.2827,0.2828,1,15,177,142,1,eightsix,,,,,,,,,,,,,,,,,,,,,,,,,,,,,,,,,,,,,,,,,,,,,,,,,,,,,,,,,,,,,,,,,,,,,,,,,,,,,,,,,,,,,,,,,,,,,,,,,,,,,,,,,,,,,,,,,,,,,,,,,,,,,,,,,,,,,,,,,
,,6669f64ecd7e3ec30632f607,2026-03-17_14h10.34.102,kallum_motion_pilot_GIST_update_2,2026.1.1,Win32,40.32258065,6669f64ecd7e3ec30632f607,69b95efdef24cd8a694e89ee,69b960837a1bd02e9f26447e,0.2837,0.2838,1,16,178,101,1,seveneight,,,,,,,,,,,,,,,,,,,,,,,,,,,,,,,,,,,,,,,,,,,,,,,,,,,,,,,,,,,,,,,,,,,,,,,,,,,,,,,,,,,,,,,,,,,,,,,,,,,,,,,,,,,,,,,,,,,,,,,,,,,,,,,,,,,,,,,,,
,,6669f64ecd7e3ec30632f607,2026-03-17_14h10.34.102,kallum_motion_pilot_GIST_update_2,2026.1.1,Win32,40.32258065,6669f64ecd7e3ec30632f607,69b95efdef24cd8a694e89ee,69b960837a1bd02e9f26447e,0.2846,0.2847,1,17,179,85,1,seveneight,,,,,,,,,,,,,,,,,,,,,,,,,,,,,,,,,,,,,,,,,,,,,,,,,,,,,,,,,,,,,,,,,,,,,,,,,,,,,,,,,,,,,,,,,,,,,,,,,,,,,,,,,,,,,,,,,,,,,,,,,,,,,,,,,,,,,,,,,
,,6669f64ecd7e3ec30632f607,2026-03-17_14h10.34.102,kallum_motion_pilot_GIST_update_2,2026.1.1,Win32,40.32258065,6669f64ecd7e3ec30632f607,69b95efdef24cd8a694e89ee,69b960837a1bd02e9f26447e,0.2858,0.2859,1,18,180,39,1,fourthree,,,,,,,,,,,,,,,,,,,,,,,,,,,,,,,,,,,,,,,,,,,,,,,,,,,,,,,,,,,,,,,,,,,,,,,,,,,,,,,,,,,,,,,,,,,,,,,,,,,,,,,,,,,,,,,,,,,,,,,,,,,,,,,,,,,,,,,,,
,,6669f64ecd7e3ec30632f607,2026-03-17_14h10.34.102,kallum_motion_pilot_GIST_update_2,2026.1.1,Win32,40.32258065,6669f64ecd7e3ec30632f607,69b95efdef24cd8a694e89ee,69b960837a1bd02e9f26447e,0.2867,0.2868,1,19,181,17,1,onethree,,,,,,,,,,,,,,,,,,,,,,,,,,,,,,,,,,,,,,,,,,,,,,,,,,,,,,,,,,,,,,,,,,,,,,,,,,,,,,,,,,,,,,,,,,,,,,,,,,,,,,,,,,,,,,,,,,,,,,,,,,,,,,,,,,,,,,,,,
,,6669f64ecd7e3ec30632f607,2026-03-17_14h10.34.102,kallum_motion_pilot_GIST_update_2,2026.1.1,Win32,40.32258065,6669f64ecd7e3ec30632f607,69b95efdef24cd8a694e89ee,69b960837a1bd02e9f26447e,0.2876,0.2877,1,20,182,87,1,eightseven,,,,,,,,,,,,,,,,,,,,,,,,,,,,,,,,,,,,,,,,,,,,,,,,,,,,,,,,,,,,,,,,,,,,,,,,,,,,,,,,,,,,,,,,,,,,,,,,,,,,,,,,,,,,,,,,,,,,,,,,,,,,,,,,,,,,,,,,,
,,6669f64ecd7e3ec30632f607,2026-03-17_14h10.34.102,kallum_motion_pilot_GIST_update_2,2026.1.1,Win32,40.32258065,6669f64ecd7e3ec30632f607,69b95efdef24cd8a694e89ee,69b960837a1bd02e9f26447e,0.2885,0.2886,1,21,183,144,1,fivesix,,,,,,,,,,,,,,,,,,,,,,,,,,,,,,,,,,,,,,,,,,,,,,,,,,,,,,,,,,,,,,,,,,,,,,,,,,,,,,,,,,,,,,,,,,,,,,,,,,,,,,,,,,,,,,,,,,,,,,,,,,,,,,,,,,,,,,,,,
,,6669f64ecd7e3ec30632f607,2026-03-17_14h10.34.102,kallum_motion_pilot_GIST_update_2,2026.1.1,Win32,40.32258065,6669f64ecd7e3ec30632f607,69b95efdef24cd8a694e89ee,69b960837a1bd02e9f26447e,0.2894,0.2897,1,22,184,24,1,onetwo,,,,,,,,,,,,,,,,,,,,,,,,,,,,,,,,,,,,,,,,,,,,,,,,,,,,,,,,,,,,,,,,,,,,,,,,,,,,,,,,,,,,,,,,,,,,,,,,,,,,,,,,,,,,,,,,,,,,,,,,,,,,,,,,,,,,,,,,,
,,6669f64ecd7e3ec30632f607,2026-03-17_14h10.34.102,kallum_motion_pilot_GIST_update_2,2026.1.1,Win32,40.32258065,6669f64ecd7e3ec30632f607,69b95efdef24cd8a694e89ee,69b960837a1bd02e9f26447e,0.2907,0.2908,1,23,185,91,1,sixeight,,,,,,,,,,,,,,,,,,,,,,,,,,,,,,,,,,,,,,,,,,,,,,,,,,,,,,,,,,,,,,,,,,,,,,,,,,,,,,,,,,,,,,,,,,,,,,,,,,,,,,,,,,,,,,,,,,,,,,,,,,,,,,,,,,,,,,,,,
,,6669f64ecd7e3ec30632f607,2026-03-17_14h10.34.102,kallum_motion_pilot_GIST_update_2,2026.1.1,Win32,40.32258065,6669f64ecd7e3ec30632f607,69b95efdef24cd8a694e89ee,69b960837a1bd02e9f26447e,0.2916,0.2917,1,24,186,122,1,sixfive,,,,,,,,,,,,,,,,,,,,,,,,,,,,,,,,,,,,,,,,,,,,,,,,,,,,,,,,,,,,,,,,,,,,,,,,,,,,,,,,,,,,,,,,,,,,,,,,,,,,,,,,,,,,,,,,,,,,,,,,,,,,,,,,,,,,,,,,,
,,6669f64ecd7e3ec30632f607,2026-03-17_14h10.34.102,kallum_motion_pilot_GIST_update_2,2026.1.1,Win32,40.32258065,6669f64ecd7e3ec30632f607,69b95efdef24cd8a694e89ee,69b960837a1bd02e9f26447e,0.2926,0.2927,1,25,187,158,1,eightsix,,,,,,,,,,,,,,,,,,,,,,,,,,,,,,,,,,,,,,,,,,,,,,,,,,,,,,,,,,,,,,,,,,,,,,,,,,,,,,,,,,,,,,,,,,,,,,,,,,,,,,,,,,,,,,,,,,,,,,,,,,,,,,,,,,,,,,,,,
,,6669f64ecd7e3ec30632f607,2026-03-17_14h10.34.102,kallum_motion_pilot_GIST_update_2,2026.1.1,Win32,40.32258065,6669f64ecd7e3ec30632f607,69b95efdef24cd8a694e89ee,69b960837a1bd02e9f26447e,0.2936,0.2937,1,26,188,20,1,threeone,,,,,,,,,,,,,,,,,,,,,,,,,,,,,,,,,,,,,,,,,,,,,,,,,,,,,,,,,,,,,,,,,,,,,,,,,,,,,,,,,,,,,,,,,,,,,,,,,,,,,,,,,,,,,,,,,,,,,,,,,,,,,,,,,,,,,,,,,
,,6669f64ecd7e3ec30632f607,2026-03-17_14h10.34.102,kallum_motion_pilot_GIST_update_2,2026.1.1,Win32,40.32258065,6669f64ecd7e3ec30632f607,69b95efdef24cd8a694e89ee,69b960837a1bd02e9f26447e,0.2946,0.2946,1,27,189,124,1,sevenfive,,,,,,,,,,,,,,,,,,,,,,,,,,,,,,,,,,,,,,,,,,,,,,,,,,,,,,,,,,,,,,,,,,,,,,,,,,,,,,,,,,,,,,,,,,,,,,,,,,,,,,,,,,,,,,,,,,,,,,,,,,,,,,,,,,,,,,,,,
,,6669f64ecd7e3ec30632f607,2026-03-17_14h10.34.102,kallum_motion_pilot_GIST_update_2,2026.1.1,Win32,40.32258065,6669f64ecd7e3ec30632f607,69b95efdef24cd8a694e89ee,69b960837a1bd02e9f26447e,0.2955,0.2957,1,28,190,8,1,onetwo,,,,,,,,,,,,,,,,,,,,,,,,,,,,,,,,,,,,,,,,,,,,,,,,,,,,,,,,,,,,,,,,,,,,,,,,,,,,,,,,,,,,,,,,,,,,,,,,,,,,,,,,,,,,,,,,,,,,,,,,,,,,,,,,,,,,,,,,,
,,6669f64ecd7e3ec30632f607,2026-03-17_14h10.34.102,kallum_motion_pilot_GIST_update_2,2026.1.1,Win32,40.32258065,6669f64ecd7e3ec30632f607,69b95efdef24cd8a694e89ee,69b960837a1bd02e9f26447e,0.2965,0.2965,1,29,191,138,1,sixfive,,,,,,,,,,,,,,,,,,,,,,,,,,,,,,,,,,,,,,,,,,,,,,,,,,,,,,,,,,,,,,,,,,,,,,,,,,,,,,,,,,,,,,,,,,,,,,,,,,,,,,,,,,,,,,,,,,,,,,,,,,,,,,,,,,,,,,,,,
,,6669f64ecd7e3ec30632f607,2026-03-17_14h10.34.102,kallum_motion_pilot_GIST_update_2,2026.1.1,Win32,40.32258065,6669f64ecd7e3ec30632f607,69b95efdef24cd8a694e89ee,69b960837a1bd02e9f26447e,0.2976,0.2976,1,30,192,50,1,twoone,,,,,,,,,,,,,,,,,,,,,,,,,,,,,,,,,,,,,,,,,,,,,,,,,,,,,,,,,,,,,,,,,,,,,,,,,,,,,,,,,,,,,,,,,,,,,,,,,,,,,,,,,,,,,,,,,,,,,,,,,,,,,,,,,,,,,,,,,
,,6669f64ecd7e3ec30632f607,2026-03-17_14h10.34.102,kallum_motion_pilot_GIST_update_2,2026.1.1,Win32,40.32258065,6669f64ecd7e3ec30632f607,69b95efdef24cd8a694e89ee,69b960837a1bd02e9f26447e,0.2984,0.2986,1,31,193,58,1,twoone,,,,,,,,,,,,,,,,,,,,,,,,,,,,,,,,,,,,,,,,,,,,,,,,,,,,,,,,,,,,,,,,,,,,,,,,,,,,,,,,,,,,,,,,,,,,,,,,,,,,,,,,,,,,,,,,,,,,,,,,,,,,,,,,,,,,,,,,,
,,6669f64ecd7e3ec30632f607,2026-03-17_14h10.34.102,kallum_motion_pilot_GIST_update_2,2026.1.1,Win32,40.32258065,6669f64ecd7e3ec30632f607,69b95efdef24cd8a694e89ee,69b960837a1bd02e9f26447e,0.2995,0.2996,1,32,194,136,1,fivesix,,,,,,,,,,,,,,,,,,,,,,,,,,,,,,,,,,,,,,,,,,,,,,,,,,,,,,,,,,,,,,,,,,,,,,,,,,,,,,,,,,,,,,,,,,,,,,,,,,,,,,,,,,,,,,,,,,,,,,,,,,,,,,,,,,,,,,,,,
,,6669f64ecd7e3ec30632f607,2026-03-17_14h10.34.102,kallum_motion_pilot_GIST_update_2,2026.1.1,Win32,40.32258065,6669f64ecd7e3ec30632f607,69b95efdef24cd8a694e89ee,69b960837a1bd02e9f26447e,0.3014,0.3014,1,33,195,21,1,threefour,,,,,,,,,,,,,,,,,,,,,,,,,,,,,,,,,,,,,,,,,,,,,,,,,,,,,,,,,,,,,,,,,,,,,,,,,,,,,,,,,,,,,,,,,,,,,,,,,,,,,,,,,,,,,,,,,,,,,,,,,,,,,,,,,,,,,,,,,
,,6669f64ecd7e3ec30632f607,2026-03-17_14h10.34.102,kallum_motion_pilot_GIST_update_2,2026.1.1,Win32,40.32258065,6669f64ecd7e3ec30632f607,69b95efdef24cd8a694e89ee,69b960837a1bd02e9f26447e,0.3022,0.3024,1,34,196,43,1,twofour,,,,,,,,,,,,,,,,,,,,,,,,,,,,,,,,,,,,,,,,,,,,,,,,,,,,,,,,,,,,,,,,,,,,,,,,,,,,,,,,,,,,,,,,,,,,,,,,,,,,,,,,,,,,,,,,,,,,,,,,,,,,,,,,,,,,,,,,,
,,6669f64ecd7e3ec30632f607,2026-03-17_14h10.34.102,kallum_motion_pilot_GIST_update_2,2026.1.1,Win32,40.32258065,6669f64ecd7e3ec30632f607,69b95efdef24cd8a694e89ee,69b960837a1bd02e9f26447e,0.3032,0.3032,1,35,197,86,1,eightsix,,,,,,,,,,,,,,,,,,,,,,,,,,,,,,,,,,,,,,,,,,,,,,,,,,,,,,,,,,,,,,,,,,,,,,,,,,,,,,,,,,,,,,,,,,,,,,,,,,,,,,,,,,,,,,,,,,,,,,,,,,,,,,,,,,,,,,,,,
,,6669f64ecd7e3ec30632f607,2026-03-17_14h10.34.102,kallum_motion_pilot_GIST_update_2,2026.1.1,Win32,40.32258065,6669f64ecd7e3ec30632f607,69b95efdef24cd8a694e89ee,69b960837a1bd02e9f26447e,0.3041,0.3042,1,36,198,109,1,seveneight,,,,,,,,,,,,,,,,,,,,,,,,,,,,,,,,,,,,,,,,,,,,,,,,,,,,,,,,,,,,,,,,,,,,,,,,,,,,,,,,,,,,,,,,,,,,,,,,,,,,,,,,,,,,,,,,,,,,,,,,,,,,,,,,,,,,,,,,,
,,6669f64ecd7e3ec30632f607,2026-03-17_14h10.34.102,kallum_motion_pilot_GIST_update_2,2026.1.1,Win32,40.32258065,6669f64ecd7e3ec30632f607,69b95efdef24cd8a694e89ee,69b960837a1bd02e9f26447e,0.305,0.3051,1,37,199,9,1,onethree,,,,,,,,,,,,,,,,,,,,,,,,,,,,,,,,,,,,,,,,,,,,,,,,,,,,,,,,,,,,,,,,,,,,,,,,,,,,,,,,,,,,,,,,,,,,,,,,,,,,,,,,,,,,,,,,,,,,,,,,,,,,,,,,,,,,,,,,,
,,6669f64ecd7e3ec30632f607,2026-03-17_14h10.34.102,kallum_motion_pilot_GIST_update_2,2026.1.1,Win32,40.32258065,6669f64ecd7e3ec30632f607,69b95efdef24cd8a694e89ee,69b960837a1bd02e9f26447e,0.3059,0.306,1,38,200,79,1,eightseven,,,,,,,,,,,,,,,,,,,,,,,,,,,,,,,,,,,,,,,,,,,,,,,,,,,,,,,,,,,,,,,,,,,,,,,,,,,,,,,,,,,,,,,,,,,,,,,,,,,,,,,,,,,,,,,,,,,,,,,,,,,,,,,,,,,,,,,,,
,,6669f64ecd7e3ec30632f607,2026-03-17_14h10.34.102,kallum_motion_pilot_GIST_update_2,2026.1.1,Win32,40.32258065,6669f64ecd7e3ec30632f607,69b95efdef24cd8a694e89ee,69b960837a1bd02e9f26447e,0.3067,0.3069,1,39,201,3,1,twofour,,,,,,,,,,,,,,,,,,,,,,,,,,,,,,,,,,,,,,,,,,,,,,,,,,,,,,,,,,,,,,,,,,,,,,,,,,,,,,,,,,,,,,,,,,,,,,,,,,,,,,,,,,,,,,,,,,,,,,,,,,,,,,,,,,,,,,,,,
,,6669f64ecd7e3ec30632f607,2026-03-17_14h10.34.102,kallum_motion_pilot_GIST_update_2,2026.1.1,Win32,40.32258065,6669f64ecd7e3ec30632f607,69b95efdef24cd8a694e89ee,69b960837a1bd02e9f26447e,0.3077,0.3078,1,40,202,128,1,fivesix,,,,,,,,,,,,,,,,,,,,,,,,,,,,,,,,,,,,,,,,,,,,,,,,,,,,,,,,,,,,,,,,,,,,,,,,,,,,,,,,,,,,,,,,,,,,,,,,,,,,,,,,,,,,,,,,,,,,,,,,,,,,,,,,,,,,,,,,,
,,6669f64ecd7e3ec30632f607,2026-03-17_14h10.34.102,kallum_motion_pilot_GIST_update_2,2026.1.1,Win32,40.32258065,6669f64ecd7e3ec30632f607,69b95efdef24cd8a694e89ee,69b960837a1bd02e9f26447e,0.3086,0.3087,1,41,203,10,1,twoone,,,,,,,,,,,,,,,,,,,,,,,,,,,,,,,,,,,,,,,,,,,,,,,,,,,,,,,,,,,,,,,,,,,,,,,,,,,,,,,,,,,,,,,,,,,,,,,,,,,,,,,,,,,,,,,,,,,,,,,,,,,,,,,,,,,,,,,,,
,,6669f64ecd7e3ec30632f607,2026-03-17_14h10.34.102,kallum_motion_pilot_GIST_update_2,2026.1.1,Win32,40.32258065,6669f64ecd7e3ec30632f607,69b95efdef24cd8a694e89ee,69b960837a1bd02e9f26447e,0.3098,0.3105,1,42,204,49,1,onethree,,,,,,,,,,,,,,,,,,,,,,,,,,,,,,,,,,,,,,,,,,,,,,,,,,,,,,,,,,,,,,,,,,,,,,,,,,,,,,,,,,,,,,,,,,,,,,,,,,,,,,,,,,,,,,,,,,,,,,,,,,,,,,,,,,,,,,,,,
,,6669f64ecd7e3ec30632f607,2026-03-17_14h10.34.102,kallum_motion_pilot_GIST_update_2,2026.1.1,Win32,40.32258065,6669f64ecd7e3ec30632f607,69b95efdef24cd8a694e89ee,69b960837a1bd02e9f26447e,0.3113,0.3113,1,43,205,78,1,fourtwo,,,,,,,,,,,,,,,,,,,,,,,,,,,,,,,,,,,,,,,,,,,,,,,,,,,,,,,,,,,,,,,,,,,,,,,,,,,,,,,,,,,,,,,,,,,,,,,,,,,,,,,,,,,,,,,,,,,,,,,,,,,,,,,,,,,,,,,,,
,,6669f64ecd7e3ec30632f607,2026-03-17_14h10.34.102,kallum_motion_pilot_GIST_update_2,2026.1.1,Win32,40.32258065,6669f64ecd7e3ec30632f607,69b95efdef24cd8a694e89ee,69b960837a1bd02e9f26447e,0.3123,0.3123,1,44,206,64,1,onetwo,,,,,,,,,,,,,,,,,,,,,,,,,,,,,,,,,,,,,,,,,,,,,,,,,,,,,,,,,,,,,,,,,,,,,,,,,,,,,,,,,,,,,,,,,,,,,,,,,,,,,,,,,,,,,,,,,,,,,,,,,,,,,,,,,,,,,,,,,
,,6669f64ecd7e3ec30632f607,2026-03-17_14h10.34.102,kallum_motion_pilot_GIST_update_2,2026.1.1,Win32,40.32258065,6669f64ecd7e3ec30632f607,69b95efdef24cd8a694e89ee,69b960837a1bd02e9f26447e,0.3132,0.3133,1,45,207,23,1,fourthree,,,,,,,,,,,,,,,,,,,,,,,,,,,,,,,,,,,,,,,,,,,,,,,,,,,,,,,,,,,,,,,,,,,,,,,,,,,,,,,,,,,,,,,,,,,,,,,,,,,,,,,,,,,,,,,,,,,,,,,,,,,,,,,,,,,,,,,,,
,,6669f64ecd7e3ec30632f607,2026-03-17_14h10.34.102,kallum_motion_pilot_GIST_update_2,2026.1.1,Win32,40.32258065,6669f64ecd7e3ec30632f607,69b95efdef24cd8a694e89ee,69b960837a1bd02e9f26447e,0.3142,0.3143,1,46,208,46,1,fourtwo,,,,,,,,,,,,,,,,,,,,,,,,,,,,,,,,,,,,,,,,,,,,,,,,,,,,,,,,,,,,,,,,,,,,,,,,,,,,,,,,,,,,,,,,,,,,,,,,,,,,,,,,,,,,,,,,,,,,,,,,,,,,,,,,,,,,,,,,,
,,6669f64ecd7e3ec30632f607,2026-03-17_14h10.34.102,kallum_motion_pilot_GIST_update_2,2026.1.1,Win32,40.32258065,6669f64ecd7e3ec30632f607,69b95efdef24cd8a694e89ee,69b960837a1bd02e9f26447e,0.3151,0.3151,1,47,209,28,1,threeone,,,,,,,,,,,,,,,,,,,,,,,,,,,,,,,,,,,,,,,,,,,,,,,,,,,,,,,,,,,,,,,,,,,,,,,,,,,,,,,,,,,,,,,,,,,,,,,,,,,,,,,,,,,,,,,,,,,,,,,,,,,,,,,,,,,,,,,,,
,,6669f64ecd7e3ec30632f607,2026-03-17_14h10.34.102,kallum_motion_pilot_GIST_update_2,2026.1.1,Win32,40.32258065,6669f64ecd7e3ec30632f607,69b95efdef24cd8a694e89ee,69b960837a1bd02e9f26447e,0.3159,0.3161,1,48,210,84,1,sevenfive,,,,,,,,,,,,,,,,,,,,,,,,,,,,,,,,,,,,,,,,,,,,,,,,,,,,,,,,,,,,,,,,,,,,,,,,,,,,,,,,,,,,,,,,,,,,,,,,,,,,,,,,,,,,,,,,,,,,,,,,,,,,,,,,,,,,,,,,,
,,6669f64ecd7e3ec30632f607,2026-03-17_14h10.34.102,kallum_motion_pilot_GIST_update_2,2026.1.1,Win32,40.32258065,6669f64ecd7e3ec30632f607,69b95efdef24cd8a694e89ee,69b960837a1bd02e9f26447e,0.3169,0.3169,1,49,211,67,1,twofour,,,,,,,,,,,,,,,,,,,,,,,,,,,,,,,,,,,,,,,,,,,,,,,,,,,,,,,,,,,,,,,,,,,,,,,,,,,,,,,,,,,,,,,,,,,,,,,,,,,,,,,,,,,,,,,,,,,,,,,,,,,,,,,,,,,,,,,,,
,,6669f64ecd7e3ec30632f607,2026-03-17_14h10.34.102,kallum_motion_pilot_GIST_update_2,2026.1.1,Win32,40.32258065,6669f64ecd7e3ec30632f607,69b95efdef24cd8a694e89ee,69b960837a1bd02e9f26447e,0.3178,0.318,1,50,212,120,1,fivesix,,,,,,,,,,,,,,,,,,,,,,,,,,,,,,,,,,,,,,,,,,,,,,,,,,,,,,,,,,,,,,,,,,,,,,,,,,,,,,,,,,,,,,,,,,,,,,,,,,,,,,,,,,,,,,,,,,,,,,,,,,,,,,,,,,,,,,,,,
,,6669f64ecd7e3ec30632f607,2026-03-17_14h10.34.102,kallum_motion_pilot_GIST_update_2,2026.1.1,Win32,40.32258065,6669f64ecd7e3ec30632f607,69b95efdef24cd8a694e89ee,69b960837a1bd02e9f26447e,0.3187,0.3189,1,51,213,72,1,onetwo,,,,,,,,,,,,,,,,,,,,,,,,,,,,,,,,,,,,,,,,,,,,,,,,,,,,,,,,,,,,,,,,,,,,,,,,,,,,,,,,,,,,,,,,,,,,,,,,,,,,,,,,,,,,,,,,,,,,,,,,,,,,,,,,,,,,,,,,,
,,6669f64ecd7e3ec30632f607,2026-03-17_14h10.34.102,kallum_motion_pilot_GIST_update_2,2026.1.1,Win32,40.32258065,6669f64ecd7e3ec30632f607,69b95efdef24cd8a694e89ee,69b960837a1bd02e9f26447e,0.3197,0.3198,1,52,214,134,1,eightsix,,,,,,,,,,,,,,,,,,,,,,,,,,,,,,,,,,,,,,,,,,,,,,,,,,,,,,,,,,,,,,,,,,,,,,,,,,,,,,,,,,,,,,,,,,,,,,,,,,,,,,,,,,,,,,,,,,,,,,,,,,,,,,,,,,,,,,,,,
,,6669f64ecd7e3ec30632f607,2026-03-17_14h10.34.102,kallum_motion_pilot_GIST_update_2,2026.1.1,Win32,40.32258065,6669f64ecd7e3ec30632f607,69b95efdef24cd8a694e89ee,69b960837a1bd02e9f26447e,0.321,0.3212,1,53,215,26,1,twoone,,,,,,,,,,,,,,,,,,,,,,,,,,,,,,,,,,,,,,,,,,,,,,,,,,,,,,,,,,,,,,,,,,,,,,,,,,,,,,,,,,,,,,,,,,,,,,,,,,,,,,,,,,,,,,,,,,,,,,,,,,,,,,,,,,,,,,,,,
,,6669f64ecd7e3ec30632f607,2026-03-17_14h10.34.102,kallum_motion_pilot_GIST_update_2,2026.1.1,Win32,40.32258065,6669f64ecd7e3ec30632f607,69b95efdef24cd8a694e89ee,69b960837a1bd02e9f26447e,0.322,0.3221,1,54,216,29,1,threefour,,,,,,,,,,,,,,,,,,,,,,,,,,,,,,,,,,,,,,,,,,,,,,,,,,,,,,,,,,,,,,,,,,,,,,,,,,,,,,,,,,,,,,,,,,,,,,,,,,,,,,,,,,,,,,,,,,,,,,,,,,,,,,,,,,,,,,,,,
,,6669f64ecd7e3ec30632f607,2026-03-17_14h10.34.102,kallum_motion_pilot_GIST_update_2,2026.1.1,Win32,40.32258065,6669f64ecd7e3ec30632f607,69b95efdef24cd8a694e89ee,69b960837a1bd02e9f26447e,0.3229,0.323,1,55,217,114,1,sixfive,,,,,,,,,,,,,,,,,,,,,,,,,,,,,,,,,,,,,,,,,,,,,,,,,,,,,,,,,,,,,,,,,,,,,,,,,,,,,,,,,,,,,,,,,,,,,,,,,,,,,,,,,,,,,,,,,,,,,,,,,,,,,,,,,,,,,,,,,
,,6669f64ecd7e3ec30632f607,2026-03-17_14h10.34.102,kallum_motion_pilot_GIST_update_2,2026.1.1,Win32,40.32258065,6669f64ecd7e3ec30632f607,69b95efdef24cd8a694e89ee,69b960837a1bd02e9f26447e,0.3239,0.3239,1,56,218,80,1,fivesix,,,,,,,,,,,,,,,,,,,,,,,,,,,,,,,,,,,,,,,,,,,,,,,,,,,,,,,,,,,,,,,,,,,,,,,,,,,,,,,,,,,,,,,,,,,,,,,,,,,,,,,,,,,,,,,,,,,,,,,,,,,,,,,,,,,,,,,,,
,,6669f64ecd7e3ec30632f607,2026-03-17_14h10.34.102,kallum_motion_pilot_GIST_update_2,2026.1.1,Win32,40.32258065,6669f64ecd7e3ec30632f607,69b95efdef24cd8a694e89ee,69b960837a1bd02e9f26447e,0.3248,0.3248,1,57,219,48,1,onetwo,,,,,,,,,,,,,,,,,,,,,,,,,,,,,,,,,,,,,,,,,,,,,,,,,,,,,,,,,,,,,,,,,,,,,,,,,,,,,,,,,,,,,,,,,,,,,,,,,,,,,,,,,,,,,,,,,,,,,,,,,,,,,,,,,,,,,,,,,
,,6669f64ecd7e3ec30632f607,2026-03-17_14h10.34.102,kallum_motion_pilot_GIST_update_2,2026.1.1,Win32,40.32258065,6669f64ecd7e3ec30632f607,69b95efdef24cd8a694e89ee,69b960837a1bd02e9f26447e,0.3258,0.3258,1,58,220,82,1,sixfive,,,,,,,,,,,,,,,,,,,,,,,,,,,,,,,,,,,,,,,,,,,,,,,,,,,,,,,,,,,,,,,,,,,,,,,,,,,,,,,,,,,,,,,,,,,,,,,,,,,,,,,,,,,,,,,,,,,,,,,,,,,,,,,,,,,,,,,,,
,,6669f64ecd7e3ec30632f607,2026-03-17_14h10.34.102,kallum_motion_pilot_GIST_update_2,2026.1.1,Win32,40.32258065,6669f64ecd7e3ec30632f607,69b95efdef24cd8a694e89ee,69b960837a1bd02e9f26447e,0.3266,0.3268,1,59,221,1,1,onethree,,,,,,,,,,,,,,,,,,,,,,,,,,,,,,,,,,,,,,,,,,,,,,,,,,,,,,,,,,,,,,,,,,,,,,,,,,,,,,,,,,,,,,,,,,,,,,,,,,,,,,,,,,,,,,,,,,,,,,,,,,,,,,,,,,,,,,,,,
,,6669f64ecd7e3ec30632f607,2026-03-17_14h10.34.102,kallum_motion_pilot_GIST_update_2,2026.1.1,Win32,40.32258065,6669f64ecd7e3ec30632f607,69b95efdef24cd8a694e89ee,69b960837a1bd02e9f26447e,0.3275,0.3276,1,60,222,108,1,sevenfive,,,,,,,,,,,,,,,,,,,,,,,,,,,,,,,,,,,,,,,,,,,,,,,,,,,,,,,,,,,,,,,,,,,,,,,,,,,,,,,,,,,,,,,,,,,,,,,,,,,,,,,,,,,,,,,,,,,,,,,,,,,,,,,,,,,,,,,,,
,,6669f64ecd7e3ec30632f607,2026-03-17_14h10.34.102,kallum_motion_pilot_GIST_update_2,2026.1.1,Win32,40.32258065,6669f64ecd7e3ec30632f607,69b95efdef24cd8a694e89ee,69b960837a1bd02e9f26447e,0.3286,0.3287,1,61,223,98,1,sixfive,,,,,,,,,,,,,,,,,,,,,,,,,,,,,,,,,,,,,,,,,,,,,,,,,,,,,,,,,,,,,,,,,,,,,,,,,,,,,,,,,,,,,,,,,,,,,,,,,,,,,,,,,,,,,,,,,,,,,,,,,,,,,,,,,,,,,,,,,
,,6669f64ecd7e3ec30632f607,2026-03-17_14h10.34.102,kallum_motion_pilot_GIST_update_2,2026.1.1,Win32,40.32258065,6669f64ecd7e3ec30632f607,69b95efdef24cd8a694e89ee,69b960837a1bd02e9f26447e,0.3301,0.3301,1,62,224,38,1,fourtwo,,,,,,,,,,,,,,,,,,,,,,,,,,,,,,,,,,,,,,,,,,,,,,,,,,,,,,,,,,,,,,,,,,,,,,,,,,,,,,,,,,,,,,,,,,,,,,,,,,,,,,,,,,,,,,,,,,,,,,,,,,,,,,,,,,,,,,,,,
,,6669f64ecd7e3ec30632f607,2026-03-17_14h10.34.102,kallum_motion_pilot_GIST_update_2,2026.1.1,Win32,40.32258065,6669f64ecd7e3ec30632f607,69b95efdef24cd8a694e89ee,69b960837a1bd02e9f26447e,0.331,0.3311,1,63,225,19,1,twofour,,,,,,,,,,,,,,,,,,,,,,,,,,,,,,,,,,,,,,,,,,,,,,,,,,,,,,,,,,,,,,,,,,,,,,,,,,,,,,,,,,,,,,,,,,,,,,,,,,,,,,,,,,,,,,,,,,,,,,,,,,,,,,,,,,,,,,,,,
,,6669f64ecd7e3ec30632f607,2026-03-17_14h10.34.102,kallum_motion_pilot_GIST_update_2,2026.1.1,Win32,40.32258065,6669f64ecd7e3ec30632f607,69b95efdef24cd8a694e89ee,69b960837a1bd02e9f26447e,0.3319,0.3321,1,64,226,60,1,threeone,,,,,,,,,,,,,,,,,,,,,,,,,,,,,,,,,,,,,,,,,,,,,,,,,,,,,,,,,,,,,,,,,,,,,,,,,,,,,,,,,,,,,,,,,,,,,,,,,,,,,,,,,,,,,,,,,,,,,,,,,,,,,,,,,,,,,,,,,
,,6669f64ecd7e3ec30632f607,2026-03-17_14h10.34.102,kallum_motion_pilot_GIST_update_2,2026.1.1,Win32,40.32258065,6669f64ecd7e3ec30632f607,69b95efdef24cd8a694e89ee,69b960837a1bd02e9f26447e,0.3328,0.3329,1,65,227,161,1,fiveseven,,,,,,,,,,,,,,,,,,,,,,,,,,,,,,,,,,,,,,,,,,,,,,,,,,,,,,,,,,,,,,,,,,,,,,,,,,,,,,,,,,,,,,,,,,,,,,,,,,,,,,,,,,,,,,,,,,,,,,,,,,,,,,,,,,,,,,,,,
,,6669f64ecd7e3ec30632f607,2026-03-17_14h10.34.102,kallum_motion_pilot_GIST_update_2,2026.1.1,Win32,40.32258065,6669f64ecd7e3ec30632f607,69b95efdef24cd8a694e89ee,69b960837a1bd02e9f26447e,0.3339,0.3339,1,66,228,33,1,onethree,,,,,,,,,,,,,,,,,,,,,,,,,,,,,,,,,,,,,,,,,,,,,,,,,,,,,,,,,,,,,,,,,,,,,,,,,,,,,,,,,,,,,,,,,,,,,,,,,,,,,,,,,,,,,,,,,,,,,,,,,,,,,,,,,,,,,,,,,
,,6669f64ecd7e3ec30632f607,2026-03-17_14h10.34.102,kallum_motion_pilot_GIST_update_2,2026.1.1,Win32,40.32258065,6669f64ecd7e3ec30632f607,69b95efdef24cd8a694e89ee,69b960837a1bd02e9f26447e,0.3353,0.3354,1,67,229,127,1,eightseven,,,,,,,,,,,,,,,,,,,,,,,,,,,,,,,,,,,,,,,,,,,,,,,,,,,,,,,,,,,,,,,,,,,,,,,,,,,,,,,,,,,,,,,,,,,,,,,,,,,,,,,,,,,,,,,,,,,,,,,,,,,,,,,,,,,,,,,,,
,,6669f64ecd7e3ec30632f607,2026-03-17_14h10.34.102,kallum_motion_pilot_GIST_update_2,2026.1.1,Win32,40.32258065,6669f64ecd7e3ec30632f607,69b95efdef24cd8a694e89ee,69b960837a1bd02e9f26447e,0.3362,0.3363,1,68,230,32,1,onetwo,,,,,,,,,,,,,,,,,,,,,,,,,,,,,,,,,,,,,,,,,,,,,,,,,,,,,,,,,,,,,,,,,,,,,,,,,,,,,,,,,,,,,,,,,,,,,,,,,,,,,,,,,,,,,,,,,,,,,,,,,,,,,,,,,,,,,,,,,
,,6669f64ecd7e3ec30632f607,2026-03-17_14h10.34.102,kallum_motion_pilot_GIST_update_2,2026.1.1,Win32,40.32258065,6669f64ecd7e3ec30632f607,69b95efdef24cd8a694e89ee,69b960837a1bd02e9f26447e,0.3371,0.3372,1,69,231,30,1,fourtwo,,,,,,,,,,,,,,,,,,,,,,,,,,,,,,,,,,,,,,,,,,,,,,,,,,,,,,,,,,,,,,,,,,,,,,,,,,,,,,,,,,,,,,,,,,,,,,,,,,,,,,,,,,,,,,,,,,,,,,,,,,,,,,,,,,,,,,,,,
,,6669f64ecd7e3ec30632f607,2026-03-17_14h10.34.102,kallum_motion_pilot_GIST_update_2,2026.1.1,Win32,40.32258065,6669f64ecd7e3ec30632f607,69b95efdef24cd8a694e89ee,69b960837a1bd02e9f26447e,0.3381,0.3382,1,70,232,96,1,fivesix,,,,,,,,,,,,,,,,,,,,,,,,,,,,,,,,,,,,,,,,,,,,,,,,,,,,,,,,,,,,,,,,,,,,,,,,,,,,,,,,,,,,,,,,,,,,,,,,,,,,,,,,,,,,,,,,,,,,,,,,,,,,,,,,,,,,,,,,,
,,6669f64ecd7e3ec30632f607,2026-03-17_14h10.34.102,kallum_motion_pilot_GIST_update_2,2026.1.1,Win32,40.32258065,6669f64ecd7e3ec30632f607,69b95efdef24cd8a694e89ee,69b960837a1bd02e9f26447e,0.339,0.3391,1,71,233,61,1,threefour,,,,,,,,,,,,,,,,,,,,,,,,,,,,,,,,,,,,,,,,,,,,,,,,,,,,,,,,,,,,,,,,,,,,,,,,,,,,,,,,,,,,,,,,,,,,,,,,,,,,,,,,,,,,,,,,,,,,,,,,,,,,,,,,,,,,,,,,,
,,6669f64ecd7e3ec30632f607,2026-03-17_14h10.34.102,kallum_motion_pilot_GIST_update_2,2026.1.1,Win32,40.32258065,6669f64ecd7e3ec30632f607,69b95efdef24cd8a694e89ee,69b960837a1bd02e9f26447e,0.34,0.3405,1,72,234,14,1,fourtwo,,,,,,,,,,,,,,,,,,,,,,,,,,,,,,,,,,,,,,,,,,,,,,,,,,,,,,,,,,,,,,,,,,,,,,,,,,,,,,,,,,,,,,,,,,,,,,,,,,,,,,,,,,,,,,,,,,,,,,,,,,,,,,,,,,,,,,,,,
,,6669f64ecd7e3ec30632f607,2026-03-17_14h10.34.102,kallum_motion_pilot_GIST_update_2,2026.1.1,Win32,40.32258065,6669f64ecd7e3ec30632f607,69b95efdef24cd8a694e89ee,69b960837a1bd02e9f26447e,0.3413,0.3414,1,73,235,59,1,twofour,,,,,,,,,,,,,,,,,,,,,,,,,,,,,,,,,,,,,,,,,,,,,,,,,,,,,,,,,,,,,,,,,,,,,,,,,,,,,,,,,,,,,,,,,,,,,,,,,,,,,,,,,,,,,,,,,,,,,,,,,,,,,,,,,,,,,,,,,
,,6669f64ecd7e3ec30632f607,2026-03-17_14h10.34.102,kallum_motion_pilot_GIST_update_2,2026.1.1,Win32,40.32258065,6669f64ecd7e3ec30632f607,69b95efdef24cd8a694e89ee,69b960837a1bd02e9f26447e,0.3423,0.3424,1,74,236,126,1,eightsix,,,,,,,,,,,,,,,,,,,,,,,,,,,,,,,,,,,,,,,,,,,,,,,,,,,,,,,,,,,,,,,,,,,,,,,,,,,,,,,,,,,,,,,,,,,,,,,,,,,,,,,,,,,,,,,,,,,,,,,,,,,,,,,,,,,,,,,,,
,,6669f64ecd7e3ec30632f607,2026-03-17_14h10.34.102,kallum_motion_pilot_GIST_update_2,2026.1.1,Win32,40.32258065,6669f64ecd7e3ec30632f607,69b95efdef24cd8a694e89ee,69b960837a1bd02e9f26447e,0.3432,0.3433,1,75,237,22,1,fourtwo,,,,,,,,,,,,,,,,,,,,,,,,,,,,,,,,,,,,,,,,,,,,,,,,,,,,,,,,,,,,,,,,,,,,,,,,,,,,,,,,,,,,,,,,,,,,,,,,,,,,,,,,,,,,,,,,,,,,,,,,,,,,,,,,,,,,,,,,,
,,6669f64ecd7e3ec30632f607,2026-03-17_14h10.34.102,kallum_motion_pilot_GIST_update_2,2026.1.1,Win32,40.32258065,6669f64ecd7e3ec30632f607,69b95efdef24cd8a694e89ee,69b960837a1bd02e9f26447e,0.3442,0.3442,1,76,238,103,1,eightseven,,,,,,,,,,,,,,,,,,,,,,,,,,,,,,,,,,,,,,,,,,,,,,,,,,,,,,,,,,,,,,,,,,,,,,,,,,,,,,,,,,,,,,,,,,,,,,,,,,,,,,,,,,,,,,,,,,,,,,,,,,,,,,,,,,,,,,,,,
,,6669f64ecd7e3ec30632f607,2026-03-17_14h10.34.102,kallum_motion_pilot_GIST_update_2,2026.1.1,Win32,40.32258065,6669f64ecd7e3ec30632f607,69b95efdef24cd8a694e89ee,69b960837a1bd02e9f26447e,0.3451,0.3452,1,77,239,139,1,sixeight,,,,,,,,,,,,,,,,,,,,,,,,,,,,,,,,,,,,,,,,,,,,,,,,,,,,,,,,,,,,,,,,,,,,,,,,,,,,,,,,,,,,,,,,,,,,,,,,,,,,,,,,,,,,,,,,,,,,,,,,,,,,,,,,,,,,,,,,,
,,6669f64ecd7e3ec30632f607,2026-03-17_14h10.34.102,kallum_motion_pilot_GIST_update_2,2026.1.1,Win32,40.32258065,6669f64ecd7e3ec30632f607,69b95efdef24cd8a694e89ee,69b960837a1bd02e9f26447e,0.3459,0.346,1,78,240,143,1,eightseven,,,,,,,,,,,,,,,,,,,,,,,,,,,,,,,,,,,,,,,,,,,,,,,,,,,,,,,,,,,,,,,,,,,,,,,,,,,,,,,,,,,,,,,,,,,,,,,,,,,,,,,,,,,,,,,,,,,,,,,,,,,,,,,,,,,,,,,,,
,,6669f64ecd7e3ec30632f607,2026-03-17_14h10.34.102,kallum_motion_pilot_GIST_update_2,2026.1.1,Win32,40.32258065,6669f64ecd7e3ec30632f607,69b95efdef24cd8a694e89ee,69b960837a1bd02e9f26447e,0.3468,0.3469,1,79,241,132,1,sevenfive,,,,,,,,,,,,,,,,,,,,,,,,,,,,,,,,,,,,,,,,,,,,,,,,,,,,,,,,,,,,,,,,,,,,,,,,,,,,,,,,,,,,,,,,,,,,,,,,,,,,,,,,,,,,,,,,,,,,,,,,,,,,,,,,,,,,,,,,,
,,6669f64ecd7e3ec30632f607,2026-03-17_14h10.34.102,kallum_motion_pilot_GIST_update_2,2026.1.1,Win32,40.32258065,6669f64ecd7e3ec30632f607,69b95efdef24cd8a694e89ee,69b960837a1bd02e9f26447e,0.3478,0.3478,1,80,242,125,1,seveneight,,,,,,,,,,,,,,,,,,,,,,,,,,,,,,,,,,,,,,,,,,,,,,,,,,,,,,,,,,,,,,,,,,,,,,,,,,,,,,,,,,,,,,,,,,,,,,,,,,,,,,,,,,,,,,,,,,,,,,,,,,,,,,,,,,,,,,,,,
,,6669f64ecd7e3ec30632f607,2026-03-17_14h10.34.102,kallum_motion_pilot_GIST_update_2,2026.1.1,Win32,40.32258065,6669f64ecd7e3ec30632f607,69b95efdef24cd8a694e89ee,69b960837a1bd02e9f26447e,0.3487,0.3488,1,81,243,77,1,threefour,,,,,,,,,,,,,,,,,,,,,,,,,,,,,,,,,,,,,,,,,,,,,,,,,,,,,,,,,,,,,,,,,,,,,,,,,,,,,,,,,,,,,,,,,,,,,,,,,,,,,,,,,,,,,,,,,,,,,,,,,,,,,,,,,,,,,,,,,
,,6669f64ecd7e3ec30632f607,2026-03-17_14h10.34.102,kallum_motion_pilot_GIST_update_2,2026.1.1,Win32,40.32258065,6669f64ecd7e3ec30632f607,69b95efdef24cd8a694e89ee,69b960837a1bd02e9f26447e,0.3497,0.3497,1,82,244,113,1,fiveseven,,,,,,,,,,,,,,,,,,,,,,,,,,,,,,,,,,,,,,,,,,,,,,,,,,,,,,,,,,,,,,,,,,,,,,,,,,,,,,,,,,,,,,,,,,,,,,,,,,,,,,,,,,,,,,,,,,,,,,,,,,,,,,,,,,,,,,,,,
,,6669f64ecd7e3ec30632f607,2026-03-17_14h10.34.102,kallum_motion_pilot_GIST_update_2,2026.1.1,Win32,40.32258065,6669f64ecd7e3ec30632f607,69b95efdef24cd8a694e89ee,69b960837a1bd02e9f26447e,0.3509,0.3511,1,83,245,153,1,fiveseven,,,,,,,,,,,,,,,,,,,,,,,,,,,,,,,,,,,,,,,,,,,,,,,,,,,,,,,,,,,,,,,,,,,,,,,,,,,,,,,,,,,,,,,,,,,,,,,,,,,,,,,,,,,,,,,,,,,,,,,,,,,,,,,,,,,,,,,,,
,,6669f64ecd7e3ec30632f607,2026-03-17_14h10.34.102,kallum_motion_pilot_GIST_update_2,2026.1.1,Win32,40.32258065,6669f64ecd7e3ec30632f607,69b95efdef24cd8a694e89ee,69b960837a1bd02e9f26447e,0.3519,0.3519,1,84,246,111,1,eightseven,,,,,,,,,,,,,,,,,,,,,,,,,,,,,,,,,,,,,,,,,,,,,,,,,,,,,,,,,,,,,,,,,,,,,,,,,,,,,,,,,,,,,,,,,,,,,,,,,,,,,,,,,,,,,,,,,,,,,,,,,,,,,,,,,,,,,,,,,
,,6669f64ecd7e3ec30632f607,2026-03-17_14h10.34.102,kallum_motion_pilot_GIST_update_2,2026.1.1,Win32,40.32258065,6669f64ecd7e3ec30632f607,69b95efdef24cd8a694e89ee,69b960837a1bd02e9f26447e,0.3527,0.3528,1,85,247,131,1,sixeight,,,,,,,,,,,,,,,,,,,,,,,,,,,,,,,,,,,,,,,,,,,,,,,,,,,,,,,,,,,,,,,,,,,,,,,,,,,,,,,,,,,,,,,,,,,,,,,,,,,,,,,,,,,,,,,,,,,,,,,,,,,,,,,,,,,,,,,,,
,,6669f64ecd7e3ec30632f607,2026-03-17_14h10.34.102,kallum_motion_pilot_GIST_update_2,2026.1.1,Win32,40.32258065,6669f64ecd7e3ec30632f607,69b95efdef24cd8a694e89ee,69b960837a1bd02e9f26447e,0.3536,0.3537,1,86,248,133,1,seveneight,,,,,,,,,,,,,,,,,,,,,,,,,,,,,,,,,,,,,,,,,,,,,,,,,,,,,,,,,,,,,,,,,,,,,,,,,,,,,,,,,,,,,,,,,,,,,,,,,,,,,,,,,,,,,,,,,,,,,,,,,,,,,,,,,,,,,,,,,
,,6669f64ecd7e3ec30632f607,2026-03-17_14h10.34.102,kallum_motion_pilot_GIST_update_2,2026.1.1,Win32,40.32258065,6669f64ecd7e3ec30632f607,69b95efdef24cd8a694e89ee,69b960837a1bd02e9f26447e,0.3545,0.3546,1,87,249,106,1,sixfive,,,,,,,,,,,,,,,,,,,,,,,,,,,,,,,,,,,,,,,,,,,,,,,,,,,,,,,,,,,,,,,,,,,,,,,,,,,,,,,,,,,,,,,,,,,,,,,,,,,,,,,,,,,,,,,,,,,,,,,,,,,,,,,,,,,,,,,,,
,,6669f64ecd7e3ec30632f607,2026-03-17_14h10.34.102,kallum_motion_pilot_GIST_update_2,2026.1.1,Win32,40.32258065,6669f64ecd7e3ec30632f607,69b95efdef24cd8a694e89ee,69b960837a1bd02e9f26447e,0.3555,0.3555,1,88,250,92,1,sevenfive,,,,,,,,,,,,,,,,,,,,,,,,,,,,,,,,,,,,,,,,,,,,,,,,,,,,,,,,,,,,,,,,,,,,,,,,,,,,,,,,,,,,,,,,,,,,,,,,,,,,,,,,,,,,,,,,,,,,,,,,,,,,,,,,,,,,,,,,,
,,6669f64ecd7e3ec30632f607,2026-03-17_14h10.34.102,kallum_motion_pilot_GIST_update_2,2026.1.1,Win32,40.32258065,6669f64ecd7e3ec30632f607,69b95efdef24cd8a694e89ee,69b960837a1bd02e9f26447e,0.3564,0.3565,1,89,251,37,1,threefour,,,,,,,,,,,,,,,,,,,,,,,,,,,,,,,,,,,,,,,,,,,,,,,,,,,,,,,,,,,,,,,,,,,,,,,,,,,,,,,,,,,,,,,,,,,,,,,,,,,,,,,,,,,,,,,,,,,,,,,,,,,,,,,,,,,,,,,,,
,,6669f64ecd7e3ec30632f607,2026-03-17_14h10.34.102,kallum_motion_pilot_GIST_update_2,2026.1.1,Win32,40.32258065,6669f64ecd7e3ec30632f607,69b95efdef24cd8a694e89ee,69b960837a1bd02e9f26447e,0.3574,0.3575,1,90,252,148,1,sevenfive,,,,,,,,,,,,,,,,,,,,,,,,,,,,,,,,,,,,,,,,,,,,,,,,,,,,,,,,,,,,,,,,,,,,,,,,,,,,,,,,,,,,,,,,,,,,,,,,,,,,,,,,,,,,,,,,,,,,,,,,,,,,,,,,,,,,,,,,,
,,6669f64ecd7e3ec30632f607,2026-03-17_14h10.34.102,kallum_motion_pilot_GIST_update_2,2026.1.1,Win32,40.32258065,6669f64ecd7e3ec30632f607,69b95efdef24cd8a694e89ee,69b960837a1bd02e9f26447e,0.3584,0.3584,1,91,253,146,1,sixfive,,,,,,,,,,,,,,,,,,,,,,,,,,,,,,,,,,,,,,,,,,,,,,,,,,,,,,,,,,,,,,,,,,,,,,,,,,,,,,,,,,,,,,,,,,,,,,,,,,,,,,,,,,,,,,,,,,,,,,,,,,,,,,,,,,,,,,,,,
,,6669f64ecd7e3ec30632f607,2026-03-17_14h10.34.102,kallum_motion_pilot_GIST_update_2,2026.1.1,Win32,40.32258065,6669f64ecd7e3ec30632f607,69b95efdef24cd8a694e89ee,69b960837a1bd02e9f26447e,0.3593,0.3594,1,92,254,55,1,fourthree,,,,,,,,,,,,,,,,,,,,,,,,,,,,,,,,,,,,,,,,,,,,,,,,,,,,,,,,,,,,,,,,,,,,,,,,,,,,,,,,,,,,,,,,,,,,,,,,,,,,,,,,,,,,,,,,,,,,,,,,,,,,,,,,,,,,,,,,,
,,6669f64ecd7e3ec30632f607,2026-03-17_14h10.34.102,kallum_motion_pilot_GIST_update_2,2026.1.1,Win32,40.32258065,6669f64ecd7e3ec30632f607,69b95efdef24cd8a694e89ee,69b960837a1bd02e9f26447e,0.361,0.3611,1,93,255,107,1,sixeight,,,,,,,,,,,,,,,,,,,,,,,,,,,,,,,,,,,,,,,,,,,,,,,,,,,,,,,,,,,,,,,,,,,,,,,,,,,,,,,,,,,,,,,,,,,,,,,,,,,,,,,,,,,,,,,,,,,,,,,,,,,,,,,,,,,,,,,,,
,,6669f64ecd7e3ec30632f607,2026-03-17_14h10.34.102,kallum_motion_pilot_GIST_update_2,2026.1.1,Win32,40.32258065,6669f64ecd7e3ec30632f607,69b95efdef24cd8a694e89ee,69b960837a1bd02e9f26447e,0.3622,0.3623,1,94,256,115,1,sixeight,,,,,,,,,,,,,,,,,,,,,,,,,,,,,,,,,,,,,,,,,,,,,,,,,,,,,,,,,,,,,,,,,,,,,,,,,,,,,,,,,,,,,,,,,,,,,,,,,,,,,,,,,,,,,,,,,,,,,,,,,,,,,,,,,,,,,,,,,
,,6669f64ecd7e3ec30632f607,2026-03-17_14h10.34.102,kallum_motion_pilot_GIST_update_2,2026.1.1,Win32,40.32258065,6669f64ecd7e3ec30632f607,69b95efdef24cd8a694e89ee,69b960837a1bd02e9f26447e,0.3632,0.3633,1,95,257,105,1,fiveseven,,,,,,,,,,,,,,,,,,,,,,,,,,,,,,,,,,,,,,,,,,,,,,,,,,,,,,,,,,,,,,,,,,,,,,,,,,,,,,,,,,,,,,,,,,,,,,,,,,,,,,,,,,,,,,,,,,,,,,,,,,,,,,,,,,,,,,,,,
,,6669f64ecd7e3ec30632f607,2026-03-17_14h10.34.102,kallum_motion_pilot_GIST_update_2,2026.1.1,Win32,40.32258065,6669f64ecd7e3ec30632f607,69b95efdef24cd8a694e89ee,69b960837a1bd02e9f26447e,0.3642,0.3643,1,96,258,27,1,twofour,,,,,,,,,,,,,,,,,,,,,,,,,,,,,,,,,,,,,,,,,,,,,,,,,,,,,,,,,,,,,,,,,,,,,,,,,,,,,,,,,,,,,,,,,,,,,,,,,,,,,,,,,,,,,,,,,,,,,,,,,,,,,,,,,,,,,,,,,
,,6669f64ecd7e3ec30632f607,2026-03-17_14h10.34.102,kallum_motion_pilot_GIST_update_2,2026.1.1,Win32,40.32258065,6669f64ecd7e3ec30632f607,69b95efdef24cd8a694e89ee,69b960837a1bd02e9f26447e,0.3651,0.3652,1,97,259,154,1,sixfive,,,,,,,,,,,,,,,,,,,,,,,,,,,,,,,,,,,,,,,,,,,,,,,,,,,,,,,,,,,,,,,,,,,,,,,,,,,,,,,,,,,,,,,,,,,,,,,,,,,,,,,,,,,,,,,,,,,,,,,,,,,,,,,,,,,,,,,,,
,,6669f64ecd7e3ec30632f607,2026-03-17_14h10.34.102,kallum_motion_pilot_GIST_update_2,2026.1.1,Win32,40.32258065,6669f64ecd7e3ec30632f607,69b95efdef24cd8a694e89ee,69b960837a1bd02e9f26447e,0.3661,0.3661,1,98,260,137,1,fiveseven,,,,,,,,,,,,,,,,,,,,,,,,,,,,,,,,,,,,,,,,,,,,,,,,,,,,,,,,,,,,,,,,,,,,,,,,,,,,,,,,,,,,,,,,,,,,,,,,,,,,,,,,,,,,,,,,,,,,,,,,,,,,,,,,,,,,,,,,,
,,6669f64ecd7e3ec30632f607,2026-03-17_14h10.34.102,kallum_motion_pilot_GIST_update_2,2026.1.1,Win32,40.32258065,6669f64ecd7e3ec30632f607,69b95efdef24cd8a694e89ee,69b960837a1bd02e9f26447e,0.3671,0.3671,1,99,261,5,1,threefour,,,,,,,,,,,,,,,,,,,,,,,,,,,,,,,,,,,,,,,,,,,,,,,,,,,,,,,,,,,,,,,,,,,,,,,,,,,,,,,,,,,,,,,,,,,,,,,,,,,,,,,,,,,,,,,,,,,,,,,,,,,,,,,,,,,,,,,,,
,,6669f64ecd7e3ec30632f607,2026-03-17_14h10.34.102,kallum_motion_pilot_GIST_update_2,2026.1.1,Win32,40.32258065,6669f64ecd7e3ec30632f607,69b95efdef24cd8a694e89ee,69b960837a1bd02e9f26447e,0.3679,0.3681,1,100,262,74,1,twoone,,,,,,,,,,,,,,,,,,,,,,,,,,,,,,,,,,,,,,,,,,,,,,,,,,,,,,,,,,,,,,,,,,,,,,,,,,,,,,,,,,,,,,,,,,,,,,,,,,,,,,,,,,,,,,,,,,,,,,,,,,,,,,,,,,,,,,,,,
,,6669f64ecd7e3ec30632f607,2026-03-17_14h10.34.102,kallum_motion_pilot_GIST_update_2,2026.1.1,Win32,40.32258065,6669f64ecd7e3ec30632f607,69b95efdef24cd8a694e89ee,69b960837a1bd02e9f26447e,0.369,0.3691,1,101,263,0,1,onetwo,,,,,,,,,,,,,,,,,,,,,,,,,,,,,,,,,,,,,,,,,,,,,,,,,,,,,,,,,,,,,,,,,,,,,,,,,,,,,,,,,,,,,,,,,,,,,,,,,,,,,,,,,,,,,,,,,,,,,,,,,,,,,,,,,,,,,,,,,
,,6669f64ecd7e3ec30632f607,2026-03-17_14h10.34.102,kallum_motion_pilot_GIST_update_2,2026.1.1,Win32,40.32258065,6669f64ecd7e3ec30632f607,69b95efdef24cd8a694e89ee,69b960837a1bd02e9f26447e,0.3708,0.3709,1,102,264,45,1,threefour,,,,,,,,,,,,,,,,,,,,,,,,,,,,,,,,,,,,,,,,,,,,,,,,,,,,,,,,,,,,,,,,,,,,,,,,,,,,,,,,,,,,,,,,,,,,,,,,,,,,,,,,,,,,,,,,,,,,,,,,,,,,,,,,,,,,,,,,,
,,6669f64ecd7e3ec30632f607,2026-03-17_14h10.34.102,kallum_motion_pilot_GIST_update_2,2026.1.1,Win32,40.32258065,6669f64ecd7e3ec30632f607,69b95efdef24cd8a694e89ee,69b960837a1bd02e9f26447e,0.3716,0.3718,1,103,265,70,1,fourtwo,,,,,,,,,,,,,,,,,,,,,,,,,,,,,,,,,,,,,,,,,,,,,,,,,,,,,,,,,,,,,,,,,,,,,,,,,,,,,,,,,,,,,,,,,,,,,,,,,,,,,,,,,,,,,,,,,,,,,,,,,,,,,,,,,,,,,,,,,
,,6669f64ecd7e3ec30632f607,2026-03-17_14h10.34.102,kallum_motion_pilot_GIST_update_2,2026.1.1,Win32,40.32258065,6669f64ecd7e3ec30632f607,69b95efdef24cd8a694e89ee,69b960837a1bd02e9f26447e,0.3729,0.373,1,104,266,4,1,threeone,,,,,,,,,,,,,,,,,,,,,,,,,,,,,,,,,,,,,,,,,,,,,,,,,,,,,,,,,,,,,,,,,,,,,,,,,,,,,,,,,,,,,,,,,,,,,,,,,,,,,,,,,,,,,,,,,,,,,,,,,,,,,,,,,,,,,,,,,
