startup.started,startup.stopped,Prolific ID*,date,expName,psychopyVersion,OS,frameRate,participant,study_id,session,stimpositions.started,stimpositions.stopped,hardcoded_stimulus_positions.thisRepN,hardcoded_stimulus_positions.thisTrialN,hardcoded_stimulus_positions.thisN,hardcoded_stimulus_positions.thisIndex,hardcoded_stimulus_positions.ran,StimulusPos,stimorientation.started,stimorientation.stopped,prac_stimorientation_import_loop.thisRepN,prac_stimorientation_import_loop.thisTrialN,prac_stimorientation_import_loop.thisN,prac_stimorientation_import_loop.thisIndex,prac_stimorientation_import_loop.ran,Stimorientation,welcome_instr.started,welcome_instr.stopped,key_resp.keys,key_resp.rt,key_resp.duration,response_steppedout_1.started,response_steppedout_1.stopped,key_resp_20.keys,key_resp_20.rt,key_resp_20.duration,response_steppedout_2.started,response_steppedout_2.stopped,key_resp_19.keys,key_resp_19.rt,key_resp_19.duration,stim_response_instr.started,stim_response_instr.stopped,key_resp_15.keys,key_resp_15.rt,key_resp_15.duration,direction_instr_2.started,direction_instr_2.stopped,key_resp_9.keys,key_resp_9.rt,key_resp_9.duration,instr_prac.started,instr_prac.stopped,key_resp_10.keys,key_resp_10.rt,key_resp_10.duration,Stim1_display_prac.started,Stim1_display_prac.stopped,Ecc,Circle1_ori,Circle2_ori,response_prac.started,similarity,response_time,response_prac.stopped,mouse_5.x,mouse_5.y,mouse_5.leftButton,mouse_5.midButton,mouse_5.rightButton,mouse_5.clicked_name,responseprac_feedback.started,responseprac_feedback.stopped,summary2_prac.started,summary2_prac.stopped,mouse_6.x,mouse_6.y,mouse_6.leftButton,mouse_6.midButton,mouse_6.rightButton,mouse_6.clicked_name,duringprac.thisRepN,duringprac.thisTrialN,duringprac.thisN,duringprac.thisIndex,duringprac.ran,begin.started,begin.stopped,key_resp_22.keys,key_resp_22.rt,key_resp_22.duration,Stim1_display.started,Stim1_display.stopped,circle1_ori,circle2_ori,circle1_SF,circle2_SF,response.started,response.stopped,mouse.x,mouse.y,mouse.leftButton,mouse.midButton,mouse.rightButton,mouse.clicked_name,trialnumber,double_pass.thisRepN,double_pass.thisTrialN,double_pass.thisN,double_pass.thisIndex,double_pass.ran,double_pass.order,main_trial.thisRepN,main_trial.thisTrialN,main_trial.thisN,main_trial.thisIndex,main_trial.ran,main_trial.order,Trial_Counter,Catch,Frequencies,response_2.started,response_2.stopped,mouse_2.x,mouse_2.y,mouse_2.leftButton,mouse_2.midButton,mouse_2.rightButton,mouse_2.clicked_name,special_trial.started,special_trial.stopped,catch_1.started,catch_1.stopped,mouse_3.x,mouse_3.y,mouse_3.leftButton,mouse_3.midButton,mouse_3.rightButton,catchresponse,catchnumber,response_time_catch,response_sum.started,response_sum.stopped,mouse_11.x,mouse_11.y,mouse_11.leftButton,mouse_11.midButton,mouse_11.rightButton,flip_presentation_sequence_for_double_pass.started,flip_presentation_sequence_for_double_pass.stopped,goodbye.started,goodbye.stopped,key_resp_3.keys,key_resp_3.rt,key_resp_3.duration
0.0004,0.0006,666afffc29d3c10e9be0bb97,2026-03-17_16h14.12.965,kallum_motion_pilot_GIST_update_2,2026.1.1,MacIntel,59.88023952,666afffc29d3c10e9be0bb97,69b95efdef24cd8a694e89ee,69b96011d09f725fed199eab,,,,,,,,,,,,,,,,,,,,,,,,,,,,,,,,,,,,,,,,,,,,,,,,,,,,,,,,,,,,,,,,,,,,,,,,,,,,,,,,,,,,,,,,,,,,,,,,,,,,,,,,,,,,,,,,,,,,,,,,,,,,,,,,,,,,,,,,,,,,,,,,,
,,666afffc29d3c10e9be0bb97,2026-03-17_16h14.12.965,kallum_motion_pilot_GIST_update_2,2026.1.1,MacIntel,59.88023952,666afffc29d3c10e9be0bb97,69b95efdef24cd8a694e89ee,69b96011d09f725fed199eab,0.0334,0.0336,0,0,0,139,1,sixeight,,,,,,,,,,,,,,,,,,,,,,,,,,,,,,,,,,,,,,,,,,,,,,,,,,,,,,,,,,,,,,,,,,,,,,,,,,,,,,,,,,,,,,,,,,,,,,,,,,,,,,,,,,,,,,,,,,,,,,,,,,,,,,,,,,,,,,,,,
,,666afffc29d3c10e9be0bb97,2026-03-17_16h14.12.965,kallum_motion_pilot_GIST_update_2,2026.1.1,MacIntel,59.88023952,666afffc29d3c10e9be0bb97,69b95efdef24cd8a694e89ee,69b96011d09f725fed199eab,0.0342,0.0342,0,1,1,22,1,fourtwo,,,,,,,,,,,,,,,,,,,,,,,,,,,,,,,,,,,,,,,,,,,,,,,,,,,,,,,,,,,,,,,,,,,,,,,,,,,,,,,,,,,,,,,,,,,,,,,,,,,,,,,,,,,,,,,,,,,,,,,,,,,,,,,,,,,,,,,,,
,,666afffc29d3c10e9be0bb97,2026-03-17_16h14.12.965,kallum_motion_pilot_GIST_update_2,2026.1.1,MacIntel,59.88023952,666afffc29d3c10e9be0bb97,69b95efdef24cd8a694e89ee,69b96011d09f725fed199eab,0.0344,0.0344,0,2,2,80,1,fivesix,,,,,,,,,,,,,,,,,,,,,,,,,,,,,,,,,,,,,,,,,,,,,,,,,,,,,,,,,,,,,,,,,,,,,,,,,,,,,,,,,,,,,,,,,,,,,,,,,,,,,,,,,,,,,,,,,,,,,,,,,,,,,,,,,,,,,,,,,
,,666afffc29d3c10e9be0bb97,2026-03-17_16h14.12.965,kallum_motion_pilot_GIST_update_2,2026.1.1,MacIntel,59.88023952,666afffc29d3c10e9be0bb97,69b95efdef24cd8a694e89ee,69b96011d09f725fed199eab,0.0347,0.0347,0,3,3,68,1,threeone,,,,,,,,,,,,,,,,,,,,,,,,,,,,,,,,,,,,,,,,,,,,,,,,,,,,,,,,,,,,,,,,,,,,,,,,,,,,,,,,,,,,,,,,,,,,,,,,,,,,,,,,,,,,,,,,,,,,,,,,,,,,,,,,,,,,,,,,,
,,666afffc29d3c10e9be0bb97,2026-03-17_16h14.12.965,kallum_motion_pilot_GIST_update_2,2026.1.1,MacIntel,59.88023952,666afffc29d3c10e9be0bb97,69b95efdef24cd8a694e89ee,69b96011d09f725fed199eab,0.0348,0.0349,0,4,4,71,1,fourthree,,,,,,,,,,,,,,,,,,,,,,,,,,,,,,,,,,,,,,,,,,,,,,,,,,,,,,,,,,,,,,,,,,,,,,,,,,,,,,,,,,,,,,,,,,,,,,,,,,,,,,,,,,,,,,,,,,,,,,,,,,,,,,,,,,,,,,,,,
,,666afffc29d3c10e9be0bb97,2026-03-17_16h14.12.965,kallum_motion_pilot_GIST_update_2,2026.1.1,MacIntel,59.88023952,666afffc29d3c10e9be0bb97,69b95efdef24cd8a694e89ee,69b96011d09f725fed199eab,0.0351,0.0351,0,5,5,152,1,fivesix,,,,,,,,,,,,,,,,,,,,,,,,,,,,,,,,,,,,,,,,,,,,,,,,,,,,,,,,,,,,,,,,,,,,,,,,,,,,,,,,,,,,,,,,,,,,,,,,,,,,,,,,,,,,,,,,,,,,,,,,,,,,,,,,,,,,,,,,,
,,666afffc29d3c10e9be0bb97,2026-03-17_16h14.12.965,kallum_motion_pilot_GIST_update_2,2026.1.1,MacIntel,59.88023952,666afffc29d3c10e9be0bb97,69b95efdef24cd8a694e89ee,69b96011d09f725fed199eab,0.0353,0.0353,0,6,6,111,1,eightseven,,,,,,,,,,,,,,,,,,,,,,,,,,,,,,,,,,,,,,,,,,,,,,,,,,,,,,,,,,,,,,,,,,,,,,,,,,,,,,,,,,,,,,,,,,,,,,,,,,,,,,,,,,,,,,,,,,,,,,,,,,,,,,,,,,,,,,,,,
,,666afffc29d3c10e9be0bb97,2026-03-17_16h14.12.965,kallum_motion_pilot_GIST_update_2,2026.1.1,MacIntel,59.88023952,666afffc29d3c10e9be0bb97,69b95efdef24cd8a694e89ee,69b96011d09f725fed199eab,0.0354,0.0355,0,7,7,102,1,eightsix,,,,,,,,,,,,,,,,,,,,,,,,,,,,,,,,,,,,,,,,,,,,,,,,,,,,,,,,,,,,,,,,,,,,,,,,,,,,,,,,,,,,,,,,,,,,,,,,,,,,,,,,,,,,,,,,,,,,,,,,,,,,,,,,,,,,,,,,,
,,666afffc29d3c10e9be0bb97,2026-03-17_16h14.12.965,kallum_motion_pilot_GIST_update_2,2026.1.1,MacIntel,59.88023952,666afffc29d3c10e9be0bb97,69b95efdef24cd8a694e89ee,69b96011d09f725fed199eab,0.0357,0.0357,0,8,8,160,1,fivesix,,,,,,,,,,,,,,,,,,,,,,,,,,,,,,,,,,,,,,,,,,,,,,,,,,,,,,,,,,,,,,,,,,,,,,,,,,,,,,,,,,,,,,,,,,,,,,,,,,,,,,,,,,,,,,,,,,,,,,,,,,,,,,,,,,,,,,,,,
,,666afffc29d3c10e9be0bb97,2026-03-17_16h14.12.965,kallum_motion_pilot_GIST_update_2,2026.1.1,MacIntel,59.88023952,666afffc29d3c10e9be0bb97,69b95efdef24cd8a694e89ee,69b96011d09f725fed199eab,0.036,0.036,0,9,9,91,1,sixeight,,,,,,,,,,,,,,,,,,,,,,,,,,,,,,,,,,,,,,,,,,,,,,,,,,,,,,,,,,,,,,,,,,,,,,,,,,,,,,,,,,,,,,,,,,,,,,,,,,,,,,,,,,,,,,,,,,,,,,,,,,,,,,,,,,,,,,,,,
,,666afffc29d3c10e9be0bb97,2026-03-17_16h14.12.965,kallum_motion_pilot_GIST_update_2,2026.1.1,MacIntel,59.88023952,666afffc29d3c10e9be0bb97,69b95efdef24cd8a694e89ee,69b96011d09f725fed199eab,0.0362,0.0362,0,10,10,86,1,eightsix,,,,,,,,,,,,,,,,,,,,,,,,,,,,,,,,,,,,,,,,,,,,,,,,,,,,,,,,,,,,,,,,,,,,,,,,,,,,,,,,,,,,,,,,,,,,,,,,,,,,,,,,,,,,,,,,,,,,,,,,,,,,,,,,,,,,,,,,,
,,666afffc29d3c10e9be0bb97,2026-03-17_16h14.12.965,kallum_motion_pilot_GIST_update_2,2026.1.1,MacIntel,59.88023952,666afffc29d3c10e9be0bb97,69b95efdef24cd8a694e89ee,69b96011d09f725fed199eab,0.0363,0.0363,0,11,11,92,1,sevenfive,,,,,,,,,,,,,,,,,,,,,,,,,,,,,,,,,,,,,,,,,,,,,,,,,,,,,,,,,,,,,,,,,,,,,,,,,,,,,,,,,,,,,,,,,,,,,,,,,,,,,,,,,,,,,,,,,,,,,,,,,,,,,,,,,,,,,,,,,
,,666afffc29d3c10e9be0bb97,2026-03-17_16h14.12.965,kallum_motion_pilot_GIST_update_2,2026.1.1,MacIntel,59.88023952,666afffc29d3c10e9be0bb97,69b95efdef24cd8a694e89ee,69b96011d09f725fed199eab,0.0365,0.0365,0,12,12,98,1,sixfive,,,,,,,,,,,,,,,,,,,,,,,,,,,,,,,,,,,,,,,,,,,,,,,,,,,,,,,,,,,,,,,,,,,,,,,,,,,,,,,,,,,,,,,,,,,,,,,,,,,,,,,,,,,,,,,,,,,,,,,,,,,,,,,,,,,,,,,,,
,,666afffc29d3c10e9be0bb97,2026-03-17_16h14.12.965,kallum_motion_pilot_GIST_update_2,2026.1.1,MacIntel,59.88023952,666afffc29d3c10e9be0bb97,69b95efdef24cd8a694e89ee,69b96011d09f725fed199eab,0.0367,0.0367,0,13,13,27,1,twofour,,,,,,,,,,,,,,,,,,,,,,,,,,,,,,,,,,,,,,,,,,,,,,,,,,,,,,,,,,,,,,,,,,,,,,,,,,,,,,,,,,,,,,,,,,,,,,,,,,,,,,,,,,,,,,,,,,,,,,,,,,,,,,,,,,,,,,,,,
,,666afffc29d3c10e9be0bb97,2026-03-17_16h14.12.965,kallum_motion_pilot_GIST_update_2,2026.1.1,MacIntel,59.88023952,666afffc29d3c10e9be0bb97,69b95efdef24cd8a694e89ee,69b96011d09f725fed199eab,0.0368,0.0368,0,14,14,124,1,sevenfive,,,,,,,,,,,,,,,,,,,,,,,,,,,,,,,,,,,,,,,,,,,,,,,,,,,,,,,,,,,,,,,,,,,,,,,,,,,,,,,,,,,,,,,,,,,,,,,,,,,,,,,,,,,,,,,,,,,,,,,,,,,,,,,,,,,,,,,,,
,,666afffc29d3c10e9be0bb97,2026-03-17_16h14.12.965,kallum_motion_pilot_GIST_update_2,2026.1.1,MacIntel,59.88023952,666afffc29d3c10e9be0bb97,69b95efdef24cd8a694e89ee,69b96011d09f725fed199eab,0.0369,0.0369,0,15,15,88,1,fivesix,,,,,,,,,,,,,,,,,,,,,,,,,,,,,,,,,,,,,,,,,,,,,,,,,,,,,,,,,,,,,,,,,,,,,,,,,,,,,,,,,,,,,,,,,,,,,,,,,,,,,,,,,,,,,,,,,,,,,,,,,,,,,,,,,,,,,,,,,
,,666afffc29d3c10e9be0bb97,2026-03-17_16h14.12.965,kallum_motion_pilot_GIST_update_2,2026.1.1,MacIntel,59.88023952,666afffc29d3c10e9be0bb97,69b95efdef24cd8a694e89ee,69b96011d09f725fed199eab,0.0371,0.0371,0,16,16,51,1,twofour,,,,,,,,,,,,,,,,,,,,,,,,,,,,,,,,,,,,,,,,,,,,,,,,,,,,,,,,,,,,,,,,,,,,,,,,,,,,,,,,,,,,,,,,,,,,,,,,,,,,,,,,,,,,,,,,,,,,,,,,,,,,,,,,,,,,,,,,,
,,666afffc29d3c10e9be0bb97,2026-03-17_16h14.12.965,kallum_motion_pilot_GIST_update_2,2026.1.1,MacIntel,59.88023952,666afffc29d3c10e9be0bb97,69b95efdef24cd8a694e89ee,69b96011d09f725fed199eab,0.0372,0.0373,0,17,17,121,1,fiveseven,,,,,,,,,,,,,,,,,,,,,,,,,,,,,,,,,,,,,,,,,,,,,,,,,,,,,,,,,,,,,,,,,,,,,,,,,,,,,,,,,,,,,,,,,,,,,,,,,,,,,,,,,,,,,,,,,,,,,,,,,,,,,,,,,,,,,,,,,
,,666afffc29d3c10e9be0bb97,2026-03-17_16h14.12.965,kallum_motion_pilot_GIST_update_2,2026.1.1,MacIntel,59.88023952,666afffc29d3c10e9be0bb97,69b95efdef24cd8a694e89ee,69b96011d09f725fed199eab,0.0374,0.0375,0,18,18,4,1,threeone,,,,,,,,,,,,,,,,,,,,,,,,,,,,,,,,,,,,,,,,,,,,,,,,,,,,,,,,,,,,,,,,,,,,,,,,,,,,,,,,,,,,,,,,,,,,,,,,,,,,,,,,,,,,,,,,,,,,,,,,,,,,,,,,,,,,,,,,,
,,666afffc29d3c10e9be0bb97,2026-03-17_16h14.12.965,kallum_motion_pilot_GIST_update_2,2026.1.1,MacIntel,59.88023952,666afffc29d3c10e9be0bb97,69b95efdef24cd8a694e89ee,69b96011d09f725fed199eab,0.0376,0.0376,0,19,19,110,1,eightsix,,,,,,,,,,,,,,,,,,,,,,,,,,,,,,,,,,,,,,,,,,,,,,,,,,,,,,,,,,,,,,,,,,,,,,,,,,,,,,,,,,,,,,,,,,,,,,,,,,,,,,,,,,,,,,,,,,,,,,,,,,,,,,,,,,,,,,,,,
,,666afffc29d3c10e9be0bb97,2026-03-17_16h14.12.965,kallum_motion_pilot_GIST_update_2,2026.1.1,MacIntel,59.88023952,666afffc29d3c10e9be0bb97,69b95efdef24cd8a694e89ee,69b96011d09f725fed199eab,0.0378,0.0378,0,20,20,146,1,sixfive,,,,,,,,,,,,,,,,,,,,,,,,,,,,,,,,,,,,,,,,,,,,,,,,,,,,,,,,,,,,,,,,,,,,,,,,,,,,,,,,,,,,,,,,,,,,,,,,,,,,,,,,,,,,,,,,,,,,,,,,,,,,,,,,,,,,,,,,,
,,666afffc29d3c10e9be0bb97,2026-03-17_16h14.12.965,kallum_motion_pilot_GIST_update_2,2026.1.1,MacIntel,59.88023952,666afffc29d3c10e9be0bb97,69b95efdef24cd8a694e89ee,69b96011d09f725fed199eab,0.0379,0.0379,0,21,21,140,1,sevenfive,,,,,,,,,,,,,,,,,,,,,,,,,,,,,,,,,,,,,,,,,,,,,,,,,,,,,,,,,,,,,,,,,,,,,,,,,,,,,,,,,,,,,,,,,,,,,,,,,,,,,,,,,,,,,,,,,,,,,,,,,,,,,,,,,,,,,,,,,
,,666afffc29d3c10e9be0bb97,2026-03-17_16h14.12.965,kallum_motion_pilot_GIST_update_2,2026.1.1,MacIntel,59.88023952,666afffc29d3c10e9be0bb97,69b95efdef24cd8a694e89ee,69b96011d09f725fed199eab,0.0381,0.0381,0,22,22,114,1,sixfive,,,,,,,,,,,,,,,,,,,,,,,,,,,,,,,,,,,,,,,,,,,,,,,,,,,,,,,,,,,,,,,,,,,,,,,,,,,,,,,,,,,,,,,,,,,,,,,,,,,,,,,,,,,,,,,,,,,,,,,,,,,,,,,,,,,,,,,,,
,,666afffc29d3c10e9be0bb97,2026-03-17_16h14.12.965,kallum_motion_pilot_GIST_update_2,2026.1.1,MacIntel,59.88023952,666afffc29d3c10e9be0bb97,69b95efdef24cd8a694e89ee,69b96011d09f725fed199eab,0.0382,0.0383,0,23,23,19,1,twofour,,,,,,,,,,,,,,,,,,,,,,,,,,,,,,,,,,,,,,,,,,,,,,,,,,,,,,,,,,,,,,,,,,,,,,,,,,,,,,,,,,,,,,,,,,,,,,,,,,,,,,,,,,,,,,,,,,,,,,,,,,,,,,,,,,,,,,,,,
,,666afffc29d3c10e9be0bb97,2026-03-17_16h14.12.965,kallum_motion_pilot_GIST_update_2,2026.1.1,MacIntel,59.88023952,666afffc29d3c10e9be0bb97,69b95efdef24cd8a694e89ee,69b96011d09f725fed199eab,0.0386,0.0386,0,24,24,59,1,twofour,,,,,,,,,,,,,,,,,,,,,,,,,,,,,,,,,,,,,,,,,,,,,,,,,,,,,,,,,,,,,,,,,,,,,,,,,,,,,,,,,,,,,,,,,,,,,,,,,,,,,,,,,,,,,,,,,,,,,,,,,,,,,,,,,,,,,,,,,
,,666afffc29d3c10e9be0bb97,2026-03-17_16h14.12.965,kallum_motion_pilot_GIST_update_2,2026.1.1,MacIntel,59.88023952,666afffc29d3c10e9be0bb97,69b95efdef24cd8a694e89ee,69b96011d09f725fed199eab,0.0388,0.0388,0,25,25,95,1,eightseven,,,,,,,,,,,,,,,,,,,,,,,,,,,,,,,,,,,,,,,,,,,,,,,,,,,,,,,,,,,,,,,,,,,,,,,,,,,,,,,,,,,,,,,,,,,,,,,,,,,,,,,,,,,,,,,,,,,,,,,,,,,,,,,,,,,,,,,,,
,,666afffc29d3c10e9be0bb97,2026-03-17_16h14.12.965,kallum_motion_pilot_GIST_update_2,2026.1.1,MacIntel,59.88023952,666afffc29d3c10e9be0bb97,69b95efdef24cd8a694e89ee,69b96011d09f725fed199eab,0.0389,0.0389,0,26,26,117,1,seveneight,,,,,,,,,,,,,,,,,,,,,,,,,,,,,,,,,,,,,,,,,,,,,,,,,,,,,,,,,,,,,,,,,,,,,,,,,,,,,,,,,,,,,,,,,,,,,,,,,,,,,,,,,,,,,,,,,,,,,,,,,,,,,,,,,,,,,,,,,
,,666afffc29d3c10e9be0bb97,2026-03-17_16h14.12.965,kallum_motion_pilot_GIST_update_2,2026.1.1,MacIntel,59.88023952,666afffc29d3c10e9be0bb97,69b95efdef24cd8a694e89ee,69b96011d09f725fed199eab,0.0392,0.0392,0,27,27,82,1,sixfive,,,,,,,,,,,,,,,,,,,,,,,,,,,,,,,,,,,,,,,,,,,,,,,,,,,,,,,,,,,,,,,,,,,,,,,,,,,,,,,,,,,,,,,,,,,,,,,,,,,,,,,,,,,,,,,,,,,,,,,,,,,,,,,,,,,,,,,,,
,,666afffc29d3c10e9be0bb97,2026-03-17_16h14.12.965,kallum_motion_pilot_GIST_update_2,2026.1.1,MacIntel,59.88023952,666afffc29d3c10e9be0bb97,69b95efdef24cd8a694e89ee,69b96011d09f725fed199eab,0.0393,0.0393,0,28,28,56,1,onetwo,,,,,,,,,,,,,,,,,,,,,,,,,,,,,,,,,,,,,,,,,,,,,,,,,,,,,,,,,,,,,,,,,,,,,,,,,,,,,,,,,,,,,,,,,,,,,,,,,,,,,,,,,,,,,,,,,,,,,,,,,,,,,,,,,,,,,,,,,
,,666afffc29d3c10e9be0bb97,2026-03-17_16h14.12.965,kallum_motion_pilot_GIST_update_2,2026.1.1,MacIntel,59.88023952,666afffc29d3c10e9be0bb97,69b95efdef24cd8a694e89ee,69b96011d09f725fed199eab,0.0395,0.0395,0,29,29,25,1,onethree,,,,,,,,,,,,,,,,,,,,,,,,,,,,,,,,,,,,,,,,,,,,,,,,,,,,,,,,,,,,,,,,,,,,,,,,,,,,,,,,,,,,,,,,,,,,,,,,,,,,,,,,,,,,,,,,,,,,,,,,,,,,,,,,,,,,,,,,,
,,666afffc29d3c10e9be0bb97,2026-03-17_16h14.12.965,kallum_motion_pilot_GIST_update_2,2026.1.1,MacIntel,59.88023952,666afffc29d3c10e9be0bb97,69b95efdef24cd8a694e89ee,69b96011d09f725fed199eab,0.0396,0.0396,0,30,30,47,1,fourthree,,,,,,,,,,,,,,,,,,,,,,,,,,,,,,,,,,,,,,,,,,,,,,,,,,,,,,,,,,,,,,,,,,,,,,,,,,,,,,,,,,,,,,,,,,,,,,,,,,,,,,,,,,,,,,,,,,,,,,,,,,,,,,,,,,,,,,,,,
,,666afffc29d3c10e9be0bb97,2026-03-17_16h14.12.965,kallum_motion_pilot_GIST_update_2,2026.1.1,MacIntel,59.88023952,666afffc29d3c10e9be0bb97,69b95efdef24cd8a694e89ee,69b96011d09f725fed199eab,0.0399,0.0399,0,31,31,130,1,sixfive,,,,,,,,,,,,,,,,,,,,,,,,,,,,,,,,,,,,,,,,,,,,,,,,,,,,,,,,,,,,,,,,,,,,,,,,,,,,,,,,,,,,,,,,,,,,,,,,,,,,,,,,,,,,,,,,,,,,,,,,,,,,,,,,,,,,,,,,,
,,666afffc29d3c10e9be0bb97,2026-03-17_16h14.12.965,kallum_motion_pilot_GIST_update_2,2026.1.1,MacIntel,59.88023952,666afffc29d3c10e9be0bb97,69b95efdef24cd8a694e89ee,69b96011d09f725fed199eab,0.04,0.04,0,32,32,161,1,fiveseven,,,,,,,,,,,,,,,,,,,,,,,,,,,,,,,,,,,,,,,,,,,,,,,,,,,,,,,,,,,,,,,,,,,,,,,,,,,,,,,,,,,,,,,,,,,,,,,,,,,,,,,,,,,,,,,,,,,,,,,,,,,,,,,,,,,,,,,,,
,,666afffc29d3c10e9be0bb97,2026-03-17_16h14.12.965,kallum_motion_pilot_GIST_update_2,2026.1.1,MacIntel,59.88023952,666afffc29d3c10e9be0bb97,69b95efdef24cd8a694e89ee,69b96011d09f725fed199eab,0.0402,0.0402,0,33,33,58,1,twoone,,,,,,,,,,,,,,,,,,,,,,,,,,,,,,,,,,,,,,,,,,,,,,,,,,,,,,,,,,,,,,,,,,,,,,,,,,,,,,,,,,,,,,,,,,,,,,,,,,,,,,,,,,,,,,,,,,,,,,,,,,,,,,,,,,,,,,,,,
,,666afffc29d3c10e9be0bb97,2026-03-17_16h14.12.965,kallum_motion_pilot_GIST_update_2,2026.1.1,MacIntel,59.88023952,666afffc29d3c10e9be0bb97,69b95efdef24cd8a694e89ee,69b96011d09f725fed199eab,0.0403,0.0403,0,34,34,29,1,threefour,,,,,,,,,,,,,,,,,,,,,,,,,,,,,,,,,,,,,,,,,,,,,,,,,,,,,,,,,,,,,,,,,,,,,,,,,,,,,,,,,,,,,,,,,,,,,,,,,,,,,,,,,,,,,,,,,,,,,,,,,,,,,,,,,,,,,,,,,
,,666afffc29d3c10e9be0bb97,2026-03-17_16h14.12.965,kallum_motion_pilot_GIST_update_2,2026.1.1,MacIntel,59.88023952,666afffc29d3c10e9be0bb97,69b95efdef24cd8a694e89ee,69b96011d09f725fed199eab,0.0405,0.0405,0,35,35,33,1,onethree,,,,,,,,,,,,,,,,,,,,,,,,,,,,,,,,,,,,,,,,,,,,,,,,,,,,,,,,,,,,,,,,,,,,,,,,,,,,,,,,,,,,,,,,,,,,,,,,,,,,,,,,,,,,,,,,,,,,,,,,,,,,,,,,,,,,,,,,,
,,666afffc29d3c10e9be0bb97,2026-03-17_16h14.12.965,kallum_motion_pilot_GIST_update_2,2026.1.1,MacIntel,59.88023952,666afffc29d3c10e9be0bb97,69b95efdef24cd8a694e89ee,69b96011d09f725fed199eab,0.0407,0.0407,0,36,36,11,1,twofour,,,,,,,,,,,,,,,,,,,,,,,,,,,,,,,,,,,,,,,,,,,,,,,,,,,,,,,,,,,,,,,,,,,,,,,,,,,,,,,,,,,,,,,,,,,,,,,,,,,,,,,,,,,,,,,,,,,,,,,,,,,,,,,,,,,,,,,,,
,,666afffc29d3c10e9be0bb97,2026-03-17_16h14.12.965,kallum_motion_pilot_GIST_update_2,2026.1.1,MacIntel,59.88023952,666afffc29d3c10e9be0bb97,69b95efdef24cd8a694e89ee,69b96011d09f725fed199eab,0.0409,0.0409,0,37,37,132,1,sevenfive,,,,,,,,,,,,,,,,,,,,,,,,,,,,,,,,,,,,,,,,,,,,,,,,,,,,,,,,,,,,,,,,,,,,,,,,,,,,,,,,,,,,,,,,,,,,,,,,,,,,,,,,,,,,,,,,,,,,,,,,,,,,,,,,,,,,,,,,,
,,666afffc29d3c10e9be0bb97,2026-03-17_16h14.12.965,kallum_motion_pilot_GIST_update_2,2026.1.1,MacIntel,59.88023952,666afffc29d3c10e9be0bb97,69b95efdef24cd8a694e89ee,69b96011d09f725fed199eab,0.041,0.041,0,38,38,135,1,eightseven,,,,,,,,,,,,,,,,,,,,,,,,,,,,,,,,,,,,,,,,,,,,,,,,,,,,,,,,,,,,,,,,,,,,,,,,,,,,,,,,,,,,,,,,,,,,,,,,,,,,,,,,,,,,,,,,,,,,,,,,,,,,,,,,,,,,,,,,,
,,666afffc29d3c10e9be0bb97,2026-03-17_16h14.12.965,kallum_motion_pilot_GIST_update_2,2026.1.1,MacIntel,59.88023952,666afffc29d3c10e9be0bb97,69b95efdef24cd8a694e89ee,69b96011d09f725fed199eab,0.0411,0.0411,0,39,39,116,1,sevenfive,,,,,,,,,,,,,,,,,,,,,,,,,,,,,,,,,,,,,,,,,,,,,,,,,,,,,,,,,,,,,,,,,,,,,,,,,,,,,,,,,,,,,,,,,,,,,,,,,,,,,,,,,,,,,,,,,,,,,,,,,,,,,,,,,,,,,,,,,
,,666afffc29d3c10e9be0bb97,2026-03-17_16h14.12.965,kallum_motion_pilot_GIST_update_2,2026.1.1,MacIntel,59.88023952,666afffc29d3c10e9be0bb97,69b95efdef24cd8a694e89ee,69b96011d09f725fed199eab,0.0413,0.0413,0,40,40,35,1,twofour,,,,,,,,,,,,,,,,,,,,,,,,,,,,,,,,,,,,,,,,,,,,,,,,,,,,,,,,,,,,,,,,,,,,,,,,,,,,,,,,,,,,,,,,,,,,,,,,,,,,,,,,,,,,,,,,,,,,,,,,,,,,,,,,,,,,,,,,,
,,666afffc29d3c10e9be0bb97,2026-03-17_16h14.12.965,kallum_motion_pilot_GIST_update_2,2026.1.1,MacIntel,59.88023952,666afffc29d3c10e9be0bb97,69b95efdef24cd8a694e89ee,69b96011d09f725fed199eab,0.0415,0.0415,0,41,41,64,1,onetwo,,,,,,,,,,,,,,,,,,,,,,,,,,,,,,,,,,,,,,,,,,,,,,,,,,,,,,,,,,,,,,,,,,,,,,,,,,,,,,,,,,,,,,,,,,,,,,,,,,,,,,,,,,,,,,,,,,,,,,,,,,,,,,,,,,,,,,,,,
,,666afffc29d3c10e9be0bb97,2026-03-17_16h14.12.965,kallum_motion_pilot_GIST_update_2,2026.1.1,MacIntel,59.88023952,666afffc29d3c10e9be0bb97,69b95efdef24cd8a694e89ee,69b96011d09f725fed199eab,0.0417,0.0417,0,42,42,93,1,seveneight,,,,,,,,,,,,,,,,,,,,,,,,,,,,,,,,,,,,,,,,,,,,,,,,,,,,,,,,,,,,,,,,,,,,,,,,,,,,,,,,,,,,,,,,,,,,,,,,,,,,,,,,,,,,,,,,,,,,,,,,,,,,,,,,,,,,,,,,,
,,666afffc29d3c10e9be0bb97,2026-03-17_16h14.12.965,kallum_motion_pilot_GIST_update_2,2026.1.1,MacIntel,59.88023952,666afffc29d3c10e9be0bb97,69b95efdef24cd8a694e89ee,69b96011d09f725fed199eab,0.0418,0.0418,0,43,43,145,1,fiveseven,,,,,,,,,,,,,,,,,,,,,,,,,,,,,,,,,,,,,,,,,,,,,,,,,,,,,,,,,,,,,,,,,,,,,,,,,,,,,,,,,,,,,,,,,,,,,,,,,,,,,,,,,,,,,,,,,,,,,,,,,,,,,,,,,,,,,,,,,
,,666afffc29d3c10e9be0bb97,2026-03-17_16h14.12.965,kallum_motion_pilot_GIST_update_2,2026.1.1,MacIntel,59.88023952,666afffc29d3c10e9be0bb97,69b95efdef24cd8a694e89ee,69b96011d09f725fed199eab,0.042,0.042,0,44,44,137,1,fiveseven,,,,,,,,,,,,,,,,,,,,,,,,,,,,,,,,,,,,,,,,,,,,,,,,,,,,,,,,,,,,,,,,,,,,,,,,,,,,,,,,,,,,,,,,,,,,,,,,,,,,,,,,,,,,,,,,,,,,,,,,,,,,,,,,,,,,,,,,,
,,666afffc29d3c10e9be0bb97,2026-03-17_16h14.12.965,kallum_motion_pilot_GIST_update_2,2026.1.1,MacIntel,59.88023952,666afffc29d3c10e9be0bb97,69b95efdef24cd8a694e89ee,69b96011d09f725fed199eab,0.0421,0.0421,0,45,45,26,1,twoone,,,,,,,,,,,,,,,,,,,,,,,,,,,,,,,,,,,,,,,,,,,,,,,,,,,,,,,,,,,,,,,,,,,,,,,,,,,,,,,,,,,,,,,,,,,,,,,,,,,,,,,,,,,,,,,,,,,,,,,,,,,,,,,,,,,,,,,,,
,,666afffc29d3c10e9be0bb97,2026-03-17_16h14.12.965,kallum_motion_pilot_GIST_update_2,2026.1.1,MacIntel,59.88023952,666afffc29d3c10e9be0bb97,69b95efdef24cd8a694e89ee,69b96011d09f725fed199eab,0.0423,0.0423,0,46,46,6,1,fourtwo,,,,,,,,,,,,,,,,,,,,,,,,,,,,,,,,,,,,,,,,,,,,,,,,,,,,,,,,,,,,,,,,,,,,,,,,,,,,,,,,,,,,,,,,,,,,,,,,,,,,,,,,,,,,,,,,,,,,,,,,,,,,,,,,,,,,,,,,,
,,666afffc29d3c10e9be0bb97,2026-03-17_16h14.12.965,kallum_motion_pilot_GIST_update_2,2026.1.1,MacIntel,59.88023952,666afffc29d3c10e9be0bb97,69b95efdef24cd8a694e89ee,69b96011d09f725fed199eab,0.0425,0.0425,0,47,47,123,1,sixeight,,,,,,,,,,,,,,,,,,,,,,,,,,,,,,,,,,,,,,,,,,,,,,,,,,,,,,,,,,,,,,,,,,,,,,,,,,,,,,,,,,,,,,,,,,,,,,,,,,,,,,,,,,,,,,,,,,,,,,,,,,,,,,,,,,,,,,,,,
,,666afffc29d3c10e9be0bb97,2026-03-17_16h14.12.965,kallum_motion_pilot_GIST_update_2,2026.1.1,MacIntel,59.88023952,666afffc29d3c10e9be0bb97,69b95efdef24cd8a694e89ee,69b96011d09f725fed199eab,0.0426,0.0427,0,48,48,108,1,sevenfive,,,,,,,,,,,,,,,,,,,,,,,,,,,,,,,,,,,,,,,,,,,,,,,,,,,,,,,,,,,,,,,,,,,,,,,,,,,,,,,,,,,,,,,,,,,,,,,,,,,,,,,,,,,,,,,,,,,,,,,,,,,,,,,,,,,,,,,,,
,,666afffc29d3c10e9be0bb97,2026-03-17_16h14.12.965,kallum_motion_pilot_GIST_update_2,2026.1.1,MacIntel,59.88023952,666afffc29d3c10e9be0bb97,69b95efdef24cd8a694e89ee,69b96011d09f725fed199eab,0.0428,0.0428,0,49,49,142,1,eightsix,,,,,,,,,,,,,,,,,,,,,,,,,,,,,,,,,,,,,,,,,,,,,,,,,,,,,,,,,,,,,,,,,,,,,,,,,,,,,,,,,,,,,,,,,,,,,,,,,,,,,,,,,,,,,,,,,,,,,,,,,,,,,,,,,,,,,,,,,
,,666afffc29d3c10e9be0bb97,2026-03-17_16h14.12.965,kallum_motion_pilot_GIST_update_2,2026.1.1,MacIntel,59.88023952,666afffc29d3c10e9be0bb97,69b95efdef24cd8a694e89ee,69b96011d09f725fed199eab,0.043,0.043,0,50,50,90,1,sixfive,,,,,,,,,,,,,,,,,,,,,,,,,,,,,,,,,,,,,,,,,,,,,,,,,,,,,,,,,,,,,,,,,,,,,,,,,,,,,,,,,,,,,,,,,,,,,,,,,,,,,,,,,,,,,,,,,,,,,,,,,,,,,,,,,,,,,,,,,
,,666afffc29d3c10e9be0bb97,2026-03-17_16h14.12.965,kallum_motion_pilot_GIST_update_2,2026.1.1,MacIntel,59.88023952,666afffc29d3c10e9be0bb97,69b95efdef24cd8a694e89ee,69b96011d09f725fed199eab,0.0432,0.0432,0,51,51,156,1,sevenfive,,,,,,,,,,,,,,,,,,,,,,,,,,,,,,,,,,,,,,,,,,,,,,,,,,,,,,,,,,,,,,,,,,,,,,,,,,,,,,,,,,,,,,,,,,,,,,,,,,,,,,,,,,,,,,,,,,,,,,,,,,,,,,,,,,,,,,,,,
,,666afffc29d3c10e9be0bb97,2026-03-17_16h14.12.965,kallum_motion_pilot_GIST_update_2,2026.1.1,MacIntel,59.88023952,666afffc29d3c10e9be0bb97,69b95efdef24cd8a694e89ee,69b96011d09f725fed199eab,0.0433,0.0433,0,52,52,57,1,onethree,,,,,,,,,,,,,,,,,,,,,,,,,,,,,,,,,,,,,,,,,,,,,,,,,,,,,,,,,,,,,,,,,,,,,,,,,,,,,,,,,,,,,,,,,,,,,,,,,,,,,,,,,,,,,,,,,,,,,,,,,,,,,,,,,,,,,,,,,
,,666afffc29d3c10e9be0bb97,2026-03-17_16h14.12.965,kallum_motion_pilot_GIST_update_2,2026.1.1,MacIntel,59.88023952,666afffc29d3c10e9be0bb97,69b95efdef24cd8a694e89ee,69b96011d09f725fed199eab,0.0434,0.0434,0,53,53,159,1,eightseven,,,,,,,,,,,,,,,,,,,,,,,,,,,,,,,,,,,,,,,,,,,,,,,,,,,,,,,,,,,,,,,,,,,,,,,,,,,,,,,,,,,,,,,,,,,,,,,,,,,,,,,,,,,,,,,,,,,,,,,,,,,,,,,,,,,,,,,,,
,,666afffc29d3c10e9be0bb97,2026-03-17_16h14.12.965,kallum_motion_pilot_GIST_update_2,2026.1.1,MacIntel,59.88023952,666afffc29d3c10e9be0bb97,69b95efdef24cd8a694e89ee,69b96011d09f725fed199eab,0.0437,0.0437,0,54,54,46,1,fourtwo,,,,,,,,,,,,,,,,,,,,,,,,,,,,,,,,,,,,,,,,,,,,,,,,,,,,,,,,,,,,,,,,,,,,,,,,,,,,,,,,,,,,,,,,,,,,,,,,,,,,,,,,,,,,,,,,,,,,,,,,,,,,,,,,,,,,,,,,,
,,666afffc29d3c10e9be0bb97,2026-03-17_16h14.12.965,kallum_motion_pilot_GIST_update_2,2026.1.1,MacIntel,59.88023952,666afffc29d3c10e9be0bb97,69b95efdef24cd8a694e89ee,69b96011d09f725fed199eab,0.0437,0.0437,0,55,55,69,1,threefour,,,,,,,,,,,,,,,,,,,,,,,,,,,,,,,,,,,,,,,,,,,,,,,,,,,,,,,,,,,,,,,,,,,,,,,,,,,,,,,,,,,,,,,,,,,,,,,,,,,,,,,,,,,,,,,,,,,,,,,,,,,,,,,,,,,,,,,,,
,,666afffc29d3c10e9be0bb97,2026-03-17_16h14.12.965,kallum_motion_pilot_GIST_update_2,2026.1.1,MacIntel,59.88023952,666afffc29d3c10e9be0bb97,69b95efdef24cd8a694e89ee,69b96011d09f725fed199eab,0.0439,0.0439,0,56,56,45,1,threefour,,,,,,,,,,,,,,,,,,,,,,,,,,,,,,,,,,,,,,,,,,,,,,,,,,,,,,,,,,,,,,,,,,,,,,,,,,,,,,,,,,,,,,,,,,,,,,,,,,,,,,,,,,,,,,,,,,,,,,,,,,,,,,,,,,,,,,,,,
,,666afffc29d3c10e9be0bb97,2026-03-17_16h14.12.965,kallum_motion_pilot_GIST_update_2,2026.1.1,MacIntel,59.88023952,666afffc29d3c10e9be0bb97,69b95efdef24cd8a694e89ee,69b96011d09f725fed199eab,0.044,0.0441,0,57,57,138,1,sixfive,,,,,,,,,,,,,,,,,,,,,,,,,,,,,,,,,,,,,,,,,,,,,,,,,,,,,,,,,,,,,,,,,,,,,,,,,,,,,,,,,,,,,,,,,,,,,,,,,,,,,,,,,,,,,,,,,,,,,,,,,,,,,,,,,,,,,,,,,
,,666afffc29d3c10e9be0bb97,2026-03-17_16h14.12.965,kallum_motion_pilot_GIST_update_2,2026.1.1,MacIntel,59.88023952,666afffc29d3c10e9be0bb97,69b95efdef24cd8a694e89ee,69b96011d09f725fed199eab,0.0443,0.0444,0,58,58,133,1,seveneight,,,,,,,,,,,,,,,,,,,,,,,,,,,,,,,,,,,,,,,,,,,,,,,,,,,,,,,,,,,,,,,,,,,,,,,,,,,,,,,,,,,,,,,,,,,,,,,,,,,,,,,,,,,,,,,,,,,,,,,,,,,,,,,,,,,,,,,,,
,,666afffc29d3c10e9be0bb97,2026-03-17_16h14.12.965,kallum_motion_pilot_GIST_update_2,2026.1.1,MacIntel,59.88023952,666afffc29d3c10e9be0bb97,69b95efdef24cd8a694e89ee,69b96011d09f725fed199eab,0.0445,0.0445,0,59,59,136,1,fivesix,,,,,,,,,,,,,,,,,,,,,,,,,,,,,,,,,,,,,,,,,,,,,,,,,,,,,,,,,,,,,,,,,,,,,,,,,,,,,,,,,,,,,,,,,,,,,,,,,,,,,,,,,,,,,,,,,,,,,,,,,,,,,,,,,,,,,,,,,
,,666afffc29d3c10e9be0bb97,2026-03-17_16h14.12.965,kallum_motion_pilot_GIST_update_2,2026.1.1,MacIntel,59.88023952,666afffc29d3c10e9be0bb97,69b95efdef24cd8a694e89ee,69b96011d09f725fed199eab,0.0447,0.0447,0,60,60,60,1,threeone,,,,,,,,,,,,,,,,,,,,,,,,,,,,,,,,,,,,,,,,,,,,,,,,,,,,,,,,,,,,,,,,,,,,,,,,,,,,,,,,,,,,,,,,,,,,,,,,,,,,,,,,,,,,,,,,,,,,,,,,,,,,,,,,,,,,,,,,,
,,666afffc29d3c10e9be0bb97,2026-03-17_16h14.12.965,kallum_motion_pilot_GIST_update_2,2026.1.1,MacIntel,59.88023952,666afffc29d3c10e9be0bb97,69b95efdef24cd8a694e89ee,69b96011d09f725fed199eab,0.0449,0.0449,0,61,61,79,1,eightseven,,,,,,,,,,,,,,,,,,,,,,,,,,,,,,,,,,,,,,,,,,,,,,,,,,,,,,,,,,,,,,,,,,,,,,,,,,,,,,,,,,,,,,,,,,,,,,,,,,,,,,,,,,,,,,,,,,,,,,,,,,,,,,,,,,,,,,,,,
,,666afffc29d3c10e9be0bb97,2026-03-17_16h14.12.965,kallum_motion_pilot_GIST_update_2,2026.1.1,MacIntel,59.88023952,666afffc29d3c10e9be0bb97,69b95efdef24cd8a694e89ee,69b96011d09f725fed199eab,0.045,0.045,0,62,62,72,1,onetwo,,,,,,,,,,,,,,,,,,,,,,,,,,,,,,,,,,,,,,,,,,,,,,,,,,,,,,,,,,,,,,,,,,,,,,,,,,,,,,,,,,,,,,,,,,,,,,,,,,,,,,,,,,,,,,,,,,,,,,,,,,,,,,,,,,,,,,,,,
,,666afffc29d3c10e9be0bb97,2026-03-17_16h14.12.965,kallum_motion_pilot_GIST_update_2,2026.1.1,MacIntel,59.88023952,666afffc29d3c10e9be0bb97,69b95efdef24cd8a694e89ee,69b96011d09f725fed199eab,0.0452,0.0453,0,63,63,18,1,twoone,,,,,,,,,,,,,,,,,,,,,,,,,,,,,,,,,,,,,,,,,,,,,,,,,,,,,,,,,,,,,,,,,,,,,,,,,,,,,,,,,,,,,,,,,,,,,,,,,,,,,,,,,,,,,,,,,,,,,,,,,,,,,,,,,,,,,,,,,
,,666afffc29d3c10e9be0bb97,2026-03-17_16h14.12.965,kallum_motion_pilot_GIST_update_2,2026.1.1,MacIntel,59.88023952,666afffc29d3c10e9be0bb97,69b95efdef24cd8a694e89ee,69b96011d09f725fed199eab,0.0454,0.0454,0,64,64,40,1,onetwo,,,,,,,,,,,,,,,,,,,,,,,,,,,,,,,,,,,,,,,,,,,,,,,,,,,,,,,,,,,,,,,,,,,,,,,,,,,,,,,,,,,,,,,,,,,,,,,,,,,,,,,,,,,,,,,,,,,,,,,,,,,,,,,,,,,,,,,,,
,,666afffc29d3c10e9be0bb97,2026-03-17_16h14.12.965,kallum_motion_pilot_GIST_update_2,2026.1.1,MacIntel,59.88023952,666afffc29d3c10e9be0bb97,69b95efdef24cd8a694e89ee,69b96011d09f725fed199eab,0.0456,0.0456,0,65,65,158,1,eightsix,,,,,,,,,,,,,,,,,,,,,,,,,,,,,,,,,,,,,,,,,,,,,,,,,,,,,,,,,,,,,,,,,,,,,,,,,,,,,,,,,,,,,,,,,,,,,,,,,,,,,,,,,,,,,,,,,,,,,,,,,,,,,,,,,,,,,,,,,
,,666afffc29d3c10e9be0bb97,2026-03-17_16h14.12.965,kallum_motion_pilot_GIST_update_2,2026.1.1,MacIntel,59.88023952,666afffc29d3c10e9be0bb97,69b95efdef24cd8a694e89ee,69b96011d09f725fed199eab,0.0457,0.0457,0,66,66,0,1,onetwo,,,,,,,,,,,,,,,,,,,,,,,,,,,,,,,,,,,,,,,,,,,,,,,,,,,,,,,,,,,,,,,,,,,,,,,,,,,,,,,,,,,,,,,,,,,,,,,,,,,,,,,,,,,,,,,,,,,,,,,,,,,,,,,,,,,,,,,,,
,,666afffc29d3c10e9be0bb97,2026-03-17_16h14.12.965,kallum_motion_pilot_GIST_update_2,2026.1.1,MacIntel,59.88023952,666afffc29d3c10e9be0bb97,69b95efdef24cd8a694e89ee,69b96011d09f725fed199eab,0.0459,0.047,0,67,67,101,1,seveneight,,,,,,,,,,,,,,,,,,,,,,,,,,,,,,,,,,,,,,,,,,,,,,,,,,,,,,,,,,,,,,,,,,,,,,,,,,,,,,,,,,,,,,,,,,,,,,,,,,,,,,,,,,,,,,,,,,,,,,,,,,,,,,,,,,,,,,,,,
,,666afffc29d3c10e9be0bb97,2026-03-17_16h14.12.965,kallum_motion_pilot_GIST_update_2,2026.1.1,MacIntel,59.88023952,666afffc29d3c10e9be0bb97,69b95efdef24cd8a694e89ee,69b96011d09f725fed199eab,0.0472,0.0472,0,68,68,28,1,threeone,,,,,,,,,,,,,,,,,,,,,,,,,,,,,,,,,,,,,,,,,,,,,,,,,,,,,,,,,,,,,,,,,,,,,,,,,,,,,,,,,,,,,,,,,,,,,,,,,,,,,,,,,,,,,,,,,,,,,,,,,,,,,,,,,,,,,,,,,
,,666afffc29d3c10e9be0bb97,2026-03-17_16h14.12.965,kallum_motion_pilot_GIST_update_2,2026.1.1,MacIntel,59.88023952,666afffc29d3c10e9be0bb97,69b95efdef24cd8a694e89ee,69b96011d09f725fed199eab,0.0474,0.0475,0,69,69,12,1,threeone,,,,,,,,,,,,,,,,,,,,,,,,,,,,,,,,,,,,,,,,,,,,,,,,,,,,,,,,,,,,,,,,,,,,,,,,,,,,,,,,,,,,,,,,,,,,,,,,,,,,,,,,,,,,,,,,,,,,,,,,,,,,,,,,,,,,,,,,,
,,666afffc29d3c10e9be0bb97,2026-03-17_16h14.12.965,kallum_motion_pilot_GIST_update_2,2026.1.1,MacIntel,59.88023952,666afffc29d3c10e9be0bb97,69b95efdef24cd8a694e89ee,69b96011d09f725fed199eab,0.0476,0.0476,0,70,70,32,1,onetwo,,,,,,,,,,,,,,,,,,,,,,,,,,,,,,,,,,,,,,,,,,,,,,,,,,,,,,,,,,,,,,,,,,,,,,,,,,,,,,,,,,,,,,,,,,,,,,,,,,,,,,,,,,,,,,,,,,,,,,,,,,,,,,,,,,,,,,,,,
,,666afffc29d3c10e9be0bb97,2026-03-17_16h14.12.965,kallum_motion_pilot_GIST_update_2,2026.1.1,MacIntel,59.88023952,666afffc29d3c10e9be0bb97,69b95efdef24cd8a694e89ee,69b96011d09f725fed199eab,0.0478,0.0478,0,71,71,119,1,eightseven,,,,,,,,,,,,,,,,,,,,,,,,,,,,,,,,,,,,,,,,,,,,,,,,,,,,,,,,,,,,,,,,,,,,,,,,,,,,,,,,,,,,,,,,,,,,,,,,,,,,,,,,,,,,,,,,,,,,,,,,,,,,,,,,,,,,,,,,,
,,666afffc29d3c10e9be0bb97,2026-03-17_16h14.12.965,kallum_motion_pilot_GIST_update_2,2026.1.1,MacIntel,59.88023952,666afffc29d3c10e9be0bb97,69b95efdef24cd8a694e89ee,69b96011d09f725fed199eab,0.0479,0.0479,0,72,72,5,1,threefour,,,,,,,,,,,,,,,,,,,,,,,,,,,,,,,,,,,,,,,,,,,,,,,,,,,,,,,,,,,,,,,,,,,,,,,,,,,,,,,,,,,,,,,,,,,,,,,,,,,,,,,,,,,,,,,,,,,,,,,,,,,,,,,,,,,,,,,,,
,,666afffc29d3c10e9be0bb97,2026-03-17_16h14.12.965,kallum_motion_pilot_GIST_update_2,2026.1.1,MacIntel,59.88023952,666afffc29d3c10e9be0bb97,69b95efdef24cd8a694e89ee,69b96011d09f725fed199eab,0.0482,0.0482,0,73,73,61,1,threefour,,,,,,,,,,,,,,,,,,,,,,,,,,,,,,,,,,,,,,,,,,,,,,,,,,,,,,,,,,,,,,,,,,,,,,,,,,,,,,,,,,,,,,,,,,,,,,,,,,,,,,,,,,,,,,,,,,,,,,,,,,,,,,,,,,,,,,,,,
,,666afffc29d3c10e9be0bb97,2026-03-17_16h14.12.965,kallum_motion_pilot_GIST_update_2,2026.1.1,MacIntel,59.88023952,666afffc29d3c10e9be0bb97,69b95efdef24cd8a694e89ee,69b96011d09f725fed199eab,0.0483,0.0483,0,74,74,52,1,threeone,,,,,,,,,,,,,,,,,,,,,,,,,,,,,,,,,,,,,,,,,,,,,,,,,,,,,,,,,,,,,,,,,,,,,,,,,,,,,,,,,,,,,,,,,,,,,,,,,,,,,,,,,,,,,,,,,,,,,,,,,,,,,,,,,,,,,,,,,
,,666afffc29d3c10e9be0bb97,2026-03-17_16h14.12.965,kallum_motion_pilot_GIST_update_2,2026.1.1,MacIntel,59.88023952,666afffc29d3c10e9be0bb97,69b95efdef24cd8a694e89ee,69b96011d09f725fed199eab,0.0485,0.0485,0,75,75,39,1,fourthree,,,,,,,,,,,,,,,,,,,,,,,,,,,,,,,,,,,,,,,,,,,,,,,,,,,,,,,,,,,,,,,,,,,,,,,,,,,,,,,,,,,,,,,,,,,,,,,,,,,,,,,,,,,,,,,,,,,,,,,,,,,,,,,,,,,,,,,,,
,,666afffc29d3c10e9be0bb97,2026-03-17_16h14.12.965,kallum_motion_pilot_GIST_update_2,2026.1.1,MacIntel,59.88023952,666afffc29d3c10e9be0bb97,69b95efdef24cd8a694e89ee,69b96011d09f725fed199eab,0.0487,0.0487,0,76,76,50,1,twoone,,,,,,,,,,,,,,,,,,,,,,,,,,,,,,,,,,,,,,,,,,,,,,,,,,,,,,,,,,,,,,,,,,,,,,,,,,,,,,,,,,,,,,,,,,,,,,,,,,,,,,,,,,,,,,,,,,,,,,,,,,,,,,,,,,,,,,,,,
,,666afffc29d3c10e9be0bb97,2026-03-17_16h14.12.965,kallum_motion_pilot_GIST_update_2,2026.1.1,MacIntel,59.88023952,666afffc29d3c10e9be0bb97,69b95efdef24cd8a694e89ee,69b96011d09f725fed199eab,0.0488,0.0489,0,77,77,112,1,fivesix,,,,,,,,,,,,,,,,,,,,,,,,,,,,,,,,,,,,,,,,,,,,,,,,,,,,,,,,,,,,,,,,,,,,,,,,,,,,,,,,,,,,,,,,,,,,,,,,,,,,,,,,,,,,,,,,,,,,,,,,,,,,,,,,,,,,,,,,,
,,666afffc29d3c10e9be0bb97,2026-03-17_16h14.12.965,kallum_motion_pilot_GIST_update_2,2026.1.1,MacIntel,59.88023952,666afffc29d3c10e9be0bb97,69b95efdef24cd8a694e89ee,69b96011d09f725fed199eab,0.049,0.049,0,78,78,155,1,sixeight,,,,,,,,,,,,,,,,,,,,,,,,,,,,,,,,,,,,,,,,,,,,,,,,,,,,,,,,,,,,,,,,,,,,,,,,,,,,,,,,,,,,,,,,,,,,,,,,,,,,,,,,,,,,,,,,,,,,,,,,,,,,,,,,,,,,,,,,,
,,666afffc29d3c10e9be0bb97,2026-03-17_16h14.12.965,kallum_motion_pilot_GIST_update_2,2026.1.1,MacIntel,59.88023952,666afffc29d3c10e9be0bb97,69b95efdef24cd8a694e89ee,69b96011d09f725fed199eab,0.0492,0.0492,0,79,79,42,1,twoone,,,,,,,,,,,,,,,,,,,,,,,,,,,,,,,,,,,,,,,,,,,,,,,,,,,,,,,,,,,,,,,,,,,,,,,,,,,,,,,,,,,,,,,,,,,,,,,,,,,,,,,,,,,,,,,,,,,,,,,,,,,,,,,,,,,,,,,,,
,,666afffc29d3c10e9be0bb97,2026-03-17_16h14.12.965,kallum_motion_pilot_GIST_update_2,2026.1.1,MacIntel,59.88023952,666afffc29d3c10e9be0bb97,69b95efdef24cd8a694e89ee,69b96011d09f725fed199eab,0.0494,0.0494,0,80,80,21,1,threefour,,,,,,,,,,,,,,,,,,,,,,,,,,,,,,,,,,,,,,,,,,,,,,,,,,,,,,,,,,,,,,,,,,,,,,,,,,,,,,,,,,,,,,,,,,,,,,,,,,,,,,,,,,,,,,,,,,,,,,,,,,,,,,,,,,,,,,,,,
,,666afffc29d3c10e9be0bb97,2026-03-17_16h14.12.965,kallum_motion_pilot_GIST_update_2,2026.1.1,MacIntel,59.88023952,666afffc29d3c10e9be0bb97,69b95efdef24cd8a694e89ee,69b96011d09f725fed199eab,0.0496,0.0496,0,81,81,23,1,fourthree,,,,,,,,,,,,,,,,,,,,,,,,,,,,,,,,,,,,,,,,,,,,,,,,,,,,,,,,,,,,,,,,,,,,,,,,,,,,,,,,,,,,,,,,,,,,,,,,,,,,,,,,,,,,,,,,,,,,,,,,,,,,,,,,,,,,,,,,,
,,666afffc29d3c10e9be0bb97,2026-03-17_16h14.12.965,kallum_motion_pilot_GIST_update_2,2026.1.1,MacIntel,59.88023952,666afffc29d3c10e9be0bb97,69b95efdef24cd8a694e89ee,69b96011d09f725fed199eab,0.0497,0.0497,0,82,82,14,1,fourtwo,,,,,,,,,,,,,,,,,,,,,,,,,,,,,,,,,,,,,,,,,,,,,,,,,,,,,,,,,,,,,,,,,,,,,,,,,,,,,,,,,,,,,,,,,,,,,,,,,,,,,,,,,,,,,,,,,,,,,,,,,,,,,,,,,,,,,,,,,
,,666afffc29d3c10e9be0bb97,2026-03-17_16h14.12.965,kallum_motion_pilot_GIST_update_2,2026.1.1,MacIntel,59.88023952,666afffc29d3c10e9be0bb97,69b95efdef24cd8a694e89ee,69b96011d09f725fed199eab,0.0499,0.0499,0,83,83,9,1,onethree,,,,,,,,,,,,,,,,,,,,,,,,,,,,,,,,,,,,,,,,,,,,,,,,,,,,,,,,,,,,,,,,,,,,,,,,,,,,,,,,,,,,,,,,,,,,,,,,,,,,,,,,,,,,,,,,,,,,,,,,,,,,,,,,,,,,,,,,,
,,666afffc29d3c10e9be0bb97,2026-03-17_16h14.12.965,kallum_motion_pilot_GIST_update_2,2026.1.1,MacIntel,59.88023952,666afffc29d3c10e9be0bb97,69b95efdef24cd8a694e89ee,69b96011d09f725fed199eab,0.0503,0.0503,0,84,84,122,1,sixfive,,,,,,,,,,,,,,,,,,,,,,,,,,,,,,,,,,,,,,,,,,,,,,,,,,,,,,,,,,,,,,,,,,,,,,,,,,,,,,,,,,,,,,,,,,,,,,,,,,,,,,,,,,,,,,,,,,,,,,,,,,,,,,,,,,,,,,,,,
,,666afffc29d3c10e9be0bb97,2026-03-17_16h14.12.965,kallum_motion_pilot_GIST_update_2,2026.1.1,MacIntel,59.88023952,666afffc29d3c10e9be0bb97,69b95efdef24cd8a694e89ee,69b96011d09f725fed199eab,0.0504,0.0504,0,85,85,100,1,sevenfive,,,,,,,,,,,,,,,,,,,,,,,,,,,,,,,,,,,,,,,,,,,,,,,,,,,,,,,,,,,,,,,,,,,,,,,,,,,,,,,,,,,,,,,,,,,,,,,,,,,,,,,,,,,,,,,,,,,,,,,,,,,,,,,,,,,,,,,,,
,,666afffc29d3c10e9be0bb97,2026-03-17_16h14.12.965,kallum_motion_pilot_GIST_update_2,2026.1.1,MacIntel,59.88023952,666afffc29d3c10e9be0bb97,69b95efdef24cd8a694e89ee,69b96011d09f725fed199eab,0.0506,0.0506,0,86,86,54,1,fourtwo,,,,,,,,,,,,,,,,,,,,,,,,,,,,,,,,,,,,,,,,,,,,,,,,,,,,,,,,,,,,,,,,,,,,,,,,,,,,,,,,,,,,,,,,,,,,,,,,,,,,,,,,,,,,,,,,,,,,,,,,,,,,,,,,,,,,,,,,,
,,666afffc29d3c10e9be0bb97,2026-03-17_16h14.12.965,kallum_motion_pilot_GIST_update_2,2026.1.1,MacIntel,59.88023952,666afffc29d3c10e9be0bb97,69b95efdef24cd8a694e89ee,69b96011d09f725fed199eab,0.0509,0.0509,0,87,87,154,1,sixfive,,,,,,,,,,,,,,,,,,,,,,,,,,,,,,,,,,,,,,,,,,,,,,,,,,,,,,,,,,,,,,,,,,,,,,,,,,,,,,,,,,,,,,,,,,,,,,,,,,,,,,,,,,,,,,,,,,,,,,,,,,,,,,,,,,,,,,,,,
,,666afffc29d3c10e9be0bb97,2026-03-17_16h14.12.965,kallum_motion_pilot_GIST_update_2,2026.1.1,MacIntel,59.88023952,666afffc29d3c10e9be0bb97,69b95efdef24cd8a694e89ee,69b96011d09f725fed199eab,0.051,0.051,0,88,88,70,1,fourtwo,,,,,,,,,,,,,,,,,,,,,,,,,,,,,,,,,,,,,,,,,,,,,,,,,,,,,,,,,,,,,,,,,,,,,,,,,,,,,,,,,,,,,,,,,,,,,,,,,,,,,,,,,,,,,,,,,,,,,,,,,,,,,,,,,,,,,,,,,
,,666afffc29d3c10e9be0bb97,2026-03-17_16h14.12.965,kallum_motion_pilot_GIST_update_2,2026.1.1,MacIntel,59.88023952,666afffc29d3c10e9be0bb97,69b95efdef24cd8a694e89ee,69b96011d09f725fed199eab,0.0511,0.0511,0,89,89,149,1,seveneight,,,,,,,,,,,,,,,,,,,,,,,,,,,,,,,,,,,,,,,,,,,,,,,,,,,,,,,,,,,,,,,,,,,,,,,,,,,,,,,,,,,,,,,,,,,,,,,,,,,,,,,,,,,,,,,,,,,,,,,,,,,,,,,,,,,,,,,,,
,,666afffc29d3c10e9be0bb97,2026-03-17_16h14.12.965,kallum_motion_pilot_GIST_update_2,2026.1.1,MacIntel,59.88023952,666afffc29d3c10e9be0bb97,69b95efdef24cd8a694e89ee,69b96011d09f725fed199eab,0.0514,0.0514,0,90,90,94,1,eightsix,,,,,,,,,,,,,,,,,,,,,,,,,,,,,,,,,,,,,,,,,,,,,,,,,,,,,,,,,,,,,,,,,,,,,,,,,,,,,,,,,,,,,,,,,,,,,,,,,,,,,,,,,,,,,,,,,,,,,,,,,,,,,,,,,,,,,,,,,
,,666afffc29d3c10e9be0bb97,2026-03-17_16h14.12.965,kallum_motion_pilot_GIST_update_2,2026.1.1,MacIntel,59.88023952,666afffc29d3c10e9be0bb97,69b95efdef24cd8a694e89ee,69b96011d09f725fed199eab,0.0515,0.0516,0,91,91,76,1,threeone,,,,,,,,,,,,,,,,,,,,,,,,,,,,,,,,,,,,,,,,,,,,,,,,,,,,,,,,,,,,,,,,,,,,,,,,,,,,,,,,,,,,,,,,,,,,,,,,,,,,,,,,,,,,,,,,,,,,,,,,,,,,,,,,,,,,,,,,,
,,666afffc29d3c10e9be0bb97,2026-03-17_16h14.12.965,kallum_motion_pilot_GIST_update_2,2026.1.1,MacIntel,59.88023952,666afffc29d3c10e9be0bb97,69b95efdef24cd8a694e89ee,69b96011d09f725fed199eab,0.0517,0.0517,0,92,92,141,1,seveneight,,,,,,,,,,,,,,,,,,,,,,,,,,,,,,,,,,,,,,,,,,,,,,,,,,,,,,,,,,,,,,,,,,,,,,,,,,,,,,,,,,,,,,,,,,,,,,,,,,,,,,,,,,,,,,,,,,,,,,,,,,,,,,,,,,,,,,,,,
,,666afffc29d3c10e9be0bb97,2026-03-17_16h14.12.965,kallum_motion_pilot_GIST_update_2,2026.1.1,MacIntel,59.88023952,666afffc29d3c10e9be0bb97,69b95efdef24cd8a694e89ee,69b96011d09f725fed199eab,0.0519,0.0519,0,93,93,55,1,fourthree,,,,,,,,,,,,,,,,,,,,,,,,,,,,,,,,,,,,,,,,,,,,,,,,,,,,,,,,,,,,,,,,,,,,,,,,,,,,,,,,,,,,,,,,,,,,,,,,,,,,,,,,,,,,,,,,,,,,,,,,,,,,,,,,,,,,,,,,,
,,666afffc29d3c10e9be0bb97,2026-03-17_16h14.12.965,kallum_motion_pilot_GIST_update_2,2026.1.1,MacIntel,59.88023952,666afffc29d3c10e9be0bb97,69b95efdef24cd8a694e89ee,69b96011d09f725fed199eab,0.0521,0.0521,0,94,94,10,1,twoone,,,,,,,,,,,,,,,,,,,,,,,,,,,,,,,,,,,,,,,,,,,,,,,,,,,,,,,,,,,,,,,,,,,,,,,,,,,,,,,,,,,,,,,,,,,,,,,,,,,,,,,,,,,,,,,,,,,,,,,,,,,,,,,,,,,,,,,,,
,,666afffc29d3c10e9be0bb97,2026-03-17_16h14.12.965,kallum_motion_pilot_GIST_update_2,2026.1.1,MacIntel,59.88023952,666afffc29d3c10e9be0bb97,69b95efdef24cd8a694e89ee,69b96011d09f725fed199eab,0.0522,0.0522,0,95,95,13,1,threefour,,,,,,,,,,,,,,,,,,,,,,,,,,,,,,,,,,,,,,,,,,,,,,,,,,,,,,,,,,,,,,,,,,,,,,,,,,,,,,,,,,,,,,,,,,,,,,,,,,,,,,,,,,,,,,,,,,,,,,,,,,,,,,,,,,,,,,,,,
,,666afffc29d3c10e9be0bb97,2026-03-17_16h14.12.965,kallum_motion_pilot_GIST_update_2,2026.1.1,MacIntel,59.88023952,666afffc29d3c10e9be0bb97,69b95efdef24cd8a694e89ee,69b96011d09f725fed199eab,0.0524,0.0524,0,96,96,30,1,fourtwo,,,,,,,,,,,,,,,,,,,,,,,,,,,,,,,,,,,,,,,,,,,,,,,,,,,,,,,,,,,,,,,,,,,,,,,,,,,,,,,,,,,,,,,,,,,,,,,,,,,,,,,,,,,,,,,,,,,,,,,,,,,,,,,,,,,,,,,,,
,,666afffc29d3c10e9be0bb97,2026-03-17_16h14.12.965,kallum_motion_pilot_GIST_update_2,2026.1.1,MacIntel,59.88023952,666afffc29d3c10e9be0bb97,69b95efdef24cd8a694e89ee,69b96011d09f725fed199eab,0.0526,0.0526,0,97,97,126,1,eightsix,,,,,,,,,,,,,,,,,,,,,,,,,,,,,,,,,,,,,,,,,,,,,,,,,,,,,,,,,,,,,,,,,,,,,,,,,,,,,,,,,,,,,,,,,,,,,,,,,,,,,,,,,,,,,,,,,,,,,,,,,,,,,,,,,,,,,,,,,
,,666afffc29d3c10e9be0bb97,2026-03-17_16h14.12.965,kallum_motion_pilot_GIST_update_2,2026.1.1,MacIntel,59.88023952,666afffc29d3c10e9be0bb97,69b95efdef24cd8a694e89ee,69b96011d09f725fed199eab,0.0528,0.0528,0,98,98,129,1,fiveseven,,,,,,,,,,,,,,,,,,,,,,,,,,,,,,,,,,,,,,,,,,,,,,,,,,,,,,,,,,,,,,,,,,,,,,,,,,,,,,,,,,,,,,,,,,,,,,,,,,,,,,,,,,,,,,,,,,,,,,,,,,,,,,,,,,,,,,,,,
,,666afffc29d3c10e9be0bb97,2026-03-17_16h14.12.965,kallum_motion_pilot_GIST_update_2,2026.1.1,MacIntel,59.88023952,666afffc29d3c10e9be0bb97,69b95efdef24cd8a694e89ee,69b96011d09f725fed199eab,0.0529,0.053,0,99,99,148,1,sevenfive,,,,,,,,,,,,,,,,,,,,,,,,,,,,,,,,,,,,,,,,,,,,,,,,,,,,,,,,,,,,,,,,,,,,,,,,,,,,,,,,,,,,,,,,,,,,,,,,,,,,,,,,,,,,,,,,,,,,,,,,,,,,,,,,,,,,,,,,,
,,666afffc29d3c10e9be0bb97,2026-03-17_16h14.12.965,kallum_motion_pilot_GIST_update_2,2026.1.1,MacIntel,59.88023952,666afffc29d3c10e9be0bb97,69b95efdef24cd8a694e89ee,69b96011d09f725fed199eab,0.0531,0.0531,0,100,100,147,1,sixeight,,,,,,,,,,,,,,,,,,,,,,,,,,,,,,,,,,,,,,,,,,,,,,,,,,,,,,,,,,,,,,,,,,,,,,,,,,,,,,,,,,,,,,,,,,,,,,,,,,,,,,,,,,,,,,,,,,,,,,,,,,,,,,,,,,,,,,,,,
,,666afffc29d3c10e9be0bb97,2026-03-17_16h14.12.965,kallum_motion_pilot_GIST_update_2,2026.1.1,MacIntel,59.88023952,666afffc29d3c10e9be0bb97,69b95efdef24cd8a694e89ee,69b96011d09f725fed199eab,0.0533,0.0533,0,101,101,41,1,onethree,,,,,,,,,,,,,,,,,,,,,,,,,,,,,,,,,,,,,,,,,,,,,,,,,,,,,,,,,,,,,,,,,,,,,,,,,,,,,,,,,,,,,,,,,,,,,,,,,,,,,,,,,,,,,,,,,,,,,,,,,,,,,,,,,,,,,,,,,
,,666afffc29d3c10e9be0bb97,2026-03-17_16h14.12.965,kallum_motion_pilot_GIST_update_2,2026.1.1,MacIntel,59.88023952,666afffc29d3c10e9be0bb97,69b95efdef24cd8a694e89ee,69b96011d09f725fed199eab,0.0535,0.0535,0,102,102,151,1,eightseven,,,,,,,,,,,,,,,,,,,,,,,,,,,,,,,,,,,,,,,,,,,,,,,,,,,,,,,,,,,,,,,,,,,,,,,,,,,,,,,,,,,,,,,,,,,,,,,,,,,,,,,,,,,,,,,,,,,,,,,,,,,,,,,,,,,,,,,,,
,,666afffc29d3c10e9be0bb97,2026-03-17_16h14.12.965,kallum_motion_pilot_GIST_update_2,2026.1.1,MacIntel,59.88023952,666afffc29d3c10e9be0bb97,69b95efdef24cd8a694e89ee,69b96011d09f725fed199eab,0.0536,0.0537,0,103,103,81,1,fiveseven,,,,,,,,,,,,,,,,,,,,,,,,,,,,,,,,,,,,,,,,,,,,,,,,,,,,,,,,,,,,,,,,,,,,,,,,,,,,,,,,,,,,,,,,,,,,,,,,,,,,,,,,,,,,,,,,,,,,,,,,,,,,,,,,,,,,,,,,,
,,666afffc29d3c10e9be0bb97,2026-03-17_16h14.12.965,kallum_motion_pilot_GIST_update_2,2026.1.1,MacIntel,59.88023952,666afffc29d3c10e9be0bb97,69b95efdef24cd8a694e89ee,69b96011d09f725fed199eab,0.0538,0.0538,0,104,104,150,1,eightsix,,,,,,,,,,,,,,,,,,,,,,,,,,,,,,,,,,,,,,,,,,,,,,,,,,,,,,,,,,,,,,,,,,,,,,,,,,,,,,,,,,,,,,,,,,,,,,,,,,,,,,,,,,,,,,,,,,,,,,,,,,,,,,,,,,,,,,,,,
,,666afffc29d3c10e9be0bb97,2026-03-17_16h14.12.965,kallum_motion_pilot_GIST_update_2,2026.1.1,MacIntel,59.88023952,666afffc29d3c10e9be0bb97,69b95efdef24cd8a694e89ee,69b96011d09f725fed199eab,0.0539,0.0539,0,105,105,153,1,fiveseven,,,,,,,,,,,,,,,,,,,,,,,,,,,,,,,,,,,,,,,,,,,,,,,,,,,,,,,,,,,,,,,,,,,,,,,,,,,,,,,,,,,,,,,,,,,,,,,,,,,,,,,,,,,,,,,,,,,,,,,,,,,,,,,,,,,,,,,,,
,,666afffc29d3c10e9be0bb97,2026-03-17_16h14.12.965,kallum_motion_pilot_GIST_update_2,2026.1.1,MacIntel,59.88023952,666afffc29d3c10e9be0bb97,69b95efdef24cd8a694e89ee,69b96011d09f725fed199eab,0.0541,0.0541,0,106,106,134,1,eightsix,,,,,,,,,,,,,,,,,,,,,,,,,,,,,,,,,,,,,,,,,,,,,,,,,,,,,,,,,,,,,,,,,,,,,,,,,,,,,,,,,,,,,,,,,,,,,,,,,,,,,,,,,,,,,,,,,,,,,,,,,,,,,,,,,,,,,,,,,
,,666afffc29d3c10e9be0bb97,2026-03-17_16h14.12.965,kallum_motion_pilot_GIST_update_2,2026.1.1,MacIntel,59.88023952,666afffc29d3c10e9be0bb97,69b95efdef24cd8a694e89ee,69b96011d09f725fed199eab,0.0544,0.0544,0,107,107,125,1,seveneight,,,,,,,,,,,,,,,,,,,,,,,,,,,,,,,,,,,,,,,,,,,,,,,,,,,,,,,,,,,,,,,,,,,,,,,,,,,,,,,,,,,,,,,,,,,,,,,,,,,,,,,,,,,,,,,,,,,,,,,,,,,,,,,,,,,,,,,,,
,,666afffc29d3c10e9be0bb97,2026-03-17_16h14.12.965,kallum_motion_pilot_GIST_update_2,2026.1.1,MacIntel,59.88023952,666afffc29d3c10e9be0bb97,69b95efdef24cd8a694e89ee,69b96011d09f725fed199eab,0.0545,0.0545,0,108,108,118,1,eightsix,,,,,,,,,,,,,,,,,,,,,,,,,,,,,,,,,,,,,,,,,,,,,,,,,,,,,,,,,,,,,,,,,,,,,,,,,,,,,,,,,,,,,,,,,,,,,,,,,,,,,,,,,,,,,,,,,,,,,,,,,,,,,,,,,,,,,,,,,
,,666afffc29d3c10e9be0bb97,2026-03-17_16h14.12.965,kallum_motion_pilot_GIST_update_2,2026.1.1,MacIntel,59.88023952,666afffc29d3c10e9be0bb97,69b95efdef24cd8a694e89ee,69b96011d09f725fed199eab,0.0547,0.0547,0,109,109,8,1,onetwo,,,,,,,,,,,,,,,,,,,,,,,,,,,,,,,,,,,,,,,,,,,,,,,,,,,,,,,,,,,,,,,,,,,,,,,,,,,,,,,,,,,,,,,,,,,,,,,,,,,,,,,,,,,,,,,,,,,,,,,,,,,,,,,,,,,,,,,,,
,,666afffc29d3c10e9be0bb97,2026-03-17_16h14.12.965,kallum_motion_pilot_GIST_update_2,2026.1.1,MacIntel,59.88023952,666afffc29d3c10e9be0bb97,69b95efdef24cd8a694e89ee,69b96011d09f725fed199eab,0.0549,0.0549,0,110,110,131,1,sixeight,,,,,,,,,,,,,,,,,,,,,,,,,,,,,,,,,,,,,,,,,,,,,,,,,,,,,,,,,,,,,,,,,,,,,,,,,,,,,,,,,,,,,,,,,,,,,,,,,,,,,,,,,,,,,,,,,,,,,,,,,,,,,,,,,,,,,,,,,
,,666afffc29d3c10e9be0bb97,2026-03-17_16h14.12.965,kallum_motion_pilot_GIST_update_2,2026.1.1,MacIntel,59.88023952,666afffc29d3c10e9be0bb97,69b95efdef24cd8a694e89ee,69b96011d09f725fed199eab,0.055,0.055,0,111,111,31,1,fourthree,,,,,,,,,,,,,,,,,,,,,,,,,,,,,,,,,,,,,,,,,,,,,,,,,,,,,,,,,,,,,,,,,,,,,,,,,,,,,,,,,,,,,,,,,,,,,,,,,,,,,,,,,,,,,,,,,,,,,,,,,,,,,,,,,,,,,,,,,
,,666afffc29d3c10e9be0bb97,2026-03-17_16h14.12.965,kallum_motion_pilot_GIST_update_2,2026.1.1,MacIntel,59.88023952,666afffc29d3c10e9be0bb97,69b95efdef24cd8a694e89ee,69b96011d09f725fed199eab,0.0552,0.0553,0,112,112,75,1,twofour,,,,,,,,,,,,,,,,,,,,,,,,,,,,,,,,,,,,,,,,,,,,,,,,,,,,,,,,,,,,,,,,,,,,,,,,,,,,,,,,,,,,,,,,,,,,,,,,,,,,,,,,,,,,,,,,,,,,,,,,,,,,,,,,,,,,,,,,,
,,666afffc29d3c10e9be0bb97,2026-03-17_16h14.12.965,kallum_motion_pilot_GIST_update_2,2026.1.1,MacIntel,59.88023952,666afffc29d3c10e9be0bb97,69b95efdef24cd8a694e89ee,69b96011d09f725fed199eab,0.0554,0.0554,0,113,113,106,1,sixfive,,,,,,,,,,,,,,,,,,,,,,,,,,,,,,,,,,,,,,,,,,,,,,,,,,,,,,,,,,,,,,,,,,,,,,,,,,,,,,,,,,,,,,,,,,,,,,,,,,,,,,,,,,,,,,,,,,,,,,,,,,,,,,,,,,,,,,,,,
,,666afffc29d3c10e9be0bb97,2026-03-17_16h14.12.965,kallum_motion_pilot_GIST_update_2,2026.1.1,MacIntel,59.88023952,666afffc29d3c10e9be0bb97,69b95efdef24cd8a694e89ee,69b96011d09f725fed199eab,0.0556,0.0556,0,114,114,20,1,threeone,,,,,,,,,,,,,,,,,,,,,,,,,,,,,,,,,,,,,,,,,,,,,,,,,,,,,,,,,,,,,,,,,,,,,,,,,,,,,,,,,,,,,,,,,,,,,,,,,,,,,,,,,,,,,,,,,,,,,,,,,,,,,,,,,,,,,,,,,
,,666afffc29d3c10e9be0bb97,2026-03-17_16h14.12.965,kallum_motion_pilot_GIST_update_2,2026.1.1,MacIntel,59.88023952,666afffc29d3c10e9be0bb97,69b95efdef24cd8a694e89ee,69b96011d09f725fed199eab,0.0557,0.0558,0,115,115,83,1,sixeight,,,,,,,,,,,,,,,,,,,,,,,,,,,,,,,,,,,,,,,,,,,,,,,,,,,,,,,,,,,,,,,,,,,,,,,,,,,,,,,,,,,,,,,,,,,,,,,,,,,,,,,,,,,,,,,,,,,,,,,,,,,,,,,,,,,,,,,,,
,,666afffc29d3c10e9be0bb97,2026-03-17_16h14.12.965,kallum_motion_pilot_GIST_update_2,2026.1.1,MacIntel,59.88023952,666afffc29d3c10e9be0bb97,69b95efdef24cd8a694e89ee,69b96011d09f725fed199eab,0.0561,0.0562,0,116,116,36,1,threeone,,,,,,,,,,,,,,,,,,,,,,,,,,,,,,,,,,,,,,,,,,,,,,,,,,,,,,,,,,,,,,,,,,,,,,,,,,,,,,,,,,,,,,,,,,,,,,,,,,,,,,,,,,,,,,,,,,,,,,,,,,,,,,,,,,,,,,,,,
,,666afffc29d3c10e9be0bb97,2026-03-17_16h14.12.965,kallum_motion_pilot_GIST_update_2,2026.1.1,MacIntel,59.88023952,666afffc29d3c10e9be0bb97,69b95efdef24cd8a694e89ee,69b96011d09f725fed199eab,0.0563,0.0564,0,117,117,84,1,sevenfive,,,,,,,,,,,,,,,,,,,,,,,,,,,,,,,,,,,,,,,,,,,,,,,,,,,,,,,,,,,,,,,,,,,,,,,,,,,,,,,,,,,,,,,,,,,,,,,,,,,,,,,,,,,,,,,,,,,,,,,,,,,,,,,,,,,,,,,,,
,,666afffc29d3c10e9be0bb97,2026-03-17_16h14.12.965,kallum_motion_pilot_GIST_update_2,2026.1.1,MacIntel,59.88023952,666afffc29d3c10e9be0bb97,69b95efdef24cd8a694e89ee,69b96011d09f725fed199eab,0.0565,0.0565,0,118,118,127,1,eightseven,,,,,,,,,,,,,,,,,,,,,,,,,,,,,,,,,,,,,,,,,,,,,,,,,,,,,,,,,,,,,,,,,,,,,,,,,,,,,,,,,,,,,,,,,,,,,,,,,,,,,,,,,,,,,,,,,,,,,,,,,,,,,,,,,,,,,,,,,
,,666afffc29d3c10e9be0bb97,2026-03-17_16h14.12.965,kallum_motion_pilot_GIST_update_2,2026.1.1,MacIntel,59.88023952,666afffc29d3c10e9be0bb97,69b95efdef24cd8a694e89ee,69b96011d09f725fed199eab,0.0568,0.0568,0,119,119,103,1,eightseven,,,,,,,,,,,,,,,,,,,,,,,,,,,,,,,,,,,,,,,,,,,,,,,,,,,,,,,,,,,,,,,,,,,,,,,,,,,,,,,,,,,,,,,,,,,,,,,,,,,,,,,,,,,,,,,,,,,,,,,,,,,,,,,,,,,,,,,,,
,,666afffc29d3c10e9be0bb97,2026-03-17_16h14.12.965,kallum_motion_pilot_GIST_update_2,2026.1.1,MacIntel,59.88023952,666afffc29d3c10e9be0bb97,69b95efdef24cd8a694e89ee,69b96011d09f725fed199eab,0.0569,0.0569,0,120,120,78,1,fourtwo,,,,,,,,,,,,,,,,,,,,,,,,,,,,,,,,,,,,,,,,,,,,,,,,,,,,,,,,,,,,,,,,,,,,,,,,,,,,,,,,,,,,,,,,,,,,,,,,,,,,,,,,,,,,,,,,,,,,,,,,,,,,,,,,,,,,,,,,,
,,666afffc29d3c10e9be0bb97,2026-03-17_16h14.12.965,kallum_motion_pilot_GIST_update_2,2026.1.1,MacIntel,59.88023952,666afffc29d3c10e9be0bb97,69b95efdef24cd8a694e89ee,69b96011d09f725fed199eab,0.0571,0.0571,0,121,121,24,1,onetwo,,,,,,,,,,,,,,,,,,,,,,,,,,,,,,,,,,,,,,,,,,,,,,,,,,,,,,,,,,,,,,,,,,,,,,,,,,,,,,,,,,,,,,,,,,,,,,,,,,,,,,,,,,,,,,,,,,,,,,,,,,,,,,,,,,,,,,,,,
,,666afffc29d3c10e9be0bb97,2026-03-17_16h14.12.965,kallum_motion_pilot_GIST_update_2,2026.1.1,MacIntel,59.88023952,666afffc29d3c10e9be0bb97,69b95efdef24cd8a694e89ee,69b96011d09f725fed199eab,0.0573,0.0574,0,122,122,1,1,onethree,,,,,,,,,,,,,,,,,,,,,,,,,,,,,,,,,,,,,,,,,,,,,,,,,,,,,,,,,,,,,,,,,,,,,,,,,,,,,,,,,,,,,,,,,,,,,,,,,,,,,,,,,,,,,,,,,,,,,,,,,,,,,,,,,,,,,,,,,
,,666afffc29d3c10e9be0bb97,2026-03-17_16h14.12.965,kallum_motion_pilot_GIST_update_2,2026.1.1,MacIntel,59.88023952,666afffc29d3c10e9be0bb97,69b95efdef24cd8a694e89ee,69b96011d09f725fed199eab,0.0575,0.0576,0,123,123,96,1,fivesix,,,,,,,,,,,,,,,,,,,,,,,,,,,,,,,,,,,,,,,,,,,,,,,,,,,,,,,,,,,,,,,,,,,,,,,,,,,,,,,,,,,,,,,,,,,,,,,,,,,,,,,,,,,,,,,,,,,,,,,,,,,,,,,,,,,,,,,,,
,,666afffc29d3c10e9be0bb97,2026-03-17_16h14.12.965,kallum_motion_pilot_GIST_update_2,2026.1.1,MacIntel,59.88023952,666afffc29d3c10e9be0bb97,69b95efdef24cd8a694e89ee,69b96011d09f725fed199eab,0.0578,0.0578,0,124,124,17,1,onethree,,,,,,,,,,,,,,,,,,,,,,,,,,,,,,,,,,,,,,,,,,,,,,,,,,,,,,,,,,,,,,,,,,,,,,,,,,,,,,,,,,,,,,,,,,,,,,,,,,,,,,,,,,,,,,,,,,,,,,,,,,,,,,,,,,,,,,,,,
,,666afffc29d3c10e9be0bb97,2026-03-17_16h14.12.965,kallum_motion_pilot_GIST_update_2,2026.1.1,MacIntel,59.88023952,666afffc29d3c10e9be0bb97,69b95efdef24cd8a694e89ee,69b96011d09f725fed199eab,0.0579,0.0579,0,125,125,115,1,sixeight,,,,,,,,,,,,,,,,,,,,,,,,,,,,,,,,,,,,,,,,,,,,,,,,,,,,,,,,,,,,,,,,,,,,,,,,,,,,,,,,,,,,,,,,,,,,,,,,,,,,,,,,,,,,,,,,,,,,,,,,,,,,,,,,,,,,,,,,,
,,666afffc29d3c10e9be0bb97,2026-03-17_16h14.12.965,kallum_motion_pilot_GIST_update_2,2026.1.1,MacIntel,59.88023952,666afffc29d3c10e9be0bb97,69b95efdef24cd8a694e89ee,69b96011d09f725fed199eab,0.0582,0.0582,0,126,126,15,1,fourthree,,,,,,,,,,,,,,,,,,,,,,,,,,,,,,,,,,,,,,,,,,,,,,,,,,,,,,,,,,,,,,,,,,,,,,,,,,,,,,,,,,,,,,,,,,,,,,,,,,,,,,,,,,,,,,,,,,,,,,,,,,,,,,,,,,,,,,,,,
,,666afffc29d3c10e9be0bb97,2026-03-17_16h14.12.965,kallum_motion_pilot_GIST_update_2,2026.1.1,MacIntel,59.88023952,666afffc29d3c10e9be0bb97,69b95efdef24cd8a694e89ee,69b96011d09f725fed199eab,0.0584,0.0584,0,127,127,65,1,onethree,,,,,,,,,,,,,,,,,,,,,,,,,,,,,,,,,,,,,,,,,,,,,,,,,,,,,,,,,,,,,,,,,,,,,,,,,,,,,,,,,,,,,,,,,,,,,,,,,,,,,,,,,,,,,,,,,,,,,,,,,,,,,,,,,,,,,,,,,
,,666afffc29d3c10e9be0bb97,2026-03-17_16h14.12.965,kallum_motion_pilot_GIST_update_2,2026.1.1,MacIntel,59.88023952,666afffc29d3c10e9be0bb97,69b95efdef24cd8a694e89ee,69b96011d09f725fed199eab,0.0585,0.0585,0,128,128,143,1,eightseven,,,,,,,,,,,,,,,,,,,,,,,,,,,,,,,,,,,,,,,,,,,,,,,,,,,,,,,,,,,,,,,,,,,,,,,,,,,,,,,,,,,,,,,,,,,,,,,,,,,,,,,,,,,,,,,,,,,,,,,,,,,,,,,,,,,,,,,,,
,,666afffc29d3c10e9be0bb97,2026-03-17_16h14.12.965,kallum_motion_pilot_GIST_update_2,2026.1.1,MacIntel,59.88023952,666afffc29d3c10e9be0bb97,69b95efdef24cd8a694e89ee,69b96011d09f725fed199eab,0.0587,0.0587,0,129,129,7,1,fourthree,,,,,,,,,,,,,,,,,,,,,,,,,,,,,,,,,,,,,,,,,,,,,,,,,,,,,,,,,,,,,,,,,,,,,,,,,,,,,,,,,,,,,,,,,,,,,,,,,,,,,,,,,,,,,,,,,,,,,,,,,,,,,,,,,,,,,,,,,
,,666afffc29d3c10e9be0bb97,2026-03-17_16h14.12.965,kallum_motion_pilot_GIST_update_2,2026.1.1,MacIntel,59.88023952,666afffc29d3c10e9be0bb97,69b95efdef24cd8a694e89ee,69b96011d09f725fed199eab,0.0589,0.0589,0,130,130,43,1,twofour,,,,,,,,,,,,,,,,,,,,,,,,,,,,,,,,,,,,,,,,,,,,,,,,,,,,,,,,,,,,,,,,,,,,,,,,,,,,,,,,,,,,,,,,,,,,,,,,,,,,,,,,,,,,,,,,,,,,,,,,,,,,,,,,,,,,,,,,,
,,666afffc29d3c10e9be0bb97,2026-03-17_16h14.12.965,kallum_motion_pilot_GIST_update_2,2026.1.1,MacIntel,59.88023952,666afffc29d3c10e9be0bb97,69b95efdef24cd8a694e89ee,69b96011d09f725fed199eab,0.059,0.0591,0,131,131,2,1,twoone,,,,,,,,,,,,,,,,,,,,,,,,,,,,,,,,,,,,,,,,,,,,,,,,,,,,,,,,,,,,,,,,,,,,,,,,,,,,,,,,,,,,,,,,,,,,,,,,,,,,,,,,,,,,,,,,,,,,,,,,,,,,,,,,,,,,,,,,,
,,666afffc29d3c10e9be0bb97,2026-03-17_16h14.12.965,kallum_motion_pilot_GIST_update_2,2026.1.1,MacIntel,59.88023952,666afffc29d3c10e9be0bb97,69b95efdef24cd8a694e89ee,69b96011d09f725fed199eab,0.0593,0.0593,0,132,132,104,1,fivesix,,,,,,,,,,,,,,,,,,,,,,,,,,,,,,,,,,,,,,,,,,,,,,,,,,,,,,,,,,,,,,,,,,,,,,,,,,,,,,,,,,,,,,,,,,,,,,,,,,,,,,,,,,,,,,,,,,,,,,,,,,,,,,,,,,,,,,,,,
,,666afffc29d3c10e9be0bb97,2026-03-17_16h14.12.965,kallum_motion_pilot_GIST_update_2,2026.1.1,MacIntel,59.88023952,666afffc29d3c10e9be0bb97,69b95efdef24cd8a694e89ee,69b96011d09f725fed199eab,0.0594,0.0594,0,133,133,157,1,seveneight,,,,,,,,,,,,,,,,,,,,,,,,,,,,,,,,,,,,,,,,,,,,,,,,,,,,,,,,,,,,,,,,,,,,,,,,,,,,,,,,,,,,,,,,,,,,,,,,,,,,,,,,,,,,,,,,,,,,,,,,,,,,,,,,,,,,,,,,,
,,666afffc29d3c10e9be0bb97,2026-03-17_16h14.12.965,kallum_motion_pilot_GIST_update_2,2026.1.1,MacIntel,59.88023952,666afffc29d3c10e9be0bb97,69b95efdef24cd8a694e89ee,69b96011d09f725fed199eab,0.0597,0.0597,0,134,134,38,1,fourtwo,,,,,,,,,,,,,,,,,,,,,,,,,,,,,,,,,,,,,,,,,,,,,,,,,,,,,,,,,,,,,,,,,,,,,,,,,,,,,,,,,,,,,,,,,,,,,,,,,,,,,,,,,,,,,,,,,,,,,,,,,,,,,,,,,,,,,,,,,
,,666afffc29d3c10e9be0bb97,2026-03-17_16h14.12.965,kallum_motion_pilot_GIST_update_2,2026.1.1,MacIntel,59.88023952,666afffc29d3c10e9be0bb97,69b95efdef24cd8a694e89ee,69b96011d09f725fed199eab,0.0598,0.0598,0,135,135,66,1,twoone,,,,,,,,,,,,,,,,,,,,,,,,,,,,,,,,,,,,,,,,,,,,,,,,,,,,,,,,,,,,,,,,,,,,,,,,,,,,,,,,,,,,,,,,,,,,,,,,,,,,,,,,,,,,,,,,,,,,,,,,,,,,,,,,,,,,,,,,,
,,666afffc29d3c10e9be0bb97,2026-03-17_16h14.12.965,kallum_motion_pilot_GIST_update_2,2026.1.1,MacIntel,59.88023952,666afffc29d3c10e9be0bb97,69b95efdef24cd8a694e89ee,69b96011d09f725fed199eab,0.06,0.06,0,136,136,74,1,twoone,,,,,,,,,,,,,,,,,,,,,,,,,,,,,,,,,,,,,,,,,,,,,,,,,,,,,,,,,,,,,,,,,,,,,,,,,,,,,,,,,,,,,,,,,,,,,,,,,,,,,,,,,,,,,,,,,,,,,,,,,,,,,,,,,,,,,,,,,
,,666afffc29d3c10e9be0bb97,2026-03-17_16h14.12.965,kallum_motion_pilot_GIST_update_2,2026.1.1,MacIntel,59.88023952,666afffc29d3c10e9be0bb97,69b95efdef24cd8a694e89ee,69b96011d09f725fed199eab,0.0602,0.0602,0,137,137,128,1,fivesix,,,,,,,,,,,,,,,,,,,,,,,,,,,,,,,,,,,,,,,,,,,,,,,,,,,,,,,,,,,,,,,,,,,,,,,,,,,,,,,,,,,,,,,,,,,,,,,,,,,,,,,,,,,,,,,,,,,,,,,,,,,,,,,,,,,,,,,,,
,,666afffc29d3c10e9be0bb97,2026-03-17_16h14.12.965,kallum_motion_pilot_GIST_update_2,2026.1.1,MacIntel,59.88023952,666afffc29d3c10e9be0bb97,69b95efdef24cd8a694e89ee,69b96011d09f725fed199eab,0.0604,0.0604,0,138,138,97,1,fiveseven,,,,,,,,,,,,,,,,,,,,,,,,,,,,,,,,,,,,,,,,,,,,,,,,,,,,,,,,,,,,,,,,,,,,,,,,,,,,,,,,,,,,,,,,,,,,,,,,,,,,,,,,,,,,,,,,,,,,,,,,,,,,,,,,,,,,,,,,,
,,666afffc29d3c10e9be0bb97,2026-03-17_16h14.12.965,kallum_motion_pilot_GIST_update_2,2026.1.1,MacIntel,59.88023952,666afffc29d3c10e9be0bb97,69b95efdef24cd8a694e89ee,69b96011d09f725fed199eab,0.0606,0.0606,0,139,139,109,1,seveneight,,,,,,,,,,,,,,,,,,,,,,,,,,,,,,,,,,,,,,,,,,,,,,,,,,,,,,,,,,,,,,,,,,,,,,,,,,,,,,,,,,,,,,,,,,,,,,,,,,,,,,,,,,,,,,,,,,,,,,,,,,,,,,,,,,,,,,,,,
,,666afffc29d3c10e9be0bb97,2026-03-17_16h14.12.965,kallum_motion_pilot_GIST_update_2,2026.1.1,MacIntel,59.88023952,666afffc29d3c10e9be0bb97,69b95efdef24cd8a694e89ee,69b96011d09f725fed199eab,0.0607,0.0607,0,140,140,85,1,seveneight,,,,,,,,,,,,,,,,,,,,,,,,,,,,,,,,,,,,,,,,,,,,,,,,,,,,,,,,,,,,,,,,,,,,,,,,,,,,,,,,,,,,,,,,,,,,,,,,,,,,,,,,,,,,,,,,,,,,,,,,,,,,,,,,,,,,,,,,,
,,666afffc29d3c10e9be0bb97,2026-03-17_16h14.12.965,kallum_motion_pilot_GIST_update_2,2026.1.1,MacIntel,59.88023952,666afffc29d3c10e9be0bb97,69b95efdef24cd8a694e89ee,69b96011d09f725fed199eab,0.061,0.061,0,141,141,67,1,twofour,,,,,,,,,,,,,,,,,,,,,,,,,,,,,,,,,,,,,,,,,,,,,,,,,,,,,,,,,,,,,,,,,,,,,,,,,,,,,,,,,,,,,,,,,,,,,,,,,,,,,,,,,,,,,,,,,,,,,,,,,,,,,,,,,,,,,,,,,
,,666afffc29d3c10e9be0bb97,2026-03-17_16h14.12.965,kallum_motion_pilot_GIST_update_2,2026.1.1,MacIntel,59.88023952,666afffc29d3c10e9be0bb97,69b95efdef24cd8a694e89ee,69b96011d09f725fed199eab,0.0611,0.0611,0,142,142,53,1,threefour,,,,,,,,,,,,,,,,,,,,,,,,,,,,,,,,,,,,,,,,,,,,,,,,,,,,,,,,,,,,,,,,,,,,,,,,,,,,,,,,,,,,,,,,,,,,,,,,,,,,,,,,,,,,,,,,,,,,,,,,,,,,,,,,,,,,,,,,,
,,666afffc29d3c10e9be0bb97,2026-03-17_16h14.12.965,kallum_motion_pilot_GIST_update_2,2026.1.1,MacIntel,59.88023952,666afffc29d3c10e9be0bb97,69b95efdef24cd8a694e89ee,69b96011d09f725fed199eab,0.0613,0.0613,0,143,143,37,1,threefour,,,,,,,,,,,,,,,,,,,,,,,,,,,,,,,,,,,,,,,,,,,,,,,,,,,,,,,,,,,,,,,,,,,,,,,,,,,,,,,,,,,,,,,,,,,,,,,,,,,,,,,,,,,,,,,,,,,,,,,,,,,,,,,,,,,,,,,,,
,,666afffc29d3c10e9be0bb97,2026-03-17_16h14.12.965,kallum_motion_pilot_GIST_update_2,2026.1.1,MacIntel,59.88023952,666afffc29d3c10e9be0bb97,69b95efdef24cd8a694e89ee,69b96011d09f725fed199eab,0.0615,0.0615,0,144,144,105,1,fiveseven,,,,,,,,,,,,,,,,,,,,,,,,,,,,,,,,,,,,,,,,,,,,,,,,,,,,,,,,,,,,,,,,,,,,,,,,,,,,,,,,,,,,,,,,,,,,,,,,,,,,,,,,,,,,,,,,,,,,,,,,,,,,,,,,,,,,,,,,,
,,666afffc29d3c10e9be0bb97,2026-03-17_16h14.12.965,kallum_motion_pilot_GIST_update_2,2026.1.1,MacIntel,59.88023952,666afffc29d3c10e9be0bb97,69b95efdef24cd8a694e89ee,69b96011d09f725fed199eab,0.0618,0.0618,0,145,145,3,1,twofour,,,,,,,,,,,,,,,,,,,,,,,,,,,,,,,,,,,,,,,,,,,,,,,,,,,,,,,,,,,,,,,,,,,,,,,,,,,,,,,,,,,,,,,,,,,,,,,,,,,,,,,,,,,,,,,,,,,,,,,,,,,,,,,,,,,,,,,,,
,,666afffc29d3c10e9be0bb97,2026-03-17_16h14.12.965,kallum_motion_pilot_GIST_update_2,2026.1.1,MacIntel,59.88023952,666afffc29d3c10e9be0bb97,69b95efdef24cd8a694e89ee,69b96011d09f725fed199eab,0.0621,0.0621,0,146,146,120,1,fivesix,,,,,,,,,,,,,,,,,,,,,,,,,,,,,,,,,,,,,,,,,,,,,,,,,,,,,,,,,,,,,,,,,,,,,,,,,,,,,,,,,,,,,,,,,,,,,,,,,,,,,,,,,,,,,,,,,,,,,,,,,,,,,,,,,,,,,,,,,
,,666afffc29d3c10e9be0bb97,2026-03-17_16h14.12.965,kallum_motion_pilot_GIST_update_2,2026.1.1,MacIntel,59.88023952,666afffc29d3c10e9be0bb97,69b95efdef24cd8a694e89ee,69b96011d09f725fed199eab,0.0623,0.0623,0,147,147,16,1,onetwo,,,,,,,,,,,,,,,,,,,,,,,,,,,,,,,,,,,,,,,,,,,,,,,,,,,,,,,,,,,,,,,,,,,,,,,,,,,,,,,,,,,,,,,,,,,,,,,,,,,,,,,,,,,,,,,,,,,,,,,,,,,,,,,,,,,,,,,,,
,,666afffc29d3c10e9be0bb97,2026-03-17_16h14.12.965,kallum_motion_pilot_GIST_update_2,2026.1.1,MacIntel,59.88023952,666afffc29d3c10e9be0bb97,69b95efdef24cd8a694e89ee,69b96011d09f725fed199eab,0.0624,0.0625,0,148,148,34,1,twoone,,,,,,,,,,,,,,,,,,,,,,,,,,,,,,,,,,,,,,,,,,,,,,,,,,,,,,,,,,,,,,,,,,,,,,,,,,,,,,,,,,,,,,,,,,,,,,,,,,,,,,,,,,,,,,,,,,,,,,,,,,,,,,,,,,,,,,,,,
,,666afffc29d3c10e9be0bb97,2026-03-17_16h14.12.965,kallum_motion_pilot_GIST_update_2,2026.1.1,MacIntel,59.88023952,666afffc29d3c10e9be0bb97,69b95efdef24cd8a694e89ee,69b96011d09f725fed199eab,0.0627,0.0627,0,149,149,77,1,threefour,,,,,,,,,,,,,,,,,,,,,,,,,,,,,,,,,,,,,,,,,,,,,,,,,,,,,,,,,,,,,,,,,,,,,,,,,,,,,,,,,,,,,,,,,,,,,,,,,,,,,,,,,,,,,,,,,,,,,,,,,,,,,,,,,,,,,,,,,
,,666afffc29d3c10e9be0bb97,2026-03-17_16h14.12.965,kallum_motion_pilot_GIST_update_2,2026.1.1,MacIntel,59.88023952,666afffc29d3c10e9be0bb97,69b95efdef24cd8a694e89ee,69b96011d09f725fed199eab,0.0629,0.0629,0,150,150,99,1,sixeight,,,,,,,,,,,,,,,,,,,,,,,,,,,,,,,,,,,,,,,,,,,,,,,,,,,,,,,,,,,,,,,,,,,,,,,,,,,,,,,,,,,,,,,,,,,,,,,,,,,,,,,,,,,,,,,,,,,,,,,,,,,,,,,,,,,,,,,,,
,,666afffc29d3c10e9be0bb97,2026-03-17_16h14.12.965,kallum_motion_pilot_GIST_update_2,2026.1.1,MacIntel,59.88023952,666afffc29d3c10e9be0bb97,69b95efdef24cd8a694e89ee,69b96011d09f725fed199eab,0.0631,0.0631,0,151,151,73,1,onethree,,,,,,,,,,,,,,,,,,,,,,,,,,,,,,,,,,,,,,,,,,,,,,,,,,,,,,,,,,,,,,,,,,,,,,,,,,,,,,,,,,,,,,,,,,,,,,,,,,,,,,,,,,,,,,,,,,,,,,,,,,,,,,,,,,,,,,,,,
,,666afffc29d3c10e9be0bb97,2026-03-17_16h14.12.965,kallum_motion_pilot_GIST_update_2,2026.1.1,MacIntel,59.88023952,666afffc29d3c10e9be0bb97,69b95efdef24cd8a694e89ee,69b96011d09f725fed199eab,0.0632,0.0632,0,152,152,113,1,fiveseven,,,,,,,,,,,,,,,,,,,,,,,,,,,,,,,,,,,,,,,,,,,,,,,,,,,,,,,,,,,,,,,,,,,,,,,,,,,,,,,,,,,,,,,,,,,,,,,,,,,,,,,,,,,,,,,,,,,,,,,,,,,,,,,,,,,,,,,,,
,,666afffc29d3c10e9be0bb97,2026-03-17_16h14.12.965,kallum_motion_pilot_GIST_update_2,2026.1.1,MacIntel,59.88023952,666afffc29d3c10e9be0bb97,69b95efdef24cd8a694e89ee,69b96011d09f725fed199eab,0.0634,0.0634,0,153,153,63,1,fourthree,,,,,,,,,,,,,,,,,,,,,,,,,,,,,,,,,,,,,,,,,,,,,,,,,,,,,,,,,,,,,,,,,,,,,,,,,,,,,,,,,,,,,,,,,,,,,,,,,,,,,,,,,,,,,,,,,,,,,,,,,,,,,,,,,,,,,,,,,
,,666afffc29d3c10e9be0bb97,2026-03-17_16h14.12.965,kallum_motion_pilot_GIST_update_2,2026.1.1,MacIntel,59.88023952,666afffc29d3c10e9be0bb97,69b95efdef24cd8a694e89ee,69b96011d09f725fed199eab,0.0636,0.0636,0,154,154,107,1,sixeight,,,,,,,,,,,,,,,,,,,,,,,,,,,,,,,,,,,,,,,,,,,,,,,,,,,,,,,,,,,,,,,,,,,,,,,,,,,,,,,,,,,,,,,,,,,,,,,,,,,,,,,,,,,,,,,,,,,,,,,,,,,,,,,,,,,,,,,,,
,,666afffc29d3c10e9be0bb97,2026-03-17_16h14.12.965,kallum_motion_pilot_GIST_update_2,2026.1.1,MacIntel,59.88023952,666afffc29d3c10e9be0bb97,69b95efdef24cd8a694e89ee,69b96011d09f725fed199eab,0.0638,0.0638,0,155,155,144,1,fivesix,,,,,,,,,,,,,,,,,,,,,,,,,,,,,,,,,,,,,,,,,,,,,,,,,,,,,,,,,,,,,,,,,,,,,,,,,,,,,,,,,,,,,,,,,,,,,,,,,,,,,,,,,,,,,,,,,,,,,,,,,,,,,,,,,,,,,,,,,
,,666afffc29d3c10e9be0bb97,2026-03-17_16h14.12.965,kallum_motion_pilot_GIST_update_2,2026.1.1,MacIntel,59.88023952,666afffc29d3c10e9be0bb97,69b95efdef24cd8a694e89ee,69b96011d09f725fed199eab,0.064,0.064,0,156,156,87,1,eightseven,,,,,,,,,,,,,,,,,,,,,,,,,,,,,,,,,,,,,,,,,,,,,,,,,,,,,,,,,,,,,,,,,,,,,,,,,,,,,,,,,,,,,,,,,,,,,,,,,,,,,,,,,,,,,,,,,,,,,,,,,,,,,,,,,,,,,,,,,
,,666afffc29d3c10e9be0bb97,2026-03-17_16h14.12.965,kallum_motion_pilot_GIST_update_2,2026.1.1,MacIntel,59.88023952,666afffc29d3c10e9be0bb97,69b95efdef24cd8a694e89ee,69b96011d09f725fed199eab,0.0641,0.0641,0,157,157,48,1,onetwo,,,,,,,,,,,,,,,,,,,,,,,,,,,,,,,,,,,,,,,,,,,,,,,,,,,,,,,,,,,,,,,,,,,,,,,,,,,,,,,,,,,,,,,,,,,,,,,,,,,,,,,,,,,,,,,,,,,,,,,,,,,,,,,,,,,,,,,,,
,,666afffc29d3c10e9be0bb97,2026-03-17_16h14.12.965,kallum_motion_pilot_GIST_update_2,2026.1.1,MacIntel,59.88023952,666afffc29d3c10e9be0bb97,69b95efdef24cd8a694e89ee,69b96011d09f725fed199eab,0.0643,0.0643,0,158,158,44,1,threeone,,,,,,,,,,,,,,,,,,,,,,,,,,,,,,,,,,,,,,,,,,,,,,,,,,,,,,,,,,,,,,,,,,,,,,,,,,,,,,,,,,,,,,,,,,,,,,,,,,,,,,,,,,,,,,,,,,,,,,,,,,,,,,,,,,,,,,,,,
,,666afffc29d3c10e9be0bb97,2026-03-17_16h14.12.965,kallum_motion_pilot_GIST_update_2,2026.1.1,MacIntel,59.88023952,666afffc29d3c10e9be0bb97,69b95efdef24cd8a694e89ee,69b96011d09f725fed199eab,0.0645,0.0645,0,159,159,49,1,onethree,,,,,,,,,,,,,,,,,,,,,,,,,,,,,,,,,,,,,,,,,,,,,,,,,,,,,,,,,,,,,,,,,,,,,,,,,,,,,,,,,,,,,,,,,,,,,,,,,,,,,,,,,,,,,,,,,,,,,,,,,,,,,,,,,,,,,,,,,
,,666afffc29d3c10e9be0bb97,2026-03-17_16h14.12.965,kallum_motion_pilot_GIST_update_2,2026.1.1,MacIntel,59.88023952,666afffc29d3c10e9be0bb97,69b95efdef24cd8a694e89ee,69b96011d09f725fed199eab,0.0647,0.0647,0,160,160,62,1,fourtwo,,,,,,,,,,,,,,,,,,,,,,,,,,,,,,,,,,,,,,,,,,,,,,,,,,,,,,,,,,,,,,,,,,,,,,,,,,,,,,,,,,,,,,,,,,,,,,,,,,,,,,,,,,,,,,,,,,,,,,,,,,,,,,,,,,,,,,,,,
,,666afffc29d3c10e9be0bb97,2026-03-17_16h14.12.965,kallum_motion_pilot_GIST_update_2,2026.1.1,MacIntel,59.88023952,666afffc29d3c10e9be0bb97,69b95efdef24cd8a694e89ee,69b96011d09f725fed199eab,0.0649,0.0649,0,161,161,89,1,fiveseven,,,,,,,,,,,,,,,,,,,,,,,,,,,,,,,,,,,,,,,,,,,,,,,,,,,,,,,,,,,,,,,,,,,,,,,,,,,,,,,,,,,,,,,,,,,,,,,,,,,,,,,,,,,,,,,,,,,,,,,,,,,,,,,,,,,,,,,,,
,,666afffc29d3c10e9be0bb97,2026-03-17_16h14.12.965,kallum_motion_pilot_GIST_update_2,2026.1.1,MacIntel,59.88023952,666afffc29d3c10e9be0bb97,69b95efdef24cd8a694e89ee,69b96011d09f725fed199eab,0.0651,0.0651,1,0,162,117,1,seveneight,,,,,,,,,,,,,,,,,,,,,,,,,,,,,,,,,,,,,,,,,,,,,,,,,,,,,,,,,,,,,,,,,,,,,,,,,,,,,,,,,,,,,,,,,,,,,,,,,,,,,,,,,,,,,,,,,,,,,,,,,,,,,,,,,,,,,,,,,
,,666afffc29d3c10e9be0bb97,2026-03-17_16h14.12.965,kallum_motion_pilot_GIST_update_2,2026.1.1,MacIntel,59.88023952,666afffc29d3c10e9be0bb97,69b95efdef24cd8a694e89ee,69b96011d09f725fed199eab,0.0653,0.0653,1,1,163,86,1,eightsix,,,,,,,,,,,,,,,,,,,,,,,,,,,,,,,,,,,,,,,,,,,,,,,,,,,,,,,,,,,,,,,,,,,,,,,,,,,,,,,,,,,,,,,,,,,,,,,,,,,,,,,,,,,,,,,,,,,,,,,,,,,,,,,,,,,,,,,,,
,,666afffc29d3c10e9be0bb97,2026-03-17_16h14.12.965,kallum_motion_pilot_GIST_update_2,2026.1.1,MacIntel,59.88023952,666afffc29d3c10e9be0bb97,69b95efdef24cd8a694e89ee,69b96011d09f725fed199eab,0.0655,0.0655,1,2,164,128,1,fivesix,,,,,,,,,,,,,,,,,,,,,,,,,,,,,,,,,,,,,,,,,,,,,,,,,,,,,,,,,,,,,,,,,,,,,,,,,,,,,,,,,,,,,,,,,,,,,,,,,,,,,,,,,,,,,,,,,,,,,,,,,,,,,,,,,,,,,,,,,
,,666afffc29d3c10e9be0bb97,2026-03-17_16h14.12.965,kallum_motion_pilot_GIST_update_2,2026.1.1,MacIntel,59.88023952,666afffc29d3c10e9be0bb97,69b95efdef24cd8a694e89ee,69b96011d09f725fed199eab,0.0664,0.0664,1,3,165,18,1,twoone,,,,,,,,,,,,,,,,,,,,,,,,,,,,,,,,,,,,,,,,,,,,,,,,,,,,,,,,,,,,,,,,,,,,,,,,,,,,,,,,,,,,,,,,,,,,,,,,,,,,,,,,,,,,,,,,,,,,,,,,,,,,,,,,,,,,,,,,,
,,666afffc29d3c10e9be0bb97,2026-03-17_16h14.12.965,kallum_motion_pilot_GIST_update_2,2026.1.1,MacIntel,59.88023952,666afffc29d3c10e9be0bb97,69b95efdef24cd8a694e89ee,69b96011d09f725fed199eab,0.0667,0.0667,1,4,166,102,1,eightsix,,,,,,,,,,,,,,,,,,,,,,,,,,,,,,,,,,,,,,,,,,,,,,,,,,,,,,,,,,,,,,,,,,,,,,,,,,,,,,,,,,,,,,,,,,,,,,,,,,,,,,,,,,,,,,,,,,,,,,,,,,,,,,,,,,,,,,,,,
,,666afffc29d3c10e9be0bb97,2026-03-17_16h14.12.965,kallum_motion_pilot_GIST_update_2,2026.1.1,MacIntel,59.88023952,666afffc29d3c10e9be0bb97,69b95efdef24cd8a694e89ee,69b96011d09f725fed199eab,0.0669,0.0669,1,5,167,35,1,twofour,,,,,,,,,,,,,,,,,,,,,,,,,,,,,,,,,,,,,,,,,,,,,,,,,,,,,,,,,,,,,,,,,,,,,,,,,,,,,,,,,,,,,,,,,,,,,,,,,,,,,,,,,,,,,,,,,,,,,,,,,,,,,,,,,,,,,,,,,
,,666afffc29d3c10e9be0bb97,2026-03-17_16h14.12.965,kallum_motion_pilot_GIST_update_2,2026.1.1,MacIntel,59.88023952,666afffc29d3c10e9be0bb97,69b95efdef24cd8a694e89ee,69b96011d09f725fed199eab,0.067,0.067,1,6,168,78,1,fourtwo,,,,,,,,,,,,,,,,,,,,,,,,,,,,,,,,,,,,,,,,,,,,,,,,,,,,,,,,,,,,,,,,,,,,,,,,,,,,,,,,,,,,,,,,,,,,,,,,,,,,,,,,,,,,,,,,,,,,,,,,,,,,,,,,,,,,,,,,,
,,666afffc29d3c10e9be0bb97,2026-03-17_16h14.12.965,kallum_motion_pilot_GIST_update_2,2026.1.1,MacIntel,59.88023952,666afffc29d3c10e9be0bb97,69b95efdef24cd8a694e89ee,69b96011d09f725fed199eab,0.0672,0.0672,1,7,169,13,1,threefour,,,,,,,,,,,,,,,,,,,,,,,,,,,,,,,,,,,,,,,,,,,,,,,,,,,,,,,,,,,,,,,,,,,,,,,,,,,,,,,,,,,,,,,,,,,,,,,,,,,,,,,,,,,,,,,,,,,,,,,,,,,,,,,,,,,,,,,,,
,,666afffc29d3c10e9be0bb97,2026-03-17_16h14.12.965,kallum_motion_pilot_GIST_update_2,2026.1.1,MacIntel,59.88023952,666afffc29d3c10e9be0bb97,69b95efdef24cd8a694e89ee,69b96011d09f725fed199eab,0.0675,0.0676,1,8,170,49,1,onethree,,,,,,,,,,,,,,,,,,,,,,,,,,,,,,,,,,,,,,,,,,,,,,,,,,,,,,,,,,,,,,,,,,,,,,,,,,,,,,,,,,,,,,,,,,,,,,,,,,,,,,,,,,,,,,,,,,,,,,,,,,,,,,,,,,,,,,,,,
,,666afffc29d3c10e9be0bb97,2026-03-17_16h14.12.965,kallum_motion_pilot_GIST_update_2,2026.1.1,MacIntel,59.88023952,666afffc29d3c10e9be0bb97,69b95efdef24cd8a694e89ee,69b96011d09f725fed199eab,0.0677,0.0677,1,9,171,2,1,twoone,,,,,,,,,,,,,,,,,,,,,,,,,,,,,,,,,,,,,,,,,,,,,,,,,,,,,,,,,,,,,,,,,,,,,,,,,,,,,,,,,,,,,,,,,,,,,,,,,,,,,,,,,,,,,,,,,,,,,,,,,,,,,,,,,,,,,,,,,
,,666afffc29d3c10e9be0bb97,2026-03-17_16h14.12.965,kallum_motion_pilot_GIST_update_2,2026.1.1,MacIntel,59.88023952,666afffc29d3c10e9be0bb97,69b95efdef24cd8a694e89ee,69b96011d09f725fed199eab,0.0679,0.0679,1,10,172,92,1,sevenfive,,,,,,,,,,,,,,,,,,,,,,,,,,,,,,,,,,,,,,,,,,,,,,,,,,,,,,,,,,,,,,,,,,,,,,,,,,,,,,,,,,,,,,,,,,,,,,,,,,,,,,,,,,,,,,,,,,,,,,,,,,,,,,,,,,,,,,,,,
,,666afffc29d3c10e9be0bb97,2026-03-17_16h14.12.965,kallum_motion_pilot_GIST_update_2,2026.1.1,MacIntel,59.88023952,666afffc29d3c10e9be0bb97,69b95efdef24cd8a694e89ee,69b96011d09f725fed199eab,0.0682,0.0682,1,11,173,44,1,threeone,,,,,,,,,,,,,,,,,,,,,,,,,,,,,,,,,,,,,,,,,,,,,,,,,,,,,,,,,,,,,,,,,,,,,,,,,,,,,,,,,,,,,,,,,,,,,,,,,,,,,,,,,,,,,,,,,,,,,,,,,,,,,,,,,,,,,,,,,
,,666afffc29d3c10e9be0bb97,2026-03-17_16h14.12.965,kallum_motion_pilot_GIST_update_2,2026.1.1,MacIntel,59.88023952,666afffc29d3c10e9be0bb97,69b95efdef24cd8a694e89ee,69b96011d09f725fed199eab,0.0684,0.0684,1,12,174,126,1,eightsix,,,,,,,,,,,,,,,,,,,,,,,,,,,,,,,,,,,,,,,,,,,,,,,,,,,,,,,,,,,,,,,,,,,,,,,,,,,,,,,,,,,,,,,,,,,,,,,,,,,,,,,,,,,,,,,,,,,,,,,,,,,,,,,,,,,,,,,,,
,,666afffc29d3c10e9be0bb97,2026-03-17_16h14.12.965,kallum_motion_pilot_GIST_update_2,2026.1.1,MacIntel,59.88023952,666afffc29d3c10e9be0bb97,69b95efdef24cd8a694e89ee,69b96011d09f725fed199eab,0.0685,0.0686,1,13,175,16,1,onetwo,,,,,,,,,,,,,,,,,,,,,,,,,,,,,,,,,,,,,,,,,,,,,,,,,,,,,,,,,,,,,,,,,,,,,,,,,,,,,,,,,,,,,,,,,,,,,,,,,,,,,,,,,,,,,,,,,,,,,,,,,,,,,,,,,,,,,,,,,
,,666afffc29d3c10e9be0bb97,2026-03-17_16h14.12.965,kallum_motion_pilot_GIST_update_2,2026.1.1,MacIntel,59.88023952,666afffc29d3c10e9be0bb97,69b95efdef24cd8a694e89ee,69b96011d09f725fed199eab,0.0687,0.0687,1,14,176,17,1,onethree,,,,,,,,,,,,,,,,,,,,,,,,,,,,,,,,,,,,,,,,,,,,,,,,,,,,,,,,,,,,,,,,,,,,,,,,,,,,,,,,,,,,,,,,,,,,,,,,,,,,,,,,,,,,,,,,,,,,,,,,,,,,,,,,,,,,,,,,,
,,666afffc29d3c10e9be0bb97,2026-03-17_16h14.12.965,kallum_motion_pilot_GIST_update_2,2026.1.1,MacIntel,59.88023952,666afffc29d3c10e9be0bb97,69b95efdef24cd8a694e89ee,69b96011d09f725fed199eab,0.069,0.069,1,15,177,131,1,sixeight,,,,,,,,,,,,,,,,,,,,,,,,,,,,,,,,,,,,,,,,,,,,,,,,,,,,,,,,,,,,,,,,,,,,,,,,,,,,,,,,,,,,,,,,,,,,,,,,,,,,,,,,,,,,,,,,,,,,,,,,,,,,,,,,,,,,,,,,,
,,666afffc29d3c10e9be0bb97,2026-03-17_16h14.12.965,kallum_motion_pilot_GIST_update_2,2026.1.1,MacIntel,59.88023952,666afffc29d3c10e9be0bb97,69b95efdef24cd8a694e89ee,69b96011d09f725fed199eab,0.0691,0.0691,1,16,178,68,1,threeone,,,,,,,,,,,,,,,,,,,,,,,,,,,,,,,,,,,,,,,,,,,,,,,,,,,,,,,,,,,,,,,,,,,,,,,,,,,,,,,,,,,,,,,,,,,,,,,,,,,,,,,,,,,,,,,,,,,,,,,,,,,,,,,,,,,,,,,,,
,,666afffc29d3c10e9be0bb97,2026-03-17_16h14.12.965,kallum_motion_pilot_GIST_update_2,2026.1.1,MacIntel,59.88023952,666afffc29d3c10e9be0bb97,69b95efdef24cd8a694e89ee,69b96011d09f725fed199eab,0.0693,0.0693,1,17,179,105,1,fiveseven,,,,,,,,,,,,,,,,,,,,,,,,,,,,,,,,,,,,,,,,,,,,,,,,,,,,,,,,,,,,,,,,,,,,,,,,,,,,,,,,,,,,,,,,,,,,,,,,,,,,,,,,,,,,,,,,,,,,,,,,,,,,,,,,,,,,,,,,,
,,666afffc29d3c10e9be0bb97,2026-03-17_16h14.12.965,kallum_motion_pilot_GIST_update_2,2026.1.1,MacIntel,59.88023952,666afffc29d3c10e9be0bb97,69b95efdef24cd8a694e89ee,69b96011d09f725fed199eab,0.0696,0.0696,1,18,180,88,1,fivesix,,,,,,,,,,,,,,,,,,,,,,,,,,,,,,,,,,,,,,,,,,,,,,,,,,,,,,,,,,,,,,,,,,,,,,,,,,,,,,,,,,,,,,,,,,,,,,,,,,,,,,,,,,,,,,,,,,,,,,,,,,,,,,,,,,,,,,,,,
,,666afffc29d3c10e9be0bb97,2026-03-17_16h14.12.965,kallum_motion_pilot_GIST_update_2,2026.1.1,MacIntel,59.88023952,666afffc29d3c10e9be0bb97,69b95efdef24cd8a694e89ee,69b96011d09f725fed199eab,0.0698,0.0698,1,19,181,79,1,eightseven,,,,,,,,,,,,,,,,,,,,,,,,,,,,,,,,,,,,,,,,,,,,,,,,,,,,,,,,,,,,,,,,,,,,,,,,,,,,,,,,,,,,,,,,,,,,,,,,,,,,,,,,,,,,,,,,,,,,,,,,,,,,,,,,,,,,,,,,,
,,666afffc29d3c10e9be0bb97,2026-03-17_16h14.12.965,kallum_motion_pilot_GIST_update_2,2026.1.1,MacIntel,59.88023952,666afffc29d3c10e9be0bb97,69b95efdef24cd8a694e89ee,69b96011d09f725fed199eab,0.0701,0.0701,1,20,182,69,1,threefour,,,,,,,,,,,,,,,,,,,,,,,,,,,,,,,,,,,,,,,,,,,,,,,,,,,,,,,,,,,,,,,,,,,,,,,,,,,,,,,,,,,,,,,,,,,,,,,,,,,,,,,,,,,,,,,,,,,,,,,,,,,,,,,,,,,,,,,,,
,,666afffc29d3c10e9be0bb97,2026-03-17_16h14.12.965,kallum_motion_pilot_GIST_update_2,2026.1.1,MacIntel,59.88023952,666afffc29d3c10e9be0bb97,69b95efdef24cd8a694e89ee,69b96011d09f725fed199eab,0.0702,0.0703,1,21,183,118,1,eightsix,,,,,,,,,,,,,,,,,,,,,,,,,,,,,,,,,,,,,,,,,,,,,,,,,,,,,,,,,,,,,,,,,,,,,,,,,,,,,,,,,,,,,,,,,,,,,,,,,,,,,,,,,,,,,,,,,,,,,,,,,,,,,,,,,,,,,,,,,
,,666afffc29d3c10e9be0bb97,2026-03-17_16h14.12.965,kallum_motion_pilot_GIST_update_2,2026.1.1,MacIntel,59.88023952,666afffc29d3c10e9be0bb97,69b95efdef24cd8a694e89ee,69b96011d09f725fed199eab,0.0705,0.0705,1,22,184,27,1,twofour,,,,,,,,,,,,,,,,,,,,,,,,,,,,,,,,,,,,,,,,,,,,,,,,,,,,,,,,,,,,,,,,,,,,,,,,,,,,,,,,,,,,,,,,,,,,,,,,,,,,,,,,,,,,,,,,,,,,,,,,,,,,,,,,,,,,,,,,,
,,666afffc29d3c10e9be0bb97,2026-03-17_16h14.12.965,kallum_motion_pilot_GIST_update_2,2026.1.1,MacIntel,59.88023952,666afffc29d3c10e9be0bb97,69b95efdef24cd8a694e89ee,69b96011d09f725fed199eab,0.0707,0.0707,1,23,185,56,1,onetwo,,,,,,,,,,,,,,,,,,,,,,,,,,,,,,,,,,,,,,,,,,,,,,,,,,,,,,,,,,,,,,,,,,,,,,,,,,,,,,,,,,,,,,,,,,,,,,,,,,,,,,,,,,,,,,,,,,,,,,,,,,,,,,,,,,,,,,,,,
,,666afffc29d3c10e9be0bb97,2026-03-17_16h14.12.965,kallum_motion_pilot_GIST_update_2,2026.1.1,MacIntel,59.88023952,666afffc29d3c10e9be0bb97,69b95efdef24cd8a694e89ee,69b96011d09f725fed199eab,0.0709,0.0709,1,24,186,64,1,onetwo,,,,,,,,,,,,,,,,,,,,,,,,,,,,,,,,,,,,,,,,,,,,,,,,,,,,,,,,,,,,,,,,,,,,,,,,,,,,,,,,,,,,,,,,,,,,,,,,,,,,,,,,,,,,,,,,,,,,,,,,,,,,,,,,,,,,,,,,,
,,666afffc29d3c10e9be0bb97,2026-03-17_16h14.12.965,kallum_motion_pilot_GIST_update_2,2026.1.1,MacIntel,59.88023952,666afffc29d3c10e9be0bb97,69b95efdef24cd8a694e89ee,69b96011d09f725fed199eab,0.0712,0.0712,1,25,187,115,1,sixeight,,,,,,,,,,,,,,,,,,,,,,,,,,,,,,,,,,,,,,,,,,,,,,,,,,,,,,,,,,,,,,,,,,,,,,,,,,,,,,,,,,,,,,,,,,,,,,,,,,,,,,,,,,,,,,,,,,,,,,,,,,,,,,,,,,,,,,,,,
,,666afffc29d3c10e9be0bb97,2026-03-17_16h14.12.965,kallum_motion_pilot_GIST_update_2,2026.1.1,MacIntel,59.88023952,666afffc29d3c10e9be0bb97,69b95efdef24cd8a694e89ee,69b96011d09f725fed199eab,0.0713,0.0713,1,26,188,132,1,sevenfive,,,,,,,,,,,,,,,,,,,,,,,,,,,,,,,,,,,,,,,,,,,,,,,,,,,,,,,,,,,,,,,,,,,,,,,,,,,,,,,,,,,,,,,,,,,,,,,,,,,,,,,,,,,,,,,,,,,,,,,,,,,,,,,,,,,,,,,,,
,,666afffc29d3c10e9be0bb97,2026-03-17_16h14.12.965,kallum_motion_pilot_GIST_update_2,2026.1.1,MacIntel,59.88023952,666afffc29d3c10e9be0bb97,69b95efdef24cd8a694e89ee,69b96011d09f725fed199eab,0.0715,0.0716,1,27,189,124,1,sevenfive,,,,,,,,,,,,,,,,,,,,,,,,,,,,,,,,,,,,,,,,,,,,,,,,,,,,,,,,,,,,,,,,,,,,,,,,,,,,,,,,,,,,,,,,,,,,,,,,,,,,,,,,,,,,,,,,,,,,,,,,,,,,,,,,,,,,,,,,,
,,666afffc29d3c10e9be0bb97,2026-03-17_16h14.12.965,kallum_motion_pilot_GIST_update_2,2026.1.1,MacIntel,59.88023952,666afffc29d3c10e9be0bb97,69b95efdef24cd8a694e89ee,69b96011d09f725fed199eab,0.0718,0.0718,1,28,190,33,1,onethree,,,,,,,,,,,,,,,,,,,,,,,,,,,,,,,,,,,,,,,,,,,,,,,,,,,,,,,,,,,,,,,,,,,,,,,,,,,,,,,,,,,,,,,,,,,,,,,,,,,,,,,,,,,,,,,,,,,,,,,,,,,,,,,,,,,,,,,,,
,,666afffc29d3c10e9be0bb97,2026-03-17_16h14.12.965,kallum_motion_pilot_GIST_update_2,2026.1.1,MacIntel,59.88023952,666afffc29d3c10e9be0bb97,69b95efdef24cd8a694e89ee,69b96011d09f725fed199eab,0.072,0.072,1,29,191,161,1,fiveseven,,,,,,,,,,,,,,,,,,,,,,,,,,,,,,,,,,,,,,,,,,,,,,,,,,,,,,,,,,,,,,,,,,,,,,,,,,,,,,,,,,,,,,,,,,,,,,,,,,,,,,,,,,,,,,,,,,,,,,,,,,,,,,,,,,,,,,,,,
,,666afffc29d3c10e9be0bb97,2026-03-17_16h14.12.965,kallum_motion_pilot_GIST_update_2,2026.1.1,MacIntel,59.88023952,666afffc29d3c10e9be0bb97,69b95efdef24cd8a694e89ee,69b96011d09f725fed199eab,0.0722,0.0722,1,30,192,150,1,eightsix,,,,,,,,,,,,,,,,,,,,,,,,,,,,,,,,,,,,,,,,,,,,,,,,,,,,,,,,,,,,,,,,,,,,,,,,,,,,,,,,,,,,,,,,,,,,,,,,,,,,,,,,,,,,,,,,,,,,,,,,,,,,,,,,,,,,,,,,,
,,666afffc29d3c10e9be0bb97,2026-03-17_16h14.12.965,kallum_motion_pilot_GIST_update_2,2026.1.1,MacIntel,59.88023952,666afffc29d3c10e9be0bb97,69b95efdef24cd8a694e89ee,69b96011d09f725fed199eab,0.0724,0.0724,1,31,193,24,1,onetwo,,,,,,,,,,,,,,,,,,,,,,,,,,,,,,,,,,,,,,,,,,,,,,,,,,,,,,,,,,,,,,,,,,,,,,,,,,,,,,,,,,,,,,,,,,,,,,,,,,,,,,,,,,,,,,,,,,,,,,,,,,,,,,,,,,,,,,,,,
,,666afffc29d3c10e9be0bb97,2026-03-17_16h14.12.965,kallum_motion_pilot_GIST_update_2,2026.1.1,MacIntel,59.88023952,666afffc29d3c10e9be0bb97,69b95efdef24cd8a694e89ee,69b96011d09f725fed199eab,0.0726,0.0726,1,32,194,104,1,fivesix,,,,,,,,,,,,,,,,,,,,,,,,,,,,,,,,,,,,,,,,,,,,,,,,,,,,,,,,,,,,,,,,,,,,,,,,,,,,,,,,,,,,,,,,,,,,,,,,,,,,,,,,,,,,,,,,,,,,,,,,,,,,,,,,,,,,,,,,,
,,666afffc29d3c10e9be0bb97,2026-03-17_16h14.12.965,kallum_motion_pilot_GIST_update_2,2026.1.1,MacIntel,59.88023952,666afffc29d3c10e9be0bb97,69b95efdef24cd8a694e89ee,69b96011d09f725fed199eab,0.0728,0.0729,1,33,195,144,1,fivesix,,,,,,,,,,,,,,,,,,,,,,,,,,,,,,,,,,,,,,,,,,,,,,,,,,,,,,,,,,,,,,,,,,,,,,,,,,,,,,,,,,,,,,,,,,,,,,,,,,,,,,,,,,,,,,,,,,,,,,,,,,,,,,,,,,,,,,,,,
,,666afffc29d3c10e9be0bb97,2026-03-17_16h14.12.965,kallum_motion_pilot_GIST_update_2,2026.1.1,MacIntel,59.88023952,666afffc29d3c10e9be0bb97,69b95efdef24cd8a694e89ee,69b96011d09f725fed199eab,0.073,0.073,1,34,196,113,1,fiveseven,,,,,,,,,,,,,,,,,,,,,,,,,,,,,,,,,,,,,,,,,,,,,,,,,,,,,,,,,,,,,,,,,,,,,,,,,,,,,,,,,,,,,,,,,,,,,,,,,,,,,,,,,,,,,,,,,,,,,,,,,,,,,,,,,,,,,,,,,
,,666afffc29d3c10e9be0bb97,2026-03-17_16h14.12.965,kallum_motion_pilot_GIST_update_2,2026.1.1,MacIntel,59.88023952,666afffc29d3c10e9be0bb97,69b95efdef24cd8a694e89ee,69b96011d09f725fed199eab,0.0733,0.0733,1,35,197,143,1,eightseven,,,,,,,,,,,,,,,,,,,,,,,,,,,,,,,,,,,,,,,,,,,,,,,,,,,,,,,,,,,,,,,,,,,,,,,,,,,,,,,,,,,,,,,,,,,,,,,,,,,,,,,,,,,,,,,,,,,,,,,,,,,,,,,,,,,,,,,,,
,,666afffc29d3c10e9be0bb97,2026-03-17_16h14.12.965,kallum_motion_pilot_GIST_update_2,2026.1.1,MacIntel,59.88023952,666afffc29d3c10e9be0bb97,69b95efdef24cd8a694e89ee,69b96011d09f725fed199eab,0.0736,0.0736,1,36,198,23,1,fourthree,,,,,,,,,,,,,,,,,,,,,,,,,,,,,,,,,,,,,,,,,,,,,,,,,,,,,,,,,,,,,,,,,,,,,,,,,,,,,,,,,,,,,,,,,,,,,,,,,,,,,,,,,,,,,,,,,,,,,,,,,,,,,,,,,,,,,,,,,
,,666afffc29d3c10e9be0bb97,2026-03-17_16h14.12.965,kallum_motion_pilot_GIST_update_2,2026.1.1,MacIntel,59.88023952,666afffc29d3c10e9be0bb97,69b95efdef24cd8a694e89ee,69b96011d09f725fed199eab,0.0738,0.0738,1,37,199,43,1,twofour,,,,,,,,,,,,,,,,,,,,,,,,,,,,,,,,,,,,,,,,,,,,,,,,,,,,,,,,,,,,,,,,,,,,,,,,,,,,,,,,,,,,,,,,,,,,,,,,,,,,,,,,,,,,,,,,,,,,,,,,,,,,,,,,,,,,,,,,,
,,666afffc29d3c10e9be0bb97,2026-03-17_16h14.12.965,kallum_motion_pilot_GIST_update_2,2026.1.1,MacIntel,59.88023952,666afffc29d3c10e9be0bb97,69b95efdef24cd8a694e89ee,69b96011d09f725fed199eab,0.074,0.074,1,38,200,75,1,twofour,,,,,,,,,,,,,,,,,,,,,,,,,,,,,,,,,,,,,,,,,,,,,,,,,,,,,,,,,,,,,,,,,,,,,,,,,,,,,,,,,,,,,,,,,,,,,,,,,,,,,,,,,,,,,,,,,,,,,,,,,,,,,,,,,,,,,,,,,
,,666afffc29d3c10e9be0bb97,2026-03-17_16h14.12.965,kallum_motion_pilot_GIST_update_2,2026.1.1,MacIntel,59.88023952,666afffc29d3c10e9be0bb97,69b95efdef24cd8a694e89ee,69b96011d09f725fed199eab,0.0742,0.0742,1,39,201,60,1,threeone,,,,,,,,,,,,,,,,,,,,,,,,,,,,,,,,,,,,,,,,,,,,,,,,,,,,,,,,,,,,,,,,,,,,,,,,,,,,,,,,,,,,,,,,,,,,,,,,,,,,,,,,,,,,,,,,,,,,,,,,,,,,,,,,,,,,,,,,,
,,666afffc29d3c10e9be0bb97,2026-03-17_16h14.12.965,kallum_motion_pilot_GIST_update_2,2026.1.1,MacIntel,59.88023952,666afffc29d3c10e9be0bb97,69b95efdef24cd8a694e89ee,69b96011d09f725fed199eab,0.0745,0.0745,1,40,202,36,1,threeone,,,,,,,,,,,,,,,,,,,,,,,,,,,,,,,,,,,,,,,,,,,,,,,,,,,,,,,,,,,,,,,,,,,,,,,,,,,,,,,,,,,,,,,,,,,,,,,,,,,,,,,,,,,,,,,,,,,,,,,,,,,,,,,,,,,,,,,,,
,,666afffc29d3c10e9be0bb97,2026-03-17_16h14.12.965,kallum_motion_pilot_GIST_update_2,2026.1.1,MacIntel,59.88023952,666afffc29d3c10e9be0bb97,69b95efdef24cd8a694e89ee,69b96011d09f725fed199eab,0.0746,0.0746,1,41,203,95,1,eightseven,,,,,,,,,,,,,,,,,,,,,,,,,,,,,,,,,,,,,,,,,,,,,,,,,,,,,,,,,,,,,,,,,,,,,,,,,,,,,,,,,,,,,,,,,,,,,,,,,,,,,,,,,,,,,,,,,,,,,,,,,,,,,,,,,,,,,,,,,
,,666afffc29d3c10e9be0bb97,2026-03-17_16h14.12.965,kallum_motion_pilot_GIST_update_2,2026.1.1,MacIntel,59.88023952,666afffc29d3c10e9be0bb97,69b95efdef24cd8a694e89ee,69b96011d09f725fed199eab,0.0748,0.0748,1,42,204,52,1,threeone,,,,,,,,,,,,,,,,,,,,,,,,,,,,,,,,,,,,,,,,,,,,,,,,,,,,,,,,,,,,,,,,,,,,,,,,,,,,,,,,,,,,,,,,,,,,,,,,,,,,,,,,,,,,,,,,,,,,,,,,,,,,,,,,,,,,,,,,,
,,666afffc29d3c10e9be0bb97,2026-03-17_16h14.12.965,kallum_motion_pilot_GIST_update_2,2026.1.1,MacIntel,59.88023952,666afffc29d3c10e9be0bb97,69b95efdef24cd8a694e89ee,69b96011d09f725fed199eab,0.075,0.075,1,43,205,59,1,twofour,,,,,,,,,,,,,,,,,,,,,,,,,,,,,,,,,,,,,,,,,,,,,,,,,,,,,,,,,,,,,,,,,,,,,,,,,,,,,,,,,,,,,,,,,,,,,,,,,,,,,,,,,,,,,,,,,,,,,,,,,,,,,,,,,,,,,,,,,
,,666afffc29d3c10e9be0bb97,2026-03-17_16h14.12.965,kallum_motion_pilot_GIST_update_2,2026.1.1,MacIntel,59.88023952,666afffc29d3c10e9be0bb97,69b95efdef24cd8a694e89ee,69b96011d09f725fed199eab,0.0752,0.0752,1,44,206,84,1,sevenfive,,,,,,,,,,,,,,,,,,,,,,,,,,,,,,,,,,,,,,,,,,,,,,,,,,,,,,,,,,,,,,,,,,,,,,,,,,,,,,,,,,,,,,,,,,,,,,,,,,,,,,,,,,,,,,,,,,,,,,,,,,,,,,,,,,,,,,,,,
,,666afffc29d3c10e9be0bb97,2026-03-17_16h14.12.965,kallum_motion_pilot_GIST_update_2,2026.1.1,MacIntel,59.88023952,666afffc29d3c10e9be0bb97,69b95efdef24cd8a694e89ee,69b96011d09f725fed199eab,0.0754,0.0754,1,45,207,112,1,fivesix,,,,,,,,,,,,,,,,,,,,,,,,,,,,,,,,,,,,,,,,,,,,,,,,,,,,,,,,,,,,,,,,,,,,,,,,,,,,,,,,,,,,,,,,,,,,,,,,,,,,,,,,,,,,,,,,,,,,,,,,,,,,,,,,,,,,,,,,,
,,666afffc29d3c10e9be0bb97,2026-03-17_16h14.12.965,kallum_motion_pilot_GIST_update_2,2026.1.1,MacIntel,59.88023952,666afffc29d3c10e9be0bb97,69b95efdef24cd8a694e89ee,69b96011d09f725fed199eab,0.0756,0.0756,1,46,208,65,1,onethree,,,,,,,,,,,,,,,,,,,,,,,,,,,,,,,,,,,,,,,,,,,,,,,,,,,,,,,,,,,,,,,,,,,,,,,,,,,,,,,,,,,,,,,,,,,,,,,,,,,,,,,,,,,,,,,,,,,,,,,,,,,,,,,,,,,,,,,,,
,,666afffc29d3c10e9be0bb97,2026-03-17_16h14.12.965,kallum_motion_pilot_GIST_update_2,2026.1.1,MacIntel,59.88023952,666afffc29d3c10e9be0bb97,69b95efdef24cd8a694e89ee,69b96011d09f725fed199eab,0.0758,0.0758,1,47,209,5,1,threefour,,,,,,,,,,,,,,,,,,,,,,,,,,,,,,,,,,,,,,,,,,,,,,,,,,,,,,,,,,,,,,,,,,,,,,,,,,,,,,,,,,,,,,,,,,,,,,,,,,,,,,,,,,,,,,,,,,,,,,,,,,,,,,,,,,,,,,,,,
,,666afffc29d3c10e9be0bb97,2026-03-17_16h14.12.965,kallum_motion_pilot_GIST_update_2,2026.1.1,MacIntel,59.88023952,666afffc29d3c10e9be0bb97,69b95efdef24cd8a694e89ee,69b96011d09f725fed199eab,0.076,0.076,1,48,210,147,1,sixeight,,,,,,,,,,,,,,,,,,,,,,,,,,,,,,,,,,,,,,,,,,,,,,,,,,,,,,,,,,,,,,,,,,,,,,,,,,,,,,,,,,,,,,,,,,,,,,,,,,,,,,,,,,,,,,,,,,,,,,,,,,,,,,,,,,,,,,,,,
,,666afffc29d3c10e9be0bb97,2026-03-17_16h14.12.965,kallum_motion_pilot_GIST_update_2,2026.1.1,MacIntel,59.88023952,666afffc29d3c10e9be0bb97,69b95efdef24cd8a694e89ee,69b96011d09f725fed199eab,0.0762,0.0762,1,49,211,57,1,onethree,,,,,,,,,,,,,,,,,,,,,,,,,,,,,,,,,,,,,,,,,,,,,,,,,,,,,,,,,,,,,,,,,,,,,,,,,,,,,,,,,,,,,,,,,,,,,,,,,,,,,,,,,,,,,,,,,,,,,,,,,,,,,,,,,,,,,,,,,
,,666afffc29d3c10e9be0bb97,2026-03-17_16h14.12.965,kallum_motion_pilot_GIST_update_2,2026.1.1,MacIntel,59.88023952,666afffc29d3c10e9be0bb97,69b95efdef24cd8a694e89ee,69b96011d09f725fed199eab,0.0764,0.0764,1,50,212,119,1,eightseven,,,,,,,,,,,,,,,,,,,,,,,,,,,,,,,,,,,,,,,,,,,,,,,,,,,,,,,,,,,,,,,,,,,,,,,,,,,,,,,,,,,,,,,,,,,,,,,,,,,,,,,,,,,,,,,,,,,,,,,,,,,,,,,,,,,,,,,,,
,,666afffc29d3c10e9be0bb97,2026-03-17_16h14.12.965,kallum_motion_pilot_GIST_update_2,2026.1.1,MacIntel,59.88023952,666afffc29d3c10e9be0bb97,69b95efdef24cd8a694e89ee,69b96011d09f725fed199eab,0.0766,0.0766,1,51,213,80,1,fivesix,,,,,,,,,,,,,,,,,,,,,,,,,,,,,,,,,,,,,,,,,,,,,,,,,,,,,,,,,,,,,,,,,,,,,,,,,,,,,,,,,,,,,,,,,,,,,,,,,,,,,,,,,,,,,,,,,,,,,,,,,,,,,,,,,,,,,,,,,
,,666afffc29d3c10e9be0bb97,2026-03-17_16h14.12.965,kallum_motion_pilot_GIST_update_2,2026.1.1,MacIntel,59.88023952,666afffc29d3c10e9be0bb97,69b95efdef24cd8a694e89ee,69b96011d09f725fed199eab,0.0768,0.0768,1,52,214,82,1,sixfive,,,,,,,,,,,,,,,,,,,,,,,,,,,,,,,,,,,,,,,,,,,,,,,,,,,,,,,,,,,,,,,,,,,,,,,,,,,,,,,,,,,,,,,,,,,,,,,,,,,,,,,,,,,,,,,,,,,,,,,,,,,,,,,,,,,,,,,,,
,,666afffc29d3c10e9be0bb97,2026-03-17_16h14.12.965,kallum_motion_pilot_GIST_update_2,2026.1.1,MacIntel,59.88023952,666afffc29d3c10e9be0bb97,69b95efdef24cd8a694e89ee,69b96011d09f725fed199eab,0.077,0.077,1,53,215,100,1,sevenfive,,,,,,,,,,,,,,,,,,,,,,,,,,,,,,,,,,,,,,,,,,,,,,,,,,,,,,,,,,,,,,,,,,,,,,,,,,,,,,,,,,,,,,,,,,,,,,,,,,,,,,,,,,,,,,,,,,,,,,,,,,,,,,,,,,,,,,,,,
,,666afffc29d3c10e9be0bb97,2026-03-17_16h14.12.965,kallum_motion_pilot_GIST_update_2,2026.1.1,MacIntel,59.88023952,666afffc29d3c10e9be0bb97,69b95efdef24cd8a694e89ee,69b96011d09f725fed199eab,0.0772,0.0772,1,54,216,108,1,sevenfive,,,,,,,,,,,,,,,,,,,,,,,,,,,,,,,,,,,,,,,,,,,,,,,,,,,,,,,,,,,,,,,,,,,,,,,,,,,,,,,,,,,,,,,,,,,,,,,,,,,,,,,,,,,,,,,,,,,,,,,,,,,,,,,,,,,,,,,,,
,,666afffc29d3c10e9be0bb97,2026-03-17_16h14.12.965,kallum_motion_pilot_GIST_update_2,2026.1.1,MacIntel,59.88023952,666afffc29d3c10e9be0bb97,69b95efdef24cd8a694e89ee,69b96011d09f725fed199eab,0.0773,0.0773,1,55,217,48,1,onetwo,,,,,,,,,,,,,,,,,,,,,,,,,,,,,,,,,,,,,,,,,,,,,,,,,,,,,,,,,,,,,,,,,,,,,,,,,,,,,,,,,,,,,,,,,,,,,,,,,,,,,,,,,,,,,,,,,,,,,,,,,,,,,,,,,,,,,,,,,
,,666afffc29d3c10e9be0bb97,2026-03-17_16h14.12.965,kallum_motion_pilot_GIST_update_2,2026.1.1,MacIntel,59.88023952,666afffc29d3c10e9be0bb97,69b95efdef24cd8a694e89ee,69b96011d09f725fed199eab,0.0775,0.0775,1,56,218,94,1,eightsix,,,,,,,,,,,,,,,,,,,,,,,,,,,,,,,,,,,,,,,,,,,,,,,,,,,,,,,,,,,,,,,,,,,,,,,,,,,,,,,,,,,,,,,,,,,,,,,,,,,,,,,,,,,,,,,,,,,,,,,,,,,,,,,,,,,,,,,,,
,,666afffc29d3c10e9be0bb97,2026-03-17_16h14.12.965,kallum_motion_pilot_GIST_update_2,2026.1.1,MacIntel,59.88023952,666afffc29d3c10e9be0bb97,69b95efdef24cd8a694e89ee,69b96011d09f725fed199eab,0.0777,0.0778,1,57,219,98,1,sixfive,,,,,,,,,,,,,,,,,,,,,,,,,,,,,,,,,,,,,,,,,,,,,,,,,,,,,,,,,,,,,,,,,,,,,,,,,,,,,,,,,,,,,,,,,,,,,,,,,,,,,,,,,,,,,,,,,,,,,,,,,,,,,,,,,,,,,,,,,
,,666afffc29d3c10e9be0bb97,2026-03-17_16h14.12.965,kallum_motion_pilot_GIST_update_2,2026.1.1,MacIntel,59.88023952,666afffc29d3c10e9be0bb97,69b95efdef24cd8a694e89ee,69b96011d09f725fed199eab,0.0779,0.0779,1,58,220,7,1,fourthree,,,,,,,,,,,,,,,,,,,,,,,,,,,,,,,,,,,,,,,,,,,,,,,,,,,,,,,,,,,,,,,,,,,,,,,,,,,,,,,,,,,,,,,,,,,,,,,,,,,,,,,,,,,,,,,,,,,,,,,,,,,,,,,,,,,,,,,,,
,,666afffc29d3c10e9be0bb97,2026-03-17_16h14.12.965,kallum_motion_pilot_GIST_update_2,2026.1.1,MacIntel,59.88023952,666afffc29d3c10e9be0bb97,69b95efdef24cd8a694e89ee,69b96011d09f725fed199eab,0.0782,0.0782,1,59,221,156,1,sevenfive,,,,,,,,,,,,,,,,,,,,,,,,,,,,,,,,,,,,,,,,,,,,,,,,,,,,,,,,,,,,,,,,,,,,,,,,,,,,,,,,,,,,,,,,,,,,,,,,,,,,,,,,,,,,,,,,,,,,,,,,,,,,,,,,,,,,,,,,,
,,666afffc29d3c10e9be0bb97,2026-03-17_16h14.12.965,kallum_motion_pilot_GIST_update_2,2026.1.1,MacIntel,59.88023952,666afffc29d3c10e9be0bb97,69b95efdef24cd8a694e89ee,69b96011d09f725fed199eab,0.0784,0.0784,1,60,222,67,1,twofour,,,,,,,,,,,,,,,,,,,,,,,,,,,,,,,,,,,,,,,,,,,,,,,,,,,,,,,,,,,,,,,,,,,,,,,,,,,,,,,,,,,,,,,,,,,,,,,,,,,,,,,,,,,,,,,,,,,,,,,,,,,,,,,,,,,,,,,,,
,,666afffc29d3c10e9be0bb97,2026-03-17_16h14.12.965,kallum_motion_pilot_GIST_update_2,2026.1.1,MacIntel,59.88023952,666afffc29d3c10e9be0bb97,69b95efdef24cd8a694e89ee,69b96011d09f725fed199eab,0.0786,0.0786,1,61,223,99,1,sixeight,,,,,,,,,,,,,,,,,,,,,,,,,,,,,,,,,,,,,,,,,,,,,,,,,,,,,,,,,,,,,,,,,,,,,,,,,,,,,,,,,,,,,,,,,,,,,,,,,,,,,,,,,,,,,,,,,,,,,,,,,,,,,,,,,,,,,,,,,
,,666afffc29d3c10e9be0bb97,2026-03-17_16h14.12.965,kallum_motion_pilot_GIST_update_2,2026.1.1,MacIntel,59.88023952,666afffc29d3c10e9be0bb97,69b95efdef24cd8a694e89ee,69b96011d09f725fed199eab,0.0788,0.0788,1,62,224,70,1,fourtwo,,,,,,,,,,,,,,,,,,,,,,,,,,,,,,,,,,,,,,,,,,,,,,,,,,,,,,,,,,,,,,,,,,,,,,,,,,,,,,,,,,,,,,,,,,,,,,,,,,,,,,,,,,,,,,,,,,,,,,,,,,,,,,,,,,,,,,,,,
,,666afffc29d3c10e9be0bb97,2026-03-17_16h14.12.965,kallum_motion_pilot_GIST_update_2,2026.1.1,MacIntel,59.88023952,666afffc29d3c10e9be0bb97,69b95efdef24cd8a694e89ee,69b96011d09f725fed199eab,0.079,0.079,1,63,225,125,1,seveneight,,,,,,,,,,,,,,,,,,,,,,,,,,,,,,,,,,,,,,,,,,,,,,,,,,,,,,,,,,,,,,,,,,,,,,,,,,,,,,,,,,,,,,,,,,,,,,,,,,,,,,,,,,,,,,,,,,,,,,,,,,,,,,,,,,,,,,,,,
,,666afffc29d3c10e9be0bb97,2026-03-17_16h14.12.965,kallum_motion_pilot_GIST_update_2,2026.1.1,MacIntel,59.88023952,666afffc29d3c10e9be0bb97,69b95efdef24cd8a694e89ee,69b96011d09f725fed199eab,0.0793,0.0793,1,64,226,0,1,onetwo,,,,,,,,,,,,,,,,,,,,,,,,,,,,,,,,,,,,,,,,,,,,,,,,,,,,,,,,,,,,,,,,,,,,,,,,,,,,,,,,,,,,,,,,,,,,,,,,,,,,,,,,,,,,,,,,,,,,,,,,,,,,,,,,,,,,,,,,,
,,666afffc29d3c10e9be0bb97,2026-03-17_16h14.12.965,kallum_motion_pilot_GIST_update_2,2026.1.1,MacIntel,59.88023952,666afffc29d3c10e9be0bb97,69b95efdef24cd8a694e89ee,69b96011d09f725fed199eab,0.0796,0.0797,1,65,227,21,1,threefour,,,,,,,,,,,,,,,,,,,,,,,,,,,,,,,,,,,,,,,,,,,,,,,,,,,,,,,,,,,,,,,,,,,,,,,,,,,,,,,,,,,,,,,,,,,,,,,,,,,,,,,,,,,,,,,,,,,,,,,,,,,,,,,,,,,,,,,,,
,,666afffc29d3c10e9be0bb97,2026-03-17_16h14.12.965,kallum_motion_pilot_GIST_update_2,2026.1.1,MacIntel,59.88023952,666afffc29d3c10e9be0bb97,69b95efdef24cd8a694e89ee,69b96011d09f725fed199eab,0.0799,0.0799,1,66,228,90,1,sixfive,,,,,,,,,,,,,,,,,,,,,,,,,,,,,,,,,,,,,,,,,,,,,,,,,,,,,,,,,,,,,,,,,,,,,,,,,,,,,,,,,,,,,,,,,,,,,,,,,,,,,,,,,,,,,,,,,,,,,,,,,,,,,,,,,,,,,,,,,
,,666afffc29d3c10e9be0bb97,2026-03-17_16h14.12.965,kallum_motion_pilot_GIST_update_2,2026.1.1,MacIntel,59.88023952,666afffc29d3c10e9be0bb97,69b95efdef24cd8a694e89ee,69b96011d09f725fed199eab,0.0801,0.0801,1,67,229,26,1,twoone,,,,,,,,,,,,,,,,,,,,,,,,,,,,,,,,,,,,,,,,,,,,,,,,,,,,,,,,,,,,,,,,,,,,,,,,,,,,,,,,,,,,,,,,,,,,,,,,,,,,,,,,,,,,,,,,,,,,,,,,,,,,,,,,,,,,,,,,,
,,666afffc29d3c10e9be0bb97,2026-03-17_16h14.12.965,kallum_motion_pilot_GIST_update_2,2026.1.1,MacIntel,59.88023952,666afffc29d3c10e9be0bb97,69b95efdef24cd8a694e89ee,69b96011d09f725fed199eab,0.0803,0.0803,1,68,230,114,1,sixfive,,,,,,,,,,,,,,,,,,,,,,,,,,,,,,,,,,,,,,,,,,,,,,,,,,,,,,,,,,,,,,,,,,,,,,,,,,,,,,,,,,,,,,,,,,,,,,,,,,,,,,,,,,,,,,,,,,,,,,,,,,,,,,,,,,,,,,,,,
,,666afffc29d3c10e9be0bb97,2026-03-17_16h14.12.965,kallum_motion_pilot_GIST_update_2,2026.1.1,MacIntel,59.88023952,666afffc29d3c10e9be0bb97,69b95efdef24cd8a694e89ee,69b96011d09f725fed199eab,0.0806,0.0806,1,69,231,54,1,fourtwo,,,,,,,,,,,,,,,,,,,,,,,,,,,,,,,,,,,,,,,,,,,,,,,,,,,,,,,,,,,,,,,,,,,,,,,,,,,,,,,,,,,,,,,,,,,,,,,,,,,,,,,,,,,,,,,,,,,,,,,,,,,,,,,,,,,,,,,,,
,,666afffc29d3c10e9be0bb97,2026-03-17_16h14.12.965,kallum_motion_pilot_GIST_update_2,2026.1.1,MacIntel,59.88023952,666afffc29d3c10e9be0bb97,69b95efdef24cd8a694e89ee,69b96011d09f725fed199eab,0.0808,0.0808,1,70,232,72,1,onetwo,,,,,,,,,,,,,,,,,,,,,,,,,,,,,,,,,,,,,,,,,,,,,,,,,,,,,,,,,,,,,,,,,,,,,,,,,,,,,,,,,,,,,,,,,,,,,,,,,,,,,,,,,,,,,,,,,,,,,,,,,,,,,,,,,,,,,,,,,
,,666afffc29d3c10e9be0bb97,2026-03-17_16h14.12.965,kallum_motion_pilot_GIST_update_2,2026.1.1,MacIntel,59.88023952,666afffc29d3c10e9be0bb97,69b95efdef24cd8a694e89ee,69b96011d09f725fed199eab,0.0811,0.0811,1,71,233,157,1,seveneight,,,,,,,,,,,,,,,,,,,,,,,,,,,,,,,,,,,,,,,,,,,,,,,,,,,,,,,,,,,,,,,,,,,,,,,,,,,,,,,,,,,,,,,,,,,,,,,,,,,,,,,,,,,,,,,,,,,,,,,,,,,,,,,,,,,,,,,,,
,,666afffc29d3c10e9be0bb97,2026-03-17_16h14.12.965,kallum_motion_pilot_GIST_update_2,2026.1.1,MacIntel,59.88023952,666afffc29d3c10e9be0bb97,69b95efdef24cd8a694e89ee,69b96011d09f725fed199eab,0.0812,0.0812,1,72,234,32,1,onetwo,,,,,,,,,,,,,,,,,,,,,,,,,,,,,,,,,,,,,,,,,,,,,,,,,,,,,,,,,,,,,,,,,,,,,,,,,,,,,,,,,,,,,,,,,,,,,,,,,,,,,,,,,,,,,,,,,,,,,,,,,,,,,,,,,,,,,,,,,
,,666afffc29d3c10e9be0bb97,2026-03-17_16h14.12.965,kallum_motion_pilot_GIST_update_2,2026.1.1,MacIntel,59.88023952,666afffc29d3c10e9be0bb97,69b95efdef24cd8a694e89ee,69b96011d09f725fed199eab,0.0815,0.0815,1,73,235,158,1,eightsix,,,,,,,,,,,,,,,,,,,,,,,,,,,,,,,,,,,,,,,,,,,,,,,,,,,,,,,,,,,,,,,,,,,,,,,,,,,,,,,,,,,,,,,,,,,,,,,,,,,,,,,,,,,,,,,,,,,,,,,,,,,,,,,,,,,,,,,,,
,,666afffc29d3c10e9be0bb97,2026-03-17_16h14.12.965,kallum_motion_pilot_GIST_update_2,2026.1.1,MacIntel,59.88023952,666afffc29d3c10e9be0bb97,69b95efdef24cd8a694e89ee,69b96011d09f725fed199eab,0.0817,0.0817,1,74,236,77,1,threefour,,,,,,,,,,,,,,,,,,,,,,,,,,,,,,,,,,,,,,,,,,,,,,,,,,,,,,,,,,,,,,,,,,,,,,,,,,,,,,,,,,,,,,,,,,,,,,,,,,,,,,,,,,,,,,,,,,,,,,,,,,,,,,,,,,,,,,,,,
,,666afffc29d3c10e9be0bb97,2026-03-17_16h14.12.965,kallum_motion_pilot_GIST_update_2,2026.1.1,MacIntel,59.88023952,666afffc29d3c10e9be0bb97,69b95efdef24cd8a694e89ee,69b96011d09f725fed199eab,0.0819,0.0819,1,75,237,37,1,threefour,,,,,,,,,,,,,,,,,,,,,,,,,,,,,,,,,,,,,,,,,,,,,,,,,,,,,,,,,,,,,,,,,,,,,,,,,,,,,,,,,,,,,,,,,,,,,,,,,,,,,,,,,,,,,,,,,,,,,,,,,,,,,,,,,,,,,,,,,
,,666afffc29d3c10e9be0bb97,2026-03-17_16h14.12.965,kallum_motion_pilot_GIST_update_2,2026.1.1,MacIntel,59.88023952,666afffc29d3c10e9be0bb97,69b95efdef24cd8a694e89ee,69b96011d09f725fed199eab,0.0821,0.0821,1,76,238,93,1,seveneight,,,,,,,,,,,,,,,,,,,,,,,,,,,,,,,,,,,,,,,,,,,,,,,,,,,,,,,,,,,,,,,,,,,,,,,,,,,,,,,,,,,,,,,,,,,,,,,,,,,,,,,,,,,,,,,,,,,,,,,,,,,,,,,,,,,,,,,,,
,,666afffc29d3c10e9be0bb97,2026-03-17_16h14.12.965,kallum_motion_pilot_GIST_update_2,2026.1.1,MacIntel,59.88023952,666afffc29d3c10e9be0bb97,69b95efdef24cd8a694e89ee,69b96011d09f725fed199eab,0.0823,0.0823,1,77,239,122,1,sixfive,,,,,,,,,,,,,,,,,,,,,,,,,,,,,,,,,,,,,,,,,,,,,,,,,,,,,,,,,,,,,,,,,,,,,,,,,,,,,,,,,,,,,,,,,,,,,,,,,,,,,,,,,,,,,,,,,,,,,,,,,,,,,,,,,,,,,,,,,
,,666afffc29d3c10e9be0bb97,2026-03-17_16h14.12.965,kallum_motion_pilot_GIST_update_2,2026.1.1,MacIntel,59.88023952,666afffc29d3c10e9be0bb97,69b95efdef24cd8a694e89ee,69b96011d09f725fed199eab,0.0826,0.0826,1,78,240,142,1,eightsix,,,,,,,,,,,,,,,,,,,,,,,,,,,,,,,,,,,,,,,,,,,,,,,,,,,,,,,,,,,,,,,,,,,,,,,,,,,,,,,,,,,,,,,,,,,,,,,,,,,,,,,,,,,,,,,,,,,,,,,,,,,,,,,,,,,,,,,,,
,,666afffc29d3c10e9be0bb97,2026-03-17_16h14.12.965,kallum_motion_pilot_GIST_update_2,2026.1.1,MacIntel,59.88023952,666afffc29d3c10e9be0bb97,69b95efdef24cd8a694e89ee,69b96011d09f725fed199eab,0.0827,0.0827,1,79,241,83,1,sixeight,,,,,,,,,,,,,,,,,,,,,,,,,,,,,,,,,,,,,,,,,,,,,,,,,,,,,,,,,,,,,,,,,,,,,,,,,,,,,,,,,,,,,,,,,,,,,,,,,,,,,,,,,,,,,,,,,,,,,,,,,,,,,,,,,,,,,,,,,
,,666afffc29d3c10e9be0bb97,2026-03-17_16h14.12.965,kallum_motion_pilot_GIST_update_2,2026.1.1,MacIntel,59.88023952,666afffc29d3c10e9be0bb97,69b95efdef24cd8a694e89ee,69b96011d09f725fed199eab,0.0829,0.0829,1,80,242,42,1,twoone,,,,,,,,,,,,,,,,,,,,,,,,,,,,,,,,,,,,,,,,,,,,,,,,,,,,,,,,,,,,,,,,,,,,,,,,,,,,,,,,,,,,,,,,,,,,,,,,,,,,,,,,,,,,,,,,,,,,,,,,,,,,,,,,,,,,,,,,,
,,666afffc29d3c10e9be0bb97,2026-03-17_16h14.12.965,kallum_motion_pilot_GIST_update_2,2026.1.1,MacIntel,59.88023952,666afffc29d3c10e9be0bb97,69b95efdef24cd8a694e89ee,69b96011d09f725fed199eab,0.0831,0.0831,1,81,243,97,1,fiveseven,,,,,,,,,,,,,,,,,,,,,,,,,,,,,,,,,,,,,,,,,,,,,,,,,,,,,,,,,,,,,,,,,,,,,,,,,,,,,,,,,,,,,,,,,,,,,,,,,,,,,,,,,,,,,,,,,,,,,,,,,,,,,,,,,,,,,,,,,
,,666afffc29d3c10e9be0bb97,2026-03-17_16h14.12.965,kallum_motion_pilot_GIST_update_2,2026.1.1,MacIntel,59.88023952,666afffc29d3c10e9be0bb97,69b95efdef24cd8a694e89ee,69b96011d09f725fed199eab,0.0834,0.0834,1,82,244,135,1,eightseven,,,,,,,,,,,,,,,,,,,,,,,,,,,,,,,,,,,,,,,,,,,,,,,,,,,,,,,,,,,,,,,,,,,,,,,,,,,,,,,,,,,,,,,,,,,,,,,,,,,,,,,,,,,,,,,,,,,,,,,,,,,,,,,,,,,,,,,,,
,,666afffc29d3c10e9be0bb97,2026-03-17_16h14.12.965,kallum_motion_pilot_GIST_update_2,2026.1.1,MacIntel,59.88023952,666afffc29d3c10e9be0bb97,69b95efdef24cd8a694e89ee,69b96011d09f725fed199eab,0.0835,0.0835,1,83,245,12,1,threeone,,,,,,,,,,,,,,,,,,,,,,,,,,,,,,,,,,,,,,,,,,,,,,,,,,,,,,,,,,,,,,,,,,,,,,,,,,,,,,,,,,,,,,,,,,,,,,,,,,,,,,,,,,,,,,,,,,,,,,,,,,,,,,,,,,,,,,,,,
,,666afffc29d3c10e9be0bb97,2026-03-17_16h14.12.965,kallum_motion_pilot_GIST_update_2,2026.1.1,MacIntel,59.88023952,666afffc29d3c10e9be0bb97,69b95efdef24cd8a694e89ee,69b96011d09f725fed199eab,0.0837,0.0837,1,84,246,81,1,fiveseven,,,,,,,,,,,,,,,,,,,,,,,,,,,,,,,,,,,,,,,,,,,,,,,,,,,,,,,,,,,,,,,,,,,,,,,,,,,,,,,,,,,,,,,,,,,,,,,,,,,,,,,,,,,,,,,,,,,,,,,,,,,,,,,,,,,,,,,,,
,,666afffc29d3c10e9be0bb97,2026-03-17_16h14.12.965,kallum_motion_pilot_GIST_update_2,2026.1.1,MacIntel,59.88023952,666afffc29d3c10e9be0bb97,69b95efdef24cd8a694e89ee,69b96011d09f725fed199eab,0.084,0.084,1,85,247,153,1,fiveseven,,,,,,,,,,,,,,,,,,,,,,,,,,,,,,,,,,,,,,,,,,,,,,,,,,,,,,,,,,,,,,,,,,,,,,,,,,,,,,,,,,,,,,,,,,,,,,,,,,,,,,,,,,,,,,,,,,,,,,,,,,,,,,,,,,,,,,,,,
,,666afffc29d3c10e9be0bb97,2026-03-17_16h14.12.965,kallum_motion_pilot_GIST_update_2,2026.1.1,MacIntel,59.88023952,666afffc29d3c10e9be0bb97,69b95efdef24cd8a694e89ee,69b96011d09f725fed199eab,0.0842,0.0842,1,86,248,137,1,fiveseven,,,,,,,,,,,,,,,,,,,,,,,,,,,,,,,,,,,,,,,,,,,,,,,,,,,,,,,,,,,,,,,,,,,,,,,,,,,,,,,,,,,,,,,,,,,,,,,,,,,,,,,,,,,,,,,,,,,,,,,,,,,,,,,,,,,,,,,,,
,,666afffc29d3c10e9be0bb97,2026-03-17_16h14.12.965,kallum_motion_pilot_GIST_update_2,2026.1.1,MacIntel,59.88023952,666afffc29d3c10e9be0bb97,69b95efdef24cd8a694e89ee,69b96011d09f725fed199eab,0.0844,0.0844,1,87,249,101,1,seveneight,,,,,,,,,,,,,,,,,,,,,,,,,,,,,,,,,,,,,,,,,,,,,,,,,,,,,,,,,,,,,,,,,,,,,,,,,,,,,,,,,,,,,,,,,,,,,,,,,,,,,,,,,,,,,,,,,,,,,,,,,,,,,,,,,,,,,,,,,
,,666afffc29d3c10e9be0bb97,2026-03-17_16h14.12.965,kallum_motion_pilot_GIST_update_2,2026.1.1,MacIntel,59.88023952,666afffc29d3c10e9be0bb97,69b95efdef24cd8a694e89ee,69b96011d09f725fed199eab,0.0847,0.0847,1,88,250,136,1,fivesix,,,,,,,,,,,,,,,,,,,,,,,,,,,,,,,,,,,,,,,,,,,,,,,,,,,,,,,,,,,,,,,,,,,,,,,,,,,,,,,,,,,,,,,,,,,,,,,,,,,,,,,,,,,,,,,,,,,,,,,,,,,,,,,,,,,,,,,,,
,,666afffc29d3c10e9be0bb97,2026-03-17_16h14.12.965,kallum_motion_pilot_GIST_update_2,2026.1.1,MacIntel,59.88023952,666afffc29d3c10e9be0bb97,69b95efdef24cd8a694e89ee,69b96011d09f725fed199eab,0.0849,0.085,1,89,251,73,1,onethree,,,,,,,,,,,,,,,,,,,,,,,,,,,,,,,,,,,,,,,,,,,,,,,,,,,,,,,,,,,,,,,,,,,,,,,,,,,,,,,,,,,,,,,,,,,,,,,,,,,,,,,,,,,,,,,,,,,,,,,,,,,,,,,,,,,,,,,,,
,,666afffc29d3c10e9be0bb97,2026-03-17_16h14.12.965,kallum_motion_pilot_GIST_update_2,2026.1.1,MacIntel,59.88023952,666afffc29d3c10e9be0bb97,69b95efdef24cd8a694e89ee,69b96011d09f725fed199eab,0.0852,0.0852,1,90,252,107,1,sixeight,,,,,,,,,,,,,,,,,,,,,,,,,,,,,,,,,,,,,,,,,,,,,,,,,,,,,,,,,,,,,,,,,,,,,,,,,,,,,,,,,,,,,,,,,,,,,,,,,,,,,,,,,,,,,,,,,,,,,,,,,,,,,,,,,,,,,,,,,
,,666afffc29d3c10e9be0bb97,2026-03-17_16h14.12.965,kallum_motion_pilot_GIST_update_2,2026.1.1,MacIntel,59.88023952,666afffc29d3c10e9be0bb97,69b95efdef24cd8a694e89ee,69b96011d09f725fed199eab,0.0854,0.0854,1,91,253,50,1,twoone,,,,,,,,,,,,,,,,,,,,,,,,,,,,,,,,,,,,,,,,,,,,,,,,,,,,,,,,,,,,,,,,,,,,,,,,,,,,,,,,,,,,,,,,,,,,,,,,,,,,,,,,,,,,,,,,,,,,,,,,,,,,,,,,,,,,,,,,,
,,666afffc29d3c10e9be0bb97,2026-03-17_16h14.12.965,kallum_motion_pilot_GIST_update_2,2026.1.1,MacIntel,59.88023952,666afffc29d3c10e9be0bb97,69b95efdef24cd8a694e89ee,69b96011d09f725fed199eab,0.0857,0.0857,1,92,254,20,1,threeone,,,,,,,,,,,,,,,,,,,,,,,,,,,,,,,,,,,,,,,,,,,,,,,,,,,,,,,,,,,,,,,,,,,,,,,,,,,,,,,,,,,,,,,,,,,,,,,,,,,,,,,,,,,,,,,,,,,,,,,,,,,,,,,,,,,,,,,,,
,,666afffc29d3c10e9be0bb97,2026-03-17_16h14.12.965,kallum_motion_pilot_GIST_update_2,2026.1.1,MacIntel,59.88023952,666afffc29d3c10e9be0bb97,69b95efdef24cd8a694e89ee,69b96011d09f725fed199eab,0.0861,0.0861,1,93,255,145,1,fiveseven,,,,,,,,,,,,,,,,,,,,,,,,,,,,,,,,,,,,,,,,,,,,,,,,,,,,,,,,,,,,,,,,,,,,,,,,,,,,,,,,,,,,,,,,,,,,,,,,,,,,,,,,,,,,,,,,,,,,,,,,,,,,,,,,,,,,,,,,,
,,666afffc29d3c10e9be0bb97,2026-03-17_16h14.12.965,kallum_motion_pilot_GIST_update_2,2026.1.1,MacIntel,59.88023952,666afffc29d3c10e9be0bb97,69b95efdef24cd8a694e89ee,69b96011d09f725fed199eab,0.0863,0.0863,1,94,256,9,1,onethree,,,,,,,,,,,,,,,,,,,,,,,,,,,,,,,,,,,,,,,,,,,,,,,,,,,,,,,,,,,,,,,,,,,,,,,,,,,,,,,,,,,,,,,,,,,,,,,,,,,,,,,,,,,,,,,,,,,,,,,,,,,,,,,,,,,,,,,,,
,,666afffc29d3c10e9be0bb97,2026-03-17_16h14.12.965,kallum_motion_pilot_GIST_update_2,2026.1.1,MacIntel,59.88023952,666afffc29d3c10e9be0bb97,69b95efdef24cd8a694e89ee,69b96011d09f725fed199eab,0.0865,0.0865,1,95,257,155,1,sixeight,,,,,,,,,,,,,,,,,,,,,,,,,,,,,,,,,,,,,,,,,,,,,,,,,,,,,,,,,,,,,,,,,,,,,,,,,,,,,,,,,,,,,,,,,,,,,,,,,,,,,,,,,,,,,,,,,,,,,,,,,,,,,,,,,,,,,,,,,
,,666afffc29d3c10e9be0bb97,2026-03-17_16h14.12.965,kallum_motion_pilot_GIST_update_2,2026.1.1,MacIntel,59.88023952,666afffc29d3c10e9be0bb97,69b95efdef24cd8a694e89ee,69b96011d09f725fed199eab,0.0868,0.0868,1,96,258,8,1,onetwo,,,,,,,,,,,,,,,,,,,,,,,,,,,,,,,,,,,,,,,,,,,,,,,,,,,,,,,,,,,,,,,,,,,,,,,,,,,,,,,,,,,,,,,,,,,,,,,,,,,,,,,,,,,,,,,,,,,,,,,,,,,,,,,,,,,,,,,,,
,,666afffc29d3c10e9be0bb97,2026-03-17_16h14.12.965,kallum_motion_pilot_GIST_update_2,2026.1.1,MacIntel,59.88023952,666afffc29d3c10e9be0bb97,69b95efdef24cd8a694e89ee,69b96011d09f725fed199eab,0.0871,0.0871,1,97,259,4,1,threeone,,,,,,,,,,,,,,,,,,,,,,,,,,,,,,,,,,,,,,,,,,,,,,,,,,,,,,,,,,,,,,,,,,,,,,,,,,,,,,,,,,,,,,,,,,,,,,,,,,,,,,,,,,,,,,,,,,,,,,,,,,,,,,,,,,,,,,,,,
,,666afffc29d3c10e9be0bb97,2026-03-17_16h14.12.965,kallum_motion_pilot_GIST_update_2,2026.1.1,MacIntel,59.88023952,666afffc29d3c10e9be0bb97,69b95efdef24cd8a694e89ee,69b96011d09f725fed199eab,0.0872,0.0872,1,98,260,14,1,fourtwo,,,,,,,,,,,,,,,,,,,,,,,,,,,,,,,,,,,,,,,,,,,,,,,,,,,,,,,,,,,,,,,,,,,,,,,,,,,,,,,,,,,,,,,,,,,,,,,,,,,,,,,,,,,,,,,,,,,,,,,,,,,,,,,,,,,,,,,,,
,,666afffc29d3c10e9be0bb97,2026-03-17_16h14.12.965,kallum_motion_pilot_GIST_update_2,2026.1.1,MacIntel,59.88023952,666afffc29d3c10e9be0bb97,69b95efdef24cd8a694e89ee,69b96011d09f725fed199eab,0.0874,0.0874,1,99,261,110,1,eightsix,,,,,,,,,,,,,,,,,,,,,,,,,,,,,,,,,,,,,,,,,,,,,,,,,,,,,,,,,,,,,,,,,,,,,,,,,,,,,,,,,,,,,,,,,,,,,,,,,,,,,,,,,,,,,,,,,,,,,,,,,,,,,,,,,,,,,,,,,
,,666afffc29d3c10e9be0bb97,2026-03-17_16h14.12.965,kallum_motion_pilot_GIST_update_2,2026.1.1,MacIntel,59.88023952,666afffc29d3c10e9be0bb97,69b95efdef24cd8a694e89ee,69b96011d09f725fed199eab,0.0877,0.0878,1,100,262,46,1,fourtwo,,,,,,,,,,,,,,,,,,,,,,,,,,,,,,,,,,,,,,,,,,,,,,,,,,,,,,,,,,,,,,,,,,,,,,,,,,,,,,,,,,,,,,,,,,,,,,,,,,,,,,,,,,,,,,,,,,,,,,,,,,,,,,,,,,,,,,,,,
,,666afffc29d3c10e9be0bb97,2026-03-17_16h14.12.965,kallum_motion_pilot_GIST_update_2,2026.1.1,MacIntel,59.88023952,666afffc29d3c10e9be0bb97,69b95efdef24cd8a694e89ee,69b96011d09f725fed199eab,0.0879,0.0879,1,101,263,53,1,threefour,,,,,,,,,,,,,,,,,,,,,,,,,,,,,,,,,,,,,,,,,,,,,,,,,,,,,,,,,,,,,,,,,,,,,,,,,,,,,,,,,,,,,,,,,,,,,,,,,,,,,,,,,,,,,,,,,,,,,,,,,,,,,,,,,,,,,,,,,
