startup.started,startup.stopped,Prolific ID*,date,expName,psychopyVersion,OS,frameRate,participant,study_id,session,stimpositions.started,stimpositions.stopped,hardcoded_stimulus_positions.thisRepN,hardcoded_stimulus_positions.thisTrialN,hardcoded_stimulus_positions.thisN,hardcoded_stimulus_positions.thisIndex,hardcoded_stimulus_positions.ran,StimulusPos,stimorientation.started,stimorientation.stopped,prac_stimorientation_import_loop.thisRepN,prac_stimorientation_import_loop.thisTrialN,prac_stimorientation_import_loop.thisN,prac_stimorientation_import_loop.thisIndex,prac_stimorientation_import_loop.ran,Stimorientation,welcome_instr.started,welcome_instr.stopped,key_resp.keys,key_resp.rt,key_resp.duration,response_steppedout_1.started,response_steppedout_1.stopped,key_resp_20.keys,key_resp_20.rt,key_resp_20.duration,response_steppedout_2.started,response_steppedout_2.stopped,key_resp_19.keys,key_resp_19.rt,key_resp_19.duration,stim_response_instr.started,stim_response_instr.stopped,key_resp_15.keys,key_resp_15.rt,key_resp_15.duration,direction_instr_2.started,direction_instr_2.stopped,key_resp_9.keys,key_resp_9.rt,key_resp_9.duration,instr_prac.started,instr_prac.stopped,key_resp_10.keys,key_resp_10.rt,key_resp_10.duration,Stim1_display_prac.started,Stim1_display_prac.stopped,Ecc,Circle1_ori,Circle2_ori,response_prac.started,similarity,response_time,response_prac.stopped,mouse_5.x,mouse_5.y,mouse_5.leftButton,mouse_5.midButton,mouse_5.rightButton,mouse_5.clicked_name,responseprac_feedback.started,responseprac_feedback.stopped,summary2_prac.started,summary2_prac.stopped,mouse_6.x,mouse_6.y,mouse_6.leftButton,mouse_6.midButton,mouse_6.rightButton,mouse_6.clicked_name,duringprac.thisRepN,duringprac.thisTrialN,duringprac.thisN,duringprac.thisIndex,duringprac.ran,begin.started,begin.stopped,key_resp_22.keys,key_resp_22.rt,key_resp_22.duration,Stim1_display.started,Stim1_display.stopped,circle1_ori,circle2_ori,circle1_SF,circle2_SF,response.started,response.stopped,mouse.x,mouse.y,mouse.leftButton,mouse.midButton,mouse.rightButton,mouse.clicked_name,trialnumber,double_pass.thisRepN,double_pass.thisTrialN,double_pass.thisN,double_pass.thisIndex,double_pass.ran,double_pass.order,main_trial.thisRepN,main_trial.thisTrialN,main_trial.thisN,main_trial.thisIndex,main_trial.ran,main_trial.order,Trial_Counter,Catch,Frequencies,response_2.started,response_2.stopped,mouse_2.x,mouse_2.y,mouse_2.leftButton,mouse_2.midButton,mouse_2.rightButton,mouse_2.clicked_name,special_trial.started,special_trial.stopped,catch_1.started,catch_1.stopped,mouse_3.x,mouse_3.y,mouse_3.leftButton,mouse_3.midButton,mouse_3.rightButton,catchresponse,catchnumber,response_time_catch,response_sum.started,response_sum.stopped,mouse_11.x,mouse_11.y,mouse_11.leftButton,mouse_11.midButton,mouse_11.rightButton,flip_presentation_sequence_for_double_pass.started,flip_presentation_sequence_for_double_pass.stopped,goodbye.started,goodbye.stopped,key_resp_3.keys,key_resp_3.rt,key_resp_3.duration
0.001,0.0011,666d97ca3efe7fbd33436995,2026-03-17_10h23.06.413,kallum_motion_pilot_GIST_update_2,2026.1.1,Win32,60.24096386,666d97ca3efe7fbd33436995,69b92ab4aef6dee357cd729a,69b92b4ddac2237340c374be,,,,,,,,,,,,,,,,,,,,,,,,,,,,,,,,,,,,,,,,,,,,,,,,,,,,,,,,,,,,,,,,,,,,,,,,,,,,,,,,,,,,,,,,,,,,,,,,,,,,,,,,,,,,,,,,,,,,,,,,,,,,,,,,,,,,,,,,,,,,,,,,,
,,666d97ca3efe7fbd33436995,2026-03-17_10h23.06.413,kallum_motion_pilot_GIST_update_2,2026.1.1,Win32,60.24096386,666d97ca3efe7fbd33436995,69b92ab4aef6dee357cd729a,69b92b4ddac2237340c374be,0.0196,0.0196,0,0,0,79,1,eightseven,,,,,,,,,,,,,,,,,,,,,,,,,,,,,,,,,,,,,,,,,,,,,,,,,,,,,,,,,,,,,,,,,,,,,,,,,,,,,,,,,,,,,,,,,,,,,,,,,,,,,,,,,,,,,,,,,,,,,,,,,,,,,,,,,,,,,,,,,
,,666d97ca3efe7fbd33436995,2026-03-17_10h23.06.413,kallum_motion_pilot_GIST_update_2,2026.1.1,Win32,60.24096386,666d97ca3efe7fbd33436995,69b92ab4aef6dee357cd729a,69b92b4ddac2237340c374be,0.0198,0.0198,0,1,1,135,1,eightseven,,,,,,,,,,,,,,,,,,,,,,,,,,,,,,,,,,,,,,,,,,,,,,,,,,,,,,,,,,,,,,,,,,,,,,,,,,,,,,,,,,,,,,,,,,,,,,,,,,,,,,,,,,,,,,,,,,,,,,,,,,,,,,,,,,,,,,,,,
,,666d97ca3efe7fbd33436995,2026-03-17_10h23.06.413,kallum_motion_pilot_GIST_update_2,2026.1.1,Win32,60.24096386,666d97ca3efe7fbd33436995,69b92ab4aef6dee357cd729a,69b92b4ddac2237340c374be,0.02,0.02,0,2,2,153,1,fiveseven,,,,,,,,,,,,,,,,,,,,,,,,,,,,,,,,,,,,,,,,,,,,,,,,,,,,,,,,,,,,,,,,,,,,,,,,,,,,,,,,,,,,,,,,,,,,,,,,,,,,,,,,,,,,,,,,,,,,,,,,,,,,,,,,,,,,,,,,,
,,666d97ca3efe7fbd33436995,2026-03-17_10h23.06.413,kallum_motion_pilot_GIST_update_2,2026.1.1,Win32,60.24096386,666d97ca3efe7fbd33436995,69b92ab4aef6dee357cd729a,69b92b4ddac2237340c374be,0.02,0.02,0,3,3,63,1,fourthree,,,,,,,,,,,,,,,,,,,,,,,,,,,,,,,,,,,,,,,,,,,,,,,,,,,,,,,,,,,,,,,,,,,,,,,,,,,,,,,,,,,,,,,,,,,,,,,,,,,,,,,,,,,,,,,,,,,,,,,,,,,,,,,,,,,,,,,,,
,,666d97ca3efe7fbd33436995,2026-03-17_10h23.06.413,kallum_motion_pilot_GIST_update_2,2026.1.1,Win32,60.24096386,666d97ca3efe7fbd33436995,69b92ab4aef6dee357cd729a,69b92b4ddac2237340c374be,0.0202,0.0202,0,4,4,103,1,eightseven,,,,,,,,,,,,,,,,,,,,,,,,,,,,,,,,,,,,,,,,,,,,,,,,,,,,,,,,,,,,,,,,,,,,,,,,,,,,,,,,,,,,,,,,,,,,,,,,,,,,,,,,,,,,,,,,,,,,,,,,,,,,,,,,,,,,,,,,,
,,666d97ca3efe7fbd33436995,2026-03-17_10h23.06.413,kallum_motion_pilot_GIST_update_2,2026.1.1,Win32,60.24096386,666d97ca3efe7fbd33436995,69b92ab4aef6dee357cd729a,69b92b4ddac2237340c374be,0.0202,0.0202,0,5,5,78,1,fourtwo,,,,,,,,,,,,,,,,,,,,,,,,,,,,,,,,,,,,,,,,,,,,,,,,,,,,,,,,,,,,,,,,,,,,,,,,,,,,,,,,,,,,,,,,,,,,,,,,,,,,,,,,,,,,,,,,,,,,,,,,,,,,,,,,,,,,,,,,,
,,666d97ca3efe7fbd33436995,2026-03-17_10h23.06.413,kallum_motion_pilot_GIST_update_2,2026.1.1,Win32,60.24096386,666d97ca3efe7fbd33436995,69b92ab4aef6dee357cd729a,69b92b4ddac2237340c374be,0.0204,0.0204,0,6,6,39,1,fourthree,,,,,,,,,,,,,,,,,,,,,,,,,,,,,,,,,,,,,,,,,,,,,,,,,,,,,,,,,,,,,,,,,,,,,,,,,,,,,,,,,,,,,,,,,,,,,,,,,,,,,,,,,,,,,,,,,,,,,,,,,,,,,,,,,,,,,,,,,
,,666d97ca3efe7fbd33436995,2026-03-17_10h23.06.413,kallum_motion_pilot_GIST_update_2,2026.1.1,Win32,60.24096386,666d97ca3efe7fbd33436995,69b92ab4aef6dee357cd729a,69b92b4ddac2237340c374be,0.0204,0.0205,0,7,7,109,1,seveneight,,,,,,,,,,,,,,,,,,,,,,,,,,,,,,,,,,,,,,,,,,,,,,,,,,,,,,,,,,,,,,,,,,,,,,,,,,,,,,,,,,,,,,,,,,,,,,,,,,,,,,,,,,,,,,,,,,,,,,,,,,,,,,,,,,,,,,,,,
,,666d97ca3efe7fbd33436995,2026-03-17_10h23.06.413,kallum_motion_pilot_GIST_update_2,2026.1.1,Win32,60.24096386,666d97ca3efe7fbd33436995,69b92ab4aef6dee357cd729a,69b92b4ddac2237340c374be,0.0206,0.0206,0,8,8,141,1,seveneight,,,,,,,,,,,,,,,,,,,,,,,,,,,,,,,,,,,,,,,,,,,,,,,,,,,,,,,,,,,,,,,,,,,,,,,,,,,,,,,,,,,,,,,,,,,,,,,,,,,,,,,,,,,,,,,,,,,,,,,,,,,,,,,,,,,,,,,,,
,,666d97ca3efe7fbd33436995,2026-03-17_10h23.06.413,kallum_motion_pilot_GIST_update_2,2026.1.1,Win32,60.24096386,666d97ca3efe7fbd33436995,69b92ab4aef6dee357cd729a,69b92b4ddac2237340c374be,0.0206,0.0206,0,9,9,65,1,onethree,,,,,,,,,,,,,,,,,,,,,,,,,,,,,,,,,,,,,,,,,,,,,,,,,,,,,,,,,,,,,,,,,,,,,,,,,,,,,,,,,,,,,,,,,,,,,,,,,,,,,,,,,,,,,,,,,,,,,,,,,,,,,,,,,,,,,,,,,
,,666d97ca3efe7fbd33436995,2026-03-17_10h23.06.413,kallum_motion_pilot_GIST_update_2,2026.1.1,Win32,60.24096386,666d97ca3efe7fbd33436995,69b92ab4aef6dee357cd729a,69b92b4ddac2237340c374be,0.0207,0.0207,0,10,10,92,1,sevenfive,,,,,,,,,,,,,,,,,,,,,,,,,,,,,,,,,,,,,,,,,,,,,,,,,,,,,,,,,,,,,,,,,,,,,,,,,,,,,,,,,,,,,,,,,,,,,,,,,,,,,,,,,,,,,,,,,,,,,,,,,,,,,,,,,,,,,,,,,
,,666d97ca3efe7fbd33436995,2026-03-17_10h23.06.413,kallum_motion_pilot_GIST_update_2,2026.1.1,Win32,60.24096386,666d97ca3efe7fbd33436995,69b92ab4aef6dee357cd729a,69b92b4ddac2237340c374be,0.021,0.021,0,11,11,64,1,onetwo,,,,,,,,,,,,,,,,,,,,,,,,,,,,,,,,,,,,,,,,,,,,,,,,,,,,,,,,,,,,,,,,,,,,,,,,,,,,,,,,,,,,,,,,,,,,,,,,,,,,,,,,,,,,,,,,,,,,,,,,,,,,,,,,,,,,,,,,,
,,666d97ca3efe7fbd33436995,2026-03-17_10h23.06.413,kallum_motion_pilot_GIST_update_2,2026.1.1,Win32,60.24096386,666d97ca3efe7fbd33436995,69b92ab4aef6dee357cd729a,69b92b4ddac2237340c374be,0.0211,0.0211,0,12,12,40,1,onetwo,,,,,,,,,,,,,,,,,,,,,,,,,,,,,,,,,,,,,,,,,,,,,,,,,,,,,,,,,,,,,,,,,,,,,,,,,,,,,,,,,,,,,,,,,,,,,,,,,,,,,,,,,,,,,,,,,,,,,,,,,,,,,,,,,,,,,,,,,
,,666d97ca3efe7fbd33436995,2026-03-17_10h23.06.413,kallum_motion_pilot_GIST_update_2,2026.1.1,Win32,60.24096386,666d97ca3efe7fbd33436995,69b92ab4aef6dee357cd729a,69b92b4ddac2237340c374be,0.0211,0.0211,0,13,13,130,1,sixfive,,,,,,,,,,,,,,,,,,,,,,,,,,,,,,,,,,,,,,,,,,,,,,,,,,,,,,,,,,,,,,,,,,,,,,,,,,,,,,,,,,,,,,,,,,,,,,,,,,,,,,,,,,,,,,,,,,,,,,,,,,,,,,,,,,,,,,,,,
,,666d97ca3efe7fbd33436995,2026-03-17_10h23.06.413,kallum_motion_pilot_GIST_update_2,2026.1.1,Win32,60.24096386,666d97ca3efe7fbd33436995,69b92ab4aef6dee357cd729a,69b92b4ddac2237340c374be,0.0212,0.0212,0,14,14,122,1,sixfive,,,,,,,,,,,,,,,,,,,,,,,,,,,,,,,,,,,,,,,,,,,,,,,,,,,,,,,,,,,,,,,,,,,,,,,,,,,,,,,,,,,,,,,,,,,,,,,,,,,,,,,,,,,,,,,,,,,,,,,,,,,,,,,,,,,,,,,,,
,,666d97ca3efe7fbd33436995,2026-03-17_10h23.06.413,kallum_motion_pilot_GIST_update_2,2026.1.1,Win32,60.24096386,666d97ca3efe7fbd33436995,69b92ab4aef6dee357cd729a,69b92b4ddac2237340c374be,0.0213,0.0213,0,15,15,121,1,fiveseven,,,,,,,,,,,,,,,,,,,,,,,,,,,,,,,,,,,,,,,,,,,,,,,,,,,,,,,,,,,,,,,,,,,,,,,,,,,,,,,,,,,,,,,,,,,,,,,,,,,,,,,,,,,,,,,,,,,,,,,,,,,,,,,,,,,,,,,,,
,,666d97ca3efe7fbd33436995,2026-03-17_10h23.06.413,kallum_motion_pilot_GIST_update_2,2026.1.1,Win32,60.24096386,666d97ca3efe7fbd33436995,69b92ab4aef6dee357cd729a,69b92b4ddac2237340c374be,0.0213,0.0213,0,16,16,66,1,twoone,,,,,,,,,,,,,,,,,,,,,,,,,,,,,,,,,,,,,,,,,,,,,,,,,,,,,,,,,,,,,,,,,,,,,,,,,,,,,,,,,,,,,,,,,,,,,,,,,,,,,,,,,,,,,,,,,,,,,,,,,,,,,,,,,,,,,,,,,
,,666d97ca3efe7fbd33436995,2026-03-17_10h23.06.413,kallum_motion_pilot_GIST_update_2,2026.1.1,Win32,60.24096386,666d97ca3efe7fbd33436995,69b92ab4aef6dee357cd729a,69b92b4ddac2237340c374be,0.0214,0.0214,0,17,17,145,1,fiveseven,,,,,,,,,,,,,,,,,,,,,,,,,,,,,,,,,,,,,,,,,,,,,,,,,,,,,,,,,,,,,,,,,,,,,,,,,,,,,,,,,,,,,,,,,,,,,,,,,,,,,,,,,,,,,,,,,,,,,,,,,,,,,,,,,,,,,,,,,
,,666d97ca3efe7fbd33436995,2026-03-17_10h23.06.413,kallum_motion_pilot_GIST_update_2,2026.1.1,Win32,60.24096386,666d97ca3efe7fbd33436995,69b92ab4aef6dee357cd729a,69b92b4ddac2237340c374be,0.0214,0.0214,0,18,18,136,1,fivesix,,,,,,,,,,,,,,,,,,,,,,,,,,,,,,,,,,,,,,,,,,,,,,,,,,,,,,,,,,,,,,,,,,,,,,,,,,,,,,,,,,,,,,,,,,,,,,,,,,,,,,,,,,,,,,,,,,,,,,,,,,,,,,,,,,,,,,,,,
,,666d97ca3efe7fbd33436995,2026-03-17_10h23.06.413,kallum_motion_pilot_GIST_update_2,2026.1.1,Win32,60.24096386,666d97ca3efe7fbd33436995,69b92ab4aef6dee357cd729a,69b92b4ddac2237340c374be,0.0214,0.0214,0,19,19,12,1,threeone,,,,,,,,,,,,,,,,,,,,,,,,,,,,,,,,,,,,,,,,,,,,,,,,,,,,,,,,,,,,,,,,,,,,,,,,,,,,,,,,,,,,,,,,,,,,,,,,,,,,,,,,,,,,,,,,,,,,,,,,,,,,,,,,,,,,,,,,,
,,666d97ca3efe7fbd33436995,2026-03-17_10h23.06.413,kallum_motion_pilot_GIST_update_2,2026.1.1,Win32,60.24096386,666d97ca3efe7fbd33436995,69b92ab4aef6dee357cd729a,69b92b4ddac2237340c374be,0.0215,0.0215,0,20,20,27,1,twofour,,,,,,,,,,,,,,,,,,,,,,,,,,,,,,,,,,,,,,,,,,,,,,,,,,,,,,,,,,,,,,,,,,,,,,,,,,,,,,,,,,,,,,,,,,,,,,,,,,,,,,,,,,,,,,,,,,,,,,,,,,,,,,,,,,,,,,,,,
,,666d97ca3efe7fbd33436995,2026-03-17_10h23.06.413,kallum_motion_pilot_GIST_update_2,2026.1.1,Win32,60.24096386,666d97ca3efe7fbd33436995,69b92ab4aef6dee357cd729a,69b92b4ddac2237340c374be,0.0216,0.0216,0,21,21,143,1,eightseven,,,,,,,,,,,,,,,,,,,,,,,,,,,,,,,,,,,,,,,,,,,,,,,,,,,,,,,,,,,,,,,,,,,,,,,,,,,,,,,,,,,,,,,,,,,,,,,,,,,,,,,,,,,,,,,,,,,,,,,,,,,,,,,,,,,,,,,,,
,,666d97ca3efe7fbd33436995,2026-03-17_10h23.06.413,kallum_motion_pilot_GIST_update_2,2026.1.1,Win32,60.24096386,666d97ca3efe7fbd33436995,69b92ab4aef6dee357cd729a,69b92b4ddac2237340c374be,0.0217,0.0217,0,22,22,71,1,fourthree,,,,,,,,,,,,,,,,,,,,,,,,,,,,,,,,,,,,,,,,,,,,,,,,,,,,,,,,,,,,,,,,,,,,,,,,,,,,,,,,,,,,,,,,,,,,,,,,,,,,,,,,,,,,,,,,,,,,,,,,,,,,,,,,,,,,,,,,,
,,666d97ca3efe7fbd33436995,2026-03-17_10h23.06.413,kallum_motion_pilot_GIST_update_2,2026.1.1,Win32,60.24096386,666d97ca3efe7fbd33436995,69b92ab4aef6dee357cd729a,69b92b4ddac2237340c374be,0.0217,0.0217,0,23,23,151,1,eightseven,,,,,,,,,,,,,,,,,,,,,,,,,,,,,,,,,,,,,,,,,,,,,,,,,,,,,,,,,,,,,,,,,,,,,,,,,,,,,,,,,,,,,,,,,,,,,,,,,,,,,,,,,,,,,,,,,,,,,,,,,,,,,,,,,,,,,,,,,
,,666d97ca3efe7fbd33436995,2026-03-17_10h23.06.413,kallum_motion_pilot_GIST_update_2,2026.1.1,Win32,60.24096386,666d97ca3efe7fbd33436995,69b92ab4aef6dee357cd729a,69b92b4ddac2237340c374be,0.0218,0.0218,0,24,24,0,1,onetwo,,,,,,,,,,,,,,,,,,,,,,,,,,,,,,,,,,,,,,,,,,,,,,,,,,,,,,,,,,,,,,,,,,,,,,,,,,,,,,,,,,,,,,,,,,,,,,,,,,,,,,,,,,,,,,,,,,,,,,,,,,,,,,,,,,,,,,,,,
,,666d97ca3efe7fbd33436995,2026-03-17_10h23.06.413,kallum_motion_pilot_GIST_update_2,2026.1.1,Win32,60.24096386,666d97ca3efe7fbd33436995,69b92ab4aef6dee357cd729a,69b92b4ddac2237340c374be,0.022,0.022,0,25,25,131,1,sixeight,,,,,,,,,,,,,,,,,,,,,,,,,,,,,,,,,,,,,,,,,,,,,,,,,,,,,,,,,,,,,,,,,,,,,,,,,,,,,,,,,,,,,,,,,,,,,,,,,,,,,,,,,,,,,,,,,,,,,,,,,,,,,,,,,,,,,,,,,
,,666d97ca3efe7fbd33436995,2026-03-17_10h23.06.413,kallum_motion_pilot_GIST_update_2,2026.1.1,Win32,60.24096386,666d97ca3efe7fbd33436995,69b92ab4aef6dee357cd729a,69b92b4ddac2237340c374be,0.022,0.022,0,26,26,146,1,sixfive,,,,,,,,,,,,,,,,,,,,,,,,,,,,,,,,,,,,,,,,,,,,,,,,,,,,,,,,,,,,,,,,,,,,,,,,,,,,,,,,,,,,,,,,,,,,,,,,,,,,,,,,,,,,,,,,,,,,,,,,,,,,,,,,,,,,,,,,,
,,666d97ca3efe7fbd33436995,2026-03-17_10h23.06.413,kallum_motion_pilot_GIST_update_2,2026.1.1,Win32,60.24096386,666d97ca3efe7fbd33436995,69b92ab4aef6dee357cd729a,69b92b4ddac2237340c374be,0.0221,0.0221,0,27,27,116,1,sevenfive,,,,,,,,,,,,,,,,,,,,,,,,,,,,,,,,,,,,,,,,,,,,,,,,,,,,,,,,,,,,,,,,,,,,,,,,,,,,,,,,,,,,,,,,,,,,,,,,,,,,,,,,,,,,,,,,,,,,,,,,,,,,,,,,,,,,,,,,,
,,666d97ca3efe7fbd33436995,2026-03-17_10h23.06.413,kallum_motion_pilot_GIST_update_2,2026.1.1,Win32,60.24096386,666d97ca3efe7fbd33436995,69b92ab4aef6dee357cd729a,69b92b4ddac2237340c374be,0.0221,0.0221,0,28,28,93,1,seveneight,,,,,,,,,,,,,,,,,,,,,,,,,,,,,,,,,,,,,,,,,,,,,,,,,,,,,,,,,,,,,,,,,,,,,,,,,,,,,,,,,,,,,,,,,,,,,,,,,,,,,,,,,,,,,,,,,,,,,,,,,,,,,,,,,,,,,,,,,
,,666d97ca3efe7fbd33436995,2026-03-17_10h23.06.413,kallum_motion_pilot_GIST_update_2,2026.1.1,Win32,60.24096386,666d97ca3efe7fbd33436995,69b92ab4aef6dee357cd729a,69b92b4ddac2237340c374be,0.0222,0.0222,0,29,29,54,1,fourtwo,,,,,,,,,,,,,,,,,,,,,,,,,,,,,,,,,,,,,,,,,,,,,,,,,,,,,,,,,,,,,,,,,,,,,,,,,,,,,,,,,,,,,,,,,,,,,,,,,,,,,,,,,,,,,,,,,,,,,,,,,,,,,,,,,,,,,,,,,
,,666d97ca3efe7fbd33436995,2026-03-17_10h23.06.413,kallum_motion_pilot_GIST_update_2,2026.1.1,Win32,60.24096386,666d97ca3efe7fbd33436995,69b92ab4aef6dee357cd729a,69b92b4ddac2237340c374be,0.0222,0.0222,0,30,30,61,1,threefour,,,,,,,,,,,,,,,,,,,,,,,,,,,,,,,,,,,,,,,,,,,,,,,,,,,,,,,,,,,,,,,,,,,,,,,,,,,,,,,,,,,,,,,,,,,,,,,,,,,,,,,,,,,,,,,,,,,,,,,,,,,,,,,,,,,,,,,,,
,,666d97ca3efe7fbd33436995,2026-03-17_10h23.06.413,kallum_motion_pilot_GIST_update_2,2026.1.1,Win32,60.24096386,666d97ca3efe7fbd33436995,69b92ab4aef6dee357cd729a,69b92b4ddac2237340c374be,0.0223,0.0223,0,31,31,25,1,onethree,,,,,,,,,,,,,,,,,,,,,,,,,,,,,,,,,,,,,,,,,,,,,,,,,,,,,,,,,,,,,,,,,,,,,,,,,,,,,,,,,,,,,,,,,,,,,,,,,,,,,,,,,,,,,,,,,,,,,,,,,,,,,,,,,,,,,,,,,
,,666d97ca3efe7fbd33436995,2026-03-17_10h23.06.413,kallum_motion_pilot_GIST_update_2,2026.1.1,Win32,60.24096386,666d97ca3efe7fbd33436995,69b92ab4aef6dee357cd729a,69b92b4ddac2237340c374be,0.0223,0.0223,0,32,32,125,1,seveneight,,,,,,,,,,,,,,,,,,,,,,,,,,,,,,,,,,,,,,,,,,,,,,,,,,,,,,,,,,,,,,,,,,,,,,,,,,,,,,,,,,,,,,,,,,,,,,,,,,,,,,,,,,,,,,,,,,,,,,,,,,,,,,,,,,,,,,,,,
,,666d97ca3efe7fbd33436995,2026-03-17_10h23.06.413,kallum_motion_pilot_GIST_update_2,2026.1.1,Win32,60.24096386,666d97ca3efe7fbd33436995,69b92ab4aef6dee357cd729a,69b92b4ddac2237340c374be,0.0224,0.0224,0,33,33,112,1,fivesix,,,,,,,,,,,,,,,,,,,,,,,,,,,,,,,,,,,,,,,,,,,,,,,,,,,,,,,,,,,,,,,,,,,,,,,,,,,,,,,,,,,,,,,,,,,,,,,,,,,,,,,,,,,,,,,,,,,,,,,,,,,,,,,,,,,,,,,,,
,,666d97ca3efe7fbd33436995,2026-03-17_10h23.06.413,kallum_motion_pilot_GIST_update_2,2026.1.1,Win32,60.24096386,666d97ca3efe7fbd33436995,69b92ab4aef6dee357cd729a,69b92b4ddac2237340c374be,0.0225,0.0225,0,34,34,90,1,sixfive,,,,,,,,,,,,,,,,,,,,,,,,,,,,,,,,,,,,,,,,,,,,,,,,,,,,,,,,,,,,,,,,,,,,,,,,,,,,,,,,,,,,,,,,,,,,,,,,,,,,,,,,,,,,,,,,,,,,,,,,,,,,,,,,,,,,,,,,,
,,666d97ca3efe7fbd33436995,2026-03-17_10h23.06.413,kallum_motion_pilot_GIST_update_2,2026.1.1,Win32,60.24096386,666d97ca3efe7fbd33436995,69b92ab4aef6dee357cd729a,69b92b4ddac2237340c374be,0.0226,0.0226,0,35,35,138,1,sixfive,,,,,,,,,,,,,,,,,,,,,,,,,,,,,,,,,,,,,,,,,,,,,,,,,,,,,,,,,,,,,,,,,,,,,,,,,,,,,,,,,,,,,,,,,,,,,,,,,,,,,,,,,,,,,,,,,,,,,,,,,,,,,,,,,,,,,,,,,
,,666d97ca3efe7fbd33436995,2026-03-17_10h23.06.413,kallum_motion_pilot_GIST_update_2,2026.1.1,Win32,60.24096386,666d97ca3efe7fbd33436995,69b92ab4aef6dee357cd729a,69b92b4ddac2237340c374be,0.0227,0.0227,0,36,36,75,1,twofour,,,,,,,,,,,,,,,,,,,,,,,,,,,,,,,,,,,,,,,,,,,,,,,,,,,,,,,,,,,,,,,,,,,,,,,,,,,,,,,,,,,,,,,,,,,,,,,,,,,,,,,,,,,,,,,,,,,,,,,,,,,,,,,,,,,,,,,,,
,,666d97ca3efe7fbd33436995,2026-03-17_10h23.06.413,kallum_motion_pilot_GIST_update_2,2026.1.1,Win32,60.24096386,666d97ca3efe7fbd33436995,69b92ab4aef6dee357cd729a,69b92b4ddac2237340c374be,0.0227,0.0227,0,37,37,2,1,twoone,,,,,,,,,,,,,,,,,,,,,,,,,,,,,,,,,,,,,,,,,,,,,,,,,,,,,,,,,,,,,,,,,,,,,,,,,,,,,,,,,,,,,,,,,,,,,,,,,,,,,,,,,,,,,,,,,,,,,,,,,,,,,,,,,,,,,,,,,
,,666d97ca3efe7fbd33436995,2026-03-17_10h23.06.413,kallum_motion_pilot_GIST_update_2,2026.1.1,Win32,60.24096386,666d97ca3efe7fbd33436995,69b92ab4aef6dee357cd729a,69b92b4ddac2237340c374be,0.0227,0.0227,0,38,38,22,1,fourtwo,,,,,,,,,,,,,,,,,,,,,,,,,,,,,,,,,,,,,,,,,,,,,,,,,,,,,,,,,,,,,,,,,,,,,,,,,,,,,,,,,,,,,,,,,,,,,,,,,,,,,,,,,,,,,,,,,,,,,,,,,,,,,,,,,,,,,,,,,
,,666d97ca3efe7fbd33436995,2026-03-17_10h23.06.413,kallum_motion_pilot_GIST_update_2,2026.1.1,Win32,60.24096386,666d97ca3efe7fbd33436995,69b92ab4aef6dee357cd729a,69b92b4ddac2237340c374be,0.0229,0.0229,0,39,39,47,1,fourthree,,,,,,,,,,,,,,,,,,,,,,,,,,,,,,,,,,,,,,,,,,,,,,,,,,,,,,,,,,,,,,,,,,,,,,,,,,,,,,,,,,,,,,,,,,,,,,,,,,,,,,,,,,,,,,,,,,,,,,,,,,,,,,,,,,,,,,,,,
,,666d97ca3efe7fbd33436995,2026-03-17_10h23.06.413,kallum_motion_pilot_GIST_update_2,2026.1.1,Win32,60.24096386,666d97ca3efe7fbd33436995,69b92ab4aef6dee357cd729a,69b92b4ddac2237340c374be,0.0231,0.0231,0,40,40,9,1,onethree,,,,,,,,,,,,,,,,,,,,,,,,,,,,,,,,,,,,,,,,,,,,,,,,,,,,,,,,,,,,,,,,,,,,,,,,,,,,,,,,,,,,,,,,,,,,,,,,,,,,,,,,,,,,,,,,,,,,,,,,,,,,,,,,,,,,,,,,,
,,666d97ca3efe7fbd33436995,2026-03-17_10h23.06.413,kallum_motion_pilot_GIST_update_2,2026.1.1,Win32,60.24096386,666d97ca3efe7fbd33436995,69b92ab4aef6dee357cd729a,69b92b4ddac2237340c374be,0.0233,0.0233,0,41,41,144,1,fivesix,,,,,,,,,,,,,,,,,,,,,,,,,,,,,,,,,,,,,,,,,,,,,,,,,,,,,,,,,,,,,,,,,,,,,,,,,,,,,,,,,,,,,,,,,,,,,,,,,,,,,,,,,,,,,,,,,,,,,,,,,,,,,,,,,,,,,,,,,
,,666d97ca3efe7fbd33436995,2026-03-17_10h23.06.413,kallum_motion_pilot_GIST_update_2,2026.1.1,Win32,60.24096386,666d97ca3efe7fbd33436995,69b92ab4aef6dee357cd729a,69b92b4ddac2237340c374be,0.0234,0.0234,0,42,42,73,1,onethree,,,,,,,,,,,,,,,,,,,,,,,,,,,,,,,,,,,,,,,,,,,,,,,,,,,,,,,,,,,,,,,,,,,,,,,,,,,,,,,,,,,,,,,,,,,,,,,,,,,,,,,,,,,,,,,,,,,,,,,,,,,,,,,,,,,,,,,,,
,,666d97ca3efe7fbd33436995,2026-03-17_10h23.06.413,kallum_motion_pilot_GIST_update_2,2026.1.1,Win32,60.24096386,666d97ca3efe7fbd33436995,69b92ab4aef6dee357cd729a,69b92b4ddac2237340c374be,0.0235,0.0235,0,43,43,129,1,fiveseven,,,,,,,,,,,,,,,,,,,,,,,,,,,,,,,,,,,,,,,,,,,,,,,,,,,,,,,,,,,,,,,,,,,,,,,,,,,,,,,,,,,,,,,,,,,,,,,,,,,,,,,,,,,,,,,,,,,,,,,,,,,,,,,,,,,,,,,,,
,,666d97ca3efe7fbd33436995,2026-03-17_10h23.06.413,kallum_motion_pilot_GIST_update_2,2026.1.1,Win32,60.24096386,666d97ca3efe7fbd33436995,69b92ab4aef6dee357cd729a,69b92b4ddac2237340c374be,0.0236,0.0237,0,44,44,38,1,fourtwo,,,,,,,,,,,,,,,,,,,,,,,,,,,,,,,,,,,,,,,,,,,,,,,,,,,,,,,,,,,,,,,,,,,,,,,,,,,,,,,,,,,,,,,,,,,,,,,,,,,,,,,,,,,,,,,,,,,,,,,,,,,,,,,,,,,,,,,,,
,,666d97ca3efe7fbd33436995,2026-03-17_10h23.06.413,kallum_motion_pilot_GIST_update_2,2026.1.1,Win32,60.24096386,666d97ca3efe7fbd33436995,69b92ab4aef6dee357cd729a,69b92b4ddac2237340c374be,0.0237,0.0237,0,45,45,53,1,threefour,,,,,,,,,,,,,,,,,,,,,,,,,,,,,,,,,,,,,,,,,,,,,,,,,,,,,,,,,,,,,,,,,,,,,,,,,,,,,,,,,,,,,,,,,,,,,,,,,,,,,,,,,,,,,,,,,,,,,,,,,,,,,,,,,,,,,,,,,
,,666d97ca3efe7fbd33436995,2026-03-17_10h23.06.413,kallum_motion_pilot_GIST_update_2,2026.1.1,Win32,60.24096386,666d97ca3efe7fbd33436995,69b92ab4aef6dee357cd729a,69b92b4ddac2237340c374be,0.0237,0.0237,0,46,46,118,1,eightsix,,,,,,,,,,,,,,,,,,,,,,,,,,,,,,,,,,,,,,,,,,,,,,,,,,,,,,,,,,,,,,,,,,,,,,,,,,,,,,,,,,,,,,,,,,,,,,,,,,,,,,,,,,,,,,,,,,,,,,,,,,,,,,,,,,,,,,,,,
,,666d97ca3efe7fbd33436995,2026-03-17_10h23.06.413,kallum_motion_pilot_GIST_update_2,2026.1.1,Win32,60.24096386,666d97ca3efe7fbd33436995,69b92ab4aef6dee357cd729a,69b92b4ddac2237340c374be,0.0239,0.0239,0,47,47,58,1,twoone,,,,,,,,,,,,,,,,,,,,,,,,,,,,,,,,,,,,,,,,,,,,,,,,,,,,,,,,,,,,,,,,,,,,,,,,,,,,,,,,,,,,,,,,,,,,,,,,,,,,,,,,,,,,,,,,,,,,,,,,,,,,,,,,,,,,,,,,,
,,666d97ca3efe7fbd33436995,2026-03-17_10h23.06.413,kallum_motion_pilot_GIST_update_2,2026.1.1,Win32,60.24096386,666d97ca3efe7fbd33436995,69b92ab4aef6dee357cd729a,69b92b4ddac2237340c374be,0.0239,0.0239,0,48,48,28,1,threeone,,,,,,,,,,,,,,,,,,,,,,,,,,,,,,,,,,,,,,,,,,,,,,,,,,,,,,,,,,,,,,,,,,,,,,,,,,,,,,,,,,,,,,,,,,,,,,,,,,,,,,,,,,,,,,,,,,,,,,,,,,,,,,,,,,,,,,,,,
,,666d97ca3efe7fbd33436995,2026-03-17_10h23.06.413,kallum_motion_pilot_GIST_update_2,2026.1.1,Win32,60.24096386,666d97ca3efe7fbd33436995,69b92ab4aef6dee357cd729a,69b92b4ddac2237340c374be,0.0239,0.024,0,49,49,32,1,onetwo,,,,,,,,,,,,,,,,,,,,,,,,,,,,,,,,,,,,,,,,,,,,,,,,,,,,,,,,,,,,,,,,,,,,,,,,,,,,,,,,,,,,,,,,,,,,,,,,,,,,,,,,,,,,,,,,,,,,,,,,,,,,,,,,,,,,,,,,,
,,666d97ca3efe7fbd33436995,2026-03-17_10h23.06.413,kallum_motion_pilot_GIST_update_2,2026.1.1,Win32,60.24096386,666d97ca3efe7fbd33436995,69b92ab4aef6dee357cd729a,69b92b4ddac2237340c374be,0.024,0.024,0,50,50,101,1,seveneight,,,,,,,,,,,,,,,,,,,,,,,,,,,,,,,,,,,,,,,,,,,,,,,,,,,,,,,,,,,,,,,,,,,,,,,,,,,,,,,,,,,,,,,,,,,,,,,,,,,,,,,,,,,,,,,,,,,,,,,,,,,,,,,,,,,,,,,,,
,,666d97ca3efe7fbd33436995,2026-03-17_10h23.06.413,kallum_motion_pilot_GIST_update_2,2026.1.1,Win32,60.24096386,666d97ca3efe7fbd33436995,69b92ab4aef6dee357cd729a,69b92b4ddac2237340c374be,0.0241,0.0241,0,51,51,11,1,twofour,,,,,,,,,,,,,,,,,,,,,,,,,,,,,,,,,,,,,,,,,,,,,,,,,,,,,,,,,,,,,,,,,,,,,,,,,,,,,,,,,,,,,,,,,,,,,,,,,,,,,,,,,,,,,,,,,,,,,,,,,,,,,,,,,,,,,,,,,
,,666d97ca3efe7fbd33436995,2026-03-17_10h23.06.413,kallum_motion_pilot_GIST_update_2,2026.1.1,Win32,60.24096386,666d97ca3efe7fbd33436995,69b92ab4aef6dee357cd729a,69b92b4ddac2237340c374be,0.0241,0.0241,0,52,52,81,1,fiveseven,,,,,,,,,,,,,,,,,,,,,,,,,,,,,,,,,,,,,,,,,,,,,,,,,,,,,,,,,,,,,,,,,,,,,,,,,,,,,,,,,,,,,,,,,,,,,,,,,,,,,,,,,,,,,,,,,,,,,,,,,,,,,,,,,,,,,,,,,
,,666d97ca3efe7fbd33436995,2026-03-17_10h23.06.413,kallum_motion_pilot_GIST_update_2,2026.1.1,Win32,60.24096386,666d97ca3efe7fbd33436995,69b92ab4aef6dee357cd729a,69b92b4ddac2237340c374be,0.0242,0.0242,0,53,53,55,1,fourthree,,,,,,,,,,,,,,,,,,,,,,,,,,,,,,,,,,,,,,,,,,,,,,,,,,,,,,,,,,,,,,,,,,,,,,,,,,,,,,,,,,,,,,,,,,,,,,,,,,,,,,,,,,,,,,,,,,,,,,,,,,,,,,,,,,,,,,,,,
,,666d97ca3efe7fbd33436995,2026-03-17_10h23.06.413,kallum_motion_pilot_GIST_update_2,2026.1.1,Win32,60.24096386,666d97ca3efe7fbd33436995,69b92ab4aef6dee357cd729a,69b92b4ddac2237340c374be,0.0243,0.0243,0,54,54,84,1,sevenfive,,,,,,,,,,,,,,,,,,,,,,,,,,,,,,,,,,,,,,,,,,,,,,,,,,,,,,,,,,,,,,,,,,,,,,,,,,,,,,,,,,,,,,,,,,,,,,,,,,,,,,,,,,,,,,,,,,,,,,,,,,,,,,,,,,,,,,,,,
,,666d97ca3efe7fbd33436995,2026-03-17_10h23.06.413,kallum_motion_pilot_GIST_update_2,2026.1.1,Win32,60.24096386,666d97ca3efe7fbd33436995,69b92ab4aef6dee357cd729a,69b92b4ddac2237340c374be,0.0243,0.0243,0,55,55,5,1,threefour,,,,,,,,,,,,,,,,,,,,,,,,,,,,,,,,,,,,,,,,,,,,,,,,,,,,,,,,,,,,,,,,,,,,,,,,,,,,,,,,,,,,,,,,,,,,,,,,,,,,,,,,,,,,,,,,,,,,,,,,,,,,,,,,,,,,,,,,,
,,666d97ca3efe7fbd33436995,2026-03-17_10h23.06.413,kallum_motion_pilot_GIST_update_2,2026.1.1,Win32,60.24096386,666d97ca3efe7fbd33436995,69b92ab4aef6dee357cd729a,69b92b4ddac2237340c374be,0.0244,0.0244,0,56,56,157,1,seveneight,,,,,,,,,,,,,,,,,,,,,,,,,,,,,,,,,,,,,,,,,,,,,,,,,,,,,,,,,,,,,,,,,,,,,,,,,,,,,,,,,,,,,,,,,,,,,,,,,,,,,,,,,,,,,,,,,,,,,,,,,,,,,,,,,,,,,,,,,
,,666d97ca3efe7fbd33436995,2026-03-17_10h23.06.413,kallum_motion_pilot_GIST_update_2,2026.1.1,Win32,60.24096386,666d97ca3efe7fbd33436995,69b92ab4aef6dee357cd729a,69b92b4ddac2237340c374be,0.0245,0.0245,0,57,57,111,1,eightseven,,,,,,,,,,,,,,,,,,,,,,,,,,,,,,,,,,,,,,,,,,,,,,,,,,,,,,,,,,,,,,,,,,,,,,,,,,,,,,,,,,,,,,,,,,,,,,,,,,,,,,,,,,,,,,,,,,,,,,,,,,,,,,,,,,,,,,,,,
,,666d97ca3efe7fbd33436995,2026-03-17_10h23.06.413,kallum_motion_pilot_GIST_update_2,2026.1.1,Win32,60.24096386,666d97ca3efe7fbd33436995,69b92ab4aef6dee357cd729a,69b92b4ddac2237340c374be,0.0246,0.0246,0,58,58,147,1,sixeight,,,,,,,,,,,,,,,,,,,,,,,,,,,,,,,,,,,,,,,,,,,,,,,,,,,,,,,,,,,,,,,,,,,,,,,,,,,,,,,,,,,,,,,,,,,,,,,,,,,,,,,,,,,,,,,,,,,,,,,,,,,,,,,,,,,,,,,,,
,,666d97ca3efe7fbd33436995,2026-03-17_10h23.06.413,kallum_motion_pilot_GIST_update_2,2026.1.1,Win32,60.24096386,666d97ca3efe7fbd33436995,69b92ab4aef6dee357cd729a,69b92b4ddac2237340c374be,0.0246,0.0246,0,59,59,119,1,eightseven,,,,,,,,,,,,,,,,,,,,,,,,,,,,,,,,,,,,,,,,,,,,,,,,,,,,,,,,,,,,,,,,,,,,,,,,,,,,,,,,,,,,,,,,,,,,,,,,,,,,,,,,,,,,,,,,,,,,,,,,,,,,,,,,,,,,,,,,,
,,666d97ca3efe7fbd33436995,2026-03-17_10h23.06.413,kallum_motion_pilot_GIST_update_2,2026.1.1,Win32,60.24096386,666d97ca3efe7fbd33436995,69b92ab4aef6dee357cd729a,69b92b4ddac2237340c374be,0.0247,0.0247,0,60,60,139,1,sixeight,,,,,,,,,,,,,,,,,,,,,,,,,,,,,,,,,,,,,,,,,,,,,,,,,,,,,,,,,,,,,,,,,,,,,,,,,,,,,,,,,,,,,,,,,,,,,,,,,,,,,,,,,,,,,,,,,,,,,,,,,,,,,,,,,,,,,,,,,
,,666d97ca3efe7fbd33436995,2026-03-17_10h23.06.413,kallum_motion_pilot_GIST_update_2,2026.1.1,Win32,60.24096386,666d97ca3efe7fbd33436995,69b92ab4aef6dee357cd729a,69b92b4ddac2237340c374be,0.0248,0.0248,0,61,61,120,1,fivesix,,,,,,,,,,,,,,,,,,,,,,,,,,,,,,,,,,,,,,,,,,,,,,,,,,,,,,,,,,,,,,,,,,,,,,,,,,,,,,,,,,,,,,,,,,,,,,,,,,,,,,,,,,,,,,,,,,,,,,,,,,,,,,,,,,,,,,,,,
,,666d97ca3efe7fbd33436995,2026-03-17_10h23.06.413,kallum_motion_pilot_GIST_update_2,2026.1.1,Win32,60.24096386,666d97ca3efe7fbd33436995,69b92ab4aef6dee357cd729a,69b92b4ddac2237340c374be,0.0248,0.0248,0,62,62,44,1,threeone,,,,,,,,,,,,,,,,,,,,,,,,,,,,,,,,,,,,,,,,,,,,,,,,,,,,,,,,,,,,,,,,,,,,,,,,,,,,,,,,,,,,,,,,,,,,,,,,,,,,,,,,,,,,,,,,,,,,,,,,,,,,,,,,,,,,,,,,,
,,666d97ca3efe7fbd33436995,2026-03-17_10h23.06.413,kallum_motion_pilot_GIST_update_2,2026.1.1,Win32,60.24096386,666d97ca3efe7fbd33436995,69b92ab4aef6dee357cd729a,69b92b4ddac2237340c374be,0.0249,0.0249,0,63,63,34,1,twoone,,,,,,,,,,,,,,,,,,,,,,,,,,,,,,,,,,,,,,,,,,,,,,,,,,,,,,,,,,,,,,,,,,,,,,,,,,,,,,,,,,,,,,,,,,,,,,,,,,,,,,,,,,,,,,,,,,,,,,,,,,,,,,,,,,,,,,,,,
,,666d97ca3efe7fbd33436995,2026-03-17_10h23.06.413,kallum_motion_pilot_GIST_update_2,2026.1.1,Win32,60.24096386,666d97ca3efe7fbd33436995,69b92ab4aef6dee357cd729a,69b92b4ddac2237340c374be,0.025,0.025,0,64,64,117,1,seveneight,,,,,,,,,,,,,,,,,,,,,,,,,,,,,,,,,,,,,,,,,,,,,,,,,,,,,,,,,,,,,,,,,,,,,,,,,,,,,,,,,,,,,,,,,,,,,,,,,,,,,,,,,,,,,,,,,,,,,,,,,,,,,,,,,,,,,,,,,
,,666d97ca3efe7fbd33436995,2026-03-17_10h23.06.413,kallum_motion_pilot_GIST_update_2,2026.1.1,Win32,60.24096386,666d97ca3efe7fbd33436995,69b92ab4aef6dee357cd729a,69b92b4ddac2237340c374be,0.0253,0.0253,0,65,65,76,1,threeone,,,,,,,,,,,,,,,,,,,,,,,,,,,,,,,,,,,,,,,,,,,,,,,,,,,,,,,,,,,,,,,,,,,,,,,,,,,,,,,,,,,,,,,,,,,,,,,,,,,,,,,,,,,,,,,,,,,,,,,,,,,,,,,,,,,,,,,,,
,,666d97ca3efe7fbd33436995,2026-03-17_10h23.06.413,kallum_motion_pilot_GIST_update_2,2026.1.1,Win32,60.24096386,666d97ca3efe7fbd33436995,69b92ab4aef6dee357cd729a,69b92b4ddac2237340c374be,0.0255,0.0255,0,66,66,160,1,fivesix,,,,,,,,,,,,,,,,,,,,,,,,,,,,,,,,,,,,,,,,,,,,,,,,,,,,,,,,,,,,,,,,,,,,,,,,,,,,,,,,,,,,,,,,,,,,,,,,,,,,,,,,,,,,,,,,,,,,,,,,,,,,,,,,,,,,,,,,,
,,666d97ca3efe7fbd33436995,2026-03-17_10h23.06.413,kallum_motion_pilot_GIST_update_2,2026.1.1,Win32,60.24096386,666d97ca3efe7fbd33436995,69b92ab4aef6dee357cd729a,69b92b4ddac2237340c374be,0.0256,0.0256,0,67,67,99,1,sixeight,,,,,,,,,,,,,,,,,,,,,,,,,,,,,,,,,,,,,,,,,,,,,,,,,,,,,,,,,,,,,,,,,,,,,,,,,,,,,,,,,,,,,,,,,,,,,,,,,,,,,,,,,,,,,,,,,,,,,,,,,,,,,,,,,,,,,,,,,
,,666d97ca3efe7fbd33436995,2026-03-17_10h23.06.413,kallum_motion_pilot_GIST_update_2,2026.1.1,Win32,60.24096386,666d97ca3efe7fbd33436995,69b92ab4aef6dee357cd729a,69b92b4ddac2237340c374be,0.0259,0.0259,0,68,68,85,1,seveneight,,,,,,,,,,,,,,,,,,,,,,,,,,,,,,,,,,,,,,,,,,,,,,,,,,,,,,,,,,,,,,,,,,,,,,,,,,,,,,,,,,,,,,,,,,,,,,,,,,,,,,,,,,,,,,,,,,,,,,,,,,,,,,,,,,,,,,,,,
,,666d97ca3efe7fbd33436995,2026-03-17_10h23.06.413,kallum_motion_pilot_GIST_update_2,2026.1.1,Win32,60.24096386,666d97ca3efe7fbd33436995,69b92ab4aef6dee357cd729a,69b92b4ddac2237340c374be,0.026,0.026,0,69,69,94,1,eightsix,,,,,,,,,,,,,,,,,,,,,,,,,,,,,,,,,,,,,,,,,,,,,,,,,,,,,,,,,,,,,,,,,,,,,,,,,,,,,,,,,,,,,,,,,,,,,,,,,,,,,,,,,,,,,,,,,,,,,,,,,,,,,,,,,,,,,,,,,
,,666d97ca3efe7fbd33436995,2026-03-17_10h23.06.413,kallum_motion_pilot_GIST_update_2,2026.1.1,Win32,60.24096386,666d97ca3efe7fbd33436995,69b92ab4aef6dee357cd729a,69b92b4ddac2237340c374be,0.0262,0.0262,0,70,70,29,1,threefour,,,,,,,,,,,,,,,,,,,,,,,,,,,,,,,,,,,,,,,,,,,,,,,,,,,,,,,,,,,,,,,,,,,,,,,,,,,,,,,,,,,,,,,,,,,,,,,,,,,,,,,,,,,,,,,,,,,,,,,,,,,,,,,,,,,,,,,,,
,,666d97ca3efe7fbd33436995,2026-03-17_10h23.06.413,kallum_motion_pilot_GIST_update_2,2026.1.1,Win32,60.24096386,666d97ca3efe7fbd33436995,69b92ab4aef6dee357cd729a,69b92b4ddac2237340c374be,0.0263,0.0263,0,71,71,23,1,fourthree,,,,,,,,,,,,,,,,,,,,,,,,,,,,,,,,,,,,,,,,,,,,,,,,,,,,,,,,,,,,,,,,,,,,,,,,,,,,,,,,,,,,,,,,,,,,,,,,,,,,,,,,,,,,,,,,,,,,,,,,,,,,,,,,,,,,,,,,,
,,666d97ca3efe7fbd33436995,2026-03-17_10h23.06.413,kallum_motion_pilot_GIST_update_2,2026.1.1,Win32,60.24096386,666d97ca3efe7fbd33436995,69b92ab4aef6dee357cd729a,69b92b4ddac2237340c374be,0.0264,0.0264,0,72,72,20,1,threeone,,,,,,,,,,,,,,,,,,,,,,,,,,,,,,,,,,,,,,,,,,,,,,,,,,,,,,,,,,,,,,,,,,,,,,,,,,,,,,,,,,,,,,,,,,,,,,,,,,,,,,,,,,,,,,,,,,,,,,,,,,,,,,,,,,,,,,,,,
,,666d97ca3efe7fbd33436995,2026-03-17_10h23.06.413,kallum_motion_pilot_GIST_update_2,2026.1.1,Win32,60.24096386,666d97ca3efe7fbd33436995,69b92ab4aef6dee357cd729a,69b92b4ddac2237340c374be,0.0266,0.0266,0,73,73,159,1,eightseven,,,,,,,,,,,,,,,,,,,,,,,,,,,,,,,,,,,,,,,,,,,,,,,,,,,,,,,,,,,,,,,,,,,,,,,,,,,,,,,,,,,,,,,,,,,,,,,,,,,,,,,,,,,,,,,,,,,,,,,,,,,,,,,,,,,,,,,,,
,,666d97ca3efe7fbd33436995,2026-03-17_10h23.06.413,kallum_motion_pilot_GIST_update_2,2026.1.1,Win32,60.24096386,666d97ca3efe7fbd33436995,69b92ab4aef6dee357cd729a,69b92b4ddac2237340c374be,0.0268,0.0268,0,74,74,33,1,onethree,,,,,,,,,,,,,,,,,,,,,,,,,,,,,,,,,,,,,,,,,,,,,,,,,,,,,,,,,,,,,,,,,,,,,,,,,,,,,,,,,,,,,,,,,,,,,,,,,,,,,,,,,,,,,,,,,,,,,,,,,,,,,,,,,,,,,,,,,
,,666d97ca3efe7fbd33436995,2026-03-17_10h23.06.413,kallum_motion_pilot_GIST_update_2,2026.1.1,Win32,60.24096386,666d97ca3efe7fbd33436995,69b92ab4aef6dee357cd729a,69b92b4ddac2237340c374be,0.0269,0.0269,0,75,75,106,1,sixfive,,,,,,,,,,,,,,,,,,,,,,,,,,,,,,,,,,,,,,,,,,,,,,,,,,,,,,,,,,,,,,,,,,,,,,,,,,,,,,,,,,,,,,,,,,,,,,,,,,,,,,,,,,,,,,,,,,,,,,,,,,,,,,,,,,,,,,,,,
,,666d97ca3efe7fbd33436995,2026-03-17_10h23.06.413,kallum_motion_pilot_GIST_update_2,2026.1.1,Win32,60.24096386,666d97ca3efe7fbd33436995,69b92ab4aef6dee357cd729a,69b92b4ddac2237340c374be,0.027,0.027,0,76,76,155,1,sixeight,,,,,,,,,,,,,,,,,,,,,,,,,,,,,,,,,,,,,,,,,,,,,,,,,,,,,,,,,,,,,,,,,,,,,,,,,,,,,,,,,,,,,,,,,,,,,,,,,,,,,,,,,,,,,,,,,,,,,,,,,,,,,,,,,,,,,,,,,
,,666d97ca3efe7fbd33436995,2026-03-17_10h23.06.413,kallum_motion_pilot_GIST_update_2,2026.1.1,Win32,60.24096386,666d97ca3efe7fbd33436995,69b92ab4aef6dee357cd729a,69b92b4ddac2237340c374be,0.0271,0.0271,0,77,77,6,1,fourtwo,,,,,,,,,,,,,,,,,,,,,,,,,,,,,,,,,,,,,,,,,,,,,,,,,,,,,,,,,,,,,,,,,,,,,,,,,,,,,,,,,,,,,,,,,,,,,,,,,,,,,,,,,,,,,,,,,,,,,,,,,,,,,,,,,,,,,,,,,
,,666d97ca3efe7fbd33436995,2026-03-17_10h23.06.413,kallum_motion_pilot_GIST_update_2,2026.1.1,Win32,60.24096386,666d97ca3efe7fbd33436995,69b92ab4aef6dee357cd729a,69b92b4ddac2237340c374be,0.0273,0.0273,0,78,78,149,1,seveneight,,,,,,,,,,,,,,,,,,,,,,,,,,,,,,,,,,,,,,,,,,,,,,,,,,,,,,,,,,,,,,,,,,,,,,,,,,,,,,,,,,,,,,,,,,,,,,,,,,,,,,,,,,,,,,,,,,,,,,,,,,,,,,,,,,,,,,,,,
,,666d97ca3efe7fbd33436995,2026-03-17_10h23.06.413,kallum_motion_pilot_GIST_update_2,2026.1.1,Win32,60.24096386,666d97ca3efe7fbd33436995,69b92ab4aef6dee357cd729a,69b92b4ddac2237340c374be,0.0274,0.0275,0,79,79,98,1,sixfive,,,,,,,,,,,,,,,,,,,,,,,,,,,,,,,,,,,,,,,,,,,,,,,,,,,,,,,,,,,,,,,,,,,,,,,,,,,,,,,,,,,,,,,,,,,,,,,,,,,,,,,,,,,,,,,,,,,,,,,,,,,,,,,,,,,,,,,,,
,,666d97ca3efe7fbd33436995,2026-03-17_10h23.06.413,kallum_motion_pilot_GIST_update_2,2026.1.1,Win32,60.24096386,666d97ca3efe7fbd33436995,69b92ab4aef6dee357cd729a,69b92b4ddac2237340c374be,0.0275,0.0275,0,80,80,46,1,fourtwo,,,,,,,,,,,,,,,,,,,,,,,,,,,,,,,,,,,,,,,,,,,,,,,,,,,,,,,,,,,,,,,,,,,,,,,,,,,,,,,,,,,,,,,,,,,,,,,,,,,,,,,,,,,,,,,,,,,,,,,,,,,,,,,,,,,,,,,,,
,,666d97ca3efe7fbd33436995,2026-03-17_10h23.06.413,kallum_motion_pilot_GIST_update_2,2026.1.1,Win32,60.24096386,666d97ca3efe7fbd33436995,69b92ab4aef6dee357cd729a,69b92b4ddac2237340c374be,0.0277,0.0277,0,81,81,100,1,sevenfive,,,,,,,,,,,,,,,,,,,,,,,,,,,,,,,,,,,,,,,,,,,,,,,,,,,,,,,,,,,,,,,,,,,,,,,,,,,,,,,,,,,,,,,,,,,,,,,,,,,,,,,,,,,,,,,,,,,,,,,,,,,,,,,,,,,,,,,,,
,,666d97ca3efe7fbd33436995,2026-03-17_10h23.06.413,kallum_motion_pilot_GIST_update_2,2026.1.1,Win32,60.24096386,666d97ca3efe7fbd33436995,69b92ab4aef6dee357cd729a,69b92b4ddac2237340c374be,0.0278,0.0278,0,82,82,52,1,threeone,,,,,,,,,,,,,,,,,,,,,,,,,,,,,,,,,,,,,,,,,,,,,,,,,,,,,,,,,,,,,,,,,,,,,,,,,,,,,,,,,,,,,,,,,,,,,,,,,,,,,,,,,,,,,,,,,,,,,,,,,,,,,,,,,,,,,,,,,
,,666d97ca3efe7fbd33436995,2026-03-17_10h23.06.413,kallum_motion_pilot_GIST_update_2,2026.1.1,Win32,60.24096386,666d97ca3efe7fbd33436995,69b92ab4aef6dee357cd729a,69b92b4ddac2237340c374be,0.0278,0.0278,0,83,83,137,1,fiveseven,,,,,,,,,,,,,,,,,,,,,,,,,,,,,,,,,,,,,,,,,,,,,,,,,,,,,,,,,,,,,,,,,,,,,,,,,,,,,,,,,,,,,,,,,,,,,,,,,,,,,,,,,,,,,,,,,,,,,,,,,,,,,,,,,,,,,,,,,
,,666d97ca3efe7fbd33436995,2026-03-17_10h23.06.413,kallum_motion_pilot_GIST_update_2,2026.1.1,Win32,60.24096386,666d97ca3efe7fbd33436995,69b92ab4aef6dee357cd729a,69b92b4ddac2237340c374be,0.0279,0.0279,0,84,84,13,1,threefour,,,,,,,,,,,,,,,,,,,,,,,,,,,,,,,,,,,,,,,,,,,,,,,,,,,,,,,,,,,,,,,,,,,,,,,,,,,,,,,,,,,,,,,,,,,,,,,,,,,,,,,,,,,,,,,,,,,,,,,,,,,,,,,,,,,,,,,,,
,,666d97ca3efe7fbd33436995,2026-03-17_10h23.06.413,kallum_motion_pilot_GIST_update_2,2026.1.1,Win32,60.24096386,666d97ca3efe7fbd33436995,69b92ab4aef6dee357cd729a,69b92b4ddac2237340c374be,0.028,0.028,0,85,85,49,1,onethree,,,,,,,,,,,,,,,,,,,,,,,,,,,,,,,,,,,,,,,,,,,,,,,,,,,,,,,,,,,,,,,,,,,,,,,,,,,,,,,,,,,,,,,,,,,,,,,,,,,,,,,,,,,,,,,,,,,,,,,,,,,,,,,,,,,,,,,,,
,,666d97ca3efe7fbd33436995,2026-03-17_10h23.06.413,kallum_motion_pilot_GIST_update_2,2026.1.1,Win32,60.24096386,666d97ca3efe7fbd33436995,69b92ab4aef6dee357cd729a,69b92b4ddac2237340c374be,0.0281,0.0281,0,86,86,4,1,threeone,,,,,,,,,,,,,,,,,,,,,,,,,,,,,,,,,,,,,,,,,,,,,,,,,,,,,,,,,,,,,,,,,,,,,,,,,,,,,,,,,,,,,,,,,,,,,,,,,,,,,,,,,,,,,,,,,,,,,,,,,,,,,,,,,,,,,,,,,
,,666d97ca3efe7fbd33436995,2026-03-17_10h23.06.413,kallum_motion_pilot_GIST_update_2,2026.1.1,Win32,60.24096386,666d97ca3efe7fbd33436995,69b92ab4aef6dee357cd729a,69b92b4ddac2237340c374be,0.0282,0.0282,0,87,87,42,1,twoone,,,,,,,,,,,,,,,,,,,,,,,,,,,,,,,,,,,,,,,,,,,,,,,,,,,,,,,,,,,,,,,,,,,,,,,,,,,,,,,,,,,,,,,,,,,,,,,,,,,,,,,,,,,,,,,,,,,,,,,,,,,,,,,,,,,,,,,,,
,,666d97ca3efe7fbd33436995,2026-03-17_10h23.06.413,kallum_motion_pilot_GIST_update_2,2026.1.1,Win32,60.24096386,666d97ca3efe7fbd33436995,69b92ab4aef6dee357cd729a,69b92b4ddac2237340c374be,0.0283,0.0283,0,88,88,80,1,fivesix,,,,,,,,,,,,,,,,,,,,,,,,,,,,,,,,,,,,,,,,,,,,,,,,,,,,,,,,,,,,,,,,,,,,,,,,,,,,,,,,,,,,,,,,,,,,,,,,,,,,,,,,,,,,,,,,,,,,,,,,,,,,,,,,,,,,,,,,,
,,666d97ca3efe7fbd33436995,2026-03-17_10h23.06.413,kallum_motion_pilot_GIST_update_2,2026.1.1,Win32,60.24096386,666d97ca3efe7fbd33436995,69b92ab4aef6dee357cd729a,69b92b4ddac2237340c374be,0.0284,0.0284,0,89,89,35,1,twofour,,,,,,,,,,,,,,,,,,,,,,,,,,,,,,,,,,,,,,,,,,,,,,,,,,,,,,,,,,,,,,,,,,,,,,,,,,,,,,,,,,,,,,,,,,,,,,,,,,,,,,,,,,,,,,,,,,,,,,,,,,,,,,,,,,,,,,,,,
,,666d97ca3efe7fbd33436995,2026-03-17_10h23.06.413,kallum_motion_pilot_GIST_update_2,2026.1.1,Win32,60.24096386,666d97ca3efe7fbd33436995,69b92ab4aef6dee357cd729a,69b92b4ddac2237340c374be,0.0284,0.0284,0,90,90,48,1,onetwo,,,,,,,,,,,,,,,,,,,,,,,,,,,,,,,,,,,,,,,,,,,,,,,,,,,,,,,,,,,,,,,,,,,,,,,,,,,,,,,,,,,,,,,,,,,,,,,,,,,,,,,,,,,,,,,,,,,,,,,,,,,,,,,,,,,,,,,,,
,,666d97ca3efe7fbd33436995,2026-03-17_10h23.06.413,kallum_motion_pilot_GIST_update_2,2026.1.1,Win32,60.24096386,666d97ca3efe7fbd33436995,69b92ab4aef6dee357cd729a,69b92b4ddac2237340c374be,0.0285,0.0285,0,91,91,128,1,fivesix,,,,,,,,,,,,,,,,,,,,,,,,,,,,,,,,,,,,,,,,,,,,,,,,,,,,,,,,,,,,,,,,,,,,,,,,,,,,,,,,,,,,,,,,,,,,,,,,,,,,,,,,,,,,,,,,,,,,,,,,,,,,,,,,,,,,,,,,,
,,666d97ca3efe7fbd33436995,2026-03-17_10h23.06.413,kallum_motion_pilot_GIST_update_2,2026.1.1,Win32,60.24096386,666d97ca3efe7fbd33436995,69b92ab4aef6dee357cd729a,69b92b4ddac2237340c374be,0.0286,0.0287,0,92,92,148,1,sevenfive,,,,,,,,,,,,,,,,,,,,,,,,,,,,,,,,,,,,,,,,,,,,,,,,,,,,,,,,,,,,,,,,,,,,,,,,,,,,,,,,,,,,,,,,,,,,,,,,,,,,,,,,,,,,,,,,,,,,,,,,,,,,,,,,,,,,,,,,,
,,666d97ca3efe7fbd33436995,2026-03-17_10h23.06.413,kallum_motion_pilot_GIST_update_2,2026.1.1,Win32,60.24096386,666d97ca3efe7fbd33436995,69b92ab4aef6dee357cd729a,69b92b4ddac2237340c374be,0.0287,0.0287,0,93,93,142,1,eightsix,,,,,,,,,,,,,,,,,,,,,,,,,,,,,,,,,,,,,,,,,,,,,,,,,,,,,,,,,,,,,,,,,,,,,,,,,,,,,,,,,,,,,,,,,,,,,,,,,,,,,,,,,,,,,,,,,,,,,,,,,,,,,,,,,,,,,,,,,
,,666d97ca3efe7fbd33436995,2026-03-17_10h23.06.413,kallum_motion_pilot_GIST_update_2,2026.1.1,Win32,60.24096386,666d97ca3efe7fbd33436995,69b92ab4aef6dee357cd729a,69b92b4ddac2237340c374be,0.0288,0.0288,0,94,94,150,1,eightsix,,,,,,,,,,,,,,,,,,,,,,,,,,,,,,,,,,,,,,,,,,,,,,,,,,,,,,,,,,,,,,,,,,,,,,,,,,,,,,,,,,,,,,,,,,,,,,,,,,,,,,,,,,,,,,,,,,,,,,,,,,,,,,,,,,,,,,,,,
,,666d97ca3efe7fbd33436995,2026-03-17_10h23.06.413,kallum_motion_pilot_GIST_update_2,2026.1.1,Win32,60.24096386,666d97ca3efe7fbd33436995,69b92ab4aef6dee357cd729a,69b92b4ddac2237340c374be,0.0289,0.0289,0,95,95,37,1,threefour,,,,,,,,,,,,,,,,,,,,,,,,,,,,,,,,,,,,,,,,,,,,,,,,,,,,,,,,,,,,,,,,,,,,,,,,,,,,,,,,,,,,,,,,,,,,,,,,,,,,,,,,,,,,,,,,,,,,,,,,,,,,,,,,,,,,,,,,,
,,666d97ca3efe7fbd33436995,2026-03-17_10h23.06.413,kallum_motion_pilot_GIST_update_2,2026.1.1,Win32,60.24096386,666d97ca3efe7fbd33436995,69b92ab4aef6dee357cd729a,69b92b4ddac2237340c374be,0.0291,0.0291,0,96,96,107,1,sixeight,,,,,,,,,,,,,,,,,,,,,,,,,,,,,,,,,,,,,,,,,,,,,,,,,,,,,,,,,,,,,,,,,,,,,,,,,,,,,,,,,,,,,,,,,,,,,,,,,,,,,,,,,,,,,,,,,,,,,,,,,,,,,,,,,,,,,,,,,
,,666d97ca3efe7fbd33436995,2026-03-17_10h23.06.413,kallum_motion_pilot_GIST_update_2,2026.1.1,Win32,60.24096386,666d97ca3efe7fbd33436995,69b92ab4aef6dee357cd729a,69b92b4ddac2237340c374be,0.0291,0.0291,0,97,97,123,1,sixeight,,,,,,,,,,,,,,,,,,,,,,,,,,,,,,,,,,,,,,,,,,,,,,,,,,,,,,,,,,,,,,,,,,,,,,,,,,,,,,,,,,,,,,,,,,,,,,,,,,,,,,,,,,,,,,,,,,,,,,,,,,,,,,,,,,,,,,,,,
,,666d97ca3efe7fbd33436995,2026-03-17_10h23.06.413,kallum_motion_pilot_GIST_update_2,2026.1.1,Win32,60.24096386,666d97ca3efe7fbd33436995,69b92ab4aef6dee357cd729a,69b92b4ddac2237340c374be,0.0292,0.0292,0,98,98,88,1,fivesix,,,,,,,,,,,,,,,,,,,,,,,,,,,,,,,,,,,,,,,,,,,,,,,,,,,,,,,,,,,,,,,,,,,,,,,,,,,,,,,,,,,,,,,,,,,,,,,,,,,,,,,,,,,,,,,,,,,,,,,,,,,,,,,,,,,,,,,,,
,,666d97ca3efe7fbd33436995,2026-03-17_10h23.06.413,kallum_motion_pilot_GIST_update_2,2026.1.1,Win32,60.24096386,666d97ca3efe7fbd33436995,69b92ab4aef6dee357cd729a,69b92b4ddac2237340c374be,0.0293,0.0293,0,99,99,59,1,twofour,,,,,,,,,,,,,,,,,,,,,,,,,,,,,,,,,,,,,,,,,,,,,,,,,,,,,,,,,,,,,,,,,,,,,,,,,,,,,,,,,,,,,,,,,,,,,,,,,,,,,,,,,,,,,,,,,,,,,,,,,,,,,,,,,,,,,,,,,
,,666d97ca3efe7fbd33436995,2026-03-17_10h23.06.413,kallum_motion_pilot_GIST_update_2,2026.1.1,Win32,60.24096386,666d97ca3efe7fbd33436995,69b92ab4aef6dee357cd729a,69b92b4ddac2237340c374be,0.0293,0.0293,0,100,100,115,1,sixeight,,,,,,,,,,,,,,,,,,,,,,,,,,,,,,,,,,,,,,,,,,,,,,,,,,,,,,,,,,,,,,,,,,,,,,,,,,,,,,,,,,,,,,,,,,,,,,,,,,,,,,,,,,,,,,,,,,,,,,,,,,,,,,,,,,,,,,,,,
,,666d97ca3efe7fbd33436995,2026-03-17_10h23.06.413,kallum_motion_pilot_GIST_update_2,2026.1.1,Win32,60.24096386,666d97ca3efe7fbd33436995,69b92ab4aef6dee357cd729a,69b92b4ddac2237340c374be,0.0295,0.0295,0,101,101,158,1,eightsix,,,,,,,,,,,,,,,,,,,,,,,,,,,,,,,,,,,,,,,,,,,,,,,,,,,,,,,,,,,,,,,,,,,,,,,,,,,,,,,,,,,,,,,,,,,,,,,,,,,,,,,,,,,,,,,,,,,,,,,,,,,,,,,,,,,,,,,,,
,,666d97ca3efe7fbd33436995,2026-03-17_10h23.06.413,kallum_motion_pilot_GIST_update_2,2026.1.1,Win32,60.24096386,666d97ca3efe7fbd33436995,69b92ab4aef6dee357cd729a,69b92b4ddac2237340c374be,0.0296,0.0296,0,102,102,17,1,onethree,,,,,,,,,,,,,,,,,,,,,,,,,,,,,,,,,,,,,,,,,,,,,,,,,,,,,,,,,,,,,,,,,,,,,,,,,,,,,,,,,,,,,,,,,,,,,,,,,,,,,,,,,,,,,,,,,,,,,,,,,,,,,,,,,,,,,,,,,
,,666d97ca3efe7fbd33436995,2026-03-17_10h23.06.413,kallum_motion_pilot_GIST_update_2,2026.1.1,Win32,60.24096386,666d97ca3efe7fbd33436995,69b92ab4aef6dee357cd729a,69b92b4ddac2237340c374be,0.0296,0.0296,0,103,103,19,1,twofour,,,,,,,,,,,,,,,,,,,,,,,,,,,,,,,,,,,,,,,,,,,,,,,,,,,,,,,,,,,,,,,,,,,,,,,,,,,,,,,,,,,,,,,,,,,,,,,,,,,,,,,,,,,,,,,,,,,,,,,,,,,,,,,,,,,,,,,,,
,,666d97ca3efe7fbd33436995,2026-03-17_10h23.06.413,kallum_motion_pilot_GIST_update_2,2026.1.1,Win32,60.24096386,666d97ca3efe7fbd33436995,69b92ab4aef6dee357cd729a,69b92b4ddac2237340c374be,0.0298,0.0298,0,104,104,97,1,fiveseven,,,,,,,,,,,,,,,,,,,,,,,,,,,,,,,,,,,,,,,,,,,,,,,,,,,,,,,,,,,,,,,,,,,,,,,,,,,,,,,,,,,,,,,,,,,,,,,,,,,,,,,,,,,,,,,,,,,,,,,,,,,,,,,,,,,,,,,,,
,,666d97ca3efe7fbd33436995,2026-03-17_10h23.06.413,kallum_motion_pilot_GIST_update_2,2026.1.1,Win32,60.24096386,666d97ca3efe7fbd33436995,69b92ab4aef6dee357cd729a,69b92b4ddac2237340c374be,0.0298,0.0298,0,105,105,36,1,threeone,,,,,,,,,,,,,,,,,,,,,,,,,,,,,,,,,,,,,,,,,,,,,,,,,,,,,,,,,,,,,,,,,,,,,,,,,,,,,,,,,,,,,,,,,,,,,,,,,,,,,,,,,,,,,,,,,,,,,,,,,,,,,,,,,,,,,,,,,
,,666d97ca3efe7fbd33436995,2026-03-17_10h23.06.413,kallum_motion_pilot_GIST_update_2,2026.1.1,Win32,60.24096386,666d97ca3efe7fbd33436995,69b92ab4aef6dee357cd729a,69b92b4ddac2237340c374be,0.0299,0.0299,0,106,106,56,1,onetwo,,,,,,,,,,,,,,,,,,,,,,,,,,,,,,,,,,,,,,,,,,,,,,,,,,,,,,,,,,,,,,,,,,,,,,,,,,,,,,,,,,,,,,,,,,,,,,,,,,,,,,,,,,,,,,,,,,,,,,,,,,,,,,,,,,,,,,,,,
,,666d97ca3efe7fbd33436995,2026-03-17_10h23.06.413,kallum_motion_pilot_GIST_update_2,2026.1.1,Win32,60.24096386,666d97ca3efe7fbd33436995,69b92ab4aef6dee357cd729a,69b92b4ddac2237340c374be,0.03,0.03,0,107,107,127,1,eightseven,,,,,,,,,,,,,,,,,,,,,,,,,,,,,,,,,,,,,,,,,,,,,,,,,,,,,,,,,,,,,,,,,,,,,,,,,,,,,,,,,,,,,,,,,,,,,,,,,,,,,,,,,,,,,,,,,,,,,,,,,,,,,,,,,,,,,,,,,
,,666d97ca3efe7fbd33436995,2026-03-17_10h23.06.413,kallum_motion_pilot_GIST_update_2,2026.1.1,Win32,60.24096386,666d97ca3efe7fbd33436995,69b92ab4aef6dee357cd729a,69b92b4ddac2237340c374be,0.0301,0.0301,0,108,108,21,1,threefour,,,,,,,,,,,,,,,,,,,,,,,,,,,,,,,,,,,,,,,,,,,,,,,,,,,,,,,,,,,,,,,,,,,,,,,,,,,,,,,,,,,,,,,,,,,,,,,,,,,,,,,,,,,,,,,,,,,,,,,,,,,,,,,,,,,,,,,,,
,,666d97ca3efe7fbd33436995,2026-03-17_10h23.06.413,kallum_motion_pilot_GIST_update_2,2026.1.1,Win32,60.24096386,666d97ca3efe7fbd33436995,69b92ab4aef6dee357cd729a,69b92b4ddac2237340c374be,0.0302,0.0302,0,109,109,140,1,sevenfive,,,,,,,,,,,,,,,,,,,,,,,,,,,,,,,,,,,,,,,,,,,,,,,,,,,,,,,,,,,,,,,,,,,,,,,,,,,,,,,,,,,,,,,,,,,,,,,,,,,,,,,,,,,,,,,,,,,,,,,,,,,,,,,,,,,,,,,,,
,,666d97ca3efe7fbd33436995,2026-03-17_10h23.06.413,kallum_motion_pilot_GIST_update_2,2026.1.1,Win32,60.24096386,666d97ca3efe7fbd33436995,69b92ab4aef6dee357cd729a,69b92b4ddac2237340c374be,0.0303,0.0303,0,110,110,10,1,twoone,,,,,,,,,,,,,,,,,,,,,,,,,,,,,,,,,,,,,,,,,,,,,,,,,,,,,,,,,,,,,,,,,,,,,,,,,,,,,,,,,,,,,,,,,,,,,,,,,,,,,,,,,,,,,,,,,,,,,,,,,,,,,,,,,,,,,,,,,
,,666d97ca3efe7fbd33436995,2026-03-17_10h23.06.413,kallum_motion_pilot_GIST_update_2,2026.1.1,Win32,60.24096386,666d97ca3efe7fbd33436995,69b92ab4aef6dee357cd729a,69b92b4ddac2237340c374be,0.0304,0.0304,0,111,111,15,1,fourthree,,,,,,,,,,,,,,,,,,,,,,,,,,,,,,,,,,,,,,,,,,,,,,,,,,,,,,,,,,,,,,,,,,,,,,,,,,,,,,,,,,,,,,,,,,,,,,,,,,,,,,,,,,,,,,,,,,,,,,,,,,,,,,,,,,,,,,,,,
,,666d97ca3efe7fbd33436995,2026-03-17_10h23.06.413,kallum_motion_pilot_GIST_update_2,2026.1.1,Win32,60.24096386,666d97ca3efe7fbd33436995,69b92ab4aef6dee357cd729a,69b92b4ddac2237340c374be,0.0305,0.0305,0,112,112,7,1,fourthree,,,,,,,,,,,,,,,,,,,,,,,,,,,,,,,,,,,,,,,,,,,,,,,,,,,,,,,,,,,,,,,,,,,,,,,,,,,,,,,,,,,,,,,,,,,,,,,,,,,,,,,,,,,,,,,,,,,,,,,,,,,,,,,,,,,,,,,,,
,,666d97ca3efe7fbd33436995,2026-03-17_10h23.06.413,kallum_motion_pilot_GIST_update_2,2026.1.1,Win32,60.24096386,666d97ca3efe7fbd33436995,69b92ab4aef6dee357cd729a,69b92b4ddac2237340c374be,0.0306,0.0306,0,113,113,14,1,fourtwo,,,,,,,,,,,,,,,,,,,,,,,,,,,,,,,,,,,,,,,,,,,,,,,,,,,,,,,,,,,,,,,,,,,,,,,,,,,,,,,,,,,,,,,,,,,,,,,,,,,,,,,,,,,,,,,,,,,,,,,,,,,,,,,,,,,,,,,,,
,,666d97ca3efe7fbd33436995,2026-03-17_10h23.06.413,kallum_motion_pilot_GIST_update_2,2026.1.1,Win32,60.24096386,666d97ca3efe7fbd33436995,69b92ab4aef6dee357cd729a,69b92b4ddac2237340c374be,0.0307,0.0307,0,114,114,51,1,twofour,,,,,,,,,,,,,,,,,,,,,,,,,,,,,,,,,,,,,,,,,,,,,,,,,,,,,,,,,,,,,,,,,,,,,,,,,,,,,,,,,,,,,,,,,,,,,,,,,,,,,,,,,,,,,,,,,,,,,,,,,,,,,,,,,,,,,,,,,
,,666d97ca3efe7fbd33436995,2026-03-17_10h23.06.413,kallum_motion_pilot_GIST_update_2,2026.1.1,Win32,60.24096386,666d97ca3efe7fbd33436995,69b92ab4aef6dee357cd729a,69b92b4ddac2237340c374be,0.0307,0.0307,0,115,115,30,1,fourtwo,,,,,,,,,,,,,,,,,,,,,,,,,,,,,,,,,,,,,,,,,,,,,,,,,,,,,,,,,,,,,,,,,,,,,,,,,,,,,,,,,,,,,,,,,,,,,,,,,,,,,,,,,,,,,,,,,,,,,,,,,,,,,,,,,,,,,,,,,
,,666d97ca3efe7fbd33436995,2026-03-17_10h23.06.413,kallum_motion_pilot_GIST_update_2,2026.1.1,Win32,60.24096386,666d97ca3efe7fbd33436995,69b92ab4aef6dee357cd729a,69b92b4ddac2237340c374be,0.0309,0.0309,0,116,116,57,1,onethree,,,,,,,,,,,,,,,,,,,,,,,,,,,,,,,,,,,,,,,,,,,,,,,,,,,,,,,,,,,,,,,,,,,,,,,,,,,,,,,,,,,,,,,,,,,,,,,,,,,,,,,,,,,,,,,,,,,,,,,,,,,,,,,,,,,,,,,,,
,,666d97ca3efe7fbd33436995,2026-03-17_10h23.06.413,kallum_motion_pilot_GIST_update_2,2026.1.1,Win32,60.24096386,666d97ca3efe7fbd33436995,69b92ab4aef6dee357cd729a,69b92b4ddac2237340c374be,0.031,0.031,0,117,117,95,1,eightseven,,,,,,,,,,,,,,,,,,,,,,,,,,,,,,,,,,,,,,,,,,,,,,,,,,,,,,,,,,,,,,,,,,,,,,,,,,,,,,,,,,,,,,,,,,,,,,,,,,,,,,,,,,,,,,,,,,,,,,,,,,,,,,,,,,,,,,,,,
,,666d97ca3efe7fbd33436995,2026-03-17_10h23.06.413,kallum_motion_pilot_GIST_update_2,2026.1.1,Win32,60.24096386,666d97ca3efe7fbd33436995,69b92ab4aef6dee357cd729a,69b92b4ddac2237340c374be,0.0312,0.0312,0,118,118,82,1,sixfive,,,,,,,,,,,,,,,,,,,,,,,,,,,,,,,,,,,,,,,,,,,,,,,,,,,,,,,,,,,,,,,,,,,,,,,,,,,,,,,,,,,,,,,,,,,,,,,,,,,,,,,,,,,,,,,,,,,,,,,,,,,,,,,,,,,,,,,,,
,,666d97ca3efe7fbd33436995,2026-03-17_10h23.06.413,kallum_motion_pilot_GIST_update_2,2026.1.1,Win32,60.24096386,666d97ca3efe7fbd33436995,69b92ab4aef6dee357cd729a,69b92b4ddac2237340c374be,0.0312,0.0312,0,119,119,110,1,eightsix,,,,,,,,,,,,,,,,,,,,,,,,,,,,,,,,,,,,,,,,,,,,,,,,,,,,,,,,,,,,,,,,,,,,,,,,,,,,,,,,,,,,,,,,,,,,,,,,,,,,,,,,,,,,,,,,,,,,,,,,,,,,,,,,,,,,,,,,,
,,666d97ca3efe7fbd33436995,2026-03-17_10h23.06.413,kallum_motion_pilot_GIST_update_2,2026.1.1,Win32,60.24096386,666d97ca3efe7fbd33436995,69b92ab4aef6dee357cd729a,69b92b4ddac2237340c374be,0.0313,0.0313,0,120,120,18,1,twoone,,,,,,,,,,,,,,,,,,,,,,,,,,,,,,,,,,,,,,,,,,,,,,,,,,,,,,,,,,,,,,,,,,,,,,,,,,,,,,,,,,,,,,,,,,,,,,,,,,,,,,,,,,,,,,,,,,,,,,,,,,,,,,,,,,,,,,,,,
,,666d97ca3efe7fbd33436995,2026-03-17_10h23.06.413,kallum_motion_pilot_GIST_update_2,2026.1.1,Win32,60.24096386,666d97ca3efe7fbd33436995,69b92ab4aef6dee357cd729a,69b92b4ddac2237340c374be,0.0315,0.0315,0,121,121,156,1,sevenfive,,,,,,,,,,,,,,,,,,,,,,,,,,,,,,,,,,,,,,,,,,,,,,,,,,,,,,,,,,,,,,,,,,,,,,,,,,,,,,,,,,,,,,,,,,,,,,,,,,,,,,,,,,,,,,,,,,,,,,,,,,,,,,,,,,,,,,,,,
,,666d97ca3efe7fbd33436995,2026-03-17_10h23.06.413,kallum_motion_pilot_GIST_update_2,2026.1.1,Win32,60.24096386,666d97ca3efe7fbd33436995,69b92ab4aef6dee357cd729a,69b92b4ddac2237340c374be,0.0316,0.0316,0,122,122,86,1,eightsix,,,,,,,,,,,,,,,,,,,,,,,,,,,,,,,,,,,,,,,,,,,,,,,,,,,,,,,,,,,,,,,,,,,,,,,,,,,,,,,,,,,,,,,,,,,,,,,,,,,,,,,,,,,,,,,,,,,,,,,,,,,,,,,,,,,,,,,,,
,,666d97ca3efe7fbd33436995,2026-03-17_10h23.06.413,kallum_motion_pilot_GIST_update_2,2026.1.1,Win32,60.24096386,666d97ca3efe7fbd33436995,69b92ab4aef6dee357cd729a,69b92b4ddac2237340c374be,0.0316,0.0316,0,123,123,114,1,sixfive,,,,,,,,,,,,,,,,,,,,,,,,,,,,,,,,,,,,,,,,,,,,,,,,,,,,,,,,,,,,,,,,,,,,,,,,,,,,,,,,,,,,,,,,,,,,,,,,,,,,,,,,,,,,,,,,,,,,,,,,,,,,,,,,,,,,,,,,,
,,666d97ca3efe7fbd33436995,2026-03-17_10h23.06.413,kallum_motion_pilot_GIST_update_2,2026.1.1,Win32,60.24096386,666d97ca3efe7fbd33436995,69b92ab4aef6dee357cd729a,69b92b4ddac2237340c374be,0.0317,0.0317,0,124,124,3,1,twofour,,,,,,,,,,,,,,,,,,,,,,,,,,,,,,,,,,,,,,,,,,,,,,,,,,,,,,,,,,,,,,,,,,,,,,,,,,,,,,,,,,,,,,,,,,,,,,,,,,,,,,,,,,,,,,,,,,,,,,,,,,,,,,,,,,,,,,,,,
,,666d97ca3efe7fbd33436995,2026-03-17_10h23.06.413,kallum_motion_pilot_GIST_update_2,2026.1.1,Win32,60.24096386,666d97ca3efe7fbd33436995,69b92ab4aef6dee357cd729a,69b92b4ddac2237340c374be,0.0318,0.0318,0,125,125,26,1,twoone,,,,,,,,,,,,,,,,,,,,,,,,,,,,,,,,,,,,,,,,,,,,,,,,,,,,,,,,,,,,,,,,,,,,,,,,,,,,,,,,,,,,,,,,,,,,,,,,,,,,,,,,,,,,,,,,,,,,,,,,,,,,,,,,,,,,,,,,,
,,666d97ca3efe7fbd33436995,2026-03-17_10h23.06.413,kallum_motion_pilot_GIST_update_2,2026.1.1,Win32,60.24096386,666d97ca3efe7fbd33436995,69b92ab4aef6dee357cd729a,69b92b4ddac2237340c374be,0.032,0.032,0,126,126,68,1,threeone,,,,,,,,,,,,,,,,,,,,,,,,,,,,,,,,,,,,,,,,,,,,,,,,,,,,,,,,,,,,,,,,,,,,,,,,,,,,,,,,,,,,,,,,,,,,,,,,,,,,,,,,,,,,,,,,,,,,,,,,,,,,,,,,,,,,,,,,,
,,666d97ca3efe7fbd33436995,2026-03-17_10h23.06.413,kallum_motion_pilot_GIST_update_2,2026.1.1,Win32,60.24096386,666d97ca3efe7fbd33436995,69b92ab4aef6dee357cd729a,69b92b4ddac2237340c374be,0.0321,0.0321,0,127,127,89,1,fiveseven,,,,,,,,,,,,,,,,,,,,,,,,,,,,,,,,,,,,,,,,,,,,,,,,,,,,,,,,,,,,,,,,,,,,,,,,,,,,,,,,,,,,,,,,,,,,,,,,,,,,,,,,,,,,,,,,,,,,,,,,,,,,,,,,,,,,,,,,,
,,666d97ca3efe7fbd33436995,2026-03-17_10h23.06.413,kallum_motion_pilot_GIST_update_2,2026.1.1,Win32,60.24096386,666d97ca3efe7fbd33436995,69b92ab4aef6dee357cd729a,69b92b4ddac2237340c374be,0.0322,0.0322,0,128,128,60,1,threeone,,,,,,,,,,,,,,,,,,,,,,,,,,,,,,,,,,,,,,,,,,,,,,,,,,,,,,,,,,,,,,,,,,,,,,,,,,,,,,,,,,,,,,,,,,,,,,,,,,,,,,,,,,,,,,,,,,,,,,,,,,,,,,,,,,,,,,,,,
,,666d97ca3efe7fbd33436995,2026-03-17_10h23.06.413,kallum_motion_pilot_GIST_update_2,2026.1.1,Win32,60.24096386,666d97ca3efe7fbd33436995,69b92ab4aef6dee357cd729a,69b92b4ddac2237340c374be,0.0324,0.0324,0,129,129,43,1,twofour,,,,,,,,,,,,,,,,,,,,,,,,,,,,,,,,,,,,,,,,,,,,,,,,,,,,,,,,,,,,,,,,,,,,,,,,,,,,,,,,,,,,,,,,,,,,,,,,,,,,,,,,,,,,,,,,,,,,,,,,,,,,,,,,,,,,,,,,,
,,666d97ca3efe7fbd33436995,2026-03-17_10h23.06.413,kallum_motion_pilot_GIST_update_2,2026.1.1,Win32,60.24096386,666d97ca3efe7fbd33436995,69b92ab4aef6dee357cd729a,69b92b4ddac2237340c374be,0.0324,0.0324,0,130,130,104,1,fivesix,,,,,,,,,,,,,,,,,,,,,,,,,,,,,,,,,,,,,,,,,,,,,,,,,,,,,,,,,,,,,,,,,,,,,,,,,,,,,,,,,,,,,,,,,,,,,,,,,,,,,,,,,,,,,,,,,,,,,,,,,,,,,,,,,,,,,,,,,
,,666d97ca3efe7fbd33436995,2026-03-17_10h23.06.413,kallum_motion_pilot_GIST_update_2,2026.1.1,Win32,60.24096386,666d97ca3efe7fbd33436995,69b92ab4aef6dee357cd729a,69b92b4ddac2237340c374be,0.0325,0.0325,0,131,131,105,1,fiveseven,,,,,,,,,,,,,,,,,,,,,,,,,,,,,,,,,,,,,,,,,,,,,,,,,,,,,,,,,,,,,,,,,,,,,,,,,,,,,,,,,,,,,,,,,,,,,,,,,,,,,,,,,,,,,,,,,,,,,,,,,,,,,,,,,,,,,,,,,
,,666d97ca3efe7fbd33436995,2026-03-17_10h23.06.413,kallum_motion_pilot_GIST_update_2,2026.1.1,Win32,60.24096386,666d97ca3efe7fbd33436995,69b92ab4aef6dee357cd729a,69b92b4ddac2237340c374be,0.0326,0.0326,0,132,132,67,1,twofour,,,,,,,,,,,,,,,,,,,,,,,,,,,,,,,,,,,,,,,,,,,,,,,,,,,,,,,,,,,,,,,,,,,,,,,,,,,,,,,,,,,,,,,,,,,,,,,,,,,,,,,,,,,,,,,,,,,,,,,,,,,,,,,,,,,,,,,,,
,,666d97ca3efe7fbd33436995,2026-03-17_10h23.06.413,kallum_motion_pilot_GIST_update_2,2026.1.1,Win32,60.24096386,666d97ca3efe7fbd33436995,69b92ab4aef6dee357cd729a,69b92b4ddac2237340c374be,0.0327,0.0327,0,133,133,126,1,eightsix,,,,,,,,,,,,,,,,,,,,,,,,,,,,,,,,,,,,,,,,,,,,,,,,,,,,,,,,,,,,,,,,,,,,,,,,,,,,,,,,,,,,,,,,,,,,,,,,,,,,,,,,,,,,,,,,,,,,,,,,,,,,,,,,,,,,,,,,,
,,666d97ca3efe7fbd33436995,2026-03-17_10h23.06.413,kallum_motion_pilot_GIST_update_2,2026.1.1,Win32,60.24096386,666d97ca3efe7fbd33436995,69b92ab4aef6dee357cd729a,69b92b4ddac2237340c374be,0.0328,0.0328,0,134,134,77,1,threefour,,,,,,,,,,,,,,,,,,,,,,,,,,,,,,,,,,,,,,,,,,,,,,,,,,,,,,,,,,,,,,,,,,,,,,,,,,,,,,,,,,,,,,,,,,,,,,,,,,,,,,,,,,,,,,,,,,,,,,,,,,,,,,,,,,,,,,,,,
,,666d97ca3efe7fbd33436995,2026-03-17_10h23.06.413,kallum_motion_pilot_GIST_update_2,2026.1.1,Win32,60.24096386,666d97ca3efe7fbd33436995,69b92ab4aef6dee357cd729a,69b92b4ddac2237340c374be,0.0329,0.0329,0,135,135,133,1,seveneight,,,,,,,,,,,,,,,,,,,,,,,,,,,,,,,,,,,,,,,,,,,,,,,,,,,,,,,,,,,,,,,,,,,,,,,,,,,,,,,,,,,,,,,,,,,,,,,,,,,,,,,,,,,,,,,,,,,,,,,,,,,,,,,,,,,,,,,,,
,,666d97ca3efe7fbd33436995,2026-03-17_10h23.06.413,kallum_motion_pilot_GIST_update_2,2026.1.1,Win32,60.24096386,666d97ca3efe7fbd33436995,69b92ab4aef6dee357cd729a,69b92b4ddac2237340c374be,0.033,0.033,0,136,136,74,1,twoone,,,,,,,,,,,,,,,,,,,,,,,,,,,,,,,,,,,,,,,,,,,,,,,,,,,,,,,,,,,,,,,,,,,,,,,,,,,,,,,,,,,,,,,,,,,,,,,,,,,,,,,,,,,,,,,,,,,,,,,,,,,,,,,,,,,,,,,,,
,,666d97ca3efe7fbd33436995,2026-03-17_10h23.06.413,kallum_motion_pilot_GIST_update_2,2026.1.1,Win32,60.24096386,666d97ca3efe7fbd33436995,69b92ab4aef6dee357cd729a,69b92b4ddac2237340c374be,0.0331,0.0331,0,137,137,83,1,sixeight,,,,,,,,,,,,,,,,,,,,,,,,,,,,,,,,,,,,,,,,,,,,,,,,,,,,,,,,,,,,,,,,,,,,,,,,,,,,,,,,,,,,,,,,,,,,,,,,,,,,,,,,,,,,,,,,,,,,,,,,,,,,,,,,,,,,,,,,,
,,666d97ca3efe7fbd33436995,2026-03-17_10h23.06.413,kallum_motion_pilot_GIST_update_2,2026.1.1,Win32,60.24096386,666d97ca3efe7fbd33436995,69b92ab4aef6dee357cd729a,69b92b4ddac2237340c374be,0.0332,0.0332,0,138,138,62,1,fourtwo,,,,,,,,,,,,,,,,,,,,,,,,,,,,,,,,,,,,,,,,,,,,,,,,,,,,,,,,,,,,,,,,,,,,,,,,,,,,,,,,,,,,,,,,,,,,,,,,,,,,,,,,,,,,,,,,,,,,,,,,,,,,,,,,,,,,,,,,,
,,666d97ca3efe7fbd33436995,2026-03-17_10h23.06.413,kallum_motion_pilot_GIST_update_2,2026.1.1,Win32,60.24096386,666d97ca3efe7fbd33436995,69b92ab4aef6dee357cd729a,69b92b4ddac2237340c374be,0.0333,0.0333,0,139,139,96,1,fivesix,,,,,,,,,,,,,,,,,,,,,,,,,,,,,,,,,,,,,,,,,,,,,,,,,,,,,,,,,,,,,,,,,,,,,,,,,,,,,,,,,,,,,,,,,,,,,,,,,,,,,,,,,,,,,,,,,,,,,,,,,,,,,,,,,,,,,,,,,
,,666d97ca3efe7fbd33436995,2026-03-17_10h23.06.413,kallum_motion_pilot_GIST_update_2,2026.1.1,Win32,60.24096386,666d97ca3efe7fbd33436995,69b92ab4aef6dee357cd729a,69b92b4ddac2237340c374be,0.0333,0.0333,0,140,140,161,1,fiveseven,,,,,,,,,,,,,,,,,,,,,,,,,,,,,,,,,,,,,,,,,,,,,,,,,,,,,,,,,,,,,,,,,,,,,,,,,,,,,,,,,,,,,,,,,,,,,,,,,,,,,,,,,,,,,,,,,,,,,,,,,,,,,,,,,,,,,,,,,
,,666d97ca3efe7fbd33436995,2026-03-17_10h23.06.413,kallum_motion_pilot_GIST_update_2,2026.1.1,Win32,60.24096386,666d97ca3efe7fbd33436995,69b92ab4aef6dee357cd729a,69b92b4ddac2237340c374be,0.0335,0.0335,0,141,141,69,1,threefour,,,,,,,,,,,,,,,,,,,,,,,,,,,,,,,,,,,,,,,,,,,,,,,,,,,,,,,,,,,,,,,,,,,,,,,,,,,,,,,,,,,,,,,,,,,,,,,,,,,,,,,,,,,,,,,,,,,,,,,,,,,,,,,,,,,,,,,,,
,,666d97ca3efe7fbd33436995,2026-03-17_10h23.06.413,kallum_motion_pilot_GIST_update_2,2026.1.1,Win32,60.24096386,666d97ca3efe7fbd33436995,69b92ab4aef6dee357cd729a,69b92b4ddac2237340c374be,0.0335,0.0335,0,142,142,16,1,onetwo,,,,,,,,,,,,,,,,,,,,,,,,,,,,,,,,,,,,,,,,,,,,,,,,,,,,,,,,,,,,,,,,,,,,,,,,,,,,,,,,,,,,,,,,,,,,,,,,,,,,,,,,,,,,,,,,,,,,,,,,,,,,,,,,,,,,,,,,,
,,666d97ca3efe7fbd33436995,2026-03-17_10h23.06.413,kallum_motion_pilot_GIST_update_2,2026.1.1,Win32,60.24096386,666d97ca3efe7fbd33436995,69b92ab4aef6dee357cd729a,69b92b4ddac2237340c374be,0.0336,0.0336,0,143,143,134,1,eightsix,,,,,,,,,,,,,,,,,,,,,,,,,,,,,,,,,,,,,,,,,,,,,,,,,,,,,,,,,,,,,,,,,,,,,,,,,,,,,,,,,,,,,,,,,,,,,,,,,,,,,,,,,,,,,,,,,,,,,,,,,,,,,,,,,,,,,,,,,
,,666d97ca3efe7fbd33436995,2026-03-17_10h23.06.413,kallum_motion_pilot_GIST_update_2,2026.1.1,Win32,60.24096386,666d97ca3efe7fbd33436995,69b92ab4aef6dee357cd729a,69b92b4ddac2237340c374be,0.0337,0.0337,0,144,144,45,1,threefour,,,,,,,,,,,,,,,,,,,,,,,,,,,,,,,,,,,,,,,,,,,,,,,,,,,,,,,,,,,,,,,,,,,,,,,,,,,,,,,,,,,,,,,,,,,,,,,,,,,,,,,,,,,,,,,,,,,,,,,,,,,,,,,,,,,,,,,,,
,,666d97ca3efe7fbd33436995,2026-03-17_10h23.06.413,kallum_motion_pilot_GIST_update_2,2026.1.1,Win32,60.24096386,666d97ca3efe7fbd33436995,69b92ab4aef6dee357cd729a,69b92b4ddac2237340c374be,0.0338,0.0338,0,145,145,102,1,eightsix,,,,,,,,,,,,,,,,,,,,,,,,,,,,,,,,,,,,,,,,,,,,,,,,,,,,,,,,,,,,,,,,,,,,,,,,,,,,,,,,,,,,,,,,,,,,,,,,,,,,,,,,,,,,,,,,,,,,,,,,,,,,,,,,,,,,,,,,,
,,666d97ca3efe7fbd33436995,2026-03-17_10h23.06.413,kallum_motion_pilot_GIST_update_2,2026.1.1,Win32,60.24096386,666d97ca3efe7fbd33436995,69b92ab4aef6dee357cd729a,69b92b4ddac2237340c374be,0.0338,0.0338,0,146,146,132,1,sevenfive,,,,,,,,,,,,,,,,,,,,,,,,,,,,,,,,,,,,,,,,,,,,,,,,,,,,,,,,,,,,,,,,,,,,,,,,,,,,,,,,,,,,,,,,,,,,,,,,,,,,,,,,,,,,,,,,,,,,,,,,,,,,,,,,,,,,,,,,,
,,666d97ca3efe7fbd33436995,2026-03-17_10h23.06.413,kallum_motion_pilot_GIST_update_2,2026.1.1,Win32,60.24096386,666d97ca3efe7fbd33436995,69b92ab4aef6dee357cd729a,69b92b4ddac2237340c374be,0.0339,0.0339,0,147,147,72,1,onetwo,,,,,,,,,,,,,,,,,,,,,,,,,,,,,,,,,,,,,,,,,,,,,,,,,,,,,,,,,,,,,,,,,,,,,,,,,,,,,,,,,,,,,,,,,,,,,,,,,,,,,,,,,,,,,,,,,,,,,,,,,,,,,,,,,,,,,,,,,
,,666d97ca3efe7fbd33436995,2026-03-17_10h23.06.413,kallum_motion_pilot_GIST_update_2,2026.1.1,Win32,60.24096386,666d97ca3efe7fbd33436995,69b92ab4aef6dee357cd729a,69b92b4ddac2237340c374be,0.0341,0.0341,0,148,148,24,1,onetwo,,,,,,,,,,,,,,,,,,,,,,,,,,,,,,,,,,,,,,,,,,,,,,,,,,,,,,,,,,,,,,,,,,,,,,,,,,,,,,,,,,,,,,,,,,,,,,,,,,,,,,,,,,,,,,,,,,,,,,,,,,,,,,,,,,,,,,,,,
,,666d97ca3efe7fbd33436995,2026-03-17_10h23.06.413,kallum_motion_pilot_GIST_update_2,2026.1.1,Win32,60.24096386,666d97ca3efe7fbd33436995,69b92ab4aef6dee357cd729a,69b92b4ddac2237340c374be,0.0342,0.0342,0,149,149,152,1,fivesix,,,,,,,,,,,,,,,,,,,,,,,,,,,,,,,,,,,,,,,,,,,,,,,,,,,,,,,,,,,,,,,,,,,,,,,,,,,,,,,,,,,,,,,,,,,,,,,,,,,,,,,,,,,,,,,,,,,,,,,,,,,,,,,,,,,,,,,,,
,,666d97ca3efe7fbd33436995,2026-03-17_10h23.06.413,kallum_motion_pilot_GIST_update_2,2026.1.1,Win32,60.24096386,666d97ca3efe7fbd33436995,69b92ab4aef6dee357cd729a,69b92b4ddac2237340c374be,0.0343,0.0343,0,150,150,70,1,fourtwo,,,,,,,,,,,,,,,,,,,,,,,,,,,,,,,,,,,,,,,,,,,,,,,,,,,,,,,,,,,,,,,,,,,,,,,,,,,,,,,,,,,,,,,,,,,,,,,,,,,,,,,,,,,,,,,,,,,,,,,,,,,,,,,,,,,,,,,,,
,,666d97ca3efe7fbd33436995,2026-03-17_10h23.06.413,kallum_motion_pilot_GIST_update_2,2026.1.1,Win32,60.24096386,666d97ca3efe7fbd33436995,69b92ab4aef6dee357cd729a,69b92b4ddac2237340c374be,0.0344,0.0344,0,151,151,91,1,sixeight,,,,,,,,,,,,,,,,,,,,,,,,,,,,,,,,,,,,,,,,,,,,,,,,,,,,,,,,,,,,,,,,,,,,,,,,,,,,,,,,,,,,,,,,,,,,,,,,,,,,,,,,,,,,,,,,,,,,,,,,,,,,,,,,,,,,,,,,,
,,666d97ca3efe7fbd33436995,2026-03-17_10h23.06.413,kallum_motion_pilot_GIST_update_2,2026.1.1,Win32,60.24096386,666d97ca3efe7fbd33436995,69b92ab4aef6dee357cd729a,69b92b4ddac2237340c374be,0.0344,0.0344,0,152,152,8,1,onetwo,,,,,,,,,,,,,,,,,,,,,,,,,,,,,,,,,,,,,,,,,,,,,,,,,,,,,,,,,,,,,,,,,,,,,,,,,,,,,,,,,,,,,,,,,,,,,,,,,,,,,,,,,,,,,,,,,,,,,,,,,,,,,,,,,,,,,,,,,
,,666d97ca3efe7fbd33436995,2026-03-17_10h23.06.413,kallum_motion_pilot_GIST_update_2,2026.1.1,Win32,60.24096386,666d97ca3efe7fbd33436995,69b92ab4aef6dee357cd729a,69b92b4ddac2237340c374be,0.0346,0.0346,0,153,153,124,1,sevenfive,,,,,,,,,,,,,,,,,,,,,,,,,,,,,,,,,,,,,,,,,,,,,,,,,,,,,,,,,,,,,,,,,,,,,,,,,,,,,,,,,,,,,,,,,,,,,,,,,,,,,,,,,,,,,,,,,,,,,,,,,,,,,,,,,,,,,,,,,
,,666d97ca3efe7fbd33436995,2026-03-17_10h23.06.413,kallum_motion_pilot_GIST_update_2,2026.1.1,Win32,60.24096386,666d97ca3efe7fbd33436995,69b92ab4aef6dee357cd729a,69b92b4ddac2237340c374be,0.0346,0.0346,0,154,154,41,1,onethree,,,,,,,,,,,,,,,,,,,,,,,,,,,,,,,,,,,,,,,,,,,,,,,,,,,,,,,,,,,,,,,,,,,,,,,,,,,,,,,,,,,,,,,,,,,,,,,,,,,,,,,,,,,,,,,,,,,,,,,,,,,,,,,,,,,,,,,,,
,,666d97ca3efe7fbd33436995,2026-03-17_10h23.06.413,kallum_motion_pilot_GIST_update_2,2026.1.1,Win32,60.24096386,666d97ca3efe7fbd33436995,69b92ab4aef6dee357cd729a,69b92b4ddac2237340c374be,0.0347,0.0347,0,155,155,50,1,twoone,,,,,,,,,,,,,,,,,,,,,,,,,,,,,,,,,,,,,,,,,,,,,,,,,,,,,,,,,,,,,,,,,,,,,,,,,,,,,,,,,,,,,,,,,,,,,,,,,,,,,,,,,,,,,,,,,,,,,,,,,,,,,,,,,,,,,,,,,
,,666d97ca3efe7fbd33436995,2026-03-17_10h23.06.413,kallum_motion_pilot_GIST_update_2,2026.1.1,Win32,60.24096386,666d97ca3efe7fbd33436995,69b92ab4aef6dee357cd729a,69b92b4ddac2237340c374be,0.0348,0.0348,0,156,156,113,1,fiveseven,,,,,,,,,,,,,,,,,,,,,,,,,,,,,,,,,,,,,,,,,,,,,,,,,,,,,,,,,,,,,,,,,,,,,,,,,,,,,,,,,,,,,,,,,,,,,,,,,,,,,,,,,,,,,,,,,,,,,,,,,,,,,,,,,,,,,,,,,
,,666d97ca3efe7fbd33436995,2026-03-17_10h23.06.413,kallum_motion_pilot_GIST_update_2,2026.1.1,Win32,60.24096386,666d97ca3efe7fbd33436995,69b92ab4aef6dee357cd729a,69b92b4ddac2237340c374be,0.0349,0.0349,0,157,157,154,1,sixfive,,,,,,,,,,,,,,,,,,,,,,,,,,,,,,,,,,,,,,,,,,,,,,,,,,,,,,,,,,,,,,,,,,,,,,,,,,,,,,,,,,,,,,,,,,,,,,,,,,,,,,,,,,,,,,,,,,,,,,,,,,,,,,,,,,,,,,,,,
,,666d97ca3efe7fbd33436995,2026-03-17_10h23.06.413,kallum_motion_pilot_GIST_update_2,2026.1.1,Win32,60.24096386,666d97ca3efe7fbd33436995,69b92ab4aef6dee357cd729a,69b92b4ddac2237340c374be,0.035,0.035,0,158,158,108,1,sevenfive,,,,,,,,,,,,,,,,,,,,,,,,,,,,,,,,,,,,,,,,,,,,,,,,,,,,,,,,,,,,,,,,,,,,,,,,,,,,,,,,,,,,,,,,,,,,,,,,,,,,,,,,,,,,,,,,,,,,,,,,,,,,,,,,,,,,,,,,,
,,666d97ca3efe7fbd33436995,2026-03-17_10h23.06.413,kallum_motion_pilot_GIST_update_2,2026.1.1,Win32,60.24096386,666d97ca3efe7fbd33436995,69b92ab4aef6dee357cd729a,69b92b4ddac2237340c374be,0.0351,0.0351,0,159,159,31,1,fourthree,,,,,,,,,,,,,,,,,,,,,,,,,,,,,,,,,,,,,,,,,,,,,,,,,,,,,,,,,,,,,,,,,,,,,,,,,,,,,,,,,,,,,,,,,,,,,,,,,,,,,,,,,,,,,,,,,,,,,,,,,,,,,,,,,,,,,,,,,
,,666d97ca3efe7fbd33436995,2026-03-17_10h23.06.413,kallum_motion_pilot_GIST_update_2,2026.1.1,Win32,60.24096386,666d97ca3efe7fbd33436995,69b92ab4aef6dee357cd729a,69b92b4ddac2237340c374be,0.0352,0.0352,0,160,160,1,1,onethree,,,,,,,,,,,,,,,,,,,,,,,,,,,,,,,,,,,,,,,,,,,,,,,,,,,,,,,,,,,,,,,,,,,,,,,,,,,,,,,,,,,,,,,,,,,,,,,,,,,,,,,,,,,,,,,,,,,,,,,,,,,,,,,,,,,,,,,,,
,,666d97ca3efe7fbd33436995,2026-03-17_10h23.06.413,kallum_motion_pilot_GIST_update_2,2026.1.1,Win32,60.24096386,666d97ca3efe7fbd33436995,69b92ab4aef6dee357cd729a,69b92b4ddac2237340c374be,0.0353,0.0353,0,161,161,87,1,eightseven,,,,,,,,,,,,,,,,,,,,,,,,,,,,,,,,,,,,,,,,,,,,,,,,,,,,,,,,,,,,,,,,,,,,,,,,,,,,,,,,,,,,,,,,,,,,,,,,,,,,,,,,,,,,,,,,,,,,,,,,,,,,,,,,,,,,,,,,,
,,666d97ca3efe7fbd33436995,2026-03-17_10h23.06.413,kallum_motion_pilot_GIST_update_2,2026.1.1,Win32,60.24096386,666d97ca3efe7fbd33436995,69b92ab4aef6dee357cd729a,69b92b4ddac2237340c374be,0.0354,0.0354,1,0,162,85,1,seveneight,,,,,,,,,,,,,,,,,,,,,,,,,,,,,,,,,,,,,,,,,,,,,,,,,,,,,,,,,,,,,,,,,,,,,,,,,,,,,,,,,,,,,,,,,,,,,,,,,,,,,,,,,,,,,,,,,,,,,,,,,,,,,,,,,,,,,,,,,
,,666d97ca3efe7fbd33436995,2026-03-17_10h23.06.413,kallum_motion_pilot_GIST_update_2,2026.1.1,Win32,60.24096386,666d97ca3efe7fbd33436995,69b92ab4aef6dee357cd729a,69b92b4ddac2237340c374be,0.0355,0.0355,1,1,163,35,1,twofour,,,,,,,,,,,,,,,,,,,,,,,,,,,,,,,,,,,,,,,,,,,,,,,,,,,,,,,,,,,,,,,,,,,,,,,,,,,,,,,,,,,,,,,,,,,,,,,,,,,,,,,,,,,,,,,,,,,,,,,,,,,,,,,,,,,,,,,,,
,,666d97ca3efe7fbd33436995,2026-03-17_10h23.06.413,kallum_motion_pilot_GIST_update_2,2026.1.1,Win32,60.24096386,666d97ca3efe7fbd33436995,69b92ab4aef6dee357cd729a,69b92b4ddac2237340c374be,0.0355,0.0355,1,2,164,136,1,fivesix,,,,,,,,,,,,,,,,,,,,,,,,,,,,,,,,,,,,,,,,,,,,,,,,,,,,,,,,,,,,,,,,,,,,,,,,,,,,,,,,,,,,,,,,,,,,,,,,,,,,,,,,,,,,,,,,,,,,,,,,,,,,,,,,,,,,,,,,,
,,666d97ca3efe7fbd33436995,2026-03-17_10h23.06.413,kallum_motion_pilot_GIST_update_2,2026.1.1,Win32,60.24096386,666d97ca3efe7fbd33436995,69b92ab4aef6dee357cd729a,69b92b4ddac2237340c374be,0.0357,0.0357,1,3,165,154,1,sixfive,,,,,,,,,,,,,,,,,,,,,,,,,,,,,,,,,,,,,,,,,,,,,,,,,,,,,,,,,,,,,,,,,,,,,,,,,,,,,,,,,,,,,,,,,,,,,,,,,,,,,,,,,,,,,,,,,,,,,,,,,,,,,,,,,,,,,,,,,
,,666d97ca3efe7fbd33436995,2026-03-17_10h23.06.413,kallum_motion_pilot_GIST_update_2,2026.1.1,Win32,60.24096386,666d97ca3efe7fbd33436995,69b92ab4aef6dee357cd729a,69b92b4ddac2237340c374be,0.0357,0.0357,1,4,166,130,1,sixfive,,,,,,,,,,,,,,,,,,,,,,,,,,,,,,,,,,,,,,,,,,,,,,,,,,,,,,,,,,,,,,,,,,,,,,,,,,,,,,,,,,,,,,,,,,,,,,,,,,,,,,,,,,,,,,,,,,,,,,,,,,,,,,,,,,,,,,,,,
,,666d97ca3efe7fbd33436995,2026-03-17_10h23.06.413,kallum_motion_pilot_GIST_update_2,2026.1.1,Win32,60.24096386,666d97ca3efe7fbd33436995,69b92ab4aef6dee357cd729a,69b92b4ddac2237340c374be,0.0358,0.0358,1,5,167,109,1,seveneight,,,,,,,,,,,,,,,,,,,,,,,,,,,,,,,,,,,,,,,,,,,,,,,,,,,,,,,,,,,,,,,,,,,,,,,,,,,,,,,,,,,,,,,,,,,,,,,,,,,,,,,,,,,,,,,,,,,,,,,,,,,,,,,,,,,,,,,,,
,,666d97ca3efe7fbd33436995,2026-03-17_10h23.06.413,kallum_motion_pilot_GIST_update_2,2026.1.1,Win32,60.24096386,666d97ca3efe7fbd33436995,69b92ab4aef6dee357cd729a,69b92b4ddac2237340c374be,0.036,0.036,1,6,168,113,1,fiveseven,,,,,,,,,,,,,,,,,,,,,,,,,,,,,,,,,,,,,,,,,,,,,,,,,,,,,,,,,,,,,,,,,,,,,,,,,,,,,,,,,,,,,,,,,,,,,,,,,,,,,,,,,,,,,,,,,,,,,,,,,,,,,,,,,,,,,,,,,
,,666d97ca3efe7fbd33436995,2026-03-17_10h23.06.413,kallum_motion_pilot_GIST_update_2,2026.1.1,Win32,60.24096386,666d97ca3efe7fbd33436995,69b92ab4aef6dee357cd729a,69b92b4ddac2237340c374be,0.036,0.036,1,7,169,103,1,eightseven,,,,,,,,,,,,,,,,,,,,,,,,,,,,,,,,,,,,,,,,,,,,,,,,,,,,,,,,,,,,,,,,,,,,,,,,,,,,,,,,,,,,,,,,,,,,,,,,,,,,,,,,,,,,,,,,,,,,,,,,,,,,,,,,,,,,,,,,,
,,666d97ca3efe7fbd33436995,2026-03-17_10h23.06.413,kallum_motion_pilot_GIST_update_2,2026.1.1,Win32,60.24096386,666d97ca3efe7fbd33436995,69b92ab4aef6dee357cd729a,69b92b4ddac2237340c374be,0.0362,0.0362,1,8,170,17,1,onethree,,,,,,,,,,,,,,,,,,,,,,,,,,,,,,,,,,,,,,,,,,,,,,,,,,,,,,,,,,,,,,,,,,,,,,,,,,,,,,,,,,,,,,,,,,,,,,,,,,,,,,,,,,,,,,,,,,,,,,,,,,,,,,,,,,,,,,,,,
,,666d97ca3efe7fbd33436995,2026-03-17_10h23.06.413,kallum_motion_pilot_GIST_update_2,2026.1.1,Win32,60.24096386,666d97ca3efe7fbd33436995,69b92ab4aef6dee357cd729a,69b92b4ddac2237340c374be,0.0362,0.0362,1,9,171,79,1,eightseven,,,,,,,,,,,,,,,,,,,,,,,,,,,,,,,,,,,,,,,,,,,,,,,,,,,,,,,,,,,,,,,,,,,,,,,,,,,,,,,,,,,,,,,,,,,,,,,,,,,,,,,,,,,,,,,,,,,,,,,,,,,,,,,,,,,,,,,,,
,,666d97ca3efe7fbd33436995,2026-03-17_10h23.06.413,kallum_motion_pilot_GIST_update_2,2026.1.1,Win32,60.24096386,666d97ca3efe7fbd33436995,69b92ab4aef6dee357cd729a,69b92b4ddac2237340c374be,0.0363,0.0363,1,10,172,137,1,fiveseven,,,,,,,,,,,,,,,,,,,,,,,,,,,,,,,,,,,,,,,,,,,,,,,,,,,,,,,,,,,,,,,,,,,,,,,,,,,,,,,,,,,,,,,,,,,,,,,,,,,,,,,,,,,,,,,,,,,,,,,,,,,,,,,,,,,,,,,,,
,,666d97ca3efe7fbd33436995,2026-03-17_10h23.06.413,kallum_motion_pilot_GIST_update_2,2026.1.1,Win32,60.24096386,666d97ca3efe7fbd33436995,69b92ab4aef6dee357cd729a,69b92b4ddac2237340c374be,0.0364,0.0364,1,11,173,36,1,threeone,,,,,,,,,,,,,,,,,,,,,,,,,,,,,,,,,,,,,,,,,,,,,,,,,,,,,,,,,,,,,,,,,,,,,,,,,,,,,,,,,,,,,,,,,,,,,,,,,,,,,,,,,,,,,,,,,,,,,,,,,,,,,,,,,,,,,,,,,
,,666d97ca3efe7fbd33436995,2026-03-17_10h23.06.413,kallum_motion_pilot_GIST_update_2,2026.1.1,Win32,60.24096386,666d97ca3efe7fbd33436995,69b92ab4aef6dee357cd729a,69b92b4ddac2237340c374be,0.0366,0.0366,1,12,174,111,1,eightseven,,,,,,,,,,,,,,,,,,,,,,,,,,,,,,,,,,,,,,,,,,,,,,,,,,,,,,,,,,,,,,,,,,,,,,,,,,,,,,,,,,,,,,,,,,,,,,,,,,,,,,,,,,,,,,,,,,,,,,,,,,,,,,,,,,,,,,,,,
,,666d97ca3efe7fbd33436995,2026-03-17_10h23.06.413,kallum_motion_pilot_GIST_update_2,2026.1.1,Win32,60.24096386,666d97ca3efe7fbd33436995,69b92ab4aef6dee357cd729a,69b92b4ddac2237340c374be,0.0366,0.0366,1,13,175,47,1,fourthree,,,,,,,,,,,,,,,,,,,,,,,,,,,,,,,,,,,,,,,,,,,,,,,,,,,,,,,,,,,,,,,,,,,,,,,,,,,,,,,,,,,,,,,,,,,,,,,,,,,,,,,,,,,,,,,,,,,,,,,,,,,,,,,,,,,,,,,,,
,,666d97ca3efe7fbd33436995,2026-03-17_10h23.06.413,kallum_motion_pilot_GIST_update_2,2026.1.1,Win32,60.24096386,666d97ca3efe7fbd33436995,69b92ab4aef6dee357cd729a,69b92b4ddac2237340c374be,0.0367,0.0367,1,14,176,107,1,sixeight,,,,,,,,,,,,,,,,,,,,,,,,,,,,,,,,,,,,,,,,,,,,,,,,,,,,,,,,,,,,,,,,,,,,,,,,,,,,,,,,,,,,,,,,,,,,,,,,,,,,,,,,,,,,,,,,,,,,,,,,,,,,,,,,,,,,,,,,,
,,666d97ca3efe7fbd33436995,2026-03-17_10h23.06.413,kallum_motion_pilot_GIST_update_2,2026.1.1,Win32,60.24096386,666d97ca3efe7fbd33436995,69b92ab4aef6dee357cd729a,69b92b4ddac2237340c374be,0.0368,0.0368,1,15,177,51,1,twofour,,,,,,,,,,,,,,,,,,,,,,,,,,,,,,,,,,,,,,,,,,,,,,,,,,,,,,,,,,,,,,,,,,,,,,,,,,,,,,,,,,,,,,,,,,,,,,,,,,,,,,,,,,,,,,,,,,,,,,,,,,,,,,,,,,,,,,,,,
,,666d97ca3efe7fbd33436995,2026-03-17_10h23.06.413,kallum_motion_pilot_GIST_update_2,2026.1.1,Win32,60.24096386,666d97ca3efe7fbd33436995,69b92ab4aef6dee357cd729a,69b92b4ddac2237340c374be,0.0369,0.0369,1,16,178,87,1,eightseven,,,,,,,,,,,,,,,,,,,,,,,,,,,,,,,,,,,,,,,,,,,,,,,,,,,,,,,,,,,,,,,,,,,,,,,,,,,,,,,,,,,,,,,,,,,,,,,,,,,,,,,,,,,,,,,,,,,,,,,,,,,,,,,,,,,,,,,,,
,,666d97ca3efe7fbd33436995,2026-03-17_10h23.06.413,kallum_motion_pilot_GIST_update_2,2026.1.1,Win32,60.24096386,666d97ca3efe7fbd33436995,69b92ab4aef6dee357cd729a,69b92b4ddac2237340c374be,0.0371,0.0371,1,17,179,158,1,eightsix,,,,,,,,,,,,,,,,,,,,,,,,,,,,,,,,,,,,,,,,,,,,,,,,,,,,,,,,,,,,,,,,,,,,,,,,,,,,,,,,,,,,,,,,,,,,,,,,,,,,,,,,,,,,,,,,,,,,,,,,,,,,,,,,,,,,,,,,,
,,666d97ca3efe7fbd33436995,2026-03-17_10h23.06.413,kallum_motion_pilot_GIST_update_2,2026.1.1,Win32,60.24096386,666d97ca3efe7fbd33436995,69b92ab4aef6dee357cd729a,69b92b4ddac2237340c374be,0.0372,0.0372,1,18,180,152,1,fivesix,,,,,,,,,,,,,,,,,,,,,,,,,,,,,,,,,,,,,,,,,,,,,,,,,,,,,,,,,,,,,,,,,,,,,,,,,,,,,,,,,,,,,,,,,,,,,,,,,,,,,,,,,,,,,,,,,,,,,,,,,,,,,,,,,,,,,,,,,
,,666d97ca3efe7fbd33436995,2026-03-17_10h23.06.413,kallum_motion_pilot_GIST_update_2,2026.1.1,Win32,60.24096386,666d97ca3efe7fbd33436995,69b92ab4aef6dee357cd729a,69b92b4ddac2237340c374be,0.0373,0.0373,1,19,181,142,1,eightsix,,,,,,,,,,,,,,,,,,,,,,,,,,,,,,,,,,,,,,,,,,,,,,,,,,,,,,,,,,,,,,,,,,,,,,,,,,,,,,,,,,,,,,,,,,,,,,,,,,,,,,,,,,,,,,,,,,,,,,,,,,,,,,,,,,,,,,,,,
,,666d97ca3efe7fbd33436995,2026-03-17_10h23.06.413,kallum_motion_pilot_GIST_update_2,2026.1.1,Win32,60.24096386,666d97ca3efe7fbd33436995,69b92ab4aef6dee357cd729a,69b92b4ddac2237340c374be,0.0373,0.0373,1,20,182,30,1,fourtwo,,,,,,,,,,,,,,,,,,,,,,,,,,,,,,,,,,,,,,,,,,,,,,,,,,,,,,,,,,,,,,,,,,,,,,,,,,,,,,,,,,,,,,,,,,,,,,,,,,,,,,,,,,,,,,,,,,,,,,,,,,,,,,,,,,,,,,,,,
,,666d97ca3efe7fbd33436995,2026-03-17_10h23.06.413,kallum_motion_pilot_GIST_update_2,2026.1.1,Win32,60.24096386,666d97ca3efe7fbd33436995,69b92ab4aef6dee357cd729a,69b92b4ddac2237340c374be,0.0375,0.0375,1,21,183,106,1,sixfive,,,,,,,,,,,,,,,,,,,,,,,,,,,,,,,,,,,,,,,,,,,,,,,,,,,,,,,,,,,,,,,,,,,,,,,,,,,,,,,,,,,,,,,,,,,,,,,,,,,,,,,,,,,,,,,,,,,,,,,,,,,,,,,,,,,,,,,,,
,,666d97ca3efe7fbd33436995,2026-03-17_10h23.06.413,kallum_motion_pilot_GIST_update_2,2026.1.1,Win32,60.24096386,666d97ca3efe7fbd33436995,69b92ab4aef6dee357cd729a,69b92b4ddac2237340c374be,0.0375,0.0375,1,22,184,18,1,twoone,,,,,,,,,,,,,,,,,,,,,,,,,,,,,,,,,,,,,,,,,,,,,,,,,,,,,,,,,,,,,,,,,,,,,,,,,,,,,,,,,,,,,,,,,,,,,,,,,,,,,,,,,,,,,,,,,,,,,,,,,,,,,,,,,,,,,,,,,
,,666d97ca3efe7fbd33436995,2026-03-17_10h23.06.413,kallum_motion_pilot_GIST_update_2,2026.1.1,Win32,60.24096386,666d97ca3efe7fbd33436995,69b92ab4aef6dee357cd729a,69b92b4ddac2237340c374be,0.0376,0.0376,1,23,185,132,1,sevenfive,,,,,,,,,,,,,,,,,,,,,,,,,,,,,,,,,,,,,,,,,,,,,,,,,,,,,,,,,,,,,,,,,,,,,,,,,,,,,,,,,,,,,,,,,,,,,,,,,,,,,,,,,,,,,,,,,,,,,,,,,,,,,,,,,,,,,,,,,
,,666d97ca3efe7fbd33436995,2026-03-17_10h23.06.413,kallum_motion_pilot_GIST_update_2,2026.1.1,Win32,60.24096386,666d97ca3efe7fbd33436995,69b92ab4aef6dee357cd729a,69b92b4ddac2237340c374be,0.0377,0.0377,1,24,186,138,1,sixfive,,,,,,,,,,,,,,,,,,,,,,,,,,,,,,,,,,,,,,,,,,,,,,,,,,,,,,,,,,,,,,,,,,,,,,,,,,,,,,,,,,,,,,,,,,,,,,,,,,,,,,,,,,,,,,,,,,,,,,,,,,,,,,,,,,,,,,,,,
,,666d97ca3efe7fbd33436995,2026-03-17_10h23.06.413,kallum_motion_pilot_GIST_update_2,2026.1.1,Win32,60.24096386,666d97ca3efe7fbd33436995,69b92ab4aef6dee357cd729a,69b92b4ddac2237340c374be,0.0379,0.0379,1,25,187,39,1,fourthree,,,,,,,,,,,,,,,,,,,,,,,,,,,,,,,,,,,,,,,,,,,,,,,,,,,,,,,,,,,,,,,,,,,,,,,,,,,,,,,,,,,,,,,,,,,,,,,,,,,,,,,,,,,,,,,,,,,,,,,,,,,,,,,,,,,,,,,,,
,,666d97ca3efe7fbd33436995,2026-03-17_10h23.06.413,kallum_motion_pilot_GIST_update_2,2026.1.1,Win32,60.24096386,666d97ca3efe7fbd33436995,69b92ab4aef6dee357cd729a,69b92b4ddac2237340c374be,0.038,0.038,1,26,188,114,1,sixfive,,,,,,,,,,,,,,,,,,,,,,,,,,,,,,,,,,,,,,,,,,,,,,,,,,,,,,,,,,,,,,,,,,,,,,,,,,,,,,,,,,,,,,,,,,,,,,,,,,,,,,,,,,,,,,,,,,,,,,,,,,,,,,,,,,,,,,,,,
,,666d97ca3efe7fbd33436995,2026-03-17_10h23.06.413,kallum_motion_pilot_GIST_update_2,2026.1.1,Win32,60.24096386,666d97ca3efe7fbd33436995,69b92ab4aef6dee357cd729a,69b92b4ddac2237340c374be,0.0381,0.0381,1,27,189,19,1,twofour,,,,,,,,,,,,,,,,,,,,,,,,,,,,,,,,,,,,,,,,,,,,,,,,,,,,,,,,,,,,,,,,,,,,,,,,,,,,,,,,,,,,,,,,,,,,,,,,,,,,,,,,,,,,,,,,,,,,,,,,,,,,,,,,,,,,,,,,,
,,666d97ca3efe7fbd33436995,2026-03-17_10h23.06.413,kallum_motion_pilot_GIST_update_2,2026.1.1,Win32,60.24096386,666d97ca3efe7fbd33436995,69b92ab4aef6dee357cd729a,69b92b4ddac2237340c374be,0.0382,0.0383,1,28,190,147,1,sixeight,,,,,,,,,,,,,,,,,,,,,,,,,,,,,,,,,,,,,,,,,,,,,,,,,,,,,,,,,,,,,,,,,,,,,,,,,,,,,,,,,,,,,,,,,,,,,,,,,,,,,,,,,,,,,,,,,,,,,,,,,,,,,,,,,,,,,,,,,
,,666d97ca3efe7fbd33436995,2026-03-17_10h23.06.413,kallum_motion_pilot_GIST_update_2,2026.1.1,Win32,60.24096386,666d97ca3efe7fbd33436995,69b92ab4aef6dee357cd729a,69b92b4ddac2237340c374be,0.0384,0.0384,1,29,191,144,1,fivesix,,,,,,,,,,,,,,,,,,,,,,,,,,,,,,,,,,,,,,,,,,,,,,,,,,,,,,,,,,,,,,,,,,,,,,,,,,,,,,,,,,,,,,,,,,,,,,,,,,,,,,,,,,,,,,,,,,,,,,,,,,,,,,,,,,,,,,,,,
,,666d97ca3efe7fbd33436995,2026-03-17_10h23.06.413,kallum_motion_pilot_GIST_update_2,2026.1.1,Win32,60.24096386,666d97ca3efe7fbd33436995,69b92ab4aef6dee357cd729a,69b92b4ddac2237340c374be,0.0385,0.0385,1,30,192,64,1,onetwo,,,,,,,,,,,,,,,,,,,,,,,,,,,,,,,,,,,,,,,,,,,,,,,,,,,,,,,,,,,,,,,,,,,,,,,,,,,,,,,,,,,,,,,,,,,,,,,,,,,,,,,,,,,,,,,,,,,,,,,,,,,,,,,,,,,,,,,,,
,,666d97ca3efe7fbd33436995,2026-03-17_10h23.06.413,kallum_motion_pilot_GIST_update_2,2026.1.1,Win32,60.24096386,666d97ca3efe7fbd33436995,69b92ab4aef6dee357cd729a,69b92b4ddac2237340c374be,0.0386,0.0386,1,31,193,123,1,sixeight,,,,,,,,,,,,,,,,,,,,,,,,,,,,,,,,,,,,,,,,,,,,,,,,,,,,,,,,,,,,,,,,,,,,,,,,,,,,,,,,,,,,,,,,,,,,,,,,,,,,,,,,,,,,,,,,,,,,,,,,,,,,,,,,,,,,,,,,,
,,666d97ca3efe7fbd33436995,2026-03-17_10h23.06.413,kallum_motion_pilot_GIST_update_2,2026.1.1,Win32,60.24096386,666d97ca3efe7fbd33436995,69b92ab4aef6dee357cd729a,69b92b4ddac2237340c374be,0.0389,0.0389,1,32,194,104,1,fivesix,,,,,,,,,,,,,,,,,,,,,,,,,,,,,,,,,,,,,,,,,,,,,,,,,,,,,,,,,,,,,,,,,,,,,,,,,,,,,,,,,,,,,,,,,,,,,,,,,,,,,,,,,,,,,,,,,,,,,,,,,,,,,,,,,,,,,,,,,
,,666d97ca3efe7fbd33436995,2026-03-17_10h23.06.413,kallum_motion_pilot_GIST_update_2,2026.1.1,Win32,60.24096386,666d97ca3efe7fbd33436995,69b92ab4aef6dee357cd729a,69b92b4ddac2237340c374be,0.0391,0.0391,1,33,195,60,1,threeone,,,,,,,,,,,,,,,,,,,,,,,,,,,,,,,,,,,,,,,,,,,,,,,,,,,,,,,,,,,,,,,,,,,,,,,,,,,,,,,,,,,,,,,,,,,,,,,,,,,,,,,,,,,,,,,,,,,,,,,,,,,,,,,,,,,,,,,,,
,,666d97ca3efe7fbd33436995,2026-03-17_10h23.06.413,kallum_motion_pilot_GIST_update_2,2026.1.1,Win32,60.24096386,666d97ca3efe7fbd33436995,69b92ab4aef6dee357cd729a,69b92b4ddac2237340c374be,0.0392,0.0392,1,34,196,11,1,twofour,,,,,,,,,,,,,,,,,,,,,,,,,,,,,,,,,,,,,,,,,,,,,,,,,,,,,,,,,,,,,,,,,,,,,,,,,,,,,,,,,,,,,,,,,,,,,,,,,,,,,,,,,,,,,,,,,,,,,,,,,,,,,,,,,,,,,,,,,
,,666d97ca3efe7fbd33436995,2026-03-17_10h23.06.413,kallum_motion_pilot_GIST_update_2,2026.1.1,Win32,60.24096386,666d97ca3efe7fbd33436995,69b92ab4aef6dee357cd729a,69b92b4ddac2237340c374be,0.0393,0.0393,1,35,197,52,1,threeone,,,,,,,,,,,,,,,,,,,,,,,,,,,,,,,,,,,,,,,,,,,,,,,,,,,,,,,,,,,,,,,,,,,,,,,,,,,,,,,,,,,,,,,,,,,,,,,,,,,,,,,,,,,,,,,,,,,,,,,,,,,,,,,,,,,,,,,,,
,,666d97ca3efe7fbd33436995,2026-03-17_10h23.06.413,kallum_motion_pilot_GIST_update_2,2026.1.1,Win32,60.24096386,666d97ca3efe7fbd33436995,69b92ab4aef6dee357cd729a,69b92b4ddac2237340c374be,0.0394,0.0394,1,36,198,10,1,twoone,,,,,,,,,,,,,,,,,,,,,,,,,,,,,,,,,,,,,,,,,,,,,,,,,,,,,,,,,,,,,,,,,,,,,,,,,,,,,,,,,,,,,,,,,,,,,,,,,,,,,,,,,,,,,,,,,,,,,,,,,,,,,,,,,,,,,,,,,
,,666d97ca3efe7fbd33436995,2026-03-17_10h23.06.413,kallum_motion_pilot_GIST_update_2,2026.1.1,Win32,60.24096386,666d97ca3efe7fbd33436995,69b92ab4aef6dee357cd729a,69b92b4ddac2237340c374be,0.0394,0.0394,1,37,199,92,1,sevenfive,,,,,,,,,,,,,,,,,,,,,,,,,,,,,,,,,,,,,,,,,,,,,,,,,,,,,,,,,,,,,,,,,,,,,,,,,,,,,,,,,,,,,,,,,,,,,,,,,,,,,,,,,,,,,,,,,,,,,,,,,,,,,,,,,,,,,,,,,
,,666d97ca3efe7fbd33436995,2026-03-17_10h23.06.413,kallum_motion_pilot_GIST_update_2,2026.1.1,Win32,60.24096386,666d97ca3efe7fbd33436995,69b92ab4aef6dee357cd729a,69b92b4ddac2237340c374be,0.0396,0.0396,1,38,200,42,1,twoone,,,,,,,,,,,,,,,,,,,,,,,,,,,,,,,,,,,,,,,,,,,,,,,,,,,,,,,,,,,,,,,,,,,,,,,,,,,,,,,,,,,,,,,,,,,,,,,,,,,,,,,,,,,,,,,,,,,,,,,,,,,,,,,,,,,,,,,,,
,,666d97ca3efe7fbd33436995,2026-03-17_10h23.06.413,kallum_motion_pilot_GIST_update_2,2026.1.1,Win32,60.24096386,666d97ca3efe7fbd33436995,69b92ab4aef6dee357cd729a,69b92b4ddac2237340c374be,0.0397,0.0397,1,39,201,83,1,sixeight,,,,,,,,,,,,,,,,,,,,,,,,,,,,,,,,,,,,,,,,,,,,,,,,,,,,,,,,,,,,,,,,,,,,,,,,,,,,,,,,,,,,,,,,,,,,,,,,,,,,,,,,,,,,,,,,,,,,,,,,,,,,,,,,,,,,,,,,,
,,666d97ca3efe7fbd33436995,2026-03-17_10h23.06.413,kallum_motion_pilot_GIST_update_2,2026.1.1,Win32,60.24096386,666d97ca3efe7fbd33436995,69b92ab4aef6dee357cd729a,69b92b4ddac2237340c374be,0.0397,0.0397,1,40,202,7,1,fourthree,,,,,,,,,,,,,,,,,,,,,,,,,,,,,,,,,,,,,,,,,,,,,,,,,,,,,,,,,,,,,,,,,,,,,,,,,,,,,,,,,,,,,,,,,,,,,,,,,,,,,,,,,,,,,,,,,,,,,,,,,,,,,,,,,,,,,,,,,
,,666d97ca3efe7fbd33436995,2026-03-17_10h23.06.413,kallum_motion_pilot_GIST_update_2,2026.1.1,Win32,60.24096386,666d97ca3efe7fbd33436995,69b92ab4aef6dee357cd729a,69b92b4ddac2237340c374be,0.0398,0.0398,1,41,203,108,1,sevenfive,,,,,,,,,,,,,,,,,,,,,,,,,,,,,,,,,,,,,,,,,,,,,,,,,,,,,,,,,,,,,,,,,,,,,,,,,,,,,,,,,,,,,,,,,,,,,,,,,,,,,,,,,,,,,,,,,,,,,,,,,,,,,,,,,,,,,,,,,
,,666d97ca3efe7fbd33436995,2026-03-17_10h23.06.413,kallum_motion_pilot_GIST_update_2,2026.1.1,Win32,60.24096386,666d97ca3efe7fbd33436995,69b92ab4aef6dee357cd729a,69b92b4ddac2237340c374be,0.0399,0.0399,1,42,204,62,1,fourtwo,,,,,,,,,,,,,,,,,,,,,,,,,,,,,,,,,,,,,,,,,,,,,,,,,,,,,,,,,,,,,,,,,,,,,,,,,,,,,,,,,,,,,,,,,,,,,,,,,,,,,,,,,,,,,,,,,,,,,,,,,,,,,,,,,,,,,,,,,
,,666d97ca3efe7fbd33436995,2026-03-17_10h23.06.413,kallum_motion_pilot_GIST_update_2,2026.1.1,Win32,60.24096386,666d97ca3efe7fbd33436995,69b92ab4aef6dee357cd729a,69b92b4ddac2237340c374be,0.0401,0.0401,1,43,205,98,1,sixfive,,,,,,,,,,,,,,,,,,,,,,,,,,,,,,,,,,,,,,,,,,,,,,,,,,,,,,,,,,,,,,,,,,,,,,,,,,,,,,,,,,,,,,,,,,,,,,,,,,,,,,,,,,,,,,,,,,,,,,,,,,,,,,,,,,,,,,,,,
,,666d97ca3efe7fbd33436995,2026-03-17_10h23.06.413,kallum_motion_pilot_GIST_update_2,2026.1.1,Win32,60.24096386,666d97ca3efe7fbd33436995,69b92ab4aef6dee357cd729a,69b92b4ddac2237340c374be,0.0401,0.0401,1,44,206,16,1,onetwo,,,,,,,,,,,,,,,,,,,,,,,,,,,,,,,,,,,,,,,,,,,,,,,,,,,,,,,,,,,,,,,,,,,,,,,,,,,,,,,,,,,,,,,,,,,,,,,,,,,,,,,,,,,,,,,,,,,,,,,,,,,,,,,,,,,,,,,,,
,,666d97ca3efe7fbd33436995,2026-03-17_10h23.06.413,kallum_motion_pilot_GIST_update_2,2026.1.1,Win32,60.24096386,666d97ca3efe7fbd33436995,69b92ab4aef6dee357cd729a,69b92b4ddac2237340c374be,0.0402,0.0402,1,45,207,67,1,twofour,,,,,,,,,,,,,,,,,,,,,,,,,,,,,,,,,,,,,,,,,,,,,,,,,,,,,,,,,,,,,,,,,,,,,,,,,,,,,,,,,,,,,,,,,,,,,,,,,,,,,,,,,,,,,,,,,,,,,,,,,,,,,,,,,,,,,,,,,
,,666d97ca3efe7fbd33436995,2026-03-17_10h23.06.413,kallum_motion_pilot_GIST_update_2,2026.1.1,Win32,60.24096386,666d97ca3efe7fbd33436995,69b92ab4aef6dee357cd729a,69b92b4ddac2237340c374be,0.0403,0.0403,1,46,208,110,1,eightsix,,,,,,,,,,,,,,,,,,,,,,,,,,,,,,,,,,,,,,,,,,,,,,,,,,,,,,,,,,,,,,,,,,,,,,,,,,,,,,,,,,,,,,,,,,,,,,,,,,,,,,,,,,,,,,,,,,,,,,,,,,,,,,,,,,,,,,,,,
,,666d97ca3efe7fbd33436995,2026-03-17_10h23.06.413,kallum_motion_pilot_GIST_update_2,2026.1.1,Win32,60.24096386,666d97ca3efe7fbd33436995,69b92ab4aef6dee357cd729a,69b92b4ddac2237340c374be,0.0405,0.0406,1,47,209,49,1,onethree,,,,,,,,,,,,,,,,,,,,,,,,,,,,,,,,,,,,,,,,,,,,,,,,,,,,,,,,,,,,,,,,,,,,,,,,,,,,,,,,,,,,,,,,,,,,,,,,,,,,,,,,,,,,,,,,,,,,,,,,,,,,,,,,,,,,,,,,,
,,666d97ca3efe7fbd33436995,2026-03-17_10h23.06.413,kallum_motion_pilot_GIST_update_2,2026.1.1,Win32,60.24096386,666d97ca3efe7fbd33436995,69b92ab4aef6dee357cd729a,69b92b4ddac2237340c374be,0.0408,0.0408,1,48,210,48,1,onetwo,,,,,,,,,,,,,,,,,,,,,,,,,,,,,,,,,,,,,,,,,,,,,,,,,,,,,,,,,,,,,,,,,,,,,,,,,,,,,,,,,,,,,,,,,,,,,,,,,,,,,,,,,,,,,,,,,,,,,,,,,,,,,,,,,,,,,,,,,
,,666d97ca3efe7fbd33436995,2026-03-17_10h23.06.413,kallum_motion_pilot_GIST_update_2,2026.1.1,Win32,60.24096386,666d97ca3efe7fbd33436995,69b92ab4aef6dee357cd729a,69b92b4ddac2237340c374be,0.0409,0.0409,1,49,211,71,1,fourthree,,,,,,,,,,,,,,,,,,,,,,,,,,,,,,,,,,,,,,,,,,,,,,,,,,,,,,,,,,,,,,,,,,,,,,,,,,,,,,,,,,,,,,,,,,,,,,,,,,,,,,,,,,,,,,,,,,,,,,,,,,,,,,,,,,,,,,,,,
,,666d97ca3efe7fbd33436995,2026-03-17_10h23.06.413,kallum_motion_pilot_GIST_update_2,2026.1.1,Win32,60.24096386,666d97ca3efe7fbd33436995,69b92ab4aef6dee357cd729a,69b92b4ddac2237340c374be,0.0411,0.0412,1,50,212,69,1,threefour,,,,,,,,,,,,,,,,,,,,,,,,,,,,,,,,,,,,,,,,,,,,,,,,,,,,,,,,,,,,,,,,,,,,,,,,,,,,,,,,,,,,,,,,,,,,,,,,,,,,,,,,,,,,,,,,,,,,,,,,,,,,,,,,,,,,,,,,,
,,666d97ca3efe7fbd33436995,2026-03-17_10h23.06.413,kallum_motion_pilot_GIST_update_2,2026.1.1,Win32,60.24096386,666d97ca3efe7fbd33436995,69b92ab4aef6dee357cd729a,69b92b4ddac2237340c374be,0.0412,0.0412,1,51,213,77,1,threefour,,,,,,,,,,,,,,,,,,,,,,,,,,,,,,,,,,,,,,,,,,,,,,,,,,,,,,,,,,,,,,,,,,,,,,,,,,,,,,,,,,,,,,,,,,,,,,,,,,,,,,,,,,,,,,,,,,,,,,,,,,,,,,,,,,,,,,,,,
,,666d97ca3efe7fbd33436995,2026-03-17_10h23.06.413,kallum_motion_pilot_GIST_update_2,2026.1.1,Win32,60.24096386,666d97ca3efe7fbd33436995,69b92ab4aef6dee357cd729a,69b92b4ddac2237340c374be,0.0413,0.0413,1,52,214,6,1,fourtwo,,,,,,,,,,,,,,,,,,,,,,,,,,,,,,,,,,,,,,,,,,,,,,,,,,,,,,,,,,,,,,,,,,,,,,,,,,,,,,,,,,,,,,,,,,,,,,,,,,,,,,,,,,,,,,,,,,,,,,,,,,,,,,,,,,,,,,,,,
,,666d97ca3efe7fbd33436995,2026-03-17_10h23.06.413,kallum_motion_pilot_GIST_update_2,2026.1.1,Win32,60.24096386,666d97ca3efe7fbd33436995,69b92ab4aef6dee357cd729a,69b92b4ddac2237340c374be,0.0415,0.0415,1,53,215,86,1,eightsix,,,,,,,,,,,,,,,,,,,,,,,,,,,,,,,,,,,,,,,,,,,,,,,,,,,,,,,,,,,,,,,,,,,,,,,,,,,,,,,,,,,,,,,,,,,,,,,,,,,,,,,,,,,,,,,,,,,,,,,,,,,,,,,,,,,,,,,,,
,,666d97ca3efe7fbd33436995,2026-03-17_10h23.06.413,kallum_motion_pilot_GIST_update_2,2026.1.1,Win32,60.24096386,666d97ca3efe7fbd33436995,69b92ab4aef6dee357cd729a,69b92b4ddac2237340c374be,0.0415,0.0415,1,54,216,13,1,threefour,,,,,,,,,,,,,,,,,,,,,,,,,,,,,,,,,,,,,,,,,,,,,,,,,,,,,,,,,,,,,,,,,,,,,,,,,,,,,,,,,,,,,,,,,,,,,,,,,,,,,,,,,,,,,,,,,,,,,,,,,,,,,,,,,,,,,,,,,
,,666d97ca3efe7fbd33436995,2026-03-17_10h23.06.413,kallum_motion_pilot_GIST_update_2,2026.1.1,Win32,60.24096386,666d97ca3efe7fbd33436995,69b92ab4aef6dee357cd729a,69b92b4ddac2237340c374be,0.0416,0.0416,1,55,217,124,1,sevenfive,,,,,,,,,,,,,,,,,,,,,,,,,,,,,,,,,,,,,,,,,,,,,,,,,,,,,,,,,,,,,,,,,,,,,,,,,,,,,,,,,,,,,,,,,,,,,,,,,,,,,,,,,,,,,,,,,,,,,,,,,,,,,,,,,,,,,,,,,
,,666d97ca3efe7fbd33436995,2026-03-17_10h23.06.413,kallum_motion_pilot_GIST_update_2,2026.1.1,Win32,60.24096386,666d97ca3efe7fbd33436995,69b92ab4aef6dee357cd729a,69b92b4ddac2237340c374be,0.0418,0.0418,1,56,218,115,1,sixeight,,,,,,,,,,,,,,,,,,,,,,,,,,,,,,,,,,,,,,,,,,,,,,,,,,,,,,,,,,,,,,,,,,,,,,,,,,,,,,,,,,,,,,,,,,,,,,,,,,,,,,,,,,,,,,,,,,,,,,,,,,,,,,,,,,,,,,,,,
,,666d97ca3efe7fbd33436995,2026-03-17_10h23.06.413,kallum_motion_pilot_GIST_update_2,2026.1.1,Win32,60.24096386,666d97ca3efe7fbd33436995,69b92ab4aef6dee357cd729a,69b92b4ddac2237340c374be,0.0421,0.0421,1,57,219,84,1,sevenfive,,,,,,,,,,,,,,,,,,,,,,,,,,,,,,,,,,,,,,,,,,,,,,,,,,,,,,,,,,,,,,,,,,,,,,,,,,,,,,,,,,,,,,,,,,,,,,,,,,,,,,,,,,,,,,,,,,,,,,,,,,,,,,,,,,,,,,,,,
,,666d97ca3efe7fbd33436995,2026-03-17_10h23.06.413,kallum_motion_pilot_GIST_update_2,2026.1.1,Win32,60.24096386,666d97ca3efe7fbd33436995,69b92ab4aef6dee357cd729a,69b92b4ddac2237340c374be,0.0422,0.0422,1,58,220,24,1,onetwo,,,,,,,,,,,,,,,,,,,,,,,,,,,,,,,,,,,,,,,,,,,,,,,,,,,,,,,,,,,,,,,,,,,,,,,,,,,,,,,,,,,,,,,,,,,,,,,,,,,,,,,,,,,,,,,,,,,,,,,,,,,,,,,,,,,,,,,,,
,,666d97ca3efe7fbd33436995,2026-03-17_10h23.06.413,kallum_motion_pilot_GIST_update_2,2026.1.1,Win32,60.24096386,666d97ca3efe7fbd33436995,69b92ab4aef6dee357cd729a,69b92b4ddac2237340c374be,0.0424,0.0424,1,59,221,2,1,twoone,,,,,,,,,,,,,,,,,,,,,,,,,,,,,,,,,,,,,,,,,,,,,,,,,,,,,,,,,,,,,,,,,,,,,,,,,,,,,,,,,,,,,,,,,,,,,,,,,,,,,,,,,,,,,,,,,,,,,,,,,,,,,,,,,,,,,,,,,
,,666d97ca3efe7fbd33436995,2026-03-17_10h23.06.413,kallum_motion_pilot_GIST_update_2,2026.1.1,Win32,60.24096386,666d97ca3efe7fbd33436995,69b92ab4aef6dee357cd729a,69b92b4ddac2237340c374be,0.0426,0.0426,1,60,222,74,1,twoone,,,,,,,,,,,,,,,,,,,,,,,,,,,,,,,,,,,,,,,,,,,,,,,,,,,,,,,,,,,,,,,,,,,,,,,,,,,,,,,,,,,,,,,,,,,,,,,,,,,,,,,,,,,,,,,,,,,,,,,,,,,,,,,,,,,,,,,,,
,,666d97ca3efe7fbd33436995,2026-03-17_10h23.06.413,kallum_motion_pilot_GIST_update_2,2026.1.1,Win32,60.24096386,666d97ca3efe7fbd33436995,69b92ab4aef6dee357cd729a,69b92b4ddac2237340c374be,0.0427,0.0427,1,61,223,5,1,threefour,,,,,,,,,,,,,,,,,,,,,,,,,,,,,,,,,,,,,,,,,,,,,,,,,,,,,,,,,,,,,,,,,,,,,,,,,,,,,,,,,,,,,,,,,,,,,,,,,,,,,,,,,,,,,,,,,,,,,,,,,,,,,,,,,,,,,,,,,
,,666d97ca3efe7fbd33436995,2026-03-17_10h23.06.413,kallum_motion_pilot_GIST_update_2,2026.1.1,Win32,60.24096386,666d97ca3efe7fbd33436995,69b92ab4aef6dee357cd729a,69b92b4ddac2237340c374be,0.0429,0.0429,1,62,224,81,1,fiveseven,,,,,,,,,,,,,,,,,,,,,,,,,,,,,,,,,,,,,,,,,,,,,,,,,,,,,,,,,,,,,,,,,,,,,,,,,,,,,,,,,,,,,,,,,,,,,,,,,,,,,,,,,,,,,,,,,,,,,,,,,,,,,,,,,,,,,,,,,
,,666d97ca3efe7fbd33436995,2026-03-17_10h23.06.413,kallum_motion_pilot_GIST_update_2,2026.1.1,Win32,60.24096386,666d97ca3efe7fbd33436995,69b92ab4aef6dee357cd729a,69b92b4ddac2237340c374be,0.043,0.043,1,63,225,93,1,seveneight,,,,,,,,,,,,,,,,,,,,,,,,,,,,,,,,,,,,,,,,,,,,,,,,,,,,,,,,,,,,,,,,,,,,,,,,,,,,,,,,,,,,,,,,,,,,,,,,,,,,,,,,,,,,,,,,,,,,,,,,,,,,,,,,,,,,,,,,,
,,666d97ca3efe7fbd33436995,2026-03-17_10h23.06.413,kallum_motion_pilot_GIST_update_2,2026.1.1,Win32,60.24096386,666d97ca3efe7fbd33436995,69b92ab4aef6dee357cd729a,69b92b4ddac2237340c374be,0.0432,0.0432,1,64,226,56,1,onetwo,,,,,,,,,,,,,,,,,,,,,,,,,,,,,,,,,,,,,,,,,,,,,,,,,,,,,,,,,,,,,,,,,,,,,,,,,,,,,,,,,,,,,,,,,,,,,,,,,,,,,,,,,,,,,,,,,,,,,,,,,,,,,,,,,,,,,,,,,
,,666d97ca3efe7fbd33436995,2026-03-17_10h23.06.413,kallum_motion_pilot_GIST_update_2,2026.1.1,Win32,60.24096386,666d97ca3efe7fbd33436995,69b92ab4aef6dee357cd729a,69b92b4ddac2237340c374be,0.0434,0.0434,1,65,227,78,1,fourtwo,,,,,,,,,,,,,,,,,,,,,,,,,,,,,,,,,,,,,,,,,,,,,,,,,,,,,,,,,,,,,,,,,,,,,,,,,,,,,,,,,,,,,,,,,,,,,,,,,,,,,,,,,,,,,,,,,,,,,,,,,,,,,,,,,,,,,,,,,
,,666d97ca3efe7fbd33436995,2026-03-17_10h23.06.413,kallum_motion_pilot_GIST_update_2,2026.1.1,Win32,60.24096386,666d97ca3efe7fbd33436995,69b92ab4aef6dee357cd729a,69b92b4ddac2237340c374be,0.0435,0.0435,1,66,228,61,1,threefour,,,,,,,,,,,,,,,,,,,,,,,,,,,,,,,,,,,,,,,,,,,,,,,,,,,,,,,,,,,,,,,,,,,,,,,,,,,,,,,,,,,,,,,,,,,,,,,,,,,,,,,,,,,,,,,,,,,,,,,,,,,,,,,,,,,,,,,,,
,,666d97ca3efe7fbd33436995,2026-03-17_10h23.06.413,kallum_motion_pilot_GIST_update_2,2026.1.1,Win32,60.24096386,666d97ca3efe7fbd33436995,69b92ab4aef6dee357cd729a,69b92b4ddac2237340c374be,0.0436,0.0436,1,67,229,156,1,sevenfive,,,,,,,,,,,,,,,,,,,,,,,,,,,,,,,,,,,,,,,,,,,,,,,,,,,,,,,,,,,,,,,,,,,,,,,,,,,,,,,,,,,,,,,,,,,,,,,,,,,,,,,,,,,,,,,,,,,,,,,,,,,,,,,,,,,,,,,,,
,,666d97ca3efe7fbd33436995,2026-03-17_10h23.06.413,kallum_motion_pilot_GIST_update_2,2026.1.1,Win32,60.24096386,666d97ca3efe7fbd33436995,69b92ab4aef6dee357cd729a,69b92b4ddac2237340c374be,0.0438,0.0438,1,68,230,59,1,twofour,,,,,,,,,,,,,,,,,,,,,,,,,,,,,,,,,,,,,,,,,,,,,,,,,,,,,,,,,,,,,,,,,,,,,,,,,,,,,,,,,,,,,,,,,,,,,,,,,,,,,,,,,,,,,,,,,,,,,,,,,,,,,,,,,,,,,,,,,
,,666d97ca3efe7fbd33436995,2026-03-17_10h23.06.413,kallum_motion_pilot_GIST_update_2,2026.1.1,Win32,60.24096386,666d97ca3efe7fbd33436995,69b92ab4aef6dee357cd729a,69b92b4ddac2237340c374be,0.044,0.044,1,69,231,0,1,onetwo,,,,,,,,,,,,,,,,,,,,,,,,,,,,,,,,,,,,,,,,,,,,,,,,,,,,,,,,,,,,,,,,,,,,,,,,,,,,,,,,,,,,,,,,,,,,,,,,,,,,,,,,,,,,,,,,,,,,,,,,,,,,,,,,,,,,,,,,,
,,666d97ca3efe7fbd33436995,2026-03-17_10h23.06.413,kallum_motion_pilot_GIST_update_2,2026.1.1,Win32,60.24096386,666d97ca3efe7fbd33436995,69b92ab4aef6dee357cd729a,69b92b4ddac2237340c374be,0.0441,0.0441,1,70,232,27,1,twofour,,,,,,,,,,,,,,,,,,,,,,,,,,,,,,,,,,,,,,,,,,,,,,,,,,,,,,,,,,,,,,,,,,,,,,,,,,,,,,,,,,,,,,,,,,,,,,,,,,,,,,,,,,,,,,,,,,,,,,,,,,,,,,,,,,,,,,,,,
,,666d97ca3efe7fbd33436995,2026-03-17_10h23.06.413,kallum_motion_pilot_GIST_update_2,2026.1.1,Win32,60.24096386,666d97ca3efe7fbd33436995,69b92ab4aef6dee357cd729a,69b92b4ddac2237340c374be,0.0442,0.0443,1,71,233,34,1,twoone,,,,,,,,,,,,,,,,,,,,,,,,,,,,,,,,,,,,,,,,,,,,,,,,,,,,,,,,,,,,,,,,,,,,,,,,,,,,,,,,,,,,,,,,,,,,,,,,,,,,,,,,,,,,,,,,,,,,,,,,,,,,,,,,,,,,,,,,,
,,666d97ca3efe7fbd33436995,2026-03-17_10h23.06.413,kallum_motion_pilot_GIST_update_2,2026.1.1,Win32,60.24096386,666d97ca3efe7fbd33436995,69b92ab4aef6dee357cd729a,69b92b4ddac2237340c374be,0.0445,0.0445,1,72,234,22,1,fourtwo,,,,,,,,,,,,,,,,,,,,,,,,,,,,,,,,,,,,,,,,,,,,,,,,,,,,,,,,,,,,,,,,,,,,,,,,,,,,,,,,,,,,,,,,,,,,,,,,,,,,,,,,,,,,,,,,,,,,,,,,,,,,,,,,,,,,,,,,,
,,666d97ca3efe7fbd33436995,2026-03-17_10h23.06.413,kallum_motion_pilot_GIST_update_2,2026.1.1,Win32,60.24096386,666d97ca3efe7fbd33436995,69b92ab4aef6dee357cd729a,69b92b4ddac2237340c374be,0.0445,0.0445,1,73,235,149,1,seveneight,,,,,,,,,,,,,,,,,,,,,,,,,,,,,,,,,,,,,,,,,,,,,,,,,,,,,,,,,,,,,,,,,,,,,,,,,,,,,,,,,,,,,,,,,,,,,,,,,,,,,,,,,,,,,,,,,,,,,,,,,,,,,,,,,,,,,,,,,
,,666d97ca3efe7fbd33436995,2026-03-17_10h23.06.413,kallum_motion_pilot_GIST_update_2,2026.1.1,Win32,60.24096386,666d97ca3efe7fbd33436995,69b92ab4aef6dee357cd729a,69b92b4ddac2237340c374be,0.0446,0.0446,1,74,236,117,1,seveneight,,,,,,,,,,,,,,,,,,,,,,,,,,,,,,,,,,,,,,,,,,,,,,,,,,,,,,,,,,,,,,,,,,,,,,,,,,,,,,,,,,,,,,,,,,,,,,,,,,,,,,,,,,,,,,,,,,,,,,,,,,,,,,,,,,,,,,,,,
,,666d97ca3efe7fbd33436995,2026-03-17_10h23.06.413,kallum_motion_pilot_GIST_update_2,2026.1.1,Win32,60.24096386,666d97ca3efe7fbd33436995,69b92ab4aef6dee357cd729a,69b92b4ddac2237340c374be,0.0448,0.0448,1,75,237,21,1,threefour,,,,,,,,,,,,,,,,,,,,,,,,,,,,,,,,,,,,,,,,,,,,,,,,,,,,,,,,,,,,,,,,,,,,,,,,,,,,,,,,,,,,,,,,,,,,,,,,,,,,,,,,,,,,,,,,,,,,,,,,,,,,,,,,,,,,,,,,,
,,666d97ca3efe7fbd33436995,2026-03-17_10h23.06.413,kallum_motion_pilot_GIST_update_2,2026.1.1,Win32,60.24096386,666d97ca3efe7fbd33436995,69b92ab4aef6dee357cd729a,69b92b4ddac2237340c374be,0.0449,0.0449,1,76,238,72,1,onetwo,,,,,,,,,,,,,,,,,,,,,,,,,,,,,,,,,,,,,,,,,,,,,,,,,,,,,,,,,,,,,,,,,,,,,,,,,,,,,,,,,,,,,,,,,,,,,,,,,,,,,,,,,,,,,,,,,,,,,,,,,,,,,,,,,,,,,,,,,
,,666d97ca3efe7fbd33436995,2026-03-17_10h23.06.413,kallum_motion_pilot_GIST_update_2,2026.1.1,Win32,60.24096386,666d97ca3efe7fbd33436995,69b92ab4aef6dee357cd729a,69b92b4ddac2237340c374be,0.045,0.045,1,77,239,141,1,seveneight,,,,,,,,,,,,,,,,,,,,,,,,,,,,,,,,,,,,,,,,,,,,,,,,,,,,,,,,,,,,,,,,,,,,,,,,,,,,,,,,,,,,,,,,,,,,,,,,,,,,,,,,,,,,,,,,,,,,,,,,,,,,,,,,,,,,,,,,,
,,666d97ca3efe7fbd33436995,2026-03-17_10h23.06.413,kallum_motion_pilot_GIST_update_2,2026.1.1,Win32,60.24096386,666d97ca3efe7fbd33436995,69b92ab4aef6dee357cd729a,69b92b4ddac2237340c374be,0.0451,0.0451,1,78,240,127,1,eightseven,,,,,,,,,,,,,,,,,,,,,,,,,,,,,,,,,,,,,,,,,,,,,,,,,,,,,,,,,,,,,,,,,,,,,,,,,,,,,,,,,,,,,,,,,,,,,,,,,,,,,,,,,,,,,,,,,,,,,,,,,,,,,,,,,,,,,,,,,
,,666d97ca3efe7fbd33436995,2026-03-17_10h23.06.413,kallum_motion_pilot_GIST_update_2,2026.1.1,Win32,60.24096386,666d97ca3efe7fbd33436995,69b92ab4aef6dee357cd729a,69b92b4ddac2237340c374be,0.0452,0.0452,1,79,241,50,1,twoone,,,,,,,,,,,,,,,,,,,,,,,,,,,,,,,,,,,,,,,,,,,,,,,,,,,,,,,,,,,,,,,,,,,,,,,,,,,,,,,,,,,,,,,,,,,,,,,,,,,,,,,,,,,,,,,,,,,,,,,,,,,,,,,,,,,,,,,,,
,,666d97ca3efe7fbd33436995,2026-03-17_10h23.06.413,kallum_motion_pilot_GIST_update_2,2026.1.1,Win32,60.24096386,666d97ca3efe7fbd33436995,69b92ab4aef6dee357cd729a,69b92b4ddac2237340c374be,0.0453,0.0453,1,80,242,91,1,sixeight,,,,,,,,,,,,,,,,,,,,,,,,,,,,,,,,,,,,,,,,,,,,,,,,,,,,,,,,,,,,,,,,,,,,,,,,,,,,,,,,,,,,,,,,,,,,,,,,,,,,,,,,,,,,,,,,,,,,,,,,,,,,,,,,,,,,,,,,,
,,666d97ca3efe7fbd33436995,2026-03-17_10h23.06.413,kallum_motion_pilot_GIST_update_2,2026.1.1,Win32,60.24096386,666d97ca3efe7fbd33436995,69b92ab4aef6dee357cd729a,69b92b4ddac2237340c374be,0.0454,0.0454,1,81,243,37,1,threefour,,,,,,,,,,,,,,,,,,,,,,,,,,,,,,,,,,,,,,,,,,,,,,,,,,,,,,,,,,,,,,,,,,,,,,,,,,,,,,,,,,,,,,,,,,,,,,,,,,,,,,,,,,,,,,,,,,,,,,,,,,,,,,,,,,,,,,,,,
,,666d97ca3efe7fbd33436995,2026-03-17_10h23.06.413,kallum_motion_pilot_GIST_update_2,2026.1.1,Win32,60.24096386,666d97ca3efe7fbd33436995,69b92ab4aef6dee357cd729a,69b92b4ddac2237340c374be,0.0455,0.0455,1,82,244,46,1,fourtwo,,,,,,,,,,,,,,,,,,,,,,,,,,,,,,,,,,,,,,,,,,,,,,,,,,,,,,,,,,,,,,,,,,,,,,,,,,,,,,,,,,,,,,,,,,,,,,,,,,,,,,,,,,,,,,,,,,,,,,,,,,,,,,,,,,,,,,,,,
,,666d97ca3efe7fbd33436995,2026-03-17_10h23.06.413,kallum_motion_pilot_GIST_update_2,2026.1.1,Win32,60.24096386,666d97ca3efe7fbd33436995,69b92ab4aef6dee357cd729a,69b92b4ddac2237340c374be,0.0456,0.0456,1,83,245,90,1,sixfive,,,,,,,,,,,,,,,,,,,,,,,,,,,,,,,,,,,,,,,,,,,,,,,,,,,,,,,,,,,,,,,,,,,,,,,,,,,,,,,,,,,,,,,,,,,,,,,,,,,,,,,,,,,,,,,,,,,,,,,,,,,,,,,,,,,,,,,,,
,,666d97ca3efe7fbd33436995,2026-03-17_10h23.06.413,kallum_motion_pilot_GIST_update_2,2026.1.1,Win32,60.24096386,666d97ca3efe7fbd33436995,69b92ab4aef6dee357cd729a,69b92b4ddac2237340c374be,0.0458,0.0458,1,84,246,134,1,eightsix,,,,,,,,,,,,,,,,,,,,,,,,,,,,,,,,,,,,,,,,,,,,,,,,,,,,,,,,,,,,,,,,,,,,,,,,,,,,,,,,,,,,,,,,,,,,,,,,,,,,,,,,,,,,,,,,,,,,,,,,,,,,,,,,,,,,,,,,,
,,666d97ca3efe7fbd33436995,2026-03-17_10h23.06.413,kallum_motion_pilot_GIST_update_2,2026.1.1,Win32,60.24096386,666d97ca3efe7fbd33436995,69b92ab4aef6dee357cd729a,69b92b4ddac2237340c374be,0.0458,0.0458,1,85,247,20,1,threeone,,,,,,,,,,,,,,,,,,,,,,,,,,,,,,,,,,,,,,,,,,,,,,,,,,,,,,,,,,,,,,,,,,,,,,,,,,,,,,,,,,,,,,,,,,,,,,,,,,,,,,,,,,,,,,,,,,,,,,,,,,,,,,,,,,,,,,,,,
,,666d97ca3efe7fbd33436995,2026-03-17_10h23.06.413,kallum_motion_pilot_GIST_update_2,2026.1.1,Win32,60.24096386,666d97ca3efe7fbd33436995,69b92ab4aef6dee357cd729a,69b92b4ddac2237340c374be,0.0459,0.0459,1,86,248,116,1,sevenfive,,,,,,,,,,,,,,,,,,,,,,,,,,,,,,,,,,,,,,,,,,,,,,,,,,,,,,,,,,,,,,,,,,,,,,,,,,,,,,,,,,,,,,,,,,,,,,,,,,,,,,,,,,,,,,,,,,,,,,,,,,,,,,,,,,,,,,,,,
,,666d97ca3efe7fbd33436995,2026-03-17_10h23.06.413,kallum_motion_pilot_GIST_update_2,2026.1.1,Win32,60.24096386,666d97ca3efe7fbd33436995,69b92ab4aef6dee357cd729a,69b92b4ddac2237340c374be,0.0461,0.0461,1,87,249,119,1,eightseven,,,,,,,,,,,,,,,,,,,,,,,,,,,,,,,,,,,,,,,,,,,,,,,,,,,,,,,,,,,,,,,,,,,,,,,,,,,,,,,,,,,,,,,,,,,,,,,,,,,,,,,,,,,,,,,,,,,,,,,,,,,,,,,,,,,,,,,,,
,,666d97ca3efe7fbd33436995,2026-03-17_10h23.06.413,kallum_motion_pilot_GIST_update_2,2026.1.1,Win32,60.24096386,666d97ca3efe7fbd33436995,69b92ab4aef6dee357cd729a,69b92b4ddac2237340c374be,0.0462,0.0462,1,88,250,148,1,sevenfive,,,,,,,,,,,,,,,,,,,,,,,,,,,,,,,,,,,,,,,,,,,,,,,,,,,,,,,,,,,,,,,,,,,,,,,,,,,,,,,,,,,,,,,,,,,,,,,,,,,,,,,,,,,,,,,,,,,,,,,,,,,,,,,,,,,,,,,,,
,,666d97ca3efe7fbd33436995,2026-03-17_10h23.06.413,kallum_motion_pilot_GIST_update_2,2026.1.1,Win32,60.24096386,666d97ca3efe7fbd33436995,69b92ab4aef6dee357cd729a,69b92b4ddac2237340c374be,0.0463,0.0463,1,89,251,38,1,fourtwo,,,,,,,,,,,,,,,,,,,,,,,,,,,,,,,,,,,,,,,,,,,,,,,,,,,,,,,,,,,,,,,,,,,,,,,,,,,,,,,,,,,,,,,,,,,,,,,,,,,,,,,,,,,,,,,,,,,,,,,,,,,,,,,,,,,,,,,,,
,,666d97ca3efe7fbd33436995,2026-03-17_10h23.06.413,kallum_motion_pilot_GIST_update_2,2026.1.1,Win32,60.24096386,666d97ca3efe7fbd33436995,69b92ab4aef6dee357cd729a,69b92b4ddac2237340c374be,0.0464,0.0464,1,90,252,160,1,fivesix,,,,,,,,,,,,,,,,,,,,,,,,,,,,,,,,,,,,,,,,,,,,,,,,,,,,,,,,,,,,,,,,,,,,,,,,,,,,,,,,,,,,,,,,,,,,,,,,,,,,,,,,,,,,,,,,,,,,,,,,,,,,,,,,,,,,,,,,,
,,666d97ca3efe7fbd33436995,2026-03-17_10h23.06.413,kallum_motion_pilot_GIST_update_2,2026.1.1,Win32,60.24096386,666d97ca3efe7fbd33436995,69b92ab4aef6dee357cd729a,69b92b4ddac2237340c374be,0.0465,0.0465,1,91,253,58,1,twoone,,,,,,,,,,,,,,,,,,,,,,,,,,,,,,,,,,,,,,,,,,,,,,,,,,,,,,,,,,,,,,,,,,,,,,,,,,,,,,,,,,,,,,,,,,,,,,,,,,,,,,,,,,,,,,,,,,,,,,,,,,,,,,,,,,,,,,,,,
,,666d97ca3efe7fbd33436995,2026-03-17_10h23.06.413,kallum_motion_pilot_GIST_update_2,2026.1.1,Win32,60.24096386,666d97ca3efe7fbd33436995,69b92ab4aef6dee357cd729a,69b92b4ddac2237340c374be,0.0466,0.0466,1,92,254,95,1,eightseven,,,,,,,,,,,,,,,,,,,,,,,,,,,,,,,,,,,,,,,,,,,,,,,,,,,,,,,,,,,,,,,,,,,,,,,,,,,,,,,,,,,,,,,,,,,,,,,,,,,,,,,,,,,,,,,,,,,,,,,,,,,,,,,,,,,,,,,,,
,,666d97ca3efe7fbd33436995,2026-03-17_10h23.06.413,kallum_motion_pilot_GIST_update_2,2026.1.1,Win32,60.24096386,666d97ca3efe7fbd33436995,69b92ab4aef6dee357cd729a,69b92b4ddac2237340c374be,0.0468,0.0468,1,93,255,63,1,fourthree,,,,,,,,,,,,,,,,,,,,,,,,,,,,,,,,,,,,,,,,,,,,,,,,,,,,,,,,,,,,,,,,,,,,,,,,,,,,,,,,,,,,,,,,,,,,,,,,,,,,,,,,,,,,,,,,,,,,,,,,,,,,,,,,,,,,,,,,,
,,666d97ca3efe7fbd33436995,2026-03-17_10h23.06.413,kallum_motion_pilot_GIST_update_2,2026.1.1,Win32,60.24096386,666d97ca3efe7fbd33436995,69b92ab4aef6dee357cd729a,69b92b4ddac2237340c374be,0.0469,0.0469,1,94,256,76,1,threeone,,,,,,,,,,,,,,,,,,,,,,,,,,,,,,,,,,,,,,,,,,,,,,,,,,,,,,,,,,,,,,,,,,,,,,,,,,,,,,,,,,,,,,,,,,,,,,,,,,,,,,,,,,,,,,,,,,,,,,,,,,,,,,,,,,,,,,,,,
,,666d97ca3efe7fbd33436995,2026-03-17_10h23.06.413,kallum_motion_pilot_GIST_update_2,2026.1.1,Win32,60.24096386,666d97ca3efe7fbd33436995,69b92ab4aef6dee357cd729a,69b92b4ddac2237340c374be,0.047,0.047,1,95,257,135,1,eightseven,,,,,,,,,,,,,,,,,,,,,,,,,,,,,,,,,,,,,,,,,,,,,,,,,,,,,,,,,,,,,,,,,,,,,,,,,,,,,,,,,,,,,,,,,,,,,,,,,,,,,,,,,,,,,,,,,,,,,,,,,,,,,,,,,,,,,,,,,
,,666d97ca3efe7fbd33436995,2026-03-17_10h23.06.413,kallum_motion_pilot_GIST_update_2,2026.1.1,Win32,60.24096386,666d97ca3efe7fbd33436995,69b92ab4aef6dee357cd729a,69b92b4ddac2237340c374be,0.0472,0.0472,1,96,258,129,1,fiveseven,,,,,,,,,,,,,,,,,,,,,,,,,,,,,,,,,,,,,,,,,,,,,,,,,,,,,,,,,,,,,,,,,,,,,,,,,,,,,,,,,,,,,,,,,,,,,,,,,,,,,,,,,,,,,,,,,,,,,,,,,,,,,,,,,,,,,,,,,
,,666d97ca3efe7fbd33436995,2026-03-17_10h23.06.413,kallum_motion_pilot_GIST_update_2,2026.1.1,Win32,60.24096386,666d97ca3efe7fbd33436995,69b92ab4aef6dee357cd729a,69b92b4ddac2237340c374be,0.0473,0.0473,1,97,259,75,1,twofour,,,,,,,,,,,,,,,,,,,,,,,,,,,,,,,,,,,,,,,,,,,,,,,,,,,,,,,,,,,,,,,,,,,,,,,,,,,,,,,,,,,,,,,,,,,,,,,,,,,,,,,,,,,,,,,,,,,,,,,,,,,,,,,,,,,,,,,,,
,,666d97ca3efe7fbd33436995,2026-03-17_10h23.06.413,kallum_motion_pilot_GIST_update_2,2026.1.1,Win32,60.24096386,666d97ca3efe7fbd33436995,69b92ab4aef6dee357cd729a,69b92b4ddac2237340c374be,0.0473,0.0473,1,98,260,161,1,fiveseven,,,,,,,,,,,,,,,,,,,,,,,,,,,,,,,,,,,,,,,,,,,,,,,,,,,,,,,,,,,,,,,,,,,,,,,,,,,,,,,,,,,,,,,,,,,,,,,,,,,,,,,,,,,,,,,,,,,,,,,,,,,,,,,,,,,,,,,,,
,,666d97ca3efe7fbd33436995,2026-03-17_10h23.06.413,kallum_motion_pilot_GIST_update_2,2026.1.1,Win32,60.24096386,666d97ca3efe7fbd33436995,69b92ab4aef6dee357cd729a,69b92b4ddac2237340c374be,0.0475,0.0475,1,99,261,65,1,onethree,,,,,,,,,,,,,,,,,,,,,,,,,,,,,,,,,,,,,,,,,,,,,,,,,,,,,,,,,,,,,,,,,,,,,,,,,,,,,,,,,,,,,,,,,,,,,,,,,,,,,,,,,,,,,,,,,,,,,,,,,,,,,,,,,,,,,,,,,
,,666d97ca3efe7fbd33436995,2026-03-17_10h23.06.413,kallum_motion_pilot_GIST_update_2,2026.1.1,Win32,60.24096386,666d97ca3efe7fbd33436995,69b92ab4aef6dee357cd729a,69b92b4ddac2237340c374be,0.0476,0.0476,1,100,262,128,1,fivesix,,,,,,,,,,,,,,,,,,,,,,,,,,,,,,,,,,,,,,,,,,,,,,,,,,,,,,,,,,,,,,,,,,,,,,,,,,,,,,,,,,,,,,,,,,,,,,,,,,,,,,,,,,,,,,,,,,,,,,,,,,,,,,,,,,,,,,,,,
,,666d97ca3efe7fbd33436995,2026-03-17_10h23.06.413,kallum_motion_pilot_GIST_update_2,2026.1.1,Win32,60.24096386,666d97ca3efe7fbd33436995,69b92ab4aef6dee357cd729a,69b92b4ddac2237340c374be,0.0477,0.0477,1,101,263,125,1,seveneight,,,,,,,,,,,,,,,,,,,,,,,,,,,,,,,,,,,,,,,,,,,,,,,,,,,,,,,,,,,,,,,,,,,,,,,,,,,,,,,,,,,,,,,,,,,,,,,,,,,,,,,,,,,,,,,,,,,,,,,,,,,,,,,,,,,,,,,,,
,,666d97ca3efe7fbd33436995,2026-03-17_10h23.06.413,kallum_motion_pilot_GIST_update_2,2026.1.1,Win32,60.24096386,666d97ca3efe7fbd33436995,69b92ab4aef6dee357cd729a,69b92b4ddac2237340c374be,0.0479,0.0479,1,102,264,28,1,threeone,,,,,,,,,,,,,,,,,,,,,,,,,,,,,,,,,,,,,,,,,,,,,,,,,,,,,,,,,,,,,,,,,,,,,,,,,,,,,,,,,,,,,,,,,,,,,,,,,,,,,,,,,,,,,,,,,,,,,,,,,,,,,,,,,,,,,,,,,
,,666d97ca3efe7fbd33436995,2026-03-17_10h23.06.413,kallum_motion_pilot_GIST_update_2,2026.1.1,Win32,60.24096386,666d97ca3efe7fbd33436995,69b92ab4aef6dee357cd729a,69b92b4ddac2237340c374be,0.0481,0.0481,1,103,265,12,1,threeone,,,,,,,,,,,,,,,,,,,,,,,,,,,,,,,,,,,,,,,,,,,,,,,,,,,,,,,,,,,,,,,,,,,,,,,,,,,,,,,,,,,,,,,,,,,,,,,,,,,,,,,,,,,,,,,,,,,,,,,,,,,,,,,,,,,,,,,,,
,,666d97ca3efe7fbd33436995,2026-03-17_10h23.06.413,kallum_motion_pilot_GIST_update_2,2026.1.1,Win32,60.24096386,666d97ca3efe7fbd33436995,69b92ab4aef6dee357cd729a,69b92b4ddac2237340c374be,0.0481,0.0481,1,104,266,145,1,fiveseven,,,,,,,,,,,,,,,,,,,,,,,,,,,,,,,,,,,,,,,,,,,,,,,,,,,,,,,,,,,,,,,,,,,,,,,,,,,,,,,,,,,,,,,,,,,,,,,,,,,,,,,,,,,,,,,,,,,,,,,,,,,,,,,,,,,,,,,,,
