startup.started,startup.stopped,Prolific ID*,date,expName,psychopyVersion,OS,frameRate,participant,study_id,session,stimpositions.started,stimpositions.stopped,hardcoded_stimulus_positions.thisRepN,hardcoded_stimulus_positions.thisTrialN,hardcoded_stimulus_positions.thisN,hardcoded_stimulus_positions.thisIndex,hardcoded_stimulus_positions.ran,StimulusPos,stimorientation.started,stimorientation.stopped,prac_stimorientation_import_loop.thisRepN,prac_stimorientation_import_loop.thisTrialN,prac_stimorientation_import_loop.thisN,prac_stimorientation_import_loop.thisIndex,prac_stimorientation_import_loop.ran,Stimorientation,welcome_instr.started,welcome_instr.stopped,key_resp.keys,key_resp.rt,key_resp.duration,response_steppedout_1.started,response_steppedout_1.stopped,key_resp_20.keys,key_resp_20.rt,key_resp_20.duration,response_steppedout_2.started,response_steppedout_2.stopped,key_resp_19.keys,key_resp_19.rt,key_resp_19.duration,stim_response_instr.started,stim_response_instr.stopped,key_resp_15.keys,key_resp_15.rt,key_resp_15.duration,direction_instr_2.started,direction_instr_2.stopped,key_resp_9.keys,key_resp_9.rt,key_resp_9.duration,instr_prac.started,instr_prac.stopped,key_resp_10.keys,key_resp_10.rt,key_resp_10.duration,Stim1_display_prac.started,Stim1_display_prac.stopped,Ecc,Circle1_ori,Circle2_ori,response_prac.started,similarity,response_time,response_prac.stopped,mouse_5.x,mouse_5.y,mouse_5.leftButton,mouse_5.midButton,mouse_5.rightButton,mouse_5.clicked_name,responseprac_feedback.started,responseprac_feedback.stopped,summary2_prac.started,summary2_prac.stopped,mouse_6.x,mouse_6.y,mouse_6.leftButton,mouse_6.midButton,mouse_6.rightButton,mouse_6.clicked_name,duringprac.thisRepN,duringprac.thisTrialN,duringprac.thisN,duringprac.thisIndex,duringprac.ran,begin.started,begin.stopped,key_resp_22.keys,key_resp_22.rt,key_resp_22.duration,Stim1_display.started,Stim1_display.stopped,circle1_ori,circle2_ori,circle1_SF,circle2_SF,response.started,response.stopped,mouse.x,mouse.y,mouse.leftButton,mouse.midButton,mouse.rightButton,mouse.clicked_name,trialnumber,double_pass.thisRepN,double_pass.thisTrialN,double_pass.thisN,double_pass.thisIndex,double_pass.ran,double_pass.order,main_trial.thisRepN,main_trial.thisTrialN,main_trial.thisN,main_trial.thisIndex,main_trial.ran,main_trial.order,Trial_Counter,Catch,Frequencies,response_2.started,response_2.stopped,mouse_2.x,mouse_2.y,mouse_2.leftButton,mouse_2.midButton,mouse_2.rightButton,mouse_2.clicked_name,special_trial.started,special_trial.stopped,catch_1.started,catch_1.stopped,mouse_3.x,mouse_3.y,mouse_3.leftButton,mouse_3.midButton,mouse_3.rightButton,catchresponse,catchnumber,response_time_catch,response_sum.started,response_sum.stopped,mouse_11.x,mouse_11.y,mouse_11.leftButton,mouse_11.midButton,mouse_11.rightButton,flip_presentation_sequence_for_double_pass.started,flip_presentation_sequence_for_double_pass.stopped,goodbye.started,goodbye.stopped,key_resp_3.keys,key_resp_3.rt,key_resp_3.duration
0.0014,0.0019,66704327b46c7665de1190bc,2026-03-17_10h33.34.290,kallum_motion_pilot_GIST_update_2,2026.1.1,Win32,59.88023952,66704327b46c7665de1190bc,69b92ab4aef6dee357cd729a,69b92dbc7cf694d2ee2a55f6,,,,,,,,,,,,,,,,,,,,,,,,,,,,,,,,,,,,,,,,,,,,,,,,,,,,,,,,,,,,,,,,,,,,,,,,,,,,,,,,,,,,,,,,,,,,,,,,,,,,,,,,,,,,,,,,,,,,,,,,,,,,,,,,,,,,,,,,,,,,,,,,,
,,66704327b46c7665de1190bc,2026-03-17_10h33.34.290,kallum_motion_pilot_GIST_update_2,2026.1.1,Win32,59.88023952,66704327b46c7665de1190bc,69b92ab4aef6dee357cd729a,69b92dbc7cf694d2ee2a55f6,0.0305,0.0305,0,0,0,95,1,eightseven,,,,,,,,,,,,,,,,,,,,,,,,,,,,,,,,,,,,,,,,,,,,,,,,,,,,,,,,,,,,,,,,,,,,,,,,,,,,,,,,,,,,,,,,,,,,,,,,,,,,,,,,,,,,,,,,,,,,,,,,,,,,,,,,,,,,,,,,,
,,66704327b46c7665de1190bc,2026-03-17_10h33.34.290,kallum_motion_pilot_GIST_update_2,2026.1.1,Win32,59.88023952,66704327b46c7665de1190bc,69b92ab4aef6dee357cd729a,69b92dbc7cf694d2ee2a55f6,0.0308,0.0308,0,1,1,46,1,fourtwo,,,,,,,,,,,,,,,,,,,,,,,,,,,,,,,,,,,,,,,,,,,,,,,,,,,,,,,,,,,,,,,,,,,,,,,,,,,,,,,,,,,,,,,,,,,,,,,,,,,,,,,,,,,,,,,,,,,,,,,,,,,,,,,,,,,,,,,,,
,,66704327b46c7665de1190bc,2026-03-17_10h33.34.290,kallum_motion_pilot_GIST_update_2,2026.1.1,Win32,59.88023952,66704327b46c7665de1190bc,69b92ab4aef6dee357cd729a,69b92dbc7cf694d2ee2a55f6,0.0309,0.0309,0,2,2,123,1,sixeight,,,,,,,,,,,,,,,,,,,,,,,,,,,,,,,,,,,,,,,,,,,,,,,,,,,,,,,,,,,,,,,,,,,,,,,,,,,,,,,,,,,,,,,,,,,,,,,,,,,,,,,,,,,,,,,,,,,,,,,,,,,,,,,,,,,,,,,,,
,,66704327b46c7665de1190bc,2026-03-17_10h33.34.290,kallum_motion_pilot_GIST_update_2,2026.1.1,Win32,59.88023952,66704327b46c7665de1190bc,69b92ab4aef6dee357cd729a,69b92dbc7cf694d2ee2a55f6,0.0311,0.0311,0,3,3,100,1,sevenfive,,,,,,,,,,,,,,,,,,,,,,,,,,,,,,,,,,,,,,,,,,,,,,,,,,,,,,,,,,,,,,,,,,,,,,,,,,,,,,,,,,,,,,,,,,,,,,,,,,,,,,,,,,,,,,,,,,,,,,,,,,,,,,,,,,,,,,,,,
,,66704327b46c7665de1190bc,2026-03-17_10h33.34.290,kallum_motion_pilot_GIST_update_2,2026.1.1,Win32,59.88023952,66704327b46c7665de1190bc,69b92ab4aef6dee357cd729a,69b92dbc7cf694d2ee2a55f6,0.0312,0.0312,0,4,4,147,1,sixeight,,,,,,,,,,,,,,,,,,,,,,,,,,,,,,,,,,,,,,,,,,,,,,,,,,,,,,,,,,,,,,,,,,,,,,,,,,,,,,,,,,,,,,,,,,,,,,,,,,,,,,,,,,,,,,,,,,,,,,,,,,,,,,,,,,,,,,,,,
,,66704327b46c7665de1190bc,2026-03-17_10h33.34.290,kallum_motion_pilot_GIST_update_2,2026.1.1,Win32,59.88023952,66704327b46c7665de1190bc,69b92ab4aef6dee357cd729a,69b92dbc7cf694d2ee2a55f6,0.0314,0.0314,0,5,5,141,1,seveneight,,,,,,,,,,,,,,,,,,,,,,,,,,,,,,,,,,,,,,,,,,,,,,,,,,,,,,,,,,,,,,,,,,,,,,,,,,,,,,,,,,,,,,,,,,,,,,,,,,,,,,,,,,,,,,,,,,,,,,,,,,,,,,,,,,,,,,,,,
,,66704327b46c7665de1190bc,2026-03-17_10h33.34.290,kallum_motion_pilot_GIST_update_2,2026.1.1,Win32,59.88023952,66704327b46c7665de1190bc,69b92ab4aef6dee357cd729a,69b92dbc7cf694d2ee2a55f6,0.0314,0.0314,0,6,6,88,1,fivesix,,,,,,,,,,,,,,,,,,,,,,,,,,,,,,,,,,,,,,,,,,,,,,,,,,,,,,,,,,,,,,,,,,,,,,,,,,,,,,,,,,,,,,,,,,,,,,,,,,,,,,,,,,,,,,,,,,,,,,,,,,,,,,,,,,,,,,,,,
,,66704327b46c7665de1190bc,2026-03-17_10h33.34.290,kallum_motion_pilot_GIST_update_2,2026.1.1,Win32,59.88023952,66704327b46c7665de1190bc,69b92ab4aef6dee357cd729a,69b92dbc7cf694d2ee2a55f6,0.0316,0.0316,0,7,7,112,1,fivesix,,,,,,,,,,,,,,,,,,,,,,,,,,,,,,,,,,,,,,,,,,,,,,,,,,,,,,,,,,,,,,,,,,,,,,,,,,,,,,,,,,,,,,,,,,,,,,,,,,,,,,,,,,,,,,,,,,,,,,,,,,,,,,,,,,,,,,,,,
,,66704327b46c7665de1190bc,2026-03-17_10h33.34.290,kallum_motion_pilot_GIST_update_2,2026.1.1,Win32,59.88023952,66704327b46c7665de1190bc,69b92ab4aef6dee357cd729a,69b92dbc7cf694d2ee2a55f6,0.0318,0.0318,0,8,8,121,1,fiveseven,,,,,,,,,,,,,,,,,,,,,,,,,,,,,,,,,,,,,,,,,,,,,,,,,,,,,,,,,,,,,,,,,,,,,,,,,,,,,,,,,,,,,,,,,,,,,,,,,,,,,,,,,,,,,,,,,,,,,,,,,,,,,,,,,,,,,,,,,
,,66704327b46c7665de1190bc,2026-03-17_10h33.34.290,kallum_motion_pilot_GIST_update_2,2026.1.1,Win32,59.88023952,66704327b46c7665de1190bc,69b92ab4aef6dee357cd729a,69b92dbc7cf694d2ee2a55f6,0.032,0.032,0,9,9,98,1,sixfive,,,,,,,,,,,,,,,,,,,,,,,,,,,,,,,,,,,,,,,,,,,,,,,,,,,,,,,,,,,,,,,,,,,,,,,,,,,,,,,,,,,,,,,,,,,,,,,,,,,,,,,,,,,,,,,,,,,,,,,,,,,,,,,,,,,,,,,,,
,,66704327b46c7665de1190bc,2026-03-17_10h33.34.290,kallum_motion_pilot_GIST_update_2,2026.1.1,Win32,59.88023952,66704327b46c7665de1190bc,69b92ab4aef6dee357cd729a,69b92dbc7cf694d2ee2a55f6,0.0321,0.0321,0,10,10,159,1,eightseven,,,,,,,,,,,,,,,,,,,,,,,,,,,,,,,,,,,,,,,,,,,,,,,,,,,,,,,,,,,,,,,,,,,,,,,,,,,,,,,,,,,,,,,,,,,,,,,,,,,,,,,,,,,,,,,,,,,,,,,,,,,,,,,,,,,,,,,,,
,,66704327b46c7665de1190bc,2026-03-17_10h33.34.290,kallum_motion_pilot_GIST_update_2,2026.1.1,Win32,59.88023952,66704327b46c7665de1190bc,69b92ab4aef6dee357cd729a,69b92dbc7cf694d2ee2a55f6,0.0322,0.0322,0,11,11,87,1,eightseven,,,,,,,,,,,,,,,,,,,,,,,,,,,,,,,,,,,,,,,,,,,,,,,,,,,,,,,,,,,,,,,,,,,,,,,,,,,,,,,,,,,,,,,,,,,,,,,,,,,,,,,,,,,,,,,,,,,,,,,,,,,,,,,,,,,,,,,,,
,,66704327b46c7665de1190bc,2026-03-17_10h33.34.290,kallum_motion_pilot_GIST_update_2,2026.1.1,Win32,59.88023952,66704327b46c7665de1190bc,69b92ab4aef6dee357cd729a,69b92dbc7cf694d2ee2a55f6,0.0324,0.0324,0,12,12,139,1,sixeight,,,,,,,,,,,,,,,,,,,,,,,,,,,,,,,,,,,,,,,,,,,,,,,,,,,,,,,,,,,,,,,,,,,,,,,,,,,,,,,,,,,,,,,,,,,,,,,,,,,,,,,,,,,,,,,,,,,,,,,,,,,,,,,,,,,,,,,,,
,,66704327b46c7665de1190bc,2026-03-17_10h33.34.290,kallum_motion_pilot_GIST_update_2,2026.1.1,Win32,59.88023952,66704327b46c7665de1190bc,69b92ab4aef6dee357cd729a,69b92dbc7cf694d2ee2a55f6,0.0324,0.0324,0,13,13,51,1,twofour,,,,,,,,,,,,,,,,,,,,,,,,,,,,,,,,,,,,,,,,,,,,,,,,,,,,,,,,,,,,,,,,,,,,,,,,,,,,,,,,,,,,,,,,,,,,,,,,,,,,,,,,,,,,,,,,,,,,,,,,,,,,,,,,,,,,,,,,,
,,66704327b46c7665de1190bc,2026-03-17_10h33.34.290,kallum_motion_pilot_GIST_update_2,2026.1.1,Win32,59.88023952,66704327b46c7665de1190bc,69b92ab4aef6dee357cd729a,69b92dbc7cf694d2ee2a55f6,0.0325,0.0325,0,14,14,78,1,fourtwo,,,,,,,,,,,,,,,,,,,,,,,,,,,,,,,,,,,,,,,,,,,,,,,,,,,,,,,,,,,,,,,,,,,,,,,,,,,,,,,,,,,,,,,,,,,,,,,,,,,,,,,,,,,,,,,,,,,,,,,,,,,,,,,,,,,,,,,,,
,,66704327b46c7665de1190bc,2026-03-17_10h33.34.290,kallum_motion_pilot_GIST_update_2,2026.1.1,Win32,59.88023952,66704327b46c7665de1190bc,69b92ab4aef6dee357cd729a,69b92dbc7cf694d2ee2a55f6,0.0326,0.0326,0,15,15,99,1,sixeight,,,,,,,,,,,,,,,,,,,,,,,,,,,,,,,,,,,,,,,,,,,,,,,,,,,,,,,,,,,,,,,,,,,,,,,,,,,,,,,,,,,,,,,,,,,,,,,,,,,,,,,,,,,,,,,,,,,,,,,,,,,,,,,,,,,,,,,,,
,,66704327b46c7665de1190bc,2026-03-17_10h33.34.290,kallum_motion_pilot_GIST_update_2,2026.1.1,Win32,59.88023952,66704327b46c7665de1190bc,69b92ab4aef6dee357cd729a,69b92dbc7cf694d2ee2a55f6,0.0327,0.0327,0,16,16,22,1,fourtwo,,,,,,,,,,,,,,,,,,,,,,,,,,,,,,,,,,,,,,,,,,,,,,,,,,,,,,,,,,,,,,,,,,,,,,,,,,,,,,,,,,,,,,,,,,,,,,,,,,,,,,,,,,,,,,,,,,,,,,,,,,,,,,,,,,,,,,,,,
,,66704327b46c7665de1190bc,2026-03-17_10h33.34.290,kallum_motion_pilot_GIST_update_2,2026.1.1,Win32,59.88023952,66704327b46c7665de1190bc,69b92ab4aef6dee357cd729a,69b92dbc7cf694d2ee2a55f6,0.0327,0.0327,0,17,17,104,1,fivesix,,,,,,,,,,,,,,,,,,,,,,,,,,,,,,,,,,,,,,,,,,,,,,,,,,,,,,,,,,,,,,,,,,,,,,,,,,,,,,,,,,,,,,,,,,,,,,,,,,,,,,,,,,,,,,,,,,,,,,,,,,,,,,,,,,,,,,,,,
,,66704327b46c7665de1190bc,2026-03-17_10h33.34.290,kallum_motion_pilot_GIST_update_2,2026.1.1,Win32,59.88023952,66704327b46c7665de1190bc,69b92ab4aef6dee357cd729a,69b92dbc7cf694d2ee2a55f6,0.0328,0.0328,0,18,18,120,1,fivesix,,,,,,,,,,,,,,,,,,,,,,,,,,,,,,,,,,,,,,,,,,,,,,,,,,,,,,,,,,,,,,,,,,,,,,,,,,,,,,,,,,,,,,,,,,,,,,,,,,,,,,,,,,,,,,,,,,,,,,,,,,,,,,,,,,,,,,,,,
,,66704327b46c7665de1190bc,2026-03-17_10h33.34.290,kallum_motion_pilot_GIST_update_2,2026.1.1,Win32,59.88023952,66704327b46c7665de1190bc,69b92ab4aef6dee357cd729a,69b92dbc7cf694d2ee2a55f6,0.0329,0.0329,0,19,19,11,1,twofour,,,,,,,,,,,,,,,,,,,,,,,,,,,,,,,,,,,,,,,,,,,,,,,,,,,,,,,,,,,,,,,,,,,,,,,,,,,,,,,,,,,,,,,,,,,,,,,,,,,,,,,,,,,,,,,,,,,,,,,,,,,,,,,,,,,,,,,,,
,,66704327b46c7665de1190bc,2026-03-17_10h33.34.290,kallum_motion_pilot_GIST_update_2,2026.1.1,Win32,59.88023952,66704327b46c7665de1190bc,69b92ab4aef6dee357cd729a,69b92dbc7cf694d2ee2a55f6,0.033,0.033,0,20,20,37,1,threefour,,,,,,,,,,,,,,,,,,,,,,,,,,,,,,,,,,,,,,,,,,,,,,,,,,,,,,,,,,,,,,,,,,,,,,,,,,,,,,,,,,,,,,,,,,,,,,,,,,,,,,,,,,,,,,,,,,,,,,,,,,,,,,,,,,,,,,,,,
,,66704327b46c7665de1190bc,2026-03-17_10h33.34.290,kallum_motion_pilot_GIST_update_2,2026.1.1,Win32,59.88023952,66704327b46c7665de1190bc,69b92ab4aef6dee357cd729a,69b92dbc7cf694d2ee2a55f6,0.033,0.033,0,21,21,42,1,twoone,,,,,,,,,,,,,,,,,,,,,,,,,,,,,,,,,,,,,,,,,,,,,,,,,,,,,,,,,,,,,,,,,,,,,,,,,,,,,,,,,,,,,,,,,,,,,,,,,,,,,,,,,,,,,,,,,,,,,,,,,,,,,,,,,,,,,,,,,
,,66704327b46c7665de1190bc,2026-03-17_10h33.34.290,kallum_motion_pilot_GIST_update_2,2026.1.1,Win32,59.88023952,66704327b46c7665de1190bc,69b92ab4aef6dee357cd729a,69b92dbc7cf694d2ee2a55f6,0.0332,0.0332,0,22,22,60,1,threeone,,,,,,,,,,,,,,,,,,,,,,,,,,,,,,,,,,,,,,,,,,,,,,,,,,,,,,,,,,,,,,,,,,,,,,,,,,,,,,,,,,,,,,,,,,,,,,,,,,,,,,,,,,,,,,,,,,,,,,,,,,,,,,,,,,,,,,,,,
,,66704327b46c7665de1190bc,2026-03-17_10h33.34.290,kallum_motion_pilot_GIST_update_2,2026.1.1,Win32,59.88023952,66704327b46c7665de1190bc,69b92ab4aef6dee357cd729a,69b92dbc7cf694d2ee2a55f6,0.0332,0.0332,0,23,23,137,1,fiveseven,,,,,,,,,,,,,,,,,,,,,,,,,,,,,,,,,,,,,,,,,,,,,,,,,,,,,,,,,,,,,,,,,,,,,,,,,,,,,,,,,,,,,,,,,,,,,,,,,,,,,,,,,,,,,,,,,,,,,,,,,,,,,,,,,,,,,,,,,
,,66704327b46c7665de1190bc,2026-03-17_10h33.34.290,kallum_motion_pilot_GIST_update_2,2026.1.1,Win32,59.88023952,66704327b46c7665de1190bc,69b92ab4aef6dee357cd729a,69b92dbc7cf694d2ee2a55f6,0.0334,0.0334,0,24,24,3,1,twofour,,,,,,,,,,,,,,,,,,,,,,,,,,,,,,,,,,,,,,,,,,,,,,,,,,,,,,,,,,,,,,,,,,,,,,,,,,,,,,,,,,,,,,,,,,,,,,,,,,,,,,,,,,,,,,,,,,,,,,,,,,,,,,,,,,,,,,,,,
,,66704327b46c7665de1190bc,2026-03-17_10h33.34.290,kallum_motion_pilot_GIST_update_2,2026.1.1,Win32,59.88023952,66704327b46c7665de1190bc,69b92ab4aef6dee357cd729a,69b92dbc7cf694d2ee2a55f6,0.0343,0.0344,0,25,25,93,1,seveneight,,,,,,,,,,,,,,,,,,,,,,,,,,,,,,,,,,,,,,,,,,,,,,,,,,,,,,,,,,,,,,,,,,,,,,,,,,,,,,,,,,,,,,,,,,,,,,,,,,,,,,,,,,,,,,,,,,,,,,,,,,,,,,,,,,,,,,,,,
,,66704327b46c7665de1190bc,2026-03-17_10h33.34.290,kallum_motion_pilot_GIST_update_2,2026.1.1,Win32,59.88023952,66704327b46c7665de1190bc,69b92ab4aef6dee357cd729a,69b92dbc7cf694d2ee2a55f6,0.0349,0.035,0,26,26,117,1,seveneight,,,,,,,,,,,,,,,,,,,,,,,,,,,,,,,,,,,,,,,,,,,,,,,,,,,,,,,,,,,,,,,,,,,,,,,,,,,,,,,,,,,,,,,,,,,,,,,,,,,,,,,,,,,,,,,,,,,,,,,,,,,,,,,,,,,,,,,,,
,,66704327b46c7665de1190bc,2026-03-17_10h33.34.290,kallum_motion_pilot_GIST_update_2,2026.1.1,Win32,59.88023952,66704327b46c7665de1190bc,69b92ab4aef6dee357cd729a,69b92dbc7cf694d2ee2a55f6,0.0352,0.0352,0,27,27,19,1,twofour,,,,,,,,,,,,,,,,,,,,,,,,,,,,,,,,,,,,,,,,,,,,,,,,,,,,,,,,,,,,,,,,,,,,,,,,,,,,,,,,,,,,,,,,,,,,,,,,,,,,,,,,,,,,,,,,,,,,,,,,,,,,,,,,,,,,,,,,,
,,66704327b46c7665de1190bc,2026-03-17_10h33.34.290,kallum_motion_pilot_GIST_update_2,2026.1.1,Win32,59.88023952,66704327b46c7665de1190bc,69b92ab4aef6dee357cd729a,69b92dbc7cf694d2ee2a55f6,0.0354,0.0354,0,28,28,102,1,eightsix,,,,,,,,,,,,,,,,,,,,,,,,,,,,,,,,,,,,,,,,,,,,,,,,,,,,,,,,,,,,,,,,,,,,,,,,,,,,,,,,,,,,,,,,,,,,,,,,,,,,,,,,,,,,,,,,,,,,,,,,,,,,,,,,,,,,,,,,,
,,66704327b46c7665de1190bc,2026-03-17_10h33.34.290,kallum_motion_pilot_GIST_update_2,2026.1.1,Win32,59.88023952,66704327b46c7665de1190bc,69b92ab4aef6dee357cd729a,69b92dbc7cf694d2ee2a55f6,0.0356,0.0356,0,29,29,116,1,sevenfive,,,,,,,,,,,,,,,,,,,,,,,,,,,,,,,,,,,,,,,,,,,,,,,,,,,,,,,,,,,,,,,,,,,,,,,,,,,,,,,,,,,,,,,,,,,,,,,,,,,,,,,,,,,,,,,,,,,,,,,,,,,,,,,,,,,,,,,,,
,,66704327b46c7665de1190bc,2026-03-17_10h33.34.290,kallum_motion_pilot_GIST_update_2,2026.1.1,Win32,59.88023952,66704327b46c7665de1190bc,69b92ab4aef6dee357cd729a,69b92dbc7cf694d2ee2a55f6,0.0357,0.0357,0,30,30,1,1,onethree,,,,,,,,,,,,,,,,,,,,,,,,,,,,,,,,,,,,,,,,,,,,,,,,,,,,,,,,,,,,,,,,,,,,,,,,,,,,,,,,,,,,,,,,,,,,,,,,,,,,,,,,,,,,,,,,,,,,,,,,,,,,,,,,,,,,,,,,,
,,66704327b46c7665de1190bc,2026-03-17_10h33.34.290,kallum_motion_pilot_GIST_update_2,2026.1.1,Win32,59.88023952,66704327b46c7665de1190bc,69b92ab4aef6dee357cd729a,69b92dbc7cf694d2ee2a55f6,0.0358,0.0358,0,31,31,47,1,fourthree,,,,,,,,,,,,,,,,,,,,,,,,,,,,,,,,,,,,,,,,,,,,,,,,,,,,,,,,,,,,,,,,,,,,,,,,,,,,,,,,,,,,,,,,,,,,,,,,,,,,,,,,,,,,,,,,,,,,,,,,,,,,,,,,,,,,,,,,,
,,66704327b46c7665de1190bc,2026-03-17_10h33.34.290,kallum_motion_pilot_GIST_update_2,2026.1.1,Win32,59.88023952,66704327b46c7665de1190bc,69b92ab4aef6dee357cd729a,69b92dbc7cf694d2ee2a55f6,0.036,0.036,0,32,32,43,1,twofour,,,,,,,,,,,,,,,,,,,,,,,,,,,,,,,,,,,,,,,,,,,,,,,,,,,,,,,,,,,,,,,,,,,,,,,,,,,,,,,,,,,,,,,,,,,,,,,,,,,,,,,,,,,,,,,,,,,,,,,,,,,,,,,,,,,,,,,,,
,,66704327b46c7665de1190bc,2026-03-17_10h33.34.290,kallum_motion_pilot_GIST_update_2,2026.1.1,Win32,59.88023952,66704327b46c7665de1190bc,69b92ab4aef6dee357cd729a,69b92dbc7cf694d2ee2a55f6,0.0362,0.0362,0,33,33,24,1,onetwo,,,,,,,,,,,,,,,,,,,,,,,,,,,,,,,,,,,,,,,,,,,,,,,,,,,,,,,,,,,,,,,,,,,,,,,,,,,,,,,,,,,,,,,,,,,,,,,,,,,,,,,,,,,,,,,,,,,,,,,,,,,,,,,,,,,,,,,,,
,,66704327b46c7665de1190bc,2026-03-17_10h33.34.290,kallum_motion_pilot_GIST_update_2,2026.1.1,Win32,59.88023952,66704327b46c7665de1190bc,69b92ab4aef6dee357cd729a,69b92dbc7cf694d2ee2a55f6,0.0364,0.0364,0,34,34,129,1,fiveseven,,,,,,,,,,,,,,,,,,,,,,,,,,,,,,,,,,,,,,,,,,,,,,,,,,,,,,,,,,,,,,,,,,,,,,,,,,,,,,,,,,,,,,,,,,,,,,,,,,,,,,,,,,,,,,,,,,,,,,,,,,,,,,,,,,,,,,,,,
,,66704327b46c7665de1190bc,2026-03-17_10h33.34.290,kallum_motion_pilot_GIST_update_2,2026.1.1,Win32,59.88023952,66704327b46c7665de1190bc,69b92ab4aef6dee357cd729a,69b92dbc7cf694d2ee2a55f6,0.0365,0.0365,0,35,35,161,1,fiveseven,,,,,,,,,,,,,,,,,,,,,,,,,,,,,,,,,,,,,,,,,,,,,,,,,,,,,,,,,,,,,,,,,,,,,,,,,,,,,,,,,,,,,,,,,,,,,,,,,,,,,,,,,,,,,,,,,,,,,,,,,,,,,,,,,,,,,,,,,
,,66704327b46c7665de1190bc,2026-03-17_10h33.34.290,kallum_motion_pilot_GIST_update_2,2026.1.1,Win32,59.88023952,66704327b46c7665de1190bc,69b92ab4aef6dee357cd729a,69b92dbc7cf694d2ee2a55f6,0.0366,0.0367,0,36,36,25,1,onethree,,,,,,,,,,,,,,,,,,,,,,,,,,,,,,,,,,,,,,,,,,,,,,,,,,,,,,,,,,,,,,,,,,,,,,,,,,,,,,,,,,,,,,,,,,,,,,,,,,,,,,,,,,,,,,,,,,,,,,,,,,,,,,,,,,,,,,,,,
,,66704327b46c7665de1190bc,2026-03-17_10h33.34.290,kallum_motion_pilot_GIST_update_2,2026.1.1,Win32,59.88023952,66704327b46c7665de1190bc,69b92ab4aef6dee357cd729a,69b92dbc7cf694d2ee2a55f6,0.0368,0.0368,0,37,37,64,1,onetwo,,,,,,,,,,,,,,,,,,,,,,,,,,,,,,,,,,,,,,,,,,,,,,,,,,,,,,,,,,,,,,,,,,,,,,,,,,,,,,,,,,,,,,,,,,,,,,,,,,,,,,,,,,,,,,,,,,,,,,,,,,,,,,,,,,,,,,,,,
,,66704327b46c7665de1190bc,2026-03-17_10h33.34.290,kallum_motion_pilot_GIST_update_2,2026.1.1,Win32,59.88023952,66704327b46c7665de1190bc,69b92ab4aef6dee357cd729a,69b92dbc7cf694d2ee2a55f6,0.0369,0.0369,0,38,38,35,1,twofour,,,,,,,,,,,,,,,,,,,,,,,,,,,,,,,,,,,,,,,,,,,,,,,,,,,,,,,,,,,,,,,,,,,,,,,,,,,,,,,,,,,,,,,,,,,,,,,,,,,,,,,,,,,,,,,,,,,,,,,,,,,,,,,,,,,,,,,,,
,,66704327b46c7665de1190bc,2026-03-17_10h33.34.290,kallum_motion_pilot_GIST_update_2,2026.1.1,Win32,59.88023952,66704327b46c7665de1190bc,69b92ab4aef6dee357cd729a,69b92dbc7cf694d2ee2a55f6,0.037,0.037,0,39,39,26,1,twoone,,,,,,,,,,,,,,,,,,,,,,,,,,,,,,,,,,,,,,,,,,,,,,,,,,,,,,,,,,,,,,,,,,,,,,,,,,,,,,,,,,,,,,,,,,,,,,,,,,,,,,,,,,,,,,,,,,,,,,,,,,,,,,,,,,,,,,,,,
,,66704327b46c7665de1190bc,2026-03-17_10h33.34.290,kallum_motion_pilot_GIST_update_2,2026.1.1,Win32,59.88023952,66704327b46c7665de1190bc,69b92ab4aef6dee357cd729a,69b92dbc7cf694d2ee2a55f6,0.037,0.037,0,40,40,21,1,threefour,,,,,,,,,,,,,,,,,,,,,,,,,,,,,,,,,,,,,,,,,,,,,,,,,,,,,,,,,,,,,,,,,,,,,,,,,,,,,,,,,,,,,,,,,,,,,,,,,,,,,,,,,,,,,,,,,,,,,,,,,,,,,,,,,,,,,,,,,
,,66704327b46c7665de1190bc,2026-03-17_10h33.34.290,kallum_motion_pilot_GIST_update_2,2026.1.1,Win32,59.88023952,66704327b46c7665de1190bc,69b92ab4aef6dee357cd729a,69b92dbc7cf694d2ee2a55f6,0.0372,0.0372,0,41,41,66,1,twoone,,,,,,,,,,,,,,,,,,,,,,,,,,,,,,,,,,,,,,,,,,,,,,,,,,,,,,,,,,,,,,,,,,,,,,,,,,,,,,,,,,,,,,,,,,,,,,,,,,,,,,,,,,,,,,,,,,,,,,,,,,,,,,,,,,,,,,,,,
,,66704327b46c7665de1190bc,2026-03-17_10h33.34.290,kallum_motion_pilot_GIST_update_2,2026.1.1,Win32,59.88023952,66704327b46c7665de1190bc,69b92ab4aef6dee357cd729a,69b92dbc7cf694d2ee2a55f6,0.0373,0.0373,0,42,42,13,1,threefour,,,,,,,,,,,,,,,,,,,,,,,,,,,,,,,,,,,,,,,,,,,,,,,,,,,,,,,,,,,,,,,,,,,,,,,,,,,,,,,,,,,,,,,,,,,,,,,,,,,,,,,,,,,,,,,,,,,,,,,,,,,,,,,,,,,,,,,,,
,,66704327b46c7665de1190bc,2026-03-17_10h33.34.290,kallum_motion_pilot_GIST_update_2,2026.1.1,Win32,59.88023952,66704327b46c7665de1190bc,69b92ab4aef6dee357cd729a,69b92dbc7cf694d2ee2a55f6,0.0374,0.0374,0,43,43,145,1,fiveseven,,,,,,,,,,,,,,,,,,,,,,,,,,,,,,,,,,,,,,,,,,,,,,,,,,,,,,,,,,,,,,,,,,,,,,,,,,,,,,,,,,,,,,,,,,,,,,,,,,,,,,,,,,,,,,,,,,,,,,,,,,,,,,,,,,,,,,,,,
,,66704327b46c7665de1190bc,2026-03-17_10h33.34.290,kallum_motion_pilot_GIST_update_2,2026.1.1,Win32,59.88023952,66704327b46c7665de1190bc,69b92ab4aef6dee357cd729a,69b92dbc7cf694d2ee2a55f6,0.0375,0.0375,0,44,44,10,1,twoone,,,,,,,,,,,,,,,,,,,,,,,,,,,,,,,,,,,,,,,,,,,,,,,,,,,,,,,,,,,,,,,,,,,,,,,,,,,,,,,,,,,,,,,,,,,,,,,,,,,,,,,,,,,,,,,,,,,,,,,,,,,,,,,,,,,,,,,,,
,,66704327b46c7665de1190bc,2026-03-17_10h33.34.290,kallum_motion_pilot_GIST_update_2,2026.1.1,Win32,59.88023952,66704327b46c7665de1190bc,69b92ab4aef6dee357cd729a,69b92dbc7cf694d2ee2a55f6,0.0376,0.0376,0,45,45,39,1,fourthree,,,,,,,,,,,,,,,,,,,,,,,,,,,,,,,,,,,,,,,,,,,,,,,,,,,,,,,,,,,,,,,,,,,,,,,,,,,,,,,,,,,,,,,,,,,,,,,,,,,,,,,,,,,,,,,,,,,,,,,,,,,,,,,,,,,,,,,,,
,,66704327b46c7665de1190bc,2026-03-17_10h33.34.290,kallum_motion_pilot_GIST_update_2,2026.1.1,Win32,59.88023952,66704327b46c7665de1190bc,69b92ab4aef6dee357cd729a,69b92dbc7cf694d2ee2a55f6,0.0377,0.0377,0,46,46,56,1,onetwo,,,,,,,,,,,,,,,,,,,,,,,,,,,,,,,,,,,,,,,,,,,,,,,,,,,,,,,,,,,,,,,,,,,,,,,,,,,,,,,,,,,,,,,,,,,,,,,,,,,,,,,,,,,,,,,,,,,,,,,,,,,,,,,,,,,,,,,,,
,,66704327b46c7665de1190bc,2026-03-17_10h33.34.290,kallum_motion_pilot_GIST_update_2,2026.1.1,Win32,59.88023952,66704327b46c7665de1190bc,69b92ab4aef6dee357cd729a,69b92dbc7cf694d2ee2a55f6,0.0378,0.0378,0,47,47,79,1,eightseven,,,,,,,,,,,,,,,,,,,,,,,,,,,,,,,,,,,,,,,,,,,,,,,,,,,,,,,,,,,,,,,,,,,,,,,,,,,,,,,,,,,,,,,,,,,,,,,,,,,,,,,,,,,,,,,,,,,,,,,,,,,,,,,,,,,,,,,,,
,,66704327b46c7665de1190bc,2026-03-17_10h33.34.290,kallum_motion_pilot_GIST_update_2,2026.1.1,Win32,59.88023952,66704327b46c7665de1190bc,69b92ab4aef6dee357cd729a,69b92dbc7cf694d2ee2a55f6,0.0379,0.0379,0,48,48,16,1,onetwo,,,,,,,,,,,,,,,,,,,,,,,,,,,,,,,,,,,,,,,,,,,,,,,,,,,,,,,,,,,,,,,,,,,,,,,,,,,,,,,,,,,,,,,,,,,,,,,,,,,,,,,,,,,,,,,,,,,,,,,,,,,,,,,,,,,,,,,,,
,,66704327b46c7665de1190bc,2026-03-17_10h33.34.290,kallum_motion_pilot_GIST_update_2,2026.1.1,Win32,59.88023952,66704327b46c7665de1190bc,69b92ab4aef6dee357cd729a,69b92dbc7cf694d2ee2a55f6,0.038,0.038,0,49,49,32,1,onetwo,,,,,,,,,,,,,,,,,,,,,,,,,,,,,,,,,,,,,,,,,,,,,,,,,,,,,,,,,,,,,,,,,,,,,,,,,,,,,,,,,,,,,,,,,,,,,,,,,,,,,,,,,,,,,,,,,,,,,,,,,,,,,,,,,,,,,,,,,
,,66704327b46c7665de1190bc,2026-03-17_10h33.34.290,kallum_motion_pilot_GIST_update_2,2026.1.1,Win32,59.88023952,66704327b46c7665de1190bc,69b92ab4aef6dee357cd729a,69b92dbc7cf694d2ee2a55f6,0.0382,0.0382,0,50,50,82,1,sixfive,,,,,,,,,,,,,,,,,,,,,,,,,,,,,,,,,,,,,,,,,,,,,,,,,,,,,,,,,,,,,,,,,,,,,,,,,,,,,,,,,,,,,,,,,,,,,,,,,,,,,,,,,,,,,,,,,,,,,,,,,,,,,,,,,,,,,,,,,
,,66704327b46c7665de1190bc,2026-03-17_10h33.34.290,kallum_motion_pilot_GIST_update_2,2026.1.1,Win32,59.88023952,66704327b46c7665de1190bc,69b92ab4aef6dee357cd729a,69b92dbc7cf694d2ee2a55f6,0.0382,0.0383,0,51,51,144,1,fivesix,,,,,,,,,,,,,,,,,,,,,,,,,,,,,,,,,,,,,,,,,,,,,,,,,,,,,,,,,,,,,,,,,,,,,,,,,,,,,,,,,,,,,,,,,,,,,,,,,,,,,,,,,,,,,,,,,,,,,,,,,,,,,,,,,,,,,,,,,
,,66704327b46c7665de1190bc,2026-03-17_10h33.34.290,kallum_motion_pilot_GIST_update_2,2026.1.1,Win32,59.88023952,66704327b46c7665de1190bc,69b92ab4aef6dee357cd729a,69b92dbc7cf694d2ee2a55f6,0.0383,0.0383,0,52,52,115,1,sixeight,,,,,,,,,,,,,,,,,,,,,,,,,,,,,,,,,,,,,,,,,,,,,,,,,,,,,,,,,,,,,,,,,,,,,,,,,,,,,,,,,,,,,,,,,,,,,,,,,,,,,,,,,,,,,,,,,,,,,,,,,,,,,,,,,,,,,,,,,
,,66704327b46c7665de1190bc,2026-03-17_10h33.34.290,kallum_motion_pilot_GIST_update_2,2026.1.1,Win32,59.88023952,66704327b46c7665de1190bc,69b92ab4aef6dee357cd729a,69b92dbc7cf694d2ee2a55f6,0.0384,0.0384,0,53,53,154,1,sixfive,,,,,,,,,,,,,,,,,,,,,,,,,,,,,,,,,,,,,,,,,,,,,,,,,,,,,,,,,,,,,,,,,,,,,,,,,,,,,,,,,,,,,,,,,,,,,,,,,,,,,,,,,,,,,,,,,,,,,,,,,,,,,,,,,,,,,,,,,
,,66704327b46c7665de1190bc,2026-03-17_10h33.34.290,kallum_motion_pilot_GIST_update_2,2026.1.1,Win32,59.88023952,66704327b46c7665de1190bc,69b92ab4aef6dee357cd729a,69b92dbc7cf694d2ee2a55f6,0.0385,0.0385,0,54,54,92,1,sevenfive,,,,,,,,,,,,,,,,,,,,,,,,,,,,,,,,,,,,,,,,,,,,,,,,,,,,,,,,,,,,,,,,,,,,,,,,,,,,,,,,,,,,,,,,,,,,,,,,,,,,,,,,,,,,,,,,,,,,,,,,,,,,,,,,,,,,,,,,,
,,66704327b46c7665de1190bc,2026-03-17_10h33.34.290,kallum_motion_pilot_GIST_update_2,2026.1.1,Win32,59.88023952,66704327b46c7665de1190bc,69b92ab4aef6dee357cd729a,69b92dbc7cf694d2ee2a55f6,0.0387,0.0387,0,55,55,45,1,threefour,,,,,,,,,,,,,,,,,,,,,,,,,,,,,,,,,,,,,,,,,,,,,,,,,,,,,,,,,,,,,,,,,,,,,,,,,,,,,,,,,,,,,,,,,,,,,,,,,,,,,,,,,,,,,,,,,,,,,,,,,,,,,,,,,,,,,,,,,
,,66704327b46c7665de1190bc,2026-03-17_10h33.34.290,kallum_motion_pilot_GIST_update_2,2026.1.1,Win32,59.88023952,66704327b46c7665de1190bc,69b92ab4aef6dee357cd729a,69b92dbc7cf694d2ee2a55f6,0.0387,0.0388,0,56,56,158,1,eightsix,,,,,,,,,,,,,,,,,,,,,,,,,,,,,,,,,,,,,,,,,,,,,,,,,,,,,,,,,,,,,,,,,,,,,,,,,,,,,,,,,,,,,,,,,,,,,,,,,,,,,,,,,,,,,,,,,,,,,,,,,,,,,,,,,,,,,,,,,
,,66704327b46c7665de1190bc,2026-03-17_10h33.34.290,kallum_motion_pilot_GIST_update_2,2026.1.1,Win32,59.88023952,66704327b46c7665de1190bc,69b92ab4aef6dee357cd729a,69b92dbc7cf694d2ee2a55f6,0.0389,0.0389,0,57,57,91,1,sixeight,,,,,,,,,,,,,,,,,,,,,,,,,,,,,,,,,,,,,,,,,,,,,,,,,,,,,,,,,,,,,,,,,,,,,,,,,,,,,,,,,,,,,,,,,,,,,,,,,,,,,,,,,,,,,,,,,,,,,,,,,,,,,,,,,,,,,,,,,
,,66704327b46c7665de1190bc,2026-03-17_10h33.34.290,kallum_motion_pilot_GIST_update_2,2026.1.1,Win32,59.88023952,66704327b46c7665de1190bc,69b92ab4aef6dee357cd729a,69b92dbc7cf694d2ee2a55f6,0.0391,0.0392,0,58,58,150,1,eightsix,,,,,,,,,,,,,,,,,,,,,,,,,,,,,,,,,,,,,,,,,,,,,,,,,,,,,,,,,,,,,,,,,,,,,,,,,,,,,,,,,,,,,,,,,,,,,,,,,,,,,,,,,,,,,,,,,,,,,,,,,,,,,,,,,,,,,,,,,
,,66704327b46c7665de1190bc,2026-03-17_10h33.34.290,kallum_motion_pilot_GIST_update_2,2026.1.1,Win32,59.88023952,66704327b46c7665de1190bc,69b92ab4aef6dee357cd729a,69b92dbc7cf694d2ee2a55f6,0.0394,0.0394,0,59,59,136,1,fivesix,,,,,,,,,,,,,,,,,,,,,,,,,,,,,,,,,,,,,,,,,,,,,,,,,,,,,,,,,,,,,,,,,,,,,,,,,,,,,,,,,,,,,,,,,,,,,,,,,,,,,,,,,,,,,,,,,,,,,,,,,,,,,,,,,,,,,,,,,
,,66704327b46c7665de1190bc,2026-03-17_10h33.34.290,kallum_motion_pilot_GIST_update_2,2026.1.1,Win32,59.88023952,66704327b46c7665de1190bc,69b92ab4aef6dee357cd729a,69b92dbc7cf694d2ee2a55f6,0.0395,0.0395,0,60,60,50,1,twoone,,,,,,,,,,,,,,,,,,,,,,,,,,,,,,,,,,,,,,,,,,,,,,,,,,,,,,,,,,,,,,,,,,,,,,,,,,,,,,,,,,,,,,,,,,,,,,,,,,,,,,,,,,,,,,,,,,,,,,,,,,,,,,,,,,,,,,,,,
,,66704327b46c7665de1190bc,2026-03-17_10h33.34.290,kallum_motion_pilot_GIST_update_2,2026.1.1,Win32,59.88023952,66704327b46c7665de1190bc,69b92ab4aef6dee357cd729a,69b92dbc7cf694d2ee2a55f6,0.0397,0.0397,0,61,61,125,1,seveneight,,,,,,,,,,,,,,,,,,,,,,,,,,,,,,,,,,,,,,,,,,,,,,,,,,,,,,,,,,,,,,,,,,,,,,,,,,,,,,,,,,,,,,,,,,,,,,,,,,,,,,,,,,,,,,,,,,,,,,,,,,,,,,,,,,,,,,,,,
,,66704327b46c7665de1190bc,2026-03-17_10h33.34.290,kallum_motion_pilot_GIST_update_2,2026.1.1,Win32,59.88023952,66704327b46c7665de1190bc,69b92ab4aef6dee357cd729a,69b92dbc7cf694d2ee2a55f6,0.0398,0.0398,0,62,62,143,1,eightseven,,,,,,,,,,,,,,,,,,,,,,,,,,,,,,,,,,,,,,,,,,,,,,,,,,,,,,,,,,,,,,,,,,,,,,,,,,,,,,,,,,,,,,,,,,,,,,,,,,,,,,,,,,,,,,,,,,,,,,,,,,,,,,,,,,,,,,,,,
,,66704327b46c7665de1190bc,2026-03-17_10h33.34.290,kallum_motion_pilot_GIST_update_2,2026.1.1,Win32,59.88023952,66704327b46c7665de1190bc,69b92ab4aef6dee357cd729a,69b92dbc7cf694d2ee2a55f6,0.0401,0.0401,0,63,63,96,1,fivesix,,,,,,,,,,,,,,,,,,,,,,,,,,,,,,,,,,,,,,,,,,,,,,,,,,,,,,,,,,,,,,,,,,,,,,,,,,,,,,,,,,,,,,,,,,,,,,,,,,,,,,,,,,,,,,,,,,,,,,,,,,,,,,,,,,,,,,,,,
,,66704327b46c7665de1190bc,2026-03-17_10h33.34.290,kallum_motion_pilot_GIST_update_2,2026.1.1,Win32,59.88023952,66704327b46c7665de1190bc,69b92ab4aef6dee357cd729a,69b92dbc7cf694d2ee2a55f6,0.0403,0.0403,0,64,64,80,1,fivesix,,,,,,,,,,,,,,,,,,,,,,,,,,,,,,,,,,,,,,,,,,,,,,,,,,,,,,,,,,,,,,,,,,,,,,,,,,,,,,,,,,,,,,,,,,,,,,,,,,,,,,,,,,,,,,,,,,,,,,,,,,,,,,,,,,,,,,,,,
,,66704327b46c7665de1190bc,2026-03-17_10h33.34.290,kallum_motion_pilot_GIST_update_2,2026.1.1,Win32,59.88023952,66704327b46c7665de1190bc,69b92ab4aef6dee357cd729a,69b92dbc7cf694d2ee2a55f6,0.0405,0.0405,0,65,65,62,1,fourtwo,,,,,,,,,,,,,,,,,,,,,,,,,,,,,,,,,,,,,,,,,,,,,,,,,,,,,,,,,,,,,,,,,,,,,,,,,,,,,,,,,,,,,,,,,,,,,,,,,,,,,,,,,,,,,,,,,,,,,,,,,,,,,,,,,,,,,,,,,
,,66704327b46c7665de1190bc,2026-03-17_10h33.34.290,kallum_motion_pilot_GIST_update_2,2026.1.1,Win32,59.88023952,66704327b46c7665de1190bc,69b92ab4aef6dee357cd729a,69b92dbc7cf694d2ee2a55f6,0.0408,0.0408,0,66,66,53,1,threefour,,,,,,,,,,,,,,,,,,,,,,,,,,,,,,,,,,,,,,,,,,,,,,,,,,,,,,,,,,,,,,,,,,,,,,,,,,,,,,,,,,,,,,,,,,,,,,,,,,,,,,,,,,,,,,,,,,,,,,,,,,,,,,,,,,,,,,,,,
,,66704327b46c7665de1190bc,2026-03-17_10h33.34.290,kallum_motion_pilot_GIST_update_2,2026.1.1,Win32,59.88023952,66704327b46c7665de1190bc,69b92ab4aef6dee357cd729a,69b92dbc7cf694d2ee2a55f6,0.041,0.041,0,67,67,106,1,sixfive,,,,,,,,,,,,,,,,,,,,,,,,,,,,,,,,,,,,,,,,,,,,,,,,,,,,,,,,,,,,,,,,,,,,,,,,,,,,,,,,,,,,,,,,,,,,,,,,,,,,,,,,,,,,,,,,,,,,,,,,,,,,,,,,,,,,,,,,,
,,66704327b46c7665de1190bc,2026-03-17_10h33.34.290,kallum_motion_pilot_GIST_update_2,2026.1.1,Win32,59.88023952,66704327b46c7665de1190bc,69b92ab4aef6dee357cd729a,69b92dbc7cf694d2ee2a55f6,0.0412,0.0412,0,68,68,15,1,fourthree,,,,,,,,,,,,,,,,,,,,,,,,,,,,,,,,,,,,,,,,,,,,,,,,,,,,,,,,,,,,,,,,,,,,,,,,,,,,,,,,,,,,,,,,,,,,,,,,,,,,,,,,,,,,,,,,,,,,,,,,,,,,,,,,,,,,,,,,,
,,66704327b46c7665de1190bc,2026-03-17_10h33.34.290,kallum_motion_pilot_GIST_update_2,2026.1.1,Win32,59.88023952,66704327b46c7665de1190bc,69b92ab4aef6dee357cd729a,69b92dbc7cf694d2ee2a55f6,0.0414,0.0414,0,69,69,8,1,onetwo,,,,,,,,,,,,,,,,,,,,,,,,,,,,,,,,,,,,,,,,,,,,,,,,,,,,,,,,,,,,,,,,,,,,,,,,,,,,,,,,,,,,,,,,,,,,,,,,,,,,,,,,,,,,,,,,,,,,,,,,,,,,,,,,,,,,,,,,,
,,66704327b46c7665de1190bc,2026-03-17_10h33.34.290,kallum_motion_pilot_GIST_update_2,2026.1.1,Win32,59.88023952,66704327b46c7665de1190bc,69b92ab4aef6dee357cd729a,69b92dbc7cf694d2ee2a55f6,0.0416,0.0416,0,70,70,155,1,sixeight,,,,,,,,,,,,,,,,,,,,,,,,,,,,,,,,,,,,,,,,,,,,,,,,,,,,,,,,,,,,,,,,,,,,,,,,,,,,,,,,,,,,,,,,,,,,,,,,,,,,,,,,,,,,,,,,,,,,,,,,,,,,,,,,,,,,,,,,,
,,66704327b46c7665de1190bc,2026-03-17_10h33.34.290,kallum_motion_pilot_GIST_update_2,2026.1.1,Win32,59.88023952,66704327b46c7665de1190bc,69b92ab4aef6dee357cd729a,69b92dbc7cf694d2ee2a55f6,0.0417,0.0417,0,71,71,28,1,threeone,,,,,,,,,,,,,,,,,,,,,,,,,,,,,,,,,,,,,,,,,,,,,,,,,,,,,,,,,,,,,,,,,,,,,,,,,,,,,,,,,,,,,,,,,,,,,,,,,,,,,,,,,,,,,,,,,,,,,,,,,,,,,,,,,,,,,,,,,
,,66704327b46c7665de1190bc,2026-03-17_10h33.34.290,kallum_motion_pilot_GIST_update_2,2026.1.1,Win32,59.88023952,66704327b46c7665de1190bc,69b92ab4aef6dee357cd729a,69b92dbc7cf694d2ee2a55f6,0.0418,0.0418,0,72,72,61,1,threefour,,,,,,,,,,,,,,,,,,,,,,,,,,,,,,,,,,,,,,,,,,,,,,,,,,,,,,,,,,,,,,,,,,,,,,,,,,,,,,,,,,,,,,,,,,,,,,,,,,,,,,,,,,,,,,,,,,,,,,,,,,,,,,,,,,,,,,,,,
,,66704327b46c7665de1190bc,2026-03-17_10h33.34.290,kallum_motion_pilot_GIST_update_2,2026.1.1,Win32,59.88023952,66704327b46c7665de1190bc,69b92ab4aef6dee357cd729a,69b92dbc7cf694d2ee2a55f6,0.042,0.042,0,73,73,40,1,onetwo,,,,,,,,,,,,,,,,,,,,,,,,,,,,,,,,,,,,,,,,,,,,,,,,,,,,,,,,,,,,,,,,,,,,,,,,,,,,,,,,,,,,,,,,,,,,,,,,,,,,,,,,,,,,,,,,,,,,,,,,,,,,,,,,,,,,,,,,,
,,66704327b46c7665de1190bc,2026-03-17_10h33.34.290,kallum_motion_pilot_GIST_update_2,2026.1.1,Win32,59.88023952,66704327b46c7665de1190bc,69b92ab4aef6dee357cd729a,69b92dbc7cf694d2ee2a55f6,0.0422,0.0422,0,74,74,76,1,threeone,,,,,,,,,,,,,,,,,,,,,,,,,,,,,,,,,,,,,,,,,,,,,,,,,,,,,,,,,,,,,,,,,,,,,,,,,,,,,,,,,,,,,,,,,,,,,,,,,,,,,,,,,,,,,,,,,,,,,,,,,,,,,,,,,,,,,,,,,
,,66704327b46c7665de1190bc,2026-03-17_10h33.34.290,kallum_motion_pilot_GIST_update_2,2026.1.1,Win32,59.88023952,66704327b46c7665de1190bc,69b92ab4aef6dee357cd729a,69b92dbc7cf694d2ee2a55f6,0.0423,0.0423,0,75,75,38,1,fourtwo,,,,,,,,,,,,,,,,,,,,,,,,,,,,,,,,,,,,,,,,,,,,,,,,,,,,,,,,,,,,,,,,,,,,,,,,,,,,,,,,,,,,,,,,,,,,,,,,,,,,,,,,,,,,,,,,,,,,,,,,,,,,,,,,,,,,,,,,,
,,66704327b46c7665de1190bc,2026-03-17_10h33.34.290,kallum_motion_pilot_GIST_update_2,2026.1.1,Win32,59.88023952,66704327b46c7665de1190bc,69b92ab4aef6dee357cd729a,69b92dbc7cf694d2ee2a55f6,0.0424,0.0424,0,76,76,135,1,eightseven,,,,,,,,,,,,,,,,,,,,,,,,,,,,,,,,,,,,,,,,,,,,,,,,,,,,,,,,,,,,,,,,,,,,,,,,,,,,,,,,,,,,,,,,,,,,,,,,,,,,,,,,,,,,,,,,,,,,,,,,,,,,,,,,,,,,,,,,,
,,66704327b46c7665de1190bc,2026-03-17_10h33.34.290,kallum_motion_pilot_GIST_update_2,2026.1.1,Win32,59.88023952,66704327b46c7665de1190bc,69b92ab4aef6dee357cd729a,69b92dbc7cf694d2ee2a55f6,0.0425,0.0425,0,77,77,101,1,seveneight,,,,,,,,,,,,,,,,,,,,,,,,,,,,,,,,,,,,,,,,,,,,,,,,,,,,,,,,,,,,,,,,,,,,,,,,,,,,,,,,,,,,,,,,,,,,,,,,,,,,,,,,,,,,,,,,,,,,,,,,,,,,,,,,,,,,,,,,,
,,66704327b46c7665de1190bc,2026-03-17_10h33.34.290,kallum_motion_pilot_GIST_update_2,2026.1.1,Win32,59.88023952,66704327b46c7665de1190bc,69b92ab4aef6dee357cd729a,69b92dbc7cf694d2ee2a55f6,0.0427,0.0427,0,78,78,59,1,twofour,,,,,,,,,,,,,,,,,,,,,,,,,,,,,,,,,,,,,,,,,,,,,,,,,,,,,,,,,,,,,,,,,,,,,,,,,,,,,,,,,,,,,,,,,,,,,,,,,,,,,,,,,,,,,,,,,,,,,,,,,,,,,,,,,,,,,,,,,
,,66704327b46c7665de1190bc,2026-03-17_10h33.34.290,kallum_motion_pilot_GIST_update_2,2026.1.1,Win32,59.88023952,66704327b46c7665de1190bc,69b92ab4aef6dee357cd729a,69b92dbc7cf694d2ee2a55f6,0.0428,0.0428,0,79,79,110,1,eightsix,,,,,,,,,,,,,,,,,,,,,,,,,,,,,,,,,,,,,,,,,,,,,,,,,,,,,,,,,,,,,,,,,,,,,,,,,,,,,,,,,,,,,,,,,,,,,,,,,,,,,,,,,,,,,,,,,,,,,,,,,,,,,,,,,,,,,,,,,
,,66704327b46c7665de1190bc,2026-03-17_10h33.34.290,kallum_motion_pilot_GIST_update_2,2026.1.1,Win32,59.88023952,66704327b46c7665de1190bc,69b92ab4aef6dee357cd729a,69b92dbc7cf694d2ee2a55f6,0.0429,0.0429,0,80,80,74,1,twoone,,,,,,,,,,,,,,,,,,,,,,,,,,,,,,,,,,,,,,,,,,,,,,,,,,,,,,,,,,,,,,,,,,,,,,,,,,,,,,,,,,,,,,,,,,,,,,,,,,,,,,,,,,,,,,,,,,,,,,,,,,,,,,,,,,,,,,,,,
,,66704327b46c7665de1190bc,2026-03-17_10h33.34.290,kallum_motion_pilot_GIST_update_2,2026.1.1,Win32,59.88023952,66704327b46c7665de1190bc,69b92ab4aef6dee357cd729a,69b92dbc7cf694d2ee2a55f6,0.043,0.043,0,81,81,6,1,fourtwo,,,,,,,,,,,,,,,,,,,,,,,,,,,,,,,,,,,,,,,,,,,,,,,,,,,,,,,,,,,,,,,,,,,,,,,,,,,,,,,,,,,,,,,,,,,,,,,,,,,,,,,,,,,,,,,,,,,,,,,,,,,,,,,,,,,,,,,,,
,,66704327b46c7665de1190bc,2026-03-17_10h33.34.290,kallum_motion_pilot_GIST_update_2,2026.1.1,Win32,59.88023952,66704327b46c7665de1190bc,69b92ab4aef6dee357cd729a,69b92dbc7cf694d2ee2a55f6,0.0432,0.0432,0,82,82,111,1,eightseven,,,,,,,,,,,,,,,,,,,,,,,,,,,,,,,,,,,,,,,,,,,,,,,,,,,,,,,,,,,,,,,,,,,,,,,,,,,,,,,,,,,,,,,,,,,,,,,,,,,,,,,,,,,,,,,,,,,,,,,,,,,,,,,,,,,,,,,,,
,,66704327b46c7665de1190bc,2026-03-17_10h33.34.290,kallum_motion_pilot_GIST_update_2,2026.1.1,Win32,59.88023952,66704327b46c7665de1190bc,69b92ab4aef6dee357cd729a,69b92dbc7cf694d2ee2a55f6,0.0433,0.0433,0,83,83,72,1,onetwo,,,,,,,,,,,,,,,,,,,,,,,,,,,,,,,,,,,,,,,,,,,,,,,,,,,,,,,,,,,,,,,,,,,,,,,,,,,,,,,,,,,,,,,,,,,,,,,,,,,,,,,,,,,,,,,,,,,,,,,,,,,,,,,,,,,,,,,,,
,,66704327b46c7665de1190bc,2026-03-17_10h33.34.290,kallum_motion_pilot_GIST_update_2,2026.1.1,Win32,59.88023952,66704327b46c7665de1190bc,69b92ab4aef6dee357cd729a,69b92dbc7cf694d2ee2a55f6,0.0434,0.0434,0,84,84,44,1,threeone,,,,,,,,,,,,,,,,,,,,,,,,,,,,,,,,,,,,,,,,,,,,,,,,,,,,,,,,,,,,,,,,,,,,,,,,,,,,,,,,,,,,,,,,,,,,,,,,,,,,,,,,,,,,,,,,,,,,,,,,,,,,,,,,,,,,,,,,,
,,66704327b46c7665de1190bc,2026-03-17_10h33.34.290,kallum_motion_pilot_GIST_update_2,2026.1.1,Win32,59.88023952,66704327b46c7665de1190bc,69b92ab4aef6dee357cd729a,69b92dbc7cf694d2ee2a55f6,0.0435,0.0435,0,85,85,68,1,threeone,,,,,,,,,,,,,,,,,,,,,,,,,,,,,,,,,,,,,,,,,,,,,,,,,,,,,,,,,,,,,,,,,,,,,,,,,,,,,,,,,,,,,,,,,,,,,,,,,,,,,,,,,,,,,,,,,,,,,,,,,,,,,,,,,,,,,,,,,
,,66704327b46c7665de1190bc,2026-03-17_10h33.34.290,kallum_motion_pilot_GIST_update_2,2026.1.1,Win32,59.88023952,66704327b46c7665de1190bc,69b92ab4aef6dee357cd729a,69b92dbc7cf694d2ee2a55f6,0.0436,0.0436,0,86,86,5,1,threefour,,,,,,,,,,,,,,,,,,,,,,,,,,,,,,,,,,,,,,,,,,,,,,,,,,,,,,,,,,,,,,,,,,,,,,,,,,,,,,,,,,,,,,,,,,,,,,,,,,,,,,,,,,,,,,,,,,,,,,,,,,,,,,,,,,,,,,,,,
,,66704327b46c7665de1190bc,2026-03-17_10h33.34.290,kallum_motion_pilot_GIST_update_2,2026.1.1,Win32,59.88023952,66704327b46c7665de1190bc,69b92ab4aef6dee357cd729a,69b92dbc7cf694d2ee2a55f6,0.0438,0.0438,0,87,87,152,1,fivesix,,,,,,,,,,,,,,,,,,,,,,,,,,,,,,,,,,,,,,,,,,,,,,,,,,,,,,,,,,,,,,,,,,,,,,,,,,,,,,,,,,,,,,,,,,,,,,,,,,,,,,,,,,,,,,,,,,,,,,,,,,,,,,,,,,,,,,,,,
,,66704327b46c7665de1190bc,2026-03-17_10h33.34.290,kallum_motion_pilot_GIST_update_2,2026.1.1,Win32,59.88023952,66704327b46c7665de1190bc,69b92ab4aef6dee357cd729a,69b92dbc7cf694d2ee2a55f6,0.0438,0.0438,0,88,88,75,1,twofour,,,,,,,,,,,,,,,,,,,,,,,,,,,,,,,,,,,,,,,,,,,,,,,,,,,,,,,,,,,,,,,,,,,,,,,,,,,,,,,,,,,,,,,,,,,,,,,,,,,,,,,,,,,,,,,,,,,,,,,,,,,,,,,,,,,,,,,,,
,,66704327b46c7665de1190bc,2026-03-17_10h33.34.290,kallum_motion_pilot_GIST_update_2,2026.1.1,Win32,59.88023952,66704327b46c7665de1190bc,69b92ab4aef6dee357cd729a,69b92dbc7cf694d2ee2a55f6,0.044,0.044,0,89,89,113,1,fiveseven,,,,,,,,,,,,,,,,,,,,,,,,,,,,,,,,,,,,,,,,,,,,,,,,,,,,,,,,,,,,,,,,,,,,,,,,,,,,,,,,,,,,,,,,,,,,,,,,,,,,,,,,,,,,,,,,,,,,,,,,,,,,,,,,,,,,,,,,,
,,66704327b46c7665de1190bc,2026-03-17_10h33.34.290,kallum_motion_pilot_GIST_update_2,2026.1.1,Win32,59.88023952,66704327b46c7665de1190bc,69b92ab4aef6dee357cd729a,69b92dbc7cf694d2ee2a55f6,0.0441,0.0441,0,90,90,124,1,sevenfive,,,,,,,,,,,,,,,,,,,,,,,,,,,,,,,,,,,,,,,,,,,,,,,,,,,,,,,,,,,,,,,,,,,,,,,,,,,,,,,,,,,,,,,,,,,,,,,,,,,,,,,,,,,,,,,,,,,,,,,,,,,,,,,,,,,,,,,,,
,,66704327b46c7665de1190bc,2026-03-17_10h33.34.290,kallum_motion_pilot_GIST_update_2,2026.1.1,Win32,59.88023952,66704327b46c7665de1190bc,69b92ab4aef6dee357cd729a,69b92dbc7cf694d2ee2a55f6,0.0442,0.0442,0,91,91,86,1,eightsix,,,,,,,,,,,,,,,,,,,,,,,,,,,,,,,,,,,,,,,,,,,,,,,,,,,,,,,,,,,,,,,,,,,,,,,,,,,,,,,,,,,,,,,,,,,,,,,,,,,,,,,,,,,,,,,,,,,,,,,,,,,,,,,,,,,,,,,,,
,,66704327b46c7665de1190bc,2026-03-17_10h33.34.290,kallum_motion_pilot_GIST_update_2,2026.1.1,Win32,59.88023952,66704327b46c7665de1190bc,69b92ab4aef6dee357cd729a,69b92dbc7cf694d2ee2a55f6,0.0444,0.0444,0,92,92,132,1,sevenfive,,,,,,,,,,,,,,,,,,,,,,,,,,,,,,,,,,,,,,,,,,,,,,,,,,,,,,,,,,,,,,,,,,,,,,,,,,,,,,,,,,,,,,,,,,,,,,,,,,,,,,,,,,,,,,,,,,,,,,,,,,,,,,,,,,,,,,,,,
,,66704327b46c7665de1190bc,2026-03-17_10h33.34.290,kallum_motion_pilot_GIST_update_2,2026.1.1,Win32,59.88023952,66704327b46c7665de1190bc,69b92ab4aef6dee357cd729a,69b92dbc7cf694d2ee2a55f6,0.0445,0.0445,0,93,93,2,1,twoone,,,,,,,,,,,,,,,,,,,,,,,,,,,,,,,,,,,,,,,,,,,,,,,,,,,,,,,,,,,,,,,,,,,,,,,,,,,,,,,,,,,,,,,,,,,,,,,,,,,,,,,,,,,,,,,,,,,,,,,,,,,,,,,,,,,,,,,,,
,,66704327b46c7665de1190bc,2026-03-17_10h33.34.290,kallum_motion_pilot_GIST_update_2,2026.1.1,Win32,59.88023952,66704327b46c7665de1190bc,69b92ab4aef6dee357cd729a,69b92dbc7cf694d2ee2a55f6,0.0447,0.0447,0,94,94,14,1,fourtwo,,,,,,,,,,,,,,,,,,,,,,,,,,,,,,,,,,,,,,,,,,,,,,,,,,,,,,,,,,,,,,,,,,,,,,,,,,,,,,,,,,,,,,,,,,,,,,,,,,,,,,,,,,,,,,,,,,,,,,,,,,,,,,,,,,,,,,,,,
,,66704327b46c7665de1190bc,2026-03-17_10h33.34.290,kallum_motion_pilot_GIST_update_2,2026.1.1,Win32,59.88023952,66704327b46c7665de1190bc,69b92ab4aef6dee357cd729a,69b92dbc7cf694d2ee2a55f6,0.0447,0.0447,0,95,95,17,1,onethree,,,,,,,,,,,,,,,,,,,,,,,,,,,,,,,,,,,,,,,,,,,,,,,,,,,,,,,,,,,,,,,,,,,,,,,,,,,,,,,,,,,,,,,,,,,,,,,,,,,,,,,,,,,,,,,,,,,,,,,,,,,,,,,,,,,,,,,,,
,,66704327b46c7665de1190bc,2026-03-17_10h33.34.290,kallum_motion_pilot_GIST_update_2,2026.1.1,Win32,59.88023952,66704327b46c7665de1190bc,69b92ab4aef6dee357cd729a,69b92dbc7cf694d2ee2a55f6,0.0448,0.0448,0,96,96,127,1,eightseven,,,,,,,,,,,,,,,,,,,,,,,,,,,,,,,,,,,,,,,,,,,,,,,,,,,,,,,,,,,,,,,,,,,,,,,,,,,,,,,,,,,,,,,,,,,,,,,,,,,,,,,,,,,,,,,,,,,,,,,,,,,,,,,,,,,,,,,,,
,,66704327b46c7665de1190bc,2026-03-17_10h33.34.290,kallum_motion_pilot_GIST_update_2,2026.1.1,Win32,59.88023952,66704327b46c7665de1190bc,69b92ab4aef6dee357cd729a,69b92dbc7cf694d2ee2a55f6,0.0449,0.045,0,97,97,156,1,sevenfive,,,,,,,,,,,,,,,,,,,,,,,,,,,,,,,,,,,,,,,,,,,,,,,,,,,,,,,,,,,,,,,,,,,,,,,,,,,,,,,,,,,,,,,,,,,,,,,,,,,,,,,,,,,,,,,,,,,,,,,,,,,,,,,,,,,,,,,,,
,,66704327b46c7665de1190bc,2026-03-17_10h33.34.290,kallum_motion_pilot_GIST_update_2,2026.1.1,Win32,59.88023952,66704327b46c7665de1190bc,69b92ab4aef6dee357cd729a,69b92dbc7cf694d2ee2a55f6,0.0451,0.0451,0,98,98,134,1,eightsix,,,,,,,,,,,,,,,,,,,,,,,,,,,,,,,,,,,,,,,,,,,,,,,,,,,,,,,,,,,,,,,,,,,,,,,,,,,,,,,,,,,,,,,,,,,,,,,,,,,,,,,,,,,,,,,,,,,,,,,,,,,,,,,,,,,,,,,,,
,,66704327b46c7665de1190bc,2026-03-17_10h33.34.290,kallum_motion_pilot_GIST_update_2,2026.1.1,Win32,59.88023952,66704327b46c7665de1190bc,69b92ab4aef6dee357cd729a,69b92dbc7cf694d2ee2a55f6,0.0452,0.0452,0,99,99,36,1,threeone,,,,,,,,,,,,,,,,,,,,,,,,,,,,,,,,,,,,,,,,,,,,,,,,,,,,,,,,,,,,,,,,,,,,,,,,,,,,,,,,,,,,,,,,,,,,,,,,,,,,,,,,,,,,,,,,,,,,,,,,,,,,,,,,,,,,,,,,,
,,66704327b46c7665de1190bc,2026-03-17_10h33.34.290,kallum_motion_pilot_GIST_update_2,2026.1.1,Win32,59.88023952,66704327b46c7665de1190bc,69b92ab4aef6dee357cd729a,69b92dbc7cf694d2ee2a55f6,0.0454,0.0454,0,100,100,12,1,threeone,,,,,,,,,,,,,,,,,,,,,,,,,,,,,,,,,,,,,,,,,,,,,,,,,,,,,,,,,,,,,,,,,,,,,,,,,,,,,,,,,,,,,,,,,,,,,,,,,,,,,,,,,,,,,,,,,,,,,,,,,,,,,,,,,,,,,,,,,
,,66704327b46c7665de1190bc,2026-03-17_10h33.34.290,kallum_motion_pilot_GIST_update_2,2026.1.1,Win32,59.88023952,66704327b46c7665de1190bc,69b92ab4aef6dee357cd729a,69b92dbc7cf694d2ee2a55f6,0.0455,0.0455,0,101,101,7,1,fourthree,,,,,,,,,,,,,,,,,,,,,,,,,,,,,,,,,,,,,,,,,,,,,,,,,,,,,,,,,,,,,,,,,,,,,,,,,,,,,,,,,,,,,,,,,,,,,,,,,,,,,,,,,,,,,,,,,,,,,,,,,,,,,,,,,,,,,,,,,
,,66704327b46c7665de1190bc,2026-03-17_10h33.34.290,kallum_motion_pilot_GIST_update_2,2026.1.1,Win32,59.88023952,66704327b46c7665de1190bc,69b92ab4aef6dee357cd729a,69b92dbc7cf694d2ee2a55f6,0.0456,0.0456,0,102,102,54,1,fourtwo,,,,,,,,,,,,,,,,,,,,,,,,,,,,,,,,,,,,,,,,,,,,,,,,,,,,,,,,,,,,,,,,,,,,,,,,,,,,,,,,,,,,,,,,,,,,,,,,,,,,,,,,,,,,,,,,,,,,,,,,,,,,,,,,,,,,,,,,,
,,66704327b46c7665de1190bc,2026-03-17_10h33.34.290,kallum_motion_pilot_GIST_update_2,2026.1.1,Win32,59.88023952,66704327b46c7665de1190bc,69b92ab4aef6dee357cd729a,69b92dbc7cf694d2ee2a55f6,0.0457,0.0457,0,103,103,157,1,seveneight,,,,,,,,,,,,,,,,,,,,,,,,,,,,,,,,,,,,,,,,,,,,,,,,,,,,,,,,,,,,,,,,,,,,,,,,,,,,,,,,,,,,,,,,,,,,,,,,,,,,,,,,,,,,,,,,,,,,,,,,,,,,,,,,,,,,,,,,,
,,66704327b46c7665de1190bc,2026-03-17_10h33.34.290,kallum_motion_pilot_GIST_update_2,2026.1.1,Win32,59.88023952,66704327b46c7665de1190bc,69b92ab4aef6dee357cd729a,69b92dbc7cf694d2ee2a55f6,0.0458,0.0458,0,104,104,65,1,onethree,,,,,,,,,,,,,,,,,,,,,,,,,,,,,,,,,,,,,,,,,,,,,,,,,,,,,,,,,,,,,,,,,,,,,,,,,,,,,,,,,,,,,,,,,,,,,,,,,,,,,,,,,,,,,,,,,,,,,,,,,,,,,,,,,,,,,,,,,
,,66704327b46c7665de1190bc,2026-03-17_10h33.34.290,kallum_motion_pilot_GIST_update_2,2026.1.1,Win32,59.88023952,66704327b46c7665de1190bc,69b92ab4aef6dee357cd729a,69b92dbc7cf694d2ee2a55f6,0.0459,0.0459,0,105,105,49,1,onethree,,,,,,,,,,,,,,,,,,,,,,,,,,,,,,,,,,,,,,,,,,,,,,,,,,,,,,,,,,,,,,,,,,,,,,,,,,,,,,,,,,,,,,,,,,,,,,,,,,,,,,,,,,,,,,,,,,,,,,,,,,,,,,,,,,,,,,,,,
,,66704327b46c7665de1190bc,2026-03-17_10h33.34.290,kallum_motion_pilot_GIST_update_2,2026.1.1,Win32,59.88023952,66704327b46c7665de1190bc,69b92ab4aef6dee357cd729a,69b92dbc7cf694d2ee2a55f6,0.046,0.046,0,106,106,34,1,twoone,,,,,,,,,,,,,,,,,,,,,,,,,,,,,,,,,,,,,,,,,,,,,,,,,,,,,,,,,,,,,,,,,,,,,,,,,,,,,,,,,,,,,,,,,,,,,,,,,,,,,,,,,,,,,,,,,,,,,,,,,,,,,,,,,,,,,,,,,
,,66704327b46c7665de1190bc,2026-03-17_10h33.34.290,kallum_motion_pilot_GIST_update_2,2026.1.1,Win32,59.88023952,66704327b46c7665de1190bc,69b92ab4aef6dee357cd729a,69b92dbc7cf694d2ee2a55f6,0.0462,0.0462,0,107,107,69,1,threefour,,,,,,,,,,,,,,,,,,,,,,,,,,,,,,,,,,,,,,,,,,,,,,,,,,,,,,,,,,,,,,,,,,,,,,,,,,,,,,,,,,,,,,,,,,,,,,,,,,,,,,,,,,,,,,,,,,,,,,,,,,,,,,,,,,,,,,,,,
,,66704327b46c7665de1190bc,2026-03-17_10h33.34.290,kallum_motion_pilot_GIST_update_2,2026.1.1,Win32,59.88023952,66704327b46c7665de1190bc,69b92ab4aef6dee357cd729a,69b92dbc7cf694d2ee2a55f6,0.0463,0.0463,0,108,108,122,1,sixfive,,,,,,,,,,,,,,,,,,,,,,,,,,,,,,,,,,,,,,,,,,,,,,,,,,,,,,,,,,,,,,,,,,,,,,,,,,,,,,,,,,,,,,,,,,,,,,,,,,,,,,,,,,,,,,,,,,,,,,,,,,,,,,,,,,,,,,,,,
,,66704327b46c7665de1190bc,2026-03-17_10h33.34.290,kallum_motion_pilot_GIST_update_2,2026.1.1,Win32,59.88023952,66704327b46c7665de1190bc,69b92ab4aef6dee357cd729a,69b92dbc7cf694d2ee2a55f6,0.0465,0.0465,0,109,109,118,1,eightsix,,,,,,,,,,,,,,,,,,,,,,,,,,,,,,,,,,,,,,,,,,,,,,,,,,,,,,,,,,,,,,,,,,,,,,,,,,,,,,,,,,,,,,,,,,,,,,,,,,,,,,,,,,,,,,,,,,,,,,,,,,,,,,,,,,,,,,,,,
,,66704327b46c7665de1190bc,2026-03-17_10h33.34.290,kallum_motion_pilot_GIST_update_2,2026.1.1,Win32,59.88023952,66704327b46c7665de1190bc,69b92ab4aef6dee357cd729a,69b92dbc7cf694d2ee2a55f6,0.0466,0.0466,0,110,110,103,1,eightseven,,,,,,,,,,,,,,,,,,,,,,,,,,,,,,,,,,,,,,,,,,,,,,,,,,,,,,,,,,,,,,,,,,,,,,,,,,,,,,,,,,,,,,,,,,,,,,,,,,,,,,,,,,,,,,,,,,,,,,,,,,,,,,,,,,,,,,,,,
,,66704327b46c7665de1190bc,2026-03-17_10h33.34.290,kallum_motion_pilot_GIST_update_2,2026.1.1,Win32,59.88023952,66704327b46c7665de1190bc,69b92ab4aef6dee357cd729a,69b92dbc7cf694d2ee2a55f6,0.0466,0.0466,0,111,111,119,1,eightseven,,,,,,,,,,,,,,,,,,,,,,,,,,,,,,,,,,,,,,,,,,,,,,,,,,,,,,,,,,,,,,,,,,,,,,,,,,,,,,,,,,,,,,,,,,,,,,,,,,,,,,,,,,,,,,,,,,,,,,,,,,,,,,,,,,,,,,,,,
,,66704327b46c7665de1190bc,2026-03-17_10h33.34.290,kallum_motion_pilot_GIST_update_2,2026.1.1,Win32,59.88023952,66704327b46c7665de1190bc,69b92ab4aef6dee357cd729a,69b92dbc7cf694d2ee2a55f6,0.0468,0.0468,0,112,112,70,1,fourtwo,,,,,,,,,,,,,,,,,,,,,,,,,,,,,,,,,,,,,,,,,,,,,,,,,,,,,,,,,,,,,,,,,,,,,,,,,,,,,,,,,,,,,,,,,,,,,,,,,,,,,,,,,,,,,,,,,,,,,,,,,,,,,,,,,,,,,,,,,
,,66704327b46c7665de1190bc,2026-03-17_10h33.34.290,kallum_motion_pilot_GIST_update_2,2026.1.1,Win32,59.88023952,66704327b46c7665de1190bc,69b92ab4aef6dee357cd729a,69b92dbc7cf694d2ee2a55f6,0.0469,0.0469,0,113,113,29,1,threefour,,,,,,,,,,,,,,,,,,,,,,,,,,,,,,,,,,,,,,,,,,,,,,,,,,,,,,,,,,,,,,,,,,,,,,,,,,,,,,,,,,,,,,,,,,,,,,,,,,,,,,,,,,,,,,,,,,,,,,,,,,,,,,,,,,,,,,,,,
,,66704327b46c7665de1190bc,2026-03-17_10h33.34.290,kallum_motion_pilot_GIST_update_2,2026.1.1,Win32,59.88023952,66704327b46c7665de1190bc,69b92ab4aef6dee357cd729a,69b92dbc7cf694d2ee2a55f6,0.047,0.047,0,114,114,130,1,sixfive,,,,,,,,,,,,,,,,,,,,,,,,,,,,,,,,,,,,,,,,,,,,,,,,,,,,,,,,,,,,,,,,,,,,,,,,,,,,,,,,,,,,,,,,,,,,,,,,,,,,,,,,,,,,,,,,,,,,,,,,,,,,,,,,,,,,,,,,,
,,66704327b46c7665de1190bc,2026-03-17_10h33.34.290,kallum_motion_pilot_GIST_update_2,2026.1.1,Win32,59.88023952,66704327b46c7665de1190bc,69b92ab4aef6dee357cd729a,69b92dbc7cf694d2ee2a55f6,0.0471,0.0471,0,115,115,31,1,fourthree,,,,,,,,,,,,,,,,,,,,,,,,,,,,,,,,,,,,,,,,,,,,,,,,,,,,,,,,,,,,,,,,,,,,,,,,,,,,,,,,,,,,,,,,,,,,,,,,,,,,,,,,,,,,,,,,,,,,,,,,,,,,,,,,,,,,,,,,,
,,66704327b46c7665de1190bc,2026-03-17_10h33.34.290,kallum_motion_pilot_GIST_update_2,2026.1.1,Win32,59.88023952,66704327b46c7665de1190bc,69b92ab4aef6dee357cd729a,69b92dbc7cf694d2ee2a55f6,0.0472,0.0472,0,116,116,71,1,fourthree,,,,,,,,,,,,,,,,,,,,,,,,,,,,,,,,,,,,,,,,,,,,,,,,,,,,,,,,,,,,,,,,,,,,,,,,,,,,,,,,,,,,,,,,,,,,,,,,,,,,,,,,,,,,,,,,,,,,,,,,,,,,,,,,,,,,,,,,,
,,66704327b46c7665de1190bc,2026-03-17_10h33.34.290,kallum_motion_pilot_GIST_update_2,2026.1.1,Win32,59.88023952,66704327b46c7665de1190bc,69b92ab4aef6dee357cd729a,69b92dbc7cf694d2ee2a55f6,0.0475,0.0475,0,117,117,142,1,eightsix,,,,,,,,,,,,,,,,,,,,,,,,,,,,,,,,,,,,,,,,,,,,,,,,,,,,,,,,,,,,,,,,,,,,,,,,,,,,,,,,,,,,,,,,,,,,,,,,,,,,,,,,,,,,,,,,,,,,,,,,,,,,,,,,,,,,,,,,,
,,66704327b46c7665de1190bc,2026-03-17_10h33.34.290,kallum_motion_pilot_GIST_update_2,2026.1.1,Win32,59.88023952,66704327b46c7665de1190bc,69b92ab4aef6dee357cd729a,69b92dbc7cf694d2ee2a55f6,0.0477,0.0477,0,118,118,105,1,fiveseven,,,,,,,,,,,,,,,,,,,,,,,,,,,,,,,,,,,,,,,,,,,,,,,,,,,,,,,,,,,,,,,,,,,,,,,,,,,,,,,,,,,,,,,,,,,,,,,,,,,,,,,,,,,,,,,,,,,,,,,,,,,,,,,,,,,,,,,,,
,,66704327b46c7665de1190bc,2026-03-17_10h33.34.290,kallum_motion_pilot_GIST_update_2,2026.1.1,Win32,59.88023952,66704327b46c7665de1190bc,69b92ab4aef6dee357cd729a,69b92dbc7cf694d2ee2a55f6,0.0478,0.0478,0,119,119,138,1,sixfive,,,,,,,,,,,,,,,,,,,,,,,,,,,,,,,,,,,,,,,,,,,,,,,,,,,,,,,,,,,,,,,,,,,,,,,,,,,,,,,,,,,,,,,,,,,,,,,,,,,,,,,,,,,,,,,,,,,,,,,,,,,,,,,,,,,,,,,,,
,,66704327b46c7665de1190bc,2026-03-17_10h33.34.290,kallum_motion_pilot_GIST_update_2,2026.1.1,Win32,59.88023952,66704327b46c7665de1190bc,69b92ab4aef6dee357cd729a,69b92dbc7cf694d2ee2a55f6,0.048,0.048,0,120,120,81,1,fiveseven,,,,,,,,,,,,,,,,,,,,,,,,,,,,,,,,,,,,,,,,,,,,,,,,,,,,,,,,,,,,,,,,,,,,,,,,,,,,,,,,,,,,,,,,,,,,,,,,,,,,,,,,,,,,,,,,,,,,,,,,,,,,,,,,,,,,,,,,,
,,66704327b46c7665de1190bc,2026-03-17_10h33.34.290,kallum_motion_pilot_GIST_update_2,2026.1.1,Win32,59.88023952,66704327b46c7665de1190bc,69b92ab4aef6dee357cd729a,69b92dbc7cf694d2ee2a55f6,0.0482,0.0482,0,121,121,133,1,seveneight,,,,,,,,,,,,,,,,,,,,,,,,,,,,,,,,,,,,,,,,,,,,,,,,,,,,,,,,,,,,,,,,,,,,,,,,,,,,,,,,,,,,,,,,,,,,,,,,,,,,,,,,,,,,,,,,,,,,,,,,,,,,,,,,,,,,,,,,,
,,66704327b46c7665de1190bc,2026-03-17_10h33.34.290,kallum_motion_pilot_GIST_update_2,2026.1.1,Win32,59.88023952,66704327b46c7665de1190bc,69b92ab4aef6dee357cd729a,69b92dbc7cf694d2ee2a55f6,0.0485,0.0485,0,122,122,30,1,fourtwo,,,,,,,,,,,,,,,,,,,,,,,,,,,,,,,,,,,,,,,,,,,,,,,,,,,,,,,,,,,,,,,,,,,,,,,,,,,,,,,,,,,,,,,,,,,,,,,,,,,,,,,,,,,,,,,,,,,,,,,,,,,,,,,,,,,,,,,,,
,,66704327b46c7665de1190bc,2026-03-17_10h33.34.290,kallum_motion_pilot_GIST_update_2,2026.1.1,Win32,59.88023952,66704327b46c7665de1190bc,69b92ab4aef6dee357cd729a,69b92dbc7cf694d2ee2a55f6,0.0489,0.0489,0,123,123,128,1,fivesix,,,,,,,,,,,,,,,,,,,,,,,,,,,,,,,,,,,,,,,,,,,,,,,,,,,,,,,,,,,,,,,,,,,,,,,,,,,,,,,,,,,,,,,,,,,,,,,,,,,,,,,,,,,,,,,,,,,,,,,,,,,,,,,,,,,,,,,,,
,,66704327b46c7665de1190bc,2026-03-17_10h33.34.290,kallum_motion_pilot_GIST_update_2,2026.1.1,Win32,59.88023952,66704327b46c7665de1190bc,69b92ab4aef6dee357cd729a,69b92dbc7cf694d2ee2a55f6,0.0492,0.0492,0,124,124,77,1,threefour,,,,,,,,,,,,,,,,,,,,,,,,,,,,,,,,,,,,,,,,,,,,,,,,,,,,,,,,,,,,,,,,,,,,,,,,,,,,,,,,,,,,,,,,,,,,,,,,,,,,,,,,,,,,,,,,,,,,,,,,,,,,,,,,,,,,,,,,,
,,66704327b46c7665de1190bc,2026-03-17_10h33.34.290,kallum_motion_pilot_GIST_update_2,2026.1.1,Win32,59.88023952,66704327b46c7665de1190bc,69b92ab4aef6dee357cd729a,69b92dbc7cf694d2ee2a55f6,0.0494,0.0494,0,125,125,67,1,twofour,,,,,,,,,,,,,,,,,,,,,,,,,,,,,,,,,,,,,,,,,,,,,,,,,,,,,,,,,,,,,,,,,,,,,,,,,,,,,,,,,,,,,,,,,,,,,,,,,,,,,,,,,,,,,,,,,,,,,,,,,,,,,,,,,,,,,,,,,
,,66704327b46c7665de1190bc,2026-03-17_10h33.34.290,kallum_motion_pilot_GIST_update_2,2026.1.1,Win32,59.88023952,66704327b46c7665de1190bc,69b92ab4aef6dee357cd729a,69b92dbc7cf694d2ee2a55f6,0.0496,0.0496,0,126,126,140,1,sevenfive,,,,,,,,,,,,,,,,,,,,,,,,,,,,,,,,,,,,,,,,,,,,,,,,,,,,,,,,,,,,,,,,,,,,,,,,,,,,,,,,,,,,,,,,,,,,,,,,,,,,,,,,,,,,,,,,,,,,,,,,,,,,,,,,,,,,,,,,,
,,66704327b46c7665de1190bc,2026-03-17_10h33.34.290,kallum_motion_pilot_GIST_update_2,2026.1.1,Win32,59.88023952,66704327b46c7665de1190bc,69b92ab4aef6dee357cd729a,69b92dbc7cf694d2ee2a55f6,0.0498,0.0498,0,127,127,109,1,seveneight,,,,,,,,,,,,,,,,,,,,,,,,,,,,,,,,,,,,,,,,,,,,,,,,,,,,,,,,,,,,,,,,,,,,,,,,,,,,,,,,,,,,,,,,,,,,,,,,,,,,,,,,,,,,,,,,,,,,,,,,,,,,,,,,,,,,,,,,,
,,66704327b46c7665de1190bc,2026-03-17_10h33.34.290,kallum_motion_pilot_GIST_update_2,2026.1.1,Win32,59.88023952,66704327b46c7665de1190bc,69b92ab4aef6dee357cd729a,69b92dbc7cf694d2ee2a55f6,0.05,0.05,0,128,128,107,1,sixeight,,,,,,,,,,,,,,,,,,,,,,,,,,,,,,,,,,,,,,,,,,,,,,,,,,,,,,,,,,,,,,,,,,,,,,,,,,,,,,,,,,,,,,,,,,,,,,,,,,,,,,,,,,,,,,,,,,,,,,,,,,,,,,,,,,,,,,,,,
,,66704327b46c7665de1190bc,2026-03-17_10h33.34.290,kallum_motion_pilot_GIST_update_2,2026.1.1,Win32,59.88023952,66704327b46c7665de1190bc,69b92ab4aef6dee357cd729a,69b92dbc7cf694d2ee2a55f6,0.05,0.05,0,129,129,146,1,sixfive,,,,,,,,,,,,,,,,,,,,,,,,,,,,,,,,,,,,,,,,,,,,,,,,,,,,,,,,,,,,,,,,,,,,,,,,,,,,,,,,,,,,,,,,,,,,,,,,,,,,,,,,,,,,,,,,,,,,,,,,,,,,,,,,,,,,,,,,,
,,66704327b46c7665de1190bc,2026-03-17_10h33.34.290,kallum_motion_pilot_GIST_update_2,2026.1.1,Win32,59.88023952,66704327b46c7665de1190bc,69b92ab4aef6dee357cd729a,69b92dbc7cf694d2ee2a55f6,0.0512,0.0512,0,130,130,126,1,eightsix,,,,,,,,,,,,,,,,,,,,,,,,,,,,,,,,,,,,,,,,,,,,,,,,,,,,,,,,,,,,,,,,,,,,,,,,,,,,,,,,,,,,,,,,,,,,,,,,,,,,,,,,,,,,,,,,,,,,,,,,,,,,,,,,,,,,,,,,,
,,66704327b46c7665de1190bc,2026-03-17_10h33.34.290,kallum_motion_pilot_GIST_update_2,2026.1.1,Win32,59.88023952,66704327b46c7665de1190bc,69b92ab4aef6dee357cd729a,69b92dbc7cf694d2ee2a55f6,0.0519,0.0519,0,131,131,33,1,onethree,,,,,,,,,,,,,,,,,,,,,,,,,,,,,,,,,,,,,,,,,,,,,,,,,,,,,,,,,,,,,,,,,,,,,,,,,,,,,,,,,,,,,,,,,,,,,,,,,,,,,,,,,,,,,,,,,,,,,,,,,,,,,,,,,,,,,,,,,
,,66704327b46c7665de1190bc,2026-03-17_10h33.34.290,kallum_motion_pilot_GIST_update_2,2026.1.1,Win32,59.88023952,66704327b46c7665de1190bc,69b92ab4aef6dee357cd729a,69b92dbc7cf694d2ee2a55f6,0.0523,0.0523,0,132,132,97,1,fiveseven,,,,,,,,,,,,,,,,,,,,,,,,,,,,,,,,,,,,,,,,,,,,,,,,,,,,,,,,,,,,,,,,,,,,,,,,,,,,,,,,,,,,,,,,,,,,,,,,,,,,,,,,,,,,,,,,,,,,,,,,,,,,,,,,,,,,,,,,,
,,66704327b46c7665de1190bc,2026-03-17_10h33.34.290,kallum_motion_pilot_GIST_update_2,2026.1.1,Win32,59.88023952,66704327b46c7665de1190bc,69b92ab4aef6dee357cd729a,69b92dbc7cf694d2ee2a55f6,0.0525,0.0526,0,133,133,73,1,onethree,,,,,,,,,,,,,,,,,,,,,,,,,,,,,,,,,,,,,,,,,,,,,,,,,,,,,,,,,,,,,,,,,,,,,,,,,,,,,,,,,,,,,,,,,,,,,,,,,,,,,,,,,,,,,,,,,,,,,,,,,,,,,,,,,,,,,,,,,
,,66704327b46c7665de1190bc,2026-03-17_10h33.34.290,kallum_motion_pilot_GIST_update_2,2026.1.1,Win32,59.88023952,66704327b46c7665de1190bc,69b92ab4aef6dee357cd729a,69b92dbc7cf694d2ee2a55f6,0.0528,0.0528,0,134,134,20,1,threeone,,,,,,,,,,,,,,,,,,,,,,,,,,,,,,,,,,,,,,,,,,,,,,,,,,,,,,,,,,,,,,,,,,,,,,,,,,,,,,,,,,,,,,,,,,,,,,,,,,,,,,,,,,,,,,,,,,,,,,,,,,,,,,,,,,,,,,,,,
,,66704327b46c7665de1190bc,2026-03-17_10h33.34.290,kallum_motion_pilot_GIST_update_2,2026.1.1,Win32,59.88023952,66704327b46c7665de1190bc,69b92ab4aef6dee357cd729a,69b92dbc7cf694d2ee2a55f6,0.0532,0.0532,0,135,135,131,1,sixeight,,,,,,,,,,,,,,,,,,,,,,,,,,,,,,,,,,,,,,,,,,,,,,,,,,,,,,,,,,,,,,,,,,,,,,,,,,,,,,,,,,,,,,,,,,,,,,,,,,,,,,,,,,,,,,,,,,,,,,,,,,,,,,,,,,,,,,,,,
,,66704327b46c7665de1190bc,2026-03-17_10h33.34.290,kallum_motion_pilot_GIST_update_2,2026.1.1,Win32,59.88023952,66704327b46c7665de1190bc,69b92ab4aef6dee357cd729a,69b92dbc7cf694d2ee2a55f6,0.0534,0.0534,0,136,136,0,1,onetwo,,,,,,,,,,,,,,,,,,,,,,,,,,,,,,,,,,,,,,,,,,,,,,,,,,,,,,,,,,,,,,,,,,,,,,,,,,,,,,,,,,,,,,,,,,,,,,,,,,,,,,,,,,,,,,,,,,,,,,,,,,,,,,,,,,,,,,,,,
,,66704327b46c7665de1190bc,2026-03-17_10h33.34.290,kallum_motion_pilot_GIST_update_2,2026.1.1,Win32,59.88023952,66704327b46c7665de1190bc,69b92ab4aef6dee357cd729a,69b92dbc7cf694d2ee2a55f6,0.0536,0.0536,0,137,137,89,1,fiveseven,,,,,,,,,,,,,,,,,,,,,,,,,,,,,,,,,,,,,,,,,,,,,,,,,,,,,,,,,,,,,,,,,,,,,,,,,,,,,,,,,,,,,,,,,,,,,,,,,,,,,,,,,,,,,,,,,,,,,,,,,,,,,,,,,,,,,,,,,
,,66704327b46c7665de1190bc,2026-03-17_10h33.34.290,kallum_motion_pilot_GIST_update_2,2026.1.1,Win32,59.88023952,66704327b46c7665de1190bc,69b92ab4aef6dee357cd729a,69b92dbc7cf694d2ee2a55f6,0.0538,0.0538,0,138,138,55,1,fourthree,,,,,,,,,,,,,,,,,,,,,,,,,,,,,,,,,,,,,,,,,,,,,,,,,,,,,,,,,,,,,,,,,,,,,,,,,,,,,,,,,,,,,,,,,,,,,,,,,,,,,,,,,,,,,,,,,,,,,,,,,,,,,,,,,,,,,,,,,
,,66704327b46c7665de1190bc,2026-03-17_10h33.34.290,kallum_motion_pilot_GIST_update_2,2026.1.1,Win32,59.88023952,66704327b46c7665de1190bc,69b92ab4aef6dee357cd729a,69b92dbc7cf694d2ee2a55f6,0.0539,0.0539,0,139,139,84,1,sevenfive,,,,,,,,,,,,,,,,,,,,,,,,,,,,,,,,,,,,,,,,,,,,,,,,,,,,,,,,,,,,,,,,,,,,,,,,,,,,,,,,,,,,,,,,,,,,,,,,,,,,,,,,,,,,,,,,,,,,,,,,,,,,,,,,,,,,,,,,,
,,66704327b46c7665de1190bc,2026-03-17_10h33.34.290,kallum_motion_pilot_GIST_update_2,2026.1.1,Win32,59.88023952,66704327b46c7665de1190bc,69b92ab4aef6dee357cd729a,69b92dbc7cf694d2ee2a55f6,0.0541,0.0541,0,140,140,4,1,threeone,,,,,,,,,,,,,,,,,,,,,,,,,,,,,,,,,,,,,,,,,,,,,,,,,,,,,,,,,,,,,,,,,,,,,,,,,,,,,,,,,,,,,,,,,,,,,,,,,,,,,,,,,,,,,,,,,,,,,,,,,,,,,,,,,,,,,,,,,
,,66704327b46c7665de1190bc,2026-03-17_10h33.34.290,kallum_motion_pilot_GIST_update_2,2026.1.1,Win32,59.88023952,66704327b46c7665de1190bc,69b92ab4aef6dee357cd729a,69b92dbc7cf694d2ee2a55f6,0.0542,0.0542,0,141,141,160,1,fivesix,,,,,,,,,,,,,,,,,,,,,,,,,,,,,,,,,,,,,,,,,,,,,,,,,,,,,,,,,,,,,,,,,,,,,,,,,,,,,,,,,,,,,,,,,,,,,,,,,,,,,,,,,,,,,,,,,,,,,,,,,,,,,,,,,,,,,,,,,
,,66704327b46c7665de1190bc,2026-03-17_10h33.34.290,kallum_motion_pilot_GIST_update_2,2026.1.1,Win32,59.88023952,66704327b46c7665de1190bc,69b92ab4aef6dee357cd729a,69b92dbc7cf694d2ee2a55f6,0.0543,0.0543,0,142,142,148,1,sevenfive,,,,,,,,,,,,,,,,,,,,,,,,,,,,,,,,,,,,,,,,,,,,,,,,,,,,,,,,,,,,,,,,,,,,,,,,,,,,,,,,,,,,,,,,,,,,,,,,,,,,,,,,,,,,,,,,,,,,,,,,,,,,,,,,,,,,,,,,,
,,66704327b46c7665de1190bc,2026-03-17_10h33.34.290,kallum_motion_pilot_GIST_update_2,2026.1.1,Win32,59.88023952,66704327b46c7665de1190bc,69b92ab4aef6dee357cd729a,69b92dbc7cf694d2ee2a55f6,0.0545,0.0545,0,143,143,85,1,seveneight,,,,,,,,,,,,,,,,,,,,,,,,,,,,,,,,,,,,,,,,,,,,,,,,,,,,,,,,,,,,,,,,,,,,,,,,,,,,,,,,,,,,,,,,,,,,,,,,,,,,,,,,,,,,,,,,,,,,,,,,,,,,,,,,,,,,,,,,,
,,66704327b46c7665de1190bc,2026-03-17_10h33.34.290,kallum_motion_pilot_GIST_update_2,2026.1.1,Win32,59.88023952,66704327b46c7665de1190bc,69b92ab4aef6dee357cd729a,69b92dbc7cf694d2ee2a55f6,0.0546,0.0547,0,144,144,58,1,twoone,,,,,,,,,,,,,,,,,,,,,,,,,,,,,,,,,,,,,,,,,,,,,,,,,,,,,,,,,,,,,,,,,,,,,,,,,,,,,,,,,,,,,,,,,,,,,,,,,,,,,,,,,,,,,,,,,,,,,,,,,,,,,,,,,,,,,,,,,
,,66704327b46c7665de1190bc,2026-03-17_10h33.34.290,kallum_motion_pilot_GIST_update_2,2026.1.1,Win32,59.88023952,66704327b46c7665de1190bc,69b92ab4aef6dee357cd729a,69b92dbc7cf694d2ee2a55f6,0.0548,0.0548,0,145,145,27,1,twofour,,,,,,,,,,,,,,,,,,,,,,,,,,,,,,,,,,,,,,,,,,,,,,,,,,,,,,,,,,,,,,,,,,,,,,,,,,,,,,,,,,,,,,,,,,,,,,,,,,,,,,,,,,,,,,,,,,,,,,,,,,,,,,,,,,,,,,,,,
,,66704327b46c7665de1190bc,2026-03-17_10h33.34.290,kallum_motion_pilot_GIST_update_2,2026.1.1,Win32,59.88023952,66704327b46c7665de1190bc,69b92ab4aef6dee357cd729a,69b92dbc7cf694d2ee2a55f6,0.055,0.055,0,146,146,108,1,sevenfive,,,,,,,,,,,,,,,,,,,,,,,,,,,,,,,,,,,,,,,,,,,,,,,,,,,,,,,,,,,,,,,,,,,,,,,,,,,,,,,,,,,,,,,,,,,,,,,,,,,,,,,,,,,,,,,,,,,,,,,,,,,,,,,,,,,,,,,,,
,,66704327b46c7665de1190bc,2026-03-17_10h33.34.290,kallum_motion_pilot_GIST_update_2,2026.1.1,Win32,59.88023952,66704327b46c7665de1190bc,69b92ab4aef6dee357cd729a,69b92dbc7cf694d2ee2a55f6,0.0551,0.0551,0,147,147,57,1,onethree,,,,,,,,,,,,,,,,,,,,,,,,,,,,,,,,,,,,,,,,,,,,,,,,,,,,,,,,,,,,,,,,,,,,,,,,,,,,,,,,,,,,,,,,,,,,,,,,,,,,,,,,,,,,,,,,,,,,,,,,,,,,,,,,,,,,,,,,,
,,66704327b46c7665de1190bc,2026-03-17_10h33.34.290,kallum_motion_pilot_GIST_update_2,2026.1.1,Win32,59.88023952,66704327b46c7665de1190bc,69b92ab4aef6dee357cd729a,69b92dbc7cf694d2ee2a55f6,0.0552,0.0553,0,148,148,9,1,onethree,,,,,,,,,,,,,,,,,,,,,,,,,,,,,,,,,,,,,,,,,,,,,,,,,,,,,,,,,,,,,,,,,,,,,,,,,,,,,,,,,,,,,,,,,,,,,,,,,,,,,,,,,,,,,,,,,,,,,,,,,,,,,,,,,,,,,,,,,
,,66704327b46c7665de1190bc,2026-03-17_10h33.34.290,kallum_motion_pilot_GIST_update_2,2026.1.1,Win32,59.88023952,66704327b46c7665de1190bc,69b92ab4aef6dee357cd729a,69b92dbc7cf694d2ee2a55f6,0.0554,0.0554,0,149,149,48,1,onetwo,,,,,,,,,,,,,,,,,,,,,,,,,,,,,,,,,,,,,,,,,,,,,,,,,,,,,,,,,,,,,,,,,,,,,,,,,,,,,,,,,,,,,,,,,,,,,,,,,,,,,,,,,,,,,,,,,,,,,,,,,,,,,,,,,,,,,,,,,
,,66704327b46c7665de1190bc,2026-03-17_10h33.34.290,kallum_motion_pilot_GIST_update_2,2026.1.1,Win32,59.88023952,66704327b46c7665de1190bc,69b92ab4aef6dee357cd729a,69b92dbc7cf694d2ee2a55f6,0.0556,0.0556,0,150,150,52,1,threeone,,,,,,,,,,,,,,,,,,,,,,,,,,,,,,,,,,,,,,,,,,,,,,,,,,,,,,,,,,,,,,,,,,,,,,,,,,,,,,,,,,,,,,,,,,,,,,,,,,,,,,,,,,,,,,,,,,,,,,,,,,,,,,,,,,,,,,,,,
,,66704327b46c7665de1190bc,2026-03-17_10h33.34.290,kallum_motion_pilot_GIST_update_2,2026.1.1,Win32,59.88023952,66704327b46c7665de1190bc,69b92ab4aef6dee357cd729a,69b92dbc7cf694d2ee2a55f6,0.0558,0.0558,0,151,151,153,1,fiveseven,,,,,,,,,,,,,,,,,,,,,,,,,,,,,,,,,,,,,,,,,,,,,,,,,,,,,,,,,,,,,,,,,,,,,,,,,,,,,,,,,,,,,,,,,,,,,,,,,,,,,,,,,,,,,,,,,,,,,,,,,,,,,,,,,,,,,,,,,
,,66704327b46c7665de1190bc,2026-03-17_10h33.34.290,kallum_motion_pilot_GIST_update_2,2026.1.1,Win32,59.88023952,66704327b46c7665de1190bc,69b92ab4aef6dee357cd729a,69b92dbc7cf694d2ee2a55f6,0.056,0.056,0,152,152,114,1,sixfive,,,,,,,,,,,,,,,,,,,,,,,,,,,,,,,,,,,,,,,,,,,,,,,,,,,,,,,,,,,,,,,,,,,,,,,,,,,,,,,,,,,,,,,,,,,,,,,,,,,,,,,,,,,,,,,,,,,,,,,,,,,,,,,,,,,,,,,,,
,,66704327b46c7665de1190bc,2026-03-17_10h33.34.290,kallum_motion_pilot_GIST_update_2,2026.1.1,Win32,59.88023952,66704327b46c7665de1190bc,69b92ab4aef6dee357cd729a,69b92dbc7cf694d2ee2a55f6,0.0562,0.0562,0,153,153,18,1,twoone,,,,,,,,,,,,,,,,,,,,,,,,,,,,,,,,,,,,,,,,,,,,,,,,,,,,,,,,,,,,,,,,,,,,,,,,,,,,,,,,,,,,,,,,,,,,,,,,,,,,,,,,,,,,,,,,,,,,,,,,,,,,,,,,,,,,,,,,,
,,66704327b46c7665de1190bc,2026-03-17_10h33.34.290,kallum_motion_pilot_GIST_update_2,2026.1.1,Win32,59.88023952,66704327b46c7665de1190bc,69b92ab4aef6dee357cd729a,69b92dbc7cf694d2ee2a55f6,0.0564,0.0564,0,154,154,83,1,sixeight,,,,,,,,,,,,,,,,,,,,,,,,,,,,,,,,,,,,,,,,,,,,,,,,,,,,,,,,,,,,,,,,,,,,,,,,,,,,,,,,,,,,,,,,,,,,,,,,,,,,,,,,,,,,,,,,,,,,,,,,,,,,,,,,,,,,,,,,,
,,66704327b46c7665de1190bc,2026-03-17_10h33.34.290,kallum_motion_pilot_GIST_update_2,2026.1.1,Win32,59.88023952,66704327b46c7665de1190bc,69b92ab4aef6dee357cd729a,69b92dbc7cf694d2ee2a55f6,0.0566,0.0566,0,155,155,63,1,fourthree,,,,,,,,,,,,,,,,,,,,,,,,,,,,,,,,,,,,,,,,,,,,,,,,,,,,,,,,,,,,,,,,,,,,,,,,,,,,,,,,,,,,,,,,,,,,,,,,,,,,,,,,,,,,,,,,,,,,,,,,,,,,,,,,,,,,,,,,,
,,66704327b46c7665de1190bc,2026-03-17_10h33.34.290,kallum_motion_pilot_GIST_update_2,2026.1.1,Win32,59.88023952,66704327b46c7665de1190bc,69b92ab4aef6dee357cd729a,69b92dbc7cf694d2ee2a55f6,0.0569,0.0569,0,156,156,90,1,sixfive,,,,,,,,,,,,,,,,,,,,,,,,,,,,,,,,,,,,,,,,,,,,,,,,,,,,,,,,,,,,,,,,,,,,,,,,,,,,,,,,,,,,,,,,,,,,,,,,,,,,,,,,,,,,,,,,,,,,,,,,,,,,,,,,,,,,,,,,,
,,66704327b46c7665de1190bc,2026-03-17_10h33.34.290,kallum_motion_pilot_GIST_update_2,2026.1.1,Win32,59.88023952,66704327b46c7665de1190bc,69b92ab4aef6dee357cd729a,69b92dbc7cf694d2ee2a55f6,0.057,0.057,0,157,157,94,1,eightsix,,,,,,,,,,,,,,,,,,,,,,,,,,,,,,,,,,,,,,,,,,,,,,,,,,,,,,,,,,,,,,,,,,,,,,,,,,,,,,,,,,,,,,,,,,,,,,,,,,,,,,,,,,,,,,,,,,,,,,,,,,,,,,,,,,,,,,,,,
,,66704327b46c7665de1190bc,2026-03-17_10h33.34.290,kallum_motion_pilot_GIST_update_2,2026.1.1,Win32,59.88023952,66704327b46c7665de1190bc,69b92ab4aef6dee357cd729a,69b92dbc7cf694d2ee2a55f6,0.0573,0.0573,0,158,158,23,1,fourthree,,,,,,,,,,,,,,,,,,,,,,,,,,,,,,,,,,,,,,,,,,,,,,,,,,,,,,,,,,,,,,,,,,,,,,,,,,,,,,,,,,,,,,,,,,,,,,,,,,,,,,,,,,,,,,,,,,,,,,,,,,,,,,,,,,,,,,,,,
,,66704327b46c7665de1190bc,2026-03-17_10h33.34.290,kallum_motion_pilot_GIST_update_2,2026.1.1,Win32,59.88023952,66704327b46c7665de1190bc,69b92ab4aef6dee357cd729a,69b92dbc7cf694d2ee2a55f6,0.0576,0.0576,0,159,159,41,1,onethree,,,,,,,,,,,,,,,,,,,,,,,,,,,,,,,,,,,,,,,,,,,,,,,,,,,,,,,,,,,,,,,,,,,,,,,,,,,,,,,,,,,,,,,,,,,,,,,,,,,,,,,,,,,,,,,,,,,,,,,,,,,,,,,,,,,,,,,,,
,,66704327b46c7665de1190bc,2026-03-17_10h33.34.290,kallum_motion_pilot_GIST_update_2,2026.1.1,Win32,59.88023952,66704327b46c7665de1190bc,69b92ab4aef6dee357cd729a,69b92dbc7cf694d2ee2a55f6,0.0577,0.0578,0,160,160,151,1,eightseven,,,,,,,,,,,,,,,,,,,,,,,,,,,,,,,,,,,,,,,,,,,,,,,,,,,,,,,,,,,,,,,,,,,,,,,,,,,,,,,,,,,,,,,,,,,,,,,,,,,,,,,,,,,,,,,,,,,,,,,,,,,,,,,,,,,,,,,,,
,,66704327b46c7665de1190bc,2026-03-17_10h33.34.290,kallum_motion_pilot_GIST_update_2,2026.1.1,Win32,59.88023952,66704327b46c7665de1190bc,69b92ab4aef6dee357cd729a,69b92dbc7cf694d2ee2a55f6,0.058,0.058,0,161,161,149,1,seveneight,,,,,,,,,,,,,,,,,,,,,,,,,,,,,,,,,,,,,,,,,,,,,,,,,,,,,,,,,,,,,,,,,,,,,,,,,,,,,,,,,,,,,,,,,,,,,,,,,,,,,,,,,,,,,,,,,,,,,,,,,,,,,,,,,,,,,,,,,
,,66704327b46c7665de1190bc,2026-03-17_10h33.34.290,kallum_motion_pilot_GIST_update_2,2026.1.1,Win32,59.88023952,66704327b46c7665de1190bc,69b92ab4aef6dee357cd729a,69b92dbc7cf694d2ee2a55f6,0.0582,0.0582,1,0,162,60,1,threeone,,,,,,,,,,,,,,,,,,,,,,,,,,,,,,,,,,,,,,,,,,,,,,,,,,,,,,,,,,,,,,,,,,,,,,,,,,,,,,,,,,,,,,,,,,,,,,,,,,,,,,,,,,,,,,,,,,,,,,,,,,,,,,,,,,,,,,,,,
,,66704327b46c7665de1190bc,2026-03-17_10h33.34.290,kallum_motion_pilot_GIST_update_2,2026.1.1,Win32,59.88023952,66704327b46c7665de1190bc,69b92ab4aef6dee357cd729a,69b92dbc7cf694d2ee2a55f6,0.0586,0.0586,1,1,163,79,1,eightseven,,,,,,,,,,,,,,,,,,,,,,,,,,,,,,,,,,,,,,,,,,,,,,,,,,,,,,,,,,,,,,,,,,,,,,,,,,,,,,,,,,,,,,,,,,,,,,,,,,,,,,,,,,,,,,,,,,,,,,,,,,,,,,,,,,,,,,,,,
,,66704327b46c7665de1190bc,2026-03-17_10h33.34.290,kallum_motion_pilot_GIST_update_2,2026.1.1,Win32,59.88023952,66704327b46c7665de1190bc,69b92ab4aef6dee357cd729a,69b92dbc7cf694d2ee2a55f6,0.0589,0.0589,1,2,164,29,1,threefour,,,,,,,,,,,,,,,,,,,,,,,,,,,,,,,,,,,,,,,,,,,,,,,,,,,,,,,,,,,,,,,,,,,,,,,,,,,,,,,,,,,,,,,,,,,,,,,,,,,,,,,,,,,,,,,,,,,,,,,,,,,,,,,,,,,,,,,,,
,,66704327b46c7665de1190bc,2026-03-17_10h33.34.290,kallum_motion_pilot_GIST_update_2,2026.1.1,Win32,59.88023952,66704327b46c7665de1190bc,69b92ab4aef6dee357cd729a,69b92dbc7cf694d2ee2a55f6,0.0591,0.0591,1,3,165,104,1,fivesix,,,,,,,,,,,,,,,,,,,,,,,,,,,,,,,,,,,,,,,,,,,,,,,,,,,,,,,,,,,,,,,,,,,,,,,,,,,,,,,,,,,,,,,,,,,,,,,,,,,,,,,,,,,,,,,,,,,,,,,,,,,,,,,,,,,,,,,,,
,,66704327b46c7665de1190bc,2026-03-17_10h33.34.290,kallum_motion_pilot_GIST_update_2,2026.1.1,Win32,59.88023952,66704327b46c7665de1190bc,69b92ab4aef6dee357cd729a,69b92dbc7cf694d2ee2a55f6,0.0593,0.0593,1,4,166,153,1,fiveseven,,,,,,,,,,,,,,,,,,,,,,,,,,,,,,,,,,,,,,,,,,,,,,,,,,,,,,,,,,,,,,,,,,,,,,,,,,,,,,,,,,,,,,,,,,,,,,,,,,,,,,,,,,,,,,,,,,,,,,,,,,,,,,,,,,,,,,,,,
,,66704327b46c7665de1190bc,2026-03-17_10h33.34.290,kallum_motion_pilot_GIST_update_2,2026.1.1,Win32,59.88023952,66704327b46c7665de1190bc,69b92ab4aef6dee357cd729a,69b92dbc7cf694d2ee2a55f6,0.0594,0.0594,1,5,167,21,1,threefour,,,,,,,,,,,,,,,,,,,,,,,,,,,,,,,,,,,,,,,,,,,,,,,,,,,,,,,,,,,,,,,,,,,,,,,,,,,,,,,,,,,,,,,,,,,,,,,,,,,,,,,,,,,,,,,,,,,,,,,,,,,,,,,,,,,,,,,,,
,,66704327b46c7665de1190bc,2026-03-17_10h33.34.290,kallum_motion_pilot_GIST_update_2,2026.1.1,Win32,59.88023952,66704327b46c7665de1190bc,69b92ab4aef6dee357cd729a,69b92dbc7cf694d2ee2a55f6,0.0596,0.0596,1,6,168,76,1,threeone,,,,,,,,,,,,,,,,,,,,,,,,,,,,,,,,,,,,,,,,,,,,,,,,,,,,,,,,,,,,,,,,,,,,,,,,,,,,,,,,,,,,,,,,,,,,,,,,,,,,,,,,,,,,,,,,,,,,,,,,,,,,,,,,,,,,,,,,,
,,66704327b46c7665de1190bc,2026-03-17_10h33.34.290,kallum_motion_pilot_GIST_update_2,2026.1.1,Win32,59.88023952,66704327b46c7665de1190bc,69b92ab4aef6dee357cd729a,69b92dbc7cf694d2ee2a55f6,0.0598,0.0598,1,7,169,92,1,sevenfive,,,,,,,,,,,,,,,,,,,,,,,,,,,,,,,,,,,,,,,,,,,,,,,,,,,,,,,,,,,,,,,,,,,,,,,,,,,,,,,,,,,,,,,,,,,,,,,,,,,,,,,,,,,,,,,,,,,,,,,,,,,,,,,,,,,,,,,,,
,,66704327b46c7665de1190bc,2026-03-17_10h33.34.290,kallum_motion_pilot_GIST_update_2,2026.1.1,Win32,59.88023952,66704327b46c7665de1190bc,69b92ab4aef6dee357cd729a,69b92dbc7cf694d2ee2a55f6,0.0601,0.0601,1,8,170,131,1,sixeight,,,,,,,,,,,,,,,,,,,,,,,,,,,,,,,,,,,,,,,,,,,,,,,,,,,,,,,,,,,,,,,,,,,,,,,,,,,,,,,,,,,,,,,,,,,,,,,,,,,,,,,,,,,,,,,,,,,,,,,,,,,,,,,,,,,,,,,,,
,,66704327b46c7665de1190bc,2026-03-17_10h33.34.290,kallum_motion_pilot_GIST_update_2,2026.1.1,Win32,59.88023952,66704327b46c7665de1190bc,69b92ab4aef6dee357cd729a,69b92dbc7cf694d2ee2a55f6,0.0603,0.0603,1,9,171,151,1,eightseven,,,,,,,,,,,,,,,,,,,,,,,,,,,,,,,,,,,,,,,,,,,,,,,,,,,,,,,,,,,,,,,,,,,,,,,,,,,,,,,,,,,,,,,,,,,,,,,,,,,,,,,,,,,,,,,,,,,,,,,,,,,,,,,,,,,,,,,,,
,,66704327b46c7665de1190bc,2026-03-17_10h33.34.290,kallum_motion_pilot_GIST_update_2,2026.1.1,Win32,59.88023952,66704327b46c7665de1190bc,69b92ab4aef6dee357cd729a,69b92dbc7cf694d2ee2a55f6,0.0604,0.0605,1,10,172,103,1,eightseven,,,,,,,,,,,,,,,,,,,,,,,,,,,,,,,,,,,,,,,,,,,,,,,,,,,,,,,,,,,,,,,,,,,,,,,,,,,,,,,,,,,,,,,,,,,,,,,,,,,,,,,,,,,,,,,,,,,,,,,,,,,,,,,,,,,,,,,,,
,,66704327b46c7665de1190bc,2026-03-17_10h33.34.290,kallum_motion_pilot_GIST_update_2,2026.1.1,Win32,59.88023952,66704327b46c7665de1190bc,69b92ab4aef6dee357cd729a,69b92dbc7cf694d2ee2a55f6,0.0607,0.0607,1,11,173,62,1,fourtwo,,,,,,,,,,,,,,,,,,,,,,,,,,,,,,,,,,,,,,,,,,,,,,,,,,,,,,,,,,,,,,,,,,,,,,,,,,,,,,,,,,,,,,,,,,,,,,,,,,,,,,,,,,,,,,,,,,,,,,,,,,,,,,,,,,,,,,,,,
,,66704327b46c7665de1190bc,2026-03-17_10h33.34.290,kallum_motion_pilot_GIST_update_2,2026.1.1,Win32,59.88023952,66704327b46c7665de1190bc,69b92ab4aef6dee357cd729a,69b92dbc7cf694d2ee2a55f6,0.0609,0.0609,1,12,174,1,1,onethree,,,,,,,,,,,,,,,,,,,,,,,,,,,,,,,,,,,,,,,,,,,,,,,,,,,,,,,,,,,,,,,,,,,,,,,,,,,,,,,,,,,,,,,,,,,,,,,,,,,,,,,,,,,,,,,,,,,,,,,,,,,,,,,,,,,,,,,,,
,,66704327b46c7665de1190bc,2026-03-17_10h33.34.290,kallum_motion_pilot_GIST_update_2,2026.1.1,Win32,59.88023952,66704327b46c7665de1190bc,69b92ab4aef6dee357cd729a,69b92dbc7cf694d2ee2a55f6,0.061,0.061,1,13,175,64,1,onetwo,,,,,,,,,,,,,,,,,,,,,,,,,,,,,,,,,,,,,,,,,,,,,,,,,,,,,,,,,,,,,,,,,,,,,,,,,,,,,,,,,,,,,,,,,,,,,,,,,,,,,,,,,,,,,,,,,,,,,,,,,,,,,,,,,,,,,,,,,
,,66704327b46c7665de1190bc,2026-03-17_10h33.34.290,kallum_motion_pilot_GIST_update_2,2026.1.1,Win32,59.88023952,66704327b46c7665de1190bc,69b92ab4aef6dee357cd729a,69b92dbc7cf694d2ee2a55f6,0.0612,0.0612,1,14,176,116,1,sevenfive,,,,,,,,,,,,,,,,,,,,,,,,,,,,,,,,,,,,,,,,,,,,,,,,,,,,,,,,,,,,,,,,,,,,,,,,,,,,,,,,,,,,,,,,,,,,,,,,,,,,,,,,,,,,,,,,,,,,,,,,,,,,,,,,,,,,,,,,,
,,66704327b46c7665de1190bc,2026-03-17_10h33.34.290,kallum_motion_pilot_GIST_update_2,2026.1.1,Win32,59.88023952,66704327b46c7665de1190bc,69b92ab4aef6dee357cd729a,69b92dbc7cf694d2ee2a55f6,0.0614,0.0614,1,15,177,160,1,fivesix,,,,,,,,,,,,,,,,,,,,,,,,,,,,,,,,,,,,,,,,,,,,,,,,,,,,,,,,,,,,,,,,,,,,,,,,,,,,,,,,,,,,,,,,,,,,,,,,,,,,,,,,,,,,,,,,,,,,,,,,,,,,,,,,,,,,,,,,,
,,66704327b46c7665de1190bc,2026-03-17_10h33.34.290,kallum_motion_pilot_GIST_update_2,2026.1.1,Win32,59.88023952,66704327b46c7665de1190bc,69b92ab4aef6dee357cd729a,69b92dbc7cf694d2ee2a55f6,0.0616,0.0616,1,16,178,144,1,fivesix,,,,,,,,,,,,,,,,,,,,,,,,,,,,,,,,,,,,,,,,,,,,,,,,,,,,,,,,,,,,,,,,,,,,,,,,,,,,,,,,,,,,,,,,,,,,,,,,,,,,,,,,,,,,,,,,,,,,,,,,,,,,,,,,,,,,,,,,,
,,66704327b46c7665de1190bc,2026-03-17_10h33.34.290,kallum_motion_pilot_GIST_update_2,2026.1.1,Win32,59.88023952,66704327b46c7665de1190bc,69b92ab4aef6dee357cd729a,69b92dbc7cf694d2ee2a55f6,0.0618,0.0618,1,17,179,5,1,threefour,,,,,,,,,,,,,,,,,,,,,,,,,,,,,,,,,,,,,,,,,,,,,,,,,,,,,,,,,,,,,,,,,,,,,,,,,,,,,,,,,,,,,,,,,,,,,,,,,,,,,,,,,,,,,,,,,,,,,,,,,,,,,,,,,,,,,,,,,
,,66704327b46c7665de1190bc,2026-03-17_10h33.34.290,kallum_motion_pilot_GIST_update_2,2026.1.1,Win32,59.88023952,66704327b46c7665de1190bc,69b92ab4aef6dee357cd729a,69b92dbc7cf694d2ee2a55f6,0.0619,0.062,1,18,180,24,1,onetwo,,,,,,,,,,,,,,,,,,,,,,,,,,,,,,,,,,,,,,,,,,,,,,,,,,,,,,,,,,,,,,,,,,,,,,,,,,,,,,,,,,,,,,,,,,,,,,,,,,,,,,,,,,,,,,,,,,,,,,,,,,,,,,,,,,,,,,,,,
,,66704327b46c7665de1190bc,2026-03-17_10h33.34.290,kallum_motion_pilot_GIST_update_2,2026.1.1,Win32,59.88023952,66704327b46c7665de1190bc,69b92ab4aef6dee357cd729a,69b92dbc7cf694d2ee2a55f6,0.0621,0.0621,1,19,181,75,1,twofour,,,,,,,,,,,,,,,,,,,,,,,,,,,,,,,,,,,,,,,,,,,,,,,,,,,,,,,,,,,,,,,,,,,,,,,,,,,,,,,,,,,,,,,,,,,,,,,,,,,,,,,,,,,,,,,,,,,,,,,,,,,,,,,,,,,,,,,,,
,,66704327b46c7665de1190bc,2026-03-17_10h33.34.290,kallum_motion_pilot_GIST_update_2,2026.1.1,Win32,59.88023952,66704327b46c7665de1190bc,69b92ab4aef6dee357cd729a,69b92dbc7cf694d2ee2a55f6,0.0623,0.0623,1,20,182,158,1,eightsix,,,,,,,,,,,,,,,,,,,,,,,,,,,,,,,,,,,,,,,,,,,,,,,,,,,,,,,,,,,,,,,,,,,,,,,,,,,,,,,,,,,,,,,,,,,,,,,,,,,,,,,,,,,,,,,,,,,,,,,,,,,,,,,,,,,,,,,,,
,,66704327b46c7665de1190bc,2026-03-17_10h33.34.290,kallum_motion_pilot_GIST_update_2,2026.1.1,Win32,59.88023952,66704327b46c7665de1190bc,69b92ab4aef6dee357cd729a,69b92dbc7cf694d2ee2a55f6,0.0624,0.0624,1,21,183,140,1,sevenfive,,,,,,,,,,,,,,,,,,,,,,,,,,,,,,,,,,,,,,,,,,,,,,,,,,,,,,,,,,,,,,,,,,,,,,,,,,,,,,,,,,,,,,,,,,,,,,,,,,,,,,,,,,,,,,,,,,,,,,,,,,,,,,,,,,,,,,,,,
,,66704327b46c7665de1190bc,2026-03-17_10h33.34.290,kallum_motion_pilot_GIST_update_2,2026.1.1,Win32,59.88023952,66704327b46c7665de1190bc,69b92ab4aef6dee357cd729a,69b92dbc7cf694d2ee2a55f6,0.0626,0.0626,1,22,184,121,1,fiveseven,,,,,,,,,,,,,,,,,,,,,,,,,,,,,,,,,,,,,,,,,,,,,,,,,,,,,,,,,,,,,,,,,,,,,,,,,,,,,,,,,,,,,,,,,,,,,,,,,,,,,,,,,,,,,,,,,,,,,,,,,,,,,,,,,,,,,,,,,
,,66704327b46c7665de1190bc,2026-03-17_10h33.34.290,kallum_motion_pilot_GIST_update_2,2026.1.1,Win32,59.88023952,66704327b46c7665de1190bc,69b92ab4aef6dee357cd729a,69b92dbc7cf694d2ee2a55f6,0.0628,0.0628,1,23,185,125,1,seveneight,,,,,,,,,,,,,,,,,,,,,,,,,,,,,,,,,,,,,,,,,,,,,,,,,,,,,,,,,,,,,,,,,,,,,,,,,,,,,,,,,,,,,,,,,,,,,,,,,,,,,,,,,,,,,,,,,,,,,,,,,,,,,,,,,,,,,,,,,
,,66704327b46c7665de1190bc,2026-03-17_10h33.34.290,kallum_motion_pilot_GIST_update_2,2026.1.1,Win32,59.88023952,66704327b46c7665de1190bc,69b92ab4aef6dee357cd729a,69b92dbc7cf694d2ee2a55f6,0.0629,0.0629,1,24,186,149,1,seveneight,,,,,,,,,,,,,,,,,,,,,,,,,,,,,,,,,,,,,,,,,,,,,,,,,,,,,,,,,,,,,,,,,,,,,,,,,,,,,,,,,,,,,,,,,,,,,,,,,,,,,,,,,,,,,,,,,,,,,,,,,,,,,,,,,,,,,,,,,
,,66704327b46c7665de1190bc,2026-03-17_10h33.34.290,kallum_motion_pilot_GIST_update_2,2026.1.1,Win32,59.88023952,66704327b46c7665de1190bc,69b92ab4aef6dee357cd729a,69b92dbc7cf694d2ee2a55f6,0.0631,0.0631,1,25,187,52,1,threeone,,,,,,,,,,,,,,,,,,,,,,,,,,,,,,,,,,,,,,,,,,,,,,,,,,,,,,,,,,,,,,,,,,,,,,,,,,,,,,,,,,,,,,,,,,,,,,,,,,,,,,,,,,,,,,,,,,,,,,,,,,,,,,,,,,,,,,,,,
,,66704327b46c7665de1190bc,2026-03-17_10h33.34.290,kallum_motion_pilot_GIST_update_2,2026.1.1,Win32,59.88023952,66704327b46c7665de1190bc,69b92ab4aef6dee357cd729a,69b92dbc7cf694d2ee2a55f6,0.0632,0.0632,1,26,188,95,1,eightseven,,,,,,,,,,,,,,,,,,,,,,,,,,,,,,,,,,,,,,,,,,,,,,,,,,,,,,,,,,,,,,,,,,,,,,,,,,,,,,,,,,,,,,,,,,,,,,,,,,,,,,,,,,,,,,,,,,,,,,,,,,,,,,,,,,,,,,,,,
,,66704327b46c7665de1190bc,2026-03-17_10h33.34.290,kallum_motion_pilot_GIST_update_2,2026.1.1,Win32,59.88023952,66704327b46c7665de1190bc,69b92ab4aef6dee357cd729a,69b92dbc7cf694d2ee2a55f6,0.0634,0.0634,1,27,189,0,1,onetwo,,,,,,,,,,,,,,,,,,,,,,,,,,,,,,,,,,,,,,,,,,,,,,,,,,,,,,,,,,,,,,,,,,,,,,,,,,,,,,,,,,,,,,,,,,,,,,,,,,,,,,,,,,,,,,,,,,,,,,,,,,,,,,,,,,,,,,,,,
,,66704327b46c7665de1190bc,2026-03-17_10h33.34.290,kallum_motion_pilot_GIST_update_2,2026.1.1,Win32,59.88023952,66704327b46c7665de1190bc,69b92ab4aef6dee357cd729a,69b92dbc7cf694d2ee2a55f6,0.0637,0.0637,1,28,190,101,1,seveneight,,,,,,,,,,,,,,,,,,,,,,,,,,,,,,,,,,,,,,,,,,,,,,,,,,,,,,,,,,,,,,,,,,,,,,,,,,,,,,,,,,,,,,,,,,,,,,,,,,,,,,,,,,,,,,,,,,,,,,,,,,,,,,,,,,,,,,,,,
,,66704327b46c7665de1190bc,2026-03-17_10h33.34.290,kallum_motion_pilot_GIST_update_2,2026.1.1,Win32,59.88023952,66704327b46c7665de1190bc,69b92ab4aef6dee357cd729a,69b92dbc7cf694d2ee2a55f6,0.0639,0.0639,1,29,191,15,1,fourthree,,,,,,,,,,,,,,,,,,,,,,,,,,,,,,,,,,,,,,,,,,,,,,,,,,,,,,,,,,,,,,,,,,,,,,,,,,,,,,,,,,,,,,,,,,,,,,,,,,,,,,,,,,,,,,,,,,,,,,,,,,,,,,,,,,,,,,,,,
,,66704327b46c7665de1190bc,2026-03-17_10h33.34.290,kallum_motion_pilot_GIST_update_2,2026.1.1,Win32,59.88023952,66704327b46c7665de1190bc,69b92ab4aef6dee357cd729a,69b92dbc7cf694d2ee2a55f6,0.0641,0.0641,1,30,192,45,1,threefour,,,,,,,,,,,,,,,,,,,,,,,,,,,,,,,,,,,,,,,,,,,,,,,,,,,,,,,,,,,,,,,,,,,,,,,,,,,,,,,,,,,,,,,,,,,,,,,,,,,,,,,,,,,,,,,,,,,,,,,,,,,,,,,,,,,,,,,,,
,,66704327b46c7665de1190bc,2026-03-17_10h33.34.290,kallum_motion_pilot_GIST_update_2,2026.1.1,Win32,59.88023952,66704327b46c7665de1190bc,69b92ab4aef6dee357cd729a,69b92dbc7cf694d2ee2a55f6,0.0643,0.0643,1,31,193,129,1,fiveseven,,,,,,,,,,,,,,,,,,,,,,,,,,,,,,,,,,,,,,,,,,,,,,,,,,,,,,,,,,,,,,,,,,,,,,,,,,,,,,,,,,,,,,,,,,,,,,,,,,,,,,,,,,,,,,,,,,,,,,,,,,,,,,,,,,,,,,,,,
,,66704327b46c7665de1190bc,2026-03-17_10h33.34.290,kallum_motion_pilot_GIST_update_2,2026.1.1,Win32,59.88023952,66704327b46c7665de1190bc,69b92ab4aef6dee357cd729a,69b92dbc7cf694d2ee2a55f6,0.0645,0.0645,1,32,194,46,1,fourtwo,,,,,,,,,,,,,,,,,,,,,,,,,,,,,,,,,,,,,,,,,,,,,,,,,,,,,,,,,,,,,,,,,,,,,,,,,,,,,,,,,,,,,,,,,,,,,,,,,,,,,,,,,,,,,,,,,,,,,,,,,,,,,,,,,,,,,,,,,
,,66704327b46c7665de1190bc,2026-03-17_10h33.34.290,kallum_motion_pilot_GIST_update_2,2026.1.1,Win32,59.88023952,66704327b46c7665de1190bc,69b92ab4aef6dee357cd729a,69b92dbc7cf694d2ee2a55f6,0.0647,0.0647,1,33,195,96,1,fivesix,,,,,,,,,,,,,,,,,,,,,,,,,,,,,,,,,,,,,,,,,,,,,,,,,,,,,,,,,,,,,,,,,,,,,,,,,,,,,,,,,,,,,,,,,,,,,,,,,,,,,,,,,,,,,,,,,,,,,,,,,,,,,,,,,,,,,,,,,
,,66704327b46c7665de1190bc,2026-03-17_10h33.34.290,kallum_motion_pilot_GIST_update_2,2026.1.1,Win32,59.88023952,66704327b46c7665de1190bc,69b92ab4aef6dee357cd729a,69b92dbc7cf694d2ee2a55f6,0.0648,0.0648,1,34,196,80,1,fivesix,,,,,,,,,,,,,,,,,,,,,,,,,,,,,,,,,,,,,,,,,,,,,,,,,,,,,,,,,,,,,,,,,,,,,,,,,,,,,,,,,,,,,,,,,,,,,,,,,,,,,,,,,,,,,,,,,,,,,,,,,,,,,,,,,,,,,,,,,
,,66704327b46c7665de1190bc,2026-03-17_10h33.34.290,kallum_motion_pilot_GIST_update_2,2026.1.1,Win32,59.88023952,66704327b46c7665de1190bc,69b92ab4aef6dee357cd729a,69b92dbc7cf694d2ee2a55f6,0.0652,0.0652,1,35,197,74,1,twoone,,,,,,,,,,,,,,,,,,,,,,,,,,,,,,,,,,,,,,,,,,,,,,,,,,,,,,,,,,,,,,,,,,,,,,,,,,,,,,,,,,,,,,,,,,,,,,,,,,,,,,,,,,,,,,,,,,,,,,,,,,,,,,,,,,,,,,,,,
,,66704327b46c7665de1190bc,2026-03-17_10h33.34.290,kallum_motion_pilot_GIST_update_2,2026.1.1,Win32,59.88023952,66704327b46c7665de1190bc,69b92ab4aef6dee357cd729a,69b92dbc7cf694d2ee2a55f6,0.0653,0.0653,1,36,198,78,1,fourtwo,,,,,,,,,,,,,,,,,,,,,,,,,,,,,,,,,,,,,,,,,,,,,,,,,,,,,,,,,,,,,,,,,,,,,,,,,,,,,,,,,,,,,,,,,,,,,,,,,,,,,,,,,,,,,,,,,,,,,,,,,,,,,,,,,,,,,,,,,
,,66704327b46c7665de1190bc,2026-03-17_10h33.34.290,kallum_motion_pilot_GIST_update_2,2026.1.1,Win32,59.88023952,66704327b46c7665de1190bc,69b92ab4aef6dee357cd729a,69b92dbc7cf694d2ee2a55f6,0.0654,0.0655,1,37,199,14,1,fourtwo,,,,,,,,,,,,,,,,,,,,,,,,,,,,,,,,,,,,,,,,,,,,,,,,,,,,,,,,,,,,,,,,,,,,,,,,,,,,,,,,,,,,,,,,,,,,,,,,,,,,,,,,,,,,,,,,,,,,,,,,,,,,,,,,,,,,,,,,,
,,66704327b46c7665de1190bc,2026-03-17_10h33.34.290,kallum_motion_pilot_GIST_update_2,2026.1.1,Win32,59.88023952,66704327b46c7665de1190bc,69b92ab4aef6dee357cd729a,69b92dbc7cf694d2ee2a55f6,0.0656,0.0657,1,38,200,40,1,onetwo,,,,,,,,,,,,,,,,,,,,,,,,,,,,,,,,,,,,,,,,,,,,,,,,,,,,,,,,,,,,,,,,,,,,,,,,,,,,,,,,,,,,,,,,,,,,,,,,,,,,,,,,,,,,,,,,,,,,,,,,,,,,,,,,,,,,,,,,,
,,66704327b46c7665de1190bc,2026-03-17_10h33.34.290,kallum_motion_pilot_GIST_update_2,2026.1.1,Win32,59.88023952,66704327b46c7665de1190bc,69b92ab4aef6dee357cd729a,69b92dbc7cf694d2ee2a55f6,0.0659,0.0659,1,39,201,6,1,fourtwo,,,,,,,,,,,,,,,,,,,,,,,,,,,,,,,,,,,,,,,,,,,,,,,,,,,,,,,,,,,,,,,,,,,,,,,,,,,,,,,,,,,,,,,,,,,,,,,,,,,,,,,,,,,,,,,,,,,,,,,,,,,,,,,,,,,,,,,,,
,,66704327b46c7665de1190bc,2026-03-17_10h33.34.290,kallum_motion_pilot_GIST_update_2,2026.1.1,Win32,59.88023952,66704327b46c7665de1190bc,69b92ab4aef6dee357cd729a,69b92dbc7cf694d2ee2a55f6,0.066,0.066,1,40,202,34,1,twoone,,,,,,,,,,,,,,,,,,,,,,,,,,,,,,,,,,,,,,,,,,,,,,,,,,,,,,,,,,,,,,,,,,,,,,,,,,,,,,,,,,,,,,,,,,,,,,,,,,,,,,,,,,,,,,,,,,,,,,,,,,,,,,,,,,,,,,,,,
,,66704327b46c7665de1190bc,2026-03-17_10h33.34.290,kallum_motion_pilot_GIST_update_2,2026.1.1,Win32,59.88023952,66704327b46c7665de1190bc,69b92ab4aef6dee357cd729a,69b92dbc7cf694d2ee2a55f6,0.0663,0.0663,1,41,203,161,1,fiveseven,,,,,,,,,,,,,,,,,,,,,,,,,,,,,,,,,,,,,,,,,,,,,,,,,,,,,,,,,,,,,,,,,,,,,,,,,,,,,,,,,,,,,,,,,,,,,,,,,,,,,,,,,,,,,,,,,,,,,,,,,,,,,,,,,,,,,,,,,
,,66704327b46c7665de1190bc,2026-03-17_10h33.34.290,kallum_motion_pilot_GIST_update_2,2026.1.1,Win32,59.88023952,66704327b46c7665de1190bc,69b92ab4aef6dee357cd729a,69b92dbc7cf694d2ee2a55f6,0.0664,0.0664,1,42,204,67,1,twofour,,,,,,,,,,,,,,,,,,,,,,,,,,,,,,,,,,,,,,,,,,,,,,,,,,,,,,,,,,,,,,,,,,,,,,,,,,,,,,,,,,,,,,,,,,,,,,,,,,,,,,,,,,,,,,,,,,,,,,,,,,,,,,,,,,,,,,,,,
,,66704327b46c7665de1190bc,2026-03-17_10h33.34.290,kallum_motion_pilot_GIST_update_2,2026.1.1,Win32,59.88023952,66704327b46c7665de1190bc,69b92ab4aef6dee357cd729a,69b92dbc7cf694d2ee2a55f6,0.0666,0.0666,1,43,205,82,1,sixfive,,,,,,,,,,,,,,,,,,,,,,,,,,,,,,,,,,,,,,,,,,,,,,,,,,,,,,,,,,,,,,,,,,,,,,,,,,,,,,,,,,,,,,,,,,,,,,,,,,,,,,,,,,,,,,,,,,,,,,,,,,,,,,,,,,,,,,,,,
,,66704327b46c7665de1190bc,2026-03-17_10h33.34.290,kallum_motion_pilot_GIST_update_2,2026.1.1,Win32,59.88023952,66704327b46c7665de1190bc,69b92ab4aef6dee357cd729a,69b92dbc7cf694d2ee2a55f6,0.0668,0.0668,1,44,206,19,1,twofour,,,,,,,,,,,,,,,,,,,,,,,,,,,,,,,,,,,,,,,,,,,,,,,,,,,,,,,,,,,,,,,,,,,,,,,,,,,,,,,,,,,,,,,,,,,,,,,,,,,,,,,,,,,,,,,,,,,,,,,,,,,,,,,,,,,,,,,,,
,,66704327b46c7665de1190bc,2026-03-17_10h33.34.290,kallum_motion_pilot_GIST_update_2,2026.1.1,Win32,59.88023952,66704327b46c7665de1190bc,69b92ab4aef6dee357cd729a,69b92dbc7cf694d2ee2a55f6,0.0682,0.0684,1,45,207,139,1,sixeight,,,,,,,,,,,,,,,,,,,,,,,,,,,,,,,,,,,,,,,,,,,,,,,,,,,,,,,,,,,,,,,,,,,,,,,,,,,,,,,,,,,,,,,,,,,,,,,,,,,,,,,,,,,,,,,,,,,,,,,,,,,,,,,,,,,,,,,,,
,,66704327b46c7665de1190bc,2026-03-17_10h33.34.290,kallum_motion_pilot_GIST_update_2,2026.1.1,Win32,59.88023952,66704327b46c7665de1190bc,69b92ab4aef6dee357cd729a,69b92dbc7cf694d2ee2a55f6,0.0689,0.0689,1,46,208,81,1,fiveseven,,,,,,,,,,,,,,,,,,,,,,,,,,,,,,,,,,,,,,,,,,,,,,,,,,,,,,,,,,,,,,,,,,,,,,,,,,,,,,,,,,,,,,,,,,,,,,,,,,,,,,,,,,,,,,,,,,,,,,,,,,,,,,,,,,,,,,,,,
,,66704327b46c7665de1190bc,2026-03-17_10h33.34.290,kallum_motion_pilot_GIST_update_2,2026.1.1,Win32,59.88023952,66704327b46c7665de1190bc,69b92ab4aef6dee357cd729a,69b92dbc7cf694d2ee2a55f6,0.0695,0.0695,1,47,209,33,1,onethree,,,,,,,,,,,,,,,,,,,,,,,,,,,,,,,,,,,,,,,,,,,,,,,,,,,,,,,,,,,,,,,,,,,,,,,,,,,,,,,,,,,,,,,,,,,,,,,,,,,,,,,,,,,,,,,,,,,,,,,,,,,,,,,,,,,,,,,,,
,,66704327b46c7665de1190bc,2026-03-17_10h33.34.290,kallum_motion_pilot_GIST_update_2,2026.1.1,Win32,59.88023952,66704327b46c7665de1190bc,69b92ab4aef6dee357cd729a,69b92dbc7cf694d2ee2a55f6,0.07,0.0701,1,48,210,20,1,threeone,,,,,,,,,,,,,,,,,,,,,,,,,,,,,,,,,,,,,,,,,,,,,,,,,,,,,,,,,,,,,,,,,,,,,,,,,,,,,,,,,,,,,,,,,,,,,,,,,,,,,,,,,,,,,,,,,,,,,,,,,,,,,,,,,,,,,,,,,
,,66704327b46c7665de1190bc,2026-03-17_10h33.34.290,kallum_motion_pilot_GIST_update_2,2026.1.1,Win32,59.88023952,66704327b46c7665de1190bc,69b92ab4aef6dee357cd729a,69b92dbc7cf694d2ee2a55f6,0.0703,0.0703,1,49,211,120,1,fivesix,,,,,,,,,,,,,,,,,,,,,,,,,,,,,,,,,,,,,,,,,,,,,,,,,,,,,,,,,,,,,,,,,,,,,,,,,,,,,,,,,,,,,,,,,,,,,,,,,,,,,,,,,,,,,,,,,,,,,,,,,,,,,,,,,,,,,,,,,
,,66704327b46c7665de1190bc,2026-03-17_10h33.34.290,kallum_motion_pilot_GIST_update_2,2026.1.1,Win32,59.88023952,66704327b46c7665de1190bc,69b92ab4aef6dee357cd729a,69b92dbc7cf694d2ee2a55f6,0.0706,0.0707,1,50,212,2,1,twoone,,,,,,,,,,,,,,,,,,,,,,,,,,,,,,,,,,,,,,,,,,,,,,,,,,,,,,,,,,,,,,,,,,,,,,,,,,,,,,,,,,,,,,,,,,,,,,,,,,,,,,,,,,,,,,,,,,,,,,,,,,,,,,,,,,,,,,,,,
,,66704327b46c7665de1190bc,2026-03-17_10h33.34.290,kallum_motion_pilot_GIST_update_2,2026.1.1,Win32,59.88023952,66704327b46c7665de1190bc,69b92ab4aef6dee357cd729a,69b92dbc7cf694d2ee2a55f6,0.071,0.071,1,51,213,32,1,onetwo,,,,,,,,,,,,,,,,,,,,,,,,,,,,,,,,,,,,,,,,,,,,,,,,,,,,,,,,,,,,,,,,,,,,,,,,,,,,,,,,,,,,,,,,,,,,,,,,,,,,,,,,,,,,,,,,,,,,,,,,,,,,,,,,,,,,,,,,,
,,66704327b46c7665de1190bc,2026-03-17_10h33.34.290,kallum_motion_pilot_GIST_update_2,2026.1.1,Win32,59.88023952,66704327b46c7665de1190bc,69b92ab4aef6dee357cd729a,69b92dbc7cf694d2ee2a55f6,0.0713,0.0713,1,52,214,94,1,eightsix,,,,,,,,,,,,,,,,,,,,,,,,,,,,,,,,,,,,,,,,,,,,,,,,,,,,,,,,,,,,,,,,,,,,,,,,,,,,,,,,,,,,,,,,,,,,,,,,,,,,,,,,,,,,,,,,,,,,,,,,,,,,,,,,,,,,,,,,,
,,66704327b46c7665de1190bc,2026-03-17_10h33.34.290,kallum_motion_pilot_GIST_update_2,2026.1.1,Win32,59.88023952,66704327b46c7665de1190bc,69b92ab4aef6dee357cd729a,69b92dbc7cf694d2ee2a55f6,0.0716,0.0716,1,53,215,154,1,sixfive,,,,,,,,,,,,,,,,,,,,,,,,,,,,,,,,,,,,,,,,,,,,,,,,,,,,,,,,,,,,,,,,,,,,,,,,,,,,,,,,,,,,,,,,,,,,,,,,,,,,,,,,,,,,,,,,,,,,,,,,,,,,,,,,,,,,,,,,,
,,66704327b46c7665de1190bc,2026-03-17_10h33.34.290,kallum_motion_pilot_GIST_update_2,2026.1.1,Win32,59.88023952,66704327b46c7665de1190bc,69b92ab4aef6dee357cd729a,69b92dbc7cf694d2ee2a55f6,0.072,0.072,1,54,216,47,1,fourthree,,,,,,,,,,,,,,,,,,,,,,,,,,,,,,,,,,,,,,,,,,,,,,,,,,,,,,,,,,,,,,,,,,,,,,,,,,,,,,,,,,,,,,,,,,,,,,,,,,,,,,,,,,,,,,,,,,,,,,,,,,,,,,,,,,,,,,,,,
,,66704327b46c7665de1190bc,2026-03-17_10h33.34.290,kallum_motion_pilot_GIST_update_2,2026.1.1,Win32,59.88023952,66704327b46c7665de1190bc,69b92ab4aef6dee357cd729a,69b92dbc7cf694d2ee2a55f6,0.0722,0.0722,1,55,217,155,1,sixeight,,,,,,,,,,,,,,,,,,,,,,,,,,,,,,,,,,,,,,,,,,,,,,,,,,,,,,,,,,,,,,,,,,,,,,,,,,,,,,,,,,,,,,,,,,,,,,,,,,,,,,,,,,,,,,,,,,,,,,,,,,,,,,,,,,,,,,,,,
,,66704327b46c7665de1190bc,2026-03-17_10h33.34.290,kallum_motion_pilot_GIST_update_2,2026.1.1,Win32,59.88023952,66704327b46c7665de1190bc,69b92ab4aef6dee357cd729a,69b92dbc7cf694d2ee2a55f6,0.0724,0.0724,1,56,218,70,1,fourtwo,,,,,,,,,,,,,,,,,,,,,,,,,,,,,,,,,,,,,,,,,,,,,,,,,,,,,,,,,,,,,,,,,,,,,,,,,,,,,,,,,,,,,,,,,,,,,,,,,,,,,,,,,,,,,,,,,,,,,,,,,,,,,,,,,,,,,,,,,
,,66704327b46c7665de1190bc,2026-03-17_10h33.34.290,kallum_motion_pilot_GIST_update_2,2026.1.1,Win32,59.88023952,66704327b46c7665de1190bc,69b92ab4aef6dee357cd729a,69b92dbc7cf694d2ee2a55f6,0.0727,0.0727,1,57,219,3,1,twofour,,,,,,,,,,,,,,,,,,,,,,,,,,,,,,,,,,,,,,,,,,,,,,,,,,,,,,,,,,,,,,,,,,,,,,,,,,,,,,,,,,,,,,,,,,,,,,,,,,,,,,,,,,,,,,,,,,,,,,,,,,,,,,,,,,,,,,,,,
,,66704327b46c7665de1190bc,2026-03-17_10h33.34.290,kallum_motion_pilot_GIST_update_2,2026.1.1,Win32,59.88023952,66704327b46c7665de1190bc,69b92ab4aef6dee357cd729a,69b92dbc7cf694d2ee2a55f6,0.0729,0.073,1,58,220,157,1,seveneight,,,,,,,,,,,,,,,,,,,,,,,,,,,,,,,,,,,,,,,,,,,,,,,,,,,,,,,,,,,,,,,,,,,,,,,,,,,,,,,,,,,,,,,,,,,,,,,,,,,,,,,,,,,,,,,,,,,,,,,,,,,,,,,,,,,,,,,,,
,,66704327b46c7665de1190bc,2026-03-17_10h33.34.290,kallum_motion_pilot_GIST_update_2,2026.1.1,Win32,59.88023952,66704327b46c7665de1190bc,69b92ab4aef6dee357cd729a,69b92dbc7cf694d2ee2a55f6,0.0732,0.0732,1,59,221,54,1,fourtwo,,,,,,,,,,,,,,,,,,,,,,,,,,,,,,,,,,,,,,,,,,,,,,,,,,,,,,,,,,,,,,,,,,,,,,,,,,,,,,,,,,,,,,,,,,,,,,,,,,,,,,,,,,,,,,,,,,,,,,,,,,,,,,,,,,,,,,,,,
,,66704327b46c7665de1190bc,2026-03-17_10h33.34.290,kallum_motion_pilot_GIST_update_2,2026.1.1,Win32,59.88023952,66704327b46c7665de1190bc,69b92ab4aef6dee357cd729a,69b92dbc7cf694d2ee2a55f6,0.0734,0.0734,1,60,222,115,1,sixeight,,,,,,,,,,,,,,,,,,,,,,,,,,,,,,,,,,,,,,,,,,,,,,,,,,,,,,,,,,,,,,,,,,,,,,,,,,,,,,,,,,,,,,,,,,,,,,,,,,,,,,,,,,,,,,,,,,,,,,,,,,,,,,,,,,,,,,,,,
,,66704327b46c7665de1190bc,2026-03-17_10h33.34.290,kallum_motion_pilot_GIST_update_2,2026.1.1,Win32,59.88023952,66704327b46c7665de1190bc,69b92ab4aef6dee357cd729a,69b92dbc7cf694d2ee2a55f6,0.0736,0.0736,1,61,223,108,1,sevenfive,,,,,,,,,,,,,,,,,,,,,,,,,,,,,,,,,,,,,,,,,,,,,,,,,,,,,,,,,,,,,,,,,,,,,,,,,,,,,,,,,,,,,,,,,,,,,,,,,,,,,,,,,,,,,,,,,,,,,,,,,,,,,,,,,,,,,,,,,
,,66704327b46c7665de1190bc,2026-03-17_10h33.34.290,kallum_motion_pilot_GIST_update_2,2026.1.1,Win32,59.88023952,66704327b46c7665de1190bc,69b92ab4aef6dee357cd729a,69b92dbc7cf694d2ee2a55f6,0.0739,0.0739,1,62,224,30,1,fourtwo,,,,,,,,,,,,,,,,,,,,,,,,,,,,,,,,,,,,,,,,,,,,,,,,,,,,,,,,,,,,,,,,,,,,,,,,,,,,,,,,,,,,,,,,,,,,,,,,,,,,,,,,,,,,,,,,,,,,,,,,,,,,,,,,,,,,,,,,,
,,66704327b46c7665de1190bc,2026-03-17_10h33.34.290,kallum_motion_pilot_GIST_update_2,2026.1.1,Win32,59.88023952,66704327b46c7665de1190bc,69b92ab4aef6dee357cd729a,69b92dbc7cf694d2ee2a55f6,0.074,0.074,1,63,225,87,1,eightseven,,,,,,,,,,,,,,,,,,,,,,,,,,,,,,,,,,,,,,,,,,,,,,,,,,,,,,,,,,,,,,,,,,,,,,,,,,,,,,,,,,,,,,,,,,,,,,,,,,,,,,,,,,,,,,,,,,,,,,,,,,,,,,,,,,,,,,,,,
,,66704327b46c7665de1190bc,2026-03-17_10h33.34.290,kallum_motion_pilot_GIST_update_2,2026.1.1,Win32,59.88023952,66704327b46c7665de1190bc,69b92ab4aef6dee357cd729a,69b92dbc7cf694d2ee2a55f6,0.0743,0.0743,1,64,226,99,1,sixeight,,,,,,,,,,,,,,,,,,,,,,,,,,,,,,,,,,,,,,,,,,,,,,,,,,,,,,,,,,,,,,,,,,,,,,,,,,,,,,,,,,,,,,,,,,,,,,,,,,,,,,,,,,,,,,,,,,,,,,,,,,,,,,,,,,,,,,,,,
,,66704327b46c7665de1190bc,2026-03-17_10h33.34.290,kallum_motion_pilot_GIST_update_2,2026.1.1,Win32,59.88023952,66704327b46c7665de1190bc,69b92ab4aef6dee357cd729a,69b92dbc7cf694d2ee2a55f6,0.0745,0.0745,1,65,227,156,1,sevenfive,,,,,,,,,,,,,,,,,,,,,,,,,,,,,,,,,,,,,,,,,,,,,,,,,,,,,,,,,,,,,,,,,,,,,,,,,,,,,,,,,,,,,,,,,,,,,,,,,,,,,,,,,,,,,,,,,,,,,,,,,,,,,,,,,,,,,,,,,
,,66704327b46c7665de1190bc,2026-03-17_10h33.34.290,kallum_motion_pilot_GIST_update_2,2026.1.1,Win32,59.88023952,66704327b46c7665de1190bc,69b92ab4aef6dee357cd729a,69b92dbc7cf694d2ee2a55f6,0.0748,0.0748,1,66,228,106,1,sixfive,,,,,,,,,,,,,,,,,,,,,,,,,,,,,,,,,,,,,,,,,,,,,,,,,,,,,,,,,,,,,,,,,,,,,,,,,,,,,,,,,,,,,,,,,,,,,,,,,,,,,,,,,,,,,,,,,,,,,,,,,,,,,,,,,,,,,,,,,
,,66704327b46c7665de1190bc,2026-03-17_10h33.34.290,kallum_motion_pilot_GIST_update_2,2026.1.1,Win32,59.88023952,66704327b46c7665de1190bc,69b92ab4aef6dee357cd729a,69b92dbc7cf694d2ee2a55f6,0.0751,0.0751,1,67,229,89,1,fiveseven,,,,,,,,,,,,,,,,,,,,,,,,,,,,,,,,,,,,,,,,,,,,,,,,,,,,,,,,,,,,,,,,,,,,,,,,,,,,,,,,,,,,,,,,,,,,,,,,,,,,,,,,,,,,,,,,,,,,,,,,,,,,,,,,,,,,,,,,,
,,66704327b46c7665de1190bc,2026-03-17_10h33.34.290,kallum_motion_pilot_GIST_update_2,2026.1.1,Win32,59.88023952,66704327b46c7665de1190bc,69b92ab4aef6dee357cd729a,69b92dbc7cf694d2ee2a55f6,0.0754,0.0754,1,68,230,122,1,sixfive,,,,,,,,,,,,,,,,,,,,,,,,,,,,,,,,,,,,,,,,,,,,,,,,,,,,,,,,,,,,,,,,,,,,,,,,,,,,,,,,,,,,,,,,,,,,,,,,,,,,,,,,,,,,,,,,,,,,,,,,,,,,,,,,,,,,,,,,,
,,66704327b46c7665de1190bc,2026-03-17_10h33.34.290,kallum_motion_pilot_GIST_update_2,2026.1.1,Win32,59.88023952,66704327b46c7665de1190bc,69b92ab4aef6dee357cd729a,69b92dbc7cf694d2ee2a55f6,0.0756,0.0756,1,69,231,138,1,sixfive,,,,,,,,,,,,,,,,,,,,,,,,,,,,,,,,,,,,,,,,,,,,,,,,,,,,,,,,,,,,,,,,,,,,,,,,,,,,,,,,,,,,,,,,,,,,,,,,,,,,,,,,,,,,,,,,,,,,,,,,,,,,,,,,,,,,,,,,,
,,66704327b46c7665de1190bc,2026-03-17_10h33.34.290,kallum_motion_pilot_GIST_update_2,2026.1.1,Win32,59.88023952,66704327b46c7665de1190bc,69b92ab4aef6dee357cd729a,69b92dbc7cf694d2ee2a55f6,0.0759,0.0759,1,70,232,51,1,twofour,,,,,,,,,,,,,,,,,,,,,,,,,,,,,,,,,,,,,,,,,,,,,,,,,,,,,,,,,,,,,,,,,,,,,,,,,,,,,,,,,,,,,,,,,,,,,,,,,,,,,,,,,,,,,,,,,,,,,,,,,,,,,,,,,,,,,,,,,
,,66704327b46c7665de1190bc,2026-03-17_10h33.34.290,kallum_motion_pilot_GIST_update_2,2026.1.1,Win32,59.88023952,66704327b46c7665de1190bc,69b92ab4aef6dee357cd729a,69b92dbc7cf694d2ee2a55f6,0.0761,0.0761,1,71,233,58,1,twoone,,,,,,,,,,,,,,,,,,,,,,,,,,,,,,,,,,,,,,,,,,,,,,,,,,,,,,,,,,,,,,,,,,,,,,,,,,,,,,,,,,,,,,,,,,,,,,,,,,,,,,,,,,,,,,,,,,,,,,,,,,,,,,,,,,,,,,,,,
,,66704327b46c7665de1190bc,2026-03-17_10h33.34.290,kallum_motion_pilot_GIST_update_2,2026.1.1,Win32,59.88023952,66704327b46c7665de1190bc,69b92ab4aef6dee357cd729a,69b92dbc7cf694d2ee2a55f6,0.0763,0.0763,1,72,234,7,1,fourthree,,,,,,,,,,,,,,,,,,,,,,,,,,,,,,,,,,,,,,,,,,,,,,,,,,,,,,,,,,,,,,,,,,,,,,,,,,,,,,,,,,,,,,,,,,,,,,,,,,,,,,,,,,,,,,,,,,,,,,,,,,,,,,,,,,,,,,,,,
,,66704327b46c7665de1190bc,2026-03-17_10h33.34.290,kallum_motion_pilot_GIST_update_2,2026.1.1,Win32,59.88023952,66704327b46c7665de1190bc,69b92ab4aef6dee357cd729a,69b92dbc7cf694d2ee2a55f6,0.0766,0.0766,1,73,235,39,1,fourthree,,,,,,,,,,,,,,,,,,,,,,,,,,,,,,,,,,,,,,,,,,,,,,,,,,,,,,,,,,,,,,,,,,,,,,,,,,,,,,,,,,,,,,,,,,,,,,,,,,,,,,,,,,,,,,,,,,,,,,,,,,,,,,,,,,,,,,,,,
,,66704327b46c7665de1190bc,2026-03-17_10h33.34.290,kallum_motion_pilot_GIST_update_2,2026.1.1,Win32,59.88023952,66704327b46c7665de1190bc,69b92ab4aef6dee357cd729a,69b92dbc7cf694d2ee2a55f6,0.0769,0.0769,1,74,236,63,1,fourthree,,,,,,,,,,,,,,,,,,,,,,,,,,,,,,,,,,,,,,,,,,,,,,,,,,,,,,,,,,,,,,,,,,,,,,,,,,,,,,,,,,,,,,,,,,,,,,,,,,,,,,,,,,,,,,,,,,,,,,,,,,,,,,,,,,,,,,,,,
,,66704327b46c7665de1190bc,2026-03-17_10h33.34.290,kallum_motion_pilot_GIST_update_2,2026.1.1,Win32,59.88023952,66704327b46c7665de1190bc,69b92ab4aef6dee357cd729a,69b92dbc7cf694d2ee2a55f6,0.0773,0.0773,1,75,237,61,1,threefour,,,,,,,,,,,,,,,,,,,,,,,,,,,,,,,,,,,,,,,,,,,,,,,,,,,,,,,,,,,,,,,,,,,,,,,,,,,,,,,,,,,,,,,,,,,,,,,,,,,,,,,,,,,,,,,,,,,,,,,,,,,,,,,,,,,,,,,,,
,,66704327b46c7665de1190bc,2026-03-17_10h33.34.290,kallum_motion_pilot_GIST_update_2,2026.1.1,Win32,59.88023952,66704327b46c7665de1190bc,69b92ab4aef6dee357cd729a,69b92dbc7cf694d2ee2a55f6,0.0776,0.0776,1,76,238,57,1,onethree,,,,,,,,,,,,,,,,,,,,,,,,,,,,,,,,,,,,,,,,,,,,,,,,,,,,,,,,,,,,,,,,,,,,,,,,,,,,,,,,,,,,,,,,,,,,,,,,,,,,,,,,,,,,,,,,,,,,,,,,,,,,,,,,,,,,,,,,,
,,66704327b46c7665de1190bc,2026-03-17_10h33.34.290,kallum_motion_pilot_GIST_update_2,2026.1.1,Win32,59.88023952,66704327b46c7665de1190bc,69b92ab4aef6dee357cd729a,69b92dbc7cf694d2ee2a55f6,0.0779,0.0779,1,77,239,135,1,eightseven,,,,,,,,,,,,,,,,,,,,,,,,,,,,,,,,,,,,,,,,,,,,,,,,,,,,,,,,,,,,,,,,,,,,,,,,,,,,,,,,,,,,,,,,,,,,,,,,,,,,,,,,,,,,,,,,,,,,,,,,,,,,,,,,,,,,,,,,,
,,66704327b46c7665de1190bc,2026-03-17_10h33.34.290,kallum_motion_pilot_GIST_update_2,2026.1.1,Win32,59.88023952,66704327b46c7665de1190bc,69b92ab4aef6dee357cd729a,69b92dbc7cf694d2ee2a55f6,0.0783,0.0783,1,78,240,127,1,eightseven,,,,,,,,,,,,,,,,,,,,,,,,,,,,,,,,,,,,,,,,,,,,,,,,,,,,,,,,,,,,,,,,,,,,,,,,,,,,,,,,,,,,,,,,,,,,,,,,,,,,,,,,,,,,,,,,,,,,,,,,,,,,,,,,,,,,,,,,,
,,66704327b46c7665de1190bc,2026-03-17_10h33.34.290,kallum_motion_pilot_GIST_update_2,2026.1.1,Win32,59.88023952,66704327b46c7665de1190bc,69b92ab4aef6dee357cd729a,69b92dbc7cf694d2ee2a55f6,0.0786,0.0786,1,79,241,134,1,eightsix,,,,,,,,,,,,,,,,,,,,,,,,,,,,,,,,,,,,,,,,,,,,,,,,,,,,,,,,,,,,,,,,,,,,,,,,,,,,,,,,,,,,,,,,,,,,,,,,,,,,,,,,,,,,,,,,,,,,,,,,,,,,,,,,,,,,,,,,,
,,66704327b46c7665de1190bc,2026-03-17_10h33.34.290,kallum_motion_pilot_GIST_update_2,2026.1.1,Win32,59.88023952,66704327b46c7665de1190bc,69b92ab4aef6dee357cd729a,69b92dbc7cf694d2ee2a55f6,0.0791,0.0791,1,80,242,35,1,twofour,,,,,,,,,,,,,,,,,,,,,,,,,,,,,,,,,,,,,,,,,,,,,,,,,,,,,,,,,,,,,,,,,,,,,,,,,,,,,,,,,,,,,,,,,,,,,,,,,,,,,,,,,,,,,,,,,,,,,,,,,,,,,,,,,,,,,,,,,
,,66704327b46c7665de1190bc,2026-03-17_10h33.34.290,kallum_motion_pilot_GIST_update_2,2026.1.1,Win32,59.88023952,66704327b46c7665de1190bc,69b92ab4aef6dee357cd729a,69b92dbc7cf694d2ee2a55f6,0.0795,0.0795,1,81,243,97,1,fiveseven,,,,,,,,,,,,,,,,,,,,,,,,,,,,,,,,,,,,,,,,,,,,,,,,,,,,,,,,,,,,,,,,,,,,,,,,,,,,,,,,,,,,,,,,,,,,,,,,,,,,,,,,,,,,,,,,,,,,,,,,,,,,,,,,,,,,,,,,,
,,66704327b46c7665de1190bc,2026-03-17_10h33.34.290,kallum_motion_pilot_GIST_update_2,2026.1.1,Win32,59.88023952,66704327b46c7665de1190bc,69b92ab4aef6dee357cd729a,69b92dbc7cf694d2ee2a55f6,0.0798,0.0798,1,82,244,59,1,twofour,,,,,,,,,,,,,,,,,,,,,,,,,,,,,,,,,,,,,,,,,,,,,,,,,,,,,,,,,,,,,,,,,,,,,,,,,,,,,,,,,,,,,,,,,,,,,,,,,,,,,,,,,,,,,,,,,,,,,,,,,,,,,,,,,,,,,,,,,
,,66704327b46c7665de1190bc,2026-03-17_10h33.34.290,kallum_motion_pilot_GIST_update_2,2026.1.1,Win32,59.88023952,66704327b46c7665de1190bc,69b92ab4aef6dee357cd729a,69b92dbc7cf694d2ee2a55f6,0.0801,0.0801,1,83,245,91,1,sixeight,,,,,,,,,,,,,,,,,,,,,,,,,,,,,,,,,,,,,,,,,,,,,,,,,,,,,,,,,,,,,,,,,,,,,,,,,,,,,,,,,,,,,,,,,,,,,,,,,,,,,,,,,,,,,,,,,,,,,,,,,,,,,,,,,,,,,,,,,
,,66704327b46c7665de1190bc,2026-03-17_10h33.34.290,kallum_motion_pilot_GIST_update_2,2026.1.1,Win32,59.88023952,66704327b46c7665de1190bc,69b92ab4aef6dee357cd729a,69b92dbc7cf694d2ee2a55f6,0.0803,0.0803,1,84,246,147,1,sixeight,,,,,,,,,,,,,,,,,,,,,,,,,,,,,,,,,,,,,,,,,,,,,,,,,,,,,,,,,,,,,,,,,,,,,,,,,,,,,,,,,,,,,,,,,,,,,,,,,,,,,,,,,,,,,,,,,,,,,,,,,,,,,,,,,,,,,,,,,
,,66704327b46c7665de1190bc,2026-03-17_10h33.34.290,kallum_motion_pilot_GIST_update_2,2026.1.1,Win32,59.88023952,66704327b46c7665de1190bc,69b92ab4aef6dee357cd729a,69b92dbc7cf694d2ee2a55f6,0.0806,0.0806,1,85,247,143,1,eightseven,,,,,,,,,,,,,,,,,,,,,,,,,,,,,,,,,,,,,,,,,,,,,,,,,,,,,,,,,,,,,,,,,,,,,,,,,,,,,,,,,,,,,,,,,,,,,,,,,,,,,,,,,,,,,,,,,,,,,,,,,,,,,,,,,,,,,,,,,
,,66704327b46c7665de1190bc,2026-03-17_10h33.34.290,kallum_motion_pilot_GIST_update_2,2026.1.1,Win32,59.88023952,66704327b46c7665de1190bc,69b92ab4aef6dee357cd729a,69b92dbc7cf694d2ee2a55f6,0.0808,0.0808,1,86,248,105,1,fiveseven,,,,,,,,,,,,,,,,,,,,,,,,,,,,,,,,,,,,,,,,,,,,,,,,,,,,,,,,,,,,,,,,,,,,,,,,,,,,,,,,,,,,,,,,,,,,,,,,,,,,,,,,,,,,,,,,,,,,,,,,,,,,,,,,,,,,,,,,,
,,66704327b46c7665de1190bc,2026-03-17_10h33.34.290,kallum_motion_pilot_GIST_update_2,2026.1.1,Win32,59.88023952,66704327b46c7665de1190bc,69b92ab4aef6dee357cd729a,69b92dbc7cf694d2ee2a55f6,0.081,0.081,1,87,249,118,1,eightsix,,,,,,,,,,,,,,,,,,,,,,,,,,,,,,,,,,,,,,,,,,,,,,,,,,,,,,,,,,,,,,,,,,,,,,,,,,,,,,,,,,,,,,,,,,,,,,,,,,,,,,,,,,,,,,,,,,,,,,,,,,,,,,,,,,,,,,,,,
,,66704327b46c7665de1190bc,2026-03-17_10h33.34.290,kallum_motion_pilot_GIST_update_2,2026.1.1,Win32,59.88023952,66704327b46c7665de1190bc,69b92ab4aef6dee357cd729a,69b92dbc7cf694d2ee2a55f6,0.0813,0.0813,1,88,250,141,1,seveneight,,,,,,,,,,,,,,,,,,,,,,,,,,,,,,,,,,,,,,,,,,,,,,,,,,,,,,,,,,,,,,,,,,,,,,,,,,,,,,,,,,,,,,,,,,,,,,,,,,,,,,,,,,,,,,,,,,,,,,,,,,,,,,,,,,,,,,,,,
,,66704327b46c7665de1190bc,2026-03-17_10h33.34.290,kallum_motion_pilot_GIST_update_2,2026.1.1,Win32,59.88023952,66704327b46c7665de1190bc,69b92ab4aef6dee357cd729a,69b92dbc7cf694d2ee2a55f6,0.0815,0.0815,1,89,251,38,1,fourtwo,,,,,,,,,,,,,,,,,,,,,,,,,,,,,,,,,,,,,,,,,,,,,,,,,,,,,,,,,,,,,,,,,,,,,,,,,,,,,,,,,,,,,,,,,,,,,,,,,,,,,,,,,,,,,,,,,,,,,,,,,,,,,,,,,,,,,,,,,
,,66704327b46c7665de1190bc,2026-03-17_10h33.34.290,kallum_motion_pilot_GIST_update_2,2026.1.1,Win32,59.88023952,66704327b46c7665de1190bc,69b92ab4aef6dee357cd729a,69b92dbc7cf694d2ee2a55f6,0.0818,0.0819,1,90,252,114,1,sixfive,,,,,,,,,,,,,,,,,,,,,,,,,,,,,,,,,,,,,,,,,,,,,,,,,,,,,,,,,,,,,,,,,,,,,,,,,,,,,,,,,,,,,,,,,,,,,,,,,,,,,,,,,,,,,,,,,,,,,,,,,,,,,,,,,,,,,,,,,
,,66704327b46c7665de1190bc,2026-03-17_10h33.34.290,kallum_motion_pilot_GIST_update_2,2026.1.1,Win32,59.88023952,66704327b46c7665de1190bc,69b92ab4aef6dee357cd729a,69b92dbc7cf694d2ee2a55f6,0.0821,0.0821,1,91,253,73,1,onethree,,,,,,,,,,,,,,,,,,,,,,,,,,,,,,,,,,,,,,,,,,,,,,,,,,,,,,,,,,,,,,,,,,,,,,,,,,,,,,,,,,,,,,,,,,,,,,,,,,,,,,,,,,,,,,,,,,,,,,,,,,,,,,,,,,,,,,,,,
,,66704327b46c7665de1190bc,2026-03-17_10h33.34.290,kallum_motion_pilot_GIST_update_2,2026.1.1,Win32,59.88023952,66704327b46c7665de1190bc,69b92ab4aef6dee357cd729a,69b92dbc7cf694d2ee2a55f6,0.0824,0.0824,1,92,254,100,1,sevenfive,,,,,,,,,,,,,,,,,,,,,,,,,,,,,,,,,,,,,,,,,,,,,,,,,,,,,,,,,,,,,,,,,,,,,,,,,,,,,,,,,,,,,,,,,,,,,,,,,,,,,,,,,,,,,,,,,,,,,,,,,,,,,,,,,,,,,,,,,
,,66704327b46c7665de1190bc,2026-03-17_10h33.34.290,kallum_motion_pilot_GIST_update_2,2026.1.1,Win32,59.88023952,66704327b46c7665de1190bc,69b92ab4aef6dee357cd729a,69b92dbc7cf694d2ee2a55f6,0.0827,0.0828,1,93,255,123,1,sixeight,,,,,,,,,,,,,,,,,,,,,,,,,,,,,,,,,,,,,,,,,,,,,,,,,,,,,,,,,,,,,,,,,,,,,,,,,,,,,,,,,,,,,,,,,,,,,,,,,,,,,,,,,,,,,,,,,,,,,,,,,,,,,,,,,,,,,,,,,
,,66704327b46c7665de1190bc,2026-03-17_10h33.34.290,kallum_motion_pilot_GIST_update_2,2026.1.1,Win32,59.88023952,66704327b46c7665de1190bc,69b92ab4aef6dee357cd729a,69b92dbc7cf694d2ee2a55f6,0.0829,0.083,1,94,256,72,1,onetwo,,,,,,,,,,,,,,,,,,,,,,,,,,,,,,,,,,,,,,,,,,,,,,,,,,,,,,,,,,,,,,,,,,,,,,,,,,,,,,,,,,,,,,,,,,,,,,,,,,,,,,,,,,,,,,,,,,,,,,,,,,,,,,,,,,,,,,,,,
,,66704327b46c7665de1190bc,2026-03-17_10h33.34.290,kallum_motion_pilot_GIST_update_2,2026.1.1,Win32,59.88023952,66704327b46c7665de1190bc,69b92ab4aef6dee357cd729a,69b92dbc7cf694d2ee2a55f6,0.0832,0.0832,1,95,257,110,1,eightsix,,,,,,,,,,,,,,,,,,,,,,,,,,,,,,,,,,,,,,,,,,,,,,,,,,,,,,,,,,,,,,,,,,,,,,,,,,,,,,,,,,,,,,,,,,,,,,,,,,,,,,,,,,,,,,,,,,,,,,,,,,,,,,,,,,,,,,,,,
,,66704327b46c7665de1190bc,2026-03-17_10h33.34.290,kallum_motion_pilot_GIST_update_2,2026.1.1,Win32,59.88023952,66704327b46c7665de1190bc,69b92ab4aef6dee357cd729a,69b92dbc7cf694d2ee2a55f6,0.0833,0.0833,1,96,258,113,1,fiveseven,,,,,,,,,,,,,,,,,,,,,,,,,,,,,,,,,,,,,,,,,,,,,,,,,,,,,,,,,,,,,,,,,,,,,,,,,,,,,,,,,,,,,,,,,,,,,,,,,,,,,,,,,,,,,,,,,,,,,,,,,,,,,,,,,,,,,,,,,
,,66704327b46c7665de1190bc,2026-03-17_10h33.34.290,kallum_motion_pilot_GIST_update_2,2026.1.1,Win32,59.88023952,66704327b46c7665de1190bc,69b92ab4aef6dee357cd729a,69b92dbc7cf694d2ee2a55f6,0.0845,0.0845,1,97,259,31,1,fourthree,,,,,,,,,,,,,,,,,,,,,,,,,,,,,,,,,,,,,,,,,,,,,,,,,,,,,,,,,,,,,,,,,,,,,,,,,,,,,,,,,,,,,,,,,,,,,,,,,,,,,,,,,,,,,,,,,,,,,,,,,,,,,,,,,,,,,,,,,
,,66704327b46c7665de1190bc,2026-03-17_10h33.34.290,kallum_motion_pilot_GIST_update_2,2026.1.1,Win32,59.88023952,66704327b46c7665de1190bc,69b92ab4aef6dee357cd729a,69b92dbc7cf694d2ee2a55f6,0.0852,0.0852,1,98,260,23,1,fourthree,,,,,,,,,,,,,,,,,,,,,,,,,,,,,,,,,,,,,,,,,,,,,,,,,,,,,,,,,,,,,,,,,,,,,,,,,,,,,,,,,,,,,,,,,,,,,,,,,,,,,,,,,,,,,,,,,,,,,,,,,,,,,,,,,,,,,,,,,
,,66704327b46c7665de1190bc,2026-03-17_10h33.34.290,kallum_motion_pilot_GIST_update_2,2026.1.1,Win32,59.88023952,66704327b46c7665de1190bc,69b92ab4aef6dee357cd729a,69b92dbc7cf694d2ee2a55f6,0.0856,0.0856,1,99,261,150,1,eightsix,,,,,,,,,,,,,,,,,,,,,,,,,,,,,,,,,,,,,,,,,,,,,,,,,,,,,,,,,,,,,,,,,,,,,,,,,,,,,,,,,,,,,,,,,,,,,,,,,,,,,,,,,,,,,,,,,,,,,,,,,,,,,,,,,,,,,,,,,
,,66704327b46c7665de1190bc,2026-03-17_10h33.34.290,kallum_motion_pilot_GIST_update_2,2026.1.1,Win32,59.88023952,66704327b46c7665de1190bc,69b92ab4aef6dee357cd729a,69b92dbc7cf694d2ee2a55f6,0.086,0.086,1,100,262,25,1,onethree,,,,,,,,,,,,,,,,,,,,,,,,,,,,,,,,,,,,,,,,,,,,,,,,,,,,,,,,,,,,,,,,,,,,,,,,,,,,,,,,,,,,,,,,,,,,,,,,,,,,,,,,,,,,,,,,,,,,,,,,,,,,,,,,,,,,,,,,,
,,66704327b46c7665de1190bc,2026-03-17_10h33.34.290,kallum_motion_pilot_GIST_update_2,2026.1.1,Win32,59.88023952,66704327b46c7665de1190bc,69b92ab4aef6dee357cd729a,69b92dbc7cf694d2ee2a55f6,0.0864,0.0864,1,101,263,90,1,sixfive,,,,,,,,,,,,,,,,,,,,,,,,,,,,,,,,,,,,,,,,,,,,,,,,,,,,,,,,,,,,,,,,,,,,,,,,,,,,,,,,,,,,,,,,,,,,,,,,,,,,,,,,,,,,,,,,,,,,,,,,,,,,,,,,,,,,,,,,,
,,66704327b46c7665de1190bc,2026-03-17_10h33.34.290,kallum_motion_pilot_GIST_update_2,2026.1.1,Win32,59.88023952,66704327b46c7665de1190bc,69b92ab4aef6dee357cd729a,69b92dbc7cf694d2ee2a55f6,0.0868,0.0868,1,102,264,159,1,eightseven,,,,,,,,,,,,,,,,,,,,,,,,,,,,,,,,,,,,,,,,,,,,,,,,,,,,,,,,,,,,,,,,,,,,,,,,,,,,,,,,,,,,,,,,,,,,,,,,,,,,,,,,,,,,,,,,,,,,,,,,,,,,,,,,,,,,,,,,,
,,66704327b46c7665de1190bc,2026-03-17_10h33.34.290,kallum_motion_pilot_GIST_update_2,2026.1.1,Win32,59.88023952,66704327b46c7665de1190bc,69b92ab4aef6dee357cd729a,69b92dbc7cf694d2ee2a55f6,0.0872,0.0872,1,103,265,44,1,threeone,,,,,,,,,,,,,,,,,,,,,,,,,,,,,,,,,,,,,,,,,,,,,,,,,,,,,,,,,,,,,,,,,,,,,,,,,,,,,,,,,,,,,,,,,,,,,,,,,,,,,,,,,,,,,,,,,,,,,,,,,,,,,,,,,,,,,,,,,
,,66704327b46c7665de1190bc,2026-03-17_10h33.34.290,kallum_motion_pilot_GIST_update_2,2026.1.1,Win32,59.88023952,66704327b46c7665de1190bc,69b92ab4aef6dee357cd729a,69b92dbc7cf694d2ee2a55f6,0.0874,0.0875,1,104,266,27,1,twofour,,,,,,,,,,,,,,,,,,,,,,,,,,,,,,,,,,,,,,,,,,,,,,,,,,,,,,,,,,,,,,,,,,,,,,,,,,,,,,,,,,,,,,,,,,,,,,,,,,,,,,,,,,,,,,,,,,,,,,,,,,,,,,,,,,,,,,,,,
