startup.started,startup.stopped,Prolific ID*,date,expName,psychopyVersion,OS,frameRate,participant,study_id,session,stimpositions.started,stimpositions.stopped,hardcoded_stimulus_positions.thisRepN,hardcoded_stimulus_positions.thisTrialN,hardcoded_stimulus_positions.thisN,hardcoded_stimulus_positions.thisIndex,hardcoded_stimulus_positions.ran,StimulusPos,stimorientation.started,stimorientation.stopped,prac_stimorientation_import_loop.thisRepN,prac_stimorientation_import_loop.thisTrialN,prac_stimorientation_import_loop.thisN,prac_stimorientation_import_loop.thisIndex,prac_stimorientation_import_loop.ran,Stimorientation,welcome_instr.started,welcome_instr.stopped,key_resp.keys,key_resp.rt,key_resp.duration,response_steppedout_1.started,response_steppedout_1.stopped,key_resp_20.keys,key_resp_20.rt,key_resp_20.duration,response_steppedout_2.started,response_steppedout_2.stopped,key_resp_19.keys,key_resp_19.rt,key_resp_19.duration,stim_response_instr.started,stim_response_instr.stopped,key_resp_15.keys,key_resp_15.rt,key_resp_15.duration,direction_instr_2.started,direction_instr_2.stopped,key_resp_9.keys,key_resp_9.rt,key_resp_9.duration,instr_prac.started,instr_prac.stopped,key_resp_10.keys,key_resp_10.rt,key_resp_10.duration,Stim1_display_prac.started,Stim1_display_prac.stopped,Ecc,Circle1_ori,Circle2_ori,response_prac.started,similarity,response_time,response_prac.stopped,mouse_5.x,mouse_5.y,mouse_5.leftButton,mouse_5.midButton,mouse_5.rightButton,mouse_5.clicked_name,responseprac_feedback.started,responseprac_feedback.stopped,summary2_prac.started,summary2_prac.stopped,mouse_6.x,mouse_6.y,mouse_6.leftButton,mouse_6.midButton,mouse_6.rightButton,mouse_6.clicked_name,duringprac.thisRepN,duringprac.thisTrialN,duringprac.thisN,duringprac.thisIndex,duringprac.ran,begin.started,begin.stopped,key_resp_22.keys,key_resp_22.rt,key_resp_22.duration,Stim1_display.started,Stim1_display.stopped,circle1_ori,circle2_ori,circle1_SF,circle2_SF,response.started,response.stopped,mouse.x,mouse.y,mouse.leftButton,mouse.midButton,mouse.rightButton,mouse.clicked_name,trialnumber,double_pass.thisRepN,double_pass.thisTrialN,double_pass.thisN,double_pass.thisIndex,double_pass.ran,double_pass.order,main_trial.thisRepN,main_trial.thisTrialN,main_trial.thisN,main_trial.thisIndex,main_trial.ran,main_trial.order,Trial_Counter,Catch,Frequencies,response_2.started,response_2.stopped,mouse_2.x,mouse_2.y,mouse_2.leftButton,mouse_2.midButton,mouse_2.rightButton,mouse_2.clicked_name,special_trial.started,special_trial.stopped,catch_1.started,catch_1.stopped,mouse_3.x,mouse_3.y,mouse_3.leftButton,mouse_3.midButton,mouse_3.rightButton,catchresponse,catchnumber,response_time_catch,response_sum.started,response_sum.stopped,mouse_11.x,mouse_11.y,mouse_11.leftButton,mouse_11.midButton,mouse_11.rightButton,flip_presentation_sequence_for_double_pass.started,flip_presentation_sequence_for_double_pass.stopped,goodbye.started,goodbye.stopped,key_resp_3.keys,key_resp_3.rt,key_resp_3.duration
0.0002,0.0003,66714c2440363e99e3aed3a3,2026-03-17_12h39.16.304,kallum_motion_pilot_GIST_update_2,2026.1.1,Win32,60.24096386,66714c2440363e99e3aed3a3,69b92ab4aef6dee357cd729a,69b92f23db7a2209b8abb841,,,,,,,,,,,,,,,,,,,,,,,,,,,,,,,,,,,,,,,,,,,,,,,,,,,,,,,,,,,,,,,,,,,,,,,,,,,,,,,,,,,,,,,,,,,,,,,,,,,,,,,,,,,,,,,,,,,,,,,,,,,,,,,,,,,,,,,,,,,,,,,,,
,,66714c2440363e99e3aed3a3,2026-03-17_12h39.16.304,kallum_motion_pilot_GIST_update_2,2026.1.1,Win32,60.24096386,66714c2440363e99e3aed3a3,69b92ab4aef6dee357cd729a,69b92f23db7a2209b8abb841,0.0138,0.0139,0,0,0,90,1,sixfive,,,,,,,,,,,,,,,,,,,,,,,,,,,,,,,,,,,,,,,,,,,,,,,,,,,,,,,,,,,,,,,,,,,,,,,,,,,,,,,,,,,,,,,,,,,,,,,,,,,,,,,,,,,,,,,,,,,,,,,,,,,,,,,,,,,,,,,,,
,,66714c2440363e99e3aed3a3,2026-03-17_12h39.16.304,kallum_motion_pilot_GIST_update_2,2026.1.1,Win32,60.24096386,66714c2440363e99e3aed3a3,69b92ab4aef6dee357cd729a,69b92f23db7a2209b8abb841,0.0139,0.0139,0,1,1,82,1,sixfive,,,,,,,,,,,,,,,,,,,,,,,,,,,,,,,,,,,,,,,,,,,,,,,,,,,,,,,,,,,,,,,,,,,,,,,,,,,,,,,,,,,,,,,,,,,,,,,,,,,,,,,,,,,,,,,,,,,,,,,,,,,,,,,,,,,,,,,,,
,,66714c2440363e99e3aed3a3,2026-03-17_12h39.16.304,kallum_motion_pilot_GIST_update_2,2026.1.1,Win32,60.24096386,66714c2440363e99e3aed3a3,69b92ab4aef6dee357cd729a,69b92f23db7a2209b8abb841,0.014,0.014,0,2,2,58,1,twoone,,,,,,,,,,,,,,,,,,,,,,,,,,,,,,,,,,,,,,,,,,,,,,,,,,,,,,,,,,,,,,,,,,,,,,,,,,,,,,,,,,,,,,,,,,,,,,,,,,,,,,,,,,,,,,,,,,,,,,,,,,,,,,,,,,,,,,,,,
,,66714c2440363e99e3aed3a3,2026-03-17_12h39.16.304,kallum_motion_pilot_GIST_update_2,2026.1.1,Win32,60.24096386,66714c2440363e99e3aed3a3,69b92ab4aef6dee357cd729a,69b92f23db7a2209b8abb841,0.0141,0.0141,0,3,3,64,1,onetwo,,,,,,,,,,,,,,,,,,,,,,,,,,,,,,,,,,,,,,,,,,,,,,,,,,,,,,,,,,,,,,,,,,,,,,,,,,,,,,,,,,,,,,,,,,,,,,,,,,,,,,,,,,,,,,,,,,,,,,,,,,,,,,,,,,,,,,,,,
,,66714c2440363e99e3aed3a3,2026-03-17_12h39.16.304,kallum_motion_pilot_GIST_update_2,2026.1.1,Win32,60.24096386,66714c2440363e99e3aed3a3,69b92ab4aef6dee357cd729a,69b92f23db7a2209b8abb841,0.0142,0.0142,0,4,4,122,1,sixfive,,,,,,,,,,,,,,,,,,,,,,,,,,,,,,,,,,,,,,,,,,,,,,,,,,,,,,,,,,,,,,,,,,,,,,,,,,,,,,,,,,,,,,,,,,,,,,,,,,,,,,,,,,,,,,,,,,,,,,,,,,,,,,,,,,,,,,,,,
,,66714c2440363e99e3aed3a3,2026-03-17_12h39.16.304,kallum_motion_pilot_GIST_update_2,2026.1.1,Win32,60.24096386,66714c2440363e99e3aed3a3,69b92ab4aef6dee357cd729a,69b92f23db7a2209b8abb841,0.0142,0.0142,0,5,5,37,1,threefour,,,,,,,,,,,,,,,,,,,,,,,,,,,,,,,,,,,,,,,,,,,,,,,,,,,,,,,,,,,,,,,,,,,,,,,,,,,,,,,,,,,,,,,,,,,,,,,,,,,,,,,,,,,,,,,,,,,,,,,,,,,,,,,,,,,,,,,,,
,,66714c2440363e99e3aed3a3,2026-03-17_12h39.16.304,kallum_motion_pilot_GIST_update_2,2026.1.1,Win32,60.24096386,66714c2440363e99e3aed3a3,69b92ab4aef6dee357cd729a,69b92f23db7a2209b8abb841,0.0144,0.0144,0,6,6,125,1,seveneight,,,,,,,,,,,,,,,,,,,,,,,,,,,,,,,,,,,,,,,,,,,,,,,,,,,,,,,,,,,,,,,,,,,,,,,,,,,,,,,,,,,,,,,,,,,,,,,,,,,,,,,,,,,,,,,,,,,,,,,,,,,,,,,,,,,,,,,,,
,,66714c2440363e99e3aed3a3,2026-03-17_12h39.16.304,kallum_motion_pilot_GIST_update_2,2026.1.1,Win32,60.24096386,66714c2440363e99e3aed3a3,69b92ab4aef6dee357cd729a,69b92f23db7a2209b8abb841,0.0145,0.0145,0,7,7,111,1,eightseven,,,,,,,,,,,,,,,,,,,,,,,,,,,,,,,,,,,,,,,,,,,,,,,,,,,,,,,,,,,,,,,,,,,,,,,,,,,,,,,,,,,,,,,,,,,,,,,,,,,,,,,,,,,,,,,,,,,,,,,,,,,,,,,,,,,,,,,,,
,,66714c2440363e99e3aed3a3,2026-03-17_12h39.16.304,kallum_motion_pilot_GIST_update_2,2026.1.1,Win32,60.24096386,66714c2440363e99e3aed3a3,69b92ab4aef6dee357cd729a,69b92f23db7a2209b8abb841,0.0146,0.0146,0,8,8,112,1,fivesix,,,,,,,,,,,,,,,,,,,,,,,,,,,,,,,,,,,,,,,,,,,,,,,,,,,,,,,,,,,,,,,,,,,,,,,,,,,,,,,,,,,,,,,,,,,,,,,,,,,,,,,,,,,,,,,,,,,,,,,,,,,,,,,,,,,,,,,,,
,,66714c2440363e99e3aed3a3,2026-03-17_12h39.16.304,kallum_motion_pilot_GIST_update_2,2026.1.1,Win32,60.24096386,66714c2440363e99e3aed3a3,69b92ab4aef6dee357cd729a,69b92f23db7a2209b8abb841,0.0146,0.0146,0,9,9,34,1,twoone,,,,,,,,,,,,,,,,,,,,,,,,,,,,,,,,,,,,,,,,,,,,,,,,,,,,,,,,,,,,,,,,,,,,,,,,,,,,,,,,,,,,,,,,,,,,,,,,,,,,,,,,,,,,,,,,,,,,,,,,,,,,,,,,,,,,,,,,,
,,66714c2440363e99e3aed3a3,2026-03-17_12h39.16.304,kallum_motion_pilot_GIST_update_2,2026.1.1,Win32,60.24096386,66714c2440363e99e3aed3a3,69b92ab4aef6dee357cd729a,69b92f23db7a2209b8abb841,0.0147,0.0147,0,10,10,44,1,threeone,,,,,,,,,,,,,,,,,,,,,,,,,,,,,,,,,,,,,,,,,,,,,,,,,,,,,,,,,,,,,,,,,,,,,,,,,,,,,,,,,,,,,,,,,,,,,,,,,,,,,,,,,,,,,,,,,,,,,,,,,,,,,,,,,,,,,,,,,
,,66714c2440363e99e3aed3a3,2026-03-17_12h39.16.304,kallum_motion_pilot_GIST_update_2,2026.1.1,Win32,60.24096386,66714c2440363e99e3aed3a3,69b92ab4aef6dee357cd729a,69b92f23db7a2209b8abb841,0.0147,0.0147,0,11,11,35,1,twofour,,,,,,,,,,,,,,,,,,,,,,,,,,,,,,,,,,,,,,,,,,,,,,,,,,,,,,,,,,,,,,,,,,,,,,,,,,,,,,,,,,,,,,,,,,,,,,,,,,,,,,,,,,,,,,,,,,,,,,,,,,,,,,,,,,,,,,,,,
,,66714c2440363e99e3aed3a3,2026-03-17_12h39.16.304,kallum_motion_pilot_GIST_update_2,2026.1.1,Win32,60.24096386,66714c2440363e99e3aed3a3,69b92ab4aef6dee357cd729a,69b92f23db7a2209b8abb841,0.0148,0.0148,0,12,12,104,1,fivesix,,,,,,,,,,,,,,,,,,,,,,,,,,,,,,,,,,,,,,,,,,,,,,,,,,,,,,,,,,,,,,,,,,,,,,,,,,,,,,,,,,,,,,,,,,,,,,,,,,,,,,,,,,,,,,,,,,,,,,,,,,,,,,,,,,,,,,,,,
,,66714c2440363e99e3aed3a3,2026-03-17_12h39.16.304,kallum_motion_pilot_GIST_update_2,2026.1.1,Win32,60.24096386,66714c2440363e99e3aed3a3,69b92ab4aef6dee357cd729a,69b92f23db7a2209b8abb841,0.0148,0.0148,0,13,13,38,1,fourtwo,,,,,,,,,,,,,,,,,,,,,,,,,,,,,,,,,,,,,,,,,,,,,,,,,,,,,,,,,,,,,,,,,,,,,,,,,,,,,,,,,,,,,,,,,,,,,,,,,,,,,,,,,,,,,,,,,,,,,,,,,,,,,,,,,,,,,,,,,
,,66714c2440363e99e3aed3a3,2026-03-17_12h39.16.304,kallum_motion_pilot_GIST_update_2,2026.1.1,Win32,60.24096386,66714c2440363e99e3aed3a3,69b92ab4aef6dee357cd729a,69b92f23db7a2209b8abb841,0.0148,0.0148,0,14,14,0,1,onetwo,,,,,,,,,,,,,,,,,,,,,,,,,,,,,,,,,,,,,,,,,,,,,,,,,,,,,,,,,,,,,,,,,,,,,,,,,,,,,,,,,,,,,,,,,,,,,,,,,,,,,,,,,,,,,,,,,,,,,,,,,,,,,,,,,,,,,,,,,
,,66714c2440363e99e3aed3a3,2026-03-17_12h39.16.304,kallum_motion_pilot_GIST_update_2,2026.1.1,Win32,60.24096386,66714c2440363e99e3aed3a3,69b92ab4aef6dee357cd729a,69b92f23db7a2209b8abb841,0.0149,0.0149,0,15,15,53,1,threefour,,,,,,,,,,,,,,,,,,,,,,,,,,,,,,,,,,,,,,,,,,,,,,,,,,,,,,,,,,,,,,,,,,,,,,,,,,,,,,,,,,,,,,,,,,,,,,,,,,,,,,,,,,,,,,,,,,,,,,,,,,,,,,,,,,,,,,,,,
,,66714c2440363e99e3aed3a3,2026-03-17_12h39.16.304,kallum_motion_pilot_GIST_update_2,2026.1.1,Win32,60.24096386,66714c2440363e99e3aed3a3,69b92ab4aef6dee357cd729a,69b92f23db7a2209b8abb841,0.0149,0.0149,0,16,16,20,1,threeone,,,,,,,,,,,,,,,,,,,,,,,,,,,,,,,,,,,,,,,,,,,,,,,,,,,,,,,,,,,,,,,,,,,,,,,,,,,,,,,,,,,,,,,,,,,,,,,,,,,,,,,,,,,,,,,,,,,,,,,,,,,,,,,,,,,,,,,,,
,,66714c2440363e99e3aed3a3,2026-03-17_12h39.16.304,kallum_motion_pilot_GIST_update_2,2026.1.1,Win32,60.24096386,66714c2440363e99e3aed3a3,69b92ab4aef6dee357cd729a,69b92f23db7a2209b8abb841,0.0149,0.0149,0,17,17,94,1,eightsix,,,,,,,,,,,,,,,,,,,,,,,,,,,,,,,,,,,,,,,,,,,,,,,,,,,,,,,,,,,,,,,,,,,,,,,,,,,,,,,,,,,,,,,,,,,,,,,,,,,,,,,,,,,,,,,,,,,,,,,,,,,,,,,,,,,,,,,,,
,,66714c2440363e99e3aed3a3,2026-03-17_12h39.16.304,kallum_motion_pilot_GIST_update_2,2026.1.1,Win32,60.24096386,66714c2440363e99e3aed3a3,69b92ab4aef6dee357cd729a,69b92f23db7a2209b8abb841,0.015,0.015,0,18,18,127,1,eightseven,,,,,,,,,,,,,,,,,,,,,,,,,,,,,,,,,,,,,,,,,,,,,,,,,,,,,,,,,,,,,,,,,,,,,,,,,,,,,,,,,,,,,,,,,,,,,,,,,,,,,,,,,,,,,,,,,,,,,,,,,,,,,,,,,,,,,,,,,
,,66714c2440363e99e3aed3a3,2026-03-17_12h39.16.304,kallum_motion_pilot_GIST_update_2,2026.1.1,Win32,60.24096386,66714c2440363e99e3aed3a3,69b92ab4aef6dee357cd729a,69b92f23db7a2209b8abb841,0.015,0.015,0,19,19,154,1,sixfive,,,,,,,,,,,,,,,,,,,,,,,,,,,,,,,,,,,,,,,,,,,,,,,,,,,,,,,,,,,,,,,,,,,,,,,,,,,,,,,,,,,,,,,,,,,,,,,,,,,,,,,,,,,,,,,,,,,,,,,,,,,,,,,,,,,,,,,,,
,,66714c2440363e99e3aed3a3,2026-03-17_12h39.16.304,kallum_motion_pilot_GIST_update_2,2026.1.1,Win32,60.24096386,66714c2440363e99e3aed3a3,69b92ab4aef6dee357cd729a,69b92f23db7a2209b8abb841,0.015,0.015,0,20,20,107,1,sixeight,,,,,,,,,,,,,,,,,,,,,,,,,,,,,,,,,,,,,,,,,,,,,,,,,,,,,,,,,,,,,,,,,,,,,,,,,,,,,,,,,,,,,,,,,,,,,,,,,,,,,,,,,,,,,,,,,,,,,,,,,,,,,,,,,,,,,,,,,
,,66714c2440363e99e3aed3a3,2026-03-17_12h39.16.304,kallum_motion_pilot_GIST_update_2,2026.1.1,Win32,60.24096386,66714c2440363e99e3aed3a3,69b92ab4aef6dee357cd729a,69b92f23db7a2209b8abb841,0.0151,0.0151,0,21,21,87,1,eightseven,,,,,,,,,,,,,,,,,,,,,,,,,,,,,,,,,,,,,,,,,,,,,,,,,,,,,,,,,,,,,,,,,,,,,,,,,,,,,,,,,,,,,,,,,,,,,,,,,,,,,,,,,,,,,,,,,,,,,,,,,,,,,,,,,,,,,,,,,
,,66714c2440363e99e3aed3a3,2026-03-17_12h39.16.304,kallum_motion_pilot_GIST_update_2,2026.1.1,Win32,60.24096386,66714c2440363e99e3aed3a3,69b92ab4aef6dee357cd729a,69b92f23db7a2209b8abb841,0.0152,0.0152,0,22,22,40,1,onetwo,,,,,,,,,,,,,,,,,,,,,,,,,,,,,,,,,,,,,,,,,,,,,,,,,,,,,,,,,,,,,,,,,,,,,,,,,,,,,,,,,,,,,,,,,,,,,,,,,,,,,,,,,,,,,,,,,,,,,,,,,,,,,,,,,,,,,,,,,
,,66714c2440363e99e3aed3a3,2026-03-17_12h39.16.304,kallum_motion_pilot_GIST_update_2,2026.1.1,Win32,60.24096386,66714c2440363e99e3aed3a3,69b92ab4aef6dee357cd729a,69b92f23db7a2209b8abb841,0.0152,0.0152,0,23,23,98,1,sixfive,,,,,,,,,,,,,,,,,,,,,,,,,,,,,,,,,,,,,,,,,,,,,,,,,,,,,,,,,,,,,,,,,,,,,,,,,,,,,,,,,,,,,,,,,,,,,,,,,,,,,,,,,,,,,,,,,,,,,,,,,,,,,,,,,,,,,,,,,
,,66714c2440363e99e3aed3a3,2026-03-17_12h39.16.304,kallum_motion_pilot_GIST_update_2,2026.1.1,Win32,60.24096386,66714c2440363e99e3aed3a3,69b92ab4aef6dee357cd729a,69b92f23db7a2209b8abb841,0.0152,0.0152,0,24,24,22,1,fourtwo,,,,,,,,,,,,,,,,,,,,,,,,,,,,,,,,,,,,,,,,,,,,,,,,,,,,,,,,,,,,,,,,,,,,,,,,,,,,,,,,,,,,,,,,,,,,,,,,,,,,,,,,,,,,,,,,,,,,,,,,,,,,,,,,,,,,,,,,,
,,66714c2440363e99e3aed3a3,2026-03-17_12h39.16.304,kallum_motion_pilot_GIST_update_2,2026.1.1,Win32,60.24096386,66714c2440363e99e3aed3a3,69b92ab4aef6dee357cd729a,69b92f23db7a2209b8abb841,0.0153,0.0153,0,25,25,36,1,threeone,,,,,,,,,,,,,,,,,,,,,,,,,,,,,,,,,,,,,,,,,,,,,,,,,,,,,,,,,,,,,,,,,,,,,,,,,,,,,,,,,,,,,,,,,,,,,,,,,,,,,,,,,,,,,,,,,,,,,,,,,,,,,,,,,,,,,,,,,
,,66714c2440363e99e3aed3a3,2026-03-17_12h39.16.304,kallum_motion_pilot_GIST_update_2,2026.1.1,Win32,60.24096386,66714c2440363e99e3aed3a3,69b92ab4aef6dee357cd729a,69b92f23db7a2209b8abb841,0.0153,0.0153,0,26,26,54,1,fourtwo,,,,,,,,,,,,,,,,,,,,,,,,,,,,,,,,,,,,,,,,,,,,,,,,,,,,,,,,,,,,,,,,,,,,,,,,,,,,,,,,,,,,,,,,,,,,,,,,,,,,,,,,,,,,,,,,,,,,,,,,,,,,,,,,,,,,,,,,,
,,66714c2440363e99e3aed3a3,2026-03-17_12h39.16.304,kallum_motion_pilot_GIST_update_2,2026.1.1,Win32,60.24096386,66714c2440363e99e3aed3a3,69b92ab4aef6dee357cd729a,69b92f23db7a2209b8abb841,0.0153,0.0153,0,27,27,46,1,fourtwo,,,,,,,,,,,,,,,,,,,,,,,,,,,,,,,,,,,,,,,,,,,,,,,,,,,,,,,,,,,,,,,,,,,,,,,,,,,,,,,,,,,,,,,,,,,,,,,,,,,,,,,,,,,,,,,,,,,,,,,,,,,,,,,,,,,,,,,,,
,,66714c2440363e99e3aed3a3,2026-03-17_12h39.16.304,kallum_motion_pilot_GIST_update_2,2026.1.1,Win32,60.24096386,66714c2440363e99e3aed3a3,69b92ab4aef6dee357cd729a,69b92f23db7a2209b8abb841,0.0154,0.0154,0,28,28,21,1,threefour,,,,,,,,,,,,,,,,,,,,,,,,,,,,,,,,,,,,,,,,,,,,,,,,,,,,,,,,,,,,,,,,,,,,,,,,,,,,,,,,,,,,,,,,,,,,,,,,,,,,,,,,,,,,,,,,,,,,,,,,,,,,,,,,,,,,,,,,,
,,66714c2440363e99e3aed3a3,2026-03-17_12h39.16.304,kallum_motion_pilot_GIST_update_2,2026.1.1,Win32,60.24096386,66714c2440363e99e3aed3a3,69b92ab4aef6dee357cd729a,69b92f23db7a2209b8abb841,0.0154,0.0154,0,29,29,66,1,twoone,,,,,,,,,,,,,,,,,,,,,,,,,,,,,,,,,,,,,,,,,,,,,,,,,,,,,,,,,,,,,,,,,,,,,,,,,,,,,,,,,,,,,,,,,,,,,,,,,,,,,,,,,,,,,,,,,,,,,,,,,,,,,,,,,,,,,,,,,
,,66714c2440363e99e3aed3a3,2026-03-17_12h39.16.304,kallum_motion_pilot_GIST_update_2,2026.1.1,Win32,60.24096386,66714c2440363e99e3aed3a3,69b92ab4aef6dee357cd729a,69b92f23db7a2209b8abb841,0.0154,0.0154,0,30,30,81,1,fiveseven,,,,,,,,,,,,,,,,,,,,,,,,,,,,,,,,,,,,,,,,,,,,,,,,,,,,,,,,,,,,,,,,,,,,,,,,,,,,,,,,,,,,,,,,,,,,,,,,,,,,,,,,,,,,,,,,,,,,,,,,,,,,,,,,,,,,,,,,,
,,66714c2440363e99e3aed3a3,2026-03-17_12h39.16.304,kallum_motion_pilot_GIST_update_2,2026.1.1,Win32,60.24096386,66714c2440363e99e3aed3a3,69b92ab4aef6dee357cd729a,69b92f23db7a2209b8abb841,0.0155,0.0155,0,31,31,106,1,sixfive,,,,,,,,,,,,,,,,,,,,,,,,,,,,,,,,,,,,,,,,,,,,,,,,,,,,,,,,,,,,,,,,,,,,,,,,,,,,,,,,,,,,,,,,,,,,,,,,,,,,,,,,,,,,,,,,,,,,,,,,,,,,,,,,,,,,,,,,,
,,66714c2440363e99e3aed3a3,2026-03-17_12h39.16.304,kallum_motion_pilot_GIST_update_2,2026.1.1,Win32,60.24096386,66714c2440363e99e3aed3a3,69b92ab4aef6dee357cd729a,69b92f23db7a2209b8abb841,0.0155,0.0155,0,32,32,129,1,fiveseven,,,,,,,,,,,,,,,,,,,,,,,,,,,,,,,,,,,,,,,,,,,,,,,,,,,,,,,,,,,,,,,,,,,,,,,,,,,,,,,,,,,,,,,,,,,,,,,,,,,,,,,,,,,,,,,,,,,,,,,,,,,,,,,,,,,,,,,,,
,,66714c2440363e99e3aed3a3,2026-03-17_12h39.16.304,kallum_motion_pilot_GIST_update_2,2026.1.1,Win32,60.24096386,66714c2440363e99e3aed3a3,69b92ab4aef6dee357cd729a,69b92f23db7a2209b8abb841,0.0155,0.0155,0,33,33,160,1,fivesix,,,,,,,,,,,,,,,,,,,,,,,,,,,,,,,,,,,,,,,,,,,,,,,,,,,,,,,,,,,,,,,,,,,,,,,,,,,,,,,,,,,,,,,,,,,,,,,,,,,,,,,,,,,,,,,,,,,,,,,,,,,,,,,,,,,,,,,,,
,,66714c2440363e99e3aed3a3,2026-03-17_12h39.16.304,kallum_motion_pilot_GIST_update_2,2026.1.1,Win32,60.24096386,66714c2440363e99e3aed3a3,69b92ab4aef6dee357cd729a,69b92f23db7a2209b8abb841,0.0155,0.0155,0,34,34,147,1,sixeight,,,,,,,,,,,,,,,,,,,,,,,,,,,,,,,,,,,,,,,,,,,,,,,,,,,,,,,,,,,,,,,,,,,,,,,,,,,,,,,,,,,,,,,,,,,,,,,,,,,,,,,,,,,,,,,,,,,,,,,,,,,,,,,,,,,,,,,,,
,,66714c2440363e99e3aed3a3,2026-03-17_12h39.16.304,kallum_motion_pilot_GIST_update_2,2026.1.1,Win32,60.24096386,66714c2440363e99e3aed3a3,69b92ab4aef6dee357cd729a,69b92f23db7a2209b8abb841,0.0155,0.0155,0,35,35,89,1,fiveseven,,,,,,,,,,,,,,,,,,,,,,,,,,,,,,,,,,,,,,,,,,,,,,,,,,,,,,,,,,,,,,,,,,,,,,,,,,,,,,,,,,,,,,,,,,,,,,,,,,,,,,,,,,,,,,,,,,,,,,,,,,,,,,,,,,,,,,,,,
,,66714c2440363e99e3aed3a3,2026-03-17_12h39.16.304,kallum_motion_pilot_GIST_update_2,2026.1.1,Win32,60.24096386,66714c2440363e99e3aed3a3,69b92ab4aef6dee357cd729a,69b92f23db7a2209b8abb841,0.0156,0.0156,0,36,36,12,1,threeone,,,,,,,,,,,,,,,,,,,,,,,,,,,,,,,,,,,,,,,,,,,,,,,,,,,,,,,,,,,,,,,,,,,,,,,,,,,,,,,,,,,,,,,,,,,,,,,,,,,,,,,,,,,,,,,,,,,,,,,,,,,,,,,,,,,,,,,,,
,,66714c2440363e99e3aed3a3,2026-03-17_12h39.16.304,kallum_motion_pilot_GIST_update_2,2026.1.1,Win32,60.24096386,66714c2440363e99e3aed3a3,69b92ab4aef6dee357cd729a,69b92f23db7a2209b8abb841,0.0156,0.0156,0,37,37,17,1,onethree,,,,,,,,,,,,,,,,,,,,,,,,,,,,,,,,,,,,,,,,,,,,,,,,,,,,,,,,,,,,,,,,,,,,,,,,,,,,,,,,,,,,,,,,,,,,,,,,,,,,,,,,,,,,,,,,,,,,,,,,,,,,,,,,,,,,,,,,,
,,66714c2440363e99e3aed3a3,2026-03-17_12h39.16.304,kallum_motion_pilot_GIST_update_2,2026.1.1,Win32,60.24096386,66714c2440363e99e3aed3a3,69b92ab4aef6dee357cd729a,69b92f23db7a2209b8abb841,0.0156,0.0157,0,38,38,148,1,sevenfive,,,,,,,,,,,,,,,,,,,,,,,,,,,,,,,,,,,,,,,,,,,,,,,,,,,,,,,,,,,,,,,,,,,,,,,,,,,,,,,,,,,,,,,,,,,,,,,,,,,,,,,,,,,,,,,,,,,,,,,,,,,,,,,,,,,,,,,,,
,,66714c2440363e99e3aed3a3,2026-03-17_12h39.16.304,kallum_motion_pilot_GIST_update_2,2026.1.1,Win32,60.24096386,66714c2440363e99e3aed3a3,69b92ab4aef6dee357cd729a,69b92f23db7a2209b8abb841,0.0158,0.0158,0,39,39,105,1,fiveseven,,,,,,,,,,,,,,,,,,,,,,,,,,,,,,,,,,,,,,,,,,,,,,,,,,,,,,,,,,,,,,,,,,,,,,,,,,,,,,,,,,,,,,,,,,,,,,,,,,,,,,,,,,,,,,,,,,,,,,,,,,,,,,,,,,,,,,,,,
,,66714c2440363e99e3aed3a3,2026-03-17_12h39.16.304,kallum_motion_pilot_GIST_update_2,2026.1.1,Win32,60.24096386,66714c2440363e99e3aed3a3,69b92ab4aef6dee357cd729a,69b92f23db7a2209b8abb841,0.0158,0.0158,0,40,40,109,1,seveneight,,,,,,,,,,,,,,,,,,,,,,,,,,,,,,,,,,,,,,,,,,,,,,,,,,,,,,,,,,,,,,,,,,,,,,,,,,,,,,,,,,,,,,,,,,,,,,,,,,,,,,,,,,,,,,,,,,,,,,,,,,,,,,,,,,,,,,,,,
,,66714c2440363e99e3aed3a3,2026-03-17_12h39.16.304,kallum_motion_pilot_GIST_update_2,2026.1.1,Win32,60.24096386,66714c2440363e99e3aed3a3,69b92ab4aef6dee357cd729a,69b92f23db7a2209b8abb841,0.0159,0.0159,0,41,41,72,1,onetwo,,,,,,,,,,,,,,,,,,,,,,,,,,,,,,,,,,,,,,,,,,,,,,,,,,,,,,,,,,,,,,,,,,,,,,,,,,,,,,,,,,,,,,,,,,,,,,,,,,,,,,,,,,,,,,,,,,,,,,,,,,,,,,,,,,,,,,,,,
,,66714c2440363e99e3aed3a3,2026-03-17_12h39.16.304,kallum_motion_pilot_GIST_update_2,2026.1.1,Win32,60.24096386,66714c2440363e99e3aed3a3,69b92ab4aef6dee357cd729a,69b92f23db7a2209b8abb841,0.0159,0.0159,0,42,42,39,1,fourthree,,,,,,,,,,,,,,,,,,,,,,,,,,,,,,,,,,,,,,,,,,,,,,,,,,,,,,,,,,,,,,,,,,,,,,,,,,,,,,,,,,,,,,,,,,,,,,,,,,,,,,,,,,,,,,,,,,,,,,,,,,,,,,,,,,,,,,,,,
,,66714c2440363e99e3aed3a3,2026-03-17_12h39.16.304,kallum_motion_pilot_GIST_update_2,2026.1.1,Win32,60.24096386,66714c2440363e99e3aed3a3,69b92ab4aef6dee357cd729a,69b92f23db7a2209b8abb841,0.0159,0.0159,0,43,43,61,1,threefour,,,,,,,,,,,,,,,,,,,,,,,,,,,,,,,,,,,,,,,,,,,,,,,,,,,,,,,,,,,,,,,,,,,,,,,,,,,,,,,,,,,,,,,,,,,,,,,,,,,,,,,,,,,,,,,,,,,,,,,,,,,,,,,,,,,,,,,,,
,,66714c2440363e99e3aed3a3,2026-03-17_12h39.16.304,kallum_motion_pilot_GIST_update_2,2026.1.1,Win32,60.24096386,66714c2440363e99e3aed3a3,69b92ab4aef6dee357cd729a,69b92f23db7a2209b8abb841,0.016,0.016,0,44,44,123,1,sixeight,,,,,,,,,,,,,,,,,,,,,,,,,,,,,,,,,,,,,,,,,,,,,,,,,,,,,,,,,,,,,,,,,,,,,,,,,,,,,,,,,,,,,,,,,,,,,,,,,,,,,,,,,,,,,,,,,,,,,,,,,,,,,,,,,,,,,,,,,
,,66714c2440363e99e3aed3a3,2026-03-17_12h39.16.304,kallum_motion_pilot_GIST_update_2,2026.1.1,Win32,60.24096386,66714c2440363e99e3aed3a3,69b92ab4aef6dee357cd729a,69b92f23db7a2209b8abb841,0.016,0.016,0,45,45,78,1,fourtwo,,,,,,,,,,,,,,,,,,,,,,,,,,,,,,,,,,,,,,,,,,,,,,,,,,,,,,,,,,,,,,,,,,,,,,,,,,,,,,,,,,,,,,,,,,,,,,,,,,,,,,,,,,,,,,,,,,,,,,,,,,,,,,,,,,,,,,,,,
,,66714c2440363e99e3aed3a3,2026-03-17_12h39.16.304,kallum_motion_pilot_GIST_update_2,2026.1.1,Win32,60.24096386,66714c2440363e99e3aed3a3,69b92ab4aef6dee357cd729a,69b92f23db7a2209b8abb841,0.016,0.016,0,46,46,73,1,onethree,,,,,,,,,,,,,,,,,,,,,,,,,,,,,,,,,,,,,,,,,,,,,,,,,,,,,,,,,,,,,,,,,,,,,,,,,,,,,,,,,,,,,,,,,,,,,,,,,,,,,,,,,,,,,,,,,,,,,,,,,,,,,,,,,,,,,,,,,
,,66714c2440363e99e3aed3a3,2026-03-17_12h39.16.304,kallum_motion_pilot_GIST_update_2,2026.1.1,Win32,60.24096386,66714c2440363e99e3aed3a3,69b92ab4aef6dee357cd729a,69b92f23db7a2209b8abb841,0.0161,0.0161,0,47,47,114,1,sixfive,,,,,,,,,,,,,,,,,,,,,,,,,,,,,,,,,,,,,,,,,,,,,,,,,,,,,,,,,,,,,,,,,,,,,,,,,,,,,,,,,,,,,,,,,,,,,,,,,,,,,,,,,,,,,,,,,,,,,,,,,,,,,,,,,,,,,,,,,
,,66714c2440363e99e3aed3a3,2026-03-17_12h39.16.304,kallum_motion_pilot_GIST_update_2,2026.1.1,Win32,60.24096386,66714c2440363e99e3aed3a3,69b92ab4aef6dee357cd729a,69b92f23db7a2209b8abb841,0.0161,0.0161,0,48,48,50,1,twoone,,,,,,,,,,,,,,,,,,,,,,,,,,,,,,,,,,,,,,,,,,,,,,,,,,,,,,,,,,,,,,,,,,,,,,,,,,,,,,,,,,,,,,,,,,,,,,,,,,,,,,,,,,,,,,,,,,,,,,,,,,,,,,,,,,,,,,,,,
,,66714c2440363e99e3aed3a3,2026-03-17_12h39.16.304,kallum_motion_pilot_GIST_update_2,2026.1.1,Win32,60.24096386,66714c2440363e99e3aed3a3,69b92ab4aef6dee357cd729a,69b92f23db7a2209b8abb841,0.0162,0.0162,0,49,49,68,1,threeone,,,,,,,,,,,,,,,,,,,,,,,,,,,,,,,,,,,,,,,,,,,,,,,,,,,,,,,,,,,,,,,,,,,,,,,,,,,,,,,,,,,,,,,,,,,,,,,,,,,,,,,,,,,,,,,,,,,,,,,,,,,,,,,,,,,,,,,,,
,,66714c2440363e99e3aed3a3,2026-03-17_12h39.16.304,kallum_motion_pilot_GIST_update_2,2026.1.1,Win32,60.24096386,66714c2440363e99e3aed3a3,69b92ab4aef6dee357cd729a,69b92f23db7a2209b8abb841,0.0162,0.0162,0,50,50,74,1,twoone,,,,,,,,,,,,,,,,,,,,,,,,,,,,,,,,,,,,,,,,,,,,,,,,,,,,,,,,,,,,,,,,,,,,,,,,,,,,,,,,,,,,,,,,,,,,,,,,,,,,,,,,,,,,,,,,,,,,,,,,,,,,,,,,,,,,,,,,,
,,66714c2440363e99e3aed3a3,2026-03-17_12h39.16.304,kallum_motion_pilot_GIST_update_2,2026.1.1,Win32,60.24096386,66714c2440363e99e3aed3a3,69b92ab4aef6dee357cd729a,69b92f23db7a2209b8abb841,0.0163,0.0163,0,51,51,83,1,sixeight,,,,,,,,,,,,,,,,,,,,,,,,,,,,,,,,,,,,,,,,,,,,,,,,,,,,,,,,,,,,,,,,,,,,,,,,,,,,,,,,,,,,,,,,,,,,,,,,,,,,,,,,,,,,,,,,,,,,,,,,,,,,,,,,,,,,,,,,,
,,66714c2440363e99e3aed3a3,2026-03-17_12h39.16.304,kallum_motion_pilot_GIST_update_2,2026.1.1,Win32,60.24096386,66714c2440363e99e3aed3a3,69b92ab4aef6dee357cd729a,69b92f23db7a2209b8abb841,0.0163,0.0163,0,52,52,132,1,sevenfive,,,,,,,,,,,,,,,,,,,,,,,,,,,,,,,,,,,,,,,,,,,,,,,,,,,,,,,,,,,,,,,,,,,,,,,,,,,,,,,,,,,,,,,,,,,,,,,,,,,,,,,,,,,,,,,,,,,,,,,,,,,,,,,,,,,,,,,,,
,,66714c2440363e99e3aed3a3,2026-03-17_12h39.16.304,kallum_motion_pilot_GIST_update_2,2026.1.1,Win32,60.24096386,66714c2440363e99e3aed3a3,69b92ab4aef6dee357cd729a,69b92f23db7a2209b8abb841,0.0163,0.0163,0,53,53,153,1,fiveseven,,,,,,,,,,,,,,,,,,,,,,,,,,,,,,,,,,,,,,,,,,,,,,,,,,,,,,,,,,,,,,,,,,,,,,,,,,,,,,,,,,,,,,,,,,,,,,,,,,,,,,,,,,,,,,,,,,,,,,,,,,,,,,,,,,,,,,,,,
,,66714c2440363e99e3aed3a3,2026-03-17_12h39.16.304,kallum_motion_pilot_GIST_update_2,2026.1.1,Win32,60.24096386,66714c2440363e99e3aed3a3,69b92ab4aef6dee357cd729a,69b92f23db7a2209b8abb841,0.0163,0.0163,0,54,54,152,1,fivesix,,,,,,,,,,,,,,,,,,,,,,,,,,,,,,,,,,,,,,,,,,,,,,,,,,,,,,,,,,,,,,,,,,,,,,,,,,,,,,,,,,,,,,,,,,,,,,,,,,,,,,,,,,,,,,,,,,,,,,,,,,,,,,,,,,,,,,,,,
,,66714c2440363e99e3aed3a3,2026-03-17_12h39.16.304,kallum_motion_pilot_GIST_update_2,2026.1.1,Win32,60.24096386,66714c2440363e99e3aed3a3,69b92ab4aef6dee357cd729a,69b92f23db7a2209b8abb841,0.0163,0.0163,0,55,55,45,1,threefour,,,,,,,,,,,,,,,,,,,,,,,,,,,,,,,,,,,,,,,,,,,,,,,,,,,,,,,,,,,,,,,,,,,,,,,,,,,,,,,,,,,,,,,,,,,,,,,,,,,,,,,,,,,,,,,,,,,,,,,,,,,,,,,,,,,,,,,,,
,,66714c2440363e99e3aed3a3,2026-03-17_12h39.16.304,kallum_motion_pilot_GIST_update_2,2026.1.1,Win32,60.24096386,66714c2440363e99e3aed3a3,69b92ab4aef6dee357cd729a,69b92f23db7a2209b8abb841,0.0165,0.0165,0,56,56,5,1,threefour,,,,,,,,,,,,,,,,,,,,,,,,,,,,,,,,,,,,,,,,,,,,,,,,,,,,,,,,,,,,,,,,,,,,,,,,,,,,,,,,,,,,,,,,,,,,,,,,,,,,,,,,,,,,,,,,,,,,,,,,,,,,,,,,,,,,,,,,,
,,66714c2440363e99e3aed3a3,2026-03-17_12h39.16.304,kallum_motion_pilot_GIST_update_2,2026.1.1,Win32,60.24096386,66714c2440363e99e3aed3a3,69b92ab4aef6dee357cd729a,69b92f23db7a2209b8abb841,0.0165,0.0165,0,57,57,93,1,seveneight,,,,,,,,,,,,,,,,,,,,,,,,,,,,,,,,,,,,,,,,,,,,,,,,,,,,,,,,,,,,,,,,,,,,,,,,,,,,,,,,,,,,,,,,,,,,,,,,,,,,,,,,,,,,,,,,,,,,,,,,,,,,,,,,,,,,,,,,,
,,66714c2440363e99e3aed3a3,2026-03-17_12h39.16.304,kallum_motion_pilot_GIST_update_2,2026.1.1,Win32,60.24096386,66714c2440363e99e3aed3a3,69b92ab4aef6dee357cd729a,69b92f23db7a2209b8abb841,0.0165,0.0165,0,58,58,75,1,twofour,,,,,,,,,,,,,,,,,,,,,,,,,,,,,,,,,,,,,,,,,,,,,,,,,,,,,,,,,,,,,,,,,,,,,,,,,,,,,,,,,,,,,,,,,,,,,,,,,,,,,,,,,,,,,,,,,,,,,,,,,,,,,,,,,,,,,,,,,
,,66714c2440363e99e3aed3a3,2026-03-17_12h39.16.304,kallum_motion_pilot_GIST_update_2,2026.1.1,Win32,60.24096386,66714c2440363e99e3aed3a3,69b92ab4aef6dee357cd729a,69b92f23db7a2209b8abb841,0.0165,0.0165,0,59,59,139,1,sixeight,,,,,,,,,,,,,,,,,,,,,,,,,,,,,,,,,,,,,,,,,,,,,,,,,,,,,,,,,,,,,,,,,,,,,,,,,,,,,,,,,,,,,,,,,,,,,,,,,,,,,,,,,,,,,,,,,,,,,,,,,,,,,,,,,,,,,,,,,
,,66714c2440363e99e3aed3a3,2026-03-17_12h39.16.304,kallum_motion_pilot_GIST_update_2,2026.1.1,Win32,60.24096386,66714c2440363e99e3aed3a3,69b92ab4aef6dee357cd729a,69b92f23db7a2209b8abb841,0.0166,0.0166,0,60,60,146,1,sixfive,,,,,,,,,,,,,,,,,,,,,,,,,,,,,,,,,,,,,,,,,,,,,,,,,,,,,,,,,,,,,,,,,,,,,,,,,,,,,,,,,,,,,,,,,,,,,,,,,,,,,,,,,,,,,,,,,,,,,,,,,,,,,,,,,,,,,,,,,
,,66714c2440363e99e3aed3a3,2026-03-17_12h39.16.304,kallum_motion_pilot_GIST_update_2,2026.1.1,Win32,60.24096386,66714c2440363e99e3aed3a3,69b92ab4aef6dee357cd729a,69b92f23db7a2209b8abb841,0.0166,0.0166,0,61,61,42,1,twoone,,,,,,,,,,,,,,,,,,,,,,,,,,,,,,,,,,,,,,,,,,,,,,,,,,,,,,,,,,,,,,,,,,,,,,,,,,,,,,,,,,,,,,,,,,,,,,,,,,,,,,,,,,,,,,,,,,,,,,,,,,,,,,,,,,,,,,,,,
,,66714c2440363e99e3aed3a3,2026-03-17_12h39.16.304,kallum_motion_pilot_GIST_update_2,2026.1.1,Win32,60.24096386,66714c2440363e99e3aed3a3,69b92ab4aef6dee357cd729a,69b92f23db7a2209b8abb841,0.0167,0.0167,0,62,62,10,1,twoone,,,,,,,,,,,,,,,,,,,,,,,,,,,,,,,,,,,,,,,,,,,,,,,,,,,,,,,,,,,,,,,,,,,,,,,,,,,,,,,,,,,,,,,,,,,,,,,,,,,,,,,,,,,,,,,,,,,,,,,,,,,,,,,,,,,,,,,,,
,,66714c2440363e99e3aed3a3,2026-03-17_12h39.16.304,kallum_motion_pilot_GIST_update_2,2026.1.1,Win32,60.24096386,66714c2440363e99e3aed3a3,69b92ab4aef6dee357cd729a,69b92f23db7a2209b8abb841,0.0167,0.0167,0,63,63,161,1,fiveseven,,,,,,,,,,,,,,,,,,,,,,,,,,,,,,,,,,,,,,,,,,,,,,,,,,,,,,,,,,,,,,,,,,,,,,,,,,,,,,,,,,,,,,,,,,,,,,,,,,,,,,,,,,,,,,,,,,,,,,,,,,,,,,,,,,,,,,,,,
,,66714c2440363e99e3aed3a3,2026-03-17_12h39.16.304,kallum_motion_pilot_GIST_update_2,2026.1.1,Win32,60.24096386,66714c2440363e99e3aed3a3,69b92ab4aef6dee357cd729a,69b92f23db7a2209b8abb841,0.0168,0.0168,0,64,64,7,1,fourthree,,,,,,,,,,,,,,,,,,,,,,,,,,,,,,,,,,,,,,,,,,,,,,,,,,,,,,,,,,,,,,,,,,,,,,,,,,,,,,,,,,,,,,,,,,,,,,,,,,,,,,,,,,,,,,,,,,,,,,,,,,,,,,,,,,,,,,,,,
,,66714c2440363e99e3aed3a3,2026-03-17_12h39.16.304,kallum_motion_pilot_GIST_update_2,2026.1.1,Win32,60.24096386,66714c2440363e99e3aed3a3,69b92ab4aef6dee357cd729a,69b92f23db7a2209b8abb841,0.0168,0.0168,0,65,65,59,1,twofour,,,,,,,,,,,,,,,,,,,,,,,,,,,,,,,,,,,,,,,,,,,,,,,,,,,,,,,,,,,,,,,,,,,,,,,,,,,,,,,,,,,,,,,,,,,,,,,,,,,,,,,,,,,,,,,,,,,,,,,,,,,,,,,,,,,,,,,,,
,,66714c2440363e99e3aed3a3,2026-03-17_12h39.16.304,kallum_motion_pilot_GIST_update_2,2026.1.1,Win32,60.24096386,66714c2440363e99e3aed3a3,69b92ab4aef6dee357cd729a,69b92f23db7a2209b8abb841,0.0168,0.0168,0,66,66,133,1,seveneight,,,,,,,,,,,,,,,,,,,,,,,,,,,,,,,,,,,,,,,,,,,,,,,,,,,,,,,,,,,,,,,,,,,,,,,,,,,,,,,,,,,,,,,,,,,,,,,,,,,,,,,,,,,,,,,,,,,,,,,,,,,,,,,,,,,,,,,,,
,,66714c2440363e99e3aed3a3,2026-03-17_12h39.16.304,kallum_motion_pilot_GIST_update_2,2026.1.1,Win32,60.24096386,66714c2440363e99e3aed3a3,69b92ab4aef6dee357cd729a,69b92f23db7a2209b8abb841,0.0168,0.0168,0,67,67,28,1,threeone,,,,,,,,,,,,,,,,,,,,,,,,,,,,,,,,,,,,,,,,,,,,,,,,,,,,,,,,,,,,,,,,,,,,,,,,,,,,,,,,,,,,,,,,,,,,,,,,,,,,,,,,,,,,,,,,,,,,,,,,,,,,,,,,,,,,,,,,,
,,66714c2440363e99e3aed3a3,2026-03-17_12h39.16.304,kallum_motion_pilot_GIST_update_2,2026.1.1,Win32,60.24096386,66714c2440363e99e3aed3a3,69b92ab4aef6dee357cd729a,69b92f23db7a2209b8abb841,0.0169,0.0169,0,68,68,62,1,fourtwo,,,,,,,,,,,,,,,,,,,,,,,,,,,,,,,,,,,,,,,,,,,,,,,,,,,,,,,,,,,,,,,,,,,,,,,,,,,,,,,,,,,,,,,,,,,,,,,,,,,,,,,,,,,,,,,,,,,,,,,,,,,,,,,,,,,,,,,,,
,,66714c2440363e99e3aed3a3,2026-03-17_12h39.16.304,kallum_motion_pilot_GIST_update_2,2026.1.1,Win32,60.24096386,66714c2440363e99e3aed3a3,69b92ab4aef6dee357cd729a,69b92f23db7a2209b8abb841,0.017,0.017,0,69,69,101,1,seveneight,,,,,,,,,,,,,,,,,,,,,,,,,,,,,,,,,,,,,,,,,,,,,,,,,,,,,,,,,,,,,,,,,,,,,,,,,,,,,,,,,,,,,,,,,,,,,,,,,,,,,,,,,,,,,,,,,,,,,,,,,,,,,,,,,,,,,,,,,
,,66714c2440363e99e3aed3a3,2026-03-17_12h39.16.304,kallum_motion_pilot_GIST_update_2,2026.1.1,Win32,60.24096386,66714c2440363e99e3aed3a3,69b92ab4aef6dee357cd729a,69b92f23db7a2209b8abb841,0.017,0.017,0,70,70,108,1,sevenfive,,,,,,,,,,,,,,,,,,,,,,,,,,,,,,,,,,,,,,,,,,,,,,,,,,,,,,,,,,,,,,,,,,,,,,,,,,,,,,,,,,,,,,,,,,,,,,,,,,,,,,,,,,,,,,,,,,,,,,,,,,,,,,,,,,,,,,,,,
,,66714c2440363e99e3aed3a3,2026-03-17_12h39.16.304,kallum_motion_pilot_GIST_update_2,2026.1.1,Win32,60.24096386,66714c2440363e99e3aed3a3,69b92ab4aef6dee357cd729a,69b92f23db7a2209b8abb841,0.0171,0.0171,0,71,71,18,1,twoone,,,,,,,,,,,,,,,,,,,,,,,,,,,,,,,,,,,,,,,,,,,,,,,,,,,,,,,,,,,,,,,,,,,,,,,,,,,,,,,,,,,,,,,,,,,,,,,,,,,,,,,,,,,,,,,,,,,,,,,,,,,,,,,,,,,,,,,,,
,,66714c2440363e99e3aed3a3,2026-03-17_12h39.16.304,kallum_motion_pilot_GIST_update_2,2026.1.1,Win32,60.24096386,66714c2440363e99e3aed3a3,69b92ab4aef6dee357cd729a,69b92f23db7a2209b8abb841,0.0171,0.0171,0,72,72,26,1,twoone,,,,,,,,,,,,,,,,,,,,,,,,,,,,,,,,,,,,,,,,,,,,,,,,,,,,,,,,,,,,,,,,,,,,,,,,,,,,,,,,,,,,,,,,,,,,,,,,,,,,,,,,,,,,,,,,,,,,,,,,,,,,,,,,,,,,,,,,,
,,66714c2440363e99e3aed3a3,2026-03-17_12h39.16.304,kallum_motion_pilot_GIST_update_2,2026.1.1,Win32,60.24096386,66714c2440363e99e3aed3a3,69b92ab4aef6dee357cd729a,69b92f23db7a2209b8abb841,0.0171,0.0171,0,73,73,41,1,onethree,,,,,,,,,,,,,,,,,,,,,,,,,,,,,,,,,,,,,,,,,,,,,,,,,,,,,,,,,,,,,,,,,,,,,,,,,,,,,,,,,,,,,,,,,,,,,,,,,,,,,,,,,,,,,,,,,,,,,,,,,,,,,,,,,,,,,,,,,
,,66714c2440363e99e3aed3a3,2026-03-17_12h39.16.304,kallum_motion_pilot_GIST_update_2,2026.1.1,Win32,60.24096386,66714c2440363e99e3aed3a3,69b92ab4aef6dee357cd729a,69b92f23db7a2209b8abb841,0.0172,0.0172,0,74,74,118,1,eightsix,,,,,,,,,,,,,,,,,,,,,,,,,,,,,,,,,,,,,,,,,,,,,,,,,,,,,,,,,,,,,,,,,,,,,,,,,,,,,,,,,,,,,,,,,,,,,,,,,,,,,,,,,,,,,,,,,,,,,,,,,,,,,,,,,,,,,,,,,
,,66714c2440363e99e3aed3a3,2026-03-17_12h39.16.304,kallum_motion_pilot_GIST_update_2,2026.1.1,Win32,60.24096386,66714c2440363e99e3aed3a3,69b92ab4aef6dee357cd729a,69b92f23db7a2209b8abb841,0.0173,0.0173,0,75,75,67,1,twofour,,,,,,,,,,,,,,,,,,,,,,,,,,,,,,,,,,,,,,,,,,,,,,,,,,,,,,,,,,,,,,,,,,,,,,,,,,,,,,,,,,,,,,,,,,,,,,,,,,,,,,,,,,,,,,,,,,,,,,,,,,,,,,,,,,,,,,,,,
,,66714c2440363e99e3aed3a3,2026-03-17_12h39.16.304,kallum_motion_pilot_GIST_update_2,2026.1.1,Win32,60.24096386,66714c2440363e99e3aed3a3,69b92ab4aef6dee357cd729a,69b92f23db7a2209b8abb841,0.0173,0.0173,0,76,76,25,1,onethree,,,,,,,,,,,,,,,,,,,,,,,,,,,,,,,,,,,,,,,,,,,,,,,,,,,,,,,,,,,,,,,,,,,,,,,,,,,,,,,,,,,,,,,,,,,,,,,,,,,,,,,,,,,,,,,,,,,,,,,,,,,,,,,,,,,,,,,,,
,,66714c2440363e99e3aed3a3,2026-03-17_12h39.16.304,kallum_motion_pilot_GIST_update_2,2026.1.1,Win32,60.24096386,66714c2440363e99e3aed3a3,69b92ab4aef6dee357cd729a,69b92f23db7a2209b8abb841,0.0173,0.0173,0,77,77,85,1,seveneight,,,,,,,,,,,,,,,,,,,,,,,,,,,,,,,,,,,,,,,,,,,,,,,,,,,,,,,,,,,,,,,,,,,,,,,,,,,,,,,,,,,,,,,,,,,,,,,,,,,,,,,,,,,,,,,,,,,,,,,,,,,,,,,,,,,,,,,,,
,,66714c2440363e99e3aed3a3,2026-03-17_12h39.16.304,kallum_motion_pilot_GIST_update_2,2026.1.1,Win32,60.24096386,66714c2440363e99e3aed3a3,69b92ab4aef6dee357cd729a,69b92f23db7a2209b8abb841,0.0173,0.0174,0,78,78,80,1,fivesix,,,,,,,,,,,,,,,,,,,,,,,,,,,,,,,,,,,,,,,,,,,,,,,,,,,,,,,,,,,,,,,,,,,,,,,,,,,,,,,,,,,,,,,,,,,,,,,,,,,,,,,,,,,,,,,,,,,,,,,,,,,,,,,,,,,,,,,,,
,,66714c2440363e99e3aed3a3,2026-03-17_12h39.16.304,kallum_motion_pilot_GIST_update_2,2026.1.1,Win32,60.24096386,66714c2440363e99e3aed3a3,69b92ab4aef6dee357cd729a,69b92f23db7a2209b8abb841,0.0174,0.0174,0,79,79,151,1,eightseven,,,,,,,,,,,,,,,,,,,,,,,,,,,,,,,,,,,,,,,,,,,,,,,,,,,,,,,,,,,,,,,,,,,,,,,,,,,,,,,,,,,,,,,,,,,,,,,,,,,,,,,,,,,,,,,,,,,,,,,,,,,,,,,,,,,,,,,,,
,,66714c2440363e99e3aed3a3,2026-03-17_12h39.16.304,kallum_motion_pilot_GIST_update_2,2026.1.1,Win32,60.24096386,66714c2440363e99e3aed3a3,69b92ab4aef6dee357cd729a,69b92f23db7a2209b8abb841,0.0175,0.0175,0,80,80,48,1,onetwo,,,,,,,,,,,,,,,,,,,,,,,,,,,,,,,,,,,,,,,,,,,,,,,,,,,,,,,,,,,,,,,,,,,,,,,,,,,,,,,,,,,,,,,,,,,,,,,,,,,,,,,,,,,,,,,,,,,,,,,,,,,,,,,,,,,,,,,,,
,,66714c2440363e99e3aed3a3,2026-03-17_12h39.16.304,kallum_motion_pilot_GIST_update_2,2026.1.1,Win32,60.24096386,66714c2440363e99e3aed3a3,69b92ab4aef6dee357cd729a,69b92f23db7a2209b8abb841,0.0175,0.0175,0,81,81,135,1,eightseven,,,,,,,,,,,,,,,,,,,,,,,,,,,,,,,,,,,,,,,,,,,,,,,,,,,,,,,,,,,,,,,,,,,,,,,,,,,,,,,,,,,,,,,,,,,,,,,,,,,,,,,,,,,,,,,,,,,,,,,,,,,,,,,,,,,,,,,,,
,,66714c2440363e99e3aed3a3,2026-03-17_12h39.16.304,kallum_motion_pilot_GIST_update_2,2026.1.1,Win32,60.24096386,66714c2440363e99e3aed3a3,69b92ab4aef6dee357cd729a,69b92f23db7a2209b8abb841,0.0176,0.0176,0,82,82,6,1,fourtwo,,,,,,,,,,,,,,,,,,,,,,,,,,,,,,,,,,,,,,,,,,,,,,,,,,,,,,,,,,,,,,,,,,,,,,,,,,,,,,,,,,,,,,,,,,,,,,,,,,,,,,,,,,,,,,,,,,,,,,,,,,,,,,,,,,,,,,,,,
,,66714c2440363e99e3aed3a3,2026-03-17_12h39.16.304,kallum_motion_pilot_GIST_update_2,2026.1.1,Win32,60.24096386,66714c2440363e99e3aed3a3,69b92ab4aef6dee357cd729a,69b92f23db7a2209b8abb841,0.0176,0.0176,0,83,83,33,1,onethree,,,,,,,,,,,,,,,,,,,,,,,,,,,,,,,,,,,,,,,,,,,,,,,,,,,,,,,,,,,,,,,,,,,,,,,,,,,,,,,,,,,,,,,,,,,,,,,,,,,,,,,,,,,,,,,,,,,,,,,,,,,,,,,,,,,,,,,,,
,,66714c2440363e99e3aed3a3,2026-03-17_12h39.16.304,kallum_motion_pilot_GIST_update_2,2026.1.1,Win32,60.24096386,66714c2440363e99e3aed3a3,69b92ab4aef6dee357cd729a,69b92f23db7a2209b8abb841,0.0176,0.0176,0,84,84,51,1,twofour,,,,,,,,,,,,,,,,,,,,,,,,,,,,,,,,,,,,,,,,,,,,,,,,,,,,,,,,,,,,,,,,,,,,,,,,,,,,,,,,,,,,,,,,,,,,,,,,,,,,,,,,,,,,,,,,,,,,,,,,,,,,,,,,,,,,,,,,,
,,66714c2440363e99e3aed3a3,2026-03-17_12h39.16.304,kallum_motion_pilot_GIST_update_2,2026.1.1,Win32,60.24096386,66714c2440363e99e3aed3a3,69b92ab4aef6dee357cd729a,69b92f23db7a2209b8abb841,0.0177,0.0177,0,85,85,63,1,fourthree,,,,,,,,,,,,,,,,,,,,,,,,,,,,,,,,,,,,,,,,,,,,,,,,,,,,,,,,,,,,,,,,,,,,,,,,,,,,,,,,,,,,,,,,,,,,,,,,,,,,,,,,,,,,,,,,,,,,,,,,,,,,,,,,,,,,,,,,,
,,66714c2440363e99e3aed3a3,2026-03-17_12h39.16.304,kallum_motion_pilot_GIST_update_2,2026.1.1,Win32,60.24096386,66714c2440363e99e3aed3a3,69b92ab4aef6dee357cd729a,69b92f23db7a2209b8abb841,0.0177,0.0177,0,86,86,141,1,seveneight,,,,,,,,,,,,,,,,,,,,,,,,,,,,,,,,,,,,,,,,,,,,,,,,,,,,,,,,,,,,,,,,,,,,,,,,,,,,,,,,,,,,,,,,,,,,,,,,,,,,,,,,,,,,,,,,,,,,,,,,,,,,,,,,,,,,,,,,,
,,66714c2440363e99e3aed3a3,2026-03-17_12h39.16.304,kallum_motion_pilot_GIST_update_2,2026.1.1,Win32,60.24096386,66714c2440363e99e3aed3a3,69b92ab4aef6dee357cd729a,69b92f23db7a2209b8abb841,0.0177,0.0177,0,87,87,138,1,sixfive,,,,,,,,,,,,,,,,,,,,,,,,,,,,,,,,,,,,,,,,,,,,,,,,,,,,,,,,,,,,,,,,,,,,,,,,,,,,,,,,,,,,,,,,,,,,,,,,,,,,,,,,,,,,,,,,,,,,,,,,,,,,,,,,,,,,,,,,,
,,66714c2440363e99e3aed3a3,2026-03-17_12h39.16.304,kallum_motion_pilot_GIST_update_2,2026.1.1,Win32,60.24096386,66714c2440363e99e3aed3a3,69b92ab4aef6dee357cd729a,69b92f23db7a2209b8abb841,0.0178,0.0178,0,88,88,88,1,fivesix,,,,,,,,,,,,,,,,,,,,,,,,,,,,,,,,,,,,,,,,,,,,,,,,,,,,,,,,,,,,,,,,,,,,,,,,,,,,,,,,,,,,,,,,,,,,,,,,,,,,,,,,,,,,,,,,,,,,,,,,,,,,,,,,,,,,,,,,,
,,66714c2440363e99e3aed3a3,2026-03-17_12h39.16.304,kallum_motion_pilot_GIST_update_2,2026.1.1,Win32,60.24096386,66714c2440363e99e3aed3a3,69b92ab4aef6dee357cd729a,69b92f23db7a2209b8abb841,0.0179,0.0179,0,89,89,115,1,sixeight,,,,,,,,,,,,,,,,,,,,,,,,,,,,,,,,,,,,,,,,,,,,,,,,,,,,,,,,,,,,,,,,,,,,,,,,,,,,,,,,,,,,,,,,,,,,,,,,,,,,,,,,,,,,,,,,,,,,,,,,,,,,,,,,,,,,,,,,,
,,66714c2440363e99e3aed3a3,2026-03-17_12h39.16.304,kallum_motion_pilot_GIST_update_2,2026.1.1,Win32,60.24096386,66714c2440363e99e3aed3a3,69b92ab4aef6dee357cd729a,69b92f23db7a2209b8abb841,0.0179,0.0179,0,90,90,128,1,fivesix,,,,,,,,,,,,,,,,,,,,,,,,,,,,,,,,,,,,,,,,,,,,,,,,,,,,,,,,,,,,,,,,,,,,,,,,,,,,,,,,,,,,,,,,,,,,,,,,,,,,,,,,,,,,,,,,,,,,,,,,,,,,,,,,,,,,,,,,,
,,66714c2440363e99e3aed3a3,2026-03-17_12h39.16.304,kallum_motion_pilot_GIST_update_2,2026.1.1,Win32,60.24096386,66714c2440363e99e3aed3a3,69b92ab4aef6dee357cd729a,69b92f23db7a2209b8abb841,0.0179,0.0179,0,91,91,24,1,onetwo,,,,,,,,,,,,,,,,,,,,,,,,,,,,,,,,,,,,,,,,,,,,,,,,,,,,,,,,,,,,,,,,,,,,,,,,,,,,,,,,,,,,,,,,,,,,,,,,,,,,,,,,,,,,,,,,,,,,,,,,,,,,,,,,,,,,,,,,,
,,66714c2440363e99e3aed3a3,2026-03-17_12h39.16.304,kallum_motion_pilot_GIST_update_2,2026.1.1,Win32,60.24096386,66714c2440363e99e3aed3a3,69b92ab4aef6dee357cd729a,69b92f23db7a2209b8abb841,0.018,0.018,0,92,92,149,1,seveneight,,,,,,,,,,,,,,,,,,,,,,,,,,,,,,,,,,,,,,,,,,,,,,,,,,,,,,,,,,,,,,,,,,,,,,,,,,,,,,,,,,,,,,,,,,,,,,,,,,,,,,,,,,,,,,,,,,,,,,,,,,,,,,,,,,,,,,,,,
,,66714c2440363e99e3aed3a3,2026-03-17_12h39.16.304,kallum_motion_pilot_GIST_update_2,2026.1.1,Win32,60.24096386,66714c2440363e99e3aed3a3,69b92ab4aef6dee357cd729a,69b92f23db7a2209b8abb841,0.018,0.018,0,93,93,124,1,sevenfive,,,,,,,,,,,,,,,,,,,,,,,,,,,,,,,,,,,,,,,,,,,,,,,,,,,,,,,,,,,,,,,,,,,,,,,,,,,,,,,,,,,,,,,,,,,,,,,,,,,,,,,,,,,,,,,,,,,,,,,,,,,,,,,,,,,,,,,,,
,,66714c2440363e99e3aed3a3,2026-03-17_12h39.16.304,kallum_motion_pilot_GIST_update_2,2026.1.1,Win32,60.24096386,66714c2440363e99e3aed3a3,69b92ab4aef6dee357cd729a,69b92f23db7a2209b8abb841,0.018,0.018,0,94,94,140,1,sevenfive,,,,,,,,,,,,,,,,,,,,,,,,,,,,,,,,,,,,,,,,,,,,,,,,,,,,,,,,,,,,,,,,,,,,,,,,,,,,,,,,,,,,,,,,,,,,,,,,,,,,,,,,,,,,,,,,,,,,,,,,,,,,,,,,,,,,,,,,,
,,66714c2440363e99e3aed3a3,2026-03-17_12h39.16.304,kallum_motion_pilot_GIST_update_2,2026.1.1,Win32,60.24096386,66714c2440363e99e3aed3a3,69b92ab4aef6dee357cd729a,69b92f23db7a2209b8abb841,0.0181,0.0181,0,95,95,142,1,eightsix,,,,,,,,,,,,,,,,,,,,,,,,,,,,,,,,,,,,,,,,,,,,,,,,,,,,,,,,,,,,,,,,,,,,,,,,,,,,,,,,,,,,,,,,,,,,,,,,,,,,,,,,,,,,,,,,,,,,,,,,,,,,,,,,,,,,,,,,,
,,66714c2440363e99e3aed3a3,2026-03-17_12h39.16.304,kallum_motion_pilot_GIST_update_2,2026.1.1,Win32,60.24096386,66714c2440363e99e3aed3a3,69b92ab4aef6dee357cd729a,69b92f23db7a2209b8abb841,0.0181,0.0181,0,96,96,134,1,eightsix,,,,,,,,,,,,,,,,,,,,,,,,,,,,,,,,,,,,,,,,,,,,,,,,,,,,,,,,,,,,,,,,,,,,,,,,,,,,,,,,,,,,,,,,,,,,,,,,,,,,,,,,,,,,,,,,,,,,,,,,,,,,,,,,,,,,,,,,,
,,66714c2440363e99e3aed3a3,2026-03-17_12h39.16.304,kallum_motion_pilot_GIST_update_2,2026.1.1,Win32,60.24096386,66714c2440363e99e3aed3a3,69b92ab4aef6dee357cd729a,69b92f23db7a2209b8abb841,0.0182,0.0182,0,97,97,47,1,fourthree,,,,,,,,,,,,,,,,,,,,,,,,,,,,,,,,,,,,,,,,,,,,,,,,,,,,,,,,,,,,,,,,,,,,,,,,,,,,,,,,,,,,,,,,,,,,,,,,,,,,,,,,,,,,,,,,,,,,,,,,,,,,,,,,,,,,,,,,,
,,66714c2440363e99e3aed3a3,2026-03-17_12h39.16.304,kallum_motion_pilot_GIST_update_2,2026.1.1,Win32,60.24096386,66714c2440363e99e3aed3a3,69b92ab4aef6dee357cd729a,69b92f23db7a2209b8abb841,0.0182,0.0182,0,98,98,99,1,sixeight,,,,,,,,,,,,,,,,,,,,,,,,,,,,,,,,,,,,,,,,,,,,,,,,,,,,,,,,,,,,,,,,,,,,,,,,,,,,,,,,,,,,,,,,,,,,,,,,,,,,,,,,,,,,,,,,,,,,,,,,,,,,,,,,,,,,,,,,,
,,66714c2440363e99e3aed3a3,2026-03-17_12h39.16.304,kallum_motion_pilot_GIST_update_2,2026.1.1,Win32,60.24096386,66714c2440363e99e3aed3a3,69b92ab4aef6dee357cd729a,69b92f23db7a2209b8abb841,0.0182,0.0182,0,99,99,159,1,eightseven,,,,,,,,,,,,,,,,,,,,,,,,,,,,,,,,,,,,,,,,,,,,,,,,,,,,,,,,,,,,,,,,,,,,,,,,,,,,,,,,,,,,,,,,,,,,,,,,,,,,,,,,,,,,,,,,,,,,,,,,,,,,,,,,,,,,,,,,,
,,66714c2440363e99e3aed3a3,2026-03-17_12h39.16.304,kallum_motion_pilot_GIST_update_2,2026.1.1,Win32,60.24096386,66714c2440363e99e3aed3a3,69b92ab4aef6dee357cd729a,69b92f23db7a2209b8abb841,0.0183,0.0183,0,100,100,158,1,eightsix,,,,,,,,,,,,,,,,,,,,,,,,,,,,,,,,,,,,,,,,,,,,,,,,,,,,,,,,,,,,,,,,,,,,,,,,,,,,,,,,,,,,,,,,,,,,,,,,,,,,,,,,,,,,,,,,,,,,,,,,,,,,,,,,,,,,,,,,,
,,66714c2440363e99e3aed3a3,2026-03-17_12h39.16.304,kallum_motion_pilot_GIST_update_2,2026.1.1,Win32,60.24096386,66714c2440363e99e3aed3a3,69b92ab4aef6dee357cd729a,69b92f23db7a2209b8abb841,0.0183,0.0183,0,101,101,3,1,twofour,,,,,,,,,,,,,,,,,,,,,,,,,,,,,,,,,,,,,,,,,,,,,,,,,,,,,,,,,,,,,,,,,,,,,,,,,,,,,,,,,,,,,,,,,,,,,,,,,,,,,,,,,,,,,,,,,,,,,,,,,,,,,,,,,,,,,,,,,
,,66714c2440363e99e3aed3a3,2026-03-17_12h39.16.304,kallum_motion_pilot_GIST_update_2,2026.1.1,Win32,60.24096386,66714c2440363e99e3aed3a3,69b92ab4aef6dee357cd729a,69b92f23db7a2209b8abb841,0.0184,0.0184,0,102,102,15,1,fourthree,,,,,,,,,,,,,,,,,,,,,,,,,,,,,,,,,,,,,,,,,,,,,,,,,,,,,,,,,,,,,,,,,,,,,,,,,,,,,,,,,,,,,,,,,,,,,,,,,,,,,,,,,,,,,,,,,,,,,,,,,,,,,,,,,,,,,,,,,
,,66714c2440363e99e3aed3a3,2026-03-17_12h39.16.304,kallum_motion_pilot_GIST_update_2,2026.1.1,Win32,60.24096386,66714c2440363e99e3aed3a3,69b92ab4aef6dee357cd729a,69b92f23db7a2209b8abb841,0.0184,0.0184,0,103,103,43,1,twofour,,,,,,,,,,,,,,,,,,,,,,,,,,,,,,,,,,,,,,,,,,,,,,,,,,,,,,,,,,,,,,,,,,,,,,,,,,,,,,,,,,,,,,,,,,,,,,,,,,,,,,,,,,,,,,,,,,,,,,,,,,,,,,,,,,,,,,,,,
,,66714c2440363e99e3aed3a3,2026-03-17_12h39.16.304,kallum_motion_pilot_GIST_update_2,2026.1.1,Win32,60.24096386,66714c2440363e99e3aed3a3,69b92ab4aef6dee357cd729a,69b92f23db7a2209b8abb841,0.0184,0.0184,0,104,104,9,1,onethree,,,,,,,,,,,,,,,,,,,,,,,,,,,,,,,,,,,,,,,,,,,,,,,,,,,,,,,,,,,,,,,,,,,,,,,,,,,,,,,,,,,,,,,,,,,,,,,,,,,,,,,,,,,,,,,,,,,,,,,,,,,,,,,,,,,,,,,,,
,,66714c2440363e99e3aed3a3,2026-03-17_12h39.16.304,kallum_motion_pilot_GIST_update_2,2026.1.1,Win32,60.24096386,66714c2440363e99e3aed3a3,69b92ab4aef6dee357cd729a,69b92f23db7a2209b8abb841,0.0185,0.0185,0,105,105,19,1,twofour,,,,,,,,,,,,,,,,,,,,,,,,,,,,,,,,,,,,,,,,,,,,,,,,,,,,,,,,,,,,,,,,,,,,,,,,,,,,,,,,,,,,,,,,,,,,,,,,,,,,,,,,,,,,,,,,,,,,,,,,,,,,,,,,,,,,,,,,,
,,66714c2440363e99e3aed3a3,2026-03-17_12h39.16.304,kallum_motion_pilot_GIST_update_2,2026.1.1,Win32,60.24096386,66714c2440363e99e3aed3a3,69b92ab4aef6dee357cd729a,69b92f23db7a2209b8abb841,0.0185,0.0185,0,106,106,144,1,fivesix,,,,,,,,,,,,,,,,,,,,,,,,,,,,,,,,,,,,,,,,,,,,,,,,,,,,,,,,,,,,,,,,,,,,,,,,,,,,,,,,,,,,,,,,,,,,,,,,,,,,,,,,,,,,,,,,,,,,,,,,,,,,,,,,,,,,,,,,,
,,66714c2440363e99e3aed3a3,2026-03-17_12h39.16.304,kallum_motion_pilot_GIST_update_2,2026.1.1,Win32,60.24096386,66714c2440363e99e3aed3a3,69b92ab4aef6dee357cd729a,69b92f23db7a2209b8abb841,0.0186,0.0186,0,107,107,70,1,fourtwo,,,,,,,,,,,,,,,,,,,,,,,,,,,,,,,,,,,,,,,,,,,,,,,,,,,,,,,,,,,,,,,,,,,,,,,,,,,,,,,,,,,,,,,,,,,,,,,,,,,,,,,,,,,,,,,,,,,,,,,,,,,,,,,,,,,,,,,,,
,,66714c2440363e99e3aed3a3,2026-03-17_12h39.16.304,kallum_motion_pilot_GIST_update_2,2026.1.1,Win32,60.24096386,66714c2440363e99e3aed3a3,69b92ab4aef6dee357cd729a,69b92f23db7a2209b8abb841,0.0186,0.0186,0,108,108,119,1,eightseven,,,,,,,,,,,,,,,,,,,,,,,,,,,,,,,,,,,,,,,,,,,,,,,,,,,,,,,,,,,,,,,,,,,,,,,,,,,,,,,,,,,,,,,,,,,,,,,,,,,,,,,,,,,,,,,,,,,,,,,,,,,,,,,,,,,,,,,,,
,,66714c2440363e99e3aed3a3,2026-03-17_12h39.16.304,kallum_motion_pilot_GIST_update_2,2026.1.1,Win32,60.24096386,66714c2440363e99e3aed3a3,69b92ab4aef6dee357cd729a,69b92f23db7a2209b8abb841,0.0187,0.0187,0,109,109,103,1,eightseven,,,,,,,,,,,,,,,,,,,,,,,,,,,,,,,,,,,,,,,,,,,,,,,,,,,,,,,,,,,,,,,,,,,,,,,,,,,,,,,,,,,,,,,,,,,,,,,,,,,,,,,,,,,,,,,,,,,,,,,,,,,,,,,,,,,,,,,,,
,,66714c2440363e99e3aed3a3,2026-03-17_12h39.16.304,kallum_motion_pilot_GIST_update_2,2026.1.1,Win32,60.24096386,66714c2440363e99e3aed3a3,69b92ab4aef6dee357cd729a,69b92f23db7a2209b8abb841,0.0187,0.0187,0,110,110,29,1,threefour,,,,,,,,,,,,,,,,,,,,,,,,,,,,,,,,,,,,,,,,,,,,,,,,,,,,,,,,,,,,,,,,,,,,,,,,,,,,,,,,,,,,,,,,,,,,,,,,,,,,,,,,,,,,,,,,,,,,,,,,,,,,,,,,,,,,,,,,,
,,66714c2440363e99e3aed3a3,2026-03-17_12h39.16.304,kallum_motion_pilot_GIST_update_2,2026.1.1,Win32,60.24096386,66714c2440363e99e3aed3a3,69b92ab4aef6dee357cd729a,69b92f23db7a2209b8abb841,0.0187,0.0187,0,111,111,92,1,sevenfive,,,,,,,,,,,,,,,,,,,,,,,,,,,,,,,,,,,,,,,,,,,,,,,,,,,,,,,,,,,,,,,,,,,,,,,,,,,,,,,,,,,,,,,,,,,,,,,,,,,,,,,,,,,,,,,,,,,,,,,,,,,,,,,,,,,,,,,,,
,,66714c2440363e99e3aed3a3,2026-03-17_12h39.16.304,kallum_motion_pilot_GIST_update_2,2026.1.1,Win32,60.24096386,66714c2440363e99e3aed3a3,69b92ab4aef6dee357cd729a,69b92f23db7a2209b8abb841,0.0188,0.0188,0,112,112,84,1,sevenfive,,,,,,,,,,,,,,,,,,,,,,,,,,,,,,,,,,,,,,,,,,,,,,,,,,,,,,,,,,,,,,,,,,,,,,,,,,,,,,,,,,,,,,,,,,,,,,,,,,,,,,,,,,,,,,,,,,,,,,,,,,,,,,,,,,,,,,,,,
,,66714c2440363e99e3aed3a3,2026-03-17_12h39.16.304,kallum_motion_pilot_GIST_update_2,2026.1.1,Win32,60.24096386,66714c2440363e99e3aed3a3,69b92ab4aef6dee357cd729a,69b92f23db7a2209b8abb841,0.0189,0.0189,0,113,113,136,1,fivesix,,,,,,,,,,,,,,,,,,,,,,,,,,,,,,,,,,,,,,,,,,,,,,,,,,,,,,,,,,,,,,,,,,,,,,,,,,,,,,,,,,,,,,,,,,,,,,,,,,,,,,,,,,,,,,,,,,,,,,,,,,,,,,,,,,,,,,,,,
,,66714c2440363e99e3aed3a3,2026-03-17_12h39.16.304,kallum_motion_pilot_GIST_update_2,2026.1.1,Win32,60.24096386,66714c2440363e99e3aed3a3,69b92ab4aef6dee357cd729a,69b92f23db7a2209b8abb841,0.0189,0.0189,0,114,114,117,1,seveneight,,,,,,,,,,,,,,,,,,,,,,,,,,,,,,,,,,,,,,,,,,,,,,,,,,,,,,,,,,,,,,,,,,,,,,,,,,,,,,,,,,,,,,,,,,,,,,,,,,,,,,,,,,,,,,,,,,,,,,,,,,,,,,,,,,,,,,,,,
,,66714c2440363e99e3aed3a3,2026-03-17_12h39.16.304,kallum_motion_pilot_GIST_update_2,2026.1.1,Win32,60.24096386,66714c2440363e99e3aed3a3,69b92ab4aef6dee357cd729a,69b92f23db7a2209b8abb841,0.0189,0.0189,0,115,115,97,1,fiveseven,,,,,,,,,,,,,,,,,,,,,,,,,,,,,,,,,,,,,,,,,,,,,,,,,,,,,,,,,,,,,,,,,,,,,,,,,,,,,,,,,,,,,,,,,,,,,,,,,,,,,,,,,,,,,,,,,,,,,,,,,,,,,,,,,,,,,,,,,
,,66714c2440363e99e3aed3a3,2026-03-17_12h39.16.304,kallum_motion_pilot_GIST_update_2,2026.1.1,Win32,60.24096386,66714c2440363e99e3aed3a3,69b92ab4aef6dee357cd729a,69b92f23db7a2209b8abb841,0.019,0.019,0,116,116,30,1,fourtwo,,,,,,,,,,,,,,,,,,,,,,,,,,,,,,,,,,,,,,,,,,,,,,,,,,,,,,,,,,,,,,,,,,,,,,,,,,,,,,,,,,,,,,,,,,,,,,,,,,,,,,,,,,,,,,,,,,,,,,,,,,,,,,,,,,,,,,,,,
,,66714c2440363e99e3aed3a3,2026-03-17_12h39.16.304,kallum_motion_pilot_GIST_update_2,2026.1.1,Win32,60.24096386,66714c2440363e99e3aed3a3,69b92ab4aef6dee357cd729a,69b92f23db7a2209b8abb841,0.0191,0.0191,0,117,117,32,1,onetwo,,,,,,,,,,,,,,,,,,,,,,,,,,,,,,,,,,,,,,,,,,,,,,,,,,,,,,,,,,,,,,,,,,,,,,,,,,,,,,,,,,,,,,,,,,,,,,,,,,,,,,,,,,,,,,,,,,,,,,,,,,,,,,,,,,,,,,,,,
,,66714c2440363e99e3aed3a3,2026-03-17_12h39.16.304,kallum_motion_pilot_GIST_update_2,2026.1.1,Win32,60.24096386,66714c2440363e99e3aed3a3,69b92ab4aef6dee357cd729a,69b92f23db7a2209b8abb841,0.0191,0.0191,0,118,118,137,1,fiveseven,,,,,,,,,,,,,,,,,,,,,,,,,,,,,,,,,,,,,,,,,,,,,,,,,,,,,,,,,,,,,,,,,,,,,,,,,,,,,,,,,,,,,,,,,,,,,,,,,,,,,,,,,,,,,,,,,,,,,,,,,,,,,,,,,,,,,,,,,
,,66714c2440363e99e3aed3a3,2026-03-17_12h39.16.304,kallum_motion_pilot_GIST_update_2,2026.1.1,Win32,60.24096386,66714c2440363e99e3aed3a3,69b92ab4aef6dee357cd729a,69b92f23db7a2209b8abb841,0.0191,0.0191,0,119,119,65,1,onethree,,,,,,,,,,,,,,,,,,,,,,,,,,,,,,,,,,,,,,,,,,,,,,,,,,,,,,,,,,,,,,,,,,,,,,,,,,,,,,,,,,,,,,,,,,,,,,,,,,,,,,,,,,,,,,,,,,,,,,,,,,,,,,,,,,,,,,,,,
,,66714c2440363e99e3aed3a3,2026-03-17_12h39.16.304,kallum_motion_pilot_GIST_update_2,2026.1.1,Win32,60.24096386,66714c2440363e99e3aed3a3,69b92ab4aef6dee357cd729a,69b92f23db7a2209b8abb841,0.0191,0.0192,0,120,120,143,1,eightseven,,,,,,,,,,,,,,,,,,,,,,,,,,,,,,,,,,,,,,,,,,,,,,,,,,,,,,,,,,,,,,,,,,,,,,,,,,,,,,,,,,,,,,,,,,,,,,,,,,,,,,,,,,,,,,,,,,,,,,,,,,,,,,,,,,,,,,,,,
,,66714c2440363e99e3aed3a3,2026-03-17_12h39.16.304,kallum_motion_pilot_GIST_update_2,2026.1.1,Win32,60.24096386,66714c2440363e99e3aed3a3,69b92ab4aef6dee357cd729a,69b92f23db7a2209b8abb841,0.0192,0.0192,0,121,121,8,1,onetwo,,,,,,,,,,,,,,,,,,,,,,,,,,,,,,,,,,,,,,,,,,,,,,,,,,,,,,,,,,,,,,,,,,,,,,,,,,,,,,,,,,,,,,,,,,,,,,,,,,,,,,,,,,,,,,,,,,,,,,,,,,,,,,,,,,,,,,,,,
,,66714c2440363e99e3aed3a3,2026-03-17_12h39.16.304,kallum_motion_pilot_GIST_update_2,2026.1.1,Win32,60.24096386,66714c2440363e99e3aed3a3,69b92ab4aef6dee357cd729a,69b92f23db7a2209b8abb841,0.0192,0.0192,0,122,122,100,1,sevenfive,,,,,,,,,,,,,,,,,,,,,,,,,,,,,,,,,,,,,,,,,,,,,,,,,,,,,,,,,,,,,,,,,,,,,,,,,,,,,,,,,,,,,,,,,,,,,,,,,,,,,,,,,,,,,,,,,,,,,,,,,,,,,,,,,,,,,,,,,
,,66714c2440363e99e3aed3a3,2026-03-17_12h39.16.304,kallum_motion_pilot_GIST_update_2,2026.1.1,Win32,60.24096386,66714c2440363e99e3aed3a3,69b92ab4aef6dee357cd729a,69b92f23db7a2209b8abb841,0.0193,0.0193,0,123,123,113,1,fiveseven,,,,,,,,,,,,,,,,,,,,,,,,,,,,,,,,,,,,,,,,,,,,,,,,,,,,,,,,,,,,,,,,,,,,,,,,,,,,,,,,,,,,,,,,,,,,,,,,,,,,,,,,,,,,,,,,,,,,,,,,,,,,,,,,,,,,,,,,,
,,66714c2440363e99e3aed3a3,2026-03-17_12h39.16.304,kallum_motion_pilot_GIST_update_2,2026.1.1,Win32,60.24096386,66714c2440363e99e3aed3a3,69b92ab4aef6dee357cd729a,69b92f23db7a2209b8abb841,0.0194,0.0194,0,124,124,157,1,seveneight,,,,,,,,,,,,,,,,,,,,,,,,,,,,,,,,,,,,,,,,,,,,,,,,,,,,,,,,,,,,,,,,,,,,,,,,,,,,,,,,,,,,,,,,,,,,,,,,,,,,,,,,,,,,,,,,,,,,,,,,,,,,,,,,,,,,,,,,,
,,66714c2440363e99e3aed3a3,2026-03-17_12h39.16.304,kallum_motion_pilot_GIST_update_2,2026.1.1,Win32,60.24096386,66714c2440363e99e3aed3a3,69b92ab4aef6dee357cd729a,69b92f23db7a2209b8abb841,0.0194,0.0194,0,125,125,77,1,threefour,,,,,,,,,,,,,,,,,,,,,,,,,,,,,,,,,,,,,,,,,,,,,,,,,,,,,,,,,,,,,,,,,,,,,,,,,,,,,,,,,,,,,,,,,,,,,,,,,,,,,,,,,,,,,,,,,,,,,,,,,,,,,,,,,,,,,,,,,
,,66714c2440363e99e3aed3a3,2026-03-17_12h39.16.304,kallum_motion_pilot_GIST_update_2,2026.1.1,Win32,60.24096386,66714c2440363e99e3aed3a3,69b92ab4aef6dee357cd729a,69b92f23db7a2209b8abb841,0.0194,0.0194,0,126,126,14,1,fourtwo,,,,,,,,,,,,,,,,,,,,,,,,,,,,,,,,,,,,,,,,,,,,,,,,,,,,,,,,,,,,,,,,,,,,,,,,,,,,,,,,,,,,,,,,,,,,,,,,,,,,,,,,,,,,,,,,,,,,,,,,,,,,,,,,,,,,,,,,,
,,66714c2440363e99e3aed3a3,2026-03-17_12h39.16.304,kallum_motion_pilot_GIST_update_2,2026.1.1,Win32,60.24096386,66714c2440363e99e3aed3a3,69b92ab4aef6dee357cd729a,69b92f23db7a2209b8abb841,0.0195,0.0195,0,127,127,145,1,fiveseven,,,,,,,,,,,,,,,,,,,,,,,,,,,,,,,,,,,,,,,,,,,,,,,,,,,,,,,,,,,,,,,,,,,,,,,,,,,,,,,,,,,,,,,,,,,,,,,,,,,,,,,,,,,,,,,,,,,,,,,,,,,,,,,,,,,,,,,,,
,,66714c2440363e99e3aed3a3,2026-03-17_12h39.16.304,kallum_motion_pilot_GIST_update_2,2026.1.1,Win32,60.24096386,66714c2440363e99e3aed3a3,69b92ab4aef6dee357cd729a,69b92f23db7a2209b8abb841,0.0195,0.0195,0,128,128,1,1,onethree,,,,,,,,,,,,,,,,,,,,,,,,,,,,,,,,,,,,,,,,,,,,,,,,,,,,,,,,,,,,,,,,,,,,,,,,,,,,,,,,,,,,,,,,,,,,,,,,,,,,,,,,,,,,,,,,,,,,,,,,,,,,,,,,,,,,,,,,,
,,66714c2440363e99e3aed3a3,2026-03-17_12h39.16.304,kallum_motion_pilot_GIST_update_2,2026.1.1,Win32,60.24096386,66714c2440363e99e3aed3a3,69b92ab4aef6dee357cd729a,69b92f23db7a2209b8abb841,0.0196,0.0196,0,129,129,27,1,twofour,,,,,,,,,,,,,,,,,,,,,,,,,,,,,,,,,,,,,,,,,,,,,,,,,,,,,,,,,,,,,,,,,,,,,,,,,,,,,,,,,,,,,,,,,,,,,,,,,,,,,,,,,,,,,,,,,,,,,,,,,,,,,,,,,,,,,,,,,
,,66714c2440363e99e3aed3a3,2026-03-17_12h39.16.304,kallum_motion_pilot_GIST_update_2,2026.1.1,Win32,60.24096386,66714c2440363e99e3aed3a3,69b92ab4aef6dee357cd729a,69b92f23db7a2209b8abb841,0.0196,0.0196,0,130,130,79,1,eightseven,,,,,,,,,,,,,,,,,,,,,,,,,,,,,,,,,,,,,,,,,,,,,,,,,,,,,,,,,,,,,,,,,,,,,,,,,,,,,,,,,,,,,,,,,,,,,,,,,,,,,,,,,,,,,,,,,,,,,,,,,,,,,,,,,,,,,,,,,
,,66714c2440363e99e3aed3a3,2026-03-17_12h39.16.304,kallum_motion_pilot_GIST_update_2,2026.1.1,Win32,60.24096386,66714c2440363e99e3aed3a3,69b92ab4aef6dee357cd729a,69b92f23db7a2209b8abb841,0.0197,0.0197,0,131,131,95,1,eightseven,,,,,,,,,,,,,,,,,,,,,,,,,,,,,,,,,,,,,,,,,,,,,,,,,,,,,,,,,,,,,,,,,,,,,,,,,,,,,,,,,,,,,,,,,,,,,,,,,,,,,,,,,,,,,,,,,,,,,,,,,,,,,,,,,,,,,,,,,
,,66714c2440363e99e3aed3a3,2026-03-17_12h39.16.304,kallum_motion_pilot_GIST_update_2,2026.1.1,Win32,60.24096386,66714c2440363e99e3aed3a3,69b92ab4aef6dee357cd729a,69b92f23db7a2209b8abb841,0.0197,0.0197,0,132,132,71,1,fourthree,,,,,,,,,,,,,,,,,,,,,,,,,,,,,,,,,,,,,,,,,,,,,,,,,,,,,,,,,,,,,,,,,,,,,,,,,,,,,,,,,,,,,,,,,,,,,,,,,,,,,,,,,,,,,,,,,,,,,,,,,,,,,,,,,,,,,,,,,
,,66714c2440363e99e3aed3a3,2026-03-17_12h39.16.304,kallum_motion_pilot_GIST_update_2,2026.1.1,Win32,60.24096386,66714c2440363e99e3aed3a3,69b92ab4aef6dee357cd729a,69b92f23db7a2209b8abb841,0.0198,0.0198,0,133,133,4,1,threeone,,,,,,,,,,,,,,,,,,,,,,,,,,,,,,,,,,,,,,,,,,,,,,,,,,,,,,,,,,,,,,,,,,,,,,,,,,,,,,,,,,,,,,,,,,,,,,,,,,,,,,,,,,,,,,,,,,,,,,,,,,,,,,,,,,,,,,,,,
,,66714c2440363e99e3aed3a3,2026-03-17_12h39.16.304,kallum_motion_pilot_GIST_update_2,2026.1.1,Win32,60.24096386,66714c2440363e99e3aed3a3,69b92ab4aef6dee357cd729a,69b92f23db7a2209b8abb841,0.0198,0.0198,0,134,134,102,1,eightsix,,,,,,,,,,,,,,,,,,,,,,,,,,,,,,,,,,,,,,,,,,,,,,,,,,,,,,,,,,,,,,,,,,,,,,,,,,,,,,,,,,,,,,,,,,,,,,,,,,,,,,,,,,,,,,,,,,,,,,,,,,,,,,,,,,,,,,,,,
,,66714c2440363e99e3aed3a3,2026-03-17_12h39.16.304,kallum_motion_pilot_GIST_update_2,2026.1.1,Win32,60.24096386,66714c2440363e99e3aed3a3,69b92ab4aef6dee357cd729a,69b92f23db7a2209b8abb841,0.0199,0.02,0,135,135,156,1,sevenfive,,,,,,,,,,,,,,,,,,,,,,,,,,,,,,,,,,,,,,,,,,,,,,,,,,,,,,,,,,,,,,,,,,,,,,,,,,,,,,,,,,,,,,,,,,,,,,,,,,,,,,,,,,,,,,,,,,,,,,,,,,,,,,,,,,,,,,,,,
,,66714c2440363e99e3aed3a3,2026-03-17_12h39.16.304,kallum_motion_pilot_GIST_update_2,2026.1.1,Win32,60.24096386,66714c2440363e99e3aed3a3,69b92ab4aef6dee357cd729a,69b92f23db7a2209b8abb841,0.02,0.02,0,136,136,116,1,sevenfive,,,,,,,,,,,,,,,,,,,,,,,,,,,,,,,,,,,,,,,,,,,,,,,,,,,,,,,,,,,,,,,,,,,,,,,,,,,,,,,,,,,,,,,,,,,,,,,,,,,,,,,,,,,,,,,,,,,,,,,,,,,,,,,,,,,,,,,,,
,,66714c2440363e99e3aed3a3,2026-03-17_12h39.16.304,kallum_motion_pilot_GIST_update_2,2026.1.1,Win32,60.24096386,66714c2440363e99e3aed3a3,69b92ab4aef6dee357cd729a,69b92f23db7a2209b8abb841,0.0201,0.0201,0,137,137,155,1,sixeight,,,,,,,,,,,,,,,,,,,,,,,,,,,,,,,,,,,,,,,,,,,,,,,,,,,,,,,,,,,,,,,,,,,,,,,,,,,,,,,,,,,,,,,,,,,,,,,,,,,,,,,,,,,,,,,,,,,,,,,,,,,,,,,,,,,,,,,,,
,,66714c2440363e99e3aed3a3,2026-03-17_12h39.16.304,kallum_motion_pilot_GIST_update_2,2026.1.1,Win32,60.24096386,66714c2440363e99e3aed3a3,69b92ab4aef6dee357cd729a,69b92f23db7a2209b8abb841,0.0201,0.0201,0,138,138,13,1,threefour,,,,,,,,,,,,,,,,,,,,,,,,,,,,,,,,,,,,,,,,,,,,,,,,,,,,,,,,,,,,,,,,,,,,,,,,,,,,,,,,,,,,,,,,,,,,,,,,,,,,,,,,,,,,,,,,,,,,,,,,,,,,,,,,,,,,,,,,,
,,66714c2440363e99e3aed3a3,2026-03-17_12h39.16.304,kallum_motion_pilot_GIST_update_2,2026.1.1,Win32,60.24096386,66714c2440363e99e3aed3a3,69b92ab4aef6dee357cd729a,69b92f23db7a2209b8abb841,0.0202,0.0202,0,139,139,130,1,sixfive,,,,,,,,,,,,,,,,,,,,,,,,,,,,,,,,,,,,,,,,,,,,,,,,,,,,,,,,,,,,,,,,,,,,,,,,,,,,,,,,,,,,,,,,,,,,,,,,,,,,,,,,,,,,,,,,,,,,,,,,,,,,,,,,,,,,,,,,,
,,66714c2440363e99e3aed3a3,2026-03-17_12h39.16.304,kallum_motion_pilot_GIST_update_2,2026.1.1,Win32,60.24096386,66714c2440363e99e3aed3a3,69b92ab4aef6dee357cd729a,69b92f23db7a2209b8abb841,0.0202,0.0202,0,140,140,91,1,sixeight,,,,,,,,,,,,,,,,,,,,,,,,,,,,,,,,,,,,,,,,,,,,,,,,,,,,,,,,,,,,,,,,,,,,,,,,,,,,,,,,,,,,,,,,,,,,,,,,,,,,,,,,,,,,,,,,,,,,,,,,,,,,,,,,,,,,,,,,,
,,66714c2440363e99e3aed3a3,2026-03-17_12h39.16.304,kallum_motion_pilot_GIST_update_2,2026.1.1,Win32,60.24096386,66714c2440363e99e3aed3a3,69b92ab4aef6dee357cd729a,69b92f23db7a2209b8abb841,0.0202,0.0202,0,141,141,150,1,eightsix,,,,,,,,,,,,,,,,,,,,,,,,,,,,,,,,,,,,,,,,,,,,,,,,,,,,,,,,,,,,,,,,,,,,,,,,,,,,,,,,,,,,,,,,,,,,,,,,,,,,,,,,,,,,,,,,,,,,,,,,,,,,,,,,,,,,,,,,,
,,66714c2440363e99e3aed3a3,2026-03-17_12h39.16.304,kallum_motion_pilot_GIST_update_2,2026.1.1,Win32,60.24096386,66714c2440363e99e3aed3a3,69b92ab4aef6dee357cd729a,69b92f23db7a2209b8abb841,0.0203,0.0203,0,142,142,120,1,fivesix,,,,,,,,,,,,,,,,,,,,,,,,,,,,,,,,,,,,,,,,,,,,,,,,,,,,,,,,,,,,,,,,,,,,,,,,,,,,,,,,,,,,,,,,,,,,,,,,,,,,,,,,,,,,,,,,,,,,,,,,,,,,,,,,,,,,,,,,,
,,66714c2440363e99e3aed3a3,2026-03-17_12h39.16.304,kallum_motion_pilot_GIST_update_2,2026.1.1,Win32,60.24096386,66714c2440363e99e3aed3a3,69b92ab4aef6dee357cd729a,69b92f23db7a2209b8abb841,0.0204,0.0205,0,143,143,121,1,fiveseven,,,,,,,,,,,,,,,,,,,,,,,,,,,,,,,,,,,,,,,,,,,,,,,,,,,,,,,,,,,,,,,,,,,,,,,,,,,,,,,,,,,,,,,,,,,,,,,,,,,,,,,,,,,,,,,,,,,,,,,,,,,,,,,,,,,,,,,,,
,,66714c2440363e99e3aed3a3,2026-03-17_12h39.16.304,kallum_motion_pilot_GIST_update_2,2026.1.1,Win32,60.24096386,66714c2440363e99e3aed3a3,69b92ab4aef6dee357cd729a,69b92f23db7a2209b8abb841,0.0206,0.0206,0,144,144,110,1,eightsix,,,,,,,,,,,,,,,,,,,,,,,,,,,,,,,,,,,,,,,,,,,,,,,,,,,,,,,,,,,,,,,,,,,,,,,,,,,,,,,,,,,,,,,,,,,,,,,,,,,,,,,,,,,,,,,,,,,,,,,,,,,,,,,,,,,,,,,,,
,,66714c2440363e99e3aed3a3,2026-03-17_12h39.16.304,kallum_motion_pilot_GIST_update_2,2026.1.1,Win32,60.24096386,66714c2440363e99e3aed3a3,69b92ab4aef6dee357cd729a,69b92f23db7a2209b8abb841,0.0208,0.0208,0,145,145,69,1,threefour,,,,,,,,,,,,,,,,,,,,,,,,,,,,,,,,,,,,,,,,,,,,,,,,,,,,,,,,,,,,,,,,,,,,,,,,,,,,,,,,,,,,,,,,,,,,,,,,,,,,,,,,,,,,,,,,,,,,,,,,,,,,,,,,,,,,,,,,,
,,66714c2440363e99e3aed3a3,2026-03-17_12h39.16.304,kallum_motion_pilot_GIST_update_2,2026.1.1,Win32,60.24096386,66714c2440363e99e3aed3a3,69b92ab4aef6dee357cd729a,69b92f23db7a2209b8abb841,0.0209,0.0209,0,146,146,23,1,fourthree,,,,,,,,,,,,,,,,,,,,,,,,,,,,,,,,,,,,,,,,,,,,,,,,,,,,,,,,,,,,,,,,,,,,,,,,,,,,,,,,,,,,,,,,,,,,,,,,,,,,,,,,,,,,,,,,,,,,,,,,,,,,,,,,,,,,,,,,,
,,66714c2440363e99e3aed3a3,2026-03-17_12h39.16.304,kallum_motion_pilot_GIST_update_2,2026.1.1,Win32,60.24096386,66714c2440363e99e3aed3a3,69b92ab4aef6dee357cd729a,69b92f23db7a2209b8abb841,0.021,0.021,0,147,147,31,1,fourthree,,,,,,,,,,,,,,,,,,,,,,,,,,,,,,,,,,,,,,,,,,,,,,,,,,,,,,,,,,,,,,,,,,,,,,,,,,,,,,,,,,,,,,,,,,,,,,,,,,,,,,,,,,,,,,,,,,,,,,,,,,,,,,,,,,,,,,,,,
,,66714c2440363e99e3aed3a3,2026-03-17_12h39.16.304,kallum_motion_pilot_GIST_update_2,2026.1.1,Win32,60.24096386,66714c2440363e99e3aed3a3,69b92ab4aef6dee357cd729a,69b92f23db7a2209b8abb841,0.021,0.021,0,148,148,2,1,twoone,,,,,,,,,,,,,,,,,,,,,,,,,,,,,,,,,,,,,,,,,,,,,,,,,,,,,,,,,,,,,,,,,,,,,,,,,,,,,,,,,,,,,,,,,,,,,,,,,,,,,,,,,,,,,,,,,,,,,,,,,,,,,,,,,,,,,,,,,
,,66714c2440363e99e3aed3a3,2026-03-17_12h39.16.304,kallum_motion_pilot_GIST_update_2,2026.1.1,Win32,60.24096386,66714c2440363e99e3aed3a3,69b92ab4aef6dee357cd729a,69b92f23db7a2209b8abb841,0.0211,0.0211,0,149,149,16,1,onetwo,,,,,,,,,,,,,,,,,,,,,,,,,,,,,,,,,,,,,,,,,,,,,,,,,,,,,,,,,,,,,,,,,,,,,,,,,,,,,,,,,,,,,,,,,,,,,,,,,,,,,,,,,,,,,,,,,,,,,,,,,,,,,,,,,,,,,,,,,
,,66714c2440363e99e3aed3a3,2026-03-17_12h39.16.304,kallum_motion_pilot_GIST_update_2,2026.1.1,Win32,60.24096386,66714c2440363e99e3aed3a3,69b92ab4aef6dee357cd729a,69b92f23db7a2209b8abb841,0.0211,0.0211,0,150,150,57,1,onethree,,,,,,,,,,,,,,,,,,,,,,,,,,,,,,,,,,,,,,,,,,,,,,,,,,,,,,,,,,,,,,,,,,,,,,,,,,,,,,,,,,,,,,,,,,,,,,,,,,,,,,,,,,,,,,,,,,,,,,,,,,,,,,,,,,,,,,,,,
,,66714c2440363e99e3aed3a3,2026-03-17_12h39.16.304,kallum_motion_pilot_GIST_update_2,2026.1.1,Win32,60.24096386,66714c2440363e99e3aed3a3,69b92ab4aef6dee357cd729a,69b92f23db7a2209b8abb841,0.0212,0.0212,0,151,151,56,1,onetwo,,,,,,,,,,,,,,,,,,,,,,,,,,,,,,,,,,,,,,,,,,,,,,,,,,,,,,,,,,,,,,,,,,,,,,,,,,,,,,,,,,,,,,,,,,,,,,,,,,,,,,,,,,,,,,,,,,,,,,,,,,,,,,,,,,,,,,,,,
,,66714c2440363e99e3aed3a3,2026-03-17_12h39.16.304,kallum_motion_pilot_GIST_update_2,2026.1.1,Win32,60.24096386,66714c2440363e99e3aed3a3,69b92ab4aef6dee357cd729a,69b92f23db7a2209b8abb841,0.0212,0.0212,0,152,152,86,1,eightsix,,,,,,,,,,,,,,,,,,,,,,,,,,,,,,,,,,,,,,,,,,,,,,,,,,,,,,,,,,,,,,,,,,,,,,,,,,,,,,,,,,,,,,,,,,,,,,,,,,,,,,,,,,,,,,,,,,,,,,,,,,,,,,,,,,,,,,,,,
,,66714c2440363e99e3aed3a3,2026-03-17_12h39.16.304,kallum_motion_pilot_GIST_update_2,2026.1.1,Win32,60.24096386,66714c2440363e99e3aed3a3,69b92ab4aef6dee357cd729a,69b92f23db7a2209b8abb841,0.0213,0.0213,0,153,153,55,1,fourthree,,,,,,,,,,,,,,,,,,,,,,,,,,,,,,,,,,,,,,,,,,,,,,,,,,,,,,,,,,,,,,,,,,,,,,,,,,,,,,,,,,,,,,,,,,,,,,,,,,,,,,,,,,,,,,,,,,,,,,,,,,,,,,,,,,,,,,,,,
,,66714c2440363e99e3aed3a3,2026-03-17_12h39.16.304,kallum_motion_pilot_GIST_update_2,2026.1.1,Win32,60.24096386,66714c2440363e99e3aed3a3,69b92ab4aef6dee357cd729a,69b92f23db7a2209b8abb841,0.0213,0.0213,0,154,154,131,1,sixeight,,,,,,,,,,,,,,,,,,,,,,,,,,,,,,,,,,,,,,,,,,,,,,,,,,,,,,,,,,,,,,,,,,,,,,,,,,,,,,,,,,,,,,,,,,,,,,,,,,,,,,,,,,,,,,,,,,,,,,,,,,,,,,,,,,,,,,,,,
,,66714c2440363e99e3aed3a3,2026-03-17_12h39.16.304,kallum_motion_pilot_GIST_update_2,2026.1.1,Win32,60.24096386,66714c2440363e99e3aed3a3,69b92ab4aef6dee357cd729a,69b92f23db7a2209b8abb841,0.0214,0.0214,0,155,155,49,1,onethree,,,,,,,,,,,,,,,,,,,,,,,,,,,,,,,,,,,,,,,,,,,,,,,,,,,,,,,,,,,,,,,,,,,,,,,,,,,,,,,,,,,,,,,,,,,,,,,,,,,,,,,,,,,,,,,,,,,,,,,,,,,,,,,,,,,,,,,,,
,,66714c2440363e99e3aed3a3,2026-03-17_12h39.16.304,kallum_motion_pilot_GIST_update_2,2026.1.1,Win32,60.24096386,66714c2440363e99e3aed3a3,69b92ab4aef6dee357cd729a,69b92f23db7a2209b8abb841,0.0215,0.0215,0,156,156,11,1,twofour,,,,,,,,,,,,,,,,,,,,,,,,,,,,,,,,,,,,,,,,,,,,,,,,,,,,,,,,,,,,,,,,,,,,,,,,,,,,,,,,,,,,,,,,,,,,,,,,,,,,,,,,,,,,,,,,,,,,,,,,,,,,,,,,,,,,,,,,,
,,66714c2440363e99e3aed3a3,2026-03-17_12h39.16.304,kallum_motion_pilot_GIST_update_2,2026.1.1,Win32,60.24096386,66714c2440363e99e3aed3a3,69b92ab4aef6dee357cd729a,69b92f23db7a2209b8abb841,0.0216,0.0216,0,157,157,52,1,threeone,,,,,,,,,,,,,,,,,,,,,,,,,,,,,,,,,,,,,,,,,,,,,,,,,,,,,,,,,,,,,,,,,,,,,,,,,,,,,,,,,,,,,,,,,,,,,,,,,,,,,,,,,,,,,,,,,,,,,,,,,,,,,,,,,,,,,,,,,
,,66714c2440363e99e3aed3a3,2026-03-17_12h39.16.304,kallum_motion_pilot_GIST_update_2,2026.1.1,Win32,60.24096386,66714c2440363e99e3aed3a3,69b92ab4aef6dee357cd729a,69b92f23db7a2209b8abb841,0.0217,0.0217,0,158,158,60,1,threeone,,,,,,,,,,,,,,,,,,,,,,,,,,,,,,,,,,,,,,,,,,,,,,,,,,,,,,,,,,,,,,,,,,,,,,,,,,,,,,,,,,,,,,,,,,,,,,,,,,,,,,,,,,,,,,,,,,,,,,,,,,,,,,,,,,,,,,,,,
,,66714c2440363e99e3aed3a3,2026-03-17_12h39.16.304,kallum_motion_pilot_GIST_update_2,2026.1.1,Win32,60.24096386,66714c2440363e99e3aed3a3,69b92ab4aef6dee357cd729a,69b92f23db7a2209b8abb841,0.0217,0.0217,0,159,159,96,1,fivesix,,,,,,,,,,,,,,,,,,,,,,,,,,,,,,,,,,,,,,,,,,,,,,,,,,,,,,,,,,,,,,,,,,,,,,,,,,,,,,,,,,,,,,,,,,,,,,,,,,,,,,,,,,,,,,,,,,,,,,,,,,,,,,,,,,,,,,,,,
,,66714c2440363e99e3aed3a3,2026-03-17_12h39.16.304,kallum_motion_pilot_GIST_update_2,2026.1.1,Win32,60.24096386,66714c2440363e99e3aed3a3,69b92ab4aef6dee357cd729a,69b92f23db7a2209b8abb841,0.0218,0.0218,0,160,160,126,1,eightsix,,,,,,,,,,,,,,,,,,,,,,,,,,,,,,,,,,,,,,,,,,,,,,,,,,,,,,,,,,,,,,,,,,,,,,,,,,,,,,,,,,,,,,,,,,,,,,,,,,,,,,,,,,,,,,,,,,,,,,,,,,,,,,,,,,,,,,,,,
,,66714c2440363e99e3aed3a3,2026-03-17_12h39.16.304,kallum_motion_pilot_GIST_update_2,2026.1.1,Win32,60.24096386,66714c2440363e99e3aed3a3,69b92ab4aef6dee357cd729a,69b92f23db7a2209b8abb841,0.0218,0.0218,0,161,161,76,1,threeone,,,,,,,,,,,,,,,,,,,,,,,,,,,,,,,,,,,,,,,,,,,,,,,,,,,,,,,,,,,,,,,,,,,,,,,,,,,,,,,,,,,,,,,,,,,,,,,,,,,,,,,,,,,,,,,,,,,,,,,,,,,,,,,,,,,,,,,,,
,,66714c2440363e99e3aed3a3,2026-03-17_12h39.16.304,kallum_motion_pilot_GIST_update_2,2026.1.1,Win32,60.24096386,66714c2440363e99e3aed3a3,69b92ab4aef6dee357cd729a,69b92f23db7a2209b8abb841,0.0219,0.0219,1,0,162,86,1,eightsix,,,,,,,,,,,,,,,,,,,,,,,,,,,,,,,,,,,,,,,,,,,,,,,,,,,,,,,,,,,,,,,,,,,,,,,,,,,,,,,,,,,,,,,,,,,,,,,,,,,,,,,,,,,,,,,,,,,,,,,,,,,,,,,,,,,,,,,,,
,,66714c2440363e99e3aed3a3,2026-03-17_12h39.16.304,kallum_motion_pilot_GIST_update_2,2026.1.1,Win32,60.24096386,66714c2440363e99e3aed3a3,69b92ab4aef6dee357cd729a,69b92f23db7a2209b8abb841,0.022,0.022,1,1,163,107,1,sixeight,,,,,,,,,,,,,,,,,,,,,,,,,,,,,,,,,,,,,,,,,,,,,,,,,,,,,,,,,,,,,,,,,,,,,,,,,,,,,,,,,,,,,,,,,,,,,,,,,,,,,,,,,,,,,,,,,,,,,,,,,,,,,,,,,,,,,,,,,
,,66714c2440363e99e3aed3a3,2026-03-17_12h39.16.304,kallum_motion_pilot_GIST_update_2,2026.1.1,Win32,60.24096386,66714c2440363e99e3aed3a3,69b92ab4aef6dee357cd729a,69b92f23db7a2209b8abb841,0.022,0.022,1,2,164,48,1,onetwo,,,,,,,,,,,,,,,,,,,,,,,,,,,,,,,,,,,,,,,,,,,,,,,,,,,,,,,,,,,,,,,,,,,,,,,,,,,,,,,,,,,,,,,,,,,,,,,,,,,,,,,,,,,,,,,,,,,,,,,,,,,,,,,,,,,,,,,,,
,,66714c2440363e99e3aed3a3,2026-03-17_12h39.16.304,kallum_motion_pilot_GIST_update_2,2026.1.1,Win32,60.24096386,66714c2440363e99e3aed3a3,69b92ab4aef6dee357cd729a,69b92f23db7a2209b8abb841,0.022,0.022,1,3,165,121,1,fiveseven,,,,,,,,,,,,,,,,,,,,,,,,,,,,,,,,,,,,,,,,,,,,,,,,,,,,,,,,,,,,,,,,,,,,,,,,,,,,,,,,,,,,,,,,,,,,,,,,,,,,,,,,,,,,,,,,,,,,,,,,,,,,,,,,,,,,,,,,,
,,66714c2440363e99e3aed3a3,2026-03-17_12h39.16.304,kallum_motion_pilot_GIST_update_2,2026.1.1,Win32,60.24096386,66714c2440363e99e3aed3a3,69b92ab4aef6dee357cd729a,69b92f23db7a2209b8abb841,0.0221,0.0221,1,4,166,29,1,threefour,,,,,,,,,,,,,,,,,,,,,,,,,,,,,,,,,,,,,,,,,,,,,,,,,,,,,,,,,,,,,,,,,,,,,,,,,,,,,,,,,,,,,,,,,,,,,,,,,,,,,,,,,,,,,,,,,,,,,,,,,,,,,,,,,,,,,,,,,
,,66714c2440363e99e3aed3a3,2026-03-17_12h39.16.304,kallum_motion_pilot_GIST_update_2,2026.1.1,Win32,60.24096386,66714c2440363e99e3aed3a3,69b92ab4aef6dee357cd729a,69b92f23db7a2209b8abb841,0.0221,0.0221,1,5,167,30,1,fourtwo,,,,,,,,,,,,,,,,,,,,,,,,,,,,,,,,,,,,,,,,,,,,,,,,,,,,,,,,,,,,,,,,,,,,,,,,,,,,,,,,,,,,,,,,,,,,,,,,,,,,,,,,,,,,,,,,,,,,,,,,,,,,,,,,,,,,,,,,,
,,66714c2440363e99e3aed3a3,2026-03-17_12h39.16.304,kallum_motion_pilot_GIST_update_2,2026.1.1,Win32,60.24096386,66714c2440363e99e3aed3a3,69b92ab4aef6dee357cd729a,69b92f23db7a2209b8abb841,0.0222,0.0222,1,6,168,140,1,sevenfive,,,,,,,,,,,,,,,,,,,,,,,,,,,,,,,,,,,,,,,,,,,,,,,,,,,,,,,,,,,,,,,,,,,,,,,,,,,,,,,,,,,,,,,,,,,,,,,,,,,,,,,,,,,,,,,,,,,,,,,,,,,,,,,,,,,,,,,,,
,,66714c2440363e99e3aed3a3,2026-03-17_12h39.16.304,kallum_motion_pilot_GIST_update_2,2026.1.1,Win32,60.24096386,66714c2440363e99e3aed3a3,69b92ab4aef6dee357cd729a,69b92f23db7a2209b8abb841,0.0229,0.0229,1,7,169,78,1,fourtwo,,,,,,,,,,,,,,,,,,,,,,,,,,,,,,,,,,,,,,,,,,,,,,,,,,,,,,,,,,,,,,,,,,,,,,,,,,,,,,,,,,,,,,,,,,,,,,,,,,,,,,,,,,,,,,,,,,,,,,,,,,,,,,,,,,,,,,,,,
,,66714c2440363e99e3aed3a3,2026-03-17_12h39.16.304,kallum_motion_pilot_GIST_update_2,2026.1.1,Win32,60.24096386,66714c2440363e99e3aed3a3,69b92ab4aef6dee357cd729a,69b92f23db7a2209b8abb841,0.0229,0.0229,1,8,170,125,1,seveneight,,,,,,,,,,,,,,,,,,,,,,,,,,,,,,,,,,,,,,,,,,,,,,,,,,,,,,,,,,,,,,,,,,,,,,,,,,,,,,,,,,,,,,,,,,,,,,,,,,,,,,,,,,,,,,,,,,,,,,,,,,,,,,,,,,,,,,,,,
,,66714c2440363e99e3aed3a3,2026-03-17_12h39.16.304,kallum_motion_pilot_GIST_update_2,2026.1.1,Win32,60.24096386,66714c2440363e99e3aed3a3,69b92ab4aef6dee357cd729a,69b92f23db7a2209b8abb841,0.023,0.023,1,9,171,136,1,fivesix,,,,,,,,,,,,,,,,,,,,,,,,,,,,,,,,,,,,,,,,,,,,,,,,,,,,,,,,,,,,,,,,,,,,,,,,,,,,,,,,,,,,,,,,,,,,,,,,,,,,,,,,,,,,,,,,,,,,,,,,,,,,,,,,,,,,,,,,,
,,66714c2440363e99e3aed3a3,2026-03-17_12h39.16.304,kallum_motion_pilot_GIST_update_2,2026.1.1,Win32,60.24096386,66714c2440363e99e3aed3a3,69b92ab4aef6dee357cd729a,69b92f23db7a2209b8abb841,0.0231,0.0231,1,10,172,65,1,onethree,,,,,,,,,,,,,,,,,,,,,,,,,,,,,,,,,,,,,,,,,,,,,,,,,,,,,,,,,,,,,,,,,,,,,,,,,,,,,,,,,,,,,,,,,,,,,,,,,,,,,,,,,,,,,,,,,,,,,,,,,,,,,,,,,,,,,,,,,
,,66714c2440363e99e3aed3a3,2026-03-17_12h39.16.304,kallum_motion_pilot_GIST_update_2,2026.1.1,Win32,60.24096386,66714c2440363e99e3aed3a3,69b92ab4aef6dee357cd729a,69b92f23db7a2209b8abb841,0.0231,0.0231,1,11,173,23,1,fourthree,,,,,,,,,,,,,,,,,,,,,,,,,,,,,,,,,,,,,,,,,,,,,,,,,,,,,,,,,,,,,,,,,,,,,,,,,,,,,,,,,,,,,,,,,,,,,,,,,,,,,,,,,,,,,,,,,,,,,,,,,,,,,,,,,,,,,,,,,
,,66714c2440363e99e3aed3a3,2026-03-17_12h39.16.304,kallum_motion_pilot_GIST_update_2,2026.1.1,Win32,60.24096386,66714c2440363e99e3aed3a3,69b92ab4aef6dee357cd729a,69b92f23db7a2209b8abb841,0.0232,0.0232,1,12,174,58,1,twoone,,,,,,,,,,,,,,,,,,,,,,,,,,,,,,,,,,,,,,,,,,,,,,,,,,,,,,,,,,,,,,,,,,,,,,,,,,,,,,,,,,,,,,,,,,,,,,,,,,,,,,,,,,,,,,,,,,,,,,,,,,,,,,,,,,,,,,,,,
,,66714c2440363e99e3aed3a3,2026-03-17_12h39.16.304,kallum_motion_pilot_GIST_update_2,2026.1.1,Win32,60.24096386,66714c2440363e99e3aed3a3,69b92ab4aef6dee357cd729a,69b92f23db7a2209b8abb841,0.0232,0.0232,1,13,175,0,1,onetwo,,,,,,,,,,,,,,,,,,,,,,,,,,,,,,,,,,,,,,,,,,,,,,,,,,,,,,,,,,,,,,,,,,,,,,,,,,,,,,,,,,,,,,,,,,,,,,,,,,,,,,,,,,,,,,,,,,,,,,,,,,,,,,,,,,,,,,,,,
,,66714c2440363e99e3aed3a3,2026-03-17_12h39.16.304,kallum_motion_pilot_GIST_update_2,2026.1.1,Win32,60.24096386,66714c2440363e99e3aed3a3,69b92ab4aef6dee357cd729a,69b92f23db7a2209b8abb841,0.0232,0.0232,1,14,176,80,1,fivesix,,,,,,,,,,,,,,,,,,,,,,,,,,,,,,,,,,,,,,,,,,,,,,,,,,,,,,,,,,,,,,,,,,,,,,,,,,,,,,,,,,,,,,,,,,,,,,,,,,,,,,,,,,,,,,,,,,,,,,,,,,,,,,,,,,,,,,,,,
,,66714c2440363e99e3aed3a3,2026-03-17_12h39.16.304,kallum_motion_pilot_GIST_update_2,2026.1.1,Win32,60.24096386,66714c2440363e99e3aed3a3,69b92ab4aef6dee357cd729a,69b92f23db7a2209b8abb841,0.0232,0.0232,1,15,177,152,1,fivesix,,,,,,,,,,,,,,,,,,,,,,,,,,,,,,,,,,,,,,,,,,,,,,,,,,,,,,,,,,,,,,,,,,,,,,,,,,,,,,,,,,,,,,,,,,,,,,,,,,,,,,,,,,,,,,,,,,,,,,,,,,,,,,,,,,,,,,,,,
,,66714c2440363e99e3aed3a3,2026-03-17_12h39.16.304,kallum_motion_pilot_GIST_update_2,2026.1.1,Win32,60.24096386,66714c2440363e99e3aed3a3,69b92ab4aef6dee357cd729a,69b92f23db7a2209b8abb841,0.0233,0.0233,1,16,178,31,1,fourthree,,,,,,,,,,,,,,,,,,,,,,,,,,,,,,,,,,,,,,,,,,,,,,,,,,,,,,,,,,,,,,,,,,,,,,,,,,,,,,,,,,,,,,,,,,,,,,,,,,,,,,,,,,,,,,,,,,,,,,,,,,,,,,,,,,,,,,,,,
,,66714c2440363e99e3aed3a3,2026-03-17_12h39.16.304,kallum_motion_pilot_GIST_update_2,2026.1.1,Win32,60.24096386,66714c2440363e99e3aed3a3,69b92ab4aef6dee357cd729a,69b92f23db7a2209b8abb841,0.0234,0.0234,1,17,179,132,1,sevenfive,,,,,,,,,,,,,,,,,,,,,,,,,,,,,,,,,,,,,,,,,,,,,,,,,,,,,,,,,,,,,,,,,,,,,,,,,,,,,,,,,,,,,,,,,,,,,,,,,,,,,,,,,,,,,,,,,,,,,,,,,,,,,,,,,,,,,,,,,
,,66714c2440363e99e3aed3a3,2026-03-17_12h39.16.304,kallum_motion_pilot_GIST_update_2,2026.1.1,Win32,60.24096386,66714c2440363e99e3aed3a3,69b92ab4aef6dee357cd729a,69b92f23db7a2209b8abb841,0.0235,0.0235,1,18,180,90,1,sixfive,,,,,,,,,,,,,,,,,,,,,,,,,,,,,,,,,,,,,,,,,,,,,,,,,,,,,,,,,,,,,,,,,,,,,,,,,,,,,,,,,,,,,,,,,,,,,,,,,,,,,,,,,,,,,,,,,,,,,,,,,,,,,,,,,,,,,,,,,
,,66714c2440363e99e3aed3a3,2026-03-17_12h39.16.304,kallum_motion_pilot_GIST_update_2,2026.1.1,Win32,60.24096386,66714c2440363e99e3aed3a3,69b92ab4aef6dee357cd729a,69b92f23db7a2209b8abb841,0.0235,0.0235,1,19,181,88,1,fivesix,,,,,,,,,,,,,,,,,,,,,,,,,,,,,,,,,,,,,,,,,,,,,,,,,,,,,,,,,,,,,,,,,,,,,,,,,,,,,,,,,,,,,,,,,,,,,,,,,,,,,,,,,,,,,,,,,,,,,,,,,,,,,,,,,,,,,,,,,
,,66714c2440363e99e3aed3a3,2026-03-17_12h39.16.304,kallum_motion_pilot_GIST_update_2,2026.1.1,Win32,60.24096386,66714c2440363e99e3aed3a3,69b92ab4aef6dee357cd729a,69b92f23db7a2209b8abb841,0.0236,0.0236,1,20,182,66,1,twoone,,,,,,,,,,,,,,,,,,,,,,,,,,,,,,,,,,,,,,,,,,,,,,,,,,,,,,,,,,,,,,,,,,,,,,,,,,,,,,,,,,,,,,,,,,,,,,,,,,,,,,,,,,,,,,,,,,,,,,,,,,,,,,,,,,,,,,,,,
,,66714c2440363e99e3aed3a3,2026-03-17_12h39.16.304,kallum_motion_pilot_GIST_update_2,2026.1.1,Win32,60.24096386,66714c2440363e99e3aed3a3,69b92ab4aef6dee357cd729a,69b92f23db7a2209b8abb841,0.0236,0.0236,1,21,183,44,1,threeone,,,,,,,,,,,,,,,,,,,,,,,,,,,,,,,,,,,,,,,,,,,,,,,,,,,,,,,,,,,,,,,,,,,,,,,,,,,,,,,,,,,,,,,,,,,,,,,,,,,,,,,,,,,,,,,,,,,,,,,,,,,,,,,,,,,,,,,,,
,,66714c2440363e99e3aed3a3,2026-03-17_12h39.16.304,kallum_motion_pilot_GIST_update_2,2026.1.1,Win32,60.24096386,66714c2440363e99e3aed3a3,69b92ab4aef6dee357cd729a,69b92f23db7a2209b8abb841,0.0237,0.0237,1,22,184,35,1,twofour,,,,,,,,,,,,,,,,,,,,,,,,,,,,,,,,,,,,,,,,,,,,,,,,,,,,,,,,,,,,,,,,,,,,,,,,,,,,,,,,,,,,,,,,,,,,,,,,,,,,,,,,,,,,,,,,,,,,,,,,,,,,,,,,,,,,,,,,,
,,66714c2440363e99e3aed3a3,2026-03-17_12h39.16.304,kallum_motion_pilot_GIST_update_2,2026.1.1,Win32,60.24096386,66714c2440363e99e3aed3a3,69b92ab4aef6dee357cd729a,69b92f23db7a2209b8abb841,0.0237,0.0237,1,23,185,154,1,sixfive,,,,,,,,,,,,,,,,,,,,,,,,,,,,,,,,,,,,,,,,,,,,,,,,,,,,,,,,,,,,,,,,,,,,,,,,,,,,,,,,,,,,,,,,,,,,,,,,,,,,,,,,,,,,,,,,,,,,,,,,,,,,,,,,,,,,,,,,,
,,66714c2440363e99e3aed3a3,2026-03-17_12h39.16.304,kallum_motion_pilot_GIST_update_2,2026.1.1,Win32,60.24096386,66714c2440363e99e3aed3a3,69b92ab4aef6dee357cd729a,69b92f23db7a2209b8abb841,0.0238,0.0238,1,24,186,43,1,twofour,,,,,,,,,,,,,,,,,,,,,,,,,,,,,,,,,,,,,,,,,,,,,,,,,,,,,,,,,,,,,,,,,,,,,,,,,,,,,,,,,,,,,,,,,,,,,,,,,,,,,,,,,,,,,,,,,,,,,,,,,,,,,,,,,,,,,,,,,
,,66714c2440363e99e3aed3a3,2026-03-17_12h39.16.304,kallum_motion_pilot_GIST_update_2,2026.1.1,Win32,60.24096386,66714c2440363e99e3aed3a3,69b92ab4aef6dee357cd729a,69b92f23db7a2209b8abb841,0.0238,0.0238,1,25,187,105,1,fiveseven,,,,,,,,,,,,,,,,,,,,,,,,,,,,,,,,,,,,,,,,,,,,,,,,,,,,,,,,,,,,,,,,,,,,,,,,,,,,,,,,,,,,,,,,,,,,,,,,,,,,,,,,,,,,,,,,,,,,,,,,,,,,,,,,,,,,,,,,,
,,66714c2440363e99e3aed3a3,2026-03-17_12h39.16.304,kallum_motion_pilot_GIST_update_2,2026.1.1,Win32,60.24096386,66714c2440363e99e3aed3a3,69b92ab4aef6dee357cd729a,69b92f23db7a2209b8abb841,0.0239,0.0239,1,26,188,94,1,eightsix,,,,,,,,,,,,,,,,,,,,,,,,,,,,,,,,,,,,,,,,,,,,,,,,,,,,,,,,,,,,,,,,,,,,,,,,,,,,,,,,,,,,,,,,,,,,,,,,,,,,,,,,,,,,,,,,,,,,,,,,,,,,,,,,,,,,,,,,,
,,66714c2440363e99e3aed3a3,2026-03-17_12h39.16.304,kallum_motion_pilot_GIST_update_2,2026.1.1,Win32,60.24096386,66714c2440363e99e3aed3a3,69b92ab4aef6dee357cd729a,69b92f23db7a2209b8abb841,0.0239,0.0239,1,27,189,84,1,sevenfive,,,,,,,,,,,,,,,,,,,,,,,,,,,,,,,,,,,,,,,,,,,,,,,,,,,,,,,,,,,,,,,,,,,,,,,,,,,,,,,,,,,,,,,,,,,,,,,,,,,,,,,,,,,,,,,,,,,,,,,,,,,,,,,,,,,,,,,,,
,,66714c2440363e99e3aed3a3,2026-03-17_12h39.16.304,kallum_motion_pilot_GIST_update_2,2026.1.1,Win32,60.24096386,66714c2440363e99e3aed3a3,69b92ab4aef6dee357cd729a,69b92f23db7a2209b8abb841,0.024,0.024,1,28,190,145,1,fiveseven,,,,,,,,,,,,,,,,,,,,,,,,,,,,,,,,,,,,,,,,,,,,,,,,,,,,,,,,,,,,,,,,,,,,,,,,,,,,,,,,,,,,,,,,,,,,,,,,,,,,,,,,,,,,,,,,,,,,,,,,,,,,,,,,,,,,,,,,,
,,66714c2440363e99e3aed3a3,2026-03-17_12h39.16.304,kallum_motion_pilot_GIST_update_2,2026.1.1,Win32,60.24096386,66714c2440363e99e3aed3a3,69b92ab4aef6dee357cd729a,69b92f23db7a2209b8abb841,0.024,0.024,1,29,191,83,1,sixeight,,,,,,,,,,,,,,,,,,,,,,,,,,,,,,,,,,,,,,,,,,,,,,,,,,,,,,,,,,,,,,,,,,,,,,,,,,,,,,,,,,,,,,,,,,,,,,,,,,,,,,,,,,,,,,,,,,,,,,,,,,,,,,,,,,,,,,,,,
,,66714c2440363e99e3aed3a3,2026-03-17_12h39.16.304,kallum_motion_pilot_GIST_update_2,2026.1.1,Win32,60.24096386,66714c2440363e99e3aed3a3,69b92ab4aef6dee357cd729a,69b92f23db7a2209b8abb841,0.0241,0.0241,1,30,192,13,1,threefour,,,,,,,,,,,,,,,,,,,,,,,,,,,,,,,,,,,,,,,,,,,,,,,,,,,,,,,,,,,,,,,,,,,,,,,,,,,,,,,,,,,,,,,,,,,,,,,,,,,,,,,,,,,,,,,,,,,,,,,,,,,,,,,,,,,,,,,,,
,,66714c2440363e99e3aed3a3,2026-03-17_12h39.16.304,kallum_motion_pilot_GIST_update_2,2026.1.1,Win32,60.24096386,66714c2440363e99e3aed3a3,69b92ab4aef6dee357cd729a,69b92f23db7a2209b8abb841,0.0243,0.0243,1,31,193,61,1,threefour,,,,,,,,,,,,,,,,,,,,,,,,,,,,,,,,,,,,,,,,,,,,,,,,,,,,,,,,,,,,,,,,,,,,,,,,,,,,,,,,,,,,,,,,,,,,,,,,,,,,,,,,,,,,,,,,,,,,,,,,,,,,,,,,,,,,,,,,,
,,66714c2440363e99e3aed3a3,2026-03-17_12h39.16.304,kallum_motion_pilot_GIST_update_2,2026.1.1,Win32,60.24096386,66714c2440363e99e3aed3a3,69b92ab4aef6dee357cd729a,69b92f23db7a2209b8abb841,0.0244,0.0244,1,32,194,2,1,twoone,,,,,,,,,,,,,,,,,,,,,,,,,,,,,,,,,,,,,,,,,,,,,,,,,,,,,,,,,,,,,,,,,,,,,,,,,,,,,,,,,,,,,,,,,,,,,,,,,,,,,,,,,,,,,,,,,,,,,,,,,,,,,,,,,,,,,,,,,
,,66714c2440363e99e3aed3a3,2026-03-17_12h39.16.304,kallum_motion_pilot_GIST_update_2,2026.1.1,Win32,60.24096386,66714c2440363e99e3aed3a3,69b92ab4aef6dee357cd729a,69b92f23db7a2209b8abb841,0.0244,0.0244,1,33,195,138,1,sixfive,,,,,,,,,,,,,,,,,,,,,,,,,,,,,,,,,,,,,,,,,,,,,,,,,,,,,,,,,,,,,,,,,,,,,,,,,,,,,,,,,,,,,,,,,,,,,,,,,,,,,,,,,,,,,,,,,,,,,,,,,,,,,,,,,,,,,,,,,
,,66714c2440363e99e3aed3a3,2026-03-17_12h39.16.304,kallum_motion_pilot_GIST_update_2,2026.1.1,Win32,60.24096386,66714c2440363e99e3aed3a3,69b92ab4aef6dee357cd729a,69b92f23db7a2209b8abb841,0.0245,0.0245,1,34,196,15,1,fourthree,,,,,,,,,,,,,,,,,,,,,,,,,,,,,,,,,,,,,,,,,,,,,,,,,,,,,,,,,,,,,,,,,,,,,,,,,,,,,,,,,,,,,,,,,,,,,,,,,,,,,,,,,,,,,,,,,,,,,,,,,,,,,,,,,,,,,,,,,
,,66714c2440363e99e3aed3a3,2026-03-17_12h39.16.304,kallum_motion_pilot_GIST_update_2,2026.1.1,Win32,60.24096386,66714c2440363e99e3aed3a3,69b92ab4aef6dee357cd729a,69b92f23db7a2209b8abb841,0.0245,0.0245,1,35,197,55,1,fourthree,,,,,,,,,,,,,,,,,,,,,,,,,,,,,,,,,,,,,,,,,,,,,,,,,,,,,,,,,,,,,,,,,,,,,,,,,,,,,,,,,,,,,,,,,,,,,,,,,,,,,,,,,,,,,,,,,,,,,,,,,,,,,,,,,,,,,,,,,
,,66714c2440363e99e3aed3a3,2026-03-17_12h39.16.304,kallum_motion_pilot_GIST_update_2,2026.1.1,Win32,60.24096386,66714c2440363e99e3aed3a3,69b92ab4aef6dee357cd729a,69b92f23db7a2209b8abb841,0.0246,0.0246,1,36,198,75,1,twofour,,,,,,,,,,,,,,,,,,,,,,,,,,,,,,,,,,,,,,,,,,,,,,,,,,,,,,,,,,,,,,,,,,,,,,,,,,,,,,,,,,,,,,,,,,,,,,,,,,,,,,,,,,,,,,,,,,,,,,,,,,,,,,,,,,,,,,,,,
,,66714c2440363e99e3aed3a3,2026-03-17_12h39.16.304,kallum_motion_pilot_GIST_update_2,2026.1.1,Win32,60.24096386,66714c2440363e99e3aed3a3,69b92ab4aef6dee357cd729a,69b92f23db7a2209b8abb841,0.0247,0.0247,1,37,199,18,1,twoone,,,,,,,,,,,,,,,,,,,,,,,,,,,,,,,,,,,,,,,,,,,,,,,,,,,,,,,,,,,,,,,,,,,,,,,,,,,,,,,,,,,,,,,,,,,,,,,,,,,,,,,,,,,,,,,,,,,,,,,,,,,,,,,,,,,,,,,,,
,,66714c2440363e99e3aed3a3,2026-03-17_12h39.16.304,kallum_motion_pilot_GIST_update_2,2026.1.1,Win32,60.24096386,66714c2440363e99e3aed3a3,69b92ab4aef6dee357cd729a,69b92f23db7a2209b8abb841,0.0248,0.0248,1,38,200,46,1,fourtwo,,,,,,,,,,,,,,,,,,,,,,,,,,,,,,,,,,,,,,,,,,,,,,,,,,,,,,,,,,,,,,,,,,,,,,,,,,,,,,,,,,,,,,,,,,,,,,,,,,,,,,,,,,,,,,,,,,,,,,,,,,,,,,,,,,,,,,,,,
,,66714c2440363e99e3aed3a3,2026-03-17_12h39.16.304,kallum_motion_pilot_GIST_update_2,2026.1.1,Win32,60.24096386,66714c2440363e99e3aed3a3,69b92ab4aef6dee357cd729a,69b92f23db7a2209b8abb841,0.0248,0.0248,1,39,201,151,1,eightseven,,,,,,,,,,,,,,,,,,,,,,,,,,,,,,,,,,,,,,,,,,,,,,,,,,,,,,,,,,,,,,,,,,,,,,,,,,,,,,,,,,,,,,,,,,,,,,,,,,,,,,,,,,,,,,,,,,,,,,,,,,,,,,,,,,,,,,,,,
,,66714c2440363e99e3aed3a3,2026-03-17_12h39.16.304,kallum_motion_pilot_GIST_update_2,2026.1.1,Win32,60.24096386,66714c2440363e99e3aed3a3,69b92ab4aef6dee357cd729a,69b92f23db7a2209b8abb841,0.0249,0.0249,1,40,202,122,1,sixfive,,,,,,,,,,,,,,,,,,,,,,,,,,,,,,,,,,,,,,,,,,,,,,,,,,,,,,,,,,,,,,,,,,,,,,,,,,,,,,,,,,,,,,,,,,,,,,,,,,,,,,,,,,,,,,,,,,,,,,,,,,,,,,,,,,,,,,,,,
,,66714c2440363e99e3aed3a3,2026-03-17_12h39.16.304,kallum_motion_pilot_GIST_update_2,2026.1.1,Win32,60.24096386,66714c2440363e99e3aed3a3,69b92ab4aef6dee357cd729a,69b92f23db7a2209b8abb841,0.0249,0.0249,1,41,203,5,1,threefour,,,,,,,,,,,,,,,,,,,,,,,,,,,,,,,,,,,,,,,,,,,,,,,,,,,,,,,,,,,,,,,,,,,,,,,,,,,,,,,,,,,,,,,,,,,,,,,,,,,,,,,,,,,,,,,,,,,,,,,,,,,,,,,,,,,,,,,,,
,,66714c2440363e99e3aed3a3,2026-03-17_12h39.16.304,kallum_motion_pilot_GIST_update_2,2026.1.1,Win32,60.24096386,66714c2440363e99e3aed3a3,69b92ab4aef6dee357cd729a,69b92f23db7a2209b8abb841,0.0249,0.0249,1,42,204,120,1,fivesix,,,,,,,,,,,,,,,,,,,,,,,,,,,,,,,,,,,,,,,,,,,,,,,,,,,,,,,,,,,,,,,,,,,,,,,,,,,,,,,,,,,,,,,,,,,,,,,,,,,,,,,,,,,,,,,,,,,,,,,,,,,,,,,,,,,,,,,,,
,,66714c2440363e99e3aed3a3,2026-03-17_12h39.16.304,kallum_motion_pilot_GIST_update_2,2026.1.1,Win32,60.24096386,66714c2440363e99e3aed3a3,69b92ab4aef6dee357cd729a,69b92f23db7a2209b8abb841,0.0251,0.0251,1,43,205,85,1,seveneight,,,,,,,,,,,,,,,,,,,,,,,,,,,,,,,,,,,,,,,,,,,,,,,,,,,,,,,,,,,,,,,,,,,,,,,,,,,,,,,,,,,,,,,,,,,,,,,,,,,,,,,,,,,,,,,,,,,,,,,,,,,,,,,,,,,,,,,,,
,,66714c2440363e99e3aed3a3,2026-03-17_12h39.16.304,kallum_motion_pilot_GIST_update_2,2026.1.1,Win32,60.24096386,66714c2440363e99e3aed3a3,69b92ab4aef6dee357cd729a,69b92f23db7a2209b8abb841,0.0251,0.0251,1,44,206,49,1,onethree,,,,,,,,,,,,,,,,,,,,,,,,,,,,,,,,,,,,,,,,,,,,,,,,,,,,,,,,,,,,,,,,,,,,,,,,,,,,,,,,,,,,,,,,,,,,,,,,,,,,,,,,,,,,,,,,,,,,,,,,,,,,,,,,,,,,,,,,,
,,66714c2440363e99e3aed3a3,2026-03-17_12h39.16.304,kallum_motion_pilot_GIST_update_2,2026.1.1,Win32,60.24096386,66714c2440363e99e3aed3a3,69b92ab4aef6dee357cd729a,69b92f23db7a2209b8abb841,0.0252,0.0252,1,45,207,6,1,fourtwo,,,,,,,,,,,,,,,,,,,,,,,,,,,,,,,,,,,,,,,,,,,,,,,,,,,,,,,,,,,,,,,,,,,,,,,,,,,,,,,,,,,,,,,,,,,,,,,,,,,,,,,,,,,,,,,,,,,,,,,,,,,,,,,,,,,,,,,,,
,,66714c2440363e99e3aed3a3,2026-03-17_12h39.16.304,kallum_motion_pilot_GIST_update_2,2026.1.1,Win32,60.24096386,66714c2440363e99e3aed3a3,69b92ab4aef6dee357cd729a,69b92f23db7a2209b8abb841,0.0252,0.0252,1,46,208,10,1,twoone,,,,,,,,,,,,,,,,,,,,,,,,,,,,,,,,,,,,,,,,,,,,,,,,,,,,,,,,,,,,,,,,,,,,,,,,,,,,,,,,,,,,,,,,,,,,,,,,,,,,,,,,,,,,,,,,,,,,,,,,,,,,,,,,,,,,,,,,,
,,66714c2440363e99e3aed3a3,2026-03-17_12h39.16.304,kallum_motion_pilot_GIST_update_2,2026.1.1,Win32,60.24096386,66714c2440363e99e3aed3a3,69b92ab4aef6dee357cd729a,69b92f23db7a2209b8abb841,0.0253,0.0253,1,47,209,118,1,eightsix,,,,,,,,,,,,,,,,,,,,,,,,,,,,,,,,,,,,,,,,,,,,,,,,,,,,,,,,,,,,,,,,,,,,,,,,,,,,,,,,,,,,,,,,,,,,,,,,,,,,,,,,,,,,,,,,,,,,,,,,,,,,,,,,,,,,,,,,,
,,66714c2440363e99e3aed3a3,2026-03-17_12h39.16.304,kallum_motion_pilot_GIST_update_2,2026.1.1,Win32,60.24096386,66714c2440363e99e3aed3a3,69b92ab4aef6dee357cd729a,69b92f23db7a2209b8abb841,0.0253,0.0253,1,48,210,36,1,threeone,,,,,,,,,,,,,,,,,,,,,,,,,,,,,,,,,,,,,,,,,,,,,,,,,,,,,,,,,,,,,,,,,,,,,,,,,,,,,,,,,,,,,,,,,,,,,,,,,,,,,,,,,,,,,,,,,,,,,,,,,,,,,,,,,,,,,,,,,
,,66714c2440363e99e3aed3a3,2026-03-17_12h39.16.304,kallum_motion_pilot_GIST_update_2,2026.1.1,Win32,60.24096386,66714c2440363e99e3aed3a3,69b92ab4aef6dee357cd729a,69b92f23db7a2209b8abb841,0.0253,0.0253,1,49,211,4,1,threeone,,,,,,,,,,,,,,,,,,,,,,,,,,,,,,,,,,,,,,,,,,,,,,,,,,,,,,,,,,,,,,,,,,,,,,,,,,,,,,,,,,,,,,,,,,,,,,,,,,,,,,,,,,,,,,,,,,,,,,,,,,,,,,,,,,,,,,,,,
,,66714c2440363e99e3aed3a3,2026-03-17_12h39.16.304,kallum_motion_pilot_GIST_update_2,2026.1.1,Win32,60.24096386,66714c2440363e99e3aed3a3,69b92ab4aef6dee357cd729a,69b92f23db7a2209b8abb841,0.0255,0.0255,1,50,212,33,1,onethree,,,,,,,,,,,,,,,,,,,,,,,,,,,,,,,,,,,,,,,,,,,,,,,,,,,,,,,,,,,,,,,,,,,,,,,,,,,,,,,,,,,,,,,,,,,,,,,,,,,,,,,,,,,,,,,,,,,,,,,,,,,,,,,,,,,,,,,,,
,,66714c2440363e99e3aed3a3,2026-03-17_12h39.16.304,kallum_motion_pilot_GIST_update_2,2026.1.1,Win32,60.24096386,66714c2440363e99e3aed3a3,69b92ab4aef6dee357cd729a,69b92f23db7a2209b8abb841,0.0255,0.0255,1,51,213,40,1,onetwo,,,,,,,,,,,,,,,,,,,,,,,,,,,,,,,,,,,,,,,,,,,,,,,,,,,,,,,,,,,,,,,,,,,,,,,,,,,,,,,,,,,,,,,,,,,,,,,,,,,,,,,,,,,,,,,,,,,,,,,,,,,,,,,,,,,,,,,,,
,,66714c2440363e99e3aed3a3,2026-03-17_12h39.16.304,kallum_motion_pilot_GIST_update_2,2026.1.1,Win32,60.24096386,66714c2440363e99e3aed3a3,69b92ab4aef6dee357cd729a,69b92f23db7a2209b8abb841,0.0255,0.0255,1,52,214,14,1,fourtwo,,,,,,,,,,,,,,,,,,,,,,,,,,,,,,,,,,,,,,,,,,,,,,,,,,,,,,,,,,,,,,,,,,,,,,,,,,,,,,,,,,,,,,,,,,,,,,,,,,,,,,,,,,,,,,,,,,,,,,,,,,,,,,,,,,,,,,,,,
,,66714c2440363e99e3aed3a3,2026-03-17_12h39.16.304,kallum_motion_pilot_GIST_update_2,2026.1.1,Win32,60.24096386,66714c2440363e99e3aed3a3,69b92ab4aef6dee357cd729a,69b92f23db7a2209b8abb841,0.0256,0.0256,1,53,215,27,1,twofour,,,,,,,,,,,,,,,,,,,,,,,,,,,,,,,,,,,,,,,,,,,,,,,,,,,,,,,,,,,,,,,,,,,,,,,,,,,,,,,,,,,,,,,,,,,,,,,,,,,,,,,,,,,,,,,,,,,,,,,,,,,,,,,,,,,,,,,,,
,,66714c2440363e99e3aed3a3,2026-03-17_12h39.16.304,kallum_motion_pilot_GIST_update_2,2026.1.1,Win32,60.24096386,66714c2440363e99e3aed3a3,69b92ab4aef6dee357cd729a,69b92f23db7a2209b8abb841,0.0257,0.0257,1,54,216,41,1,onethree,,,,,,,,,,,,,,,,,,,,,,,,,,,,,,,,,,,,,,,,,,,,,,,,,,,,,,,,,,,,,,,,,,,,,,,,,,,,,,,,,,,,,,,,,,,,,,,,,,,,,,,,,,,,,,,,,,,,,,,,,,,,,,,,,,,,,,,,,
,,66714c2440363e99e3aed3a3,2026-03-17_12h39.16.304,kallum_motion_pilot_GIST_update_2,2026.1.1,Win32,60.24096386,66714c2440363e99e3aed3a3,69b92ab4aef6dee357cd729a,69b92f23db7a2209b8abb841,0.0257,0.0258,1,55,217,47,1,fourthree,,,,,,,,,,,,,,,,,,,,,,,,,,,,,,,,,,,,,,,,,,,,,,,,,,,,,,,,,,,,,,,,,,,,,,,,,,,,,,,,,,,,,,,,,,,,,,,,,,,,,,,,,,,,,,,,,,,,,,,,,,,,,,,,,,,,,,,,,
,,66714c2440363e99e3aed3a3,2026-03-17_12h39.16.304,kallum_motion_pilot_GIST_update_2,2026.1.1,Win32,60.24096386,66714c2440363e99e3aed3a3,69b92ab4aef6dee357cd729a,69b92f23db7a2209b8abb841,0.0258,0.0258,1,56,218,87,1,eightseven,,,,,,,,,,,,,,,,,,,,,,,,,,,,,,,,,,,,,,,,,,,,,,,,,,,,,,,,,,,,,,,,,,,,,,,,,,,,,,,,,,,,,,,,,,,,,,,,,,,,,,,,,,,,,,,,,,,,,,,,,,,,,,,,,,,,,,,,,
,,66714c2440363e99e3aed3a3,2026-03-17_12h39.16.304,kallum_motion_pilot_GIST_update_2,2026.1.1,Win32,60.24096386,66714c2440363e99e3aed3a3,69b92ab4aef6dee357cd729a,69b92f23db7a2209b8abb841,0.0259,0.0259,1,57,219,134,1,eightsix,,,,,,,,,,,,,,,,,,,,,,,,,,,,,,,,,,,,,,,,,,,,,,,,,,,,,,,,,,,,,,,,,,,,,,,,,,,,,,,,,,,,,,,,,,,,,,,,,,,,,,,,,,,,,,,,,,,,,,,,,,,,,,,,,,,,,,,,,
,,66714c2440363e99e3aed3a3,2026-03-17_12h39.16.304,kallum_motion_pilot_GIST_update_2,2026.1.1,Win32,60.24096386,66714c2440363e99e3aed3a3,69b92ab4aef6dee357cd729a,69b92f23db7a2209b8abb841,0.0259,0.0259,1,58,220,117,1,seveneight,,,,,,,,,,,,,,,,,,,,,,,,,,,,,,,,,,,,,,,,,,,,,,,,,,,,,,,,,,,,,,,,,,,,,,,,,,,,,,,,,,,,,,,,,,,,,,,,,,,,,,,,,,,,,,,,,,,,,,,,,,,,,,,,,,,,,,,,,
,,66714c2440363e99e3aed3a3,2026-03-17_12h39.16.304,kallum_motion_pilot_GIST_update_2,2026.1.1,Win32,60.24096386,66714c2440363e99e3aed3a3,69b92ab4aef6dee357cd729a,69b92f23db7a2209b8abb841,0.026,0.026,1,59,221,28,1,threeone,,,,,,,,,,,,,,,,,,,,,,,,,,,,,,,,,,,,,,,,,,,,,,,,,,,,,,,,,,,,,,,,,,,,,,,,,,,,,,,,,,,,,,,,,,,,,,,,,,,,,,,,,,,,,,,,,,,,,,,,,,,,,,,,,,,,,,,,,
,,66714c2440363e99e3aed3a3,2026-03-17_12h39.16.304,kallum_motion_pilot_GIST_update_2,2026.1.1,Win32,60.24096386,66714c2440363e99e3aed3a3,69b92ab4aef6dee357cd729a,69b92f23db7a2209b8abb841,0.0261,0.0261,1,60,222,141,1,seveneight,,,,,,,,,,,,,,,,,,,,,,,,,,,,,,,,,,,,,,,,,,,,,,,,,,,,,,,,,,,,,,,,,,,,,,,,,,,,,,,,,,,,,,,,,,,,,,,,,,,,,,,,,,,,,,,,,,,,,,,,,,,,,,,,,,,,,,,,,
,,66714c2440363e99e3aed3a3,2026-03-17_12h39.16.304,kallum_motion_pilot_GIST_update_2,2026.1.1,Win32,60.24096386,66714c2440363e99e3aed3a3,69b92ab4aef6dee357cd729a,69b92f23db7a2209b8abb841,0.0262,0.0262,1,61,223,98,1,sixfive,,,,,,,,,,,,,,,,,,,,,,,,,,,,,,,,,,,,,,,,,,,,,,,,,,,,,,,,,,,,,,,,,,,,,,,,,,,,,,,,,,,,,,,,,,,,,,,,,,,,,,,,,,,,,,,,,,,,,,,,,,,,,,,,,,,,,,,,,
,,66714c2440363e99e3aed3a3,2026-03-17_12h39.16.304,kallum_motion_pilot_GIST_update_2,2026.1.1,Win32,60.24096386,66714c2440363e99e3aed3a3,69b92ab4aef6dee357cd729a,69b92f23db7a2209b8abb841,0.0263,0.0263,1,62,224,160,1,fivesix,,,,,,,,,,,,,,,,,,,,,,,,,,,,,,,,,,,,,,,,,,,,,,,,,,,,,,,,,,,,,,,,,,,,,,,,,,,,,,,,,,,,,,,,,,,,,,,,,,,,,,,,,,,,,,,,,,,,,,,,,,,,,,,,,,,,,,,,,
,,66714c2440363e99e3aed3a3,2026-03-17_12h39.16.304,kallum_motion_pilot_GIST_update_2,2026.1.1,Win32,60.24096386,66714c2440363e99e3aed3a3,69b92ab4aef6dee357cd729a,69b92f23db7a2209b8abb841,0.0263,0.0263,1,63,225,57,1,onethree,,,,,,,,,,,,,,,,,,,,,,,,,,,,,,,,,,,,,,,,,,,,,,,,,,,,,,,,,,,,,,,,,,,,,,,,,,,,,,,,,,,,,,,,,,,,,,,,,,,,,,,,,,,,,,,,,,,,,,,,,,,,,,,,,,,,,,,,,
,,66714c2440363e99e3aed3a3,2026-03-17_12h39.16.304,kallum_motion_pilot_GIST_update_2,2026.1.1,Win32,60.24096386,66714c2440363e99e3aed3a3,69b92ab4aef6dee357cd729a,69b92f23db7a2209b8abb841,0.0263,0.0263,1,64,226,17,1,onethree,,,,,,,,,,,,,,,,,,,,,,,,,,,,,,,,,,,,,,,,,,,,,,,,,,,,,,,,,,,,,,,,,,,,,,,,,,,,,,,,,,,,,,,,,,,,,,,,,,,,,,,,,,,,,,,,,,,,,,,,,,,,,,,,,,,,,,,,,
,,66714c2440363e99e3aed3a3,2026-03-17_12h39.16.304,kallum_motion_pilot_GIST_update_2,2026.1.1,Win32,60.24096386,66714c2440363e99e3aed3a3,69b92ab4aef6dee357cd729a,69b92f23db7a2209b8abb841,0.0264,0.0264,1,65,227,150,1,eightsix,,,,,,,,,,,,,,,,,,,,,,,,,,,,,,,,,,,,,,,,,,,,,,,,,,,,,,,,,,,,,,,,,,,,,,,,,,,,,,,,,,,,,,,,,,,,,,,,,,,,,,,,,,,,,,,,,,,,,,,,,,,,,,,,,,,,,,,,,
,,66714c2440363e99e3aed3a3,2026-03-17_12h39.16.304,kallum_motion_pilot_GIST_update_2,2026.1.1,Win32,60.24096386,66714c2440363e99e3aed3a3,69b92ab4aef6dee357cd729a,69b92f23db7a2209b8abb841,0.0265,0.0265,1,66,228,9,1,onethree,,,,,,,,,,,,,,,,,,,,,,,,,,,,,,,,,,,,,,,,,,,,,,,,,,,,,,,,,,,,,,,,,,,,,,,,,,,,,,,,,,,,,,,,,,,,,,,,,,,,,,,,,,,,,,,,,,,,,,,,,,,,,,,,,,,,,,,,,
,,66714c2440363e99e3aed3a3,2026-03-17_12h39.16.304,kallum_motion_pilot_GIST_update_2,2026.1.1,Win32,60.24096386,66714c2440363e99e3aed3a3,69b92ab4aef6dee357cd729a,69b92f23db7a2209b8abb841,0.0266,0.0266,1,67,229,62,1,fourtwo,,,,,,,,,,,,,,,,,,,,,,,,,,,,,,,,,,,,,,,,,,,,,,,,,,,,,,,,,,,,,,,,,,,,,,,,,,,,,,,,,,,,,,,,,,,,,,,,,,,,,,,,,,,,,,,,,,,,,,,,,,,,,,,,,,,,,,,,,
,,66714c2440363e99e3aed3a3,2026-03-17_12h39.16.304,kallum_motion_pilot_GIST_update_2,2026.1.1,Win32,60.24096386,66714c2440363e99e3aed3a3,69b92ab4aef6dee357cd729a,69b92f23db7a2209b8abb841,0.0266,0.0266,1,68,230,106,1,sixfive,,,,,,,,,,,,,,,,,,,,,,,,,,,,,,,,,,,,,,,,,,,,,,,,,,,,,,,,,,,,,,,,,,,,,,,,,,,,,,,,,,,,,,,,,,,,,,,,,,,,,,,,,,,,,,,,,,,,,,,,,,,,,,,,,,,,,,,,,
,,66714c2440363e99e3aed3a3,2026-03-17_12h39.16.304,kallum_motion_pilot_GIST_update_2,2026.1.1,Win32,60.24096386,66714c2440363e99e3aed3a3,69b92ab4aef6dee357cd729a,69b92f23db7a2209b8abb841,0.0266,0.0266,1,69,231,77,1,threefour,,,,,,,,,,,,,,,,,,,,,,,,,,,,,,,,,,,,,,,,,,,,,,,,,,,,,,,,,,,,,,,,,,,,,,,,,,,,,,,,,,,,,,,,,,,,,,,,,,,,,,,,,,,,,,,,,,,,,,,,,,,,,,,,,,,,,,,,,
,,66714c2440363e99e3aed3a3,2026-03-17_12h39.16.304,kallum_motion_pilot_GIST_update_2,2026.1.1,Win32,60.24096386,66714c2440363e99e3aed3a3,69b92ab4aef6dee357cd729a,69b92f23db7a2209b8abb841,0.0266,0.0266,1,70,232,71,1,fourthree,,,,,,,,,,,,,,,,,,,,,,,,,,,,,,,,,,,,,,,,,,,,,,,,,,,,,,,,,,,,,,,,,,,,,,,,,,,,,,,,,,,,,,,,,,,,,,,,,,,,,,,,,,,,,,,,,,,,,,,,,,,,,,,,,,,,,,,,,
,,66714c2440363e99e3aed3a3,2026-03-17_12h39.16.304,kallum_motion_pilot_GIST_update_2,2026.1.1,Win32,60.24096386,66714c2440363e99e3aed3a3,69b92ab4aef6dee357cd729a,69b92f23db7a2209b8abb841,0.0267,0.0267,1,71,233,64,1,onetwo,,,,,,,,,,,,,,,,,,,,,,,,,,,,,,,,,,,,,,,,,,,,,,,,,,,,,,,,,,,,,,,,,,,,,,,,,,,,,,,,,,,,,,,,,,,,,,,,,,,,,,,,,,,,,,,,,,,,,,,,,,,,,,,,,,,,,,,,,
,,66714c2440363e99e3aed3a3,2026-03-17_12h39.16.304,kallum_motion_pilot_GIST_update_2,2026.1.1,Win32,60.24096386,66714c2440363e99e3aed3a3,69b92ab4aef6dee357cd729a,69b92f23db7a2209b8abb841,0.0268,0.0268,1,72,234,128,1,fivesix,,,,,,,,,,,,,,,,,,,,,,,,,,,,,,,,,,,,,,,,,,,,,,,,,,,,,,,,,,,,,,,,,,,,,,,,,,,,,,,,,,,,,,,,,,,,,,,,,,,,,,,,,,,,,,,,,,,,,,,,,,,,,,,,,,,,,,,,,
,,66714c2440363e99e3aed3a3,2026-03-17_12h39.16.304,kallum_motion_pilot_GIST_update_2,2026.1.1,Win32,60.24096386,66714c2440363e99e3aed3a3,69b92ab4aef6dee357cd729a,69b92f23db7a2209b8abb841,0.0269,0.0269,1,73,235,37,1,threefour,,,,,,,,,,,,,,,,,,,,,,,,,,,,,,,,,,,,,,,,,,,,,,,,,,,,,,,,,,,,,,,,,,,,,,,,,,,,,,,,,,,,,,,,,,,,,,,,,,,,,,,,,,,,,,,,,,,,,,,,,,,,,,,,,,,,,,,,,
,,66714c2440363e99e3aed3a3,2026-03-17_12h39.16.304,kallum_motion_pilot_GIST_update_2,2026.1.1,Win32,60.24096386,66714c2440363e99e3aed3a3,69b92ab4aef6dee357cd729a,69b92f23db7a2209b8abb841,0.027,0.027,1,74,236,155,1,sixeight,,,,,,,,,,,,,,,,,,,,,,,,,,,,,,,,,,,,,,,,,,,,,,,,,,,,,,,,,,,,,,,,,,,,,,,,,,,,,,,,,,,,,,,,,,,,,,,,,,,,,,,,,,,,,,,,,,,,,,,,,,,,,,,,,,,,,,,,,
,,66714c2440363e99e3aed3a3,2026-03-17_12h39.16.304,kallum_motion_pilot_GIST_update_2,2026.1.1,Win32,60.24096386,66714c2440363e99e3aed3a3,69b92ab4aef6dee357cd729a,69b92f23db7a2209b8abb841,0.0272,0.0272,1,75,237,45,1,threefour,,,,,,,,,,,,,,,,,,,,,,,,,,,,,,,,,,,,,,,,,,,,,,,,,,,,,,,,,,,,,,,,,,,,,,,,,,,,,,,,,,,,,,,,,,,,,,,,,,,,,,,,,,,,,,,,,,,,,,,,,,,,,,,,,,,,,,,,,
,,66714c2440363e99e3aed3a3,2026-03-17_12h39.16.304,kallum_motion_pilot_GIST_update_2,2026.1.1,Win32,60.24096386,66714c2440363e99e3aed3a3,69b92ab4aef6dee357cd729a,69b92f23db7a2209b8abb841,0.0272,0.0272,1,76,238,81,1,fiveseven,,,,,,,,,,,,,,,,,,,,,,,,,,,,,,,,,,,,,,,,,,,,,,,,,,,,,,,,,,,,,,,,,,,,,,,,,,,,,,,,,,,,,,,,,,,,,,,,,,,,,,,,,,,,,,,,,,,,,,,,,,,,,,,,,,,,,,,,,
,,66714c2440363e99e3aed3a3,2026-03-17_12h39.16.304,kallum_motion_pilot_GIST_update_2,2026.1.1,Win32,60.24096386,66714c2440363e99e3aed3a3,69b92ab4aef6dee357cd729a,69b92f23db7a2209b8abb841,0.0273,0.0273,1,77,239,104,1,fivesix,,,,,,,,,,,,,,,,,,,,,,,,,,,,,,,,,,,,,,,,,,,,,,,,,,,,,,,,,,,,,,,,,,,,,,,,,,,,,,,,,,,,,,,,,,,,,,,,,,,,,,,,,,,,,,,,,,,,,,,,,,,,,,,,,,,,,,,,,
,,66714c2440363e99e3aed3a3,2026-03-17_12h39.16.304,kallum_motion_pilot_GIST_update_2,2026.1.1,Win32,60.24096386,66714c2440363e99e3aed3a3,69b92ab4aef6dee357cd729a,69b92f23db7a2209b8abb841,0.0273,0.0273,1,78,240,93,1,seveneight,,,,,,,,,,,,,,,,,,,,,,,,,,,,,,,,,,,,,,,,,,,,,,,,,,,,,,,,,,,,,,,,,,,,,,,,,,,,,,,,,,,,,,,,,,,,,,,,,,,,,,,,,,,,,,,,,,,,,,,,,,,,,,,,,,,,,,,,,
,,66714c2440363e99e3aed3a3,2026-03-17_12h39.16.304,kallum_motion_pilot_GIST_update_2,2026.1.1,Win32,60.24096386,66714c2440363e99e3aed3a3,69b92ab4aef6dee357cd729a,69b92f23db7a2209b8abb841,0.0275,0.0275,1,79,241,100,1,sevenfive,,,,,,,,,,,,,,,,,,,,,,,,,,,,,,,,,,,,,,,,,,,,,,,,,,,,,,,,,,,,,,,,,,,,,,,,,,,,,,,,,,,,,,,,,,,,,,,,,,,,,,,,,,,,,,,,,,,,,,,,,,,,,,,,,,,,,,,,,
,,66714c2440363e99e3aed3a3,2026-03-17_12h39.16.304,kallum_motion_pilot_GIST_update_2,2026.1.1,Win32,60.24096386,66714c2440363e99e3aed3a3,69b92ab4aef6dee357cd729a,69b92f23db7a2209b8abb841,0.0275,0.0275,1,80,242,142,1,eightsix,,,,,,,,,,,,,,,,,,,,,,,,,,,,,,,,,,,,,,,,,,,,,,,,,,,,,,,,,,,,,,,,,,,,,,,,,,,,,,,,,,,,,,,,,,,,,,,,,,,,,,,,,,,,,,,,,,,,,,,,,,,,,,,,,,,,,,,,,
,,66714c2440363e99e3aed3a3,2026-03-17_12h39.16.304,kallum_motion_pilot_GIST_update_2,2026.1.1,Win32,60.24096386,66714c2440363e99e3aed3a3,69b92ab4aef6dee357cd729a,69b92f23db7a2209b8abb841,0.0276,0.0276,1,81,243,38,1,fourtwo,,,,,,,,,,,,,,,,,,,,,,,,,,,,,,,,,,,,,,,,,,,,,,,,,,,,,,,,,,,,,,,,,,,,,,,,,,,,,,,,,,,,,,,,,,,,,,,,,,,,,,,,,,,,,,,,,,,,,,,,,,,,,,,,,,,,,,,,,
,,66714c2440363e99e3aed3a3,2026-03-17_12h39.16.304,kallum_motion_pilot_GIST_update_2,2026.1.1,Win32,60.24096386,66714c2440363e99e3aed3a3,69b92ab4aef6dee357cd729a,69b92f23db7a2209b8abb841,0.0277,0.0277,1,82,244,22,1,fourtwo,,,,,,,,,,,,,,,,,,,,,,,,,,,,,,,,,,,,,,,,,,,,,,,,,,,,,,,,,,,,,,,,,,,,,,,,,,,,,,,,,,,,,,,,,,,,,,,,,,,,,,,,,,,,,,,,,,,,,,,,,,,,,,,,,,,,,,,,,
,,66714c2440363e99e3aed3a3,2026-03-17_12h39.16.304,kallum_motion_pilot_GIST_update_2,2026.1.1,Win32,60.24096386,66714c2440363e99e3aed3a3,69b92ab4aef6dee357cd729a,69b92f23db7a2209b8abb841,0.0279,0.0279,1,83,245,7,1,fourthree,,,,,,,,,,,,,,,,,,,,,,,,,,,,,,,,,,,,,,,,,,,,,,,,,,,,,,,,,,,,,,,,,,,,,,,,,,,,,,,,,,,,,,,,,,,,,,,,,,,,,,,,,,,,,,,,,,,,,,,,,,,,,,,,,,,,,,,,,
,,66714c2440363e99e3aed3a3,2026-03-17_12h39.16.304,kallum_motion_pilot_GIST_update_2,2026.1.1,Win32,60.24096386,66714c2440363e99e3aed3a3,69b92ab4aef6dee357cd729a,69b92f23db7a2209b8abb841,0.0279,0.0279,1,84,246,102,1,eightsix,,,,,,,,,,,,,,,,,,,,,,,,,,,,,,,,,,,,,,,,,,,,,,,,,,,,,,,,,,,,,,,,,,,,,,,,,,,,,,,,,,,,,,,,,,,,,,,,,,,,,,,,,,,,,,,,,,,,,,,,,,,,,,,,,,,,,,,,,
,,66714c2440363e99e3aed3a3,2026-03-17_12h39.16.304,kallum_motion_pilot_GIST_update_2,2026.1.1,Win32,60.24096386,66714c2440363e99e3aed3a3,69b92ab4aef6dee357cd729a,69b92f23db7a2209b8abb841,0.028,0.028,1,85,247,110,1,eightsix,,,,,,,,,,,,,,,,,,,,,,,,,,,,,,,,,,,,,,,,,,,,,,,,,,,,,,,,,,,,,,,,,,,,,,,,,,,,,,,,,,,,,,,,,,,,,,,,,,,,,,,,,,,,,,,,,,,,,,,,,,,,,,,,,,,,,,,,,
,,66714c2440363e99e3aed3a3,2026-03-17_12h39.16.304,kallum_motion_pilot_GIST_update_2,2026.1.1,Win32,60.24096386,66714c2440363e99e3aed3a3,69b92ab4aef6dee357cd729a,69b92f23db7a2209b8abb841,0.028,0.028,1,86,248,8,1,onetwo,,,,,,,,,,,,,,,,,,,,,,,,,,,,,,,,,,,,,,,,,,,,,,,,,,,,,,,,,,,,,,,,,,,,,,,,,,,,,,,,,,,,,,,,,,,,,,,,,,,,,,,,,,,,,,,,,,,,,,,,,,,,,,,,,,,,,,,,,
,,66714c2440363e99e3aed3a3,2026-03-17_12h39.16.304,kallum_motion_pilot_GIST_update_2,2026.1.1,Win32,60.24096386,66714c2440363e99e3aed3a3,69b92ab4aef6dee357cd729a,69b92f23db7a2209b8abb841,0.0281,0.0281,1,87,249,139,1,sixeight,,,,,,,,,,,,,,,,,,,,,,,,,,,,,,,,,,,,,,,,,,,,,,,,,,,,,,,,,,,,,,,,,,,,,,,,,,,,,,,,,,,,,,,,,,,,,,,,,,,,,,,,,,,,,,,,,,,,,,,,,,,,,,,,,,,,,,,,,
,,66714c2440363e99e3aed3a3,2026-03-17_12h39.16.304,kallum_motion_pilot_GIST_update_2,2026.1.1,Win32,60.24096386,66714c2440363e99e3aed3a3,69b92ab4aef6dee357cd729a,69b92f23db7a2209b8abb841,0.0281,0.0281,1,88,250,24,1,onetwo,,,,,,,,,,,,,,,,,,,,,,,,,,,,,,,,,,,,,,,,,,,,,,,,,,,,,,,,,,,,,,,,,,,,,,,,,,,,,,,,,,,,,,,,,,,,,,,,,,,,,,,,,,,,,,,,,,,,,,,,,,,,,,,,,,,,,,,,,
,,66714c2440363e99e3aed3a3,2026-03-17_12h39.16.304,kallum_motion_pilot_GIST_update_2,2026.1.1,Win32,60.24096386,66714c2440363e99e3aed3a3,69b92ab4aef6dee357cd729a,69b92f23db7a2209b8abb841,0.0282,0.0282,1,89,251,82,1,sixfive,,,,,,,,,,,,,,,,,,,,,,,,,,,,,,,,,,,,,,,,,,,,,,,,,,,,,,,,,,,,,,,,,,,,,,,,,,,,,,,,,,,,,,,,,,,,,,,,,,,,,,,,,,,,,,,,,,,,,,,,,,,,,,,,,,,,,,,,,
,,66714c2440363e99e3aed3a3,2026-03-17_12h39.16.304,kallum_motion_pilot_GIST_update_2,2026.1.1,Win32,60.24096386,66714c2440363e99e3aed3a3,69b92ab4aef6dee357cd729a,69b92f23db7a2209b8abb841,0.0282,0.0282,1,90,252,1,1,onethree,,,,,,,,,,,,,,,,,,,,,,,,,,,,,,,,,,,,,,,,,,,,,,,,,,,,,,,,,,,,,,,,,,,,,,,,,,,,,,,,,,,,,,,,,,,,,,,,,,,,,,,,,,,,,,,,,,,,,,,,,,,,,,,,,,,,,,,,,
,,66714c2440363e99e3aed3a3,2026-03-17_12h39.16.304,kallum_motion_pilot_GIST_update_2,2026.1.1,Win32,60.24096386,66714c2440363e99e3aed3a3,69b92ab4aef6dee357cd729a,69b92f23db7a2209b8abb841,0.0283,0.0283,1,91,253,108,1,sevenfive,,,,,,,,,,,,,,,,,,,,,,,,,,,,,,,,,,,,,,,,,,,,,,,,,,,,,,,,,,,,,,,,,,,,,,,,,,,,,,,,,,,,,,,,,,,,,,,,,,,,,,,,,,,,,,,,,,,,,,,,,,,,,,,,,,,,,,,,,
,,66714c2440363e99e3aed3a3,2026-03-17_12h39.16.304,kallum_motion_pilot_GIST_update_2,2026.1.1,Win32,60.24096386,66714c2440363e99e3aed3a3,69b92ab4aef6dee357cd729a,69b92f23db7a2209b8abb841,0.0284,0.0284,1,92,254,156,1,sevenfive,,,,,,,,,,,,,,,,,,,,,,,,,,,,,,,,,,,,,,,,,,,,,,,,,,,,,,,,,,,,,,,,,,,,,,,,,,,,,,,,,,,,,,,,,,,,,,,,,,,,,,,,,,,,,,,,,,,,,,,,,,,,,,,,,,,,,,,,,
,,66714c2440363e99e3aed3a3,2026-03-17_12h39.16.304,kallum_motion_pilot_GIST_update_2,2026.1.1,Win32,60.24096386,66714c2440363e99e3aed3a3,69b92ab4aef6dee357cd729a,69b92f23db7a2209b8abb841,0.0285,0.0285,1,93,255,70,1,fourtwo,,,,,,,,,,,,,,,,,,,,,,,,,,,,,,,,,,,,,,,,,,,,,,,,,,,,,,,,,,,,,,,,,,,,,,,,,,,,,,,,,,,,,,,,,,,,,,,,,,,,,,,,,,,,,,,,,,,,,,,,,,,,,,,,,,,,,,,,,
,,66714c2440363e99e3aed3a3,2026-03-17_12h39.16.304,kallum_motion_pilot_GIST_update_2,2026.1.1,Win32,60.24096386,66714c2440363e99e3aed3a3,69b92ab4aef6dee357cd729a,69b92f23db7a2209b8abb841,0.0285,0.0285,1,94,256,21,1,threefour,,,,,,,,,,,,,,,,,,,,,,,,,,,,,,,,,,,,,,,,,,,,,,,,,,,,,,,,,,,,,,,,,,,,,,,,,,,,,,,,,,,,,,,,,,,,,,,,,,,,,,,,,,,,,,,,,,,,,,,,,,,,,,,,,,,,,,,,,
,,66714c2440363e99e3aed3a3,2026-03-17_12h39.16.304,kallum_motion_pilot_GIST_update_2,2026.1.1,Win32,60.24096386,66714c2440363e99e3aed3a3,69b92ab4aef6dee357cd729a,69b92f23db7a2209b8abb841,0.0286,0.0286,1,95,257,113,1,fiveseven,,,,,,,,,,,,,,,,,,,,,,,,,,,,,,,,,,,,,,,,,,,,,,,,,,,,,,,,,,,,,,,,,,,,,,,,,,,,,,,,,,,,,,,,,,,,,,,,,,,,,,,,,,,,,,,,,,,,,,,,,,,,,,,,,,,,,,,,,
,,66714c2440363e99e3aed3a3,2026-03-17_12h39.16.304,kallum_motion_pilot_GIST_update_2,2026.1.1,Win32,60.24096386,66714c2440363e99e3aed3a3,69b92ab4aef6dee357cd729a,69b92f23db7a2209b8abb841,0.0286,0.0286,1,96,258,135,1,eightseven,,,,,,,,,,,,,,,,,,,,,,,,,,,,,,,,,,,,,,,,,,,,,,,,,,,,,,,,,,,,,,,,,,,,,,,,,,,,,,,,,,,,,,,,,,,,,,,,,,,,,,,,,,,,,,,,,,,,,,,,,,,,,,,,,,,,,,,,,
,,66714c2440363e99e3aed3a3,2026-03-17_12h39.16.304,kallum_motion_pilot_GIST_update_2,2026.1.1,Win32,60.24096386,66714c2440363e99e3aed3a3,69b92ab4aef6dee357cd729a,69b92f23db7a2209b8abb841,0.0288,0.0288,1,97,259,116,1,sevenfive,,,,,,,,,,,,,,,,,,,,,,,,,,,,,,,,,,,,,,,,,,,,,,,,,,,,,,,,,,,,,,,,,,,,,,,,,,,,,,,,,,,,,,,,,,,,,,,,,,,,,,,,,,,,,,,,,,,,,,,,,,,,,,,,,,,,,,,,,
,,66714c2440363e99e3aed3a3,2026-03-17_12h39.16.304,kallum_motion_pilot_GIST_update_2,2026.1.1,Win32,60.24096386,66714c2440363e99e3aed3a3,69b92ab4aef6dee357cd729a,69b92f23db7a2209b8abb841,0.0289,0.029,1,98,260,92,1,sevenfive,,,,,,,,,,,,,,,,,,,,,,,,,,,,,,,,,,,,,,,,,,,,,,,,,,,,,,,,,,,,,,,,,,,,,,,,,,,,,,,,,,,,,,,,,,,,,,,,,,,,,,,,,,,,,,,,,,,,,,,,,,,,,,,,,,,,,,,,,
,,66714c2440363e99e3aed3a3,2026-03-17_12h39.16.304,kallum_motion_pilot_GIST_update_2,2026.1.1,Win32,60.24096386,66714c2440363e99e3aed3a3,69b92ab4aef6dee357cd729a,69b92f23db7a2209b8abb841,0.029,0.029,1,99,261,115,1,sixeight,,,,,,,,,,,,,,,,,,,,,,,,,,,,,,,,,,,,,,,,,,,,,,,,,,,,,,,,,,,,,,,,,,,,,,,,,,,,,,,,,,,,,,,,,,,,,,,,,,,,,,,,,,,,,,,,,,,,,,,,,,,,,,,,,,,,,,,,,
,,66714c2440363e99e3aed3a3,2026-03-17_12h39.16.304,kallum_motion_pilot_GIST_update_2,2026.1.1,Win32,60.24096386,66714c2440363e99e3aed3a3,69b92ab4aef6dee357cd729a,69b92f23db7a2209b8abb841,0.0291,0.0291,1,100,262,26,1,twoone,,,,,,,,,,,,,,,,,,,,,,,,,,,,,,,,,,,,,,,,,,,,,,,,,,,,,,,,,,,,,,,,,,,,,,,,,,,,,,,,,,,,,,,,,,,,,,,,,,,,,,,,,,,,,,,,,,,,,,,,,,,,,,,,,,,,,,,,,
,,66714c2440363e99e3aed3a3,2026-03-17_12h39.16.304,kallum_motion_pilot_GIST_update_2,2026.1.1,Win32,60.24096386,66714c2440363e99e3aed3a3,69b92ab4aef6dee357cd729a,69b92f23db7a2209b8abb841,0.0292,0.0292,1,101,263,157,1,seveneight,,,,,,,,,,,,,,,,,,,,,,,,,,,,,,,,,,,,,,,,,,,,,,,,,,,,,,,,,,,,,,,,,,,,,,,,,,,,,,,,,,,,,,,,,,,,,,,,,,,,,,,,,,,,,,,,,,,,,,,,,,,,,,,,,,,,,,,,,
,,66714c2440363e99e3aed3a3,2026-03-17_12h39.16.304,kallum_motion_pilot_GIST_update_2,2026.1.1,Win32,60.24096386,66714c2440363e99e3aed3a3,69b92ab4aef6dee357cd729a,69b92f23db7a2209b8abb841,0.0293,0.0293,1,102,264,11,1,twofour,,,,,,,,,,,,,,,,,,,,,,,,,,,,,,,,,,,,,,,,,,,,,,,,,,,,,,,,,,,,,,,,,,,,,,,,,,,,,,,,,,,,,,,,,,,,,,,,,,,,,,,,,,,,,,,,,,,,,,,,,,,,,,,,,,,,,,,,,
,,66714c2440363e99e3aed3a3,2026-03-17_12h39.16.304,kallum_motion_pilot_GIST_update_2,2026.1.1,Win32,60.24096386,66714c2440363e99e3aed3a3,69b92ab4aef6dee357cd729a,69b92f23db7a2209b8abb841,0.0294,0.0294,1,103,265,89,1,fiveseven,,,,,,,,,,,,,,,,,,,,,,,,,,,,,,,,,,,,,,,,,,,,,,,,,,,,,,,,,,,,,,,,,,,,,,,,,,,,,,,,,,,,,,,,,,,,,,,,,,,,,,,,,,,,,,,,,,,,,,,,,,,,,,,,,,,,,,,,,
,,66714c2440363e99e3aed3a3,2026-03-17_12h39.16.304,kallum_motion_pilot_GIST_update_2,2026.1.1,Win32,60.24096386,66714c2440363e99e3aed3a3,69b92ab4aef6dee357cd729a,69b92f23db7a2209b8abb841,0.0295,0.0295,1,104,266,39,1,fourthree,,,,,,,,,,,,,,,,,,,,,,,,,,,,,,,,,,,,,,,,,,,,,,,,,,,,,,,,,,,,,,,,,,,,,,,,,,,,,,,,,,,,,,,,,,,,,,,,,,,,,,,,,,,,,,,,,,,,,,,,,,,,,,,,,,,,,,,,,
