startup.started,startup.stopped,Prolific ID*,date,expName,psychopyVersion,OS,frameRate,participant,study_id,session,stimpositions.started,stimpositions.stopped,hardcoded_stimulus_positions.thisRepN,hardcoded_stimulus_positions.thisTrialN,hardcoded_stimulus_positions.thisN,hardcoded_stimulus_positions.thisIndex,hardcoded_stimulus_positions.ran,StimulusPos,stimorientation.started,stimorientation.stopped,prac_stimorientation_import_loop.thisRepN,prac_stimorientation_import_loop.thisTrialN,prac_stimorientation_import_loop.thisN,prac_stimorientation_import_loop.thisIndex,prac_stimorientation_import_loop.ran,Stimorientation,welcome_instr.started,welcome_instr.stopped,key_resp.keys,key_resp.rt,key_resp.duration,response_steppedout_1.started,response_steppedout_1.stopped,key_resp_20.keys,key_resp_20.rt,key_resp_20.duration,response_steppedout_2.started,response_steppedout_2.stopped,key_resp_19.keys,key_resp_19.rt,key_resp_19.duration,stim_response_instr.started,stim_response_instr.stopped,key_resp_15.keys,key_resp_15.rt,key_resp_15.duration,direction_instr_2.started,direction_instr_2.stopped,key_resp_9.keys,key_resp_9.rt,key_resp_9.duration,instr_prac.started,instr_prac.stopped,key_resp_10.keys,key_resp_10.rt,key_resp_10.duration,Stim1_display_prac.started,Stim1_display_prac.stopped,Ecc,Circle1_ori,Circle2_ori,response_prac.started,similarity,response_time,response_prac.stopped,mouse_5.x,mouse_5.y,mouse_5.leftButton,mouse_5.midButton,mouse_5.rightButton,mouse_5.clicked_name,responseprac_feedback.started,responseprac_feedback.stopped,summary2_prac.started,summary2_prac.stopped,mouse_6.x,mouse_6.y,mouse_6.leftButton,mouse_6.midButton,mouse_6.rightButton,mouse_6.clicked_name,duringprac.thisRepN,duringprac.thisTrialN,duringprac.thisN,duringprac.thisIndex,duringprac.ran,begin.started,begin.stopped,key_resp_22.keys,key_resp_22.rt,key_resp_22.duration,Stim1_display.started,Stim1_display.stopped,circle1_ori,circle2_ori,circle1_SF,circle2_SF,response.started,response.stopped,mouse.x,mouse.y,mouse.leftButton,mouse.midButton,mouse.rightButton,mouse.clicked_name,trialnumber,double_pass.thisRepN,double_pass.thisTrialN,double_pass.thisN,double_pass.thisIndex,double_pass.ran,double_pass.order,main_trial.thisRepN,main_trial.thisTrialN,main_trial.thisN,main_trial.thisIndex,main_trial.ran,main_trial.order,Trial_Counter,Catch,Frequencies,response_2.started,response_2.stopped,mouse_2.x,mouse_2.y,mouse_2.leftButton,mouse_2.midButton,mouse_2.rightButton,mouse_2.clicked_name,special_trial.started,special_trial.stopped,catch_1.started,catch_1.stopped,mouse_3.x,mouse_3.y,mouse_3.leftButton,mouse_3.midButton,mouse_3.rightButton,catchresponse,catchnumber,response_time_catch,response_sum.started,response_sum.stopped,mouse_11.x,mouse_11.y,mouse_11.leftButton,mouse_11.midButton,mouse_11.rightButton,flip_presentation_sequence_for_double_pass.started,flip_presentation_sequence_for_double_pass.stopped,goodbye.started,goodbye.stopped,key_resp_3.keys,key_resp_3.rt,key_resp_3.duration
0.0005,0.0006,667ebb747b43b02dbbd26d47,2026-03-17_16h07.28.798,kallum_motion_pilot_GIST_update_2,2026.1.1,Win32,30.03003003,667ebb747b43b02dbbd26d47,69b95efdef24cd8a694e89ee,69b9600266ec37dd7a36d1f3,,,,,,,,,,,,,,,,,,,,,,,,,,,,,,,,,,,,,,,,,,,,,,,,,,,,,,,,,,,,,,,,,,,,,,,,,,,,,,,,,,,,,,,,,,,,,,,,,,,,,,,,,,,,,,,,,,,,,,,,,,,,,,,,,,,,,,,,,,,,,,,,,
,,667ebb747b43b02dbbd26d47,2026-03-17_16h07.28.798,kallum_motion_pilot_GIST_update_2,2026.1.1,Win32,30.03003003,667ebb747b43b02dbbd26d47,69b95efdef24cd8a694e89ee,69b9600266ec37dd7a36d1f3,0.0414,0.0416,0,0,0,86,1,eightsix,,,,,,,,,,,,,,,,,,,,,,,,,,,,,,,,,,,,,,,,,,,,,,,,,,,,,,,,,,,,,,,,,,,,,,,,,,,,,,,,,,,,,,,,,,,,,,,,,,,,,,,,,,,,,,,,,,,,,,,,,,,,,,,,,,,,,,,,,
,,667ebb747b43b02dbbd26d47,2026-03-17_16h07.28.798,kallum_motion_pilot_GIST_update_2,2026.1.1,Win32,30.03003003,667ebb747b43b02dbbd26d47,69b95efdef24cd8a694e89ee,69b9600266ec37dd7a36d1f3,0.0423,0.0423,0,1,1,58,1,twoone,,,,,,,,,,,,,,,,,,,,,,,,,,,,,,,,,,,,,,,,,,,,,,,,,,,,,,,,,,,,,,,,,,,,,,,,,,,,,,,,,,,,,,,,,,,,,,,,,,,,,,,,,,,,,,,,,,,,,,,,,,,,,,,,,,,,,,,,,
,,667ebb747b43b02dbbd26d47,2026-03-17_16h07.28.798,kallum_motion_pilot_GIST_update_2,2026.1.1,Win32,30.03003003,667ebb747b43b02dbbd26d47,69b95efdef24cd8a694e89ee,69b9600266ec37dd7a36d1f3,0.0426,0.0426,0,2,2,18,1,twoone,,,,,,,,,,,,,,,,,,,,,,,,,,,,,,,,,,,,,,,,,,,,,,,,,,,,,,,,,,,,,,,,,,,,,,,,,,,,,,,,,,,,,,,,,,,,,,,,,,,,,,,,,,,,,,,,,,,,,,,,,,,,,,,,,,,,,,,,,
,,667ebb747b43b02dbbd26d47,2026-03-17_16h07.28.798,kallum_motion_pilot_GIST_update_2,2026.1.1,Win32,30.03003003,667ebb747b43b02dbbd26d47,69b95efdef24cd8a694e89ee,69b9600266ec37dd7a36d1f3,0.0428,0.0429,0,3,3,121,1,fiveseven,,,,,,,,,,,,,,,,,,,,,,,,,,,,,,,,,,,,,,,,,,,,,,,,,,,,,,,,,,,,,,,,,,,,,,,,,,,,,,,,,,,,,,,,,,,,,,,,,,,,,,,,,,,,,,,,,,,,,,,,,,,,,,,,,,,,,,,,,
,,667ebb747b43b02dbbd26d47,2026-03-17_16h07.28.798,kallum_motion_pilot_GIST_update_2,2026.1.1,Win32,30.03003003,667ebb747b43b02dbbd26d47,69b95efdef24cd8a694e89ee,69b9600266ec37dd7a36d1f3,0.0432,0.0432,0,4,4,4,1,threeone,,,,,,,,,,,,,,,,,,,,,,,,,,,,,,,,,,,,,,,,,,,,,,,,,,,,,,,,,,,,,,,,,,,,,,,,,,,,,,,,,,,,,,,,,,,,,,,,,,,,,,,,,,,,,,,,,,,,,,,,,,,,,,,,,,,,,,,,,
,,667ebb747b43b02dbbd26d47,2026-03-17_16h07.28.798,kallum_motion_pilot_GIST_update_2,2026.1.1,Win32,30.03003003,667ebb747b43b02dbbd26d47,69b95efdef24cd8a694e89ee,69b9600266ec37dd7a36d1f3,0.0435,0.0435,0,5,5,13,1,threefour,,,,,,,,,,,,,,,,,,,,,,,,,,,,,,,,,,,,,,,,,,,,,,,,,,,,,,,,,,,,,,,,,,,,,,,,,,,,,,,,,,,,,,,,,,,,,,,,,,,,,,,,,,,,,,,,,,,,,,,,,,,,,,,,,,,,,,,,,
,,667ebb747b43b02dbbd26d47,2026-03-17_16h07.28.798,kallum_motion_pilot_GIST_update_2,2026.1.1,Win32,30.03003003,667ebb747b43b02dbbd26d47,69b95efdef24cd8a694e89ee,69b9600266ec37dd7a36d1f3,0.0438,0.0438,0,6,6,11,1,twofour,,,,,,,,,,,,,,,,,,,,,,,,,,,,,,,,,,,,,,,,,,,,,,,,,,,,,,,,,,,,,,,,,,,,,,,,,,,,,,,,,,,,,,,,,,,,,,,,,,,,,,,,,,,,,,,,,,,,,,,,,,,,,,,,,,,,,,,,,
,,667ebb747b43b02dbbd26d47,2026-03-17_16h07.28.798,kallum_motion_pilot_GIST_update_2,2026.1.1,Win32,30.03003003,667ebb747b43b02dbbd26d47,69b95efdef24cd8a694e89ee,69b9600266ec37dd7a36d1f3,0.044,0.0441,0,7,7,83,1,sixeight,,,,,,,,,,,,,,,,,,,,,,,,,,,,,,,,,,,,,,,,,,,,,,,,,,,,,,,,,,,,,,,,,,,,,,,,,,,,,,,,,,,,,,,,,,,,,,,,,,,,,,,,,,,,,,,,,,,,,,,,,,,,,,,,,,,,,,,,,
,,667ebb747b43b02dbbd26d47,2026-03-17_16h07.28.798,kallum_motion_pilot_GIST_update_2,2026.1.1,Win32,30.03003003,667ebb747b43b02dbbd26d47,69b95efdef24cd8a694e89ee,69b9600266ec37dd7a36d1f3,0.0443,0.0444,0,8,8,132,1,sevenfive,,,,,,,,,,,,,,,,,,,,,,,,,,,,,,,,,,,,,,,,,,,,,,,,,,,,,,,,,,,,,,,,,,,,,,,,,,,,,,,,,,,,,,,,,,,,,,,,,,,,,,,,,,,,,,,,,,,,,,,,,,,,,,,,,,,,,,,,,
,,667ebb747b43b02dbbd26d47,2026-03-17_16h07.28.798,kallum_motion_pilot_GIST_update_2,2026.1.1,Win32,30.03003003,667ebb747b43b02dbbd26d47,69b95efdef24cd8a694e89ee,69b9600266ec37dd7a36d1f3,0.0447,0.0448,0,9,9,133,1,seveneight,,,,,,,,,,,,,,,,,,,,,,,,,,,,,,,,,,,,,,,,,,,,,,,,,,,,,,,,,,,,,,,,,,,,,,,,,,,,,,,,,,,,,,,,,,,,,,,,,,,,,,,,,,,,,,,,,,,,,,,,,,,,,,,,,,,,,,,,,
,,667ebb747b43b02dbbd26d47,2026-03-17_16h07.28.798,kallum_motion_pilot_GIST_update_2,2026.1.1,Win32,30.03003003,667ebb747b43b02dbbd26d47,69b95efdef24cd8a694e89ee,69b9600266ec37dd7a36d1f3,0.045,0.045,0,10,10,59,1,twofour,,,,,,,,,,,,,,,,,,,,,,,,,,,,,,,,,,,,,,,,,,,,,,,,,,,,,,,,,,,,,,,,,,,,,,,,,,,,,,,,,,,,,,,,,,,,,,,,,,,,,,,,,,,,,,,,,,,,,,,,,,,,,,,,,,,,,,,,,
,,667ebb747b43b02dbbd26d47,2026-03-17_16h07.28.798,kallum_motion_pilot_GIST_update_2,2026.1.1,Win32,30.03003003,667ebb747b43b02dbbd26d47,69b95efdef24cd8a694e89ee,69b9600266ec37dd7a36d1f3,0.0453,0.0453,0,11,11,87,1,eightseven,,,,,,,,,,,,,,,,,,,,,,,,,,,,,,,,,,,,,,,,,,,,,,,,,,,,,,,,,,,,,,,,,,,,,,,,,,,,,,,,,,,,,,,,,,,,,,,,,,,,,,,,,,,,,,,,,,,,,,,,,,,,,,,,,,,,,,,,,
,,667ebb747b43b02dbbd26d47,2026-03-17_16h07.28.798,kallum_motion_pilot_GIST_update_2,2026.1.1,Win32,30.03003003,667ebb747b43b02dbbd26d47,69b95efdef24cd8a694e89ee,69b9600266ec37dd7a36d1f3,0.0456,0.0457,0,12,12,114,1,sixfive,,,,,,,,,,,,,,,,,,,,,,,,,,,,,,,,,,,,,,,,,,,,,,,,,,,,,,,,,,,,,,,,,,,,,,,,,,,,,,,,,,,,,,,,,,,,,,,,,,,,,,,,,,,,,,,,,,,,,,,,,,,,,,,,,,,,,,,,,
,,667ebb747b43b02dbbd26d47,2026-03-17_16h07.28.798,kallum_motion_pilot_GIST_update_2,2026.1.1,Win32,30.03003003,667ebb747b43b02dbbd26d47,69b95efdef24cd8a694e89ee,69b9600266ec37dd7a36d1f3,0.0458,0.0458,0,13,13,31,1,fourthree,,,,,,,,,,,,,,,,,,,,,,,,,,,,,,,,,,,,,,,,,,,,,,,,,,,,,,,,,,,,,,,,,,,,,,,,,,,,,,,,,,,,,,,,,,,,,,,,,,,,,,,,,,,,,,,,,,,,,,,,,,,,,,,,,,,,,,,,,
,,667ebb747b43b02dbbd26d47,2026-03-17_16h07.28.798,kallum_motion_pilot_GIST_update_2,2026.1.1,Win32,30.03003003,667ebb747b43b02dbbd26d47,69b95efdef24cd8a694e89ee,69b9600266ec37dd7a36d1f3,0.0461,0.0461,0,14,14,151,1,eightseven,,,,,,,,,,,,,,,,,,,,,,,,,,,,,,,,,,,,,,,,,,,,,,,,,,,,,,,,,,,,,,,,,,,,,,,,,,,,,,,,,,,,,,,,,,,,,,,,,,,,,,,,,,,,,,,,,,,,,,,,,,,,,,,,,,,,,,,,,
,,667ebb747b43b02dbbd26d47,2026-03-17_16h07.28.798,kallum_motion_pilot_GIST_update_2,2026.1.1,Win32,30.03003003,667ebb747b43b02dbbd26d47,69b95efdef24cd8a694e89ee,69b9600266ec37dd7a36d1f3,0.0464,0.0464,0,15,15,68,1,threeone,,,,,,,,,,,,,,,,,,,,,,,,,,,,,,,,,,,,,,,,,,,,,,,,,,,,,,,,,,,,,,,,,,,,,,,,,,,,,,,,,,,,,,,,,,,,,,,,,,,,,,,,,,,,,,,,,,,,,,,,,,,,,,,,,,,,,,,,,
,,667ebb747b43b02dbbd26d47,2026-03-17_16h07.28.798,kallum_motion_pilot_GIST_update_2,2026.1.1,Win32,30.03003003,667ebb747b43b02dbbd26d47,69b95efdef24cd8a694e89ee,69b9600266ec37dd7a36d1f3,0.0467,0.0467,0,16,16,32,1,onetwo,,,,,,,,,,,,,,,,,,,,,,,,,,,,,,,,,,,,,,,,,,,,,,,,,,,,,,,,,,,,,,,,,,,,,,,,,,,,,,,,,,,,,,,,,,,,,,,,,,,,,,,,,,,,,,,,,,,,,,,,,,,,,,,,,,,,,,,,,
,,667ebb747b43b02dbbd26d47,2026-03-17_16h07.28.798,kallum_motion_pilot_GIST_update_2,2026.1.1,Win32,30.03003003,667ebb747b43b02dbbd26d47,69b95efdef24cd8a694e89ee,69b9600266ec37dd7a36d1f3,0.0469,0.0469,0,17,17,149,1,seveneight,,,,,,,,,,,,,,,,,,,,,,,,,,,,,,,,,,,,,,,,,,,,,,,,,,,,,,,,,,,,,,,,,,,,,,,,,,,,,,,,,,,,,,,,,,,,,,,,,,,,,,,,,,,,,,,,,,,,,,,,,,,,,,,,,,,,,,,,,
,,667ebb747b43b02dbbd26d47,2026-03-17_16h07.28.798,kallum_motion_pilot_GIST_update_2,2026.1.1,Win32,30.03003003,667ebb747b43b02dbbd26d47,69b95efdef24cd8a694e89ee,69b9600266ec37dd7a36d1f3,0.0472,0.0472,0,18,18,95,1,eightseven,,,,,,,,,,,,,,,,,,,,,,,,,,,,,,,,,,,,,,,,,,,,,,,,,,,,,,,,,,,,,,,,,,,,,,,,,,,,,,,,,,,,,,,,,,,,,,,,,,,,,,,,,,,,,,,,,,,,,,,,,,,,,,,,,,,,,,,,,
,,667ebb747b43b02dbbd26d47,2026-03-17_16h07.28.798,kallum_motion_pilot_GIST_update_2,2026.1.1,Win32,30.03003003,667ebb747b43b02dbbd26d47,69b95efdef24cd8a694e89ee,69b9600266ec37dd7a36d1f3,0.0475,0.0475,0,19,19,2,1,twoone,,,,,,,,,,,,,,,,,,,,,,,,,,,,,,,,,,,,,,,,,,,,,,,,,,,,,,,,,,,,,,,,,,,,,,,,,,,,,,,,,,,,,,,,,,,,,,,,,,,,,,,,,,,,,,,,,,,,,,,,,,,,,,,,,,,,,,,,,
,,667ebb747b43b02dbbd26d47,2026-03-17_16h07.28.798,kallum_motion_pilot_GIST_update_2,2026.1.1,Win32,30.03003003,667ebb747b43b02dbbd26d47,69b95efdef24cd8a694e89ee,69b9600266ec37dd7a36d1f3,0.0477,0.0478,0,20,20,98,1,sixfive,,,,,,,,,,,,,,,,,,,,,,,,,,,,,,,,,,,,,,,,,,,,,,,,,,,,,,,,,,,,,,,,,,,,,,,,,,,,,,,,,,,,,,,,,,,,,,,,,,,,,,,,,,,,,,,,,,,,,,,,,,,,,,,,,,,,,,,,,
,,667ebb747b43b02dbbd26d47,2026-03-17_16h07.28.798,kallum_motion_pilot_GIST_update_2,2026.1.1,Win32,30.03003003,667ebb747b43b02dbbd26d47,69b95efdef24cd8a694e89ee,69b9600266ec37dd7a36d1f3,0.048,0.048,0,21,21,16,1,onetwo,,,,,,,,,,,,,,,,,,,,,,,,,,,,,,,,,,,,,,,,,,,,,,,,,,,,,,,,,,,,,,,,,,,,,,,,,,,,,,,,,,,,,,,,,,,,,,,,,,,,,,,,,,,,,,,,,,,,,,,,,,,,,,,,,,,,,,,,,
,,667ebb747b43b02dbbd26d47,2026-03-17_16h07.28.798,kallum_motion_pilot_GIST_update_2,2026.1.1,Win32,30.03003003,667ebb747b43b02dbbd26d47,69b95efdef24cd8a694e89ee,69b9600266ec37dd7a36d1f3,0.0483,0.0483,0,22,22,100,1,sevenfive,,,,,,,,,,,,,,,,,,,,,,,,,,,,,,,,,,,,,,,,,,,,,,,,,,,,,,,,,,,,,,,,,,,,,,,,,,,,,,,,,,,,,,,,,,,,,,,,,,,,,,,,,,,,,,,,,,,,,,,,,,,,,,,,,,,,,,,,,
,,667ebb747b43b02dbbd26d47,2026-03-17_16h07.28.798,kallum_motion_pilot_GIST_update_2,2026.1.1,Win32,30.03003003,667ebb747b43b02dbbd26d47,69b95efdef24cd8a694e89ee,69b9600266ec37dd7a36d1f3,0.0486,0.0486,0,23,23,128,1,fivesix,,,,,,,,,,,,,,,,,,,,,,,,,,,,,,,,,,,,,,,,,,,,,,,,,,,,,,,,,,,,,,,,,,,,,,,,,,,,,,,,,,,,,,,,,,,,,,,,,,,,,,,,,,,,,,,,,,,,,,,,,,,,,,,,,,,,,,,,,
,,667ebb747b43b02dbbd26d47,2026-03-17_16h07.28.798,kallum_motion_pilot_GIST_update_2,2026.1.1,Win32,30.03003003,667ebb747b43b02dbbd26d47,69b95efdef24cd8a694e89ee,69b9600266ec37dd7a36d1f3,0.0489,0.0489,0,24,24,52,1,threeone,,,,,,,,,,,,,,,,,,,,,,,,,,,,,,,,,,,,,,,,,,,,,,,,,,,,,,,,,,,,,,,,,,,,,,,,,,,,,,,,,,,,,,,,,,,,,,,,,,,,,,,,,,,,,,,,,,,,,,,,,,,,,,,,,,,,,,,,,
,,667ebb747b43b02dbbd26d47,2026-03-17_16h07.28.798,kallum_motion_pilot_GIST_update_2,2026.1.1,Win32,30.03003003,667ebb747b43b02dbbd26d47,69b95efdef24cd8a694e89ee,69b9600266ec37dd7a36d1f3,0.0491,0.0491,0,25,25,64,1,onetwo,,,,,,,,,,,,,,,,,,,,,,,,,,,,,,,,,,,,,,,,,,,,,,,,,,,,,,,,,,,,,,,,,,,,,,,,,,,,,,,,,,,,,,,,,,,,,,,,,,,,,,,,,,,,,,,,,,,,,,,,,,,,,,,,,,,,,,,,,
,,667ebb747b43b02dbbd26d47,2026-03-17_16h07.28.798,kallum_motion_pilot_GIST_update_2,2026.1.1,Win32,30.03003003,667ebb747b43b02dbbd26d47,69b95efdef24cd8a694e89ee,69b9600266ec37dd7a36d1f3,0.0494,0.0494,0,26,26,119,1,eightseven,,,,,,,,,,,,,,,,,,,,,,,,,,,,,,,,,,,,,,,,,,,,,,,,,,,,,,,,,,,,,,,,,,,,,,,,,,,,,,,,,,,,,,,,,,,,,,,,,,,,,,,,,,,,,,,,,,,,,,,,,,,,,,,,,,,,,,,,,
,,667ebb747b43b02dbbd26d47,2026-03-17_16h07.28.798,kallum_motion_pilot_GIST_update_2,2026.1.1,Win32,30.03003003,667ebb747b43b02dbbd26d47,69b95efdef24cd8a694e89ee,69b9600266ec37dd7a36d1f3,0.0497,0.0497,0,27,27,141,1,seveneight,,,,,,,,,,,,,,,,,,,,,,,,,,,,,,,,,,,,,,,,,,,,,,,,,,,,,,,,,,,,,,,,,,,,,,,,,,,,,,,,,,,,,,,,,,,,,,,,,,,,,,,,,,,,,,,,,,,,,,,,,,,,,,,,,,,,,,,,,
,,667ebb747b43b02dbbd26d47,2026-03-17_16h07.28.798,kallum_motion_pilot_GIST_update_2,2026.1.1,Win32,30.03003003,667ebb747b43b02dbbd26d47,69b95efdef24cd8a694e89ee,69b9600266ec37dd7a36d1f3,0.05,0.05,0,28,28,130,1,sixfive,,,,,,,,,,,,,,,,,,,,,,,,,,,,,,,,,,,,,,,,,,,,,,,,,,,,,,,,,,,,,,,,,,,,,,,,,,,,,,,,,,,,,,,,,,,,,,,,,,,,,,,,,,,,,,,,,,,,,,,,,,,,,,,,,,,,,,,,,
,,667ebb747b43b02dbbd26d47,2026-03-17_16h07.28.798,kallum_motion_pilot_GIST_update_2,2026.1.1,Win32,30.03003003,667ebb747b43b02dbbd26d47,69b95efdef24cd8a694e89ee,69b9600266ec37dd7a36d1f3,0.0504,0.0504,0,29,29,82,1,sixfive,,,,,,,,,,,,,,,,,,,,,,,,,,,,,,,,,,,,,,,,,,,,,,,,,,,,,,,,,,,,,,,,,,,,,,,,,,,,,,,,,,,,,,,,,,,,,,,,,,,,,,,,,,,,,,,,,,,,,,,,,,,,,,,,,,,,,,,,,
,,667ebb747b43b02dbbd26d47,2026-03-17_16h07.28.798,kallum_motion_pilot_GIST_update_2,2026.1.1,Win32,30.03003003,667ebb747b43b02dbbd26d47,69b95efdef24cd8a694e89ee,69b9600266ec37dd7a36d1f3,0.0508,0.0508,0,30,30,80,1,fivesix,,,,,,,,,,,,,,,,,,,,,,,,,,,,,,,,,,,,,,,,,,,,,,,,,,,,,,,,,,,,,,,,,,,,,,,,,,,,,,,,,,,,,,,,,,,,,,,,,,,,,,,,,,,,,,,,,,,,,,,,,,,,,,,,,,,,,,,,,
,,667ebb747b43b02dbbd26d47,2026-03-17_16h07.28.798,kallum_motion_pilot_GIST_update_2,2026.1.1,Win32,30.03003003,667ebb747b43b02dbbd26d47,69b95efdef24cd8a694e89ee,69b9600266ec37dd7a36d1f3,0.0511,0.0511,0,31,31,74,1,twoone,,,,,,,,,,,,,,,,,,,,,,,,,,,,,,,,,,,,,,,,,,,,,,,,,,,,,,,,,,,,,,,,,,,,,,,,,,,,,,,,,,,,,,,,,,,,,,,,,,,,,,,,,,,,,,,,,,,,,,,,,,,,,,,,,,,,,,,,,
,,667ebb747b43b02dbbd26d47,2026-03-17_16h07.28.798,kallum_motion_pilot_GIST_update_2,2026.1.1,Win32,30.03003003,667ebb747b43b02dbbd26d47,69b95efdef24cd8a694e89ee,69b9600266ec37dd7a36d1f3,0.0513,0.0513,0,32,32,33,1,onethree,,,,,,,,,,,,,,,,,,,,,,,,,,,,,,,,,,,,,,,,,,,,,,,,,,,,,,,,,,,,,,,,,,,,,,,,,,,,,,,,,,,,,,,,,,,,,,,,,,,,,,,,,,,,,,,,,,,,,,,,,,,,,,,,,,,,,,,,,
,,667ebb747b43b02dbbd26d47,2026-03-17_16h07.28.798,kallum_motion_pilot_GIST_update_2,2026.1.1,Win32,30.03003003,667ebb747b43b02dbbd26d47,69b95efdef24cd8a694e89ee,69b9600266ec37dd7a36d1f3,0.0516,0.0516,0,33,33,42,1,twoone,,,,,,,,,,,,,,,,,,,,,,,,,,,,,,,,,,,,,,,,,,,,,,,,,,,,,,,,,,,,,,,,,,,,,,,,,,,,,,,,,,,,,,,,,,,,,,,,,,,,,,,,,,,,,,,,,,,,,,,,,,,,,,,,,,,,,,,,,
,,667ebb747b43b02dbbd26d47,2026-03-17_16h07.28.798,kallum_motion_pilot_GIST_update_2,2026.1.1,Win32,30.03003003,667ebb747b43b02dbbd26d47,69b95efdef24cd8a694e89ee,69b9600266ec37dd7a36d1f3,0.0519,0.0519,0,34,34,92,1,sevenfive,,,,,,,,,,,,,,,,,,,,,,,,,,,,,,,,,,,,,,,,,,,,,,,,,,,,,,,,,,,,,,,,,,,,,,,,,,,,,,,,,,,,,,,,,,,,,,,,,,,,,,,,,,,,,,,,,,,,,,,,,,,,,,,,,,,,,,,,,
,,667ebb747b43b02dbbd26d47,2026-03-17_16h07.28.798,kallum_motion_pilot_GIST_update_2,2026.1.1,Win32,30.03003003,667ebb747b43b02dbbd26d47,69b95efdef24cd8a694e89ee,69b9600266ec37dd7a36d1f3,0.0522,0.0522,0,35,35,20,1,threeone,,,,,,,,,,,,,,,,,,,,,,,,,,,,,,,,,,,,,,,,,,,,,,,,,,,,,,,,,,,,,,,,,,,,,,,,,,,,,,,,,,,,,,,,,,,,,,,,,,,,,,,,,,,,,,,,,,,,,,,,,,,,,,,,,,,,,,,,,
,,667ebb747b43b02dbbd26d47,2026-03-17_16h07.28.798,kallum_motion_pilot_GIST_update_2,2026.1.1,Win32,30.03003003,667ebb747b43b02dbbd26d47,69b95efdef24cd8a694e89ee,69b9600266ec37dd7a36d1f3,0.0525,0.0525,0,36,36,107,1,sixeight,,,,,,,,,,,,,,,,,,,,,,,,,,,,,,,,,,,,,,,,,,,,,,,,,,,,,,,,,,,,,,,,,,,,,,,,,,,,,,,,,,,,,,,,,,,,,,,,,,,,,,,,,,,,,,,,,,,,,,,,,,,,,,,,,,,,,,,,,
,,667ebb747b43b02dbbd26d47,2026-03-17_16h07.28.798,kallum_motion_pilot_GIST_update_2,2026.1.1,Win32,30.03003003,667ebb747b43b02dbbd26d47,69b95efdef24cd8a694e89ee,69b9600266ec37dd7a36d1f3,0.0528,0.0528,0,37,37,78,1,fourtwo,,,,,,,,,,,,,,,,,,,,,,,,,,,,,,,,,,,,,,,,,,,,,,,,,,,,,,,,,,,,,,,,,,,,,,,,,,,,,,,,,,,,,,,,,,,,,,,,,,,,,,,,,,,,,,,,,,,,,,,,,,,,,,,,,,,,,,,,,
,,667ebb747b43b02dbbd26d47,2026-03-17_16h07.28.798,kallum_motion_pilot_GIST_update_2,2026.1.1,Win32,30.03003003,667ebb747b43b02dbbd26d47,69b95efdef24cd8a694e89ee,69b9600266ec37dd7a36d1f3,0.0531,0.0531,0,38,38,24,1,onetwo,,,,,,,,,,,,,,,,,,,,,,,,,,,,,,,,,,,,,,,,,,,,,,,,,,,,,,,,,,,,,,,,,,,,,,,,,,,,,,,,,,,,,,,,,,,,,,,,,,,,,,,,,,,,,,,,,,,,,,,,,,,,,,,,,,,,,,,,,
,,667ebb747b43b02dbbd26d47,2026-03-17_16h07.28.798,kallum_motion_pilot_GIST_update_2,2026.1.1,Win32,30.03003003,667ebb747b43b02dbbd26d47,69b95efdef24cd8a694e89ee,69b9600266ec37dd7a36d1f3,0.0534,0.0534,0,39,39,60,1,threeone,,,,,,,,,,,,,,,,,,,,,,,,,,,,,,,,,,,,,,,,,,,,,,,,,,,,,,,,,,,,,,,,,,,,,,,,,,,,,,,,,,,,,,,,,,,,,,,,,,,,,,,,,,,,,,,,,,,,,,,,,,,,,,,,,,,,,,,,,
,,667ebb747b43b02dbbd26d47,2026-03-17_16h07.28.798,kallum_motion_pilot_GIST_update_2,2026.1.1,Win32,30.03003003,667ebb747b43b02dbbd26d47,69b95efdef24cd8a694e89ee,69b9600266ec37dd7a36d1f3,0.0536,0.0536,0,40,40,126,1,eightsix,,,,,,,,,,,,,,,,,,,,,,,,,,,,,,,,,,,,,,,,,,,,,,,,,,,,,,,,,,,,,,,,,,,,,,,,,,,,,,,,,,,,,,,,,,,,,,,,,,,,,,,,,,,,,,,,,,,,,,,,,,,,,,,,,,,,,,,,,
,,667ebb747b43b02dbbd26d47,2026-03-17_16h07.28.798,kallum_motion_pilot_GIST_update_2,2026.1.1,Win32,30.03003003,667ebb747b43b02dbbd26d47,69b95efdef24cd8a694e89ee,69b9600266ec37dd7a36d1f3,0.0539,0.0539,0,41,41,14,1,fourtwo,,,,,,,,,,,,,,,,,,,,,,,,,,,,,,,,,,,,,,,,,,,,,,,,,,,,,,,,,,,,,,,,,,,,,,,,,,,,,,,,,,,,,,,,,,,,,,,,,,,,,,,,,,,,,,,,,,,,,,,,,,,,,,,,,,,,,,,,,
,,667ebb747b43b02dbbd26d47,2026-03-17_16h07.28.798,kallum_motion_pilot_GIST_update_2,2026.1.1,Win32,30.03003003,667ebb747b43b02dbbd26d47,69b95efdef24cd8a694e89ee,69b9600266ec37dd7a36d1f3,0.0542,0.0542,0,42,42,147,1,sixeight,,,,,,,,,,,,,,,,,,,,,,,,,,,,,,,,,,,,,,,,,,,,,,,,,,,,,,,,,,,,,,,,,,,,,,,,,,,,,,,,,,,,,,,,,,,,,,,,,,,,,,,,,,,,,,,,,,,,,,,,,,,,,,,,,,,,,,,,,
,,667ebb747b43b02dbbd26d47,2026-03-17_16h07.28.798,kallum_motion_pilot_GIST_update_2,2026.1.1,Win32,30.03003003,667ebb747b43b02dbbd26d47,69b95efdef24cd8a694e89ee,69b9600266ec37dd7a36d1f3,0.0544,0.0545,0,43,43,26,1,twoone,,,,,,,,,,,,,,,,,,,,,,,,,,,,,,,,,,,,,,,,,,,,,,,,,,,,,,,,,,,,,,,,,,,,,,,,,,,,,,,,,,,,,,,,,,,,,,,,,,,,,,,,,,,,,,,,,,,,,,,,,,,,,,,,,,,,,,,,,
,,667ebb747b43b02dbbd26d47,2026-03-17_16h07.28.798,kallum_motion_pilot_GIST_update_2,2026.1.1,Win32,30.03003003,667ebb747b43b02dbbd26d47,69b95efdef24cd8a694e89ee,69b9600266ec37dd7a36d1f3,0.0547,0.0547,0,44,44,71,1,fourthree,,,,,,,,,,,,,,,,,,,,,,,,,,,,,,,,,,,,,,,,,,,,,,,,,,,,,,,,,,,,,,,,,,,,,,,,,,,,,,,,,,,,,,,,,,,,,,,,,,,,,,,,,,,,,,,,,,,,,,,,,,,,,,,,,,,,,,,,,
,,667ebb747b43b02dbbd26d47,2026-03-17_16h07.28.798,kallum_motion_pilot_GIST_update_2,2026.1.1,Win32,30.03003003,667ebb747b43b02dbbd26d47,69b95efdef24cd8a694e89ee,69b9600266ec37dd7a36d1f3,0.0549,0.055,0,45,45,8,1,onetwo,,,,,,,,,,,,,,,,,,,,,,,,,,,,,,,,,,,,,,,,,,,,,,,,,,,,,,,,,,,,,,,,,,,,,,,,,,,,,,,,,,,,,,,,,,,,,,,,,,,,,,,,,,,,,,,,,,,,,,,,,,,,,,,,,,,,,,,,,
,,667ebb747b43b02dbbd26d47,2026-03-17_16h07.28.798,kallum_motion_pilot_GIST_update_2,2026.1.1,Win32,30.03003003,667ebb747b43b02dbbd26d47,69b95efdef24cd8a694e89ee,69b9600266ec37dd7a36d1f3,0.0554,0.0555,0,46,46,40,1,onetwo,,,,,,,,,,,,,,,,,,,,,,,,,,,,,,,,,,,,,,,,,,,,,,,,,,,,,,,,,,,,,,,,,,,,,,,,,,,,,,,,,,,,,,,,,,,,,,,,,,,,,,,,,,,,,,,,,,,,,,,,,,,,,,,,,,,,,,,,,
,,667ebb747b43b02dbbd26d47,2026-03-17_16h07.28.798,kallum_motion_pilot_GIST_update_2,2026.1.1,Win32,30.03003003,667ebb747b43b02dbbd26d47,69b95efdef24cd8a694e89ee,69b9600266ec37dd7a36d1f3,0.0557,0.0558,0,47,47,94,1,eightsix,,,,,,,,,,,,,,,,,,,,,,,,,,,,,,,,,,,,,,,,,,,,,,,,,,,,,,,,,,,,,,,,,,,,,,,,,,,,,,,,,,,,,,,,,,,,,,,,,,,,,,,,,,,,,,,,,,,,,,,,,,,,,,,,,,,,,,,,,
,,667ebb747b43b02dbbd26d47,2026-03-17_16h07.28.798,kallum_motion_pilot_GIST_update_2,2026.1.1,Win32,30.03003003,667ebb747b43b02dbbd26d47,69b95efdef24cd8a694e89ee,69b9600266ec37dd7a36d1f3,0.0561,0.0561,0,48,48,45,1,threefour,,,,,,,,,,,,,,,,,,,,,,,,,,,,,,,,,,,,,,,,,,,,,,,,,,,,,,,,,,,,,,,,,,,,,,,,,,,,,,,,,,,,,,,,,,,,,,,,,,,,,,,,,,,,,,,,,,,,,,,,,,,,,,,,,,,,,,,,,
,,667ebb747b43b02dbbd26d47,2026-03-17_16h07.28.798,kallum_motion_pilot_GIST_update_2,2026.1.1,Win32,30.03003003,667ebb747b43b02dbbd26d47,69b95efdef24cd8a694e89ee,69b9600266ec37dd7a36d1f3,0.0563,0.0563,0,49,49,142,1,eightsix,,,,,,,,,,,,,,,,,,,,,,,,,,,,,,,,,,,,,,,,,,,,,,,,,,,,,,,,,,,,,,,,,,,,,,,,,,,,,,,,,,,,,,,,,,,,,,,,,,,,,,,,,,,,,,,,,,,,,,,,,,,,,,,,,,,,,,,,,
,,667ebb747b43b02dbbd26d47,2026-03-17_16h07.28.798,kallum_motion_pilot_GIST_update_2,2026.1.1,Win32,30.03003003,667ebb747b43b02dbbd26d47,69b95efdef24cd8a694e89ee,69b9600266ec37dd7a36d1f3,0.0566,0.0566,0,50,50,0,1,onetwo,,,,,,,,,,,,,,,,,,,,,,,,,,,,,,,,,,,,,,,,,,,,,,,,,,,,,,,,,,,,,,,,,,,,,,,,,,,,,,,,,,,,,,,,,,,,,,,,,,,,,,,,,,,,,,,,,,,,,,,,,,,,,,,,,,,,,,,,,
,,667ebb747b43b02dbbd26d47,2026-03-17_16h07.28.798,kallum_motion_pilot_GIST_update_2,2026.1.1,Win32,30.03003003,667ebb747b43b02dbbd26d47,69b95efdef24cd8a694e89ee,69b9600266ec37dd7a36d1f3,0.0572,0.0572,0,51,51,15,1,fourthree,,,,,,,,,,,,,,,,,,,,,,,,,,,,,,,,,,,,,,,,,,,,,,,,,,,,,,,,,,,,,,,,,,,,,,,,,,,,,,,,,,,,,,,,,,,,,,,,,,,,,,,,,,,,,,,,,,,,,,,,,,,,,,,,,,,,,,,,,
,,667ebb747b43b02dbbd26d47,2026-03-17_16h07.28.798,kallum_motion_pilot_GIST_update_2,2026.1.1,Win32,30.03003003,667ebb747b43b02dbbd26d47,69b95efdef24cd8a694e89ee,69b9600266ec37dd7a36d1f3,0.0575,0.0575,0,52,52,111,1,eightseven,,,,,,,,,,,,,,,,,,,,,,,,,,,,,,,,,,,,,,,,,,,,,,,,,,,,,,,,,,,,,,,,,,,,,,,,,,,,,,,,,,,,,,,,,,,,,,,,,,,,,,,,,,,,,,,,,,,,,,,,,,,,,,,,,,,,,,,,,
,,667ebb747b43b02dbbd26d47,2026-03-17_16h07.28.798,kallum_motion_pilot_GIST_update_2,2026.1.1,Win32,30.03003003,667ebb747b43b02dbbd26d47,69b95efdef24cd8a694e89ee,69b9600266ec37dd7a36d1f3,0.058,0.058,0,53,53,35,1,twofour,,,,,,,,,,,,,,,,,,,,,,,,,,,,,,,,,,,,,,,,,,,,,,,,,,,,,,,,,,,,,,,,,,,,,,,,,,,,,,,,,,,,,,,,,,,,,,,,,,,,,,,,,,,,,,,,,,,,,,,,,,,,,,,,,,,,,,,,,
,,667ebb747b43b02dbbd26d47,2026-03-17_16h07.28.798,kallum_motion_pilot_GIST_update_2,2026.1.1,Win32,30.03003003,667ebb747b43b02dbbd26d47,69b95efdef24cd8a694e89ee,69b9600266ec37dd7a36d1f3,0.0582,0.0582,0,54,54,70,1,fourtwo,,,,,,,,,,,,,,,,,,,,,,,,,,,,,,,,,,,,,,,,,,,,,,,,,,,,,,,,,,,,,,,,,,,,,,,,,,,,,,,,,,,,,,,,,,,,,,,,,,,,,,,,,,,,,,,,,,,,,,,,,,,,,,,,,,,,,,,,,
,,667ebb747b43b02dbbd26d47,2026-03-17_16h07.28.798,kallum_motion_pilot_GIST_update_2,2026.1.1,Win32,30.03003003,667ebb747b43b02dbbd26d47,69b95efdef24cd8a694e89ee,69b9600266ec37dd7a36d1f3,0.0586,0.0586,0,55,55,88,1,fivesix,,,,,,,,,,,,,,,,,,,,,,,,,,,,,,,,,,,,,,,,,,,,,,,,,,,,,,,,,,,,,,,,,,,,,,,,,,,,,,,,,,,,,,,,,,,,,,,,,,,,,,,,,,,,,,,,,,,,,,,,,,,,,,,,,,,,,,,,,
,,667ebb747b43b02dbbd26d47,2026-03-17_16h07.28.798,kallum_motion_pilot_GIST_update_2,2026.1.1,Win32,30.03003003,667ebb747b43b02dbbd26d47,69b95efdef24cd8a694e89ee,69b9600266ec37dd7a36d1f3,0.0589,0.0589,0,56,56,21,1,threefour,,,,,,,,,,,,,,,,,,,,,,,,,,,,,,,,,,,,,,,,,,,,,,,,,,,,,,,,,,,,,,,,,,,,,,,,,,,,,,,,,,,,,,,,,,,,,,,,,,,,,,,,,,,,,,,,,,,,,,,,,,,,,,,,,,,,,,,,,
,,667ebb747b43b02dbbd26d47,2026-03-17_16h07.28.798,kallum_motion_pilot_GIST_update_2,2026.1.1,Win32,30.03003003,667ebb747b43b02dbbd26d47,69b95efdef24cd8a694e89ee,69b9600266ec37dd7a36d1f3,0.0591,0.0591,0,57,57,129,1,fiveseven,,,,,,,,,,,,,,,,,,,,,,,,,,,,,,,,,,,,,,,,,,,,,,,,,,,,,,,,,,,,,,,,,,,,,,,,,,,,,,,,,,,,,,,,,,,,,,,,,,,,,,,,,,,,,,,,,,,,,,,,,,,,,,,,,,,,,,,,,
,,667ebb747b43b02dbbd26d47,2026-03-17_16h07.28.798,kallum_motion_pilot_GIST_update_2,2026.1.1,Win32,30.03003003,667ebb747b43b02dbbd26d47,69b95efdef24cd8a694e89ee,69b9600266ec37dd7a36d1f3,0.0595,0.0595,0,58,58,144,1,fivesix,,,,,,,,,,,,,,,,,,,,,,,,,,,,,,,,,,,,,,,,,,,,,,,,,,,,,,,,,,,,,,,,,,,,,,,,,,,,,,,,,,,,,,,,,,,,,,,,,,,,,,,,,,,,,,,,,,,,,,,,,,,,,,,,,,,,,,,,,
,,667ebb747b43b02dbbd26d47,2026-03-17_16h07.28.798,kallum_motion_pilot_GIST_update_2,2026.1.1,Win32,30.03003003,667ebb747b43b02dbbd26d47,69b95efdef24cd8a694e89ee,69b9600266ec37dd7a36d1f3,0.0598,0.0598,0,59,59,136,1,fivesix,,,,,,,,,,,,,,,,,,,,,,,,,,,,,,,,,,,,,,,,,,,,,,,,,,,,,,,,,,,,,,,,,,,,,,,,,,,,,,,,,,,,,,,,,,,,,,,,,,,,,,,,,,,,,,,,,,,,,,,,,,,,,,,,,,,,,,,,,
,,667ebb747b43b02dbbd26d47,2026-03-17_16h07.28.798,kallum_motion_pilot_GIST_update_2,2026.1.1,Win32,30.03003003,667ebb747b43b02dbbd26d47,69b95efdef24cd8a694e89ee,69b9600266ec37dd7a36d1f3,0.06,0.06,0,60,60,3,1,twofour,,,,,,,,,,,,,,,,,,,,,,,,,,,,,,,,,,,,,,,,,,,,,,,,,,,,,,,,,,,,,,,,,,,,,,,,,,,,,,,,,,,,,,,,,,,,,,,,,,,,,,,,,,,,,,,,,,,,,,,,,,,,,,,,,,,,,,,,,
,,667ebb747b43b02dbbd26d47,2026-03-17_16h07.28.798,kallum_motion_pilot_GIST_update_2,2026.1.1,Win32,30.03003003,667ebb747b43b02dbbd26d47,69b95efdef24cd8a694e89ee,69b9600266ec37dd7a36d1f3,0.0605,0.0605,0,61,61,9,1,onethree,,,,,,,,,,,,,,,,,,,,,,,,,,,,,,,,,,,,,,,,,,,,,,,,,,,,,,,,,,,,,,,,,,,,,,,,,,,,,,,,,,,,,,,,,,,,,,,,,,,,,,,,,,,,,,,,,,,,,,,,,,,,,,,,,,,,,,,,,
,,667ebb747b43b02dbbd26d47,2026-03-17_16h07.28.798,kallum_motion_pilot_GIST_update_2,2026.1.1,Win32,30.03003003,667ebb747b43b02dbbd26d47,69b95efdef24cd8a694e89ee,69b9600266ec37dd7a36d1f3,0.061,0.061,0,62,62,153,1,fiveseven,,,,,,,,,,,,,,,,,,,,,,,,,,,,,,,,,,,,,,,,,,,,,,,,,,,,,,,,,,,,,,,,,,,,,,,,,,,,,,,,,,,,,,,,,,,,,,,,,,,,,,,,,,,,,,,,,,,,,,,,,,,,,,,,,,,,,,,,,
,,667ebb747b43b02dbbd26d47,2026-03-17_16h07.28.798,kallum_motion_pilot_GIST_update_2,2026.1.1,Win32,30.03003003,667ebb747b43b02dbbd26d47,69b95efdef24cd8a694e89ee,69b9600266ec37dd7a36d1f3,0.0612,0.0612,0,63,63,97,1,fiveseven,,,,,,,,,,,,,,,,,,,,,,,,,,,,,,,,,,,,,,,,,,,,,,,,,,,,,,,,,,,,,,,,,,,,,,,,,,,,,,,,,,,,,,,,,,,,,,,,,,,,,,,,,,,,,,,,,,,,,,,,,,,,,,,,,,,,,,,,,
,,667ebb747b43b02dbbd26d47,2026-03-17_16h07.28.798,kallum_motion_pilot_GIST_update_2,2026.1.1,Win32,30.03003003,667ebb747b43b02dbbd26d47,69b95efdef24cd8a694e89ee,69b9600266ec37dd7a36d1f3,0.0615,0.0616,0,64,64,19,1,twofour,,,,,,,,,,,,,,,,,,,,,,,,,,,,,,,,,,,,,,,,,,,,,,,,,,,,,,,,,,,,,,,,,,,,,,,,,,,,,,,,,,,,,,,,,,,,,,,,,,,,,,,,,,,,,,,,,,,,,,,,,,,,,,,,,,,,,,,,,
,,667ebb747b43b02dbbd26d47,2026-03-17_16h07.28.798,kallum_motion_pilot_GIST_update_2,2026.1.1,Win32,30.03003003,667ebb747b43b02dbbd26d47,69b95efdef24cd8a694e89ee,69b9600266ec37dd7a36d1f3,0.0619,0.0619,0,65,65,6,1,fourtwo,,,,,,,,,,,,,,,,,,,,,,,,,,,,,,,,,,,,,,,,,,,,,,,,,,,,,,,,,,,,,,,,,,,,,,,,,,,,,,,,,,,,,,,,,,,,,,,,,,,,,,,,,,,,,,,,,,,,,,,,,,,,,,,,,,,,,,,,,
,,667ebb747b43b02dbbd26d47,2026-03-17_16h07.28.798,kallum_motion_pilot_GIST_update_2,2026.1.1,Win32,30.03003003,667ebb747b43b02dbbd26d47,69b95efdef24cd8a694e89ee,69b9600266ec37dd7a36d1f3,0.062,0.0621,0,66,66,91,1,sixeight,,,,,,,,,,,,,,,,,,,,,,,,,,,,,,,,,,,,,,,,,,,,,,,,,,,,,,,,,,,,,,,,,,,,,,,,,,,,,,,,,,,,,,,,,,,,,,,,,,,,,,,,,,,,,,,,,,,,,,,,,,,,,,,,,,,,,,,,,
,,667ebb747b43b02dbbd26d47,2026-03-17_16h07.28.798,kallum_motion_pilot_GIST_update_2,2026.1.1,Win32,30.03003003,667ebb747b43b02dbbd26d47,69b95efdef24cd8a694e89ee,69b9600266ec37dd7a36d1f3,0.0624,0.0624,0,67,67,85,1,seveneight,,,,,,,,,,,,,,,,,,,,,,,,,,,,,,,,,,,,,,,,,,,,,,,,,,,,,,,,,,,,,,,,,,,,,,,,,,,,,,,,,,,,,,,,,,,,,,,,,,,,,,,,,,,,,,,,,,,,,,,,,,,,,,,,,,,,,,,,,
,,667ebb747b43b02dbbd26d47,2026-03-17_16h07.28.798,kallum_motion_pilot_GIST_update_2,2026.1.1,Win32,30.03003003,667ebb747b43b02dbbd26d47,69b95efdef24cd8a694e89ee,69b9600266ec37dd7a36d1f3,0.0627,0.0627,0,68,68,158,1,eightsix,,,,,,,,,,,,,,,,,,,,,,,,,,,,,,,,,,,,,,,,,,,,,,,,,,,,,,,,,,,,,,,,,,,,,,,,,,,,,,,,,,,,,,,,,,,,,,,,,,,,,,,,,,,,,,,,,,,,,,,,,,,,,,,,,,,,,,,,,
,,667ebb747b43b02dbbd26d47,2026-03-17_16h07.28.798,kallum_motion_pilot_GIST_update_2,2026.1.1,Win32,30.03003003,667ebb747b43b02dbbd26d47,69b95efdef24cd8a694e89ee,69b9600266ec37dd7a36d1f3,0.0629,0.0629,0,69,69,84,1,sevenfive,,,,,,,,,,,,,,,,,,,,,,,,,,,,,,,,,,,,,,,,,,,,,,,,,,,,,,,,,,,,,,,,,,,,,,,,,,,,,,,,,,,,,,,,,,,,,,,,,,,,,,,,,,,,,,,,,,,,,,,,,,,,,,,,,,,,,,,,,
,,667ebb747b43b02dbbd26d47,2026-03-17_16h07.28.798,kallum_motion_pilot_GIST_update_2,2026.1.1,Win32,30.03003003,667ebb747b43b02dbbd26d47,69b95efdef24cd8a694e89ee,69b9600266ec37dd7a36d1f3,0.0632,0.0633,0,70,70,135,1,eightseven,,,,,,,,,,,,,,,,,,,,,,,,,,,,,,,,,,,,,,,,,,,,,,,,,,,,,,,,,,,,,,,,,,,,,,,,,,,,,,,,,,,,,,,,,,,,,,,,,,,,,,,,,,,,,,,,,,,,,,,,,,,,,,,,,,,,,,,,,
,,667ebb747b43b02dbbd26d47,2026-03-17_16h07.28.798,kallum_motion_pilot_GIST_update_2,2026.1.1,Win32,30.03003003,667ebb747b43b02dbbd26d47,69b95efdef24cd8a694e89ee,69b9600266ec37dd7a36d1f3,0.0635,0.0635,0,71,71,10,1,twoone,,,,,,,,,,,,,,,,,,,,,,,,,,,,,,,,,,,,,,,,,,,,,,,,,,,,,,,,,,,,,,,,,,,,,,,,,,,,,,,,,,,,,,,,,,,,,,,,,,,,,,,,,,,,,,,,,,,,,,,,,,,,,,,,,,,,,,,,,
,,667ebb747b43b02dbbd26d47,2026-03-17_16h07.28.798,kallum_motion_pilot_GIST_update_2,2026.1.1,Win32,30.03003003,667ebb747b43b02dbbd26d47,69b95efdef24cd8a694e89ee,69b9600266ec37dd7a36d1f3,0.0638,0.0638,0,72,72,112,1,fivesix,,,,,,,,,,,,,,,,,,,,,,,,,,,,,,,,,,,,,,,,,,,,,,,,,,,,,,,,,,,,,,,,,,,,,,,,,,,,,,,,,,,,,,,,,,,,,,,,,,,,,,,,,,,,,,,,,,,,,,,,,,,,,,,,,,,,,,,,,
,,667ebb747b43b02dbbd26d47,2026-03-17_16h07.28.798,kallum_motion_pilot_GIST_update_2,2026.1.1,Win32,30.03003003,667ebb747b43b02dbbd26d47,69b95efdef24cd8a694e89ee,69b9600266ec37dd7a36d1f3,0.0642,0.0642,0,73,73,102,1,eightsix,,,,,,,,,,,,,,,,,,,,,,,,,,,,,,,,,,,,,,,,,,,,,,,,,,,,,,,,,,,,,,,,,,,,,,,,,,,,,,,,,,,,,,,,,,,,,,,,,,,,,,,,,,,,,,,,,,,,,,,,,,,,,,,,,,,,,,,,,
,,667ebb747b43b02dbbd26d47,2026-03-17_16h07.28.798,kallum_motion_pilot_GIST_update_2,2026.1.1,Win32,30.03003003,667ebb747b43b02dbbd26d47,69b95efdef24cd8a694e89ee,69b9600266ec37dd7a36d1f3,0.0645,0.0645,0,74,74,89,1,fiveseven,,,,,,,,,,,,,,,,,,,,,,,,,,,,,,,,,,,,,,,,,,,,,,,,,,,,,,,,,,,,,,,,,,,,,,,,,,,,,,,,,,,,,,,,,,,,,,,,,,,,,,,,,,,,,,,,,,,,,,,,,,,,,,,,,,,,,,,,,
,,667ebb747b43b02dbbd26d47,2026-03-17_16h07.28.798,kallum_motion_pilot_GIST_update_2,2026.1.1,Win32,30.03003003,667ebb747b43b02dbbd26d47,69b95efdef24cd8a694e89ee,69b9600266ec37dd7a36d1f3,0.0648,0.0648,0,75,75,65,1,onethree,,,,,,,,,,,,,,,,,,,,,,,,,,,,,,,,,,,,,,,,,,,,,,,,,,,,,,,,,,,,,,,,,,,,,,,,,,,,,,,,,,,,,,,,,,,,,,,,,,,,,,,,,,,,,,,,,,,,,,,,,,,,,,,,,,,,,,,,,
,,667ebb747b43b02dbbd26d47,2026-03-17_16h07.28.798,kallum_motion_pilot_GIST_update_2,2026.1.1,Win32,30.03003003,667ebb747b43b02dbbd26d47,69b95efdef24cd8a694e89ee,69b9600266ec37dd7a36d1f3,0.0654,0.0654,0,76,76,140,1,sevenfive,,,,,,,,,,,,,,,,,,,,,,,,,,,,,,,,,,,,,,,,,,,,,,,,,,,,,,,,,,,,,,,,,,,,,,,,,,,,,,,,,,,,,,,,,,,,,,,,,,,,,,,,,,,,,,,,,,,,,,,,,,,,,,,,,,,,,,,,,
,,667ebb747b43b02dbbd26d47,2026-03-17_16h07.28.798,kallum_motion_pilot_GIST_update_2,2026.1.1,Win32,30.03003003,667ebb747b43b02dbbd26d47,69b95efdef24cd8a694e89ee,69b9600266ec37dd7a36d1f3,0.0658,0.066,0,77,77,25,1,onethree,,,,,,,,,,,,,,,,,,,,,,,,,,,,,,,,,,,,,,,,,,,,,,,,,,,,,,,,,,,,,,,,,,,,,,,,,,,,,,,,,,,,,,,,,,,,,,,,,,,,,,,,,,,,,,,,,,,,,,,,,,,,,,,,,,,,,,,,,
,,667ebb747b43b02dbbd26d47,2026-03-17_16h07.28.798,kallum_motion_pilot_GIST_update_2,2026.1.1,Win32,30.03003003,667ebb747b43b02dbbd26d47,69b95efdef24cd8a694e89ee,69b9600266ec37dd7a36d1f3,0.0662,0.0662,0,78,78,137,1,fiveseven,,,,,,,,,,,,,,,,,,,,,,,,,,,,,,,,,,,,,,,,,,,,,,,,,,,,,,,,,,,,,,,,,,,,,,,,,,,,,,,,,,,,,,,,,,,,,,,,,,,,,,,,,,,,,,,,,,,,,,,,,,,,,,,,,,,,,,,,,
,,667ebb747b43b02dbbd26d47,2026-03-17_16h07.28.798,kallum_motion_pilot_GIST_update_2,2026.1.1,Win32,30.03003003,667ebb747b43b02dbbd26d47,69b95efdef24cd8a694e89ee,69b9600266ec37dd7a36d1f3,0.0665,0.0665,0,79,79,63,1,fourthree,,,,,,,,,,,,,,,,,,,,,,,,,,,,,,,,,,,,,,,,,,,,,,,,,,,,,,,,,,,,,,,,,,,,,,,,,,,,,,,,,,,,,,,,,,,,,,,,,,,,,,,,,,,,,,,,,,,,,,,,,,,,,,,,,,,,,,,,,
,,667ebb747b43b02dbbd26d47,2026-03-17_16h07.28.798,kallum_motion_pilot_GIST_update_2,2026.1.1,Win32,30.03003003,667ebb747b43b02dbbd26d47,69b95efdef24cd8a694e89ee,69b9600266ec37dd7a36d1f3,0.0667,0.0667,0,80,80,105,1,fiveseven,,,,,,,,,,,,,,,,,,,,,,,,,,,,,,,,,,,,,,,,,,,,,,,,,,,,,,,,,,,,,,,,,,,,,,,,,,,,,,,,,,,,,,,,,,,,,,,,,,,,,,,,,,,,,,,,,,,,,,,,,,,,,,,,,,,,,,,,,
,,667ebb747b43b02dbbd26d47,2026-03-17_16h07.28.798,kallum_motion_pilot_GIST_update_2,2026.1.1,Win32,30.03003003,667ebb747b43b02dbbd26d47,69b95efdef24cd8a694e89ee,69b9600266ec37dd7a36d1f3,0.0671,0.0671,0,81,81,160,1,fivesix,,,,,,,,,,,,,,,,,,,,,,,,,,,,,,,,,,,,,,,,,,,,,,,,,,,,,,,,,,,,,,,,,,,,,,,,,,,,,,,,,,,,,,,,,,,,,,,,,,,,,,,,,,,,,,,,,,,,,,,,,,,,,,,,,,,,,,,,,
,,667ebb747b43b02dbbd26d47,2026-03-17_16h07.28.798,kallum_motion_pilot_GIST_update_2,2026.1.1,Win32,30.03003003,667ebb747b43b02dbbd26d47,69b95efdef24cd8a694e89ee,69b9600266ec37dd7a36d1f3,0.0673,0.0673,0,82,82,69,1,threefour,,,,,,,,,,,,,,,,,,,,,,,,,,,,,,,,,,,,,,,,,,,,,,,,,,,,,,,,,,,,,,,,,,,,,,,,,,,,,,,,,,,,,,,,,,,,,,,,,,,,,,,,,,,,,,,,,,,,,,,,,,,,,,,,,,,,,,,,,
,,667ebb747b43b02dbbd26d47,2026-03-17_16h07.28.798,kallum_motion_pilot_GIST_update_2,2026.1.1,Win32,30.03003003,667ebb747b43b02dbbd26d47,69b95efdef24cd8a694e89ee,69b9600266ec37dd7a36d1f3,0.0676,0.0677,0,83,83,5,1,threefour,,,,,,,,,,,,,,,,,,,,,,,,,,,,,,,,,,,,,,,,,,,,,,,,,,,,,,,,,,,,,,,,,,,,,,,,,,,,,,,,,,,,,,,,,,,,,,,,,,,,,,,,,,,,,,,,,,,,,,,,,,,,,,,,,,,,,,,,,
,,667ebb747b43b02dbbd26d47,2026-03-17_16h07.28.798,kallum_motion_pilot_GIST_update_2,2026.1.1,Win32,30.03003003,667ebb747b43b02dbbd26d47,69b95efdef24cd8a694e89ee,69b9600266ec37dd7a36d1f3,0.0679,0.0679,0,84,84,159,1,eightseven,,,,,,,,,,,,,,,,,,,,,,,,,,,,,,,,,,,,,,,,,,,,,,,,,,,,,,,,,,,,,,,,,,,,,,,,,,,,,,,,,,,,,,,,,,,,,,,,,,,,,,,,,,,,,,,,,,,,,,,,,,,,,,,,,,,,,,,,,
,,667ebb747b43b02dbbd26d47,2026-03-17_16h07.28.798,kallum_motion_pilot_GIST_update_2,2026.1.1,Win32,30.03003003,667ebb747b43b02dbbd26d47,69b95efdef24cd8a694e89ee,69b9600266ec37dd7a36d1f3,0.0681,0.0682,0,85,85,152,1,fivesix,,,,,,,,,,,,,,,,,,,,,,,,,,,,,,,,,,,,,,,,,,,,,,,,,,,,,,,,,,,,,,,,,,,,,,,,,,,,,,,,,,,,,,,,,,,,,,,,,,,,,,,,,,,,,,,,,,,,,,,,,,,,,,,,,,,,,,,,,
,,667ebb747b43b02dbbd26d47,2026-03-17_16h07.28.798,kallum_motion_pilot_GIST_update_2,2026.1.1,Win32,30.03003003,667ebb747b43b02dbbd26d47,69b95efdef24cd8a694e89ee,69b9600266ec37dd7a36d1f3,0.0684,0.0685,0,86,86,77,1,threefour,,,,,,,,,,,,,,,,,,,,,,,,,,,,,,,,,,,,,,,,,,,,,,,,,,,,,,,,,,,,,,,,,,,,,,,,,,,,,,,,,,,,,,,,,,,,,,,,,,,,,,,,,,,,,,,,,,,,,,,,,,,,,,,,,,,,,,,,,
,,667ebb747b43b02dbbd26d47,2026-03-17_16h07.28.798,kallum_motion_pilot_GIST_update_2,2026.1.1,Win32,30.03003003,667ebb747b43b02dbbd26d47,69b95efdef24cd8a694e89ee,69b9600266ec37dd7a36d1f3,0.0688,0.0688,0,87,87,36,1,threeone,,,,,,,,,,,,,,,,,,,,,,,,,,,,,,,,,,,,,,,,,,,,,,,,,,,,,,,,,,,,,,,,,,,,,,,,,,,,,,,,,,,,,,,,,,,,,,,,,,,,,,,,,,,,,,,,,,,,,,,,,,,,,,,,,,,,,,,,,
,,667ebb747b43b02dbbd26d47,2026-03-17_16h07.28.798,kallum_motion_pilot_GIST_update_2,2026.1.1,Win32,30.03003003,667ebb747b43b02dbbd26d47,69b95efdef24cd8a694e89ee,69b9600266ec37dd7a36d1f3,0.069,0.0691,0,88,88,138,1,sixfive,,,,,,,,,,,,,,,,,,,,,,,,,,,,,,,,,,,,,,,,,,,,,,,,,,,,,,,,,,,,,,,,,,,,,,,,,,,,,,,,,,,,,,,,,,,,,,,,,,,,,,,,,,,,,,,,,,,,,,,,,,,,,,,,,,,,,,,,,
,,667ebb747b43b02dbbd26d47,2026-03-17_16h07.28.798,kallum_motion_pilot_GIST_update_2,2026.1.1,Win32,30.03003003,667ebb747b43b02dbbd26d47,69b95efdef24cd8a694e89ee,69b9600266ec37dd7a36d1f3,0.0694,0.0694,0,89,89,56,1,onetwo,,,,,,,,,,,,,,,,,,,,,,,,,,,,,,,,,,,,,,,,,,,,,,,,,,,,,,,,,,,,,,,,,,,,,,,,,,,,,,,,,,,,,,,,,,,,,,,,,,,,,,,,,,,,,,,,,,,,,,,,,,,,,,,,,,,,,,,,,
,,667ebb747b43b02dbbd26d47,2026-03-17_16h07.28.798,kallum_motion_pilot_GIST_update_2,2026.1.1,Win32,30.03003003,667ebb747b43b02dbbd26d47,69b95efdef24cd8a694e89ee,69b9600266ec37dd7a36d1f3,0.0697,0.0697,0,90,90,27,1,twofour,,,,,,,,,,,,,,,,,,,,,,,,,,,,,,,,,,,,,,,,,,,,,,,,,,,,,,,,,,,,,,,,,,,,,,,,,,,,,,,,,,,,,,,,,,,,,,,,,,,,,,,,,,,,,,,,,,,,,,,,,,,,,,,,,,,,,,,,,
,,667ebb747b43b02dbbd26d47,2026-03-17_16h07.28.798,kallum_motion_pilot_GIST_update_2,2026.1.1,Win32,30.03003003,667ebb747b43b02dbbd26d47,69b95efdef24cd8a694e89ee,69b9600266ec37dd7a36d1f3,0.07,0.07,0,91,91,47,1,fourthree,,,,,,,,,,,,,,,,,,,,,,,,,,,,,,,,,,,,,,,,,,,,,,,,,,,,,,,,,,,,,,,,,,,,,,,,,,,,,,,,,,,,,,,,,,,,,,,,,,,,,,,,,,,,,,,,,,,,,,,,,,,,,,,,,,,,,,,,,
,,667ebb747b43b02dbbd26d47,2026-03-17_16h07.28.798,kallum_motion_pilot_GIST_update_2,2026.1.1,Win32,30.03003003,667ebb747b43b02dbbd26d47,69b95efdef24cd8a694e89ee,69b9600266ec37dd7a36d1f3,0.0703,0.0703,0,92,92,157,1,seveneight,,,,,,,,,,,,,,,,,,,,,,,,,,,,,,,,,,,,,,,,,,,,,,,,,,,,,,,,,,,,,,,,,,,,,,,,,,,,,,,,,,,,,,,,,,,,,,,,,,,,,,,,,,,,,,,,,,,,,,,,,,,,,,,,,,,,,,,,,
,,667ebb747b43b02dbbd26d47,2026-03-17_16h07.28.798,kallum_motion_pilot_GIST_update_2,2026.1.1,Win32,30.03003003,667ebb747b43b02dbbd26d47,69b95efdef24cd8a694e89ee,69b9600266ec37dd7a36d1f3,0.0708,0.0709,0,93,93,81,1,fiveseven,,,,,,,,,,,,,,,,,,,,,,,,,,,,,,,,,,,,,,,,,,,,,,,,,,,,,,,,,,,,,,,,,,,,,,,,,,,,,,,,,,,,,,,,,,,,,,,,,,,,,,,,,,,,,,,,,,,,,,,,,,,,,,,,,,,,,,,,,
,,667ebb747b43b02dbbd26d47,2026-03-17_16h07.28.798,kallum_motion_pilot_GIST_update_2,2026.1.1,Win32,30.03003003,667ebb747b43b02dbbd26d47,69b95efdef24cd8a694e89ee,69b9600266ec37dd7a36d1f3,0.0711,0.0712,0,94,94,73,1,onethree,,,,,,,,,,,,,,,,,,,,,,,,,,,,,,,,,,,,,,,,,,,,,,,,,,,,,,,,,,,,,,,,,,,,,,,,,,,,,,,,,,,,,,,,,,,,,,,,,,,,,,,,,,,,,,,,,,,,,,,,,,,,,,,,,,,,,,,,,
,,667ebb747b43b02dbbd26d47,2026-03-17_16h07.28.798,kallum_motion_pilot_GIST_update_2,2026.1.1,Win32,30.03003003,667ebb747b43b02dbbd26d47,69b95efdef24cd8a694e89ee,69b9600266ec37dd7a36d1f3,0.0715,0.0715,0,95,95,53,1,threefour,,,,,,,,,,,,,,,,,,,,,,,,,,,,,,,,,,,,,,,,,,,,,,,,,,,,,,,,,,,,,,,,,,,,,,,,,,,,,,,,,,,,,,,,,,,,,,,,,,,,,,,,,,,,,,,,,,,,,,,,,,,,,,,,,,,,,,,,,
,,667ebb747b43b02dbbd26d47,2026-03-17_16h07.28.798,kallum_motion_pilot_GIST_update_2,2026.1.1,Win32,30.03003003,667ebb747b43b02dbbd26d47,69b95efdef24cd8a694e89ee,69b9600266ec37dd7a36d1f3,0.0718,0.0719,0,96,96,37,1,threefour,,,,,,,,,,,,,,,,,,,,,,,,,,,,,,,,,,,,,,,,,,,,,,,,,,,,,,,,,,,,,,,,,,,,,,,,,,,,,,,,,,,,,,,,,,,,,,,,,,,,,,,,,,,,,,,,,,,,,,,,,,,,,,,,,,,,,,,,,
,,667ebb747b43b02dbbd26d47,2026-03-17_16h07.28.798,kallum_motion_pilot_GIST_update_2,2026.1.1,Win32,30.03003003,667ebb747b43b02dbbd26d47,69b95efdef24cd8a694e89ee,69b9600266ec37dd7a36d1f3,0.0724,0.0725,0,97,97,66,1,twoone,,,,,,,,,,,,,,,,,,,,,,,,,,,,,,,,,,,,,,,,,,,,,,,,,,,,,,,,,,,,,,,,,,,,,,,,,,,,,,,,,,,,,,,,,,,,,,,,,,,,,,,,,,,,,,,,,,,,,,,,,,,,,,,,,,,,,,,,,
,,667ebb747b43b02dbbd26d47,2026-03-17_16h07.28.798,kallum_motion_pilot_GIST_update_2,2026.1.1,Win32,30.03003003,667ebb747b43b02dbbd26d47,69b95efdef24cd8a694e89ee,69b9600266ec37dd7a36d1f3,0.0727,0.0727,0,98,98,161,1,fiveseven,,,,,,,,,,,,,,,,,,,,,,,,,,,,,,,,,,,,,,,,,,,,,,,,,,,,,,,,,,,,,,,,,,,,,,,,,,,,,,,,,,,,,,,,,,,,,,,,,,,,,,,,,,,,,,,,,,,,,,,,,,,,,,,,,,,,,,,,,
,,667ebb747b43b02dbbd26d47,2026-03-17_16h07.28.798,kallum_motion_pilot_GIST_update_2,2026.1.1,Win32,30.03003003,667ebb747b43b02dbbd26d47,69b95efdef24cd8a694e89ee,69b9600266ec37dd7a36d1f3,0.0733,0.0733,0,99,99,93,1,seveneight,,,,,,,,,,,,,,,,,,,,,,,,,,,,,,,,,,,,,,,,,,,,,,,,,,,,,,,,,,,,,,,,,,,,,,,,,,,,,,,,,,,,,,,,,,,,,,,,,,,,,,,,,,,,,,,,,,,,,,,,,,,,,,,,,,,,,,,,,
,,667ebb747b43b02dbbd26d47,2026-03-17_16h07.28.798,kallum_motion_pilot_GIST_update_2,2026.1.1,Win32,30.03003003,667ebb747b43b02dbbd26d47,69b95efdef24cd8a694e89ee,69b9600266ec37dd7a36d1f3,0.0739,0.0739,0,100,100,48,1,onetwo,,,,,,,,,,,,,,,,,,,,,,,,,,,,,,,,,,,,,,,,,,,,,,,,,,,,,,,,,,,,,,,,,,,,,,,,,,,,,,,,,,,,,,,,,,,,,,,,,,,,,,,,,,,,,,,,,,,,,,,,,,,,,,,,,,,,,,,,,
,,667ebb747b43b02dbbd26d47,2026-03-17_16h07.28.798,kallum_motion_pilot_GIST_update_2,2026.1.1,Win32,30.03003003,667ebb747b43b02dbbd26d47,69b95efdef24cd8a694e89ee,69b9600266ec37dd7a36d1f3,0.0742,0.0742,0,101,101,96,1,fivesix,,,,,,,,,,,,,,,,,,,,,,,,,,,,,,,,,,,,,,,,,,,,,,,,,,,,,,,,,,,,,,,,,,,,,,,,,,,,,,,,,,,,,,,,,,,,,,,,,,,,,,,,,,,,,,,,,,,,,,,,,,,,,,,,,,,,,,,,,
,,667ebb747b43b02dbbd26d47,2026-03-17_16h07.28.798,kallum_motion_pilot_GIST_update_2,2026.1.1,Win32,30.03003003,667ebb747b43b02dbbd26d47,69b95efdef24cd8a694e89ee,69b9600266ec37dd7a36d1f3,0.0745,0.0746,0,102,102,67,1,twofour,,,,,,,,,,,,,,,,,,,,,,,,,,,,,,,,,,,,,,,,,,,,,,,,,,,,,,,,,,,,,,,,,,,,,,,,,,,,,,,,,,,,,,,,,,,,,,,,,,,,,,,,,,,,,,,,,,,,,,,,,,,,,,,,,,,,,,,,,
,,667ebb747b43b02dbbd26d47,2026-03-17_16h07.28.798,kallum_motion_pilot_GIST_update_2,2026.1.1,Win32,30.03003003,667ebb747b43b02dbbd26d47,69b95efdef24cd8a694e89ee,69b9600266ec37dd7a36d1f3,0.0748,0.0749,0,103,103,108,1,sevenfive,,,,,,,,,,,,,,,,,,,,,,,,,,,,,,,,,,,,,,,,,,,,,,,,,,,,,,,,,,,,,,,,,,,,,,,,,,,,,,,,,,,,,,,,,,,,,,,,,,,,,,,,,,,,,,,,,,,,,,,,,,,,,,,,,,,,,,,,,
,,667ebb747b43b02dbbd26d47,2026-03-17_16h07.28.798,kallum_motion_pilot_GIST_update_2,2026.1.1,Win32,30.03003003,667ebb747b43b02dbbd26d47,69b95efdef24cd8a694e89ee,69b9600266ec37dd7a36d1f3,0.0752,0.0752,0,104,104,12,1,threeone,,,,,,,,,,,,,,,,,,,,,,,,,,,,,,,,,,,,,,,,,,,,,,,,,,,,,,,,,,,,,,,,,,,,,,,,,,,,,,,,,,,,,,,,,,,,,,,,,,,,,,,,,,,,,,,,,,,,,,,,,,,,,,,,,,,,,,,,,
,,667ebb747b43b02dbbd26d47,2026-03-17_16h07.28.798,kallum_motion_pilot_GIST_update_2,2026.1.1,Win32,30.03003003,667ebb747b43b02dbbd26d47,69b95efdef24cd8a694e89ee,69b9600266ec37dd7a36d1f3,0.0754,0.0771,0,105,105,55,1,fourthree,,,,,,,,,,,,,,,,,,,,,,,,,,,,,,,,,,,,,,,,,,,,,,,,,,,,,,,,,,,,,,,,,,,,,,,,,,,,,,,,,,,,,,,,,,,,,,,,,,,,,,,,,,,,,,,,,,,,,,,,,,,,,,,,,,,,,,,,,
,,667ebb747b43b02dbbd26d47,2026-03-17_16h07.28.798,kallum_motion_pilot_GIST_update_2,2026.1.1,Win32,30.03003003,667ebb747b43b02dbbd26d47,69b95efdef24cd8a694e89ee,69b9600266ec37dd7a36d1f3,0.0776,0.0776,0,106,106,29,1,threefour,,,,,,,,,,,,,,,,,,,,,,,,,,,,,,,,,,,,,,,,,,,,,,,,,,,,,,,,,,,,,,,,,,,,,,,,,,,,,,,,,,,,,,,,,,,,,,,,,,,,,,,,,,,,,,,,,,,,,,,,,,,,,,,,,,,,,,,,,
,,667ebb747b43b02dbbd26d47,2026-03-17_16h07.28.798,kallum_motion_pilot_GIST_update_2,2026.1.1,Win32,30.03003003,667ebb747b43b02dbbd26d47,69b95efdef24cd8a694e89ee,69b9600266ec37dd7a36d1f3,0.0779,0.0779,0,107,107,90,1,sixfive,,,,,,,,,,,,,,,,,,,,,,,,,,,,,,,,,,,,,,,,,,,,,,,,,,,,,,,,,,,,,,,,,,,,,,,,,,,,,,,,,,,,,,,,,,,,,,,,,,,,,,,,,,,,,,,,,,,,,,,,,,,,,,,,,,,,,,,,,
,,667ebb747b43b02dbbd26d47,2026-03-17_16h07.28.798,kallum_motion_pilot_GIST_update_2,2026.1.1,Win32,30.03003003,667ebb747b43b02dbbd26d47,69b95efdef24cd8a694e89ee,69b9600266ec37dd7a36d1f3,0.0782,0.0782,0,108,108,145,1,fiveseven,,,,,,,,,,,,,,,,,,,,,,,,,,,,,,,,,,,,,,,,,,,,,,,,,,,,,,,,,,,,,,,,,,,,,,,,,,,,,,,,,,,,,,,,,,,,,,,,,,,,,,,,,,,,,,,,,,,,,,,,,,,,,,,,,,,,,,,,,
,,667ebb747b43b02dbbd26d47,2026-03-17_16h07.28.798,kallum_motion_pilot_GIST_update_2,2026.1.1,Win32,30.03003003,667ebb747b43b02dbbd26d47,69b95efdef24cd8a694e89ee,69b9600266ec37dd7a36d1f3,0.0785,0.0785,0,109,109,62,1,fourtwo,,,,,,,,,,,,,,,,,,,,,,,,,,,,,,,,,,,,,,,,,,,,,,,,,,,,,,,,,,,,,,,,,,,,,,,,,,,,,,,,,,,,,,,,,,,,,,,,,,,,,,,,,,,,,,,,,,,,,,,,,,,,,,,,,,,,,,,,,
,,667ebb747b43b02dbbd26d47,2026-03-17_16h07.28.798,kallum_motion_pilot_GIST_update_2,2026.1.1,Win32,30.03003003,667ebb747b43b02dbbd26d47,69b95efdef24cd8a694e89ee,69b9600266ec37dd7a36d1f3,0.0787,0.0788,0,110,110,134,1,eightsix,,,,,,,,,,,,,,,,,,,,,,,,,,,,,,,,,,,,,,,,,,,,,,,,,,,,,,,,,,,,,,,,,,,,,,,,,,,,,,,,,,,,,,,,,,,,,,,,,,,,,,,,,,,,,,,,,,,,,,,,,,,,,,,,,,,,,,,,,
,,667ebb747b43b02dbbd26d47,2026-03-17_16h07.28.798,kallum_motion_pilot_GIST_update_2,2026.1.1,Win32,30.03003003,667ebb747b43b02dbbd26d47,69b95efdef24cd8a694e89ee,69b9600266ec37dd7a36d1f3,0.0791,0.0791,0,111,111,41,1,onethree,,,,,,,,,,,,,,,,,,,,,,,,,,,,,,,,,,,,,,,,,,,,,,,,,,,,,,,,,,,,,,,,,,,,,,,,,,,,,,,,,,,,,,,,,,,,,,,,,,,,,,,,,,,,,,,,,,,,,,,,,,,,,,,,,,,,,,,,,
,,667ebb747b43b02dbbd26d47,2026-03-17_16h07.28.798,kallum_motion_pilot_GIST_update_2,2026.1.1,Win32,30.03003003,667ebb747b43b02dbbd26d47,69b95efdef24cd8a694e89ee,69b9600266ec37dd7a36d1f3,0.0794,0.0794,0,112,112,54,1,fourtwo,,,,,,,,,,,,,,,,,,,,,,,,,,,,,,,,,,,,,,,,,,,,,,,,,,,,,,,,,,,,,,,,,,,,,,,,,,,,,,,,,,,,,,,,,,,,,,,,,,,,,,,,,,,,,,,,,,,,,,,,,,,,,,,,,,,,,,,,,
,,667ebb747b43b02dbbd26d47,2026-03-17_16h07.28.798,kallum_motion_pilot_GIST_update_2,2026.1.1,Win32,30.03003003,667ebb747b43b02dbbd26d47,69b95efdef24cd8a694e89ee,69b9600266ec37dd7a36d1f3,0.0797,0.0798,0,113,113,28,1,threeone,,,,,,,,,,,,,,,,,,,,,,,,,,,,,,,,,,,,,,,,,,,,,,,,,,,,,,,,,,,,,,,,,,,,,,,,,,,,,,,,,,,,,,,,,,,,,,,,,,,,,,,,,,,,,,,,,,,,,,,,,,,,,,,,,,,,,,,,,
,,667ebb747b43b02dbbd26d47,2026-03-17_16h07.28.798,kallum_motion_pilot_GIST_update_2,2026.1.1,Win32,30.03003003,667ebb747b43b02dbbd26d47,69b95efdef24cd8a694e89ee,69b9600266ec37dd7a36d1f3,0.08,0.08,0,114,114,117,1,seveneight,,,,,,,,,,,,,,,,,,,,,,,,,,,,,,,,,,,,,,,,,,,,,,,,,,,,,,,,,,,,,,,,,,,,,,,,,,,,,,,,,,,,,,,,,,,,,,,,,,,,,,,,,,,,,,,,,,,,,,,,,,,,,,,,,,,,,,,,,
,,667ebb747b43b02dbbd26d47,2026-03-17_16h07.28.798,kallum_motion_pilot_GIST_update_2,2026.1.1,Win32,30.03003003,667ebb747b43b02dbbd26d47,69b95efdef24cd8a694e89ee,69b9600266ec37dd7a36d1f3,0.0805,0.0805,0,115,115,116,1,sevenfive,,,,,,,,,,,,,,,,,,,,,,,,,,,,,,,,,,,,,,,,,,,,,,,,,,,,,,,,,,,,,,,,,,,,,,,,,,,,,,,,,,,,,,,,,,,,,,,,,,,,,,,,,,,,,,,,,,,,,,,,,,,,,,,,,,,,,,,,,
,,667ebb747b43b02dbbd26d47,2026-03-17_16h07.28.798,kallum_motion_pilot_GIST_update_2,2026.1.1,Win32,30.03003003,667ebb747b43b02dbbd26d47,69b95efdef24cd8a694e89ee,69b9600266ec37dd7a36d1f3,0.0812,0.0812,0,116,116,30,1,fourtwo,,,,,,,,,,,,,,,,,,,,,,,,,,,,,,,,,,,,,,,,,,,,,,,,,,,,,,,,,,,,,,,,,,,,,,,,,,,,,,,,,,,,,,,,,,,,,,,,,,,,,,,,,,,,,,,,,,,,,,,,,,,,,,,,,,,,,,,,,
,,667ebb747b43b02dbbd26d47,2026-03-17_16h07.28.798,kallum_motion_pilot_GIST_update_2,2026.1.1,Win32,30.03003003,667ebb747b43b02dbbd26d47,69b95efdef24cd8a694e89ee,69b9600266ec37dd7a36d1f3,0.0817,0.0819,0,117,117,72,1,onetwo,,,,,,,,,,,,,,,,,,,,,,,,,,,,,,,,,,,,,,,,,,,,,,,,,,,,,,,,,,,,,,,,,,,,,,,,,,,,,,,,,,,,,,,,,,,,,,,,,,,,,,,,,,,,,,,,,,,,,,,,,,,,,,,,,,,,,,,,,
,,667ebb747b43b02dbbd26d47,2026-03-17_16h07.28.798,kallum_motion_pilot_GIST_update_2,2026.1.1,Win32,30.03003003,667ebb747b43b02dbbd26d47,69b95efdef24cd8a694e89ee,69b9600266ec37dd7a36d1f3,0.0822,0.0823,0,118,118,120,1,fivesix,,,,,,,,,,,,,,,,,,,,,,,,,,,,,,,,,,,,,,,,,,,,,,,,,,,,,,,,,,,,,,,,,,,,,,,,,,,,,,,,,,,,,,,,,,,,,,,,,,,,,,,,,,,,,,,,,,,,,,,,,,,,,,,,,,,,,,,,,
,,667ebb747b43b02dbbd26d47,2026-03-17_16h07.28.798,kallum_motion_pilot_GIST_update_2,2026.1.1,Win32,30.03003003,667ebb747b43b02dbbd26d47,69b95efdef24cd8a694e89ee,69b9600266ec37dd7a36d1f3,0.0826,0.0827,0,119,119,104,1,fivesix,,,,,,,,,,,,,,,,,,,,,,,,,,,,,,,,,,,,,,,,,,,,,,,,,,,,,,,,,,,,,,,,,,,,,,,,,,,,,,,,,,,,,,,,,,,,,,,,,,,,,,,,,,,,,,,,,,,,,,,,,,,,,,,,,,,,,,,,,
,,667ebb747b43b02dbbd26d47,2026-03-17_16h07.28.798,kallum_motion_pilot_GIST_update_2,2026.1.1,Win32,30.03003003,667ebb747b43b02dbbd26d47,69b95efdef24cd8a694e89ee,69b9600266ec37dd7a36d1f3,0.0829,0.083,0,120,120,17,1,onethree,,,,,,,,,,,,,,,,,,,,,,,,,,,,,,,,,,,,,,,,,,,,,,,,,,,,,,,,,,,,,,,,,,,,,,,,,,,,,,,,,,,,,,,,,,,,,,,,,,,,,,,,,,,,,,,,,,,,,,,,,,,,,,,,,,,,,,,,,
,,667ebb747b43b02dbbd26d47,2026-03-17_16h07.28.798,kallum_motion_pilot_GIST_update_2,2026.1.1,Win32,30.03003003,667ebb747b43b02dbbd26d47,69b95efdef24cd8a694e89ee,69b9600266ec37dd7a36d1f3,0.0832,0.0833,0,121,121,101,1,seveneight,,,,,,,,,,,,,,,,,,,,,,,,,,,,,,,,,,,,,,,,,,,,,,,,,,,,,,,,,,,,,,,,,,,,,,,,,,,,,,,,,,,,,,,,,,,,,,,,,,,,,,,,,,,,,,,,,,,,,,,,,,,,,,,,,,,,,,,,,
,,667ebb747b43b02dbbd26d47,2026-03-17_16h07.28.798,kallum_motion_pilot_GIST_update_2,2026.1.1,Win32,30.03003003,667ebb747b43b02dbbd26d47,69b95efdef24cd8a694e89ee,69b9600266ec37dd7a36d1f3,0.0835,0.0835,0,122,122,131,1,sixeight,,,,,,,,,,,,,,,,,,,,,,,,,,,,,,,,,,,,,,,,,,,,,,,,,,,,,,,,,,,,,,,,,,,,,,,,,,,,,,,,,,,,,,,,,,,,,,,,,,,,,,,,,,,,,,,,,,,,,,,,,,,,,,,,,,,,,,,,,
,,667ebb747b43b02dbbd26d47,2026-03-17_16h07.28.798,kallum_motion_pilot_GIST_update_2,2026.1.1,Win32,30.03003003,667ebb747b43b02dbbd26d47,69b95efdef24cd8a694e89ee,69b9600266ec37dd7a36d1f3,0.0838,0.0839,0,123,123,156,1,sevenfive,,,,,,,,,,,,,,,,,,,,,,,,,,,,,,,,,,,,,,,,,,,,,,,,,,,,,,,,,,,,,,,,,,,,,,,,,,,,,,,,,,,,,,,,,,,,,,,,,,,,,,,,,,,,,,,,,,,,,,,,,,,,,,,,,,,,,,,,,
,,667ebb747b43b02dbbd26d47,2026-03-17_16h07.28.798,kallum_motion_pilot_GIST_update_2,2026.1.1,Win32,30.03003003,667ebb747b43b02dbbd26d47,69b95efdef24cd8a694e89ee,69b9600266ec37dd7a36d1f3,0.0841,0.0841,0,124,124,23,1,fourthree,,,,,,,,,,,,,,,,,,,,,,,,,,,,,,,,,,,,,,,,,,,,,,,,,,,,,,,,,,,,,,,,,,,,,,,,,,,,,,,,,,,,,,,,,,,,,,,,,,,,,,,,,,,,,,,,,,,,,,,,,,,,,,,,,,,,,,,,,
,,667ebb747b43b02dbbd26d47,2026-03-17_16h07.28.798,kallum_motion_pilot_GIST_update_2,2026.1.1,Win32,30.03003003,667ebb747b43b02dbbd26d47,69b95efdef24cd8a694e89ee,69b9600266ec37dd7a36d1f3,0.0844,0.0845,0,125,125,50,1,twoone,,,,,,,,,,,,,,,,,,,,,,,,,,,,,,,,,,,,,,,,,,,,,,,,,,,,,,,,,,,,,,,,,,,,,,,,,,,,,,,,,,,,,,,,,,,,,,,,,,,,,,,,,,,,,,,,,,,,,,,,,,,,,,,,,,,,,,,,,
,,667ebb747b43b02dbbd26d47,2026-03-17_16h07.28.798,kallum_motion_pilot_GIST_update_2,2026.1.1,Win32,30.03003003,667ebb747b43b02dbbd26d47,69b95efdef24cd8a694e89ee,69b9600266ec37dd7a36d1f3,0.0847,0.0847,0,126,126,124,1,sevenfive,,,,,,,,,,,,,,,,,,,,,,,,,,,,,,,,,,,,,,,,,,,,,,,,,,,,,,,,,,,,,,,,,,,,,,,,,,,,,,,,,,,,,,,,,,,,,,,,,,,,,,,,,,,,,,,,,,,,,,,,,,,,,,,,,,,,,,,,,
,,667ebb747b43b02dbbd26d47,2026-03-17_16h07.28.798,kallum_motion_pilot_GIST_update_2,2026.1.1,Win32,30.03003003,667ebb747b43b02dbbd26d47,69b95efdef24cd8a694e89ee,69b9600266ec37dd7a36d1f3,0.085,0.0851,0,127,127,39,1,fourthree,,,,,,,,,,,,,,,,,,,,,,,,,,,,,,,,,,,,,,,,,,,,,,,,,,,,,,,,,,,,,,,,,,,,,,,,,,,,,,,,,,,,,,,,,,,,,,,,,,,,,,,,,,,,,,,,,,,,,,,,,,,,,,,,,,,,,,,,,
,,667ebb747b43b02dbbd26d47,2026-03-17_16h07.28.798,kallum_motion_pilot_GIST_update_2,2026.1.1,Win32,30.03003003,667ebb747b43b02dbbd26d47,69b95efdef24cd8a694e89ee,69b9600266ec37dd7a36d1f3,0.0853,0.0854,0,128,128,122,1,sixfive,,,,,,,,,,,,,,,,,,,,,,,,,,,,,,,,,,,,,,,,,,,,,,,,,,,,,,,,,,,,,,,,,,,,,,,,,,,,,,,,,,,,,,,,,,,,,,,,,,,,,,,,,,,,,,,,,,,,,,,,,,,,,,,,,,,,,,,,,
,,667ebb747b43b02dbbd26d47,2026-03-17_16h07.28.798,kallum_motion_pilot_GIST_update_2,2026.1.1,Win32,30.03003003,667ebb747b43b02dbbd26d47,69b95efdef24cd8a694e89ee,69b9600266ec37dd7a36d1f3,0.0857,0.0857,0,129,129,139,1,sixeight,,,,,,,,,,,,,,,,,,,,,,,,,,,,,,,,,,,,,,,,,,,,,,,,,,,,,,,,,,,,,,,,,,,,,,,,,,,,,,,,,,,,,,,,,,,,,,,,,,,,,,,,,,,,,,,,,,,,,,,,,,,,,,,,,,,,,,,,,
,,667ebb747b43b02dbbd26d47,2026-03-17_16h07.28.798,kallum_motion_pilot_GIST_update_2,2026.1.1,Win32,30.03003003,667ebb747b43b02dbbd26d47,69b95efdef24cd8a694e89ee,69b9600266ec37dd7a36d1f3,0.0859,0.086,0,130,130,49,1,onethree,,,,,,,,,,,,,,,,,,,,,,,,,,,,,,,,,,,,,,,,,,,,,,,,,,,,,,,,,,,,,,,,,,,,,,,,,,,,,,,,,,,,,,,,,,,,,,,,,,,,,,,,,,,,,,,,,,,,,,,,,,,,,,,,,,,,,,,,,
,,667ebb747b43b02dbbd26d47,2026-03-17_16h07.28.798,kallum_motion_pilot_GIST_update_2,2026.1.1,Win32,30.03003003,667ebb747b43b02dbbd26d47,69b95efdef24cd8a694e89ee,69b9600266ec37dd7a36d1f3,0.0863,0.0863,0,131,131,103,1,eightseven,,,,,,,,,,,,,,,,,,,,,,,,,,,,,,,,,,,,,,,,,,,,,,,,,,,,,,,,,,,,,,,,,,,,,,,,,,,,,,,,,,,,,,,,,,,,,,,,,,,,,,,,,,,,,,,,,,,,,,,,,,,,,,,,,,,,,,,,,
,,667ebb747b43b02dbbd26d47,2026-03-17_16h07.28.798,kallum_motion_pilot_GIST_update_2,2026.1.1,Win32,30.03003003,667ebb747b43b02dbbd26d47,69b95efdef24cd8a694e89ee,69b9600266ec37dd7a36d1f3,0.0865,0.0865,0,132,132,148,1,sevenfive,,,,,,,,,,,,,,,,,,,,,,,,,,,,,,,,,,,,,,,,,,,,,,,,,,,,,,,,,,,,,,,,,,,,,,,,,,,,,,,,,,,,,,,,,,,,,,,,,,,,,,,,,,,,,,,,,,,,,,,,,,,,,,,,,,,,,,,,,
,,667ebb747b43b02dbbd26d47,2026-03-17_16h07.28.798,kallum_motion_pilot_GIST_update_2,2026.1.1,Win32,30.03003003,667ebb747b43b02dbbd26d47,69b95efdef24cd8a694e89ee,69b9600266ec37dd7a36d1f3,0.0868,0.0868,0,133,133,46,1,fourtwo,,,,,,,,,,,,,,,,,,,,,,,,,,,,,,,,,,,,,,,,,,,,,,,,,,,,,,,,,,,,,,,,,,,,,,,,,,,,,,,,,,,,,,,,,,,,,,,,,,,,,,,,,,,,,,,,,,,,,,,,,,,,,,,,,,,,,,,,,
,,667ebb747b43b02dbbd26d47,2026-03-17_16h07.28.798,kallum_motion_pilot_GIST_update_2,2026.1.1,Win32,30.03003003,667ebb747b43b02dbbd26d47,69b95efdef24cd8a694e89ee,69b9600266ec37dd7a36d1f3,0.0873,0.0873,0,134,134,34,1,twoone,,,,,,,,,,,,,,,,,,,,,,,,,,,,,,,,,,,,,,,,,,,,,,,,,,,,,,,,,,,,,,,,,,,,,,,,,,,,,,,,,,,,,,,,,,,,,,,,,,,,,,,,,,,,,,,,,,,,,,,,,,,,,,,,,,,,,,,,,
,,667ebb747b43b02dbbd26d47,2026-03-17_16h07.28.798,kallum_motion_pilot_GIST_update_2,2026.1.1,Win32,30.03003003,667ebb747b43b02dbbd26d47,69b95efdef24cd8a694e89ee,69b9600266ec37dd7a36d1f3,0.0875,0.0876,0,135,135,115,1,sixeight,,,,,,,,,,,,,,,,,,,,,,,,,,,,,,,,,,,,,,,,,,,,,,,,,,,,,,,,,,,,,,,,,,,,,,,,,,,,,,,,,,,,,,,,,,,,,,,,,,,,,,,,,,,,,,,,,,,,,,,,,,,,,,,,,,,,,,,,,
,,667ebb747b43b02dbbd26d47,2026-03-17_16h07.28.798,kallum_motion_pilot_GIST_update_2,2026.1.1,Win32,30.03003003,667ebb747b43b02dbbd26d47,69b95efdef24cd8a694e89ee,69b9600266ec37dd7a36d1f3,0.088,0.088,0,136,136,44,1,threeone,,,,,,,,,,,,,,,,,,,,,,,,,,,,,,,,,,,,,,,,,,,,,,,,,,,,,,,,,,,,,,,,,,,,,,,,,,,,,,,,,,,,,,,,,,,,,,,,,,,,,,,,,,,,,,,,,,,,,,,,,,,,,,,,,,,,,,,,,
,,667ebb747b43b02dbbd26d47,2026-03-17_16h07.28.798,kallum_motion_pilot_GIST_update_2,2026.1.1,Win32,30.03003003,667ebb747b43b02dbbd26d47,69b95efdef24cd8a694e89ee,69b9600266ec37dd7a36d1f3,0.0884,0.0884,0,137,137,76,1,threeone,,,,,,,,,,,,,,,,,,,,,,,,,,,,,,,,,,,,,,,,,,,,,,,,,,,,,,,,,,,,,,,,,,,,,,,,,,,,,,,,,,,,,,,,,,,,,,,,,,,,,,,,,,,,,,,,,,,,,,,,,,,,,,,,,,,,,,,,,
,,667ebb747b43b02dbbd26d47,2026-03-17_16h07.28.798,kallum_motion_pilot_GIST_update_2,2026.1.1,Win32,30.03003003,667ebb747b43b02dbbd26d47,69b95efdef24cd8a694e89ee,69b9600266ec37dd7a36d1f3,0.0887,0.0887,0,138,138,127,1,eightseven,,,,,,,,,,,,,,,,,,,,,,,,,,,,,,,,,,,,,,,,,,,,,,,,,,,,,,,,,,,,,,,,,,,,,,,,,,,,,,,,,,,,,,,,,,,,,,,,,,,,,,,,,,,,,,,,,,,,,,,,,,,,,,,,,,,,,,,,,
,,667ebb747b43b02dbbd26d47,2026-03-17_16h07.28.798,kallum_motion_pilot_GIST_update_2,2026.1.1,Win32,30.03003003,667ebb747b43b02dbbd26d47,69b95efdef24cd8a694e89ee,69b9600266ec37dd7a36d1f3,0.0889,0.0889,0,139,139,106,1,sixfive,,,,,,,,,,,,,,,,,,,,,,,,,,,,,,,,,,,,,,,,,,,,,,,,,,,,,,,,,,,,,,,,,,,,,,,,,,,,,,,,,,,,,,,,,,,,,,,,,,,,,,,,,,,,,,,,,,,,,,,,,,,,,,,,,,,,,,,,,
,,667ebb747b43b02dbbd26d47,2026-03-17_16h07.28.798,kallum_motion_pilot_GIST_update_2,2026.1.1,Win32,30.03003003,667ebb747b43b02dbbd26d47,69b95efdef24cd8a694e89ee,69b9600266ec37dd7a36d1f3,0.0893,0.0893,0,140,140,51,1,twofour,,,,,,,,,,,,,,,,,,,,,,,,,,,,,,,,,,,,,,,,,,,,,,,,,,,,,,,,,,,,,,,,,,,,,,,,,,,,,,,,,,,,,,,,,,,,,,,,,,,,,,,,,,,,,,,,,,,,,,,,,,,,,,,,,,,,,,,,,
,,667ebb747b43b02dbbd26d47,2026-03-17_16h07.28.798,kallum_motion_pilot_GIST_update_2,2026.1.1,Win32,30.03003003,667ebb747b43b02dbbd26d47,69b95efdef24cd8a694e89ee,69b9600266ec37dd7a36d1f3,0.0896,0.0896,0,141,141,154,1,sixfive,,,,,,,,,,,,,,,,,,,,,,,,,,,,,,,,,,,,,,,,,,,,,,,,,,,,,,,,,,,,,,,,,,,,,,,,,,,,,,,,,,,,,,,,,,,,,,,,,,,,,,,,,,,,,,,,,,,,,,,,,,,,,,,,,,,,,,,,,
,,667ebb747b43b02dbbd26d47,2026-03-17_16h07.28.798,kallum_motion_pilot_GIST_update_2,2026.1.1,Win32,30.03003003,667ebb747b43b02dbbd26d47,69b95efdef24cd8a694e89ee,69b9600266ec37dd7a36d1f3,0.0899,0.0899,0,142,142,113,1,fiveseven,,,,,,,,,,,,,,,,,,,,,,,,,,,,,,,,,,,,,,,,,,,,,,,,,,,,,,,,,,,,,,,,,,,,,,,,,,,,,,,,,,,,,,,,,,,,,,,,,,,,,,,,,,,,,,,,,,,,,,,,,,,,,,,,,,,,,,,,,
,,667ebb747b43b02dbbd26d47,2026-03-17_16h07.28.798,kallum_motion_pilot_GIST_update_2,2026.1.1,Win32,30.03003003,667ebb747b43b02dbbd26d47,69b95efdef24cd8a694e89ee,69b9600266ec37dd7a36d1f3,0.0902,0.0903,0,143,143,43,1,twofour,,,,,,,,,,,,,,,,,,,,,,,,,,,,,,,,,,,,,,,,,,,,,,,,,,,,,,,,,,,,,,,,,,,,,,,,,,,,,,,,,,,,,,,,,,,,,,,,,,,,,,,,,,,,,,,,,,,,,,,,,,,,,,,,,,,,,,,,,
,,667ebb747b43b02dbbd26d47,2026-03-17_16h07.28.798,kallum_motion_pilot_GIST_update_2,2026.1.1,Win32,30.03003003,667ebb747b43b02dbbd26d47,69b95efdef24cd8a694e89ee,69b9600266ec37dd7a36d1f3,0.0906,0.0907,0,144,144,7,1,fourthree,,,,,,,,,,,,,,,,,,,,,,,,,,,,,,,,,,,,,,,,,,,,,,,,,,,,,,,,,,,,,,,,,,,,,,,,,,,,,,,,,,,,,,,,,,,,,,,,,,,,,,,,,,,,,,,,,,,,,,,,,,,,,,,,,,,,,,,,,
,,667ebb747b43b02dbbd26d47,2026-03-17_16h07.28.798,kallum_motion_pilot_GIST_update_2,2026.1.1,Win32,30.03003003,667ebb747b43b02dbbd26d47,69b95efdef24cd8a694e89ee,69b9600266ec37dd7a36d1f3,0.0909,0.091,0,145,145,22,1,fourtwo,,,,,,,,,,,,,,,,,,,,,,,,,,,,,,,,,,,,,,,,,,,,,,,,,,,,,,,,,,,,,,,,,,,,,,,,,,,,,,,,,,,,,,,,,,,,,,,,,,,,,,,,,,,,,,,,,,,,,,,,,,,,,,,,,,,,,,,,,
,,667ebb747b43b02dbbd26d47,2026-03-17_16h07.28.798,kallum_motion_pilot_GIST_update_2,2026.1.1,Win32,30.03003003,667ebb747b43b02dbbd26d47,69b95efdef24cd8a694e89ee,69b9600266ec37dd7a36d1f3,0.0912,0.0913,0,146,146,146,1,sixfive,,,,,,,,,,,,,,,,,,,,,,,,,,,,,,,,,,,,,,,,,,,,,,,,,,,,,,,,,,,,,,,,,,,,,,,,,,,,,,,,,,,,,,,,,,,,,,,,,,,,,,,,,,,,,,,,,,,,,,,,,,,,,,,,,,,,,,,,,
,,667ebb747b43b02dbbd26d47,2026-03-17_16h07.28.798,kallum_motion_pilot_GIST_update_2,2026.1.1,Win32,30.03003003,667ebb747b43b02dbbd26d47,69b95efdef24cd8a694e89ee,69b9600266ec37dd7a36d1f3,0.0916,0.0916,0,147,147,57,1,onethree,,,,,,,,,,,,,,,,,,,,,,,,,,,,,,,,,,,,,,,,,,,,,,,,,,,,,,,,,,,,,,,,,,,,,,,,,,,,,,,,,,,,,,,,,,,,,,,,,,,,,,,,,,,,,,,,,,,,,,,,,,,,,,,,,,,,,,,,,
,,667ebb747b43b02dbbd26d47,2026-03-17_16h07.28.798,kallum_motion_pilot_GIST_update_2,2026.1.1,Win32,30.03003003,667ebb747b43b02dbbd26d47,69b95efdef24cd8a694e89ee,69b9600266ec37dd7a36d1f3,0.0919,0.0919,0,148,148,155,1,sixeight,,,,,,,,,,,,,,,,,,,,,,,,,,,,,,,,,,,,,,,,,,,,,,,,,,,,,,,,,,,,,,,,,,,,,,,,,,,,,,,,,,,,,,,,,,,,,,,,,,,,,,,,,,,,,,,,,,,,,,,,,,,,,,,,,,,,,,,,,
,,667ebb747b43b02dbbd26d47,2026-03-17_16h07.28.798,kallum_motion_pilot_GIST_update_2,2026.1.1,Win32,30.03003003,667ebb747b43b02dbbd26d47,69b95efdef24cd8a694e89ee,69b9600266ec37dd7a36d1f3,0.0921,0.0921,0,149,149,150,1,eightsix,,,,,,,,,,,,,,,,,,,,,,,,,,,,,,,,,,,,,,,,,,,,,,,,,,,,,,,,,,,,,,,,,,,,,,,,,,,,,,,,,,,,,,,,,,,,,,,,,,,,,,,,,,,,,,,,,,,,,,,,,,,,,,,,,,,,,,,,,
,,667ebb747b43b02dbbd26d47,2026-03-17_16h07.28.798,kallum_motion_pilot_GIST_update_2,2026.1.1,Win32,30.03003003,667ebb747b43b02dbbd26d47,69b95efdef24cd8a694e89ee,69b9600266ec37dd7a36d1f3,0.0924,0.0924,0,150,150,123,1,sixeight,,,,,,,,,,,,,,,,,,,,,,,,,,,,,,,,,,,,,,,,,,,,,,,,,,,,,,,,,,,,,,,,,,,,,,,,,,,,,,,,,,,,,,,,,,,,,,,,,,,,,,,,,,,,,,,,,,,,,,,,,,,,,,,,,,,,,,,,,
,,667ebb747b43b02dbbd26d47,2026-03-17_16h07.28.798,kallum_motion_pilot_GIST_update_2,2026.1.1,Win32,30.03003003,667ebb747b43b02dbbd26d47,69b95efdef24cd8a694e89ee,69b9600266ec37dd7a36d1f3,0.0927,0.0927,0,151,151,38,1,fourtwo,,,,,,,,,,,,,,,,,,,,,,,,,,,,,,,,,,,,,,,,,,,,,,,,,,,,,,,,,,,,,,,,,,,,,,,,,,,,,,,,,,,,,,,,,,,,,,,,,,,,,,,,,,,,,,,,,,,,,,,,,,,,,,,,,,,,,,,,,
,,667ebb747b43b02dbbd26d47,2026-03-17_16h07.28.798,kallum_motion_pilot_GIST_update_2,2026.1.1,Win32,30.03003003,667ebb747b43b02dbbd26d47,69b95efdef24cd8a694e89ee,69b9600266ec37dd7a36d1f3,0.093,0.093,0,152,152,125,1,seveneight,,,,,,,,,,,,,,,,,,,,,,,,,,,,,,,,,,,,,,,,,,,,,,,,,,,,,,,,,,,,,,,,,,,,,,,,,,,,,,,,,,,,,,,,,,,,,,,,,,,,,,,,,,,,,,,,,,,,,,,,,,,,,,,,,,,,,,,,,
,,667ebb747b43b02dbbd26d47,2026-03-17_16h07.28.798,kallum_motion_pilot_GIST_update_2,2026.1.1,Win32,30.03003003,667ebb747b43b02dbbd26d47,69b95efdef24cd8a694e89ee,69b9600266ec37dd7a36d1f3,0.0932,0.0932,0,153,153,143,1,eightseven,,,,,,,,,,,,,,,,,,,,,,,,,,,,,,,,,,,,,,,,,,,,,,,,,,,,,,,,,,,,,,,,,,,,,,,,,,,,,,,,,,,,,,,,,,,,,,,,,,,,,,,,,,,,,,,,,,,,,,,,,,,,,,,,,,,,,,,,,
,,667ebb747b43b02dbbd26d47,2026-03-17_16h07.28.798,kallum_motion_pilot_GIST_update_2,2026.1.1,Win32,30.03003003,667ebb747b43b02dbbd26d47,69b95efdef24cd8a694e89ee,69b9600266ec37dd7a36d1f3,0.0935,0.0935,0,154,154,110,1,eightsix,,,,,,,,,,,,,,,,,,,,,,,,,,,,,,,,,,,,,,,,,,,,,,,,,,,,,,,,,,,,,,,,,,,,,,,,,,,,,,,,,,,,,,,,,,,,,,,,,,,,,,,,,,,,,,,,,,,,,,,,,,,,,,,,,,,,,,,,,
,,667ebb747b43b02dbbd26d47,2026-03-17_16h07.28.798,kallum_motion_pilot_GIST_update_2,2026.1.1,Win32,30.03003003,667ebb747b43b02dbbd26d47,69b95efdef24cd8a694e89ee,69b9600266ec37dd7a36d1f3,0.0938,0.0938,0,155,155,118,1,eightsix,,,,,,,,,,,,,,,,,,,,,,,,,,,,,,,,,,,,,,,,,,,,,,,,,,,,,,,,,,,,,,,,,,,,,,,,,,,,,,,,,,,,,,,,,,,,,,,,,,,,,,,,,,,,,,,,,,,,,,,,,,,,,,,,,,,,,,,,,
,,667ebb747b43b02dbbd26d47,2026-03-17_16h07.28.798,kallum_motion_pilot_GIST_update_2,2026.1.1,Win32,30.03003003,667ebb747b43b02dbbd26d47,69b95efdef24cd8a694e89ee,69b9600266ec37dd7a36d1f3,0.0941,0.0941,0,156,156,109,1,seveneight,,,,,,,,,,,,,,,,,,,,,,,,,,,,,,,,,,,,,,,,,,,,,,,,,,,,,,,,,,,,,,,,,,,,,,,,,,,,,,,,,,,,,,,,,,,,,,,,,,,,,,,,,,,,,,,,,,,,,,,,,,,,,,,,,,,,,,,,,
,,667ebb747b43b02dbbd26d47,2026-03-17_16h07.28.798,kallum_motion_pilot_GIST_update_2,2026.1.1,Win32,30.03003003,667ebb747b43b02dbbd26d47,69b95efdef24cd8a694e89ee,69b9600266ec37dd7a36d1f3,0.0943,0.0943,0,157,157,61,1,threefour,,,,,,,,,,,,,,,,,,,,,,,,,,,,,,,,,,,,,,,,,,,,,,,,,,,,,,,,,,,,,,,,,,,,,,,,,,,,,,,,,,,,,,,,,,,,,,,,,,,,,,,,,,,,,,,,,,,,,,,,,,,,,,,,,,,,,,,,,
,,667ebb747b43b02dbbd26d47,2026-03-17_16h07.28.798,kallum_motion_pilot_GIST_update_2,2026.1.1,Win32,30.03003003,667ebb747b43b02dbbd26d47,69b95efdef24cd8a694e89ee,69b9600266ec37dd7a36d1f3,0.0946,0.0946,0,158,158,75,1,twofour,,,,,,,,,,,,,,,,,,,,,,,,,,,,,,,,,,,,,,,,,,,,,,,,,,,,,,,,,,,,,,,,,,,,,,,,,,,,,,,,,,,,,,,,,,,,,,,,,,,,,,,,,,,,,,,,,,,,,,,,,,,,,,,,,,,,,,,,,
,,667ebb747b43b02dbbd26d47,2026-03-17_16h07.28.798,kallum_motion_pilot_GIST_update_2,2026.1.1,Win32,30.03003003,667ebb747b43b02dbbd26d47,69b95efdef24cd8a694e89ee,69b9600266ec37dd7a36d1f3,0.0951,0.0951,0,159,159,79,1,eightseven,,,,,,,,,,,,,,,,,,,,,,,,,,,,,,,,,,,,,,,,,,,,,,,,,,,,,,,,,,,,,,,,,,,,,,,,,,,,,,,,,,,,,,,,,,,,,,,,,,,,,,,,,,,,,,,,,,,,,,,,,,,,,,,,,,,,,,,,,
,,667ebb747b43b02dbbd26d47,2026-03-17_16h07.28.798,kallum_motion_pilot_GIST_update_2,2026.1.1,Win32,30.03003003,667ebb747b43b02dbbd26d47,69b95efdef24cd8a694e89ee,69b9600266ec37dd7a36d1f3,0.0955,0.0955,0,160,160,99,1,sixeight,,,,,,,,,,,,,,,,,,,,,,,,,,,,,,,,,,,,,,,,,,,,,,,,,,,,,,,,,,,,,,,,,,,,,,,,,,,,,,,,,,,,,,,,,,,,,,,,,,,,,,,,,,,,,,,,,,,,,,,,,,,,,,,,,,,,,,,,,
,,667ebb747b43b02dbbd26d47,2026-03-17_16h07.28.798,kallum_motion_pilot_GIST_update_2,2026.1.1,Win32,30.03003003,667ebb747b43b02dbbd26d47,69b95efdef24cd8a694e89ee,69b9600266ec37dd7a36d1f3,0.0958,0.0958,0,161,161,1,1,onethree,,,,,,,,,,,,,,,,,,,,,,,,,,,,,,,,,,,,,,,,,,,,,,,,,,,,,,,,,,,,,,,,,,,,,,,,,,,,,,,,,,,,,,,,,,,,,,,,,,,,,,,,,,,,,,,,,,,,,,,,,,,,,,,,,,,,,,,,,
,,667ebb747b43b02dbbd26d47,2026-03-17_16h07.28.798,kallum_motion_pilot_GIST_update_2,2026.1.1,Win32,30.03003003,667ebb747b43b02dbbd26d47,69b95efdef24cd8a694e89ee,69b9600266ec37dd7a36d1f3,0.0962,0.0962,1,0,162,124,1,sevenfive,,,,,,,,,,,,,,,,,,,,,,,,,,,,,,,,,,,,,,,,,,,,,,,,,,,,,,,,,,,,,,,,,,,,,,,,,,,,,,,,,,,,,,,,,,,,,,,,,,,,,,,,,,,,,,,,,,,,,,,,,,,,,,,,,,,,,,,,,
,,667ebb747b43b02dbbd26d47,2026-03-17_16h07.28.798,kallum_motion_pilot_GIST_update_2,2026.1.1,Win32,30.03003003,667ebb747b43b02dbbd26d47,69b95efdef24cd8a694e89ee,69b9600266ec37dd7a36d1f3,0.0964,0.0964,1,1,163,130,1,sixfive,,,,,,,,,,,,,,,,,,,,,,,,,,,,,,,,,,,,,,,,,,,,,,,,,,,,,,,,,,,,,,,,,,,,,,,,,,,,,,,,,,,,,,,,,,,,,,,,,,,,,,,,,,,,,,,,,,,,,,,,,,,,,,,,,,,,,,,,,
,,667ebb747b43b02dbbd26d47,2026-03-17_16h07.28.798,kallum_motion_pilot_GIST_update_2,2026.1.1,Win32,30.03003003,667ebb747b43b02dbbd26d47,69b95efdef24cd8a694e89ee,69b9600266ec37dd7a36d1f3,0.0968,0.0968,1,2,164,140,1,sevenfive,,,,,,,,,,,,,,,,,,,,,,,,,,,,,,,,,,,,,,,,,,,,,,,,,,,,,,,,,,,,,,,,,,,,,,,,,,,,,,,,,,,,,,,,,,,,,,,,,,,,,,,,,,,,,,,,,,,,,,,,,,,,,,,,,,,,,,,,,
,,667ebb747b43b02dbbd26d47,2026-03-17_16h07.28.798,kallum_motion_pilot_GIST_update_2,2026.1.1,Win32,30.03003003,667ebb747b43b02dbbd26d47,69b95efdef24cd8a694e89ee,69b9600266ec37dd7a36d1f3,0.0971,0.0971,1,3,165,142,1,eightsix,,,,,,,,,,,,,,,,,,,,,,,,,,,,,,,,,,,,,,,,,,,,,,,,,,,,,,,,,,,,,,,,,,,,,,,,,,,,,,,,,,,,,,,,,,,,,,,,,,,,,,,,,,,,,,,,,,,,,,,,,,,,,,,,,,,,,,,,,
,,667ebb747b43b02dbbd26d47,2026-03-17_16h07.28.798,kallum_motion_pilot_GIST_update_2,2026.1.1,Win32,30.03003003,667ebb747b43b02dbbd26d47,69b95efdef24cd8a694e89ee,69b9600266ec37dd7a36d1f3,0.0973,0.0974,1,4,166,75,1,twofour,,,,,,,,,,,,,,,,,,,,,,,,,,,,,,,,,,,,,,,,,,,,,,,,,,,,,,,,,,,,,,,,,,,,,,,,,,,,,,,,,,,,,,,,,,,,,,,,,,,,,,,,,,,,,,,,,,,,,,,,,,,,,,,,,,,,,,,,,
,,667ebb747b43b02dbbd26d47,2026-03-17_16h07.28.798,kallum_motion_pilot_GIST_update_2,2026.1.1,Win32,30.03003003,667ebb747b43b02dbbd26d47,69b95efdef24cd8a694e89ee,69b9600266ec37dd7a36d1f3,0.0976,0.0976,1,5,167,100,1,sevenfive,,,,,,,,,,,,,,,,,,,,,,,,,,,,,,,,,,,,,,,,,,,,,,,,,,,,,,,,,,,,,,,,,,,,,,,,,,,,,,,,,,,,,,,,,,,,,,,,,,,,,,,,,,,,,,,,,,,,,,,,,,,,,,,,,,,,,,,,,
,,667ebb747b43b02dbbd26d47,2026-03-17_16h07.28.798,kallum_motion_pilot_GIST_update_2,2026.1.1,Win32,30.03003003,667ebb747b43b02dbbd26d47,69b95efdef24cd8a694e89ee,69b9600266ec37dd7a36d1f3,0.0979,0.0979,1,6,168,81,1,fiveseven,,,,,,,,,,,,,,,,,,,,,,,,,,,,,,,,,,,,,,,,,,,,,,,,,,,,,,,,,,,,,,,,,,,,,,,,,,,,,,,,,,,,,,,,,,,,,,,,,,,,,,,,,,,,,,,,,,,,,,,,,,,,,,,,,,,,,,,,,
,,667ebb747b43b02dbbd26d47,2026-03-17_16h07.28.798,kallum_motion_pilot_GIST_update_2,2026.1.1,Win32,30.03003003,667ebb747b43b02dbbd26d47,69b95efdef24cd8a694e89ee,69b9600266ec37dd7a36d1f3,0.0981,0.0982,1,7,169,46,1,fourtwo,,,,,,,,,,,,,,,,,,,,,,,,,,,,,,,,,,,,,,,,,,,,,,,,,,,,,,,,,,,,,,,,,,,,,,,,,,,,,,,,,,,,,,,,,,,,,,,,,,,,,,,,,,,,,,,,,,,,,,,,,,,,,,,,,,,,,,,,,
,,667ebb747b43b02dbbd26d47,2026-03-17_16h07.28.798,kallum_motion_pilot_GIST_update_2,2026.1.1,Win32,30.03003003,667ebb747b43b02dbbd26d47,69b95efdef24cd8a694e89ee,69b9600266ec37dd7a36d1f3,0.0985,0.0985,1,8,170,94,1,eightsix,,,,,,,,,,,,,,,,,,,,,,,,,,,,,,,,,,,,,,,,,,,,,,,,,,,,,,,,,,,,,,,,,,,,,,,,,,,,,,,,,,,,,,,,,,,,,,,,,,,,,,,,,,,,,,,,,,,,,,,,,,,,,,,,,,,,,,,,,
,,667ebb747b43b02dbbd26d47,2026-03-17_16h07.28.798,kallum_motion_pilot_GIST_update_2,2026.1.1,Win32,30.03003003,667ebb747b43b02dbbd26d47,69b95efdef24cd8a694e89ee,69b9600266ec37dd7a36d1f3,0.0988,0.0988,1,9,171,66,1,twoone,,,,,,,,,,,,,,,,,,,,,,,,,,,,,,,,,,,,,,,,,,,,,,,,,,,,,,,,,,,,,,,,,,,,,,,,,,,,,,,,,,,,,,,,,,,,,,,,,,,,,,,,,,,,,,,,,,,,,,,,,,,,,,,,,,,,,,,,,
,,667ebb747b43b02dbbd26d47,2026-03-17_16h07.28.798,kallum_motion_pilot_GIST_update_2,2026.1.1,Win32,30.03003003,667ebb747b43b02dbbd26d47,69b95efdef24cd8a694e89ee,69b9600266ec37dd7a36d1f3,0.099,0.099,1,10,172,37,1,threefour,,,,,,,,,,,,,,,,,,,,,,,,,,,,,,,,,,,,,,,,,,,,,,,,,,,,,,,,,,,,,,,,,,,,,,,,,,,,,,,,,,,,,,,,,,,,,,,,,,,,,,,,,,,,,,,,,,,,,,,,,,,,,,,,,,,,,,,,,
,,667ebb747b43b02dbbd26d47,2026-03-17_16h07.28.798,kallum_motion_pilot_GIST_update_2,2026.1.1,Win32,30.03003003,667ebb747b43b02dbbd26d47,69b95efdef24cd8a694e89ee,69b9600266ec37dd7a36d1f3,0.0992,0.0992,1,11,173,14,1,fourtwo,,,,,,,,,,,,,,,,,,,,,,,,,,,,,,,,,,,,,,,,,,,,,,,,,,,,,,,,,,,,,,,,,,,,,,,,,,,,,,,,,,,,,,,,,,,,,,,,,,,,,,,,,,,,,,,,,,,,,,,,,,,,,,,,,,,,,,,,,
,,667ebb747b43b02dbbd26d47,2026-03-17_16h07.28.798,kallum_motion_pilot_GIST_update_2,2026.1.1,Win32,30.03003003,667ebb747b43b02dbbd26d47,69b95efdef24cd8a694e89ee,69b9600266ec37dd7a36d1f3,0.0996,0.0996,1,12,174,157,1,seveneight,,,,,,,,,,,,,,,,,,,,,,,,,,,,,,,,,,,,,,,,,,,,,,,,,,,,,,,,,,,,,,,,,,,,,,,,,,,,,,,,,,,,,,,,,,,,,,,,,,,,,,,,,,,,,,,,,,,,,,,,,,,,,,,,,,,,,,,,,
,,667ebb747b43b02dbbd26d47,2026-03-17_16h07.28.798,kallum_motion_pilot_GIST_update_2,2026.1.1,Win32,30.03003003,667ebb747b43b02dbbd26d47,69b95efdef24cd8a694e89ee,69b9600266ec37dd7a36d1f3,0.0999,0.0999,1,13,175,45,1,threefour,,,,,,,,,,,,,,,,,,,,,,,,,,,,,,,,,,,,,,,,,,,,,,,,,,,,,,,,,,,,,,,,,,,,,,,,,,,,,,,,,,,,,,,,,,,,,,,,,,,,,,,,,,,,,,,,,,,,,,,,,,,,,,,,,,,,,,,,,
,,667ebb747b43b02dbbd26d47,2026-03-17_16h07.28.798,kallum_motion_pilot_GIST_update_2,2026.1.1,Win32,30.03003003,667ebb747b43b02dbbd26d47,69b95efdef24cd8a694e89ee,69b9600266ec37dd7a36d1f3,0.1001,0.1002,1,14,176,91,1,sixeight,,,,,,,,,,,,,,,,,,,,,,,,,,,,,,,,,,,,,,,,,,,,,,,,,,,,,,,,,,,,,,,,,,,,,,,,,,,,,,,,,,,,,,,,,,,,,,,,,,,,,,,,,,,,,,,,,,,,,,,,,,,,,,,,,,,,,,,,,
,,667ebb747b43b02dbbd26d47,2026-03-17_16h07.28.798,kallum_motion_pilot_GIST_update_2,2026.1.1,Win32,30.03003003,667ebb747b43b02dbbd26d47,69b95efdef24cd8a694e89ee,69b9600266ec37dd7a36d1f3,0.1005,0.1005,1,15,177,4,1,threeone,,,,,,,,,,,,,,,,,,,,,,,,,,,,,,,,,,,,,,,,,,,,,,,,,,,,,,,,,,,,,,,,,,,,,,,,,,,,,,,,,,,,,,,,,,,,,,,,,,,,,,,,,,,,,,,,,,,,,,,,,,,,,,,,,,,,,,,,,
,,667ebb747b43b02dbbd26d47,2026-03-17_16h07.28.798,kallum_motion_pilot_GIST_update_2,2026.1.1,Win32,30.03003003,667ebb747b43b02dbbd26d47,69b95efdef24cd8a694e89ee,69b9600266ec37dd7a36d1f3,0.1009,0.1009,1,16,178,90,1,sixfive,,,,,,,,,,,,,,,,,,,,,,,,,,,,,,,,,,,,,,,,,,,,,,,,,,,,,,,,,,,,,,,,,,,,,,,,,,,,,,,,,,,,,,,,,,,,,,,,,,,,,,,,,,,,,,,,,,,,,,,,,,,,,,,,,,,,,,,,,
,,667ebb747b43b02dbbd26d47,2026-03-17_16h07.28.798,kallum_motion_pilot_GIST_update_2,2026.1.1,Win32,30.03003003,667ebb747b43b02dbbd26d47,69b95efdef24cd8a694e89ee,69b9600266ec37dd7a36d1f3,0.1012,0.1012,1,17,179,104,1,fivesix,,,,,,,,,,,,,,,,,,,,,,,,,,,,,,,,,,,,,,,,,,,,,,,,,,,,,,,,,,,,,,,,,,,,,,,,,,,,,,,,,,,,,,,,,,,,,,,,,,,,,,,,,,,,,,,,,,,,,,,,,,,,,,,,,,,,,,,,,
,,667ebb747b43b02dbbd26d47,2026-03-17_16h07.28.798,kallum_motion_pilot_GIST_update_2,2026.1.1,Win32,30.03003003,667ebb747b43b02dbbd26d47,69b95efdef24cd8a694e89ee,69b9600266ec37dd7a36d1f3,0.1015,0.1015,1,18,180,42,1,twoone,,,,,,,,,,,,,,,,,,,,,,,,,,,,,,,,,,,,,,,,,,,,,,,,,,,,,,,,,,,,,,,,,,,,,,,,,,,,,,,,,,,,,,,,,,,,,,,,,,,,,,,,,,,,,,,,,,,,,,,,,,,,,,,,,,,,,,,,,
,,667ebb747b43b02dbbd26d47,2026-03-17_16h07.28.798,kallum_motion_pilot_GIST_update_2,2026.1.1,Win32,30.03003003,667ebb747b43b02dbbd26d47,69b95efdef24cd8a694e89ee,69b9600266ec37dd7a36d1f3,0.1018,0.1018,1,19,181,31,1,fourthree,,,,,,,,,,,,,,,,,,,,,,,,,,,,,,,,,,,,,,,,,,,,,,,,,,,,,,,,,,,,,,,,,,,,,,,,,,,,,,,,,,,,,,,,,,,,,,,,,,,,,,,,,,,,,,,,,,,,,,,,,,,,,,,,,,,,,,,,,
,,667ebb747b43b02dbbd26d47,2026-03-17_16h07.28.798,kallum_motion_pilot_GIST_update_2,2026.1.1,Win32,30.03003003,667ebb747b43b02dbbd26d47,69b95efdef24cd8a694e89ee,69b9600266ec37dd7a36d1f3,0.102,0.102,1,20,182,67,1,twofour,,,,,,,,,,,,,,,,,,,,,,,,,,,,,,,,,,,,,,,,,,,,,,,,,,,,,,,,,,,,,,,,,,,,,,,,,,,,,,,,,,,,,,,,,,,,,,,,,,,,,,,,,,,,,,,,,,,,,,,,,,,,,,,,,,,,,,,,,
,,667ebb747b43b02dbbd26d47,2026-03-17_16h07.28.798,kallum_motion_pilot_GIST_update_2,2026.1.1,Win32,30.03003003,667ebb747b43b02dbbd26d47,69b95efdef24cd8a694e89ee,69b9600266ec37dd7a36d1f3,0.1024,0.1024,1,21,183,36,1,threeone,,,,,,,,,,,,,,,,,,,,,,,,,,,,,,,,,,,,,,,,,,,,,,,,,,,,,,,,,,,,,,,,,,,,,,,,,,,,,,,,,,,,,,,,,,,,,,,,,,,,,,,,,,,,,,,,,,,,,,,,,,,,,,,,,,,,,,,,,
,,667ebb747b43b02dbbd26d47,2026-03-17_16h07.28.798,kallum_motion_pilot_GIST_update_2,2026.1.1,Win32,30.03003003,667ebb747b43b02dbbd26d47,69b95efdef24cd8a694e89ee,69b9600266ec37dd7a36d1f3,0.1027,0.1027,1,22,184,106,1,sixfive,,,,,,,,,,,,,,,,,,,,,,,,,,,,,,,,,,,,,,,,,,,,,,,,,,,,,,,,,,,,,,,,,,,,,,,,,,,,,,,,,,,,,,,,,,,,,,,,,,,,,,,,,,,,,,,,,,,,,,,,,,,,,,,,,,,,,,,,,
,,667ebb747b43b02dbbd26d47,2026-03-17_16h07.28.798,kallum_motion_pilot_GIST_update_2,2026.1.1,Win32,30.03003003,667ebb747b43b02dbbd26d47,69b95efdef24cd8a694e89ee,69b9600266ec37dd7a36d1f3,0.1029,0.1029,1,23,185,153,1,fiveseven,,,,,,,,,,,,,,,,,,,,,,,,,,,,,,,,,,,,,,,,,,,,,,,,,,,,,,,,,,,,,,,,,,,,,,,,,,,,,,,,,,,,,,,,,,,,,,,,,,,,,,,,,,,,,,,,,,,,,,,,,,,,,,,,,,,,,,,,,
,,667ebb747b43b02dbbd26d47,2026-03-17_16h07.28.798,kallum_motion_pilot_GIST_update_2,2026.1.1,Win32,30.03003003,667ebb747b43b02dbbd26d47,69b95efdef24cd8a694e89ee,69b9600266ec37dd7a36d1f3,0.1036,0.1037,1,24,186,56,1,onetwo,,,,,,,,,,,,,,,,,,,,,,,,,,,,,,,,,,,,,,,,,,,,,,,,,,,,,,,,,,,,,,,,,,,,,,,,,,,,,,,,,,,,,,,,,,,,,,,,,,,,,,,,,,,,,,,,,,,,,,,,,,,,,,,,,,,,,,,,,
,,667ebb747b43b02dbbd26d47,2026-03-17_16h07.28.798,kallum_motion_pilot_GIST_update_2,2026.1.1,Win32,30.03003003,667ebb747b43b02dbbd26d47,69b95efdef24cd8a694e89ee,69b9600266ec37dd7a36d1f3,0.104,0.104,1,25,187,49,1,onethree,,,,,,,,,,,,,,,,,,,,,,,,,,,,,,,,,,,,,,,,,,,,,,,,,,,,,,,,,,,,,,,,,,,,,,,,,,,,,,,,,,,,,,,,,,,,,,,,,,,,,,,,,,,,,,,,,,,,,,,,,,,,,,,,,,,,,,,,,
,,667ebb747b43b02dbbd26d47,2026-03-17_16h07.28.798,kallum_motion_pilot_GIST_update_2,2026.1.1,Win32,30.03003003,667ebb747b43b02dbbd26d47,69b95efdef24cd8a694e89ee,69b9600266ec37dd7a36d1f3,0.1045,0.1046,1,26,188,86,1,eightsix,,,,,,,,,,,,,,,,,,,,,,,,,,,,,,,,,,,,,,,,,,,,,,,,,,,,,,,,,,,,,,,,,,,,,,,,,,,,,,,,,,,,,,,,,,,,,,,,,,,,,,,,,,,,,,,,,,,,,,,,,,,,,,,,,,,,,,,,,
,,667ebb747b43b02dbbd26d47,2026-03-17_16h07.28.798,kallum_motion_pilot_GIST_update_2,2026.1.1,Win32,30.03003003,667ebb747b43b02dbbd26d47,69b95efdef24cd8a694e89ee,69b9600266ec37dd7a36d1f3,0.105,0.105,1,27,189,59,1,twofour,,,,,,,,,,,,,,,,,,,,,,,,,,,,,,,,,,,,,,,,,,,,,,,,,,,,,,,,,,,,,,,,,,,,,,,,,,,,,,,,,,,,,,,,,,,,,,,,,,,,,,,,,,,,,,,,,,,,,,,,,,,,,,,,,,,,,,,,,
,,667ebb747b43b02dbbd26d47,2026-03-17_16h07.28.798,kallum_motion_pilot_GIST_update_2,2026.1.1,Win32,30.03003003,667ebb747b43b02dbbd26d47,69b95efdef24cd8a694e89ee,69b9600266ec37dd7a36d1f3,0.1054,0.1054,1,28,190,23,1,fourthree,,,,,,,,,,,,,,,,,,,,,,,,,,,,,,,,,,,,,,,,,,,,,,,,,,,,,,,,,,,,,,,,,,,,,,,,,,,,,,,,,,,,,,,,,,,,,,,,,,,,,,,,,,,,,,,,,,,,,,,,,,,,,,,,,,,,,,,,,
,,667ebb747b43b02dbbd26d47,2026-03-17_16h07.28.798,kallum_motion_pilot_GIST_update_2,2026.1.1,Win32,30.03003003,667ebb747b43b02dbbd26d47,69b95efdef24cd8a694e89ee,69b9600266ec37dd7a36d1f3,0.1059,0.1059,1,29,191,84,1,sevenfive,,,,,,,,,,,,,,,,,,,,,,,,,,,,,,,,,,,,,,,,,,,,,,,,,,,,,,,,,,,,,,,,,,,,,,,,,,,,,,,,,,,,,,,,,,,,,,,,,,,,,,,,,,,,,,,,,,,,,,,,,,,,,,,,,,,,,,,,,
,,667ebb747b43b02dbbd26d47,2026-03-17_16h07.28.798,kallum_motion_pilot_GIST_update_2,2026.1.1,Win32,30.03003003,667ebb747b43b02dbbd26d47,69b95efdef24cd8a694e89ee,69b9600266ec37dd7a36d1f3,0.1062,0.1063,1,30,192,148,1,sevenfive,,,,,,,,,,,,,,,,,,,,,,,,,,,,,,,,,,,,,,,,,,,,,,,,,,,,,,,,,,,,,,,,,,,,,,,,,,,,,,,,,,,,,,,,,,,,,,,,,,,,,,,,,,,,,,,,,,,,,,,,,,,,,,,,,,,,,,,,,
,,667ebb747b43b02dbbd26d47,2026-03-17_16h07.28.798,kallum_motion_pilot_GIST_update_2,2026.1.1,Win32,30.03003003,667ebb747b43b02dbbd26d47,69b95efdef24cd8a694e89ee,69b9600266ec37dd7a36d1f3,0.1065,0.1065,1,31,193,132,1,sevenfive,,,,,,,,,,,,,,,,,,,,,,,,,,,,,,,,,,,,,,,,,,,,,,,,,,,,,,,,,,,,,,,,,,,,,,,,,,,,,,,,,,,,,,,,,,,,,,,,,,,,,,,,,,,,,,,,,,,,,,,,,,,,,,,,,,,,,,,,,
,,667ebb747b43b02dbbd26d47,2026-03-17_16h07.28.798,kallum_motion_pilot_GIST_update_2,2026.1.1,Win32,30.03003003,667ebb747b43b02dbbd26d47,69b95efdef24cd8a694e89ee,69b9600266ec37dd7a36d1f3,0.1069,0.107,1,32,194,125,1,seveneight,,,,,,,,,,,,,,,,,,,,,,,,,,,,,,,,,,,,,,,,,,,,,,,,,,,,,,,,,,,,,,,,,,,,,,,,,,,,,,,,,,,,,,,,,,,,,,,,,,,,,,,,,,,,,,,,,,,,,,,,,,,,,,,,,,,,,,,,,
,,667ebb747b43b02dbbd26d47,2026-03-17_16h07.28.798,kallum_motion_pilot_GIST_update_2,2026.1.1,Win32,30.03003003,667ebb747b43b02dbbd26d47,69b95efdef24cd8a694e89ee,69b9600266ec37dd7a36d1f3,0.1073,0.1073,1,33,195,144,1,fivesix,,,,,,,,,,,,,,,,,,,,,,,,,,,,,,,,,,,,,,,,,,,,,,,,,,,,,,,,,,,,,,,,,,,,,,,,,,,,,,,,,,,,,,,,,,,,,,,,,,,,,,,,,,,,,,,,,,,,,,,,,,,,,,,,,,,,,,,,,
,,667ebb747b43b02dbbd26d47,2026-03-17_16h07.28.798,kallum_motion_pilot_GIST_update_2,2026.1.1,Win32,30.03003003,667ebb747b43b02dbbd26d47,69b95efdef24cd8a694e89ee,69b9600266ec37dd7a36d1f3,0.1076,0.1076,1,34,196,96,1,fivesix,,,,,,,,,,,,,,,,,,,,,,,,,,,,,,,,,,,,,,,,,,,,,,,,,,,,,,,,,,,,,,,,,,,,,,,,,,,,,,,,,,,,,,,,,,,,,,,,,,,,,,,,,,,,,,,,,,,,,,,,,,,,,,,,,,,,,,,,,
,,667ebb747b43b02dbbd26d47,2026-03-17_16h07.28.798,kallum_motion_pilot_GIST_update_2,2026.1.1,Win32,30.03003003,667ebb747b43b02dbbd26d47,69b95efdef24cd8a694e89ee,69b9600266ec37dd7a36d1f3,0.1079,0.1079,1,35,197,103,1,eightseven,,,,,,,,,,,,,,,,,,,,,,,,,,,,,,,,,,,,,,,,,,,,,,,,,,,,,,,,,,,,,,,,,,,,,,,,,,,,,,,,,,,,,,,,,,,,,,,,,,,,,,,,,,,,,,,,,,,,,,,,,,,,,,,,,,,,,,,,,
,,667ebb747b43b02dbbd26d47,2026-03-17_16h07.28.798,kallum_motion_pilot_GIST_update_2,2026.1.1,Win32,30.03003003,667ebb747b43b02dbbd26d47,69b95efdef24cd8a694e89ee,69b9600266ec37dd7a36d1f3,0.1082,0.1082,1,36,198,120,1,fivesix,,,,,,,,,,,,,,,,,,,,,,,,,,,,,,,,,,,,,,,,,,,,,,,,,,,,,,,,,,,,,,,,,,,,,,,,,,,,,,,,,,,,,,,,,,,,,,,,,,,,,,,,,,,,,,,,,,,,,,,,,,,,,,,,,,,,,,,,,
,,667ebb747b43b02dbbd26d47,2026-03-17_16h07.28.798,kallum_motion_pilot_GIST_update_2,2026.1.1,Win32,30.03003003,667ebb747b43b02dbbd26d47,69b95efdef24cd8a694e89ee,69b9600266ec37dd7a36d1f3,0.1085,0.1085,1,37,199,111,1,eightseven,,,,,,,,,,,,,,,,,,,,,,,,,,,,,,,,,,,,,,,,,,,,,,,,,,,,,,,,,,,,,,,,,,,,,,,,,,,,,,,,,,,,,,,,,,,,,,,,,,,,,,,,,,,,,,,,,,,,,,,,,,,,,,,,,,,,,,,,,
,,667ebb747b43b02dbbd26d47,2026-03-17_16h07.28.798,kallum_motion_pilot_GIST_update_2,2026.1.1,Win32,30.03003003,667ebb747b43b02dbbd26d47,69b95efdef24cd8a694e89ee,69b9600266ec37dd7a36d1f3,0.1089,0.1089,1,38,200,156,1,sevenfive,,,,,,,,,,,,,,,,,,,,,,,,,,,,,,,,,,,,,,,,,,,,,,,,,,,,,,,,,,,,,,,,,,,,,,,,,,,,,,,,,,,,,,,,,,,,,,,,,,,,,,,,,,,,,,,,,,,,,,,,,,,,,,,,,,,,,,,,,
,,667ebb747b43b02dbbd26d47,2026-03-17_16h07.28.798,kallum_motion_pilot_GIST_update_2,2026.1.1,Win32,30.03003003,667ebb747b43b02dbbd26d47,69b95efdef24cd8a694e89ee,69b9600266ec37dd7a36d1f3,0.1092,0.1092,1,39,201,15,1,fourthree,,,,,,,,,,,,,,,,,,,,,,,,,,,,,,,,,,,,,,,,,,,,,,,,,,,,,,,,,,,,,,,,,,,,,,,,,,,,,,,,,,,,,,,,,,,,,,,,,,,,,,,,,,,,,,,,,,,,,,,,,,,,,,,,,,,,,,,,,
,,667ebb747b43b02dbbd26d47,2026-03-17_16h07.28.798,kallum_motion_pilot_GIST_update_2,2026.1.1,Win32,30.03003003,667ebb747b43b02dbbd26d47,69b95efdef24cd8a694e89ee,69b9600266ec37dd7a36d1f3,0.1096,0.1096,1,40,202,33,1,onethree,,,,,,,,,,,,,,,,,,,,,,,,,,,,,,,,,,,,,,,,,,,,,,,,,,,,,,,,,,,,,,,,,,,,,,,,,,,,,,,,,,,,,,,,,,,,,,,,,,,,,,,,,,,,,,,,,,,,,,,,,,,,,,,,,,,,,,,,,
,,667ebb747b43b02dbbd26d47,2026-03-17_16h07.28.798,kallum_motion_pilot_GIST_update_2,2026.1.1,Win32,30.03003003,667ebb747b43b02dbbd26d47,69b95efdef24cd8a694e89ee,69b9600266ec37dd7a36d1f3,0.1099,0.1099,1,41,203,85,1,seveneight,,,,,,,,,,,,,,,,,,,,,,,,,,,,,,,,,,,,,,,,,,,,,,,,,,,,,,,,,,,,,,,,,,,,,,,,,,,,,,,,,,,,,,,,,,,,,,,,,,,,,,,,,,,,,,,,,,,,,,,,,,,,,,,,,,,,,,,,,
,,667ebb747b43b02dbbd26d47,2026-03-17_16h07.28.798,kallum_motion_pilot_GIST_update_2,2026.1.1,Win32,30.03003003,667ebb747b43b02dbbd26d47,69b95efdef24cd8a694e89ee,69b9600266ec37dd7a36d1f3,0.1102,0.1102,1,42,204,18,1,twoone,,,,,,,,,,,,,,,,,,,,,,,,,,,,,,,,,,,,,,,,,,,,,,,,,,,,,,,,,,,,,,,,,,,,,,,,,,,,,,,,,,,,,,,,,,,,,,,,,,,,,,,,,,,,,,,,,,,,,,,,,,,,,,,,,,,,,,,,,
,,667ebb747b43b02dbbd26d47,2026-03-17_16h07.28.798,kallum_motion_pilot_GIST_update_2,2026.1.1,Win32,30.03003003,667ebb747b43b02dbbd26d47,69b95efdef24cd8a694e89ee,69b9600266ec37dd7a36d1f3,0.1108,0.111,1,43,205,11,1,twofour,,,,,,,,,,,,,,,,,,,,,,,,,,,,,,,,,,,,,,,,,,,,,,,,,,,,,,,,,,,,,,,,,,,,,,,,,,,,,,,,,,,,,,,,,,,,,,,,,,,,,,,,,,,,,,,,,,,,,,,,,,,,,,,,,,,,,,,,,
,,667ebb747b43b02dbbd26d47,2026-03-17_16h07.28.798,kallum_motion_pilot_GIST_update_2,2026.1.1,Win32,30.03003003,667ebb747b43b02dbbd26d47,69b95efdef24cd8a694e89ee,69b9600266ec37dd7a36d1f3,0.1117,0.1117,1,44,206,102,1,eightsix,,,,,,,,,,,,,,,,,,,,,,,,,,,,,,,,,,,,,,,,,,,,,,,,,,,,,,,,,,,,,,,,,,,,,,,,,,,,,,,,,,,,,,,,,,,,,,,,,,,,,,,,,,,,,,,,,,,,,,,,,,,,,,,,,,,,,,,,,
,,667ebb747b43b02dbbd26d47,2026-03-17_16h07.28.798,kallum_motion_pilot_GIST_update_2,2026.1.1,Win32,30.03003003,667ebb747b43b02dbbd26d47,69b95efdef24cd8a694e89ee,69b9600266ec37dd7a36d1f3,0.1122,0.1122,1,45,207,93,1,seveneight,,,,,,,,,,,,,,,,,,,,,,,,,,,,,,,,,,,,,,,,,,,,,,,,,,,,,,,,,,,,,,,,,,,,,,,,,,,,,,,,,,,,,,,,,,,,,,,,,,,,,,,,,,,,,,,,,,,,,,,,,,,,,,,,,,,,,,,,,
,,667ebb747b43b02dbbd26d47,2026-03-17_16h07.28.798,kallum_motion_pilot_GIST_update_2,2026.1.1,Win32,30.03003003,667ebb747b43b02dbbd26d47,69b95efdef24cd8a694e89ee,69b9600266ec37dd7a36d1f3,0.1124,0.1125,1,46,208,77,1,threefour,,,,,,,,,,,,,,,,,,,,,,,,,,,,,,,,,,,,,,,,,,,,,,,,,,,,,,,,,,,,,,,,,,,,,,,,,,,,,,,,,,,,,,,,,,,,,,,,,,,,,,,,,,,,,,,,,,,,,,,,,,,,,,,,,,,,,,,,,
,,667ebb747b43b02dbbd26d47,2026-03-17_16h07.28.798,kallum_motion_pilot_GIST_update_2,2026.1.1,Win32,30.03003003,667ebb747b43b02dbbd26d47,69b95efdef24cd8a694e89ee,69b9600266ec37dd7a36d1f3,0.1129,0.1129,1,47,209,41,1,onethree,,,,,,,,,,,,,,,,,,,,,,,,,,,,,,,,,,,,,,,,,,,,,,,,,,,,,,,,,,,,,,,,,,,,,,,,,,,,,,,,,,,,,,,,,,,,,,,,,,,,,,,,,,,,,,,,,,,,,,,,,,,,,,,,,,,,,,,,,
,,667ebb747b43b02dbbd26d47,2026-03-17_16h07.28.798,kallum_motion_pilot_GIST_update_2,2026.1.1,Win32,30.03003003,667ebb747b43b02dbbd26d47,69b95efdef24cd8a694e89ee,69b9600266ec37dd7a36d1f3,0.1131,0.1132,1,48,210,119,1,eightseven,,,,,,,,,,,,,,,,,,,,,,,,,,,,,,,,,,,,,,,,,,,,,,,,,,,,,,,,,,,,,,,,,,,,,,,,,,,,,,,,,,,,,,,,,,,,,,,,,,,,,,,,,,,,,,,,,,,,,,,,,,,,,,,,,,,,,,,,,
,,667ebb747b43b02dbbd26d47,2026-03-17_16h07.28.798,kallum_motion_pilot_GIST_update_2,2026.1.1,Win32,30.03003003,667ebb747b43b02dbbd26d47,69b95efdef24cd8a694e89ee,69b9600266ec37dd7a36d1f3,0.1134,0.1134,1,49,211,71,1,fourthree,,,,,,,,,,,,,,,,,,,,,,,,,,,,,,,,,,,,,,,,,,,,,,,,,,,,,,,,,,,,,,,,,,,,,,,,,,,,,,,,,,,,,,,,,,,,,,,,,,,,,,,,,,,,,,,,,,,,,,,,,,,,,,,,,,,,,,,,,
,,667ebb747b43b02dbbd26d47,2026-03-17_16h07.28.798,kallum_motion_pilot_GIST_update_2,2026.1.1,Win32,30.03003003,667ebb747b43b02dbbd26d47,69b95efdef24cd8a694e89ee,69b9600266ec37dd7a36d1f3,0.1138,0.1138,1,50,212,16,1,onetwo,,,,,,,,,,,,,,,,,,,,,,,,,,,,,,,,,,,,,,,,,,,,,,,,,,,,,,,,,,,,,,,,,,,,,,,,,,,,,,,,,,,,,,,,,,,,,,,,,,,,,,,,,,,,,,,,,,,,,,,,,,,,,,,,,,,,,,,,,
,,667ebb747b43b02dbbd26d47,2026-03-17_16h07.28.798,kallum_motion_pilot_GIST_update_2,2026.1.1,Win32,30.03003003,667ebb747b43b02dbbd26d47,69b95efdef24cd8a694e89ee,69b9600266ec37dd7a36d1f3,0.1141,0.1141,1,51,213,9,1,onethree,,,,,,,,,,,,,,,,,,,,,,,,,,,,,,,,,,,,,,,,,,,,,,,,,,,,,,,,,,,,,,,,,,,,,,,,,,,,,,,,,,,,,,,,,,,,,,,,,,,,,,,,,,,,,,,,,,,,,,,,,,,,,,,,,,,,,,,,,
,,667ebb747b43b02dbbd26d47,2026-03-17_16h07.28.798,kallum_motion_pilot_GIST_update_2,2026.1.1,Win32,30.03003003,667ebb747b43b02dbbd26d47,69b95efdef24cd8a694e89ee,69b9600266ec37dd7a36d1f3,0.1145,0.1145,1,52,214,146,1,sixfive,,,,,,,,,,,,,,,,,,,,,,,,,,,,,,,,,,,,,,,,,,,,,,,,,,,,,,,,,,,,,,,,,,,,,,,,,,,,,,,,,,,,,,,,,,,,,,,,,,,,,,,,,,,,,,,,,,,,,,,,,,,,,,,,,,,,,,,,,
,,667ebb747b43b02dbbd26d47,2026-03-17_16h07.28.798,kallum_motion_pilot_GIST_update_2,2026.1.1,Win32,30.03003003,667ebb747b43b02dbbd26d47,69b95efdef24cd8a694e89ee,69b9600266ec37dd7a36d1f3,0.1148,0.1148,1,53,215,82,1,sixfive,,,,,,,,,,,,,,,,,,,,,,,,,,,,,,,,,,,,,,,,,,,,,,,,,,,,,,,,,,,,,,,,,,,,,,,,,,,,,,,,,,,,,,,,,,,,,,,,,,,,,,,,,,,,,,,,,,,,,,,,,,,,,,,,,,,,,,,,,
,,667ebb747b43b02dbbd26d47,2026-03-17_16h07.28.798,kallum_motion_pilot_GIST_update_2,2026.1.1,Win32,30.03003003,667ebb747b43b02dbbd26d47,69b95efdef24cd8a694e89ee,69b9600266ec37dd7a36d1f3,0.1151,0.1152,1,54,216,83,1,sixeight,,,,,,,,,,,,,,,,,,,,,,,,,,,,,,,,,,,,,,,,,,,,,,,,,,,,,,,,,,,,,,,,,,,,,,,,,,,,,,,,,,,,,,,,,,,,,,,,,,,,,,,,,,,,,,,,,,,,,,,,,,,,,,,,,,,,,,,,,
,,667ebb747b43b02dbbd26d47,2026-03-17_16h07.28.798,kallum_motion_pilot_GIST_update_2,2026.1.1,Win32,30.03003003,667ebb747b43b02dbbd26d47,69b95efdef24cd8a694e89ee,69b9600266ec37dd7a36d1f3,0.1154,0.1154,1,55,217,115,1,sixeight,,,,,,,,,,,,,,,,,,,,,,,,,,,,,,,,,,,,,,,,,,,,,,,,,,,,,,,,,,,,,,,,,,,,,,,,,,,,,,,,,,,,,,,,,,,,,,,,,,,,,,,,,,,,,,,,,,,,,,,,,,,,,,,,,,,,,,,,,
,,667ebb747b43b02dbbd26d47,2026-03-17_16h07.28.798,kallum_motion_pilot_GIST_update_2,2026.1.1,Win32,30.03003003,667ebb747b43b02dbbd26d47,69b95efdef24cd8a694e89ee,69b9600266ec37dd7a36d1f3,0.1158,0.1158,1,56,218,116,1,sevenfive,,,,,,,,,,,,,,,,,,,,,,,,,,,,,,,,,,,,,,,,,,,,,,,,,,,,,,,,,,,,,,,,,,,,,,,,,,,,,,,,,,,,,,,,,,,,,,,,,,,,,,,,,,,,,,,,,,,,,,,,,,,,,,,,,,,,,,,,,
,,667ebb747b43b02dbbd26d47,2026-03-17_16h07.28.798,kallum_motion_pilot_GIST_update_2,2026.1.1,Win32,30.03003003,667ebb747b43b02dbbd26d47,69b95efdef24cd8a694e89ee,69b9600266ec37dd7a36d1f3,0.1161,0.1161,1,57,219,141,1,seveneight,,,,,,,,,,,,,,,,,,,,,,,,,,,,,,,,,,,,,,,,,,,,,,,,,,,,,,,,,,,,,,,,,,,,,,,,,,,,,,,,,,,,,,,,,,,,,,,,,,,,,,,,,,,,,,,,,,,,,,,,,,,,,,,,,,,,,,,,,
,,667ebb747b43b02dbbd26d47,2026-03-17_16h07.28.798,kallum_motion_pilot_GIST_update_2,2026.1.1,Win32,30.03003003,667ebb747b43b02dbbd26d47,69b95efdef24cd8a694e89ee,69b9600266ec37dd7a36d1f3,0.1164,0.1164,1,58,220,22,1,fourtwo,,,,,,,,,,,,,,,,,,,,,,,,,,,,,,,,,,,,,,,,,,,,,,,,,,,,,,,,,,,,,,,,,,,,,,,,,,,,,,,,,,,,,,,,,,,,,,,,,,,,,,,,,,,,,,,,,,,,,,,,,,,,,,,,,,,,,,,,,
,,667ebb747b43b02dbbd26d47,2026-03-17_16h07.28.798,kallum_motion_pilot_GIST_update_2,2026.1.1,Win32,30.03003003,667ebb747b43b02dbbd26d47,69b95efdef24cd8a694e89ee,69b9600266ec37dd7a36d1f3,0.1167,0.1167,1,59,221,79,1,eightseven,,,,,,,,,,,,,,,,,,,,,,,,,,,,,,,,,,,,,,,,,,,,,,,,,,,,,,,,,,,,,,,,,,,,,,,,,,,,,,,,,,,,,,,,,,,,,,,,,,,,,,,,,,,,,,,,,,,,,,,,,,,,,,,,,,,,,,,,,
,,667ebb747b43b02dbbd26d47,2026-03-17_16h07.28.798,kallum_motion_pilot_GIST_update_2,2026.1.1,Win32,30.03003003,667ebb747b43b02dbbd26d47,69b95efdef24cd8a694e89ee,69b9600266ec37dd7a36d1f3,0.117,0.117,1,60,222,158,1,eightsix,,,,,,,,,,,,,,,,,,,,,,,,,,,,,,,,,,,,,,,,,,,,,,,,,,,,,,,,,,,,,,,,,,,,,,,,,,,,,,,,,,,,,,,,,,,,,,,,,,,,,,,,,,,,,,,,,,,,,,,,,,,,,,,,,,,,,,,,,
,,667ebb747b43b02dbbd26d47,2026-03-17_16h07.28.798,kallum_motion_pilot_GIST_update_2,2026.1.1,Win32,30.03003003,667ebb747b43b02dbbd26d47,69b95efdef24cd8a694e89ee,69b9600266ec37dd7a36d1f3,0.1174,0.1174,1,61,223,26,1,twoone,,,,,,,,,,,,,,,,,,,,,,,,,,,,,,,,,,,,,,,,,,,,,,,,,,,,,,,,,,,,,,,,,,,,,,,,,,,,,,,,,,,,,,,,,,,,,,,,,,,,,,,,,,,,,,,,,,,,,,,,,,,,,,,,,,,,,,,,,
,,667ebb747b43b02dbbd26d47,2026-03-17_16h07.28.798,kallum_motion_pilot_GIST_update_2,2026.1.1,Win32,30.03003003,667ebb747b43b02dbbd26d47,69b95efdef24cd8a694e89ee,69b9600266ec37dd7a36d1f3,0.1177,0.1177,1,62,224,70,1,fourtwo,,,,,,,,,,,,,,,,,,,,,,,,,,,,,,,,,,,,,,,,,,,,,,,,,,,,,,,,,,,,,,,,,,,,,,,,,,,,,,,,,,,,,,,,,,,,,,,,,,,,,,,,,,,,,,,,,,,,,,,,,,,,,,,,,,,,,,,,,
,,667ebb747b43b02dbbd26d47,2026-03-17_16h07.28.798,kallum_motion_pilot_GIST_update_2,2026.1.1,Win32,30.03003003,667ebb747b43b02dbbd26d47,69b95efdef24cd8a694e89ee,69b9600266ec37dd7a36d1f3,0.118,0.118,1,63,225,73,1,onethree,,,,,,,,,,,,,,,,,,,,,,,,,,,,,,,,,,,,,,,,,,,,,,,,,,,,,,,,,,,,,,,,,,,,,,,,,,,,,,,,,,,,,,,,,,,,,,,,,,,,,,,,,,,,,,,,,,,,,,,,,,,,,,,,,,,,,,,,,
,,667ebb747b43b02dbbd26d47,2026-03-17_16h07.28.798,kallum_motion_pilot_GIST_update_2,2026.1.1,Win32,30.03003003,667ebb747b43b02dbbd26d47,69b95efdef24cd8a694e89ee,69b9600266ec37dd7a36d1f3,0.1183,0.1183,1,64,226,55,1,fourthree,,,,,,,,,,,,,,,,,,,,,,,,,,,,,,,,,,,,,,,,,,,,,,,,,,,,,,,,,,,,,,,,,,,,,,,,,,,,,,,,,,,,,,,,,,,,,,,,,,,,,,,,,,,,,,,,,,,,,,,,,,,,,,,,,,,,,,,,,
,,667ebb747b43b02dbbd26d47,2026-03-17_16h07.28.798,kallum_motion_pilot_GIST_update_2,2026.1.1,Win32,30.03003003,667ebb747b43b02dbbd26d47,69b95efdef24cd8a694e89ee,69b9600266ec37dd7a36d1f3,0.1187,0.1187,1,65,227,138,1,sixfive,,,,,,,,,,,,,,,,,,,,,,,,,,,,,,,,,,,,,,,,,,,,,,,,,,,,,,,,,,,,,,,,,,,,,,,,,,,,,,,,,,,,,,,,,,,,,,,,,,,,,,,,,,,,,,,,,,,,,,,,,,,,,,,,,,,,,,,,,
,,667ebb747b43b02dbbd26d47,2026-03-17_16h07.28.798,kallum_motion_pilot_GIST_update_2,2026.1.1,Win32,30.03003003,667ebb747b43b02dbbd26d47,69b95efdef24cd8a694e89ee,69b9600266ec37dd7a36d1f3,0.1193,0.1193,1,66,228,136,1,fivesix,,,,,,,,,,,,,,,,,,,,,,,,,,,,,,,,,,,,,,,,,,,,,,,,,,,,,,,,,,,,,,,,,,,,,,,,,,,,,,,,,,,,,,,,,,,,,,,,,,,,,,,,,,,,,,,,,,,,,,,,,,,,,,,,,,,,,,,,,
,,667ebb747b43b02dbbd26d47,2026-03-17_16h07.28.798,kallum_motion_pilot_GIST_update_2,2026.1.1,Win32,30.03003003,667ebb747b43b02dbbd26d47,69b95efdef24cd8a694e89ee,69b9600266ec37dd7a36d1f3,0.1199,0.1199,1,67,229,52,1,threeone,,,,,,,,,,,,,,,,,,,,,,,,,,,,,,,,,,,,,,,,,,,,,,,,,,,,,,,,,,,,,,,,,,,,,,,,,,,,,,,,,,,,,,,,,,,,,,,,,,,,,,,,,,,,,,,,,,,,,,,,,,,,,,,,,,,,,,,,,
,,667ebb747b43b02dbbd26d47,2026-03-17_16h07.28.798,kallum_motion_pilot_GIST_update_2,2026.1.1,Win32,30.03003003,667ebb747b43b02dbbd26d47,69b95efdef24cd8a694e89ee,69b9600266ec37dd7a36d1f3,0.1204,0.1205,1,68,230,12,1,threeone,,,,,,,,,,,,,,,,,,,,,,,,,,,,,,,,,,,,,,,,,,,,,,,,,,,,,,,,,,,,,,,,,,,,,,,,,,,,,,,,,,,,,,,,,,,,,,,,,,,,,,,,,,,,,,,,,,,,,,,,,,,,,,,,,,,,,,,,,
,,667ebb747b43b02dbbd26d47,2026-03-17_16h07.28.798,kallum_motion_pilot_GIST_update_2,2026.1.1,Win32,30.03003003,667ebb747b43b02dbbd26d47,69b95efdef24cd8a694e89ee,69b9600266ec37dd7a36d1f3,0.1209,0.1209,1,69,231,109,1,seveneight,,,,,,,,,,,,,,,,,,,,,,,,,,,,,,,,,,,,,,,,,,,,,,,,,,,,,,,,,,,,,,,,,,,,,,,,,,,,,,,,,,,,,,,,,,,,,,,,,,,,,,,,,,,,,,,,,,,,,,,,,,,,,,,,,,,,,,,,,
,,667ebb747b43b02dbbd26d47,2026-03-17_16h07.28.798,kallum_motion_pilot_GIST_update_2,2026.1.1,Win32,30.03003003,667ebb747b43b02dbbd26d47,69b95efdef24cd8a694e89ee,69b9600266ec37dd7a36d1f3,0.1212,0.1212,1,70,232,108,1,sevenfive,,,,,,,,,,,,,,,,,,,,,,,,,,,,,,,,,,,,,,,,,,,,,,,,,,,,,,,,,,,,,,,,,,,,,,,,,,,,,,,,,,,,,,,,,,,,,,,,,,,,,,,,,,,,,,,,,,,,,,,,,,,,,,,,,,,,,,,,,
,,667ebb747b43b02dbbd26d47,2026-03-17_16h07.28.798,kallum_motion_pilot_GIST_update_2,2026.1.1,Win32,30.03003003,667ebb747b43b02dbbd26d47,69b95efdef24cd8a694e89ee,69b9600266ec37dd7a36d1f3,0.1216,0.1216,1,71,233,78,1,fourtwo,,,,,,,,,,,,,,,,,,,,,,,,,,,,,,,,,,,,,,,,,,,,,,,,,,,,,,,,,,,,,,,,,,,,,,,,,,,,,,,,,,,,,,,,,,,,,,,,,,,,,,,,,,,,,,,,,,,,,,,,,,,,,,,,,,,,,,,,,
,,667ebb747b43b02dbbd26d47,2026-03-17_16h07.28.798,kallum_motion_pilot_GIST_update_2,2026.1.1,Win32,30.03003003,667ebb747b43b02dbbd26d47,69b95efdef24cd8a694e89ee,69b9600266ec37dd7a36d1f3,0.1222,0.1222,1,72,234,76,1,threeone,,,,,,,,,,,,,,,,,,,,,,,,,,,,,,,,,,,,,,,,,,,,,,,,,,,,,,,,,,,,,,,,,,,,,,,,,,,,,,,,,,,,,,,,,,,,,,,,,,,,,,,,,,,,,,,,,,,,,,,,,,,,,,,,,,,,,,,,,
,,667ebb747b43b02dbbd26d47,2026-03-17_16h07.28.798,kallum_motion_pilot_GIST_update_2,2026.1.1,Win32,30.03003003,667ebb747b43b02dbbd26d47,69b95efdef24cd8a694e89ee,69b9600266ec37dd7a36d1f3,0.1225,0.1225,1,73,235,159,1,eightseven,,,,,,,,,,,,,,,,,,,,,,,,,,,,,,,,,,,,,,,,,,,,,,,,,,,,,,,,,,,,,,,,,,,,,,,,,,,,,,,,,,,,,,,,,,,,,,,,,,,,,,,,,,,,,,,,,,,,,,,,,,,,,,,,,,,,,,,,,
,,667ebb747b43b02dbbd26d47,2026-03-17_16h07.28.798,kallum_motion_pilot_GIST_update_2,2026.1.1,Win32,30.03003003,667ebb747b43b02dbbd26d47,69b95efdef24cd8a694e89ee,69b9600266ec37dd7a36d1f3,0.1228,0.1228,1,74,236,143,1,eightseven,,,,,,,,,,,,,,,,,,,,,,,,,,,,,,,,,,,,,,,,,,,,,,,,,,,,,,,,,,,,,,,,,,,,,,,,,,,,,,,,,,,,,,,,,,,,,,,,,,,,,,,,,,,,,,,,,,,,,,,,,,,,,,,,,,,,,,,,,
,,667ebb747b43b02dbbd26d47,2026-03-17_16h07.28.798,kallum_motion_pilot_GIST_update_2,2026.1.1,Win32,30.03003003,667ebb747b43b02dbbd26d47,69b95efdef24cd8a694e89ee,69b9600266ec37dd7a36d1f3,0.1234,0.1234,1,75,237,72,1,onetwo,,,,,,,,,,,,,,,,,,,,,,,,,,,,,,,,,,,,,,,,,,,,,,,,,,,,,,,,,,,,,,,,,,,,,,,,,,,,,,,,,,,,,,,,,,,,,,,,,,,,,,,,,,,,,,,,,,,,,,,,,,,,,,,,,,,,,,,,,
,,667ebb747b43b02dbbd26d47,2026-03-17_16h07.28.798,kallum_motion_pilot_GIST_update_2,2026.1.1,Win32,30.03003003,667ebb747b43b02dbbd26d47,69b95efdef24cd8a694e89ee,69b9600266ec37dd7a36d1f3,0.1236,0.1236,1,76,238,2,1,twoone,,,,,,,,,,,,,,,,,,,,,,,,,,,,,,,,,,,,,,,,,,,,,,,,,,,,,,,,,,,,,,,,,,,,,,,,,,,,,,,,,,,,,,,,,,,,,,,,,,,,,,,,,,,,,,,,,,,,,,,,,,,,,,,,,,,,,,,,,
,,667ebb747b43b02dbbd26d47,2026-03-17_16h07.28.798,kallum_motion_pilot_GIST_update_2,2026.1.1,Win32,30.03003003,667ebb747b43b02dbbd26d47,69b95efdef24cd8a694e89ee,69b9600266ec37dd7a36d1f3,0.1239,0.124,1,77,239,98,1,sixfive,,,,,,,,,,,,,,,,,,,,,,,,,,,,,,,,,,,,,,,,,,,,,,,,,,,,,,,,,,,,,,,,,,,,,,,,,,,,,,,,,,,,,,,,,,,,,,,,,,,,,,,,,,,,,,,,,,,,,,,,,,,,,,,,,,,,,,,,,
,,667ebb747b43b02dbbd26d47,2026-03-17_16h07.28.798,kallum_motion_pilot_GIST_update_2,2026.1.1,Win32,30.03003003,667ebb747b43b02dbbd26d47,69b95efdef24cd8a694e89ee,69b9600266ec37dd7a36d1f3,0.1243,0.1243,1,78,240,99,1,sixeight,,,,,,,,,,,,,,,,,,,,,,,,,,,,,,,,,,,,,,,,,,,,,,,,,,,,,,,,,,,,,,,,,,,,,,,,,,,,,,,,,,,,,,,,,,,,,,,,,,,,,,,,,,,,,,,,,,,,,,,,,,,,,,,,,,,,,,,,,
,,667ebb747b43b02dbbd26d47,2026-03-17_16h07.28.798,kallum_motion_pilot_GIST_update_2,2026.1.1,Win32,30.03003003,667ebb747b43b02dbbd26d47,69b95efdef24cd8a694e89ee,69b9600266ec37dd7a36d1f3,0.1246,0.1246,1,79,241,89,1,fiveseven,,,,,,,,,,,,,,,,,,,,,,,,,,,,,,,,,,,,,,,,,,,,,,,,,,,,,,,,,,,,,,,,,,,,,,,,,,,,,,,,,,,,,,,,,,,,,,,,,,,,,,,,,,,,,,,,,,,,,,,,,,,,,,,,,,,,,,,,,
,,667ebb747b43b02dbbd26d47,2026-03-17_16h07.28.798,kallum_motion_pilot_GIST_update_2,2026.1.1,Win32,30.03003003,667ebb747b43b02dbbd26d47,69b95efdef24cd8a694e89ee,69b9600266ec37dd7a36d1f3,0.1249,0.1249,1,80,242,54,1,fourtwo,,,,,,,,,,,,,,,,,,,,,,,,,,,,,,,,,,,,,,,,,,,,,,,,,,,,,,,,,,,,,,,,,,,,,,,,,,,,,,,,,,,,,,,,,,,,,,,,,,,,,,,,,,,,,,,,,,,,,,,,,,,,,,,,,,,,,,,,,
,,667ebb747b43b02dbbd26d47,2026-03-17_16h07.28.798,kallum_motion_pilot_GIST_update_2,2026.1.1,Win32,30.03003003,667ebb747b43b02dbbd26d47,69b95efdef24cd8a694e89ee,69b9600266ec37dd7a36d1f3,0.1252,0.1253,1,81,243,149,1,seveneight,,,,,,,,,,,,,,,,,,,,,,,,,,,,,,,,,,,,,,,,,,,,,,,,,,,,,,,,,,,,,,,,,,,,,,,,,,,,,,,,,,,,,,,,,,,,,,,,,,,,,,,,,,,,,,,,,,,,,,,,,,,,,,,,,,,,,,,,,
,,667ebb747b43b02dbbd26d47,2026-03-17_16h07.28.798,kallum_motion_pilot_GIST_update_2,2026.1.1,Win32,30.03003003,667ebb747b43b02dbbd26d47,69b95efdef24cd8a694e89ee,69b9600266ec37dd7a36d1f3,0.1256,0.1256,1,82,244,131,1,sixeight,,,,,,,,,,,,,,,,,,,,,,,,,,,,,,,,,,,,,,,,,,,,,,,,,,,,,,,,,,,,,,,,,,,,,,,,,,,,,,,,,,,,,,,,,,,,,,,,,,,,,,,,,,,,,,,,,,,,,,,,,,,,,,,,,,,,,,,,,
,,667ebb747b43b02dbbd26d47,2026-03-17_16h07.28.798,kallum_motion_pilot_GIST_update_2,2026.1.1,Win32,30.03003003,667ebb747b43b02dbbd26d47,69b95efdef24cd8a694e89ee,69b9600266ec37dd7a36d1f3,0.1259,0.1259,1,83,245,61,1,threefour,,,,,,,,,,,,,,,,,,,,,,,,,,,,,,,,,,,,,,,,,,,,,,,,,,,,,,,,,,,,,,,,,,,,,,,,,,,,,,,,,,,,,,,,,,,,,,,,,,,,,,,,,,,,,,,,,,,,,,,,,,,,,,,,,,,,,,,,,
,,667ebb747b43b02dbbd26d47,2026-03-17_16h07.28.798,kallum_motion_pilot_GIST_update_2,2026.1.1,Win32,30.03003003,667ebb747b43b02dbbd26d47,69b95efdef24cd8a694e89ee,69b9600266ec37dd7a36d1f3,0.1262,0.1262,1,84,246,65,1,onethree,,,,,,,,,,,,,,,,,,,,,,,,,,,,,,,,,,,,,,,,,,,,,,,,,,,,,,,,,,,,,,,,,,,,,,,,,,,,,,,,,,,,,,,,,,,,,,,,,,,,,,,,,,,,,,,,,,,,,,,,,,,,,,,,,,,,,,,,,
,,667ebb747b43b02dbbd26d47,2026-03-17_16h07.28.798,kallum_motion_pilot_GIST_update_2,2026.1.1,Win32,30.03003003,667ebb747b43b02dbbd26d47,69b95efdef24cd8a694e89ee,69b9600266ec37dd7a36d1f3,0.1266,0.1266,1,85,247,39,1,fourthree,,,,,,,,,,,,,,,,,,,,,,,,,,,,,,,,,,,,,,,,,,,,,,,,,,,,,,,,,,,,,,,,,,,,,,,,,,,,,,,,,,,,,,,,,,,,,,,,,,,,,,,,,,,,,,,,,,,,,,,,,,,,,,,,,,,,,,,,,
,,667ebb747b43b02dbbd26d47,2026-03-17_16h07.28.798,kallum_motion_pilot_GIST_update_2,2026.1.1,Win32,30.03003003,667ebb747b43b02dbbd26d47,69b95efdef24cd8a694e89ee,69b9600266ec37dd7a36d1f3,0.1271,0.1271,1,86,248,13,1,threefour,,,,,,,,,,,,,,,,,,,,,,,,,,,,,,,,,,,,,,,,,,,,,,,,,,,,,,,,,,,,,,,,,,,,,,,,,,,,,,,,,,,,,,,,,,,,,,,,,,,,,,,,,,,,,,,,,,,,,,,,,,,,,,,,,,,,,,,,,
,,667ebb747b43b02dbbd26d47,2026-03-17_16h07.28.798,kallum_motion_pilot_GIST_update_2,2026.1.1,Win32,30.03003003,667ebb747b43b02dbbd26d47,69b95efdef24cd8a694e89ee,69b9600266ec37dd7a36d1f3,0.1278,0.1278,1,87,249,74,1,twoone,,,,,,,,,,,,,,,,,,,,,,,,,,,,,,,,,,,,,,,,,,,,,,,,,,,,,,,,,,,,,,,,,,,,,,,,,,,,,,,,,,,,,,,,,,,,,,,,,,,,,,,,,,,,,,,,,,,,,,,,,,,,,,,,,,,,,,,,,
,,667ebb747b43b02dbbd26d47,2026-03-17_16h07.28.798,kallum_motion_pilot_GIST_update_2,2026.1.1,Win32,30.03003003,667ebb747b43b02dbbd26d47,69b95efdef24cd8a694e89ee,69b9600266ec37dd7a36d1f3,0.1282,0.1282,1,88,250,118,1,eightsix,,,,,,,,,,,,,,,,,,,,,,,,,,,,,,,,,,,,,,,,,,,,,,,,,,,,,,,,,,,,,,,,,,,,,,,,,,,,,,,,,,,,,,,,,,,,,,,,,,,,,,,,,,,,,,,,,,,,,,,,,,,,,,,,,,,,,,,,,
,,667ebb747b43b02dbbd26d47,2026-03-17_16h07.28.798,kallum_motion_pilot_GIST_update_2,2026.1.1,Win32,30.03003003,667ebb747b43b02dbbd26d47,69b95efdef24cd8a694e89ee,69b9600266ec37dd7a36d1f3,0.1285,0.1285,1,89,251,1,1,onethree,,,,,,,,,,,,,,,,,,,,,,,,,,,,,,,,,,,,,,,,,,,,,,,,,,,,,,,,,,,,,,,,,,,,,,,,,,,,,,,,,,,,,,,,,,,,,,,,,,,,,,,,,,,,,,,,,,,,,,,,,,,,,,,,,,,,,,,,,
,,667ebb747b43b02dbbd26d47,2026-03-17_16h07.28.798,kallum_motion_pilot_GIST_update_2,2026.1.1,Win32,30.03003003,667ebb747b43b02dbbd26d47,69b95efdef24cd8a694e89ee,69b9600266ec37dd7a36d1f3,0.1288,0.1288,1,90,252,50,1,twoone,,,,,,,,,,,,,,,,,,,,,,,,,,,,,,,,,,,,,,,,,,,,,,,,,,,,,,,,,,,,,,,,,,,,,,,,,,,,,,,,,,,,,,,,,,,,,,,,,,,,,,,,,,,,,,,,,,,,,,,,,,,,,,,,,,,,,,,,,
,,667ebb747b43b02dbbd26d47,2026-03-17_16h07.28.798,kallum_motion_pilot_GIST_update_2,2026.1.1,Win32,30.03003003,667ebb747b43b02dbbd26d47,69b95efdef24cd8a694e89ee,69b9600266ec37dd7a36d1f3,0.1291,0.1291,1,91,253,97,1,fiveseven,,,,,,,,,,,,,,,,,,,,,,,,,,,,,,,,,,,,,,,,,,,,,,,,,,,,,,,,,,,,,,,,,,,,,,,,,,,,,,,,,,,,,,,,,,,,,,,,,,,,,,,,,,,,,,,,,,,,,,,,,,,,,,,,,,,,,,,,,
,,667ebb747b43b02dbbd26d47,2026-03-17_16h07.28.798,kallum_motion_pilot_GIST_update_2,2026.1.1,Win32,30.03003003,667ebb747b43b02dbbd26d47,69b95efdef24cd8a694e89ee,69b9600266ec37dd7a36d1f3,0.1297,0.1297,1,92,254,64,1,onetwo,,,,,,,,,,,,,,,,,,,,,,,,,,,,,,,,,,,,,,,,,,,,,,,,,,,,,,,,,,,,,,,,,,,,,,,,,,,,,,,,,,,,,,,,,,,,,,,,,,,,,,,,,,,,,,,,,,,,,,,,,,,,,,,,,,,,,,,,,
,,667ebb747b43b02dbbd26d47,2026-03-17_16h07.28.798,kallum_motion_pilot_GIST_update_2,2026.1.1,Win32,30.03003003,667ebb747b43b02dbbd26d47,69b95efdef24cd8a694e89ee,69b9600266ec37dd7a36d1f3,0.1301,0.1301,1,93,255,43,1,twofour,,,,,,,,,,,,,,,,,,,,,,,,,,,,,,,,,,,,,,,,,,,,,,,,,,,,,,,,,,,,,,,,,,,,,,,,,,,,,,,,,,,,,,,,,,,,,,,,,,,,,,,,,,,,,,,,,,,,,,,,,,,,,,,,,,,,,,,,,
,,667ebb747b43b02dbbd26d47,2026-03-17_16h07.28.798,kallum_motion_pilot_GIST_update_2,2026.1.1,Win32,30.03003003,667ebb747b43b02dbbd26d47,69b95efdef24cd8a694e89ee,69b9600266ec37dd7a36d1f3,0.1307,0.1307,1,94,256,40,1,onetwo,,,,,,,,,,,,,,,,,,,,,,,,,,,,,,,,,,,,,,,,,,,,,,,,,,,,,,,,,,,,,,,,,,,,,,,,,,,,,,,,,,,,,,,,,,,,,,,,,,,,,,,,,,,,,,,,,,,,,,,,,,,,,,,,,,,,,,,,,
,,667ebb747b43b02dbbd26d47,2026-03-17_16h07.28.798,kallum_motion_pilot_GIST_update_2,2026.1.1,Win32,30.03003003,667ebb747b43b02dbbd26d47,69b95efdef24cd8a694e89ee,69b9600266ec37dd7a36d1f3,0.1311,0.1312,1,95,257,51,1,twofour,,,,,,,,,,,,,,,,,,,,,,,,,,,,,,,,,,,,,,,,,,,,,,,,,,,,,,,,,,,,,,,,,,,,,,,,,,,,,,,,,,,,,,,,,,,,,,,,,,,,,,,,,,,,,,,,,,,,,,,,,,,,,,,,,,,,,,,,,
,,667ebb747b43b02dbbd26d47,2026-03-17_16h07.28.798,kallum_motion_pilot_GIST_update_2,2026.1.1,Win32,30.03003003,667ebb747b43b02dbbd26d47,69b95efdef24cd8a694e89ee,69b9600266ec37dd7a36d1f3,0.1314,0.1315,1,96,258,145,1,fiveseven,,,,,,,,,,,,,,,,,,,,,,,,,,,,,,,,,,,,,,,,,,,,,,,,,,,,,,,,,,,,,,,,,,,,,,,,,,,,,,,,,,,,,,,,,,,,,,,,,,,,,,,,,,,,,,,,,,,,,,,,,,,,,,,,,,,,,,,,,
,,667ebb747b43b02dbbd26d47,2026-03-17_16h07.28.798,kallum_motion_pilot_GIST_update_2,2026.1.1,Win32,30.03003003,667ebb747b43b02dbbd26d47,69b95efdef24cd8a694e89ee,69b9600266ec37dd7a36d1f3,0.1318,0.1318,1,97,259,123,1,sixeight,,,,,,,,,,,,,,,,,,,,,,,,,,,,,,,,,,,,,,,,,,,,,,,,,,,,,,,,,,,,,,,,,,,,,,,,,,,,,,,,,,,,,,,,,,,,,,,,,,,,,,,,,,,,,,,,,,,,,,,,,,,,,,,,,,,,,,,,,
,,667ebb747b43b02dbbd26d47,2026-03-17_16h07.28.798,kallum_motion_pilot_GIST_update_2,2026.1.1,Win32,30.03003003,667ebb747b43b02dbbd26d47,69b95efdef24cd8a694e89ee,69b9600266ec37dd7a36d1f3,0.1322,0.1322,1,98,260,24,1,onetwo,,,,,,,,,,,,,,,,,,,,,,,,,,,,,,,,,,,,,,,,,,,,,,,,,,,,,,,,,,,,,,,,,,,,,,,,,,,,,,,,,,,,,,,,,,,,,,,,,,,,,,,,,,,,,,,,,,,,,,,,,,,,,,,,,,,,,,,,,
,,667ebb747b43b02dbbd26d47,2026-03-17_16h07.28.798,kallum_motion_pilot_GIST_update_2,2026.1.1,Win32,30.03003003,667ebb747b43b02dbbd26d47,69b95efdef24cd8a694e89ee,69b9600266ec37dd7a36d1f3,0.1325,0.1325,1,99,261,101,1,seveneight,,,,,,,,,,,,,,,,,,,,,,,,,,,,,,,,,,,,,,,,,,,,,,,,,,,,,,,,,,,,,,,,,,,,,,,,,,,,,,,,,,,,,,,,,,,,,,,,,,,,,,,,,,,,,,,,,,,,,,,,,,,,,,,,,,,,,,,,,
,,667ebb747b43b02dbbd26d47,2026-03-17_16h07.28.798,kallum_motion_pilot_GIST_update_2,2026.1.1,Win32,30.03003003,667ebb747b43b02dbbd26d47,69b95efdef24cd8a694e89ee,69b9600266ec37dd7a36d1f3,0.1328,0.1328,1,100,262,126,1,eightsix,,,,,,,,,,,,,,,,,,,,,,,,,,,,,,,,,,,,,,,,,,,,,,,,,,,,,,,,,,,,,,,,,,,,,,,,,,,,,,,,,,,,,,,,,,,,,,,,,,,,,,,,,,,,,,,,,,,,,,,,,,,,,,,,,,,,,,,,,
,,667ebb747b43b02dbbd26d47,2026-03-17_16h07.28.798,kallum_motion_pilot_GIST_update_2,2026.1.1,Win32,30.03003003,667ebb747b43b02dbbd26d47,69b95efdef24cd8a694e89ee,69b9600266ec37dd7a36d1f3,0.1331,0.1331,1,101,263,92,1,sevenfive,,,,,,,,,,,,,,,,,,,,,,,,,,,,,,,,,,,,,,,,,,,,,,,,,,,,,,,,,,,,,,,,,,,,,,,,,,,,,,,,,,,,,,,,,,,,,,,,,,,,,,,,,,,,,,,,,,,,,,,,,,,,,,,,,,,,,,,,,
,,667ebb747b43b02dbbd26d47,2026-03-17_16h07.28.798,kallum_motion_pilot_GIST_update_2,2026.1.1,Win32,30.03003003,667ebb747b43b02dbbd26d47,69b95efdef24cd8a694e89ee,69b9600266ec37dd7a36d1f3,0.1335,0.1335,1,102,264,0,1,onetwo,,,,,,,,,,,,,,,,,,,,,,,,,,,,,,,,,,,,,,,,,,,,,,,,,,,,,,,,,,,,,,,,,,,,,,,,,,,,,,,,,,,,,,,,,,,,,,,,,,,,,,,,,,,,,,,,,,,,,,,,,,,,,,,,,,,,,,,,,
,,667ebb747b43b02dbbd26d47,2026-03-17_16h07.28.798,kallum_motion_pilot_GIST_update_2,2026.1.1,Win32,30.03003003,667ebb747b43b02dbbd26d47,69b95efdef24cd8a694e89ee,69b9600266ec37dd7a36d1f3,0.1339,0.1339,1,103,265,107,1,sixeight,,,,,,,,,,,,,,,,,,,,,,,,,,,,,,,,,,,,,,,,,,,,,,,,,,,,,,,,,,,,,,,,,,,,,,,,,,,,,,,,,,,,,,,,,,,,,,,,,,,,,,,,,,,,,,,,,,,,,,,,,,,,,,,,,,,,,,,,,
,,667ebb747b43b02dbbd26d47,2026-03-17_16h07.28.798,kallum_motion_pilot_GIST_update_2,2026.1.1,Win32,30.03003003,667ebb747b43b02dbbd26d47,69b95efdef24cd8a694e89ee,69b9600266ec37dd7a36d1f3,0.1342,0.1342,1,104,266,87,1,eightseven,,,,,,,,,,,,,,,,,,,,,,,,,,,,,,,,,,,,,,,,,,,,,,,,,,,,,,,,,,,,,,,,,,,,,,,,,,,,,,,,,,,,,,,,,,,,,,,,,,,,,,,,,,,,,,,,,,,,,,,,,,,,,,,,,,,,,,,,,
