startup.started,startup.stopped,Prolific ID*,date,expName,psychopyVersion,OS,frameRate,participant,study_id,session,stimpositions.started,stimpositions.stopped,hardcoded_stimulus_positions.thisRepN,hardcoded_stimulus_positions.thisTrialN,hardcoded_stimulus_positions.thisN,hardcoded_stimulus_positions.thisIndex,hardcoded_stimulus_positions.ran,StimulusPos,stimorientation.started,stimorientation.stopped,prac_stimorientation_import_loop.thisRepN,prac_stimorientation_import_loop.thisTrialN,prac_stimorientation_import_loop.thisN,prac_stimorientation_import_loop.thisIndex,prac_stimorientation_import_loop.ran,Stimorientation,welcome_instr.started,welcome_instr.stopped,key_resp.keys,key_resp.rt,key_resp.duration,response_steppedout_1.started,response_steppedout_1.stopped,key_resp_20.keys,key_resp_20.rt,key_resp_20.duration,response_steppedout_2.started,response_steppedout_2.stopped,key_resp_19.keys,key_resp_19.rt,key_resp_19.duration,stim_response_instr.started,stim_response_instr.stopped,key_resp_15.keys,key_resp_15.rt,key_resp_15.duration,direction_instr_2.started,direction_instr_2.stopped,key_resp_9.keys,key_resp_9.rt,key_resp_9.duration,instr_prac.started,instr_prac.stopped,key_resp_10.keys,key_resp_10.rt,key_resp_10.duration,Stim1_display_prac.started,Stim1_display_prac.stopped,Ecc,Circle1_ori,Circle2_ori,response_prac.started,similarity,response_time,response_prac.stopped,mouse_5.x,mouse_5.y,mouse_5.leftButton,mouse_5.midButton,mouse_5.rightButton,mouse_5.clicked_name,responseprac_feedback.started,responseprac_feedback.stopped,summary2_prac.started,summary2_prac.stopped,mouse_6.x,mouse_6.y,mouse_6.leftButton,mouse_6.midButton,mouse_6.rightButton,mouse_6.clicked_name,duringprac.thisRepN,duringprac.thisTrialN,duringprac.thisN,duringprac.thisIndex,duringprac.ran,begin.started,begin.stopped,key_resp_22.keys,key_resp_22.rt,key_resp_22.duration,Stim1_display.started,Stim1_display.stopped,circle1_ori,circle2_ori,circle1_SF,circle2_SF,response.started,response.stopped,mouse.x,mouse.y,mouse.leftButton,mouse.midButton,mouse.rightButton,mouse.clicked_name,trialnumber,double_pass.thisRepN,double_pass.thisTrialN,double_pass.thisN,double_pass.thisIndex,double_pass.ran,double_pass.order,main_trial.thisRepN,main_trial.thisTrialN,main_trial.thisN,main_trial.thisIndex,main_trial.ran,main_trial.order,Trial_Counter,Catch,Frequencies,response_2.started,response_2.stopped,mouse_2.x,mouse_2.y,mouse_2.leftButton,mouse_2.midButton,mouse_2.rightButton,mouse_2.clicked_name,special_trial.started,special_trial.stopped,catch_1.started,catch_1.stopped,mouse_3.x,mouse_3.y,mouse_3.leftButton,mouse_3.midButton,mouse_3.rightButton,catchresponse,catchnumber,response_time_catch,response_sum.started,response_sum.stopped,mouse_11.x,mouse_11.y,mouse_11.leftButton,mouse_11.midButton,mouse_11.rightButton,flip_presentation_sequence_for_double_pass.started,flip_presentation_sequence_for_double_pass.stopped,goodbye.started,goodbye.stopped,key_resp_3.keys,key_resp_3.rt,key_resp_3.duration
0.0004,0.0004,6687ef6d11e0933961e2267f,2026-03-17_16h11.26.963,kallum_motion_pilot_GIST_update_2,2026.1.1,Win32,60.24096386,6687ef6d11e0933961e2267f,69b95efdef24cd8a694e89ee,69b960ba331938bbe5c7e3ed,,,,,,,,,,,,,,,,,,,,,,,,,,,,,,,,,,,,,,,,,,,,,,,,,,,,,,,,,,,,,,,,,,,,,,,,,,,,,,,,,,,,,,,,,,,,,,,,,,,,,,,,,,,,,,,,,,,,,,,,,,,,,,,,,,,,,,,,,,,,,,,,,
,,6687ef6d11e0933961e2267f,2026-03-17_16h11.26.963,kallum_motion_pilot_GIST_update_2,2026.1.1,Win32,60.24096386,6687ef6d11e0933961e2267f,69b95efdef24cd8a694e89ee,69b960ba331938bbe5c7e3ed,0.0174,0.0175,0,0,0,123,1,sixeight,,,,,,,,,,,,,,,,,,,,,,,,,,,,,,,,,,,,,,,,,,,,,,,,,,,,,,,,,,,,,,,,,,,,,,,,,,,,,,,,,,,,,,,,,,,,,,,,,,,,,,,,,,,,,,,,,,,,,,,,,,,,,,,,,,,,,,,,,
,,6687ef6d11e0933961e2267f,2026-03-17_16h11.26.963,kallum_motion_pilot_GIST_update_2,2026.1.1,Win32,60.24096386,6687ef6d11e0933961e2267f,69b95efdef24cd8a694e89ee,69b960ba331938bbe5c7e3ed,0.0177,0.0177,0,1,1,47,1,fourthree,,,,,,,,,,,,,,,,,,,,,,,,,,,,,,,,,,,,,,,,,,,,,,,,,,,,,,,,,,,,,,,,,,,,,,,,,,,,,,,,,,,,,,,,,,,,,,,,,,,,,,,,,,,,,,,,,,,,,,,,,,,,,,,,,,,,,,,,,
,,6687ef6d11e0933961e2267f,2026-03-17_16h11.26.963,kallum_motion_pilot_GIST_update_2,2026.1.1,Win32,60.24096386,6687ef6d11e0933961e2267f,69b95efdef24cd8a694e89ee,69b960ba331938bbe5c7e3ed,0.0177,0.0177,0,2,2,68,1,threeone,,,,,,,,,,,,,,,,,,,,,,,,,,,,,,,,,,,,,,,,,,,,,,,,,,,,,,,,,,,,,,,,,,,,,,,,,,,,,,,,,,,,,,,,,,,,,,,,,,,,,,,,,,,,,,,,,,,,,,,,,,,,,,,,,,,,,,,,,
,,6687ef6d11e0933961e2267f,2026-03-17_16h11.26.963,kallum_motion_pilot_GIST_update_2,2026.1.1,Win32,60.24096386,6687ef6d11e0933961e2267f,69b95efdef24cd8a694e89ee,69b960ba331938bbe5c7e3ed,0.0179,0.0179,0,3,3,57,1,onethree,,,,,,,,,,,,,,,,,,,,,,,,,,,,,,,,,,,,,,,,,,,,,,,,,,,,,,,,,,,,,,,,,,,,,,,,,,,,,,,,,,,,,,,,,,,,,,,,,,,,,,,,,,,,,,,,,,,,,,,,,,,,,,,,,,,,,,,,,
,,6687ef6d11e0933961e2267f,2026-03-17_16h11.26.963,kallum_motion_pilot_GIST_update_2,2026.1.1,Win32,60.24096386,6687ef6d11e0933961e2267f,69b95efdef24cd8a694e89ee,69b960ba331938bbe5c7e3ed,0.0179,0.018,0,4,4,147,1,sixeight,,,,,,,,,,,,,,,,,,,,,,,,,,,,,,,,,,,,,,,,,,,,,,,,,,,,,,,,,,,,,,,,,,,,,,,,,,,,,,,,,,,,,,,,,,,,,,,,,,,,,,,,,,,,,,,,,,,,,,,,,,,,,,,,,,,,,,,,,
,,6687ef6d11e0933961e2267f,2026-03-17_16h11.26.963,kallum_motion_pilot_GIST_update_2,2026.1.1,Win32,60.24096386,6687ef6d11e0933961e2267f,69b95efdef24cd8a694e89ee,69b960ba331938bbe5c7e3ed,0.018,0.018,0,5,5,93,1,seveneight,,,,,,,,,,,,,,,,,,,,,,,,,,,,,,,,,,,,,,,,,,,,,,,,,,,,,,,,,,,,,,,,,,,,,,,,,,,,,,,,,,,,,,,,,,,,,,,,,,,,,,,,,,,,,,,,,,,,,,,,,,,,,,,,,,,,,,,,,
,,6687ef6d11e0933961e2267f,2026-03-17_16h11.26.963,kallum_motion_pilot_GIST_update_2,2026.1.1,Win32,60.24096386,6687ef6d11e0933961e2267f,69b95efdef24cd8a694e89ee,69b960ba331938bbe5c7e3ed,0.018,0.018,0,6,6,112,1,fivesix,,,,,,,,,,,,,,,,,,,,,,,,,,,,,,,,,,,,,,,,,,,,,,,,,,,,,,,,,,,,,,,,,,,,,,,,,,,,,,,,,,,,,,,,,,,,,,,,,,,,,,,,,,,,,,,,,,,,,,,,,,,,,,,,,,,,,,,,,
,,6687ef6d11e0933961e2267f,2026-03-17_16h11.26.963,kallum_motion_pilot_GIST_update_2,2026.1.1,Win32,60.24096386,6687ef6d11e0933961e2267f,69b95efdef24cd8a694e89ee,69b960ba331938bbe5c7e3ed,0.0181,0.0181,0,7,7,107,1,sixeight,,,,,,,,,,,,,,,,,,,,,,,,,,,,,,,,,,,,,,,,,,,,,,,,,,,,,,,,,,,,,,,,,,,,,,,,,,,,,,,,,,,,,,,,,,,,,,,,,,,,,,,,,,,,,,,,,,,,,,,,,,,,,,,,,,,,,,,,,
,,6687ef6d11e0933961e2267f,2026-03-17_16h11.26.963,kallum_motion_pilot_GIST_update_2,2026.1.1,Win32,60.24096386,6687ef6d11e0933961e2267f,69b95efdef24cd8a694e89ee,69b960ba331938bbe5c7e3ed,0.0183,0.0183,0,8,8,98,1,sixfive,,,,,,,,,,,,,,,,,,,,,,,,,,,,,,,,,,,,,,,,,,,,,,,,,,,,,,,,,,,,,,,,,,,,,,,,,,,,,,,,,,,,,,,,,,,,,,,,,,,,,,,,,,,,,,,,,,,,,,,,,,,,,,,,,,,,,,,,,
,,6687ef6d11e0933961e2267f,2026-03-17_16h11.26.963,kallum_motion_pilot_GIST_update_2,2026.1.1,Win32,60.24096386,6687ef6d11e0933961e2267f,69b95efdef24cd8a694e89ee,69b960ba331938bbe5c7e3ed,0.0183,0.0183,0,9,9,44,1,threeone,,,,,,,,,,,,,,,,,,,,,,,,,,,,,,,,,,,,,,,,,,,,,,,,,,,,,,,,,,,,,,,,,,,,,,,,,,,,,,,,,,,,,,,,,,,,,,,,,,,,,,,,,,,,,,,,,,,,,,,,,,,,,,,,,,,,,,,,,
,,6687ef6d11e0933961e2267f,2026-03-17_16h11.26.963,kallum_motion_pilot_GIST_update_2,2026.1.1,Win32,60.24096386,6687ef6d11e0933961e2267f,69b95efdef24cd8a694e89ee,69b960ba331938bbe5c7e3ed,0.0184,0.0184,0,10,10,32,1,onetwo,,,,,,,,,,,,,,,,,,,,,,,,,,,,,,,,,,,,,,,,,,,,,,,,,,,,,,,,,,,,,,,,,,,,,,,,,,,,,,,,,,,,,,,,,,,,,,,,,,,,,,,,,,,,,,,,,,,,,,,,,,,,,,,,,,,,,,,,,
,,6687ef6d11e0933961e2267f,2026-03-17_16h11.26.963,kallum_motion_pilot_GIST_update_2,2026.1.1,Win32,60.24096386,6687ef6d11e0933961e2267f,69b95efdef24cd8a694e89ee,69b960ba331938bbe5c7e3ed,0.0185,0.0185,0,11,11,45,1,threefour,,,,,,,,,,,,,,,,,,,,,,,,,,,,,,,,,,,,,,,,,,,,,,,,,,,,,,,,,,,,,,,,,,,,,,,,,,,,,,,,,,,,,,,,,,,,,,,,,,,,,,,,,,,,,,,,,,,,,,,,,,,,,,,,,,,,,,,,,
,,6687ef6d11e0933961e2267f,2026-03-17_16h11.26.963,kallum_motion_pilot_GIST_update_2,2026.1.1,Win32,60.24096386,6687ef6d11e0933961e2267f,69b95efdef24cd8a694e89ee,69b960ba331938bbe5c7e3ed,0.0185,0.0185,0,12,12,78,1,fourtwo,,,,,,,,,,,,,,,,,,,,,,,,,,,,,,,,,,,,,,,,,,,,,,,,,,,,,,,,,,,,,,,,,,,,,,,,,,,,,,,,,,,,,,,,,,,,,,,,,,,,,,,,,,,,,,,,,,,,,,,,,,,,,,,,,,,,,,,,,
,,6687ef6d11e0933961e2267f,2026-03-17_16h11.26.963,kallum_motion_pilot_GIST_update_2,2026.1.1,Win32,60.24096386,6687ef6d11e0933961e2267f,69b95efdef24cd8a694e89ee,69b960ba331938bbe5c7e3ed,0.0185,0.0185,0,13,13,51,1,twofour,,,,,,,,,,,,,,,,,,,,,,,,,,,,,,,,,,,,,,,,,,,,,,,,,,,,,,,,,,,,,,,,,,,,,,,,,,,,,,,,,,,,,,,,,,,,,,,,,,,,,,,,,,,,,,,,,,,,,,,,,,,,,,,,,,,,,,,,,
,,6687ef6d11e0933961e2267f,2026-03-17_16h11.26.963,kallum_motion_pilot_GIST_update_2,2026.1.1,Win32,60.24096386,6687ef6d11e0933961e2267f,69b95efdef24cd8a694e89ee,69b960ba331938bbe5c7e3ed,0.0186,0.0186,0,14,14,83,1,sixeight,,,,,,,,,,,,,,,,,,,,,,,,,,,,,,,,,,,,,,,,,,,,,,,,,,,,,,,,,,,,,,,,,,,,,,,,,,,,,,,,,,,,,,,,,,,,,,,,,,,,,,,,,,,,,,,,,,,,,,,,,,,,,,,,,,,,,,,,,
,,6687ef6d11e0933961e2267f,2026-03-17_16h11.26.963,kallum_motion_pilot_GIST_update_2,2026.1.1,Win32,60.24096386,6687ef6d11e0933961e2267f,69b95efdef24cd8a694e89ee,69b960ba331938bbe5c7e3ed,0.0186,0.0187,0,15,15,20,1,threeone,,,,,,,,,,,,,,,,,,,,,,,,,,,,,,,,,,,,,,,,,,,,,,,,,,,,,,,,,,,,,,,,,,,,,,,,,,,,,,,,,,,,,,,,,,,,,,,,,,,,,,,,,,,,,,,,,,,,,,,,,,,,,,,,,,,,,,,,,
,,6687ef6d11e0933961e2267f,2026-03-17_16h11.26.963,kallum_motion_pilot_GIST_update_2,2026.1.1,Win32,60.24096386,6687ef6d11e0933961e2267f,69b95efdef24cd8a694e89ee,69b960ba331938bbe5c7e3ed,0.0187,0.0187,0,16,16,6,1,fourtwo,,,,,,,,,,,,,,,,,,,,,,,,,,,,,,,,,,,,,,,,,,,,,,,,,,,,,,,,,,,,,,,,,,,,,,,,,,,,,,,,,,,,,,,,,,,,,,,,,,,,,,,,,,,,,,,,,,,,,,,,,,,,,,,,,,,,,,,,,
,,6687ef6d11e0933961e2267f,2026-03-17_16h11.26.963,kallum_motion_pilot_GIST_update_2,2026.1.1,Win32,60.24096386,6687ef6d11e0933961e2267f,69b95efdef24cd8a694e89ee,69b960ba331938bbe5c7e3ed,0.0187,0.0188,0,17,17,34,1,twoone,,,,,,,,,,,,,,,,,,,,,,,,,,,,,,,,,,,,,,,,,,,,,,,,,,,,,,,,,,,,,,,,,,,,,,,,,,,,,,,,,,,,,,,,,,,,,,,,,,,,,,,,,,,,,,,,,,,,,,,,,,,,,,,,,,,,,,,,,
,,6687ef6d11e0933961e2267f,2026-03-17_16h11.26.963,kallum_motion_pilot_GIST_update_2,2026.1.1,Win32,60.24096386,6687ef6d11e0933961e2267f,69b95efdef24cd8a694e89ee,69b960ba331938bbe5c7e3ed,0.0188,0.0188,0,18,18,43,1,twofour,,,,,,,,,,,,,,,,,,,,,,,,,,,,,,,,,,,,,,,,,,,,,,,,,,,,,,,,,,,,,,,,,,,,,,,,,,,,,,,,,,,,,,,,,,,,,,,,,,,,,,,,,,,,,,,,,,,,,,,,,,,,,,,,,,,,,,,,,
,,6687ef6d11e0933961e2267f,2026-03-17_16h11.26.963,kallum_motion_pilot_GIST_update_2,2026.1.1,Win32,60.24096386,6687ef6d11e0933961e2267f,69b95efdef24cd8a694e89ee,69b960ba331938bbe5c7e3ed,0.0188,0.0188,0,19,19,73,1,onethree,,,,,,,,,,,,,,,,,,,,,,,,,,,,,,,,,,,,,,,,,,,,,,,,,,,,,,,,,,,,,,,,,,,,,,,,,,,,,,,,,,,,,,,,,,,,,,,,,,,,,,,,,,,,,,,,,,,,,,,,,,,,,,,,,,,,,,,,,
,,6687ef6d11e0933961e2267f,2026-03-17_16h11.26.963,kallum_motion_pilot_GIST_update_2,2026.1.1,Win32,60.24096386,6687ef6d11e0933961e2267f,69b95efdef24cd8a694e89ee,69b960ba331938bbe5c7e3ed,0.0189,0.0189,0,20,20,4,1,threeone,,,,,,,,,,,,,,,,,,,,,,,,,,,,,,,,,,,,,,,,,,,,,,,,,,,,,,,,,,,,,,,,,,,,,,,,,,,,,,,,,,,,,,,,,,,,,,,,,,,,,,,,,,,,,,,,,,,,,,,,,,,,,,,,,,,,,,,,,
,,6687ef6d11e0933961e2267f,2026-03-17_16h11.26.963,kallum_motion_pilot_GIST_update_2,2026.1.1,Win32,60.24096386,6687ef6d11e0933961e2267f,69b95efdef24cd8a694e89ee,69b960ba331938bbe5c7e3ed,0.0189,0.0189,0,21,21,143,1,eightseven,,,,,,,,,,,,,,,,,,,,,,,,,,,,,,,,,,,,,,,,,,,,,,,,,,,,,,,,,,,,,,,,,,,,,,,,,,,,,,,,,,,,,,,,,,,,,,,,,,,,,,,,,,,,,,,,,,,,,,,,,,,,,,,,,,,,,,,,,
,,6687ef6d11e0933961e2267f,2026-03-17_16h11.26.963,kallum_motion_pilot_GIST_update_2,2026.1.1,Win32,60.24096386,6687ef6d11e0933961e2267f,69b95efdef24cd8a694e89ee,69b960ba331938bbe5c7e3ed,0.019,0.019,0,22,22,59,1,twofour,,,,,,,,,,,,,,,,,,,,,,,,,,,,,,,,,,,,,,,,,,,,,,,,,,,,,,,,,,,,,,,,,,,,,,,,,,,,,,,,,,,,,,,,,,,,,,,,,,,,,,,,,,,,,,,,,,,,,,,,,,,,,,,,,,,,,,,,,
,,6687ef6d11e0933961e2267f,2026-03-17_16h11.26.963,kallum_motion_pilot_GIST_update_2,2026.1.1,Win32,60.24096386,6687ef6d11e0933961e2267f,69b95efdef24cd8a694e89ee,69b960ba331938bbe5c7e3ed,0.019,0.019,0,23,23,41,1,onethree,,,,,,,,,,,,,,,,,,,,,,,,,,,,,,,,,,,,,,,,,,,,,,,,,,,,,,,,,,,,,,,,,,,,,,,,,,,,,,,,,,,,,,,,,,,,,,,,,,,,,,,,,,,,,,,,,,,,,,,,,,,,,,,,,,,,,,,,,
,,6687ef6d11e0933961e2267f,2026-03-17_16h11.26.963,kallum_motion_pilot_GIST_update_2,2026.1.1,Win32,60.24096386,6687ef6d11e0933961e2267f,69b95efdef24cd8a694e89ee,69b960ba331938bbe5c7e3ed,0.019,0.019,0,24,24,54,1,fourtwo,,,,,,,,,,,,,,,,,,,,,,,,,,,,,,,,,,,,,,,,,,,,,,,,,,,,,,,,,,,,,,,,,,,,,,,,,,,,,,,,,,,,,,,,,,,,,,,,,,,,,,,,,,,,,,,,,,,,,,,,,,,,,,,,,,,,,,,,,
,,6687ef6d11e0933961e2267f,2026-03-17_16h11.26.963,kallum_motion_pilot_GIST_update_2,2026.1.1,Win32,60.24096386,6687ef6d11e0933961e2267f,69b95efdef24cd8a694e89ee,69b960ba331938bbe5c7e3ed,0.0192,0.0192,0,25,25,119,1,eightseven,,,,,,,,,,,,,,,,,,,,,,,,,,,,,,,,,,,,,,,,,,,,,,,,,,,,,,,,,,,,,,,,,,,,,,,,,,,,,,,,,,,,,,,,,,,,,,,,,,,,,,,,,,,,,,,,,,,,,,,,,,,,,,,,,,,,,,,,,
,,6687ef6d11e0933961e2267f,2026-03-17_16h11.26.963,kallum_motion_pilot_GIST_update_2,2026.1.1,Win32,60.24096386,6687ef6d11e0933961e2267f,69b95efdef24cd8a694e89ee,69b960ba331938bbe5c7e3ed,0.0194,0.0194,0,26,26,70,1,fourtwo,,,,,,,,,,,,,,,,,,,,,,,,,,,,,,,,,,,,,,,,,,,,,,,,,,,,,,,,,,,,,,,,,,,,,,,,,,,,,,,,,,,,,,,,,,,,,,,,,,,,,,,,,,,,,,,,,,,,,,,,,,,,,,,,,,,,,,,,,
,,6687ef6d11e0933961e2267f,2026-03-17_16h11.26.963,kallum_motion_pilot_GIST_update_2,2026.1.1,Win32,60.24096386,6687ef6d11e0933961e2267f,69b95efdef24cd8a694e89ee,69b960ba331938bbe5c7e3ed,0.0195,0.0195,0,27,27,2,1,twoone,,,,,,,,,,,,,,,,,,,,,,,,,,,,,,,,,,,,,,,,,,,,,,,,,,,,,,,,,,,,,,,,,,,,,,,,,,,,,,,,,,,,,,,,,,,,,,,,,,,,,,,,,,,,,,,,,,,,,,,,,,,,,,,,,,,,,,,,,
,,6687ef6d11e0933961e2267f,2026-03-17_16h11.26.963,kallum_motion_pilot_GIST_update_2,2026.1.1,Win32,60.24096386,6687ef6d11e0933961e2267f,69b95efdef24cd8a694e89ee,69b960ba331938bbe5c7e3ed,0.0195,0.0195,0,28,28,75,1,twofour,,,,,,,,,,,,,,,,,,,,,,,,,,,,,,,,,,,,,,,,,,,,,,,,,,,,,,,,,,,,,,,,,,,,,,,,,,,,,,,,,,,,,,,,,,,,,,,,,,,,,,,,,,,,,,,,,,,,,,,,,,,,,,,,,,,,,,,,,
,,6687ef6d11e0933961e2267f,2026-03-17_16h11.26.963,kallum_motion_pilot_GIST_update_2,2026.1.1,Win32,60.24096386,6687ef6d11e0933961e2267f,69b95efdef24cd8a694e89ee,69b960ba331938bbe5c7e3ed,0.0196,0.0196,0,29,29,106,1,sixfive,,,,,,,,,,,,,,,,,,,,,,,,,,,,,,,,,,,,,,,,,,,,,,,,,,,,,,,,,,,,,,,,,,,,,,,,,,,,,,,,,,,,,,,,,,,,,,,,,,,,,,,,,,,,,,,,,,,,,,,,,,,,,,,,,,,,,,,,,
,,6687ef6d11e0933961e2267f,2026-03-17_16h11.26.963,kallum_motion_pilot_GIST_update_2,2026.1.1,Win32,60.24096386,6687ef6d11e0933961e2267f,69b95efdef24cd8a694e89ee,69b960ba331938bbe5c7e3ed,0.0196,0.0196,0,30,30,153,1,fiveseven,,,,,,,,,,,,,,,,,,,,,,,,,,,,,,,,,,,,,,,,,,,,,,,,,,,,,,,,,,,,,,,,,,,,,,,,,,,,,,,,,,,,,,,,,,,,,,,,,,,,,,,,,,,,,,,,,,,,,,,,,,,,,,,,,,,,,,,,,
,,6687ef6d11e0933961e2267f,2026-03-17_16h11.26.963,kallum_motion_pilot_GIST_update_2,2026.1.1,Win32,60.24096386,6687ef6d11e0933961e2267f,69b95efdef24cd8a694e89ee,69b960ba331938bbe5c7e3ed,0.0197,0.0197,0,31,31,125,1,seveneight,,,,,,,,,,,,,,,,,,,,,,,,,,,,,,,,,,,,,,,,,,,,,,,,,,,,,,,,,,,,,,,,,,,,,,,,,,,,,,,,,,,,,,,,,,,,,,,,,,,,,,,,,,,,,,,,,,,,,,,,,,,,,,,,,,,,,,,,,
,,6687ef6d11e0933961e2267f,2026-03-17_16h11.26.963,kallum_motion_pilot_GIST_update_2,2026.1.1,Win32,60.24096386,6687ef6d11e0933961e2267f,69b95efdef24cd8a694e89ee,69b960ba331938bbe5c7e3ed,0.02,0.02,0,32,32,137,1,fiveseven,,,,,,,,,,,,,,,,,,,,,,,,,,,,,,,,,,,,,,,,,,,,,,,,,,,,,,,,,,,,,,,,,,,,,,,,,,,,,,,,,,,,,,,,,,,,,,,,,,,,,,,,,,,,,,,,,,,,,,,,,,,,,,,,,,,,,,,,,
,,6687ef6d11e0933961e2267f,2026-03-17_16h11.26.963,kallum_motion_pilot_GIST_update_2,2026.1.1,Win32,60.24096386,6687ef6d11e0933961e2267f,69b95efdef24cd8a694e89ee,69b960ba331938bbe5c7e3ed,0.0201,0.0201,0,33,33,16,1,onetwo,,,,,,,,,,,,,,,,,,,,,,,,,,,,,,,,,,,,,,,,,,,,,,,,,,,,,,,,,,,,,,,,,,,,,,,,,,,,,,,,,,,,,,,,,,,,,,,,,,,,,,,,,,,,,,,,,,,,,,,,,,,,,,,,,,,,,,,,,
,,6687ef6d11e0933961e2267f,2026-03-17_16h11.26.963,kallum_motion_pilot_GIST_update_2,2026.1.1,Win32,60.24096386,6687ef6d11e0933961e2267f,69b95efdef24cd8a694e89ee,69b960ba331938bbe5c7e3ed,0.0202,0.0202,0,34,34,132,1,sevenfive,,,,,,,,,,,,,,,,,,,,,,,,,,,,,,,,,,,,,,,,,,,,,,,,,,,,,,,,,,,,,,,,,,,,,,,,,,,,,,,,,,,,,,,,,,,,,,,,,,,,,,,,,,,,,,,,,,,,,,,,,,,,,,,,,,,,,,,,,
,,6687ef6d11e0933961e2267f,2026-03-17_16h11.26.963,kallum_motion_pilot_GIST_update_2,2026.1.1,Win32,60.24096386,6687ef6d11e0933961e2267f,69b95efdef24cd8a694e89ee,69b960ba331938bbe5c7e3ed,0.0203,0.0203,0,35,35,17,1,onethree,,,,,,,,,,,,,,,,,,,,,,,,,,,,,,,,,,,,,,,,,,,,,,,,,,,,,,,,,,,,,,,,,,,,,,,,,,,,,,,,,,,,,,,,,,,,,,,,,,,,,,,,,,,,,,,,,,,,,,,,,,,,,,,,,,,,,,,,,
,,6687ef6d11e0933961e2267f,2026-03-17_16h11.26.963,kallum_motion_pilot_GIST_update_2,2026.1.1,Win32,60.24096386,6687ef6d11e0933961e2267f,69b95efdef24cd8a694e89ee,69b960ba331938bbe5c7e3ed,0.0204,0.0204,0,36,36,5,1,threefour,,,,,,,,,,,,,,,,,,,,,,,,,,,,,,,,,,,,,,,,,,,,,,,,,,,,,,,,,,,,,,,,,,,,,,,,,,,,,,,,,,,,,,,,,,,,,,,,,,,,,,,,,,,,,,,,,,,,,,,,,,,,,,,,,,,,,,,,,
,,6687ef6d11e0933961e2267f,2026-03-17_16h11.26.963,kallum_motion_pilot_GIST_update_2,2026.1.1,Win32,60.24096386,6687ef6d11e0933961e2267f,69b95efdef24cd8a694e89ee,69b960ba331938bbe5c7e3ed,0.0204,0.0204,0,37,37,69,1,threefour,,,,,,,,,,,,,,,,,,,,,,,,,,,,,,,,,,,,,,,,,,,,,,,,,,,,,,,,,,,,,,,,,,,,,,,,,,,,,,,,,,,,,,,,,,,,,,,,,,,,,,,,,,,,,,,,,,,,,,,,,,,,,,,,,,,,,,,,,
,,6687ef6d11e0933961e2267f,2026-03-17_16h11.26.963,kallum_motion_pilot_GIST_update_2,2026.1.1,Win32,60.24096386,6687ef6d11e0933961e2267f,69b95efdef24cd8a694e89ee,69b960ba331938bbe5c7e3ed,0.0205,0.0205,0,38,38,104,1,fivesix,,,,,,,,,,,,,,,,,,,,,,,,,,,,,,,,,,,,,,,,,,,,,,,,,,,,,,,,,,,,,,,,,,,,,,,,,,,,,,,,,,,,,,,,,,,,,,,,,,,,,,,,,,,,,,,,,,,,,,,,,,,,,,,,,,,,,,,,,
,,6687ef6d11e0933961e2267f,2026-03-17_16h11.26.963,kallum_motion_pilot_GIST_update_2,2026.1.1,Win32,60.24096386,6687ef6d11e0933961e2267f,69b95efdef24cd8a694e89ee,69b960ba331938bbe5c7e3ed,0.0206,0.0206,0,39,39,87,1,eightseven,,,,,,,,,,,,,,,,,,,,,,,,,,,,,,,,,,,,,,,,,,,,,,,,,,,,,,,,,,,,,,,,,,,,,,,,,,,,,,,,,,,,,,,,,,,,,,,,,,,,,,,,,,,,,,,,,,,,,,,,,,,,,,,,,,,,,,,,,
,,6687ef6d11e0933961e2267f,2026-03-17_16h11.26.963,kallum_motion_pilot_GIST_update_2,2026.1.1,Win32,60.24096386,6687ef6d11e0933961e2267f,69b95efdef24cd8a694e89ee,69b960ba331938bbe5c7e3ed,0.0206,0.0206,0,40,40,52,1,threeone,,,,,,,,,,,,,,,,,,,,,,,,,,,,,,,,,,,,,,,,,,,,,,,,,,,,,,,,,,,,,,,,,,,,,,,,,,,,,,,,,,,,,,,,,,,,,,,,,,,,,,,,,,,,,,,,,,,,,,,,,,,,,,,,,,,,,,,,,
,,6687ef6d11e0933961e2267f,2026-03-17_16h11.26.963,kallum_motion_pilot_GIST_update_2,2026.1.1,Win32,60.24096386,6687ef6d11e0933961e2267f,69b95efdef24cd8a694e89ee,69b960ba331938bbe5c7e3ed,0.0208,0.0208,0,41,41,33,1,onethree,,,,,,,,,,,,,,,,,,,,,,,,,,,,,,,,,,,,,,,,,,,,,,,,,,,,,,,,,,,,,,,,,,,,,,,,,,,,,,,,,,,,,,,,,,,,,,,,,,,,,,,,,,,,,,,,,,,,,,,,,,,,,,,,,,,,,,,,,
,,6687ef6d11e0933961e2267f,2026-03-17_16h11.26.963,kallum_motion_pilot_GIST_update_2,2026.1.1,Win32,60.24096386,6687ef6d11e0933961e2267f,69b95efdef24cd8a694e89ee,69b960ba331938bbe5c7e3ed,0.0208,0.0209,0,42,42,79,1,eightseven,,,,,,,,,,,,,,,,,,,,,,,,,,,,,,,,,,,,,,,,,,,,,,,,,,,,,,,,,,,,,,,,,,,,,,,,,,,,,,,,,,,,,,,,,,,,,,,,,,,,,,,,,,,,,,,,,,,,,,,,,,,,,,,,,,,,,,,,,
,,6687ef6d11e0933961e2267f,2026-03-17_16h11.26.963,kallum_motion_pilot_GIST_update_2,2026.1.1,Win32,60.24096386,6687ef6d11e0933961e2267f,69b95efdef24cd8a694e89ee,69b960ba331938bbe5c7e3ed,0.021,0.021,0,43,43,53,1,threefour,,,,,,,,,,,,,,,,,,,,,,,,,,,,,,,,,,,,,,,,,,,,,,,,,,,,,,,,,,,,,,,,,,,,,,,,,,,,,,,,,,,,,,,,,,,,,,,,,,,,,,,,,,,,,,,,,,,,,,,,,,,,,,,,,,,,,,,,,
,,6687ef6d11e0933961e2267f,2026-03-17_16h11.26.963,kallum_motion_pilot_GIST_update_2,2026.1.1,Win32,60.24096386,6687ef6d11e0933961e2267f,69b95efdef24cd8a694e89ee,69b960ba331938bbe5c7e3ed,0.021,0.021,0,44,44,15,1,fourthree,,,,,,,,,,,,,,,,,,,,,,,,,,,,,,,,,,,,,,,,,,,,,,,,,,,,,,,,,,,,,,,,,,,,,,,,,,,,,,,,,,,,,,,,,,,,,,,,,,,,,,,,,,,,,,,,,,,,,,,,,,,,,,,,,,,,,,,,,
,,6687ef6d11e0933961e2267f,2026-03-17_16h11.26.963,kallum_motion_pilot_GIST_update_2,2026.1.1,Win32,60.24096386,6687ef6d11e0933961e2267f,69b95efdef24cd8a694e89ee,69b960ba331938bbe5c7e3ed,0.0211,0.0211,0,45,45,9,1,onethree,,,,,,,,,,,,,,,,,,,,,,,,,,,,,,,,,,,,,,,,,,,,,,,,,,,,,,,,,,,,,,,,,,,,,,,,,,,,,,,,,,,,,,,,,,,,,,,,,,,,,,,,,,,,,,,,,,,,,,,,,,,,,,,,,,,,,,,,,
,,6687ef6d11e0933961e2267f,2026-03-17_16h11.26.963,kallum_motion_pilot_GIST_update_2,2026.1.1,Win32,60.24096386,6687ef6d11e0933961e2267f,69b95efdef24cd8a694e89ee,69b960ba331938bbe5c7e3ed,0.0211,0.0211,0,46,46,74,1,twoone,,,,,,,,,,,,,,,,,,,,,,,,,,,,,,,,,,,,,,,,,,,,,,,,,,,,,,,,,,,,,,,,,,,,,,,,,,,,,,,,,,,,,,,,,,,,,,,,,,,,,,,,,,,,,,,,,,,,,,,,,,,,,,,,,,,,,,,,,
,,6687ef6d11e0933961e2267f,2026-03-17_16h11.26.963,kallum_motion_pilot_GIST_update_2,2026.1.1,Win32,60.24096386,6687ef6d11e0933961e2267f,69b95efdef24cd8a694e89ee,69b960ba331938bbe5c7e3ed,0.0213,0.0213,0,47,47,145,1,fiveseven,,,,,,,,,,,,,,,,,,,,,,,,,,,,,,,,,,,,,,,,,,,,,,,,,,,,,,,,,,,,,,,,,,,,,,,,,,,,,,,,,,,,,,,,,,,,,,,,,,,,,,,,,,,,,,,,,,,,,,,,,,,,,,,,,,,,,,,,,
,,6687ef6d11e0933961e2267f,2026-03-17_16h11.26.963,kallum_motion_pilot_GIST_update_2,2026.1.1,Win32,60.24096386,6687ef6d11e0933961e2267f,69b95efdef24cd8a694e89ee,69b960ba331938bbe5c7e3ed,0.0215,0.0215,0,48,48,141,1,seveneight,,,,,,,,,,,,,,,,,,,,,,,,,,,,,,,,,,,,,,,,,,,,,,,,,,,,,,,,,,,,,,,,,,,,,,,,,,,,,,,,,,,,,,,,,,,,,,,,,,,,,,,,,,,,,,,,,,,,,,,,,,,,,,,,,,,,,,,,,
,,6687ef6d11e0933961e2267f,2026-03-17_16h11.26.963,kallum_motion_pilot_GIST_update_2,2026.1.1,Win32,60.24096386,6687ef6d11e0933961e2267f,69b95efdef24cd8a694e89ee,69b960ba331938bbe5c7e3ed,0.0217,0.0217,0,49,49,110,1,eightsix,,,,,,,,,,,,,,,,,,,,,,,,,,,,,,,,,,,,,,,,,,,,,,,,,,,,,,,,,,,,,,,,,,,,,,,,,,,,,,,,,,,,,,,,,,,,,,,,,,,,,,,,,,,,,,,,,,,,,,,,,,,,,,,,,,,,,,,,,
,,6687ef6d11e0933961e2267f,2026-03-17_16h11.26.963,kallum_motion_pilot_GIST_update_2,2026.1.1,Win32,60.24096386,6687ef6d11e0933961e2267f,69b95efdef24cd8a694e89ee,69b960ba331938bbe5c7e3ed,0.0217,0.0217,0,50,50,37,1,threefour,,,,,,,,,,,,,,,,,,,,,,,,,,,,,,,,,,,,,,,,,,,,,,,,,,,,,,,,,,,,,,,,,,,,,,,,,,,,,,,,,,,,,,,,,,,,,,,,,,,,,,,,,,,,,,,,,,,,,,,,,,,,,,,,,,,,,,,,,
,,6687ef6d11e0933961e2267f,2026-03-17_16h11.26.963,kallum_motion_pilot_GIST_update_2,2026.1.1,Win32,60.24096386,6687ef6d11e0933961e2267f,69b95efdef24cd8a694e89ee,69b960ba331938bbe5c7e3ed,0.0219,0.0219,0,51,51,88,1,fivesix,,,,,,,,,,,,,,,,,,,,,,,,,,,,,,,,,,,,,,,,,,,,,,,,,,,,,,,,,,,,,,,,,,,,,,,,,,,,,,,,,,,,,,,,,,,,,,,,,,,,,,,,,,,,,,,,,,,,,,,,,,,,,,,,,,,,,,,,,
,,6687ef6d11e0933961e2267f,2026-03-17_16h11.26.963,kallum_motion_pilot_GIST_update_2,2026.1.1,Win32,60.24096386,6687ef6d11e0933961e2267f,69b95efdef24cd8a694e89ee,69b960ba331938bbe5c7e3ed,0.0219,0.0219,0,52,52,50,1,twoone,,,,,,,,,,,,,,,,,,,,,,,,,,,,,,,,,,,,,,,,,,,,,,,,,,,,,,,,,,,,,,,,,,,,,,,,,,,,,,,,,,,,,,,,,,,,,,,,,,,,,,,,,,,,,,,,,,,,,,,,,,,,,,,,,,,,,,,,,
,,6687ef6d11e0933961e2267f,2026-03-17_16h11.26.963,kallum_motion_pilot_GIST_update_2,2026.1.1,Win32,60.24096386,6687ef6d11e0933961e2267f,69b95efdef24cd8a694e89ee,69b960ba331938bbe5c7e3ed,0.022,0.022,0,53,53,56,1,onetwo,,,,,,,,,,,,,,,,,,,,,,,,,,,,,,,,,,,,,,,,,,,,,,,,,,,,,,,,,,,,,,,,,,,,,,,,,,,,,,,,,,,,,,,,,,,,,,,,,,,,,,,,,,,,,,,,,,,,,,,,,,,,,,,,,,,,,,,,,
,,6687ef6d11e0933961e2267f,2026-03-17_16h11.26.963,kallum_motion_pilot_GIST_update_2,2026.1.1,Win32,60.24096386,6687ef6d11e0933961e2267f,69b95efdef24cd8a694e89ee,69b960ba331938bbe5c7e3ed,0.0221,0.0221,0,54,54,113,1,fiveseven,,,,,,,,,,,,,,,,,,,,,,,,,,,,,,,,,,,,,,,,,,,,,,,,,,,,,,,,,,,,,,,,,,,,,,,,,,,,,,,,,,,,,,,,,,,,,,,,,,,,,,,,,,,,,,,,,,,,,,,,,,,,,,,,,,,,,,,,,
,,6687ef6d11e0933961e2267f,2026-03-17_16h11.26.963,kallum_motion_pilot_GIST_update_2,2026.1.1,Win32,60.24096386,6687ef6d11e0933961e2267f,69b95efdef24cd8a694e89ee,69b960ba331938bbe5c7e3ed,0.0222,0.0222,0,55,55,133,1,seveneight,,,,,,,,,,,,,,,,,,,,,,,,,,,,,,,,,,,,,,,,,,,,,,,,,,,,,,,,,,,,,,,,,,,,,,,,,,,,,,,,,,,,,,,,,,,,,,,,,,,,,,,,,,,,,,,,,,,,,,,,,,,,,,,,,,,,,,,,,
,,6687ef6d11e0933961e2267f,2026-03-17_16h11.26.963,kallum_motion_pilot_GIST_update_2,2026.1.1,Win32,60.24096386,6687ef6d11e0933961e2267f,69b95efdef24cd8a694e89ee,69b960ba331938bbe5c7e3ed,0.0222,0.0222,0,56,56,27,1,twofour,,,,,,,,,,,,,,,,,,,,,,,,,,,,,,,,,,,,,,,,,,,,,,,,,,,,,,,,,,,,,,,,,,,,,,,,,,,,,,,,,,,,,,,,,,,,,,,,,,,,,,,,,,,,,,,,,,,,,,,,,,,,,,,,,,,,,,,,,
,,6687ef6d11e0933961e2267f,2026-03-17_16h11.26.963,kallum_motion_pilot_GIST_update_2,2026.1.1,Win32,60.24096386,6687ef6d11e0933961e2267f,69b95efdef24cd8a694e89ee,69b960ba331938bbe5c7e3ed,0.0222,0.0222,0,57,57,42,1,twoone,,,,,,,,,,,,,,,,,,,,,,,,,,,,,,,,,,,,,,,,,,,,,,,,,,,,,,,,,,,,,,,,,,,,,,,,,,,,,,,,,,,,,,,,,,,,,,,,,,,,,,,,,,,,,,,,,,,,,,,,,,,,,,,,,,,,,,,,,
,,6687ef6d11e0933961e2267f,2026-03-17_16h11.26.963,kallum_motion_pilot_GIST_update_2,2026.1.1,Win32,60.24096386,6687ef6d11e0933961e2267f,69b95efdef24cd8a694e89ee,69b960ba331938bbe5c7e3ed,0.0223,0.0223,0,58,58,31,1,fourthree,,,,,,,,,,,,,,,,,,,,,,,,,,,,,,,,,,,,,,,,,,,,,,,,,,,,,,,,,,,,,,,,,,,,,,,,,,,,,,,,,,,,,,,,,,,,,,,,,,,,,,,,,,,,,,,,,,,,,,,,,,,,,,,,,,,,,,,,,
,,6687ef6d11e0933961e2267f,2026-03-17_16h11.26.963,kallum_motion_pilot_GIST_update_2,2026.1.1,Win32,60.24096386,6687ef6d11e0933961e2267f,69b95efdef24cd8a694e89ee,69b960ba331938bbe5c7e3ed,0.0224,0.0224,0,59,59,14,1,fourtwo,,,,,,,,,,,,,,,,,,,,,,,,,,,,,,,,,,,,,,,,,,,,,,,,,,,,,,,,,,,,,,,,,,,,,,,,,,,,,,,,,,,,,,,,,,,,,,,,,,,,,,,,,,,,,,,,,,,,,,,,,,,,,,,,,,,,,,,,,
,,6687ef6d11e0933961e2267f,2026-03-17_16h11.26.963,kallum_motion_pilot_GIST_update_2,2026.1.1,Win32,60.24096386,6687ef6d11e0933961e2267f,69b95efdef24cd8a694e89ee,69b960ba331938bbe5c7e3ed,0.0225,0.0225,0,60,60,23,1,fourthree,,,,,,,,,,,,,,,,,,,,,,,,,,,,,,,,,,,,,,,,,,,,,,,,,,,,,,,,,,,,,,,,,,,,,,,,,,,,,,,,,,,,,,,,,,,,,,,,,,,,,,,,,,,,,,,,,,,,,,,,,,,,,,,,,,,,,,,,,
,,6687ef6d11e0933961e2267f,2026-03-17_16h11.26.963,kallum_motion_pilot_GIST_update_2,2026.1.1,Win32,60.24096386,6687ef6d11e0933961e2267f,69b95efdef24cd8a694e89ee,69b960ba331938bbe5c7e3ed,0.0225,0.0225,0,61,61,136,1,fivesix,,,,,,,,,,,,,,,,,,,,,,,,,,,,,,,,,,,,,,,,,,,,,,,,,,,,,,,,,,,,,,,,,,,,,,,,,,,,,,,,,,,,,,,,,,,,,,,,,,,,,,,,,,,,,,,,,,,,,,,,,,,,,,,,,,,,,,,,,
,,6687ef6d11e0933961e2267f,2026-03-17_16h11.26.963,kallum_motion_pilot_GIST_update_2,2026.1.1,Win32,60.24096386,6687ef6d11e0933961e2267f,69b95efdef24cd8a694e89ee,69b960ba331938bbe5c7e3ed,0.0226,0.0226,0,62,62,89,1,fiveseven,,,,,,,,,,,,,,,,,,,,,,,,,,,,,,,,,,,,,,,,,,,,,,,,,,,,,,,,,,,,,,,,,,,,,,,,,,,,,,,,,,,,,,,,,,,,,,,,,,,,,,,,,,,,,,,,,,,,,,,,,,,,,,,,,,,,,,,,,
,,6687ef6d11e0933961e2267f,2026-03-17_16h11.26.963,kallum_motion_pilot_GIST_update_2,2026.1.1,Win32,60.24096386,6687ef6d11e0933961e2267f,69b95efdef24cd8a694e89ee,69b960ba331938bbe5c7e3ed,0.0227,0.0227,0,63,63,77,1,threefour,,,,,,,,,,,,,,,,,,,,,,,,,,,,,,,,,,,,,,,,,,,,,,,,,,,,,,,,,,,,,,,,,,,,,,,,,,,,,,,,,,,,,,,,,,,,,,,,,,,,,,,,,,,,,,,,,,,,,,,,,,,,,,,,,,,,,,,,,
,,6687ef6d11e0933961e2267f,2026-03-17_16h11.26.963,kallum_motion_pilot_GIST_update_2,2026.1.1,Win32,60.24096386,6687ef6d11e0933961e2267f,69b95efdef24cd8a694e89ee,69b960ba331938bbe5c7e3ed,0.0228,0.0228,0,64,64,48,1,onetwo,,,,,,,,,,,,,,,,,,,,,,,,,,,,,,,,,,,,,,,,,,,,,,,,,,,,,,,,,,,,,,,,,,,,,,,,,,,,,,,,,,,,,,,,,,,,,,,,,,,,,,,,,,,,,,,,,,,,,,,,,,,,,,,,,,,,,,,,,
,,6687ef6d11e0933961e2267f,2026-03-17_16h11.26.963,kallum_motion_pilot_GIST_update_2,2026.1.1,Win32,60.24096386,6687ef6d11e0933961e2267f,69b95efdef24cd8a694e89ee,69b960ba331938bbe5c7e3ed,0.0228,0.0228,0,65,65,111,1,eightseven,,,,,,,,,,,,,,,,,,,,,,,,,,,,,,,,,,,,,,,,,,,,,,,,,,,,,,,,,,,,,,,,,,,,,,,,,,,,,,,,,,,,,,,,,,,,,,,,,,,,,,,,,,,,,,,,,,,,,,,,,,,,,,,,,,,,,,,,,
,,6687ef6d11e0933961e2267f,2026-03-17_16h11.26.963,kallum_motion_pilot_GIST_update_2,2026.1.1,Win32,60.24096386,6687ef6d11e0933961e2267f,69b95efdef24cd8a694e89ee,69b960ba331938bbe5c7e3ed,0.0228,0.0228,0,66,66,81,1,fiveseven,,,,,,,,,,,,,,,,,,,,,,,,,,,,,,,,,,,,,,,,,,,,,,,,,,,,,,,,,,,,,,,,,,,,,,,,,,,,,,,,,,,,,,,,,,,,,,,,,,,,,,,,,,,,,,,,,,,,,,,,,,,,,,,,,,,,,,,,,
,,6687ef6d11e0933961e2267f,2026-03-17_16h11.26.963,kallum_motion_pilot_GIST_update_2,2026.1.1,Win32,60.24096386,6687ef6d11e0933961e2267f,69b95efdef24cd8a694e89ee,69b960ba331938bbe5c7e3ed,0.0229,0.0229,0,67,67,161,1,fiveseven,,,,,,,,,,,,,,,,,,,,,,,,,,,,,,,,,,,,,,,,,,,,,,,,,,,,,,,,,,,,,,,,,,,,,,,,,,,,,,,,,,,,,,,,,,,,,,,,,,,,,,,,,,,,,,,,,,,,,,,,,,,,,,,,,,,,,,,,,
,,6687ef6d11e0933961e2267f,2026-03-17_16h11.26.963,kallum_motion_pilot_GIST_update_2,2026.1.1,Win32,60.24096386,6687ef6d11e0933961e2267f,69b95efdef24cd8a694e89ee,69b960ba331938bbe5c7e3ed,0.023,0.023,0,68,68,13,1,threefour,,,,,,,,,,,,,,,,,,,,,,,,,,,,,,,,,,,,,,,,,,,,,,,,,,,,,,,,,,,,,,,,,,,,,,,,,,,,,,,,,,,,,,,,,,,,,,,,,,,,,,,,,,,,,,,,,,,,,,,,,,,,,,,,,,,,,,,,,
,,6687ef6d11e0933961e2267f,2026-03-17_16h11.26.963,kallum_motion_pilot_GIST_update_2,2026.1.1,Win32,60.24096386,6687ef6d11e0933961e2267f,69b95efdef24cd8a694e89ee,69b960ba331938bbe5c7e3ed,0.023,0.023,0,69,69,156,1,sevenfive,,,,,,,,,,,,,,,,,,,,,,,,,,,,,,,,,,,,,,,,,,,,,,,,,,,,,,,,,,,,,,,,,,,,,,,,,,,,,,,,,,,,,,,,,,,,,,,,,,,,,,,,,,,,,,,,,,,,,,,,,,,,,,,,,,,,,,,,,
,,6687ef6d11e0933961e2267f,2026-03-17_16h11.26.963,kallum_motion_pilot_GIST_update_2,2026.1.1,Win32,60.24096386,6687ef6d11e0933961e2267f,69b95efdef24cd8a694e89ee,69b960ba331938bbe5c7e3ed,0.0231,0.0231,0,70,70,120,1,fivesix,,,,,,,,,,,,,,,,,,,,,,,,,,,,,,,,,,,,,,,,,,,,,,,,,,,,,,,,,,,,,,,,,,,,,,,,,,,,,,,,,,,,,,,,,,,,,,,,,,,,,,,,,,,,,,,,,,,,,,,,,,,,,,,,,,,,,,,,,
,,6687ef6d11e0933961e2267f,2026-03-17_16h11.26.963,kallum_motion_pilot_GIST_update_2,2026.1.1,Win32,60.24096386,6687ef6d11e0933961e2267f,69b95efdef24cd8a694e89ee,69b960ba331938bbe5c7e3ed,0.0232,0.0232,0,71,71,157,1,seveneight,,,,,,,,,,,,,,,,,,,,,,,,,,,,,,,,,,,,,,,,,,,,,,,,,,,,,,,,,,,,,,,,,,,,,,,,,,,,,,,,,,,,,,,,,,,,,,,,,,,,,,,,,,,,,,,,,,,,,,,,,,,,,,,,,,,,,,,,,
,,6687ef6d11e0933961e2267f,2026-03-17_16h11.26.963,kallum_motion_pilot_GIST_update_2,2026.1.1,Win32,60.24096386,6687ef6d11e0933961e2267f,69b95efdef24cd8a694e89ee,69b960ba331938bbe5c7e3ed,0.0232,0.0233,0,72,72,96,1,fivesix,,,,,,,,,,,,,,,,,,,,,,,,,,,,,,,,,,,,,,,,,,,,,,,,,,,,,,,,,,,,,,,,,,,,,,,,,,,,,,,,,,,,,,,,,,,,,,,,,,,,,,,,,,,,,,,,,,,,,,,,,,,,,,,,,,,,,,,,,
,,6687ef6d11e0933961e2267f,2026-03-17_16h11.26.963,kallum_motion_pilot_GIST_update_2,2026.1.1,Win32,60.24096386,6687ef6d11e0933961e2267f,69b95efdef24cd8a694e89ee,69b960ba331938bbe5c7e3ed,0.0234,0.0234,0,73,73,127,1,eightseven,,,,,,,,,,,,,,,,,,,,,,,,,,,,,,,,,,,,,,,,,,,,,,,,,,,,,,,,,,,,,,,,,,,,,,,,,,,,,,,,,,,,,,,,,,,,,,,,,,,,,,,,,,,,,,,,,,,,,,,,,,,,,,,,,,,,,,,,,
,,6687ef6d11e0933961e2267f,2026-03-17_16h11.26.963,kallum_motion_pilot_GIST_update_2,2026.1.1,Win32,60.24096386,6687ef6d11e0933961e2267f,69b95efdef24cd8a694e89ee,69b960ba331938bbe5c7e3ed,0.0234,0.0234,0,74,74,64,1,onetwo,,,,,,,,,,,,,,,,,,,,,,,,,,,,,,,,,,,,,,,,,,,,,,,,,,,,,,,,,,,,,,,,,,,,,,,,,,,,,,,,,,,,,,,,,,,,,,,,,,,,,,,,,,,,,,,,,,,,,,,,,,,,,,,,,,,,,,,,,
,,6687ef6d11e0933961e2267f,2026-03-17_16h11.26.963,kallum_motion_pilot_GIST_update_2,2026.1.1,Win32,60.24096386,6687ef6d11e0933961e2267f,69b95efdef24cd8a694e89ee,69b960ba331938bbe5c7e3ed,0.0235,0.0235,0,75,75,49,1,onethree,,,,,,,,,,,,,,,,,,,,,,,,,,,,,,,,,,,,,,,,,,,,,,,,,,,,,,,,,,,,,,,,,,,,,,,,,,,,,,,,,,,,,,,,,,,,,,,,,,,,,,,,,,,,,,,,,,,,,,,,,,,,,,,,,,,,,,,,,
,,6687ef6d11e0933961e2267f,2026-03-17_16h11.26.963,kallum_motion_pilot_GIST_update_2,2026.1.1,Win32,60.24096386,6687ef6d11e0933961e2267f,69b95efdef24cd8a694e89ee,69b960ba331938bbe5c7e3ed,0.0235,0.0235,0,76,76,40,1,onetwo,,,,,,,,,,,,,,,,,,,,,,,,,,,,,,,,,,,,,,,,,,,,,,,,,,,,,,,,,,,,,,,,,,,,,,,,,,,,,,,,,,,,,,,,,,,,,,,,,,,,,,,,,,,,,,,,,,,,,,,,,,,,,,,,,,,,,,,,,
,,6687ef6d11e0933961e2267f,2026-03-17_16h11.26.963,kallum_motion_pilot_GIST_update_2,2026.1.1,Win32,60.24096386,6687ef6d11e0933961e2267f,69b95efdef24cd8a694e89ee,69b960ba331938bbe5c7e3ed,0.0236,0.0236,0,77,77,114,1,sixfive,,,,,,,,,,,,,,,,,,,,,,,,,,,,,,,,,,,,,,,,,,,,,,,,,,,,,,,,,,,,,,,,,,,,,,,,,,,,,,,,,,,,,,,,,,,,,,,,,,,,,,,,,,,,,,,,,,,,,,,,,,,,,,,,,,,,,,,,,
,,6687ef6d11e0933961e2267f,2026-03-17_16h11.26.963,kallum_motion_pilot_GIST_update_2,2026.1.1,Win32,60.24096386,6687ef6d11e0933961e2267f,69b95efdef24cd8a694e89ee,69b960ba331938bbe5c7e3ed,0.0237,0.0237,0,78,78,100,1,sevenfive,,,,,,,,,,,,,,,,,,,,,,,,,,,,,,,,,,,,,,,,,,,,,,,,,,,,,,,,,,,,,,,,,,,,,,,,,,,,,,,,,,,,,,,,,,,,,,,,,,,,,,,,,,,,,,,,,,,,,,,,,,,,,,,,,,,,,,,,,
,,6687ef6d11e0933961e2267f,2026-03-17_16h11.26.963,kallum_motion_pilot_GIST_update_2,2026.1.1,Win32,60.24096386,6687ef6d11e0933961e2267f,69b95efdef24cd8a694e89ee,69b960ba331938bbe5c7e3ed,0.0237,0.0237,0,79,79,29,1,threefour,,,,,,,,,,,,,,,,,,,,,,,,,,,,,,,,,,,,,,,,,,,,,,,,,,,,,,,,,,,,,,,,,,,,,,,,,,,,,,,,,,,,,,,,,,,,,,,,,,,,,,,,,,,,,,,,,,,,,,,,,,,,,,,,,,,,,,,,,
,,6687ef6d11e0933961e2267f,2026-03-17_16h11.26.963,kallum_motion_pilot_GIST_update_2,2026.1.1,Win32,60.24096386,6687ef6d11e0933961e2267f,69b95efdef24cd8a694e89ee,69b960ba331938bbe5c7e3ed,0.0238,0.0238,0,80,80,55,1,fourthree,,,,,,,,,,,,,,,,,,,,,,,,,,,,,,,,,,,,,,,,,,,,,,,,,,,,,,,,,,,,,,,,,,,,,,,,,,,,,,,,,,,,,,,,,,,,,,,,,,,,,,,,,,,,,,,,,,,,,,,,,,,,,,,,,,,,,,,,,
,,6687ef6d11e0933961e2267f,2026-03-17_16h11.26.963,kallum_motion_pilot_GIST_update_2,2026.1.1,Win32,60.24096386,6687ef6d11e0933961e2267f,69b95efdef24cd8a694e89ee,69b960ba331938bbe5c7e3ed,0.0238,0.0238,0,81,81,105,1,fiveseven,,,,,,,,,,,,,,,,,,,,,,,,,,,,,,,,,,,,,,,,,,,,,,,,,,,,,,,,,,,,,,,,,,,,,,,,,,,,,,,,,,,,,,,,,,,,,,,,,,,,,,,,,,,,,,,,,,,,,,,,,,,,,,,,,,,,,,,,,
,,6687ef6d11e0933961e2267f,2026-03-17_16h11.26.963,kallum_motion_pilot_GIST_update_2,2026.1.1,Win32,60.24096386,6687ef6d11e0933961e2267f,69b95efdef24cd8a694e89ee,69b960ba331938bbe5c7e3ed,0.0238,0.0238,0,82,82,65,1,onethree,,,,,,,,,,,,,,,,,,,,,,,,,,,,,,,,,,,,,,,,,,,,,,,,,,,,,,,,,,,,,,,,,,,,,,,,,,,,,,,,,,,,,,,,,,,,,,,,,,,,,,,,,,,,,,,,,,,,,,,,,,,,,,,,,,,,,,,,,
,,6687ef6d11e0933961e2267f,2026-03-17_16h11.26.963,kallum_motion_pilot_GIST_update_2,2026.1.1,Win32,60.24096386,6687ef6d11e0933961e2267f,69b95efdef24cd8a694e89ee,69b960ba331938bbe5c7e3ed,0.0239,0.0239,0,83,83,94,1,eightsix,,,,,,,,,,,,,,,,,,,,,,,,,,,,,,,,,,,,,,,,,,,,,,,,,,,,,,,,,,,,,,,,,,,,,,,,,,,,,,,,,,,,,,,,,,,,,,,,,,,,,,,,,,,,,,,,,,,,,,,,,,,,,,,,,,,,,,,,,
,,6687ef6d11e0933961e2267f,2026-03-17_16h11.26.963,kallum_motion_pilot_GIST_update_2,2026.1.1,Win32,60.24096386,6687ef6d11e0933961e2267f,69b95efdef24cd8a694e89ee,69b960ba331938bbe5c7e3ed,0.0239,0.0239,0,84,84,135,1,eightseven,,,,,,,,,,,,,,,,,,,,,,,,,,,,,,,,,,,,,,,,,,,,,,,,,,,,,,,,,,,,,,,,,,,,,,,,,,,,,,,,,,,,,,,,,,,,,,,,,,,,,,,,,,,,,,,,,,,,,,,,,,,,,,,,,,,,,,,,,
,,6687ef6d11e0933961e2267f,2026-03-17_16h11.26.963,kallum_motion_pilot_GIST_update_2,2026.1.1,Win32,60.24096386,6687ef6d11e0933961e2267f,69b95efdef24cd8a694e89ee,69b960ba331938bbe5c7e3ed,0.024,0.024,0,85,85,36,1,threeone,,,,,,,,,,,,,,,,,,,,,,,,,,,,,,,,,,,,,,,,,,,,,,,,,,,,,,,,,,,,,,,,,,,,,,,,,,,,,,,,,,,,,,,,,,,,,,,,,,,,,,,,,,,,,,,,,,,,,,,,,,,,,,,,,,,,,,,,,
,,6687ef6d11e0933961e2267f,2026-03-17_16h11.26.963,kallum_motion_pilot_GIST_update_2,2026.1.1,Win32,60.24096386,6687ef6d11e0933961e2267f,69b95efdef24cd8a694e89ee,69b960ba331938bbe5c7e3ed,0.024,0.024,0,86,86,76,1,threeone,,,,,,,,,,,,,,,,,,,,,,,,,,,,,,,,,,,,,,,,,,,,,,,,,,,,,,,,,,,,,,,,,,,,,,,,,,,,,,,,,,,,,,,,,,,,,,,,,,,,,,,,,,,,,,,,,,,,,,,,,,,,,,,,,,,,,,,,,
,,6687ef6d11e0933961e2267f,2026-03-17_16h11.26.963,kallum_motion_pilot_GIST_update_2,2026.1.1,Win32,60.24096386,6687ef6d11e0933961e2267f,69b95efdef24cd8a694e89ee,69b960ba331938bbe5c7e3ed,0.0241,0.0241,0,87,87,84,1,sevenfive,,,,,,,,,,,,,,,,,,,,,,,,,,,,,,,,,,,,,,,,,,,,,,,,,,,,,,,,,,,,,,,,,,,,,,,,,,,,,,,,,,,,,,,,,,,,,,,,,,,,,,,,,,,,,,,,,,,,,,,,,,,,,,,,,,,,,,,,,
,,6687ef6d11e0933961e2267f,2026-03-17_16h11.26.963,kallum_motion_pilot_GIST_update_2,2026.1.1,Win32,60.24096386,6687ef6d11e0933961e2267f,69b95efdef24cd8a694e89ee,69b960ba331938bbe5c7e3ed,0.0242,0.0242,0,88,88,151,1,eightseven,,,,,,,,,,,,,,,,,,,,,,,,,,,,,,,,,,,,,,,,,,,,,,,,,,,,,,,,,,,,,,,,,,,,,,,,,,,,,,,,,,,,,,,,,,,,,,,,,,,,,,,,,,,,,,,,,,,,,,,,,,,,,,,,,,,,,,,,,
,,6687ef6d11e0933961e2267f,2026-03-17_16h11.26.963,kallum_motion_pilot_GIST_update_2,2026.1.1,Win32,60.24096386,6687ef6d11e0933961e2267f,69b95efdef24cd8a694e89ee,69b960ba331938bbe5c7e3ed,0.0242,0.0242,0,89,89,152,1,fivesix,,,,,,,,,,,,,,,,,,,,,,,,,,,,,,,,,,,,,,,,,,,,,,,,,,,,,,,,,,,,,,,,,,,,,,,,,,,,,,,,,,,,,,,,,,,,,,,,,,,,,,,,,,,,,,,,,,,,,,,,,,,,,,,,,,,,,,,,,
,,6687ef6d11e0933961e2267f,2026-03-17_16h11.26.963,kallum_motion_pilot_GIST_update_2,2026.1.1,Win32,60.24096386,6687ef6d11e0933961e2267f,69b95efdef24cd8a694e89ee,69b960ba331938bbe5c7e3ed,0.0244,0.0244,0,90,90,154,1,sixfive,,,,,,,,,,,,,,,,,,,,,,,,,,,,,,,,,,,,,,,,,,,,,,,,,,,,,,,,,,,,,,,,,,,,,,,,,,,,,,,,,,,,,,,,,,,,,,,,,,,,,,,,,,,,,,,,,,,,,,,,,,,,,,,,,,,,,,,,,
,,6687ef6d11e0933961e2267f,2026-03-17_16h11.26.963,kallum_motion_pilot_GIST_update_2,2026.1.1,Win32,60.24096386,6687ef6d11e0933961e2267f,69b95efdef24cd8a694e89ee,69b960ba331938bbe5c7e3ed,0.0244,0.0244,0,91,91,150,1,eightsix,,,,,,,,,,,,,,,,,,,,,,,,,,,,,,,,,,,,,,,,,,,,,,,,,,,,,,,,,,,,,,,,,,,,,,,,,,,,,,,,,,,,,,,,,,,,,,,,,,,,,,,,,,,,,,,,,,,,,,,,,,,,,,,,,,,,,,,,,
,,6687ef6d11e0933961e2267f,2026-03-17_16h11.26.963,kallum_motion_pilot_GIST_update_2,2026.1.1,Win32,60.24096386,6687ef6d11e0933961e2267f,69b95efdef24cd8a694e89ee,69b960ba331938bbe5c7e3ed,0.0245,0.0245,0,92,92,7,1,fourthree,,,,,,,,,,,,,,,,,,,,,,,,,,,,,,,,,,,,,,,,,,,,,,,,,,,,,,,,,,,,,,,,,,,,,,,,,,,,,,,,,,,,,,,,,,,,,,,,,,,,,,,,,,,,,,,,,,,,,,,,,,,,,,,,,,,,,,,,,
,,6687ef6d11e0933961e2267f,2026-03-17_16h11.26.963,kallum_motion_pilot_GIST_update_2,2026.1.1,Win32,60.24096386,6687ef6d11e0933961e2267f,69b95efdef24cd8a694e89ee,69b960ba331938bbe5c7e3ed,0.0245,0.0245,0,93,93,103,1,eightseven,,,,,,,,,,,,,,,,,,,,,,,,,,,,,,,,,,,,,,,,,,,,,,,,,,,,,,,,,,,,,,,,,,,,,,,,,,,,,,,,,,,,,,,,,,,,,,,,,,,,,,,,,,,,,,,,,,,,,,,,,,,,,,,,,,,,,,,,,
,,6687ef6d11e0933961e2267f,2026-03-17_16h11.26.963,kallum_motion_pilot_GIST_update_2,2026.1.1,Win32,60.24096386,6687ef6d11e0933961e2267f,69b95efdef24cd8a694e89ee,69b960ba331938bbe5c7e3ed,0.0246,0.0246,0,94,94,155,1,sixeight,,,,,,,,,,,,,,,,,,,,,,,,,,,,,,,,,,,,,,,,,,,,,,,,,,,,,,,,,,,,,,,,,,,,,,,,,,,,,,,,,,,,,,,,,,,,,,,,,,,,,,,,,,,,,,,,,,,,,,,,,,,,,,,,,,,,,,,,,
,,6687ef6d11e0933961e2267f,2026-03-17_16h11.26.963,kallum_motion_pilot_GIST_update_2,2026.1.1,Win32,60.24096386,6687ef6d11e0933961e2267f,69b95efdef24cd8a694e89ee,69b960ba331938bbe5c7e3ed,0.0247,0.0247,0,95,95,39,1,fourthree,,,,,,,,,,,,,,,,,,,,,,,,,,,,,,,,,,,,,,,,,,,,,,,,,,,,,,,,,,,,,,,,,,,,,,,,,,,,,,,,,,,,,,,,,,,,,,,,,,,,,,,,,,,,,,,,,,,,,,,,,,,,,,,,,,,,,,,,,
,,6687ef6d11e0933961e2267f,2026-03-17_16h11.26.963,kallum_motion_pilot_GIST_update_2,2026.1.1,Win32,60.24096386,6687ef6d11e0933961e2267f,69b95efdef24cd8a694e89ee,69b960ba331938bbe5c7e3ed,0.0247,0.0247,0,96,96,3,1,twofour,,,,,,,,,,,,,,,,,,,,,,,,,,,,,,,,,,,,,,,,,,,,,,,,,,,,,,,,,,,,,,,,,,,,,,,,,,,,,,,,,,,,,,,,,,,,,,,,,,,,,,,,,,,,,,,,,,,,,,,,,,,,,,,,,,,,,,,,,
,,6687ef6d11e0933961e2267f,2026-03-17_16h11.26.963,kallum_motion_pilot_GIST_update_2,2026.1.1,Win32,60.24096386,6687ef6d11e0933961e2267f,69b95efdef24cd8a694e89ee,69b960ba331938bbe5c7e3ed,0.0248,0.0248,0,97,97,10,1,twoone,,,,,,,,,,,,,,,,,,,,,,,,,,,,,,,,,,,,,,,,,,,,,,,,,,,,,,,,,,,,,,,,,,,,,,,,,,,,,,,,,,,,,,,,,,,,,,,,,,,,,,,,,,,,,,,,,,,,,,,,,,,,,,,,,,,,,,,,,
,,6687ef6d11e0933961e2267f,2026-03-17_16h11.26.963,kallum_motion_pilot_GIST_update_2,2026.1.1,Win32,60.24096386,6687ef6d11e0933961e2267f,69b95efdef24cd8a694e89ee,69b960ba331938bbe5c7e3ed,0.0248,0.0248,0,98,98,0,1,onetwo,,,,,,,,,,,,,,,,,,,,,,,,,,,,,,,,,,,,,,,,,,,,,,,,,,,,,,,,,,,,,,,,,,,,,,,,,,,,,,,,,,,,,,,,,,,,,,,,,,,,,,,,,,,,,,,,,,,,,,,,,,,,,,,,,,,,,,,,,
,,6687ef6d11e0933961e2267f,2026-03-17_16h11.26.963,kallum_motion_pilot_GIST_update_2,2026.1.1,Win32,60.24096386,6687ef6d11e0933961e2267f,69b95efdef24cd8a694e89ee,69b960ba331938bbe5c7e3ed,0.0249,0.0249,0,99,99,144,1,fivesix,,,,,,,,,,,,,,,,,,,,,,,,,,,,,,,,,,,,,,,,,,,,,,,,,,,,,,,,,,,,,,,,,,,,,,,,,,,,,,,,,,,,,,,,,,,,,,,,,,,,,,,,,,,,,,,,,,,,,,,,,,,,,,,,,,,,,,,,,
,,6687ef6d11e0933961e2267f,2026-03-17_16h11.26.963,kallum_motion_pilot_GIST_update_2,2026.1.1,Win32,60.24096386,6687ef6d11e0933961e2267f,69b95efdef24cd8a694e89ee,69b960ba331938bbe5c7e3ed,0.0249,0.0249,0,100,100,25,1,onethree,,,,,,,,,,,,,,,,,,,,,,,,,,,,,,,,,,,,,,,,,,,,,,,,,,,,,,,,,,,,,,,,,,,,,,,,,,,,,,,,,,,,,,,,,,,,,,,,,,,,,,,,,,,,,,,,,,,,,,,,,,,,,,,,,,,,,,,,,
,,6687ef6d11e0933961e2267f,2026-03-17_16h11.26.963,kallum_motion_pilot_GIST_update_2,2026.1.1,Win32,60.24096386,6687ef6d11e0933961e2267f,69b95efdef24cd8a694e89ee,69b960ba331938bbe5c7e3ed,0.025,0.025,0,101,101,28,1,threeone,,,,,,,,,,,,,,,,,,,,,,,,,,,,,,,,,,,,,,,,,,,,,,,,,,,,,,,,,,,,,,,,,,,,,,,,,,,,,,,,,,,,,,,,,,,,,,,,,,,,,,,,,,,,,,,,,,,,,,,,,,,,,,,,,,,,,,,,,
,,6687ef6d11e0933961e2267f,2026-03-17_16h11.26.963,kallum_motion_pilot_GIST_update_2,2026.1.1,Win32,60.24096386,6687ef6d11e0933961e2267f,69b95efdef24cd8a694e89ee,69b960ba331938bbe5c7e3ed,0.0251,0.0251,0,102,102,139,1,sixeight,,,,,,,,,,,,,,,,,,,,,,,,,,,,,,,,,,,,,,,,,,,,,,,,,,,,,,,,,,,,,,,,,,,,,,,,,,,,,,,,,,,,,,,,,,,,,,,,,,,,,,,,,,,,,,,,,,,,,,,,,,,,,,,,,,,,,,,,,
,,6687ef6d11e0933961e2267f,2026-03-17_16h11.26.963,kallum_motion_pilot_GIST_update_2,2026.1.1,Win32,60.24096386,6687ef6d11e0933961e2267f,69b95efdef24cd8a694e89ee,69b960ba331938bbe5c7e3ed,0.0252,0.0252,0,103,103,24,1,onetwo,,,,,,,,,,,,,,,,,,,,,,,,,,,,,,,,,,,,,,,,,,,,,,,,,,,,,,,,,,,,,,,,,,,,,,,,,,,,,,,,,,,,,,,,,,,,,,,,,,,,,,,,,,,,,,,,,,,,,,,,,,,,,,,,,,,,,,,,,
,,6687ef6d11e0933961e2267f,2026-03-17_16h11.26.963,kallum_motion_pilot_GIST_update_2,2026.1.1,Win32,60.24096386,6687ef6d11e0933961e2267f,69b95efdef24cd8a694e89ee,69b960ba331938bbe5c7e3ed,0.0252,0.0252,0,104,104,11,1,twofour,,,,,,,,,,,,,,,,,,,,,,,,,,,,,,,,,,,,,,,,,,,,,,,,,,,,,,,,,,,,,,,,,,,,,,,,,,,,,,,,,,,,,,,,,,,,,,,,,,,,,,,,,,,,,,,,,,,,,,,,,,,,,,,,,,,,,,,,,
,,6687ef6d11e0933961e2267f,2026-03-17_16h11.26.963,kallum_motion_pilot_GIST_update_2,2026.1.1,Win32,60.24096386,6687ef6d11e0933961e2267f,69b95efdef24cd8a694e89ee,69b960ba331938bbe5c7e3ed,0.0253,0.0253,0,105,105,85,1,seveneight,,,,,,,,,,,,,,,,,,,,,,,,,,,,,,,,,,,,,,,,,,,,,,,,,,,,,,,,,,,,,,,,,,,,,,,,,,,,,,,,,,,,,,,,,,,,,,,,,,,,,,,,,,,,,,,,,,,,,,,,,,,,,,,,,,,,,,,,,
,,6687ef6d11e0933961e2267f,2026-03-17_16h11.26.963,kallum_motion_pilot_GIST_update_2,2026.1.1,Win32,60.24096386,6687ef6d11e0933961e2267f,69b95efdef24cd8a694e89ee,69b960ba331938bbe5c7e3ed,0.0253,0.0253,0,106,106,91,1,sixeight,,,,,,,,,,,,,,,,,,,,,,,,,,,,,,,,,,,,,,,,,,,,,,,,,,,,,,,,,,,,,,,,,,,,,,,,,,,,,,,,,,,,,,,,,,,,,,,,,,,,,,,,,,,,,,,,,,,,,,,,,,,,,,,,,,,,,,,,,
,,6687ef6d11e0933961e2267f,2026-03-17_16h11.26.963,kallum_motion_pilot_GIST_update_2,2026.1.1,Win32,60.24096386,6687ef6d11e0933961e2267f,69b95efdef24cd8a694e89ee,69b960ba331938bbe5c7e3ed,0.0254,0.0254,0,107,107,160,1,fivesix,,,,,,,,,,,,,,,,,,,,,,,,,,,,,,,,,,,,,,,,,,,,,,,,,,,,,,,,,,,,,,,,,,,,,,,,,,,,,,,,,,,,,,,,,,,,,,,,,,,,,,,,,,,,,,,,,,,,,,,,,,,,,,,,,,,,,,,,,
,,6687ef6d11e0933961e2267f,2026-03-17_16h11.26.963,kallum_motion_pilot_GIST_update_2,2026.1.1,Win32,60.24096386,6687ef6d11e0933961e2267f,69b95efdef24cd8a694e89ee,69b960ba331938bbe5c7e3ed,0.0254,0.0254,0,108,108,86,1,eightsix,,,,,,,,,,,,,,,,,,,,,,,,,,,,,,,,,,,,,,,,,,,,,,,,,,,,,,,,,,,,,,,,,,,,,,,,,,,,,,,,,,,,,,,,,,,,,,,,,,,,,,,,,,,,,,,,,,,,,,,,,,,,,,,,,,,,,,,,,
,,6687ef6d11e0933961e2267f,2026-03-17_16h11.26.963,kallum_motion_pilot_GIST_update_2,2026.1.1,Win32,60.24096386,6687ef6d11e0933961e2267f,69b95efdef24cd8a694e89ee,69b960ba331938bbe5c7e3ed,0.0255,0.0255,0,109,109,22,1,fourtwo,,,,,,,,,,,,,,,,,,,,,,,,,,,,,,,,,,,,,,,,,,,,,,,,,,,,,,,,,,,,,,,,,,,,,,,,,,,,,,,,,,,,,,,,,,,,,,,,,,,,,,,,,,,,,,,,,,,,,,,,,,,,,,,,,,,,,,,,,
,,6687ef6d11e0933961e2267f,2026-03-17_16h11.26.963,kallum_motion_pilot_GIST_update_2,2026.1.1,Win32,60.24096386,6687ef6d11e0933961e2267f,69b95efdef24cd8a694e89ee,69b960ba331938bbe5c7e3ed,0.0256,0.0256,0,110,110,80,1,fivesix,,,,,,,,,,,,,,,,,,,,,,,,,,,,,,,,,,,,,,,,,,,,,,,,,,,,,,,,,,,,,,,,,,,,,,,,,,,,,,,,,,,,,,,,,,,,,,,,,,,,,,,,,,,,,,,,,,,,,,,,,,,,,,,,,,,,,,,,,
,,6687ef6d11e0933961e2267f,2026-03-17_16h11.26.963,kallum_motion_pilot_GIST_update_2,2026.1.1,Win32,60.24096386,6687ef6d11e0933961e2267f,69b95efdef24cd8a694e89ee,69b960ba331938bbe5c7e3ed,0.0257,0.0257,0,111,111,82,1,sixfive,,,,,,,,,,,,,,,,,,,,,,,,,,,,,,,,,,,,,,,,,,,,,,,,,,,,,,,,,,,,,,,,,,,,,,,,,,,,,,,,,,,,,,,,,,,,,,,,,,,,,,,,,,,,,,,,,,,,,,,,,,,,,,,,,,,,,,,,,
,,6687ef6d11e0933961e2267f,2026-03-17_16h11.26.963,kallum_motion_pilot_GIST_update_2,2026.1.1,Win32,60.24096386,6687ef6d11e0933961e2267f,69b95efdef24cd8a694e89ee,69b960ba331938bbe5c7e3ed,0.0257,0.0257,0,112,112,124,1,sevenfive,,,,,,,,,,,,,,,,,,,,,,,,,,,,,,,,,,,,,,,,,,,,,,,,,,,,,,,,,,,,,,,,,,,,,,,,,,,,,,,,,,,,,,,,,,,,,,,,,,,,,,,,,,,,,,,,,,,,,,,,,,,,,,,,,,,,,,,,,
,,6687ef6d11e0933961e2267f,2026-03-17_16h11.26.963,kallum_motion_pilot_GIST_update_2,2026.1.1,Win32,60.24096386,6687ef6d11e0933961e2267f,69b95efdef24cd8a694e89ee,69b960ba331938bbe5c7e3ed,0.0258,0.0258,0,113,113,26,1,twoone,,,,,,,,,,,,,,,,,,,,,,,,,,,,,,,,,,,,,,,,,,,,,,,,,,,,,,,,,,,,,,,,,,,,,,,,,,,,,,,,,,,,,,,,,,,,,,,,,,,,,,,,,,,,,,,,,,,,,,,,,,,,,,,,,,,,,,,,,
,,6687ef6d11e0933961e2267f,2026-03-17_16h11.26.963,kallum_motion_pilot_GIST_update_2,2026.1.1,Win32,60.24096386,6687ef6d11e0933961e2267f,69b95efdef24cd8a694e89ee,69b960ba331938bbe5c7e3ed,0.0258,0.0259,0,114,114,1,1,onethree,,,,,,,,,,,,,,,,,,,,,,,,,,,,,,,,,,,,,,,,,,,,,,,,,,,,,,,,,,,,,,,,,,,,,,,,,,,,,,,,,,,,,,,,,,,,,,,,,,,,,,,,,,,,,,,,,,,,,,,,,,,,,,,,,,,,,,,,,
,,6687ef6d11e0933961e2267f,2026-03-17_16h11.26.963,kallum_motion_pilot_GIST_update_2,2026.1.1,Win32,60.24096386,6687ef6d11e0933961e2267f,69b95efdef24cd8a694e89ee,69b960ba331938bbe5c7e3ed,0.0259,0.0259,0,115,115,131,1,sixeight,,,,,,,,,,,,,,,,,,,,,,,,,,,,,,,,,,,,,,,,,,,,,,,,,,,,,,,,,,,,,,,,,,,,,,,,,,,,,,,,,,,,,,,,,,,,,,,,,,,,,,,,,,,,,,,,,,,,,,,,,,,,,,,,,,,,,,,,,
,,6687ef6d11e0933961e2267f,2026-03-17_16h11.26.963,kallum_motion_pilot_GIST_update_2,2026.1.1,Win32,60.24096386,6687ef6d11e0933961e2267f,69b95efdef24cd8a694e89ee,69b960ba331938bbe5c7e3ed,0.0259,0.0259,0,116,116,72,1,onetwo,,,,,,,,,,,,,,,,,,,,,,,,,,,,,,,,,,,,,,,,,,,,,,,,,,,,,,,,,,,,,,,,,,,,,,,,,,,,,,,,,,,,,,,,,,,,,,,,,,,,,,,,,,,,,,,,,,,,,,,,,,,,,,,,,,,,,,,,,
,,6687ef6d11e0933961e2267f,2026-03-17_16h11.26.963,kallum_motion_pilot_GIST_update_2,2026.1.1,Win32,60.24096386,6687ef6d11e0933961e2267f,69b95efdef24cd8a694e89ee,69b960ba331938bbe5c7e3ed,0.0261,0.0261,0,117,117,61,1,threefour,,,,,,,,,,,,,,,,,,,,,,,,,,,,,,,,,,,,,,,,,,,,,,,,,,,,,,,,,,,,,,,,,,,,,,,,,,,,,,,,,,,,,,,,,,,,,,,,,,,,,,,,,,,,,,,,,,,,,,,,,,,,,,,,,,,,,,,,,
,,6687ef6d11e0933961e2267f,2026-03-17_16h11.26.963,kallum_motion_pilot_GIST_update_2,2026.1.1,Win32,60.24096386,6687ef6d11e0933961e2267f,69b95efdef24cd8a694e89ee,69b960ba331938bbe5c7e3ed,0.0261,0.0261,0,118,118,140,1,sevenfive,,,,,,,,,,,,,,,,,,,,,,,,,,,,,,,,,,,,,,,,,,,,,,,,,,,,,,,,,,,,,,,,,,,,,,,,,,,,,,,,,,,,,,,,,,,,,,,,,,,,,,,,,,,,,,,,,,,,,,,,,,,,,,,,,,,,,,,,,
,,6687ef6d11e0933961e2267f,2026-03-17_16h11.26.963,kallum_motion_pilot_GIST_update_2,2026.1.1,Win32,60.24096386,6687ef6d11e0933961e2267f,69b95efdef24cd8a694e89ee,69b960ba331938bbe5c7e3ed,0.0261,0.0261,0,119,119,18,1,twoone,,,,,,,,,,,,,,,,,,,,,,,,,,,,,,,,,,,,,,,,,,,,,,,,,,,,,,,,,,,,,,,,,,,,,,,,,,,,,,,,,,,,,,,,,,,,,,,,,,,,,,,,,,,,,,,,,,,,,,,,,,,,,,,,,,,,,,,,,
,,6687ef6d11e0933961e2267f,2026-03-17_16h11.26.963,kallum_motion_pilot_GIST_update_2,2026.1.1,Win32,60.24096386,6687ef6d11e0933961e2267f,69b95efdef24cd8a694e89ee,69b960ba331938bbe5c7e3ed,0.0263,0.0263,0,120,120,102,1,eightsix,,,,,,,,,,,,,,,,,,,,,,,,,,,,,,,,,,,,,,,,,,,,,,,,,,,,,,,,,,,,,,,,,,,,,,,,,,,,,,,,,,,,,,,,,,,,,,,,,,,,,,,,,,,,,,,,,,,,,,,,,,,,,,,,,,,,,,,,,
,,6687ef6d11e0933961e2267f,2026-03-17_16h11.26.963,kallum_motion_pilot_GIST_update_2,2026.1.1,Win32,60.24096386,6687ef6d11e0933961e2267f,69b95efdef24cd8a694e89ee,69b960ba331938bbe5c7e3ed,0.0263,0.0263,0,121,121,148,1,sevenfive,,,,,,,,,,,,,,,,,,,,,,,,,,,,,,,,,,,,,,,,,,,,,,,,,,,,,,,,,,,,,,,,,,,,,,,,,,,,,,,,,,,,,,,,,,,,,,,,,,,,,,,,,,,,,,,,,,,,,,,,,,,,,,,,,,,,,,,,,
,,6687ef6d11e0933961e2267f,2026-03-17_16h11.26.963,kallum_motion_pilot_GIST_update_2,2026.1.1,Win32,60.24096386,6687ef6d11e0933961e2267f,69b95efdef24cd8a694e89ee,69b960ba331938bbe5c7e3ed,0.0264,0.0264,0,122,122,129,1,fiveseven,,,,,,,,,,,,,,,,,,,,,,,,,,,,,,,,,,,,,,,,,,,,,,,,,,,,,,,,,,,,,,,,,,,,,,,,,,,,,,,,,,,,,,,,,,,,,,,,,,,,,,,,,,,,,,,,,,,,,,,,,,,,,,,,,,,,,,,,,
,,6687ef6d11e0933961e2267f,2026-03-17_16h11.26.963,kallum_motion_pilot_GIST_update_2,2026.1.1,Win32,60.24096386,6687ef6d11e0933961e2267f,69b95efdef24cd8a694e89ee,69b960ba331938bbe5c7e3ed,0.0264,0.0264,0,123,123,122,1,sixfive,,,,,,,,,,,,,,,,,,,,,,,,,,,,,,,,,,,,,,,,,,,,,,,,,,,,,,,,,,,,,,,,,,,,,,,,,,,,,,,,,,,,,,,,,,,,,,,,,,,,,,,,,,,,,,,,,,,,,,,,,,,,,,,,,,,,,,,,,
,,6687ef6d11e0933961e2267f,2026-03-17_16h11.26.963,kallum_motion_pilot_GIST_update_2,2026.1.1,Win32,60.24096386,6687ef6d11e0933961e2267f,69b95efdef24cd8a694e89ee,69b960ba331938bbe5c7e3ed,0.0265,0.0265,0,124,124,21,1,threefour,,,,,,,,,,,,,,,,,,,,,,,,,,,,,,,,,,,,,,,,,,,,,,,,,,,,,,,,,,,,,,,,,,,,,,,,,,,,,,,,,,,,,,,,,,,,,,,,,,,,,,,,,,,,,,,,,,,,,,,,,,,,,,,,,,,,,,,,,
,,6687ef6d11e0933961e2267f,2026-03-17_16h11.26.963,kallum_motion_pilot_GIST_update_2,2026.1.1,Win32,60.24096386,6687ef6d11e0933961e2267f,69b95efdef24cd8a694e89ee,69b960ba331938bbe5c7e3ed,0.0266,0.0266,0,125,125,134,1,eightsix,,,,,,,,,,,,,,,,,,,,,,,,,,,,,,,,,,,,,,,,,,,,,,,,,,,,,,,,,,,,,,,,,,,,,,,,,,,,,,,,,,,,,,,,,,,,,,,,,,,,,,,,,,,,,,,,,,,,,,,,,,,,,,,,,,,,,,,,,
,,6687ef6d11e0933961e2267f,2026-03-17_16h11.26.963,kallum_motion_pilot_GIST_update_2,2026.1.1,Win32,60.24096386,6687ef6d11e0933961e2267f,69b95efdef24cd8a694e89ee,69b960ba331938bbe5c7e3ed,0.0266,0.0266,0,126,126,126,1,eightsix,,,,,,,,,,,,,,,,,,,,,,,,,,,,,,,,,,,,,,,,,,,,,,,,,,,,,,,,,,,,,,,,,,,,,,,,,,,,,,,,,,,,,,,,,,,,,,,,,,,,,,,,,,,,,,,,,,,,,,,,,,,,,,,,,,,,,,,,,
,,6687ef6d11e0933961e2267f,2026-03-17_16h11.26.963,kallum_motion_pilot_GIST_update_2,2026.1.1,Win32,60.24096386,6687ef6d11e0933961e2267f,69b95efdef24cd8a694e89ee,69b960ba331938bbe5c7e3ed,0.0267,0.0267,0,127,127,128,1,fivesix,,,,,,,,,,,,,,,,,,,,,,,,,,,,,,,,,,,,,,,,,,,,,,,,,,,,,,,,,,,,,,,,,,,,,,,,,,,,,,,,,,,,,,,,,,,,,,,,,,,,,,,,,,,,,,,,,,,,,,,,,,,,,,,,,,,,,,,,,
,,6687ef6d11e0933961e2267f,2026-03-17_16h11.26.963,kallum_motion_pilot_GIST_update_2,2026.1.1,Win32,60.24096386,6687ef6d11e0933961e2267f,69b95efdef24cd8a694e89ee,69b960ba331938bbe5c7e3ed,0.0267,0.0267,0,128,128,116,1,sevenfive,,,,,,,,,,,,,,,,,,,,,,,,,,,,,,,,,,,,,,,,,,,,,,,,,,,,,,,,,,,,,,,,,,,,,,,,,,,,,,,,,,,,,,,,,,,,,,,,,,,,,,,,,,,,,,,,,,,,,,,,,,,,,,,,,,,,,,,,,
,,6687ef6d11e0933961e2267f,2026-03-17_16h11.26.963,kallum_motion_pilot_GIST_update_2,2026.1.1,Win32,60.24096386,6687ef6d11e0933961e2267f,69b95efdef24cd8a694e89ee,69b960ba331938bbe5c7e3ed,0.0269,0.0269,0,129,129,30,1,fourtwo,,,,,,,,,,,,,,,,,,,,,,,,,,,,,,,,,,,,,,,,,,,,,,,,,,,,,,,,,,,,,,,,,,,,,,,,,,,,,,,,,,,,,,,,,,,,,,,,,,,,,,,,,,,,,,,,,,,,,,,,,,,,,,,,,,,,,,,,,
,,6687ef6d11e0933961e2267f,2026-03-17_16h11.26.963,kallum_motion_pilot_GIST_update_2,2026.1.1,Win32,60.24096386,6687ef6d11e0933961e2267f,69b95efdef24cd8a694e89ee,69b960ba331938bbe5c7e3ed,0.0269,0.0269,0,130,130,115,1,sixeight,,,,,,,,,,,,,,,,,,,,,,,,,,,,,,,,,,,,,,,,,,,,,,,,,,,,,,,,,,,,,,,,,,,,,,,,,,,,,,,,,,,,,,,,,,,,,,,,,,,,,,,,,,,,,,,,,,,,,,,,,,,,,,,,,,,,,,,,,
,,6687ef6d11e0933961e2267f,2026-03-17_16h11.26.963,kallum_motion_pilot_GIST_update_2,2026.1.1,Win32,60.24096386,6687ef6d11e0933961e2267f,69b95efdef24cd8a694e89ee,69b960ba331938bbe5c7e3ed,0.0269,0.0269,0,131,131,95,1,eightseven,,,,,,,,,,,,,,,,,,,,,,,,,,,,,,,,,,,,,,,,,,,,,,,,,,,,,,,,,,,,,,,,,,,,,,,,,,,,,,,,,,,,,,,,,,,,,,,,,,,,,,,,,,,,,,,,,,,,,,,,,,,,,,,,,,,,,,,,,
,,6687ef6d11e0933961e2267f,2026-03-17_16h11.26.963,kallum_motion_pilot_GIST_update_2,2026.1.1,Win32,60.24096386,6687ef6d11e0933961e2267f,69b95efdef24cd8a694e89ee,69b960ba331938bbe5c7e3ed,0.027,0.027,0,132,132,19,1,twofour,,,,,,,,,,,,,,,,,,,,,,,,,,,,,,,,,,,,,,,,,,,,,,,,,,,,,,,,,,,,,,,,,,,,,,,,,,,,,,,,,,,,,,,,,,,,,,,,,,,,,,,,,,,,,,,,,,,,,,,,,,,,,,,,,,,,,,,,,
,,6687ef6d11e0933961e2267f,2026-03-17_16h11.26.963,kallum_motion_pilot_GIST_update_2,2026.1.1,Win32,60.24096386,6687ef6d11e0933961e2267f,69b95efdef24cd8a694e89ee,69b960ba331938bbe5c7e3ed,0.0271,0.0271,0,133,133,67,1,twofour,,,,,,,,,,,,,,,,,,,,,,,,,,,,,,,,,,,,,,,,,,,,,,,,,,,,,,,,,,,,,,,,,,,,,,,,,,,,,,,,,,,,,,,,,,,,,,,,,,,,,,,,,,,,,,,,,,,,,,,,,,,,,,,,,,,,,,,,,
,,6687ef6d11e0933961e2267f,2026-03-17_16h11.26.963,kallum_motion_pilot_GIST_update_2,2026.1.1,Win32,60.24096386,6687ef6d11e0933961e2267f,69b95efdef24cd8a694e89ee,69b960ba331938bbe5c7e3ed,0.0272,0.0272,0,134,134,109,1,seveneight,,,,,,,,,,,,,,,,,,,,,,,,,,,,,,,,,,,,,,,,,,,,,,,,,,,,,,,,,,,,,,,,,,,,,,,,,,,,,,,,,,,,,,,,,,,,,,,,,,,,,,,,,,,,,,,,,,,,,,,,,,,,,,,,,,,,,,,,,
,,6687ef6d11e0933961e2267f,2026-03-17_16h11.26.963,kallum_motion_pilot_GIST_update_2,2026.1.1,Win32,60.24096386,6687ef6d11e0933961e2267f,69b95efdef24cd8a694e89ee,69b960ba331938bbe5c7e3ed,0.0272,0.0272,0,135,135,12,1,threeone,,,,,,,,,,,,,,,,,,,,,,,,,,,,,,,,,,,,,,,,,,,,,,,,,,,,,,,,,,,,,,,,,,,,,,,,,,,,,,,,,,,,,,,,,,,,,,,,,,,,,,,,,,,,,,,,,,,,,,,,,,,,,,,,,,,,,,,,,
,,6687ef6d11e0933961e2267f,2026-03-17_16h11.26.963,kallum_motion_pilot_GIST_update_2,2026.1.1,Win32,60.24096386,6687ef6d11e0933961e2267f,69b95efdef24cd8a694e89ee,69b960ba331938bbe5c7e3ed,0.0272,0.0272,0,136,136,146,1,sixfive,,,,,,,,,,,,,,,,,,,,,,,,,,,,,,,,,,,,,,,,,,,,,,,,,,,,,,,,,,,,,,,,,,,,,,,,,,,,,,,,,,,,,,,,,,,,,,,,,,,,,,,,,,,,,,,,,,,,,,,,,,,,,,,,,,,,,,,,,
,,6687ef6d11e0933961e2267f,2026-03-17_16h11.26.963,kallum_motion_pilot_GIST_update_2,2026.1.1,Win32,60.24096386,6687ef6d11e0933961e2267f,69b95efdef24cd8a694e89ee,69b960ba331938bbe5c7e3ed,0.0273,0.0273,0,137,137,121,1,fiveseven,,,,,,,,,,,,,,,,,,,,,,,,,,,,,,,,,,,,,,,,,,,,,,,,,,,,,,,,,,,,,,,,,,,,,,,,,,,,,,,,,,,,,,,,,,,,,,,,,,,,,,,,,,,,,,,,,,,,,,,,,,,,,,,,,,,,,,,,,
,,6687ef6d11e0933961e2267f,2026-03-17_16h11.26.963,kallum_motion_pilot_GIST_update_2,2026.1.1,Win32,60.24096386,6687ef6d11e0933961e2267f,69b95efdef24cd8a694e89ee,69b960ba331938bbe5c7e3ed,0.0274,0.0274,0,138,138,71,1,fourthree,,,,,,,,,,,,,,,,,,,,,,,,,,,,,,,,,,,,,,,,,,,,,,,,,,,,,,,,,,,,,,,,,,,,,,,,,,,,,,,,,,,,,,,,,,,,,,,,,,,,,,,,,,,,,,,,,,,,,,,,,,,,,,,,,,,,,,,,,
,,6687ef6d11e0933961e2267f,2026-03-17_16h11.26.963,kallum_motion_pilot_GIST_update_2,2026.1.1,Win32,60.24096386,6687ef6d11e0933961e2267f,69b95efdef24cd8a694e89ee,69b960ba331938bbe5c7e3ed,0.0274,0.0274,0,139,139,46,1,fourtwo,,,,,,,,,,,,,,,,,,,,,,,,,,,,,,,,,,,,,,,,,,,,,,,,,,,,,,,,,,,,,,,,,,,,,,,,,,,,,,,,,,,,,,,,,,,,,,,,,,,,,,,,,,,,,,,,,,,,,,,,,,,,,,,,,,,,,,,,,
,,6687ef6d11e0933961e2267f,2026-03-17_16h11.26.963,kallum_motion_pilot_GIST_update_2,2026.1.1,Win32,60.24096386,6687ef6d11e0933961e2267f,69b95efdef24cd8a694e89ee,69b960ba331938bbe5c7e3ed,0.0275,0.0275,0,140,140,63,1,fourthree,,,,,,,,,,,,,,,,,,,,,,,,,,,,,,,,,,,,,,,,,,,,,,,,,,,,,,,,,,,,,,,,,,,,,,,,,,,,,,,,,,,,,,,,,,,,,,,,,,,,,,,,,,,,,,,,,,,,,,,,,,,,,,,,,,,,,,,,,
,,6687ef6d11e0933961e2267f,2026-03-17_16h11.26.963,kallum_motion_pilot_GIST_update_2,2026.1.1,Win32,60.24096386,6687ef6d11e0933961e2267f,69b95efdef24cd8a694e89ee,69b960ba331938bbe5c7e3ed,0.0276,0.0276,0,141,141,38,1,fourtwo,,,,,,,,,,,,,,,,,,,,,,,,,,,,,,,,,,,,,,,,,,,,,,,,,,,,,,,,,,,,,,,,,,,,,,,,,,,,,,,,,,,,,,,,,,,,,,,,,,,,,,,,,,,,,,,,,,,,,,,,,,,,,,,,,,,,,,,,,
,,6687ef6d11e0933961e2267f,2026-03-17_16h11.26.963,kallum_motion_pilot_GIST_update_2,2026.1.1,Win32,60.24096386,6687ef6d11e0933961e2267f,69b95efdef24cd8a694e89ee,69b960ba331938bbe5c7e3ed,0.0276,0.0276,0,142,142,101,1,seveneight,,,,,,,,,,,,,,,,,,,,,,,,,,,,,,,,,,,,,,,,,,,,,,,,,,,,,,,,,,,,,,,,,,,,,,,,,,,,,,,,,,,,,,,,,,,,,,,,,,,,,,,,,,,,,,,,,,,,,,,,,,,,,,,,,,,,,,,,,
,,6687ef6d11e0933961e2267f,2026-03-17_16h11.26.963,kallum_motion_pilot_GIST_update_2,2026.1.1,Win32,60.24096386,6687ef6d11e0933961e2267f,69b95efdef24cd8a694e89ee,69b960ba331938bbe5c7e3ed,0.0278,0.0278,0,143,143,90,1,sixfive,,,,,,,,,,,,,,,,,,,,,,,,,,,,,,,,,,,,,,,,,,,,,,,,,,,,,,,,,,,,,,,,,,,,,,,,,,,,,,,,,,,,,,,,,,,,,,,,,,,,,,,,,,,,,,,,,,,,,,,,,,,,,,,,,,,,,,,,,
,,6687ef6d11e0933961e2267f,2026-03-17_16h11.26.963,kallum_motion_pilot_GIST_update_2,2026.1.1,Win32,60.24096386,6687ef6d11e0933961e2267f,69b95efdef24cd8a694e89ee,69b960ba331938bbe5c7e3ed,0.0278,0.0278,0,144,144,92,1,sevenfive,,,,,,,,,,,,,,,,,,,,,,,,,,,,,,,,,,,,,,,,,,,,,,,,,,,,,,,,,,,,,,,,,,,,,,,,,,,,,,,,,,,,,,,,,,,,,,,,,,,,,,,,,,,,,,,,,,,,,,,,,,,,,,,,,,,,,,,,,
,,6687ef6d11e0933961e2267f,2026-03-17_16h11.26.963,kallum_motion_pilot_GIST_update_2,2026.1.1,Win32,60.24096386,6687ef6d11e0933961e2267f,69b95efdef24cd8a694e89ee,69b960ba331938bbe5c7e3ed,0.0279,0.0279,0,145,145,60,1,threeone,,,,,,,,,,,,,,,,,,,,,,,,,,,,,,,,,,,,,,,,,,,,,,,,,,,,,,,,,,,,,,,,,,,,,,,,,,,,,,,,,,,,,,,,,,,,,,,,,,,,,,,,,,,,,,,,,,,,,,,,,,,,,,,,,,,,,,,,,
,,6687ef6d11e0933961e2267f,2026-03-17_16h11.26.963,kallum_motion_pilot_GIST_update_2,2026.1.1,Win32,60.24096386,6687ef6d11e0933961e2267f,69b95efdef24cd8a694e89ee,69b960ba331938bbe5c7e3ed,0.0279,0.0279,0,146,146,66,1,twoone,,,,,,,,,,,,,,,,,,,,,,,,,,,,,,,,,,,,,,,,,,,,,,,,,,,,,,,,,,,,,,,,,,,,,,,,,,,,,,,,,,,,,,,,,,,,,,,,,,,,,,,,,,,,,,,,,,,,,,,,,,,,,,,,,,,,,,,,,
,,6687ef6d11e0933961e2267f,2026-03-17_16h11.26.963,kallum_motion_pilot_GIST_update_2,2026.1.1,Win32,60.24096386,6687ef6d11e0933961e2267f,69b95efdef24cd8a694e89ee,69b960ba331938bbe5c7e3ed,0.028,0.028,0,147,147,97,1,fiveseven,,,,,,,,,,,,,,,,,,,,,,,,,,,,,,,,,,,,,,,,,,,,,,,,,,,,,,,,,,,,,,,,,,,,,,,,,,,,,,,,,,,,,,,,,,,,,,,,,,,,,,,,,,,,,,,,,,,,,,,,,,,,,,,,,,,,,,,,,
,,6687ef6d11e0933961e2267f,2026-03-17_16h11.26.963,kallum_motion_pilot_GIST_update_2,2026.1.1,Win32,60.24096386,6687ef6d11e0933961e2267f,69b95efdef24cd8a694e89ee,69b960ba331938bbe5c7e3ed,0.0281,0.0281,0,148,148,149,1,seveneight,,,,,,,,,,,,,,,,,,,,,,,,,,,,,,,,,,,,,,,,,,,,,,,,,,,,,,,,,,,,,,,,,,,,,,,,,,,,,,,,,,,,,,,,,,,,,,,,,,,,,,,,,,,,,,,,,,,,,,,,,,,,,,,,,,,,,,,,,
,,6687ef6d11e0933961e2267f,2026-03-17_16h11.26.963,kallum_motion_pilot_GIST_update_2,2026.1.1,Win32,60.24096386,6687ef6d11e0933961e2267f,69b95efdef24cd8a694e89ee,69b960ba331938bbe5c7e3ed,0.0281,0.0281,0,149,149,108,1,sevenfive,,,,,,,,,,,,,,,,,,,,,,,,,,,,,,,,,,,,,,,,,,,,,,,,,,,,,,,,,,,,,,,,,,,,,,,,,,,,,,,,,,,,,,,,,,,,,,,,,,,,,,,,,,,,,,,,,,,,,,,,,,,,,,,,,,,,,,,,,
,,6687ef6d11e0933961e2267f,2026-03-17_16h11.26.963,kallum_motion_pilot_GIST_update_2,2026.1.1,Win32,60.24096386,6687ef6d11e0933961e2267f,69b95efdef24cd8a694e89ee,69b960ba331938bbe5c7e3ed,0.0282,0.0282,0,150,150,159,1,eightseven,,,,,,,,,,,,,,,,,,,,,,,,,,,,,,,,,,,,,,,,,,,,,,,,,,,,,,,,,,,,,,,,,,,,,,,,,,,,,,,,,,,,,,,,,,,,,,,,,,,,,,,,,,,,,,,,,,,,,,,,,,,,,,,,,,,,,,,,,
,,6687ef6d11e0933961e2267f,2026-03-17_16h11.26.963,kallum_motion_pilot_GIST_update_2,2026.1.1,Win32,60.24096386,6687ef6d11e0933961e2267f,69b95efdef24cd8a694e89ee,69b960ba331938bbe5c7e3ed,0.0282,0.0282,0,151,151,8,1,onetwo,,,,,,,,,,,,,,,,,,,,,,,,,,,,,,,,,,,,,,,,,,,,,,,,,,,,,,,,,,,,,,,,,,,,,,,,,,,,,,,,,,,,,,,,,,,,,,,,,,,,,,,,,,,,,,,,,,,,,,,,,,,,,,,,,,,,,,,,,
,,6687ef6d11e0933961e2267f,2026-03-17_16h11.26.963,kallum_motion_pilot_GIST_update_2,2026.1.1,Win32,60.24096386,6687ef6d11e0933961e2267f,69b95efdef24cd8a694e89ee,69b960ba331938bbe5c7e3ed,0.0283,0.0283,0,152,152,118,1,eightsix,,,,,,,,,,,,,,,,,,,,,,,,,,,,,,,,,,,,,,,,,,,,,,,,,,,,,,,,,,,,,,,,,,,,,,,,,,,,,,,,,,,,,,,,,,,,,,,,,,,,,,,,,,,,,,,,,,,,,,,,,,,,,,,,,,,,,,,,,
,,6687ef6d11e0933961e2267f,2026-03-17_16h11.26.963,kallum_motion_pilot_GIST_update_2,2026.1.1,Win32,60.24096386,6687ef6d11e0933961e2267f,69b95efdef24cd8a694e89ee,69b960ba331938bbe5c7e3ed,0.0283,0.0283,0,153,153,130,1,sixfive,,,,,,,,,,,,,,,,,,,,,,,,,,,,,,,,,,,,,,,,,,,,,,,,,,,,,,,,,,,,,,,,,,,,,,,,,,,,,,,,,,,,,,,,,,,,,,,,,,,,,,,,,,,,,,,,,,,,,,,,,,,,,,,,,,,,,,,,,
,,6687ef6d11e0933961e2267f,2026-03-17_16h11.26.963,kallum_motion_pilot_GIST_update_2,2026.1.1,Win32,60.24096386,6687ef6d11e0933961e2267f,69b95efdef24cd8a694e89ee,69b960ba331938bbe5c7e3ed,0.0285,0.0293,0,154,154,158,1,eightsix,,,,,,,,,,,,,,,,,,,,,,,,,,,,,,,,,,,,,,,,,,,,,,,,,,,,,,,,,,,,,,,,,,,,,,,,,,,,,,,,,,,,,,,,,,,,,,,,,,,,,,,,,,,,,,,,,,,,,,,,,,,,,,,,,,,,,,,,,
,,6687ef6d11e0933961e2267f,2026-03-17_16h11.26.963,kallum_motion_pilot_GIST_update_2,2026.1.1,Win32,60.24096386,6687ef6d11e0933961e2267f,69b95efdef24cd8a694e89ee,69b960ba331938bbe5c7e3ed,0.0293,0.0293,0,155,155,62,1,fourtwo,,,,,,,,,,,,,,,,,,,,,,,,,,,,,,,,,,,,,,,,,,,,,,,,,,,,,,,,,,,,,,,,,,,,,,,,,,,,,,,,,,,,,,,,,,,,,,,,,,,,,,,,,,,,,,,,,,,,,,,,,,,,,,,,,,,,,,,,,
,,6687ef6d11e0933961e2267f,2026-03-17_16h11.26.963,kallum_motion_pilot_GIST_update_2,2026.1.1,Win32,60.24096386,6687ef6d11e0933961e2267f,69b95efdef24cd8a694e89ee,69b960ba331938bbe5c7e3ed,0.0295,0.0295,0,156,156,35,1,twofour,,,,,,,,,,,,,,,,,,,,,,,,,,,,,,,,,,,,,,,,,,,,,,,,,,,,,,,,,,,,,,,,,,,,,,,,,,,,,,,,,,,,,,,,,,,,,,,,,,,,,,,,,,,,,,,,,,,,,,,,,,,,,,,,,,,,,,,,,
,,6687ef6d11e0933961e2267f,2026-03-17_16h11.26.963,kallum_motion_pilot_GIST_update_2,2026.1.1,Win32,60.24096386,6687ef6d11e0933961e2267f,69b95efdef24cd8a694e89ee,69b960ba331938bbe5c7e3ed,0.0296,0.0296,0,157,157,58,1,twoone,,,,,,,,,,,,,,,,,,,,,,,,,,,,,,,,,,,,,,,,,,,,,,,,,,,,,,,,,,,,,,,,,,,,,,,,,,,,,,,,,,,,,,,,,,,,,,,,,,,,,,,,,,,,,,,,,,,,,,,,,,,,,,,,,,,,,,,,,
,,6687ef6d11e0933961e2267f,2026-03-17_16h11.26.963,kallum_motion_pilot_GIST_update_2,2026.1.1,Win32,60.24096386,6687ef6d11e0933961e2267f,69b95efdef24cd8a694e89ee,69b960ba331938bbe5c7e3ed,0.0296,0.0296,0,158,158,138,1,sixfive,,,,,,,,,,,,,,,,,,,,,,,,,,,,,,,,,,,,,,,,,,,,,,,,,,,,,,,,,,,,,,,,,,,,,,,,,,,,,,,,,,,,,,,,,,,,,,,,,,,,,,,,,,,,,,,,,,,,,,,,,,,,,,,,,,,,,,,,,
,,6687ef6d11e0933961e2267f,2026-03-17_16h11.26.963,kallum_motion_pilot_GIST_update_2,2026.1.1,Win32,60.24096386,6687ef6d11e0933961e2267f,69b95efdef24cd8a694e89ee,69b960ba331938bbe5c7e3ed,0.0297,0.0297,0,159,159,117,1,seveneight,,,,,,,,,,,,,,,,,,,,,,,,,,,,,,,,,,,,,,,,,,,,,,,,,,,,,,,,,,,,,,,,,,,,,,,,,,,,,,,,,,,,,,,,,,,,,,,,,,,,,,,,,,,,,,,,,,,,,,,,,,,,,,,,,,,,,,,,,
,,6687ef6d11e0933961e2267f,2026-03-17_16h11.26.963,kallum_motion_pilot_GIST_update_2,2026.1.1,Win32,60.24096386,6687ef6d11e0933961e2267f,69b95efdef24cd8a694e89ee,69b960ba331938bbe5c7e3ed,0.0297,0.0297,0,160,160,99,1,sixeight,,,,,,,,,,,,,,,,,,,,,,,,,,,,,,,,,,,,,,,,,,,,,,,,,,,,,,,,,,,,,,,,,,,,,,,,,,,,,,,,,,,,,,,,,,,,,,,,,,,,,,,,,,,,,,,,,,,,,,,,,,,,,,,,,,,,,,,,,
,,6687ef6d11e0933961e2267f,2026-03-17_16h11.26.963,kallum_motion_pilot_GIST_update_2,2026.1.1,Win32,60.24096386,6687ef6d11e0933961e2267f,69b95efdef24cd8a694e89ee,69b960ba331938bbe5c7e3ed,0.0298,0.0298,0,161,161,142,1,eightsix,,,,,,,,,,,,,,,,,,,,,,,,,,,,,,,,,,,,,,,,,,,,,,,,,,,,,,,,,,,,,,,,,,,,,,,,,,,,,,,,,,,,,,,,,,,,,,,,,,,,,,,,,,,,,,,,,,,,,,,,,,,,,,,,,,,,,,,,,
,,6687ef6d11e0933961e2267f,2026-03-17_16h11.26.963,kallum_motion_pilot_GIST_update_2,2026.1.1,Win32,60.24096386,6687ef6d11e0933961e2267f,69b95efdef24cd8a694e89ee,69b960ba331938bbe5c7e3ed,0.0299,0.0299,1,0,162,21,1,threefour,,,,,,,,,,,,,,,,,,,,,,,,,,,,,,,,,,,,,,,,,,,,,,,,,,,,,,,,,,,,,,,,,,,,,,,,,,,,,,,,,,,,,,,,,,,,,,,,,,,,,,,,,,,,,,,,,,,,,,,,,,,,,,,,,,,,,,,,,
,,6687ef6d11e0933961e2267f,2026-03-17_16h11.26.963,kallum_motion_pilot_GIST_update_2,2026.1.1,Win32,60.24096386,6687ef6d11e0933961e2267f,69b95efdef24cd8a694e89ee,69b960ba331938bbe5c7e3ed,0.0299,0.0299,1,1,163,87,1,eightseven,,,,,,,,,,,,,,,,,,,,,,,,,,,,,,,,,,,,,,,,,,,,,,,,,,,,,,,,,,,,,,,,,,,,,,,,,,,,,,,,,,,,,,,,,,,,,,,,,,,,,,,,,,,,,,,,,,,,,,,,,,,,,,,,,,,,,,,,,
,,6687ef6d11e0933961e2267f,2026-03-17_16h11.26.963,kallum_motion_pilot_GIST_update_2,2026.1.1,Win32,60.24096386,6687ef6d11e0933961e2267f,69b95efdef24cd8a694e89ee,69b960ba331938bbe5c7e3ed,0.03,0.03,1,2,164,130,1,sixfive,,,,,,,,,,,,,,,,,,,,,,,,,,,,,,,,,,,,,,,,,,,,,,,,,,,,,,,,,,,,,,,,,,,,,,,,,,,,,,,,,,,,,,,,,,,,,,,,,,,,,,,,,,,,,,,,,,,,,,,,,,,,,,,,,,,,,,,,,
,,6687ef6d11e0933961e2267f,2026-03-17_16h11.26.963,kallum_motion_pilot_GIST_update_2,2026.1.1,Win32,60.24096386,6687ef6d11e0933961e2267f,69b95efdef24cd8a694e89ee,69b960ba331938bbe5c7e3ed,0.0301,0.0301,1,3,165,97,1,fiveseven,,,,,,,,,,,,,,,,,,,,,,,,,,,,,,,,,,,,,,,,,,,,,,,,,,,,,,,,,,,,,,,,,,,,,,,,,,,,,,,,,,,,,,,,,,,,,,,,,,,,,,,,,,,,,,,,,,,,,,,,,,,,,,,,,,,,,,,,,
,,6687ef6d11e0933961e2267f,2026-03-17_16h11.26.963,kallum_motion_pilot_GIST_update_2,2026.1.1,Win32,60.24096386,6687ef6d11e0933961e2267f,69b95efdef24cd8a694e89ee,69b960ba331938bbe5c7e3ed,0.0302,0.0302,1,4,166,158,1,eightsix,,,,,,,,,,,,,,,,,,,,,,,,,,,,,,,,,,,,,,,,,,,,,,,,,,,,,,,,,,,,,,,,,,,,,,,,,,,,,,,,,,,,,,,,,,,,,,,,,,,,,,,,,,,,,,,,,,,,,,,,,,,,,,,,,,,,,,,,,
,,6687ef6d11e0933961e2267f,2026-03-17_16h11.26.963,kallum_motion_pilot_GIST_update_2,2026.1.1,Win32,60.24096386,6687ef6d11e0933961e2267f,69b95efdef24cd8a694e89ee,69b960ba331938bbe5c7e3ed,0.0302,0.0302,1,5,167,124,1,sevenfive,,,,,,,,,,,,,,,,,,,,,,,,,,,,,,,,,,,,,,,,,,,,,,,,,,,,,,,,,,,,,,,,,,,,,,,,,,,,,,,,,,,,,,,,,,,,,,,,,,,,,,,,,,,,,,,,,,,,,,,,,,,,,,,,,,,,,,,,,
,,6687ef6d11e0933961e2267f,2026-03-17_16h11.26.963,kallum_motion_pilot_GIST_update_2,2026.1.1,Win32,60.24096386,6687ef6d11e0933961e2267f,69b95efdef24cd8a694e89ee,69b960ba331938bbe5c7e3ed,0.0302,0.0302,1,6,168,30,1,fourtwo,,,,,,,,,,,,,,,,,,,,,,,,,,,,,,,,,,,,,,,,,,,,,,,,,,,,,,,,,,,,,,,,,,,,,,,,,,,,,,,,,,,,,,,,,,,,,,,,,,,,,,,,,,,,,,,,,,,,,,,,,,,,,,,,,,,,,,,,,
,,6687ef6d11e0933961e2267f,2026-03-17_16h11.26.963,kallum_motion_pilot_GIST_update_2,2026.1.1,Win32,60.24096386,6687ef6d11e0933961e2267f,69b95efdef24cd8a694e89ee,69b960ba331938bbe5c7e3ed,0.0303,0.0303,1,7,169,56,1,onetwo,,,,,,,,,,,,,,,,,,,,,,,,,,,,,,,,,,,,,,,,,,,,,,,,,,,,,,,,,,,,,,,,,,,,,,,,,,,,,,,,,,,,,,,,,,,,,,,,,,,,,,,,,,,,,,,,,,,,,,,,,,,,,,,,,,,,,,,,,
,,6687ef6d11e0933961e2267f,2026-03-17_16h11.26.963,kallum_motion_pilot_GIST_update_2,2026.1.1,Win32,60.24096386,6687ef6d11e0933961e2267f,69b95efdef24cd8a694e89ee,69b960ba331938bbe5c7e3ed,0.0304,0.0304,1,8,170,154,1,sixfive,,,,,,,,,,,,,,,,,,,,,,,,,,,,,,,,,,,,,,,,,,,,,,,,,,,,,,,,,,,,,,,,,,,,,,,,,,,,,,,,,,,,,,,,,,,,,,,,,,,,,,,,,,,,,,,,,,,,,,,,,,,,,,,,,,,,,,,,,
,,6687ef6d11e0933961e2267f,2026-03-17_16h11.26.963,kallum_motion_pilot_GIST_update_2,2026.1.1,Win32,60.24096386,6687ef6d11e0933961e2267f,69b95efdef24cd8a694e89ee,69b960ba331938bbe5c7e3ed,0.0305,0.0305,1,9,171,82,1,sixfive,,,,,,,,,,,,,,,,,,,,,,,,,,,,,,,,,,,,,,,,,,,,,,,,,,,,,,,,,,,,,,,,,,,,,,,,,,,,,,,,,,,,,,,,,,,,,,,,,,,,,,,,,,,,,,,,,,,,,,,,,,,,,,,,,,,,,,,,,
,,6687ef6d11e0933961e2267f,2026-03-17_16h11.26.963,kallum_motion_pilot_GIST_update_2,2026.1.1,Win32,60.24096386,6687ef6d11e0933961e2267f,69b95efdef24cd8a694e89ee,69b960ba331938bbe5c7e3ed,0.0305,0.0305,1,10,172,27,1,twofour,,,,,,,,,,,,,,,,,,,,,,,,,,,,,,,,,,,,,,,,,,,,,,,,,,,,,,,,,,,,,,,,,,,,,,,,,,,,,,,,,,,,,,,,,,,,,,,,,,,,,,,,,,,,,,,,,,,,,,,,,,,,,,,,,,,,,,,,,
,,6687ef6d11e0933961e2267f,2026-03-17_16h11.26.963,kallum_motion_pilot_GIST_update_2,2026.1.1,Win32,60.24096386,6687ef6d11e0933961e2267f,69b95efdef24cd8a694e89ee,69b960ba331938bbe5c7e3ed,0.0306,0.0306,1,11,173,35,1,twofour,,,,,,,,,,,,,,,,,,,,,,,,,,,,,,,,,,,,,,,,,,,,,,,,,,,,,,,,,,,,,,,,,,,,,,,,,,,,,,,,,,,,,,,,,,,,,,,,,,,,,,,,,,,,,,,,,,,,,,,,,,,,,,,,,,,,,,,,,
,,6687ef6d11e0933961e2267f,2026-03-17_16h11.26.963,kallum_motion_pilot_GIST_update_2,2026.1.1,Win32,60.24096386,6687ef6d11e0933961e2267f,69b95efdef24cd8a694e89ee,69b960ba331938bbe5c7e3ed,0.0307,0.0307,1,12,174,18,1,twoone,,,,,,,,,,,,,,,,,,,,,,,,,,,,,,,,,,,,,,,,,,,,,,,,,,,,,,,,,,,,,,,,,,,,,,,,,,,,,,,,,,,,,,,,,,,,,,,,,,,,,,,,,,,,,,,,,,,,,,,,,,,,,,,,,,,,,,,,,
,,6687ef6d11e0933961e2267f,2026-03-17_16h11.26.963,kallum_motion_pilot_GIST_update_2,2026.1.1,Win32,60.24096386,6687ef6d11e0933961e2267f,69b95efdef24cd8a694e89ee,69b960ba331938bbe5c7e3ed,0.0308,0.0308,1,13,175,134,1,eightsix,,,,,,,,,,,,,,,,,,,,,,,,,,,,,,,,,,,,,,,,,,,,,,,,,,,,,,,,,,,,,,,,,,,,,,,,,,,,,,,,,,,,,,,,,,,,,,,,,,,,,,,,,,,,,,,,,,,,,,,,,,,,,,,,,,,,,,,,,
,,6687ef6d11e0933961e2267f,2026-03-17_16h11.26.963,kallum_motion_pilot_GIST_update_2,2026.1.1,Win32,60.24096386,6687ef6d11e0933961e2267f,69b95efdef24cd8a694e89ee,69b960ba331938bbe5c7e3ed,0.0308,0.0308,1,14,176,161,1,fiveseven,,,,,,,,,,,,,,,,,,,,,,,,,,,,,,,,,,,,,,,,,,,,,,,,,,,,,,,,,,,,,,,,,,,,,,,,,,,,,,,,,,,,,,,,,,,,,,,,,,,,,,,,,,,,,,,,,,,,,,,,,,,,,,,,,,,,,,,,,
,,6687ef6d11e0933961e2267f,2026-03-17_16h11.26.963,kallum_motion_pilot_GIST_update_2,2026.1.1,Win32,60.24096386,6687ef6d11e0933961e2267f,69b95efdef24cd8a694e89ee,69b960ba331938bbe5c7e3ed,0.0309,0.0309,1,15,177,38,1,fourtwo,,,,,,,,,,,,,,,,,,,,,,,,,,,,,,,,,,,,,,,,,,,,,,,,,,,,,,,,,,,,,,,,,,,,,,,,,,,,,,,,,,,,,,,,,,,,,,,,,,,,,,,,,,,,,,,,,,,,,,,,,,,,,,,,,,,,,,,,,
,,6687ef6d11e0933961e2267f,2026-03-17_16h11.26.963,kallum_motion_pilot_GIST_update_2,2026.1.1,Win32,60.24096386,6687ef6d11e0933961e2267f,69b95efdef24cd8a694e89ee,69b960ba331938bbe5c7e3ed,0.0309,0.0309,1,16,178,4,1,threeone,,,,,,,,,,,,,,,,,,,,,,,,,,,,,,,,,,,,,,,,,,,,,,,,,,,,,,,,,,,,,,,,,,,,,,,,,,,,,,,,,,,,,,,,,,,,,,,,,,,,,,,,,,,,,,,,,,,,,,,,,,,,,,,,,,,,,,,,,
,,6687ef6d11e0933961e2267f,2026-03-17_16h11.26.963,kallum_motion_pilot_GIST_update_2,2026.1.1,Win32,60.24096386,6687ef6d11e0933961e2267f,69b95efdef24cd8a694e89ee,69b960ba331938bbe5c7e3ed,0.031,0.031,1,17,179,51,1,twofour,,,,,,,,,,,,,,,,,,,,,,,,,,,,,,,,,,,,,,,,,,,,,,,,,,,,,,,,,,,,,,,,,,,,,,,,,,,,,,,,,,,,,,,,,,,,,,,,,,,,,,,,,,,,,,,,,,,,,,,,,,,,,,,,,,,,,,,,,
,,6687ef6d11e0933961e2267f,2026-03-17_16h11.26.963,kallum_motion_pilot_GIST_update_2,2026.1.1,Win32,60.24096386,6687ef6d11e0933961e2267f,69b95efdef24cd8a694e89ee,69b960ba331938bbe5c7e3ed,0.031,0.031,1,18,180,108,1,sevenfive,,,,,,,,,,,,,,,,,,,,,,,,,,,,,,,,,,,,,,,,,,,,,,,,,,,,,,,,,,,,,,,,,,,,,,,,,,,,,,,,,,,,,,,,,,,,,,,,,,,,,,,,,,,,,,,,,,,,,,,,,,,,,,,,,,,,,,,,,
,,6687ef6d11e0933961e2267f,2026-03-17_16h11.26.963,kallum_motion_pilot_GIST_update_2,2026.1.1,Win32,60.24096386,6687ef6d11e0933961e2267f,69b95efdef24cd8a694e89ee,69b960ba331938bbe5c7e3ed,0.0311,0.0311,1,19,181,64,1,onetwo,,,,,,,,,,,,,,,,,,,,,,,,,,,,,,,,,,,,,,,,,,,,,,,,,,,,,,,,,,,,,,,,,,,,,,,,,,,,,,,,,,,,,,,,,,,,,,,,,,,,,,,,,,,,,,,,,,,,,,,,,,,,,,,,,,,,,,,,,
,,6687ef6d11e0933961e2267f,2026-03-17_16h11.26.963,kallum_motion_pilot_GIST_update_2,2026.1.1,Win32,60.24096386,6687ef6d11e0933961e2267f,69b95efdef24cd8a694e89ee,69b960ba331938bbe5c7e3ed,0.0312,0.0312,1,20,182,12,1,threeone,,,,,,,,,,,,,,,,,,,,,,,,,,,,,,,,,,,,,,,,,,,,,,,,,,,,,,,,,,,,,,,,,,,,,,,,,,,,,,,,,,,,,,,,,,,,,,,,,,,,,,,,,,,,,,,,,,,,,,,,,,,,,,,,,,,,,,,,,
,,6687ef6d11e0933961e2267f,2026-03-17_16h11.26.963,kallum_motion_pilot_GIST_update_2,2026.1.1,Win32,60.24096386,6687ef6d11e0933961e2267f,69b95efdef24cd8a694e89ee,69b960ba331938bbe5c7e3ed,0.0312,0.0312,1,21,183,86,1,eightsix,,,,,,,,,,,,,,,,,,,,,,,,,,,,,,,,,,,,,,,,,,,,,,,,,,,,,,,,,,,,,,,,,,,,,,,,,,,,,,,,,,,,,,,,,,,,,,,,,,,,,,,,,,,,,,,,,,,,,,,,,,,,,,,,,,,,,,,,,
,,6687ef6d11e0933961e2267f,2026-03-17_16h11.26.963,kallum_motion_pilot_GIST_update_2,2026.1.1,Win32,60.24096386,6687ef6d11e0933961e2267f,69b95efdef24cd8a694e89ee,69b960ba331938bbe5c7e3ed,0.0314,0.0314,1,22,184,67,1,twofour,,,,,,,,,,,,,,,,,,,,,,,,,,,,,,,,,,,,,,,,,,,,,,,,,,,,,,,,,,,,,,,,,,,,,,,,,,,,,,,,,,,,,,,,,,,,,,,,,,,,,,,,,,,,,,,,,,,,,,,,,,,,,,,,,,,,,,,,,
,,6687ef6d11e0933961e2267f,2026-03-17_16h11.26.963,kallum_motion_pilot_GIST_update_2,2026.1.1,Win32,60.24096386,6687ef6d11e0933961e2267f,69b95efdef24cd8a694e89ee,69b960ba331938bbe5c7e3ed,0.0314,0.0314,1,23,185,95,1,eightseven,,,,,,,,,,,,,,,,,,,,,,,,,,,,,,,,,,,,,,,,,,,,,,,,,,,,,,,,,,,,,,,,,,,,,,,,,,,,,,,,,,,,,,,,,,,,,,,,,,,,,,,,,,,,,,,,,,,,,,,,,,,,,,,,,,,,,,,,,
,,6687ef6d11e0933961e2267f,2026-03-17_16h11.26.963,kallum_motion_pilot_GIST_update_2,2026.1.1,Win32,60.24096386,6687ef6d11e0933961e2267f,69b95efdef24cd8a694e89ee,69b960ba331938bbe5c7e3ed,0.0314,0.0314,1,24,186,19,1,twofour,,,,,,,,,,,,,,,,,,,,,,,,,,,,,,,,,,,,,,,,,,,,,,,,,,,,,,,,,,,,,,,,,,,,,,,,,,,,,,,,,,,,,,,,,,,,,,,,,,,,,,,,,,,,,,,,,,,,,,,,,,,,,,,,,,,,,,,,,
,,6687ef6d11e0933961e2267f,2026-03-17_16h11.26.963,kallum_motion_pilot_GIST_update_2,2026.1.1,Win32,60.24096386,6687ef6d11e0933961e2267f,69b95efdef24cd8a694e89ee,69b960ba331938bbe5c7e3ed,0.0315,0.0315,1,25,187,6,1,fourtwo,,,,,,,,,,,,,,,,,,,,,,,,,,,,,,,,,,,,,,,,,,,,,,,,,,,,,,,,,,,,,,,,,,,,,,,,,,,,,,,,,,,,,,,,,,,,,,,,,,,,,,,,,,,,,,,,,,,,,,,,,,,,,,,,,,,,,,,,,
,,6687ef6d11e0933961e2267f,2026-03-17_16h11.26.963,kallum_motion_pilot_GIST_update_2,2026.1.1,Win32,60.24096386,6687ef6d11e0933961e2267f,69b95efdef24cd8a694e89ee,69b960ba331938bbe5c7e3ed,0.0316,0.0316,1,26,188,107,1,sixeight,,,,,,,,,,,,,,,,,,,,,,,,,,,,,,,,,,,,,,,,,,,,,,,,,,,,,,,,,,,,,,,,,,,,,,,,,,,,,,,,,,,,,,,,,,,,,,,,,,,,,,,,,,,,,,,,,,,,,,,,,,,,,,,,,,,,,,,,,
,,6687ef6d11e0933961e2267f,2026-03-17_16h11.26.963,kallum_motion_pilot_GIST_update_2,2026.1.1,Win32,60.24096386,6687ef6d11e0933961e2267f,69b95efdef24cd8a694e89ee,69b960ba331938bbe5c7e3ed,0.0316,0.0316,1,27,189,110,1,eightsix,,,,,,,,,,,,,,,,,,,,,,,,,,,,,,,,,,,,,,,,,,,,,,,,,,,,,,,,,,,,,,,,,,,,,,,,,,,,,,,,,,,,,,,,,,,,,,,,,,,,,,,,,,,,,,,,,,,,,,,,,,,,,,,,,,,,,,,,,
,,6687ef6d11e0933961e2267f,2026-03-17_16h11.26.963,kallum_motion_pilot_GIST_update_2,2026.1.1,Win32,60.24096386,6687ef6d11e0933961e2267f,69b95efdef24cd8a694e89ee,69b960ba331938bbe5c7e3ed,0.0318,0.0318,1,28,190,77,1,threefour,,,,,,,,,,,,,,,,,,,,,,,,,,,,,,,,,,,,,,,,,,,,,,,,,,,,,,,,,,,,,,,,,,,,,,,,,,,,,,,,,,,,,,,,,,,,,,,,,,,,,,,,,,,,,,,,,,,,,,,,,,,,,,,,,,,,,,,,,
,,6687ef6d11e0933961e2267f,2026-03-17_16h11.26.963,kallum_motion_pilot_GIST_update_2,2026.1.1,Win32,60.24096386,6687ef6d11e0933961e2267f,69b95efdef24cd8a694e89ee,69b960ba331938bbe5c7e3ed,0.0318,0.0318,1,29,191,98,1,sixfive,,,,,,,,,,,,,,,,,,,,,,,,,,,,,,,,,,,,,,,,,,,,,,,,,,,,,,,,,,,,,,,,,,,,,,,,,,,,,,,,,,,,,,,,,,,,,,,,,,,,,,,,,,,,,,,,,,,,,,,,,,,,,,,,,,,,,,,,,
,,6687ef6d11e0933961e2267f,2026-03-17_16h11.26.963,kallum_motion_pilot_GIST_update_2,2026.1.1,Win32,60.24096386,6687ef6d11e0933961e2267f,69b95efdef24cd8a694e89ee,69b960ba331938bbe5c7e3ed,0.0319,0.0319,1,30,192,43,1,twofour,,,,,,,,,,,,,,,,,,,,,,,,,,,,,,,,,,,,,,,,,,,,,,,,,,,,,,,,,,,,,,,,,,,,,,,,,,,,,,,,,,,,,,,,,,,,,,,,,,,,,,,,,,,,,,,,,,,,,,,,,,,,,,,,,,,,,,,,,
,,6687ef6d11e0933961e2267f,2026-03-17_16h11.26.963,kallum_motion_pilot_GIST_update_2,2026.1.1,Win32,60.24096386,6687ef6d11e0933961e2267f,69b95efdef24cd8a694e89ee,69b960ba331938bbe5c7e3ed,0.032,0.032,1,31,193,151,1,eightseven,,,,,,,,,,,,,,,,,,,,,,,,,,,,,,,,,,,,,,,,,,,,,,,,,,,,,,,,,,,,,,,,,,,,,,,,,,,,,,,,,,,,,,,,,,,,,,,,,,,,,,,,,,,,,,,,,,,,,,,,,,,,,,,,,,,,,,,,,
,,6687ef6d11e0933961e2267f,2026-03-17_16h11.26.963,kallum_motion_pilot_GIST_update_2,2026.1.1,Win32,60.24096386,6687ef6d11e0933961e2267f,69b95efdef24cd8a694e89ee,69b960ba331938bbe5c7e3ed,0.032,0.032,1,32,194,93,1,seveneight,,,,,,,,,,,,,,,,,,,,,,,,,,,,,,,,,,,,,,,,,,,,,,,,,,,,,,,,,,,,,,,,,,,,,,,,,,,,,,,,,,,,,,,,,,,,,,,,,,,,,,,,,,,,,,,,,,,,,,,,,,,,,,,,,,,,,,,,,
,,6687ef6d11e0933961e2267f,2026-03-17_16h11.26.963,kallum_motion_pilot_GIST_update_2,2026.1.1,Win32,60.24096386,6687ef6d11e0933961e2267f,69b95efdef24cd8a694e89ee,69b960ba331938bbe5c7e3ed,0.0321,0.0321,1,33,195,138,1,sixfive,,,,,,,,,,,,,,,,,,,,,,,,,,,,,,,,,,,,,,,,,,,,,,,,,,,,,,,,,,,,,,,,,,,,,,,,,,,,,,,,,,,,,,,,,,,,,,,,,,,,,,,,,,,,,,,,,,,,,,,,,,,,,,,,,,,,,,,,,
,,6687ef6d11e0933961e2267f,2026-03-17_16h11.26.963,kallum_motion_pilot_GIST_update_2,2026.1.1,Win32,60.24096386,6687ef6d11e0933961e2267f,69b95efdef24cd8a694e89ee,69b960ba331938bbe5c7e3ed,0.0322,0.0322,1,34,196,112,1,fivesix,,,,,,,,,,,,,,,,,,,,,,,,,,,,,,,,,,,,,,,,,,,,,,,,,,,,,,,,,,,,,,,,,,,,,,,,,,,,,,,,,,,,,,,,,,,,,,,,,,,,,,,,,,,,,,,,,,,,,,,,,,,,,,,,,,,,,,,,,
,,6687ef6d11e0933961e2267f,2026-03-17_16h11.26.963,kallum_motion_pilot_GIST_update_2,2026.1.1,Win32,60.24096386,6687ef6d11e0933961e2267f,69b95efdef24cd8a694e89ee,69b960ba331938bbe5c7e3ed,0.0323,0.0323,1,35,197,149,1,seveneight,,,,,,,,,,,,,,,,,,,,,,,,,,,,,,,,,,,,,,,,,,,,,,,,,,,,,,,,,,,,,,,,,,,,,,,,,,,,,,,,,,,,,,,,,,,,,,,,,,,,,,,,,,,,,,,,,,,,,,,,,,,,,,,,,,,,,,,,,
,,6687ef6d11e0933961e2267f,2026-03-17_16h11.26.963,kallum_motion_pilot_GIST_update_2,2026.1.1,Win32,60.24096386,6687ef6d11e0933961e2267f,69b95efdef24cd8a694e89ee,69b960ba331938bbe5c7e3ed,0.0323,0.0323,1,36,198,80,1,fivesix,,,,,,,,,,,,,,,,,,,,,,,,,,,,,,,,,,,,,,,,,,,,,,,,,,,,,,,,,,,,,,,,,,,,,,,,,,,,,,,,,,,,,,,,,,,,,,,,,,,,,,,,,,,,,,,,,,,,,,,,,,,,,,,,,,,,,,,,,
,,6687ef6d11e0933961e2267f,2026-03-17_16h11.26.963,kallum_motion_pilot_GIST_update_2,2026.1.1,Win32,60.24096386,6687ef6d11e0933961e2267f,69b95efdef24cd8a694e89ee,69b960ba331938bbe5c7e3ed,0.0324,0.0324,1,37,199,121,1,fiveseven,,,,,,,,,,,,,,,,,,,,,,,,,,,,,,,,,,,,,,,,,,,,,,,,,,,,,,,,,,,,,,,,,,,,,,,,,,,,,,,,,,,,,,,,,,,,,,,,,,,,,,,,,,,,,,,,,,,,,,,,,,,,,,,,,,,,,,,,,
,,6687ef6d11e0933961e2267f,2026-03-17_16h11.26.963,kallum_motion_pilot_GIST_update_2,2026.1.1,Win32,60.24096386,6687ef6d11e0933961e2267f,69b95efdef24cd8a694e89ee,69b960ba331938bbe5c7e3ed,0.0325,0.0325,1,38,200,23,1,fourthree,,,,,,,,,,,,,,,,,,,,,,,,,,,,,,,,,,,,,,,,,,,,,,,,,,,,,,,,,,,,,,,,,,,,,,,,,,,,,,,,,,,,,,,,,,,,,,,,,,,,,,,,,,,,,,,,,,,,,,,,,,,,,,,,,,,,,,,,,
,,6687ef6d11e0933961e2267f,2026-03-17_16h11.26.963,kallum_motion_pilot_GIST_update_2,2026.1.1,Win32,60.24096386,6687ef6d11e0933961e2267f,69b95efdef24cd8a694e89ee,69b960ba331938bbe5c7e3ed,0.0325,0.0325,1,39,201,153,1,fiveseven,,,,,,,,,,,,,,,,,,,,,,,,,,,,,,,,,,,,,,,,,,,,,,,,,,,,,,,,,,,,,,,,,,,,,,,,,,,,,,,,,,,,,,,,,,,,,,,,,,,,,,,,,,,,,,,,,,,,,,,,,,,,,,,,,,,,,,,,,
,,6687ef6d11e0933961e2267f,2026-03-17_16h11.26.963,kallum_motion_pilot_GIST_update_2,2026.1.1,Win32,60.24096386,6687ef6d11e0933961e2267f,69b95efdef24cd8a694e89ee,69b960ba331938bbe5c7e3ed,0.0326,0.0326,1,40,202,156,1,sevenfive,,,,,,,,,,,,,,,,,,,,,,,,,,,,,,,,,,,,,,,,,,,,,,,,,,,,,,,,,,,,,,,,,,,,,,,,,,,,,,,,,,,,,,,,,,,,,,,,,,,,,,,,,,,,,,,,,,,,,,,,,,,,,,,,,,,,,,,,,
,,6687ef6d11e0933961e2267f,2026-03-17_16h11.26.963,kallum_motion_pilot_GIST_update_2,2026.1.1,Win32,60.24096386,6687ef6d11e0933961e2267f,69b95efdef24cd8a694e89ee,69b960ba331938bbe5c7e3ed,0.0327,0.0327,1,41,203,9,1,onethree,,,,,,,,,,,,,,,,,,,,,,,,,,,,,,,,,,,,,,,,,,,,,,,,,,,,,,,,,,,,,,,,,,,,,,,,,,,,,,,,,,,,,,,,,,,,,,,,,,,,,,,,,,,,,,,,,,,,,,,,,,,,,,,,,,,,,,,,,
,,6687ef6d11e0933961e2267f,2026-03-17_16h11.26.963,kallum_motion_pilot_GIST_update_2,2026.1.1,Win32,60.24096386,6687ef6d11e0933961e2267f,69b95efdef24cd8a694e89ee,69b960ba331938bbe5c7e3ed,0.0328,0.0328,1,42,204,127,1,eightseven,,,,,,,,,,,,,,,,,,,,,,,,,,,,,,,,,,,,,,,,,,,,,,,,,,,,,,,,,,,,,,,,,,,,,,,,,,,,,,,,,,,,,,,,,,,,,,,,,,,,,,,,,,,,,,,,,,,,,,,,,,,,,,,,,,,,,,,,,
,,6687ef6d11e0933961e2267f,2026-03-17_16h11.26.963,kallum_motion_pilot_GIST_update_2,2026.1.1,Win32,60.24096386,6687ef6d11e0933961e2267f,69b95efdef24cd8a694e89ee,69b960ba331938bbe5c7e3ed,0.0328,0.0328,1,43,205,135,1,eightseven,,,,,,,,,,,,,,,,,,,,,,,,,,,,,,,,,,,,,,,,,,,,,,,,,,,,,,,,,,,,,,,,,,,,,,,,,,,,,,,,,,,,,,,,,,,,,,,,,,,,,,,,,,,,,,,,,,,,,,,,,,,,,,,,,,,,,,,,,
,,6687ef6d11e0933961e2267f,2026-03-17_16h11.26.963,kallum_motion_pilot_GIST_update_2,2026.1.1,Win32,60.24096386,6687ef6d11e0933961e2267f,69b95efdef24cd8a694e89ee,69b960ba331938bbe5c7e3ed,0.0329,0.0329,1,44,206,48,1,onetwo,,,,,,,,,,,,,,,,,,,,,,,,,,,,,,,,,,,,,,,,,,,,,,,,,,,,,,,,,,,,,,,,,,,,,,,,,,,,,,,,,,,,,,,,,,,,,,,,,,,,,,,,,,,,,,,,,,,,,,,,,,,,,,,,,,,,,,,,,
,,6687ef6d11e0933961e2267f,2026-03-17_16h11.26.963,kallum_motion_pilot_GIST_update_2,2026.1.1,Win32,60.24096386,6687ef6d11e0933961e2267f,69b95efdef24cd8a694e89ee,69b960ba331938bbe5c7e3ed,0.033,0.033,1,45,207,125,1,seveneight,,,,,,,,,,,,,,,,,,,,,,,,,,,,,,,,,,,,,,,,,,,,,,,,,,,,,,,,,,,,,,,,,,,,,,,,,,,,,,,,,,,,,,,,,,,,,,,,,,,,,,,,,,,,,,,,,,,,,,,,,,,,,,,,,,,,,,,,,
,,6687ef6d11e0933961e2267f,2026-03-17_16h11.26.963,kallum_motion_pilot_GIST_update_2,2026.1.1,Win32,60.24096386,6687ef6d11e0933961e2267f,69b95efdef24cd8a694e89ee,69b960ba331938bbe5c7e3ed,0.033,0.033,1,46,208,91,1,sixeight,,,,,,,,,,,,,,,,,,,,,,,,,,,,,,,,,,,,,,,,,,,,,,,,,,,,,,,,,,,,,,,,,,,,,,,,,,,,,,,,,,,,,,,,,,,,,,,,,,,,,,,,,,,,,,,,,,,,,,,,,,,,,,,,,,,,,,,,,
,,6687ef6d11e0933961e2267f,2026-03-17_16h11.26.963,kallum_motion_pilot_GIST_update_2,2026.1.1,Win32,60.24096386,6687ef6d11e0933961e2267f,69b95efdef24cd8a694e89ee,69b960ba331938bbe5c7e3ed,0.0331,0.0331,1,47,209,57,1,onethree,,,,,,,,,,,,,,,,,,,,,,,,,,,,,,,,,,,,,,,,,,,,,,,,,,,,,,,,,,,,,,,,,,,,,,,,,,,,,,,,,,,,,,,,,,,,,,,,,,,,,,,,,,,,,,,,,,,,,,,,,,,,,,,,,,,,,,,,,
,,6687ef6d11e0933961e2267f,2026-03-17_16h11.26.963,kallum_motion_pilot_GIST_update_2,2026.1.1,Win32,60.24096386,6687ef6d11e0933961e2267f,69b95efdef24cd8a694e89ee,69b960ba331938bbe5c7e3ed,0.0331,0.0331,1,48,210,7,1,fourthree,,,,,,,,,,,,,,,,,,,,,,,,,,,,,,,,,,,,,,,,,,,,,,,,,,,,,,,,,,,,,,,,,,,,,,,,,,,,,,,,,,,,,,,,,,,,,,,,,,,,,,,,,,,,,,,,,,,,,,,,,,,,,,,,,,,,,,,,,
,,6687ef6d11e0933961e2267f,2026-03-17_16h11.26.963,kallum_motion_pilot_GIST_update_2,2026.1.1,Win32,60.24096386,6687ef6d11e0933961e2267f,69b95efdef24cd8a694e89ee,69b960ba331938bbe5c7e3ed,0.0333,0.0333,1,49,211,81,1,fiveseven,,,,,,,,,,,,,,,,,,,,,,,,,,,,,,,,,,,,,,,,,,,,,,,,,,,,,,,,,,,,,,,,,,,,,,,,,,,,,,,,,,,,,,,,,,,,,,,,,,,,,,,,,,,,,,,,,,,,,,,,,,,,,,,,,,,,,,,,,
,,6687ef6d11e0933961e2267f,2026-03-17_16h11.26.963,kallum_motion_pilot_GIST_update_2,2026.1.1,Win32,60.24096386,6687ef6d11e0933961e2267f,69b95efdef24cd8a694e89ee,69b960ba331938bbe5c7e3ed,0.0334,0.0334,1,50,212,109,1,seveneight,,,,,,,,,,,,,,,,,,,,,,,,,,,,,,,,,,,,,,,,,,,,,,,,,,,,,,,,,,,,,,,,,,,,,,,,,,,,,,,,,,,,,,,,,,,,,,,,,,,,,,,,,,,,,,,,,,,,,,,,,,,,,,,,,,,,,,,,,
,,6687ef6d11e0933961e2267f,2026-03-17_16h11.26.963,kallum_motion_pilot_GIST_update_2,2026.1.1,Win32,60.24096386,6687ef6d11e0933961e2267f,69b95efdef24cd8a694e89ee,69b960ba331938bbe5c7e3ed,0.0334,0.0334,1,51,213,71,1,fourthree,,,,,,,,,,,,,,,,,,,,,,,,,,,,,,,,,,,,,,,,,,,,,,,,,,,,,,,,,,,,,,,,,,,,,,,,,,,,,,,,,,,,,,,,,,,,,,,,,,,,,,,,,,,,,,,,,,,,,,,,,,,,,,,,,,,,,,,,,
,,6687ef6d11e0933961e2267f,2026-03-17_16h11.26.963,kallum_motion_pilot_GIST_update_2,2026.1.1,Win32,60.24096386,6687ef6d11e0933961e2267f,69b95efdef24cd8a694e89ee,69b960ba331938bbe5c7e3ed,0.0334,0.0334,1,52,214,45,1,threefour,,,,,,,,,,,,,,,,,,,,,,,,,,,,,,,,,,,,,,,,,,,,,,,,,,,,,,,,,,,,,,,,,,,,,,,,,,,,,,,,,,,,,,,,,,,,,,,,,,,,,,,,,,,,,,,,,,,,,,,,,,,,,,,,,,,,,,,,,
,,6687ef6d11e0933961e2267f,2026-03-17_16h11.26.963,kallum_motion_pilot_GIST_update_2,2026.1.1,Win32,60.24096386,6687ef6d11e0933961e2267f,69b95efdef24cd8a694e89ee,69b960ba331938bbe5c7e3ed,0.0336,0.0336,1,53,215,118,1,eightsix,,,,,,,,,,,,,,,,,,,,,,,,,,,,,,,,,,,,,,,,,,,,,,,,,,,,,,,,,,,,,,,,,,,,,,,,,,,,,,,,,,,,,,,,,,,,,,,,,,,,,,,,,,,,,,,,,,,,,,,,,,,,,,,,,,,,,,,,,
,,6687ef6d11e0933961e2267f,2026-03-17_16h11.26.963,kallum_motion_pilot_GIST_update_2,2026.1.1,Win32,60.24096386,6687ef6d11e0933961e2267f,69b95efdef24cd8a694e89ee,69b960ba331938bbe5c7e3ed,0.0336,0.0336,1,54,216,53,1,threefour,,,,,,,,,,,,,,,,,,,,,,,,,,,,,,,,,,,,,,,,,,,,,,,,,,,,,,,,,,,,,,,,,,,,,,,,,,,,,,,,,,,,,,,,,,,,,,,,,,,,,,,,,,,,,,,,,,,,,,,,,,,,,,,,,,,,,,,,,
,,6687ef6d11e0933961e2267f,2026-03-17_16h11.26.963,kallum_motion_pilot_GIST_update_2,2026.1.1,Win32,60.24096386,6687ef6d11e0933961e2267f,69b95efdef24cd8a694e89ee,69b960ba331938bbe5c7e3ed,0.0337,0.0337,1,55,217,114,1,sixfive,,,,,,,,,,,,,,,,,,,,,,,,,,,,,,,,,,,,,,,,,,,,,,,,,,,,,,,,,,,,,,,,,,,,,,,,,,,,,,,,,,,,,,,,,,,,,,,,,,,,,,,,,,,,,,,,,,,,,,,,,,,,,,,,,,,,,,,,,
,,6687ef6d11e0933961e2267f,2026-03-17_16h11.26.963,kallum_motion_pilot_GIST_update_2,2026.1.1,Win32,60.24096386,6687ef6d11e0933961e2267f,69b95efdef24cd8a694e89ee,69b960ba331938bbe5c7e3ed,0.0337,0.0337,1,56,218,128,1,fivesix,,,,,,,,,,,,,,,,,,,,,,,,,,,,,,,,,,,,,,,,,,,,,,,,,,,,,,,,,,,,,,,,,,,,,,,,,,,,,,,,,,,,,,,,,,,,,,,,,,,,,,,,,,,,,,,,,,,,,,,,,,,,,,,,,,,,,,,,,
,,6687ef6d11e0933961e2267f,2026-03-17_16h11.26.963,kallum_motion_pilot_GIST_update_2,2026.1.1,Win32,60.24096386,6687ef6d11e0933961e2267f,69b95efdef24cd8a694e89ee,69b960ba331938bbe5c7e3ed,0.0338,0.0338,1,57,219,122,1,sixfive,,,,,,,,,,,,,,,,,,,,,,,,,,,,,,,,,,,,,,,,,,,,,,,,,,,,,,,,,,,,,,,,,,,,,,,,,,,,,,,,,,,,,,,,,,,,,,,,,,,,,,,,,,,,,,,,,,,,,,,,,,,,,,,,,,,,,,,,,
,,6687ef6d11e0933961e2267f,2026-03-17_16h11.26.963,kallum_motion_pilot_GIST_update_2,2026.1.1,Win32,60.24096386,6687ef6d11e0933961e2267f,69b95efdef24cd8a694e89ee,69b960ba331938bbe5c7e3ed,0.0339,0.0339,1,58,220,144,1,fivesix,,,,,,,,,,,,,,,,,,,,,,,,,,,,,,,,,,,,,,,,,,,,,,,,,,,,,,,,,,,,,,,,,,,,,,,,,,,,,,,,,,,,,,,,,,,,,,,,,,,,,,,,,,,,,,,,,,,,,,,,,,,,,,,,,,,,,,,,,
,,6687ef6d11e0933961e2267f,2026-03-17_16h11.26.963,kallum_motion_pilot_GIST_update_2,2026.1.1,Win32,60.24096386,6687ef6d11e0933961e2267f,69b95efdef24cd8a694e89ee,69b960ba331938bbe5c7e3ed,0.0339,0.0339,1,59,221,76,1,threeone,,,,,,,,,,,,,,,,,,,,,,,,,,,,,,,,,,,,,,,,,,,,,,,,,,,,,,,,,,,,,,,,,,,,,,,,,,,,,,,,,,,,,,,,,,,,,,,,,,,,,,,,,,,,,,,,,,,,,,,,,,,,,,,,,,,,,,,,,
,,6687ef6d11e0933961e2267f,2026-03-17_16h11.26.963,kallum_motion_pilot_GIST_update_2,2026.1.1,Win32,60.24096386,6687ef6d11e0933961e2267f,69b95efdef24cd8a694e89ee,69b960ba331938bbe5c7e3ed,0.034,0.034,1,60,222,24,1,onetwo,,,,,,,,,,,,,,,,,,,,,,,,,,,,,,,,,,,,,,,,,,,,,,,,,,,,,,,,,,,,,,,,,,,,,,,,,,,,,,,,,,,,,,,,,,,,,,,,,,,,,,,,,,,,,,,,,,,,,,,,,,,,,,,,,,,,,,,,,
,,6687ef6d11e0933961e2267f,2026-03-17_16h11.26.963,kallum_motion_pilot_GIST_update_2,2026.1.1,Win32,60.24096386,6687ef6d11e0933961e2267f,69b95efdef24cd8a694e89ee,69b960ba331938bbe5c7e3ed,0.0341,0.0341,1,61,223,69,1,threefour,,,,,,,,,,,,,,,,,,,,,,,,,,,,,,,,,,,,,,,,,,,,,,,,,,,,,,,,,,,,,,,,,,,,,,,,,,,,,,,,,,,,,,,,,,,,,,,,,,,,,,,,,,,,,,,,,,,,,,,,,,,,,,,,,,,,,,,,,
,,6687ef6d11e0933961e2267f,2026-03-17_16h11.26.963,kallum_motion_pilot_GIST_update_2,2026.1.1,Win32,60.24096386,6687ef6d11e0933961e2267f,69b95efdef24cd8a694e89ee,69b960ba331938bbe5c7e3ed,0.0342,0.0342,1,62,224,55,1,fourthree,,,,,,,,,,,,,,,,,,,,,,,,,,,,,,,,,,,,,,,,,,,,,,,,,,,,,,,,,,,,,,,,,,,,,,,,,,,,,,,,,,,,,,,,,,,,,,,,,,,,,,,,,,,,,,,,,,,,,,,,,,,,,,,,,,,,,,,,,
,,6687ef6d11e0933961e2267f,2026-03-17_16h11.26.963,kallum_motion_pilot_GIST_update_2,2026.1.1,Win32,60.24096386,6687ef6d11e0933961e2267f,69b95efdef24cd8a694e89ee,69b960ba331938bbe5c7e3ed,0.0342,0.0342,1,63,225,5,1,threefour,,,,,,,,,,,,,,,,,,,,,,,,,,,,,,,,,,,,,,,,,,,,,,,,,,,,,,,,,,,,,,,,,,,,,,,,,,,,,,,,,,,,,,,,,,,,,,,,,,,,,,,,,,,,,,,,,,,,,,,,,,,,,,,,,,,,,,,,,
,,6687ef6d11e0933961e2267f,2026-03-17_16h11.26.963,kallum_motion_pilot_GIST_update_2,2026.1.1,Win32,60.24096386,6687ef6d11e0933961e2267f,69b95efdef24cd8a694e89ee,69b960ba331938bbe5c7e3ed,0.0343,0.0343,1,64,226,29,1,threefour,,,,,,,,,,,,,,,,,,,,,,,,,,,,,,,,,,,,,,,,,,,,,,,,,,,,,,,,,,,,,,,,,,,,,,,,,,,,,,,,,,,,,,,,,,,,,,,,,,,,,,,,,,,,,,,,,,,,,,,,,,,,,,,,,,,,,,,,,
,,6687ef6d11e0933961e2267f,2026-03-17_16h11.26.963,kallum_motion_pilot_GIST_update_2,2026.1.1,Win32,60.24096386,6687ef6d11e0933961e2267f,69b95efdef24cd8a694e89ee,69b960ba331938bbe5c7e3ed,0.0344,0.0344,1,65,227,46,1,fourtwo,,,,,,,,,,,,,,,,,,,,,,,,,,,,,,,,,,,,,,,,,,,,,,,,,,,,,,,,,,,,,,,,,,,,,,,,,,,,,,,,,,,,,,,,,,,,,,,,,,,,,,,,,,,,,,,,,,,,,,,,,,,,,,,,,,,,,,,,,
,,6687ef6d11e0933961e2267f,2026-03-17_16h11.26.963,kallum_motion_pilot_GIST_update_2,2026.1.1,Win32,60.24096386,6687ef6d11e0933961e2267f,69b95efdef24cd8a694e89ee,69b960ba331938bbe5c7e3ed,0.0344,0.0344,1,66,228,54,1,fourtwo,,,,,,,,,,,,,,,,,,,,,,,,,,,,,,,,,,,,,,,,,,,,,,,,,,,,,,,,,,,,,,,,,,,,,,,,,,,,,,,,,,,,,,,,,,,,,,,,,,,,,,,,,,,,,,,,,,,,,,,,,,,,,,,,,,,,,,,,,
,,6687ef6d11e0933961e2267f,2026-03-17_16h11.26.963,kallum_motion_pilot_GIST_update_2,2026.1.1,Win32,60.24096386,6687ef6d11e0933961e2267f,69b95efdef24cd8a694e89ee,69b960ba331938bbe5c7e3ed,0.0346,0.0346,1,67,229,33,1,onethree,,,,,,,,,,,,,,,,,,,,,,,,,,,,,,,,,,,,,,,,,,,,,,,,,,,,,,,,,,,,,,,,,,,,,,,,,,,,,,,,,,,,,,,,,,,,,,,,,,,,,,,,,,,,,,,,,,,,,,,,,,,,,,,,,,,,,,,,,
,,6687ef6d11e0933961e2267f,2026-03-17_16h11.26.963,kallum_motion_pilot_GIST_update_2,2026.1.1,Win32,60.24096386,6687ef6d11e0933961e2267f,69b95efdef24cd8a694e89ee,69b960ba331938bbe5c7e3ed,0.0347,0.0347,1,68,230,52,1,threeone,,,,,,,,,,,,,,,,,,,,,,,,,,,,,,,,,,,,,,,,,,,,,,,,,,,,,,,,,,,,,,,,,,,,,,,,,,,,,,,,,,,,,,,,,,,,,,,,,,,,,,,,,,,,,,,,,,,,,,,,,,,,,,,,,,,,,,,,,
,,6687ef6d11e0933961e2267f,2026-03-17_16h11.26.963,kallum_motion_pilot_GIST_update_2,2026.1.1,Win32,60.24096386,6687ef6d11e0933961e2267f,69b95efdef24cd8a694e89ee,69b960ba331938bbe5c7e3ed,0.0347,0.0347,1,69,231,62,1,fourtwo,,,,,,,,,,,,,,,,,,,,,,,,,,,,,,,,,,,,,,,,,,,,,,,,,,,,,,,,,,,,,,,,,,,,,,,,,,,,,,,,,,,,,,,,,,,,,,,,,,,,,,,,,,,,,,,,,,,,,,,,,,,,,,,,,,,,,,,,,
,,6687ef6d11e0933961e2267f,2026-03-17_16h11.26.963,kallum_motion_pilot_GIST_update_2,2026.1.1,Win32,60.24096386,6687ef6d11e0933961e2267f,69b95efdef24cd8a694e89ee,69b960ba331938bbe5c7e3ed,0.0348,0.0348,1,70,232,101,1,seveneight,,,,,,,,,,,,,,,,,,,,,,,,,,,,,,,,,,,,,,,,,,,,,,,,,,,,,,,,,,,,,,,,,,,,,,,,,,,,,,,,,,,,,,,,,,,,,,,,,,,,,,,,,,,,,,,,,,,,,,,,,,,,,,,,,,,,,,,,,
,,6687ef6d11e0933961e2267f,2026-03-17_16h11.26.963,kallum_motion_pilot_GIST_update_2,2026.1.1,Win32,60.24096386,6687ef6d11e0933961e2267f,69b95efdef24cd8a694e89ee,69b960ba331938bbe5c7e3ed,0.0349,0.0349,1,71,233,137,1,fiveseven,,,,,,,,,,,,,,,,,,,,,,,,,,,,,,,,,,,,,,,,,,,,,,,,,,,,,,,,,,,,,,,,,,,,,,,,,,,,,,,,,,,,,,,,,,,,,,,,,,,,,,,,,,,,,,,,,,,,,,,,,,,,,,,,,,,,,,,,,
,,6687ef6d11e0933961e2267f,2026-03-17_16h11.26.963,kallum_motion_pilot_GIST_update_2,2026.1.1,Win32,60.24096386,6687ef6d11e0933961e2267f,69b95efdef24cd8a694e89ee,69b960ba331938bbe5c7e3ed,0.0349,0.0349,1,72,234,34,1,twoone,,,,,,,,,,,,,,,,,,,,,,,,,,,,,,,,,,,,,,,,,,,,,,,,,,,,,,,,,,,,,,,,,,,,,,,,,,,,,,,,,,,,,,,,,,,,,,,,,,,,,,,,,,,,,,,,,,,,,,,,,,,,,,,,,,,,,,,,,
,,6687ef6d11e0933961e2267f,2026-03-17_16h11.26.963,kallum_motion_pilot_GIST_update_2,2026.1.1,Win32,60.24096386,6687ef6d11e0933961e2267f,69b95efdef24cd8a694e89ee,69b960ba331938bbe5c7e3ed,0.035,0.035,1,73,235,78,1,fourtwo,,,,,,,,,,,,,,,,,,,,,,,,,,,,,,,,,,,,,,,,,,,,,,,,,,,,,,,,,,,,,,,,,,,,,,,,,,,,,,,,,,,,,,,,,,,,,,,,,,,,,,,,,,,,,,,,,,,,,,,,,,,,,,,,,,,,,,,,,
,,6687ef6d11e0933961e2267f,2026-03-17_16h11.26.963,kallum_motion_pilot_GIST_update_2,2026.1.1,Win32,60.24096386,6687ef6d11e0933961e2267f,69b95efdef24cd8a694e89ee,69b960ba331938bbe5c7e3ed,0.0351,0.0351,1,74,236,44,1,threeone,,,,,,,,,,,,,,,,,,,,,,,,,,,,,,,,,,,,,,,,,,,,,,,,,,,,,,,,,,,,,,,,,,,,,,,,,,,,,,,,,,,,,,,,,,,,,,,,,,,,,,,,,,,,,,,,,,,,,,,,,,,,,,,,,,,,,,,,,
,,6687ef6d11e0933961e2267f,2026-03-17_16h11.26.963,kallum_motion_pilot_GIST_update_2,2026.1.1,Win32,60.24096386,6687ef6d11e0933961e2267f,69b95efdef24cd8a694e89ee,69b960ba331938bbe5c7e3ed,0.0352,0.0352,1,75,237,13,1,threefour,,,,,,,,,,,,,,,,,,,,,,,,,,,,,,,,,,,,,,,,,,,,,,,,,,,,,,,,,,,,,,,,,,,,,,,,,,,,,,,,,,,,,,,,,,,,,,,,,,,,,,,,,,,,,,,,,,,,,,,,,,,,,,,,,,,,,,,,,
,,6687ef6d11e0933961e2267f,2026-03-17_16h11.26.963,kallum_motion_pilot_GIST_update_2,2026.1.1,Win32,60.24096386,6687ef6d11e0933961e2267f,69b95efdef24cd8a694e89ee,69b960ba331938bbe5c7e3ed,0.0352,0.0352,1,76,238,14,1,fourtwo,,,,,,,,,,,,,,,,,,,,,,,,,,,,,,,,,,,,,,,,,,,,,,,,,,,,,,,,,,,,,,,,,,,,,,,,,,,,,,,,,,,,,,,,,,,,,,,,,,,,,,,,,,,,,,,,,,,,,,,,,,,,,,,,,,,,,,,,,
,,6687ef6d11e0933961e2267f,2026-03-17_16h11.26.963,kallum_motion_pilot_GIST_update_2,2026.1.1,Win32,60.24096386,6687ef6d11e0933961e2267f,69b95efdef24cd8a694e89ee,69b960ba331938bbe5c7e3ed,0.0354,0.0354,1,77,239,106,1,sixfive,,,,,,,,,,,,,,,,,,,,,,,,,,,,,,,,,,,,,,,,,,,,,,,,,,,,,,,,,,,,,,,,,,,,,,,,,,,,,,,,,,,,,,,,,,,,,,,,,,,,,,,,,,,,,,,,,,,,,,,,,,,,,,,,,,,,,,,,,
,,6687ef6d11e0933961e2267f,2026-03-17_16h11.26.963,kallum_motion_pilot_GIST_update_2,2026.1.1,Win32,60.24096386,6687ef6d11e0933961e2267f,69b95efdef24cd8a694e89ee,69b960ba331938bbe5c7e3ed,0.0356,0.0356,1,78,240,84,1,sevenfive,,,,,,,,,,,,,,,,,,,,,,,,,,,,,,,,,,,,,,,,,,,,,,,,,,,,,,,,,,,,,,,,,,,,,,,,,,,,,,,,,,,,,,,,,,,,,,,,,,,,,,,,,,,,,,,,,,,,,,,,,,,,,,,,,,,,,,,,,
,,6687ef6d11e0933961e2267f,2026-03-17_16h11.26.963,kallum_motion_pilot_GIST_update_2,2026.1.1,Win32,60.24096386,6687ef6d11e0933961e2267f,69b95efdef24cd8a694e89ee,69b960ba331938bbe5c7e3ed,0.0357,0.0357,1,79,241,60,1,threeone,,,,,,,,,,,,,,,,,,,,,,,,,,,,,,,,,,,,,,,,,,,,,,,,,,,,,,,,,,,,,,,,,,,,,,,,,,,,,,,,,,,,,,,,,,,,,,,,,,,,,,,,,,,,,,,,,,,,,,,,,,,,,,,,,,,,,,,,,
,,6687ef6d11e0933961e2267f,2026-03-17_16h11.26.963,kallum_motion_pilot_GIST_update_2,2026.1.1,Win32,60.24096386,6687ef6d11e0933961e2267f,69b95efdef24cd8a694e89ee,69b960ba331938bbe5c7e3ed,0.0359,0.0359,1,80,242,129,1,fiveseven,,,,,,,,,,,,,,,,,,,,,,,,,,,,,,,,,,,,,,,,,,,,,,,,,,,,,,,,,,,,,,,,,,,,,,,,,,,,,,,,,,,,,,,,,,,,,,,,,,,,,,,,,,,,,,,,,,,,,,,,,,,,,,,,,,,,,,,,,
,,6687ef6d11e0933961e2267f,2026-03-17_16h11.26.963,kallum_motion_pilot_GIST_update_2,2026.1.1,Win32,60.24096386,6687ef6d11e0933961e2267f,69b95efdef24cd8a694e89ee,69b960ba331938bbe5c7e3ed,0.0359,0.0359,1,81,243,49,1,onethree,,,,,,,,,,,,,,,,,,,,,,,,,,,,,,,,,,,,,,,,,,,,,,,,,,,,,,,,,,,,,,,,,,,,,,,,,,,,,,,,,,,,,,,,,,,,,,,,,,,,,,,,,,,,,,,,,,,,,,,,,,,,,,,,,,,,,,,,,
,,6687ef6d11e0933961e2267f,2026-03-17_16h11.26.963,kallum_motion_pilot_GIST_update_2,2026.1.1,Win32,60.24096386,6687ef6d11e0933961e2267f,69b95efdef24cd8a694e89ee,69b960ba331938bbe5c7e3ed,0.036,0.036,1,82,244,126,1,eightsix,,,,,,,,,,,,,,,,,,,,,,,,,,,,,,,,,,,,,,,,,,,,,,,,,,,,,,,,,,,,,,,,,,,,,,,,,,,,,,,,,,,,,,,,,,,,,,,,,,,,,,,,,,,,,,,,,,,,,,,,,,,,,,,,,,,,,,,,,
,,6687ef6d11e0933961e2267f,2026-03-17_16h11.26.963,kallum_motion_pilot_GIST_update_2,2026.1.1,Win32,60.24096386,6687ef6d11e0933961e2267f,69b95efdef24cd8a694e89ee,69b960ba331938bbe5c7e3ed,0.0361,0.0361,1,83,245,63,1,fourthree,,,,,,,,,,,,,,,,,,,,,,,,,,,,,,,,,,,,,,,,,,,,,,,,,,,,,,,,,,,,,,,,,,,,,,,,,,,,,,,,,,,,,,,,,,,,,,,,,,,,,,,,,,,,,,,,,,,,,,,,,,,,,,,,,,,,,,,,,
,,6687ef6d11e0933961e2267f,2026-03-17_16h11.26.963,kallum_motion_pilot_GIST_update_2,2026.1.1,Win32,60.24096386,6687ef6d11e0933961e2267f,69b95efdef24cd8a694e89ee,69b960ba331938bbe5c7e3ed,0.0361,0.0361,1,84,246,17,1,onethree,,,,,,,,,,,,,,,,,,,,,,,,,,,,,,,,,,,,,,,,,,,,,,,,,,,,,,,,,,,,,,,,,,,,,,,,,,,,,,,,,,,,,,,,,,,,,,,,,,,,,,,,,,,,,,,,,,,,,,,,,,,,,,,,,,,,,,,,,
,,6687ef6d11e0933961e2267f,2026-03-17_16h11.26.963,kallum_motion_pilot_GIST_update_2,2026.1.1,Win32,60.24096386,6687ef6d11e0933961e2267f,69b95efdef24cd8a694e89ee,69b960ba331938bbe5c7e3ed,0.0362,0.0362,1,85,247,8,1,onetwo,,,,,,,,,,,,,,,,,,,,,,,,,,,,,,,,,,,,,,,,,,,,,,,,,,,,,,,,,,,,,,,,,,,,,,,,,,,,,,,,,,,,,,,,,,,,,,,,,,,,,,,,,,,,,,,,,,,,,,,,,,,,,,,,,,,,,,,,,
,,6687ef6d11e0933961e2267f,2026-03-17_16h11.26.963,kallum_motion_pilot_GIST_update_2,2026.1.1,Win32,60.24096386,6687ef6d11e0933961e2267f,69b95efdef24cd8a694e89ee,69b960ba331938bbe5c7e3ed,0.0362,0.0362,1,86,248,59,1,twofour,,,,,,,,,,,,,,,,,,,,,,,,,,,,,,,,,,,,,,,,,,,,,,,,,,,,,,,,,,,,,,,,,,,,,,,,,,,,,,,,,,,,,,,,,,,,,,,,,,,,,,,,,,,,,,,,,,,,,,,,,,,,,,,,,,,,,,,,,
,,6687ef6d11e0933961e2267f,2026-03-17_16h11.26.963,kallum_motion_pilot_GIST_update_2,2026.1.1,Win32,60.24096386,6687ef6d11e0933961e2267f,69b95efdef24cd8a694e89ee,69b960ba331938bbe5c7e3ed,0.0364,0.0364,1,87,249,116,1,sevenfive,,,,,,,,,,,,,,,,,,,,,,,,,,,,,,,,,,,,,,,,,,,,,,,,,,,,,,,,,,,,,,,,,,,,,,,,,,,,,,,,,,,,,,,,,,,,,,,,,,,,,,,,,,,,,,,,,,,,,,,,,,,,,,,,,,,,,,,,,
,,6687ef6d11e0933961e2267f,2026-03-17_16h11.26.963,kallum_motion_pilot_GIST_update_2,2026.1.1,Win32,60.24096386,6687ef6d11e0933961e2267f,69b95efdef24cd8a694e89ee,69b960ba331938bbe5c7e3ed,0.0366,0.0366,1,88,250,133,1,seveneight,,,,,,,,,,,,,,,,,,,,,,,,,,,,,,,,,,,,,,,,,,,,,,,,,,,,,,,,,,,,,,,,,,,,,,,,,,,,,,,,,,,,,,,,,,,,,,,,,,,,,,,,,,,,,,,,,,,,,,,,,,,,,,,,,,,,,,,,,
,,6687ef6d11e0933961e2267f,2026-03-17_16h11.26.963,kallum_motion_pilot_GIST_update_2,2026.1.1,Win32,60.24096386,6687ef6d11e0933961e2267f,69b95efdef24cd8a694e89ee,69b960ba331938bbe5c7e3ed,0.0367,0.0367,1,89,251,16,1,onetwo,,,,,,,,,,,,,,,,,,,,,,,,,,,,,,,,,,,,,,,,,,,,,,,,,,,,,,,,,,,,,,,,,,,,,,,,,,,,,,,,,,,,,,,,,,,,,,,,,,,,,,,,,,,,,,,,,,,,,,,,,,,,,,,,,,,,,,,,,
,,6687ef6d11e0933961e2267f,2026-03-17_16h11.26.963,kallum_motion_pilot_GIST_update_2,2026.1.1,Win32,60.24096386,6687ef6d11e0933961e2267f,69b95efdef24cd8a694e89ee,69b960ba331938bbe5c7e3ed,0.0369,0.0369,1,90,252,123,1,sixeight,,,,,,,,,,,,,,,,,,,,,,,,,,,,,,,,,,,,,,,,,,,,,,,,,,,,,,,,,,,,,,,,,,,,,,,,,,,,,,,,,,,,,,,,,,,,,,,,,,,,,,,,,,,,,,,,,,,,,,,,,,,,,,,,,,,,,,,,,
,,6687ef6d11e0933961e2267f,2026-03-17_16h11.26.963,kallum_motion_pilot_GIST_update_2,2026.1.1,Win32,60.24096386,6687ef6d11e0933961e2267f,69b95efdef24cd8a694e89ee,69b960ba331938bbe5c7e3ed,0.037,0.037,1,91,253,148,1,sevenfive,,,,,,,,,,,,,,,,,,,,,,,,,,,,,,,,,,,,,,,,,,,,,,,,,,,,,,,,,,,,,,,,,,,,,,,,,,,,,,,,,,,,,,,,,,,,,,,,,,,,,,,,,,,,,,,,,,,,,,,,,,,,,,,,,,,,,,,,,
,,6687ef6d11e0933961e2267f,2026-03-17_16h11.26.963,kallum_motion_pilot_GIST_update_2,2026.1.1,Win32,60.24096386,6687ef6d11e0933961e2267f,69b95efdef24cd8a694e89ee,69b960ba331938bbe5c7e3ed,0.0372,0.0372,1,92,254,25,1,onethree,,,,,,,,,,,,,,,,,,,,,,,,,,,,,,,,,,,,,,,,,,,,,,,,,,,,,,,,,,,,,,,,,,,,,,,,,,,,,,,,,,,,,,,,,,,,,,,,,,,,,,,,,,,,,,,,,,,,,,,,,,,,,,,,,,,,,,,,,
,,6687ef6d11e0933961e2267f,2026-03-17_16h11.26.963,kallum_motion_pilot_GIST_update_2,2026.1.1,Win32,60.24096386,6687ef6d11e0933961e2267f,69b95efdef24cd8a694e89ee,69b960ba331938bbe5c7e3ed,0.0373,0.0373,1,93,255,105,1,fiveseven,,,,,,,,,,,,,,,,,,,,,,,,,,,,,,,,,,,,,,,,,,,,,,,,,,,,,,,,,,,,,,,,,,,,,,,,,,,,,,,,,,,,,,,,,,,,,,,,,,,,,,,,,,,,,,,,,,,,,,,,,,,,,,,,,,,,,,,,,
,,6687ef6d11e0933961e2267f,2026-03-17_16h11.26.963,kallum_motion_pilot_GIST_update_2,2026.1.1,Win32,60.24096386,6687ef6d11e0933961e2267f,69b95efdef24cd8a694e89ee,69b960ba331938bbe5c7e3ed,0.0375,0.0375,1,94,256,73,1,onethree,,,,,,,,,,,,,,,,,,,,,,,,,,,,,,,,,,,,,,,,,,,,,,,,,,,,,,,,,,,,,,,,,,,,,,,,,,,,,,,,,,,,,,,,,,,,,,,,,,,,,,,,,,,,,,,,,,,,,,,,,,,,,,,,,,,,,,,,,
,,6687ef6d11e0933961e2267f,2026-03-17_16h11.26.963,kallum_motion_pilot_GIST_update_2,2026.1.1,Win32,60.24096386,6687ef6d11e0933961e2267f,69b95efdef24cd8a694e89ee,69b960ba331938bbe5c7e3ed,0.0376,0.0376,1,95,257,155,1,sixeight,,,,,,,,,,,,,,,,,,,,,,,,,,,,,,,,,,,,,,,,,,,,,,,,,,,,,,,,,,,,,,,,,,,,,,,,,,,,,,,,,,,,,,,,,,,,,,,,,,,,,,,,,,,,,,,,,,,,,,,,,,,,,,,,,,,,,,,,,
,,6687ef6d11e0933961e2267f,2026-03-17_16h11.26.963,kallum_motion_pilot_GIST_update_2,2026.1.1,Win32,60.24096386,6687ef6d11e0933961e2267f,69b95efdef24cd8a694e89ee,69b960ba331938bbe5c7e3ed,0.0377,0.0377,1,96,258,139,1,sixeight,,,,,,,,,,,,,,,,,,,,,,,,,,,,,,,,,,,,,,,,,,,,,,,,,,,,,,,,,,,,,,,,,,,,,,,,,,,,,,,,,,,,,,,,,,,,,,,,,,,,,,,,,,,,,,,,,,,,,,,,,,,,,,,,,,,,,,,,,
,,6687ef6d11e0933961e2267f,2026-03-17_16h11.26.963,kallum_motion_pilot_GIST_update_2,2026.1.1,Win32,60.24096386,6687ef6d11e0933961e2267f,69b95efdef24cd8a694e89ee,69b960ba331938bbe5c7e3ed,0.0377,0.0377,1,97,259,119,1,eightseven,,,,,,,,,,,,,,,,,,,,,,,,,,,,,,,,,,,,,,,,,,,,,,,,,,,,,,,,,,,,,,,,,,,,,,,,,,,,,,,,,,,,,,,,,,,,,,,,,,,,,,,,,,,,,,,,,,,,,,,,,,,,,,,,,,,,,,,,,
,,6687ef6d11e0933961e2267f,2026-03-17_16h11.26.963,kallum_motion_pilot_GIST_update_2,2026.1.1,Win32,60.24096386,6687ef6d11e0933961e2267f,69b95efdef24cd8a694e89ee,69b960ba331938bbe5c7e3ed,0.0378,0.0378,1,98,260,102,1,eightsix,,,,,,,,,,,,,,,,,,,,,,,,,,,,,,,,,,,,,,,,,,,,,,,,,,,,,,,,,,,,,,,,,,,,,,,,,,,,,,,,,,,,,,,,,,,,,,,,,,,,,,,,,,,,,,,,,,,,,,,,,,,,,,,,,,,,,,,,,
,,6687ef6d11e0933961e2267f,2026-03-17_16h11.26.963,kallum_motion_pilot_GIST_update_2,2026.1.1,Win32,60.24096386,6687ef6d11e0933961e2267f,69b95efdef24cd8a694e89ee,69b960ba331938bbe5c7e3ed,0.0379,0.0379,1,99,261,70,1,fourtwo,,,,,,,,,,,,,,,,,,,,,,,,,,,,,,,,,,,,,,,,,,,,,,,,,,,,,,,,,,,,,,,,,,,,,,,,,,,,,,,,,,,,,,,,,,,,,,,,,,,,,,,,,,,,,,,,,,,,,,,,,,,,,,,,,,,,,,,,,
,,6687ef6d11e0933961e2267f,2026-03-17_16h11.26.963,kallum_motion_pilot_GIST_update_2,2026.1.1,Win32,60.24096386,6687ef6d11e0933961e2267f,69b95efdef24cd8a694e89ee,69b960ba331938bbe5c7e3ed,0.038,0.038,1,100,262,136,1,fivesix,,,,,,,,,,,,,,,,,,,,,,,,,,,,,,,,,,,,,,,,,,,,,,,,,,,,,,,,,,,,,,,,,,,,,,,,,,,,,,,,,,,,,,,,,,,,,,,,,,,,,,,,,,,,,,,,,,,,,,,,,,,,,,,,,,,,,,,,,
,,6687ef6d11e0933961e2267f,2026-03-17_16h11.26.963,kallum_motion_pilot_GIST_update_2,2026.1.1,Win32,60.24096386,6687ef6d11e0933961e2267f,69b95efdef24cd8a694e89ee,69b960ba331938bbe5c7e3ed,0.0381,0.0381,1,101,263,132,1,sevenfive,,,,,,,,,,,,,,,,,,,,,,,,,,,,,,,,,,,,,,,,,,,,,,,,,,,,,,,,,,,,,,,,,,,,,,,,,,,,,,,,,,,,,,,,,,,,,,,,,,,,,,,,,,,,,,,,,,,,,,,,,,,,,,,,,,,,,,,,,
,,6687ef6d11e0933961e2267f,2026-03-17_16h11.26.963,kallum_motion_pilot_GIST_update_2,2026.1.1,Win32,60.24096386,6687ef6d11e0933961e2267f,69b95efdef24cd8a694e89ee,69b960ba331938bbe5c7e3ed,0.0382,0.0382,1,102,264,20,1,threeone,,,,,,,,,,,,,,,,,,,,,,,,,,,,,,,,,,,,,,,,,,,,,,,,,,,,,,,,,,,,,,,,,,,,,,,,,,,,,,,,,,,,,,,,,,,,,,,,,,,,,,,,,,,,,,,,,,,,,,,,,,,,,,,,,,,,,,,,,
,,6687ef6d11e0933961e2267f,2026-03-17_16h11.26.963,kallum_motion_pilot_GIST_update_2,2026.1.1,Win32,60.24096386,6687ef6d11e0933961e2267f,69b95efdef24cd8a694e89ee,69b960ba331938bbe5c7e3ed,0.0384,0.0384,1,103,265,65,1,onethree,,,,,,,,,,,,,,,,,,,,,,,,,,,,,,,,,,,,,,,,,,,,,,,,,,,,,,,,,,,,,,,,,,,,,,,,,,,,,,,,,,,,,,,,,,,,,,,,,,,,,,,,,,,,,,,,,,,,,,,,,,,,,,,,,,,,,,,,,
,,6687ef6d11e0933961e2267f,2026-03-17_16h11.26.963,kallum_motion_pilot_GIST_update_2,2026.1.1,Win32,60.24096386,6687ef6d11e0933961e2267f,69b95efdef24cd8a694e89ee,69b960ba331938bbe5c7e3ed,0.0385,0.0385,1,104,266,143,1,eightseven,,,,,,,,,,,,,,,,,,,,,,,,,,,,,,,,,,,,,,,,,,,,,,,,,,,,,,,,,,,,,,,,,,,,,,,,,,,,,,,,,,,,,,,,,,,,,,,,,,,,,,,,,,,,,,,,,,,,,,,,,,,,,,,,,,,,,,,,,
