startup.started,startup.stopped,Prolific ID*,date,expName,psychopyVersion,OS,frameRate,participant,study_id,session,stimpositions.started,stimpositions.stopped,hardcoded_stimulus_positions.thisRepN,hardcoded_stimulus_positions.thisTrialN,hardcoded_stimulus_positions.thisN,hardcoded_stimulus_positions.thisIndex,hardcoded_stimulus_positions.ran,StimulusPos,stimorientation.started,stimorientation.stopped,prac_stimorientation_import_loop.thisRepN,prac_stimorientation_import_loop.thisTrialN,prac_stimorientation_import_loop.thisN,prac_stimorientation_import_loop.thisIndex,prac_stimorientation_import_loop.ran,Stimorientation,welcome_instr.started,welcome_instr.stopped,key_resp.keys,key_resp.rt,key_resp.duration,response_steppedout_1.started,response_steppedout_1.stopped,key_resp_20.keys,key_resp_20.rt,key_resp_20.duration,response_steppedout_2.started,response_steppedout_2.stopped,key_resp_19.keys,key_resp_19.rt,key_resp_19.duration,stim_response_instr.started,stim_response_instr.stopped,key_resp_15.keys,key_resp_15.rt,key_resp_15.duration,direction_instr_2.started,direction_instr_2.stopped,key_resp_9.keys,key_resp_9.rt,key_resp_9.duration,instr_prac.started,instr_prac.stopped,key_resp_10.keys,key_resp_10.rt,key_resp_10.duration,Stim1_display_prac.started,Stim1_display_prac.stopped,Ecc,Circle1_ori,Circle2_ori,response_prac.started,similarity,response_time,response_prac.stopped,mouse_5.x,mouse_5.y,mouse_5.leftButton,mouse_5.midButton,mouse_5.rightButton,mouse_5.clicked_name,responseprac_feedback.started,responseprac_feedback.stopped,summary2_prac.started,summary2_prac.stopped,mouse_6.x,mouse_6.y,mouse_6.leftButton,mouse_6.midButton,mouse_6.rightButton,mouse_6.clicked_name,duringprac.thisRepN,duringprac.thisTrialN,duringprac.thisN,duringprac.thisIndex,duringprac.ran,begin.started,begin.stopped,key_resp_22.keys,key_resp_22.rt,key_resp_22.duration,Stim1_display.started,Stim1_display.stopped,circle1_ori,circle2_ori,circle1_SF,circle2_SF,response.started,response.stopped,mouse.x,mouse.y,mouse.leftButton,mouse.midButton,mouse.rightButton,mouse.clicked_name,trialnumber,double_pass.thisRepN,double_pass.thisTrialN,double_pass.thisN,double_pass.thisIndex,double_pass.ran,double_pass.order,main_trial.thisRepN,main_trial.thisTrialN,main_trial.thisN,main_trial.thisIndex,main_trial.ran,main_trial.order,Trial_Counter,Catch,Frequencies,response_2.started,response_2.stopped,mouse_2.x,mouse_2.y,mouse_2.leftButton,mouse_2.midButton,mouse_2.rightButton,mouse_2.clicked_name,special_trial.started,special_trial.stopped,catch_1.started,catch_1.stopped,mouse_3.x,mouse_3.y,mouse_3.leftButton,mouse_3.midButton,mouse_3.rightButton,catchresponse,catchnumber,response_time_catch,response_sum.started,response_sum.stopped,mouse_11.x,mouse_11.y,mouse_11.leftButton,mouse_11.midButton,mouse_11.rightButton,flip_presentation_sequence_for_double_pass.started,flip_presentation_sequence_for_double_pass.stopped,goodbye.started,goodbye.stopped,key_resp_3.keys,key_resp_3.rt,key_resp_3.duration
0.0005,0.0007,668e9f712727a42b2e03eefe,2026-03-17_13h36.48.358,kallum_motion_pilot_GIST_update_2,2026.1.1,Win32,60.24096386,668e9f712727a42b2e03eefe,69b92ab4aef6dee357cd729a,69b92ffff03560543319f07c,,,,,,,,,,,,,,,,,,,,,,,,,,,,,,,,,,,,,,,,,,,,,,,,,,,,,,,,,,,,,,,,,,,,,,,,,,,,,,,,,,,,,,,,,,,,,,,,,,,,,,,,,,,,,,,,,,,,,,,,,,,,,,,,,,,,,,,,,,,,,,,,,
,,668e9f712727a42b2e03eefe,2026-03-17_13h36.48.358,kallum_motion_pilot_GIST_update_2,2026.1.1,Win32,60.24096386,668e9f712727a42b2e03eefe,69b92ab4aef6dee357cd729a,69b92ffff03560543319f07c,0.0351,0.0353,0,0,0,50,1,twoone,,,,,,,,,,,,,,,,,,,,,,,,,,,,,,,,,,,,,,,,,,,,,,,,,,,,,,,,,,,,,,,,,,,,,,,,,,,,,,,,,,,,,,,,,,,,,,,,,,,,,,,,,,,,,,,,,,,,,,,,,,,,,,,,,,,,,,,,,
,,668e9f712727a42b2e03eefe,2026-03-17_13h36.48.358,kallum_motion_pilot_GIST_update_2,2026.1.1,Win32,60.24096386,668e9f712727a42b2e03eefe,69b92ab4aef6dee357cd729a,69b92ffff03560543319f07c,0.0356,0.0357,0,1,1,100,1,sevenfive,,,,,,,,,,,,,,,,,,,,,,,,,,,,,,,,,,,,,,,,,,,,,,,,,,,,,,,,,,,,,,,,,,,,,,,,,,,,,,,,,,,,,,,,,,,,,,,,,,,,,,,,,,,,,,,,,,,,,,,,,,,,,,,,,,,,,,,,,
,,668e9f712727a42b2e03eefe,2026-03-17_13h36.48.358,kallum_motion_pilot_GIST_update_2,2026.1.1,Win32,60.24096386,668e9f712727a42b2e03eefe,69b92ab4aef6dee357cd729a,69b92ffff03560543319f07c,0.0359,0.0359,0,2,2,49,1,onethree,,,,,,,,,,,,,,,,,,,,,,,,,,,,,,,,,,,,,,,,,,,,,,,,,,,,,,,,,,,,,,,,,,,,,,,,,,,,,,,,,,,,,,,,,,,,,,,,,,,,,,,,,,,,,,,,,,,,,,,,,,,,,,,,,,,,,,,,,
,,668e9f712727a42b2e03eefe,2026-03-17_13h36.48.358,kallum_motion_pilot_GIST_update_2,2026.1.1,Win32,60.24096386,668e9f712727a42b2e03eefe,69b92ab4aef6dee357cd729a,69b92ffff03560543319f07c,0.0361,0.0361,0,3,3,38,1,fourtwo,,,,,,,,,,,,,,,,,,,,,,,,,,,,,,,,,,,,,,,,,,,,,,,,,,,,,,,,,,,,,,,,,,,,,,,,,,,,,,,,,,,,,,,,,,,,,,,,,,,,,,,,,,,,,,,,,,,,,,,,,,,,,,,,,,,,,,,,,
,,668e9f712727a42b2e03eefe,2026-03-17_13h36.48.358,kallum_motion_pilot_GIST_update_2,2026.1.1,Win32,60.24096386,668e9f712727a42b2e03eefe,69b92ab4aef6dee357cd729a,69b92ffff03560543319f07c,0.0364,0.0364,0,4,4,41,1,onethree,,,,,,,,,,,,,,,,,,,,,,,,,,,,,,,,,,,,,,,,,,,,,,,,,,,,,,,,,,,,,,,,,,,,,,,,,,,,,,,,,,,,,,,,,,,,,,,,,,,,,,,,,,,,,,,,,,,,,,,,,,,,,,,,,,,,,,,,,
,,668e9f712727a42b2e03eefe,2026-03-17_13h36.48.358,kallum_motion_pilot_GIST_update_2,2026.1.1,Win32,60.24096386,668e9f712727a42b2e03eefe,69b92ab4aef6dee357cd729a,69b92ffff03560543319f07c,0.0365,0.0365,0,5,5,157,1,seveneight,,,,,,,,,,,,,,,,,,,,,,,,,,,,,,,,,,,,,,,,,,,,,,,,,,,,,,,,,,,,,,,,,,,,,,,,,,,,,,,,,,,,,,,,,,,,,,,,,,,,,,,,,,,,,,,,,,,,,,,,,,,,,,,,,,,,,,,,,
,,668e9f712727a42b2e03eefe,2026-03-17_13h36.48.358,kallum_motion_pilot_GIST_update_2,2026.1.1,Win32,60.24096386,668e9f712727a42b2e03eefe,69b92ab4aef6dee357cd729a,69b92ffff03560543319f07c,0.0368,0.0369,0,6,6,134,1,eightsix,,,,,,,,,,,,,,,,,,,,,,,,,,,,,,,,,,,,,,,,,,,,,,,,,,,,,,,,,,,,,,,,,,,,,,,,,,,,,,,,,,,,,,,,,,,,,,,,,,,,,,,,,,,,,,,,,,,,,,,,,,,,,,,,,,,,,,,,,
,,668e9f712727a42b2e03eefe,2026-03-17_13h36.48.358,kallum_motion_pilot_GIST_update_2,2026.1.1,Win32,60.24096386,668e9f712727a42b2e03eefe,69b92ab4aef6dee357cd729a,69b92ffff03560543319f07c,0.0376,0.0376,0,7,7,131,1,sixeight,,,,,,,,,,,,,,,,,,,,,,,,,,,,,,,,,,,,,,,,,,,,,,,,,,,,,,,,,,,,,,,,,,,,,,,,,,,,,,,,,,,,,,,,,,,,,,,,,,,,,,,,,,,,,,,,,,,,,,,,,,,,,,,,,,,,,,,,,
,,668e9f712727a42b2e03eefe,2026-03-17_13h36.48.358,kallum_motion_pilot_GIST_update_2,2026.1.1,Win32,60.24096386,668e9f712727a42b2e03eefe,69b92ab4aef6dee357cd729a,69b92ffff03560543319f07c,0.0384,0.0384,0,8,8,130,1,sixfive,,,,,,,,,,,,,,,,,,,,,,,,,,,,,,,,,,,,,,,,,,,,,,,,,,,,,,,,,,,,,,,,,,,,,,,,,,,,,,,,,,,,,,,,,,,,,,,,,,,,,,,,,,,,,,,,,,,,,,,,,,,,,,,,,,,,,,,,,
,,668e9f712727a42b2e03eefe,2026-03-17_13h36.48.358,kallum_motion_pilot_GIST_update_2,2026.1.1,Win32,60.24096386,668e9f712727a42b2e03eefe,69b92ab4aef6dee357cd729a,69b92ffff03560543319f07c,0.0389,0.0389,0,9,9,107,1,sixeight,,,,,,,,,,,,,,,,,,,,,,,,,,,,,,,,,,,,,,,,,,,,,,,,,,,,,,,,,,,,,,,,,,,,,,,,,,,,,,,,,,,,,,,,,,,,,,,,,,,,,,,,,,,,,,,,,,,,,,,,,,,,,,,,,,,,,,,,,
,,668e9f712727a42b2e03eefe,2026-03-17_13h36.48.358,kallum_motion_pilot_GIST_update_2,2026.1.1,Win32,60.24096386,668e9f712727a42b2e03eefe,69b92ab4aef6dee357cd729a,69b92ffff03560543319f07c,0.0391,0.0391,0,10,10,89,1,fiveseven,,,,,,,,,,,,,,,,,,,,,,,,,,,,,,,,,,,,,,,,,,,,,,,,,,,,,,,,,,,,,,,,,,,,,,,,,,,,,,,,,,,,,,,,,,,,,,,,,,,,,,,,,,,,,,,,,,,,,,,,,,,,,,,,,,,,,,,,,
,,668e9f712727a42b2e03eefe,2026-03-17_13h36.48.358,kallum_motion_pilot_GIST_update_2,2026.1.1,Win32,60.24096386,668e9f712727a42b2e03eefe,69b92ab4aef6dee357cd729a,69b92ffff03560543319f07c,0.0394,0.0394,0,11,11,117,1,seveneight,,,,,,,,,,,,,,,,,,,,,,,,,,,,,,,,,,,,,,,,,,,,,,,,,,,,,,,,,,,,,,,,,,,,,,,,,,,,,,,,,,,,,,,,,,,,,,,,,,,,,,,,,,,,,,,,,,,,,,,,,,,,,,,,,,,,,,,,,
,,668e9f712727a42b2e03eefe,2026-03-17_13h36.48.358,kallum_motion_pilot_GIST_update_2,2026.1.1,Win32,60.24096386,668e9f712727a42b2e03eefe,69b92ab4aef6dee357cd729a,69b92ffff03560543319f07c,0.0396,0.0396,0,12,12,34,1,twoone,,,,,,,,,,,,,,,,,,,,,,,,,,,,,,,,,,,,,,,,,,,,,,,,,,,,,,,,,,,,,,,,,,,,,,,,,,,,,,,,,,,,,,,,,,,,,,,,,,,,,,,,,,,,,,,,,,,,,,,,,,,,,,,,,,,,,,,,,
,,668e9f712727a42b2e03eefe,2026-03-17_13h36.48.358,kallum_motion_pilot_GIST_update_2,2026.1.1,Win32,60.24096386,668e9f712727a42b2e03eefe,69b92ab4aef6dee357cd729a,69b92ffff03560543319f07c,0.0398,0.0398,0,13,13,71,1,fourthree,,,,,,,,,,,,,,,,,,,,,,,,,,,,,,,,,,,,,,,,,,,,,,,,,,,,,,,,,,,,,,,,,,,,,,,,,,,,,,,,,,,,,,,,,,,,,,,,,,,,,,,,,,,,,,,,,,,,,,,,,,,,,,,,,,,,,,,,,
,,668e9f712727a42b2e03eefe,2026-03-17_13h36.48.358,kallum_motion_pilot_GIST_update_2,2026.1.1,Win32,60.24096386,668e9f712727a42b2e03eefe,69b92ab4aef6dee357cd729a,69b92ffff03560543319f07c,0.04,0.04,0,14,14,160,1,fivesix,,,,,,,,,,,,,,,,,,,,,,,,,,,,,,,,,,,,,,,,,,,,,,,,,,,,,,,,,,,,,,,,,,,,,,,,,,,,,,,,,,,,,,,,,,,,,,,,,,,,,,,,,,,,,,,,,,,,,,,,,,,,,,,,,,,,,,,,,
,,668e9f712727a42b2e03eefe,2026-03-17_13h36.48.358,kallum_motion_pilot_GIST_update_2,2026.1.1,Win32,60.24096386,668e9f712727a42b2e03eefe,69b92ab4aef6dee357cd729a,69b92ffff03560543319f07c,0.0401,0.0401,0,15,15,95,1,eightseven,,,,,,,,,,,,,,,,,,,,,,,,,,,,,,,,,,,,,,,,,,,,,,,,,,,,,,,,,,,,,,,,,,,,,,,,,,,,,,,,,,,,,,,,,,,,,,,,,,,,,,,,,,,,,,,,,,,,,,,,,,,,,,,,,,,,,,,,,
,,668e9f712727a42b2e03eefe,2026-03-17_13h36.48.358,kallum_motion_pilot_GIST_update_2,2026.1.1,Win32,60.24096386,668e9f712727a42b2e03eefe,69b92ab4aef6dee357cd729a,69b92ffff03560543319f07c,0.0402,0.0402,0,16,16,54,1,fourtwo,,,,,,,,,,,,,,,,,,,,,,,,,,,,,,,,,,,,,,,,,,,,,,,,,,,,,,,,,,,,,,,,,,,,,,,,,,,,,,,,,,,,,,,,,,,,,,,,,,,,,,,,,,,,,,,,,,,,,,,,,,,,,,,,,,,,,,,,,
,,668e9f712727a42b2e03eefe,2026-03-17_13h36.48.358,kallum_motion_pilot_GIST_update_2,2026.1.1,Win32,60.24096386,668e9f712727a42b2e03eefe,69b92ab4aef6dee357cd729a,69b92ffff03560543319f07c,0.0404,0.0404,0,17,17,53,1,threefour,,,,,,,,,,,,,,,,,,,,,,,,,,,,,,,,,,,,,,,,,,,,,,,,,,,,,,,,,,,,,,,,,,,,,,,,,,,,,,,,,,,,,,,,,,,,,,,,,,,,,,,,,,,,,,,,,,,,,,,,,,,,,,,,,,,,,,,,,
,,668e9f712727a42b2e03eefe,2026-03-17_13h36.48.358,kallum_motion_pilot_GIST_update_2,2026.1.1,Win32,60.24096386,668e9f712727a42b2e03eefe,69b92ab4aef6dee357cd729a,69b92ffff03560543319f07c,0.0406,0.0406,0,18,18,6,1,fourtwo,,,,,,,,,,,,,,,,,,,,,,,,,,,,,,,,,,,,,,,,,,,,,,,,,,,,,,,,,,,,,,,,,,,,,,,,,,,,,,,,,,,,,,,,,,,,,,,,,,,,,,,,,,,,,,,,,,,,,,,,,,,,,,,,,,,,,,,,,
,,668e9f712727a42b2e03eefe,2026-03-17_13h36.48.358,kallum_motion_pilot_GIST_update_2,2026.1.1,Win32,60.24096386,668e9f712727a42b2e03eefe,69b92ab4aef6dee357cd729a,69b92ffff03560543319f07c,0.0406,0.0406,0,19,19,75,1,twofour,,,,,,,,,,,,,,,,,,,,,,,,,,,,,,,,,,,,,,,,,,,,,,,,,,,,,,,,,,,,,,,,,,,,,,,,,,,,,,,,,,,,,,,,,,,,,,,,,,,,,,,,,,,,,,,,,,,,,,,,,,,,,,,,,,,,,,,,,
,,668e9f712727a42b2e03eefe,2026-03-17_13h36.48.358,kallum_motion_pilot_GIST_update_2,2026.1.1,Win32,60.24096386,668e9f712727a42b2e03eefe,69b92ab4aef6dee357cd729a,69b92ffff03560543319f07c,0.0408,0.0408,0,20,20,103,1,eightseven,,,,,,,,,,,,,,,,,,,,,,,,,,,,,,,,,,,,,,,,,,,,,,,,,,,,,,,,,,,,,,,,,,,,,,,,,,,,,,,,,,,,,,,,,,,,,,,,,,,,,,,,,,,,,,,,,,,,,,,,,,,,,,,,,,,,,,,,,
,,668e9f712727a42b2e03eefe,2026-03-17_13h36.48.358,kallum_motion_pilot_GIST_update_2,2026.1.1,Win32,60.24096386,668e9f712727a42b2e03eefe,69b92ab4aef6dee357cd729a,69b92ffff03560543319f07c,0.0409,0.0409,0,21,21,15,1,fourthree,,,,,,,,,,,,,,,,,,,,,,,,,,,,,,,,,,,,,,,,,,,,,,,,,,,,,,,,,,,,,,,,,,,,,,,,,,,,,,,,,,,,,,,,,,,,,,,,,,,,,,,,,,,,,,,,,,,,,,,,,,,,,,,,,,,,,,,,,
,,668e9f712727a42b2e03eefe,2026-03-17_13h36.48.358,kallum_motion_pilot_GIST_update_2,2026.1.1,Win32,60.24096386,668e9f712727a42b2e03eefe,69b92ab4aef6dee357cd729a,69b92ffff03560543319f07c,0.0411,0.0411,0,22,22,36,1,threeone,,,,,,,,,,,,,,,,,,,,,,,,,,,,,,,,,,,,,,,,,,,,,,,,,,,,,,,,,,,,,,,,,,,,,,,,,,,,,,,,,,,,,,,,,,,,,,,,,,,,,,,,,,,,,,,,,,,,,,,,,,,,,,,,,,,,,,,,,
,,668e9f712727a42b2e03eefe,2026-03-17_13h36.48.358,kallum_motion_pilot_GIST_update_2,2026.1.1,Win32,60.24096386,668e9f712727a42b2e03eefe,69b92ab4aef6dee357cd729a,69b92ffff03560543319f07c,0.0412,0.0412,0,23,23,86,1,eightsix,,,,,,,,,,,,,,,,,,,,,,,,,,,,,,,,,,,,,,,,,,,,,,,,,,,,,,,,,,,,,,,,,,,,,,,,,,,,,,,,,,,,,,,,,,,,,,,,,,,,,,,,,,,,,,,,,,,,,,,,,,,,,,,,,,,,,,,,,
,,668e9f712727a42b2e03eefe,2026-03-17_13h36.48.358,kallum_motion_pilot_GIST_update_2,2026.1.1,Win32,60.24096386,668e9f712727a42b2e03eefe,69b92ab4aef6dee357cd729a,69b92ffff03560543319f07c,0.0414,0.0414,0,24,24,150,1,eightsix,,,,,,,,,,,,,,,,,,,,,,,,,,,,,,,,,,,,,,,,,,,,,,,,,,,,,,,,,,,,,,,,,,,,,,,,,,,,,,,,,,,,,,,,,,,,,,,,,,,,,,,,,,,,,,,,,,,,,,,,,,,,,,,,,,,,,,,,,
,,668e9f712727a42b2e03eefe,2026-03-17_13h36.48.358,kallum_motion_pilot_GIST_update_2,2026.1.1,Win32,60.24096386,668e9f712727a42b2e03eefe,69b92ab4aef6dee357cd729a,69b92ffff03560543319f07c,0.0417,0.0417,0,25,25,40,1,onetwo,,,,,,,,,,,,,,,,,,,,,,,,,,,,,,,,,,,,,,,,,,,,,,,,,,,,,,,,,,,,,,,,,,,,,,,,,,,,,,,,,,,,,,,,,,,,,,,,,,,,,,,,,,,,,,,,,,,,,,,,,,,,,,,,,,,,,,,,,
,,668e9f712727a42b2e03eefe,2026-03-17_13h36.48.358,kallum_motion_pilot_GIST_update_2,2026.1.1,Win32,60.24096386,668e9f712727a42b2e03eefe,69b92ab4aef6dee357cd729a,69b92ffff03560543319f07c,0.0418,0.0418,0,26,26,148,1,sevenfive,,,,,,,,,,,,,,,,,,,,,,,,,,,,,,,,,,,,,,,,,,,,,,,,,,,,,,,,,,,,,,,,,,,,,,,,,,,,,,,,,,,,,,,,,,,,,,,,,,,,,,,,,,,,,,,,,,,,,,,,,,,,,,,,,,,,,,,,,
,,668e9f712727a42b2e03eefe,2026-03-17_13h36.48.358,kallum_motion_pilot_GIST_update_2,2026.1.1,Win32,60.24096386,668e9f712727a42b2e03eefe,69b92ab4aef6dee357cd729a,69b92ffff03560543319f07c,0.042,0.042,0,27,27,65,1,onethree,,,,,,,,,,,,,,,,,,,,,,,,,,,,,,,,,,,,,,,,,,,,,,,,,,,,,,,,,,,,,,,,,,,,,,,,,,,,,,,,,,,,,,,,,,,,,,,,,,,,,,,,,,,,,,,,,,,,,,,,,,,,,,,,,,,,,,,,,
,,668e9f712727a42b2e03eefe,2026-03-17_13h36.48.358,kallum_motion_pilot_GIST_update_2,2026.1.1,Win32,60.24096386,668e9f712727a42b2e03eefe,69b92ab4aef6dee357cd729a,69b92ffff03560543319f07c,0.0421,0.0421,0,28,28,24,1,onetwo,,,,,,,,,,,,,,,,,,,,,,,,,,,,,,,,,,,,,,,,,,,,,,,,,,,,,,,,,,,,,,,,,,,,,,,,,,,,,,,,,,,,,,,,,,,,,,,,,,,,,,,,,,,,,,,,,,,,,,,,,,,,,,,,,,,,,,,,,
,,668e9f712727a42b2e03eefe,2026-03-17_13h36.48.358,kallum_motion_pilot_GIST_update_2,2026.1.1,Win32,60.24096386,668e9f712727a42b2e03eefe,69b92ab4aef6dee357cd729a,69b92ffff03560543319f07c,0.0423,0.0423,0,29,29,70,1,fourtwo,,,,,,,,,,,,,,,,,,,,,,,,,,,,,,,,,,,,,,,,,,,,,,,,,,,,,,,,,,,,,,,,,,,,,,,,,,,,,,,,,,,,,,,,,,,,,,,,,,,,,,,,,,,,,,,,,,,,,,,,,,,,,,,,,,,,,,,,,
,,668e9f712727a42b2e03eefe,2026-03-17_13h36.48.358,kallum_motion_pilot_GIST_update_2,2026.1.1,Win32,60.24096386,668e9f712727a42b2e03eefe,69b92ab4aef6dee357cd729a,69b92ffff03560543319f07c,0.0425,0.0425,0,30,30,52,1,threeone,,,,,,,,,,,,,,,,,,,,,,,,,,,,,,,,,,,,,,,,,,,,,,,,,,,,,,,,,,,,,,,,,,,,,,,,,,,,,,,,,,,,,,,,,,,,,,,,,,,,,,,,,,,,,,,,,,,,,,,,,,,,,,,,,,,,,,,,,
,,668e9f712727a42b2e03eefe,2026-03-17_13h36.48.358,kallum_motion_pilot_GIST_update_2,2026.1.1,Win32,60.24096386,668e9f712727a42b2e03eefe,69b92ab4aef6dee357cd729a,69b92ffff03560543319f07c,0.0426,0.0426,0,31,31,132,1,sevenfive,,,,,,,,,,,,,,,,,,,,,,,,,,,,,,,,,,,,,,,,,,,,,,,,,,,,,,,,,,,,,,,,,,,,,,,,,,,,,,,,,,,,,,,,,,,,,,,,,,,,,,,,,,,,,,,,,,,,,,,,,,,,,,,,,,,,,,,,,
,,668e9f712727a42b2e03eefe,2026-03-17_13h36.48.358,kallum_motion_pilot_GIST_update_2,2026.1.1,Win32,60.24096386,668e9f712727a42b2e03eefe,69b92ab4aef6dee357cd729a,69b92ffff03560543319f07c,0.0427,0.0428,0,32,32,112,1,fivesix,,,,,,,,,,,,,,,,,,,,,,,,,,,,,,,,,,,,,,,,,,,,,,,,,,,,,,,,,,,,,,,,,,,,,,,,,,,,,,,,,,,,,,,,,,,,,,,,,,,,,,,,,,,,,,,,,,,,,,,,,,,,,,,,,,,,,,,,,
,,668e9f712727a42b2e03eefe,2026-03-17_13h36.48.358,kallum_motion_pilot_GIST_update_2,2026.1.1,Win32,60.24096386,668e9f712727a42b2e03eefe,69b92ab4aef6dee357cd729a,69b92ffff03560543319f07c,0.0429,0.0429,0,33,33,124,1,sevenfive,,,,,,,,,,,,,,,,,,,,,,,,,,,,,,,,,,,,,,,,,,,,,,,,,,,,,,,,,,,,,,,,,,,,,,,,,,,,,,,,,,,,,,,,,,,,,,,,,,,,,,,,,,,,,,,,,,,,,,,,,,,,,,,,,,,,,,,,,
,,668e9f712727a42b2e03eefe,2026-03-17_13h36.48.358,kallum_motion_pilot_GIST_update_2,2026.1.1,Win32,60.24096386,668e9f712727a42b2e03eefe,69b92ab4aef6dee357cd729a,69b92ffff03560543319f07c,0.0434,0.0434,0,34,34,118,1,eightsix,,,,,,,,,,,,,,,,,,,,,,,,,,,,,,,,,,,,,,,,,,,,,,,,,,,,,,,,,,,,,,,,,,,,,,,,,,,,,,,,,,,,,,,,,,,,,,,,,,,,,,,,,,,,,,,,,,,,,,,,,,,,,,,,,,,,,,,,,
,,668e9f712727a42b2e03eefe,2026-03-17_13h36.48.358,kallum_motion_pilot_GIST_update_2,2026.1.1,Win32,60.24096386,668e9f712727a42b2e03eefe,69b92ab4aef6dee357cd729a,69b92ffff03560543319f07c,0.0438,0.0438,0,35,35,125,1,seveneight,,,,,,,,,,,,,,,,,,,,,,,,,,,,,,,,,,,,,,,,,,,,,,,,,,,,,,,,,,,,,,,,,,,,,,,,,,,,,,,,,,,,,,,,,,,,,,,,,,,,,,,,,,,,,,,,,,,,,,,,,,,,,,,,,,,,,,,,,
,,668e9f712727a42b2e03eefe,2026-03-17_13h36.48.358,kallum_motion_pilot_GIST_update_2,2026.1.1,Win32,60.24096386,668e9f712727a42b2e03eefe,69b92ab4aef6dee357cd729a,69b92ffff03560543319f07c,0.0441,0.0441,0,36,36,104,1,fivesix,,,,,,,,,,,,,,,,,,,,,,,,,,,,,,,,,,,,,,,,,,,,,,,,,,,,,,,,,,,,,,,,,,,,,,,,,,,,,,,,,,,,,,,,,,,,,,,,,,,,,,,,,,,,,,,,,,,,,,,,,,,,,,,,,,,,,,,,,
,,668e9f712727a42b2e03eefe,2026-03-17_13h36.48.358,kallum_motion_pilot_GIST_update_2,2026.1.1,Win32,60.24096386,668e9f712727a42b2e03eefe,69b92ab4aef6dee357cd729a,69b92ffff03560543319f07c,0.0443,0.0443,0,37,37,43,1,twofour,,,,,,,,,,,,,,,,,,,,,,,,,,,,,,,,,,,,,,,,,,,,,,,,,,,,,,,,,,,,,,,,,,,,,,,,,,,,,,,,,,,,,,,,,,,,,,,,,,,,,,,,,,,,,,,,,,,,,,,,,,,,,,,,,,,,,,,,,
,,668e9f712727a42b2e03eefe,2026-03-17_13h36.48.358,kallum_motion_pilot_GIST_update_2,2026.1.1,Win32,60.24096386,668e9f712727a42b2e03eefe,69b92ab4aef6dee357cd729a,69b92ffff03560543319f07c,0.0445,0.0445,0,38,38,88,1,fivesix,,,,,,,,,,,,,,,,,,,,,,,,,,,,,,,,,,,,,,,,,,,,,,,,,,,,,,,,,,,,,,,,,,,,,,,,,,,,,,,,,,,,,,,,,,,,,,,,,,,,,,,,,,,,,,,,,,,,,,,,,,,,,,,,,,,,,,,,,
,,668e9f712727a42b2e03eefe,2026-03-17_13h36.48.358,kallum_motion_pilot_GIST_update_2,2026.1.1,Win32,60.24096386,668e9f712727a42b2e03eefe,69b92ab4aef6dee357cd729a,69b92ffff03560543319f07c,0.0447,0.0447,0,39,39,81,1,fiveseven,,,,,,,,,,,,,,,,,,,,,,,,,,,,,,,,,,,,,,,,,,,,,,,,,,,,,,,,,,,,,,,,,,,,,,,,,,,,,,,,,,,,,,,,,,,,,,,,,,,,,,,,,,,,,,,,,,,,,,,,,,,,,,,,,,,,,,,,,
,,668e9f712727a42b2e03eefe,2026-03-17_13h36.48.358,kallum_motion_pilot_GIST_update_2,2026.1.1,Win32,60.24096386,668e9f712727a42b2e03eefe,69b92ab4aef6dee357cd729a,69b92ffff03560543319f07c,0.0449,0.0449,0,40,40,122,1,sixfive,,,,,,,,,,,,,,,,,,,,,,,,,,,,,,,,,,,,,,,,,,,,,,,,,,,,,,,,,,,,,,,,,,,,,,,,,,,,,,,,,,,,,,,,,,,,,,,,,,,,,,,,,,,,,,,,,,,,,,,,,,,,,,,,,,,,,,,,,
,,668e9f712727a42b2e03eefe,2026-03-17_13h36.48.358,kallum_motion_pilot_GIST_update_2,2026.1.1,Win32,60.24096386,668e9f712727a42b2e03eefe,69b92ab4aef6dee357cd729a,69b92ffff03560543319f07c,0.0451,0.0451,0,41,41,77,1,threefour,,,,,,,,,,,,,,,,,,,,,,,,,,,,,,,,,,,,,,,,,,,,,,,,,,,,,,,,,,,,,,,,,,,,,,,,,,,,,,,,,,,,,,,,,,,,,,,,,,,,,,,,,,,,,,,,,,,,,,,,,,,,,,,,,,,,,,,,,
,,668e9f712727a42b2e03eefe,2026-03-17_13h36.48.358,kallum_motion_pilot_GIST_update_2,2026.1.1,Win32,60.24096386,668e9f712727a42b2e03eefe,69b92ab4aef6dee357cd729a,69b92ffff03560543319f07c,0.0452,0.0452,0,42,42,154,1,sixfive,,,,,,,,,,,,,,,,,,,,,,,,,,,,,,,,,,,,,,,,,,,,,,,,,,,,,,,,,,,,,,,,,,,,,,,,,,,,,,,,,,,,,,,,,,,,,,,,,,,,,,,,,,,,,,,,,,,,,,,,,,,,,,,,,,,,,,,,,
,,668e9f712727a42b2e03eefe,2026-03-17_13h36.48.358,kallum_motion_pilot_GIST_update_2,2026.1.1,Win32,60.24096386,668e9f712727a42b2e03eefe,69b92ab4aef6dee357cd729a,69b92ffff03560543319f07c,0.0454,0.0454,0,43,43,58,1,twoone,,,,,,,,,,,,,,,,,,,,,,,,,,,,,,,,,,,,,,,,,,,,,,,,,,,,,,,,,,,,,,,,,,,,,,,,,,,,,,,,,,,,,,,,,,,,,,,,,,,,,,,,,,,,,,,,,,,,,,,,,,,,,,,,,,,,,,,,,
,,668e9f712727a42b2e03eefe,2026-03-17_13h36.48.358,kallum_motion_pilot_GIST_update_2,2026.1.1,Win32,60.24096386,668e9f712727a42b2e03eefe,69b92ab4aef6dee357cd729a,69b92ffff03560543319f07c,0.0456,0.0456,0,44,44,115,1,sixeight,,,,,,,,,,,,,,,,,,,,,,,,,,,,,,,,,,,,,,,,,,,,,,,,,,,,,,,,,,,,,,,,,,,,,,,,,,,,,,,,,,,,,,,,,,,,,,,,,,,,,,,,,,,,,,,,,,,,,,,,,,,,,,,,,,,,,,,,,
,,668e9f712727a42b2e03eefe,2026-03-17_13h36.48.358,kallum_motion_pilot_GIST_update_2,2026.1.1,Win32,60.24096386,668e9f712727a42b2e03eefe,69b92ab4aef6dee357cd729a,69b92ffff03560543319f07c,0.0457,0.0457,0,45,45,21,1,threefour,,,,,,,,,,,,,,,,,,,,,,,,,,,,,,,,,,,,,,,,,,,,,,,,,,,,,,,,,,,,,,,,,,,,,,,,,,,,,,,,,,,,,,,,,,,,,,,,,,,,,,,,,,,,,,,,,,,,,,,,,,,,,,,,,,,,,,,,,
,,668e9f712727a42b2e03eefe,2026-03-17_13h36.48.358,kallum_motion_pilot_GIST_update_2,2026.1.1,Win32,60.24096386,668e9f712727a42b2e03eefe,69b92ab4aef6dee357cd729a,69b92ffff03560543319f07c,0.0459,0.0459,0,46,46,123,1,sixeight,,,,,,,,,,,,,,,,,,,,,,,,,,,,,,,,,,,,,,,,,,,,,,,,,,,,,,,,,,,,,,,,,,,,,,,,,,,,,,,,,,,,,,,,,,,,,,,,,,,,,,,,,,,,,,,,,,,,,,,,,,,,,,,,,,,,,,,,,
,,668e9f712727a42b2e03eefe,2026-03-17_13h36.48.358,kallum_motion_pilot_GIST_update_2,2026.1.1,Win32,60.24096386,668e9f712727a42b2e03eefe,69b92ab4aef6dee357cd729a,69b92ffff03560543319f07c,0.0462,0.0462,0,47,47,94,1,eightsix,,,,,,,,,,,,,,,,,,,,,,,,,,,,,,,,,,,,,,,,,,,,,,,,,,,,,,,,,,,,,,,,,,,,,,,,,,,,,,,,,,,,,,,,,,,,,,,,,,,,,,,,,,,,,,,,,,,,,,,,,,,,,,,,,,,,,,,,,
,,668e9f712727a42b2e03eefe,2026-03-17_13h36.48.358,kallum_motion_pilot_GIST_update_2,2026.1.1,Win32,60.24096386,668e9f712727a42b2e03eefe,69b92ab4aef6dee357cd729a,69b92ffff03560543319f07c,0.0463,0.0463,0,48,48,91,1,sixeight,,,,,,,,,,,,,,,,,,,,,,,,,,,,,,,,,,,,,,,,,,,,,,,,,,,,,,,,,,,,,,,,,,,,,,,,,,,,,,,,,,,,,,,,,,,,,,,,,,,,,,,,,,,,,,,,,,,,,,,,,,,,,,,,,,,,,,,,,
,,668e9f712727a42b2e03eefe,2026-03-17_13h36.48.358,kallum_motion_pilot_GIST_update_2,2026.1.1,Win32,60.24096386,668e9f712727a42b2e03eefe,69b92ab4aef6dee357cd729a,69b92ffff03560543319f07c,0.0464,0.0464,0,49,49,85,1,seveneight,,,,,,,,,,,,,,,,,,,,,,,,,,,,,,,,,,,,,,,,,,,,,,,,,,,,,,,,,,,,,,,,,,,,,,,,,,,,,,,,,,,,,,,,,,,,,,,,,,,,,,,,,,,,,,,,,,,,,,,,,,,,,,,,,,,,,,,,,
,,668e9f712727a42b2e03eefe,2026-03-17_13h36.48.358,kallum_motion_pilot_GIST_update_2,2026.1.1,Win32,60.24096386,668e9f712727a42b2e03eefe,69b92ab4aef6dee357cd729a,69b92ffff03560543319f07c,0.0467,0.0467,0,50,50,74,1,twoone,,,,,,,,,,,,,,,,,,,,,,,,,,,,,,,,,,,,,,,,,,,,,,,,,,,,,,,,,,,,,,,,,,,,,,,,,,,,,,,,,,,,,,,,,,,,,,,,,,,,,,,,,,,,,,,,,,,,,,,,,,,,,,,,,,,,,,,,,
,,668e9f712727a42b2e03eefe,2026-03-17_13h36.48.358,kallum_motion_pilot_GIST_update_2,2026.1.1,Win32,60.24096386,668e9f712727a42b2e03eefe,69b92ab4aef6dee357cd729a,69b92ffff03560543319f07c,0.0468,0.0468,0,51,51,76,1,threeone,,,,,,,,,,,,,,,,,,,,,,,,,,,,,,,,,,,,,,,,,,,,,,,,,,,,,,,,,,,,,,,,,,,,,,,,,,,,,,,,,,,,,,,,,,,,,,,,,,,,,,,,,,,,,,,,,,,,,,,,,,,,,,,,,,,,,,,,,
,,668e9f712727a42b2e03eefe,2026-03-17_13h36.48.358,kallum_motion_pilot_GIST_update_2,2026.1.1,Win32,60.24096386,668e9f712727a42b2e03eefe,69b92ab4aef6dee357cd729a,69b92ffff03560543319f07c,0.0469,0.0469,0,52,52,37,1,threefour,,,,,,,,,,,,,,,,,,,,,,,,,,,,,,,,,,,,,,,,,,,,,,,,,,,,,,,,,,,,,,,,,,,,,,,,,,,,,,,,,,,,,,,,,,,,,,,,,,,,,,,,,,,,,,,,,,,,,,,,,,,,,,,,,,,,,,,,,
,,668e9f712727a42b2e03eefe,2026-03-17_13h36.48.358,kallum_motion_pilot_GIST_update_2,2026.1.1,Win32,60.24096386,668e9f712727a42b2e03eefe,69b92ab4aef6dee357cd729a,69b92ffff03560543319f07c,0.0471,0.0471,0,53,53,30,1,fourtwo,,,,,,,,,,,,,,,,,,,,,,,,,,,,,,,,,,,,,,,,,,,,,,,,,,,,,,,,,,,,,,,,,,,,,,,,,,,,,,,,,,,,,,,,,,,,,,,,,,,,,,,,,,,,,,,,,,,,,,,,,,,,,,,,,,,,,,,,,
,,668e9f712727a42b2e03eefe,2026-03-17_13h36.48.358,kallum_motion_pilot_GIST_update_2,2026.1.1,Win32,60.24096386,668e9f712727a42b2e03eefe,69b92ab4aef6dee357cd729a,69b92ffff03560543319f07c,0.0473,0.0473,0,54,54,11,1,twofour,,,,,,,,,,,,,,,,,,,,,,,,,,,,,,,,,,,,,,,,,,,,,,,,,,,,,,,,,,,,,,,,,,,,,,,,,,,,,,,,,,,,,,,,,,,,,,,,,,,,,,,,,,,,,,,,,,,,,,,,,,,,,,,,,,,,,,,,,
,,668e9f712727a42b2e03eefe,2026-03-17_13h36.48.358,kallum_motion_pilot_GIST_update_2,2026.1.1,Win32,60.24096386,668e9f712727a42b2e03eefe,69b92ab4aef6dee357cd729a,69b92ffff03560543319f07c,0.0473,0.0473,0,55,55,153,1,fiveseven,,,,,,,,,,,,,,,,,,,,,,,,,,,,,,,,,,,,,,,,,,,,,,,,,,,,,,,,,,,,,,,,,,,,,,,,,,,,,,,,,,,,,,,,,,,,,,,,,,,,,,,,,,,,,,,,,,,,,,,,,,,,,,,,,,,,,,,,,
,,668e9f712727a42b2e03eefe,2026-03-17_13h36.48.358,kallum_motion_pilot_GIST_update_2,2026.1.1,Win32,60.24096386,668e9f712727a42b2e03eefe,69b92ab4aef6dee357cd729a,69b92ffff03560543319f07c,0.0475,0.0475,0,56,56,18,1,twoone,,,,,,,,,,,,,,,,,,,,,,,,,,,,,,,,,,,,,,,,,,,,,,,,,,,,,,,,,,,,,,,,,,,,,,,,,,,,,,,,,,,,,,,,,,,,,,,,,,,,,,,,,,,,,,,,,,,,,,,,,,,,,,,,,,,,,,,,,
,,668e9f712727a42b2e03eefe,2026-03-17_13h36.48.358,kallum_motion_pilot_GIST_update_2,2026.1.1,Win32,60.24096386,668e9f712727a42b2e03eefe,69b92ab4aef6dee357cd729a,69b92ffff03560543319f07c,0.0478,0.0478,0,57,57,55,1,fourthree,,,,,,,,,,,,,,,,,,,,,,,,,,,,,,,,,,,,,,,,,,,,,,,,,,,,,,,,,,,,,,,,,,,,,,,,,,,,,,,,,,,,,,,,,,,,,,,,,,,,,,,,,,,,,,,,,,,,,,,,,,,,,,,,,,,,,,,,,
,,668e9f712727a42b2e03eefe,2026-03-17_13h36.48.358,kallum_motion_pilot_GIST_update_2,2026.1.1,Win32,60.24096386,668e9f712727a42b2e03eefe,69b92ab4aef6dee357cd729a,69b92ffff03560543319f07c,0.0478,0.0478,0,58,58,142,1,eightsix,,,,,,,,,,,,,,,,,,,,,,,,,,,,,,,,,,,,,,,,,,,,,,,,,,,,,,,,,,,,,,,,,,,,,,,,,,,,,,,,,,,,,,,,,,,,,,,,,,,,,,,,,,,,,,,,,,,,,,,,,,,,,,,,,,,,,,,,,
,,668e9f712727a42b2e03eefe,2026-03-17_13h36.48.358,kallum_motion_pilot_GIST_update_2,2026.1.1,Win32,60.24096386,668e9f712727a42b2e03eefe,69b92ab4aef6dee357cd729a,69b92ffff03560543319f07c,0.048,0.048,0,59,59,5,1,threefour,,,,,,,,,,,,,,,,,,,,,,,,,,,,,,,,,,,,,,,,,,,,,,,,,,,,,,,,,,,,,,,,,,,,,,,,,,,,,,,,,,,,,,,,,,,,,,,,,,,,,,,,,,,,,,,,,,,,,,,,,,,,,,,,,,,,,,,,,
,,668e9f712727a42b2e03eefe,2026-03-17_13h36.48.358,kallum_motion_pilot_GIST_update_2,2026.1.1,Win32,60.24096386,668e9f712727a42b2e03eefe,69b92ab4aef6dee357cd729a,69b92ffff03560543319f07c,0.0482,0.0482,0,60,60,60,1,threeone,,,,,,,,,,,,,,,,,,,,,,,,,,,,,,,,,,,,,,,,,,,,,,,,,,,,,,,,,,,,,,,,,,,,,,,,,,,,,,,,,,,,,,,,,,,,,,,,,,,,,,,,,,,,,,,,,,,,,,,,,,,,,,,,,,,,,,,,,
,,668e9f712727a42b2e03eefe,2026-03-17_13h36.48.358,kallum_motion_pilot_GIST_update_2,2026.1.1,Win32,60.24096386,668e9f712727a42b2e03eefe,69b92ab4aef6dee357cd729a,69b92ffff03560543319f07c,0.0483,0.0483,0,61,61,156,1,sevenfive,,,,,,,,,,,,,,,,,,,,,,,,,,,,,,,,,,,,,,,,,,,,,,,,,,,,,,,,,,,,,,,,,,,,,,,,,,,,,,,,,,,,,,,,,,,,,,,,,,,,,,,,,,,,,,,,,,,,,,,,,,,,,,,,,,,,,,,,,
,,668e9f712727a42b2e03eefe,2026-03-17_13h36.48.358,kallum_motion_pilot_GIST_update_2,2026.1.1,Win32,60.24096386,668e9f712727a42b2e03eefe,69b92ab4aef6dee357cd729a,69b92ffff03560543319f07c,0.0485,0.0485,0,62,62,20,1,threeone,,,,,,,,,,,,,,,,,,,,,,,,,,,,,,,,,,,,,,,,,,,,,,,,,,,,,,,,,,,,,,,,,,,,,,,,,,,,,,,,,,,,,,,,,,,,,,,,,,,,,,,,,,,,,,,,,,,,,,,,,,,,,,,,,,,,,,,,,
,,668e9f712727a42b2e03eefe,2026-03-17_13h36.48.358,kallum_motion_pilot_GIST_update_2,2026.1.1,Win32,60.24096386,668e9f712727a42b2e03eefe,69b92ab4aef6dee357cd729a,69b92ffff03560543319f07c,0.0488,0.0488,0,63,63,26,1,twoone,,,,,,,,,,,,,,,,,,,,,,,,,,,,,,,,,,,,,,,,,,,,,,,,,,,,,,,,,,,,,,,,,,,,,,,,,,,,,,,,,,,,,,,,,,,,,,,,,,,,,,,,,,,,,,,,,,,,,,,,,,,,,,,,,,,,,,,,,
,,668e9f712727a42b2e03eefe,2026-03-17_13h36.48.358,kallum_motion_pilot_GIST_update_2,2026.1.1,Win32,60.24096386,668e9f712727a42b2e03eefe,69b92ab4aef6dee357cd729a,69b92ffff03560543319f07c,0.049,0.049,0,64,64,159,1,eightseven,,,,,,,,,,,,,,,,,,,,,,,,,,,,,,,,,,,,,,,,,,,,,,,,,,,,,,,,,,,,,,,,,,,,,,,,,,,,,,,,,,,,,,,,,,,,,,,,,,,,,,,,,,,,,,,,,,,,,,,,,,,,,,,,,,,,,,,,,
,,668e9f712727a42b2e03eefe,2026-03-17_13h36.48.358,kallum_motion_pilot_GIST_update_2,2026.1.1,Win32,60.24096386,668e9f712727a42b2e03eefe,69b92ab4aef6dee357cd729a,69b92ffff03560543319f07c,0.0492,0.0492,0,65,65,145,1,fiveseven,,,,,,,,,,,,,,,,,,,,,,,,,,,,,,,,,,,,,,,,,,,,,,,,,,,,,,,,,,,,,,,,,,,,,,,,,,,,,,,,,,,,,,,,,,,,,,,,,,,,,,,,,,,,,,,,,,,,,,,,,,,,,,,,,,,,,,,,,
,,668e9f712727a42b2e03eefe,2026-03-17_13h36.48.358,kallum_motion_pilot_GIST_update_2,2026.1.1,Win32,60.24096386,668e9f712727a42b2e03eefe,69b92ab4aef6dee357cd729a,69b92ffff03560543319f07c,0.0495,0.0496,0,66,66,35,1,twofour,,,,,,,,,,,,,,,,,,,,,,,,,,,,,,,,,,,,,,,,,,,,,,,,,,,,,,,,,,,,,,,,,,,,,,,,,,,,,,,,,,,,,,,,,,,,,,,,,,,,,,,,,,,,,,,,,,,,,,,,,,,,,,,,,,,,,,,,,
,,668e9f712727a42b2e03eefe,2026-03-17_13h36.48.358,kallum_motion_pilot_GIST_update_2,2026.1.1,Win32,60.24096386,668e9f712727a42b2e03eefe,69b92ab4aef6dee357cd729a,69b92ffff03560543319f07c,0.0499,0.0499,0,67,67,108,1,sevenfive,,,,,,,,,,,,,,,,,,,,,,,,,,,,,,,,,,,,,,,,,,,,,,,,,,,,,,,,,,,,,,,,,,,,,,,,,,,,,,,,,,,,,,,,,,,,,,,,,,,,,,,,,,,,,,,,,,,,,,,,,,,,,,,,,,,,,,,,,
,,668e9f712727a42b2e03eefe,2026-03-17_13h36.48.358,kallum_motion_pilot_GIST_update_2,2026.1.1,Win32,60.24096386,668e9f712727a42b2e03eefe,69b92ab4aef6dee357cd729a,69b92ffff03560543319f07c,0.0501,0.0501,0,68,68,61,1,threefour,,,,,,,,,,,,,,,,,,,,,,,,,,,,,,,,,,,,,,,,,,,,,,,,,,,,,,,,,,,,,,,,,,,,,,,,,,,,,,,,,,,,,,,,,,,,,,,,,,,,,,,,,,,,,,,,,,,,,,,,,,,,,,,,,,,,,,,,,
,,668e9f712727a42b2e03eefe,2026-03-17_13h36.48.358,kallum_motion_pilot_GIST_update_2,2026.1.1,Win32,60.24096386,668e9f712727a42b2e03eefe,69b92ab4aef6dee357cd729a,69b92ffff03560543319f07c,0.0502,0.0502,0,69,69,46,1,fourtwo,,,,,,,,,,,,,,,,,,,,,,,,,,,,,,,,,,,,,,,,,,,,,,,,,,,,,,,,,,,,,,,,,,,,,,,,,,,,,,,,,,,,,,,,,,,,,,,,,,,,,,,,,,,,,,,,,,,,,,,,,,,,,,,,,,,,,,,,,
,,668e9f712727a42b2e03eefe,2026-03-17_13h36.48.358,kallum_motion_pilot_GIST_update_2,2026.1.1,Win32,60.24096386,668e9f712727a42b2e03eefe,69b92ab4aef6dee357cd729a,69b92ffff03560543319f07c,0.0503,0.0503,0,70,70,114,1,sixfive,,,,,,,,,,,,,,,,,,,,,,,,,,,,,,,,,,,,,,,,,,,,,,,,,,,,,,,,,,,,,,,,,,,,,,,,,,,,,,,,,,,,,,,,,,,,,,,,,,,,,,,,,,,,,,,,,,,,,,,,,,,,,,,,,,,,,,,,,
,,668e9f712727a42b2e03eefe,2026-03-17_13h36.48.358,kallum_motion_pilot_GIST_update_2,2026.1.1,Win32,60.24096386,668e9f712727a42b2e03eefe,69b92ab4aef6dee357cd729a,69b92ffff03560543319f07c,0.0506,0.0506,0,71,71,80,1,fivesix,,,,,,,,,,,,,,,,,,,,,,,,,,,,,,,,,,,,,,,,,,,,,,,,,,,,,,,,,,,,,,,,,,,,,,,,,,,,,,,,,,,,,,,,,,,,,,,,,,,,,,,,,,,,,,,,,,,,,,,,,,,,,,,,,,,,,,,,,
,,668e9f712727a42b2e03eefe,2026-03-17_13h36.48.358,kallum_motion_pilot_GIST_update_2,2026.1.1,Win32,60.24096386,668e9f712727a42b2e03eefe,69b92ab4aef6dee357cd729a,69b92ffff03560543319f07c,0.0509,0.0509,0,72,72,9,1,onethree,,,,,,,,,,,,,,,,,,,,,,,,,,,,,,,,,,,,,,,,,,,,,,,,,,,,,,,,,,,,,,,,,,,,,,,,,,,,,,,,,,,,,,,,,,,,,,,,,,,,,,,,,,,,,,,,,,,,,,,,,,,,,,,,,,,,,,,,,
,,668e9f712727a42b2e03eefe,2026-03-17_13h36.48.358,kallum_motion_pilot_GIST_update_2,2026.1.1,Win32,60.24096386,668e9f712727a42b2e03eefe,69b92ab4aef6dee357cd729a,69b92ffff03560543319f07c,0.051,0.051,0,73,73,44,1,threeone,,,,,,,,,,,,,,,,,,,,,,,,,,,,,,,,,,,,,,,,,,,,,,,,,,,,,,,,,,,,,,,,,,,,,,,,,,,,,,,,,,,,,,,,,,,,,,,,,,,,,,,,,,,,,,,,,,,,,,,,,,,,,,,,,,,,,,,,,
,,668e9f712727a42b2e03eefe,2026-03-17_13h36.48.358,kallum_motion_pilot_GIST_update_2,2026.1.1,Win32,60.24096386,668e9f712727a42b2e03eefe,69b92ab4aef6dee357cd729a,69b92ffff03560543319f07c,0.0511,0.0511,0,74,74,99,1,sixeight,,,,,,,,,,,,,,,,,,,,,,,,,,,,,,,,,,,,,,,,,,,,,,,,,,,,,,,,,,,,,,,,,,,,,,,,,,,,,,,,,,,,,,,,,,,,,,,,,,,,,,,,,,,,,,,,,,,,,,,,,,,,,,,,,,,,,,,,,
,,668e9f712727a42b2e03eefe,2026-03-17_13h36.48.358,kallum_motion_pilot_GIST_update_2,2026.1.1,Win32,60.24096386,668e9f712727a42b2e03eefe,69b92ab4aef6dee357cd729a,69b92ffff03560543319f07c,0.0513,0.0513,0,75,75,56,1,onetwo,,,,,,,,,,,,,,,,,,,,,,,,,,,,,,,,,,,,,,,,,,,,,,,,,,,,,,,,,,,,,,,,,,,,,,,,,,,,,,,,,,,,,,,,,,,,,,,,,,,,,,,,,,,,,,,,,,,,,,,,,,,,,,,,,,,,,,,,,
,,668e9f712727a42b2e03eefe,2026-03-17_13h36.48.358,kallum_motion_pilot_GIST_update_2,2026.1.1,Win32,60.24096386,668e9f712727a42b2e03eefe,69b92ab4aef6dee357cd729a,69b92ffff03560543319f07c,0.0514,0.0514,0,76,76,128,1,fivesix,,,,,,,,,,,,,,,,,,,,,,,,,,,,,,,,,,,,,,,,,,,,,,,,,,,,,,,,,,,,,,,,,,,,,,,,,,,,,,,,,,,,,,,,,,,,,,,,,,,,,,,,,,,,,,,,,,,,,,,,,,,,,,,,,,,,,,,,,
,,668e9f712727a42b2e03eefe,2026-03-17_13h36.48.358,kallum_motion_pilot_GIST_update_2,2026.1.1,Win32,60.24096386,668e9f712727a42b2e03eefe,69b92ab4aef6dee357cd729a,69b92ffff03560543319f07c,0.0516,0.0516,0,77,77,51,1,twofour,,,,,,,,,,,,,,,,,,,,,,,,,,,,,,,,,,,,,,,,,,,,,,,,,,,,,,,,,,,,,,,,,,,,,,,,,,,,,,,,,,,,,,,,,,,,,,,,,,,,,,,,,,,,,,,,,,,,,,,,,,,,,,,,,,,,,,,,,
,,668e9f712727a42b2e03eefe,2026-03-17_13h36.48.358,kallum_motion_pilot_GIST_update_2,2026.1.1,Win32,60.24096386,668e9f712727a42b2e03eefe,69b92ab4aef6dee357cd729a,69b92ffff03560543319f07c,0.0518,0.0518,0,78,78,83,1,sixeight,,,,,,,,,,,,,,,,,,,,,,,,,,,,,,,,,,,,,,,,,,,,,,,,,,,,,,,,,,,,,,,,,,,,,,,,,,,,,,,,,,,,,,,,,,,,,,,,,,,,,,,,,,,,,,,,,,,,,,,,,,,,,,,,,,,,,,,,,
,,668e9f712727a42b2e03eefe,2026-03-17_13h36.48.358,kallum_motion_pilot_GIST_update_2,2026.1.1,Win32,60.24096386,668e9f712727a42b2e03eefe,69b92ab4aef6dee357cd729a,69b92ffff03560543319f07c,0.0519,0.0519,0,79,79,116,1,sevenfive,,,,,,,,,,,,,,,,,,,,,,,,,,,,,,,,,,,,,,,,,,,,,,,,,,,,,,,,,,,,,,,,,,,,,,,,,,,,,,,,,,,,,,,,,,,,,,,,,,,,,,,,,,,,,,,,,,,,,,,,,,,,,,,,,,,,,,,,,
,,668e9f712727a42b2e03eefe,2026-03-17_13h36.48.358,kallum_motion_pilot_GIST_update_2,2026.1.1,Win32,60.24096386,668e9f712727a42b2e03eefe,69b92ab4aef6dee357cd729a,69b92ffff03560543319f07c,0.0521,0.0521,0,80,80,105,1,fiveseven,,,,,,,,,,,,,,,,,,,,,,,,,,,,,,,,,,,,,,,,,,,,,,,,,,,,,,,,,,,,,,,,,,,,,,,,,,,,,,,,,,,,,,,,,,,,,,,,,,,,,,,,,,,,,,,,,,,,,,,,,,,,,,,,,,,,,,,,,
,,668e9f712727a42b2e03eefe,2026-03-17_13h36.48.358,kallum_motion_pilot_GIST_update_2,2026.1.1,Win32,60.24096386,668e9f712727a42b2e03eefe,69b92ab4aef6dee357cd729a,69b92ffff03560543319f07c,0.0522,0.0522,0,81,81,110,1,eightsix,,,,,,,,,,,,,,,,,,,,,,,,,,,,,,,,,,,,,,,,,,,,,,,,,,,,,,,,,,,,,,,,,,,,,,,,,,,,,,,,,,,,,,,,,,,,,,,,,,,,,,,,,,,,,,,,,,,,,,,,,,,,,,,,,,,,,,,,,
,,668e9f712727a42b2e03eefe,2026-03-17_13h36.48.358,kallum_motion_pilot_GIST_update_2,2026.1.1,Win32,60.24096386,668e9f712727a42b2e03eefe,69b92ab4aef6dee357cd729a,69b92ffff03560543319f07c,0.0524,0.0524,0,82,82,155,1,sixeight,,,,,,,,,,,,,,,,,,,,,,,,,,,,,,,,,,,,,,,,,,,,,,,,,,,,,,,,,,,,,,,,,,,,,,,,,,,,,,,,,,,,,,,,,,,,,,,,,,,,,,,,,,,,,,,,,,,,,,,,,,,,,,,,,,,,,,,,,
,,668e9f712727a42b2e03eefe,2026-03-17_13h36.48.358,kallum_motion_pilot_GIST_update_2,2026.1.1,Win32,60.24096386,668e9f712727a42b2e03eefe,69b92ab4aef6dee357cd729a,69b92ffff03560543319f07c,0.0526,0.0526,0,83,83,93,1,seveneight,,,,,,,,,,,,,,,,,,,,,,,,,,,,,,,,,,,,,,,,,,,,,,,,,,,,,,,,,,,,,,,,,,,,,,,,,,,,,,,,,,,,,,,,,,,,,,,,,,,,,,,,,,,,,,,,,,,,,,,,,,,,,,,,,,,,,,,,,
,,668e9f712727a42b2e03eefe,2026-03-17_13h36.48.358,kallum_motion_pilot_GIST_update_2,2026.1.1,Win32,60.24096386,668e9f712727a42b2e03eefe,69b92ab4aef6dee357cd729a,69b92ffff03560543319f07c,0.0528,0.0528,0,84,84,78,1,fourtwo,,,,,,,,,,,,,,,,,,,,,,,,,,,,,,,,,,,,,,,,,,,,,,,,,,,,,,,,,,,,,,,,,,,,,,,,,,,,,,,,,,,,,,,,,,,,,,,,,,,,,,,,,,,,,,,,,,,,,,,,,,,,,,,,,,,,,,,,,
,,668e9f712727a42b2e03eefe,2026-03-17_13h36.48.358,kallum_motion_pilot_GIST_update_2,2026.1.1,Win32,60.24096386,668e9f712727a42b2e03eefe,69b92ab4aef6dee357cd729a,69b92ffff03560543319f07c,0.0531,0.0531,0,85,85,12,1,threeone,,,,,,,,,,,,,,,,,,,,,,,,,,,,,,,,,,,,,,,,,,,,,,,,,,,,,,,,,,,,,,,,,,,,,,,,,,,,,,,,,,,,,,,,,,,,,,,,,,,,,,,,,,,,,,,,,,,,,,,,,,,,,,,,,,,,,,,,,
,,668e9f712727a42b2e03eefe,2026-03-17_13h36.48.358,kallum_motion_pilot_GIST_update_2,2026.1.1,Win32,60.24096386,668e9f712727a42b2e03eefe,69b92ab4aef6dee357cd729a,69b92ffff03560543319f07c,0.0535,0.0535,0,86,86,106,1,sixfive,,,,,,,,,,,,,,,,,,,,,,,,,,,,,,,,,,,,,,,,,,,,,,,,,,,,,,,,,,,,,,,,,,,,,,,,,,,,,,,,,,,,,,,,,,,,,,,,,,,,,,,,,,,,,,,,,,,,,,,,,,,,,,,,,,,,,,,,,
,,668e9f712727a42b2e03eefe,2026-03-17_13h36.48.358,kallum_motion_pilot_GIST_update_2,2026.1.1,Win32,60.24096386,668e9f712727a42b2e03eefe,69b92ab4aef6dee357cd729a,69b92ffff03560543319f07c,0.0539,0.0539,0,87,87,102,1,eightsix,,,,,,,,,,,,,,,,,,,,,,,,,,,,,,,,,,,,,,,,,,,,,,,,,,,,,,,,,,,,,,,,,,,,,,,,,,,,,,,,,,,,,,,,,,,,,,,,,,,,,,,,,,,,,,,,,,,,,,,,,,,,,,,,,,,,,,,,,
,,668e9f712727a42b2e03eefe,2026-03-17_13h36.48.358,kallum_motion_pilot_GIST_update_2,2026.1.1,Win32,60.24096386,668e9f712727a42b2e03eefe,69b92ab4aef6dee357cd729a,69b92ffff03560543319f07c,0.0541,0.0541,0,88,88,158,1,eightsix,,,,,,,,,,,,,,,,,,,,,,,,,,,,,,,,,,,,,,,,,,,,,,,,,,,,,,,,,,,,,,,,,,,,,,,,,,,,,,,,,,,,,,,,,,,,,,,,,,,,,,,,,,,,,,,,,,,,,,,,,,,,,,,,,,,,,,,,,
,,668e9f712727a42b2e03eefe,2026-03-17_13h36.48.358,kallum_motion_pilot_GIST_update_2,2026.1.1,Win32,60.24096386,668e9f712727a42b2e03eefe,69b92ab4aef6dee357cd729a,69b92ffff03560543319f07c,0.0543,0.0543,0,89,89,1,1,onethree,,,,,,,,,,,,,,,,,,,,,,,,,,,,,,,,,,,,,,,,,,,,,,,,,,,,,,,,,,,,,,,,,,,,,,,,,,,,,,,,,,,,,,,,,,,,,,,,,,,,,,,,,,,,,,,,,,,,,,,,,,,,,,,,,,,,,,,,,
,,668e9f712727a42b2e03eefe,2026-03-17_13h36.48.358,kallum_motion_pilot_GIST_update_2,2026.1.1,Win32,60.24096386,668e9f712727a42b2e03eefe,69b92ab4aef6dee357cd729a,69b92ffff03560543319f07c,0.0545,0.0545,0,90,90,45,1,threefour,,,,,,,,,,,,,,,,,,,,,,,,,,,,,,,,,,,,,,,,,,,,,,,,,,,,,,,,,,,,,,,,,,,,,,,,,,,,,,,,,,,,,,,,,,,,,,,,,,,,,,,,,,,,,,,,,,,,,,,,,,,,,,,,,,,,,,,,,
,,668e9f712727a42b2e03eefe,2026-03-17_13h36.48.358,kallum_motion_pilot_GIST_update_2,2026.1.1,Win32,60.24096386,668e9f712727a42b2e03eefe,69b92ab4aef6dee357cd729a,69b92ffff03560543319f07c,0.0547,0.0547,0,91,91,4,1,threeone,,,,,,,,,,,,,,,,,,,,,,,,,,,,,,,,,,,,,,,,,,,,,,,,,,,,,,,,,,,,,,,,,,,,,,,,,,,,,,,,,,,,,,,,,,,,,,,,,,,,,,,,,,,,,,,,,,,,,,,,,,,,,,,,,,,,,,,,,
,,668e9f712727a42b2e03eefe,2026-03-17_13h36.48.358,kallum_motion_pilot_GIST_update_2,2026.1.1,Win32,60.24096386,668e9f712727a42b2e03eefe,69b92ab4aef6dee357cd729a,69b92ffff03560543319f07c,0.0548,0.0549,0,92,92,25,1,onethree,,,,,,,,,,,,,,,,,,,,,,,,,,,,,,,,,,,,,,,,,,,,,,,,,,,,,,,,,,,,,,,,,,,,,,,,,,,,,,,,,,,,,,,,,,,,,,,,,,,,,,,,,,,,,,,,,,,,,,,,,,,,,,,,,,,,,,,,,
,,668e9f712727a42b2e03eefe,2026-03-17_13h36.48.358,kallum_motion_pilot_GIST_update_2,2026.1.1,Win32,60.24096386,668e9f712727a42b2e03eefe,69b92ab4aef6dee357cd729a,69b92ffff03560543319f07c,0.055,0.055,0,93,93,127,1,eightseven,,,,,,,,,,,,,,,,,,,,,,,,,,,,,,,,,,,,,,,,,,,,,,,,,,,,,,,,,,,,,,,,,,,,,,,,,,,,,,,,,,,,,,,,,,,,,,,,,,,,,,,,,,,,,,,,,,,,,,,,,,,,,,,,,,,,,,,,,
,,668e9f712727a42b2e03eefe,2026-03-17_13h36.48.358,kallum_motion_pilot_GIST_update_2,2026.1.1,Win32,60.24096386,668e9f712727a42b2e03eefe,69b92ab4aef6dee357cd729a,69b92ffff03560543319f07c,0.0552,0.0552,0,94,94,141,1,seveneight,,,,,,,,,,,,,,,,,,,,,,,,,,,,,,,,,,,,,,,,,,,,,,,,,,,,,,,,,,,,,,,,,,,,,,,,,,,,,,,,,,,,,,,,,,,,,,,,,,,,,,,,,,,,,,,,,,,,,,,,,,,,,,,,,,,,,,,,,
,,668e9f712727a42b2e03eefe,2026-03-17_13h36.48.358,kallum_motion_pilot_GIST_update_2,2026.1.1,Win32,60.24096386,668e9f712727a42b2e03eefe,69b92ab4aef6dee357cd729a,69b92ffff03560543319f07c,0.0554,0.0554,0,95,95,152,1,fivesix,,,,,,,,,,,,,,,,,,,,,,,,,,,,,,,,,,,,,,,,,,,,,,,,,,,,,,,,,,,,,,,,,,,,,,,,,,,,,,,,,,,,,,,,,,,,,,,,,,,,,,,,,,,,,,,,,,,,,,,,,,,,,,,,,,,,,,,,,
,,668e9f712727a42b2e03eefe,2026-03-17_13h36.48.358,kallum_motion_pilot_GIST_update_2,2026.1.1,Win32,60.24096386,668e9f712727a42b2e03eefe,69b92ab4aef6dee357cd729a,69b92ffff03560543319f07c,0.0555,0.0556,0,96,96,23,1,fourthree,,,,,,,,,,,,,,,,,,,,,,,,,,,,,,,,,,,,,,,,,,,,,,,,,,,,,,,,,,,,,,,,,,,,,,,,,,,,,,,,,,,,,,,,,,,,,,,,,,,,,,,,,,,,,,,,,,,,,,,,,,,,,,,,,,,,,,,,,
,,668e9f712727a42b2e03eefe,2026-03-17_13h36.48.358,kallum_motion_pilot_GIST_update_2,2026.1.1,Win32,60.24096386,668e9f712727a42b2e03eefe,69b92ab4aef6dee357cd729a,69b92ffff03560543319f07c,0.0558,0.0558,0,97,97,69,1,threefour,,,,,,,,,,,,,,,,,,,,,,,,,,,,,,,,,,,,,,,,,,,,,,,,,,,,,,,,,,,,,,,,,,,,,,,,,,,,,,,,,,,,,,,,,,,,,,,,,,,,,,,,,,,,,,,,,,,,,,,,,,,,,,,,,,,,,,,,,
,,668e9f712727a42b2e03eefe,2026-03-17_13h36.48.358,kallum_motion_pilot_GIST_update_2,2026.1.1,Win32,60.24096386,668e9f712727a42b2e03eefe,69b92ab4aef6dee357cd729a,69b92ffff03560543319f07c,0.056,0.0561,0,98,98,144,1,fivesix,,,,,,,,,,,,,,,,,,,,,,,,,,,,,,,,,,,,,,,,,,,,,,,,,,,,,,,,,,,,,,,,,,,,,,,,,,,,,,,,,,,,,,,,,,,,,,,,,,,,,,,,,,,,,,,,,,,,,,,,,,,,,,,,,,,,,,,,,
,,668e9f712727a42b2e03eefe,2026-03-17_13h36.48.358,kallum_motion_pilot_GIST_update_2,2026.1.1,Win32,60.24096386,668e9f712727a42b2e03eefe,69b92ab4aef6dee357cd729a,69b92ffff03560543319f07c,0.0562,0.0562,0,99,99,149,1,seveneight,,,,,,,,,,,,,,,,,,,,,,,,,,,,,,,,,,,,,,,,,,,,,,,,,,,,,,,,,,,,,,,,,,,,,,,,,,,,,,,,,,,,,,,,,,,,,,,,,,,,,,,,,,,,,,,,,,,,,,,,,,,,,,,,,,,,,,,,,
,,668e9f712727a42b2e03eefe,2026-03-17_13h36.48.358,kallum_motion_pilot_GIST_update_2,2026.1.1,Win32,60.24096386,668e9f712727a42b2e03eefe,69b92ab4aef6dee357cd729a,69b92ffff03560543319f07c,0.0564,0.0564,0,100,100,39,1,fourthree,,,,,,,,,,,,,,,,,,,,,,,,,,,,,,,,,,,,,,,,,,,,,,,,,,,,,,,,,,,,,,,,,,,,,,,,,,,,,,,,,,,,,,,,,,,,,,,,,,,,,,,,,,,,,,,,,,,,,,,,,,,,,,,,,,,,,,,,,
,,668e9f712727a42b2e03eefe,2026-03-17_13h36.48.358,kallum_motion_pilot_GIST_update_2,2026.1.1,Win32,60.24096386,668e9f712727a42b2e03eefe,69b92ab4aef6dee357cd729a,69b92ffff03560543319f07c,0.0565,0.0565,0,101,101,121,1,fiveseven,,,,,,,,,,,,,,,,,,,,,,,,,,,,,,,,,,,,,,,,,,,,,,,,,,,,,,,,,,,,,,,,,,,,,,,,,,,,,,,,,,,,,,,,,,,,,,,,,,,,,,,,,,,,,,,,,,,,,,,,,,,,,,,,,,,,,,,,,
,,668e9f712727a42b2e03eefe,2026-03-17_13h36.48.358,kallum_motion_pilot_GIST_update_2,2026.1.1,Win32,60.24096386,668e9f712727a42b2e03eefe,69b92ab4aef6dee357cd729a,69b92ffff03560543319f07c,0.0567,0.0567,0,102,102,138,1,sixfive,,,,,,,,,,,,,,,,,,,,,,,,,,,,,,,,,,,,,,,,,,,,,,,,,,,,,,,,,,,,,,,,,,,,,,,,,,,,,,,,,,,,,,,,,,,,,,,,,,,,,,,,,,,,,,,,,,,,,,,,,,,,,,,,,,,,,,,,,
,,668e9f712727a42b2e03eefe,2026-03-17_13h36.48.358,kallum_motion_pilot_GIST_update_2,2026.1.1,Win32,60.24096386,668e9f712727a42b2e03eefe,69b92ab4aef6dee357cd729a,69b92ffff03560543319f07c,0.0568,0.0568,0,103,103,2,1,twoone,,,,,,,,,,,,,,,,,,,,,,,,,,,,,,,,,,,,,,,,,,,,,,,,,,,,,,,,,,,,,,,,,,,,,,,,,,,,,,,,,,,,,,,,,,,,,,,,,,,,,,,,,,,,,,,,,,,,,,,,,,,,,,,,,,,,,,,,,
,,668e9f712727a42b2e03eefe,2026-03-17_13h36.48.358,kallum_motion_pilot_GIST_update_2,2026.1.1,Win32,60.24096386,668e9f712727a42b2e03eefe,69b92ab4aef6dee357cd729a,69b92ffff03560543319f07c,0.057,0.057,0,104,104,32,1,onetwo,,,,,,,,,,,,,,,,,,,,,,,,,,,,,,,,,,,,,,,,,,,,,,,,,,,,,,,,,,,,,,,,,,,,,,,,,,,,,,,,,,,,,,,,,,,,,,,,,,,,,,,,,,,,,,,,,,,,,,,,,,,,,,,,,,,,,,,,,
,,668e9f712727a42b2e03eefe,2026-03-17_13h36.48.358,kallum_motion_pilot_GIST_update_2,2026.1.1,Win32,60.24096386,668e9f712727a42b2e03eefe,69b92ab4aef6dee357cd729a,69b92ffff03560543319f07c,0.0572,0.0572,0,105,105,42,1,twoone,,,,,,,,,,,,,,,,,,,,,,,,,,,,,,,,,,,,,,,,,,,,,,,,,,,,,,,,,,,,,,,,,,,,,,,,,,,,,,,,,,,,,,,,,,,,,,,,,,,,,,,,,,,,,,,,,,,,,,,,,,,,,,,,,,,,,,,,,
,,668e9f712727a42b2e03eefe,2026-03-17_13h36.48.358,kallum_motion_pilot_GIST_update_2,2026.1.1,Win32,60.24096386,668e9f712727a42b2e03eefe,69b92ab4aef6dee357cd729a,69b92ffff03560543319f07c,0.0574,0.0574,0,106,106,137,1,fiveseven,,,,,,,,,,,,,,,,,,,,,,,,,,,,,,,,,,,,,,,,,,,,,,,,,,,,,,,,,,,,,,,,,,,,,,,,,,,,,,,,,,,,,,,,,,,,,,,,,,,,,,,,,,,,,,,,,,,,,,,,,,,,,,,,,,,,,,,,,
,,668e9f712727a42b2e03eefe,2026-03-17_13h36.48.358,kallum_motion_pilot_GIST_update_2,2026.1.1,Win32,60.24096386,668e9f712727a42b2e03eefe,69b92ab4aef6dee357cd729a,69b92ffff03560543319f07c,0.0575,0.0575,0,107,107,135,1,eightseven,,,,,,,,,,,,,,,,,,,,,,,,,,,,,,,,,,,,,,,,,,,,,,,,,,,,,,,,,,,,,,,,,,,,,,,,,,,,,,,,,,,,,,,,,,,,,,,,,,,,,,,,,,,,,,,,,,,,,,,,,,,,,,,,,,,,,,,,,
,,668e9f712727a42b2e03eefe,2026-03-17_13h36.48.358,kallum_motion_pilot_GIST_update_2,2026.1.1,Win32,60.24096386,668e9f712727a42b2e03eefe,69b92ab4aef6dee357cd729a,69b92ffff03560543319f07c,0.0577,0.0577,0,108,108,67,1,twofour,,,,,,,,,,,,,,,,,,,,,,,,,,,,,,,,,,,,,,,,,,,,,,,,,,,,,,,,,,,,,,,,,,,,,,,,,,,,,,,,,,,,,,,,,,,,,,,,,,,,,,,,,,,,,,,,,,,,,,,,,,,,,,,,,,,,,,,,,
,,668e9f712727a42b2e03eefe,2026-03-17_13h36.48.358,kallum_motion_pilot_GIST_update_2,2026.1.1,Win32,60.24096386,668e9f712727a42b2e03eefe,69b92ab4aef6dee357cd729a,69b92ffff03560543319f07c,0.058,0.058,0,109,109,68,1,threeone,,,,,,,,,,,,,,,,,,,,,,,,,,,,,,,,,,,,,,,,,,,,,,,,,,,,,,,,,,,,,,,,,,,,,,,,,,,,,,,,,,,,,,,,,,,,,,,,,,,,,,,,,,,,,,,,,,,,,,,,,,,,,,,,,,,,,,,,,
,,668e9f712727a42b2e03eefe,2026-03-17_13h36.48.358,kallum_motion_pilot_GIST_update_2,2026.1.1,Win32,60.24096386,668e9f712727a42b2e03eefe,69b92ab4aef6dee357cd729a,69b92ffff03560543319f07c,0.0581,0.0581,0,110,110,7,1,fourthree,,,,,,,,,,,,,,,,,,,,,,,,,,,,,,,,,,,,,,,,,,,,,,,,,,,,,,,,,,,,,,,,,,,,,,,,,,,,,,,,,,,,,,,,,,,,,,,,,,,,,,,,,,,,,,,,,,,,,,,,,,,,,,,,,,,,,,,,,
,,668e9f712727a42b2e03eefe,2026-03-17_13h36.48.358,kallum_motion_pilot_GIST_update_2,2026.1.1,Win32,60.24096386,668e9f712727a42b2e03eefe,69b92ab4aef6dee357cd729a,69b92ffff03560543319f07c,0.0583,0.0583,0,111,111,17,1,onethree,,,,,,,,,,,,,,,,,,,,,,,,,,,,,,,,,,,,,,,,,,,,,,,,,,,,,,,,,,,,,,,,,,,,,,,,,,,,,,,,,,,,,,,,,,,,,,,,,,,,,,,,,,,,,,,,,,,,,,,,,,,,,,,,,,,,,,,,,
,,668e9f712727a42b2e03eefe,2026-03-17_13h36.48.358,kallum_motion_pilot_GIST_update_2,2026.1.1,Win32,60.24096386,668e9f712727a42b2e03eefe,69b92ab4aef6dee357cd729a,69b92ffff03560543319f07c,0.0585,0.0586,0,112,112,90,1,sixfive,,,,,,,,,,,,,,,,,,,,,,,,,,,,,,,,,,,,,,,,,,,,,,,,,,,,,,,,,,,,,,,,,,,,,,,,,,,,,,,,,,,,,,,,,,,,,,,,,,,,,,,,,,,,,,,,,,,,,,,,,,,,,,,,,,,,,,,,,
,,668e9f712727a42b2e03eefe,2026-03-17_13h36.48.358,kallum_motion_pilot_GIST_update_2,2026.1.1,Win32,60.24096386,668e9f712727a42b2e03eefe,69b92ab4aef6dee357cd729a,69b92ffff03560543319f07c,0.0587,0.0587,0,113,113,8,1,onetwo,,,,,,,,,,,,,,,,,,,,,,,,,,,,,,,,,,,,,,,,,,,,,,,,,,,,,,,,,,,,,,,,,,,,,,,,,,,,,,,,,,,,,,,,,,,,,,,,,,,,,,,,,,,,,,,,,,,,,,,,,,,,,,,,,,,,,,,,,
,,668e9f712727a42b2e03eefe,2026-03-17_13h36.48.358,kallum_motion_pilot_GIST_update_2,2026.1.1,Win32,60.24096386,668e9f712727a42b2e03eefe,69b92ab4aef6dee357cd729a,69b92ffff03560543319f07c,0.0589,0.0589,0,114,114,143,1,eightseven,,,,,,,,,,,,,,,,,,,,,,,,,,,,,,,,,,,,,,,,,,,,,,,,,,,,,,,,,,,,,,,,,,,,,,,,,,,,,,,,,,,,,,,,,,,,,,,,,,,,,,,,,,,,,,,,,,,,,,,,,,,,,,,,,,,,,,,,,
,,668e9f712727a42b2e03eefe,2026-03-17_13h36.48.358,kallum_motion_pilot_GIST_update_2,2026.1.1,Win32,60.24096386,668e9f712727a42b2e03eefe,69b92ab4aef6dee357cd729a,69b92ffff03560543319f07c,0.059,0.059,0,115,115,29,1,threefour,,,,,,,,,,,,,,,,,,,,,,,,,,,,,,,,,,,,,,,,,,,,,,,,,,,,,,,,,,,,,,,,,,,,,,,,,,,,,,,,,,,,,,,,,,,,,,,,,,,,,,,,,,,,,,,,,,,,,,,,,,,,,,,,,,,,,,,,,
,,668e9f712727a42b2e03eefe,2026-03-17_13h36.48.358,kallum_motion_pilot_GIST_update_2,2026.1.1,Win32,60.24096386,668e9f712727a42b2e03eefe,69b92ab4aef6dee357cd729a,69b92ffff03560543319f07c,0.0592,0.0592,0,116,116,22,1,fourtwo,,,,,,,,,,,,,,,,,,,,,,,,,,,,,,,,,,,,,,,,,,,,,,,,,,,,,,,,,,,,,,,,,,,,,,,,,,,,,,,,,,,,,,,,,,,,,,,,,,,,,,,,,,,,,,,,,,,,,,,,,,,,,,,,,,,,,,,,,
,,668e9f712727a42b2e03eefe,2026-03-17_13h36.48.358,kallum_motion_pilot_GIST_update_2,2026.1.1,Win32,60.24096386,668e9f712727a42b2e03eefe,69b92ab4aef6dee357cd729a,69b92ffff03560543319f07c,0.0595,0.0595,0,117,117,120,1,fivesix,,,,,,,,,,,,,,,,,,,,,,,,,,,,,,,,,,,,,,,,,,,,,,,,,,,,,,,,,,,,,,,,,,,,,,,,,,,,,,,,,,,,,,,,,,,,,,,,,,,,,,,,,,,,,,,,,,,,,,,,,,,,,,,,,,,,,,,,,
,,668e9f712727a42b2e03eefe,2026-03-17_13h36.48.358,kallum_motion_pilot_GIST_update_2,2026.1.1,Win32,60.24096386,668e9f712727a42b2e03eefe,69b92ab4aef6dee357cd729a,69b92ffff03560543319f07c,0.0596,0.0596,0,118,118,57,1,onethree,,,,,,,,,,,,,,,,,,,,,,,,,,,,,,,,,,,,,,,,,,,,,,,,,,,,,,,,,,,,,,,,,,,,,,,,,,,,,,,,,,,,,,,,,,,,,,,,,,,,,,,,,,,,,,,,,,,,,,,,,,,,,,,,,,,,,,,,,
,,668e9f712727a42b2e03eefe,2026-03-17_13h36.48.358,kallum_motion_pilot_GIST_update_2,2026.1.1,Win32,60.24096386,668e9f712727a42b2e03eefe,69b92ab4aef6dee357cd729a,69b92ffff03560543319f07c,0.0601,0.0601,0,119,119,64,1,onetwo,,,,,,,,,,,,,,,,,,,,,,,,,,,,,,,,,,,,,,,,,,,,,,,,,,,,,,,,,,,,,,,,,,,,,,,,,,,,,,,,,,,,,,,,,,,,,,,,,,,,,,,,,,,,,,,,,,,,,,,,,,,,,,,,,,,,,,,,,
,,668e9f712727a42b2e03eefe,2026-03-17_13h36.48.358,kallum_motion_pilot_GIST_update_2,2026.1.1,Win32,60.24096386,668e9f712727a42b2e03eefe,69b92ab4aef6dee357cd729a,69b92ffff03560543319f07c,0.0603,0.0603,0,120,120,59,1,twofour,,,,,,,,,,,,,,,,,,,,,,,,,,,,,,,,,,,,,,,,,,,,,,,,,,,,,,,,,,,,,,,,,,,,,,,,,,,,,,,,,,,,,,,,,,,,,,,,,,,,,,,,,,,,,,,,,,,,,,,,,,,,,,,,,,,,,,,,,
,,668e9f712727a42b2e03eefe,2026-03-17_13h36.48.358,kallum_motion_pilot_GIST_update_2,2026.1.1,Win32,60.24096386,668e9f712727a42b2e03eefe,69b92ab4aef6dee357cd729a,69b92ffff03560543319f07c,0.0607,0.0608,0,121,121,14,1,fourtwo,,,,,,,,,,,,,,,,,,,,,,,,,,,,,,,,,,,,,,,,,,,,,,,,,,,,,,,,,,,,,,,,,,,,,,,,,,,,,,,,,,,,,,,,,,,,,,,,,,,,,,,,,,,,,,,,,,,,,,,,,,,,,,,,,,,,,,,,,
,,668e9f712727a42b2e03eefe,2026-03-17_13h36.48.358,kallum_motion_pilot_GIST_update_2,2026.1.1,Win32,60.24096386,668e9f712727a42b2e03eefe,69b92ab4aef6dee357cd729a,69b92ffff03560543319f07c,0.0609,0.0609,0,122,122,10,1,twoone,,,,,,,,,,,,,,,,,,,,,,,,,,,,,,,,,,,,,,,,,,,,,,,,,,,,,,,,,,,,,,,,,,,,,,,,,,,,,,,,,,,,,,,,,,,,,,,,,,,,,,,,,,,,,,,,,,,,,,,,,,,,,,,,,,,,,,,,,
,,668e9f712727a42b2e03eefe,2026-03-17_13h36.48.358,kallum_motion_pilot_GIST_update_2,2026.1.1,Win32,60.24096386,668e9f712727a42b2e03eefe,69b92ab4aef6dee357cd729a,69b92ffff03560543319f07c,0.0613,0.0613,0,123,123,0,1,onetwo,,,,,,,,,,,,,,,,,,,,,,,,,,,,,,,,,,,,,,,,,,,,,,,,,,,,,,,,,,,,,,,,,,,,,,,,,,,,,,,,,,,,,,,,,,,,,,,,,,,,,,,,,,,,,,,,,,,,,,,,,,,,,,,,,,,,,,,,,
,,668e9f712727a42b2e03eefe,2026-03-17_13h36.48.358,kallum_motion_pilot_GIST_update_2,2026.1.1,Win32,60.24096386,668e9f712727a42b2e03eefe,69b92ab4aef6dee357cd729a,69b92ffff03560543319f07c,0.0617,0.0617,0,124,124,140,1,sevenfive,,,,,,,,,,,,,,,,,,,,,,,,,,,,,,,,,,,,,,,,,,,,,,,,,,,,,,,,,,,,,,,,,,,,,,,,,,,,,,,,,,,,,,,,,,,,,,,,,,,,,,,,,,,,,,,,,,,,,,,,,,,,,,,,,,,,,,,,,
,,668e9f712727a42b2e03eefe,2026-03-17_13h36.48.358,kallum_motion_pilot_GIST_update_2,2026.1.1,Win32,60.24096386,668e9f712727a42b2e03eefe,69b92ab4aef6dee357cd729a,69b92ffff03560543319f07c,0.0619,0.0619,0,125,125,146,1,sixfive,,,,,,,,,,,,,,,,,,,,,,,,,,,,,,,,,,,,,,,,,,,,,,,,,,,,,,,,,,,,,,,,,,,,,,,,,,,,,,,,,,,,,,,,,,,,,,,,,,,,,,,,,,,,,,,,,,,,,,,,,,,,,,,,,,,,,,,,,
,,668e9f712727a42b2e03eefe,2026-03-17_13h36.48.358,kallum_motion_pilot_GIST_update_2,2026.1.1,Win32,60.24096386,668e9f712727a42b2e03eefe,69b92ab4aef6dee357cd729a,69b92ffff03560543319f07c,0.0622,0.0622,0,126,126,133,1,seveneight,,,,,,,,,,,,,,,,,,,,,,,,,,,,,,,,,,,,,,,,,,,,,,,,,,,,,,,,,,,,,,,,,,,,,,,,,,,,,,,,,,,,,,,,,,,,,,,,,,,,,,,,,,,,,,,,,,,,,,,,,,,,,,,,,,,,,,,,,
,,668e9f712727a42b2e03eefe,2026-03-17_13h36.48.358,kallum_motion_pilot_GIST_update_2,2026.1.1,Win32,60.24096386,668e9f712727a42b2e03eefe,69b92ab4aef6dee357cd729a,69b92ffff03560543319f07c,0.0625,0.0625,0,127,127,126,1,eightsix,,,,,,,,,,,,,,,,,,,,,,,,,,,,,,,,,,,,,,,,,,,,,,,,,,,,,,,,,,,,,,,,,,,,,,,,,,,,,,,,,,,,,,,,,,,,,,,,,,,,,,,,,,,,,,,,,,,,,,,,,,,,,,,,,,,,,,,,,
,,668e9f712727a42b2e03eefe,2026-03-17_13h36.48.358,kallum_motion_pilot_GIST_update_2,2026.1.1,Win32,60.24096386,668e9f712727a42b2e03eefe,69b92ab4aef6dee357cd729a,69b92ffff03560543319f07c,0.0627,0.0627,0,128,128,109,1,seveneight,,,,,,,,,,,,,,,,,,,,,,,,,,,,,,,,,,,,,,,,,,,,,,,,,,,,,,,,,,,,,,,,,,,,,,,,,,,,,,,,,,,,,,,,,,,,,,,,,,,,,,,,,,,,,,,,,,,,,,,,,,,,,,,,,,,,,,,,,
,,668e9f712727a42b2e03eefe,2026-03-17_13h36.48.358,kallum_motion_pilot_GIST_update_2,2026.1.1,Win32,60.24096386,668e9f712727a42b2e03eefe,69b92ab4aef6dee357cd729a,69b92ffff03560543319f07c,0.0629,0.0629,0,129,129,47,1,fourthree,,,,,,,,,,,,,,,,,,,,,,,,,,,,,,,,,,,,,,,,,,,,,,,,,,,,,,,,,,,,,,,,,,,,,,,,,,,,,,,,,,,,,,,,,,,,,,,,,,,,,,,,,,,,,,,,,,,,,,,,,,,,,,,,,,,,,,,,,
,,668e9f712727a42b2e03eefe,2026-03-17_13h36.48.358,kallum_motion_pilot_GIST_update_2,2026.1.1,Win32,60.24096386,668e9f712727a42b2e03eefe,69b92ab4aef6dee357cd729a,69b92ffff03560543319f07c,0.0632,0.0632,0,130,130,151,1,eightseven,,,,,,,,,,,,,,,,,,,,,,,,,,,,,,,,,,,,,,,,,,,,,,,,,,,,,,,,,,,,,,,,,,,,,,,,,,,,,,,,,,,,,,,,,,,,,,,,,,,,,,,,,,,,,,,,,,,,,,,,,,,,,,,,,,,,,,,,,
,,668e9f712727a42b2e03eefe,2026-03-17_13h36.48.358,kallum_motion_pilot_GIST_update_2,2026.1.1,Win32,60.24096386,668e9f712727a42b2e03eefe,69b92ab4aef6dee357cd729a,69b92ffff03560543319f07c,0.0633,0.0633,0,131,131,161,1,fiveseven,,,,,,,,,,,,,,,,,,,,,,,,,,,,,,,,,,,,,,,,,,,,,,,,,,,,,,,,,,,,,,,,,,,,,,,,,,,,,,,,,,,,,,,,,,,,,,,,,,,,,,,,,,,,,,,,,,,,,,,,,,,,,,,,,,,,,,,,,
,,668e9f712727a42b2e03eefe,2026-03-17_13h36.48.358,kallum_motion_pilot_GIST_update_2,2026.1.1,Win32,60.24096386,668e9f712727a42b2e03eefe,69b92ab4aef6dee357cd729a,69b92ffff03560543319f07c,0.0636,0.0637,0,132,132,98,1,sixfive,,,,,,,,,,,,,,,,,,,,,,,,,,,,,,,,,,,,,,,,,,,,,,,,,,,,,,,,,,,,,,,,,,,,,,,,,,,,,,,,,,,,,,,,,,,,,,,,,,,,,,,,,,,,,,,,,,,,,,,,,,,,,,,,,,,,,,,,,
,,668e9f712727a42b2e03eefe,2026-03-17_13h36.48.358,kallum_motion_pilot_GIST_update_2,2026.1.1,Win32,60.24096386,668e9f712727a42b2e03eefe,69b92ab4aef6dee357cd729a,69b92ffff03560543319f07c,0.0641,0.0641,0,133,133,48,1,onetwo,,,,,,,,,,,,,,,,,,,,,,,,,,,,,,,,,,,,,,,,,,,,,,,,,,,,,,,,,,,,,,,,,,,,,,,,,,,,,,,,,,,,,,,,,,,,,,,,,,,,,,,,,,,,,,,,,,,,,,,,,,,,,,,,,,,,,,,,,
,,668e9f712727a42b2e03eefe,2026-03-17_13h36.48.358,kallum_motion_pilot_GIST_update_2,2026.1.1,Win32,60.24096386,668e9f712727a42b2e03eefe,69b92ab4aef6dee357cd729a,69b92ffff03560543319f07c,0.0643,0.0643,0,134,134,28,1,threeone,,,,,,,,,,,,,,,,,,,,,,,,,,,,,,,,,,,,,,,,,,,,,,,,,,,,,,,,,,,,,,,,,,,,,,,,,,,,,,,,,,,,,,,,,,,,,,,,,,,,,,,,,,,,,,,,,,,,,,,,,,,,,,,,,,,,,,,,,
,,668e9f712727a42b2e03eefe,2026-03-17_13h36.48.358,kallum_motion_pilot_GIST_update_2,2026.1.1,Win32,60.24096386,668e9f712727a42b2e03eefe,69b92ab4aef6dee357cd729a,69b92ffff03560543319f07c,0.0646,0.0646,0,135,135,92,1,sevenfive,,,,,,,,,,,,,,,,,,,,,,,,,,,,,,,,,,,,,,,,,,,,,,,,,,,,,,,,,,,,,,,,,,,,,,,,,,,,,,,,,,,,,,,,,,,,,,,,,,,,,,,,,,,,,,,,,,,,,,,,,,,,,,,,,,,,,,,,,
,,668e9f712727a42b2e03eefe,2026-03-17_13h36.48.358,kallum_motion_pilot_GIST_update_2,2026.1.1,Win32,60.24096386,668e9f712727a42b2e03eefe,69b92ab4aef6dee357cd729a,69b92ffff03560543319f07c,0.0648,0.0648,0,136,136,129,1,fiveseven,,,,,,,,,,,,,,,,,,,,,,,,,,,,,,,,,,,,,,,,,,,,,,,,,,,,,,,,,,,,,,,,,,,,,,,,,,,,,,,,,,,,,,,,,,,,,,,,,,,,,,,,,,,,,,,,,,,,,,,,,,,,,,,,,,,,,,,,,
,,668e9f712727a42b2e03eefe,2026-03-17_13h36.48.358,kallum_motion_pilot_GIST_update_2,2026.1.1,Win32,60.24096386,668e9f712727a42b2e03eefe,69b92ab4aef6dee357cd729a,69b92ffff03560543319f07c,0.065,0.065,0,137,137,72,1,onetwo,,,,,,,,,,,,,,,,,,,,,,,,,,,,,,,,,,,,,,,,,,,,,,,,,,,,,,,,,,,,,,,,,,,,,,,,,,,,,,,,,,,,,,,,,,,,,,,,,,,,,,,,,,,,,,,,,,,,,,,,,,,,,,,,,,,,,,,,,
,,668e9f712727a42b2e03eefe,2026-03-17_13h36.48.358,kallum_motion_pilot_GIST_update_2,2026.1.1,Win32,60.24096386,668e9f712727a42b2e03eefe,69b92ab4aef6dee357cd729a,69b92ffff03560543319f07c,0.0651,0.0652,0,138,138,19,1,twofour,,,,,,,,,,,,,,,,,,,,,,,,,,,,,,,,,,,,,,,,,,,,,,,,,,,,,,,,,,,,,,,,,,,,,,,,,,,,,,,,,,,,,,,,,,,,,,,,,,,,,,,,,,,,,,,,,,,,,,,,,,,,,,,,,,,,,,,,,
,,668e9f712727a42b2e03eefe,2026-03-17_13h36.48.358,kallum_motion_pilot_GIST_update_2,2026.1.1,Win32,60.24096386,668e9f712727a42b2e03eefe,69b92ab4aef6dee357cd729a,69b92ffff03560543319f07c,0.0654,0.0654,0,139,139,82,1,sixfive,,,,,,,,,,,,,,,,,,,,,,,,,,,,,,,,,,,,,,,,,,,,,,,,,,,,,,,,,,,,,,,,,,,,,,,,,,,,,,,,,,,,,,,,,,,,,,,,,,,,,,,,,,,,,,,,,,,,,,,,,,,,,,,,,,,,,,,,,
,,668e9f712727a42b2e03eefe,2026-03-17_13h36.48.358,kallum_motion_pilot_GIST_update_2,2026.1.1,Win32,60.24096386,668e9f712727a42b2e03eefe,69b92ab4aef6dee357cd729a,69b92ffff03560543319f07c,0.0656,0.0656,0,140,140,84,1,sevenfive,,,,,,,,,,,,,,,,,,,,,,,,,,,,,,,,,,,,,,,,,,,,,,,,,,,,,,,,,,,,,,,,,,,,,,,,,,,,,,,,,,,,,,,,,,,,,,,,,,,,,,,,,,,,,,,,,,,,,,,,,,,,,,,,,,,,,,,,,
,,668e9f712727a42b2e03eefe,2026-03-17_13h36.48.358,kallum_motion_pilot_GIST_update_2,2026.1.1,Win32,60.24096386,668e9f712727a42b2e03eefe,69b92ab4aef6dee357cd729a,69b92ffff03560543319f07c,0.0659,0.0659,0,141,141,119,1,eightseven,,,,,,,,,,,,,,,,,,,,,,,,,,,,,,,,,,,,,,,,,,,,,,,,,,,,,,,,,,,,,,,,,,,,,,,,,,,,,,,,,,,,,,,,,,,,,,,,,,,,,,,,,,,,,,,,,,,,,,,,,,,,,,,,,,,,,,,,,
,,668e9f712727a42b2e03eefe,2026-03-17_13h36.48.358,kallum_motion_pilot_GIST_update_2,2026.1.1,Win32,60.24096386,668e9f712727a42b2e03eefe,69b92ab4aef6dee357cd729a,69b92ffff03560543319f07c,0.0661,0.0661,0,142,142,73,1,onethree,,,,,,,,,,,,,,,,,,,,,,,,,,,,,,,,,,,,,,,,,,,,,,,,,,,,,,,,,,,,,,,,,,,,,,,,,,,,,,,,,,,,,,,,,,,,,,,,,,,,,,,,,,,,,,,,,,,,,,,,,,,,,,,,,,,,,,,,,
,,668e9f712727a42b2e03eefe,2026-03-17_13h36.48.358,kallum_motion_pilot_GIST_update_2,2026.1.1,Win32,60.24096386,668e9f712727a42b2e03eefe,69b92ab4aef6dee357cd729a,69b92ffff03560543319f07c,0.0663,0.0663,0,143,143,3,1,twofour,,,,,,,,,,,,,,,,,,,,,,,,,,,,,,,,,,,,,,,,,,,,,,,,,,,,,,,,,,,,,,,,,,,,,,,,,,,,,,,,,,,,,,,,,,,,,,,,,,,,,,,,,,,,,,,,,,,,,,,,,,,,,,,,,,,,,,,,,
,,668e9f712727a42b2e03eefe,2026-03-17_13h36.48.358,kallum_motion_pilot_GIST_update_2,2026.1.1,Win32,60.24096386,668e9f712727a42b2e03eefe,69b92ab4aef6dee357cd729a,69b92ffff03560543319f07c,0.0664,0.0664,0,144,144,62,1,fourtwo,,,,,,,,,,,,,,,,,,,,,,,,,,,,,,,,,,,,,,,,,,,,,,,,,,,,,,,,,,,,,,,,,,,,,,,,,,,,,,,,,,,,,,,,,,,,,,,,,,,,,,,,,,,,,,,,,,,,,,,,,,,,,,,,,,,,,,,,,
,,668e9f712727a42b2e03eefe,2026-03-17_13h36.48.358,kallum_motion_pilot_GIST_update_2,2026.1.1,Win32,60.24096386,668e9f712727a42b2e03eefe,69b92ab4aef6dee357cd729a,69b92ffff03560543319f07c,0.0666,0.0666,0,145,145,63,1,fourthree,,,,,,,,,,,,,,,,,,,,,,,,,,,,,,,,,,,,,,,,,,,,,,,,,,,,,,,,,,,,,,,,,,,,,,,,,,,,,,,,,,,,,,,,,,,,,,,,,,,,,,,,,,,,,,,,,,,,,,,,,,,,,,,,,,,,,,,,,
,,668e9f712727a42b2e03eefe,2026-03-17_13h36.48.358,kallum_motion_pilot_GIST_update_2,2026.1.1,Win32,60.24096386,668e9f712727a42b2e03eefe,69b92ab4aef6dee357cd729a,69b92ffff03560543319f07c,0.0668,0.0668,0,146,146,136,1,fivesix,,,,,,,,,,,,,,,,,,,,,,,,,,,,,,,,,,,,,,,,,,,,,,,,,,,,,,,,,,,,,,,,,,,,,,,,,,,,,,,,,,,,,,,,,,,,,,,,,,,,,,,,,,,,,,,,,,,,,,,,,,,,,,,,,,,,,,,,,
,,668e9f712727a42b2e03eefe,2026-03-17_13h36.48.358,kallum_motion_pilot_GIST_update_2,2026.1.1,Win32,60.24096386,668e9f712727a42b2e03eefe,69b92ab4aef6dee357cd729a,69b92ffff03560543319f07c,0.067,0.067,0,147,147,113,1,fiveseven,,,,,,,,,,,,,,,,,,,,,,,,,,,,,,,,,,,,,,,,,,,,,,,,,,,,,,,,,,,,,,,,,,,,,,,,,,,,,,,,,,,,,,,,,,,,,,,,,,,,,,,,,,,,,,,,,,,,,,,,,,,,,,,,,,,,,,,,,
,,668e9f712727a42b2e03eefe,2026-03-17_13h36.48.358,kallum_motion_pilot_GIST_update_2,2026.1.1,Win32,60.24096386,668e9f712727a42b2e03eefe,69b92ab4aef6dee357cd729a,69b92ffff03560543319f07c,0.0673,0.0673,0,148,148,101,1,seveneight,,,,,,,,,,,,,,,,,,,,,,,,,,,,,,,,,,,,,,,,,,,,,,,,,,,,,,,,,,,,,,,,,,,,,,,,,,,,,,,,,,,,,,,,,,,,,,,,,,,,,,,,,,,,,,,,,,,,,,,,,,,,,,,,,,,,,,,,,
,,668e9f712727a42b2e03eefe,2026-03-17_13h36.48.358,kallum_motion_pilot_GIST_update_2,2026.1.1,Win32,60.24096386,668e9f712727a42b2e03eefe,69b92ab4aef6dee357cd729a,69b92ffff03560543319f07c,0.0674,0.0674,0,149,149,96,1,fivesix,,,,,,,,,,,,,,,,,,,,,,,,,,,,,,,,,,,,,,,,,,,,,,,,,,,,,,,,,,,,,,,,,,,,,,,,,,,,,,,,,,,,,,,,,,,,,,,,,,,,,,,,,,,,,,,,,,,,,,,,,,,,,,,,,,,,,,,,,
,,668e9f712727a42b2e03eefe,2026-03-17_13h36.48.358,kallum_motion_pilot_GIST_update_2,2026.1.1,Win32,60.24096386,668e9f712727a42b2e03eefe,69b92ab4aef6dee357cd729a,69b92ffff03560543319f07c,0.0676,0.0676,0,150,150,31,1,fourthree,,,,,,,,,,,,,,,,,,,,,,,,,,,,,,,,,,,,,,,,,,,,,,,,,,,,,,,,,,,,,,,,,,,,,,,,,,,,,,,,,,,,,,,,,,,,,,,,,,,,,,,,,,,,,,,,,,,,,,,,,,,,,,,,,,,,,,,,,
,,668e9f712727a42b2e03eefe,2026-03-17_13h36.48.358,kallum_motion_pilot_GIST_update_2,2026.1.1,Win32,60.24096386,668e9f712727a42b2e03eefe,69b92ab4aef6dee357cd729a,69b92ffff03560543319f07c,0.0678,0.0678,0,151,151,147,1,sixeight,,,,,,,,,,,,,,,,,,,,,,,,,,,,,,,,,,,,,,,,,,,,,,,,,,,,,,,,,,,,,,,,,,,,,,,,,,,,,,,,,,,,,,,,,,,,,,,,,,,,,,,,,,,,,,,,,,,,,,,,,,,,,,,,,,,,,,,,,
,,668e9f712727a42b2e03eefe,2026-03-17_13h36.48.358,kallum_motion_pilot_GIST_update_2,2026.1.1,Win32,60.24096386,668e9f712727a42b2e03eefe,69b92ab4aef6dee357cd729a,69b92ffff03560543319f07c,0.068,0.068,0,152,152,79,1,eightseven,,,,,,,,,,,,,,,,,,,,,,,,,,,,,,,,,,,,,,,,,,,,,,,,,,,,,,,,,,,,,,,,,,,,,,,,,,,,,,,,,,,,,,,,,,,,,,,,,,,,,,,,,,,,,,,,,,,,,,,,,,,,,,,,,,,,,,,,,
,,668e9f712727a42b2e03eefe,2026-03-17_13h36.48.358,kallum_motion_pilot_GIST_update_2,2026.1.1,Win32,60.24096386,668e9f712727a42b2e03eefe,69b92ab4aef6dee357cd729a,69b92ffff03560543319f07c,0.0681,0.0682,0,153,153,111,1,eightseven,,,,,,,,,,,,,,,,,,,,,,,,,,,,,,,,,,,,,,,,,,,,,,,,,,,,,,,,,,,,,,,,,,,,,,,,,,,,,,,,,,,,,,,,,,,,,,,,,,,,,,,,,,,,,,,,,,,,,,,,,,,,,,,,,,,,,,,,,
,,668e9f712727a42b2e03eefe,2026-03-17_13h36.48.358,kallum_motion_pilot_GIST_update_2,2026.1.1,Win32,60.24096386,668e9f712727a42b2e03eefe,69b92ab4aef6dee357cd729a,69b92ffff03560543319f07c,0.0684,0.0684,0,154,154,33,1,onethree,,,,,,,,,,,,,,,,,,,,,,,,,,,,,,,,,,,,,,,,,,,,,,,,,,,,,,,,,,,,,,,,,,,,,,,,,,,,,,,,,,,,,,,,,,,,,,,,,,,,,,,,,,,,,,,,,,,,,,,,,,,,,,,,,,,,,,,,,
,,668e9f712727a42b2e03eefe,2026-03-17_13h36.48.358,kallum_motion_pilot_GIST_update_2,2026.1.1,Win32,60.24096386,668e9f712727a42b2e03eefe,69b92ab4aef6dee357cd729a,69b92ffff03560543319f07c,0.0686,0.0686,0,155,155,13,1,threefour,,,,,,,,,,,,,,,,,,,,,,,,,,,,,,,,,,,,,,,,,,,,,,,,,,,,,,,,,,,,,,,,,,,,,,,,,,,,,,,,,,,,,,,,,,,,,,,,,,,,,,,,,,,,,,,,,,,,,,,,,,,,,,,,,,,,,,,,,
,,668e9f712727a42b2e03eefe,2026-03-17_13h36.48.358,kallum_motion_pilot_GIST_update_2,2026.1.1,Win32,60.24096386,668e9f712727a42b2e03eefe,69b92ab4aef6dee357cd729a,69b92ffff03560543319f07c,0.0688,0.0688,0,156,156,139,1,sixeight,,,,,,,,,,,,,,,,,,,,,,,,,,,,,,,,,,,,,,,,,,,,,,,,,,,,,,,,,,,,,,,,,,,,,,,,,,,,,,,,,,,,,,,,,,,,,,,,,,,,,,,,,,,,,,,,,,,,,,,,,,,,,,,,,,,,,,,,,
,,668e9f712727a42b2e03eefe,2026-03-17_13h36.48.358,kallum_motion_pilot_GIST_update_2,2026.1.1,Win32,60.24096386,668e9f712727a42b2e03eefe,69b92ab4aef6dee357cd729a,69b92ffff03560543319f07c,0.0691,0.0691,0,157,157,87,1,eightseven,,,,,,,,,,,,,,,,,,,,,,,,,,,,,,,,,,,,,,,,,,,,,,,,,,,,,,,,,,,,,,,,,,,,,,,,,,,,,,,,,,,,,,,,,,,,,,,,,,,,,,,,,,,,,,,,,,,,,,,,,,,,,,,,,,,,,,,,,
,,668e9f712727a42b2e03eefe,2026-03-17_13h36.48.358,kallum_motion_pilot_GIST_update_2,2026.1.1,Win32,60.24096386,668e9f712727a42b2e03eefe,69b92ab4aef6dee357cd729a,69b92ffff03560543319f07c,0.0693,0.0693,0,158,158,16,1,onetwo,,,,,,,,,,,,,,,,,,,,,,,,,,,,,,,,,,,,,,,,,,,,,,,,,,,,,,,,,,,,,,,,,,,,,,,,,,,,,,,,,,,,,,,,,,,,,,,,,,,,,,,,,,,,,,,,,,,,,,,,,,,,,,,,,,,,,,,,,
,,668e9f712727a42b2e03eefe,2026-03-17_13h36.48.358,kallum_motion_pilot_GIST_update_2,2026.1.1,Win32,60.24096386,668e9f712727a42b2e03eefe,69b92ab4aef6dee357cd729a,69b92ffff03560543319f07c,0.0694,0.0694,0,159,159,27,1,twofour,,,,,,,,,,,,,,,,,,,,,,,,,,,,,,,,,,,,,,,,,,,,,,,,,,,,,,,,,,,,,,,,,,,,,,,,,,,,,,,,,,,,,,,,,,,,,,,,,,,,,,,,,,,,,,,,,,,,,,,,,,,,,,,,,,,,,,,,,
,,668e9f712727a42b2e03eefe,2026-03-17_13h36.48.358,kallum_motion_pilot_GIST_update_2,2026.1.1,Win32,60.24096386,668e9f712727a42b2e03eefe,69b92ab4aef6dee357cd729a,69b92ffff03560543319f07c,0.0697,0.0697,0,160,160,97,1,fiveseven,,,,,,,,,,,,,,,,,,,,,,,,,,,,,,,,,,,,,,,,,,,,,,,,,,,,,,,,,,,,,,,,,,,,,,,,,,,,,,,,,,,,,,,,,,,,,,,,,,,,,,,,,,,,,,,,,,,,,,,,,,,,,,,,,,,,,,,,,
,,668e9f712727a42b2e03eefe,2026-03-17_13h36.48.358,kallum_motion_pilot_GIST_update_2,2026.1.1,Win32,60.24096386,668e9f712727a42b2e03eefe,69b92ab4aef6dee357cd729a,69b92ffff03560543319f07c,0.0699,0.0699,0,161,161,66,1,twoone,,,,,,,,,,,,,,,,,,,,,,,,,,,,,,,,,,,,,,,,,,,,,,,,,,,,,,,,,,,,,,,,,,,,,,,,,,,,,,,,,,,,,,,,,,,,,,,,,,,,,,,,,,,,,,,,,,,,,,,,,,,,,,,,,,,,,,,,,
,,668e9f712727a42b2e03eefe,2026-03-17_13h36.48.358,kallum_motion_pilot_GIST_update_2,2026.1.1,Win32,60.24096386,668e9f712727a42b2e03eefe,69b92ab4aef6dee357cd729a,69b92ffff03560543319f07c,0.0701,0.0701,1,0,162,133,1,seveneight,,,,,,,,,,,,,,,,,,,,,,,,,,,,,,,,,,,,,,,,,,,,,,,,,,,,,,,,,,,,,,,,,,,,,,,,,,,,,,,,,,,,,,,,,,,,,,,,,,,,,,,,,,,,,,,,,,,,,,,,,,,,,,,,,,,,,,,,,
,,668e9f712727a42b2e03eefe,2026-03-17_13h36.48.358,kallum_motion_pilot_GIST_update_2,2026.1.1,Win32,60.24096386,668e9f712727a42b2e03eefe,69b92ab4aef6dee357cd729a,69b92ffff03560543319f07c,0.0704,0.0704,1,1,163,3,1,twofour,,,,,,,,,,,,,,,,,,,,,,,,,,,,,,,,,,,,,,,,,,,,,,,,,,,,,,,,,,,,,,,,,,,,,,,,,,,,,,,,,,,,,,,,,,,,,,,,,,,,,,,,,,,,,,,,,,,,,,,,,,,,,,,,,,,,,,,,,
,,668e9f712727a42b2e03eefe,2026-03-17_13h36.48.358,kallum_motion_pilot_GIST_update_2,2026.1.1,Win32,60.24096386,668e9f712727a42b2e03eefe,69b92ab4aef6dee357cd729a,69b92ffff03560543319f07c,0.0706,0.0706,1,2,164,91,1,sixeight,,,,,,,,,,,,,,,,,,,,,,,,,,,,,,,,,,,,,,,,,,,,,,,,,,,,,,,,,,,,,,,,,,,,,,,,,,,,,,,,,,,,,,,,,,,,,,,,,,,,,,,,,,,,,,,,,,,,,,,,,,,,,,,,,,,,,,,,,
,,668e9f712727a42b2e03eefe,2026-03-17_13h36.48.358,kallum_motion_pilot_GIST_update_2,2026.1.1,Win32,60.24096386,668e9f712727a42b2e03eefe,69b92ab4aef6dee357cd729a,69b92ffff03560543319f07c,0.0708,0.0708,1,3,165,69,1,threefour,,,,,,,,,,,,,,,,,,,,,,,,,,,,,,,,,,,,,,,,,,,,,,,,,,,,,,,,,,,,,,,,,,,,,,,,,,,,,,,,,,,,,,,,,,,,,,,,,,,,,,,,,,,,,,,,,,,,,,,,,,,,,,,,,,,,,,,,,
,,668e9f712727a42b2e03eefe,2026-03-17_13h36.48.358,kallum_motion_pilot_GIST_update_2,2026.1.1,Win32,60.24096386,668e9f712727a42b2e03eefe,69b92ab4aef6dee357cd729a,69b92ffff03560543319f07c,0.0709,0.0709,1,4,166,113,1,fiveseven,,,,,,,,,,,,,,,,,,,,,,,,,,,,,,,,,,,,,,,,,,,,,,,,,,,,,,,,,,,,,,,,,,,,,,,,,,,,,,,,,,,,,,,,,,,,,,,,,,,,,,,,,,,,,,,,,,,,,,,,,,,,,,,,,,,,,,,,,
,,668e9f712727a42b2e03eefe,2026-03-17_13h36.48.358,kallum_motion_pilot_GIST_update_2,2026.1.1,Win32,60.24096386,668e9f712727a42b2e03eefe,69b92ab4aef6dee357cd729a,69b92ffff03560543319f07c,0.0712,0.0712,1,5,167,105,1,fiveseven,,,,,,,,,,,,,,,,,,,,,,,,,,,,,,,,,,,,,,,,,,,,,,,,,,,,,,,,,,,,,,,,,,,,,,,,,,,,,,,,,,,,,,,,,,,,,,,,,,,,,,,,,,,,,,,,,,,,,,,,,,,,,,,,,,,,,,,,,
,,668e9f712727a42b2e03eefe,2026-03-17_13h36.48.358,kallum_motion_pilot_GIST_update_2,2026.1.1,Win32,60.24096386,668e9f712727a42b2e03eefe,69b92ab4aef6dee357cd729a,69b92ffff03560543319f07c,0.0713,0.0713,1,6,168,101,1,seveneight,,,,,,,,,,,,,,,,,,,,,,,,,,,,,,,,,,,,,,,,,,,,,,,,,,,,,,,,,,,,,,,,,,,,,,,,,,,,,,,,,,,,,,,,,,,,,,,,,,,,,,,,,,,,,,,,,,,,,,,,,,,,,,,,,,,,,,,,,
,,668e9f712727a42b2e03eefe,2026-03-17_13h36.48.358,kallum_motion_pilot_GIST_update_2,2026.1.1,Win32,60.24096386,668e9f712727a42b2e03eefe,69b92ab4aef6dee357cd729a,69b92ffff03560543319f07c,0.0715,0.0715,1,7,169,66,1,twoone,,,,,,,,,,,,,,,,,,,,,,,,,,,,,,,,,,,,,,,,,,,,,,,,,,,,,,,,,,,,,,,,,,,,,,,,,,,,,,,,,,,,,,,,,,,,,,,,,,,,,,,,,,,,,,,,,,,,,,,,,,,,,,,,,,,,,,,,,
,,668e9f712727a42b2e03eefe,2026-03-17_13h36.48.358,kallum_motion_pilot_GIST_update_2,2026.1.1,Win32,60.24096386,668e9f712727a42b2e03eefe,69b92ab4aef6dee357cd729a,69b92ffff03560543319f07c,0.0718,0.0718,1,8,170,140,1,sevenfive,,,,,,,,,,,,,,,,,,,,,,,,,,,,,,,,,,,,,,,,,,,,,,,,,,,,,,,,,,,,,,,,,,,,,,,,,,,,,,,,,,,,,,,,,,,,,,,,,,,,,,,,,,,,,,,,,,,,,,,,,,,,,,,,,,,,,,,,,
,,668e9f712727a42b2e03eefe,2026-03-17_13h36.48.358,kallum_motion_pilot_GIST_update_2,2026.1.1,Win32,60.24096386,668e9f712727a42b2e03eefe,69b92ab4aef6dee357cd729a,69b92ffff03560543319f07c,0.072,0.072,1,9,171,22,1,fourtwo,,,,,,,,,,,,,,,,,,,,,,,,,,,,,,,,,,,,,,,,,,,,,,,,,,,,,,,,,,,,,,,,,,,,,,,,,,,,,,,,,,,,,,,,,,,,,,,,,,,,,,,,,,,,,,,,,,,,,,,,,,,,,,,,,,,,,,,,,
,,668e9f712727a42b2e03eefe,2026-03-17_13h36.48.358,kallum_motion_pilot_GIST_update_2,2026.1.1,Win32,60.24096386,668e9f712727a42b2e03eefe,69b92ab4aef6dee357cd729a,69b92ffff03560543319f07c,0.0721,0.0721,1,10,172,49,1,onethree,,,,,,,,,,,,,,,,,,,,,,,,,,,,,,,,,,,,,,,,,,,,,,,,,,,,,,,,,,,,,,,,,,,,,,,,,,,,,,,,,,,,,,,,,,,,,,,,,,,,,,,,,,,,,,,,,,,,,,,,,,,,,,,,,,,,,,,,,
,,668e9f712727a42b2e03eefe,2026-03-17_13h36.48.358,kallum_motion_pilot_GIST_update_2,2026.1.1,Win32,60.24096386,668e9f712727a42b2e03eefe,69b92ab4aef6dee357cd729a,69b92ffff03560543319f07c,0.0723,0.0723,1,11,173,19,1,twofour,,,,,,,,,,,,,,,,,,,,,,,,,,,,,,,,,,,,,,,,,,,,,,,,,,,,,,,,,,,,,,,,,,,,,,,,,,,,,,,,,,,,,,,,,,,,,,,,,,,,,,,,,,,,,,,,,,,,,,,,,,,,,,,,,,,,,,,,,
,,668e9f712727a42b2e03eefe,2026-03-17_13h36.48.358,kallum_motion_pilot_GIST_update_2,2026.1.1,Win32,60.24096386,668e9f712727a42b2e03eefe,69b92ab4aef6dee357cd729a,69b92ffff03560543319f07c,0.0725,0.0725,1,12,174,2,1,twoone,,,,,,,,,,,,,,,,,,,,,,,,,,,,,,,,,,,,,,,,,,,,,,,,,,,,,,,,,,,,,,,,,,,,,,,,,,,,,,,,,,,,,,,,,,,,,,,,,,,,,,,,,,,,,,,,,,,,,,,,,,,,,,,,,,,,,,,,,
,,668e9f712727a42b2e03eefe,2026-03-17_13h36.48.358,kallum_motion_pilot_GIST_update_2,2026.1.1,Win32,60.24096386,668e9f712727a42b2e03eefe,69b92ab4aef6dee357cd729a,69b92ffff03560543319f07c,0.0726,0.0726,1,13,175,6,1,fourtwo,,,,,,,,,,,,,,,,,,,,,,,,,,,,,,,,,,,,,,,,,,,,,,,,,,,,,,,,,,,,,,,,,,,,,,,,,,,,,,,,,,,,,,,,,,,,,,,,,,,,,,,,,,,,,,,,,,,,,,,,,,,,,,,,,,,,,,,,,
,,668e9f712727a42b2e03eefe,2026-03-17_13h36.48.358,kallum_motion_pilot_GIST_update_2,2026.1.1,Win32,60.24096386,668e9f712727a42b2e03eefe,69b92ab4aef6dee357cd729a,69b92ffff03560543319f07c,0.0728,0.0728,1,14,176,127,1,eightseven,,,,,,,,,,,,,,,,,,,,,,,,,,,,,,,,,,,,,,,,,,,,,,,,,,,,,,,,,,,,,,,,,,,,,,,,,,,,,,,,,,,,,,,,,,,,,,,,,,,,,,,,,,,,,,,,,,,,,,,,,,,,,,,,,,,,,,,,,
,,668e9f712727a42b2e03eefe,2026-03-17_13h36.48.358,kallum_motion_pilot_GIST_update_2,2026.1.1,Win32,60.24096386,668e9f712727a42b2e03eefe,69b92ab4aef6dee357cd729a,69b92ffff03560543319f07c,0.0732,0.0732,1,15,177,17,1,onethree,,,,,,,,,,,,,,,,,,,,,,,,,,,,,,,,,,,,,,,,,,,,,,,,,,,,,,,,,,,,,,,,,,,,,,,,,,,,,,,,,,,,,,,,,,,,,,,,,,,,,,,,,,,,,,,,,,,,,,,,,,,,,,,,,,,,,,,,,
,,668e9f712727a42b2e03eefe,2026-03-17_13h36.48.358,kallum_motion_pilot_GIST_update_2,2026.1.1,Win32,60.24096386,668e9f712727a42b2e03eefe,69b92ab4aef6dee357cd729a,69b92ffff03560543319f07c,0.0736,0.0736,1,16,178,64,1,onetwo,,,,,,,,,,,,,,,,,,,,,,,,,,,,,,,,,,,,,,,,,,,,,,,,,,,,,,,,,,,,,,,,,,,,,,,,,,,,,,,,,,,,,,,,,,,,,,,,,,,,,,,,,,,,,,,,,,,,,,,,,,,,,,,,,,,,,,,,,
,,668e9f712727a42b2e03eefe,2026-03-17_13h36.48.358,kallum_motion_pilot_GIST_update_2,2026.1.1,Win32,60.24096386,668e9f712727a42b2e03eefe,69b92ab4aef6dee357cd729a,69b92ffff03560543319f07c,0.0739,0.0739,1,17,179,70,1,fourtwo,,,,,,,,,,,,,,,,,,,,,,,,,,,,,,,,,,,,,,,,,,,,,,,,,,,,,,,,,,,,,,,,,,,,,,,,,,,,,,,,,,,,,,,,,,,,,,,,,,,,,,,,,,,,,,,,,,,,,,,,,,,,,,,,,,,,,,,,,
,,668e9f712727a42b2e03eefe,2026-03-17_13h36.48.358,kallum_motion_pilot_GIST_update_2,2026.1.1,Win32,60.24096386,668e9f712727a42b2e03eefe,69b92ab4aef6dee357cd729a,69b92ffff03560543319f07c,0.0742,0.0742,1,18,180,7,1,fourthree,,,,,,,,,,,,,,,,,,,,,,,,,,,,,,,,,,,,,,,,,,,,,,,,,,,,,,,,,,,,,,,,,,,,,,,,,,,,,,,,,,,,,,,,,,,,,,,,,,,,,,,,,,,,,,,,,,,,,,,,,,,,,,,,,,,,,,,,,
,,668e9f712727a42b2e03eefe,2026-03-17_13h36.48.358,kallum_motion_pilot_GIST_update_2,2026.1.1,Win32,60.24096386,668e9f712727a42b2e03eefe,69b92ab4aef6dee357cd729a,69b92ffff03560543319f07c,0.0745,0.0745,1,19,181,4,1,threeone,,,,,,,,,,,,,,,,,,,,,,,,,,,,,,,,,,,,,,,,,,,,,,,,,,,,,,,,,,,,,,,,,,,,,,,,,,,,,,,,,,,,,,,,,,,,,,,,,,,,,,,,,,,,,,,,,,,,,,,,,,,,,,,,,,,,,,,,,
,,668e9f712727a42b2e03eefe,2026-03-17_13h36.48.358,kallum_motion_pilot_GIST_update_2,2026.1.1,Win32,60.24096386,668e9f712727a42b2e03eefe,69b92ab4aef6dee357cd729a,69b92ffff03560543319f07c,0.0747,0.0747,1,20,182,156,1,sevenfive,,,,,,,,,,,,,,,,,,,,,,,,,,,,,,,,,,,,,,,,,,,,,,,,,,,,,,,,,,,,,,,,,,,,,,,,,,,,,,,,,,,,,,,,,,,,,,,,,,,,,,,,,,,,,,,,,,,,,,,,,,,,,,,,,,,,,,,,,
,,668e9f712727a42b2e03eefe,2026-03-17_13h36.48.358,kallum_motion_pilot_GIST_update_2,2026.1.1,Win32,60.24096386,668e9f712727a42b2e03eefe,69b92ab4aef6dee357cd729a,69b92ffff03560543319f07c,0.0748,0.0748,1,21,183,43,1,twofour,,,,,,,,,,,,,,,,,,,,,,,,,,,,,,,,,,,,,,,,,,,,,,,,,,,,,,,,,,,,,,,,,,,,,,,,,,,,,,,,,,,,,,,,,,,,,,,,,,,,,,,,,,,,,,,,,,,,,,,,,,,,,,,,,,,,,,,,,
,,668e9f712727a42b2e03eefe,2026-03-17_13h36.48.358,kallum_motion_pilot_GIST_update_2,2026.1.1,Win32,60.24096386,668e9f712727a42b2e03eefe,69b92ab4aef6dee357cd729a,69b92ffff03560543319f07c,0.075,0.075,1,22,184,108,1,sevenfive,,,,,,,,,,,,,,,,,,,,,,,,,,,,,,,,,,,,,,,,,,,,,,,,,,,,,,,,,,,,,,,,,,,,,,,,,,,,,,,,,,,,,,,,,,,,,,,,,,,,,,,,,,,,,,,,,,,,,,,,,,,,,,,,,,,,,,,,,
,,668e9f712727a42b2e03eefe,2026-03-17_13h36.48.358,kallum_motion_pilot_GIST_update_2,2026.1.1,Win32,60.24096386,668e9f712727a42b2e03eefe,69b92ab4aef6dee357cd729a,69b92ffff03560543319f07c,0.0753,0.0753,1,23,185,92,1,sevenfive,,,,,,,,,,,,,,,,,,,,,,,,,,,,,,,,,,,,,,,,,,,,,,,,,,,,,,,,,,,,,,,,,,,,,,,,,,,,,,,,,,,,,,,,,,,,,,,,,,,,,,,,,,,,,,,,,,,,,,,,,,,,,,,,,,,,,,,,,
,,668e9f712727a42b2e03eefe,2026-03-17_13h36.48.358,kallum_motion_pilot_GIST_update_2,2026.1.1,Win32,60.24096386,668e9f712727a42b2e03eefe,69b92ab4aef6dee357cd729a,69b92ffff03560543319f07c,0.0756,0.0756,1,24,186,131,1,sixeight,,,,,,,,,,,,,,,,,,,,,,,,,,,,,,,,,,,,,,,,,,,,,,,,,,,,,,,,,,,,,,,,,,,,,,,,,,,,,,,,,,,,,,,,,,,,,,,,,,,,,,,,,,,,,,,,,,,,,,,,,,,,,,,,,,,,,,,,,
,,668e9f712727a42b2e03eefe,2026-03-17_13h36.48.358,kallum_motion_pilot_GIST_update_2,2026.1.1,Win32,60.24096386,668e9f712727a42b2e03eefe,69b92ab4aef6dee357cd729a,69b92ffff03560543319f07c,0.0759,0.0759,1,25,187,47,1,fourthree,,,,,,,,,,,,,,,,,,,,,,,,,,,,,,,,,,,,,,,,,,,,,,,,,,,,,,,,,,,,,,,,,,,,,,,,,,,,,,,,,,,,,,,,,,,,,,,,,,,,,,,,,,,,,,,,,,,,,,,,,,,,,,,,,,,,,,,,,
,,668e9f712727a42b2e03eefe,2026-03-17_13h36.48.358,kallum_motion_pilot_GIST_update_2,2026.1.1,Win32,60.24096386,668e9f712727a42b2e03eefe,69b92ab4aef6dee357cd729a,69b92ffff03560543319f07c,0.0761,0.0761,1,26,188,81,1,fiveseven,,,,,,,,,,,,,,,,,,,,,,,,,,,,,,,,,,,,,,,,,,,,,,,,,,,,,,,,,,,,,,,,,,,,,,,,,,,,,,,,,,,,,,,,,,,,,,,,,,,,,,,,,,,,,,,,,,,,,,,,,,,,,,,,,,,,,,,,,
,,668e9f712727a42b2e03eefe,2026-03-17_13h36.48.358,kallum_motion_pilot_GIST_update_2,2026.1.1,Win32,60.24096386,668e9f712727a42b2e03eefe,69b92ab4aef6dee357cd729a,69b92ffff03560543319f07c,0.0765,0.0765,1,27,189,134,1,eightsix,,,,,,,,,,,,,,,,,,,,,,,,,,,,,,,,,,,,,,,,,,,,,,,,,,,,,,,,,,,,,,,,,,,,,,,,,,,,,,,,,,,,,,,,,,,,,,,,,,,,,,,,,,,,,,,,,,,,,,,,,,,,,,,,,,,,,,,,,
,,668e9f712727a42b2e03eefe,2026-03-17_13h36.48.358,kallum_motion_pilot_GIST_update_2,2026.1.1,Win32,60.24096386,668e9f712727a42b2e03eefe,69b92ab4aef6dee357cd729a,69b92ffff03560543319f07c,0.0769,0.077,1,28,190,12,1,threeone,,,,,,,,,,,,,,,,,,,,,,,,,,,,,,,,,,,,,,,,,,,,,,,,,,,,,,,,,,,,,,,,,,,,,,,,,,,,,,,,,,,,,,,,,,,,,,,,,,,,,,,,,,,,,,,,,,,,,,,,,,,,,,,,,,,,,,,,,
,,668e9f712727a42b2e03eefe,2026-03-17_13h36.48.358,kallum_motion_pilot_GIST_update_2,2026.1.1,Win32,60.24096386,668e9f712727a42b2e03eefe,69b92ab4aef6dee357cd729a,69b92ffff03560543319f07c,0.0772,0.0773,1,29,191,86,1,eightsix,,,,,,,,,,,,,,,,,,,,,,,,,,,,,,,,,,,,,,,,,,,,,,,,,,,,,,,,,,,,,,,,,,,,,,,,,,,,,,,,,,,,,,,,,,,,,,,,,,,,,,,,,,,,,,,,,,,,,,,,,,,,,,,,,,,,,,,,,
,,668e9f712727a42b2e03eefe,2026-03-17_13h36.48.358,kallum_motion_pilot_GIST_update_2,2026.1.1,Win32,60.24096386,668e9f712727a42b2e03eefe,69b92ab4aef6dee357cd729a,69b92ffff03560543319f07c,0.0776,0.0777,1,30,192,5,1,threefour,,,,,,,,,,,,,,,,,,,,,,,,,,,,,,,,,,,,,,,,,,,,,,,,,,,,,,,,,,,,,,,,,,,,,,,,,,,,,,,,,,,,,,,,,,,,,,,,,,,,,,,,,,,,,,,,,,,,,,,,,,,,,,,,,,,,,,,,,
,,668e9f712727a42b2e03eefe,2026-03-17_13h36.48.358,kallum_motion_pilot_GIST_update_2,2026.1.1,Win32,60.24096386,668e9f712727a42b2e03eefe,69b92ab4aef6dee357cd729a,69b92ffff03560543319f07c,0.0782,0.0782,1,31,193,31,1,fourthree,,,,,,,,,,,,,,,,,,,,,,,,,,,,,,,,,,,,,,,,,,,,,,,,,,,,,,,,,,,,,,,,,,,,,,,,,,,,,,,,,,,,,,,,,,,,,,,,,,,,,,,,,,,,,,,,,,,,,,,,,,,,,,,,,,,,,,,,,
,,668e9f712727a42b2e03eefe,2026-03-17_13h36.48.358,kallum_motion_pilot_GIST_update_2,2026.1.1,Win32,60.24096386,668e9f712727a42b2e03eefe,69b92ab4aef6dee357cd729a,69b92ffff03560543319f07c,0.0787,0.0787,1,32,194,63,1,fourthree,,,,,,,,,,,,,,,,,,,,,,,,,,,,,,,,,,,,,,,,,,,,,,,,,,,,,,,,,,,,,,,,,,,,,,,,,,,,,,,,,,,,,,,,,,,,,,,,,,,,,,,,,,,,,,,,,,,,,,,,,,,,,,,,,,,,,,,,,
,,668e9f712727a42b2e03eefe,2026-03-17_13h36.48.358,kallum_motion_pilot_GIST_update_2,2026.1.1,Win32,60.24096386,668e9f712727a42b2e03eefe,69b92ab4aef6dee357cd729a,69b92ffff03560543319f07c,0.0789,0.079,1,33,195,0,1,onetwo,,,,,,,,,,,,,,,,,,,,,,,,,,,,,,,,,,,,,,,,,,,,,,,,,,,,,,,,,,,,,,,,,,,,,,,,,,,,,,,,,,,,,,,,,,,,,,,,,,,,,,,,,,,,,,,,,,,,,,,,,,,,,,,,,,,,,,,,,
,,668e9f712727a42b2e03eefe,2026-03-17_13h36.48.358,kallum_motion_pilot_GIST_update_2,2026.1.1,Win32,60.24096386,668e9f712727a42b2e03eefe,69b92ab4aef6dee357cd729a,69b92ffff03560543319f07c,0.0791,0.0792,1,34,196,15,1,fourthree,,,,,,,,,,,,,,,,,,,,,,,,,,,,,,,,,,,,,,,,,,,,,,,,,,,,,,,,,,,,,,,,,,,,,,,,,,,,,,,,,,,,,,,,,,,,,,,,,,,,,,,,,,,,,,,,,,,,,,,,,,,,,,,,,,,,,,,,,
,,668e9f712727a42b2e03eefe,2026-03-17_13h36.48.358,kallum_motion_pilot_GIST_update_2,2026.1.1,Win32,60.24096386,668e9f712727a42b2e03eefe,69b92ab4aef6dee357cd729a,69b92ffff03560543319f07c,0.0793,0.0793,1,35,197,82,1,sixfive,,,,,,,,,,,,,,,,,,,,,,,,,,,,,,,,,,,,,,,,,,,,,,,,,,,,,,,,,,,,,,,,,,,,,,,,,,,,,,,,,,,,,,,,,,,,,,,,,,,,,,,,,,,,,,,,,,,,,,,,,,,,,,,,,,,,,,,,,
,,668e9f712727a42b2e03eefe,2026-03-17_13h36.48.358,kallum_motion_pilot_GIST_update_2,2026.1.1,Win32,60.24096386,668e9f712727a42b2e03eefe,69b92ab4aef6dee357cd729a,69b92ffff03560543319f07c,0.0795,0.0795,1,36,198,53,1,threefour,,,,,,,,,,,,,,,,,,,,,,,,,,,,,,,,,,,,,,,,,,,,,,,,,,,,,,,,,,,,,,,,,,,,,,,,,,,,,,,,,,,,,,,,,,,,,,,,,,,,,,,,,,,,,,,,,,,,,,,,,,,,,,,,,,,,,,,,,
,,668e9f712727a42b2e03eefe,2026-03-17_13h36.48.358,kallum_motion_pilot_GIST_update_2,2026.1.1,Win32,60.24096386,668e9f712727a42b2e03eefe,69b92ab4aef6dee357cd729a,69b92ffff03560543319f07c,0.0797,0.0798,1,37,199,72,1,onetwo,,,,,,,,,,,,,,,,,,,,,,,,,,,,,,,,,,,,,,,,,,,,,,,,,,,,,,,,,,,,,,,,,,,,,,,,,,,,,,,,,,,,,,,,,,,,,,,,,,,,,,,,,,,,,,,,,,,,,,,,,,,,,,,,,,,,,,,,,
,,668e9f712727a42b2e03eefe,2026-03-17_13h36.48.358,kallum_motion_pilot_GIST_update_2,2026.1.1,Win32,60.24096386,668e9f712727a42b2e03eefe,69b92ab4aef6dee357cd729a,69b92ffff03560543319f07c,0.0799,0.0799,1,38,200,130,1,sixfive,,,,,,,,,,,,,,,,,,,,,,,,,,,,,,,,,,,,,,,,,,,,,,,,,,,,,,,,,,,,,,,,,,,,,,,,,,,,,,,,,,,,,,,,,,,,,,,,,,,,,,,,,,,,,,,,,,,,,,,,,,,,,,,,,,,,,,,,,
,,668e9f712727a42b2e03eefe,2026-03-17_13h36.48.358,kallum_motion_pilot_GIST_update_2,2026.1.1,Win32,60.24096386,668e9f712727a42b2e03eefe,69b92ab4aef6dee357cd729a,69b92ffff03560543319f07c,0.0803,0.0803,1,39,201,32,1,onetwo,,,,,,,,,,,,,,,,,,,,,,,,,,,,,,,,,,,,,,,,,,,,,,,,,,,,,,,,,,,,,,,,,,,,,,,,,,,,,,,,,,,,,,,,,,,,,,,,,,,,,,,,,,,,,,,,,,,,,,,,,,,,,,,,,,,,,,,,,
,,668e9f712727a42b2e03eefe,2026-03-17_13h36.48.358,kallum_motion_pilot_GIST_update_2,2026.1.1,Win32,60.24096386,668e9f712727a42b2e03eefe,69b92ab4aef6dee357cd729a,69b92ffff03560543319f07c,0.0805,0.0805,1,40,202,78,1,fourtwo,,,,,,,,,,,,,,,,,,,,,,,,,,,,,,,,,,,,,,,,,,,,,,,,,,,,,,,,,,,,,,,,,,,,,,,,,,,,,,,,,,,,,,,,,,,,,,,,,,,,,,,,,,,,,,,,,,,,,,,,,,,,,,,,,,,,,,,,,
,,668e9f712727a42b2e03eefe,2026-03-17_13h36.48.358,kallum_motion_pilot_GIST_update_2,2026.1.1,Win32,60.24096386,668e9f712727a42b2e03eefe,69b92ab4aef6dee357cd729a,69b92ffff03560543319f07c,0.0807,0.0807,1,41,203,150,1,eightsix,,,,,,,,,,,,,,,,,,,,,,,,,,,,,,,,,,,,,,,,,,,,,,,,,,,,,,,,,,,,,,,,,,,,,,,,,,,,,,,,,,,,,,,,,,,,,,,,,,,,,,,,,,,,,,,,,,,,,,,,,,,,,,,,,,,,,,,,,
,,668e9f712727a42b2e03eefe,2026-03-17_13h36.48.358,kallum_motion_pilot_GIST_update_2,2026.1.1,Win32,60.24096386,668e9f712727a42b2e03eefe,69b92ab4aef6dee357cd729a,69b92ffff03560543319f07c,0.0809,0.0809,1,42,204,147,1,sixeight,,,,,,,,,,,,,,,,,,,,,,,,,,,,,,,,,,,,,,,,,,,,,,,,,,,,,,,,,,,,,,,,,,,,,,,,,,,,,,,,,,,,,,,,,,,,,,,,,,,,,,,,,,,,,,,,,,,,,,,,,,,,,,,,,,,,,,,,,
,,668e9f712727a42b2e03eefe,2026-03-17_13h36.48.358,kallum_motion_pilot_GIST_update_2,2026.1.1,Win32,60.24096386,668e9f712727a42b2e03eefe,69b92ab4aef6dee357cd729a,69b92ffff03560543319f07c,0.0811,0.0811,1,43,205,16,1,onetwo,,,,,,,,,,,,,,,,,,,,,,,,,,,,,,,,,,,,,,,,,,,,,,,,,,,,,,,,,,,,,,,,,,,,,,,,,,,,,,,,,,,,,,,,,,,,,,,,,,,,,,,,,,,,,,,,,,,,,,,,,,,,,,,,,,,,,,,,,
,,668e9f712727a42b2e03eefe,2026-03-17_13h36.48.358,kallum_motion_pilot_GIST_update_2,2026.1.1,Win32,60.24096386,668e9f712727a42b2e03eefe,69b92ab4aef6dee357cd729a,69b92ffff03560543319f07c,0.0813,0.0813,1,44,206,88,1,fivesix,,,,,,,,,,,,,,,,,,,,,,,,,,,,,,,,,,,,,,,,,,,,,,,,,,,,,,,,,,,,,,,,,,,,,,,,,,,,,,,,,,,,,,,,,,,,,,,,,,,,,,,,,,,,,,,,,,,,,,,,,,,,,,,,,,,,,,,,,
,,668e9f712727a42b2e03eefe,2026-03-17_13h36.48.358,kallum_motion_pilot_GIST_update_2,2026.1.1,Win32,60.24096386,668e9f712727a42b2e03eefe,69b92ab4aef6dee357cd729a,69b92ffff03560543319f07c,0.0814,0.0814,1,45,207,85,1,seveneight,,,,,,,,,,,,,,,,,,,,,,,,,,,,,,,,,,,,,,,,,,,,,,,,,,,,,,,,,,,,,,,,,,,,,,,,,,,,,,,,,,,,,,,,,,,,,,,,,,,,,,,,,,,,,,,,,,,,,,,,,,,,,,,,,,,,,,,,,
,,668e9f712727a42b2e03eefe,2026-03-17_13h36.48.358,kallum_motion_pilot_GIST_update_2,2026.1.1,Win32,60.24096386,668e9f712727a42b2e03eefe,69b92ab4aef6dee357cd729a,69b92ffff03560543319f07c,0.0816,0.0816,1,46,208,126,1,eightsix,,,,,,,,,,,,,,,,,,,,,,,,,,,,,,,,,,,,,,,,,,,,,,,,,,,,,,,,,,,,,,,,,,,,,,,,,,,,,,,,,,,,,,,,,,,,,,,,,,,,,,,,,,,,,,,,,,,,,,,,,,,,,,,,,,,,,,,,,
,,668e9f712727a42b2e03eefe,2026-03-17_13h36.48.358,kallum_motion_pilot_GIST_update_2,2026.1.1,Win32,60.24096386,668e9f712727a42b2e03eefe,69b92ab4aef6dee357cd729a,69b92ffff03560543319f07c,0.0818,0.0818,1,47,209,61,1,threefour,,,,,,,,,,,,,,,,,,,,,,,,,,,,,,,,,,,,,,,,,,,,,,,,,,,,,,,,,,,,,,,,,,,,,,,,,,,,,,,,,,,,,,,,,,,,,,,,,,,,,,,,,,,,,,,,,,,,,,,,,,,,,,,,,,,,,,,,,
,,668e9f712727a42b2e03eefe,2026-03-17_13h36.48.358,kallum_motion_pilot_GIST_update_2,2026.1.1,Win32,60.24096386,668e9f712727a42b2e03eefe,69b92ab4aef6dee357cd729a,69b92ffff03560543319f07c,0.0819,0.082,1,48,210,135,1,eightseven,,,,,,,,,,,,,,,,,,,,,,,,,,,,,,,,,,,,,,,,,,,,,,,,,,,,,,,,,,,,,,,,,,,,,,,,,,,,,,,,,,,,,,,,,,,,,,,,,,,,,,,,,,,,,,,,,,,,,,,,,,,,,,,,,,,,,,,,,
,,668e9f712727a42b2e03eefe,2026-03-17_13h36.48.358,kallum_motion_pilot_GIST_update_2,2026.1.1,Win32,60.24096386,668e9f712727a42b2e03eefe,69b92ab4aef6dee357cd729a,69b92ffff03560543319f07c,0.0822,0.0822,1,49,211,109,1,seveneight,,,,,,,,,,,,,,,,,,,,,,,,,,,,,,,,,,,,,,,,,,,,,,,,,,,,,,,,,,,,,,,,,,,,,,,,,,,,,,,,,,,,,,,,,,,,,,,,,,,,,,,,,,,,,,,,,,,,,,,,,,,,,,,,,,,,,,,,,
,,668e9f712727a42b2e03eefe,2026-03-17_13h36.48.358,kallum_motion_pilot_GIST_update_2,2026.1.1,Win32,60.24096386,668e9f712727a42b2e03eefe,69b92ab4aef6dee357cd729a,69b92ffff03560543319f07c,0.0824,0.0824,1,50,212,116,1,sevenfive,,,,,,,,,,,,,,,,,,,,,,,,,,,,,,,,,,,,,,,,,,,,,,,,,,,,,,,,,,,,,,,,,,,,,,,,,,,,,,,,,,,,,,,,,,,,,,,,,,,,,,,,,,,,,,,,,,,,,,,,,,,,,,,,,,,,,,,,,
,,668e9f712727a42b2e03eefe,2026-03-17_13h36.48.358,kallum_motion_pilot_GIST_update_2,2026.1.1,Win32,60.24096386,668e9f712727a42b2e03eefe,69b92ab4aef6dee357cd729a,69b92ffff03560543319f07c,0.0825,0.0825,1,51,213,74,1,twoone,,,,,,,,,,,,,,,,,,,,,,,,,,,,,,,,,,,,,,,,,,,,,,,,,,,,,,,,,,,,,,,,,,,,,,,,,,,,,,,,,,,,,,,,,,,,,,,,,,,,,,,,,,,,,,,,,,,,,,,,,,,,,,,,,,,,,,,,,
,,668e9f712727a42b2e03eefe,2026-03-17_13h36.48.358,kallum_motion_pilot_GIST_update_2,2026.1.1,Win32,60.24096386,668e9f712727a42b2e03eefe,69b92ab4aef6dee357cd729a,69b92ffff03560543319f07c,0.0828,0.0828,1,52,214,129,1,fiveseven,,,,,,,,,,,,,,,,,,,,,,,,,,,,,,,,,,,,,,,,,,,,,,,,,,,,,,,,,,,,,,,,,,,,,,,,,,,,,,,,,,,,,,,,,,,,,,,,,,,,,,,,,,,,,,,,,,,,,,,,,,,,,,,,,,,,,,,,,
,,668e9f712727a42b2e03eefe,2026-03-17_13h36.48.358,kallum_motion_pilot_GIST_update_2,2026.1.1,Win32,60.24096386,668e9f712727a42b2e03eefe,69b92ab4aef6dee357cd729a,69b92ffff03560543319f07c,0.083,0.083,1,53,215,160,1,fivesix,,,,,,,,,,,,,,,,,,,,,,,,,,,,,,,,,,,,,,,,,,,,,,,,,,,,,,,,,,,,,,,,,,,,,,,,,,,,,,,,,,,,,,,,,,,,,,,,,,,,,,,,,,,,,,,,,,,,,,,,,,,,,,,,,,,,,,,,,
,,668e9f712727a42b2e03eefe,2026-03-17_13h36.48.358,kallum_motion_pilot_GIST_update_2,2026.1.1,Win32,60.24096386,668e9f712727a42b2e03eefe,69b92ab4aef6dee357cd729a,69b92ffff03560543319f07c,0.0833,0.0833,1,54,216,159,1,eightseven,,,,,,,,,,,,,,,,,,,,,,,,,,,,,,,,,,,,,,,,,,,,,,,,,,,,,,,,,,,,,,,,,,,,,,,,,,,,,,,,,,,,,,,,,,,,,,,,,,,,,,,,,,,,,,,,,,,,,,,,,,,,,,,,,,,,,,,,,
,,668e9f712727a42b2e03eefe,2026-03-17_13h36.48.358,kallum_motion_pilot_GIST_update_2,2026.1.1,Win32,60.24096386,668e9f712727a42b2e03eefe,69b92ab4aef6dee357cd729a,69b92ffff03560543319f07c,0.0835,0.0835,1,55,217,29,1,threefour,,,,,,,,,,,,,,,,,,,,,,,,,,,,,,,,,,,,,,,,,,,,,,,,,,,,,,,,,,,,,,,,,,,,,,,,,,,,,,,,,,,,,,,,,,,,,,,,,,,,,,,,,,,,,,,,,,,,,,,,,,,,,,,,,,,,,,,,,
,,668e9f712727a42b2e03eefe,2026-03-17_13h36.48.358,kallum_motion_pilot_GIST_update_2,2026.1.1,Win32,60.24096386,668e9f712727a42b2e03eefe,69b92ab4aef6dee357cd729a,69b92ffff03560543319f07c,0.0838,0.0838,1,56,218,45,1,threefour,,,,,,,,,,,,,,,,,,,,,,,,,,,,,,,,,,,,,,,,,,,,,,,,,,,,,,,,,,,,,,,,,,,,,,,,,,,,,,,,,,,,,,,,,,,,,,,,,,,,,,,,,,,,,,,,,,,,,,,,,,,,,,,,,,,,,,,,,
,,668e9f712727a42b2e03eefe,2026-03-17_13h36.48.358,kallum_motion_pilot_GIST_update_2,2026.1.1,Win32,60.24096386,668e9f712727a42b2e03eefe,69b92ab4aef6dee357cd729a,69b92ffff03560543319f07c,0.0841,0.0841,1,57,219,136,1,fivesix,,,,,,,,,,,,,,,,,,,,,,,,,,,,,,,,,,,,,,,,,,,,,,,,,,,,,,,,,,,,,,,,,,,,,,,,,,,,,,,,,,,,,,,,,,,,,,,,,,,,,,,,,,,,,,,,,,,,,,,,,,,,,,,,,,,,,,,,,
,,668e9f712727a42b2e03eefe,2026-03-17_13h36.48.358,kallum_motion_pilot_GIST_update_2,2026.1.1,Win32,60.24096386,668e9f712727a42b2e03eefe,69b92ab4aef6dee357cd729a,69b92ffff03560543319f07c,0.0844,0.0844,1,58,220,26,1,twoone,,,,,,,,,,,,,,,,,,,,,,,,,,,,,,,,,,,,,,,,,,,,,,,,,,,,,,,,,,,,,,,,,,,,,,,,,,,,,,,,,,,,,,,,,,,,,,,,,,,,,,,,,,,,,,,,,,,,,,,,,,,,,,,,,,,,,,,,,
,,668e9f712727a42b2e03eefe,2026-03-17_13h36.48.358,kallum_motion_pilot_GIST_update_2,2026.1.1,Win32,60.24096386,668e9f712727a42b2e03eefe,69b92ab4aef6dee357cd729a,69b92ffff03560543319f07c,0.0846,0.0846,1,59,221,71,1,fourthree,,,,,,,,,,,,,,,,,,,,,,,,,,,,,,,,,,,,,,,,,,,,,,,,,,,,,,,,,,,,,,,,,,,,,,,,,,,,,,,,,,,,,,,,,,,,,,,,,,,,,,,,,,,,,,,,,,,,,,,,,,,,,,,,,,,,,,,,,
,,668e9f712727a42b2e03eefe,2026-03-17_13h36.48.358,kallum_motion_pilot_GIST_update_2,2026.1.1,Win32,60.24096386,668e9f712727a42b2e03eefe,69b92ab4aef6dee357cd729a,69b92ffff03560543319f07c,0.0849,0.0849,1,60,222,104,1,fivesix,,,,,,,,,,,,,,,,,,,,,,,,,,,,,,,,,,,,,,,,,,,,,,,,,,,,,,,,,,,,,,,,,,,,,,,,,,,,,,,,,,,,,,,,,,,,,,,,,,,,,,,,,,,,,,,,,,,,,,,,,,,,,,,,,,,,,,,,,
,,668e9f712727a42b2e03eefe,2026-03-17_13h36.48.358,kallum_motion_pilot_GIST_update_2,2026.1.1,Win32,60.24096386,668e9f712727a42b2e03eefe,69b92ab4aef6dee357cd729a,69b92ffff03560543319f07c,0.085,0.085,1,61,223,119,1,eightseven,,,,,,,,,,,,,,,,,,,,,,,,,,,,,,,,,,,,,,,,,,,,,,,,,,,,,,,,,,,,,,,,,,,,,,,,,,,,,,,,,,,,,,,,,,,,,,,,,,,,,,,,,,,,,,,,,,,,,,,,,,,,,,,,,,,,,,,,,
,,668e9f712727a42b2e03eefe,2026-03-17_13h36.48.358,kallum_motion_pilot_GIST_update_2,2026.1.1,Win32,60.24096386,668e9f712727a42b2e03eefe,69b92ab4aef6dee357cd729a,69b92ffff03560543319f07c,0.0853,0.0853,1,62,224,87,1,eightseven,,,,,,,,,,,,,,,,,,,,,,,,,,,,,,,,,,,,,,,,,,,,,,,,,,,,,,,,,,,,,,,,,,,,,,,,,,,,,,,,,,,,,,,,,,,,,,,,,,,,,,,,,,,,,,,,,,,,,,,,,,,,,,,,,,,,,,,,,
,,668e9f712727a42b2e03eefe,2026-03-17_13h36.48.358,kallum_motion_pilot_GIST_update_2,2026.1.1,Win32,60.24096386,668e9f712727a42b2e03eefe,69b92ab4aef6dee357cd729a,69b92ffff03560543319f07c,0.0854,0.0855,1,63,225,50,1,twoone,,,,,,,,,,,,,,,,,,,,,,,,,,,,,,,,,,,,,,,,,,,,,,,,,,,,,,,,,,,,,,,,,,,,,,,,,,,,,,,,,,,,,,,,,,,,,,,,,,,,,,,,,,,,,,,,,,,,,,,,,,,,,,,,,,,,,,,,,
,,668e9f712727a42b2e03eefe,2026-03-17_13h36.48.358,kallum_motion_pilot_GIST_update_2,2026.1.1,Win32,60.24096386,668e9f712727a42b2e03eefe,69b92ab4aef6dee357cd729a,69b92ffff03560543319f07c,0.0858,0.0858,1,64,226,132,1,sevenfive,,,,,,,,,,,,,,,,,,,,,,,,,,,,,,,,,,,,,,,,,,,,,,,,,,,,,,,,,,,,,,,,,,,,,,,,,,,,,,,,,,,,,,,,,,,,,,,,,,,,,,,,,,,,,,,,,,,,,,,,,,,,,,,,,,,,,,,,,
,,668e9f712727a42b2e03eefe,2026-03-17_13h36.48.358,kallum_motion_pilot_GIST_update_2,2026.1.1,Win32,60.24096386,668e9f712727a42b2e03eefe,69b92ab4aef6dee357cd729a,69b92ffff03560543319f07c,0.0861,0.0861,1,65,227,21,1,threefour,,,,,,,,,,,,,,,,,,,,,,,,,,,,,,,,,,,,,,,,,,,,,,,,,,,,,,,,,,,,,,,,,,,,,,,,,,,,,,,,,,,,,,,,,,,,,,,,,,,,,,,,,,,,,,,,,,,,,,,,,,,,,,,,,,,,,,,,,
,,668e9f712727a42b2e03eefe,2026-03-17_13h36.48.358,kallum_motion_pilot_GIST_update_2,2026.1.1,Win32,60.24096386,668e9f712727a42b2e03eefe,69b92ab4aef6dee357cd729a,69b92ffff03560543319f07c,0.0864,0.0864,1,66,228,84,1,sevenfive,,,,,,,,,,,,,,,,,,,,,,,,,,,,,,,,,,,,,,,,,,,,,,,,,,,,,,,,,,,,,,,,,,,,,,,,,,,,,,,,,,,,,,,,,,,,,,,,,,,,,,,,,,,,,,,,,,,,,,,,,,,,,,,,,,,,,,,,,
,,668e9f712727a42b2e03eefe,2026-03-17_13h36.48.358,kallum_motion_pilot_GIST_update_2,2026.1.1,Win32,60.24096386,668e9f712727a42b2e03eefe,69b92ab4aef6dee357cd729a,69b92ffff03560543319f07c,0.0867,0.0867,1,67,229,141,1,seveneight,,,,,,,,,,,,,,,,,,,,,,,,,,,,,,,,,,,,,,,,,,,,,,,,,,,,,,,,,,,,,,,,,,,,,,,,,,,,,,,,,,,,,,,,,,,,,,,,,,,,,,,,,,,,,,,,,,,,,,,,,,,,,,,,,,,,,,,,,
,,668e9f712727a42b2e03eefe,2026-03-17_13h36.48.358,kallum_motion_pilot_GIST_update_2,2026.1.1,Win32,60.24096386,668e9f712727a42b2e03eefe,69b92ab4aef6dee357cd729a,69b92ffff03560543319f07c,0.0869,0.0869,1,68,230,57,1,onethree,,,,,,,,,,,,,,,,,,,,,,,,,,,,,,,,,,,,,,,,,,,,,,,,,,,,,,,,,,,,,,,,,,,,,,,,,,,,,,,,,,,,,,,,,,,,,,,,,,,,,,,,,,,,,,,,,,,,,,,,,,,,,,,,,,,,,,,,,
,,668e9f712727a42b2e03eefe,2026-03-17_13h36.48.358,kallum_motion_pilot_GIST_update_2,2026.1.1,Win32,60.24096386,668e9f712727a42b2e03eefe,69b92ab4aef6dee357cd729a,69b92ffff03560543319f07c,0.0873,0.0873,1,69,231,68,1,threeone,,,,,,,,,,,,,,,,,,,,,,,,,,,,,,,,,,,,,,,,,,,,,,,,,,,,,,,,,,,,,,,,,,,,,,,,,,,,,,,,,,,,,,,,,,,,,,,,,,,,,,,,,,,,,,,,,,,,,,,,,,,,,,,,,,,,,,,,,
,,668e9f712727a42b2e03eefe,2026-03-17_13h36.48.358,kallum_motion_pilot_GIST_update_2,2026.1.1,Win32,60.24096386,668e9f712727a42b2e03eefe,69b92ab4aef6dee357cd729a,69b92ffff03560543319f07c,0.0876,0.0876,1,70,232,122,1,sixfive,,,,,,,,,,,,,,,,,,,,,,,,,,,,,,,,,,,,,,,,,,,,,,,,,,,,,,,,,,,,,,,,,,,,,,,,,,,,,,,,,,,,,,,,,,,,,,,,,,,,,,,,,,,,,,,,,,,,,,,,,,,,,,,,,,,,,,,,,
,,668e9f712727a42b2e03eefe,2026-03-17_13h36.48.358,kallum_motion_pilot_GIST_update_2,2026.1.1,Win32,60.24096386,668e9f712727a42b2e03eefe,69b92ab4aef6dee357cd729a,69b92ffff03560543319f07c,0.0879,0.0879,1,71,233,121,1,fiveseven,,,,,,,,,,,,,,,,,,,,,,,,,,,,,,,,,,,,,,,,,,,,,,,,,,,,,,,,,,,,,,,,,,,,,,,,,,,,,,,,,,,,,,,,,,,,,,,,,,,,,,,,,,,,,,,,,,,,,,,,,,,,,,,,,,,,,,,,,
,,668e9f712727a42b2e03eefe,2026-03-17_13h36.48.358,kallum_motion_pilot_GIST_update_2,2026.1.1,Win32,60.24096386,668e9f712727a42b2e03eefe,69b92ab4aef6dee357cd729a,69b92ffff03560543319f07c,0.0882,0.0882,1,72,234,48,1,onetwo,,,,,,,,,,,,,,,,,,,,,,,,,,,,,,,,,,,,,,,,,,,,,,,,,,,,,,,,,,,,,,,,,,,,,,,,,,,,,,,,,,,,,,,,,,,,,,,,,,,,,,,,,,,,,,,,,,,,,,,,,,,,,,,,,,,,,,,,,
,,668e9f712727a42b2e03eefe,2026-03-17_13h36.48.358,kallum_motion_pilot_GIST_update_2,2026.1.1,Win32,60.24096386,668e9f712727a42b2e03eefe,69b92ab4aef6dee357cd729a,69b92ffff03560543319f07c,0.0884,0.0885,1,73,235,157,1,seveneight,,,,,,,,,,,,,,,,,,,,,,,,,,,,,,,,,,,,,,,,,,,,,,,,,,,,,,,,,,,,,,,,,,,,,,,,,,,,,,,,,,,,,,,,,,,,,,,,,,,,,,,,,,,,,,,,,,,,,,,,,,,,,,,,,,,,,,,,,
,,668e9f712727a42b2e03eefe,2026-03-17_13h36.48.358,kallum_motion_pilot_GIST_update_2,2026.1.1,Win32,60.24096386,668e9f712727a42b2e03eefe,69b92ab4aef6dee357cd729a,69b92ffff03560543319f07c,0.0888,0.0888,1,74,236,161,1,fiveseven,,,,,,,,,,,,,,,,,,,,,,,,,,,,,,,,,,,,,,,,,,,,,,,,,,,,,,,,,,,,,,,,,,,,,,,,,,,,,,,,,,,,,,,,,,,,,,,,,,,,,,,,,,,,,,,,,,,,,,,,,,,,,,,,,,,,,,,,,
,,668e9f712727a42b2e03eefe,2026-03-17_13h36.48.358,kallum_motion_pilot_GIST_update_2,2026.1.1,Win32,60.24096386,668e9f712727a42b2e03eefe,69b92ab4aef6dee357cd729a,69b92ffff03560543319f07c,0.089,0.0891,1,75,237,30,1,fourtwo,,,,,,,,,,,,,,,,,,,,,,,,,,,,,,,,,,,,,,,,,,,,,,,,,,,,,,,,,,,,,,,,,,,,,,,,,,,,,,,,,,,,,,,,,,,,,,,,,,,,,,,,,,,,,,,,,,,,,,,,,,,,,,,,,,,,,,,,,
,,668e9f712727a42b2e03eefe,2026-03-17_13h36.48.358,kallum_motion_pilot_GIST_update_2,2026.1.1,Win32,60.24096386,668e9f712727a42b2e03eefe,69b92ab4aef6dee357cd729a,69b92ffff03560543319f07c,0.0893,0.0893,1,76,238,149,1,seveneight,,,,,,,,,,,,,,,,,,,,,,,,,,,,,,,,,,,,,,,,,,,,,,,,,,,,,,,,,,,,,,,,,,,,,,,,,,,,,,,,,,,,,,,,,,,,,,,,,,,,,,,,,,,,,,,,,,,,,,,,,,,,,,,,,,,,,,,,,
,,668e9f712727a42b2e03eefe,2026-03-17_13h36.48.358,kallum_motion_pilot_GIST_update_2,2026.1.1,Win32,60.24096386,668e9f712727a42b2e03eefe,69b92ab4aef6dee357cd729a,69b92ffff03560543319f07c,0.0895,0.0895,1,77,239,98,1,sixfive,,,,,,,,,,,,,,,,,,,,,,,,,,,,,,,,,,,,,,,,,,,,,,,,,,,,,,,,,,,,,,,,,,,,,,,,,,,,,,,,,,,,,,,,,,,,,,,,,,,,,,,,,,,,,,,,,,,,,,,,,,,,,,,,,,,,,,,,,
,,668e9f712727a42b2e03eefe,2026-03-17_13h36.48.358,kallum_motion_pilot_GIST_update_2,2026.1.1,Win32,60.24096386,668e9f712727a42b2e03eefe,69b92ab4aef6dee357cd729a,69b92ffff03560543319f07c,0.0899,0.0899,1,78,240,39,1,fourthree,,,,,,,,,,,,,,,,,,,,,,,,,,,,,,,,,,,,,,,,,,,,,,,,,,,,,,,,,,,,,,,,,,,,,,,,,,,,,,,,,,,,,,,,,,,,,,,,,,,,,,,,,,,,,,,,,,,,,,,,,,,,,,,,,,,,,,,,,
,,668e9f712727a42b2e03eefe,2026-03-17_13h36.48.358,kallum_motion_pilot_GIST_update_2,2026.1.1,Win32,60.24096386,668e9f712727a42b2e03eefe,69b92ab4aef6dee357cd729a,69b92ffff03560543319f07c,0.0901,0.0901,1,79,241,10,1,twoone,,,,,,,,,,,,,,,,,,,,,,,,,,,,,,,,,,,,,,,,,,,,,,,,,,,,,,,,,,,,,,,,,,,,,,,,,,,,,,,,,,,,,,,,,,,,,,,,,,,,,,,,,,,,,,,,,,,,,,,,,,,,,,,,,,,,,,,,,
,,668e9f712727a42b2e03eefe,2026-03-17_13h36.48.358,kallum_motion_pilot_GIST_update_2,2026.1.1,Win32,60.24096386,668e9f712727a42b2e03eefe,69b92ab4aef6dee357cd729a,69b92ffff03560543319f07c,0.0904,0.0904,1,80,242,158,1,eightsix,,,,,,,,,,,,,,,,,,,,,,,,,,,,,,,,,,,,,,,,,,,,,,,,,,,,,,,,,,,,,,,,,,,,,,,,,,,,,,,,,,,,,,,,,,,,,,,,,,,,,,,,,,,,,,,,,,,,,,,,,,,,,,,,,,,,,,,,,
,,668e9f712727a42b2e03eefe,2026-03-17_13h36.48.358,kallum_motion_pilot_GIST_update_2,2026.1.1,Win32,60.24096386,668e9f712727a42b2e03eefe,69b92ab4aef6dee357cd729a,69b92ffff03560543319f07c,0.0907,0.0907,1,81,243,28,1,threeone,,,,,,,,,,,,,,,,,,,,,,,,,,,,,,,,,,,,,,,,,,,,,,,,,,,,,,,,,,,,,,,,,,,,,,,,,,,,,,,,,,,,,,,,,,,,,,,,,,,,,,,,,,,,,,,,,,,,,,,,,,,,,,,,,,,,,,,,,
,,668e9f712727a42b2e03eefe,2026-03-17_13h36.48.358,kallum_motion_pilot_GIST_update_2,2026.1.1,Win32,60.24096386,668e9f712727a42b2e03eefe,69b92ab4aef6dee357cd729a,69b92ffff03560543319f07c,0.0909,0.0909,1,82,244,20,1,threeone,,,,,,,,,,,,,,,,,,,,,,,,,,,,,,,,,,,,,,,,,,,,,,,,,,,,,,,,,,,,,,,,,,,,,,,,,,,,,,,,,,,,,,,,,,,,,,,,,,,,,,,,,,,,,,,,,,,,,,,,,,,,,,,,,,,,,,,,,
,,668e9f712727a42b2e03eefe,2026-03-17_13h36.48.358,kallum_motion_pilot_GIST_update_2,2026.1.1,Win32,60.24096386,668e9f712727a42b2e03eefe,69b92ab4aef6dee357cd729a,69b92ffff03560543319f07c,0.0911,0.0911,1,83,245,112,1,fivesix,,,,,,,,,,,,,,,,,,,,,,,,,,,,,,,,,,,,,,,,,,,,,,,,,,,,,,,,,,,,,,,,,,,,,,,,,,,,,,,,,,,,,,,,,,,,,,,,,,,,,,,,,,,,,,,,,,,,,,,,,,,,,,,,,,,,,,,,,
,,668e9f712727a42b2e03eefe,2026-03-17_13h36.48.358,kallum_motion_pilot_GIST_update_2,2026.1.1,Win32,60.24096386,668e9f712727a42b2e03eefe,69b92ab4aef6dee357cd729a,69b92ffff03560543319f07c,0.0915,0.0915,1,84,246,59,1,twofour,,,,,,,,,,,,,,,,,,,,,,,,,,,,,,,,,,,,,,,,,,,,,,,,,,,,,,,,,,,,,,,,,,,,,,,,,,,,,,,,,,,,,,,,,,,,,,,,,,,,,,,,,,,,,,,,,,,,,,,,,,,,,,,,,,,,,,,,,
,,668e9f712727a42b2e03eefe,2026-03-17_13h36.48.358,kallum_motion_pilot_GIST_update_2,2026.1.1,Win32,60.24096386,668e9f712727a42b2e03eefe,69b92ab4aef6dee357cd729a,69b92ffff03560543319f07c,0.0917,0.0917,1,85,247,151,1,eightseven,,,,,,,,,,,,,,,,,,,,,,,,,,,,,,,,,,,,,,,,,,,,,,,,,,,,,,,,,,,,,,,,,,,,,,,,,,,,,,,,,,,,,,,,,,,,,,,,,,,,,,,,,,,,,,,,,,,,,,,,,,,,,,,,,,,,,,,,,
,,668e9f712727a42b2e03eefe,2026-03-17_13h36.48.358,kallum_motion_pilot_GIST_update_2,2026.1.1,Win32,60.24096386,668e9f712727a42b2e03eefe,69b92ab4aef6dee357cd729a,69b92ffff03560543319f07c,0.0919,0.092,1,86,248,118,1,eightsix,,,,,,,,,,,,,,,,,,,,,,,,,,,,,,,,,,,,,,,,,,,,,,,,,,,,,,,,,,,,,,,,,,,,,,,,,,,,,,,,,,,,,,,,,,,,,,,,,,,,,,,,,,,,,,,,,,,,,,,,,,,,,,,,,,,,,,,,,
,,668e9f712727a42b2e03eefe,2026-03-17_13h36.48.358,kallum_motion_pilot_GIST_update_2,2026.1.1,Win32,60.24096386,668e9f712727a42b2e03eefe,69b92ab4aef6dee357cd729a,69b92ffff03560543319f07c,0.0923,0.0923,1,87,249,99,1,sixeight,,,,,,,,,,,,,,,,,,,,,,,,,,,,,,,,,,,,,,,,,,,,,,,,,,,,,,,,,,,,,,,,,,,,,,,,,,,,,,,,,,,,,,,,,,,,,,,,,,,,,,,,,,,,,,,,,,,,,,,,,,,,,,,,,,,,,,,,,
,,668e9f712727a42b2e03eefe,2026-03-17_13h36.48.358,kallum_motion_pilot_GIST_update_2,2026.1.1,Win32,60.24096386,668e9f712727a42b2e03eefe,69b92ab4aef6dee357cd729a,69b92ffff03560543319f07c,0.0924,0.0924,1,88,250,67,1,twofour,,,,,,,,,,,,,,,,,,,,,,,,,,,,,,,,,,,,,,,,,,,,,,,,,,,,,,,,,,,,,,,,,,,,,,,,,,,,,,,,,,,,,,,,,,,,,,,,,,,,,,,,,,,,,,,,,,,,,,,,,,,,,,,,,,,,,,,,,
,,668e9f712727a42b2e03eefe,2026-03-17_13h36.48.358,kallum_motion_pilot_GIST_update_2,2026.1.1,Win32,60.24096386,668e9f712727a42b2e03eefe,69b92ab4aef6dee357cd729a,69b92ffff03560543319f07c,0.0927,0.0928,1,89,251,139,1,sixeight,,,,,,,,,,,,,,,,,,,,,,,,,,,,,,,,,,,,,,,,,,,,,,,,,,,,,,,,,,,,,,,,,,,,,,,,,,,,,,,,,,,,,,,,,,,,,,,,,,,,,,,,,,,,,,,,,,,,,,,,,,,,,,,,,,,,,,,,,
,,668e9f712727a42b2e03eefe,2026-03-17_13h36.48.358,kallum_motion_pilot_GIST_update_2,2026.1.1,Win32,60.24096386,668e9f712727a42b2e03eefe,69b92ab4aef6dee357cd729a,69b92ffff03560543319f07c,0.0932,0.0932,1,90,252,93,1,seveneight,,,,,,,,,,,,,,,,,,,,,,,,,,,,,,,,,,,,,,,,,,,,,,,,,,,,,,,,,,,,,,,,,,,,,,,,,,,,,,,,,,,,,,,,,,,,,,,,,,,,,,,,,,,,,,,,,,,,,,,,,,,,,,,,,,,,,,,,,
,,668e9f712727a42b2e03eefe,2026-03-17_13h36.48.358,kallum_motion_pilot_GIST_update_2,2026.1.1,Win32,60.24096386,668e9f712727a42b2e03eefe,69b92ab4aef6dee357cd729a,69b92ffff03560543319f07c,0.0936,0.0936,1,91,253,9,1,onethree,,,,,,,,,,,,,,,,,,,,,,,,,,,,,,,,,,,,,,,,,,,,,,,,,,,,,,,,,,,,,,,,,,,,,,,,,,,,,,,,,,,,,,,,,,,,,,,,,,,,,,,,,,,,,,,,,,,,,,,,,,,,,,,,,,,,,,,,,
,,668e9f712727a42b2e03eefe,2026-03-17_13h36.48.358,kallum_motion_pilot_GIST_update_2,2026.1.1,Win32,60.24096386,668e9f712727a42b2e03eefe,69b92ab4aef6dee357cd729a,69b92ffff03560543319f07c,0.094,0.094,1,92,254,37,1,threefour,,,,,,,,,,,,,,,,,,,,,,,,,,,,,,,,,,,,,,,,,,,,,,,,,,,,,,,,,,,,,,,,,,,,,,,,,,,,,,,,,,,,,,,,,,,,,,,,,,,,,,,,,,,,,,,,,,,,,,,,,,,,,,,,,,,,,,,,,
,,668e9f712727a42b2e03eefe,2026-03-17_13h36.48.358,kallum_motion_pilot_GIST_update_2,2026.1.1,Win32,60.24096386,668e9f712727a42b2e03eefe,69b92ab4aef6dee357cd729a,69b92ffff03560543319f07c,0.0945,0.0945,1,93,255,137,1,fiveseven,,,,,,,,,,,,,,,,,,,,,,,,,,,,,,,,,,,,,,,,,,,,,,,,,,,,,,,,,,,,,,,,,,,,,,,,,,,,,,,,,,,,,,,,,,,,,,,,,,,,,,,,,,,,,,,,,,,,,,,,,,,,,,,,,,,,,,,,,
,,668e9f712727a42b2e03eefe,2026-03-17_13h36.48.358,kallum_motion_pilot_GIST_update_2,2026.1.1,Win32,60.24096386,668e9f712727a42b2e03eefe,69b92ab4aef6dee357cd729a,69b92ffff03560543319f07c,0.095,0.095,1,94,256,100,1,sevenfive,,,,,,,,,,,,,,,,,,,,,,,,,,,,,,,,,,,,,,,,,,,,,,,,,,,,,,,,,,,,,,,,,,,,,,,,,,,,,,,,,,,,,,,,,,,,,,,,,,,,,,,,,,,,,,,,,,,,,,,,,,,,,,,,,,,,,,,,,
,,668e9f712727a42b2e03eefe,2026-03-17_13h36.48.358,kallum_motion_pilot_GIST_update_2,2026.1.1,Win32,60.24096386,668e9f712727a42b2e03eefe,69b92ab4aef6dee357cd729a,69b92ffff03560543319f07c,0.0955,0.0955,1,95,257,128,1,fivesix,,,,,,,,,,,,,,,,,,,,,,,,,,,,,,,,,,,,,,,,,,,,,,,,,,,,,,,,,,,,,,,,,,,,,,,,,,,,,,,,,,,,,,,,,,,,,,,,,,,,,,,,,,,,,,,,,,,,,,,,,,,,,,,,,,,,,,,,,
,,668e9f712727a42b2e03eefe,2026-03-17_13h36.48.358,kallum_motion_pilot_GIST_update_2,2026.1.1,Win32,60.24096386,668e9f712727a42b2e03eefe,69b92ab4aef6dee357cd729a,69b92ffff03560543319f07c,0.0958,0.0958,1,96,258,41,1,onethree,,,,,,,,,,,,,,,,,,,,,,,,,,,,,,,,,,,,,,,,,,,,,,,,,,,,,,,,,,,,,,,,,,,,,,,,,,,,,,,,,,,,,,,,,,,,,,,,,,,,,,,,,,,,,,,,,,,,,,,,,,,,,,,,,,,,,,,,,
,,668e9f712727a42b2e03eefe,2026-03-17_13h36.48.358,kallum_motion_pilot_GIST_update_2,2026.1.1,Win32,60.24096386,668e9f712727a42b2e03eefe,69b92ab4aef6dee357cd729a,69b92ffff03560543319f07c,0.096,0.096,1,97,259,142,1,eightsix,,,,,,,,,,,,,,,,,,,,,,,,,,,,,,,,,,,,,,,,,,,,,,,,,,,,,,,,,,,,,,,,,,,,,,,,,,,,,,,,,,,,,,,,,,,,,,,,,,,,,,,,,,,,,,,,,,,,,,,,,,,,,,,,,,,,,,,,,
,,668e9f712727a42b2e03eefe,2026-03-17_13h36.48.358,kallum_motion_pilot_GIST_update_2,2026.1.1,Win32,60.24096386,668e9f712727a42b2e03eefe,69b92ab4aef6dee357cd729a,69b92ffff03560543319f07c,0.0962,0.0962,1,98,260,25,1,onethree,,,,,,,,,,,,,,,,,,,,,,,,,,,,,,,,,,,,,,,,,,,,,,,,,,,,,,,,,,,,,,,,,,,,,,,,,,,,,,,,,,,,,,,,,,,,,,,,,,,,,,,,,,,,,,,,,,,,,,,,,,,,,,,,,,,,,,,,,
,,668e9f712727a42b2e03eefe,2026-03-17_13h36.48.358,kallum_motion_pilot_GIST_update_2,2026.1.1,Win32,60.24096386,668e9f712727a42b2e03eefe,69b92ab4aef6dee357cd729a,69b92ffff03560543319f07c,0.0965,0.0965,1,99,261,38,1,fourtwo,,,,,,,,,,,,,,,,,,,,,,,,,,,,,,,,,,,,,,,,,,,,,,,,,,,,,,,,,,,,,,,,,,,,,,,,,,,,,,,,,,,,,,,,,,,,,,,,,,,,,,,,,,,,,,,,,,,,,,,,,,,,,,,,,,,,,,,,,
,,668e9f712727a42b2e03eefe,2026-03-17_13h36.48.358,kallum_motion_pilot_GIST_update_2,2026.1.1,Win32,60.24096386,668e9f712727a42b2e03eefe,69b92ab4aef6dee357cd729a,69b92ffff03560543319f07c,0.0967,0.0967,1,100,262,75,1,twofour,,,,,,,,,,,,,,,,,,,,,,,,,,,,,,,,,,,,,,,,,,,,,,,,,,,,,,,,,,,,,,,,,,,,,,,,,,,,,,,,,,,,,,,,,,,,,,,,,,,,,,,,,,,,,,,,,,,,,,,,,,,,,,,,,,,,,,,,,
,,668e9f712727a42b2e03eefe,2026-03-17_13h36.48.358,kallum_motion_pilot_GIST_update_2,2026.1.1,Win32,60.24096386,668e9f712727a42b2e03eefe,69b92ab4aef6dee357cd729a,69b92ffff03560543319f07c,0.0969,0.0969,1,101,263,60,1,threeone,,,,,,,,,,,,,,,,,,,,,,,,,,,,,,,,,,,,,,,,,,,,,,,,,,,,,,,,,,,,,,,,,,,,,,,,,,,,,,,,,,,,,,,,,,,,,,,,,,,,,,,,,,,,,,,,,,,,,,,,,,,,,,,,,,,,,,,,,
,,668e9f712727a42b2e03eefe,2026-03-17_13h36.48.358,kallum_motion_pilot_GIST_update_2,2026.1.1,Win32,60.24096386,668e9f712727a42b2e03eefe,69b92ab4aef6dee357cd729a,69b92ffff03560543319f07c,0.0971,0.0972,1,102,264,35,1,twofour,,,,,,,,,,,,,,,,,,,,,,,,,,,,,,,,,,,,,,,,,,,,,,,,,,,,,,,,,,,,,,,,,,,,,,,,,,,,,,,,,,,,,,,,,,,,,,,,,,,,,,,,,,,,,,,,,,,,,,,,,,,,,,,,,,,,,,,,,
,,668e9f712727a42b2e03eefe,2026-03-17_13h36.48.358,kallum_motion_pilot_GIST_update_2,2026.1.1,Win32,60.24096386,668e9f712727a42b2e03eefe,69b92ab4aef6dee357cd729a,69b92ffff03560543319f07c,0.0976,0.0976,1,103,265,14,1,fourtwo,,,,,,,,,,,,,,,,,,,,,,,,,,,,,,,,,,,,,,,,,,,,,,,,,,,,,,,,,,,,,,,,,,,,,,,,,,,,,,,,,,,,,,,,,,,,,,,,,,,,,,,,,,,,,,,,,,,,,,,,,,,,,,,,,,,,,,,,,
,,668e9f712727a42b2e03eefe,2026-03-17_13h36.48.358,kallum_motion_pilot_GIST_update_2,2026.1.1,Win32,60.24096386,668e9f712727a42b2e03eefe,69b92ab4aef6dee357cd729a,69b92ffff03560543319f07c,0.0978,0.0978,1,104,266,62,1,fourtwo,,,,,,,,,,,,,,,,,,,,,,,,,,,,,,,,,,,,,,,,,,,,,,,,,,,,,,,,,,,,,,,,,,,,,,,,,,,,,,,,,,,,,,,,,,,,,,,,,,,,,,,,,,,,,,,,,,,,,,,,,,,,,,,,,,,,,,,,,
