startup.started,startup.stopped,Prolific ID*,date,expName,psychopyVersion,OS,frameRate,participant,study_id,session,stimpositions.started,stimpositions.stopped,hardcoded_stimulus_positions.thisRepN,hardcoded_stimulus_positions.thisTrialN,hardcoded_stimulus_positions.thisN,hardcoded_stimulus_positions.thisIndex,hardcoded_stimulus_positions.ran,StimulusPos,stimorientation.started,stimorientation.stopped,prac_stimorientation_import_loop.thisRepN,prac_stimorientation_import_loop.thisTrialN,prac_stimorientation_import_loop.thisN,prac_stimorientation_import_loop.thisIndex,prac_stimorientation_import_loop.ran,Stimorientation,welcome_instr.started,welcome_instr.stopped,key_resp.keys,key_resp.rt,key_resp.duration,response_steppedout_1.started,response_steppedout_1.stopped,key_resp_20.keys,key_resp_20.rt,key_resp_20.duration,response_steppedout_2.started,response_steppedout_2.stopped,key_resp_19.keys,key_resp_19.rt,key_resp_19.duration,stim_response_instr.started,stim_response_instr.stopped,key_resp_15.keys,key_resp_15.rt,key_resp_15.duration,direction_instr_2.started,direction_instr_2.stopped,key_resp_9.keys,key_resp_9.rt,key_resp_9.duration,instr_prac.started,instr_prac.stopped,key_resp_10.keys,key_resp_10.rt,key_resp_10.duration,Stim1_display_prac.started,Stim1_display_prac.stopped,Ecc,Circle1_ori,Circle2_ori,response_prac.started,similarity,response_time,response_prac.stopped,mouse_5.x,mouse_5.y,mouse_5.leftButton,mouse_5.midButton,mouse_5.rightButton,mouse_5.clicked_name,responseprac_feedback.started,responseprac_feedback.stopped,summary2_prac.started,summary2_prac.stopped,mouse_6.x,mouse_6.y,mouse_6.leftButton,mouse_6.midButton,mouse_6.rightButton,mouse_6.clicked_name,duringprac.thisRepN,duringprac.thisTrialN,duringprac.thisN,duringprac.thisIndex,duringprac.ran,begin.started,begin.stopped,key_resp_22.keys,key_resp_22.rt,key_resp_22.duration,Stim1_display.started,Stim1_display.stopped,circle1_ori,circle2_ori,circle1_SF,circle2_SF,response.started,response.stopped,mouse.x,mouse.y,mouse.leftButton,mouse.midButton,mouse.rightButton,mouse.clicked_name,trialnumber,double_pass.thisRepN,double_pass.thisTrialN,double_pass.thisN,double_pass.thisIndex,double_pass.ran,double_pass.order,main_trial.thisRepN,main_trial.thisTrialN,main_trial.thisN,main_trial.thisIndex,main_trial.ran,main_trial.order,Trial_Counter,Catch,Frequencies,response_2.started,response_2.stopped,mouse_2.x,mouse_2.y,mouse_2.leftButton,mouse_2.midButton,mouse_2.rightButton,mouse_2.clicked_name,special_trial.started,special_trial.stopped,catch_1.started,catch_1.stopped,mouse_3.x,mouse_3.y,mouse_3.leftButton,mouse_3.midButton,mouse_3.rightButton,catchresponse,catchnumber,response_time_catch,response_sum.started,response_sum.stopped,mouse_11.x,mouse_11.y,mouse_11.leftButton,mouse_11.midButton,mouse_11.rightButton,flip_presentation_sequence_for_double_pass.started,flip_presentation_sequence_for_double_pass.stopped,goodbye.started,goodbye.stopped,key_resp_3.keys,key_resp_3.rt,key_resp_3.duration
0.0006,0.0026,669e3aceb62ce654ecaf410e,2026-03-17_10h26.59.475,kallum_motion_pilot_GIST_update_2,2026.1.1,MacIntel,59.52380952,669e3aceb62ce654ecaf410e,69b92ab4aef6dee357cd729a,69b92b4fbd40bd8f4ebd3312,,,,,,,,,,,,,,,,,,,,,,,,,,,,,,,,,,,,,,,,,,,,,,,,,,,,,,,,,,,,,,,,,,,,,,,,,,,,,,,,,,,,,,,,,,,,,,,,,,,,,,,,,,,,,,,,,,,,,,,,,,,,,,,,,,,,,,,,,,,,,,,,,
,,669e3aceb62ce654ecaf410e,2026-03-17_10h26.59.475,kallum_motion_pilot_GIST_update_2,2026.1.1,MacIntel,59.52380952,669e3aceb62ce654ecaf410e,69b92ab4aef6dee357cd729a,69b92b4fbd40bd8f4ebd3312,0.0247,0.0249,0,0,0,134,1,eightsix,,,,,,,,,,,,,,,,,,,,,,,,,,,,,,,,,,,,,,,,,,,,,,,,,,,,,,,,,,,,,,,,,,,,,,,,,,,,,,,,,,,,,,,,,,,,,,,,,,,,,,,,,,,,,,,,,,,,,,,,,,,,,,,,,,,,,,,,,
,,669e3aceb62ce654ecaf410e,2026-03-17_10h26.59.475,kallum_motion_pilot_GIST_update_2,2026.1.1,MacIntel,59.52380952,669e3aceb62ce654ecaf410e,69b92ab4aef6dee357cd729a,69b92b4fbd40bd8f4ebd3312,0.0251,0.0251,0,1,1,112,1,fivesix,,,,,,,,,,,,,,,,,,,,,,,,,,,,,,,,,,,,,,,,,,,,,,,,,,,,,,,,,,,,,,,,,,,,,,,,,,,,,,,,,,,,,,,,,,,,,,,,,,,,,,,,,,,,,,,,,,,,,,,,,,,,,,,,,,,,,,,,,
,,669e3aceb62ce654ecaf410e,2026-03-17_10h26.59.475,kallum_motion_pilot_GIST_update_2,2026.1.1,MacIntel,59.52380952,669e3aceb62ce654ecaf410e,69b92ab4aef6dee357cd729a,69b92b4fbd40bd8f4ebd3312,0.0252,0.0252,0,2,2,22,1,fourtwo,,,,,,,,,,,,,,,,,,,,,,,,,,,,,,,,,,,,,,,,,,,,,,,,,,,,,,,,,,,,,,,,,,,,,,,,,,,,,,,,,,,,,,,,,,,,,,,,,,,,,,,,,,,,,,,,,,,,,,,,,,,,,,,,,,,,,,,,,
,,669e3aceb62ce654ecaf410e,2026-03-17_10h26.59.475,kallum_motion_pilot_GIST_update_2,2026.1.1,MacIntel,59.52380952,669e3aceb62ce654ecaf410e,69b92ab4aef6dee357cd729a,69b92b4fbd40bd8f4ebd3312,0.0254,0.0254,0,3,3,124,1,sevenfive,,,,,,,,,,,,,,,,,,,,,,,,,,,,,,,,,,,,,,,,,,,,,,,,,,,,,,,,,,,,,,,,,,,,,,,,,,,,,,,,,,,,,,,,,,,,,,,,,,,,,,,,,,,,,,,,,,,,,,,,,,,,,,,,,,,,,,,,,
,,669e3aceb62ce654ecaf410e,2026-03-17_10h26.59.475,kallum_motion_pilot_GIST_update_2,2026.1.1,MacIntel,59.52380952,669e3aceb62ce654ecaf410e,69b92ab4aef6dee357cd729a,69b92b4fbd40bd8f4ebd3312,0.0256,0.0256,0,4,4,35,1,twofour,,,,,,,,,,,,,,,,,,,,,,,,,,,,,,,,,,,,,,,,,,,,,,,,,,,,,,,,,,,,,,,,,,,,,,,,,,,,,,,,,,,,,,,,,,,,,,,,,,,,,,,,,,,,,,,,,,,,,,,,,,,,,,,,,,,,,,,,,
,,669e3aceb62ce654ecaf410e,2026-03-17_10h26.59.475,kallum_motion_pilot_GIST_update_2,2026.1.1,MacIntel,59.52380952,669e3aceb62ce654ecaf410e,69b92ab4aef6dee357cd729a,69b92b4fbd40bd8f4ebd3312,0.0257,0.0257,0,5,5,161,1,fiveseven,,,,,,,,,,,,,,,,,,,,,,,,,,,,,,,,,,,,,,,,,,,,,,,,,,,,,,,,,,,,,,,,,,,,,,,,,,,,,,,,,,,,,,,,,,,,,,,,,,,,,,,,,,,,,,,,,,,,,,,,,,,,,,,,,,,,,,,,,
,,669e3aceb62ce654ecaf410e,2026-03-17_10h26.59.475,kallum_motion_pilot_GIST_update_2,2026.1.1,MacIntel,59.52380952,669e3aceb62ce654ecaf410e,69b92ab4aef6dee357cd729a,69b92b4fbd40bd8f4ebd3312,0.0259,0.0259,0,6,6,80,1,fivesix,,,,,,,,,,,,,,,,,,,,,,,,,,,,,,,,,,,,,,,,,,,,,,,,,,,,,,,,,,,,,,,,,,,,,,,,,,,,,,,,,,,,,,,,,,,,,,,,,,,,,,,,,,,,,,,,,,,,,,,,,,,,,,,,,,,,,,,,,
,,669e3aceb62ce654ecaf410e,2026-03-17_10h26.59.475,kallum_motion_pilot_GIST_update_2,2026.1.1,MacIntel,59.52380952,669e3aceb62ce654ecaf410e,69b92ab4aef6dee357cd729a,69b92b4fbd40bd8f4ebd3312,0.0261,0.0261,0,7,7,38,1,fourtwo,,,,,,,,,,,,,,,,,,,,,,,,,,,,,,,,,,,,,,,,,,,,,,,,,,,,,,,,,,,,,,,,,,,,,,,,,,,,,,,,,,,,,,,,,,,,,,,,,,,,,,,,,,,,,,,,,,,,,,,,,,,,,,,,,,,,,,,,,
,,669e3aceb62ce654ecaf410e,2026-03-17_10h26.59.475,kallum_motion_pilot_GIST_update_2,2026.1.1,MacIntel,59.52380952,669e3aceb62ce654ecaf410e,69b92ab4aef6dee357cd729a,69b92b4fbd40bd8f4ebd3312,0.0263,0.0263,0,8,8,64,1,onetwo,,,,,,,,,,,,,,,,,,,,,,,,,,,,,,,,,,,,,,,,,,,,,,,,,,,,,,,,,,,,,,,,,,,,,,,,,,,,,,,,,,,,,,,,,,,,,,,,,,,,,,,,,,,,,,,,,,,,,,,,,,,,,,,,,,,,,,,,,
,,669e3aceb62ce654ecaf410e,2026-03-17_10h26.59.475,kallum_motion_pilot_GIST_update_2,2026.1.1,MacIntel,59.52380952,669e3aceb62ce654ecaf410e,69b92ab4aef6dee357cd729a,69b92b4fbd40bd8f4ebd3312,0.0264,0.0265,0,9,9,45,1,threefour,,,,,,,,,,,,,,,,,,,,,,,,,,,,,,,,,,,,,,,,,,,,,,,,,,,,,,,,,,,,,,,,,,,,,,,,,,,,,,,,,,,,,,,,,,,,,,,,,,,,,,,,,,,,,,,,,,,,,,,,,,,,,,,,,,,,,,,,,
,,669e3aceb62ce654ecaf410e,2026-03-17_10h26.59.475,kallum_motion_pilot_GIST_update_2,2026.1.1,MacIntel,59.52380952,669e3aceb62ce654ecaf410e,69b92ab4aef6dee357cd729a,69b92b4fbd40bd8f4ebd3312,0.0266,0.0266,0,10,10,78,1,fourtwo,,,,,,,,,,,,,,,,,,,,,,,,,,,,,,,,,,,,,,,,,,,,,,,,,,,,,,,,,,,,,,,,,,,,,,,,,,,,,,,,,,,,,,,,,,,,,,,,,,,,,,,,,,,,,,,,,,,,,,,,,,,,,,,,,,,,,,,,,
,,669e3aceb62ce654ecaf410e,2026-03-17_10h26.59.475,kallum_motion_pilot_GIST_update_2,2026.1.1,MacIntel,59.52380952,669e3aceb62ce654ecaf410e,69b92ab4aef6dee357cd729a,69b92b4fbd40bd8f4ebd3312,0.0267,0.0267,0,11,11,141,1,seveneight,,,,,,,,,,,,,,,,,,,,,,,,,,,,,,,,,,,,,,,,,,,,,,,,,,,,,,,,,,,,,,,,,,,,,,,,,,,,,,,,,,,,,,,,,,,,,,,,,,,,,,,,,,,,,,,,,,,,,,,,,,,,,,,,,,,,,,,,,
,,669e3aceb62ce654ecaf410e,2026-03-17_10h26.59.475,kallum_motion_pilot_GIST_update_2,2026.1.1,MacIntel,59.52380952,669e3aceb62ce654ecaf410e,69b92ab4aef6dee357cd729a,69b92b4fbd40bd8f4ebd3312,0.0268,0.0268,0,12,12,138,1,sixfive,,,,,,,,,,,,,,,,,,,,,,,,,,,,,,,,,,,,,,,,,,,,,,,,,,,,,,,,,,,,,,,,,,,,,,,,,,,,,,,,,,,,,,,,,,,,,,,,,,,,,,,,,,,,,,,,,,,,,,,,,,,,,,,,,,,,,,,,,
,,669e3aceb62ce654ecaf410e,2026-03-17_10h26.59.475,kallum_motion_pilot_GIST_update_2,2026.1.1,MacIntel,59.52380952,669e3aceb62ce654ecaf410e,69b92ab4aef6dee357cd729a,69b92b4fbd40bd8f4ebd3312,0.0269,0.0269,0,13,13,147,1,sixeight,,,,,,,,,,,,,,,,,,,,,,,,,,,,,,,,,,,,,,,,,,,,,,,,,,,,,,,,,,,,,,,,,,,,,,,,,,,,,,,,,,,,,,,,,,,,,,,,,,,,,,,,,,,,,,,,,,,,,,,,,,,,,,,,,,,,,,,,,
,,669e3aceb62ce654ecaf410e,2026-03-17_10h26.59.475,kallum_motion_pilot_GIST_update_2,2026.1.1,MacIntel,59.52380952,669e3aceb62ce654ecaf410e,69b92ab4aef6dee357cd729a,69b92b4fbd40bd8f4ebd3312,0.0271,0.0271,0,14,14,140,1,sevenfive,,,,,,,,,,,,,,,,,,,,,,,,,,,,,,,,,,,,,,,,,,,,,,,,,,,,,,,,,,,,,,,,,,,,,,,,,,,,,,,,,,,,,,,,,,,,,,,,,,,,,,,,,,,,,,,,,,,,,,,,,,,,,,,,,,,,,,,,,
,,669e3aceb62ce654ecaf410e,2026-03-17_10h26.59.475,kallum_motion_pilot_GIST_update_2,2026.1.1,MacIntel,59.52380952,669e3aceb62ce654ecaf410e,69b92ab4aef6dee357cd729a,69b92b4fbd40bd8f4ebd3312,0.0271,0.0272,0,15,15,53,1,threefour,,,,,,,,,,,,,,,,,,,,,,,,,,,,,,,,,,,,,,,,,,,,,,,,,,,,,,,,,,,,,,,,,,,,,,,,,,,,,,,,,,,,,,,,,,,,,,,,,,,,,,,,,,,,,,,,,,,,,,,,,,,,,,,,,,,,,,,,,
,,669e3aceb62ce654ecaf410e,2026-03-17_10h26.59.475,kallum_motion_pilot_GIST_update_2,2026.1.1,MacIntel,59.52380952,669e3aceb62ce654ecaf410e,69b92ab4aef6dee357cd729a,69b92b4fbd40bd8f4ebd3312,0.0273,0.0273,0,16,16,27,1,twofour,,,,,,,,,,,,,,,,,,,,,,,,,,,,,,,,,,,,,,,,,,,,,,,,,,,,,,,,,,,,,,,,,,,,,,,,,,,,,,,,,,,,,,,,,,,,,,,,,,,,,,,,,,,,,,,,,,,,,,,,,,,,,,,,,,,,,,,,,
,,669e3aceb62ce654ecaf410e,2026-03-17_10h26.59.475,kallum_motion_pilot_GIST_update_2,2026.1.1,MacIntel,59.52380952,669e3aceb62ce654ecaf410e,69b92ab4aef6dee357cd729a,69b92b4fbd40bd8f4ebd3312,0.0273,0.0273,0,17,17,65,1,onethree,,,,,,,,,,,,,,,,,,,,,,,,,,,,,,,,,,,,,,,,,,,,,,,,,,,,,,,,,,,,,,,,,,,,,,,,,,,,,,,,,,,,,,,,,,,,,,,,,,,,,,,,,,,,,,,,,,,,,,,,,,,,,,,,,,,,,,,,,
,,669e3aceb62ce654ecaf410e,2026-03-17_10h26.59.475,kallum_motion_pilot_GIST_update_2,2026.1.1,MacIntel,59.52380952,669e3aceb62ce654ecaf410e,69b92ab4aef6dee357cd729a,69b92b4fbd40bd8f4ebd3312,0.0274,0.0274,0,18,18,89,1,fiveseven,,,,,,,,,,,,,,,,,,,,,,,,,,,,,,,,,,,,,,,,,,,,,,,,,,,,,,,,,,,,,,,,,,,,,,,,,,,,,,,,,,,,,,,,,,,,,,,,,,,,,,,,,,,,,,,,,,,,,,,,,,,,,,,,,,,,,,,,,
,,669e3aceb62ce654ecaf410e,2026-03-17_10h26.59.475,kallum_motion_pilot_GIST_update_2,2026.1.1,MacIntel,59.52380952,669e3aceb62ce654ecaf410e,69b92ab4aef6dee357cd729a,69b92b4fbd40bd8f4ebd3312,0.0275,0.0275,0,19,19,100,1,sevenfive,,,,,,,,,,,,,,,,,,,,,,,,,,,,,,,,,,,,,,,,,,,,,,,,,,,,,,,,,,,,,,,,,,,,,,,,,,,,,,,,,,,,,,,,,,,,,,,,,,,,,,,,,,,,,,,,,,,,,,,,,,,,,,,,,,,,,,,,,
,,669e3aceb62ce654ecaf410e,2026-03-17_10h26.59.475,kallum_motion_pilot_GIST_update_2,2026.1.1,MacIntel,59.52380952,669e3aceb62ce654ecaf410e,69b92ab4aef6dee357cd729a,69b92b4fbd40bd8f4ebd3312,0.0276,0.0276,0,20,20,79,1,eightseven,,,,,,,,,,,,,,,,,,,,,,,,,,,,,,,,,,,,,,,,,,,,,,,,,,,,,,,,,,,,,,,,,,,,,,,,,,,,,,,,,,,,,,,,,,,,,,,,,,,,,,,,,,,,,,,,,,,,,,,,,,,,,,,,,,,,,,,,,
,,669e3aceb62ce654ecaf410e,2026-03-17_10h26.59.475,kallum_motion_pilot_GIST_update_2,2026.1.1,MacIntel,59.52380952,669e3aceb62ce654ecaf410e,69b92ab4aef6dee357cd729a,69b92b4fbd40bd8f4ebd3312,0.0277,0.0277,0,21,21,33,1,onethree,,,,,,,,,,,,,,,,,,,,,,,,,,,,,,,,,,,,,,,,,,,,,,,,,,,,,,,,,,,,,,,,,,,,,,,,,,,,,,,,,,,,,,,,,,,,,,,,,,,,,,,,,,,,,,,,,,,,,,,,,,,,,,,,,,,,,,,,,
,,669e3aceb62ce654ecaf410e,2026-03-17_10h26.59.475,kallum_motion_pilot_GIST_update_2,2026.1.1,MacIntel,59.52380952,669e3aceb62ce654ecaf410e,69b92ab4aef6dee357cd729a,69b92b4fbd40bd8f4ebd3312,0.0279,0.0279,0,22,22,98,1,sixfive,,,,,,,,,,,,,,,,,,,,,,,,,,,,,,,,,,,,,,,,,,,,,,,,,,,,,,,,,,,,,,,,,,,,,,,,,,,,,,,,,,,,,,,,,,,,,,,,,,,,,,,,,,,,,,,,,,,,,,,,,,,,,,,,,,,,,,,,,
,,669e3aceb62ce654ecaf410e,2026-03-17_10h26.59.475,kallum_motion_pilot_GIST_update_2,2026.1.1,MacIntel,59.52380952,669e3aceb62ce654ecaf410e,69b92ab4aef6dee357cd729a,69b92b4fbd40bd8f4ebd3312,0.0279,0.0279,0,23,23,107,1,sixeight,,,,,,,,,,,,,,,,,,,,,,,,,,,,,,,,,,,,,,,,,,,,,,,,,,,,,,,,,,,,,,,,,,,,,,,,,,,,,,,,,,,,,,,,,,,,,,,,,,,,,,,,,,,,,,,,,,,,,,,,,,,,,,,,,,,,,,,,,
,,669e3aceb62ce654ecaf410e,2026-03-17_10h26.59.475,kallum_motion_pilot_GIST_update_2,2026.1.1,MacIntel,59.52380952,669e3aceb62ce654ecaf410e,69b92ab4aef6dee357cd729a,69b92b4fbd40bd8f4ebd3312,0.028,0.0281,0,24,24,136,1,fivesix,,,,,,,,,,,,,,,,,,,,,,,,,,,,,,,,,,,,,,,,,,,,,,,,,,,,,,,,,,,,,,,,,,,,,,,,,,,,,,,,,,,,,,,,,,,,,,,,,,,,,,,,,,,,,,,,,,,,,,,,,,,,,,,,,,,,,,,,,
,,669e3aceb62ce654ecaf410e,2026-03-17_10h26.59.475,kallum_motion_pilot_GIST_update_2,2026.1.1,MacIntel,59.52380952,669e3aceb62ce654ecaf410e,69b92ab4aef6dee357cd729a,69b92b4fbd40bd8f4ebd3312,0.0281,0.0281,0,25,25,156,1,sevenfive,,,,,,,,,,,,,,,,,,,,,,,,,,,,,,,,,,,,,,,,,,,,,,,,,,,,,,,,,,,,,,,,,,,,,,,,,,,,,,,,,,,,,,,,,,,,,,,,,,,,,,,,,,,,,,,,,,,,,,,,,,,,,,,,,,,,,,,,,
,,669e3aceb62ce654ecaf410e,2026-03-17_10h26.59.475,kallum_motion_pilot_GIST_update_2,2026.1.1,MacIntel,59.52380952,669e3aceb62ce654ecaf410e,69b92ab4aef6dee357cd729a,69b92b4fbd40bd8f4ebd3312,0.0283,0.0283,0,26,26,86,1,eightsix,,,,,,,,,,,,,,,,,,,,,,,,,,,,,,,,,,,,,,,,,,,,,,,,,,,,,,,,,,,,,,,,,,,,,,,,,,,,,,,,,,,,,,,,,,,,,,,,,,,,,,,,,,,,,,,,,,,,,,,,,,,,,,,,,,,,,,,,,
,,669e3aceb62ce654ecaf410e,2026-03-17_10h26.59.475,kallum_motion_pilot_GIST_update_2,2026.1.1,MacIntel,59.52380952,669e3aceb62ce654ecaf410e,69b92ab4aef6dee357cd729a,69b92b4fbd40bd8f4ebd3312,0.0283,0.0283,0,27,27,52,1,threeone,,,,,,,,,,,,,,,,,,,,,,,,,,,,,,,,,,,,,,,,,,,,,,,,,,,,,,,,,,,,,,,,,,,,,,,,,,,,,,,,,,,,,,,,,,,,,,,,,,,,,,,,,,,,,,,,,,,,,,,,,,,,,,,,,,,,,,,,,
,,669e3aceb62ce654ecaf410e,2026-03-17_10h26.59.475,kallum_motion_pilot_GIST_update_2,2026.1.1,MacIntel,59.52380952,669e3aceb62ce654ecaf410e,69b92ab4aef6dee357cd729a,69b92b4fbd40bd8f4ebd3312,0.0284,0.0284,0,28,28,32,1,onetwo,,,,,,,,,,,,,,,,,,,,,,,,,,,,,,,,,,,,,,,,,,,,,,,,,,,,,,,,,,,,,,,,,,,,,,,,,,,,,,,,,,,,,,,,,,,,,,,,,,,,,,,,,,,,,,,,,,,,,,,,,,,,,,,,,,,,,,,,,
,,669e3aceb62ce654ecaf410e,2026-03-17_10h26.59.475,kallum_motion_pilot_GIST_update_2,2026.1.1,MacIntel,59.52380952,669e3aceb62ce654ecaf410e,69b92ab4aef6dee357cd729a,69b92b4fbd40bd8f4ebd3312,0.0285,0.0285,0,29,29,159,1,eightseven,,,,,,,,,,,,,,,,,,,,,,,,,,,,,,,,,,,,,,,,,,,,,,,,,,,,,,,,,,,,,,,,,,,,,,,,,,,,,,,,,,,,,,,,,,,,,,,,,,,,,,,,,,,,,,,,,,,,,,,,,,,,,,,,,,,,,,,,,
,,669e3aceb62ce654ecaf410e,2026-03-17_10h26.59.475,kallum_motion_pilot_GIST_update_2,2026.1.1,MacIntel,59.52380952,669e3aceb62ce654ecaf410e,69b92ab4aef6dee357cd729a,69b92b4fbd40bd8f4ebd3312,0.0286,0.0286,0,30,30,11,1,twofour,,,,,,,,,,,,,,,,,,,,,,,,,,,,,,,,,,,,,,,,,,,,,,,,,,,,,,,,,,,,,,,,,,,,,,,,,,,,,,,,,,,,,,,,,,,,,,,,,,,,,,,,,,,,,,,,,,,,,,,,,,,,,,,,,,,,,,,,,
,,669e3aceb62ce654ecaf410e,2026-03-17_10h26.59.475,kallum_motion_pilot_GIST_update_2,2026.1.1,MacIntel,59.52380952,669e3aceb62ce654ecaf410e,69b92ab4aef6dee357cd729a,69b92b4fbd40bd8f4ebd3312,0.0287,0.0287,0,31,31,6,1,fourtwo,,,,,,,,,,,,,,,,,,,,,,,,,,,,,,,,,,,,,,,,,,,,,,,,,,,,,,,,,,,,,,,,,,,,,,,,,,,,,,,,,,,,,,,,,,,,,,,,,,,,,,,,,,,,,,,,,,,,,,,,,,,,,,,,,,,,,,,,,
,,669e3aceb62ce654ecaf410e,2026-03-17_10h26.59.475,kallum_motion_pilot_GIST_update_2,2026.1.1,MacIntel,59.52380952,669e3aceb62ce654ecaf410e,69b92ab4aef6dee357cd729a,69b92b4fbd40bd8f4ebd3312,0.0288,0.0288,0,32,32,18,1,twoone,,,,,,,,,,,,,,,,,,,,,,,,,,,,,,,,,,,,,,,,,,,,,,,,,,,,,,,,,,,,,,,,,,,,,,,,,,,,,,,,,,,,,,,,,,,,,,,,,,,,,,,,,,,,,,,,,,,,,,,,,,,,,,,,,,,,,,,,,
,,669e3aceb62ce654ecaf410e,2026-03-17_10h26.59.475,kallum_motion_pilot_GIST_update_2,2026.1.1,MacIntel,59.52380952,669e3aceb62ce654ecaf410e,69b92ab4aef6dee357cd729a,69b92b4fbd40bd8f4ebd3312,0.0289,0.0289,0,33,33,48,1,onetwo,,,,,,,,,,,,,,,,,,,,,,,,,,,,,,,,,,,,,,,,,,,,,,,,,,,,,,,,,,,,,,,,,,,,,,,,,,,,,,,,,,,,,,,,,,,,,,,,,,,,,,,,,,,,,,,,,,,,,,,,,,,,,,,,,,,,,,,,,
,,669e3aceb62ce654ecaf410e,2026-03-17_10h26.59.475,kallum_motion_pilot_GIST_update_2,2026.1.1,MacIntel,59.52380952,669e3aceb62ce654ecaf410e,69b92ab4aef6dee357cd729a,69b92b4fbd40bd8f4ebd3312,0.029,0.029,0,34,34,158,1,eightsix,,,,,,,,,,,,,,,,,,,,,,,,,,,,,,,,,,,,,,,,,,,,,,,,,,,,,,,,,,,,,,,,,,,,,,,,,,,,,,,,,,,,,,,,,,,,,,,,,,,,,,,,,,,,,,,,,,,,,,,,,,,,,,,,,,,,,,,,,
,,669e3aceb62ce654ecaf410e,2026-03-17_10h26.59.475,kallum_motion_pilot_GIST_update_2,2026.1.1,MacIntel,59.52380952,669e3aceb62ce654ecaf410e,69b92ab4aef6dee357cd729a,69b92b4fbd40bd8f4ebd3312,0.0291,0.0291,0,35,35,19,1,twofour,,,,,,,,,,,,,,,,,,,,,,,,,,,,,,,,,,,,,,,,,,,,,,,,,,,,,,,,,,,,,,,,,,,,,,,,,,,,,,,,,,,,,,,,,,,,,,,,,,,,,,,,,,,,,,,,,,,,,,,,,,,,,,,,,,,,,,,,,
,,669e3aceb62ce654ecaf410e,2026-03-17_10h26.59.475,kallum_motion_pilot_GIST_update_2,2026.1.1,MacIntel,59.52380952,669e3aceb62ce654ecaf410e,69b92ab4aef6dee357cd729a,69b92b4fbd40bd8f4ebd3312,0.0292,0.0292,0,36,36,84,1,sevenfive,,,,,,,,,,,,,,,,,,,,,,,,,,,,,,,,,,,,,,,,,,,,,,,,,,,,,,,,,,,,,,,,,,,,,,,,,,,,,,,,,,,,,,,,,,,,,,,,,,,,,,,,,,,,,,,,,,,,,,,,,,,,,,,,,,,,,,,,,
,,669e3aceb62ce654ecaf410e,2026-03-17_10h26.59.475,kallum_motion_pilot_GIST_update_2,2026.1.1,MacIntel,59.52380952,669e3aceb62ce654ecaf410e,69b92ab4aef6dee357cd729a,69b92b4fbd40bd8f4ebd3312,0.0293,0.0293,0,37,37,56,1,onetwo,,,,,,,,,,,,,,,,,,,,,,,,,,,,,,,,,,,,,,,,,,,,,,,,,,,,,,,,,,,,,,,,,,,,,,,,,,,,,,,,,,,,,,,,,,,,,,,,,,,,,,,,,,,,,,,,,,,,,,,,,,,,,,,,,,,,,,,,,
,,669e3aceb62ce654ecaf410e,2026-03-17_10h26.59.475,kallum_motion_pilot_GIST_update_2,2026.1.1,MacIntel,59.52380952,669e3aceb62ce654ecaf410e,69b92ab4aef6dee357cd729a,69b92b4fbd40bd8f4ebd3312,0.0293,0.0293,0,38,38,44,1,threeone,,,,,,,,,,,,,,,,,,,,,,,,,,,,,,,,,,,,,,,,,,,,,,,,,,,,,,,,,,,,,,,,,,,,,,,,,,,,,,,,,,,,,,,,,,,,,,,,,,,,,,,,,,,,,,,,,,,,,,,,,,,,,,,,,,,,,,,,,
,,669e3aceb62ce654ecaf410e,2026-03-17_10h26.59.475,kallum_motion_pilot_GIST_update_2,2026.1.1,MacIntel,59.52380952,669e3aceb62ce654ecaf410e,69b92ab4aef6dee357cd729a,69b92b4fbd40bd8f4ebd3312,0.0295,0.0295,0,39,39,49,1,onethree,,,,,,,,,,,,,,,,,,,,,,,,,,,,,,,,,,,,,,,,,,,,,,,,,,,,,,,,,,,,,,,,,,,,,,,,,,,,,,,,,,,,,,,,,,,,,,,,,,,,,,,,,,,,,,,,,,,,,,,,,,,,,,,,,,,,,,,,,
,,669e3aceb62ce654ecaf410e,2026-03-17_10h26.59.475,kallum_motion_pilot_GIST_update_2,2026.1.1,MacIntel,59.52380952,669e3aceb62ce654ecaf410e,69b92ab4aef6dee357cd729a,69b92b4fbd40bd8f4ebd3312,0.0295,0.0295,0,40,40,122,1,sixfive,,,,,,,,,,,,,,,,,,,,,,,,,,,,,,,,,,,,,,,,,,,,,,,,,,,,,,,,,,,,,,,,,,,,,,,,,,,,,,,,,,,,,,,,,,,,,,,,,,,,,,,,,,,,,,,,,,,,,,,,,,,,,,,,,,,,,,,,,
,,669e3aceb62ce654ecaf410e,2026-03-17_10h26.59.475,kallum_motion_pilot_GIST_update_2,2026.1.1,MacIntel,59.52380952,669e3aceb62ce654ecaf410e,69b92ab4aef6dee357cd729a,69b92b4fbd40bd8f4ebd3312,0.0297,0.0297,0,41,41,37,1,threefour,,,,,,,,,,,,,,,,,,,,,,,,,,,,,,,,,,,,,,,,,,,,,,,,,,,,,,,,,,,,,,,,,,,,,,,,,,,,,,,,,,,,,,,,,,,,,,,,,,,,,,,,,,,,,,,,,,,,,,,,,,,,,,,,,,,,,,,,,
,,669e3aceb62ce654ecaf410e,2026-03-17_10h26.59.475,kallum_motion_pilot_GIST_update_2,2026.1.1,MacIntel,59.52380952,669e3aceb62ce654ecaf410e,69b92ab4aef6dee357cd729a,69b92b4fbd40bd8f4ebd3312,0.0297,0.0297,0,42,42,46,1,fourtwo,,,,,,,,,,,,,,,,,,,,,,,,,,,,,,,,,,,,,,,,,,,,,,,,,,,,,,,,,,,,,,,,,,,,,,,,,,,,,,,,,,,,,,,,,,,,,,,,,,,,,,,,,,,,,,,,,,,,,,,,,,,,,,,,,,,,,,,,,
,,669e3aceb62ce654ecaf410e,2026-03-17_10h26.59.475,kallum_motion_pilot_GIST_update_2,2026.1.1,MacIntel,59.52380952,669e3aceb62ce654ecaf410e,69b92ab4aef6dee357cd729a,69b92b4fbd40bd8f4ebd3312,0.0299,0.0299,0,43,43,42,1,twoone,,,,,,,,,,,,,,,,,,,,,,,,,,,,,,,,,,,,,,,,,,,,,,,,,,,,,,,,,,,,,,,,,,,,,,,,,,,,,,,,,,,,,,,,,,,,,,,,,,,,,,,,,,,,,,,,,,,,,,,,,,,,,,,,,,,,,,,,,
,,669e3aceb62ce654ecaf410e,2026-03-17_10h26.59.475,kallum_motion_pilot_GIST_update_2,2026.1.1,MacIntel,59.52380952,669e3aceb62ce654ecaf410e,69b92ab4aef6dee357cd729a,69b92b4fbd40bd8f4ebd3312,0.0306,0.0306,0,44,44,75,1,twofour,,,,,,,,,,,,,,,,,,,,,,,,,,,,,,,,,,,,,,,,,,,,,,,,,,,,,,,,,,,,,,,,,,,,,,,,,,,,,,,,,,,,,,,,,,,,,,,,,,,,,,,,,,,,,,,,,,,,,,,,,,,,,,,,,,,,,,,,,
,,669e3aceb62ce654ecaf410e,2026-03-17_10h26.59.475,kallum_motion_pilot_GIST_update_2,2026.1.1,MacIntel,59.52380952,669e3aceb62ce654ecaf410e,69b92ab4aef6dee357cd729a,69b92b4fbd40bd8f4ebd3312,0.0307,0.0307,0,45,45,160,1,fivesix,,,,,,,,,,,,,,,,,,,,,,,,,,,,,,,,,,,,,,,,,,,,,,,,,,,,,,,,,,,,,,,,,,,,,,,,,,,,,,,,,,,,,,,,,,,,,,,,,,,,,,,,,,,,,,,,,,,,,,,,,,,,,,,,,,,,,,,,,
,,669e3aceb62ce654ecaf410e,2026-03-17_10h26.59.475,kallum_motion_pilot_GIST_update_2,2026.1.1,MacIntel,59.52380952,669e3aceb62ce654ecaf410e,69b92ab4aef6dee357cd729a,69b92b4fbd40bd8f4ebd3312,0.0309,0.0309,0,46,46,24,1,onetwo,,,,,,,,,,,,,,,,,,,,,,,,,,,,,,,,,,,,,,,,,,,,,,,,,,,,,,,,,,,,,,,,,,,,,,,,,,,,,,,,,,,,,,,,,,,,,,,,,,,,,,,,,,,,,,,,,,,,,,,,,,,,,,,,,,,,,,,,,
,,669e3aceb62ce654ecaf410e,2026-03-17_10h26.59.475,kallum_motion_pilot_GIST_update_2,2026.1.1,MacIntel,59.52380952,669e3aceb62ce654ecaf410e,69b92ab4aef6dee357cd729a,69b92b4fbd40bd8f4ebd3312,0.031,0.0311,0,47,47,129,1,fiveseven,,,,,,,,,,,,,,,,,,,,,,,,,,,,,,,,,,,,,,,,,,,,,,,,,,,,,,,,,,,,,,,,,,,,,,,,,,,,,,,,,,,,,,,,,,,,,,,,,,,,,,,,,,,,,,,,,,,,,,,,,,,,,,,,,,,,,,,,,
,,669e3aceb62ce654ecaf410e,2026-03-17_10h26.59.475,kallum_motion_pilot_GIST_update_2,2026.1.1,MacIntel,59.52380952,669e3aceb62ce654ecaf410e,69b92ab4aef6dee357cd729a,69b92b4fbd40bd8f4ebd3312,0.0312,0.0312,0,48,48,9,1,onethree,,,,,,,,,,,,,,,,,,,,,,,,,,,,,,,,,,,,,,,,,,,,,,,,,,,,,,,,,,,,,,,,,,,,,,,,,,,,,,,,,,,,,,,,,,,,,,,,,,,,,,,,,,,,,,,,,,,,,,,,,,,,,,,,,,,,,,,,,
,,669e3aceb62ce654ecaf410e,2026-03-17_10h26.59.475,kallum_motion_pilot_GIST_update_2,2026.1.1,MacIntel,59.52380952,669e3aceb62ce654ecaf410e,69b92ab4aef6dee357cd729a,69b92b4fbd40bd8f4ebd3312,0.0313,0.0313,0,49,49,118,1,eightsix,,,,,,,,,,,,,,,,,,,,,,,,,,,,,,,,,,,,,,,,,,,,,,,,,,,,,,,,,,,,,,,,,,,,,,,,,,,,,,,,,,,,,,,,,,,,,,,,,,,,,,,,,,,,,,,,,,,,,,,,,,,,,,,,,,,,,,,,,
,,669e3aceb62ce654ecaf410e,2026-03-17_10h26.59.475,kallum_motion_pilot_GIST_update_2,2026.1.1,MacIntel,59.52380952,669e3aceb62ce654ecaf410e,69b92ab4aef6dee357cd729a,69b92b4fbd40bd8f4ebd3312,0.0315,0.0315,0,50,50,142,1,eightsix,,,,,,,,,,,,,,,,,,,,,,,,,,,,,,,,,,,,,,,,,,,,,,,,,,,,,,,,,,,,,,,,,,,,,,,,,,,,,,,,,,,,,,,,,,,,,,,,,,,,,,,,,,,,,,,,,,,,,,,,,,,,,,,,,,,,,,,,,
,,669e3aceb62ce654ecaf410e,2026-03-17_10h26.59.475,kallum_motion_pilot_GIST_update_2,2026.1.1,MacIntel,59.52380952,669e3aceb62ce654ecaf410e,69b92ab4aef6dee357cd729a,69b92b4fbd40bd8f4ebd3312,0.0315,0.0315,0,51,51,144,1,fivesix,,,,,,,,,,,,,,,,,,,,,,,,,,,,,,,,,,,,,,,,,,,,,,,,,,,,,,,,,,,,,,,,,,,,,,,,,,,,,,,,,,,,,,,,,,,,,,,,,,,,,,,,,,,,,,,,,,,,,,,,,,,,,,,,,,,,,,,,,
,,669e3aceb62ce654ecaf410e,2026-03-17_10h26.59.475,kallum_motion_pilot_GIST_update_2,2026.1.1,MacIntel,59.52380952,669e3aceb62ce654ecaf410e,69b92ab4aef6dee357cd729a,69b92b4fbd40bd8f4ebd3312,0.0316,0.0316,0,52,52,123,1,sixeight,,,,,,,,,,,,,,,,,,,,,,,,,,,,,,,,,,,,,,,,,,,,,,,,,,,,,,,,,,,,,,,,,,,,,,,,,,,,,,,,,,,,,,,,,,,,,,,,,,,,,,,,,,,,,,,,,,,,,,,,,,,,,,,,,,,,,,,,,
,,669e3aceb62ce654ecaf410e,2026-03-17_10h26.59.475,kallum_motion_pilot_GIST_update_2,2026.1.1,MacIntel,59.52380952,669e3aceb62ce654ecaf410e,69b92ab4aef6dee357cd729a,69b92b4fbd40bd8f4ebd3312,0.0317,0.0317,0,53,53,25,1,onethree,,,,,,,,,,,,,,,,,,,,,,,,,,,,,,,,,,,,,,,,,,,,,,,,,,,,,,,,,,,,,,,,,,,,,,,,,,,,,,,,,,,,,,,,,,,,,,,,,,,,,,,,,,,,,,,,,,,,,,,,,,,,,,,,,,,,,,,,,
,,669e3aceb62ce654ecaf410e,2026-03-17_10h26.59.475,kallum_motion_pilot_GIST_update_2,2026.1.1,MacIntel,59.52380952,669e3aceb62ce654ecaf410e,69b92ab4aef6dee357cd729a,69b92b4fbd40bd8f4ebd3312,0.0318,0.0318,0,54,54,5,1,threefour,,,,,,,,,,,,,,,,,,,,,,,,,,,,,,,,,,,,,,,,,,,,,,,,,,,,,,,,,,,,,,,,,,,,,,,,,,,,,,,,,,,,,,,,,,,,,,,,,,,,,,,,,,,,,,,,,,,,,,,,,,,,,,,,,,,,,,,,,
,,669e3aceb62ce654ecaf410e,2026-03-17_10h26.59.475,kallum_motion_pilot_GIST_update_2,2026.1.1,MacIntel,59.52380952,669e3aceb62ce654ecaf410e,69b92ab4aef6dee357cd729a,69b92b4fbd40bd8f4ebd3312,0.0319,0.0319,0,55,55,99,1,sixeight,,,,,,,,,,,,,,,,,,,,,,,,,,,,,,,,,,,,,,,,,,,,,,,,,,,,,,,,,,,,,,,,,,,,,,,,,,,,,,,,,,,,,,,,,,,,,,,,,,,,,,,,,,,,,,,,,,,,,,,,,,,,,,,,,,,,,,,,,
,,669e3aceb62ce654ecaf410e,2026-03-17_10h26.59.475,kallum_motion_pilot_GIST_update_2,2026.1.1,MacIntel,59.52380952,669e3aceb62ce654ecaf410e,69b92ab4aef6dee357cd729a,69b92b4fbd40bd8f4ebd3312,0.032,0.032,0,56,56,108,1,sevenfive,,,,,,,,,,,,,,,,,,,,,,,,,,,,,,,,,,,,,,,,,,,,,,,,,,,,,,,,,,,,,,,,,,,,,,,,,,,,,,,,,,,,,,,,,,,,,,,,,,,,,,,,,,,,,,,,,,,,,,,,,,,,,,,,,,,,,,,,,
,,669e3aceb62ce654ecaf410e,2026-03-17_10h26.59.475,kallum_motion_pilot_GIST_update_2,2026.1.1,MacIntel,59.52380952,669e3aceb62ce654ecaf410e,69b92ab4aef6dee357cd729a,69b92b4fbd40bd8f4ebd3312,0.0322,0.0322,0,57,57,77,1,threefour,,,,,,,,,,,,,,,,,,,,,,,,,,,,,,,,,,,,,,,,,,,,,,,,,,,,,,,,,,,,,,,,,,,,,,,,,,,,,,,,,,,,,,,,,,,,,,,,,,,,,,,,,,,,,,,,,,,,,,,,,,,,,,,,,,,,,,,,,
,,669e3aceb62ce654ecaf410e,2026-03-17_10h26.59.475,kallum_motion_pilot_GIST_update_2,2026.1.1,MacIntel,59.52380952,669e3aceb62ce654ecaf410e,69b92ab4aef6dee357cd729a,69b92b4fbd40bd8f4ebd3312,0.0323,0.0323,0,58,58,36,1,threeone,,,,,,,,,,,,,,,,,,,,,,,,,,,,,,,,,,,,,,,,,,,,,,,,,,,,,,,,,,,,,,,,,,,,,,,,,,,,,,,,,,,,,,,,,,,,,,,,,,,,,,,,,,,,,,,,,,,,,,,,,,,,,,,,,,,,,,,,,
,,669e3aceb62ce654ecaf410e,2026-03-17_10h26.59.475,kallum_motion_pilot_GIST_update_2,2026.1.1,MacIntel,59.52380952,669e3aceb62ce654ecaf410e,69b92ab4aef6dee357cd729a,69b92b4fbd40bd8f4ebd3312,0.0323,0.0323,0,59,59,155,1,sixeight,,,,,,,,,,,,,,,,,,,,,,,,,,,,,,,,,,,,,,,,,,,,,,,,,,,,,,,,,,,,,,,,,,,,,,,,,,,,,,,,,,,,,,,,,,,,,,,,,,,,,,,,,,,,,,,,,,,,,,,,,,,,,,,,,,,,,,,,,
,,669e3aceb62ce654ecaf410e,2026-03-17_10h26.59.475,kallum_motion_pilot_GIST_update_2,2026.1.1,MacIntel,59.52380952,669e3aceb62ce654ecaf410e,69b92ab4aef6dee357cd729a,69b92b4fbd40bd8f4ebd3312,0.0324,0.0325,0,60,60,132,1,sevenfive,,,,,,,,,,,,,,,,,,,,,,,,,,,,,,,,,,,,,,,,,,,,,,,,,,,,,,,,,,,,,,,,,,,,,,,,,,,,,,,,,,,,,,,,,,,,,,,,,,,,,,,,,,,,,,,,,,,,,,,,,,,,,,,,,,,,,,,,,
,,669e3aceb62ce654ecaf410e,2026-03-17_10h26.59.475,kallum_motion_pilot_GIST_update_2,2026.1.1,MacIntel,59.52380952,669e3aceb62ce654ecaf410e,69b92ab4aef6dee357cd729a,69b92b4fbd40bd8f4ebd3312,0.0325,0.0325,0,61,61,28,1,threeone,,,,,,,,,,,,,,,,,,,,,,,,,,,,,,,,,,,,,,,,,,,,,,,,,,,,,,,,,,,,,,,,,,,,,,,,,,,,,,,,,,,,,,,,,,,,,,,,,,,,,,,,,,,,,,,,,,,,,,,,,,,,,,,,,,,,,,,,,
,,669e3aceb62ce654ecaf410e,2026-03-17_10h26.59.475,kallum_motion_pilot_GIST_update_2,2026.1.1,MacIntel,59.52380952,669e3aceb62ce654ecaf410e,69b92ab4aef6dee357cd729a,69b92b4fbd40bd8f4ebd3312,0.0327,0.0327,0,62,62,14,1,fourtwo,,,,,,,,,,,,,,,,,,,,,,,,,,,,,,,,,,,,,,,,,,,,,,,,,,,,,,,,,,,,,,,,,,,,,,,,,,,,,,,,,,,,,,,,,,,,,,,,,,,,,,,,,,,,,,,,,,,,,,,,,,,,,,,,,,,,,,,,,
,,669e3aceb62ce654ecaf410e,2026-03-17_10h26.59.475,kallum_motion_pilot_GIST_update_2,2026.1.1,MacIntel,59.52380952,669e3aceb62ce654ecaf410e,69b92ab4aef6dee357cd729a,69b92b4fbd40bd8f4ebd3312,0.0328,0.0328,0,63,63,20,1,threeone,,,,,,,,,,,,,,,,,,,,,,,,,,,,,,,,,,,,,,,,,,,,,,,,,,,,,,,,,,,,,,,,,,,,,,,,,,,,,,,,,,,,,,,,,,,,,,,,,,,,,,,,,,,,,,,,,,,,,,,,,,,,,,,,,,,,,,,,,
,,669e3aceb62ce654ecaf410e,2026-03-17_10h26.59.475,kallum_motion_pilot_GIST_update_2,2026.1.1,MacIntel,59.52380952,669e3aceb62ce654ecaf410e,69b92ab4aef6dee357cd729a,69b92b4fbd40bd8f4ebd3312,0.0329,0.0329,0,64,64,82,1,sixfive,,,,,,,,,,,,,,,,,,,,,,,,,,,,,,,,,,,,,,,,,,,,,,,,,,,,,,,,,,,,,,,,,,,,,,,,,,,,,,,,,,,,,,,,,,,,,,,,,,,,,,,,,,,,,,,,,,,,,,,,,,,,,,,,,,,,,,,,,
,,669e3aceb62ce654ecaf410e,2026-03-17_10h26.59.475,kallum_motion_pilot_GIST_update_2,2026.1.1,MacIntel,59.52380952,669e3aceb62ce654ecaf410e,69b92ab4aef6dee357cd729a,69b92b4fbd40bd8f4ebd3312,0.033,0.033,0,65,65,72,1,onetwo,,,,,,,,,,,,,,,,,,,,,,,,,,,,,,,,,,,,,,,,,,,,,,,,,,,,,,,,,,,,,,,,,,,,,,,,,,,,,,,,,,,,,,,,,,,,,,,,,,,,,,,,,,,,,,,,,,,,,,,,,,,,,,,,,,,,,,,,,
,,669e3aceb62ce654ecaf410e,2026-03-17_10h26.59.475,kallum_motion_pilot_GIST_update_2,2026.1.1,MacIntel,59.52380952,669e3aceb62ce654ecaf410e,69b92ab4aef6dee357cd729a,69b92b4fbd40bd8f4ebd3312,0.0331,0.0331,0,66,66,57,1,onethree,,,,,,,,,,,,,,,,,,,,,,,,,,,,,,,,,,,,,,,,,,,,,,,,,,,,,,,,,,,,,,,,,,,,,,,,,,,,,,,,,,,,,,,,,,,,,,,,,,,,,,,,,,,,,,,,,,,,,,,,,,,,,,,,,,,,,,,,,
,,669e3aceb62ce654ecaf410e,2026-03-17_10h26.59.475,kallum_motion_pilot_GIST_update_2,2026.1.1,MacIntel,59.52380952,669e3aceb62ce654ecaf410e,69b92ab4aef6dee357cd729a,69b92b4fbd40bd8f4ebd3312,0.0333,0.0333,0,67,67,70,1,fourtwo,,,,,,,,,,,,,,,,,,,,,,,,,,,,,,,,,,,,,,,,,,,,,,,,,,,,,,,,,,,,,,,,,,,,,,,,,,,,,,,,,,,,,,,,,,,,,,,,,,,,,,,,,,,,,,,,,,,,,,,,,,,,,,,,,,,,,,,,,
,,669e3aceb62ce654ecaf410e,2026-03-17_10h26.59.475,kallum_motion_pilot_GIST_update_2,2026.1.1,MacIntel,59.52380952,669e3aceb62ce654ecaf410e,69b92ab4aef6dee357cd729a,69b92b4fbd40bd8f4ebd3312,0.0333,0.0333,0,68,68,114,1,sixfive,,,,,,,,,,,,,,,,,,,,,,,,,,,,,,,,,,,,,,,,,,,,,,,,,,,,,,,,,,,,,,,,,,,,,,,,,,,,,,,,,,,,,,,,,,,,,,,,,,,,,,,,,,,,,,,,,,,,,,,,,,,,,,,,,,,,,,,,,
,,669e3aceb62ce654ecaf410e,2026-03-17_10h26.59.475,kallum_motion_pilot_GIST_update_2,2026.1.1,MacIntel,59.52380952,669e3aceb62ce654ecaf410e,69b92ab4aef6dee357cd729a,69b92b4fbd40bd8f4ebd3312,0.0335,0.0335,0,69,69,128,1,fivesix,,,,,,,,,,,,,,,,,,,,,,,,,,,,,,,,,,,,,,,,,,,,,,,,,,,,,,,,,,,,,,,,,,,,,,,,,,,,,,,,,,,,,,,,,,,,,,,,,,,,,,,,,,,,,,,,,,,,,,,,,,,,,,,,,,,,,,,,,
,,669e3aceb62ce654ecaf410e,2026-03-17_10h26.59.475,kallum_motion_pilot_GIST_update_2,2026.1.1,MacIntel,59.52380952,669e3aceb62ce654ecaf410e,69b92ab4aef6dee357cd729a,69b92b4fbd40bd8f4ebd3312,0.0336,0.0336,0,70,70,120,1,fivesix,,,,,,,,,,,,,,,,,,,,,,,,,,,,,,,,,,,,,,,,,,,,,,,,,,,,,,,,,,,,,,,,,,,,,,,,,,,,,,,,,,,,,,,,,,,,,,,,,,,,,,,,,,,,,,,,,,,,,,,,,,,,,,,,,,,,,,,,,
,,669e3aceb62ce654ecaf410e,2026-03-17_10h26.59.475,kallum_motion_pilot_GIST_update_2,2026.1.1,MacIntel,59.52380952,669e3aceb62ce654ecaf410e,69b92ab4aef6dee357cd729a,69b92b4fbd40bd8f4ebd3312,0.0337,0.0337,0,71,71,85,1,seveneight,,,,,,,,,,,,,,,,,,,,,,,,,,,,,,,,,,,,,,,,,,,,,,,,,,,,,,,,,,,,,,,,,,,,,,,,,,,,,,,,,,,,,,,,,,,,,,,,,,,,,,,,,,,,,,,,,,,,,,,,,,,,,,,,,,,,,,,,,
,,669e3aceb62ce654ecaf410e,2026-03-17_10h26.59.475,kallum_motion_pilot_GIST_update_2,2026.1.1,MacIntel,59.52380952,669e3aceb62ce654ecaf410e,69b92ab4aef6dee357cd729a,69b92b4fbd40bd8f4ebd3312,0.0339,0.0339,0,72,72,96,1,fivesix,,,,,,,,,,,,,,,,,,,,,,,,,,,,,,,,,,,,,,,,,,,,,,,,,,,,,,,,,,,,,,,,,,,,,,,,,,,,,,,,,,,,,,,,,,,,,,,,,,,,,,,,,,,,,,,,,,,,,,,,,,,,,,,,,,,,,,,,,
,,669e3aceb62ce654ecaf410e,2026-03-17_10h26.59.475,kallum_motion_pilot_GIST_update_2,2026.1.1,MacIntel,59.52380952,669e3aceb62ce654ecaf410e,69b92ab4aef6dee357cd729a,69b92b4fbd40bd8f4ebd3312,0.034,0.034,0,73,73,8,1,onetwo,,,,,,,,,,,,,,,,,,,,,,,,,,,,,,,,,,,,,,,,,,,,,,,,,,,,,,,,,,,,,,,,,,,,,,,,,,,,,,,,,,,,,,,,,,,,,,,,,,,,,,,,,,,,,,,,,,,,,,,,,,,,,,,,,,,,,,,,,
,,669e3aceb62ce654ecaf410e,2026-03-17_10h26.59.475,kallum_motion_pilot_GIST_update_2,2026.1.1,MacIntel,59.52380952,669e3aceb62ce654ecaf410e,69b92ab4aef6dee357cd729a,69b92b4fbd40bd8f4ebd3312,0.034,0.034,0,74,74,15,1,fourthree,,,,,,,,,,,,,,,,,,,,,,,,,,,,,,,,,,,,,,,,,,,,,,,,,,,,,,,,,,,,,,,,,,,,,,,,,,,,,,,,,,,,,,,,,,,,,,,,,,,,,,,,,,,,,,,,,,,,,,,,,,,,,,,,,,,,,,,,,
,,669e3aceb62ce654ecaf410e,2026-03-17_10h26.59.475,kallum_motion_pilot_GIST_update_2,2026.1.1,MacIntel,59.52380952,669e3aceb62ce654ecaf410e,69b92ab4aef6dee357cd729a,69b92b4fbd40bd8f4ebd3312,0.0341,0.0341,0,75,75,4,1,threeone,,,,,,,,,,,,,,,,,,,,,,,,,,,,,,,,,,,,,,,,,,,,,,,,,,,,,,,,,,,,,,,,,,,,,,,,,,,,,,,,,,,,,,,,,,,,,,,,,,,,,,,,,,,,,,,,,,,,,,,,,,,,,,,,,,,,,,,,,
,,669e3aceb62ce654ecaf410e,2026-03-17_10h26.59.475,kallum_motion_pilot_GIST_update_2,2026.1.1,MacIntel,59.52380952,669e3aceb62ce654ecaf410e,69b92ab4aef6dee357cd729a,69b92b4fbd40bd8f4ebd3312,0.0343,0.0343,0,76,76,81,1,fiveseven,,,,,,,,,,,,,,,,,,,,,,,,,,,,,,,,,,,,,,,,,,,,,,,,,,,,,,,,,,,,,,,,,,,,,,,,,,,,,,,,,,,,,,,,,,,,,,,,,,,,,,,,,,,,,,,,,,,,,,,,,,,,,,,,,,,,,,,,,
,,669e3aceb62ce654ecaf410e,2026-03-17_10h26.59.475,kallum_motion_pilot_GIST_update_2,2026.1.1,MacIntel,59.52380952,669e3aceb62ce654ecaf410e,69b92ab4aef6dee357cd729a,69b92b4fbd40bd8f4ebd3312,0.0343,0.0343,0,77,77,135,1,eightseven,,,,,,,,,,,,,,,,,,,,,,,,,,,,,,,,,,,,,,,,,,,,,,,,,,,,,,,,,,,,,,,,,,,,,,,,,,,,,,,,,,,,,,,,,,,,,,,,,,,,,,,,,,,,,,,,,,,,,,,,,,,,,,,,,,,,,,,,,
,,669e3aceb62ce654ecaf410e,2026-03-17_10h26.59.475,kallum_motion_pilot_GIST_update_2,2026.1.1,MacIntel,59.52380952,669e3aceb62ce654ecaf410e,69b92ab4aef6dee357cd729a,69b92b4fbd40bd8f4ebd3312,0.0345,0.0345,0,78,78,90,1,sixfive,,,,,,,,,,,,,,,,,,,,,,,,,,,,,,,,,,,,,,,,,,,,,,,,,,,,,,,,,,,,,,,,,,,,,,,,,,,,,,,,,,,,,,,,,,,,,,,,,,,,,,,,,,,,,,,,,,,,,,,,,,,,,,,,,,,,,,,,,
,,669e3aceb62ce654ecaf410e,2026-03-17_10h26.59.475,kallum_motion_pilot_GIST_update_2,2026.1.1,MacIntel,59.52380952,669e3aceb62ce654ecaf410e,69b92ab4aef6dee357cd729a,69b92b4fbd40bd8f4ebd3312,0.0345,0.0345,0,79,79,62,1,fourtwo,,,,,,,,,,,,,,,,,,,,,,,,,,,,,,,,,,,,,,,,,,,,,,,,,,,,,,,,,,,,,,,,,,,,,,,,,,,,,,,,,,,,,,,,,,,,,,,,,,,,,,,,,,,,,,,,,,,,,,,,,,,,,,,,,,,,,,,,,
,,669e3aceb62ce654ecaf410e,2026-03-17_10h26.59.475,kallum_motion_pilot_GIST_update_2,2026.1.1,MacIntel,59.52380952,669e3aceb62ce654ecaf410e,69b92ab4aef6dee357cd729a,69b92b4fbd40bd8f4ebd3312,0.0347,0.0347,0,80,80,157,1,seveneight,,,,,,,,,,,,,,,,,,,,,,,,,,,,,,,,,,,,,,,,,,,,,,,,,,,,,,,,,,,,,,,,,,,,,,,,,,,,,,,,,,,,,,,,,,,,,,,,,,,,,,,,,,,,,,,,,,,,,,,,,,,,,,,,,,,,,,,,,
,,669e3aceb62ce654ecaf410e,2026-03-17_10h26.59.475,kallum_motion_pilot_GIST_update_2,2026.1.1,MacIntel,59.52380952,669e3aceb62ce654ecaf410e,69b92ab4aef6dee357cd729a,69b92b4fbd40bd8f4ebd3312,0.0347,0.0347,0,81,81,3,1,twofour,,,,,,,,,,,,,,,,,,,,,,,,,,,,,,,,,,,,,,,,,,,,,,,,,,,,,,,,,,,,,,,,,,,,,,,,,,,,,,,,,,,,,,,,,,,,,,,,,,,,,,,,,,,,,,,,,,,,,,,,,,,,,,,,,,,,,,,,,
,,669e3aceb62ce654ecaf410e,2026-03-17_10h26.59.475,kallum_motion_pilot_GIST_update_2,2026.1.1,MacIntel,59.52380952,669e3aceb62ce654ecaf410e,69b92ab4aef6dee357cd729a,69b92b4fbd40bd8f4ebd3312,0.0348,0.0348,0,82,82,47,1,fourthree,,,,,,,,,,,,,,,,,,,,,,,,,,,,,,,,,,,,,,,,,,,,,,,,,,,,,,,,,,,,,,,,,,,,,,,,,,,,,,,,,,,,,,,,,,,,,,,,,,,,,,,,,,,,,,,,,,,,,,,,,,,,,,,,,,,,,,,,,
,,669e3aceb62ce654ecaf410e,2026-03-17_10h26.59.475,kallum_motion_pilot_GIST_update_2,2026.1.1,MacIntel,59.52380952,669e3aceb62ce654ecaf410e,69b92ab4aef6dee357cd729a,69b92b4fbd40bd8f4ebd3312,0.035,0.035,0,83,83,39,1,fourthree,,,,,,,,,,,,,,,,,,,,,,,,,,,,,,,,,,,,,,,,,,,,,,,,,,,,,,,,,,,,,,,,,,,,,,,,,,,,,,,,,,,,,,,,,,,,,,,,,,,,,,,,,,,,,,,,,,,,,,,,,,,,,,,,,,,,,,,,,
,,669e3aceb62ce654ecaf410e,2026-03-17_10h26.59.475,kallum_motion_pilot_GIST_update_2,2026.1.1,MacIntel,59.52380952,669e3aceb62ce654ecaf410e,69b92ab4aef6dee357cd729a,69b92b4fbd40bd8f4ebd3312,0.0351,0.0351,0,84,84,2,1,twoone,,,,,,,,,,,,,,,,,,,,,,,,,,,,,,,,,,,,,,,,,,,,,,,,,,,,,,,,,,,,,,,,,,,,,,,,,,,,,,,,,,,,,,,,,,,,,,,,,,,,,,,,,,,,,,,,,,,,,,,,,,,,,,,,,,,,,,,,,
,,669e3aceb62ce654ecaf410e,2026-03-17_10h26.59.475,kallum_motion_pilot_GIST_update_2,2026.1.1,MacIntel,59.52380952,669e3aceb62ce654ecaf410e,69b92ab4aef6dee357cd729a,69b92b4fbd40bd8f4ebd3312,0.0351,0.0351,0,85,85,83,1,sixeight,,,,,,,,,,,,,,,,,,,,,,,,,,,,,,,,,,,,,,,,,,,,,,,,,,,,,,,,,,,,,,,,,,,,,,,,,,,,,,,,,,,,,,,,,,,,,,,,,,,,,,,,,,,,,,,,,,,,,,,,,,,,,,,,,,,,,,,,,
,,669e3aceb62ce654ecaf410e,2026-03-17_10h26.59.475,kallum_motion_pilot_GIST_update_2,2026.1.1,MacIntel,59.52380952,669e3aceb62ce654ecaf410e,69b92ab4aef6dee357cd729a,69b92b4fbd40bd8f4ebd3312,0.0352,0.0353,0,86,86,66,1,twoone,,,,,,,,,,,,,,,,,,,,,,,,,,,,,,,,,,,,,,,,,,,,,,,,,,,,,,,,,,,,,,,,,,,,,,,,,,,,,,,,,,,,,,,,,,,,,,,,,,,,,,,,,,,,,,,,,,,,,,,,,,,,,,,,,,,,,,,,,
,,669e3aceb62ce654ecaf410e,2026-03-17_10h26.59.475,kallum_motion_pilot_GIST_update_2,2026.1.1,MacIntel,59.52380952,669e3aceb62ce654ecaf410e,69b92ab4aef6dee357cd729a,69b92b4fbd40bd8f4ebd3312,0.0354,0.0354,0,87,87,74,1,twoone,,,,,,,,,,,,,,,,,,,,,,,,,,,,,,,,,,,,,,,,,,,,,,,,,,,,,,,,,,,,,,,,,,,,,,,,,,,,,,,,,,,,,,,,,,,,,,,,,,,,,,,,,,,,,,,,,,,,,,,,,,,,,,,,,,,,,,,,,
,,669e3aceb62ce654ecaf410e,2026-03-17_10h26.59.475,kallum_motion_pilot_GIST_update_2,2026.1.1,MacIntel,59.52380952,669e3aceb62ce654ecaf410e,69b92ab4aef6dee357cd729a,69b92b4fbd40bd8f4ebd3312,0.0355,0.0355,0,88,88,101,1,seveneight,,,,,,,,,,,,,,,,,,,,,,,,,,,,,,,,,,,,,,,,,,,,,,,,,,,,,,,,,,,,,,,,,,,,,,,,,,,,,,,,,,,,,,,,,,,,,,,,,,,,,,,,,,,,,,,,,,,,,,,,,,,,,,,,,,,,,,,,,
,,669e3aceb62ce654ecaf410e,2026-03-17_10h26.59.475,kallum_motion_pilot_GIST_update_2,2026.1.1,MacIntel,59.52380952,669e3aceb62ce654ecaf410e,69b92ab4aef6dee357cd729a,69b92b4fbd40bd8f4ebd3312,0.0356,0.0356,0,89,89,146,1,sixfive,,,,,,,,,,,,,,,,,,,,,,,,,,,,,,,,,,,,,,,,,,,,,,,,,,,,,,,,,,,,,,,,,,,,,,,,,,,,,,,,,,,,,,,,,,,,,,,,,,,,,,,,,,,,,,,,,,,,,,,,,,,,,,,,,,,,,,,,,
,,669e3aceb62ce654ecaf410e,2026-03-17_10h26.59.475,kallum_motion_pilot_GIST_update_2,2026.1.1,MacIntel,59.52380952,669e3aceb62ce654ecaf410e,69b92ab4aef6dee357cd729a,69b92b4fbd40bd8f4ebd3312,0.0357,0.0357,0,90,90,92,1,sevenfive,,,,,,,,,,,,,,,,,,,,,,,,,,,,,,,,,,,,,,,,,,,,,,,,,,,,,,,,,,,,,,,,,,,,,,,,,,,,,,,,,,,,,,,,,,,,,,,,,,,,,,,,,,,,,,,,,,,,,,,,,,,,,,,,,,,,,,,,,
,,669e3aceb62ce654ecaf410e,2026-03-17_10h26.59.475,kallum_motion_pilot_GIST_update_2,2026.1.1,MacIntel,59.52380952,669e3aceb62ce654ecaf410e,69b92ab4aef6dee357cd729a,69b92b4fbd40bd8f4ebd3312,0.0359,0.0359,0,91,91,97,1,fiveseven,,,,,,,,,,,,,,,,,,,,,,,,,,,,,,,,,,,,,,,,,,,,,,,,,,,,,,,,,,,,,,,,,,,,,,,,,,,,,,,,,,,,,,,,,,,,,,,,,,,,,,,,,,,,,,,,,,,,,,,,,,,,,,,,,,,,,,,,,
,,669e3aceb62ce654ecaf410e,2026-03-17_10h26.59.475,kallum_motion_pilot_GIST_update_2,2026.1.1,MacIntel,59.52380952,669e3aceb62ce654ecaf410e,69b92ab4aef6dee357cd729a,69b92b4fbd40bd8f4ebd3312,0.0359,0.0359,0,92,92,30,1,fourtwo,,,,,,,,,,,,,,,,,,,,,,,,,,,,,,,,,,,,,,,,,,,,,,,,,,,,,,,,,,,,,,,,,,,,,,,,,,,,,,,,,,,,,,,,,,,,,,,,,,,,,,,,,,,,,,,,,,,,,,,,,,,,,,,,,,,,,,,,,
,,669e3aceb62ce654ecaf410e,2026-03-17_10h26.59.475,kallum_motion_pilot_GIST_update_2,2026.1.1,MacIntel,59.52380952,669e3aceb62ce654ecaf410e,69b92ab4aef6dee357cd729a,69b92b4fbd40bd8f4ebd3312,0.036,0.036,0,93,93,102,1,eightsix,,,,,,,,,,,,,,,,,,,,,,,,,,,,,,,,,,,,,,,,,,,,,,,,,,,,,,,,,,,,,,,,,,,,,,,,,,,,,,,,,,,,,,,,,,,,,,,,,,,,,,,,,,,,,,,,,,,,,,,,,,,,,,,,,,,,,,,,,
,,669e3aceb62ce654ecaf410e,2026-03-17_10h26.59.475,kallum_motion_pilot_GIST_update_2,2026.1.1,MacIntel,59.52380952,669e3aceb62ce654ecaf410e,69b92ab4aef6dee357cd729a,69b92b4fbd40bd8f4ebd3312,0.0361,0.0361,0,94,94,115,1,sixeight,,,,,,,,,,,,,,,,,,,,,,,,,,,,,,,,,,,,,,,,,,,,,,,,,,,,,,,,,,,,,,,,,,,,,,,,,,,,,,,,,,,,,,,,,,,,,,,,,,,,,,,,,,,,,,,,,,,,,,,,,,,,,,,,,,,,,,,,,
,,669e3aceb62ce654ecaf410e,2026-03-17_10h26.59.475,kallum_motion_pilot_GIST_update_2,2026.1.1,MacIntel,59.52380952,669e3aceb62ce654ecaf410e,69b92ab4aef6dee357cd729a,69b92b4fbd40bd8f4ebd3312,0.0362,0.0362,0,95,95,55,1,fourthree,,,,,,,,,,,,,,,,,,,,,,,,,,,,,,,,,,,,,,,,,,,,,,,,,,,,,,,,,,,,,,,,,,,,,,,,,,,,,,,,,,,,,,,,,,,,,,,,,,,,,,,,,,,,,,,,,,,,,,,,,,,,,,,,,,,,,,,,,
,,669e3aceb62ce654ecaf410e,2026-03-17_10h26.59.475,kallum_motion_pilot_GIST_update_2,2026.1.1,MacIntel,59.52380952,669e3aceb62ce654ecaf410e,69b92ab4aef6dee357cd729a,69b92b4fbd40bd8f4ebd3312,0.0364,0.0364,0,96,96,60,1,threeone,,,,,,,,,,,,,,,,,,,,,,,,,,,,,,,,,,,,,,,,,,,,,,,,,,,,,,,,,,,,,,,,,,,,,,,,,,,,,,,,,,,,,,,,,,,,,,,,,,,,,,,,,,,,,,,,,,,,,,,,,,,,,,,,,,,,,,,,,
,,669e3aceb62ce654ecaf410e,2026-03-17_10h26.59.475,kallum_motion_pilot_GIST_update_2,2026.1.1,MacIntel,59.52380952,669e3aceb62ce654ecaf410e,69b92ab4aef6dee357cd729a,69b92b4fbd40bd8f4ebd3312,0.0365,0.0365,0,97,97,29,1,threefour,,,,,,,,,,,,,,,,,,,,,,,,,,,,,,,,,,,,,,,,,,,,,,,,,,,,,,,,,,,,,,,,,,,,,,,,,,,,,,,,,,,,,,,,,,,,,,,,,,,,,,,,,,,,,,,,,,,,,,,,,,,,,,,,,,,,,,,,,
,,669e3aceb62ce654ecaf410e,2026-03-17_10h26.59.475,kallum_motion_pilot_GIST_update_2,2026.1.1,MacIntel,59.52380952,669e3aceb62ce654ecaf410e,69b92ab4aef6dee357cd729a,69b92b4fbd40bd8f4ebd3312,0.0366,0.0366,0,98,98,26,1,twoone,,,,,,,,,,,,,,,,,,,,,,,,,,,,,,,,,,,,,,,,,,,,,,,,,,,,,,,,,,,,,,,,,,,,,,,,,,,,,,,,,,,,,,,,,,,,,,,,,,,,,,,,,,,,,,,,,,,,,,,,,,,,,,,,,,,,,,,,,
,,669e3aceb62ce654ecaf410e,2026-03-17_10h26.59.475,kallum_motion_pilot_GIST_update_2,2026.1.1,MacIntel,59.52380952,669e3aceb62ce654ecaf410e,69b92ab4aef6dee357cd729a,69b92b4fbd40bd8f4ebd3312,0.0367,0.0367,0,99,99,131,1,sixeight,,,,,,,,,,,,,,,,,,,,,,,,,,,,,,,,,,,,,,,,,,,,,,,,,,,,,,,,,,,,,,,,,,,,,,,,,,,,,,,,,,,,,,,,,,,,,,,,,,,,,,,,,,,,,,,,,,,,,,,,,,,,,,,,,,,,,,,,,
,,669e3aceb62ce654ecaf410e,2026-03-17_10h26.59.475,kallum_motion_pilot_GIST_update_2,2026.1.1,MacIntel,59.52380952,669e3aceb62ce654ecaf410e,69b92ab4aef6dee357cd729a,69b92b4fbd40bd8f4ebd3312,0.0368,0.0368,0,100,100,109,1,seveneight,,,,,,,,,,,,,,,,,,,,,,,,,,,,,,,,,,,,,,,,,,,,,,,,,,,,,,,,,,,,,,,,,,,,,,,,,,,,,,,,,,,,,,,,,,,,,,,,,,,,,,,,,,,,,,,,,,,,,,,,,,,,,,,,,,,,,,,,,
,,669e3aceb62ce654ecaf410e,2026-03-17_10h26.59.475,kallum_motion_pilot_GIST_update_2,2026.1.1,MacIntel,59.52380952,669e3aceb62ce654ecaf410e,69b92ab4aef6dee357cd729a,69b92b4fbd40bd8f4ebd3312,0.037,0.037,0,101,101,105,1,fiveseven,,,,,,,,,,,,,,,,,,,,,,,,,,,,,,,,,,,,,,,,,,,,,,,,,,,,,,,,,,,,,,,,,,,,,,,,,,,,,,,,,,,,,,,,,,,,,,,,,,,,,,,,,,,,,,,,,,,,,,,,,,,,,,,,,,,,,,,,,
,,669e3aceb62ce654ecaf410e,2026-03-17_10h26.59.475,kallum_motion_pilot_GIST_update_2,2026.1.1,MacIntel,59.52380952,669e3aceb62ce654ecaf410e,69b92ab4aef6dee357cd729a,69b92b4fbd40bd8f4ebd3312,0.0371,0.0371,0,102,102,43,1,twofour,,,,,,,,,,,,,,,,,,,,,,,,,,,,,,,,,,,,,,,,,,,,,,,,,,,,,,,,,,,,,,,,,,,,,,,,,,,,,,,,,,,,,,,,,,,,,,,,,,,,,,,,,,,,,,,,,,,,,,,,,,,,,,,,,,,,,,,,,
,,669e3aceb62ce654ecaf410e,2026-03-17_10h26.59.475,kallum_motion_pilot_GIST_update_2,2026.1.1,MacIntel,59.52380952,669e3aceb62ce654ecaf410e,69b92ab4aef6dee357cd729a,69b92b4fbd40bd8f4ebd3312,0.0371,0.0371,0,103,103,151,1,eightseven,,,,,,,,,,,,,,,,,,,,,,,,,,,,,,,,,,,,,,,,,,,,,,,,,,,,,,,,,,,,,,,,,,,,,,,,,,,,,,,,,,,,,,,,,,,,,,,,,,,,,,,,,,,,,,,,,,,,,,,,,,,,,,,,,,,,,,,,,
,,669e3aceb62ce654ecaf410e,2026-03-17_10h26.59.475,kallum_motion_pilot_GIST_update_2,2026.1.1,MacIntel,59.52380952,669e3aceb62ce654ecaf410e,69b92ab4aef6dee357cd729a,69b92b4fbd40bd8f4ebd3312,0.0372,0.0372,0,104,104,54,1,fourtwo,,,,,,,,,,,,,,,,,,,,,,,,,,,,,,,,,,,,,,,,,,,,,,,,,,,,,,,,,,,,,,,,,,,,,,,,,,,,,,,,,,,,,,,,,,,,,,,,,,,,,,,,,,,,,,,,,,,,,,,,,,,,,,,,,,,,,,,,,
,,669e3aceb62ce654ecaf410e,2026-03-17_10h26.59.475,kallum_motion_pilot_GIST_update_2,2026.1.1,MacIntel,59.52380952,669e3aceb62ce654ecaf410e,69b92ab4aef6dee357cd729a,69b92b4fbd40bd8f4ebd3312,0.0374,0.0374,0,105,105,51,1,twofour,,,,,,,,,,,,,,,,,,,,,,,,,,,,,,,,,,,,,,,,,,,,,,,,,,,,,,,,,,,,,,,,,,,,,,,,,,,,,,,,,,,,,,,,,,,,,,,,,,,,,,,,,,,,,,,,,,,,,,,,,,,,,,,,,,,,,,,,,
,,669e3aceb62ce654ecaf410e,2026-03-17_10h26.59.475,kallum_motion_pilot_GIST_update_2,2026.1.1,MacIntel,59.52380952,669e3aceb62ce654ecaf410e,69b92ab4aef6dee357cd729a,69b92b4fbd40bd8f4ebd3312,0.0375,0.0375,0,106,106,119,1,eightseven,,,,,,,,,,,,,,,,,,,,,,,,,,,,,,,,,,,,,,,,,,,,,,,,,,,,,,,,,,,,,,,,,,,,,,,,,,,,,,,,,,,,,,,,,,,,,,,,,,,,,,,,,,,,,,,,,,,,,,,,,,,,,,,,,,,,,,,,,
,,669e3aceb62ce654ecaf410e,2026-03-17_10h26.59.475,kallum_motion_pilot_GIST_update_2,2026.1.1,MacIntel,59.52380952,669e3aceb62ce654ecaf410e,69b92ab4aef6dee357cd729a,69b92b4fbd40bd8f4ebd3312,0.0376,0.0376,0,107,107,71,1,fourthree,,,,,,,,,,,,,,,,,,,,,,,,,,,,,,,,,,,,,,,,,,,,,,,,,,,,,,,,,,,,,,,,,,,,,,,,,,,,,,,,,,,,,,,,,,,,,,,,,,,,,,,,,,,,,,,,,,,,,,,,,,,,,,,,,,,,,,,,,
,,669e3aceb62ce654ecaf410e,2026-03-17_10h26.59.475,kallum_motion_pilot_GIST_update_2,2026.1.1,MacIntel,59.52380952,669e3aceb62ce654ecaf410e,69b92ab4aef6dee357cd729a,69b92b4fbd40bd8f4ebd3312,0.0377,0.0377,0,108,108,121,1,fiveseven,,,,,,,,,,,,,,,,,,,,,,,,,,,,,,,,,,,,,,,,,,,,,,,,,,,,,,,,,,,,,,,,,,,,,,,,,,,,,,,,,,,,,,,,,,,,,,,,,,,,,,,,,,,,,,,,,,,,,,,,,,,,,,,,,,,,,,,,,
,,669e3aceb62ce654ecaf410e,2026-03-17_10h26.59.475,kallum_motion_pilot_GIST_update_2,2026.1.1,MacIntel,59.52380952,669e3aceb62ce654ecaf410e,69b92ab4aef6dee357cd729a,69b92b4fbd40bd8f4ebd3312,0.0378,0.0378,0,109,109,94,1,eightsix,,,,,,,,,,,,,,,,,,,,,,,,,,,,,,,,,,,,,,,,,,,,,,,,,,,,,,,,,,,,,,,,,,,,,,,,,,,,,,,,,,,,,,,,,,,,,,,,,,,,,,,,,,,,,,,,,,,,,,,,,,,,,,,,,,,,,,,,,
,,669e3aceb62ce654ecaf410e,2026-03-17_10h26.59.475,kallum_motion_pilot_GIST_update_2,2026.1.1,MacIntel,59.52380952,669e3aceb62ce654ecaf410e,69b92ab4aef6dee357cd729a,69b92b4fbd40bd8f4ebd3312,0.0379,0.0379,0,110,110,73,1,onethree,,,,,,,,,,,,,,,,,,,,,,,,,,,,,,,,,,,,,,,,,,,,,,,,,,,,,,,,,,,,,,,,,,,,,,,,,,,,,,,,,,,,,,,,,,,,,,,,,,,,,,,,,,,,,,,,,,,,,,,,,,,,,,,,,,,,,,,,,
,,669e3aceb62ce654ecaf410e,2026-03-17_10h26.59.475,kallum_motion_pilot_GIST_update_2,2026.1.1,MacIntel,59.52380952,669e3aceb62ce654ecaf410e,69b92ab4aef6dee357cd729a,69b92b4fbd40bd8f4ebd3312,0.038,0.038,0,111,111,76,1,threeone,,,,,,,,,,,,,,,,,,,,,,,,,,,,,,,,,,,,,,,,,,,,,,,,,,,,,,,,,,,,,,,,,,,,,,,,,,,,,,,,,,,,,,,,,,,,,,,,,,,,,,,,,,,,,,,,,,,,,,,,,,,,,,,,,,,,,,,,,
,,669e3aceb62ce654ecaf410e,2026-03-17_10h26.59.475,kallum_motion_pilot_GIST_update_2,2026.1.1,MacIntel,59.52380952,669e3aceb62ce654ecaf410e,69b92ab4aef6dee357cd729a,69b92b4fbd40bd8f4ebd3312,0.0382,0.0382,0,112,112,87,1,eightseven,,,,,,,,,,,,,,,,,,,,,,,,,,,,,,,,,,,,,,,,,,,,,,,,,,,,,,,,,,,,,,,,,,,,,,,,,,,,,,,,,,,,,,,,,,,,,,,,,,,,,,,,,,,,,,,,,,,,,,,,,,,,,,,,,,,,,,,,,
,,669e3aceb62ce654ecaf410e,2026-03-17_10h26.59.475,kallum_motion_pilot_GIST_update_2,2026.1.1,MacIntel,59.52380952,669e3aceb62ce654ecaf410e,69b92ab4aef6dee357cd729a,69b92b4fbd40bd8f4ebd3312,0.0384,0.0384,0,113,113,150,1,eightsix,,,,,,,,,,,,,,,,,,,,,,,,,,,,,,,,,,,,,,,,,,,,,,,,,,,,,,,,,,,,,,,,,,,,,,,,,,,,,,,,,,,,,,,,,,,,,,,,,,,,,,,,,,,,,,,,,,,,,,,,,,,,,,,,,,,,,,,,,
,,669e3aceb62ce654ecaf410e,2026-03-17_10h26.59.475,kallum_motion_pilot_GIST_update_2,2026.1.1,MacIntel,59.52380952,669e3aceb62ce654ecaf410e,69b92ab4aef6dee357cd729a,69b92b4fbd40bd8f4ebd3312,0.0385,0.0385,0,114,114,69,1,threefour,,,,,,,,,,,,,,,,,,,,,,,,,,,,,,,,,,,,,,,,,,,,,,,,,,,,,,,,,,,,,,,,,,,,,,,,,,,,,,,,,,,,,,,,,,,,,,,,,,,,,,,,,,,,,,,,,,,,,,,,,,,,,,,,,,,,,,,,,
,,669e3aceb62ce654ecaf410e,2026-03-17_10h26.59.475,kallum_motion_pilot_GIST_update_2,2026.1.1,MacIntel,59.52380952,669e3aceb62ce654ecaf410e,69b92ab4aef6dee357cd729a,69b92b4fbd40bd8f4ebd3312,0.0387,0.0387,0,115,115,16,1,onetwo,,,,,,,,,,,,,,,,,,,,,,,,,,,,,,,,,,,,,,,,,,,,,,,,,,,,,,,,,,,,,,,,,,,,,,,,,,,,,,,,,,,,,,,,,,,,,,,,,,,,,,,,,,,,,,,,,,,,,,,,,,,,,,,,,,,,,,,,,
,,669e3aceb62ce654ecaf410e,2026-03-17_10h26.59.475,kallum_motion_pilot_GIST_update_2,2026.1.1,MacIntel,59.52380952,669e3aceb62ce654ecaf410e,69b92ab4aef6dee357cd729a,69b92b4fbd40bd8f4ebd3312,0.0388,0.0388,0,116,116,34,1,twoone,,,,,,,,,,,,,,,,,,,,,,,,,,,,,,,,,,,,,,,,,,,,,,,,,,,,,,,,,,,,,,,,,,,,,,,,,,,,,,,,,,,,,,,,,,,,,,,,,,,,,,,,,,,,,,,,,,,,,,,,,,,,,,,,,,,,,,,,,
,,669e3aceb62ce654ecaf410e,2026-03-17_10h26.59.475,kallum_motion_pilot_GIST_update_2,2026.1.1,MacIntel,59.52380952,669e3aceb62ce654ecaf410e,69b92ab4aef6dee357cd729a,69b92b4fbd40bd8f4ebd3312,0.0389,0.0389,0,117,117,12,1,threeone,,,,,,,,,,,,,,,,,,,,,,,,,,,,,,,,,,,,,,,,,,,,,,,,,,,,,,,,,,,,,,,,,,,,,,,,,,,,,,,,,,,,,,,,,,,,,,,,,,,,,,,,,,,,,,,,,,,,,,,,,,,,,,,,,,,,,,,,,
,,669e3aceb62ce654ecaf410e,2026-03-17_10h26.59.475,kallum_motion_pilot_GIST_update_2,2026.1.1,MacIntel,59.52380952,669e3aceb62ce654ecaf410e,69b92ab4aef6dee357cd729a,69b92b4fbd40bd8f4ebd3312,0.039,0.039,0,118,118,130,1,sixfive,,,,,,,,,,,,,,,,,,,,,,,,,,,,,,,,,,,,,,,,,,,,,,,,,,,,,,,,,,,,,,,,,,,,,,,,,,,,,,,,,,,,,,,,,,,,,,,,,,,,,,,,,,,,,,,,,,,,,,,,,,,,,,,,,,,,,,,,,
,,669e3aceb62ce654ecaf410e,2026-03-17_10h26.59.475,kallum_motion_pilot_GIST_update_2,2026.1.1,MacIntel,59.52380952,669e3aceb62ce654ecaf410e,69b92ab4aef6dee357cd729a,69b92b4fbd40bd8f4ebd3312,0.0392,0.0392,0,119,119,127,1,eightseven,,,,,,,,,,,,,,,,,,,,,,,,,,,,,,,,,,,,,,,,,,,,,,,,,,,,,,,,,,,,,,,,,,,,,,,,,,,,,,,,,,,,,,,,,,,,,,,,,,,,,,,,,,,,,,,,,,,,,,,,,,,,,,,,,,,,,,,,,
,,669e3aceb62ce654ecaf410e,2026-03-17_10h26.59.475,kallum_motion_pilot_GIST_update_2,2026.1.1,MacIntel,59.52380952,669e3aceb62ce654ecaf410e,69b92ab4aef6dee357cd729a,69b92b4fbd40bd8f4ebd3312,0.0392,0.0392,0,120,120,41,1,onethree,,,,,,,,,,,,,,,,,,,,,,,,,,,,,,,,,,,,,,,,,,,,,,,,,,,,,,,,,,,,,,,,,,,,,,,,,,,,,,,,,,,,,,,,,,,,,,,,,,,,,,,,,,,,,,,,,,,,,,,,,,,,,,,,,,,,,,,,,
,,669e3aceb62ce654ecaf410e,2026-03-17_10h26.59.475,kallum_motion_pilot_GIST_update_2,2026.1.1,MacIntel,59.52380952,669e3aceb62ce654ecaf410e,69b92ab4aef6dee357cd729a,69b92b4fbd40bd8f4ebd3312,0.0394,0.0394,0,121,121,113,1,fiveseven,,,,,,,,,,,,,,,,,,,,,,,,,,,,,,,,,,,,,,,,,,,,,,,,,,,,,,,,,,,,,,,,,,,,,,,,,,,,,,,,,,,,,,,,,,,,,,,,,,,,,,,,,,,,,,,,,,,,,,,,,,,,,,,,,,,,,,,,,
,,669e3aceb62ce654ecaf410e,2026-03-17_10h26.59.475,kallum_motion_pilot_GIST_update_2,2026.1.1,MacIntel,59.52380952,669e3aceb62ce654ecaf410e,69b92ab4aef6dee357cd729a,69b92b4fbd40bd8f4ebd3312,0.0395,0.0395,0,122,122,95,1,eightseven,,,,,,,,,,,,,,,,,,,,,,,,,,,,,,,,,,,,,,,,,,,,,,,,,,,,,,,,,,,,,,,,,,,,,,,,,,,,,,,,,,,,,,,,,,,,,,,,,,,,,,,,,,,,,,,,,,,,,,,,,,,,,,,,,,,,,,,,,
,,669e3aceb62ce654ecaf410e,2026-03-17_10h26.59.475,kallum_motion_pilot_GIST_update_2,2026.1.1,MacIntel,59.52380952,669e3aceb62ce654ecaf410e,69b92ab4aef6dee357cd729a,69b92b4fbd40bd8f4ebd3312,0.0397,0.0397,0,123,123,0,1,onetwo,,,,,,,,,,,,,,,,,,,,,,,,,,,,,,,,,,,,,,,,,,,,,,,,,,,,,,,,,,,,,,,,,,,,,,,,,,,,,,,,,,,,,,,,,,,,,,,,,,,,,,,,,,,,,,,,,,,,,,,,,,,,,,,,,,,,,,,,,
,,669e3aceb62ce654ecaf410e,2026-03-17_10h26.59.475,kallum_motion_pilot_GIST_update_2,2026.1.1,MacIntel,59.52380952,669e3aceb62ce654ecaf410e,69b92ab4aef6dee357cd729a,69b92b4fbd40bd8f4ebd3312,0.0398,0.0398,0,124,124,63,1,fourthree,,,,,,,,,,,,,,,,,,,,,,,,,,,,,,,,,,,,,,,,,,,,,,,,,,,,,,,,,,,,,,,,,,,,,,,,,,,,,,,,,,,,,,,,,,,,,,,,,,,,,,,,,,,,,,,,,,,,,,,,,,,,,,,,,,,,,,,,,
,,669e3aceb62ce654ecaf410e,2026-03-17_10h26.59.475,kallum_motion_pilot_GIST_update_2,2026.1.1,MacIntel,59.52380952,669e3aceb62ce654ecaf410e,69b92ab4aef6dee357cd729a,69b92b4fbd40bd8f4ebd3312,0.0399,0.0399,0,125,125,126,1,eightsix,,,,,,,,,,,,,,,,,,,,,,,,,,,,,,,,,,,,,,,,,,,,,,,,,,,,,,,,,,,,,,,,,,,,,,,,,,,,,,,,,,,,,,,,,,,,,,,,,,,,,,,,,,,,,,,,,,,,,,,,,,,,,,,,,,,,,,,,,
,,669e3aceb62ce654ecaf410e,2026-03-17_10h26.59.475,kallum_motion_pilot_GIST_update_2,2026.1.1,MacIntel,59.52380952,669e3aceb62ce654ecaf410e,69b92ab4aef6dee357cd729a,69b92b4fbd40bd8f4ebd3312,0.0401,0.0401,0,126,126,59,1,twofour,,,,,,,,,,,,,,,,,,,,,,,,,,,,,,,,,,,,,,,,,,,,,,,,,,,,,,,,,,,,,,,,,,,,,,,,,,,,,,,,,,,,,,,,,,,,,,,,,,,,,,,,,,,,,,,,,,,,,,,,,,,,,,,,,,,,,,,,,
,,669e3aceb62ce654ecaf410e,2026-03-17_10h26.59.475,kallum_motion_pilot_GIST_update_2,2026.1.1,MacIntel,59.52380952,669e3aceb62ce654ecaf410e,69b92ab4aef6dee357cd729a,69b92b4fbd40bd8f4ebd3312,0.0402,0.0402,0,127,127,103,1,eightseven,,,,,,,,,,,,,,,,,,,,,,,,,,,,,,,,,,,,,,,,,,,,,,,,,,,,,,,,,,,,,,,,,,,,,,,,,,,,,,,,,,,,,,,,,,,,,,,,,,,,,,,,,,,,,,,,,,,,,,,,,,,,,,,,,,,,,,,,,
,,669e3aceb62ce654ecaf410e,2026-03-17_10h26.59.475,kallum_motion_pilot_GIST_update_2,2026.1.1,MacIntel,59.52380952,669e3aceb62ce654ecaf410e,69b92ab4aef6dee357cd729a,69b92b4fbd40bd8f4ebd3312,0.0403,0.0403,0,128,128,10,1,twoone,,,,,,,,,,,,,,,,,,,,,,,,,,,,,,,,,,,,,,,,,,,,,,,,,,,,,,,,,,,,,,,,,,,,,,,,,,,,,,,,,,,,,,,,,,,,,,,,,,,,,,,,,,,,,,,,,,,,,,,,,,,,,,,,,,,,,,,,,
,,669e3aceb62ce654ecaf410e,2026-03-17_10h26.59.475,kallum_motion_pilot_GIST_update_2,2026.1.1,MacIntel,59.52380952,669e3aceb62ce654ecaf410e,69b92ab4aef6dee357cd729a,69b92b4fbd40bd8f4ebd3312,0.0404,0.0404,0,129,129,31,1,fourthree,,,,,,,,,,,,,,,,,,,,,,,,,,,,,,,,,,,,,,,,,,,,,,,,,,,,,,,,,,,,,,,,,,,,,,,,,,,,,,,,,,,,,,,,,,,,,,,,,,,,,,,,,,,,,,,,,,,,,,,,,,,,,,,,,,,,,,,,,
,,669e3aceb62ce654ecaf410e,2026-03-17_10h26.59.475,kallum_motion_pilot_GIST_update_2,2026.1.1,MacIntel,59.52380952,669e3aceb62ce654ecaf410e,69b92ab4aef6dee357cd729a,69b92b4fbd40bd8f4ebd3312,0.0405,0.0405,0,130,130,17,1,onethree,,,,,,,,,,,,,,,,,,,,,,,,,,,,,,,,,,,,,,,,,,,,,,,,,,,,,,,,,,,,,,,,,,,,,,,,,,,,,,,,,,,,,,,,,,,,,,,,,,,,,,,,,,,,,,,,,,,,,,,,,,,,,,,,,,,,,,,,,
,,669e3aceb62ce654ecaf410e,2026-03-17_10h26.59.475,kallum_motion_pilot_GIST_update_2,2026.1.1,MacIntel,59.52380952,669e3aceb62ce654ecaf410e,69b92ab4aef6dee357cd729a,69b92b4fbd40bd8f4ebd3312,0.0406,0.0406,0,131,131,154,1,sixfive,,,,,,,,,,,,,,,,,,,,,,,,,,,,,,,,,,,,,,,,,,,,,,,,,,,,,,,,,,,,,,,,,,,,,,,,,,,,,,,,,,,,,,,,,,,,,,,,,,,,,,,,,,,,,,,,,,,,,,,,,,,,,,,,,,,,,,,,,
,,669e3aceb62ce654ecaf410e,2026-03-17_10h26.59.475,kallum_motion_pilot_GIST_update_2,2026.1.1,MacIntel,59.52380952,669e3aceb62ce654ecaf410e,69b92ab4aef6dee357cd729a,69b92b4fbd40bd8f4ebd3312,0.0408,0.0408,0,132,132,111,1,eightseven,,,,,,,,,,,,,,,,,,,,,,,,,,,,,,,,,,,,,,,,,,,,,,,,,,,,,,,,,,,,,,,,,,,,,,,,,,,,,,,,,,,,,,,,,,,,,,,,,,,,,,,,,,,,,,,,,,,,,,,,,,,,,,,,,,,,,,,,,
,,669e3aceb62ce654ecaf410e,2026-03-17_10h26.59.475,kallum_motion_pilot_GIST_update_2,2026.1.1,MacIntel,59.52380952,669e3aceb62ce654ecaf410e,69b92ab4aef6dee357cd729a,69b92b4fbd40bd8f4ebd3312,0.0408,0.0408,0,133,133,133,1,seveneight,,,,,,,,,,,,,,,,,,,,,,,,,,,,,,,,,,,,,,,,,,,,,,,,,,,,,,,,,,,,,,,,,,,,,,,,,,,,,,,,,,,,,,,,,,,,,,,,,,,,,,,,,,,,,,,,,,,,,,,,,,,,,,,,,,,,,,,,,
,,669e3aceb62ce654ecaf410e,2026-03-17_10h26.59.475,kallum_motion_pilot_GIST_update_2,2026.1.1,MacIntel,59.52380952,669e3aceb62ce654ecaf410e,69b92ab4aef6dee357cd729a,69b92b4fbd40bd8f4ebd3312,0.0409,0.0409,0,134,134,139,1,sixeight,,,,,,,,,,,,,,,,,,,,,,,,,,,,,,,,,,,,,,,,,,,,,,,,,,,,,,,,,,,,,,,,,,,,,,,,,,,,,,,,,,,,,,,,,,,,,,,,,,,,,,,,,,,,,,,,,,,,,,,,,,,,,,,,,,,,,,,,,
,,669e3aceb62ce654ecaf410e,2026-03-17_10h26.59.475,kallum_motion_pilot_GIST_update_2,2026.1.1,MacIntel,59.52380952,669e3aceb62ce654ecaf410e,69b92ab4aef6dee357cd729a,69b92b4fbd40bd8f4ebd3312,0.041,0.041,0,135,135,153,1,fiveseven,,,,,,,,,,,,,,,,,,,,,,,,,,,,,,,,,,,,,,,,,,,,,,,,,,,,,,,,,,,,,,,,,,,,,,,,,,,,,,,,,,,,,,,,,,,,,,,,,,,,,,,,,,,,,,,,,,,,,,,,,,,,,,,,,,,,,,,,,
,,669e3aceb62ce654ecaf410e,2026-03-17_10h26.59.475,kallum_motion_pilot_GIST_update_2,2026.1.1,MacIntel,59.52380952,669e3aceb62ce654ecaf410e,69b92ab4aef6dee357cd729a,69b92b4fbd40bd8f4ebd3312,0.0411,0.0411,0,136,136,1,1,onethree,,,,,,,,,,,,,,,,,,,,,,,,,,,,,,,,,,,,,,,,,,,,,,,,,,,,,,,,,,,,,,,,,,,,,,,,,,,,,,,,,,,,,,,,,,,,,,,,,,,,,,,,,,,,,,,,,,,,,,,,,,,,,,,,,,,,,,,,,
,,669e3aceb62ce654ecaf410e,2026-03-17_10h26.59.475,kallum_motion_pilot_GIST_update_2,2026.1.1,MacIntel,59.52380952,669e3aceb62ce654ecaf410e,69b92ab4aef6dee357cd729a,69b92b4fbd40bd8f4ebd3312,0.0413,0.0413,0,137,137,145,1,fiveseven,,,,,,,,,,,,,,,,,,,,,,,,,,,,,,,,,,,,,,,,,,,,,,,,,,,,,,,,,,,,,,,,,,,,,,,,,,,,,,,,,,,,,,,,,,,,,,,,,,,,,,,,,,,,,,,,,,,,,,,,,,,,,,,,,,,,,,,,,
,,669e3aceb62ce654ecaf410e,2026-03-17_10h26.59.475,kallum_motion_pilot_GIST_update_2,2026.1.1,MacIntel,59.52380952,669e3aceb62ce654ecaf410e,69b92ab4aef6dee357cd729a,69b92b4fbd40bd8f4ebd3312,0.0414,0.0414,0,138,138,106,1,sixfive,,,,,,,,,,,,,,,,,,,,,,,,,,,,,,,,,,,,,,,,,,,,,,,,,,,,,,,,,,,,,,,,,,,,,,,,,,,,,,,,,,,,,,,,,,,,,,,,,,,,,,,,,,,,,,,,,,,,,,,,,,,,,,,,,,,,,,,,,
,,669e3aceb62ce654ecaf410e,2026-03-17_10h26.59.475,kallum_motion_pilot_GIST_update_2,2026.1.1,MacIntel,59.52380952,669e3aceb62ce654ecaf410e,69b92ab4aef6dee357cd729a,69b92b4fbd40bd8f4ebd3312,0.0415,0.0415,0,139,139,143,1,eightseven,,,,,,,,,,,,,,,,,,,,,,,,,,,,,,,,,,,,,,,,,,,,,,,,,,,,,,,,,,,,,,,,,,,,,,,,,,,,,,,,,,,,,,,,,,,,,,,,,,,,,,,,,,,,,,,,,,,,,,,,,,,,,,,,,,,,,,,,,
,,669e3aceb62ce654ecaf410e,2026-03-17_10h26.59.475,kallum_motion_pilot_GIST_update_2,2026.1.1,MacIntel,59.52380952,669e3aceb62ce654ecaf410e,69b92ab4aef6dee357cd729a,69b92b4fbd40bd8f4ebd3312,0.0416,0.0416,0,140,140,7,1,fourthree,,,,,,,,,,,,,,,,,,,,,,,,,,,,,,,,,,,,,,,,,,,,,,,,,,,,,,,,,,,,,,,,,,,,,,,,,,,,,,,,,,,,,,,,,,,,,,,,,,,,,,,,,,,,,,,,,,,,,,,,,,,,,,,,,,,,,,,,,
,,669e3aceb62ce654ecaf410e,2026-03-17_10h26.59.475,kallum_motion_pilot_GIST_update_2,2026.1.1,MacIntel,59.52380952,669e3aceb62ce654ecaf410e,69b92ab4aef6dee357cd729a,69b92b4fbd40bd8f4ebd3312,0.0418,0.0418,0,141,141,58,1,twoone,,,,,,,,,,,,,,,,,,,,,,,,,,,,,,,,,,,,,,,,,,,,,,,,,,,,,,,,,,,,,,,,,,,,,,,,,,,,,,,,,,,,,,,,,,,,,,,,,,,,,,,,,,,,,,,,,,,,,,,,,,,,,,,,,,,,,,,,,
,,669e3aceb62ce654ecaf410e,2026-03-17_10h26.59.475,kallum_motion_pilot_GIST_update_2,2026.1.1,MacIntel,59.52380952,669e3aceb62ce654ecaf410e,69b92ab4aef6dee357cd729a,69b92b4fbd40bd8f4ebd3312,0.0419,0.0419,0,142,142,23,1,fourthree,,,,,,,,,,,,,,,,,,,,,,,,,,,,,,,,,,,,,,,,,,,,,,,,,,,,,,,,,,,,,,,,,,,,,,,,,,,,,,,,,,,,,,,,,,,,,,,,,,,,,,,,,,,,,,,,,,,,,,,,,,,,,,,,,,,,,,,,,
,,669e3aceb62ce654ecaf410e,2026-03-17_10h26.59.475,kallum_motion_pilot_GIST_update_2,2026.1.1,MacIntel,59.52380952,669e3aceb62ce654ecaf410e,69b92ab4aef6dee357cd729a,69b92b4fbd40bd8f4ebd3312,0.042,0.042,0,143,143,61,1,threefour,,,,,,,,,,,,,,,,,,,,,,,,,,,,,,,,,,,,,,,,,,,,,,,,,,,,,,,,,,,,,,,,,,,,,,,,,,,,,,,,,,,,,,,,,,,,,,,,,,,,,,,,,,,,,,,,,,,,,,,,,,,,,,,,,,,,,,,,,
,,669e3aceb62ce654ecaf410e,2026-03-17_10h26.59.475,kallum_motion_pilot_GIST_update_2,2026.1.1,MacIntel,59.52380952,669e3aceb62ce654ecaf410e,69b92ab4aef6dee357cd729a,69b92b4fbd40bd8f4ebd3312,0.0421,0.0421,0,144,144,21,1,threefour,,,,,,,,,,,,,,,,,,,,,,,,,,,,,,,,,,,,,,,,,,,,,,,,,,,,,,,,,,,,,,,,,,,,,,,,,,,,,,,,,,,,,,,,,,,,,,,,,,,,,,,,,,,,,,,,,,,,,,,,,,,,,,,,,,,,,,,,,
,,669e3aceb62ce654ecaf410e,2026-03-17_10h26.59.475,kallum_motion_pilot_GIST_update_2,2026.1.1,MacIntel,59.52380952,669e3aceb62ce654ecaf410e,69b92ab4aef6dee357cd729a,69b92b4fbd40bd8f4ebd3312,0.0422,0.0422,0,145,145,40,1,onetwo,,,,,,,,,,,,,,,,,,,,,,,,,,,,,,,,,,,,,,,,,,,,,,,,,,,,,,,,,,,,,,,,,,,,,,,,,,,,,,,,,,,,,,,,,,,,,,,,,,,,,,,,,,,,,,,,,,,,,,,,,,,,,,,,,,,,,,,,,
,,669e3aceb62ce654ecaf410e,2026-03-17_10h26.59.475,kallum_motion_pilot_GIST_update_2,2026.1.1,MacIntel,59.52380952,669e3aceb62ce654ecaf410e,69b92ab4aef6dee357cd729a,69b92b4fbd40bd8f4ebd3312,0.0423,0.0423,0,146,146,137,1,fiveseven,,,,,,,,,,,,,,,,,,,,,,,,,,,,,,,,,,,,,,,,,,,,,,,,,,,,,,,,,,,,,,,,,,,,,,,,,,,,,,,,,,,,,,,,,,,,,,,,,,,,,,,,,,,,,,,,,,,,,,,,,,,,,,,,,,,,,,,,,
,,669e3aceb62ce654ecaf410e,2026-03-17_10h26.59.475,kallum_motion_pilot_GIST_update_2,2026.1.1,MacIntel,59.52380952,669e3aceb62ce654ecaf410e,69b92ab4aef6dee357cd729a,69b92b4fbd40bd8f4ebd3312,0.0425,0.0425,0,147,147,149,1,seveneight,,,,,,,,,,,,,,,,,,,,,,,,,,,,,,,,,,,,,,,,,,,,,,,,,,,,,,,,,,,,,,,,,,,,,,,,,,,,,,,,,,,,,,,,,,,,,,,,,,,,,,,,,,,,,,,,,,,,,,,,,,,,,,,,,,,,,,,,,
,,669e3aceb62ce654ecaf410e,2026-03-17_10h26.59.475,kallum_motion_pilot_GIST_update_2,2026.1.1,MacIntel,59.52380952,669e3aceb62ce654ecaf410e,69b92ab4aef6dee357cd729a,69b92b4fbd40bd8f4ebd3312,0.0426,0.0426,0,148,148,110,1,eightsix,,,,,,,,,,,,,,,,,,,,,,,,,,,,,,,,,,,,,,,,,,,,,,,,,,,,,,,,,,,,,,,,,,,,,,,,,,,,,,,,,,,,,,,,,,,,,,,,,,,,,,,,,,,,,,,,,,,,,,,,,,,,,,,,,,,,,,,,,
,,669e3aceb62ce654ecaf410e,2026-03-17_10h26.59.475,kallum_motion_pilot_GIST_update_2,2026.1.1,MacIntel,59.52380952,669e3aceb62ce654ecaf410e,69b92ab4aef6dee357cd729a,69b92b4fbd40bd8f4ebd3312,0.0428,0.0428,0,149,149,91,1,sixeight,,,,,,,,,,,,,,,,,,,,,,,,,,,,,,,,,,,,,,,,,,,,,,,,,,,,,,,,,,,,,,,,,,,,,,,,,,,,,,,,,,,,,,,,,,,,,,,,,,,,,,,,,,,,,,,,,,,,,,,,,,,,,,,,,,,,,,,,,
,,669e3aceb62ce654ecaf410e,2026-03-17_10h26.59.475,kallum_motion_pilot_GIST_update_2,2026.1.1,MacIntel,59.52380952,669e3aceb62ce654ecaf410e,69b92ab4aef6dee357cd729a,69b92b4fbd40bd8f4ebd3312,0.0428,0.0428,0,150,150,116,1,sevenfive,,,,,,,,,,,,,,,,,,,,,,,,,,,,,,,,,,,,,,,,,,,,,,,,,,,,,,,,,,,,,,,,,,,,,,,,,,,,,,,,,,,,,,,,,,,,,,,,,,,,,,,,,,,,,,,,,,,,,,,,,,,,,,,,,,,,,,,,,
,,669e3aceb62ce654ecaf410e,2026-03-17_10h26.59.475,kallum_motion_pilot_GIST_update_2,2026.1.1,MacIntel,59.52380952,669e3aceb62ce654ecaf410e,69b92ab4aef6dee357cd729a,69b92b4fbd40bd8f4ebd3312,0.0429,0.0429,0,151,151,68,1,threeone,,,,,,,,,,,,,,,,,,,,,,,,,,,,,,,,,,,,,,,,,,,,,,,,,,,,,,,,,,,,,,,,,,,,,,,,,,,,,,,,,,,,,,,,,,,,,,,,,,,,,,,,,,,,,,,,,,,,,,,,,,,,,,,,,,,,,,,,,
,,669e3aceb62ce654ecaf410e,2026-03-17_10h26.59.475,kallum_motion_pilot_GIST_update_2,2026.1.1,MacIntel,59.52380952,669e3aceb62ce654ecaf410e,69b92ab4aef6dee357cd729a,69b92b4fbd40bd8f4ebd3312,0.0431,0.0431,0,152,152,67,1,twofour,,,,,,,,,,,,,,,,,,,,,,,,,,,,,,,,,,,,,,,,,,,,,,,,,,,,,,,,,,,,,,,,,,,,,,,,,,,,,,,,,,,,,,,,,,,,,,,,,,,,,,,,,,,,,,,,,,,,,,,,,,,,,,,,,,,,,,,,,
,,669e3aceb62ce654ecaf410e,2026-03-17_10h26.59.475,kallum_motion_pilot_GIST_update_2,2026.1.1,MacIntel,59.52380952,669e3aceb62ce654ecaf410e,69b92ab4aef6dee357cd729a,69b92b4fbd40bd8f4ebd3312,0.0432,0.0432,0,153,153,93,1,seveneight,,,,,,,,,,,,,,,,,,,,,,,,,,,,,,,,,,,,,,,,,,,,,,,,,,,,,,,,,,,,,,,,,,,,,,,,,,,,,,,,,,,,,,,,,,,,,,,,,,,,,,,,,,,,,,,,,,,,,,,,,,,,,,,,,,,,,,,,,
,,669e3aceb62ce654ecaf410e,2026-03-17_10h26.59.475,kallum_motion_pilot_GIST_update_2,2026.1.1,MacIntel,59.52380952,669e3aceb62ce654ecaf410e,69b92ab4aef6dee357cd729a,69b92b4fbd40bd8f4ebd3312,0.0433,0.0433,0,154,154,50,1,twoone,,,,,,,,,,,,,,,,,,,,,,,,,,,,,,,,,,,,,,,,,,,,,,,,,,,,,,,,,,,,,,,,,,,,,,,,,,,,,,,,,,,,,,,,,,,,,,,,,,,,,,,,,,,,,,,,,,,,,,,,,,,,,,,,,,,,,,,,,
,,669e3aceb62ce654ecaf410e,2026-03-17_10h26.59.475,kallum_motion_pilot_GIST_update_2,2026.1.1,MacIntel,59.52380952,669e3aceb62ce654ecaf410e,69b92ab4aef6dee357cd729a,69b92b4fbd40bd8f4ebd3312,0.0435,0.0435,0,155,155,117,1,seveneight,,,,,,,,,,,,,,,,,,,,,,,,,,,,,,,,,,,,,,,,,,,,,,,,,,,,,,,,,,,,,,,,,,,,,,,,,,,,,,,,,,,,,,,,,,,,,,,,,,,,,,,,,,,,,,,,,,,,,,,,,,,,,,,,,,,,,,,,,
,,669e3aceb62ce654ecaf410e,2026-03-17_10h26.59.475,kallum_motion_pilot_GIST_update_2,2026.1.1,MacIntel,59.52380952,669e3aceb62ce654ecaf410e,69b92ab4aef6dee357cd729a,69b92b4fbd40bd8f4ebd3312,0.0436,0.0436,0,156,156,125,1,seveneight,,,,,,,,,,,,,,,,,,,,,,,,,,,,,,,,,,,,,,,,,,,,,,,,,,,,,,,,,,,,,,,,,,,,,,,,,,,,,,,,,,,,,,,,,,,,,,,,,,,,,,,,,,,,,,,,,,,,,,,,,,,,,,,,,,,,,,,,,
,,669e3aceb62ce654ecaf410e,2026-03-17_10h26.59.475,kallum_motion_pilot_GIST_update_2,2026.1.1,MacIntel,59.52380952,669e3aceb62ce654ecaf410e,69b92ab4aef6dee357cd729a,69b92b4fbd40bd8f4ebd3312,0.0437,0.0437,0,157,157,104,1,fivesix,,,,,,,,,,,,,,,,,,,,,,,,,,,,,,,,,,,,,,,,,,,,,,,,,,,,,,,,,,,,,,,,,,,,,,,,,,,,,,,,,,,,,,,,,,,,,,,,,,,,,,,,,,,,,,,,,,,,,,,,,,,,,,,,,,,,,,,,,
,,669e3aceb62ce654ecaf410e,2026-03-17_10h26.59.475,kallum_motion_pilot_GIST_update_2,2026.1.1,MacIntel,59.52380952,669e3aceb62ce654ecaf410e,69b92ab4aef6dee357cd729a,69b92b4fbd40bd8f4ebd3312,0.0438,0.0438,0,158,158,88,1,fivesix,,,,,,,,,,,,,,,,,,,,,,,,,,,,,,,,,,,,,,,,,,,,,,,,,,,,,,,,,,,,,,,,,,,,,,,,,,,,,,,,,,,,,,,,,,,,,,,,,,,,,,,,,,,,,,,,,,,,,,,,,,,,,,,,,,,,,,,,,
,,669e3aceb62ce654ecaf410e,2026-03-17_10h26.59.475,kallum_motion_pilot_GIST_update_2,2026.1.1,MacIntel,59.52380952,669e3aceb62ce654ecaf410e,69b92ab4aef6dee357cd729a,69b92b4fbd40bd8f4ebd3312,0.0439,0.0439,0,159,159,148,1,sevenfive,,,,,,,,,,,,,,,,,,,,,,,,,,,,,,,,,,,,,,,,,,,,,,,,,,,,,,,,,,,,,,,,,,,,,,,,,,,,,,,,,,,,,,,,,,,,,,,,,,,,,,,,,,,,,,,,,,,,,,,,,,,,,,,,,,,,,,,,,
,,669e3aceb62ce654ecaf410e,2026-03-17_10h26.59.475,kallum_motion_pilot_GIST_update_2,2026.1.1,MacIntel,59.52380952,669e3aceb62ce654ecaf410e,69b92ab4aef6dee357cd729a,69b92b4fbd40bd8f4ebd3312,0.044,0.044,0,160,160,152,1,fivesix,,,,,,,,,,,,,,,,,,,,,,,,,,,,,,,,,,,,,,,,,,,,,,,,,,,,,,,,,,,,,,,,,,,,,,,,,,,,,,,,,,,,,,,,,,,,,,,,,,,,,,,,,,,,,,,,,,,,,,,,,,,,,,,,,,,,,,,,,
,,669e3aceb62ce654ecaf410e,2026-03-17_10h26.59.475,kallum_motion_pilot_GIST_update_2,2026.1.1,MacIntel,59.52380952,669e3aceb62ce654ecaf410e,69b92ab4aef6dee357cd729a,69b92b4fbd40bd8f4ebd3312,0.0442,0.0442,0,161,161,13,1,threefour,,,,,,,,,,,,,,,,,,,,,,,,,,,,,,,,,,,,,,,,,,,,,,,,,,,,,,,,,,,,,,,,,,,,,,,,,,,,,,,,,,,,,,,,,,,,,,,,,,,,,,,,,,,,,,,,,,,,,,,,,,,,,,,,,,,,,,,,,
,,669e3aceb62ce654ecaf410e,2026-03-17_10h26.59.475,kallum_motion_pilot_GIST_update_2,2026.1.1,MacIntel,59.52380952,669e3aceb62ce654ecaf410e,69b92ab4aef6dee357cd729a,69b92b4fbd40bd8f4ebd3312,0.0444,0.0444,1,0,162,36,1,threeone,,,,,,,,,,,,,,,,,,,,,,,,,,,,,,,,,,,,,,,,,,,,,,,,,,,,,,,,,,,,,,,,,,,,,,,,,,,,,,,,,,,,,,,,,,,,,,,,,,,,,,,,,,,,,,,,,,,,,,,,,,,,,,,,,,,,,,,,,
,,669e3aceb62ce654ecaf410e,2026-03-17_10h26.59.475,kallum_motion_pilot_GIST_update_2,2026.1.1,MacIntel,59.52380952,669e3aceb62ce654ecaf410e,69b92ab4aef6dee357cd729a,69b92b4fbd40bd8f4ebd3312,0.0444,0.0444,1,1,163,104,1,fivesix,,,,,,,,,,,,,,,,,,,,,,,,,,,,,,,,,,,,,,,,,,,,,,,,,,,,,,,,,,,,,,,,,,,,,,,,,,,,,,,,,,,,,,,,,,,,,,,,,,,,,,,,,,,,,,,,,,,,,,,,,,,,,,,,,,,,,,,,,
,,669e3aceb62ce654ecaf410e,2026-03-17_10h26.59.475,kallum_motion_pilot_GIST_update_2,2026.1.1,MacIntel,59.52380952,669e3aceb62ce654ecaf410e,69b92ab4aef6dee357cd729a,69b92b4fbd40bd8f4ebd3312,0.0445,0.0445,1,2,164,115,1,sixeight,,,,,,,,,,,,,,,,,,,,,,,,,,,,,,,,,,,,,,,,,,,,,,,,,,,,,,,,,,,,,,,,,,,,,,,,,,,,,,,,,,,,,,,,,,,,,,,,,,,,,,,,,,,,,,,,,,,,,,,,,,,,,,,,,,,,,,,,,
,,669e3aceb62ce654ecaf410e,2026-03-17_10h26.59.475,kallum_motion_pilot_GIST_update_2,2026.1.1,MacIntel,59.52380952,669e3aceb62ce654ecaf410e,69b92ab4aef6dee357cd729a,69b92b4fbd40bd8f4ebd3312,0.0446,0.0446,1,3,165,70,1,fourtwo,,,,,,,,,,,,,,,,,,,,,,,,,,,,,,,,,,,,,,,,,,,,,,,,,,,,,,,,,,,,,,,,,,,,,,,,,,,,,,,,,,,,,,,,,,,,,,,,,,,,,,,,,,,,,,,,,,,,,,,,,,,,,,,,,,,,,,,,,
,,669e3aceb62ce654ecaf410e,2026-03-17_10h26.59.475,kallum_motion_pilot_GIST_update_2,2026.1.1,MacIntel,59.52380952,669e3aceb62ce654ecaf410e,69b92ab4aef6dee357cd729a,69b92b4fbd40bd8f4ebd3312,0.0448,0.0448,1,4,166,91,1,sixeight,,,,,,,,,,,,,,,,,,,,,,,,,,,,,,,,,,,,,,,,,,,,,,,,,,,,,,,,,,,,,,,,,,,,,,,,,,,,,,,,,,,,,,,,,,,,,,,,,,,,,,,,,,,,,,,,,,,,,,,,,,,,,,,,,,,,,,,,,
,,669e3aceb62ce654ecaf410e,2026-03-17_10h26.59.475,kallum_motion_pilot_GIST_update_2,2026.1.1,MacIntel,59.52380952,669e3aceb62ce654ecaf410e,69b92ab4aef6dee357cd729a,69b92b4fbd40bd8f4ebd3312,0.0449,0.045,1,5,167,92,1,sevenfive,,,,,,,,,,,,,,,,,,,,,,,,,,,,,,,,,,,,,,,,,,,,,,,,,,,,,,,,,,,,,,,,,,,,,,,,,,,,,,,,,,,,,,,,,,,,,,,,,,,,,,,,,,,,,,,,,,,,,,,,,,,,,,,,,,,,,,,,,
,,669e3aceb62ce654ecaf410e,2026-03-17_10h26.59.475,kallum_motion_pilot_GIST_update_2,2026.1.1,MacIntel,59.52380952,669e3aceb62ce654ecaf410e,69b92ab4aef6dee357cd729a,69b92b4fbd40bd8f4ebd3312,0.045,0.045,1,6,168,48,1,onetwo,,,,,,,,,,,,,,,,,,,,,,,,,,,,,,,,,,,,,,,,,,,,,,,,,,,,,,,,,,,,,,,,,,,,,,,,,,,,,,,,,,,,,,,,,,,,,,,,,,,,,,,,,,,,,,,,,,,,,,,,,,,,,,,,,,,,,,,,,
,,669e3aceb62ce654ecaf410e,2026-03-17_10h26.59.475,kallum_motion_pilot_GIST_update_2,2026.1.1,MacIntel,59.52380952,669e3aceb62ce654ecaf410e,69b92ab4aef6dee357cd729a,69b92b4fbd40bd8f4ebd3312,0.0452,0.0452,1,7,169,13,1,threefour,,,,,,,,,,,,,,,,,,,,,,,,,,,,,,,,,,,,,,,,,,,,,,,,,,,,,,,,,,,,,,,,,,,,,,,,,,,,,,,,,,,,,,,,,,,,,,,,,,,,,,,,,,,,,,,,,,,,,,,,,,,,,,,,,,,,,,,,,
,,669e3aceb62ce654ecaf410e,2026-03-17_10h26.59.475,kallum_motion_pilot_GIST_update_2,2026.1.1,MacIntel,59.52380952,669e3aceb62ce654ecaf410e,69b92ab4aef6dee357cd729a,69b92b4fbd40bd8f4ebd3312,0.0453,0.0453,1,8,170,34,1,twoone,,,,,,,,,,,,,,,,,,,,,,,,,,,,,,,,,,,,,,,,,,,,,,,,,,,,,,,,,,,,,,,,,,,,,,,,,,,,,,,,,,,,,,,,,,,,,,,,,,,,,,,,,,,,,,,,,,,,,,,,,,,,,,,,,,,,,,,,,
,,669e3aceb62ce654ecaf410e,2026-03-17_10h26.59.475,kallum_motion_pilot_GIST_update_2,2026.1.1,MacIntel,59.52380952,669e3aceb62ce654ecaf410e,69b92ab4aef6dee357cd729a,69b92b4fbd40bd8f4ebd3312,0.0454,0.0454,1,9,171,112,1,fivesix,,,,,,,,,,,,,,,,,,,,,,,,,,,,,,,,,,,,,,,,,,,,,,,,,,,,,,,,,,,,,,,,,,,,,,,,,,,,,,,,,,,,,,,,,,,,,,,,,,,,,,,,,,,,,,,,,,,,,,,,,,,,,,,,,,,,,,,,,
,,669e3aceb62ce654ecaf410e,2026-03-17_10h26.59.475,kallum_motion_pilot_GIST_update_2,2026.1.1,MacIntel,59.52380952,669e3aceb62ce654ecaf410e,69b92ab4aef6dee357cd729a,69b92b4fbd40bd8f4ebd3312,0.0456,0.0456,1,10,172,58,1,twoone,,,,,,,,,,,,,,,,,,,,,,,,,,,,,,,,,,,,,,,,,,,,,,,,,,,,,,,,,,,,,,,,,,,,,,,,,,,,,,,,,,,,,,,,,,,,,,,,,,,,,,,,,,,,,,,,,,,,,,,,,,,,,,,,,,,,,,,,,
,,669e3aceb62ce654ecaf410e,2026-03-17_10h26.59.475,kallum_motion_pilot_GIST_update_2,2026.1.1,MacIntel,59.52380952,669e3aceb62ce654ecaf410e,69b92ab4aef6dee357cd729a,69b92b4fbd40bd8f4ebd3312,0.0456,0.0456,1,11,173,8,1,onetwo,,,,,,,,,,,,,,,,,,,,,,,,,,,,,,,,,,,,,,,,,,,,,,,,,,,,,,,,,,,,,,,,,,,,,,,,,,,,,,,,,,,,,,,,,,,,,,,,,,,,,,,,,,,,,,,,,,,,,,,,,,,,,,,,,,,,,,,,,
,,669e3aceb62ce654ecaf410e,2026-03-17_10h26.59.475,kallum_motion_pilot_GIST_update_2,2026.1.1,MacIntel,59.52380952,669e3aceb62ce654ecaf410e,69b92ab4aef6dee357cd729a,69b92b4fbd40bd8f4ebd3312,0.0457,0.0457,1,12,174,85,1,seveneight,,,,,,,,,,,,,,,,,,,,,,,,,,,,,,,,,,,,,,,,,,,,,,,,,,,,,,,,,,,,,,,,,,,,,,,,,,,,,,,,,,,,,,,,,,,,,,,,,,,,,,,,,,,,,,,,,,,,,,,,,,,,,,,,,,,,,,,,,
,,669e3aceb62ce654ecaf410e,2026-03-17_10h26.59.475,kallum_motion_pilot_GIST_update_2,2026.1.1,MacIntel,59.52380952,669e3aceb62ce654ecaf410e,69b92ab4aef6dee357cd729a,69b92b4fbd40bd8f4ebd3312,0.0459,0.0459,1,13,175,127,1,eightseven,,,,,,,,,,,,,,,,,,,,,,,,,,,,,,,,,,,,,,,,,,,,,,,,,,,,,,,,,,,,,,,,,,,,,,,,,,,,,,,,,,,,,,,,,,,,,,,,,,,,,,,,,,,,,,,,,,,,,,,,,,,,,,,,,,,,,,,,,
,,669e3aceb62ce654ecaf410e,2026-03-17_10h26.59.475,kallum_motion_pilot_GIST_update_2,2026.1.1,MacIntel,59.52380952,669e3aceb62ce654ecaf410e,69b92ab4aef6dee357cd729a,69b92b4fbd40bd8f4ebd3312,0.046,0.046,1,14,176,55,1,fourthree,,,,,,,,,,,,,,,,,,,,,,,,,,,,,,,,,,,,,,,,,,,,,,,,,,,,,,,,,,,,,,,,,,,,,,,,,,,,,,,,,,,,,,,,,,,,,,,,,,,,,,,,,,,,,,,,,,,,,,,,,,,,,,,,,,,,,,,,,
,,669e3aceb62ce654ecaf410e,2026-03-17_10h26.59.475,kallum_motion_pilot_GIST_update_2,2026.1.1,MacIntel,59.52380952,669e3aceb62ce654ecaf410e,69b92ab4aef6dee357cd729a,69b92b4fbd40bd8f4ebd3312,0.0462,0.0462,1,15,177,5,1,threefour,,,,,,,,,,,,,,,,,,,,,,,,,,,,,,,,,,,,,,,,,,,,,,,,,,,,,,,,,,,,,,,,,,,,,,,,,,,,,,,,,,,,,,,,,,,,,,,,,,,,,,,,,,,,,,,,,,,,,,,,,,,,,,,,,,,,,,,,,
,,669e3aceb62ce654ecaf410e,2026-03-17_10h26.59.475,kallum_motion_pilot_GIST_update_2,2026.1.1,MacIntel,59.52380952,669e3aceb62ce654ecaf410e,69b92ab4aef6dee357cd729a,69b92b4fbd40bd8f4ebd3312,0.0462,0.0463,1,16,178,21,1,threefour,,,,,,,,,,,,,,,,,,,,,,,,,,,,,,,,,,,,,,,,,,,,,,,,,,,,,,,,,,,,,,,,,,,,,,,,,,,,,,,,,,,,,,,,,,,,,,,,,,,,,,,,,,,,,,,,,,,,,,,,,,,,,,,,,,,,,,,,,
,,669e3aceb62ce654ecaf410e,2026-03-17_10h26.59.475,kallum_motion_pilot_GIST_update_2,2026.1.1,MacIntel,59.52380952,669e3aceb62ce654ecaf410e,69b92ab4aef6dee357cd729a,69b92b4fbd40bd8f4ebd3312,0.0464,0.0464,1,17,179,17,1,onethree,,,,,,,,,,,,,,,,,,,,,,,,,,,,,,,,,,,,,,,,,,,,,,,,,,,,,,,,,,,,,,,,,,,,,,,,,,,,,,,,,,,,,,,,,,,,,,,,,,,,,,,,,,,,,,,,,,,,,,,,,,,,,,,,,,,,,,,,,
,,669e3aceb62ce654ecaf410e,2026-03-17_10h26.59.475,kallum_motion_pilot_GIST_update_2,2026.1.1,MacIntel,59.52380952,669e3aceb62ce654ecaf410e,69b92ab4aef6dee357cd729a,69b92b4fbd40bd8f4ebd3312,0.0465,0.0465,1,18,180,153,1,fiveseven,,,,,,,,,,,,,,,,,,,,,,,,,,,,,,,,,,,,,,,,,,,,,,,,,,,,,,,,,,,,,,,,,,,,,,,,,,,,,,,,,,,,,,,,,,,,,,,,,,,,,,,,,,,,,,,,,,,,,,,,,,,,,,,,,,,,,,,,,
,,669e3aceb62ce654ecaf410e,2026-03-17_10h26.59.475,kallum_motion_pilot_GIST_update_2,2026.1.1,MacIntel,59.52380952,669e3aceb62ce654ecaf410e,69b92ab4aef6dee357cd729a,69b92b4fbd40bd8f4ebd3312,0.0466,0.0466,1,19,181,72,1,onetwo,,,,,,,,,,,,,,,,,,,,,,,,,,,,,,,,,,,,,,,,,,,,,,,,,,,,,,,,,,,,,,,,,,,,,,,,,,,,,,,,,,,,,,,,,,,,,,,,,,,,,,,,,,,,,,,,,,,,,,,,,,,,,,,,,,,,,,,,,
,,669e3aceb62ce654ecaf410e,2026-03-17_10h26.59.475,kallum_motion_pilot_GIST_update_2,2026.1.1,MacIntel,59.52380952,669e3aceb62ce654ecaf410e,69b92ab4aef6dee357cd729a,69b92b4fbd40bd8f4ebd3312,0.0467,0.0467,1,20,182,152,1,fivesix,,,,,,,,,,,,,,,,,,,,,,,,,,,,,,,,,,,,,,,,,,,,,,,,,,,,,,,,,,,,,,,,,,,,,,,,,,,,,,,,,,,,,,,,,,,,,,,,,,,,,,,,,,,,,,,,,,,,,,,,,,,,,,,,,,,,,,,,,
,,669e3aceb62ce654ecaf410e,2026-03-17_10h26.59.475,kallum_motion_pilot_GIST_update_2,2026.1.1,MacIntel,59.52380952,669e3aceb62ce654ecaf410e,69b92ab4aef6dee357cd729a,69b92b4fbd40bd8f4ebd3312,0.0469,0.0469,1,21,183,53,1,threefour,,,,,,,,,,,,,,,,,,,,,,,,,,,,,,,,,,,,,,,,,,,,,,,,,,,,,,,,,,,,,,,,,,,,,,,,,,,,,,,,,,,,,,,,,,,,,,,,,,,,,,,,,,,,,,,,,,,,,,,,,,,,,,,,,,,,,,,,,
,,669e3aceb62ce654ecaf410e,2026-03-17_10h26.59.475,kallum_motion_pilot_GIST_update_2,2026.1.1,MacIntel,59.52380952,669e3aceb62ce654ecaf410e,69b92ab4aef6dee357cd729a,69b92b4fbd40bd8f4ebd3312,0.047,0.047,1,22,184,93,1,seveneight,,,,,,,,,,,,,,,,,,,,,,,,,,,,,,,,,,,,,,,,,,,,,,,,,,,,,,,,,,,,,,,,,,,,,,,,,,,,,,,,,,,,,,,,,,,,,,,,,,,,,,,,,,,,,,,,,,,,,,,,,,,,,,,,,,,,,,,,,
,,669e3aceb62ce654ecaf410e,2026-03-17_10h26.59.475,kallum_motion_pilot_GIST_update_2,2026.1.1,MacIntel,59.52380952,669e3aceb62ce654ecaf410e,69b92ab4aef6dee357cd729a,69b92b4fbd40bd8f4ebd3312,0.0471,0.0471,1,23,185,97,1,fiveseven,,,,,,,,,,,,,,,,,,,,,,,,,,,,,,,,,,,,,,,,,,,,,,,,,,,,,,,,,,,,,,,,,,,,,,,,,,,,,,,,,,,,,,,,,,,,,,,,,,,,,,,,,,,,,,,,,,,,,,,,,,,,,,,,,,,,,,,,,
,,669e3aceb62ce654ecaf410e,2026-03-17_10h26.59.475,kallum_motion_pilot_GIST_update_2,2026.1.1,MacIntel,59.52380952,669e3aceb62ce654ecaf410e,69b92ab4aef6dee357cd729a,69b92b4fbd40bd8f4ebd3312,0.0473,0.0473,1,24,186,54,1,fourtwo,,,,,,,,,,,,,,,,,,,,,,,,,,,,,,,,,,,,,,,,,,,,,,,,,,,,,,,,,,,,,,,,,,,,,,,,,,,,,,,,,,,,,,,,,,,,,,,,,,,,,,,,,,,,,,,,,,,,,,,,,,,,,,,,,,,,,,,,,
,,669e3aceb62ce654ecaf410e,2026-03-17_10h26.59.475,kallum_motion_pilot_GIST_update_2,2026.1.1,MacIntel,59.52380952,669e3aceb62ce654ecaf410e,69b92ab4aef6dee357cd729a,69b92b4fbd40bd8f4ebd3312,0.0473,0.0473,1,25,187,16,1,onetwo,,,,,,,,,,,,,,,,,,,,,,,,,,,,,,,,,,,,,,,,,,,,,,,,,,,,,,,,,,,,,,,,,,,,,,,,,,,,,,,,,,,,,,,,,,,,,,,,,,,,,,,,,,,,,,,,,,,,,,,,,,,,,,,,,,,,,,,,,
,,669e3aceb62ce654ecaf410e,2026-03-17_10h26.59.475,kallum_motion_pilot_GIST_update_2,2026.1.1,MacIntel,59.52380952,669e3aceb62ce654ecaf410e,69b92ab4aef6dee357cd729a,69b92b4fbd40bd8f4ebd3312,0.0475,0.0475,1,26,188,155,1,sixeight,,,,,,,,,,,,,,,,,,,,,,,,,,,,,,,,,,,,,,,,,,,,,,,,,,,,,,,,,,,,,,,,,,,,,,,,,,,,,,,,,,,,,,,,,,,,,,,,,,,,,,,,,,,,,,,,,,,,,,,,,,,,,,,,,,,,,,,,,
,,669e3aceb62ce654ecaf410e,2026-03-17_10h26.59.475,kallum_motion_pilot_GIST_update_2,2026.1.1,MacIntel,59.52380952,669e3aceb62ce654ecaf410e,69b92ab4aef6dee357cd729a,69b92b4fbd40bd8f4ebd3312,0.0476,0.0476,1,27,189,27,1,twofour,,,,,,,,,,,,,,,,,,,,,,,,,,,,,,,,,,,,,,,,,,,,,,,,,,,,,,,,,,,,,,,,,,,,,,,,,,,,,,,,,,,,,,,,,,,,,,,,,,,,,,,,,,,,,,,,,,,,,,,,,,,,,,,,,,,,,,,,,
,,669e3aceb62ce654ecaf410e,2026-03-17_10h26.59.475,kallum_motion_pilot_GIST_update_2,2026.1.1,MacIntel,59.52380952,669e3aceb62ce654ecaf410e,69b92ab4aef6dee357cd729a,69b92b4fbd40bd8f4ebd3312,0.0477,0.0477,1,28,190,50,1,twoone,,,,,,,,,,,,,,,,,,,,,,,,,,,,,,,,,,,,,,,,,,,,,,,,,,,,,,,,,,,,,,,,,,,,,,,,,,,,,,,,,,,,,,,,,,,,,,,,,,,,,,,,,,,,,,,,,,,,,,,,,,,,,,,,,,,,,,,,,
,,669e3aceb62ce654ecaf410e,2026-03-17_10h26.59.475,kallum_motion_pilot_GIST_update_2,2026.1.1,MacIntel,59.52380952,669e3aceb62ce654ecaf410e,69b92ab4aef6dee357cd729a,69b92b4fbd40bd8f4ebd3312,0.0478,0.0478,1,29,191,78,1,fourtwo,,,,,,,,,,,,,,,,,,,,,,,,,,,,,,,,,,,,,,,,,,,,,,,,,,,,,,,,,,,,,,,,,,,,,,,,,,,,,,,,,,,,,,,,,,,,,,,,,,,,,,,,,,,,,,,,,,,,,,,,,,,,,,,,,,,,,,,,,
,,669e3aceb62ce654ecaf410e,2026-03-17_10h26.59.475,kallum_motion_pilot_GIST_update_2,2026.1.1,MacIntel,59.52380952,669e3aceb62ce654ecaf410e,69b92ab4aef6dee357cd729a,69b92b4fbd40bd8f4ebd3312,0.0479,0.0479,1,30,192,146,1,sixfive,,,,,,,,,,,,,,,,,,,,,,,,,,,,,,,,,,,,,,,,,,,,,,,,,,,,,,,,,,,,,,,,,,,,,,,,,,,,,,,,,,,,,,,,,,,,,,,,,,,,,,,,,,,,,,,,,,,,,,,,,,,,,,,,,,,,,,,,,
,,669e3aceb62ce654ecaf410e,2026-03-17_10h26.59.475,kallum_motion_pilot_GIST_update_2,2026.1.1,MacIntel,59.52380952,669e3aceb62ce654ecaf410e,69b92ab4aef6dee357cd729a,69b92b4fbd40bd8f4ebd3312,0.0481,0.0481,1,31,193,59,1,twofour,,,,,,,,,,,,,,,,,,,,,,,,,,,,,,,,,,,,,,,,,,,,,,,,,,,,,,,,,,,,,,,,,,,,,,,,,,,,,,,,,,,,,,,,,,,,,,,,,,,,,,,,,,,,,,,,,,,,,,,,,,,,,,,,,,,,,,,,,
,,669e3aceb62ce654ecaf410e,2026-03-17_10h26.59.475,kallum_motion_pilot_GIST_update_2,2026.1.1,MacIntel,59.52380952,669e3aceb62ce654ecaf410e,69b92ab4aef6dee357cd729a,69b92b4fbd40bd8f4ebd3312,0.0482,0.0482,1,32,194,160,1,fivesix,,,,,,,,,,,,,,,,,,,,,,,,,,,,,,,,,,,,,,,,,,,,,,,,,,,,,,,,,,,,,,,,,,,,,,,,,,,,,,,,,,,,,,,,,,,,,,,,,,,,,,,,,,,,,,,,,,,,,,,,,,,,,,,,,,,,,,,,,
,,669e3aceb62ce654ecaf410e,2026-03-17_10h26.59.475,kallum_motion_pilot_GIST_update_2,2026.1.1,MacIntel,59.52380952,669e3aceb62ce654ecaf410e,69b92ab4aef6dee357cd729a,69b92b4fbd40bd8f4ebd3312,0.0484,0.0484,1,33,195,51,1,twofour,,,,,,,,,,,,,,,,,,,,,,,,,,,,,,,,,,,,,,,,,,,,,,,,,,,,,,,,,,,,,,,,,,,,,,,,,,,,,,,,,,,,,,,,,,,,,,,,,,,,,,,,,,,,,,,,,,,,,,,,,,,,,,,,,,,,,,,,,
,,669e3aceb62ce654ecaf410e,2026-03-17_10h26.59.475,kallum_motion_pilot_GIST_update_2,2026.1.1,MacIntel,59.52380952,669e3aceb62ce654ecaf410e,69b92ab4aef6dee357cd729a,69b92b4fbd40bd8f4ebd3312,0.0485,0.0485,1,34,196,94,1,eightsix,,,,,,,,,,,,,,,,,,,,,,,,,,,,,,,,,,,,,,,,,,,,,,,,,,,,,,,,,,,,,,,,,,,,,,,,,,,,,,,,,,,,,,,,,,,,,,,,,,,,,,,,,,,,,,,,,,,,,,,,,,,,,,,,,,,,,,,,,
,,669e3aceb62ce654ecaf410e,2026-03-17_10h26.59.475,kallum_motion_pilot_GIST_update_2,2026.1.1,MacIntel,59.52380952,669e3aceb62ce654ecaf410e,69b92ab4aef6dee357cd729a,69b92b4fbd40bd8f4ebd3312,0.0486,0.0487,1,35,197,56,1,onetwo,,,,,,,,,,,,,,,,,,,,,,,,,,,,,,,,,,,,,,,,,,,,,,,,,,,,,,,,,,,,,,,,,,,,,,,,,,,,,,,,,,,,,,,,,,,,,,,,,,,,,,,,,,,,,,,,,,,,,,,,,,,,,,,,,,,,,,,,,
,,669e3aceb62ce654ecaf410e,2026-03-17_10h26.59.475,kallum_motion_pilot_GIST_update_2,2026.1.1,MacIntel,59.52380952,669e3aceb62ce654ecaf410e,69b92ab4aef6dee357cd729a,69b92b4fbd40bd8f4ebd3312,0.0487,0.0488,1,36,198,150,1,eightsix,,,,,,,,,,,,,,,,,,,,,,,,,,,,,,,,,,,,,,,,,,,,,,,,,,,,,,,,,,,,,,,,,,,,,,,,,,,,,,,,,,,,,,,,,,,,,,,,,,,,,,,,,,,,,,,,,,,,,,,,,,,,,,,,,,,,,,,,,
,,669e3aceb62ce654ecaf410e,2026-03-17_10h26.59.475,kallum_motion_pilot_GIST_update_2,2026.1.1,MacIntel,59.52380952,669e3aceb62ce654ecaf410e,69b92ab4aef6dee357cd729a,69b92b4fbd40bd8f4ebd3312,0.0489,0.0489,1,37,199,89,1,fiveseven,,,,,,,,,,,,,,,,,,,,,,,,,,,,,,,,,,,,,,,,,,,,,,,,,,,,,,,,,,,,,,,,,,,,,,,,,,,,,,,,,,,,,,,,,,,,,,,,,,,,,,,,,,,,,,,,,,,,,,,,,,,,,,,,,,,,,,,,,
,,669e3aceb62ce654ecaf410e,2026-03-17_10h26.59.475,kallum_motion_pilot_GIST_update_2,2026.1.1,MacIntel,59.52380952,669e3aceb62ce654ecaf410e,69b92ab4aef6dee357cd729a,69b92b4fbd40bd8f4ebd3312,0.049,0.049,1,38,200,44,1,threeone,,,,,,,,,,,,,,,,,,,,,,,,,,,,,,,,,,,,,,,,,,,,,,,,,,,,,,,,,,,,,,,,,,,,,,,,,,,,,,,,,,,,,,,,,,,,,,,,,,,,,,,,,,,,,,,,,,,,,,,,,,,,,,,,,,,,,,,,,
,,669e3aceb62ce654ecaf410e,2026-03-17_10h26.59.475,kallum_motion_pilot_GIST_update_2,2026.1.1,MacIntel,59.52380952,669e3aceb62ce654ecaf410e,69b92ab4aef6dee357cd729a,69b92b4fbd40bd8f4ebd3312,0.0492,0.0492,1,39,201,119,1,eightseven,,,,,,,,,,,,,,,,,,,,,,,,,,,,,,,,,,,,,,,,,,,,,,,,,,,,,,,,,,,,,,,,,,,,,,,,,,,,,,,,,,,,,,,,,,,,,,,,,,,,,,,,,,,,,,,,,,,,,,,,,,,,,,,,,,,,,,,,,
,,669e3aceb62ce654ecaf410e,2026-03-17_10h26.59.475,kallum_motion_pilot_GIST_update_2,2026.1.1,MacIntel,59.52380952,669e3aceb62ce654ecaf410e,69b92ab4aef6dee357cd729a,69b92b4fbd40bd8f4ebd3312,0.0492,0.0492,1,40,202,133,1,seveneight,,,,,,,,,,,,,,,,,,,,,,,,,,,,,,,,,,,,,,,,,,,,,,,,,,,,,,,,,,,,,,,,,,,,,,,,,,,,,,,,,,,,,,,,,,,,,,,,,,,,,,,,,,,,,,,,,,,,,,,,,,,,,,,,,,,,,,,,,
,,669e3aceb62ce654ecaf410e,2026-03-17_10h26.59.475,kallum_motion_pilot_GIST_update_2,2026.1.1,MacIntel,59.52380952,669e3aceb62ce654ecaf410e,69b92ab4aef6dee357cd729a,69b92b4fbd40bd8f4ebd3312,0.0494,0.0494,1,41,203,65,1,onethree,,,,,,,,,,,,,,,,,,,,,,,,,,,,,,,,,,,,,,,,,,,,,,,,,,,,,,,,,,,,,,,,,,,,,,,,,,,,,,,,,,,,,,,,,,,,,,,,,,,,,,,,,,,,,,,,,,,,,,,,,,,,,,,,,,,,,,,,,
,,669e3aceb62ce654ecaf410e,2026-03-17_10h26.59.475,kallum_motion_pilot_GIST_update_2,2026.1.1,MacIntel,59.52380952,669e3aceb62ce654ecaf410e,69b92ab4aef6dee357cd729a,69b92b4fbd40bd8f4ebd3312,0.0495,0.0495,1,42,204,135,1,eightseven,,,,,,,,,,,,,,,,,,,,,,,,,,,,,,,,,,,,,,,,,,,,,,,,,,,,,,,,,,,,,,,,,,,,,,,,,,,,,,,,,,,,,,,,,,,,,,,,,,,,,,,,,,,,,,,,,,,,,,,,,,,,,,,,,,,,,,,,,
,,669e3aceb62ce654ecaf410e,2026-03-17_10h26.59.475,kallum_motion_pilot_GIST_update_2,2026.1.1,MacIntel,59.52380952,669e3aceb62ce654ecaf410e,69b92ab4aef6dee357cd729a,69b92b4fbd40bd8f4ebd3312,0.0496,0.0496,1,43,205,98,1,sixfive,,,,,,,,,,,,,,,,,,,,,,,,,,,,,,,,,,,,,,,,,,,,,,,,,,,,,,,,,,,,,,,,,,,,,,,,,,,,,,,,,,,,,,,,,,,,,,,,,,,,,,,,,,,,,,,,,,,,,,,,,,,,,,,,,,,,,,,,,
,,669e3aceb62ce654ecaf410e,2026-03-17_10h26.59.475,kallum_motion_pilot_GIST_update_2,2026.1.1,MacIntel,59.52380952,669e3aceb62ce654ecaf410e,69b92ab4aef6dee357cd729a,69b92b4fbd40bd8f4ebd3312,0.0497,0.0497,1,44,206,116,1,sevenfive,,,,,,,,,,,,,,,,,,,,,,,,,,,,,,,,,,,,,,,,,,,,,,,,,,,,,,,,,,,,,,,,,,,,,,,,,,,,,,,,,,,,,,,,,,,,,,,,,,,,,,,,,,,,,,,,,,,,,,,,,,,,,,,,,,,,,,,,,
,,669e3aceb62ce654ecaf410e,2026-03-17_10h26.59.475,kallum_motion_pilot_GIST_update_2,2026.1.1,MacIntel,59.52380952,669e3aceb62ce654ecaf410e,69b92ab4aef6dee357cd729a,69b92b4fbd40bd8f4ebd3312,0.0498,0.0498,1,45,207,80,1,fivesix,,,,,,,,,,,,,,,,,,,,,,,,,,,,,,,,,,,,,,,,,,,,,,,,,,,,,,,,,,,,,,,,,,,,,,,,,,,,,,,,,,,,,,,,,,,,,,,,,,,,,,,,,,,,,,,,,,,,,,,,,,,,,,,,,,,,,,,,,
,,669e3aceb62ce654ecaf410e,2026-03-17_10h26.59.475,kallum_motion_pilot_GIST_update_2,2026.1.1,MacIntel,59.52380952,669e3aceb62ce654ecaf410e,69b92ab4aef6dee357cd729a,69b92b4fbd40bd8f4ebd3312,0.05,0.05,1,46,208,100,1,sevenfive,,,,,,,,,,,,,,,,,,,,,,,,,,,,,,,,,,,,,,,,,,,,,,,,,,,,,,,,,,,,,,,,,,,,,,,,,,,,,,,,,,,,,,,,,,,,,,,,,,,,,,,,,,,,,,,,,,,,,,,,,,,,,,,,,,,,,,,,,
,,669e3aceb62ce654ecaf410e,2026-03-17_10h26.59.475,kallum_motion_pilot_GIST_update_2,2026.1.1,MacIntel,59.52380952,669e3aceb62ce654ecaf410e,69b92ab4aef6dee357cd729a,69b92b4fbd40bd8f4ebd3312,0.0502,0.0502,1,47,209,118,1,eightsix,,,,,,,,,,,,,,,,,,,,,,,,,,,,,,,,,,,,,,,,,,,,,,,,,,,,,,,,,,,,,,,,,,,,,,,,,,,,,,,,,,,,,,,,,,,,,,,,,,,,,,,,,,,,,,,,,,,,,,,,,,,,,,,,,,,,,,,,,
,,669e3aceb62ce654ecaf410e,2026-03-17_10h26.59.475,kallum_motion_pilot_GIST_update_2,2026.1.1,MacIntel,59.52380952,669e3aceb62ce654ecaf410e,69b92ab4aef6dee357cd729a,69b92b4fbd40bd8f4ebd3312,0.0503,0.0503,1,48,210,68,1,threeone,,,,,,,,,,,,,,,,,,,,,,,,,,,,,,,,,,,,,,,,,,,,,,,,,,,,,,,,,,,,,,,,,,,,,,,,,,,,,,,,,,,,,,,,,,,,,,,,,,,,,,,,,,,,,,,,,,,,,,,,,,,,,,,,,,,,,,,,,
,,669e3aceb62ce654ecaf410e,2026-03-17_10h26.59.475,kallum_motion_pilot_GIST_update_2,2026.1.1,MacIntel,59.52380952,669e3aceb62ce654ecaf410e,69b92ab4aef6dee357cd729a,69b92b4fbd40bd8f4ebd3312,0.0504,0.0504,1,49,211,151,1,eightseven,,,,,,,,,,,,,,,,,,,,,,,,,,,,,,,,,,,,,,,,,,,,,,,,,,,,,,,,,,,,,,,,,,,,,,,,,,,,,,,,,,,,,,,,,,,,,,,,,,,,,,,,,,,,,,,,,,,,,,,,,,,,,,,,,,,,,,,,,
,,669e3aceb62ce654ecaf410e,2026-03-17_10h26.59.475,kallum_motion_pilot_GIST_update_2,2026.1.1,MacIntel,59.52380952,669e3aceb62ce654ecaf410e,69b92ab4aef6dee357cd729a,69b92b4fbd40bd8f4ebd3312,0.0505,0.0506,1,50,212,137,1,fiveseven,,,,,,,,,,,,,,,,,,,,,,,,,,,,,,,,,,,,,,,,,,,,,,,,,,,,,,,,,,,,,,,,,,,,,,,,,,,,,,,,,,,,,,,,,,,,,,,,,,,,,,,,,,,,,,,,,,,,,,,,,,,,,,,,,,,,,,,,,
,,669e3aceb62ce654ecaf410e,2026-03-17_10h26.59.475,kallum_motion_pilot_GIST_update_2,2026.1.1,MacIntel,59.52380952,669e3aceb62ce654ecaf410e,69b92ab4aef6dee357cd729a,69b92b4fbd40bd8f4ebd3312,0.0507,0.0507,1,51,213,114,1,sixfive,,,,,,,,,,,,,,,,,,,,,,,,,,,,,,,,,,,,,,,,,,,,,,,,,,,,,,,,,,,,,,,,,,,,,,,,,,,,,,,,,,,,,,,,,,,,,,,,,,,,,,,,,,,,,,,,,,,,,,,,,,,,,,,,,,,,,,,,,
,,669e3aceb62ce654ecaf410e,2026-03-17_10h26.59.475,kallum_motion_pilot_GIST_update_2,2026.1.1,MacIntel,59.52380952,669e3aceb62ce654ecaf410e,69b92ab4aef6dee357cd729a,69b92b4fbd40bd8f4ebd3312,0.0509,0.0509,1,52,214,108,1,sevenfive,,,,,,,,,,,,,,,,,,,,,,,,,,,,,,,,,,,,,,,,,,,,,,,,,,,,,,,,,,,,,,,,,,,,,,,,,,,,,,,,,,,,,,,,,,,,,,,,,,,,,,,,,,,,,,,,,,,,,,,,,,,,,,,,,,,,,,,,,
,,669e3aceb62ce654ecaf410e,2026-03-17_10h26.59.475,kallum_motion_pilot_GIST_update_2,2026.1.1,MacIntel,59.52380952,669e3aceb62ce654ecaf410e,69b92ab4aef6dee357cd729a,69b92b4fbd40bd8f4ebd3312,0.051,0.051,1,53,215,6,1,fourtwo,,,,,,,,,,,,,,,,,,,,,,,,,,,,,,,,,,,,,,,,,,,,,,,,,,,,,,,,,,,,,,,,,,,,,,,,,,,,,,,,,,,,,,,,,,,,,,,,,,,,,,,,,,,,,,,,,,,,,,,,,,,,,,,,,,,,,,,,,
,,669e3aceb62ce654ecaf410e,2026-03-17_10h26.59.475,kallum_motion_pilot_GIST_update_2,2026.1.1,MacIntel,59.52380952,669e3aceb62ce654ecaf410e,69b92ab4aef6dee357cd729a,69b92b4fbd40bd8f4ebd3312,0.0511,0.0511,1,54,216,46,1,fourtwo,,,,,,,,,,,,,,,,,,,,,,,,,,,,,,,,,,,,,,,,,,,,,,,,,,,,,,,,,,,,,,,,,,,,,,,,,,,,,,,,,,,,,,,,,,,,,,,,,,,,,,,,,,,,,,,,,,,,,,,,,,,,,,,,,,,,,,,,,
,,669e3aceb62ce654ecaf410e,2026-03-17_10h26.59.475,kallum_motion_pilot_GIST_update_2,2026.1.1,MacIntel,59.52380952,669e3aceb62ce654ecaf410e,69b92ab4aef6dee357cd729a,69b92b4fbd40bd8f4ebd3312,0.0513,0.0513,1,55,217,125,1,seveneight,,,,,,,,,,,,,,,,,,,,,,,,,,,,,,,,,,,,,,,,,,,,,,,,,,,,,,,,,,,,,,,,,,,,,,,,,,,,,,,,,,,,,,,,,,,,,,,,,,,,,,,,,,,,,,,,,,,,,,,,,,,,,,,,,,,,,,,,,
,,669e3aceb62ce654ecaf410e,2026-03-17_10h26.59.475,kallum_motion_pilot_GIST_update_2,2026.1.1,MacIntel,59.52380952,669e3aceb62ce654ecaf410e,69b92ab4aef6dee357cd729a,69b92b4fbd40bd8f4ebd3312,0.0514,0.0514,1,56,218,129,1,fiveseven,,,,,,,,,,,,,,,,,,,,,,,,,,,,,,,,,,,,,,,,,,,,,,,,,,,,,,,,,,,,,,,,,,,,,,,,,,,,,,,,,,,,,,,,,,,,,,,,,,,,,,,,,,,,,,,,,,,,,,,,,,,,,,,,,,,,,,,,,
,,669e3aceb62ce654ecaf410e,2026-03-17_10h26.59.475,kallum_motion_pilot_GIST_update_2,2026.1.1,MacIntel,59.52380952,669e3aceb62ce654ecaf410e,69b92ab4aef6dee357cd729a,69b92b4fbd40bd8f4ebd3312,0.0515,0.0515,1,57,219,134,1,eightsix,,,,,,,,,,,,,,,,,,,,,,,,,,,,,,,,,,,,,,,,,,,,,,,,,,,,,,,,,,,,,,,,,,,,,,,,,,,,,,,,,,,,,,,,,,,,,,,,,,,,,,,,,,,,,,,,,,,,,,,,,,,,,,,,,,,,,,,,,
,,669e3aceb62ce654ecaf410e,2026-03-17_10h26.59.475,kallum_motion_pilot_GIST_update_2,2026.1.1,MacIntel,59.52380952,669e3aceb62ce654ecaf410e,69b92ab4aef6dee357cd729a,69b92b4fbd40bd8f4ebd3312,0.0516,0.0517,1,58,220,7,1,fourthree,,,,,,,,,,,,,,,,,,,,,,,,,,,,,,,,,,,,,,,,,,,,,,,,,,,,,,,,,,,,,,,,,,,,,,,,,,,,,,,,,,,,,,,,,,,,,,,,,,,,,,,,,,,,,,,,,,,,,,,,,,,,,,,,,,,,,,,,,
,,669e3aceb62ce654ecaf410e,2026-03-17_10h26.59.475,kallum_motion_pilot_GIST_update_2,2026.1.1,MacIntel,59.52380952,669e3aceb62ce654ecaf410e,69b92ab4aef6dee357cd729a,69b92b4fbd40bd8f4ebd3312,0.0517,0.0517,1,59,221,60,1,threeone,,,,,,,,,,,,,,,,,,,,,,,,,,,,,,,,,,,,,,,,,,,,,,,,,,,,,,,,,,,,,,,,,,,,,,,,,,,,,,,,,,,,,,,,,,,,,,,,,,,,,,,,,,,,,,,,,,,,,,,,,,,,,,,,,,,,,,,,,
,,669e3aceb62ce654ecaf410e,2026-03-17_10h26.59.475,kallum_motion_pilot_GIST_update_2,2026.1.1,MacIntel,59.52380952,669e3aceb62ce654ecaf410e,69b92ab4aef6dee357cd729a,69b92b4fbd40bd8f4ebd3312,0.0519,0.0519,1,60,222,82,1,sixfive,,,,,,,,,,,,,,,,,,,,,,,,,,,,,,,,,,,,,,,,,,,,,,,,,,,,,,,,,,,,,,,,,,,,,,,,,,,,,,,,,,,,,,,,,,,,,,,,,,,,,,,,,,,,,,,,,,,,,,,,,,,,,,,,,,,,,,,,,
,,669e3aceb62ce654ecaf410e,2026-03-17_10h26.59.475,kallum_motion_pilot_GIST_update_2,2026.1.1,MacIntel,59.52380952,669e3aceb62ce654ecaf410e,69b92ab4aef6dee357cd729a,69b92b4fbd40bd8f4ebd3312,0.052,0.052,1,61,223,19,1,twofour,,,,,,,,,,,,,,,,,,,,,,,,,,,,,,,,,,,,,,,,,,,,,,,,,,,,,,,,,,,,,,,,,,,,,,,,,,,,,,,,,,,,,,,,,,,,,,,,,,,,,,,,,,,,,,,,,,,,,,,,,,,,,,,,,,,,,,,,,
,,669e3aceb62ce654ecaf410e,2026-03-17_10h26.59.475,kallum_motion_pilot_GIST_update_2,2026.1.1,MacIntel,59.52380952,669e3aceb62ce654ecaf410e,69b92ab4aef6dee357cd729a,69b92b4fbd40bd8f4ebd3312,0.0521,0.0521,1,62,224,139,1,sixeight,,,,,,,,,,,,,,,,,,,,,,,,,,,,,,,,,,,,,,,,,,,,,,,,,,,,,,,,,,,,,,,,,,,,,,,,,,,,,,,,,,,,,,,,,,,,,,,,,,,,,,,,,,,,,,,,,,,,,,,,,,,,,,,,,,,,,,,,,
,,669e3aceb62ce654ecaf410e,2026-03-17_10h26.59.475,kallum_motion_pilot_GIST_update_2,2026.1.1,MacIntel,59.52380952,669e3aceb62ce654ecaf410e,69b92ab4aef6dee357cd729a,69b92b4fbd40bd8f4ebd3312,0.0523,0.0523,1,63,225,143,1,eightseven,,,,,,,,,,,,,,,,,,,,,,,,,,,,,,,,,,,,,,,,,,,,,,,,,,,,,,,,,,,,,,,,,,,,,,,,,,,,,,,,,,,,,,,,,,,,,,,,,,,,,,,,,,,,,,,,,,,,,,,,,,,,,,,,,,,,,,,,,
,,669e3aceb62ce654ecaf410e,2026-03-17_10h26.59.475,kallum_motion_pilot_GIST_update_2,2026.1.1,MacIntel,59.52380952,669e3aceb62ce654ecaf410e,69b92ab4aef6dee357cd729a,69b92b4fbd40bd8f4ebd3312,0.0524,0.0524,1,64,226,49,1,onethree,,,,,,,,,,,,,,,,,,,,,,,,,,,,,,,,,,,,,,,,,,,,,,,,,,,,,,,,,,,,,,,,,,,,,,,,,,,,,,,,,,,,,,,,,,,,,,,,,,,,,,,,,,,,,,,,,,,,,,,,,,,,,,,,,,,,,,,,,
,,669e3aceb62ce654ecaf410e,2026-03-17_10h26.59.475,kallum_motion_pilot_GIST_update_2,2026.1.1,MacIntel,59.52380952,669e3aceb62ce654ecaf410e,69b92ab4aef6dee357cd729a,69b92b4fbd40bd8f4ebd3312,0.0526,0.0526,1,65,227,22,1,fourtwo,,,,,,,,,,,,,,,,,,,,,,,,,,,,,,,,,,,,,,,,,,,,,,,,,,,,,,,,,,,,,,,,,,,,,,,,,,,,,,,,,,,,,,,,,,,,,,,,,,,,,,,,,,,,,,,,,,,,,,,,,,,,,,,,,,,,,,,,,
,,669e3aceb62ce654ecaf410e,2026-03-17_10h26.59.475,kallum_motion_pilot_GIST_update_2,2026.1.1,MacIntel,59.52380952,669e3aceb62ce654ecaf410e,69b92ab4aef6dee357cd729a,69b92b4fbd40bd8f4ebd3312,0.0527,0.0527,1,66,228,111,1,eightseven,,,,,,,,,,,,,,,,,,,,,,,,,,,,,,,,,,,,,,,,,,,,,,,,,,,,,,,,,,,,,,,,,,,,,,,,,,,,,,,,,,,,,,,,,,,,,,,,,,,,,,,,,,,,,,,,,,,,,,,,,,,,,,,,,,,,,,,,,
,,669e3aceb62ce654ecaf410e,2026-03-17_10h26.59.475,kallum_motion_pilot_GIST_update_2,2026.1.1,MacIntel,59.52380952,669e3aceb62ce654ecaf410e,69b92ab4aef6dee357cd729a,69b92b4fbd40bd8f4ebd3312,0.0528,0.0528,1,67,229,69,1,threefour,,,,,,,,,,,,,,,,,,,,,,,,,,,,,,,,,,,,,,,,,,,,,,,,,,,,,,,,,,,,,,,,,,,,,,,,,,,,,,,,,,,,,,,,,,,,,,,,,,,,,,,,,,,,,,,,,,,,,,,,,,,,,,,,,,,,,,,,,
,,669e3aceb62ce654ecaf410e,2026-03-17_10h26.59.475,kallum_motion_pilot_GIST_update_2,2026.1.1,MacIntel,59.52380952,669e3aceb62ce654ecaf410e,69b92ab4aef6dee357cd729a,69b92b4fbd40bd8f4ebd3312,0.0529,0.0529,1,68,230,103,1,eightseven,,,,,,,,,,,,,,,,,,,,,,,,,,,,,,,,,,,,,,,,,,,,,,,,,,,,,,,,,,,,,,,,,,,,,,,,,,,,,,,,,,,,,,,,,,,,,,,,,,,,,,,,,,,,,,,,,,,,,,,,,,,,,,,,,,,,,,,,,
,,669e3aceb62ce654ecaf410e,2026-03-17_10h26.59.475,kallum_motion_pilot_GIST_update_2,2026.1.1,MacIntel,59.52380952,669e3aceb62ce654ecaf410e,69b92ab4aef6dee357cd729a,69b92b4fbd40bd8f4ebd3312,0.053,0.053,1,69,231,15,1,fourthree,,,,,,,,,,,,,,,,,,,,,,,,,,,,,,,,,,,,,,,,,,,,,,,,,,,,,,,,,,,,,,,,,,,,,,,,,,,,,,,,,,,,,,,,,,,,,,,,,,,,,,,,,,,,,,,,,,,,,,,,,,,,,,,,,,,,,,,,,
,,669e3aceb62ce654ecaf410e,2026-03-17_10h26.59.475,kallum_motion_pilot_GIST_update_2,2026.1.1,MacIntel,59.52380952,669e3aceb62ce654ecaf410e,69b92ab4aef6dee357cd729a,69b92b4fbd40bd8f4ebd3312,0.0532,0.0532,1,70,232,79,1,eightseven,,,,,,,,,,,,,,,,,,,,,,,,,,,,,,,,,,,,,,,,,,,,,,,,,,,,,,,,,,,,,,,,,,,,,,,,,,,,,,,,,,,,,,,,,,,,,,,,,,,,,,,,,,,,,,,,,,,,,,,,,,,,,,,,,,,,,,,,,
,,669e3aceb62ce654ecaf410e,2026-03-17_10h26.59.475,kallum_motion_pilot_GIST_update_2,2026.1.1,MacIntel,59.52380952,669e3aceb62ce654ecaf410e,69b92ab4aef6dee357cd729a,69b92b4fbd40bd8f4ebd3312,0.0532,0.0532,1,71,233,62,1,fourtwo,,,,,,,,,,,,,,,,,,,,,,,,,,,,,,,,,,,,,,,,,,,,,,,,,,,,,,,,,,,,,,,,,,,,,,,,,,,,,,,,,,,,,,,,,,,,,,,,,,,,,,,,,,,,,,,,,,,,,,,,,,,,,,,,,,,,,,,,,
,,669e3aceb62ce654ecaf410e,2026-03-17_10h26.59.475,kallum_motion_pilot_GIST_update_2,2026.1.1,MacIntel,59.52380952,669e3aceb62ce654ecaf410e,69b92ab4aef6dee357cd729a,69b92b4fbd40bd8f4ebd3312,0.0534,0.0534,1,72,234,63,1,fourthree,,,,,,,,,,,,,,,,,,,,,,,,,,,,,,,,,,,,,,,,,,,,,,,,,,,,,,,,,,,,,,,,,,,,,,,,,,,,,,,,,,,,,,,,,,,,,,,,,,,,,,,,,,,,,,,,,,,,,,,,,,,,,,,,,,,,,,,,,
,,669e3aceb62ce654ecaf410e,2026-03-17_10h26.59.475,kallum_motion_pilot_GIST_update_2,2026.1.1,MacIntel,59.52380952,669e3aceb62ce654ecaf410e,69b92ab4aef6dee357cd729a,69b92b4fbd40bd8f4ebd3312,0.0535,0.0535,1,73,235,158,1,eightsix,,,,,,,,,,,,,,,,,,,,,,,,,,,,,,,,,,,,,,,,,,,,,,,,,,,,,,,,,,,,,,,,,,,,,,,,,,,,,,,,,,,,,,,,,,,,,,,,,,,,,,,,,,,,,,,,,,,,,,,,,,,,,,,,,,,,,,,,,
,,669e3aceb62ce654ecaf410e,2026-03-17_10h26.59.475,kallum_motion_pilot_GIST_update_2,2026.1.1,MacIntel,59.52380952,669e3aceb62ce654ecaf410e,69b92ab4aef6dee357cd729a,69b92b4fbd40bd8f4ebd3312,0.0537,0.0537,1,74,236,10,1,twoone,,,,,,,,,,,,,,,,,,,,,,,,,,,,,,,,,,,,,,,,,,,,,,,,,,,,,,,,,,,,,,,,,,,,,,,,,,,,,,,,,,,,,,,,,,,,,,,,,,,,,,,,,,,,,,,,,,,,,,,,,,,,,,,,,,,,,,,,,
,,669e3aceb62ce654ecaf410e,2026-03-17_10h26.59.475,kallum_motion_pilot_GIST_update_2,2026.1.1,MacIntel,59.52380952,669e3aceb62ce654ecaf410e,69b92ab4aef6dee357cd729a,69b92b4fbd40bd8f4ebd3312,0.0538,0.0538,1,75,237,73,1,onethree,,,,,,,,,,,,,,,,,,,,,,,,,,,,,,,,,,,,,,,,,,,,,,,,,,,,,,,,,,,,,,,,,,,,,,,,,,,,,,,,,,,,,,,,,,,,,,,,,,,,,,,,,,,,,,,,,,,,,,,,,,,,,,,,,,,,,,,,,
,,669e3aceb62ce654ecaf410e,2026-03-17_10h26.59.475,kallum_motion_pilot_GIST_update_2,2026.1.1,MacIntel,59.52380952,669e3aceb62ce654ecaf410e,69b92ab4aef6dee357cd729a,69b92b4fbd40bd8f4ebd3312,0.0539,0.0539,1,76,238,142,1,eightsix,,,,,,,,,,,,,,,,,,,,,,,,,,,,,,,,,,,,,,,,,,,,,,,,,,,,,,,,,,,,,,,,,,,,,,,,,,,,,,,,,,,,,,,,,,,,,,,,,,,,,,,,,,,,,,,,,,,,,,,,,,,,,,,,,,,,,,,,,
,,669e3aceb62ce654ecaf410e,2026-03-17_10h26.59.475,kallum_motion_pilot_GIST_update_2,2026.1.1,MacIntel,59.52380952,669e3aceb62ce654ecaf410e,69b92ab4aef6dee357cd729a,69b92b4fbd40bd8f4ebd3312,0.054,0.0541,1,77,239,2,1,twoone,,,,,,,,,,,,,,,,,,,,,,,,,,,,,,,,,,,,,,,,,,,,,,,,,,,,,,,,,,,,,,,,,,,,,,,,,,,,,,,,,,,,,,,,,,,,,,,,,,,,,,,,,,,,,,,,,,,,,,,,,,,,,,,,,,,,,,,,,
,,669e3aceb62ce654ecaf410e,2026-03-17_10h26.59.475,kallum_motion_pilot_GIST_update_2,2026.1.1,MacIntel,59.52380952,669e3aceb62ce654ecaf410e,69b92ab4aef6dee357cd729a,69b92b4fbd40bd8f4ebd3312,0.0542,0.0542,1,78,240,156,1,sevenfive,,,,,,,,,,,,,,,,,,,,,,,,,,,,,,,,,,,,,,,,,,,,,,,,,,,,,,,,,,,,,,,,,,,,,,,,,,,,,,,,,,,,,,,,,,,,,,,,,,,,,,,,,,,,,,,,,,,,,,,,,,,,,,,,,,,,,,,,,
,,669e3aceb62ce654ecaf410e,2026-03-17_10h26.59.475,kallum_motion_pilot_GIST_update_2,2026.1.1,MacIntel,59.52380952,669e3aceb62ce654ecaf410e,69b92ab4aef6dee357cd729a,69b92b4fbd40bd8f4ebd3312,0.0543,0.0543,1,79,241,24,1,onetwo,,,,,,,,,,,,,,,,,,,,,,,,,,,,,,,,,,,,,,,,,,,,,,,,,,,,,,,,,,,,,,,,,,,,,,,,,,,,,,,,,,,,,,,,,,,,,,,,,,,,,,,,,,,,,,,,,,,,,,,,,,,,,,,,,,,,,,,,,
,,669e3aceb62ce654ecaf410e,2026-03-17_10h26.59.475,kallum_motion_pilot_GIST_update_2,2026.1.1,MacIntel,59.52380952,669e3aceb62ce654ecaf410e,69b92ab4aef6dee357cd729a,69b92b4fbd40bd8f4ebd3312,0.0544,0.0544,1,80,242,45,1,threefour,,,,,,,,,,,,,,,,,,,,,,,,,,,,,,,,,,,,,,,,,,,,,,,,,,,,,,,,,,,,,,,,,,,,,,,,,,,,,,,,,,,,,,,,,,,,,,,,,,,,,,,,,,,,,,,,,,,,,,,,,,,,,,,,,,,,,,,,,
,,669e3aceb62ce654ecaf410e,2026-03-17_10h26.59.475,kallum_motion_pilot_GIST_update_2,2026.1.1,MacIntel,59.52380952,669e3aceb62ce654ecaf410e,69b92ab4aef6dee357cd729a,69b92b4fbd40bd8f4ebd3312,0.0546,0.0546,1,81,243,3,1,twofour,,,,,,,,,,,,,,,,,,,,,,,,,,,,,,,,,,,,,,,,,,,,,,,,,,,,,,,,,,,,,,,,,,,,,,,,,,,,,,,,,,,,,,,,,,,,,,,,,,,,,,,,,,,,,,,,,,,,,,,,,,,,,,,,,,,,,,,,,
,,669e3aceb62ce654ecaf410e,2026-03-17_10h26.59.475,kallum_motion_pilot_GIST_update_2,2026.1.1,MacIntel,59.52380952,669e3aceb62ce654ecaf410e,69b92ab4aef6dee357cd729a,69b92b4fbd40bd8f4ebd3312,0.0547,0.0547,1,82,244,107,1,sixeight,,,,,,,,,,,,,,,,,,,,,,,,,,,,,,,,,,,,,,,,,,,,,,,,,,,,,,,,,,,,,,,,,,,,,,,,,,,,,,,,,,,,,,,,,,,,,,,,,,,,,,,,,,,,,,,,,,,,,,,,,,,,,,,,,,,,,,,,,
,,669e3aceb62ce654ecaf410e,2026-03-17_10h26.59.475,kallum_motion_pilot_GIST_update_2,2026.1.1,MacIntel,59.52380952,669e3aceb62ce654ecaf410e,69b92ab4aef6dee357cd729a,69b92b4fbd40bd8f4ebd3312,0.0548,0.0548,1,83,245,105,1,fiveseven,,,,,,,,,,,,,,,,,,,,,,,,,,,,,,,,,,,,,,,,,,,,,,,,,,,,,,,,,,,,,,,,,,,,,,,,,,,,,,,,,,,,,,,,,,,,,,,,,,,,,,,,,,,,,,,,,,,,,,,,,,,,,,,,,,,,,,,,,
,,669e3aceb62ce654ecaf410e,2026-03-17_10h26.59.475,kallum_motion_pilot_GIST_update_2,2026.1.1,MacIntel,59.52380952,669e3aceb62ce654ecaf410e,69b92ab4aef6dee357cd729a,69b92b4fbd40bd8f4ebd3312,0.0549,0.055,1,84,246,102,1,eightsix,,,,,,,,,,,,,,,,,,,,,,,,,,,,,,,,,,,,,,,,,,,,,,,,,,,,,,,,,,,,,,,,,,,,,,,,,,,,,,,,,,,,,,,,,,,,,,,,,,,,,,,,,,,,,,,,,,,,,,,,,,,,,,,,,,,,,,,,,
,,669e3aceb62ce654ecaf410e,2026-03-17_10h26.59.475,kallum_motion_pilot_GIST_update_2,2026.1.1,MacIntel,59.52380952,669e3aceb62ce654ecaf410e,69b92ab4aef6dee357cd729a,69b92b4fbd40bd8f4ebd3312,0.0551,0.0551,1,85,247,32,1,onetwo,,,,,,,,,,,,,,,,,,,,,,,,,,,,,,,,,,,,,,,,,,,,,,,,,,,,,,,,,,,,,,,,,,,,,,,,,,,,,,,,,,,,,,,,,,,,,,,,,,,,,,,,,,,,,,,,,,,,,,,,,,,,,,,,,,,,,,,,,
,,669e3aceb62ce654ecaf410e,2026-03-17_10h26.59.475,kallum_motion_pilot_GIST_update_2,2026.1.1,MacIntel,59.52380952,669e3aceb62ce654ecaf410e,69b92ab4aef6dee357cd729a,69b92b4fbd40bd8f4ebd3312,0.0552,0.0552,1,86,248,126,1,eightsix,,,,,,,,,,,,,,,,,,,,,,,,,,,,,,,,,,,,,,,,,,,,,,,,,,,,,,,,,,,,,,,,,,,,,,,,,,,,,,,,,,,,,,,,,,,,,,,,,,,,,,,,,,,,,,,,,,,,,,,,,,,,,,,,,,,,,,,,,
,,669e3aceb62ce654ecaf410e,2026-03-17_10h26.59.475,kallum_motion_pilot_GIST_update_2,2026.1.1,MacIntel,59.52380952,669e3aceb62ce654ecaf410e,69b92ab4aef6dee357cd729a,69b92b4fbd40bd8f4ebd3312,0.0553,0.0553,1,87,249,83,1,sixeight,,,,,,,,,,,,,,,,,,,,,,,,,,,,,,,,,,,,,,,,,,,,,,,,,,,,,,,,,,,,,,,,,,,,,,,,,,,,,,,,,,,,,,,,,,,,,,,,,,,,,,,,,,,,,,,,,,,,,,,,,,,,,,,,,,,,,,,,,
,,669e3aceb62ce654ecaf410e,2026-03-17_10h26.59.475,kallum_motion_pilot_GIST_update_2,2026.1.1,MacIntel,59.52380952,669e3aceb62ce654ecaf410e,69b92ab4aef6dee357cd729a,69b92b4fbd40bd8f4ebd3312,0.0554,0.0554,1,88,250,88,1,fivesix,,,,,,,,,,,,,,,,,,,,,,,,,,,,,,,,,,,,,,,,,,,,,,,,,,,,,,,,,,,,,,,,,,,,,,,,,,,,,,,,,,,,,,,,,,,,,,,,,,,,,,,,,,,,,,,,,,,,,,,,,,,,,,,,,,,,,,,,,
,,669e3aceb62ce654ecaf410e,2026-03-17_10h26.59.475,kallum_motion_pilot_GIST_update_2,2026.1.1,MacIntel,59.52380952,669e3aceb62ce654ecaf410e,69b92ab4aef6dee357cd729a,69b92b4fbd40bd8f4ebd3312,0.0556,0.0556,1,89,251,37,1,threefour,,,,,,,,,,,,,,,,,,,,,,,,,,,,,,,,,,,,,,,,,,,,,,,,,,,,,,,,,,,,,,,,,,,,,,,,,,,,,,,,,,,,,,,,,,,,,,,,,,,,,,,,,,,,,,,,,,,,,,,,,,,,,,,,,,,,,,,,,
,,669e3aceb62ce654ecaf410e,2026-03-17_10h26.59.475,kallum_motion_pilot_GIST_update_2,2026.1.1,MacIntel,59.52380952,669e3aceb62ce654ecaf410e,69b92ab4aef6dee357cd729a,69b92b4fbd40bd8f4ebd3312,0.0557,0.0558,1,90,252,30,1,fourtwo,,,,,,,,,,,,,,,,,,,,,,,,,,,,,,,,,,,,,,,,,,,,,,,,,,,,,,,,,,,,,,,,,,,,,,,,,,,,,,,,,,,,,,,,,,,,,,,,,,,,,,,,,,,,,,,,,,,,,,,,,,,,,,,,,,,,,,,,,
,,669e3aceb62ce654ecaf410e,2026-03-17_10h26.59.475,kallum_motion_pilot_GIST_update_2,2026.1.1,MacIntel,59.52380952,669e3aceb62ce654ecaf410e,69b92ab4aef6dee357cd729a,69b92b4fbd40bd8f4ebd3312,0.0559,0.0559,1,91,253,90,1,sixfive,,,,,,,,,,,,,,,,,,,,,,,,,,,,,,,,,,,,,,,,,,,,,,,,,,,,,,,,,,,,,,,,,,,,,,,,,,,,,,,,,,,,,,,,,,,,,,,,,,,,,,,,,,,,,,,,,,,,,,,,,,,,,,,,,,,,,,,,,
,,669e3aceb62ce654ecaf410e,2026-03-17_10h26.59.475,kallum_motion_pilot_GIST_update_2,2026.1.1,MacIntel,59.52380952,669e3aceb62ce654ecaf410e,69b92ab4aef6dee357cd729a,69b92b4fbd40bd8f4ebd3312,0.056,0.056,1,92,254,11,1,twofour,,,,,,,,,,,,,,,,,,,,,,,,,,,,,,,,,,,,,,,,,,,,,,,,,,,,,,,,,,,,,,,,,,,,,,,,,,,,,,,,,,,,,,,,,,,,,,,,,,,,,,,,,,,,,,,,,,,,,,,,,,,,,,,,,,,,,,,,,
,,669e3aceb62ce654ecaf410e,2026-03-17_10h26.59.475,kallum_motion_pilot_GIST_update_2,2026.1.1,MacIntel,59.52380952,669e3aceb62ce654ecaf410e,69b92ab4aef6dee357cd729a,69b92b4fbd40bd8f4ebd3312,0.0562,0.0562,1,93,255,20,1,threeone,,,,,,,,,,,,,,,,,,,,,,,,,,,,,,,,,,,,,,,,,,,,,,,,,,,,,,,,,,,,,,,,,,,,,,,,,,,,,,,,,,,,,,,,,,,,,,,,,,,,,,,,,,,,,,,,,,,,,,,,,,,,,,,,,,,,,,,,,
,,669e3aceb62ce654ecaf410e,2026-03-17_10h26.59.475,kallum_motion_pilot_GIST_update_2,2026.1.1,MacIntel,59.52380952,669e3aceb62ce654ecaf410e,69b92ab4aef6dee357cd729a,69b92b4fbd40bd8f4ebd3312,0.0564,0.0564,1,94,256,147,1,sixeight,,,,,,,,,,,,,,,,,,,,,,,,,,,,,,,,,,,,,,,,,,,,,,,,,,,,,,,,,,,,,,,,,,,,,,,,,,,,,,,,,,,,,,,,,,,,,,,,,,,,,,,,,,,,,,,,,,,,,,,,,,,,,,,,,,,,,,,,,
,,669e3aceb62ce654ecaf410e,2026-03-17_10h26.59.475,kallum_motion_pilot_GIST_update_2,2026.1.1,MacIntel,59.52380952,669e3aceb62ce654ecaf410e,69b92ab4aef6dee357cd729a,69b92b4fbd40bd8f4ebd3312,0.0565,0.0565,1,95,257,52,1,threeone,,,,,,,,,,,,,,,,,,,,,,,,,,,,,,,,,,,,,,,,,,,,,,,,,,,,,,,,,,,,,,,,,,,,,,,,,,,,,,,,,,,,,,,,,,,,,,,,,,,,,,,,,,,,,,,,,,,,,,,,,,,,,,,,,,,,,,,,,
,,669e3aceb62ce654ecaf410e,2026-03-17_10h26.59.475,kallum_motion_pilot_GIST_update_2,2026.1.1,MacIntel,59.52380952,669e3aceb62ce654ecaf410e,69b92ab4aef6dee357cd729a,69b92b4fbd40bd8f4ebd3312,0.0566,0.0566,1,96,258,66,1,twoone,,,,,,,,,,,,,,,,,,,,,,,,,,,,,,,,,,,,,,,,,,,,,,,,,,,,,,,,,,,,,,,,,,,,,,,,,,,,,,,,,,,,,,,,,,,,,,,,,,,,,,,,,,,,,,,,,,,,,,,,,,,,,,,,,,,,,,,,,
,,669e3aceb62ce654ecaf410e,2026-03-17_10h26.59.475,kallum_motion_pilot_GIST_update_2,2026.1.1,MacIntel,59.52380952,669e3aceb62ce654ecaf410e,69b92ab4aef6dee357cd729a,69b92b4fbd40bd8f4ebd3312,0.0568,0.0568,1,97,259,23,1,fourthree,,,,,,,,,,,,,,,,,,,,,,,,,,,,,,,,,,,,,,,,,,,,,,,,,,,,,,,,,,,,,,,,,,,,,,,,,,,,,,,,,,,,,,,,,,,,,,,,,,,,,,,,,,,,,,,,,,,,,,,,,,,,,,,,,,,,,,,,,
,,669e3aceb62ce654ecaf410e,2026-03-17_10h26.59.475,kallum_motion_pilot_GIST_update_2,2026.1.1,MacIntel,59.52380952,669e3aceb62ce654ecaf410e,69b92ab4aef6dee357cd729a,69b92b4fbd40bd8f4ebd3312,0.0569,0.0569,1,98,260,110,1,eightsix,,,,,,,,,,,,,,,,,,,,,,,,,,,,,,,,,,,,,,,,,,,,,,,,,,,,,,,,,,,,,,,,,,,,,,,,,,,,,,,,,,,,,,,,,,,,,,,,,,,,,,,,,,,,,,,,,,,,,,,,,,,,,,,,,,,,,,,,,
,,669e3aceb62ce654ecaf410e,2026-03-17_10h26.59.475,kallum_motion_pilot_GIST_update_2,2026.1.1,MacIntel,59.52380952,669e3aceb62ce654ecaf410e,69b92ab4aef6dee357cd729a,69b92b4fbd40bd8f4ebd3312,0.057,0.057,1,99,261,121,1,fiveseven,,,,,,,,,,,,,,,,,,,,,,,,,,,,,,,,,,,,,,,,,,,,,,,,,,,,,,,,,,,,,,,,,,,,,,,,,,,,,,,,,,,,,,,,,,,,,,,,,,,,,,,,,,,,,,,,,,,,,,,,,,,,,,,,,,,,,,,,,
,,669e3aceb62ce654ecaf410e,2026-03-17_10h26.59.475,kallum_motion_pilot_GIST_update_2,2026.1.1,MacIntel,59.52380952,669e3aceb62ce654ecaf410e,69b92ab4aef6dee357cd729a,69b92b4fbd40bd8f4ebd3312,0.0571,0.0571,1,100,262,9,1,onethree,,,,,,,,,,,,,,,,,,,,,,,,,,,,,,,,,,,,,,,,,,,,,,,,,,,,,,,,,,,,,,,,,,,,,,,,,,,,,,,,,,,,,,,,,,,,,,,,,,,,,,,,,,,,,,,,,,,,,,,,,,,,,,,,,,,,,,,,,
,,669e3aceb62ce654ecaf410e,2026-03-17_10h26.59.475,kallum_motion_pilot_GIST_update_2,2026.1.1,MacIntel,59.52380952,669e3aceb62ce654ecaf410e,69b92ab4aef6dee357cd729a,69b92b4fbd40bd8f4ebd3312,0.0573,0.0573,1,101,263,77,1,threefour,,,,,,,,,,,,,,,,,,,,,,,,,,,,,,,,,,,,,,,,,,,,,,,,,,,,,,,,,,,,,,,,,,,,,,,,,,,,,,,,,,,,,,,,,,,,,,,,,,,,,,,,,,,,,,,,,,,,,,,,,,,,,,,,,,,,,,,,,
