startup.started,startup.stopped,Prolific ID*,date,expName,psychopyVersion,OS,frameRate,participant,study_id,session,stimpositions.started,stimpositions.stopped,hardcoded_stimulus_positions.thisRepN,hardcoded_stimulus_positions.thisTrialN,hardcoded_stimulus_positions.thisN,hardcoded_stimulus_positions.thisIndex,hardcoded_stimulus_positions.ran,StimulusPos,stimorientation.started,stimorientation.stopped,prac_stimorientation_import_loop.thisRepN,prac_stimorientation_import_loop.thisTrialN,prac_stimorientation_import_loop.thisN,prac_stimorientation_import_loop.thisIndex,prac_stimorientation_import_loop.ran,Stimorientation,welcome_instr.started,welcome_instr.stopped,key_resp.keys,key_resp.rt,key_resp.duration,response_steppedout_1.started,response_steppedout_1.stopped,key_resp_20.keys,key_resp_20.rt,key_resp_20.duration,response_steppedout_2.started,response_steppedout_2.stopped,key_resp_19.keys,key_resp_19.rt,key_resp_19.duration,stim_response_instr.started,stim_response_instr.stopped,key_resp_15.keys,key_resp_15.rt,key_resp_15.duration,direction_instr_2.started,direction_instr_2.stopped,key_resp_9.keys,key_resp_9.rt,key_resp_9.duration,instr_prac.started,instr_prac.stopped,key_resp_10.keys,key_resp_10.rt,key_resp_10.duration,Stim1_display_prac.started,Stim1_display_prac.stopped,Ecc,Circle1_ori,Circle2_ori,response_prac.started,similarity,response_time,response_prac.stopped,mouse_5.x,mouse_5.y,mouse_5.leftButton,mouse_5.midButton,mouse_5.rightButton,mouse_5.clicked_name,responseprac_feedback.started,responseprac_feedback.stopped,summary2_prac.started,summary2_prac.stopped,mouse_6.x,mouse_6.y,mouse_6.leftButton,mouse_6.midButton,mouse_6.rightButton,mouse_6.clicked_name,duringprac.thisRepN,duringprac.thisTrialN,duringprac.thisN,duringprac.thisIndex,duringprac.ran,begin.started,begin.stopped,key_resp_22.keys,key_resp_22.rt,key_resp_22.duration,Stim1_display.started,Stim1_display.stopped,circle1_ori,circle2_ori,circle1_SF,circle2_SF,response.started,response.stopped,mouse.x,mouse.y,mouse.leftButton,mouse.midButton,mouse.rightButton,mouse.clicked_name,trialnumber,double_pass.thisRepN,double_pass.thisTrialN,double_pass.thisN,double_pass.thisIndex,double_pass.ran,double_pass.order,main_trial.thisRepN,main_trial.thisTrialN,main_trial.thisN,main_trial.thisIndex,main_trial.ran,main_trial.order,Trial_Counter,Catch,Frequencies,response_2.started,response_2.stopped,mouse_2.x,mouse_2.y,mouse_2.leftButton,mouse_2.midButton,mouse_2.rightButton,mouse_2.clicked_name,special_trial.started,special_trial.stopped,catch_1.started,catch_1.stopped,mouse_3.x,mouse_3.y,mouse_3.leftButton,mouse_3.midButton,mouse_3.rightButton,catchresponse,catchnumber,response_time_catch,response_sum.started,response_sum.stopped,mouse_11.x,mouse_11.y,mouse_11.leftButton,mouse_11.midButton,mouse_11.rightButton,flip_presentation_sequence_for_double_pass.started,flip_presentation_sequence_for_double_pass.stopped,goodbye.started,goodbye.stopped,key_resp_3.keys,key_resp_3.rt,key_resp_3.duration
0.0033,0.0041,66a4fd0abda26954b4e43cc8,2026-03-17_12h25.35.296,kallum_motion_pilot_GIST_update_2,2026.1.1,Win32,57.80346821,66a4fd0abda26954b4e43cc8,69b92ab4aef6dee357cd729a,69b92bd1e4529e9a69379854,,,,,,,,,,,,,,,,,,,,,,,,,,,,,,,,,,,,,,,,,,,,,,,,,,,,,,,,,,,,,,,,,,,,,,,,,,,,,,,,,,,,,,,,,,,,,,,,,,,,,,,,,,,,,,,,,,,,,,,,,,,,,,,,,,,,,,,,,,,,,,,,,
,,66a4fd0abda26954b4e43cc8,2026-03-17_12h25.35.296,kallum_motion_pilot_GIST_update_2,2026.1.1,Win32,57.80346821,66a4fd0abda26954b4e43cc8,69b92ab4aef6dee357cd729a,69b92bd1e4529e9a69379854,0.1532,0.1536,0,0,0,141,1,seveneight,,,,,,,,,,,,,,,,,,,,,,,,,,,,,,,,,,,,,,,,,,,,,,,,,,,,,,,,,,,,,,,,,,,,,,,,,,,,,,,,,,,,,,,,,,,,,,,,,,,,,,,,,,,,,,,,,,,,,,,,,,,,,,,,,,,,,,,,,
,,66a4fd0abda26954b4e43cc8,2026-03-17_12h25.35.296,kallum_motion_pilot_GIST_update_2,2026.1.1,Win32,57.80346821,66a4fd0abda26954b4e43cc8,69b92ab4aef6dee357cd729a,69b92bd1e4529e9a69379854,0.1561,0.1562,0,1,1,58,1,twoone,,,,,,,,,,,,,,,,,,,,,,,,,,,,,,,,,,,,,,,,,,,,,,,,,,,,,,,,,,,,,,,,,,,,,,,,,,,,,,,,,,,,,,,,,,,,,,,,,,,,,,,,,,,,,,,,,,,,,,,,,,,,,,,,,,,,,,,,,
,,66a4fd0abda26954b4e43cc8,2026-03-17_12h25.35.296,kallum_motion_pilot_GIST_update_2,2026.1.1,Win32,57.80346821,66a4fd0abda26954b4e43cc8,69b92ab4aef6dee357cd729a,69b92bd1e4529e9a69379854,0.1571,0.1572,0,2,2,159,1,eightseven,,,,,,,,,,,,,,,,,,,,,,,,,,,,,,,,,,,,,,,,,,,,,,,,,,,,,,,,,,,,,,,,,,,,,,,,,,,,,,,,,,,,,,,,,,,,,,,,,,,,,,,,,,,,,,,,,,,,,,,,,,,,,,,,,,,,,,,,,
,,66a4fd0abda26954b4e43cc8,2026-03-17_12h25.35.296,kallum_motion_pilot_GIST_update_2,2026.1.1,Win32,57.80346821,66a4fd0abda26954b4e43cc8,69b92ab4aef6dee357cd729a,69b92bd1e4529e9a69379854,0.1581,0.1581,0,3,3,61,1,threefour,,,,,,,,,,,,,,,,,,,,,,,,,,,,,,,,,,,,,,,,,,,,,,,,,,,,,,,,,,,,,,,,,,,,,,,,,,,,,,,,,,,,,,,,,,,,,,,,,,,,,,,,,,,,,,,,,,,,,,,,,,,,,,,,,,,,,,,,,
,,66a4fd0abda26954b4e43cc8,2026-03-17_12h25.35.296,kallum_motion_pilot_GIST_update_2,2026.1.1,Win32,57.80346821,66a4fd0abda26954b4e43cc8,69b92ab4aef6dee357cd729a,69b92bd1e4529e9a69379854,0.1599,0.1599,0,4,4,10,1,twoone,,,,,,,,,,,,,,,,,,,,,,,,,,,,,,,,,,,,,,,,,,,,,,,,,,,,,,,,,,,,,,,,,,,,,,,,,,,,,,,,,,,,,,,,,,,,,,,,,,,,,,,,,,,,,,,,,,,,,,,,,,,,,,,,,,,,,,,,,
,,66a4fd0abda26954b4e43cc8,2026-03-17_12h25.35.296,kallum_motion_pilot_GIST_update_2,2026.1.1,Win32,57.80346821,66a4fd0abda26954b4e43cc8,69b92ab4aef6dee357cd729a,69b92bd1e4529e9a69379854,0.1607,0.1608,0,5,5,124,1,sevenfive,,,,,,,,,,,,,,,,,,,,,,,,,,,,,,,,,,,,,,,,,,,,,,,,,,,,,,,,,,,,,,,,,,,,,,,,,,,,,,,,,,,,,,,,,,,,,,,,,,,,,,,,,,,,,,,,,,,,,,,,,,,,,,,,,,,,,,,,,
,,66a4fd0abda26954b4e43cc8,2026-03-17_12h25.35.296,kallum_motion_pilot_GIST_update_2,2026.1.1,Win32,57.80346821,66a4fd0abda26954b4e43cc8,69b92ab4aef6dee357cd729a,69b92bd1e4529e9a69379854,0.1615,0.1616,0,6,6,7,1,fourthree,,,,,,,,,,,,,,,,,,,,,,,,,,,,,,,,,,,,,,,,,,,,,,,,,,,,,,,,,,,,,,,,,,,,,,,,,,,,,,,,,,,,,,,,,,,,,,,,,,,,,,,,,,,,,,,,,,,,,,,,,,,,,,,,,,,,,,,,,
,,66a4fd0abda26954b4e43cc8,2026-03-17_12h25.35.296,kallum_motion_pilot_GIST_update_2,2026.1.1,Win32,57.80346821,66a4fd0abda26954b4e43cc8,69b92ab4aef6dee357cd729a,69b92bd1e4529e9a69379854,0.1626,0.1627,0,7,7,20,1,threeone,,,,,,,,,,,,,,,,,,,,,,,,,,,,,,,,,,,,,,,,,,,,,,,,,,,,,,,,,,,,,,,,,,,,,,,,,,,,,,,,,,,,,,,,,,,,,,,,,,,,,,,,,,,,,,,,,,,,,,,,,,,,,,,,,,,,,,,,,
,,66a4fd0abda26954b4e43cc8,2026-03-17_12h25.35.296,kallum_motion_pilot_GIST_update_2,2026.1.1,Win32,57.80346821,66a4fd0abda26954b4e43cc8,69b92ab4aef6dee357cd729a,69b92bd1e4529e9a69379854,0.1643,0.1645,0,8,8,132,1,sevenfive,,,,,,,,,,,,,,,,,,,,,,,,,,,,,,,,,,,,,,,,,,,,,,,,,,,,,,,,,,,,,,,,,,,,,,,,,,,,,,,,,,,,,,,,,,,,,,,,,,,,,,,,,,,,,,,,,,,,,,,,,,,,,,,,,,,,,,,,,
,,66a4fd0abda26954b4e43cc8,2026-03-17_12h25.35.296,kallum_motion_pilot_GIST_update_2,2026.1.1,Win32,57.80346821,66a4fd0abda26954b4e43cc8,69b92ab4aef6dee357cd729a,69b92bd1e4529e9a69379854,0.1657,0.1658,0,9,9,102,1,eightsix,,,,,,,,,,,,,,,,,,,,,,,,,,,,,,,,,,,,,,,,,,,,,,,,,,,,,,,,,,,,,,,,,,,,,,,,,,,,,,,,,,,,,,,,,,,,,,,,,,,,,,,,,,,,,,,,,,,,,,,,,,,,,,,,,,,,,,,,,
,,66a4fd0abda26954b4e43cc8,2026-03-17_12h25.35.296,kallum_motion_pilot_GIST_update_2,2026.1.1,Win32,57.80346821,66a4fd0abda26954b4e43cc8,69b92ab4aef6dee357cd729a,69b92bd1e4529e9a69379854,0.1667,0.1667,0,10,10,115,1,sixeight,,,,,,,,,,,,,,,,,,,,,,,,,,,,,,,,,,,,,,,,,,,,,,,,,,,,,,,,,,,,,,,,,,,,,,,,,,,,,,,,,,,,,,,,,,,,,,,,,,,,,,,,,,,,,,,,,,,,,,,,,,,,,,,,,,,,,,,,,
,,66a4fd0abda26954b4e43cc8,2026-03-17_12h25.35.296,kallum_motion_pilot_GIST_update_2,2026.1.1,Win32,57.80346821,66a4fd0abda26954b4e43cc8,69b92ab4aef6dee357cd729a,69b92bd1e4529e9a69379854,0.1675,0.1675,0,11,11,33,1,onethree,,,,,,,,,,,,,,,,,,,,,,,,,,,,,,,,,,,,,,,,,,,,,,,,,,,,,,,,,,,,,,,,,,,,,,,,,,,,,,,,,,,,,,,,,,,,,,,,,,,,,,,,,,,,,,,,,,,,,,,,,,,,,,,,,,,,,,,,,
,,66a4fd0abda26954b4e43cc8,2026-03-17_12h25.35.296,kallum_motion_pilot_GIST_update_2,2026.1.1,Win32,57.80346821,66a4fd0abda26954b4e43cc8,69b92ab4aef6dee357cd729a,69b92bd1e4529e9a69379854,0.1687,0.1688,0,12,12,39,1,fourthree,,,,,,,,,,,,,,,,,,,,,,,,,,,,,,,,,,,,,,,,,,,,,,,,,,,,,,,,,,,,,,,,,,,,,,,,,,,,,,,,,,,,,,,,,,,,,,,,,,,,,,,,,,,,,,,,,,,,,,,,,,,,,,,,,,,,,,,,,
,,66a4fd0abda26954b4e43cc8,2026-03-17_12h25.35.296,kallum_motion_pilot_GIST_update_2,2026.1.1,Win32,57.80346821,66a4fd0abda26954b4e43cc8,69b92ab4aef6dee357cd729a,69b92bd1e4529e9a69379854,0.1708,0.1709,0,13,13,43,1,twofour,,,,,,,,,,,,,,,,,,,,,,,,,,,,,,,,,,,,,,,,,,,,,,,,,,,,,,,,,,,,,,,,,,,,,,,,,,,,,,,,,,,,,,,,,,,,,,,,,,,,,,,,,,,,,,,,,,,,,,,,,,,,,,,,,,,,,,,,,
,,66a4fd0abda26954b4e43cc8,2026-03-17_12h25.35.296,kallum_motion_pilot_GIST_update_2,2026.1.1,Win32,57.80346821,66a4fd0abda26954b4e43cc8,69b92ab4aef6dee357cd729a,69b92bd1e4529e9a69379854,0.1722,0.1722,0,14,14,71,1,fourthree,,,,,,,,,,,,,,,,,,,,,,,,,,,,,,,,,,,,,,,,,,,,,,,,,,,,,,,,,,,,,,,,,,,,,,,,,,,,,,,,,,,,,,,,,,,,,,,,,,,,,,,,,,,,,,,,,,,,,,,,,,,,,,,,,,,,,,,,,
,,66a4fd0abda26954b4e43cc8,2026-03-17_12h25.35.296,kallum_motion_pilot_GIST_update_2,2026.1.1,Win32,57.80346821,66a4fd0abda26954b4e43cc8,69b92ab4aef6dee357cd729a,69b92bd1e4529e9a69379854,0.1733,0.1734,0,15,15,95,1,eightseven,,,,,,,,,,,,,,,,,,,,,,,,,,,,,,,,,,,,,,,,,,,,,,,,,,,,,,,,,,,,,,,,,,,,,,,,,,,,,,,,,,,,,,,,,,,,,,,,,,,,,,,,,,,,,,,,,,,,,,,,,,,,,,,,,,,,,,,,,
,,66a4fd0abda26954b4e43cc8,2026-03-17_12h25.35.296,kallum_motion_pilot_GIST_update_2,2026.1.1,Win32,57.80346821,66a4fd0abda26954b4e43cc8,69b92ab4aef6dee357cd729a,69b92bd1e4529e9a69379854,0.1749,0.1763,0,16,16,29,1,threefour,,,,,,,,,,,,,,,,,,,,,,,,,,,,,,,,,,,,,,,,,,,,,,,,,,,,,,,,,,,,,,,,,,,,,,,,,,,,,,,,,,,,,,,,,,,,,,,,,,,,,,,,,,,,,,,,,,,,,,,,,,,,,,,,,,,,,,,,,
,,66a4fd0abda26954b4e43cc8,2026-03-17_12h25.35.296,kallum_motion_pilot_GIST_update_2,2026.1.1,Win32,57.80346821,66a4fd0abda26954b4e43cc8,69b92ab4aef6dee357cd729a,69b92bd1e4529e9a69379854,0.1774,0.1775,0,17,17,145,1,fiveseven,,,,,,,,,,,,,,,,,,,,,,,,,,,,,,,,,,,,,,,,,,,,,,,,,,,,,,,,,,,,,,,,,,,,,,,,,,,,,,,,,,,,,,,,,,,,,,,,,,,,,,,,,,,,,,,,,,,,,,,,,,,,,,,,,,,,,,,,,
,,66a4fd0abda26954b4e43cc8,2026-03-17_12h25.35.296,kallum_motion_pilot_GIST_update_2,2026.1.1,Win32,57.80346821,66a4fd0abda26954b4e43cc8,69b92ab4aef6dee357cd729a,69b92bd1e4529e9a69379854,0.1783,0.1783,0,18,18,133,1,seveneight,,,,,,,,,,,,,,,,,,,,,,,,,,,,,,,,,,,,,,,,,,,,,,,,,,,,,,,,,,,,,,,,,,,,,,,,,,,,,,,,,,,,,,,,,,,,,,,,,,,,,,,,,,,,,,,,,,,,,,,,,,,,,,,,,,,,,,,,,
,,66a4fd0abda26954b4e43cc8,2026-03-17_12h25.35.296,kallum_motion_pilot_GIST_update_2,2026.1.1,Win32,57.80346821,66a4fd0abda26954b4e43cc8,69b92ab4aef6dee357cd729a,69b92bd1e4529e9a69379854,0.1803,0.1804,0,19,19,0,1,onetwo,,,,,,,,,,,,,,,,,,,,,,,,,,,,,,,,,,,,,,,,,,,,,,,,,,,,,,,,,,,,,,,,,,,,,,,,,,,,,,,,,,,,,,,,,,,,,,,,,,,,,,,,,,,,,,,,,,,,,,,,,,,,,,,,,,,,,,,,,
,,66a4fd0abda26954b4e43cc8,2026-03-17_12h25.35.296,kallum_motion_pilot_GIST_update_2,2026.1.1,Win32,57.80346821,66a4fd0abda26954b4e43cc8,69b92ab4aef6dee357cd729a,69b92bd1e4529e9a69379854,0.1819,0.182,0,20,20,24,1,onetwo,,,,,,,,,,,,,,,,,,,,,,,,,,,,,,,,,,,,,,,,,,,,,,,,,,,,,,,,,,,,,,,,,,,,,,,,,,,,,,,,,,,,,,,,,,,,,,,,,,,,,,,,,,,,,,,,,,,,,,,,,,,,,,,,,,,,,,,,,
,,66a4fd0abda26954b4e43cc8,2026-03-17_12h25.35.296,kallum_motion_pilot_GIST_update_2,2026.1.1,Win32,57.80346821,66a4fd0abda26954b4e43cc8,69b92ab4aef6dee357cd729a,69b92bd1e4529e9a69379854,0.1833,0.1833,0,21,21,100,1,sevenfive,,,,,,,,,,,,,,,,,,,,,,,,,,,,,,,,,,,,,,,,,,,,,,,,,,,,,,,,,,,,,,,,,,,,,,,,,,,,,,,,,,,,,,,,,,,,,,,,,,,,,,,,,,,,,,,,,,,,,,,,,,,,,,,,,,,,,,,,,
,,66a4fd0abda26954b4e43cc8,2026-03-17_12h25.35.296,kallum_motion_pilot_GIST_update_2,2026.1.1,Win32,57.80346821,66a4fd0abda26954b4e43cc8,69b92ab4aef6dee357cd729a,69b92bd1e4529e9a69379854,0.1867,0.1867,0,22,22,157,1,seveneight,,,,,,,,,,,,,,,,,,,,,,,,,,,,,,,,,,,,,,,,,,,,,,,,,,,,,,,,,,,,,,,,,,,,,,,,,,,,,,,,,,,,,,,,,,,,,,,,,,,,,,,,,,,,,,,,,,,,,,,,,,,,,,,,,,,,,,,,,
,,66a4fd0abda26954b4e43cc8,2026-03-17_12h25.35.296,kallum_motion_pilot_GIST_update_2,2026.1.1,Win32,57.80346821,66a4fd0abda26954b4e43cc8,69b92ab4aef6dee357cd729a,69b92bd1e4529e9a69379854,0.188,0.188,0,23,23,148,1,sevenfive,,,,,,,,,,,,,,,,,,,,,,,,,,,,,,,,,,,,,,,,,,,,,,,,,,,,,,,,,,,,,,,,,,,,,,,,,,,,,,,,,,,,,,,,,,,,,,,,,,,,,,,,,,,,,,,,,,,,,,,,,,,,,,,,,,,,,,,,,
,,66a4fd0abda26954b4e43cc8,2026-03-17_12h25.35.296,kallum_motion_pilot_GIST_update_2,2026.1.1,Win32,57.80346821,66a4fd0abda26954b4e43cc8,69b92ab4aef6dee357cd729a,69b92bd1e4529e9a69379854,0.1894,0.1894,0,24,24,21,1,threefour,,,,,,,,,,,,,,,,,,,,,,,,,,,,,,,,,,,,,,,,,,,,,,,,,,,,,,,,,,,,,,,,,,,,,,,,,,,,,,,,,,,,,,,,,,,,,,,,,,,,,,,,,,,,,,,,,,,,,,,,,,,,,,,,,,,,,,,,,
,,66a4fd0abda26954b4e43cc8,2026-03-17_12h25.35.296,kallum_motion_pilot_GIST_update_2,2026.1.1,Win32,57.80346821,66a4fd0abda26954b4e43cc8,69b92ab4aef6dee357cd729a,69b92bd1e4529e9a69379854,0.1982,0.1983,0,25,25,151,1,eightseven,,,,,,,,,,,,,,,,,,,,,,,,,,,,,,,,,,,,,,,,,,,,,,,,,,,,,,,,,,,,,,,,,,,,,,,,,,,,,,,,,,,,,,,,,,,,,,,,,,,,,,,,,,,,,,,,,,,,,,,,,,,,,,,,,,,,,,,,,
,,66a4fd0abda26954b4e43cc8,2026-03-17_12h25.35.296,kallum_motion_pilot_GIST_update_2,2026.1.1,Win32,57.80346821,66a4fd0abda26954b4e43cc8,69b92ab4aef6dee357cd729a,69b92bd1e4529e9a69379854,0.1996,0.1997,0,26,26,108,1,sevenfive,,,,,,,,,,,,,,,,,,,,,,,,,,,,,,,,,,,,,,,,,,,,,,,,,,,,,,,,,,,,,,,,,,,,,,,,,,,,,,,,,,,,,,,,,,,,,,,,,,,,,,,,,,,,,,,,,,,,,,,,,,,,,,,,,,,,,,,,,
,,66a4fd0abda26954b4e43cc8,2026-03-17_12h25.35.296,kallum_motion_pilot_GIST_update_2,2026.1.1,Win32,57.80346821,66a4fd0abda26954b4e43cc8,69b92ab4aef6dee357cd729a,69b92bd1e4529e9a69379854,0.2009,0.201,0,27,27,50,1,twoone,,,,,,,,,,,,,,,,,,,,,,,,,,,,,,,,,,,,,,,,,,,,,,,,,,,,,,,,,,,,,,,,,,,,,,,,,,,,,,,,,,,,,,,,,,,,,,,,,,,,,,,,,,,,,,,,,,,,,,,,,,,,,,,,,,,,,,,,,
,,66a4fd0abda26954b4e43cc8,2026-03-17_12h25.35.296,kallum_motion_pilot_GIST_update_2,2026.1.1,Win32,57.80346821,66a4fd0abda26954b4e43cc8,69b92ab4aef6dee357cd729a,69b92bd1e4529e9a69379854,0.2023,0.2023,0,28,28,136,1,fivesix,,,,,,,,,,,,,,,,,,,,,,,,,,,,,,,,,,,,,,,,,,,,,,,,,,,,,,,,,,,,,,,,,,,,,,,,,,,,,,,,,,,,,,,,,,,,,,,,,,,,,,,,,,,,,,,,,,,,,,,,,,,,,,,,,,,,,,,,,
,,66a4fd0abda26954b4e43cc8,2026-03-17_12h25.35.296,kallum_motion_pilot_GIST_update_2,2026.1.1,Win32,57.80346821,66a4fd0abda26954b4e43cc8,69b92ab4aef6dee357cd729a,69b92bd1e4529e9a69379854,0.2036,0.2054,0,29,29,93,1,seveneight,,,,,,,,,,,,,,,,,,,,,,,,,,,,,,,,,,,,,,,,,,,,,,,,,,,,,,,,,,,,,,,,,,,,,,,,,,,,,,,,,,,,,,,,,,,,,,,,,,,,,,,,,,,,,,,,,,,,,,,,,,,,,,,,,,,,,,,,,
,,66a4fd0abda26954b4e43cc8,2026-03-17_12h25.35.296,kallum_motion_pilot_GIST_update_2,2026.1.1,Win32,57.80346821,66a4fd0abda26954b4e43cc8,69b92ab4aef6dee357cd729a,69b92bd1e4529e9a69379854,0.2073,0.2074,0,30,30,142,1,eightsix,,,,,,,,,,,,,,,,,,,,,,,,,,,,,,,,,,,,,,,,,,,,,,,,,,,,,,,,,,,,,,,,,,,,,,,,,,,,,,,,,,,,,,,,,,,,,,,,,,,,,,,,,,,,,,,,,,,,,,,,,,,,,,,,,,,,,,,,,
,,66a4fd0abda26954b4e43cc8,2026-03-17_12h25.35.296,kallum_motion_pilot_GIST_update_2,2026.1.1,Win32,57.80346821,66a4fd0abda26954b4e43cc8,69b92ab4aef6dee357cd729a,69b92bd1e4529e9a69379854,0.2102,0.2103,0,31,31,57,1,onethree,,,,,,,,,,,,,,,,,,,,,,,,,,,,,,,,,,,,,,,,,,,,,,,,,,,,,,,,,,,,,,,,,,,,,,,,,,,,,,,,,,,,,,,,,,,,,,,,,,,,,,,,,,,,,,,,,,,,,,,,,,,,,,,,,,,,,,,,,
,,66a4fd0abda26954b4e43cc8,2026-03-17_12h25.35.296,kallum_motion_pilot_GIST_update_2,2026.1.1,Win32,57.80346821,66a4fd0abda26954b4e43cc8,69b92ab4aef6dee357cd729a,69b92bd1e4529e9a69379854,0.2117,0.2118,0,32,32,84,1,sevenfive,,,,,,,,,,,,,,,,,,,,,,,,,,,,,,,,,,,,,,,,,,,,,,,,,,,,,,,,,,,,,,,,,,,,,,,,,,,,,,,,,,,,,,,,,,,,,,,,,,,,,,,,,,,,,,,,,,,,,,,,,,,,,,,,,,,,,,,,,
,,66a4fd0abda26954b4e43cc8,2026-03-17_12h25.35.296,kallum_motion_pilot_GIST_update_2,2026.1.1,Win32,57.80346821,66a4fd0abda26954b4e43cc8,69b92ab4aef6dee357cd729a,69b92bd1e4529e9a69379854,0.2131,0.2131,0,33,33,36,1,threeone,,,,,,,,,,,,,,,,,,,,,,,,,,,,,,,,,,,,,,,,,,,,,,,,,,,,,,,,,,,,,,,,,,,,,,,,,,,,,,,,,,,,,,,,,,,,,,,,,,,,,,,,,,,,,,,,,,,,,,,,,,,,,,,,,,,,,,,,,
,,66a4fd0abda26954b4e43cc8,2026-03-17_12h25.35.296,kallum_motion_pilot_GIST_update_2,2026.1.1,Win32,57.80346821,66a4fd0abda26954b4e43cc8,69b92ab4aef6dee357cd729a,69b92bd1e4529e9a69379854,0.2159,0.216,0,34,34,1,1,onethree,,,,,,,,,,,,,,,,,,,,,,,,,,,,,,,,,,,,,,,,,,,,,,,,,,,,,,,,,,,,,,,,,,,,,,,,,,,,,,,,,,,,,,,,,,,,,,,,,,,,,,,,,,,,,,,,,,,,,,,,,,,,,,,,,,,,,,,,,
,,66a4fd0abda26954b4e43cc8,2026-03-17_12h25.35.296,kallum_motion_pilot_GIST_update_2,2026.1.1,Win32,57.80346821,66a4fd0abda26954b4e43cc8,69b92ab4aef6dee357cd729a,69b92bd1e4529e9a69379854,0.2171,0.2171,0,35,35,114,1,sixfive,,,,,,,,,,,,,,,,,,,,,,,,,,,,,,,,,,,,,,,,,,,,,,,,,,,,,,,,,,,,,,,,,,,,,,,,,,,,,,,,,,,,,,,,,,,,,,,,,,,,,,,,,,,,,,,,,,,,,,,,,,,,,,,,,,,,,,,,,
,,66a4fd0abda26954b4e43cc8,2026-03-17_12h25.35.296,kallum_motion_pilot_GIST_update_2,2026.1.1,Win32,57.80346821,66a4fd0abda26954b4e43cc8,69b92ab4aef6dee357cd729a,69b92bd1e4529e9a69379854,0.2181,0.2182,0,36,36,88,1,fivesix,,,,,,,,,,,,,,,,,,,,,,,,,,,,,,,,,,,,,,,,,,,,,,,,,,,,,,,,,,,,,,,,,,,,,,,,,,,,,,,,,,,,,,,,,,,,,,,,,,,,,,,,,,,,,,,,,,,,,,,,,,,,,,,,,,,,,,,,,
,,66a4fd0abda26954b4e43cc8,2026-03-17_12h25.35.296,kallum_motion_pilot_GIST_update_2,2026.1.1,Win32,57.80346821,66a4fd0abda26954b4e43cc8,69b92ab4aef6dee357cd729a,69b92bd1e4529e9a69379854,0.2189,0.219,0,37,37,81,1,fiveseven,,,,,,,,,,,,,,,,,,,,,,,,,,,,,,,,,,,,,,,,,,,,,,,,,,,,,,,,,,,,,,,,,,,,,,,,,,,,,,,,,,,,,,,,,,,,,,,,,,,,,,,,,,,,,,,,,,,,,,,,,,,,,,,,,,,,,,,,,
,,66a4fd0abda26954b4e43cc8,2026-03-17_12h25.35.296,kallum_motion_pilot_GIST_update_2,2026.1.1,Win32,57.80346821,66a4fd0abda26954b4e43cc8,69b92ab4aef6dee357cd729a,69b92bd1e4529e9a69379854,0.2198,0.2198,0,38,38,59,1,twofour,,,,,,,,,,,,,,,,,,,,,,,,,,,,,,,,,,,,,,,,,,,,,,,,,,,,,,,,,,,,,,,,,,,,,,,,,,,,,,,,,,,,,,,,,,,,,,,,,,,,,,,,,,,,,,,,,,,,,,,,,,,,,,,,,,,,,,,,,
,,66a4fd0abda26954b4e43cc8,2026-03-17_12h25.35.296,kallum_motion_pilot_GIST_update_2,2026.1.1,Win32,57.80346821,66a4fd0abda26954b4e43cc8,69b92ab4aef6dee357cd729a,69b92bd1e4529e9a69379854,0.2205,0.2206,0,39,39,98,1,sixfive,,,,,,,,,,,,,,,,,,,,,,,,,,,,,,,,,,,,,,,,,,,,,,,,,,,,,,,,,,,,,,,,,,,,,,,,,,,,,,,,,,,,,,,,,,,,,,,,,,,,,,,,,,,,,,,,,,,,,,,,,,,,,,,,,,,,,,,,,
,,66a4fd0abda26954b4e43cc8,2026-03-17_12h25.35.296,kallum_motion_pilot_GIST_update_2,2026.1.1,Win32,57.80346821,66a4fd0abda26954b4e43cc8,69b92ab4aef6dee357cd729a,69b92bd1e4529e9a69379854,0.2213,0.2213,0,40,40,15,1,fourthree,,,,,,,,,,,,,,,,,,,,,,,,,,,,,,,,,,,,,,,,,,,,,,,,,,,,,,,,,,,,,,,,,,,,,,,,,,,,,,,,,,,,,,,,,,,,,,,,,,,,,,,,,,,,,,,,,,,,,,,,,,,,,,,,,,,,,,,,,
,,66a4fd0abda26954b4e43cc8,2026-03-17_12h25.35.296,kallum_motion_pilot_GIST_update_2,2026.1.1,Win32,57.80346821,66a4fd0abda26954b4e43cc8,69b92ab4aef6dee357cd729a,69b92bd1e4529e9a69379854,0.2219,0.2221,0,41,41,150,1,eightsix,,,,,,,,,,,,,,,,,,,,,,,,,,,,,,,,,,,,,,,,,,,,,,,,,,,,,,,,,,,,,,,,,,,,,,,,,,,,,,,,,,,,,,,,,,,,,,,,,,,,,,,,,,,,,,,,,,,,,,,,,,,,,,,,,,,,,,,,,
,,66a4fd0abda26954b4e43cc8,2026-03-17_12h25.35.296,kallum_motion_pilot_GIST_update_2,2026.1.1,Win32,57.80346821,66a4fd0abda26954b4e43cc8,69b92ab4aef6dee357cd729a,69b92bd1e4529e9a69379854,0.2232,0.2233,0,42,42,97,1,fiveseven,,,,,,,,,,,,,,,,,,,,,,,,,,,,,,,,,,,,,,,,,,,,,,,,,,,,,,,,,,,,,,,,,,,,,,,,,,,,,,,,,,,,,,,,,,,,,,,,,,,,,,,,,,,,,,,,,,,,,,,,,,,,,,,,,,,,,,,,,
,,66a4fd0abda26954b4e43cc8,2026-03-17_12h25.35.296,kallum_motion_pilot_GIST_update_2,2026.1.1,Win32,57.80346821,66a4fd0abda26954b4e43cc8,69b92ab4aef6dee357cd729a,69b92bd1e4529e9a69379854,0.2315,0.2316,0,43,43,38,1,fourtwo,,,,,,,,,,,,,,,,,,,,,,,,,,,,,,,,,,,,,,,,,,,,,,,,,,,,,,,,,,,,,,,,,,,,,,,,,,,,,,,,,,,,,,,,,,,,,,,,,,,,,,,,,,,,,,,,,,,,,,,,,,,,,,,,,,,,,,,,,
,,66a4fd0abda26954b4e43cc8,2026-03-17_12h25.35.296,kallum_motion_pilot_GIST_update_2,2026.1.1,Win32,57.80346821,66a4fd0abda26954b4e43cc8,69b92ab4aef6dee357cd729a,69b92bd1e4529e9a69379854,0.2331,0.2332,0,44,44,66,1,twoone,,,,,,,,,,,,,,,,,,,,,,,,,,,,,,,,,,,,,,,,,,,,,,,,,,,,,,,,,,,,,,,,,,,,,,,,,,,,,,,,,,,,,,,,,,,,,,,,,,,,,,,,,,,,,,,,,,,,,,,,,,,,,,,,,,,,,,,,,
,,66a4fd0abda26954b4e43cc8,2026-03-17_12h25.35.296,kallum_motion_pilot_GIST_update_2,2026.1.1,Win32,57.80346821,66a4fd0abda26954b4e43cc8,69b92ab4aef6dee357cd729a,69b92bd1e4529e9a69379854,0.2349,0.2349,0,45,45,22,1,fourtwo,,,,,,,,,,,,,,,,,,,,,,,,,,,,,,,,,,,,,,,,,,,,,,,,,,,,,,,,,,,,,,,,,,,,,,,,,,,,,,,,,,,,,,,,,,,,,,,,,,,,,,,,,,,,,,,,,,,,,,,,,,,,,,,,,,,,,,,,,
,,66a4fd0abda26954b4e43cc8,2026-03-17_12h25.35.296,kallum_motion_pilot_GIST_update_2,2026.1.1,Win32,57.80346821,66a4fd0abda26954b4e43cc8,69b92ab4aef6dee357cd729a,69b92bd1e4529e9a69379854,0.2369,0.237,0,46,46,73,1,onethree,,,,,,,,,,,,,,,,,,,,,,,,,,,,,,,,,,,,,,,,,,,,,,,,,,,,,,,,,,,,,,,,,,,,,,,,,,,,,,,,,,,,,,,,,,,,,,,,,,,,,,,,,,,,,,,,,,,,,,,,,,,,,,,,,,,,,,,,,
,,66a4fd0abda26954b4e43cc8,2026-03-17_12h25.35.296,kallum_motion_pilot_GIST_update_2,2026.1.1,Win32,57.80346821,66a4fd0abda26954b4e43cc8,69b92ab4aef6dee357cd729a,69b92bd1e4529e9a69379854,0.2381,0.2382,0,47,47,135,1,eightseven,,,,,,,,,,,,,,,,,,,,,,,,,,,,,,,,,,,,,,,,,,,,,,,,,,,,,,,,,,,,,,,,,,,,,,,,,,,,,,,,,,,,,,,,,,,,,,,,,,,,,,,,,,,,,,,,,,,,,,,,,,,,,,,,,,,,,,,,,
,,66a4fd0abda26954b4e43cc8,2026-03-17_12h25.35.296,kallum_motion_pilot_GIST_update_2,2026.1.1,Win32,57.80346821,66a4fd0abda26954b4e43cc8,69b92ab4aef6dee357cd729a,69b92bd1e4529e9a69379854,0.239,0.2392,0,48,48,2,1,twoone,,,,,,,,,,,,,,,,,,,,,,,,,,,,,,,,,,,,,,,,,,,,,,,,,,,,,,,,,,,,,,,,,,,,,,,,,,,,,,,,,,,,,,,,,,,,,,,,,,,,,,,,,,,,,,,,,,,,,,,,,,,,,,,,,,,,,,,,,
,,66a4fd0abda26954b4e43cc8,2026-03-17_12h25.35.296,kallum_motion_pilot_GIST_update_2,2026.1.1,Win32,57.80346821,66a4fd0abda26954b4e43cc8,69b92ab4aef6dee357cd729a,69b92bd1e4529e9a69379854,0.2406,0.2406,0,49,49,70,1,fourtwo,,,,,,,,,,,,,,,,,,,,,,,,,,,,,,,,,,,,,,,,,,,,,,,,,,,,,,,,,,,,,,,,,,,,,,,,,,,,,,,,,,,,,,,,,,,,,,,,,,,,,,,,,,,,,,,,,,,,,,,,,,,,,,,,,,,,,,,,,
,,66a4fd0abda26954b4e43cc8,2026-03-17_12h25.35.296,kallum_motion_pilot_GIST_update_2,2026.1.1,Win32,57.80346821,66a4fd0abda26954b4e43cc8,69b92ab4aef6dee357cd729a,69b92bd1e4529e9a69379854,0.2432,0.2434,0,50,50,92,1,sevenfive,,,,,,,,,,,,,,,,,,,,,,,,,,,,,,,,,,,,,,,,,,,,,,,,,,,,,,,,,,,,,,,,,,,,,,,,,,,,,,,,,,,,,,,,,,,,,,,,,,,,,,,,,,,,,,,,,,,,,,,,,,,,,,,,,,,,,,,,,
,,66a4fd0abda26954b4e43cc8,2026-03-17_12h25.35.296,kallum_motion_pilot_GIST_update_2,2026.1.1,Win32,57.80346821,66a4fd0abda26954b4e43cc8,69b92ab4aef6dee357cd729a,69b92bd1e4529e9a69379854,0.2461,0.2462,0,51,51,137,1,fiveseven,,,,,,,,,,,,,,,,,,,,,,,,,,,,,,,,,,,,,,,,,,,,,,,,,,,,,,,,,,,,,,,,,,,,,,,,,,,,,,,,,,,,,,,,,,,,,,,,,,,,,,,,,,,,,,,,,,,,,,,,,,,,,,,,,,,,,,,,,
,,66a4fd0abda26954b4e43cc8,2026-03-17_12h25.35.296,kallum_motion_pilot_GIST_update_2,2026.1.1,Win32,57.80346821,66a4fd0abda26954b4e43cc8,69b92ab4aef6dee357cd729a,69b92bd1e4529e9a69379854,0.2471,0.2472,0,52,52,153,1,fiveseven,,,,,,,,,,,,,,,,,,,,,,,,,,,,,,,,,,,,,,,,,,,,,,,,,,,,,,,,,,,,,,,,,,,,,,,,,,,,,,,,,,,,,,,,,,,,,,,,,,,,,,,,,,,,,,,,,,,,,,,,,,,,,,,,,,,,,,,,,
,,66a4fd0abda26954b4e43cc8,2026-03-17_12h25.35.296,kallum_motion_pilot_GIST_update_2,2026.1.1,Win32,57.80346821,66a4fd0abda26954b4e43cc8,69b92ab4aef6dee357cd729a,69b92bd1e4529e9a69379854,0.2488,0.2488,0,53,53,152,1,fivesix,,,,,,,,,,,,,,,,,,,,,,,,,,,,,,,,,,,,,,,,,,,,,,,,,,,,,,,,,,,,,,,,,,,,,,,,,,,,,,,,,,,,,,,,,,,,,,,,,,,,,,,,,,,,,,,,,,,,,,,,,,,,,,,,,,,,,,,,,
,,66a4fd0abda26954b4e43cc8,2026-03-17_12h25.35.296,kallum_motion_pilot_GIST_update_2,2026.1.1,Win32,57.80346821,66a4fd0abda26954b4e43cc8,69b92ab4aef6dee357cd729a,69b92bd1e4529e9a69379854,0.2502,0.2502,0,54,54,4,1,threeone,,,,,,,,,,,,,,,,,,,,,,,,,,,,,,,,,,,,,,,,,,,,,,,,,,,,,,,,,,,,,,,,,,,,,,,,,,,,,,,,,,,,,,,,,,,,,,,,,,,,,,,,,,,,,,,,,,,,,,,,,,,,,,,,,,,,,,,,,
,,66a4fd0abda26954b4e43cc8,2026-03-17_12h25.35.296,kallum_motion_pilot_GIST_update_2,2026.1.1,Win32,57.80346821,66a4fd0abda26954b4e43cc8,69b92ab4aef6dee357cd729a,69b92bd1e4529e9a69379854,0.2516,0.2517,0,55,55,65,1,onethree,,,,,,,,,,,,,,,,,,,,,,,,,,,,,,,,,,,,,,,,,,,,,,,,,,,,,,,,,,,,,,,,,,,,,,,,,,,,,,,,,,,,,,,,,,,,,,,,,,,,,,,,,,,,,,,,,,,,,,,,,,,,,,,,,,,,,,,,,
,,66a4fd0abda26954b4e43cc8,2026-03-17_12h25.35.296,kallum_motion_pilot_GIST_update_2,2026.1.1,Win32,57.80346821,66a4fd0abda26954b4e43cc8,69b92ab4aef6dee357cd729a,69b92bd1e4529e9a69379854,0.2529,0.253,0,56,56,86,1,eightsix,,,,,,,,,,,,,,,,,,,,,,,,,,,,,,,,,,,,,,,,,,,,,,,,,,,,,,,,,,,,,,,,,,,,,,,,,,,,,,,,,,,,,,,,,,,,,,,,,,,,,,,,,,,,,,,,,,,,,,,,,,,,,,,,,,,,,,,,,
,,66a4fd0abda26954b4e43cc8,2026-03-17_12h25.35.296,kallum_motion_pilot_GIST_update_2,2026.1.1,Win32,57.80346821,66a4fd0abda26954b4e43cc8,69b92ab4aef6dee357cd729a,69b92bd1e4529e9a69379854,0.2548,0.2548,0,57,57,44,1,threeone,,,,,,,,,,,,,,,,,,,,,,,,,,,,,,,,,,,,,,,,,,,,,,,,,,,,,,,,,,,,,,,,,,,,,,,,,,,,,,,,,,,,,,,,,,,,,,,,,,,,,,,,,,,,,,,,,,,,,,,,,,,,,,,,,,,,,,,,,
,,66a4fd0abda26954b4e43cc8,2026-03-17_12h25.35.296,kallum_motion_pilot_GIST_update_2,2026.1.1,Win32,57.80346821,66a4fd0abda26954b4e43cc8,69b92ab4aef6dee357cd729a,69b92bd1e4529e9a69379854,0.2577,0.2581,0,58,58,18,1,twoone,,,,,,,,,,,,,,,,,,,,,,,,,,,,,,,,,,,,,,,,,,,,,,,,,,,,,,,,,,,,,,,,,,,,,,,,,,,,,,,,,,,,,,,,,,,,,,,,,,,,,,,,,,,,,,,,,,,,,,,,,,,,,,,,,,,,,,,,,
,,66a4fd0abda26954b4e43cc8,2026-03-17_12h25.35.296,kallum_motion_pilot_GIST_update_2,2026.1.1,Win32,57.80346821,66a4fd0abda26954b4e43cc8,69b92ab4aef6dee357cd729a,69b92bd1e4529e9a69379854,0.2671,0.2672,0,59,59,41,1,onethree,,,,,,,,,,,,,,,,,,,,,,,,,,,,,,,,,,,,,,,,,,,,,,,,,,,,,,,,,,,,,,,,,,,,,,,,,,,,,,,,,,,,,,,,,,,,,,,,,,,,,,,,,,,,,,,,,,,,,,,,,,,,,,,,,,,,,,,,,
,,66a4fd0abda26954b4e43cc8,2026-03-17_12h25.35.296,kallum_motion_pilot_GIST_update_2,2026.1.1,Win32,57.80346821,66a4fd0abda26954b4e43cc8,69b92ab4aef6dee357cd729a,69b92bd1e4529e9a69379854,0.2686,0.2687,0,60,60,129,1,fiveseven,,,,,,,,,,,,,,,,,,,,,,,,,,,,,,,,,,,,,,,,,,,,,,,,,,,,,,,,,,,,,,,,,,,,,,,,,,,,,,,,,,,,,,,,,,,,,,,,,,,,,,,,,,,,,,,,,,,,,,,,,,,,,,,,,,,,,,,,,
,,66a4fd0abda26954b4e43cc8,2026-03-17_12h25.35.296,kallum_motion_pilot_GIST_update_2,2026.1.1,Win32,57.80346821,66a4fd0abda26954b4e43cc8,69b92ab4aef6dee357cd729a,69b92bd1e4529e9a69379854,0.2702,0.2702,0,61,61,104,1,fivesix,,,,,,,,,,,,,,,,,,,,,,,,,,,,,,,,,,,,,,,,,,,,,,,,,,,,,,,,,,,,,,,,,,,,,,,,,,,,,,,,,,,,,,,,,,,,,,,,,,,,,,,,,,,,,,,,,,,,,,,,,,,,,,,,,,,,,,,,,
,,66a4fd0abda26954b4e43cc8,2026-03-17_12h25.35.296,kallum_motion_pilot_GIST_update_2,2026.1.1,Win32,57.80346821,66a4fd0abda26954b4e43cc8,69b92ab4aef6dee357cd729a,69b92bd1e4529e9a69379854,0.2724,0.2725,0,62,62,116,1,sevenfive,,,,,,,,,,,,,,,,,,,,,,,,,,,,,,,,,,,,,,,,,,,,,,,,,,,,,,,,,,,,,,,,,,,,,,,,,,,,,,,,,,,,,,,,,,,,,,,,,,,,,,,,,,,,,,,,,,,,,,,,,,,,,,,,,,,,,,,,,
,,66a4fd0abda26954b4e43cc8,2026-03-17_12h25.35.296,kallum_motion_pilot_GIST_update_2,2026.1.1,Win32,57.80346821,66a4fd0abda26954b4e43cc8,69b92ab4aef6dee357cd729a,69b92bd1e4529e9a69379854,0.2798,0.2798,0,63,63,158,1,eightsix,,,,,,,,,,,,,,,,,,,,,,,,,,,,,,,,,,,,,,,,,,,,,,,,,,,,,,,,,,,,,,,,,,,,,,,,,,,,,,,,,,,,,,,,,,,,,,,,,,,,,,,,,,,,,,,,,,,,,,,,,,,,,,,,,,,,,,,,,
,,66a4fd0abda26954b4e43cc8,2026-03-17_12h25.35.296,kallum_motion_pilot_GIST_update_2,2026.1.1,Win32,57.80346821,66a4fd0abda26954b4e43cc8,69b92ab4aef6dee357cd729a,69b92bd1e4529e9a69379854,0.2807,0.2809,0,64,64,56,1,onetwo,,,,,,,,,,,,,,,,,,,,,,,,,,,,,,,,,,,,,,,,,,,,,,,,,,,,,,,,,,,,,,,,,,,,,,,,,,,,,,,,,,,,,,,,,,,,,,,,,,,,,,,,,,,,,,,,,,,,,,,,,,,,,,,,,,,,,,,,,
,,66a4fd0abda26954b4e43cc8,2026-03-17_12h25.35.296,kallum_motion_pilot_GIST_update_2,2026.1.1,Win32,57.80346821,66a4fd0abda26954b4e43cc8,69b92ab4aef6dee357cd729a,69b92bd1e4529e9a69379854,0.2824,0.2826,0,65,65,128,1,fivesix,,,,,,,,,,,,,,,,,,,,,,,,,,,,,,,,,,,,,,,,,,,,,,,,,,,,,,,,,,,,,,,,,,,,,,,,,,,,,,,,,,,,,,,,,,,,,,,,,,,,,,,,,,,,,,,,,,,,,,,,,,,,,,,,,,,,,,,,,
,,66a4fd0abda26954b4e43cc8,2026-03-17_12h25.35.296,kallum_motion_pilot_GIST_update_2,2026.1.1,Win32,57.80346821,66a4fd0abda26954b4e43cc8,69b92ab4aef6dee357cd729a,69b92bd1e4529e9a69379854,0.2836,0.2836,0,66,66,60,1,threeone,,,,,,,,,,,,,,,,,,,,,,,,,,,,,,,,,,,,,,,,,,,,,,,,,,,,,,,,,,,,,,,,,,,,,,,,,,,,,,,,,,,,,,,,,,,,,,,,,,,,,,,,,,,,,,,,,,,,,,,,,,,,,,,,,,,,,,,,,
,,66a4fd0abda26954b4e43cc8,2026-03-17_12h25.35.296,kallum_motion_pilot_GIST_update_2,2026.1.1,Win32,57.80346821,66a4fd0abda26954b4e43cc8,69b92ab4aef6dee357cd729a,69b92bd1e4529e9a69379854,0.2851,0.2853,0,67,67,52,1,threeone,,,,,,,,,,,,,,,,,,,,,,,,,,,,,,,,,,,,,,,,,,,,,,,,,,,,,,,,,,,,,,,,,,,,,,,,,,,,,,,,,,,,,,,,,,,,,,,,,,,,,,,,,,,,,,,,,,,,,,,,,,,,,,,,,,,,,,,,,
,,66a4fd0abda26954b4e43cc8,2026-03-17_12h25.35.296,kallum_motion_pilot_GIST_update_2,2026.1.1,Win32,57.80346821,66a4fd0abda26954b4e43cc8,69b92ab4aef6dee357cd729a,69b92bd1e4529e9a69379854,0.2873,0.2875,0,68,68,54,1,fourtwo,,,,,,,,,,,,,,,,,,,,,,,,,,,,,,,,,,,,,,,,,,,,,,,,,,,,,,,,,,,,,,,,,,,,,,,,,,,,,,,,,,,,,,,,,,,,,,,,,,,,,,,,,,,,,,,,,,,,,,,,,,,,,,,,,,,,,,,,,
,,66a4fd0abda26954b4e43cc8,2026-03-17_12h25.35.296,kallum_motion_pilot_GIST_update_2,2026.1.1,Win32,57.80346821,66a4fd0abda26954b4e43cc8,69b92ab4aef6dee357cd729a,69b92bd1e4529e9a69379854,0.2891,0.2892,0,69,69,53,1,threefour,,,,,,,,,,,,,,,,,,,,,,,,,,,,,,,,,,,,,,,,,,,,,,,,,,,,,,,,,,,,,,,,,,,,,,,,,,,,,,,,,,,,,,,,,,,,,,,,,,,,,,,,,,,,,,,,,,,,,,,,,,,,,,,,,,,,,,,,,
,,66a4fd0abda26954b4e43cc8,2026-03-17_12h25.35.296,kallum_motion_pilot_GIST_update_2,2026.1.1,Win32,57.80346821,66a4fd0abda26954b4e43cc8,69b92ab4aef6dee357cd729a,69b92bd1e4529e9a69379854,0.2906,0.2907,0,70,70,55,1,fourthree,,,,,,,,,,,,,,,,,,,,,,,,,,,,,,,,,,,,,,,,,,,,,,,,,,,,,,,,,,,,,,,,,,,,,,,,,,,,,,,,,,,,,,,,,,,,,,,,,,,,,,,,,,,,,,,,,,,,,,,,,,,,,,,,,,,,,,,,,
,,66a4fd0abda26954b4e43cc8,2026-03-17_12h25.35.296,kallum_motion_pilot_GIST_update_2,2026.1.1,Win32,57.80346821,66a4fd0abda26954b4e43cc8,69b92ab4aef6dee357cd729a,69b92bd1e4529e9a69379854,0.2934,0.2935,0,71,71,105,1,fiveseven,,,,,,,,,,,,,,,,,,,,,,,,,,,,,,,,,,,,,,,,,,,,,,,,,,,,,,,,,,,,,,,,,,,,,,,,,,,,,,,,,,,,,,,,,,,,,,,,,,,,,,,,,,,,,,,,,,,,,,,,,,,,,,,,,,,,,,,,,
,,66a4fd0abda26954b4e43cc8,2026-03-17_12h25.35.296,kallum_motion_pilot_GIST_update_2,2026.1.1,Win32,57.80346821,66a4fd0abda26954b4e43cc8,69b92ab4aef6dee357cd729a,69b92bd1e4529e9a69379854,0.2969,0.2969,0,72,72,138,1,sixfive,,,,,,,,,,,,,,,,,,,,,,,,,,,,,,,,,,,,,,,,,,,,,,,,,,,,,,,,,,,,,,,,,,,,,,,,,,,,,,,,,,,,,,,,,,,,,,,,,,,,,,,,,,,,,,,,,,,,,,,,,,,,,,,,,,,,,,,,,
,,66a4fd0abda26954b4e43cc8,2026-03-17_12h25.35.296,kallum_motion_pilot_GIST_update_2,2026.1.1,Win32,57.80346821,66a4fd0abda26954b4e43cc8,69b92ab4aef6dee357cd729a,69b92bd1e4529e9a69379854,0.2982,0.2983,0,73,73,83,1,sixeight,,,,,,,,,,,,,,,,,,,,,,,,,,,,,,,,,,,,,,,,,,,,,,,,,,,,,,,,,,,,,,,,,,,,,,,,,,,,,,,,,,,,,,,,,,,,,,,,,,,,,,,,,,,,,,,,,,,,,,,,,,,,,,,,,,,,,,,,,
,,66a4fd0abda26954b4e43cc8,2026-03-17_12h25.35.296,kallum_motion_pilot_GIST_update_2,2026.1.1,Win32,57.80346821,66a4fd0abda26954b4e43cc8,69b92ab4aef6dee357cd729a,69b92bd1e4529e9a69379854,0.2996,0.2996,0,74,74,80,1,fivesix,,,,,,,,,,,,,,,,,,,,,,,,,,,,,,,,,,,,,,,,,,,,,,,,,,,,,,,,,,,,,,,,,,,,,,,,,,,,,,,,,,,,,,,,,,,,,,,,,,,,,,,,,,,,,,,,,,,,,,,,,,,,,,,,,,,,,,,,,
,,66a4fd0abda26954b4e43cc8,2026-03-17_12h25.35.296,kallum_motion_pilot_GIST_update_2,2026.1.1,Win32,57.80346821,66a4fd0abda26954b4e43cc8,69b92ab4aef6dee357cd729a,69b92bd1e4529e9a69379854,0.3008,0.301,0,75,75,134,1,eightsix,,,,,,,,,,,,,,,,,,,,,,,,,,,,,,,,,,,,,,,,,,,,,,,,,,,,,,,,,,,,,,,,,,,,,,,,,,,,,,,,,,,,,,,,,,,,,,,,,,,,,,,,,,,,,,,,,,,,,,,,,,,,,,,,,,,,,,,,,
,,66a4fd0abda26954b4e43cc8,2026-03-17_12h25.35.296,kallum_motion_pilot_GIST_update_2,2026.1.1,Win32,57.80346821,66a4fd0abda26954b4e43cc8,69b92ab4aef6dee357cd729a,69b92bd1e4529e9a69379854,0.303,0.303,0,76,76,118,1,eightsix,,,,,,,,,,,,,,,,,,,,,,,,,,,,,,,,,,,,,,,,,,,,,,,,,,,,,,,,,,,,,,,,,,,,,,,,,,,,,,,,,,,,,,,,,,,,,,,,,,,,,,,,,,,,,,,,,,,,,,,,,,,,,,,,,,,,,,,,,
,,66a4fd0abda26954b4e43cc8,2026-03-17_12h25.35.296,kallum_motion_pilot_GIST_update_2,2026.1.1,Win32,57.80346821,66a4fd0abda26954b4e43cc8,69b92ab4aef6dee357cd729a,69b92bd1e4529e9a69379854,0.3064,0.3066,0,77,77,46,1,fourtwo,,,,,,,,,,,,,,,,,,,,,,,,,,,,,,,,,,,,,,,,,,,,,,,,,,,,,,,,,,,,,,,,,,,,,,,,,,,,,,,,,,,,,,,,,,,,,,,,,,,,,,,,,,,,,,,,,,,,,,,,,,,,,,,,,,,,,,,,,
,,66a4fd0abda26954b4e43cc8,2026-03-17_12h25.35.296,kallum_motion_pilot_GIST_update_2,2026.1.1,Win32,57.80346821,66a4fd0abda26954b4e43cc8,69b92ab4aef6dee357cd729a,69b92bd1e4529e9a69379854,0.3079,0.308,0,78,78,16,1,onetwo,,,,,,,,,,,,,,,,,,,,,,,,,,,,,,,,,,,,,,,,,,,,,,,,,,,,,,,,,,,,,,,,,,,,,,,,,,,,,,,,,,,,,,,,,,,,,,,,,,,,,,,,,,,,,,,,,,,,,,,,,,,,,,,,,,,,,,,,,
,,66a4fd0abda26954b4e43cc8,2026-03-17_12h25.35.296,kallum_motion_pilot_GIST_update_2,2026.1.1,Win32,57.80346821,66a4fd0abda26954b4e43cc8,69b92ab4aef6dee357cd729a,69b92bd1e4529e9a69379854,0.3108,0.3108,0,79,79,30,1,fourtwo,,,,,,,,,,,,,,,,,,,,,,,,,,,,,,,,,,,,,,,,,,,,,,,,,,,,,,,,,,,,,,,,,,,,,,,,,,,,,,,,,,,,,,,,,,,,,,,,,,,,,,,,,,,,,,,,,,,,,,,,,,,,,,,,,,,,,,,,,
,,66a4fd0abda26954b4e43cc8,2026-03-17_12h25.35.296,kallum_motion_pilot_GIST_update_2,2026.1.1,Win32,57.80346821,66a4fd0abda26954b4e43cc8,69b92ab4aef6dee357cd729a,69b92bd1e4529e9a69379854,0.3123,0.3123,0,80,80,79,1,eightseven,,,,,,,,,,,,,,,,,,,,,,,,,,,,,,,,,,,,,,,,,,,,,,,,,,,,,,,,,,,,,,,,,,,,,,,,,,,,,,,,,,,,,,,,,,,,,,,,,,,,,,,,,,,,,,,,,,,,,,,,,,,,,,,,,,,,,,,,,
,,66a4fd0abda26954b4e43cc8,2026-03-17_12h25.35.296,kallum_motion_pilot_GIST_update_2,2026.1.1,Win32,57.80346821,66a4fd0abda26954b4e43cc8,69b92ab4aef6dee357cd729a,69b92bd1e4529e9a69379854,0.3157,0.3158,0,81,81,90,1,sixfive,,,,,,,,,,,,,,,,,,,,,,,,,,,,,,,,,,,,,,,,,,,,,,,,,,,,,,,,,,,,,,,,,,,,,,,,,,,,,,,,,,,,,,,,,,,,,,,,,,,,,,,,,,,,,,,,,,,,,,,,,,,,,,,,,,,,,,,,,
,,66a4fd0abda26954b4e43cc8,2026-03-17_12h25.35.296,kallum_motion_pilot_GIST_update_2,2026.1.1,Win32,57.80346821,66a4fd0abda26954b4e43cc8,69b92ab4aef6dee357cd729a,69b92bd1e4529e9a69379854,0.3168,0.3169,0,82,82,96,1,fivesix,,,,,,,,,,,,,,,,,,,,,,,,,,,,,,,,,,,,,,,,,,,,,,,,,,,,,,,,,,,,,,,,,,,,,,,,,,,,,,,,,,,,,,,,,,,,,,,,,,,,,,,,,,,,,,,,,,,,,,,,,,,,,,,,,,,,,,,,,
,,66a4fd0abda26954b4e43cc8,2026-03-17_12h25.35.296,kallum_motion_pilot_GIST_update_2,2026.1.1,Win32,57.80346821,66a4fd0abda26954b4e43cc8,69b92ab4aef6dee357cd729a,69b92bd1e4529e9a69379854,0.3181,0.3181,0,83,83,156,1,sevenfive,,,,,,,,,,,,,,,,,,,,,,,,,,,,,,,,,,,,,,,,,,,,,,,,,,,,,,,,,,,,,,,,,,,,,,,,,,,,,,,,,,,,,,,,,,,,,,,,,,,,,,,,,,,,,,,,,,,,,,,,,,,,,,,,,,,,,,,,,
,,66a4fd0abda26954b4e43cc8,2026-03-17_12h25.35.296,kallum_motion_pilot_GIST_update_2,2026.1.1,Win32,57.80346821,66a4fd0abda26954b4e43cc8,69b92ab4aef6dee357cd729a,69b92bd1e4529e9a69379854,0.3192,0.3193,0,84,84,106,1,sixfive,,,,,,,,,,,,,,,,,,,,,,,,,,,,,,,,,,,,,,,,,,,,,,,,,,,,,,,,,,,,,,,,,,,,,,,,,,,,,,,,,,,,,,,,,,,,,,,,,,,,,,,,,,,,,,,,,,,,,,,,,,,,,,,,,,,,,,,,,
,,66a4fd0abda26954b4e43cc8,2026-03-17_12h25.35.296,kallum_motion_pilot_GIST_update_2,2026.1.1,Win32,57.80346821,66a4fd0abda26954b4e43cc8,69b92ab4aef6dee357cd729a,69b92bd1e4529e9a69379854,0.3203,0.3204,0,85,85,27,1,twofour,,,,,,,,,,,,,,,,,,,,,,,,,,,,,,,,,,,,,,,,,,,,,,,,,,,,,,,,,,,,,,,,,,,,,,,,,,,,,,,,,,,,,,,,,,,,,,,,,,,,,,,,,,,,,,,,,,,,,,,,,,,,,,,,,,,,,,,,,
,,66a4fd0abda26954b4e43cc8,2026-03-17_12h25.35.296,kallum_motion_pilot_GIST_update_2,2026.1.1,Win32,57.80346821,66a4fd0abda26954b4e43cc8,69b92ab4aef6dee357cd729a,69b92bd1e4529e9a69379854,0.3214,0.3214,0,86,86,85,1,seveneight,,,,,,,,,,,,,,,,,,,,,,,,,,,,,,,,,,,,,,,,,,,,,,,,,,,,,,,,,,,,,,,,,,,,,,,,,,,,,,,,,,,,,,,,,,,,,,,,,,,,,,,,,,,,,,,,,,,,,,,,,,,,,,,,,,,,,,,,,
,,66a4fd0abda26954b4e43cc8,2026-03-17_12h25.35.296,kallum_motion_pilot_GIST_update_2,2026.1.1,Win32,57.80346821,66a4fd0abda26954b4e43cc8,69b92ab4aef6dee357cd729a,69b92bd1e4529e9a69379854,0.3222,0.3223,0,87,87,47,1,fourthree,,,,,,,,,,,,,,,,,,,,,,,,,,,,,,,,,,,,,,,,,,,,,,,,,,,,,,,,,,,,,,,,,,,,,,,,,,,,,,,,,,,,,,,,,,,,,,,,,,,,,,,,,,,,,,,,,,,,,,,,,,,,,,,,,,,,,,,,,
,,66a4fd0abda26954b4e43cc8,2026-03-17_12h25.35.296,kallum_motion_pilot_GIST_update_2,2026.1.1,Win32,57.80346821,66a4fd0abda26954b4e43cc8,69b92ab4aef6dee357cd729a,69b92bd1e4529e9a69379854,0.3232,0.3232,0,88,88,78,1,fourtwo,,,,,,,,,,,,,,,,,,,,,,,,,,,,,,,,,,,,,,,,,,,,,,,,,,,,,,,,,,,,,,,,,,,,,,,,,,,,,,,,,,,,,,,,,,,,,,,,,,,,,,,,,,,,,,,,,,,,,,,,,,,,,,,,,,,,,,,,,
,,66a4fd0abda26954b4e43cc8,2026-03-17_12h25.35.296,kallum_motion_pilot_GIST_update_2,2026.1.1,Win32,57.80346821,66a4fd0abda26954b4e43cc8,69b92ab4aef6dee357cd729a,69b92bd1e4529e9a69379854,0.3244,0.3245,0,89,89,31,1,fourthree,,,,,,,,,,,,,,,,,,,,,,,,,,,,,,,,,,,,,,,,,,,,,,,,,,,,,,,,,,,,,,,,,,,,,,,,,,,,,,,,,,,,,,,,,,,,,,,,,,,,,,,,,,,,,,,,,,,,,,,,,,,,,,,,,,,,,,,,,
,,66a4fd0abda26954b4e43cc8,2026-03-17_12h25.35.296,kallum_motion_pilot_GIST_update_2,2026.1.1,Win32,57.80346821,66a4fd0abda26954b4e43cc8,69b92ab4aef6dee357cd729a,69b92bd1e4529e9a69379854,0.3266,0.3268,0,90,90,107,1,sixeight,,,,,,,,,,,,,,,,,,,,,,,,,,,,,,,,,,,,,,,,,,,,,,,,,,,,,,,,,,,,,,,,,,,,,,,,,,,,,,,,,,,,,,,,,,,,,,,,,,,,,,,,,,,,,,,,,,,,,,,,,,,,,,,,,,,,,,,,,
,,66a4fd0abda26954b4e43cc8,2026-03-17_12h25.35.296,kallum_motion_pilot_GIST_update_2,2026.1.1,Win32,57.80346821,66a4fd0abda26954b4e43cc8,69b92ab4aef6dee357cd729a,69b92bd1e4529e9a69379854,0.3277,0.3277,0,91,91,127,1,eightseven,,,,,,,,,,,,,,,,,,,,,,,,,,,,,,,,,,,,,,,,,,,,,,,,,,,,,,,,,,,,,,,,,,,,,,,,,,,,,,,,,,,,,,,,,,,,,,,,,,,,,,,,,,,,,,,,,,,,,,,,,,,,,,,,,,,,,,,,,
,,66a4fd0abda26954b4e43cc8,2026-03-17_12h25.35.296,kallum_motion_pilot_GIST_update_2,2026.1.1,Win32,57.80346821,66a4fd0abda26954b4e43cc8,69b92ab4aef6dee357cd729a,69b92bd1e4529e9a69379854,0.3285,0.3286,0,92,92,130,1,sixfive,,,,,,,,,,,,,,,,,,,,,,,,,,,,,,,,,,,,,,,,,,,,,,,,,,,,,,,,,,,,,,,,,,,,,,,,,,,,,,,,,,,,,,,,,,,,,,,,,,,,,,,,,,,,,,,,,,,,,,,,,,,,,,,,,,,,,,,,,
,,66a4fd0abda26954b4e43cc8,2026-03-17_12h25.35.296,kallum_motion_pilot_GIST_update_2,2026.1.1,Win32,57.80346821,66a4fd0abda26954b4e43cc8,69b92ab4aef6dee357cd729a,69b92bd1e4529e9a69379854,0.3293,0.3294,0,93,93,3,1,twofour,,,,,,,,,,,,,,,,,,,,,,,,,,,,,,,,,,,,,,,,,,,,,,,,,,,,,,,,,,,,,,,,,,,,,,,,,,,,,,,,,,,,,,,,,,,,,,,,,,,,,,,,,,,,,,,,,,,,,,,,,,,,,,,,,,,,,,,,,
,,66a4fd0abda26954b4e43cc8,2026-03-17_12h25.35.296,kallum_motion_pilot_GIST_update_2,2026.1.1,Win32,57.80346821,66a4fd0abda26954b4e43cc8,69b92ab4aef6dee357cd729a,69b92bd1e4529e9a69379854,0.3303,0.3304,0,94,94,143,1,eightseven,,,,,,,,,,,,,,,,,,,,,,,,,,,,,,,,,,,,,,,,,,,,,,,,,,,,,,,,,,,,,,,,,,,,,,,,,,,,,,,,,,,,,,,,,,,,,,,,,,,,,,,,,,,,,,,,,,,,,,,,,,,,,,,,,,,,,,,,,
,,66a4fd0abda26954b4e43cc8,2026-03-17_12h25.35.296,kallum_motion_pilot_GIST_update_2,2026.1.1,Win32,57.80346821,66a4fd0abda26954b4e43cc8,69b92ab4aef6dee357cd729a,69b92bd1e4529e9a69379854,0.3313,0.3313,0,95,95,32,1,onetwo,,,,,,,,,,,,,,,,,,,,,,,,,,,,,,,,,,,,,,,,,,,,,,,,,,,,,,,,,,,,,,,,,,,,,,,,,,,,,,,,,,,,,,,,,,,,,,,,,,,,,,,,,,,,,,,,,,,,,,,,,,,,,,,,,,,,,,,,,
,,66a4fd0abda26954b4e43cc8,2026-03-17_12h25.35.296,kallum_motion_pilot_GIST_update_2,2026.1.1,Win32,57.80346821,66a4fd0abda26954b4e43cc8,69b92ab4aef6dee357cd729a,69b92bd1e4529e9a69379854,0.3321,0.3321,0,96,96,110,1,eightsix,,,,,,,,,,,,,,,,,,,,,,,,,,,,,,,,,,,,,,,,,,,,,,,,,,,,,,,,,,,,,,,,,,,,,,,,,,,,,,,,,,,,,,,,,,,,,,,,,,,,,,,,,,,,,,,,,,,,,,,,,,,,,,,,,,,,,,,,,
,,66a4fd0abda26954b4e43cc8,2026-03-17_12h25.35.296,kallum_motion_pilot_GIST_update_2,2026.1.1,Win32,57.80346821,66a4fd0abda26954b4e43cc8,69b92ab4aef6dee357cd729a,69b92bd1e4529e9a69379854,0.3334,0.3339,0,97,97,149,1,seveneight,,,,,,,,,,,,,,,,,,,,,,,,,,,,,,,,,,,,,,,,,,,,,,,,,,,,,,,,,,,,,,,,,,,,,,,,,,,,,,,,,,,,,,,,,,,,,,,,,,,,,,,,,,,,,,,,,,,,,,,,,,,,,,,,,,,,,,,,,
,,66a4fd0abda26954b4e43cc8,2026-03-17_12h25.35.296,kallum_motion_pilot_GIST_update_2,2026.1.1,Win32,57.80346821,66a4fd0abda26954b4e43cc8,69b92ab4aef6dee357cd729a,69b92bd1e4529e9a69379854,0.3358,0.3359,0,98,98,49,1,onethree,,,,,,,,,,,,,,,,,,,,,,,,,,,,,,,,,,,,,,,,,,,,,,,,,,,,,,,,,,,,,,,,,,,,,,,,,,,,,,,,,,,,,,,,,,,,,,,,,,,,,,,,,,,,,,,,,,,,,,,,,,,,,,,,,,,,,,,,,
,,66a4fd0abda26954b4e43cc8,2026-03-17_12h25.35.296,kallum_motion_pilot_GIST_update_2,2026.1.1,Win32,57.80346821,66a4fd0abda26954b4e43cc8,69b92ab4aef6dee357cd729a,69b92bd1e4529e9a69379854,0.3375,0.3376,0,99,99,19,1,twofour,,,,,,,,,,,,,,,,,,,,,,,,,,,,,,,,,,,,,,,,,,,,,,,,,,,,,,,,,,,,,,,,,,,,,,,,,,,,,,,,,,,,,,,,,,,,,,,,,,,,,,,,,,,,,,,,,,,,,,,,,,,,,,,,,,,,,,,,,
,,66a4fd0abda26954b4e43cc8,2026-03-17_12h25.35.296,kallum_motion_pilot_GIST_update_2,2026.1.1,Win32,57.80346821,66a4fd0abda26954b4e43cc8,69b92ab4aef6dee357cd729a,69b92bd1e4529e9a69379854,0.3396,0.3396,0,100,100,139,1,sixeight,,,,,,,,,,,,,,,,,,,,,,,,,,,,,,,,,,,,,,,,,,,,,,,,,,,,,,,,,,,,,,,,,,,,,,,,,,,,,,,,,,,,,,,,,,,,,,,,,,,,,,,,,,,,,,,,,,,,,,,,,,,,,,,,,,,,,,,,,
,,66a4fd0abda26954b4e43cc8,2026-03-17_12h25.35.296,kallum_motion_pilot_GIST_update_2,2026.1.1,Win32,57.80346821,66a4fd0abda26954b4e43cc8,69b92ab4aef6dee357cd729a,69b92bd1e4529e9a69379854,0.3412,0.3413,0,101,101,155,1,sixeight,,,,,,,,,,,,,,,,,,,,,,,,,,,,,,,,,,,,,,,,,,,,,,,,,,,,,,,,,,,,,,,,,,,,,,,,,,,,,,,,,,,,,,,,,,,,,,,,,,,,,,,,,,,,,,,,,,,,,,,,,,,,,,,,,,,,,,,,,
,,66a4fd0abda26954b4e43cc8,2026-03-17_12h25.35.296,kallum_motion_pilot_GIST_update_2,2026.1.1,Win32,57.80346821,66a4fd0abda26954b4e43cc8,69b92ab4aef6dee357cd729a,69b92bd1e4529e9a69379854,0.3432,0.3432,0,102,102,48,1,onetwo,,,,,,,,,,,,,,,,,,,,,,,,,,,,,,,,,,,,,,,,,,,,,,,,,,,,,,,,,,,,,,,,,,,,,,,,,,,,,,,,,,,,,,,,,,,,,,,,,,,,,,,,,,,,,,,,,,,,,,,,,,,,,,,,,,,,,,,,,
,,66a4fd0abda26954b4e43cc8,2026-03-17_12h25.35.296,kallum_motion_pilot_GIST_update_2,2026.1.1,Win32,57.80346821,66a4fd0abda26954b4e43cc8,69b92ab4aef6dee357cd729a,69b92bd1e4529e9a69379854,0.345,0.345,0,103,103,120,1,fivesix,,,,,,,,,,,,,,,,,,,,,,,,,,,,,,,,,,,,,,,,,,,,,,,,,,,,,,,,,,,,,,,,,,,,,,,,,,,,,,,,,,,,,,,,,,,,,,,,,,,,,,,,,,,,,,,,,,,,,,,,,,,,,,,,,,,,,,,,,
,,66a4fd0abda26954b4e43cc8,2026-03-17_12h25.35.296,kallum_motion_pilot_GIST_update_2,2026.1.1,Win32,57.80346821,66a4fd0abda26954b4e43cc8,69b92ab4aef6dee357cd729a,69b92bd1e4529e9a69379854,0.3469,0.3469,0,104,104,91,1,sixeight,,,,,,,,,,,,,,,,,,,,,,,,,,,,,,,,,,,,,,,,,,,,,,,,,,,,,,,,,,,,,,,,,,,,,,,,,,,,,,,,,,,,,,,,,,,,,,,,,,,,,,,,,,,,,,,,,,,,,,,,,,,,,,,,,,,,,,,,,
,,66a4fd0abda26954b4e43cc8,2026-03-17_12h25.35.296,kallum_motion_pilot_GIST_update_2,2026.1.1,Win32,57.80346821,66a4fd0abda26954b4e43cc8,69b92ab4aef6dee357cd729a,69b92bd1e4529e9a69379854,0.3483,0.3483,0,105,105,147,1,sixeight,,,,,,,,,,,,,,,,,,,,,,,,,,,,,,,,,,,,,,,,,,,,,,,,,,,,,,,,,,,,,,,,,,,,,,,,,,,,,,,,,,,,,,,,,,,,,,,,,,,,,,,,,,,,,,,,,,,,,,,,,,,,,,,,,,,,,,,,,
,,66a4fd0abda26954b4e43cc8,2026-03-17_12h25.35.296,kallum_motion_pilot_GIST_update_2,2026.1.1,Win32,57.80346821,66a4fd0abda26954b4e43cc8,69b92ab4aef6dee357cd729a,69b92bd1e4529e9a69379854,0.3493,0.3494,0,106,106,113,1,fiveseven,,,,,,,,,,,,,,,,,,,,,,,,,,,,,,,,,,,,,,,,,,,,,,,,,,,,,,,,,,,,,,,,,,,,,,,,,,,,,,,,,,,,,,,,,,,,,,,,,,,,,,,,,,,,,,,,,,,,,,,,,,,,,,,,,,,,,,,,,
,,66a4fd0abda26954b4e43cc8,2026-03-17_12h25.35.296,kallum_motion_pilot_GIST_update_2,2026.1.1,Win32,57.80346821,66a4fd0abda26954b4e43cc8,69b92ab4aef6dee357cd729a,69b92bd1e4529e9a69379854,0.35,0.3502,0,107,107,123,1,sixeight,,,,,,,,,,,,,,,,,,,,,,,,,,,,,,,,,,,,,,,,,,,,,,,,,,,,,,,,,,,,,,,,,,,,,,,,,,,,,,,,,,,,,,,,,,,,,,,,,,,,,,,,,,,,,,,,,,,,,,,,,,,,,,,,,,,,,,,,,
,,66a4fd0abda26954b4e43cc8,2026-03-17_12h25.35.296,kallum_motion_pilot_GIST_update_2,2026.1.1,Win32,57.80346821,66a4fd0abda26954b4e43cc8,69b92ab4aef6dee357cd729a,69b92bd1e4529e9a69379854,0.3509,0.3511,0,108,108,23,1,fourthree,,,,,,,,,,,,,,,,,,,,,,,,,,,,,,,,,,,,,,,,,,,,,,,,,,,,,,,,,,,,,,,,,,,,,,,,,,,,,,,,,,,,,,,,,,,,,,,,,,,,,,,,,,,,,,,,,,,,,,,,,,,,,,,,,,,,,,,,,
,,66a4fd0abda26954b4e43cc8,2026-03-17_12h25.35.296,kallum_motion_pilot_GIST_update_2,2026.1.1,Win32,57.80346821,66a4fd0abda26954b4e43cc8,69b92ab4aef6dee357cd729a,69b92bd1e4529e9a69379854,0.3519,0.352,0,109,109,126,1,eightsix,,,,,,,,,,,,,,,,,,,,,,,,,,,,,,,,,,,,,,,,,,,,,,,,,,,,,,,,,,,,,,,,,,,,,,,,,,,,,,,,,,,,,,,,,,,,,,,,,,,,,,,,,,,,,,,,,,,,,,,,,,,,,,,,,,,,,,,,,
,,66a4fd0abda26954b4e43cc8,2026-03-17_12h25.35.296,kallum_motion_pilot_GIST_update_2,2026.1.1,Win32,57.80346821,66a4fd0abda26954b4e43cc8,69b92ab4aef6dee357cd729a,69b92bd1e4529e9a69379854,0.3533,0.3534,0,110,110,77,1,threefour,,,,,,,,,,,,,,,,,,,,,,,,,,,,,,,,,,,,,,,,,,,,,,,,,,,,,,,,,,,,,,,,,,,,,,,,,,,,,,,,,,,,,,,,,,,,,,,,,,,,,,,,,,,,,,,,,,,,,,,,,,,,,,,,,,,,,,,,,
,,66a4fd0abda26954b4e43cc8,2026-03-17_12h25.35.296,kallum_motion_pilot_GIST_update_2,2026.1.1,Win32,57.80346821,66a4fd0abda26954b4e43cc8,69b92ab4aef6dee357cd729a,69b92bd1e4529e9a69379854,0.3555,0.3556,0,111,111,154,1,sixfive,,,,,,,,,,,,,,,,,,,,,,,,,,,,,,,,,,,,,,,,,,,,,,,,,,,,,,,,,,,,,,,,,,,,,,,,,,,,,,,,,,,,,,,,,,,,,,,,,,,,,,,,,,,,,,,,,,,,,,,,,,,,,,,,,,,,,,,,,
,,66a4fd0abda26954b4e43cc8,2026-03-17_12h25.35.296,kallum_motion_pilot_GIST_update_2,2026.1.1,Win32,57.80346821,66a4fd0abda26954b4e43cc8,69b92ab4aef6dee357cd729a,69b92bd1e4529e9a69379854,0.3569,0.357,0,112,112,82,1,sixfive,,,,,,,,,,,,,,,,,,,,,,,,,,,,,,,,,,,,,,,,,,,,,,,,,,,,,,,,,,,,,,,,,,,,,,,,,,,,,,,,,,,,,,,,,,,,,,,,,,,,,,,,,,,,,,,,,,,,,,,,,,,,,,,,,,,,,,,,,
,,66a4fd0abda26954b4e43cc8,2026-03-17_12h25.35.296,kallum_motion_pilot_GIST_update_2,2026.1.1,Win32,57.80346821,66a4fd0abda26954b4e43cc8,69b92ab4aef6dee357cd729a,69b92bd1e4529e9a69379854,0.3594,0.3595,0,113,113,51,1,twofour,,,,,,,,,,,,,,,,,,,,,,,,,,,,,,,,,,,,,,,,,,,,,,,,,,,,,,,,,,,,,,,,,,,,,,,,,,,,,,,,,,,,,,,,,,,,,,,,,,,,,,,,,,,,,,,,,,,,,,,,,,,,,,,,,,,,,,,,,
,,66a4fd0abda26954b4e43cc8,2026-03-17_12h25.35.296,kallum_motion_pilot_GIST_update_2,2026.1.1,Win32,57.80346821,66a4fd0abda26954b4e43cc8,69b92ab4aef6dee357cd729a,69b92bd1e4529e9a69379854,0.3604,0.3605,0,114,114,94,1,eightsix,,,,,,,,,,,,,,,,,,,,,,,,,,,,,,,,,,,,,,,,,,,,,,,,,,,,,,,,,,,,,,,,,,,,,,,,,,,,,,,,,,,,,,,,,,,,,,,,,,,,,,,,,,,,,,,,,,,,,,,,,,,,,,,,,,,,,,,,,
,,66a4fd0abda26954b4e43cc8,2026-03-17_12h25.35.296,kallum_motion_pilot_GIST_update_2,2026.1.1,Win32,57.80346821,66a4fd0abda26954b4e43cc8,69b92ab4aef6dee357cd729a,69b92bd1e4529e9a69379854,0.3614,0.3614,0,115,115,11,1,twofour,,,,,,,,,,,,,,,,,,,,,,,,,,,,,,,,,,,,,,,,,,,,,,,,,,,,,,,,,,,,,,,,,,,,,,,,,,,,,,,,,,,,,,,,,,,,,,,,,,,,,,,,,,,,,,,,,,,,,,,,,,,,,,,,,,,,,,,,,
,,66a4fd0abda26954b4e43cc8,2026-03-17_12h25.35.296,kallum_motion_pilot_GIST_update_2,2026.1.1,Win32,57.80346821,66a4fd0abda26954b4e43cc8,69b92ab4aef6dee357cd729a,69b92bd1e4529e9a69379854,0.3624,0.3624,0,116,116,117,1,seveneight,,,,,,,,,,,,,,,,,,,,,,,,,,,,,,,,,,,,,,,,,,,,,,,,,,,,,,,,,,,,,,,,,,,,,,,,,,,,,,,,,,,,,,,,,,,,,,,,,,,,,,,,,,,,,,,,,,,,,,,,,,,,,,,,,,,,,,,,,
,,66a4fd0abda26954b4e43cc8,2026-03-17_12h25.35.296,kallum_motion_pilot_GIST_update_2,2026.1.1,Win32,57.80346821,66a4fd0abda26954b4e43cc8,69b92ab4aef6dee357cd729a,69b92bd1e4529e9a69379854,0.3633,0.3633,0,117,117,14,1,fourtwo,,,,,,,,,,,,,,,,,,,,,,,,,,,,,,,,,,,,,,,,,,,,,,,,,,,,,,,,,,,,,,,,,,,,,,,,,,,,,,,,,,,,,,,,,,,,,,,,,,,,,,,,,,,,,,,,,,,,,,,,,,,,,,,,,,,,,,,,,
,,66a4fd0abda26954b4e43cc8,2026-03-17_12h25.35.296,kallum_motion_pilot_GIST_update_2,2026.1.1,Win32,57.80346821,66a4fd0abda26954b4e43cc8,69b92ab4aef6dee357cd729a,69b92bd1e4529e9a69379854,0.3654,0.3655,0,118,118,72,1,onetwo,,,,,,,,,,,,,,,,,,,,,,,,,,,,,,,,,,,,,,,,,,,,,,,,,,,,,,,,,,,,,,,,,,,,,,,,,,,,,,,,,,,,,,,,,,,,,,,,,,,,,,,,,,,,,,,,,,,,,,,,,,,,,,,,,,,,,,,,,
,,66a4fd0abda26954b4e43cc8,2026-03-17_12h25.35.296,kallum_motion_pilot_GIST_update_2,2026.1.1,Win32,57.80346821,66a4fd0abda26954b4e43cc8,69b92ab4aef6dee357cd729a,69b92bd1e4529e9a69379854,0.3666,0.3666,0,119,119,28,1,threeone,,,,,,,,,,,,,,,,,,,,,,,,,,,,,,,,,,,,,,,,,,,,,,,,,,,,,,,,,,,,,,,,,,,,,,,,,,,,,,,,,,,,,,,,,,,,,,,,,,,,,,,,,,,,,,,,,,,,,,,,,,,,,,,,,,,,,,,,,
,,66a4fd0abda26954b4e43cc8,2026-03-17_12h25.35.296,kallum_motion_pilot_GIST_update_2,2026.1.1,Win32,57.80346821,66a4fd0abda26954b4e43cc8,69b92ab4aef6dee357cd729a,69b92bd1e4529e9a69379854,0.3674,0.3676,0,120,120,68,1,threeone,,,,,,,,,,,,,,,,,,,,,,,,,,,,,,,,,,,,,,,,,,,,,,,,,,,,,,,,,,,,,,,,,,,,,,,,,,,,,,,,,,,,,,,,,,,,,,,,,,,,,,,,,,,,,,,,,,,,,,,,,,,,,,,,,,,,,,,,,
,,66a4fd0abda26954b4e43cc8,2026-03-17_12h25.35.296,kallum_motion_pilot_GIST_update_2,2026.1.1,Win32,57.80346821,66a4fd0abda26954b4e43cc8,69b92ab4aef6dee357cd729a,69b92bd1e4529e9a69379854,0.3683,0.3684,0,121,121,40,1,onetwo,,,,,,,,,,,,,,,,,,,,,,,,,,,,,,,,,,,,,,,,,,,,,,,,,,,,,,,,,,,,,,,,,,,,,,,,,,,,,,,,,,,,,,,,,,,,,,,,,,,,,,,,,,,,,,,,,,,,,,,,,,,,,,,,,,,,,,,,,
,,66a4fd0abda26954b4e43cc8,2026-03-17_12h25.35.296,kallum_motion_pilot_GIST_update_2,2026.1.1,Win32,57.80346821,66a4fd0abda26954b4e43cc8,69b92ab4aef6dee357cd729a,69b92bd1e4529e9a69379854,0.3692,0.3693,0,122,122,13,1,threefour,,,,,,,,,,,,,,,,,,,,,,,,,,,,,,,,,,,,,,,,,,,,,,,,,,,,,,,,,,,,,,,,,,,,,,,,,,,,,,,,,,,,,,,,,,,,,,,,,,,,,,,,,,,,,,,,,,,,,,,,,,,,,,,,,,,,,,,,,
,,66a4fd0abda26954b4e43cc8,2026-03-17_12h25.35.296,kallum_motion_pilot_GIST_update_2,2026.1.1,Win32,57.80346821,66a4fd0abda26954b4e43cc8,69b92ab4aef6dee357cd729a,69b92bd1e4529e9a69379854,0.3703,0.3704,0,123,123,6,1,fourtwo,,,,,,,,,,,,,,,,,,,,,,,,,,,,,,,,,,,,,,,,,,,,,,,,,,,,,,,,,,,,,,,,,,,,,,,,,,,,,,,,,,,,,,,,,,,,,,,,,,,,,,,,,,,,,,,,,,,,,,,,,,,,,,,,,,,,,,,,,
,,66a4fd0abda26954b4e43cc8,2026-03-17_12h25.35.296,kallum_motion_pilot_GIST_update_2,2026.1.1,Win32,57.80346821,66a4fd0abda26954b4e43cc8,69b92ab4aef6dee357cd729a,69b92bd1e4529e9a69379854,0.3711,0.3713,0,124,124,25,1,onethree,,,,,,,,,,,,,,,,,,,,,,,,,,,,,,,,,,,,,,,,,,,,,,,,,,,,,,,,,,,,,,,,,,,,,,,,,,,,,,,,,,,,,,,,,,,,,,,,,,,,,,,,,,,,,,,,,,,,,,,,,,,,,,,,,,,,,,,,,
,,66a4fd0abda26954b4e43cc8,2026-03-17_12h25.35.296,kallum_motion_pilot_GIST_update_2,2026.1.1,Win32,57.80346821,66a4fd0abda26954b4e43cc8,69b92ab4aef6dee357cd729a,69b92bd1e4529e9a69379854,0.3722,0.3724,0,125,125,67,1,twofour,,,,,,,,,,,,,,,,,,,,,,,,,,,,,,,,,,,,,,,,,,,,,,,,,,,,,,,,,,,,,,,,,,,,,,,,,,,,,,,,,,,,,,,,,,,,,,,,,,,,,,,,,,,,,,,,,,,,,,,,,,,,,,,,,,,,,,,,,
,,66a4fd0abda26954b4e43cc8,2026-03-17_12h25.35.296,kallum_motion_pilot_GIST_update_2,2026.1.1,Win32,57.80346821,66a4fd0abda26954b4e43cc8,69b92ab4aef6dee357cd729a,69b92bd1e4529e9a69379854,0.3733,0.3733,0,126,126,26,1,twoone,,,,,,,,,,,,,,,,,,,,,,,,,,,,,,,,,,,,,,,,,,,,,,,,,,,,,,,,,,,,,,,,,,,,,,,,,,,,,,,,,,,,,,,,,,,,,,,,,,,,,,,,,,,,,,,,,,,,,,,,,,,,,,,,,,,,,,,,,
,,66a4fd0abda26954b4e43cc8,2026-03-17_12h25.35.296,kallum_motion_pilot_GIST_update_2,2026.1.1,Win32,57.80346821,66a4fd0abda26954b4e43cc8,69b92ab4aef6dee357cd729a,69b92bd1e4529e9a69379854,0.3761,0.3762,0,127,127,140,1,sevenfive,,,,,,,,,,,,,,,,,,,,,,,,,,,,,,,,,,,,,,,,,,,,,,,,,,,,,,,,,,,,,,,,,,,,,,,,,,,,,,,,,,,,,,,,,,,,,,,,,,,,,,,,,,,,,,,,,,,,,,,,,,,,,,,,,,,,,,,,,
,,66a4fd0abda26954b4e43cc8,2026-03-17_12h25.35.296,kallum_motion_pilot_GIST_update_2,2026.1.1,Win32,57.80346821,66a4fd0abda26954b4e43cc8,69b92ab4aef6dee357cd729a,69b92bd1e4529e9a69379854,0.3772,0.3773,0,128,128,37,1,threefour,,,,,,,,,,,,,,,,,,,,,,,,,,,,,,,,,,,,,,,,,,,,,,,,,,,,,,,,,,,,,,,,,,,,,,,,,,,,,,,,,,,,,,,,,,,,,,,,,,,,,,,,,,,,,,,,,,,,,,,,,,,,,,,,,,,,,,,,,
,,66a4fd0abda26954b4e43cc8,2026-03-17_12h25.35.296,kallum_motion_pilot_GIST_update_2,2026.1.1,Win32,57.80346821,66a4fd0abda26954b4e43cc8,69b92ab4aef6dee357cd729a,69b92bd1e4529e9a69379854,0.378,0.3782,0,129,129,76,1,threeone,,,,,,,,,,,,,,,,,,,,,,,,,,,,,,,,,,,,,,,,,,,,,,,,,,,,,,,,,,,,,,,,,,,,,,,,,,,,,,,,,,,,,,,,,,,,,,,,,,,,,,,,,,,,,,,,,,,,,,,,,,,,,,,,,,,,,,,,,
,,66a4fd0abda26954b4e43cc8,2026-03-17_12h25.35.296,kallum_motion_pilot_GIST_update_2,2026.1.1,Win32,57.80346821,66a4fd0abda26954b4e43cc8,69b92ab4aef6dee357cd729a,69b92bd1e4529e9a69379854,0.3799,0.38,0,130,130,111,1,eightseven,,,,,,,,,,,,,,,,,,,,,,,,,,,,,,,,,,,,,,,,,,,,,,,,,,,,,,,,,,,,,,,,,,,,,,,,,,,,,,,,,,,,,,,,,,,,,,,,,,,,,,,,,,,,,,,,,,,,,,,,,,,,,,,,,,,,,,,,,
,,66a4fd0abda26954b4e43cc8,2026-03-17_12h25.35.296,kallum_motion_pilot_GIST_update_2,2026.1.1,Win32,57.80346821,66a4fd0abda26954b4e43cc8,69b92ab4aef6dee357cd729a,69b92bd1e4529e9a69379854,0.3809,0.3811,0,131,131,63,1,fourthree,,,,,,,,,,,,,,,,,,,,,,,,,,,,,,,,,,,,,,,,,,,,,,,,,,,,,,,,,,,,,,,,,,,,,,,,,,,,,,,,,,,,,,,,,,,,,,,,,,,,,,,,,,,,,,,,,,,,,,,,,,,,,,,,,,,,,,,,,
,,66a4fd0abda26954b4e43cc8,2026-03-17_12h25.35.296,kallum_motion_pilot_GIST_update_2,2026.1.1,Win32,57.80346821,66a4fd0abda26954b4e43cc8,69b92ab4aef6dee357cd729a,69b92bd1e4529e9a69379854,0.3819,0.382,0,132,132,62,1,fourtwo,,,,,,,,,,,,,,,,,,,,,,,,,,,,,,,,,,,,,,,,,,,,,,,,,,,,,,,,,,,,,,,,,,,,,,,,,,,,,,,,,,,,,,,,,,,,,,,,,,,,,,,,,,,,,,,,,,,,,,,,,,,,,,,,,,,,,,,,,
,,66a4fd0abda26954b4e43cc8,2026-03-17_12h25.35.296,kallum_motion_pilot_GIST_update_2,2026.1.1,Win32,57.80346821,66a4fd0abda26954b4e43cc8,69b92ab4aef6dee357cd729a,69b92bd1e4529e9a69379854,0.383,0.3831,0,133,133,112,1,fivesix,,,,,,,,,,,,,,,,,,,,,,,,,,,,,,,,,,,,,,,,,,,,,,,,,,,,,,,,,,,,,,,,,,,,,,,,,,,,,,,,,,,,,,,,,,,,,,,,,,,,,,,,,,,,,,,,,,,,,,,,,,,,,,,,,,,,,,,,,
,,66a4fd0abda26954b4e43cc8,2026-03-17_12h25.35.296,kallum_motion_pilot_GIST_update_2,2026.1.1,Win32,57.80346821,66a4fd0abda26954b4e43cc8,69b92ab4aef6dee357cd729a,69b92bd1e4529e9a69379854,0.3881,0.3881,0,134,134,122,1,sixfive,,,,,,,,,,,,,,,,,,,,,,,,,,,,,,,,,,,,,,,,,,,,,,,,,,,,,,,,,,,,,,,,,,,,,,,,,,,,,,,,,,,,,,,,,,,,,,,,,,,,,,,,,,,,,,,,,,,,,,,,,,,,,,,,,,,,,,,,,
,,66a4fd0abda26954b4e43cc8,2026-03-17_12h25.35.296,kallum_motion_pilot_GIST_update_2,2026.1.1,Win32,57.80346821,66a4fd0abda26954b4e43cc8,69b92ab4aef6dee357cd729a,69b92bd1e4529e9a69379854,0.3915,0.3927,0,135,135,101,1,seveneight,,,,,,,,,,,,,,,,,,,,,,,,,,,,,,,,,,,,,,,,,,,,,,,,,,,,,,,,,,,,,,,,,,,,,,,,,,,,,,,,,,,,,,,,,,,,,,,,,,,,,,,,,,,,,,,,,,,,,,,,,,,,,,,,,,,,,,,,,
,,66a4fd0abda26954b4e43cc8,2026-03-17_12h25.35.296,kallum_motion_pilot_GIST_update_2,2026.1.1,Win32,57.80346821,66a4fd0abda26954b4e43cc8,69b92ab4aef6dee357cd729a,69b92bd1e4529e9a69379854,0.3958,0.3959,0,136,136,17,1,onethree,,,,,,,,,,,,,,,,,,,,,,,,,,,,,,,,,,,,,,,,,,,,,,,,,,,,,,,,,,,,,,,,,,,,,,,,,,,,,,,,,,,,,,,,,,,,,,,,,,,,,,,,,,,,,,,,,,,,,,,,,,,,,,,,,,,,,,,,,
,,66a4fd0abda26954b4e43cc8,2026-03-17_12h25.35.296,kallum_motion_pilot_GIST_update_2,2026.1.1,Win32,57.80346821,66a4fd0abda26954b4e43cc8,69b92ab4aef6dee357cd729a,69b92bd1e4529e9a69379854,0.4018,0.4018,0,137,137,12,1,threeone,,,,,,,,,,,,,,,,,,,,,,,,,,,,,,,,,,,,,,,,,,,,,,,,,,,,,,,,,,,,,,,,,,,,,,,,,,,,,,,,,,,,,,,,,,,,,,,,,,,,,,,,,,,,,,,,,,,,,,,,,,,,,,,,,,,,,,,,,
,,66a4fd0abda26954b4e43cc8,2026-03-17_12h25.35.296,kallum_motion_pilot_GIST_update_2,2026.1.1,Win32,57.80346821,66a4fd0abda26954b4e43cc8,69b92ab4aef6dee357cd729a,69b92bd1e4529e9a69379854,0.4027,0.4028,0,138,138,8,1,onetwo,,,,,,,,,,,,,,,,,,,,,,,,,,,,,,,,,,,,,,,,,,,,,,,,,,,,,,,,,,,,,,,,,,,,,,,,,,,,,,,,,,,,,,,,,,,,,,,,,,,,,,,,,,,,,,,,,,,,,,,,,,,,,,,,,,,,,,,,,
,,66a4fd0abda26954b4e43cc8,2026-03-17_12h25.35.296,kallum_motion_pilot_GIST_update_2,2026.1.1,Win32,57.80346821,66a4fd0abda26954b4e43cc8,69b92ab4aef6dee357cd729a,69b92bd1e4529e9a69379854,0.4036,0.4039,0,139,139,9,1,onethree,,,,,,,,,,,,,,,,,,,,,,,,,,,,,,,,,,,,,,,,,,,,,,,,,,,,,,,,,,,,,,,,,,,,,,,,,,,,,,,,,,,,,,,,,,,,,,,,,,,,,,,,,,,,,,,,,,,,,,,,,,,,,,,,,,,,,,,,,
,,66a4fd0abda26954b4e43cc8,2026-03-17_12h25.35.296,kallum_motion_pilot_GIST_update_2,2026.1.1,Win32,57.80346821,66a4fd0abda26954b4e43cc8,69b92ab4aef6dee357cd729a,69b92bd1e4529e9a69379854,0.4054,0.4054,0,140,140,42,1,twoone,,,,,,,,,,,,,,,,,,,,,,,,,,,,,,,,,,,,,,,,,,,,,,,,,,,,,,,,,,,,,,,,,,,,,,,,,,,,,,,,,,,,,,,,,,,,,,,,,,,,,,,,,,,,,,,,,,,,,,,,,,,,,,,,,,,,,,,,,
,,66a4fd0abda26954b4e43cc8,2026-03-17_12h25.35.296,kallum_motion_pilot_GIST_update_2,2026.1.1,Win32,57.80346821,66a4fd0abda26954b4e43cc8,69b92ab4aef6dee357cd729a,69b92bd1e4529e9a69379854,0.4063,0.4064,0,141,141,34,1,twoone,,,,,,,,,,,,,,,,,,,,,,,,,,,,,,,,,,,,,,,,,,,,,,,,,,,,,,,,,,,,,,,,,,,,,,,,,,,,,,,,,,,,,,,,,,,,,,,,,,,,,,,,,,,,,,,,,,,,,,,,,,,,,,,,,,,,,,,,,
,,66a4fd0abda26954b4e43cc8,2026-03-17_12h25.35.296,kallum_motion_pilot_GIST_update_2,2026.1.1,Win32,57.80346821,66a4fd0abda26954b4e43cc8,69b92ab4aef6dee357cd729a,69b92bd1e4529e9a69379854,0.4072,0.4073,0,142,142,144,1,fivesix,,,,,,,,,,,,,,,,,,,,,,,,,,,,,,,,,,,,,,,,,,,,,,,,,,,,,,,,,,,,,,,,,,,,,,,,,,,,,,,,,,,,,,,,,,,,,,,,,,,,,,,,,,,,,,,,,,,,,,,,,,,,,,,,,,,,,,,,,
,,66a4fd0abda26954b4e43cc8,2026-03-17_12h25.35.296,kallum_motion_pilot_GIST_update_2,2026.1.1,Win32,57.80346821,66a4fd0abda26954b4e43cc8,69b92ab4aef6dee357cd729a,69b92bd1e4529e9a69379854,0.4093,0.4094,0,143,143,125,1,seveneight,,,,,,,,,,,,,,,,,,,,,,,,,,,,,,,,,,,,,,,,,,,,,,,,,,,,,,,,,,,,,,,,,,,,,,,,,,,,,,,,,,,,,,,,,,,,,,,,,,,,,,,,,,,,,,,,,,,,,,,,,,,,,,,,,,,,,,,,,
,,66a4fd0abda26954b4e43cc8,2026-03-17_12h25.35.296,kallum_motion_pilot_GIST_update_2,2026.1.1,Win32,57.80346821,66a4fd0abda26954b4e43cc8,69b92ab4aef6dee357cd729a,69b92bd1e4529e9a69379854,0.4104,0.4104,0,144,144,103,1,eightseven,,,,,,,,,,,,,,,,,,,,,,,,,,,,,,,,,,,,,,,,,,,,,,,,,,,,,,,,,,,,,,,,,,,,,,,,,,,,,,,,,,,,,,,,,,,,,,,,,,,,,,,,,,,,,,,,,,,,,,,,,,,,,,,,,,,,,,,,,
,,66a4fd0abda26954b4e43cc8,2026-03-17_12h25.35.296,kallum_motion_pilot_GIST_update_2,2026.1.1,Win32,57.80346821,66a4fd0abda26954b4e43cc8,69b92ab4aef6dee357cd729a,69b92bd1e4529e9a69379854,0.4118,0.4118,0,145,145,131,1,sixeight,,,,,,,,,,,,,,,,,,,,,,,,,,,,,,,,,,,,,,,,,,,,,,,,,,,,,,,,,,,,,,,,,,,,,,,,,,,,,,,,,,,,,,,,,,,,,,,,,,,,,,,,,,,,,,,,,,,,,,,,,,,,,,,,,,,,,,,,,
,,66a4fd0abda26954b4e43cc8,2026-03-17_12h25.35.296,kallum_motion_pilot_GIST_update_2,2026.1.1,Win32,57.80346821,66a4fd0abda26954b4e43cc8,69b92ab4aef6dee357cd729a,69b92bd1e4529e9a69379854,0.4126,0.4127,0,146,146,161,1,fiveseven,,,,,,,,,,,,,,,,,,,,,,,,,,,,,,,,,,,,,,,,,,,,,,,,,,,,,,,,,,,,,,,,,,,,,,,,,,,,,,,,,,,,,,,,,,,,,,,,,,,,,,,,,,,,,,,,,,,,,,,,,,,,,,,,,,,,,,,,,
,,66a4fd0abda26954b4e43cc8,2026-03-17_12h25.35.296,kallum_motion_pilot_GIST_update_2,2026.1.1,Win32,57.80346821,66a4fd0abda26954b4e43cc8,69b92ab4aef6dee357cd729a,69b92bd1e4529e9a69379854,0.4163,0.4163,0,147,147,75,1,twofour,,,,,,,,,,,,,,,,,,,,,,,,,,,,,,,,,,,,,,,,,,,,,,,,,,,,,,,,,,,,,,,,,,,,,,,,,,,,,,,,,,,,,,,,,,,,,,,,,,,,,,,,,,,,,,,,,,,,,,,,,,,,,,,,,,,,,,,,,
,,66a4fd0abda26954b4e43cc8,2026-03-17_12h25.35.296,kallum_motion_pilot_GIST_update_2,2026.1.1,Win32,57.80346821,66a4fd0abda26954b4e43cc8,69b92ab4aef6dee357cd729a,69b92bd1e4529e9a69379854,0.4174,0.4175,0,148,148,99,1,sixeight,,,,,,,,,,,,,,,,,,,,,,,,,,,,,,,,,,,,,,,,,,,,,,,,,,,,,,,,,,,,,,,,,,,,,,,,,,,,,,,,,,,,,,,,,,,,,,,,,,,,,,,,,,,,,,,,,,,,,,,,,,,,,,,,,,,,,,,,,
,,66a4fd0abda26954b4e43cc8,2026-03-17_12h25.35.296,kallum_motion_pilot_GIST_update_2,2026.1.1,Win32,57.80346821,66a4fd0abda26954b4e43cc8,69b92ab4aef6dee357cd729a,69b92bd1e4529e9a69379854,0.4185,0.4186,0,149,149,89,1,fiveseven,,,,,,,,,,,,,,,,,,,,,,,,,,,,,,,,,,,,,,,,,,,,,,,,,,,,,,,,,,,,,,,,,,,,,,,,,,,,,,,,,,,,,,,,,,,,,,,,,,,,,,,,,,,,,,,,,,,,,,,,,,,,,,,,,,,,,,,,,
,,66a4fd0abda26954b4e43cc8,2026-03-17_12h25.35.296,kallum_motion_pilot_GIST_update_2,2026.1.1,Win32,57.80346821,66a4fd0abda26954b4e43cc8,69b92ab4aef6dee357cd729a,69b92bd1e4529e9a69379854,0.4196,0.4198,0,150,150,74,1,twoone,,,,,,,,,,,,,,,,,,,,,,,,,,,,,,,,,,,,,,,,,,,,,,,,,,,,,,,,,,,,,,,,,,,,,,,,,,,,,,,,,,,,,,,,,,,,,,,,,,,,,,,,,,,,,,,,,,,,,,,,,,,,,,,,,,,,,,,,,
,,66a4fd0abda26954b4e43cc8,2026-03-17_12h25.35.296,kallum_motion_pilot_GIST_update_2,2026.1.1,Win32,57.80346821,66a4fd0abda26954b4e43cc8,69b92ab4aef6dee357cd729a,69b92bd1e4529e9a69379854,0.4208,0.421,0,151,151,69,1,threefour,,,,,,,,,,,,,,,,,,,,,,,,,,,,,,,,,,,,,,,,,,,,,,,,,,,,,,,,,,,,,,,,,,,,,,,,,,,,,,,,,,,,,,,,,,,,,,,,,,,,,,,,,,,,,,,,,,,,,,,,,,,,,,,,,,,,,,,,,
,,66a4fd0abda26954b4e43cc8,2026-03-17_12h25.35.296,kallum_motion_pilot_GIST_update_2,2026.1.1,Win32,57.80346821,66a4fd0abda26954b4e43cc8,69b92ab4aef6dee357cd729a,69b92bd1e4529e9a69379854,0.4219,0.422,0,152,152,119,1,eightseven,,,,,,,,,,,,,,,,,,,,,,,,,,,,,,,,,,,,,,,,,,,,,,,,,,,,,,,,,,,,,,,,,,,,,,,,,,,,,,,,,,,,,,,,,,,,,,,,,,,,,,,,,,,,,,,,,,,,,,,,,,,,,,,,,,,,,,,,,
,,66a4fd0abda26954b4e43cc8,2026-03-17_12h25.35.296,kallum_motion_pilot_GIST_update_2,2026.1.1,Win32,57.80346821,66a4fd0abda26954b4e43cc8,69b92ab4aef6dee357cd729a,69b92bd1e4529e9a69379854,0.4229,0.4231,0,153,153,64,1,onetwo,,,,,,,,,,,,,,,,,,,,,,,,,,,,,,,,,,,,,,,,,,,,,,,,,,,,,,,,,,,,,,,,,,,,,,,,,,,,,,,,,,,,,,,,,,,,,,,,,,,,,,,,,,,,,,,,,,,,,,,,,,,,,,,,,,,,,,,,,
,,66a4fd0abda26954b4e43cc8,2026-03-17_12h25.35.296,kallum_motion_pilot_GIST_update_2,2026.1.1,Win32,57.80346821,66a4fd0abda26954b4e43cc8,69b92ab4aef6dee357cd729a,69b92bd1e4529e9a69379854,0.4244,0.4244,0,154,154,109,1,seveneight,,,,,,,,,,,,,,,,,,,,,,,,,,,,,,,,,,,,,,,,,,,,,,,,,,,,,,,,,,,,,,,,,,,,,,,,,,,,,,,,,,,,,,,,,,,,,,,,,,,,,,,,,,,,,,,,,,,,,,,,,,,,,,,,,,,,,,,,,
,,66a4fd0abda26954b4e43cc8,2026-03-17_12h25.35.296,kallum_motion_pilot_GIST_update_2,2026.1.1,Win32,57.80346821,66a4fd0abda26954b4e43cc8,69b92ab4aef6dee357cd729a,69b92bd1e4529e9a69379854,0.4273,0.4274,0,155,155,146,1,sixfive,,,,,,,,,,,,,,,,,,,,,,,,,,,,,,,,,,,,,,,,,,,,,,,,,,,,,,,,,,,,,,,,,,,,,,,,,,,,,,,,,,,,,,,,,,,,,,,,,,,,,,,,,,,,,,,,,,,,,,,,,,,,,,,,,,,,,,,,,
,,66a4fd0abda26954b4e43cc8,2026-03-17_12h25.35.296,kallum_motion_pilot_GIST_update_2,2026.1.1,Win32,57.80346821,66a4fd0abda26954b4e43cc8,69b92ab4aef6dee357cd729a,69b92bd1e4529e9a69379854,0.4284,0.4285,0,156,156,35,1,twofour,,,,,,,,,,,,,,,,,,,,,,,,,,,,,,,,,,,,,,,,,,,,,,,,,,,,,,,,,,,,,,,,,,,,,,,,,,,,,,,,,,,,,,,,,,,,,,,,,,,,,,,,,,,,,,,,,,,,,,,,,,,,,,,,,,,,,,,,,
,,66a4fd0abda26954b4e43cc8,2026-03-17_12h25.35.296,kallum_motion_pilot_GIST_update_2,2026.1.1,Win32,57.80346821,66a4fd0abda26954b4e43cc8,69b92ab4aef6dee357cd729a,69b92bd1e4529e9a69379854,0.4299,0.4299,0,157,157,5,1,threefour,,,,,,,,,,,,,,,,,,,,,,,,,,,,,,,,,,,,,,,,,,,,,,,,,,,,,,,,,,,,,,,,,,,,,,,,,,,,,,,,,,,,,,,,,,,,,,,,,,,,,,,,,,,,,,,,,,,,,,,,,,,,,,,,,,,,,,,,,
,,66a4fd0abda26954b4e43cc8,2026-03-17_12h25.35.296,kallum_motion_pilot_GIST_update_2,2026.1.1,Win32,57.80346821,66a4fd0abda26954b4e43cc8,69b92ab4aef6dee357cd729a,69b92bd1e4529e9a69379854,0.4308,0.4309,0,158,158,160,1,fivesix,,,,,,,,,,,,,,,,,,,,,,,,,,,,,,,,,,,,,,,,,,,,,,,,,,,,,,,,,,,,,,,,,,,,,,,,,,,,,,,,,,,,,,,,,,,,,,,,,,,,,,,,,,,,,,,,,,,,,,,,,,,,,,,,,,,,,,,,,
,,66a4fd0abda26954b4e43cc8,2026-03-17_12h25.35.296,kallum_motion_pilot_GIST_update_2,2026.1.1,Win32,57.80346821,66a4fd0abda26954b4e43cc8,69b92ab4aef6dee357cd729a,69b92bd1e4529e9a69379854,0.4316,0.4317,0,159,159,45,1,threefour,,,,,,,,,,,,,,,,,,,,,,,,,,,,,,,,,,,,,,,,,,,,,,,,,,,,,,,,,,,,,,,,,,,,,,,,,,,,,,,,,,,,,,,,,,,,,,,,,,,,,,,,,,,,,,,,,,,,,,,,,,,,,,,,,,,,,,,,,
,,66a4fd0abda26954b4e43cc8,2026-03-17_12h25.35.296,kallum_motion_pilot_GIST_update_2,2026.1.1,Win32,57.80346821,66a4fd0abda26954b4e43cc8,69b92ab4aef6dee357cd729a,69b92bd1e4529e9a69379854,0.4326,0.4327,0,160,160,87,1,eightseven,,,,,,,,,,,,,,,,,,,,,,,,,,,,,,,,,,,,,,,,,,,,,,,,,,,,,,,,,,,,,,,,,,,,,,,,,,,,,,,,,,,,,,,,,,,,,,,,,,,,,,,,,,,,,,,,,,,,,,,,,,,,,,,,,,,,,,,,,
,,66a4fd0abda26954b4e43cc8,2026-03-17_12h25.35.296,kallum_motion_pilot_GIST_update_2,2026.1.1,Win32,57.80346821,66a4fd0abda26954b4e43cc8,69b92ab4aef6dee357cd729a,69b92bd1e4529e9a69379854,0.4345,0.4346,0,161,161,121,1,fiveseven,,,,,,,,,,,,,,,,,,,,,,,,,,,,,,,,,,,,,,,,,,,,,,,,,,,,,,,,,,,,,,,,,,,,,,,,,,,,,,,,,,,,,,,,,,,,,,,,,,,,,,,,,,,,,,,,,,,,,,,,,,,,,,,,,,,,,,,,,
,,66a4fd0abda26954b4e43cc8,2026-03-17_12h25.35.296,kallum_motion_pilot_GIST_update_2,2026.1.1,Win32,57.80346821,66a4fd0abda26954b4e43cc8,69b92ab4aef6dee357cd729a,69b92bd1e4529e9a69379854,0.4363,0.4364,1,0,162,81,1,fiveseven,,,,,,,,,,,,,,,,,,,,,,,,,,,,,,,,,,,,,,,,,,,,,,,,,,,,,,,,,,,,,,,,,,,,,,,,,,,,,,,,,,,,,,,,,,,,,,,,,,,,,,,,,,,,,,,,,,,,,,,,,,,,,,,,,,,,,,,,,
,,66a4fd0abda26954b4e43cc8,2026-03-17_12h25.35.296,kallum_motion_pilot_GIST_update_2,2026.1.1,Win32,57.80346821,66a4fd0abda26954b4e43cc8,69b92ab4aef6dee357cd729a,69b92bd1e4529e9a69379854,0.4374,0.4375,1,1,163,154,1,sixfive,,,,,,,,,,,,,,,,,,,,,,,,,,,,,,,,,,,,,,,,,,,,,,,,,,,,,,,,,,,,,,,,,,,,,,,,,,,,,,,,,,,,,,,,,,,,,,,,,,,,,,,,,,,,,,,,,,,,,,,,,,,,,,,,,,,,,,,,,
,,66a4fd0abda26954b4e43cc8,2026-03-17_12h25.35.296,kallum_motion_pilot_GIST_update_2,2026.1.1,Win32,57.80346821,66a4fd0abda26954b4e43cc8,69b92ab4aef6dee357cd729a,69b92bd1e4529e9a69379854,0.4385,0.4386,1,2,164,40,1,onetwo,,,,,,,,,,,,,,,,,,,,,,,,,,,,,,,,,,,,,,,,,,,,,,,,,,,,,,,,,,,,,,,,,,,,,,,,,,,,,,,,,,,,,,,,,,,,,,,,,,,,,,,,,,,,,,,,,,,,,,,,,,,,,,,,,,,,,,,,,
,,66a4fd0abda26954b4e43cc8,2026-03-17_12h25.35.296,kallum_motion_pilot_GIST_update_2,2026.1.1,Win32,57.80346821,66a4fd0abda26954b4e43cc8,69b92ab4aef6dee357cd729a,69b92bd1e4529e9a69379854,0.4396,0.4397,1,3,165,108,1,sevenfive,,,,,,,,,,,,,,,,,,,,,,,,,,,,,,,,,,,,,,,,,,,,,,,,,,,,,,,,,,,,,,,,,,,,,,,,,,,,,,,,,,,,,,,,,,,,,,,,,,,,,,,,,,,,,,,,,,,,,,,,,,,,,,,,,,,,,,,,,
,,66a4fd0abda26954b4e43cc8,2026-03-17_12h25.35.296,kallum_motion_pilot_GIST_update_2,2026.1.1,Win32,57.80346821,66a4fd0abda26954b4e43cc8,69b92ab4aef6dee357cd729a,69b92bd1e4529e9a69379854,0.4406,0.4407,1,4,166,115,1,sixeight,,,,,,,,,,,,,,,,,,,,,,,,,,,,,,,,,,,,,,,,,,,,,,,,,,,,,,,,,,,,,,,,,,,,,,,,,,,,,,,,,,,,,,,,,,,,,,,,,,,,,,,,,,,,,,,,,,,,,,,,,,,,,,,,,,,,,,,,,
,,66a4fd0abda26954b4e43cc8,2026-03-17_12h25.35.296,kallum_motion_pilot_GIST_update_2,2026.1.1,Win32,57.80346821,66a4fd0abda26954b4e43cc8,69b92ab4aef6dee357cd729a,69b92bd1e4529e9a69379854,0.4428,0.4429,1,5,167,8,1,onetwo,,,,,,,,,,,,,,,,,,,,,,,,,,,,,,,,,,,,,,,,,,,,,,,,,,,,,,,,,,,,,,,,,,,,,,,,,,,,,,,,,,,,,,,,,,,,,,,,,,,,,,,,,,,,,,,,,,,,,,,,,,,,,,,,,,,,,,,,,
,,66a4fd0abda26954b4e43cc8,2026-03-17_12h25.35.296,kallum_motion_pilot_GIST_update_2,2026.1.1,Win32,57.80346821,66a4fd0abda26954b4e43cc8,69b92ab4aef6dee357cd729a,69b92bd1e4529e9a69379854,0.445,0.445,1,6,168,161,1,fiveseven,,,,,,,,,,,,,,,,,,,,,,,,,,,,,,,,,,,,,,,,,,,,,,,,,,,,,,,,,,,,,,,,,,,,,,,,,,,,,,,,,,,,,,,,,,,,,,,,,,,,,,,,,,,,,,,,,,,,,,,,,,,,,,,,,,,,,,,,,
,,66a4fd0abda26954b4e43cc8,2026-03-17_12h25.35.296,kallum_motion_pilot_GIST_update_2,2026.1.1,Win32,57.80346821,66a4fd0abda26954b4e43cc8,69b92ab4aef6dee357cd729a,69b92bd1e4529e9a69379854,0.4462,0.4463,1,7,169,71,1,fourthree,,,,,,,,,,,,,,,,,,,,,,,,,,,,,,,,,,,,,,,,,,,,,,,,,,,,,,,,,,,,,,,,,,,,,,,,,,,,,,,,,,,,,,,,,,,,,,,,,,,,,,,,,,,,,,,,,,,,,,,,,,,,,,,,,,,,,,,,,
,,66a4fd0abda26954b4e43cc8,2026-03-17_12h25.35.296,kallum_motion_pilot_GIST_update_2,2026.1.1,Win32,57.80346821,66a4fd0abda26954b4e43cc8,69b92ab4aef6dee357cd729a,69b92bd1e4529e9a69379854,0.4472,0.4473,1,8,170,98,1,sixfive,,,,,,,,,,,,,,,,,,,,,,,,,,,,,,,,,,,,,,,,,,,,,,,,,,,,,,,,,,,,,,,,,,,,,,,,,,,,,,,,,,,,,,,,,,,,,,,,,,,,,,,,,,,,,,,,,,,,,,,,,,,,,,,,,,,,,,,,,
,,66a4fd0abda26954b4e43cc8,2026-03-17_12h25.35.296,kallum_motion_pilot_GIST_update_2,2026.1.1,Win32,57.80346821,66a4fd0abda26954b4e43cc8,69b92ab4aef6dee357cd729a,69b92bd1e4529e9a69379854,0.4483,0.4485,1,9,171,20,1,threeone,,,,,,,,,,,,,,,,,,,,,,,,,,,,,,,,,,,,,,,,,,,,,,,,,,,,,,,,,,,,,,,,,,,,,,,,,,,,,,,,,,,,,,,,,,,,,,,,,,,,,,,,,,,,,,,,,,,,,,,,,,,,,,,,,,,,,,,,,
,,66a4fd0abda26954b4e43cc8,2026-03-17_12h25.35.296,kallum_motion_pilot_GIST_update_2,2026.1.1,Win32,57.80346821,66a4fd0abda26954b4e43cc8,69b92ab4aef6dee357cd729a,69b92bd1e4529e9a69379854,0.4495,0.4496,1,10,172,88,1,fivesix,,,,,,,,,,,,,,,,,,,,,,,,,,,,,,,,,,,,,,,,,,,,,,,,,,,,,,,,,,,,,,,,,,,,,,,,,,,,,,,,,,,,,,,,,,,,,,,,,,,,,,,,,,,,,,,,,,,,,,,,,,,,,,,,,,,,,,,,,
,,66a4fd0abda26954b4e43cc8,2026-03-17_12h25.35.296,kallum_motion_pilot_GIST_update_2,2026.1.1,Win32,57.80346821,66a4fd0abda26954b4e43cc8,69b92ab4aef6dee357cd729a,69b92bd1e4529e9a69379854,0.4506,0.4507,1,11,173,30,1,fourtwo,,,,,,,,,,,,,,,,,,,,,,,,,,,,,,,,,,,,,,,,,,,,,,,,,,,,,,,,,,,,,,,,,,,,,,,,,,,,,,,,,,,,,,,,,,,,,,,,,,,,,,,,,,,,,,,,,,,,,,,,,,,,,,,,,,,,,,,,,
,,66a4fd0abda26954b4e43cc8,2026-03-17_12h25.35.296,kallum_motion_pilot_GIST_update_2,2026.1.1,Win32,57.80346821,66a4fd0abda26954b4e43cc8,69b92ab4aef6dee357cd729a,69b92bd1e4529e9a69379854,0.4516,0.4517,1,12,174,58,1,twoone,,,,,,,,,,,,,,,,,,,,,,,,,,,,,,,,,,,,,,,,,,,,,,,,,,,,,,,,,,,,,,,,,,,,,,,,,,,,,,,,,,,,,,,,,,,,,,,,,,,,,,,,,,,,,,,,,,,,,,,,,,,,,,,,,,,,,,,,,
,,66a4fd0abda26954b4e43cc8,2026-03-17_12h25.35.296,kallum_motion_pilot_GIST_update_2,2026.1.1,Win32,57.80346821,66a4fd0abda26954b4e43cc8,69b92ab4aef6dee357cd729a,69b92bd1e4529e9a69379854,0.4525,0.4526,1,13,175,35,1,twofour,,,,,,,,,,,,,,,,,,,,,,,,,,,,,,,,,,,,,,,,,,,,,,,,,,,,,,,,,,,,,,,,,,,,,,,,,,,,,,,,,,,,,,,,,,,,,,,,,,,,,,,,,,,,,,,,,,,,,,,,,,,,,,,,,,,,,,,,,
,,66a4fd0abda26954b4e43cc8,2026-03-17_12h25.35.296,kallum_motion_pilot_GIST_update_2,2026.1.1,Win32,57.80346821,66a4fd0abda26954b4e43cc8,69b92ab4aef6dee357cd729a,69b92bd1e4529e9a69379854,0.4536,0.4541,1,14,176,93,1,seveneight,,,,,,,,,,,,,,,,,,,,,,,,,,,,,,,,,,,,,,,,,,,,,,,,,,,,,,,,,,,,,,,,,,,,,,,,,,,,,,,,,,,,,,,,,,,,,,,,,,,,,,,,,,,,,,,,,,,,,,,,,,,,,,,,,,,,,,,,,
,,66a4fd0abda26954b4e43cc8,2026-03-17_12h25.35.296,kallum_motion_pilot_GIST_update_2,2026.1.1,Win32,57.80346821,66a4fd0abda26954b4e43cc8,69b92ab4aef6dee357cd729a,69b92bd1e4529e9a69379854,0.4558,0.4559,1,15,177,86,1,eightsix,,,,,,,,,,,,,,,,,,,,,,,,,,,,,,,,,,,,,,,,,,,,,,,,,,,,,,,,,,,,,,,,,,,,,,,,,,,,,,,,,,,,,,,,,,,,,,,,,,,,,,,,,,,,,,,,,,,,,,,,,,,,,,,,,,,,,,,,,
,,66a4fd0abda26954b4e43cc8,2026-03-17_12h25.35.296,kallum_motion_pilot_GIST_update_2,2026.1.1,Win32,57.80346821,66a4fd0abda26954b4e43cc8,69b92ab4aef6dee357cd729a,69b92bd1e4529e9a69379854,0.4572,0.4573,1,16,178,43,1,twofour,,,,,,,,,,,,,,,,,,,,,,,,,,,,,,,,,,,,,,,,,,,,,,,,,,,,,,,,,,,,,,,,,,,,,,,,,,,,,,,,,,,,,,,,,,,,,,,,,,,,,,,,,,,,,,,,,,,,,,,,,,,,,,,,,,,,,,,,,
,,66a4fd0abda26954b4e43cc8,2026-03-17_12h25.35.296,kallum_motion_pilot_GIST_update_2,2026.1.1,Win32,57.80346821,66a4fd0abda26954b4e43cc8,69b92ab4aef6dee357cd729a,69b92bd1e4529e9a69379854,0.4581,0.4592,1,17,179,6,1,fourtwo,,,,,,,,,,,,,,,,,,,,,,,,,,,,,,,,,,,,,,,,,,,,,,,,,,,,,,,,,,,,,,,,,,,,,,,,,,,,,,,,,,,,,,,,,,,,,,,,,,,,,,,,,,,,,,,,,,,,,,,,,,,,,,,,,,,,,,,,,
,,66a4fd0abda26954b4e43cc8,2026-03-17_12h25.35.296,kallum_motion_pilot_GIST_update_2,2026.1.1,Win32,57.80346821,66a4fd0abda26954b4e43cc8,69b92ab4aef6dee357cd729a,69b92bd1e4529e9a69379854,0.4605,0.4605,1,18,180,128,1,fivesix,,,,,,,,,,,,,,,,,,,,,,,,,,,,,,,,,,,,,,,,,,,,,,,,,,,,,,,,,,,,,,,,,,,,,,,,,,,,,,,,,,,,,,,,,,,,,,,,,,,,,,,,,,,,,,,,,,,,,,,,,,,,,,,,,,,,,,,,,
,,66a4fd0abda26954b4e43cc8,2026-03-17_12h25.35.296,kallum_motion_pilot_GIST_update_2,2026.1.1,Win32,57.80346821,66a4fd0abda26954b4e43cc8,69b92ab4aef6dee357cd729a,69b92bd1e4529e9a69379854,0.4615,0.4616,1,19,181,50,1,twoone,,,,,,,,,,,,,,,,,,,,,,,,,,,,,,,,,,,,,,,,,,,,,,,,,,,,,,,,,,,,,,,,,,,,,,,,,,,,,,,,,,,,,,,,,,,,,,,,,,,,,,,,,,,,,,,,,,,,,,,,,,,,,,,,,,,,,,,,,
,,66a4fd0abda26954b4e43cc8,2026-03-17_12h25.35.296,kallum_motion_pilot_GIST_update_2,2026.1.1,Win32,57.80346821,66a4fd0abda26954b4e43cc8,69b92ab4aef6dee357cd729a,69b92bd1e4529e9a69379854,0.4629,0.4629,1,20,182,121,1,fiveseven,,,,,,,,,,,,,,,,,,,,,,,,,,,,,,,,,,,,,,,,,,,,,,,,,,,,,,,,,,,,,,,,,,,,,,,,,,,,,,,,,,,,,,,,,,,,,,,,,,,,,,,,,,,,,,,,,,,,,,,,,,,,,,,,,,,,,,,,,
,,66a4fd0abda26954b4e43cc8,2026-03-17_12h25.35.296,kallum_motion_pilot_GIST_update_2,2026.1.1,Win32,57.80346821,66a4fd0abda26954b4e43cc8,69b92ab4aef6dee357cd729a,69b92bd1e4529e9a69379854,0.4644,0.4645,1,21,183,90,1,sixfive,,,,,,,,,,,,,,,,,,,,,,,,,,,,,,,,,,,,,,,,,,,,,,,,,,,,,,,,,,,,,,,,,,,,,,,,,,,,,,,,,,,,,,,,,,,,,,,,,,,,,,,,,,,,,,,,,,,,,,,,,,,,,,,,,,,,,,,,,
,,66a4fd0abda26954b4e43cc8,2026-03-17_12h25.35.296,kallum_motion_pilot_GIST_update_2,2026.1.1,Win32,57.80346821,66a4fd0abda26954b4e43cc8,69b92ab4aef6dee357cd729a,69b92bd1e4529e9a69379854,0.4659,0.4659,1,22,184,31,1,fourthree,,,,,,,,,,,,,,,,,,,,,,,,,,,,,,,,,,,,,,,,,,,,,,,,,,,,,,,,,,,,,,,,,,,,,,,,,,,,,,,,,,,,,,,,,,,,,,,,,,,,,,,,,,,,,,,,,,,,,,,,,,,,,,,,,,,,,,,,,
,,66a4fd0abda26954b4e43cc8,2026-03-17_12h25.35.296,kallum_motion_pilot_GIST_update_2,2026.1.1,Win32,57.80346821,66a4fd0abda26954b4e43cc8,69b92ab4aef6dee357cd729a,69b92bd1e4529e9a69379854,0.4669,0.467,1,23,185,3,1,twofour,,,,,,,,,,,,,,,,,,,,,,,,,,,,,,,,,,,,,,,,,,,,,,,,,,,,,,,,,,,,,,,,,,,,,,,,,,,,,,,,,,,,,,,,,,,,,,,,,,,,,,,,,,,,,,,,,,,,,,,,,,,,,,,,,,,,,,,,,
,,66a4fd0abda26954b4e43cc8,2026-03-17_12h25.35.296,kallum_motion_pilot_GIST_update_2,2026.1.1,Win32,57.80346821,66a4fd0abda26954b4e43cc8,69b92ab4aef6dee357cd729a,69b92bd1e4529e9a69379854,0.4684,0.4685,1,24,186,27,1,twofour,,,,,,,,,,,,,,,,,,,,,,,,,,,,,,,,,,,,,,,,,,,,,,,,,,,,,,,,,,,,,,,,,,,,,,,,,,,,,,,,,,,,,,,,,,,,,,,,,,,,,,,,,,,,,,,,,,,,,,,,,,,,,,,,,,,,,,,,,
,,66a4fd0abda26954b4e43cc8,2026-03-17_12h25.35.296,kallum_motion_pilot_GIST_update_2,2026.1.1,Win32,57.80346821,66a4fd0abda26954b4e43cc8,69b92ab4aef6dee357cd729a,69b92bd1e4529e9a69379854,0.4694,0.4696,1,25,187,151,1,eightseven,,,,,,,,,,,,,,,,,,,,,,,,,,,,,,,,,,,,,,,,,,,,,,,,,,,,,,,,,,,,,,,,,,,,,,,,,,,,,,,,,,,,,,,,,,,,,,,,,,,,,,,,,,,,,,,,,,,,,,,,,,,,,,,,,,,,,,,,,
,,66a4fd0abda26954b4e43cc8,2026-03-17_12h25.35.296,kallum_motion_pilot_GIST_update_2,2026.1.1,Win32,57.80346821,66a4fd0abda26954b4e43cc8,69b92ab4aef6dee357cd729a,69b92bd1e4529e9a69379854,0.4703,0.4703,1,26,188,65,1,onethree,,,,,,,,,,,,,,,,,,,,,,,,,,,,,,,,,,,,,,,,,,,,,,,,,,,,,,,,,,,,,,,,,,,,,,,,,,,,,,,,,,,,,,,,,,,,,,,,,,,,,,,,,,,,,,,,,,,,,,,,,,,,,,,,,,,,,,,,,
,,66a4fd0abda26954b4e43cc8,2026-03-17_12h25.35.296,kallum_motion_pilot_GIST_update_2,2026.1.1,Win32,57.80346821,66a4fd0abda26954b4e43cc8,69b92ab4aef6dee357cd729a,69b92bd1e4529e9a69379854,0.4713,0.4714,1,27,189,76,1,threeone,,,,,,,,,,,,,,,,,,,,,,,,,,,,,,,,,,,,,,,,,,,,,,,,,,,,,,,,,,,,,,,,,,,,,,,,,,,,,,,,,,,,,,,,,,,,,,,,,,,,,,,,,,,,,,,,,,,,,,,,,,,,,,,,,,,,,,,,,
,,66a4fd0abda26954b4e43cc8,2026-03-17_12h25.35.296,kallum_motion_pilot_GIST_update_2,2026.1.1,Win32,57.80346821,66a4fd0abda26954b4e43cc8,69b92ab4aef6dee357cd729a,69b92bd1e4529e9a69379854,0.4719,0.4722,1,28,190,39,1,fourthree,,,,,,,,,,,,,,,,,,,,,,,,,,,,,,,,,,,,,,,,,,,,,,,,,,,,,,,,,,,,,,,,,,,,,,,,,,,,,,,,,,,,,,,,,,,,,,,,,,,,,,,,,,,,,,,,,,,,,,,,,,,,,,,,,,,,,,,,,
,,66a4fd0abda26954b4e43cc8,2026-03-17_12h25.35.296,kallum_motion_pilot_GIST_update_2,2026.1.1,Win32,57.80346821,66a4fd0abda26954b4e43cc8,69b92ab4aef6dee357cd729a,69b92bd1e4529e9a69379854,0.4735,0.4735,1,29,191,59,1,twofour,,,,,,,,,,,,,,,,,,,,,,,,,,,,,,,,,,,,,,,,,,,,,,,,,,,,,,,,,,,,,,,,,,,,,,,,,,,,,,,,,,,,,,,,,,,,,,,,,,,,,,,,,,,,,,,,,,,,,,,,,,,,,,,,,,,,,,,,,
,,66a4fd0abda26954b4e43cc8,2026-03-17_12h25.35.296,kallum_motion_pilot_GIST_update_2,2026.1.1,Win32,57.80346821,66a4fd0abda26954b4e43cc8,69b92ab4aef6dee357cd729a,69b92bd1e4529e9a69379854,0.474,0.4741,1,30,192,133,1,seveneight,,,,,,,,,,,,,,,,,,,,,,,,,,,,,,,,,,,,,,,,,,,,,,,,,,,,,,,,,,,,,,,,,,,,,,,,,,,,,,,,,,,,,,,,,,,,,,,,,,,,,,,,,,,,,,,,,,,,,,,,,,,,,,,,,,,,,,,,,
,,66a4fd0abda26954b4e43cc8,2026-03-17_12h25.35.296,kallum_motion_pilot_GIST_update_2,2026.1.1,Win32,57.80346821,66a4fd0abda26954b4e43cc8,69b92ab4aef6dee357cd729a,69b92bd1e4529e9a69379854,0.4746,0.4746,1,31,193,48,1,onetwo,,,,,,,,,,,,,,,,,,,,,,,,,,,,,,,,,,,,,,,,,,,,,,,,,,,,,,,,,,,,,,,,,,,,,,,,,,,,,,,,,,,,,,,,,,,,,,,,,,,,,,,,,,,,,,,,,,,,,,,,,,,,,,,,,,,,,,,,,
,,66a4fd0abda26954b4e43cc8,2026-03-17_12h25.35.296,kallum_motion_pilot_GIST_update_2,2026.1.1,Win32,57.80346821,66a4fd0abda26954b4e43cc8,69b92ab4aef6dee357cd729a,69b92bd1e4529e9a69379854,0.4769,0.4769,1,32,194,5,1,threefour,,,,,,,,,,,,,,,,,,,,,,,,,,,,,,,,,,,,,,,,,,,,,,,,,,,,,,,,,,,,,,,,,,,,,,,,,,,,,,,,,,,,,,,,,,,,,,,,,,,,,,,,,,,,,,,,,,,,,,,,,,,,,,,,,,,,,,,,,
,,66a4fd0abda26954b4e43cc8,2026-03-17_12h25.35.296,kallum_motion_pilot_GIST_update_2,2026.1.1,Win32,57.80346821,66a4fd0abda26954b4e43cc8,69b92ab4aef6dee357cd729a,69b92bd1e4529e9a69379854,0.4776,0.4776,1,33,195,119,1,eightseven,,,,,,,,,,,,,,,,,,,,,,,,,,,,,,,,,,,,,,,,,,,,,,,,,,,,,,,,,,,,,,,,,,,,,,,,,,,,,,,,,,,,,,,,,,,,,,,,,,,,,,,,,,,,,,,,,,,,,,,,,,,,,,,,,,,,,,,,,
,,66a4fd0abda26954b4e43cc8,2026-03-17_12h25.35.296,kallum_motion_pilot_GIST_update_2,2026.1.1,Win32,57.80346821,66a4fd0abda26954b4e43cc8,69b92ab4aef6dee357cd729a,69b92bd1e4529e9a69379854,0.4782,0.4782,1,34,196,60,1,threeone,,,,,,,,,,,,,,,,,,,,,,,,,,,,,,,,,,,,,,,,,,,,,,,,,,,,,,,,,,,,,,,,,,,,,,,,,,,,,,,,,,,,,,,,,,,,,,,,,,,,,,,,,,,,,,,,,,,,,,,,,,,,,,,,,,,,,,,,,
,,66a4fd0abda26954b4e43cc8,2026-03-17_12h25.35.296,kallum_motion_pilot_GIST_update_2,2026.1.1,Win32,57.80346821,66a4fd0abda26954b4e43cc8,69b92ab4aef6dee357cd729a,69b92bd1e4529e9a69379854,0.4789,0.4789,1,35,197,141,1,seveneight,,,,,,,,,,,,,,,,,,,,,,,,,,,,,,,,,,,,,,,,,,,,,,,,,,,,,,,,,,,,,,,,,,,,,,,,,,,,,,,,,,,,,,,,,,,,,,,,,,,,,,,,,,,,,,,,,,,,,,,,,,,,,,,,,,,,,,,,,
,,66a4fd0abda26954b4e43cc8,2026-03-17_12h25.35.296,kallum_motion_pilot_GIST_update_2,2026.1.1,Win32,57.80346821,66a4fd0abda26954b4e43cc8,69b92ab4aef6dee357cd729a,69b92bd1e4529e9a69379854,0.4794,0.4795,1,36,198,57,1,onethree,,,,,,,,,,,,,,,,,,,,,,,,,,,,,,,,,,,,,,,,,,,,,,,,,,,,,,,,,,,,,,,,,,,,,,,,,,,,,,,,,,,,,,,,,,,,,,,,,,,,,,,,,,,,,,,,,,,,,,,,,,,,,,,,,,,,,,,,,
,,66a4fd0abda26954b4e43cc8,2026-03-17_12h25.35.296,kallum_motion_pilot_GIST_update_2,2026.1.1,Win32,57.80346821,66a4fd0abda26954b4e43cc8,69b92ab4aef6dee357cd729a,69b92bd1e4529e9a69379854,0.4801,0.4801,1,37,199,109,1,seveneight,,,,,,,,,,,,,,,,,,,,,,,,,,,,,,,,,,,,,,,,,,,,,,,,,,,,,,,,,,,,,,,,,,,,,,,,,,,,,,,,,,,,,,,,,,,,,,,,,,,,,,,,,,,,,,,,,,,,,,,,,,,,,,,,,,,,,,,,,
,,66a4fd0abda26954b4e43cc8,2026-03-17_12h25.35.296,kallum_motion_pilot_GIST_update_2,2026.1.1,Win32,57.80346821,66a4fd0abda26954b4e43cc8,69b92ab4aef6dee357cd729a,69b92bd1e4529e9a69379854,0.4806,0.4807,1,38,200,122,1,sixfive,,,,,,,,,,,,,,,,,,,,,,,,,,,,,,,,,,,,,,,,,,,,,,,,,,,,,,,,,,,,,,,,,,,,,,,,,,,,,,,,,,,,,,,,,,,,,,,,,,,,,,,,,,,,,,,,,,,,,,,,,,,,,,,,,,,,,,,,,
,,66a4fd0abda26954b4e43cc8,2026-03-17_12h25.35.296,kallum_motion_pilot_GIST_update_2,2026.1.1,Win32,57.80346821,66a4fd0abda26954b4e43cc8,69b92ab4aef6dee357cd729a,69b92bd1e4529e9a69379854,0.4811,0.4811,1,39,201,7,1,fourthree,,,,,,,,,,,,,,,,,,,,,,,,,,,,,,,,,,,,,,,,,,,,,,,,,,,,,,,,,,,,,,,,,,,,,,,,,,,,,,,,,,,,,,,,,,,,,,,,,,,,,,,,,,,,,,,,,,,,,,,,,,,,,,,,,,,,,,,,,
,,66a4fd0abda26954b4e43cc8,2026-03-17_12h25.35.296,kallum_motion_pilot_GIST_update_2,2026.1.1,Win32,57.80346821,66a4fd0abda26954b4e43cc8,69b92ab4aef6dee357cd729a,69b92bd1e4529e9a69379854,0.4816,0.4816,1,40,202,51,1,twofour,,,,,,,,,,,,,,,,,,,,,,,,,,,,,,,,,,,,,,,,,,,,,,,,,,,,,,,,,,,,,,,,,,,,,,,,,,,,,,,,,,,,,,,,,,,,,,,,,,,,,,,,,,,,,,,,,,,,,,,,,,,,,,,,,,,,,,,,,
,,66a4fd0abda26954b4e43cc8,2026-03-17_12h25.35.296,kallum_motion_pilot_GIST_update_2,2026.1.1,Win32,57.80346821,66a4fd0abda26954b4e43cc8,69b92ab4aef6dee357cd729a,69b92bd1e4529e9a69379854,0.4821,0.4821,1,41,203,118,1,eightsix,,,,,,,,,,,,,,,,,,,,,,,,,,,,,,,,,,,,,,,,,,,,,,,,,,,,,,,,,,,,,,,,,,,,,,,,,,,,,,,,,,,,,,,,,,,,,,,,,,,,,,,,,,,,,,,,,,,,,,,,,,,,,,,,,,,,,,,,,
,,66a4fd0abda26954b4e43cc8,2026-03-17_12h25.35.296,kallum_motion_pilot_GIST_update_2,2026.1.1,Win32,57.80346821,66a4fd0abda26954b4e43cc8,69b92ab4aef6dee357cd729a,69b92bd1e4529e9a69379854,0.4869,0.487,1,42,204,2,1,twoone,,,,,,,,,,,,,,,,,,,,,,,,,,,,,,,,,,,,,,,,,,,,,,,,,,,,,,,,,,,,,,,,,,,,,,,,,,,,,,,,,,,,,,,,,,,,,,,,,,,,,,,,,,,,,,,,,,,,,,,,,,,,,,,,,,,,,,,,,
,,66a4fd0abda26954b4e43cc8,2026-03-17_12h25.35.296,kallum_motion_pilot_GIST_update_2,2026.1.1,Win32,57.80346821,66a4fd0abda26954b4e43cc8,69b92ab4aef6dee357cd729a,69b92bd1e4529e9a69379854,0.4875,0.4875,1,43,205,124,1,sevenfive,,,,,,,,,,,,,,,,,,,,,,,,,,,,,,,,,,,,,,,,,,,,,,,,,,,,,,,,,,,,,,,,,,,,,,,,,,,,,,,,,,,,,,,,,,,,,,,,,,,,,,,,,,,,,,,,,,,,,,,,,,,,,,,,,,,,,,,,,
,,66a4fd0abda26954b4e43cc8,2026-03-17_12h25.35.296,kallum_motion_pilot_GIST_update_2,2026.1.1,Win32,57.80346821,66a4fd0abda26954b4e43cc8,69b92ab4aef6dee357cd729a,69b92bd1e4529e9a69379854,0.4896,0.4897,1,44,206,29,1,threefour,,,,,,,,,,,,,,,,,,,,,,,,,,,,,,,,,,,,,,,,,,,,,,,,,,,,,,,,,,,,,,,,,,,,,,,,,,,,,,,,,,,,,,,,,,,,,,,,,,,,,,,,,,,,,,,,,,,,,,,,,,,,,,,,,,,,,,,,,
,,66a4fd0abda26954b4e43cc8,2026-03-17_12h25.35.296,kallum_motion_pilot_GIST_update_2,2026.1.1,Win32,57.80346821,66a4fd0abda26954b4e43cc8,69b92ab4aef6dee357cd729a,69b92bd1e4529e9a69379854,0.4932,0.4933,1,45,207,45,1,threefour,,,,,,,,,,,,,,,,,,,,,,,,,,,,,,,,,,,,,,,,,,,,,,,,,,,,,,,,,,,,,,,,,,,,,,,,,,,,,,,,,,,,,,,,,,,,,,,,,,,,,,,,,,,,,,,,,,,,,,,,,,,,,,,,,,,,,,,,,
,,66a4fd0abda26954b4e43cc8,2026-03-17_12h25.35.296,kallum_motion_pilot_GIST_update_2,2026.1.1,Win32,57.80346821,66a4fd0abda26954b4e43cc8,69b92ab4aef6dee357cd729a,69b92bd1e4529e9a69379854,0.4961,0.4962,1,46,208,25,1,onethree,,,,,,,,,,,,,,,,,,,,,,,,,,,,,,,,,,,,,,,,,,,,,,,,,,,,,,,,,,,,,,,,,,,,,,,,,,,,,,,,,,,,,,,,,,,,,,,,,,,,,,,,,,,,,,,,,,,,,,,,,,,,,,,,,,,,,,,,,
,,66a4fd0abda26954b4e43cc8,2026-03-17_12h25.35.296,kallum_motion_pilot_GIST_update_2,2026.1.1,Win32,57.80346821,66a4fd0abda26954b4e43cc8,69b92ab4aef6dee357cd729a,69b92bd1e4529e9a69379854,0.4978,0.4979,1,47,209,68,1,threeone,,,,,,,,,,,,,,,,,,,,,,,,,,,,,,,,,,,,,,,,,,,,,,,,,,,,,,,,,,,,,,,,,,,,,,,,,,,,,,,,,,,,,,,,,,,,,,,,,,,,,,,,,,,,,,,,,,,,,,,,,,,,,,,,,,,,,,,,,
,,66a4fd0abda26954b4e43cc8,2026-03-17_12h25.35.296,kallum_motion_pilot_GIST_update_2,2026.1.1,Win32,57.80346821,66a4fd0abda26954b4e43cc8,69b92ab4aef6dee357cd729a,69b92bd1e4529e9a69379854,0.499,0.4991,1,48,210,54,1,fourtwo,,,,,,,,,,,,,,,,,,,,,,,,,,,,,,,,,,,,,,,,,,,,,,,,,,,,,,,,,,,,,,,,,,,,,,,,,,,,,,,,,,,,,,,,,,,,,,,,,,,,,,,,,,,,,,,,,,,,,,,,,,,,,,,,,,,,,,,,,
,,66a4fd0abda26954b4e43cc8,2026-03-17_12h25.35.296,kallum_motion_pilot_GIST_update_2,2026.1.1,Win32,57.80346821,66a4fd0abda26954b4e43cc8,69b92ab4aef6dee357cd729a,69b92bd1e4529e9a69379854,0.4997,0.4997,1,49,211,127,1,eightseven,,,,,,,,,,,,,,,,,,,,,,,,,,,,,,,,,,,,,,,,,,,,,,,,,,,,,,,,,,,,,,,,,,,,,,,,,,,,,,,,,,,,,,,,,,,,,,,,,,,,,,,,,,,,,,,,,,,,,,,,,,,,,,,,,,,,,,,,,
,,66a4fd0abda26954b4e43cc8,2026-03-17_12h25.35.296,kallum_motion_pilot_GIST_update_2,2026.1.1,Win32,57.80346821,66a4fd0abda26954b4e43cc8,69b92ab4aef6dee357cd729a,69b92bd1e4529e9a69379854,0.5002,0.5003,1,50,212,99,1,sixeight,,,,,,,,,,,,,,,,,,,,,,,,,,,,,,,,,,,,,,,,,,,,,,,,,,,,,,,,,,,,,,,,,,,,,,,,,,,,,,,,,,,,,,,,,,,,,,,,,,,,,,,,,,,,,,,,,,,,,,,,,,,,,,,,,,,,,,,,,
,,66a4fd0abda26954b4e43cc8,2026-03-17_12h25.35.296,kallum_motion_pilot_GIST_update_2,2026.1.1,Win32,57.80346821,66a4fd0abda26954b4e43cc8,69b92ab4aef6dee357cd729a,69b92bd1e4529e9a69379854,0.5008,0.5008,1,51,213,62,1,fourtwo,,,,,,,,,,,,,,,,,,,,,,,,,,,,,,,,,,,,,,,,,,,,,,,,,,,,,,,,,,,,,,,,,,,,,,,,,,,,,,,,,,,,,,,,,,,,,,,,,,,,,,,,,,,,,,,,,,,,,,,,,,,,,,,,,,,,,,,,,
,,66a4fd0abda26954b4e43cc8,2026-03-17_12h25.35.296,kallum_motion_pilot_GIST_update_2,2026.1.1,Win32,57.80346821,66a4fd0abda26954b4e43cc8,69b92ab4aef6dee357cd729a,69b92bd1e4529e9a69379854,0.5013,0.5013,1,52,214,10,1,twoone,,,,,,,,,,,,,,,,,,,,,,,,,,,,,,,,,,,,,,,,,,,,,,,,,,,,,,,,,,,,,,,,,,,,,,,,,,,,,,,,,,,,,,,,,,,,,,,,,,,,,,,,,,,,,,,,,,,,,,,,,,,,,,,,,,,,,,,,,
,,66a4fd0abda26954b4e43cc8,2026-03-17_12h25.35.296,kallum_motion_pilot_GIST_update_2,2026.1.1,Win32,57.80346821,66a4fd0abda26954b4e43cc8,69b92ab4aef6dee357cd729a,69b92bd1e4529e9a69379854,0.5022,0.5023,1,53,215,113,1,fiveseven,,,,,,,,,,,,,,,,,,,,,,,,,,,,,,,,,,,,,,,,,,,,,,,,,,,,,,,,,,,,,,,,,,,,,,,,,,,,,,,,,,,,,,,,,,,,,,,,,,,,,,,,,,,,,,,,,,,,,,,,,,,,,,,,,,,,,,,,,
,,66a4fd0abda26954b4e43cc8,2026-03-17_12h25.35.296,kallum_motion_pilot_GIST_update_2,2026.1.1,Win32,57.80346821,66a4fd0abda26954b4e43cc8,69b92ab4aef6dee357cd729a,69b92bd1e4529e9a69379854,0.5029,0.503,1,54,216,112,1,fivesix,,,,,,,,,,,,,,,,,,,,,,,,,,,,,,,,,,,,,,,,,,,,,,,,,,,,,,,,,,,,,,,,,,,,,,,,,,,,,,,,,,,,,,,,,,,,,,,,,,,,,,,,,,,,,,,,,,,,,,,,,,,,,,,,,,,,,,,,,
,,66a4fd0abda26954b4e43cc8,2026-03-17_12h25.35.296,kallum_motion_pilot_GIST_update_2,2026.1.1,Win32,57.80346821,66a4fd0abda26954b4e43cc8,69b92ab4aef6dee357cd729a,69b92bd1e4529e9a69379854,0.5042,0.5042,1,55,217,1,1,onethree,,,,,,,,,,,,,,,,,,,,,,,,,,,,,,,,,,,,,,,,,,,,,,,,,,,,,,,,,,,,,,,,,,,,,,,,,,,,,,,,,,,,,,,,,,,,,,,,,,,,,,,,,,,,,,,,,,,,,,,,,,,,,,,,,,,,,,,,,
,,66a4fd0abda26954b4e43cc8,2026-03-17_12h25.35.296,kallum_motion_pilot_GIST_update_2,2026.1.1,Win32,57.80346821,66a4fd0abda26954b4e43cc8,69b92ab4aef6dee357cd729a,69b92bd1e4529e9a69379854,0.5053,0.5053,1,56,218,55,1,fourthree,,,,,,,,,,,,,,,,,,,,,,,,,,,,,,,,,,,,,,,,,,,,,,,,,,,,,,,,,,,,,,,,,,,,,,,,,,,,,,,,,,,,,,,,,,,,,,,,,,,,,,,,,,,,,,,,,,,,,,,,,,,,,,,,,,,,,,,,,
,,66a4fd0abda26954b4e43cc8,2026-03-17_12h25.35.296,kallum_motion_pilot_GIST_update_2,2026.1.1,Win32,57.80346821,66a4fd0abda26954b4e43cc8,69b92ab4aef6dee357cd729a,69b92bd1e4529e9a69379854,0.5061,0.5062,1,57,219,157,1,seveneight,,,,,,,,,,,,,,,,,,,,,,,,,,,,,,,,,,,,,,,,,,,,,,,,,,,,,,,,,,,,,,,,,,,,,,,,,,,,,,,,,,,,,,,,,,,,,,,,,,,,,,,,,,,,,,,,,,,,,,,,,,,,,,,,,,,,,,,,,
,,66a4fd0abda26954b4e43cc8,2026-03-17_12h25.35.296,kallum_motion_pilot_GIST_update_2,2026.1.1,Win32,57.80346821,66a4fd0abda26954b4e43cc8,69b92ab4aef6dee357cd729a,69b92bd1e4529e9a69379854,0.5096,0.5097,1,58,220,34,1,twoone,,,,,,,,,,,,,,,,,,,,,,,,,,,,,,,,,,,,,,,,,,,,,,,,,,,,,,,,,,,,,,,,,,,,,,,,,,,,,,,,,,,,,,,,,,,,,,,,,,,,,,,,,,,,,,,,,,,,,,,,,,,,,,,,,,,,,,,,,
,,66a4fd0abda26954b4e43cc8,2026-03-17_12h25.35.296,kallum_motion_pilot_GIST_update_2,2026.1.1,Win32,57.80346821,66a4fd0abda26954b4e43cc8,69b92ab4aef6dee357cd729a,69b92bd1e4529e9a69379854,0.5109,0.5109,1,59,221,137,1,fiveseven,,,,,,,,,,,,,,,,,,,,,,,,,,,,,,,,,,,,,,,,,,,,,,,,,,,,,,,,,,,,,,,,,,,,,,,,,,,,,,,,,,,,,,,,,,,,,,,,,,,,,,,,,,,,,,,,,,,,,,,,,,,,,,,,,,,,,,,,,
,,66a4fd0abda26954b4e43cc8,2026-03-17_12h25.35.296,kallum_motion_pilot_GIST_update_2,2026.1.1,Win32,57.80346821,66a4fd0abda26954b4e43cc8,69b92ab4aef6dee357cd729a,69b92bd1e4529e9a69379854,0.5122,0.5122,1,60,222,18,1,twoone,,,,,,,,,,,,,,,,,,,,,,,,,,,,,,,,,,,,,,,,,,,,,,,,,,,,,,,,,,,,,,,,,,,,,,,,,,,,,,,,,,,,,,,,,,,,,,,,,,,,,,,,,,,,,,,,,,,,,,,,,,,,,,,,,,,,,,,,,
,,66a4fd0abda26954b4e43cc8,2026-03-17_12h25.35.296,kallum_motion_pilot_GIST_update_2,2026.1.1,Win32,57.80346821,66a4fd0abda26954b4e43cc8,69b92ab4aef6dee357cd729a,69b92bd1e4529e9a69379854,0.5133,0.5135,1,61,223,155,1,sixeight,,,,,,,,,,,,,,,,,,,,,,,,,,,,,,,,,,,,,,,,,,,,,,,,,,,,,,,,,,,,,,,,,,,,,,,,,,,,,,,,,,,,,,,,,,,,,,,,,,,,,,,,,,,,,,,,,,,,,,,,,,,,,,,,,,,,,,,,,
,,66a4fd0abda26954b4e43cc8,2026-03-17_12h25.35.296,kallum_motion_pilot_GIST_update_2,2026.1.1,Win32,57.80346821,66a4fd0abda26954b4e43cc8,69b92ab4aef6dee357cd729a,69b92bd1e4529e9a69379854,0.5157,0.5157,1,62,224,130,1,sixfive,,,,,,,,,,,,,,,,,,,,,,,,,,,,,,,,,,,,,,,,,,,,,,,,,,,,,,,,,,,,,,,,,,,,,,,,,,,,,,,,,,,,,,,,,,,,,,,,,,,,,,,,,,,,,,,,,,,,,,,,,,,,,,,,,,,,,,,,,
,,66a4fd0abda26954b4e43cc8,2026-03-17_12h25.35.296,kallum_motion_pilot_GIST_update_2,2026.1.1,Win32,57.80346821,66a4fd0abda26954b4e43cc8,69b92ab4aef6dee357cd729a,69b92bd1e4529e9a69379854,0.5169,0.5169,1,63,225,70,1,fourtwo,,,,,,,,,,,,,,,,,,,,,,,,,,,,,,,,,,,,,,,,,,,,,,,,,,,,,,,,,,,,,,,,,,,,,,,,,,,,,,,,,,,,,,,,,,,,,,,,,,,,,,,,,,,,,,,,,,,,,,,,,,,,,,,,,,,,,,,,,
,,66a4fd0abda26954b4e43cc8,2026-03-17_12h25.35.296,kallum_motion_pilot_GIST_update_2,2026.1.1,Win32,57.80346821,66a4fd0abda26954b4e43cc8,69b92ab4aef6dee357cd729a,69b92bd1e4529e9a69379854,0.5179,0.5179,1,64,226,0,1,onetwo,,,,,,,,,,,,,,,,,,,,,,,,,,,,,,,,,,,,,,,,,,,,,,,,,,,,,,,,,,,,,,,,,,,,,,,,,,,,,,,,,,,,,,,,,,,,,,,,,,,,,,,,,,,,,,,,,,,,,,,,,,,,,,,,,,,,,,,,,
,,66a4fd0abda26954b4e43cc8,2026-03-17_12h25.35.296,kallum_motion_pilot_GIST_update_2,2026.1.1,Win32,57.80346821,66a4fd0abda26954b4e43cc8,69b92ab4aef6dee357cd729a,69b92bd1e4529e9a69379854,0.5195,0.5195,1,65,227,61,1,threefour,,,,,,,,,,,,,,,,,,,,,,,,,,,,,,,,,,,,,,,,,,,,,,,,,,,,,,,,,,,,,,,,,,,,,,,,,,,,,,,,,,,,,,,,,,,,,,,,,,,,,,,,,,,,,,,,,,,,,,,,,,,,,,,,,,,,,,,,,
,,66a4fd0abda26954b4e43cc8,2026-03-17_12h25.35.296,kallum_motion_pilot_GIST_update_2,2026.1.1,Win32,57.80346821,66a4fd0abda26954b4e43cc8,69b92ab4aef6dee357cd729a,69b92bd1e4529e9a69379854,0.5221,0.5222,1,66,228,159,1,eightseven,,,,,,,,,,,,,,,,,,,,,,,,,,,,,,,,,,,,,,,,,,,,,,,,,,,,,,,,,,,,,,,,,,,,,,,,,,,,,,,,,,,,,,,,,,,,,,,,,,,,,,,,,,,,,,,,,,,,,,,,,,,,,,,,,,,,,,,,,
,,66a4fd0abda26954b4e43cc8,2026-03-17_12h25.35.296,kallum_motion_pilot_GIST_update_2,2026.1.1,Win32,57.80346821,66a4fd0abda26954b4e43cc8,69b92ab4aef6dee357cd729a,69b92bd1e4529e9a69379854,0.5233,0.5234,1,67,229,77,1,threefour,,,,,,,,,,,,,,,,,,,,,,,,,,,,,,,,,,,,,,,,,,,,,,,,,,,,,,,,,,,,,,,,,,,,,,,,,,,,,,,,,,,,,,,,,,,,,,,,,,,,,,,,,,,,,,,,,,,,,,,,,,,,,,,,,,,,,,,,,
,,66a4fd0abda26954b4e43cc8,2026-03-17_12h25.35.296,kallum_motion_pilot_GIST_update_2,2026.1.1,Win32,57.80346821,66a4fd0abda26954b4e43cc8,69b92ab4aef6dee357cd729a,69b92bd1e4529e9a69379854,0.5271,0.5271,1,68,230,24,1,onetwo,,,,,,,,,,,,,,,,,,,,,,,,,,,,,,,,,,,,,,,,,,,,,,,,,,,,,,,,,,,,,,,,,,,,,,,,,,,,,,,,,,,,,,,,,,,,,,,,,,,,,,,,,,,,,,,,,,,,,,,,,,,,,,,,,,,,,,,,,
,,66a4fd0abda26954b4e43cc8,2026-03-17_12h25.35.296,kallum_motion_pilot_GIST_update_2,2026.1.1,Win32,57.80346821,66a4fd0abda26954b4e43cc8,69b92ab4aef6dee357cd729a,69b92bd1e4529e9a69379854,0.5285,0.5285,1,69,231,135,1,eightseven,,,,,,,,,,,,,,,,,,,,,,,,,,,,,,,,,,,,,,,,,,,,,,,,,,,,,,,,,,,,,,,,,,,,,,,,,,,,,,,,,,,,,,,,,,,,,,,,,,,,,,,,,,,,,,,,,,,,,,,,,,,,,,,,,,,,,,,,,
,,66a4fd0abda26954b4e43cc8,2026-03-17_12h25.35.296,kallum_motion_pilot_GIST_update_2,2026.1.1,Win32,57.80346821,66a4fd0abda26954b4e43cc8,69b92ab4aef6dee357cd729a,69b92bd1e4529e9a69379854,0.5296,0.5297,1,70,232,46,1,fourtwo,,,,,,,,,,,,,,,,,,,,,,,,,,,,,,,,,,,,,,,,,,,,,,,,,,,,,,,,,,,,,,,,,,,,,,,,,,,,,,,,,,,,,,,,,,,,,,,,,,,,,,,,,,,,,,,,,,,,,,,,,,,,,,,,,,,,,,,,,
,,66a4fd0abda26954b4e43cc8,2026-03-17_12h25.35.296,kallum_motion_pilot_GIST_update_2,2026.1.1,Win32,57.80346821,66a4fd0abda26954b4e43cc8,69b92ab4aef6dee357cd729a,69b92bd1e4529e9a69379854,0.5308,0.5309,1,71,233,92,1,sevenfive,,,,,,,,,,,,,,,,,,,,,,,,,,,,,,,,,,,,,,,,,,,,,,,,,,,,,,,,,,,,,,,,,,,,,,,,,,,,,,,,,,,,,,,,,,,,,,,,,,,,,,,,,,,,,,,,,,,,,,,,,,,,,,,,,,,,,,,,,
,,66a4fd0abda26954b4e43cc8,2026-03-17_12h25.35.296,kallum_motion_pilot_GIST_update_2,2026.1.1,Win32,57.80346821,66a4fd0abda26954b4e43cc8,69b92ab4aef6dee357cd729a,69b92bd1e4529e9a69379854,0.5318,0.5318,1,72,234,72,1,onetwo,,,,,,,,,,,,,,,,,,,,,,,,,,,,,,,,,,,,,,,,,,,,,,,,,,,,,,,,,,,,,,,,,,,,,,,,,,,,,,,,,,,,,,,,,,,,,,,,,,,,,,,,,,,,,,,,,,,,,,,,,,,,,,,,,,,,,,,,,
,,66a4fd0abda26954b4e43cc8,2026-03-17_12h25.35.296,kallum_motion_pilot_GIST_update_2,2026.1.1,Win32,57.80346821,66a4fd0abda26954b4e43cc8,69b92ab4aef6dee357cd729a,69b92bd1e4529e9a69379854,0.5328,0.5329,1,73,235,38,1,fourtwo,,,,,,,,,,,,,,,,,,,,,,,,,,,,,,,,,,,,,,,,,,,,,,,,,,,,,,,,,,,,,,,,,,,,,,,,,,,,,,,,,,,,,,,,,,,,,,,,,,,,,,,,,,,,,,,,,,,,,,,,,,,,,,,,,,,,,,,,,
,,66a4fd0abda26954b4e43cc8,2026-03-17_12h25.35.296,kallum_motion_pilot_GIST_update_2,2026.1.1,Win32,57.80346821,66a4fd0abda26954b4e43cc8,69b92ab4aef6dee357cd729a,69b92bd1e4529e9a69379854,0.5352,0.5353,1,74,236,12,1,threeone,,,,,,,,,,,,,,,,,,,,,,,,,,,,,,,,,,,,,,,,,,,,,,,,,,,,,,,,,,,,,,,,,,,,,,,,,,,,,,,,,,,,,,,,,,,,,,,,,,,,,,,,,,,,,,,,,,,,,,,,,,,,,,,,,,,,,,,,,
,,66a4fd0abda26954b4e43cc8,2026-03-17_12h25.35.296,kallum_motion_pilot_GIST_update_2,2026.1.1,Win32,57.80346821,66a4fd0abda26954b4e43cc8,69b92ab4aef6dee357cd729a,69b92bd1e4529e9a69379854,0.5369,0.5369,1,75,237,103,1,eightseven,,,,,,,,,,,,,,,,,,,,,,,,,,,,,,,,,,,,,,,,,,,,,,,,,,,,,,,,,,,,,,,,,,,,,,,,,,,,,,,,,,,,,,,,,,,,,,,,,,,,,,,,,,,,,,,,,,,,,,,,,,,,,,,,,,,,,,,,,
,,66a4fd0abda26954b4e43cc8,2026-03-17_12h25.35.296,kallum_motion_pilot_GIST_update_2,2026.1.1,Win32,57.80346821,66a4fd0abda26954b4e43cc8,69b92ab4aef6dee357cd729a,69b92bd1e4529e9a69379854,0.5386,0.5387,1,76,238,126,1,eightsix,,,,,,,,,,,,,,,,,,,,,,,,,,,,,,,,,,,,,,,,,,,,,,,,,,,,,,,,,,,,,,,,,,,,,,,,,,,,,,,,,,,,,,,,,,,,,,,,,,,,,,,,,,,,,,,,,,,,,,,,,,,,,,,,,,,,,,,,,
,,66a4fd0abda26954b4e43cc8,2026-03-17_12h25.35.296,kallum_motion_pilot_GIST_update_2,2026.1.1,Win32,57.80346821,66a4fd0abda26954b4e43cc8,69b92ab4aef6dee357cd729a,69b92bd1e4529e9a69379854,0.5402,0.5402,1,77,239,28,1,threeone,,,,,,,,,,,,,,,,,,,,,,,,,,,,,,,,,,,,,,,,,,,,,,,,,,,,,,,,,,,,,,,,,,,,,,,,,,,,,,,,,,,,,,,,,,,,,,,,,,,,,,,,,,,,,,,,,,,,,,,,,,,,,,,,,,,,,,,,,
,,66a4fd0abda26954b4e43cc8,2026-03-17_12h25.35.296,kallum_motion_pilot_GIST_update_2,2026.1.1,Win32,57.80346821,66a4fd0abda26954b4e43cc8,69b92ab4aef6dee357cd729a,69b92bd1e4529e9a69379854,0.5412,0.5413,1,78,240,104,1,fivesix,,,,,,,,,,,,,,,,,,,,,,,,,,,,,,,,,,,,,,,,,,,,,,,,,,,,,,,,,,,,,,,,,,,,,,,,,,,,,,,,,,,,,,,,,,,,,,,,,,,,,,,,,,,,,,,,,,,,,,,,,,,,,,,,,,,,,,,,,
,,66a4fd0abda26954b4e43cc8,2026-03-17_12h25.35.296,kallum_motion_pilot_GIST_update_2,2026.1.1,Win32,57.80346821,66a4fd0abda26954b4e43cc8,69b92ab4aef6dee357cd729a,69b92bd1e4529e9a69379854,0.5436,0.5438,1,79,241,116,1,sevenfive,,,,,,,,,,,,,,,,,,,,,,,,,,,,,,,,,,,,,,,,,,,,,,,,,,,,,,,,,,,,,,,,,,,,,,,,,,,,,,,,,,,,,,,,,,,,,,,,,,,,,,,,,,,,,,,,,,,,,,,,,,,,,,,,,,,,,,,,,
,,66a4fd0abda26954b4e43cc8,2026-03-17_12h25.35.296,kallum_motion_pilot_GIST_update_2,2026.1.1,Win32,57.80346821,66a4fd0abda26954b4e43cc8,69b92ab4aef6dee357cd729a,69b92bd1e4529e9a69379854,0.5457,0.5458,1,80,242,85,1,seveneight,,,,,,,,,,,,,,,,,,,,,,,,,,,,,,,,,,,,,,,,,,,,,,,,,,,,,,,,,,,,,,,,,,,,,,,,,,,,,,,,,,,,,,,,,,,,,,,,,,,,,,,,,,,,,,,,,,,,,,,,,,,,,,,,,,,,,,,,,
,,66a4fd0abda26954b4e43cc8,2026-03-17_12h25.35.296,kallum_motion_pilot_GIST_update_2,2026.1.1,Win32,57.80346821,66a4fd0abda26954b4e43cc8,69b92ab4aef6dee357cd729a,69b92bd1e4529e9a69379854,0.5469,0.547,1,81,243,33,1,onethree,,,,,,,,,,,,,,,,,,,,,,,,,,,,,,,,,,,,,,,,,,,,,,,,,,,,,,,,,,,,,,,,,,,,,,,,,,,,,,,,,,,,,,,,,,,,,,,,,,,,,,,,,,,,,,,,,,,,,,,,,,,,,,,,,,,,,,,,,
,,66a4fd0abda26954b4e43cc8,2026-03-17_12h25.35.296,kallum_motion_pilot_GIST_update_2,2026.1.1,Win32,57.80346821,66a4fd0abda26954b4e43cc8,69b92ab4aef6dee357cd729a,69b92bd1e4529e9a69379854,0.5479,0.5479,1,82,244,107,1,sixeight,,,,,,,,,,,,,,,,,,,,,,,,,,,,,,,,,,,,,,,,,,,,,,,,,,,,,,,,,,,,,,,,,,,,,,,,,,,,,,,,,,,,,,,,,,,,,,,,,,,,,,,,,,,,,,,,,,,,,,,,,,,,,,,,,,,,,,,,,
,,66a4fd0abda26954b4e43cc8,2026-03-17_12h25.35.296,kallum_motion_pilot_GIST_update_2,2026.1.1,Win32,57.80346821,66a4fd0abda26954b4e43cc8,69b92ab4aef6dee357cd729a,69b92bd1e4529e9a69379854,0.549,0.549,1,83,245,91,1,sixeight,,,,,,,,,,,,,,,,,,,,,,,,,,,,,,,,,,,,,,,,,,,,,,,,,,,,,,,,,,,,,,,,,,,,,,,,,,,,,,,,,,,,,,,,,,,,,,,,,,,,,,,,,,,,,,,,,,,,,,,,,,,,,,,,,,,,,,,,,
,,66a4fd0abda26954b4e43cc8,2026-03-17_12h25.35.296,kallum_motion_pilot_GIST_update_2,2026.1.1,Win32,57.80346821,66a4fd0abda26954b4e43cc8,69b92ab4aef6dee357cd729a,69b92bd1e4529e9a69379854,0.5499,0.5501,1,84,246,15,1,fourthree,,,,,,,,,,,,,,,,,,,,,,,,,,,,,,,,,,,,,,,,,,,,,,,,,,,,,,,,,,,,,,,,,,,,,,,,,,,,,,,,,,,,,,,,,,,,,,,,,,,,,,,,,,,,,,,,,,,,,,,,,,,,,,,,,,,,,,,,,
,,66a4fd0abda26954b4e43cc8,2026-03-17_12h25.35.296,kallum_motion_pilot_GIST_update_2,2026.1.1,Win32,57.80346821,66a4fd0abda26954b4e43cc8,69b92ab4aef6dee357cd729a,69b92bd1e4529e9a69379854,0.551,0.5511,1,85,247,66,1,twoone,,,,,,,,,,,,,,,,,,,,,,,,,,,,,,,,,,,,,,,,,,,,,,,,,,,,,,,,,,,,,,,,,,,,,,,,,,,,,,,,,,,,,,,,,,,,,,,,,,,,,,,,,,,,,,,,,,,,,,,,,,,,,,,,,,,,,,,,,
,,66a4fd0abda26954b4e43cc8,2026-03-17_12h25.35.296,kallum_motion_pilot_GIST_update_2,2026.1.1,Win32,57.80346821,66a4fd0abda26954b4e43cc8,69b92ab4aef6dee357cd729a,69b92bd1e4529e9a69379854,0.5523,0.5524,1,86,248,87,1,eightseven,,,,,,,,,,,,,,,,,,,,,,,,,,,,,,,,,,,,,,,,,,,,,,,,,,,,,,,,,,,,,,,,,,,,,,,,,,,,,,,,,,,,,,,,,,,,,,,,,,,,,,,,,,,,,,,,,,,,,,,,,,,,,,,,,,,,,,,,,
,,66a4fd0abda26954b4e43cc8,2026-03-17_12h25.35.296,kallum_motion_pilot_GIST_update_2,2026.1.1,Win32,57.80346821,66a4fd0abda26954b4e43cc8,69b92ab4aef6dee357cd729a,69b92bd1e4529e9a69379854,0.5532,0.5534,1,87,249,125,1,seveneight,,,,,,,,,,,,,,,,,,,,,,,,,,,,,,,,,,,,,,,,,,,,,,,,,,,,,,,,,,,,,,,,,,,,,,,,,,,,,,,,,,,,,,,,,,,,,,,,,,,,,,,,,,,,,,,,,,,,,,,,,,,,,,,,,,,,,,,,,
,,66a4fd0abda26954b4e43cc8,2026-03-17_12h25.35.296,kallum_motion_pilot_GIST_update_2,2026.1.1,Win32,57.80346821,66a4fd0abda26954b4e43cc8,69b92ab4aef6dee357cd729a,69b92bd1e4529e9a69379854,0.5556,0.5556,1,88,250,138,1,sixfive,,,,,,,,,,,,,,,,,,,,,,,,,,,,,,,,,,,,,,,,,,,,,,,,,,,,,,,,,,,,,,,,,,,,,,,,,,,,,,,,,,,,,,,,,,,,,,,,,,,,,,,,,,,,,,,,,,,,,,,,,,,,,,,,,,,,,,,,,
,,66a4fd0abda26954b4e43cc8,2026-03-17_12h25.35.296,kallum_motion_pilot_GIST_update_2,2026.1.1,Win32,57.80346821,66a4fd0abda26954b4e43cc8,69b92ab4aef6dee357cd729a,69b92bd1e4529e9a69379854,0.5568,0.5569,1,89,251,146,1,sixfive,,,,,,,,,,,,,,,,,,,,,,,,,,,,,,,,,,,,,,,,,,,,,,,,,,,,,,,,,,,,,,,,,,,,,,,,,,,,,,,,,,,,,,,,,,,,,,,,,,,,,,,,,,,,,,,,,,,,,,,,,,,,,,,,,,,,,,,,,
,,66a4fd0abda26954b4e43cc8,2026-03-17_12h25.35.296,kallum_motion_pilot_GIST_update_2,2026.1.1,Win32,57.80346821,66a4fd0abda26954b4e43cc8,69b92ab4aef6dee357cd729a,69b92bd1e4529e9a69379854,0.5577,0.5577,1,90,252,17,1,onethree,,,,,,,,,,,,,,,,,,,,,,,,,,,,,,,,,,,,,,,,,,,,,,,,,,,,,,,,,,,,,,,,,,,,,,,,,,,,,,,,,,,,,,,,,,,,,,,,,,,,,,,,,,,,,,,,,,,,,,,,,,,,,,,,,,,,,,,,,
,,66a4fd0abda26954b4e43cc8,2026-03-17_12h25.35.296,kallum_motion_pilot_GIST_update_2,2026.1.1,Win32,57.80346821,66a4fd0abda26954b4e43cc8,69b92ab4aef6dee357cd729a,69b92bd1e4529e9a69379854,0.5597,0.5598,1,91,253,89,1,fiveseven,,,,,,,,,,,,,,,,,,,,,,,,,,,,,,,,,,,,,,,,,,,,,,,,,,,,,,,,,,,,,,,,,,,,,,,,,,,,,,,,,,,,,,,,,,,,,,,,,,,,,,,,,,,,,,,,,,,,,,,,,,,,,,,,,,,,,,,,,
,,66a4fd0abda26954b4e43cc8,2026-03-17_12h25.35.296,kallum_motion_pilot_GIST_update_2,2026.1.1,Win32,57.80346821,66a4fd0abda26954b4e43cc8,69b92ab4aef6dee357cd729a,69b92bd1e4529e9a69379854,0.5609,0.561,1,92,254,139,1,sixeight,,,,,,,,,,,,,,,,,,,,,,,,,,,,,,,,,,,,,,,,,,,,,,,,,,,,,,,,,,,,,,,,,,,,,,,,,,,,,,,,,,,,,,,,,,,,,,,,,,,,,,,,,,,,,,,,,,,,,,,,,,,,,,,,,,,,,,,,,
,,66a4fd0abda26954b4e43cc8,2026-03-17_12h25.35.296,kallum_motion_pilot_GIST_update_2,2026.1.1,Win32,57.80346821,66a4fd0abda26954b4e43cc8,69b92ab4aef6dee357cd729a,69b92bd1e4529e9a69379854,0.562,0.562,1,93,255,152,1,fivesix,,,,,,,,,,,,,,,,,,,,,,,,,,,,,,,,,,,,,,,,,,,,,,,,,,,,,,,,,,,,,,,,,,,,,,,,,,,,,,,,,,,,,,,,,,,,,,,,,,,,,,,,,,,,,,,,,,,,,,,,,,,,,,,,,,,,,,,,,
,,66a4fd0abda26954b4e43cc8,2026-03-17_12h25.35.296,kallum_motion_pilot_GIST_update_2,2026.1.1,Win32,57.80346821,66a4fd0abda26954b4e43cc8,69b92ab4aef6dee357cd729a,69b92bd1e4529e9a69379854,0.563,0.5631,1,94,256,144,1,fivesix,,,,,,,,,,,,,,,,,,,,,,,,,,,,,,,,,,,,,,,,,,,,,,,,,,,,,,,,,,,,,,,,,,,,,,,,,,,,,,,,,,,,,,,,,,,,,,,,,,,,,,,,,,,,,,,,,,,,,,,,,,,,,,,,,,,,,,,,,
,,66a4fd0abda26954b4e43cc8,2026-03-17_12h25.35.296,kallum_motion_pilot_GIST_update_2,2026.1.1,Win32,57.80346821,66a4fd0abda26954b4e43cc8,69b92ab4aef6dee357cd729a,69b92bd1e4529e9a69379854,0.5653,0.5654,1,95,257,120,1,fivesix,,,,,,,,,,,,,,,,,,,,,,,,,,,,,,,,,,,,,,,,,,,,,,,,,,,,,,,,,,,,,,,,,,,,,,,,,,,,,,,,,,,,,,,,,,,,,,,,,,,,,,,,,,,,,,,,,,,,,,,,,,,,,,,,,,,,,,,,,
,,66a4fd0abda26954b4e43cc8,2026-03-17_12h25.35.296,kallum_motion_pilot_GIST_update_2,2026.1.1,Win32,57.80346821,66a4fd0abda26954b4e43cc8,69b92ab4aef6dee357cd729a,69b92bd1e4529e9a69379854,0.5672,0.5673,1,96,258,110,1,eightsix,,,,,,,,,,,,,,,,,,,,,,,,,,,,,,,,,,,,,,,,,,,,,,,,,,,,,,,,,,,,,,,,,,,,,,,,,,,,,,,,,,,,,,,,,,,,,,,,,,,,,,,,,,,,,,,,,,,,,,,,,,,,,,,,,,,,,,,,,
,,66a4fd0abda26954b4e43cc8,2026-03-17_12h25.35.296,kallum_motion_pilot_GIST_update_2,2026.1.1,Win32,57.80346821,66a4fd0abda26954b4e43cc8,69b92ab4aef6dee357cd729a,69b92bd1e4529e9a69379854,0.5695,0.5695,1,97,259,73,1,onethree,,,,,,,,,,,,,,,,,,,,,,,,,,,,,,,,,,,,,,,,,,,,,,,,,,,,,,,,,,,,,,,,,,,,,,,,,,,,,,,,,,,,,,,,,,,,,,,,,,,,,,,,,,,,,,,,,,,,,,,,,,,,,,,,,,,,,,,,,
,,66a4fd0abda26954b4e43cc8,2026-03-17_12h25.35.296,kallum_motion_pilot_GIST_update_2,2026.1.1,Win32,57.80346821,66a4fd0abda26954b4e43cc8,69b92ab4aef6dee357cd729a,69b92bd1e4529e9a69379854,0.5718,0.572,1,98,260,75,1,twofour,,,,,,,,,,,,,,,,,,,,,,,,,,,,,,,,,,,,,,,,,,,,,,,,,,,,,,,,,,,,,,,,,,,,,,,,,,,,,,,,,,,,,,,,,,,,,,,,,,,,,,,,,,,,,,,,,,,,,,,,,,,,,,,,,,,,,,,,,
,,66a4fd0abda26954b4e43cc8,2026-03-17_12h25.35.296,kallum_motion_pilot_GIST_update_2,2026.1.1,Win32,57.80346821,66a4fd0abda26954b4e43cc8,69b92ab4aef6dee357cd729a,69b92bd1e4529e9a69379854,0.5729,0.5729,1,99,261,117,1,seveneight,,,,,,,,,,,,,,,,,,,,,,,,,,,,,,,,,,,,,,,,,,,,,,,,,,,,,,,,,,,,,,,,,,,,,,,,,,,,,,,,,,,,,,,,,,,,,,,,,,,,,,,,,,,,,,,,,,,,,,,,,,,,,,,,,,,,,,,,,
,,66a4fd0abda26954b4e43cc8,2026-03-17_12h25.35.296,kallum_motion_pilot_GIST_update_2,2026.1.1,Win32,57.80346821,66a4fd0abda26954b4e43cc8,69b92ab4aef6dee357cd729a,69b92bd1e4529e9a69379854,0.5766,0.5767,1,100,262,49,1,onethree,,,,,,,,,,,,,,,,,,,,,,,,,,,,,,,,,,,,,,,,,,,,,,,,,,,,,,,,,,,,,,,,,,,,,,,,,,,,,,,,,,,,,,,,,,,,,,,,,,,,,,,,,,,,,,,,,,,,,,,,,,,,,,,,,,,,,,,,,
,,66a4fd0abda26954b4e43cc8,2026-03-17_12h25.35.296,kallum_motion_pilot_GIST_update_2,2026.1.1,Win32,57.80346821,66a4fd0abda26954b4e43cc8,69b92ab4aef6dee357cd729a,69b92bd1e4529e9a69379854,0.5778,0.5778,1,101,263,64,1,onetwo,,,,,,,,,,,,,,,,,,,,,,,,,,,,,,,,,,,,,,,,,,,,,,,,,,,,,,,,,,,,,,,,,,,,,,,,,,,,,,,,,,,,,,,,,,,,,,,,,,,,,,,,,,,,,,,,,,,,,,,,,,,,,,,,,,,,,,,,,
,,66a4fd0abda26954b4e43cc8,2026-03-17_12h25.35.296,kallum_motion_pilot_GIST_update_2,2026.1.1,Win32,57.80346821,66a4fd0abda26954b4e43cc8,69b92ab4aef6dee357cd729a,69b92bd1e4529e9a69379854,0.5801,0.5802,1,102,264,140,1,sevenfive,,,,,,,,,,,,,,,,,,,,,,,,,,,,,,,,,,,,,,,,,,,,,,,,,,,,,,,,,,,,,,,,,,,,,,,,,,,,,,,,,,,,,,,,,,,,,,,,,,,,,,,,,,,,,,,,,,,,,,,,,,,,,,,,,,,,,,,,,
,,66a4fd0abda26954b4e43cc8,2026-03-17_12h25.35.296,kallum_motion_pilot_GIST_update_2,2026.1.1,Win32,57.80346821,66a4fd0abda26954b4e43cc8,69b92ab4aef6dee357cd729a,69b92bd1e4529e9a69379854,0.5814,0.5814,1,103,265,97,1,fiveseven,,,,,,,,,,,,,,,,,,,,,,,,,,,,,,,,,,,,,,,,,,,,,,,,,,,,,,,,,,,,,,,,,,,,,,,,,,,,,,,,,,,,,,,,,,,,,,,,,,,,,,,,,,,,,,,,,,,,,,,,,,,,,,,,,,,,,,,,,
,,66a4fd0abda26954b4e43cc8,2026-03-17_12h25.35.296,kallum_motion_pilot_GIST_update_2,2026.1.1,Win32,57.80346821,66a4fd0abda26954b4e43cc8,69b92ab4aef6dee357cd729a,69b92bd1e4529e9a69379854,0.5833,0.5834,1,104,266,95,1,eightseven,,,,,,,,,,,,,,,,,,,,,,,,,,,,,,,,,,,,,,,,,,,,,,,,,,,,,,,,,,,,,,,,,,,,,,,,,,,,,,,,,,,,,,,,,,,,,,,,,,,,,,,,,,,,,,,,,,,,,,,,,,,,,,,,,,,,,,,,,
