startup.started,startup.stopped,Prolific ID*,date,expName,psychopyVersion,OS,frameRate,participant,study_id,session,stimpositions.started,stimpositions.stopped,hardcoded_stimulus_positions.thisRepN,hardcoded_stimulus_positions.thisTrialN,hardcoded_stimulus_positions.thisN,hardcoded_stimulus_positions.thisIndex,hardcoded_stimulus_positions.ran,StimulusPos,stimorientation.started,stimorientation.stopped,prac_stimorientation_import_loop.thisRepN,prac_stimorientation_import_loop.thisTrialN,prac_stimorientation_import_loop.thisN,prac_stimorientation_import_loop.thisIndex,prac_stimorientation_import_loop.ran,Stimorientation,welcome_instr.started,welcome_instr.stopped,key_resp.keys,key_resp.rt,key_resp.duration,response_steppedout_1.started,response_steppedout_1.stopped,key_resp_20.keys,key_resp_20.rt,key_resp_20.duration,response_steppedout_2.started,response_steppedout_2.stopped,key_resp_19.keys,key_resp_19.rt,key_resp_19.duration,stim_response_instr.started,stim_response_instr.stopped,key_resp_15.keys,key_resp_15.rt,key_resp_15.duration,direction_instr_2.started,direction_instr_2.stopped,key_resp_9.keys,key_resp_9.rt,key_resp_9.duration,instr_prac.started,instr_prac.stopped,key_resp_10.keys,key_resp_10.rt,key_resp_10.duration,Stim1_display_prac.started,Stim1_display_prac.stopped,Ecc,Circle1_ori,Circle2_ori,response_prac.started,similarity,response_time,response_prac.stopped,mouse_5.x,mouse_5.y,mouse_5.leftButton,mouse_5.midButton,mouse_5.rightButton,mouse_5.clicked_name,responseprac_feedback.started,responseprac_feedback.stopped,summary2_prac.started,summary2_prac.stopped,mouse_6.x,mouse_6.y,mouse_6.leftButton,mouse_6.midButton,mouse_6.rightButton,mouse_6.clicked_name,duringprac.thisRepN,duringprac.thisTrialN,duringprac.thisN,duringprac.thisIndex,duringprac.ran,begin.started,begin.stopped,key_resp_22.keys,key_resp_22.rt,key_resp_22.duration,Stim1_display.started,Stim1_display.stopped,circle1_ori,circle2_ori,circle1_SF,circle2_SF,response.started,response.stopped,mouse.x,mouse.y,mouse.leftButton,mouse.midButton,mouse.rightButton,mouse.clicked_name,trialnumber,double_pass.thisRepN,double_pass.thisTrialN,double_pass.thisN,double_pass.thisIndex,double_pass.ran,double_pass.order,main_trial.thisRepN,main_trial.thisTrialN,main_trial.thisN,main_trial.thisIndex,main_trial.ran,main_trial.order,Trial_Counter,Catch,Frequencies,response_2.started,response_2.stopped,mouse_2.x,mouse_2.y,mouse_2.leftButton,mouse_2.midButton,mouse_2.rightButton,mouse_2.clicked_name,special_trial.started,special_trial.stopped,catch_1.started,catch_1.stopped,mouse_3.x,mouse_3.y,mouse_3.leftButton,mouse_3.midButton,mouse_3.rightButton,catchresponse,catchnumber,response_time_catch,response_sum.started,response_sum.stopped,mouse_11.x,mouse_11.y,mouse_11.leftButton,mouse_11.midButton,mouse_11.rightButton,flip_presentation_sequence_for_double_pass.started,flip_presentation_sequence_for_double_pass.stopped,goodbye.started,goodbye.stopped,key_resp_3.keys,key_resp_3.rt,key_resp_3.duration
0.0005,0.0008,66b8b996ba8542d9cbd3f5a3,2026-03-17_16h17.09.449,kallum_motion_pilot_GIST_update_2,2026.1.1,Win32,60.24096386,66b8b996ba8542d9cbd3f5a3,69b95efdef24cd8a694e89ee,69b961424fa65c1d27025104,,,,,,,,,,,,,,,,,,,,,,,,,,,,,,,,,,,,,,,,,,,,,,,,,,,,,,,,,,,,,,,,,,,,,,,,,,,,,,,,,,,,,,,,,,,,,,,,,,,,,,,,,,,,,,,,,,,,,,,,,,,,,,,,,,,,,,,,,,,,,,,,,
,,66b8b996ba8542d9cbd3f5a3,2026-03-17_16h17.09.449,kallum_motion_pilot_GIST_update_2,2026.1.1,Win32,60.24096386,66b8b996ba8542d9cbd3f5a3,69b95efdef24cd8a694e89ee,69b961424fa65c1d27025104,0.0418,0.042,0,0,0,115,1,sixeight,,,,,,,,,,,,,,,,,,,,,,,,,,,,,,,,,,,,,,,,,,,,,,,,,,,,,,,,,,,,,,,,,,,,,,,,,,,,,,,,,,,,,,,,,,,,,,,,,,,,,,,,,,,,,,,,,,,,,,,,,,,,,,,,,,,,,,,,,
,,66b8b996ba8542d9cbd3f5a3,2026-03-17_16h17.09.449,kallum_motion_pilot_GIST_update_2,2026.1.1,Win32,60.24096386,66b8b996ba8542d9cbd3f5a3,69b95efdef24cd8a694e89ee,69b961424fa65c1d27025104,0.0428,0.0428,0,1,1,156,1,sevenfive,,,,,,,,,,,,,,,,,,,,,,,,,,,,,,,,,,,,,,,,,,,,,,,,,,,,,,,,,,,,,,,,,,,,,,,,,,,,,,,,,,,,,,,,,,,,,,,,,,,,,,,,,,,,,,,,,,,,,,,,,,,,,,,,,,,,,,,,,
,,66b8b996ba8542d9cbd3f5a3,2026-03-17_16h17.09.449,kallum_motion_pilot_GIST_update_2,2026.1.1,Win32,60.24096386,66b8b996ba8542d9cbd3f5a3,69b95efdef24cd8a694e89ee,69b961424fa65c1d27025104,0.0432,0.0433,0,2,2,28,1,threeone,,,,,,,,,,,,,,,,,,,,,,,,,,,,,,,,,,,,,,,,,,,,,,,,,,,,,,,,,,,,,,,,,,,,,,,,,,,,,,,,,,,,,,,,,,,,,,,,,,,,,,,,,,,,,,,,,,,,,,,,,,,,,,,,,,,,,,,,,
,,66b8b996ba8542d9cbd3f5a3,2026-03-17_16h17.09.449,kallum_motion_pilot_GIST_update_2,2026.1.1,Win32,60.24096386,66b8b996ba8542d9cbd3f5a3,69b95efdef24cd8a694e89ee,69b961424fa65c1d27025104,0.0437,0.0437,0,3,3,99,1,sixeight,,,,,,,,,,,,,,,,,,,,,,,,,,,,,,,,,,,,,,,,,,,,,,,,,,,,,,,,,,,,,,,,,,,,,,,,,,,,,,,,,,,,,,,,,,,,,,,,,,,,,,,,,,,,,,,,,,,,,,,,,,,,,,,,,,,,,,,,,
,,66b8b996ba8542d9cbd3f5a3,2026-03-17_16h17.09.449,kallum_motion_pilot_GIST_update_2,2026.1.1,Win32,60.24096386,66b8b996ba8542d9cbd3f5a3,69b95efdef24cd8a694e89ee,69b961424fa65c1d27025104,0.0439,0.044,0,4,4,85,1,seveneight,,,,,,,,,,,,,,,,,,,,,,,,,,,,,,,,,,,,,,,,,,,,,,,,,,,,,,,,,,,,,,,,,,,,,,,,,,,,,,,,,,,,,,,,,,,,,,,,,,,,,,,,,,,,,,,,,,,,,,,,,,,,,,,,,,,,,,,,,
,,66b8b996ba8542d9cbd3f5a3,2026-03-17_16h17.09.449,kallum_motion_pilot_GIST_update_2,2026.1.1,Win32,60.24096386,66b8b996ba8542d9cbd3f5a3,69b95efdef24cd8a694e89ee,69b961424fa65c1d27025104,0.0444,0.0444,0,5,5,103,1,eightseven,,,,,,,,,,,,,,,,,,,,,,,,,,,,,,,,,,,,,,,,,,,,,,,,,,,,,,,,,,,,,,,,,,,,,,,,,,,,,,,,,,,,,,,,,,,,,,,,,,,,,,,,,,,,,,,,,,,,,,,,,,,,,,,,,,,,,,,,,
,,66b8b996ba8542d9cbd3f5a3,2026-03-17_16h17.09.449,kallum_motion_pilot_GIST_update_2,2026.1.1,Win32,60.24096386,66b8b996ba8542d9cbd3f5a3,69b95efdef24cd8a694e89ee,69b961424fa65c1d27025104,0.0447,0.0447,0,6,6,160,1,fivesix,,,,,,,,,,,,,,,,,,,,,,,,,,,,,,,,,,,,,,,,,,,,,,,,,,,,,,,,,,,,,,,,,,,,,,,,,,,,,,,,,,,,,,,,,,,,,,,,,,,,,,,,,,,,,,,,,,,,,,,,,,,,,,,,,,,,,,,,,
,,66b8b996ba8542d9cbd3f5a3,2026-03-17_16h17.09.449,kallum_motion_pilot_GIST_update_2,2026.1.1,Win32,60.24096386,66b8b996ba8542d9cbd3f5a3,69b95efdef24cd8a694e89ee,69b961424fa65c1d27025104,0.045,0.0451,0,7,7,108,1,sevenfive,,,,,,,,,,,,,,,,,,,,,,,,,,,,,,,,,,,,,,,,,,,,,,,,,,,,,,,,,,,,,,,,,,,,,,,,,,,,,,,,,,,,,,,,,,,,,,,,,,,,,,,,,,,,,,,,,,,,,,,,,,,,,,,,,,,,,,,,,
,,66b8b996ba8542d9cbd3f5a3,2026-03-17_16h17.09.449,kallum_motion_pilot_GIST_update_2,2026.1.1,Win32,60.24096386,66b8b996ba8542d9cbd3f5a3,69b95efdef24cd8a694e89ee,69b961424fa65c1d27025104,0.0453,0.0453,0,8,8,117,1,seveneight,,,,,,,,,,,,,,,,,,,,,,,,,,,,,,,,,,,,,,,,,,,,,,,,,,,,,,,,,,,,,,,,,,,,,,,,,,,,,,,,,,,,,,,,,,,,,,,,,,,,,,,,,,,,,,,,,,,,,,,,,,,,,,,,,,,,,,,,,
,,66b8b996ba8542d9cbd3f5a3,2026-03-17_16h17.09.449,kallum_motion_pilot_GIST_update_2,2026.1.1,Win32,60.24096386,66b8b996ba8542d9cbd3f5a3,69b95efdef24cd8a694e89ee,69b961424fa65c1d27025104,0.0457,0.0457,0,9,9,12,1,threeone,,,,,,,,,,,,,,,,,,,,,,,,,,,,,,,,,,,,,,,,,,,,,,,,,,,,,,,,,,,,,,,,,,,,,,,,,,,,,,,,,,,,,,,,,,,,,,,,,,,,,,,,,,,,,,,,,,,,,,,,,,,,,,,,,,,,,,,,,
,,66b8b996ba8542d9cbd3f5a3,2026-03-17_16h17.09.449,kallum_motion_pilot_GIST_update_2,2026.1.1,Win32,60.24096386,66b8b996ba8542d9cbd3f5a3,69b95efdef24cd8a694e89ee,69b961424fa65c1d27025104,0.046,0.046,0,10,10,79,1,eightseven,,,,,,,,,,,,,,,,,,,,,,,,,,,,,,,,,,,,,,,,,,,,,,,,,,,,,,,,,,,,,,,,,,,,,,,,,,,,,,,,,,,,,,,,,,,,,,,,,,,,,,,,,,,,,,,,,,,,,,,,,,,,,,,,,,,,,,,,,
,,66b8b996ba8542d9cbd3f5a3,2026-03-17_16h17.09.449,kallum_motion_pilot_GIST_update_2,2026.1.1,Win32,60.24096386,66b8b996ba8542d9cbd3f5a3,69b95efdef24cd8a694e89ee,69b961424fa65c1d27025104,0.0461,0.0462,0,11,11,119,1,eightseven,,,,,,,,,,,,,,,,,,,,,,,,,,,,,,,,,,,,,,,,,,,,,,,,,,,,,,,,,,,,,,,,,,,,,,,,,,,,,,,,,,,,,,,,,,,,,,,,,,,,,,,,,,,,,,,,,,,,,,,,,,,,,,,,,,,,,,,,,
,,66b8b996ba8542d9cbd3f5a3,2026-03-17_16h17.09.449,kallum_motion_pilot_GIST_update_2,2026.1.1,Win32,60.24096386,66b8b996ba8542d9cbd3f5a3,69b95efdef24cd8a694e89ee,69b961424fa65c1d27025104,0.0464,0.0464,0,12,12,3,1,twofour,,,,,,,,,,,,,,,,,,,,,,,,,,,,,,,,,,,,,,,,,,,,,,,,,,,,,,,,,,,,,,,,,,,,,,,,,,,,,,,,,,,,,,,,,,,,,,,,,,,,,,,,,,,,,,,,,,,,,,,,,,,,,,,,,,,,,,,,,
,,66b8b996ba8542d9cbd3f5a3,2026-03-17_16h17.09.449,kallum_motion_pilot_GIST_update_2,2026.1.1,Win32,60.24096386,66b8b996ba8542d9cbd3f5a3,69b95efdef24cd8a694e89ee,69b961424fa65c1d27025104,0.0467,0.0467,0,13,13,73,1,onethree,,,,,,,,,,,,,,,,,,,,,,,,,,,,,,,,,,,,,,,,,,,,,,,,,,,,,,,,,,,,,,,,,,,,,,,,,,,,,,,,,,,,,,,,,,,,,,,,,,,,,,,,,,,,,,,,,,,,,,,,,,,,,,,,,,,,,,,,,
,,66b8b996ba8542d9cbd3f5a3,2026-03-17_16h17.09.449,kallum_motion_pilot_GIST_update_2,2026.1.1,Win32,60.24096386,66b8b996ba8542d9cbd3f5a3,69b95efdef24cd8a694e89ee,69b961424fa65c1d27025104,0.0471,0.0471,0,14,14,82,1,sixfive,,,,,,,,,,,,,,,,,,,,,,,,,,,,,,,,,,,,,,,,,,,,,,,,,,,,,,,,,,,,,,,,,,,,,,,,,,,,,,,,,,,,,,,,,,,,,,,,,,,,,,,,,,,,,,,,,,,,,,,,,,,,,,,,,,,,,,,,,
,,66b8b996ba8542d9cbd3f5a3,2026-03-17_16h17.09.449,kallum_motion_pilot_GIST_update_2,2026.1.1,Win32,60.24096386,66b8b996ba8542d9cbd3f5a3,69b95efdef24cd8a694e89ee,69b961424fa65c1d27025104,0.0474,0.0475,0,15,15,148,1,sevenfive,,,,,,,,,,,,,,,,,,,,,,,,,,,,,,,,,,,,,,,,,,,,,,,,,,,,,,,,,,,,,,,,,,,,,,,,,,,,,,,,,,,,,,,,,,,,,,,,,,,,,,,,,,,,,,,,,,,,,,,,,,,,,,,,,,,,,,,,,
,,66b8b996ba8542d9cbd3f5a3,2026-03-17_16h17.09.449,kallum_motion_pilot_GIST_update_2,2026.1.1,Win32,60.24096386,66b8b996ba8542d9cbd3f5a3,69b95efdef24cd8a694e89ee,69b961424fa65c1d27025104,0.0478,0.0478,0,16,16,100,1,sevenfive,,,,,,,,,,,,,,,,,,,,,,,,,,,,,,,,,,,,,,,,,,,,,,,,,,,,,,,,,,,,,,,,,,,,,,,,,,,,,,,,,,,,,,,,,,,,,,,,,,,,,,,,,,,,,,,,,,,,,,,,,,,,,,,,,,,,,,,,,
,,66b8b996ba8542d9cbd3f5a3,2026-03-17_16h17.09.449,kallum_motion_pilot_GIST_update_2,2026.1.1,Win32,60.24096386,66b8b996ba8542d9cbd3f5a3,69b95efdef24cd8a694e89ee,69b961424fa65c1d27025104,0.0481,0.0481,0,17,17,140,1,sevenfive,,,,,,,,,,,,,,,,,,,,,,,,,,,,,,,,,,,,,,,,,,,,,,,,,,,,,,,,,,,,,,,,,,,,,,,,,,,,,,,,,,,,,,,,,,,,,,,,,,,,,,,,,,,,,,,,,,,,,,,,,,,,,,,,,,,,,,,,,
,,66b8b996ba8542d9cbd3f5a3,2026-03-17_16h17.09.449,kallum_motion_pilot_GIST_update_2,2026.1.1,Win32,60.24096386,66b8b996ba8542d9cbd3f5a3,69b95efdef24cd8a694e89ee,69b961424fa65c1d27025104,0.0485,0.0485,0,18,18,109,1,seveneight,,,,,,,,,,,,,,,,,,,,,,,,,,,,,,,,,,,,,,,,,,,,,,,,,,,,,,,,,,,,,,,,,,,,,,,,,,,,,,,,,,,,,,,,,,,,,,,,,,,,,,,,,,,,,,,,,,,,,,,,,,,,,,,,,,,,,,,,,
,,66b8b996ba8542d9cbd3f5a3,2026-03-17_16h17.09.449,kallum_motion_pilot_GIST_update_2,2026.1.1,Win32,60.24096386,66b8b996ba8542d9cbd3f5a3,69b95efdef24cd8a694e89ee,69b961424fa65c1d27025104,0.0488,0.0488,0,19,19,142,1,eightsix,,,,,,,,,,,,,,,,,,,,,,,,,,,,,,,,,,,,,,,,,,,,,,,,,,,,,,,,,,,,,,,,,,,,,,,,,,,,,,,,,,,,,,,,,,,,,,,,,,,,,,,,,,,,,,,,,,,,,,,,,,,,,,,,,,,,,,,,,
,,66b8b996ba8542d9cbd3f5a3,2026-03-17_16h17.09.449,kallum_motion_pilot_GIST_update_2,2026.1.1,Win32,60.24096386,66b8b996ba8542d9cbd3f5a3,69b95efdef24cd8a694e89ee,69b961424fa65c1d27025104,0.049,0.049,0,20,20,57,1,onethree,,,,,,,,,,,,,,,,,,,,,,,,,,,,,,,,,,,,,,,,,,,,,,,,,,,,,,,,,,,,,,,,,,,,,,,,,,,,,,,,,,,,,,,,,,,,,,,,,,,,,,,,,,,,,,,,,,,,,,,,,,,,,,,,,,,,,,,,,
,,66b8b996ba8542d9cbd3f5a3,2026-03-17_16h17.09.449,kallum_motion_pilot_GIST_update_2,2026.1.1,Win32,60.24096386,66b8b996ba8542d9cbd3f5a3,69b95efdef24cd8a694e89ee,69b961424fa65c1d27025104,0.0493,0.0493,0,21,21,60,1,threeone,,,,,,,,,,,,,,,,,,,,,,,,,,,,,,,,,,,,,,,,,,,,,,,,,,,,,,,,,,,,,,,,,,,,,,,,,,,,,,,,,,,,,,,,,,,,,,,,,,,,,,,,,,,,,,,,,,,,,,,,,,,,,,,,,,,,,,,,,
,,66b8b996ba8542d9cbd3f5a3,2026-03-17_16h17.09.449,kallum_motion_pilot_GIST_update_2,2026.1.1,Win32,60.24096386,66b8b996ba8542d9cbd3f5a3,69b95efdef24cd8a694e89ee,69b961424fa65c1d27025104,0.0497,0.0497,0,22,22,93,1,seveneight,,,,,,,,,,,,,,,,,,,,,,,,,,,,,,,,,,,,,,,,,,,,,,,,,,,,,,,,,,,,,,,,,,,,,,,,,,,,,,,,,,,,,,,,,,,,,,,,,,,,,,,,,,,,,,,,,,,,,,,,,,,,,,,,,,,,,,,,,
,,66b8b996ba8542d9cbd3f5a3,2026-03-17_16h17.09.449,kallum_motion_pilot_GIST_update_2,2026.1.1,Win32,60.24096386,66b8b996ba8542d9cbd3f5a3,69b95efdef24cd8a694e89ee,69b961424fa65c1d27025104,0.05,0.05,0,23,23,15,1,fourthree,,,,,,,,,,,,,,,,,,,,,,,,,,,,,,,,,,,,,,,,,,,,,,,,,,,,,,,,,,,,,,,,,,,,,,,,,,,,,,,,,,,,,,,,,,,,,,,,,,,,,,,,,,,,,,,,,,,,,,,,,,,,,,,,,,,,,,,,,
,,66b8b996ba8542d9cbd3f5a3,2026-03-17_16h17.09.449,kallum_motion_pilot_GIST_update_2,2026.1.1,Win32,60.24096386,66b8b996ba8542d9cbd3f5a3,69b95efdef24cd8a694e89ee,69b961424fa65c1d27025104,0.0503,0.0503,0,24,24,10,1,twoone,,,,,,,,,,,,,,,,,,,,,,,,,,,,,,,,,,,,,,,,,,,,,,,,,,,,,,,,,,,,,,,,,,,,,,,,,,,,,,,,,,,,,,,,,,,,,,,,,,,,,,,,,,,,,,,,,,,,,,,,,,,,,,,,,,,,,,,,,
,,66b8b996ba8542d9cbd3f5a3,2026-03-17_16h17.09.449,kallum_motion_pilot_GIST_update_2,2026.1.1,Win32,60.24096386,66b8b996ba8542d9cbd3f5a3,69b95efdef24cd8a694e89ee,69b961424fa65c1d27025104,0.0506,0.0506,0,25,25,146,1,sixfive,,,,,,,,,,,,,,,,,,,,,,,,,,,,,,,,,,,,,,,,,,,,,,,,,,,,,,,,,,,,,,,,,,,,,,,,,,,,,,,,,,,,,,,,,,,,,,,,,,,,,,,,,,,,,,,,,,,,,,,,,,,,,,,,,,,,,,,,,
,,66b8b996ba8542d9cbd3f5a3,2026-03-17_16h17.09.449,kallum_motion_pilot_GIST_update_2,2026.1.1,Win32,60.24096386,66b8b996ba8542d9cbd3f5a3,69b95efdef24cd8a694e89ee,69b961424fa65c1d27025104,0.0508,0.0508,0,26,26,46,1,fourtwo,,,,,,,,,,,,,,,,,,,,,,,,,,,,,,,,,,,,,,,,,,,,,,,,,,,,,,,,,,,,,,,,,,,,,,,,,,,,,,,,,,,,,,,,,,,,,,,,,,,,,,,,,,,,,,,,,,,,,,,,,,,,,,,,,,,,,,,,,
,,66b8b996ba8542d9cbd3f5a3,2026-03-17_16h17.09.449,kallum_motion_pilot_GIST_update_2,2026.1.1,Win32,60.24096386,66b8b996ba8542d9cbd3f5a3,69b95efdef24cd8a694e89ee,69b961424fa65c1d27025104,0.0511,0.0511,0,27,27,114,1,sixfive,,,,,,,,,,,,,,,,,,,,,,,,,,,,,,,,,,,,,,,,,,,,,,,,,,,,,,,,,,,,,,,,,,,,,,,,,,,,,,,,,,,,,,,,,,,,,,,,,,,,,,,,,,,,,,,,,,,,,,,,,,,,,,,,,,,,,,,,,
,,66b8b996ba8542d9cbd3f5a3,2026-03-17_16h17.09.449,kallum_motion_pilot_GIST_update_2,2026.1.1,Win32,60.24096386,66b8b996ba8542d9cbd3f5a3,69b95efdef24cd8a694e89ee,69b961424fa65c1d27025104,0.0513,0.0514,0,28,28,7,1,fourthree,,,,,,,,,,,,,,,,,,,,,,,,,,,,,,,,,,,,,,,,,,,,,,,,,,,,,,,,,,,,,,,,,,,,,,,,,,,,,,,,,,,,,,,,,,,,,,,,,,,,,,,,,,,,,,,,,,,,,,,,,,,,,,,,,,,,,,,,,
,,66b8b996ba8542d9cbd3f5a3,2026-03-17_16h17.09.449,kallum_motion_pilot_GIST_update_2,2026.1.1,Win32,60.24096386,66b8b996ba8542d9cbd3f5a3,69b95efdef24cd8a694e89ee,69b961424fa65c1d27025104,0.0517,0.0517,0,29,29,33,1,onethree,,,,,,,,,,,,,,,,,,,,,,,,,,,,,,,,,,,,,,,,,,,,,,,,,,,,,,,,,,,,,,,,,,,,,,,,,,,,,,,,,,,,,,,,,,,,,,,,,,,,,,,,,,,,,,,,,,,,,,,,,,,,,,,,,,,,,,,,,
,,66b8b996ba8542d9cbd3f5a3,2026-03-17_16h17.09.449,kallum_motion_pilot_GIST_update_2,2026.1.1,Win32,60.24096386,66b8b996ba8542d9cbd3f5a3,69b95efdef24cd8a694e89ee,69b961424fa65c1d27025104,0.0519,0.0519,0,30,30,9,1,onethree,,,,,,,,,,,,,,,,,,,,,,,,,,,,,,,,,,,,,,,,,,,,,,,,,,,,,,,,,,,,,,,,,,,,,,,,,,,,,,,,,,,,,,,,,,,,,,,,,,,,,,,,,,,,,,,,,,,,,,,,,,,,,,,,,,,,,,,,,
,,66b8b996ba8542d9cbd3f5a3,2026-03-17_16h17.09.449,kallum_motion_pilot_GIST_update_2,2026.1.1,Win32,60.24096386,66b8b996ba8542d9cbd3f5a3,69b95efdef24cd8a694e89ee,69b961424fa65c1d27025104,0.0522,0.0522,0,31,31,25,1,onethree,,,,,,,,,,,,,,,,,,,,,,,,,,,,,,,,,,,,,,,,,,,,,,,,,,,,,,,,,,,,,,,,,,,,,,,,,,,,,,,,,,,,,,,,,,,,,,,,,,,,,,,,,,,,,,,,,,,,,,,,,,,,,,,,,,,,,,,,,
,,66b8b996ba8542d9cbd3f5a3,2026-03-17_16h17.09.449,kallum_motion_pilot_GIST_update_2,2026.1.1,Win32,60.24096386,66b8b996ba8542d9cbd3f5a3,69b95efdef24cd8a694e89ee,69b961424fa65c1d27025104,0.0525,0.0525,0,32,32,80,1,fivesix,,,,,,,,,,,,,,,,,,,,,,,,,,,,,,,,,,,,,,,,,,,,,,,,,,,,,,,,,,,,,,,,,,,,,,,,,,,,,,,,,,,,,,,,,,,,,,,,,,,,,,,,,,,,,,,,,,,,,,,,,,,,,,,,,,,,,,,,,
,,66b8b996ba8542d9cbd3f5a3,2026-03-17_16h17.09.449,kallum_motion_pilot_GIST_update_2,2026.1.1,Win32,60.24096386,66b8b996ba8542d9cbd3f5a3,69b95efdef24cd8a694e89ee,69b961424fa65c1d27025104,0.0528,0.0528,0,33,33,155,1,sixeight,,,,,,,,,,,,,,,,,,,,,,,,,,,,,,,,,,,,,,,,,,,,,,,,,,,,,,,,,,,,,,,,,,,,,,,,,,,,,,,,,,,,,,,,,,,,,,,,,,,,,,,,,,,,,,,,,,,,,,,,,,,,,,,,,,,,,,,,,
,,66b8b996ba8542d9cbd3f5a3,2026-03-17_16h17.09.449,kallum_motion_pilot_GIST_update_2,2026.1.1,Win32,60.24096386,66b8b996ba8542d9cbd3f5a3,69b95efdef24cd8a694e89ee,69b961424fa65c1d27025104,0.0531,0.0531,0,34,34,29,1,threefour,,,,,,,,,,,,,,,,,,,,,,,,,,,,,,,,,,,,,,,,,,,,,,,,,,,,,,,,,,,,,,,,,,,,,,,,,,,,,,,,,,,,,,,,,,,,,,,,,,,,,,,,,,,,,,,,,,,,,,,,,,,,,,,,,,,,,,,,,
,,66b8b996ba8542d9cbd3f5a3,2026-03-17_16h17.09.449,kallum_motion_pilot_GIST_update_2,2026.1.1,Win32,60.24096386,66b8b996ba8542d9cbd3f5a3,69b95efdef24cd8a694e89ee,69b961424fa65c1d27025104,0.0533,0.0534,0,35,35,50,1,twoone,,,,,,,,,,,,,,,,,,,,,,,,,,,,,,,,,,,,,,,,,,,,,,,,,,,,,,,,,,,,,,,,,,,,,,,,,,,,,,,,,,,,,,,,,,,,,,,,,,,,,,,,,,,,,,,,,,,,,,,,,,,,,,,,,,,,,,,,,
,,66b8b996ba8542d9cbd3f5a3,2026-03-17_16h17.09.449,kallum_motion_pilot_GIST_update_2,2026.1.1,Win32,60.24096386,66b8b996ba8542d9cbd3f5a3,69b95efdef24cd8a694e89ee,69b961424fa65c1d27025104,0.0536,0.0536,0,36,36,133,1,seveneight,,,,,,,,,,,,,,,,,,,,,,,,,,,,,,,,,,,,,,,,,,,,,,,,,,,,,,,,,,,,,,,,,,,,,,,,,,,,,,,,,,,,,,,,,,,,,,,,,,,,,,,,,,,,,,,,,,,,,,,,,,,,,,,,,,,,,,,,,
,,66b8b996ba8542d9cbd3f5a3,2026-03-17_16h17.09.449,kallum_motion_pilot_GIST_update_2,2026.1.1,Win32,60.24096386,66b8b996ba8542d9cbd3f5a3,69b95efdef24cd8a694e89ee,69b961424fa65c1d27025104,0.0539,0.0539,0,37,37,22,1,fourtwo,,,,,,,,,,,,,,,,,,,,,,,,,,,,,,,,,,,,,,,,,,,,,,,,,,,,,,,,,,,,,,,,,,,,,,,,,,,,,,,,,,,,,,,,,,,,,,,,,,,,,,,,,,,,,,,,,,,,,,,,,,,,,,,,,,,,,,,,,
,,66b8b996ba8542d9cbd3f5a3,2026-03-17_16h17.09.449,kallum_motion_pilot_GIST_update_2,2026.1.1,Win32,60.24096386,66b8b996ba8542d9cbd3f5a3,69b95efdef24cd8a694e89ee,69b961424fa65c1d27025104,0.0542,0.0542,0,38,38,134,1,eightsix,,,,,,,,,,,,,,,,,,,,,,,,,,,,,,,,,,,,,,,,,,,,,,,,,,,,,,,,,,,,,,,,,,,,,,,,,,,,,,,,,,,,,,,,,,,,,,,,,,,,,,,,,,,,,,,,,,,,,,,,,,,,,,,,,,,,,,,,,
,,66b8b996ba8542d9cbd3f5a3,2026-03-17_16h17.09.449,kallum_motion_pilot_GIST_update_2,2026.1.1,Win32,60.24096386,66b8b996ba8542d9cbd3f5a3,69b95efdef24cd8a694e89ee,69b961424fa65c1d27025104,0.0544,0.0544,0,39,39,69,1,threefour,,,,,,,,,,,,,,,,,,,,,,,,,,,,,,,,,,,,,,,,,,,,,,,,,,,,,,,,,,,,,,,,,,,,,,,,,,,,,,,,,,,,,,,,,,,,,,,,,,,,,,,,,,,,,,,,,,,,,,,,,,,,,,,,,,,,,,,,,
,,66b8b996ba8542d9cbd3f5a3,2026-03-17_16h17.09.449,kallum_motion_pilot_GIST_update_2,2026.1.1,Win32,60.24096386,66b8b996ba8542d9cbd3f5a3,69b95efdef24cd8a694e89ee,69b961424fa65c1d27025104,0.0546,0.0546,0,40,40,34,1,twoone,,,,,,,,,,,,,,,,,,,,,,,,,,,,,,,,,,,,,,,,,,,,,,,,,,,,,,,,,,,,,,,,,,,,,,,,,,,,,,,,,,,,,,,,,,,,,,,,,,,,,,,,,,,,,,,,,,,,,,,,,,,,,,,,,,,,,,,,,
,,66b8b996ba8542d9cbd3f5a3,2026-03-17_16h17.09.449,kallum_motion_pilot_GIST_update_2,2026.1.1,Win32,60.24096386,66b8b996ba8542d9cbd3f5a3,69b95efdef24cd8a694e89ee,69b961424fa65c1d27025104,0.0549,0.0549,0,41,41,113,1,fiveseven,,,,,,,,,,,,,,,,,,,,,,,,,,,,,,,,,,,,,,,,,,,,,,,,,,,,,,,,,,,,,,,,,,,,,,,,,,,,,,,,,,,,,,,,,,,,,,,,,,,,,,,,,,,,,,,,,,,,,,,,,,,,,,,,,,,,,,,,,
,,66b8b996ba8542d9cbd3f5a3,2026-03-17_16h17.09.449,kallum_motion_pilot_GIST_update_2,2026.1.1,Win32,60.24096386,66b8b996ba8542d9cbd3f5a3,69b95efdef24cd8a694e89ee,69b961424fa65c1d27025104,0.0552,0.0552,0,42,42,138,1,sixfive,,,,,,,,,,,,,,,,,,,,,,,,,,,,,,,,,,,,,,,,,,,,,,,,,,,,,,,,,,,,,,,,,,,,,,,,,,,,,,,,,,,,,,,,,,,,,,,,,,,,,,,,,,,,,,,,,,,,,,,,,,,,,,,,,,,,,,,,,
,,66b8b996ba8542d9cbd3f5a3,2026-03-17_16h17.09.449,kallum_motion_pilot_GIST_update_2,2026.1.1,Win32,60.24096386,66b8b996ba8542d9cbd3f5a3,69b95efdef24cd8a694e89ee,69b961424fa65c1d27025104,0.0554,0.0554,0,43,43,32,1,onetwo,,,,,,,,,,,,,,,,,,,,,,,,,,,,,,,,,,,,,,,,,,,,,,,,,,,,,,,,,,,,,,,,,,,,,,,,,,,,,,,,,,,,,,,,,,,,,,,,,,,,,,,,,,,,,,,,,,,,,,,,,,,,,,,,,,,,,,,,,
,,66b8b996ba8542d9cbd3f5a3,2026-03-17_16h17.09.449,kallum_motion_pilot_GIST_update_2,2026.1.1,Win32,60.24096386,66b8b996ba8542d9cbd3f5a3,69b95efdef24cd8a694e89ee,69b961424fa65c1d27025104,0.0557,0.0557,0,44,44,88,1,fivesix,,,,,,,,,,,,,,,,,,,,,,,,,,,,,,,,,,,,,,,,,,,,,,,,,,,,,,,,,,,,,,,,,,,,,,,,,,,,,,,,,,,,,,,,,,,,,,,,,,,,,,,,,,,,,,,,,,,,,,,,,,,,,,,,,,,,,,,,,
,,66b8b996ba8542d9cbd3f5a3,2026-03-17_16h17.09.449,kallum_motion_pilot_GIST_update_2,2026.1.1,Win32,60.24096386,66b8b996ba8542d9cbd3f5a3,69b95efdef24cd8a694e89ee,69b961424fa65c1d27025104,0.0559,0.0559,0,45,45,129,1,fiveseven,,,,,,,,,,,,,,,,,,,,,,,,,,,,,,,,,,,,,,,,,,,,,,,,,,,,,,,,,,,,,,,,,,,,,,,,,,,,,,,,,,,,,,,,,,,,,,,,,,,,,,,,,,,,,,,,,,,,,,,,,,,,,,,,,,,,,,,,,
,,66b8b996ba8542d9cbd3f5a3,2026-03-17_16h17.09.449,kallum_motion_pilot_GIST_update_2,2026.1.1,Win32,60.24096386,66b8b996ba8542d9cbd3f5a3,69b95efdef24cd8a694e89ee,69b961424fa65c1d27025104,0.0563,0.0563,0,46,46,20,1,threeone,,,,,,,,,,,,,,,,,,,,,,,,,,,,,,,,,,,,,,,,,,,,,,,,,,,,,,,,,,,,,,,,,,,,,,,,,,,,,,,,,,,,,,,,,,,,,,,,,,,,,,,,,,,,,,,,,,,,,,,,,,,,,,,,,,,,,,,,,
,,66b8b996ba8542d9cbd3f5a3,2026-03-17_16h17.09.449,kallum_motion_pilot_GIST_update_2,2026.1.1,Win32,60.24096386,66b8b996ba8542d9cbd3f5a3,69b95efdef24cd8a694e89ee,69b961424fa65c1d27025104,0.0565,0.0566,0,47,47,81,1,fiveseven,,,,,,,,,,,,,,,,,,,,,,,,,,,,,,,,,,,,,,,,,,,,,,,,,,,,,,,,,,,,,,,,,,,,,,,,,,,,,,,,,,,,,,,,,,,,,,,,,,,,,,,,,,,,,,,,,,,,,,,,,,,,,,,,,,,,,,,,,
,,66b8b996ba8542d9cbd3f5a3,2026-03-17_16h17.09.449,kallum_motion_pilot_GIST_update_2,2026.1.1,Win32,60.24096386,66b8b996ba8542d9cbd3f5a3,69b95efdef24cd8a694e89ee,69b961424fa65c1d27025104,0.0568,0.0568,0,48,48,90,1,sixfive,,,,,,,,,,,,,,,,,,,,,,,,,,,,,,,,,,,,,,,,,,,,,,,,,,,,,,,,,,,,,,,,,,,,,,,,,,,,,,,,,,,,,,,,,,,,,,,,,,,,,,,,,,,,,,,,,,,,,,,,,,,,,,,,,,,,,,,,,
,,66b8b996ba8542d9cbd3f5a3,2026-03-17_16h17.09.449,kallum_motion_pilot_GIST_update_2,2026.1.1,Win32,60.24096386,66b8b996ba8542d9cbd3f5a3,69b95efdef24cd8a694e89ee,69b961424fa65c1d27025104,0.0571,0.0571,0,49,49,37,1,threefour,,,,,,,,,,,,,,,,,,,,,,,,,,,,,,,,,,,,,,,,,,,,,,,,,,,,,,,,,,,,,,,,,,,,,,,,,,,,,,,,,,,,,,,,,,,,,,,,,,,,,,,,,,,,,,,,,,,,,,,,,,,,,,,,,,,,,,,,,
,,66b8b996ba8542d9cbd3f5a3,2026-03-17_16h17.09.449,kallum_motion_pilot_GIST_update_2,2026.1.1,Win32,60.24096386,66b8b996ba8542d9cbd3f5a3,69b95efdef24cd8a694e89ee,69b961424fa65c1d27025104,0.0574,0.0574,0,50,50,55,1,fourthree,,,,,,,,,,,,,,,,,,,,,,,,,,,,,,,,,,,,,,,,,,,,,,,,,,,,,,,,,,,,,,,,,,,,,,,,,,,,,,,,,,,,,,,,,,,,,,,,,,,,,,,,,,,,,,,,,,,,,,,,,,,,,,,,,,,,,,,,,
,,66b8b996ba8542d9cbd3f5a3,2026-03-17_16h17.09.449,kallum_motion_pilot_GIST_update_2,2026.1.1,Win32,60.24096386,66b8b996ba8542d9cbd3f5a3,69b95efdef24cd8a694e89ee,69b961424fa65c1d27025104,0.0577,0.0577,0,51,51,125,1,seveneight,,,,,,,,,,,,,,,,,,,,,,,,,,,,,,,,,,,,,,,,,,,,,,,,,,,,,,,,,,,,,,,,,,,,,,,,,,,,,,,,,,,,,,,,,,,,,,,,,,,,,,,,,,,,,,,,,,,,,,,,,,,,,,,,,,,,,,,,,
,,66b8b996ba8542d9cbd3f5a3,2026-03-17_16h17.09.449,kallum_motion_pilot_GIST_update_2,2026.1.1,Win32,60.24096386,66b8b996ba8542d9cbd3f5a3,69b95efdef24cd8a694e89ee,69b961424fa65c1d27025104,0.0579,0.058,0,52,52,54,1,fourtwo,,,,,,,,,,,,,,,,,,,,,,,,,,,,,,,,,,,,,,,,,,,,,,,,,,,,,,,,,,,,,,,,,,,,,,,,,,,,,,,,,,,,,,,,,,,,,,,,,,,,,,,,,,,,,,,,,,,,,,,,,,,,,,,,,,,,,,,,,
,,66b8b996ba8542d9cbd3f5a3,2026-03-17_16h17.09.449,kallum_motion_pilot_GIST_update_2,2026.1.1,Win32,60.24096386,66b8b996ba8542d9cbd3f5a3,69b95efdef24cd8a694e89ee,69b961424fa65c1d27025104,0.0582,0.0582,0,53,53,48,1,onetwo,,,,,,,,,,,,,,,,,,,,,,,,,,,,,,,,,,,,,,,,,,,,,,,,,,,,,,,,,,,,,,,,,,,,,,,,,,,,,,,,,,,,,,,,,,,,,,,,,,,,,,,,,,,,,,,,,,,,,,,,,,,,,,,,,,,,,,,,,
,,66b8b996ba8542d9cbd3f5a3,2026-03-17_16h17.09.449,kallum_motion_pilot_GIST_update_2,2026.1.1,Win32,60.24096386,66b8b996ba8542d9cbd3f5a3,69b95efdef24cd8a694e89ee,69b961424fa65c1d27025104,0.0585,0.0586,0,54,54,56,1,onetwo,,,,,,,,,,,,,,,,,,,,,,,,,,,,,,,,,,,,,,,,,,,,,,,,,,,,,,,,,,,,,,,,,,,,,,,,,,,,,,,,,,,,,,,,,,,,,,,,,,,,,,,,,,,,,,,,,,,,,,,,,,,,,,,,,,,,,,,,,
,,66b8b996ba8542d9cbd3f5a3,2026-03-17_16h17.09.449,kallum_motion_pilot_GIST_update_2,2026.1.1,Win32,60.24096386,66b8b996ba8542d9cbd3f5a3,69b95efdef24cd8a694e89ee,69b961424fa65c1d27025104,0.0588,0.0589,0,55,55,136,1,fivesix,,,,,,,,,,,,,,,,,,,,,,,,,,,,,,,,,,,,,,,,,,,,,,,,,,,,,,,,,,,,,,,,,,,,,,,,,,,,,,,,,,,,,,,,,,,,,,,,,,,,,,,,,,,,,,,,,,,,,,,,,,,,,,,,,,,,,,,,,
,,66b8b996ba8542d9cbd3f5a3,2026-03-17_16h17.09.449,kallum_motion_pilot_GIST_update_2,2026.1.1,Win32,60.24096386,66b8b996ba8542d9cbd3f5a3,69b95efdef24cd8a694e89ee,69b961424fa65c1d27025104,0.0591,0.0591,0,56,56,120,1,fivesix,,,,,,,,,,,,,,,,,,,,,,,,,,,,,,,,,,,,,,,,,,,,,,,,,,,,,,,,,,,,,,,,,,,,,,,,,,,,,,,,,,,,,,,,,,,,,,,,,,,,,,,,,,,,,,,,,,,,,,,,,,,,,,,,,,,,,,,,,
,,66b8b996ba8542d9cbd3f5a3,2026-03-17_16h17.09.449,kallum_motion_pilot_GIST_update_2,2026.1.1,Win32,60.24096386,66b8b996ba8542d9cbd3f5a3,69b95efdef24cd8a694e89ee,69b961424fa65c1d27025104,0.0593,0.0594,0,57,57,153,1,fiveseven,,,,,,,,,,,,,,,,,,,,,,,,,,,,,,,,,,,,,,,,,,,,,,,,,,,,,,,,,,,,,,,,,,,,,,,,,,,,,,,,,,,,,,,,,,,,,,,,,,,,,,,,,,,,,,,,,,,,,,,,,,,,,,,,,,,,,,,,,
,,66b8b996ba8542d9cbd3f5a3,2026-03-17_16h17.09.449,kallum_motion_pilot_GIST_update_2,2026.1.1,Win32,60.24096386,66b8b996ba8542d9cbd3f5a3,69b95efdef24cd8a694e89ee,69b961424fa65c1d27025104,0.0596,0.0596,0,58,58,72,1,onetwo,,,,,,,,,,,,,,,,,,,,,,,,,,,,,,,,,,,,,,,,,,,,,,,,,,,,,,,,,,,,,,,,,,,,,,,,,,,,,,,,,,,,,,,,,,,,,,,,,,,,,,,,,,,,,,,,,,,,,,,,,,,,,,,,,,,,,,,,,
,,66b8b996ba8542d9cbd3f5a3,2026-03-17_16h17.09.449,kallum_motion_pilot_GIST_update_2,2026.1.1,Win32,60.24096386,66b8b996ba8542d9cbd3f5a3,69b95efdef24cd8a694e89ee,69b961424fa65c1d27025104,0.0601,0.0601,0,59,59,58,1,twoone,,,,,,,,,,,,,,,,,,,,,,,,,,,,,,,,,,,,,,,,,,,,,,,,,,,,,,,,,,,,,,,,,,,,,,,,,,,,,,,,,,,,,,,,,,,,,,,,,,,,,,,,,,,,,,,,,,,,,,,,,,,,,,,,,,,,,,,,,
,,66b8b996ba8542d9cbd3f5a3,2026-03-17_16h17.09.449,kallum_motion_pilot_GIST_update_2,2026.1.1,Win32,60.24096386,66b8b996ba8542d9cbd3f5a3,69b95efdef24cd8a694e89ee,69b961424fa65c1d27025104,0.0604,0.0604,0,60,60,8,1,onetwo,,,,,,,,,,,,,,,,,,,,,,,,,,,,,,,,,,,,,,,,,,,,,,,,,,,,,,,,,,,,,,,,,,,,,,,,,,,,,,,,,,,,,,,,,,,,,,,,,,,,,,,,,,,,,,,,,,,,,,,,,,,,,,,,,,,,,,,,,
,,66b8b996ba8542d9cbd3f5a3,2026-03-17_16h17.09.449,kallum_motion_pilot_GIST_update_2,2026.1.1,Win32,60.24096386,66b8b996ba8542d9cbd3f5a3,69b95efdef24cd8a694e89ee,69b961424fa65c1d27025104,0.0607,0.0607,0,61,61,41,1,onethree,,,,,,,,,,,,,,,,,,,,,,,,,,,,,,,,,,,,,,,,,,,,,,,,,,,,,,,,,,,,,,,,,,,,,,,,,,,,,,,,,,,,,,,,,,,,,,,,,,,,,,,,,,,,,,,,,,,,,,,,,,,,,,,,,,,,,,,,,
,,66b8b996ba8542d9cbd3f5a3,2026-03-17_16h17.09.449,kallum_motion_pilot_GIST_update_2,2026.1.1,Win32,60.24096386,66b8b996ba8542d9cbd3f5a3,69b95efdef24cd8a694e89ee,69b961424fa65c1d27025104,0.0608,0.0608,0,62,62,2,1,twoone,,,,,,,,,,,,,,,,,,,,,,,,,,,,,,,,,,,,,,,,,,,,,,,,,,,,,,,,,,,,,,,,,,,,,,,,,,,,,,,,,,,,,,,,,,,,,,,,,,,,,,,,,,,,,,,,,,,,,,,,,,,,,,,,,,,,,,,,,
,,66b8b996ba8542d9cbd3f5a3,2026-03-17_16h17.09.449,kallum_motion_pilot_GIST_update_2,2026.1.1,Win32,60.24096386,66b8b996ba8542d9cbd3f5a3,69b95efdef24cd8a694e89ee,69b961424fa65c1d27025104,0.061,0.061,0,63,63,17,1,onethree,,,,,,,,,,,,,,,,,,,,,,,,,,,,,,,,,,,,,,,,,,,,,,,,,,,,,,,,,,,,,,,,,,,,,,,,,,,,,,,,,,,,,,,,,,,,,,,,,,,,,,,,,,,,,,,,,,,,,,,,,,,,,,,,,,,,,,,,,
,,66b8b996ba8542d9cbd3f5a3,2026-03-17_16h17.09.449,kallum_motion_pilot_GIST_update_2,2026.1.1,Win32,60.24096386,66b8b996ba8542d9cbd3f5a3,69b95efdef24cd8a694e89ee,69b961424fa65c1d27025104,0.0612,0.0612,0,64,64,77,1,threefour,,,,,,,,,,,,,,,,,,,,,,,,,,,,,,,,,,,,,,,,,,,,,,,,,,,,,,,,,,,,,,,,,,,,,,,,,,,,,,,,,,,,,,,,,,,,,,,,,,,,,,,,,,,,,,,,,,,,,,,,,,,,,,,,,,,,,,,,,
,,66b8b996ba8542d9cbd3f5a3,2026-03-17_16h17.09.449,kallum_motion_pilot_GIST_update_2,2026.1.1,Win32,60.24096386,66b8b996ba8542d9cbd3f5a3,69b95efdef24cd8a694e89ee,69b961424fa65c1d27025104,0.0614,0.0614,0,65,65,145,1,fiveseven,,,,,,,,,,,,,,,,,,,,,,,,,,,,,,,,,,,,,,,,,,,,,,,,,,,,,,,,,,,,,,,,,,,,,,,,,,,,,,,,,,,,,,,,,,,,,,,,,,,,,,,,,,,,,,,,,,,,,,,,,,,,,,,,,,,,,,,,,
,,66b8b996ba8542d9cbd3f5a3,2026-03-17_16h17.09.449,kallum_motion_pilot_GIST_update_2,2026.1.1,Win32,60.24096386,66b8b996ba8542d9cbd3f5a3,69b95efdef24cd8a694e89ee,69b961424fa65c1d27025104,0.0616,0.0616,0,66,66,18,1,twoone,,,,,,,,,,,,,,,,,,,,,,,,,,,,,,,,,,,,,,,,,,,,,,,,,,,,,,,,,,,,,,,,,,,,,,,,,,,,,,,,,,,,,,,,,,,,,,,,,,,,,,,,,,,,,,,,,,,,,,,,,,,,,,,,,,,,,,,,,
,,66b8b996ba8542d9cbd3f5a3,2026-03-17_16h17.09.449,kallum_motion_pilot_GIST_update_2,2026.1.1,Win32,60.24096386,66b8b996ba8542d9cbd3f5a3,69b95efdef24cd8a694e89ee,69b961424fa65c1d27025104,0.0618,0.0619,0,67,67,39,1,fourthree,,,,,,,,,,,,,,,,,,,,,,,,,,,,,,,,,,,,,,,,,,,,,,,,,,,,,,,,,,,,,,,,,,,,,,,,,,,,,,,,,,,,,,,,,,,,,,,,,,,,,,,,,,,,,,,,,,,,,,,,,,,,,,,,,,,,,,,,,
,,66b8b996ba8542d9cbd3f5a3,2026-03-17_16h17.09.449,kallum_motion_pilot_GIST_update_2,2026.1.1,Win32,60.24096386,66b8b996ba8542d9cbd3f5a3,69b95efdef24cd8a694e89ee,69b961424fa65c1d27025104,0.062,0.062,0,68,68,6,1,fourtwo,,,,,,,,,,,,,,,,,,,,,,,,,,,,,,,,,,,,,,,,,,,,,,,,,,,,,,,,,,,,,,,,,,,,,,,,,,,,,,,,,,,,,,,,,,,,,,,,,,,,,,,,,,,,,,,,,,,,,,,,,,,,,,,,,,,,,,,,,
,,66b8b996ba8542d9cbd3f5a3,2026-03-17_16h17.09.449,kallum_motion_pilot_GIST_update_2,2026.1.1,Win32,60.24096386,66b8b996ba8542d9cbd3f5a3,69b95efdef24cd8a694e89ee,69b961424fa65c1d27025104,0.0622,0.0622,0,69,69,35,1,twofour,,,,,,,,,,,,,,,,,,,,,,,,,,,,,,,,,,,,,,,,,,,,,,,,,,,,,,,,,,,,,,,,,,,,,,,,,,,,,,,,,,,,,,,,,,,,,,,,,,,,,,,,,,,,,,,,,,,,,,,,,,,,,,,,,,,,,,,,,
,,66b8b996ba8542d9cbd3f5a3,2026-03-17_16h17.09.449,kallum_motion_pilot_GIST_update_2,2026.1.1,Win32,60.24096386,66b8b996ba8542d9cbd3f5a3,69b95efdef24cd8a694e89ee,69b961424fa65c1d27025104,0.0624,0.0625,0,70,70,128,1,fivesix,,,,,,,,,,,,,,,,,,,,,,,,,,,,,,,,,,,,,,,,,,,,,,,,,,,,,,,,,,,,,,,,,,,,,,,,,,,,,,,,,,,,,,,,,,,,,,,,,,,,,,,,,,,,,,,,,,,,,,,,,,,,,,,,,,,,,,,,,
,,66b8b996ba8542d9cbd3f5a3,2026-03-17_16h17.09.449,kallum_motion_pilot_GIST_update_2,2026.1.1,Win32,60.24096386,66b8b996ba8542d9cbd3f5a3,69b95efdef24cd8a694e89ee,69b961424fa65c1d27025104,0.0647,0.0647,0,71,71,104,1,fivesix,,,,,,,,,,,,,,,,,,,,,,,,,,,,,,,,,,,,,,,,,,,,,,,,,,,,,,,,,,,,,,,,,,,,,,,,,,,,,,,,,,,,,,,,,,,,,,,,,,,,,,,,,,,,,,,,,,,,,,,,,,,,,,,,,,,,,,,,,
,,66b8b996ba8542d9cbd3f5a3,2026-03-17_16h17.09.449,kallum_motion_pilot_GIST_update_2,2026.1.1,Win32,60.24096386,66b8b996ba8542d9cbd3f5a3,69b95efdef24cd8a694e89ee,69b961424fa65c1d27025104,0.0651,0.0651,0,72,72,110,1,eightsix,,,,,,,,,,,,,,,,,,,,,,,,,,,,,,,,,,,,,,,,,,,,,,,,,,,,,,,,,,,,,,,,,,,,,,,,,,,,,,,,,,,,,,,,,,,,,,,,,,,,,,,,,,,,,,,,,,,,,,,,,,,,,,,,,,,,,,,,,
,,66b8b996ba8542d9cbd3f5a3,2026-03-17_16h17.09.449,kallum_motion_pilot_GIST_update_2,2026.1.1,Win32,60.24096386,66b8b996ba8542d9cbd3f5a3,69b95efdef24cd8a694e89ee,69b961424fa65c1d27025104,0.0653,0.0653,0,73,73,91,1,sixeight,,,,,,,,,,,,,,,,,,,,,,,,,,,,,,,,,,,,,,,,,,,,,,,,,,,,,,,,,,,,,,,,,,,,,,,,,,,,,,,,,,,,,,,,,,,,,,,,,,,,,,,,,,,,,,,,,,,,,,,,,,,,,,,,,,,,,,,,,
,,66b8b996ba8542d9cbd3f5a3,2026-03-17_16h17.09.449,kallum_motion_pilot_GIST_update_2,2026.1.1,Win32,60.24096386,66b8b996ba8542d9cbd3f5a3,69b95efdef24cd8a694e89ee,69b961424fa65c1d27025104,0.0656,0.0656,0,74,74,42,1,twoone,,,,,,,,,,,,,,,,,,,,,,,,,,,,,,,,,,,,,,,,,,,,,,,,,,,,,,,,,,,,,,,,,,,,,,,,,,,,,,,,,,,,,,,,,,,,,,,,,,,,,,,,,,,,,,,,,,,,,,,,,,,,,,,,,,,,,,,,,
,,66b8b996ba8542d9cbd3f5a3,2026-03-17_16h17.09.449,kallum_motion_pilot_GIST_update_2,2026.1.1,Win32,60.24096386,66b8b996ba8542d9cbd3f5a3,69b95efdef24cd8a694e89ee,69b961424fa65c1d27025104,0.0658,0.0658,0,75,75,127,1,eightseven,,,,,,,,,,,,,,,,,,,,,,,,,,,,,,,,,,,,,,,,,,,,,,,,,,,,,,,,,,,,,,,,,,,,,,,,,,,,,,,,,,,,,,,,,,,,,,,,,,,,,,,,,,,,,,,,,,,,,,,,,,,,,,,,,,,,,,,,,
,,66b8b996ba8542d9cbd3f5a3,2026-03-17_16h17.09.449,kallum_motion_pilot_GIST_update_2,2026.1.1,Win32,60.24096386,66b8b996ba8542d9cbd3f5a3,69b95efdef24cd8a694e89ee,69b961424fa65c1d27025104,0.066,0.066,0,76,76,141,1,seveneight,,,,,,,,,,,,,,,,,,,,,,,,,,,,,,,,,,,,,,,,,,,,,,,,,,,,,,,,,,,,,,,,,,,,,,,,,,,,,,,,,,,,,,,,,,,,,,,,,,,,,,,,,,,,,,,,,,,,,,,,,,,,,,,,,,,,,,,,,
,,66b8b996ba8542d9cbd3f5a3,2026-03-17_16h17.09.449,kallum_motion_pilot_GIST_update_2,2026.1.1,Win32,60.24096386,66b8b996ba8542d9cbd3f5a3,69b95efdef24cd8a694e89ee,69b961424fa65c1d27025104,0.0662,0.0662,0,77,77,84,1,sevenfive,,,,,,,,,,,,,,,,,,,,,,,,,,,,,,,,,,,,,,,,,,,,,,,,,,,,,,,,,,,,,,,,,,,,,,,,,,,,,,,,,,,,,,,,,,,,,,,,,,,,,,,,,,,,,,,,,,,,,,,,,,,,,,,,,,,,,,,,,
,,66b8b996ba8542d9cbd3f5a3,2026-03-17_16h17.09.449,kallum_motion_pilot_GIST_update_2,2026.1.1,Win32,60.24096386,66b8b996ba8542d9cbd3f5a3,69b95efdef24cd8a694e89ee,69b961424fa65c1d27025104,0.0669,0.067,0,78,78,68,1,threeone,,,,,,,,,,,,,,,,,,,,,,,,,,,,,,,,,,,,,,,,,,,,,,,,,,,,,,,,,,,,,,,,,,,,,,,,,,,,,,,,,,,,,,,,,,,,,,,,,,,,,,,,,,,,,,,,,,,,,,,,,,,,,,,,,,,,,,,,,
,,66b8b996ba8542d9cbd3f5a3,2026-03-17_16h17.09.449,kallum_motion_pilot_GIST_update_2,2026.1.1,Win32,60.24096386,66b8b996ba8542d9cbd3f5a3,69b95efdef24cd8a694e89ee,69b961424fa65c1d27025104,0.0673,0.0673,0,79,79,123,1,sixeight,,,,,,,,,,,,,,,,,,,,,,,,,,,,,,,,,,,,,,,,,,,,,,,,,,,,,,,,,,,,,,,,,,,,,,,,,,,,,,,,,,,,,,,,,,,,,,,,,,,,,,,,,,,,,,,,,,,,,,,,,,,,,,,,,,,,,,,,,
,,66b8b996ba8542d9cbd3f5a3,2026-03-17_16h17.09.449,kallum_motion_pilot_GIST_update_2,2026.1.1,Win32,60.24096386,66b8b996ba8542d9cbd3f5a3,69b95efdef24cd8a694e89ee,69b961424fa65c1d27025104,0.0675,0.0675,0,80,80,122,1,sixfive,,,,,,,,,,,,,,,,,,,,,,,,,,,,,,,,,,,,,,,,,,,,,,,,,,,,,,,,,,,,,,,,,,,,,,,,,,,,,,,,,,,,,,,,,,,,,,,,,,,,,,,,,,,,,,,,,,,,,,,,,,,,,,,,,,,,,,,,,
,,66b8b996ba8542d9cbd3f5a3,2026-03-17_16h17.09.449,kallum_motion_pilot_GIST_update_2,2026.1.1,Win32,60.24096386,66b8b996ba8542d9cbd3f5a3,69b95efdef24cd8a694e89ee,69b961424fa65c1d27025104,0.0678,0.0679,0,81,81,105,1,fiveseven,,,,,,,,,,,,,,,,,,,,,,,,,,,,,,,,,,,,,,,,,,,,,,,,,,,,,,,,,,,,,,,,,,,,,,,,,,,,,,,,,,,,,,,,,,,,,,,,,,,,,,,,,,,,,,,,,,,,,,,,,,,,,,,,,,,,,,,,,
,,66b8b996ba8542d9cbd3f5a3,2026-03-17_16h17.09.449,kallum_motion_pilot_GIST_update_2,2026.1.1,Win32,60.24096386,66b8b996ba8542d9cbd3f5a3,69b95efdef24cd8a694e89ee,69b961424fa65c1d27025104,0.0681,0.0681,0,82,82,83,1,sixeight,,,,,,,,,,,,,,,,,,,,,,,,,,,,,,,,,,,,,,,,,,,,,,,,,,,,,,,,,,,,,,,,,,,,,,,,,,,,,,,,,,,,,,,,,,,,,,,,,,,,,,,,,,,,,,,,,,,,,,,,,,,,,,,,,,,,,,,,,
,,66b8b996ba8542d9cbd3f5a3,2026-03-17_16h17.09.449,kallum_motion_pilot_GIST_update_2,2026.1.1,Win32,60.24096386,66b8b996ba8542d9cbd3f5a3,69b95efdef24cd8a694e89ee,69b961424fa65c1d27025104,0.0683,0.0684,0,83,83,98,1,sixfive,,,,,,,,,,,,,,,,,,,,,,,,,,,,,,,,,,,,,,,,,,,,,,,,,,,,,,,,,,,,,,,,,,,,,,,,,,,,,,,,,,,,,,,,,,,,,,,,,,,,,,,,,,,,,,,,,,,,,,,,,,,,,,,,,,,,,,,,,
,,66b8b996ba8542d9cbd3f5a3,2026-03-17_16h17.09.449,kallum_motion_pilot_GIST_update_2,2026.1.1,Win32,60.24096386,66b8b996ba8542d9cbd3f5a3,69b95efdef24cd8a694e89ee,69b961424fa65c1d27025104,0.0687,0.0687,0,84,84,150,1,eightsix,,,,,,,,,,,,,,,,,,,,,,,,,,,,,,,,,,,,,,,,,,,,,,,,,,,,,,,,,,,,,,,,,,,,,,,,,,,,,,,,,,,,,,,,,,,,,,,,,,,,,,,,,,,,,,,,,,,,,,,,,,,,,,,,,,,,,,,,,
,,66b8b996ba8542d9cbd3f5a3,2026-03-17_16h17.09.449,kallum_motion_pilot_GIST_update_2,2026.1.1,Win32,60.24096386,66b8b996ba8542d9cbd3f5a3,69b95efdef24cd8a694e89ee,69b961424fa65c1d27025104,0.0689,0.0689,0,85,85,1,1,onethree,,,,,,,,,,,,,,,,,,,,,,,,,,,,,,,,,,,,,,,,,,,,,,,,,,,,,,,,,,,,,,,,,,,,,,,,,,,,,,,,,,,,,,,,,,,,,,,,,,,,,,,,,,,,,,,,,,,,,,,,,,,,,,,,,,,,,,,,,
,,66b8b996ba8542d9cbd3f5a3,2026-03-17_16h17.09.449,kallum_motion_pilot_GIST_update_2,2026.1.1,Win32,60.24096386,66b8b996ba8542d9cbd3f5a3,69b95efdef24cd8a694e89ee,69b961424fa65c1d27025104,0.0692,0.0692,0,86,86,152,1,fivesix,,,,,,,,,,,,,,,,,,,,,,,,,,,,,,,,,,,,,,,,,,,,,,,,,,,,,,,,,,,,,,,,,,,,,,,,,,,,,,,,,,,,,,,,,,,,,,,,,,,,,,,,,,,,,,,,,,,,,,,,,,,,,,,,,,,,,,,,,
,,66b8b996ba8542d9cbd3f5a3,2026-03-17_16h17.09.449,kallum_motion_pilot_GIST_update_2,2026.1.1,Win32,60.24096386,66b8b996ba8542d9cbd3f5a3,69b95efdef24cd8a694e89ee,69b961424fa65c1d27025104,0.0694,0.0695,0,87,87,149,1,seveneight,,,,,,,,,,,,,,,,,,,,,,,,,,,,,,,,,,,,,,,,,,,,,,,,,,,,,,,,,,,,,,,,,,,,,,,,,,,,,,,,,,,,,,,,,,,,,,,,,,,,,,,,,,,,,,,,,,,,,,,,,,,,,,,,,,,,,,,,,
,,66b8b996ba8542d9cbd3f5a3,2026-03-17_16h17.09.449,kallum_motion_pilot_GIST_update_2,2026.1.1,Win32,60.24096386,66b8b996ba8542d9cbd3f5a3,69b95efdef24cd8a694e89ee,69b961424fa65c1d27025104,0.0697,0.0697,0,88,88,52,1,threeone,,,,,,,,,,,,,,,,,,,,,,,,,,,,,,,,,,,,,,,,,,,,,,,,,,,,,,,,,,,,,,,,,,,,,,,,,,,,,,,,,,,,,,,,,,,,,,,,,,,,,,,,,,,,,,,,,,,,,,,,,,,,,,,,,,,,,,,,,
,,66b8b996ba8542d9cbd3f5a3,2026-03-17_16h17.09.449,kallum_motion_pilot_GIST_update_2,2026.1.1,Win32,60.24096386,66b8b996ba8542d9cbd3f5a3,69b95efdef24cd8a694e89ee,69b961424fa65c1d27025104,0.07,0.0701,0,89,89,143,1,eightseven,,,,,,,,,,,,,,,,,,,,,,,,,,,,,,,,,,,,,,,,,,,,,,,,,,,,,,,,,,,,,,,,,,,,,,,,,,,,,,,,,,,,,,,,,,,,,,,,,,,,,,,,,,,,,,,,,,,,,,,,,,,,,,,,,,,,,,,,,
,,66b8b996ba8542d9cbd3f5a3,2026-03-17_16h17.09.449,kallum_motion_pilot_GIST_update_2,2026.1.1,Win32,60.24096386,66b8b996ba8542d9cbd3f5a3,69b95efdef24cd8a694e89ee,69b961424fa65c1d27025104,0.0703,0.0703,0,90,90,144,1,fivesix,,,,,,,,,,,,,,,,,,,,,,,,,,,,,,,,,,,,,,,,,,,,,,,,,,,,,,,,,,,,,,,,,,,,,,,,,,,,,,,,,,,,,,,,,,,,,,,,,,,,,,,,,,,,,,,,,,,,,,,,,,,,,,,,,,,,,,,,,
,,66b8b996ba8542d9cbd3f5a3,2026-03-17_16h17.09.449,kallum_motion_pilot_GIST_update_2,2026.1.1,Win32,60.24096386,66b8b996ba8542d9cbd3f5a3,69b95efdef24cd8a694e89ee,69b961424fa65c1d27025104,0.0707,0.0707,0,91,91,59,1,twofour,,,,,,,,,,,,,,,,,,,,,,,,,,,,,,,,,,,,,,,,,,,,,,,,,,,,,,,,,,,,,,,,,,,,,,,,,,,,,,,,,,,,,,,,,,,,,,,,,,,,,,,,,,,,,,,,,,,,,,,,,,,,,,,,,,,,,,,,,
,,66b8b996ba8542d9cbd3f5a3,2026-03-17_16h17.09.449,kallum_motion_pilot_GIST_update_2,2026.1.1,Win32,60.24096386,66b8b996ba8542d9cbd3f5a3,69b95efdef24cd8a694e89ee,69b961424fa65c1d27025104,0.0709,0.0709,0,92,92,38,1,fourtwo,,,,,,,,,,,,,,,,,,,,,,,,,,,,,,,,,,,,,,,,,,,,,,,,,,,,,,,,,,,,,,,,,,,,,,,,,,,,,,,,,,,,,,,,,,,,,,,,,,,,,,,,,,,,,,,,,,,,,,,,,,,,,,,,,,,,,,,,,
,,66b8b996ba8542d9cbd3f5a3,2026-03-17_16h17.09.449,kallum_motion_pilot_GIST_update_2,2026.1.1,Win32,60.24096386,66b8b996ba8542d9cbd3f5a3,69b95efdef24cd8a694e89ee,69b961424fa65c1d27025104,0.0712,0.0713,0,93,93,0,1,onetwo,,,,,,,,,,,,,,,,,,,,,,,,,,,,,,,,,,,,,,,,,,,,,,,,,,,,,,,,,,,,,,,,,,,,,,,,,,,,,,,,,,,,,,,,,,,,,,,,,,,,,,,,,,,,,,,,,,,,,,,,,,,,,,,,,,,,,,,,,
,,66b8b996ba8542d9cbd3f5a3,2026-03-17_16h17.09.449,kallum_motion_pilot_GIST_update_2,2026.1.1,Win32,60.24096386,66b8b996ba8542d9cbd3f5a3,69b95efdef24cd8a694e89ee,69b961424fa65c1d27025104,0.0714,0.0715,0,94,94,61,1,threefour,,,,,,,,,,,,,,,,,,,,,,,,,,,,,,,,,,,,,,,,,,,,,,,,,,,,,,,,,,,,,,,,,,,,,,,,,,,,,,,,,,,,,,,,,,,,,,,,,,,,,,,,,,,,,,,,,,,,,,,,,,,,,,,,,,,,,,,,,
,,66b8b996ba8542d9cbd3f5a3,2026-03-17_16h17.09.449,kallum_motion_pilot_GIST_update_2,2026.1.1,Win32,60.24096386,66b8b996ba8542d9cbd3f5a3,69b95efdef24cd8a694e89ee,69b961424fa65c1d27025104,0.0719,0.0719,0,95,95,65,1,onethree,,,,,,,,,,,,,,,,,,,,,,,,,,,,,,,,,,,,,,,,,,,,,,,,,,,,,,,,,,,,,,,,,,,,,,,,,,,,,,,,,,,,,,,,,,,,,,,,,,,,,,,,,,,,,,,,,,,,,,,,,,,,,,,,,,,,,,,,,
,,66b8b996ba8542d9cbd3f5a3,2026-03-17_16h17.09.449,kallum_motion_pilot_GIST_update_2,2026.1.1,Win32,60.24096386,66b8b996ba8542d9cbd3f5a3,69b95efdef24cd8a694e89ee,69b961424fa65c1d27025104,0.0721,0.0723,0,96,96,75,1,twofour,,,,,,,,,,,,,,,,,,,,,,,,,,,,,,,,,,,,,,,,,,,,,,,,,,,,,,,,,,,,,,,,,,,,,,,,,,,,,,,,,,,,,,,,,,,,,,,,,,,,,,,,,,,,,,,,,,,,,,,,,,,,,,,,,,,,,,,,,
,,66b8b996ba8542d9cbd3f5a3,2026-03-17_16h17.09.449,kallum_motion_pilot_GIST_update_2,2026.1.1,Win32,60.24096386,66b8b996ba8542d9cbd3f5a3,69b95efdef24cd8a694e89ee,69b961424fa65c1d27025104,0.0726,0.0726,0,97,97,95,1,eightseven,,,,,,,,,,,,,,,,,,,,,,,,,,,,,,,,,,,,,,,,,,,,,,,,,,,,,,,,,,,,,,,,,,,,,,,,,,,,,,,,,,,,,,,,,,,,,,,,,,,,,,,,,,,,,,,,,,,,,,,,,,,,,,,,,,,,,,,,,
,,66b8b996ba8542d9cbd3f5a3,2026-03-17_16h17.09.449,kallum_motion_pilot_GIST_update_2,2026.1.1,Win32,60.24096386,66b8b996ba8542d9cbd3f5a3,69b95efdef24cd8a694e89ee,69b961424fa65c1d27025104,0.0729,0.0729,0,98,98,71,1,fourthree,,,,,,,,,,,,,,,,,,,,,,,,,,,,,,,,,,,,,,,,,,,,,,,,,,,,,,,,,,,,,,,,,,,,,,,,,,,,,,,,,,,,,,,,,,,,,,,,,,,,,,,,,,,,,,,,,,,,,,,,,,,,,,,,,,,,,,,,,
,,66b8b996ba8542d9cbd3f5a3,2026-03-17_16h17.09.449,kallum_motion_pilot_GIST_update_2,2026.1.1,Win32,60.24096386,66b8b996ba8542d9cbd3f5a3,69b95efdef24cd8a694e89ee,69b961424fa65c1d27025104,0.0732,0.0732,0,99,99,118,1,eightsix,,,,,,,,,,,,,,,,,,,,,,,,,,,,,,,,,,,,,,,,,,,,,,,,,,,,,,,,,,,,,,,,,,,,,,,,,,,,,,,,,,,,,,,,,,,,,,,,,,,,,,,,,,,,,,,,,,,,,,,,,,,,,,,,,,,,,,,,,
,,66b8b996ba8542d9cbd3f5a3,2026-03-17_16h17.09.449,kallum_motion_pilot_GIST_update_2,2026.1.1,Win32,60.24096386,66b8b996ba8542d9cbd3f5a3,69b95efdef24cd8a694e89ee,69b961424fa65c1d27025104,0.0735,0.0736,0,100,100,139,1,sixeight,,,,,,,,,,,,,,,,,,,,,,,,,,,,,,,,,,,,,,,,,,,,,,,,,,,,,,,,,,,,,,,,,,,,,,,,,,,,,,,,,,,,,,,,,,,,,,,,,,,,,,,,,,,,,,,,,,,,,,,,,,,,,,,,,,,,,,,,,
,,66b8b996ba8542d9cbd3f5a3,2026-03-17_16h17.09.449,kallum_motion_pilot_GIST_update_2,2026.1.1,Win32,60.24096386,66b8b996ba8542d9cbd3f5a3,69b95efdef24cd8a694e89ee,69b961424fa65c1d27025104,0.0738,0.0738,0,101,101,67,1,twofour,,,,,,,,,,,,,,,,,,,,,,,,,,,,,,,,,,,,,,,,,,,,,,,,,,,,,,,,,,,,,,,,,,,,,,,,,,,,,,,,,,,,,,,,,,,,,,,,,,,,,,,,,,,,,,,,,,,,,,,,,,,,,,,,,,,,,,,,,
,,66b8b996ba8542d9cbd3f5a3,2026-03-17_16h17.09.449,kallum_motion_pilot_GIST_update_2,2026.1.1,Win32,60.24096386,66b8b996ba8542d9cbd3f5a3,69b95efdef24cd8a694e89ee,69b961424fa65c1d27025104,0.0741,0.0741,0,102,102,19,1,twofour,,,,,,,,,,,,,,,,,,,,,,,,,,,,,,,,,,,,,,,,,,,,,,,,,,,,,,,,,,,,,,,,,,,,,,,,,,,,,,,,,,,,,,,,,,,,,,,,,,,,,,,,,,,,,,,,,,,,,,,,,,,,,,,,,,,,,,,,,
,,66b8b996ba8542d9cbd3f5a3,2026-03-17_16h17.09.449,kallum_motion_pilot_GIST_update_2,2026.1.1,Win32,60.24096386,66b8b996ba8542d9cbd3f5a3,69b95efdef24cd8a694e89ee,69b961424fa65c1d27025104,0.0743,0.0744,0,103,103,92,1,sevenfive,,,,,,,,,,,,,,,,,,,,,,,,,,,,,,,,,,,,,,,,,,,,,,,,,,,,,,,,,,,,,,,,,,,,,,,,,,,,,,,,,,,,,,,,,,,,,,,,,,,,,,,,,,,,,,,,,,,,,,,,,,,,,,,,,,,,,,,,,
,,66b8b996ba8542d9cbd3f5a3,2026-03-17_16h17.09.449,kallum_motion_pilot_GIST_update_2,2026.1.1,Win32,60.24096386,66b8b996ba8542d9cbd3f5a3,69b95efdef24cd8a694e89ee,69b961424fa65c1d27025104,0.0747,0.0747,0,104,104,14,1,fourtwo,,,,,,,,,,,,,,,,,,,,,,,,,,,,,,,,,,,,,,,,,,,,,,,,,,,,,,,,,,,,,,,,,,,,,,,,,,,,,,,,,,,,,,,,,,,,,,,,,,,,,,,,,,,,,,,,,,,,,,,,,,,,,,,,,,,,,,,,,
,,66b8b996ba8542d9cbd3f5a3,2026-03-17_16h17.09.449,kallum_motion_pilot_GIST_update_2,2026.1.1,Win32,60.24096386,66b8b996ba8542d9cbd3f5a3,69b95efdef24cd8a694e89ee,69b961424fa65c1d27025104,0.0749,0.075,0,105,105,24,1,onetwo,,,,,,,,,,,,,,,,,,,,,,,,,,,,,,,,,,,,,,,,,,,,,,,,,,,,,,,,,,,,,,,,,,,,,,,,,,,,,,,,,,,,,,,,,,,,,,,,,,,,,,,,,,,,,,,,,,,,,,,,,,,,,,,,,,,,,,,,,
,,66b8b996ba8542d9cbd3f5a3,2026-03-17_16h17.09.449,kallum_motion_pilot_GIST_update_2,2026.1.1,Win32,60.24096386,66b8b996ba8542d9cbd3f5a3,69b95efdef24cd8a694e89ee,69b961424fa65c1d27025104,0.0752,0.0752,0,106,106,45,1,threefour,,,,,,,,,,,,,,,,,,,,,,,,,,,,,,,,,,,,,,,,,,,,,,,,,,,,,,,,,,,,,,,,,,,,,,,,,,,,,,,,,,,,,,,,,,,,,,,,,,,,,,,,,,,,,,,,,,,,,,,,,,,,,,,,,,,,,,,,,
,,66b8b996ba8542d9cbd3f5a3,2026-03-17_16h17.09.449,kallum_motion_pilot_GIST_update_2,2026.1.1,Win32,60.24096386,66b8b996ba8542d9cbd3f5a3,69b95efdef24cd8a694e89ee,69b961424fa65c1d27025104,0.0755,0.0755,0,107,107,159,1,eightseven,,,,,,,,,,,,,,,,,,,,,,,,,,,,,,,,,,,,,,,,,,,,,,,,,,,,,,,,,,,,,,,,,,,,,,,,,,,,,,,,,,,,,,,,,,,,,,,,,,,,,,,,,,,,,,,,,,,,,,,,,,,,,,,,,,,,,,,,,
,,66b8b996ba8542d9cbd3f5a3,2026-03-17_16h17.09.449,kallum_motion_pilot_GIST_update_2,2026.1.1,Win32,60.24096386,66b8b996ba8542d9cbd3f5a3,69b95efdef24cd8a694e89ee,69b961424fa65c1d27025104,0.0758,0.0758,0,108,108,124,1,sevenfive,,,,,,,,,,,,,,,,,,,,,,,,,,,,,,,,,,,,,,,,,,,,,,,,,,,,,,,,,,,,,,,,,,,,,,,,,,,,,,,,,,,,,,,,,,,,,,,,,,,,,,,,,,,,,,,,,,,,,,,,,,,,,,,,,,,,,,,,,
,,66b8b996ba8542d9cbd3f5a3,2026-03-17_16h17.09.449,kallum_motion_pilot_GIST_update_2,2026.1.1,Win32,60.24096386,66b8b996ba8542d9cbd3f5a3,69b95efdef24cd8a694e89ee,69b961424fa65c1d27025104,0.076,0.0762,0,109,109,26,1,twoone,,,,,,,,,,,,,,,,,,,,,,,,,,,,,,,,,,,,,,,,,,,,,,,,,,,,,,,,,,,,,,,,,,,,,,,,,,,,,,,,,,,,,,,,,,,,,,,,,,,,,,,,,,,,,,,,,,,,,,,,,,,,,,,,,,,,,,,,,
,,66b8b996ba8542d9cbd3f5a3,2026-03-17_16h17.09.449,kallum_motion_pilot_GIST_update_2,2026.1.1,Win32,60.24096386,66b8b996ba8542d9cbd3f5a3,69b95efdef24cd8a694e89ee,69b961424fa65c1d27025104,0.0764,0.0764,0,110,110,121,1,fiveseven,,,,,,,,,,,,,,,,,,,,,,,,,,,,,,,,,,,,,,,,,,,,,,,,,,,,,,,,,,,,,,,,,,,,,,,,,,,,,,,,,,,,,,,,,,,,,,,,,,,,,,,,,,,,,,,,,,,,,,,,,,,,,,,,,,,,,,,,,
,,66b8b996ba8542d9cbd3f5a3,2026-03-17_16h17.09.449,kallum_motion_pilot_GIST_update_2,2026.1.1,Win32,60.24096386,66b8b996ba8542d9cbd3f5a3,69b95efdef24cd8a694e89ee,69b961424fa65c1d27025104,0.0769,0.0769,0,111,111,62,1,fourtwo,,,,,,,,,,,,,,,,,,,,,,,,,,,,,,,,,,,,,,,,,,,,,,,,,,,,,,,,,,,,,,,,,,,,,,,,,,,,,,,,,,,,,,,,,,,,,,,,,,,,,,,,,,,,,,,,,,,,,,,,,,,,,,,,,,,,,,,,,
,,66b8b996ba8542d9cbd3f5a3,2026-03-17_16h17.09.449,kallum_motion_pilot_GIST_update_2,2026.1.1,Win32,60.24096386,66b8b996ba8542d9cbd3f5a3,69b95efdef24cd8a694e89ee,69b961424fa65c1d27025104,0.0772,0.0773,0,112,112,30,1,fourtwo,,,,,,,,,,,,,,,,,,,,,,,,,,,,,,,,,,,,,,,,,,,,,,,,,,,,,,,,,,,,,,,,,,,,,,,,,,,,,,,,,,,,,,,,,,,,,,,,,,,,,,,,,,,,,,,,,,,,,,,,,,,,,,,,,,,,,,,,,
,,66b8b996ba8542d9cbd3f5a3,2026-03-17_16h17.09.449,kallum_motion_pilot_GIST_update_2,2026.1.1,Win32,60.24096386,66b8b996ba8542d9cbd3f5a3,69b95efdef24cd8a694e89ee,69b961424fa65c1d27025104,0.0775,0.0775,0,113,113,31,1,fourthree,,,,,,,,,,,,,,,,,,,,,,,,,,,,,,,,,,,,,,,,,,,,,,,,,,,,,,,,,,,,,,,,,,,,,,,,,,,,,,,,,,,,,,,,,,,,,,,,,,,,,,,,,,,,,,,,,,,,,,,,,,,,,,,,,,,,,,,,,
,,66b8b996ba8542d9cbd3f5a3,2026-03-17_16h17.09.449,kallum_motion_pilot_GIST_update_2,2026.1.1,Win32,60.24096386,66b8b996ba8542d9cbd3f5a3,69b95efdef24cd8a694e89ee,69b961424fa65c1d27025104,0.0778,0.0778,0,114,114,96,1,fivesix,,,,,,,,,,,,,,,,,,,,,,,,,,,,,,,,,,,,,,,,,,,,,,,,,,,,,,,,,,,,,,,,,,,,,,,,,,,,,,,,,,,,,,,,,,,,,,,,,,,,,,,,,,,,,,,,,,,,,,,,,,,,,,,,,,,,,,,,,
,,66b8b996ba8542d9cbd3f5a3,2026-03-17_16h17.09.449,kallum_motion_pilot_GIST_update_2,2026.1.1,Win32,60.24096386,66b8b996ba8542d9cbd3f5a3,69b95efdef24cd8a694e89ee,69b961424fa65c1d27025104,0.0781,0.0781,0,115,115,101,1,seveneight,,,,,,,,,,,,,,,,,,,,,,,,,,,,,,,,,,,,,,,,,,,,,,,,,,,,,,,,,,,,,,,,,,,,,,,,,,,,,,,,,,,,,,,,,,,,,,,,,,,,,,,,,,,,,,,,,,,,,,,,,,,,,,,,,,,,,,,,,
,,66b8b996ba8542d9cbd3f5a3,2026-03-17_16h17.09.449,kallum_motion_pilot_GIST_update_2,2026.1.1,Win32,60.24096386,66b8b996ba8542d9cbd3f5a3,69b95efdef24cd8a694e89ee,69b961424fa65c1d27025104,0.0784,0.0785,0,116,116,107,1,sixeight,,,,,,,,,,,,,,,,,,,,,,,,,,,,,,,,,,,,,,,,,,,,,,,,,,,,,,,,,,,,,,,,,,,,,,,,,,,,,,,,,,,,,,,,,,,,,,,,,,,,,,,,,,,,,,,,,,,,,,,,,,,,,,,,,,,,,,,,,
,,66b8b996ba8542d9cbd3f5a3,2026-03-17_16h17.09.449,kallum_motion_pilot_GIST_update_2,2026.1.1,Win32,60.24096386,66b8b996ba8542d9cbd3f5a3,69b95efdef24cd8a694e89ee,69b961424fa65c1d27025104,0.0787,0.0787,0,117,117,74,1,twoone,,,,,,,,,,,,,,,,,,,,,,,,,,,,,,,,,,,,,,,,,,,,,,,,,,,,,,,,,,,,,,,,,,,,,,,,,,,,,,,,,,,,,,,,,,,,,,,,,,,,,,,,,,,,,,,,,,,,,,,,,,,,,,,,,,,,,,,,,
,,66b8b996ba8542d9cbd3f5a3,2026-03-17_16h17.09.449,kallum_motion_pilot_GIST_update_2,2026.1.1,Win32,60.24096386,66b8b996ba8542d9cbd3f5a3,69b95efdef24cd8a694e89ee,69b961424fa65c1d27025104,0.079,0.0791,0,118,118,23,1,fourthree,,,,,,,,,,,,,,,,,,,,,,,,,,,,,,,,,,,,,,,,,,,,,,,,,,,,,,,,,,,,,,,,,,,,,,,,,,,,,,,,,,,,,,,,,,,,,,,,,,,,,,,,,,,,,,,,,,,,,,,,,,,,,,,,,,,,,,,,,
,,66b8b996ba8542d9cbd3f5a3,2026-03-17_16h17.09.449,kallum_motion_pilot_GIST_update_2,2026.1.1,Win32,60.24096386,66b8b996ba8542d9cbd3f5a3,69b95efdef24cd8a694e89ee,69b961424fa65c1d27025104,0.0793,0.0794,0,119,119,40,1,onetwo,,,,,,,,,,,,,,,,,,,,,,,,,,,,,,,,,,,,,,,,,,,,,,,,,,,,,,,,,,,,,,,,,,,,,,,,,,,,,,,,,,,,,,,,,,,,,,,,,,,,,,,,,,,,,,,,,,,,,,,,,,,,,,,,,,,,,,,,,
,,66b8b996ba8542d9cbd3f5a3,2026-03-17_16h17.09.449,kallum_motion_pilot_GIST_update_2,2026.1.1,Win32,60.24096386,66b8b996ba8542d9cbd3f5a3,69b95efdef24cd8a694e89ee,69b961424fa65c1d27025104,0.0796,0.0797,0,120,120,111,1,eightseven,,,,,,,,,,,,,,,,,,,,,,,,,,,,,,,,,,,,,,,,,,,,,,,,,,,,,,,,,,,,,,,,,,,,,,,,,,,,,,,,,,,,,,,,,,,,,,,,,,,,,,,,,,,,,,,,,,,,,,,,,,,,,,,,,,,,,,,,,
,,66b8b996ba8542d9cbd3f5a3,2026-03-17_16h17.09.449,kallum_motion_pilot_GIST_update_2,2026.1.1,Win32,60.24096386,66b8b996ba8542d9cbd3f5a3,69b95efdef24cd8a694e89ee,69b961424fa65c1d27025104,0.08,0.08,0,121,121,112,1,fivesix,,,,,,,,,,,,,,,,,,,,,,,,,,,,,,,,,,,,,,,,,,,,,,,,,,,,,,,,,,,,,,,,,,,,,,,,,,,,,,,,,,,,,,,,,,,,,,,,,,,,,,,,,,,,,,,,,,,,,,,,,,,,,,,,,,,,,,,,,
,,66b8b996ba8542d9cbd3f5a3,2026-03-17_16h17.09.449,kallum_motion_pilot_GIST_update_2,2026.1.1,Win32,60.24096386,66b8b996ba8542d9cbd3f5a3,69b95efdef24cd8a694e89ee,69b961424fa65c1d27025104,0.0803,0.0804,0,122,122,116,1,sevenfive,,,,,,,,,,,,,,,,,,,,,,,,,,,,,,,,,,,,,,,,,,,,,,,,,,,,,,,,,,,,,,,,,,,,,,,,,,,,,,,,,,,,,,,,,,,,,,,,,,,,,,,,,,,,,,,,,,,,,,,,,,,,,,,,,,,,,,,,,
,,66b8b996ba8542d9cbd3f5a3,2026-03-17_16h17.09.449,kallum_motion_pilot_GIST_update_2,2026.1.1,Win32,60.24096386,66b8b996ba8542d9cbd3f5a3,69b95efdef24cd8a694e89ee,69b961424fa65c1d27025104,0.0807,0.0807,0,123,123,11,1,twofour,,,,,,,,,,,,,,,,,,,,,,,,,,,,,,,,,,,,,,,,,,,,,,,,,,,,,,,,,,,,,,,,,,,,,,,,,,,,,,,,,,,,,,,,,,,,,,,,,,,,,,,,,,,,,,,,,,,,,,,,,,,,,,,,,,,,,,,,,
,,66b8b996ba8542d9cbd3f5a3,2026-03-17_16h17.09.449,kallum_motion_pilot_GIST_update_2,2026.1.1,Win32,60.24096386,66b8b996ba8542d9cbd3f5a3,69b95efdef24cd8a694e89ee,69b961424fa65c1d27025104,0.081,0.081,0,124,124,27,1,twofour,,,,,,,,,,,,,,,,,,,,,,,,,,,,,,,,,,,,,,,,,,,,,,,,,,,,,,,,,,,,,,,,,,,,,,,,,,,,,,,,,,,,,,,,,,,,,,,,,,,,,,,,,,,,,,,,,,,,,,,,,,,,,,,,,,,,,,,,,
,,66b8b996ba8542d9cbd3f5a3,2026-03-17_16h17.09.449,kallum_motion_pilot_GIST_update_2,2026.1.1,Win32,60.24096386,66b8b996ba8542d9cbd3f5a3,69b95efdef24cd8a694e89ee,69b961424fa65c1d27025104,0.0813,0.0814,0,125,125,44,1,threeone,,,,,,,,,,,,,,,,,,,,,,,,,,,,,,,,,,,,,,,,,,,,,,,,,,,,,,,,,,,,,,,,,,,,,,,,,,,,,,,,,,,,,,,,,,,,,,,,,,,,,,,,,,,,,,,,,,,,,,,,,,,,,,,,,,,,,,,,,
,,66b8b996ba8542d9cbd3f5a3,2026-03-17_16h17.09.449,kallum_motion_pilot_GIST_update_2,2026.1.1,Win32,60.24096386,66b8b996ba8542d9cbd3f5a3,69b95efdef24cd8a694e89ee,69b961424fa65c1d27025104,0.0816,0.0817,0,126,126,135,1,eightseven,,,,,,,,,,,,,,,,,,,,,,,,,,,,,,,,,,,,,,,,,,,,,,,,,,,,,,,,,,,,,,,,,,,,,,,,,,,,,,,,,,,,,,,,,,,,,,,,,,,,,,,,,,,,,,,,,,,,,,,,,,,,,,,,,,,,,,,,,
,,66b8b996ba8542d9cbd3f5a3,2026-03-17_16h17.09.449,kallum_motion_pilot_GIST_update_2,2026.1.1,Win32,60.24096386,66b8b996ba8542d9cbd3f5a3,69b95efdef24cd8a694e89ee,69b961424fa65c1d27025104,0.0819,0.082,0,127,127,94,1,eightsix,,,,,,,,,,,,,,,,,,,,,,,,,,,,,,,,,,,,,,,,,,,,,,,,,,,,,,,,,,,,,,,,,,,,,,,,,,,,,,,,,,,,,,,,,,,,,,,,,,,,,,,,,,,,,,,,,,,,,,,,,,,,,,,,,,,,,,,,,
,,66b8b996ba8542d9cbd3f5a3,2026-03-17_16h17.09.449,kallum_motion_pilot_GIST_update_2,2026.1.1,Win32,60.24096386,66b8b996ba8542d9cbd3f5a3,69b95efdef24cd8a694e89ee,69b961424fa65c1d27025104,0.0822,0.0823,0,128,128,4,1,threeone,,,,,,,,,,,,,,,,,,,,,,,,,,,,,,,,,,,,,,,,,,,,,,,,,,,,,,,,,,,,,,,,,,,,,,,,,,,,,,,,,,,,,,,,,,,,,,,,,,,,,,,,,,,,,,,,,,,,,,,,,,,,,,,,,,,,,,,,,
,,66b8b996ba8542d9cbd3f5a3,2026-03-17_16h17.09.449,kallum_motion_pilot_GIST_update_2,2026.1.1,Win32,60.24096386,66b8b996ba8542d9cbd3f5a3,69b95efdef24cd8a694e89ee,69b961424fa65c1d27025104,0.0827,0.0827,0,129,129,43,1,twofour,,,,,,,,,,,,,,,,,,,,,,,,,,,,,,,,,,,,,,,,,,,,,,,,,,,,,,,,,,,,,,,,,,,,,,,,,,,,,,,,,,,,,,,,,,,,,,,,,,,,,,,,,,,,,,,,,,,,,,,,,,,,,,,,,,,,,,,,,
,,66b8b996ba8542d9cbd3f5a3,2026-03-17_16h17.09.449,kallum_motion_pilot_GIST_update_2,2026.1.1,Win32,60.24096386,66b8b996ba8542d9cbd3f5a3,69b95efdef24cd8a694e89ee,69b961424fa65c1d27025104,0.0831,0.0831,0,130,130,132,1,sevenfive,,,,,,,,,,,,,,,,,,,,,,,,,,,,,,,,,,,,,,,,,,,,,,,,,,,,,,,,,,,,,,,,,,,,,,,,,,,,,,,,,,,,,,,,,,,,,,,,,,,,,,,,,,,,,,,,,,,,,,,,,,,,,,,,,,,,,,,,,
,,66b8b996ba8542d9cbd3f5a3,2026-03-17_16h17.09.449,kallum_motion_pilot_GIST_update_2,2026.1.1,Win32,60.24096386,66b8b996ba8542d9cbd3f5a3,69b95efdef24cd8a694e89ee,69b961424fa65c1d27025104,0.0833,0.0834,0,131,131,126,1,eightsix,,,,,,,,,,,,,,,,,,,,,,,,,,,,,,,,,,,,,,,,,,,,,,,,,,,,,,,,,,,,,,,,,,,,,,,,,,,,,,,,,,,,,,,,,,,,,,,,,,,,,,,,,,,,,,,,,,,,,,,,,,,,,,,,,,,,,,,,,
,,66b8b996ba8542d9cbd3f5a3,2026-03-17_16h17.09.449,kallum_motion_pilot_GIST_update_2,2026.1.1,Win32,60.24096386,66b8b996ba8542d9cbd3f5a3,69b95efdef24cd8a694e89ee,69b961424fa65c1d27025104,0.0836,0.0837,0,132,132,106,1,sixfive,,,,,,,,,,,,,,,,,,,,,,,,,,,,,,,,,,,,,,,,,,,,,,,,,,,,,,,,,,,,,,,,,,,,,,,,,,,,,,,,,,,,,,,,,,,,,,,,,,,,,,,,,,,,,,,,,,,,,,,,,,,,,,,,,,,,,,,,,
,,66b8b996ba8542d9cbd3f5a3,2026-03-17_16h17.09.449,kallum_motion_pilot_GIST_update_2,2026.1.1,Win32,60.24096386,66b8b996ba8542d9cbd3f5a3,69b95efdef24cd8a694e89ee,69b961424fa65c1d27025104,0.0839,0.084,0,133,133,47,1,fourthree,,,,,,,,,,,,,,,,,,,,,,,,,,,,,,,,,,,,,,,,,,,,,,,,,,,,,,,,,,,,,,,,,,,,,,,,,,,,,,,,,,,,,,,,,,,,,,,,,,,,,,,,,,,,,,,,,,,,,,,,,,,,,,,,,,,,,,,,,
,,66b8b996ba8542d9cbd3f5a3,2026-03-17_16h17.09.449,kallum_motion_pilot_GIST_update_2,2026.1.1,Win32,60.24096386,66b8b996ba8542d9cbd3f5a3,69b95efdef24cd8a694e89ee,69b961424fa65c1d27025104,0.0842,0.0842,0,134,134,36,1,threeone,,,,,,,,,,,,,,,,,,,,,,,,,,,,,,,,,,,,,,,,,,,,,,,,,,,,,,,,,,,,,,,,,,,,,,,,,,,,,,,,,,,,,,,,,,,,,,,,,,,,,,,,,,,,,,,,,,,,,,,,,,,,,,,,,,,,,,,,,
,,66b8b996ba8542d9cbd3f5a3,2026-03-17_16h17.09.449,kallum_motion_pilot_GIST_update_2,2026.1.1,Win32,60.24096386,66b8b996ba8542d9cbd3f5a3,69b95efdef24cd8a694e89ee,69b961424fa65c1d27025104,0.0846,0.0846,0,135,135,51,1,twofour,,,,,,,,,,,,,,,,,,,,,,,,,,,,,,,,,,,,,,,,,,,,,,,,,,,,,,,,,,,,,,,,,,,,,,,,,,,,,,,,,,,,,,,,,,,,,,,,,,,,,,,,,,,,,,,,,,,,,,,,,,,,,,,,,,,,,,,,,
,,66b8b996ba8542d9cbd3f5a3,2026-03-17_16h17.09.449,kallum_motion_pilot_GIST_update_2,2026.1.1,Win32,60.24096386,66b8b996ba8542d9cbd3f5a3,69b95efdef24cd8a694e89ee,69b961424fa65c1d27025104,0.0848,0.0849,0,136,136,154,1,sixfive,,,,,,,,,,,,,,,,,,,,,,,,,,,,,,,,,,,,,,,,,,,,,,,,,,,,,,,,,,,,,,,,,,,,,,,,,,,,,,,,,,,,,,,,,,,,,,,,,,,,,,,,,,,,,,,,,,,,,,,,,,,,,,,,,,,,,,,,,
,,66b8b996ba8542d9cbd3f5a3,2026-03-17_16h17.09.449,kallum_motion_pilot_GIST_update_2,2026.1.1,Win32,60.24096386,66b8b996ba8542d9cbd3f5a3,69b95efdef24cd8a694e89ee,69b961424fa65c1d27025104,0.0852,0.0852,0,137,137,89,1,fiveseven,,,,,,,,,,,,,,,,,,,,,,,,,,,,,,,,,,,,,,,,,,,,,,,,,,,,,,,,,,,,,,,,,,,,,,,,,,,,,,,,,,,,,,,,,,,,,,,,,,,,,,,,,,,,,,,,,,,,,,,,,,,,,,,,,,,,,,,,,
,,66b8b996ba8542d9cbd3f5a3,2026-03-17_16h17.09.449,kallum_motion_pilot_GIST_update_2,2026.1.1,Win32,60.24096386,66b8b996ba8542d9cbd3f5a3,69b95efdef24cd8a694e89ee,69b961424fa65c1d27025104,0.0857,0.0857,0,138,138,49,1,onethree,,,,,,,,,,,,,,,,,,,,,,,,,,,,,,,,,,,,,,,,,,,,,,,,,,,,,,,,,,,,,,,,,,,,,,,,,,,,,,,,,,,,,,,,,,,,,,,,,,,,,,,,,,,,,,,,,,,,,,,,,,,,,,,,,,,,,,,,,
,,66b8b996ba8542d9cbd3f5a3,2026-03-17_16h17.09.449,kallum_motion_pilot_GIST_update_2,2026.1.1,Win32,60.24096386,66b8b996ba8542d9cbd3f5a3,69b95efdef24cd8a694e89ee,69b961424fa65c1d27025104,0.086,0.086,0,139,139,76,1,threeone,,,,,,,,,,,,,,,,,,,,,,,,,,,,,,,,,,,,,,,,,,,,,,,,,,,,,,,,,,,,,,,,,,,,,,,,,,,,,,,,,,,,,,,,,,,,,,,,,,,,,,,,,,,,,,,,,,,,,,,,,,,,,,,,,,,,,,,,,
,,66b8b996ba8542d9cbd3f5a3,2026-03-17_16h17.09.449,kallum_motion_pilot_GIST_update_2,2026.1.1,Win32,60.24096386,66b8b996ba8542d9cbd3f5a3,69b95efdef24cd8a694e89ee,69b961424fa65c1d27025104,0.0863,0.0864,0,140,140,70,1,fourtwo,,,,,,,,,,,,,,,,,,,,,,,,,,,,,,,,,,,,,,,,,,,,,,,,,,,,,,,,,,,,,,,,,,,,,,,,,,,,,,,,,,,,,,,,,,,,,,,,,,,,,,,,,,,,,,,,,,,,,,,,,,,,,,,,,,,,,,,,,
,,66b8b996ba8542d9cbd3f5a3,2026-03-17_16h17.09.449,kallum_motion_pilot_GIST_update_2,2026.1.1,Win32,60.24096386,66b8b996ba8542d9cbd3f5a3,69b95efdef24cd8a694e89ee,69b961424fa65c1d27025104,0.0867,0.0867,0,141,141,158,1,eightsix,,,,,,,,,,,,,,,,,,,,,,,,,,,,,,,,,,,,,,,,,,,,,,,,,,,,,,,,,,,,,,,,,,,,,,,,,,,,,,,,,,,,,,,,,,,,,,,,,,,,,,,,,,,,,,,,,,,,,,,,,,,,,,,,,,,,,,,,,
,,66b8b996ba8542d9cbd3f5a3,2026-03-17_16h17.09.449,kallum_motion_pilot_GIST_update_2,2026.1.1,Win32,60.24096386,66b8b996ba8542d9cbd3f5a3,69b95efdef24cd8a694e89ee,69b961424fa65c1d27025104,0.087,0.0871,0,142,142,87,1,eightseven,,,,,,,,,,,,,,,,,,,,,,,,,,,,,,,,,,,,,,,,,,,,,,,,,,,,,,,,,,,,,,,,,,,,,,,,,,,,,,,,,,,,,,,,,,,,,,,,,,,,,,,,,,,,,,,,,,,,,,,,,,,,,,,,,,,,,,,,,
,,66b8b996ba8542d9cbd3f5a3,2026-03-17_16h17.09.449,kallum_motion_pilot_GIST_update_2,2026.1.1,Win32,60.24096386,66b8b996ba8542d9cbd3f5a3,69b95efdef24cd8a694e89ee,69b961424fa65c1d27025104,0.0874,0.0874,0,143,143,78,1,fourtwo,,,,,,,,,,,,,,,,,,,,,,,,,,,,,,,,,,,,,,,,,,,,,,,,,,,,,,,,,,,,,,,,,,,,,,,,,,,,,,,,,,,,,,,,,,,,,,,,,,,,,,,,,,,,,,,,,,,,,,,,,,,,,,,,,,,,,,,,,
,,66b8b996ba8542d9cbd3f5a3,2026-03-17_16h17.09.449,kallum_motion_pilot_GIST_update_2,2026.1.1,Win32,60.24096386,66b8b996ba8542d9cbd3f5a3,69b95efdef24cd8a694e89ee,69b961424fa65c1d27025104,0.0878,0.0878,0,144,144,147,1,sixeight,,,,,,,,,,,,,,,,,,,,,,,,,,,,,,,,,,,,,,,,,,,,,,,,,,,,,,,,,,,,,,,,,,,,,,,,,,,,,,,,,,,,,,,,,,,,,,,,,,,,,,,,,,,,,,,,,,,,,,,,,,,,,,,,,,,,,,,,,
,,66b8b996ba8542d9cbd3f5a3,2026-03-17_16h17.09.449,kallum_motion_pilot_GIST_update_2,2026.1.1,Win32,60.24096386,66b8b996ba8542d9cbd3f5a3,69b95efdef24cd8a694e89ee,69b961424fa65c1d27025104,0.0882,0.0882,0,145,145,157,1,seveneight,,,,,,,,,,,,,,,,,,,,,,,,,,,,,,,,,,,,,,,,,,,,,,,,,,,,,,,,,,,,,,,,,,,,,,,,,,,,,,,,,,,,,,,,,,,,,,,,,,,,,,,,,,,,,,,,,,,,,,,,,,,,,,,,,,,,,,,,,
,,66b8b996ba8542d9cbd3f5a3,2026-03-17_16h17.09.449,kallum_motion_pilot_GIST_update_2,2026.1.1,Win32,60.24096386,66b8b996ba8542d9cbd3f5a3,69b95efdef24cd8a694e89ee,69b961424fa65c1d27025104,0.0888,0.0888,0,146,146,53,1,threefour,,,,,,,,,,,,,,,,,,,,,,,,,,,,,,,,,,,,,,,,,,,,,,,,,,,,,,,,,,,,,,,,,,,,,,,,,,,,,,,,,,,,,,,,,,,,,,,,,,,,,,,,,,,,,,,,,,,,,,,,,,,,,,,,,,,,,,,,,
,,66b8b996ba8542d9cbd3f5a3,2026-03-17_16h17.09.449,kallum_motion_pilot_GIST_update_2,2026.1.1,Win32,60.24096386,66b8b996ba8542d9cbd3f5a3,69b95efdef24cd8a694e89ee,69b961424fa65c1d27025104,0.0892,0.0892,0,147,147,13,1,threefour,,,,,,,,,,,,,,,,,,,,,,,,,,,,,,,,,,,,,,,,,,,,,,,,,,,,,,,,,,,,,,,,,,,,,,,,,,,,,,,,,,,,,,,,,,,,,,,,,,,,,,,,,,,,,,,,,,,,,,,,,,,,,,,,,,,,,,,,,
,,66b8b996ba8542d9cbd3f5a3,2026-03-17_16h17.09.449,kallum_motion_pilot_GIST_update_2,2026.1.1,Win32,60.24096386,66b8b996ba8542d9cbd3f5a3,69b95efdef24cd8a694e89ee,69b961424fa65c1d27025104,0.0896,0.0896,0,148,148,5,1,threefour,,,,,,,,,,,,,,,,,,,,,,,,,,,,,,,,,,,,,,,,,,,,,,,,,,,,,,,,,,,,,,,,,,,,,,,,,,,,,,,,,,,,,,,,,,,,,,,,,,,,,,,,,,,,,,,,,,,,,,,,,,,,,,,,,,,,,,,,,
,,66b8b996ba8542d9cbd3f5a3,2026-03-17_16h17.09.449,kallum_motion_pilot_GIST_update_2,2026.1.1,Win32,60.24096386,66b8b996ba8542d9cbd3f5a3,69b95efdef24cd8a694e89ee,69b961424fa65c1d27025104,0.0901,0.0901,0,149,149,66,1,twoone,,,,,,,,,,,,,,,,,,,,,,,,,,,,,,,,,,,,,,,,,,,,,,,,,,,,,,,,,,,,,,,,,,,,,,,,,,,,,,,,,,,,,,,,,,,,,,,,,,,,,,,,,,,,,,,,,,,,,,,,,,,,,,,,,,,,,,,,,
,,66b8b996ba8542d9cbd3f5a3,2026-03-17_16h17.09.449,kallum_motion_pilot_GIST_update_2,2026.1.1,Win32,60.24096386,66b8b996ba8542d9cbd3f5a3,69b95efdef24cd8a694e89ee,69b961424fa65c1d27025104,0.0905,0.0905,0,150,150,64,1,onetwo,,,,,,,,,,,,,,,,,,,,,,,,,,,,,,,,,,,,,,,,,,,,,,,,,,,,,,,,,,,,,,,,,,,,,,,,,,,,,,,,,,,,,,,,,,,,,,,,,,,,,,,,,,,,,,,,,,,,,,,,,,,,,,,,,,,,,,,,,
,,66b8b996ba8542d9cbd3f5a3,2026-03-17_16h17.09.449,kallum_motion_pilot_GIST_update_2,2026.1.1,Win32,60.24096386,66b8b996ba8542d9cbd3f5a3,69b95efdef24cd8a694e89ee,69b961424fa65c1d27025104,0.091,0.091,0,151,151,131,1,sixeight,,,,,,,,,,,,,,,,,,,,,,,,,,,,,,,,,,,,,,,,,,,,,,,,,,,,,,,,,,,,,,,,,,,,,,,,,,,,,,,,,,,,,,,,,,,,,,,,,,,,,,,,,,,,,,,,,,,,,,,,,,,,,,,,,,,,,,,,,
,,66b8b996ba8542d9cbd3f5a3,2026-03-17_16h17.09.449,kallum_motion_pilot_GIST_update_2,2026.1.1,Win32,60.24096386,66b8b996ba8542d9cbd3f5a3,69b95efdef24cd8a694e89ee,69b961424fa65c1d27025104,0.0914,0.0914,0,152,152,63,1,fourthree,,,,,,,,,,,,,,,,,,,,,,,,,,,,,,,,,,,,,,,,,,,,,,,,,,,,,,,,,,,,,,,,,,,,,,,,,,,,,,,,,,,,,,,,,,,,,,,,,,,,,,,,,,,,,,,,,,,,,,,,,,,,,,,,,,,,,,,,,
,,66b8b996ba8542d9cbd3f5a3,2026-03-17_16h17.09.449,kallum_motion_pilot_GIST_update_2,2026.1.1,Win32,60.24096386,66b8b996ba8542d9cbd3f5a3,69b95efdef24cd8a694e89ee,69b961424fa65c1d27025104,0.0919,0.0919,0,153,153,102,1,eightsix,,,,,,,,,,,,,,,,,,,,,,,,,,,,,,,,,,,,,,,,,,,,,,,,,,,,,,,,,,,,,,,,,,,,,,,,,,,,,,,,,,,,,,,,,,,,,,,,,,,,,,,,,,,,,,,,,,,,,,,,,,,,,,,,,,,,,,,,,
,,66b8b996ba8542d9cbd3f5a3,2026-03-17_16h17.09.449,kallum_motion_pilot_GIST_update_2,2026.1.1,Win32,60.24096386,66b8b996ba8542d9cbd3f5a3,69b95efdef24cd8a694e89ee,69b961424fa65c1d27025104,0.0923,0.0923,0,154,154,161,1,fiveseven,,,,,,,,,,,,,,,,,,,,,,,,,,,,,,,,,,,,,,,,,,,,,,,,,,,,,,,,,,,,,,,,,,,,,,,,,,,,,,,,,,,,,,,,,,,,,,,,,,,,,,,,,,,,,,,,,,,,,,,,,,,,,,,,,,,,,,,,,
,,66b8b996ba8542d9cbd3f5a3,2026-03-17_16h17.09.449,kallum_motion_pilot_GIST_update_2,2026.1.1,Win32,60.24096386,66b8b996ba8542d9cbd3f5a3,69b95efdef24cd8a694e89ee,69b961424fa65c1d27025104,0.0929,0.093,0,155,155,130,1,sixfive,,,,,,,,,,,,,,,,,,,,,,,,,,,,,,,,,,,,,,,,,,,,,,,,,,,,,,,,,,,,,,,,,,,,,,,,,,,,,,,,,,,,,,,,,,,,,,,,,,,,,,,,,,,,,,,,,,,,,,,,,,,,,,,,,,,,,,,,,
,,66b8b996ba8542d9cbd3f5a3,2026-03-17_16h17.09.449,kallum_motion_pilot_GIST_update_2,2026.1.1,Win32,60.24096386,66b8b996ba8542d9cbd3f5a3,69b95efdef24cd8a694e89ee,69b961424fa65c1d27025104,0.0941,0.0941,0,156,156,97,1,fiveseven,,,,,,,,,,,,,,,,,,,,,,,,,,,,,,,,,,,,,,,,,,,,,,,,,,,,,,,,,,,,,,,,,,,,,,,,,,,,,,,,,,,,,,,,,,,,,,,,,,,,,,,,,,,,,,,,,,,,,,,,,,,,,,,,,,,,,,,,,
,,66b8b996ba8542d9cbd3f5a3,2026-03-17_16h17.09.449,kallum_motion_pilot_GIST_update_2,2026.1.1,Win32,60.24096386,66b8b996ba8542d9cbd3f5a3,69b95efdef24cd8a694e89ee,69b961424fa65c1d27025104,0.0946,0.0946,0,157,157,151,1,eightseven,,,,,,,,,,,,,,,,,,,,,,,,,,,,,,,,,,,,,,,,,,,,,,,,,,,,,,,,,,,,,,,,,,,,,,,,,,,,,,,,,,,,,,,,,,,,,,,,,,,,,,,,,,,,,,,,,,,,,,,,,,,,,,,,,,,,,,,,,
,,66b8b996ba8542d9cbd3f5a3,2026-03-17_16h17.09.449,kallum_motion_pilot_GIST_update_2,2026.1.1,Win32,60.24096386,66b8b996ba8542d9cbd3f5a3,69b95efdef24cd8a694e89ee,69b961424fa65c1d27025104,0.0951,0.0951,0,158,158,86,1,eightsix,,,,,,,,,,,,,,,,,,,,,,,,,,,,,,,,,,,,,,,,,,,,,,,,,,,,,,,,,,,,,,,,,,,,,,,,,,,,,,,,,,,,,,,,,,,,,,,,,,,,,,,,,,,,,,,,,,,,,,,,,,,,,,,,,,,,,,,,,
,,66b8b996ba8542d9cbd3f5a3,2026-03-17_16h17.09.449,kallum_motion_pilot_GIST_update_2,2026.1.1,Win32,60.24096386,66b8b996ba8542d9cbd3f5a3,69b95efdef24cd8a694e89ee,69b961424fa65c1d27025104,0.0955,0.0955,0,159,159,137,1,fiveseven,,,,,,,,,,,,,,,,,,,,,,,,,,,,,,,,,,,,,,,,,,,,,,,,,,,,,,,,,,,,,,,,,,,,,,,,,,,,,,,,,,,,,,,,,,,,,,,,,,,,,,,,,,,,,,,,,,,,,,,,,,,,,,,,,,,,,,,,,
,,66b8b996ba8542d9cbd3f5a3,2026-03-17_16h17.09.449,kallum_motion_pilot_GIST_update_2,2026.1.1,Win32,60.24096386,66b8b996ba8542d9cbd3f5a3,69b95efdef24cd8a694e89ee,69b961424fa65c1d27025104,0.096,0.096,0,160,160,16,1,onetwo,,,,,,,,,,,,,,,,,,,,,,,,,,,,,,,,,,,,,,,,,,,,,,,,,,,,,,,,,,,,,,,,,,,,,,,,,,,,,,,,,,,,,,,,,,,,,,,,,,,,,,,,,,,,,,,,,,,,,,,,,,,,,,,,,,,,,,,,,
,,66b8b996ba8542d9cbd3f5a3,2026-03-17_16h17.09.449,kallum_motion_pilot_GIST_update_2,2026.1.1,Win32,60.24096386,66b8b996ba8542d9cbd3f5a3,69b95efdef24cd8a694e89ee,69b961424fa65c1d27025104,0.0964,0.0964,0,161,161,21,1,threefour,,,,,,,,,,,,,,,,,,,,,,,,,,,,,,,,,,,,,,,,,,,,,,,,,,,,,,,,,,,,,,,,,,,,,,,,,,,,,,,,,,,,,,,,,,,,,,,,,,,,,,,,,,,,,,,,,,,,,,,,,,,,,,,,,,,,,,,,,
,,66b8b996ba8542d9cbd3f5a3,2026-03-17_16h17.09.449,kallum_motion_pilot_GIST_update_2,2026.1.1,Win32,60.24096386,66b8b996ba8542d9cbd3f5a3,69b95efdef24cd8a694e89ee,69b961424fa65c1d27025104,0.0967,0.0968,1,0,162,100,1,sevenfive,,,,,,,,,,,,,,,,,,,,,,,,,,,,,,,,,,,,,,,,,,,,,,,,,,,,,,,,,,,,,,,,,,,,,,,,,,,,,,,,,,,,,,,,,,,,,,,,,,,,,,,,,,,,,,,,,,,,,,,,,,,,,,,,,,,,,,,,,
,,66b8b996ba8542d9cbd3f5a3,2026-03-17_16h17.09.449,kallum_motion_pilot_GIST_update_2,2026.1.1,Win32,60.24096386,66b8b996ba8542d9cbd3f5a3,69b95efdef24cd8a694e89ee,69b961424fa65c1d27025104,0.0971,0.0971,1,1,163,109,1,seveneight,,,,,,,,,,,,,,,,,,,,,,,,,,,,,,,,,,,,,,,,,,,,,,,,,,,,,,,,,,,,,,,,,,,,,,,,,,,,,,,,,,,,,,,,,,,,,,,,,,,,,,,,,,,,,,,,,,,,,,,,,,,,,,,,,,,,,,,,,
,,66b8b996ba8542d9cbd3f5a3,2026-03-17_16h17.09.449,kallum_motion_pilot_GIST_update_2,2026.1.1,Win32,60.24096386,66b8b996ba8542d9cbd3f5a3,69b95efdef24cd8a694e89ee,69b961424fa65c1d27025104,0.0975,0.0975,1,2,164,133,1,seveneight,,,,,,,,,,,,,,,,,,,,,,,,,,,,,,,,,,,,,,,,,,,,,,,,,,,,,,,,,,,,,,,,,,,,,,,,,,,,,,,,,,,,,,,,,,,,,,,,,,,,,,,,,,,,,,,,,,,,,,,,,,,,,,,,,,,,,,,,,
,,66b8b996ba8542d9cbd3f5a3,2026-03-17_16h17.09.449,kallum_motion_pilot_GIST_update_2,2026.1.1,Win32,60.24096386,66b8b996ba8542d9cbd3f5a3,69b95efdef24cd8a694e89ee,69b961424fa65c1d27025104,0.0977,0.0978,1,3,165,31,1,fourthree,,,,,,,,,,,,,,,,,,,,,,,,,,,,,,,,,,,,,,,,,,,,,,,,,,,,,,,,,,,,,,,,,,,,,,,,,,,,,,,,,,,,,,,,,,,,,,,,,,,,,,,,,,,,,,,,,,,,,,,,,,,,,,,,,,,,,,,,,
,,66b8b996ba8542d9cbd3f5a3,2026-03-17_16h17.09.449,kallum_motion_pilot_GIST_update_2,2026.1.1,Win32,60.24096386,66b8b996ba8542d9cbd3f5a3,69b95efdef24cd8a694e89ee,69b961424fa65c1d27025104,0.098,0.098,1,4,166,15,1,fourthree,,,,,,,,,,,,,,,,,,,,,,,,,,,,,,,,,,,,,,,,,,,,,,,,,,,,,,,,,,,,,,,,,,,,,,,,,,,,,,,,,,,,,,,,,,,,,,,,,,,,,,,,,,,,,,,,,,,,,,,,,,,,,,,,,,,,,,,,,
,,66b8b996ba8542d9cbd3f5a3,2026-03-17_16h17.09.449,kallum_motion_pilot_GIST_update_2,2026.1.1,Win32,60.24096386,66b8b996ba8542d9cbd3f5a3,69b95efdef24cd8a694e89ee,69b961424fa65c1d27025104,0.0983,0.0983,1,5,167,95,1,eightseven,,,,,,,,,,,,,,,,,,,,,,,,,,,,,,,,,,,,,,,,,,,,,,,,,,,,,,,,,,,,,,,,,,,,,,,,,,,,,,,,,,,,,,,,,,,,,,,,,,,,,,,,,,,,,,,,,,,,,,,,,,,,,,,,,,,,,,,,,
,,66b8b996ba8542d9cbd3f5a3,2026-03-17_16h17.09.449,kallum_motion_pilot_GIST_update_2,2026.1.1,Win32,60.24096386,66b8b996ba8542d9cbd3f5a3,69b95efdef24cd8a694e89ee,69b961424fa65c1d27025104,0.0987,0.0987,1,6,168,115,1,sixeight,,,,,,,,,,,,,,,,,,,,,,,,,,,,,,,,,,,,,,,,,,,,,,,,,,,,,,,,,,,,,,,,,,,,,,,,,,,,,,,,,,,,,,,,,,,,,,,,,,,,,,,,,,,,,,,,,,,,,,,,,,,,,,,,,,,,,,,,,
,,66b8b996ba8542d9cbd3f5a3,2026-03-17_16h17.09.449,kallum_motion_pilot_GIST_update_2,2026.1.1,Win32,60.24096386,66b8b996ba8542d9cbd3f5a3,69b95efdef24cd8a694e89ee,69b961424fa65c1d27025104,0.0989,0.099,1,7,169,152,1,fivesix,,,,,,,,,,,,,,,,,,,,,,,,,,,,,,,,,,,,,,,,,,,,,,,,,,,,,,,,,,,,,,,,,,,,,,,,,,,,,,,,,,,,,,,,,,,,,,,,,,,,,,,,,,,,,,,,,,,,,,,,,,,,,,,,,,,,,,,,,
,,66b8b996ba8542d9cbd3f5a3,2026-03-17_16h17.09.449,kallum_motion_pilot_GIST_update_2,2026.1.1,Win32,60.24096386,66b8b996ba8542d9cbd3f5a3,69b95efdef24cd8a694e89ee,69b961424fa65c1d27025104,0.0993,0.0993,1,8,170,140,1,sevenfive,,,,,,,,,,,,,,,,,,,,,,,,,,,,,,,,,,,,,,,,,,,,,,,,,,,,,,,,,,,,,,,,,,,,,,,,,,,,,,,,,,,,,,,,,,,,,,,,,,,,,,,,,,,,,,,,,,,,,,,,,,,,,,,,,,,,,,,,,
,,66b8b996ba8542d9cbd3f5a3,2026-03-17_16h17.09.449,kallum_motion_pilot_GIST_update_2,2026.1.1,Win32,60.24096386,66b8b996ba8542d9cbd3f5a3,69b95efdef24cd8a694e89ee,69b961424fa65c1d27025104,0.0996,0.0996,1,9,171,87,1,eightseven,,,,,,,,,,,,,,,,,,,,,,,,,,,,,,,,,,,,,,,,,,,,,,,,,,,,,,,,,,,,,,,,,,,,,,,,,,,,,,,,,,,,,,,,,,,,,,,,,,,,,,,,,,,,,,,,,,,,,,,,,,,,,,,,,,,,,,,,,
,,66b8b996ba8542d9cbd3f5a3,2026-03-17_16h17.09.449,kallum_motion_pilot_GIST_update_2,2026.1.1,Win32,60.24096386,66b8b996ba8542d9cbd3f5a3,69b95efdef24cd8a694e89ee,69b961424fa65c1d27025104,0.0999,0.0999,1,10,172,29,1,threefour,,,,,,,,,,,,,,,,,,,,,,,,,,,,,,,,,,,,,,,,,,,,,,,,,,,,,,,,,,,,,,,,,,,,,,,,,,,,,,,,,,,,,,,,,,,,,,,,,,,,,,,,,,,,,,,,,,,,,,,,,,,,,,,,,,,,,,,,,
,,66b8b996ba8542d9cbd3f5a3,2026-03-17_16h17.09.449,kallum_motion_pilot_GIST_update_2,2026.1.1,Win32,60.24096386,66b8b996ba8542d9cbd3f5a3,69b95efdef24cd8a694e89ee,69b961424fa65c1d27025104,0.1002,0.1002,1,11,173,136,1,fivesix,,,,,,,,,,,,,,,,,,,,,,,,,,,,,,,,,,,,,,,,,,,,,,,,,,,,,,,,,,,,,,,,,,,,,,,,,,,,,,,,,,,,,,,,,,,,,,,,,,,,,,,,,,,,,,,,,,,,,,,,,,,,,,,,,,,,,,,,,
,,66b8b996ba8542d9cbd3f5a3,2026-03-17_16h17.09.449,kallum_motion_pilot_GIST_update_2,2026.1.1,Win32,60.24096386,66b8b996ba8542d9cbd3f5a3,69b95efdef24cd8a694e89ee,69b961424fa65c1d27025104,0.1005,0.1006,1,12,174,114,1,sixfive,,,,,,,,,,,,,,,,,,,,,,,,,,,,,,,,,,,,,,,,,,,,,,,,,,,,,,,,,,,,,,,,,,,,,,,,,,,,,,,,,,,,,,,,,,,,,,,,,,,,,,,,,,,,,,,,,,,,,,,,,,,,,,,,,,,,,,,,,
,,66b8b996ba8542d9cbd3f5a3,2026-03-17_16h17.09.449,kallum_motion_pilot_GIST_update_2,2026.1.1,Win32,60.24096386,66b8b996ba8542d9cbd3f5a3,69b95efdef24cd8a694e89ee,69b961424fa65c1d27025104,0.1009,0.1009,1,13,175,63,1,fourthree,,,,,,,,,,,,,,,,,,,,,,,,,,,,,,,,,,,,,,,,,,,,,,,,,,,,,,,,,,,,,,,,,,,,,,,,,,,,,,,,,,,,,,,,,,,,,,,,,,,,,,,,,,,,,,,,,,,,,,,,,,,,,,,,,,,,,,,,,
,,66b8b996ba8542d9cbd3f5a3,2026-03-17_16h17.09.449,kallum_motion_pilot_GIST_update_2,2026.1.1,Win32,60.24096386,66b8b996ba8542d9cbd3f5a3,69b95efdef24cd8a694e89ee,69b961424fa65c1d27025104,0.1012,0.1012,1,14,176,4,1,threeone,,,,,,,,,,,,,,,,,,,,,,,,,,,,,,,,,,,,,,,,,,,,,,,,,,,,,,,,,,,,,,,,,,,,,,,,,,,,,,,,,,,,,,,,,,,,,,,,,,,,,,,,,,,,,,,,,,,,,,,,,,,,,,,,,,,,,,,,,
,,66b8b996ba8542d9cbd3f5a3,2026-03-17_16h17.09.449,kallum_motion_pilot_GIST_update_2,2026.1.1,Win32,60.24096386,66b8b996ba8542d9cbd3f5a3,69b95efdef24cd8a694e89ee,69b961424fa65c1d27025104,0.1015,0.1015,1,15,177,27,1,twofour,,,,,,,,,,,,,,,,,,,,,,,,,,,,,,,,,,,,,,,,,,,,,,,,,,,,,,,,,,,,,,,,,,,,,,,,,,,,,,,,,,,,,,,,,,,,,,,,,,,,,,,,,,,,,,,,,,,,,,,,,,,,,,,,,,,,,,,,,
,,66b8b996ba8542d9cbd3f5a3,2026-03-17_16h17.09.449,kallum_motion_pilot_GIST_update_2,2026.1.1,Win32,60.24096386,66b8b996ba8542d9cbd3f5a3,69b95efdef24cd8a694e89ee,69b961424fa65c1d27025104,0.1019,0.1019,1,16,178,158,1,eightsix,,,,,,,,,,,,,,,,,,,,,,,,,,,,,,,,,,,,,,,,,,,,,,,,,,,,,,,,,,,,,,,,,,,,,,,,,,,,,,,,,,,,,,,,,,,,,,,,,,,,,,,,,,,,,,,,,,,,,,,,,,,,,,,,,,,,,,,,,
,,66b8b996ba8542d9cbd3f5a3,2026-03-17_16h17.09.449,kallum_motion_pilot_GIST_update_2,2026.1.1,Win32,60.24096386,66b8b996ba8542d9cbd3f5a3,69b95efdef24cd8a694e89ee,69b961424fa65c1d27025104,0.1021,0.1022,1,17,179,150,1,eightsix,,,,,,,,,,,,,,,,,,,,,,,,,,,,,,,,,,,,,,,,,,,,,,,,,,,,,,,,,,,,,,,,,,,,,,,,,,,,,,,,,,,,,,,,,,,,,,,,,,,,,,,,,,,,,,,,,,,,,,,,,,,,,,,,,,,,,,,,,
,,66b8b996ba8542d9cbd3f5a3,2026-03-17_16h17.09.449,kallum_motion_pilot_GIST_update_2,2026.1.1,Win32,60.24096386,66b8b996ba8542d9cbd3f5a3,69b95efdef24cd8a694e89ee,69b961424fa65c1d27025104,0.1025,0.1025,1,18,180,157,1,seveneight,,,,,,,,,,,,,,,,,,,,,,,,,,,,,,,,,,,,,,,,,,,,,,,,,,,,,,,,,,,,,,,,,,,,,,,,,,,,,,,,,,,,,,,,,,,,,,,,,,,,,,,,,,,,,,,,,,,,,,,,,,,,,,,,,,,,,,,,,
,,66b8b996ba8542d9cbd3f5a3,2026-03-17_16h17.09.449,kallum_motion_pilot_GIST_update_2,2026.1.1,Win32,60.24096386,66b8b996ba8542d9cbd3f5a3,69b95efdef24cd8a694e89ee,69b961424fa65c1d27025104,0.1031,0.1031,1,19,181,117,1,seveneight,,,,,,,,,,,,,,,,,,,,,,,,,,,,,,,,,,,,,,,,,,,,,,,,,,,,,,,,,,,,,,,,,,,,,,,,,,,,,,,,,,,,,,,,,,,,,,,,,,,,,,,,,,,,,,,,,,,,,,,,,,,,,,,,,,,,,,,,,
,,66b8b996ba8542d9cbd3f5a3,2026-03-17_16h17.09.449,kallum_motion_pilot_GIST_update_2,2026.1.1,Win32,60.24096386,66b8b996ba8542d9cbd3f5a3,69b95efdef24cd8a694e89ee,69b961424fa65c1d27025104,0.1034,0.1034,1,20,182,144,1,fivesix,,,,,,,,,,,,,,,,,,,,,,,,,,,,,,,,,,,,,,,,,,,,,,,,,,,,,,,,,,,,,,,,,,,,,,,,,,,,,,,,,,,,,,,,,,,,,,,,,,,,,,,,,,,,,,,,,,,,,,,,,,,,,,,,,,,,,,,,,
,,66b8b996ba8542d9cbd3f5a3,2026-03-17_16h17.09.449,kallum_motion_pilot_GIST_update_2,2026.1.1,Win32,60.24096386,66b8b996ba8542d9cbd3f5a3,69b95efdef24cd8a694e89ee,69b961424fa65c1d27025104,0.1037,0.1037,1,21,183,107,1,sixeight,,,,,,,,,,,,,,,,,,,,,,,,,,,,,,,,,,,,,,,,,,,,,,,,,,,,,,,,,,,,,,,,,,,,,,,,,,,,,,,,,,,,,,,,,,,,,,,,,,,,,,,,,,,,,,,,,,,,,,,,,,,,,,,,,,,,,,,,,
,,66b8b996ba8542d9cbd3f5a3,2026-03-17_16h17.09.449,kallum_motion_pilot_GIST_update_2,2026.1.1,Win32,60.24096386,66b8b996ba8542d9cbd3f5a3,69b95efdef24cd8a694e89ee,69b961424fa65c1d27025104,0.104,0.104,1,22,184,5,1,threefour,,,,,,,,,,,,,,,,,,,,,,,,,,,,,,,,,,,,,,,,,,,,,,,,,,,,,,,,,,,,,,,,,,,,,,,,,,,,,,,,,,,,,,,,,,,,,,,,,,,,,,,,,,,,,,,,,,,,,,,,,,,,,,,,,,,,,,,,,
,,66b8b996ba8542d9cbd3f5a3,2026-03-17_16h17.09.449,kallum_motion_pilot_GIST_update_2,2026.1.1,Win32,60.24096386,66b8b996ba8542d9cbd3f5a3,69b95efdef24cd8a694e89ee,69b961424fa65c1d27025104,0.1043,0.1043,1,23,185,89,1,fiveseven,,,,,,,,,,,,,,,,,,,,,,,,,,,,,,,,,,,,,,,,,,,,,,,,,,,,,,,,,,,,,,,,,,,,,,,,,,,,,,,,,,,,,,,,,,,,,,,,,,,,,,,,,,,,,,,,,,,,,,,,,,,,,,,,,,,,,,,,,
,,66b8b996ba8542d9cbd3f5a3,2026-03-17_16h17.09.449,kallum_motion_pilot_GIST_update_2,2026.1.1,Win32,60.24096386,66b8b996ba8542d9cbd3f5a3,69b95efdef24cd8a694e89ee,69b961424fa65c1d27025104,0.1092,0.1093,1,24,186,102,1,eightsix,,,,,,,,,,,,,,,,,,,,,,,,,,,,,,,,,,,,,,,,,,,,,,,,,,,,,,,,,,,,,,,,,,,,,,,,,,,,,,,,,,,,,,,,,,,,,,,,,,,,,,,,,,,,,,,,,,,,,,,,,,,,,,,,,,,,,,,,,
,,66b8b996ba8542d9cbd3f5a3,2026-03-17_16h17.09.449,kallum_motion_pilot_GIST_update_2,2026.1.1,Win32,60.24096386,66b8b996ba8542d9cbd3f5a3,69b95efdef24cd8a694e89ee,69b961424fa65c1d27025104,0.1096,0.1096,1,25,187,55,1,fourthree,,,,,,,,,,,,,,,,,,,,,,,,,,,,,,,,,,,,,,,,,,,,,,,,,,,,,,,,,,,,,,,,,,,,,,,,,,,,,,,,,,,,,,,,,,,,,,,,,,,,,,,,,,,,,,,,,,,,,,,,,,,,,,,,,,,,,,,,,
,,66b8b996ba8542d9cbd3f5a3,2026-03-17_16h17.09.449,kallum_motion_pilot_GIST_update_2,2026.1.1,Win32,60.24096386,66b8b996ba8542d9cbd3f5a3,69b95efdef24cd8a694e89ee,69b961424fa65c1d27025104,0.1103,0.1103,1,26,188,79,1,eightseven,,,,,,,,,,,,,,,,,,,,,,,,,,,,,,,,,,,,,,,,,,,,,,,,,,,,,,,,,,,,,,,,,,,,,,,,,,,,,,,,,,,,,,,,,,,,,,,,,,,,,,,,,,,,,,,,,,,,,,,,,,,,,,,,,,,,,,,,,
,,66b8b996ba8542d9cbd3f5a3,2026-03-17_16h17.09.449,kallum_motion_pilot_GIST_update_2,2026.1.1,Win32,60.24096386,66b8b996ba8542d9cbd3f5a3,69b95efdef24cd8a694e89ee,69b961424fa65c1d27025104,0.1107,0.1107,1,27,189,106,1,sixfive,,,,,,,,,,,,,,,,,,,,,,,,,,,,,,,,,,,,,,,,,,,,,,,,,,,,,,,,,,,,,,,,,,,,,,,,,,,,,,,,,,,,,,,,,,,,,,,,,,,,,,,,,,,,,,,,,,,,,,,,,,,,,,,,,,,,,,,,,
,,66b8b996ba8542d9cbd3f5a3,2026-03-17_16h17.09.449,kallum_motion_pilot_GIST_update_2,2026.1.1,Win32,60.24096386,66b8b996ba8542d9cbd3f5a3,69b95efdef24cd8a694e89ee,69b961424fa65c1d27025104,0.1112,0.1112,1,28,190,42,1,twoone,,,,,,,,,,,,,,,,,,,,,,,,,,,,,,,,,,,,,,,,,,,,,,,,,,,,,,,,,,,,,,,,,,,,,,,,,,,,,,,,,,,,,,,,,,,,,,,,,,,,,,,,,,,,,,,,,,,,,,,,,,,,,,,,,,,,,,,,,
,,66b8b996ba8542d9cbd3f5a3,2026-03-17_16h17.09.449,kallum_motion_pilot_GIST_update_2,2026.1.1,Win32,60.24096386,66b8b996ba8542d9cbd3f5a3,69b95efdef24cd8a694e89ee,69b961424fa65c1d27025104,0.1115,0.1116,1,29,191,156,1,sevenfive,,,,,,,,,,,,,,,,,,,,,,,,,,,,,,,,,,,,,,,,,,,,,,,,,,,,,,,,,,,,,,,,,,,,,,,,,,,,,,,,,,,,,,,,,,,,,,,,,,,,,,,,,,,,,,,,,,,,,,,,,,,,,,,,,,,,,,,,,
,,66b8b996ba8542d9cbd3f5a3,2026-03-17_16h17.09.449,kallum_motion_pilot_GIST_update_2,2026.1.1,Win32,60.24096386,66b8b996ba8542d9cbd3f5a3,69b95efdef24cd8a694e89ee,69b961424fa65c1d27025104,0.1118,0.1119,1,30,192,44,1,threeone,,,,,,,,,,,,,,,,,,,,,,,,,,,,,,,,,,,,,,,,,,,,,,,,,,,,,,,,,,,,,,,,,,,,,,,,,,,,,,,,,,,,,,,,,,,,,,,,,,,,,,,,,,,,,,,,,,,,,,,,,,,,,,,,,,,,,,,,,
,,66b8b996ba8542d9cbd3f5a3,2026-03-17_16h17.09.449,kallum_motion_pilot_GIST_update_2,2026.1.1,Win32,60.24096386,66b8b996ba8542d9cbd3f5a3,69b95efdef24cd8a694e89ee,69b961424fa65c1d27025104,0.1122,0.1122,1,31,193,19,1,twofour,,,,,,,,,,,,,,,,,,,,,,,,,,,,,,,,,,,,,,,,,,,,,,,,,,,,,,,,,,,,,,,,,,,,,,,,,,,,,,,,,,,,,,,,,,,,,,,,,,,,,,,,,,,,,,,,,,,,,,,,,,,,,,,,,,,,,,,,,
,,66b8b996ba8542d9cbd3f5a3,2026-03-17_16h17.09.449,kallum_motion_pilot_GIST_update_2,2026.1.1,Win32,60.24096386,66b8b996ba8542d9cbd3f5a3,69b95efdef24cd8a694e89ee,69b961424fa65c1d27025104,0.1127,0.1127,1,32,194,120,1,fivesix,,,,,,,,,,,,,,,,,,,,,,,,,,,,,,,,,,,,,,,,,,,,,,,,,,,,,,,,,,,,,,,,,,,,,,,,,,,,,,,,,,,,,,,,,,,,,,,,,,,,,,,,,,,,,,,,,,,,,,,,,,,,,,,,,,,,,,,,,
,,66b8b996ba8542d9cbd3f5a3,2026-03-17_16h17.09.449,kallum_motion_pilot_GIST_update_2,2026.1.1,Win32,60.24096386,66b8b996ba8542d9cbd3f5a3,69b95efdef24cd8a694e89ee,69b961424fa65c1d27025104,0.113,0.113,1,33,195,65,1,onethree,,,,,,,,,,,,,,,,,,,,,,,,,,,,,,,,,,,,,,,,,,,,,,,,,,,,,,,,,,,,,,,,,,,,,,,,,,,,,,,,,,,,,,,,,,,,,,,,,,,,,,,,,,,,,,,,,,,,,,,,,,,,,,,,,,,,,,,,,
,,66b8b996ba8542d9cbd3f5a3,2026-03-17_16h17.09.449,kallum_motion_pilot_GIST_update_2,2026.1.1,Win32,60.24096386,66b8b996ba8542d9cbd3f5a3,69b95efdef24cd8a694e89ee,69b961424fa65c1d27025104,0.1133,0.1133,1,34,196,111,1,eightseven,,,,,,,,,,,,,,,,,,,,,,,,,,,,,,,,,,,,,,,,,,,,,,,,,,,,,,,,,,,,,,,,,,,,,,,,,,,,,,,,,,,,,,,,,,,,,,,,,,,,,,,,,,,,,,,,,,,,,,,,,,,,,,,,,,,,,,,,,
,,66b8b996ba8542d9cbd3f5a3,2026-03-17_16h17.09.449,kallum_motion_pilot_GIST_update_2,2026.1.1,Win32,60.24096386,66b8b996ba8542d9cbd3f5a3,69b95efdef24cd8a694e89ee,69b961424fa65c1d27025104,0.1136,0.1136,1,35,197,90,1,sixfive,,,,,,,,,,,,,,,,,,,,,,,,,,,,,,,,,,,,,,,,,,,,,,,,,,,,,,,,,,,,,,,,,,,,,,,,,,,,,,,,,,,,,,,,,,,,,,,,,,,,,,,,,,,,,,,,,,,,,,,,,,,,,,,,,,,,,,,,,
,,66b8b996ba8542d9cbd3f5a3,2026-03-17_16h17.09.449,kallum_motion_pilot_GIST_update_2,2026.1.1,Win32,60.24096386,66b8b996ba8542d9cbd3f5a3,69b95efdef24cd8a694e89ee,69b961424fa65c1d27025104,0.1139,0.1139,1,36,198,124,1,sevenfive,,,,,,,,,,,,,,,,,,,,,,,,,,,,,,,,,,,,,,,,,,,,,,,,,,,,,,,,,,,,,,,,,,,,,,,,,,,,,,,,,,,,,,,,,,,,,,,,,,,,,,,,,,,,,,,,,,,,,,,,,,,,,,,,,,,,,,,,,
,,66b8b996ba8542d9cbd3f5a3,2026-03-17_16h17.09.449,kallum_motion_pilot_GIST_update_2,2026.1.1,Win32,60.24096386,66b8b996ba8542d9cbd3f5a3,69b95efdef24cd8a694e89ee,69b961424fa65c1d27025104,0.1142,0.1143,1,37,199,57,1,onethree,,,,,,,,,,,,,,,,,,,,,,,,,,,,,,,,,,,,,,,,,,,,,,,,,,,,,,,,,,,,,,,,,,,,,,,,,,,,,,,,,,,,,,,,,,,,,,,,,,,,,,,,,,,,,,,,,,,,,,,,,,,,,,,,,,,,,,,,,
,,66b8b996ba8542d9cbd3f5a3,2026-03-17_16h17.09.449,kallum_motion_pilot_GIST_update_2,2026.1.1,Win32,60.24096386,66b8b996ba8542d9cbd3f5a3,69b95efdef24cd8a694e89ee,69b961424fa65c1d27025104,0.1146,0.1146,1,38,200,12,1,threeone,,,,,,,,,,,,,,,,,,,,,,,,,,,,,,,,,,,,,,,,,,,,,,,,,,,,,,,,,,,,,,,,,,,,,,,,,,,,,,,,,,,,,,,,,,,,,,,,,,,,,,,,,,,,,,,,,,,,,,,,,,,,,,,,,,,,,,,,,
,,66b8b996ba8542d9cbd3f5a3,2026-03-17_16h17.09.449,kallum_motion_pilot_GIST_update_2,2026.1.1,Win32,60.24096386,66b8b996ba8542d9cbd3f5a3,69b95efdef24cd8a694e89ee,69b961424fa65c1d27025104,0.1149,0.115,1,39,201,148,1,sevenfive,,,,,,,,,,,,,,,,,,,,,,,,,,,,,,,,,,,,,,,,,,,,,,,,,,,,,,,,,,,,,,,,,,,,,,,,,,,,,,,,,,,,,,,,,,,,,,,,,,,,,,,,,,,,,,,,,,,,,,,,,,,,,,,,,,,,,,,,,
,,66b8b996ba8542d9cbd3f5a3,2026-03-17_16h17.09.449,kallum_motion_pilot_GIST_update_2,2026.1.1,Win32,60.24096386,66b8b996ba8542d9cbd3f5a3,69b95efdef24cd8a694e89ee,69b961424fa65c1d27025104,0.1153,0.1153,1,40,202,126,1,eightsix,,,,,,,,,,,,,,,,,,,,,,,,,,,,,,,,,,,,,,,,,,,,,,,,,,,,,,,,,,,,,,,,,,,,,,,,,,,,,,,,,,,,,,,,,,,,,,,,,,,,,,,,,,,,,,,,,,,,,,,,,,,,,,,,,,,,,,,,,
,,66b8b996ba8542d9cbd3f5a3,2026-03-17_16h17.09.449,kallum_motion_pilot_GIST_update_2,2026.1.1,Win32,60.24096386,66b8b996ba8542d9cbd3f5a3,69b95efdef24cd8a694e89ee,69b961424fa65c1d27025104,0.1155,0.1156,1,41,203,25,1,onethree,,,,,,,,,,,,,,,,,,,,,,,,,,,,,,,,,,,,,,,,,,,,,,,,,,,,,,,,,,,,,,,,,,,,,,,,,,,,,,,,,,,,,,,,,,,,,,,,,,,,,,,,,,,,,,,,,,,,,,,,,,,,,,,,,,,,,,,,,
,,66b8b996ba8542d9cbd3f5a3,2026-03-17_16h17.09.449,kallum_motion_pilot_GIST_update_2,2026.1.1,Win32,60.24096386,66b8b996ba8542d9cbd3f5a3,69b95efdef24cd8a694e89ee,69b961424fa65c1d27025104,0.1159,0.1159,1,42,204,142,1,eightsix,,,,,,,,,,,,,,,,,,,,,,,,,,,,,,,,,,,,,,,,,,,,,,,,,,,,,,,,,,,,,,,,,,,,,,,,,,,,,,,,,,,,,,,,,,,,,,,,,,,,,,,,,,,,,,,,,,,,,,,,,,,,,,,,,,,,,,,,,
,,66b8b996ba8542d9cbd3f5a3,2026-03-17_16h17.09.449,kallum_motion_pilot_GIST_update_2,2026.1.1,Win32,60.24096386,66b8b996ba8542d9cbd3f5a3,69b95efdef24cd8a694e89ee,69b961424fa65c1d27025104,0.1162,0.1162,1,43,205,54,1,fourtwo,,,,,,,,,,,,,,,,,,,,,,,,,,,,,,,,,,,,,,,,,,,,,,,,,,,,,,,,,,,,,,,,,,,,,,,,,,,,,,,,,,,,,,,,,,,,,,,,,,,,,,,,,,,,,,,,,,,,,,,,,,,,,,,,,,,,,,,,,
,,66b8b996ba8542d9cbd3f5a3,2026-03-17_16h17.09.449,kallum_motion_pilot_GIST_update_2,2026.1.1,Win32,60.24096386,66b8b996ba8542d9cbd3f5a3,69b95efdef24cd8a694e89ee,69b961424fa65c1d27025104,0.1164,0.1165,1,44,206,97,1,fiveseven,,,,,,,,,,,,,,,,,,,,,,,,,,,,,,,,,,,,,,,,,,,,,,,,,,,,,,,,,,,,,,,,,,,,,,,,,,,,,,,,,,,,,,,,,,,,,,,,,,,,,,,,,,,,,,,,,,,,,,,,,,,,,,,,,,,,,,,,,
,,66b8b996ba8542d9cbd3f5a3,2026-03-17_16h17.09.449,kallum_motion_pilot_GIST_update_2,2026.1.1,Win32,60.24096386,66b8b996ba8542d9cbd3f5a3,69b95efdef24cd8a694e89ee,69b961424fa65c1d27025104,0.1168,0.1168,1,45,207,68,1,threeone,,,,,,,,,,,,,,,,,,,,,,,,,,,,,,,,,,,,,,,,,,,,,,,,,,,,,,,,,,,,,,,,,,,,,,,,,,,,,,,,,,,,,,,,,,,,,,,,,,,,,,,,,,,,,,,,,,,,,,,,,,,,,,,,,,,,,,,,,
,,66b8b996ba8542d9cbd3f5a3,2026-03-17_16h17.09.449,kallum_motion_pilot_GIST_update_2,2026.1.1,Win32,60.24096386,66b8b996ba8542d9cbd3f5a3,69b95efdef24cd8a694e89ee,69b961424fa65c1d27025104,0.1171,0.1171,1,46,208,67,1,twofour,,,,,,,,,,,,,,,,,,,,,,,,,,,,,,,,,,,,,,,,,,,,,,,,,,,,,,,,,,,,,,,,,,,,,,,,,,,,,,,,,,,,,,,,,,,,,,,,,,,,,,,,,,,,,,,,,,,,,,,,,,,,,,,,,,,,,,,,,
,,66b8b996ba8542d9cbd3f5a3,2026-03-17_16h17.09.449,kallum_motion_pilot_GIST_update_2,2026.1.1,Win32,60.24096386,66b8b996ba8542d9cbd3f5a3,69b95efdef24cd8a694e89ee,69b961424fa65c1d27025104,0.1174,0.1174,1,47,209,13,1,threefour,,,,,,,,,,,,,,,,,,,,,,,,,,,,,,,,,,,,,,,,,,,,,,,,,,,,,,,,,,,,,,,,,,,,,,,,,,,,,,,,,,,,,,,,,,,,,,,,,,,,,,,,,,,,,,,,,,,,,,,,,,,,,,,,,,,,,,,,,
,,66b8b996ba8542d9cbd3f5a3,2026-03-17_16h17.09.449,kallum_motion_pilot_GIST_update_2,2026.1.1,Win32,60.24096386,66b8b996ba8542d9cbd3f5a3,69b95efdef24cd8a694e89ee,69b961424fa65c1d27025104,0.1177,0.1177,1,48,210,56,1,onetwo,,,,,,,,,,,,,,,,,,,,,,,,,,,,,,,,,,,,,,,,,,,,,,,,,,,,,,,,,,,,,,,,,,,,,,,,,,,,,,,,,,,,,,,,,,,,,,,,,,,,,,,,,,,,,,,,,,,,,,,,,,,,,,,,,,,,,,,,,
,,66b8b996ba8542d9cbd3f5a3,2026-03-17_16h17.09.449,kallum_motion_pilot_GIST_update_2,2026.1.1,Win32,60.24096386,66b8b996ba8542d9cbd3f5a3,69b95efdef24cd8a694e89ee,69b961424fa65c1d27025104,0.1181,0.1181,1,49,211,3,1,twofour,,,,,,,,,,,,,,,,,,,,,,,,,,,,,,,,,,,,,,,,,,,,,,,,,,,,,,,,,,,,,,,,,,,,,,,,,,,,,,,,,,,,,,,,,,,,,,,,,,,,,,,,,,,,,,,,,,,,,,,,,,,,,,,,,,,,,,,,,
,,66b8b996ba8542d9cbd3f5a3,2026-03-17_16h17.09.449,kallum_motion_pilot_GIST_update_2,2026.1.1,Win32,60.24096386,66b8b996ba8542d9cbd3f5a3,69b95efdef24cd8a694e89ee,69b961424fa65c1d27025104,0.1183,0.1183,1,50,212,129,1,fiveseven,,,,,,,,,,,,,,,,,,,,,,,,,,,,,,,,,,,,,,,,,,,,,,,,,,,,,,,,,,,,,,,,,,,,,,,,,,,,,,,,,,,,,,,,,,,,,,,,,,,,,,,,,,,,,,,,,,,,,,,,,,,,,,,,,,,,,,,,,
,,66b8b996ba8542d9cbd3f5a3,2026-03-17_16h17.09.449,kallum_motion_pilot_GIST_update_2,2026.1.1,Win32,60.24096386,66b8b996ba8542d9cbd3f5a3,69b95efdef24cd8a694e89ee,69b961424fa65c1d27025104,0.1187,0.1187,1,51,213,46,1,fourtwo,,,,,,,,,,,,,,,,,,,,,,,,,,,,,,,,,,,,,,,,,,,,,,,,,,,,,,,,,,,,,,,,,,,,,,,,,,,,,,,,,,,,,,,,,,,,,,,,,,,,,,,,,,,,,,,,,,,,,,,,,,,,,,,,,,,,,,,,,
,,66b8b996ba8542d9cbd3f5a3,2026-03-17_16h17.09.449,kallum_motion_pilot_GIST_update_2,2026.1.1,Win32,60.24096386,66b8b996ba8542d9cbd3f5a3,69b95efdef24cd8a694e89ee,69b961424fa65c1d27025104,0.119,0.119,1,52,214,77,1,threefour,,,,,,,,,,,,,,,,,,,,,,,,,,,,,,,,,,,,,,,,,,,,,,,,,,,,,,,,,,,,,,,,,,,,,,,,,,,,,,,,,,,,,,,,,,,,,,,,,,,,,,,,,,,,,,,,,,,,,,,,,,,,,,,,,,,,,,,,,
,,66b8b996ba8542d9cbd3f5a3,2026-03-17_16h17.09.449,kallum_motion_pilot_GIST_update_2,2026.1.1,Win32,60.24096386,66b8b996ba8542d9cbd3f5a3,69b95efdef24cd8a694e89ee,69b961424fa65c1d27025104,0.1193,0.1193,1,53,215,36,1,threeone,,,,,,,,,,,,,,,,,,,,,,,,,,,,,,,,,,,,,,,,,,,,,,,,,,,,,,,,,,,,,,,,,,,,,,,,,,,,,,,,,,,,,,,,,,,,,,,,,,,,,,,,,,,,,,,,,,,,,,,,,,,,,,,,,,,,,,,,,
,,66b8b996ba8542d9cbd3f5a3,2026-03-17_16h17.09.449,kallum_motion_pilot_GIST_update_2,2026.1.1,Win32,60.24096386,66b8b996ba8542d9cbd3f5a3,69b95efdef24cd8a694e89ee,69b961424fa65c1d27025104,0.1196,0.1196,1,54,216,73,1,onethree,,,,,,,,,,,,,,,,,,,,,,,,,,,,,,,,,,,,,,,,,,,,,,,,,,,,,,,,,,,,,,,,,,,,,,,,,,,,,,,,,,,,,,,,,,,,,,,,,,,,,,,,,,,,,,,,,,,,,,,,,,,,,,,,,,,,,,,,,
,,66b8b996ba8542d9cbd3f5a3,2026-03-17_16h17.09.449,kallum_motion_pilot_GIST_update_2,2026.1.1,Win32,60.24096386,66b8b996ba8542d9cbd3f5a3,69b95efdef24cd8a694e89ee,69b961424fa65c1d27025104,0.12,0.12,1,55,217,93,1,seveneight,,,,,,,,,,,,,,,,,,,,,,,,,,,,,,,,,,,,,,,,,,,,,,,,,,,,,,,,,,,,,,,,,,,,,,,,,,,,,,,,,,,,,,,,,,,,,,,,,,,,,,,,,,,,,,,,,,,,,,,,,,,,,,,,,,,,,,,,,
,,66b8b996ba8542d9cbd3f5a3,2026-03-17_16h17.09.449,kallum_motion_pilot_GIST_update_2,2026.1.1,Win32,60.24096386,66b8b996ba8542d9cbd3f5a3,69b95efdef24cd8a694e89ee,69b961424fa65c1d27025104,0.1204,0.1204,1,56,218,37,1,threefour,,,,,,,,,,,,,,,,,,,,,,,,,,,,,,,,,,,,,,,,,,,,,,,,,,,,,,,,,,,,,,,,,,,,,,,,,,,,,,,,,,,,,,,,,,,,,,,,,,,,,,,,,,,,,,,,,,,,,,,,,,,,,,,,,,,,,,,,,
,,66b8b996ba8542d9cbd3f5a3,2026-03-17_16h17.09.449,kallum_motion_pilot_GIST_update_2,2026.1.1,Win32,60.24096386,66b8b996ba8542d9cbd3f5a3,69b95efdef24cd8a694e89ee,69b961424fa65c1d27025104,0.1208,0.1209,1,57,219,6,1,fourtwo,,,,,,,,,,,,,,,,,,,,,,,,,,,,,,,,,,,,,,,,,,,,,,,,,,,,,,,,,,,,,,,,,,,,,,,,,,,,,,,,,,,,,,,,,,,,,,,,,,,,,,,,,,,,,,,,,,,,,,,,,,,,,,,,,,,,,,,,,
,,66b8b996ba8542d9cbd3f5a3,2026-03-17_16h17.09.449,kallum_motion_pilot_GIST_update_2,2026.1.1,Win32,60.24096386,66b8b996ba8542d9cbd3f5a3,69b95efdef24cd8a694e89ee,69b961424fa65c1d27025104,0.1213,0.1214,1,58,220,0,1,onetwo,,,,,,,,,,,,,,,,,,,,,,,,,,,,,,,,,,,,,,,,,,,,,,,,,,,,,,,,,,,,,,,,,,,,,,,,,,,,,,,,,,,,,,,,,,,,,,,,,,,,,,,,,,,,,,,,,,,,,,,,,,,,,,,,,,,,,,,,,
,,66b8b996ba8542d9cbd3f5a3,2026-03-17_16h17.09.449,kallum_motion_pilot_GIST_update_2,2026.1.1,Win32,60.24096386,66b8b996ba8542d9cbd3f5a3,69b95efdef24cd8a694e89ee,69b961424fa65c1d27025104,0.1219,0.1219,1,59,221,85,1,seveneight,,,,,,,,,,,,,,,,,,,,,,,,,,,,,,,,,,,,,,,,,,,,,,,,,,,,,,,,,,,,,,,,,,,,,,,,,,,,,,,,,,,,,,,,,,,,,,,,,,,,,,,,,,,,,,,,,,,,,,,,,,,,,,,,,,,,,,,,,
,,66b8b996ba8542d9cbd3f5a3,2026-03-17_16h17.09.449,kallum_motion_pilot_GIST_update_2,2026.1.1,Win32,60.24096386,66b8b996ba8542d9cbd3f5a3,69b95efdef24cd8a694e89ee,69b961424fa65c1d27025104,0.1222,0.1222,1,60,222,131,1,sixeight,,,,,,,,,,,,,,,,,,,,,,,,,,,,,,,,,,,,,,,,,,,,,,,,,,,,,,,,,,,,,,,,,,,,,,,,,,,,,,,,,,,,,,,,,,,,,,,,,,,,,,,,,,,,,,,,,,,,,,,,,,,,,,,,,,,,,,,,,
,,66b8b996ba8542d9cbd3f5a3,2026-03-17_16h17.09.449,kallum_motion_pilot_GIST_update_2,2026.1.1,Win32,60.24096386,66b8b996ba8542d9cbd3f5a3,69b95efdef24cd8a694e89ee,69b961424fa65c1d27025104,0.1225,0.1228,1,61,223,45,1,threefour,,,,,,,,,,,,,,,,,,,,,,,,,,,,,,,,,,,,,,,,,,,,,,,,,,,,,,,,,,,,,,,,,,,,,,,,,,,,,,,,,,,,,,,,,,,,,,,,,,,,,,,,,,,,,,,,,,,,,,,,,,,,,,,,,,,,,,,,,
,,66b8b996ba8542d9cbd3f5a3,2026-03-17_16h17.09.449,kallum_motion_pilot_GIST_update_2,2026.1.1,Win32,60.24096386,66b8b996ba8542d9cbd3f5a3,69b95efdef24cd8a694e89ee,69b961424fa65c1d27025104,0.1231,0.1231,1,62,224,34,1,twoone,,,,,,,,,,,,,,,,,,,,,,,,,,,,,,,,,,,,,,,,,,,,,,,,,,,,,,,,,,,,,,,,,,,,,,,,,,,,,,,,,,,,,,,,,,,,,,,,,,,,,,,,,,,,,,,,,,,,,,,,,,,,,,,,,,,,,,,,,
,,66b8b996ba8542d9cbd3f5a3,2026-03-17_16h17.09.449,kallum_motion_pilot_GIST_update_2,2026.1.1,Win32,60.24096386,66b8b996ba8542d9cbd3f5a3,69b95efdef24cd8a694e89ee,69b961424fa65c1d27025104,0.1235,0.1235,1,63,225,153,1,fiveseven,,,,,,,,,,,,,,,,,,,,,,,,,,,,,,,,,,,,,,,,,,,,,,,,,,,,,,,,,,,,,,,,,,,,,,,,,,,,,,,,,,,,,,,,,,,,,,,,,,,,,,,,,,,,,,,,,,,,,,,,,,,,,,,,,,,,,,,,,
,,66b8b996ba8542d9cbd3f5a3,2026-03-17_16h17.09.449,kallum_motion_pilot_GIST_update_2,2026.1.1,Win32,60.24096386,66b8b996ba8542d9cbd3f5a3,69b95efdef24cd8a694e89ee,69b961424fa65c1d27025104,0.1237,0.1238,1,64,226,83,1,sixeight,,,,,,,,,,,,,,,,,,,,,,,,,,,,,,,,,,,,,,,,,,,,,,,,,,,,,,,,,,,,,,,,,,,,,,,,,,,,,,,,,,,,,,,,,,,,,,,,,,,,,,,,,,,,,,,,,,,,,,,,,,,,,,,,,,,,,,,,,
,,66b8b996ba8542d9cbd3f5a3,2026-03-17_16h17.09.449,kallum_motion_pilot_GIST_update_2,2026.1.1,Win32,60.24096386,66b8b996ba8542d9cbd3f5a3,69b95efdef24cd8a694e89ee,69b961424fa65c1d27025104,0.1241,0.1241,1,65,227,64,1,onetwo,,,,,,,,,,,,,,,,,,,,,,,,,,,,,,,,,,,,,,,,,,,,,,,,,,,,,,,,,,,,,,,,,,,,,,,,,,,,,,,,,,,,,,,,,,,,,,,,,,,,,,,,,,,,,,,,,,,,,,,,,,,,,,,,,,,,,,,,,
,,66b8b996ba8542d9cbd3f5a3,2026-03-17_16h17.09.449,kallum_motion_pilot_GIST_update_2,2026.1.1,Win32,60.24096386,66b8b996ba8542d9cbd3f5a3,69b95efdef24cd8a694e89ee,69b961424fa65c1d27025104,0.1244,0.1244,1,66,228,108,1,sevenfive,,,,,,,,,,,,,,,,,,,,,,,,,,,,,,,,,,,,,,,,,,,,,,,,,,,,,,,,,,,,,,,,,,,,,,,,,,,,,,,,,,,,,,,,,,,,,,,,,,,,,,,,,,,,,,,,,,,,,,,,,,,,,,,,,,,,,,,,,
,,66b8b996ba8542d9cbd3f5a3,2026-03-17_16h17.09.449,kallum_motion_pilot_GIST_update_2,2026.1.1,Win32,60.24096386,66b8b996ba8542d9cbd3f5a3,69b95efdef24cd8a694e89ee,69b961424fa65c1d27025104,0.1246,0.1247,1,67,229,16,1,onetwo,,,,,,,,,,,,,,,,,,,,,,,,,,,,,,,,,,,,,,,,,,,,,,,,,,,,,,,,,,,,,,,,,,,,,,,,,,,,,,,,,,,,,,,,,,,,,,,,,,,,,,,,,,,,,,,,,,,,,,,,,,,,,,,,,,,,,,,,,
,,66b8b996ba8542d9cbd3f5a3,2026-03-17_16h17.09.449,kallum_motion_pilot_GIST_update_2,2026.1.1,Win32,60.24096386,66b8b996ba8542d9cbd3f5a3,69b95efdef24cd8a694e89ee,69b961424fa65c1d27025104,0.1249,0.125,1,68,230,98,1,sixfive,,,,,,,,,,,,,,,,,,,,,,,,,,,,,,,,,,,,,,,,,,,,,,,,,,,,,,,,,,,,,,,,,,,,,,,,,,,,,,,,,,,,,,,,,,,,,,,,,,,,,,,,,,,,,,,,,,,,,,,,,,,,,,,,,,,,,,,,,
,,66b8b996ba8542d9cbd3f5a3,2026-03-17_16h17.09.449,kallum_motion_pilot_GIST_update_2,2026.1.1,Win32,60.24096386,66b8b996ba8542d9cbd3f5a3,69b95efdef24cd8a694e89ee,69b961424fa65c1d27025104,0.1253,0.1253,1,69,231,11,1,twofour,,,,,,,,,,,,,,,,,,,,,,,,,,,,,,,,,,,,,,,,,,,,,,,,,,,,,,,,,,,,,,,,,,,,,,,,,,,,,,,,,,,,,,,,,,,,,,,,,,,,,,,,,,,,,,,,,,,,,,,,,,,,,,,,,,,,,,,,,
,,66b8b996ba8542d9cbd3f5a3,2026-03-17_16h17.09.449,kallum_motion_pilot_GIST_update_2,2026.1.1,Win32,60.24096386,66b8b996ba8542d9cbd3f5a3,69b95efdef24cd8a694e89ee,69b961424fa65c1d27025104,0.1256,0.1256,1,70,232,155,1,sixeight,,,,,,,,,,,,,,,,,,,,,,,,,,,,,,,,,,,,,,,,,,,,,,,,,,,,,,,,,,,,,,,,,,,,,,,,,,,,,,,,,,,,,,,,,,,,,,,,,,,,,,,,,,,,,,,,,,,,,,,,,,,,,,,,,,,,,,,,,
,,66b8b996ba8542d9cbd3f5a3,2026-03-17_16h17.09.449,kallum_motion_pilot_GIST_update_2,2026.1.1,Win32,60.24096386,66b8b996ba8542d9cbd3f5a3,69b95efdef24cd8a694e89ee,69b961424fa65c1d27025104,0.1259,0.1259,1,71,233,48,1,onetwo,,,,,,,,,,,,,,,,,,,,,,,,,,,,,,,,,,,,,,,,,,,,,,,,,,,,,,,,,,,,,,,,,,,,,,,,,,,,,,,,,,,,,,,,,,,,,,,,,,,,,,,,,,,,,,,,,,,,,,,,,,,,,,,,,,,,,,,,,
,,66b8b996ba8542d9cbd3f5a3,2026-03-17_16h17.09.449,kallum_motion_pilot_GIST_update_2,2026.1.1,Win32,60.24096386,66b8b996ba8542d9cbd3f5a3,69b95efdef24cd8a694e89ee,69b961424fa65c1d27025104,0.1263,0.1263,1,72,234,99,1,sixeight,,,,,,,,,,,,,,,,,,,,,,,,,,,,,,,,,,,,,,,,,,,,,,,,,,,,,,,,,,,,,,,,,,,,,,,,,,,,,,,,,,,,,,,,,,,,,,,,,,,,,,,,,,,,,,,,,,,,,,,,,,,,,,,,,,,,,,,,,
,,66b8b996ba8542d9cbd3f5a3,2026-03-17_16h17.09.449,kallum_motion_pilot_GIST_update_2,2026.1.1,Win32,60.24096386,66b8b996ba8542d9cbd3f5a3,69b95efdef24cd8a694e89ee,69b961424fa65c1d27025104,0.127,0.127,1,73,235,51,1,twofour,,,,,,,,,,,,,,,,,,,,,,,,,,,,,,,,,,,,,,,,,,,,,,,,,,,,,,,,,,,,,,,,,,,,,,,,,,,,,,,,,,,,,,,,,,,,,,,,,,,,,,,,,,,,,,,,,,,,,,,,,,,,,,,,,,,,,,,,,
,,66b8b996ba8542d9cbd3f5a3,2026-03-17_16h17.09.449,kallum_motion_pilot_GIST_update_2,2026.1.1,Win32,60.24096386,66b8b996ba8542d9cbd3f5a3,69b95efdef24cd8a694e89ee,69b961424fa65c1d27025104,0.1274,0.1274,1,74,236,75,1,twofour,,,,,,,,,,,,,,,,,,,,,,,,,,,,,,,,,,,,,,,,,,,,,,,,,,,,,,,,,,,,,,,,,,,,,,,,,,,,,,,,,,,,,,,,,,,,,,,,,,,,,,,,,,,,,,,,,,,,,,,,,,,,,,,,,,,,,,,,,
,,66b8b996ba8542d9cbd3f5a3,2026-03-17_16h17.09.449,kallum_motion_pilot_GIST_update_2,2026.1.1,Win32,60.24096386,66b8b996ba8542d9cbd3f5a3,69b95efdef24cd8a694e89ee,69b961424fa65c1d27025104,0.1277,0.1277,1,75,237,132,1,sevenfive,,,,,,,,,,,,,,,,,,,,,,,,,,,,,,,,,,,,,,,,,,,,,,,,,,,,,,,,,,,,,,,,,,,,,,,,,,,,,,,,,,,,,,,,,,,,,,,,,,,,,,,,,,,,,,,,,,,,,,,,,,,,,,,,,,,,,,,,,
,,66b8b996ba8542d9cbd3f5a3,2026-03-17_16h17.09.449,kallum_motion_pilot_GIST_update_2,2026.1.1,Win32,60.24096386,66b8b996ba8542d9cbd3f5a3,69b95efdef24cd8a694e89ee,69b961424fa65c1d27025104,0.128,0.128,1,76,238,82,1,sixfive,,,,,,,,,,,,,,,,,,,,,,,,,,,,,,,,,,,,,,,,,,,,,,,,,,,,,,,,,,,,,,,,,,,,,,,,,,,,,,,,,,,,,,,,,,,,,,,,,,,,,,,,,,,,,,,,,,,,,,,,,,,,,,,,,,,,,,,,,
,,66b8b996ba8542d9cbd3f5a3,2026-03-17_16h17.09.449,kallum_motion_pilot_GIST_update_2,2026.1.1,Win32,60.24096386,66b8b996ba8542d9cbd3f5a3,69b95efdef24cd8a694e89ee,69b961424fa65c1d27025104,0.1284,0.1285,1,77,239,23,1,fourthree,,,,,,,,,,,,,,,,,,,,,,,,,,,,,,,,,,,,,,,,,,,,,,,,,,,,,,,,,,,,,,,,,,,,,,,,,,,,,,,,,,,,,,,,,,,,,,,,,,,,,,,,,,,,,,,,,,,,,,,,,,,,,,,,,,,,,,,,,
,,66b8b996ba8542d9cbd3f5a3,2026-03-17_16h17.09.449,kallum_motion_pilot_GIST_update_2,2026.1.1,Win32,60.24096386,66b8b996ba8542d9cbd3f5a3,69b95efdef24cd8a694e89ee,69b961424fa65c1d27025104,0.1287,0.1288,1,78,240,103,1,eightseven,,,,,,,,,,,,,,,,,,,,,,,,,,,,,,,,,,,,,,,,,,,,,,,,,,,,,,,,,,,,,,,,,,,,,,,,,,,,,,,,,,,,,,,,,,,,,,,,,,,,,,,,,,,,,,,,,,,,,,,,,,,,,,,,,,,,,,,,,
,,66b8b996ba8542d9cbd3f5a3,2026-03-17_16h17.09.449,kallum_motion_pilot_GIST_update_2,2026.1.1,Win32,60.24096386,66b8b996ba8542d9cbd3f5a3,69b95efdef24cd8a694e89ee,69b961424fa65c1d27025104,0.129,0.129,1,79,241,141,1,seveneight,,,,,,,,,,,,,,,,,,,,,,,,,,,,,,,,,,,,,,,,,,,,,,,,,,,,,,,,,,,,,,,,,,,,,,,,,,,,,,,,,,,,,,,,,,,,,,,,,,,,,,,,,,,,,,,,,,,,,,,,,,,,,,,,,,,,,,,,,
,,66b8b996ba8542d9cbd3f5a3,2026-03-17_16h17.09.449,kallum_motion_pilot_GIST_update_2,2026.1.1,Win32,60.24096386,66b8b996ba8542d9cbd3f5a3,69b95efdef24cd8a694e89ee,69b961424fa65c1d27025104,0.1294,0.1294,1,80,242,62,1,fourtwo,,,,,,,,,,,,,,,,,,,,,,,,,,,,,,,,,,,,,,,,,,,,,,,,,,,,,,,,,,,,,,,,,,,,,,,,,,,,,,,,,,,,,,,,,,,,,,,,,,,,,,,,,,,,,,,,,,,,,,,,,,,,,,,,,,,,,,,,,
,,66b8b996ba8542d9cbd3f5a3,2026-03-17_16h17.09.449,kallum_motion_pilot_GIST_update_2,2026.1.1,Win32,60.24096386,66b8b996ba8542d9cbd3f5a3,69b95efdef24cd8a694e89ee,69b961424fa65c1d27025104,0.1296,0.1297,1,81,243,52,1,threeone,,,,,,,,,,,,,,,,,,,,,,,,,,,,,,,,,,,,,,,,,,,,,,,,,,,,,,,,,,,,,,,,,,,,,,,,,,,,,,,,,,,,,,,,,,,,,,,,,,,,,,,,,,,,,,,,,,,,,,,,,,,,,,,,,,,,,,,,,
,,66b8b996ba8542d9cbd3f5a3,2026-03-17_16h17.09.449,kallum_motion_pilot_GIST_update_2,2026.1.1,Win32,60.24096386,66b8b996ba8542d9cbd3f5a3,69b95efdef24cd8a694e89ee,69b961424fa65c1d27025104,0.1299,0.13,1,82,244,58,1,twoone,,,,,,,,,,,,,,,,,,,,,,,,,,,,,,,,,,,,,,,,,,,,,,,,,,,,,,,,,,,,,,,,,,,,,,,,,,,,,,,,,,,,,,,,,,,,,,,,,,,,,,,,,,,,,,,,,,,,,,,,,,,,,,,,,,,,,,,,,
,,66b8b996ba8542d9cbd3f5a3,2026-03-17_16h17.09.449,kallum_motion_pilot_GIST_update_2,2026.1.1,Win32,60.24096386,66b8b996ba8542d9cbd3f5a3,69b95efdef24cd8a694e89ee,69b961424fa65c1d27025104,0.1302,0.1303,1,83,245,32,1,onetwo,,,,,,,,,,,,,,,,,,,,,,,,,,,,,,,,,,,,,,,,,,,,,,,,,,,,,,,,,,,,,,,,,,,,,,,,,,,,,,,,,,,,,,,,,,,,,,,,,,,,,,,,,,,,,,,,,,,,,,,,,,,,,,,,,,,,,,,,,
,,66b8b996ba8542d9cbd3f5a3,2026-03-17_16h17.09.449,kallum_motion_pilot_GIST_update_2,2026.1.1,Win32,60.24096386,66b8b996ba8542d9cbd3f5a3,69b95efdef24cd8a694e89ee,69b961424fa65c1d27025104,0.1306,0.1306,1,84,246,7,1,fourthree,,,,,,,,,,,,,,,,,,,,,,,,,,,,,,,,,,,,,,,,,,,,,,,,,,,,,,,,,,,,,,,,,,,,,,,,,,,,,,,,,,,,,,,,,,,,,,,,,,,,,,,,,,,,,,,,,,,,,,,,,,,,,,,,,,,,,,,,,
,,66b8b996ba8542d9cbd3f5a3,2026-03-17_16h17.09.449,kallum_motion_pilot_GIST_update_2,2026.1.1,Win32,60.24096386,66b8b996ba8542d9cbd3f5a3,69b95efdef24cd8a694e89ee,69b961424fa65c1d27025104,0.1309,0.1309,1,85,247,72,1,onetwo,,,,,,,,,,,,,,,,,,,,,,,,,,,,,,,,,,,,,,,,,,,,,,,,,,,,,,,,,,,,,,,,,,,,,,,,,,,,,,,,,,,,,,,,,,,,,,,,,,,,,,,,,,,,,,,,,,,,,,,,,,,,,,,,,,,,,,,,,
,,66b8b996ba8542d9cbd3f5a3,2026-03-17_16h17.09.449,kallum_motion_pilot_GIST_update_2,2026.1.1,Win32,60.24096386,66b8b996ba8542d9cbd3f5a3,69b95efdef24cd8a694e89ee,69b961424fa65c1d27025104,0.1312,0.1312,1,86,248,78,1,fourtwo,,,,,,,,,,,,,,,,,,,,,,,,,,,,,,,,,,,,,,,,,,,,,,,,,,,,,,,,,,,,,,,,,,,,,,,,,,,,,,,,,,,,,,,,,,,,,,,,,,,,,,,,,,,,,,,,,,,,,,,,,,,,,,,,,,,,,,,,,
,,66b8b996ba8542d9cbd3f5a3,2026-03-17_16h17.09.449,kallum_motion_pilot_GIST_update_2,2026.1.1,Win32,60.24096386,66b8b996ba8542d9cbd3f5a3,69b95efdef24cd8a694e89ee,69b961424fa65c1d27025104,0.1315,0.1315,1,87,249,104,1,fivesix,,,,,,,,,,,,,,,,,,,,,,,,,,,,,,,,,,,,,,,,,,,,,,,,,,,,,,,,,,,,,,,,,,,,,,,,,,,,,,,,,,,,,,,,,,,,,,,,,,,,,,,,,,,,,,,,,,,,,,,,,,,,,,,,,,,,,,,,,
,,66b8b996ba8542d9cbd3f5a3,2026-03-17_16h17.09.449,kallum_motion_pilot_GIST_update_2,2026.1.1,Win32,60.24096386,66b8b996ba8542d9cbd3f5a3,69b95efdef24cd8a694e89ee,69b961424fa65c1d27025104,0.1318,0.1319,1,88,250,161,1,fiveseven,,,,,,,,,,,,,,,,,,,,,,,,,,,,,,,,,,,,,,,,,,,,,,,,,,,,,,,,,,,,,,,,,,,,,,,,,,,,,,,,,,,,,,,,,,,,,,,,,,,,,,,,,,,,,,,,,,,,,,,,,,,,,,,,,,,,,,,,,
,,66b8b996ba8542d9cbd3f5a3,2026-03-17_16h17.09.449,kallum_motion_pilot_GIST_update_2,2026.1.1,Win32,60.24096386,66b8b996ba8542d9cbd3f5a3,69b95efdef24cd8a694e89ee,69b961424fa65c1d27025104,0.1322,0.1322,1,89,251,9,1,onethree,,,,,,,,,,,,,,,,,,,,,,,,,,,,,,,,,,,,,,,,,,,,,,,,,,,,,,,,,,,,,,,,,,,,,,,,,,,,,,,,,,,,,,,,,,,,,,,,,,,,,,,,,,,,,,,,,,,,,,,,,,,,,,,,,,,,,,,,,
,,66b8b996ba8542d9cbd3f5a3,2026-03-17_16h17.09.449,kallum_motion_pilot_GIST_update_2,2026.1.1,Win32,60.24096386,66b8b996ba8542d9cbd3f5a3,69b95efdef24cd8a694e89ee,69b961424fa65c1d27025104,0.1328,0.1328,1,90,252,138,1,sixfive,,,,,,,,,,,,,,,,,,,,,,,,,,,,,,,,,,,,,,,,,,,,,,,,,,,,,,,,,,,,,,,,,,,,,,,,,,,,,,,,,,,,,,,,,,,,,,,,,,,,,,,,,,,,,,,,,,,,,,,,,,,,,,,,,,,,,,,,,
,,66b8b996ba8542d9cbd3f5a3,2026-03-17_16h17.09.449,kallum_motion_pilot_GIST_update_2,2026.1.1,Win32,60.24096386,66b8b996ba8542d9cbd3f5a3,69b95efdef24cd8a694e89ee,69b961424fa65c1d27025104,0.1331,0.1331,1,91,253,24,1,onetwo,,,,,,,,,,,,,,,,,,,,,,,,,,,,,,,,,,,,,,,,,,,,,,,,,,,,,,,,,,,,,,,,,,,,,,,,,,,,,,,,,,,,,,,,,,,,,,,,,,,,,,,,,,,,,,,,,,,,,,,,,,,,,,,,,,,,,,,,,
,,66b8b996ba8542d9cbd3f5a3,2026-03-17_16h17.09.449,kallum_motion_pilot_GIST_update_2,2026.1.1,Win32,60.24096386,66b8b996ba8542d9cbd3f5a3,69b95efdef24cd8a694e89ee,69b961424fa65c1d27025104,0.1335,0.1335,1,92,254,91,1,sixeight,,,,,,,,,,,,,,,,,,,,,,,,,,,,,,,,,,,,,,,,,,,,,,,,,,,,,,,,,,,,,,,,,,,,,,,,,,,,,,,,,,,,,,,,,,,,,,,,,,,,,,,,,,,,,,,,,,,,,,,,,,,,,,,,,,,,,,,,,
,,66b8b996ba8542d9cbd3f5a3,2026-03-17_16h17.09.449,kallum_motion_pilot_GIST_update_2,2026.1.1,Win32,60.24096386,66b8b996ba8542d9cbd3f5a3,69b95efdef24cd8a694e89ee,69b961424fa65c1d27025104,0.1338,0.1338,1,93,255,145,1,fiveseven,,,,,,,,,,,,,,,,,,,,,,,,,,,,,,,,,,,,,,,,,,,,,,,,,,,,,,,,,,,,,,,,,,,,,,,,,,,,,,,,,,,,,,,,,,,,,,,,,,,,,,,,,,,,,,,,,,,,,,,,,,,,,,,,,,,,,,,,,
,,66b8b996ba8542d9cbd3f5a3,2026-03-17_16h17.09.449,kallum_motion_pilot_GIST_update_2,2026.1.1,Win32,60.24096386,66b8b996ba8542d9cbd3f5a3,69b95efdef24cd8a694e89ee,69b961424fa65c1d27025104,0.1341,0.1341,1,94,256,71,1,fourthree,,,,,,,,,,,,,,,,,,,,,,,,,,,,,,,,,,,,,,,,,,,,,,,,,,,,,,,,,,,,,,,,,,,,,,,,,,,,,,,,,,,,,,,,,,,,,,,,,,,,,,,,,,,,,,,,,,,,,,,,,,,,,,,,,,,,,,,,,
,,66b8b996ba8542d9cbd3f5a3,2026-03-17_16h17.09.449,kallum_motion_pilot_GIST_update_2,2026.1.1,Win32,60.24096386,66b8b996ba8542d9cbd3f5a3,69b95efdef24cd8a694e89ee,69b961424fa65c1d27025104,0.1344,0.1344,1,95,257,17,1,onethree,,,,,,,,,,,,,,,,,,,,,,,,,,,,,,,,,,,,,,,,,,,,,,,,,,,,,,,,,,,,,,,,,,,,,,,,,,,,,,,,,,,,,,,,,,,,,,,,,,,,,,,,,,,,,,,,,,,,,,,,,,,,,,,,,,,,,,,,,
,,66b8b996ba8542d9cbd3f5a3,2026-03-17_16h17.09.449,kallum_motion_pilot_GIST_update_2,2026.1.1,Win32,60.24096386,66b8b996ba8542d9cbd3f5a3,69b95efdef24cd8a694e89ee,69b961424fa65c1d27025104,0.1348,0.1348,1,96,258,74,1,twoone,,,,,,,,,,,,,,,,,,,,,,,,,,,,,,,,,,,,,,,,,,,,,,,,,,,,,,,,,,,,,,,,,,,,,,,,,,,,,,,,,,,,,,,,,,,,,,,,,,,,,,,,,,,,,,,,,,,,,,,,,,,,,,,,,,,,,,,,,
,,66b8b996ba8542d9cbd3f5a3,2026-03-17_16h17.09.449,kallum_motion_pilot_GIST_update_2,2026.1.1,Win32,60.24096386,66b8b996ba8542d9cbd3f5a3,69b95efdef24cd8a694e89ee,69b961424fa65c1d27025104,0.1351,0.1352,1,97,259,80,1,fivesix,,,,,,,,,,,,,,,,,,,,,,,,,,,,,,,,,,,,,,,,,,,,,,,,,,,,,,,,,,,,,,,,,,,,,,,,,,,,,,,,,,,,,,,,,,,,,,,,,,,,,,,,,,,,,,,,,,,,,,,,,,,,,,,,,,,,,,,,,
,,66b8b996ba8542d9cbd3f5a3,2026-03-17_16h17.09.449,kallum_motion_pilot_GIST_update_2,2026.1.1,Win32,60.24096386,66b8b996ba8542d9cbd3f5a3,69b95efdef24cd8a694e89ee,69b961424fa65c1d27025104,0.1354,0.1354,1,98,260,59,1,twofour,,,,,,,,,,,,,,,,,,,,,,,,,,,,,,,,,,,,,,,,,,,,,,,,,,,,,,,,,,,,,,,,,,,,,,,,,,,,,,,,,,,,,,,,,,,,,,,,,,,,,,,,,,,,,,,,,,,,,,,,,,,,,,,,,,,,,,,,,
,,66b8b996ba8542d9cbd3f5a3,2026-03-17_16h17.09.449,kallum_motion_pilot_GIST_update_2,2026.1.1,Win32,60.24096386,66b8b996ba8542d9cbd3f5a3,69b95efdef24cd8a694e89ee,69b961424fa65c1d27025104,0.1358,0.1358,1,99,261,149,1,seveneight,,,,,,,,,,,,,,,,,,,,,,,,,,,,,,,,,,,,,,,,,,,,,,,,,,,,,,,,,,,,,,,,,,,,,,,,,,,,,,,,,,,,,,,,,,,,,,,,,,,,,,,,,,,,,,,,,,,,,,,,,,,,,,,,,,,,,,,,,
,,66b8b996ba8542d9cbd3f5a3,2026-03-17_16h17.09.449,kallum_motion_pilot_GIST_update_2,2026.1.1,Win32,60.24096386,66b8b996ba8542d9cbd3f5a3,69b95efdef24cd8a694e89ee,69b961424fa65c1d27025104,0.1362,0.1362,1,100,262,127,1,eightseven,,,,,,,,,,,,,,,,,,,,,,,,,,,,,,,,,,,,,,,,,,,,,,,,,,,,,,,,,,,,,,,,,,,,,,,,,,,,,,,,,,,,,,,,,,,,,,,,,,,,,,,,,,,,,,,,,,,,,,,,,,,,,,,,,,,,,,,,,
,,66b8b996ba8542d9cbd3f5a3,2026-03-17_16h17.09.449,kallum_motion_pilot_GIST_update_2,2026.1.1,Win32,60.24096386,66b8b996ba8542d9cbd3f5a3,69b95efdef24cd8a694e89ee,69b961424fa65c1d27025104,0.1365,0.1365,1,101,263,49,1,onethree,,,,,,,,,,,,,,,,,,,,,,,,,,,,,,,,,,,,,,,,,,,,,,,,,,,,,,,,,,,,,,,,,,,,,,,,,,,,,,,,,,,,,,,,,,,,,,,,,,,,,,,,,,,,,,,,,,,,,,,,,,,,,,,,,,,,,,,,,
,,66b8b996ba8542d9cbd3f5a3,2026-03-17_16h17.09.449,kallum_motion_pilot_GIST_update_2,2026.1.1,Win32,60.24096386,66b8b996ba8542d9cbd3f5a3,69b95efdef24cd8a694e89ee,69b961424fa65c1d27025104,0.1368,0.1368,1,102,264,94,1,eightsix,,,,,,,,,,,,,,,,,,,,,,,,,,,,,,,,,,,,,,,,,,,,,,,,,,,,,,,,,,,,,,,,,,,,,,,,,,,,,,,,,,,,,,,,,,,,,,,,,,,,,,,,,,,,,,,,,,,,,,,,,,,,,,,,,,,,,,,,,
,,66b8b996ba8542d9cbd3f5a3,2026-03-17_16h17.09.449,kallum_motion_pilot_GIST_update_2,2026.1.1,Win32,60.24096386,66b8b996ba8542d9cbd3f5a3,69b95efdef24cd8a694e89ee,69b961424fa65c1d27025104,0.1372,0.1372,1,103,265,8,1,onetwo,,,,,,,,,,,,,,,,,,,,,,,,,,,,,,,,,,,,,,,,,,,,,,,,,,,,,,,,,,,,,,,,,,,,,,,,,,,,,,,,,,,,,,,,,,,,,,,,,,,,,,,,,,,,,,,,,,,,,,,,,,,,,,,,,,,,,,,,,
,,66b8b996ba8542d9cbd3f5a3,2026-03-17_16h17.09.449,kallum_motion_pilot_GIST_update_2,2026.1.1,Win32,60.24096386,66b8b996ba8542d9cbd3f5a3,69b95efdef24cd8a694e89ee,69b961424fa65c1d27025104,0.1375,0.1375,1,104,266,53,1,threefour,,,,,,,,,,,,,,,,,,,,,,,,,,,,,,,,,,,,,,,,,,,,,,,,,,,,,,,,,,,,,,,,,,,,,,,,,,,,,,,,,,,,,,,,,,,,,,,,,,,,,,,,,,,,,,,,,,,,,,,,,,,,,,,,,,,,,,,,,
