startup.started,startup.stopped,Prolific ID*,date,expName,psychopyVersion,OS,frameRate,participant,study_id,session,stimpositions.started,stimpositions.stopped,hardcoded_stimulus_positions.thisRepN,hardcoded_stimulus_positions.thisTrialN,hardcoded_stimulus_positions.thisN,hardcoded_stimulus_positions.thisIndex,hardcoded_stimulus_positions.ran,StimulusPos,stimorientation.started,stimorientation.stopped,prac_stimorientation_import_loop.thisRepN,prac_stimorientation_import_loop.thisTrialN,prac_stimorientation_import_loop.thisN,prac_stimorientation_import_loop.thisIndex,prac_stimorientation_import_loop.ran,Stimorientation,welcome_instr.started,welcome_instr.stopped,key_resp.keys,key_resp.rt,key_resp.duration,response_steppedout_1.started,response_steppedout_1.stopped,key_resp_20.keys,key_resp_20.rt,key_resp_20.duration,response_steppedout_2.started,response_steppedout_2.stopped,key_resp_19.keys,key_resp_19.rt,key_resp_19.duration,stim_response_instr.started,stim_response_instr.stopped,key_resp_15.keys,key_resp_15.rt,key_resp_15.duration,direction_instr_2.started,direction_instr_2.stopped,key_resp_9.keys,key_resp_9.rt,key_resp_9.duration,instr_prac.started,instr_prac.stopped,key_resp_10.keys,key_resp_10.rt,key_resp_10.duration,Stim1_display_prac.started,Stim1_display_prac.stopped,Ecc,Circle1_ori,Circle2_ori,response_prac.started,similarity,response_time,response_prac.stopped,mouse_5.x,mouse_5.y,mouse_5.leftButton,mouse_5.midButton,mouse_5.rightButton,mouse_5.clicked_name,responseprac_feedback.started,responseprac_feedback.stopped,summary2_prac.started,summary2_prac.stopped,mouse_6.x,mouse_6.y,mouse_6.leftButton,mouse_6.midButton,mouse_6.rightButton,mouse_6.clicked_name,duringprac.thisRepN,duringprac.thisTrialN,duringprac.thisN,duringprac.thisIndex,duringprac.ran,begin.started,begin.stopped,key_resp_22.keys,key_resp_22.rt,key_resp_22.duration,Stim1_display.started,Stim1_display.stopped,circle1_ori,circle2_ori,circle1_SF,circle2_SF,response.started,response.stopped,mouse.x,mouse.y,mouse.leftButton,mouse.midButton,mouse.rightButton,mouse.clicked_name,trialnumber,double_pass.thisRepN,double_pass.thisTrialN,double_pass.thisN,double_pass.thisIndex,double_pass.ran,double_pass.order,main_trial.thisRepN,main_trial.thisTrialN,main_trial.thisN,main_trial.thisIndex,main_trial.ran,main_trial.order,Trial_Counter,Catch,Frequencies,response_2.started,response_2.stopped,mouse_2.x,mouse_2.y,mouse_2.leftButton,mouse_2.midButton,mouse_2.rightButton,mouse_2.clicked_name,special_trial.started,special_trial.stopped,catch_1.started,catch_1.stopped,mouse_3.x,mouse_3.y,mouse_3.leftButton,mouse_3.midButton,mouse_3.rightButton,catchresponse,catchnumber,response_time_catch,response_sum.started,response_sum.stopped,mouse_11.x,mouse_11.y,mouse_11.leftButton,mouse_11.midButton,mouse_11.rightButton,flip_presentation_sequence_for_double_pass.started,flip_presentation_sequence_for_double_pass.stopped,goodbye.started,goodbye.stopped,key_resp_3.keys,key_resp_3.rt,key_resp_3.duration
0.0015,0.0016,66c759ddaa2a477714a13d63,2026-03-17_09h31.21.510,kallum_motion_pilot_GIST_update_2,2026.1.1,Win32,32.67973856,66c759ddaa2a477714a13d63,69b95efdef24cd8a694e89ee,69b9607f56cf3c448c9f3c52,,,,,,,,,,,,,,,,,,,,,,,,,,,,,,,,,,,,,,,,,,,,,,,,,,,,,,,,,,,,,,,,,,,,,,,,,,,,,,,,,,,,,,,,,,,,,,,,,,,,,,,,,,,,,,,,,,,,,,,,,,,,,,,,,,,,,,,,,,,,,,,,,
,,66c759ddaa2a477714a13d63,2026-03-17_09h31.21.510,kallum_motion_pilot_GIST_update_2,2026.1.1,Win32,32.67973856,66c759ddaa2a477714a13d63,69b95efdef24cd8a694e89ee,69b9607f56cf3c448c9f3c52,0.033,0.0332,0,0,0,130,1,sixfive,,,,,,,,,,,,,,,,,,,,,,,,,,,,,,,,,,,,,,,,,,,,,,,,,,,,,,,,,,,,,,,,,,,,,,,,,,,,,,,,,,,,,,,,,,,,,,,,,,,,,,,,,,,,,,,,,,,,,,,,,,,,,,,,,,,,,,,,,
,,66c759ddaa2a477714a13d63,2026-03-17_09h31.21.510,kallum_motion_pilot_GIST_update_2,2026.1.1,Win32,32.67973856,66c759ddaa2a477714a13d63,69b95efdef24cd8a694e89ee,69b9607f56cf3c448c9f3c52,0.0335,0.0335,0,1,1,99,1,sixeight,,,,,,,,,,,,,,,,,,,,,,,,,,,,,,,,,,,,,,,,,,,,,,,,,,,,,,,,,,,,,,,,,,,,,,,,,,,,,,,,,,,,,,,,,,,,,,,,,,,,,,,,,,,,,,,,,,,,,,,,,,,,,,,,,,,,,,,,,
,,66c759ddaa2a477714a13d63,2026-03-17_09h31.21.510,kallum_motion_pilot_GIST_update_2,2026.1.1,Win32,32.67973856,66c759ddaa2a477714a13d63,69b95efdef24cd8a694e89ee,69b9607f56cf3c448c9f3c52,0.0338,0.0338,0,2,2,109,1,seveneight,,,,,,,,,,,,,,,,,,,,,,,,,,,,,,,,,,,,,,,,,,,,,,,,,,,,,,,,,,,,,,,,,,,,,,,,,,,,,,,,,,,,,,,,,,,,,,,,,,,,,,,,,,,,,,,,,,,,,,,,,,,,,,,,,,,,,,,,,
,,66c759ddaa2a477714a13d63,2026-03-17_09h31.21.510,kallum_motion_pilot_GIST_update_2,2026.1.1,Win32,32.67973856,66c759ddaa2a477714a13d63,69b95efdef24cd8a694e89ee,69b9607f56cf3c448c9f3c52,0.034,0.034,0,3,3,57,1,onethree,,,,,,,,,,,,,,,,,,,,,,,,,,,,,,,,,,,,,,,,,,,,,,,,,,,,,,,,,,,,,,,,,,,,,,,,,,,,,,,,,,,,,,,,,,,,,,,,,,,,,,,,,,,,,,,,,,,,,,,,,,,,,,,,,,,,,,,,,
,,66c759ddaa2a477714a13d63,2026-03-17_09h31.21.510,kallum_motion_pilot_GIST_update_2,2026.1.1,Win32,32.67973856,66c759ddaa2a477714a13d63,69b95efdef24cd8a694e89ee,69b9607f56cf3c448c9f3c52,0.0342,0.0342,0,4,4,113,1,fiveseven,,,,,,,,,,,,,,,,,,,,,,,,,,,,,,,,,,,,,,,,,,,,,,,,,,,,,,,,,,,,,,,,,,,,,,,,,,,,,,,,,,,,,,,,,,,,,,,,,,,,,,,,,,,,,,,,,,,,,,,,,,,,,,,,,,,,,,,,,
,,66c759ddaa2a477714a13d63,2026-03-17_09h31.21.510,kallum_motion_pilot_GIST_update_2,2026.1.1,Win32,32.67973856,66c759ddaa2a477714a13d63,69b95efdef24cd8a694e89ee,69b9607f56cf3c448c9f3c52,0.0345,0.0345,0,5,5,18,1,twoone,,,,,,,,,,,,,,,,,,,,,,,,,,,,,,,,,,,,,,,,,,,,,,,,,,,,,,,,,,,,,,,,,,,,,,,,,,,,,,,,,,,,,,,,,,,,,,,,,,,,,,,,,,,,,,,,,,,,,,,,,,,,,,,,,,,,,,,,,
,,66c759ddaa2a477714a13d63,2026-03-17_09h31.21.510,kallum_motion_pilot_GIST_update_2,2026.1.1,Win32,32.67973856,66c759ddaa2a477714a13d63,69b95efdef24cd8a694e89ee,69b9607f56cf3c448c9f3c52,0.0348,0.0348,0,6,6,10,1,twoone,,,,,,,,,,,,,,,,,,,,,,,,,,,,,,,,,,,,,,,,,,,,,,,,,,,,,,,,,,,,,,,,,,,,,,,,,,,,,,,,,,,,,,,,,,,,,,,,,,,,,,,,,,,,,,,,,,,,,,,,,,,,,,,,,,,,,,,,,
,,66c759ddaa2a477714a13d63,2026-03-17_09h31.21.510,kallum_motion_pilot_GIST_update_2,2026.1.1,Win32,32.67973856,66c759ddaa2a477714a13d63,69b95efdef24cd8a694e89ee,69b9607f56cf3c448c9f3c52,0.035,0.035,0,7,7,138,1,sixfive,,,,,,,,,,,,,,,,,,,,,,,,,,,,,,,,,,,,,,,,,,,,,,,,,,,,,,,,,,,,,,,,,,,,,,,,,,,,,,,,,,,,,,,,,,,,,,,,,,,,,,,,,,,,,,,,,,,,,,,,,,,,,,,,,,,,,,,,,
,,66c759ddaa2a477714a13d63,2026-03-17_09h31.21.510,kallum_motion_pilot_GIST_update_2,2026.1.1,Win32,32.67973856,66c759ddaa2a477714a13d63,69b95efdef24cd8a694e89ee,69b9607f56cf3c448c9f3c52,0.0351,0.0351,0,8,8,22,1,fourtwo,,,,,,,,,,,,,,,,,,,,,,,,,,,,,,,,,,,,,,,,,,,,,,,,,,,,,,,,,,,,,,,,,,,,,,,,,,,,,,,,,,,,,,,,,,,,,,,,,,,,,,,,,,,,,,,,,,,,,,,,,,,,,,,,,,,,,,,,,
,,66c759ddaa2a477714a13d63,2026-03-17_09h31.21.510,kallum_motion_pilot_GIST_update_2,2026.1.1,Win32,32.67973856,66c759ddaa2a477714a13d63,69b95efdef24cd8a694e89ee,69b9607f56cf3c448c9f3c52,0.0355,0.0355,0,9,9,116,1,sevenfive,,,,,,,,,,,,,,,,,,,,,,,,,,,,,,,,,,,,,,,,,,,,,,,,,,,,,,,,,,,,,,,,,,,,,,,,,,,,,,,,,,,,,,,,,,,,,,,,,,,,,,,,,,,,,,,,,,,,,,,,,,,,,,,,,,,,,,,,,
,,66c759ddaa2a477714a13d63,2026-03-17_09h31.21.510,kallum_motion_pilot_GIST_update_2,2026.1.1,Win32,32.67973856,66c759ddaa2a477714a13d63,69b95efdef24cd8a694e89ee,69b9607f56cf3c448c9f3c52,0.0358,0.0359,0,10,10,35,1,twofour,,,,,,,,,,,,,,,,,,,,,,,,,,,,,,,,,,,,,,,,,,,,,,,,,,,,,,,,,,,,,,,,,,,,,,,,,,,,,,,,,,,,,,,,,,,,,,,,,,,,,,,,,,,,,,,,,,,,,,,,,,,,,,,,,,,,,,,,,
,,66c759ddaa2a477714a13d63,2026-03-17_09h31.21.510,kallum_motion_pilot_GIST_update_2,2026.1.1,Win32,32.67973856,66c759ddaa2a477714a13d63,69b95efdef24cd8a694e89ee,69b9607f56cf3c448c9f3c52,0.036,0.036,0,11,11,145,1,fiveseven,,,,,,,,,,,,,,,,,,,,,,,,,,,,,,,,,,,,,,,,,,,,,,,,,,,,,,,,,,,,,,,,,,,,,,,,,,,,,,,,,,,,,,,,,,,,,,,,,,,,,,,,,,,,,,,,,,,,,,,,,,,,,,,,,,,,,,,,,
,,66c759ddaa2a477714a13d63,2026-03-17_09h31.21.510,kallum_motion_pilot_GIST_update_2,2026.1.1,Win32,32.67973856,66c759ddaa2a477714a13d63,69b95efdef24cd8a694e89ee,69b9607f56cf3c448c9f3c52,0.0362,0.0362,0,12,12,97,1,fiveseven,,,,,,,,,,,,,,,,,,,,,,,,,,,,,,,,,,,,,,,,,,,,,,,,,,,,,,,,,,,,,,,,,,,,,,,,,,,,,,,,,,,,,,,,,,,,,,,,,,,,,,,,,,,,,,,,,,,,,,,,,,,,,,,,,,,,,,,,,
,,66c759ddaa2a477714a13d63,2026-03-17_09h31.21.510,kallum_motion_pilot_GIST_update_2,2026.1.1,Win32,32.67973856,66c759ddaa2a477714a13d63,69b95efdef24cd8a694e89ee,69b9607f56cf3c448c9f3c52,0.0364,0.0364,0,13,13,29,1,threefour,,,,,,,,,,,,,,,,,,,,,,,,,,,,,,,,,,,,,,,,,,,,,,,,,,,,,,,,,,,,,,,,,,,,,,,,,,,,,,,,,,,,,,,,,,,,,,,,,,,,,,,,,,,,,,,,,,,,,,,,,,,,,,,,,,,,,,,,,
,,66c759ddaa2a477714a13d63,2026-03-17_09h31.21.510,kallum_motion_pilot_GIST_update_2,2026.1.1,Win32,32.67973856,66c759ddaa2a477714a13d63,69b95efdef24cd8a694e89ee,69b9607f56cf3c448c9f3c52,0.0365,0.0366,0,14,14,66,1,twoone,,,,,,,,,,,,,,,,,,,,,,,,,,,,,,,,,,,,,,,,,,,,,,,,,,,,,,,,,,,,,,,,,,,,,,,,,,,,,,,,,,,,,,,,,,,,,,,,,,,,,,,,,,,,,,,,,,,,,,,,,,,,,,,,,,,,,,,,,
,,66c759ddaa2a477714a13d63,2026-03-17_09h31.21.510,kallum_motion_pilot_GIST_update_2,2026.1.1,Win32,32.67973856,66c759ddaa2a477714a13d63,69b95efdef24cd8a694e89ee,69b9607f56cf3c448c9f3c52,0.0367,0.0367,0,15,15,72,1,onetwo,,,,,,,,,,,,,,,,,,,,,,,,,,,,,,,,,,,,,,,,,,,,,,,,,,,,,,,,,,,,,,,,,,,,,,,,,,,,,,,,,,,,,,,,,,,,,,,,,,,,,,,,,,,,,,,,,,,,,,,,,,,,,,,,,,,,,,,,,
,,66c759ddaa2a477714a13d63,2026-03-17_09h31.21.510,kallum_motion_pilot_GIST_update_2,2026.1.1,Win32,32.67973856,66c759ddaa2a477714a13d63,69b95efdef24cd8a694e89ee,69b9607f56cf3c448c9f3c52,0.0369,0.0369,0,16,16,158,1,eightsix,,,,,,,,,,,,,,,,,,,,,,,,,,,,,,,,,,,,,,,,,,,,,,,,,,,,,,,,,,,,,,,,,,,,,,,,,,,,,,,,,,,,,,,,,,,,,,,,,,,,,,,,,,,,,,,,,,,,,,,,,,,,,,,,,,,,,,,,,
,,66c759ddaa2a477714a13d63,2026-03-17_09h31.21.510,kallum_motion_pilot_GIST_update_2,2026.1.1,Win32,32.67973856,66c759ddaa2a477714a13d63,69b95efdef24cd8a694e89ee,69b9607f56cf3c448c9f3c52,0.0371,0.0371,0,17,17,46,1,fourtwo,,,,,,,,,,,,,,,,,,,,,,,,,,,,,,,,,,,,,,,,,,,,,,,,,,,,,,,,,,,,,,,,,,,,,,,,,,,,,,,,,,,,,,,,,,,,,,,,,,,,,,,,,,,,,,,,,,,,,,,,,,,,,,,,,,,,,,,,,
,,66c759ddaa2a477714a13d63,2026-03-17_09h31.21.510,kallum_motion_pilot_GIST_update_2,2026.1.1,Win32,32.67973856,66c759ddaa2a477714a13d63,69b95efdef24cd8a694e89ee,69b9607f56cf3c448c9f3c52,0.0372,0.0373,0,18,18,90,1,sixfive,,,,,,,,,,,,,,,,,,,,,,,,,,,,,,,,,,,,,,,,,,,,,,,,,,,,,,,,,,,,,,,,,,,,,,,,,,,,,,,,,,,,,,,,,,,,,,,,,,,,,,,,,,,,,,,,,,,,,,,,,,,,,,,,,,,,,,,,,
,,66c759ddaa2a477714a13d63,2026-03-17_09h31.21.510,kallum_motion_pilot_GIST_update_2,2026.1.1,Win32,32.67973856,66c759ddaa2a477714a13d63,69b95efdef24cd8a694e89ee,69b9607f56cf3c448c9f3c52,0.0374,0.0374,0,19,19,89,1,fiveseven,,,,,,,,,,,,,,,,,,,,,,,,,,,,,,,,,,,,,,,,,,,,,,,,,,,,,,,,,,,,,,,,,,,,,,,,,,,,,,,,,,,,,,,,,,,,,,,,,,,,,,,,,,,,,,,,,,,,,,,,,,,,,,,,,,,,,,,,,
,,66c759ddaa2a477714a13d63,2026-03-17_09h31.21.510,kallum_motion_pilot_GIST_update_2,2026.1.1,Win32,32.67973856,66c759ddaa2a477714a13d63,69b95efdef24cd8a694e89ee,69b9607f56cf3c448c9f3c52,0.0376,0.0376,0,20,20,25,1,onethree,,,,,,,,,,,,,,,,,,,,,,,,,,,,,,,,,,,,,,,,,,,,,,,,,,,,,,,,,,,,,,,,,,,,,,,,,,,,,,,,,,,,,,,,,,,,,,,,,,,,,,,,,,,,,,,,,,,,,,,,,,,,,,,,,,,,,,,,,
,,66c759ddaa2a477714a13d63,2026-03-17_09h31.21.510,kallum_motion_pilot_GIST_update_2,2026.1.1,Win32,32.67973856,66c759ddaa2a477714a13d63,69b95efdef24cd8a694e89ee,69b9607f56cf3c448c9f3c52,0.0377,0.0377,0,21,21,9,1,onethree,,,,,,,,,,,,,,,,,,,,,,,,,,,,,,,,,,,,,,,,,,,,,,,,,,,,,,,,,,,,,,,,,,,,,,,,,,,,,,,,,,,,,,,,,,,,,,,,,,,,,,,,,,,,,,,,,,,,,,,,,,,,,,,,,,,,,,,,,
,,66c759ddaa2a477714a13d63,2026-03-17_09h31.21.510,kallum_motion_pilot_GIST_update_2,2026.1.1,Win32,32.67973856,66c759ddaa2a477714a13d63,69b95efdef24cd8a694e89ee,69b9607f56cf3c448c9f3c52,0.0379,0.0379,0,22,22,108,1,sevenfive,,,,,,,,,,,,,,,,,,,,,,,,,,,,,,,,,,,,,,,,,,,,,,,,,,,,,,,,,,,,,,,,,,,,,,,,,,,,,,,,,,,,,,,,,,,,,,,,,,,,,,,,,,,,,,,,,,,,,,,,,,,,,,,,,,,,,,,,,
,,66c759ddaa2a477714a13d63,2026-03-17_09h31.21.510,kallum_motion_pilot_GIST_update_2,2026.1.1,Win32,32.67973856,66c759ddaa2a477714a13d63,69b95efdef24cd8a694e89ee,69b9607f56cf3c448c9f3c52,0.0381,0.0381,0,23,23,6,1,fourtwo,,,,,,,,,,,,,,,,,,,,,,,,,,,,,,,,,,,,,,,,,,,,,,,,,,,,,,,,,,,,,,,,,,,,,,,,,,,,,,,,,,,,,,,,,,,,,,,,,,,,,,,,,,,,,,,,,,,,,,,,,,,,,,,,,,,,,,,,,
,,66c759ddaa2a477714a13d63,2026-03-17_09h31.21.510,kallum_motion_pilot_GIST_update_2,2026.1.1,Win32,32.67973856,66c759ddaa2a477714a13d63,69b95efdef24cd8a694e89ee,69b9607f56cf3c448c9f3c52,0.0383,0.0383,0,24,24,137,1,fiveseven,,,,,,,,,,,,,,,,,,,,,,,,,,,,,,,,,,,,,,,,,,,,,,,,,,,,,,,,,,,,,,,,,,,,,,,,,,,,,,,,,,,,,,,,,,,,,,,,,,,,,,,,,,,,,,,,,,,,,,,,,,,,,,,,,,,,,,,,,
,,66c759ddaa2a477714a13d63,2026-03-17_09h31.21.510,kallum_motion_pilot_GIST_update_2,2026.1.1,Win32,32.67973856,66c759ddaa2a477714a13d63,69b95efdef24cd8a694e89ee,69b9607f56cf3c448c9f3c52,0.0385,0.0386,0,25,25,98,1,sixfive,,,,,,,,,,,,,,,,,,,,,,,,,,,,,,,,,,,,,,,,,,,,,,,,,,,,,,,,,,,,,,,,,,,,,,,,,,,,,,,,,,,,,,,,,,,,,,,,,,,,,,,,,,,,,,,,,,,,,,,,,,,,,,,,,,,,,,,,,
,,66c759ddaa2a477714a13d63,2026-03-17_09h31.21.510,kallum_motion_pilot_GIST_update_2,2026.1.1,Win32,32.67973856,66c759ddaa2a477714a13d63,69b95efdef24cd8a694e89ee,69b9607f56cf3c448c9f3c52,0.0387,0.0387,0,26,26,104,1,fivesix,,,,,,,,,,,,,,,,,,,,,,,,,,,,,,,,,,,,,,,,,,,,,,,,,,,,,,,,,,,,,,,,,,,,,,,,,,,,,,,,,,,,,,,,,,,,,,,,,,,,,,,,,,,,,,,,,,,,,,,,,,,,,,,,,,,,,,,,,
,,66c759ddaa2a477714a13d63,2026-03-17_09h31.21.510,kallum_motion_pilot_GIST_update_2,2026.1.1,Win32,32.67973856,66c759ddaa2a477714a13d63,69b95efdef24cd8a694e89ee,69b9607f56cf3c448c9f3c52,0.0389,0.0389,0,27,27,53,1,threefour,,,,,,,,,,,,,,,,,,,,,,,,,,,,,,,,,,,,,,,,,,,,,,,,,,,,,,,,,,,,,,,,,,,,,,,,,,,,,,,,,,,,,,,,,,,,,,,,,,,,,,,,,,,,,,,,,,,,,,,,,,,,,,,,,,,,,,,,,
,,66c759ddaa2a477714a13d63,2026-03-17_09h31.21.510,kallum_motion_pilot_GIST_update_2,2026.1.1,Win32,32.67973856,66c759ddaa2a477714a13d63,69b95efdef24cd8a694e89ee,69b9607f56cf3c448c9f3c52,0.0391,0.0391,0,28,28,140,1,sevenfive,,,,,,,,,,,,,,,,,,,,,,,,,,,,,,,,,,,,,,,,,,,,,,,,,,,,,,,,,,,,,,,,,,,,,,,,,,,,,,,,,,,,,,,,,,,,,,,,,,,,,,,,,,,,,,,,,,,,,,,,,,,,,,,,,,,,,,,,,
,,66c759ddaa2a477714a13d63,2026-03-17_09h31.21.510,kallum_motion_pilot_GIST_update_2,2026.1.1,Win32,32.67973856,66c759ddaa2a477714a13d63,69b95efdef24cd8a694e89ee,69b9607f56cf3c448c9f3c52,0.0394,0.0394,0,29,29,144,1,fivesix,,,,,,,,,,,,,,,,,,,,,,,,,,,,,,,,,,,,,,,,,,,,,,,,,,,,,,,,,,,,,,,,,,,,,,,,,,,,,,,,,,,,,,,,,,,,,,,,,,,,,,,,,,,,,,,,,,,,,,,,,,,,,,,,,,,,,,,,,
,,66c759ddaa2a477714a13d63,2026-03-17_09h31.21.510,kallum_motion_pilot_GIST_update_2,2026.1.1,Win32,32.67973856,66c759ddaa2a477714a13d63,69b95efdef24cd8a694e89ee,69b9607f56cf3c448c9f3c52,0.0396,0.0396,0,30,30,61,1,threefour,,,,,,,,,,,,,,,,,,,,,,,,,,,,,,,,,,,,,,,,,,,,,,,,,,,,,,,,,,,,,,,,,,,,,,,,,,,,,,,,,,,,,,,,,,,,,,,,,,,,,,,,,,,,,,,,,,,,,,,,,,,,,,,,,,,,,,,,,
,,66c759ddaa2a477714a13d63,2026-03-17_09h31.21.510,kallum_motion_pilot_GIST_update_2,2026.1.1,Win32,32.67973856,66c759ddaa2a477714a13d63,69b95efdef24cd8a694e89ee,69b9607f56cf3c448c9f3c52,0.0397,0.0397,0,31,31,76,1,threeone,,,,,,,,,,,,,,,,,,,,,,,,,,,,,,,,,,,,,,,,,,,,,,,,,,,,,,,,,,,,,,,,,,,,,,,,,,,,,,,,,,,,,,,,,,,,,,,,,,,,,,,,,,,,,,,,,,,,,,,,,,,,,,,,,,,,,,,,,
,,66c759ddaa2a477714a13d63,2026-03-17_09h31.21.510,kallum_motion_pilot_GIST_update_2,2026.1.1,Win32,32.67973856,66c759ddaa2a477714a13d63,69b95efdef24cd8a694e89ee,69b9607f56cf3c448c9f3c52,0.04,0.04,0,32,32,112,1,fivesix,,,,,,,,,,,,,,,,,,,,,,,,,,,,,,,,,,,,,,,,,,,,,,,,,,,,,,,,,,,,,,,,,,,,,,,,,,,,,,,,,,,,,,,,,,,,,,,,,,,,,,,,,,,,,,,,,,,,,,,,,,,,,,,,,,,,,,,,,
,,66c759ddaa2a477714a13d63,2026-03-17_09h31.21.510,kallum_motion_pilot_GIST_update_2,2026.1.1,Win32,32.67973856,66c759ddaa2a477714a13d63,69b95efdef24cd8a694e89ee,69b9607f56cf3c448c9f3c52,0.0403,0.0403,0,33,33,59,1,twofour,,,,,,,,,,,,,,,,,,,,,,,,,,,,,,,,,,,,,,,,,,,,,,,,,,,,,,,,,,,,,,,,,,,,,,,,,,,,,,,,,,,,,,,,,,,,,,,,,,,,,,,,,,,,,,,,,,,,,,,,,,,,,,,,,,,,,,,,,
,,66c759ddaa2a477714a13d63,2026-03-17_09h31.21.510,kallum_motion_pilot_GIST_update_2,2026.1.1,Win32,32.67973856,66c759ddaa2a477714a13d63,69b95efdef24cd8a694e89ee,69b9607f56cf3c448c9f3c52,0.0405,0.0405,0,34,34,20,1,threeone,,,,,,,,,,,,,,,,,,,,,,,,,,,,,,,,,,,,,,,,,,,,,,,,,,,,,,,,,,,,,,,,,,,,,,,,,,,,,,,,,,,,,,,,,,,,,,,,,,,,,,,,,,,,,,,,,,,,,,,,,,,,,,,,,,,,,,,,,
,,66c759ddaa2a477714a13d63,2026-03-17_09h31.21.510,kallum_motion_pilot_GIST_update_2,2026.1.1,Win32,32.67973856,66c759ddaa2a477714a13d63,69b95efdef24cd8a694e89ee,69b9607f56cf3c448c9f3c52,0.0406,0.0406,0,35,35,139,1,sixeight,,,,,,,,,,,,,,,,,,,,,,,,,,,,,,,,,,,,,,,,,,,,,,,,,,,,,,,,,,,,,,,,,,,,,,,,,,,,,,,,,,,,,,,,,,,,,,,,,,,,,,,,,,,,,,,,,,,,,,,,,,,,,,,,,,,,,,,,,
,,66c759ddaa2a477714a13d63,2026-03-17_09h31.21.510,kallum_motion_pilot_GIST_update_2,2026.1.1,Win32,32.67973856,66c759ddaa2a477714a13d63,69b95efdef24cd8a694e89ee,69b9607f56cf3c448c9f3c52,0.0408,0.0408,0,36,36,121,1,fiveseven,,,,,,,,,,,,,,,,,,,,,,,,,,,,,,,,,,,,,,,,,,,,,,,,,,,,,,,,,,,,,,,,,,,,,,,,,,,,,,,,,,,,,,,,,,,,,,,,,,,,,,,,,,,,,,,,,,,,,,,,,,,,,,,,,,,,,,,,,
,,66c759ddaa2a477714a13d63,2026-03-17_09h31.21.510,kallum_motion_pilot_GIST_update_2,2026.1.1,Win32,32.67973856,66c759ddaa2a477714a13d63,69b95efdef24cd8a694e89ee,69b9607f56cf3c448c9f3c52,0.041,0.041,0,37,37,151,1,eightseven,,,,,,,,,,,,,,,,,,,,,,,,,,,,,,,,,,,,,,,,,,,,,,,,,,,,,,,,,,,,,,,,,,,,,,,,,,,,,,,,,,,,,,,,,,,,,,,,,,,,,,,,,,,,,,,,,,,,,,,,,,,,,,,,,,,,,,,,,
,,66c759ddaa2a477714a13d63,2026-03-17_09h31.21.510,kallum_motion_pilot_GIST_update_2,2026.1.1,Win32,32.67973856,66c759ddaa2a477714a13d63,69b95efdef24cd8a694e89ee,69b9607f56cf3c448c9f3c52,0.0412,0.0412,0,38,38,21,1,threefour,,,,,,,,,,,,,,,,,,,,,,,,,,,,,,,,,,,,,,,,,,,,,,,,,,,,,,,,,,,,,,,,,,,,,,,,,,,,,,,,,,,,,,,,,,,,,,,,,,,,,,,,,,,,,,,,,,,,,,,,,,,,,,,,,,,,,,,,,
,,66c759ddaa2a477714a13d63,2026-03-17_09h31.21.510,kallum_motion_pilot_GIST_update_2,2026.1.1,Win32,32.67973856,66c759ddaa2a477714a13d63,69b95efdef24cd8a694e89ee,69b9607f56cf3c448c9f3c52,0.0414,0.0414,0,39,39,157,1,seveneight,,,,,,,,,,,,,,,,,,,,,,,,,,,,,,,,,,,,,,,,,,,,,,,,,,,,,,,,,,,,,,,,,,,,,,,,,,,,,,,,,,,,,,,,,,,,,,,,,,,,,,,,,,,,,,,,,,,,,,,,,,,,,,,,,,,,,,,,,
,,66c759ddaa2a477714a13d63,2026-03-17_09h31.21.510,kallum_motion_pilot_GIST_update_2,2026.1.1,Win32,32.67973856,66c759ddaa2a477714a13d63,69b95efdef24cd8a694e89ee,69b9607f56cf3c448c9f3c52,0.0416,0.0416,0,40,40,37,1,threefour,,,,,,,,,,,,,,,,,,,,,,,,,,,,,,,,,,,,,,,,,,,,,,,,,,,,,,,,,,,,,,,,,,,,,,,,,,,,,,,,,,,,,,,,,,,,,,,,,,,,,,,,,,,,,,,,,,,,,,,,,,,,,,,,,,,,,,,,,
,,66c759ddaa2a477714a13d63,2026-03-17_09h31.21.510,kallum_motion_pilot_GIST_update_2,2026.1.1,Win32,32.67973856,66c759ddaa2a477714a13d63,69b95efdef24cd8a694e89ee,69b9607f56cf3c448c9f3c52,0.0418,0.0418,0,41,41,95,1,eightseven,,,,,,,,,,,,,,,,,,,,,,,,,,,,,,,,,,,,,,,,,,,,,,,,,,,,,,,,,,,,,,,,,,,,,,,,,,,,,,,,,,,,,,,,,,,,,,,,,,,,,,,,,,,,,,,,,,,,,,,,,,,,,,,,,,,,,,,,,
,,66c759ddaa2a477714a13d63,2026-03-17_09h31.21.510,kallum_motion_pilot_GIST_update_2,2026.1.1,Win32,32.67973856,66c759ddaa2a477714a13d63,69b95efdef24cd8a694e89ee,69b9607f56cf3c448c9f3c52,0.0419,0.042,0,42,42,11,1,twofour,,,,,,,,,,,,,,,,,,,,,,,,,,,,,,,,,,,,,,,,,,,,,,,,,,,,,,,,,,,,,,,,,,,,,,,,,,,,,,,,,,,,,,,,,,,,,,,,,,,,,,,,,,,,,,,,,,,,,,,,,,,,,,,,,,,,,,,,,
,,66c759ddaa2a477714a13d63,2026-03-17_09h31.21.510,kallum_motion_pilot_GIST_update_2,2026.1.1,Win32,32.67973856,66c759ddaa2a477714a13d63,69b95efdef24cd8a694e89ee,69b9607f56cf3c448c9f3c52,0.0421,0.0421,0,43,43,117,1,seveneight,,,,,,,,,,,,,,,,,,,,,,,,,,,,,,,,,,,,,,,,,,,,,,,,,,,,,,,,,,,,,,,,,,,,,,,,,,,,,,,,,,,,,,,,,,,,,,,,,,,,,,,,,,,,,,,,,,,,,,,,,,,,,,,,,,,,,,,,,
,,66c759ddaa2a477714a13d63,2026-03-17_09h31.21.510,kallum_motion_pilot_GIST_update_2,2026.1.1,Win32,32.67973856,66c759ddaa2a477714a13d63,69b95efdef24cd8a694e89ee,69b9607f56cf3c448c9f3c52,0.0423,0.0423,0,44,44,85,1,seveneight,,,,,,,,,,,,,,,,,,,,,,,,,,,,,,,,,,,,,,,,,,,,,,,,,,,,,,,,,,,,,,,,,,,,,,,,,,,,,,,,,,,,,,,,,,,,,,,,,,,,,,,,,,,,,,,,,,,,,,,,,,,,,,,,,,,,,,,,,
,,66c759ddaa2a477714a13d63,2026-03-17_09h31.21.510,kallum_motion_pilot_GIST_update_2,2026.1.1,Win32,32.67973856,66c759ddaa2a477714a13d63,69b95efdef24cd8a694e89ee,69b9607f56cf3c448c9f3c52,0.0425,0.0426,0,45,45,92,1,sevenfive,,,,,,,,,,,,,,,,,,,,,,,,,,,,,,,,,,,,,,,,,,,,,,,,,,,,,,,,,,,,,,,,,,,,,,,,,,,,,,,,,,,,,,,,,,,,,,,,,,,,,,,,,,,,,,,,,,,,,,,,,,,,,,,,,,,,,,,,,
,,66c759ddaa2a477714a13d63,2026-03-17_09h31.21.510,kallum_motion_pilot_GIST_update_2,2026.1.1,Win32,32.67973856,66c759ddaa2a477714a13d63,69b95efdef24cd8a694e89ee,69b9607f56cf3c448c9f3c52,0.0427,0.0427,0,46,46,65,1,onethree,,,,,,,,,,,,,,,,,,,,,,,,,,,,,,,,,,,,,,,,,,,,,,,,,,,,,,,,,,,,,,,,,,,,,,,,,,,,,,,,,,,,,,,,,,,,,,,,,,,,,,,,,,,,,,,,,,,,,,,,,,,,,,,,,,,,,,,,,
,,66c759ddaa2a477714a13d63,2026-03-17_09h31.21.510,kallum_motion_pilot_GIST_update_2,2026.1.1,Win32,32.67973856,66c759ddaa2a477714a13d63,69b95efdef24cd8a694e89ee,69b9607f56cf3c448c9f3c52,0.043,0.043,0,47,47,135,1,eightseven,,,,,,,,,,,,,,,,,,,,,,,,,,,,,,,,,,,,,,,,,,,,,,,,,,,,,,,,,,,,,,,,,,,,,,,,,,,,,,,,,,,,,,,,,,,,,,,,,,,,,,,,,,,,,,,,,,,,,,,,,,,,,,,,,,,,,,,,,
,,66c759ddaa2a477714a13d63,2026-03-17_09h31.21.510,kallum_motion_pilot_GIST_update_2,2026.1.1,Win32,32.67973856,66c759ddaa2a477714a13d63,69b95efdef24cd8a694e89ee,69b9607f56cf3c448c9f3c52,0.0431,0.0431,0,48,48,34,1,twoone,,,,,,,,,,,,,,,,,,,,,,,,,,,,,,,,,,,,,,,,,,,,,,,,,,,,,,,,,,,,,,,,,,,,,,,,,,,,,,,,,,,,,,,,,,,,,,,,,,,,,,,,,,,,,,,,,,,,,,,,,,,,,,,,,,,,,,,,,
,,66c759ddaa2a477714a13d63,2026-03-17_09h31.21.510,kallum_motion_pilot_GIST_update_2,2026.1.1,Win32,32.67973856,66c759ddaa2a477714a13d63,69b95efdef24cd8a694e89ee,69b9607f56cf3c448c9f3c52,0.0433,0.0433,0,49,49,75,1,twofour,,,,,,,,,,,,,,,,,,,,,,,,,,,,,,,,,,,,,,,,,,,,,,,,,,,,,,,,,,,,,,,,,,,,,,,,,,,,,,,,,,,,,,,,,,,,,,,,,,,,,,,,,,,,,,,,,,,,,,,,,,,,,,,,,,,,,,,,,
,,66c759ddaa2a477714a13d63,2026-03-17_09h31.21.510,kallum_motion_pilot_GIST_update_2,2026.1.1,Win32,32.67973856,66c759ddaa2a477714a13d63,69b95efdef24cd8a694e89ee,69b9607f56cf3c448c9f3c52,0.0435,0.0435,0,50,50,143,1,eightseven,,,,,,,,,,,,,,,,,,,,,,,,,,,,,,,,,,,,,,,,,,,,,,,,,,,,,,,,,,,,,,,,,,,,,,,,,,,,,,,,,,,,,,,,,,,,,,,,,,,,,,,,,,,,,,,,,,,,,,,,,,,,,,,,,,,,,,,,,
,,66c759ddaa2a477714a13d63,2026-03-17_09h31.21.510,kallum_motion_pilot_GIST_update_2,2026.1.1,Win32,32.67973856,66c759ddaa2a477714a13d63,69b95efdef24cd8a694e89ee,69b9607f56cf3c448c9f3c52,0.0436,0.0436,0,51,51,146,1,sixfive,,,,,,,,,,,,,,,,,,,,,,,,,,,,,,,,,,,,,,,,,,,,,,,,,,,,,,,,,,,,,,,,,,,,,,,,,,,,,,,,,,,,,,,,,,,,,,,,,,,,,,,,,,,,,,,,,,,,,,,,,,,,,,,,,,,,,,,,,
,,66c759ddaa2a477714a13d63,2026-03-17_09h31.21.510,kallum_motion_pilot_GIST_update_2,2026.1.1,Win32,32.67973856,66c759ddaa2a477714a13d63,69b95efdef24cd8a694e89ee,69b9607f56cf3c448c9f3c52,0.0438,0.0438,0,52,52,8,1,onetwo,,,,,,,,,,,,,,,,,,,,,,,,,,,,,,,,,,,,,,,,,,,,,,,,,,,,,,,,,,,,,,,,,,,,,,,,,,,,,,,,,,,,,,,,,,,,,,,,,,,,,,,,,,,,,,,,,,,,,,,,,,,,,,,,,,,,,,,,,
,,66c759ddaa2a477714a13d63,2026-03-17_09h31.21.510,kallum_motion_pilot_GIST_update_2,2026.1.1,Win32,32.67973856,66c759ddaa2a477714a13d63,69b95efdef24cd8a694e89ee,69b9607f56cf3c448c9f3c52,0.044,0.044,0,53,53,128,1,fivesix,,,,,,,,,,,,,,,,,,,,,,,,,,,,,,,,,,,,,,,,,,,,,,,,,,,,,,,,,,,,,,,,,,,,,,,,,,,,,,,,,,,,,,,,,,,,,,,,,,,,,,,,,,,,,,,,,,,,,,,,,,,,,,,,,,,,,,,,,
,,66c759ddaa2a477714a13d63,2026-03-17_09h31.21.510,kallum_motion_pilot_GIST_update_2,2026.1.1,Win32,32.67973856,66c759ddaa2a477714a13d63,69b95efdef24cd8a694e89ee,69b9607f56cf3c448c9f3c52,0.0442,0.0442,0,54,54,87,1,eightseven,,,,,,,,,,,,,,,,,,,,,,,,,,,,,,,,,,,,,,,,,,,,,,,,,,,,,,,,,,,,,,,,,,,,,,,,,,,,,,,,,,,,,,,,,,,,,,,,,,,,,,,,,,,,,,,,,,,,,,,,,,,,,,,,,,,,,,,,,
,,66c759ddaa2a477714a13d63,2026-03-17_09h31.21.510,kallum_motion_pilot_GIST_update_2,2026.1.1,Win32,32.67973856,66c759ddaa2a477714a13d63,69b95efdef24cd8a694e89ee,69b9607f56cf3c448c9f3c52,0.0444,0.0444,0,55,55,70,1,fourtwo,,,,,,,,,,,,,,,,,,,,,,,,,,,,,,,,,,,,,,,,,,,,,,,,,,,,,,,,,,,,,,,,,,,,,,,,,,,,,,,,,,,,,,,,,,,,,,,,,,,,,,,,,,,,,,,,,,,,,,,,,,,,,,,,,,,,,,,,,
,,66c759ddaa2a477714a13d63,2026-03-17_09h31.21.510,kallum_motion_pilot_GIST_update_2,2026.1.1,Win32,32.67973856,66c759ddaa2a477714a13d63,69b95efdef24cd8a694e89ee,69b9607f56cf3c448c9f3c52,0.0445,0.0445,0,56,56,51,1,twofour,,,,,,,,,,,,,,,,,,,,,,,,,,,,,,,,,,,,,,,,,,,,,,,,,,,,,,,,,,,,,,,,,,,,,,,,,,,,,,,,,,,,,,,,,,,,,,,,,,,,,,,,,,,,,,,,,,,,,,,,,,,,,,,,,,,,,,,,,
,,66c759ddaa2a477714a13d63,2026-03-17_09h31.21.510,kallum_motion_pilot_GIST_update_2,2026.1.1,Win32,32.67973856,66c759ddaa2a477714a13d63,69b95efdef24cd8a694e89ee,69b9607f56cf3c448c9f3c52,0.0447,0.0447,0,57,57,82,1,sixfive,,,,,,,,,,,,,,,,,,,,,,,,,,,,,,,,,,,,,,,,,,,,,,,,,,,,,,,,,,,,,,,,,,,,,,,,,,,,,,,,,,,,,,,,,,,,,,,,,,,,,,,,,,,,,,,,,,,,,,,,,,,,,,,,,,,,,,,,,
,,66c759ddaa2a477714a13d63,2026-03-17_09h31.21.510,kallum_motion_pilot_GIST_update_2,2026.1.1,Win32,32.67973856,66c759ddaa2a477714a13d63,69b95efdef24cd8a694e89ee,69b9607f56cf3c448c9f3c52,0.0449,0.0449,0,58,58,131,1,sixeight,,,,,,,,,,,,,,,,,,,,,,,,,,,,,,,,,,,,,,,,,,,,,,,,,,,,,,,,,,,,,,,,,,,,,,,,,,,,,,,,,,,,,,,,,,,,,,,,,,,,,,,,,,,,,,,,,,,,,,,,,,,,,,,,,,,,,,,,,
,,66c759ddaa2a477714a13d63,2026-03-17_09h31.21.510,kallum_motion_pilot_GIST_update_2,2026.1.1,Win32,32.67973856,66c759ddaa2a477714a13d63,69b95efdef24cd8a694e89ee,69b9607f56cf3c448c9f3c52,0.045,0.0451,0,59,59,44,1,threeone,,,,,,,,,,,,,,,,,,,,,,,,,,,,,,,,,,,,,,,,,,,,,,,,,,,,,,,,,,,,,,,,,,,,,,,,,,,,,,,,,,,,,,,,,,,,,,,,,,,,,,,,,,,,,,,,,,,,,,,,,,,,,,,,,,,,,,,,,
,,66c759ddaa2a477714a13d63,2026-03-17_09h31.21.510,kallum_motion_pilot_GIST_update_2,2026.1.1,Win32,32.67973856,66c759ddaa2a477714a13d63,69b95efdef24cd8a694e89ee,69b9607f56cf3c448c9f3c52,0.0452,0.0452,0,60,60,42,1,twoone,,,,,,,,,,,,,,,,,,,,,,,,,,,,,,,,,,,,,,,,,,,,,,,,,,,,,,,,,,,,,,,,,,,,,,,,,,,,,,,,,,,,,,,,,,,,,,,,,,,,,,,,,,,,,,,,,,,,,,,,,,,,,,,,,,,,,,,,,
,,66c759ddaa2a477714a13d63,2026-03-17_09h31.21.510,kallum_motion_pilot_GIST_update_2,2026.1.1,Win32,32.67973856,66c759ddaa2a477714a13d63,69b95efdef24cd8a694e89ee,69b9607f56cf3c448c9f3c52,0.0454,0.0454,0,61,61,63,1,fourthree,,,,,,,,,,,,,,,,,,,,,,,,,,,,,,,,,,,,,,,,,,,,,,,,,,,,,,,,,,,,,,,,,,,,,,,,,,,,,,,,,,,,,,,,,,,,,,,,,,,,,,,,,,,,,,,,,,,,,,,,,,,,,,,,,,,,,,,,,
,,66c759ddaa2a477714a13d63,2026-03-17_09h31.21.510,kallum_motion_pilot_GIST_update_2,2026.1.1,Win32,32.67973856,66c759ddaa2a477714a13d63,69b95efdef24cd8a694e89ee,69b9607f56cf3c448c9f3c52,0.0456,0.0456,0,62,62,0,1,onetwo,,,,,,,,,,,,,,,,,,,,,,,,,,,,,,,,,,,,,,,,,,,,,,,,,,,,,,,,,,,,,,,,,,,,,,,,,,,,,,,,,,,,,,,,,,,,,,,,,,,,,,,,,,,,,,,,,,,,,,,,,,,,,,,,,,,,,,,,,
,,66c759ddaa2a477714a13d63,2026-03-17_09h31.21.510,kallum_motion_pilot_GIST_update_2,2026.1.1,Win32,32.67973856,66c759ddaa2a477714a13d63,69b95efdef24cd8a694e89ee,69b9607f56cf3c448c9f3c52,0.0458,0.0459,0,63,63,32,1,onetwo,,,,,,,,,,,,,,,,,,,,,,,,,,,,,,,,,,,,,,,,,,,,,,,,,,,,,,,,,,,,,,,,,,,,,,,,,,,,,,,,,,,,,,,,,,,,,,,,,,,,,,,,,,,,,,,,,,,,,,,,,,,,,,,,,,,,,,,,,
,,66c759ddaa2a477714a13d63,2026-03-17_09h31.21.510,kallum_motion_pilot_GIST_update_2,2026.1.1,Win32,32.67973856,66c759ddaa2a477714a13d63,69b95efdef24cd8a694e89ee,69b9607f56cf3c448c9f3c52,0.0461,0.0461,0,64,64,148,1,sevenfive,,,,,,,,,,,,,,,,,,,,,,,,,,,,,,,,,,,,,,,,,,,,,,,,,,,,,,,,,,,,,,,,,,,,,,,,,,,,,,,,,,,,,,,,,,,,,,,,,,,,,,,,,,,,,,,,,,,,,,,,,,,,,,,,,,,,,,,,,
,,66c759ddaa2a477714a13d63,2026-03-17_09h31.21.510,kallum_motion_pilot_GIST_update_2,2026.1.1,Win32,32.67973856,66c759ddaa2a477714a13d63,69b95efdef24cd8a694e89ee,69b9607f56cf3c448c9f3c52,0.0464,0.0464,0,65,65,71,1,fourthree,,,,,,,,,,,,,,,,,,,,,,,,,,,,,,,,,,,,,,,,,,,,,,,,,,,,,,,,,,,,,,,,,,,,,,,,,,,,,,,,,,,,,,,,,,,,,,,,,,,,,,,,,,,,,,,,,,,,,,,,,,,,,,,,,,,,,,,,,
,,66c759ddaa2a477714a13d63,2026-03-17_09h31.21.510,kallum_motion_pilot_GIST_update_2,2026.1.1,Win32,32.67973856,66c759ddaa2a477714a13d63,69b95efdef24cd8a694e89ee,69b9607f56cf3c448c9f3c52,0.0466,0.0466,0,66,66,120,1,fivesix,,,,,,,,,,,,,,,,,,,,,,,,,,,,,,,,,,,,,,,,,,,,,,,,,,,,,,,,,,,,,,,,,,,,,,,,,,,,,,,,,,,,,,,,,,,,,,,,,,,,,,,,,,,,,,,,,,,,,,,,,,,,,,,,,,,,,,,,,
,,66c759ddaa2a477714a13d63,2026-03-17_09h31.21.510,kallum_motion_pilot_GIST_update_2,2026.1.1,Win32,32.67973856,66c759ddaa2a477714a13d63,69b95efdef24cd8a694e89ee,69b9607f56cf3c448c9f3c52,0.0469,0.0469,0,67,67,150,1,eightsix,,,,,,,,,,,,,,,,,,,,,,,,,,,,,,,,,,,,,,,,,,,,,,,,,,,,,,,,,,,,,,,,,,,,,,,,,,,,,,,,,,,,,,,,,,,,,,,,,,,,,,,,,,,,,,,,,,,,,,,,,,,,,,,,,,,,,,,,,
,,66c759ddaa2a477714a13d63,2026-03-17_09h31.21.510,kallum_motion_pilot_GIST_update_2,2026.1.1,Win32,32.67973856,66c759ddaa2a477714a13d63,69b95efdef24cd8a694e89ee,69b9607f56cf3c448c9f3c52,0.0472,0.0472,0,68,68,126,1,eightsix,,,,,,,,,,,,,,,,,,,,,,,,,,,,,,,,,,,,,,,,,,,,,,,,,,,,,,,,,,,,,,,,,,,,,,,,,,,,,,,,,,,,,,,,,,,,,,,,,,,,,,,,,,,,,,,,,,,,,,,,,,,,,,,,,,,,,,,,,
,,66c759ddaa2a477714a13d63,2026-03-17_09h31.21.510,kallum_motion_pilot_GIST_update_2,2026.1.1,Win32,32.67973856,66c759ddaa2a477714a13d63,69b95efdef24cd8a694e89ee,69b9607f56cf3c448c9f3c52,0.0474,0.0474,0,69,69,4,1,threeone,,,,,,,,,,,,,,,,,,,,,,,,,,,,,,,,,,,,,,,,,,,,,,,,,,,,,,,,,,,,,,,,,,,,,,,,,,,,,,,,,,,,,,,,,,,,,,,,,,,,,,,,,,,,,,,,,,,,,,,,,,,,,,,,,,,,,,,,,
,,66c759ddaa2a477714a13d63,2026-03-17_09h31.21.510,kallum_motion_pilot_GIST_update_2,2026.1.1,Win32,32.67973856,66c759ddaa2a477714a13d63,69b95efdef24cd8a694e89ee,69b9607f56cf3c448c9f3c52,0.0476,0.0476,0,70,70,125,1,seveneight,,,,,,,,,,,,,,,,,,,,,,,,,,,,,,,,,,,,,,,,,,,,,,,,,,,,,,,,,,,,,,,,,,,,,,,,,,,,,,,,,,,,,,,,,,,,,,,,,,,,,,,,,,,,,,,,,,,,,,,,,,,,,,,,,,,,,,,,,
,,66c759ddaa2a477714a13d63,2026-03-17_09h31.21.510,kallum_motion_pilot_GIST_update_2,2026.1.1,Win32,32.67973856,66c759ddaa2a477714a13d63,69b95efdef24cd8a694e89ee,69b9607f56cf3c448c9f3c52,0.0478,0.0478,0,71,71,13,1,threefour,,,,,,,,,,,,,,,,,,,,,,,,,,,,,,,,,,,,,,,,,,,,,,,,,,,,,,,,,,,,,,,,,,,,,,,,,,,,,,,,,,,,,,,,,,,,,,,,,,,,,,,,,,,,,,,,,,,,,,,,,,,,,,,,,,,,,,,,,
,,66c759ddaa2a477714a13d63,2026-03-17_09h31.21.510,kallum_motion_pilot_GIST_update_2,2026.1.1,Win32,32.67973856,66c759ddaa2a477714a13d63,69b95efdef24cd8a694e89ee,69b9607f56cf3c448c9f3c52,0.0479,0.0479,0,72,72,129,1,fiveseven,,,,,,,,,,,,,,,,,,,,,,,,,,,,,,,,,,,,,,,,,,,,,,,,,,,,,,,,,,,,,,,,,,,,,,,,,,,,,,,,,,,,,,,,,,,,,,,,,,,,,,,,,,,,,,,,,,,,,,,,,,,,,,,,,,,,,,,,,
,,66c759ddaa2a477714a13d63,2026-03-17_09h31.21.510,kallum_motion_pilot_GIST_update_2,2026.1.1,Win32,32.67973856,66c759ddaa2a477714a13d63,69b95efdef24cd8a694e89ee,69b9607f56cf3c448c9f3c52,0.0481,0.0481,0,73,73,78,1,fourtwo,,,,,,,,,,,,,,,,,,,,,,,,,,,,,,,,,,,,,,,,,,,,,,,,,,,,,,,,,,,,,,,,,,,,,,,,,,,,,,,,,,,,,,,,,,,,,,,,,,,,,,,,,,,,,,,,,,,,,,,,,,,,,,,,,,,,,,,,,
,,66c759ddaa2a477714a13d63,2026-03-17_09h31.21.510,kallum_motion_pilot_GIST_update_2,2026.1.1,Win32,32.67973856,66c759ddaa2a477714a13d63,69b95efdef24cd8a694e89ee,69b9607f56cf3c448c9f3c52,0.0483,0.0483,0,74,74,155,1,sixeight,,,,,,,,,,,,,,,,,,,,,,,,,,,,,,,,,,,,,,,,,,,,,,,,,,,,,,,,,,,,,,,,,,,,,,,,,,,,,,,,,,,,,,,,,,,,,,,,,,,,,,,,,,,,,,,,,,,,,,,,,,,,,,,,,,,,,,,,,
,,66c759ddaa2a477714a13d63,2026-03-17_09h31.21.510,kallum_motion_pilot_GIST_update_2,2026.1.1,Win32,32.67973856,66c759ddaa2a477714a13d63,69b95efdef24cd8a694e89ee,69b9607f56cf3c448c9f3c52,0.0485,0.0485,0,75,75,68,1,threeone,,,,,,,,,,,,,,,,,,,,,,,,,,,,,,,,,,,,,,,,,,,,,,,,,,,,,,,,,,,,,,,,,,,,,,,,,,,,,,,,,,,,,,,,,,,,,,,,,,,,,,,,,,,,,,,,,,,,,,,,,,,,,,,,,,,,,,,,,
,,66c759ddaa2a477714a13d63,2026-03-17_09h31.21.510,kallum_motion_pilot_GIST_update_2,2026.1.1,Win32,32.67973856,66c759ddaa2a477714a13d63,69b95efdef24cd8a694e89ee,69b9607f56cf3c448c9f3c52,0.0486,0.0486,0,76,76,24,1,onetwo,,,,,,,,,,,,,,,,,,,,,,,,,,,,,,,,,,,,,,,,,,,,,,,,,,,,,,,,,,,,,,,,,,,,,,,,,,,,,,,,,,,,,,,,,,,,,,,,,,,,,,,,,,,,,,,,,,,,,,,,,,,,,,,,,,,,,,,,,
,,66c759ddaa2a477714a13d63,2026-03-17_09h31.21.510,kallum_motion_pilot_GIST_update_2,2026.1.1,Win32,32.67973856,66c759ddaa2a477714a13d63,69b95efdef24cd8a694e89ee,69b9607f56cf3c448c9f3c52,0.0488,0.0488,0,77,77,15,1,fourthree,,,,,,,,,,,,,,,,,,,,,,,,,,,,,,,,,,,,,,,,,,,,,,,,,,,,,,,,,,,,,,,,,,,,,,,,,,,,,,,,,,,,,,,,,,,,,,,,,,,,,,,,,,,,,,,,,,,,,,,,,,,,,,,,,,,,,,,,,
,,66c759ddaa2a477714a13d63,2026-03-17_09h31.21.510,kallum_motion_pilot_GIST_update_2,2026.1.1,Win32,32.67973856,66c759ddaa2a477714a13d63,69b95efdef24cd8a694e89ee,69b9607f56cf3c448c9f3c52,0.049,0.049,0,78,78,147,1,sixeight,,,,,,,,,,,,,,,,,,,,,,,,,,,,,,,,,,,,,,,,,,,,,,,,,,,,,,,,,,,,,,,,,,,,,,,,,,,,,,,,,,,,,,,,,,,,,,,,,,,,,,,,,,,,,,,,,,,,,,,,,,,,,,,,,,,,,,,,,
,,66c759ddaa2a477714a13d63,2026-03-17_09h31.21.510,kallum_motion_pilot_GIST_update_2,2026.1.1,Win32,32.67973856,66c759ddaa2a477714a13d63,69b95efdef24cd8a694e89ee,69b9607f56cf3c448c9f3c52,0.0493,0.0493,0,79,79,88,1,fivesix,,,,,,,,,,,,,,,,,,,,,,,,,,,,,,,,,,,,,,,,,,,,,,,,,,,,,,,,,,,,,,,,,,,,,,,,,,,,,,,,,,,,,,,,,,,,,,,,,,,,,,,,,,,,,,,,,,,,,,,,,,,,,,,,,,,,,,,,,
,,66c759ddaa2a477714a13d63,2026-03-17_09h31.21.510,kallum_motion_pilot_GIST_update_2,2026.1.1,Win32,32.67973856,66c759ddaa2a477714a13d63,69b95efdef24cd8a694e89ee,69b9607f56cf3c448c9f3c52,0.0495,0.0495,0,80,80,132,1,sevenfive,,,,,,,,,,,,,,,,,,,,,,,,,,,,,,,,,,,,,,,,,,,,,,,,,,,,,,,,,,,,,,,,,,,,,,,,,,,,,,,,,,,,,,,,,,,,,,,,,,,,,,,,,,,,,,,,,,,,,,,,,,,,,,,,,,,,,,,,,
,,66c759ddaa2a477714a13d63,2026-03-17_09h31.21.510,kallum_motion_pilot_GIST_update_2,2026.1.1,Win32,32.67973856,66c759ddaa2a477714a13d63,69b95efdef24cd8a694e89ee,69b9607f56cf3c448c9f3c52,0.051,0.051,0,81,81,56,1,onetwo,,,,,,,,,,,,,,,,,,,,,,,,,,,,,,,,,,,,,,,,,,,,,,,,,,,,,,,,,,,,,,,,,,,,,,,,,,,,,,,,,,,,,,,,,,,,,,,,,,,,,,,,,,,,,,,,,,,,,,,,,,,,,,,,,,,,,,,,,
,,66c759ddaa2a477714a13d63,2026-03-17_09h31.21.510,kallum_motion_pilot_GIST_update_2,2026.1.1,Win32,32.67973856,66c759ddaa2a477714a13d63,69b95efdef24cd8a694e89ee,69b9607f56cf3c448c9f3c52,0.0513,0.0513,0,82,82,103,1,eightseven,,,,,,,,,,,,,,,,,,,,,,,,,,,,,,,,,,,,,,,,,,,,,,,,,,,,,,,,,,,,,,,,,,,,,,,,,,,,,,,,,,,,,,,,,,,,,,,,,,,,,,,,,,,,,,,,,,,,,,,,,,,,,,,,,,,,,,,,,
,,66c759ddaa2a477714a13d63,2026-03-17_09h31.21.510,kallum_motion_pilot_GIST_update_2,2026.1.1,Win32,32.67973856,66c759ddaa2a477714a13d63,69b95efdef24cd8a694e89ee,69b9607f56cf3c448c9f3c52,0.0515,0.0515,0,83,83,123,1,sixeight,,,,,,,,,,,,,,,,,,,,,,,,,,,,,,,,,,,,,,,,,,,,,,,,,,,,,,,,,,,,,,,,,,,,,,,,,,,,,,,,,,,,,,,,,,,,,,,,,,,,,,,,,,,,,,,,,,,,,,,,,,,,,,,,,,,,,,,,,
,,66c759ddaa2a477714a13d63,2026-03-17_09h31.21.510,kallum_motion_pilot_GIST_update_2,2026.1.1,Win32,32.67973856,66c759ddaa2a477714a13d63,69b95efdef24cd8a694e89ee,69b9607f56cf3c448c9f3c52,0.0517,0.0517,0,84,84,114,1,sixfive,,,,,,,,,,,,,,,,,,,,,,,,,,,,,,,,,,,,,,,,,,,,,,,,,,,,,,,,,,,,,,,,,,,,,,,,,,,,,,,,,,,,,,,,,,,,,,,,,,,,,,,,,,,,,,,,,,,,,,,,,,,,,,,,,,,,,,,,,
,,66c759ddaa2a477714a13d63,2026-03-17_09h31.21.510,kallum_motion_pilot_GIST_update_2,2026.1.1,Win32,32.67973856,66c759ddaa2a477714a13d63,69b95efdef24cd8a694e89ee,69b9607f56cf3c448c9f3c52,0.0519,0.0519,0,85,85,26,1,twoone,,,,,,,,,,,,,,,,,,,,,,,,,,,,,,,,,,,,,,,,,,,,,,,,,,,,,,,,,,,,,,,,,,,,,,,,,,,,,,,,,,,,,,,,,,,,,,,,,,,,,,,,,,,,,,,,,,,,,,,,,,,,,,,,,,,,,,,,,
,,66c759ddaa2a477714a13d63,2026-03-17_09h31.21.510,kallum_motion_pilot_GIST_update_2,2026.1.1,Win32,32.67973856,66c759ddaa2a477714a13d63,69b95efdef24cd8a694e89ee,69b9607f56cf3c448c9f3c52,0.0522,0.0522,0,86,86,60,1,threeone,,,,,,,,,,,,,,,,,,,,,,,,,,,,,,,,,,,,,,,,,,,,,,,,,,,,,,,,,,,,,,,,,,,,,,,,,,,,,,,,,,,,,,,,,,,,,,,,,,,,,,,,,,,,,,,,,,,,,,,,,,,,,,,,,,,,,,,,,
,,66c759ddaa2a477714a13d63,2026-03-17_09h31.21.510,kallum_motion_pilot_GIST_update_2,2026.1.1,Win32,32.67973856,66c759ddaa2a477714a13d63,69b95efdef24cd8a694e89ee,69b9607f56cf3c448c9f3c52,0.0523,0.0523,0,87,87,73,1,onethree,,,,,,,,,,,,,,,,,,,,,,,,,,,,,,,,,,,,,,,,,,,,,,,,,,,,,,,,,,,,,,,,,,,,,,,,,,,,,,,,,,,,,,,,,,,,,,,,,,,,,,,,,,,,,,,,,,,,,,,,,,,,,,,,,,,,,,,,,
,,66c759ddaa2a477714a13d63,2026-03-17_09h31.21.510,kallum_motion_pilot_GIST_update_2,2026.1.1,Win32,32.67973856,66c759ddaa2a477714a13d63,69b95efdef24cd8a694e89ee,69b9607f56cf3c448c9f3c52,0.0525,0.0525,0,88,88,160,1,fivesix,,,,,,,,,,,,,,,,,,,,,,,,,,,,,,,,,,,,,,,,,,,,,,,,,,,,,,,,,,,,,,,,,,,,,,,,,,,,,,,,,,,,,,,,,,,,,,,,,,,,,,,,,,,,,,,,,,,,,,,,,,,,,,,,,,,,,,,,,
,,66c759ddaa2a477714a13d63,2026-03-17_09h31.21.510,kallum_motion_pilot_GIST_update_2,2026.1.1,Win32,32.67973856,66c759ddaa2a477714a13d63,69b95efdef24cd8a694e89ee,69b9607f56cf3c448c9f3c52,0.0527,0.0527,0,89,89,45,1,threefour,,,,,,,,,,,,,,,,,,,,,,,,,,,,,,,,,,,,,,,,,,,,,,,,,,,,,,,,,,,,,,,,,,,,,,,,,,,,,,,,,,,,,,,,,,,,,,,,,,,,,,,,,,,,,,,,,,,,,,,,,,,,,,,,,,,,,,,,,
,,66c759ddaa2a477714a13d63,2026-03-17_09h31.21.510,kallum_motion_pilot_GIST_update_2,2026.1.1,Win32,32.67973856,66c759ddaa2a477714a13d63,69b95efdef24cd8a694e89ee,69b9607f56cf3c448c9f3c52,0.0528,0.0529,0,90,90,86,1,eightsix,,,,,,,,,,,,,,,,,,,,,,,,,,,,,,,,,,,,,,,,,,,,,,,,,,,,,,,,,,,,,,,,,,,,,,,,,,,,,,,,,,,,,,,,,,,,,,,,,,,,,,,,,,,,,,,,,,,,,,,,,,,,,,,,,,,,,,,,,
,,66c759ddaa2a477714a13d63,2026-03-17_09h31.21.510,kallum_motion_pilot_GIST_update_2,2026.1.1,Win32,32.67973856,66c759ddaa2a477714a13d63,69b95efdef24cd8a694e89ee,69b9607f56cf3c448c9f3c52,0.0531,0.0531,0,91,91,106,1,sixfive,,,,,,,,,,,,,,,,,,,,,,,,,,,,,,,,,,,,,,,,,,,,,,,,,,,,,,,,,,,,,,,,,,,,,,,,,,,,,,,,,,,,,,,,,,,,,,,,,,,,,,,,,,,,,,,,,,,,,,,,,,,,,,,,,,,,,,,,,
,,66c759ddaa2a477714a13d63,2026-03-17_09h31.21.510,kallum_motion_pilot_GIST_update_2,2026.1.1,Win32,32.67973856,66c759ddaa2a477714a13d63,69b95efdef24cd8a694e89ee,69b9607f56cf3c448c9f3c52,0.0533,0.0533,0,92,92,3,1,twofour,,,,,,,,,,,,,,,,,,,,,,,,,,,,,,,,,,,,,,,,,,,,,,,,,,,,,,,,,,,,,,,,,,,,,,,,,,,,,,,,,,,,,,,,,,,,,,,,,,,,,,,,,,,,,,,,,,,,,,,,,,,,,,,,,,,,,,,,,
,,66c759ddaa2a477714a13d63,2026-03-17_09h31.21.510,kallum_motion_pilot_GIST_update_2,2026.1.1,Win32,32.67973856,66c759ddaa2a477714a13d63,69b95efdef24cd8a694e89ee,69b9607f56cf3c448c9f3c52,0.0535,0.0535,0,93,93,93,1,seveneight,,,,,,,,,,,,,,,,,,,,,,,,,,,,,,,,,,,,,,,,,,,,,,,,,,,,,,,,,,,,,,,,,,,,,,,,,,,,,,,,,,,,,,,,,,,,,,,,,,,,,,,,,,,,,,,,,,,,,,,,,,,,,,,,,,,,,,,,,
,,66c759ddaa2a477714a13d63,2026-03-17_09h31.21.510,kallum_motion_pilot_GIST_update_2,2026.1.1,Win32,32.67973856,66c759ddaa2a477714a13d63,69b95efdef24cd8a694e89ee,69b9607f56cf3c448c9f3c52,0.0536,0.0536,0,94,94,17,1,onethree,,,,,,,,,,,,,,,,,,,,,,,,,,,,,,,,,,,,,,,,,,,,,,,,,,,,,,,,,,,,,,,,,,,,,,,,,,,,,,,,,,,,,,,,,,,,,,,,,,,,,,,,,,,,,,,,,,,,,,,,,,,,,,,,,,,,,,,,,
,,66c759ddaa2a477714a13d63,2026-03-17_09h31.21.510,kallum_motion_pilot_GIST_update_2,2026.1.1,Win32,32.67973856,66c759ddaa2a477714a13d63,69b95efdef24cd8a694e89ee,69b9607f56cf3c448c9f3c52,0.0538,0.0539,0,95,95,80,1,fivesix,,,,,,,,,,,,,,,,,,,,,,,,,,,,,,,,,,,,,,,,,,,,,,,,,,,,,,,,,,,,,,,,,,,,,,,,,,,,,,,,,,,,,,,,,,,,,,,,,,,,,,,,,,,,,,,,,,,,,,,,,,,,,,,,,,,,,,,,,
,,66c759ddaa2a477714a13d63,2026-03-17_09h31.21.510,kallum_motion_pilot_GIST_update_2,2026.1.1,Win32,32.67973856,66c759ddaa2a477714a13d63,69b95efdef24cd8a694e89ee,69b9607f56cf3c448c9f3c52,0.0541,0.0541,0,96,96,102,1,eightsix,,,,,,,,,,,,,,,,,,,,,,,,,,,,,,,,,,,,,,,,,,,,,,,,,,,,,,,,,,,,,,,,,,,,,,,,,,,,,,,,,,,,,,,,,,,,,,,,,,,,,,,,,,,,,,,,,,,,,,,,,,,,,,,,,,,,,,,,,
,,66c759ddaa2a477714a13d63,2026-03-17_09h31.21.510,kallum_motion_pilot_GIST_update_2,2026.1.1,Win32,32.67973856,66c759ddaa2a477714a13d63,69b95efdef24cd8a694e89ee,69b9607f56cf3c448c9f3c52,0.0543,0.0543,0,97,97,16,1,onetwo,,,,,,,,,,,,,,,,,,,,,,,,,,,,,,,,,,,,,,,,,,,,,,,,,,,,,,,,,,,,,,,,,,,,,,,,,,,,,,,,,,,,,,,,,,,,,,,,,,,,,,,,,,,,,,,,,,,,,,,,,,,,,,,,,,,,,,,,,
,,66c759ddaa2a477714a13d63,2026-03-17_09h31.21.510,kallum_motion_pilot_GIST_update_2,2026.1.1,Win32,32.67973856,66c759ddaa2a477714a13d63,69b95efdef24cd8a694e89ee,69b9607f56cf3c448c9f3c52,0.0545,0.0545,0,98,98,83,1,sixeight,,,,,,,,,,,,,,,,,,,,,,,,,,,,,,,,,,,,,,,,,,,,,,,,,,,,,,,,,,,,,,,,,,,,,,,,,,,,,,,,,,,,,,,,,,,,,,,,,,,,,,,,,,,,,,,,,,,,,,,,,,,,,,,,,,,,,,,,,
,,66c759ddaa2a477714a13d63,2026-03-17_09h31.21.510,kallum_motion_pilot_GIST_update_2,2026.1.1,Win32,32.67973856,66c759ddaa2a477714a13d63,69b95efdef24cd8a694e89ee,69b9607f56cf3c448c9f3c52,0.0547,0.0547,0,99,99,50,1,twoone,,,,,,,,,,,,,,,,,,,,,,,,,,,,,,,,,,,,,,,,,,,,,,,,,,,,,,,,,,,,,,,,,,,,,,,,,,,,,,,,,,,,,,,,,,,,,,,,,,,,,,,,,,,,,,,,,,,,,,,,,,,,,,,,,,,,,,,,,
,,66c759ddaa2a477714a13d63,2026-03-17_09h31.21.510,kallum_motion_pilot_GIST_update_2,2026.1.1,Win32,32.67973856,66c759ddaa2a477714a13d63,69b95efdef24cd8a694e89ee,69b9607f56cf3c448c9f3c52,0.0549,0.0549,0,100,100,41,1,onethree,,,,,,,,,,,,,,,,,,,,,,,,,,,,,,,,,,,,,,,,,,,,,,,,,,,,,,,,,,,,,,,,,,,,,,,,,,,,,,,,,,,,,,,,,,,,,,,,,,,,,,,,,,,,,,,,,,,,,,,,,,,,,,,,,,,,,,,,,
,,66c759ddaa2a477714a13d63,2026-03-17_09h31.21.510,kallum_motion_pilot_GIST_update_2,2026.1.1,Win32,32.67973856,66c759ddaa2a477714a13d63,69b95efdef24cd8a694e89ee,69b9607f56cf3c448c9f3c52,0.0551,0.0551,0,101,101,38,1,fourtwo,,,,,,,,,,,,,,,,,,,,,,,,,,,,,,,,,,,,,,,,,,,,,,,,,,,,,,,,,,,,,,,,,,,,,,,,,,,,,,,,,,,,,,,,,,,,,,,,,,,,,,,,,,,,,,,,,,,,,,,,,,,,,,,,,,,,,,,,,
,,66c759ddaa2a477714a13d63,2026-03-17_09h31.21.510,kallum_motion_pilot_GIST_update_2,2026.1.1,Win32,32.67973856,66c759ddaa2a477714a13d63,69b95efdef24cd8a694e89ee,69b9607f56cf3c448c9f3c52,0.0552,0.0552,0,102,102,152,1,fivesix,,,,,,,,,,,,,,,,,,,,,,,,,,,,,,,,,,,,,,,,,,,,,,,,,,,,,,,,,,,,,,,,,,,,,,,,,,,,,,,,,,,,,,,,,,,,,,,,,,,,,,,,,,,,,,,,,,,,,,,,,,,,,,,,,,,,,,,,,
,,66c759ddaa2a477714a13d63,2026-03-17_09h31.21.510,kallum_motion_pilot_GIST_update_2,2026.1.1,Win32,32.67973856,66c759ddaa2a477714a13d63,69b95efdef24cd8a694e89ee,69b9607f56cf3c448c9f3c52,0.0554,0.0554,0,103,103,161,1,fiveseven,,,,,,,,,,,,,,,,,,,,,,,,,,,,,,,,,,,,,,,,,,,,,,,,,,,,,,,,,,,,,,,,,,,,,,,,,,,,,,,,,,,,,,,,,,,,,,,,,,,,,,,,,,,,,,,,,,,,,,,,,,,,,,,,,,,,,,,,,
,,66c759ddaa2a477714a13d63,2026-03-17_09h31.21.510,kallum_motion_pilot_GIST_update_2,2026.1.1,Win32,32.67973856,66c759ddaa2a477714a13d63,69b95efdef24cd8a694e89ee,69b9607f56cf3c448c9f3c52,0.0556,0.0557,0,104,104,124,1,sevenfive,,,,,,,,,,,,,,,,,,,,,,,,,,,,,,,,,,,,,,,,,,,,,,,,,,,,,,,,,,,,,,,,,,,,,,,,,,,,,,,,,,,,,,,,,,,,,,,,,,,,,,,,,,,,,,,,,,,,,,,,,,,,,,,,,,,,,,,,,
,,66c759ddaa2a477714a13d63,2026-03-17_09h31.21.510,kallum_motion_pilot_GIST_update_2,2026.1.1,Win32,32.67973856,66c759ddaa2a477714a13d63,69b95efdef24cd8a694e89ee,69b9607f56cf3c448c9f3c52,0.0559,0.0559,0,105,105,19,1,twofour,,,,,,,,,,,,,,,,,,,,,,,,,,,,,,,,,,,,,,,,,,,,,,,,,,,,,,,,,,,,,,,,,,,,,,,,,,,,,,,,,,,,,,,,,,,,,,,,,,,,,,,,,,,,,,,,,,,,,,,,,,,,,,,,,,,,,,,,,
,,66c759ddaa2a477714a13d63,2026-03-17_09h31.21.510,kallum_motion_pilot_GIST_update_2,2026.1.1,Win32,32.67973856,66c759ddaa2a477714a13d63,69b95efdef24cd8a694e89ee,69b9607f56cf3c448c9f3c52,0.0561,0.0561,0,106,106,30,1,fourtwo,,,,,,,,,,,,,,,,,,,,,,,,,,,,,,,,,,,,,,,,,,,,,,,,,,,,,,,,,,,,,,,,,,,,,,,,,,,,,,,,,,,,,,,,,,,,,,,,,,,,,,,,,,,,,,,,,,,,,,,,,,,,,,,,,,,,,,,,,
,,66c759ddaa2a477714a13d63,2026-03-17_09h31.21.510,kallum_motion_pilot_GIST_update_2,2026.1.1,Win32,32.67973856,66c759ddaa2a477714a13d63,69b95efdef24cd8a694e89ee,69b9607f56cf3c448c9f3c52,0.0563,0.0563,0,107,107,7,1,fourthree,,,,,,,,,,,,,,,,,,,,,,,,,,,,,,,,,,,,,,,,,,,,,,,,,,,,,,,,,,,,,,,,,,,,,,,,,,,,,,,,,,,,,,,,,,,,,,,,,,,,,,,,,,,,,,,,,,,,,,,,,,,,,,,,,,,,,,,,,
,,66c759ddaa2a477714a13d63,2026-03-17_09h31.21.510,kallum_motion_pilot_GIST_update_2,2026.1.1,Win32,32.67973856,66c759ddaa2a477714a13d63,69b95efdef24cd8a694e89ee,69b9607f56cf3c448c9f3c52,0.0566,0.0567,0,108,108,52,1,threeone,,,,,,,,,,,,,,,,,,,,,,,,,,,,,,,,,,,,,,,,,,,,,,,,,,,,,,,,,,,,,,,,,,,,,,,,,,,,,,,,,,,,,,,,,,,,,,,,,,,,,,,,,,,,,,,,,,,,,,,,,,,,,,,,,,,,,,,,,
,,66c759ddaa2a477714a13d63,2026-03-17_09h31.21.510,kallum_motion_pilot_GIST_update_2,2026.1.1,Win32,32.67973856,66c759ddaa2a477714a13d63,69b95efdef24cd8a694e89ee,69b9607f56cf3c448c9f3c52,0.0569,0.0569,0,109,109,12,1,threeone,,,,,,,,,,,,,,,,,,,,,,,,,,,,,,,,,,,,,,,,,,,,,,,,,,,,,,,,,,,,,,,,,,,,,,,,,,,,,,,,,,,,,,,,,,,,,,,,,,,,,,,,,,,,,,,,,,,,,,,,,,,,,,,,,,,,,,,,,
,,66c759ddaa2a477714a13d63,2026-03-17_09h31.21.510,kallum_motion_pilot_GIST_update_2,2026.1.1,Win32,32.67973856,66c759ddaa2a477714a13d63,69b95efdef24cd8a694e89ee,69b9607f56cf3c448c9f3c52,0.0572,0.0572,0,110,110,101,1,seveneight,,,,,,,,,,,,,,,,,,,,,,,,,,,,,,,,,,,,,,,,,,,,,,,,,,,,,,,,,,,,,,,,,,,,,,,,,,,,,,,,,,,,,,,,,,,,,,,,,,,,,,,,,,,,,,,,,,,,,,,,,,,,,,,,,,,,,,,,,
,,66c759ddaa2a477714a13d63,2026-03-17_09h31.21.510,kallum_motion_pilot_GIST_update_2,2026.1.1,Win32,32.67973856,66c759ddaa2a477714a13d63,69b95efdef24cd8a694e89ee,69b9607f56cf3c448c9f3c52,0.0574,0.0574,0,111,111,94,1,eightsix,,,,,,,,,,,,,,,,,,,,,,,,,,,,,,,,,,,,,,,,,,,,,,,,,,,,,,,,,,,,,,,,,,,,,,,,,,,,,,,,,,,,,,,,,,,,,,,,,,,,,,,,,,,,,,,,,,,,,,,,,,,,,,,,,,,,,,,,,
,,66c759ddaa2a477714a13d63,2026-03-17_09h31.21.510,kallum_motion_pilot_GIST_update_2,2026.1.1,Win32,32.67973856,66c759ddaa2a477714a13d63,69b95efdef24cd8a694e89ee,69b9607f56cf3c448c9f3c52,0.0575,0.0576,0,112,112,127,1,eightseven,,,,,,,,,,,,,,,,,,,,,,,,,,,,,,,,,,,,,,,,,,,,,,,,,,,,,,,,,,,,,,,,,,,,,,,,,,,,,,,,,,,,,,,,,,,,,,,,,,,,,,,,,,,,,,,,,,,,,,,,,,,,,,,,,,,,,,,,,
,,66c759ddaa2a477714a13d63,2026-03-17_09h31.21.510,kallum_motion_pilot_GIST_update_2,2026.1.1,Win32,32.67973856,66c759ddaa2a477714a13d63,69b95efdef24cd8a694e89ee,69b9607f56cf3c448c9f3c52,0.0578,0.0578,0,113,113,107,1,sixeight,,,,,,,,,,,,,,,,,,,,,,,,,,,,,,,,,,,,,,,,,,,,,,,,,,,,,,,,,,,,,,,,,,,,,,,,,,,,,,,,,,,,,,,,,,,,,,,,,,,,,,,,,,,,,,,,,,,,,,,,,,,,,,,,,,,,,,,,,
,,66c759ddaa2a477714a13d63,2026-03-17_09h31.21.510,kallum_motion_pilot_GIST_update_2,2026.1.1,Win32,32.67973856,66c759ddaa2a477714a13d63,69b95efdef24cd8a694e89ee,69b9607f56cf3c448c9f3c52,0.0579,0.0579,0,114,114,54,1,fourtwo,,,,,,,,,,,,,,,,,,,,,,,,,,,,,,,,,,,,,,,,,,,,,,,,,,,,,,,,,,,,,,,,,,,,,,,,,,,,,,,,,,,,,,,,,,,,,,,,,,,,,,,,,,,,,,,,,,,,,,,,,,,,,,,,,,,,,,,,,
,,66c759ddaa2a477714a13d63,2026-03-17_09h31.21.510,kallum_motion_pilot_GIST_update_2,2026.1.1,Win32,32.67973856,66c759ddaa2a477714a13d63,69b95efdef24cd8a694e89ee,69b9607f56cf3c448c9f3c52,0.0581,0.0581,0,115,115,118,1,eightsix,,,,,,,,,,,,,,,,,,,,,,,,,,,,,,,,,,,,,,,,,,,,,,,,,,,,,,,,,,,,,,,,,,,,,,,,,,,,,,,,,,,,,,,,,,,,,,,,,,,,,,,,,,,,,,,,,,,,,,,,,,,,,,,,,,,,,,,,,
,,66c759ddaa2a477714a13d63,2026-03-17_09h31.21.510,kallum_motion_pilot_GIST_update_2,2026.1.1,Win32,32.67973856,66c759ddaa2a477714a13d63,69b95efdef24cd8a694e89ee,69b9607f56cf3c448c9f3c52,0.0585,0.0585,0,116,116,2,1,twoone,,,,,,,,,,,,,,,,,,,,,,,,,,,,,,,,,,,,,,,,,,,,,,,,,,,,,,,,,,,,,,,,,,,,,,,,,,,,,,,,,,,,,,,,,,,,,,,,,,,,,,,,,,,,,,,,,,,,,,,,,,,,,,,,,,,,,,,,,
,,66c759ddaa2a477714a13d63,2026-03-17_09h31.21.510,kallum_motion_pilot_GIST_update_2,2026.1.1,Win32,32.67973856,66c759ddaa2a477714a13d63,69b95efdef24cd8a694e89ee,69b9607f56cf3c448c9f3c52,0.0587,0.0587,0,117,117,74,1,twoone,,,,,,,,,,,,,,,,,,,,,,,,,,,,,,,,,,,,,,,,,,,,,,,,,,,,,,,,,,,,,,,,,,,,,,,,,,,,,,,,,,,,,,,,,,,,,,,,,,,,,,,,,,,,,,,,,,,,,,,,,,,,,,,,,,,,,,,,,
,,66c759ddaa2a477714a13d63,2026-03-17_09h31.21.510,kallum_motion_pilot_GIST_update_2,2026.1.1,Win32,32.67973856,66c759ddaa2a477714a13d63,69b95efdef24cd8a694e89ee,69b9607f56cf3c448c9f3c52,0.0589,0.0589,0,118,118,23,1,fourthree,,,,,,,,,,,,,,,,,,,,,,,,,,,,,,,,,,,,,,,,,,,,,,,,,,,,,,,,,,,,,,,,,,,,,,,,,,,,,,,,,,,,,,,,,,,,,,,,,,,,,,,,,,,,,,,,,,,,,,,,,,,,,,,,,,,,,,,,,
,,66c759ddaa2a477714a13d63,2026-03-17_09h31.21.510,kallum_motion_pilot_GIST_update_2,2026.1.1,Win32,32.67973856,66c759ddaa2a477714a13d63,69b95efdef24cd8a694e89ee,69b9607f56cf3c448c9f3c52,0.0591,0.0591,0,119,119,81,1,fiveseven,,,,,,,,,,,,,,,,,,,,,,,,,,,,,,,,,,,,,,,,,,,,,,,,,,,,,,,,,,,,,,,,,,,,,,,,,,,,,,,,,,,,,,,,,,,,,,,,,,,,,,,,,,,,,,,,,,,,,,,,,,,,,,,,,,,,,,,,,
,,66c759ddaa2a477714a13d63,2026-03-17_09h31.21.510,kallum_motion_pilot_GIST_update_2,2026.1.1,Win32,32.67973856,66c759ddaa2a477714a13d63,69b95efdef24cd8a694e89ee,69b9607f56cf3c448c9f3c52,0.0593,0.0593,0,120,120,28,1,threeone,,,,,,,,,,,,,,,,,,,,,,,,,,,,,,,,,,,,,,,,,,,,,,,,,,,,,,,,,,,,,,,,,,,,,,,,,,,,,,,,,,,,,,,,,,,,,,,,,,,,,,,,,,,,,,,,,,,,,,,,,,,,,,,,,,,,,,,,,
,,66c759ddaa2a477714a13d63,2026-03-17_09h31.21.510,kallum_motion_pilot_GIST_update_2,2026.1.1,Win32,32.67973856,66c759ddaa2a477714a13d63,69b95efdef24cd8a694e89ee,69b9607f56cf3c448c9f3c52,0.0596,0.0596,0,121,121,156,1,sevenfive,,,,,,,,,,,,,,,,,,,,,,,,,,,,,,,,,,,,,,,,,,,,,,,,,,,,,,,,,,,,,,,,,,,,,,,,,,,,,,,,,,,,,,,,,,,,,,,,,,,,,,,,,,,,,,,,,,,,,,,,,,,,,,,,,,,,,,,,,
,,66c759ddaa2a477714a13d63,2026-03-17_09h31.21.510,kallum_motion_pilot_GIST_update_2,2026.1.1,Win32,32.67973856,66c759ddaa2a477714a13d63,69b95efdef24cd8a694e89ee,69b9607f56cf3c448c9f3c52,0.0599,0.0599,0,122,122,115,1,sixeight,,,,,,,,,,,,,,,,,,,,,,,,,,,,,,,,,,,,,,,,,,,,,,,,,,,,,,,,,,,,,,,,,,,,,,,,,,,,,,,,,,,,,,,,,,,,,,,,,,,,,,,,,,,,,,,,,,,,,,,,,,,,,,,,,,,,,,,,,
,,66c759ddaa2a477714a13d63,2026-03-17_09h31.21.510,kallum_motion_pilot_GIST_update_2,2026.1.1,Win32,32.67973856,66c759ddaa2a477714a13d63,69b95efdef24cd8a694e89ee,69b9607f56cf3c448c9f3c52,0.0601,0.0601,0,123,123,40,1,onetwo,,,,,,,,,,,,,,,,,,,,,,,,,,,,,,,,,,,,,,,,,,,,,,,,,,,,,,,,,,,,,,,,,,,,,,,,,,,,,,,,,,,,,,,,,,,,,,,,,,,,,,,,,,,,,,,,,,,,,,,,,,,,,,,,,,,,,,,,,
,,66c759ddaa2a477714a13d63,2026-03-17_09h31.21.510,kallum_motion_pilot_GIST_update_2,2026.1.1,Win32,32.67973856,66c759ddaa2a477714a13d63,69b95efdef24cd8a694e89ee,69b9607f56cf3c448c9f3c52,0.0604,0.0604,0,124,124,64,1,onetwo,,,,,,,,,,,,,,,,,,,,,,,,,,,,,,,,,,,,,,,,,,,,,,,,,,,,,,,,,,,,,,,,,,,,,,,,,,,,,,,,,,,,,,,,,,,,,,,,,,,,,,,,,,,,,,,,,,,,,,,,,,,,,,,,,,,,,,,,,
,,66c759ddaa2a477714a13d63,2026-03-17_09h31.21.510,kallum_motion_pilot_GIST_update_2,2026.1.1,Win32,32.67973856,66c759ddaa2a477714a13d63,69b95efdef24cd8a694e89ee,69b9607f56cf3c448c9f3c52,0.0605,0.0605,0,125,125,136,1,fivesix,,,,,,,,,,,,,,,,,,,,,,,,,,,,,,,,,,,,,,,,,,,,,,,,,,,,,,,,,,,,,,,,,,,,,,,,,,,,,,,,,,,,,,,,,,,,,,,,,,,,,,,,,,,,,,,,,,,,,,,,,,,,,,,,,,,,,,,,,
,,66c759ddaa2a477714a13d63,2026-03-17_09h31.21.510,kallum_motion_pilot_GIST_update_2,2026.1.1,Win32,32.67973856,66c759ddaa2a477714a13d63,69b95efdef24cd8a694e89ee,69b9607f56cf3c448c9f3c52,0.0608,0.0608,0,126,126,100,1,sevenfive,,,,,,,,,,,,,,,,,,,,,,,,,,,,,,,,,,,,,,,,,,,,,,,,,,,,,,,,,,,,,,,,,,,,,,,,,,,,,,,,,,,,,,,,,,,,,,,,,,,,,,,,,,,,,,,,,,,,,,,,,,,,,,,,,,,,,,,,,
,,66c759ddaa2a477714a13d63,2026-03-17_09h31.21.510,kallum_motion_pilot_GIST_update_2,2026.1.1,Win32,32.67973856,66c759ddaa2a477714a13d63,69b95efdef24cd8a694e89ee,69b9607f56cf3c448c9f3c52,0.0612,0.0612,0,127,127,36,1,threeone,,,,,,,,,,,,,,,,,,,,,,,,,,,,,,,,,,,,,,,,,,,,,,,,,,,,,,,,,,,,,,,,,,,,,,,,,,,,,,,,,,,,,,,,,,,,,,,,,,,,,,,,,,,,,,,,,,,,,,,,,,,,,,,,,,,,,,,,,
,,66c759ddaa2a477714a13d63,2026-03-17_09h31.21.510,kallum_motion_pilot_GIST_update_2,2026.1.1,Win32,32.67973856,66c759ddaa2a477714a13d63,69b95efdef24cd8a694e89ee,69b9607f56cf3c448c9f3c52,0.0614,0.0614,0,128,128,153,1,fiveseven,,,,,,,,,,,,,,,,,,,,,,,,,,,,,,,,,,,,,,,,,,,,,,,,,,,,,,,,,,,,,,,,,,,,,,,,,,,,,,,,,,,,,,,,,,,,,,,,,,,,,,,,,,,,,,,,,,,,,,,,,,,,,,,,,,,,,,,,,
,,66c759ddaa2a477714a13d63,2026-03-17_09h31.21.510,kallum_motion_pilot_GIST_update_2,2026.1.1,Win32,32.67973856,66c759ddaa2a477714a13d63,69b95efdef24cd8a694e89ee,69b9607f56cf3c448c9f3c52,0.0615,0.0615,0,129,129,49,1,onethree,,,,,,,,,,,,,,,,,,,,,,,,,,,,,,,,,,,,,,,,,,,,,,,,,,,,,,,,,,,,,,,,,,,,,,,,,,,,,,,,,,,,,,,,,,,,,,,,,,,,,,,,,,,,,,,,,,,,,,,,,,,,,,,,,,,,,,,,,
,,66c759ddaa2a477714a13d63,2026-03-17_09h31.21.510,kallum_motion_pilot_GIST_update_2,2026.1.1,Win32,32.67973856,66c759ddaa2a477714a13d63,69b95efdef24cd8a694e89ee,69b9607f56cf3c448c9f3c52,0.0618,0.0618,0,130,130,159,1,eightseven,,,,,,,,,,,,,,,,,,,,,,,,,,,,,,,,,,,,,,,,,,,,,,,,,,,,,,,,,,,,,,,,,,,,,,,,,,,,,,,,,,,,,,,,,,,,,,,,,,,,,,,,,,,,,,,,,,,,,,,,,,,,,,,,,,,,,,,,,
,,66c759ddaa2a477714a13d63,2026-03-17_09h31.21.510,kallum_motion_pilot_GIST_update_2,2026.1.1,Win32,32.67973856,66c759ddaa2a477714a13d63,69b95efdef24cd8a694e89ee,69b9607f56cf3c448c9f3c52,0.062,0.062,0,131,131,141,1,seveneight,,,,,,,,,,,,,,,,,,,,,,,,,,,,,,,,,,,,,,,,,,,,,,,,,,,,,,,,,,,,,,,,,,,,,,,,,,,,,,,,,,,,,,,,,,,,,,,,,,,,,,,,,,,,,,,,,,,,,,,,,,,,,,,,,,,,,,,,,
,,66c759ddaa2a477714a13d63,2026-03-17_09h31.21.510,kallum_motion_pilot_GIST_update_2,2026.1.1,Win32,32.67973856,66c759ddaa2a477714a13d63,69b95efdef24cd8a694e89ee,69b9607f56cf3c448c9f3c52,0.0621,0.0621,0,132,132,27,1,twofour,,,,,,,,,,,,,,,,,,,,,,,,,,,,,,,,,,,,,,,,,,,,,,,,,,,,,,,,,,,,,,,,,,,,,,,,,,,,,,,,,,,,,,,,,,,,,,,,,,,,,,,,,,,,,,,,,,,,,,,,,,,,,,,,,,,,,,,,,
,,66c759ddaa2a477714a13d63,2026-03-17_09h31.21.510,kallum_motion_pilot_GIST_update_2,2026.1.1,Win32,32.67973856,66c759ddaa2a477714a13d63,69b95efdef24cd8a694e89ee,69b9607f56cf3c448c9f3c52,0.0623,0.0623,0,133,133,5,1,threefour,,,,,,,,,,,,,,,,,,,,,,,,,,,,,,,,,,,,,,,,,,,,,,,,,,,,,,,,,,,,,,,,,,,,,,,,,,,,,,,,,,,,,,,,,,,,,,,,,,,,,,,,,,,,,,,,,,,,,,,,,,,,,,,,,,,,,,,,,
,,66c759ddaa2a477714a13d63,2026-03-17_09h31.21.510,kallum_motion_pilot_GIST_update_2,2026.1.1,Win32,32.67973856,66c759ddaa2a477714a13d63,69b95efdef24cd8a694e89ee,69b9607f56cf3c448c9f3c52,0.0625,0.0625,0,134,134,58,1,twoone,,,,,,,,,,,,,,,,,,,,,,,,,,,,,,,,,,,,,,,,,,,,,,,,,,,,,,,,,,,,,,,,,,,,,,,,,,,,,,,,,,,,,,,,,,,,,,,,,,,,,,,,,,,,,,,,,,,,,,,,,,,,,,,,,,,,,,,,,
,,66c759ddaa2a477714a13d63,2026-03-17_09h31.21.510,kallum_motion_pilot_GIST_update_2,2026.1.1,Win32,32.67973856,66c759ddaa2a477714a13d63,69b95efdef24cd8a694e89ee,69b9607f56cf3c448c9f3c52,0.0628,0.0628,0,135,135,110,1,eightsix,,,,,,,,,,,,,,,,,,,,,,,,,,,,,,,,,,,,,,,,,,,,,,,,,,,,,,,,,,,,,,,,,,,,,,,,,,,,,,,,,,,,,,,,,,,,,,,,,,,,,,,,,,,,,,,,,,,,,,,,,,,,,,,,,,,,,,,,,
,,66c759ddaa2a477714a13d63,2026-03-17_09h31.21.510,kallum_motion_pilot_GIST_update_2,2026.1.1,Win32,32.67973856,66c759ddaa2a477714a13d63,69b95efdef24cd8a694e89ee,69b9607f56cf3c448c9f3c52,0.0629,0.0629,0,136,136,96,1,fivesix,,,,,,,,,,,,,,,,,,,,,,,,,,,,,,,,,,,,,,,,,,,,,,,,,,,,,,,,,,,,,,,,,,,,,,,,,,,,,,,,,,,,,,,,,,,,,,,,,,,,,,,,,,,,,,,,,,,,,,,,,,,,,,,,,,,,,,,,,
,,66c759ddaa2a477714a13d63,2026-03-17_09h31.21.510,kallum_motion_pilot_GIST_update_2,2026.1.1,Win32,32.67973856,66c759ddaa2a477714a13d63,69b95efdef24cd8a694e89ee,69b9607f56cf3c448c9f3c52,0.0632,0.0632,0,137,137,134,1,eightsix,,,,,,,,,,,,,,,,,,,,,,,,,,,,,,,,,,,,,,,,,,,,,,,,,,,,,,,,,,,,,,,,,,,,,,,,,,,,,,,,,,,,,,,,,,,,,,,,,,,,,,,,,,,,,,,,,,,,,,,,,,,,,,,,,,,,,,,,,
,,66c759ddaa2a477714a13d63,2026-03-17_09h31.21.510,kallum_motion_pilot_GIST_update_2,2026.1.1,Win32,32.67973856,66c759ddaa2a477714a13d63,69b95efdef24cd8a694e89ee,69b9607f56cf3c448c9f3c52,0.0633,0.0633,0,138,138,84,1,sevenfive,,,,,,,,,,,,,,,,,,,,,,,,,,,,,,,,,,,,,,,,,,,,,,,,,,,,,,,,,,,,,,,,,,,,,,,,,,,,,,,,,,,,,,,,,,,,,,,,,,,,,,,,,,,,,,,,,,,,,,,,,,,,,,,,,,,,,,,,,
,,66c759ddaa2a477714a13d63,2026-03-17_09h31.21.510,kallum_motion_pilot_GIST_update_2,2026.1.1,Win32,32.67973856,66c759ddaa2a477714a13d63,69b95efdef24cd8a694e89ee,69b9607f56cf3c448c9f3c52,0.0635,0.0635,0,139,139,154,1,sixfive,,,,,,,,,,,,,,,,,,,,,,,,,,,,,,,,,,,,,,,,,,,,,,,,,,,,,,,,,,,,,,,,,,,,,,,,,,,,,,,,,,,,,,,,,,,,,,,,,,,,,,,,,,,,,,,,,,,,,,,,,,,,,,,,,,,,,,,,,
,,66c759ddaa2a477714a13d63,2026-03-17_09h31.21.510,kallum_motion_pilot_GIST_update_2,2026.1.1,Win32,32.67973856,66c759ddaa2a477714a13d63,69b95efdef24cd8a694e89ee,69b9607f56cf3c448c9f3c52,0.0638,0.0638,0,140,140,69,1,threefour,,,,,,,,,,,,,,,,,,,,,,,,,,,,,,,,,,,,,,,,,,,,,,,,,,,,,,,,,,,,,,,,,,,,,,,,,,,,,,,,,,,,,,,,,,,,,,,,,,,,,,,,,,,,,,,,,,,,,,,,,,,,,,,,,,,,,,,,,
,,66c759ddaa2a477714a13d63,2026-03-17_09h31.21.510,kallum_motion_pilot_GIST_update_2,2026.1.1,Win32,32.67973856,66c759ddaa2a477714a13d63,69b95efdef24cd8a694e89ee,69b9607f56cf3c448c9f3c52,0.0639,0.0639,0,141,141,14,1,fourtwo,,,,,,,,,,,,,,,,,,,,,,,,,,,,,,,,,,,,,,,,,,,,,,,,,,,,,,,,,,,,,,,,,,,,,,,,,,,,,,,,,,,,,,,,,,,,,,,,,,,,,,,,,,,,,,,,,,,,,,,,,,,,,,,,,,,,,,,,,
,,66c759ddaa2a477714a13d63,2026-03-17_09h31.21.510,kallum_motion_pilot_GIST_update_2,2026.1.1,Win32,32.67973856,66c759ddaa2a477714a13d63,69b95efdef24cd8a694e89ee,69b9607f56cf3c448c9f3c52,0.0641,0.0641,0,142,142,48,1,onetwo,,,,,,,,,,,,,,,,,,,,,,,,,,,,,,,,,,,,,,,,,,,,,,,,,,,,,,,,,,,,,,,,,,,,,,,,,,,,,,,,,,,,,,,,,,,,,,,,,,,,,,,,,,,,,,,,,,,,,,,,,,,,,,,,,,,,,,,,,
,,66c759ddaa2a477714a13d63,2026-03-17_09h31.21.510,kallum_motion_pilot_GIST_update_2,2026.1.1,Win32,32.67973856,66c759ddaa2a477714a13d63,69b95efdef24cd8a694e89ee,69b9607f56cf3c448c9f3c52,0.0643,0.0643,0,143,143,43,1,twofour,,,,,,,,,,,,,,,,,,,,,,,,,,,,,,,,,,,,,,,,,,,,,,,,,,,,,,,,,,,,,,,,,,,,,,,,,,,,,,,,,,,,,,,,,,,,,,,,,,,,,,,,,,,,,,,,,,,,,,,,,,,,,,,,,,,,,,,,,
,,66c759ddaa2a477714a13d63,2026-03-17_09h31.21.510,kallum_motion_pilot_GIST_update_2,2026.1.1,Win32,32.67973856,66c759ddaa2a477714a13d63,69b95efdef24cd8a694e89ee,69b9607f56cf3c448c9f3c52,0.0645,0.0645,0,144,144,149,1,seveneight,,,,,,,,,,,,,,,,,,,,,,,,,,,,,,,,,,,,,,,,,,,,,,,,,,,,,,,,,,,,,,,,,,,,,,,,,,,,,,,,,,,,,,,,,,,,,,,,,,,,,,,,,,,,,,,,,,,,,,,,,,,,,,,,,,,,,,,,,
,,66c759ddaa2a477714a13d63,2026-03-17_09h31.21.510,kallum_motion_pilot_GIST_update_2,2026.1.1,Win32,32.67973856,66c759ddaa2a477714a13d63,69b95efdef24cd8a694e89ee,69b9607f56cf3c448c9f3c52,0.0647,0.0647,0,145,145,133,1,seveneight,,,,,,,,,,,,,,,,,,,,,,,,,,,,,,,,,,,,,,,,,,,,,,,,,,,,,,,,,,,,,,,,,,,,,,,,,,,,,,,,,,,,,,,,,,,,,,,,,,,,,,,,,,,,,,,,,,,,,,,,,,,,,,,,,,,,,,,,,
,,66c759ddaa2a477714a13d63,2026-03-17_09h31.21.510,kallum_motion_pilot_GIST_update_2,2026.1.1,Win32,32.67973856,66c759ddaa2a477714a13d63,69b95efdef24cd8a694e89ee,69b9607f56cf3c448c9f3c52,0.0649,0.0649,0,146,146,79,1,eightseven,,,,,,,,,,,,,,,,,,,,,,,,,,,,,,,,,,,,,,,,,,,,,,,,,,,,,,,,,,,,,,,,,,,,,,,,,,,,,,,,,,,,,,,,,,,,,,,,,,,,,,,,,,,,,,,,,,,,,,,,,,,,,,,,,,,,,,,,,
,,66c759ddaa2a477714a13d63,2026-03-17_09h31.21.510,kallum_motion_pilot_GIST_update_2,2026.1.1,Win32,32.67973856,66c759ddaa2a477714a13d63,69b95efdef24cd8a694e89ee,69b9607f56cf3c448c9f3c52,0.0651,0.0651,0,147,147,67,1,twofour,,,,,,,,,,,,,,,,,,,,,,,,,,,,,,,,,,,,,,,,,,,,,,,,,,,,,,,,,,,,,,,,,,,,,,,,,,,,,,,,,,,,,,,,,,,,,,,,,,,,,,,,,,,,,,,,,,,,,,,,,,,,,,,,,,,,,,,,,
,,66c759ddaa2a477714a13d63,2026-03-17_09h31.21.510,kallum_motion_pilot_GIST_update_2,2026.1.1,Win32,32.67973856,66c759ddaa2a477714a13d63,69b95efdef24cd8a694e89ee,69b9607f56cf3c448c9f3c52,0.0653,0.0653,0,148,148,39,1,fourthree,,,,,,,,,,,,,,,,,,,,,,,,,,,,,,,,,,,,,,,,,,,,,,,,,,,,,,,,,,,,,,,,,,,,,,,,,,,,,,,,,,,,,,,,,,,,,,,,,,,,,,,,,,,,,,,,,,,,,,,,,,,,,,,,,,,,,,,,,
,,66c759ddaa2a477714a13d63,2026-03-17_09h31.21.510,kallum_motion_pilot_GIST_update_2,2026.1.1,Win32,32.67973856,66c759ddaa2a477714a13d63,69b95efdef24cd8a694e89ee,69b9607f56cf3c448c9f3c52,0.0655,0.0656,0,149,149,119,1,eightseven,,,,,,,,,,,,,,,,,,,,,,,,,,,,,,,,,,,,,,,,,,,,,,,,,,,,,,,,,,,,,,,,,,,,,,,,,,,,,,,,,,,,,,,,,,,,,,,,,,,,,,,,,,,,,,,,,,,,,,,,,,,,,,,,,,,,,,,,,
,,66c759ddaa2a477714a13d63,2026-03-17_09h31.21.510,kallum_motion_pilot_GIST_update_2,2026.1.1,Win32,32.67973856,66c759ddaa2a477714a13d63,69b95efdef24cd8a694e89ee,69b9607f56cf3c448c9f3c52,0.0658,0.0658,0,150,150,33,1,onethree,,,,,,,,,,,,,,,,,,,,,,,,,,,,,,,,,,,,,,,,,,,,,,,,,,,,,,,,,,,,,,,,,,,,,,,,,,,,,,,,,,,,,,,,,,,,,,,,,,,,,,,,,,,,,,,,,,,,,,,,,,,,,,,,,,,,,,,,,
,,66c759ddaa2a477714a13d63,2026-03-17_09h31.21.510,kallum_motion_pilot_GIST_update_2,2026.1.1,Win32,32.67973856,66c759ddaa2a477714a13d63,69b95efdef24cd8a694e89ee,69b9607f56cf3c448c9f3c52,0.0659,0.0659,0,151,151,77,1,threefour,,,,,,,,,,,,,,,,,,,,,,,,,,,,,,,,,,,,,,,,,,,,,,,,,,,,,,,,,,,,,,,,,,,,,,,,,,,,,,,,,,,,,,,,,,,,,,,,,,,,,,,,,,,,,,,,,,,,,,,,,,,,,,,,,,,,,,,,,
,,66c759ddaa2a477714a13d63,2026-03-17_09h31.21.510,kallum_motion_pilot_GIST_update_2,2026.1.1,Win32,32.67973856,66c759ddaa2a477714a13d63,69b95efdef24cd8a694e89ee,69b9607f56cf3c448c9f3c52,0.0661,0.0661,0,152,152,111,1,eightseven,,,,,,,,,,,,,,,,,,,,,,,,,,,,,,,,,,,,,,,,,,,,,,,,,,,,,,,,,,,,,,,,,,,,,,,,,,,,,,,,,,,,,,,,,,,,,,,,,,,,,,,,,,,,,,,,,,,,,,,,,,,,,,,,,,,,,,,,,
,,66c759ddaa2a477714a13d63,2026-03-17_09h31.21.510,kallum_motion_pilot_GIST_update_2,2026.1.1,Win32,32.67973856,66c759ddaa2a477714a13d63,69b95efdef24cd8a694e89ee,69b9607f56cf3c448c9f3c52,0.0663,0.0663,0,153,153,105,1,fiveseven,,,,,,,,,,,,,,,,,,,,,,,,,,,,,,,,,,,,,,,,,,,,,,,,,,,,,,,,,,,,,,,,,,,,,,,,,,,,,,,,,,,,,,,,,,,,,,,,,,,,,,,,,,,,,,,,,,,,,,,,,,,,,,,,,,,,,,,,,
,,66c759ddaa2a477714a13d63,2026-03-17_09h31.21.510,kallum_motion_pilot_GIST_update_2,2026.1.1,Win32,32.67973856,66c759ddaa2a477714a13d63,69b95efdef24cd8a694e89ee,69b9607f56cf3c448c9f3c52,0.0666,0.0666,0,154,154,47,1,fourthree,,,,,,,,,,,,,,,,,,,,,,,,,,,,,,,,,,,,,,,,,,,,,,,,,,,,,,,,,,,,,,,,,,,,,,,,,,,,,,,,,,,,,,,,,,,,,,,,,,,,,,,,,,,,,,,,,,,,,,,,,,,,,,,,,,,,,,,,,
,,66c759ddaa2a477714a13d63,2026-03-17_09h31.21.510,kallum_motion_pilot_GIST_update_2,2026.1.1,Win32,32.67973856,66c759ddaa2a477714a13d63,69b95efdef24cd8a694e89ee,69b9607f56cf3c448c9f3c52,0.0668,0.0668,0,155,155,142,1,eightsix,,,,,,,,,,,,,,,,,,,,,,,,,,,,,,,,,,,,,,,,,,,,,,,,,,,,,,,,,,,,,,,,,,,,,,,,,,,,,,,,,,,,,,,,,,,,,,,,,,,,,,,,,,,,,,,,,,,,,,,,,,,,,,,,,,,,,,,,,
,,66c759ddaa2a477714a13d63,2026-03-17_09h31.21.510,kallum_motion_pilot_GIST_update_2,2026.1.1,Win32,32.67973856,66c759ddaa2a477714a13d63,69b95efdef24cd8a694e89ee,69b9607f56cf3c448c9f3c52,0.067,0.067,0,156,156,122,1,sixfive,,,,,,,,,,,,,,,,,,,,,,,,,,,,,,,,,,,,,,,,,,,,,,,,,,,,,,,,,,,,,,,,,,,,,,,,,,,,,,,,,,,,,,,,,,,,,,,,,,,,,,,,,,,,,,,,,,,,,,,,,,,,,,,,,,,,,,,,,
,,66c759ddaa2a477714a13d63,2026-03-17_09h31.21.510,kallum_motion_pilot_GIST_update_2,2026.1.1,Win32,32.67973856,66c759ddaa2a477714a13d63,69b95efdef24cd8a694e89ee,69b9607f56cf3c448c9f3c52,0.0672,0.0672,0,157,157,62,1,fourtwo,,,,,,,,,,,,,,,,,,,,,,,,,,,,,,,,,,,,,,,,,,,,,,,,,,,,,,,,,,,,,,,,,,,,,,,,,,,,,,,,,,,,,,,,,,,,,,,,,,,,,,,,,,,,,,,,,,,,,,,,,,,,,,,,,,,,,,,,,
,,66c759ddaa2a477714a13d63,2026-03-17_09h31.21.510,kallum_motion_pilot_GIST_update_2,2026.1.1,Win32,32.67973856,66c759ddaa2a477714a13d63,69b95efdef24cd8a694e89ee,69b9607f56cf3c448c9f3c52,0.0675,0.0675,0,158,158,55,1,fourthree,,,,,,,,,,,,,,,,,,,,,,,,,,,,,,,,,,,,,,,,,,,,,,,,,,,,,,,,,,,,,,,,,,,,,,,,,,,,,,,,,,,,,,,,,,,,,,,,,,,,,,,,,,,,,,,,,,,,,,,,,,,,,,,,,,,,,,,,,
,,66c759ddaa2a477714a13d63,2026-03-17_09h31.21.510,kallum_motion_pilot_GIST_update_2,2026.1.1,Win32,32.67973856,66c759ddaa2a477714a13d63,69b95efdef24cd8a694e89ee,69b9607f56cf3c448c9f3c52,0.0677,0.0677,0,159,159,1,1,onethree,,,,,,,,,,,,,,,,,,,,,,,,,,,,,,,,,,,,,,,,,,,,,,,,,,,,,,,,,,,,,,,,,,,,,,,,,,,,,,,,,,,,,,,,,,,,,,,,,,,,,,,,,,,,,,,,,,,,,,,,,,,,,,,,,,,,,,,,,
,,66c759ddaa2a477714a13d63,2026-03-17_09h31.21.510,kallum_motion_pilot_GIST_update_2,2026.1.1,Win32,32.67973856,66c759ddaa2a477714a13d63,69b95efdef24cd8a694e89ee,69b9607f56cf3c448c9f3c52,0.0678,0.0679,0,160,160,91,1,sixeight,,,,,,,,,,,,,,,,,,,,,,,,,,,,,,,,,,,,,,,,,,,,,,,,,,,,,,,,,,,,,,,,,,,,,,,,,,,,,,,,,,,,,,,,,,,,,,,,,,,,,,,,,,,,,,,,,,,,,,,,,,,,,,,,,,,,,,,,,
,,66c759ddaa2a477714a13d63,2026-03-17_09h31.21.510,kallum_motion_pilot_GIST_update_2,2026.1.1,Win32,32.67973856,66c759ddaa2a477714a13d63,69b95efdef24cd8a694e89ee,69b9607f56cf3c448c9f3c52,0.068,0.0681,0,161,161,31,1,fourthree,,,,,,,,,,,,,,,,,,,,,,,,,,,,,,,,,,,,,,,,,,,,,,,,,,,,,,,,,,,,,,,,,,,,,,,,,,,,,,,,,,,,,,,,,,,,,,,,,,,,,,,,,,,,,,,,,,,,,,,,,,,,,,,,,,,,,,,,,
,,66c759ddaa2a477714a13d63,2026-03-17_09h31.21.510,kallum_motion_pilot_GIST_update_2,2026.1.1,Win32,32.67973856,66c759ddaa2a477714a13d63,69b95efdef24cd8a694e89ee,69b9607f56cf3c448c9f3c52,0.0682,0.0682,1,0,162,34,1,twoone,,,,,,,,,,,,,,,,,,,,,,,,,,,,,,,,,,,,,,,,,,,,,,,,,,,,,,,,,,,,,,,,,,,,,,,,,,,,,,,,,,,,,,,,,,,,,,,,,,,,,,,,,,,,,,,,,,,,,,,,,,,,,,,,,,,,,,,,,
,,66c759ddaa2a477714a13d63,2026-03-17_09h31.21.510,kallum_motion_pilot_GIST_update_2,2026.1.1,Win32,32.67973856,66c759ddaa2a477714a13d63,69b95efdef24cd8a694e89ee,69b9607f56cf3c448c9f3c52,0.0684,0.0684,1,1,163,132,1,sevenfive,,,,,,,,,,,,,,,,,,,,,,,,,,,,,,,,,,,,,,,,,,,,,,,,,,,,,,,,,,,,,,,,,,,,,,,,,,,,,,,,,,,,,,,,,,,,,,,,,,,,,,,,,,,,,,,,,,,,,,,,,,,,,,,,,,,,,,,,,
,,66c759ddaa2a477714a13d63,2026-03-17_09h31.21.510,kallum_motion_pilot_GIST_update_2,2026.1.1,Win32,32.67973856,66c759ddaa2a477714a13d63,69b95efdef24cd8a694e89ee,69b9607f56cf3c448c9f3c52,0.0687,0.0688,1,2,164,103,1,eightseven,,,,,,,,,,,,,,,,,,,,,,,,,,,,,,,,,,,,,,,,,,,,,,,,,,,,,,,,,,,,,,,,,,,,,,,,,,,,,,,,,,,,,,,,,,,,,,,,,,,,,,,,,,,,,,,,,,,,,,,,,,,,,,,,,,,,,,,,,
,,66c759ddaa2a477714a13d63,2026-03-17_09h31.21.510,kallum_motion_pilot_GIST_update_2,2026.1.1,Win32,32.67973856,66c759ddaa2a477714a13d63,69b95efdef24cd8a694e89ee,69b9607f56cf3c448c9f3c52,0.069,0.069,1,3,165,50,1,twoone,,,,,,,,,,,,,,,,,,,,,,,,,,,,,,,,,,,,,,,,,,,,,,,,,,,,,,,,,,,,,,,,,,,,,,,,,,,,,,,,,,,,,,,,,,,,,,,,,,,,,,,,,,,,,,,,,,,,,,,,,,,,,,,,,,,,,,,,,
,,66c759ddaa2a477714a13d63,2026-03-17_09h31.21.510,kallum_motion_pilot_GIST_update_2,2026.1.1,Win32,32.67973856,66c759ddaa2a477714a13d63,69b95efdef24cd8a694e89ee,69b9607f56cf3c448c9f3c52,0.0691,0.0691,1,4,166,138,1,sixfive,,,,,,,,,,,,,,,,,,,,,,,,,,,,,,,,,,,,,,,,,,,,,,,,,,,,,,,,,,,,,,,,,,,,,,,,,,,,,,,,,,,,,,,,,,,,,,,,,,,,,,,,,,,,,,,,,,,,,,,,,,,,,,,,,,,,,,,,,
,,66c759ddaa2a477714a13d63,2026-03-17_09h31.21.510,kallum_motion_pilot_GIST_update_2,2026.1.1,Win32,32.67973856,66c759ddaa2a477714a13d63,69b95efdef24cd8a694e89ee,69b9607f56cf3c448c9f3c52,0.0695,0.0695,1,5,167,21,1,threefour,,,,,,,,,,,,,,,,,,,,,,,,,,,,,,,,,,,,,,,,,,,,,,,,,,,,,,,,,,,,,,,,,,,,,,,,,,,,,,,,,,,,,,,,,,,,,,,,,,,,,,,,,,,,,,,,,,,,,,,,,,,,,,,,,,,,,,,,,
,,66c759ddaa2a477714a13d63,2026-03-17_09h31.21.510,kallum_motion_pilot_GIST_update_2,2026.1.1,Win32,32.67973856,66c759ddaa2a477714a13d63,69b95efdef24cd8a694e89ee,69b9607f56cf3c448c9f3c52,0.0696,0.0697,1,6,168,38,1,fourtwo,,,,,,,,,,,,,,,,,,,,,,,,,,,,,,,,,,,,,,,,,,,,,,,,,,,,,,,,,,,,,,,,,,,,,,,,,,,,,,,,,,,,,,,,,,,,,,,,,,,,,,,,,,,,,,,,,,,,,,,,,,,,,,,,,,,,,,,,,
,,66c759ddaa2a477714a13d63,2026-03-17_09h31.21.510,kallum_motion_pilot_GIST_update_2,2026.1.1,Win32,32.67973856,66c759ddaa2a477714a13d63,69b95efdef24cd8a694e89ee,69b9607f56cf3c448c9f3c52,0.0699,0.0699,1,7,169,68,1,threeone,,,,,,,,,,,,,,,,,,,,,,,,,,,,,,,,,,,,,,,,,,,,,,,,,,,,,,,,,,,,,,,,,,,,,,,,,,,,,,,,,,,,,,,,,,,,,,,,,,,,,,,,,,,,,,,,,,,,,,,,,,,,,,,,,,,,,,,,,
,,66c759ddaa2a477714a13d63,2026-03-17_09h31.21.510,kallum_motion_pilot_GIST_update_2,2026.1.1,Win32,32.67973856,66c759ddaa2a477714a13d63,69b95efdef24cd8a694e89ee,69b9607f56cf3c448c9f3c52,0.0701,0.0702,1,8,170,40,1,onetwo,,,,,,,,,,,,,,,,,,,,,,,,,,,,,,,,,,,,,,,,,,,,,,,,,,,,,,,,,,,,,,,,,,,,,,,,,,,,,,,,,,,,,,,,,,,,,,,,,,,,,,,,,,,,,,,,,,,,,,,,,,,,,,,,,,,,,,,,,
,,66c759ddaa2a477714a13d63,2026-03-17_09h31.21.510,kallum_motion_pilot_GIST_update_2,2026.1.1,Win32,32.67973856,66c759ddaa2a477714a13d63,69b95efdef24cd8a694e89ee,69b9607f56cf3c448c9f3c52,0.0703,0.0703,1,9,171,57,1,onethree,,,,,,,,,,,,,,,,,,,,,,,,,,,,,,,,,,,,,,,,,,,,,,,,,,,,,,,,,,,,,,,,,,,,,,,,,,,,,,,,,,,,,,,,,,,,,,,,,,,,,,,,,,,,,,,,,,,,,,,,,,,,,,,,,,,,,,,,,
,,66c759ddaa2a477714a13d63,2026-03-17_09h31.21.510,kallum_motion_pilot_GIST_update_2,2026.1.1,Win32,32.67973856,66c759ddaa2a477714a13d63,69b95efdef24cd8a694e89ee,69b9607f56cf3c448c9f3c52,0.0705,0.0705,1,10,172,148,1,sevenfive,,,,,,,,,,,,,,,,,,,,,,,,,,,,,,,,,,,,,,,,,,,,,,,,,,,,,,,,,,,,,,,,,,,,,,,,,,,,,,,,,,,,,,,,,,,,,,,,,,,,,,,,,,,,,,,,,,,,,,,,,,,,,,,,,,,,,,,,,
,,66c759ddaa2a477714a13d63,2026-03-17_09h31.21.510,kallum_motion_pilot_GIST_update_2,2026.1.1,Win32,32.67973856,66c759ddaa2a477714a13d63,69b95efdef24cd8a694e89ee,69b9607f56cf3c448c9f3c52,0.0708,0.0708,1,11,173,101,1,seveneight,,,,,,,,,,,,,,,,,,,,,,,,,,,,,,,,,,,,,,,,,,,,,,,,,,,,,,,,,,,,,,,,,,,,,,,,,,,,,,,,,,,,,,,,,,,,,,,,,,,,,,,,,,,,,,,,,,,,,,,,,,,,,,,,,,,,,,,,,
,,66c759ddaa2a477714a13d63,2026-03-17_09h31.21.510,kallum_motion_pilot_GIST_update_2,2026.1.1,Win32,32.67973856,66c759ddaa2a477714a13d63,69b95efdef24cd8a694e89ee,69b9607f56cf3c448c9f3c52,0.071,0.071,1,12,174,99,1,sixeight,,,,,,,,,,,,,,,,,,,,,,,,,,,,,,,,,,,,,,,,,,,,,,,,,,,,,,,,,,,,,,,,,,,,,,,,,,,,,,,,,,,,,,,,,,,,,,,,,,,,,,,,,,,,,,,,,,,,,,,,,,,,,,,,,,,,,,,,,
,,66c759ddaa2a477714a13d63,2026-03-17_09h31.21.510,kallum_motion_pilot_GIST_update_2,2026.1.1,Win32,32.67973856,66c759ddaa2a477714a13d63,69b95efdef24cd8a694e89ee,69b9607f56cf3c448c9f3c52,0.0712,0.0712,1,13,175,26,1,twoone,,,,,,,,,,,,,,,,,,,,,,,,,,,,,,,,,,,,,,,,,,,,,,,,,,,,,,,,,,,,,,,,,,,,,,,,,,,,,,,,,,,,,,,,,,,,,,,,,,,,,,,,,,,,,,,,,,,,,,,,,,,,,,,,,,,,,,,,,
,,66c759ddaa2a477714a13d63,2026-03-17_09h31.21.510,kallum_motion_pilot_GIST_update_2,2026.1.1,Win32,32.67973856,66c759ddaa2a477714a13d63,69b95efdef24cd8a694e89ee,69b9607f56cf3c448c9f3c52,0.0714,0.0714,1,14,176,102,1,eightsix,,,,,,,,,,,,,,,,,,,,,,,,,,,,,,,,,,,,,,,,,,,,,,,,,,,,,,,,,,,,,,,,,,,,,,,,,,,,,,,,,,,,,,,,,,,,,,,,,,,,,,,,,,,,,,,,,,,,,,,,,,,,,,,,,,,,,,,,,
,,66c759ddaa2a477714a13d63,2026-03-17_09h31.21.510,kallum_motion_pilot_GIST_update_2,2026.1.1,Win32,32.67973856,66c759ddaa2a477714a13d63,69b95efdef24cd8a694e89ee,69b9607f56cf3c448c9f3c52,0.0715,0.0715,1,15,177,56,1,onetwo,,,,,,,,,,,,,,,,,,,,,,,,,,,,,,,,,,,,,,,,,,,,,,,,,,,,,,,,,,,,,,,,,,,,,,,,,,,,,,,,,,,,,,,,,,,,,,,,,,,,,,,,,,,,,,,,,,,,,,,,,,,,,,,,,,,,,,,,,
,,66c759ddaa2a477714a13d63,2026-03-17_09h31.21.510,kallum_motion_pilot_GIST_update_2,2026.1.1,Win32,32.67973856,66c759ddaa2a477714a13d63,69b95efdef24cd8a694e89ee,69b9607f56cf3c448c9f3c52,0.0718,0.0718,1,16,178,63,1,fourthree,,,,,,,,,,,,,,,,,,,,,,,,,,,,,,,,,,,,,,,,,,,,,,,,,,,,,,,,,,,,,,,,,,,,,,,,,,,,,,,,,,,,,,,,,,,,,,,,,,,,,,,,,,,,,,,,,,,,,,,,,,,,,,,,,,,,,,,,,
,,66c759ddaa2a477714a13d63,2026-03-17_09h31.21.510,kallum_motion_pilot_GIST_update_2,2026.1.1,Win32,32.67973856,66c759ddaa2a477714a13d63,69b95efdef24cd8a694e89ee,69b9607f56cf3c448c9f3c52,0.072,0.072,1,17,179,51,1,twofour,,,,,,,,,,,,,,,,,,,,,,,,,,,,,,,,,,,,,,,,,,,,,,,,,,,,,,,,,,,,,,,,,,,,,,,,,,,,,,,,,,,,,,,,,,,,,,,,,,,,,,,,,,,,,,,,,,,,,,,,,,,,,,,,,,,,,,,,,
,,66c759ddaa2a477714a13d63,2026-03-17_09h31.21.510,kallum_motion_pilot_GIST_update_2,2026.1.1,Win32,32.67973856,66c759ddaa2a477714a13d63,69b95efdef24cd8a694e89ee,69b9607f56cf3c448c9f3c52,0.0722,0.0723,1,18,180,110,1,eightsix,,,,,,,,,,,,,,,,,,,,,,,,,,,,,,,,,,,,,,,,,,,,,,,,,,,,,,,,,,,,,,,,,,,,,,,,,,,,,,,,,,,,,,,,,,,,,,,,,,,,,,,,,,,,,,,,,,,,,,,,,,,,,,,,,,,,,,,,,
,,66c759ddaa2a477714a13d63,2026-03-17_09h31.21.510,kallum_motion_pilot_GIST_update_2,2026.1.1,Win32,32.67973856,66c759ddaa2a477714a13d63,69b95efdef24cd8a694e89ee,69b9607f56cf3c448c9f3c52,0.0724,0.0724,1,19,181,86,1,eightsix,,,,,,,,,,,,,,,,,,,,,,,,,,,,,,,,,,,,,,,,,,,,,,,,,,,,,,,,,,,,,,,,,,,,,,,,,,,,,,,,,,,,,,,,,,,,,,,,,,,,,,,,,,,,,,,,,,,,,,,,,,,,,,,,,,,,,,,,,
,,66c759ddaa2a477714a13d63,2026-03-17_09h31.21.510,kallum_motion_pilot_GIST_update_2,2026.1.1,Win32,32.67973856,66c759ddaa2a477714a13d63,69b95efdef24cd8a694e89ee,69b9607f56cf3c448c9f3c52,0.0727,0.0727,1,20,182,108,1,sevenfive,,,,,,,,,,,,,,,,,,,,,,,,,,,,,,,,,,,,,,,,,,,,,,,,,,,,,,,,,,,,,,,,,,,,,,,,,,,,,,,,,,,,,,,,,,,,,,,,,,,,,,,,,,,,,,,,,,,,,,,,,,,,,,,,,,,,,,,,,
,,66c759ddaa2a477714a13d63,2026-03-17_09h31.21.510,kallum_motion_pilot_GIST_update_2,2026.1.1,Win32,32.67973856,66c759ddaa2a477714a13d63,69b95efdef24cd8a694e89ee,69b9607f56cf3c448c9f3c52,0.0728,0.0728,1,21,183,93,1,seveneight,,,,,,,,,,,,,,,,,,,,,,,,,,,,,,,,,,,,,,,,,,,,,,,,,,,,,,,,,,,,,,,,,,,,,,,,,,,,,,,,,,,,,,,,,,,,,,,,,,,,,,,,,,,,,,,,,,,,,,,,,,,,,,,,,,,,,,,,,
,,66c759ddaa2a477714a13d63,2026-03-17_09h31.21.510,kallum_motion_pilot_GIST_update_2,2026.1.1,Win32,32.67973856,66c759ddaa2a477714a13d63,69b95efdef24cd8a694e89ee,69b9607f56cf3c448c9f3c52,0.0731,0.0731,1,22,184,73,1,onethree,,,,,,,,,,,,,,,,,,,,,,,,,,,,,,,,,,,,,,,,,,,,,,,,,,,,,,,,,,,,,,,,,,,,,,,,,,,,,,,,,,,,,,,,,,,,,,,,,,,,,,,,,,,,,,,,,,,,,,,,,,,,,,,,,,,,,,,,,
,,66c759ddaa2a477714a13d63,2026-03-17_09h31.21.510,kallum_motion_pilot_GIST_update_2,2026.1.1,Win32,32.67973856,66c759ddaa2a477714a13d63,69b95efdef24cd8a694e89ee,69b9607f56cf3c448c9f3c52,0.0734,0.0734,1,23,185,147,1,sixeight,,,,,,,,,,,,,,,,,,,,,,,,,,,,,,,,,,,,,,,,,,,,,,,,,,,,,,,,,,,,,,,,,,,,,,,,,,,,,,,,,,,,,,,,,,,,,,,,,,,,,,,,,,,,,,,,,,,,,,,,,,,,,,,,,,,,,,,,,
,,66c759ddaa2a477714a13d63,2026-03-17_09h31.21.510,kallum_motion_pilot_GIST_update_2,2026.1.1,Win32,32.67973856,66c759ddaa2a477714a13d63,69b95efdef24cd8a694e89ee,69b9607f56cf3c448c9f3c52,0.0736,0.0736,1,24,186,153,1,fiveseven,,,,,,,,,,,,,,,,,,,,,,,,,,,,,,,,,,,,,,,,,,,,,,,,,,,,,,,,,,,,,,,,,,,,,,,,,,,,,,,,,,,,,,,,,,,,,,,,,,,,,,,,,,,,,,,,,,,,,,,,,,,,,,,,,,,,,,,,,
,,66c759ddaa2a477714a13d63,2026-03-17_09h31.21.510,kallum_motion_pilot_GIST_update_2,2026.1.1,Win32,32.67973856,66c759ddaa2a477714a13d63,69b95efdef24cd8a694e89ee,69b9607f56cf3c448c9f3c52,0.0739,0.074,1,25,187,44,1,threeone,,,,,,,,,,,,,,,,,,,,,,,,,,,,,,,,,,,,,,,,,,,,,,,,,,,,,,,,,,,,,,,,,,,,,,,,,,,,,,,,,,,,,,,,,,,,,,,,,,,,,,,,,,,,,,,,,,,,,,,,,,,,,,,,,,,,,,,,,
,,66c759ddaa2a477714a13d63,2026-03-17_09h31.21.510,kallum_motion_pilot_GIST_update_2,2026.1.1,Win32,32.67973856,66c759ddaa2a477714a13d63,69b95efdef24cd8a694e89ee,69b9607f56cf3c448c9f3c52,0.0743,0.0743,1,26,188,0,1,onetwo,,,,,,,,,,,,,,,,,,,,,,,,,,,,,,,,,,,,,,,,,,,,,,,,,,,,,,,,,,,,,,,,,,,,,,,,,,,,,,,,,,,,,,,,,,,,,,,,,,,,,,,,,,,,,,,,,,,,,,,,,,,,,,,,,,,,,,,,,
,,66c759ddaa2a477714a13d63,2026-03-17_09h31.21.510,kallum_motion_pilot_GIST_update_2,2026.1.1,Win32,32.67973856,66c759ddaa2a477714a13d63,69b95efdef24cd8a694e89ee,69b9607f56cf3c448c9f3c52,0.0747,0.0747,1,27,189,126,1,eightsix,,,,,,,,,,,,,,,,,,,,,,,,,,,,,,,,,,,,,,,,,,,,,,,,,,,,,,,,,,,,,,,,,,,,,,,,,,,,,,,,,,,,,,,,,,,,,,,,,,,,,,,,,,,,,,,,,,,,,,,,,,,,,,,,,,,,,,,,,
,,66c759ddaa2a477714a13d63,2026-03-17_09h31.21.510,kallum_motion_pilot_GIST_update_2,2026.1.1,Win32,32.67973856,66c759ddaa2a477714a13d63,69b95efdef24cd8a694e89ee,69b9607f56cf3c448c9f3c52,0.075,0.075,1,28,190,67,1,twofour,,,,,,,,,,,,,,,,,,,,,,,,,,,,,,,,,,,,,,,,,,,,,,,,,,,,,,,,,,,,,,,,,,,,,,,,,,,,,,,,,,,,,,,,,,,,,,,,,,,,,,,,,,,,,,,,,,,,,,,,,,,,,,,,,,,,,,,,,
,,66c759ddaa2a477714a13d63,2026-03-17_09h31.21.510,kallum_motion_pilot_GIST_update_2,2026.1.1,Win32,32.67973856,66c759ddaa2a477714a13d63,69b95efdef24cd8a694e89ee,69b9607f56cf3c448c9f3c52,0.0752,0.0752,1,29,191,11,1,twofour,,,,,,,,,,,,,,,,,,,,,,,,,,,,,,,,,,,,,,,,,,,,,,,,,,,,,,,,,,,,,,,,,,,,,,,,,,,,,,,,,,,,,,,,,,,,,,,,,,,,,,,,,,,,,,,,,,,,,,,,,,,,,,,,,,,,,,,,,
,,66c759ddaa2a477714a13d63,2026-03-17_09h31.21.510,kallum_motion_pilot_GIST_update_2,2026.1.1,Win32,32.67973856,66c759ddaa2a477714a13d63,69b95efdef24cd8a694e89ee,69b9607f56cf3c448c9f3c52,0.0755,0.0755,1,30,192,84,1,sevenfive,,,,,,,,,,,,,,,,,,,,,,,,,,,,,,,,,,,,,,,,,,,,,,,,,,,,,,,,,,,,,,,,,,,,,,,,,,,,,,,,,,,,,,,,,,,,,,,,,,,,,,,,,,,,,,,,,,,,,,,,,,,,,,,,,,,,,,,,,
,,66c759ddaa2a477714a13d63,2026-03-17_09h31.21.510,kallum_motion_pilot_GIST_update_2,2026.1.1,Win32,32.67973856,66c759ddaa2a477714a13d63,69b95efdef24cd8a694e89ee,69b9607f56cf3c448c9f3c52,0.0756,0.0756,1,31,193,120,1,fivesix,,,,,,,,,,,,,,,,,,,,,,,,,,,,,,,,,,,,,,,,,,,,,,,,,,,,,,,,,,,,,,,,,,,,,,,,,,,,,,,,,,,,,,,,,,,,,,,,,,,,,,,,,,,,,,,,,,,,,,,,,,,,,,,,,,,,,,,,,
,,66c759ddaa2a477714a13d63,2026-03-17_09h31.21.510,kallum_motion_pilot_GIST_update_2,2026.1.1,Win32,32.67973856,66c759ddaa2a477714a13d63,69b95efdef24cd8a694e89ee,69b9607f56cf3c448c9f3c52,0.0759,0.0759,1,32,194,37,1,threefour,,,,,,,,,,,,,,,,,,,,,,,,,,,,,,,,,,,,,,,,,,,,,,,,,,,,,,,,,,,,,,,,,,,,,,,,,,,,,,,,,,,,,,,,,,,,,,,,,,,,,,,,,,,,,,,,,,,,,,,,,,,,,,,,,,,,,,,,,
,,66c759ddaa2a477714a13d63,2026-03-17_09h31.21.510,kallum_motion_pilot_GIST_update_2,2026.1.1,Win32,32.67973856,66c759ddaa2a477714a13d63,69b95efdef24cd8a694e89ee,69b9607f56cf3c448c9f3c52,0.0763,0.0764,1,33,195,125,1,seveneight,,,,,,,,,,,,,,,,,,,,,,,,,,,,,,,,,,,,,,,,,,,,,,,,,,,,,,,,,,,,,,,,,,,,,,,,,,,,,,,,,,,,,,,,,,,,,,,,,,,,,,,,,,,,,,,,,,,,,,,,,,,,,,,,,,,,,,,,,
,,66c759ddaa2a477714a13d63,2026-03-17_09h31.21.510,kallum_motion_pilot_GIST_update_2,2026.1.1,Win32,32.67973856,66c759ddaa2a477714a13d63,69b95efdef24cd8a694e89ee,69b9607f56cf3c448c9f3c52,0.0766,0.0766,1,34,196,124,1,sevenfive,,,,,,,,,,,,,,,,,,,,,,,,,,,,,,,,,,,,,,,,,,,,,,,,,,,,,,,,,,,,,,,,,,,,,,,,,,,,,,,,,,,,,,,,,,,,,,,,,,,,,,,,,,,,,,,,,,,,,,,,,,,,,,,,,,,,,,,,,
,,66c759ddaa2a477714a13d63,2026-03-17_09h31.21.510,kallum_motion_pilot_GIST_update_2,2026.1.1,Win32,32.67973856,66c759ddaa2a477714a13d63,69b95efdef24cd8a694e89ee,69b9607f56cf3c448c9f3c52,0.0769,0.077,1,35,197,75,1,twofour,,,,,,,,,,,,,,,,,,,,,,,,,,,,,,,,,,,,,,,,,,,,,,,,,,,,,,,,,,,,,,,,,,,,,,,,,,,,,,,,,,,,,,,,,,,,,,,,,,,,,,,,,,,,,,,,,,,,,,,,,,,,,,,,,,,,,,,,,
,,66c759ddaa2a477714a13d63,2026-03-17_09h31.21.510,kallum_motion_pilot_GIST_update_2,2026.1.1,Win32,32.67973856,66c759ddaa2a477714a13d63,69b95efdef24cd8a694e89ee,69b9607f56cf3c448c9f3c52,0.0772,0.0772,1,36,198,59,1,twofour,,,,,,,,,,,,,,,,,,,,,,,,,,,,,,,,,,,,,,,,,,,,,,,,,,,,,,,,,,,,,,,,,,,,,,,,,,,,,,,,,,,,,,,,,,,,,,,,,,,,,,,,,,,,,,,,,,,,,,,,,,,,,,,,,,,,,,,,,
,,66c759ddaa2a477714a13d63,2026-03-17_09h31.21.510,kallum_motion_pilot_GIST_update_2,2026.1.1,Win32,32.67973856,66c759ddaa2a477714a13d63,69b95efdef24cd8a694e89ee,69b9607f56cf3c448c9f3c52,0.0774,0.0774,1,37,199,25,1,onethree,,,,,,,,,,,,,,,,,,,,,,,,,,,,,,,,,,,,,,,,,,,,,,,,,,,,,,,,,,,,,,,,,,,,,,,,,,,,,,,,,,,,,,,,,,,,,,,,,,,,,,,,,,,,,,,,,,,,,,,,,,,,,,,,,,,,,,,,,
,,66c759ddaa2a477714a13d63,2026-03-17_09h31.21.510,kallum_motion_pilot_GIST_update_2,2026.1.1,Win32,32.67973856,66c759ddaa2a477714a13d63,69b95efdef24cd8a694e89ee,69b9607f56cf3c448c9f3c52,0.0777,0.0777,1,38,200,135,1,eightseven,,,,,,,,,,,,,,,,,,,,,,,,,,,,,,,,,,,,,,,,,,,,,,,,,,,,,,,,,,,,,,,,,,,,,,,,,,,,,,,,,,,,,,,,,,,,,,,,,,,,,,,,,,,,,,,,,,,,,,,,,,,,,,,,,,,,,,,,,
,,66c759ddaa2a477714a13d63,2026-03-17_09h31.21.510,kallum_motion_pilot_GIST_update_2,2026.1.1,Win32,32.67973856,66c759ddaa2a477714a13d63,69b95efdef24cd8a694e89ee,69b9607f56cf3c448c9f3c52,0.0778,0.0778,1,39,201,69,1,threefour,,,,,,,,,,,,,,,,,,,,,,,,,,,,,,,,,,,,,,,,,,,,,,,,,,,,,,,,,,,,,,,,,,,,,,,,,,,,,,,,,,,,,,,,,,,,,,,,,,,,,,,,,,,,,,,,,,,,,,,,,,,,,,,,,,,,,,,,,
,,66c759ddaa2a477714a13d63,2026-03-17_09h31.21.510,kallum_motion_pilot_GIST_update_2,2026.1.1,Win32,32.67973856,66c759ddaa2a477714a13d63,69b95efdef24cd8a694e89ee,69b9607f56cf3c448c9f3c52,0.0781,0.0781,1,40,202,85,1,seveneight,,,,,,,,,,,,,,,,,,,,,,,,,,,,,,,,,,,,,,,,,,,,,,,,,,,,,,,,,,,,,,,,,,,,,,,,,,,,,,,,,,,,,,,,,,,,,,,,,,,,,,,,,,,,,,,,,,,,,,,,,,,,,,,,,,,,,,,,,
,,66c759ddaa2a477714a13d63,2026-03-17_09h31.21.510,kallum_motion_pilot_GIST_update_2,2026.1.1,Win32,32.67973856,66c759ddaa2a477714a13d63,69b95efdef24cd8a694e89ee,69b9607f56cf3c448c9f3c52,0.0783,0.0783,1,41,203,33,1,onethree,,,,,,,,,,,,,,,,,,,,,,,,,,,,,,,,,,,,,,,,,,,,,,,,,,,,,,,,,,,,,,,,,,,,,,,,,,,,,,,,,,,,,,,,,,,,,,,,,,,,,,,,,,,,,,,,,,,,,,,,,,,,,,,,,,,,,,,,,
,,66c759ddaa2a477714a13d63,2026-03-17_09h31.21.510,kallum_motion_pilot_GIST_update_2,2026.1.1,Win32,32.67973856,66c759ddaa2a477714a13d63,69b95efdef24cd8a694e89ee,69b9607f56cf3c448c9f3c52,0.0785,0.0786,1,42,204,145,1,fiveseven,,,,,,,,,,,,,,,,,,,,,,,,,,,,,,,,,,,,,,,,,,,,,,,,,,,,,,,,,,,,,,,,,,,,,,,,,,,,,,,,,,,,,,,,,,,,,,,,,,,,,,,,,,,,,,,,,,,,,,,,,,,,,,,,,,,,,,,,,
,,66c759ddaa2a477714a13d63,2026-03-17_09h31.21.510,kallum_motion_pilot_GIST_update_2,2026.1.1,Win32,32.67973856,66c759ddaa2a477714a13d63,69b95efdef24cd8a694e89ee,69b9607f56cf3c448c9f3c52,0.0788,0.0788,1,43,205,90,1,sixfive,,,,,,,,,,,,,,,,,,,,,,,,,,,,,,,,,,,,,,,,,,,,,,,,,,,,,,,,,,,,,,,,,,,,,,,,,,,,,,,,,,,,,,,,,,,,,,,,,,,,,,,,,,,,,,,,,,,,,,,,,,,,,,,,,,,,,,,,,
,,66c759ddaa2a477714a13d63,2026-03-17_09h31.21.510,kallum_motion_pilot_GIST_update_2,2026.1.1,Win32,32.67973856,66c759ddaa2a477714a13d63,69b95efdef24cd8a694e89ee,69b9607f56cf3c448c9f3c52,0.079,0.079,1,44,206,139,1,sixeight,,,,,,,,,,,,,,,,,,,,,,,,,,,,,,,,,,,,,,,,,,,,,,,,,,,,,,,,,,,,,,,,,,,,,,,,,,,,,,,,,,,,,,,,,,,,,,,,,,,,,,,,,,,,,,,,,,,,,,,,,,,,,,,,,,,,,,,,,
,,66c759ddaa2a477714a13d63,2026-03-17_09h31.21.510,kallum_motion_pilot_GIST_update_2,2026.1.1,Win32,32.67973856,66c759ddaa2a477714a13d63,69b95efdef24cd8a694e89ee,69b9607f56cf3c448c9f3c52,0.0793,0.0793,1,45,207,15,1,fourthree,,,,,,,,,,,,,,,,,,,,,,,,,,,,,,,,,,,,,,,,,,,,,,,,,,,,,,,,,,,,,,,,,,,,,,,,,,,,,,,,,,,,,,,,,,,,,,,,,,,,,,,,,,,,,,,,,,,,,,,,,,,,,,,,,,,,,,,,,
,,66c759ddaa2a477714a13d63,2026-03-17_09h31.21.510,kallum_motion_pilot_GIST_update_2,2026.1.1,Win32,32.67973856,66c759ddaa2a477714a13d63,69b95efdef24cd8a694e89ee,69b9607f56cf3c448c9f3c52,0.0796,0.0796,1,46,208,46,1,fourtwo,,,,,,,,,,,,,,,,,,,,,,,,,,,,,,,,,,,,,,,,,,,,,,,,,,,,,,,,,,,,,,,,,,,,,,,,,,,,,,,,,,,,,,,,,,,,,,,,,,,,,,,,,,,,,,,,,,,,,,,,,,,,,,,,,,,,,,,,,
,,66c759ddaa2a477714a13d63,2026-03-17_09h31.21.510,kallum_motion_pilot_GIST_update_2,2026.1.1,Win32,32.67973856,66c759ddaa2a477714a13d63,69b95efdef24cd8a694e89ee,69b9607f56cf3c448c9f3c52,0.0799,0.0799,1,47,209,80,1,fivesix,,,,,,,,,,,,,,,,,,,,,,,,,,,,,,,,,,,,,,,,,,,,,,,,,,,,,,,,,,,,,,,,,,,,,,,,,,,,,,,,,,,,,,,,,,,,,,,,,,,,,,,,,,,,,,,,,,,,,,,,,,,,,,,,,,,,,,,,,
,,66c759ddaa2a477714a13d63,2026-03-17_09h31.21.510,kallum_motion_pilot_GIST_update_2,2026.1.1,Win32,32.67973856,66c759ddaa2a477714a13d63,69b95efdef24cd8a694e89ee,69b9607f56cf3c448c9f3c52,0.0801,0.0801,1,48,210,32,1,onetwo,,,,,,,,,,,,,,,,,,,,,,,,,,,,,,,,,,,,,,,,,,,,,,,,,,,,,,,,,,,,,,,,,,,,,,,,,,,,,,,,,,,,,,,,,,,,,,,,,,,,,,,,,,,,,,,,,,,,,,,,,,,,,,,,,,,,,,,,,
,,66c759ddaa2a477714a13d63,2026-03-17_09h31.21.510,kallum_motion_pilot_GIST_update_2,2026.1.1,Win32,32.67973856,66c759ddaa2a477714a13d63,69b95efdef24cd8a694e89ee,69b9607f56cf3c448c9f3c52,0.0803,0.0803,1,49,211,129,1,fiveseven,,,,,,,,,,,,,,,,,,,,,,,,,,,,,,,,,,,,,,,,,,,,,,,,,,,,,,,,,,,,,,,,,,,,,,,,,,,,,,,,,,,,,,,,,,,,,,,,,,,,,,,,,,,,,,,,,,,,,,,,,,,,,,,,,,,,,,,,,
,,66c759ddaa2a477714a13d63,2026-03-17_09h31.21.510,kallum_motion_pilot_GIST_update_2,2026.1.1,Win32,32.67973856,66c759ddaa2a477714a13d63,69b95efdef24cd8a694e89ee,69b9607f56cf3c448c9f3c52,0.0805,0.0805,1,50,212,54,1,fourtwo,,,,,,,,,,,,,,,,,,,,,,,,,,,,,,,,,,,,,,,,,,,,,,,,,,,,,,,,,,,,,,,,,,,,,,,,,,,,,,,,,,,,,,,,,,,,,,,,,,,,,,,,,,,,,,,,,,,,,,,,,,,,,,,,,,,,,,,,,
,,66c759ddaa2a477714a13d63,2026-03-17_09h31.21.510,kallum_motion_pilot_GIST_update_2,2026.1.1,Win32,32.67973856,66c759ddaa2a477714a13d63,69b95efdef24cd8a694e89ee,69b9607f56cf3c448c9f3c52,0.0807,0.0807,1,51,213,78,1,fourtwo,,,,,,,,,,,,,,,,,,,,,,,,,,,,,,,,,,,,,,,,,,,,,,,,,,,,,,,,,,,,,,,,,,,,,,,,,,,,,,,,,,,,,,,,,,,,,,,,,,,,,,,,,,,,,,,,,,,,,,,,,,,,,,,,,,,,,,,,,
,,66c759ddaa2a477714a13d63,2026-03-17_09h31.21.510,kallum_motion_pilot_GIST_update_2,2026.1.1,Win32,32.67973856,66c759ddaa2a477714a13d63,69b95efdef24cd8a694e89ee,69b9607f56cf3c448c9f3c52,0.0809,0.0809,1,52,214,127,1,eightseven,,,,,,,,,,,,,,,,,,,,,,,,,,,,,,,,,,,,,,,,,,,,,,,,,,,,,,,,,,,,,,,,,,,,,,,,,,,,,,,,,,,,,,,,,,,,,,,,,,,,,,,,,,,,,,,,,,,,,,,,,,,,,,,,,,,,,,,,,
,,66c759ddaa2a477714a13d63,2026-03-17_09h31.21.510,kallum_motion_pilot_GIST_update_2,2026.1.1,Win32,32.67973856,66c759ddaa2a477714a13d63,69b95efdef24cd8a694e89ee,69b9607f56cf3c448c9f3c52,0.0813,0.0813,1,53,215,121,1,fiveseven,,,,,,,,,,,,,,,,,,,,,,,,,,,,,,,,,,,,,,,,,,,,,,,,,,,,,,,,,,,,,,,,,,,,,,,,,,,,,,,,,,,,,,,,,,,,,,,,,,,,,,,,,,,,,,,,,,,,,,,,,,,,,,,,,,,,,,,,,
,,66c759ddaa2a477714a13d63,2026-03-17_09h31.21.510,kallum_motion_pilot_GIST_update_2,2026.1.1,Win32,32.67973856,66c759ddaa2a477714a13d63,69b95efdef24cd8a694e89ee,69b9607f56cf3c448c9f3c52,0.0814,0.0815,1,54,216,3,1,twofour,,,,,,,,,,,,,,,,,,,,,,,,,,,,,,,,,,,,,,,,,,,,,,,,,,,,,,,,,,,,,,,,,,,,,,,,,,,,,,,,,,,,,,,,,,,,,,,,,,,,,,,,,,,,,,,,,,,,,,,,,,,,,,,,,,,,,,,,,
,,66c759ddaa2a477714a13d63,2026-03-17_09h31.21.510,kallum_motion_pilot_GIST_update_2,2026.1.1,Win32,32.67973856,66c759ddaa2a477714a13d63,69b95efdef24cd8a694e89ee,69b9607f56cf3c448c9f3c52,0.0816,0.0817,1,55,217,118,1,eightsix,,,,,,,,,,,,,,,,,,,,,,,,,,,,,,,,,,,,,,,,,,,,,,,,,,,,,,,,,,,,,,,,,,,,,,,,,,,,,,,,,,,,,,,,,,,,,,,,,,,,,,,,,,,,,,,,,,,,,,,,,,,,,,,,,,,,,,,,,
,,66c759ddaa2a477714a13d63,2026-03-17_09h31.21.510,kallum_motion_pilot_GIST_update_2,2026.1.1,Win32,32.67973856,66c759ddaa2a477714a13d63,69b95efdef24cd8a694e89ee,69b9607f56cf3c448c9f3c52,0.0818,0.0818,1,56,218,134,1,eightsix,,,,,,,,,,,,,,,,,,,,,,,,,,,,,,,,,,,,,,,,,,,,,,,,,,,,,,,,,,,,,,,,,,,,,,,,,,,,,,,,,,,,,,,,,,,,,,,,,,,,,,,,,,,,,,,,,,,,,,,,,,,,,,,,,,,,,,,,,
,,66c759ddaa2a477714a13d63,2026-03-17_09h31.21.510,kallum_motion_pilot_GIST_update_2,2026.1.1,Win32,32.67973856,66c759ddaa2a477714a13d63,69b95efdef24cd8a694e89ee,69b9607f56cf3c448c9f3c52,0.0821,0.0821,1,57,219,154,1,sixfive,,,,,,,,,,,,,,,,,,,,,,,,,,,,,,,,,,,,,,,,,,,,,,,,,,,,,,,,,,,,,,,,,,,,,,,,,,,,,,,,,,,,,,,,,,,,,,,,,,,,,,,,,,,,,,,,,,,,,,,,,,,,,,,,,,,,,,,,,
,,66c759ddaa2a477714a13d63,2026-03-17_09h31.21.510,kallum_motion_pilot_GIST_update_2,2026.1.1,Win32,32.67973856,66c759ddaa2a477714a13d63,69b95efdef24cd8a694e89ee,69b9607f56cf3c448c9f3c52,0.0823,0.0823,1,58,220,42,1,twoone,,,,,,,,,,,,,,,,,,,,,,,,,,,,,,,,,,,,,,,,,,,,,,,,,,,,,,,,,,,,,,,,,,,,,,,,,,,,,,,,,,,,,,,,,,,,,,,,,,,,,,,,,,,,,,,,,,,,,,,,,,,,,,,,,,,,,,,,,
,,66c759ddaa2a477714a13d63,2026-03-17_09h31.21.510,kallum_motion_pilot_GIST_update_2,2026.1.1,Win32,32.67973856,66c759ddaa2a477714a13d63,69b95efdef24cd8a694e89ee,69b9607f56cf3c448c9f3c52,0.0827,0.0827,1,59,221,27,1,twofour,,,,,,,,,,,,,,,,,,,,,,,,,,,,,,,,,,,,,,,,,,,,,,,,,,,,,,,,,,,,,,,,,,,,,,,,,,,,,,,,,,,,,,,,,,,,,,,,,,,,,,,,,,,,,,,,,,,,,,,,,,,,,,,,,,,,,,,,,
,,66c759ddaa2a477714a13d63,2026-03-17_09h31.21.510,kallum_motion_pilot_GIST_update_2,2026.1.1,Win32,32.67973856,66c759ddaa2a477714a13d63,69b95efdef24cd8a694e89ee,69b9607f56cf3c448c9f3c52,0.0829,0.0829,1,60,222,65,1,onethree,,,,,,,,,,,,,,,,,,,,,,,,,,,,,,,,,,,,,,,,,,,,,,,,,,,,,,,,,,,,,,,,,,,,,,,,,,,,,,,,,,,,,,,,,,,,,,,,,,,,,,,,,,,,,,,,,,,,,,,,,,,,,,,,,,,,,,,,,
,,66c759ddaa2a477714a13d63,2026-03-17_09h31.21.510,kallum_motion_pilot_GIST_update_2,2026.1.1,Win32,32.67973856,66c759ddaa2a477714a13d63,69b95efdef24cd8a694e89ee,69b9607f56cf3c448c9f3c52,0.0831,0.0831,1,61,223,64,1,onetwo,,,,,,,,,,,,,,,,,,,,,,,,,,,,,,,,,,,,,,,,,,,,,,,,,,,,,,,,,,,,,,,,,,,,,,,,,,,,,,,,,,,,,,,,,,,,,,,,,,,,,,,,,,,,,,,,,,,,,,,,,,,,,,,,,,,,,,,,,
,,66c759ddaa2a477714a13d63,2026-03-17_09h31.21.510,kallum_motion_pilot_GIST_update_2,2026.1.1,Win32,32.67973856,66c759ddaa2a477714a13d63,69b95efdef24cd8a694e89ee,69b9607f56cf3c448c9f3c52,0.0834,0.0834,1,62,224,137,1,fiveseven,,,,,,,,,,,,,,,,,,,,,,,,,,,,,,,,,,,,,,,,,,,,,,,,,,,,,,,,,,,,,,,,,,,,,,,,,,,,,,,,,,,,,,,,,,,,,,,,,,,,,,,,,,,,,,,,,,,,,,,,,,,,,,,,,,,,,,,,,
,,66c759ddaa2a477714a13d63,2026-03-17_09h31.21.510,kallum_motion_pilot_GIST_update_2,2026.1.1,Win32,32.67973856,66c759ddaa2a477714a13d63,69b95efdef24cd8a694e89ee,69b9607f56cf3c448c9f3c52,0.0836,0.0836,1,63,225,4,1,threeone,,,,,,,,,,,,,,,,,,,,,,,,,,,,,,,,,,,,,,,,,,,,,,,,,,,,,,,,,,,,,,,,,,,,,,,,,,,,,,,,,,,,,,,,,,,,,,,,,,,,,,,,,,,,,,,,,,,,,,,,,,,,,,,,,,,,,,,,,
,,66c759ddaa2a477714a13d63,2026-03-17_09h31.21.510,kallum_motion_pilot_GIST_update_2,2026.1.1,Win32,32.67973856,66c759ddaa2a477714a13d63,69b95efdef24cd8a694e89ee,69b9607f56cf3c448c9f3c52,0.0838,0.0838,1,64,226,114,1,sixfive,,,,,,,,,,,,,,,,,,,,,,,,,,,,,,,,,,,,,,,,,,,,,,,,,,,,,,,,,,,,,,,,,,,,,,,,,,,,,,,,,,,,,,,,,,,,,,,,,,,,,,,,,,,,,,,,,,,,,,,,,,,,,,,,,,,,,,,,,
,,66c759ddaa2a477714a13d63,2026-03-17_09h31.21.510,kallum_motion_pilot_GIST_update_2,2026.1.1,Win32,32.67973856,66c759ddaa2a477714a13d63,69b95efdef24cd8a694e89ee,69b9607f56cf3c448c9f3c52,0.084,0.0841,1,65,227,82,1,sixfive,,,,,,,,,,,,,,,,,,,,,,,,,,,,,,,,,,,,,,,,,,,,,,,,,,,,,,,,,,,,,,,,,,,,,,,,,,,,,,,,,,,,,,,,,,,,,,,,,,,,,,,,,,,,,,,,,,,,,,,,,,,,,,,,,,,,,,,,,
,,66c759ddaa2a477714a13d63,2026-03-17_09h31.21.510,kallum_motion_pilot_GIST_update_2,2026.1.1,Win32,32.67973856,66c759ddaa2a477714a13d63,69b95efdef24cd8a694e89ee,69b9607f56cf3c448c9f3c52,0.0843,0.0843,1,66,228,5,1,threefour,,,,,,,,,,,,,,,,,,,,,,,,,,,,,,,,,,,,,,,,,,,,,,,,,,,,,,,,,,,,,,,,,,,,,,,,,,,,,,,,,,,,,,,,,,,,,,,,,,,,,,,,,,,,,,,,,,,,,,,,,,,,,,,,,,,,,,,,,
,,66c759ddaa2a477714a13d63,2026-03-17_09h31.21.510,kallum_motion_pilot_GIST_update_2,2026.1.1,Win32,32.67973856,66c759ddaa2a477714a13d63,69b95efdef24cd8a694e89ee,69b9607f56cf3c448c9f3c52,0.0845,0.0846,1,67,229,53,1,threefour,,,,,,,,,,,,,,,,,,,,,,,,,,,,,,,,,,,,,,,,,,,,,,,,,,,,,,,,,,,,,,,,,,,,,,,,,,,,,,,,,,,,,,,,,,,,,,,,,,,,,,,,,,,,,,,,,,,,,,,,,,,,,,,,,,,,,,,,,
,,66c759ddaa2a477714a13d63,2026-03-17_09h31.21.510,kallum_motion_pilot_GIST_update_2,2026.1.1,Win32,32.67973856,66c759ddaa2a477714a13d63,69b95efdef24cd8a694e89ee,69b9607f56cf3c448c9f3c52,0.0847,0.0847,1,68,230,151,1,eightseven,,,,,,,,,,,,,,,,,,,,,,,,,,,,,,,,,,,,,,,,,,,,,,,,,,,,,,,,,,,,,,,,,,,,,,,,,,,,,,,,,,,,,,,,,,,,,,,,,,,,,,,,,,,,,,,,,,,,,,,,,,,,,,,,,,,,,,,,,
,,66c759ddaa2a477714a13d63,2026-03-17_09h31.21.510,kallum_motion_pilot_GIST_update_2,2026.1.1,Win32,32.67973856,66c759ddaa2a477714a13d63,69b95efdef24cd8a694e89ee,69b9607f56cf3c448c9f3c52,0.085,0.085,1,69,231,131,1,sixeight,,,,,,,,,,,,,,,,,,,,,,,,,,,,,,,,,,,,,,,,,,,,,,,,,,,,,,,,,,,,,,,,,,,,,,,,,,,,,,,,,,,,,,,,,,,,,,,,,,,,,,,,,,,,,,,,,,,,,,,,,,,,,,,,,,,,,,,,,
,,66c759ddaa2a477714a13d63,2026-03-17_09h31.21.510,kallum_motion_pilot_GIST_update_2,2026.1.1,Win32,32.67973856,66c759ddaa2a477714a13d63,69b95efdef24cd8a694e89ee,69b9607f56cf3c448c9f3c52,0.0853,0.0853,1,70,232,106,1,sixfive,,,,,,,,,,,,,,,,,,,,,,,,,,,,,,,,,,,,,,,,,,,,,,,,,,,,,,,,,,,,,,,,,,,,,,,,,,,,,,,,,,,,,,,,,,,,,,,,,,,,,,,,,,,,,,,,,,,,,,,,,,,,,,,,,,,,,,,,,
,,66c759ddaa2a477714a13d63,2026-03-17_09h31.21.510,kallum_motion_pilot_GIST_update_2,2026.1.1,Win32,32.67973856,66c759ddaa2a477714a13d63,69b95efdef24cd8a694e89ee,69b9607f56cf3c448c9f3c52,0.0854,0.0854,1,71,233,2,1,twoone,,,,,,,,,,,,,,,,,,,,,,,,,,,,,,,,,,,,,,,,,,,,,,,,,,,,,,,,,,,,,,,,,,,,,,,,,,,,,,,,,,,,,,,,,,,,,,,,,,,,,,,,,,,,,,,,,,,,,,,,,,,,,,,,,,,,,,,,,
,,66c759ddaa2a477714a13d63,2026-03-17_09h31.21.510,kallum_motion_pilot_GIST_update_2,2026.1.1,Win32,32.67973856,66c759ddaa2a477714a13d63,69b95efdef24cd8a694e89ee,69b9607f56cf3c448c9f3c52,0.0856,0.0856,1,72,234,14,1,fourtwo,,,,,,,,,,,,,,,,,,,,,,,,,,,,,,,,,,,,,,,,,,,,,,,,,,,,,,,,,,,,,,,,,,,,,,,,,,,,,,,,,,,,,,,,,,,,,,,,,,,,,,,,,,,,,,,,,,,,,,,,,,,,,,,,,,,,,,,,,
,,66c759ddaa2a477714a13d63,2026-03-17_09h31.21.510,kallum_motion_pilot_GIST_update_2,2026.1.1,Win32,32.67973856,66c759ddaa2a477714a13d63,69b95efdef24cd8a694e89ee,69b9607f56cf3c448c9f3c52,0.086,0.086,1,73,235,113,1,fiveseven,,,,,,,,,,,,,,,,,,,,,,,,,,,,,,,,,,,,,,,,,,,,,,,,,,,,,,,,,,,,,,,,,,,,,,,,,,,,,,,,,,,,,,,,,,,,,,,,,,,,,,,,,,,,,,,,,,,,,,,,,,,,,,,,,,,,,,,,,
,,66c759ddaa2a477714a13d63,2026-03-17_09h31.21.510,kallum_motion_pilot_GIST_update_2,2026.1.1,Win32,32.67973856,66c759ddaa2a477714a13d63,69b95efdef24cd8a694e89ee,69b9607f56cf3c448c9f3c52,0.0863,0.0863,1,74,236,6,1,fourtwo,,,,,,,,,,,,,,,,,,,,,,,,,,,,,,,,,,,,,,,,,,,,,,,,,,,,,,,,,,,,,,,,,,,,,,,,,,,,,,,,,,,,,,,,,,,,,,,,,,,,,,,,,,,,,,,,,,,,,,,,,,,,,,,,,,,,,,,,,
,,66c759ddaa2a477714a13d63,2026-03-17_09h31.21.510,kallum_motion_pilot_GIST_update_2,2026.1.1,Win32,32.67973856,66c759ddaa2a477714a13d63,69b95efdef24cd8a694e89ee,69b9607f56cf3c448c9f3c52,0.0866,0.0866,1,75,237,9,1,onethree,,,,,,,,,,,,,,,,,,,,,,,,,,,,,,,,,,,,,,,,,,,,,,,,,,,,,,,,,,,,,,,,,,,,,,,,,,,,,,,,,,,,,,,,,,,,,,,,,,,,,,,,,,,,,,,,,,,,,,,,,,,,,,,,,,,,,,,,,
,,66c759ddaa2a477714a13d63,2026-03-17_09h31.21.510,kallum_motion_pilot_GIST_update_2,2026.1.1,Win32,32.67973856,66c759ddaa2a477714a13d63,69b95efdef24cd8a694e89ee,69b9607f56cf3c448c9f3c52,0.0868,0.0868,1,76,238,76,1,threeone,,,,,,,,,,,,,,,,,,,,,,,,,,,,,,,,,,,,,,,,,,,,,,,,,,,,,,,,,,,,,,,,,,,,,,,,,,,,,,,,,,,,,,,,,,,,,,,,,,,,,,,,,,,,,,,,,,,,,,,,,,,,,,,,,,,,,,,,,
,,66c759ddaa2a477714a13d63,2026-03-17_09h31.21.510,kallum_motion_pilot_GIST_update_2,2026.1.1,Win32,32.67973856,66c759ddaa2a477714a13d63,69b95efdef24cd8a694e89ee,69b9607f56cf3c448c9f3c52,0.087,0.087,1,77,239,116,1,sevenfive,,,,,,,,,,,,,,,,,,,,,,,,,,,,,,,,,,,,,,,,,,,,,,,,,,,,,,,,,,,,,,,,,,,,,,,,,,,,,,,,,,,,,,,,,,,,,,,,,,,,,,,,,,,,,,,,,,,,,,,,,,,,,,,,,,,,,,,,,
,,66c759ddaa2a477714a13d63,2026-03-17_09h31.21.510,kallum_motion_pilot_GIST_update_2,2026.1.1,Win32,32.67973856,66c759ddaa2a477714a13d63,69b95efdef24cd8a694e89ee,69b9607f56cf3c448c9f3c52,0.0873,0.0873,1,78,240,97,1,fiveseven,,,,,,,,,,,,,,,,,,,,,,,,,,,,,,,,,,,,,,,,,,,,,,,,,,,,,,,,,,,,,,,,,,,,,,,,,,,,,,,,,,,,,,,,,,,,,,,,,,,,,,,,,,,,,,,,,,,,,,,,,,,,,,,,,,,,,,,,,
,,66c759ddaa2a477714a13d63,2026-03-17_09h31.21.510,kallum_motion_pilot_GIST_update_2,2026.1.1,Win32,32.67973856,66c759ddaa2a477714a13d63,69b95efdef24cd8a694e89ee,69b9607f56cf3c448c9f3c52,0.0875,0.0875,1,79,241,41,1,onethree,,,,,,,,,,,,,,,,,,,,,,,,,,,,,,,,,,,,,,,,,,,,,,,,,,,,,,,,,,,,,,,,,,,,,,,,,,,,,,,,,,,,,,,,,,,,,,,,,,,,,,,,,,,,,,,,,,,,,,,,,,,,,,,,,,,,,,,,,
,,66c759ddaa2a477714a13d63,2026-03-17_09h31.21.510,kallum_motion_pilot_GIST_update_2,2026.1.1,Win32,32.67973856,66c759ddaa2a477714a13d63,69b95efdef24cd8a694e89ee,69b9607f56cf3c448c9f3c52,0.0878,0.0878,1,80,242,96,1,fivesix,,,,,,,,,,,,,,,,,,,,,,,,,,,,,,,,,,,,,,,,,,,,,,,,,,,,,,,,,,,,,,,,,,,,,,,,,,,,,,,,,,,,,,,,,,,,,,,,,,,,,,,,,,,,,,,,,,,,,,,,,,,,,,,,,,,,,,,,,
,,66c759ddaa2a477714a13d63,2026-03-17_09h31.21.510,kallum_motion_pilot_GIST_update_2,2026.1.1,Win32,32.67973856,66c759ddaa2a477714a13d63,69b95efdef24cd8a694e89ee,69b9607f56cf3c448c9f3c52,0.0879,0.0879,1,81,243,17,1,onethree,,,,,,,,,,,,,,,,,,,,,,,,,,,,,,,,,,,,,,,,,,,,,,,,,,,,,,,,,,,,,,,,,,,,,,,,,,,,,,,,,,,,,,,,,,,,,,,,,,,,,,,,,,,,,,,,,,,,,,,,,,,,,,,,,,,,,,,,,
,,66c759ddaa2a477714a13d63,2026-03-17_09h31.21.510,kallum_motion_pilot_GIST_update_2,2026.1.1,Win32,32.67973856,66c759ddaa2a477714a13d63,69b95efdef24cd8a694e89ee,69b9607f56cf3c448c9f3c52,0.0882,0.0882,1,82,244,158,1,eightsix,,,,,,,,,,,,,,,,,,,,,,,,,,,,,,,,,,,,,,,,,,,,,,,,,,,,,,,,,,,,,,,,,,,,,,,,,,,,,,,,,,,,,,,,,,,,,,,,,,,,,,,,,,,,,,,,,,,,,,,,,,,,,,,,,,,,,,,,,
,,66c759ddaa2a477714a13d63,2026-03-17_09h31.21.510,kallum_motion_pilot_GIST_update_2,2026.1.1,Win32,32.67973856,66c759ddaa2a477714a13d63,69b95efdef24cd8a694e89ee,69b9607f56cf3c448c9f3c52,0.0884,0.0884,1,83,245,109,1,seveneight,,,,,,,,,,,,,,,,,,,,,,,,,,,,,,,,,,,,,,,,,,,,,,,,,,,,,,,,,,,,,,,,,,,,,,,,,,,,,,,,,,,,,,,,,,,,,,,,,,,,,,,,,,,,,,,,,,,,,,,,,,,,,,,,,,,,,,,,,
,,66c759ddaa2a477714a13d63,2026-03-17_09h31.21.510,kallum_motion_pilot_GIST_update_2,2026.1.1,Win32,32.67973856,66c759ddaa2a477714a13d63,69b95efdef24cd8a694e89ee,69b9607f56cf3c448c9f3c52,0.0887,0.0887,1,84,246,117,1,seveneight,,,,,,,,,,,,,,,,,,,,,,,,,,,,,,,,,,,,,,,,,,,,,,,,,,,,,,,,,,,,,,,,,,,,,,,,,,,,,,,,,,,,,,,,,,,,,,,,,,,,,,,,,,,,,,,,,,,,,,,,,,,,,,,,,,,,,,,,,
,,66c759ddaa2a477714a13d63,2026-03-17_09h31.21.510,kallum_motion_pilot_GIST_update_2,2026.1.1,Win32,32.67973856,66c759ddaa2a477714a13d63,69b95efdef24cd8a694e89ee,69b9607f56cf3c448c9f3c52,0.0889,0.0889,1,85,247,122,1,sixfive,,,,,,,,,,,,,,,,,,,,,,,,,,,,,,,,,,,,,,,,,,,,,,,,,,,,,,,,,,,,,,,,,,,,,,,,,,,,,,,,,,,,,,,,,,,,,,,,,,,,,,,,,,,,,,,,,,,,,,,,,,,,,,,,,,,,,,,,,
,,66c759ddaa2a477714a13d63,2026-03-17_09h31.21.510,kallum_motion_pilot_GIST_update_2,2026.1.1,Win32,32.67973856,66c759ddaa2a477714a13d63,69b95efdef24cd8a694e89ee,69b9607f56cf3c448c9f3c52,0.0891,0.0892,1,86,248,152,1,fivesix,,,,,,,,,,,,,,,,,,,,,,,,,,,,,,,,,,,,,,,,,,,,,,,,,,,,,,,,,,,,,,,,,,,,,,,,,,,,,,,,,,,,,,,,,,,,,,,,,,,,,,,,,,,,,,,,,,,,,,,,,,,,,,,,,,,,,,,,,
,,66c759ddaa2a477714a13d63,2026-03-17_09h31.21.510,kallum_motion_pilot_GIST_update_2,2026.1.1,Win32,32.67973856,66c759ddaa2a477714a13d63,69b95efdef24cd8a694e89ee,69b9607f56cf3c448c9f3c52,0.0895,0.0896,1,87,249,29,1,threefour,,,,,,,,,,,,,,,,,,,,,,,,,,,,,,,,,,,,,,,,,,,,,,,,,,,,,,,,,,,,,,,,,,,,,,,,,,,,,,,,,,,,,,,,,,,,,,,,,,,,,,,,,,,,,,,,,,,,,,,,,,,,,,,,,,,,,,,,,
,,66c759ddaa2a477714a13d63,2026-03-17_09h31.21.510,kallum_motion_pilot_GIST_update_2,2026.1.1,Win32,32.67973856,66c759ddaa2a477714a13d63,69b95efdef24cd8a694e89ee,69b9607f56cf3c448c9f3c52,0.0899,0.0899,1,88,250,89,1,fiveseven,,,,,,,,,,,,,,,,,,,,,,,,,,,,,,,,,,,,,,,,,,,,,,,,,,,,,,,,,,,,,,,,,,,,,,,,,,,,,,,,,,,,,,,,,,,,,,,,,,,,,,,,,,,,,,,,,,,,,,,,,,,,,,,,,,,,,,,,,
,,66c759ddaa2a477714a13d63,2026-03-17_09h31.21.510,kallum_motion_pilot_GIST_update_2,2026.1.1,Win32,32.67973856,66c759ddaa2a477714a13d63,69b95efdef24cd8a694e89ee,69b9607f56cf3c448c9f3c52,0.0901,0.0901,1,89,251,13,1,threefour,,,,,,,,,,,,,,,,,,,,,,,,,,,,,,,,,,,,,,,,,,,,,,,,,,,,,,,,,,,,,,,,,,,,,,,,,,,,,,,,,,,,,,,,,,,,,,,,,,,,,,,,,,,,,,,,,,,,,,,,,,,,,,,,,,,,,,,,,
,,66c759ddaa2a477714a13d63,2026-03-17_09h31.21.510,kallum_motion_pilot_GIST_update_2,2026.1.1,Win32,32.67973856,66c759ddaa2a477714a13d63,69b95efdef24cd8a694e89ee,69b9607f56cf3c448c9f3c52,0.0904,0.0904,1,90,252,104,1,fivesix,,,,,,,,,,,,,,,,,,,,,,,,,,,,,,,,,,,,,,,,,,,,,,,,,,,,,,,,,,,,,,,,,,,,,,,,,,,,,,,,,,,,,,,,,,,,,,,,,,,,,,,,,,,,,,,,,,,,,,,,,,,,,,,,,,,,,,,,,
,,66c759ddaa2a477714a13d63,2026-03-17_09h31.21.510,kallum_motion_pilot_GIST_update_2,2026.1.1,Win32,32.67973856,66c759ddaa2a477714a13d63,69b95efdef24cd8a694e89ee,69b9607f56cf3c448c9f3c52,0.0907,0.0907,1,91,253,161,1,fiveseven,,,,,,,,,,,,,,,,,,,,,,,,,,,,,,,,,,,,,,,,,,,,,,,,,,,,,,,,,,,,,,,,,,,,,,,,,,,,,,,,,,,,,,,,,,,,,,,,,,,,,,,,,,,,,,,,,,,,,,,,,,,,,,,,,,,,,,,,,
,,66c759ddaa2a477714a13d63,2026-03-17_09h31.21.510,kallum_motion_pilot_GIST_update_2,2026.1.1,Win32,32.67973856,66c759ddaa2a477714a13d63,69b95efdef24cd8a694e89ee,69b9607f56cf3c448c9f3c52,0.091,0.091,1,92,254,112,1,fivesix,,,,,,,,,,,,,,,,,,,,,,,,,,,,,,,,,,,,,,,,,,,,,,,,,,,,,,,,,,,,,,,,,,,,,,,,,,,,,,,,,,,,,,,,,,,,,,,,,,,,,,,,,,,,,,,,,,,,,,,,,,,,,,,,,,,,,,,,,
,,66c759ddaa2a477714a13d63,2026-03-17_09h31.21.510,kallum_motion_pilot_GIST_update_2,2026.1.1,Win32,32.67973856,66c759ddaa2a477714a13d63,69b95efdef24cd8a694e89ee,69b9607f56cf3c448c9f3c52,0.0914,0.0914,1,93,255,60,1,threeone,,,,,,,,,,,,,,,,,,,,,,,,,,,,,,,,,,,,,,,,,,,,,,,,,,,,,,,,,,,,,,,,,,,,,,,,,,,,,,,,,,,,,,,,,,,,,,,,,,,,,,,,,,,,,,,,,,,,,,,,,,,,,,,,,,,,,,,,,
,,66c759ddaa2a477714a13d63,2026-03-17_09h31.21.510,kallum_motion_pilot_GIST_update_2,2026.1.1,Win32,32.67973856,66c759ddaa2a477714a13d63,69b95efdef24cd8a694e89ee,69b9607f56cf3c448c9f3c52,0.0916,0.0916,1,94,256,62,1,fourtwo,,,,,,,,,,,,,,,,,,,,,,,,,,,,,,,,,,,,,,,,,,,,,,,,,,,,,,,,,,,,,,,,,,,,,,,,,,,,,,,,,,,,,,,,,,,,,,,,,,,,,,,,,,,,,,,,,,,,,,,,,,,,,,,,,,,,,,,,,
,,66c759ddaa2a477714a13d63,2026-03-17_09h31.21.510,kallum_motion_pilot_GIST_update_2,2026.1.1,Win32,32.67973856,66c759ddaa2a477714a13d63,69b95efdef24cd8a694e89ee,69b9607f56cf3c448c9f3c52,0.0918,0.0918,1,95,257,12,1,threeone,,,,,,,,,,,,,,,,,,,,,,,,,,,,,,,,,,,,,,,,,,,,,,,,,,,,,,,,,,,,,,,,,,,,,,,,,,,,,,,,,,,,,,,,,,,,,,,,,,,,,,,,,,,,,,,,,,,,,,,,,,,,,,,,,,,,,,,,,
,,66c759ddaa2a477714a13d63,2026-03-17_09h31.21.510,kallum_motion_pilot_GIST_update_2,2026.1.1,Win32,32.67973856,66c759ddaa2a477714a13d63,69b95efdef24cd8a694e89ee,69b9607f56cf3c448c9f3c52,0.0921,0.0921,1,96,258,95,1,eightseven,,,,,,,,,,,,,,,,,,,,,,,,,,,,,,,,,,,,,,,,,,,,,,,,,,,,,,,,,,,,,,,,,,,,,,,,,,,,,,,,,,,,,,,,,,,,,,,,,,,,,,,,,,,,,,,,,,,,,,,,,,,,,,,,,,,,,,,,,
,,66c759ddaa2a477714a13d63,2026-03-17_09h31.21.510,kallum_motion_pilot_GIST_update_2,2026.1.1,Win32,32.67973856,66c759ddaa2a477714a13d63,69b95efdef24cd8a694e89ee,69b9607f56cf3c448c9f3c52,0.0923,0.0923,1,97,259,115,1,sixeight,,,,,,,,,,,,,,,,,,,,,,,,,,,,,,,,,,,,,,,,,,,,,,,,,,,,,,,,,,,,,,,,,,,,,,,,,,,,,,,,,,,,,,,,,,,,,,,,,,,,,,,,,,,,,,,,,,,,,,,,,,,,,,,,,,,,,,,,,
,,66c759ddaa2a477714a13d63,2026-03-17_09h31.21.510,kallum_motion_pilot_GIST_update_2,2026.1.1,Win32,32.67973856,66c759ddaa2a477714a13d63,69b95efdef24cd8a694e89ee,69b9607f56cf3c448c9f3c52,0.0925,0.0925,1,98,260,36,1,threeone,,,,,,,,,,,,,,,,,,,,,,,,,,,,,,,,,,,,,,,,,,,,,,,,,,,,,,,,,,,,,,,,,,,,,,,,,,,,,,,,,,,,,,,,,,,,,,,,,,,,,,,,,,,,,,,,,,,,,,,,,,,,,,,,,,,,,,,,,
,,66c759ddaa2a477714a13d63,2026-03-17_09h31.21.510,kallum_motion_pilot_GIST_update_2,2026.1.1,Win32,32.67973856,66c759ddaa2a477714a13d63,69b95efdef24cd8a694e89ee,69b9607f56cf3c448c9f3c52,0.0927,0.0927,1,99,261,128,1,fivesix,,,,,,,,,,,,,,,,,,,,,,,,,,,,,,,,,,,,,,,,,,,,,,,,,,,,,,,,,,,,,,,,,,,,,,,,,,,,,,,,,,,,,,,,,,,,,,,,,,,,,,,,,,,,,,,,,,,,,,,,,,,,,,,,,,,,,,,,,
,,66c759ddaa2a477714a13d63,2026-03-17_09h31.21.510,kallum_motion_pilot_GIST_update_2,2026.1.1,Win32,32.67973856,66c759ddaa2a477714a13d63,69b95efdef24cd8a694e89ee,69b9607f56cf3c448c9f3c52,0.093,0.093,1,100,262,23,1,fourthree,,,,,,,,,,,,,,,,,,,,,,,,,,,,,,,,,,,,,,,,,,,,,,,,,,,,,,,,,,,,,,,,,,,,,,,,,,,,,,,,,,,,,,,,,,,,,,,,,,,,,,,,,,,,,,,,,,,,,,,,,,,,,,,,,,,,,,,,,
,,66c759ddaa2a477714a13d63,2026-03-17_09h31.21.510,kallum_motion_pilot_GIST_update_2,2026.1.1,Win32,32.67973856,66c759ddaa2a477714a13d63,69b95efdef24cd8a694e89ee,69b9607f56cf3c448c9f3c52,0.0932,0.0932,1,101,263,61,1,threefour,,,,,,,,,,,,,,,,,,,,,,,,,,,,,,,,,,,,,,,,,,,,,,,,,,,,,,,,,,,,,,,,,,,,,,,,,,,,,,,,,,,,,,,,,,,,,,,,,,,,,,,,,,,,,,,,,,,,,,,,,,,,,,,,,,,,,,,,,
,,66c759ddaa2a477714a13d63,2026-03-17_09h31.21.510,kallum_motion_pilot_GIST_update_2,2026.1.1,Win32,32.67973856,66c759ddaa2a477714a13d63,69b95efdef24cd8a694e89ee,69b9607f56cf3c448c9f3c52,0.0935,0.0936,1,102,264,130,1,sixfive,,,,,,,,,,,,,,,,,,,,,,,,,,,,,,,,,,,,,,,,,,,,,,,,,,,,,,,,,,,,,,,,,,,,,,,,,,,,,,,,,,,,,,,,,,,,,,,,,,,,,,,,,,,,,,,,,,,,,,,,,,,,,,,,,,,,,,,,,
,,66c759ddaa2a477714a13d63,2026-03-17_09h31.21.510,kallum_motion_pilot_GIST_update_2,2026.1.1,Win32,32.67973856,66c759ddaa2a477714a13d63,69b95efdef24cd8a694e89ee,69b9607f56cf3c448c9f3c52,0.0939,0.0939,1,103,265,88,1,fivesix,,,,,,,,,,,,,,,,,,,,,,,,,,,,,,,,,,,,,,,,,,,,,,,,,,,,,,,,,,,,,,,,,,,,,,,,,,,,,,,,,,,,,,,,,,,,,,,,,,,,,,,,,,,,,,,,,,,,,,,,,,,,,,,,,,,,,,,,,
,,66c759ddaa2a477714a13d63,2026-03-17_09h31.21.510,kallum_motion_pilot_GIST_update_2,2026.1.1,Win32,32.67973856,66c759ddaa2a477714a13d63,69b95efdef24cd8a694e89ee,69b9607f56cf3c448c9f3c52,0.0941,0.0941,1,104,266,20,1,threeone,,,,,,,,,,,,,,,,,,,,,,,,,,,,,,,,,,,,,,,,,,,,,,,,,,,,,,,,,,,,,,,,,,,,,,,,,,,,,,,,,,,,,,,,,,,,,,,,,,,,,,,,,,,,,,,,,,,,,,,,,,,,,,,,,,,,,,,,,
