startup.started,startup.stopped,Prolific ID*,date,expName,psychopyVersion,OS,frameRate,participant,study_id,session,stimpositions.started,stimpositions.stopped,hardcoded_stimulus_positions.thisRepN,hardcoded_stimulus_positions.thisTrialN,hardcoded_stimulus_positions.thisN,hardcoded_stimulus_positions.thisIndex,hardcoded_stimulus_positions.ran,StimulusPos,stimorientation.started,stimorientation.stopped,prac_stimorientation_import_loop.thisRepN,prac_stimorientation_import_loop.thisTrialN,prac_stimorientation_import_loop.thisN,prac_stimorientation_import_loop.thisIndex,prac_stimorientation_import_loop.ran,Stimorientation,welcome_instr.started,welcome_instr.stopped,key_resp.keys,key_resp.rt,key_resp.duration,response_steppedout_1.started,response_steppedout_1.stopped,key_resp_20.keys,key_resp_20.rt,key_resp_20.duration,response_steppedout_2.started,response_steppedout_2.stopped,key_resp_19.keys,key_resp_19.rt,key_resp_19.duration,stim_response_instr.started,stim_response_instr.stopped,key_resp_15.keys,key_resp_15.rt,key_resp_15.duration,direction_instr_2.started,direction_instr_2.stopped,key_resp_9.keys,key_resp_9.rt,key_resp_9.duration,instr_prac.started,instr_prac.stopped,key_resp_10.keys,key_resp_10.rt,key_resp_10.duration,Stim1_display_prac.started,Stim1_display_prac.stopped,Ecc,Circle1_ori,Circle2_ori,response_prac.started,similarity,response_time,response_prac.stopped,mouse_5.x,mouse_5.y,mouse_5.leftButton,mouse_5.midButton,mouse_5.rightButton,mouse_5.clicked_name,responseprac_feedback.started,responseprac_feedback.stopped,summary2_prac.started,summary2_prac.stopped,mouse_6.x,mouse_6.y,mouse_6.leftButton,mouse_6.midButton,mouse_6.rightButton,mouse_6.clicked_name,duringprac.thisRepN,duringprac.thisTrialN,duringprac.thisN,duringprac.thisIndex,duringprac.ran,begin.started,begin.stopped,key_resp_22.keys,key_resp_22.rt,key_resp_22.duration,Stim1_display.started,Stim1_display.stopped,circle1_ori,circle2_ori,circle1_SF,circle2_SF,response.started,response.stopped,mouse.x,mouse.y,mouse.leftButton,mouse.midButton,mouse.rightButton,mouse.clicked_name,trialnumber,double_pass.thisRepN,double_pass.thisTrialN,double_pass.thisN,double_pass.thisIndex,double_pass.ran,double_pass.order,main_trial.thisRepN,main_trial.thisTrialN,main_trial.thisN,main_trial.thisIndex,main_trial.ran,main_trial.order,Trial_Counter,Catch,Frequencies,response_2.started,response_2.stopped,mouse_2.x,mouse_2.y,mouse_2.leftButton,mouse_2.midButton,mouse_2.rightButton,mouse_2.clicked_name,special_trial.started,special_trial.stopped,catch_1.started,catch_1.stopped,mouse_3.x,mouse_3.y,mouse_3.leftButton,mouse_3.midButton,mouse_3.rightButton,catchresponse,catchnumber,response_time_catch,response_sum.started,response_sum.stopped,mouse_11.x,mouse_11.y,mouse_11.leftButton,mouse_11.midButton,mouse_11.rightButton,flip_presentation_sequence_for_double_pass.started,flip_presentation_sequence_for_double_pass.stopped,goodbye.started,goodbye.stopped,key_resp_3.keys,key_resp_3.rt,key_resp_3.duration
0.001,0.0013,671ddd063e7c74b377de755a,2026-03-17_12h40.43.492,kallum_motion_pilot_GIST_update_2,2026.1.1,Win32,59.17159763,671ddd063e7c74b377de755a,69b92ab4aef6dee357cd729a,69b92f4109e46ed50e9e6c3b,,,,,,,,,,,,,,,,,,,,,,,,,,,,,,,,,,,,,,,,,,,,,,,,,,,,,,,,,,,,,,,,,,,,,,,,,,,,,,,,,,,,,,,,,,,,,,,,,,,,,,,,,,,,,,,,,,,,,,,,,,,,,,,,,,,,,,,,,,,,,,,,,
,,671ddd063e7c74b377de755a,2026-03-17_12h40.43.492,kallum_motion_pilot_GIST_update_2,2026.1.1,Win32,59.17159763,671ddd063e7c74b377de755a,69b92ab4aef6dee357cd729a,69b92f4109e46ed50e9e6c3b,0.0826,0.0828,0,0,0,160,1,fivesix,,,,,,,,,,,,,,,,,,,,,,,,,,,,,,,,,,,,,,,,,,,,,,,,,,,,,,,,,,,,,,,,,,,,,,,,,,,,,,,,,,,,,,,,,,,,,,,,,,,,,,,,,,,,,,,,,,,,,,,,,,,,,,,,,,,,,,,,,
,,671ddd063e7c74b377de755a,2026-03-17_12h40.43.492,kallum_motion_pilot_GIST_update_2,2026.1.1,Win32,59.17159763,671ddd063e7c74b377de755a,69b92ab4aef6dee357cd729a,69b92f4109e46ed50e9e6c3b,0.0834,0.0834,0,1,1,52,1,threeone,,,,,,,,,,,,,,,,,,,,,,,,,,,,,,,,,,,,,,,,,,,,,,,,,,,,,,,,,,,,,,,,,,,,,,,,,,,,,,,,,,,,,,,,,,,,,,,,,,,,,,,,,,,,,,,,,,,,,,,,,,,,,,,,,,,,,,,,,
,,671ddd063e7c74b377de755a,2026-03-17_12h40.43.492,kallum_motion_pilot_GIST_update_2,2026.1.1,Win32,59.17159763,671ddd063e7c74b377de755a,69b92ab4aef6dee357cd729a,69b92f4109e46ed50e9e6c3b,0.0837,0.0837,0,2,2,109,1,seveneight,,,,,,,,,,,,,,,,,,,,,,,,,,,,,,,,,,,,,,,,,,,,,,,,,,,,,,,,,,,,,,,,,,,,,,,,,,,,,,,,,,,,,,,,,,,,,,,,,,,,,,,,,,,,,,,,,,,,,,,,,,,,,,,,,,,,,,,,,
,,671ddd063e7c74b377de755a,2026-03-17_12h40.43.492,kallum_motion_pilot_GIST_update_2,2026.1.1,Win32,59.17159763,671ddd063e7c74b377de755a,69b92ab4aef6dee357cd729a,69b92f4109e46ed50e9e6c3b,0.0838,0.0839,0,3,3,84,1,sevenfive,,,,,,,,,,,,,,,,,,,,,,,,,,,,,,,,,,,,,,,,,,,,,,,,,,,,,,,,,,,,,,,,,,,,,,,,,,,,,,,,,,,,,,,,,,,,,,,,,,,,,,,,,,,,,,,,,,,,,,,,,,,,,,,,,,,,,,,,,
,,671ddd063e7c74b377de755a,2026-03-17_12h40.43.492,kallum_motion_pilot_GIST_update_2,2026.1.1,Win32,59.17159763,671ddd063e7c74b377de755a,69b92ab4aef6dee357cd729a,69b92f4109e46ed50e9e6c3b,0.0846,0.0847,0,4,4,100,1,sevenfive,,,,,,,,,,,,,,,,,,,,,,,,,,,,,,,,,,,,,,,,,,,,,,,,,,,,,,,,,,,,,,,,,,,,,,,,,,,,,,,,,,,,,,,,,,,,,,,,,,,,,,,,,,,,,,,,,,,,,,,,,,,,,,,,,,,,,,,,,
,,671ddd063e7c74b377de755a,2026-03-17_12h40.43.492,kallum_motion_pilot_GIST_update_2,2026.1.1,Win32,59.17159763,671ddd063e7c74b377de755a,69b92ab4aef6dee357cd729a,69b92f4109e46ed50e9e6c3b,0.0851,0.0851,0,5,5,23,1,fourthree,,,,,,,,,,,,,,,,,,,,,,,,,,,,,,,,,,,,,,,,,,,,,,,,,,,,,,,,,,,,,,,,,,,,,,,,,,,,,,,,,,,,,,,,,,,,,,,,,,,,,,,,,,,,,,,,,,,,,,,,,,,,,,,,,,,,,,,,,
,,671ddd063e7c74b377de755a,2026-03-17_12h40.43.492,kallum_motion_pilot_GIST_update_2,2026.1.1,Win32,59.17159763,671ddd063e7c74b377de755a,69b92ab4aef6dee357cd729a,69b92f4109e46ed50e9e6c3b,0.0853,0.0853,0,6,6,148,1,sevenfive,,,,,,,,,,,,,,,,,,,,,,,,,,,,,,,,,,,,,,,,,,,,,,,,,,,,,,,,,,,,,,,,,,,,,,,,,,,,,,,,,,,,,,,,,,,,,,,,,,,,,,,,,,,,,,,,,,,,,,,,,,,,,,,,,,,,,,,,,
,,671ddd063e7c74b377de755a,2026-03-17_12h40.43.492,kallum_motion_pilot_GIST_update_2,2026.1.1,Win32,59.17159763,671ddd063e7c74b377de755a,69b92ab4aef6dee357cd729a,69b92f4109e46ed50e9e6c3b,0.0856,0.0856,0,7,7,87,1,eightseven,,,,,,,,,,,,,,,,,,,,,,,,,,,,,,,,,,,,,,,,,,,,,,,,,,,,,,,,,,,,,,,,,,,,,,,,,,,,,,,,,,,,,,,,,,,,,,,,,,,,,,,,,,,,,,,,,,,,,,,,,,,,,,,,,,,,,,,,,
,,671ddd063e7c74b377de755a,2026-03-17_12h40.43.492,kallum_motion_pilot_GIST_update_2,2026.1.1,Win32,59.17159763,671ddd063e7c74b377de755a,69b92ab4aef6dee357cd729a,69b92f4109e46ed50e9e6c3b,0.086,0.0861,0,8,8,76,1,threeone,,,,,,,,,,,,,,,,,,,,,,,,,,,,,,,,,,,,,,,,,,,,,,,,,,,,,,,,,,,,,,,,,,,,,,,,,,,,,,,,,,,,,,,,,,,,,,,,,,,,,,,,,,,,,,,,,,,,,,,,,,,,,,,,,,,,,,,,,
,,671ddd063e7c74b377de755a,2026-03-17_12h40.43.492,kallum_motion_pilot_GIST_update_2,2026.1.1,Win32,59.17159763,671ddd063e7c74b377de755a,69b92ab4aef6dee357cd729a,69b92f4109e46ed50e9e6c3b,0.0863,0.0864,0,9,9,145,1,fiveseven,,,,,,,,,,,,,,,,,,,,,,,,,,,,,,,,,,,,,,,,,,,,,,,,,,,,,,,,,,,,,,,,,,,,,,,,,,,,,,,,,,,,,,,,,,,,,,,,,,,,,,,,,,,,,,,,,,,,,,,,,,,,,,,,,,,,,,,,,
,,671ddd063e7c74b377de755a,2026-03-17_12h40.43.492,kallum_motion_pilot_GIST_update_2,2026.1.1,Win32,59.17159763,671ddd063e7c74b377de755a,69b92ab4aef6dee357cd729a,69b92f4109e46ed50e9e6c3b,0.0866,0.0866,0,10,10,146,1,sixfive,,,,,,,,,,,,,,,,,,,,,,,,,,,,,,,,,,,,,,,,,,,,,,,,,,,,,,,,,,,,,,,,,,,,,,,,,,,,,,,,,,,,,,,,,,,,,,,,,,,,,,,,,,,,,,,,,,,,,,,,,,,,,,,,,,,,,,,,,
,,671ddd063e7c74b377de755a,2026-03-17_12h40.43.492,kallum_motion_pilot_GIST_update_2,2026.1.1,Win32,59.17159763,671ddd063e7c74b377de755a,69b92ab4aef6dee357cd729a,69b92f4109e46ed50e9e6c3b,0.0869,0.0869,0,11,11,108,1,sevenfive,,,,,,,,,,,,,,,,,,,,,,,,,,,,,,,,,,,,,,,,,,,,,,,,,,,,,,,,,,,,,,,,,,,,,,,,,,,,,,,,,,,,,,,,,,,,,,,,,,,,,,,,,,,,,,,,,,,,,,,,,,,,,,,,,,,,,,,,,
,,671ddd063e7c74b377de755a,2026-03-17_12h40.43.492,kallum_motion_pilot_GIST_update_2,2026.1.1,Win32,59.17159763,671ddd063e7c74b377de755a,69b92ab4aef6dee357cd729a,69b92f4109e46ed50e9e6c3b,0.0872,0.0872,0,12,12,16,1,onetwo,,,,,,,,,,,,,,,,,,,,,,,,,,,,,,,,,,,,,,,,,,,,,,,,,,,,,,,,,,,,,,,,,,,,,,,,,,,,,,,,,,,,,,,,,,,,,,,,,,,,,,,,,,,,,,,,,,,,,,,,,,,,,,,,,,,,,,,,,
,,671ddd063e7c74b377de755a,2026-03-17_12h40.43.492,kallum_motion_pilot_GIST_update_2,2026.1.1,Win32,59.17159763,671ddd063e7c74b377de755a,69b92ab4aef6dee357cd729a,69b92f4109e46ed50e9e6c3b,0.0876,0.0876,0,13,13,63,1,fourthree,,,,,,,,,,,,,,,,,,,,,,,,,,,,,,,,,,,,,,,,,,,,,,,,,,,,,,,,,,,,,,,,,,,,,,,,,,,,,,,,,,,,,,,,,,,,,,,,,,,,,,,,,,,,,,,,,,,,,,,,,,,,,,,,,,,,,,,,,
,,671ddd063e7c74b377de755a,2026-03-17_12h40.43.492,kallum_motion_pilot_GIST_update_2,2026.1.1,Win32,59.17159763,671ddd063e7c74b377de755a,69b92ab4aef6dee357cd729a,69b92f4109e46ed50e9e6c3b,0.0879,0.0879,0,14,14,1,1,onethree,,,,,,,,,,,,,,,,,,,,,,,,,,,,,,,,,,,,,,,,,,,,,,,,,,,,,,,,,,,,,,,,,,,,,,,,,,,,,,,,,,,,,,,,,,,,,,,,,,,,,,,,,,,,,,,,,,,,,,,,,,,,,,,,,,,,,,,,,
,,671ddd063e7c74b377de755a,2026-03-17_12h40.43.492,kallum_motion_pilot_GIST_update_2,2026.1.1,Win32,59.17159763,671ddd063e7c74b377de755a,69b92ab4aef6dee357cd729a,69b92f4109e46ed50e9e6c3b,0.0883,0.0883,0,15,15,150,1,eightsix,,,,,,,,,,,,,,,,,,,,,,,,,,,,,,,,,,,,,,,,,,,,,,,,,,,,,,,,,,,,,,,,,,,,,,,,,,,,,,,,,,,,,,,,,,,,,,,,,,,,,,,,,,,,,,,,,,,,,,,,,,,,,,,,,,,,,,,,,
,,671ddd063e7c74b377de755a,2026-03-17_12h40.43.492,kallum_motion_pilot_GIST_update_2,2026.1.1,Win32,59.17159763,671ddd063e7c74b377de755a,69b92ab4aef6dee357cd729a,69b92f4109e46ed50e9e6c3b,0.0885,0.0885,0,16,16,122,1,sixfive,,,,,,,,,,,,,,,,,,,,,,,,,,,,,,,,,,,,,,,,,,,,,,,,,,,,,,,,,,,,,,,,,,,,,,,,,,,,,,,,,,,,,,,,,,,,,,,,,,,,,,,,,,,,,,,,,,,,,,,,,,,,,,,,,,,,,,,,,
,,671ddd063e7c74b377de755a,2026-03-17_12h40.43.492,kallum_motion_pilot_GIST_update_2,2026.1.1,Win32,59.17159763,671ddd063e7c74b377de755a,69b92ab4aef6dee357cd729a,69b92f4109e46ed50e9e6c3b,0.0887,0.0887,0,17,17,124,1,sevenfive,,,,,,,,,,,,,,,,,,,,,,,,,,,,,,,,,,,,,,,,,,,,,,,,,,,,,,,,,,,,,,,,,,,,,,,,,,,,,,,,,,,,,,,,,,,,,,,,,,,,,,,,,,,,,,,,,,,,,,,,,,,,,,,,,,,,,,,,,
,,671ddd063e7c74b377de755a,2026-03-17_12h40.43.492,kallum_motion_pilot_GIST_update_2,2026.1.1,Win32,59.17159763,671ddd063e7c74b377de755a,69b92ab4aef6dee357cd729a,69b92f4109e46ed50e9e6c3b,0.089,0.0891,0,18,18,17,1,onethree,,,,,,,,,,,,,,,,,,,,,,,,,,,,,,,,,,,,,,,,,,,,,,,,,,,,,,,,,,,,,,,,,,,,,,,,,,,,,,,,,,,,,,,,,,,,,,,,,,,,,,,,,,,,,,,,,,,,,,,,,,,,,,,,,,,,,,,,,
,,671ddd063e7c74b377de755a,2026-03-17_12h40.43.492,kallum_motion_pilot_GIST_update_2,2026.1.1,Win32,59.17159763,671ddd063e7c74b377de755a,69b92ab4aef6dee357cd729a,69b92f4109e46ed50e9e6c3b,0.0916,0.0916,0,19,19,91,1,sixeight,,,,,,,,,,,,,,,,,,,,,,,,,,,,,,,,,,,,,,,,,,,,,,,,,,,,,,,,,,,,,,,,,,,,,,,,,,,,,,,,,,,,,,,,,,,,,,,,,,,,,,,,,,,,,,,,,,,,,,,,,,,,,,,,,,,,,,,,,
,,671ddd063e7c74b377de755a,2026-03-17_12h40.43.492,kallum_motion_pilot_GIST_update_2,2026.1.1,Win32,59.17159763,671ddd063e7c74b377de755a,69b92ab4aef6dee357cd729a,69b92f4109e46ed50e9e6c3b,0.0924,0.0924,0,20,20,110,1,eightsix,,,,,,,,,,,,,,,,,,,,,,,,,,,,,,,,,,,,,,,,,,,,,,,,,,,,,,,,,,,,,,,,,,,,,,,,,,,,,,,,,,,,,,,,,,,,,,,,,,,,,,,,,,,,,,,,,,,,,,,,,,,,,,,,,,,,,,,,,
,,671ddd063e7c74b377de755a,2026-03-17_12h40.43.492,kallum_motion_pilot_GIST_update_2,2026.1.1,Win32,59.17159763,671ddd063e7c74b377de755a,69b92ab4aef6dee357cd729a,69b92f4109e46ed50e9e6c3b,0.0926,0.0926,0,21,21,117,1,seveneight,,,,,,,,,,,,,,,,,,,,,,,,,,,,,,,,,,,,,,,,,,,,,,,,,,,,,,,,,,,,,,,,,,,,,,,,,,,,,,,,,,,,,,,,,,,,,,,,,,,,,,,,,,,,,,,,,,,,,,,,,,,,,,,,,,,,,,,,,
,,671ddd063e7c74b377de755a,2026-03-17_12h40.43.492,kallum_motion_pilot_GIST_update_2,2026.1.1,Win32,59.17159763,671ddd063e7c74b377de755a,69b92ab4aef6dee357cd729a,69b92f4109e46ed50e9e6c3b,0.0928,0.0929,0,22,22,96,1,fivesix,,,,,,,,,,,,,,,,,,,,,,,,,,,,,,,,,,,,,,,,,,,,,,,,,,,,,,,,,,,,,,,,,,,,,,,,,,,,,,,,,,,,,,,,,,,,,,,,,,,,,,,,,,,,,,,,,,,,,,,,,,,,,,,,,,,,,,,,,
,,671ddd063e7c74b377de755a,2026-03-17_12h40.43.492,kallum_motion_pilot_GIST_update_2,2026.1.1,Win32,59.17159763,671ddd063e7c74b377de755a,69b92ab4aef6dee357cd729a,69b92f4109e46ed50e9e6c3b,0.0931,0.0931,0,23,23,0,1,onetwo,,,,,,,,,,,,,,,,,,,,,,,,,,,,,,,,,,,,,,,,,,,,,,,,,,,,,,,,,,,,,,,,,,,,,,,,,,,,,,,,,,,,,,,,,,,,,,,,,,,,,,,,,,,,,,,,,,,,,,,,,,,,,,,,,,,,,,,,,
,,671ddd063e7c74b377de755a,2026-03-17_12h40.43.492,kallum_motion_pilot_GIST_update_2,2026.1.1,Win32,59.17159763,671ddd063e7c74b377de755a,69b92ab4aef6dee357cd729a,69b92f4109e46ed50e9e6c3b,0.0933,0.0933,0,24,24,42,1,twoone,,,,,,,,,,,,,,,,,,,,,,,,,,,,,,,,,,,,,,,,,,,,,,,,,,,,,,,,,,,,,,,,,,,,,,,,,,,,,,,,,,,,,,,,,,,,,,,,,,,,,,,,,,,,,,,,,,,,,,,,,,,,,,,,,,,,,,,,,
,,671ddd063e7c74b377de755a,2026-03-17_12h40.43.492,kallum_motion_pilot_GIST_update_2,2026.1.1,Win32,59.17159763,671ddd063e7c74b377de755a,69b92ab4aef6dee357cd729a,69b92f4109e46ed50e9e6c3b,0.0936,0.0936,0,25,25,127,1,eightseven,,,,,,,,,,,,,,,,,,,,,,,,,,,,,,,,,,,,,,,,,,,,,,,,,,,,,,,,,,,,,,,,,,,,,,,,,,,,,,,,,,,,,,,,,,,,,,,,,,,,,,,,,,,,,,,,,,,,,,,,,,,,,,,,,,,,,,,,,
,,671ddd063e7c74b377de755a,2026-03-17_12h40.43.492,kallum_motion_pilot_GIST_update_2,2026.1.1,Win32,59.17159763,671ddd063e7c74b377de755a,69b92ab4aef6dee357cd729a,69b92f4109e46ed50e9e6c3b,0.0939,0.0939,0,26,26,3,1,twofour,,,,,,,,,,,,,,,,,,,,,,,,,,,,,,,,,,,,,,,,,,,,,,,,,,,,,,,,,,,,,,,,,,,,,,,,,,,,,,,,,,,,,,,,,,,,,,,,,,,,,,,,,,,,,,,,,,,,,,,,,,,,,,,,,,,,,,,,,
,,671ddd063e7c74b377de755a,2026-03-17_12h40.43.492,kallum_motion_pilot_GIST_update_2,2026.1.1,Win32,59.17159763,671ddd063e7c74b377de755a,69b92ab4aef6dee357cd729a,69b92f4109e46ed50e9e6c3b,0.0942,0.0942,0,27,27,79,1,eightseven,,,,,,,,,,,,,,,,,,,,,,,,,,,,,,,,,,,,,,,,,,,,,,,,,,,,,,,,,,,,,,,,,,,,,,,,,,,,,,,,,,,,,,,,,,,,,,,,,,,,,,,,,,,,,,,,,,,,,,,,,,,,,,,,,,,,,,,,,
,,671ddd063e7c74b377de755a,2026-03-17_12h40.43.492,kallum_motion_pilot_GIST_update_2,2026.1.1,Win32,59.17159763,671ddd063e7c74b377de755a,69b92ab4aef6dee357cd729a,69b92f4109e46ed50e9e6c3b,0.0944,0.0948,0,28,28,29,1,threefour,,,,,,,,,,,,,,,,,,,,,,,,,,,,,,,,,,,,,,,,,,,,,,,,,,,,,,,,,,,,,,,,,,,,,,,,,,,,,,,,,,,,,,,,,,,,,,,,,,,,,,,,,,,,,,,,,,,,,,,,,,,,,,,,,,,,,,,,,
,,671ddd063e7c74b377de755a,2026-03-17_12h40.43.492,kallum_motion_pilot_GIST_update_2,2026.1.1,Win32,59.17159763,671ddd063e7c74b377de755a,69b92ab4aef6dee357cd729a,69b92f4109e46ed50e9e6c3b,0.0951,0.0951,0,29,29,151,1,eightseven,,,,,,,,,,,,,,,,,,,,,,,,,,,,,,,,,,,,,,,,,,,,,,,,,,,,,,,,,,,,,,,,,,,,,,,,,,,,,,,,,,,,,,,,,,,,,,,,,,,,,,,,,,,,,,,,,,,,,,,,,,,,,,,,,,,,,,,,,
,,671ddd063e7c74b377de755a,2026-03-17_12h40.43.492,kallum_motion_pilot_GIST_update_2,2026.1.1,Win32,59.17159763,671ddd063e7c74b377de755a,69b92ab4aef6dee357cd729a,69b92f4109e46ed50e9e6c3b,0.0953,0.0953,0,30,30,13,1,threefour,,,,,,,,,,,,,,,,,,,,,,,,,,,,,,,,,,,,,,,,,,,,,,,,,,,,,,,,,,,,,,,,,,,,,,,,,,,,,,,,,,,,,,,,,,,,,,,,,,,,,,,,,,,,,,,,,,,,,,,,,,,,,,,,,,,,,,,,,
,,671ddd063e7c74b377de755a,2026-03-17_12h40.43.492,kallum_motion_pilot_GIST_update_2,2026.1.1,Win32,59.17159763,671ddd063e7c74b377de755a,69b92ab4aef6dee357cd729a,69b92f4109e46ed50e9e6c3b,0.0955,0.0955,0,31,31,144,1,fivesix,,,,,,,,,,,,,,,,,,,,,,,,,,,,,,,,,,,,,,,,,,,,,,,,,,,,,,,,,,,,,,,,,,,,,,,,,,,,,,,,,,,,,,,,,,,,,,,,,,,,,,,,,,,,,,,,,,,,,,,,,,,,,,,,,,,,,,,,,
,,671ddd063e7c74b377de755a,2026-03-17_12h40.43.492,kallum_motion_pilot_GIST_update_2,2026.1.1,Win32,59.17159763,671ddd063e7c74b377de755a,69b92ab4aef6dee357cd729a,69b92f4109e46ed50e9e6c3b,0.0957,0.0957,0,32,32,58,1,twoone,,,,,,,,,,,,,,,,,,,,,,,,,,,,,,,,,,,,,,,,,,,,,,,,,,,,,,,,,,,,,,,,,,,,,,,,,,,,,,,,,,,,,,,,,,,,,,,,,,,,,,,,,,,,,,,,,,,,,,,,,,,,,,,,,,,,,,,,,
,,671ddd063e7c74b377de755a,2026-03-17_12h40.43.492,kallum_motion_pilot_GIST_update_2,2026.1.1,Win32,59.17159763,671ddd063e7c74b377de755a,69b92ab4aef6dee357cd729a,69b92f4109e46ed50e9e6c3b,0.096,0.096,0,33,33,82,1,sixfive,,,,,,,,,,,,,,,,,,,,,,,,,,,,,,,,,,,,,,,,,,,,,,,,,,,,,,,,,,,,,,,,,,,,,,,,,,,,,,,,,,,,,,,,,,,,,,,,,,,,,,,,,,,,,,,,,,,,,,,,,,,,,,,,,,,,,,,,,
,,671ddd063e7c74b377de755a,2026-03-17_12h40.43.492,kallum_motion_pilot_GIST_update_2,2026.1.1,Win32,59.17159763,671ddd063e7c74b377de755a,69b92ab4aef6dee357cd729a,69b92f4109e46ed50e9e6c3b,0.0962,0.0962,0,34,34,35,1,twofour,,,,,,,,,,,,,,,,,,,,,,,,,,,,,,,,,,,,,,,,,,,,,,,,,,,,,,,,,,,,,,,,,,,,,,,,,,,,,,,,,,,,,,,,,,,,,,,,,,,,,,,,,,,,,,,,,,,,,,,,,,,,,,,,,,,,,,,,,
,,671ddd063e7c74b377de755a,2026-03-17_12h40.43.492,kallum_motion_pilot_GIST_update_2,2026.1.1,Win32,59.17159763,671ddd063e7c74b377de755a,69b92ab4aef6dee357cd729a,69b92f4109e46ed50e9e6c3b,0.0965,0.0965,0,35,35,80,1,fivesix,,,,,,,,,,,,,,,,,,,,,,,,,,,,,,,,,,,,,,,,,,,,,,,,,,,,,,,,,,,,,,,,,,,,,,,,,,,,,,,,,,,,,,,,,,,,,,,,,,,,,,,,,,,,,,,,,,,,,,,,,,,,,,,,,,,,,,,,,
,,671ddd063e7c74b377de755a,2026-03-17_12h40.43.492,kallum_motion_pilot_GIST_update_2,2026.1.1,Win32,59.17159763,671ddd063e7c74b377de755a,69b92ab4aef6dee357cd729a,69b92f4109e46ed50e9e6c3b,0.0967,0.0967,0,36,36,153,1,fiveseven,,,,,,,,,,,,,,,,,,,,,,,,,,,,,,,,,,,,,,,,,,,,,,,,,,,,,,,,,,,,,,,,,,,,,,,,,,,,,,,,,,,,,,,,,,,,,,,,,,,,,,,,,,,,,,,,,,,,,,,,,,,,,,,,,,,,,,,,,
,,671ddd063e7c74b377de755a,2026-03-17_12h40.43.492,kallum_motion_pilot_GIST_update_2,2026.1.1,Win32,59.17159763,671ddd063e7c74b377de755a,69b92ab4aef6dee357cd729a,69b92f4109e46ed50e9e6c3b,0.0968,0.0968,0,37,37,50,1,twoone,,,,,,,,,,,,,,,,,,,,,,,,,,,,,,,,,,,,,,,,,,,,,,,,,,,,,,,,,,,,,,,,,,,,,,,,,,,,,,,,,,,,,,,,,,,,,,,,,,,,,,,,,,,,,,,,,,,,,,,,,,,,,,,,,,,,,,,,,
,,671ddd063e7c74b377de755a,2026-03-17_12h40.43.492,kallum_motion_pilot_GIST_update_2,2026.1.1,Win32,59.17159763,671ddd063e7c74b377de755a,69b92ab4aef6dee357cd729a,69b92f4109e46ed50e9e6c3b,0.097,0.0971,0,38,38,107,1,sixeight,,,,,,,,,,,,,,,,,,,,,,,,,,,,,,,,,,,,,,,,,,,,,,,,,,,,,,,,,,,,,,,,,,,,,,,,,,,,,,,,,,,,,,,,,,,,,,,,,,,,,,,,,,,,,,,,,,,,,,,,,,,,,,,,,,,,,,,,,
,,671ddd063e7c74b377de755a,2026-03-17_12h40.43.492,kallum_motion_pilot_GIST_update_2,2026.1.1,Win32,59.17159763,671ddd063e7c74b377de755a,69b92ab4aef6dee357cd729a,69b92f4109e46ed50e9e6c3b,0.0973,0.0973,0,39,39,72,1,onetwo,,,,,,,,,,,,,,,,,,,,,,,,,,,,,,,,,,,,,,,,,,,,,,,,,,,,,,,,,,,,,,,,,,,,,,,,,,,,,,,,,,,,,,,,,,,,,,,,,,,,,,,,,,,,,,,,,,,,,,,,,,,,,,,,,,,,,,,,,
,,671ddd063e7c74b377de755a,2026-03-17_12h40.43.492,kallum_motion_pilot_GIST_update_2,2026.1.1,Win32,59.17159763,671ddd063e7c74b377de755a,69b92ab4aef6dee357cd729a,69b92f4109e46ed50e9e6c3b,0.0976,0.0976,0,40,40,83,1,sixeight,,,,,,,,,,,,,,,,,,,,,,,,,,,,,,,,,,,,,,,,,,,,,,,,,,,,,,,,,,,,,,,,,,,,,,,,,,,,,,,,,,,,,,,,,,,,,,,,,,,,,,,,,,,,,,,,,,,,,,,,,,,,,,,,,,,,,,,,,
,,671ddd063e7c74b377de755a,2026-03-17_12h40.43.492,kallum_motion_pilot_GIST_update_2,2026.1.1,Win32,59.17159763,671ddd063e7c74b377de755a,69b92ab4aef6dee357cd729a,69b92f4109e46ed50e9e6c3b,0.0978,0.0978,0,41,41,18,1,twoone,,,,,,,,,,,,,,,,,,,,,,,,,,,,,,,,,,,,,,,,,,,,,,,,,,,,,,,,,,,,,,,,,,,,,,,,,,,,,,,,,,,,,,,,,,,,,,,,,,,,,,,,,,,,,,,,,,,,,,,,,,,,,,,,,,,,,,,,,
,,671ddd063e7c74b377de755a,2026-03-17_12h40.43.492,kallum_motion_pilot_GIST_update_2,2026.1.1,Win32,59.17159763,671ddd063e7c74b377de755a,69b92ab4aef6dee357cd729a,69b92f4109e46ed50e9e6c3b,0.098,0.098,0,42,42,133,1,seveneight,,,,,,,,,,,,,,,,,,,,,,,,,,,,,,,,,,,,,,,,,,,,,,,,,,,,,,,,,,,,,,,,,,,,,,,,,,,,,,,,,,,,,,,,,,,,,,,,,,,,,,,,,,,,,,,,,,,,,,,,,,,,,,,,,,,,,,,,,
,,671ddd063e7c74b377de755a,2026-03-17_12h40.43.492,kallum_motion_pilot_GIST_update_2,2026.1.1,Win32,59.17159763,671ddd063e7c74b377de755a,69b92ab4aef6dee357cd729a,69b92f4109e46ed50e9e6c3b,0.0983,0.0983,0,43,43,121,1,fiveseven,,,,,,,,,,,,,,,,,,,,,,,,,,,,,,,,,,,,,,,,,,,,,,,,,,,,,,,,,,,,,,,,,,,,,,,,,,,,,,,,,,,,,,,,,,,,,,,,,,,,,,,,,,,,,,,,,,,,,,,,,,,,,,,,,,,,,,,,,
,,671ddd063e7c74b377de755a,2026-03-17_12h40.43.492,kallum_motion_pilot_GIST_update_2,2026.1.1,Win32,59.17159763,671ddd063e7c74b377de755a,69b92ab4aef6dee357cd729a,69b92f4109e46ed50e9e6c3b,0.0986,0.0986,0,44,44,86,1,eightsix,,,,,,,,,,,,,,,,,,,,,,,,,,,,,,,,,,,,,,,,,,,,,,,,,,,,,,,,,,,,,,,,,,,,,,,,,,,,,,,,,,,,,,,,,,,,,,,,,,,,,,,,,,,,,,,,,,,,,,,,,,,,,,,,,,,,,,,,,
,,671ddd063e7c74b377de755a,2026-03-17_12h40.43.492,kallum_motion_pilot_GIST_update_2,2026.1.1,Win32,59.17159763,671ddd063e7c74b377de755a,69b92ab4aef6dee357cd729a,69b92f4109e46ed50e9e6c3b,0.0989,0.0989,0,45,45,85,1,seveneight,,,,,,,,,,,,,,,,,,,,,,,,,,,,,,,,,,,,,,,,,,,,,,,,,,,,,,,,,,,,,,,,,,,,,,,,,,,,,,,,,,,,,,,,,,,,,,,,,,,,,,,,,,,,,,,,,,,,,,,,,,,,,,,,,,,,,,,,,
,,671ddd063e7c74b377de755a,2026-03-17_12h40.43.492,kallum_motion_pilot_GIST_update_2,2026.1.1,Win32,59.17159763,671ddd063e7c74b377de755a,69b92ab4aef6dee357cd729a,69b92f4109e46ed50e9e6c3b,0.0991,0.0992,0,46,46,120,1,fivesix,,,,,,,,,,,,,,,,,,,,,,,,,,,,,,,,,,,,,,,,,,,,,,,,,,,,,,,,,,,,,,,,,,,,,,,,,,,,,,,,,,,,,,,,,,,,,,,,,,,,,,,,,,,,,,,,,,,,,,,,,,,,,,,,,,,,,,,,,
,,671ddd063e7c74b377de755a,2026-03-17_12h40.43.492,kallum_motion_pilot_GIST_update_2,2026.1.1,Win32,59.17159763,671ddd063e7c74b377de755a,69b92ab4aef6dee357cd729a,69b92f4109e46ed50e9e6c3b,0.0993,0.0994,0,47,47,81,1,fiveseven,,,,,,,,,,,,,,,,,,,,,,,,,,,,,,,,,,,,,,,,,,,,,,,,,,,,,,,,,,,,,,,,,,,,,,,,,,,,,,,,,,,,,,,,,,,,,,,,,,,,,,,,,,,,,,,,,,,,,,,,,,,,,,,,,,,,,,,,,
,,671ddd063e7c74b377de755a,2026-03-17_12h40.43.492,kallum_motion_pilot_GIST_update_2,2026.1.1,Win32,59.17159763,671ddd063e7c74b377de755a,69b92ab4aef6dee357cd729a,69b92f4109e46ed50e9e6c3b,0.0995,0.0995,0,48,48,56,1,onetwo,,,,,,,,,,,,,,,,,,,,,,,,,,,,,,,,,,,,,,,,,,,,,,,,,,,,,,,,,,,,,,,,,,,,,,,,,,,,,,,,,,,,,,,,,,,,,,,,,,,,,,,,,,,,,,,,,,,,,,,,,,,,,,,,,,,,,,,,,
,,671ddd063e7c74b377de755a,2026-03-17_12h40.43.492,kallum_motion_pilot_GIST_update_2,2026.1.1,Win32,59.17159763,671ddd063e7c74b377de755a,69b92ab4aef6dee357cd729a,69b92f4109e46ed50e9e6c3b,0.0998,0.0998,0,49,49,149,1,seveneight,,,,,,,,,,,,,,,,,,,,,,,,,,,,,,,,,,,,,,,,,,,,,,,,,,,,,,,,,,,,,,,,,,,,,,,,,,,,,,,,,,,,,,,,,,,,,,,,,,,,,,,,,,,,,,,,,,,,,,,,,,,,,,,,,,,,,,,,,
,,671ddd063e7c74b377de755a,2026-03-17_12h40.43.492,kallum_motion_pilot_GIST_update_2,2026.1.1,Win32,59.17159763,671ddd063e7c74b377de755a,69b92ab4aef6dee357cd729a,69b92f4109e46ed50e9e6c3b,0.1,0.1,0,50,50,139,1,sixeight,,,,,,,,,,,,,,,,,,,,,,,,,,,,,,,,,,,,,,,,,,,,,,,,,,,,,,,,,,,,,,,,,,,,,,,,,,,,,,,,,,,,,,,,,,,,,,,,,,,,,,,,,,,,,,,,,,,,,,,,,,,,,,,,,,,,,,,,,
,,671ddd063e7c74b377de755a,2026-03-17_12h40.43.492,kallum_motion_pilot_GIST_update_2,2026.1.1,Win32,59.17159763,671ddd063e7c74b377de755a,69b92ab4aef6dee357cd729a,69b92f4109e46ed50e9e6c3b,0.1001,0.1001,0,51,51,101,1,seveneight,,,,,,,,,,,,,,,,,,,,,,,,,,,,,,,,,,,,,,,,,,,,,,,,,,,,,,,,,,,,,,,,,,,,,,,,,,,,,,,,,,,,,,,,,,,,,,,,,,,,,,,,,,,,,,,,,,,,,,,,,,,,,,,,,,,,,,,,,
,,671ddd063e7c74b377de755a,2026-03-17_12h40.43.492,kallum_motion_pilot_GIST_update_2,2026.1.1,Win32,59.17159763,671ddd063e7c74b377de755a,69b92ab4aef6dee357cd729a,69b92f4109e46ed50e9e6c3b,0.1004,0.1004,0,52,52,88,1,fivesix,,,,,,,,,,,,,,,,,,,,,,,,,,,,,,,,,,,,,,,,,,,,,,,,,,,,,,,,,,,,,,,,,,,,,,,,,,,,,,,,,,,,,,,,,,,,,,,,,,,,,,,,,,,,,,,,,,,,,,,,,,,,,,,,,,,,,,,,,
,,671ddd063e7c74b377de755a,2026-03-17_12h40.43.492,kallum_motion_pilot_GIST_update_2,2026.1.1,Win32,59.17159763,671ddd063e7c74b377de755a,69b92ab4aef6dee357cd729a,69b92f4109e46ed50e9e6c3b,0.1006,0.1007,0,53,53,7,1,fourthree,,,,,,,,,,,,,,,,,,,,,,,,,,,,,,,,,,,,,,,,,,,,,,,,,,,,,,,,,,,,,,,,,,,,,,,,,,,,,,,,,,,,,,,,,,,,,,,,,,,,,,,,,,,,,,,,,,,,,,,,,,,,,,,,,,,,,,,,,
,,671ddd063e7c74b377de755a,2026-03-17_12h40.43.492,kallum_motion_pilot_GIST_update_2,2026.1.1,Win32,59.17159763,671ddd063e7c74b377de755a,69b92ab4aef6dee357cd729a,69b92f4109e46ed50e9e6c3b,0.1009,0.1009,0,54,54,53,1,threefour,,,,,,,,,,,,,,,,,,,,,,,,,,,,,,,,,,,,,,,,,,,,,,,,,,,,,,,,,,,,,,,,,,,,,,,,,,,,,,,,,,,,,,,,,,,,,,,,,,,,,,,,,,,,,,,,,,,,,,,,,,,,,,,,,,,,,,,,,
,,671ddd063e7c74b377de755a,2026-03-17_12h40.43.492,kallum_motion_pilot_GIST_update_2,2026.1.1,Win32,59.17159763,671ddd063e7c74b377de755a,69b92ab4aef6dee357cd729a,69b92f4109e46ed50e9e6c3b,0.1011,0.1011,0,55,55,97,1,fiveseven,,,,,,,,,,,,,,,,,,,,,,,,,,,,,,,,,,,,,,,,,,,,,,,,,,,,,,,,,,,,,,,,,,,,,,,,,,,,,,,,,,,,,,,,,,,,,,,,,,,,,,,,,,,,,,,,,,,,,,,,,,,,,,,,,,,,,,,,,
,,671ddd063e7c74b377de755a,2026-03-17_12h40.43.492,kallum_motion_pilot_GIST_update_2,2026.1.1,Win32,59.17159763,671ddd063e7c74b377de755a,69b92ab4aef6dee357cd729a,69b92f4109e46ed50e9e6c3b,0.1013,0.1013,0,56,56,55,1,fourthree,,,,,,,,,,,,,,,,,,,,,,,,,,,,,,,,,,,,,,,,,,,,,,,,,,,,,,,,,,,,,,,,,,,,,,,,,,,,,,,,,,,,,,,,,,,,,,,,,,,,,,,,,,,,,,,,,,,,,,,,,,,,,,,,,,,,,,,,,
,,671ddd063e7c74b377de755a,2026-03-17_12h40.43.492,kallum_motion_pilot_GIST_update_2,2026.1.1,Win32,59.17159763,671ddd063e7c74b377de755a,69b92ab4aef6dee357cd729a,69b92f4109e46ed50e9e6c3b,0.1015,0.1016,0,57,57,131,1,sixeight,,,,,,,,,,,,,,,,,,,,,,,,,,,,,,,,,,,,,,,,,,,,,,,,,,,,,,,,,,,,,,,,,,,,,,,,,,,,,,,,,,,,,,,,,,,,,,,,,,,,,,,,,,,,,,,,,,,,,,,,,,,,,,,,,,,,,,,,,
,,671ddd063e7c74b377de755a,2026-03-17_12h40.43.492,kallum_motion_pilot_GIST_update_2,2026.1.1,Win32,59.17159763,671ddd063e7c74b377de755a,69b92ab4aef6dee357cd729a,69b92f4109e46ed50e9e6c3b,0.1019,0.1019,0,58,58,118,1,eightsix,,,,,,,,,,,,,,,,,,,,,,,,,,,,,,,,,,,,,,,,,,,,,,,,,,,,,,,,,,,,,,,,,,,,,,,,,,,,,,,,,,,,,,,,,,,,,,,,,,,,,,,,,,,,,,,,,,,,,,,,,,,,,,,,,,,,,,,,,
,,671ddd063e7c74b377de755a,2026-03-17_12h40.43.492,kallum_motion_pilot_GIST_update_2,2026.1.1,Win32,59.17159763,671ddd063e7c74b377de755a,69b92ab4aef6dee357cd729a,69b92f4109e46ed50e9e6c3b,0.1021,0.1021,0,59,59,54,1,fourtwo,,,,,,,,,,,,,,,,,,,,,,,,,,,,,,,,,,,,,,,,,,,,,,,,,,,,,,,,,,,,,,,,,,,,,,,,,,,,,,,,,,,,,,,,,,,,,,,,,,,,,,,,,,,,,,,,,,,,,,,,,,,,,,,,,,,,,,,,,
,,671ddd063e7c74b377de755a,2026-03-17_12h40.43.492,kallum_motion_pilot_GIST_update_2,2026.1.1,Win32,59.17159763,671ddd063e7c74b377de755a,69b92ab4aef6dee357cd729a,69b92f4109e46ed50e9e6c3b,0.1023,0.1023,0,60,60,78,1,fourtwo,,,,,,,,,,,,,,,,,,,,,,,,,,,,,,,,,,,,,,,,,,,,,,,,,,,,,,,,,,,,,,,,,,,,,,,,,,,,,,,,,,,,,,,,,,,,,,,,,,,,,,,,,,,,,,,,,,,,,,,,,,,,,,,,,,,,,,,,,
,,671ddd063e7c74b377de755a,2026-03-17_12h40.43.492,kallum_motion_pilot_GIST_update_2,2026.1.1,Win32,59.17159763,671ddd063e7c74b377de755a,69b92ab4aef6dee357cd729a,69b92f4109e46ed50e9e6c3b,0.1025,0.1025,0,61,61,15,1,fourthree,,,,,,,,,,,,,,,,,,,,,,,,,,,,,,,,,,,,,,,,,,,,,,,,,,,,,,,,,,,,,,,,,,,,,,,,,,,,,,,,,,,,,,,,,,,,,,,,,,,,,,,,,,,,,,,,,,,,,,,,,,,,,,,,,,,,,,,,,
,,671ddd063e7c74b377de755a,2026-03-17_12h40.43.492,kallum_motion_pilot_GIST_update_2,2026.1.1,Win32,59.17159763,671ddd063e7c74b377de755a,69b92ab4aef6dee357cd729a,69b92f4109e46ed50e9e6c3b,0.1028,0.1028,0,62,62,67,1,twofour,,,,,,,,,,,,,,,,,,,,,,,,,,,,,,,,,,,,,,,,,,,,,,,,,,,,,,,,,,,,,,,,,,,,,,,,,,,,,,,,,,,,,,,,,,,,,,,,,,,,,,,,,,,,,,,,,,,,,,,,,,,,,,,,,,,,,,,,,
,,671ddd063e7c74b377de755a,2026-03-17_12h40.43.492,kallum_motion_pilot_GIST_update_2,2026.1.1,Win32,59.17159763,671ddd063e7c74b377de755a,69b92ab4aef6dee357cd729a,69b92f4109e46ed50e9e6c3b,0.1031,0.1031,0,63,63,116,1,sevenfive,,,,,,,,,,,,,,,,,,,,,,,,,,,,,,,,,,,,,,,,,,,,,,,,,,,,,,,,,,,,,,,,,,,,,,,,,,,,,,,,,,,,,,,,,,,,,,,,,,,,,,,,,,,,,,,,,,,,,,,,,,,,,,,,,,,,,,,,,
,,671ddd063e7c74b377de755a,2026-03-17_12h40.43.492,kallum_motion_pilot_GIST_update_2,2026.1.1,Win32,59.17159763,671ddd063e7c74b377de755a,69b92ab4aef6dee357cd729a,69b92f4109e46ed50e9e6c3b,0.1034,0.1034,0,64,64,68,1,threeone,,,,,,,,,,,,,,,,,,,,,,,,,,,,,,,,,,,,,,,,,,,,,,,,,,,,,,,,,,,,,,,,,,,,,,,,,,,,,,,,,,,,,,,,,,,,,,,,,,,,,,,,,,,,,,,,,,,,,,,,,,,,,,,,,,,,,,,,,
,,671ddd063e7c74b377de755a,2026-03-17_12h40.43.492,kallum_motion_pilot_GIST_update_2,2026.1.1,Win32,59.17159763,671ddd063e7c74b377de755a,69b92ab4aef6dee357cd729a,69b92f4109e46ed50e9e6c3b,0.1037,0.1037,0,65,65,70,1,fourtwo,,,,,,,,,,,,,,,,,,,,,,,,,,,,,,,,,,,,,,,,,,,,,,,,,,,,,,,,,,,,,,,,,,,,,,,,,,,,,,,,,,,,,,,,,,,,,,,,,,,,,,,,,,,,,,,,,,,,,,,,,,,,,,,,,,,,,,,,,
,,671ddd063e7c74b377de755a,2026-03-17_12h40.43.492,kallum_motion_pilot_GIST_update_2,2026.1.1,Win32,59.17159763,671ddd063e7c74b377de755a,69b92ab4aef6dee357cd729a,69b92f4109e46ed50e9e6c3b,0.1039,0.1039,0,66,66,14,1,fourtwo,,,,,,,,,,,,,,,,,,,,,,,,,,,,,,,,,,,,,,,,,,,,,,,,,,,,,,,,,,,,,,,,,,,,,,,,,,,,,,,,,,,,,,,,,,,,,,,,,,,,,,,,,,,,,,,,,,,,,,,,,,,,,,,,,,,,,,,,,
,,671ddd063e7c74b377de755a,2026-03-17_12h40.43.492,kallum_motion_pilot_GIST_update_2,2026.1.1,Win32,59.17159763,671ddd063e7c74b377de755a,69b92ab4aef6dee357cd729a,69b92f4109e46ed50e9e6c3b,0.1041,0.1041,0,67,67,49,1,onethree,,,,,,,,,,,,,,,,,,,,,,,,,,,,,,,,,,,,,,,,,,,,,,,,,,,,,,,,,,,,,,,,,,,,,,,,,,,,,,,,,,,,,,,,,,,,,,,,,,,,,,,,,,,,,,,,,,,,,,,,,,,,,,,,,,,,,,,,,
,,671ddd063e7c74b377de755a,2026-03-17_12h40.43.492,kallum_motion_pilot_GIST_update_2,2026.1.1,Win32,59.17159763,671ddd063e7c74b377de755a,69b92ab4aef6dee357cd729a,69b92f4109e46ed50e9e6c3b,0.1043,0.1043,0,68,68,27,1,twofour,,,,,,,,,,,,,,,,,,,,,,,,,,,,,,,,,,,,,,,,,,,,,,,,,,,,,,,,,,,,,,,,,,,,,,,,,,,,,,,,,,,,,,,,,,,,,,,,,,,,,,,,,,,,,,,,,,,,,,,,,,,,,,,,,,,,,,,,,
,,671ddd063e7c74b377de755a,2026-03-17_12h40.43.492,kallum_motion_pilot_GIST_update_2,2026.1.1,Win32,59.17159763,671ddd063e7c74b377de755a,69b92ab4aef6dee357cd729a,69b92f4109e46ed50e9e6c3b,0.1046,0.1046,0,69,69,103,1,eightseven,,,,,,,,,,,,,,,,,,,,,,,,,,,,,,,,,,,,,,,,,,,,,,,,,,,,,,,,,,,,,,,,,,,,,,,,,,,,,,,,,,,,,,,,,,,,,,,,,,,,,,,,,,,,,,,,,,,,,,,,,,,,,,,,,,,,,,,,,
,,671ddd063e7c74b377de755a,2026-03-17_12h40.43.492,kallum_motion_pilot_GIST_update_2,2026.1.1,Win32,59.17159763,671ddd063e7c74b377de755a,69b92ab4aef6dee357cd729a,69b92f4109e46ed50e9e6c3b,0.1049,0.1049,0,70,70,51,1,twofour,,,,,,,,,,,,,,,,,,,,,,,,,,,,,,,,,,,,,,,,,,,,,,,,,,,,,,,,,,,,,,,,,,,,,,,,,,,,,,,,,,,,,,,,,,,,,,,,,,,,,,,,,,,,,,,,,,,,,,,,,,,,,,,,,,,,,,,,,
,,671ddd063e7c74b377de755a,2026-03-17_12h40.43.492,kallum_motion_pilot_GIST_update_2,2026.1.1,Win32,59.17159763,671ddd063e7c74b377de755a,69b92ab4aef6dee357cd729a,69b92f4109e46ed50e9e6c3b,0.1052,0.1052,0,71,71,41,1,onethree,,,,,,,,,,,,,,,,,,,,,,,,,,,,,,,,,,,,,,,,,,,,,,,,,,,,,,,,,,,,,,,,,,,,,,,,,,,,,,,,,,,,,,,,,,,,,,,,,,,,,,,,,,,,,,,,,,,,,,,,,,,,,,,,,,,,,,,,,
,,671ddd063e7c74b377de755a,2026-03-17_12h40.43.492,kallum_motion_pilot_GIST_update_2,2026.1.1,Win32,59.17159763,671ddd063e7c74b377de755a,69b92ab4aef6dee357cd729a,69b92f4109e46ed50e9e6c3b,0.1054,0.1054,0,72,72,112,1,fivesix,,,,,,,,,,,,,,,,,,,,,,,,,,,,,,,,,,,,,,,,,,,,,,,,,,,,,,,,,,,,,,,,,,,,,,,,,,,,,,,,,,,,,,,,,,,,,,,,,,,,,,,,,,,,,,,,,,,,,,,,,,,,,,,,,,,,,,,,,
,,671ddd063e7c74b377de755a,2026-03-17_12h40.43.492,kallum_motion_pilot_GIST_update_2,2026.1.1,Win32,59.17159763,671ddd063e7c74b377de755a,69b92ab4aef6dee357cd729a,69b92f4109e46ed50e9e6c3b,0.1056,0.1056,0,73,73,44,1,threeone,,,,,,,,,,,,,,,,,,,,,,,,,,,,,,,,,,,,,,,,,,,,,,,,,,,,,,,,,,,,,,,,,,,,,,,,,,,,,,,,,,,,,,,,,,,,,,,,,,,,,,,,,,,,,,,,,,,,,,,,,,,,,,,,,,,,,,,,,
,,671ddd063e7c74b377de755a,2026-03-17_12h40.43.492,kallum_motion_pilot_GIST_update_2,2026.1.1,Win32,59.17159763,671ddd063e7c74b377de755a,69b92ab4aef6dee357cd729a,69b92f4109e46ed50e9e6c3b,0.1057,0.1058,0,74,74,30,1,fourtwo,,,,,,,,,,,,,,,,,,,,,,,,,,,,,,,,,,,,,,,,,,,,,,,,,,,,,,,,,,,,,,,,,,,,,,,,,,,,,,,,,,,,,,,,,,,,,,,,,,,,,,,,,,,,,,,,,,,,,,,,,,,,,,,,,,,,,,,,,
,,671ddd063e7c74b377de755a,2026-03-17_12h40.43.492,kallum_motion_pilot_GIST_update_2,2026.1.1,Win32,59.17159763,671ddd063e7c74b377de755a,69b92ab4aef6dee357cd729a,69b92f4109e46ed50e9e6c3b,0.106,0.106,0,75,75,2,1,twoone,,,,,,,,,,,,,,,,,,,,,,,,,,,,,,,,,,,,,,,,,,,,,,,,,,,,,,,,,,,,,,,,,,,,,,,,,,,,,,,,,,,,,,,,,,,,,,,,,,,,,,,,,,,,,,,,,,,,,,,,,,,,,,,,,,,,,,,,,
,,671ddd063e7c74b377de755a,2026-03-17_12h40.43.492,kallum_motion_pilot_GIST_update_2,2026.1.1,Win32,59.17159763,671ddd063e7c74b377de755a,69b92ab4aef6dee357cd729a,69b92f4109e46ed50e9e6c3b,0.1062,0.1062,0,76,76,102,1,eightsix,,,,,,,,,,,,,,,,,,,,,,,,,,,,,,,,,,,,,,,,,,,,,,,,,,,,,,,,,,,,,,,,,,,,,,,,,,,,,,,,,,,,,,,,,,,,,,,,,,,,,,,,,,,,,,,,,,,,,,,,,,,,,,,,,,,,,,,,,
,,671ddd063e7c74b377de755a,2026-03-17_12h40.43.492,kallum_motion_pilot_GIST_update_2,2026.1.1,Win32,59.17159763,671ddd063e7c74b377de755a,69b92ab4aef6dee357cd729a,69b92f4109e46ed50e9e6c3b,0.1064,0.1064,0,77,77,159,1,eightseven,,,,,,,,,,,,,,,,,,,,,,,,,,,,,,,,,,,,,,,,,,,,,,,,,,,,,,,,,,,,,,,,,,,,,,,,,,,,,,,,,,,,,,,,,,,,,,,,,,,,,,,,,,,,,,,,,,,,,,,,,,,,,,,,,,,,,,,,,
,,671ddd063e7c74b377de755a,2026-03-17_12h40.43.492,kallum_motion_pilot_GIST_update_2,2026.1.1,Win32,59.17159763,671ddd063e7c74b377de755a,69b92ab4aef6dee357cd729a,69b92f4109e46ed50e9e6c3b,0.1067,0.1068,0,78,78,129,1,fiveseven,,,,,,,,,,,,,,,,,,,,,,,,,,,,,,,,,,,,,,,,,,,,,,,,,,,,,,,,,,,,,,,,,,,,,,,,,,,,,,,,,,,,,,,,,,,,,,,,,,,,,,,,,,,,,,,,,,,,,,,,,,,,,,,,,,,,,,,,,
,,671ddd063e7c74b377de755a,2026-03-17_12h40.43.492,kallum_motion_pilot_GIST_update_2,2026.1.1,Win32,59.17159763,671ddd063e7c74b377de755a,69b92ab4aef6dee357cd729a,69b92f4109e46ed50e9e6c3b,0.107,0.107,0,79,79,105,1,fiveseven,,,,,,,,,,,,,,,,,,,,,,,,,,,,,,,,,,,,,,,,,,,,,,,,,,,,,,,,,,,,,,,,,,,,,,,,,,,,,,,,,,,,,,,,,,,,,,,,,,,,,,,,,,,,,,,,,,,,,,,,,,,,,,,,,,,,,,,,,
,,671ddd063e7c74b377de755a,2026-03-17_12h40.43.492,kallum_motion_pilot_GIST_update_2,2026.1.1,Win32,59.17159763,671ddd063e7c74b377de755a,69b92ab4aef6dee357cd729a,69b92f4109e46ed50e9e6c3b,0.1073,0.1073,0,80,80,98,1,sixfive,,,,,,,,,,,,,,,,,,,,,,,,,,,,,,,,,,,,,,,,,,,,,,,,,,,,,,,,,,,,,,,,,,,,,,,,,,,,,,,,,,,,,,,,,,,,,,,,,,,,,,,,,,,,,,,,,,,,,,,,,,,,,,,,,,,,,,,,,
,,671ddd063e7c74b377de755a,2026-03-17_12h40.43.492,kallum_motion_pilot_GIST_update_2,2026.1.1,Win32,59.17159763,671ddd063e7c74b377de755a,69b92ab4aef6dee357cd729a,69b92f4109e46ed50e9e6c3b,0.1075,0.1075,0,81,81,130,1,sixfive,,,,,,,,,,,,,,,,,,,,,,,,,,,,,,,,,,,,,,,,,,,,,,,,,,,,,,,,,,,,,,,,,,,,,,,,,,,,,,,,,,,,,,,,,,,,,,,,,,,,,,,,,,,,,,,,,,,,,,,,,,,,,,,,,,,,,,,,,
,,671ddd063e7c74b377de755a,2026-03-17_12h40.43.492,kallum_motion_pilot_GIST_update_2,2026.1.1,Win32,59.17159763,671ddd063e7c74b377de755a,69b92ab4aef6dee357cd729a,69b92f4109e46ed50e9e6c3b,0.1079,0.1079,0,82,82,64,1,onetwo,,,,,,,,,,,,,,,,,,,,,,,,,,,,,,,,,,,,,,,,,,,,,,,,,,,,,,,,,,,,,,,,,,,,,,,,,,,,,,,,,,,,,,,,,,,,,,,,,,,,,,,,,,,,,,,,,,,,,,,,,,,,,,,,,,,,,,,,,
,,671ddd063e7c74b377de755a,2026-03-17_12h40.43.492,kallum_motion_pilot_GIST_update_2,2026.1.1,Win32,59.17159763,671ddd063e7c74b377de755a,69b92ab4aef6dee357cd729a,69b92f4109e46ed50e9e6c3b,0.108,0.108,0,83,83,161,1,fiveseven,,,,,,,,,,,,,,,,,,,,,,,,,,,,,,,,,,,,,,,,,,,,,,,,,,,,,,,,,,,,,,,,,,,,,,,,,,,,,,,,,,,,,,,,,,,,,,,,,,,,,,,,,,,,,,,,,,,,,,,,,,,,,,,,,,,,,,,,,
,,671ddd063e7c74b377de755a,2026-03-17_12h40.43.492,kallum_motion_pilot_GIST_update_2,2026.1.1,Win32,59.17159763,671ddd063e7c74b377de755a,69b92ab4aef6dee357cd729a,69b92f4109e46ed50e9e6c3b,0.1084,0.1084,0,84,84,142,1,eightsix,,,,,,,,,,,,,,,,,,,,,,,,,,,,,,,,,,,,,,,,,,,,,,,,,,,,,,,,,,,,,,,,,,,,,,,,,,,,,,,,,,,,,,,,,,,,,,,,,,,,,,,,,,,,,,,,,,,,,,,,,,,,,,,,,,,,,,,,,
,,671ddd063e7c74b377de755a,2026-03-17_12h40.43.492,kallum_motion_pilot_GIST_update_2,2026.1.1,Win32,59.17159763,671ddd063e7c74b377de755a,69b92ab4aef6dee357cd729a,69b92f4109e46ed50e9e6c3b,0.1086,0.1086,0,85,85,132,1,sevenfive,,,,,,,,,,,,,,,,,,,,,,,,,,,,,,,,,,,,,,,,,,,,,,,,,,,,,,,,,,,,,,,,,,,,,,,,,,,,,,,,,,,,,,,,,,,,,,,,,,,,,,,,,,,,,,,,,,,,,,,,,,,,,,,,,,,,,,,,,
,,671ddd063e7c74b377de755a,2026-03-17_12h40.43.492,kallum_motion_pilot_GIST_update_2,2026.1.1,Win32,59.17159763,671ddd063e7c74b377de755a,69b92ab4aef6dee357cd729a,69b92f4109e46ed50e9e6c3b,0.1089,0.109,0,86,86,69,1,threefour,,,,,,,,,,,,,,,,,,,,,,,,,,,,,,,,,,,,,,,,,,,,,,,,,,,,,,,,,,,,,,,,,,,,,,,,,,,,,,,,,,,,,,,,,,,,,,,,,,,,,,,,,,,,,,,,,,,,,,,,,,,,,,,,,,,,,,,,,
,,671ddd063e7c74b377de755a,2026-03-17_12h40.43.492,kallum_motion_pilot_GIST_update_2,2026.1.1,Win32,59.17159763,671ddd063e7c74b377de755a,69b92ab4aef6dee357cd729a,69b92f4109e46ed50e9e6c3b,0.1092,0.1092,0,87,87,123,1,sixeight,,,,,,,,,,,,,,,,,,,,,,,,,,,,,,,,,,,,,,,,,,,,,,,,,,,,,,,,,,,,,,,,,,,,,,,,,,,,,,,,,,,,,,,,,,,,,,,,,,,,,,,,,,,,,,,,,,,,,,,,,,,,,,,,,,,,,,,,,
,,671ddd063e7c74b377de755a,2026-03-17_12h40.43.492,kallum_motion_pilot_GIST_update_2,2026.1.1,Win32,59.17159763,671ddd063e7c74b377de755a,69b92ab4aef6dee357cd729a,69b92f4109e46ed50e9e6c3b,0.1095,0.1095,0,88,88,104,1,fivesix,,,,,,,,,,,,,,,,,,,,,,,,,,,,,,,,,,,,,,,,,,,,,,,,,,,,,,,,,,,,,,,,,,,,,,,,,,,,,,,,,,,,,,,,,,,,,,,,,,,,,,,,,,,,,,,,,,,,,,,,,,,,,,,,,,,,,,,,,
,,671ddd063e7c74b377de755a,2026-03-17_12h40.43.492,kallum_motion_pilot_GIST_update_2,2026.1.1,Win32,59.17159763,671ddd063e7c74b377de755a,69b92ab4aef6dee357cd729a,69b92f4109e46ed50e9e6c3b,0.1097,0.1098,0,89,89,22,1,fourtwo,,,,,,,,,,,,,,,,,,,,,,,,,,,,,,,,,,,,,,,,,,,,,,,,,,,,,,,,,,,,,,,,,,,,,,,,,,,,,,,,,,,,,,,,,,,,,,,,,,,,,,,,,,,,,,,,,,,,,,,,,,,,,,,,,,,,,,,,,
,,671ddd063e7c74b377de755a,2026-03-17_12h40.43.492,kallum_motion_pilot_GIST_update_2,2026.1.1,Win32,59.17159763,671ddd063e7c74b377de755a,69b92ab4aef6dee357cd729a,69b92f4109e46ed50e9e6c3b,0.1099,0.1099,0,90,90,20,1,threeone,,,,,,,,,,,,,,,,,,,,,,,,,,,,,,,,,,,,,,,,,,,,,,,,,,,,,,,,,,,,,,,,,,,,,,,,,,,,,,,,,,,,,,,,,,,,,,,,,,,,,,,,,,,,,,,,,,,,,,,,,,,,,,,,,,,,,,,,,
,,671ddd063e7c74b377de755a,2026-03-17_12h40.43.492,kallum_motion_pilot_GIST_update_2,2026.1.1,Win32,59.17159763,671ddd063e7c74b377de755a,69b92ab4aef6dee357cd729a,69b92f4109e46ed50e9e6c3b,0.1102,0.1102,0,91,91,90,1,sixfive,,,,,,,,,,,,,,,,,,,,,,,,,,,,,,,,,,,,,,,,,,,,,,,,,,,,,,,,,,,,,,,,,,,,,,,,,,,,,,,,,,,,,,,,,,,,,,,,,,,,,,,,,,,,,,,,,,,,,,,,,,,,,,,,,,,,,,,,,
,,671ddd063e7c74b377de755a,2026-03-17_12h40.43.492,kallum_motion_pilot_GIST_update_2,2026.1.1,Win32,59.17159763,671ddd063e7c74b377de755a,69b92ab4aef6dee357cd729a,69b92f4109e46ed50e9e6c3b,0.1105,0.1105,0,92,92,147,1,sixeight,,,,,,,,,,,,,,,,,,,,,,,,,,,,,,,,,,,,,,,,,,,,,,,,,,,,,,,,,,,,,,,,,,,,,,,,,,,,,,,,,,,,,,,,,,,,,,,,,,,,,,,,,,,,,,,,,,,,,,,,,,,,,,,,,,,,,,,,,
,,671ddd063e7c74b377de755a,2026-03-17_12h40.43.492,kallum_motion_pilot_GIST_update_2,2026.1.1,Win32,59.17159763,671ddd063e7c74b377de755a,69b92ab4aef6dee357cd729a,69b92f4109e46ed50e9e6c3b,0.1108,0.1108,0,93,93,95,1,eightseven,,,,,,,,,,,,,,,,,,,,,,,,,,,,,,,,,,,,,,,,,,,,,,,,,,,,,,,,,,,,,,,,,,,,,,,,,,,,,,,,,,,,,,,,,,,,,,,,,,,,,,,,,,,,,,,,,,,,,,,,,,,,,,,,,,,,,,,,,
,,671ddd063e7c74b377de755a,2026-03-17_12h40.43.492,kallum_motion_pilot_GIST_update_2,2026.1.1,Win32,59.17159763,671ddd063e7c74b377de755a,69b92ab4aef6dee357cd729a,69b92f4109e46ed50e9e6c3b,0.1111,0.1111,0,94,94,12,1,threeone,,,,,,,,,,,,,,,,,,,,,,,,,,,,,,,,,,,,,,,,,,,,,,,,,,,,,,,,,,,,,,,,,,,,,,,,,,,,,,,,,,,,,,,,,,,,,,,,,,,,,,,,,,,,,,,,,,,,,,,,,,,,,,,,,,,,,,,,,
,,671ddd063e7c74b377de755a,2026-03-17_12h40.43.492,kallum_motion_pilot_GIST_update_2,2026.1.1,Win32,59.17159763,671ddd063e7c74b377de755a,69b92ab4aef6dee357cd729a,69b92f4109e46ed50e9e6c3b,0.1116,0.1116,0,95,95,40,1,onetwo,,,,,,,,,,,,,,,,,,,,,,,,,,,,,,,,,,,,,,,,,,,,,,,,,,,,,,,,,,,,,,,,,,,,,,,,,,,,,,,,,,,,,,,,,,,,,,,,,,,,,,,,,,,,,,,,,,,,,,,,,,,,,,,,,,,,,,,,,
,,671ddd063e7c74b377de755a,2026-03-17_12h40.43.492,kallum_motion_pilot_GIST_update_2,2026.1.1,Win32,59.17159763,671ddd063e7c74b377de755a,69b92ab4aef6dee357cd729a,69b92f4109e46ed50e9e6c3b,0.1119,0.112,0,96,96,43,1,twofour,,,,,,,,,,,,,,,,,,,,,,,,,,,,,,,,,,,,,,,,,,,,,,,,,,,,,,,,,,,,,,,,,,,,,,,,,,,,,,,,,,,,,,,,,,,,,,,,,,,,,,,,,,,,,,,,,,,,,,,,,,,,,,,,,,,,,,,,,
,,671ddd063e7c74b377de755a,2026-03-17_12h40.43.492,kallum_motion_pilot_GIST_update_2,2026.1.1,Win32,59.17159763,671ddd063e7c74b377de755a,69b92ab4aef6dee357cd729a,69b92f4109e46ed50e9e6c3b,0.1122,0.1122,0,97,97,141,1,seveneight,,,,,,,,,,,,,,,,,,,,,,,,,,,,,,,,,,,,,,,,,,,,,,,,,,,,,,,,,,,,,,,,,,,,,,,,,,,,,,,,,,,,,,,,,,,,,,,,,,,,,,,,,,,,,,,,,,,,,,,,,,,,,,,,,,,,,,,,,
,,671ddd063e7c74b377de755a,2026-03-17_12h40.43.492,kallum_motion_pilot_GIST_update_2,2026.1.1,Win32,59.17159763,671ddd063e7c74b377de755a,69b92ab4aef6dee357cd729a,69b92f4109e46ed50e9e6c3b,0.1126,0.1126,0,98,98,39,1,fourthree,,,,,,,,,,,,,,,,,,,,,,,,,,,,,,,,,,,,,,,,,,,,,,,,,,,,,,,,,,,,,,,,,,,,,,,,,,,,,,,,,,,,,,,,,,,,,,,,,,,,,,,,,,,,,,,,,,,,,,,,,,,,,,,,,,,,,,,,,
,,671ddd063e7c74b377de755a,2026-03-17_12h40.43.492,kallum_motion_pilot_GIST_update_2,2026.1.1,Win32,59.17159763,671ddd063e7c74b377de755a,69b92ab4aef6dee357cd729a,69b92f4109e46ed50e9e6c3b,0.1128,0.1128,0,99,99,28,1,threeone,,,,,,,,,,,,,,,,,,,,,,,,,,,,,,,,,,,,,,,,,,,,,,,,,,,,,,,,,,,,,,,,,,,,,,,,,,,,,,,,,,,,,,,,,,,,,,,,,,,,,,,,,,,,,,,,,,,,,,,,,,,,,,,,,,,,,,,,,
,,671ddd063e7c74b377de755a,2026-03-17_12h40.43.492,kallum_motion_pilot_GIST_update_2,2026.1.1,Win32,59.17159763,671ddd063e7c74b377de755a,69b92ab4aef6dee357cd729a,69b92f4109e46ed50e9e6c3b,0.1131,0.1131,0,100,100,115,1,sixeight,,,,,,,,,,,,,,,,,,,,,,,,,,,,,,,,,,,,,,,,,,,,,,,,,,,,,,,,,,,,,,,,,,,,,,,,,,,,,,,,,,,,,,,,,,,,,,,,,,,,,,,,,,,,,,,,,,,,,,,,,,,,,,,,,,,,,,,,,
,,671ddd063e7c74b377de755a,2026-03-17_12h40.43.492,kallum_motion_pilot_GIST_update_2,2026.1.1,Win32,59.17159763,671ddd063e7c74b377de755a,69b92ab4aef6dee357cd729a,69b92f4109e46ed50e9e6c3b,0.1134,0.1135,0,101,101,71,1,fourthree,,,,,,,,,,,,,,,,,,,,,,,,,,,,,,,,,,,,,,,,,,,,,,,,,,,,,,,,,,,,,,,,,,,,,,,,,,,,,,,,,,,,,,,,,,,,,,,,,,,,,,,,,,,,,,,,,,,,,,,,,,,,,,,,,,,,,,,,,
,,671ddd063e7c74b377de755a,2026-03-17_12h40.43.492,kallum_motion_pilot_GIST_update_2,2026.1.1,Win32,59.17159763,671ddd063e7c74b377de755a,69b92ab4aef6dee357cd729a,69b92f4109e46ed50e9e6c3b,0.1137,0.1137,0,102,102,36,1,threeone,,,,,,,,,,,,,,,,,,,,,,,,,,,,,,,,,,,,,,,,,,,,,,,,,,,,,,,,,,,,,,,,,,,,,,,,,,,,,,,,,,,,,,,,,,,,,,,,,,,,,,,,,,,,,,,,,,,,,,,,,,,,,,,,,,,,,,,,,
,,671ddd063e7c74b377de755a,2026-03-17_12h40.43.492,kallum_motion_pilot_GIST_update_2,2026.1.1,Win32,59.17159763,671ddd063e7c74b377de755a,69b92ab4aef6dee357cd729a,69b92f4109e46ed50e9e6c3b,0.114,0.114,0,103,103,57,1,onethree,,,,,,,,,,,,,,,,,,,,,,,,,,,,,,,,,,,,,,,,,,,,,,,,,,,,,,,,,,,,,,,,,,,,,,,,,,,,,,,,,,,,,,,,,,,,,,,,,,,,,,,,,,,,,,,,,,,,,,,,,,,,,,,,,,,,,,,,,
,,671ddd063e7c74b377de755a,2026-03-17_12h40.43.492,kallum_motion_pilot_GIST_update_2,2026.1.1,Win32,59.17159763,671ddd063e7c74b377de755a,69b92ab4aef6dee357cd729a,69b92f4109e46ed50e9e6c3b,0.1142,0.1142,0,104,104,66,1,twoone,,,,,,,,,,,,,,,,,,,,,,,,,,,,,,,,,,,,,,,,,,,,,,,,,,,,,,,,,,,,,,,,,,,,,,,,,,,,,,,,,,,,,,,,,,,,,,,,,,,,,,,,,,,,,,,,,,,,,,,,,,,,,,,,,,,,,,,,,
,,671ddd063e7c74b377de755a,2026-03-17_12h40.43.492,kallum_motion_pilot_GIST_update_2,2026.1.1,Win32,59.17159763,671ddd063e7c74b377de755a,69b92ab4aef6dee357cd729a,69b92f4109e46ed50e9e6c3b,0.1144,0.1144,0,105,105,73,1,onethree,,,,,,,,,,,,,,,,,,,,,,,,,,,,,,,,,,,,,,,,,,,,,,,,,,,,,,,,,,,,,,,,,,,,,,,,,,,,,,,,,,,,,,,,,,,,,,,,,,,,,,,,,,,,,,,,,,,,,,,,,,,,,,,,,,,,,,,,,
,,671ddd063e7c74b377de755a,2026-03-17_12h40.43.492,kallum_motion_pilot_GIST_update_2,2026.1.1,Win32,59.17159763,671ddd063e7c74b377de755a,69b92ab4aef6dee357cd729a,69b92f4109e46ed50e9e6c3b,0.1146,0.1146,0,106,106,92,1,sevenfive,,,,,,,,,,,,,,,,,,,,,,,,,,,,,,,,,,,,,,,,,,,,,,,,,,,,,,,,,,,,,,,,,,,,,,,,,,,,,,,,,,,,,,,,,,,,,,,,,,,,,,,,,,,,,,,,,,,,,,,,,,,,,,,,,,,,,,,,,
,,671ddd063e7c74b377de755a,2026-03-17_12h40.43.492,kallum_motion_pilot_GIST_update_2,2026.1.1,Win32,59.17159763,671ddd063e7c74b377de755a,69b92ab4aef6dee357cd729a,69b92f4109e46ed50e9e6c3b,0.1162,0.1163,0,107,107,46,1,fourtwo,,,,,,,,,,,,,,,,,,,,,,,,,,,,,,,,,,,,,,,,,,,,,,,,,,,,,,,,,,,,,,,,,,,,,,,,,,,,,,,,,,,,,,,,,,,,,,,,,,,,,,,,,,,,,,,,,,,,,,,,,,,,,,,,,,,,,,,,,
,,671ddd063e7c74b377de755a,2026-03-17_12h40.43.492,kallum_motion_pilot_GIST_update_2,2026.1.1,Win32,59.17159763,671ddd063e7c74b377de755a,69b92ab4aef6dee357cd729a,69b92f4109e46ed50e9e6c3b,0.1166,0.1166,0,108,108,113,1,fiveseven,,,,,,,,,,,,,,,,,,,,,,,,,,,,,,,,,,,,,,,,,,,,,,,,,,,,,,,,,,,,,,,,,,,,,,,,,,,,,,,,,,,,,,,,,,,,,,,,,,,,,,,,,,,,,,,,,,,,,,,,,,,,,,,,,,,,,,,,,
,,671ddd063e7c74b377de755a,2026-03-17_12h40.43.492,kallum_motion_pilot_GIST_update_2,2026.1.1,Win32,59.17159763,671ddd063e7c74b377de755a,69b92ab4aef6dee357cd729a,69b92f4109e46ed50e9e6c3b,0.1168,0.1168,0,109,109,106,1,sixfive,,,,,,,,,,,,,,,,,,,,,,,,,,,,,,,,,,,,,,,,,,,,,,,,,,,,,,,,,,,,,,,,,,,,,,,,,,,,,,,,,,,,,,,,,,,,,,,,,,,,,,,,,,,,,,,,,,,,,,,,,,,,,,,,,,,,,,,,,
,,671ddd063e7c74b377de755a,2026-03-17_12h40.43.492,kallum_motion_pilot_GIST_update_2,2026.1.1,Win32,59.17159763,671ddd063e7c74b377de755a,69b92ab4aef6dee357cd729a,69b92f4109e46ed50e9e6c3b,0.1171,0.1171,0,110,110,65,1,onethree,,,,,,,,,,,,,,,,,,,,,,,,,,,,,,,,,,,,,,,,,,,,,,,,,,,,,,,,,,,,,,,,,,,,,,,,,,,,,,,,,,,,,,,,,,,,,,,,,,,,,,,,,,,,,,,,,,,,,,,,,,,,,,,,,,,,,,,,,
,,671ddd063e7c74b377de755a,2026-03-17_12h40.43.492,kallum_motion_pilot_GIST_update_2,2026.1.1,Win32,59.17159763,671ddd063e7c74b377de755a,69b92ab4aef6dee357cd729a,69b92f4109e46ed50e9e6c3b,0.1177,0.1177,0,111,111,21,1,threefour,,,,,,,,,,,,,,,,,,,,,,,,,,,,,,,,,,,,,,,,,,,,,,,,,,,,,,,,,,,,,,,,,,,,,,,,,,,,,,,,,,,,,,,,,,,,,,,,,,,,,,,,,,,,,,,,,,,,,,,,,,,,,,,,,,,,,,,,,
,,671ddd063e7c74b377de755a,2026-03-17_12h40.43.492,kallum_motion_pilot_GIST_update_2,2026.1.1,Win32,59.17159763,671ddd063e7c74b377de755a,69b92ab4aef6dee357cd729a,69b92f4109e46ed50e9e6c3b,0.118,0.1181,0,112,112,93,1,seveneight,,,,,,,,,,,,,,,,,,,,,,,,,,,,,,,,,,,,,,,,,,,,,,,,,,,,,,,,,,,,,,,,,,,,,,,,,,,,,,,,,,,,,,,,,,,,,,,,,,,,,,,,,,,,,,,,,,,,,,,,,,,,,,,,,,,,,,,,,
,,671ddd063e7c74b377de755a,2026-03-17_12h40.43.492,kallum_motion_pilot_GIST_update_2,2026.1.1,Win32,59.17159763,671ddd063e7c74b377de755a,69b92ab4aef6dee357cd729a,69b92f4109e46ed50e9e6c3b,0.1183,0.1183,0,113,113,62,1,fourtwo,,,,,,,,,,,,,,,,,,,,,,,,,,,,,,,,,,,,,,,,,,,,,,,,,,,,,,,,,,,,,,,,,,,,,,,,,,,,,,,,,,,,,,,,,,,,,,,,,,,,,,,,,,,,,,,,,,,,,,,,,,,,,,,,,,,,,,,,,
,,671ddd063e7c74b377de755a,2026-03-17_12h40.43.492,kallum_motion_pilot_GIST_update_2,2026.1.1,Win32,59.17159763,671ddd063e7c74b377de755a,69b92ab4aef6dee357cd729a,69b92f4109e46ed50e9e6c3b,0.1186,0.1187,0,114,114,136,1,fivesix,,,,,,,,,,,,,,,,,,,,,,,,,,,,,,,,,,,,,,,,,,,,,,,,,,,,,,,,,,,,,,,,,,,,,,,,,,,,,,,,,,,,,,,,,,,,,,,,,,,,,,,,,,,,,,,,,,,,,,,,,,,,,,,,,,,,,,,,,
,,671ddd063e7c74b377de755a,2026-03-17_12h40.43.492,kallum_motion_pilot_GIST_update_2,2026.1.1,Win32,59.17159763,671ddd063e7c74b377de755a,69b92ab4aef6dee357cd729a,69b92f4109e46ed50e9e6c3b,0.1189,0.119,0,115,115,154,1,sixfive,,,,,,,,,,,,,,,,,,,,,,,,,,,,,,,,,,,,,,,,,,,,,,,,,,,,,,,,,,,,,,,,,,,,,,,,,,,,,,,,,,,,,,,,,,,,,,,,,,,,,,,,,,,,,,,,,,,,,,,,,,,,,,,,,,,,,,,,,
,,671ddd063e7c74b377de755a,2026-03-17_12h40.43.492,kallum_motion_pilot_GIST_update_2,2026.1.1,Win32,59.17159763,671ddd063e7c74b377de755a,69b92ab4aef6dee357cd729a,69b92f4109e46ed50e9e6c3b,0.1193,0.1193,0,116,116,128,1,fivesix,,,,,,,,,,,,,,,,,,,,,,,,,,,,,,,,,,,,,,,,,,,,,,,,,,,,,,,,,,,,,,,,,,,,,,,,,,,,,,,,,,,,,,,,,,,,,,,,,,,,,,,,,,,,,,,,,,,,,,,,,,,,,,,,,,,,,,,,,
,,671ddd063e7c74b377de755a,2026-03-17_12h40.43.492,kallum_motion_pilot_GIST_update_2,2026.1.1,Win32,59.17159763,671ddd063e7c74b377de755a,69b92ab4aef6dee357cd729a,69b92f4109e46ed50e9e6c3b,0.1196,0.1197,0,117,117,89,1,fiveseven,,,,,,,,,,,,,,,,,,,,,,,,,,,,,,,,,,,,,,,,,,,,,,,,,,,,,,,,,,,,,,,,,,,,,,,,,,,,,,,,,,,,,,,,,,,,,,,,,,,,,,,,,,,,,,,,,,,,,,,,,,,,,,,,,,,,,,,,,
,,671ddd063e7c74b377de755a,2026-03-17_12h40.43.492,kallum_motion_pilot_GIST_update_2,2026.1.1,Win32,59.17159763,671ddd063e7c74b377de755a,69b92ab4aef6dee357cd729a,69b92f4109e46ed50e9e6c3b,0.12,0.12,0,118,118,34,1,twoone,,,,,,,,,,,,,,,,,,,,,,,,,,,,,,,,,,,,,,,,,,,,,,,,,,,,,,,,,,,,,,,,,,,,,,,,,,,,,,,,,,,,,,,,,,,,,,,,,,,,,,,,,,,,,,,,,,,,,,,,,,,,,,,,,,,,,,,,,
,,671ddd063e7c74b377de755a,2026-03-17_12h40.43.492,kallum_motion_pilot_GIST_update_2,2026.1.1,Win32,59.17159763,671ddd063e7c74b377de755a,69b92ab4aef6dee357cd729a,69b92f4109e46ed50e9e6c3b,0.1203,0.1204,0,119,119,45,1,threefour,,,,,,,,,,,,,,,,,,,,,,,,,,,,,,,,,,,,,,,,,,,,,,,,,,,,,,,,,,,,,,,,,,,,,,,,,,,,,,,,,,,,,,,,,,,,,,,,,,,,,,,,,,,,,,,,,,,,,,,,,,,,,,,,,,,,,,,,,
,,671ddd063e7c74b377de755a,2026-03-17_12h40.43.492,kallum_motion_pilot_GIST_update_2,2026.1.1,Win32,59.17159763,671ddd063e7c74b377de755a,69b92ab4aef6dee357cd729a,69b92f4109e46ed50e9e6c3b,0.1207,0.1207,0,120,120,11,1,twofour,,,,,,,,,,,,,,,,,,,,,,,,,,,,,,,,,,,,,,,,,,,,,,,,,,,,,,,,,,,,,,,,,,,,,,,,,,,,,,,,,,,,,,,,,,,,,,,,,,,,,,,,,,,,,,,,,,,,,,,,,,,,,,,,,,,,,,,,,
,,671ddd063e7c74b377de755a,2026-03-17_12h40.43.492,kallum_motion_pilot_GIST_update_2,2026.1.1,Win32,59.17159763,671ddd063e7c74b377de755a,69b92ab4aef6dee357cd729a,69b92f4109e46ed50e9e6c3b,0.1209,0.1209,0,121,121,38,1,fourtwo,,,,,,,,,,,,,,,,,,,,,,,,,,,,,,,,,,,,,,,,,,,,,,,,,,,,,,,,,,,,,,,,,,,,,,,,,,,,,,,,,,,,,,,,,,,,,,,,,,,,,,,,,,,,,,,,,,,,,,,,,,,,,,,,,,,,,,,,,
,,671ddd063e7c74b377de755a,2026-03-17_12h40.43.492,kallum_motion_pilot_GIST_update_2,2026.1.1,Win32,59.17159763,671ddd063e7c74b377de755a,69b92ab4aef6dee357cd729a,69b92f4109e46ed50e9e6c3b,0.1211,0.1211,0,122,122,99,1,sixeight,,,,,,,,,,,,,,,,,,,,,,,,,,,,,,,,,,,,,,,,,,,,,,,,,,,,,,,,,,,,,,,,,,,,,,,,,,,,,,,,,,,,,,,,,,,,,,,,,,,,,,,,,,,,,,,,,,,,,,,,,,,,,,,,,,,,,,,,,
,,671ddd063e7c74b377de755a,2026-03-17_12h40.43.492,kallum_motion_pilot_GIST_update_2,2026.1.1,Win32,59.17159763,671ddd063e7c74b377de755a,69b92ab4aef6dee357cd729a,69b92f4109e46ed50e9e6c3b,0.1214,0.1214,0,123,123,48,1,onetwo,,,,,,,,,,,,,,,,,,,,,,,,,,,,,,,,,,,,,,,,,,,,,,,,,,,,,,,,,,,,,,,,,,,,,,,,,,,,,,,,,,,,,,,,,,,,,,,,,,,,,,,,,,,,,,,,,,,,,,,,,,,,,,,,,,,,,,,,,
,,671ddd063e7c74b377de755a,2026-03-17_12h40.43.492,kallum_motion_pilot_GIST_update_2,2026.1.1,Win32,59.17159763,671ddd063e7c74b377de755a,69b92ab4aef6dee357cd729a,69b92f4109e46ed50e9e6c3b,0.122,0.122,0,124,124,77,1,threefour,,,,,,,,,,,,,,,,,,,,,,,,,,,,,,,,,,,,,,,,,,,,,,,,,,,,,,,,,,,,,,,,,,,,,,,,,,,,,,,,,,,,,,,,,,,,,,,,,,,,,,,,,,,,,,,,,,,,,,,,,,,,,,,,,,,,,,,,,
,,671ddd063e7c74b377de755a,2026-03-17_12h40.43.492,kallum_motion_pilot_GIST_update_2,2026.1.1,Win32,59.17159763,671ddd063e7c74b377de755a,69b92ab4aef6dee357cd729a,69b92f4109e46ed50e9e6c3b,0.1223,0.1223,0,125,125,138,1,sixfive,,,,,,,,,,,,,,,,,,,,,,,,,,,,,,,,,,,,,,,,,,,,,,,,,,,,,,,,,,,,,,,,,,,,,,,,,,,,,,,,,,,,,,,,,,,,,,,,,,,,,,,,,,,,,,,,,,,,,,,,,,,,,,,,,,,,,,,,,
,,671ddd063e7c74b377de755a,2026-03-17_12h40.43.492,kallum_motion_pilot_GIST_update_2,2026.1.1,Win32,59.17159763,671ddd063e7c74b377de755a,69b92ab4aef6dee357cd729a,69b92f4109e46ed50e9e6c3b,0.1226,0.1226,0,126,126,9,1,onethree,,,,,,,,,,,,,,,,,,,,,,,,,,,,,,,,,,,,,,,,,,,,,,,,,,,,,,,,,,,,,,,,,,,,,,,,,,,,,,,,,,,,,,,,,,,,,,,,,,,,,,,,,,,,,,,,,,,,,,,,,,,,,,,,,,,,,,,,,
,,671ddd063e7c74b377de755a,2026-03-17_12h40.43.492,kallum_motion_pilot_GIST_update_2,2026.1.1,Win32,59.17159763,671ddd063e7c74b377de755a,69b92ab4aef6dee357cd729a,69b92f4109e46ed50e9e6c3b,0.123,0.123,0,127,127,33,1,onethree,,,,,,,,,,,,,,,,,,,,,,,,,,,,,,,,,,,,,,,,,,,,,,,,,,,,,,,,,,,,,,,,,,,,,,,,,,,,,,,,,,,,,,,,,,,,,,,,,,,,,,,,,,,,,,,,,,,,,,,,,,,,,,,,,,,,,,,,,
,,671ddd063e7c74b377de755a,2026-03-17_12h40.43.492,kallum_motion_pilot_GIST_update_2,2026.1.1,Win32,59.17159763,671ddd063e7c74b377de755a,69b92ab4aef6dee357cd729a,69b92f4109e46ed50e9e6c3b,0.1234,0.1234,0,128,128,25,1,onethree,,,,,,,,,,,,,,,,,,,,,,,,,,,,,,,,,,,,,,,,,,,,,,,,,,,,,,,,,,,,,,,,,,,,,,,,,,,,,,,,,,,,,,,,,,,,,,,,,,,,,,,,,,,,,,,,,,,,,,,,,,,,,,,,,,,,,,,,,
,,671ddd063e7c74b377de755a,2026-03-17_12h40.43.492,kallum_motion_pilot_GIST_update_2,2026.1.1,Win32,59.17159763,671ddd063e7c74b377de755a,69b92ab4aef6dee357cd729a,69b92f4109e46ed50e9e6c3b,0.1238,0.1238,0,129,129,4,1,threeone,,,,,,,,,,,,,,,,,,,,,,,,,,,,,,,,,,,,,,,,,,,,,,,,,,,,,,,,,,,,,,,,,,,,,,,,,,,,,,,,,,,,,,,,,,,,,,,,,,,,,,,,,,,,,,,,,,,,,,,,,,,,,,,,,,,,,,,,,
,,671ddd063e7c74b377de755a,2026-03-17_12h40.43.492,kallum_motion_pilot_GIST_update_2,2026.1.1,Win32,59.17159763,671ddd063e7c74b377de755a,69b92ab4aef6dee357cd729a,69b92f4109e46ed50e9e6c3b,0.1241,0.1241,0,130,130,134,1,eightsix,,,,,,,,,,,,,,,,,,,,,,,,,,,,,,,,,,,,,,,,,,,,,,,,,,,,,,,,,,,,,,,,,,,,,,,,,,,,,,,,,,,,,,,,,,,,,,,,,,,,,,,,,,,,,,,,,,,,,,,,,,,,,,,,,,,,,,,,,
,,671ddd063e7c74b377de755a,2026-03-17_12h40.43.492,kallum_motion_pilot_GIST_update_2,2026.1.1,Win32,59.17159763,671ddd063e7c74b377de755a,69b92ab4aef6dee357cd729a,69b92f4109e46ed50e9e6c3b,0.1245,0.1245,0,131,131,61,1,threefour,,,,,,,,,,,,,,,,,,,,,,,,,,,,,,,,,,,,,,,,,,,,,,,,,,,,,,,,,,,,,,,,,,,,,,,,,,,,,,,,,,,,,,,,,,,,,,,,,,,,,,,,,,,,,,,,,,,,,,,,,,,,,,,,,,,,,,,,,
,,671ddd063e7c74b377de755a,2026-03-17_12h40.43.492,kallum_motion_pilot_GIST_update_2,2026.1.1,Win32,59.17159763,671ddd063e7c74b377de755a,69b92ab4aef6dee357cd729a,69b92f4109e46ed50e9e6c3b,0.1247,0.1247,0,132,132,31,1,fourthree,,,,,,,,,,,,,,,,,,,,,,,,,,,,,,,,,,,,,,,,,,,,,,,,,,,,,,,,,,,,,,,,,,,,,,,,,,,,,,,,,,,,,,,,,,,,,,,,,,,,,,,,,,,,,,,,,,,,,,,,,,,,,,,,,,,,,,,,,
,,671ddd063e7c74b377de755a,2026-03-17_12h40.43.492,kallum_motion_pilot_GIST_update_2,2026.1.1,Win32,59.17159763,671ddd063e7c74b377de755a,69b92ab4aef6dee357cd729a,69b92f4109e46ed50e9e6c3b,0.1251,0.1252,0,133,133,32,1,onetwo,,,,,,,,,,,,,,,,,,,,,,,,,,,,,,,,,,,,,,,,,,,,,,,,,,,,,,,,,,,,,,,,,,,,,,,,,,,,,,,,,,,,,,,,,,,,,,,,,,,,,,,,,,,,,,,,,,,,,,,,,,,,,,,,,,,,,,,,,
,,671ddd063e7c74b377de755a,2026-03-17_12h40.43.492,kallum_motion_pilot_GIST_update_2,2026.1.1,Win32,59.17159763,671ddd063e7c74b377de755a,69b92ab4aef6dee357cd729a,69b92f4109e46ed50e9e6c3b,0.1255,0.1255,0,134,134,8,1,onetwo,,,,,,,,,,,,,,,,,,,,,,,,,,,,,,,,,,,,,,,,,,,,,,,,,,,,,,,,,,,,,,,,,,,,,,,,,,,,,,,,,,,,,,,,,,,,,,,,,,,,,,,,,,,,,,,,,,,,,,,,,,,,,,,,,,,,,,,,,
,,671ddd063e7c74b377de755a,2026-03-17_12h40.43.492,kallum_motion_pilot_GIST_update_2,2026.1.1,Win32,59.17159763,671ddd063e7c74b377de755a,69b92ab4aef6dee357cd729a,69b92f4109e46ed50e9e6c3b,0.1259,0.1259,0,135,135,155,1,sixeight,,,,,,,,,,,,,,,,,,,,,,,,,,,,,,,,,,,,,,,,,,,,,,,,,,,,,,,,,,,,,,,,,,,,,,,,,,,,,,,,,,,,,,,,,,,,,,,,,,,,,,,,,,,,,,,,,,,,,,,,,,,,,,,,,,,,,,,,,
,,671ddd063e7c74b377de755a,2026-03-17_12h40.43.492,kallum_motion_pilot_GIST_update_2,2026.1.1,Win32,59.17159763,671ddd063e7c74b377de755a,69b92ab4aef6dee357cd729a,69b92f4109e46ed50e9e6c3b,0.1262,0.1262,0,136,136,94,1,eightsix,,,,,,,,,,,,,,,,,,,,,,,,,,,,,,,,,,,,,,,,,,,,,,,,,,,,,,,,,,,,,,,,,,,,,,,,,,,,,,,,,,,,,,,,,,,,,,,,,,,,,,,,,,,,,,,,,,,,,,,,,,,,,,,,,,,,,,,,,
,,671ddd063e7c74b377de755a,2026-03-17_12h40.43.492,kallum_motion_pilot_GIST_update_2,2026.1.1,Win32,59.17159763,671ddd063e7c74b377de755a,69b92ab4aef6dee357cd729a,69b92f4109e46ed50e9e6c3b,0.1265,0.1265,0,137,137,75,1,twofour,,,,,,,,,,,,,,,,,,,,,,,,,,,,,,,,,,,,,,,,,,,,,,,,,,,,,,,,,,,,,,,,,,,,,,,,,,,,,,,,,,,,,,,,,,,,,,,,,,,,,,,,,,,,,,,,,,,,,,,,,,,,,,,,,,,,,,,,,
,,671ddd063e7c74b377de755a,2026-03-17_12h40.43.492,kallum_motion_pilot_GIST_update_2,2026.1.1,Win32,59.17159763,671ddd063e7c74b377de755a,69b92ab4aef6dee357cd729a,69b92f4109e46ed50e9e6c3b,0.1268,0.1268,0,138,138,140,1,sevenfive,,,,,,,,,,,,,,,,,,,,,,,,,,,,,,,,,,,,,,,,,,,,,,,,,,,,,,,,,,,,,,,,,,,,,,,,,,,,,,,,,,,,,,,,,,,,,,,,,,,,,,,,,,,,,,,,,,,,,,,,,,,,,,,,,,,,,,,,,
,,671ddd063e7c74b377de755a,2026-03-17_12h40.43.492,kallum_motion_pilot_GIST_update_2,2026.1.1,Win32,59.17159763,671ddd063e7c74b377de755a,69b92ab4aef6dee357cd729a,69b92f4109e46ed50e9e6c3b,0.1272,0.1272,0,139,139,26,1,twoone,,,,,,,,,,,,,,,,,,,,,,,,,,,,,,,,,,,,,,,,,,,,,,,,,,,,,,,,,,,,,,,,,,,,,,,,,,,,,,,,,,,,,,,,,,,,,,,,,,,,,,,,,,,,,,,,,,,,,,,,,,,,,,,,,,,,,,,,,
,,671ddd063e7c74b377de755a,2026-03-17_12h40.43.492,kallum_motion_pilot_GIST_update_2,2026.1.1,Win32,59.17159763,671ddd063e7c74b377de755a,69b92ab4aef6dee357cd729a,69b92f4109e46ed50e9e6c3b,0.1275,0.1275,0,140,140,19,1,twofour,,,,,,,,,,,,,,,,,,,,,,,,,,,,,,,,,,,,,,,,,,,,,,,,,,,,,,,,,,,,,,,,,,,,,,,,,,,,,,,,,,,,,,,,,,,,,,,,,,,,,,,,,,,,,,,,,,,,,,,,,,,,,,,,,,,,,,,,,
,,671ddd063e7c74b377de755a,2026-03-17_12h40.43.492,kallum_motion_pilot_GIST_update_2,2026.1.1,Win32,59.17159763,671ddd063e7c74b377de755a,69b92ab4aef6dee357cd729a,69b92f4109e46ed50e9e6c3b,0.1281,0.1281,0,141,141,59,1,twofour,,,,,,,,,,,,,,,,,,,,,,,,,,,,,,,,,,,,,,,,,,,,,,,,,,,,,,,,,,,,,,,,,,,,,,,,,,,,,,,,,,,,,,,,,,,,,,,,,,,,,,,,,,,,,,,,,,,,,,,,,,,,,,,,,,,,,,,,,
,,671ddd063e7c74b377de755a,2026-03-17_12h40.43.492,kallum_motion_pilot_GIST_update_2,2026.1.1,Win32,59.17159763,671ddd063e7c74b377de755a,69b92ab4aef6dee357cd729a,69b92f4109e46ed50e9e6c3b,0.1285,0.1285,0,142,142,156,1,sevenfive,,,,,,,,,,,,,,,,,,,,,,,,,,,,,,,,,,,,,,,,,,,,,,,,,,,,,,,,,,,,,,,,,,,,,,,,,,,,,,,,,,,,,,,,,,,,,,,,,,,,,,,,,,,,,,,,,,,,,,,,,,,,,,,,,,,,,,,,,
,,671ddd063e7c74b377de755a,2026-03-17_12h40.43.492,kallum_motion_pilot_GIST_update_2,2026.1.1,Win32,59.17159763,671ddd063e7c74b377de755a,69b92ab4aef6dee357cd729a,69b92f4109e46ed50e9e6c3b,0.1289,0.1289,0,143,143,126,1,eightsix,,,,,,,,,,,,,,,,,,,,,,,,,,,,,,,,,,,,,,,,,,,,,,,,,,,,,,,,,,,,,,,,,,,,,,,,,,,,,,,,,,,,,,,,,,,,,,,,,,,,,,,,,,,,,,,,,,,,,,,,,,,,,,,,,,,,,,,,,
,,671ddd063e7c74b377de755a,2026-03-17_12h40.43.492,kallum_motion_pilot_GIST_update_2,2026.1.1,Win32,59.17159763,671ddd063e7c74b377de755a,69b92ab4aef6dee357cd729a,69b92f4109e46ed50e9e6c3b,0.1292,0.1292,0,144,144,125,1,seveneight,,,,,,,,,,,,,,,,,,,,,,,,,,,,,,,,,,,,,,,,,,,,,,,,,,,,,,,,,,,,,,,,,,,,,,,,,,,,,,,,,,,,,,,,,,,,,,,,,,,,,,,,,,,,,,,,,,,,,,,,,,,,,,,,,,,,,,,,,
,,671ddd063e7c74b377de755a,2026-03-17_12h40.43.492,kallum_motion_pilot_GIST_update_2,2026.1.1,Win32,59.17159763,671ddd063e7c74b377de755a,69b92ab4aef6dee357cd729a,69b92f4109e46ed50e9e6c3b,0.1296,0.1296,0,145,145,114,1,sixfive,,,,,,,,,,,,,,,,,,,,,,,,,,,,,,,,,,,,,,,,,,,,,,,,,,,,,,,,,,,,,,,,,,,,,,,,,,,,,,,,,,,,,,,,,,,,,,,,,,,,,,,,,,,,,,,,,,,,,,,,,,,,,,,,,,,,,,,,,
,,671ddd063e7c74b377de755a,2026-03-17_12h40.43.492,kallum_motion_pilot_GIST_update_2,2026.1.1,Win32,59.17159763,671ddd063e7c74b377de755a,69b92ab4aef6dee357cd729a,69b92f4109e46ed50e9e6c3b,0.1299,0.1299,0,146,146,74,1,twoone,,,,,,,,,,,,,,,,,,,,,,,,,,,,,,,,,,,,,,,,,,,,,,,,,,,,,,,,,,,,,,,,,,,,,,,,,,,,,,,,,,,,,,,,,,,,,,,,,,,,,,,,,,,,,,,,,,,,,,,,,,,,,,,,,,,,,,,,,
,,671ddd063e7c74b377de755a,2026-03-17_12h40.43.492,kallum_motion_pilot_GIST_update_2,2026.1.1,Win32,59.17159763,671ddd063e7c74b377de755a,69b92ab4aef6dee357cd729a,69b92f4109e46ed50e9e6c3b,0.1303,0.1303,0,147,147,60,1,threeone,,,,,,,,,,,,,,,,,,,,,,,,,,,,,,,,,,,,,,,,,,,,,,,,,,,,,,,,,,,,,,,,,,,,,,,,,,,,,,,,,,,,,,,,,,,,,,,,,,,,,,,,,,,,,,,,,,,,,,,,,,,,,,,,,,,,,,,,,
,,671ddd063e7c74b377de755a,2026-03-17_12h40.43.492,kallum_motion_pilot_GIST_update_2,2026.1.1,Win32,59.17159763,671ddd063e7c74b377de755a,69b92ab4aef6dee357cd729a,69b92f4109e46ed50e9e6c3b,0.1306,0.1306,0,148,148,37,1,threefour,,,,,,,,,,,,,,,,,,,,,,,,,,,,,,,,,,,,,,,,,,,,,,,,,,,,,,,,,,,,,,,,,,,,,,,,,,,,,,,,,,,,,,,,,,,,,,,,,,,,,,,,,,,,,,,,,,,,,,,,,,,,,,,,,,,,,,,,,
,,671ddd063e7c74b377de755a,2026-03-17_12h40.43.492,kallum_motion_pilot_GIST_update_2,2026.1.1,Win32,59.17159763,671ddd063e7c74b377de755a,69b92ab4aef6dee357cd729a,69b92f4109e46ed50e9e6c3b,0.1309,0.1309,0,149,149,24,1,onetwo,,,,,,,,,,,,,,,,,,,,,,,,,,,,,,,,,,,,,,,,,,,,,,,,,,,,,,,,,,,,,,,,,,,,,,,,,,,,,,,,,,,,,,,,,,,,,,,,,,,,,,,,,,,,,,,,,,,,,,,,,,,,,,,,,,,,,,,,,
,,671ddd063e7c74b377de755a,2026-03-17_12h40.43.492,kallum_motion_pilot_GIST_update_2,2026.1.1,Win32,59.17159763,671ddd063e7c74b377de755a,69b92ab4aef6dee357cd729a,69b92f4109e46ed50e9e6c3b,0.1313,0.1313,0,150,150,157,1,seveneight,,,,,,,,,,,,,,,,,,,,,,,,,,,,,,,,,,,,,,,,,,,,,,,,,,,,,,,,,,,,,,,,,,,,,,,,,,,,,,,,,,,,,,,,,,,,,,,,,,,,,,,,,,,,,,,,,,,,,,,,,,,,,,,,,,,,,,,,,
,,671ddd063e7c74b377de755a,2026-03-17_12h40.43.492,kallum_motion_pilot_GIST_update_2,2026.1.1,Win32,59.17159763,671ddd063e7c74b377de755a,69b92ab4aef6dee357cd729a,69b92f4109e46ed50e9e6c3b,0.1316,0.1316,0,151,151,152,1,fivesix,,,,,,,,,,,,,,,,,,,,,,,,,,,,,,,,,,,,,,,,,,,,,,,,,,,,,,,,,,,,,,,,,,,,,,,,,,,,,,,,,,,,,,,,,,,,,,,,,,,,,,,,,,,,,,,,,,,,,,,,,,,,,,,,,,,,,,,,,
,,671ddd063e7c74b377de755a,2026-03-17_12h40.43.492,kallum_motion_pilot_GIST_update_2,2026.1.1,Win32,59.17159763,671ddd063e7c74b377de755a,69b92ab4aef6dee357cd729a,69b92f4109e46ed50e9e6c3b,0.1318,0.1318,0,152,152,158,1,eightsix,,,,,,,,,,,,,,,,,,,,,,,,,,,,,,,,,,,,,,,,,,,,,,,,,,,,,,,,,,,,,,,,,,,,,,,,,,,,,,,,,,,,,,,,,,,,,,,,,,,,,,,,,,,,,,,,,,,,,,,,,,,,,,,,,,,,,,,,,
,,671ddd063e7c74b377de755a,2026-03-17_12h40.43.492,kallum_motion_pilot_GIST_update_2,2026.1.1,Win32,59.17159763,671ddd063e7c74b377de755a,69b92ab4aef6dee357cd729a,69b92f4109e46ed50e9e6c3b,0.1321,0.1322,0,153,153,137,1,fiveseven,,,,,,,,,,,,,,,,,,,,,,,,,,,,,,,,,,,,,,,,,,,,,,,,,,,,,,,,,,,,,,,,,,,,,,,,,,,,,,,,,,,,,,,,,,,,,,,,,,,,,,,,,,,,,,,,,,,,,,,,,,,,,,,,,,,,,,,,,
,,671ddd063e7c74b377de755a,2026-03-17_12h40.43.492,kallum_motion_pilot_GIST_update_2,2026.1.1,Win32,59.17159763,671ddd063e7c74b377de755a,69b92ab4aef6dee357cd729a,69b92f4109e46ed50e9e6c3b,0.1325,0.1325,0,154,154,47,1,fourthree,,,,,,,,,,,,,,,,,,,,,,,,,,,,,,,,,,,,,,,,,,,,,,,,,,,,,,,,,,,,,,,,,,,,,,,,,,,,,,,,,,,,,,,,,,,,,,,,,,,,,,,,,,,,,,,,,,,,,,,,,,,,,,,,,,,,,,,,,
,,671ddd063e7c74b377de755a,2026-03-17_12h40.43.492,kallum_motion_pilot_GIST_update_2,2026.1.1,Win32,59.17159763,671ddd063e7c74b377de755a,69b92ab4aef6dee357cd729a,69b92f4109e46ed50e9e6c3b,0.1328,0.1328,0,155,155,111,1,eightseven,,,,,,,,,,,,,,,,,,,,,,,,,,,,,,,,,,,,,,,,,,,,,,,,,,,,,,,,,,,,,,,,,,,,,,,,,,,,,,,,,,,,,,,,,,,,,,,,,,,,,,,,,,,,,,,,,,,,,,,,,,,,,,,,,,,,,,,,,
,,671ddd063e7c74b377de755a,2026-03-17_12h40.43.492,kallum_motion_pilot_GIST_update_2,2026.1.1,Win32,59.17159763,671ddd063e7c74b377de755a,69b92ab4aef6dee357cd729a,69b92f4109e46ed50e9e6c3b,0.1332,0.1332,0,156,156,6,1,fourtwo,,,,,,,,,,,,,,,,,,,,,,,,,,,,,,,,,,,,,,,,,,,,,,,,,,,,,,,,,,,,,,,,,,,,,,,,,,,,,,,,,,,,,,,,,,,,,,,,,,,,,,,,,,,,,,,,,,,,,,,,,,,,,,,,,,,,,,,,,
,,671ddd063e7c74b377de755a,2026-03-17_12h40.43.492,kallum_motion_pilot_GIST_update_2,2026.1.1,Win32,59.17159763,671ddd063e7c74b377de755a,69b92ab4aef6dee357cd729a,69b92f4109e46ed50e9e6c3b,0.1334,0.1334,0,157,157,135,1,eightseven,,,,,,,,,,,,,,,,,,,,,,,,,,,,,,,,,,,,,,,,,,,,,,,,,,,,,,,,,,,,,,,,,,,,,,,,,,,,,,,,,,,,,,,,,,,,,,,,,,,,,,,,,,,,,,,,,,,,,,,,,,,,,,,,,,,,,,,,,
,,671ddd063e7c74b377de755a,2026-03-17_12h40.43.492,kallum_motion_pilot_GIST_update_2,2026.1.1,Win32,59.17159763,671ddd063e7c74b377de755a,69b92ab4aef6dee357cd729a,69b92f4109e46ed50e9e6c3b,0.1337,0.1337,0,158,158,143,1,eightseven,,,,,,,,,,,,,,,,,,,,,,,,,,,,,,,,,,,,,,,,,,,,,,,,,,,,,,,,,,,,,,,,,,,,,,,,,,,,,,,,,,,,,,,,,,,,,,,,,,,,,,,,,,,,,,,,,,,,,,,,,,,,,,,,,,,,,,,,,
,,671ddd063e7c74b377de755a,2026-03-17_12h40.43.492,kallum_motion_pilot_GIST_update_2,2026.1.1,Win32,59.17159763,671ddd063e7c74b377de755a,69b92ab4aef6dee357cd729a,69b92f4109e46ed50e9e6c3b,0.1341,0.1341,0,159,159,119,1,eightseven,,,,,,,,,,,,,,,,,,,,,,,,,,,,,,,,,,,,,,,,,,,,,,,,,,,,,,,,,,,,,,,,,,,,,,,,,,,,,,,,,,,,,,,,,,,,,,,,,,,,,,,,,,,,,,,,,,,,,,,,,,,,,,,,,,,,,,,,,
,,671ddd063e7c74b377de755a,2026-03-17_12h40.43.492,kallum_motion_pilot_GIST_update_2,2026.1.1,Win32,59.17159763,671ddd063e7c74b377de755a,69b92ab4aef6dee357cd729a,69b92f4109e46ed50e9e6c3b,0.1344,0.1344,0,160,160,5,1,threefour,,,,,,,,,,,,,,,,,,,,,,,,,,,,,,,,,,,,,,,,,,,,,,,,,,,,,,,,,,,,,,,,,,,,,,,,,,,,,,,,,,,,,,,,,,,,,,,,,,,,,,,,,,,,,,,,,,,,,,,,,,,,,,,,,,,,,,,,,
,,671ddd063e7c74b377de755a,2026-03-17_12h40.43.492,kallum_motion_pilot_GIST_update_2,2026.1.1,Win32,59.17159763,671ddd063e7c74b377de755a,69b92ab4aef6dee357cd729a,69b92f4109e46ed50e9e6c3b,0.1348,0.1348,0,161,161,10,1,twoone,,,,,,,,,,,,,,,,,,,,,,,,,,,,,,,,,,,,,,,,,,,,,,,,,,,,,,,,,,,,,,,,,,,,,,,,,,,,,,,,,,,,,,,,,,,,,,,,,,,,,,,,,,,,,,,,,,,,,,,,,,,,,,,,,,,,,,,,,
,,671ddd063e7c74b377de755a,2026-03-17_12h40.43.492,kallum_motion_pilot_GIST_update_2,2026.1.1,Win32,59.17159763,671ddd063e7c74b377de755a,69b92ab4aef6dee357cd729a,69b92f4109e46ed50e9e6c3b,0.1351,0.1351,1,0,162,131,1,sixeight,,,,,,,,,,,,,,,,,,,,,,,,,,,,,,,,,,,,,,,,,,,,,,,,,,,,,,,,,,,,,,,,,,,,,,,,,,,,,,,,,,,,,,,,,,,,,,,,,,,,,,,,,,,,,,,,,,,,,,,,,,,,,,,,,,,,,,,,,
,,671ddd063e7c74b377de755a,2026-03-17_12h40.43.492,kallum_motion_pilot_GIST_update_2,2026.1.1,Win32,59.17159763,671ddd063e7c74b377de755a,69b92ab4aef6dee357cd729a,69b92f4109e46ed50e9e6c3b,0.1353,0.1354,1,1,163,132,1,sevenfive,,,,,,,,,,,,,,,,,,,,,,,,,,,,,,,,,,,,,,,,,,,,,,,,,,,,,,,,,,,,,,,,,,,,,,,,,,,,,,,,,,,,,,,,,,,,,,,,,,,,,,,,,,,,,,,,,,,,,,,,,,,,,,,,,,,,,,,,,
,,671ddd063e7c74b377de755a,2026-03-17_12h40.43.492,kallum_motion_pilot_GIST_update_2,2026.1.1,Win32,59.17159763,671ddd063e7c74b377de755a,69b92ab4aef6dee357cd729a,69b92f4109e46ed50e9e6c3b,0.1357,0.1357,1,2,164,5,1,threefour,,,,,,,,,,,,,,,,,,,,,,,,,,,,,,,,,,,,,,,,,,,,,,,,,,,,,,,,,,,,,,,,,,,,,,,,,,,,,,,,,,,,,,,,,,,,,,,,,,,,,,,,,,,,,,,,,,,,,,,,,,,,,,,,,,,,,,,,,
,,671ddd063e7c74b377de755a,2026-03-17_12h40.43.492,kallum_motion_pilot_GIST_update_2,2026.1.1,Win32,59.17159763,671ddd063e7c74b377de755a,69b92ab4aef6dee357cd729a,69b92f4109e46ed50e9e6c3b,0.1361,0.1361,1,3,165,25,1,onethree,,,,,,,,,,,,,,,,,,,,,,,,,,,,,,,,,,,,,,,,,,,,,,,,,,,,,,,,,,,,,,,,,,,,,,,,,,,,,,,,,,,,,,,,,,,,,,,,,,,,,,,,,,,,,,,,,,,,,,,,,,,,,,,,,,,,,,,,,
,,671ddd063e7c74b377de755a,2026-03-17_12h40.43.492,kallum_motion_pilot_GIST_update_2,2026.1.1,Win32,59.17159763,671ddd063e7c74b377de755a,69b92ab4aef6dee357cd729a,69b92f4109e46ed50e9e6c3b,0.1364,0.1364,1,4,166,77,1,threefour,,,,,,,,,,,,,,,,,,,,,,,,,,,,,,,,,,,,,,,,,,,,,,,,,,,,,,,,,,,,,,,,,,,,,,,,,,,,,,,,,,,,,,,,,,,,,,,,,,,,,,,,,,,,,,,,,,,,,,,,,,,,,,,,,,,,,,,,,
,,671ddd063e7c74b377de755a,2026-03-17_12h40.43.492,kallum_motion_pilot_GIST_update_2,2026.1.1,Win32,59.17159763,671ddd063e7c74b377de755a,69b92ab4aef6dee357cd729a,69b92f4109e46ed50e9e6c3b,0.1366,0.1367,1,5,167,153,1,fiveseven,,,,,,,,,,,,,,,,,,,,,,,,,,,,,,,,,,,,,,,,,,,,,,,,,,,,,,,,,,,,,,,,,,,,,,,,,,,,,,,,,,,,,,,,,,,,,,,,,,,,,,,,,,,,,,,,,,,,,,,,,,,,,,,,,,,,,,,,,
,,671ddd063e7c74b377de755a,2026-03-17_12h40.43.492,kallum_motion_pilot_GIST_update_2,2026.1.1,Win32,59.17159763,671ddd063e7c74b377de755a,69b92ab4aef6dee357cd729a,69b92f4109e46ed50e9e6c3b,0.137,0.137,1,6,168,82,1,sixfive,,,,,,,,,,,,,,,,,,,,,,,,,,,,,,,,,,,,,,,,,,,,,,,,,,,,,,,,,,,,,,,,,,,,,,,,,,,,,,,,,,,,,,,,,,,,,,,,,,,,,,,,,,,,,,,,,,,,,,,,,,,,,,,,,,,,,,,,,
,,671ddd063e7c74b377de755a,2026-03-17_12h40.43.492,kallum_motion_pilot_GIST_update_2,2026.1.1,Win32,59.17159763,671ddd063e7c74b377de755a,69b92ab4aef6dee357cd729a,69b92f4109e46ed50e9e6c3b,0.1372,0.1372,1,7,169,130,1,sixfive,,,,,,,,,,,,,,,,,,,,,,,,,,,,,,,,,,,,,,,,,,,,,,,,,,,,,,,,,,,,,,,,,,,,,,,,,,,,,,,,,,,,,,,,,,,,,,,,,,,,,,,,,,,,,,,,,,,,,,,,,,,,,,,,,,,,,,,,,
,,671ddd063e7c74b377de755a,2026-03-17_12h40.43.492,kallum_motion_pilot_GIST_update_2,2026.1.1,Win32,59.17159763,671ddd063e7c74b377de755a,69b92ab4aef6dee357cd729a,69b92f4109e46ed50e9e6c3b,0.1376,0.1376,1,8,170,19,1,twofour,,,,,,,,,,,,,,,,,,,,,,,,,,,,,,,,,,,,,,,,,,,,,,,,,,,,,,,,,,,,,,,,,,,,,,,,,,,,,,,,,,,,,,,,,,,,,,,,,,,,,,,,,,,,,,,,,,,,,,,,,,,,,,,,,,,,,,,,,
,,671ddd063e7c74b377de755a,2026-03-17_12h40.43.492,kallum_motion_pilot_GIST_update_2,2026.1.1,Win32,59.17159763,671ddd063e7c74b377de755a,69b92ab4aef6dee357cd729a,69b92f4109e46ed50e9e6c3b,0.1379,0.1379,1,9,171,151,1,eightseven,,,,,,,,,,,,,,,,,,,,,,,,,,,,,,,,,,,,,,,,,,,,,,,,,,,,,,,,,,,,,,,,,,,,,,,,,,,,,,,,,,,,,,,,,,,,,,,,,,,,,,,,,,,,,,,,,,,,,,,,,,,,,,,,,,,,,,,,,
,,671ddd063e7c74b377de755a,2026-03-17_12h40.43.492,kallum_motion_pilot_GIST_update_2,2026.1.1,Win32,59.17159763,671ddd063e7c74b377de755a,69b92ab4aef6dee357cd729a,69b92f4109e46ed50e9e6c3b,0.1382,0.1382,1,10,172,116,1,sevenfive,,,,,,,,,,,,,,,,,,,,,,,,,,,,,,,,,,,,,,,,,,,,,,,,,,,,,,,,,,,,,,,,,,,,,,,,,,,,,,,,,,,,,,,,,,,,,,,,,,,,,,,,,,,,,,,,,,,,,,,,,,,,,,,,,,,,,,,,,
,,671ddd063e7c74b377de755a,2026-03-17_12h40.43.492,kallum_motion_pilot_GIST_update_2,2026.1.1,Win32,59.17159763,671ddd063e7c74b377de755a,69b92ab4aef6dee357cd729a,69b92f4109e46ed50e9e6c3b,0.1385,0.1385,1,11,173,69,1,threefour,,,,,,,,,,,,,,,,,,,,,,,,,,,,,,,,,,,,,,,,,,,,,,,,,,,,,,,,,,,,,,,,,,,,,,,,,,,,,,,,,,,,,,,,,,,,,,,,,,,,,,,,,,,,,,,,,,,,,,,,,,,,,,,,,,,,,,,,,
,,671ddd063e7c74b377de755a,2026-03-17_12h40.43.492,kallum_motion_pilot_GIST_update_2,2026.1.1,Win32,59.17159763,671ddd063e7c74b377de755a,69b92ab4aef6dee357cd729a,69b92f4109e46ed50e9e6c3b,0.1388,0.1388,1,12,174,93,1,seveneight,,,,,,,,,,,,,,,,,,,,,,,,,,,,,,,,,,,,,,,,,,,,,,,,,,,,,,,,,,,,,,,,,,,,,,,,,,,,,,,,,,,,,,,,,,,,,,,,,,,,,,,,,,,,,,,,,,,,,,,,,,,,,,,,,,,,,,,,,
,,671ddd063e7c74b377de755a,2026-03-17_12h40.43.492,kallum_motion_pilot_GIST_update_2,2026.1.1,Win32,59.17159763,671ddd063e7c74b377de755a,69b92ab4aef6dee357cd729a,69b92f4109e46ed50e9e6c3b,0.1391,0.1391,1,13,175,49,1,onethree,,,,,,,,,,,,,,,,,,,,,,,,,,,,,,,,,,,,,,,,,,,,,,,,,,,,,,,,,,,,,,,,,,,,,,,,,,,,,,,,,,,,,,,,,,,,,,,,,,,,,,,,,,,,,,,,,,,,,,,,,,,,,,,,,,,,,,,,,
,,671ddd063e7c74b377de755a,2026-03-17_12h40.43.492,kallum_motion_pilot_GIST_update_2,2026.1.1,Win32,59.17159763,671ddd063e7c74b377de755a,69b92ab4aef6dee357cd729a,69b92f4109e46ed50e9e6c3b,0.1395,0.1395,1,14,176,89,1,fiveseven,,,,,,,,,,,,,,,,,,,,,,,,,,,,,,,,,,,,,,,,,,,,,,,,,,,,,,,,,,,,,,,,,,,,,,,,,,,,,,,,,,,,,,,,,,,,,,,,,,,,,,,,,,,,,,,,,,,,,,,,,,,,,,,,,,,,,,,,,
,,671ddd063e7c74b377de755a,2026-03-17_12h40.43.492,kallum_motion_pilot_GIST_update_2,2026.1.1,Win32,59.17159763,671ddd063e7c74b377de755a,69b92ab4aef6dee357cd729a,69b92f4109e46ed50e9e6c3b,0.1399,0.1399,1,15,177,59,1,twofour,,,,,,,,,,,,,,,,,,,,,,,,,,,,,,,,,,,,,,,,,,,,,,,,,,,,,,,,,,,,,,,,,,,,,,,,,,,,,,,,,,,,,,,,,,,,,,,,,,,,,,,,,,,,,,,,,,,,,,,,,,,,,,,,,,,,,,,,,
,,671ddd063e7c74b377de755a,2026-03-17_12h40.43.492,kallum_motion_pilot_GIST_update_2,2026.1.1,Win32,59.17159763,671ddd063e7c74b377de755a,69b92ab4aef6dee357cd729a,69b92f4109e46ed50e9e6c3b,0.1402,0.1402,1,16,178,98,1,sixfive,,,,,,,,,,,,,,,,,,,,,,,,,,,,,,,,,,,,,,,,,,,,,,,,,,,,,,,,,,,,,,,,,,,,,,,,,,,,,,,,,,,,,,,,,,,,,,,,,,,,,,,,,,,,,,,,,,,,,,,,,,,,,,,,,,,,,,,,,
,,671ddd063e7c74b377de755a,2026-03-17_12h40.43.492,kallum_motion_pilot_GIST_update_2,2026.1.1,Win32,59.17159763,671ddd063e7c74b377de755a,69b92ab4aef6dee357cd729a,69b92f4109e46ed50e9e6c3b,0.1405,0.1405,1,17,179,137,1,fiveseven,,,,,,,,,,,,,,,,,,,,,,,,,,,,,,,,,,,,,,,,,,,,,,,,,,,,,,,,,,,,,,,,,,,,,,,,,,,,,,,,,,,,,,,,,,,,,,,,,,,,,,,,,,,,,,,,,,,,,,,,,,,,,,,,,,,,,,,,,
,,671ddd063e7c74b377de755a,2026-03-17_12h40.43.492,kallum_motion_pilot_GIST_update_2,2026.1.1,Win32,59.17159763,671ddd063e7c74b377de755a,69b92ab4aef6dee357cd729a,69b92f4109e46ed50e9e6c3b,0.1408,0.1408,1,18,180,104,1,fivesix,,,,,,,,,,,,,,,,,,,,,,,,,,,,,,,,,,,,,,,,,,,,,,,,,,,,,,,,,,,,,,,,,,,,,,,,,,,,,,,,,,,,,,,,,,,,,,,,,,,,,,,,,,,,,,,,,,,,,,,,,,,,,,,,,,,,,,,,,
,,671ddd063e7c74b377de755a,2026-03-17_12h40.43.492,kallum_motion_pilot_GIST_update_2,2026.1.1,Win32,59.17159763,671ddd063e7c74b377de755a,69b92ab4aef6dee357cd729a,69b92f4109e46ed50e9e6c3b,0.1412,0.1412,1,19,181,154,1,sixfive,,,,,,,,,,,,,,,,,,,,,,,,,,,,,,,,,,,,,,,,,,,,,,,,,,,,,,,,,,,,,,,,,,,,,,,,,,,,,,,,,,,,,,,,,,,,,,,,,,,,,,,,,,,,,,,,,,,,,,,,,,,,,,,,,,,,,,,,,
,,671ddd063e7c74b377de755a,2026-03-17_12h40.43.492,kallum_motion_pilot_GIST_update_2,2026.1.1,Win32,59.17159763,671ddd063e7c74b377de755a,69b92ab4aef6dee357cd729a,69b92f4109e46ed50e9e6c3b,0.1414,0.1414,1,20,182,161,1,fiveseven,,,,,,,,,,,,,,,,,,,,,,,,,,,,,,,,,,,,,,,,,,,,,,,,,,,,,,,,,,,,,,,,,,,,,,,,,,,,,,,,,,,,,,,,,,,,,,,,,,,,,,,,,,,,,,,,,,,,,,,,,,,,,,,,,,,,,,,,,
,,671ddd063e7c74b377de755a,2026-03-17_12h40.43.492,kallum_motion_pilot_GIST_update_2,2026.1.1,Win32,59.17159763,671ddd063e7c74b377de755a,69b92ab4aef6dee357cd729a,69b92f4109e46ed50e9e6c3b,0.1418,0.1418,1,21,183,61,1,threefour,,,,,,,,,,,,,,,,,,,,,,,,,,,,,,,,,,,,,,,,,,,,,,,,,,,,,,,,,,,,,,,,,,,,,,,,,,,,,,,,,,,,,,,,,,,,,,,,,,,,,,,,,,,,,,,,,,,,,,,,,,,,,,,,,,,,,,,,,
,,671ddd063e7c74b377de755a,2026-03-17_12h40.43.492,kallum_motion_pilot_GIST_update_2,2026.1.1,Win32,59.17159763,671ddd063e7c74b377de755a,69b92ab4aef6dee357cd729a,69b92f4109e46ed50e9e6c3b,0.1421,0.1421,1,22,184,45,1,threefour,,,,,,,,,,,,,,,,,,,,,,,,,,,,,,,,,,,,,,,,,,,,,,,,,,,,,,,,,,,,,,,,,,,,,,,,,,,,,,,,,,,,,,,,,,,,,,,,,,,,,,,,,,,,,,,,,,,,,,,,,,,,,,,,,,,,,,,,,
,,671ddd063e7c74b377de755a,2026-03-17_12h40.43.492,kallum_motion_pilot_GIST_update_2,2026.1.1,Win32,59.17159763,671ddd063e7c74b377de755a,69b92ab4aef6dee357cd729a,69b92f4109e46ed50e9e6c3b,0.1424,0.1424,1,23,185,23,1,fourthree,,,,,,,,,,,,,,,,,,,,,,,,,,,,,,,,,,,,,,,,,,,,,,,,,,,,,,,,,,,,,,,,,,,,,,,,,,,,,,,,,,,,,,,,,,,,,,,,,,,,,,,,,,,,,,,,,,,,,,,,,,,,,,,,,,,,,,,,,
,,671ddd063e7c74b377de755a,2026-03-17_12h40.43.492,kallum_motion_pilot_GIST_update_2,2026.1.1,Win32,59.17159763,671ddd063e7c74b377de755a,69b92ab4aef6dee357cd729a,69b92f4109e46ed50e9e6c3b,0.1427,0.1427,1,24,186,39,1,fourthree,,,,,,,,,,,,,,,,,,,,,,,,,,,,,,,,,,,,,,,,,,,,,,,,,,,,,,,,,,,,,,,,,,,,,,,,,,,,,,,,,,,,,,,,,,,,,,,,,,,,,,,,,,,,,,,,,,,,,,,,,,,,,,,,,,,,,,,,,
,,671ddd063e7c74b377de755a,2026-03-17_12h40.43.492,kallum_motion_pilot_GIST_update_2,2026.1.1,Win32,59.17159763,671ddd063e7c74b377de755a,69b92ab4aef6dee357cd729a,69b92f4109e46ed50e9e6c3b,0.1431,0.1431,1,25,187,15,1,fourthree,,,,,,,,,,,,,,,,,,,,,,,,,,,,,,,,,,,,,,,,,,,,,,,,,,,,,,,,,,,,,,,,,,,,,,,,,,,,,,,,,,,,,,,,,,,,,,,,,,,,,,,,,,,,,,,,,,,,,,,,,,,,,,,,,,,,,,,,,
,,671ddd063e7c74b377de755a,2026-03-17_12h40.43.492,kallum_motion_pilot_GIST_update_2,2026.1.1,Win32,59.17159763,671ddd063e7c74b377de755a,69b92ab4aef6dee357cd729a,69b92f4109e46ed50e9e6c3b,0.1433,0.1433,1,26,188,149,1,seveneight,,,,,,,,,,,,,,,,,,,,,,,,,,,,,,,,,,,,,,,,,,,,,,,,,,,,,,,,,,,,,,,,,,,,,,,,,,,,,,,,,,,,,,,,,,,,,,,,,,,,,,,,,,,,,,,,,,,,,,,,,,,,,,,,,,,,,,,,,
,,671ddd063e7c74b377de755a,2026-03-17_12h40.43.492,kallum_motion_pilot_GIST_update_2,2026.1.1,Win32,59.17159763,671ddd063e7c74b377de755a,69b92ab4aef6dee357cd729a,69b92f4109e46ed50e9e6c3b,0.1435,0.1435,1,27,189,135,1,eightseven,,,,,,,,,,,,,,,,,,,,,,,,,,,,,,,,,,,,,,,,,,,,,,,,,,,,,,,,,,,,,,,,,,,,,,,,,,,,,,,,,,,,,,,,,,,,,,,,,,,,,,,,,,,,,,,,,,,,,,,,,,,,,,,,,,,,,,,,,
,,671ddd063e7c74b377de755a,2026-03-17_12h40.43.492,kallum_motion_pilot_GIST_update_2,2026.1.1,Win32,59.17159763,671ddd063e7c74b377de755a,69b92ab4aef6dee357cd729a,69b92f4109e46ed50e9e6c3b,0.1437,0.1437,1,28,190,14,1,fourtwo,,,,,,,,,,,,,,,,,,,,,,,,,,,,,,,,,,,,,,,,,,,,,,,,,,,,,,,,,,,,,,,,,,,,,,,,,,,,,,,,,,,,,,,,,,,,,,,,,,,,,,,,,,,,,,,,,,,,,,,,,,,,,,,,,,,,,,,,,
,,671ddd063e7c74b377de755a,2026-03-17_12h40.43.492,kallum_motion_pilot_GIST_update_2,2026.1.1,Win32,59.17159763,671ddd063e7c74b377de755a,69b92ab4aef6dee357cd729a,69b92f4109e46ed50e9e6c3b,0.1444,0.1444,1,29,191,35,1,twofour,,,,,,,,,,,,,,,,,,,,,,,,,,,,,,,,,,,,,,,,,,,,,,,,,,,,,,,,,,,,,,,,,,,,,,,,,,,,,,,,,,,,,,,,,,,,,,,,,,,,,,,,,,,,,,,,,,,,,,,,,,,,,,,,,,,,,,,,,
,,671ddd063e7c74b377de755a,2026-03-17_12h40.43.492,kallum_motion_pilot_GIST_update_2,2026.1.1,Win32,59.17159763,671ddd063e7c74b377de755a,69b92ab4aef6dee357cd729a,69b92f4109e46ed50e9e6c3b,0.1452,0.1452,1,30,192,155,1,sixeight,,,,,,,,,,,,,,,,,,,,,,,,,,,,,,,,,,,,,,,,,,,,,,,,,,,,,,,,,,,,,,,,,,,,,,,,,,,,,,,,,,,,,,,,,,,,,,,,,,,,,,,,,,,,,,,,,,,,,,,,,,,,,,,,,,,,,,,,,
,,671ddd063e7c74b377de755a,2026-03-17_12h40.43.492,kallum_motion_pilot_GIST_update_2,2026.1.1,Win32,59.17159763,671ddd063e7c74b377de755a,69b92ab4aef6dee357cd729a,69b92f4109e46ed50e9e6c3b,0.1454,0.1454,1,31,193,145,1,fiveseven,,,,,,,,,,,,,,,,,,,,,,,,,,,,,,,,,,,,,,,,,,,,,,,,,,,,,,,,,,,,,,,,,,,,,,,,,,,,,,,,,,,,,,,,,,,,,,,,,,,,,,,,,,,,,,,,,,,,,,,,,,,,,,,,,,,,,,,,,
,,671ddd063e7c74b377de755a,2026-03-17_12h40.43.492,kallum_motion_pilot_GIST_update_2,2026.1.1,Win32,59.17159763,671ddd063e7c74b377de755a,69b92ab4aef6dee357cd729a,69b92f4109e46ed50e9e6c3b,0.1457,0.1457,1,32,194,79,1,eightseven,,,,,,,,,,,,,,,,,,,,,,,,,,,,,,,,,,,,,,,,,,,,,,,,,,,,,,,,,,,,,,,,,,,,,,,,,,,,,,,,,,,,,,,,,,,,,,,,,,,,,,,,,,,,,,,,,,,,,,,,,,,,,,,,,,,,,,,,,
,,671ddd063e7c74b377de755a,2026-03-17_12h40.43.492,kallum_motion_pilot_GIST_update_2,2026.1.1,Win32,59.17159763,671ddd063e7c74b377de755a,69b92ab4aef6dee357cd729a,69b92f4109e46ed50e9e6c3b,0.1462,0.1463,1,33,195,118,1,eightsix,,,,,,,,,,,,,,,,,,,,,,,,,,,,,,,,,,,,,,,,,,,,,,,,,,,,,,,,,,,,,,,,,,,,,,,,,,,,,,,,,,,,,,,,,,,,,,,,,,,,,,,,,,,,,,,,,,,,,,,,,,,,,,,,,,,,,,,,,
,,671ddd063e7c74b377de755a,2026-03-17_12h40.43.492,kallum_motion_pilot_GIST_update_2,2026.1.1,Win32,59.17159763,671ddd063e7c74b377de755a,69b92ab4aef6dee357cd729a,69b92f4109e46ed50e9e6c3b,0.1466,0.1466,1,34,196,18,1,twoone,,,,,,,,,,,,,,,,,,,,,,,,,,,,,,,,,,,,,,,,,,,,,,,,,,,,,,,,,,,,,,,,,,,,,,,,,,,,,,,,,,,,,,,,,,,,,,,,,,,,,,,,,,,,,,,,,,,,,,,,,,,,,,,,,,,,,,,,,
,,671ddd063e7c74b377de755a,2026-03-17_12h40.43.492,kallum_motion_pilot_GIST_update_2,2026.1.1,Win32,59.17159763,671ddd063e7c74b377de755a,69b92ab4aef6dee357cd729a,69b92f4109e46ed50e9e6c3b,0.1469,0.1469,1,35,197,140,1,sevenfive,,,,,,,,,,,,,,,,,,,,,,,,,,,,,,,,,,,,,,,,,,,,,,,,,,,,,,,,,,,,,,,,,,,,,,,,,,,,,,,,,,,,,,,,,,,,,,,,,,,,,,,,,,,,,,,,,,,,,,,,,,,,,,,,,,,,,,,,,
,,671ddd063e7c74b377de755a,2026-03-17_12h40.43.492,kallum_motion_pilot_GIST_update_2,2026.1.1,Win32,59.17159763,671ddd063e7c74b377de755a,69b92ab4aef6dee357cd729a,69b92f4109e46ed50e9e6c3b,0.1472,0.1473,1,36,198,7,1,fourthree,,,,,,,,,,,,,,,,,,,,,,,,,,,,,,,,,,,,,,,,,,,,,,,,,,,,,,,,,,,,,,,,,,,,,,,,,,,,,,,,,,,,,,,,,,,,,,,,,,,,,,,,,,,,,,,,,,,,,,,,,,,,,,,,,,,,,,,,,
,,671ddd063e7c74b377de755a,2026-03-17_12h40.43.492,kallum_motion_pilot_GIST_update_2,2026.1.1,Win32,59.17159763,671ddd063e7c74b377de755a,69b92ab4aef6dee357cd729a,69b92f4109e46ed50e9e6c3b,0.1476,0.1476,1,37,199,12,1,threeone,,,,,,,,,,,,,,,,,,,,,,,,,,,,,,,,,,,,,,,,,,,,,,,,,,,,,,,,,,,,,,,,,,,,,,,,,,,,,,,,,,,,,,,,,,,,,,,,,,,,,,,,,,,,,,,,,,,,,,,,,,,,,,,,,,,,,,,,,
,,671ddd063e7c74b377de755a,2026-03-17_12h40.43.492,kallum_motion_pilot_GIST_update_2,2026.1.1,Win32,59.17159763,671ddd063e7c74b377de755a,69b92ab4aef6dee357cd729a,69b92f4109e46ed50e9e6c3b,0.148,0.148,1,38,200,44,1,threeone,,,,,,,,,,,,,,,,,,,,,,,,,,,,,,,,,,,,,,,,,,,,,,,,,,,,,,,,,,,,,,,,,,,,,,,,,,,,,,,,,,,,,,,,,,,,,,,,,,,,,,,,,,,,,,,,,,,,,,,,,,,,,,,,,,,,,,,,,
,,671ddd063e7c74b377de755a,2026-03-17_12h40.43.492,kallum_motion_pilot_GIST_update_2,2026.1.1,Win32,59.17159763,671ddd063e7c74b377de755a,69b92ab4aef6dee357cd729a,69b92f4109e46ed50e9e6c3b,0.1484,0.1484,1,39,201,21,1,threefour,,,,,,,,,,,,,,,,,,,,,,,,,,,,,,,,,,,,,,,,,,,,,,,,,,,,,,,,,,,,,,,,,,,,,,,,,,,,,,,,,,,,,,,,,,,,,,,,,,,,,,,,,,,,,,,,,,,,,,,,,,,,,,,,,,,,,,,,,
,,671ddd063e7c74b377de755a,2026-03-17_12h40.43.492,kallum_motion_pilot_GIST_update_2,2026.1.1,Win32,59.17159763,671ddd063e7c74b377de755a,69b92ab4aef6dee357cd729a,69b92f4109e46ed50e9e6c3b,0.1504,0.1504,1,40,202,67,1,twofour,,,,,,,,,,,,,,,,,,,,,,,,,,,,,,,,,,,,,,,,,,,,,,,,,,,,,,,,,,,,,,,,,,,,,,,,,,,,,,,,,,,,,,,,,,,,,,,,,,,,,,,,,,,,,,,,,,,,,,,,,,,,,,,,,,,,,,,,,
,,671ddd063e7c74b377de755a,2026-03-17_12h40.43.492,kallum_motion_pilot_GIST_update_2,2026.1.1,Win32,59.17159763,671ddd063e7c74b377de755a,69b92ab4aef6dee357cd729a,69b92f4109e46ed50e9e6c3b,0.1507,0.1508,1,41,203,4,1,threeone,,,,,,,,,,,,,,,,,,,,,,,,,,,,,,,,,,,,,,,,,,,,,,,,,,,,,,,,,,,,,,,,,,,,,,,,,,,,,,,,,,,,,,,,,,,,,,,,,,,,,,,,,,,,,,,,,,,,,,,,,,,,,,,,,,,,,,,,,
,,671ddd063e7c74b377de755a,2026-03-17_12h40.43.492,kallum_motion_pilot_GIST_update_2,2026.1.1,Win32,59.17159763,671ddd063e7c74b377de755a,69b92ab4aef6dee357cd729a,69b92f4109e46ed50e9e6c3b,0.1511,0.1511,1,42,204,119,1,eightseven,,,,,,,,,,,,,,,,,,,,,,,,,,,,,,,,,,,,,,,,,,,,,,,,,,,,,,,,,,,,,,,,,,,,,,,,,,,,,,,,,,,,,,,,,,,,,,,,,,,,,,,,,,,,,,,,,,,,,,,,,,,,,,,,,,,,,,,,,
,,671ddd063e7c74b377de755a,2026-03-17_12h40.43.492,kallum_motion_pilot_GIST_update_2,2026.1.1,Win32,59.17159763,671ddd063e7c74b377de755a,69b92ab4aef6dee357cd729a,69b92f4109e46ed50e9e6c3b,0.1514,0.1514,1,43,205,46,1,fourtwo,,,,,,,,,,,,,,,,,,,,,,,,,,,,,,,,,,,,,,,,,,,,,,,,,,,,,,,,,,,,,,,,,,,,,,,,,,,,,,,,,,,,,,,,,,,,,,,,,,,,,,,,,,,,,,,,,,,,,,,,,,,,,,,,,,,,,,,,,
,,671ddd063e7c74b377de755a,2026-03-17_12h40.43.492,kallum_motion_pilot_GIST_update_2,2026.1.1,Win32,59.17159763,671ddd063e7c74b377de755a,69b92ab4aef6dee357cd729a,69b92f4109e46ed50e9e6c3b,0.1518,0.1518,1,44,206,56,1,onetwo,,,,,,,,,,,,,,,,,,,,,,,,,,,,,,,,,,,,,,,,,,,,,,,,,,,,,,,,,,,,,,,,,,,,,,,,,,,,,,,,,,,,,,,,,,,,,,,,,,,,,,,,,,,,,,,,,,,,,,,,,,,,,,,,,,,,,,,,,
,,671ddd063e7c74b377de755a,2026-03-17_12h40.43.492,kallum_motion_pilot_GIST_update_2,2026.1.1,Win32,59.17159763,671ddd063e7c74b377de755a,69b92ab4aef6dee357cd729a,69b92f4109e46ed50e9e6c3b,0.1521,0.1521,1,45,207,75,1,twofour,,,,,,,,,,,,,,,,,,,,,,,,,,,,,,,,,,,,,,,,,,,,,,,,,,,,,,,,,,,,,,,,,,,,,,,,,,,,,,,,,,,,,,,,,,,,,,,,,,,,,,,,,,,,,,,,,,,,,,,,,,,,,,,,,,,,,,,,,
,,671ddd063e7c74b377de755a,2026-03-17_12h40.43.492,kallum_motion_pilot_GIST_update_2,2026.1.1,Win32,59.17159763,671ddd063e7c74b377de755a,69b92ab4aef6dee357cd729a,69b92f4109e46ed50e9e6c3b,0.1524,0.1524,1,46,208,8,1,onetwo,,,,,,,,,,,,,,,,,,,,,,,,,,,,,,,,,,,,,,,,,,,,,,,,,,,,,,,,,,,,,,,,,,,,,,,,,,,,,,,,,,,,,,,,,,,,,,,,,,,,,,,,,,,,,,,,,,,,,,,,,,,,,,,,,,,,,,,,,
,,671ddd063e7c74b377de755a,2026-03-17_12h40.43.492,kallum_motion_pilot_GIST_update_2,2026.1.1,Win32,59.17159763,671ddd063e7c74b377de755a,69b92ab4aef6dee357cd729a,69b92f4109e46ed50e9e6c3b,0.1528,0.1528,1,47,209,37,1,threefour,,,,,,,,,,,,,,,,,,,,,,,,,,,,,,,,,,,,,,,,,,,,,,,,,,,,,,,,,,,,,,,,,,,,,,,,,,,,,,,,,,,,,,,,,,,,,,,,,,,,,,,,,,,,,,,,,,,,,,,,,,,,,,,,,,,,,,,,,
,,671ddd063e7c74b377de755a,2026-03-17_12h40.43.492,kallum_motion_pilot_GIST_update_2,2026.1.1,Win32,59.17159763,671ddd063e7c74b377de755a,69b92ab4aef6dee357cd729a,69b92f4109e46ed50e9e6c3b,0.1531,0.1531,1,48,210,134,1,eightsix,,,,,,,,,,,,,,,,,,,,,,,,,,,,,,,,,,,,,,,,,,,,,,,,,,,,,,,,,,,,,,,,,,,,,,,,,,,,,,,,,,,,,,,,,,,,,,,,,,,,,,,,,,,,,,,,,,,,,,,,,,,,,,,,,,,,,,,,,
,,671ddd063e7c74b377de755a,2026-03-17_12h40.43.492,kallum_motion_pilot_GIST_update_2,2026.1.1,Win32,59.17159763,671ddd063e7c74b377de755a,69b92ab4aef6dee357cd729a,69b92f4109e46ed50e9e6c3b,0.1534,0.1534,1,49,211,54,1,fourtwo,,,,,,,,,,,,,,,,,,,,,,,,,,,,,,,,,,,,,,,,,,,,,,,,,,,,,,,,,,,,,,,,,,,,,,,,,,,,,,,,,,,,,,,,,,,,,,,,,,,,,,,,,,,,,,,,,,,,,,,,,,,,,,,,,,,,,,,,,
,,671ddd063e7c74b377de755a,2026-03-17_12h40.43.492,kallum_motion_pilot_GIST_update_2,2026.1.1,Win32,59.17159763,671ddd063e7c74b377de755a,69b92ab4aef6dee357cd729a,69b92f4109e46ed50e9e6c3b,0.1537,0.1537,1,50,212,43,1,twofour,,,,,,,,,,,,,,,,,,,,,,,,,,,,,,,,,,,,,,,,,,,,,,,,,,,,,,,,,,,,,,,,,,,,,,,,,,,,,,,,,,,,,,,,,,,,,,,,,,,,,,,,,,,,,,,,,,,,,,,,,,,,,,,,,,,,,,,,,
,,671ddd063e7c74b377de755a,2026-03-17_12h40.43.492,kallum_motion_pilot_GIST_update_2,2026.1.1,Win32,59.17159763,671ddd063e7c74b377de755a,69b92ab4aef6dee357cd729a,69b92f4109e46ed50e9e6c3b,0.1542,0.1542,1,51,213,6,1,fourtwo,,,,,,,,,,,,,,,,,,,,,,,,,,,,,,,,,,,,,,,,,,,,,,,,,,,,,,,,,,,,,,,,,,,,,,,,,,,,,,,,,,,,,,,,,,,,,,,,,,,,,,,,,,,,,,,,,,,,,,,,,,,,,,,,,,,,,,,,,
,,671ddd063e7c74b377de755a,2026-03-17_12h40.43.492,kallum_motion_pilot_GIST_update_2,2026.1.1,Win32,59.17159763,671ddd063e7c74b377de755a,69b92ab4aef6dee357cd729a,69b92f4109e46ed50e9e6c3b,0.1544,0.1544,1,52,214,138,1,sixfive,,,,,,,,,,,,,,,,,,,,,,,,,,,,,,,,,,,,,,,,,,,,,,,,,,,,,,,,,,,,,,,,,,,,,,,,,,,,,,,,,,,,,,,,,,,,,,,,,,,,,,,,,,,,,,,,,,,,,,,,,,,,,,,,,,,,,,,,,
,,671ddd063e7c74b377de755a,2026-03-17_12h40.43.492,kallum_motion_pilot_GIST_update_2,2026.1.1,Win32,59.17159763,671ddd063e7c74b377de755a,69b92ab4aef6dee357cd729a,69b92f4109e46ed50e9e6c3b,0.1548,0.1548,1,53,215,81,1,fiveseven,,,,,,,,,,,,,,,,,,,,,,,,,,,,,,,,,,,,,,,,,,,,,,,,,,,,,,,,,,,,,,,,,,,,,,,,,,,,,,,,,,,,,,,,,,,,,,,,,,,,,,,,,,,,,,,,,,,,,,,,,,,,,,,,,,,,,,,,,
,,671ddd063e7c74b377de755a,2026-03-17_12h40.43.492,kallum_motion_pilot_GIST_update_2,2026.1.1,Win32,59.17159763,671ddd063e7c74b377de755a,69b92ab4aef6dee357cd729a,69b92f4109e46ed50e9e6c3b,0.1552,0.1552,1,54,216,86,1,eightsix,,,,,,,,,,,,,,,,,,,,,,,,,,,,,,,,,,,,,,,,,,,,,,,,,,,,,,,,,,,,,,,,,,,,,,,,,,,,,,,,,,,,,,,,,,,,,,,,,,,,,,,,,,,,,,,,,,,,,,,,,,,,,,,,,,,,,,,,,
,,671ddd063e7c74b377de755a,2026-03-17_12h40.43.492,kallum_motion_pilot_GIST_update_2,2026.1.1,Win32,59.17159763,671ddd063e7c74b377de755a,69b92ab4aef6dee357cd729a,69b92f4109e46ed50e9e6c3b,0.1555,0.1555,1,55,217,159,1,eightseven,,,,,,,,,,,,,,,,,,,,,,,,,,,,,,,,,,,,,,,,,,,,,,,,,,,,,,,,,,,,,,,,,,,,,,,,,,,,,,,,,,,,,,,,,,,,,,,,,,,,,,,,,,,,,,,,,,,,,,,,,,,,,,,,,,,,,,,,,
,,671ddd063e7c74b377de755a,2026-03-17_12h40.43.492,kallum_motion_pilot_GIST_update_2,2026.1.1,Win32,59.17159763,671ddd063e7c74b377de755a,69b92ab4aef6dee357cd729a,69b92f4109e46ed50e9e6c3b,0.1563,0.1563,1,56,218,63,1,fourthree,,,,,,,,,,,,,,,,,,,,,,,,,,,,,,,,,,,,,,,,,,,,,,,,,,,,,,,,,,,,,,,,,,,,,,,,,,,,,,,,,,,,,,,,,,,,,,,,,,,,,,,,,,,,,,,,,,,,,,,,,,,,,,,,,,,,,,,,,
,,671ddd063e7c74b377de755a,2026-03-17_12h40.43.492,kallum_motion_pilot_GIST_update_2,2026.1.1,Win32,59.17159763,671ddd063e7c74b377de755a,69b92ab4aef6dee357cd729a,69b92f4109e46ed50e9e6c3b,0.1568,0.1569,1,57,219,74,1,twoone,,,,,,,,,,,,,,,,,,,,,,,,,,,,,,,,,,,,,,,,,,,,,,,,,,,,,,,,,,,,,,,,,,,,,,,,,,,,,,,,,,,,,,,,,,,,,,,,,,,,,,,,,,,,,,,,,,,,,,,,,,,,,,,,,,,,,,,,,
,,671ddd063e7c74b377de755a,2026-03-17_12h40.43.492,kallum_motion_pilot_GIST_update_2,2026.1.1,Win32,59.17159763,671ddd063e7c74b377de755a,69b92ab4aef6dee357cd729a,69b92f4109e46ed50e9e6c3b,0.1572,0.1572,1,58,220,146,1,sixfive,,,,,,,,,,,,,,,,,,,,,,,,,,,,,,,,,,,,,,,,,,,,,,,,,,,,,,,,,,,,,,,,,,,,,,,,,,,,,,,,,,,,,,,,,,,,,,,,,,,,,,,,,,,,,,,,,,,,,,,,,,,,,,,,,,,,,,,,,
,,671ddd063e7c74b377de755a,2026-03-17_12h40.43.492,kallum_motion_pilot_GIST_update_2,2026.1.1,Win32,59.17159763,671ddd063e7c74b377de755a,69b92ab4aef6dee357cd729a,69b92f4109e46ed50e9e6c3b,0.1577,0.1577,1,59,221,36,1,threeone,,,,,,,,,,,,,,,,,,,,,,,,,,,,,,,,,,,,,,,,,,,,,,,,,,,,,,,,,,,,,,,,,,,,,,,,,,,,,,,,,,,,,,,,,,,,,,,,,,,,,,,,,,,,,,,,,,,,,,,,,,,,,,,,,,,,,,,,,
,,671ddd063e7c74b377de755a,2026-03-17_12h40.43.492,kallum_motion_pilot_GIST_update_2,2026.1.1,Win32,59.17159763,671ddd063e7c74b377de755a,69b92ab4aef6dee357cd729a,69b92f4109e46ed50e9e6c3b,0.1579,0.1579,1,60,222,48,1,onetwo,,,,,,,,,,,,,,,,,,,,,,,,,,,,,,,,,,,,,,,,,,,,,,,,,,,,,,,,,,,,,,,,,,,,,,,,,,,,,,,,,,,,,,,,,,,,,,,,,,,,,,,,,,,,,,,,,,,,,,,,,,,,,,,,,,,,,,,,,
,,671ddd063e7c74b377de755a,2026-03-17_12h40.43.492,kallum_motion_pilot_GIST_update_2,2026.1.1,Win32,59.17159763,671ddd063e7c74b377de755a,69b92ab4aef6dee357cd729a,69b92f4109e46ed50e9e6c3b,0.1583,0.1583,1,61,223,124,1,sevenfive,,,,,,,,,,,,,,,,,,,,,,,,,,,,,,,,,,,,,,,,,,,,,,,,,,,,,,,,,,,,,,,,,,,,,,,,,,,,,,,,,,,,,,,,,,,,,,,,,,,,,,,,,,,,,,,,,,,,,,,,,,,,,,,,,,,,,,,,,
,,671ddd063e7c74b377de755a,2026-03-17_12h40.43.492,kallum_motion_pilot_GIST_update_2,2026.1.1,Win32,59.17159763,671ddd063e7c74b377de755a,69b92ab4aef6dee357cd729a,69b92f4109e46ed50e9e6c3b,0.1587,0.1587,1,62,224,10,1,twoone,,,,,,,,,,,,,,,,,,,,,,,,,,,,,,,,,,,,,,,,,,,,,,,,,,,,,,,,,,,,,,,,,,,,,,,,,,,,,,,,,,,,,,,,,,,,,,,,,,,,,,,,,,,,,,,,,,,,,,,,,,,,,,,,,,,,,,,,,
,,671ddd063e7c74b377de755a,2026-03-17_12h40.43.492,kallum_motion_pilot_GIST_update_2,2026.1.1,Win32,59.17159763,671ddd063e7c74b377de755a,69b92ab4aef6dee357cd729a,69b92f4109e46ed50e9e6c3b,0.1589,0.1589,1,63,225,80,1,fivesix,,,,,,,,,,,,,,,,,,,,,,,,,,,,,,,,,,,,,,,,,,,,,,,,,,,,,,,,,,,,,,,,,,,,,,,,,,,,,,,,,,,,,,,,,,,,,,,,,,,,,,,,,,,,,,,,,,,,,,,,,,,,,,,,,,,,,,,,,
,,671ddd063e7c74b377de755a,2026-03-17_12h40.43.492,kallum_motion_pilot_GIST_update_2,2026.1.1,Win32,59.17159763,671ddd063e7c74b377de755a,69b92ab4aef6dee357cd729a,69b92f4109e46ed50e9e6c3b,0.1593,0.1593,1,64,226,114,1,sixfive,,,,,,,,,,,,,,,,,,,,,,,,,,,,,,,,,,,,,,,,,,,,,,,,,,,,,,,,,,,,,,,,,,,,,,,,,,,,,,,,,,,,,,,,,,,,,,,,,,,,,,,,,,,,,,,,,,,,,,,,,,,,,,,,,,,,,,,,,
,,671ddd063e7c74b377de755a,2026-03-17_12h40.43.492,kallum_motion_pilot_GIST_update_2,2026.1.1,Win32,59.17159763,671ddd063e7c74b377de755a,69b92ab4aef6dee357cd729a,69b92f4109e46ed50e9e6c3b,0.1597,0.1597,1,65,227,141,1,seveneight,,,,,,,,,,,,,,,,,,,,,,,,,,,,,,,,,,,,,,,,,,,,,,,,,,,,,,,,,,,,,,,,,,,,,,,,,,,,,,,,,,,,,,,,,,,,,,,,,,,,,,,,,,,,,,,,,,,,,,,,,,,,,,,,,,,,,,,,,
,,671ddd063e7c74b377de755a,2026-03-17_12h40.43.492,kallum_motion_pilot_GIST_update_2,2026.1.1,Win32,59.17159763,671ddd063e7c74b377de755a,69b92ab4aef6dee357cd729a,69b92f4109e46ed50e9e6c3b,0.1599,0.1599,1,66,228,47,1,fourthree,,,,,,,,,,,,,,,,,,,,,,,,,,,,,,,,,,,,,,,,,,,,,,,,,,,,,,,,,,,,,,,,,,,,,,,,,,,,,,,,,,,,,,,,,,,,,,,,,,,,,,,,,,,,,,,,,,,,,,,,,,,,,,,,,,,,,,,,,
,,671ddd063e7c74b377de755a,2026-03-17_12h40.43.492,kallum_motion_pilot_GIST_update_2,2026.1.1,Win32,59.17159763,671ddd063e7c74b377de755a,69b92ab4aef6dee357cd729a,69b92f4109e46ed50e9e6c3b,0.1603,0.1603,1,67,229,157,1,seveneight,,,,,,,,,,,,,,,,,,,,,,,,,,,,,,,,,,,,,,,,,,,,,,,,,,,,,,,,,,,,,,,,,,,,,,,,,,,,,,,,,,,,,,,,,,,,,,,,,,,,,,,,,,,,,,,,,,,,,,,,,,,,,,,,,,,,,,,,,
,,671ddd063e7c74b377de755a,2026-03-17_12h40.43.492,kallum_motion_pilot_GIST_update_2,2026.1.1,Win32,59.17159763,671ddd063e7c74b377de755a,69b92ab4aef6dee357cd729a,69b92f4109e46ed50e9e6c3b,0.1607,0.1607,1,68,230,27,1,twofour,,,,,,,,,,,,,,,,,,,,,,,,,,,,,,,,,,,,,,,,,,,,,,,,,,,,,,,,,,,,,,,,,,,,,,,,,,,,,,,,,,,,,,,,,,,,,,,,,,,,,,,,,,,,,,,,,,,,,,,,,,,,,,,,,,,,,,,,,
,,671ddd063e7c74b377de755a,2026-03-17_12h40.43.492,kallum_motion_pilot_GIST_update_2,2026.1.1,Win32,59.17159763,671ddd063e7c74b377de755a,69b92ab4aef6dee357cd729a,69b92f4109e46ed50e9e6c3b,0.161,0.161,1,69,231,123,1,sixeight,,,,,,,,,,,,,,,,,,,,,,,,,,,,,,,,,,,,,,,,,,,,,,,,,,,,,,,,,,,,,,,,,,,,,,,,,,,,,,,,,,,,,,,,,,,,,,,,,,,,,,,,,,,,,,,,,,,,,,,,,,,,,,,,,,,,,,,,,
,,671ddd063e7c74b377de755a,2026-03-17_12h40.43.492,kallum_motion_pilot_GIST_update_2,2026.1.1,Win32,59.17159763,671ddd063e7c74b377de755a,69b92ab4aef6dee357cd729a,69b92f4109e46ed50e9e6c3b,0.1616,0.1617,1,70,232,127,1,eightseven,,,,,,,,,,,,,,,,,,,,,,,,,,,,,,,,,,,,,,,,,,,,,,,,,,,,,,,,,,,,,,,,,,,,,,,,,,,,,,,,,,,,,,,,,,,,,,,,,,,,,,,,,,,,,,,,,,,,,,,,,,,,,,,,,,,,,,,,,
,,671ddd063e7c74b377de755a,2026-03-17_12h40.43.492,kallum_motion_pilot_GIST_update_2,2026.1.1,Win32,59.17159763,671ddd063e7c74b377de755a,69b92ab4aef6dee357cd729a,69b92f4109e46ed50e9e6c3b,0.162,0.162,1,71,233,62,1,fourtwo,,,,,,,,,,,,,,,,,,,,,,,,,,,,,,,,,,,,,,,,,,,,,,,,,,,,,,,,,,,,,,,,,,,,,,,,,,,,,,,,,,,,,,,,,,,,,,,,,,,,,,,,,,,,,,,,,,,,,,,,,,,,,,,,,,,,,,,,,
,,671ddd063e7c74b377de755a,2026-03-17_12h40.43.492,kallum_motion_pilot_GIST_update_2,2026.1.1,Win32,59.17159763,671ddd063e7c74b377de755a,69b92ab4aef6dee357cd729a,69b92f4109e46ed50e9e6c3b,0.1624,0.1624,1,72,234,120,1,fivesix,,,,,,,,,,,,,,,,,,,,,,,,,,,,,,,,,,,,,,,,,,,,,,,,,,,,,,,,,,,,,,,,,,,,,,,,,,,,,,,,,,,,,,,,,,,,,,,,,,,,,,,,,,,,,,,,,,,,,,,,,,,,,,,,,,,,,,,,,
,,671ddd063e7c74b377de755a,2026-03-17_12h40.43.492,kallum_motion_pilot_GIST_update_2,2026.1.1,Win32,59.17159763,671ddd063e7c74b377de755a,69b92ab4aef6dee357cd729a,69b92f4109e46ed50e9e6c3b,0.1628,0.1628,1,73,235,41,1,onethree,,,,,,,,,,,,,,,,,,,,,,,,,,,,,,,,,,,,,,,,,,,,,,,,,,,,,,,,,,,,,,,,,,,,,,,,,,,,,,,,,,,,,,,,,,,,,,,,,,,,,,,,,,,,,,,,,,,,,,,,,,,,,,,,,,,,,,,,,
,,671ddd063e7c74b377de755a,2026-03-17_12h40.43.492,kallum_motion_pilot_GIST_update_2,2026.1.1,Win32,59.17159763,671ddd063e7c74b377de755a,69b92ab4aef6dee357cd729a,69b92f4109e46ed50e9e6c3b,0.1632,0.1632,1,74,236,30,1,fourtwo,,,,,,,,,,,,,,,,,,,,,,,,,,,,,,,,,,,,,,,,,,,,,,,,,,,,,,,,,,,,,,,,,,,,,,,,,,,,,,,,,,,,,,,,,,,,,,,,,,,,,,,,,,,,,,,,,,,,,,,,,,,,,,,,,,,,,,,,,
,,671ddd063e7c74b377de755a,2026-03-17_12h40.43.492,kallum_motion_pilot_GIST_update_2,2026.1.1,Win32,59.17159763,671ddd063e7c74b377de755a,69b92ab4aef6dee357cd729a,69b92f4109e46ed50e9e6c3b,0.1635,0.1635,1,75,237,136,1,fivesix,,,,,,,,,,,,,,,,,,,,,,,,,,,,,,,,,,,,,,,,,,,,,,,,,,,,,,,,,,,,,,,,,,,,,,,,,,,,,,,,,,,,,,,,,,,,,,,,,,,,,,,,,,,,,,,,,,,,,,,,,,,,,,,,,,,,,,,,,
,,671ddd063e7c74b377de755a,2026-03-17_12h40.43.492,kallum_motion_pilot_GIST_update_2,2026.1.1,Win32,59.17159763,671ddd063e7c74b377de755a,69b92ab4aef6dee357cd729a,69b92f4109e46ed50e9e6c3b,0.1638,0.1638,1,76,238,102,1,eightsix,,,,,,,,,,,,,,,,,,,,,,,,,,,,,,,,,,,,,,,,,,,,,,,,,,,,,,,,,,,,,,,,,,,,,,,,,,,,,,,,,,,,,,,,,,,,,,,,,,,,,,,,,,,,,,,,,,,,,,,,,,,,,,,,,,,,,,,,,
,,671ddd063e7c74b377de755a,2026-03-17_12h40.43.492,kallum_motion_pilot_GIST_update_2,2026.1.1,Win32,59.17159763,671ddd063e7c74b377de755a,69b92ab4aef6dee357cd729a,69b92f4109e46ed50e9e6c3b,0.1643,0.1643,1,77,239,92,1,sevenfive,,,,,,,,,,,,,,,,,,,,,,,,,,,,,,,,,,,,,,,,,,,,,,,,,,,,,,,,,,,,,,,,,,,,,,,,,,,,,,,,,,,,,,,,,,,,,,,,,,,,,,,,,,,,,,,,,,,,,,,,,,,,,,,,,,,,,,,,,
,,671ddd063e7c74b377de755a,2026-03-17_12h40.43.492,kallum_motion_pilot_GIST_update_2,2026.1.1,Win32,59.17159763,671ddd063e7c74b377de755a,69b92ab4aef6dee357cd729a,69b92f4109e46ed50e9e6c3b,0.1646,0.1646,1,78,240,100,1,sevenfive,,,,,,,,,,,,,,,,,,,,,,,,,,,,,,,,,,,,,,,,,,,,,,,,,,,,,,,,,,,,,,,,,,,,,,,,,,,,,,,,,,,,,,,,,,,,,,,,,,,,,,,,,,,,,,,,,,,,,,,,,,,,,,,,,,,,,,,,,
,,671ddd063e7c74b377de755a,2026-03-17_12h40.43.492,kallum_motion_pilot_GIST_update_2,2026.1.1,Win32,59.17159763,671ddd063e7c74b377de755a,69b92ab4aef6dee357cd729a,69b92f4109e46ed50e9e6c3b,0.165,0.165,1,79,241,95,1,eightseven,,,,,,,,,,,,,,,,,,,,,,,,,,,,,,,,,,,,,,,,,,,,,,,,,,,,,,,,,,,,,,,,,,,,,,,,,,,,,,,,,,,,,,,,,,,,,,,,,,,,,,,,,,,,,,,,,,,,,,,,,,,,,,,,,,,,,,,,,
,,671ddd063e7c74b377de755a,2026-03-17_12h40.43.492,kallum_motion_pilot_GIST_update_2,2026.1.1,Win32,59.17159763,671ddd063e7c74b377de755a,69b92ab4aef6dee357cd729a,69b92f4109e46ed50e9e6c3b,0.1653,0.1653,1,80,242,3,1,twofour,,,,,,,,,,,,,,,,,,,,,,,,,,,,,,,,,,,,,,,,,,,,,,,,,,,,,,,,,,,,,,,,,,,,,,,,,,,,,,,,,,,,,,,,,,,,,,,,,,,,,,,,,,,,,,,,,,,,,,,,,,,,,,,,,,,,,,,,,
,,671ddd063e7c74b377de755a,2026-03-17_12h40.43.492,kallum_motion_pilot_GIST_update_2,2026.1.1,Win32,59.17159763,671ddd063e7c74b377de755a,69b92ab4aef6dee357cd729a,69b92f4109e46ed50e9e6c3b,0.1656,0.1656,1,81,243,142,1,eightsix,,,,,,,,,,,,,,,,,,,,,,,,,,,,,,,,,,,,,,,,,,,,,,,,,,,,,,,,,,,,,,,,,,,,,,,,,,,,,,,,,,,,,,,,,,,,,,,,,,,,,,,,,,,,,,,,,,,,,,,,,,,,,,,,,,,,,,,,,
,,671ddd063e7c74b377de755a,2026-03-17_12h40.43.492,kallum_motion_pilot_GIST_update_2,2026.1.1,Win32,59.17159763,671ddd063e7c74b377de755a,69b92ab4aef6dee357cd729a,69b92f4109e46ed50e9e6c3b,0.166,0.166,1,82,244,94,1,eightsix,,,,,,,,,,,,,,,,,,,,,,,,,,,,,,,,,,,,,,,,,,,,,,,,,,,,,,,,,,,,,,,,,,,,,,,,,,,,,,,,,,,,,,,,,,,,,,,,,,,,,,,,,,,,,,,,,,,,,,,,,,,,,,,,,,,,,,,,,
,,671ddd063e7c74b377de755a,2026-03-17_12h40.43.492,kallum_motion_pilot_GIST_update_2,2026.1.1,Win32,59.17159763,671ddd063e7c74b377de755a,69b92ab4aef6dee357cd729a,69b92f4109e46ed50e9e6c3b,0.1663,0.1663,1,83,245,125,1,seveneight,,,,,,,,,,,,,,,,,,,,,,,,,,,,,,,,,,,,,,,,,,,,,,,,,,,,,,,,,,,,,,,,,,,,,,,,,,,,,,,,,,,,,,,,,,,,,,,,,,,,,,,,,,,,,,,,,,,,,,,,,,,,,,,,,,,,,,,,,
,,671ddd063e7c74b377de755a,2026-03-17_12h40.43.492,kallum_motion_pilot_GIST_update_2,2026.1.1,Win32,59.17159763,671ddd063e7c74b377de755a,69b92ab4aef6dee357cd729a,69b92f4109e46ed50e9e6c3b,0.1667,0.1667,1,84,246,70,1,fourtwo,,,,,,,,,,,,,,,,,,,,,,,,,,,,,,,,,,,,,,,,,,,,,,,,,,,,,,,,,,,,,,,,,,,,,,,,,,,,,,,,,,,,,,,,,,,,,,,,,,,,,,,,,,,,,,,,,,,,,,,,,,,,,,,,,,,,,,,,,
,,671ddd063e7c74b377de755a,2026-03-17_12h40.43.492,kallum_motion_pilot_GIST_update_2,2026.1.1,Win32,59.17159763,671ddd063e7c74b377de755a,69b92ab4aef6dee357cd729a,69b92f4109e46ed50e9e6c3b,0.1669,0.167,1,85,247,2,1,twoone,,,,,,,,,,,,,,,,,,,,,,,,,,,,,,,,,,,,,,,,,,,,,,,,,,,,,,,,,,,,,,,,,,,,,,,,,,,,,,,,,,,,,,,,,,,,,,,,,,,,,,,,,,,,,,,,,,,,,,,,,,,,,,,,,,,,,,,,,
,,671ddd063e7c74b377de755a,2026-03-17_12h40.43.492,kallum_motion_pilot_GIST_update_2,2026.1.1,Win32,59.17159763,671ddd063e7c74b377de755a,69b92ab4aef6dee357cd729a,69b92f4109e46ed50e9e6c3b,0.1673,0.1673,1,86,248,115,1,sixeight,,,,,,,,,,,,,,,,,,,,,,,,,,,,,,,,,,,,,,,,,,,,,,,,,,,,,,,,,,,,,,,,,,,,,,,,,,,,,,,,,,,,,,,,,,,,,,,,,,,,,,,,,,,,,,,,,,,,,,,,,,,,,,,,,,,,,,,,,
,,671ddd063e7c74b377de755a,2026-03-17_12h40.43.492,kallum_motion_pilot_GIST_update_2,2026.1.1,Win32,59.17159763,671ddd063e7c74b377de755a,69b92ab4aef6dee357cd729a,69b92f4109e46ed50e9e6c3b,0.1677,0.1677,1,87,249,60,1,threeone,,,,,,,,,,,,,,,,,,,,,,,,,,,,,,,,,,,,,,,,,,,,,,,,,,,,,,,,,,,,,,,,,,,,,,,,,,,,,,,,,,,,,,,,,,,,,,,,,,,,,,,,,,,,,,,,,,,,,,,,,,,,,,,,,,,,,,,,,
,,671ddd063e7c74b377de755a,2026-03-17_12h40.43.492,kallum_motion_pilot_GIST_update_2,2026.1.1,Win32,59.17159763,671ddd063e7c74b377de755a,69b92ab4aef6dee357cd729a,69b92f4109e46ed50e9e6c3b,0.168,0.168,1,88,250,32,1,onetwo,,,,,,,,,,,,,,,,,,,,,,,,,,,,,,,,,,,,,,,,,,,,,,,,,,,,,,,,,,,,,,,,,,,,,,,,,,,,,,,,,,,,,,,,,,,,,,,,,,,,,,,,,,,,,,,,,,,,,,,,,,,,,,,,,,,,,,,,,
,,671ddd063e7c74b377de755a,2026-03-17_12h40.43.492,kallum_motion_pilot_GIST_update_2,2026.1.1,Win32,59.17159763,671ddd063e7c74b377de755a,69b92ab4aef6dee357cd729a,69b92f4109e46ed50e9e6c3b,0.1684,0.1684,1,89,251,121,1,fiveseven,,,,,,,,,,,,,,,,,,,,,,,,,,,,,,,,,,,,,,,,,,,,,,,,,,,,,,,,,,,,,,,,,,,,,,,,,,,,,,,,,,,,,,,,,,,,,,,,,,,,,,,,,,,,,,,,,,,,,,,,,,,,,,,,,,,,,,,,,
,,671ddd063e7c74b377de755a,2026-03-17_12h40.43.492,kallum_motion_pilot_GIST_update_2,2026.1.1,Win32,59.17159763,671ddd063e7c74b377de755a,69b92ab4aef6dee357cd729a,69b92f4109e46ed50e9e6c3b,0.1687,0.1687,1,90,252,11,1,twofour,,,,,,,,,,,,,,,,,,,,,,,,,,,,,,,,,,,,,,,,,,,,,,,,,,,,,,,,,,,,,,,,,,,,,,,,,,,,,,,,,,,,,,,,,,,,,,,,,,,,,,,,,,,,,,,,,,,,,,,,,,,,,,,,,,,,,,,,,
,,671ddd063e7c74b377de755a,2026-03-17_12h40.43.492,kallum_motion_pilot_GIST_update_2,2026.1.1,Win32,59.17159763,671ddd063e7c74b377de755a,69b92ab4aef6dee357cd729a,69b92f4109e46ed50e9e6c3b,0.1691,0.1691,1,91,253,139,1,sixeight,,,,,,,,,,,,,,,,,,,,,,,,,,,,,,,,,,,,,,,,,,,,,,,,,,,,,,,,,,,,,,,,,,,,,,,,,,,,,,,,,,,,,,,,,,,,,,,,,,,,,,,,,,,,,,,,,,,,,,,,,,,,,,,,,,,,,,,,,
,,671ddd063e7c74b377de755a,2026-03-17_12h40.43.492,kallum_motion_pilot_GIST_update_2,2026.1.1,Win32,59.17159763,671ddd063e7c74b377de755a,69b92ab4aef6dee357cd729a,69b92f4109e46ed50e9e6c3b,0.1695,0.1695,1,92,254,17,1,onethree,,,,,,,,,,,,,,,,,,,,,,,,,,,,,,,,,,,,,,,,,,,,,,,,,,,,,,,,,,,,,,,,,,,,,,,,,,,,,,,,,,,,,,,,,,,,,,,,,,,,,,,,,,,,,,,,,,,,,,,,,,,,,,,,,,,,,,,,,
,,671ddd063e7c74b377de755a,2026-03-17_12h40.43.492,kallum_motion_pilot_GIST_update_2,2026.1.1,Win32,59.17159763,671ddd063e7c74b377de755a,69b92ab4aef6dee357cd729a,69b92f4109e46ed50e9e6c3b,0.1701,0.1701,1,93,255,53,1,threefour,,,,,,,,,,,,,,,,,,,,,,,,,,,,,,,,,,,,,,,,,,,,,,,,,,,,,,,,,,,,,,,,,,,,,,,,,,,,,,,,,,,,,,,,,,,,,,,,,,,,,,,,,,,,,,,,,,,,,,,,,,,,,,,,,,,,,,,,,
,,671ddd063e7c74b377de755a,2026-03-17_12h40.43.492,kallum_motion_pilot_GIST_update_2,2026.1.1,Win32,59.17159763,671ddd063e7c74b377de755a,69b92ab4aef6dee357cd729a,69b92f4109e46ed50e9e6c3b,0.1704,0.1704,1,94,256,29,1,threefour,,,,,,,,,,,,,,,,,,,,,,,,,,,,,,,,,,,,,,,,,,,,,,,,,,,,,,,,,,,,,,,,,,,,,,,,,,,,,,,,,,,,,,,,,,,,,,,,,,,,,,,,,,,,,,,,,,,,,,,,,,,,,,,,,,,,,,,,,
,,671ddd063e7c74b377de755a,2026-03-17_12h40.43.492,kallum_motion_pilot_GIST_update_2,2026.1.1,Win32,59.17159763,671ddd063e7c74b377de755a,69b92ab4aef6dee357cd729a,69b92f4109e46ed50e9e6c3b,0.1709,0.1709,1,95,257,13,1,threefour,,,,,,,,,,,,,,,,,,,,,,,,,,,,,,,,,,,,,,,,,,,,,,,,,,,,,,,,,,,,,,,,,,,,,,,,,,,,,,,,,,,,,,,,,,,,,,,,,,,,,,,,,,,,,,,,,,,,,,,,,,,,,,,,,,,,,,,,,
,,671ddd063e7c74b377de755a,2026-03-17_12h40.43.492,kallum_motion_pilot_GIST_update_2,2026.1.1,Win32,59.17159763,671ddd063e7c74b377de755a,69b92ab4aef6dee357cd729a,69b92f4109e46ed50e9e6c3b,0.1712,0.1712,1,96,258,26,1,twoone,,,,,,,,,,,,,,,,,,,,,,,,,,,,,,,,,,,,,,,,,,,,,,,,,,,,,,,,,,,,,,,,,,,,,,,,,,,,,,,,,,,,,,,,,,,,,,,,,,,,,,,,,,,,,,,,,,,,,,,,,,,,,,,,,,,,,,,,,
,,671ddd063e7c74b377de755a,2026-03-17_12h40.43.492,kallum_motion_pilot_GIST_update_2,2026.1.1,Win32,59.17159763,671ddd063e7c74b377de755a,69b92ab4aef6dee357cd729a,69b92f4109e46ed50e9e6c3b,0.1716,0.1716,1,97,259,57,1,onethree,,,,,,,,,,,,,,,,,,,,,,,,,,,,,,,,,,,,,,,,,,,,,,,,,,,,,,,,,,,,,,,,,,,,,,,,,,,,,,,,,,,,,,,,,,,,,,,,,,,,,,,,,,,,,,,,,,,,,,,,,,,,,,,,,,,,,,,,,
,,671ddd063e7c74b377de755a,2026-03-17_12h40.43.492,kallum_motion_pilot_GIST_update_2,2026.1.1,Win32,59.17159763,671ddd063e7c74b377de755a,69b92ab4aef6dee357cd729a,69b92f4109e46ed50e9e6c3b,0.1719,0.1719,1,98,260,55,1,fourthree,,,,,,,,,,,,,,,,,,,,,,,,,,,,,,,,,,,,,,,,,,,,,,,,,,,,,,,,,,,,,,,,,,,,,,,,,,,,,,,,,,,,,,,,,,,,,,,,,,,,,,,,,,,,,,,,,,,,,,,,,,,,,,,,,,,,,,,,,
,,671ddd063e7c74b377de755a,2026-03-17_12h40.43.492,kallum_motion_pilot_GIST_update_2,2026.1.1,Win32,59.17159763,671ddd063e7c74b377de755a,69b92ab4aef6dee357cd729a,69b92f4109e46ed50e9e6c3b,0.1723,0.1723,1,99,261,112,1,fivesix,,,,,,,,,,,,,,,,,,,,,,,,,,,,,,,,,,,,,,,,,,,,,,,,,,,,,,,,,,,,,,,,,,,,,,,,,,,,,,,,,,,,,,,,,,,,,,,,,,,,,,,,,,,,,,,,,,,,,,,,,,,,,,,,,,,,,,,,,
,,671ddd063e7c74b377de755a,2026-03-17_12h40.43.492,kallum_motion_pilot_GIST_update_2,2026.1.1,Win32,59.17159763,671ddd063e7c74b377de755a,69b92ab4aef6dee357cd729a,69b92f4109e46ed50e9e6c3b,0.1726,0.1726,1,100,262,20,1,threeone,,,,,,,,,,,,,,,,,,,,,,,,,,,,,,,,,,,,,,,,,,,,,,,,,,,,,,,,,,,,,,,,,,,,,,,,,,,,,,,,,,,,,,,,,,,,,,,,,,,,,,,,,,,,,,,,,,,,,,,,,,,,,,,,,,,,,,,,,
,,671ddd063e7c74b377de755a,2026-03-17_12h40.43.492,kallum_motion_pilot_GIST_update_2,2026.1.1,Win32,59.17159763,671ddd063e7c74b377de755a,69b92ab4aef6dee357cd729a,69b92f4109e46ed50e9e6c3b,0.1732,0.1732,1,101,263,42,1,twoone,,,,,,,,,,,,,,,,,,,,,,,,,,,,,,,,,,,,,,,,,,,,,,,,,,,,,,,,,,,,,,,,,,,,,,,,,,,,,,,,,,,,,,,,,,,,,,,,,,,,,,,,,,,,,,,,,,,,,,,,,,,,,,,,,,,,,,,,,
,,671ddd063e7c74b377de755a,2026-03-17_12h40.43.492,kallum_motion_pilot_GIST_update_2,2026.1.1,Win32,59.17159763,671ddd063e7c74b377de755a,69b92ab4aef6dee357cd729a,69b92f4109e46ed50e9e6c3b,0.1735,0.1736,1,102,264,9,1,onethree,,,,,,,,,,,,,,,,,,,,,,,,,,,,,,,,,,,,,,,,,,,,,,,,,,,,,,,,,,,,,,,,,,,,,,,,,,,,,,,,,,,,,,,,,,,,,,,,,,,,,,,,,,,,,,,,,,,,,,,,,,,,,,,,,,,,,,,,,
,,671ddd063e7c74b377de755a,2026-03-17_12h40.43.492,kallum_motion_pilot_GIST_update_2,2026.1.1,Win32,59.17159763,671ddd063e7c74b377de755a,69b92ab4aef6dee357cd729a,69b92f4109e46ed50e9e6c3b,0.1739,0.1739,1,103,265,22,1,fourtwo,,,,,,,,,,,,,,,,,,,,,,,,,,,,,,,,,,,,,,,,,,,,,,,,,,,,,,,,,,,,,,,,,,,,,,,,,,,,,,,,,,,,,,,,,,,,,,,,,,,,,,,,,,,,,,,,,,,,,,,,,,,,,,,,,,,,,,,,,
,,671ddd063e7c74b377de755a,2026-03-17_12h40.43.492,kallum_motion_pilot_GIST_update_2,2026.1.1,Win32,59.17159763,671ddd063e7c74b377de755a,69b92ab4aef6dee357cd729a,69b92f4109e46ed50e9e6c3b,0.1743,0.1743,1,104,266,106,1,sixfive,,,,,,,,,,,,,,,,,,,,,,,,,,,,,,,,,,,,,,,,,,,,,,,,,,,,,,,,,,,,,,,,,,,,,,,,,,,,,,,,,,,,,,,,,,,,,,,,,,,,,,,,,,,,,,,,,,,,,,,,,,,,,,,,,,,,,,,,,
