startup.started,startup.stopped,Prolific ID*,date,expName,psychopyVersion,OS,frameRate,participant,study_id,session,stimpositions.started,stimpositions.stopped,hardcoded_stimulus_positions.thisRepN,hardcoded_stimulus_positions.thisTrialN,hardcoded_stimulus_positions.thisN,hardcoded_stimulus_positions.thisIndex,hardcoded_stimulus_positions.ran,StimulusPos,stimorientation.started,stimorientation.stopped,prac_stimorientation_import_loop.thisRepN,prac_stimorientation_import_loop.thisTrialN,prac_stimorientation_import_loop.thisN,prac_stimorientation_import_loop.thisIndex,prac_stimorientation_import_loop.ran,Stimorientation,welcome_instr.started,welcome_instr.stopped,key_resp.keys,key_resp.rt,key_resp.duration,response_steppedout_1.started,response_steppedout_1.stopped,key_resp_20.keys,key_resp_20.rt,key_resp_20.duration,response_steppedout_2.started,response_steppedout_2.stopped,key_resp_19.keys,key_resp_19.rt,key_resp_19.duration,stim_response_instr.started,stim_response_instr.stopped,key_resp_15.keys,key_resp_15.rt,key_resp_15.duration,direction_instr_2.started,direction_instr_2.stopped,key_resp_9.keys,key_resp_9.rt,key_resp_9.duration,instr_prac.started,instr_prac.stopped,key_resp_10.keys,key_resp_10.rt,key_resp_10.duration,Stim1_display_prac.started,Stim1_display_prac.stopped,Ecc,Circle1_ori,Circle2_ori,response_prac.started,similarity,response_time,response_prac.stopped,mouse_5.x,mouse_5.y,mouse_5.leftButton,mouse_5.midButton,mouse_5.rightButton,mouse_5.clicked_name,responseprac_feedback.started,responseprac_feedback.stopped,summary2_prac.started,summary2_prac.stopped,mouse_6.x,mouse_6.y,mouse_6.leftButton,mouse_6.midButton,mouse_6.rightButton,mouse_6.clicked_name,duringprac.thisRepN,duringprac.thisTrialN,duringprac.thisN,duringprac.thisIndex,duringprac.ran,begin.started,begin.stopped,key_resp_22.keys,key_resp_22.rt,key_resp_22.duration,Stim1_display.started,Stim1_display.stopped,circle1_ori,circle2_ori,circle1_SF,circle2_SF,response.started,response.stopped,mouse.x,mouse.y,mouse.leftButton,mouse.midButton,mouse.rightButton,mouse.clicked_name,trialnumber,double_pass.thisRepN,double_pass.thisTrialN,double_pass.thisN,double_pass.thisIndex,double_pass.ran,double_pass.order,main_trial.thisRepN,main_trial.thisTrialN,main_trial.thisN,main_trial.thisIndex,main_trial.ran,main_trial.order,Trial_Counter,Catch,Frequencies,response_2.started,response_2.stopped,mouse_2.x,mouse_2.y,mouse_2.leftButton,mouse_2.midButton,mouse_2.rightButton,mouse_2.clicked_name,special_trial.started,special_trial.stopped,catch_1.started,catch_1.stopped,mouse_3.x,mouse_3.y,mouse_3.leftButton,mouse_3.midButton,mouse_3.rightButton,catchresponse,catchnumber,response_time_catch,response_sum.started,response_sum.stopped,mouse_11.x,mouse_11.y,mouse_11.leftButton,mouse_11.midButton,mouse_11.rightButton,flip_presentation_sequence_for_double_pass.started,flip_presentation_sequence_for_double_pass.stopped,goodbye.started,goodbye.stopped,key_resp_3.keys,key_resp_3.rt,key_resp_3.duration
0.001,0.0017,672135003f5e272c889620ea,2026-03-17_10h31.50.484,kallum_motion_pilot_GIST_update_2,2026.1.1,Win32,60.60606061,672135003f5e272c889620ea,69b92ab4aef6dee357cd729a,69b92b4ba4012f4b20c4a791,,,,,,,,,,,,,,,,,,,,,,,,,,,,,,,,,,,,,,,,,,,,,,,,,,,,,,,,,,,,,,,,,,,,,,,,,,,,,,,,,,,,,,,,,,,,,,,,,,,,,,,,,,,,,,,,,,,,,,,,,,,,,,,,,,,,,,,,,,,,,,,,,
,,672135003f5e272c889620ea,2026-03-17_10h31.50.484,kallum_motion_pilot_GIST_update_2,2026.1.1,Win32,60.60606061,672135003f5e272c889620ea,69b92ab4aef6dee357cd729a,69b92b4ba4012f4b20c4a791,0.085,0.0854,0,0,0,55,1,fourthree,,,,,,,,,,,,,,,,,,,,,,,,,,,,,,,,,,,,,,,,,,,,,,,,,,,,,,,,,,,,,,,,,,,,,,,,,,,,,,,,,,,,,,,,,,,,,,,,,,,,,,,,,,,,,,,,,,,,,,,,,,,,,,,,,,,,,,,,,
,,672135003f5e272c889620ea,2026-03-17_10h31.50.484,kallum_motion_pilot_GIST_update_2,2026.1.1,Win32,60.60606061,672135003f5e272c889620ea,69b92ab4aef6dee357cd729a,69b92b4ba4012f4b20c4a791,0.0865,0.0866,0,1,1,72,1,onetwo,,,,,,,,,,,,,,,,,,,,,,,,,,,,,,,,,,,,,,,,,,,,,,,,,,,,,,,,,,,,,,,,,,,,,,,,,,,,,,,,,,,,,,,,,,,,,,,,,,,,,,,,,,,,,,,,,,,,,,,,,,,,,,,,,,,,,,,,,
,,672135003f5e272c889620ea,2026-03-17_10h31.50.484,kallum_motion_pilot_GIST_update_2,2026.1.1,Win32,60.60606061,672135003f5e272c889620ea,69b92ab4aef6dee357cd729a,69b92b4ba4012f4b20c4a791,0.0873,0.0874,0,2,2,118,1,eightsix,,,,,,,,,,,,,,,,,,,,,,,,,,,,,,,,,,,,,,,,,,,,,,,,,,,,,,,,,,,,,,,,,,,,,,,,,,,,,,,,,,,,,,,,,,,,,,,,,,,,,,,,,,,,,,,,,,,,,,,,,,,,,,,,,,,,,,,,,
,,672135003f5e272c889620ea,2026-03-17_10h31.50.484,kallum_motion_pilot_GIST_update_2,2026.1.1,Win32,60.60606061,672135003f5e272c889620ea,69b92ab4aef6dee357cd729a,69b92b4ba4012f4b20c4a791,0.088,0.088,0,3,3,33,1,onethree,,,,,,,,,,,,,,,,,,,,,,,,,,,,,,,,,,,,,,,,,,,,,,,,,,,,,,,,,,,,,,,,,,,,,,,,,,,,,,,,,,,,,,,,,,,,,,,,,,,,,,,,,,,,,,,,,,,,,,,,,,,,,,,,,,,,,,,,,
,,672135003f5e272c889620ea,2026-03-17_10h31.50.484,kallum_motion_pilot_GIST_update_2,2026.1.1,Win32,60.60606061,672135003f5e272c889620ea,69b92ab4aef6dee357cd729a,69b92b4ba4012f4b20c4a791,0.0883,0.0884,0,4,4,56,1,onetwo,,,,,,,,,,,,,,,,,,,,,,,,,,,,,,,,,,,,,,,,,,,,,,,,,,,,,,,,,,,,,,,,,,,,,,,,,,,,,,,,,,,,,,,,,,,,,,,,,,,,,,,,,,,,,,,,,,,,,,,,,,,,,,,,,,,,,,,,,
,,672135003f5e272c889620ea,2026-03-17_10h31.50.484,kallum_motion_pilot_GIST_update_2,2026.1.1,Win32,60.60606061,672135003f5e272c889620ea,69b92ab4aef6dee357cd729a,69b92b4ba4012f4b20c4a791,0.0888,0.0888,0,5,5,51,1,twofour,,,,,,,,,,,,,,,,,,,,,,,,,,,,,,,,,,,,,,,,,,,,,,,,,,,,,,,,,,,,,,,,,,,,,,,,,,,,,,,,,,,,,,,,,,,,,,,,,,,,,,,,,,,,,,,,,,,,,,,,,,,,,,,,,,,,,,,,,
,,672135003f5e272c889620ea,2026-03-17_10h31.50.484,kallum_motion_pilot_GIST_update_2,2026.1.1,Win32,60.60606061,672135003f5e272c889620ea,69b92ab4aef6dee357cd729a,69b92b4ba4012f4b20c4a791,0.0891,0.0891,0,6,6,42,1,twoone,,,,,,,,,,,,,,,,,,,,,,,,,,,,,,,,,,,,,,,,,,,,,,,,,,,,,,,,,,,,,,,,,,,,,,,,,,,,,,,,,,,,,,,,,,,,,,,,,,,,,,,,,,,,,,,,,,,,,,,,,,,,,,,,,,,,,,,,,
,,672135003f5e272c889620ea,2026-03-17_10h31.50.484,kallum_motion_pilot_GIST_update_2,2026.1.1,Win32,60.60606061,672135003f5e272c889620ea,69b92ab4aef6dee357cd729a,69b92b4ba4012f4b20c4a791,0.0896,0.0896,0,7,7,102,1,eightsix,,,,,,,,,,,,,,,,,,,,,,,,,,,,,,,,,,,,,,,,,,,,,,,,,,,,,,,,,,,,,,,,,,,,,,,,,,,,,,,,,,,,,,,,,,,,,,,,,,,,,,,,,,,,,,,,,,,,,,,,,,,,,,,,,,,,,,,,,
,,672135003f5e272c889620ea,2026-03-17_10h31.50.484,kallum_motion_pilot_GIST_update_2,2026.1.1,Win32,60.60606061,672135003f5e272c889620ea,69b92ab4aef6dee357cd729a,69b92b4ba4012f4b20c4a791,0.0903,0.0905,0,8,8,145,1,fiveseven,,,,,,,,,,,,,,,,,,,,,,,,,,,,,,,,,,,,,,,,,,,,,,,,,,,,,,,,,,,,,,,,,,,,,,,,,,,,,,,,,,,,,,,,,,,,,,,,,,,,,,,,,,,,,,,,,,,,,,,,,,,,,,,,,,,,,,,,,
,,672135003f5e272c889620ea,2026-03-17_10h31.50.484,kallum_motion_pilot_GIST_update_2,2026.1.1,Win32,60.60606061,672135003f5e272c889620ea,69b92ab4aef6dee357cd729a,69b92b4ba4012f4b20c4a791,0.0911,0.0912,0,9,9,76,1,threeone,,,,,,,,,,,,,,,,,,,,,,,,,,,,,,,,,,,,,,,,,,,,,,,,,,,,,,,,,,,,,,,,,,,,,,,,,,,,,,,,,,,,,,,,,,,,,,,,,,,,,,,,,,,,,,,,,,,,,,,,,,,,,,,,,,,,,,,,,
,,672135003f5e272c889620ea,2026-03-17_10h31.50.484,kallum_motion_pilot_GIST_update_2,2026.1.1,Win32,60.60606061,672135003f5e272c889620ea,69b92ab4aef6dee357cd729a,69b92b4ba4012f4b20c4a791,0.0916,0.0916,0,10,10,112,1,fivesix,,,,,,,,,,,,,,,,,,,,,,,,,,,,,,,,,,,,,,,,,,,,,,,,,,,,,,,,,,,,,,,,,,,,,,,,,,,,,,,,,,,,,,,,,,,,,,,,,,,,,,,,,,,,,,,,,,,,,,,,,,,,,,,,,,,,,,,,,
,,672135003f5e272c889620ea,2026-03-17_10h31.50.484,kallum_motion_pilot_GIST_update_2,2026.1.1,Win32,60.60606061,672135003f5e272c889620ea,69b92ab4aef6dee357cd729a,69b92b4ba4012f4b20c4a791,0.0921,0.0921,0,11,11,140,1,sevenfive,,,,,,,,,,,,,,,,,,,,,,,,,,,,,,,,,,,,,,,,,,,,,,,,,,,,,,,,,,,,,,,,,,,,,,,,,,,,,,,,,,,,,,,,,,,,,,,,,,,,,,,,,,,,,,,,,,,,,,,,,,,,,,,,,,,,,,,,,
,,672135003f5e272c889620ea,2026-03-17_10h31.50.484,kallum_motion_pilot_GIST_update_2,2026.1.1,Win32,60.60606061,672135003f5e272c889620ea,69b92ab4aef6dee357cd729a,69b92b4ba4012f4b20c4a791,0.0927,0.0927,0,12,12,62,1,fourtwo,,,,,,,,,,,,,,,,,,,,,,,,,,,,,,,,,,,,,,,,,,,,,,,,,,,,,,,,,,,,,,,,,,,,,,,,,,,,,,,,,,,,,,,,,,,,,,,,,,,,,,,,,,,,,,,,,,,,,,,,,,,,,,,,,,,,,,,,,
,,672135003f5e272c889620ea,2026-03-17_10h31.50.484,kallum_motion_pilot_GIST_update_2,2026.1.1,Win32,60.60606061,672135003f5e272c889620ea,69b92ab4aef6dee357cd729a,69b92b4ba4012f4b20c4a791,0.0929,0.0929,0,13,13,10,1,twoone,,,,,,,,,,,,,,,,,,,,,,,,,,,,,,,,,,,,,,,,,,,,,,,,,,,,,,,,,,,,,,,,,,,,,,,,,,,,,,,,,,,,,,,,,,,,,,,,,,,,,,,,,,,,,,,,,,,,,,,,,,,,,,,,,,,,,,,,,
,,672135003f5e272c889620ea,2026-03-17_10h31.50.484,kallum_motion_pilot_GIST_update_2,2026.1.1,Win32,60.60606061,672135003f5e272c889620ea,69b92ab4aef6dee357cd729a,69b92b4ba4012f4b20c4a791,0.0933,0.0933,0,14,14,80,1,fivesix,,,,,,,,,,,,,,,,,,,,,,,,,,,,,,,,,,,,,,,,,,,,,,,,,,,,,,,,,,,,,,,,,,,,,,,,,,,,,,,,,,,,,,,,,,,,,,,,,,,,,,,,,,,,,,,,,,,,,,,,,,,,,,,,,,,,,,,,,
,,672135003f5e272c889620ea,2026-03-17_10h31.50.484,kallum_motion_pilot_GIST_update_2,2026.1.1,Win32,60.60606061,672135003f5e272c889620ea,69b92ab4aef6dee357cd729a,69b92b4ba4012f4b20c4a791,0.0936,0.0936,0,15,15,17,1,onethree,,,,,,,,,,,,,,,,,,,,,,,,,,,,,,,,,,,,,,,,,,,,,,,,,,,,,,,,,,,,,,,,,,,,,,,,,,,,,,,,,,,,,,,,,,,,,,,,,,,,,,,,,,,,,,,,,,,,,,,,,,,,,,,,,,,,,,,,,
,,672135003f5e272c889620ea,2026-03-17_10h31.50.484,kallum_motion_pilot_GIST_update_2,2026.1.1,Win32,60.60606061,672135003f5e272c889620ea,69b92ab4aef6dee357cd729a,69b92b4ba4012f4b20c4a791,0.0939,0.0939,0,16,16,104,1,fivesix,,,,,,,,,,,,,,,,,,,,,,,,,,,,,,,,,,,,,,,,,,,,,,,,,,,,,,,,,,,,,,,,,,,,,,,,,,,,,,,,,,,,,,,,,,,,,,,,,,,,,,,,,,,,,,,,,,,,,,,,,,,,,,,,,,,,,,,,,
,,672135003f5e272c889620ea,2026-03-17_10h31.50.484,kallum_motion_pilot_GIST_update_2,2026.1.1,Win32,60.60606061,672135003f5e272c889620ea,69b92ab4aef6dee357cd729a,69b92b4ba4012f4b20c4a791,0.0943,0.0943,0,17,17,113,1,fiveseven,,,,,,,,,,,,,,,,,,,,,,,,,,,,,,,,,,,,,,,,,,,,,,,,,,,,,,,,,,,,,,,,,,,,,,,,,,,,,,,,,,,,,,,,,,,,,,,,,,,,,,,,,,,,,,,,,,,,,,,,,,,,,,,,,,,,,,,,,
,,672135003f5e272c889620ea,2026-03-17_10h31.50.484,kallum_motion_pilot_GIST_update_2,2026.1.1,Win32,60.60606061,672135003f5e272c889620ea,69b92ab4aef6dee357cd729a,69b92b4ba4012f4b20c4a791,0.0947,0.0947,0,18,18,30,1,fourtwo,,,,,,,,,,,,,,,,,,,,,,,,,,,,,,,,,,,,,,,,,,,,,,,,,,,,,,,,,,,,,,,,,,,,,,,,,,,,,,,,,,,,,,,,,,,,,,,,,,,,,,,,,,,,,,,,,,,,,,,,,,,,,,,,,,,,,,,,,
,,672135003f5e272c889620ea,2026-03-17_10h31.50.484,kallum_motion_pilot_GIST_update_2,2026.1.1,Win32,60.60606061,672135003f5e272c889620ea,69b92ab4aef6dee357cd729a,69b92b4ba4012f4b20c4a791,0.0952,0.0952,0,19,19,73,1,onethree,,,,,,,,,,,,,,,,,,,,,,,,,,,,,,,,,,,,,,,,,,,,,,,,,,,,,,,,,,,,,,,,,,,,,,,,,,,,,,,,,,,,,,,,,,,,,,,,,,,,,,,,,,,,,,,,,,,,,,,,,,,,,,,,,,,,,,,,,
,,672135003f5e272c889620ea,2026-03-17_10h31.50.484,kallum_motion_pilot_GIST_update_2,2026.1.1,Win32,60.60606061,672135003f5e272c889620ea,69b92ab4aef6dee357cd729a,69b92b4ba4012f4b20c4a791,0.0954,0.0955,0,20,20,142,1,eightsix,,,,,,,,,,,,,,,,,,,,,,,,,,,,,,,,,,,,,,,,,,,,,,,,,,,,,,,,,,,,,,,,,,,,,,,,,,,,,,,,,,,,,,,,,,,,,,,,,,,,,,,,,,,,,,,,,,,,,,,,,,,,,,,,,,,,,,,,,
,,672135003f5e272c889620ea,2026-03-17_10h31.50.484,kallum_motion_pilot_GIST_update_2,2026.1.1,Win32,60.60606061,672135003f5e272c889620ea,69b92ab4aef6dee357cd729a,69b92b4ba4012f4b20c4a791,0.0957,0.0957,0,21,21,110,1,eightsix,,,,,,,,,,,,,,,,,,,,,,,,,,,,,,,,,,,,,,,,,,,,,,,,,,,,,,,,,,,,,,,,,,,,,,,,,,,,,,,,,,,,,,,,,,,,,,,,,,,,,,,,,,,,,,,,,,,,,,,,,,,,,,,,,,,,,,,,,
,,672135003f5e272c889620ea,2026-03-17_10h31.50.484,kallum_motion_pilot_GIST_update_2,2026.1.1,Win32,60.60606061,672135003f5e272c889620ea,69b92ab4aef6dee357cd729a,69b92b4ba4012f4b20c4a791,0.0962,0.0962,0,22,22,147,1,sixeight,,,,,,,,,,,,,,,,,,,,,,,,,,,,,,,,,,,,,,,,,,,,,,,,,,,,,,,,,,,,,,,,,,,,,,,,,,,,,,,,,,,,,,,,,,,,,,,,,,,,,,,,,,,,,,,,,,,,,,,,,,,,,,,,,,,,,,,,,
,,672135003f5e272c889620ea,2026-03-17_10h31.50.484,kallum_motion_pilot_GIST_update_2,2026.1.1,Win32,60.60606061,672135003f5e272c889620ea,69b92ab4aef6dee357cd729a,69b92b4ba4012f4b20c4a791,0.0965,0.0965,0,23,23,149,1,seveneight,,,,,,,,,,,,,,,,,,,,,,,,,,,,,,,,,,,,,,,,,,,,,,,,,,,,,,,,,,,,,,,,,,,,,,,,,,,,,,,,,,,,,,,,,,,,,,,,,,,,,,,,,,,,,,,,,,,,,,,,,,,,,,,,,,,,,,,,,
,,672135003f5e272c889620ea,2026-03-17_10h31.50.484,kallum_motion_pilot_GIST_update_2,2026.1.1,Win32,60.60606061,672135003f5e272c889620ea,69b92ab4aef6dee357cd729a,69b92b4ba4012f4b20c4a791,0.0969,0.097,0,24,24,71,1,fourthree,,,,,,,,,,,,,,,,,,,,,,,,,,,,,,,,,,,,,,,,,,,,,,,,,,,,,,,,,,,,,,,,,,,,,,,,,,,,,,,,,,,,,,,,,,,,,,,,,,,,,,,,,,,,,,,,,,,,,,,,,,,,,,,,,,,,,,,,,
,,672135003f5e272c889620ea,2026-03-17_10h31.50.484,kallum_motion_pilot_GIST_update_2,2026.1.1,Win32,60.60606061,672135003f5e272c889620ea,69b92ab4aef6dee357cd729a,69b92b4ba4012f4b20c4a791,0.0974,0.0974,0,25,25,134,1,eightsix,,,,,,,,,,,,,,,,,,,,,,,,,,,,,,,,,,,,,,,,,,,,,,,,,,,,,,,,,,,,,,,,,,,,,,,,,,,,,,,,,,,,,,,,,,,,,,,,,,,,,,,,,,,,,,,,,,,,,,,,,,,,,,,,,,,,,,,,,
,,672135003f5e272c889620ea,2026-03-17_10h31.50.484,kallum_motion_pilot_GIST_update_2,2026.1.1,Win32,60.60606061,672135003f5e272c889620ea,69b92ab4aef6dee357cd729a,69b92b4ba4012f4b20c4a791,0.0979,0.0979,0,26,26,157,1,seveneight,,,,,,,,,,,,,,,,,,,,,,,,,,,,,,,,,,,,,,,,,,,,,,,,,,,,,,,,,,,,,,,,,,,,,,,,,,,,,,,,,,,,,,,,,,,,,,,,,,,,,,,,,,,,,,,,,,,,,,,,,,,,,,,,,,,,,,,,,
,,672135003f5e272c889620ea,2026-03-17_10h31.50.484,kallum_motion_pilot_GIST_update_2,2026.1.1,Win32,60.60606061,672135003f5e272c889620ea,69b92ab4aef6dee357cd729a,69b92b4ba4012f4b20c4a791,0.0983,0.0983,0,27,27,114,1,sixfive,,,,,,,,,,,,,,,,,,,,,,,,,,,,,,,,,,,,,,,,,,,,,,,,,,,,,,,,,,,,,,,,,,,,,,,,,,,,,,,,,,,,,,,,,,,,,,,,,,,,,,,,,,,,,,,,,,,,,,,,,,,,,,,,,,,,,,,,,
,,672135003f5e272c889620ea,2026-03-17_10h31.50.484,kallum_motion_pilot_GIST_update_2,2026.1.1,Win32,60.60606061,672135003f5e272c889620ea,69b92ab4aef6dee357cd729a,69b92b4ba4012f4b20c4a791,0.0988,0.0988,0,28,28,133,1,seveneight,,,,,,,,,,,,,,,,,,,,,,,,,,,,,,,,,,,,,,,,,,,,,,,,,,,,,,,,,,,,,,,,,,,,,,,,,,,,,,,,,,,,,,,,,,,,,,,,,,,,,,,,,,,,,,,,,,,,,,,,,,,,,,,,,,,,,,,,,
,,672135003f5e272c889620ea,2026-03-17_10h31.50.484,kallum_motion_pilot_GIST_update_2,2026.1.1,Win32,60.60606061,672135003f5e272c889620ea,69b92ab4aef6dee357cd729a,69b92b4ba4012f4b20c4a791,0.0991,0.0992,0,29,29,75,1,twofour,,,,,,,,,,,,,,,,,,,,,,,,,,,,,,,,,,,,,,,,,,,,,,,,,,,,,,,,,,,,,,,,,,,,,,,,,,,,,,,,,,,,,,,,,,,,,,,,,,,,,,,,,,,,,,,,,,,,,,,,,,,,,,,,,,,,,,,,,
,,672135003f5e272c889620ea,2026-03-17_10h31.50.484,kallum_motion_pilot_GIST_update_2,2026.1.1,Win32,60.60606061,672135003f5e272c889620ea,69b92ab4aef6dee357cd729a,69b92b4ba4012f4b20c4a791,0.0996,0.0996,0,30,30,100,1,sevenfive,,,,,,,,,,,,,,,,,,,,,,,,,,,,,,,,,,,,,,,,,,,,,,,,,,,,,,,,,,,,,,,,,,,,,,,,,,,,,,,,,,,,,,,,,,,,,,,,,,,,,,,,,,,,,,,,,,,,,,,,,,,,,,,,,,,,,,,,,
,,672135003f5e272c889620ea,2026-03-17_10h31.50.484,kallum_motion_pilot_GIST_update_2,2026.1.1,Win32,60.60606061,672135003f5e272c889620ea,69b92ab4aef6dee357cd729a,69b92b4ba4012f4b20c4a791,0.0999,0.0999,0,31,31,36,1,threeone,,,,,,,,,,,,,,,,,,,,,,,,,,,,,,,,,,,,,,,,,,,,,,,,,,,,,,,,,,,,,,,,,,,,,,,,,,,,,,,,,,,,,,,,,,,,,,,,,,,,,,,,,,,,,,,,,,,,,,,,,,,,,,,,,,,,,,,,,
,,672135003f5e272c889620ea,2026-03-17_10h31.50.484,kallum_motion_pilot_GIST_update_2,2026.1.1,Win32,60.60606061,672135003f5e272c889620ea,69b92ab4aef6dee357cd729a,69b92b4ba4012f4b20c4a791,0.1003,0.1003,0,32,32,7,1,fourthree,,,,,,,,,,,,,,,,,,,,,,,,,,,,,,,,,,,,,,,,,,,,,,,,,,,,,,,,,,,,,,,,,,,,,,,,,,,,,,,,,,,,,,,,,,,,,,,,,,,,,,,,,,,,,,,,,,,,,,,,,,,,,,,,,,,,,,,,,
,,672135003f5e272c889620ea,2026-03-17_10h31.50.484,kallum_motion_pilot_GIST_update_2,2026.1.1,Win32,60.60606061,672135003f5e272c889620ea,69b92ab4aef6dee357cd729a,69b92b4ba4012f4b20c4a791,0.1007,0.1007,0,33,33,68,1,threeone,,,,,,,,,,,,,,,,,,,,,,,,,,,,,,,,,,,,,,,,,,,,,,,,,,,,,,,,,,,,,,,,,,,,,,,,,,,,,,,,,,,,,,,,,,,,,,,,,,,,,,,,,,,,,,,,,,,,,,,,,,,,,,,,,,,,,,,,,
,,672135003f5e272c889620ea,2026-03-17_10h31.50.484,kallum_motion_pilot_GIST_update_2,2026.1.1,Win32,60.60606061,672135003f5e272c889620ea,69b92ab4aef6dee357cd729a,69b92b4ba4012f4b20c4a791,0.1011,0.1011,0,34,34,137,1,fiveseven,,,,,,,,,,,,,,,,,,,,,,,,,,,,,,,,,,,,,,,,,,,,,,,,,,,,,,,,,,,,,,,,,,,,,,,,,,,,,,,,,,,,,,,,,,,,,,,,,,,,,,,,,,,,,,,,,,,,,,,,,,,,,,,,,,,,,,,,,
,,672135003f5e272c889620ea,2026-03-17_10h31.50.484,kallum_motion_pilot_GIST_update_2,2026.1.1,Win32,60.60606061,672135003f5e272c889620ea,69b92ab4aef6dee357cd729a,69b92b4ba4012f4b20c4a791,0.1016,0.1016,0,35,35,136,1,fivesix,,,,,,,,,,,,,,,,,,,,,,,,,,,,,,,,,,,,,,,,,,,,,,,,,,,,,,,,,,,,,,,,,,,,,,,,,,,,,,,,,,,,,,,,,,,,,,,,,,,,,,,,,,,,,,,,,,,,,,,,,,,,,,,,,,,,,,,,,
,,672135003f5e272c889620ea,2026-03-17_10h31.50.484,kallum_motion_pilot_GIST_update_2,2026.1.1,Win32,60.60606061,672135003f5e272c889620ea,69b92ab4aef6dee357cd729a,69b92b4ba4012f4b20c4a791,0.1019,0.1019,0,36,36,66,1,twoone,,,,,,,,,,,,,,,,,,,,,,,,,,,,,,,,,,,,,,,,,,,,,,,,,,,,,,,,,,,,,,,,,,,,,,,,,,,,,,,,,,,,,,,,,,,,,,,,,,,,,,,,,,,,,,,,,,,,,,,,,,,,,,,,,,,,,,,,,
,,672135003f5e272c889620ea,2026-03-17_10h31.50.484,kallum_motion_pilot_GIST_update_2,2026.1.1,Win32,60.60606061,672135003f5e272c889620ea,69b92ab4aef6dee357cd729a,69b92b4ba4012f4b20c4a791,0.1022,0.1023,0,37,37,156,1,sevenfive,,,,,,,,,,,,,,,,,,,,,,,,,,,,,,,,,,,,,,,,,,,,,,,,,,,,,,,,,,,,,,,,,,,,,,,,,,,,,,,,,,,,,,,,,,,,,,,,,,,,,,,,,,,,,,,,,,,,,,,,,,,,,,,,,,,,,,,,,
,,672135003f5e272c889620ea,2026-03-17_10h31.50.484,kallum_motion_pilot_GIST_update_2,2026.1.1,Win32,60.60606061,672135003f5e272c889620ea,69b92ab4aef6dee357cd729a,69b92b4ba4012f4b20c4a791,0.1026,0.1027,0,38,38,155,1,sixeight,,,,,,,,,,,,,,,,,,,,,,,,,,,,,,,,,,,,,,,,,,,,,,,,,,,,,,,,,,,,,,,,,,,,,,,,,,,,,,,,,,,,,,,,,,,,,,,,,,,,,,,,,,,,,,,,,,,,,,,,,,,,,,,,,,,,,,,,,
,,672135003f5e272c889620ea,2026-03-17_10h31.50.484,kallum_motion_pilot_GIST_update_2,2026.1.1,Win32,60.60606061,672135003f5e272c889620ea,69b92ab4aef6dee357cd729a,69b92b4ba4012f4b20c4a791,0.103,0.1031,0,39,39,124,1,sevenfive,,,,,,,,,,,,,,,,,,,,,,,,,,,,,,,,,,,,,,,,,,,,,,,,,,,,,,,,,,,,,,,,,,,,,,,,,,,,,,,,,,,,,,,,,,,,,,,,,,,,,,,,,,,,,,,,,,,,,,,,,,,,,,,,,,,,,,,,,
,,672135003f5e272c889620ea,2026-03-17_10h31.50.484,kallum_motion_pilot_GIST_update_2,2026.1.1,Win32,60.60606061,672135003f5e272c889620ea,69b92ab4aef6dee357cd729a,69b92b4ba4012f4b20c4a791,0.1033,0.1034,0,40,40,141,1,seveneight,,,,,,,,,,,,,,,,,,,,,,,,,,,,,,,,,,,,,,,,,,,,,,,,,,,,,,,,,,,,,,,,,,,,,,,,,,,,,,,,,,,,,,,,,,,,,,,,,,,,,,,,,,,,,,,,,,,,,,,,,,,,,,,,,,,,,,,,,
,,672135003f5e272c889620ea,2026-03-17_10h31.50.484,kallum_motion_pilot_GIST_update_2,2026.1.1,Win32,60.60606061,672135003f5e272c889620ea,69b92ab4aef6dee357cd729a,69b92b4ba4012f4b20c4a791,0.1037,0.1037,0,41,41,13,1,threefour,,,,,,,,,,,,,,,,,,,,,,,,,,,,,,,,,,,,,,,,,,,,,,,,,,,,,,,,,,,,,,,,,,,,,,,,,,,,,,,,,,,,,,,,,,,,,,,,,,,,,,,,,,,,,,,,,,,,,,,,,,,,,,,,,,,,,,,,,
,,672135003f5e272c889620ea,2026-03-17_10h31.50.484,kallum_motion_pilot_GIST_update_2,2026.1.1,Win32,60.60606061,672135003f5e272c889620ea,69b92ab4aef6dee357cd729a,69b92b4ba4012f4b20c4a791,0.104,0.104,0,42,42,46,1,fourtwo,,,,,,,,,,,,,,,,,,,,,,,,,,,,,,,,,,,,,,,,,,,,,,,,,,,,,,,,,,,,,,,,,,,,,,,,,,,,,,,,,,,,,,,,,,,,,,,,,,,,,,,,,,,,,,,,,,,,,,,,,,,,,,,,,,,,,,,,,
,,672135003f5e272c889620ea,2026-03-17_10h31.50.484,kallum_motion_pilot_GIST_update_2,2026.1.1,Win32,60.60606061,672135003f5e272c889620ea,69b92ab4aef6dee357cd729a,69b92b4ba4012f4b20c4a791,0.1042,0.1042,0,43,43,146,1,sixfive,,,,,,,,,,,,,,,,,,,,,,,,,,,,,,,,,,,,,,,,,,,,,,,,,,,,,,,,,,,,,,,,,,,,,,,,,,,,,,,,,,,,,,,,,,,,,,,,,,,,,,,,,,,,,,,,,,,,,,,,,,,,,,,,,,,,,,,,,
,,672135003f5e272c889620ea,2026-03-17_10h31.50.484,kallum_motion_pilot_GIST_update_2,2026.1.1,Win32,60.60606061,672135003f5e272c889620ea,69b92ab4aef6dee357cd729a,69b92b4ba4012f4b20c4a791,0.1046,0.1047,0,44,44,117,1,seveneight,,,,,,,,,,,,,,,,,,,,,,,,,,,,,,,,,,,,,,,,,,,,,,,,,,,,,,,,,,,,,,,,,,,,,,,,,,,,,,,,,,,,,,,,,,,,,,,,,,,,,,,,,,,,,,,,,,,,,,,,,,,,,,,,,,,,,,,,,
,,672135003f5e272c889620ea,2026-03-17_10h31.50.484,kallum_motion_pilot_GIST_update_2,2026.1.1,Win32,60.60606061,672135003f5e272c889620ea,69b92ab4aef6dee357cd729a,69b92b4ba4012f4b20c4a791,0.1072,0.1072,0,45,45,8,1,onetwo,,,,,,,,,,,,,,,,,,,,,,,,,,,,,,,,,,,,,,,,,,,,,,,,,,,,,,,,,,,,,,,,,,,,,,,,,,,,,,,,,,,,,,,,,,,,,,,,,,,,,,,,,,,,,,,,,,,,,,,,,,,,,,,,,,,,,,,,,
,,672135003f5e272c889620ea,2026-03-17_10h31.50.484,kallum_motion_pilot_GIST_update_2,2026.1.1,Win32,60.60606061,672135003f5e272c889620ea,69b92ab4aef6dee357cd729a,69b92b4ba4012f4b20c4a791,0.1075,0.1075,0,46,46,58,1,twoone,,,,,,,,,,,,,,,,,,,,,,,,,,,,,,,,,,,,,,,,,,,,,,,,,,,,,,,,,,,,,,,,,,,,,,,,,,,,,,,,,,,,,,,,,,,,,,,,,,,,,,,,,,,,,,,,,,,,,,,,,,,,,,,,,,,,,,,,,
,,672135003f5e272c889620ea,2026-03-17_10h31.50.484,kallum_motion_pilot_GIST_update_2,2026.1.1,Win32,60.60606061,672135003f5e272c889620ea,69b92ab4aef6dee357cd729a,69b92b4ba4012f4b20c4a791,0.1079,0.1079,0,47,47,86,1,eightsix,,,,,,,,,,,,,,,,,,,,,,,,,,,,,,,,,,,,,,,,,,,,,,,,,,,,,,,,,,,,,,,,,,,,,,,,,,,,,,,,,,,,,,,,,,,,,,,,,,,,,,,,,,,,,,,,,,,,,,,,,,,,,,,,,,,,,,,,,
,,672135003f5e272c889620ea,2026-03-17_10h31.50.484,kallum_motion_pilot_GIST_update_2,2026.1.1,Win32,60.60606061,672135003f5e272c889620ea,69b92ab4aef6dee357cd729a,69b92b4ba4012f4b20c4a791,0.1082,0.1082,0,48,48,20,1,threeone,,,,,,,,,,,,,,,,,,,,,,,,,,,,,,,,,,,,,,,,,,,,,,,,,,,,,,,,,,,,,,,,,,,,,,,,,,,,,,,,,,,,,,,,,,,,,,,,,,,,,,,,,,,,,,,,,,,,,,,,,,,,,,,,,,,,,,,,,
,,672135003f5e272c889620ea,2026-03-17_10h31.50.484,kallum_motion_pilot_GIST_update_2,2026.1.1,Win32,60.60606061,672135003f5e272c889620ea,69b92ab4aef6dee357cd729a,69b92b4ba4012f4b20c4a791,0.1086,0.1086,0,49,49,57,1,onethree,,,,,,,,,,,,,,,,,,,,,,,,,,,,,,,,,,,,,,,,,,,,,,,,,,,,,,,,,,,,,,,,,,,,,,,,,,,,,,,,,,,,,,,,,,,,,,,,,,,,,,,,,,,,,,,,,,,,,,,,,,,,,,,,,,,,,,,,,
,,672135003f5e272c889620ea,2026-03-17_10h31.50.484,kallum_motion_pilot_GIST_update_2,2026.1.1,Win32,60.60606061,672135003f5e272c889620ea,69b92ab4aef6dee357cd729a,69b92b4ba4012f4b20c4a791,0.1088,0.1088,0,50,50,21,1,threefour,,,,,,,,,,,,,,,,,,,,,,,,,,,,,,,,,,,,,,,,,,,,,,,,,,,,,,,,,,,,,,,,,,,,,,,,,,,,,,,,,,,,,,,,,,,,,,,,,,,,,,,,,,,,,,,,,,,,,,,,,,,,,,,,,,,,,,,,,
,,672135003f5e272c889620ea,2026-03-17_10h31.50.484,kallum_motion_pilot_GIST_update_2,2026.1.1,Win32,60.60606061,672135003f5e272c889620ea,69b92ab4aef6dee357cd729a,69b92b4ba4012f4b20c4a791,0.1092,0.1092,0,51,51,132,1,sevenfive,,,,,,,,,,,,,,,,,,,,,,,,,,,,,,,,,,,,,,,,,,,,,,,,,,,,,,,,,,,,,,,,,,,,,,,,,,,,,,,,,,,,,,,,,,,,,,,,,,,,,,,,,,,,,,,,,,,,,,,,,,,,,,,,,,,,,,,,,
,,672135003f5e272c889620ea,2026-03-17_10h31.50.484,kallum_motion_pilot_GIST_update_2,2026.1.1,Win32,60.60606061,672135003f5e272c889620ea,69b92ab4aef6dee357cd729a,69b92b4ba4012f4b20c4a791,0.1096,0.1096,0,52,52,135,1,eightseven,,,,,,,,,,,,,,,,,,,,,,,,,,,,,,,,,,,,,,,,,,,,,,,,,,,,,,,,,,,,,,,,,,,,,,,,,,,,,,,,,,,,,,,,,,,,,,,,,,,,,,,,,,,,,,,,,,,,,,,,,,,,,,,,,,,,,,,,,
,,672135003f5e272c889620ea,2026-03-17_10h31.50.484,kallum_motion_pilot_GIST_update_2,2026.1.1,Win32,60.60606061,672135003f5e272c889620ea,69b92ab4aef6dee357cd729a,69b92b4ba4012f4b20c4a791,0.1099,0.1099,0,53,53,60,1,threeone,,,,,,,,,,,,,,,,,,,,,,,,,,,,,,,,,,,,,,,,,,,,,,,,,,,,,,,,,,,,,,,,,,,,,,,,,,,,,,,,,,,,,,,,,,,,,,,,,,,,,,,,,,,,,,,,,,,,,,,,,,,,,,,,,,,,,,,,,
,,672135003f5e272c889620ea,2026-03-17_10h31.50.484,kallum_motion_pilot_GIST_update_2,2026.1.1,Win32,60.60606061,672135003f5e272c889620ea,69b92ab4aef6dee357cd729a,69b92b4ba4012f4b20c4a791,0.1104,0.1104,0,54,54,61,1,threefour,,,,,,,,,,,,,,,,,,,,,,,,,,,,,,,,,,,,,,,,,,,,,,,,,,,,,,,,,,,,,,,,,,,,,,,,,,,,,,,,,,,,,,,,,,,,,,,,,,,,,,,,,,,,,,,,,,,,,,,,,,,,,,,,,,,,,,,,,
,,672135003f5e272c889620ea,2026-03-17_10h31.50.484,kallum_motion_pilot_GIST_update_2,2026.1.1,Win32,60.60606061,672135003f5e272c889620ea,69b92ab4aef6dee357cd729a,69b92b4ba4012f4b20c4a791,0.1108,0.1108,0,55,55,101,1,seveneight,,,,,,,,,,,,,,,,,,,,,,,,,,,,,,,,,,,,,,,,,,,,,,,,,,,,,,,,,,,,,,,,,,,,,,,,,,,,,,,,,,,,,,,,,,,,,,,,,,,,,,,,,,,,,,,,,,,,,,,,,,,,,,,,,,,,,,,,,
,,672135003f5e272c889620ea,2026-03-17_10h31.50.484,kallum_motion_pilot_GIST_update_2,2026.1.1,Win32,60.60606061,672135003f5e272c889620ea,69b92ab4aef6dee357cd729a,69b92b4ba4012f4b20c4a791,0.111,0.1111,0,56,56,92,1,sevenfive,,,,,,,,,,,,,,,,,,,,,,,,,,,,,,,,,,,,,,,,,,,,,,,,,,,,,,,,,,,,,,,,,,,,,,,,,,,,,,,,,,,,,,,,,,,,,,,,,,,,,,,,,,,,,,,,,,,,,,,,,,,,,,,,,,,,,,,,,
,,672135003f5e272c889620ea,2026-03-17_10h31.50.484,kallum_motion_pilot_GIST_update_2,2026.1.1,Win32,60.60606061,672135003f5e272c889620ea,69b92ab4aef6dee357cd729a,69b92b4ba4012f4b20c4a791,0.1115,0.1115,0,57,57,95,1,eightseven,,,,,,,,,,,,,,,,,,,,,,,,,,,,,,,,,,,,,,,,,,,,,,,,,,,,,,,,,,,,,,,,,,,,,,,,,,,,,,,,,,,,,,,,,,,,,,,,,,,,,,,,,,,,,,,,,,,,,,,,,,,,,,,,,,,,,,,,,
,,672135003f5e272c889620ea,2026-03-17_10h31.50.484,kallum_motion_pilot_GIST_update_2,2026.1.1,Win32,60.60606061,672135003f5e272c889620ea,69b92ab4aef6dee357cd729a,69b92b4ba4012f4b20c4a791,0.1118,0.1118,0,58,58,120,1,fivesix,,,,,,,,,,,,,,,,,,,,,,,,,,,,,,,,,,,,,,,,,,,,,,,,,,,,,,,,,,,,,,,,,,,,,,,,,,,,,,,,,,,,,,,,,,,,,,,,,,,,,,,,,,,,,,,,,,,,,,,,,,,,,,,,,,,,,,,,,
,,672135003f5e272c889620ea,2026-03-17_10h31.50.484,kallum_motion_pilot_GIST_update_2,2026.1.1,Win32,60.60606061,672135003f5e272c889620ea,69b92ab4aef6dee357cd729a,69b92b4ba4012f4b20c4a791,0.112,0.112,0,59,59,144,1,fivesix,,,,,,,,,,,,,,,,,,,,,,,,,,,,,,,,,,,,,,,,,,,,,,,,,,,,,,,,,,,,,,,,,,,,,,,,,,,,,,,,,,,,,,,,,,,,,,,,,,,,,,,,,,,,,,,,,,,,,,,,,,,,,,,,,,,,,,,,,
,,672135003f5e272c889620ea,2026-03-17_10h31.50.484,kallum_motion_pilot_GIST_update_2,2026.1.1,Win32,60.60606061,672135003f5e272c889620ea,69b92ab4aef6dee357cd729a,69b92b4ba4012f4b20c4a791,0.1123,0.1123,0,60,60,70,1,fourtwo,,,,,,,,,,,,,,,,,,,,,,,,,,,,,,,,,,,,,,,,,,,,,,,,,,,,,,,,,,,,,,,,,,,,,,,,,,,,,,,,,,,,,,,,,,,,,,,,,,,,,,,,,,,,,,,,,,,,,,,,,,,,,,,,,,,,,,,,,
,,672135003f5e272c889620ea,2026-03-17_10h31.50.484,kallum_motion_pilot_GIST_update_2,2026.1.1,Win32,60.60606061,672135003f5e272c889620ea,69b92ab4aef6dee357cd729a,69b92b4ba4012f4b20c4a791,0.1127,0.1127,0,61,61,19,1,twofour,,,,,,,,,,,,,,,,,,,,,,,,,,,,,,,,,,,,,,,,,,,,,,,,,,,,,,,,,,,,,,,,,,,,,,,,,,,,,,,,,,,,,,,,,,,,,,,,,,,,,,,,,,,,,,,,,,,,,,,,,,,,,,,,,,,,,,,,,
,,672135003f5e272c889620ea,2026-03-17_10h31.50.484,kallum_motion_pilot_GIST_update_2,2026.1.1,Win32,60.60606061,672135003f5e272c889620ea,69b92ab4aef6dee357cd729a,69b92b4ba4012f4b20c4a791,0.113,0.113,0,62,62,160,1,fivesix,,,,,,,,,,,,,,,,,,,,,,,,,,,,,,,,,,,,,,,,,,,,,,,,,,,,,,,,,,,,,,,,,,,,,,,,,,,,,,,,,,,,,,,,,,,,,,,,,,,,,,,,,,,,,,,,,,,,,,,,,,,,,,,,,,,,,,,,,
,,672135003f5e272c889620ea,2026-03-17_10h31.50.484,kallum_motion_pilot_GIST_update_2,2026.1.1,Win32,60.60606061,672135003f5e272c889620ea,69b92ab4aef6dee357cd729a,69b92b4ba4012f4b20c4a791,0.1133,0.1133,0,63,63,125,1,seveneight,,,,,,,,,,,,,,,,,,,,,,,,,,,,,,,,,,,,,,,,,,,,,,,,,,,,,,,,,,,,,,,,,,,,,,,,,,,,,,,,,,,,,,,,,,,,,,,,,,,,,,,,,,,,,,,,,,,,,,,,,,,,,,,,,,,,,,,,,
,,672135003f5e272c889620ea,2026-03-17_10h31.50.484,kallum_motion_pilot_GIST_update_2,2026.1.1,Win32,60.60606061,672135003f5e272c889620ea,69b92ab4aef6dee357cd729a,69b92b4ba4012f4b20c4a791,0.1137,0.1137,0,64,64,74,1,twoone,,,,,,,,,,,,,,,,,,,,,,,,,,,,,,,,,,,,,,,,,,,,,,,,,,,,,,,,,,,,,,,,,,,,,,,,,,,,,,,,,,,,,,,,,,,,,,,,,,,,,,,,,,,,,,,,,,,,,,,,,,,,,,,,,,,,,,,,,
,,672135003f5e272c889620ea,2026-03-17_10h31.50.484,kallum_motion_pilot_GIST_update_2,2026.1.1,Win32,60.60606061,672135003f5e272c889620ea,69b92ab4aef6dee357cd729a,69b92b4ba4012f4b20c4a791,0.114,0.114,0,65,65,16,1,onetwo,,,,,,,,,,,,,,,,,,,,,,,,,,,,,,,,,,,,,,,,,,,,,,,,,,,,,,,,,,,,,,,,,,,,,,,,,,,,,,,,,,,,,,,,,,,,,,,,,,,,,,,,,,,,,,,,,,,,,,,,,,,,,,,,,,,,,,,,,
,,672135003f5e272c889620ea,2026-03-17_10h31.50.484,kallum_motion_pilot_GIST_update_2,2026.1.1,Win32,60.60606061,672135003f5e272c889620ea,69b92ab4aef6dee357cd729a,69b92b4ba4012f4b20c4a791,0.1143,0.1143,0,66,66,0,1,onetwo,,,,,,,,,,,,,,,,,,,,,,,,,,,,,,,,,,,,,,,,,,,,,,,,,,,,,,,,,,,,,,,,,,,,,,,,,,,,,,,,,,,,,,,,,,,,,,,,,,,,,,,,,,,,,,,,,,,,,,,,,,,,,,,,,,,,,,,,,
,,672135003f5e272c889620ea,2026-03-17_10h31.50.484,kallum_motion_pilot_GIST_update_2,2026.1.1,Win32,60.60606061,672135003f5e272c889620ea,69b92ab4aef6dee357cd729a,69b92b4ba4012f4b20c4a791,0.1146,0.1146,0,67,67,34,1,twoone,,,,,,,,,,,,,,,,,,,,,,,,,,,,,,,,,,,,,,,,,,,,,,,,,,,,,,,,,,,,,,,,,,,,,,,,,,,,,,,,,,,,,,,,,,,,,,,,,,,,,,,,,,,,,,,,,,,,,,,,,,,,,,,,,,,,,,,,,
,,672135003f5e272c889620ea,2026-03-17_10h31.50.484,kallum_motion_pilot_GIST_update_2,2026.1.1,Win32,60.60606061,672135003f5e272c889620ea,69b92ab4aef6dee357cd729a,69b92b4ba4012f4b20c4a791,0.1148,0.1149,0,68,68,47,1,fourthree,,,,,,,,,,,,,,,,,,,,,,,,,,,,,,,,,,,,,,,,,,,,,,,,,,,,,,,,,,,,,,,,,,,,,,,,,,,,,,,,,,,,,,,,,,,,,,,,,,,,,,,,,,,,,,,,,,,,,,,,,,,,,,,,,,,,,,,,,
,,672135003f5e272c889620ea,2026-03-17_10h31.50.484,kallum_motion_pilot_GIST_update_2,2026.1.1,Win32,60.60606061,672135003f5e272c889620ea,69b92ab4aef6dee357cd729a,69b92b4ba4012f4b20c4a791,0.1153,0.1153,0,69,69,1,1,onethree,,,,,,,,,,,,,,,,,,,,,,,,,,,,,,,,,,,,,,,,,,,,,,,,,,,,,,,,,,,,,,,,,,,,,,,,,,,,,,,,,,,,,,,,,,,,,,,,,,,,,,,,,,,,,,,,,,,,,,,,,,,,,,,,,,,,,,,,,
,,672135003f5e272c889620ea,2026-03-17_10h31.50.484,kallum_motion_pilot_GIST_update_2,2026.1.1,Win32,60.60606061,672135003f5e272c889620ea,69b92ab4aef6dee357cd729a,69b92b4ba4012f4b20c4a791,0.1157,0.1157,0,70,70,65,1,onethree,,,,,,,,,,,,,,,,,,,,,,,,,,,,,,,,,,,,,,,,,,,,,,,,,,,,,,,,,,,,,,,,,,,,,,,,,,,,,,,,,,,,,,,,,,,,,,,,,,,,,,,,,,,,,,,,,,,,,,,,,,,,,,,,,,,,,,,,,
,,672135003f5e272c889620ea,2026-03-17_10h31.50.484,kallum_motion_pilot_GIST_update_2,2026.1.1,Win32,60.60606061,672135003f5e272c889620ea,69b92ab4aef6dee357cd729a,69b92b4ba4012f4b20c4a791,0.1161,0.1162,0,71,71,143,1,eightseven,,,,,,,,,,,,,,,,,,,,,,,,,,,,,,,,,,,,,,,,,,,,,,,,,,,,,,,,,,,,,,,,,,,,,,,,,,,,,,,,,,,,,,,,,,,,,,,,,,,,,,,,,,,,,,,,,,,,,,,,,,,,,,,,,,,,,,,,,
,,672135003f5e272c889620ea,2026-03-17_10h31.50.484,kallum_motion_pilot_GIST_update_2,2026.1.1,Win32,60.60606061,672135003f5e272c889620ea,69b92ab4aef6dee357cd729a,69b92b4ba4012f4b20c4a791,0.1164,0.1164,0,72,72,2,1,twoone,,,,,,,,,,,,,,,,,,,,,,,,,,,,,,,,,,,,,,,,,,,,,,,,,,,,,,,,,,,,,,,,,,,,,,,,,,,,,,,,,,,,,,,,,,,,,,,,,,,,,,,,,,,,,,,,,,,,,,,,,,,,,,,,,,,,,,,,,
,,672135003f5e272c889620ea,2026-03-17_10h31.50.484,kallum_motion_pilot_GIST_update_2,2026.1.1,Win32,60.60606061,672135003f5e272c889620ea,69b92ab4aef6dee357cd729a,69b92b4ba4012f4b20c4a791,0.1169,0.1169,0,73,73,99,1,sixeight,,,,,,,,,,,,,,,,,,,,,,,,,,,,,,,,,,,,,,,,,,,,,,,,,,,,,,,,,,,,,,,,,,,,,,,,,,,,,,,,,,,,,,,,,,,,,,,,,,,,,,,,,,,,,,,,,,,,,,,,,,,,,,,,,,,,,,,,,
,,672135003f5e272c889620ea,2026-03-17_10h31.50.484,kallum_motion_pilot_GIST_update_2,2026.1.1,Win32,60.60606061,672135003f5e272c889620ea,69b92ab4aef6dee357cd729a,69b92b4ba4012f4b20c4a791,0.1172,0.1172,0,74,74,35,1,twofour,,,,,,,,,,,,,,,,,,,,,,,,,,,,,,,,,,,,,,,,,,,,,,,,,,,,,,,,,,,,,,,,,,,,,,,,,,,,,,,,,,,,,,,,,,,,,,,,,,,,,,,,,,,,,,,,,,,,,,,,,,,,,,,,,,,,,,,,,
,,672135003f5e272c889620ea,2026-03-17_10h31.50.484,kallum_motion_pilot_GIST_update_2,2026.1.1,Win32,60.60606061,672135003f5e272c889620ea,69b92ab4aef6dee357cd729a,69b92b4ba4012f4b20c4a791,0.1175,0.1175,0,75,75,87,1,eightseven,,,,,,,,,,,,,,,,,,,,,,,,,,,,,,,,,,,,,,,,,,,,,,,,,,,,,,,,,,,,,,,,,,,,,,,,,,,,,,,,,,,,,,,,,,,,,,,,,,,,,,,,,,,,,,,,,,,,,,,,,,,,,,,,,,,,,,,,,
,,672135003f5e272c889620ea,2026-03-17_10h31.50.484,kallum_motion_pilot_GIST_update_2,2026.1.1,Win32,60.60606061,672135003f5e272c889620ea,69b92ab4aef6dee357cd729a,69b92b4ba4012f4b20c4a791,0.1179,0.1179,0,76,76,115,1,sixeight,,,,,,,,,,,,,,,,,,,,,,,,,,,,,,,,,,,,,,,,,,,,,,,,,,,,,,,,,,,,,,,,,,,,,,,,,,,,,,,,,,,,,,,,,,,,,,,,,,,,,,,,,,,,,,,,,,,,,,,,,,,,,,,,,,,,,,,,,
,,672135003f5e272c889620ea,2026-03-17_10h31.50.484,kallum_motion_pilot_GIST_update_2,2026.1.1,Win32,60.60606061,672135003f5e272c889620ea,69b92ab4aef6dee357cd729a,69b92b4ba4012f4b20c4a791,0.1182,0.1182,0,77,77,154,1,sixfive,,,,,,,,,,,,,,,,,,,,,,,,,,,,,,,,,,,,,,,,,,,,,,,,,,,,,,,,,,,,,,,,,,,,,,,,,,,,,,,,,,,,,,,,,,,,,,,,,,,,,,,,,,,,,,,,,,,,,,,,,,,,,,,,,,,,,,,,,
,,672135003f5e272c889620ea,2026-03-17_10h31.50.484,kallum_motion_pilot_GIST_update_2,2026.1.1,Win32,60.60606061,672135003f5e272c889620ea,69b92ab4aef6dee357cd729a,69b92b4ba4012f4b20c4a791,0.1185,0.1186,0,78,78,69,1,threefour,,,,,,,,,,,,,,,,,,,,,,,,,,,,,,,,,,,,,,,,,,,,,,,,,,,,,,,,,,,,,,,,,,,,,,,,,,,,,,,,,,,,,,,,,,,,,,,,,,,,,,,,,,,,,,,,,,,,,,,,,,,,,,,,,,,,,,,,,
,,672135003f5e272c889620ea,2026-03-17_10h31.50.484,kallum_motion_pilot_GIST_update_2,2026.1.1,Win32,60.60606061,672135003f5e272c889620ea,69b92ab4aef6dee357cd729a,69b92b4ba4012f4b20c4a791,0.1189,0.1189,0,79,79,83,1,sixeight,,,,,,,,,,,,,,,,,,,,,,,,,,,,,,,,,,,,,,,,,,,,,,,,,,,,,,,,,,,,,,,,,,,,,,,,,,,,,,,,,,,,,,,,,,,,,,,,,,,,,,,,,,,,,,,,,,,,,,,,,,,,,,,,,,,,,,,,,
,,672135003f5e272c889620ea,2026-03-17_10h31.50.484,kallum_motion_pilot_GIST_update_2,2026.1.1,Win32,60.60606061,672135003f5e272c889620ea,69b92ab4aef6dee357cd729a,69b92b4ba4012f4b20c4a791,0.1192,0.1192,0,80,80,106,1,sixfive,,,,,,,,,,,,,,,,,,,,,,,,,,,,,,,,,,,,,,,,,,,,,,,,,,,,,,,,,,,,,,,,,,,,,,,,,,,,,,,,,,,,,,,,,,,,,,,,,,,,,,,,,,,,,,,,,,,,,,,,,,,,,,,,,,,,,,,,,
,,672135003f5e272c889620ea,2026-03-17_10h31.50.484,kallum_motion_pilot_GIST_update_2,2026.1.1,Win32,60.60606061,672135003f5e272c889620ea,69b92ab4aef6dee357cd729a,69b92b4ba4012f4b20c4a791,0.1196,0.1196,0,81,81,9,1,onethree,,,,,,,,,,,,,,,,,,,,,,,,,,,,,,,,,,,,,,,,,,,,,,,,,,,,,,,,,,,,,,,,,,,,,,,,,,,,,,,,,,,,,,,,,,,,,,,,,,,,,,,,,,,,,,,,,,,,,,,,,,,,,,,,,,,,,,,,,
,,672135003f5e272c889620ea,2026-03-17_10h31.50.484,kallum_motion_pilot_GIST_update_2,2026.1.1,Win32,60.60606061,672135003f5e272c889620ea,69b92ab4aef6dee357cd729a,69b92b4ba4012f4b20c4a791,0.1199,0.12,0,82,82,158,1,eightsix,,,,,,,,,,,,,,,,,,,,,,,,,,,,,,,,,,,,,,,,,,,,,,,,,,,,,,,,,,,,,,,,,,,,,,,,,,,,,,,,,,,,,,,,,,,,,,,,,,,,,,,,,,,,,,,,,,,,,,,,,,,,,,,,,,,,,,,,,
,,672135003f5e272c889620ea,2026-03-17_10h31.50.484,kallum_motion_pilot_GIST_update_2,2026.1.1,Win32,60.60606061,672135003f5e272c889620ea,69b92ab4aef6dee357cd729a,69b92b4ba4012f4b20c4a791,0.1202,0.1202,0,83,83,126,1,eightsix,,,,,,,,,,,,,,,,,,,,,,,,,,,,,,,,,,,,,,,,,,,,,,,,,,,,,,,,,,,,,,,,,,,,,,,,,,,,,,,,,,,,,,,,,,,,,,,,,,,,,,,,,,,,,,,,,,,,,,,,,,,,,,,,,,,,,,,,,
,,672135003f5e272c889620ea,2026-03-17_10h31.50.484,kallum_motion_pilot_GIST_update_2,2026.1.1,Win32,60.60606061,672135003f5e272c889620ea,69b92ab4aef6dee357cd729a,69b92b4ba4012f4b20c4a791,0.1206,0.1206,0,84,84,14,1,fourtwo,,,,,,,,,,,,,,,,,,,,,,,,,,,,,,,,,,,,,,,,,,,,,,,,,,,,,,,,,,,,,,,,,,,,,,,,,,,,,,,,,,,,,,,,,,,,,,,,,,,,,,,,,,,,,,,,,,,,,,,,,,,,,,,,,,,,,,,,,
,,672135003f5e272c889620ea,2026-03-17_10h31.50.484,kallum_motion_pilot_GIST_update_2,2026.1.1,Win32,60.60606061,672135003f5e272c889620ea,69b92ab4aef6dee357cd729a,69b92b4ba4012f4b20c4a791,0.1209,0.1209,0,85,85,15,1,fourthree,,,,,,,,,,,,,,,,,,,,,,,,,,,,,,,,,,,,,,,,,,,,,,,,,,,,,,,,,,,,,,,,,,,,,,,,,,,,,,,,,,,,,,,,,,,,,,,,,,,,,,,,,,,,,,,,,,,,,,,,,,,,,,,,,,,,,,,,,
,,672135003f5e272c889620ea,2026-03-17_10h31.50.484,kallum_motion_pilot_GIST_update_2,2026.1.1,Win32,60.60606061,672135003f5e272c889620ea,69b92ab4aef6dee357cd729a,69b92b4ba4012f4b20c4a791,0.1211,0.1211,0,86,86,127,1,eightseven,,,,,,,,,,,,,,,,,,,,,,,,,,,,,,,,,,,,,,,,,,,,,,,,,,,,,,,,,,,,,,,,,,,,,,,,,,,,,,,,,,,,,,,,,,,,,,,,,,,,,,,,,,,,,,,,,,,,,,,,,,,,,,,,,,,,,,,,,
,,672135003f5e272c889620ea,2026-03-17_10h31.50.484,kallum_motion_pilot_GIST_update_2,2026.1.1,Win32,60.60606061,672135003f5e272c889620ea,69b92ab4aef6dee357cd729a,69b92b4ba4012f4b20c4a791,0.1215,0.1215,0,87,87,122,1,sixfive,,,,,,,,,,,,,,,,,,,,,,,,,,,,,,,,,,,,,,,,,,,,,,,,,,,,,,,,,,,,,,,,,,,,,,,,,,,,,,,,,,,,,,,,,,,,,,,,,,,,,,,,,,,,,,,,,,,,,,,,,,,,,,,,,,,,,,,,,
,,672135003f5e272c889620ea,2026-03-17_10h31.50.484,kallum_motion_pilot_GIST_update_2,2026.1.1,Win32,60.60606061,672135003f5e272c889620ea,69b92ab4aef6dee357cd729a,69b92b4ba4012f4b20c4a791,0.1218,0.1218,0,88,88,54,1,fourtwo,,,,,,,,,,,,,,,,,,,,,,,,,,,,,,,,,,,,,,,,,,,,,,,,,,,,,,,,,,,,,,,,,,,,,,,,,,,,,,,,,,,,,,,,,,,,,,,,,,,,,,,,,,,,,,,,,,,,,,,,,,,,,,,,,,,,,,,,,
,,672135003f5e272c889620ea,2026-03-17_10h31.50.484,kallum_motion_pilot_GIST_update_2,2026.1.1,Win32,60.60606061,672135003f5e272c889620ea,69b92ab4aef6dee357cd729a,69b92b4ba4012f4b20c4a791,0.1221,0.1221,0,89,89,32,1,onetwo,,,,,,,,,,,,,,,,,,,,,,,,,,,,,,,,,,,,,,,,,,,,,,,,,,,,,,,,,,,,,,,,,,,,,,,,,,,,,,,,,,,,,,,,,,,,,,,,,,,,,,,,,,,,,,,,,,,,,,,,,,,,,,,,,,,,,,,,,
,,672135003f5e272c889620ea,2026-03-17_10h31.50.484,kallum_motion_pilot_GIST_update_2,2026.1.1,Win32,60.60606061,672135003f5e272c889620ea,69b92ab4aef6dee357cd729a,69b92b4ba4012f4b20c4a791,0.1224,0.1226,0,90,90,109,1,seveneight,,,,,,,,,,,,,,,,,,,,,,,,,,,,,,,,,,,,,,,,,,,,,,,,,,,,,,,,,,,,,,,,,,,,,,,,,,,,,,,,,,,,,,,,,,,,,,,,,,,,,,,,,,,,,,,,,,,,,,,,,,,,,,,,,,,,,,,,,
,,672135003f5e272c889620ea,2026-03-17_10h31.50.484,kallum_motion_pilot_GIST_update_2,2026.1.1,Win32,60.60606061,672135003f5e272c889620ea,69b92ab4aef6dee357cd729a,69b92b4ba4012f4b20c4a791,0.1228,0.1228,0,91,91,63,1,fourthree,,,,,,,,,,,,,,,,,,,,,,,,,,,,,,,,,,,,,,,,,,,,,,,,,,,,,,,,,,,,,,,,,,,,,,,,,,,,,,,,,,,,,,,,,,,,,,,,,,,,,,,,,,,,,,,,,,,,,,,,,,,,,,,,,,,,,,,,,
,,672135003f5e272c889620ea,2026-03-17_10h31.50.484,kallum_motion_pilot_GIST_update_2,2026.1.1,Win32,60.60606061,672135003f5e272c889620ea,69b92ab4aef6dee357cd729a,69b92b4ba4012f4b20c4a791,0.1231,0.1231,0,92,92,39,1,fourthree,,,,,,,,,,,,,,,,,,,,,,,,,,,,,,,,,,,,,,,,,,,,,,,,,,,,,,,,,,,,,,,,,,,,,,,,,,,,,,,,,,,,,,,,,,,,,,,,,,,,,,,,,,,,,,,,,,,,,,,,,,,,,,,,,,,,,,,,,
,,672135003f5e272c889620ea,2026-03-17_10h31.50.484,kallum_motion_pilot_GIST_update_2,2026.1.1,Win32,60.60606061,672135003f5e272c889620ea,69b92ab4aef6dee357cd729a,69b92b4ba4012f4b20c4a791,0.1233,0.1233,0,93,93,44,1,threeone,,,,,,,,,,,,,,,,,,,,,,,,,,,,,,,,,,,,,,,,,,,,,,,,,,,,,,,,,,,,,,,,,,,,,,,,,,,,,,,,,,,,,,,,,,,,,,,,,,,,,,,,,,,,,,,,,,,,,,,,,,,,,,,,,,,,,,,,,
,,672135003f5e272c889620ea,2026-03-17_10h31.50.484,kallum_motion_pilot_GIST_update_2,2026.1.1,Win32,60.60606061,672135003f5e272c889620ea,69b92ab4aef6dee357cd729a,69b92b4ba4012f4b20c4a791,0.1238,0.1238,0,94,94,129,1,fiveseven,,,,,,,,,,,,,,,,,,,,,,,,,,,,,,,,,,,,,,,,,,,,,,,,,,,,,,,,,,,,,,,,,,,,,,,,,,,,,,,,,,,,,,,,,,,,,,,,,,,,,,,,,,,,,,,,,,,,,,,,,,,,,,,,,,,,,,,,,
,,672135003f5e272c889620ea,2026-03-17_10h31.50.484,kallum_motion_pilot_GIST_update_2,2026.1.1,Win32,60.60606061,672135003f5e272c889620ea,69b92ab4aef6dee357cd729a,69b92b4ba4012f4b20c4a791,0.1242,0.1242,0,95,95,159,1,eightseven,,,,,,,,,,,,,,,,,,,,,,,,,,,,,,,,,,,,,,,,,,,,,,,,,,,,,,,,,,,,,,,,,,,,,,,,,,,,,,,,,,,,,,,,,,,,,,,,,,,,,,,,,,,,,,,,,,,,,,,,,,,,,,,,,,,,,,,,,
,,672135003f5e272c889620ea,2026-03-17_10h31.50.484,kallum_motion_pilot_GIST_update_2,2026.1.1,Win32,60.60606061,672135003f5e272c889620ea,69b92ab4aef6dee357cd729a,69b92b4ba4012f4b20c4a791,0.1247,0.1247,0,96,96,28,1,threeone,,,,,,,,,,,,,,,,,,,,,,,,,,,,,,,,,,,,,,,,,,,,,,,,,,,,,,,,,,,,,,,,,,,,,,,,,,,,,,,,,,,,,,,,,,,,,,,,,,,,,,,,,,,,,,,,,,,,,,,,,,,,,,,,,,,,,,,,,
,,672135003f5e272c889620ea,2026-03-17_10h31.50.484,kallum_motion_pilot_GIST_update_2,2026.1.1,Win32,60.60606061,672135003f5e272c889620ea,69b92ab4aef6dee357cd729a,69b92b4ba4012f4b20c4a791,0.1249,0.125,0,97,97,18,1,twoone,,,,,,,,,,,,,,,,,,,,,,,,,,,,,,,,,,,,,,,,,,,,,,,,,,,,,,,,,,,,,,,,,,,,,,,,,,,,,,,,,,,,,,,,,,,,,,,,,,,,,,,,,,,,,,,,,,,,,,,,,,,,,,,,,,,,,,,,,
,,672135003f5e272c889620ea,2026-03-17_10h31.50.484,kallum_motion_pilot_GIST_update_2,2026.1.1,Win32,60.60606061,672135003f5e272c889620ea,69b92ab4aef6dee357cd729a,69b92b4ba4012f4b20c4a791,0.1253,0.1253,0,98,98,24,1,onetwo,,,,,,,,,,,,,,,,,,,,,,,,,,,,,,,,,,,,,,,,,,,,,,,,,,,,,,,,,,,,,,,,,,,,,,,,,,,,,,,,,,,,,,,,,,,,,,,,,,,,,,,,,,,,,,,,,,,,,,,,,,,,,,,,,,,,,,,,,
,,672135003f5e272c889620ea,2026-03-17_10h31.50.484,kallum_motion_pilot_GIST_update_2,2026.1.1,Win32,60.60606061,672135003f5e272c889620ea,69b92ab4aef6dee357cd729a,69b92b4ba4012f4b20c4a791,0.1257,0.1257,0,99,99,12,1,threeone,,,,,,,,,,,,,,,,,,,,,,,,,,,,,,,,,,,,,,,,,,,,,,,,,,,,,,,,,,,,,,,,,,,,,,,,,,,,,,,,,,,,,,,,,,,,,,,,,,,,,,,,,,,,,,,,,,,,,,,,,,,,,,,,,,,,,,,,,
,,672135003f5e272c889620ea,2026-03-17_10h31.50.484,kallum_motion_pilot_GIST_update_2,2026.1.1,Win32,60.60606061,672135003f5e272c889620ea,69b92ab4aef6dee357cd729a,69b92b4ba4012f4b20c4a791,0.1262,0.1263,0,100,100,38,1,fourtwo,,,,,,,,,,,,,,,,,,,,,,,,,,,,,,,,,,,,,,,,,,,,,,,,,,,,,,,,,,,,,,,,,,,,,,,,,,,,,,,,,,,,,,,,,,,,,,,,,,,,,,,,,,,,,,,,,,,,,,,,,,,,,,,,,,,,,,,,,
,,672135003f5e272c889620ea,2026-03-17_10h31.50.484,kallum_motion_pilot_GIST_update_2,2026.1.1,Win32,60.60606061,672135003f5e272c889620ea,69b92ab4aef6dee357cd729a,69b92b4ba4012f4b20c4a791,0.1266,0.1266,0,101,101,84,1,sevenfive,,,,,,,,,,,,,,,,,,,,,,,,,,,,,,,,,,,,,,,,,,,,,,,,,,,,,,,,,,,,,,,,,,,,,,,,,,,,,,,,,,,,,,,,,,,,,,,,,,,,,,,,,,,,,,,,,,,,,,,,,,,,,,,,,,,,,,,,,
,,672135003f5e272c889620ea,2026-03-17_10h31.50.484,kallum_motion_pilot_GIST_update_2,2026.1.1,Win32,60.60606061,672135003f5e272c889620ea,69b92ab4aef6dee357cd729a,69b92b4ba4012f4b20c4a791,0.127,0.127,0,102,102,25,1,onethree,,,,,,,,,,,,,,,,,,,,,,,,,,,,,,,,,,,,,,,,,,,,,,,,,,,,,,,,,,,,,,,,,,,,,,,,,,,,,,,,,,,,,,,,,,,,,,,,,,,,,,,,,,,,,,,,,,,,,,,,,,,,,,,,,,,,,,,,,
,,672135003f5e272c889620ea,2026-03-17_10h31.50.484,kallum_motion_pilot_GIST_update_2,2026.1.1,Win32,60.60606061,672135003f5e272c889620ea,69b92ab4aef6dee357cd729a,69b92b4ba4012f4b20c4a791,0.1275,0.1275,0,103,103,96,1,fivesix,,,,,,,,,,,,,,,,,,,,,,,,,,,,,,,,,,,,,,,,,,,,,,,,,,,,,,,,,,,,,,,,,,,,,,,,,,,,,,,,,,,,,,,,,,,,,,,,,,,,,,,,,,,,,,,,,,,,,,,,,,,,,,,,,,,,,,,,,
,,672135003f5e272c889620ea,2026-03-17_10h31.50.484,kallum_motion_pilot_GIST_update_2,2026.1.1,Win32,60.60606061,672135003f5e272c889620ea,69b92ab4aef6dee357cd729a,69b92b4ba4012f4b20c4a791,0.1278,0.1278,0,104,104,53,1,threefour,,,,,,,,,,,,,,,,,,,,,,,,,,,,,,,,,,,,,,,,,,,,,,,,,,,,,,,,,,,,,,,,,,,,,,,,,,,,,,,,,,,,,,,,,,,,,,,,,,,,,,,,,,,,,,,,,,,,,,,,,,,,,,,,,,,,,,,,,
,,672135003f5e272c889620ea,2026-03-17_10h31.50.484,kallum_motion_pilot_GIST_update_2,2026.1.1,Win32,60.60606061,672135003f5e272c889620ea,69b92ab4aef6dee357cd729a,69b92b4ba4012f4b20c4a791,0.1282,0.1282,0,105,105,11,1,twofour,,,,,,,,,,,,,,,,,,,,,,,,,,,,,,,,,,,,,,,,,,,,,,,,,,,,,,,,,,,,,,,,,,,,,,,,,,,,,,,,,,,,,,,,,,,,,,,,,,,,,,,,,,,,,,,,,,,,,,,,,,,,,,,,,,,,,,,,,
,,672135003f5e272c889620ea,2026-03-17_10h31.50.484,kallum_motion_pilot_GIST_update_2,2026.1.1,Win32,60.60606061,672135003f5e272c889620ea,69b92ab4aef6dee357cd729a,69b92b4ba4012f4b20c4a791,0.1287,0.1287,0,106,106,82,1,sixfive,,,,,,,,,,,,,,,,,,,,,,,,,,,,,,,,,,,,,,,,,,,,,,,,,,,,,,,,,,,,,,,,,,,,,,,,,,,,,,,,,,,,,,,,,,,,,,,,,,,,,,,,,,,,,,,,,,,,,,,,,,,,,,,,,,,,,,,,,
,,672135003f5e272c889620ea,2026-03-17_10h31.50.484,kallum_motion_pilot_GIST_update_2,2026.1.1,Win32,60.60606061,672135003f5e272c889620ea,69b92ab4aef6dee357cd729a,69b92b4ba4012f4b20c4a791,0.1291,0.1291,0,107,107,26,1,twoone,,,,,,,,,,,,,,,,,,,,,,,,,,,,,,,,,,,,,,,,,,,,,,,,,,,,,,,,,,,,,,,,,,,,,,,,,,,,,,,,,,,,,,,,,,,,,,,,,,,,,,,,,,,,,,,,,,,,,,,,,,,,,,,,,,,,,,,,,
,,672135003f5e272c889620ea,2026-03-17_10h31.50.484,kallum_motion_pilot_GIST_update_2,2026.1.1,Win32,60.60606061,672135003f5e272c889620ea,69b92ab4aef6dee357cd729a,69b92b4ba4012f4b20c4a791,0.1294,0.1294,0,108,108,89,1,fiveseven,,,,,,,,,,,,,,,,,,,,,,,,,,,,,,,,,,,,,,,,,,,,,,,,,,,,,,,,,,,,,,,,,,,,,,,,,,,,,,,,,,,,,,,,,,,,,,,,,,,,,,,,,,,,,,,,,,,,,,,,,,,,,,,,,,,,,,,,,
,,672135003f5e272c889620ea,2026-03-17_10h31.50.484,kallum_motion_pilot_GIST_update_2,2026.1.1,Win32,60.60606061,672135003f5e272c889620ea,69b92ab4aef6dee357cd729a,69b92b4ba4012f4b20c4a791,0.1298,0.1298,0,109,109,93,1,seveneight,,,,,,,,,,,,,,,,,,,,,,,,,,,,,,,,,,,,,,,,,,,,,,,,,,,,,,,,,,,,,,,,,,,,,,,,,,,,,,,,,,,,,,,,,,,,,,,,,,,,,,,,,,,,,,,,,,,,,,,,,,,,,,,,,,,,,,,,,
,,672135003f5e272c889620ea,2026-03-17_10h31.50.484,kallum_motion_pilot_GIST_update_2,2026.1.1,Win32,60.60606061,672135003f5e272c889620ea,69b92ab4aef6dee357cd729a,69b92b4ba4012f4b20c4a791,0.1302,0.1302,0,110,110,77,1,threefour,,,,,,,,,,,,,,,,,,,,,,,,,,,,,,,,,,,,,,,,,,,,,,,,,,,,,,,,,,,,,,,,,,,,,,,,,,,,,,,,,,,,,,,,,,,,,,,,,,,,,,,,,,,,,,,,,,,,,,,,,,,,,,,,,,,,,,,,,
,,672135003f5e272c889620ea,2026-03-17_10h31.50.484,kallum_motion_pilot_GIST_update_2,2026.1.1,Win32,60.60606061,672135003f5e272c889620ea,69b92ab4aef6dee357cd729a,69b92b4ba4012f4b20c4a791,0.1305,0.1306,0,111,111,128,1,fivesix,,,,,,,,,,,,,,,,,,,,,,,,,,,,,,,,,,,,,,,,,,,,,,,,,,,,,,,,,,,,,,,,,,,,,,,,,,,,,,,,,,,,,,,,,,,,,,,,,,,,,,,,,,,,,,,,,,,,,,,,,,,,,,,,,,,,,,,,,
,,672135003f5e272c889620ea,2026-03-17_10h31.50.484,kallum_motion_pilot_GIST_update_2,2026.1.1,Win32,60.60606061,672135003f5e272c889620ea,69b92ab4aef6dee357cd729a,69b92b4ba4012f4b20c4a791,0.131,0.131,0,112,112,139,1,sixeight,,,,,,,,,,,,,,,,,,,,,,,,,,,,,,,,,,,,,,,,,,,,,,,,,,,,,,,,,,,,,,,,,,,,,,,,,,,,,,,,,,,,,,,,,,,,,,,,,,,,,,,,,,,,,,,,,,,,,,,,,,,,,,,,,,,,,,,,,
,,672135003f5e272c889620ea,2026-03-17_10h31.50.484,kallum_motion_pilot_GIST_update_2,2026.1.1,Win32,60.60606061,672135003f5e272c889620ea,69b92ab4aef6dee357cd729a,69b92b4ba4012f4b20c4a791,0.1315,0.1315,0,113,113,85,1,seveneight,,,,,,,,,,,,,,,,,,,,,,,,,,,,,,,,,,,,,,,,,,,,,,,,,,,,,,,,,,,,,,,,,,,,,,,,,,,,,,,,,,,,,,,,,,,,,,,,,,,,,,,,,,,,,,,,,,,,,,,,,,,,,,,,,,,,,,,,,
,,672135003f5e272c889620ea,2026-03-17_10h31.50.484,kallum_motion_pilot_GIST_update_2,2026.1.1,Win32,60.60606061,672135003f5e272c889620ea,69b92ab4aef6dee357cd729a,69b92b4ba4012f4b20c4a791,0.1321,0.1321,0,114,114,98,1,sixfive,,,,,,,,,,,,,,,,,,,,,,,,,,,,,,,,,,,,,,,,,,,,,,,,,,,,,,,,,,,,,,,,,,,,,,,,,,,,,,,,,,,,,,,,,,,,,,,,,,,,,,,,,,,,,,,,,,,,,,,,,,,,,,,,,,,,,,,,,
,,672135003f5e272c889620ea,2026-03-17_10h31.50.484,kallum_motion_pilot_GIST_update_2,2026.1.1,Win32,60.60606061,672135003f5e272c889620ea,69b92ab4aef6dee357cd729a,69b92b4ba4012f4b20c4a791,0.1324,0.1324,0,115,115,3,1,twofour,,,,,,,,,,,,,,,,,,,,,,,,,,,,,,,,,,,,,,,,,,,,,,,,,,,,,,,,,,,,,,,,,,,,,,,,,,,,,,,,,,,,,,,,,,,,,,,,,,,,,,,,,,,,,,,,,,,,,,,,,,,,,,,,,,,,,,,,,
,,672135003f5e272c889620ea,2026-03-17_10h31.50.484,kallum_motion_pilot_GIST_update_2,2026.1.1,Win32,60.60606061,672135003f5e272c889620ea,69b92ab4aef6dee357cd729a,69b92b4ba4012f4b20c4a791,0.1329,0.1329,0,116,116,5,1,threefour,,,,,,,,,,,,,,,,,,,,,,,,,,,,,,,,,,,,,,,,,,,,,,,,,,,,,,,,,,,,,,,,,,,,,,,,,,,,,,,,,,,,,,,,,,,,,,,,,,,,,,,,,,,,,,,,,,,,,,,,,,,,,,,,,,,,,,,,,
,,672135003f5e272c889620ea,2026-03-17_10h31.50.484,kallum_motion_pilot_GIST_update_2,2026.1.1,Win32,60.60606061,672135003f5e272c889620ea,69b92ab4aef6dee357cd729a,69b92b4ba4012f4b20c4a791,0.1332,0.1332,0,117,117,6,1,fourtwo,,,,,,,,,,,,,,,,,,,,,,,,,,,,,,,,,,,,,,,,,,,,,,,,,,,,,,,,,,,,,,,,,,,,,,,,,,,,,,,,,,,,,,,,,,,,,,,,,,,,,,,,,,,,,,,,,,,,,,,,,,,,,,,,,,,,,,,,,
,,672135003f5e272c889620ea,2026-03-17_10h31.50.484,kallum_motion_pilot_GIST_update_2,2026.1.1,Win32,60.60606061,672135003f5e272c889620ea,69b92ab4aef6dee357cd729a,69b92b4ba4012f4b20c4a791,0.1337,0.1337,0,118,118,90,1,sixfive,,,,,,,,,,,,,,,,,,,,,,,,,,,,,,,,,,,,,,,,,,,,,,,,,,,,,,,,,,,,,,,,,,,,,,,,,,,,,,,,,,,,,,,,,,,,,,,,,,,,,,,,,,,,,,,,,,,,,,,,,,,,,,,,,,,,,,,,,
,,672135003f5e272c889620ea,2026-03-17_10h31.50.484,kallum_motion_pilot_GIST_update_2,2026.1.1,Win32,60.60606061,672135003f5e272c889620ea,69b92ab4aef6dee357cd729a,69b92b4ba4012f4b20c4a791,0.1341,0.1341,0,119,119,121,1,fiveseven,,,,,,,,,,,,,,,,,,,,,,,,,,,,,,,,,,,,,,,,,,,,,,,,,,,,,,,,,,,,,,,,,,,,,,,,,,,,,,,,,,,,,,,,,,,,,,,,,,,,,,,,,,,,,,,,,,,,,,,,,,,,,,,,,,,,,,,,,
,,672135003f5e272c889620ea,2026-03-17_10h31.50.484,kallum_motion_pilot_GIST_update_2,2026.1.1,Win32,60.60606061,672135003f5e272c889620ea,69b92ab4aef6dee357cd729a,69b92b4ba4012f4b20c4a791,0.1343,0.1344,0,120,120,131,1,sixeight,,,,,,,,,,,,,,,,,,,,,,,,,,,,,,,,,,,,,,,,,,,,,,,,,,,,,,,,,,,,,,,,,,,,,,,,,,,,,,,,,,,,,,,,,,,,,,,,,,,,,,,,,,,,,,,,,,,,,,,,,,,,,,,,,,,,,,,,,
,,672135003f5e272c889620ea,2026-03-17_10h31.50.484,kallum_motion_pilot_GIST_update_2,2026.1.1,Win32,60.60606061,672135003f5e272c889620ea,69b92ab4aef6dee357cd729a,69b92b4ba4012f4b20c4a791,0.1347,0.1347,0,121,121,88,1,fivesix,,,,,,,,,,,,,,,,,,,,,,,,,,,,,,,,,,,,,,,,,,,,,,,,,,,,,,,,,,,,,,,,,,,,,,,,,,,,,,,,,,,,,,,,,,,,,,,,,,,,,,,,,,,,,,,,,,,,,,,,,,,,,,,,,,,,,,,,,
,,672135003f5e272c889620ea,2026-03-17_10h31.50.484,kallum_motion_pilot_GIST_update_2,2026.1.1,Win32,60.60606061,672135003f5e272c889620ea,69b92ab4aef6dee357cd729a,69b92b4ba4012f4b20c4a791,0.1351,0.1351,0,122,122,161,1,fiveseven,,,,,,,,,,,,,,,,,,,,,,,,,,,,,,,,,,,,,,,,,,,,,,,,,,,,,,,,,,,,,,,,,,,,,,,,,,,,,,,,,,,,,,,,,,,,,,,,,,,,,,,,,,,,,,,,,,,,,,,,,,,,,,,,,,,,,,,,,
,,672135003f5e272c889620ea,2026-03-17_10h31.50.484,kallum_motion_pilot_GIST_update_2,2026.1.1,Win32,60.60606061,672135003f5e272c889620ea,69b92ab4aef6dee357cd729a,69b92b4ba4012f4b20c4a791,0.1353,0.1353,0,123,123,4,1,threeone,,,,,,,,,,,,,,,,,,,,,,,,,,,,,,,,,,,,,,,,,,,,,,,,,,,,,,,,,,,,,,,,,,,,,,,,,,,,,,,,,,,,,,,,,,,,,,,,,,,,,,,,,,,,,,,,,,,,,,,,,,,,,,,,,,,,,,,,,
,,672135003f5e272c889620ea,2026-03-17_10h31.50.484,kallum_motion_pilot_GIST_update_2,2026.1.1,Win32,60.60606061,672135003f5e272c889620ea,69b92ab4aef6dee357cd729a,69b92b4ba4012f4b20c4a791,0.1357,0.1357,0,124,124,22,1,fourtwo,,,,,,,,,,,,,,,,,,,,,,,,,,,,,,,,,,,,,,,,,,,,,,,,,,,,,,,,,,,,,,,,,,,,,,,,,,,,,,,,,,,,,,,,,,,,,,,,,,,,,,,,,,,,,,,,,,,,,,,,,,,,,,,,,,,,,,,,,
,,672135003f5e272c889620ea,2026-03-17_10h31.50.484,kallum_motion_pilot_GIST_update_2,2026.1.1,Win32,60.60606061,672135003f5e272c889620ea,69b92ab4aef6dee357cd729a,69b92b4ba4012f4b20c4a791,0.136,0.136,0,125,125,97,1,fiveseven,,,,,,,,,,,,,,,,,,,,,,,,,,,,,,,,,,,,,,,,,,,,,,,,,,,,,,,,,,,,,,,,,,,,,,,,,,,,,,,,,,,,,,,,,,,,,,,,,,,,,,,,,,,,,,,,,,,,,,,,,,,,,,,,,,,,,,,,,
,,672135003f5e272c889620ea,2026-03-17_10h31.50.484,kallum_motion_pilot_GIST_update_2,2026.1.1,Win32,60.60606061,672135003f5e272c889620ea,69b92ab4aef6dee357cd729a,69b92b4ba4012f4b20c4a791,0.1363,0.1364,0,126,126,45,1,threefour,,,,,,,,,,,,,,,,,,,,,,,,,,,,,,,,,,,,,,,,,,,,,,,,,,,,,,,,,,,,,,,,,,,,,,,,,,,,,,,,,,,,,,,,,,,,,,,,,,,,,,,,,,,,,,,,,,,,,,,,,,,,,,,,,,,,,,,,,
,,672135003f5e272c889620ea,2026-03-17_10h31.50.484,kallum_motion_pilot_GIST_update_2,2026.1.1,Win32,60.60606061,672135003f5e272c889620ea,69b92ab4aef6dee357cd729a,69b92b4ba4012f4b20c4a791,0.1367,0.1368,0,127,127,123,1,sixeight,,,,,,,,,,,,,,,,,,,,,,,,,,,,,,,,,,,,,,,,,,,,,,,,,,,,,,,,,,,,,,,,,,,,,,,,,,,,,,,,,,,,,,,,,,,,,,,,,,,,,,,,,,,,,,,,,,,,,,,,,,,,,,,,,,,,,,,,,
,,672135003f5e272c889620ea,2026-03-17_10h31.50.484,kallum_motion_pilot_GIST_update_2,2026.1.1,Win32,60.60606061,672135003f5e272c889620ea,69b92ab4aef6dee357cd729a,69b92b4ba4012f4b20c4a791,0.1371,0.1371,0,128,128,94,1,eightsix,,,,,,,,,,,,,,,,,,,,,,,,,,,,,,,,,,,,,,,,,,,,,,,,,,,,,,,,,,,,,,,,,,,,,,,,,,,,,,,,,,,,,,,,,,,,,,,,,,,,,,,,,,,,,,,,,,,,,,,,,,,,,,,,,,,,,,,,,
,,672135003f5e272c889620ea,2026-03-17_10h31.50.484,kallum_motion_pilot_GIST_update_2,2026.1.1,Win32,60.60606061,672135003f5e272c889620ea,69b92ab4aef6dee357cd729a,69b92b4ba4012f4b20c4a791,0.1374,0.1376,0,129,129,152,1,fivesix,,,,,,,,,,,,,,,,,,,,,,,,,,,,,,,,,,,,,,,,,,,,,,,,,,,,,,,,,,,,,,,,,,,,,,,,,,,,,,,,,,,,,,,,,,,,,,,,,,,,,,,,,,,,,,,,,,,,,,,,,,,,,,,,,,,,,,,,,
,,672135003f5e272c889620ea,2026-03-17_10h31.50.484,kallum_motion_pilot_GIST_update_2,2026.1.1,Win32,60.60606061,672135003f5e272c889620ea,69b92ab4aef6dee357cd729a,69b92b4ba4012f4b20c4a791,0.1378,0.1378,0,130,130,64,1,onetwo,,,,,,,,,,,,,,,,,,,,,,,,,,,,,,,,,,,,,,,,,,,,,,,,,,,,,,,,,,,,,,,,,,,,,,,,,,,,,,,,,,,,,,,,,,,,,,,,,,,,,,,,,,,,,,,,,,,,,,,,,,,,,,,,,,,,,,,,,
,,672135003f5e272c889620ea,2026-03-17_10h31.50.484,kallum_motion_pilot_GIST_update_2,2026.1.1,Win32,60.60606061,672135003f5e272c889620ea,69b92ab4aef6dee357cd729a,69b92b4ba4012f4b20c4a791,0.1382,0.1382,0,131,131,49,1,onethree,,,,,,,,,,,,,,,,,,,,,,,,,,,,,,,,,,,,,,,,,,,,,,,,,,,,,,,,,,,,,,,,,,,,,,,,,,,,,,,,,,,,,,,,,,,,,,,,,,,,,,,,,,,,,,,,,,,,,,,,,,,,,,,,,,,,,,,,,
,,672135003f5e272c889620ea,2026-03-17_10h31.50.484,kallum_motion_pilot_GIST_update_2,2026.1.1,Win32,60.60606061,672135003f5e272c889620ea,69b92ab4aef6dee357cd729a,69b92b4ba4012f4b20c4a791,0.1384,0.1386,0,132,132,59,1,twofour,,,,,,,,,,,,,,,,,,,,,,,,,,,,,,,,,,,,,,,,,,,,,,,,,,,,,,,,,,,,,,,,,,,,,,,,,,,,,,,,,,,,,,,,,,,,,,,,,,,,,,,,,,,,,,,,,,,,,,,,,,,,,,,,,,,,,,,,,
,,672135003f5e272c889620ea,2026-03-17_10h31.50.484,kallum_motion_pilot_GIST_update_2,2026.1.1,Win32,60.60606061,672135003f5e272c889620ea,69b92ab4aef6dee357cd729a,69b92b4ba4012f4b20c4a791,0.1389,0.1389,0,133,133,67,1,twofour,,,,,,,,,,,,,,,,,,,,,,,,,,,,,,,,,,,,,,,,,,,,,,,,,,,,,,,,,,,,,,,,,,,,,,,,,,,,,,,,,,,,,,,,,,,,,,,,,,,,,,,,,,,,,,,,,,,,,,,,,,,,,,,,,,,,,,,,,
,,672135003f5e272c889620ea,2026-03-17_10h31.50.484,kallum_motion_pilot_GIST_update_2,2026.1.1,Win32,60.60606061,672135003f5e272c889620ea,69b92ab4aef6dee357cd729a,69b92b4ba4012f4b20c4a791,0.1391,0.1391,0,134,134,23,1,fourthree,,,,,,,,,,,,,,,,,,,,,,,,,,,,,,,,,,,,,,,,,,,,,,,,,,,,,,,,,,,,,,,,,,,,,,,,,,,,,,,,,,,,,,,,,,,,,,,,,,,,,,,,,,,,,,,,,,,,,,,,,,,,,,,,,,,,,,,,,
,,672135003f5e272c889620ea,2026-03-17_10h31.50.484,kallum_motion_pilot_GIST_update_2,2026.1.1,Win32,60.60606061,672135003f5e272c889620ea,69b92ab4aef6dee357cd729a,69b92b4ba4012f4b20c4a791,0.1396,0.1397,0,135,135,52,1,threeone,,,,,,,,,,,,,,,,,,,,,,,,,,,,,,,,,,,,,,,,,,,,,,,,,,,,,,,,,,,,,,,,,,,,,,,,,,,,,,,,,,,,,,,,,,,,,,,,,,,,,,,,,,,,,,,,,,,,,,,,,,,,,,,,,,,,,,,,,
,,672135003f5e272c889620ea,2026-03-17_10h31.50.484,kallum_motion_pilot_GIST_update_2,2026.1.1,Win32,60.60606061,672135003f5e272c889620ea,69b92ab4aef6dee357cd729a,69b92b4ba4012f4b20c4a791,0.14,0.14,0,136,136,153,1,fiveseven,,,,,,,,,,,,,,,,,,,,,,,,,,,,,,,,,,,,,,,,,,,,,,,,,,,,,,,,,,,,,,,,,,,,,,,,,,,,,,,,,,,,,,,,,,,,,,,,,,,,,,,,,,,,,,,,,,,,,,,,,,,,,,,,,,,,,,,,,
,,672135003f5e272c889620ea,2026-03-17_10h31.50.484,kallum_motion_pilot_GIST_update_2,2026.1.1,Win32,60.60606061,672135003f5e272c889620ea,69b92ab4aef6dee357cd729a,69b92b4ba4012f4b20c4a791,0.1403,0.1403,0,137,137,91,1,sixeight,,,,,,,,,,,,,,,,,,,,,,,,,,,,,,,,,,,,,,,,,,,,,,,,,,,,,,,,,,,,,,,,,,,,,,,,,,,,,,,,,,,,,,,,,,,,,,,,,,,,,,,,,,,,,,,,,,,,,,,,,,,,,,,,,,,,,,,,,
,,672135003f5e272c889620ea,2026-03-17_10h31.50.484,kallum_motion_pilot_GIST_update_2,2026.1.1,Win32,60.60606061,672135003f5e272c889620ea,69b92ab4aef6dee357cd729a,69b92b4ba4012f4b20c4a791,0.1407,0.1407,0,138,138,108,1,sevenfive,,,,,,,,,,,,,,,,,,,,,,,,,,,,,,,,,,,,,,,,,,,,,,,,,,,,,,,,,,,,,,,,,,,,,,,,,,,,,,,,,,,,,,,,,,,,,,,,,,,,,,,,,,,,,,,,,,,,,,,,,,,,,,,,,,,,,,,,,
,,672135003f5e272c889620ea,2026-03-17_10h31.50.484,kallum_motion_pilot_GIST_update_2,2026.1.1,Win32,60.60606061,672135003f5e272c889620ea,69b92ab4aef6dee357cd729a,69b92b4ba4012f4b20c4a791,0.141,0.141,0,139,139,105,1,fiveseven,,,,,,,,,,,,,,,,,,,,,,,,,,,,,,,,,,,,,,,,,,,,,,,,,,,,,,,,,,,,,,,,,,,,,,,,,,,,,,,,,,,,,,,,,,,,,,,,,,,,,,,,,,,,,,,,,,,,,,,,,,,,,,,,,,,,,,,,,
,,672135003f5e272c889620ea,2026-03-17_10h31.50.484,kallum_motion_pilot_GIST_update_2,2026.1.1,Win32,60.60606061,672135003f5e272c889620ea,69b92ab4aef6dee357cd729a,69b92b4ba4012f4b20c4a791,0.1412,0.1413,0,140,140,119,1,eightseven,,,,,,,,,,,,,,,,,,,,,,,,,,,,,,,,,,,,,,,,,,,,,,,,,,,,,,,,,,,,,,,,,,,,,,,,,,,,,,,,,,,,,,,,,,,,,,,,,,,,,,,,,,,,,,,,,,,,,,,,,,,,,,,,,,,,,,,,,
,,672135003f5e272c889620ea,2026-03-17_10h31.50.484,kallum_motion_pilot_GIST_update_2,2026.1.1,Win32,60.60606061,672135003f5e272c889620ea,69b92ab4aef6dee357cd729a,69b92b4ba4012f4b20c4a791,0.1416,0.1416,0,141,141,40,1,onetwo,,,,,,,,,,,,,,,,,,,,,,,,,,,,,,,,,,,,,,,,,,,,,,,,,,,,,,,,,,,,,,,,,,,,,,,,,,,,,,,,,,,,,,,,,,,,,,,,,,,,,,,,,,,,,,,,,,,,,,,,,,,,,,,,,,,,,,,,,
,,672135003f5e272c889620ea,2026-03-17_10h31.50.484,kallum_motion_pilot_GIST_update_2,2026.1.1,Win32,60.60606061,672135003f5e272c889620ea,69b92ab4aef6dee357cd729a,69b92b4ba4012f4b20c4a791,0.1419,0.1419,0,142,142,130,1,sixfive,,,,,,,,,,,,,,,,,,,,,,,,,,,,,,,,,,,,,,,,,,,,,,,,,,,,,,,,,,,,,,,,,,,,,,,,,,,,,,,,,,,,,,,,,,,,,,,,,,,,,,,,,,,,,,,,,,,,,,,,,,,,,,,,,,,,,,,,,
,,672135003f5e272c889620ea,2026-03-17_10h31.50.484,kallum_motion_pilot_GIST_update_2,2026.1.1,Win32,60.60606061,672135003f5e272c889620ea,69b92ab4aef6dee357cd729a,69b92b4ba4012f4b20c4a791,0.1422,0.1422,0,143,143,29,1,threefour,,,,,,,,,,,,,,,,,,,,,,,,,,,,,,,,,,,,,,,,,,,,,,,,,,,,,,,,,,,,,,,,,,,,,,,,,,,,,,,,,,,,,,,,,,,,,,,,,,,,,,,,,,,,,,,,,,,,,,,,,,,,,,,,,,,,,,,,,
,,672135003f5e272c889620ea,2026-03-17_10h31.50.484,kallum_motion_pilot_GIST_update_2,2026.1.1,Win32,60.60606061,672135003f5e272c889620ea,69b92ab4aef6dee357cd729a,69b92b4ba4012f4b20c4a791,0.1424,0.1425,0,144,144,150,1,eightsix,,,,,,,,,,,,,,,,,,,,,,,,,,,,,,,,,,,,,,,,,,,,,,,,,,,,,,,,,,,,,,,,,,,,,,,,,,,,,,,,,,,,,,,,,,,,,,,,,,,,,,,,,,,,,,,,,,,,,,,,,,,,,,,,,,,,,,,,,
,,672135003f5e272c889620ea,2026-03-17_10h31.50.484,kallum_motion_pilot_GIST_update_2,2026.1.1,Win32,60.60606061,672135003f5e272c889620ea,69b92ab4aef6dee357cd729a,69b92b4ba4012f4b20c4a791,0.1428,0.1428,0,145,145,31,1,fourthree,,,,,,,,,,,,,,,,,,,,,,,,,,,,,,,,,,,,,,,,,,,,,,,,,,,,,,,,,,,,,,,,,,,,,,,,,,,,,,,,,,,,,,,,,,,,,,,,,,,,,,,,,,,,,,,,,,,,,,,,,,,,,,,,,,,,,,,,,
,,672135003f5e272c889620ea,2026-03-17_10h31.50.484,kallum_motion_pilot_GIST_update_2,2026.1.1,Win32,60.60606061,672135003f5e272c889620ea,69b92ab4aef6dee357cd729a,69b92b4ba4012f4b20c4a791,0.143,0.143,0,146,146,103,1,eightseven,,,,,,,,,,,,,,,,,,,,,,,,,,,,,,,,,,,,,,,,,,,,,,,,,,,,,,,,,,,,,,,,,,,,,,,,,,,,,,,,,,,,,,,,,,,,,,,,,,,,,,,,,,,,,,,,,,,,,,,,,,,,,,,,,,,,,,,,,
,,672135003f5e272c889620ea,2026-03-17_10h31.50.484,kallum_motion_pilot_GIST_update_2,2026.1.1,Win32,60.60606061,672135003f5e272c889620ea,69b92ab4aef6dee357cd729a,69b92b4ba4012f4b20c4a791,0.1434,0.1434,0,147,147,116,1,sevenfive,,,,,,,,,,,,,,,,,,,,,,,,,,,,,,,,,,,,,,,,,,,,,,,,,,,,,,,,,,,,,,,,,,,,,,,,,,,,,,,,,,,,,,,,,,,,,,,,,,,,,,,,,,,,,,,,,,,,,,,,,,,,,,,,,,,,,,,,,
,,672135003f5e272c889620ea,2026-03-17_10h31.50.484,kallum_motion_pilot_GIST_update_2,2026.1.1,Win32,60.60606061,672135003f5e272c889620ea,69b92ab4aef6dee357cd729a,69b92b4ba4012f4b20c4a791,0.1437,0.1437,0,148,148,138,1,sixfive,,,,,,,,,,,,,,,,,,,,,,,,,,,,,,,,,,,,,,,,,,,,,,,,,,,,,,,,,,,,,,,,,,,,,,,,,,,,,,,,,,,,,,,,,,,,,,,,,,,,,,,,,,,,,,,,,,,,,,,,,,,,,,,,,,,,,,,,,
,,672135003f5e272c889620ea,2026-03-17_10h31.50.484,kallum_motion_pilot_GIST_update_2,2026.1.1,Win32,60.60606061,672135003f5e272c889620ea,69b92ab4aef6dee357cd729a,69b92b4ba4012f4b20c4a791,0.1441,0.1442,0,149,149,79,1,eightseven,,,,,,,,,,,,,,,,,,,,,,,,,,,,,,,,,,,,,,,,,,,,,,,,,,,,,,,,,,,,,,,,,,,,,,,,,,,,,,,,,,,,,,,,,,,,,,,,,,,,,,,,,,,,,,,,,,,,,,,,,,,,,,,,,,,,,,,,,
,,672135003f5e272c889620ea,2026-03-17_10h31.50.484,kallum_motion_pilot_GIST_update_2,2026.1.1,Win32,60.60606061,672135003f5e272c889620ea,69b92ab4aef6dee357cd729a,69b92b4ba4012f4b20c4a791,0.1444,0.1444,0,150,150,50,1,twoone,,,,,,,,,,,,,,,,,,,,,,,,,,,,,,,,,,,,,,,,,,,,,,,,,,,,,,,,,,,,,,,,,,,,,,,,,,,,,,,,,,,,,,,,,,,,,,,,,,,,,,,,,,,,,,,,,,,,,,,,,,,,,,,,,,,,,,,,,
,,672135003f5e272c889620ea,2026-03-17_10h31.50.484,kallum_motion_pilot_GIST_update_2,2026.1.1,Win32,60.60606061,672135003f5e272c889620ea,69b92ab4aef6dee357cd729a,69b92b4ba4012f4b20c4a791,0.145,0.145,0,151,151,37,1,threefour,,,,,,,,,,,,,,,,,,,,,,,,,,,,,,,,,,,,,,,,,,,,,,,,,,,,,,,,,,,,,,,,,,,,,,,,,,,,,,,,,,,,,,,,,,,,,,,,,,,,,,,,,,,,,,,,,,,,,,,,,,,,,,,,,,,,,,,,,
,,672135003f5e272c889620ea,2026-03-17_10h31.50.484,kallum_motion_pilot_GIST_update_2,2026.1.1,Win32,60.60606061,672135003f5e272c889620ea,69b92ab4aef6dee357cd729a,69b92b4ba4012f4b20c4a791,0.1454,0.1454,0,152,152,148,1,sevenfive,,,,,,,,,,,,,,,,,,,,,,,,,,,,,,,,,,,,,,,,,,,,,,,,,,,,,,,,,,,,,,,,,,,,,,,,,,,,,,,,,,,,,,,,,,,,,,,,,,,,,,,,,,,,,,,,,,,,,,,,,,,,,,,,,,,,,,,,,
,,672135003f5e272c889620ea,2026-03-17_10h31.50.484,kallum_motion_pilot_GIST_update_2,2026.1.1,Win32,60.60606061,672135003f5e272c889620ea,69b92ab4aef6dee357cd729a,69b92b4ba4012f4b20c4a791,0.1461,0.1461,0,153,153,43,1,twofour,,,,,,,,,,,,,,,,,,,,,,,,,,,,,,,,,,,,,,,,,,,,,,,,,,,,,,,,,,,,,,,,,,,,,,,,,,,,,,,,,,,,,,,,,,,,,,,,,,,,,,,,,,,,,,,,,,,,,,,,,,,,,,,,,,,,,,,,,
,,672135003f5e272c889620ea,2026-03-17_10h31.50.484,kallum_motion_pilot_GIST_update_2,2026.1.1,Win32,60.60606061,672135003f5e272c889620ea,69b92ab4aef6dee357cd729a,69b92b4ba4012f4b20c4a791,0.1464,0.1464,0,154,154,27,1,twofour,,,,,,,,,,,,,,,,,,,,,,,,,,,,,,,,,,,,,,,,,,,,,,,,,,,,,,,,,,,,,,,,,,,,,,,,,,,,,,,,,,,,,,,,,,,,,,,,,,,,,,,,,,,,,,,,,,,,,,,,,,,,,,,,,,,,,,,,,
,,672135003f5e272c889620ea,2026-03-17_10h31.50.484,kallum_motion_pilot_GIST_update_2,2026.1.1,Win32,60.60606061,672135003f5e272c889620ea,69b92ab4aef6dee357cd729a,69b92b4ba4012f4b20c4a791,0.147,0.147,0,155,155,151,1,eightseven,,,,,,,,,,,,,,,,,,,,,,,,,,,,,,,,,,,,,,,,,,,,,,,,,,,,,,,,,,,,,,,,,,,,,,,,,,,,,,,,,,,,,,,,,,,,,,,,,,,,,,,,,,,,,,,,,,,,,,,,,,,,,,,,,,,,,,,,,
,,672135003f5e272c889620ea,2026-03-17_10h31.50.484,kallum_motion_pilot_GIST_update_2,2026.1.1,Win32,60.60606061,672135003f5e272c889620ea,69b92ab4aef6dee357cd729a,69b92b4ba4012f4b20c4a791,0.1473,0.1473,0,156,156,78,1,fourtwo,,,,,,,,,,,,,,,,,,,,,,,,,,,,,,,,,,,,,,,,,,,,,,,,,,,,,,,,,,,,,,,,,,,,,,,,,,,,,,,,,,,,,,,,,,,,,,,,,,,,,,,,,,,,,,,,,,,,,,,,,,,,,,,,,,,,,,,,,
,,672135003f5e272c889620ea,2026-03-17_10h31.50.484,kallum_motion_pilot_GIST_update_2,2026.1.1,Win32,60.60606061,672135003f5e272c889620ea,69b92ab4aef6dee357cd729a,69b92b4ba4012f4b20c4a791,0.1479,0.1479,0,157,157,41,1,onethree,,,,,,,,,,,,,,,,,,,,,,,,,,,,,,,,,,,,,,,,,,,,,,,,,,,,,,,,,,,,,,,,,,,,,,,,,,,,,,,,,,,,,,,,,,,,,,,,,,,,,,,,,,,,,,,,,,,,,,,,,,,,,,,,,,,,,,,,,
,,672135003f5e272c889620ea,2026-03-17_10h31.50.484,kallum_motion_pilot_GIST_update_2,2026.1.1,Win32,60.60606061,672135003f5e272c889620ea,69b92ab4aef6dee357cd729a,69b92b4ba4012f4b20c4a791,0.1482,0.1482,0,158,158,111,1,eightseven,,,,,,,,,,,,,,,,,,,,,,,,,,,,,,,,,,,,,,,,,,,,,,,,,,,,,,,,,,,,,,,,,,,,,,,,,,,,,,,,,,,,,,,,,,,,,,,,,,,,,,,,,,,,,,,,,,,,,,,,,,,,,,,,,,,,,,,,,
,,672135003f5e272c889620ea,2026-03-17_10h31.50.484,kallum_motion_pilot_GIST_update_2,2026.1.1,Win32,60.60606061,672135003f5e272c889620ea,69b92ab4aef6dee357cd729a,69b92b4ba4012f4b20c4a791,0.1486,0.1487,0,159,159,48,1,onetwo,,,,,,,,,,,,,,,,,,,,,,,,,,,,,,,,,,,,,,,,,,,,,,,,,,,,,,,,,,,,,,,,,,,,,,,,,,,,,,,,,,,,,,,,,,,,,,,,,,,,,,,,,,,,,,,,,,,,,,,,,,,,,,,,,,,,,,,,,
,,672135003f5e272c889620ea,2026-03-17_10h31.50.484,kallum_motion_pilot_GIST_update_2,2026.1.1,Win32,60.60606061,672135003f5e272c889620ea,69b92ab4aef6dee357cd729a,69b92b4ba4012f4b20c4a791,0.1489,0.1489,0,160,160,107,1,sixeight,,,,,,,,,,,,,,,,,,,,,,,,,,,,,,,,,,,,,,,,,,,,,,,,,,,,,,,,,,,,,,,,,,,,,,,,,,,,,,,,,,,,,,,,,,,,,,,,,,,,,,,,,,,,,,,,,,,,,,,,,,,,,,,,,,,,,,,,,
,,672135003f5e272c889620ea,2026-03-17_10h31.50.484,kallum_motion_pilot_GIST_update_2,2026.1.1,Win32,60.60606061,672135003f5e272c889620ea,69b92ab4aef6dee357cd729a,69b92b4ba4012f4b20c4a791,0.1493,0.1493,0,161,161,81,1,fiveseven,,,,,,,,,,,,,,,,,,,,,,,,,,,,,,,,,,,,,,,,,,,,,,,,,,,,,,,,,,,,,,,,,,,,,,,,,,,,,,,,,,,,,,,,,,,,,,,,,,,,,,,,,,,,,,,,,,,,,,,,,,,,,,,,,,,,,,,,,
,,672135003f5e272c889620ea,2026-03-17_10h31.50.484,kallum_motion_pilot_GIST_update_2,2026.1.1,Win32,60.60606061,672135003f5e272c889620ea,69b92ab4aef6dee357cd729a,69b92b4ba4012f4b20c4a791,0.1497,0.1497,1,0,162,51,1,twofour,,,,,,,,,,,,,,,,,,,,,,,,,,,,,,,,,,,,,,,,,,,,,,,,,,,,,,,,,,,,,,,,,,,,,,,,,,,,,,,,,,,,,,,,,,,,,,,,,,,,,,,,,,,,,,,,,,,,,,,,,,,,,,,,,,,,,,,,,
,,672135003f5e272c889620ea,2026-03-17_10h31.50.484,kallum_motion_pilot_GIST_update_2,2026.1.1,Win32,60.60606061,672135003f5e272c889620ea,69b92ab4aef6dee357cd729a,69b92b4ba4012f4b20c4a791,0.1501,0.1501,1,1,163,27,1,twofour,,,,,,,,,,,,,,,,,,,,,,,,,,,,,,,,,,,,,,,,,,,,,,,,,,,,,,,,,,,,,,,,,,,,,,,,,,,,,,,,,,,,,,,,,,,,,,,,,,,,,,,,,,,,,,,,,,,,,,,,,,,,,,,,,,,,,,,,,
,,672135003f5e272c889620ea,2026-03-17_10h31.50.484,kallum_motion_pilot_GIST_update_2,2026.1.1,Win32,60.60606061,672135003f5e272c889620ea,69b92ab4aef6dee357cd729a,69b92b4ba4012f4b20c4a791,0.1506,0.1506,1,2,164,156,1,sevenfive,,,,,,,,,,,,,,,,,,,,,,,,,,,,,,,,,,,,,,,,,,,,,,,,,,,,,,,,,,,,,,,,,,,,,,,,,,,,,,,,,,,,,,,,,,,,,,,,,,,,,,,,,,,,,,,,,,,,,,,,,,,,,,,,,,,,,,,,,
,,672135003f5e272c889620ea,2026-03-17_10h31.50.484,kallum_motion_pilot_GIST_update_2,2026.1.1,Win32,60.60606061,672135003f5e272c889620ea,69b92ab4aef6dee357cd729a,69b92b4ba4012f4b20c4a791,0.1509,0.1509,1,3,165,5,1,threefour,,,,,,,,,,,,,,,,,,,,,,,,,,,,,,,,,,,,,,,,,,,,,,,,,,,,,,,,,,,,,,,,,,,,,,,,,,,,,,,,,,,,,,,,,,,,,,,,,,,,,,,,,,,,,,,,,,,,,,,,,,,,,,,,,,,,,,,,,
,,672135003f5e272c889620ea,2026-03-17_10h31.50.484,kallum_motion_pilot_GIST_update_2,2026.1.1,Win32,60.60606061,672135003f5e272c889620ea,69b92ab4aef6dee357cd729a,69b92b4ba4012f4b20c4a791,0.1514,0.1514,1,4,166,54,1,fourtwo,,,,,,,,,,,,,,,,,,,,,,,,,,,,,,,,,,,,,,,,,,,,,,,,,,,,,,,,,,,,,,,,,,,,,,,,,,,,,,,,,,,,,,,,,,,,,,,,,,,,,,,,,,,,,,,,,,,,,,,,,,,,,,,,,,,,,,,,,
,,672135003f5e272c889620ea,2026-03-17_10h31.50.484,kallum_motion_pilot_GIST_update_2,2026.1.1,Win32,60.60606061,672135003f5e272c889620ea,69b92ab4aef6dee357cd729a,69b92b4ba4012f4b20c4a791,0.1519,0.1519,1,5,167,45,1,threefour,,,,,,,,,,,,,,,,,,,,,,,,,,,,,,,,,,,,,,,,,,,,,,,,,,,,,,,,,,,,,,,,,,,,,,,,,,,,,,,,,,,,,,,,,,,,,,,,,,,,,,,,,,,,,,,,,,,,,,,,,,,,,,,,,,,,,,,,,
,,672135003f5e272c889620ea,2026-03-17_10h31.50.484,kallum_motion_pilot_GIST_update_2,2026.1.1,Win32,60.60606061,672135003f5e272c889620ea,69b92ab4aef6dee357cd729a,69b92b4ba4012f4b20c4a791,0.1523,0.1523,1,6,168,126,1,eightsix,,,,,,,,,,,,,,,,,,,,,,,,,,,,,,,,,,,,,,,,,,,,,,,,,,,,,,,,,,,,,,,,,,,,,,,,,,,,,,,,,,,,,,,,,,,,,,,,,,,,,,,,,,,,,,,,,,,,,,,,,,,,,,,,,,,,,,,,,
,,672135003f5e272c889620ea,2026-03-17_10h31.50.484,kallum_motion_pilot_GIST_update_2,2026.1.1,Win32,60.60606061,672135003f5e272c889620ea,69b92ab4aef6dee357cd729a,69b92b4ba4012f4b20c4a791,0.1527,0.1527,1,7,169,24,1,onetwo,,,,,,,,,,,,,,,,,,,,,,,,,,,,,,,,,,,,,,,,,,,,,,,,,,,,,,,,,,,,,,,,,,,,,,,,,,,,,,,,,,,,,,,,,,,,,,,,,,,,,,,,,,,,,,,,,,,,,,,,,,,,,,,,,,,,,,,,,
,,672135003f5e272c889620ea,2026-03-17_10h31.50.484,kallum_motion_pilot_GIST_update_2,2026.1.1,Win32,60.60606061,672135003f5e272c889620ea,69b92ab4aef6dee357cd729a,69b92b4ba4012f4b20c4a791,0.1531,0.1531,1,8,170,148,1,sevenfive,,,,,,,,,,,,,,,,,,,,,,,,,,,,,,,,,,,,,,,,,,,,,,,,,,,,,,,,,,,,,,,,,,,,,,,,,,,,,,,,,,,,,,,,,,,,,,,,,,,,,,,,,,,,,,,,,,,,,,,,,,,,,,,,,,,,,,,,,
,,672135003f5e272c889620ea,2026-03-17_10h31.50.484,kallum_motion_pilot_GIST_update_2,2026.1.1,Win32,60.60606061,672135003f5e272c889620ea,69b92ab4aef6dee357cd729a,69b92b4ba4012f4b20c4a791,0.1535,0.1535,1,9,171,94,1,eightsix,,,,,,,,,,,,,,,,,,,,,,,,,,,,,,,,,,,,,,,,,,,,,,,,,,,,,,,,,,,,,,,,,,,,,,,,,,,,,,,,,,,,,,,,,,,,,,,,,,,,,,,,,,,,,,,,,,,,,,,,,,,,,,,,,,,,,,,,,
,,672135003f5e272c889620ea,2026-03-17_10h31.50.484,kallum_motion_pilot_GIST_update_2,2026.1.1,Win32,60.60606061,672135003f5e272c889620ea,69b92ab4aef6dee357cd729a,69b92b4ba4012f4b20c4a791,0.1539,0.1539,1,10,172,114,1,sixfive,,,,,,,,,,,,,,,,,,,,,,,,,,,,,,,,,,,,,,,,,,,,,,,,,,,,,,,,,,,,,,,,,,,,,,,,,,,,,,,,,,,,,,,,,,,,,,,,,,,,,,,,,,,,,,,,,,,,,,,,,,,,,,,,,,,,,,,,,
,,672135003f5e272c889620ea,2026-03-17_10h31.50.484,kallum_motion_pilot_GIST_update_2,2026.1.1,Win32,60.60606061,672135003f5e272c889620ea,69b92ab4aef6dee357cd729a,69b92b4ba4012f4b20c4a791,0.1543,0.1543,1,11,173,69,1,threefour,,,,,,,,,,,,,,,,,,,,,,,,,,,,,,,,,,,,,,,,,,,,,,,,,,,,,,,,,,,,,,,,,,,,,,,,,,,,,,,,,,,,,,,,,,,,,,,,,,,,,,,,,,,,,,,,,,,,,,,,,,,,,,,,,,,,,,,,,
,,672135003f5e272c889620ea,2026-03-17_10h31.50.484,kallum_motion_pilot_GIST_update_2,2026.1.1,Win32,60.60606061,672135003f5e272c889620ea,69b92ab4aef6dee357cd729a,69b92b4ba4012f4b20c4a791,0.1546,0.1547,1,12,174,71,1,fourthree,,,,,,,,,,,,,,,,,,,,,,,,,,,,,,,,,,,,,,,,,,,,,,,,,,,,,,,,,,,,,,,,,,,,,,,,,,,,,,,,,,,,,,,,,,,,,,,,,,,,,,,,,,,,,,,,,,,,,,,,,,,,,,,,,,,,,,,,,
,,672135003f5e272c889620ea,2026-03-17_10h31.50.484,kallum_motion_pilot_GIST_update_2,2026.1.1,Win32,60.60606061,672135003f5e272c889620ea,69b92ab4aef6dee357cd729a,69b92b4ba4012f4b20c4a791,0.1551,0.1551,1,13,175,84,1,sevenfive,,,,,,,,,,,,,,,,,,,,,,,,,,,,,,,,,,,,,,,,,,,,,,,,,,,,,,,,,,,,,,,,,,,,,,,,,,,,,,,,,,,,,,,,,,,,,,,,,,,,,,,,,,,,,,,,,,,,,,,,,,,,,,,,,,,,,,,,,
,,672135003f5e272c889620ea,2026-03-17_10h31.50.484,kallum_motion_pilot_GIST_update_2,2026.1.1,Win32,60.60606061,672135003f5e272c889620ea,69b92ab4aef6dee357cd729a,69b92b4ba4012f4b20c4a791,0.1554,0.1554,1,14,176,18,1,twoone,,,,,,,,,,,,,,,,,,,,,,,,,,,,,,,,,,,,,,,,,,,,,,,,,,,,,,,,,,,,,,,,,,,,,,,,,,,,,,,,,,,,,,,,,,,,,,,,,,,,,,,,,,,,,,,,,,,,,,,,,,,,,,,,,,,,,,,,,
,,672135003f5e272c889620ea,2026-03-17_10h31.50.484,kallum_motion_pilot_GIST_update_2,2026.1.1,Win32,60.60606061,672135003f5e272c889620ea,69b92ab4aef6dee357cd729a,69b92b4ba4012f4b20c4a791,0.1559,0.1559,1,15,177,41,1,onethree,,,,,,,,,,,,,,,,,,,,,,,,,,,,,,,,,,,,,,,,,,,,,,,,,,,,,,,,,,,,,,,,,,,,,,,,,,,,,,,,,,,,,,,,,,,,,,,,,,,,,,,,,,,,,,,,,,,,,,,,,,,,,,,,,,,,,,,,,
,,672135003f5e272c889620ea,2026-03-17_10h31.50.484,kallum_motion_pilot_GIST_update_2,2026.1.1,Win32,60.60606061,672135003f5e272c889620ea,69b92ab4aef6dee357cd729a,69b92b4ba4012f4b20c4a791,0.1562,0.1562,1,16,178,147,1,sixeight,,,,,,,,,,,,,,,,,,,,,,,,,,,,,,,,,,,,,,,,,,,,,,,,,,,,,,,,,,,,,,,,,,,,,,,,,,,,,,,,,,,,,,,,,,,,,,,,,,,,,,,,,,,,,,,,,,,,,,,,,,,,,,,,,,,,,,,,,
,,672135003f5e272c889620ea,2026-03-17_10h31.50.484,kallum_motion_pilot_GIST_update_2,2026.1.1,Win32,60.60606061,672135003f5e272c889620ea,69b92ab4aef6dee357cd729a,69b92b4ba4012f4b20c4a791,0.1567,0.1567,1,17,179,26,1,twoone,,,,,,,,,,,,,,,,,,,,,,,,,,,,,,,,,,,,,,,,,,,,,,,,,,,,,,,,,,,,,,,,,,,,,,,,,,,,,,,,,,,,,,,,,,,,,,,,,,,,,,,,,,,,,,,,,,,,,,,,,,,,,,,,,,,,,,,,,
,,672135003f5e272c889620ea,2026-03-17_10h31.50.484,kallum_motion_pilot_GIST_update_2,2026.1.1,Win32,60.60606061,672135003f5e272c889620ea,69b92ab4aef6dee357cd729a,69b92b4ba4012f4b20c4a791,0.157,0.1571,1,18,180,4,1,threeone,,,,,,,,,,,,,,,,,,,,,,,,,,,,,,,,,,,,,,,,,,,,,,,,,,,,,,,,,,,,,,,,,,,,,,,,,,,,,,,,,,,,,,,,,,,,,,,,,,,,,,,,,,,,,,,,,,,,,,,,,,,,,,,,,,,,,,,,,
,,672135003f5e272c889620ea,2026-03-17_10h31.50.484,kallum_motion_pilot_GIST_update_2,2026.1.1,Win32,60.60606061,672135003f5e272c889620ea,69b92ab4aef6dee357cd729a,69b92b4ba4012f4b20c4a791,0.1575,0.1575,1,19,181,47,1,fourthree,,,,,,,,,,,,,,,,,,,,,,,,,,,,,,,,,,,,,,,,,,,,,,,,,,,,,,,,,,,,,,,,,,,,,,,,,,,,,,,,,,,,,,,,,,,,,,,,,,,,,,,,,,,,,,,,,,,,,,,,,,,,,,,,,,,,,,,,,
,,672135003f5e272c889620ea,2026-03-17_10h31.50.484,kallum_motion_pilot_GIST_update_2,2026.1.1,Win32,60.60606061,672135003f5e272c889620ea,69b92ab4aef6dee357cd729a,69b92b4ba4012f4b20c4a791,0.1578,0.1579,1,20,182,91,1,sixeight,,,,,,,,,,,,,,,,,,,,,,,,,,,,,,,,,,,,,,,,,,,,,,,,,,,,,,,,,,,,,,,,,,,,,,,,,,,,,,,,,,,,,,,,,,,,,,,,,,,,,,,,,,,,,,,,,,,,,,,,,,,,,,,,,,,,,,,,,
,,672135003f5e272c889620ea,2026-03-17_10h31.50.484,kallum_motion_pilot_GIST_update_2,2026.1.1,Win32,60.60606061,672135003f5e272c889620ea,69b92ab4aef6dee357cd729a,69b92b4ba4012f4b20c4a791,0.1582,0.1582,1,21,183,0,1,onetwo,,,,,,,,,,,,,,,,,,,,,,,,,,,,,,,,,,,,,,,,,,,,,,,,,,,,,,,,,,,,,,,,,,,,,,,,,,,,,,,,,,,,,,,,,,,,,,,,,,,,,,,,,,,,,,,,,,,,,,,,,,,,,,,,,,,,,,,,,
,,672135003f5e272c889620ea,2026-03-17_10h31.50.484,kallum_motion_pilot_GIST_update_2,2026.1.1,Win32,60.60606061,672135003f5e272c889620ea,69b92ab4aef6dee357cd729a,69b92b4ba4012f4b20c4a791,0.1587,0.1587,1,22,184,161,1,fiveseven,,,,,,,,,,,,,,,,,,,,,,,,,,,,,,,,,,,,,,,,,,,,,,,,,,,,,,,,,,,,,,,,,,,,,,,,,,,,,,,,,,,,,,,,,,,,,,,,,,,,,,,,,,,,,,,,,,,,,,,,,,,,,,,,,,,,,,,,,
,,672135003f5e272c889620ea,2026-03-17_10h31.50.484,kallum_motion_pilot_GIST_update_2,2026.1.1,Win32,60.60606061,672135003f5e272c889620ea,69b92ab4aef6dee357cd729a,69b92b4ba4012f4b20c4a791,0.1591,0.1591,1,23,185,30,1,fourtwo,,,,,,,,,,,,,,,,,,,,,,,,,,,,,,,,,,,,,,,,,,,,,,,,,,,,,,,,,,,,,,,,,,,,,,,,,,,,,,,,,,,,,,,,,,,,,,,,,,,,,,,,,,,,,,,,,,,,,,,,,,,,,,,,,,,,,,,,,
,,672135003f5e272c889620ea,2026-03-17_10h31.50.484,kallum_motion_pilot_GIST_update_2,2026.1.1,Win32,60.60606061,672135003f5e272c889620ea,69b92ab4aef6dee357cd729a,69b92b4ba4012f4b20c4a791,0.1593,0.1593,1,24,186,133,1,seveneight,,,,,,,,,,,,,,,,,,,,,,,,,,,,,,,,,,,,,,,,,,,,,,,,,,,,,,,,,,,,,,,,,,,,,,,,,,,,,,,,,,,,,,,,,,,,,,,,,,,,,,,,,,,,,,,,,,,,,,,,,,,,,,,,,,,,,,,,,
,,672135003f5e272c889620ea,2026-03-17_10h31.50.484,kallum_motion_pilot_GIST_update_2,2026.1.1,Win32,60.60606061,672135003f5e272c889620ea,69b92ab4aef6dee357cd729a,69b92b4ba4012f4b20c4a791,0.1598,0.1598,1,25,187,134,1,eightsix,,,,,,,,,,,,,,,,,,,,,,,,,,,,,,,,,,,,,,,,,,,,,,,,,,,,,,,,,,,,,,,,,,,,,,,,,,,,,,,,,,,,,,,,,,,,,,,,,,,,,,,,,,,,,,,,,,,,,,,,,,,,,,,,,,,,,,,,,
,,672135003f5e272c889620ea,2026-03-17_10h31.50.484,kallum_motion_pilot_GIST_update_2,2026.1.1,Win32,60.60606061,672135003f5e272c889620ea,69b92ab4aef6dee357cd729a,69b92b4ba4012f4b20c4a791,0.1602,0.1602,1,26,188,127,1,eightseven,,,,,,,,,,,,,,,,,,,,,,,,,,,,,,,,,,,,,,,,,,,,,,,,,,,,,,,,,,,,,,,,,,,,,,,,,,,,,,,,,,,,,,,,,,,,,,,,,,,,,,,,,,,,,,,,,,,,,,,,,,,,,,,,,,,,,,,,,
,,672135003f5e272c889620ea,2026-03-17_10h31.50.484,kallum_motion_pilot_GIST_update_2,2026.1.1,Win32,60.60606061,672135003f5e272c889620ea,69b92ab4aef6dee357cd729a,69b92b4ba4012f4b20c4a791,0.1608,0.1608,1,27,189,60,1,threeone,,,,,,,,,,,,,,,,,,,,,,,,,,,,,,,,,,,,,,,,,,,,,,,,,,,,,,,,,,,,,,,,,,,,,,,,,,,,,,,,,,,,,,,,,,,,,,,,,,,,,,,,,,,,,,,,,,,,,,,,,,,,,,,,,,,,,,,,,
,,672135003f5e272c889620ea,2026-03-17_10h31.50.484,kallum_motion_pilot_GIST_update_2,2026.1.1,Win32,60.60606061,672135003f5e272c889620ea,69b92ab4aef6dee357cd729a,69b92b4ba4012f4b20c4a791,0.1612,0.1613,1,28,190,3,1,twofour,,,,,,,,,,,,,,,,,,,,,,,,,,,,,,,,,,,,,,,,,,,,,,,,,,,,,,,,,,,,,,,,,,,,,,,,,,,,,,,,,,,,,,,,,,,,,,,,,,,,,,,,,,,,,,,,,,,,,,,,,,,,,,,,,,,,,,,,,
,,672135003f5e272c889620ea,2026-03-17_10h31.50.484,kallum_motion_pilot_GIST_update_2,2026.1.1,Win32,60.60606061,672135003f5e272c889620ea,69b92ab4aef6dee357cd729a,69b92b4ba4012f4b20c4a791,0.1617,0.1618,1,29,191,117,1,seveneight,,,,,,,,,,,,,,,,,,,,,,,,,,,,,,,,,,,,,,,,,,,,,,,,,,,,,,,,,,,,,,,,,,,,,,,,,,,,,,,,,,,,,,,,,,,,,,,,,,,,,,,,,,,,,,,,,,,,,,,,,,,,,,,,,,,,,,,,,
,,672135003f5e272c889620ea,2026-03-17_10h31.50.484,kallum_motion_pilot_GIST_update_2,2026.1.1,Win32,60.60606061,672135003f5e272c889620ea,69b92ab4aef6dee357cd729a,69b92b4ba4012f4b20c4a791,0.1621,0.1621,1,30,192,130,1,sixfive,,,,,,,,,,,,,,,,,,,,,,,,,,,,,,,,,,,,,,,,,,,,,,,,,,,,,,,,,,,,,,,,,,,,,,,,,,,,,,,,,,,,,,,,,,,,,,,,,,,,,,,,,,,,,,,,,,,,,,,,,,,,,,,,,,,,,,,,,
,,672135003f5e272c889620ea,2026-03-17_10h31.50.484,kallum_motion_pilot_GIST_update_2,2026.1.1,Win32,60.60606061,672135003f5e272c889620ea,69b92ab4aef6dee357cd729a,69b92b4ba4012f4b20c4a791,0.1624,0.1624,1,31,193,78,1,fourtwo,,,,,,,,,,,,,,,,,,,,,,,,,,,,,,,,,,,,,,,,,,,,,,,,,,,,,,,,,,,,,,,,,,,,,,,,,,,,,,,,,,,,,,,,,,,,,,,,,,,,,,,,,,,,,,,,,,,,,,,,,,,,,,,,,,,,,,,,,
,,672135003f5e272c889620ea,2026-03-17_10h31.50.484,kallum_motion_pilot_GIST_update_2,2026.1.1,Win32,60.60606061,672135003f5e272c889620ea,69b92ab4aef6dee357cd729a,69b92b4ba4012f4b20c4a791,0.1628,0.1629,1,32,194,102,1,eightsix,,,,,,,,,,,,,,,,,,,,,,,,,,,,,,,,,,,,,,,,,,,,,,,,,,,,,,,,,,,,,,,,,,,,,,,,,,,,,,,,,,,,,,,,,,,,,,,,,,,,,,,,,,,,,,,,,,,,,,,,,,,,,,,,,,,,,,,,,
,,672135003f5e272c889620ea,2026-03-17_10h31.50.484,kallum_motion_pilot_GIST_update_2,2026.1.1,Win32,60.60606061,672135003f5e272c889620ea,69b92ab4aef6dee357cd729a,69b92b4ba4012f4b20c4a791,0.1632,0.1632,1,33,195,68,1,threeone,,,,,,,,,,,,,,,,,,,,,,,,,,,,,,,,,,,,,,,,,,,,,,,,,,,,,,,,,,,,,,,,,,,,,,,,,,,,,,,,,,,,,,,,,,,,,,,,,,,,,,,,,,,,,,,,,,,,,,,,,,,,,,,,,,,,,,,,,
,,672135003f5e272c889620ea,2026-03-17_10h31.50.484,kallum_motion_pilot_GIST_update_2,2026.1.1,Win32,60.60606061,672135003f5e272c889620ea,69b92ab4aef6dee357cd729a,69b92b4ba4012f4b20c4a791,0.1638,0.1638,1,34,196,89,1,fiveseven,,,,,,,,,,,,,,,,,,,,,,,,,,,,,,,,,,,,,,,,,,,,,,,,,,,,,,,,,,,,,,,,,,,,,,,,,,,,,,,,,,,,,,,,,,,,,,,,,,,,,,,,,,,,,,,,,,,,,,,,,,,,,,,,,,,,,,,,,
,,672135003f5e272c889620ea,2026-03-17_10h31.50.484,kallum_motion_pilot_GIST_update_2,2026.1.1,Win32,60.60606061,672135003f5e272c889620ea,69b92ab4aef6dee357cd729a,69b92b4ba4012f4b20c4a791,0.1641,0.1641,1,35,197,35,1,twofour,,,,,,,,,,,,,,,,,,,,,,,,,,,,,,,,,,,,,,,,,,,,,,,,,,,,,,,,,,,,,,,,,,,,,,,,,,,,,,,,,,,,,,,,,,,,,,,,,,,,,,,,,,,,,,,,,,,,,,,,,,,,,,,,,,,,,,,,,
,,672135003f5e272c889620ea,2026-03-17_10h31.50.484,kallum_motion_pilot_GIST_update_2,2026.1.1,Win32,60.60606061,672135003f5e272c889620ea,69b92ab4aef6dee357cd729a,69b92b4ba4012f4b20c4a791,0.1644,0.1645,1,36,198,113,1,fiveseven,,,,,,,,,,,,,,,,,,,,,,,,,,,,,,,,,,,,,,,,,,,,,,,,,,,,,,,,,,,,,,,,,,,,,,,,,,,,,,,,,,,,,,,,,,,,,,,,,,,,,,,,,,,,,,,,,,,,,,,,,,,,,,,,,,,,,,,,,
,,672135003f5e272c889620ea,2026-03-17_10h31.50.484,kallum_motion_pilot_GIST_update_2,2026.1.1,Win32,60.60606061,672135003f5e272c889620ea,69b92ab4aef6dee357cd729a,69b92b4ba4012f4b20c4a791,0.1648,0.1648,1,37,199,154,1,sixfive,,,,,,,,,,,,,,,,,,,,,,,,,,,,,,,,,,,,,,,,,,,,,,,,,,,,,,,,,,,,,,,,,,,,,,,,,,,,,,,,,,,,,,,,,,,,,,,,,,,,,,,,,,,,,,,,,,,,,,,,,,,,,,,,,,,,,,,,,
,,672135003f5e272c889620ea,2026-03-17_10h31.50.484,kallum_motion_pilot_GIST_update_2,2026.1.1,Win32,60.60606061,672135003f5e272c889620ea,69b92ab4aef6dee357cd729a,69b92b4ba4012f4b20c4a791,0.1653,0.1653,1,38,200,33,1,onethree,,,,,,,,,,,,,,,,,,,,,,,,,,,,,,,,,,,,,,,,,,,,,,,,,,,,,,,,,,,,,,,,,,,,,,,,,,,,,,,,,,,,,,,,,,,,,,,,,,,,,,,,,,,,,,,,,,,,,,,,,,,,,,,,,,,,,,,,,
,,672135003f5e272c889620ea,2026-03-17_10h31.50.484,kallum_motion_pilot_GIST_update_2,2026.1.1,Win32,60.60606061,672135003f5e272c889620ea,69b92ab4aef6dee357cd729a,69b92b4ba4012f4b20c4a791,0.1658,0.1658,1,39,201,159,1,eightseven,,,,,,,,,,,,,,,,,,,,,,,,,,,,,,,,,,,,,,,,,,,,,,,,,,,,,,,,,,,,,,,,,,,,,,,,,,,,,,,,,,,,,,,,,,,,,,,,,,,,,,,,,,,,,,,,,,,,,,,,,,,,,,,,,,,,,,,,,
,,672135003f5e272c889620ea,2026-03-17_10h31.50.484,kallum_motion_pilot_GIST_update_2,2026.1.1,Win32,60.60606061,672135003f5e272c889620ea,69b92ab4aef6dee357cd729a,69b92b4ba4012f4b20c4a791,0.1662,0.1662,1,40,202,87,1,eightseven,,,,,,,,,,,,,,,,,,,,,,,,,,,,,,,,,,,,,,,,,,,,,,,,,,,,,,,,,,,,,,,,,,,,,,,,,,,,,,,,,,,,,,,,,,,,,,,,,,,,,,,,,,,,,,,,,,,,,,,,,,,,,,,,,,,,,,,,,
,,672135003f5e272c889620ea,2026-03-17_10h31.50.484,kallum_motion_pilot_GIST_update_2,2026.1.1,Win32,60.60606061,672135003f5e272c889620ea,69b92ab4aef6dee357cd729a,69b92b4ba4012f4b20c4a791,0.1667,0.1667,1,41,203,100,1,sevenfive,,,,,,,,,,,,,,,,,,,,,,,,,,,,,,,,,,,,,,,,,,,,,,,,,,,,,,,,,,,,,,,,,,,,,,,,,,,,,,,,,,,,,,,,,,,,,,,,,,,,,,,,,,,,,,,,,,,,,,,,,,,,,,,,,,,,,,,,,
,,672135003f5e272c889620ea,2026-03-17_10h31.50.484,kallum_motion_pilot_GIST_update_2,2026.1.1,Win32,60.60606061,672135003f5e272c889620ea,69b92ab4aef6dee357cd729a,69b92b4ba4012f4b20c4a791,0.1672,0.1672,1,42,204,63,1,fourthree,,,,,,,,,,,,,,,,,,,,,,,,,,,,,,,,,,,,,,,,,,,,,,,,,,,,,,,,,,,,,,,,,,,,,,,,,,,,,,,,,,,,,,,,,,,,,,,,,,,,,,,,,,,,,,,,,,,,,,,,,,,,,,,,,,,,,,,,,
,,672135003f5e272c889620ea,2026-03-17_10h31.50.484,kallum_motion_pilot_GIST_update_2,2026.1.1,Win32,60.60606061,672135003f5e272c889620ea,69b92ab4aef6dee357cd729a,69b92b4ba4012f4b20c4a791,0.1677,0.1677,1,43,205,124,1,sevenfive,,,,,,,,,,,,,,,,,,,,,,,,,,,,,,,,,,,,,,,,,,,,,,,,,,,,,,,,,,,,,,,,,,,,,,,,,,,,,,,,,,,,,,,,,,,,,,,,,,,,,,,,,,,,,,,,,,,,,,,,,,,,,,,,,,,,,,,,,
,,672135003f5e272c889620ea,2026-03-17_10h31.50.484,kallum_motion_pilot_GIST_update_2,2026.1.1,Win32,60.60606061,672135003f5e272c889620ea,69b92ab4aef6dee357cd729a,69b92b4ba4012f4b20c4a791,0.1679,0.168,1,44,206,115,1,sixeight,,,,,,,,,,,,,,,,,,,,,,,,,,,,,,,,,,,,,,,,,,,,,,,,,,,,,,,,,,,,,,,,,,,,,,,,,,,,,,,,,,,,,,,,,,,,,,,,,,,,,,,,,,,,,,,,,,,,,,,,,,,,,,,,,,,,,,,,,
,,672135003f5e272c889620ea,2026-03-17_10h31.50.484,kallum_motion_pilot_GIST_update_2,2026.1.1,Win32,60.60606061,672135003f5e272c889620ea,69b92ab4aef6dee357cd729a,69b92b4ba4012f4b20c4a791,0.1686,0.1686,1,45,207,6,1,fourtwo,,,,,,,,,,,,,,,,,,,,,,,,,,,,,,,,,,,,,,,,,,,,,,,,,,,,,,,,,,,,,,,,,,,,,,,,,,,,,,,,,,,,,,,,,,,,,,,,,,,,,,,,,,,,,,,,,,,,,,,,,,,,,,,,,,,,,,,,,
,,672135003f5e272c889620ea,2026-03-17_10h31.50.484,kallum_motion_pilot_GIST_update_2,2026.1.1,Win32,60.60606061,672135003f5e272c889620ea,69b92ab4aef6dee357cd729a,69b92b4ba4012f4b20c4a791,0.1692,0.1692,1,46,208,1,1,onethree,,,,,,,,,,,,,,,,,,,,,,,,,,,,,,,,,,,,,,,,,,,,,,,,,,,,,,,,,,,,,,,,,,,,,,,,,,,,,,,,,,,,,,,,,,,,,,,,,,,,,,,,,,,,,,,,,,,,,,,,,,,,,,,,,,,,,,,,,
,,672135003f5e272c889620ea,2026-03-17_10h31.50.484,kallum_motion_pilot_GIST_update_2,2026.1.1,Win32,60.60606061,672135003f5e272c889620ea,69b92ab4aef6dee357cd729a,69b92b4ba4012f4b20c4a791,0.1696,0.1696,1,47,209,72,1,onetwo,,,,,,,,,,,,,,,,,,,,,,,,,,,,,,,,,,,,,,,,,,,,,,,,,,,,,,,,,,,,,,,,,,,,,,,,,,,,,,,,,,,,,,,,,,,,,,,,,,,,,,,,,,,,,,,,,,,,,,,,,,,,,,,,,,,,,,,,,
,,672135003f5e272c889620ea,2026-03-17_10h31.50.484,kallum_motion_pilot_GIST_update_2,2026.1.1,Win32,60.60606061,672135003f5e272c889620ea,69b92ab4aef6dee357cd729a,69b92b4ba4012f4b20c4a791,0.1701,0.1702,1,48,210,2,1,twoone,,,,,,,,,,,,,,,,,,,,,,,,,,,,,,,,,,,,,,,,,,,,,,,,,,,,,,,,,,,,,,,,,,,,,,,,,,,,,,,,,,,,,,,,,,,,,,,,,,,,,,,,,,,,,,,,,,,,,,,,,,,,,,,,,,,,,,,,,
,,672135003f5e272c889620ea,2026-03-17_10h31.50.484,kallum_motion_pilot_GIST_update_2,2026.1.1,Win32,60.60606061,672135003f5e272c889620ea,69b92ab4aef6dee357cd729a,69b92b4ba4012f4b20c4a791,0.1706,0.1706,1,49,211,88,1,fivesix,,,,,,,,,,,,,,,,,,,,,,,,,,,,,,,,,,,,,,,,,,,,,,,,,,,,,,,,,,,,,,,,,,,,,,,,,,,,,,,,,,,,,,,,,,,,,,,,,,,,,,,,,,,,,,,,,,,,,,,,,,,,,,,,,,,,,,,,,
,,672135003f5e272c889620ea,2026-03-17_10h31.50.484,kallum_motion_pilot_GIST_update_2,2026.1.1,Win32,60.60606061,672135003f5e272c889620ea,69b92ab4aef6dee357cd729a,69b92b4ba4012f4b20c4a791,0.171,0.171,1,50,212,143,1,eightseven,,,,,,,,,,,,,,,,,,,,,,,,,,,,,,,,,,,,,,,,,,,,,,,,,,,,,,,,,,,,,,,,,,,,,,,,,,,,,,,,,,,,,,,,,,,,,,,,,,,,,,,,,,,,,,,,,,,,,,,,,,,,,,,,,,,,,,,,,
,,672135003f5e272c889620ea,2026-03-17_10h31.50.484,kallum_motion_pilot_GIST_update_2,2026.1.1,Win32,60.60606061,672135003f5e272c889620ea,69b92ab4aef6dee357cd729a,69b92b4ba4012f4b20c4a791,0.1713,0.1713,1,51,213,14,1,fourtwo,,,,,,,,,,,,,,,,,,,,,,,,,,,,,,,,,,,,,,,,,,,,,,,,,,,,,,,,,,,,,,,,,,,,,,,,,,,,,,,,,,,,,,,,,,,,,,,,,,,,,,,,,,,,,,,,,,,,,,,,,,,,,,,,,,,,,,,,,
,,672135003f5e272c889620ea,2026-03-17_10h31.50.484,kallum_motion_pilot_GIST_update_2,2026.1.1,Win32,60.60606061,672135003f5e272c889620ea,69b92ab4aef6dee357cd729a,69b92b4ba4012f4b20c4a791,0.1717,0.1717,1,52,214,142,1,eightsix,,,,,,,,,,,,,,,,,,,,,,,,,,,,,,,,,,,,,,,,,,,,,,,,,,,,,,,,,,,,,,,,,,,,,,,,,,,,,,,,,,,,,,,,,,,,,,,,,,,,,,,,,,,,,,,,,,,,,,,,,,,,,,,,,,,,,,,,,
,,672135003f5e272c889620ea,2026-03-17_10h31.50.484,kallum_motion_pilot_GIST_update_2,2026.1.1,Win32,60.60606061,672135003f5e272c889620ea,69b92ab4aef6dee357cd729a,69b92b4ba4012f4b20c4a791,0.1721,0.1721,1,53,215,48,1,onetwo,,,,,,,,,,,,,,,,,,,,,,,,,,,,,,,,,,,,,,,,,,,,,,,,,,,,,,,,,,,,,,,,,,,,,,,,,,,,,,,,,,,,,,,,,,,,,,,,,,,,,,,,,,,,,,,,,,,,,,,,,,,,,,,,,,,,,,,,,
,,672135003f5e272c889620ea,2026-03-17_10h31.50.484,kallum_motion_pilot_GIST_update_2,2026.1.1,Win32,60.60606061,672135003f5e272c889620ea,69b92ab4aef6dee357cd729a,69b92b4ba4012f4b20c4a791,0.1726,0.1726,1,54,216,8,1,onetwo,,,,,,,,,,,,,,,,,,,,,,,,,,,,,,,,,,,,,,,,,,,,,,,,,,,,,,,,,,,,,,,,,,,,,,,,,,,,,,,,,,,,,,,,,,,,,,,,,,,,,,,,,,,,,,,,,,,,,,,,,,,,,,,,,,,,,,,,,
,,672135003f5e272c889620ea,2026-03-17_10h31.50.484,kallum_motion_pilot_GIST_update_2,2026.1.1,Win32,60.60606061,672135003f5e272c889620ea,69b92ab4aef6dee357cd729a,69b92b4ba4012f4b20c4a791,0.1729,0.1729,1,55,217,80,1,fivesix,,,,,,,,,,,,,,,,,,,,,,,,,,,,,,,,,,,,,,,,,,,,,,,,,,,,,,,,,,,,,,,,,,,,,,,,,,,,,,,,,,,,,,,,,,,,,,,,,,,,,,,,,,,,,,,,,,,,,,,,,,,,,,,,,,,,,,,,,
,,672135003f5e272c889620ea,2026-03-17_10h31.50.484,kallum_motion_pilot_GIST_update_2,2026.1.1,Win32,60.60606061,672135003f5e272c889620ea,69b92ab4aef6dee357cd729a,69b92b4ba4012f4b20c4a791,0.1734,0.1734,1,56,218,64,1,onetwo,,,,,,,,,,,,,,,,,,,,,,,,,,,,,,,,,,,,,,,,,,,,,,,,,,,,,,,,,,,,,,,,,,,,,,,,,,,,,,,,,,,,,,,,,,,,,,,,,,,,,,,,,,,,,,,,,,,,,,,,,,,,,,,,,,,,,,,,,
,,672135003f5e272c889620ea,2026-03-17_10h31.50.484,kallum_motion_pilot_GIST_update_2,2026.1.1,Win32,60.60606061,672135003f5e272c889620ea,69b92ab4aef6dee357cd729a,69b92b4ba4012f4b20c4a791,0.1737,0.1737,1,57,219,67,1,twofour,,,,,,,,,,,,,,,,,,,,,,,,,,,,,,,,,,,,,,,,,,,,,,,,,,,,,,,,,,,,,,,,,,,,,,,,,,,,,,,,,,,,,,,,,,,,,,,,,,,,,,,,,,,,,,,,,,,,,,,,,,,,,,,,,,,,,,,,,
,,672135003f5e272c889620ea,2026-03-17_10h31.50.484,kallum_motion_pilot_GIST_update_2,2026.1.1,Win32,60.60606061,672135003f5e272c889620ea,69b92ab4aef6dee357cd729a,69b92b4ba4012f4b20c4a791,0.174,0.174,1,58,220,138,1,sixfive,,,,,,,,,,,,,,,,,,,,,,,,,,,,,,,,,,,,,,,,,,,,,,,,,,,,,,,,,,,,,,,,,,,,,,,,,,,,,,,,,,,,,,,,,,,,,,,,,,,,,,,,,,,,,,,,,,,,,,,,,,,,,,,,,,,,,,,,,
,,672135003f5e272c889620ea,2026-03-17_10h31.50.484,kallum_motion_pilot_GIST_update_2,2026.1.1,Win32,60.60606061,672135003f5e272c889620ea,69b92ab4aef6dee357cd729a,69b92b4ba4012f4b20c4a791,0.1745,0.1745,1,59,221,57,1,onethree,,,,,,,,,,,,,,,,,,,,,,,,,,,,,,,,,,,,,,,,,,,,,,,,,,,,,,,,,,,,,,,,,,,,,,,,,,,,,,,,,,,,,,,,,,,,,,,,,,,,,,,,,,,,,,,,,,,,,,,,,,,,,,,,,,,,,,,,,
,,672135003f5e272c889620ea,2026-03-17_10h31.50.484,kallum_motion_pilot_GIST_update_2,2026.1.1,Win32,60.60606061,672135003f5e272c889620ea,69b92ab4aef6dee357cd729a,69b92b4ba4012f4b20c4a791,0.1749,0.175,1,60,222,135,1,eightseven,,,,,,,,,,,,,,,,,,,,,,,,,,,,,,,,,,,,,,,,,,,,,,,,,,,,,,,,,,,,,,,,,,,,,,,,,,,,,,,,,,,,,,,,,,,,,,,,,,,,,,,,,,,,,,,,,,,,,,,,,,,,,,,,,,,,,,,,,
,,672135003f5e272c889620ea,2026-03-17_10h31.50.484,kallum_motion_pilot_GIST_update_2,2026.1.1,Win32,60.60606061,672135003f5e272c889620ea,69b92ab4aef6dee357cd729a,69b92b4ba4012f4b20c4a791,0.1755,0.1755,1,61,223,37,1,threefour,,,,,,,,,,,,,,,,,,,,,,,,,,,,,,,,,,,,,,,,,,,,,,,,,,,,,,,,,,,,,,,,,,,,,,,,,,,,,,,,,,,,,,,,,,,,,,,,,,,,,,,,,,,,,,,,,,,,,,,,,,,,,,,,,,,,,,,,,
,,672135003f5e272c889620ea,2026-03-17_10h31.50.484,kallum_motion_pilot_GIST_update_2,2026.1.1,Win32,60.60606061,672135003f5e272c889620ea,69b92ab4aef6dee357cd729a,69b92b4ba4012f4b20c4a791,0.1759,0.1759,1,62,224,158,1,eightsix,,,,,,,,,,,,,,,,,,,,,,,,,,,,,,,,,,,,,,,,,,,,,,,,,,,,,,,,,,,,,,,,,,,,,,,,,,,,,,,,,,,,,,,,,,,,,,,,,,,,,,,,,,,,,,,,,,,,,,,,,,,,,,,,,,,,,,,,,
,,672135003f5e272c889620ea,2026-03-17_10h31.50.484,kallum_motion_pilot_GIST_update_2,2026.1.1,Win32,60.60606061,672135003f5e272c889620ea,69b92ab4aef6dee357cd729a,69b92b4ba4012f4b20c4a791,0.1765,0.1766,1,63,225,98,1,sixfive,,,,,,,,,,,,,,,,,,,,,,,,,,,,,,,,,,,,,,,,,,,,,,,,,,,,,,,,,,,,,,,,,,,,,,,,,,,,,,,,,,,,,,,,,,,,,,,,,,,,,,,,,,,,,,,,,,,,,,,,,,,,,,,,,,,,,,,,,
,,672135003f5e272c889620ea,2026-03-17_10h31.50.484,kallum_motion_pilot_GIST_update_2,2026.1.1,Win32,60.60606061,672135003f5e272c889620ea,69b92ab4aef6dee357cd729a,69b92b4ba4012f4b20c4a791,0.1769,0.1769,1,64,226,65,1,onethree,,,,,,,,,,,,,,,,,,,,,,,,,,,,,,,,,,,,,,,,,,,,,,,,,,,,,,,,,,,,,,,,,,,,,,,,,,,,,,,,,,,,,,,,,,,,,,,,,,,,,,,,,,,,,,,,,,,,,,,,,,,,,,,,,,,,,,,,,
,,672135003f5e272c889620ea,2026-03-17_10h31.50.484,kallum_motion_pilot_GIST_update_2,2026.1.1,Win32,60.60606061,672135003f5e272c889620ea,69b92ab4aef6dee357cd729a,69b92b4ba4012f4b20c4a791,0.1775,0.1775,1,65,227,95,1,eightseven,,,,,,,,,,,,,,,,,,,,,,,,,,,,,,,,,,,,,,,,,,,,,,,,,,,,,,,,,,,,,,,,,,,,,,,,,,,,,,,,,,,,,,,,,,,,,,,,,,,,,,,,,,,,,,,,,,,,,,,,,,,,,,,,,,,,,,,,,
,,672135003f5e272c889620ea,2026-03-17_10h31.50.484,kallum_motion_pilot_GIST_update_2,2026.1.1,Win32,60.60606061,672135003f5e272c889620ea,69b92ab4aef6dee357cd729a,69b92b4ba4012f4b20c4a791,0.178,0.1781,1,66,228,116,1,sevenfive,,,,,,,,,,,,,,,,,,,,,,,,,,,,,,,,,,,,,,,,,,,,,,,,,,,,,,,,,,,,,,,,,,,,,,,,,,,,,,,,,,,,,,,,,,,,,,,,,,,,,,,,,,,,,,,,,,,,,,,,,,,,,,,,,,,,,,,,,
,,672135003f5e272c889620ea,2026-03-17_10h31.50.484,kallum_motion_pilot_GIST_update_2,2026.1.1,Win32,60.60606061,672135003f5e272c889620ea,69b92ab4aef6dee357cd729a,69b92b4ba4012f4b20c4a791,0.1787,0.1787,1,67,229,122,1,sixfive,,,,,,,,,,,,,,,,,,,,,,,,,,,,,,,,,,,,,,,,,,,,,,,,,,,,,,,,,,,,,,,,,,,,,,,,,,,,,,,,,,,,,,,,,,,,,,,,,,,,,,,,,,,,,,,,,,,,,,,,,,,,,,,,,,,,,,,,,
,,672135003f5e272c889620ea,2026-03-17_10h31.50.484,kallum_motion_pilot_GIST_update_2,2026.1.1,Win32,60.60606061,672135003f5e272c889620ea,69b92ab4aef6dee357cd729a,69b92b4ba4012f4b20c4a791,0.1791,0.1792,1,68,230,36,1,threeone,,,,,,,,,,,,,,,,,,,,,,,,,,,,,,,,,,,,,,,,,,,,,,,,,,,,,,,,,,,,,,,,,,,,,,,,,,,,,,,,,,,,,,,,,,,,,,,,,,,,,,,,,,,,,,,,,,,,,,,,,,,,,,,,,,,,,,,,,
,,672135003f5e272c889620ea,2026-03-17_10h31.50.484,kallum_motion_pilot_GIST_update_2,2026.1.1,Win32,60.60606061,672135003f5e272c889620ea,69b92ab4aef6dee357cd729a,69b92b4ba4012f4b20c4a791,0.1796,0.1797,1,69,231,107,1,sixeight,,,,,,,,,,,,,,,,,,,,,,,,,,,,,,,,,,,,,,,,,,,,,,,,,,,,,,,,,,,,,,,,,,,,,,,,,,,,,,,,,,,,,,,,,,,,,,,,,,,,,,,,,,,,,,,,,,,,,,,,,,,,,,,,,,,,,,,,,
,,672135003f5e272c889620ea,2026-03-17_10h31.50.484,kallum_motion_pilot_GIST_update_2,2026.1.1,Win32,60.60606061,672135003f5e272c889620ea,69b92ab4aef6dee357cd729a,69b92b4ba4012f4b20c4a791,0.1802,0.1802,1,70,232,74,1,twoone,,,,,,,,,,,,,,,,,,,,,,,,,,,,,,,,,,,,,,,,,,,,,,,,,,,,,,,,,,,,,,,,,,,,,,,,,,,,,,,,,,,,,,,,,,,,,,,,,,,,,,,,,,,,,,,,,,,,,,,,,,,,,,,,,,,,,,,,,
,,672135003f5e272c889620ea,2026-03-17_10h31.50.484,kallum_motion_pilot_GIST_update_2,2026.1.1,Win32,60.60606061,672135003f5e272c889620ea,69b92ab4aef6dee357cd729a,69b92b4ba4012f4b20c4a791,0.1808,0.1808,1,71,233,38,1,fourtwo,,,,,,,,,,,,,,,,,,,,,,,,,,,,,,,,,,,,,,,,,,,,,,,,,,,,,,,,,,,,,,,,,,,,,,,,,,,,,,,,,,,,,,,,,,,,,,,,,,,,,,,,,,,,,,,,,,,,,,,,,,,,,,,,,,,,,,,,,
,,672135003f5e272c889620ea,2026-03-17_10h31.50.484,kallum_motion_pilot_GIST_update_2,2026.1.1,Win32,60.60606061,672135003f5e272c889620ea,69b92ab4aef6dee357cd729a,69b92b4ba4012f4b20c4a791,0.1812,0.1812,1,72,234,44,1,threeone,,,,,,,,,,,,,,,,,,,,,,,,,,,,,,,,,,,,,,,,,,,,,,,,,,,,,,,,,,,,,,,,,,,,,,,,,,,,,,,,,,,,,,,,,,,,,,,,,,,,,,,,,,,,,,,,,,,,,,,,,,,,,,,,,,,,,,,,,
,,672135003f5e272c889620ea,2026-03-17_10h31.50.484,kallum_motion_pilot_GIST_update_2,2026.1.1,Win32,60.60606061,672135003f5e272c889620ea,69b92ab4aef6dee357cd729a,69b92b4ba4012f4b20c4a791,0.1819,0.1819,1,73,235,93,1,seveneight,,,,,,,,,,,,,,,,,,,,,,,,,,,,,,,,,,,,,,,,,,,,,,,,,,,,,,,,,,,,,,,,,,,,,,,,,,,,,,,,,,,,,,,,,,,,,,,,,,,,,,,,,,,,,,,,,,,,,,,,,,,,,,,,,,,,,,,,,
,,672135003f5e272c889620ea,2026-03-17_10h31.50.484,kallum_motion_pilot_GIST_update_2,2026.1.1,Win32,60.60606061,672135003f5e272c889620ea,69b92ab4aef6dee357cd729a,69b92b4ba4012f4b20c4a791,0.1824,0.1824,1,74,236,81,1,fiveseven,,,,,,,,,,,,,,,,,,,,,,,,,,,,,,,,,,,,,,,,,,,,,,,,,,,,,,,,,,,,,,,,,,,,,,,,,,,,,,,,,,,,,,,,,,,,,,,,,,,,,,,,,,,,,,,,,,,,,,,,,,,,,,,,,,,,,,,,,
,,672135003f5e272c889620ea,2026-03-17_10h31.50.484,kallum_motion_pilot_GIST_update_2,2026.1.1,Win32,60.60606061,672135003f5e272c889620ea,69b92ab4aef6dee357cd729a,69b92b4ba4012f4b20c4a791,0.183,0.183,1,75,237,32,1,onetwo,,,,,,,,,,,,,,,,,,,,,,,,,,,,,,,,,,,,,,,,,,,,,,,,,,,,,,,,,,,,,,,,,,,,,,,,,,,,,,,,,,,,,,,,,,,,,,,,,,,,,,,,,,,,,,,,,,,,,,,,,,,,,,,,,,,,,,,,,
,,672135003f5e272c889620ea,2026-03-17_10h31.50.484,kallum_motion_pilot_GIST_update_2,2026.1.1,Win32,60.60606061,672135003f5e272c889620ea,69b92ab4aef6dee357cd729a,69b92b4ba4012f4b20c4a791,0.1834,0.1834,1,76,238,150,1,eightsix,,,,,,,,,,,,,,,,,,,,,,,,,,,,,,,,,,,,,,,,,,,,,,,,,,,,,,,,,,,,,,,,,,,,,,,,,,,,,,,,,,,,,,,,,,,,,,,,,,,,,,,,,,,,,,,,,,,,,,,,,,,,,,,,,,,,,,,,,
,,672135003f5e272c889620ea,2026-03-17_10h31.50.484,kallum_motion_pilot_GIST_update_2,2026.1.1,Win32,60.60606061,672135003f5e272c889620ea,69b92ab4aef6dee357cd729a,69b92b4ba4012f4b20c4a791,0.1839,0.1839,1,77,239,131,1,sixeight,,,,,,,,,,,,,,,,,,,,,,,,,,,,,,,,,,,,,,,,,,,,,,,,,,,,,,,,,,,,,,,,,,,,,,,,,,,,,,,,,,,,,,,,,,,,,,,,,,,,,,,,,,,,,,,,,,,,,,,,,,,,,,,,,,,,,,,,,
,,672135003f5e272c889620ea,2026-03-17_10h31.50.484,kallum_motion_pilot_GIST_update_2,2026.1.1,Win32,60.60606061,672135003f5e272c889620ea,69b92ab4aef6dee357cd729a,69b92b4ba4012f4b20c4a791,0.1843,0.1844,1,78,240,112,1,fivesix,,,,,,,,,,,,,,,,,,,,,,,,,,,,,,,,,,,,,,,,,,,,,,,,,,,,,,,,,,,,,,,,,,,,,,,,,,,,,,,,,,,,,,,,,,,,,,,,,,,,,,,,,,,,,,,,,,,,,,,,,,,,,,,,,,,,,,,,,
,,672135003f5e272c889620ea,2026-03-17_10h31.50.484,kallum_motion_pilot_GIST_update_2,2026.1.1,Win32,60.60606061,672135003f5e272c889620ea,69b92ab4aef6dee357cd729a,69b92b4ba4012f4b20c4a791,0.1849,0.1849,1,79,241,58,1,twoone,,,,,,,,,,,,,,,,,,,,,,,,,,,,,,,,,,,,,,,,,,,,,,,,,,,,,,,,,,,,,,,,,,,,,,,,,,,,,,,,,,,,,,,,,,,,,,,,,,,,,,,,,,,,,,,,,,,,,,,,,,,,,,,,,,,,,,,,,
,,672135003f5e272c889620ea,2026-03-17_10h31.50.484,kallum_motion_pilot_GIST_update_2,2026.1.1,Win32,60.60606061,672135003f5e272c889620ea,69b92ab4aef6dee357cd729a,69b92b4ba4012f4b20c4a791,0.1853,0.1853,1,80,242,137,1,fiveseven,,,,,,,,,,,,,,,,,,,,,,,,,,,,,,,,,,,,,,,,,,,,,,,,,,,,,,,,,,,,,,,,,,,,,,,,,,,,,,,,,,,,,,,,,,,,,,,,,,,,,,,,,,,,,,,,,,,,,,,,,,,,,,,,,,,,,,,,,
,,672135003f5e272c889620ea,2026-03-17_10h31.50.484,kallum_motion_pilot_GIST_update_2,2026.1.1,Win32,60.60606061,672135003f5e272c889620ea,69b92ab4aef6dee357cd729a,69b92b4ba4012f4b20c4a791,0.1859,0.1859,1,81,243,43,1,twofour,,,,,,,,,,,,,,,,,,,,,,,,,,,,,,,,,,,,,,,,,,,,,,,,,,,,,,,,,,,,,,,,,,,,,,,,,,,,,,,,,,,,,,,,,,,,,,,,,,,,,,,,,,,,,,,,,,,,,,,,,,,,,,,,,,,,,,,,,
,,672135003f5e272c889620ea,2026-03-17_10h31.50.484,kallum_motion_pilot_GIST_update_2,2026.1.1,Win32,60.60606061,672135003f5e272c889620ea,69b92ab4aef6dee357cd729a,69b92b4ba4012f4b20c4a791,0.1864,0.1864,1,82,244,52,1,threeone,,,,,,,,,,,,,,,,,,,,,,,,,,,,,,,,,,,,,,,,,,,,,,,,,,,,,,,,,,,,,,,,,,,,,,,,,,,,,,,,,,,,,,,,,,,,,,,,,,,,,,,,,,,,,,,,,,,,,,,,,,,,,,,,,,,,,,,,,
,,672135003f5e272c889620ea,2026-03-17_10h31.50.484,kallum_motion_pilot_GIST_update_2,2026.1.1,Win32,60.60606061,672135003f5e272c889620ea,69b92ab4aef6dee357cd729a,69b92b4ba4012f4b20c4a791,0.187,0.187,1,83,245,157,1,seveneight,,,,,,,,,,,,,,,,,,,,,,,,,,,,,,,,,,,,,,,,,,,,,,,,,,,,,,,,,,,,,,,,,,,,,,,,,,,,,,,,,,,,,,,,,,,,,,,,,,,,,,,,,,,,,,,,,,,,,,,,,,,,,,,,,,,,,,,,,
,,672135003f5e272c889620ea,2026-03-17_10h31.50.484,kallum_motion_pilot_GIST_update_2,2026.1.1,Win32,60.60606061,672135003f5e272c889620ea,69b92ab4aef6dee357cd729a,69b92b4ba4012f4b20c4a791,0.1876,0.1876,1,84,246,23,1,fourthree,,,,,,,,,,,,,,,,,,,,,,,,,,,,,,,,,,,,,,,,,,,,,,,,,,,,,,,,,,,,,,,,,,,,,,,,,,,,,,,,,,,,,,,,,,,,,,,,,,,,,,,,,,,,,,,,,,,,,,,,,,,,,,,,,,,,,,,,,
,,672135003f5e272c889620ea,2026-03-17_10h31.50.484,kallum_motion_pilot_GIST_update_2,2026.1.1,Win32,60.60606061,672135003f5e272c889620ea,69b92ab4aef6dee357cd729a,69b92b4ba4012f4b20c4a791,0.1881,0.1881,1,85,247,77,1,threefour,,,,,,,,,,,,,,,,,,,,,,,,,,,,,,,,,,,,,,,,,,,,,,,,,,,,,,,,,,,,,,,,,,,,,,,,,,,,,,,,,,,,,,,,,,,,,,,,,,,,,,,,,,,,,,,,,,,,,,,,,,,,,,,,,,,,,,,,,
,,672135003f5e272c889620ea,2026-03-17_10h31.50.484,kallum_motion_pilot_GIST_update_2,2026.1.1,Win32,60.60606061,672135003f5e272c889620ea,69b92ab4aef6dee357cd729a,69b92b4ba4012f4b20c4a791,0.1887,0.1887,1,86,248,119,1,eightseven,,,,,,,,,,,,,,,,,,,,,,,,,,,,,,,,,,,,,,,,,,,,,,,,,,,,,,,,,,,,,,,,,,,,,,,,,,,,,,,,,,,,,,,,,,,,,,,,,,,,,,,,,,,,,,,,,,,,,,,,,,,,,,,,,,,,,,,,,
,,672135003f5e272c889620ea,2026-03-17_10h31.50.484,kallum_motion_pilot_GIST_update_2,2026.1.1,Win32,60.60606061,672135003f5e272c889620ea,69b92ab4aef6dee357cd729a,69b92b4ba4012f4b20c4a791,0.1892,0.1892,1,87,249,104,1,fivesix,,,,,,,,,,,,,,,,,,,,,,,,,,,,,,,,,,,,,,,,,,,,,,,,,,,,,,,,,,,,,,,,,,,,,,,,,,,,,,,,,,,,,,,,,,,,,,,,,,,,,,,,,,,,,,,,,,,,,,,,,,,,,,,,,,,,,,,,,
,,672135003f5e272c889620ea,2026-03-17_10h31.50.484,kallum_motion_pilot_GIST_update_2,2026.1.1,Win32,60.60606061,672135003f5e272c889620ea,69b92ab4aef6dee357cd729a,69b92b4ba4012f4b20c4a791,0.1897,0.1897,1,88,250,152,1,fivesix,,,,,,,,,,,,,,,,,,,,,,,,,,,,,,,,,,,,,,,,,,,,,,,,,,,,,,,,,,,,,,,,,,,,,,,,,,,,,,,,,,,,,,,,,,,,,,,,,,,,,,,,,,,,,,,,,,,,,,,,,,,,,,,,,,,,,,,,,
,,672135003f5e272c889620ea,2026-03-17_10h31.50.484,kallum_motion_pilot_GIST_update_2,2026.1.1,Win32,60.60606061,672135003f5e272c889620ea,69b92ab4aef6dee357cd729a,69b92b4ba4012f4b20c4a791,0.1903,0.1903,1,89,251,129,1,fiveseven,,,,,,,,,,,,,,,,,,,,,,,,,,,,,,,,,,,,,,,,,,,,,,,,,,,,,,,,,,,,,,,,,,,,,,,,,,,,,,,,,,,,,,,,,,,,,,,,,,,,,,,,,,,,,,,,,,,,,,,,,,,,,,,,,,,,,,,,,
,,672135003f5e272c889620ea,2026-03-17_10h31.50.484,kallum_motion_pilot_GIST_update_2,2026.1.1,Win32,60.60606061,672135003f5e272c889620ea,69b92ab4aef6dee357cd729a,69b92b4ba4012f4b20c4a791,0.1908,0.1908,1,90,252,20,1,threeone,,,,,,,,,,,,,,,,,,,,,,,,,,,,,,,,,,,,,,,,,,,,,,,,,,,,,,,,,,,,,,,,,,,,,,,,,,,,,,,,,,,,,,,,,,,,,,,,,,,,,,,,,,,,,,,,,,,,,,,,,,,,,,,,,,,,,,,,,
,,672135003f5e272c889620ea,2026-03-17_10h31.50.484,kallum_motion_pilot_GIST_update_2,2026.1.1,Win32,60.60606061,672135003f5e272c889620ea,69b92ab4aef6dee357cd729a,69b92b4ba4012f4b20c4a791,0.1913,0.1913,1,91,253,146,1,sixfive,,,,,,,,,,,,,,,,,,,,,,,,,,,,,,,,,,,,,,,,,,,,,,,,,,,,,,,,,,,,,,,,,,,,,,,,,,,,,,,,,,,,,,,,,,,,,,,,,,,,,,,,,,,,,,,,,,,,,,,,,,,,,,,,,,,,,,,,,
,,672135003f5e272c889620ea,2026-03-17_10h31.50.484,kallum_motion_pilot_GIST_update_2,2026.1.1,Win32,60.60606061,672135003f5e272c889620ea,69b92ab4aef6dee357cd729a,69b92b4ba4012f4b20c4a791,0.1919,0.1919,1,92,254,49,1,onethree,,,,,,,,,,,,,,,,,,,,,,,,,,,,,,,,,,,,,,,,,,,,,,,,,,,,,,,,,,,,,,,,,,,,,,,,,,,,,,,,,,,,,,,,,,,,,,,,,,,,,,,,,,,,,,,,,,,,,,,,,,,,,,,,,,,,,,,,,
,,672135003f5e272c889620ea,2026-03-17_10h31.50.484,kallum_motion_pilot_GIST_update_2,2026.1.1,Win32,60.60606061,672135003f5e272c889620ea,69b92ab4aef6dee357cd729a,69b92b4ba4012f4b20c4a791,0.1926,0.1926,1,93,255,160,1,fivesix,,,,,,,,,,,,,,,,,,,,,,,,,,,,,,,,,,,,,,,,,,,,,,,,,,,,,,,,,,,,,,,,,,,,,,,,,,,,,,,,,,,,,,,,,,,,,,,,,,,,,,,,,,,,,,,,,,,,,,,,,,,,,,,,,,,,,,,,,
,,672135003f5e272c889620ea,2026-03-17_10h31.50.484,kallum_motion_pilot_GIST_update_2,2026.1.1,Win32,60.60606061,672135003f5e272c889620ea,69b92ab4aef6dee357cd729a,69b92b4ba4012f4b20c4a791,0.1931,0.1931,1,94,256,85,1,seveneight,,,,,,,,,,,,,,,,,,,,,,,,,,,,,,,,,,,,,,,,,,,,,,,,,,,,,,,,,,,,,,,,,,,,,,,,,,,,,,,,,,,,,,,,,,,,,,,,,,,,,,,,,,,,,,,,,,,,,,,,,,,,,,,,,,,,,,,,,
,,672135003f5e272c889620ea,2026-03-17_10h31.50.484,kallum_motion_pilot_GIST_update_2,2026.1.1,Win32,60.60606061,672135003f5e272c889620ea,69b92ab4aef6dee357cd729a,69b92b4ba4012f4b20c4a791,0.1939,0.1939,1,95,257,29,1,threefour,,,,,,,,,,,,,,,,,,,,,,,,,,,,,,,,,,,,,,,,,,,,,,,,,,,,,,,,,,,,,,,,,,,,,,,,,,,,,,,,,,,,,,,,,,,,,,,,,,,,,,,,,,,,,,,,,,,,,,,,,,,,,,,,,,,,,,,,,
,,672135003f5e272c889620ea,2026-03-17_10h31.50.484,kallum_motion_pilot_GIST_update_2,2026.1.1,Win32,60.60606061,672135003f5e272c889620ea,69b92ab4aef6dee357cd729a,69b92b4ba4012f4b20c4a791,0.1944,0.1944,1,96,258,13,1,threefour,,,,,,,,,,,,,,,,,,,,,,,,,,,,,,,,,,,,,,,,,,,,,,,,,,,,,,,,,,,,,,,,,,,,,,,,,,,,,,,,,,,,,,,,,,,,,,,,,,,,,,,,,,,,,,,,,,,,,,,,,,,,,,,,,,,,,,,,,
,,672135003f5e272c889620ea,2026-03-17_10h31.50.484,kallum_motion_pilot_GIST_update_2,2026.1.1,Win32,60.60606061,672135003f5e272c889620ea,69b92ab4aef6dee357cd729a,69b92b4ba4012f4b20c4a791,0.195,0.1952,1,97,259,96,1,fivesix,,,,,,,,,,,,,,,,,,,,,,,,,,,,,,,,,,,,,,,,,,,,,,,,,,,,,,,,,,,,,,,,,,,,,,,,,,,,,,,,,,,,,,,,,,,,,,,,,,,,,,,,,,,,,,,,,,,,,,,,,,,,,,,,,,,,,,,,,
,,672135003f5e272c889620ea,2026-03-17_10h31.50.484,kallum_motion_pilot_GIST_update_2,2026.1.1,Win32,60.60606061,672135003f5e272c889620ea,69b92ab4aef6dee357cd729a,69b92b4ba4012f4b20c4a791,0.1956,0.1957,1,98,260,97,1,fiveseven,,,,,,,,,,,,,,,,,,,,,,,,,,,,,,,,,,,,,,,,,,,,,,,,,,,,,,,,,,,,,,,,,,,,,,,,,,,,,,,,,,,,,,,,,,,,,,,,,,,,,,,,,,,,,,,,,,,,,,,,,,,,,,,,,,,,,,,,,
,,672135003f5e272c889620ea,2026-03-17_10h31.50.484,kallum_motion_pilot_GIST_update_2,2026.1.1,Win32,60.60606061,672135003f5e272c889620ea,69b92ab4aef6dee357cd729a,69b92b4ba4012f4b20c4a791,0.1963,0.1964,1,99,261,10,1,twoone,,,,,,,,,,,,,,,,,,,,,,,,,,,,,,,,,,,,,,,,,,,,,,,,,,,,,,,,,,,,,,,,,,,,,,,,,,,,,,,,,,,,,,,,,,,,,,,,,,,,,,,,,,,,,,,,,,,,,,,,,,,,,,,,,,,,,,,,,
,,672135003f5e272c889620ea,2026-03-17_10h31.50.484,kallum_motion_pilot_GIST_update_2,2026.1.1,Win32,60.60606061,672135003f5e272c889620ea,69b92ab4aef6dee357cd729a,69b92b4ba4012f4b20c4a791,0.197,0.197,1,100,262,103,1,eightseven,,,,,,,,,,,,,,,,,,,,,,,,,,,,,,,,,,,,,,,,,,,,,,,,,,,,,,,,,,,,,,,,,,,,,,,,,,,,,,,,,,,,,,,,,,,,,,,,,,,,,,,,,,,,,,,,,,,,,,,,,,,,,,,,,,,,,,,,,
,,672135003f5e272c889620ea,2026-03-17_10h31.50.484,kallum_motion_pilot_GIST_update_2,2026.1.1,Win32,60.60606061,672135003f5e272c889620ea,69b92ab4aef6dee357cd729a,69b92b4ba4012f4b20c4a791,0.1975,0.1975,1,101,263,108,1,sevenfive,,,,,,,,,,,,,,,,,,,,,,,,,,,,,,,,,,,,,,,,,,,,,,,,,,,,,,,,,,,,,,,,,,,,,,,,,,,,,,,,,,,,,,,,,,,,,,,,,,,,,,,,,,,,,,,,,,,,,,,,,,,,,,,,,,,,,,,,,
,,672135003f5e272c889620ea,2026-03-17_10h31.50.484,kallum_motion_pilot_GIST_update_2,2026.1.1,Win32,60.60606061,672135003f5e272c889620ea,69b92ab4aef6dee357cd729a,69b92b4ba4012f4b20c4a791,0.1982,0.1982,1,102,264,16,1,onetwo,,,,,,,,,,,,,,,,,,,,,,,,,,,,,,,,,,,,,,,,,,,,,,,,,,,,,,,,,,,,,,,,,,,,,,,,,,,,,,,,,,,,,,,,,,,,,,,,,,,,,,,,,,,,,,,,,,,,,,,,,,,,,,,,,,,,,,,,,
,,672135003f5e272c889620ea,2026-03-17_10h31.50.484,kallum_motion_pilot_GIST_update_2,2026.1.1,Win32,60.60606061,672135003f5e272c889620ea,69b92ab4aef6dee357cd729a,69b92b4ba4012f4b20c4a791,0.199,0.199,1,103,265,50,1,twoone,,,,,,,,,,,,,,,,,,,,,,,,,,,,,,,,,,,,,,,,,,,,,,,,,,,,,,,,,,,,,,,,,,,,,,,,,,,,,,,,,,,,,,,,,,,,,,,,,,,,,,,,,,,,,,,,,,,,,,,,,,,,,,,,,,,,,,,,,
,,672135003f5e272c889620ea,2026-03-17_10h31.50.484,kallum_motion_pilot_GIST_update_2,2026.1.1,Win32,60.60606061,672135003f5e272c889620ea,69b92ab4aef6dee357cd729a,69b92b4ba4012f4b20c4a791,0.1994,0.1994,1,104,266,144,1,fivesix,,,,,,,,,,,,,,,,,,,,,,,,,,,,,,,,,,,,,,,,,,,,,,,,,,,,,,,,,,,,,,,,,,,,,,,,,,,,,,,,,,,,,,,,,,,,,,,,,,,,,,,,,,,,,,,,,,,,,,,,,,,,,,,,,,,,,,,,,
