startup.started,startup.stopped,Prolific ID*,date,expName,psychopyVersion,OS,frameRate,participant,study_id,session,stimpositions.started,stimpositions.stopped,hardcoded_stimulus_positions.thisRepN,hardcoded_stimulus_positions.thisTrialN,hardcoded_stimulus_positions.thisN,hardcoded_stimulus_positions.thisIndex,hardcoded_stimulus_positions.ran,StimulusPos,stimorientation.started,stimorientation.stopped,prac_stimorientation_import_loop.thisRepN,prac_stimorientation_import_loop.thisTrialN,prac_stimorientation_import_loop.thisN,prac_stimorientation_import_loop.thisIndex,prac_stimorientation_import_loop.ran,Stimorientation,welcome_instr.started,welcome_instr.stopped,key_resp.keys,key_resp.rt,key_resp.duration,response_steppedout_1.started,response_steppedout_1.stopped,key_resp_20.keys,key_resp_20.rt,key_resp_20.duration,response_steppedout_2.started,response_steppedout_2.stopped,key_resp_19.keys,key_resp_19.rt,key_resp_19.duration,stim_response_instr.started,stim_response_instr.stopped,key_resp_15.keys,key_resp_15.rt,key_resp_15.duration,direction_instr_2.started,direction_instr_2.stopped,key_resp_9.keys,key_resp_9.rt,key_resp_9.duration,instr_prac.started,instr_prac.stopped,key_resp_10.keys,key_resp_10.rt,key_resp_10.duration,Stim1_display_prac.started,Stim1_display_prac.stopped,Ecc,Circle1_ori,Circle2_ori,response_prac.started,similarity,response_time,response_prac.stopped,mouse_5.x,mouse_5.y,mouse_5.leftButton,mouse_5.midButton,mouse_5.rightButton,mouse_5.clicked_name,responseprac_feedback.started,responseprac_feedback.stopped,summary2_prac.started,summary2_prac.stopped,mouse_6.x,mouse_6.y,mouse_6.leftButton,mouse_6.midButton,mouse_6.rightButton,mouse_6.clicked_name,duringprac.thisRepN,duringprac.thisTrialN,duringprac.thisN,duringprac.thisIndex,duringprac.ran,begin.started,begin.stopped,key_resp_22.keys,key_resp_22.rt,key_resp_22.duration,Stim1_display.started,Stim1_display.stopped,circle1_ori,circle2_ori,circle1_SF,circle2_SF,response.started,response.stopped,mouse.x,mouse.y,mouse.leftButton,mouse.midButton,mouse.rightButton,mouse.clicked_name,trialnumber,double_pass.thisRepN,double_pass.thisTrialN,double_pass.thisN,double_pass.thisIndex,double_pass.ran,double_pass.order,main_trial.thisRepN,main_trial.thisTrialN,main_trial.thisN,main_trial.thisIndex,main_trial.ran,main_trial.order,Trial_Counter,Catch,Frequencies,response_2.started,response_2.stopped,mouse_2.x,mouse_2.y,mouse_2.leftButton,mouse_2.midButton,mouse_2.rightButton,mouse_2.clicked_name,special_trial.started,special_trial.stopped,catch_1.started,catch_1.stopped,mouse_3.x,mouse_3.y,mouse_3.leftButton,mouse_3.midButton,mouse_3.rightButton,catchresponse,catchnumber,response_time_catch,response_sum.started,response_sum.stopped,mouse_11.x,mouse_11.y,mouse_11.leftButton,mouse_11.midButton,mouse_11.rightButton,flip_presentation_sequence_for_double_pass.started,flip_presentation_sequence_for_double_pass.stopped,goodbye.started,goodbye.stopped,key_resp_3.keys,key_resp_3.rt,key_resp_3.duration
0.0061,0.0063,67235bbabb67c1e547a7a32c,2026-03-17_12h58.15.699,kallum_motion_pilot_GIST_update_2,2026.1.1,Win32,60.24096386,67235bbabb67c1e547a7a32c,69b92ab4aef6dee357cd729a,69b93395b198ea1fc7d0cd4e,,,,,,,,,,,,,,,,,,,,,,,,,,,,,,,,,,,,,,,,,,,,,,,,,,,,,,,,,,,,,,,,,,,,,,,,,,,,,,,,,,,,,,,,,,,,,,,,,,,,,,,,,,,,,,,,,,,,,,,,,,,,,,,,,,,,,,,,,,,,,,,,,
,,67235bbabb67c1e547a7a32c,2026-03-17_12h58.15.699,kallum_motion_pilot_GIST_update_2,2026.1.1,Win32,60.24096386,67235bbabb67c1e547a7a32c,69b92ab4aef6dee357cd729a,69b93395b198ea1fc7d0cd4e,0.043,0.0431,0,0,0,62,1,fourtwo,,,,,,,,,,,,,,,,,,,,,,,,,,,,,,,,,,,,,,,,,,,,,,,,,,,,,,,,,,,,,,,,,,,,,,,,,,,,,,,,,,,,,,,,,,,,,,,,,,,,,,,,,,,,,,,,,,,,,,,,,,,,,,,,,,,,,,,,,
,,67235bbabb67c1e547a7a32c,2026-03-17_12h58.15.699,kallum_motion_pilot_GIST_update_2,2026.1.1,Win32,60.24096386,67235bbabb67c1e547a7a32c,69b92ab4aef6dee357cd729a,69b93395b198ea1fc7d0cd4e,0.0436,0.0436,0,1,1,53,1,threefour,,,,,,,,,,,,,,,,,,,,,,,,,,,,,,,,,,,,,,,,,,,,,,,,,,,,,,,,,,,,,,,,,,,,,,,,,,,,,,,,,,,,,,,,,,,,,,,,,,,,,,,,,,,,,,,,,,,,,,,,,,,,,,,,,,,,,,,,,
,,67235bbabb67c1e547a7a32c,2026-03-17_12h58.15.699,kallum_motion_pilot_GIST_update_2,2026.1.1,Win32,60.24096386,67235bbabb67c1e547a7a32c,69b92ab4aef6dee357cd729a,69b93395b198ea1fc7d0cd4e,0.0438,0.0438,0,2,2,26,1,twoone,,,,,,,,,,,,,,,,,,,,,,,,,,,,,,,,,,,,,,,,,,,,,,,,,,,,,,,,,,,,,,,,,,,,,,,,,,,,,,,,,,,,,,,,,,,,,,,,,,,,,,,,,,,,,,,,,,,,,,,,,,,,,,,,,,,,,,,,,
,,67235bbabb67c1e547a7a32c,2026-03-17_12h58.15.699,kallum_motion_pilot_GIST_update_2,2026.1.1,Win32,60.24096386,67235bbabb67c1e547a7a32c,69b92ab4aef6dee357cd729a,69b93395b198ea1fc7d0cd4e,0.044,0.044,0,3,3,92,1,sevenfive,,,,,,,,,,,,,,,,,,,,,,,,,,,,,,,,,,,,,,,,,,,,,,,,,,,,,,,,,,,,,,,,,,,,,,,,,,,,,,,,,,,,,,,,,,,,,,,,,,,,,,,,,,,,,,,,,,,,,,,,,,,,,,,,,,,,,,,,,
,,67235bbabb67c1e547a7a32c,2026-03-17_12h58.15.699,kallum_motion_pilot_GIST_update_2,2026.1.1,Win32,60.24096386,67235bbabb67c1e547a7a32c,69b92ab4aef6dee357cd729a,69b93395b198ea1fc7d0cd4e,0.0442,0.0442,0,4,4,55,1,fourthree,,,,,,,,,,,,,,,,,,,,,,,,,,,,,,,,,,,,,,,,,,,,,,,,,,,,,,,,,,,,,,,,,,,,,,,,,,,,,,,,,,,,,,,,,,,,,,,,,,,,,,,,,,,,,,,,,,,,,,,,,,,,,,,,,,,,,,,,,
,,67235bbabb67c1e547a7a32c,2026-03-17_12h58.15.699,kallum_motion_pilot_GIST_update_2,2026.1.1,Win32,60.24096386,67235bbabb67c1e547a7a32c,69b92ab4aef6dee357cd729a,69b93395b198ea1fc7d0cd4e,0.0445,0.0445,0,5,5,37,1,threefour,,,,,,,,,,,,,,,,,,,,,,,,,,,,,,,,,,,,,,,,,,,,,,,,,,,,,,,,,,,,,,,,,,,,,,,,,,,,,,,,,,,,,,,,,,,,,,,,,,,,,,,,,,,,,,,,,,,,,,,,,,,,,,,,,,,,,,,,,
,,67235bbabb67c1e547a7a32c,2026-03-17_12h58.15.699,kallum_motion_pilot_GIST_update_2,2026.1.1,Win32,60.24096386,67235bbabb67c1e547a7a32c,69b92ab4aef6dee357cd729a,69b93395b198ea1fc7d0cd4e,0.0446,0.0446,0,6,6,157,1,seveneight,,,,,,,,,,,,,,,,,,,,,,,,,,,,,,,,,,,,,,,,,,,,,,,,,,,,,,,,,,,,,,,,,,,,,,,,,,,,,,,,,,,,,,,,,,,,,,,,,,,,,,,,,,,,,,,,,,,,,,,,,,,,,,,,,,,,,,,,,
,,67235bbabb67c1e547a7a32c,2026-03-17_12h58.15.699,kallum_motion_pilot_GIST_update_2,2026.1.1,Win32,60.24096386,67235bbabb67c1e547a7a32c,69b92ab4aef6dee357cd729a,69b93395b198ea1fc7d0cd4e,0.0448,0.0448,0,7,7,90,1,sixfive,,,,,,,,,,,,,,,,,,,,,,,,,,,,,,,,,,,,,,,,,,,,,,,,,,,,,,,,,,,,,,,,,,,,,,,,,,,,,,,,,,,,,,,,,,,,,,,,,,,,,,,,,,,,,,,,,,,,,,,,,,,,,,,,,,,,,,,,,
,,67235bbabb67c1e547a7a32c,2026-03-17_12h58.15.699,kallum_motion_pilot_GIST_update_2,2026.1.1,Win32,60.24096386,67235bbabb67c1e547a7a32c,69b92ab4aef6dee357cd729a,69b93395b198ea1fc7d0cd4e,0.0451,0.0451,0,8,8,156,1,sevenfive,,,,,,,,,,,,,,,,,,,,,,,,,,,,,,,,,,,,,,,,,,,,,,,,,,,,,,,,,,,,,,,,,,,,,,,,,,,,,,,,,,,,,,,,,,,,,,,,,,,,,,,,,,,,,,,,,,,,,,,,,,,,,,,,,,,,,,,,,
,,67235bbabb67c1e547a7a32c,2026-03-17_12h58.15.699,kallum_motion_pilot_GIST_update_2,2026.1.1,Win32,60.24096386,67235bbabb67c1e547a7a32c,69b92ab4aef6dee357cd729a,69b93395b198ea1fc7d0cd4e,0.0454,0.0454,0,9,9,52,1,threeone,,,,,,,,,,,,,,,,,,,,,,,,,,,,,,,,,,,,,,,,,,,,,,,,,,,,,,,,,,,,,,,,,,,,,,,,,,,,,,,,,,,,,,,,,,,,,,,,,,,,,,,,,,,,,,,,,,,,,,,,,,,,,,,,,,,,,,,,,
,,67235bbabb67c1e547a7a32c,2026-03-17_12h58.15.699,kallum_motion_pilot_GIST_update_2,2026.1.1,Win32,60.24096386,67235bbabb67c1e547a7a32c,69b92ab4aef6dee357cd729a,69b93395b198ea1fc7d0cd4e,0.0455,0.0455,0,10,10,15,1,fourthree,,,,,,,,,,,,,,,,,,,,,,,,,,,,,,,,,,,,,,,,,,,,,,,,,,,,,,,,,,,,,,,,,,,,,,,,,,,,,,,,,,,,,,,,,,,,,,,,,,,,,,,,,,,,,,,,,,,,,,,,,,,,,,,,,,,,,,,,,
,,67235bbabb67c1e547a7a32c,2026-03-17_12h58.15.699,kallum_motion_pilot_GIST_update_2,2026.1.1,Win32,60.24096386,67235bbabb67c1e547a7a32c,69b92ab4aef6dee357cd729a,69b93395b198ea1fc7d0cd4e,0.0456,0.0457,0,11,11,99,1,sixeight,,,,,,,,,,,,,,,,,,,,,,,,,,,,,,,,,,,,,,,,,,,,,,,,,,,,,,,,,,,,,,,,,,,,,,,,,,,,,,,,,,,,,,,,,,,,,,,,,,,,,,,,,,,,,,,,,,,,,,,,,,,,,,,,,,,,,,,,,
,,67235bbabb67c1e547a7a32c,2026-03-17_12h58.15.699,kallum_motion_pilot_GIST_update_2,2026.1.1,Win32,60.24096386,67235bbabb67c1e547a7a32c,69b92ab4aef6dee357cd729a,69b93395b198ea1fc7d0cd4e,0.0458,0.0458,0,12,12,155,1,sixeight,,,,,,,,,,,,,,,,,,,,,,,,,,,,,,,,,,,,,,,,,,,,,,,,,,,,,,,,,,,,,,,,,,,,,,,,,,,,,,,,,,,,,,,,,,,,,,,,,,,,,,,,,,,,,,,,,,,,,,,,,,,,,,,,,,,,,,,,,
,,67235bbabb67c1e547a7a32c,2026-03-17_12h58.15.699,kallum_motion_pilot_GIST_update_2,2026.1.1,Win32,60.24096386,67235bbabb67c1e547a7a32c,69b92ab4aef6dee357cd729a,69b93395b198ea1fc7d0cd4e,0.0459,0.046,0,13,13,158,1,eightsix,,,,,,,,,,,,,,,,,,,,,,,,,,,,,,,,,,,,,,,,,,,,,,,,,,,,,,,,,,,,,,,,,,,,,,,,,,,,,,,,,,,,,,,,,,,,,,,,,,,,,,,,,,,,,,,,,,,,,,,,,,,,,,,,,,,,,,,,,
,,67235bbabb67c1e547a7a32c,2026-03-17_12h58.15.699,kallum_motion_pilot_GIST_update_2,2026.1.1,Win32,60.24096386,67235bbabb67c1e547a7a32c,69b92ab4aef6dee357cd729a,69b93395b198ea1fc7d0cd4e,0.0461,0.0461,0,14,14,121,1,fiveseven,,,,,,,,,,,,,,,,,,,,,,,,,,,,,,,,,,,,,,,,,,,,,,,,,,,,,,,,,,,,,,,,,,,,,,,,,,,,,,,,,,,,,,,,,,,,,,,,,,,,,,,,,,,,,,,,,,,,,,,,,,,,,,,,,,,,,,,,,
,,67235bbabb67c1e547a7a32c,2026-03-17_12h58.15.699,kallum_motion_pilot_GIST_update_2,2026.1.1,Win32,60.24096386,67235bbabb67c1e547a7a32c,69b92ab4aef6dee357cd729a,69b93395b198ea1fc7d0cd4e,0.0462,0.0462,0,15,15,149,1,seveneight,,,,,,,,,,,,,,,,,,,,,,,,,,,,,,,,,,,,,,,,,,,,,,,,,,,,,,,,,,,,,,,,,,,,,,,,,,,,,,,,,,,,,,,,,,,,,,,,,,,,,,,,,,,,,,,,,,,,,,,,,,,,,,,,,,,,,,,,,
,,67235bbabb67c1e547a7a32c,2026-03-17_12h58.15.699,kallum_motion_pilot_GIST_update_2,2026.1.1,Win32,60.24096386,67235bbabb67c1e547a7a32c,69b92ab4aef6dee357cd729a,69b93395b198ea1fc7d0cd4e,0.0462,0.0463,0,16,16,33,1,onethree,,,,,,,,,,,,,,,,,,,,,,,,,,,,,,,,,,,,,,,,,,,,,,,,,,,,,,,,,,,,,,,,,,,,,,,,,,,,,,,,,,,,,,,,,,,,,,,,,,,,,,,,,,,,,,,,,,,,,,,,,,,,,,,,,,,,,,,,,
,,67235bbabb67c1e547a7a32c,2026-03-17_12h58.15.699,kallum_motion_pilot_GIST_update_2,2026.1.1,Win32,60.24096386,67235bbabb67c1e547a7a32c,69b92ab4aef6dee357cd729a,69b93395b198ea1fc7d0cd4e,0.0464,0.0464,0,17,17,8,1,onetwo,,,,,,,,,,,,,,,,,,,,,,,,,,,,,,,,,,,,,,,,,,,,,,,,,,,,,,,,,,,,,,,,,,,,,,,,,,,,,,,,,,,,,,,,,,,,,,,,,,,,,,,,,,,,,,,,,,,,,,,,,,,,,,,,,,,,,,,,,
,,67235bbabb67c1e547a7a32c,2026-03-17_12h58.15.699,kallum_motion_pilot_GIST_update_2,2026.1.1,Win32,60.24096386,67235bbabb67c1e547a7a32c,69b92ab4aef6dee357cd729a,69b93395b198ea1fc7d0cd4e,0.0466,0.0466,0,18,18,102,1,eightsix,,,,,,,,,,,,,,,,,,,,,,,,,,,,,,,,,,,,,,,,,,,,,,,,,,,,,,,,,,,,,,,,,,,,,,,,,,,,,,,,,,,,,,,,,,,,,,,,,,,,,,,,,,,,,,,,,,,,,,,,,,,,,,,,,,,,,,,,,
,,67235bbabb67c1e547a7a32c,2026-03-17_12h58.15.699,kallum_motion_pilot_GIST_update_2,2026.1.1,Win32,60.24096386,67235bbabb67c1e547a7a32c,69b92ab4aef6dee357cd729a,69b93395b198ea1fc7d0cd4e,0.0467,0.0467,0,19,19,68,1,threeone,,,,,,,,,,,,,,,,,,,,,,,,,,,,,,,,,,,,,,,,,,,,,,,,,,,,,,,,,,,,,,,,,,,,,,,,,,,,,,,,,,,,,,,,,,,,,,,,,,,,,,,,,,,,,,,,,,,,,,,,,,,,,,,,,,,,,,,,,
,,67235bbabb67c1e547a7a32c,2026-03-17_12h58.15.699,kallum_motion_pilot_GIST_update_2,2026.1.1,Win32,60.24096386,67235bbabb67c1e547a7a32c,69b92ab4aef6dee357cd729a,69b93395b198ea1fc7d0cd4e,0.0469,0.0469,0,20,20,74,1,twoone,,,,,,,,,,,,,,,,,,,,,,,,,,,,,,,,,,,,,,,,,,,,,,,,,,,,,,,,,,,,,,,,,,,,,,,,,,,,,,,,,,,,,,,,,,,,,,,,,,,,,,,,,,,,,,,,,,,,,,,,,,,,,,,,,,,,,,,,,
,,67235bbabb67c1e547a7a32c,2026-03-17_12h58.15.699,kallum_motion_pilot_GIST_update_2,2026.1.1,Win32,60.24096386,67235bbabb67c1e547a7a32c,69b92ab4aef6dee357cd729a,69b93395b198ea1fc7d0cd4e,0.047,0.047,0,21,21,97,1,fiveseven,,,,,,,,,,,,,,,,,,,,,,,,,,,,,,,,,,,,,,,,,,,,,,,,,,,,,,,,,,,,,,,,,,,,,,,,,,,,,,,,,,,,,,,,,,,,,,,,,,,,,,,,,,,,,,,,,,,,,,,,,,,,,,,,,,,,,,,,,
,,67235bbabb67c1e547a7a32c,2026-03-17_12h58.15.699,kallum_motion_pilot_GIST_update_2,2026.1.1,Win32,60.24096386,67235bbabb67c1e547a7a32c,69b92ab4aef6dee357cd729a,69b93395b198ea1fc7d0cd4e,0.0471,0.0471,0,22,22,111,1,eightseven,,,,,,,,,,,,,,,,,,,,,,,,,,,,,,,,,,,,,,,,,,,,,,,,,,,,,,,,,,,,,,,,,,,,,,,,,,,,,,,,,,,,,,,,,,,,,,,,,,,,,,,,,,,,,,,,,,,,,,,,,,,,,,,,,,,,,,,,,
,,67235bbabb67c1e547a7a32c,2026-03-17_12h58.15.699,kallum_motion_pilot_GIST_update_2,2026.1.1,Win32,60.24096386,67235bbabb67c1e547a7a32c,69b92ab4aef6dee357cd729a,69b93395b198ea1fc7d0cd4e,0.0472,0.0472,0,23,23,145,1,fiveseven,,,,,,,,,,,,,,,,,,,,,,,,,,,,,,,,,,,,,,,,,,,,,,,,,,,,,,,,,,,,,,,,,,,,,,,,,,,,,,,,,,,,,,,,,,,,,,,,,,,,,,,,,,,,,,,,,,,,,,,,,,,,,,,,,,,,,,,,,
,,67235bbabb67c1e547a7a32c,2026-03-17_12h58.15.699,kallum_motion_pilot_GIST_update_2,2026.1.1,Win32,60.24096386,67235bbabb67c1e547a7a32c,69b92ab4aef6dee357cd729a,69b93395b198ea1fc7d0cd4e,0.0474,0.0474,0,24,24,100,1,sevenfive,,,,,,,,,,,,,,,,,,,,,,,,,,,,,,,,,,,,,,,,,,,,,,,,,,,,,,,,,,,,,,,,,,,,,,,,,,,,,,,,,,,,,,,,,,,,,,,,,,,,,,,,,,,,,,,,,,,,,,,,,,,,,,,,,,,,,,,,,
,,67235bbabb67c1e547a7a32c,2026-03-17_12h58.15.699,kallum_motion_pilot_GIST_update_2,2026.1.1,Win32,60.24096386,67235bbabb67c1e547a7a32c,69b92ab4aef6dee357cd729a,69b93395b198ea1fc7d0cd4e,0.0475,0.0475,0,25,25,135,1,eightseven,,,,,,,,,,,,,,,,,,,,,,,,,,,,,,,,,,,,,,,,,,,,,,,,,,,,,,,,,,,,,,,,,,,,,,,,,,,,,,,,,,,,,,,,,,,,,,,,,,,,,,,,,,,,,,,,,,,,,,,,,,,,,,,,,,,,,,,,,
,,67235bbabb67c1e547a7a32c,2026-03-17_12h58.15.699,kallum_motion_pilot_GIST_update_2,2026.1.1,Win32,60.24096386,67235bbabb67c1e547a7a32c,69b92ab4aef6dee357cd729a,69b93395b198ea1fc7d0cd4e,0.0476,0.0476,0,26,26,136,1,fivesix,,,,,,,,,,,,,,,,,,,,,,,,,,,,,,,,,,,,,,,,,,,,,,,,,,,,,,,,,,,,,,,,,,,,,,,,,,,,,,,,,,,,,,,,,,,,,,,,,,,,,,,,,,,,,,,,,,,,,,,,,,,,,,,,,,,,,,,,,
,,67235bbabb67c1e547a7a32c,2026-03-17_12h58.15.699,kallum_motion_pilot_GIST_update_2,2026.1.1,Win32,60.24096386,67235bbabb67c1e547a7a32c,69b92ab4aef6dee357cd729a,69b93395b198ea1fc7d0cd4e,0.0478,0.0478,0,27,27,67,1,twofour,,,,,,,,,,,,,,,,,,,,,,,,,,,,,,,,,,,,,,,,,,,,,,,,,,,,,,,,,,,,,,,,,,,,,,,,,,,,,,,,,,,,,,,,,,,,,,,,,,,,,,,,,,,,,,,,,,,,,,,,,,,,,,,,,,,,,,,,,
,,67235bbabb67c1e547a7a32c,2026-03-17_12h58.15.699,kallum_motion_pilot_GIST_update_2,2026.1.1,Win32,60.24096386,67235bbabb67c1e547a7a32c,69b92ab4aef6dee357cd729a,69b93395b198ea1fc7d0cd4e,0.048,0.048,0,28,28,21,1,threefour,,,,,,,,,,,,,,,,,,,,,,,,,,,,,,,,,,,,,,,,,,,,,,,,,,,,,,,,,,,,,,,,,,,,,,,,,,,,,,,,,,,,,,,,,,,,,,,,,,,,,,,,,,,,,,,,,,,,,,,,,,,,,,,,,,,,,,,,,
,,67235bbabb67c1e547a7a32c,2026-03-17_12h58.15.699,kallum_motion_pilot_GIST_update_2,2026.1.1,Win32,60.24096386,67235bbabb67c1e547a7a32c,69b92ab4aef6dee357cd729a,69b93395b198ea1fc7d0cd4e,0.0481,0.0481,0,29,29,123,1,sixeight,,,,,,,,,,,,,,,,,,,,,,,,,,,,,,,,,,,,,,,,,,,,,,,,,,,,,,,,,,,,,,,,,,,,,,,,,,,,,,,,,,,,,,,,,,,,,,,,,,,,,,,,,,,,,,,,,,,,,,,,,,,,,,,,,,,,,,,,,
,,67235bbabb67c1e547a7a32c,2026-03-17_12h58.15.699,kallum_motion_pilot_GIST_update_2,2026.1.1,Win32,60.24096386,67235bbabb67c1e547a7a32c,69b92ab4aef6dee357cd729a,69b93395b198ea1fc7d0cd4e,0.0483,0.0483,0,30,30,84,1,sevenfive,,,,,,,,,,,,,,,,,,,,,,,,,,,,,,,,,,,,,,,,,,,,,,,,,,,,,,,,,,,,,,,,,,,,,,,,,,,,,,,,,,,,,,,,,,,,,,,,,,,,,,,,,,,,,,,,,,,,,,,,,,,,,,,,,,,,,,,,,
,,67235bbabb67c1e547a7a32c,2026-03-17_12h58.15.699,kallum_motion_pilot_GIST_update_2,2026.1.1,Win32,60.24096386,67235bbabb67c1e547a7a32c,69b92ab4aef6dee357cd729a,69b93395b198ea1fc7d0cd4e,0.0484,0.0484,0,31,31,80,1,fivesix,,,,,,,,,,,,,,,,,,,,,,,,,,,,,,,,,,,,,,,,,,,,,,,,,,,,,,,,,,,,,,,,,,,,,,,,,,,,,,,,,,,,,,,,,,,,,,,,,,,,,,,,,,,,,,,,,,,,,,,,,,,,,,,,,,,,,,,,,
,,67235bbabb67c1e547a7a32c,2026-03-17_12h58.15.699,kallum_motion_pilot_GIST_update_2,2026.1.1,Win32,60.24096386,67235bbabb67c1e547a7a32c,69b92ab4aef6dee357cd729a,69b93395b198ea1fc7d0cd4e,0.0485,0.0485,0,32,32,130,1,sixfive,,,,,,,,,,,,,,,,,,,,,,,,,,,,,,,,,,,,,,,,,,,,,,,,,,,,,,,,,,,,,,,,,,,,,,,,,,,,,,,,,,,,,,,,,,,,,,,,,,,,,,,,,,,,,,,,,,,,,,,,,,,,,,,,,,,,,,,,,
,,67235bbabb67c1e547a7a32c,2026-03-17_12h58.15.699,kallum_motion_pilot_GIST_update_2,2026.1.1,Win32,60.24096386,67235bbabb67c1e547a7a32c,69b92ab4aef6dee357cd729a,69b93395b198ea1fc7d0cd4e,0.0487,0.0487,0,33,33,153,1,fiveseven,,,,,,,,,,,,,,,,,,,,,,,,,,,,,,,,,,,,,,,,,,,,,,,,,,,,,,,,,,,,,,,,,,,,,,,,,,,,,,,,,,,,,,,,,,,,,,,,,,,,,,,,,,,,,,,,,,,,,,,,,,,,,,,,,,,,,,,,,
,,67235bbabb67c1e547a7a32c,2026-03-17_12h58.15.699,kallum_motion_pilot_GIST_update_2,2026.1.1,Win32,60.24096386,67235bbabb67c1e547a7a32c,69b92ab4aef6dee357cd729a,69b93395b198ea1fc7d0cd4e,0.0488,0.0488,0,34,34,32,1,onetwo,,,,,,,,,,,,,,,,,,,,,,,,,,,,,,,,,,,,,,,,,,,,,,,,,,,,,,,,,,,,,,,,,,,,,,,,,,,,,,,,,,,,,,,,,,,,,,,,,,,,,,,,,,,,,,,,,,,,,,,,,,,,,,,,,,,,,,,,,
,,67235bbabb67c1e547a7a32c,2026-03-17_12h58.15.699,kallum_motion_pilot_GIST_update_2,2026.1.1,Win32,60.24096386,67235bbabb67c1e547a7a32c,69b92ab4aef6dee357cd729a,69b93395b198ea1fc7d0cd4e,0.049,0.049,0,35,35,119,1,eightseven,,,,,,,,,,,,,,,,,,,,,,,,,,,,,,,,,,,,,,,,,,,,,,,,,,,,,,,,,,,,,,,,,,,,,,,,,,,,,,,,,,,,,,,,,,,,,,,,,,,,,,,,,,,,,,,,,,,,,,,,,,,,,,,,,,,,,,,,,
,,67235bbabb67c1e547a7a32c,2026-03-17_12h58.15.699,kallum_motion_pilot_GIST_update_2,2026.1.1,Win32,60.24096386,67235bbabb67c1e547a7a32c,69b92ab4aef6dee357cd729a,69b93395b198ea1fc7d0cd4e,0.0492,0.0492,0,36,36,44,1,threeone,,,,,,,,,,,,,,,,,,,,,,,,,,,,,,,,,,,,,,,,,,,,,,,,,,,,,,,,,,,,,,,,,,,,,,,,,,,,,,,,,,,,,,,,,,,,,,,,,,,,,,,,,,,,,,,,,,,,,,,,,,,,,,,,,,,,,,,,,
,,67235bbabb67c1e547a7a32c,2026-03-17_12h58.15.699,kallum_motion_pilot_GIST_update_2,2026.1.1,Win32,60.24096386,67235bbabb67c1e547a7a32c,69b92ab4aef6dee357cd729a,69b93395b198ea1fc7d0cd4e,0.0497,0.0497,0,37,37,1,1,onethree,,,,,,,,,,,,,,,,,,,,,,,,,,,,,,,,,,,,,,,,,,,,,,,,,,,,,,,,,,,,,,,,,,,,,,,,,,,,,,,,,,,,,,,,,,,,,,,,,,,,,,,,,,,,,,,,,,,,,,,,,,,,,,,,,,,,,,,,,
,,67235bbabb67c1e547a7a32c,2026-03-17_12h58.15.699,kallum_motion_pilot_GIST_update_2,2026.1.1,Win32,60.24096386,67235bbabb67c1e547a7a32c,69b92ab4aef6dee357cd729a,69b93395b198ea1fc7d0cd4e,0.0502,0.0502,0,38,38,142,1,eightsix,,,,,,,,,,,,,,,,,,,,,,,,,,,,,,,,,,,,,,,,,,,,,,,,,,,,,,,,,,,,,,,,,,,,,,,,,,,,,,,,,,,,,,,,,,,,,,,,,,,,,,,,,,,,,,,,,,,,,,,,,,,,,,,,,,,,,,,,,
,,67235bbabb67c1e547a7a32c,2026-03-17_12h58.15.699,kallum_motion_pilot_GIST_update_2,2026.1.1,Win32,60.24096386,67235bbabb67c1e547a7a32c,69b92ab4aef6dee357cd729a,69b93395b198ea1fc7d0cd4e,0.0504,0.0505,0,39,39,128,1,fivesix,,,,,,,,,,,,,,,,,,,,,,,,,,,,,,,,,,,,,,,,,,,,,,,,,,,,,,,,,,,,,,,,,,,,,,,,,,,,,,,,,,,,,,,,,,,,,,,,,,,,,,,,,,,,,,,,,,,,,,,,,,,,,,,,,,,,,,,,,
,,67235bbabb67c1e547a7a32c,2026-03-17_12h58.15.699,kallum_motion_pilot_GIST_update_2,2026.1.1,Win32,60.24096386,67235bbabb67c1e547a7a32c,69b92ab4aef6dee357cd729a,69b93395b198ea1fc7d0cd4e,0.0506,0.0506,0,40,40,46,1,fourtwo,,,,,,,,,,,,,,,,,,,,,,,,,,,,,,,,,,,,,,,,,,,,,,,,,,,,,,,,,,,,,,,,,,,,,,,,,,,,,,,,,,,,,,,,,,,,,,,,,,,,,,,,,,,,,,,,,,,,,,,,,,,,,,,,,,,,,,,,,
,,67235bbabb67c1e547a7a32c,2026-03-17_12h58.15.699,kallum_motion_pilot_GIST_update_2,2026.1.1,Win32,60.24096386,67235bbabb67c1e547a7a32c,69b92ab4aef6dee357cd729a,69b93395b198ea1fc7d0cd4e,0.0509,0.0509,0,41,41,104,1,fivesix,,,,,,,,,,,,,,,,,,,,,,,,,,,,,,,,,,,,,,,,,,,,,,,,,,,,,,,,,,,,,,,,,,,,,,,,,,,,,,,,,,,,,,,,,,,,,,,,,,,,,,,,,,,,,,,,,,,,,,,,,,,,,,,,,,,,,,,,,
,,67235bbabb67c1e547a7a32c,2026-03-17_12h58.15.699,kallum_motion_pilot_GIST_update_2,2026.1.1,Win32,60.24096386,67235bbabb67c1e547a7a32c,69b92ab4aef6dee357cd729a,69b93395b198ea1fc7d0cd4e,0.0511,0.0511,0,42,42,120,1,fivesix,,,,,,,,,,,,,,,,,,,,,,,,,,,,,,,,,,,,,,,,,,,,,,,,,,,,,,,,,,,,,,,,,,,,,,,,,,,,,,,,,,,,,,,,,,,,,,,,,,,,,,,,,,,,,,,,,,,,,,,,,,,,,,,,,,,,,,,,,
,,67235bbabb67c1e547a7a32c,2026-03-17_12h58.15.699,kallum_motion_pilot_GIST_update_2,2026.1.1,Win32,60.24096386,67235bbabb67c1e547a7a32c,69b92ab4aef6dee357cd729a,69b93395b198ea1fc7d0cd4e,0.0513,0.0513,0,43,43,101,1,seveneight,,,,,,,,,,,,,,,,,,,,,,,,,,,,,,,,,,,,,,,,,,,,,,,,,,,,,,,,,,,,,,,,,,,,,,,,,,,,,,,,,,,,,,,,,,,,,,,,,,,,,,,,,,,,,,,,,,,,,,,,,,,,,,,,,,,,,,,,,
,,67235bbabb67c1e547a7a32c,2026-03-17_12h58.15.699,kallum_motion_pilot_GIST_update_2,2026.1.1,Win32,60.24096386,67235bbabb67c1e547a7a32c,69b92ab4aef6dee357cd729a,69b93395b198ea1fc7d0cd4e,0.0514,0.0515,0,44,44,71,1,fourthree,,,,,,,,,,,,,,,,,,,,,,,,,,,,,,,,,,,,,,,,,,,,,,,,,,,,,,,,,,,,,,,,,,,,,,,,,,,,,,,,,,,,,,,,,,,,,,,,,,,,,,,,,,,,,,,,,,,,,,,,,,,,,,,,,,,,,,,,,
,,67235bbabb67c1e547a7a32c,2026-03-17_12h58.15.699,kallum_motion_pilot_GIST_update_2,2026.1.1,Win32,60.24096386,67235bbabb67c1e547a7a32c,69b92ab4aef6dee357cd729a,69b93395b198ea1fc7d0cd4e,0.0516,0.0516,0,45,45,108,1,sevenfive,,,,,,,,,,,,,,,,,,,,,,,,,,,,,,,,,,,,,,,,,,,,,,,,,,,,,,,,,,,,,,,,,,,,,,,,,,,,,,,,,,,,,,,,,,,,,,,,,,,,,,,,,,,,,,,,,,,,,,,,,,,,,,,,,,,,,,,,,
,,67235bbabb67c1e547a7a32c,2026-03-17_12h58.15.699,kallum_motion_pilot_GIST_update_2,2026.1.1,Win32,60.24096386,67235bbabb67c1e547a7a32c,69b92ab4aef6dee357cd729a,69b93395b198ea1fc7d0cd4e,0.0519,0.0519,0,46,46,61,1,threefour,,,,,,,,,,,,,,,,,,,,,,,,,,,,,,,,,,,,,,,,,,,,,,,,,,,,,,,,,,,,,,,,,,,,,,,,,,,,,,,,,,,,,,,,,,,,,,,,,,,,,,,,,,,,,,,,,,,,,,,,,,,,,,,,,,,,,,,,,
,,67235bbabb67c1e547a7a32c,2026-03-17_12h58.15.699,kallum_motion_pilot_GIST_update_2,2026.1.1,Win32,60.24096386,67235bbabb67c1e547a7a32c,69b92ab4aef6dee357cd729a,69b93395b198ea1fc7d0cd4e,0.052,0.052,0,47,47,9,1,onethree,,,,,,,,,,,,,,,,,,,,,,,,,,,,,,,,,,,,,,,,,,,,,,,,,,,,,,,,,,,,,,,,,,,,,,,,,,,,,,,,,,,,,,,,,,,,,,,,,,,,,,,,,,,,,,,,,,,,,,,,,,,,,,,,,,,,,,,,,
,,67235bbabb67c1e547a7a32c,2026-03-17_12h58.15.699,kallum_motion_pilot_GIST_update_2,2026.1.1,Win32,60.24096386,67235bbabb67c1e547a7a32c,69b92ab4aef6dee357cd729a,69b93395b198ea1fc7d0cd4e,0.0522,0.0522,0,48,48,94,1,eightsix,,,,,,,,,,,,,,,,,,,,,,,,,,,,,,,,,,,,,,,,,,,,,,,,,,,,,,,,,,,,,,,,,,,,,,,,,,,,,,,,,,,,,,,,,,,,,,,,,,,,,,,,,,,,,,,,,,,,,,,,,,,,,,,,,,,,,,,,,
,,67235bbabb67c1e547a7a32c,2026-03-17_12h58.15.699,kallum_motion_pilot_GIST_update_2,2026.1.1,Win32,60.24096386,67235bbabb67c1e547a7a32c,69b92ab4aef6dee357cd729a,69b93395b198ea1fc7d0cd4e,0.0525,0.0525,0,49,49,36,1,threeone,,,,,,,,,,,,,,,,,,,,,,,,,,,,,,,,,,,,,,,,,,,,,,,,,,,,,,,,,,,,,,,,,,,,,,,,,,,,,,,,,,,,,,,,,,,,,,,,,,,,,,,,,,,,,,,,,,,,,,,,,,,,,,,,,,,,,,,,,
,,67235bbabb67c1e547a7a32c,2026-03-17_12h58.15.699,kallum_motion_pilot_GIST_update_2,2026.1.1,Win32,60.24096386,67235bbabb67c1e547a7a32c,69b92ab4aef6dee357cd729a,69b93395b198ea1fc7d0cd4e,0.0526,0.0526,0,50,50,96,1,fivesix,,,,,,,,,,,,,,,,,,,,,,,,,,,,,,,,,,,,,,,,,,,,,,,,,,,,,,,,,,,,,,,,,,,,,,,,,,,,,,,,,,,,,,,,,,,,,,,,,,,,,,,,,,,,,,,,,,,,,,,,,,,,,,,,,,,,,,,,,
,,67235bbabb67c1e547a7a32c,2026-03-17_12h58.15.699,kallum_motion_pilot_GIST_update_2,2026.1.1,Win32,60.24096386,67235bbabb67c1e547a7a32c,69b92ab4aef6dee357cd729a,69b93395b198ea1fc7d0cd4e,0.0528,0.0528,0,51,51,14,1,fourtwo,,,,,,,,,,,,,,,,,,,,,,,,,,,,,,,,,,,,,,,,,,,,,,,,,,,,,,,,,,,,,,,,,,,,,,,,,,,,,,,,,,,,,,,,,,,,,,,,,,,,,,,,,,,,,,,,,,,,,,,,,,,,,,,,,,,,,,,,,
,,67235bbabb67c1e547a7a32c,2026-03-17_12h58.15.699,kallum_motion_pilot_GIST_update_2,2026.1.1,Win32,60.24096386,67235bbabb67c1e547a7a32c,69b92ab4aef6dee357cd729a,69b93395b198ea1fc7d0cd4e,0.053,0.053,0,52,52,19,1,twofour,,,,,,,,,,,,,,,,,,,,,,,,,,,,,,,,,,,,,,,,,,,,,,,,,,,,,,,,,,,,,,,,,,,,,,,,,,,,,,,,,,,,,,,,,,,,,,,,,,,,,,,,,,,,,,,,,,,,,,,,,,,,,,,,,,,,,,,,,
,,67235bbabb67c1e547a7a32c,2026-03-17_12h58.15.699,kallum_motion_pilot_GIST_update_2,2026.1.1,Win32,60.24096386,67235bbabb67c1e547a7a32c,69b92ab4aef6dee357cd729a,69b93395b198ea1fc7d0cd4e,0.0533,0.0533,0,53,53,161,1,fiveseven,,,,,,,,,,,,,,,,,,,,,,,,,,,,,,,,,,,,,,,,,,,,,,,,,,,,,,,,,,,,,,,,,,,,,,,,,,,,,,,,,,,,,,,,,,,,,,,,,,,,,,,,,,,,,,,,,,,,,,,,,,,,,,,,,,,,,,,,,
,,67235bbabb67c1e547a7a32c,2026-03-17_12h58.15.699,kallum_motion_pilot_GIST_update_2,2026.1.1,Win32,60.24096386,67235bbabb67c1e547a7a32c,69b92ab4aef6dee357cd729a,69b93395b198ea1fc7d0cd4e,0.0534,0.0534,0,54,54,146,1,sixfive,,,,,,,,,,,,,,,,,,,,,,,,,,,,,,,,,,,,,,,,,,,,,,,,,,,,,,,,,,,,,,,,,,,,,,,,,,,,,,,,,,,,,,,,,,,,,,,,,,,,,,,,,,,,,,,,,,,,,,,,,,,,,,,,,,,,,,,,,
,,67235bbabb67c1e547a7a32c,2026-03-17_12h58.15.699,kallum_motion_pilot_GIST_update_2,2026.1.1,Win32,60.24096386,67235bbabb67c1e547a7a32c,69b92ab4aef6dee357cd729a,69b93395b198ea1fc7d0cd4e,0.0536,0.0536,0,55,55,13,1,threefour,,,,,,,,,,,,,,,,,,,,,,,,,,,,,,,,,,,,,,,,,,,,,,,,,,,,,,,,,,,,,,,,,,,,,,,,,,,,,,,,,,,,,,,,,,,,,,,,,,,,,,,,,,,,,,,,,,,,,,,,,,,,,,,,,,,,,,,,,
,,67235bbabb67c1e547a7a32c,2026-03-17_12h58.15.699,kallum_motion_pilot_GIST_update_2,2026.1.1,Win32,60.24096386,67235bbabb67c1e547a7a32c,69b92ab4aef6dee357cd729a,69b93395b198ea1fc7d0cd4e,0.0539,0.0539,0,56,56,39,1,fourthree,,,,,,,,,,,,,,,,,,,,,,,,,,,,,,,,,,,,,,,,,,,,,,,,,,,,,,,,,,,,,,,,,,,,,,,,,,,,,,,,,,,,,,,,,,,,,,,,,,,,,,,,,,,,,,,,,,,,,,,,,,,,,,,,,,,,,,,,,
,,67235bbabb67c1e547a7a32c,2026-03-17_12h58.15.699,kallum_motion_pilot_GIST_update_2,2026.1.1,Win32,60.24096386,67235bbabb67c1e547a7a32c,69b92ab4aef6dee357cd729a,69b93395b198ea1fc7d0cd4e,0.0541,0.0541,0,57,57,57,1,onethree,,,,,,,,,,,,,,,,,,,,,,,,,,,,,,,,,,,,,,,,,,,,,,,,,,,,,,,,,,,,,,,,,,,,,,,,,,,,,,,,,,,,,,,,,,,,,,,,,,,,,,,,,,,,,,,,,,,,,,,,,,,,,,,,,,,,,,,,,
,,67235bbabb67c1e547a7a32c,2026-03-17_12h58.15.699,kallum_motion_pilot_GIST_update_2,2026.1.1,Win32,60.24096386,67235bbabb67c1e547a7a32c,69b92ab4aef6dee357cd729a,69b93395b198ea1fc7d0cd4e,0.0542,0.0542,0,58,58,17,1,onethree,,,,,,,,,,,,,,,,,,,,,,,,,,,,,,,,,,,,,,,,,,,,,,,,,,,,,,,,,,,,,,,,,,,,,,,,,,,,,,,,,,,,,,,,,,,,,,,,,,,,,,,,,,,,,,,,,,,,,,,,,,,,,,,,,,,,,,,,,
,,67235bbabb67c1e547a7a32c,2026-03-17_12h58.15.699,kallum_motion_pilot_GIST_update_2,2026.1.1,Win32,60.24096386,67235bbabb67c1e547a7a32c,69b92ab4aef6dee357cd729a,69b93395b198ea1fc7d0cd4e,0.0545,0.0545,0,59,59,16,1,onetwo,,,,,,,,,,,,,,,,,,,,,,,,,,,,,,,,,,,,,,,,,,,,,,,,,,,,,,,,,,,,,,,,,,,,,,,,,,,,,,,,,,,,,,,,,,,,,,,,,,,,,,,,,,,,,,,,,,,,,,,,,,,,,,,,,,,,,,,,,
,,67235bbabb67c1e547a7a32c,2026-03-17_12h58.15.699,kallum_motion_pilot_GIST_update_2,2026.1.1,Win32,60.24096386,67235bbabb67c1e547a7a32c,69b92ab4aef6dee357cd729a,69b93395b198ea1fc7d0cd4e,0.0546,0.0546,0,60,60,69,1,threefour,,,,,,,,,,,,,,,,,,,,,,,,,,,,,,,,,,,,,,,,,,,,,,,,,,,,,,,,,,,,,,,,,,,,,,,,,,,,,,,,,,,,,,,,,,,,,,,,,,,,,,,,,,,,,,,,,,,,,,,,,,,,,,,,,,,,,,,,,
,,67235bbabb67c1e547a7a32c,2026-03-17_12h58.15.699,kallum_motion_pilot_GIST_update_2,2026.1.1,Win32,60.24096386,67235bbabb67c1e547a7a32c,69b92ab4aef6dee357cd729a,69b93395b198ea1fc7d0cd4e,0.0549,0.0549,0,61,61,139,1,sixeight,,,,,,,,,,,,,,,,,,,,,,,,,,,,,,,,,,,,,,,,,,,,,,,,,,,,,,,,,,,,,,,,,,,,,,,,,,,,,,,,,,,,,,,,,,,,,,,,,,,,,,,,,,,,,,,,,,,,,,,,,,,,,,,,,,,,,,,,,
,,67235bbabb67c1e547a7a32c,2026-03-17_12h58.15.699,kallum_motion_pilot_GIST_update_2,2026.1.1,Win32,60.24096386,67235bbabb67c1e547a7a32c,69b92ab4aef6dee357cd729a,69b93395b198ea1fc7d0cd4e,0.0551,0.0551,0,62,62,47,1,fourthree,,,,,,,,,,,,,,,,,,,,,,,,,,,,,,,,,,,,,,,,,,,,,,,,,,,,,,,,,,,,,,,,,,,,,,,,,,,,,,,,,,,,,,,,,,,,,,,,,,,,,,,,,,,,,,,,,,,,,,,,,,,,,,,,,,,,,,,,,
,,67235bbabb67c1e547a7a32c,2026-03-17_12h58.15.699,kallum_motion_pilot_GIST_update_2,2026.1.1,Win32,60.24096386,67235bbabb67c1e547a7a32c,69b92ab4aef6dee357cd729a,69b93395b198ea1fc7d0cd4e,0.0553,0.0554,0,63,63,51,1,twofour,,,,,,,,,,,,,,,,,,,,,,,,,,,,,,,,,,,,,,,,,,,,,,,,,,,,,,,,,,,,,,,,,,,,,,,,,,,,,,,,,,,,,,,,,,,,,,,,,,,,,,,,,,,,,,,,,,,,,,,,,,,,,,,,,,,,,,,,,
,,67235bbabb67c1e547a7a32c,2026-03-17_12h58.15.699,kallum_motion_pilot_GIST_update_2,2026.1.1,Win32,60.24096386,67235bbabb67c1e547a7a32c,69b92ab4aef6dee357cd729a,69b93395b198ea1fc7d0cd4e,0.0554,0.0554,0,64,64,151,1,eightseven,,,,,,,,,,,,,,,,,,,,,,,,,,,,,,,,,,,,,,,,,,,,,,,,,,,,,,,,,,,,,,,,,,,,,,,,,,,,,,,,,,,,,,,,,,,,,,,,,,,,,,,,,,,,,,,,,,,,,,,,,,,,,,,,,,,,,,,,,
,,67235bbabb67c1e547a7a32c,2026-03-17_12h58.15.699,kallum_motion_pilot_GIST_update_2,2026.1.1,Win32,60.24096386,67235bbabb67c1e547a7a32c,69b92ab4aef6dee357cd729a,69b93395b198ea1fc7d0cd4e,0.0557,0.0557,0,65,65,107,1,sixeight,,,,,,,,,,,,,,,,,,,,,,,,,,,,,,,,,,,,,,,,,,,,,,,,,,,,,,,,,,,,,,,,,,,,,,,,,,,,,,,,,,,,,,,,,,,,,,,,,,,,,,,,,,,,,,,,,,,,,,,,,,,,,,,,,,,,,,,,,
,,67235bbabb67c1e547a7a32c,2026-03-17_12h58.15.699,kallum_motion_pilot_GIST_update_2,2026.1.1,Win32,60.24096386,67235bbabb67c1e547a7a32c,69b92ab4aef6dee357cd729a,69b93395b198ea1fc7d0cd4e,0.056,0.056,0,66,66,91,1,sixeight,,,,,,,,,,,,,,,,,,,,,,,,,,,,,,,,,,,,,,,,,,,,,,,,,,,,,,,,,,,,,,,,,,,,,,,,,,,,,,,,,,,,,,,,,,,,,,,,,,,,,,,,,,,,,,,,,,,,,,,,,,,,,,,,,,,,,,,,,
,,67235bbabb67c1e547a7a32c,2026-03-17_12h58.15.699,kallum_motion_pilot_GIST_update_2,2026.1.1,Win32,60.24096386,67235bbabb67c1e547a7a32c,69b92ab4aef6dee357cd729a,69b93395b198ea1fc7d0cd4e,0.0563,0.0563,0,67,67,81,1,fiveseven,,,,,,,,,,,,,,,,,,,,,,,,,,,,,,,,,,,,,,,,,,,,,,,,,,,,,,,,,,,,,,,,,,,,,,,,,,,,,,,,,,,,,,,,,,,,,,,,,,,,,,,,,,,,,,,,,,,,,,,,,,,,,,,,,,,,,,,,,
,,67235bbabb67c1e547a7a32c,2026-03-17_12h58.15.699,kallum_motion_pilot_GIST_update_2,2026.1.1,Win32,60.24096386,67235bbabb67c1e547a7a32c,69b92ab4aef6dee357cd729a,69b93395b198ea1fc7d0cd4e,0.0566,0.0566,0,68,68,124,1,sevenfive,,,,,,,,,,,,,,,,,,,,,,,,,,,,,,,,,,,,,,,,,,,,,,,,,,,,,,,,,,,,,,,,,,,,,,,,,,,,,,,,,,,,,,,,,,,,,,,,,,,,,,,,,,,,,,,,,,,,,,,,,,,,,,,,,,,,,,,,,
,,67235bbabb67c1e547a7a32c,2026-03-17_12h58.15.699,kallum_motion_pilot_GIST_update_2,2026.1.1,Win32,60.24096386,67235bbabb67c1e547a7a32c,69b92ab4aef6dee357cd729a,69b93395b198ea1fc7d0cd4e,0.0569,0.0569,0,69,69,12,1,threeone,,,,,,,,,,,,,,,,,,,,,,,,,,,,,,,,,,,,,,,,,,,,,,,,,,,,,,,,,,,,,,,,,,,,,,,,,,,,,,,,,,,,,,,,,,,,,,,,,,,,,,,,,,,,,,,,,,,,,,,,,,,,,,,,,,,,,,,,,
,,67235bbabb67c1e547a7a32c,2026-03-17_12h58.15.699,kallum_motion_pilot_GIST_update_2,2026.1.1,Win32,60.24096386,67235bbabb67c1e547a7a32c,69b92ab4aef6dee357cd729a,69b93395b198ea1fc7d0cd4e,0.0571,0.0571,0,70,70,25,1,onethree,,,,,,,,,,,,,,,,,,,,,,,,,,,,,,,,,,,,,,,,,,,,,,,,,,,,,,,,,,,,,,,,,,,,,,,,,,,,,,,,,,,,,,,,,,,,,,,,,,,,,,,,,,,,,,,,,,,,,,,,,,,,,,,,,,,,,,,,,
,,67235bbabb67c1e547a7a32c,2026-03-17_12h58.15.699,kallum_motion_pilot_GIST_update_2,2026.1.1,Win32,60.24096386,67235bbabb67c1e547a7a32c,69b92ab4aef6dee357cd729a,69b93395b198ea1fc7d0cd4e,0.0573,0.0573,0,71,71,98,1,sixfive,,,,,,,,,,,,,,,,,,,,,,,,,,,,,,,,,,,,,,,,,,,,,,,,,,,,,,,,,,,,,,,,,,,,,,,,,,,,,,,,,,,,,,,,,,,,,,,,,,,,,,,,,,,,,,,,,,,,,,,,,,,,,,,,,,,,,,,,,
,,67235bbabb67c1e547a7a32c,2026-03-17_12h58.15.699,kallum_motion_pilot_GIST_update_2,2026.1.1,Win32,60.24096386,67235bbabb67c1e547a7a32c,69b92ab4aef6dee357cd729a,69b93395b198ea1fc7d0cd4e,0.0576,0.0576,0,72,72,60,1,threeone,,,,,,,,,,,,,,,,,,,,,,,,,,,,,,,,,,,,,,,,,,,,,,,,,,,,,,,,,,,,,,,,,,,,,,,,,,,,,,,,,,,,,,,,,,,,,,,,,,,,,,,,,,,,,,,,,,,,,,,,,,,,,,,,,,,,,,,,,
,,67235bbabb67c1e547a7a32c,2026-03-17_12h58.15.699,kallum_motion_pilot_GIST_update_2,2026.1.1,Win32,60.24096386,67235bbabb67c1e547a7a32c,69b92ab4aef6dee357cd729a,69b93395b198ea1fc7d0cd4e,0.0577,0.0577,0,73,73,112,1,fivesix,,,,,,,,,,,,,,,,,,,,,,,,,,,,,,,,,,,,,,,,,,,,,,,,,,,,,,,,,,,,,,,,,,,,,,,,,,,,,,,,,,,,,,,,,,,,,,,,,,,,,,,,,,,,,,,,,,,,,,,,,,,,,,,,,,,,,,,,,
,,67235bbabb67c1e547a7a32c,2026-03-17_12h58.15.699,kallum_motion_pilot_GIST_update_2,2026.1.1,Win32,60.24096386,67235bbabb67c1e547a7a32c,69b92ab4aef6dee357cd729a,69b93395b198ea1fc7d0cd4e,0.0579,0.0579,0,74,74,2,1,twoone,,,,,,,,,,,,,,,,,,,,,,,,,,,,,,,,,,,,,,,,,,,,,,,,,,,,,,,,,,,,,,,,,,,,,,,,,,,,,,,,,,,,,,,,,,,,,,,,,,,,,,,,,,,,,,,,,,,,,,,,,,,,,,,,,,,,,,,,,
,,67235bbabb67c1e547a7a32c,2026-03-17_12h58.15.699,kallum_motion_pilot_GIST_update_2,2026.1.1,Win32,60.24096386,67235bbabb67c1e547a7a32c,69b92ab4aef6dee357cd729a,69b93395b198ea1fc7d0cd4e,0.058,0.058,0,75,75,114,1,sixfive,,,,,,,,,,,,,,,,,,,,,,,,,,,,,,,,,,,,,,,,,,,,,,,,,,,,,,,,,,,,,,,,,,,,,,,,,,,,,,,,,,,,,,,,,,,,,,,,,,,,,,,,,,,,,,,,,,,,,,,,,,,,,,,,,,,,,,,,,
,,67235bbabb67c1e547a7a32c,2026-03-17_12h58.15.699,kallum_motion_pilot_GIST_update_2,2026.1.1,Win32,60.24096386,67235bbabb67c1e547a7a32c,69b92ab4aef6dee357cd729a,69b93395b198ea1fc7d0cd4e,0.0582,0.0582,0,76,76,59,1,twofour,,,,,,,,,,,,,,,,,,,,,,,,,,,,,,,,,,,,,,,,,,,,,,,,,,,,,,,,,,,,,,,,,,,,,,,,,,,,,,,,,,,,,,,,,,,,,,,,,,,,,,,,,,,,,,,,,,,,,,,,,,,,,,,,,,,,,,,,,
,,67235bbabb67c1e547a7a32c,2026-03-17_12h58.15.699,kallum_motion_pilot_GIST_update_2,2026.1.1,Win32,60.24096386,67235bbabb67c1e547a7a32c,69b92ab4aef6dee357cd729a,69b93395b198ea1fc7d0cd4e,0.0584,0.0584,0,77,77,4,1,threeone,,,,,,,,,,,,,,,,,,,,,,,,,,,,,,,,,,,,,,,,,,,,,,,,,,,,,,,,,,,,,,,,,,,,,,,,,,,,,,,,,,,,,,,,,,,,,,,,,,,,,,,,,,,,,,,,,,,,,,,,,,,,,,,,,,,,,,,,,
,,67235bbabb67c1e547a7a32c,2026-03-17_12h58.15.699,kallum_motion_pilot_GIST_update_2,2026.1.1,Win32,60.24096386,67235bbabb67c1e547a7a32c,69b92ab4aef6dee357cd729a,69b93395b198ea1fc7d0cd4e,0.0586,0.0586,0,78,78,43,1,twofour,,,,,,,,,,,,,,,,,,,,,,,,,,,,,,,,,,,,,,,,,,,,,,,,,,,,,,,,,,,,,,,,,,,,,,,,,,,,,,,,,,,,,,,,,,,,,,,,,,,,,,,,,,,,,,,,,,,,,,,,,,,,,,,,,,,,,,,,,
,,67235bbabb67c1e547a7a32c,2026-03-17_12h58.15.699,kallum_motion_pilot_GIST_update_2,2026.1.1,Win32,60.24096386,67235bbabb67c1e547a7a32c,69b92ab4aef6dee357cd729a,69b93395b198ea1fc7d0cd4e,0.0587,0.0587,0,79,79,50,1,twoone,,,,,,,,,,,,,,,,,,,,,,,,,,,,,,,,,,,,,,,,,,,,,,,,,,,,,,,,,,,,,,,,,,,,,,,,,,,,,,,,,,,,,,,,,,,,,,,,,,,,,,,,,,,,,,,,,,,,,,,,,,,,,,,,,,,,,,,,,
,,67235bbabb67c1e547a7a32c,2026-03-17_12h58.15.699,kallum_motion_pilot_GIST_update_2,2026.1.1,Win32,60.24096386,67235bbabb67c1e547a7a32c,69b92ab4aef6dee357cd729a,69b93395b198ea1fc7d0cd4e,0.0589,0.0589,0,80,80,3,1,twofour,,,,,,,,,,,,,,,,,,,,,,,,,,,,,,,,,,,,,,,,,,,,,,,,,,,,,,,,,,,,,,,,,,,,,,,,,,,,,,,,,,,,,,,,,,,,,,,,,,,,,,,,,,,,,,,,,,,,,,,,,,,,,,,,,,,,,,,,,
,,67235bbabb67c1e547a7a32c,2026-03-17_12h58.15.699,kallum_motion_pilot_GIST_update_2,2026.1.1,Win32,60.24096386,67235bbabb67c1e547a7a32c,69b92ab4aef6dee357cd729a,69b93395b198ea1fc7d0cd4e,0.059,0.059,0,81,81,24,1,onetwo,,,,,,,,,,,,,,,,,,,,,,,,,,,,,,,,,,,,,,,,,,,,,,,,,,,,,,,,,,,,,,,,,,,,,,,,,,,,,,,,,,,,,,,,,,,,,,,,,,,,,,,,,,,,,,,,,,,,,,,,,,,,,,,,,,,,,,,,,
,,67235bbabb67c1e547a7a32c,2026-03-17_12h58.15.699,kallum_motion_pilot_GIST_update_2,2026.1.1,Win32,60.24096386,67235bbabb67c1e547a7a32c,69b92ab4aef6dee357cd729a,69b93395b198ea1fc7d0cd4e,0.0591,0.0591,0,82,82,35,1,twofour,,,,,,,,,,,,,,,,,,,,,,,,,,,,,,,,,,,,,,,,,,,,,,,,,,,,,,,,,,,,,,,,,,,,,,,,,,,,,,,,,,,,,,,,,,,,,,,,,,,,,,,,,,,,,,,,,,,,,,,,,,,,,,,,,,,,,,,,,
,,67235bbabb67c1e547a7a32c,2026-03-17_12h58.15.699,kallum_motion_pilot_GIST_update_2,2026.1.1,Win32,60.24096386,67235bbabb67c1e547a7a32c,69b92ab4aef6dee357cd729a,69b93395b198ea1fc7d0cd4e,0.0593,0.0593,0,83,83,72,1,onetwo,,,,,,,,,,,,,,,,,,,,,,,,,,,,,,,,,,,,,,,,,,,,,,,,,,,,,,,,,,,,,,,,,,,,,,,,,,,,,,,,,,,,,,,,,,,,,,,,,,,,,,,,,,,,,,,,,,,,,,,,,,,,,,,,,,,,,,,,,
,,67235bbabb67c1e547a7a32c,2026-03-17_12h58.15.699,kallum_motion_pilot_GIST_update_2,2026.1.1,Win32,60.24096386,67235bbabb67c1e547a7a32c,69b92ab4aef6dee357cd729a,69b93395b198ea1fc7d0cd4e,0.0595,0.0595,0,84,84,79,1,eightseven,,,,,,,,,,,,,,,,,,,,,,,,,,,,,,,,,,,,,,,,,,,,,,,,,,,,,,,,,,,,,,,,,,,,,,,,,,,,,,,,,,,,,,,,,,,,,,,,,,,,,,,,,,,,,,,,,,,,,,,,,,,,,,,,,,,,,,,,,
,,67235bbabb67c1e547a7a32c,2026-03-17_12h58.15.699,kallum_motion_pilot_GIST_update_2,2026.1.1,Win32,60.24096386,67235bbabb67c1e547a7a32c,69b92ab4aef6dee357cd729a,69b93395b198ea1fc7d0cd4e,0.0596,0.0596,0,85,85,86,1,eightsix,,,,,,,,,,,,,,,,,,,,,,,,,,,,,,,,,,,,,,,,,,,,,,,,,,,,,,,,,,,,,,,,,,,,,,,,,,,,,,,,,,,,,,,,,,,,,,,,,,,,,,,,,,,,,,,,,,,,,,,,,,,,,,,,,,,,,,,,,
,,67235bbabb67c1e547a7a32c,2026-03-17_12h58.15.699,kallum_motion_pilot_GIST_update_2,2026.1.1,Win32,60.24096386,67235bbabb67c1e547a7a32c,69b92ab4aef6dee357cd729a,69b93395b198ea1fc7d0cd4e,0.0598,0.0598,0,86,86,152,1,fivesix,,,,,,,,,,,,,,,,,,,,,,,,,,,,,,,,,,,,,,,,,,,,,,,,,,,,,,,,,,,,,,,,,,,,,,,,,,,,,,,,,,,,,,,,,,,,,,,,,,,,,,,,,,,,,,,,,,,,,,,,,,,,,,,,,,,,,,,,,
,,67235bbabb67c1e547a7a32c,2026-03-17_12h58.15.699,kallum_motion_pilot_GIST_update_2,2026.1.1,Win32,60.24096386,67235bbabb67c1e547a7a32c,69b92ab4aef6dee357cd729a,69b93395b198ea1fc7d0cd4e,0.0599,0.0599,0,87,87,63,1,fourthree,,,,,,,,,,,,,,,,,,,,,,,,,,,,,,,,,,,,,,,,,,,,,,,,,,,,,,,,,,,,,,,,,,,,,,,,,,,,,,,,,,,,,,,,,,,,,,,,,,,,,,,,,,,,,,,,,,,,,,,,,,,,,,,,,,,,,,,,,
,,67235bbabb67c1e547a7a32c,2026-03-17_12h58.15.699,kallum_motion_pilot_GIST_update_2,2026.1.1,Win32,60.24096386,67235bbabb67c1e547a7a32c,69b92ab4aef6dee357cd729a,69b93395b198ea1fc7d0cd4e,0.0601,0.0601,0,88,88,103,1,eightseven,,,,,,,,,,,,,,,,,,,,,,,,,,,,,,,,,,,,,,,,,,,,,,,,,,,,,,,,,,,,,,,,,,,,,,,,,,,,,,,,,,,,,,,,,,,,,,,,,,,,,,,,,,,,,,,,,,,,,,,,,,,,,,,,,,,,,,,,,
,,67235bbabb67c1e547a7a32c,2026-03-17_12h58.15.699,kallum_motion_pilot_GIST_update_2,2026.1.1,Win32,60.24096386,67235bbabb67c1e547a7a32c,69b92ab4aef6dee357cd729a,69b93395b198ea1fc7d0cd4e,0.0603,0.0603,0,89,89,132,1,sevenfive,,,,,,,,,,,,,,,,,,,,,,,,,,,,,,,,,,,,,,,,,,,,,,,,,,,,,,,,,,,,,,,,,,,,,,,,,,,,,,,,,,,,,,,,,,,,,,,,,,,,,,,,,,,,,,,,,,,,,,,,,,,,,,,,,,,,,,,,,
,,67235bbabb67c1e547a7a32c,2026-03-17_12h58.15.699,kallum_motion_pilot_GIST_update_2,2026.1.1,Win32,60.24096386,67235bbabb67c1e547a7a32c,69b92ab4aef6dee357cd729a,69b93395b198ea1fc7d0cd4e,0.0604,0.0604,0,90,90,66,1,twoone,,,,,,,,,,,,,,,,,,,,,,,,,,,,,,,,,,,,,,,,,,,,,,,,,,,,,,,,,,,,,,,,,,,,,,,,,,,,,,,,,,,,,,,,,,,,,,,,,,,,,,,,,,,,,,,,,,,,,,,,,,,,,,,,,,,,,,,,,
,,67235bbabb67c1e547a7a32c,2026-03-17_12h58.15.699,kallum_motion_pilot_GIST_update_2,2026.1.1,Win32,60.24096386,67235bbabb67c1e547a7a32c,69b92ab4aef6dee357cd729a,69b93395b198ea1fc7d0cd4e,0.0605,0.0605,0,91,91,115,1,sixeight,,,,,,,,,,,,,,,,,,,,,,,,,,,,,,,,,,,,,,,,,,,,,,,,,,,,,,,,,,,,,,,,,,,,,,,,,,,,,,,,,,,,,,,,,,,,,,,,,,,,,,,,,,,,,,,,,,,,,,,,,,,,,,,,,,,,,,,,,
,,67235bbabb67c1e547a7a32c,2026-03-17_12h58.15.699,kallum_motion_pilot_GIST_update_2,2026.1.1,Win32,60.24096386,67235bbabb67c1e547a7a32c,69b92ab4aef6dee357cd729a,69b93395b198ea1fc7d0cd4e,0.0607,0.0607,0,92,92,6,1,fourtwo,,,,,,,,,,,,,,,,,,,,,,,,,,,,,,,,,,,,,,,,,,,,,,,,,,,,,,,,,,,,,,,,,,,,,,,,,,,,,,,,,,,,,,,,,,,,,,,,,,,,,,,,,,,,,,,,,,,,,,,,,,,,,,,,,,,,,,,,,
,,67235bbabb67c1e547a7a32c,2026-03-17_12h58.15.699,kallum_motion_pilot_GIST_update_2,2026.1.1,Win32,60.24096386,67235bbabb67c1e547a7a32c,69b92ab4aef6dee357cd729a,69b93395b198ea1fc7d0cd4e,0.0608,0.0608,0,93,93,40,1,onetwo,,,,,,,,,,,,,,,,,,,,,,,,,,,,,,,,,,,,,,,,,,,,,,,,,,,,,,,,,,,,,,,,,,,,,,,,,,,,,,,,,,,,,,,,,,,,,,,,,,,,,,,,,,,,,,,,,,,,,,,,,,,,,,,,,,,,,,,,,
,,67235bbabb67c1e547a7a32c,2026-03-17_12h58.15.699,kallum_motion_pilot_GIST_update_2,2026.1.1,Win32,60.24096386,67235bbabb67c1e547a7a32c,69b92ab4aef6dee357cd729a,69b93395b198ea1fc7d0cd4e,0.061,0.061,0,94,94,88,1,fivesix,,,,,,,,,,,,,,,,,,,,,,,,,,,,,,,,,,,,,,,,,,,,,,,,,,,,,,,,,,,,,,,,,,,,,,,,,,,,,,,,,,,,,,,,,,,,,,,,,,,,,,,,,,,,,,,,,,,,,,,,,,,,,,,,,,,,,,,,,
,,67235bbabb67c1e547a7a32c,2026-03-17_12h58.15.699,kallum_motion_pilot_GIST_update_2,2026.1.1,Win32,60.24096386,67235bbabb67c1e547a7a32c,69b92ab4aef6dee357cd729a,69b93395b198ea1fc7d0cd4e,0.0612,0.0612,0,95,95,58,1,twoone,,,,,,,,,,,,,,,,,,,,,,,,,,,,,,,,,,,,,,,,,,,,,,,,,,,,,,,,,,,,,,,,,,,,,,,,,,,,,,,,,,,,,,,,,,,,,,,,,,,,,,,,,,,,,,,,,,,,,,,,,,,,,,,,,,,,,,,,,
,,67235bbabb67c1e547a7a32c,2026-03-17_12h58.15.699,kallum_motion_pilot_GIST_update_2,2026.1.1,Win32,60.24096386,67235bbabb67c1e547a7a32c,69b92ab4aef6dee357cd729a,69b93395b198ea1fc7d0cd4e,0.0612,0.0612,0,96,96,48,1,onetwo,,,,,,,,,,,,,,,,,,,,,,,,,,,,,,,,,,,,,,,,,,,,,,,,,,,,,,,,,,,,,,,,,,,,,,,,,,,,,,,,,,,,,,,,,,,,,,,,,,,,,,,,,,,,,,,,,,,,,,,,,,,,,,,,,,,,,,,,,
,,67235bbabb67c1e547a7a32c,2026-03-17_12h58.15.699,kallum_motion_pilot_GIST_update_2,2026.1.1,Win32,60.24096386,67235bbabb67c1e547a7a32c,69b92ab4aef6dee357cd729a,69b93395b198ea1fc7d0cd4e,0.0614,0.0614,0,97,97,28,1,threeone,,,,,,,,,,,,,,,,,,,,,,,,,,,,,,,,,,,,,,,,,,,,,,,,,,,,,,,,,,,,,,,,,,,,,,,,,,,,,,,,,,,,,,,,,,,,,,,,,,,,,,,,,,,,,,,,,,,,,,,,,,,,,,,,,,,,,,,,,
,,67235bbabb67c1e547a7a32c,2026-03-17_12h58.15.699,kallum_motion_pilot_GIST_update_2,2026.1.1,Win32,60.24096386,67235bbabb67c1e547a7a32c,69b92ab4aef6dee357cd729a,69b93395b198ea1fc7d0cd4e,0.0616,0.0616,0,98,98,5,1,threefour,,,,,,,,,,,,,,,,,,,,,,,,,,,,,,,,,,,,,,,,,,,,,,,,,,,,,,,,,,,,,,,,,,,,,,,,,,,,,,,,,,,,,,,,,,,,,,,,,,,,,,,,,,,,,,,,,,,,,,,,,,,,,,,,,,,,,,,,,
,,67235bbabb67c1e547a7a32c,2026-03-17_12h58.15.699,kallum_motion_pilot_GIST_update_2,2026.1.1,Win32,60.24096386,67235bbabb67c1e547a7a32c,69b92ab4aef6dee357cd729a,69b93395b198ea1fc7d0cd4e,0.0617,0.0618,0,99,99,144,1,fivesix,,,,,,,,,,,,,,,,,,,,,,,,,,,,,,,,,,,,,,,,,,,,,,,,,,,,,,,,,,,,,,,,,,,,,,,,,,,,,,,,,,,,,,,,,,,,,,,,,,,,,,,,,,,,,,,,,,,,,,,,,,,,,,,,,,,,,,,,,
,,67235bbabb67c1e547a7a32c,2026-03-17_12h58.15.699,kallum_motion_pilot_GIST_update_2,2026.1.1,Win32,60.24096386,67235bbabb67c1e547a7a32c,69b92ab4aef6dee357cd729a,69b93395b198ea1fc7d0cd4e,0.062,0.062,0,100,100,127,1,eightseven,,,,,,,,,,,,,,,,,,,,,,,,,,,,,,,,,,,,,,,,,,,,,,,,,,,,,,,,,,,,,,,,,,,,,,,,,,,,,,,,,,,,,,,,,,,,,,,,,,,,,,,,,,,,,,,,,,,,,,,,,,,,,,,,,,,,,,,,,
,,67235bbabb67c1e547a7a32c,2026-03-17_12h58.15.699,kallum_motion_pilot_GIST_update_2,2026.1.1,Win32,60.24096386,67235bbabb67c1e547a7a32c,69b92ab4aef6dee357cd729a,69b93395b198ea1fc7d0cd4e,0.0621,0.0621,0,101,101,73,1,onethree,,,,,,,,,,,,,,,,,,,,,,,,,,,,,,,,,,,,,,,,,,,,,,,,,,,,,,,,,,,,,,,,,,,,,,,,,,,,,,,,,,,,,,,,,,,,,,,,,,,,,,,,,,,,,,,,,,,,,,,,,,,,,,,,,,,,,,,,,
,,67235bbabb67c1e547a7a32c,2026-03-17_12h58.15.699,kallum_motion_pilot_GIST_update_2,2026.1.1,Win32,60.24096386,67235bbabb67c1e547a7a32c,69b92ab4aef6dee357cd729a,69b93395b198ea1fc7d0cd4e,0.0623,0.0623,0,102,102,160,1,fivesix,,,,,,,,,,,,,,,,,,,,,,,,,,,,,,,,,,,,,,,,,,,,,,,,,,,,,,,,,,,,,,,,,,,,,,,,,,,,,,,,,,,,,,,,,,,,,,,,,,,,,,,,,,,,,,,,,,,,,,,,,,,,,,,,,,,,,,,,,
,,67235bbabb67c1e547a7a32c,2026-03-17_12h58.15.699,kallum_motion_pilot_GIST_update_2,2026.1.1,Win32,60.24096386,67235bbabb67c1e547a7a32c,69b92ab4aef6dee357cd729a,69b93395b198ea1fc7d0cd4e,0.0625,0.0625,0,103,103,7,1,fourthree,,,,,,,,,,,,,,,,,,,,,,,,,,,,,,,,,,,,,,,,,,,,,,,,,,,,,,,,,,,,,,,,,,,,,,,,,,,,,,,,,,,,,,,,,,,,,,,,,,,,,,,,,,,,,,,,,,,,,,,,,,,,,,,,,,,,,,,,,
,,67235bbabb67c1e547a7a32c,2026-03-17_12h58.15.699,kallum_motion_pilot_GIST_update_2,2026.1.1,Win32,60.24096386,67235bbabb67c1e547a7a32c,69b92ab4aef6dee357cd729a,69b93395b198ea1fc7d0cd4e,0.0628,0.0628,0,104,104,141,1,seveneight,,,,,,,,,,,,,,,,,,,,,,,,,,,,,,,,,,,,,,,,,,,,,,,,,,,,,,,,,,,,,,,,,,,,,,,,,,,,,,,,,,,,,,,,,,,,,,,,,,,,,,,,,,,,,,,,,,,,,,,,,,,,,,,,,,,,,,,,,
,,67235bbabb67c1e547a7a32c,2026-03-17_12h58.15.699,kallum_motion_pilot_GIST_update_2,2026.1.1,Win32,60.24096386,67235bbabb67c1e547a7a32c,69b92ab4aef6dee357cd729a,69b93395b198ea1fc7d0cd4e,0.0631,0.0631,0,105,105,95,1,eightseven,,,,,,,,,,,,,,,,,,,,,,,,,,,,,,,,,,,,,,,,,,,,,,,,,,,,,,,,,,,,,,,,,,,,,,,,,,,,,,,,,,,,,,,,,,,,,,,,,,,,,,,,,,,,,,,,,,,,,,,,,,,,,,,,,,,,,,,,,
,,67235bbabb67c1e547a7a32c,2026-03-17_12h58.15.699,kallum_motion_pilot_GIST_update_2,2026.1.1,Win32,60.24096386,67235bbabb67c1e547a7a32c,69b92ab4aef6dee357cd729a,69b93395b198ea1fc7d0cd4e,0.0632,0.0632,0,106,106,89,1,fiveseven,,,,,,,,,,,,,,,,,,,,,,,,,,,,,,,,,,,,,,,,,,,,,,,,,,,,,,,,,,,,,,,,,,,,,,,,,,,,,,,,,,,,,,,,,,,,,,,,,,,,,,,,,,,,,,,,,,,,,,,,,,,,,,,,,,,,,,,,,
,,67235bbabb67c1e547a7a32c,2026-03-17_12h58.15.699,kallum_motion_pilot_GIST_update_2,2026.1.1,Win32,60.24096386,67235bbabb67c1e547a7a32c,69b92ab4aef6dee357cd729a,69b93395b198ea1fc7d0cd4e,0.0634,0.0634,0,107,107,87,1,eightseven,,,,,,,,,,,,,,,,,,,,,,,,,,,,,,,,,,,,,,,,,,,,,,,,,,,,,,,,,,,,,,,,,,,,,,,,,,,,,,,,,,,,,,,,,,,,,,,,,,,,,,,,,,,,,,,,,,,,,,,,,,,,,,,,,,,,,,,,,
,,67235bbabb67c1e547a7a32c,2026-03-17_12h58.15.699,kallum_motion_pilot_GIST_update_2,2026.1.1,Win32,60.24096386,67235bbabb67c1e547a7a32c,69b92ab4aef6dee357cd729a,69b93395b198ea1fc7d0cd4e,0.0635,0.0635,0,108,108,82,1,sixfive,,,,,,,,,,,,,,,,,,,,,,,,,,,,,,,,,,,,,,,,,,,,,,,,,,,,,,,,,,,,,,,,,,,,,,,,,,,,,,,,,,,,,,,,,,,,,,,,,,,,,,,,,,,,,,,,,,,,,,,,,,,,,,,,,,,,,,,,,
,,67235bbabb67c1e547a7a32c,2026-03-17_12h58.15.699,kallum_motion_pilot_GIST_update_2,2026.1.1,Win32,60.24096386,67235bbabb67c1e547a7a32c,69b92ab4aef6dee357cd729a,69b93395b198ea1fc7d0cd4e,0.0637,0.0637,0,109,109,125,1,seveneight,,,,,,,,,,,,,,,,,,,,,,,,,,,,,,,,,,,,,,,,,,,,,,,,,,,,,,,,,,,,,,,,,,,,,,,,,,,,,,,,,,,,,,,,,,,,,,,,,,,,,,,,,,,,,,,,,,,,,,,,,,,,,,,,,,,,,,,,,
,,67235bbabb67c1e547a7a32c,2026-03-17_12h58.15.699,kallum_motion_pilot_GIST_update_2,2026.1.1,Win32,60.24096386,67235bbabb67c1e547a7a32c,69b92ab4aef6dee357cd729a,69b93395b198ea1fc7d0cd4e,0.0639,0.0639,0,110,110,77,1,threefour,,,,,,,,,,,,,,,,,,,,,,,,,,,,,,,,,,,,,,,,,,,,,,,,,,,,,,,,,,,,,,,,,,,,,,,,,,,,,,,,,,,,,,,,,,,,,,,,,,,,,,,,,,,,,,,,,,,,,,,,,,,,,,,,,,,,,,,,,
,,67235bbabb67c1e547a7a32c,2026-03-17_12h58.15.699,kallum_motion_pilot_GIST_update_2,2026.1.1,Win32,60.24096386,67235bbabb67c1e547a7a32c,69b92ab4aef6dee357cd729a,69b93395b198ea1fc7d0cd4e,0.064,0.064,0,111,111,42,1,twoone,,,,,,,,,,,,,,,,,,,,,,,,,,,,,,,,,,,,,,,,,,,,,,,,,,,,,,,,,,,,,,,,,,,,,,,,,,,,,,,,,,,,,,,,,,,,,,,,,,,,,,,,,,,,,,,,,,,,,,,,,,,,,,,,,,,,,,,,,
,,67235bbabb67c1e547a7a32c,2026-03-17_12h58.15.699,kallum_motion_pilot_GIST_update_2,2026.1.1,Win32,60.24096386,67235bbabb67c1e547a7a32c,69b92ab4aef6dee357cd729a,69b93395b198ea1fc7d0cd4e,0.0642,0.0642,0,112,112,11,1,twofour,,,,,,,,,,,,,,,,,,,,,,,,,,,,,,,,,,,,,,,,,,,,,,,,,,,,,,,,,,,,,,,,,,,,,,,,,,,,,,,,,,,,,,,,,,,,,,,,,,,,,,,,,,,,,,,,,,,,,,,,,,,,,,,,,,,,,,,,,
,,67235bbabb67c1e547a7a32c,2026-03-17_12h58.15.699,kallum_motion_pilot_GIST_update_2,2026.1.1,Win32,60.24096386,67235bbabb67c1e547a7a32c,69b92ab4aef6dee357cd729a,69b93395b198ea1fc7d0cd4e,0.0644,0.0644,0,113,113,118,1,eightsix,,,,,,,,,,,,,,,,,,,,,,,,,,,,,,,,,,,,,,,,,,,,,,,,,,,,,,,,,,,,,,,,,,,,,,,,,,,,,,,,,,,,,,,,,,,,,,,,,,,,,,,,,,,,,,,,,,,,,,,,,,,,,,,,,,,,,,,,,
,,67235bbabb67c1e547a7a32c,2026-03-17_12h58.15.699,kallum_motion_pilot_GIST_update_2,2026.1.1,Win32,60.24096386,67235bbabb67c1e547a7a32c,69b92ab4aef6dee357cd729a,69b93395b198ea1fc7d0cd4e,0.0645,0.0645,0,114,114,140,1,sevenfive,,,,,,,,,,,,,,,,,,,,,,,,,,,,,,,,,,,,,,,,,,,,,,,,,,,,,,,,,,,,,,,,,,,,,,,,,,,,,,,,,,,,,,,,,,,,,,,,,,,,,,,,,,,,,,,,,,,,,,,,,,,,,,,,,,,,,,,,,
,,67235bbabb67c1e547a7a32c,2026-03-17_12h58.15.699,kallum_motion_pilot_GIST_update_2,2026.1.1,Win32,60.24096386,67235bbabb67c1e547a7a32c,69b92ab4aef6dee357cd729a,69b93395b198ea1fc7d0cd4e,0.0647,0.0647,0,115,115,22,1,fourtwo,,,,,,,,,,,,,,,,,,,,,,,,,,,,,,,,,,,,,,,,,,,,,,,,,,,,,,,,,,,,,,,,,,,,,,,,,,,,,,,,,,,,,,,,,,,,,,,,,,,,,,,,,,,,,,,,,,,,,,,,,,,,,,,,,,,,,,,,,
,,67235bbabb67c1e547a7a32c,2026-03-17_12h58.15.699,kallum_motion_pilot_GIST_update_2,2026.1.1,Win32,60.24096386,67235bbabb67c1e547a7a32c,69b92ab4aef6dee357cd729a,69b93395b198ea1fc7d0cd4e,0.0649,0.0649,0,116,116,75,1,twofour,,,,,,,,,,,,,,,,,,,,,,,,,,,,,,,,,,,,,,,,,,,,,,,,,,,,,,,,,,,,,,,,,,,,,,,,,,,,,,,,,,,,,,,,,,,,,,,,,,,,,,,,,,,,,,,,,,,,,,,,,,,,,,,,,,,,,,,,,
,,67235bbabb67c1e547a7a32c,2026-03-17_12h58.15.699,kallum_motion_pilot_GIST_update_2,2026.1.1,Win32,60.24096386,67235bbabb67c1e547a7a32c,69b92ab4aef6dee357cd729a,69b93395b198ea1fc7d0cd4e,0.065,0.065,0,117,117,113,1,fiveseven,,,,,,,,,,,,,,,,,,,,,,,,,,,,,,,,,,,,,,,,,,,,,,,,,,,,,,,,,,,,,,,,,,,,,,,,,,,,,,,,,,,,,,,,,,,,,,,,,,,,,,,,,,,,,,,,,,,,,,,,,,,,,,,,,,,,,,,,,
,,67235bbabb67c1e547a7a32c,2026-03-17_12h58.15.699,kallum_motion_pilot_GIST_update_2,2026.1.1,Win32,60.24096386,67235bbabb67c1e547a7a32c,69b92ab4aef6dee357cd729a,69b93395b198ea1fc7d0cd4e,0.0652,0.0652,0,118,118,38,1,fourtwo,,,,,,,,,,,,,,,,,,,,,,,,,,,,,,,,,,,,,,,,,,,,,,,,,,,,,,,,,,,,,,,,,,,,,,,,,,,,,,,,,,,,,,,,,,,,,,,,,,,,,,,,,,,,,,,,,,,,,,,,,,,,,,,,,,,,,,,,,
,,67235bbabb67c1e547a7a32c,2026-03-17_12h58.15.699,kallum_motion_pilot_GIST_update_2,2026.1.1,Win32,60.24096386,67235bbabb67c1e547a7a32c,69b92ab4aef6dee357cd729a,69b93395b198ea1fc7d0cd4e,0.0653,0.0653,0,119,119,30,1,fourtwo,,,,,,,,,,,,,,,,,,,,,,,,,,,,,,,,,,,,,,,,,,,,,,,,,,,,,,,,,,,,,,,,,,,,,,,,,,,,,,,,,,,,,,,,,,,,,,,,,,,,,,,,,,,,,,,,,,,,,,,,,,,,,,,,,,,,,,,,,
,,67235bbabb67c1e547a7a32c,2026-03-17_12h58.15.699,kallum_motion_pilot_GIST_update_2,2026.1.1,Win32,60.24096386,67235bbabb67c1e547a7a32c,69b92ab4aef6dee357cd729a,69b93395b198ea1fc7d0cd4e,0.0654,0.0654,0,120,120,131,1,sixeight,,,,,,,,,,,,,,,,,,,,,,,,,,,,,,,,,,,,,,,,,,,,,,,,,,,,,,,,,,,,,,,,,,,,,,,,,,,,,,,,,,,,,,,,,,,,,,,,,,,,,,,,,,,,,,,,,,,,,,,,,,,,,,,,,,,,,,,,,
,,67235bbabb67c1e547a7a32c,2026-03-17_12h58.15.699,kallum_motion_pilot_GIST_update_2,2026.1.1,Win32,60.24096386,67235bbabb67c1e547a7a32c,69b92ab4aef6dee357cd729a,69b93395b198ea1fc7d0cd4e,0.0656,0.0656,0,121,121,137,1,fiveseven,,,,,,,,,,,,,,,,,,,,,,,,,,,,,,,,,,,,,,,,,,,,,,,,,,,,,,,,,,,,,,,,,,,,,,,,,,,,,,,,,,,,,,,,,,,,,,,,,,,,,,,,,,,,,,,,,,,,,,,,,,,,,,,,,,,,,,,,,
,,67235bbabb67c1e547a7a32c,2026-03-17_12h58.15.699,kallum_motion_pilot_GIST_update_2,2026.1.1,Win32,60.24096386,67235bbabb67c1e547a7a32c,69b92ab4aef6dee357cd729a,69b93395b198ea1fc7d0cd4e,0.0658,0.0658,0,122,122,45,1,threefour,,,,,,,,,,,,,,,,,,,,,,,,,,,,,,,,,,,,,,,,,,,,,,,,,,,,,,,,,,,,,,,,,,,,,,,,,,,,,,,,,,,,,,,,,,,,,,,,,,,,,,,,,,,,,,,,,,,,,,,,,,,,,,,,,,,,,,,,,
,,67235bbabb67c1e547a7a32c,2026-03-17_12h58.15.699,kallum_motion_pilot_GIST_update_2,2026.1.1,Win32,60.24096386,67235bbabb67c1e547a7a32c,69b92ab4aef6dee357cd729a,69b93395b198ea1fc7d0cd4e,0.0661,0.0661,0,123,123,138,1,sixfive,,,,,,,,,,,,,,,,,,,,,,,,,,,,,,,,,,,,,,,,,,,,,,,,,,,,,,,,,,,,,,,,,,,,,,,,,,,,,,,,,,,,,,,,,,,,,,,,,,,,,,,,,,,,,,,,,,,,,,,,,,,,,,,,,,,,,,,,,
,,67235bbabb67c1e547a7a32c,2026-03-17_12h58.15.699,kallum_motion_pilot_GIST_update_2,2026.1.1,Win32,60.24096386,67235bbabb67c1e547a7a32c,69b92ab4aef6dee357cd729a,69b93395b198ea1fc7d0cd4e,0.0666,0.0666,0,124,124,65,1,onethree,,,,,,,,,,,,,,,,,,,,,,,,,,,,,,,,,,,,,,,,,,,,,,,,,,,,,,,,,,,,,,,,,,,,,,,,,,,,,,,,,,,,,,,,,,,,,,,,,,,,,,,,,,,,,,,,,,,,,,,,,,,,,,,,,,,,,,,,,
,,67235bbabb67c1e547a7a32c,2026-03-17_12h58.15.699,kallum_motion_pilot_GIST_update_2,2026.1.1,Win32,60.24096386,67235bbabb67c1e547a7a32c,69b92ab4aef6dee357cd729a,69b93395b198ea1fc7d0cd4e,0.0668,0.0669,0,125,125,159,1,eightseven,,,,,,,,,,,,,,,,,,,,,,,,,,,,,,,,,,,,,,,,,,,,,,,,,,,,,,,,,,,,,,,,,,,,,,,,,,,,,,,,,,,,,,,,,,,,,,,,,,,,,,,,,,,,,,,,,,,,,,,,,,,,,,,,,,,,,,,,,
,,67235bbabb67c1e547a7a32c,2026-03-17_12h58.15.699,kallum_motion_pilot_GIST_update_2,2026.1.1,Win32,60.24096386,67235bbabb67c1e547a7a32c,69b92ab4aef6dee357cd729a,69b93395b198ea1fc7d0cd4e,0.0671,0.0671,0,126,126,117,1,seveneight,,,,,,,,,,,,,,,,,,,,,,,,,,,,,,,,,,,,,,,,,,,,,,,,,,,,,,,,,,,,,,,,,,,,,,,,,,,,,,,,,,,,,,,,,,,,,,,,,,,,,,,,,,,,,,,,,,,,,,,,,,,,,,,,,,,,,,,,,
,,67235bbabb67c1e547a7a32c,2026-03-17_12h58.15.699,kallum_motion_pilot_GIST_update_2,2026.1.1,Win32,60.24096386,67235bbabb67c1e547a7a32c,69b92ab4aef6dee357cd729a,69b93395b198ea1fc7d0cd4e,0.0673,0.0673,0,127,127,148,1,sevenfive,,,,,,,,,,,,,,,,,,,,,,,,,,,,,,,,,,,,,,,,,,,,,,,,,,,,,,,,,,,,,,,,,,,,,,,,,,,,,,,,,,,,,,,,,,,,,,,,,,,,,,,,,,,,,,,,,,,,,,,,,,,,,,,,,,,,,,,,,
,,67235bbabb67c1e547a7a32c,2026-03-17_12h58.15.699,kallum_motion_pilot_GIST_update_2,2026.1.1,Win32,60.24096386,67235bbabb67c1e547a7a32c,69b92ab4aef6dee357cd729a,69b93395b198ea1fc7d0cd4e,0.0675,0.0675,0,128,128,143,1,eightseven,,,,,,,,,,,,,,,,,,,,,,,,,,,,,,,,,,,,,,,,,,,,,,,,,,,,,,,,,,,,,,,,,,,,,,,,,,,,,,,,,,,,,,,,,,,,,,,,,,,,,,,,,,,,,,,,,,,,,,,,,,,,,,,,,,,,,,,,,
,,67235bbabb67c1e547a7a32c,2026-03-17_12h58.15.699,kallum_motion_pilot_GIST_update_2,2026.1.1,Win32,60.24096386,67235bbabb67c1e547a7a32c,69b92ab4aef6dee357cd729a,69b93395b198ea1fc7d0cd4e,0.0676,0.0677,0,129,129,105,1,fiveseven,,,,,,,,,,,,,,,,,,,,,,,,,,,,,,,,,,,,,,,,,,,,,,,,,,,,,,,,,,,,,,,,,,,,,,,,,,,,,,,,,,,,,,,,,,,,,,,,,,,,,,,,,,,,,,,,,,,,,,,,,,,,,,,,,,,,,,,,,
,,67235bbabb67c1e547a7a32c,2026-03-17_12h58.15.699,kallum_motion_pilot_GIST_update_2,2026.1.1,Win32,60.24096386,67235bbabb67c1e547a7a32c,69b92ab4aef6dee357cd729a,69b93395b198ea1fc7d0cd4e,0.0679,0.0679,0,130,130,34,1,twoone,,,,,,,,,,,,,,,,,,,,,,,,,,,,,,,,,,,,,,,,,,,,,,,,,,,,,,,,,,,,,,,,,,,,,,,,,,,,,,,,,,,,,,,,,,,,,,,,,,,,,,,,,,,,,,,,,,,,,,,,,,,,,,,,,,,,,,,,,
,,67235bbabb67c1e547a7a32c,2026-03-17_12h58.15.699,kallum_motion_pilot_GIST_update_2,2026.1.1,Win32,60.24096386,67235bbabb67c1e547a7a32c,69b92ab4aef6dee357cd729a,69b93395b198ea1fc7d0cd4e,0.0681,0.0681,0,131,131,54,1,fourtwo,,,,,,,,,,,,,,,,,,,,,,,,,,,,,,,,,,,,,,,,,,,,,,,,,,,,,,,,,,,,,,,,,,,,,,,,,,,,,,,,,,,,,,,,,,,,,,,,,,,,,,,,,,,,,,,,,,,,,,,,,,,,,,,,,,,,,,,,,
,,67235bbabb67c1e547a7a32c,2026-03-17_12h58.15.699,kallum_motion_pilot_GIST_update_2,2026.1.1,Win32,60.24096386,67235bbabb67c1e547a7a32c,69b92ab4aef6dee357cd729a,69b93395b198ea1fc7d0cd4e,0.0683,0.0683,0,132,132,10,1,twoone,,,,,,,,,,,,,,,,,,,,,,,,,,,,,,,,,,,,,,,,,,,,,,,,,,,,,,,,,,,,,,,,,,,,,,,,,,,,,,,,,,,,,,,,,,,,,,,,,,,,,,,,,,,,,,,,,,,,,,,,,,,,,,,,,,,,,,,,,
,,67235bbabb67c1e547a7a32c,2026-03-17_12h58.15.699,kallum_motion_pilot_GIST_update_2,2026.1.1,Win32,60.24096386,67235bbabb67c1e547a7a32c,69b92ab4aef6dee357cd729a,69b93395b198ea1fc7d0cd4e,0.0684,0.0684,0,133,133,41,1,onethree,,,,,,,,,,,,,,,,,,,,,,,,,,,,,,,,,,,,,,,,,,,,,,,,,,,,,,,,,,,,,,,,,,,,,,,,,,,,,,,,,,,,,,,,,,,,,,,,,,,,,,,,,,,,,,,,,,,,,,,,,,,,,,,,,,,,,,,,,
,,67235bbabb67c1e547a7a32c,2026-03-17_12h58.15.699,kallum_motion_pilot_GIST_update_2,2026.1.1,Win32,60.24096386,67235bbabb67c1e547a7a32c,69b92ab4aef6dee357cd729a,69b93395b198ea1fc7d0cd4e,0.0686,0.0686,0,134,134,78,1,fourtwo,,,,,,,,,,,,,,,,,,,,,,,,,,,,,,,,,,,,,,,,,,,,,,,,,,,,,,,,,,,,,,,,,,,,,,,,,,,,,,,,,,,,,,,,,,,,,,,,,,,,,,,,,,,,,,,,,,,,,,,,,,,,,,,,,,,,,,,,,
,,67235bbabb67c1e547a7a32c,2026-03-17_12h58.15.699,kallum_motion_pilot_GIST_update_2,2026.1.1,Win32,60.24096386,67235bbabb67c1e547a7a32c,69b92ab4aef6dee357cd729a,69b93395b198ea1fc7d0cd4e,0.0688,0.0688,0,135,135,126,1,eightsix,,,,,,,,,,,,,,,,,,,,,,,,,,,,,,,,,,,,,,,,,,,,,,,,,,,,,,,,,,,,,,,,,,,,,,,,,,,,,,,,,,,,,,,,,,,,,,,,,,,,,,,,,,,,,,,,,,,,,,,,,,,,,,,,,,,,,,,,,
,,67235bbabb67c1e547a7a32c,2026-03-17_12h58.15.699,kallum_motion_pilot_GIST_update_2,2026.1.1,Win32,60.24096386,67235bbabb67c1e547a7a32c,69b92ab4aef6dee357cd729a,69b93395b198ea1fc7d0cd4e,0.0689,0.0689,0,136,136,109,1,seveneight,,,,,,,,,,,,,,,,,,,,,,,,,,,,,,,,,,,,,,,,,,,,,,,,,,,,,,,,,,,,,,,,,,,,,,,,,,,,,,,,,,,,,,,,,,,,,,,,,,,,,,,,,,,,,,,,,,,,,,,,,,,,,,,,,,,,,,,,,
,,67235bbabb67c1e547a7a32c,2026-03-17_12h58.15.699,kallum_motion_pilot_GIST_update_2,2026.1.1,Win32,60.24096386,67235bbabb67c1e547a7a32c,69b92ab4aef6dee357cd729a,69b93395b198ea1fc7d0cd4e,0.0691,0.0691,0,137,137,106,1,sixfive,,,,,,,,,,,,,,,,,,,,,,,,,,,,,,,,,,,,,,,,,,,,,,,,,,,,,,,,,,,,,,,,,,,,,,,,,,,,,,,,,,,,,,,,,,,,,,,,,,,,,,,,,,,,,,,,,,,,,,,,,,,,,,,,,,,,,,,,,
,,67235bbabb67c1e547a7a32c,2026-03-17_12h58.15.699,kallum_motion_pilot_GIST_update_2,2026.1.1,Win32,60.24096386,67235bbabb67c1e547a7a32c,69b92ab4aef6dee357cd729a,69b93395b198ea1fc7d0cd4e,0.0693,0.0693,0,138,138,116,1,sevenfive,,,,,,,,,,,,,,,,,,,,,,,,,,,,,,,,,,,,,,,,,,,,,,,,,,,,,,,,,,,,,,,,,,,,,,,,,,,,,,,,,,,,,,,,,,,,,,,,,,,,,,,,,,,,,,,,,,,,,,,,,,,,,,,,,,,,,,,,,
,,67235bbabb67c1e547a7a32c,2026-03-17_12h58.15.699,kallum_motion_pilot_GIST_update_2,2026.1.1,Win32,60.24096386,67235bbabb67c1e547a7a32c,69b92ab4aef6dee357cd729a,69b93395b198ea1fc7d0cd4e,0.0694,0.0694,0,139,139,76,1,threeone,,,,,,,,,,,,,,,,,,,,,,,,,,,,,,,,,,,,,,,,,,,,,,,,,,,,,,,,,,,,,,,,,,,,,,,,,,,,,,,,,,,,,,,,,,,,,,,,,,,,,,,,,,,,,,,,,,,,,,,,,,,,,,,,,,,,,,,,,
,,67235bbabb67c1e547a7a32c,2026-03-17_12h58.15.699,kallum_motion_pilot_GIST_update_2,2026.1.1,Win32,60.24096386,67235bbabb67c1e547a7a32c,69b92ab4aef6dee357cd729a,69b93395b198ea1fc7d0cd4e,0.0696,0.0697,0,140,140,85,1,seveneight,,,,,,,,,,,,,,,,,,,,,,,,,,,,,,,,,,,,,,,,,,,,,,,,,,,,,,,,,,,,,,,,,,,,,,,,,,,,,,,,,,,,,,,,,,,,,,,,,,,,,,,,,,,,,,,,,,,,,,,,,,,,,,,,,,,,,,,,,
,,67235bbabb67c1e547a7a32c,2026-03-17_12h58.15.699,kallum_motion_pilot_GIST_update_2,2026.1.1,Win32,60.24096386,67235bbabb67c1e547a7a32c,69b92ab4aef6dee357cd729a,69b93395b198ea1fc7d0cd4e,0.0697,0.0697,0,141,141,64,1,onetwo,,,,,,,,,,,,,,,,,,,,,,,,,,,,,,,,,,,,,,,,,,,,,,,,,,,,,,,,,,,,,,,,,,,,,,,,,,,,,,,,,,,,,,,,,,,,,,,,,,,,,,,,,,,,,,,,,,,,,,,,,,,,,,,,,,,,,,,,,
,,67235bbabb67c1e547a7a32c,2026-03-17_12h58.15.699,kallum_motion_pilot_GIST_update_2,2026.1.1,Win32,60.24096386,67235bbabb67c1e547a7a32c,69b92ab4aef6dee357cd729a,69b93395b198ea1fc7d0cd4e,0.0699,0.0699,0,142,142,110,1,eightsix,,,,,,,,,,,,,,,,,,,,,,,,,,,,,,,,,,,,,,,,,,,,,,,,,,,,,,,,,,,,,,,,,,,,,,,,,,,,,,,,,,,,,,,,,,,,,,,,,,,,,,,,,,,,,,,,,,,,,,,,,,,,,,,,,,,,,,,,,
,,67235bbabb67c1e547a7a32c,2026-03-17_12h58.15.699,kallum_motion_pilot_GIST_update_2,2026.1.1,Win32,60.24096386,67235bbabb67c1e547a7a32c,69b92ab4aef6dee357cd729a,69b93395b198ea1fc7d0cd4e,0.0701,0.0701,0,143,143,150,1,eightsix,,,,,,,,,,,,,,,,,,,,,,,,,,,,,,,,,,,,,,,,,,,,,,,,,,,,,,,,,,,,,,,,,,,,,,,,,,,,,,,,,,,,,,,,,,,,,,,,,,,,,,,,,,,,,,,,,,,,,,,,,,,,,,,,,,,,,,,,,
,,67235bbabb67c1e547a7a32c,2026-03-17_12h58.15.699,kallum_motion_pilot_GIST_update_2,2026.1.1,Win32,60.24096386,67235bbabb67c1e547a7a32c,69b92ab4aef6dee357cd729a,69b93395b198ea1fc7d0cd4e,0.0702,0.0702,0,144,144,133,1,seveneight,,,,,,,,,,,,,,,,,,,,,,,,,,,,,,,,,,,,,,,,,,,,,,,,,,,,,,,,,,,,,,,,,,,,,,,,,,,,,,,,,,,,,,,,,,,,,,,,,,,,,,,,,,,,,,,,,,,,,,,,,,,,,,,,,,,,,,,,,
,,67235bbabb67c1e547a7a32c,2026-03-17_12h58.15.699,kallum_motion_pilot_GIST_update_2,2026.1.1,Win32,60.24096386,67235bbabb67c1e547a7a32c,69b92ab4aef6dee357cd729a,69b93395b198ea1fc7d0cd4e,0.0704,0.0704,0,145,145,0,1,onetwo,,,,,,,,,,,,,,,,,,,,,,,,,,,,,,,,,,,,,,,,,,,,,,,,,,,,,,,,,,,,,,,,,,,,,,,,,,,,,,,,,,,,,,,,,,,,,,,,,,,,,,,,,,,,,,,,,,,,,,,,,,,,,,,,,,,,,,,,,
,,67235bbabb67c1e547a7a32c,2026-03-17_12h58.15.699,kallum_motion_pilot_GIST_update_2,2026.1.1,Win32,60.24096386,67235bbabb67c1e547a7a32c,69b92ab4aef6dee357cd729a,69b93395b198ea1fc7d0cd4e,0.0705,0.0705,0,146,146,27,1,twofour,,,,,,,,,,,,,,,,,,,,,,,,,,,,,,,,,,,,,,,,,,,,,,,,,,,,,,,,,,,,,,,,,,,,,,,,,,,,,,,,,,,,,,,,,,,,,,,,,,,,,,,,,,,,,,,,,,,,,,,,,,,,,,,,,,,,,,,,,
,,67235bbabb67c1e547a7a32c,2026-03-17_12h58.15.699,kallum_motion_pilot_GIST_update_2,2026.1.1,Win32,60.24096386,67235bbabb67c1e547a7a32c,69b92ab4aef6dee357cd729a,69b93395b198ea1fc7d0cd4e,0.0707,0.0707,0,147,147,70,1,fourtwo,,,,,,,,,,,,,,,,,,,,,,,,,,,,,,,,,,,,,,,,,,,,,,,,,,,,,,,,,,,,,,,,,,,,,,,,,,,,,,,,,,,,,,,,,,,,,,,,,,,,,,,,,,,,,,,,,,,,,,,,,,,,,,,,,,,,,,,,,
,,67235bbabb67c1e547a7a32c,2026-03-17_12h58.15.699,kallum_motion_pilot_GIST_update_2,2026.1.1,Win32,60.24096386,67235bbabb67c1e547a7a32c,69b92ab4aef6dee357cd729a,69b93395b198ea1fc7d0cd4e,0.0709,0.0709,0,148,148,134,1,eightsix,,,,,,,,,,,,,,,,,,,,,,,,,,,,,,,,,,,,,,,,,,,,,,,,,,,,,,,,,,,,,,,,,,,,,,,,,,,,,,,,,,,,,,,,,,,,,,,,,,,,,,,,,,,,,,,,,,,,,,,,,,,,,,,,,,,,,,,,,
,,67235bbabb67c1e547a7a32c,2026-03-17_12h58.15.699,kallum_motion_pilot_GIST_update_2,2026.1.1,Win32,60.24096386,67235bbabb67c1e547a7a32c,69b92ab4aef6dee357cd729a,69b93395b198ea1fc7d0cd4e,0.071,0.071,0,149,149,20,1,threeone,,,,,,,,,,,,,,,,,,,,,,,,,,,,,,,,,,,,,,,,,,,,,,,,,,,,,,,,,,,,,,,,,,,,,,,,,,,,,,,,,,,,,,,,,,,,,,,,,,,,,,,,,,,,,,,,,,,,,,,,,,,,,,,,,,,,,,,,,
,,67235bbabb67c1e547a7a32c,2026-03-17_12h58.15.699,kallum_motion_pilot_GIST_update_2,2026.1.1,Win32,60.24096386,67235bbabb67c1e547a7a32c,69b92ab4aef6dee357cd729a,69b93395b198ea1fc7d0cd4e,0.0711,0.0711,0,150,150,129,1,fiveseven,,,,,,,,,,,,,,,,,,,,,,,,,,,,,,,,,,,,,,,,,,,,,,,,,,,,,,,,,,,,,,,,,,,,,,,,,,,,,,,,,,,,,,,,,,,,,,,,,,,,,,,,,,,,,,,,,,,,,,,,,,,,,,,,,,,,,,,,,
,,67235bbabb67c1e547a7a32c,2026-03-17_12h58.15.699,kallum_motion_pilot_GIST_update_2,2026.1.1,Win32,60.24096386,67235bbabb67c1e547a7a32c,69b92ab4aef6dee357cd729a,69b93395b198ea1fc7d0cd4e,0.0713,0.0713,0,151,151,49,1,onethree,,,,,,,,,,,,,,,,,,,,,,,,,,,,,,,,,,,,,,,,,,,,,,,,,,,,,,,,,,,,,,,,,,,,,,,,,,,,,,,,,,,,,,,,,,,,,,,,,,,,,,,,,,,,,,,,,,,,,,,,,,,,,,,,,,,,,,,,,
,,67235bbabb67c1e547a7a32c,2026-03-17_12h58.15.699,kallum_motion_pilot_GIST_update_2,2026.1.1,Win32,60.24096386,67235bbabb67c1e547a7a32c,69b92ab4aef6dee357cd729a,69b93395b198ea1fc7d0cd4e,0.0715,0.0715,0,152,152,93,1,seveneight,,,,,,,,,,,,,,,,,,,,,,,,,,,,,,,,,,,,,,,,,,,,,,,,,,,,,,,,,,,,,,,,,,,,,,,,,,,,,,,,,,,,,,,,,,,,,,,,,,,,,,,,,,,,,,,,,,,,,,,,,,,,,,,,,,,,,,,,,
,,67235bbabb67c1e547a7a32c,2026-03-17_12h58.15.699,kallum_motion_pilot_GIST_update_2,2026.1.1,Win32,60.24096386,67235bbabb67c1e547a7a32c,69b92ab4aef6dee357cd729a,69b93395b198ea1fc7d0cd4e,0.0717,0.0717,0,153,153,18,1,twoone,,,,,,,,,,,,,,,,,,,,,,,,,,,,,,,,,,,,,,,,,,,,,,,,,,,,,,,,,,,,,,,,,,,,,,,,,,,,,,,,,,,,,,,,,,,,,,,,,,,,,,,,,,,,,,,,,,,,,,,,,,,,,,,,,,,,,,,,,
,,67235bbabb67c1e547a7a32c,2026-03-17_12h58.15.699,kallum_motion_pilot_GIST_update_2,2026.1.1,Win32,60.24096386,67235bbabb67c1e547a7a32c,69b92ab4aef6dee357cd729a,69b93395b198ea1fc7d0cd4e,0.0718,0.0718,0,154,154,83,1,sixeight,,,,,,,,,,,,,,,,,,,,,,,,,,,,,,,,,,,,,,,,,,,,,,,,,,,,,,,,,,,,,,,,,,,,,,,,,,,,,,,,,,,,,,,,,,,,,,,,,,,,,,,,,,,,,,,,,,,,,,,,,,,,,,,,,,,,,,,,,
,,67235bbabb67c1e547a7a32c,2026-03-17_12h58.15.699,kallum_motion_pilot_GIST_update_2,2026.1.1,Win32,60.24096386,67235bbabb67c1e547a7a32c,69b92ab4aef6dee357cd729a,69b93395b198ea1fc7d0cd4e,0.072,0.072,0,155,155,122,1,sixfive,,,,,,,,,,,,,,,,,,,,,,,,,,,,,,,,,,,,,,,,,,,,,,,,,,,,,,,,,,,,,,,,,,,,,,,,,,,,,,,,,,,,,,,,,,,,,,,,,,,,,,,,,,,,,,,,,,,,,,,,,,,,,,,,,,,,,,,,,
,,67235bbabb67c1e547a7a32c,2026-03-17_12h58.15.699,kallum_motion_pilot_GIST_update_2,2026.1.1,Win32,60.24096386,67235bbabb67c1e547a7a32c,69b92ab4aef6dee357cd729a,69b93395b198ea1fc7d0cd4e,0.0721,0.0721,0,156,156,31,1,fourthree,,,,,,,,,,,,,,,,,,,,,,,,,,,,,,,,,,,,,,,,,,,,,,,,,,,,,,,,,,,,,,,,,,,,,,,,,,,,,,,,,,,,,,,,,,,,,,,,,,,,,,,,,,,,,,,,,,,,,,,,,,,,,,,,,,,,,,,,,
,,67235bbabb67c1e547a7a32c,2026-03-17_12h58.15.699,kallum_motion_pilot_GIST_update_2,2026.1.1,Win32,60.24096386,67235bbabb67c1e547a7a32c,69b92ab4aef6dee357cd729a,69b93395b198ea1fc7d0cd4e,0.0722,0.0722,0,157,157,56,1,onetwo,,,,,,,,,,,,,,,,,,,,,,,,,,,,,,,,,,,,,,,,,,,,,,,,,,,,,,,,,,,,,,,,,,,,,,,,,,,,,,,,,,,,,,,,,,,,,,,,,,,,,,,,,,,,,,,,,,,,,,,,,,,,,,,,,,,,,,,,,
,,67235bbabb67c1e547a7a32c,2026-03-17_12h58.15.699,kallum_motion_pilot_GIST_update_2,2026.1.1,Win32,60.24096386,67235bbabb67c1e547a7a32c,69b92ab4aef6dee357cd729a,69b93395b198ea1fc7d0cd4e,0.0726,0.0726,0,158,158,154,1,sixfive,,,,,,,,,,,,,,,,,,,,,,,,,,,,,,,,,,,,,,,,,,,,,,,,,,,,,,,,,,,,,,,,,,,,,,,,,,,,,,,,,,,,,,,,,,,,,,,,,,,,,,,,,,,,,,,,,,,,,,,,,,,,,,,,,,,,,,,,,
,,67235bbabb67c1e547a7a32c,2026-03-17_12h58.15.699,kallum_motion_pilot_GIST_update_2,2026.1.1,Win32,60.24096386,67235bbabb67c1e547a7a32c,69b92ab4aef6dee357cd729a,69b93395b198ea1fc7d0cd4e,0.0728,0.0728,0,159,159,23,1,fourthree,,,,,,,,,,,,,,,,,,,,,,,,,,,,,,,,,,,,,,,,,,,,,,,,,,,,,,,,,,,,,,,,,,,,,,,,,,,,,,,,,,,,,,,,,,,,,,,,,,,,,,,,,,,,,,,,,,,,,,,,,,,,,,,,,,,,,,,,,
,,67235bbabb67c1e547a7a32c,2026-03-17_12h58.15.699,kallum_motion_pilot_GIST_update_2,2026.1.1,Win32,60.24096386,67235bbabb67c1e547a7a32c,69b92ab4aef6dee357cd729a,69b93395b198ea1fc7d0cd4e,0.073,0.073,0,160,160,29,1,threefour,,,,,,,,,,,,,,,,,,,,,,,,,,,,,,,,,,,,,,,,,,,,,,,,,,,,,,,,,,,,,,,,,,,,,,,,,,,,,,,,,,,,,,,,,,,,,,,,,,,,,,,,,,,,,,,,,,,,,,,,,,,,,,,,,,,,,,,,,
,,67235bbabb67c1e547a7a32c,2026-03-17_12h58.15.699,kallum_motion_pilot_GIST_update_2,2026.1.1,Win32,60.24096386,67235bbabb67c1e547a7a32c,69b92ab4aef6dee357cd729a,69b93395b198ea1fc7d0cd4e,0.0732,0.0732,0,161,161,147,1,sixeight,,,,,,,,,,,,,,,,,,,,,,,,,,,,,,,,,,,,,,,,,,,,,,,,,,,,,,,,,,,,,,,,,,,,,,,,,,,,,,,,,,,,,,,,,,,,,,,,,,,,,,,,,,,,,,,,,,,,,,,,,,,,,,,,,,,,,,,,,
,,67235bbabb67c1e547a7a32c,2026-03-17_12h58.15.699,kallum_motion_pilot_GIST_update_2,2026.1.1,Win32,60.24096386,67235bbabb67c1e547a7a32c,69b92ab4aef6dee357cd729a,69b93395b198ea1fc7d0cd4e,0.0734,0.0735,1,0,162,30,1,fourtwo,,,,,,,,,,,,,,,,,,,,,,,,,,,,,,,,,,,,,,,,,,,,,,,,,,,,,,,,,,,,,,,,,,,,,,,,,,,,,,,,,,,,,,,,,,,,,,,,,,,,,,,,,,,,,,,,,,,,,,,,,,,,,,,,,,,,,,,,,
,,67235bbabb67c1e547a7a32c,2026-03-17_12h58.15.699,kallum_motion_pilot_GIST_update_2,2026.1.1,Win32,60.24096386,67235bbabb67c1e547a7a32c,69b92ab4aef6dee357cd729a,69b93395b198ea1fc7d0cd4e,0.0737,0.0737,1,1,163,58,1,twoone,,,,,,,,,,,,,,,,,,,,,,,,,,,,,,,,,,,,,,,,,,,,,,,,,,,,,,,,,,,,,,,,,,,,,,,,,,,,,,,,,,,,,,,,,,,,,,,,,,,,,,,,,,,,,,,,,,,,,,,,,,,,,,,,,,,,,,,,,
,,67235bbabb67c1e547a7a32c,2026-03-17_12h58.15.699,kallum_motion_pilot_GIST_update_2,2026.1.1,Win32,60.24096386,67235bbabb67c1e547a7a32c,69b92ab4aef6dee357cd729a,69b93395b198ea1fc7d0cd4e,0.0739,0.0739,1,2,164,1,1,onethree,,,,,,,,,,,,,,,,,,,,,,,,,,,,,,,,,,,,,,,,,,,,,,,,,,,,,,,,,,,,,,,,,,,,,,,,,,,,,,,,,,,,,,,,,,,,,,,,,,,,,,,,,,,,,,,,,,,,,,,,,,,,,,,,,,,,,,,,,
,,67235bbabb67c1e547a7a32c,2026-03-17_12h58.15.699,kallum_motion_pilot_GIST_update_2,2026.1.1,Win32,60.24096386,67235bbabb67c1e547a7a32c,69b92ab4aef6dee357cd729a,69b93395b198ea1fc7d0cd4e,0.074,0.074,1,3,165,136,1,fivesix,,,,,,,,,,,,,,,,,,,,,,,,,,,,,,,,,,,,,,,,,,,,,,,,,,,,,,,,,,,,,,,,,,,,,,,,,,,,,,,,,,,,,,,,,,,,,,,,,,,,,,,,,,,,,,,,,,,,,,,,,,,,,,,,,,,,,,,,,
,,67235bbabb67c1e547a7a32c,2026-03-17_12h58.15.699,kallum_motion_pilot_GIST_update_2,2026.1.1,Win32,60.24096386,67235bbabb67c1e547a7a32c,69b92ab4aef6dee357cd729a,69b93395b198ea1fc7d0cd4e,0.0742,0.0742,1,4,166,17,1,onethree,,,,,,,,,,,,,,,,,,,,,,,,,,,,,,,,,,,,,,,,,,,,,,,,,,,,,,,,,,,,,,,,,,,,,,,,,,,,,,,,,,,,,,,,,,,,,,,,,,,,,,,,,,,,,,,,,,,,,,,,,,,,,,,,,,,,,,,,,
,,67235bbabb67c1e547a7a32c,2026-03-17_12h58.15.699,kallum_motion_pilot_GIST_update_2,2026.1.1,Win32,60.24096386,67235bbabb67c1e547a7a32c,69b92ab4aef6dee357cd729a,69b93395b198ea1fc7d0cd4e,0.0743,0.0743,1,5,167,86,1,eightsix,,,,,,,,,,,,,,,,,,,,,,,,,,,,,,,,,,,,,,,,,,,,,,,,,,,,,,,,,,,,,,,,,,,,,,,,,,,,,,,,,,,,,,,,,,,,,,,,,,,,,,,,,,,,,,,,,,,,,,,,,,,,,,,,,,,,,,,,,
,,67235bbabb67c1e547a7a32c,2026-03-17_12h58.15.699,kallum_motion_pilot_GIST_update_2,2026.1.1,Win32,60.24096386,67235bbabb67c1e547a7a32c,69b92ab4aef6dee357cd729a,69b93395b198ea1fc7d0cd4e,0.0746,0.0746,1,6,168,25,1,onethree,,,,,,,,,,,,,,,,,,,,,,,,,,,,,,,,,,,,,,,,,,,,,,,,,,,,,,,,,,,,,,,,,,,,,,,,,,,,,,,,,,,,,,,,,,,,,,,,,,,,,,,,,,,,,,,,,,,,,,,,,,,,,,,,,,,,,,,,,
,,67235bbabb67c1e547a7a32c,2026-03-17_12h58.15.699,kallum_motion_pilot_GIST_update_2,2026.1.1,Win32,60.24096386,67235bbabb67c1e547a7a32c,69b92ab4aef6dee357cd729a,69b93395b198ea1fc7d0cd4e,0.0748,0.0748,1,7,169,113,1,fiveseven,,,,,,,,,,,,,,,,,,,,,,,,,,,,,,,,,,,,,,,,,,,,,,,,,,,,,,,,,,,,,,,,,,,,,,,,,,,,,,,,,,,,,,,,,,,,,,,,,,,,,,,,,,,,,,,,,,,,,,,,,,,,,,,,,,,,,,,,,
,,67235bbabb67c1e547a7a32c,2026-03-17_12h58.15.699,kallum_motion_pilot_GIST_update_2,2026.1.1,Win32,60.24096386,67235bbabb67c1e547a7a32c,69b92ab4aef6dee357cd729a,69b93395b198ea1fc7d0cd4e,0.075,0.075,1,8,170,153,1,fiveseven,,,,,,,,,,,,,,,,,,,,,,,,,,,,,,,,,,,,,,,,,,,,,,,,,,,,,,,,,,,,,,,,,,,,,,,,,,,,,,,,,,,,,,,,,,,,,,,,,,,,,,,,,,,,,,,,,,,,,,,,,,,,,,,,,,,,,,,,,
,,67235bbabb67c1e547a7a32c,2026-03-17_12h58.15.699,kallum_motion_pilot_GIST_update_2,2026.1.1,Win32,60.24096386,67235bbabb67c1e547a7a32c,69b92ab4aef6dee357cd729a,69b93395b198ea1fc7d0cd4e,0.0752,0.0752,1,9,171,154,1,sixfive,,,,,,,,,,,,,,,,,,,,,,,,,,,,,,,,,,,,,,,,,,,,,,,,,,,,,,,,,,,,,,,,,,,,,,,,,,,,,,,,,,,,,,,,,,,,,,,,,,,,,,,,,,,,,,,,,,,,,,,,,,,,,,,,,,,,,,,,,
,,67235bbabb67c1e547a7a32c,2026-03-17_12h58.15.699,kallum_motion_pilot_GIST_update_2,2026.1.1,Win32,60.24096386,67235bbabb67c1e547a7a32c,69b92ab4aef6dee357cd729a,69b93395b198ea1fc7d0cd4e,0.0753,0.0753,1,10,172,106,1,sixfive,,,,,,,,,,,,,,,,,,,,,,,,,,,,,,,,,,,,,,,,,,,,,,,,,,,,,,,,,,,,,,,,,,,,,,,,,,,,,,,,,,,,,,,,,,,,,,,,,,,,,,,,,,,,,,,,,,,,,,,,,,,,,,,,,,,,,,,,,
,,67235bbabb67c1e547a7a32c,2026-03-17_12h58.15.699,kallum_motion_pilot_GIST_update_2,2026.1.1,Win32,60.24096386,67235bbabb67c1e547a7a32c,69b92ab4aef6dee357cd729a,69b93395b198ea1fc7d0cd4e,0.0755,0.0755,1,11,173,37,1,threefour,,,,,,,,,,,,,,,,,,,,,,,,,,,,,,,,,,,,,,,,,,,,,,,,,,,,,,,,,,,,,,,,,,,,,,,,,,,,,,,,,,,,,,,,,,,,,,,,,,,,,,,,,,,,,,,,,,,,,,,,,,,,,,,,,,,,,,,,,
,,67235bbabb67c1e547a7a32c,2026-03-17_12h58.15.699,kallum_motion_pilot_GIST_update_2,2026.1.1,Win32,60.24096386,67235bbabb67c1e547a7a32c,69b92ab4aef6dee357cd729a,69b93395b198ea1fc7d0cd4e,0.0757,0.0757,1,12,174,71,1,fourthree,,,,,,,,,,,,,,,,,,,,,,,,,,,,,,,,,,,,,,,,,,,,,,,,,,,,,,,,,,,,,,,,,,,,,,,,,,,,,,,,,,,,,,,,,,,,,,,,,,,,,,,,,,,,,,,,,,,,,,,,,,,,,,,,,,,,,,,,,
,,67235bbabb67c1e547a7a32c,2026-03-17_12h58.15.699,kallum_motion_pilot_GIST_update_2,2026.1.1,Win32,60.24096386,67235bbabb67c1e547a7a32c,69b92ab4aef6dee357cd729a,69b93395b198ea1fc7d0cd4e,0.0758,0.0758,1,13,175,109,1,seveneight,,,,,,,,,,,,,,,,,,,,,,,,,,,,,,,,,,,,,,,,,,,,,,,,,,,,,,,,,,,,,,,,,,,,,,,,,,,,,,,,,,,,,,,,,,,,,,,,,,,,,,,,,,,,,,,,,,,,,,,,,,,,,,,,,,,,,,,,,
,,67235bbabb67c1e547a7a32c,2026-03-17_12h58.15.699,kallum_motion_pilot_GIST_update_2,2026.1.1,Win32,60.24096386,67235bbabb67c1e547a7a32c,69b92ab4aef6dee357cd729a,69b93395b198ea1fc7d0cd4e,0.076,0.076,1,14,176,23,1,fourthree,,,,,,,,,,,,,,,,,,,,,,,,,,,,,,,,,,,,,,,,,,,,,,,,,,,,,,,,,,,,,,,,,,,,,,,,,,,,,,,,,,,,,,,,,,,,,,,,,,,,,,,,,,,,,,,,,,,,,,,,,,,,,,,,,,,,,,,,,
,,67235bbabb67c1e547a7a32c,2026-03-17_12h58.15.699,kallum_motion_pilot_GIST_update_2,2026.1.1,Win32,60.24096386,67235bbabb67c1e547a7a32c,69b92ab4aef6dee357cd729a,69b93395b198ea1fc7d0cd4e,0.0762,0.0762,1,15,177,13,1,threefour,,,,,,,,,,,,,,,,,,,,,,,,,,,,,,,,,,,,,,,,,,,,,,,,,,,,,,,,,,,,,,,,,,,,,,,,,,,,,,,,,,,,,,,,,,,,,,,,,,,,,,,,,,,,,,,,,,,,,,,,,,,,,,,,,,,,,,,,,
,,67235bbabb67c1e547a7a32c,2026-03-17_12h58.15.699,kallum_motion_pilot_GIST_update_2,2026.1.1,Win32,60.24096386,67235bbabb67c1e547a7a32c,69b92ab4aef6dee357cd729a,69b93395b198ea1fc7d0cd4e,0.0763,0.0763,1,16,178,103,1,eightseven,,,,,,,,,,,,,,,,,,,,,,,,,,,,,,,,,,,,,,,,,,,,,,,,,,,,,,,,,,,,,,,,,,,,,,,,,,,,,,,,,,,,,,,,,,,,,,,,,,,,,,,,,,,,,,,,,,,,,,,,,,,,,,,,,,,,,,,,,
,,67235bbabb67c1e547a7a32c,2026-03-17_12h58.15.699,kallum_motion_pilot_GIST_update_2,2026.1.1,Win32,60.24096386,67235bbabb67c1e547a7a32c,69b92ab4aef6dee357cd729a,69b93395b198ea1fc7d0cd4e,0.0765,0.0765,1,17,179,83,1,sixeight,,,,,,,,,,,,,,,,,,,,,,,,,,,,,,,,,,,,,,,,,,,,,,,,,,,,,,,,,,,,,,,,,,,,,,,,,,,,,,,,,,,,,,,,,,,,,,,,,,,,,,,,,,,,,,,,,,,,,,,,,,,,,,,,,,,,,,,,,
,,67235bbabb67c1e547a7a32c,2026-03-17_12h58.15.699,kallum_motion_pilot_GIST_update_2,2026.1.1,Win32,60.24096386,67235bbabb67c1e547a7a32c,69b92ab4aef6dee357cd729a,69b93395b198ea1fc7d0cd4e,0.0766,0.0767,1,18,180,55,1,fourthree,,,,,,,,,,,,,,,,,,,,,,,,,,,,,,,,,,,,,,,,,,,,,,,,,,,,,,,,,,,,,,,,,,,,,,,,,,,,,,,,,,,,,,,,,,,,,,,,,,,,,,,,,,,,,,,,,,,,,,,,,,,,,,,,,,,,,,,,,
,,67235bbabb67c1e547a7a32c,2026-03-17_12h58.15.699,kallum_motion_pilot_GIST_update_2,2026.1.1,Win32,60.24096386,67235bbabb67c1e547a7a32c,69b92ab4aef6dee357cd729a,69b93395b198ea1fc7d0cd4e,0.0769,0.0769,1,19,181,64,1,onetwo,,,,,,,,,,,,,,,,,,,,,,,,,,,,,,,,,,,,,,,,,,,,,,,,,,,,,,,,,,,,,,,,,,,,,,,,,,,,,,,,,,,,,,,,,,,,,,,,,,,,,,,,,,,,,,,,,,,,,,,,,,,,,,,,,,,,,,,,,
,,67235bbabb67c1e547a7a32c,2026-03-17_12h58.15.699,kallum_motion_pilot_GIST_update_2,2026.1.1,Win32,60.24096386,67235bbabb67c1e547a7a32c,69b92ab4aef6dee357cd729a,69b93395b198ea1fc7d0cd4e,0.077,0.077,1,20,182,96,1,fivesix,,,,,,,,,,,,,,,,,,,,,,,,,,,,,,,,,,,,,,,,,,,,,,,,,,,,,,,,,,,,,,,,,,,,,,,,,,,,,,,,,,,,,,,,,,,,,,,,,,,,,,,,,,,,,,,,,,,,,,,,,,,,,,,,,,,,,,,,,
,,67235bbabb67c1e547a7a32c,2026-03-17_12h58.15.699,kallum_motion_pilot_GIST_update_2,2026.1.1,Win32,60.24096386,67235bbabb67c1e547a7a32c,69b92ab4aef6dee357cd729a,69b93395b198ea1fc7d0cd4e,0.0771,0.0771,1,21,183,56,1,onetwo,,,,,,,,,,,,,,,,,,,,,,,,,,,,,,,,,,,,,,,,,,,,,,,,,,,,,,,,,,,,,,,,,,,,,,,,,,,,,,,,,,,,,,,,,,,,,,,,,,,,,,,,,,,,,,,,,,,,,,,,,,,,,,,,,,,,,,,,,
,,67235bbabb67c1e547a7a32c,2026-03-17_12h58.15.699,kallum_motion_pilot_GIST_update_2,2026.1.1,Win32,60.24096386,67235bbabb67c1e547a7a32c,69b92ab4aef6dee357cd729a,69b93395b198ea1fc7d0cd4e,0.0773,0.0773,1,22,184,132,1,sevenfive,,,,,,,,,,,,,,,,,,,,,,,,,,,,,,,,,,,,,,,,,,,,,,,,,,,,,,,,,,,,,,,,,,,,,,,,,,,,,,,,,,,,,,,,,,,,,,,,,,,,,,,,,,,,,,,,,,,,,,,,,,,,,,,,,,,,,,,,,
,,67235bbabb67c1e547a7a32c,2026-03-17_12h58.15.699,kallum_motion_pilot_GIST_update_2,2026.1.1,Win32,60.24096386,67235bbabb67c1e547a7a32c,69b92ab4aef6dee357cd729a,69b93395b198ea1fc7d0cd4e,0.0775,0.0775,1,23,185,141,1,seveneight,,,,,,,,,,,,,,,,,,,,,,,,,,,,,,,,,,,,,,,,,,,,,,,,,,,,,,,,,,,,,,,,,,,,,,,,,,,,,,,,,,,,,,,,,,,,,,,,,,,,,,,,,,,,,,,,,,,,,,,,,,,,,,,,,,,,,,,,,
,,67235bbabb67c1e547a7a32c,2026-03-17_12h58.15.699,kallum_motion_pilot_GIST_update_2,2026.1.1,Win32,60.24096386,67235bbabb67c1e547a7a32c,69b92ab4aef6dee357cd729a,69b93395b198ea1fc7d0cd4e,0.0777,0.0777,1,24,186,161,1,fiveseven,,,,,,,,,,,,,,,,,,,,,,,,,,,,,,,,,,,,,,,,,,,,,,,,,,,,,,,,,,,,,,,,,,,,,,,,,,,,,,,,,,,,,,,,,,,,,,,,,,,,,,,,,,,,,,,,,,,,,,,,,,,,,,,,,,,,,,,,,
,,67235bbabb67c1e547a7a32c,2026-03-17_12h58.15.699,kallum_motion_pilot_GIST_update_2,2026.1.1,Win32,60.24096386,67235bbabb67c1e547a7a32c,69b92ab4aef6dee357cd729a,69b93395b198ea1fc7d0cd4e,0.0778,0.0779,1,25,187,5,1,threefour,,,,,,,,,,,,,,,,,,,,,,,,,,,,,,,,,,,,,,,,,,,,,,,,,,,,,,,,,,,,,,,,,,,,,,,,,,,,,,,,,,,,,,,,,,,,,,,,,,,,,,,,,,,,,,,,,,,,,,,,,,,,,,,,,,,,,,,,,
,,67235bbabb67c1e547a7a32c,2026-03-17_12h58.15.699,kallum_motion_pilot_GIST_update_2,2026.1.1,Win32,60.24096386,67235bbabb67c1e547a7a32c,69b92ab4aef6dee357cd729a,69b93395b198ea1fc7d0cd4e,0.078,0.078,1,26,188,20,1,threeone,,,,,,,,,,,,,,,,,,,,,,,,,,,,,,,,,,,,,,,,,,,,,,,,,,,,,,,,,,,,,,,,,,,,,,,,,,,,,,,,,,,,,,,,,,,,,,,,,,,,,,,,,,,,,,,,,,,,,,,,,,,,,,,,,,,,,,,,,
,,67235bbabb67c1e547a7a32c,2026-03-17_12h58.15.699,kallum_motion_pilot_GIST_update_2,2026.1.1,Win32,60.24096386,67235bbabb67c1e547a7a32c,69b92ab4aef6dee357cd729a,69b93395b198ea1fc7d0cd4e,0.0783,0.0783,1,27,189,99,1,sixeight,,,,,,,,,,,,,,,,,,,,,,,,,,,,,,,,,,,,,,,,,,,,,,,,,,,,,,,,,,,,,,,,,,,,,,,,,,,,,,,,,,,,,,,,,,,,,,,,,,,,,,,,,,,,,,,,,,,,,,,,,,,,,,,,,,,,,,,,,
,,67235bbabb67c1e547a7a32c,2026-03-17_12h58.15.699,kallum_motion_pilot_GIST_update_2,2026.1.1,Win32,60.24096386,67235bbabb67c1e547a7a32c,69b92ab4aef6dee357cd729a,69b93395b198ea1fc7d0cd4e,0.0785,0.0785,1,28,190,81,1,fiveseven,,,,,,,,,,,,,,,,,,,,,,,,,,,,,,,,,,,,,,,,,,,,,,,,,,,,,,,,,,,,,,,,,,,,,,,,,,,,,,,,,,,,,,,,,,,,,,,,,,,,,,,,,,,,,,,,,,,,,,,,,,,,,,,,,,,,,,,,,
,,67235bbabb67c1e547a7a32c,2026-03-17_12h58.15.699,kallum_motion_pilot_GIST_update_2,2026.1.1,Win32,60.24096386,67235bbabb67c1e547a7a32c,69b92ab4aef6dee357cd729a,69b93395b198ea1fc7d0cd4e,0.0788,0.0788,1,29,191,26,1,twoone,,,,,,,,,,,,,,,,,,,,,,,,,,,,,,,,,,,,,,,,,,,,,,,,,,,,,,,,,,,,,,,,,,,,,,,,,,,,,,,,,,,,,,,,,,,,,,,,,,,,,,,,,,,,,,,,,,,,,,,,,,,,,,,,,,,,,,,,,
,,67235bbabb67c1e547a7a32c,2026-03-17_12h58.15.699,kallum_motion_pilot_GIST_update_2,2026.1.1,Win32,60.24096386,67235bbabb67c1e547a7a32c,69b92ab4aef6dee357cd729a,69b93395b198ea1fc7d0cd4e,0.079,0.079,1,30,192,21,1,threefour,,,,,,,,,,,,,,,,,,,,,,,,,,,,,,,,,,,,,,,,,,,,,,,,,,,,,,,,,,,,,,,,,,,,,,,,,,,,,,,,,,,,,,,,,,,,,,,,,,,,,,,,,,,,,,,,,,,,,,,,,,,,,,,,,,,,,,,,,
,,67235bbabb67c1e547a7a32c,2026-03-17_12h58.15.699,kallum_motion_pilot_GIST_update_2,2026.1.1,Win32,60.24096386,67235bbabb67c1e547a7a32c,69b92ab4aef6dee357cd729a,69b93395b198ea1fc7d0cd4e,0.0792,0.0792,1,31,193,15,1,fourthree,,,,,,,,,,,,,,,,,,,,,,,,,,,,,,,,,,,,,,,,,,,,,,,,,,,,,,,,,,,,,,,,,,,,,,,,,,,,,,,,,,,,,,,,,,,,,,,,,,,,,,,,,,,,,,,,,,,,,,,,,,,,,,,,,,,,,,,,,
,,67235bbabb67c1e547a7a32c,2026-03-17_12h58.15.699,kallum_motion_pilot_GIST_update_2,2026.1.1,Win32,60.24096386,67235bbabb67c1e547a7a32c,69b92ab4aef6dee357cd729a,69b93395b198ea1fc7d0cd4e,0.0796,0.0796,1,32,194,107,1,sixeight,,,,,,,,,,,,,,,,,,,,,,,,,,,,,,,,,,,,,,,,,,,,,,,,,,,,,,,,,,,,,,,,,,,,,,,,,,,,,,,,,,,,,,,,,,,,,,,,,,,,,,,,,,,,,,,,,,,,,,,,,,,,,,,,,,,,,,,,,
,,67235bbabb67c1e547a7a32c,2026-03-17_12h58.15.699,kallum_motion_pilot_GIST_update_2,2026.1.1,Win32,60.24096386,67235bbabb67c1e547a7a32c,69b92ab4aef6dee357cd729a,69b93395b198ea1fc7d0cd4e,0.0798,0.0798,1,33,195,76,1,threeone,,,,,,,,,,,,,,,,,,,,,,,,,,,,,,,,,,,,,,,,,,,,,,,,,,,,,,,,,,,,,,,,,,,,,,,,,,,,,,,,,,,,,,,,,,,,,,,,,,,,,,,,,,,,,,,,,,,,,,,,,,,,,,,,,,,,,,,,,
,,67235bbabb67c1e547a7a32c,2026-03-17_12h58.15.699,kallum_motion_pilot_GIST_update_2,2026.1.1,Win32,60.24096386,67235bbabb67c1e547a7a32c,69b92ab4aef6dee357cd729a,69b93395b198ea1fc7d0cd4e,0.08,0.08,1,34,196,16,1,onetwo,,,,,,,,,,,,,,,,,,,,,,,,,,,,,,,,,,,,,,,,,,,,,,,,,,,,,,,,,,,,,,,,,,,,,,,,,,,,,,,,,,,,,,,,,,,,,,,,,,,,,,,,,,,,,,,,,,,,,,,,,,,,,,,,,,,,,,,,,
,,67235bbabb67c1e547a7a32c,2026-03-17_12h58.15.699,kallum_motion_pilot_GIST_update_2,2026.1.1,Win32,60.24096386,67235bbabb67c1e547a7a32c,69b92ab4aef6dee357cd729a,69b93395b198ea1fc7d0cd4e,0.0802,0.0802,1,35,197,53,1,threefour,,,,,,,,,,,,,,,,,,,,,,,,,,,,,,,,,,,,,,,,,,,,,,,,,,,,,,,,,,,,,,,,,,,,,,,,,,,,,,,,,,,,,,,,,,,,,,,,,,,,,,,,,,,,,,,,,,,,,,,,,,,,,,,,,,,,,,,,,
,,67235bbabb67c1e547a7a32c,2026-03-17_12h58.15.699,kallum_motion_pilot_GIST_update_2,2026.1.1,Win32,60.24096386,67235bbabb67c1e547a7a32c,69b92ab4aef6dee357cd729a,69b93395b198ea1fc7d0cd4e,0.0804,0.0804,1,36,198,12,1,threeone,,,,,,,,,,,,,,,,,,,,,,,,,,,,,,,,,,,,,,,,,,,,,,,,,,,,,,,,,,,,,,,,,,,,,,,,,,,,,,,,,,,,,,,,,,,,,,,,,,,,,,,,,,,,,,,,,,,,,,,,,,,,,,,,,,,,,,,,,
,,67235bbabb67c1e547a7a32c,2026-03-17_12h58.15.699,kallum_motion_pilot_GIST_update_2,2026.1.1,Win32,60.24096386,67235bbabb67c1e547a7a32c,69b92ab4aef6dee357cd729a,69b93395b198ea1fc7d0cd4e,0.0806,0.0806,1,37,199,112,1,fivesix,,,,,,,,,,,,,,,,,,,,,,,,,,,,,,,,,,,,,,,,,,,,,,,,,,,,,,,,,,,,,,,,,,,,,,,,,,,,,,,,,,,,,,,,,,,,,,,,,,,,,,,,,,,,,,,,,,,,,,,,,,,,,,,,,,,,,,,,,
,,67235bbabb67c1e547a7a32c,2026-03-17_12h58.15.699,kallum_motion_pilot_GIST_update_2,2026.1.1,Win32,60.24096386,67235bbabb67c1e547a7a32c,69b92ab4aef6dee357cd729a,69b93395b198ea1fc7d0cd4e,0.0808,0.0808,1,38,200,135,1,eightseven,,,,,,,,,,,,,,,,,,,,,,,,,,,,,,,,,,,,,,,,,,,,,,,,,,,,,,,,,,,,,,,,,,,,,,,,,,,,,,,,,,,,,,,,,,,,,,,,,,,,,,,,,,,,,,,,,,,,,,,,,,,,,,,,,,,,,,,,,
,,67235bbabb67c1e547a7a32c,2026-03-17_12h58.15.699,kallum_motion_pilot_GIST_update_2,2026.1.1,Win32,60.24096386,67235bbabb67c1e547a7a32c,69b92ab4aef6dee357cd729a,69b93395b198ea1fc7d0cd4e,0.0809,0.0809,1,39,201,137,1,fiveseven,,,,,,,,,,,,,,,,,,,,,,,,,,,,,,,,,,,,,,,,,,,,,,,,,,,,,,,,,,,,,,,,,,,,,,,,,,,,,,,,,,,,,,,,,,,,,,,,,,,,,,,,,,,,,,,,,,,,,,,,,,,,,,,,,,,,,,,,,
,,67235bbabb67c1e547a7a32c,2026-03-17_12h58.15.699,kallum_motion_pilot_GIST_update_2,2026.1.1,Win32,60.24096386,67235bbabb67c1e547a7a32c,69b92ab4aef6dee357cd729a,69b93395b198ea1fc7d0cd4e,0.0811,0.0811,1,40,202,149,1,seveneight,,,,,,,,,,,,,,,,,,,,,,,,,,,,,,,,,,,,,,,,,,,,,,,,,,,,,,,,,,,,,,,,,,,,,,,,,,,,,,,,,,,,,,,,,,,,,,,,,,,,,,,,,,,,,,,,,,,,,,,,,,,,,,,,,,,,,,,,,
,,67235bbabb67c1e547a7a32c,2026-03-17_12h58.15.699,kallum_motion_pilot_GIST_update_2,2026.1.1,Win32,60.24096386,67235bbabb67c1e547a7a32c,69b92ab4aef6dee357cd729a,69b93395b198ea1fc7d0cd4e,0.0812,0.0812,1,41,203,29,1,threefour,,,,,,,,,,,,,,,,,,,,,,,,,,,,,,,,,,,,,,,,,,,,,,,,,,,,,,,,,,,,,,,,,,,,,,,,,,,,,,,,,,,,,,,,,,,,,,,,,,,,,,,,,,,,,,,,,,,,,,,,,,,,,,,,,,,,,,,,,
,,67235bbabb67c1e547a7a32c,2026-03-17_12h58.15.699,kallum_motion_pilot_GIST_update_2,2026.1.1,Win32,60.24096386,67235bbabb67c1e547a7a32c,69b92ab4aef6dee357cd729a,69b93395b198ea1fc7d0cd4e,0.0814,0.0814,1,42,204,129,1,fiveseven,,,,,,,,,,,,,,,,,,,,,,,,,,,,,,,,,,,,,,,,,,,,,,,,,,,,,,,,,,,,,,,,,,,,,,,,,,,,,,,,,,,,,,,,,,,,,,,,,,,,,,,,,,,,,,,,,,,,,,,,,,,,,,,,,,,,,,,,,
,,67235bbabb67c1e547a7a32c,2026-03-17_12h58.15.699,kallum_motion_pilot_GIST_update_2,2026.1.1,Win32,60.24096386,67235bbabb67c1e547a7a32c,69b92ab4aef6dee357cd729a,69b93395b198ea1fc7d0cd4e,0.0816,0.0816,1,43,205,115,1,sixeight,,,,,,,,,,,,,,,,,,,,,,,,,,,,,,,,,,,,,,,,,,,,,,,,,,,,,,,,,,,,,,,,,,,,,,,,,,,,,,,,,,,,,,,,,,,,,,,,,,,,,,,,,,,,,,,,,,,,,,,,,,,,,,,,,,,,,,,,,
,,67235bbabb67c1e547a7a32c,2026-03-17_12h58.15.699,kallum_motion_pilot_GIST_update_2,2026.1.1,Win32,60.24096386,67235bbabb67c1e547a7a32c,69b92ab4aef6dee357cd729a,69b93395b198ea1fc7d0cd4e,0.0818,0.0818,1,44,206,133,1,seveneight,,,,,,,,,,,,,,,,,,,,,,,,,,,,,,,,,,,,,,,,,,,,,,,,,,,,,,,,,,,,,,,,,,,,,,,,,,,,,,,,,,,,,,,,,,,,,,,,,,,,,,,,,,,,,,,,,,,,,,,,,,,,,,,,,,,,,,,,,
,,67235bbabb67c1e547a7a32c,2026-03-17_12h58.15.699,kallum_motion_pilot_GIST_update_2,2026.1.1,Win32,60.24096386,67235bbabb67c1e547a7a32c,69b92ab4aef6dee357cd729a,69b93395b198ea1fc7d0cd4e,0.0819,0.082,1,45,207,140,1,sevenfive,,,,,,,,,,,,,,,,,,,,,,,,,,,,,,,,,,,,,,,,,,,,,,,,,,,,,,,,,,,,,,,,,,,,,,,,,,,,,,,,,,,,,,,,,,,,,,,,,,,,,,,,,,,,,,,,,,,,,,,,,,,,,,,,,,,,,,,,,
,,67235bbabb67c1e547a7a32c,2026-03-17_12h58.15.699,kallum_motion_pilot_GIST_update_2,2026.1.1,Win32,60.24096386,67235bbabb67c1e547a7a32c,69b92ab4aef6dee357cd729a,69b93395b198ea1fc7d0cd4e,0.0821,0.0821,1,46,208,101,1,seveneight,,,,,,,,,,,,,,,,,,,,,,,,,,,,,,,,,,,,,,,,,,,,,,,,,,,,,,,,,,,,,,,,,,,,,,,,,,,,,,,,,,,,,,,,,,,,,,,,,,,,,,,,,,,,,,,,,,,,,,,,,,,,,,,,,,,,,,,,,
,,67235bbabb67c1e547a7a32c,2026-03-17_12h58.15.699,kallum_motion_pilot_GIST_update_2,2026.1.1,Win32,60.24096386,67235bbabb67c1e547a7a32c,69b92ab4aef6dee357cd729a,69b93395b198ea1fc7d0cd4e,0.0823,0.0823,1,47,209,48,1,onetwo,,,,,,,,,,,,,,,,,,,,,,,,,,,,,,,,,,,,,,,,,,,,,,,,,,,,,,,,,,,,,,,,,,,,,,,,,,,,,,,,,,,,,,,,,,,,,,,,,,,,,,,,,,,,,,,,,,,,,,,,,,,,,,,,,,,,,,,,,
,,67235bbabb67c1e547a7a32c,2026-03-17_12h58.15.699,kallum_motion_pilot_GIST_update_2,2026.1.1,Win32,60.24096386,67235bbabb67c1e547a7a32c,69b92ab4aef6dee357cd729a,69b93395b198ea1fc7d0cd4e,0.0827,0.0828,1,48,210,72,1,onetwo,,,,,,,,,,,,,,,,,,,,,,,,,,,,,,,,,,,,,,,,,,,,,,,,,,,,,,,,,,,,,,,,,,,,,,,,,,,,,,,,,,,,,,,,,,,,,,,,,,,,,,,,,,,,,,,,,,,,,,,,,,,,,,,,,,,,,,,,,
,,67235bbabb67c1e547a7a32c,2026-03-17_12h58.15.699,kallum_motion_pilot_GIST_update_2,2026.1.1,Win32,60.24096386,67235bbabb67c1e547a7a32c,69b92ab4aef6dee357cd729a,69b93395b198ea1fc7d0cd4e,0.0833,0.0833,1,49,211,102,1,eightsix,,,,,,,,,,,,,,,,,,,,,,,,,,,,,,,,,,,,,,,,,,,,,,,,,,,,,,,,,,,,,,,,,,,,,,,,,,,,,,,,,,,,,,,,,,,,,,,,,,,,,,,,,,,,,,,,,,,,,,,,,,,,,,,,,,,,,,,,,
,,67235bbabb67c1e547a7a32c,2026-03-17_12h58.15.699,kallum_motion_pilot_GIST_update_2,2026.1.1,Win32,60.24096386,67235bbabb67c1e547a7a32c,69b92ab4aef6dee357cd729a,69b93395b198ea1fc7d0cd4e,0.0836,0.0836,1,50,212,77,1,threefour,,,,,,,,,,,,,,,,,,,,,,,,,,,,,,,,,,,,,,,,,,,,,,,,,,,,,,,,,,,,,,,,,,,,,,,,,,,,,,,,,,,,,,,,,,,,,,,,,,,,,,,,,,,,,,,,,,,,,,,,,,,,,,,,,,,,,,,,,
,,67235bbabb67c1e547a7a32c,2026-03-17_12h58.15.699,kallum_motion_pilot_GIST_update_2,2026.1.1,Win32,60.24096386,67235bbabb67c1e547a7a32c,69b92ab4aef6dee357cd729a,69b93395b198ea1fc7d0cd4e,0.084,0.084,1,51,213,19,1,twofour,,,,,,,,,,,,,,,,,,,,,,,,,,,,,,,,,,,,,,,,,,,,,,,,,,,,,,,,,,,,,,,,,,,,,,,,,,,,,,,,,,,,,,,,,,,,,,,,,,,,,,,,,,,,,,,,,,,,,,,,,,,,,,,,,,,,,,,,,
,,67235bbabb67c1e547a7a32c,2026-03-17_12h58.15.699,kallum_motion_pilot_GIST_update_2,2026.1.1,Win32,60.24096386,67235bbabb67c1e547a7a32c,69b92ab4aef6dee357cd729a,69b93395b198ea1fc7d0cd4e,0.0843,0.0843,1,52,214,147,1,sixeight,,,,,,,,,,,,,,,,,,,,,,,,,,,,,,,,,,,,,,,,,,,,,,,,,,,,,,,,,,,,,,,,,,,,,,,,,,,,,,,,,,,,,,,,,,,,,,,,,,,,,,,,,,,,,,,,,,,,,,,,,,,,,,,,,,,,,,,,,
,,67235bbabb67c1e547a7a32c,2026-03-17_12h58.15.699,kallum_motion_pilot_GIST_update_2,2026.1.1,Win32,60.24096386,67235bbabb67c1e547a7a32c,69b92ab4aef6dee357cd729a,69b93395b198ea1fc7d0cd4e,0.0846,0.0846,1,53,215,18,1,twoone,,,,,,,,,,,,,,,,,,,,,,,,,,,,,,,,,,,,,,,,,,,,,,,,,,,,,,,,,,,,,,,,,,,,,,,,,,,,,,,,,,,,,,,,,,,,,,,,,,,,,,,,,,,,,,,,,,,,,,,,,,,,,,,,,,,,,,,,,
,,67235bbabb67c1e547a7a32c,2026-03-17_12h58.15.699,kallum_motion_pilot_GIST_update_2,2026.1.1,Win32,60.24096386,67235bbabb67c1e547a7a32c,69b92ab4aef6dee357cd729a,69b93395b198ea1fc7d0cd4e,0.0848,0.0848,1,54,216,127,1,eightseven,,,,,,,,,,,,,,,,,,,,,,,,,,,,,,,,,,,,,,,,,,,,,,,,,,,,,,,,,,,,,,,,,,,,,,,,,,,,,,,,,,,,,,,,,,,,,,,,,,,,,,,,,,,,,,,,,,,,,,,,,,,,,,,,,,,,,,,,,
,,67235bbabb67c1e547a7a32c,2026-03-17_12h58.15.699,kallum_motion_pilot_GIST_update_2,2026.1.1,Win32,60.24096386,67235bbabb67c1e547a7a32c,69b92ab4aef6dee357cd729a,69b93395b198ea1fc7d0cd4e,0.0849,0.0849,1,55,217,155,1,sixeight,,,,,,,,,,,,,,,,,,,,,,,,,,,,,,,,,,,,,,,,,,,,,,,,,,,,,,,,,,,,,,,,,,,,,,,,,,,,,,,,,,,,,,,,,,,,,,,,,,,,,,,,,,,,,,,,,,,,,,,,,,,,,,,,,,,,,,,,,
,,67235bbabb67c1e547a7a32c,2026-03-17_12h58.15.699,kallum_motion_pilot_GIST_update_2,2026.1.1,Win32,60.24096386,67235bbabb67c1e547a7a32c,69b92ab4aef6dee357cd729a,69b93395b198ea1fc7d0cd4e,0.0851,0.0851,1,56,218,87,1,eightseven,,,,,,,,,,,,,,,,,,,,,,,,,,,,,,,,,,,,,,,,,,,,,,,,,,,,,,,,,,,,,,,,,,,,,,,,,,,,,,,,,,,,,,,,,,,,,,,,,,,,,,,,,,,,,,,,,,,,,,,,,,,,,,,,,,,,,,,,,
,,67235bbabb67c1e547a7a32c,2026-03-17_12h58.15.699,kallum_motion_pilot_GIST_update_2,2026.1.1,Win32,60.24096386,67235bbabb67c1e547a7a32c,69b92ab4aef6dee357cd729a,69b93395b198ea1fc7d0cd4e,0.0854,0.0854,1,57,219,60,1,threeone,,,,,,,,,,,,,,,,,,,,,,,,,,,,,,,,,,,,,,,,,,,,,,,,,,,,,,,,,,,,,,,,,,,,,,,,,,,,,,,,,,,,,,,,,,,,,,,,,,,,,,,,,,,,,,,,,,,,,,,,,,,,,,,,,,,,,,,,,
,,67235bbabb67c1e547a7a32c,2026-03-17_12h58.15.699,kallum_motion_pilot_GIST_update_2,2026.1.1,Win32,60.24096386,67235bbabb67c1e547a7a32c,69b92ab4aef6dee357cd729a,69b93395b198ea1fc7d0cd4e,0.0856,0.0856,1,58,220,80,1,fivesix,,,,,,,,,,,,,,,,,,,,,,,,,,,,,,,,,,,,,,,,,,,,,,,,,,,,,,,,,,,,,,,,,,,,,,,,,,,,,,,,,,,,,,,,,,,,,,,,,,,,,,,,,,,,,,,,,,,,,,,,,,,,,,,,,,,,,,,,,
,,67235bbabb67c1e547a7a32c,2026-03-17_12h58.15.699,kallum_motion_pilot_GIST_update_2,2026.1.1,Win32,60.24096386,67235bbabb67c1e547a7a32c,69b92ab4aef6dee357cd729a,69b93395b198ea1fc7d0cd4e,0.0857,0.0857,1,59,221,70,1,fourtwo,,,,,,,,,,,,,,,,,,,,,,,,,,,,,,,,,,,,,,,,,,,,,,,,,,,,,,,,,,,,,,,,,,,,,,,,,,,,,,,,,,,,,,,,,,,,,,,,,,,,,,,,,,,,,,,,,,,,,,,,,,,,,,,,,,,,,,,,,
,,67235bbabb67c1e547a7a32c,2026-03-17_12h58.15.699,kallum_motion_pilot_GIST_update_2,2026.1.1,Win32,60.24096386,67235bbabb67c1e547a7a32c,69b92ab4aef6dee357cd729a,69b93395b198ea1fc7d0cd4e,0.0859,0.0859,1,60,222,3,1,twofour,,,,,,,,,,,,,,,,,,,,,,,,,,,,,,,,,,,,,,,,,,,,,,,,,,,,,,,,,,,,,,,,,,,,,,,,,,,,,,,,,,,,,,,,,,,,,,,,,,,,,,,,,,,,,,,,,,,,,,,,,,,,,,,,,,,,,,,,,
,,67235bbabb67c1e547a7a32c,2026-03-17_12h58.15.699,kallum_motion_pilot_GIST_update_2,2026.1.1,Win32,60.24096386,67235bbabb67c1e547a7a32c,69b92ab4aef6dee357cd729a,69b93395b198ea1fc7d0cd4e,0.0861,0.0861,1,61,223,120,1,fivesix,,,,,,,,,,,,,,,,,,,,,,,,,,,,,,,,,,,,,,,,,,,,,,,,,,,,,,,,,,,,,,,,,,,,,,,,,,,,,,,,,,,,,,,,,,,,,,,,,,,,,,,,,,,,,,,,,,,,,,,,,,,,,,,,,,,,,,,,,
,,67235bbabb67c1e547a7a32c,2026-03-17_12h58.15.699,kallum_motion_pilot_GIST_update_2,2026.1.1,Win32,60.24096386,67235bbabb67c1e547a7a32c,69b92ab4aef6dee357cd729a,69b93395b198ea1fc7d0cd4e,0.0863,0.0863,1,62,224,74,1,twoone,,,,,,,,,,,,,,,,,,,,,,,,,,,,,,,,,,,,,,,,,,,,,,,,,,,,,,,,,,,,,,,,,,,,,,,,,,,,,,,,,,,,,,,,,,,,,,,,,,,,,,,,,,,,,,,,,,,,,,,,,,,,,,,,,,,,,,,,,
,,67235bbabb67c1e547a7a32c,2026-03-17_12h58.15.699,kallum_motion_pilot_GIST_update_2,2026.1.1,Win32,60.24096386,67235bbabb67c1e547a7a32c,69b92ab4aef6dee357cd729a,69b93395b198ea1fc7d0cd4e,0.0865,0.0865,1,63,225,116,1,sevenfive,,,,,,,,,,,,,,,,,,,,,,,,,,,,,,,,,,,,,,,,,,,,,,,,,,,,,,,,,,,,,,,,,,,,,,,,,,,,,,,,,,,,,,,,,,,,,,,,,,,,,,,,,,,,,,,,,,,,,,,,,,,,,,,,,,,,,,,,,
,,67235bbabb67c1e547a7a32c,2026-03-17_12h58.15.699,kallum_motion_pilot_GIST_update_2,2026.1.1,Win32,60.24096386,67235bbabb67c1e547a7a32c,69b92ab4aef6dee357cd729a,69b93395b198ea1fc7d0cd4e,0.0866,0.0867,1,64,226,156,1,sevenfive,,,,,,,,,,,,,,,,,,,,,,,,,,,,,,,,,,,,,,,,,,,,,,,,,,,,,,,,,,,,,,,,,,,,,,,,,,,,,,,,,,,,,,,,,,,,,,,,,,,,,,,,,,,,,,,,,,,,,,,,,,,,,,,,,,,,,,,,,
,,67235bbabb67c1e547a7a32c,2026-03-17_12h58.15.699,kallum_motion_pilot_GIST_update_2,2026.1.1,Win32,60.24096386,67235bbabb67c1e547a7a32c,69b92ab4aef6dee357cd729a,69b93395b198ea1fc7d0cd4e,0.0868,0.0868,1,65,227,65,1,onethree,,,,,,,,,,,,,,,,,,,,,,,,,,,,,,,,,,,,,,,,,,,,,,,,,,,,,,,,,,,,,,,,,,,,,,,,,,,,,,,,,,,,,,,,,,,,,,,,,,,,,,,,,,,,,,,,,,,,,,,,,,,,,,,,,,,,,,,,,
,,67235bbabb67c1e547a7a32c,2026-03-17_12h58.15.699,kallum_motion_pilot_GIST_update_2,2026.1.1,Win32,60.24096386,67235bbabb67c1e547a7a32c,69b92ab4aef6dee357cd729a,69b93395b198ea1fc7d0cd4e,0.0871,0.0871,1,66,228,49,1,onethree,,,,,,,,,,,,,,,,,,,,,,,,,,,,,,,,,,,,,,,,,,,,,,,,,,,,,,,,,,,,,,,,,,,,,,,,,,,,,,,,,,,,,,,,,,,,,,,,,,,,,,,,,,,,,,,,,,,,,,,,,,,,,,,,,,,,,,,,,
,,67235bbabb67c1e547a7a32c,2026-03-17_12h58.15.699,kallum_motion_pilot_GIST_update_2,2026.1.1,Win32,60.24096386,67235bbabb67c1e547a7a32c,69b92ab4aef6dee357cd729a,69b93395b198ea1fc7d0cd4e,0.0872,0.0872,1,67,229,98,1,sixfive,,,,,,,,,,,,,,,,,,,,,,,,,,,,,,,,,,,,,,,,,,,,,,,,,,,,,,,,,,,,,,,,,,,,,,,,,,,,,,,,,,,,,,,,,,,,,,,,,,,,,,,,,,,,,,,,,,,,,,,,,,,,,,,,,,,,,,,,,
,,67235bbabb67c1e547a7a32c,2026-03-17_12h58.15.699,kallum_motion_pilot_GIST_update_2,2026.1.1,Win32,60.24096386,67235bbabb67c1e547a7a32c,69b92ab4aef6dee357cd729a,69b93395b198ea1fc7d0cd4e,0.0873,0.0873,1,68,230,43,1,twofour,,,,,,,,,,,,,,,,,,,,,,,,,,,,,,,,,,,,,,,,,,,,,,,,,,,,,,,,,,,,,,,,,,,,,,,,,,,,,,,,,,,,,,,,,,,,,,,,,,,,,,,,,,,,,,,,,,,,,,,,,,,,,,,,,,,,,,,,,
,,67235bbabb67c1e547a7a32c,2026-03-17_12h58.15.699,kallum_motion_pilot_GIST_update_2,2026.1.1,Win32,60.24096386,67235bbabb67c1e547a7a32c,69b92ab4aef6dee357cd729a,69b93395b198ea1fc7d0cd4e,0.0875,0.0876,1,69,231,38,1,fourtwo,,,,,,,,,,,,,,,,,,,,,,,,,,,,,,,,,,,,,,,,,,,,,,,,,,,,,,,,,,,,,,,,,,,,,,,,,,,,,,,,,,,,,,,,,,,,,,,,,,,,,,,,,,,,,,,,,,,,,,,,,,,,,,,,,,,,,,,,,
,,67235bbabb67c1e547a7a32c,2026-03-17_12h58.15.699,kallum_motion_pilot_GIST_update_2,2026.1.1,Win32,60.24096386,67235bbabb67c1e547a7a32c,69b92ab4aef6dee357cd729a,69b93395b198ea1fc7d0cd4e,0.0877,0.0877,1,70,232,66,1,twoone,,,,,,,,,,,,,,,,,,,,,,,,,,,,,,,,,,,,,,,,,,,,,,,,,,,,,,,,,,,,,,,,,,,,,,,,,,,,,,,,,,,,,,,,,,,,,,,,,,,,,,,,,,,,,,,,,,,,,,,,,,,,,,,,,,,,,,,,,
,,67235bbabb67c1e547a7a32c,2026-03-17_12h58.15.699,kallum_motion_pilot_GIST_update_2,2026.1.1,Win32,60.24096386,67235bbabb67c1e547a7a32c,69b92ab4aef6dee357cd729a,69b93395b198ea1fc7d0cd4e,0.0879,0.0879,1,71,233,108,1,sevenfive,,,,,,,,,,,,,,,,,,,,,,,,,,,,,,,,,,,,,,,,,,,,,,,,,,,,,,,,,,,,,,,,,,,,,,,,,,,,,,,,,,,,,,,,,,,,,,,,,,,,,,,,,,,,,,,,,,,,,,,,,,,,,,,,,,,,,,,,,
,,67235bbabb67c1e547a7a32c,2026-03-17_12h58.15.699,kallum_motion_pilot_GIST_update_2,2026.1.1,Win32,60.24096386,67235bbabb67c1e547a7a32c,69b92ab4aef6dee357cd729a,69b93395b198ea1fc7d0cd4e,0.088,0.088,1,72,234,123,1,sixeight,,,,,,,,,,,,,,,,,,,,,,,,,,,,,,,,,,,,,,,,,,,,,,,,,,,,,,,,,,,,,,,,,,,,,,,,,,,,,,,,,,,,,,,,,,,,,,,,,,,,,,,,,,,,,,,,,,,,,,,,,,,,,,,,,,,,,,,,,
,,67235bbabb67c1e547a7a32c,2026-03-17_12h58.15.699,kallum_motion_pilot_GIST_update_2,2026.1.1,Win32,60.24096386,67235bbabb67c1e547a7a32c,69b92ab4aef6dee357cd729a,69b93395b198ea1fc7d0cd4e,0.0882,0.0882,1,73,235,93,1,seveneight,,,,,,,,,,,,,,,,,,,,,,,,,,,,,,,,,,,,,,,,,,,,,,,,,,,,,,,,,,,,,,,,,,,,,,,,,,,,,,,,,,,,,,,,,,,,,,,,,,,,,,,,,,,,,,,,,,,,,,,,,,,,,,,,,,,,,,,,,
,,67235bbabb67c1e547a7a32c,2026-03-17_12h58.15.699,kallum_motion_pilot_GIST_update_2,2026.1.1,Win32,60.24096386,67235bbabb67c1e547a7a32c,69b92ab4aef6dee357cd729a,69b93395b198ea1fc7d0cd4e,0.0884,0.0884,1,74,236,27,1,twofour,,,,,,,,,,,,,,,,,,,,,,,,,,,,,,,,,,,,,,,,,,,,,,,,,,,,,,,,,,,,,,,,,,,,,,,,,,,,,,,,,,,,,,,,,,,,,,,,,,,,,,,,,,,,,,,,,,,,,,,,,,,,,,,,,,,,,,,,,
,,67235bbabb67c1e547a7a32c,2026-03-17_12h58.15.699,kallum_motion_pilot_GIST_update_2,2026.1.1,Win32,60.24096386,67235bbabb67c1e547a7a32c,69b92ab4aef6dee357cd729a,69b93395b198ea1fc7d0cd4e,0.0886,0.0886,1,75,237,36,1,threeone,,,,,,,,,,,,,,,,,,,,,,,,,,,,,,,,,,,,,,,,,,,,,,,,,,,,,,,,,,,,,,,,,,,,,,,,,,,,,,,,,,,,,,,,,,,,,,,,,,,,,,,,,,,,,,,,,,,,,,,,,,,,,,,,,,,,,,,,,
,,67235bbabb67c1e547a7a32c,2026-03-17_12h58.15.699,kallum_motion_pilot_GIST_update_2,2026.1.1,Win32,60.24096386,67235bbabb67c1e547a7a32c,69b92ab4aef6dee357cd729a,69b93395b198ea1fc7d0cd4e,0.0887,0.0887,1,76,238,6,1,fourtwo,,,,,,,,,,,,,,,,,,,,,,,,,,,,,,,,,,,,,,,,,,,,,,,,,,,,,,,,,,,,,,,,,,,,,,,,,,,,,,,,,,,,,,,,,,,,,,,,,,,,,,,,,,,,,,,,,,,,,,,,,,,,,,,,,,,,,,,,,
,,67235bbabb67c1e547a7a32c,2026-03-17_12h58.15.699,kallum_motion_pilot_GIST_update_2,2026.1.1,Win32,60.24096386,67235bbabb67c1e547a7a32c,69b92ab4aef6dee357cd729a,69b93395b198ea1fc7d0cd4e,0.0889,0.0889,1,77,239,67,1,twofour,,,,,,,,,,,,,,,,,,,,,,,,,,,,,,,,,,,,,,,,,,,,,,,,,,,,,,,,,,,,,,,,,,,,,,,,,,,,,,,,,,,,,,,,,,,,,,,,,,,,,,,,,,,,,,,,,,,,,,,,,,,,,,,,,,,,,,,,,
,,67235bbabb67c1e547a7a32c,2026-03-17_12h58.15.699,kallum_motion_pilot_GIST_update_2,2026.1.1,Win32,60.24096386,67235bbabb67c1e547a7a32c,69b92ab4aef6dee357cd729a,69b93395b198ea1fc7d0cd4e,0.089,0.089,1,78,240,124,1,sevenfive,,,,,,,,,,,,,,,,,,,,,,,,,,,,,,,,,,,,,,,,,,,,,,,,,,,,,,,,,,,,,,,,,,,,,,,,,,,,,,,,,,,,,,,,,,,,,,,,,,,,,,,,,,,,,,,,,,,,,,,,,,,,,,,,,,,,,,,,,
,,67235bbabb67c1e547a7a32c,2026-03-17_12h58.15.699,kallum_motion_pilot_GIST_update_2,2026.1.1,Win32,60.24096386,67235bbabb67c1e547a7a32c,69b92ab4aef6dee357cd729a,69b93395b198ea1fc7d0cd4e,0.0892,0.0892,1,79,241,47,1,fourthree,,,,,,,,,,,,,,,,,,,,,,,,,,,,,,,,,,,,,,,,,,,,,,,,,,,,,,,,,,,,,,,,,,,,,,,,,,,,,,,,,,,,,,,,,,,,,,,,,,,,,,,,,,,,,,,,,,,,,,,,,,,,,,,,,,,,,,,,,
,,67235bbabb67c1e547a7a32c,2026-03-17_12h58.15.699,kallum_motion_pilot_GIST_update_2,2026.1.1,Win32,60.24096386,67235bbabb67c1e547a7a32c,69b92ab4aef6dee357cd729a,69b93395b198ea1fc7d0cd4e,0.0894,0.0895,1,80,242,104,1,fivesix,,,,,,,,,,,,,,,,,,,,,,,,,,,,,,,,,,,,,,,,,,,,,,,,,,,,,,,,,,,,,,,,,,,,,,,,,,,,,,,,,,,,,,,,,,,,,,,,,,,,,,,,,,,,,,,,,,,,,,,,,,,,,,,,,,,,,,,,,
,,67235bbabb67c1e547a7a32c,2026-03-17_12h58.15.699,kallum_motion_pilot_GIST_update_2,2026.1.1,Win32,60.24096386,67235bbabb67c1e547a7a32c,69b92ab4aef6dee357cd729a,69b93395b198ea1fc7d0cd4e,0.0896,0.0896,1,81,243,51,1,twofour,,,,,,,,,,,,,,,,,,,,,,,,,,,,,,,,,,,,,,,,,,,,,,,,,,,,,,,,,,,,,,,,,,,,,,,,,,,,,,,,,,,,,,,,,,,,,,,,,,,,,,,,,,,,,,,,,,,,,,,,,,,,,,,,,,,,,,,,,
,,67235bbabb67c1e547a7a32c,2026-03-17_12h58.15.699,kallum_motion_pilot_GIST_update_2,2026.1.1,Win32,60.24096386,67235bbabb67c1e547a7a32c,69b92ab4aef6dee357cd729a,69b93395b198ea1fc7d0cd4e,0.0898,0.0898,1,82,244,89,1,fiveseven,,,,,,,,,,,,,,,,,,,,,,,,,,,,,,,,,,,,,,,,,,,,,,,,,,,,,,,,,,,,,,,,,,,,,,,,,,,,,,,,,,,,,,,,,,,,,,,,,,,,,,,,,,,,,,,,,,,,,,,,,,,,,,,,,,,,,,,,,
,,67235bbabb67c1e547a7a32c,2026-03-17_12h58.15.699,kallum_motion_pilot_GIST_update_2,2026.1.1,Win32,60.24096386,67235bbabb67c1e547a7a32c,69b92ab4aef6dee357cd729a,69b93395b198ea1fc7d0cd4e,0.0899,0.0899,1,83,245,160,1,fivesix,,,,,,,,,,,,,,,,,,,,,,,,,,,,,,,,,,,,,,,,,,,,,,,,,,,,,,,,,,,,,,,,,,,,,,,,,,,,,,,,,,,,,,,,,,,,,,,,,,,,,,,,,,,,,,,,,,,,,,,,,,,,,,,,,,,,,,,,,
,,67235bbabb67c1e547a7a32c,2026-03-17_12h58.15.699,kallum_motion_pilot_GIST_update_2,2026.1.1,Win32,60.24096386,67235bbabb67c1e547a7a32c,69b92ab4aef6dee357cd729a,69b93395b198ea1fc7d0cd4e,0.0901,0.0901,1,84,246,28,1,threeone,,,,,,,,,,,,,,,,,,,,,,,,,,,,,,,,,,,,,,,,,,,,,,,,,,,,,,,,,,,,,,,,,,,,,,,,,,,,,,,,,,,,,,,,,,,,,,,,,,,,,,,,,,,,,,,,,,,,,,,,,,,,,,,,,,,,,,,,,
,,67235bbabb67c1e547a7a32c,2026-03-17_12h58.15.699,kallum_motion_pilot_GIST_update_2,2026.1.1,Win32,60.24096386,67235bbabb67c1e547a7a32c,69b92ab4aef6dee357cd729a,69b93395b198ea1fc7d0cd4e,0.0903,0.0903,1,85,247,14,1,fourtwo,,,,,,,,,,,,,,,,,,,,,,,,,,,,,,,,,,,,,,,,,,,,,,,,,,,,,,,,,,,,,,,,,,,,,,,,,,,,,,,,,,,,,,,,,,,,,,,,,,,,,,,,,,,,,,,,,,,,,,,,,,,,,,,,,,,,,,,,,
,,67235bbabb67c1e547a7a32c,2026-03-17_12h58.15.699,kallum_motion_pilot_GIST_update_2,2026.1.1,Win32,60.24096386,67235bbabb67c1e547a7a32c,69b92ab4aef6dee357cd729a,69b93395b198ea1fc7d0cd4e,0.0905,0.0905,1,86,248,31,1,fourthree,,,,,,,,,,,,,,,,,,,,,,,,,,,,,,,,,,,,,,,,,,,,,,,,,,,,,,,,,,,,,,,,,,,,,,,,,,,,,,,,,,,,,,,,,,,,,,,,,,,,,,,,,,,,,,,,,,,,,,,,,,,,,,,,,,,,,,,,,
,,67235bbabb67c1e547a7a32c,2026-03-17_12h58.15.699,kallum_motion_pilot_GIST_update_2,2026.1.1,Win32,60.24096386,67235bbabb67c1e547a7a32c,69b92ab4aef6dee357cd729a,69b93395b198ea1fc7d0cd4e,0.0908,0.0908,1,87,249,144,1,fivesix,,,,,,,,,,,,,,,,,,,,,,,,,,,,,,,,,,,,,,,,,,,,,,,,,,,,,,,,,,,,,,,,,,,,,,,,,,,,,,,,,,,,,,,,,,,,,,,,,,,,,,,,,,,,,,,,,,,,,,,,,,,,,,,,,,,,,,,,,
,,67235bbabb67c1e547a7a32c,2026-03-17_12h58.15.699,kallum_motion_pilot_GIST_update_2,2026.1.1,Win32,60.24096386,67235bbabb67c1e547a7a32c,69b92ab4aef6dee357cd729a,69b93395b198ea1fc7d0cd4e,0.0911,0.0911,1,88,250,138,1,sixfive,,,,,,,,,,,,,,,,,,,,,,,,,,,,,,,,,,,,,,,,,,,,,,,,,,,,,,,,,,,,,,,,,,,,,,,,,,,,,,,,,,,,,,,,,,,,,,,,,,,,,,,,,,,,,,,,,,,,,,,,,,,,,,,,,,,,,,,,,
,,67235bbabb67c1e547a7a32c,2026-03-17_12h58.15.699,kallum_motion_pilot_GIST_update_2,2026.1.1,Win32,60.24096386,67235bbabb67c1e547a7a32c,69b92ab4aef6dee357cd729a,69b93395b198ea1fc7d0cd4e,0.0913,0.0913,1,89,251,54,1,fourtwo,,,,,,,,,,,,,,,,,,,,,,,,,,,,,,,,,,,,,,,,,,,,,,,,,,,,,,,,,,,,,,,,,,,,,,,,,,,,,,,,,,,,,,,,,,,,,,,,,,,,,,,,,,,,,,,,,,,,,,,,,,,,,,,,,,,,,,,,,
,,67235bbabb67c1e547a7a32c,2026-03-17_12h58.15.699,kallum_motion_pilot_GIST_update_2,2026.1.1,Win32,60.24096386,67235bbabb67c1e547a7a32c,69b92ab4aef6dee357cd729a,69b93395b198ea1fc7d0cd4e,0.0915,0.0915,1,90,252,151,1,eightseven,,,,,,,,,,,,,,,,,,,,,,,,,,,,,,,,,,,,,,,,,,,,,,,,,,,,,,,,,,,,,,,,,,,,,,,,,,,,,,,,,,,,,,,,,,,,,,,,,,,,,,,,,,,,,,,,,,,,,,,,,,,,,,,,,,,,,,,,,
,,67235bbabb67c1e547a7a32c,2026-03-17_12h58.15.699,kallum_motion_pilot_GIST_update_2,2026.1.1,Win32,60.24096386,67235bbabb67c1e547a7a32c,69b92ab4aef6dee357cd729a,69b93395b198ea1fc7d0cd4e,0.0917,0.0917,1,91,253,142,1,eightsix,,,,,,,,,,,,,,,,,,,,,,,,,,,,,,,,,,,,,,,,,,,,,,,,,,,,,,,,,,,,,,,,,,,,,,,,,,,,,,,,,,,,,,,,,,,,,,,,,,,,,,,,,,,,,,,,,,,,,,,,,,,,,,,,,,,,,,,,,
,,67235bbabb67c1e547a7a32c,2026-03-17_12h58.15.699,kallum_motion_pilot_GIST_update_2,2026.1.1,Win32,60.24096386,67235bbabb67c1e547a7a32c,69b92ab4aef6dee357cd729a,69b93395b198ea1fc7d0cd4e,0.0919,0.0919,1,92,254,63,1,fourthree,,,,,,,,,,,,,,,,,,,,,,,,,,,,,,,,,,,,,,,,,,,,,,,,,,,,,,,,,,,,,,,,,,,,,,,,,,,,,,,,,,,,,,,,,,,,,,,,,,,,,,,,,,,,,,,,,,,,,,,,,,,,,,,,,,,,,,,,,
,,67235bbabb67c1e547a7a32c,2026-03-17_12h58.15.699,kallum_motion_pilot_GIST_update_2,2026.1.1,Win32,60.24096386,67235bbabb67c1e547a7a32c,69b92ab4aef6dee357cd729a,69b93395b198ea1fc7d0cd4e,0.0922,0.0922,1,93,255,4,1,threeone,,,,,,,,,,,,,,,,,,,,,,,,,,,,,,,,,,,,,,,,,,,,,,,,,,,,,,,,,,,,,,,,,,,,,,,,,,,,,,,,,,,,,,,,,,,,,,,,,,,,,,,,,,,,,,,,,,,,,,,,,,,,,,,,,,,,,,,,,
,,67235bbabb67c1e547a7a32c,2026-03-17_12h58.15.699,kallum_motion_pilot_GIST_update_2,2026.1.1,Win32,60.24096386,67235bbabb67c1e547a7a32c,69b92ab4aef6dee357cd729a,69b93395b198ea1fc7d0cd4e,0.0925,0.0925,1,94,256,24,1,onetwo,,,,,,,,,,,,,,,,,,,,,,,,,,,,,,,,,,,,,,,,,,,,,,,,,,,,,,,,,,,,,,,,,,,,,,,,,,,,,,,,,,,,,,,,,,,,,,,,,,,,,,,,,,,,,,,,,,,,,,,,,,,,,,,,,,,,,,,,,
,,67235bbabb67c1e547a7a32c,2026-03-17_12h58.15.699,kallum_motion_pilot_GIST_update_2,2026.1.1,Win32,60.24096386,67235bbabb67c1e547a7a32c,69b92ab4aef6dee357cd729a,69b93395b198ea1fc7d0cd4e,0.0928,0.0928,1,95,257,159,1,eightseven,,,,,,,,,,,,,,,,,,,,,,,,,,,,,,,,,,,,,,,,,,,,,,,,,,,,,,,,,,,,,,,,,,,,,,,,,,,,,,,,,,,,,,,,,,,,,,,,,,,,,,,,,,,,,,,,,,,,,,,,,,,,,,,,,,,,,,,,,
,,67235bbabb67c1e547a7a32c,2026-03-17_12h58.15.699,kallum_motion_pilot_GIST_update_2,2026.1.1,Win32,60.24096386,67235bbabb67c1e547a7a32c,69b92ab4aef6dee357cd729a,69b93395b198ea1fc7d0cd4e,0.0932,0.0932,1,96,258,42,1,twoone,,,,,,,,,,,,,,,,,,,,,,,,,,,,,,,,,,,,,,,,,,,,,,,,,,,,,,,,,,,,,,,,,,,,,,,,,,,,,,,,,,,,,,,,,,,,,,,,,,,,,,,,,,,,,,,,,,,,,,,,,,,,,,,,,,,,,,,,,
,,67235bbabb67c1e547a7a32c,2026-03-17_12h58.15.699,kallum_motion_pilot_GIST_update_2,2026.1.1,Win32,60.24096386,67235bbabb67c1e547a7a32c,69b92ab4aef6dee357cd729a,69b93395b198ea1fc7d0cd4e,0.0934,0.0934,1,97,259,92,1,sevenfive,,,,,,,,,,,,,,,,,,,,,,,,,,,,,,,,,,,,,,,,,,,,,,,,,,,,,,,,,,,,,,,,,,,,,,,,,,,,,,,,,,,,,,,,,,,,,,,,,,,,,,,,,,,,,,,,,,,,,,,,,,,,,,,,,,,,,,,,,
,,67235bbabb67c1e547a7a32c,2026-03-17_12h58.15.699,kallum_motion_pilot_GIST_update_2,2026.1.1,Win32,60.24096386,67235bbabb67c1e547a7a32c,69b92ab4aef6dee357cd729a,69b93395b198ea1fc7d0cd4e,0.0936,0.0936,1,98,260,91,1,sixeight,,,,,,,,,,,,,,,,,,,,,,,,,,,,,,,,,,,,,,,,,,,,,,,,,,,,,,,,,,,,,,,,,,,,,,,,,,,,,,,,,,,,,,,,,,,,,,,,,,,,,,,,,,,,,,,,,,,,,,,,,,,,,,,,,,,,,,,,,
,,67235bbabb67c1e547a7a32c,2026-03-17_12h58.15.699,kallum_motion_pilot_GIST_update_2,2026.1.1,Win32,60.24096386,67235bbabb67c1e547a7a32c,69b92ab4aef6dee357cd729a,69b93395b198ea1fc7d0cd4e,0.0937,0.0937,1,99,261,111,1,eightseven,,,,,,,,,,,,,,,,,,,,,,,,,,,,,,,,,,,,,,,,,,,,,,,,,,,,,,,,,,,,,,,,,,,,,,,,,,,,,,,,,,,,,,,,,,,,,,,,,,,,,,,,,,,,,,,,,,,,,,,,,,,,,,,,,,,,,,,,,
,,67235bbabb67c1e547a7a32c,2026-03-17_12h58.15.699,kallum_motion_pilot_GIST_update_2,2026.1.1,Win32,60.24096386,67235bbabb67c1e547a7a32c,69b92ab4aef6dee357cd729a,69b93395b198ea1fc7d0cd4e,0.094,0.094,1,100,262,150,1,eightsix,,,,,,,,,,,,,,,,,,,,,,,,,,,,,,,,,,,,,,,,,,,,,,,,,,,,,,,,,,,,,,,,,,,,,,,,,,,,,,,,,,,,,,,,,,,,,,,,,,,,,,,,,,,,,,,,,,,,,,,,,,,,,,,,,,,,,,,,,
,,67235bbabb67c1e547a7a32c,2026-03-17_12h58.15.699,kallum_motion_pilot_GIST_update_2,2026.1.1,Win32,60.24096386,67235bbabb67c1e547a7a32c,69b92ab4aef6dee357cd729a,69b93395b198ea1fc7d0cd4e,0.0942,0.0942,1,101,263,88,1,fivesix,,,,,,,,,,,,,,,,,,,,,,,,,,,,,,,,,,,,,,,,,,,,,,,,,,,,,,,,,,,,,,,,,,,,,,,,,,,,,,,,,,,,,,,,,,,,,,,,,,,,,,,,,,,,,,,,,,,,,,,,,,,,,,,,,,,,,,,,,
,,67235bbabb67c1e547a7a32c,2026-03-17_12h58.15.699,kallum_motion_pilot_GIST_update_2,2026.1.1,Win32,60.24096386,67235bbabb67c1e547a7a32c,69b92ab4aef6dee357cd729a,69b93395b198ea1fc7d0cd4e,0.0944,0.0944,1,102,264,97,1,fiveseven,,,,,,,,,,,,,,,,,,,,,,,,,,,,,,,,,,,,,,,,,,,,,,,,,,,,,,,,,,,,,,,,,,,,,,,,,,,,,,,,,,,,,,,,,,,,,,,,,,,,,,,,,,,,,,,,,,,,,,,,,,,,,,,,,,,,,,,,,
,,67235bbabb67c1e547a7a32c,2026-03-17_12h58.15.699,kallum_motion_pilot_GIST_update_2,2026.1.1,Win32,60.24096386,67235bbabb67c1e547a7a32c,69b92ab4aef6dee357cd729a,69b93395b198ea1fc7d0cd4e,0.0947,0.0948,1,103,265,152,1,fivesix,,,,,,,,,,,,,,,,,,,,,,,,,,,,,,,,,,,,,,,,,,,,,,,,,,,,,,,,,,,,,,,,,,,,,,,,,,,,,,,,,,,,,,,,,,,,,,,,,,,,,,,,,,,,,,,,,,,,,,,,,,,,,,,,,,,,,,,,,
,,67235bbabb67c1e547a7a32c,2026-03-17_12h58.15.699,kallum_motion_pilot_GIST_update_2,2026.1.1,Win32,60.24096386,67235bbabb67c1e547a7a32c,69b92ab4aef6dee357cd729a,69b93395b198ea1fc7d0cd4e,0.0951,0.0951,1,104,266,85,1,seveneight,,,,,,,,,,,,,,,,,,,,,,,,,,,,,,,,,,,,,,,,,,,,,,,,,,,,,,,,,,,,,,,,,,,,,,,,,,,,,,,,,,,,,,,,,,,,,,,,,,,,,,,,,,,,,,,,,,,,,,,,,,,,,,,,,,,,,,,,,
