startup.started,startup.stopped,Prolific ID*,date,expName,psychopyVersion,OS,frameRate,participant,study_id,session,stimpositions.started,stimpositions.stopped,hardcoded_stimulus_positions.thisRepN,hardcoded_stimulus_positions.thisTrialN,hardcoded_stimulus_positions.thisN,hardcoded_stimulus_positions.thisIndex,hardcoded_stimulus_positions.ran,StimulusPos,stimorientation.started,stimorientation.stopped,prac_stimorientation_import_loop.thisRepN,prac_stimorientation_import_loop.thisTrialN,prac_stimorientation_import_loop.thisN,prac_stimorientation_import_loop.thisIndex,prac_stimorientation_import_loop.ran,Stimorientation,welcome_instr.started,welcome_instr.stopped,key_resp.keys,key_resp.rt,key_resp.duration,response_steppedout_1.started,response_steppedout_1.stopped,key_resp_20.keys,key_resp_20.rt,key_resp_20.duration,response_steppedout_2.started,response_steppedout_2.stopped,key_resp_19.keys,key_resp_19.rt,key_resp_19.duration,stim_response_instr.started,stim_response_instr.stopped,key_resp_15.keys,key_resp_15.rt,key_resp_15.duration,direction_instr_2.started,direction_instr_2.stopped,key_resp_9.keys,key_resp_9.rt,key_resp_9.duration,instr_prac.started,instr_prac.stopped,key_resp_10.keys,key_resp_10.rt,key_resp_10.duration,Stim1_display_prac.started,Stim1_display_prac.stopped,Ecc,Circle1_ori,Circle2_ori,response_prac.started,similarity,response_time,response_prac.stopped,mouse_5.x,mouse_5.y,mouse_5.leftButton,mouse_5.midButton,mouse_5.rightButton,mouse_5.clicked_name,responseprac_feedback.started,responseprac_feedback.stopped,summary2_prac.started,summary2_prac.stopped,mouse_6.x,mouse_6.y,mouse_6.leftButton,mouse_6.midButton,mouse_6.rightButton,mouse_6.clicked_name,duringprac.thisRepN,duringprac.thisTrialN,duringprac.thisN,duringprac.thisIndex,duringprac.ran,begin.started,begin.stopped,key_resp_22.keys,key_resp_22.rt,key_resp_22.duration,Stim1_display.started,Stim1_display.stopped,circle1_ori,circle2_ori,circle1_SF,circle2_SF,response.started,response.stopped,mouse.x,mouse.y,mouse.leftButton,mouse.midButton,mouse.rightButton,mouse.clicked_name,trialnumber,double_pass.thisRepN,double_pass.thisTrialN,double_pass.thisN,double_pass.thisIndex,double_pass.ran,double_pass.order,main_trial.thisRepN,main_trial.thisTrialN,main_trial.thisN,main_trial.thisIndex,main_trial.ran,main_trial.order,Trial_Counter,Catch,Frequencies,response_2.started,response_2.stopped,mouse_2.x,mouse_2.y,mouse_2.leftButton,mouse_2.midButton,mouse_2.rightButton,mouse_2.clicked_name,special_trial.started,special_trial.stopped,catch_1.started,catch_1.stopped,mouse_3.x,mouse_3.y,mouse_3.leftButton,mouse_3.midButton,mouse_3.rightButton,catchresponse,catchnumber,response_time_catch,response_sum.started,response_sum.stopped,mouse_11.x,mouse_11.y,mouse_11.leftButton,mouse_11.midButton,mouse_11.rightButton,flip_presentation_sequence_for_double_pass.started,flip_presentation_sequence_for_double_pass.stopped,goodbye.started,goodbye.stopped,key_resp_3.keys,key_resp_3.rt,key_resp_3.duration
0.0005,0.0008,672a315f5ffd0405912274c1,2026-03-17_15h09.29.017,kallum_motion_pilot_GIST_update_2,2026.1.1,Win32,59.17159763,672a315f5ffd0405912274c1,69b95efdef24cd8a694e89ee,69b95fffc97054dae3fb680c,,,,,,,,,,,,,,,,,,,,,,,,,,,,,,,,,,,,,,,,,,,,,,,,,,,,,,,,,,,,,,,,,,,,,,,,,,,,,,,,,,,,,,,,,,,,,,,,,,,,,,,,,,,,,,,,,,,,,,,,,,,,,,,,,,,,,,,,,,,,,,,,,
,,672a315f5ffd0405912274c1,2026-03-17_15h09.29.017,kallum_motion_pilot_GIST_update_2,2026.1.1,Win32,59.17159763,672a315f5ffd0405912274c1,69b95efdef24cd8a694e89ee,69b95fffc97054dae3fb680c,0.0539,0.0541,0,0,0,122,1,sixfive,,,,,,,,,,,,,,,,,,,,,,,,,,,,,,,,,,,,,,,,,,,,,,,,,,,,,,,,,,,,,,,,,,,,,,,,,,,,,,,,,,,,,,,,,,,,,,,,,,,,,,,,,,,,,,,,,,,,,,,,,,,,,,,,,,,,,,,,,
,,672a315f5ffd0405912274c1,2026-03-17_15h09.29.017,kallum_motion_pilot_GIST_update_2,2026.1.1,Win32,59.17159763,672a315f5ffd0405912274c1,69b95efdef24cd8a694e89ee,69b95fffc97054dae3fb680c,0.0549,0.0549,0,1,1,105,1,fiveseven,,,,,,,,,,,,,,,,,,,,,,,,,,,,,,,,,,,,,,,,,,,,,,,,,,,,,,,,,,,,,,,,,,,,,,,,,,,,,,,,,,,,,,,,,,,,,,,,,,,,,,,,,,,,,,,,,,,,,,,,,,,,,,,,,,,,,,,,,
,,672a315f5ffd0405912274c1,2026-03-17_15h09.29.017,kallum_motion_pilot_GIST_update_2,2026.1.1,Win32,59.17159763,672a315f5ffd0405912274c1,69b95efdef24cd8a694e89ee,69b95fffc97054dae3fb680c,0.0551,0.0551,0,2,2,33,1,onethree,,,,,,,,,,,,,,,,,,,,,,,,,,,,,,,,,,,,,,,,,,,,,,,,,,,,,,,,,,,,,,,,,,,,,,,,,,,,,,,,,,,,,,,,,,,,,,,,,,,,,,,,,,,,,,,,,,,,,,,,,,,,,,,,,,,,,,,,,
,,672a315f5ffd0405912274c1,2026-03-17_15h09.29.017,kallum_motion_pilot_GIST_update_2,2026.1.1,Win32,59.17159763,672a315f5ffd0405912274c1,69b95efdef24cd8a694e89ee,69b95fffc97054dae3fb680c,0.0554,0.0554,0,3,3,156,1,sevenfive,,,,,,,,,,,,,,,,,,,,,,,,,,,,,,,,,,,,,,,,,,,,,,,,,,,,,,,,,,,,,,,,,,,,,,,,,,,,,,,,,,,,,,,,,,,,,,,,,,,,,,,,,,,,,,,,,,,,,,,,,,,,,,,,,,,,,,,,,
,,672a315f5ffd0405912274c1,2026-03-17_15h09.29.017,kallum_motion_pilot_GIST_update_2,2026.1.1,Win32,59.17159763,672a315f5ffd0405912274c1,69b95efdef24cd8a694e89ee,69b95fffc97054dae3fb680c,0.0556,0.0556,0,4,4,143,1,eightseven,,,,,,,,,,,,,,,,,,,,,,,,,,,,,,,,,,,,,,,,,,,,,,,,,,,,,,,,,,,,,,,,,,,,,,,,,,,,,,,,,,,,,,,,,,,,,,,,,,,,,,,,,,,,,,,,,,,,,,,,,,,,,,,,,,,,,,,,,
,,672a315f5ffd0405912274c1,2026-03-17_15h09.29.017,kallum_motion_pilot_GIST_update_2,2026.1.1,Win32,59.17159763,672a315f5ffd0405912274c1,69b95efdef24cd8a694e89ee,69b95fffc97054dae3fb680c,0.0559,0.0559,0,5,5,121,1,fiveseven,,,,,,,,,,,,,,,,,,,,,,,,,,,,,,,,,,,,,,,,,,,,,,,,,,,,,,,,,,,,,,,,,,,,,,,,,,,,,,,,,,,,,,,,,,,,,,,,,,,,,,,,,,,,,,,,,,,,,,,,,,,,,,,,,,,,,,,,,
,,672a315f5ffd0405912274c1,2026-03-17_15h09.29.017,kallum_motion_pilot_GIST_update_2,2026.1.1,Win32,59.17159763,672a315f5ffd0405912274c1,69b95efdef24cd8a694e89ee,69b95fffc97054dae3fb680c,0.0563,0.0563,0,6,6,92,1,sevenfive,,,,,,,,,,,,,,,,,,,,,,,,,,,,,,,,,,,,,,,,,,,,,,,,,,,,,,,,,,,,,,,,,,,,,,,,,,,,,,,,,,,,,,,,,,,,,,,,,,,,,,,,,,,,,,,,,,,,,,,,,,,,,,,,,,,,,,,,,
,,672a315f5ffd0405912274c1,2026-03-17_15h09.29.017,kallum_motion_pilot_GIST_update_2,2026.1.1,Win32,59.17159763,672a315f5ffd0405912274c1,69b95efdef24cd8a694e89ee,69b95fffc97054dae3fb680c,0.0565,0.0566,0,7,7,64,1,onetwo,,,,,,,,,,,,,,,,,,,,,,,,,,,,,,,,,,,,,,,,,,,,,,,,,,,,,,,,,,,,,,,,,,,,,,,,,,,,,,,,,,,,,,,,,,,,,,,,,,,,,,,,,,,,,,,,,,,,,,,,,,,,,,,,,,,,,,,,,
,,672a315f5ffd0405912274c1,2026-03-17_15h09.29.017,kallum_motion_pilot_GIST_update_2,2026.1.1,Win32,59.17159763,672a315f5ffd0405912274c1,69b95efdef24cd8a694e89ee,69b95fffc97054dae3fb680c,0.0569,0.0569,0,8,8,140,1,sevenfive,,,,,,,,,,,,,,,,,,,,,,,,,,,,,,,,,,,,,,,,,,,,,,,,,,,,,,,,,,,,,,,,,,,,,,,,,,,,,,,,,,,,,,,,,,,,,,,,,,,,,,,,,,,,,,,,,,,,,,,,,,,,,,,,,,,,,,,,,
,,672a315f5ffd0405912274c1,2026-03-17_15h09.29.017,kallum_motion_pilot_GIST_update_2,2026.1.1,Win32,59.17159763,672a315f5ffd0405912274c1,69b95efdef24cd8a694e89ee,69b95fffc97054dae3fb680c,0.0571,0.0571,0,9,9,23,1,fourthree,,,,,,,,,,,,,,,,,,,,,,,,,,,,,,,,,,,,,,,,,,,,,,,,,,,,,,,,,,,,,,,,,,,,,,,,,,,,,,,,,,,,,,,,,,,,,,,,,,,,,,,,,,,,,,,,,,,,,,,,,,,,,,,,,,,,,,,,,
,,672a315f5ffd0405912274c1,2026-03-17_15h09.29.017,kallum_motion_pilot_GIST_update_2,2026.1.1,Win32,59.17159763,672a315f5ffd0405912274c1,69b95efdef24cd8a694e89ee,69b95fffc97054dae3fb680c,0.0573,0.0573,0,10,10,149,1,seveneight,,,,,,,,,,,,,,,,,,,,,,,,,,,,,,,,,,,,,,,,,,,,,,,,,,,,,,,,,,,,,,,,,,,,,,,,,,,,,,,,,,,,,,,,,,,,,,,,,,,,,,,,,,,,,,,,,,,,,,,,,,,,,,,,,,,,,,,,,
,,672a315f5ffd0405912274c1,2026-03-17_15h09.29.017,kallum_motion_pilot_GIST_update_2,2026.1.1,Win32,59.17159763,672a315f5ffd0405912274c1,69b95efdef24cd8a694e89ee,69b95fffc97054dae3fb680c,0.0576,0.0576,0,11,11,147,1,sixeight,,,,,,,,,,,,,,,,,,,,,,,,,,,,,,,,,,,,,,,,,,,,,,,,,,,,,,,,,,,,,,,,,,,,,,,,,,,,,,,,,,,,,,,,,,,,,,,,,,,,,,,,,,,,,,,,,,,,,,,,,,,,,,,,,,,,,,,,,
,,672a315f5ffd0405912274c1,2026-03-17_15h09.29.017,kallum_motion_pilot_GIST_update_2,2026.1.1,Win32,59.17159763,672a315f5ffd0405912274c1,69b95efdef24cd8a694e89ee,69b95fffc97054dae3fb680c,0.0577,0.0577,0,12,12,59,1,twofour,,,,,,,,,,,,,,,,,,,,,,,,,,,,,,,,,,,,,,,,,,,,,,,,,,,,,,,,,,,,,,,,,,,,,,,,,,,,,,,,,,,,,,,,,,,,,,,,,,,,,,,,,,,,,,,,,,,,,,,,,,,,,,,,,,,,,,,,,
,,672a315f5ffd0405912274c1,2026-03-17_15h09.29.017,kallum_motion_pilot_GIST_update_2,2026.1.1,Win32,59.17159763,672a315f5ffd0405912274c1,69b95efdef24cd8a694e89ee,69b95fffc97054dae3fb680c,0.0579,0.0579,0,13,13,21,1,threefour,,,,,,,,,,,,,,,,,,,,,,,,,,,,,,,,,,,,,,,,,,,,,,,,,,,,,,,,,,,,,,,,,,,,,,,,,,,,,,,,,,,,,,,,,,,,,,,,,,,,,,,,,,,,,,,,,,,,,,,,,,,,,,,,,,,,,,,,,
,,672a315f5ffd0405912274c1,2026-03-17_15h09.29.017,kallum_motion_pilot_GIST_update_2,2026.1.1,Win32,59.17159763,672a315f5ffd0405912274c1,69b95efdef24cd8a694e89ee,69b95fffc97054dae3fb680c,0.0581,0.0581,0,14,14,16,1,onetwo,,,,,,,,,,,,,,,,,,,,,,,,,,,,,,,,,,,,,,,,,,,,,,,,,,,,,,,,,,,,,,,,,,,,,,,,,,,,,,,,,,,,,,,,,,,,,,,,,,,,,,,,,,,,,,,,,,,,,,,,,,,,,,,,,,,,,,,,,
,,672a315f5ffd0405912274c1,2026-03-17_15h09.29.017,kallum_motion_pilot_GIST_update_2,2026.1.1,Win32,59.17159763,672a315f5ffd0405912274c1,69b95efdef24cd8a694e89ee,69b95fffc97054dae3fb680c,0.0583,0.0583,0,15,15,4,1,threeone,,,,,,,,,,,,,,,,,,,,,,,,,,,,,,,,,,,,,,,,,,,,,,,,,,,,,,,,,,,,,,,,,,,,,,,,,,,,,,,,,,,,,,,,,,,,,,,,,,,,,,,,,,,,,,,,,,,,,,,,,,,,,,,,,,,,,,,,,
,,672a315f5ffd0405912274c1,2026-03-17_15h09.29.017,kallum_motion_pilot_GIST_update_2,2026.1.1,Win32,59.17159763,672a315f5ffd0405912274c1,69b95efdef24cd8a694e89ee,69b95fffc97054dae3fb680c,0.0585,0.0585,0,16,16,31,1,fourthree,,,,,,,,,,,,,,,,,,,,,,,,,,,,,,,,,,,,,,,,,,,,,,,,,,,,,,,,,,,,,,,,,,,,,,,,,,,,,,,,,,,,,,,,,,,,,,,,,,,,,,,,,,,,,,,,,,,,,,,,,,,,,,,,,,,,,,,,,
,,672a315f5ffd0405912274c1,2026-03-17_15h09.29.017,kallum_motion_pilot_GIST_update_2,2026.1.1,Win32,59.17159763,672a315f5ffd0405912274c1,69b95efdef24cd8a694e89ee,69b95fffc97054dae3fb680c,0.0587,0.0587,0,17,17,70,1,fourtwo,,,,,,,,,,,,,,,,,,,,,,,,,,,,,,,,,,,,,,,,,,,,,,,,,,,,,,,,,,,,,,,,,,,,,,,,,,,,,,,,,,,,,,,,,,,,,,,,,,,,,,,,,,,,,,,,,,,,,,,,,,,,,,,,,,,,,,,,,
,,672a315f5ffd0405912274c1,2026-03-17_15h09.29.017,kallum_motion_pilot_GIST_update_2,2026.1.1,Win32,59.17159763,672a315f5ffd0405912274c1,69b95efdef24cd8a694e89ee,69b95fffc97054dae3fb680c,0.0589,0.0589,0,18,18,113,1,fiveseven,,,,,,,,,,,,,,,,,,,,,,,,,,,,,,,,,,,,,,,,,,,,,,,,,,,,,,,,,,,,,,,,,,,,,,,,,,,,,,,,,,,,,,,,,,,,,,,,,,,,,,,,,,,,,,,,,,,,,,,,,,,,,,,,,,,,,,,,,
,,672a315f5ffd0405912274c1,2026-03-17_15h09.29.017,kallum_motion_pilot_GIST_update_2,2026.1.1,Win32,59.17159763,672a315f5ffd0405912274c1,69b95efdef24cd8a694e89ee,69b95fffc97054dae3fb680c,0.0591,0.0591,0,19,19,22,1,fourtwo,,,,,,,,,,,,,,,,,,,,,,,,,,,,,,,,,,,,,,,,,,,,,,,,,,,,,,,,,,,,,,,,,,,,,,,,,,,,,,,,,,,,,,,,,,,,,,,,,,,,,,,,,,,,,,,,,,,,,,,,,,,,,,,,,,,,,,,,,
,,672a315f5ffd0405912274c1,2026-03-17_15h09.29.017,kallum_motion_pilot_GIST_update_2,2026.1.1,Win32,59.17159763,672a315f5ffd0405912274c1,69b95efdef24cd8a694e89ee,69b95fffc97054dae3fb680c,0.0593,0.0593,0,20,20,80,1,fivesix,,,,,,,,,,,,,,,,,,,,,,,,,,,,,,,,,,,,,,,,,,,,,,,,,,,,,,,,,,,,,,,,,,,,,,,,,,,,,,,,,,,,,,,,,,,,,,,,,,,,,,,,,,,,,,,,,,,,,,,,,,,,,,,,,,,,,,,,,
,,672a315f5ffd0405912274c1,2026-03-17_15h09.29.017,kallum_motion_pilot_GIST_update_2,2026.1.1,Win32,59.17159763,672a315f5ffd0405912274c1,69b95efdef24cd8a694e89ee,69b95fffc97054dae3fb680c,0.0595,0.0595,0,21,21,24,1,onetwo,,,,,,,,,,,,,,,,,,,,,,,,,,,,,,,,,,,,,,,,,,,,,,,,,,,,,,,,,,,,,,,,,,,,,,,,,,,,,,,,,,,,,,,,,,,,,,,,,,,,,,,,,,,,,,,,,,,,,,,,,,,,,,,,,,,,,,,,,
,,672a315f5ffd0405912274c1,2026-03-17_15h09.29.017,kallum_motion_pilot_GIST_update_2,2026.1.1,Win32,59.17159763,672a315f5ffd0405912274c1,69b95efdef24cd8a694e89ee,69b95fffc97054dae3fb680c,0.0596,0.0596,0,22,22,141,1,seveneight,,,,,,,,,,,,,,,,,,,,,,,,,,,,,,,,,,,,,,,,,,,,,,,,,,,,,,,,,,,,,,,,,,,,,,,,,,,,,,,,,,,,,,,,,,,,,,,,,,,,,,,,,,,,,,,,,,,,,,,,,,,,,,,,,,,,,,,,,
,,672a315f5ffd0405912274c1,2026-03-17_15h09.29.017,kallum_motion_pilot_GIST_update_2,2026.1.1,Win32,59.17159763,672a315f5ffd0405912274c1,69b95efdef24cd8a694e89ee,69b95fffc97054dae3fb680c,0.0599,0.0599,0,23,23,137,1,fiveseven,,,,,,,,,,,,,,,,,,,,,,,,,,,,,,,,,,,,,,,,,,,,,,,,,,,,,,,,,,,,,,,,,,,,,,,,,,,,,,,,,,,,,,,,,,,,,,,,,,,,,,,,,,,,,,,,,,,,,,,,,,,,,,,,,,,,,,,,,
,,672a315f5ffd0405912274c1,2026-03-17_15h09.29.017,kallum_motion_pilot_GIST_update_2,2026.1.1,Win32,59.17159763,672a315f5ffd0405912274c1,69b95efdef24cd8a694e89ee,69b95fffc97054dae3fb680c,0.0602,0.0602,0,24,24,128,1,fivesix,,,,,,,,,,,,,,,,,,,,,,,,,,,,,,,,,,,,,,,,,,,,,,,,,,,,,,,,,,,,,,,,,,,,,,,,,,,,,,,,,,,,,,,,,,,,,,,,,,,,,,,,,,,,,,,,,,,,,,,,,,,,,,,,,,,,,,,,,
,,672a315f5ffd0405912274c1,2026-03-17_15h09.29.017,kallum_motion_pilot_GIST_update_2,2026.1.1,Win32,59.17159763,672a315f5ffd0405912274c1,69b95efdef24cd8a694e89ee,69b95fffc97054dae3fb680c,0.0604,0.0604,0,25,25,43,1,twofour,,,,,,,,,,,,,,,,,,,,,,,,,,,,,,,,,,,,,,,,,,,,,,,,,,,,,,,,,,,,,,,,,,,,,,,,,,,,,,,,,,,,,,,,,,,,,,,,,,,,,,,,,,,,,,,,,,,,,,,,,,,,,,,,,,,,,,,,,
,,672a315f5ffd0405912274c1,2026-03-17_15h09.29.017,kallum_motion_pilot_GIST_update_2,2026.1.1,Win32,59.17159763,672a315f5ffd0405912274c1,69b95efdef24cd8a694e89ee,69b95fffc97054dae3fb680c,0.0605,0.0605,0,26,26,50,1,twoone,,,,,,,,,,,,,,,,,,,,,,,,,,,,,,,,,,,,,,,,,,,,,,,,,,,,,,,,,,,,,,,,,,,,,,,,,,,,,,,,,,,,,,,,,,,,,,,,,,,,,,,,,,,,,,,,,,,,,,,,,,,,,,,,,,,,,,,,,
,,672a315f5ffd0405912274c1,2026-03-17_15h09.29.017,kallum_motion_pilot_GIST_update_2,2026.1.1,Win32,59.17159763,672a315f5ffd0405912274c1,69b95efdef24cd8a694e89ee,69b95fffc97054dae3fb680c,0.0608,0.0608,0,27,27,133,1,seveneight,,,,,,,,,,,,,,,,,,,,,,,,,,,,,,,,,,,,,,,,,,,,,,,,,,,,,,,,,,,,,,,,,,,,,,,,,,,,,,,,,,,,,,,,,,,,,,,,,,,,,,,,,,,,,,,,,,,,,,,,,,,,,,,,,,,,,,,,,
,,672a315f5ffd0405912274c1,2026-03-17_15h09.29.017,kallum_motion_pilot_GIST_update_2,2026.1.1,Win32,59.17159763,672a315f5ffd0405912274c1,69b95efdef24cd8a694e89ee,69b95fffc97054dae3fb680c,0.061,0.0611,0,28,28,8,1,onetwo,,,,,,,,,,,,,,,,,,,,,,,,,,,,,,,,,,,,,,,,,,,,,,,,,,,,,,,,,,,,,,,,,,,,,,,,,,,,,,,,,,,,,,,,,,,,,,,,,,,,,,,,,,,,,,,,,,,,,,,,,,,,,,,,,,,,,,,,,
,,672a315f5ffd0405912274c1,2026-03-17_15h09.29.017,kallum_motion_pilot_GIST_update_2,2026.1.1,Win32,59.17159763,672a315f5ffd0405912274c1,69b95efdef24cd8a694e89ee,69b95fffc97054dae3fb680c,0.0611,0.0612,0,29,29,47,1,fourthree,,,,,,,,,,,,,,,,,,,,,,,,,,,,,,,,,,,,,,,,,,,,,,,,,,,,,,,,,,,,,,,,,,,,,,,,,,,,,,,,,,,,,,,,,,,,,,,,,,,,,,,,,,,,,,,,,,,,,,,,,,,,,,,,,,,,,,,,,
,,672a315f5ffd0405912274c1,2026-03-17_15h09.29.017,kallum_motion_pilot_GIST_update_2,2026.1.1,Win32,59.17159763,672a315f5ffd0405912274c1,69b95efdef24cd8a694e89ee,69b95fffc97054dae3fb680c,0.0614,0.0614,0,30,30,60,1,threeone,,,,,,,,,,,,,,,,,,,,,,,,,,,,,,,,,,,,,,,,,,,,,,,,,,,,,,,,,,,,,,,,,,,,,,,,,,,,,,,,,,,,,,,,,,,,,,,,,,,,,,,,,,,,,,,,,,,,,,,,,,,,,,,,,,,,,,,,,
,,672a315f5ffd0405912274c1,2026-03-17_15h09.29.017,kallum_motion_pilot_GIST_update_2,2026.1.1,Win32,59.17159763,672a315f5ffd0405912274c1,69b95efdef24cd8a694e89ee,69b95fffc97054dae3fb680c,0.0615,0.0616,0,31,31,56,1,onetwo,,,,,,,,,,,,,,,,,,,,,,,,,,,,,,,,,,,,,,,,,,,,,,,,,,,,,,,,,,,,,,,,,,,,,,,,,,,,,,,,,,,,,,,,,,,,,,,,,,,,,,,,,,,,,,,,,,,,,,,,,,,,,,,,,,,,,,,,,
,,672a315f5ffd0405912274c1,2026-03-17_15h09.29.017,kallum_motion_pilot_GIST_update_2,2026.1.1,Win32,59.17159763,672a315f5ffd0405912274c1,69b95efdef24cd8a694e89ee,69b95fffc97054dae3fb680c,0.0617,0.0617,0,32,32,29,1,threefour,,,,,,,,,,,,,,,,,,,,,,,,,,,,,,,,,,,,,,,,,,,,,,,,,,,,,,,,,,,,,,,,,,,,,,,,,,,,,,,,,,,,,,,,,,,,,,,,,,,,,,,,,,,,,,,,,,,,,,,,,,,,,,,,,,,,,,,,,
,,672a315f5ffd0405912274c1,2026-03-17_15h09.29.017,kallum_motion_pilot_GIST_update_2,2026.1.1,Win32,59.17159763,672a315f5ffd0405912274c1,69b95efdef24cd8a694e89ee,69b95fffc97054dae3fb680c,0.0618,0.0618,0,33,33,95,1,eightseven,,,,,,,,,,,,,,,,,,,,,,,,,,,,,,,,,,,,,,,,,,,,,,,,,,,,,,,,,,,,,,,,,,,,,,,,,,,,,,,,,,,,,,,,,,,,,,,,,,,,,,,,,,,,,,,,,,,,,,,,,,,,,,,,,,,,,,,,,
,,672a315f5ffd0405912274c1,2026-03-17_15h09.29.017,kallum_motion_pilot_GIST_update_2,2026.1.1,Win32,59.17159763,672a315f5ffd0405912274c1,69b95efdef24cd8a694e89ee,69b95fffc97054dae3fb680c,0.0619,0.0619,0,34,34,90,1,sixfive,,,,,,,,,,,,,,,,,,,,,,,,,,,,,,,,,,,,,,,,,,,,,,,,,,,,,,,,,,,,,,,,,,,,,,,,,,,,,,,,,,,,,,,,,,,,,,,,,,,,,,,,,,,,,,,,,,,,,,,,,,,,,,,,,,,,,,,,,
,,672a315f5ffd0405912274c1,2026-03-17_15h09.29.017,kallum_motion_pilot_GIST_update_2,2026.1.1,Win32,59.17159763,672a315f5ffd0405912274c1,69b95efdef24cd8a694e89ee,69b95fffc97054dae3fb680c,0.0621,0.0621,0,35,35,130,1,sixfive,,,,,,,,,,,,,,,,,,,,,,,,,,,,,,,,,,,,,,,,,,,,,,,,,,,,,,,,,,,,,,,,,,,,,,,,,,,,,,,,,,,,,,,,,,,,,,,,,,,,,,,,,,,,,,,,,,,,,,,,,,,,,,,,,,,,,,,,,
,,672a315f5ffd0405912274c1,2026-03-17_15h09.29.017,kallum_motion_pilot_GIST_update_2,2026.1.1,Win32,59.17159763,672a315f5ffd0405912274c1,69b95efdef24cd8a694e89ee,69b95fffc97054dae3fb680c,0.0622,0.0622,0,36,36,103,1,eightseven,,,,,,,,,,,,,,,,,,,,,,,,,,,,,,,,,,,,,,,,,,,,,,,,,,,,,,,,,,,,,,,,,,,,,,,,,,,,,,,,,,,,,,,,,,,,,,,,,,,,,,,,,,,,,,,,,,,,,,,,,,,,,,,,,,,,,,,,,
,,672a315f5ffd0405912274c1,2026-03-17_15h09.29.017,kallum_motion_pilot_GIST_update_2,2026.1.1,Win32,59.17159763,672a315f5ffd0405912274c1,69b95efdef24cd8a694e89ee,69b95fffc97054dae3fb680c,0.0624,0.0624,0,37,37,3,1,twofour,,,,,,,,,,,,,,,,,,,,,,,,,,,,,,,,,,,,,,,,,,,,,,,,,,,,,,,,,,,,,,,,,,,,,,,,,,,,,,,,,,,,,,,,,,,,,,,,,,,,,,,,,,,,,,,,,,,,,,,,,,,,,,,,,,,,,,,,,
,,672a315f5ffd0405912274c1,2026-03-17_15h09.29.017,kallum_motion_pilot_GIST_update_2,2026.1.1,Win32,59.17159763,672a315f5ffd0405912274c1,69b95efdef24cd8a694e89ee,69b95fffc97054dae3fb680c,0.0626,0.0626,0,38,38,58,1,twoone,,,,,,,,,,,,,,,,,,,,,,,,,,,,,,,,,,,,,,,,,,,,,,,,,,,,,,,,,,,,,,,,,,,,,,,,,,,,,,,,,,,,,,,,,,,,,,,,,,,,,,,,,,,,,,,,,,,,,,,,,,,,,,,,,,,,,,,,,
,,672a315f5ffd0405912274c1,2026-03-17_15h09.29.017,kallum_motion_pilot_GIST_update_2,2026.1.1,Win32,59.17159763,672a315f5ffd0405912274c1,69b95efdef24cd8a694e89ee,69b95fffc97054dae3fb680c,0.0626,0.0626,0,39,39,76,1,threeone,,,,,,,,,,,,,,,,,,,,,,,,,,,,,,,,,,,,,,,,,,,,,,,,,,,,,,,,,,,,,,,,,,,,,,,,,,,,,,,,,,,,,,,,,,,,,,,,,,,,,,,,,,,,,,,,,,,,,,,,,,,,,,,,,,,,,,,,,
,,672a315f5ffd0405912274c1,2026-03-17_15h09.29.017,kallum_motion_pilot_GIST_update_2,2026.1.1,Win32,59.17159763,672a315f5ffd0405912274c1,69b95efdef24cd8a694e89ee,69b95fffc97054dae3fb680c,0.0628,0.0628,0,40,40,87,1,eightseven,,,,,,,,,,,,,,,,,,,,,,,,,,,,,,,,,,,,,,,,,,,,,,,,,,,,,,,,,,,,,,,,,,,,,,,,,,,,,,,,,,,,,,,,,,,,,,,,,,,,,,,,,,,,,,,,,,,,,,,,,,,,,,,,,,,,,,,,,
,,672a315f5ffd0405912274c1,2026-03-17_15h09.29.017,kallum_motion_pilot_GIST_update_2,2026.1.1,Win32,59.17159763,672a315f5ffd0405912274c1,69b95efdef24cd8a694e89ee,69b95fffc97054dae3fb680c,0.063,0.063,0,41,41,144,1,fivesix,,,,,,,,,,,,,,,,,,,,,,,,,,,,,,,,,,,,,,,,,,,,,,,,,,,,,,,,,,,,,,,,,,,,,,,,,,,,,,,,,,,,,,,,,,,,,,,,,,,,,,,,,,,,,,,,,,,,,,,,,,,,,,,,,,,,,,,,,
,,672a315f5ffd0405912274c1,2026-03-17_15h09.29.017,kallum_motion_pilot_GIST_update_2,2026.1.1,Win32,59.17159763,672a315f5ffd0405912274c1,69b95efdef24cd8a694e89ee,69b95fffc97054dae3fb680c,0.0631,0.0631,0,42,42,153,1,fiveseven,,,,,,,,,,,,,,,,,,,,,,,,,,,,,,,,,,,,,,,,,,,,,,,,,,,,,,,,,,,,,,,,,,,,,,,,,,,,,,,,,,,,,,,,,,,,,,,,,,,,,,,,,,,,,,,,,,,,,,,,,,,,,,,,,,,,,,,,,
,,672a315f5ffd0405912274c1,2026-03-17_15h09.29.017,kallum_motion_pilot_GIST_update_2,2026.1.1,Win32,59.17159763,672a315f5ffd0405912274c1,69b95efdef24cd8a694e89ee,69b95fffc97054dae3fb680c,0.0632,0.0632,0,43,43,109,1,seveneight,,,,,,,,,,,,,,,,,,,,,,,,,,,,,,,,,,,,,,,,,,,,,,,,,,,,,,,,,,,,,,,,,,,,,,,,,,,,,,,,,,,,,,,,,,,,,,,,,,,,,,,,,,,,,,,,,,,,,,,,,,,,,,,,,,,,,,,,,
,,672a315f5ffd0405912274c1,2026-03-17_15h09.29.017,kallum_motion_pilot_GIST_update_2,2026.1.1,Win32,59.17159763,672a315f5ffd0405912274c1,69b95efdef24cd8a694e89ee,69b95fffc97054dae3fb680c,0.0634,0.0634,0,44,44,151,1,eightseven,,,,,,,,,,,,,,,,,,,,,,,,,,,,,,,,,,,,,,,,,,,,,,,,,,,,,,,,,,,,,,,,,,,,,,,,,,,,,,,,,,,,,,,,,,,,,,,,,,,,,,,,,,,,,,,,,,,,,,,,,,,,,,,,,,,,,,,,,
,,672a315f5ffd0405912274c1,2026-03-17_15h09.29.017,kallum_motion_pilot_GIST_update_2,2026.1.1,Win32,59.17159763,672a315f5ffd0405912274c1,69b95efdef24cd8a694e89ee,69b95fffc97054dae3fb680c,0.0635,0.0635,0,45,45,132,1,sevenfive,,,,,,,,,,,,,,,,,,,,,,,,,,,,,,,,,,,,,,,,,,,,,,,,,,,,,,,,,,,,,,,,,,,,,,,,,,,,,,,,,,,,,,,,,,,,,,,,,,,,,,,,,,,,,,,,,,,,,,,,,,,,,,,,,,,,,,,,,
,,672a315f5ffd0405912274c1,2026-03-17_15h09.29.017,kallum_motion_pilot_GIST_update_2,2026.1.1,Win32,59.17159763,672a315f5ffd0405912274c1,69b95efdef24cd8a694e89ee,69b95fffc97054dae3fb680c,0.0637,0.0637,0,46,46,49,1,onethree,,,,,,,,,,,,,,,,,,,,,,,,,,,,,,,,,,,,,,,,,,,,,,,,,,,,,,,,,,,,,,,,,,,,,,,,,,,,,,,,,,,,,,,,,,,,,,,,,,,,,,,,,,,,,,,,,,,,,,,,,,,,,,,,,,,,,,,,,
,,672a315f5ffd0405912274c1,2026-03-17_15h09.29.017,kallum_motion_pilot_GIST_update_2,2026.1.1,Win32,59.17159763,672a315f5ffd0405912274c1,69b95efdef24cd8a694e89ee,69b95fffc97054dae3fb680c,0.0639,0.0639,0,47,47,69,1,threefour,,,,,,,,,,,,,,,,,,,,,,,,,,,,,,,,,,,,,,,,,,,,,,,,,,,,,,,,,,,,,,,,,,,,,,,,,,,,,,,,,,,,,,,,,,,,,,,,,,,,,,,,,,,,,,,,,,,,,,,,,,,,,,,,,,,,,,,,,
,,672a315f5ffd0405912274c1,2026-03-17_15h09.29.017,kallum_motion_pilot_GIST_update_2,2026.1.1,Win32,59.17159763,672a315f5ffd0405912274c1,69b95efdef24cd8a694e89ee,69b95fffc97054dae3fb680c,0.064,0.0641,0,48,48,48,1,onetwo,,,,,,,,,,,,,,,,,,,,,,,,,,,,,,,,,,,,,,,,,,,,,,,,,,,,,,,,,,,,,,,,,,,,,,,,,,,,,,,,,,,,,,,,,,,,,,,,,,,,,,,,,,,,,,,,,,,,,,,,,,,,,,,,,,,,,,,,,
,,672a315f5ffd0405912274c1,2026-03-17_15h09.29.017,kallum_motion_pilot_GIST_update_2,2026.1.1,Win32,59.17159763,672a315f5ffd0405912274c1,69b95efdef24cd8a694e89ee,69b95fffc97054dae3fb680c,0.0642,0.0642,0,49,49,138,1,sixfive,,,,,,,,,,,,,,,,,,,,,,,,,,,,,,,,,,,,,,,,,,,,,,,,,,,,,,,,,,,,,,,,,,,,,,,,,,,,,,,,,,,,,,,,,,,,,,,,,,,,,,,,,,,,,,,,,,,,,,,,,,,,,,,,,,,,,,,,,
,,672a315f5ffd0405912274c1,2026-03-17_15h09.29.017,kallum_motion_pilot_GIST_update_2,2026.1.1,Win32,59.17159763,672a315f5ffd0405912274c1,69b95efdef24cd8a694e89ee,69b95fffc97054dae3fb680c,0.0666,0.0666,0,50,50,85,1,seveneight,,,,,,,,,,,,,,,,,,,,,,,,,,,,,,,,,,,,,,,,,,,,,,,,,,,,,,,,,,,,,,,,,,,,,,,,,,,,,,,,,,,,,,,,,,,,,,,,,,,,,,,,,,,,,,,,,,,,,,,,,,,,,,,,,,,,,,,,,
,,672a315f5ffd0405912274c1,2026-03-17_15h09.29.017,kallum_motion_pilot_GIST_update_2,2026.1.1,Win32,59.17159763,672a315f5ffd0405912274c1,69b95efdef24cd8a694e89ee,69b95fffc97054dae3fb680c,0.0669,0.0669,0,51,51,15,1,fourthree,,,,,,,,,,,,,,,,,,,,,,,,,,,,,,,,,,,,,,,,,,,,,,,,,,,,,,,,,,,,,,,,,,,,,,,,,,,,,,,,,,,,,,,,,,,,,,,,,,,,,,,,,,,,,,,,,,,,,,,,,,,,,,,,,,,,,,,,,
,,672a315f5ffd0405912274c1,2026-03-17_15h09.29.017,kallum_motion_pilot_GIST_update_2,2026.1.1,Win32,59.17159763,672a315f5ffd0405912274c1,69b95efdef24cd8a694e89ee,69b95fffc97054dae3fb680c,0.0671,0.0671,0,52,52,136,1,fivesix,,,,,,,,,,,,,,,,,,,,,,,,,,,,,,,,,,,,,,,,,,,,,,,,,,,,,,,,,,,,,,,,,,,,,,,,,,,,,,,,,,,,,,,,,,,,,,,,,,,,,,,,,,,,,,,,,,,,,,,,,,,,,,,,,,,,,,,,,
,,672a315f5ffd0405912274c1,2026-03-17_15h09.29.017,kallum_motion_pilot_GIST_update_2,2026.1.1,Win32,59.17159763,672a315f5ffd0405912274c1,69b95efdef24cd8a694e89ee,69b95fffc97054dae3fb680c,0.0673,0.0673,0,53,53,57,1,onethree,,,,,,,,,,,,,,,,,,,,,,,,,,,,,,,,,,,,,,,,,,,,,,,,,,,,,,,,,,,,,,,,,,,,,,,,,,,,,,,,,,,,,,,,,,,,,,,,,,,,,,,,,,,,,,,,,,,,,,,,,,,,,,,,,,,,,,,,,
,,672a315f5ffd0405912274c1,2026-03-17_15h09.29.017,kallum_motion_pilot_GIST_update_2,2026.1.1,Win32,59.17159763,672a315f5ffd0405912274c1,69b95efdef24cd8a694e89ee,69b95fffc97054dae3fb680c,0.0675,0.0675,0,54,54,18,1,twoone,,,,,,,,,,,,,,,,,,,,,,,,,,,,,,,,,,,,,,,,,,,,,,,,,,,,,,,,,,,,,,,,,,,,,,,,,,,,,,,,,,,,,,,,,,,,,,,,,,,,,,,,,,,,,,,,,,,,,,,,,,,,,,,,,,,,,,,,,
,,672a315f5ffd0405912274c1,2026-03-17_15h09.29.017,kallum_motion_pilot_GIST_update_2,2026.1.1,Win32,59.17159763,672a315f5ffd0405912274c1,69b95efdef24cd8a694e89ee,69b95fffc97054dae3fb680c,0.0678,0.0678,0,55,55,77,1,threefour,,,,,,,,,,,,,,,,,,,,,,,,,,,,,,,,,,,,,,,,,,,,,,,,,,,,,,,,,,,,,,,,,,,,,,,,,,,,,,,,,,,,,,,,,,,,,,,,,,,,,,,,,,,,,,,,,,,,,,,,,,,,,,,,,,,,,,,,,
,,672a315f5ffd0405912274c1,2026-03-17_15h09.29.017,kallum_motion_pilot_GIST_update_2,2026.1.1,Win32,59.17159763,672a315f5ffd0405912274c1,69b95efdef24cd8a694e89ee,69b95fffc97054dae3fb680c,0.0679,0.0679,0,56,56,61,1,threefour,,,,,,,,,,,,,,,,,,,,,,,,,,,,,,,,,,,,,,,,,,,,,,,,,,,,,,,,,,,,,,,,,,,,,,,,,,,,,,,,,,,,,,,,,,,,,,,,,,,,,,,,,,,,,,,,,,,,,,,,,,,,,,,,,,,,,,,,,
,,672a315f5ffd0405912274c1,2026-03-17_15h09.29.017,kallum_motion_pilot_GIST_update_2,2026.1.1,Win32,59.17159763,672a315f5ffd0405912274c1,69b95efdef24cd8a694e89ee,69b95fffc97054dae3fb680c,0.068,0.068,0,57,57,37,1,threefour,,,,,,,,,,,,,,,,,,,,,,,,,,,,,,,,,,,,,,,,,,,,,,,,,,,,,,,,,,,,,,,,,,,,,,,,,,,,,,,,,,,,,,,,,,,,,,,,,,,,,,,,,,,,,,,,,,,,,,,,,,,,,,,,,,,,,,,,,
,,672a315f5ffd0405912274c1,2026-03-17_15h09.29.017,kallum_motion_pilot_GIST_update_2,2026.1.1,Win32,59.17159763,672a315f5ffd0405912274c1,69b95efdef24cd8a694e89ee,69b95fffc97054dae3fb680c,0.0682,0.0682,0,58,58,82,1,sixfive,,,,,,,,,,,,,,,,,,,,,,,,,,,,,,,,,,,,,,,,,,,,,,,,,,,,,,,,,,,,,,,,,,,,,,,,,,,,,,,,,,,,,,,,,,,,,,,,,,,,,,,,,,,,,,,,,,,,,,,,,,,,,,,,,,,,,,,,,
,,672a315f5ffd0405912274c1,2026-03-17_15h09.29.017,kallum_motion_pilot_GIST_update_2,2026.1.1,Win32,59.17159763,672a315f5ffd0405912274c1,69b95efdef24cd8a694e89ee,69b95fffc97054dae3fb680c,0.0683,0.0683,0,59,59,97,1,fiveseven,,,,,,,,,,,,,,,,,,,,,,,,,,,,,,,,,,,,,,,,,,,,,,,,,,,,,,,,,,,,,,,,,,,,,,,,,,,,,,,,,,,,,,,,,,,,,,,,,,,,,,,,,,,,,,,,,,,,,,,,,,,,,,,,,,,,,,,,,
,,672a315f5ffd0405912274c1,2026-03-17_15h09.29.017,kallum_motion_pilot_GIST_update_2,2026.1.1,Win32,59.17159763,672a315f5ffd0405912274c1,69b95efdef24cd8a694e89ee,69b95fffc97054dae3fb680c,0.0686,0.0686,0,60,60,55,1,fourthree,,,,,,,,,,,,,,,,,,,,,,,,,,,,,,,,,,,,,,,,,,,,,,,,,,,,,,,,,,,,,,,,,,,,,,,,,,,,,,,,,,,,,,,,,,,,,,,,,,,,,,,,,,,,,,,,,,,,,,,,,,,,,,,,,,,,,,,,,
,,672a315f5ffd0405912274c1,2026-03-17_15h09.29.017,kallum_motion_pilot_GIST_update_2,2026.1.1,Win32,59.17159763,672a315f5ffd0405912274c1,69b95efdef24cd8a694e89ee,69b95fffc97054dae3fb680c,0.0687,0.0687,0,61,61,54,1,fourtwo,,,,,,,,,,,,,,,,,,,,,,,,,,,,,,,,,,,,,,,,,,,,,,,,,,,,,,,,,,,,,,,,,,,,,,,,,,,,,,,,,,,,,,,,,,,,,,,,,,,,,,,,,,,,,,,,,,,,,,,,,,,,,,,,,,,,,,,,,
,,672a315f5ffd0405912274c1,2026-03-17_15h09.29.017,kallum_motion_pilot_GIST_update_2,2026.1.1,Win32,59.17159763,672a315f5ffd0405912274c1,69b95efdef24cd8a694e89ee,69b95fffc97054dae3fb680c,0.0689,0.0689,0,62,62,63,1,fourthree,,,,,,,,,,,,,,,,,,,,,,,,,,,,,,,,,,,,,,,,,,,,,,,,,,,,,,,,,,,,,,,,,,,,,,,,,,,,,,,,,,,,,,,,,,,,,,,,,,,,,,,,,,,,,,,,,,,,,,,,,,,,,,,,,,,,,,,,,
,,672a315f5ffd0405912274c1,2026-03-17_15h09.29.017,kallum_motion_pilot_GIST_update_2,2026.1.1,Win32,59.17159763,672a315f5ffd0405912274c1,69b95efdef24cd8a694e89ee,69b95fffc97054dae3fb680c,0.0691,0.0691,0,63,63,145,1,fiveseven,,,,,,,,,,,,,,,,,,,,,,,,,,,,,,,,,,,,,,,,,,,,,,,,,,,,,,,,,,,,,,,,,,,,,,,,,,,,,,,,,,,,,,,,,,,,,,,,,,,,,,,,,,,,,,,,,,,,,,,,,,,,,,,,,,,,,,,,,
,,672a315f5ffd0405912274c1,2026-03-17_15h09.29.017,kallum_motion_pilot_GIST_update_2,2026.1.1,Win32,59.17159763,672a315f5ffd0405912274c1,69b95efdef24cd8a694e89ee,69b95fffc97054dae3fb680c,0.0692,0.0693,0,64,64,114,1,sixfive,,,,,,,,,,,,,,,,,,,,,,,,,,,,,,,,,,,,,,,,,,,,,,,,,,,,,,,,,,,,,,,,,,,,,,,,,,,,,,,,,,,,,,,,,,,,,,,,,,,,,,,,,,,,,,,,,,,,,,,,,,,,,,,,,,,,,,,,,
,,672a315f5ffd0405912274c1,2026-03-17_15h09.29.017,kallum_motion_pilot_GIST_update_2,2026.1.1,Win32,59.17159763,672a315f5ffd0405912274c1,69b95efdef24cd8a694e89ee,69b95fffc97054dae3fb680c,0.0695,0.0695,0,65,65,65,1,onethree,,,,,,,,,,,,,,,,,,,,,,,,,,,,,,,,,,,,,,,,,,,,,,,,,,,,,,,,,,,,,,,,,,,,,,,,,,,,,,,,,,,,,,,,,,,,,,,,,,,,,,,,,,,,,,,,,,,,,,,,,,,,,,,,,,,,,,,,,
,,672a315f5ffd0405912274c1,2026-03-17_15h09.29.017,kallum_motion_pilot_GIST_update_2,2026.1.1,Win32,59.17159763,672a315f5ffd0405912274c1,69b95efdef24cd8a694e89ee,69b95fffc97054dae3fb680c,0.0697,0.0697,0,66,66,81,1,fiveseven,,,,,,,,,,,,,,,,,,,,,,,,,,,,,,,,,,,,,,,,,,,,,,,,,,,,,,,,,,,,,,,,,,,,,,,,,,,,,,,,,,,,,,,,,,,,,,,,,,,,,,,,,,,,,,,,,,,,,,,,,,,,,,,,,,,,,,,,,
,,672a315f5ffd0405912274c1,2026-03-17_15h09.29.017,kallum_motion_pilot_GIST_update_2,2026.1.1,Win32,59.17159763,672a315f5ffd0405912274c1,69b95efdef24cd8a694e89ee,69b95fffc97054dae3fb680c,0.0699,0.0699,0,67,67,116,1,sevenfive,,,,,,,,,,,,,,,,,,,,,,,,,,,,,,,,,,,,,,,,,,,,,,,,,,,,,,,,,,,,,,,,,,,,,,,,,,,,,,,,,,,,,,,,,,,,,,,,,,,,,,,,,,,,,,,,,,,,,,,,,,,,,,,,,,,,,,,,,
,,672a315f5ffd0405912274c1,2026-03-17_15h09.29.017,kallum_motion_pilot_GIST_update_2,2026.1.1,Win32,59.17159763,672a315f5ffd0405912274c1,69b95efdef24cd8a694e89ee,69b95fffc97054dae3fb680c,0.0701,0.0701,0,68,68,107,1,sixeight,,,,,,,,,,,,,,,,,,,,,,,,,,,,,,,,,,,,,,,,,,,,,,,,,,,,,,,,,,,,,,,,,,,,,,,,,,,,,,,,,,,,,,,,,,,,,,,,,,,,,,,,,,,,,,,,,,,,,,,,,,,,,,,,,,,,,,,,,
,,672a315f5ffd0405912274c1,2026-03-17_15h09.29.017,kallum_motion_pilot_GIST_update_2,2026.1.1,Win32,59.17159763,672a315f5ffd0405912274c1,69b95efdef24cd8a694e89ee,69b95fffc97054dae3fb680c,0.0704,0.0704,0,69,69,10,1,twoone,,,,,,,,,,,,,,,,,,,,,,,,,,,,,,,,,,,,,,,,,,,,,,,,,,,,,,,,,,,,,,,,,,,,,,,,,,,,,,,,,,,,,,,,,,,,,,,,,,,,,,,,,,,,,,,,,,,,,,,,,,,,,,,,,,,,,,,,,
,,672a315f5ffd0405912274c1,2026-03-17_15h09.29.017,kallum_motion_pilot_GIST_update_2,2026.1.1,Win32,59.17159763,672a315f5ffd0405912274c1,69b95efdef24cd8a694e89ee,69b95fffc97054dae3fb680c,0.0706,0.0706,0,70,70,131,1,sixeight,,,,,,,,,,,,,,,,,,,,,,,,,,,,,,,,,,,,,,,,,,,,,,,,,,,,,,,,,,,,,,,,,,,,,,,,,,,,,,,,,,,,,,,,,,,,,,,,,,,,,,,,,,,,,,,,,,,,,,,,,,,,,,,,,,,,,,,,,
,,672a315f5ffd0405912274c1,2026-03-17_15h09.29.017,kallum_motion_pilot_GIST_update_2,2026.1.1,Win32,59.17159763,672a315f5ffd0405912274c1,69b95efdef24cd8a694e89ee,69b95fffc97054dae3fb680c,0.0709,0.0709,0,71,71,123,1,sixeight,,,,,,,,,,,,,,,,,,,,,,,,,,,,,,,,,,,,,,,,,,,,,,,,,,,,,,,,,,,,,,,,,,,,,,,,,,,,,,,,,,,,,,,,,,,,,,,,,,,,,,,,,,,,,,,,,,,,,,,,,,,,,,,,,,,,,,,,,
,,672a315f5ffd0405912274c1,2026-03-17_15h09.29.017,kallum_motion_pilot_GIST_update_2,2026.1.1,Win32,59.17159763,672a315f5ffd0405912274c1,69b95efdef24cd8a694e89ee,69b95fffc97054dae3fb680c,0.0712,0.0712,0,72,72,148,1,sevenfive,,,,,,,,,,,,,,,,,,,,,,,,,,,,,,,,,,,,,,,,,,,,,,,,,,,,,,,,,,,,,,,,,,,,,,,,,,,,,,,,,,,,,,,,,,,,,,,,,,,,,,,,,,,,,,,,,,,,,,,,,,,,,,,,,,,,,,,,,
,,672a315f5ffd0405912274c1,2026-03-17_15h09.29.017,kallum_motion_pilot_GIST_update_2,2026.1.1,Win32,59.17159763,672a315f5ffd0405912274c1,69b95efdef24cd8a694e89ee,69b95fffc97054dae3fb680c,0.0714,0.0714,0,73,73,86,1,eightsix,,,,,,,,,,,,,,,,,,,,,,,,,,,,,,,,,,,,,,,,,,,,,,,,,,,,,,,,,,,,,,,,,,,,,,,,,,,,,,,,,,,,,,,,,,,,,,,,,,,,,,,,,,,,,,,,,,,,,,,,,,,,,,,,,,,,,,,,,
,,672a315f5ffd0405912274c1,2026-03-17_15h09.29.017,kallum_motion_pilot_GIST_update_2,2026.1.1,Win32,59.17159763,672a315f5ffd0405912274c1,69b95efdef24cd8a694e89ee,69b95fffc97054dae3fb680c,0.0716,0.0716,0,74,74,83,1,sixeight,,,,,,,,,,,,,,,,,,,,,,,,,,,,,,,,,,,,,,,,,,,,,,,,,,,,,,,,,,,,,,,,,,,,,,,,,,,,,,,,,,,,,,,,,,,,,,,,,,,,,,,,,,,,,,,,,,,,,,,,,,,,,,,,,,,,,,,,,
,,672a315f5ffd0405912274c1,2026-03-17_15h09.29.017,kallum_motion_pilot_GIST_update_2,2026.1.1,Win32,59.17159763,672a315f5ffd0405912274c1,69b95efdef24cd8a694e89ee,69b95fffc97054dae3fb680c,0.0718,0.0718,0,75,75,100,1,sevenfive,,,,,,,,,,,,,,,,,,,,,,,,,,,,,,,,,,,,,,,,,,,,,,,,,,,,,,,,,,,,,,,,,,,,,,,,,,,,,,,,,,,,,,,,,,,,,,,,,,,,,,,,,,,,,,,,,,,,,,,,,,,,,,,,,,,,,,,,,
,,672a315f5ffd0405912274c1,2026-03-17_15h09.29.017,kallum_motion_pilot_GIST_update_2,2026.1.1,Win32,59.17159763,672a315f5ffd0405912274c1,69b95efdef24cd8a694e89ee,69b95fffc97054dae3fb680c,0.0719,0.0719,0,76,76,89,1,fiveseven,,,,,,,,,,,,,,,,,,,,,,,,,,,,,,,,,,,,,,,,,,,,,,,,,,,,,,,,,,,,,,,,,,,,,,,,,,,,,,,,,,,,,,,,,,,,,,,,,,,,,,,,,,,,,,,,,,,,,,,,,,,,,,,,,,,,,,,,,
,,672a315f5ffd0405912274c1,2026-03-17_15h09.29.017,kallum_motion_pilot_GIST_update_2,2026.1.1,Win32,59.17159763,672a315f5ffd0405912274c1,69b95efdef24cd8a694e89ee,69b95fffc97054dae3fb680c,0.0722,0.0722,0,77,77,84,1,sevenfive,,,,,,,,,,,,,,,,,,,,,,,,,,,,,,,,,,,,,,,,,,,,,,,,,,,,,,,,,,,,,,,,,,,,,,,,,,,,,,,,,,,,,,,,,,,,,,,,,,,,,,,,,,,,,,,,,,,,,,,,,,,,,,,,,,,,,,,,,
,,672a315f5ffd0405912274c1,2026-03-17_15h09.29.017,kallum_motion_pilot_GIST_update_2,2026.1.1,Win32,59.17159763,672a315f5ffd0405912274c1,69b95efdef24cd8a694e89ee,69b95fffc97054dae3fb680c,0.0725,0.0725,0,78,78,78,1,fourtwo,,,,,,,,,,,,,,,,,,,,,,,,,,,,,,,,,,,,,,,,,,,,,,,,,,,,,,,,,,,,,,,,,,,,,,,,,,,,,,,,,,,,,,,,,,,,,,,,,,,,,,,,,,,,,,,,,,,,,,,,,,,,,,,,,,,,,,,,,
,,672a315f5ffd0405912274c1,2026-03-17_15h09.29.017,kallum_motion_pilot_GIST_update_2,2026.1.1,Win32,59.17159763,672a315f5ffd0405912274c1,69b95efdef24cd8a694e89ee,69b95fffc97054dae3fb680c,0.0727,0.0727,0,79,79,35,1,twofour,,,,,,,,,,,,,,,,,,,,,,,,,,,,,,,,,,,,,,,,,,,,,,,,,,,,,,,,,,,,,,,,,,,,,,,,,,,,,,,,,,,,,,,,,,,,,,,,,,,,,,,,,,,,,,,,,,,,,,,,,,,,,,,,,,,,,,,,,
,,672a315f5ffd0405912274c1,2026-03-17_15h09.29.017,kallum_motion_pilot_GIST_update_2,2026.1.1,Win32,59.17159763,672a315f5ffd0405912274c1,69b95efdef24cd8a694e89ee,69b95fffc97054dae3fb680c,0.0729,0.0729,0,80,80,115,1,sixeight,,,,,,,,,,,,,,,,,,,,,,,,,,,,,,,,,,,,,,,,,,,,,,,,,,,,,,,,,,,,,,,,,,,,,,,,,,,,,,,,,,,,,,,,,,,,,,,,,,,,,,,,,,,,,,,,,,,,,,,,,,,,,,,,,,,,,,,,,
,,672a315f5ffd0405912274c1,2026-03-17_15h09.29.017,kallum_motion_pilot_GIST_update_2,2026.1.1,Win32,59.17159763,672a315f5ffd0405912274c1,69b95efdef24cd8a694e89ee,69b95fffc97054dae3fb680c,0.073,0.0731,0,81,81,45,1,threefour,,,,,,,,,,,,,,,,,,,,,,,,,,,,,,,,,,,,,,,,,,,,,,,,,,,,,,,,,,,,,,,,,,,,,,,,,,,,,,,,,,,,,,,,,,,,,,,,,,,,,,,,,,,,,,,,,,,,,,,,,,,,,,,,,,,,,,,,,
,,672a315f5ffd0405912274c1,2026-03-17_15h09.29.017,kallum_motion_pilot_GIST_update_2,2026.1.1,Win32,59.17159763,672a315f5ffd0405912274c1,69b95efdef24cd8a694e89ee,69b95fffc97054dae3fb680c,0.0733,0.0733,0,82,82,26,1,twoone,,,,,,,,,,,,,,,,,,,,,,,,,,,,,,,,,,,,,,,,,,,,,,,,,,,,,,,,,,,,,,,,,,,,,,,,,,,,,,,,,,,,,,,,,,,,,,,,,,,,,,,,,,,,,,,,,,,,,,,,,,,,,,,,,,,,,,,,,
,,672a315f5ffd0405912274c1,2026-03-17_15h09.29.017,kallum_motion_pilot_GIST_update_2,2026.1.1,Win32,59.17159763,672a315f5ffd0405912274c1,69b95efdef24cd8a694e89ee,69b95fffc97054dae3fb680c,0.0735,0.0735,0,83,83,157,1,seveneight,,,,,,,,,,,,,,,,,,,,,,,,,,,,,,,,,,,,,,,,,,,,,,,,,,,,,,,,,,,,,,,,,,,,,,,,,,,,,,,,,,,,,,,,,,,,,,,,,,,,,,,,,,,,,,,,,,,,,,,,,,,,,,,,,,,,,,,,,
,,672a315f5ffd0405912274c1,2026-03-17_15h09.29.017,kallum_motion_pilot_GIST_update_2,2026.1.1,Win32,59.17159763,672a315f5ffd0405912274c1,69b95efdef24cd8a694e89ee,69b95fffc97054dae3fb680c,0.0739,0.0739,0,84,84,44,1,threeone,,,,,,,,,,,,,,,,,,,,,,,,,,,,,,,,,,,,,,,,,,,,,,,,,,,,,,,,,,,,,,,,,,,,,,,,,,,,,,,,,,,,,,,,,,,,,,,,,,,,,,,,,,,,,,,,,,,,,,,,,,,,,,,,,,,,,,,,,
,,672a315f5ffd0405912274c1,2026-03-17_15h09.29.017,kallum_motion_pilot_GIST_update_2,2026.1.1,Win32,59.17159763,672a315f5ffd0405912274c1,69b95efdef24cd8a694e89ee,69b95fffc97054dae3fb680c,0.074,0.074,0,85,85,0,1,onetwo,,,,,,,,,,,,,,,,,,,,,,,,,,,,,,,,,,,,,,,,,,,,,,,,,,,,,,,,,,,,,,,,,,,,,,,,,,,,,,,,,,,,,,,,,,,,,,,,,,,,,,,,,,,,,,,,,,,,,,,,,,,,,,,,,,,,,,,,,
,,672a315f5ffd0405912274c1,2026-03-17_15h09.29.017,kallum_motion_pilot_GIST_update_2,2026.1.1,Win32,59.17159763,672a315f5ffd0405912274c1,69b95efdef24cd8a694e89ee,69b95fffc97054dae3fb680c,0.0742,0.0743,0,86,86,30,1,fourtwo,,,,,,,,,,,,,,,,,,,,,,,,,,,,,,,,,,,,,,,,,,,,,,,,,,,,,,,,,,,,,,,,,,,,,,,,,,,,,,,,,,,,,,,,,,,,,,,,,,,,,,,,,,,,,,,,,,,,,,,,,,,,,,,,,,,,,,,,,
,,672a315f5ffd0405912274c1,2026-03-17_15h09.29.017,kallum_motion_pilot_GIST_update_2,2026.1.1,Win32,59.17159763,672a315f5ffd0405912274c1,69b95efdef24cd8a694e89ee,69b95fffc97054dae3fb680c,0.0745,0.0745,0,87,87,38,1,fourtwo,,,,,,,,,,,,,,,,,,,,,,,,,,,,,,,,,,,,,,,,,,,,,,,,,,,,,,,,,,,,,,,,,,,,,,,,,,,,,,,,,,,,,,,,,,,,,,,,,,,,,,,,,,,,,,,,,,,,,,,,,,,,,,,,,,,,,,,,,
,,672a315f5ffd0405912274c1,2026-03-17_15h09.29.017,kallum_motion_pilot_GIST_update_2,2026.1.1,Win32,59.17159763,672a315f5ffd0405912274c1,69b95efdef24cd8a694e89ee,69b95fffc97054dae3fb680c,0.0747,0.0747,0,88,88,25,1,onethree,,,,,,,,,,,,,,,,,,,,,,,,,,,,,,,,,,,,,,,,,,,,,,,,,,,,,,,,,,,,,,,,,,,,,,,,,,,,,,,,,,,,,,,,,,,,,,,,,,,,,,,,,,,,,,,,,,,,,,,,,,,,,,,,,,,,,,,,,
,,672a315f5ffd0405912274c1,2026-03-17_15h09.29.017,kallum_motion_pilot_GIST_update_2,2026.1.1,Win32,59.17159763,672a315f5ffd0405912274c1,69b95efdef24cd8a694e89ee,69b95fffc97054dae3fb680c,0.0748,0.0748,0,89,89,150,1,eightsix,,,,,,,,,,,,,,,,,,,,,,,,,,,,,,,,,,,,,,,,,,,,,,,,,,,,,,,,,,,,,,,,,,,,,,,,,,,,,,,,,,,,,,,,,,,,,,,,,,,,,,,,,,,,,,,,,,,,,,,,,,,,,,,,,,,,,,,,,
,,672a315f5ffd0405912274c1,2026-03-17_15h09.29.017,kallum_motion_pilot_GIST_update_2,2026.1.1,Win32,59.17159763,672a315f5ffd0405912274c1,69b95efdef24cd8a694e89ee,69b95fffc97054dae3fb680c,0.0751,0.0751,0,90,90,142,1,eightsix,,,,,,,,,,,,,,,,,,,,,,,,,,,,,,,,,,,,,,,,,,,,,,,,,,,,,,,,,,,,,,,,,,,,,,,,,,,,,,,,,,,,,,,,,,,,,,,,,,,,,,,,,,,,,,,,,,,,,,,,,,,,,,,,,,,,,,,,,
,,672a315f5ffd0405912274c1,2026-03-17_15h09.29.017,kallum_motion_pilot_GIST_update_2,2026.1.1,Win32,59.17159763,672a315f5ffd0405912274c1,69b95efdef24cd8a694e89ee,69b95fffc97054dae3fb680c,0.0753,0.0753,0,91,91,161,1,fiveseven,,,,,,,,,,,,,,,,,,,,,,,,,,,,,,,,,,,,,,,,,,,,,,,,,,,,,,,,,,,,,,,,,,,,,,,,,,,,,,,,,,,,,,,,,,,,,,,,,,,,,,,,,,,,,,,,,,,,,,,,,,,,,,,,,,,,,,,,,
,,672a315f5ffd0405912274c1,2026-03-17_15h09.29.017,kallum_motion_pilot_GIST_update_2,2026.1.1,Win32,59.17159763,672a315f5ffd0405912274c1,69b95efdef24cd8a694e89ee,69b95fffc97054dae3fb680c,0.0755,0.0756,0,92,92,53,1,threefour,,,,,,,,,,,,,,,,,,,,,,,,,,,,,,,,,,,,,,,,,,,,,,,,,,,,,,,,,,,,,,,,,,,,,,,,,,,,,,,,,,,,,,,,,,,,,,,,,,,,,,,,,,,,,,,,,,,,,,,,,,,,,,,,,,,,,,,,,
,,672a315f5ffd0405912274c1,2026-03-17_15h09.29.017,kallum_motion_pilot_GIST_update_2,2026.1.1,Win32,59.17159763,672a315f5ffd0405912274c1,69b95efdef24cd8a694e89ee,69b95fffc97054dae3fb680c,0.0758,0.0758,0,93,93,28,1,threeone,,,,,,,,,,,,,,,,,,,,,,,,,,,,,,,,,,,,,,,,,,,,,,,,,,,,,,,,,,,,,,,,,,,,,,,,,,,,,,,,,,,,,,,,,,,,,,,,,,,,,,,,,,,,,,,,,,,,,,,,,,,,,,,,,,,,,,,,,
,,672a315f5ffd0405912274c1,2026-03-17_15h09.29.017,kallum_motion_pilot_GIST_update_2,2026.1.1,Win32,59.17159763,672a315f5ffd0405912274c1,69b95efdef24cd8a694e89ee,69b95fffc97054dae3fb680c,0.076,0.076,0,94,94,73,1,onethree,,,,,,,,,,,,,,,,,,,,,,,,,,,,,,,,,,,,,,,,,,,,,,,,,,,,,,,,,,,,,,,,,,,,,,,,,,,,,,,,,,,,,,,,,,,,,,,,,,,,,,,,,,,,,,,,,,,,,,,,,,,,,,,,,,,,,,,,,
,,672a315f5ffd0405912274c1,2026-03-17_15h09.29.017,kallum_motion_pilot_GIST_update_2,2026.1.1,Win32,59.17159763,672a315f5ffd0405912274c1,69b95efdef24cd8a694e89ee,69b95fffc97054dae3fb680c,0.0761,0.0761,0,95,95,160,1,fivesix,,,,,,,,,,,,,,,,,,,,,,,,,,,,,,,,,,,,,,,,,,,,,,,,,,,,,,,,,,,,,,,,,,,,,,,,,,,,,,,,,,,,,,,,,,,,,,,,,,,,,,,,,,,,,,,,,,,,,,,,,,,,,,,,,,,,,,,,,
,,672a315f5ffd0405912274c1,2026-03-17_15h09.29.017,kallum_motion_pilot_GIST_update_2,2026.1.1,Win32,59.17159763,672a315f5ffd0405912274c1,69b95efdef24cd8a694e89ee,69b95fffc97054dae3fb680c,0.0764,0.0764,0,96,96,118,1,eightsix,,,,,,,,,,,,,,,,,,,,,,,,,,,,,,,,,,,,,,,,,,,,,,,,,,,,,,,,,,,,,,,,,,,,,,,,,,,,,,,,,,,,,,,,,,,,,,,,,,,,,,,,,,,,,,,,,,,,,,,,,,,,,,,,,,,,,,,,,
,,672a315f5ffd0405912274c1,2026-03-17_15h09.29.017,kallum_motion_pilot_GIST_update_2,2026.1.1,Win32,59.17159763,672a315f5ffd0405912274c1,69b95efdef24cd8a694e89ee,69b95fffc97054dae3fb680c,0.0766,0.0767,0,97,97,125,1,seveneight,,,,,,,,,,,,,,,,,,,,,,,,,,,,,,,,,,,,,,,,,,,,,,,,,,,,,,,,,,,,,,,,,,,,,,,,,,,,,,,,,,,,,,,,,,,,,,,,,,,,,,,,,,,,,,,,,,,,,,,,,,,,,,,,,,,,,,,,,
,,672a315f5ffd0405912274c1,2026-03-17_15h09.29.017,kallum_motion_pilot_GIST_update_2,2026.1.1,Win32,59.17159763,672a315f5ffd0405912274c1,69b95efdef24cd8a694e89ee,69b95fffc97054dae3fb680c,0.0768,0.0768,0,98,98,14,1,fourtwo,,,,,,,,,,,,,,,,,,,,,,,,,,,,,,,,,,,,,,,,,,,,,,,,,,,,,,,,,,,,,,,,,,,,,,,,,,,,,,,,,,,,,,,,,,,,,,,,,,,,,,,,,,,,,,,,,,,,,,,,,,,,,,,,,,,,,,,,,
,,672a315f5ffd0405912274c1,2026-03-17_15h09.29.017,kallum_motion_pilot_GIST_update_2,2026.1.1,Win32,59.17159763,672a315f5ffd0405912274c1,69b95efdef24cd8a694e89ee,69b95fffc97054dae3fb680c,0.077,0.077,0,99,99,111,1,eightseven,,,,,,,,,,,,,,,,,,,,,,,,,,,,,,,,,,,,,,,,,,,,,,,,,,,,,,,,,,,,,,,,,,,,,,,,,,,,,,,,,,,,,,,,,,,,,,,,,,,,,,,,,,,,,,,,,,,,,,,,,,,,,,,,,,,,,,,,,
,,672a315f5ffd0405912274c1,2026-03-17_15h09.29.017,kallum_motion_pilot_GIST_update_2,2026.1.1,Win32,59.17159763,672a315f5ffd0405912274c1,69b95efdef24cd8a694e89ee,69b95fffc97054dae3fb680c,0.0772,0.0773,0,100,100,96,1,fivesix,,,,,,,,,,,,,,,,,,,,,,,,,,,,,,,,,,,,,,,,,,,,,,,,,,,,,,,,,,,,,,,,,,,,,,,,,,,,,,,,,,,,,,,,,,,,,,,,,,,,,,,,,,,,,,,,,,,,,,,,,,,,,,,,,,,,,,,,,
,,672a315f5ffd0405912274c1,2026-03-17_15h09.29.017,kallum_motion_pilot_GIST_update_2,2026.1.1,Win32,59.17159763,672a315f5ffd0405912274c1,69b95efdef24cd8a694e89ee,69b95fffc97054dae3fb680c,0.0775,0.0775,0,101,101,108,1,sevenfive,,,,,,,,,,,,,,,,,,,,,,,,,,,,,,,,,,,,,,,,,,,,,,,,,,,,,,,,,,,,,,,,,,,,,,,,,,,,,,,,,,,,,,,,,,,,,,,,,,,,,,,,,,,,,,,,,,,,,,,,,,,,,,,,,,,,,,,,,
,,672a315f5ffd0405912274c1,2026-03-17_15h09.29.017,kallum_motion_pilot_GIST_update_2,2026.1.1,Win32,59.17159763,672a315f5ffd0405912274c1,69b95efdef24cd8a694e89ee,69b95fffc97054dae3fb680c,0.0777,0.0777,0,102,102,146,1,sixfive,,,,,,,,,,,,,,,,,,,,,,,,,,,,,,,,,,,,,,,,,,,,,,,,,,,,,,,,,,,,,,,,,,,,,,,,,,,,,,,,,,,,,,,,,,,,,,,,,,,,,,,,,,,,,,,,,,,,,,,,,,,,,,,,,,,,,,,,,
,,672a315f5ffd0405912274c1,2026-03-17_15h09.29.017,kallum_motion_pilot_GIST_update_2,2026.1.1,Win32,59.17159763,672a315f5ffd0405912274c1,69b95efdef24cd8a694e89ee,69b95fffc97054dae3fb680c,0.0779,0.0779,0,103,103,159,1,eightseven,,,,,,,,,,,,,,,,,,,,,,,,,,,,,,,,,,,,,,,,,,,,,,,,,,,,,,,,,,,,,,,,,,,,,,,,,,,,,,,,,,,,,,,,,,,,,,,,,,,,,,,,,,,,,,,,,,,,,,,,,,,,,,,,,,,,,,,,,
,,672a315f5ffd0405912274c1,2026-03-17_15h09.29.017,kallum_motion_pilot_GIST_update_2,2026.1.1,Win32,59.17159763,672a315f5ffd0405912274c1,69b95efdef24cd8a694e89ee,69b95fffc97054dae3fb680c,0.0782,0.0782,0,104,104,52,1,threeone,,,,,,,,,,,,,,,,,,,,,,,,,,,,,,,,,,,,,,,,,,,,,,,,,,,,,,,,,,,,,,,,,,,,,,,,,,,,,,,,,,,,,,,,,,,,,,,,,,,,,,,,,,,,,,,,,,,,,,,,,,,,,,,,,,,,,,,,,
,,672a315f5ffd0405912274c1,2026-03-17_15h09.29.017,kallum_motion_pilot_GIST_update_2,2026.1.1,Win32,59.17159763,672a315f5ffd0405912274c1,69b95efdef24cd8a694e89ee,69b95fffc97054dae3fb680c,0.0783,0.0783,0,105,105,67,1,twofour,,,,,,,,,,,,,,,,,,,,,,,,,,,,,,,,,,,,,,,,,,,,,,,,,,,,,,,,,,,,,,,,,,,,,,,,,,,,,,,,,,,,,,,,,,,,,,,,,,,,,,,,,,,,,,,,,,,,,,,,,,,,,,,,,,,,,,,,,
,,672a315f5ffd0405912274c1,2026-03-17_15h09.29.017,kallum_motion_pilot_GIST_update_2,2026.1.1,Win32,59.17159763,672a315f5ffd0405912274c1,69b95efdef24cd8a694e89ee,69b95fffc97054dae3fb680c,0.0785,0.0785,0,106,106,2,1,twoone,,,,,,,,,,,,,,,,,,,,,,,,,,,,,,,,,,,,,,,,,,,,,,,,,,,,,,,,,,,,,,,,,,,,,,,,,,,,,,,,,,,,,,,,,,,,,,,,,,,,,,,,,,,,,,,,,,,,,,,,,,,,,,,,,,,,,,,,,
,,672a315f5ffd0405912274c1,2026-03-17_15h09.29.017,kallum_motion_pilot_GIST_update_2,2026.1.1,Win32,59.17159763,672a315f5ffd0405912274c1,69b95efdef24cd8a694e89ee,69b95fffc97054dae3fb680c,0.0787,0.0787,0,107,107,91,1,sixeight,,,,,,,,,,,,,,,,,,,,,,,,,,,,,,,,,,,,,,,,,,,,,,,,,,,,,,,,,,,,,,,,,,,,,,,,,,,,,,,,,,,,,,,,,,,,,,,,,,,,,,,,,,,,,,,,,,,,,,,,,,,,,,,,,,,,,,,,,
,,672a315f5ffd0405912274c1,2026-03-17_15h09.29.017,kallum_motion_pilot_GIST_update_2,2026.1.1,Win32,59.17159763,672a315f5ffd0405912274c1,69b95efdef24cd8a694e89ee,69b95fffc97054dae3fb680c,0.0789,0.0789,0,108,108,12,1,threeone,,,,,,,,,,,,,,,,,,,,,,,,,,,,,,,,,,,,,,,,,,,,,,,,,,,,,,,,,,,,,,,,,,,,,,,,,,,,,,,,,,,,,,,,,,,,,,,,,,,,,,,,,,,,,,,,,,,,,,,,,,,,,,,,,,,,,,,,,
,,672a315f5ffd0405912274c1,2026-03-17_15h09.29.017,kallum_motion_pilot_GIST_update_2,2026.1.1,Win32,59.17159763,672a315f5ffd0405912274c1,69b95efdef24cd8a694e89ee,69b95fffc97054dae3fb680c,0.0791,0.0791,0,109,109,68,1,threeone,,,,,,,,,,,,,,,,,,,,,,,,,,,,,,,,,,,,,,,,,,,,,,,,,,,,,,,,,,,,,,,,,,,,,,,,,,,,,,,,,,,,,,,,,,,,,,,,,,,,,,,,,,,,,,,,,,,,,,,,,,,,,,,,,,,,,,,,,
,,672a315f5ffd0405912274c1,2026-03-17_15h09.29.017,kallum_motion_pilot_GIST_update_2,2026.1.1,Win32,59.17159763,672a315f5ffd0405912274c1,69b95efdef24cd8a694e89ee,69b95fffc97054dae3fb680c,0.0793,0.0793,0,110,110,155,1,sixeight,,,,,,,,,,,,,,,,,,,,,,,,,,,,,,,,,,,,,,,,,,,,,,,,,,,,,,,,,,,,,,,,,,,,,,,,,,,,,,,,,,,,,,,,,,,,,,,,,,,,,,,,,,,,,,,,,,,,,,,,,,,,,,,,,,,,,,,,,
,,672a315f5ffd0405912274c1,2026-03-17_15h09.29.017,kallum_motion_pilot_GIST_update_2,2026.1.1,Win32,59.17159763,672a315f5ffd0405912274c1,69b95efdef24cd8a694e89ee,69b95fffc97054dae3fb680c,0.0795,0.0795,0,111,111,112,1,fivesix,,,,,,,,,,,,,,,,,,,,,,,,,,,,,,,,,,,,,,,,,,,,,,,,,,,,,,,,,,,,,,,,,,,,,,,,,,,,,,,,,,,,,,,,,,,,,,,,,,,,,,,,,,,,,,,,,,,,,,,,,,,,,,,,,,,,,,,,,
,,672a315f5ffd0405912274c1,2026-03-17_15h09.29.017,kallum_motion_pilot_GIST_update_2,2026.1.1,Win32,59.17159763,672a315f5ffd0405912274c1,69b95efdef24cd8a694e89ee,69b95fffc97054dae3fb680c,0.0797,0.0797,0,112,112,7,1,fourthree,,,,,,,,,,,,,,,,,,,,,,,,,,,,,,,,,,,,,,,,,,,,,,,,,,,,,,,,,,,,,,,,,,,,,,,,,,,,,,,,,,,,,,,,,,,,,,,,,,,,,,,,,,,,,,,,,,,,,,,,,,,,,,,,,,,,,,,,,
,,672a315f5ffd0405912274c1,2026-03-17_15h09.29.017,kallum_motion_pilot_GIST_update_2,2026.1.1,Win32,59.17159763,672a315f5ffd0405912274c1,69b95efdef24cd8a694e89ee,69b95fffc97054dae3fb680c,0.08,0.08,0,113,113,42,1,twoone,,,,,,,,,,,,,,,,,,,,,,,,,,,,,,,,,,,,,,,,,,,,,,,,,,,,,,,,,,,,,,,,,,,,,,,,,,,,,,,,,,,,,,,,,,,,,,,,,,,,,,,,,,,,,,,,,,,,,,,,,,,,,,,,,,,,,,,,,
,,672a315f5ffd0405912274c1,2026-03-17_15h09.29.017,kallum_motion_pilot_GIST_update_2,2026.1.1,Win32,59.17159763,672a315f5ffd0405912274c1,69b95efdef24cd8a694e89ee,69b95fffc97054dae3fb680c,0.0802,0.0802,0,114,114,154,1,sixfive,,,,,,,,,,,,,,,,,,,,,,,,,,,,,,,,,,,,,,,,,,,,,,,,,,,,,,,,,,,,,,,,,,,,,,,,,,,,,,,,,,,,,,,,,,,,,,,,,,,,,,,,,,,,,,,,,,,,,,,,,,,,,,,,,,,,,,,,,
,,672a315f5ffd0405912274c1,2026-03-17_15h09.29.017,kallum_motion_pilot_GIST_update_2,2026.1.1,Win32,59.17159763,672a315f5ffd0405912274c1,69b95efdef24cd8a694e89ee,69b95fffc97054dae3fb680c,0.0804,0.0804,0,115,115,127,1,eightseven,,,,,,,,,,,,,,,,,,,,,,,,,,,,,,,,,,,,,,,,,,,,,,,,,,,,,,,,,,,,,,,,,,,,,,,,,,,,,,,,,,,,,,,,,,,,,,,,,,,,,,,,,,,,,,,,,,,,,,,,,,,,,,,,,,,,,,,,,
,,672a315f5ffd0405912274c1,2026-03-17_15h09.29.017,kallum_motion_pilot_GIST_update_2,2026.1.1,Win32,59.17159763,672a315f5ffd0405912274c1,69b95efdef24cd8a694e89ee,69b95fffc97054dae3fb680c,0.0807,0.0807,0,116,116,102,1,eightsix,,,,,,,,,,,,,,,,,,,,,,,,,,,,,,,,,,,,,,,,,,,,,,,,,,,,,,,,,,,,,,,,,,,,,,,,,,,,,,,,,,,,,,,,,,,,,,,,,,,,,,,,,,,,,,,,,,,,,,,,,,,,,,,,,,,,,,,,,
,,672a315f5ffd0405912274c1,2026-03-17_15h09.29.017,kallum_motion_pilot_GIST_update_2,2026.1.1,Win32,59.17159763,672a315f5ffd0405912274c1,69b95efdef24cd8a694e89ee,69b95fffc97054dae3fb680c,0.0808,0.0808,0,117,117,34,1,twoone,,,,,,,,,,,,,,,,,,,,,,,,,,,,,,,,,,,,,,,,,,,,,,,,,,,,,,,,,,,,,,,,,,,,,,,,,,,,,,,,,,,,,,,,,,,,,,,,,,,,,,,,,,,,,,,,,,,,,,,,,,,,,,,,,,,,,,,,,
,,672a315f5ffd0405912274c1,2026-03-17_15h09.29.017,kallum_motion_pilot_GIST_update_2,2026.1.1,Win32,59.17159763,672a315f5ffd0405912274c1,69b95efdef24cd8a694e89ee,69b95fffc97054dae3fb680c,0.0811,0.0811,0,118,118,41,1,onethree,,,,,,,,,,,,,,,,,,,,,,,,,,,,,,,,,,,,,,,,,,,,,,,,,,,,,,,,,,,,,,,,,,,,,,,,,,,,,,,,,,,,,,,,,,,,,,,,,,,,,,,,,,,,,,,,,,,,,,,,,,,,,,,,,,,,,,,,,
,,672a315f5ffd0405912274c1,2026-03-17_15h09.29.017,kallum_motion_pilot_GIST_update_2,2026.1.1,Win32,59.17159763,672a315f5ffd0405912274c1,69b95efdef24cd8a694e89ee,69b95fffc97054dae3fb680c,0.0815,0.0815,0,119,119,79,1,eightseven,,,,,,,,,,,,,,,,,,,,,,,,,,,,,,,,,,,,,,,,,,,,,,,,,,,,,,,,,,,,,,,,,,,,,,,,,,,,,,,,,,,,,,,,,,,,,,,,,,,,,,,,,,,,,,,,,,,,,,,,,,,,,,,,,,,,,,,,,
,,672a315f5ffd0405912274c1,2026-03-17_15h09.29.017,kallum_motion_pilot_GIST_update_2,2026.1.1,Win32,59.17159763,672a315f5ffd0405912274c1,69b95efdef24cd8a694e89ee,69b95fffc97054dae3fb680c,0.0817,0.0817,0,120,120,1,1,onethree,,,,,,,,,,,,,,,,,,,,,,,,,,,,,,,,,,,,,,,,,,,,,,,,,,,,,,,,,,,,,,,,,,,,,,,,,,,,,,,,,,,,,,,,,,,,,,,,,,,,,,,,,,,,,,,,,,,,,,,,,,,,,,,,,,,,,,,,,
,,672a315f5ffd0405912274c1,2026-03-17_15h09.29.017,kallum_motion_pilot_GIST_update_2,2026.1.1,Win32,59.17159763,672a315f5ffd0405912274c1,69b95efdef24cd8a694e89ee,69b95fffc97054dae3fb680c,0.082,0.0821,0,121,121,51,1,twofour,,,,,,,,,,,,,,,,,,,,,,,,,,,,,,,,,,,,,,,,,,,,,,,,,,,,,,,,,,,,,,,,,,,,,,,,,,,,,,,,,,,,,,,,,,,,,,,,,,,,,,,,,,,,,,,,,,,,,,,,,,,,,,,,,,,,,,,,,
,,672a315f5ffd0405912274c1,2026-03-17_15h09.29.017,kallum_motion_pilot_GIST_update_2,2026.1.1,Win32,59.17159763,672a315f5ffd0405912274c1,69b95efdef24cd8a694e89ee,69b95fffc97054dae3fb680c,0.0823,0.0823,0,122,122,6,1,fourtwo,,,,,,,,,,,,,,,,,,,,,,,,,,,,,,,,,,,,,,,,,,,,,,,,,,,,,,,,,,,,,,,,,,,,,,,,,,,,,,,,,,,,,,,,,,,,,,,,,,,,,,,,,,,,,,,,,,,,,,,,,,,,,,,,,,,,,,,,,
,,672a315f5ffd0405912274c1,2026-03-17_15h09.29.017,kallum_motion_pilot_GIST_update_2,2026.1.1,Win32,59.17159763,672a315f5ffd0405912274c1,69b95efdef24cd8a694e89ee,69b95fffc97054dae3fb680c,0.0825,0.0825,0,123,123,98,1,sixfive,,,,,,,,,,,,,,,,,,,,,,,,,,,,,,,,,,,,,,,,,,,,,,,,,,,,,,,,,,,,,,,,,,,,,,,,,,,,,,,,,,,,,,,,,,,,,,,,,,,,,,,,,,,,,,,,,,,,,,,,,,,,,,,,,,,,,,,,,
,,672a315f5ffd0405912274c1,2026-03-17_15h09.29.017,kallum_motion_pilot_GIST_update_2,2026.1.1,Win32,59.17159763,672a315f5ffd0405912274c1,69b95efdef24cd8a694e89ee,69b95fffc97054dae3fb680c,0.0828,0.0828,0,124,124,106,1,sixfive,,,,,,,,,,,,,,,,,,,,,,,,,,,,,,,,,,,,,,,,,,,,,,,,,,,,,,,,,,,,,,,,,,,,,,,,,,,,,,,,,,,,,,,,,,,,,,,,,,,,,,,,,,,,,,,,,,,,,,,,,,,,,,,,,,,,,,,,,
,,672a315f5ffd0405912274c1,2026-03-17_15h09.29.017,kallum_motion_pilot_GIST_update_2,2026.1.1,Win32,59.17159763,672a315f5ffd0405912274c1,69b95efdef24cd8a694e89ee,69b95fffc97054dae3fb680c,0.083,0.083,0,125,125,71,1,fourthree,,,,,,,,,,,,,,,,,,,,,,,,,,,,,,,,,,,,,,,,,,,,,,,,,,,,,,,,,,,,,,,,,,,,,,,,,,,,,,,,,,,,,,,,,,,,,,,,,,,,,,,,,,,,,,,,,,,,,,,,,,,,,,,,,,,,,,,,,
,,672a315f5ffd0405912274c1,2026-03-17_15h09.29.017,kallum_motion_pilot_GIST_update_2,2026.1.1,Win32,59.17159763,672a315f5ffd0405912274c1,69b95efdef24cd8a694e89ee,69b95fffc97054dae3fb680c,0.0832,0.0832,0,126,126,9,1,onethree,,,,,,,,,,,,,,,,,,,,,,,,,,,,,,,,,,,,,,,,,,,,,,,,,,,,,,,,,,,,,,,,,,,,,,,,,,,,,,,,,,,,,,,,,,,,,,,,,,,,,,,,,,,,,,,,,,,,,,,,,,,,,,,,,,,,,,,,,
,,672a315f5ffd0405912274c1,2026-03-17_15h09.29.017,kallum_motion_pilot_GIST_update_2,2026.1.1,Win32,59.17159763,672a315f5ffd0405912274c1,69b95efdef24cd8a694e89ee,69b95fffc97054dae3fb680c,0.0835,0.0835,0,127,127,117,1,seveneight,,,,,,,,,,,,,,,,,,,,,,,,,,,,,,,,,,,,,,,,,,,,,,,,,,,,,,,,,,,,,,,,,,,,,,,,,,,,,,,,,,,,,,,,,,,,,,,,,,,,,,,,,,,,,,,,,,,,,,,,,,,,,,,,,,,,,,,,,
,,672a315f5ffd0405912274c1,2026-03-17_15h09.29.017,kallum_motion_pilot_GIST_update_2,2026.1.1,Win32,59.17159763,672a315f5ffd0405912274c1,69b95efdef24cd8a694e89ee,69b95fffc97054dae3fb680c,0.0837,0.0837,0,128,128,152,1,fivesix,,,,,,,,,,,,,,,,,,,,,,,,,,,,,,,,,,,,,,,,,,,,,,,,,,,,,,,,,,,,,,,,,,,,,,,,,,,,,,,,,,,,,,,,,,,,,,,,,,,,,,,,,,,,,,,,,,,,,,,,,,,,,,,,,,,,,,,,,
,,672a315f5ffd0405912274c1,2026-03-17_15h09.29.017,kallum_motion_pilot_GIST_update_2,2026.1.1,Win32,59.17159763,672a315f5ffd0405912274c1,69b95efdef24cd8a694e89ee,69b95fffc97054dae3fb680c,0.0839,0.0839,0,129,129,135,1,eightseven,,,,,,,,,,,,,,,,,,,,,,,,,,,,,,,,,,,,,,,,,,,,,,,,,,,,,,,,,,,,,,,,,,,,,,,,,,,,,,,,,,,,,,,,,,,,,,,,,,,,,,,,,,,,,,,,,,,,,,,,,,,,,,,,,,,,,,,,,
,,672a315f5ffd0405912274c1,2026-03-17_15h09.29.017,kallum_motion_pilot_GIST_update_2,2026.1.1,Win32,59.17159763,672a315f5ffd0405912274c1,69b95efdef24cd8a694e89ee,69b95fffc97054dae3fb680c,0.0841,0.0842,0,130,130,11,1,twofour,,,,,,,,,,,,,,,,,,,,,,,,,,,,,,,,,,,,,,,,,,,,,,,,,,,,,,,,,,,,,,,,,,,,,,,,,,,,,,,,,,,,,,,,,,,,,,,,,,,,,,,,,,,,,,,,,,,,,,,,,,,,,,,,,,,,,,,,,
,,672a315f5ffd0405912274c1,2026-03-17_15h09.29.017,kallum_motion_pilot_GIST_update_2,2026.1.1,Win32,59.17159763,672a315f5ffd0405912274c1,69b95efdef24cd8a694e89ee,69b95fffc97054dae3fb680c,0.0843,0.0843,0,131,131,36,1,threeone,,,,,,,,,,,,,,,,,,,,,,,,,,,,,,,,,,,,,,,,,,,,,,,,,,,,,,,,,,,,,,,,,,,,,,,,,,,,,,,,,,,,,,,,,,,,,,,,,,,,,,,,,,,,,,,,,,,,,,,,,,,,,,,,,,,,,,,,,
,,672a315f5ffd0405912274c1,2026-03-17_15h09.29.017,kallum_motion_pilot_GIST_update_2,2026.1.1,Win32,59.17159763,672a315f5ffd0405912274c1,69b95efdef24cd8a694e89ee,69b95fffc97054dae3fb680c,0.0844,0.0845,0,132,132,75,1,twofour,,,,,,,,,,,,,,,,,,,,,,,,,,,,,,,,,,,,,,,,,,,,,,,,,,,,,,,,,,,,,,,,,,,,,,,,,,,,,,,,,,,,,,,,,,,,,,,,,,,,,,,,,,,,,,,,,,,,,,,,,,,,,,,,,,,,,,,,,
,,672a315f5ffd0405912274c1,2026-03-17_15h09.29.017,kallum_motion_pilot_GIST_update_2,2026.1.1,Win32,59.17159763,672a315f5ffd0405912274c1,69b95efdef24cd8a694e89ee,69b95fffc97054dae3fb680c,0.0847,0.0847,0,133,133,104,1,fivesix,,,,,,,,,,,,,,,,,,,,,,,,,,,,,,,,,,,,,,,,,,,,,,,,,,,,,,,,,,,,,,,,,,,,,,,,,,,,,,,,,,,,,,,,,,,,,,,,,,,,,,,,,,,,,,,,,,,,,,,,,,,,,,,,,,,,,,,,,
,,672a315f5ffd0405912274c1,2026-03-17_15h09.29.017,kallum_motion_pilot_GIST_update_2,2026.1.1,Win32,59.17159763,672a315f5ffd0405912274c1,69b95efdef24cd8a694e89ee,69b95fffc97054dae3fb680c,0.085,0.085,0,134,134,39,1,fourthree,,,,,,,,,,,,,,,,,,,,,,,,,,,,,,,,,,,,,,,,,,,,,,,,,,,,,,,,,,,,,,,,,,,,,,,,,,,,,,,,,,,,,,,,,,,,,,,,,,,,,,,,,,,,,,,,,,,,,,,,,,,,,,,,,,,,,,,,,
,,672a315f5ffd0405912274c1,2026-03-17_15h09.29.017,kallum_motion_pilot_GIST_update_2,2026.1.1,Win32,59.17159763,672a315f5ffd0405912274c1,69b95efdef24cd8a694e89ee,69b95fffc97054dae3fb680c,0.0852,0.0852,0,135,135,74,1,twoone,,,,,,,,,,,,,,,,,,,,,,,,,,,,,,,,,,,,,,,,,,,,,,,,,,,,,,,,,,,,,,,,,,,,,,,,,,,,,,,,,,,,,,,,,,,,,,,,,,,,,,,,,,,,,,,,,,,,,,,,,,,,,,,,,,,,,,,,,
,,672a315f5ffd0405912274c1,2026-03-17_15h09.29.017,kallum_motion_pilot_GIST_update_2,2026.1.1,Win32,59.17159763,672a315f5ffd0405912274c1,69b95efdef24cd8a694e89ee,69b95fffc97054dae3fb680c,0.0855,0.0856,0,136,136,32,1,onetwo,,,,,,,,,,,,,,,,,,,,,,,,,,,,,,,,,,,,,,,,,,,,,,,,,,,,,,,,,,,,,,,,,,,,,,,,,,,,,,,,,,,,,,,,,,,,,,,,,,,,,,,,,,,,,,,,,,,,,,,,,,,,,,,,,,,,,,,,,
,,672a315f5ffd0405912274c1,2026-03-17_15h09.29.017,kallum_motion_pilot_GIST_update_2,2026.1.1,Win32,59.17159763,672a315f5ffd0405912274c1,69b95efdef24cd8a694e89ee,69b95fffc97054dae3fb680c,0.0857,0.0857,0,137,137,20,1,threeone,,,,,,,,,,,,,,,,,,,,,,,,,,,,,,,,,,,,,,,,,,,,,,,,,,,,,,,,,,,,,,,,,,,,,,,,,,,,,,,,,,,,,,,,,,,,,,,,,,,,,,,,,,,,,,,,,,,,,,,,,,,,,,,,,,,,,,,,,
,,672a315f5ffd0405912274c1,2026-03-17_15h09.29.017,kallum_motion_pilot_GIST_update_2,2026.1.1,Win32,59.17159763,672a315f5ffd0405912274c1,69b95efdef24cd8a694e89ee,69b95fffc97054dae3fb680c,0.0859,0.0859,0,138,138,66,1,twoone,,,,,,,,,,,,,,,,,,,,,,,,,,,,,,,,,,,,,,,,,,,,,,,,,,,,,,,,,,,,,,,,,,,,,,,,,,,,,,,,,,,,,,,,,,,,,,,,,,,,,,,,,,,,,,,,,,,,,,,,,,,,,,,,,,,,,,,,,
,,672a315f5ffd0405912274c1,2026-03-17_15h09.29.017,kallum_motion_pilot_GIST_update_2,2026.1.1,Win32,59.17159763,672a315f5ffd0405912274c1,69b95efdef24cd8a694e89ee,69b95fffc97054dae3fb680c,0.0862,0.0862,0,139,139,88,1,fivesix,,,,,,,,,,,,,,,,,,,,,,,,,,,,,,,,,,,,,,,,,,,,,,,,,,,,,,,,,,,,,,,,,,,,,,,,,,,,,,,,,,,,,,,,,,,,,,,,,,,,,,,,,,,,,,,,,,,,,,,,,,,,,,,,,,,,,,,,,
,,672a315f5ffd0405912274c1,2026-03-17_15h09.29.017,kallum_motion_pilot_GIST_update_2,2026.1.1,Win32,59.17159763,672a315f5ffd0405912274c1,69b95efdef24cd8a694e89ee,69b95fffc97054dae3fb680c,0.0865,0.0865,0,140,140,40,1,onetwo,,,,,,,,,,,,,,,,,,,,,,,,,,,,,,,,,,,,,,,,,,,,,,,,,,,,,,,,,,,,,,,,,,,,,,,,,,,,,,,,,,,,,,,,,,,,,,,,,,,,,,,,,,,,,,,,,,,,,,,,,,,,,,,,,,,,,,,,,
,,672a315f5ffd0405912274c1,2026-03-17_15h09.29.017,kallum_motion_pilot_GIST_update_2,2026.1.1,Win32,59.17159763,672a315f5ffd0405912274c1,69b95efdef24cd8a694e89ee,69b95fffc97054dae3fb680c,0.0867,0.0867,0,141,141,13,1,threefour,,,,,,,,,,,,,,,,,,,,,,,,,,,,,,,,,,,,,,,,,,,,,,,,,,,,,,,,,,,,,,,,,,,,,,,,,,,,,,,,,,,,,,,,,,,,,,,,,,,,,,,,,,,,,,,,,,,,,,,,,,,,,,,,,,,,,,,,,
,,672a315f5ffd0405912274c1,2026-03-17_15h09.29.017,kallum_motion_pilot_GIST_update_2,2026.1.1,Win32,59.17159763,672a315f5ffd0405912274c1,69b95efdef24cd8a694e89ee,69b95fffc97054dae3fb680c,0.0869,0.087,0,142,142,19,1,twofour,,,,,,,,,,,,,,,,,,,,,,,,,,,,,,,,,,,,,,,,,,,,,,,,,,,,,,,,,,,,,,,,,,,,,,,,,,,,,,,,,,,,,,,,,,,,,,,,,,,,,,,,,,,,,,,,,,,,,,,,,,,,,,,,,,,,,,,,,
,,672a315f5ffd0405912274c1,2026-03-17_15h09.29.017,kallum_motion_pilot_GIST_update_2,2026.1.1,Win32,59.17159763,672a315f5ffd0405912274c1,69b95efdef24cd8a694e89ee,69b95fffc97054dae3fb680c,0.0873,0.0873,0,143,143,93,1,seveneight,,,,,,,,,,,,,,,,,,,,,,,,,,,,,,,,,,,,,,,,,,,,,,,,,,,,,,,,,,,,,,,,,,,,,,,,,,,,,,,,,,,,,,,,,,,,,,,,,,,,,,,,,,,,,,,,,,,,,,,,,,,,,,,,,,,,,,,,,
,,672a315f5ffd0405912274c1,2026-03-17_15h09.29.017,kallum_motion_pilot_GIST_update_2,2026.1.1,Win32,59.17159763,672a315f5ffd0405912274c1,69b95efdef24cd8a694e89ee,69b95fffc97054dae3fb680c,0.0875,0.0875,0,144,144,119,1,eightseven,,,,,,,,,,,,,,,,,,,,,,,,,,,,,,,,,,,,,,,,,,,,,,,,,,,,,,,,,,,,,,,,,,,,,,,,,,,,,,,,,,,,,,,,,,,,,,,,,,,,,,,,,,,,,,,,,,,,,,,,,,,,,,,,,,,,,,,,,
,,672a315f5ffd0405912274c1,2026-03-17_15h09.29.017,kallum_motion_pilot_GIST_update_2,2026.1.1,Win32,59.17159763,672a315f5ffd0405912274c1,69b95efdef24cd8a694e89ee,69b95fffc97054dae3fb680c,0.0877,0.0878,0,145,145,129,1,fiveseven,,,,,,,,,,,,,,,,,,,,,,,,,,,,,,,,,,,,,,,,,,,,,,,,,,,,,,,,,,,,,,,,,,,,,,,,,,,,,,,,,,,,,,,,,,,,,,,,,,,,,,,,,,,,,,,,,,,,,,,,,,,,,,,,,,,,,,,,,
,,672a315f5ffd0405912274c1,2026-03-17_15h09.29.017,kallum_motion_pilot_GIST_update_2,2026.1.1,Win32,59.17159763,672a315f5ffd0405912274c1,69b95efdef24cd8a694e89ee,69b95fffc97054dae3fb680c,0.088,0.088,0,146,146,72,1,onetwo,,,,,,,,,,,,,,,,,,,,,,,,,,,,,,,,,,,,,,,,,,,,,,,,,,,,,,,,,,,,,,,,,,,,,,,,,,,,,,,,,,,,,,,,,,,,,,,,,,,,,,,,,,,,,,,,,,,,,,,,,,,,,,,,,,,,,,,,,
,,672a315f5ffd0405912274c1,2026-03-17_15h09.29.017,kallum_motion_pilot_GIST_update_2,2026.1.1,Win32,59.17159763,672a315f5ffd0405912274c1,69b95efdef24cd8a694e89ee,69b95fffc97054dae3fb680c,0.0882,0.0882,0,147,147,124,1,sevenfive,,,,,,,,,,,,,,,,,,,,,,,,,,,,,,,,,,,,,,,,,,,,,,,,,,,,,,,,,,,,,,,,,,,,,,,,,,,,,,,,,,,,,,,,,,,,,,,,,,,,,,,,,,,,,,,,,,,,,,,,,,,,,,,,,,,,,,,,,
,,672a315f5ffd0405912274c1,2026-03-17_15h09.29.017,kallum_motion_pilot_GIST_update_2,2026.1.1,Win32,59.17159763,672a315f5ffd0405912274c1,69b95efdef24cd8a694e89ee,69b95fffc97054dae3fb680c,0.0884,0.0884,0,148,148,134,1,eightsix,,,,,,,,,,,,,,,,,,,,,,,,,,,,,,,,,,,,,,,,,,,,,,,,,,,,,,,,,,,,,,,,,,,,,,,,,,,,,,,,,,,,,,,,,,,,,,,,,,,,,,,,,,,,,,,,,,,,,,,,,,,,,,,,,,,,,,,,,
,,672a315f5ffd0405912274c1,2026-03-17_15h09.29.017,kallum_motion_pilot_GIST_update_2,2026.1.1,Win32,59.17159763,672a315f5ffd0405912274c1,69b95efdef24cd8a694e89ee,69b95fffc97054dae3fb680c,0.0886,0.0886,0,149,149,5,1,threefour,,,,,,,,,,,,,,,,,,,,,,,,,,,,,,,,,,,,,,,,,,,,,,,,,,,,,,,,,,,,,,,,,,,,,,,,,,,,,,,,,,,,,,,,,,,,,,,,,,,,,,,,,,,,,,,,,,,,,,,,,,,,,,,,,,,,,,,,,
,,672a315f5ffd0405912274c1,2026-03-17_15h09.29.017,kallum_motion_pilot_GIST_update_2,2026.1.1,Win32,59.17159763,672a315f5ffd0405912274c1,69b95efdef24cd8a694e89ee,69b95fffc97054dae3fb680c,0.0889,0.0889,0,150,150,17,1,onethree,,,,,,,,,,,,,,,,,,,,,,,,,,,,,,,,,,,,,,,,,,,,,,,,,,,,,,,,,,,,,,,,,,,,,,,,,,,,,,,,,,,,,,,,,,,,,,,,,,,,,,,,,,,,,,,,,,,,,,,,,,,,,,,,,,,,,,,,,
,,672a315f5ffd0405912274c1,2026-03-17_15h09.29.017,kallum_motion_pilot_GIST_update_2,2026.1.1,Win32,59.17159763,672a315f5ffd0405912274c1,69b95efdef24cd8a694e89ee,69b95fffc97054dae3fb680c,0.0891,0.0891,0,151,151,158,1,eightsix,,,,,,,,,,,,,,,,,,,,,,,,,,,,,,,,,,,,,,,,,,,,,,,,,,,,,,,,,,,,,,,,,,,,,,,,,,,,,,,,,,,,,,,,,,,,,,,,,,,,,,,,,,,,,,,,,,,,,,,,,,,,,,,,,,,,,,,,,
,,672a315f5ffd0405912274c1,2026-03-17_15h09.29.017,kallum_motion_pilot_GIST_update_2,2026.1.1,Win32,59.17159763,672a315f5ffd0405912274c1,69b95efdef24cd8a694e89ee,69b95fffc97054dae3fb680c,0.0893,0.0893,0,152,152,99,1,sixeight,,,,,,,,,,,,,,,,,,,,,,,,,,,,,,,,,,,,,,,,,,,,,,,,,,,,,,,,,,,,,,,,,,,,,,,,,,,,,,,,,,,,,,,,,,,,,,,,,,,,,,,,,,,,,,,,,,,,,,,,,,,,,,,,,,,,,,,,,
,,672a315f5ffd0405912274c1,2026-03-17_15h09.29.017,kallum_motion_pilot_GIST_update_2,2026.1.1,Win32,59.17159763,672a315f5ffd0405912274c1,69b95efdef24cd8a694e89ee,69b95fffc97054dae3fb680c,0.0895,0.0895,0,153,153,110,1,eightsix,,,,,,,,,,,,,,,,,,,,,,,,,,,,,,,,,,,,,,,,,,,,,,,,,,,,,,,,,,,,,,,,,,,,,,,,,,,,,,,,,,,,,,,,,,,,,,,,,,,,,,,,,,,,,,,,,,,,,,,,,,,,,,,,,,,,,,,,,
,,672a315f5ffd0405912274c1,2026-03-17_15h09.29.017,kallum_motion_pilot_GIST_update_2,2026.1.1,Win32,59.17159763,672a315f5ffd0405912274c1,69b95efdef24cd8a694e89ee,69b95fffc97054dae3fb680c,0.0897,0.0897,0,154,154,120,1,fivesix,,,,,,,,,,,,,,,,,,,,,,,,,,,,,,,,,,,,,,,,,,,,,,,,,,,,,,,,,,,,,,,,,,,,,,,,,,,,,,,,,,,,,,,,,,,,,,,,,,,,,,,,,,,,,,,,,,,,,,,,,,,,,,,,,,,,,,,,,
,,672a315f5ffd0405912274c1,2026-03-17_15h09.29.017,kallum_motion_pilot_GIST_update_2,2026.1.1,Win32,59.17159763,672a315f5ffd0405912274c1,69b95efdef24cd8a694e89ee,69b95fffc97054dae3fb680c,0.0899,0.0899,0,155,155,94,1,eightsix,,,,,,,,,,,,,,,,,,,,,,,,,,,,,,,,,,,,,,,,,,,,,,,,,,,,,,,,,,,,,,,,,,,,,,,,,,,,,,,,,,,,,,,,,,,,,,,,,,,,,,,,,,,,,,,,,,,,,,,,,,,,,,,,,,,,,,,,,
,,672a315f5ffd0405912274c1,2026-03-17_15h09.29.017,kallum_motion_pilot_GIST_update_2,2026.1.1,Win32,59.17159763,672a315f5ffd0405912274c1,69b95efdef24cd8a694e89ee,69b95fffc97054dae3fb680c,0.0901,0.0901,0,156,156,46,1,fourtwo,,,,,,,,,,,,,,,,,,,,,,,,,,,,,,,,,,,,,,,,,,,,,,,,,,,,,,,,,,,,,,,,,,,,,,,,,,,,,,,,,,,,,,,,,,,,,,,,,,,,,,,,,,,,,,,,,,,,,,,,,,,,,,,,,,,,,,,,,
,,672a315f5ffd0405912274c1,2026-03-17_15h09.29.017,kallum_motion_pilot_GIST_update_2,2026.1.1,Win32,59.17159763,672a315f5ffd0405912274c1,69b95efdef24cd8a694e89ee,69b95fffc97054dae3fb680c,0.0904,0.0904,0,157,157,101,1,seveneight,,,,,,,,,,,,,,,,,,,,,,,,,,,,,,,,,,,,,,,,,,,,,,,,,,,,,,,,,,,,,,,,,,,,,,,,,,,,,,,,,,,,,,,,,,,,,,,,,,,,,,,,,,,,,,,,,,,,,,,,,,,,,,,,,,,,,,,,,
,,672a315f5ffd0405912274c1,2026-03-17_15h09.29.017,kallum_motion_pilot_GIST_update_2,2026.1.1,Win32,59.17159763,672a315f5ffd0405912274c1,69b95efdef24cd8a694e89ee,69b95fffc97054dae3fb680c,0.0906,0.0906,0,158,158,126,1,eightsix,,,,,,,,,,,,,,,,,,,,,,,,,,,,,,,,,,,,,,,,,,,,,,,,,,,,,,,,,,,,,,,,,,,,,,,,,,,,,,,,,,,,,,,,,,,,,,,,,,,,,,,,,,,,,,,,,,,,,,,,,,,,,,,,,,,,,,,,,
,,672a315f5ffd0405912274c1,2026-03-17_15h09.29.017,kallum_motion_pilot_GIST_update_2,2026.1.1,Win32,59.17159763,672a315f5ffd0405912274c1,69b95efdef24cd8a694e89ee,69b95fffc97054dae3fb680c,0.0908,0.0908,0,159,159,62,1,fourtwo,,,,,,,,,,,,,,,,,,,,,,,,,,,,,,,,,,,,,,,,,,,,,,,,,,,,,,,,,,,,,,,,,,,,,,,,,,,,,,,,,,,,,,,,,,,,,,,,,,,,,,,,,,,,,,,,,,,,,,,,,,,,,,,,,,,,,,,,,
,,672a315f5ffd0405912274c1,2026-03-17_15h09.29.017,kallum_motion_pilot_GIST_update_2,2026.1.1,Win32,59.17159763,672a315f5ffd0405912274c1,69b95efdef24cd8a694e89ee,69b95fffc97054dae3fb680c,0.0911,0.0911,0,160,160,27,1,twofour,,,,,,,,,,,,,,,,,,,,,,,,,,,,,,,,,,,,,,,,,,,,,,,,,,,,,,,,,,,,,,,,,,,,,,,,,,,,,,,,,,,,,,,,,,,,,,,,,,,,,,,,,,,,,,,,,,,,,,,,,,,,,,,,,,,,,,,,,
,,672a315f5ffd0405912274c1,2026-03-17_15h09.29.017,kallum_motion_pilot_GIST_update_2,2026.1.1,Win32,59.17159763,672a315f5ffd0405912274c1,69b95efdef24cd8a694e89ee,69b95fffc97054dae3fb680c,0.0912,0.0912,0,161,161,139,1,sixeight,,,,,,,,,,,,,,,,,,,,,,,,,,,,,,,,,,,,,,,,,,,,,,,,,,,,,,,,,,,,,,,,,,,,,,,,,,,,,,,,,,,,,,,,,,,,,,,,,,,,,,,,,,,,,,,,,,,,,,,,,,,,,,,,,,,,,,,,,
,,672a315f5ffd0405912274c1,2026-03-17_15h09.29.017,kallum_motion_pilot_GIST_update_2,2026.1.1,Win32,59.17159763,672a315f5ffd0405912274c1,69b95efdef24cd8a694e89ee,69b95fffc97054dae3fb680c,0.0914,0.0915,1,0,162,60,1,threeone,,,,,,,,,,,,,,,,,,,,,,,,,,,,,,,,,,,,,,,,,,,,,,,,,,,,,,,,,,,,,,,,,,,,,,,,,,,,,,,,,,,,,,,,,,,,,,,,,,,,,,,,,,,,,,,,,,,,,,,,,,,,,,,,,,,,,,,,,
,,672a315f5ffd0405912274c1,2026-03-17_15h09.29.017,kallum_motion_pilot_GIST_update_2,2026.1.1,Win32,59.17159763,672a315f5ffd0405912274c1,69b95efdef24cd8a694e89ee,69b95fffc97054dae3fb680c,0.0916,0.0916,1,1,163,135,1,eightseven,,,,,,,,,,,,,,,,,,,,,,,,,,,,,,,,,,,,,,,,,,,,,,,,,,,,,,,,,,,,,,,,,,,,,,,,,,,,,,,,,,,,,,,,,,,,,,,,,,,,,,,,,,,,,,,,,,,,,,,,,,,,,,,,,,,,,,,,,
,,672a315f5ffd0405912274c1,2026-03-17_15h09.29.017,kallum_motion_pilot_GIST_update_2,2026.1.1,Win32,59.17159763,672a315f5ffd0405912274c1,69b95efdef24cd8a694e89ee,69b95fffc97054dae3fb680c,0.0918,0.0918,1,2,164,54,1,fourtwo,,,,,,,,,,,,,,,,,,,,,,,,,,,,,,,,,,,,,,,,,,,,,,,,,,,,,,,,,,,,,,,,,,,,,,,,,,,,,,,,,,,,,,,,,,,,,,,,,,,,,,,,,,,,,,,,,,,,,,,,,,,,,,,,,,,,,,,,,
,,672a315f5ffd0405912274c1,2026-03-17_15h09.29.017,kallum_motion_pilot_GIST_update_2,2026.1.1,Win32,59.17159763,672a315f5ffd0405912274c1,69b95efdef24cd8a694e89ee,69b95fffc97054dae3fb680c,0.092,0.092,1,3,165,58,1,twoone,,,,,,,,,,,,,,,,,,,,,,,,,,,,,,,,,,,,,,,,,,,,,,,,,,,,,,,,,,,,,,,,,,,,,,,,,,,,,,,,,,,,,,,,,,,,,,,,,,,,,,,,,,,,,,,,,,,,,,,,,,,,,,,,,,,,,,,,,
,,672a315f5ffd0405912274c1,2026-03-17_15h09.29.017,kallum_motion_pilot_GIST_update_2,2026.1.1,Win32,59.17159763,672a315f5ffd0405912274c1,69b95efdef24cd8a694e89ee,69b95fffc97054dae3fb680c,0.0922,0.0923,1,4,166,71,1,fourthree,,,,,,,,,,,,,,,,,,,,,,,,,,,,,,,,,,,,,,,,,,,,,,,,,,,,,,,,,,,,,,,,,,,,,,,,,,,,,,,,,,,,,,,,,,,,,,,,,,,,,,,,,,,,,,,,,,,,,,,,,,,,,,,,,,,,,,,,,
,,672a315f5ffd0405912274c1,2026-03-17_15h09.29.017,kallum_motion_pilot_GIST_update_2,2026.1.1,Win32,59.17159763,672a315f5ffd0405912274c1,69b95efdef24cd8a694e89ee,69b95fffc97054dae3fb680c,0.0925,0.0925,1,5,167,121,1,fiveseven,,,,,,,,,,,,,,,,,,,,,,,,,,,,,,,,,,,,,,,,,,,,,,,,,,,,,,,,,,,,,,,,,,,,,,,,,,,,,,,,,,,,,,,,,,,,,,,,,,,,,,,,,,,,,,,,,,,,,,,,,,,,,,,,,,,,,,,,,
,,672a315f5ffd0405912274c1,2026-03-17_15h09.29.017,kallum_motion_pilot_GIST_update_2,2026.1.1,Win32,59.17159763,672a315f5ffd0405912274c1,69b95efdef24cd8a694e89ee,69b95fffc97054dae3fb680c,0.0927,0.0927,1,6,168,138,1,sixfive,,,,,,,,,,,,,,,,,,,,,,,,,,,,,,,,,,,,,,,,,,,,,,,,,,,,,,,,,,,,,,,,,,,,,,,,,,,,,,,,,,,,,,,,,,,,,,,,,,,,,,,,,,,,,,,,,,,,,,,,,,,,,,,,,,,,,,,,,
,,672a315f5ffd0405912274c1,2026-03-17_15h09.29.017,kallum_motion_pilot_GIST_update_2,2026.1.1,Win32,59.17159763,672a315f5ffd0405912274c1,69b95efdef24cd8a694e89ee,69b95fffc97054dae3fb680c,0.0929,0.0929,1,7,169,42,1,twoone,,,,,,,,,,,,,,,,,,,,,,,,,,,,,,,,,,,,,,,,,,,,,,,,,,,,,,,,,,,,,,,,,,,,,,,,,,,,,,,,,,,,,,,,,,,,,,,,,,,,,,,,,,,,,,,,,,,,,,,,,,,,,,,,,,,,,,,,,
,,672a315f5ffd0405912274c1,2026-03-17_15h09.29.017,kallum_motion_pilot_GIST_update_2,2026.1.1,Win32,59.17159763,672a315f5ffd0405912274c1,69b95efdef24cd8a694e89ee,69b95fffc97054dae3fb680c,0.0932,0.0932,1,8,170,152,1,fivesix,,,,,,,,,,,,,,,,,,,,,,,,,,,,,,,,,,,,,,,,,,,,,,,,,,,,,,,,,,,,,,,,,,,,,,,,,,,,,,,,,,,,,,,,,,,,,,,,,,,,,,,,,,,,,,,,,,,,,,,,,,,,,,,,,,,,,,,,,
,,672a315f5ffd0405912274c1,2026-03-17_15h09.29.017,kallum_motion_pilot_GIST_update_2,2026.1.1,Win32,59.17159763,672a315f5ffd0405912274c1,69b95efdef24cd8a694e89ee,69b95fffc97054dae3fb680c,0.0933,0.0933,1,9,171,123,1,sixeight,,,,,,,,,,,,,,,,,,,,,,,,,,,,,,,,,,,,,,,,,,,,,,,,,,,,,,,,,,,,,,,,,,,,,,,,,,,,,,,,,,,,,,,,,,,,,,,,,,,,,,,,,,,,,,,,,,,,,,,,,,,,,,,,,,,,,,,,,
,,672a315f5ffd0405912274c1,2026-03-17_15h09.29.017,kallum_motion_pilot_GIST_update_2,2026.1.1,Win32,59.17159763,672a315f5ffd0405912274c1,69b95efdef24cd8a694e89ee,69b95fffc97054dae3fb680c,0.0935,0.0935,1,10,172,10,1,twoone,,,,,,,,,,,,,,,,,,,,,,,,,,,,,,,,,,,,,,,,,,,,,,,,,,,,,,,,,,,,,,,,,,,,,,,,,,,,,,,,,,,,,,,,,,,,,,,,,,,,,,,,,,,,,,,,,,,,,,,,,,,,,,,,,,,,,,,,,
,,672a315f5ffd0405912274c1,2026-03-17_15h09.29.017,kallum_motion_pilot_GIST_update_2,2026.1.1,Win32,59.17159763,672a315f5ffd0405912274c1,69b95efdef24cd8a694e89ee,69b95fffc97054dae3fb680c,0.0936,0.0936,1,11,173,117,1,seveneight,,,,,,,,,,,,,,,,,,,,,,,,,,,,,,,,,,,,,,,,,,,,,,,,,,,,,,,,,,,,,,,,,,,,,,,,,,,,,,,,,,,,,,,,,,,,,,,,,,,,,,,,,,,,,,,,,,,,,,,,,,,,,,,,,,,,,,,,,
,,672a315f5ffd0405912274c1,2026-03-17_15h09.29.017,kallum_motion_pilot_GIST_update_2,2026.1.1,Win32,59.17159763,672a315f5ffd0405912274c1,69b95efdef24cd8a694e89ee,69b95fffc97054dae3fb680c,0.0938,0.0938,1,12,174,104,1,fivesix,,,,,,,,,,,,,,,,,,,,,,,,,,,,,,,,,,,,,,,,,,,,,,,,,,,,,,,,,,,,,,,,,,,,,,,,,,,,,,,,,,,,,,,,,,,,,,,,,,,,,,,,,,,,,,,,,,,,,,,,,,,,,,,,,,,,,,,,,
,,672a315f5ffd0405912274c1,2026-03-17_15h09.29.017,kallum_motion_pilot_GIST_update_2,2026.1.1,Win32,59.17159763,672a315f5ffd0405912274c1,69b95efdef24cd8a694e89ee,69b95fffc97054dae3fb680c,0.094,0.094,1,13,175,77,1,threefour,,,,,,,,,,,,,,,,,,,,,,,,,,,,,,,,,,,,,,,,,,,,,,,,,,,,,,,,,,,,,,,,,,,,,,,,,,,,,,,,,,,,,,,,,,,,,,,,,,,,,,,,,,,,,,,,,,,,,,,,,,,,,,,,,,,,,,,,,
,,672a315f5ffd0405912274c1,2026-03-17_15h09.29.017,kallum_motion_pilot_GIST_update_2,2026.1.1,Win32,59.17159763,672a315f5ffd0405912274c1,69b95efdef24cd8a694e89ee,69b95fffc97054dae3fb680c,0.0943,0.0943,1,14,176,7,1,fourthree,,,,,,,,,,,,,,,,,,,,,,,,,,,,,,,,,,,,,,,,,,,,,,,,,,,,,,,,,,,,,,,,,,,,,,,,,,,,,,,,,,,,,,,,,,,,,,,,,,,,,,,,,,,,,,,,,,,,,,,,,,,,,,,,,,,,,,,,,
,,672a315f5ffd0405912274c1,2026-03-17_15h09.29.017,kallum_motion_pilot_GIST_update_2,2026.1.1,Win32,59.17159763,672a315f5ffd0405912274c1,69b95efdef24cd8a694e89ee,69b95fffc97054dae3fb680c,0.0945,0.0945,1,15,177,84,1,sevenfive,,,,,,,,,,,,,,,,,,,,,,,,,,,,,,,,,,,,,,,,,,,,,,,,,,,,,,,,,,,,,,,,,,,,,,,,,,,,,,,,,,,,,,,,,,,,,,,,,,,,,,,,,,,,,,,,,,,,,,,,,,,,,,,,,,,,,,,,,
,,672a315f5ffd0405912274c1,2026-03-17_15h09.29.017,kallum_motion_pilot_GIST_update_2,2026.1.1,Win32,59.17159763,672a315f5ffd0405912274c1,69b95efdef24cd8a694e89ee,69b95fffc97054dae3fb680c,0.0948,0.0948,1,16,178,88,1,fivesix,,,,,,,,,,,,,,,,,,,,,,,,,,,,,,,,,,,,,,,,,,,,,,,,,,,,,,,,,,,,,,,,,,,,,,,,,,,,,,,,,,,,,,,,,,,,,,,,,,,,,,,,,,,,,,,,,,,,,,,,,,,,,,,,,,,,,,,,,
,,672a315f5ffd0405912274c1,2026-03-17_15h09.29.017,kallum_motion_pilot_GIST_update_2,2026.1.1,Win32,59.17159763,672a315f5ffd0405912274c1,69b95efdef24cd8a694e89ee,69b95fffc97054dae3fb680c,0.0949,0.0949,1,17,179,99,1,sixeight,,,,,,,,,,,,,,,,,,,,,,,,,,,,,,,,,,,,,,,,,,,,,,,,,,,,,,,,,,,,,,,,,,,,,,,,,,,,,,,,,,,,,,,,,,,,,,,,,,,,,,,,,,,,,,,,,,,,,,,,,,,,,,,,,,,,,,,,,
,,672a315f5ffd0405912274c1,2026-03-17_15h09.29.017,kallum_motion_pilot_GIST_update_2,2026.1.1,Win32,59.17159763,672a315f5ffd0405912274c1,69b95efdef24cd8a694e89ee,69b95fffc97054dae3fb680c,0.0951,0.0952,1,18,180,85,1,seveneight,,,,,,,,,,,,,,,,,,,,,,,,,,,,,,,,,,,,,,,,,,,,,,,,,,,,,,,,,,,,,,,,,,,,,,,,,,,,,,,,,,,,,,,,,,,,,,,,,,,,,,,,,,,,,,,,,,,,,,,,,,,,,,,,,,,,,,,,,
,,672a315f5ffd0405912274c1,2026-03-17_15h09.29.017,kallum_motion_pilot_GIST_update_2,2026.1.1,Win32,59.17159763,672a315f5ffd0405912274c1,69b95efdef24cd8a694e89ee,69b95fffc97054dae3fb680c,0.0955,0.0955,1,19,181,126,1,eightsix,,,,,,,,,,,,,,,,,,,,,,,,,,,,,,,,,,,,,,,,,,,,,,,,,,,,,,,,,,,,,,,,,,,,,,,,,,,,,,,,,,,,,,,,,,,,,,,,,,,,,,,,,,,,,,,,,,,,,,,,,,,,,,,,,,,,,,,,,
,,672a315f5ffd0405912274c1,2026-03-17_15h09.29.017,kallum_motion_pilot_GIST_update_2,2026.1.1,Win32,59.17159763,672a315f5ffd0405912274c1,69b95efdef24cd8a694e89ee,69b95fffc97054dae3fb680c,0.0957,0.0957,1,20,182,151,1,eightseven,,,,,,,,,,,,,,,,,,,,,,,,,,,,,,,,,,,,,,,,,,,,,,,,,,,,,,,,,,,,,,,,,,,,,,,,,,,,,,,,,,,,,,,,,,,,,,,,,,,,,,,,,,,,,,,,,,,,,,,,,,,,,,,,,,,,,,,,,
,,672a315f5ffd0405912274c1,2026-03-17_15h09.29.017,kallum_motion_pilot_GIST_update_2,2026.1.1,Win32,59.17159763,672a315f5ffd0405912274c1,69b95efdef24cd8a694e89ee,69b95fffc97054dae3fb680c,0.0959,0.0959,1,21,183,37,1,threefour,,,,,,,,,,,,,,,,,,,,,,,,,,,,,,,,,,,,,,,,,,,,,,,,,,,,,,,,,,,,,,,,,,,,,,,,,,,,,,,,,,,,,,,,,,,,,,,,,,,,,,,,,,,,,,,,,,,,,,,,,,,,,,,,,,,,,,,,,
,,672a315f5ffd0405912274c1,2026-03-17_15h09.29.017,kallum_motion_pilot_GIST_update_2,2026.1.1,Win32,59.17159763,672a315f5ffd0405912274c1,69b95efdef24cd8a694e89ee,69b95fffc97054dae3fb680c,0.0961,0.0961,1,22,184,74,1,twoone,,,,,,,,,,,,,,,,,,,,,,,,,,,,,,,,,,,,,,,,,,,,,,,,,,,,,,,,,,,,,,,,,,,,,,,,,,,,,,,,,,,,,,,,,,,,,,,,,,,,,,,,,,,,,,,,,,,,,,,,,,,,,,,,,,,,,,,,,
,,672a315f5ffd0405912274c1,2026-03-17_15h09.29.017,kallum_motion_pilot_GIST_update_2,2026.1.1,Win32,59.17159763,672a315f5ffd0405912274c1,69b95efdef24cd8a694e89ee,69b95fffc97054dae3fb680c,0.0963,0.0963,1,23,185,65,1,onethree,,,,,,,,,,,,,,,,,,,,,,,,,,,,,,,,,,,,,,,,,,,,,,,,,,,,,,,,,,,,,,,,,,,,,,,,,,,,,,,,,,,,,,,,,,,,,,,,,,,,,,,,,,,,,,,,,,,,,,,,,,,,,,,,,,,,,,,,,
,,672a315f5ffd0405912274c1,2026-03-17_15h09.29.017,kallum_motion_pilot_GIST_update_2,2026.1.1,Win32,59.17159763,672a315f5ffd0405912274c1,69b95efdef24cd8a694e89ee,69b95fffc97054dae3fb680c,0.0965,0.0965,1,24,186,133,1,seveneight,,,,,,,,,,,,,,,,,,,,,,,,,,,,,,,,,,,,,,,,,,,,,,,,,,,,,,,,,,,,,,,,,,,,,,,,,,,,,,,,,,,,,,,,,,,,,,,,,,,,,,,,,,,,,,,,,,,,,,,,,,,,,,,,,,,,,,,,,
,,672a315f5ffd0405912274c1,2026-03-17_15h09.29.017,kallum_motion_pilot_GIST_update_2,2026.1.1,Win32,59.17159763,672a315f5ffd0405912274c1,69b95efdef24cd8a694e89ee,69b95fffc97054dae3fb680c,0.0967,0.0967,1,25,187,15,1,fourthree,,,,,,,,,,,,,,,,,,,,,,,,,,,,,,,,,,,,,,,,,,,,,,,,,,,,,,,,,,,,,,,,,,,,,,,,,,,,,,,,,,,,,,,,,,,,,,,,,,,,,,,,,,,,,,,,,,,,,,,,,,,,,,,,,,,,,,,,,
,,672a315f5ffd0405912274c1,2026-03-17_15h09.29.017,kallum_motion_pilot_GIST_update_2,2026.1.1,Win32,59.17159763,672a315f5ffd0405912274c1,69b95efdef24cd8a694e89ee,69b95fffc97054dae3fb680c,0.097,0.097,1,26,188,34,1,twoone,,,,,,,,,,,,,,,,,,,,,,,,,,,,,,,,,,,,,,,,,,,,,,,,,,,,,,,,,,,,,,,,,,,,,,,,,,,,,,,,,,,,,,,,,,,,,,,,,,,,,,,,,,,,,,,,,,,,,,,,,,,,,,,,,,,,,,,,,
,,672a315f5ffd0405912274c1,2026-03-17_15h09.29.017,kallum_motion_pilot_GIST_update_2,2026.1.1,Win32,59.17159763,672a315f5ffd0405912274c1,69b95efdef24cd8a694e89ee,69b95fffc97054dae3fb680c,0.0971,0.0972,1,27,189,96,1,fivesix,,,,,,,,,,,,,,,,,,,,,,,,,,,,,,,,,,,,,,,,,,,,,,,,,,,,,,,,,,,,,,,,,,,,,,,,,,,,,,,,,,,,,,,,,,,,,,,,,,,,,,,,,,,,,,,,,,,,,,,,,,,,,,,,,,,,,,,,,
,,672a315f5ffd0405912274c1,2026-03-17_15h09.29.017,kallum_motion_pilot_GIST_update_2,2026.1.1,Win32,59.17159763,672a315f5ffd0405912274c1,69b95efdef24cd8a694e89ee,69b95fffc97054dae3fb680c,0.0975,0.0975,1,28,190,128,1,fivesix,,,,,,,,,,,,,,,,,,,,,,,,,,,,,,,,,,,,,,,,,,,,,,,,,,,,,,,,,,,,,,,,,,,,,,,,,,,,,,,,,,,,,,,,,,,,,,,,,,,,,,,,,,,,,,,,,,,,,,,,,,,,,,,,,,,,,,,,,
,,672a315f5ffd0405912274c1,2026-03-17_15h09.29.017,kallum_motion_pilot_GIST_update_2,2026.1.1,Win32,59.17159763,672a315f5ffd0405912274c1,69b95efdef24cd8a694e89ee,69b95fffc97054dae3fb680c,0.0978,0.0978,1,29,191,141,1,seveneight,,,,,,,,,,,,,,,,,,,,,,,,,,,,,,,,,,,,,,,,,,,,,,,,,,,,,,,,,,,,,,,,,,,,,,,,,,,,,,,,,,,,,,,,,,,,,,,,,,,,,,,,,,,,,,,,,,,,,,,,,,,,,,,,,,,,,,,,,
,,672a315f5ffd0405912274c1,2026-03-17_15h09.29.017,kallum_motion_pilot_GIST_update_2,2026.1.1,Win32,59.17159763,672a315f5ffd0405912274c1,69b95efdef24cd8a694e89ee,69b95fffc97054dae3fb680c,0.098,0.0981,1,30,192,62,1,fourtwo,,,,,,,,,,,,,,,,,,,,,,,,,,,,,,,,,,,,,,,,,,,,,,,,,,,,,,,,,,,,,,,,,,,,,,,,,,,,,,,,,,,,,,,,,,,,,,,,,,,,,,,,,,,,,,,,,,,,,,,,,,,,,,,,,,,,,,,,,
,,672a315f5ffd0405912274c1,2026-03-17_15h09.29.017,kallum_motion_pilot_GIST_update_2,2026.1.1,Win32,59.17159763,672a315f5ffd0405912274c1,69b95efdef24cd8a694e89ee,69b95fffc97054dae3fb680c,0.0982,0.0983,1,31,193,91,1,sixeight,,,,,,,,,,,,,,,,,,,,,,,,,,,,,,,,,,,,,,,,,,,,,,,,,,,,,,,,,,,,,,,,,,,,,,,,,,,,,,,,,,,,,,,,,,,,,,,,,,,,,,,,,,,,,,,,,,,,,,,,,,,,,,,,,,,,,,,,,
,,672a315f5ffd0405912274c1,2026-03-17_15h09.29.017,kallum_motion_pilot_GIST_update_2,2026.1.1,Win32,59.17159763,672a315f5ffd0405912274c1,69b95efdef24cd8a694e89ee,69b95fffc97054dae3fb680c,0.0985,0.0985,1,32,194,97,1,fiveseven,,,,,,,,,,,,,,,,,,,,,,,,,,,,,,,,,,,,,,,,,,,,,,,,,,,,,,,,,,,,,,,,,,,,,,,,,,,,,,,,,,,,,,,,,,,,,,,,,,,,,,,,,,,,,,,,,,,,,,,,,,,,,,,,,,,,,,,,,
,,672a315f5ffd0405912274c1,2026-03-17_15h09.29.017,kallum_motion_pilot_GIST_update_2,2026.1.1,Win32,59.17159763,672a315f5ffd0405912274c1,69b95efdef24cd8a694e89ee,69b95fffc97054dae3fb680c,0.0987,0.0987,1,33,195,55,1,fourthree,,,,,,,,,,,,,,,,,,,,,,,,,,,,,,,,,,,,,,,,,,,,,,,,,,,,,,,,,,,,,,,,,,,,,,,,,,,,,,,,,,,,,,,,,,,,,,,,,,,,,,,,,,,,,,,,,,,,,,,,,,,,,,,,,,,,,,,,,
,,672a315f5ffd0405912274c1,2026-03-17_15h09.29.017,kallum_motion_pilot_GIST_update_2,2026.1.1,Win32,59.17159763,672a315f5ffd0405912274c1,69b95efdef24cd8a694e89ee,69b95fffc97054dae3fb680c,0.099,0.099,1,34,196,33,1,onethree,,,,,,,,,,,,,,,,,,,,,,,,,,,,,,,,,,,,,,,,,,,,,,,,,,,,,,,,,,,,,,,,,,,,,,,,,,,,,,,,,,,,,,,,,,,,,,,,,,,,,,,,,,,,,,,,,,,,,,,,,,,,,,,,,,,,,,,,,
,,672a315f5ffd0405912274c1,2026-03-17_15h09.29.017,kallum_motion_pilot_GIST_update_2,2026.1.1,Win32,59.17159763,672a315f5ffd0405912274c1,69b95efdef24cd8a694e89ee,69b95fffc97054dae3fb680c,0.0992,0.0992,1,35,197,122,1,sixfive,,,,,,,,,,,,,,,,,,,,,,,,,,,,,,,,,,,,,,,,,,,,,,,,,,,,,,,,,,,,,,,,,,,,,,,,,,,,,,,,,,,,,,,,,,,,,,,,,,,,,,,,,,,,,,,,,,,,,,,,,,,,,,,,,,,,,,,,,
,,672a315f5ffd0405912274c1,2026-03-17_15h09.29.017,kallum_motion_pilot_GIST_update_2,2026.1.1,Win32,59.17159763,672a315f5ffd0405912274c1,69b95efdef24cd8a694e89ee,69b95fffc97054dae3fb680c,0.0994,0.0994,1,36,198,90,1,sixfive,,,,,,,,,,,,,,,,,,,,,,,,,,,,,,,,,,,,,,,,,,,,,,,,,,,,,,,,,,,,,,,,,,,,,,,,,,,,,,,,,,,,,,,,,,,,,,,,,,,,,,,,,,,,,,,,,,,,,,,,,,,,,,,,,,,,,,,,,
,,672a315f5ffd0405912274c1,2026-03-17_15h09.29.017,kallum_motion_pilot_GIST_update_2,2026.1.1,Win32,59.17159763,672a315f5ffd0405912274c1,69b95efdef24cd8a694e89ee,69b95fffc97054dae3fb680c,0.0997,0.0997,1,37,199,8,1,onetwo,,,,,,,,,,,,,,,,,,,,,,,,,,,,,,,,,,,,,,,,,,,,,,,,,,,,,,,,,,,,,,,,,,,,,,,,,,,,,,,,,,,,,,,,,,,,,,,,,,,,,,,,,,,,,,,,,,,,,,,,,,,,,,,,,,,,,,,,,
,,672a315f5ffd0405912274c1,2026-03-17_15h09.29.017,kallum_motion_pilot_GIST_update_2,2026.1.1,Win32,59.17159763,672a315f5ffd0405912274c1,69b95efdef24cd8a694e89ee,69b95fffc97054dae3fb680c,0.0999,0.0999,1,38,200,11,1,twofour,,,,,,,,,,,,,,,,,,,,,,,,,,,,,,,,,,,,,,,,,,,,,,,,,,,,,,,,,,,,,,,,,,,,,,,,,,,,,,,,,,,,,,,,,,,,,,,,,,,,,,,,,,,,,,,,,,,,,,,,,,,,,,,,,,,,,,,,,
,,672a315f5ffd0405912274c1,2026-03-17_15h09.29.017,kallum_motion_pilot_GIST_update_2,2026.1.1,Win32,59.17159763,672a315f5ffd0405912274c1,69b95efdef24cd8a694e89ee,69b95fffc97054dae3fb680c,0.1001,0.1002,1,39,201,94,1,eightsix,,,,,,,,,,,,,,,,,,,,,,,,,,,,,,,,,,,,,,,,,,,,,,,,,,,,,,,,,,,,,,,,,,,,,,,,,,,,,,,,,,,,,,,,,,,,,,,,,,,,,,,,,,,,,,,,,,,,,,,,,,,,,,,,,,,,,,,,,
,,672a315f5ffd0405912274c1,2026-03-17_15h09.29.017,kallum_motion_pilot_GIST_update_2,2026.1.1,Win32,59.17159763,672a315f5ffd0405912274c1,69b95efdef24cd8a694e89ee,69b95fffc97054dae3fb680c,0.1004,0.1004,1,40,202,129,1,fiveseven,,,,,,,,,,,,,,,,,,,,,,,,,,,,,,,,,,,,,,,,,,,,,,,,,,,,,,,,,,,,,,,,,,,,,,,,,,,,,,,,,,,,,,,,,,,,,,,,,,,,,,,,,,,,,,,,,,,,,,,,,,,,,,,,,,,,,,,,,
,,672a315f5ffd0405912274c1,2026-03-17_15h09.29.017,kallum_motion_pilot_GIST_update_2,2026.1.1,Win32,59.17159763,672a315f5ffd0405912274c1,69b95efdef24cd8a694e89ee,69b95fffc97054dae3fb680c,0.1007,0.1007,1,41,203,44,1,threeone,,,,,,,,,,,,,,,,,,,,,,,,,,,,,,,,,,,,,,,,,,,,,,,,,,,,,,,,,,,,,,,,,,,,,,,,,,,,,,,,,,,,,,,,,,,,,,,,,,,,,,,,,,,,,,,,,,,,,,,,,,,,,,,,,,,,,,,,,
,,672a315f5ffd0405912274c1,2026-03-17_15h09.29.017,kallum_motion_pilot_GIST_update_2,2026.1.1,Win32,59.17159763,672a315f5ffd0405912274c1,69b95efdef24cd8a694e89ee,69b95fffc97054dae3fb680c,0.1009,0.1009,1,42,204,17,1,onethree,,,,,,,,,,,,,,,,,,,,,,,,,,,,,,,,,,,,,,,,,,,,,,,,,,,,,,,,,,,,,,,,,,,,,,,,,,,,,,,,,,,,,,,,,,,,,,,,,,,,,,,,,,,,,,,,,,,,,,,,,,,,,,,,,,,,,,,,,
,,672a315f5ffd0405912274c1,2026-03-17_15h09.29.017,kallum_motion_pilot_GIST_update_2,2026.1.1,Win32,59.17159763,672a315f5ffd0405912274c1,69b95efdef24cd8a694e89ee,69b95fffc97054dae3fb680c,0.1012,0.1012,1,43,205,72,1,onetwo,,,,,,,,,,,,,,,,,,,,,,,,,,,,,,,,,,,,,,,,,,,,,,,,,,,,,,,,,,,,,,,,,,,,,,,,,,,,,,,,,,,,,,,,,,,,,,,,,,,,,,,,,,,,,,,,,,,,,,,,,,,,,,,,,,,,,,,,,
,,672a315f5ffd0405912274c1,2026-03-17_15h09.29.017,kallum_motion_pilot_GIST_update_2,2026.1.1,Win32,59.17159763,672a315f5ffd0405912274c1,69b95efdef24cd8a694e89ee,69b95fffc97054dae3fb680c,0.1014,0.1014,1,44,206,23,1,fourthree,,,,,,,,,,,,,,,,,,,,,,,,,,,,,,,,,,,,,,,,,,,,,,,,,,,,,,,,,,,,,,,,,,,,,,,,,,,,,,,,,,,,,,,,,,,,,,,,,,,,,,,,,,,,,,,,,,,,,,,,,,,,,,,,,,,,,,,,,
,,672a315f5ffd0405912274c1,2026-03-17_15h09.29.017,kallum_motion_pilot_GIST_update_2,2026.1.1,Win32,59.17159763,672a315f5ffd0405912274c1,69b95efdef24cd8a694e89ee,69b95fffc97054dae3fb680c,0.1017,0.1017,1,45,207,41,1,onethree,,,,,,,,,,,,,,,,,,,,,,,,,,,,,,,,,,,,,,,,,,,,,,,,,,,,,,,,,,,,,,,,,,,,,,,,,,,,,,,,,,,,,,,,,,,,,,,,,,,,,,,,,,,,,,,,,,,,,,,,,,,,,,,,,,,,,,,,,
,,672a315f5ffd0405912274c1,2026-03-17_15h09.29.017,kallum_motion_pilot_GIST_update_2,2026.1.1,Win32,59.17159763,672a315f5ffd0405912274c1,69b95efdef24cd8a694e89ee,69b95fffc97054dae3fb680c,0.1018,0.1018,1,46,208,82,1,sixfive,,,,,,,,,,,,,,,,,,,,,,,,,,,,,,,,,,,,,,,,,,,,,,,,,,,,,,,,,,,,,,,,,,,,,,,,,,,,,,,,,,,,,,,,,,,,,,,,,,,,,,,,,,,,,,,,,,,,,,,,,,,,,,,,,,,,,,,,,
,,672a315f5ffd0405912274c1,2026-03-17_15h09.29.017,kallum_motion_pilot_GIST_update_2,2026.1.1,Win32,59.17159763,672a315f5ffd0405912274c1,69b95efdef24cd8a694e89ee,69b95fffc97054dae3fb680c,0.1021,0.1022,1,47,209,140,1,sevenfive,,,,,,,,,,,,,,,,,,,,,,,,,,,,,,,,,,,,,,,,,,,,,,,,,,,,,,,,,,,,,,,,,,,,,,,,,,,,,,,,,,,,,,,,,,,,,,,,,,,,,,,,,,,,,,,,,,,,,,,,,,,,,,,,,,,,,,,,,
,,672a315f5ffd0405912274c1,2026-03-17_15h09.29.017,kallum_motion_pilot_GIST_update_2,2026.1.1,Win32,59.17159763,672a315f5ffd0405912274c1,69b95efdef24cd8a694e89ee,69b95fffc97054dae3fb680c,0.1024,0.1024,1,48,210,107,1,sixeight,,,,,,,,,,,,,,,,,,,,,,,,,,,,,,,,,,,,,,,,,,,,,,,,,,,,,,,,,,,,,,,,,,,,,,,,,,,,,,,,,,,,,,,,,,,,,,,,,,,,,,,,,,,,,,,,,,,,,,,,,,,,,,,,,,,,,,,,,
,,672a315f5ffd0405912274c1,2026-03-17_15h09.29.017,kallum_motion_pilot_GIST_update_2,2026.1.1,Win32,59.17159763,672a315f5ffd0405912274c1,69b95efdef24cd8a694e89ee,69b95fffc97054dae3fb680c,0.1026,0.1026,1,49,211,160,1,fivesix,,,,,,,,,,,,,,,,,,,,,,,,,,,,,,,,,,,,,,,,,,,,,,,,,,,,,,,,,,,,,,,,,,,,,,,,,,,,,,,,,,,,,,,,,,,,,,,,,,,,,,,,,,,,,,,,,,,,,,,,,,,,,,,,,,,,,,,,,
,,672a315f5ffd0405912274c1,2026-03-17_15h09.29.017,kallum_motion_pilot_GIST_update_2,2026.1.1,Win32,59.17159763,672a315f5ffd0405912274c1,69b95efdef24cd8a694e89ee,69b95fffc97054dae3fb680c,0.1029,0.103,1,50,212,86,1,eightsix,,,,,,,,,,,,,,,,,,,,,,,,,,,,,,,,,,,,,,,,,,,,,,,,,,,,,,,,,,,,,,,,,,,,,,,,,,,,,,,,,,,,,,,,,,,,,,,,,,,,,,,,,,,,,,,,,,,,,,,,,,,,,,,,,,,,,,,,,
,,672a315f5ffd0405912274c1,2026-03-17_15h09.29.017,kallum_motion_pilot_GIST_update_2,2026.1.1,Win32,59.17159763,672a315f5ffd0405912274c1,69b95efdef24cd8a694e89ee,69b95fffc97054dae3fb680c,0.1032,0.1032,1,51,213,3,1,twofour,,,,,,,,,,,,,,,,,,,,,,,,,,,,,,,,,,,,,,,,,,,,,,,,,,,,,,,,,,,,,,,,,,,,,,,,,,,,,,,,,,,,,,,,,,,,,,,,,,,,,,,,,,,,,,,,,,,,,,,,,,,,,,,,,,,,,,,,,
,,672a315f5ffd0405912274c1,2026-03-17_15h09.29.017,kallum_motion_pilot_GIST_update_2,2026.1.1,Win32,59.17159763,672a315f5ffd0405912274c1,69b95efdef24cd8a694e89ee,69b95fffc97054dae3fb680c,0.1034,0.1034,1,52,214,18,1,twoone,,,,,,,,,,,,,,,,,,,,,,,,,,,,,,,,,,,,,,,,,,,,,,,,,,,,,,,,,,,,,,,,,,,,,,,,,,,,,,,,,,,,,,,,,,,,,,,,,,,,,,,,,,,,,,,,,,,,,,,,,,,,,,,,,,,,,,,,,
,,672a315f5ffd0405912274c1,2026-03-17_15h09.29.017,kallum_motion_pilot_GIST_update_2,2026.1.1,Win32,59.17159763,672a315f5ffd0405912274c1,69b95efdef24cd8a694e89ee,69b95fffc97054dae3fb680c,0.1036,0.1036,1,53,215,79,1,eightseven,,,,,,,,,,,,,,,,,,,,,,,,,,,,,,,,,,,,,,,,,,,,,,,,,,,,,,,,,,,,,,,,,,,,,,,,,,,,,,,,,,,,,,,,,,,,,,,,,,,,,,,,,,,,,,,,,,,,,,,,,,,,,,,,,,,,,,,,,
,,672a315f5ffd0405912274c1,2026-03-17_15h09.29.017,kallum_motion_pilot_GIST_update_2,2026.1.1,Win32,59.17159763,672a315f5ffd0405912274c1,69b95efdef24cd8a694e89ee,69b95fffc97054dae3fb680c,0.1038,0.1038,1,54,216,76,1,threeone,,,,,,,,,,,,,,,,,,,,,,,,,,,,,,,,,,,,,,,,,,,,,,,,,,,,,,,,,,,,,,,,,,,,,,,,,,,,,,,,,,,,,,,,,,,,,,,,,,,,,,,,,,,,,,,,,,,,,,,,,,,,,,,,,,,,,,,,,
,,672a315f5ffd0405912274c1,2026-03-17_15h09.29.017,kallum_motion_pilot_GIST_update_2,2026.1.1,Win32,59.17159763,672a315f5ffd0405912274c1,69b95efdef24cd8a694e89ee,69b95fffc97054dae3fb680c,0.1041,0.1041,1,55,217,32,1,onetwo,,,,,,,,,,,,,,,,,,,,,,,,,,,,,,,,,,,,,,,,,,,,,,,,,,,,,,,,,,,,,,,,,,,,,,,,,,,,,,,,,,,,,,,,,,,,,,,,,,,,,,,,,,,,,,,,,,,,,,,,,,,,,,,,,,,,,,,,,
,,672a315f5ffd0405912274c1,2026-03-17_15h09.29.017,kallum_motion_pilot_GIST_update_2,2026.1.1,Win32,59.17159763,672a315f5ffd0405912274c1,69b95efdef24cd8a694e89ee,69b95fffc97054dae3fb680c,0.1043,0.1043,1,56,218,66,1,twoone,,,,,,,,,,,,,,,,,,,,,,,,,,,,,,,,,,,,,,,,,,,,,,,,,,,,,,,,,,,,,,,,,,,,,,,,,,,,,,,,,,,,,,,,,,,,,,,,,,,,,,,,,,,,,,,,,,,,,,,,,,,,,,,,,,,,,,,,,
,,672a315f5ffd0405912274c1,2026-03-17_15h09.29.017,kallum_motion_pilot_GIST_update_2,2026.1.1,Win32,59.17159763,672a315f5ffd0405912274c1,69b95efdef24cd8a694e89ee,69b95fffc97054dae3fb680c,0.1046,0.1046,1,57,219,70,1,fourtwo,,,,,,,,,,,,,,,,,,,,,,,,,,,,,,,,,,,,,,,,,,,,,,,,,,,,,,,,,,,,,,,,,,,,,,,,,,,,,,,,,,,,,,,,,,,,,,,,,,,,,,,,,,,,,,,,,,,,,,,,,,,,,,,,,,,,,,,,,
,,672a315f5ffd0405912274c1,2026-03-17_15h09.29.017,kallum_motion_pilot_GIST_update_2,2026.1.1,Win32,59.17159763,672a315f5ffd0405912274c1,69b95efdef24cd8a694e89ee,69b95fffc97054dae3fb680c,0.1048,0.1048,1,58,220,145,1,fiveseven,,,,,,,,,,,,,,,,,,,,,,,,,,,,,,,,,,,,,,,,,,,,,,,,,,,,,,,,,,,,,,,,,,,,,,,,,,,,,,,,,,,,,,,,,,,,,,,,,,,,,,,,,,,,,,,,,,,,,,,,,,,,,,,,,,,,,,,,,
,,672a315f5ffd0405912274c1,2026-03-17_15h09.29.017,kallum_motion_pilot_GIST_update_2,2026.1.1,Win32,59.17159763,672a315f5ffd0405912274c1,69b95efdef24cd8a694e89ee,69b95fffc97054dae3fb680c,0.105,0.105,1,59,221,39,1,fourthree,,,,,,,,,,,,,,,,,,,,,,,,,,,,,,,,,,,,,,,,,,,,,,,,,,,,,,,,,,,,,,,,,,,,,,,,,,,,,,,,,,,,,,,,,,,,,,,,,,,,,,,,,,,,,,,,,,,,,,,,,,,,,,,,,,,,,,,,,
,,672a315f5ffd0405912274c1,2026-03-17_15h09.29.017,kallum_motion_pilot_GIST_update_2,2026.1.1,Win32,59.17159763,672a315f5ffd0405912274c1,69b95efdef24cd8a694e89ee,69b95fffc97054dae3fb680c,0.1053,0.1053,1,60,222,118,1,eightsix,,,,,,,,,,,,,,,,,,,,,,,,,,,,,,,,,,,,,,,,,,,,,,,,,,,,,,,,,,,,,,,,,,,,,,,,,,,,,,,,,,,,,,,,,,,,,,,,,,,,,,,,,,,,,,,,,,,,,,,,,,,,,,,,,,,,,,,,,
,,672a315f5ffd0405912274c1,2026-03-17_15h09.29.017,kallum_motion_pilot_GIST_update_2,2026.1.1,Win32,59.17159763,672a315f5ffd0405912274c1,69b95efdef24cd8a694e89ee,69b95fffc97054dae3fb680c,0.1056,0.1056,1,61,223,137,1,fiveseven,,,,,,,,,,,,,,,,,,,,,,,,,,,,,,,,,,,,,,,,,,,,,,,,,,,,,,,,,,,,,,,,,,,,,,,,,,,,,,,,,,,,,,,,,,,,,,,,,,,,,,,,,,,,,,,,,,,,,,,,,,,,,,,,,,,,,,,,,
,,672a315f5ffd0405912274c1,2026-03-17_15h09.29.017,kallum_motion_pilot_GIST_update_2,2026.1.1,Win32,59.17159763,672a315f5ffd0405912274c1,69b95efdef24cd8a694e89ee,69b95fffc97054dae3fb680c,0.1057,0.1057,1,62,224,139,1,sixeight,,,,,,,,,,,,,,,,,,,,,,,,,,,,,,,,,,,,,,,,,,,,,,,,,,,,,,,,,,,,,,,,,,,,,,,,,,,,,,,,,,,,,,,,,,,,,,,,,,,,,,,,,,,,,,,,,,,,,,,,,,,,,,,,,,,,,,,,,
,,672a315f5ffd0405912274c1,2026-03-17_15h09.29.017,kallum_motion_pilot_GIST_update_2,2026.1.1,Win32,59.17159763,672a315f5ffd0405912274c1,69b95efdef24cd8a694e89ee,69b95fffc97054dae3fb680c,0.106,0.106,1,63,225,103,1,eightseven,,,,,,,,,,,,,,,,,,,,,,,,,,,,,,,,,,,,,,,,,,,,,,,,,,,,,,,,,,,,,,,,,,,,,,,,,,,,,,,,,,,,,,,,,,,,,,,,,,,,,,,,,,,,,,,,,,,,,,,,,,,,,,,,,,,,,,,,,
,,672a315f5ffd0405912274c1,2026-03-17_15h09.29.017,kallum_motion_pilot_GIST_update_2,2026.1.1,Win32,59.17159763,672a315f5ffd0405912274c1,69b95efdef24cd8a694e89ee,69b95fffc97054dae3fb680c,0.1062,0.1062,1,64,226,108,1,sevenfive,,,,,,,,,,,,,,,,,,,,,,,,,,,,,,,,,,,,,,,,,,,,,,,,,,,,,,,,,,,,,,,,,,,,,,,,,,,,,,,,,,,,,,,,,,,,,,,,,,,,,,,,,,,,,,,,,,,,,,,,,,,,,,,,,,,,,,,,,
,,672a315f5ffd0405912274c1,2026-03-17_15h09.29.017,kallum_motion_pilot_GIST_update_2,2026.1.1,Win32,59.17159763,672a315f5ffd0405912274c1,69b95efdef24cd8a694e89ee,69b95fffc97054dae3fb680c,0.1064,0.1064,1,65,227,144,1,fivesix,,,,,,,,,,,,,,,,,,,,,,,,,,,,,,,,,,,,,,,,,,,,,,,,,,,,,,,,,,,,,,,,,,,,,,,,,,,,,,,,,,,,,,,,,,,,,,,,,,,,,,,,,,,,,,,,,,,,,,,,,,,,,,,,,,,,,,,,,
,,672a315f5ffd0405912274c1,2026-03-17_15h09.29.017,kallum_motion_pilot_GIST_update_2,2026.1.1,Win32,59.17159763,672a315f5ffd0405912274c1,69b95efdef24cd8a694e89ee,69b95fffc97054dae3fb680c,0.1067,0.1067,1,66,228,4,1,threeone,,,,,,,,,,,,,,,,,,,,,,,,,,,,,,,,,,,,,,,,,,,,,,,,,,,,,,,,,,,,,,,,,,,,,,,,,,,,,,,,,,,,,,,,,,,,,,,,,,,,,,,,,,,,,,,,,,,,,,,,,,,,,,,,,,,,,,,,,
,,672a315f5ffd0405912274c1,2026-03-17_15h09.29.017,kallum_motion_pilot_GIST_update_2,2026.1.1,Win32,59.17159763,672a315f5ffd0405912274c1,69b95efdef24cd8a694e89ee,69b95fffc97054dae3fb680c,0.1068,0.1068,1,67,229,134,1,eightsix,,,,,,,,,,,,,,,,,,,,,,,,,,,,,,,,,,,,,,,,,,,,,,,,,,,,,,,,,,,,,,,,,,,,,,,,,,,,,,,,,,,,,,,,,,,,,,,,,,,,,,,,,,,,,,,,,,,,,,,,,,,,,,,,,,,,,,,,,
,,672a315f5ffd0405912274c1,2026-03-17_15h09.29.017,kallum_motion_pilot_GIST_update_2,2026.1.1,Win32,59.17159763,672a315f5ffd0405912274c1,69b95efdef24cd8a694e89ee,69b95fffc97054dae3fb680c,0.1071,0.1071,1,68,230,59,1,twofour,,,,,,,,,,,,,,,,,,,,,,,,,,,,,,,,,,,,,,,,,,,,,,,,,,,,,,,,,,,,,,,,,,,,,,,,,,,,,,,,,,,,,,,,,,,,,,,,,,,,,,,,,,,,,,,,,,,,,,,,,,,,,,,,,,,,,,,,,
,,672a315f5ffd0405912274c1,2026-03-17_15h09.29.017,kallum_motion_pilot_GIST_update_2,2026.1.1,Win32,59.17159763,672a315f5ffd0405912274c1,69b95efdef24cd8a694e89ee,69b95fffc97054dae3fb680c,0.1074,0.1074,1,69,231,95,1,eightseven,,,,,,,,,,,,,,,,,,,,,,,,,,,,,,,,,,,,,,,,,,,,,,,,,,,,,,,,,,,,,,,,,,,,,,,,,,,,,,,,,,,,,,,,,,,,,,,,,,,,,,,,,,,,,,,,,,,,,,,,,,,,,,,,,,,,,,,,,
,,672a315f5ffd0405912274c1,2026-03-17_15h09.29.017,kallum_motion_pilot_GIST_update_2,2026.1.1,Win32,59.17159763,672a315f5ffd0405912274c1,69b95efdef24cd8a694e89ee,69b95fffc97054dae3fb680c,0.1077,0.1077,1,70,232,64,1,onetwo,,,,,,,,,,,,,,,,,,,,,,,,,,,,,,,,,,,,,,,,,,,,,,,,,,,,,,,,,,,,,,,,,,,,,,,,,,,,,,,,,,,,,,,,,,,,,,,,,,,,,,,,,,,,,,,,,,,,,,,,,,,,,,,,,,,,,,,,,
,,672a315f5ffd0405912274c1,2026-03-17_15h09.29.017,kallum_motion_pilot_GIST_update_2,2026.1.1,Win32,59.17159763,672a315f5ffd0405912274c1,69b95efdef24cd8a694e89ee,69b95fffc97054dae3fb680c,0.1079,0.1079,1,71,233,87,1,eightseven,,,,,,,,,,,,,,,,,,,,,,,,,,,,,,,,,,,,,,,,,,,,,,,,,,,,,,,,,,,,,,,,,,,,,,,,,,,,,,,,,,,,,,,,,,,,,,,,,,,,,,,,,,,,,,,,,,,,,,,,,,,,,,,,,,,,,,,,,
,,672a315f5ffd0405912274c1,2026-03-17_15h09.29.017,kallum_motion_pilot_GIST_update_2,2026.1.1,Win32,59.17159763,672a315f5ffd0405912274c1,69b95efdef24cd8a694e89ee,69b95fffc97054dae3fb680c,0.108,0.108,1,72,234,22,1,fourtwo,,,,,,,,,,,,,,,,,,,,,,,,,,,,,,,,,,,,,,,,,,,,,,,,,,,,,,,,,,,,,,,,,,,,,,,,,,,,,,,,,,,,,,,,,,,,,,,,,,,,,,,,,,,,,,,,,,,,,,,,,,,,,,,,,,,,,,,,,
,,672a315f5ffd0405912274c1,2026-03-17_15h09.29.017,kallum_motion_pilot_GIST_update_2,2026.1.1,Win32,59.17159763,672a315f5ffd0405912274c1,69b95efdef24cd8a694e89ee,69b95fffc97054dae3fb680c,0.1084,0.1084,1,73,235,131,1,sixeight,,,,,,,,,,,,,,,,,,,,,,,,,,,,,,,,,,,,,,,,,,,,,,,,,,,,,,,,,,,,,,,,,,,,,,,,,,,,,,,,,,,,,,,,,,,,,,,,,,,,,,,,,,,,,,,,,,,,,,,,,,,,,,,,,,,,,,,,,
,,672a315f5ffd0405912274c1,2026-03-17_15h09.29.017,kallum_motion_pilot_GIST_update_2,2026.1.1,Win32,59.17159763,672a315f5ffd0405912274c1,69b95efdef24cd8a694e89ee,69b95fffc97054dae3fb680c,0.1085,0.1086,1,74,236,61,1,threefour,,,,,,,,,,,,,,,,,,,,,,,,,,,,,,,,,,,,,,,,,,,,,,,,,,,,,,,,,,,,,,,,,,,,,,,,,,,,,,,,,,,,,,,,,,,,,,,,,,,,,,,,,,,,,,,,,,,,,,,,,,,,,,,,,,,,,,,,,
,,672a315f5ffd0405912274c1,2026-03-17_15h09.29.017,kallum_motion_pilot_GIST_update_2,2026.1.1,Win32,59.17159763,672a315f5ffd0405912274c1,69b95efdef24cd8a694e89ee,69b95fffc97054dae3fb680c,0.1088,0.1088,1,75,237,161,1,fiveseven,,,,,,,,,,,,,,,,,,,,,,,,,,,,,,,,,,,,,,,,,,,,,,,,,,,,,,,,,,,,,,,,,,,,,,,,,,,,,,,,,,,,,,,,,,,,,,,,,,,,,,,,,,,,,,,,,,,,,,,,,,,,,,,,,,,,,,,,,
,,672a315f5ffd0405912274c1,2026-03-17_15h09.29.017,kallum_motion_pilot_GIST_update_2,2026.1.1,Win32,59.17159763,672a315f5ffd0405912274c1,69b95efdef24cd8a694e89ee,69b95fffc97054dae3fb680c,0.1091,0.1091,1,76,238,142,1,eightsix,,,,,,,,,,,,,,,,,,,,,,,,,,,,,,,,,,,,,,,,,,,,,,,,,,,,,,,,,,,,,,,,,,,,,,,,,,,,,,,,,,,,,,,,,,,,,,,,,,,,,,,,,,,,,,,,,,,,,,,,,,,,,,,,,,,,,,,,,
,,672a315f5ffd0405912274c1,2026-03-17_15h09.29.017,kallum_motion_pilot_GIST_update_2,2026.1.1,Win32,59.17159763,672a315f5ffd0405912274c1,69b95efdef24cd8a694e89ee,69b95fffc97054dae3fb680c,0.1094,0.1094,1,77,239,80,1,fivesix,,,,,,,,,,,,,,,,,,,,,,,,,,,,,,,,,,,,,,,,,,,,,,,,,,,,,,,,,,,,,,,,,,,,,,,,,,,,,,,,,,,,,,,,,,,,,,,,,,,,,,,,,,,,,,,,,,,,,,,,,,,,,,,,,,,,,,,,,
,,672a315f5ffd0405912274c1,2026-03-17_15h09.29.017,kallum_motion_pilot_GIST_update_2,2026.1.1,Win32,59.17159763,672a315f5ffd0405912274c1,69b95efdef24cd8a694e89ee,69b95fffc97054dae3fb680c,0.1097,0.1097,1,78,240,5,1,threefour,,,,,,,,,,,,,,,,,,,,,,,,,,,,,,,,,,,,,,,,,,,,,,,,,,,,,,,,,,,,,,,,,,,,,,,,,,,,,,,,,,,,,,,,,,,,,,,,,,,,,,,,,,,,,,,,,,,,,,,,,,,,,,,,,,,,,,,,,
,,672a315f5ffd0405912274c1,2026-03-17_15h09.29.017,kallum_motion_pilot_GIST_update_2,2026.1.1,Win32,59.17159763,672a315f5ffd0405912274c1,69b95efdef24cd8a694e89ee,69b95fffc97054dae3fb680c,0.11,0.11,1,79,241,16,1,onetwo,,,,,,,,,,,,,,,,,,,,,,,,,,,,,,,,,,,,,,,,,,,,,,,,,,,,,,,,,,,,,,,,,,,,,,,,,,,,,,,,,,,,,,,,,,,,,,,,,,,,,,,,,,,,,,,,,,,,,,,,,,,,,,,,,,,,,,,,,
,,672a315f5ffd0405912274c1,2026-03-17_15h09.29.017,kallum_motion_pilot_GIST_update_2,2026.1.1,Win32,59.17159763,672a315f5ffd0405912274c1,69b95efdef24cd8a694e89ee,69b95fffc97054dae3fb680c,0.1103,0.1103,1,80,242,31,1,fourthree,,,,,,,,,,,,,,,,,,,,,,,,,,,,,,,,,,,,,,,,,,,,,,,,,,,,,,,,,,,,,,,,,,,,,,,,,,,,,,,,,,,,,,,,,,,,,,,,,,,,,,,,,,,,,,,,,,,,,,,,,,,,,,,,,,,,,,,,,
,,672a315f5ffd0405912274c1,2026-03-17_15h09.29.017,kallum_motion_pilot_GIST_update_2,2026.1.1,Win32,59.17159763,672a315f5ffd0405912274c1,69b95efdef24cd8a694e89ee,69b95fffc97054dae3fb680c,0.1105,0.1105,1,81,243,73,1,onethree,,,,,,,,,,,,,,,,,,,,,,,,,,,,,,,,,,,,,,,,,,,,,,,,,,,,,,,,,,,,,,,,,,,,,,,,,,,,,,,,,,,,,,,,,,,,,,,,,,,,,,,,,,,,,,,,,,,,,,,,,,,,,,,,,,,,,,,,,
,,672a315f5ffd0405912274c1,2026-03-17_15h09.29.017,kallum_motion_pilot_GIST_update_2,2026.1.1,Win32,59.17159763,672a315f5ffd0405912274c1,69b95efdef24cd8a694e89ee,69b95fffc97054dae3fb680c,0.1108,0.1108,1,82,244,75,1,twofour,,,,,,,,,,,,,,,,,,,,,,,,,,,,,,,,,,,,,,,,,,,,,,,,,,,,,,,,,,,,,,,,,,,,,,,,,,,,,,,,,,,,,,,,,,,,,,,,,,,,,,,,,,,,,,,,,,,,,,,,,,,,,,,,,,,,,,,,,
,,672a315f5ffd0405912274c1,2026-03-17_15h09.29.017,kallum_motion_pilot_GIST_update_2,2026.1.1,Win32,59.17159763,672a315f5ffd0405912274c1,69b95efdef24cd8a694e89ee,69b95fffc97054dae3fb680c,0.1111,0.1111,1,83,245,159,1,eightseven,,,,,,,,,,,,,,,,,,,,,,,,,,,,,,,,,,,,,,,,,,,,,,,,,,,,,,,,,,,,,,,,,,,,,,,,,,,,,,,,,,,,,,,,,,,,,,,,,,,,,,,,,,,,,,,,,,,,,,,,,,,,,,,,,,,,,,,,,
,,672a315f5ffd0405912274c1,2026-03-17_15h09.29.017,kallum_motion_pilot_GIST_update_2,2026.1.1,Win32,59.17159763,672a315f5ffd0405912274c1,69b95efdef24cd8a694e89ee,69b95fffc97054dae3fb680c,0.1113,0.1113,1,84,246,0,1,onetwo,,,,,,,,,,,,,,,,,,,,,,,,,,,,,,,,,,,,,,,,,,,,,,,,,,,,,,,,,,,,,,,,,,,,,,,,,,,,,,,,,,,,,,,,,,,,,,,,,,,,,,,,,,,,,,,,,,,,,,,,,,,,,,,,,,,,,,,,,
,,672a315f5ffd0405912274c1,2026-03-17_15h09.29.017,kallum_motion_pilot_GIST_update_2,2026.1.1,Win32,59.17159763,672a315f5ffd0405912274c1,69b95efdef24cd8a694e89ee,69b95fffc97054dae3fb680c,0.1116,0.1116,1,85,247,113,1,fiveseven,,,,,,,,,,,,,,,,,,,,,,,,,,,,,,,,,,,,,,,,,,,,,,,,,,,,,,,,,,,,,,,,,,,,,,,,,,,,,,,,,,,,,,,,,,,,,,,,,,,,,,,,,,,,,,,,,,,,,,,,,,,,,,,,,,,,,,,,,
,,672a315f5ffd0405912274c1,2026-03-17_15h09.29.017,kallum_motion_pilot_GIST_update_2,2026.1.1,Win32,59.17159763,672a315f5ffd0405912274c1,69b95efdef24cd8a694e89ee,69b95fffc97054dae3fb680c,0.1119,0.1119,1,86,248,148,1,sevenfive,,,,,,,,,,,,,,,,,,,,,,,,,,,,,,,,,,,,,,,,,,,,,,,,,,,,,,,,,,,,,,,,,,,,,,,,,,,,,,,,,,,,,,,,,,,,,,,,,,,,,,,,,,,,,,,,,,,,,,,,,,,,,,,,,,,,,,,,,
,,672a315f5ffd0405912274c1,2026-03-17_15h09.29.017,kallum_motion_pilot_GIST_update_2,2026.1.1,Win32,59.17159763,672a315f5ffd0405912274c1,69b95efdef24cd8a694e89ee,69b95fffc97054dae3fb680c,0.1121,0.1121,1,87,249,25,1,onethree,,,,,,,,,,,,,,,,,,,,,,,,,,,,,,,,,,,,,,,,,,,,,,,,,,,,,,,,,,,,,,,,,,,,,,,,,,,,,,,,,,,,,,,,,,,,,,,,,,,,,,,,,,,,,,,,,,,,,,,,,,,,,,,,,,,,,,,,,
,,672a315f5ffd0405912274c1,2026-03-17_15h09.29.017,kallum_motion_pilot_GIST_update_2,2026.1.1,Win32,59.17159763,672a315f5ffd0405912274c1,69b95efdef24cd8a694e89ee,69b95fffc97054dae3fb680c,0.1124,0.1124,1,88,250,53,1,threefour,,,,,,,,,,,,,,,,,,,,,,,,,,,,,,,,,,,,,,,,,,,,,,,,,,,,,,,,,,,,,,,,,,,,,,,,,,,,,,,,,,,,,,,,,,,,,,,,,,,,,,,,,,,,,,,,,,,,,,,,,,,,,,,,,,,,,,,,,
,,672a315f5ffd0405912274c1,2026-03-17_15h09.29.017,kallum_motion_pilot_GIST_update_2,2026.1.1,Win32,59.17159763,672a315f5ffd0405912274c1,69b95efdef24cd8a694e89ee,69b95fffc97054dae3fb680c,0.1126,0.1126,1,89,251,81,1,fiveseven,,,,,,,,,,,,,,,,,,,,,,,,,,,,,,,,,,,,,,,,,,,,,,,,,,,,,,,,,,,,,,,,,,,,,,,,,,,,,,,,,,,,,,,,,,,,,,,,,,,,,,,,,,,,,,,,,,,,,,,,,,,,,,,,,,,,,,,,,
,,672a315f5ffd0405912274c1,2026-03-17_15h09.29.017,kallum_motion_pilot_GIST_update_2,2026.1.1,Win32,59.17159763,672a315f5ffd0405912274c1,69b95efdef24cd8a694e89ee,69b95fffc97054dae3fb680c,0.1128,0.1129,1,90,252,105,1,fiveseven,,,,,,,,,,,,,,,,,,,,,,,,,,,,,,,,,,,,,,,,,,,,,,,,,,,,,,,,,,,,,,,,,,,,,,,,,,,,,,,,,,,,,,,,,,,,,,,,,,,,,,,,,,,,,,,,,,,,,,,,,,,,,,,,,,,,,,,,,
,,672a315f5ffd0405912274c1,2026-03-17_15h09.29.017,kallum_motion_pilot_GIST_update_2,2026.1.1,Win32,59.17159763,672a315f5ffd0405912274c1,69b95efdef24cd8a694e89ee,69b95fffc97054dae3fb680c,0.1132,0.1132,1,91,253,6,1,fourtwo,,,,,,,,,,,,,,,,,,,,,,,,,,,,,,,,,,,,,,,,,,,,,,,,,,,,,,,,,,,,,,,,,,,,,,,,,,,,,,,,,,,,,,,,,,,,,,,,,,,,,,,,,,,,,,,,,,,,,,,,,,,,,,,,,,,,,,,,,
,,672a315f5ffd0405912274c1,2026-03-17_15h09.29.017,kallum_motion_pilot_GIST_update_2,2026.1.1,Win32,59.17159763,672a315f5ffd0405912274c1,69b95efdef24cd8a694e89ee,69b95fffc97054dae3fb680c,0.1134,0.1134,1,92,254,120,1,fivesix,,,,,,,,,,,,,,,,,,,,,,,,,,,,,,,,,,,,,,,,,,,,,,,,,,,,,,,,,,,,,,,,,,,,,,,,,,,,,,,,,,,,,,,,,,,,,,,,,,,,,,,,,,,,,,,,,,,,,,,,,,,,,,,,,,,,,,,,,
,,672a315f5ffd0405912274c1,2026-03-17_15h09.29.017,kallum_motion_pilot_GIST_update_2,2026.1.1,Win32,59.17159763,672a315f5ffd0405912274c1,69b95efdef24cd8a694e89ee,69b95fffc97054dae3fb680c,0.1138,0.1138,1,93,255,153,1,fiveseven,,,,,,,,,,,,,,,,,,,,,,,,,,,,,,,,,,,,,,,,,,,,,,,,,,,,,,,,,,,,,,,,,,,,,,,,,,,,,,,,,,,,,,,,,,,,,,,,,,,,,,,,,,,,,,,,,,,,,,,,,,,,,,,,,,,,,,,,,
,,672a315f5ffd0405912274c1,2026-03-17_15h09.29.017,kallum_motion_pilot_GIST_update_2,2026.1.1,Win32,59.17159763,672a315f5ffd0405912274c1,69b95efdef24cd8a694e89ee,69b95fffc97054dae3fb680c,0.1142,0.1142,1,94,256,109,1,seveneight,,,,,,,,,,,,,,,,,,,,,,,,,,,,,,,,,,,,,,,,,,,,,,,,,,,,,,,,,,,,,,,,,,,,,,,,,,,,,,,,,,,,,,,,,,,,,,,,,,,,,,,,,,,,,,,,,,,,,,,,,,,,,,,,,,,,,,,,,
,,672a315f5ffd0405912274c1,2026-03-17_15h09.29.017,kallum_motion_pilot_GIST_update_2,2026.1.1,Win32,59.17159763,672a315f5ffd0405912274c1,69b95efdef24cd8a694e89ee,69b95fffc97054dae3fb680c,0.1144,0.1144,1,95,257,20,1,threeone,,,,,,,,,,,,,,,,,,,,,,,,,,,,,,,,,,,,,,,,,,,,,,,,,,,,,,,,,,,,,,,,,,,,,,,,,,,,,,,,,,,,,,,,,,,,,,,,,,,,,,,,,,,,,,,,,,,,,,,,,,,,,,,,,,,,,,,,,
,,672a315f5ffd0405912274c1,2026-03-17_15h09.29.017,kallum_motion_pilot_GIST_update_2,2026.1.1,Win32,59.17159763,672a315f5ffd0405912274c1,69b95efdef24cd8a694e89ee,69b95fffc97054dae3fb680c,0.1147,0.1147,1,96,258,150,1,eightsix,,,,,,,,,,,,,,,,,,,,,,,,,,,,,,,,,,,,,,,,,,,,,,,,,,,,,,,,,,,,,,,,,,,,,,,,,,,,,,,,,,,,,,,,,,,,,,,,,,,,,,,,,,,,,,,,,,,,,,,,,,,,,,,,,,,,,,,,,
,,672a315f5ffd0405912274c1,2026-03-17_15h09.29.017,kallum_motion_pilot_GIST_update_2,2026.1.1,Win32,59.17159763,672a315f5ffd0405912274c1,69b95efdef24cd8a694e89ee,69b95fffc97054dae3fb680c,0.115,0.115,1,97,259,48,1,onetwo,,,,,,,,,,,,,,,,,,,,,,,,,,,,,,,,,,,,,,,,,,,,,,,,,,,,,,,,,,,,,,,,,,,,,,,,,,,,,,,,,,,,,,,,,,,,,,,,,,,,,,,,,,,,,,,,,,,,,,,,,,,,,,,,,,,,,,,,,
,,672a315f5ffd0405912274c1,2026-03-17_15h09.29.017,kallum_motion_pilot_GIST_update_2,2026.1.1,Win32,59.17159763,672a315f5ffd0405912274c1,69b95efdef24cd8a694e89ee,69b95fffc97054dae3fb680c,0.1152,0.1152,1,98,260,14,1,fourtwo,,,,,,,,,,,,,,,,,,,,,,,,,,,,,,,,,,,,,,,,,,,,,,,,,,,,,,,,,,,,,,,,,,,,,,,,,,,,,,,,,,,,,,,,,,,,,,,,,,,,,,,,,,,,,,,,,,,,,,,,,,,,,,,,,,,,,,,,,
,,672a315f5ffd0405912274c1,2026-03-17_15h09.29.017,kallum_motion_pilot_GIST_update_2,2026.1.1,Win32,59.17159763,672a315f5ffd0405912274c1,69b95efdef24cd8a694e89ee,69b95fffc97054dae3fb680c,0.1156,0.1156,1,99,261,51,1,twofour,,,,,,,,,,,,,,,,,,,,,,,,,,,,,,,,,,,,,,,,,,,,,,,,,,,,,,,,,,,,,,,,,,,,,,,,,,,,,,,,,,,,,,,,,,,,,,,,,,,,,,,,,,,,,,,,,,,,,,,,,,,,,,,,,,,,,,,,,
,,672a315f5ffd0405912274c1,2026-03-17_15h09.29.017,kallum_motion_pilot_GIST_update_2,2026.1.1,Win32,59.17159763,672a315f5ffd0405912274c1,69b95efdef24cd8a694e89ee,69b95fffc97054dae3fb680c,0.1159,0.1159,1,100,262,119,1,eightseven,,,,,,,,,,,,,,,,,,,,,,,,,,,,,,,,,,,,,,,,,,,,,,,,,,,,,,,,,,,,,,,,,,,,,,,,,,,,,,,,,,,,,,,,,,,,,,,,,,,,,,,,,,,,,,,,,,,,,,,,,,,,,,,,,,,,,,,,,
,,672a315f5ffd0405912274c1,2026-03-17_15h09.29.017,kallum_motion_pilot_GIST_update_2,2026.1.1,Win32,59.17159763,672a315f5ffd0405912274c1,69b95efdef24cd8a694e89ee,69b95fffc97054dae3fb680c,0.1162,0.1162,1,101,263,52,1,threeone,,,,,,,,,,,,,,,,,,,,,,,,,,,,,,,,,,,,,,,,,,,,,,,,,,,,,,,,,,,,,,,,,,,,,,,,,,,,,,,,,,,,,,,,,,,,,,,,,,,,,,,,,,,,,,,,,,,,,,,,,,,,,,,,,,,,,,,,,
,,672a315f5ffd0405912274c1,2026-03-17_15h09.29.017,kallum_motion_pilot_GIST_update_2,2026.1.1,Win32,59.17159763,672a315f5ffd0405912274c1,69b95efdef24cd8a694e89ee,69b95fffc97054dae3fb680c,0.1165,0.1165,1,102,264,136,1,fivesix,,,,,,,,,,,,,,,,,,,,,,,,,,,,,,,,,,,,,,,,,,,,,,,,,,,,,,,,,,,,,,,,,,,,,,,,,,,,,,,,,,,,,,,,,,,,,,,,,,,,,,,,,,,,,,,,,,,,,,,,,,,,,,,,,,,,,,,,,
,,672a315f5ffd0405912274c1,2026-03-17_15h09.29.017,kallum_motion_pilot_GIST_update_2,2026.1.1,Win32,59.17159763,672a315f5ffd0405912274c1,69b95efdef24cd8a694e89ee,69b95fffc97054dae3fb680c,0.1168,0.1168,1,103,265,57,1,onethree,,,,,,,,,,,,,,,,,,,,,,,,,,,,,,,,,,,,,,,,,,,,,,,,,,,,,,,,,,,,,,,,,,,,,,,,,,,,,,,,,,,,,,,,,,,,,,,,,,,,,,,,,,,,,,,,,,,,,,,,,,,,,,,,,,,,,,,,,
,,672a315f5ffd0405912274c1,2026-03-17_15h09.29.017,kallum_motion_pilot_GIST_update_2,2026.1.1,Win32,59.17159763,672a315f5ffd0405912274c1,69b95efdef24cd8a694e89ee,69b95fffc97054dae3fb680c,0.1171,0.1171,1,104,266,114,1,sixfive,,,,,,,,,,,,,,,,,,,,,,,,,,,,,,,,,,,,,,,,,,,,,,,,,,,,,,,,,,,,,,,,,,,,,,,,,,,,,,,,,,,,,,,,,,,,,,,,,,,,,,,,,,,,,,,,,,,,,,,,,,,,,,,,,,,,,,,,,
