startup.started,startup.stopped,Prolific ID*,date,expName,psychopyVersion,OS,frameRate,participant,study_id,session,stimpositions.started,stimpositions.stopped,hardcoded_stimulus_positions.thisRepN,hardcoded_stimulus_positions.thisTrialN,hardcoded_stimulus_positions.thisN,hardcoded_stimulus_positions.thisIndex,hardcoded_stimulus_positions.ran,StimulusPos,stimorientation.started,stimorientation.stopped,prac_stimorientation_import_loop.thisRepN,prac_stimorientation_import_loop.thisTrialN,prac_stimorientation_import_loop.thisN,prac_stimorientation_import_loop.thisIndex,prac_stimorientation_import_loop.ran,Stimorientation,welcome_instr.started,welcome_instr.stopped,key_resp.keys,key_resp.rt,key_resp.duration,response_steppedout_1.started,response_steppedout_1.stopped,key_resp_20.keys,key_resp_20.rt,key_resp_20.duration,response_steppedout_2.started,response_steppedout_2.stopped,key_resp_19.keys,key_resp_19.rt,key_resp_19.duration,stim_response_instr.started,stim_response_instr.stopped,key_resp_15.keys,key_resp_15.rt,key_resp_15.duration,direction_instr_2.started,direction_instr_2.stopped,key_resp_9.keys,key_resp_9.rt,key_resp_9.duration,instr_prac.started,instr_prac.stopped,key_resp_10.keys,key_resp_10.rt,key_resp_10.duration,Stim1_display_prac.started,Stim1_display_prac.stopped,Ecc,Circle1_ori,Circle2_ori,response_prac.started,similarity,response_time,response_prac.stopped,mouse_5.x,mouse_5.y,mouse_5.leftButton,mouse_5.midButton,mouse_5.rightButton,mouse_5.clicked_name,responseprac_feedback.started,responseprac_feedback.stopped,summary2_prac.started,summary2_prac.stopped,mouse_6.x,mouse_6.y,mouse_6.leftButton,mouse_6.midButton,mouse_6.rightButton,mouse_6.clicked_name,duringprac.thisRepN,duringprac.thisTrialN,duringprac.thisN,duringprac.thisIndex,duringprac.ran,begin.started,begin.stopped,key_resp_22.keys,key_resp_22.rt,key_resp_22.duration,Stim1_display.started,Stim1_display.stopped,circle1_ori,circle2_ori,circle1_SF,circle2_SF,response.started,response.stopped,mouse.x,mouse.y,mouse.leftButton,mouse.midButton,mouse.rightButton,mouse.clicked_name,trialnumber,double_pass.thisRepN,double_pass.thisTrialN,double_pass.thisN,double_pass.thisIndex,double_pass.ran,double_pass.order,main_trial.thisRepN,main_trial.thisTrialN,main_trial.thisN,main_trial.thisIndex,main_trial.ran,main_trial.order,Trial_Counter,Catch,Frequencies,response_2.started,response_2.stopped,mouse_2.x,mouse_2.y,mouse_2.leftButton,mouse_2.midButton,mouse_2.rightButton,mouse_2.clicked_name,special_trial.started,special_trial.stopped,catch_1.started,catch_1.stopped,mouse_3.x,mouse_3.y,mouse_3.leftButton,mouse_3.midButton,mouse_3.rightButton,catchresponse,catchnumber,response_time_catch,response_sum.started,response_sum.stopped,mouse_11.x,mouse_11.y,mouse_11.leftButton,mouse_11.midButton,mouse_11.rightButton,flip_presentation_sequence_for_double_pass.started,flip_presentation_sequence_for_double_pass.stopped,goodbye.started,goodbye.stopped,key_resp_3.keys,key_resp_3.rt,key_resp_3.duration
0.0005,0.0006,672b5b677b0aacba1cf83b87,2026-03-17_12h41.30.897,kallum_motion_pilot_GIST_update_2,2026.1.1,Win32,59.17159763,672b5b677b0aacba1cf83b87,69b92ab4aef6dee357cd729a,69b92b4c58ce1b3cd75b9812,,,,,,,,,,,,,,,,,,,,,,,,,,,,,,,,,,,,,,,,,,,,,,,,,,,,,,,,,,,,,,,,,,,,,,,,,,,,,,,,,,,,,,,,,,,,,,,,,,,,,,,,,,,,,,,,,,,,,,,,,,,,,,,,,,,,,,,,,,,,,,,,,
,,672b5b677b0aacba1cf83b87,2026-03-17_12h41.30.897,kallum_motion_pilot_GIST_update_2,2026.1.1,Win32,59.17159763,672b5b677b0aacba1cf83b87,69b92ab4aef6dee357cd729a,69b92b4c58ce1b3cd75b9812,0.0521,0.0525,0,0,0,1,1,onethree,,,,,,,,,,,,,,,,,,,,,,,,,,,,,,,,,,,,,,,,,,,,,,,,,,,,,,,,,,,,,,,,,,,,,,,,,,,,,,,,,,,,,,,,,,,,,,,,,,,,,,,,,,,,,,,,,,,,,,,,,,,,,,,,,,,,,,,,,
,,672b5b677b0aacba1cf83b87,2026-03-17_12h41.30.897,kallum_motion_pilot_GIST_update_2,2026.1.1,Win32,59.17159763,672b5b677b0aacba1cf83b87,69b92ab4aef6dee357cd729a,69b92b4c58ce1b3cd75b9812,0.0533,0.0533,0,1,1,126,1,eightsix,,,,,,,,,,,,,,,,,,,,,,,,,,,,,,,,,,,,,,,,,,,,,,,,,,,,,,,,,,,,,,,,,,,,,,,,,,,,,,,,,,,,,,,,,,,,,,,,,,,,,,,,,,,,,,,,,,,,,,,,,,,,,,,,,,,,,,,,,
,,672b5b677b0aacba1cf83b87,2026-03-17_12h41.30.897,kallum_motion_pilot_GIST_update_2,2026.1.1,Win32,59.17159763,672b5b677b0aacba1cf83b87,69b92ab4aef6dee357cd729a,69b92b4c58ce1b3cd75b9812,0.0539,0.0539,0,2,2,62,1,fourtwo,,,,,,,,,,,,,,,,,,,,,,,,,,,,,,,,,,,,,,,,,,,,,,,,,,,,,,,,,,,,,,,,,,,,,,,,,,,,,,,,,,,,,,,,,,,,,,,,,,,,,,,,,,,,,,,,,,,,,,,,,,,,,,,,,,,,,,,,,
,,672b5b677b0aacba1cf83b87,2026-03-17_12h41.30.897,kallum_motion_pilot_GIST_update_2,2026.1.1,Win32,59.17159763,672b5b677b0aacba1cf83b87,69b92ab4aef6dee357cd729a,69b92b4c58ce1b3cd75b9812,0.0545,0.0545,0,3,3,20,1,threeone,,,,,,,,,,,,,,,,,,,,,,,,,,,,,,,,,,,,,,,,,,,,,,,,,,,,,,,,,,,,,,,,,,,,,,,,,,,,,,,,,,,,,,,,,,,,,,,,,,,,,,,,,,,,,,,,,,,,,,,,,,,,,,,,,,,,,,,,,
,,672b5b677b0aacba1cf83b87,2026-03-17_12h41.30.897,kallum_motion_pilot_GIST_update_2,2026.1.1,Win32,59.17159763,672b5b677b0aacba1cf83b87,69b92ab4aef6dee357cd729a,69b92b4c58ce1b3cd75b9812,0.055,0.0551,0,4,4,18,1,twoone,,,,,,,,,,,,,,,,,,,,,,,,,,,,,,,,,,,,,,,,,,,,,,,,,,,,,,,,,,,,,,,,,,,,,,,,,,,,,,,,,,,,,,,,,,,,,,,,,,,,,,,,,,,,,,,,,,,,,,,,,,,,,,,,,,,,,,,,,
,,672b5b677b0aacba1cf83b87,2026-03-17_12h41.30.897,kallum_motion_pilot_GIST_update_2,2026.1.1,Win32,59.17159763,672b5b677b0aacba1cf83b87,69b92ab4aef6dee357cd729a,69b92b4c58ce1b3cd75b9812,0.0555,0.0556,0,5,5,4,1,threeone,,,,,,,,,,,,,,,,,,,,,,,,,,,,,,,,,,,,,,,,,,,,,,,,,,,,,,,,,,,,,,,,,,,,,,,,,,,,,,,,,,,,,,,,,,,,,,,,,,,,,,,,,,,,,,,,,,,,,,,,,,,,,,,,,,,,,,,,,
,,672b5b677b0aacba1cf83b87,2026-03-17_12h41.30.897,kallum_motion_pilot_GIST_update_2,2026.1.1,Win32,59.17159763,672b5b677b0aacba1cf83b87,69b92ab4aef6dee357cd729a,69b92b4c58ce1b3cd75b9812,0.056,0.0561,0,6,6,137,1,fiveseven,,,,,,,,,,,,,,,,,,,,,,,,,,,,,,,,,,,,,,,,,,,,,,,,,,,,,,,,,,,,,,,,,,,,,,,,,,,,,,,,,,,,,,,,,,,,,,,,,,,,,,,,,,,,,,,,,,,,,,,,,,,,,,,,,,,,,,,,,
,,672b5b677b0aacba1cf83b87,2026-03-17_12h41.30.897,kallum_motion_pilot_GIST_update_2,2026.1.1,Win32,59.17159763,672b5b677b0aacba1cf83b87,69b92ab4aef6dee357cd729a,69b92b4c58ce1b3cd75b9812,0.0568,0.0569,0,7,7,156,1,sevenfive,,,,,,,,,,,,,,,,,,,,,,,,,,,,,,,,,,,,,,,,,,,,,,,,,,,,,,,,,,,,,,,,,,,,,,,,,,,,,,,,,,,,,,,,,,,,,,,,,,,,,,,,,,,,,,,,,,,,,,,,,,,,,,,,,,,,,,,,,
,,672b5b677b0aacba1cf83b87,2026-03-17_12h41.30.897,kallum_motion_pilot_GIST_update_2,2026.1.1,Win32,59.17159763,672b5b677b0aacba1cf83b87,69b92ab4aef6dee357cd729a,69b92b4c58ce1b3cd75b9812,0.0574,0.0576,0,8,8,85,1,seveneight,,,,,,,,,,,,,,,,,,,,,,,,,,,,,,,,,,,,,,,,,,,,,,,,,,,,,,,,,,,,,,,,,,,,,,,,,,,,,,,,,,,,,,,,,,,,,,,,,,,,,,,,,,,,,,,,,,,,,,,,,,,,,,,,,,,,,,,,,
,,672b5b677b0aacba1cf83b87,2026-03-17_12h41.30.897,kallum_motion_pilot_GIST_update_2,2026.1.1,Win32,59.17159763,672b5b677b0aacba1cf83b87,69b92ab4aef6dee357cd729a,69b92b4c58ce1b3cd75b9812,0.0581,0.0582,0,9,9,80,1,fivesix,,,,,,,,,,,,,,,,,,,,,,,,,,,,,,,,,,,,,,,,,,,,,,,,,,,,,,,,,,,,,,,,,,,,,,,,,,,,,,,,,,,,,,,,,,,,,,,,,,,,,,,,,,,,,,,,,,,,,,,,,,,,,,,,,,,,,,,,,
,,672b5b677b0aacba1cf83b87,2026-03-17_12h41.30.897,kallum_motion_pilot_GIST_update_2,2026.1.1,Win32,59.17159763,672b5b677b0aacba1cf83b87,69b92ab4aef6dee357cd729a,69b92b4c58ce1b3cd75b9812,0.0587,0.0587,0,10,10,155,1,sixeight,,,,,,,,,,,,,,,,,,,,,,,,,,,,,,,,,,,,,,,,,,,,,,,,,,,,,,,,,,,,,,,,,,,,,,,,,,,,,,,,,,,,,,,,,,,,,,,,,,,,,,,,,,,,,,,,,,,,,,,,,,,,,,,,,,,,,,,,,
,,672b5b677b0aacba1cf83b87,2026-03-17_12h41.30.897,kallum_motion_pilot_GIST_update_2,2026.1.1,Win32,59.17159763,672b5b677b0aacba1cf83b87,69b92ab4aef6dee357cd729a,69b92b4c58ce1b3cd75b9812,0.0591,0.0591,0,11,11,66,1,twoone,,,,,,,,,,,,,,,,,,,,,,,,,,,,,,,,,,,,,,,,,,,,,,,,,,,,,,,,,,,,,,,,,,,,,,,,,,,,,,,,,,,,,,,,,,,,,,,,,,,,,,,,,,,,,,,,,,,,,,,,,,,,,,,,,,,,,,,,,
,,672b5b677b0aacba1cf83b87,2026-03-17_12h41.30.897,kallum_motion_pilot_GIST_update_2,2026.1.1,Win32,59.17159763,672b5b677b0aacba1cf83b87,69b92ab4aef6dee357cd729a,69b92b4c58ce1b3cd75b9812,0.0595,0.0595,0,12,12,54,1,fourtwo,,,,,,,,,,,,,,,,,,,,,,,,,,,,,,,,,,,,,,,,,,,,,,,,,,,,,,,,,,,,,,,,,,,,,,,,,,,,,,,,,,,,,,,,,,,,,,,,,,,,,,,,,,,,,,,,,,,,,,,,,,,,,,,,,,,,,,,,,
,,672b5b677b0aacba1cf83b87,2026-03-17_12h41.30.897,kallum_motion_pilot_GIST_update_2,2026.1.1,Win32,59.17159763,672b5b677b0aacba1cf83b87,69b92ab4aef6dee357cd729a,69b92b4c58ce1b3cd75b9812,0.0599,0.06,0,13,13,14,1,fourtwo,,,,,,,,,,,,,,,,,,,,,,,,,,,,,,,,,,,,,,,,,,,,,,,,,,,,,,,,,,,,,,,,,,,,,,,,,,,,,,,,,,,,,,,,,,,,,,,,,,,,,,,,,,,,,,,,,,,,,,,,,,,,,,,,,,,,,,,,,
,,672b5b677b0aacba1cf83b87,2026-03-17_12h41.30.897,kallum_motion_pilot_GIST_update_2,2026.1.1,Win32,59.17159763,672b5b677b0aacba1cf83b87,69b92ab4aef6dee357cd729a,69b92b4c58ce1b3cd75b9812,0.0604,0.0604,0,14,14,29,1,threefour,,,,,,,,,,,,,,,,,,,,,,,,,,,,,,,,,,,,,,,,,,,,,,,,,,,,,,,,,,,,,,,,,,,,,,,,,,,,,,,,,,,,,,,,,,,,,,,,,,,,,,,,,,,,,,,,,,,,,,,,,,,,,,,,,,,,,,,,,
,,672b5b677b0aacba1cf83b87,2026-03-17_12h41.30.897,kallum_motion_pilot_GIST_update_2,2026.1.1,Win32,59.17159763,672b5b677b0aacba1cf83b87,69b92ab4aef6dee357cd729a,69b92b4c58ce1b3cd75b9812,0.0608,0.0608,0,15,15,114,1,sixfive,,,,,,,,,,,,,,,,,,,,,,,,,,,,,,,,,,,,,,,,,,,,,,,,,,,,,,,,,,,,,,,,,,,,,,,,,,,,,,,,,,,,,,,,,,,,,,,,,,,,,,,,,,,,,,,,,,,,,,,,,,,,,,,,,,,,,,,,,
,,672b5b677b0aacba1cf83b87,2026-03-17_12h41.30.897,kallum_motion_pilot_GIST_update_2,2026.1.1,Win32,59.17159763,672b5b677b0aacba1cf83b87,69b92ab4aef6dee357cd729a,69b92b4c58ce1b3cd75b9812,0.0612,0.0612,0,16,16,3,1,twofour,,,,,,,,,,,,,,,,,,,,,,,,,,,,,,,,,,,,,,,,,,,,,,,,,,,,,,,,,,,,,,,,,,,,,,,,,,,,,,,,,,,,,,,,,,,,,,,,,,,,,,,,,,,,,,,,,,,,,,,,,,,,,,,,,,,,,,,,,
,,672b5b677b0aacba1cf83b87,2026-03-17_12h41.30.897,kallum_motion_pilot_GIST_update_2,2026.1.1,Win32,59.17159763,672b5b677b0aacba1cf83b87,69b92ab4aef6dee357cd729a,69b92b4c58ce1b3cd75b9812,0.0617,0.0617,0,17,17,161,1,fiveseven,,,,,,,,,,,,,,,,,,,,,,,,,,,,,,,,,,,,,,,,,,,,,,,,,,,,,,,,,,,,,,,,,,,,,,,,,,,,,,,,,,,,,,,,,,,,,,,,,,,,,,,,,,,,,,,,,,,,,,,,,,,,,,,,,,,,,,,,,
,,672b5b677b0aacba1cf83b87,2026-03-17_12h41.30.897,kallum_motion_pilot_GIST_update_2,2026.1.1,Win32,59.17159763,672b5b677b0aacba1cf83b87,69b92ab4aef6dee357cd729a,69b92b4c58ce1b3cd75b9812,0.0621,0.0622,0,18,18,10,1,twoone,,,,,,,,,,,,,,,,,,,,,,,,,,,,,,,,,,,,,,,,,,,,,,,,,,,,,,,,,,,,,,,,,,,,,,,,,,,,,,,,,,,,,,,,,,,,,,,,,,,,,,,,,,,,,,,,,,,,,,,,,,,,,,,,,,,,,,,,,
,,672b5b677b0aacba1cf83b87,2026-03-17_12h41.30.897,kallum_motion_pilot_GIST_update_2,2026.1.1,Win32,59.17159763,672b5b677b0aacba1cf83b87,69b92ab4aef6dee357cd729a,69b92b4c58ce1b3cd75b9812,0.0626,0.0626,0,19,19,23,1,fourthree,,,,,,,,,,,,,,,,,,,,,,,,,,,,,,,,,,,,,,,,,,,,,,,,,,,,,,,,,,,,,,,,,,,,,,,,,,,,,,,,,,,,,,,,,,,,,,,,,,,,,,,,,,,,,,,,,,,,,,,,,,,,,,,,,,,,,,,,,
,,672b5b677b0aacba1cf83b87,2026-03-17_12h41.30.897,kallum_motion_pilot_GIST_update_2,2026.1.1,Win32,59.17159763,672b5b677b0aacba1cf83b87,69b92ab4aef6dee357cd729a,69b92b4c58ce1b3cd75b9812,0.0643,0.0643,0,20,20,69,1,threefour,,,,,,,,,,,,,,,,,,,,,,,,,,,,,,,,,,,,,,,,,,,,,,,,,,,,,,,,,,,,,,,,,,,,,,,,,,,,,,,,,,,,,,,,,,,,,,,,,,,,,,,,,,,,,,,,,,,,,,,,,,,,,,,,,,,,,,,,,
,,672b5b677b0aacba1cf83b87,2026-03-17_12h41.30.897,kallum_motion_pilot_GIST_update_2,2026.1.1,Win32,59.17159763,672b5b677b0aacba1cf83b87,69b92ab4aef6dee357cd729a,69b92b4c58ce1b3cd75b9812,0.0648,0.0649,0,21,21,94,1,eightsix,,,,,,,,,,,,,,,,,,,,,,,,,,,,,,,,,,,,,,,,,,,,,,,,,,,,,,,,,,,,,,,,,,,,,,,,,,,,,,,,,,,,,,,,,,,,,,,,,,,,,,,,,,,,,,,,,,,,,,,,,,,,,,,,,,,,,,,,,
,,672b5b677b0aacba1cf83b87,2026-03-17_12h41.30.897,kallum_motion_pilot_GIST_update_2,2026.1.1,Win32,59.17159763,672b5b677b0aacba1cf83b87,69b92ab4aef6dee357cd729a,69b92b4c58ce1b3cd75b9812,0.0653,0.0653,0,22,22,75,1,twofour,,,,,,,,,,,,,,,,,,,,,,,,,,,,,,,,,,,,,,,,,,,,,,,,,,,,,,,,,,,,,,,,,,,,,,,,,,,,,,,,,,,,,,,,,,,,,,,,,,,,,,,,,,,,,,,,,,,,,,,,,,,,,,,,,,,,,,,,,
,,672b5b677b0aacba1cf83b87,2026-03-17_12h41.30.897,kallum_motion_pilot_GIST_update_2,2026.1.1,Win32,59.17159763,672b5b677b0aacba1cf83b87,69b92ab4aef6dee357cd729a,69b92b4c58ce1b3cd75b9812,0.0658,0.0659,0,23,23,42,1,twoone,,,,,,,,,,,,,,,,,,,,,,,,,,,,,,,,,,,,,,,,,,,,,,,,,,,,,,,,,,,,,,,,,,,,,,,,,,,,,,,,,,,,,,,,,,,,,,,,,,,,,,,,,,,,,,,,,,,,,,,,,,,,,,,,,,,,,,,,,
,,672b5b677b0aacba1cf83b87,2026-03-17_12h41.30.897,kallum_motion_pilot_GIST_update_2,2026.1.1,Win32,59.17159763,672b5b677b0aacba1cf83b87,69b92ab4aef6dee357cd729a,69b92b4c58ce1b3cd75b9812,0.0663,0.0664,0,24,24,113,1,fiveseven,,,,,,,,,,,,,,,,,,,,,,,,,,,,,,,,,,,,,,,,,,,,,,,,,,,,,,,,,,,,,,,,,,,,,,,,,,,,,,,,,,,,,,,,,,,,,,,,,,,,,,,,,,,,,,,,,,,,,,,,,,,,,,,,,,,,,,,,,
,,672b5b677b0aacba1cf83b87,2026-03-17_12h41.30.897,kallum_motion_pilot_GIST_update_2,2026.1.1,Win32,59.17159763,672b5b677b0aacba1cf83b87,69b92ab4aef6dee357cd729a,69b92b4c58ce1b3cd75b9812,0.0673,0.0673,0,25,25,32,1,onetwo,,,,,,,,,,,,,,,,,,,,,,,,,,,,,,,,,,,,,,,,,,,,,,,,,,,,,,,,,,,,,,,,,,,,,,,,,,,,,,,,,,,,,,,,,,,,,,,,,,,,,,,,,,,,,,,,,,,,,,,,,,,,,,,,,,,,,,,,,
,,672b5b677b0aacba1cf83b87,2026-03-17_12h41.30.897,kallum_motion_pilot_GIST_update_2,2026.1.1,Win32,59.17159763,672b5b677b0aacba1cf83b87,69b92ab4aef6dee357cd729a,69b92b4c58ce1b3cd75b9812,0.0678,0.0679,0,26,26,96,1,fivesix,,,,,,,,,,,,,,,,,,,,,,,,,,,,,,,,,,,,,,,,,,,,,,,,,,,,,,,,,,,,,,,,,,,,,,,,,,,,,,,,,,,,,,,,,,,,,,,,,,,,,,,,,,,,,,,,,,,,,,,,,,,,,,,,,,,,,,,,,
,,672b5b677b0aacba1cf83b87,2026-03-17_12h41.30.897,kallum_motion_pilot_GIST_update_2,2026.1.1,Win32,59.17159763,672b5b677b0aacba1cf83b87,69b92ab4aef6dee357cd729a,69b92b4c58ce1b3cd75b9812,0.0683,0.0683,0,27,27,35,1,twofour,,,,,,,,,,,,,,,,,,,,,,,,,,,,,,,,,,,,,,,,,,,,,,,,,,,,,,,,,,,,,,,,,,,,,,,,,,,,,,,,,,,,,,,,,,,,,,,,,,,,,,,,,,,,,,,,,,,,,,,,,,,,,,,,,,,,,,,,,
,,672b5b677b0aacba1cf83b87,2026-03-17_12h41.30.897,kallum_motion_pilot_GIST_update_2,2026.1.1,Win32,59.17159763,672b5b677b0aacba1cf83b87,69b92ab4aef6dee357cd729a,69b92b4c58ce1b3cd75b9812,0.0687,0.0687,0,28,28,141,1,seveneight,,,,,,,,,,,,,,,,,,,,,,,,,,,,,,,,,,,,,,,,,,,,,,,,,,,,,,,,,,,,,,,,,,,,,,,,,,,,,,,,,,,,,,,,,,,,,,,,,,,,,,,,,,,,,,,,,,,,,,,,,,,,,,,,,,,,,,,,,
,,672b5b677b0aacba1cf83b87,2026-03-17_12h41.30.897,kallum_motion_pilot_GIST_update_2,2026.1.1,Win32,59.17159763,672b5b677b0aacba1cf83b87,69b92ab4aef6dee357cd729a,69b92b4c58ce1b3cd75b9812,0.0693,0.0693,0,29,29,27,1,twofour,,,,,,,,,,,,,,,,,,,,,,,,,,,,,,,,,,,,,,,,,,,,,,,,,,,,,,,,,,,,,,,,,,,,,,,,,,,,,,,,,,,,,,,,,,,,,,,,,,,,,,,,,,,,,,,,,,,,,,,,,,,,,,,,,,,,,,,,,
,,672b5b677b0aacba1cf83b87,2026-03-17_12h41.30.897,kallum_motion_pilot_GIST_update_2,2026.1.1,Win32,59.17159763,672b5b677b0aacba1cf83b87,69b92ab4aef6dee357cd729a,69b92b4c58ce1b3cd75b9812,0.0695,0.0695,0,30,30,101,1,seveneight,,,,,,,,,,,,,,,,,,,,,,,,,,,,,,,,,,,,,,,,,,,,,,,,,,,,,,,,,,,,,,,,,,,,,,,,,,,,,,,,,,,,,,,,,,,,,,,,,,,,,,,,,,,,,,,,,,,,,,,,,,,,,,,,,,,,,,,,,
,,672b5b677b0aacba1cf83b87,2026-03-17_12h41.30.897,kallum_motion_pilot_GIST_update_2,2026.1.1,Win32,59.17159763,672b5b677b0aacba1cf83b87,69b92ab4aef6dee357cd729a,69b92b4c58ce1b3cd75b9812,0.0701,0.0702,0,31,31,153,1,fiveseven,,,,,,,,,,,,,,,,,,,,,,,,,,,,,,,,,,,,,,,,,,,,,,,,,,,,,,,,,,,,,,,,,,,,,,,,,,,,,,,,,,,,,,,,,,,,,,,,,,,,,,,,,,,,,,,,,,,,,,,,,,,,,,,,,,,,,,,,,
,,672b5b677b0aacba1cf83b87,2026-03-17_12h41.30.897,kallum_motion_pilot_GIST_update_2,2026.1.1,Win32,59.17159763,672b5b677b0aacba1cf83b87,69b92ab4aef6dee357cd729a,69b92b4c58ce1b3cd75b9812,0.0706,0.0706,0,32,32,147,1,sixeight,,,,,,,,,,,,,,,,,,,,,,,,,,,,,,,,,,,,,,,,,,,,,,,,,,,,,,,,,,,,,,,,,,,,,,,,,,,,,,,,,,,,,,,,,,,,,,,,,,,,,,,,,,,,,,,,,,,,,,,,,,,,,,,,,,,,,,,,,
,,672b5b677b0aacba1cf83b87,2026-03-17_12h41.30.897,kallum_motion_pilot_GIST_update_2,2026.1.1,Win32,59.17159763,672b5b677b0aacba1cf83b87,69b92ab4aef6dee357cd729a,69b92b4c58ce1b3cd75b9812,0.071,0.071,0,33,33,149,1,seveneight,,,,,,,,,,,,,,,,,,,,,,,,,,,,,,,,,,,,,,,,,,,,,,,,,,,,,,,,,,,,,,,,,,,,,,,,,,,,,,,,,,,,,,,,,,,,,,,,,,,,,,,,,,,,,,,,,,,,,,,,,,,,,,,,,,,,,,,,,
,,672b5b677b0aacba1cf83b87,2026-03-17_12h41.30.897,kallum_motion_pilot_GIST_update_2,2026.1.1,Win32,59.17159763,672b5b677b0aacba1cf83b87,69b92ab4aef6dee357cd729a,69b92b4c58ce1b3cd75b9812,0.0716,0.0716,0,34,34,112,1,fivesix,,,,,,,,,,,,,,,,,,,,,,,,,,,,,,,,,,,,,,,,,,,,,,,,,,,,,,,,,,,,,,,,,,,,,,,,,,,,,,,,,,,,,,,,,,,,,,,,,,,,,,,,,,,,,,,,,,,,,,,,,,,,,,,,,,,,,,,,,
,,672b5b677b0aacba1cf83b87,2026-03-17_12h41.30.897,kallum_motion_pilot_GIST_update_2,2026.1.1,Win32,59.17159763,672b5b677b0aacba1cf83b87,69b92ab4aef6dee357cd729a,69b92b4c58ce1b3cd75b9812,0.0722,0.0722,0,35,35,57,1,onethree,,,,,,,,,,,,,,,,,,,,,,,,,,,,,,,,,,,,,,,,,,,,,,,,,,,,,,,,,,,,,,,,,,,,,,,,,,,,,,,,,,,,,,,,,,,,,,,,,,,,,,,,,,,,,,,,,,,,,,,,,,,,,,,,,,,,,,,,,
,,672b5b677b0aacba1cf83b87,2026-03-17_12h41.30.897,kallum_motion_pilot_GIST_update_2,2026.1.1,Win32,59.17159763,672b5b677b0aacba1cf83b87,69b92ab4aef6dee357cd729a,69b92b4c58ce1b3cd75b9812,0.0726,0.0726,0,36,36,47,1,fourthree,,,,,,,,,,,,,,,,,,,,,,,,,,,,,,,,,,,,,,,,,,,,,,,,,,,,,,,,,,,,,,,,,,,,,,,,,,,,,,,,,,,,,,,,,,,,,,,,,,,,,,,,,,,,,,,,,,,,,,,,,,,,,,,,,,,,,,,,,
,,672b5b677b0aacba1cf83b87,2026-03-17_12h41.30.897,kallum_motion_pilot_GIST_update_2,2026.1.1,Win32,59.17159763,672b5b677b0aacba1cf83b87,69b92ab4aef6dee357cd729a,69b92b4c58ce1b3cd75b9812,0.0731,0.0731,0,37,37,65,1,onethree,,,,,,,,,,,,,,,,,,,,,,,,,,,,,,,,,,,,,,,,,,,,,,,,,,,,,,,,,,,,,,,,,,,,,,,,,,,,,,,,,,,,,,,,,,,,,,,,,,,,,,,,,,,,,,,,,,,,,,,,,,,,,,,,,,,,,,,,,
,,672b5b677b0aacba1cf83b87,2026-03-17_12h41.30.897,kallum_motion_pilot_GIST_update_2,2026.1.1,Win32,59.17159763,672b5b677b0aacba1cf83b87,69b92ab4aef6dee357cd729a,69b92b4c58ce1b3cd75b9812,0.0737,0.0737,0,38,38,140,1,sevenfive,,,,,,,,,,,,,,,,,,,,,,,,,,,,,,,,,,,,,,,,,,,,,,,,,,,,,,,,,,,,,,,,,,,,,,,,,,,,,,,,,,,,,,,,,,,,,,,,,,,,,,,,,,,,,,,,,,,,,,,,,,,,,,,,,,,,,,,,,
,,672b5b677b0aacba1cf83b87,2026-03-17_12h41.30.897,kallum_motion_pilot_GIST_update_2,2026.1.1,Win32,59.17159763,672b5b677b0aacba1cf83b87,69b92ab4aef6dee357cd729a,69b92b4c58ce1b3cd75b9812,0.074,0.074,0,39,39,41,1,onethree,,,,,,,,,,,,,,,,,,,,,,,,,,,,,,,,,,,,,,,,,,,,,,,,,,,,,,,,,,,,,,,,,,,,,,,,,,,,,,,,,,,,,,,,,,,,,,,,,,,,,,,,,,,,,,,,,,,,,,,,,,,,,,,,,,,,,,,,,
,,672b5b677b0aacba1cf83b87,2026-03-17_12h41.30.897,kallum_motion_pilot_GIST_update_2,2026.1.1,Win32,59.17159763,672b5b677b0aacba1cf83b87,69b92ab4aef6dee357cd729a,69b92b4c58ce1b3cd75b9812,0.0746,0.0746,0,40,40,157,1,seveneight,,,,,,,,,,,,,,,,,,,,,,,,,,,,,,,,,,,,,,,,,,,,,,,,,,,,,,,,,,,,,,,,,,,,,,,,,,,,,,,,,,,,,,,,,,,,,,,,,,,,,,,,,,,,,,,,,,,,,,,,,,,,,,,,,,,,,,,,,
,,672b5b677b0aacba1cf83b87,2026-03-17_12h41.30.897,kallum_motion_pilot_GIST_update_2,2026.1.1,Win32,59.17159763,672b5b677b0aacba1cf83b87,69b92ab4aef6dee357cd729a,69b92b4c58ce1b3cd75b9812,0.075,0.075,0,41,41,102,1,eightsix,,,,,,,,,,,,,,,,,,,,,,,,,,,,,,,,,,,,,,,,,,,,,,,,,,,,,,,,,,,,,,,,,,,,,,,,,,,,,,,,,,,,,,,,,,,,,,,,,,,,,,,,,,,,,,,,,,,,,,,,,,,,,,,,,,,,,,,,,
,,672b5b677b0aacba1cf83b87,2026-03-17_12h41.30.897,kallum_motion_pilot_GIST_update_2,2026.1.1,Win32,59.17159763,672b5b677b0aacba1cf83b87,69b92ab4aef6dee357cd729a,69b92b4c58ce1b3cd75b9812,0.0755,0.0755,0,42,42,97,1,fiveseven,,,,,,,,,,,,,,,,,,,,,,,,,,,,,,,,,,,,,,,,,,,,,,,,,,,,,,,,,,,,,,,,,,,,,,,,,,,,,,,,,,,,,,,,,,,,,,,,,,,,,,,,,,,,,,,,,,,,,,,,,,,,,,,,,,,,,,,,,
,,672b5b677b0aacba1cf83b87,2026-03-17_12h41.30.897,kallum_motion_pilot_GIST_update_2,2026.1.1,Win32,59.17159763,672b5b677b0aacba1cf83b87,69b92ab4aef6dee357cd729a,69b92b4c58ce1b3cd75b9812,0.0761,0.0761,0,43,43,128,1,fivesix,,,,,,,,,,,,,,,,,,,,,,,,,,,,,,,,,,,,,,,,,,,,,,,,,,,,,,,,,,,,,,,,,,,,,,,,,,,,,,,,,,,,,,,,,,,,,,,,,,,,,,,,,,,,,,,,,,,,,,,,,,,,,,,,,,,,,,,,,
,,672b5b677b0aacba1cf83b87,2026-03-17_12h41.30.897,kallum_motion_pilot_GIST_update_2,2026.1.1,Win32,59.17159763,672b5b677b0aacba1cf83b87,69b92ab4aef6dee357cd729a,69b92b4c58ce1b3cd75b9812,0.077,0.077,0,44,44,133,1,seveneight,,,,,,,,,,,,,,,,,,,,,,,,,,,,,,,,,,,,,,,,,,,,,,,,,,,,,,,,,,,,,,,,,,,,,,,,,,,,,,,,,,,,,,,,,,,,,,,,,,,,,,,,,,,,,,,,,,,,,,,,,,,,,,,,,,,,,,,,,
,,672b5b677b0aacba1cf83b87,2026-03-17_12h41.30.897,kallum_motion_pilot_GIST_update_2,2026.1.1,Win32,59.17159763,672b5b677b0aacba1cf83b87,69b92ab4aef6dee357cd729a,69b92b4c58ce1b3cd75b9812,0.0776,0.0776,0,45,45,122,1,sixfive,,,,,,,,,,,,,,,,,,,,,,,,,,,,,,,,,,,,,,,,,,,,,,,,,,,,,,,,,,,,,,,,,,,,,,,,,,,,,,,,,,,,,,,,,,,,,,,,,,,,,,,,,,,,,,,,,,,,,,,,,,,,,,,,,,,,,,,,,
,,672b5b677b0aacba1cf83b87,2026-03-17_12h41.30.897,kallum_motion_pilot_GIST_update_2,2026.1.1,Win32,59.17159763,672b5b677b0aacba1cf83b87,69b92ab4aef6dee357cd729a,69b92b4c58ce1b3cd75b9812,0.0781,0.0781,0,46,46,28,1,threeone,,,,,,,,,,,,,,,,,,,,,,,,,,,,,,,,,,,,,,,,,,,,,,,,,,,,,,,,,,,,,,,,,,,,,,,,,,,,,,,,,,,,,,,,,,,,,,,,,,,,,,,,,,,,,,,,,,,,,,,,,,,,,,,,,,,,,,,,,
,,672b5b677b0aacba1cf83b87,2026-03-17_12h41.30.897,kallum_motion_pilot_GIST_update_2,2026.1.1,Win32,59.17159763,672b5b677b0aacba1cf83b87,69b92ab4aef6dee357cd729a,69b92b4c58ce1b3cd75b9812,0.0786,0.0786,0,47,47,19,1,twofour,,,,,,,,,,,,,,,,,,,,,,,,,,,,,,,,,,,,,,,,,,,,,,,,,,,,,,,,,,,,,,,,,,,,,,,,,,,,,,,,,,,,,,,,,,,,,,,,,,,,,,,,,,,,,,,,,,,,,,,,,,,,,,,,,,,,,,,,,
,,672b5b677b0aacba1cf83b87,2026-03-17_12h41.30.897,kallum_motion_pilot_GIST_update_2,2026.1.1,Win32,59.17159763,672b5b677b0aacba1cf83b87,69b92ab4aef6dee357cd729a,69b92b4c58ce1b3cd75b9812,0.0791,0.0791,0,48,48,154,1,sixfive,,,,,,,,,,,,,,,,,,,,,,,,,,,,,,,,,,,,,,,,,,,,,,,,,,,,,,,,,,,,,,,,,,,,,,,,,,,,,,,,,,,,,,,,,,,,,,,,,,,,,,,,,,,,,,,,,,,,,,,,,,,,,,,,,,,,,,,,,
,,672b5b677b0aacba1cf83b87,2026-03-17_12h41.30.897,kallum_motion_pilot_GIST_update_2,2026.1.1,Win32,59.17159763,672b5b677b0aacba1cf83b87,69b92ab4aef6dee357cd729a,69b92b4c58ce1b3cd75b9812,0.0809,0.0809,0,49,49,99,1,sixeight,,,,,,,,,,,,,,,,,,,,,,,,,,,,,,,,,,,,,,,,,,,,,,,,,,,,,,,,,,,,,,,,,,,,,,,,,,,,,,,,,,,,,,,,,,,,,,,,,,,,,,,,,,,,,,,,,,,,,,,,,,,,,,,,,,,,,,,,,
,,672b5b677b0aacba1cf83b87,2026-03-17_12h41.30.897,kallum_motion_pilot_GIST_update_2,2026.1.1,Win32,59.17159763,672b5b677b0aacba1cf83b87,69b92ab4aef6dee357cd729a,69b92b4c58ce1b3cd75b9812,0.0815,0.0815,0,50,50,111,1,eightseven,,,,,,,,,,,,,,,,,,,,,,,,,,,,,,,,,,,,,,,,,,,,,,,,,,,,,,,,,,,,,,,,,,,,,,,,,,,,,,,,,,,,,,,,,,,,,,,,,,,,,,,,,,,,,,,,,,,,,,,,,,,,,,,,,,,,,,,,,
,,672b5b677b0aacba1cf83b87,2026-03-17_12h41.30.897,kallum_motion_pilot_GIST_update_2,2026.1.1,Win32,59.17159763,672b5b677b0aacba1cf83b87,69b92ab4aef6dee357cd729a,69b92b4c58ce1b3cd75b9812,0.0819,0.082,0,51,51,0,1,onetwo,,,,,,,,,,,,,,,,,,,,,,,,,,,,,,,,,,,,,,,,,,,,,,,,,,,,,,,,,,,,,,,,,,,,,,,,,,,,,,,,,,,,,,,,,,,,,,,,,,,,,,,,,,,,,,,,,,,,,,,,,,,,,,,,,,,,,,,,,
,,672b5b677b0aacba1cf83b87,2026-03-17_12h41.30.897,kallum_motion_pilot_GIST_update_2,2026.1.1,Win32,59.17159763,672b5b677b0aacba1cf83b87,69b92ab4aef6dee357cd729a,69b92b4c58ce1b3cd75b9812,0.0824,0.0824,0,52,52,118,1,eightsix,,,,,,,,,,,,,,,,,,,,,,,,,,,,,,,,,,,,,,,,,,,,,,,,,,,,,,,,,,,,,,,,,,,,,,,,,,,,,,,,,,,,,,,,,,,,,,,,,,,,,,,,,,,,,,,,,,,,,,,,,,,,,,,,,,,,,,,,,
,,672b5b677b0aacba1cf83b87,2026-03-17_12h41.30.897,kallum_motion_pilot_GIST_update_2,2026.1.1,Win32,59.17159763,672b5b677b0aacba1cf83b87,69b92ab4aef6dee357cd729a,69b92b4c58ce1b3cd75b9812,0.0833,0.0833,0,53,53,93,1,seveneight,,,,,,,,,,,,,,,,,,,,,,,,,,,,,,,,,,,,,,,,,,,,,,,,,,,,,,,,,,,,,,,,,,,,,,,,,,,,,,,,,,,,,,,,,,,,,,,,,,,,,,,,,,,,,,,,,,,,,,,,,,,,,,,,,,,,,,,,,
,,672b5b677b0aacba1cf83b87,2026-03-17_12h41.30.897,kallum_motion_pilot_GIST_update_2,2026.1.1,Win32,59.17159763,672b5b677b0aacba1cf83b87,69b92ab4aef6dee357cd729a,69b92b4c58ce1b3cd75b9812,0.0837,0.0837,0,54,54,72,1,onetwo,,,,,,,,,,,,,,,,,,,,,,,,,,,,,,,,,,,,,,,,,,,,,,,,,,,,,,,,,,,,,,,,,,,,,,,,,,,,,,,,,,,,,,,,,,,,,,,,,,,,,,,,,,,,,,,,,,,,,,,,,,,,,,,,,,,,,,,,,
,,672b5b677b0aacba1cf83b87,2026-03-17_12h41.30.897,kallum_motion_pilot_GIST_update_2,2026.1.1,Win32,59.17159763,672b5b677b0aacba1cf83b87,69b92ab4aef6dee357cd729a,69b92b4c58ce1b3cd75b9812,0.0842,0.0842,0,55,55,139,1,sixeight,,,,,,,,,,,,,,,,,,,,,,,,,,,,,,,,,,,,,,,,,,,,,,,,,,,,,,,,,,,,,,,,,,,,,,,,,,,,,,,,,,,,,,,,,,,,,,,,,,,,,,,,,,,,,,,,,,,,,,,,,,,,,,,,,,,,,,,,,
,,672b5b677b0aacba1cf83b87,2026-03-17_12h41.30.897,kallum_motion_pilot_GIST_update_2,2026.1.1,Win32,59.17159763,672b5b677b0aacba1cf83b87,69b92ab4aef6dee357cd729a,69b92b4c58ce1b3cd75b9812,0.0847,0.0847,0,56,56,2,1,twoone,,,,,,,,,,,,,,,,,,,,,,,,,,,,,,,,,,,,,,,,,,,,,,,,,,,,,,,,,,,,,,,,,,,,,,,,,,,,,,,,,,,,,,,,,,,,,,,,,,,,,,,,,,,,,,,,,,,,,,,,,,,,,,,,,,,,,,,,,
,,672b5b677b0aacba1cf83b87,2026-03-17_12h41.30.897,kallum_motion_pilot_GIST_update_2,2026.1.1,Win32,59.17159763,672b5b677b0aacba1cf83b87,69b92ab4aef6dee357cd729a,69b92b4c58ce1b3cd75b9812,0.0851,0.0851,0,57,57,88,1,fivesix,,,,,,,,,,,,,,,,,,,,,,,,,,,,,,,,,,,,,,,,,,,,,,,,,,,,,,,,,,,,,,,,,,,,,,,,,,,,,,,,,,,,,,,,,,,,,,,,,,,,,,,,,,,,,,,,,,,,,,,,,,,,,,,,,,,,,,,,,
,,672b5b677b0aacba1cf83b87,2026-03-17_12h41.30.897,kallum_motion_pilot_GIST_update_2,2026.1.1,Win32,59.17159763,672b5b677b0aacba1cf83b87,69b92ab4aef6dee357cd729a,69b92b4c58ce1b3cd75b9812,0.0856,0.0857,0,58,58,120,1,fivesix,,,,,,,,,,,,,,,,,,,,,,,,,,,,,,,,,,,,,,,,,,,,,,,,,,,,,,,,,,,,,,,,,,,,,,,,,,,,,,,,,,,,,,,,,,,,,,,,,,,,,,,,,,,,,,,,,,,,,,,,,,,,,,,,,,,,,,,,,
,,672b5b677b0aacba1cf83b87,2026-03-17_12h41.30.897,kallum_motion_pilot_GIST_update_2,2026.1.1,Win32,59.17159763,672b5b677b0aacba1cf83b87,69b92ab4aef6dee357cd729a,69b92b4c58ce1b3cd75b9812,0.0861,0.0861,0,59,59,38,1,fourtwo,,,,,,,,,,,,,,,,,,,,,,,,,,,,,,,,,,,,,,,,,,,,,,,,,,,,,,,,,,,,,,,,,,,,,,,,,,,,,,,,,,,,,,,,,,,,,,,,,,,,,,,,,,,,,,,,,,,,,,,,,,,,,,,,,,,,,,,,,
,,672b5b677b0aacba1cf83b87,2026-03-17_12h41.30.897,kallum_motion_pilot_GIST_update_2,2026.1.1,Win32,59.17159763,672b5b677b0aacba1cf83b87,69b92ab4aef6dee357cd729a,69b92b4c58ce1b3cd75b9812,0.0866,0.0868,0,60,60,144,1,fivesix,,,,,,,,,,,,,,,,,,,,,,,,,,,,,,,,,,,,,,,,,,,,,,,,,,,,,,,,,,,,,,,,,,,,,,,,,,,,,,,,,,,,,,,,,,,,,,,,,,,,,,,,,,,,,,,,,,,,,,,,,,,,,,,,,,,,,,,,,
,,672b5b677b0aacba1cf83b87,2026-03-17_12h41.30.897,kallum_motion_pilot_GIST_update_2,2026.1.1,Win32,59.17159763,672b5b677b0aacba1cf83b87,69b92ab4aef6dee357cd729a,69b92b4c58ce1b3cd75b9812,0.0875,0.0875,0,61,61,106,1,sixfive,,,,,,,,,,,,,,,,,,,,,,,,,,,,,,,,,,,,,,,,,,,,,,,,,,,,,,,,,,,,,,,,,,,,,,,,,,,,,,,,,,,,,,,,,,,,,,,,,,,,,,,,,,,,,,,,,,,,,,,,,,,,,,,,,,,,,,,,,
,,672b5b677b0aacba1cf83b87,2026-03-17_12h41.30.897,kallum_motion_pilot_GIST_update_2,2026.1.1,Win32,59.17159763,672b5b677b0aacba1cf83b87,69b92ab4aef6dee357cd729a,69b92b4c58ce1b3cd75b9812,0.0881,0.0881,0,62,62,115,1,sixeight,,,,,,,,,,,,,,,,,,,,,,,,,,,,,,,,,,,,,,,,,,,,,,,,,,,,,,,,,,,,,,,,,,,,,,,,,,,,,,,,,,,,,,,,,,,,,,,,,,,,,,,,,,,,,,,,,,,,,,,,,,,,,,,,,,,,,,,,,
,,672b5b677b0aacba1cf83b87,2026-03-17_12h41.30.897,kallum_motion_pilot_GIST_update_2,2026.1.1,Win32,59.17159763,672b5b677b0aacba1cf83b87,69b92ab4aef6dee357cd729a,69b92b4c58ce1b3cd75b9812,0.0884,0.0884,0,63,63,25,1,onethree,,,,,,,,,,,,,,,,,,,,,,,,,,,,,,,,,,,,,,,,,,,,,,,,,,,,,,,,,,,,,,,,,,,,,,,,,,,,,,,,,,,,,,,,,,,,,,,,,,,,,,,,,,,,,,,,,,,,,,,,,,,,,,,,,,,,,,,,,
,,672b5b677b0aacba1cf83b87,2026-03-17_12h41.30.897,kallum_motion_pilot_GIST_update_2,2026.1.1,Win32,59.17159763,672b5b677b0aacba1cf83b87,69b92ab4aef6dee357cd729a,69b92b4c58ce1b3cd75b9812,0.0889,0.0889,0,64,64,11,1,twofour,,,,,,,,,,,,,,,,,,,,,,,,,,,,,,,,,,,,,,,,,,,,,,,,,,,,,,,,,,,,,,,,,,,,,,,,,,,,,,,,,,,,,,,,,,,,,,,,,,,,,,,,,,,,,,,,,,,,,,,,,,,,,,,,,,,,,,,,,
,,672b5b677b0aacba1cf83b87,2026-03-17_12h41.30.897,kallum_motion_pilot_GIST_update_2,2026.1.1,Win32,59.17159763,672b5b677b0aacba1cf83b87,69b92ab4aef6dee357cd729a,69b92b4c58ce1b3cd75b9812,0.0893,0.0893,0,65,65,40,1,onetwo,,,,,,,,,,,,,,,,,,,,,,,,,,,,,,,,,,,,,,,,,,,,,,,,,,,,,,,,,,,,,,,,,,,,,,,,,,,,,,,,,,,,,,,,,,,,,,,,,,,,,,,,,,,,,,,,,,,,,,,,,,,,,,,,,,,,,,,,,
,,672b5b677b0aacba1cf83b87,2026-03-17_12h41.30.897,kallum_motion_pilot_GIST_update_2,2026.1.1,Win32,59.17159763,672b5b677b0aacba1cf83b87,69b92ab4aef6dee357cd729a,69b92b4c58ce1b3cd75b9812,0.0898,0.0899,0,66,66,123,1,sixeight,,,,,,,,,,,,,,,,,,,,,,,,,,,,,,,,,,,,,,,,,,,,,,,,,,,,,,,,,,,,,,,,,,,,,,,,,,,,,,,,,,,,,,,,,,,,,,,,,,,,,,,,,,,,,,,,,,,,,,,,,,,,,,,,,,,,,,,,,
,,672b5b677b0aacba1cf83b87,2026-03-17_12h41.30.897,kallum_motion_pilot_GIST_update_2,2026.1.1,Win32,59.17159763,672b5b677b0aacba1cf83b87,69b92ab4aef6dee357cd729a,69b92b4c58ce1b3cd75b9812,0.0903,0.0903,0,67,67,63,1,fourthree,,,,,,,,,,,,,,,,,,,,,,,,,,,,,,,,,,,,,,,,,,,,,,,,,,,,,,,,,,,,,,,,,,,,,,,,,,,,,,,,,,,,,,,,,,,,,,,,,,,,,,,,,,,,,,,,,,,,,,,,,,,,,,,,,,,,,,,,,
,,672b5b677b0aacba1cf83b87,2026-03-17_12h41.30.897,kallum_motion_pilot_GIST_update_2,2026.1.1,Win32,59.17159763,672b5b677b0aacba1cf83b87,69b92ab4aef6dee357cd729a,69b92b4c58ce1b3cd75b9812,0.0908,0.0909,0,68,68,34,1,twoone,,,,,,,,,,,,,,,,,,,,,,,,,,,,,,,,,,,,,,,,,,,,,,,,,,,,,,,,,,,,,,,,,,,,,,,,,,,,,,,,,,,,,,,,,,,,,,,,,,,,,,,,,,,,,,,,,,,,,,,,,,,,,,,,,,,,,,,,,
,,672b5b677b0aacba1cf83b87,2026-03-17_12h41.30.897,kallum_motion_pilot_GIST_update_2,2026.1.1,Win32,59.17159763,672b5b677b0aacba1cf83b87,69b92ab4aef6dee357cd729a,69b92b4c58ce1b3cd75b9812,0.0917,0.0917,0,69,69,110,1,eightsix,,,,,,,,,,,,,,,,,,,,,,,,,,,,,,,,,,,,,,,,,,,,,,,,,,,,,,,,,,,,,,,,,,,,,,,,,,,,,,,,,,,,,,,,,,,,,,,,,,,,,,,,,,,,,,,,,,,,,,,,,,,,,,,,,,,,,,,,,
,,672b5b677b0aacba1cf83b87,2026-03-17_12h41.30.897,kallum_motion_pilot_GIST_update_2,2026.1.1,Win32,59.17159763,672b5b677b0aacba1cf83b87,69b92ab4aef6dee357cd729a,69b92b4c58ce1b3cd75b9812,0.0922,0.0923,0,70,70,55,1,fourthree,,,,,,,,,,,,,,,,,,,,,,,,,,,,,,,,,,,,,,,,,,,,,,,,,,,,,,,,,,,,,,,,,,,,,,,,,,,,,,,,,,,,,,,,,,,,,,,,,,,,,,,,,,,,,,,,,,,,,,,,,,,,,,,,,,,,,,,,,
,,672b5b677b0aacba1cf83b87,2026-03-17_12h41.30.897,kallum_motion_pilot_GIST_update_2,2026.1.1,Win32,59.17159763,672b5b677b0aacba1cf83b87,69b92ab4aef6dee357cd729a,69b92b4c58ce1b3cd75b9812,0.0928,0.0928,0,71,71,100,1,sevenfive,,,,,,,,,,,,,,,,,,,,,,,,,,,,,,,,,,,,,,,,,,,,,,,,,,,,,,,,,,,,,,,,,,,,,,,,,,,,,,,,,,,,,,,,,,,,,,,,,,,,,,,,,,,,,,,,,,,,,,,,,,,,,,,,,,,,,,,,,
,,672b5b677b0aacba1cf83b87,2026-03-17_12h41.30.897,kallum_motion_pilot_GIST_update_2,2026.1.1,Win32,59.17159763,672b5b677b0aacba1cf83b87,69b92ab4aef6dee357cd729a,69b92b4c58ce1b3cd75b9812,0.0933,0.0934,0,72,72,51,1,twofour,,,,,,,,,,,,,,,,,,,,,,,,,,,,,,,,,,,,,,,,,,,,,,,,,,,,,,,,,,,,,,,,,,,,,,,,,,,,,,,,,,,,,,,,,,,,,,,,,,,,,,,,,,,,,,,,,,,,,,,,,,,,,,,,,,,,,,,,,
,,672b5b677b0aacba1cf83b87,2026-03-17_12h41.30.897,kallum_motion_pilot_GIST_update_2,2026.1.1,Win32,59.17159763,672b5b677b0aacba1cf83b87,69b92ab4aef6dee357cd729a,69b92b4c58ce1b3cd75b9812,0.0938,0.0938,0,73,73,78,1,fourtwo,,,,,,,,,,,,,,,,,,,,,,,,,,,,,,,,,,,,,,,,,,,,,,,,,,,,,,,,,,,,,,,,,,,,,,,,,,,,,,,,,,,,,,,,,,,,,,,,,,,,,,,,,,,,,,,,,,,,,,,,,,,,,,,,,,,,,,,,,
,,672b5b677b0aacba1cf83b87,2026-03-17_12h41.30.897,kallum_motion_pilot_GIST_update_2,2026.1.1,Win32,59.17159763,672b5b677b0aacba1cf83b87,69b92ab4aef6dee357cd729a,69b92b4c58ce1b3cd75b9812,0.0942,0.0943,0,74,74,31,1,fourthree,,,,,,,,,,,,,,,,,,,,,,,,,,,,,,,,,,,,,,,,,,,,,,,,,,,,,,,,,,,,,,,,,,,,,,,,,,,,,,,,,,,,,,,,,,,,,,,,,,,,,,,,,,,,,,,,,,,,,,,,,,,,,,,,,,,,,,,,,
,,672b5b677b0aacba1cf83b87,2026-03-17_12h41.30.897,kallum_motion_pilot_GIST_update_2,2026.1.1,Win32,59.17159763,672b5b677b0aacba1cf83b87,69b92ab4aef6dee357cd729a,69b92b4c58ce1b3cd75b9812,0.0946,0.0947,0,75,75,124,1,sevenfive,,,,,,,,,,,,,,,,,,,,,,,,,,,,,,,,,,,,,,,,,,,,,,,,,,,,,,,,,,,,,,,,,,,,,,,,,,,,,,,,,,,,,,,,,,,,,,,,,,,,,,,,,,,,,,,,,,,,,,,,,,,,,,,,,,,,,,,,,
,,672b5b677b0aacba1cf83b87,2026-03-17_12h41.30.897,kallum_motion_pilot_GIST_update_2,2026.1.1,Win32,59.17159763,672b5b677b0aacba1cf83b87,69b92ab4aef6dee357cd729a,69b92b4c58ce1b3cd75b9812,0.0951,0.0952,0,76,76,159,1,eightseven,,,,,,,,,,,,,,,,,,,,,,,,,,,,,,,,,,,,,,,,,,,,,,,,,,,,,,,,,,,,,,,,,,,,,,,,,,,,,,,,,,,,,,,,,,,,,,,,,,,,,,,,,,,,,,,,,,,,,,,,,,,,,,,,,,,,,,,,,
,,672b5b677b0aacba1cf83b87,2026-03-17_12h41.30.897,kallum_motion_pilot_GIST_update_2,2026.1.1,Win32,59.17159763,672b5b677b0aacba1cf83b87,69b92ab4aef6dee357cd729a,69b92b4c58ce1b3cd75b9812,0.0955,0.0956,0,77,77,116,1,sevenfive,,,,,,,,,,,,,,,,,,,,,,,,,,,,,,,,,,,,,,,,,,,,,,,,,,,,,,,,,,,,,,,,,,,,,,,,,,,,,,,,,,,,,,,,,,,,,,,,,,,,,,,,,,,,,,,,,,,,,,,,,,,,,,,,,,,,,,,,,
,,672b5b677b0aacba1cf83b87,2026-03-17_12h41.30.897,kallum_motion_pilot_GIST_update_2,2026.1.1,Win32,59.17159763,672b5b677b0aacba1cf83b87,69b92ab4aef6dee357cd729a,69b92b4c58ce1b3cd75b9812,0.0975,0.0975,0,78,78,108,1,sevenfive,,,,,,,,,,,,,,,,,,,,,,,,,,,,,,,,,,,,,,,,,,,,,,,,,,,,,,,,,,,,,,,,,,,,,,,,,,,,,,,,,,,,,,,,,,,,,,,,,,,,,,,,,,,,,,,,,,,,,,,,,,,,,,,,,,,,,,,,,
,,672b5b677b0aacba1cf83b87,2026-03-17_12h41.30.897,kallum_motion_pilot_GIST_update_2,2026.1.1,Win32,59.17159763,672b5b677b0aacba1cf83b87,69b92ab4aef6dee357cd729a,69b92b4c58ce1b3cd75b9812,0.0985,0.0985,0,79,79,107,1,sixeight,,,,,,,,,,,,,,,,,,,,,,,,,,,,,,,,,,,,,,,,,,,,,,,,,,,,,,,,,,,,,,,,,,,,,,,,,,,,,,,,,,,,,,,,,,,,,,,,,,,,,,,,,,,,,,,,,,,,,,,,,,,,,,,,,,,,,,,,,
,,672b5b677b0aacba1cf83b87,2026-03-17_12h41.30.897,kallum_motion_pilot_GIST_update_2,2026.1.1,Win32,59.17159763,672b5b677b0aacba1cf83b87,69b92ab4aef6dee357cd729a,69b92b4c58ce1b3cd75b9812,0.0989,0.099,0,80,80,30,1,fourtwo,,,,,,,,,,,,,,,,,,,,,,,,,,,,,,,,,,,,,,,,,,,,,,,,,,,,,,,,,,,,,,,,,,,,,,,,,,,,,,,,,,,,,,,,,,,,,,,,,,,,,,,,,,,,,,,,,,,,,,,,,,,,,,,,,,,,,,,,,
,,672b5b677b0aacba1cf83b87,2026-03-17_12h41.30.897,kallum_motion_pilot_GIST_update_2,2026.1.1,Win32,59.17159763,672b5b677b0aacba1cf83b87,69b92ab4aef6dee357cd729a,69b92b4c58ce1b3cd75b9812,0.0993,0.0994,0,81,81,9,1,onethree,,,,,,,,,,,,,,,,,,,,,,,,,,,,,,,,,,,,,,,,,,,,,,,,,,,,,,,,,,,,,,,,,,,,,,,,,,,,,,,,,,,,,,,,,,,,,,,,,,,,,,,,,,,,,,,,,,,,,,,,,,,,,,,,,,,,,,,,,
,,672b5b677b0aacba1cf83b87,2026-03-17_12h41.30.897,kallum_motion_pilot_GIST_update_2,2026.1.1,Win32,59.17159763,672b5b677b0aacba1cf83b87,69b92ab4aef6dee357cd729a,69b92b4c58ce1b3cd75b9812,0.0998,0.0998,0,82,82,6,1,fourtwo,,,,,,,,,,,,,,,,,,,,,,,,,,,,,,,,,,,,,,,,,,,,,,,,,,,,,,,,,,,,,,,,,,,,,,,,,,,,,,,,,,,,,,,,,,,,,,,,,,,,,,,,,,,,,,,,,,,,,,,,,,,,,,,,,,,,,,,,,
,,672b5b677b0aacba1cf83b87,2026-03-17_12h41.30.897,kallum_motion_pilot_GIST_update_2,2026.1.1,Win32,59.17159763,672b5b677b0aacba1cf83b87,69b92ab4aef6dee357cd729a,69b92b4c58ce1b3cd75b9812,0.1003,0.1003,0,83,83,89,1,fiveseven,,,,,,,,,,,,,,,,,,,,,,,,,,,,,,,,,,,,,,,,,,,,,,,,,,,,,,,,,,,,,,,,,,,,,,,,,,,,,,,,,,,,,,,,,,,,,,,,,,,,,,,,,,,,,,,,,,,,,,,,,,,,,,,,,,,,,,,,,
,,672b5b677b0aacba1cf83b87,2026-03-17_12h41.30.897,kallum_motion_pilot_GIST_update_2,2026.1.1,Win32,59.17159763,672b5b677b0aacba1cf83b87,69b92ab4aef6dee357cd729a,69b92b4c58ce1b3cd75b9812,0.1008,0.1008,0,84,84,50,1,twoone,,,,,,,,,,,,,,,,,,,,,,,,,,,,,,,,,,,,,,,,,,,,,,,,,,,,,,,,,,,,,,,,,,,,,,,,,,,,,,,,,,,,,,,,,,,,,,,,,,,,,,,,,,,,,,,,,,,,,,,,,,,,,,,,,,,,,,,,,
,,672b5b677b0aacba1cf83b87,2026-03-17_12h41.30.897,kallum_motion_pilot_GIST_update_2,2026.1.1,Win32,59.17159763,672b5b677b0aacba1cf83b87,69b92ab4aef6dee357cd729a,69b92b4c58ce1b3cd75b9812,0.1012,0.1013,0,85,85,58,1,twoone,,,,,,,,,,,,,,,,,,,,,,,,,,,,,,,,,,,,,,,,,,,,,,,,,,,,,,,,,,,,,,,,,,,,,,,,,,,,,,,,,,,,,,,,,,,,,,,,,,,,,,,,,,,,,,,,,,,,,,,,,,,,,,,,,,,,,,,,,
,,672b5b677b0aacba1cf83b87,2026-03-17_12h41.30.897,kallum_motion_pilot_GIST_update_2,2026.1.1,Win32,59.17159763,672b5b677b0aacba1cf83b87,69b92ab4aef6dee357cd729a,69b92b4c58ce1b3cd75b9812,0.1017,0.1018,0,86,86,70,1,fourtwo,,,,,,,,,,,,,,,,,,,,,,,,,,,,,,,,,,,,,,,,,,,,,,,,,,,,,,,,,,,,,,,,,,,,,,,,,,,,,,,,,,,,,,,,,,,,,,,,,,,,,,,,,,,,,,,,,,,,,,,,,,,,,,,,,,,,,,,,,
,,672b5b677b0aacba1cf83b87,2026-03-17_12h41.30.897,kallum_motion_pilot_GIST_update_2,2026.1.1,Win32,59.17159763,672b5b677b0aacba1cf83b87,69b92ab4aef6dee357cd729a,69b92b4c58ce1b3cd75b9812,0.1022,0.1022,0,87,87,129,1,fiveseven,,,,,,,,,,,,,,,,,,,,,,,,,,,,,,,,,,,,,,,,,,,,,,,,,,,,,,,,,,,,,,,,,,,,,,,,,,,,,,,,,,,,,,,,,,,,,,,,,,,,,,,,,,,,,,,,,,,,,,,,,,,,,,,,,,,,,,,,,
,,672b5b677b0aacba1cf83b87,2026-03-17_12h41.30.897,kallum_motion_pilot_GIST_update_2,2026.1.1,Win32,59.17159763,672b5b677b0aacba1cf83b87,69b92ab4aef6dee357cd729a,69b92b4c58ce1b3cd75b9812,0.1031,0.1031,0,88,88,90,1,sixfive,,,,,,,,,,,,,,,,,,,,,,,,,,,,,,,,,,,,,,,,,,,,,,,,,,,,,,,,,,,,,,,,,,,,,,,,,,,,,,,,,,,,,,,,,,,,,,,,,,,,,,,,,,,,,,,,,,,,,,,,,,,,,,,,,,,,,,,,,
,,672b5b677b0aacba1cf83b87,2026-03-17_12h41.30.897,kallum_motion_pilot_GIST_update_2,2026.1.1,Win32,59.17159763,672b5b677b0aacba1cf83b87,69b92ab4aef6dee357cd729a,69b92b4c58ce1b3cd75b9812,0.1039,0.1039,0,89,89,121,1,fiveseven,,,,,,,,,,,,,,,,,,,,,,,,,,,,,,,,,,,,,,,,,,,,,,,,,,,,,,,,,,,,,,,,,,,,,,,,,,,,,,,,,,,,,,,,,,,,,,,,,,,,,,,,,,,,,,,,,,,,,,,,,,,,,,,,,,,,,,,,,
,,672b5b677b0aacba1cf83b87,2026-03-17_12h41.30.897,kallum_motion_pilot_GIST_update_2,2026.1.1,Win32,59.17159763,672b5b677b0aacba1cf83b87,69b92ab4aef6dee357cd729a,69b92b4c58ce1b3cd75b9812,0.1044,0.1044,0,90,90,22,1,fourtwo,,,,,,,,,,,,,,,,,,,,,,,,,,,,,,,,,,,,,,,,,,,,,,,,,,,,,,,,,,,,,,,,,,,,,,,,,,,,,,,,,,,,,,,,,,,,,,,,,,,,,,,,,,,,,,,,,,,,,,,,,,,,,,,,,,,,,,,,,
,,672b5b677b0aacba1cf83b87,2026-03-17_12h41.30.897,kallum_motion_pilot_GIST_update_2,2026.1.1,Win32,59.17159763,672b5b677b0aacba1cf83b87,69b92ab4aef6dee357cd729a,69b92b4c58ce1b3cd75b9812,0.1049,0.1049,0,91,91,134,1,eightsix,,,,,,,,,,,,,,,,,,,,,,,,,,,,,,,,,,,,,,,,,,,,,,,,,,,,,,,,,,,,,,,,,,,,,,,,,,,,,,,,,,,,,,,,,,,,,,,,,,,,,,,,,,,,,,,,,,,,,,,,,,,,,,,,,,,,,,,,,
,,672b5b677b0aacba1cf83b87,2026-03-17_12h41.30.897,kallum_motion_pilot_GIST_update_2,2026.1.1,Win32,59.17159763,672b5b677b0aacba1cf83b87,69b92ab4aef6dee357cd729a,69b92b4c58ce1b3cd75b9812,0.1055,0.1055,0,92,92,71,1,fourthree,,,,,,,,,,,,,,,,,,,,,,,,,,,,,,,,,,,,,,,,,,,,,,,,,,,,,,,,,,,,,,,,,,,,,,,,,,,,,,,,,,,,,,,,,,,,,,,,,,,,,,,,,,,,,,,,,,,,,,,,,,,,,,,,,,,,,,,,,
,,672b5b677b0aacba1cf83b87,2026-03-17_12h41.30.897,kallum_motion_pilot_GIST_update_2,2026.1.1,Win32,59.17159763,672b5b677b0aacba1cf83b87,69b92ab4aef6dee357cd729a,69b92b4c58ce1b3cd75b9812,0.106,0.1061,0,93,93,151,1,eightseven,,,,,,,,,,,,,,,,,,,,,,,,,,,,,,,,,,,,,,,,,,,,,,,,,,,,,,,,,,,,,,,,,,,,,,,,,,,,,,,,,,,,,,,,,,,,,,,,,,,,,,,,,,,,,,,,,,,,,,,,,,,,,,,,,,,,,,,,,
,,672b5b677b0aacba1cf83b87,2026-03-17_12h41.30.897,kallum_motion_pilot_GIST_update_2,2026.1.1,Win32,59.17159763,672b5b677b0aacba1cf83b87,69b92ab4aef6dee357cd729a,69b92b4c58ce1b3cd75b9812,0.1068,0.1068,0,94,94,132,1,sevenfive,,,,,,,,,,,,,,,,,,,,,,,,,,,,,,,,,,,,,,,,,,,,,,,,,,,,,,,,,,,,,,,,,,,,,,,,,,,,,,,,,,,,,,,,,,,,,,,,,,,,,,,,,,,,,,,,,,,,,,,,,,,,,,,,,,,,,,,,,
,,672b5b677b0aacba1cf83b87,2026-03-17_12h41.30.897,kallum_motion_pilot_GIST_update_2,2026.1.1,Win32,59.17159763,672b5b677b0aacba1cf83b87,69b92ab4aef6dee357cd729a,69b92b4c58ce1b3cd75b9812,0.1075,0.1075,0,95,95,8,1,onetwo,,,,,,,,,,,,,,,,,,,,,,,,,,,,,,,,,,,,,,,,,,,,,,,,,,,,,,,,,,,,,,,,,,,,,,,,,,,,,,,,,,,,,,,,,,,,,,,,,,,,,,,,,,,,,,,,,,,,,,,,,,,,,,,,,,,,,,,,,
,,672b5b677b0aacba1cf83b87,2026-03-17_12h41.30.897,kallum_motion_pilot_GIST_update_2,2026.1.1,Win32,59.17159763,672b5b677b0aacba1cf83b87,69b92ab4aef6dee357cd729a,69b92b4c58ce1b3cd75b9812,0.1081,0.1081,0,96,96,36,1,threeone,,,,,,,,,,,,,,,,,,,,,,,,,,,,,,,,,,,,,,,,,,,,,,,,,,,,,,,,,,,,,,,,,,,,,,,,,,,,,,,,,,,,,,,,,,,,,,,,,,,,,,,,,,,,,,,,,,,,,,,,,,,,,,,,,,,,,,,,,
,,672b5b677b0aacba1cf83b87,2026-03-17_12h41.30.897,kallum_motion_pilot_GIST_update_2,2026.1.1,Win32,59.17159763,672b5b677b0aacba1cf83b87,69b92ab4aef6dee357cd729a,69b92b4c58ce1b3cd75b9812,0.1087,0.1087,0,97,97,127,1,eightseven,,,,,,,,,,,,,,,,,,,,,,,,,,,,,,,,,,,,,,,,,,,,,,,,,,,,,,,,,,,,,,,,,,,,,,,,,,,,,,,,,,,,,,,,,,,,,,,,,,,,,,,,,,,,,,,,,,,,,,,,,,,,,,,,,,,,,,,,,
,,672b5b677b0aacba1cf83b87,2026-03-17_12h41.30.897,kallum_motion_pilot_GIST_update_2,2026.1.1,Win32,59.17159763,672b5b677b0aacba1cf83b87,69b92ab4aef6dee357cd729a,69b92b4c58ce1b3cd75b9812,0.1094,0.1094,0,98,98,117,1,seveneight,,,,,,,,,,,,,,,,,,,,,,,,,,,,,,,,,,,,,,,,,,,,,,,,,,,,,,,,,,,,,,,,,,,,,,,,,,,,,,,,,,,,,,,,,,,,,,,,,,,,,,,,,,,,,,,,,,,,,,,,,,,,,,,,,,,,,,,,,
,,672b5b677b0aacba1cf83b87,2026-03-17_12h41.30.897,kallum_motion_pilot_GIST_update_2,2026.1.1,Win32,59.17159763,672b5b677b0aacba1cf83b87,69b92ab4aef6dee357cd729a,69b92b4c58ce1b3cd75b9812,0.1102,0.1102,0,99,99,26,1,twoone,,,,,,,,,,,,,,,,,,,,,,,,,,,,,,,,,,,,,,,,,,,,,,,,,,,,,,,,,,,,,,,,,,,,,,,,,,,,,,,,,,,,,,,,,,,,,,,,,,,,,,,,,,,,,,,,,,,,,,,,,,,,,,,,,,,,,,,,,
,,672b5b677b0aacba1cf83b87,2026-03-17_12h41.30.897,kallum_motion_pilot_GIST_update_2,2026.1.1,Win32,59.17159763,672b5b677b0aacba1cf83b87,69b92ab4aef6dee357cd729a,69b92b4c58ce1b3cd75b9812,0.1108,0.1108,0,100,100,59,1,twofour,,,,,,,,,,,,,,,,,,,,,,,,,,,,,,,,,,,,,,,,,,,,,,,,,,,,,,,,,,,,,,,,,,,,,,,,,,,,,,,,,,,,,,,,,,,,,,,,,,,,,,,,,,,,,,,,,,,,,,,,,,,,,,,,,,,,,,,,,
,,672b5b677b0aacba1cf83b87,2026-03-17_12h41.30.897,kallum_motion_pilot_GIST_update_2,2026.1.1,Win32,59.17159763,672b5b677b0aacba1cf83b87,69b92ab4aef6dee357cd729a,69b92b4c58ce1b3cd75b9812,0.1113,0.1113,0,101,101,46,1,fourtwo,,,,,,,,,,,,,,,,,,,,,,,,,,,,,,,,,,,,,,,,,,,,,,,,,,,,,,,,,,,,,,,,,,,,,,,,,,,,,,,,,,,,,,,,,,,,,,,,,,,,,,,,,,,,,,,,,,,,,,,,,,,,,,,,,,,,,,,,,
,,672b5b677b0aacba1cf83b87,2026-03-17_12h41.30.897,kallum_motion_pilot_GIST_update_2,2026.1.1,Win32,59.17159763,672b5b677b0aacba1cf83b87,69b92ab4aef6dee357cd729a,69b92b4c58ce1b3cd75b9812,0.1117,0.1117,0,102,102,16,1,onetwo,,,,,,,,,,,,,,,,,,,,,,,,,,,,,,,,,,,,,,,,,,,,,,,,,,,,,,,,,,,,,,,,,,,,,,,,,,,,,,,,,,,,,,,,,,,,,,,,,,,,,,,,,,,,,,,,,,,,,,,,,,,,,,,,,,,,,,,,,
,,672b5b677b0aacba1cf83b87,2026-03-17_12h41.30.897,kallum_motion_pilot_GIST_update_2,2026.1.1,Win32,59.17159763,672b5b677b0aacba1cf83b87,69b92ab4aef6dee357cd729a,69b92b4c58ce1b3cd75b9812,0.1122,0.1122,0,103,103,39,1,fourthree,,,,,,,,,,,,,,,,,,,,,,,,,,,,,,,,,,,,,,,,,,,,,,,,,,,,,,,,,,,,,,,,,,,,,,,,,,,,,,,,,,,,,,,,,,,,,,,,,,,,,,,,,,,,,,,,,,,,,,,,,,,,,,,,,,,,,,,,,
,,672b5b677b0aacba1cf83b87,2026-03-17_12h41.30.897,kallum_motion_pilot_GIST_update_2,2026.1.1,Win32,59.17159763,672b5b677b0aacba1cf83b87,69b92ab4aef6dee357cd729a,69b92b4c58ce1b3cd75b9812,0.1138,0.1138,0,104,104,7,1,fourthree,,,,,,,,,,,,,,,,,,,,,,,,,,,,,,,,,,,,,,,,,,,,,,,,,,,,,,,,,,,,,,,,,,,,,,,,,,,,,,,,,,,,,,,,,,,,,,,,,,,,,,,,,,,,,,,,,,,,,,,,,,,,,,,,,,,,,,,,,
,,672b5b677b0aacba1cf83b87,2026-03-17_12h41.30.897,kallum_motion_pilot_GIST_update_2,2026.1.1,Win32,59.17159763,672b5b677b0aacba1cf83b87,69b92ab4aef6dee357cd729a,69b92b4c58ce1b3cd75b9812,0.1159,0.1159,0,105,105,104,1,fivesix,,,,,,,,,,,,,,,,,,,,,,,,,,,,,,,,,,,,,,,,,,,,,,,,,,,,,,,,,,,,,,,,,,,,,,,,,,,,,,,,,,,,,,,,,,,,,,,,,,,,,,,,,,,,,,,,,,,,,,,,,,,,,,,,,,,,,,,,,
,,672b5b677b0aacba1cf83b87,2026-03-17_12h41.30.897,kallum_motion_pilot_GIST_update_2,2026.1.1,Win32,59.17159763,672b5b677b0aacba1cf83b87,69b92ab4aef6dee357cd729a,69b92b4c58ce1b3cd75b9812,0.1165,0.1165,0,106,106,136,1,fivesix,,,,,,,,,,,,,,,,,,,,,,,,,,,,,,,,,,,,,,,,,,,,,,,,,,,,,,,,,,,,,,,,,,,,,,,,,,,,,,,,,,,,,,,,,,,,,,,,,,,,,,,,,,,,,,,,,,,,,,,,,,,,,,,,,,,,,,,,,
,,672b5b677b0aacba1cf83b87,2026-03-17_12h41.30.897,kallum_motion_pilot_GIST_update_2,2026.1.1,Win32,59.17159763,672b5b677b0aacba1cf83b87,69b92ab4aef6dee357cd729a,69b92b4c58ce1b3cd75b9812,0.1175,0.1175,0,107,107,21,1,threefour,,,,,,,,,,,,,,,,,,,,,,,,,,,,,,,,,,,,,,,,,,,,,,,,,,,,,,,,,,,,,,,,,,,,,,,,,,,,,,,,,,,,,,,,,,,,,,,,,,,,,,,,,,,,,,,,,,,,,,,,,,,,,,,,,,,,,,,,,
,,672b5b677b0aacba1cf83b87,2026-03-17_12h41.30.897,kallum_motion_pilot_GIST_update_2,2026.1.1,Win32,59.17159763,672b5b677b0aacba1cf83b87,69b92ab4aef6dee357cd729a,69b92b4c58ce1b3cd75b9812,0.118,0.1181,0,108,108,150,1,eightsix,,,,,,,,,,,,,,,,,,,,,,,,,,,,,,,,,,,,,,,,,,,,,,,,,,,,,,,,,,,,,,,,,,,,,,,,,,,,,,,,,,,,,,,,,,,,,,,,,,,,,,,,,,,,,,,,,,,,,,,,,,,,,,,,,,,,,,,,,
,,672b5b677b0aacba1cf83b87,2026-03-17_12h41.30.897,kallum_motion_pilot_GIST_update_2,2026.1.1,Win32,59.17159763,672b5b677b0aacba1cf83b87,69b92ab4aef6dee357cd729a,69b92b4c58ce1b3cd75b9812,0.1185,0.1185,0,109,109,125,1,seveneight,,,,,,,,,,,,,,,,,,,,,,,,,,,,,,,,,,,,,,,,,,,,,,,,,,,,,,,,,,,,,,,,,,,,,,,,,,,,,,,,,,,,,,,,,,,,,,,,,,,,,,,,,,,,,,,,,,,,,,,,,,,,,,,,,,,,,,,,,
,,672b5b677b0aacba1cf83b87,2026-03-17_12h41.30.897,kallum_motion_pilot_GIST_update_2,2026.1.1,Win32,59.17159763,672b5b677b0aacba1cf83b87,69b92ab4aef6dee357cd729a,69b92b4c58ce1b3cd75b9812,0.119,0.119,0,110,110,86,1,eightsix,,,,,,,,,,,,,,,,,,,,,,,,,,,,,,,,,,,,,,,,,,,,,,,,,,,,,,,,,,,,,,,,,,,,,,,,,,,,,,,,,,,,,,,,,,,,,,,,,,,,,,,,,,,,,,,,,,,,,,,,,,,,,,,,,,,,,,,,,
,,672b5b677b0aacba1cf83b87,2026-03-17_12h41.30.897,kallum_motion_pilot_GIST_update_2,2026.1.1,Win32,59.17159763,672b5b677b0aacba1cf83b87,69b92ab4aef6dee357cd729a,69b92b4c58ce1b3cd75b9812,0.1194,0.1194,0,111,111,67,1,twofour,,,,,,,,,,,,,,,,,,,,,,,,,,,,,,,,,,,,,,,,,,,,,,,,,,,,,,,,,,,,,,,,,,,,,,,,,,,,,,,,,,,,,,,,,,,,,,,,,,,,,,,,,,,,,,,,,,,,,,,,,,,,,,,,,,,,,,,,,
,,672b5b677b0aacba1cf83b87,2026-03-17_12h41.30.897,kallum_motion_pilot_GIST_update_2,2026.1.1,Win32,59.17159763,672b5b677b0aacba1cf83b87,69b92ab4aef6dee357cd729a,69b92b4c58ce1b3cd75b9812,0.12,0.12,0,112,112,56,1,onetwo,,,,,,,,,,,,,,,,,,,,,,,,,,,,,,,,,,,,,,,,,,,,,,,,,,,,,,,,,,,,,,,,,,,,,,,,,,,,,,,,,,,,,,,,,,,,,,,,,,,,,,,,,,,,,,,,,,,,,,,,,,,,,,,,,,,,,,,,,
,,672b5b677b0aacba1cf83b87,2026-03-17_12h41.30.897,kallum_motion_pilot_GIST_update_2,2026.1.1,Win32,59.17159763,672b5b677b0aacba1cf83b87,69b92ab4aef6dee357cd729a,69b92b4c58ce1b3cd75b9812,0.1205,0.1205,0,113,113,77,1,threefour,,,,,,,,,,,,,,,,,,,,,,,,,,,,,,,,,,,,,,,,,,,,,,,,,,,,,,,,,,,,,,,,,,,,,,,,,,,,,,,,,,,,,,,,,,,,,,,,,,,,,,,,,,,,,,,,,,,,,,,,,,,,,,,,,,,,,,,,,
,,672b5b677b0aacba1cf83b87,2026-03-17_12h41.30.897,kallum_motion_pilot_GIST_update_2,2026.1.1,Win32,59.17159763,672b5b677b0aacba1cf83b87,69b92ab4aef6dee357cd729a,69b92b4c58ce1b3cd75b9812,0.121,0.1211,0,114,114,152,1,fivesix,,,,,,,,,,,,,,,,,,,,,,,,,,,,,,,,,,,,,,,,,,,,,,,,,,,,,,,,,,,,,,,,,,,,,,,,,,,,,,,,,,,,,,,,,,,,,,,,,,,,,,,,,,,,,,,,,,,,,,,,,,,,,,,,,,,,,,,,,
,,672b5b677b0aacba1cf83b87,2026-03-17_12h41.30.897,kallum_motion_pilot_GIST_update_2,2026.1.1,Win32,59.17159763,672b5b677b0aacba1cf83b87,69b92ab4aef6dee357cd729a,69b92b4c58ce1b3cd75b9812,0.1215,0.1215,0,115,115,160,1,fivesix,,,,,,,,,,,,,,,,,,,,,,,,,,,,,,,,,,,,,,,,,,,,,,,,,,,,,,,,,,,,,,,,,,,,,,,,,,,,,,,,,,,,,,,,,,,,,,,,,,,,,,,,,,,,,,,,,,,,,,,,,,,,,,,,,,,,,,,,,
,,672b5b677b0aacba1cf83b87,2026-03-17_12h41.30.897,kallum_motion_pilot_GIST_update_2,2026.1.1,Win32,59.17159763,672b5b677b0aacba1cf83b87,69b92ab4aef6dee357cd729a,69b92b4c58ce1b3cd75b9812,0.122,0.122,0,116,116,103,1,eightseven,,,,,,,,,,,,,,,,,,,,,,,,,,,,,,,,,,,,,,,,,,,,,,,,,,,,,,,,,,,,,,,,,,,,,,,,,,,,,,,,,,,,,,,,,,,,,,,,,,,,,,,,,,,,,,,,,,,,,,,,,,,,,,,,,,,,,,,,,
,,672b5b677b0aacba1cf83b87,2026-03-17_12h41.30.897,kallum_motion_pilot_GIST_update_2,2026.1.1,Win32,59.17159763,672b5b677b0aacba1cf83b87,69b92ab4aef6dee357cd729a,69b92b4c58ce1b3cd75b9812,0.1224,0.1224,0,117,117,52,1,threeone,,,,,,,,,,,,,,,,,,,,,,,,,,,,,,,,,,,,,,,,,,,,,,,,,,,,,,,,,,,,,,,,,,,,,,,,,,,,,,,,,,,,,,,,,,,,,,,,,,,,,,,,,,,,,,,,,,,,,,,,,,,,,,,,,,,,,,,,,
,,672b5b677b0aacba1cf83b87,2026-03-17_12h41.30.897,kallum_motion_pilot_GIST_update_2,2026.1.1,Win32,59.17159763,672b5b677b0aacba1cf83b87,69b92ab4aef6dee357cd729a,69b92b4c58ce1b3cd75b9812,0.1229,0.123,0,118,118,91,1,sixeight,,,,,,,,,,,,,,,,,,,,,,,,,,,,,,,,,,,,,,,,,,,,,,,,,,,,,,,,,,,,,,,,,,,,,,,,,,,,,,,,,,,,,,,,,,,,,,,,,,,,,,,,,,,,,,,,,,,,,,,,,,,,,,,,,,,,,,,,,
,,672b5b677b0aacba1cf83b87,2026-03-17_12h41.30.897,kallum_motion_pilot_GIST_update_2,2026.1.1,Win32,59.17159763,672b5b677b0aacba1cf83b87,69b92ab4aef6dee357cd729a,69b92b4c58ce1b3cd75b9812,0.1245,0.1245,0,119,119,148,1,sevenfive,,,,,,,,,,,,,,,,,,,,,,,,,,,,,,,,,,,,,,,,,,,,,,,,,,,,,,,,,,,,,,,,,,,,,,,,,,,,,,,,,,,,,,,,,,,,,,,,,,,,,,,,,,,,,,,,,,,,,,,,,,,,,,,,,,,,,,,,,
,,672b5b677b0aacba1cf83b87,2026-03-17_12h41.30.897,kallum_motion_pilot_GIST_update_2,2026.1.1,Win32,59.17159763,672b5b677b0aacba1cf83b87,69b92ab4aef6dee357cd729a,69b92b4c58ce1b3cd75b9812,0.1255,0.1256,0,120,120,143,1,eightseven,,,,,,,,,,,,,,,,,,,,,,,,,,,,,,,,,,,,,,,,,,,,,,,,,,,,,,,,,,,,,,,,,,,,,,,,,,,,,,,,,,,,,,,,,,,,,,,,,,,,,,,,,,,,,,,,,,,,,,,,,,,,,,,,,,,,,,,,,
,,672b5b677b0aacba1cf83b87,2026-03-17_12h41.30.897,kallum_motion_pilot_GIST_update_2,2026.1.1,Win32,59.17159763,672b5b677b0aacba1cf83b87,69b92ab4aef6dee357cd729a,69b92b4c58ce1b3cd75b9812,0.1269,0.127,0,121,121,105,1,fiveseven,,,,,,,,,,,,,,,,,,,,,,,,,,,,,,,,,,,,,,,,,,,,,,,,,,,,,,,,,,,,,,,,,,,,,,,,,,,,,,,,,,,,,,,,,,,,,,,,,,,,,,,,,,,,,,,,,,,,,,,,,,,,,,,,,,,,,,,,,
,,672b5b677b0aacba1cf83b87,2026-03-17_12h41.30.897,kallum_motion_pilot_GIST_update_2,2026.1.1,Win32,59.17159763,672b5b677b0aacba1cf83b87,69b92ab4aef6dee357cd729a,69b92b4c58ce1b3cd75b9812,0.128,0.128,0,122,122,76,1,threeone,,,,,,,,,,,,,,,,,,,,,,,,,,,,,,,,,,,,,,,,,,,,,,,,,,,,,,,,,,,,,,,,,,,,,,,,,,,,,,,,,,,,,,,,,,,,,,,,,,,,,,,,,,,,,,,,,,,,,,,,,,,,,,,,,,,,,,,,,
,,672b5b677b0aacba1cf83b87,2026-03-17_12h41.30.897,kallum_motion_pilot_GIST_update_2,2026.1.1,Win32,59.17159763,672b5b677b0aacba1cf83b87,69b92ab4aef6dee357cd729a,69b92b4c58ce1b3cd75b9812,0.1284,0.1285,0,123,123,87,1,eightseven,,,,,,,,,,,,,,,,,,,,,,,,,,,,,,,,,,,,,,,,,,,,,,,,,,,,,,,,,,,,,,,,,,,,,,,,,,,,,,,,,,,,,,,,,,,,,,,,,,,,,,,,,,,,,,,,,,,,,,,,,,,,,,,,,,,,,,,,,
,,672b5b677b0aacba1cf83b87,2026-03-17_12h41.30.897,kallum_motion_pilot_GIST_update_2,2026.1.1,Win32,59.17159763,672b5b677b0aacba1cf83b87,69b92ab4aef6dee357cd729a,69b92b4c58ce1b3cd75b9812,0.129,0.1291,0,124,124,60,1,threeone,,,,,,,,,,,,,,,,,,,,,,,,,,,,,,,,,,,,,,,,,,,,,,,,,,,,,,,,,,,,,,,,,,,,,,,,,,,,,,,,,,,,,,,,,,,,,,,,,,,,,,,,,,,,,,,,,,,,,,,,,,,,,,,,,,,,,,,,,
,,672b5b677b0aacba1cf83b87,2026-03-17_12h41.30.897,kallum_motion_pilot_GIST_update_2,2026.1.1,Win32,59.17159763,672b5b677b0aacba1cf83b87,69b92ab4aef6dee357cd729a,69b92b4c58ce1b3cd75b9812,0.1305,0.1306,0,125,125,92,1,sevenfive,,,,,,,,,,,,,,,,,,,,,,,,,,,,,,,,,,,,,,,,,,,,,,,,,,,,,,,,,,,,,,,,,,,,,,,,,,,,,,,,,,,,,,,,,,,,,,,,,,,,,,,,,,,,,,,,,,,,,,,,,,,,,,,,,,,,,,,,,
,,672b5b677b0aacba1cf83b87,2026-03-17_12h41.30.897,kallum_motion_pilot_GIST_update_2,2026.1.1,Win32,59.17159763,672b5b677b0aacba1cf83b87,69b92ab4aef6dee357cd729a,69b92b4c58ce1b3cd75b9812,0.1313,0.1313,0,126,126,158,1,eightsix,,,,,,,,,,,,,,,,,,,,,,,,,,,,,,,,,,,,,,,,,,,,,,,,,,,,,,,,,,,,,,,,,,,,,,,,,,,,,,,,,,,,,,,,,,,,,,,,,,,,,,,,,,,,,,,,,,,,,,,,,,,,,,,,,,,,,,,,,
,,672b5b677b0aacba1cf83b87,2026-03-17_12h41.30.897,kallum_motion_pilot_GIST_update_2,2026.1.1,Win32,59.17159763,672b5b677b0aacba1cf83b87,69b92ab4aef6dee357cd729a,69b92b4c58ce1b3cd75b9812,0.1318,0.1318,0,127,127,17,1,onethree,,,,,,,,,,,,,,,,,,,,,,,,,,,,,,,,,,,,,,,,,,,,,,,,,,,,,,,,,,,,,,,,,,,,,,,,,,,,,,,,,,,,,,,,,,,,,,,,,,,,,,,,,,,,,,,,,,,,,,,,,,,,,,,,,,,,,,,,,
,,672b5b677b0aacba1cf83b87,2026-03-17_12h41.30.897,kallum_motion_pilot_GIST_update_2,2026.1.1,Win32,59.17159763,672b5b677b0aacba1cf83b87,69b92ab4aef6dee357cd729a,69b92b4c58ce1b3cd75b9812,0.1322,0.1322,0,128,128,142,1,eightsix,,,,,,,,,,,,,,,,,,,,,,,,,,,,,,,,,,,,,,,,,,,,,,,,,,,,,,,,,,,,,,,,,,,,,,,,,,,,,,,,,,,,,,,,,,,,,,,,,,,,,,,,,,,,,,,,,,,,,,,,,,,,,,,,,,,,,,,,,
,,672b5b677b0aacba1cf83b87,2026-03-17_12h41.30.897,kallum_motion_pilot_GIST_update_2,2026.1.1,Win32,59.17159763,672b5b677b0aacba1cf83b87,69b92ab4aef6dee357cd729a,69b92b4c58ce1b3cd75b9812,0.1327,0.1327,0,129,129,24,1,onetwo,,,,,,,,,,,,,,,,,,,,,,,,,,,,,,,,,,,,,,,,,,,,,,,,,,,,,,,,,,,,,,,,,,,,,,,,,,,,,,,,,,,,,,,,,,,,,,,,,,,,,,,,,,,,,,,,,,,,,,,,,,,,,,,,,,,,,,,,,
,,672b5b677b0aacba1cf83b87,2026-03-17_12h41.30.897,kallum_motion_pilot_GIST_update_2,2026.1.1,Win32,59.17159763,672b5b677b0aacba1cf83b87,69b92ab4aef6dee357cd729a,69b92b4c58ce1b3cd75b9812,0.1332,0.1332,0,130,130,74,1,twoone,,,,,,,,,,,,,,,,,,,,,,,,,,,,,,,,,,,,,,,,,,,,,,,,,,,,,,,,,,,,,,,,,,,,,,,,,,,,,,,,,,,,,,,,,,,,,,,,,,,,,,,,,,,,,,,,,,,,,,,,,,,,,,,,,,,,,,,,,
,,672b5b677b0aacba1cf83b87,2026-03-17_12h41.30.897,kallum_motion_pilot_GIST_update_2,2026.1.1,Win32,59.17159763,672b5b677b0aacba1cf83b87,69b92ab4aef6dee357cd729a,69b92b4c58ce1b3cd75b9812,0.1338,0.1339,0,131,131,48,1,onetwo,,,,,,,,,,,,,,,,,,,,,,,,,,,,,,,,,,,,,,,,,,,,,,,,,,,,,,,,,,,,,,,,,,,,,,,,,,,,,,,,,,,,,,,,,,,,,,,,,,,,,,,,,,,,,,,,,,,,,,,,,,,,,,,,,,,,,,,,,
,,672b5b677b0aacba1cf83b87,2026-03-17_12h41.30.897,kallum_motion_pilot_GIST_update_2,2026.1.1,Win32,59.17159763,672b5b677b0aacba1cf83b87,69b92ab4aef6dee357cd729a,69b92b4c58ce1b3cd75b9812,0.1343,0.1343,0,132,132,83,1,sixeight,,,,,,,,,,,,,,,,,,,,,,,,,,,,,,,,,,,,,,,,,,,,,,,,,,,,,,,,,,,,,,,,,,,,,,,,,,,,,,,,,,,,,,,,,,,,,,,,,,,,,,,,,,,,,,,,,,,,,,,,,,,,,,,,,,,,,,,,,
,,672b5b677b0aacba1cf83b87,2026-03-17_12h41.30.897,kallum_motion_pilot_GIST_update_2,2026.1.1,Win32,59.17159763,672b5b677b0aacba1cf83b87,69b92ab4aef6dee357cd729a,69b92b4c58ce1b3cd75b9812,0.1347,0.1347,0,133,133,53,1,threefour,,,,,,,,,,,,,,,,,,,,,,,,,,,,,,,,,,,,,,,,,,,,,,,,,,,,,,,,,,,,,,,,,,,,,,,,,,,,,,,,,,,,,,,,,,,,,,,,,,,,,,,,,,,,,,,,,,,,,,,,,,,,,,,,,,,,,,,,,
,,672b5b677b0aacba1cf83b87,2026-03-17_12h41.30.897,kallum_motion_pilot_GIST_update_2,2026.1.1,Win32,59.17159763,672b5b677b0aacba1cf83b87,69b92ab4aef6dee357cd729a,69b92b4c58ce1b3cd75b9812,0.1352,0.1352,0,134,134,15,1,fourthree,,,,,,,,,,,,,,,,,,,,,,,,,,,,,,,,,,,,,,,,,,,,,,,,,,,,,,,,,,,,,,,,,,,,,,,,,,,,,,,,,,,,,,,,,,,,,,,,,,,,,,,,,,,,,,,,,,,,,,,,,,,,,,,,,,,,,,,,,
,,672b5b677b0aacba1cf83b87,2026-03-17_12h41.30.897,kallum_motion_pilot_GIST_update_2,2026.1.1,Win32,59.17159763,672b5b677b0aacba1cf83b87,69b92ab4aef6dee357cd729a,69b92b4c58ce1b3cd75b9812,0.1356,0.1356,0,135,135,61,1,threefour,,,,,,,,,,,,,,,,,,,,,,,,,,,,,,,,,,,,,,,,,,,,,,,,,,,,,,,,,,,,,,,,,,,,,,,,,,,,,,,,,,,,,,,,,,,,,,,,,,,,,,,,,,,,,,,,,,,,,,,,,,,,,,,,,,,,,,,,,
,,672b5b677b0aacba1cf83b87,2026-03-17_12h41.30.897,kallum_motion_pilot_GIST_update_2,2026.1.1,Win32,59.17159763,672b5b677b0aacba1cf83b87,69b92ab4aef6dee357cd729a,69b92b4c58ce1b3cd75b9812,0.1363,0.1364,0,136,136,131,1,sixeight,,,,,,,,,,,,,,,,,,,,,,,,,,,,,,,,,,,,,,,,,,,,,,,,,,,,,,,,,,,,,,,,,,,,,,,,,,,,,,,,,,,,,,,,,,,,,,,,,,,,,,,,,,,,,,,,,,,,,,,,,,,,,,,,,,,,,,,,,
,,672b5b677b0aacba1cf83b87,2026-03-17_12h41.30.897,kallum_motion_pilot_GIST_update_2,2026.1.1,Win32,59.17159763,672b5b677b0aacba1cf83b87,69b92ab4aef6dee357cd729a,69b92b4c58ce1b3cd75b9812,0.1373,0.1373,0,137,137,119,1,eightseven,,,,,,,,,,,,,,,,,,,,,,,,,,,,,,,,,,,,,,,,,,,,,,,,,,,,,,,,,,,,,,,,,,,,,,,,,,,,,,,,,,,,,,,,,,,,,,,,,,,,,,,,,,,,,,,,,,,,,,,,,,,,,,,,,,,,,,,,,
,,672b5b677b0aacba1cf83b87,2026-03-17_12h41.30.897,kallum_motion_pilot_GIST_update_2,2026.1.1,Win32,59.17159763,672b5b677b0aacba1cf83b87,69b92ab4aef6dee357cd729a,69b92b4c58ce1b3cd75b9812,0.1379,0.1379,0,138,138,45,1,threefour,,,,,,,,,,,,,,,,,,,,,,,,,,,,,,,,,,,,,,,,,,,,,,,,,,,,,,,,,,,,,,,,,,,,,,,,,,,,,,,,,,,,,,,,,,,,,,,,,,,,,,,,,,,,,,,,,,,,,,,,,,,,,,,,,,,,,,,,,
,,672b5b677b0aacba1cf83b87,2026-03-17_12h41.30.897,kallum_motion_pilot_GIST_update_2,2026.1.1,Win32,59.17159763,672b5b677b0aacba1cf83b87,69b92ab4aef6dee357cd729a,69b92b4c58ce1b3cd75b9812,0.1385,0.1386,0,139,139,44,1,threeone,,,,,,,,,,,,,,,,,,,,,,,,,,,,,,,,,,,,,,,,,,,,,,,,,,,,,,,,,,,,,,,,,,,,,,,,,,,,,,,,,,,,,,,,,,,,,,,,,,,,,,,,,,,,,,,,,,,,,,,,,,,,,,,,,,,,,,,,,
,,672b5b677b0aacba1cf83b87,2026-03-17_12h41.30.897,kallum_motion_pilot_GIST_update_2,2026.1.1,Win32,59.17159763,672b5b677b0aacba1cf83b87,69b92ab4aef6dee357cd729a,69b92b4c58ce1b3cd75b9812,0.139,0.139,0,140,140,81,1,fiveseven,,,,,,,,,,,,,,,,,,,,,,,,,,,,,,,,,,,,,,,,,,,,,,,,,,,,,,,,,,,,,,,,,,,,,,,,,,,,,,,,,,,,,,,,,,,,,,,,,,,,,,,,,,,,,,,,,,,,,,,,,,,,,,,,,,,,,,,,,
,,672b5b677b0aacba1cf83b87,2026-03-17_12h41.30.897,kallum_motion_pilot_GIST_update_2,2026.1.1,Win32,59.17159763,672b5b677b0aacba1cf83b87,69b92ab4aef6dee357cd729a,69b92b4c58ce1b3cd75b9812,0.1395,0.1395,0,141,141,135,1,eightseven,,,,,,,,,,,,,,,,,,,,,,,,,,,,,,,,,,,,,,,,,,,,,,,,,,,,,,,,,,,,,,,,,,,,,,,,,,,,,,,,,,,,,,,,,,,,,,,,,,,,,,,,,,,,,,,,,,,,,,,,,,,,,,,,,,,,,,,,,
,,672b5b677b0aacba1cf83b87,2026-03-17_12h41.30.897,kallum_motion_pilot_GIST_update_2,2026.1.1,Win32,59.17159763,672b5b677b0aacba1cf83b87,69b92ab4aef6dee357cd729a,69b92b4c58ce1b3cd75b9812,0.1399,0.1399,0,142,142,49,1,onethree,,,,,,,,,,,,,,,,,,,,,,,,,,,,,,,,,,,,,,,,,,,,,,,,,,,,,,,,,,,,,,,,,,,,,,,,,,,,,,,,,,,,,,,,,,,,,,,,,,,,,,,,,,,,,,,,,,,,,,,,,,,,,,,,,,,,,,,,,
,,672b5b677b0aacba1cf83b87,2026-03-17_12h41.30.897,kallum_motion_pilot_GIST_update_2,2026.1.1,Win32,59.17159763,672b5b677b0aacba1cf83b87,69b92ab4aef6dee357cd729a,69b92b4c58ce1b3cd75b9812,0.1404,0.1404,0,143,143,82,1,sixfive,,,,,,,,,,,,,,,,,,,,,,,,,,,,,,,,,,,,,,,,,,,,,,,,,,,,,,,,,,,,,,,,,,,,,,,,,,,,,,,,,,,,,,,,,,,,,,,,,,,,,,,,,,,,,,,,,,,,,,,,,,,,,,,,,,,,,,,,,
,,672b5b677b0aacba1cf83b87,2026-03-17_12h41.30.897,kallum_motion_pilot_GIST_update_2,2026.1.1,Win32,59.17159763,672b5b677b0aacba1cf83b87,69b92ab4aef6dee357cd729a,69b92b4c58ce1b3cd75b9812,0.1409,0.1409,0,144,144,68,1,threeone,,,,,,,,,,,,,,,,,,,,,,,,,,,,,,,,,,,,,,,,,,,,,,,,,,,,,,,,,,,,,,,,,,,,,,,,,,,,,,,,,,,,,,,,,,,,,,,,,,,,,,,,,,,,,,,,,,,,,,,,,,,,,,,,,,,,,,,,,
,,672b5b677b0aacba1cf83b87,2026-03-17_12h41.30.897,kallum_motion_pilot_GIST_update_2,2026.1.1,Win32,59.17159763,672b5b677b0aacba1cf83b87,69b92ab4aef6dee357cd729a,69b92b4c58ce1b3cd75b9812,0.1414,0.1414,0,145,145,95,1,eightseven,,,,,,,,,,,,,,,,,,,,,,,,,,,,,,,,,,,,,,,,,,,,,,,,,,,,,,,,,,,,,,,,,,,,,,,,,,,,,,,,,,,,,,,,,,,,,,,,,,,,,,,,,,,,,,,,,,,,,,,,,,,,,,,,,,,,,,,,,
,,672b5b677b0aacba1cf83b87,2026-03-17_12h41.30.897,kallum_motion_pilot_GIST_update_2,2026.1.1,Win32,59.17159763,672b5b677b0aacba1cf83b87,69b92ab4aef6dee357cd729a,69b92b4c58ce1b3cd75b9812,0.1418,0.1419,0,146,146,13,1,threefour,,,,,,,,,,,,,,,,,,,,,,,,,,,,,,,,,,,,,,,,,,,,,,,,,,,,,,,,,,,,,,,,,,,,,,,,,,,,,,,,,,,,,,,,,,,,,,,,,,,,,,,,,,,,,,,,,,,,,,,,,,,,,,,,,,,,,,,,,
,,672b5b677b0aacba1cf83b87,2026-03-17_12h41.30.897,kallum_motion_pilot_GIST_update_2,2026.1.1,Win32,59.17159763,672b5b677b0aacba1cf83b87,69b92ab4aef6dee357cd729a,69b92b4c58ce1b3cd75b9812,0.1422,0.1423,0,147,147,145,1,fiveseven,,,,,,,,,,,,,,,,,,,,,,,,,,,,,,,,,,,,,,,,,,,,,,,,,,,,,,,,,,,,,,,,,,,,,,,,,,,,,,,,,,,,,,,,,,,,,,,,,,,,,,,,,,,,,,,,,,,,,,,,,,,,,,,,,,,,,,,,,
,,672b5b677b0aacba1cf83b87,2026-03-17_12h41.30.897,kallum_motion_pilot_GIST_update_2,2026.1.1,Win32,59.17159763,672b5b677b0aacba1cf83b87,69b92ab4aef6dee357cd729a,69b92b4c58ce1b3cd75b9812,0.1428,0.1428,0,148,148,79,1,eightseven,,,,,,,,,,,,,,,,,,,,,,,,,,,,,,,,,,,,,,,,,,,,,,,,,,,,,,,,,,,,,,,,,,,,,,,,,,,,,,,,,,,,,,,,,,,,,,,,,,,,,,,,,,,,,,,,,,,,,,,,,,,,,,,,,,,,,,,,,
,,672b5b677b0aacba1cf83b87,2026-03-17_12h41.30.897,kallum_motion_pilot_GIST_update_2,2026.1.1,Win32,59.17159763,672b5b677b0aacba1cf83b87,69b92ab4aef6dee357cd729a,69b92b4c58ce1b3cd75b9812,0.1432,0.1433,0,149,149,64,1,onetwo,,,,,,,,,,,,,,,,,,,,,,,,,,,,,,,,,,,,,,,,,,,,,,,,,,,,,,,,,,,,,,,,,,,,,,,,,,,,,,,,,,,,,,,,,,,,,,,,,,,,,,,,,,,,,,,,,,,,,,,,,,,,,,,,,,,,,,,,,
,,672b5b677b0aacba1cf83b87,2026-03-17_12h41.30.897,kallum_motion_pilot_GIST_update_2,2026.1.1,Win32,59.17159763,672b5b677b0aacba1cf83b87,69b92ab4aef6dee357cd729a,69b92b4c58ce1b3cd75b9812,0.1437,0.1437,0,150,150,98,1,sixfive,,,,,,,,,,,,,,,,,,,,,,,,,,,,,,,,,,,,,,,,,,,,,,,,,,,,,,,,,,,,,,,,,,,,,,,,,,,,,,,,,,,,,,,,,,,,,,,,,,,,,,,,,,,,,,,,,,,,,,,,,,,,,,,,,,,,,,,,,
,,672b5b677b0aacba1cf83b87,2026-03-17_12h41.30.897,kallum_motion_pilot_GIST_update_2,2026.1.1,Win32,59.17159763,672b5b677b0aacba1cf83b87,69b92ab4aef6dee357cd729a,69b92b4c58ce1b3cd75b9812,0.1442,0.1442,0,151,151,84,1,sevenfive,,,,,,,,,,,,,,,,,,,,,,,,,,,,,,,,,,,,,,,,,,,,,,,,,,,,,,,,,,,,,,,,,,,,,,,,,,,,,,,,,,,,,,,,,,,,,,,,,,,,,,,,,,,,,,,,,,,,,,,,,,,,,,,,,,,,,,,,,
,,672b5b677b0aacba1cf83b87,2026-03-17_12h41.30.897,kallum_motion_pilot_GIST_update_2,2026.1.1,Win32,59.17159763,672b5b677b0aacba1cf83b87,69b92ab4aef6dee357cd729a,69b92b4c58ce1b3cd75b9812,0.1446,0.1447,0,152,152,130,1,sixfive,,,,,,,,,,,,,,,,,,,,,,,,,,,,,,,,,,,,,,,,,,,,,,,,,,,,,,,,,,,,,,,,,,,,,,,,,,,,,,,,,,,,,,,,,,,,,,,,,,,,,,,,,,,,,,,,,,,,,,,,,,,,,,,,,,,,,,,,,
,,672b5b677b0aacba1cf83b87,2026-03-17_12h41.30.897,kallum_motion_pilot_GIST_update_2,2026.1.1,Win32,59.17159763,672b5b677b0aacba1cf83b87,69b92ab4aef6dee357cd729a,69b92b4c58ce1b3cd75b9812,0.1452,0.1452,0,153,153,73,1,onethree,,,,,,,,,,,,,,,,,,,,,,,,,,,,,,,,,,,,,,,,,,,,,,,,,,,,,,,,,,,,,,,,,,,,,,,,,,,,,,,,,,,,,,,,,,,,,,,,,,,,,,,,,,,,,,,,,,,,,,,,,,,,,,,,,,,,,,,,,
,,672b5b677b0aacba1cf83b87,2026-03-17_12h41.30.897,kallum_motion_pilot_GIST_update_2,2026.1.1,Win32,59.17159763,672b5b677b0aacba1cf83b87,69b92ab4aef6dee357cd729a,69b92b4c58ce1b3cd75b9812,0.1456,0.1457,0,154,154,109,1,seveneight,,,,,,,,,,,,,,,,,,,,,,,,,,,,,,,,,,,,,,,,,,,,,,,,,,,,,,,,,,,,,,,,,,,,,,,,,,,,,,,,,,,,,,,,,,,,,,,,,,,,,,,,,,,,,,,,,,,,,,,,,,,,,,,,,,,,,,,,,
,,672b5b677b0aacba1cf83b87,2026-03-17_12h41.30.897,kallum_motion_pilot_GIST_update_2,2026.1.1,Win32,59.17159763,672b5b677b0aacba1cf83b87,69b92ab4aef6dee357cd729a,69b92b4c58ce1b3cd75b9812,0.148,0.148,0,155,155,5,1,threefour,,,,,,,,,,,,,,,,,,,,,,,,,,,,,,,,,,,,,,,,,,,,,,,,,,,,,,,,,,,,,,,,,,,,,,,,,,,,,,,,,,,,,,,,,,,,,,,,,,,,,,,,,,,,,,,,,,,,,,,,,,,,,,,,,,,,,,,,,
,,672b5b677b0aacba1cf83b87,2026-03-17_12h41.30.897,kallum_motion_pilot_GIST_update_2,2026.1.1,Win32,59.17159763,672b5b677b0aacba1cf83b87,69b92ab4aef6dee357cd729a,69b92b4c58ce1b3cd75b9812,0.1485,0.1485,0,156,156,33,1,onethree,,,,,,,,,,,,,,,,,,,,,,,,,,,,,,,,,,,,,,,,,,,,,,,,,,,,,,,,,,,,,,,,,,,,,,,,,,,,,,,,,,,,,,,,,,,,,,,,,,,,,,,,,,,,,,,,,,,,,,,,,,,,,,,,,,,,,,,,,
,,672b5b677b0aacba1cf83b87,2026-03-17_12h41.30.897,kallum_motion_pilot_GIST_update_2,2026.1.1,Win32,59.17159763,672b5b677b0aacba1cf83b87,69b92ab4aef6dee357cd729a,69b92b4c58ce1b3cd75b9812,0.149,0.149,0,157,157,12,1,threeone,,,,,,,,,,,,,,,,,,,,,,,,,,,,,,,,,,,,,,,,,,,,,,,,,,,,,,,,,,,,,,,,,,,,,,,,,,,,,,,,,,,,,,,,,,,,,,,,,,,,,,,,,,,,,,,,,,,,,,,,,,,,,,,,,,,,,,,,,
,,672b5b677b0aacba1cf83b87,2026-03-17_12h41.30.897,kallum_motion_pilot_GIST_update_2,2026.1.1,Win32,59.17159763,672b5b677b0aacba1cf83b87,69b92ab4aef6dee357cd729a,69b92b4c58ce1b3cd75b9812,0.1495,0.1496,0,158,158,37,1,threefour,,,,,,,,,,,,,,,,,,,,,,,,,,,,,,,,,,,,,,,,,,,,,,,,,,,,,,,,,,,,,,,,,,,,,,,,,,,,,,,,,,,,,,,,,,,,,,,,,,,,,,,,,,,,,,,,,,,,,,,,,,,,,,,,,,,,,,,,,
,,672b5b677b0aacba1cf83b87,2026-03-17_12h41.30.897,kallum_motion_pilot_GIST_update_2,2026.1.1,Win32,59.17159763,672b5b677b0aacba1cf83b87,69b92ab4aef6dee357cd729a,69b92b4c58ce1b3cd75b9812,0.15,0.15,0,159,159,138,1,sixfive,,,,,,,,,,,,,,,,,,,,,,,,,,,,,,,,,,,,,,,,,,,,,,,,,,,,,,,,,,,,,,,,,,,,,,,,,,,,,,,,,,,,,,,,,,,,,,,,,,,,,,,,,,,,,,,,,,,,,,,,,,,,,,,,,,,,,,,,,
,,672b5b677b0aacba1cf83b87,2026-03-17_12h41.30.897,kallum_motion_pilot_GIST_update_2,2026.1.1,Win32,59.17159763,672b5b677b0aacba1cf83b87,69b92ab4aef6dee357cd729a,69b92b4c58ce1b3cd75b9812,0.1505,0.1521,0,160,160,146,1,sixfive,,,,,,,,,,,,,,,,,,,,,,,,,,,,,,,,,,,,,,,,,,,,,,,,,,,,,,,,,,,,,,,,,,,,,,,,,,,,,,,,,,,,,,,,,,,,,,,,,,,,,,,,,,,,,,,,,,,,,,,,,,,,,,,,,,,,,,,,,
,,672b5b677b0aacba1cf83b87,2026-03-17_12h41.30.897,kallum_motion_pilot_GIST_update_2,2026.1.1,Win32,59.17159763,672b5b677b0aacba1cf83b87,69b92ab4aef6dee357cd729a,69b92b4c58ce1b3cd75b9812,0.1529,0.1529,0,161,161,43,1,twofour,,,,,,,,,,,,,,,,,,,,,,,,,,,,,,,,,,,,,,,,,,,,,,,,,,,,,,,,,,,,,,,,,,,,,,,,,,,,,,,,,,,,,,,,,,,,,,,,,,,,,,,,,,,,,,,,,,,,,,,,,,,,,,,,,,,,,,,,,
,,672b5b677b0aacba1cf83b87,2026-03-17_12h41.30.897,kallum_motion_pilot_GIST_update_2,2026.1.1,Win32,59.17159763,672b5b677b0aacba1cf83b87,69b92ab4aef6dee357cd729a,69b92b4c58ce1b3cd75b9812,0.1533,0.1534,1,0,162,14,1,fourtwo,,,,,,,,,,,,,,,,,,,,,,,,,,,,,,,,,,,,,,,,,,,,,,,,,,,,,,,,,,,,,,,,,,,,,,,,,,,,,,,,,,,,,,,,,,,,,,,,,,,,,,,,,,,,,,,,,,,,,,,,,,,,,,,,,,,,,,,,,
,,672b5b677b0aacba1cf83b87,2026-03-17_12h41.30.897,kallum_motion_pilot_GIST_update_2,2026.1.1,Win32,59.17159763,672b5b677b0aacba1cf83b87,69b92ab4aef6dee357cd729a,69b92b4c58ce1b3cd75b9812,0.154,0.154,1,1,163,48,1,onetwo,,,,,,,,,,,,,,,,,,,,,,,,,,,,,,,,,,,,,,,,,,,,,,,,,,,,,,,,,,,,,,,,,,,,,,,,,,,,,,,,,,,,,,,,,,,,,,,,,,,,,,,,,,,,,,,,,,,,,,,,,,,,,,,,,,,,,,,,,
,,672b5b677b0aacba1cf83b87,2026-03-17_12h41.30.897,kallum_motion_pilot_GIST_update_2,2026.1.1,Win32,59.17159763,672b5b677b0aacba1cf83b87,69b92ab4aef6dee357cd729a,69b92b4c58ce1b3cd75b9812,0.1547,0.1547,1,2,164,113,1,fiveseven,,,,,,,,,,,,,,,,,,,,,,,,,,,,,,,,,,,,,,,,,,,,,,,,,,,,,,,,,,,,,,,,,,,,,,,,,,,,,,,,,,,,,,,,,,,,,,,,,,,,,,,,,,,,,,,,,,,,,,,,,,,,,,,,,,,,,,,,,
,,672b5b677b0aacba1cf83b87,2026-03-17_12h41.30.897,kallum_motion_pilot_GIST_update_2,2026.1.1,Win32,59.17159763,672b5b677b0aacba1cf83b87,69b92ab4aef6dee357cd729a,69b92b4c58ce1b3cd75b9812,0.1552,0.1552,1,3,165,157,1,seveneight,,,,,,,,,,,,,,,,,,,,,,,,,,,,,,,,,,,,,,,,,,,,,,,,,,,,,,,,,,,,,,,,,,,,,,,,,,,,,,,,,,,,,,,,,,,,,,,,,,,,,,,,,,,,,,,,,,,,,,,,,,,,,,,,,,,,,,,,,
,,672b5b677b0aacba1cf83b87,2026-03-17_12h41.30.897,kallum_motion_pilot_GIST_update_2,2026.1.1,Win32,59.17159763,672b5b677b0aacba1cf83b87,69b92ab4aef6dee357cd729a,69b92b4c58ce1b3cd75b9812,0.1557,0.1557,1,4,166,158,1,eightsix,,,,,,,,,,,,,,,,,,,,,,,,,,,,,,,,,,,,,,,,,,,,,,,,,,,,,,,,,,,,,,,,,,,,,,,,,,,,,,,,,,,,,,,,,,,,,,,,,,,,,,,,,,,,,,,,,,,,,,,,,,,,,,,,,,,,,,,,,
,,672b5b677b0aacba1cf83b87,2026-03-17_12h41.30.897,kallum_motion_pilot_GIST_update_2,2026.1.1,Win32,59.17159763,672b5b677b0aacba1cf83b87,69b92ab4aef6dee357cd729a,69b92b4c58ce1b3cd75b9812,0.1563,0.1564,1,5,167,36,1,threeone,,,,,,,,,,,,,,,,,,,,,,,,,,,,,,,,,,,,,,,,,,,,,,,,,,,,,,,,,,,,,,,,,,,,,,,,,,,,,,,,,,,,,,,,,,,,,,,,,,,,,,,,,,,,,,,,,,,,,,,,,,,,,,,,,,,,,,,,,
,,672b5b677b0aacba1cf83b87,2026-03-17_12h41.30.897,kallum_motion_pilot_GIST_update_2,2026.1.1,Win32,59.17159763,672b5b677b0aacba1cf83b87,69b92ab4aef6dee357cd729a,69b92b4c58ce1b3cd75b9812,0.1574,0.1575,1,6,168,22,1,fourtwo,,,,,,,,,,,,,,,,,,,,,,,,,,,,,,,,,,,,,,,,,,,,,,,,,,,,,,,,,,,,,,,,,,,,,,,,,,,,,,,,,,,,,,,,,,,,,,,,,,,,,,,,,,,,,,,,,,,,,,,,,,,,,,,,,,,,,,,,,
,,672b5b677b0aacba1cf83b87,2026-03-17_12h41.30.897,kallum_motion_pilot_GIST_update_2,2026.1.1,Win32,59.17159763,672b5b677b0aacba1cf83b87,69b92ab4aef6dee357cd729a,69b92b4c58ce1b3cd75b9812,0.1579,0.158,1,7,169,78,1,fourtwo,,,,,,,,,,,,,,,,,,,,,,,,,,,,,,,,,,,,,,,,,,,,,,,,,,,,,,,,,,,,,,,,,,,,,,,,,,,,,,,,,,,,,,,,,,,,,,,,,,,,,,,,,,,,,,,,,,,,,,,,,,,,,,,,,,,,,,,,,
,,672b5b677b0aacba1cf83b87,2026-03-17_12h41.30.897,kallum_motion_pilot_GIST_update_2,2026.1.1,Win32,59.17159763,672b5b677b0aacba1cf83b87,69b92ab4aef6dee357cd729a,69b92b4c58ce1b3cd75b9812,0.1584,0.1585,1,8,170,10,1,twoone,,,,,,,,,,,,,,,,,,,,,,,,,,,,,,,,,,,,,,,,,,,,,,,,,,,,,,,,,,,,,,,,,,,,,,,,,,,,,,,,,,,,,,,,,,,,,,,,,,,,,,,,,,,,,,,,,,,,,,,,,,,,,,,,,,,,,,,,,
,,672b5b677b0aacba1cf83b87,2026-03-17_12h41.30.897,kallum_motion_pilot_GIST_update_2,2026.1.1,Win32,59.17159763,672b5b677b0aacba1cf83b87,69b92ab4aef6dee357cd729a,69b92b4c58ce1b3cd75b9812,0.1589,0.1589,1,9,171,70,1,fourtwo,,,,,,,,,,,,,,,,,,,,,,,,,,,,,,,,,,,,,,,,,,,,,,,,,,,,,,,,,,,,,,,,,,,,,,,,,,,,,,,,,,,,,,,,,,,,,,,,,,,,,,,,,,,,,,,,,,,,,,,,,,,,,,,,,,,,,,,,,
,,672b5b677b0aacba1cf83b87,2026-03-17_12h41.30.897,kallum_motion_pilot_GIST_update_2,2026.1.1,Win32,59.17159763,672b5b677b0aacba1cf83b87,69b92ab4aef6dee357cd729a,69b92b4c58ce1b3cd75b9812,0.1593,0.1594,1,10,172,105,1,fiveseven,,,,,,,,,,,,,,,,,,,,,,,,,,,,,,,,,,,,,,,,,,,,,,,,,,,,,,,,,,,,,,,,,,,,,,,,,,,,,,,,,,,,,,,,,,,,,,,,,,,,,,,,,,,,,,,,,,,,,,,,,,,,,,,,,,,,,,,,,
,,672b5b677b0aacba1cf83b87,2026-03-17_12h41.30.897,kallum_motion_pilot_GIST_update_2,2026.1.1,Win32,59.17159763,672b5b677b0aacba1cf83b87,69b92ab4aef6dee357cd729a,69b92b4c58ce1b3cd75b9812,0.1599,0.1599,1,11,173,82,1,sixfive,,,,,,,,,,,,,,,,,,,,,,,,,,,,,,,,,,,,,,,,,,,,,,,,,,,,,,,,,,,,,,,,,,,,,,,,,,,,,,,,,,,,,,,,,,,,,,,,,,,,,,,,,,,,,,,,,,,,,,,,,,,,,,,,,,,,,,,,,
,,672b5b677b0aacba1cf83b87,2026-03-17_12h41.30.897,kallum_motion_pilot_GIST_update_2,2026.1.1,Win32,59.17159763,672b5b677b0aacba1cf83b87,69b92ab4aef6dee357cd729a,69b92b4c58ce1b3cd75b9812,0.1604,0.1604,1,12,174,109,1,seveneight,,,,,,,,,,,,,,,,,,,,,,,,,,,,,,,,,,,,,,,,,,,,,,,,,,,,,,,,,,,,,,,,,,,,,,,,,,,,,,,,,,,,,,,,,,,,,,,,,,,,,,,,,,,,,,,,,,,,,,,,,,,,,,,,,,,,,,,,,
,,672b5b677b0aacba1cf83b87,2026-03-17_12h41.30.897,kallum_motion_pilot_GIST_update_2,2026.1.1,Win32,59.17159763,672b5b677b0aacba1cf83b87,69b92ab4aef6dee357cd729a,69b92b4c58ce1b3cd75b9812,0.1609,0.1609,1,13,175,149,1,seveneight,,,,,,,,,,,,,,,,,,,,,,,,,,,,,,,,,,,,,,,,,,,,,,,,,,,,,,,,,,,,,,,,,,,,,,,,,,,,,,,,,,,,,,,,,,,,,,,,,,,,,,,,,,,,,,,,,,,,,,,,,,,,,,,,,,,,,,,,,
,,672b5b677b0aacba1cf83b87,2026-03-17_12h41.30.897,kallum_motion_pilot_GIST_update_2,2026.1.1,Win32,59.17159763,672b5b677b0aacba1cf83b87,69b92ab4aef6dee357cd729a,69b92b4c58ce1b3cd75b9812,0.1614,0.1614,1,14,176,32,1,onetwo,,,,,,,,,,,,,,,,,,,,,,,,,,,,,,,,,,,,,,,,,,,,,,,,,,,,,,,,,,,,,,,,,,,,,,,,,,,,,,,,,,,,,,,,,,,,,,,,,,,,,,,,,,,,,,,,,,,,,,,,,,,,,,,,,,,,,,,,,
,,672b5b677b0aacba1cf83b87,2026-03-17_12h41.30.897,kallum_motion_pilot_GIST_update_2,2026.1.1,Win32,59.17159763,672b5b677b0aacba1cf83b87,69b92ab4aef6dee357cd729a,69b92b4c58ce1b3cd75b9812,0.1619,0.1619,1,15,177,38,1,fourtwo,,,,,,,,,,,,,,,,,,,,,,,,,,,,,,,,,,,,,,,,,,,,,,,,,,,,,,,,,,,,,,,,,,,,,,,,,,,,,,,,,,,,,,,,,,,,,,,,,,,,,,,,,,,,,,,,,,,,,,,,,,,,,,,,,,,,,,,,,
,,672b5b677b0aacba1cf83b87,2026-03-17_12h41.30.897,kallum_motion_pilot_GIST_update_2,2026.1.1,Win32,59.17159763,672b5b677b0aacba1cf83b87,69b92ab4aef6dee357cd729a,69b92b4c58ce1b3cd75b9812,0.1624,0.1624,1,16,178,28,1,threeone,,,,,,,,,,,,,,,,,,,,,,,,,,,,,,,,,,,,,,,,,,,,,,,,,,,,,,,,,,,,,,,,,,,,,,,,,,,,,,,,,,,,,,,,,,,,,,,,,,,,,,,,,,,,,,,,,,,,,,,,,,,,,,,,,,,,,,,,,
,,672b5b677b0aacba1cf83b87,2026-03-17_12h41.30.897,kallum_motion_pilot_GIST_update_2,2026.1.1,Win32,59.17159763,672b5b677b0aacba1cf83b87,69b92ab4aef6dee357cd729a,69b92b4c58ce1b3cd75b9812,0.1643,0.1643,1,17,179,120,1,fivesix,,,,,,,,,,,,,,,,,,,,,,,,,,,,,,,,,,,,,,,,,,,,,,,,,,,,,,,,,,,,,,,,,,,,,,,,,,,,,,,,,,,,,,,,,,,,,,,,,,,,,,,,,,,,,,,,,,,,,,,,,,,,,,,,,,,,,,,,,
,,672b5b677b0aacba1cf83b87,2026-03-17_12h41.30.897,kallum_motion_pilot_GIST_update_2,2026.1.1,Win32,59.17159763,672b5b677b0aacba1cf83b87,69b92ab4aef6dee357cd729a,69b92b4c58ce1b3cd75b9812,0.1648,0.1649,1,18,180,116,1,sevenfive,,,,,,,,,,,,,,,,,,,,,,,,,,,,,,,,,,,,,,,,,,,,,,,,,,,,,,,,,,,,,,,,,,,,,,,,,,,,,,,,,,,,,,,,,,,,,,,,,,,,,,,,,,,,,,,,,,,,,,,,,,,,,,,,,,,,,,,,,
,,672b5b677b0aacba1cf83b87,2026-03-17_12h41.30.897,kallum_motion_pilot_GIST_update_2,2026.1.1,Win32,59.17159763,672b5b677b0aacba1cf83b87,69b92ab4aef6dee357cd729a,69b92b4c58ce1b3cd75b9812,0.1653,0.1654,1,19,181,40,1,onetwo,,,,,,,,,,,,,,,,,,,,,,,,,,,,,,,,,,,,,,,,,,,,,,,,,,,,,,,,,,,,,,,,,,,,,,,,,,,,,,,,,,,,,,,,,,,,,,,,,,,,,,,,,,,,,,,,,,,,,,,,,,,,,,,,,,,,,,,,,
,,672b5b677b0aacba1cf83b87,2026-03-17_12h41.30.897,kallum_motion_pilot_GIST_update_2,2026.1.1,Win32,59.17159763,672b5b677b0aacba1cf83b87,69b92ab4aef6dee357cd729a,69b92b4c58ce1b3cd75b9812,0.1658,0.1658,1,20,182,88,1,fivesix,,,,,,,,,,,,,,,,,,,,,,,,,,,,,,,,,,,,,,,,,,,,,,,,,,,,,,,,,,,,,,,,,,,,,,,,,,,,,,,,,,,,,,,,,,,,,,,,,,,,,,,,,,,,,,,,,,,,,,,,,,,,,,,,,,,,,,,,,
,,672b5b677b0aacba1cf83b87,2026-03-17_12h41.30.897,kallum_motion_pilot_GIST_update_2,2026.1.1,Win32,59.17159763,672b5b677b0aacba1cf83b87,69b92ab4aef6dee357cd729a,69b92b4c58ce1b3cd75b9812,0.1663,0.1663,1,21,183,58,1,twoone,,,,,,,,,,,,,,,,,,,,,,,,,,,,,,,,,,,,,,,,,,,,,,,,,,,,,,,,,,,,,,,,,,,,,,,,,,,,,,,,,,,,,,,,,,,,,,,,,,,,,,,,,,,,,,,,,,,,,,,,,,,,,,,,,,,,,,,,,
,,672b5b677b0aacba1cf83b87,2026-03-17_12h41.30.897,kallum_motion_pilot_GIST_update_2,2026.1.1,Win32,59.17159763,672b5b677b0aacba1cf83b87,69b92ab4aef6dee357cd729a,69b92b4c58ce1b3cd75b9812,0.1674,0.1674,1,22,184,124,1,sevenfive,,,,,,,,,,,,,,,,,,,,,,,,,,,,,,,,,,,,,,,,,,,,,,,,,,,,,,,,,,,,,,,,,,,,,,,,,,,,,,,,,,,,,,,,,,,,,,,,,,,,,,,,,,,,,,,,,,,,,,,,,,,,,,,,,,,,,,,,,
,,672b5b677b0aacba1cf83b87,2026-03-17_12h41.30.897,kallum_motion_pilot_GIST_update_2,2026.1.1,Win32,59.17159763,672b5b677b0aacba1cf83b87,69b92ab4aef6dee357cd729a,69b92b4c58ce1b3cd75b9812,0.1679,0.168,1,23,185,2,1,twoone,,,,,,,,,,,,,,,,,,,,,,,,,,,,,,,,,,,,,,,,,,,,,,,,,,,,,,,,,,,,,,,,,,,,,,,,,,,,,,,,,,,,,,,,,,,,,,,,,,,,,,,,,,,,,,,,,,,,,,,,,,,,,,,,,,,,,,,,,
,,672b5b677b0aacba1cf83b87,2026-03-17_12h41.30.897,kallum_motion_pilot_GIST_update_2,2026.1.1,Win32,59.17159763,672b5b677b0aacba1cf83b87,69b92ab4aef6dee357cd729a,69b92b4c58ce1b3cd75b9812,0.1684,0.1685,1,24,186,17,1,onethree,,,,,,,,,,,,,,,,,,,,,,,,,,,,,,,,,,,,,,,,,,,,,,,,,,,,,,,,,,,,,,,,,,,,,,,,,,,,,,,,,,,,,,,,,,,,,,,,,,,,,,,,,,,,,,,,,,,,,,,,,,,,,,,,,,,,,,,,,
,,672b5b677b0aacba1cf83b87,2026-03-17_12h41.30.897,kallum_motion_pilot_GIST_update_2,2026.1.1,Win32,59.17159763,672b5b677b0aacba1cf83b87,69b92ab4aef6dee357cd729a,69b92b4c58ce1b3cd75b9812,0.1691,0.1692,1,25,187,16,1,onetwo,,,,,,,,,,,,,,,,,,,,,,,,,,,,,,,,,,,,,,,,,,,,,,,,,,,,,,,,,,,,,,,,,,,,,,,,,,,,,,,,,,,,,,,,,,,,,,,,,,,,,,,,,,,,,,,,,,,,,,,,,,,,,,,,,,,,,,,,,
,,672b5b677b0aacba1cf83b87,2026-03-17_12h41.30.897,kallum_motion_pilot_GIST_update_2,2026.1.1,Win32,59.17159763,672b5b677b0aacba1cf83b87,69b92ab4aef6dee357cd729a,69b92b4c58ce1b3cd75b9812,0.1696,0.1697,1,26,188,132,1,sevenfive,,,,,,,,,,,,,,,,,,,,,,,,,,,,,,,,,,,,,,,,,,,,,,,,,,,,,,,,,,,,,,,,,,,,,,,,,,,,,,,,,,,,,,,,,,,,,,,,,,,,,,,,,,,,,,,,,,,,,,,,,,,,,,,,,,,,,,,,,
,,672b5b677b0aacba1cf83b87,2026-03-17_12h41.30.897,kallum_motion_pilot_GIST_update_2,2026.1.1,Win32,59.17159763,672b5b677b0aacba1cf83b87,69b92ab4aef6dee357cd729a,69b92b4c58ce1b3cd75b9812,0.1701,0.1702,1,27,189,123,1,sixeight,,,,,,,,,,,,,,,,,,,,,,,,,,,,,,,,,,,,,,,,,,,,,,,,,,,,,,,,,,,,,,,,,,,,,,,,,,,,,,,,,,,,,,,,,,,,,,,,,,,,,,,,,,,,,,,,,,,,,,,,,,,,,,,,,,,,,,,,,
,,672b5b677b0aacba1cf83b87,2026-03-17_12h41.30.897,kallum_motion_pilot_GIST_update_2,2026.1.1,Win32,59.17159763,672b5b677b0aacba1cf83b87,69b92ab4aef6dee357cd729a,69b92b4c58ce1b3cd75b9812,0.1707,0.1707,1,28,190,95,1,eightseven,,,,,,,,,,,,,,,,,,,,,,,,,,,,,,,,,,,,,,,,,,,,,,,,,,,,,,,,,,,,,,,,,,,,,,,,,,,,,,,,,,,,,,,,,,,,,,,,,,,,,,,,,,,,,,,,,,,,,,,,,,,,,,,,,,,,,,,,,
,,672b5b677b0aacba1cf83b87,2026-03-17_12h41.30.897,kallum_motion_pilot_GIST_update_2,2026.1.1,Win32,59.17159763,672b5b677b0aacba1cf83b87,69b92ab4aef6dee357cd729a,69b92b4c58ce1b3cd75b9812,0.1712,0.1713,1,29,191,126,1,eightsix,,,,,,,,,,,,,,,,,,,,,,,,,,,,,,,,,,,,,,,,,,,,,,,,,,,,,,,,,,,,,,,,,,,,,,,,,,,,,,,,,,,,,,,,,,,,,,,,,,,,,,,,,,,,,,,,,,,,,,,,,,,,,,,,,,,,,,,,,
,,672b5b677b0aacba1cf83b87,2026-03-17_12h41.30.897,kallum_motion_pilot_GIST_update_2,2026.1.1,Win32,59.17159763,672b5b677b0aacba1cf83b87,69b92ab4aef6dee357cd729a,69b92b4c58ce1b3cd75b9812,0.1721,0.1721,1,30,192,92,1,sevenfive,,,,,,,,,,,,,,,,,,,,,,,,,,,,,,,,,,,,,,,,,,,,,,,,,,,,,,,,,,,,,,,,,,,,,,,,,,,,,,,,,,,,,,,,,,,,,,,,,,,,,,,,,,,,,,,,,,,,,,,,,,,,,,,,,,,,,,,,,
,,672b5b677b0aacba1cf83b87,2026-03-17_12h41.30.897,kallum_motion_pilot_GIST_update_2,2026.1.1,Win32,59.17159763,672b5b677b0aacba1cf83b87,69b92ab4aef6dee357cd729a,69b92b4c58ce1b3cd75b9812,0.1724,0.1725,1,31,193,148,1,sevenfive,,,,,,,,,,,,,,,,,,,,,,,,,,,,,,,,,,,,,,,,,,,,,,,,,,,,,,,,,,,,,,,,,,,,,,,,,,,,,,,,,,,,,,,,,,,,,,,,,,,,,,,,,,,,,,,,,,,,,,,,,,,,,,,,,,,,,,,,,
,,672b5b677b0aacba1cf83b87,2026-03-17_12h41.30.897,kallum_motion_pilot_GIST_update_2,2026.1.1,Win32,59.17159763,672b5b677b0aacba1cf83b87,69b92ab4aef6dee357cd729a,69b92b4c58ce1b3cd75b9812,0.1731,0.1731,1,32,194,47,1,fourthree,,,,,,,,,,,,,,,,,,,,,,,,,,,,,,,,,,,,,,,,,,,,,,,,,,,,,,,,,,,,,,,,,,,,,,,,,,,,,,,,,,,,,,,,,,,,,,,,,,,,,,,,,,,,,,,,,,,,,,,,,,,,,,,,,,,,,,,,,
,,672b5b677b0aacba1cf83b87,2026-03-17_12h41.30.897,kallum_motion_pilot_GIST_update_2,2026.1.1,Win32,59.17159763,672b5b677b0aacba1cf83b87,69b92ab4aef6dee357cd729a,69b92b4c58ce1b3cd75b9812,0.1737,0.1738,1,33,195,35,1,twofour,,,,,,,,,,,,,,,,,,,,,,,,,,,,,,,,,,,,,,,,,,,,,,,,,,,,,,,,,,,,,,,,,,,,,,,,,,,,,,,,,,,,,,,,,,,,,,,,,,,,,,,,,,,,,,,,,,,,,,,,,,,,,,,,,,,,,,,,,
,,672b5b677b0aacba1cf83b87,2026-03-17_12h41.30.897,kallum_motion_pilot_GIST_update_2,2026.1.1,Win32,59.17159763,672b5b677b0aacba1cf83b87,69b92ab4aef6dee357cd729a,69b92b4c58ce1b3cd75b9812,0.1743,0.1743,1,34,196,84,1,sevenfive,,,,,,,,,,,,,,,,,,,,,,,,,,,,,,,,,,,,,,,,,,,,,,,,,,,,,,,,,,,,,,,,,,,,,,,,,,,,,,,,,,,,,,,,,,,,,,,,,,,,,,,,,,,,,,,,,,,,,,,,,,,,,,,,,,,,,,,,,
,,672b5b677b0aacba1cf83b87,2026-03-17_12h41.30.897,kallum_motion_pilot_GIST_update_2,2026.1.1,Win32,59.17159763,672b5b677b0aacba1cf83b87,69b92ab4aef6dee357cd729a,69b92b4c58ce1b3cd75b9812,0.1747,0.1748,1,35,197,100,1,sevenfive,,,,,,,,,,,,,,,,,,,,,,,,,,,,,,,,,,,,,,,,,,,,,,,,,,,,,,,,,,,,,,,,,,,,,,,,,,,,,,,,,,,,,,,,,,,,,,,,,,,,,,,,,,,,,,,,,,,,,,,,,,,,,,,,,,,,,,,,,
,,672b5b677b0aacba1cf83b87,2026-03-17_12h41.30.897,kallum_motion_pilot_GIST_update_2,2026.1.1,Win32,59.17159763,672b5b677b0aacba1cf83b87,69b92ab4aef6dee357cd729a,69b92b4c58ce1b3cd75b9812,0.1752,0.1753,1,36,198,152,1,fivesix,,,,,,,,,,,,,,,,,,,,,,,,,,,,,,,,,,,,,,,,,,,,,,,,,,,,,,,,,,,,,,,,,,,,,,,,,,,,,,,,,,,,,,,,,,,,,,,,,,,,,,,,,,,,,,,,,,,,,,,,,,,,,,,,,,,,,,,,,
,,672b5b677b0aacba1cf83b87,2026-03-17_12h41.30.897,kallum_motion_pilot_GIST_update_2,2026.1.1,Win32,59.17159763,672b5b677b0aacba1cf83b87,69b92ab4aef6dee357cd729a,69b92b4c58ce1b3cd75b9812,0.1757,0.1758,1,37,199,13,1,threefour,,,,,,,,,,,,,,,,,,,,,,,,,,,,,,,,,,,,,,,,,,,,,,,,,,,,,,,,,,,,,,,,,,,,,,,,,,,,,,,,,,,,,,,,,,,,,,,,,,,,,,,,,,,,,,,,,,,,,,,,,,,,,,,,,,,,,,,,,
,,672b5b677b0aacba1cf83b87,2026-03-17_12h41.30.897,kallum_motion_pilot_GIST_update_2,2026.1.1,Win32,59.17159763,672b5b677b0aacba1cf83b87,69b92ab4aef6dee357cd729a,69b92b4c58ce1b3cd75b9812,0.1763,0.1763,1,38,200,43,1,twofour,,,,,,,,,,,,,,,,,,,,,,,,,,,,,,,,,,,,,,,,,,,,,,,,,,,,,,,,,,,,,,,,,,,,,,,,,,,,,,,,,,,,,,,,,,,,,,,,,,,,,,,,,,,,,,,,,,,,,,,,,,,,,,,,,,,,,,,,,
,,672b5b677b0aacba1cf83b87,2026-03-17_12h41.30.897,kallum_motion_pilot_GIST_update_2,2026.1.1,Win32,59.17159763,672b5b677b0aacba1cf83b87,69b92ab4aef6dee357cd729a,69b92b4c58ce1b3cd75b9812,0.1768,0.1772,1,39,201,156,1,sevenfive,,,,,,,,,,,,,,,,,,,,,,,,,,,,,,,,,,,,,,,,,,,,,,,,,,,,,,,,,,,,,,,,,,,,,,,,,,,,,,,,,,,,,,,,,,,,,,,,,,,,,,,,,,,,,,,,,,,,,,,,,,,,,,,,,,,,,,,,,
,,672b5b677b0aacba1cf83b87,2026-03-17_12h41.30.897,kallum_motion_pilot_GIST_update_2,2026.1.1,Win32,59.17159763,672b5b677b0aacba1cf83b87,69b92ab4aef6dee357cd729a,69b92b4c58ce1b3cd75b9812,0.1778,0.178,1,40,202,0,1,onetwo,,,,,,,,,,,,,,,,,,,,,,,,,,,,,,,,,,,,,,,,,,,,,,,,,,,,,,,,,,,,,,,,,,,,,,,,,,,,,,,,,,,,,,,,,,,,,,,,,,,,,,,,,,,,,,,,,,,,,,,,,,,,,,,,,,,,,,,,,
,,672b5b677b0aacba1cf83b87,2026-03-17_12h41.30.897,kallum_motion_pilot_GIST_update_2,2026.1.1,Win32,59.17159763,672b5b677b0aacba1cf83b87,69b92ab4aef6dee357cd729a,69b92b4c58ce1b3cd75b9812,0.1785,0.1786,1,41,203,108,1,sevenfive,,,,,,,,,,,,,,,,,,,,,,,,,,,,,,,,,,,,,,,,,,,,,,,,,,,,,,,,,,,,,,,,,,,,,,,,,,,,,,,,,,,,,,,,,,,,,,,,,,,,,,,,,,,,,,,,,,,,,,,,,,,,,,,,,,,,,,,,,
,,672b5b677b0aacba1cf83b87,2026-03-17_12h41.30.897,kallum_motion_pilot_GIST_update_2,2026.1.1,Win32,59.17159763,672b5b677b0aacba1cf83b87,69b92ab4aef6dee357cd729a,69b92b4c58ce1b3cd75b9812,0.1789,0.179,1,42,204,26,1,twoone,,,,,,,,,,,,,,,,,,,,,,,,,,,,,,,,,,,,,,,,,,,,,,,,,,,,,,,,,,,,,,,,,,,,,,,,,,,,,,,,,,,,,,,,,,,,,,,,,,,,,,,,,,,,,,,,,,,,,,,,,,,,,,,,,,,,,,,,,
,,672b5b677b0aacba1cf83b87,2026-03-17_12h41.30.897,kallum_motion_pilot_GIST_update_2,2026.1.1,Win32,59.17159763,672b5b677b0aacba1cf83b87,69b92ab4aef6dee357cd729a,69b92b4c58ce1b3cd75b9812,0.1805,0.1806,1,43,205,7,1,fourthree,,,,,,,,,,,,,,,,,,,,,,,,,,,,,,,,,,,,,,,,,,,,,,,,,,,,,,,,,,,,,,,,,,,,,,,,,,,,,,,,,,,,,,,,,,,,,,,,,,,,,,,,,,,,,,,,,,,,,,,,,,,,,,,,,,,,,,,,,
,,672b5b677b0aacba1cf83b87,2026-03-17_12h41.30.897,kallum_motion_pilot_GIST_update_2,2026.1.1,Win32,59.17159763,672b5b677b0aacba1cf83b87,69b92ab4aef6dee357cd729a,69b92b4c58ce1b3cd75b9812,0.1812,0.1812,1,44,206,135,1,eightseven,,,,,,,,,,,,,,,,,,,,,,,,,,,,,,,,,,,,,,,,,,,,,,,,,,,,,,,,,,,,,,,,,,,,,,,,,,,,,,,,,,,,,,,,,,,,,,,,,,,,,,,,,,,,,,,,,,,,,,,,,,,,,,,,,,,,,,,,,
,,672b5b677b0aacba1cf83b87,2026-03-17_12h41.30.897,kallum_motion_pilot_GIST_update_2,2026.1.1,Win32,59.17159763,672b5b677b0aacba1cf83b87,69b92ab4aef6dee357cd729a,69b92b4c58ce1b3cd75b9812,0.1816,0.1817,1,45,207,114,1,sixfive,,,,,,,,,,,,,,,,,,,,,,,,,,,,,,,,,,,,,,,,,,,,,,,,,,,,,,,,,,,,,,,,,,,,,,,,,,,,,,,,,,,,,,,,,,,,,,,,,,,,,,,,,,,,,,,,,,,,,,,,,,,,,,,,,,,,,,,,,
,,672b5b677b0aacba1cf83b87,2026-03-17_12h41.30.897,kallum_motion_pilot_GIST_update_2,2026.1.1,Win32,59.17159763,672b5b677b0aacba1cf83b87,69b92ab4aef6dee357cd729a,69b92b4c58ce1b3cd75b9812,0.1822,0.1822,1,46,208,1,1,onethree,,,,,,,,,,,,,,,,,,,,,,,,,,,,,,,,,,,,,,,,,,,,,,,,,,,,,,,,,,,,,,,,,,,,,,,,,,,,,,,,,,,,,,,,,,,,,,,,,,,,,,,,,,,,,,,,,,,,,,,,,,,,,,,,,,,,,,,,,
,,672b5b677b0aacba1cf83b87,2026-03-17_12h41.30.897,kallum_motion_pilot_GIST_update_2,2026.1.1,Win32,59.17159763,672b5b677b0aacba1cf83b87,69b92ab4aef6dee357cd729a,69b92b4c58ce1b3cd75b9812,0.1827,0.1827,1,47,209,130,1,sixfive,,,,,,,,,,,,,,,,,,,,,,,,,,,,,,,,,,,,,,,,,,,,,,,,,,,,,,,,,,,,,,,,,,,,,,,,,,,,,,,,,,,,,,,,,,,,,,,,,,,,,,,,,,,,,,,,,,,,,,,,,,,,,,,,,,,,,,,,,
,,672b5b677b0aacba1cf83b87,2026-03-17_12h41.30.897,kallum_motion_pilot_GIST_update_2,2026.1.1,Win32,59.17159763,672b5b677b0aacba1cf83b87,69b92ab4aef6dee357cd729a,69b92b4c58ce1b3cd75b9812,0.1832,0.1832,1,48,210,71,1,fourthree,,,,,,,,,,,,,,,,,,,,,,,,,,,,,,,,,,,,,,,,,,,,,,,,,,,,,,,,,,,,,,,,,,,,,,,,,,,,,,,,,,,,,,,,,,,,,,,,,,,,,,,,,,,,,,,,,,,,,,,,,,,,,,,,,,,,,,,,,
,,672b5b677b0aacba1cf83b87,2026-03-17_12h41.30.897,kallum_motion_pilot_GIST_update_2,2026.1.1,Win32,59.17159763,672b5b677b0aacba1cf83b87,69b92ab4aef6dee357cd729a,69b92b4c58ce1b3cd75b9812,0.1837,0.1837,1,49,211,52,1,threeone,,,,,,,,,,,,,,,,,,,,,,,,,,,,,,,,,,,,,,,,,,,,,,,,,,,,,,,,,,,,,,,,,,,,,,,,,,,,,,,,,,,,,,,,,,,,,,,,,,,,,,,,,,,,,,,,,,,,,,,,,,,,,,,,,,,,,,,,,
,,672b5b677b0aacba1cf83b87,2026-03-17_12h41.30.897,kallum_motion_pilot_GIST_update_2,2026.1.1,Win32,59.17159763,672b5b677b0aacba1cf83b87,69b92ab4aef6dee357cd729a,69b92b4c58ce1b3cd75b9812,0.1842,0.1842,1,50,212,147,1,sixeight,,,,,,,,,,,,,,,,,,,,,,,,,,,,,,,,,,,,,,,,,,,,,,,,,,,,,,,,,,,,,,,,,,,,,,,,,,,,,,,,,,,,,,,,,,,,,,,,,,,,,,,,,,,,,,,,,,,,,,,,,,,,,,,,,,,,,,,,,
,,672b5b677b0aacba1cf83b87,2026-03-17_12h41.30.897,kallum_motion_pilot_GIST_update_2,2026.1.1,Win32,59.17159763,672b5b677b0aacba1cf83b87,69b92ab4aef6dee357cd729a,69b92b4c58ce1b3cd75b9812,0.1846,0.1846,1,51,213,57,1,onethree,,,,,,,,,,,,,,,,,,,,,,,,,,,,,,,,,,,,,,,,,,,,,,,,,,,,,,,,,,,,,,,,,,,,,,,,,,,,,,,,,,,,,,,,,,,,,,,,,,,,,,,,,,,,,,,,,,,,,,,,,,,,,,,,,,,,,,,,,
,,672b5b677b0aacba1cf83b87,2026-03-17_12h41.30.897,kallum_motion_pilot_GIST_update_2,2026.1.1,Win32,59.17159763,672b5b677b0aacba1cf83b87,69b92ab4aef6dee357cd729a,69b92b4c58ce1b3cd75b9812,0.1853,0.1854,1,52,214,83,1,sixeight,,,,,,,,,,,,,,,,,,,,,,,,,,,,,,,,,,,,,,,,,,,,,,,,,,,,,,,,,,,,,,,,,,,,,,,,,,,,,,,,,,,,,,,,,,,,,,,,,,,,,,,,,,,,,,,,,,,,,,,,,,,,,,,,,,,,,,,,,
,,672b5b677b0aacba1cf83b87,2026-03-17_12h41.30.897,kallum_motion_pilot_GIST_update_2,2026.1.1,Win32,59.17159763,672b5b677b0aacba1cf83b87,69b92ab4aef6dee357cd729a,69b92b4c58ce1b3cd75b9812,0.1859,0.1859,1,53,215,23,1,fourthree,,,,,,,,,,,,,,,,,,,,,,,,,,,,,,,,,,,,,,,,,,,,,,,,,,,,,,,,,,,,,,,,,,,,,,,,,,,,,,,,,,,,,,,,,,,,,,,,,,,,,,,,,,,,,,,,,,,,,,,,,,,,,,,,,,,,,,,,,
,,672b5b677b0aacba1cf83b87,2026-03-17_12h41.30.897,kallum_motion_pilot_GIST_update_2,2026.1.1,Win32,59.17159763,672b5b677b0aacba1cf83b87,69b92ab4aef6dee357cd729a,69b92b4c58ce1b3cd75b9812,0.1865,0.1865,1,54,216,41,1,onethree,,,,,,,,,,,,,,,,,,,,,,,,,,,,,,,,,,,,,,,,,,,,,,,,,,,,,,,,,,,,,,,,,,,,,,,,,,,,,,,,,,,,,,,,,,,,,,,,,,,,,,,,,,,,,,,,,,,,,,,,,,,,,,,,,,,,,,,,,
,,672b5b677b0aacba1cf83b87,2026-03-17_12h41.30.897,kallum_motion_pilot_GIST_update_2,2026.1.1,Win32,59.17159763,672b5b677b0aacba1cf83b87,69b92ab4aef6dee357cd729a,69b92b4c58ce1b3cd75b9812,0.1877,0.1877,1,55,217,68,1,threeone,,,,,,,,,,,,,,,,,,,,,,,,,,,,,,,,,,,,,,,,,,,,,,,,,,,,,,,,,,,,,,,,,,,,,,,,,,,,,,,,,,,,,,,,,,,,,,,,,,,,,,,,,,,,,,,,,,,,,,,,,,,,,,,,,,,,,,,,,
,,672b5b677b0aacba1cf83b87,2026-03-17_12h41.30.897,kallum_motion_pilot_GIST_update_2,2026.1.1,Win32,59.17159763,672b5b677b0aacba1cf83b87,69b92ab4aef6dee357cd729a,69b92b4c58ce1b3cd75b9812,0.1883,0.1883,1,56,218,89,1,fiveseven,,,,,,,,,,,,,,,,,,,,,,,,,,,,,,,,,,,,,,,,,,,,,,,,,,,,,,,,,,,,,,,,,,,,,,,,,,,,,,,,,,,,,,,,,,,,,,,,,,,,,,,,,,,,,,,,,,,,,,,,,,,,,,,,,,,,,,,,,
,,672b5b677b0aacba1cf83b87,2026-03-17_12h41.30.897,kallum_motion_pilot_GIST_update_2,2026.1.1,Win32,59.17159763,672b5b677b0aacba1cf83b87,69b92ab4aef6dee357cd729a,69b92b4c58ce1b3cd75b9812,0.1889,0.1889,1,57,219,128,1,fivesix,,,,,,,,,,,,,,,,,,,,,,,,,,,,,,,,,,,,,,,,,,,,,,,,,,,,,,,,,,,,,,,,,,,,,,,,,,,,,,,,,,,,,,,,,,,,,,,,,,,,,,,,,,,,,,,,,,,,,,,,,,,,,,,,,,,,,,,,,
,,672b5b677b0aacba1cf83b87,2026-03-17_12h41.30.897,kallum_motion_pilot_GIST_update_2,2026.1.1,Win32,59.17159763,672b5b677b0aacba1cf83b87,69b92ab4aef6dee357cd729a,69b92b4c58ce1b3cd75b9812,0.1894,0.1894,1,58,220,5,1,threefour,,,,,,,,,,,,,,,,,,,,,,,,,,,,,,,,,,,,,,,,,,,,,,,,,,,,,,,,,,,,,,,,,,,,,,,,,,,,,,,,,,,,,,,,,,,,,,,,,,,,,,,,,,,,,,,,,,,,,,,,,,,,,,,,,,,,,,,,,
,,672b5b677b0aacba1cf83b87,2026-03-17_12h41.30.897,kallum_motion_pilot_GIST_update_2,2026.1.1,Win32,59.17159763,672b5b677b0aacba1cf83b87,69b92ab4aef6dee357cd729a,69b92b4c58ce1b3cd75b9812,0.1899,0.1899,1,59,221,45,1,threefour,,,,,,,,,,,,,,,,,,,,,,,,,,,,,,,,,,,,,,,,,,,,,,,,,,,,,,,,,,,,,,,,,,,,,,,,,,,,,,,,,,,,,,,,,,,,,,,,,,,,,,,,,,,,,,,,,,,,,,,,,,,,,,,,,,,,,,,,,
,,672b5b677b0aacba1cf83b87,2026-03-17_12h41.30.897,kallum_motion_pilot_GIST_update_2,2026.1.1,Win32,59.17159763,672b5b677b0aacba1cf83b87,69b92ab4aef6dee357cd729a,69b92b4c58ce1b3cd75b9812,0.1903,0.1903,1,60,222,18,1,twoone,,,,,,,,,,,,,,,,,,,,,,,,,,,,,,,,,,,,,,,,,,,,,,,,,,,,,,,,,,,,,,,,,,,,,,,,,,,,,,,,,,,,,,,,,,,,,,,,,,,,,,,,,,,,,,,,,,,,,,,,,,,,,,,,,,,,,,,,,
,,672b5b677b0aacba1cf83b87,2026-03-17_12h41.30.897,kallum_motion_pilot_GIST_update_2,2026.1.1,Win32,59.17159763,672b5b677b0aacba1cf83b87,69b92ab4aef6dee357cd729a,69b92b4c58ce1b3cd75b9812,0.191,0.191,1,61,223,91,1,sixeight,,,,,,,,,,,,,,,,,,,,,,,,,,,,,,,,,,,,,,,,,,,,,,,,,,,,,,,,,,,,,,,,,,,,,,,,,,,,,,,,,,,,,,,,,,,,,,,,,,,,,,,,,,,,,,,,,,,,,,,,,,,,,,,,,,,,,,,,,
,,672b5b677b0aacba1cf83b87,2026-03-17_12h41.30.897,kallum_motion_pilot_GIST_update_2,2026.1.1,Win32,59.17159763,672b5b677b0aacba1cf83b87,69b92ab4aef6dee357cd729a,69b92b4c58ce1b3cd75b9812,0.1914,0.1914,1,62,224,49,1,onethree,,,,,,,,,,,,,,,,,,,,,,,,,,,,,,,,,,,,,,,,,,,,,,,,,,,,,,,,,,,,,,,,,,,,,,,,,,,,,,,,,,,,,,,,,,,,,,,,,,,,,,,,,,,,,,,,,,,,,,,,,,,,,,,,,,,,,,,,,
,,672b5b677b0aacba1cf83b87,2026-03-17_12h41.30.897,kallum_motion_pilot_GIST_update_2,2026.1.1,Win32,59.17159763,672b5b677b0aacba1cf83b87,69b92ab4aef6dee357cd729a,69b92b4c58ce1b3cd75b9812,0.1919,0.1919,1,63,225,111,1,eightseven,,,,,,,,,,,,,,,,,,,,,,,,,,,,,,,,,,,,,,,,,,,,,,,,,,,,,,,,,,,,,,,,,,,,,,,,,,,,,,,,,,,,,,,,,,,,,,,,,,,,,,,,,,,,,,,,,,,,,,,,,,,,,,,,,,,,,,,,,
,,672b5b677b0aacba1cf83b87,2026-03-17_12h41.30.897,kallum_motion_pilot_GIST_update_2,2026.1.1,Win32,59.17159763,672b5b677b0aacba1cf83b87,69b92ab4aef6dee357cd729a,69b92b4c58ce1b3cd75b9812,0.1923,0.1924,1,64,226,54,1,fourtwo,,,,,,,,,,,,,,,,,,,,,,,,,,,,,,,,,,,,,,,,,,,,,,,,,,,,,,,,,,,,,,,,,,,,,,,,,,,,,,,,,,,,,,,,,,,,,,,,,,,,,,,,,,,,,,,,,,,,,,,,,,,,,,,,,,,,,,,,,
,,672b5b677b0aacba1cf83b87,2026-03-17_12h41.30.897,kallum_motion_pilot_GIST_update_2,2026.1.1,Win32,59.17159763,672b5b677b0aacba1cf83b87,69b92ab4aef6dee357cd729a,69b92b4c58ce1b3cd75b9812,0.1928,0.1929,1,65,227,110,1,eightsix,,,,,,,,,,,,,,,,,,,,,,,,,,,,,,,,,,,,,,,,,,,,,,,,,,,,,,,,,,,,,,,,,,,,,,,,,,,,,,,,,,,,,,,,,,,,,,,,,,,,,,,,,,,,,,,,,,,,,,,,,,,,,,,,,,,,,,,,,
,,672b5b677b0aacba1cf83b87,2026-03-17_12h41.30.897,kallum_motion_pilot_GIST_update_2,2026.1.1,Win32,59.17159763,672b5b677b0aacba1cf83b87,69b92ab4aef6dee357cd729a,69b92b4c58ce1b3cd75b9812,0.1934,0.1934,1,66,228,25,1,onethree,,,,,,,,,,,,,,,,,,,,,,,,,,,,,,,,,,,,,,,,,,,,,,,,,,,,,,,,,,,,,,,,,,,,,,,,,,,,,,,,,,,,,,,,,,,,,,,,,,,,,,,,,,,,,,,,,,,,,,,,,,,,,,,,,,,,,,,,,
,,672b5b677b0aacba1cf83b87,2026-03-17_12h41.30.897,kallum_motion_pilot_GIST_update_2,2026.1.1,Win32,59.17159763,672b5b677b0aacba1cf83b87,69b92ab4aef6dee357cd729a,69b92b4c58ce1b3cd75b9812,0.1994,0.1994,1,67,229,50,1,twoone,,,,,,,,,,,,,,,,,,,,,,,,,,,,,,,,,,,,,,,,,,,,,,,,,,,,,,,,,,,,,,,,,,,,,,,,,,,,,,,,,,,,,,,,,,,,,,,,,,,,,,,,,,,,,,,,,,,,,,,,,,,,,,,,,,,,,,,,,
,,672b5b677b0aacba1cf83b87,2026-03-17_12h41.30.897,kallum_motion_pilot_GIST_update_2,2026.1.1,Win32,59.17159763,672b5b677b0aacba1cf83b87,69b92ab4aef6dee357cd729a,69b92b4c58ce1b3cd75b9812,0.2,0.2,1,68,230,42,1,twoone,,,,,,,,,,,,,,,,,,,,,,,,,,,,,,,,,,,,,,,,,,,,,,,,,,,,,,,,,,,,,,,,,,,,,,,,,,,,,,,,,,,,,,,,,,,,,,,,,,,,,,,,,,,,,,,,,,,,,,,,,,,,,,,,,,,,,,,,,
,,672b5b677b0aacba1cf83b87,2026-03-17_12h41.30.897,kallum_motion_pilot_GIST_update_2,2026.1.1,Win32,59.17159763,672b5b677b0aacba1cf83b87,69b92ab4aef6dee357cd729a,69b92b4c58ce1b3cd75b9812,0.2005,0.2005,1,69,231,55,1,fourthree,,,,,,,,,,,,,,,,,,,,,,,,,,,,,,,,,,,,,,,,,,,,,,,,,,,,,,,,,,,,,,,,,,,,,,,,,,,,,,,,,,,,,,,,,,,,,,,,,,,,,,,,,,,,,,,,,,,,,,,,,,,,,,,,,,,,,,,,,
,,672b5b677b0aacba1cf83b87,2026-03-17_12h41.30.897,kallum_motion_pilot_GIST_update_2,2026.1.1,Win32,59.17159763,672b5b677b0aacba1cf83b87,69b92ab4aef6dee357cd729a,69b92b4c58ce1b3cd75b9812,0.201,0.201,1,70,232,144,1,fivesix,,,,,,,,,,,,,,,,,,,,,,,,,,,,,,,,,,,,,,,,,,,,,,,,,,,,,,,,,,,,,,,,,,,,,,,,,,,,,,,,,,,,,,,,,,,,,,,,,,,,,,,,,,,,,,,,,,,,,,,,,,,,,,,,,,,,,,,,,
,,672b5b677b0aacba1cf83b87,2026-03-17_12h41.30.897,kallum_motion_pilot_GIST_update_2,2026.1.1,Win32,59.17159763,672b5b677b0aacba1cf83b87,69b92ab4aef6dee357cd729a,69b92b4c58ce1b3cd75b9812,0.2014,0.2014,1,71,233,46,1,fourtwo,,,,,,,,,,,,,,,,,,,,,,,,,,,,,,,,,,,,,,,,,,,,,,,,,,,,,,,,,,,,,,,,,,,,,,,,,,,,,,,,,,,,,,,,,,,,,,,,,,,,,,,,,,,,,,,,,,,,,,,,,,,,,,,,,,,,,,,,,
,,672b5b677b0aacba1cf83b87,2026-03-17_12h41.30.897,kallum_motion_pilot_GIST_update_2,2026.1.1,Win32,59.17159763,672b5b677b0aacba1cf83b87,69b92ab4aef6dee357cd729a,69b92b4c58ce1b3cd75b9812,0.2021,0.2021,1,72,234,107,1,sixeight,,,,,,,,,,,,,,,,,,,,,,,,,,,,,,,,,,,,,,,,,,,,,,,,,,,,,,,,,,,,,,,,,,,,,,,,,,,,,,,,,,,,,,,,,,,,,,,,,,,,,,,,,,,,,,,,,,,,,,,,,,,,,,,,,,,,,,,,,
,,672b5b677b0aacba1cf83b87,2026-03-17_12h41.30.897,kallum_motion_pilot_GIST_update_2,2026.1.1,Win32,59.17159763,672b5b677b0aacba1cf83b87,69b92ab4aef6dee357cd729a,69b92b4c58ce1b3cd75b9812,0.2026,0.2026,1,73,235,8,1,onetwo,,,,,,,,,,,,,,,,,,,,,,,,,,,,,,,,,,,,,,,,,,,,,,,,,,,,,,,,,,,,,,,,,,,,,,,,,,,,,,,,,,,,,,,,,,,,,,,,,,,,,,,,,,,,,,,,,,,,,,,,,,,,,,,,,,,,,,,,,
,,672b5b677b0aacba1cf83b87,2026-03-17_12h41.30.897,kallum_motion_pilot_GIST_update_2,2026.1.1,Win32,59.17159763,672b5b677b0aacba1cf83b87,69b92ab4aef6dee357cd729a,69b92b4c58ce1b3cd75b9812,0.2031,0.2031,1,74,236,161,1,fiveseven,,,,,,,,,,,,,,,,,,,,,,,,,,,,,,,,,,,,,,,,,,,,,,,,,,,,,,,,,,,,,,,,,,,,,,,,,,,,,,,,,,,,,,,,,,,,,,,,,,,,,,,,,,,,,,,,,,,,,,,,,,,,,,,,,,,,,,,,,
,,672b5b677b0aacba1cf83b87,2026-03-17_12h41.30.897,kallum_motion_pilot_GIST_update_2,2026.1.1,Win32,59.17159763,672b5b677b0aacba1cf83b87,69b92ab4aef6dee357cd729a,69b92b4c58ce1b3cd75b9812,0.2037,0.2037,1,75,237,96,1,fivesix,,,,,,,,,,,,,,,,,,,,,,,,,,,,,,,,,,,,,,,,,,,,,,,,,,,,,,,,,,,,,,,,,,,,,,,,,,,,,,,,,,,,,,,,,,,,,,,,,,,,,,,,,,,,,,,,,,,,,,,,,,,,,,,,,,,,,,,,,
,,672b5b677b0aacba1cf83b87,2026-03-17_12h41.30.897,kallum_motion_pilot_GIST_update_2,2026.1.1,Win32,59.17159763,672b5b677b0aacba1cf83b87,69b92ab4aef6dee357cd729a,69b92b4c58ce1b3cd75b9812,0.2041,0.2041,1,76,238,140,1,sevenfive,,,,,,,,,,,,,,,,,,,,,,,,,,,,,,,,,,,,,,,,,,,,,,,,,,,,,,,,,,,,,,,,,,,,,,,,,,,,,,,,,,,,,,,,,,,,,,,,,,,,,,,,,,,,,,,,,,,,,,,,,,,,,,,,,,,,,,,,,
,,672b5b677b0aacba1cf83b87,2026-03-17_12h41.30.897,kallum_motion_pilot_GIST_update_2,2026.1.1,Win32,59.17159763,672b5b677b0aacba1cf83b87,69b92ab4aef6dee357cd729a,69b92b4c58ce1b3cd75b9812,0.2046,0.2047,1,77,239,102,1,eightsix,,,,,,,,,,,,,,,,,,,,,,,,,,,,,,,,,,,,,,,,,,,,,,,,,,,,,,,,,,,,,,,,,,,,,,,,,,,,,,,,,,,,,,,,,,,,,,,,,,,,,,,,,,,,,,,,,,,,,,,,,,,,,,,,,,,,,,,,,
,,672b5b677b0aacba1cf83b87,2026-03-17_12h41.30.897,kallum_motion_pilot_GIST_update_2,2026.1.1,Win32,59.17159763,672b5b677b0aacba1cf83b87,69b92ab4aef6dee357cd729a,69b92b4c58ce1b3cd75b9812,0.2051,0.2051,1,78,240,24,1,onetwo,,,,,,,,,,,,,,,,,,,,,,,,,,,,,,,,,,,,,,,,,,,,,,,,,,,,,,,,,,,,,,,,,,,,,,,,,,,,,,,,,,,,,,,,,,,,,,,,,,,,,,,,,,,,,,,,,,,,,,,,,,,,,,,,,,,,,,,,,
,,672b5b677b0aacba1cf83b87,2026-03-17_12h41.30.897,kallum_motion_pilot_GIST_update_2,2026.1.1,Win32,59.17159763,672b5b677b0aacba1cf83b87,69b92ab4aef6dee357cd729a,69b92b4c58ce1b3cd75b9812,0.2055,0.2055,1,79,241,39,1,fourthree,,,,,,,,,,,,,,,,,,,,,,,,,,,,,,,,,,,,,,,,,,,,,,,,,,,,,,,,,,,,,,,,,,,,,,,,,,,,,,,,,,,,,,,,,,,,,,,,,,,,,,,,,,,,,,,,,,,,,,,,,,,,,,,,,,,,,,,,,
,,672b5b677b0aacba1cf83b87,2026-03-17_12h41.30.897,kallum_motion_pilot_GIST_update_2,2026.1.1,Win32,59.17159763,672b5b677b0aacba1cf83b87,69b92ab4aef6dee357cd729a,69b92b4c58ce1b3cd75b9812,0.206,0.206,1,80,242,6,1,fourtwo,,,,,,,,,,,,,,,,,,,,,,,,,,,,,,,,,,,,,,,,,,,,,,,,,,,,,,,,,,,,,,,,,,,,,,,,,,,,,,,,,,,,,,,,,,,,,,,,,,,,,,,,,,,,,,,,,,,,,,,,,,,,,,,,,,,,,,,,,
,,672b5b677b0aacba1cf83b87,2026-03-17_12h41.30.897,kallum_motion_pilot_GIST_update_2,2026.1.1,Win32,59.17159763,672b5b677b0aacba1cf83b87,69b92ab4aef6dee357cd729a,69b92b4c58ce1b3cd75b9812,0.2069,0.2069,1,81,243,12,1,threeone,,,,,,,,,,,,,,,,,,,,,,,,,,,,,,,,,,,,,,,,,,,,,,,,,,,,,,,,,,,,,,,,,,,,,,,,,,,,,,,,,,,,,,,,,,,,,,,,,,,,,,,,,,,,,,,,,,,,,,,,,,,,,,,,,,,,,,,,,
,,672b5b677b0aacba1cf83b87,2026-03-17_12h41.30.897,kallum_motion_pilot_GIST_update_2,2026.1.1,Win32,59.17159763,672b5b677b0aacba1cf83b87,69b92ab4aef6dee357cd729a,69b92b4c58ce1b3cd75b9812,0.2075,0.2075,1,82,244,99,1,sixeight,,,,,,,,,,,,,,,,,,,,,,,,,,,,,,,,,,,,,,,,,,,,,,,,,,,,,,,,,,,,,,,,,,,,,,,,,,,,,,,,,,,,,,,,,,,,,,,,,,,,,,,,,,,,,,,,,,,,,,,,,,,,,,,,,,,,,,,,,
,,672b5b677b0aacba1cf83b87,2026-03-17_12h41.30.897,kallum_motion_pilot_GIST_update_2,2026.1.1,Win32,59.17159763,672b5b677b0aacba1cf83b87,69b92ab4aef6dee357cd729a,69b92b4c58ce1b3cd75b9812,0.208,0.2081,1,83,245,21,1,threefour,,,,,,,,,,,,,,,,,,,,,,,,,,,,,,,,,,,,,,,,,,,,,,,,,,,,,,,,,,,,,,,,,,,,,,,,,,,,,,,,,,,,,,,,,,,,,,,,,,,,,,,,,,,,,,,,,,,,,,,,,,,,,,,,,,,,,,,,,
,,672b5b677b0aacba1cf83b87,2026-03-17_12h41.30.897,kallum_motion_pilot_GIST_update_2,2026.1.1,Win32,59.17159763,672b5b677b0aacba1cf83b87,69b92ab4aef6dee357cd729a,69b92b4c58ce1b3cd75b9812,0.2085,0.2086,1,84,246,98,1,sixfive,,,,,,,,,,,,,,,,,,,,,,,,,,,,,,,,,,,,,,,,,,,,,,,,,,,,,,,,,,,,,,,,,,,,,,,,,,,,,,,,,,,,,,,,,,,,,,,,,,,,,,,,,,,,,,,,,,,,,,,,,,,,,,,,,,,,,,,,,
,,672b5b677b0aacba1cf83b87,2026-03-17_12h41.30.897,kallum_motion_pilot_GIST_update_2,2026.1.1,Win32,59.17159763,672b5b677b0aacba1cf83b87,69b92ab4aef6dee357cd729a,69b92b4c58ce1b3cd75b9812,0.209,0.2091,1,85,247,34,1,twoone,,,,,,,,,,,,,,,,,,,,,,,,,,,,,,,,,,,,,,,,,,,,,,,,,,,,,,,,,,,,,,,,,,,,,,,,,,,,,,,,,,,,,,,,,,,,,,,,,,,,,,,,,,,,,,,,,,,,,,,,,,,,,,,,,,,,,,,,,
,,672b5b677b0aacba1cf83b87,2026-03-17_12h41.30.897,kallum_motion_pilot_GIST_update_2,2026.1.1,Win32,59.17159763,672b5b677b0aacba1cf83b87,69b92ab4aef6dee357cd729a,69b92b4c58ce1b3cd75b9812,0.2095,0.2095,1,86,248,4,1,threeone,,,,,,,,,,,,,,,,,,,,,,,,,,,,,,,,,,,,,,,,,,,,,,,,,,,,,,,,,,,,,,,,,,,,,,,,,,,,,,,,,,,,,,,,,,,,,,,,,,,,,,,,,,,,,,,,,,,,,,,,,,,,,,,,,,,,,,,,,
,,672b5b677b0aacba1cf83b87,2026-03-17_12h41.30.897,kallum_motion_pilot_GIST_update_2,2026.1.1,Win32,59.17159763,672b5b677b0aacba1cf83b87,69b92ab4aef6dee357cd729a,69b92b4c58ce1b3cd75b9812,0.2102,0.2102,1,87,249,142,1,eightsix,,,,,,,,,,,,,,,,,,,,,,,,,,,,,,,,,,,,,,,,,,,,,,,,,,,,,,,,,,,,,,,,,,,,,,,,,,,,,,,,,,,,,,,,,,,,,,,,,,,,,,,,,,,,,,,,,,,,,,,,,,,,,,,,,,,,,,,,,
,,672b5b677b0aacba1cf83b87,2026-03-17_12h41.30.897,kallum_motion_pilot_GIST_update_2,2026.1.1,Win32,59.17159763,672b5b677b0aacba1cf83b87,69b92ab4aef6dee357cd729a,69b92b4c58ce1b3cd75b9812,0.2107,0.2107,1,88,250,64,1,onetwo,,,,,,,,,,,,,,,,,,,,,,,,,,,,,,,,,,,,,,,,,,,,,,,,,,,,,,,,,,,,,,,,,,,,,,,,,,,,,,,,,,,,,,,,,,,,,,,,,,,,,,,,,,,,,,,,,,,,,,,,,,,,,,,,,,,,,,,,,
,,672b5b677b0aacba1cf83b87,2026-03-17_12h41.30.897,kallum_motion_pilot_GIST_update_2,2026.1.1,Win32,59.17159763,672b5b677b0aacba1cf83b87,69b92ab4aef6dee357cd729a,69b92b4c58ce1b3cd75b9812,0.2112,0.2112,1,89,251,155,1,sixeight,,,,,,,,,,,,,,,,,,,,,,,,,,,,,,,,,,,,,,,,,,,,,,,,,,,,,,,,,,,,,,,,,,,,,,,,,,,,,,,,,,,,,,,,,,,,,,,,,,,,,,,,,,,,,,,,,,,,,,,,,,,,,,,,,,,,,,,,,
,,672b5b677b0aacba1cf83b87,2026-03-17_12h41.30.897,kallum_motion_pilot_GIST_update_2,2026.1.1,Win32,59.17159763,672b5b677b0aacba1cf83b87,69b92ab4aef6dee357cd729a,69b92b4c58ce1b3cd75b9812,0.2117,0.2117,1,90,252,133,1,seveneight,,,,,,,,,,,,,,,,,,,,,,,,,,,,,,,,,,,,,,,,,,,,,,,,,,,,,,,,,,,,,,,,,,,,,,,,,,,,,,,,,,,,,,,,,,,,,,,,,,,,,,,,,,,,,,,,,,,,,,,,,,,,,,,,,,,,,,,,,
,,672b5b677b0aacba1cf83b87,2026-03-17_12h41.30.897,kallum_motion_pilot_GIST_update_2,2026.1.1,Win32,59.17159763,672b5b677b0aacba1cf83b87,69b92ab4aef6dee357cd729a,69b92b4c58ce1b3cd75b9812,0.2122,0.2122,1,91,253,86,1,eightsix,,,,,,,,,,,,,,,,,,,,,,,,,,,,,,,,,,,,,,,,,,,,,,,,,,,,,,,,,,,,,,,,,,,,,,,,,,,,,,,,,,,,,,,,,,,,,,,,,,,,,,,,,,,,,,,,,,,,,,,,,,,,,,,,,,,,,,,,,
,,672b5b677b0aacba1cf83b87,2026-03-17_12h41.30.897,kallum_motion_pilot_GIST_update_2,2026.1.1,Win32,59.17159763,672b5b677b0aacba1cf83b87,69b92ab4aef6dee357cd729a,69b92b4c58ce1b3cd75b9812,0.2137,0.2137,1,92,254,11,1,twofour,,,,,,,,,,,,,,,,,,,,,,,,,,,,,,,,,,,,,,,,,,,,,,,,,,,,,,,,,,,,,,,,,,,,,,,,,,,,,,,,,,,,,,,,,,,,,,,,,,,,,,,,,,,,,,,,,,,,,,,,,,,,,,,,,,,,,,,,,
,,672b5b677b0aacba1cf83b87,2026-03-17_12h41.30.897,kallum_motion_pilot_GIST_update_2,2026.1.1,Win32,59.17159763,672b5b677b0aacba1cf83b87,69b92ab4aef6dee357cd729a,69b92b4c58ce1b3cd75b9812,0.2145,0.2146,1,93,255,66,1,twoone,,,,,,,,,,,,,,,,,,,,,,,,,,,,,,,,,,,,,,,,,,,,,,,,,,,,,,,,,,,,,,,,,,,,,,,,,,,,,,,,,,,,,,,,,,,,,,,,,,,,,,,,,,,,,,,,,,,,,,,,,,,,,,,,,,,,,,,,,
,,672b5b677b0aacba1cf83b87,2026-03-17_12h41.30.897,kallum_motion_pilot_GIST_update_2,2026.1.1,Win32,59.17159763,672b5b677b0aacba1cf83b87,69b92ab4aef6dee357cd729a,69b92b4c58ce1b3cd75b9812,0.2151,0.2151,1,94,256,103,1,eightseven,,,,,,,,,,,,,,,,,,,,,,,,,,,,,,,,,,,,,,,,,,,,,,,,,,,,,,,,,,,,,,,,,,,,,,,,,,,,,,,,,,,,,,,,,,,,,,,,,,,,,,,,,,,,,,,,,,,,,,,,,,,,,,,,,,,,,,,,,
,,672b5b677b0aacba1cf83b87,2026-03-17_12h41.30.897,kallum_motion_pilot_GIST_update_2,2026.1.1,Win32,59.17159763,672b5b677b0aacba1cf83b87,69b92ab4aef6dee357cd729a,69b92b4c58ce1b3cd75b9812,0.2155,0.2156,1,95,257,15,1,fourthree,,,,,,,,,,,,,,,,,,,,,,,,,,,,,,,,,,,,,,,,,,,,,,,,,,,,,,,,,,,,,,,,,,,,,,,,,,,,,,,,,,,,,,,,,,,,,,,,,,,,,,,,,,,,,,,,,,,,,,,,,,,,,,,,,,,,,,,,,
,,672b5b677b0aacba1cf83b87,2026-03-17_12h41.30.897,kallum_motion_pilot_GIST_update_2,2026.1.1,Win32,59.17159763,672b5b677b0aacba1cf83b87,69b92ab4aef6dee357cd729a,69b92b4c58ce1b3cd75b9812,0.2164,0.2164,1,96,258,94,1,eightsix,,,,,,,,,,,,,,,,,,,,,,,,,,,,,,,,,,,,,,,,,,,,,,,,,,,,,,,,,,,,,,,,,,,,,,,,,,,,,,,,,,,,,,,,,,,,,,,,,,,,,,,,,,,,,,,,,,,,,,,,,,,,,,,,,,,,,,,,,
,,672b5b677b0aacba1cf83b87,2026-03-17_12h41.30.897,kallum_motion_pilot_GIST_update_2,2026.1.1,Win32,59.17159763,672b5b677b0aacba1cf83b87,69b92ab4aef6dee357cd729a,69b92b4c58ce1b3cd75b9812,0.2172,0.2173,1,97,259,73,1,onethree,,,,,,,,,,,,,,,,,,,,,,,,,,,,,,,,,,,,,,,,,,,,,,,,,,,,,,,,,,,,,,,,,,,,,,,,,,,,,,,,,,,,,,,,,,,,,,,,,,,,,,,,,,,,,,,,,,,,,,,,,,,,,,,,,,,,,,,,,
,,672b5b677b0aacba1cf83b87,2026-03-17_12h41.30.897,kallum_motion_pilot_GIST_update_2,2026.1.1,Win32,59.17159763,672b5b677b0aacba1cf83b87,69b92ab4aef6dee357cd729a,69b92b4c58ce1b3cd75b9812,0.2177,0.2177,1,98,260,63,1,fourthree,,,,,,,,,,,,,,,,,,,,,,,,,,,,,,,,,,,,,,,,,,,,,,,,,,,,,,,,,,,,,,,,,,,,,,,,,,,,,,,,,,,,,,,,,,,,,,,,,,,,,,,,,,,,,,,,,,,,,,,,,,,,,,,,,,,,,,,,,
,,672b5b677b0aacba1cf83b87,2026-03-17_12h41.30.897,kallum_motion_pilot_GIST_update_2,2026.1.1,Win32,59.17159763,672b5b677b0aacba1cf83b87,69b92ab4aef6dee357cd729a,69b92b4c58ce1b3cd75b9812,0.2185,0.2186,1,99,261,44,1,threeone,,,,,,,,,,,,,,,,,,,,,,,,,,,,,,,,,,,,,,,,,,,,,,,,,,,,,,,,,,,,,,,,,,,,,,,,,,,,,,,,,,,,,,,,,,,,,,,,,,,,,,,,,,,,,,,,,,,,,,,,,,,,,,,,,,,,,,,,,
,,672b5b677b0aacba1cf83b87,2026-03-17_12h41.30.897,kallum_motion_pilot_GIST_update_2,2026.1.1,Win32,59.17159763,672b5b677b0aacba1cf83b87,69b92ab4aef6dee357cd729a,69b92b4c58ce1b3cd75b9812,0.219,0.219,1,100,262,122,1,sixfive,,,,,,,,,,,,,,,,,,,,,,,,,,,,,,,,,,,,,,,,,,,,,,,,,,,,,,,,,,,,,,,,,,,,,,,,,,,,,,,,,,,,,,,,,,,,,,,,,,,,,,,,,,,,,,,,,,,,,,,,,,,,,,,,,,,,,,,,,
,,672b5b677b0aacba1cf83b87,2026-03-17_12h41.30.897,kallum_motion_pilot_GIST_update_2,2026.1.1,Win32,59.17159763,672b5b677b0aacba1cf83b87,69b92ab4aef6dee357cd729a,69b92b4c58ce1b3cd75b9812,0.2194,0.2195,1,101,263,27,1,twofour,,,,,,,,,,,,,,,,,,,,,,,,,,,,,,,,,,,,,,,,,,,,,,,,,,,,,,,,,,,,,,,,,,,,,,,,,,,,,,,,,,,,,,,,,,,,,,,,,,,,,,,,,,,,,,,,,,,,,,,,,,,,,,,,,,,,,,,,,
,,672b5b677b0aacba1cf83b87,2026-03-17_12h41.30.897,kallum_motion_pilot_GIST_update_2,2026.1.1,Win32,59.17159763,672b5b677b0aacba1cf83b87,69b92ab4aef6dee357cd729a,69b92b4c58ce1b3cd75b9812,0.2203,0.2203,1,102,264,93,1,seveneight,,,,,,,,,,,,,,,,,,,,,,,,,,,,,,,,,,,,,,,,,,,,,,,,,,,,,,,,,,,,,,,,,,,,,,,,,,,,,,,,,,,,,,,,,,,,,,,,,,,,,,,,,,,,,,,,,,,,,,,,,,,,,,,,,,,,,,,,,
,,672b5b677b0aacba1cf83b87,2026-03-17_12h41.30.897,kallum_motion_pilot_GIST_update_2,2026.1.1,Win32,59.17159763,672b5b677b0aacba1cf83b87,69b92ab4aef6dee357cd729a,69b92b4c58ce1b3cd75b9812,0.2209,0.2209,1,103,265,74,1,twoone,,,,,,,,,,,,,,,,,,,,,,,,,,,,,,,,,,,,,,,,,,,,,,,,,,,,,,,,,,,,,,,,,,,,,,,,,,,,,,,,,,,,,,,,,,,,,,,,,,,,,,,,,,,,,,,,,,,,,,,,,,,,,,,,,,,,,,,,,
,,672b5b677b0aacba1cf83b87,2026-03-17_12h41.30.897,kallum_motion_pilot_GIST_update_2,2026.1.1,Win32,59.17159763,672b5b677b0aacba1cf83b87,69b92ab4aef6dee357cd729a,69b92b4c58ce1b3cd75b9812,0.2213,0.2213,1,104,266,138,1,sixfive,,,,,,,,,,,,,,,,,,,,,,,,,,,,,,,,,,,,,,,,,,,,,,,,,,,,,,,,,,,,,,,,,,,,,,,,,,,,,,,,,,,,,,,,,,,,,,,,,,,,,,,,,,,,,,,,,,,,,,,,,,,,,,,,,,,,,,,,,
