startup.started,startup.stopped,Prolific ID*,date,expName,psychopyVersion,OS,frameRate,participant,study_id,session,stimpositions.started,stimpositions.stopped,hardcoded_stimulus_positions.thisRepN,hardcoded_stimulus_positions.thisTrialN,hardcoded_stimulus_positions.thisN,hardcoded_stimulus_positions.thisIndex,hardcoded_stimulus_positions.ran,StimulusPos,stimorientation.started,stimorientation.stopped,prac_stimorientation_import_loop.thisRepN,prac_stimorientation_import_loop.thisTrialN,prac_stimorientation_import_loop.thisN,prac_stimorientation_import_loop.thisIndex,prac_stimorientation_import_loop.ran,Stimorientation,welcome_instr.started,welcome_instr.stopped,key_resp.keys,key_resp.rt,key_resp.duration,response_steppedout_1.started,response_steppedout_1.stopped,key_resp_20.keys,key_resp_20.rt,key_resp_20.duration,response_steppedout_2.started,response_steppedout_2.stopped,key_resp_19.keys,key_resp_19.rt,key_resp_19.duration,stim_response_instr.started,stim_response_instr.stopped,key_resp_15.keys,key_resp_15.rt,key_resp_15.duration,direction_instr_2.started,direction_instr_2.stopped,key_resp_9.keys,key_resp_9.rt,key_resp_9.duration,instr_prac.started,instr_prac.stopped,key_resp_10.keys,key_resp_10.rt,key_resp_10.duration,Stim1_display_prac.started,Stim1_display_prac.stopped,Ecc,Circle1_ori,Circle2_ori,response_prac.started,similarity,response_time,response_prac.stopped,mouse_5.x,mouse_5.y,mouse_5.leftButton,mouse_5.midButton,mouse_5.rightButton,mouse_5.clicked_name,responseprac_feedback.started,responseprac_feedback.stopped,summary2_prac.started,summary2_prac.stopped,mouse_6.x,mouse_6.y,mouse_6.leftButton,mouse_6.midButton,mouse_6.rightButton,mouse_6.clicked_name,duringprac.thisRepN,duringprac.thisTrialN,duringprac.thisN,duringprac.thisIndex,duringprac.ran,begin.started,begin.stopped,key_resp_22.keys,key_resp_22.rt,key_resp_22.duration,Stim1_display.started,Stim1_display.stopped,circle1_ori,circle2_ori,circle1_SF,circle2_SF,response.started,response.stopped,mouse.x,mouse.y,mouse.leftButton,mouse.midButton,mouse.rightButton,mouse.clicked_name,trialnumber,double_pass.thisRepN,double_pass.thisTrialN,double_pass.thisN,double_pass.thisIndex,double_pass.ran,double_pass.order,main_trial.thisRepN,main_trial.thisTrialN,main_trial.thisN,main_trial.thisIndex,main_trial.ran,main_trial.order,Trial_Counter,Catch,Frequencies,response_2.started,response_2.stopped,mouse_2.x,mouse_2.y,mouse_2.leftButton,mouse_2.midButton,mouse_2.rightButton,mouse_2.clicked_name,special_trial.started,special_trial.stopped,catch_1.started,catch_1.stopped,mouse_3.x,mouse_3.y,mouse_3.leftButton,mouse_3.midButton,mouse_3.rightButton,catchresponse,catchnumber,response_time_catch,response_sum.started,response_sum.stopped,mouse_11.x,mouse_11.y,mouse_11.leftButton,mouse_11.midButton,mouse_11.rightButton,flip_presentation_sequence_for_double_pass.started,flip_presentation_sequence_for_double_pass.stopped,goodbye.started,goodbye.stopped,key_resp_3.keys,key_resp_3.rt,key_resp_3.duration
0.0004,0.0005,672b24390a9c197eb61f2f72,2026-03-17_10h23.48.102,kallum_motion_pilot_GIST_update_2,2026.1.1,Win32,59.52380952,672b24390a9c197eb61f2f72,69b92ab4aef6dee357cd729a,69b92b769ea2f78e7086aea4,,,,,,,,,,,,,,,,,,,,,,,,,,,,,,,,,,,,,,,,,,,,,,,,,,,,,,,,,,,,,,,,,,,,,,,,,,,,,,,,,,,,,,,,,,,,,,,,,,,,,,,,,,,,,,,,,,,,,,,,,,,,,,,,,,,,,,,,,,,,,,,,,
,,672b24390a9c197eb61f2f72,2026-03-17_10h23.48.102,kallum_motion_pilot_GIST_update_2,2026.1.1,Win32,59.52380952,672b24390a9c197eb61f2f72,69b92ab4aef6dee357cd729a,69b92b769ea2f78e7086aea4,0.0261,0.0264,0,0,0,43,1,twofour,,,,,,,,,,,,,,,,,,,,,,,,,,,,,,,,,,,,,,,,,,,,,,,,,,,,,,,,,,,,,,,,,,,,,,,,,,,,,,,,,,,,,,,,,,,,,,,,,,,,,,,,,,,,,,,,,,,,,,,,,,,,,,,,,,,,,,,,,
,,672b24390a9c197eb61f2f72,2026-03-17_10h23.48.102,kallum_motion_pilot_GIST_update_2,2026.1.1,Win32,59.52380952,672b24390a9c197eb61f2f72,69b92ab4aef6dee357cd729a,69b92b769ea2f78e7086aea4,0.0268,0.0268,0,1,1,120,1,fivesix,,,,,,,,,,,,,,,,,,,,,,,,,,,,,,,,,,,,,,,,,,,,,,,,,,,,,,,,,,,,,,,,,,,,,,,,,,,,,,,,,,,,,,,,,,,,,,,,,,,,,,,,,,,,,,,,,,,,,,,,,,,,,,,,,,,,,,,,,
,,672b24390a9c197eb61f2f72,2026-03-17_10h23.48.102,kallum_motion_pilot_GIST_update_2,2026.1.1,Win32,59.52380952,672b24390a9c197eb61f2f72,69b92ab4aef6dee357cd729a,69b92b769ea2f78e7086aea4,0.0269,0.0269,0,2,2,91,1,sixeight,,,,,,,,,,,,,,,,,,,,,,,,,,,,,,,,,,,,,,,,,,,,,,,,,,,,,,,,,,,,,,,,,,,,,,,,,,,,,,,,,,,,,,,,,,,,,,,,,,,,,,,,,,,,,,,,,,,,,,,,,,,,,,,,,,,,,,,,,
,,672b24390a9c197eb61f2f72,2026-03-17_10h23.48.102,kallum_motion_pilot_GIST_update_2,2026.1.1,Win32,59.52380952,672b24390a9c197eb61f2f72,69b92ab4aef6dee357cd729a,69b92b769ea2f78e7086aea4,0.0273,0.0273,0,3,3,126,1,eightsix,,,,,,,,,,,,,,,,,,,,,,,,,,,,,,,,,,,,,,,,,,,,,,,,,,,,,,,,,,,,,,,,,,,,,,,,,,,,,,,,,,,,,,,,,,,,,,,,,,,,,,,,,,,,,,,,,,,,,,,,,,,,,,,,,,,,,,,,,
,,672b24390a9c197eb61f2f72,2026-03-17_10h23.48.102,kallum_motion_pilot_GIST_update_2,2026.1.1,Win32,59.52380952,672b24390a9c197eb61f2f72,69b92ab4aef6dee357cd729a,69b92b769ea2f78e7086aea4,0.0274,0.0274,0,4,4,99,1,sixeight,,,,,,,,,,,,,,,,,,,,,,,,,,,,,,,,,,,,,,,,,,,,,,,,,,,,,,,,,,,,,,,,,,,,,,,,,,,,,,,,,,,,,,,,,,,,,,,,,,,,,,,,,,,,,,,,,,,,,,,,,,,,,,,,,,,,,,,,,
,,672b24390a9c197eb61f2f72,2026-03-17_10h23.48.102,kallum_motion_pilot_GIST_update_2,2026.1.1,Win32,59.52380952,672b24390a9c197eb61f2f72,69b92ab4aef6dee357cd729a,69b92b769ea2f78e7086aea4,0.0276,0.0276,0,5,5,137,1,fiveseven,,,,,,,,,,,,,,,,,,,,,,,,,,,,,,,,,,,,,,,,,,,,,,,,,,,,,,,,,,,,,,,,,,,,,,,,,,,,,,,,,,,,,,,,,,,,,,,,,,,,,,,,,,,,,,,,,,,,,,,,,,,,,,,,,,,,,,,,,
,,672b24390a9c197eb61f2f72,2026-03-17_10h23.48.102,kallum_motion_pilot_GIST_update_2,2026.1.1,Win32,59.52380952,672b24390a9c197eb61f2f72,69b92ab4aef6dee357cd729a,69b92b769ea2f78e7086aea4,0.0277,0.0277,0,6,6,117,1,seveneight,,,,,,,,,,,,,,,,,,,,,,,,,,,,,,,,,,,,,,,,,,,,,,,,,,,,,,,,,,,,,,,,,,,,,,,,,,,,,,,,,,,,,,,,,,,,,,,,,,,,,,,,,,,,,,,,,,,,,,,,,,,,,,,,,,,,,,,,,
,,672b24390a9c197eb61f2f72,2026-03-17_10h23.48.102,kallum_motion_pilot_GIST_update_2,2026.1.1,Win32,59.52380952,672b24390a9c197eb61f2f72,69b92ab4aef6dee357cd729a,69b92b769ea2f78e7086aea4,0.0279,0.0279,0,7,7,92,1,sevenfive,,,,,,,,,,,,,,,,,,,,,,,,,,,,,,,,,,,,,,,,,,,,,,,,,,,,,,,,,,,,,,,,,,,,,,,,,,,,,,,,,,,,,,,,,,,,,,,,,,,,,,,,,,,,,,,,,,,,,,,,,,,,,,,,,,,,,,,,,
,,672b24390a9c197eb61f2f72,2026-03-17_10h23.48.102,kallum_motion_pilot_GIST_update_2,2026.1.1,Win32,59.52380952,672b24390a9c197eb61f2f72,69b92ab4aef6dee357cd729a,69b92b769ea2f78e7086aea4,0.0281,0.0281,0,8,8,144,1,fivesix,,,,,,,,,,,,,,,,,,,,,,,,,,,,,,,,,,,,,,,,,,,,,,,,,,,,,,,,,,,,,,,,,,,,,,,,,,,,,,,,,,,,,,,,,,,,,,,,,,,,,,,,,,,,,,,,,,,,,,,,,,,,,,,,,,,,,,,,,
,,672b24390a9c197eb61f2f72,2026-03-17_10h23.48.102,kallum_motion_pilot_GIST_update_2,2026.1.1,Win32,59.52380952,672b24390a9c197eb61f2f72,69b92ab4aef6dee357cd729a,69b92b769ea2f78e7086aea4,0.0283,0.0283,0,9,9,74,1,twoone,,,,,,,,,,,,,,,,,,,,,,,,,,,,,,,,,,,,,,,,,,,,,,,,,,,,,,,,,,,,,,,,,,,,,,,,,,,,,,,,,,,,,,,,,,,,,,,,,,,,,,,,,,,,,,,,,,,,,,,,,,,,,,,,,,,,,,,,,
,,672b24390a9c197eb61f2f72,2026-03-17_10h23.48.102,kallum_motion_pilot_GIST_update_2,2026.1.1,Win32,59.52380952,672b24390a9c197eb61f2f72,69b92ab4aef6dee357cd729a,69b92b769ea2f78e7086aea4,0.0284,0.0284,0,10,10,153,1,fiveseven,,,,,,,,,,,,,,,,,,,,,,,,,,,,,,,,,,,,,,,,,,,,,,,,,,,,,,,,,,,,,,,,,,,,,,,,,,,,,,,,,,,,,,,,,,,,,,,,,,,,,,,,,,,,,,,,,,,,,,,,,,,,,,,,,,,,,,,,,
,,672b24390a9c197eb61f2f72,2026-03-17_10h23.48.102,kallum_motion_pilot_GIST_update_2,2026.1.1,Win32,59.52380952,672b24390a9c197eb61f2f72,69b92ab4aef6dee357cd729a,69b92b769ea2f78e7086aea4,0.0286,0.0286,0,11,11,111,1,eightseven,,,,,,,,,,,,,,,,,,,,,,,,,,,,,,,,,,,,,,,,,,,,,,,,,,,,,,,,,,,,,,,,,,,,,,,,,,,,,,,,,,,,,,,,,,,,,,,,,,,,,,,,,,,,,,,,,,,,,,,,,,,,,,,,,,,,,,,,,
,,672b24390a9c197eb61f2f72,2026-03-17_10h23.48.102,kallum_motion_pilot_GIST_update_2,2026.1.1,Win32,59.52380952,672b24390a9c197eb61f2f72,69b92ab4aef6dee357cd729a,69b92b769ea2f78e7086aea4,0.0287,0.0288,0,12,12,119,1,eightseven,,,,,,,,,,,,,,,,,,,,,,,,,,,,,,,,,,,,,,,,,,,,,,,,,,,,,,,,,,,,,,,,,,,,,,,,,,,,,,,,,,,,,,,,,,,,,,,,,,,,,,,,,,,,,,,,,,,,,,,,,,,,,,,,,,,,,,,,,
,,672b24390a9c197eb61f2f72,2026-03-17_10h23.48.102,kallum_motion_pilot_GIST_update_2,2026.1.1,Win32,59.52380952,672b24390a9c197eb61f2f72,69b92ab4aef6dee357cd729a,69b92b769ea2f78e7086aea4,0.029,0.029,0,13,13,146,1,sixfive,,,,,,,,,,,,,,,,,,,,,,,,,,,,,,,,,,,,,,,,,,,,,,,,,,,,,,,,,,,,,,,,,,,,,,,,,,,,,,,,,,,,,,,,,,,,,,,,,,,,,,,,,,,,,,,,,,,,,,,,,,,,,,,,,,,,,,,,,
,,672b24390a9c197eb61f2f72,2026-03-17_10h23.48.102,kallum_motion_pilot_GIST_update_2,2026.1.1,Win32,59.52380952,672b24390a9c197eb61f2f72,69b92ab4aef6dee357cd729a,69b92b769ea2f78e7086aea4,0.0292,0.0292,0,14,14,155,1,sixeight,,,,,,,,,,,,,,,,,,,,,,,,,,,,,,,,,,,,,,,,,,,,,,,,,,,,,,,,,,,,,,,,,,,,,,,,,,,,,,,,,,,,,,,,,,,,,,,,,,,,,,,,,,,,,,,,,,,,,,,,,,,,,,,,,,,,,,,,,
,,672b24390a9c197eb61f2f72,2026-03-17_10h23.48.102,kallum_motion_pilot_GIST_update_2,2026.1.1,Win32,59.52380952,672b24390a9c197eb61f2f72,69b92ab4aef6dee357cd729a,69b92b769ea2f78e7086aea4,0.0294,0.0294,0,15,15,24,1,onetwo,,,,,,,,,,,,,,,,,,,,,,,,,,,,,,,,,,,,,,,,,,,,,,,,,,,,,,,,,,,,,,,,,,,,,,,,,,,,,,,,,,,,,,,,,,,,,,,,,,,,,,,,,,,,,,,,,,,,,,,,,,,,,,,,,,,,,,,,,
,,672b24390a9c197eb61f2f72,2026-03-17_10h23.48.102,kallum_motion_pilot_GIST_update_2,2026.1.1,Win32,59.52380952,672b24390a9c197eb61f2f72,69b92ab4aef6dee357cd729a,69b92b769ea2f78e7086aea4,0.0295,0.0295,0,16,16,52,1,threeone,,,,,,,,,,,,,,,,,,,,,,,,,,,,,,,,,,,,,,,,,,,,,,,,,,,,,,,,,,,,,,,,,,,,,,,,,,,,,,,,,,,,,,,,,,,,,,,,,,,,,,,,,,,,,,,,,,,,,,,,,,,,,,,,,,,,,,,,,
,,672b24390a9c197eb61f2f72,2026-03-17_10h23.48.102,kallum_motion_pilot_GIST_update_2,2026.1.1,Win32,59.52380952,672b24390a9c197eb61f2f72,69b92ab4aef6dee357cd729a,69b92b769ea2f78e7086aea4,0.0298,0.0298,0,17,17,86,1,eightsix,,,,,,,,,,,,,,,,,,,,,,,,,,,,,,,,,,,,,,,,,,,,,,,,,,,,,,,,,,,,,,,,,,,,,,,,,,,,,,,,,,,,,,,,,,,,,,,,,,,,,,,,,,,,,,,,,,,,,,,,,,,,,,,,,,,,,,,,,
,,672b24390a9c197eb61f2f72,2026-03-17_10h23.48.102,kallum_motion_pilot_GIST_update_2,2026.1.1,Win32,59.52380952,672b24390a9c197eb61f2f72,69b92ab4aef6dee357cd729a,69b92b769ea2f78e7086aea4,0.0301,0.0301,0,18,18,129,1,fiveseven,,,,,,,,,,,,,,,,,,,,,,,,,,,,,,,,,,,,,,,,,,,,,,,,,,,,,,,,,,,,,,,,,,,,,,,,,,,,,,,,,,,,,,,,,,,,,,,,,,,,,,,,,,,,,,,,,,,,,,,,,,,,,,,,,,,,,,,,,
,,672b24390a9c197eb61f2f72,2026-03-17_10h23.48.102,kallum_motion_pilot_GIST_update_2,2026.1.1,Win32,59.52380952,672b24390a9c197eb61f2f72,69b92ab4aef6dee357cd729a,69b92b769ea2f78e7086aea4,0.0303,0.0303,0,19,19,12,1,threeone,,,,,,,,,,,,,,,,,,,,,,,,,,,,,,,,,,,,,,,,,,,,,,,,,,,,,,,,,,,,,,,,,,,,,,,,,,,,,,,,,,,,,,,,,,,,,,,,,,,,,,,,,,,,,,,,,,,,,,,,,,,,,,,,,,,,,,,,,
,,672b24390a9c197eb61f2f72,2026-03-17_10h23.48.102,kallum_motion_pilot_GIST_update_2,2026.1.1,Win32,59.52380952,672b24390a9c197eb61f2f72,69b92ab4aef6dee357cd729a,69b92b769ea2f78e7086aea4,0.0305,0.0305,0,20,20,67,1,twofour,,,,,,,,,,,,,,,,,,,,,,,,,,,,,,,,,,,,,,,,,,,,,,,,,,,,,,,,,,,,,,,,,,,,,,,,,,,,,,,,,,,,,,,,,,,,,,,,,,,,,,,,,,,,,,,,,,,,,,,,,,,,,,,,,,,,,,,,,
,,672b24390a9c197eb61f2f72,2026-03-17_10h23.48.102,kallum_motion_pilot_GIST_update_2,2026.1.1,Win32,59.52380952,672b24390a9c197eb61f2f72,69b92ab4aef6dee357cd729a,69b92b769ea2f78e7086aea4,0.0306,0.0306,0,21,21,69,1,threefour,,,,,,,,,,,,,,,,,,,,,,,,,,,,,,,,,,,,,,,,,,,,,,,,,,,,,,,,,,,,,,,,,,,,,,,,,,,,,,,,,,,,,,,,,,,,,,,,,,,,,,,,,,,,,,,,,,,,,,,,,,,,,,,,,,,,,,,,,
,,672b24390a9c197eb61f2f72,2026-03-17_10h23.48.102,kallum_motion_pilot_GIST_update_2,2026.1.1,Win32,59.52380952,672b24390a9c197eb61f2f72,69b92ab4aef6dee357cd729a,69b92b769ea2f78e7086aea4,0.0307,0.0307,0,22,22,139,1,sixeight,,,,,,,,,,,,,,,,,,,,,,,,,,,,,,,,,,,,,,,,,,,,,,,,,,,,,,,,,,,,,,,,,,,,,,,,,,,,,,,,,,,,,,,,,,,,,,,,,,,,,,,,,,,,,,,,,,,,,,,,,,,,,,,,,,,,,,,,,
,,672b24390a9c197eb61f2f72,2026-03-17_10h23.48.102,kallum_motion_pilot_GIST_update_2,2026.1.1,Win32,59.52380952,672b24390a9c197eb61f2f72,69b92ab4aef6dee357cd729a,69b92b769ea2f78e7086aea4,0.0309,0.0309,0,23,23,70,1,fourtwo,,,,,,,,,,,,,,,,,,,,,,,,,,,,,,,,,,,,,,,,,,,,,,,,,,,,,,,,,,,,,,,,,,,,,,,,,,,,,,,,,,,,,,,,,,,,,,,,,,,,,,,,,,,,,,,,,,,,,,,,,,,,,,,,,,,,,,,,,
,,672b24390a9c197eb61f2f72,2026-03-17_10h23.48.102,kallum_motion_pilot_GIST_update_2,2026.1.1,Win32,59.52380952,672b24390a9c197eb61f2f72,69b92ab4aef6dee357cd729a,69b92b769ea2f78e7086aea4,0.0312,0.0312,0,24,24,107,1,sixeight,,,,,,,,,,,,,,,,,,,,,,,,,,,,,,,,,,,,,,,,,,,,,,,,,,,,,,,,,,,,,,,,,,,,,,,,,,,,,,,,,,,,,,,,,,,,,,,,,,,,,,,,,,,,,,,,,,,,,,,,,,,,,,,,,,,,,,,,,
,,672b24390a9c197eb61f2f72,2026-03-17_10h23.48.102,kallum_motion_pilot_GIST_update_2,2026.1.1,Win32,59.52380952,672b24390a9c197eb61f2f72,69b92ab4aef6dee357cd729a,69b92b769ea2f78e7086aea4,0.0314,0.0314,0,25,25,46,1,fourtwo,,,,,,,,,,,,,,,,,,,,,,,,,,,,,,,,,,,,,,,,,,,,,,,,,,,,,,,,,,,,,,,,,,,,,,,,,,,,,,,,,,,,,,,,,,,,,,,,,,,,,,,,,,,,,,,,,,,,,,,,,,,,,,,,,,,,,,,,,
,,672b24390a9c197eb61f2f72,2026-03-17_10h23.48.102,kallum_motion_pilot_GIST_update_2,2026.1.1,Win32,59.52380952,672b24390a9c197eb61f2f72,69b92ab4aef6dee357cd729a,69b92b769ea2f78e7086aea4,0.0315,0.0315,0,26,26,59,1,twofour,,,,,,,,,,,,,,,,,,,,,,,,,,,,,,,,,,,,,,,,,,,,,,,,,,,,,,,,,,,,,,,,,,,,,,,,,,,,,,,,,,,,,,,,,,,,,,,,,,,,,,,,,,,,,,,,,,,,,,,,,,,,,,,,,,,,,,,,,
,,672b24390a9c197eb61f2f72,2026-03-17_10h23.48.102,kallum_motion_pilot_GIST_update_2,2026.1.1,Win32,59.52380952,672b24390a9c197eb61f2f72,69b92ab4aef6dee357cd729a,69b92b769ea2f78e7086aea4,0.0317,0.0317,0,27,27,20,1,threeone,,,,,,,,,,,,,,,,,,,,,,,,,,,,,,,,,,,,,,,,,,,,,,,,,,,,,,,,,,,,,,,,,,,,,,,,,,,,,,,,,,,,,,,,,,,,,,,,,,,,,,,,,,,,,,,,,,,,,,,,,,,,,,,,,,,,,,,,,
,,672b24390a9c197eb61f2f72,2026-03-17_10h23.48.102,kallum_motion_pilot_GIST_update_2,2026.1.1,Win32,59.52380952,672b24390a9c197eb61f2f72,69b92ab4aef6dee357cd729a,69b92b769ea2f78e7086aea4,0.0338,0.0338,0,28,28,110,1,eightsix,,,,,,,,,,,,,,,,,,,,,,,,,,,,,,,,,,,,,,,,,,,,,,,,,,,,,,,,,,,,,,,,,,,,,,,,,,,,,,,,,,,,,,,,,,,,,,,,,,,,,,,,,,,,,,,,,,,,,,,,,,,,,,,,,,,,,,,,,
,,672b24390a9c197eb61f2f72,2026-03-17_10h23.48.102,kallum_motion_pilot_GIST_update_2,2026.1.1,Win32,59.52380952,672b24390a9c197eb61f2f72,69b92ab4aef6dee357cd729a,69b92b769ea2f78e7086aea4,0.034,0.034,0,29,29,39,1,fourthree,,,,,,,,,,,,,,,,,,,,,,,,,,,,,,,,,,,,,,,,,,,,,,,,,,,,,,,,,,,,,,,,,,,,,,,,,,,,,,,,,,,,,,,,,,,,,,,,,,,,,,,,,,,,,,,,,,,,,,,,,,,,,,,,,,,,,,,,,
,,672b24390a9c197eb61f2f72,2026-03-17_10h23.48.102,kallum_motion_pilot_GIST_update_2,2026.1.1,Win32,59.52380952,672b24390a9c197eb61f2f72,69b92ab4aef6dee357cd729a,69b92b769ea2f78e7086aea4,0.0342,0.0342,0,30,30,124,1,sevenfive,,,,,,,,,,,,,,,,,,,,,,,,,,,,,,,,,,,,,,,,,,,,,,,,,,,,,,,,,,,,,,,,,,,,,,,,,,,,,,,,,,,,,,,,,,,,,,,,,,,,,,,,,,,,,,,,,,,,,,,,,,,,,,,,,,,,,,,,,
,,672b24390a9c197eb61f2f72,2026-03-17_10h23.48.102,kallum_motion_pilot_GIST_update_2,2026.1.1,Win32,59.52380952,672b24390a9c197eb61f2f72,69b92ab4aef6dee357cd729a,69b92b769ea2f78e7086aea4,0.0343,0.0343,0,31,31,53,1,threefour,,,,,,,,,,,,,,,,,,,,,,,,,,,,,,,,,,,,,,,,,,,,,,,,,,,,,,,,,,,,,,,,,,,,,,,,,,,,,,,,,,,,,,,,,,,,,,,,,,,,,,,,,,,,,,,,,,,,,,,,,,,,,,,,,,,,,,,,,
,,672b24390a9c197eb61f2f72,2026-03-17_10h23.48.102,kallum_motion_pilot_GIST_update_2,2026.1.1,Win32,59.52380952,672b24390a9c197eb61f2f72,69b92ab4aef6dee357cd729a,69b92b769ea2f78e7086aea4,0.0345,0.0345,0,32,32,16,1,onetwo,,,,,,,,,,,,,,,,,,,,,,,,,,,,,,,,,,,,,,,,,,,,,,,,,,,,,,,,,,,,,,,,,,,,,,,,,,,,,,,,,,,,,,,,,,,,,,,,,,,,,,,,,,,,,,,,,,,,,,,,,,,,,,,,,,,,,,,,,
,,672b24390a9c197eb61f2f72,2026-03-17_10h23.48.102,kallum_motion_pilot_GIST_update_2,2026.1.1,Win32,59.52380952,672b24390a9c197eb61f2f72,69b92ab4aef6dee357cd729a,69b92b769ea2f78e7086aea4,0.0347,0.0347,0,33,33,10,1,twoone,,,,,,,,,,,,,,,,,,,,,,,,,,,,,,,,,,,,,,,,,,,,,,,,,,,,,,,,,,,,,,,,,,,,,,,,,,,,,,,,,,,,,,,,,,,,,,,,,,,,,,,,,,,,,,,,,,,,,,,,,,,,,,,,,,,,,,,,,
,,672b24390a9c197eb61f2f72,2026-03-17_10h23.48.102,kallum_motion_pilot_GIST_update_2,2026.1.1,Win32,59.52380952,672b24390a9c197eb61f2f72,69b92ab4aef6dee357cd729a,69b92b769ea2f78e7086aea4,0.0348,0.0348,0,34,34,65,1,onethree,,,,,,,,,,,,,,,,,,,,,,,,,,,,,,,,,,,,,,,,,,,,,,,,,,,,,,,,,,,,,,,,,,,,,,,,,,,,,,,,,,,,,,,,,,,,,,,,,,,,,,,,,,,,,,,,,,,,,,,,,,,,,,,,,,,,,,,,,
,,672b24390a9c197eb61f2f72,2026-03-17_10h23.48.102,kallum_motion_pilot_GIST_update_2,2026.1.1,Win32,59.52380952,672b24390a9c197eb61f2f72,69b92ab4aef6dee357cd729a,69b92b769ea2f78e7086aea4,0.0349,0.0349,0,35,35,95,1,eightseven,,,,,,,,,,,,,,,,,,,,,,,,,,,,,,,,,,,,,,,,,,,,,,,,,,,,,,,,,,,,,,,,,,,,,,,,,,,,,,,,,,,,,,,,,,,,,,,,,,,,,,,,,,,,,,,,,,,,,,,,,,,,,,,,,,,,,,,,,
,,672b24390a9c197eb61f2f72,2026-03-17_10h23.48.102,kallum_motion_pilot_GIST_update_2,2026.1.1,Win32,59.52380952,672b24390a9c197eb61f2f72,69b92ab4aef6dee357cd729a,69b92b769ea2f78e7086aea4,0.0351,0.0351,0,36,36,85,1,seveneight,,,,,,,,,,,,,,,,,,,,,,,,,,,,,,,,,,,,,,,,,,,,,,,,,,,,,,,,,,,,,,,,,,,,,,,,,,,,,,,,,,,,,,,,,,,,,,,,,,,,,,,,,,,,,,,,,,,,,,,,,,,,,,,,,,,,,,,,,
,,672b24390a9c197eb61f2f72,2026-03-17_10h23.48.102,kallum_motion_pilot_GIST_update_2,2026.1.1,Win32,59.52380952,672b24390a9c197eb61f2f72,69b92ab4aef6dee357cd729a,69b92b769ea2f78e7086aea4,0.0352,0.0352,0,37,37,47,1,fourthree,,,,,,,,,,,,,,,,,,,,,,,,,,,,,,,,,,,,,,,,,,,,,,,,,,,,,,,,,,,,,,,,,,,,,,,,,,,,,,,,,,,,,,,,,,,,,,,,,,,,,,,,,,,,,,,,,,,,,,,,,,,,,,,,,,,,,,,,,
,,672b24390a9c197eb61f2f72,2026-03-17_10h23.48.102,kallum_motion_pilot_GIST_update_2,2026.1.1,Win32,59.52380952,672b24390a9c197eb61f2f72,69b92ab4aef6dee357cd729a,69b92b769ea2f78e7086aea4,0.0354,0.0354,0,38,38,154,1,sixfive,,,,,,,,,,,,,,,,,,,,,,,,,,,,,,,,,,,,,,,,,,,,,,,,,,,,,,,,,,,,,,,,,,,,,,,,,,,,,,,,,,,,,,,,,,,,,,,,,,,,,,,,,,,,,,,,,,,,,,,,,,,,,,,,,,,,,,,,,
,,672b24390a9c197eb61f2f72,2026-03-17_10h23.48.102,kallum_motion_pilot_GIST_update_2,2026.1.1,Win32,59.52380952,672b24390a9c197eb61f2f72,69b92ab4aef6dee357cd729a,69b92b769ea2f78e7086aea4,0.0355,0.0356,0,39,39,62,1,fourtwo,,,,,,,,,,,,,,,,,,,,,,,,,,,,,,,,,,,,,,,,,,,,,,,,,,,,,,,,,,,,,,,,,,,,,,,,,,,,,,,,,,,,,,,,,,,,,,,,,,,,,,,,,,,,,,,,,,,,,,,,,,,,,,,,,,,,,,,,,
,,672b24390a9c197eb61f2f72,2026-03-17_10h23.48.102,kallum_motion_pilot_GIST_update_2,2026.1.1,Win32,59.52380952,672b24390a9c197eb61f2f72,69b92ab4aef6dee357cd729a,69b92b769ea2f78e7086aea4,0.0357,0.0357,0,40,40,142,1,eightsix,,,,,,,,,,,,,,,,,,,,,,,,,,,,,,,,,,,,,,,,,,,,,,,,,,,,,,,,,,,,,,,,,,,,,,,,,,,,,,,,,,,,,,,,,,,,,,,,,,,,,,,,,,,,,,,,,,,,,,,,,,,,,,,,,,,,,,,,,
,,672b24390a9c197eb61f2f72,2026-03-17_10h23.48.102,kallum_motion_pilot_GIST_update_2,2026.1.1,Win32,59.52380952,672b24390a9c197eb61f2f72,69b92ab4aef6dee357cd729a,69b92b769ea2f78e7086aea4,0.0358,0.0358,0,41,41,84,1,sevenfive,,,,,,,,,,,,,,,,,,,,,,,,,,,,,,,,,,,,,,,,,,,,,,,,,,,,,,,,,,,,,,,,,,,,,,,,,,,,,,,,,,,,,,,,,,,,,,,,,,,,,,,,,,,,,,,,,,,,,,,,,,,,,,,,,,,,,,,,,
,,672b24390a9c197eb61f2f72,2026-03-17_10h23.48.102,kallum_motion_pilot_GIST_update_2,2026.1.1,Win32,59.52380952,672b24390a9c197eb61f2f72,69b92ab4aef6dee357cd729a,69b92b769ea2f78e7086aea4,0.036,0.036,0,42,42,109,1,seveneight,,,,,,,,,,,,,,,,,,,,,,,,,,,,,,,,,,,,,,,,,,,,,,,,,,,,,,,,,,,,,,,,,,,,,,,,,,,,,,,,,,,,,,,,,,,,,,,,,,,,,,,,,,,,,,,,,,,,,,,,,,,,,,,,,,,,,,,,,
,,672b24390a9c197eb61f2f72,2026-03-17_10h23.48.102,kallum_motion_pilot_GIST_update_2,2026.1.1,Win32,59.52380952,672b24390a9c197eb61f2f72,69b92ab4aef6dee357cd729a,69b92b769ea2f78e7086aea4,0.0362,0.0362,0,43,43,125,1,seveneight,,,,,,,,,,,,,,,,,,,,,,,,,,,,,,,,,,,,,,,,,,,,,,,,,,,,,,,,,,,,,,,,,,,,,,,,,,,,,,,,,,,,,,,,,,,,,,,,,,,,,,,,,,,,,,,,,,,,,,,,,,,,,,,,,,,,,,,,,
,,672b24390a9c197eb61f2f72,2026-03-17_10h23.48.102,kallum_motion_pilot_GIST_update_2,2026.1.1,Win32,59.52380952,672b24390a9c197eb61f2f72,69b92ab4aef6dee357cd729a,69b92b769ea2f78e7086aea4,0.0363,0.0363,0,44,44,72,1,onetwo,,,,,,,,,,,,,,,,,,,,,,,,,,,,,,,,,,,,,,,,,,,,,,,,,,,,,,,,,,,,,,,,,,,,,,,,,,,,,,,,,,,,,,,,,,,,,,,,,,,,,,,,,,,,,,,,,,,,,,,,,,,,,,,,,,,,,,,,,
,,672b24390a9c197eb61f2f72,2026-03-17_10h23.48.102,kallum_motion_pilot_GIST_update_2,2026.1.1,Win32,59.52380952,672b24390a9c197eb61f2f72,69b92ab4aef6dee357cd729a,69b92b769ea2f78e7086aea4,0.0364,0.0365,0,45,45,108,1,sevenfive,,,,,,,,,,,,,,,,,,,,,,,,,,,,,,,,,,,,,,,,,,,,,,,,,,,,,,,,,,,,,,,,,,,,,,,,,,,,,,,,,,,,,,,,,,,,,,,,,,,,,,,,,,,,,,,,,,,,,,,,,,,,,,,,,,,,,,,,,
,,672b24390a9c197eb61f2f72,2026-03-17_10h23.48.102,kallum_motion_pilot_GIST_update_2,2026.1.1,Win32,59.52380952,672b24390a9c197eb61f2f72,69b92ab4aef6dee357cd729a,69b92b769ea2f78e7086aea4,0.0367,0.0367,0,46,46,73,1,onethree,,,,,,,,,,,,,,,,,,,,,,,,,,,,,,,,,,,,,,,,,,,,,,,,,,,,,,,,,,,,,,,,,,,,,,,,,,,,,,,,,,,,,,,,,,,,,,,,,,,,,,,,,,,,,,,,,,,,,,,,,,,,,,,,,,,,,,,,,
,,672b24390a9c197eb61f2f72,2026-03-17_10h23.48.102,kallum_motion_pilot_GIST_update_2,2026.1.1,Win32,59.52380952,672b24390a9c197eb61f2f72,69b92ab4aef6dee357cd729a,69b92b769ea2f78e7086aea4,0.0369,0.0369,0,47,47,98,1,sixfive,,,,,,,,,,,,,,,,,,,,,,,,,,,,,,,,,,,,,,,,,,,,,,,,,,,,,,,,,,,,,,,,,,,,,,,,,,,,,,,,,,,,,,,,,,,,,,,,,,,,,,,,,,,,,,,,,,,,,,,,,,,,,,,,,,,,,,,,,
,,672b24390a9c197eb61f2f72,2026-03-17_10h23.48.102,kallum_motion_pilot_GIST_update_2,2026.1.1,Win32,59.52380952,672b24390a9c197eb61f2f72,69b92ab4aef6dee357cd729a,69b92b769ea2f78e7086aea4,0.037,0.037,0,48,48,45,1,threefour,,,,,,,,,,,,,,,,,,,,,,,,,,,,,,,,,,,,,,,,,,,,,,,,,,,,,,,,,,,,,,,,,,,,,,,,,,,,,,,,,,,,,,,,,,,,,,,,,,,,,,,,,,,,,,,,,,,,,,,,,,,,,,,,,,,,,,,,,
,,672b24390a9c197eb61f2f72,2026-03-17_10h23.48.102,kallum_motion_pilot_GIST_update_2,2026.1.1,Win32,59.52380952,672b24390a9c197eb61f2f72,69b92ab4aef6dee357cd729a,69b92b769ea2f78e7086aea4,0.0372,0.0372,0,49,49,27,1,twofour,,,,,,,,,,,,,,,,,,,,,,,,,,,,,,,,,,,,,,,,,,,,,,,,,,,,,,,,,,,,,,,,,,,,,,,,,,,,,,,,,,,,,,,,,,,,,,,,,,,,,,,,,,,,,,,,,,,,,,,,,,,,,,,,,,,,,,,,,
,,672b24390a9c197eb61f2f72,2026-03-17_10h23.48.102,kallum_motion_pilot_GIST_update_2,2026.1.1,Win32,59.52380952,672b24390a9c197eb61f2f72,69b92ab4aef6dee357cd729a,69b92b769ea2f78e7086aea4,0.0374,0.0374,0,50,50,121,1,fiveseven,,,,,,,,,,,,,,,,,,,,,,,,,,,,,,,,,,,,,,,,,,,,,,,,,,,,,,,,,,,,,,,,,,,,,,,,,,,,,,,,,,,,,,,,,,,,,,,,,,,,,,,,,,,,,,,,,,,,,,,,,,,,,,,,,,,,,,,,,
,,672b24390a9c197eb61f2f72,2026-03-17_10h23.48.102,kallum_motion_pilot_GIST_update_2,2026.1.1,Win32,59.52380952,672b24390a9c197eb61f2f72,69b92ab4aef6dee357cd729a,69b92b769ea2f78e7086aea4,0.0375,0.0375,0,51,51,89,1,fiveseven,,,,,,,,,,,,,,,,,,,,,,,,,,,,,,,,,,,,,,,,,,,,,,,,,,,,,,,,,,,,,,,,,,,,,,,,,,,,,,,,,,,,,,,,,,,,,,,,,,,,,,,,,,,,,,,,,,,,,,,,,,,,,,,,,,,,,,,,,
,,672b24390a9c197eb61f2f72,2026-03-17_10h23.48.102,kallum_motion_pilot_GIST_update_2,2026.1.1,Win32,59.52380952,672b24390a9c197eb61f2f72,69b92ab4aef6dee357cd729a,69b92b769ea2f78e7086aea4,0.0377,0.0377,0,52,52,61,1,threefour,,,,,,,,,,,,,,,,,,,,,,,,,,,,,,,,,,,,,,,,,,,,,,,,,,,,,,,,,,,,,,,,,,,,,,,,,,,,,,,,,,,,,,,,,,,,,,,,,,,,,,,,,,,,,,,,,,,,,,,,,,,,,,,,,,,,,,,,,
,,672b24390a9c197eb61f2f72,2026-03-17_10h23.48.102,kallum_motion_pilot_GIST_update_2,2026.1.1,Win32,59.52380952,672b24390a9c197eb61f2f72,69b92ab4aef6dee357cd729a,69b92b769ea2f78e7086aea4,0.0378,0.0378,0,53,53,97,1,fiveseven,,,,,,,,,,,,,,,,,,,,,,,,,,,,,,,,,,,,,,,,,,,,,,,,,,,,,,,,,,,,,,,,,,,,,,,,,,,,,,,,,,,,,,,,,,,,,,,,,,,,,,,,,,,,,,,,,,,,,,,,,,,,,,,,,,,,,,,,,
,,672b24390a9c197eb61f2f72,2026-03-17_10h23.48.102,kallum_motion_pilot_GIST_update_2,2026.1.1,Win32,59.52380952,672b24390a9c197eb61f2f72,69b92ab4aef6dee357cd729a,69b92b769ea2f78e7086aea4,0.038,0.038,0,54,54,22,1,fourtwo,,,,,,,,,,,,,,,,,,,,,,,,,,,,,,,,,,,,,,,,,,,,,,,,,,,,,,,,,,,,,,,,,,,,,,,,,,,,,,,,,,,,,,,,,,,,,,,,,,,,,,,,,,,,,,,,,,,,,,,,,,,,,,,,,,,,,,,,,
,,672b24390a9c197eb61f2f72,2026-03-17_10h23.48.102,kallum_motion_pilot_GIST_update_2,2026.1.1,Win32,59.52380952,672b24390a9c197eb61f2f72,69b92ab4aef6dee357cd729a,69b92b769ea2f78e7086aea4,0.0382,0.0382,0,55,55,147,1,sixeight,,,,,,,,,,,,,,,,,,,,,,,,,,,,,,,,,,,,,,,,,,,,,,,,,,,,,,,,,,,,,,,,,,,,,,,,,,,,,,,,,,,,,,,,,,,,,,,,,,,,,,,,,,,,,,,,,,,,,,,,,,,,,,,,,,,,,,,,,
,,672b24390a9c197eb61f2f72,2026-03-17_10h23.48.102,kallum_motion_pilot_GIST_update_2,2026.1.1,Win32,59.52380952,672b24390a9c197eb61f2f72,69b92ab4aef6dee357cd729a,69b92b769ea2f78e7086aea4,0.0383,0.0383,0,56,56,132,1,sevenfive,,,,,,,,,,,,,,,,,,,,,,,,,,,,,,,,,,,,,,,,,,,,,,,,,,,,,,,,,,,,,,,,,,,,,,,,,,,,,,,,,,,,,,,,,,,,,,,,,,,,,,,,,,,,,,,,,,,,,,,,,,,,,,,,,,,,,,,,,
,,672b24390a9c197eb61f2f72,2026-03-17_10h23.48.102,kallum_motion_pilot_GIST_update_2,2026.1.1,Win32,59.52380952,672b24390a9c197eb61f2f72,69b92ab4aef6dee357cd729a,69b92b769ea2f78e7086aea4,0.0385,0.0385,0,57,57,158,1,eightsix,,,,,,,,,,,,,,,,,,,,,,,,,,,,,,,,,,,,,,,,,,,,,,,,,,,,,,,,,,,,,,,,,,,,,,,,,,,,,,,,,,,,,,,,,,,,,,,,,,,,,,,,,,,,,,,,,,,,,,,,,,,,,,,,,,,,,,,,,
,,672b24390a9c197eb61f2f72,2026-03-17_10h23.48.102,kallum_motion_pilot_GIST_update_2,2026.1.1,Win32,59.52380952,672b24390a9c197eb61f2f72,69b92ab4aef6dee357cd729a,69b92b769ea2f78e7086aea4,0.0387,0.0387,0,58,58,102,1,eightsix,,,,,,,,,,,,,,,,,,,,,,,,,,,,,,,,,,,,,,,,,,,,,,,,,,,,,,,,,,,,,,,,,,,,,,,,,,,,,,,,,,,,,,,,,,,,,,,,,,,,,,,,,,,,,,,,,,,,,,,,,,,,,,,,,,,,,,,,,
,,672b24390a9c197eb61f2f72,2026-03-17_10h23.48.102,kallum_motion_pilot_GIST_update_2,2026.1.1,Win32,59.52380952,672b24390a9c197eb61f2f72,69b92ab4aef6dee357cd729a,69b92b769ea2f78e7086aea4,0.0391,0.0391,0,59,59,54,1,fourtwo,,,,,,,,,,,,,,,,,,,,,,,,,,,,,,,,,,,,,,,,,,,,,,,,,,,,,,,,,,,,,,,,,,,,,,,,,,,,,,,,,,,,,,,,,,,,,,,,,,,,,,,,,,,,,,,,,,,,,,,,,,,,,,,,,,,,,,,,,
,,672b24390a9c197eb61f2f72,2026-03-17_10h23.48.102,kallum_motion_pilot_GIST_update_2,2026.1.1,Win32,59.52380952,672b24390a9c197eb61f2f72,69b92ab4aef6dee357cd729a,69b92b769ea2f78e7086aea4,0.0392,0.0392,0,60,60,82,1,sixfive,,,,,,,,,,,,,,,,,,,,,,,,,,,,,,,,,,,,,,,,,,,,,,,,,,,,,,,,,,,,,,,,,,,,,,,,,,,,,,,,,,,,,,,,,,,,,,,,,,,,,,,,,,,,,,,,,,,,,,,,,,,,,,,,,,,,,,,,,
,,672b24390a9c197eb61f2f72,2026-03-17_10h23.48.102,kallum_motion_pilot_GIST_update_2,2026.1.1,Win32,59.52380952,672b24390a9c197eb61f2f72,69b92ab4aef6dee357cd729a,69b92b769ea2f78e7086aea4,0.0393,0.0393,0,61,61,25,1,onethree,,,,,,,,,,,,,,,,,,,,,,,,,,,,,,,,,,,,,,,,,,,,,,,,,,,,,,,,,,,,,,,,,,,,,,,,,,,,,,,,,,,,,,,,,,,,,,,,,,,,,,,,,,,,,,,,,,,,,,,,,,,,,,,,,,,,,,,,,
,,672b24390a9c197eb61f2f72,2026-03-17_10h23.48.102,kallum_motion_pilot_GIST_update_2,2026.1.1,Win32,59.52380952,672b24390a9c197eb61f2f72,69b92ab4aef6dee357cd729a,69b92b769ea2f78e7086aea4,0.0396,0.0396,0,62,62,103,1,eightseven,,,,,,,,,,,,,,,,,,,,,,,,,,,,,,,,,,,,,,,,,,,,,,,,,,,,,,,,,,,,,,,,,,,,,,,,,,,,,,,,,,,,,,,,,,,,,,,,,,,,,,,,,,,,,,,,,,,,,,,,,,,,,,,,,,,,,,,,,
,,672b24390a9c197eb61f2f72,2026-03-17_10h23.48.102,kallum_motion_pilot_GIST_update_2,2026.1.1,Win32,59.52380952,672b24390a9c197eb61f2f72,69b92ab4aef6dee357cd729a,69b92b769ea2f78e7086aea4,0.0397,0.0397,0,63,63,30,1,fourtwo,,,,,,,,,,,,,,,,,,,,,,,,,,,,,,,,,,,,,,,,,,,,,,,,,,,,,,,,,,,,,,,,,,,,,,,,,,,,,,,,,,,,,,,,,,,,,,,,,,,,,,,,,,,,,,,,,,,,,,,,,,,,,,,,,,,,,,,,,
,,672b24390a9c197eb61f2f72,2026-03-17_10h23.48.102,kallum_motion_pilot_GIST_update_2,2026.1.1,Win32,59.52380952,672b24390a9c197eb61f2f72,69b92ab4aef6dee357cd729a,69b92b769ea2f78e7086aea4,0.0399,0.0399,0,64,64,149,1,seveneight,,,,,,,,,,,,,,,,,,,,,,,,,,,,,,,,,,,,,,,,,,,,,,,,,,,,,,,,,,,,,,,,,,,,,,,,,,,,,,,,,,,,,,,,,,,,,,,,,,,,,,,,,,,,,,,,,,,,,,,,,,,,,,,,,,,,,,,,,
,,672b24390a9c197eb61f2f72,2026-03-17_10h23.48.102,kallum_motion_pilot_GIST_update_2,2026.1.1,Win32,59.52380952,672b24390a9c197eb61f2f72,69b92ab4aef6dee357cd729a,69b92b769ea2f78e7086aea4,0.0401,0.0401,0,65,65,58,1,twoone,,,,,,,,,,,,,,,,,,,,,,,,,,,,,,,,,,,,,,,,,,,,,,,,,,,,,,,,,,,,,,,,,,,,,,,,,,,,,,,,,,,,,,,,,,,,,,,,,,,,,,,,,,,,,,,,,,,,,,,,,,,,,,,,,,,,,,,,,
,,672b24390a9c197eb61f2f72,2026-03-17_10h23.48.102,kallum_motion_pilot_GIST_update_2,2026.1.1,Win32,59.52380952,672b24390a9c197eb61f2f72,69b92ab4aef6dee357cd729a,69b92b769ea2f78e7086aea4,0.0402,0.0402,0,66,66,93,1,seveneight,,,,,,,,,,,,,,,,,,,,,,,,,,,,,,,,,,,,,,,,,,,,,,,,,,,,,,,,,,,,,,,,,,,,,,,,,,,,,,,,,,,,,,,,,,,,,,,,,,,,,,,,,,,,,,,,,,,,,,,,,,,,,,,,,,,,,,,,,
,,672b24390a9c197eb61f2f72,2026-03-17_10h23.48.102,kallum_motion_pilot_GIST_update_2,2026.1.1,Win32,59.52380952,672b24390a9c197eb61f2f72,69b92ab4aef6dee357cd729a,69b92b769ea2f78e7086aea4,0.0404,0.0404,0,67,67,157,1,seveneight,,,,,,,,,,,,,,,,,,,,,,,,,,,,,,,,,,,,,,,,,,,,,,,,,,,,,,,,,,,,,,,,,,,,,,,,,,,,,,,,,,,,,,,,,,,,,,,,,,,,,,,,,,,,,,,,,,,,,,,,,,,,,,,,,,,,,,,,,
,,672b24390a9c197eb61f2f72,2026-03-17_10h23.48.102,kallum_motion_pilot_GIST_update_2,2026.1.1,Win32,59.52380952,672b24390a9c197eb61f2f72,69b92ab4aef6dee357cd729a,69b92b769ea2f78e7086aea4,0.0405,0.0405,0,68,68,36,1,threeone,,,,,,,,,,,,,,,,,,,,,,,,,,,,,,,,,,,,,,,,,,,,,,,,,,,,,,,,,,,,,,,,,,,,,,,,,,,,,,,,,,,,,,,,,,,,,,,,,,,,,,,,,,,,,,,,,,,,,,,,,,,,,,,,,,,,,,,,,
,,672b24390a9c197eb61f2f72,2026-03-17_10h23.48.102,kallum_motion_pilot_GIST_update_2,2026.1.1,Win32,59.52380952,672b24390a9c197eb61f2f72,69b92ab4aef6dee357cd729a,69b92b769ea2f78e7086aea4,0.0406,0.0406,0,69,69,123,1,sixeight,,,,,,,,,,,,,,,,,,,,,,,,,,,,,,,,,,,,,,,,,,,,,,,,,,,,,,,,,,,,,,,,,,,,,,,,,,,,,,,,,,,,,,,,,,,,,,,,,,,,,,,,,,,,,,,,,,,,,,,,,,,,,,,,,,,,,,,,,
,,672b24390a9c197eb61f2f72,2026-03-17_10h23.48.102,kallum_motion_pilot_GIST_update_2,2026.1.1,Win32,59.52380952,672b24390a9c197eb61f2f72,69b92ab4aef6dee357cd729a,69b92b769ea2f78e7086aea4,0.0407,0.0407,0,70,70,15,1,fourthree,,,,,,,,,,,,,,,,,,,,,,,,,,,,,,,,,,,,,,,,,,,,,,,,,,,,,,,,,,,,,,,,,,,,,,,,,,,,,,,,,,,,,,,,,,,,,,,,,,,,,,,,,,,,,,,,,,,,,,,,,,,,,,,,,,,,,,,,,
,,672b24390a9c197eb61f2f72,2026-03-17_10h23.48.102,kallum_motion_pilot_GIST_update_2,2026.1.1,Win32,59.52380952,672b24390a9c197eb61f2f72,69b92ab4aef6dee357cd729a,69b92b769ea2f78e7086aea4,0.0411,0.0411,0,71,71,151,1,eightseven,,,,,,,,,,,,,,,,,,,,,,,,,,,,,,,,,,,,,,,,,,,,,,,,,,,,,,,,,,,,,,,,,,,,,,,,,,,,,,,,,,,,,,,,,,,,,,,,,,,,,,,,,,,,,,,,,,,,,,,,,,,,,,,,,,,,,,,,,
,,672b24390a9c197eb61f2f72,2026-03-17_10h23.48.102,kallum_motion_pilot_GIST_update_2,2026.1.1,Win32,59.52380952,672b24390a9c197eb61f2f72,69b92ab4aef6dee357cd729a,69b92b769ea2f78e7086aea4,0.0412,0.0412,0,72,72,14,1,fourtwo,,,,,,,,,,,,,,,,,,,,,,,,,,,,,,,,,,,,,,,,,,,,,,,,,,,,,,,,,,,,,,,,,,,,,,,,,,,,,,,,,,,,,,,,,,,,,,,,,,,,,,,,,,,,,,,,,,,,,,,,,,,,,,,,,,,,,,,,,
,,672b24390a9c197eb61f2f72,2026-03-17_10h23.48.102,kallum_motion_pilot_GIST_update_2,2026.1.1,Win32,59.52380952,672b24390a9c197eb61f2f72,69b92ab4aef6dee357cd729a,69b92b769ea2f78e7086aea4,0.0414,0.0414,0,73,73,81,1,fiveseven,,,,,,,,,,,,,,,,,,,,,,,,,,,,,,,,,,,,,,,,,,,,,,,,,,,,,,,,,,,,,,,,,,,,,,,,,,,,,,,,,,,,,,,,,,,,,,,,,,,,,,,,,,,,,,,,,,,,,,,,,,,,,,,,,,,,,,,,,
,,672b24390a9c197eb61f2f72,2026-03-17_10h23.48.102,kallum_motion_pilot_GIST_update_2,2026.1.1,Win32,59.52380952,672b24390a9c197eb61f2f72,69b92ab4aef6dee357cd729a,69b92b769ea2f78e7086aea4,0.0416,0.0416,0,74,74,66,1,twoone,,,,,,,,,,,,,,,,,,,,,,,,,,,,,,,,,,,,,,,,,,,,,,,,,,,,,,,,,,,,,,,,,,,,,,,,,,,,,,,,,,,,,,,,,,,,,,,,,,,,,,,,,,,,,,,,,,,,,,,,,,,,,,,,,,,,,,,,,
,,672b24390a9c197eb61f2f72,2026-03-17_10h23.48.102,kallum_motion_pilot_GIST_update_2,2026.1.1,Win32,59.52380952,672b24390a9c197eb61f2f72,69b92ab4aef6dee357cd729a,69b92b769ea2f78e7086aea4,0.0417,0.0418,0,75,75,42,1,twoone,,,,,,,,,,,,,,,,,,,,,,,,,,,,,,,,,,,,,,,,,,,,,,,,,,,,,,,,,,,,,,,,,,,,,,,,,,,,,,,,,,,,,,,,,,,,,,,,,,,,,,,,,,,,,,,,,,,,,,,,,,,,,,,,,,,,,,,,,
,,672b24390a9c197eb61f2f72,2026-03-17_10h23.48.102,kallum_motion_pilot_GIST_update_2,2026.1.1,Win32,59.52380952,672b24390a9c197eb61f2f72,69b92ab4aef6dee357cd729a,69b92b769ea2f78e7086aea4,0.0419,0.0419,0,76,76,104,1,fivesix,,,,,,,,,,,,,,,,,,,,,,,,,,,,,,,,,,,,,,,,,,,,,,,,,,,,,,,,,,,,,,,,,,,,,,,,,,,,,,,,,,,,,,,,,,,,,,,,,,,,,,,,,,,,,,,,,,,,,,,,,,,,,,,,,,,,,,,,,
,,672b24390a9c197eb61f2f72,2026-03-17_10h23.48.102,kallum_motion_pilot_GIST_update_2,2026.1.1,Win32,59.52380952,672b24390a9c197eb61f2f72,69b92ab4aef6dee357cd729a,69b92b769ea2f78e7086aea4,0.042,0.042,0,77,77,106,1,sixfive,,,,,,,,,,,,,,,,,,,,,,,,,,,,,,,,,,,,,,,,,,,,,,,,,,,,,,,,,,,,,,,,,,,,,,,,,,,,,,,,,,,,,,,,,,,,,,,,,,,,,,,,,,,,,,,,,,,,,,,,,,,,,,,,,,,,,,,,,
,,672b24390a9c197eb61f2f72,2026-03-17_10h23.48.102,kallum_motion_pilot_GIST_update_2,2026.1.1,Win32,59.52380952,672b24390a9c197eb61f2f72,69b92ab4aef6dee357cd729a,69b92b769ea2f78e7086aea4,0.0423,0.0423,0,78,78,4,1,threeone,,,,,,,,,,,,,,,,,,,,,,,,,,,,,,,,,,,,,,,,,,,,,,,,,,,,,,,,,,,,,,,,,,,,,,,,,,,,,,,,,,,,,,,,,,,,,,,,,,,,,,,,,,,,,,,,,,,,,,,,,,,,,,,,,,,,,,,,,
,,672b24390a9c197eb61f2f72,2026-03-17_10h23.48.102,kallum_motion_pilot_GIST_update_2,2026.1.1,Win32,59.52380952,672b24390a9c197eb61f2f72,69b92ab4aef6dee357cd729a,69b92b769ea2f78e7086aea4,0.0425,0.0425,0,79,79,2,1,twoone,,,,,,,,,,,,,,,,,,,,,,,,,,,,,,,,,,,,,,,,,,,,,,,,,,,,,,,,,,,,,,,,,,,,,,,,,,,,,,,,,,,,,,,,,,,,,,,,,,,,,,,,,,,,,,,,,,,,,,,,,,,,,,,,,,,,,,,,,
,,672b24390a9c197eb61f2f72,2026-03-17_10h23.48.102,kallum_motion_pilot_GIST_update_2,2026.1.1,Win32,59.52380952,672b24390a9c197eb61f2f72,69b92ab4aef6dee357cd729a,69b92b769ea2f78e7086aea4,0.0426,0.0426,0,80,80,32,1,onetwo,,,,,,,,,,,,,,,,,,,,,,,,,,,,,,,,,,,,,,,,,,,,,,,,,,,,,,,,,,,,,,,,,,,,,,,,,,,,,,,,,,,,,,,,,,,,,,,,,,,,,,,,,,,,,,,,,,,,,,,,,,,,,,,,,,,,,,,,,
,,672b24390a9c197eb61f2f72,2026-03-17_10h23.48.102,kallum_motion_pilot_GIST_update_2,2026.1.1,Win32,59.52380952,672b24390a9c197eb61f2f72,69b92ab4aef6dee357cd729a,69b92b769ea2f78e7086aea4,0.0428,0.0428,0,81,81,87,1,eightseven,,,,,,,,,,,,,,,,,,,,,,,,,,,,,,,,,,,,,,,,,,,,,,,,,,,,,,,,,,,,,,,,,,,,,,,,,,,,,,,,,,,,,,,,,,,,,,,,,,,,,,,,,,,,,,,,,,,,,,,,,,,,,,,,,,,,,,,,,
,,672b24390a9c197eb61f2f72,2026-03-17_10h23.48.102,kallum_motion_pilot_GIST_update_2,2026.1.1,Win32,59.52380952,672b24390a9c197eb61f2f72,69b92ab4aef6dee357cd729a,69b92b769ea2f78e7086aea4,0.043,0.043,0,82,82,130,1,sixfive,,,,,,,,,,,,,,,,,,,,,,,,,,,,,,,,,,,,,,,,,,,,,,,,,,,,,,,,,,,,,,,,,,,,,,,,,,,,,,,,,,,,,,,,,,,,,,,,,,,,,,,,,,,,,,,,,,,,,,,,,,,,,,,,,,,,,,,,,
,,672b24390a9c197eb61f2f72,2026-03-17_10h23.48.102,kallum_motion_pilot_GIST_update_2,2026.1.1,Win32,59.52380952,672b24390a9c197eb61f2f72,69b92ab4aef6dee357cd729a,69b92b769ea2f78e7086aea4,0.0431,0.0431,0,83,83,83,1,sixeight,,,,,,,,,,,,,,,,,,,,,,,,,,,,,,,,,,,,,,,,,,,,,,,,,,,,,,,,,,,,,,,,,,,,,,,,,,,,,,,,,,,,,,,,,,,,,,,,,,,,,,,,,,,,,,,,,,,,,,,,,,,,,,,,,,,,,,,,,
,,672b24390a9c197eb61f2f72,2026-03-17_10h23.48.102,kallum_motion_pilot_GIST_update_2,2026.1.1,Win32,59.52380952,672b24390a9c197eb61f2f72,69b92ab4aef6dee357cd729a,69b92b769ea2f78e7086aea4,0.0433,0.0433,0,84,84,152,1,fivesix,,,,,,,,,,,,,,,,,,,,,,,,,,,,,,,,,,,,,,,,,,,,,,,,,,,,,,,,,,,,,,,,,,,,,,,,,,,,,,,,,,,,,,,,,,,,,,,,,,,,,,,,,,,,,,,,,,,,,,,,,,,,,,,,,,,,,,,,,
,,672b24390a9c197eb61f2f72,2026-03-17_10h23.48.102,kallum_motion_pilot_GIST_update_2,2026.1.1,Win32,59.52380952,672b24390a9c197eb61f2f72,69b92ab4aef6dee357cd729a,69b92b769ea2f78e7086aea4,0.0435,0.0435,0,85,85,51,1,twofour,,,,,,,,,,,,,,,,,,,,,,,,,,,,,,,,,,,,,,,,,,,,,,,,,,,,,,,,,,,,,,,,,,,,,,,,,,,,,,,,,,,,,,,,,,,,,,,,,,,,,,,,,,,,,,,,,,,,,,,,,,,,,,,,,,,,,,,,,
,,672b24390a9c197eb61f2f72,2026-03-17_10h23.48.102,kallum_motion_pilot_GIST_update_2,2026.1.1,Win32,59.52380952,672b24390a9c197eb61f2f72,69b92ab4aef6dee357cd729a,69b92b769ea2f78e7086aea4,0.0436,0.0436,0,86,86,19,1,twofour,,,,,,,,,,,,,,,,,,,,,,,,,,,,,,,,,,,,,,,,,,,,,,,,,,,,,,,,,,,,,,,,,,,,,,,,,,,,,,,,,,,,,,,,,,,,,,,,,,,,,,,,,,,,,,,,,,,,,,,,,,,,,,,,,,,,,,,,,
,,672b24390a9c197eb61f2f72,2026-03-17_10h23.48.102,kallum_motion_pilot_GIST_update_2,2026.1.1,Win32,59.52380952,672b24390a9c197eb61f2f72,69b92ab4aef6dee357cd729a,69b92b769ea2f78e7086aea4,0.0438,0.0438,0,87,87,156,1,sevenfive,,,,,,,,,,,,,,,,,,,,,,,,,,,,,,,,,,,,,,,,,,,,,,,,,,,,,,,,,,,,,,,,,,,,,,,,,,,,,,,,,,,,,,,,,,,,,,,,,,,,,,,,,,,,,,,,,,,,,,,,,,,,,,,,,,,,,,,,,
,,672b24390a9c197eb61f2f72,2026-03-17_10h23.48.102,kallum_motion_pilot_GIST_update_2,2026.1.1,Win32,59.52380952,672b24390a9c197eb61f2f72,69b92ab4aef6dee357cd729a,69b92b769ea2f78e7086aea4,0.0439,0.0439,0,88,88,29,1,threefour,,,,,,,,,,,,,,,,,,,,,,,,,,,,,,,,,,,,,,,,,,,,,,,,,,,,,,,,,,,,,,,,,,,,,,,,,,,,,,,,,,,,,,,,,,,,,,,,,,,,,,,,,,,,,,,,,,,,,,,,,,,,,,,,,,,,,,,,,
,,672b24390a9c197eb61f2f72,2026-03-17_10h23.48.102,kallum_motion_pilot_GIST_update_2,2026.1.1,Win32,59.52380952,672b24390a9c197eb61f2f72,69b92ab4aef6dee357cd729a,69b92b769ea2f78e7086aea4,0.0441,0.0441,0,89,89,112,1,fivesix,,,,,,,,,,,,,,,,,,,,,,,,,,,,,,,,,,,,,,,,,,,,,,,,,,,,,,,,,,,,,,,,,,,,,,,,,,,,,,,,,,,,,,,,,,,,,,,,,,,,,,,,,,,,,,,,,,,,,,,,,,,,,,,,,,,,,,,,,
,,672b24390a9c197eb61f2f72,2026-03-17_10h23.48.102,kallum_motion_pilot_GIST_update_2,2026.1.1,Win32,59.52380952,672b24390a9c197eb61f2f72,69b92ab4aef6dee357cd729a,69b92b769ea2f78e7086aea4,0.0442,0.0443,0,90,90,60,1,threeone,,,,,,,,,,,,,,,,,,,,,,,,,,,,,,,,,,,,,,,,,,,,,,,,,,,,,,,,,,,,,,,,,,,,,,,,,,,,,,,,,,,,,,,,,,,,,,,,,,,,,,,,,,,,,,,,,,,,,,,,,,,,,,,,,,,,,,,,,
,,672b24390a9c197eb61f2f72,2026-03-17_10h23.48.102,kallum_motion_pilot_GIST_update_2,2026.1.1,Win32,59.52380952,672b24390a9c197eb61f2f72,69b92ab4aef6dee357cd729a,69b92b769ea2f78e7086aea4,0.0445,0.0445,0,91,91,143,1,eightseven,,,,,,,,,,,,,,,,,,,,,,,,,,,,,,,,,,,,,,,,,,,,,,,,,,,,,,,,,,,,,,,,,,,,,,,,,,,,,,,,,,,,,,,,,,,,,,,,,,,,,,,,,,,,,,,,,,,,,,,,,,,,,,,,,,,,,,,,,
,,672b24390a9c197eb61f2f72,2026-03-17_10h23.48.102,kallum_motion_pilot_GIST_update_2,2026.1.1,Win32,59.52380952,672b24390a9c197eb61f2f72,69b92ab4aef6dee357cd729a,69b92b769ea2f78e7086aea4,0.0446,0.0446,0,92,92,114,1,sixfive,,,,,,,,,,,,,,,,,,,,,,,,,,,,,,,,,,,,,,,,,,,,,,,,,,,,,,,,,,,,,,,,,,,,,,,,,,,,,,,,,,,,,,,,,,,,,,,,,,,,,,,,,,,,,,,,,,,,,,,,,,,,,,,,,,,,,,,,,
,,672b24390a9c197eb61f2f72,2026-03-17_10h23.48.102,kallum_motion_pilot_GIST_update_2,2026.1.1,Win32,59.52380952,672b24390a9c197eb61f2f72,69b92ab4aef6dee357cd729a,69b92b769ea2f78e7086aea4,0.0448,0.0448,0,93,93,49,1,onethree,,,,,,,,,,,,,,,,,,,,,,,,,,,,,,,,,,,,,,,,,,,,,,,,,,,,,,,,,,,,,,,,,,,,,,,,,,,,,,,,,,,,,,,,,,,,,,,,,,,,,,,,,,,,,,,,,,,,,,,,,,,,,,,,,,,,,,,,,
,,672b24390a9c197eb61f2f72,2026-03-17_10h23.48.102,kallum_motion_pilot_GIST_update_2,2026.1.1,Win32,59.52380952,672b24390a9c197eb61f2f72,69b92ab4aef6dee357cd729a,69b92b769ea2f78e7086aea4,0.0451,0.0451,0,94,94,56,1,onetwo,,,,,,,,,,,,,,,,,,,,,,,,,,,,,,,,,,,,,,,,,,,,,,,,,,,,,,,,,,,,,,,,,,,,,,,,,,,,,,,,,,,,,,,,,,,,,,,,,,,,,,,,,,,,,,,,,,,,,,,,,,,,,,,,,,,,,,,,,
,,672b24390a9c197eb61f2f72,2026-03-17_10h23.48.102,kallum_motion_pilot_GIST_update_2,2026.1.1,Win32,59.52380952,672b24390a9c197eb61f2f72,69b92ab4aef6dee357cd729a,69b92b769ea2f78e7086aea4,0.0452,0.0452,0,95,95,71,1,fourthree,,,,,,,,,,,,,,,,,,,,,,,,,,,,,,,,,,,,,,,,,,,,,,,,,,,,,,,,,,,,,,,,,,,,,,,,,,,,,,,,,,,,,,,,,,,,,,,,,,,,,,,,,,,,,,,,,,,,,,,,,,,,,,,,,,,,,,,,,
,,672b24390a9c197eb61f2f72,2026-03-17_10h23.48.102,kallum_motion_pilot_GIST_update_2,2026.1.1,Win32,59.52380952,672b24390a9c197eb61f2f72,69b92ab4aef6dee357cd729a,69b92b769ea2f78e7086aea4,0.0454,0.0454,0,96,96,148,1,sevenfive,,,,,,,,,,,,,,,,,,,,,,,,,,,,,,,,,,,,,,,,,,,,,,,,,,,,,,,,,,,,,,,,,,,,,,,,,,,,,,,,,,,,,,,,,,,,,,,,,,,,,,,,,,,,,,,,,,,,,,,,,,,,,,,,,,,,,,,,,
,,672b24390a9c197eb61f2f72,2026-03-17_10h23.48.102,kallum_motion_pilot_GIST_update_2,2026.1.1,Win32,59.52380952,672b24390a9c197eb61f2f72,69b92ab4aef6dee357cd729a,69b92b769ea2f78e7086aea4,0.0455,0.0455,0,97,97,134,1,eightsix,,,,,,,,,,,,,,,,,,,,,,,,,,,,,,,,,,,,,,,,,,,,,,,,,,,,,,,,,,,,,,,,,,,,,,,,,,,,,,,,,,,,,,,,,,,,,,,,,,,,,,,,,,,,,,,,,,,,,,,,,,,,,,,,,,,,,,,,,
,,672b24390a9c197eb61f2f72,2026-03-17_10h23.48.102,kallum_motion_pilot_GIST_update_2,2026.1.1,Win32,59.52380952,672b24390a9c197eb61f2f72,69b92ab4aef6dee357cd729a,69b92b769ea2f78e7086aea4,0.0456,0.0456,0,98,98,133,1,seveneight,,,,,,,,,,,,,,,,,,,,,,,,,,,,,,,,,,,,,,,,,,,,,,,,,,,,,,,,,,,,,,,,,,,,,,,,,,,,,,,,,,,,,,,,,,,,,,,,,,,,,,,,,,,,,,,,,,,,,,,,,,,,,,,,,,,,,,,,,
,,672b24390a9c197eb61f2f72,2026-03-17_10h23.48.102,kallum_motion_pilot_GIST_update_2,2026.1.1,Win32,59.52380952,672b24390a9c197eb61f2f72,69b92ab4aef6dee357cd729a,69b92b769ea2f78e7086aea4,0.0458,0.0458,0,99,99,40,1,onetwo,,,,,,,,,,,,,,,,,,,,,,,,,,,,,,,,,,,,,,,,,,,,,,,,,,,,,,,,,,,,,,,,,,,,,,,,,,,,,,,,,,,,,,,,,,,,,,,,,,,,,,,,,,,,,,,,,,,,,,,,,,,,,,,,,,,,,,,,,
,,672b24390a9c197eb61f2f72,2026-03-17_10h23.48.102,kallum_motion_pilot_GIST_update_2,2026.1.1,Win32,59.52380952,672b24390a9c197eb61f2f72,69b92ab4aef6dee357cd729a,69b92b769ea2f78e7086aea4,0.0461,0.0461,0,100,100,41,1,onethree,,,,,,,,,,,,,,,,,,,,,,,,,,,,,,,,,,,,,,,,,,,,,,,,,,,,,,,,,,,,,,,,,,,,,,,,,,,,,,,,,,,,,,,,,,,,,,,,,,,,,,,,,,,,,,,,,,,,,,,,,,,,,,,,,,,,,,,,,
,,672b24390a9c197eb61f2f72,2026-03-17_10h23.48.102,kallum_motion_pilot_GIST_update_2,2026.1.1,Win32,59.52380952,672b24390a9c197eb61f2f72,69b92ab4aef6dee357cd729a,69b92b769ea2f78e7086aea4,0.0465,0.0465,0,101,101,3,1,twofour,,,,,,,,,,,,,,,,,,,,,,,,,,,,,,,,,,,,,,,,,,,,,,,,,,,,,,,,,,,,,,,,,,,,,,,,,,,,,,,,,,,,,,,,,,,,,,,,,,,,,,,,,,,,,,,,,,,,,,,,,,,,,,,,,,,,,,,,,
,,672b24390a9c197eb61f2f72,2026-03-17_10h23.48.102,kallum_motion_pilot_GIST_update_2,2026.1.1,Win32,59.52380952,672b24390a9c197eb61f2f72,69b92ab4aef6dee357cd729a,69b92b769ea2f78e7086aea4,0.0467,0.0468,0,102,102,75,1,twofour,,,,,,,,,,,,,,,,,,,,,,,,,,,,,,,,,,,,,,,,,,,,,,,,,,,,,,,,,,,,,,,,,,,,,,,,,,,,,,,,,,,,,,,,,,,,,,,,,,,,,,,,,,,,,,,,,,,,,,,,,,,,,,,,,,,,,,,,,
,,672b24390a9c197eb61f2f72,2026-03-17_10h23.48.102,kallum_motion_pilot_GIST_update_2,2026.1.1,Win32,59.52380952,672b24390a9c197eb61f2f72,69b92ab4aef6dee357cd729a,69b92b769ea2f78e7086aea4,0.0469,0.0469,0,103,103,0,1,onetwo,,,,,,,,,,,,,,,,,,,,,,,,,,,,,,,,,,,,,,,,,,,,,,,,,,,,,,,,,,,,,,,,,,,,,,,,,,,,,,,,,,,,,,,,,,,,,,,,,,,,,,,,,,,,,,,,,,,,,,,,,,,,,,,,,,,,,,,,,
,,672b24390a9c197eb61f2f72,2026-03-17_10h23.48.102,kallum_motion_pilot_GIST_update_2,2026.1.1,Win32,59.52380952,672b24390a9c197eb61f2f72,69b92ab4aef6dee357cd729a,69b92b769ea2f78e7086aea4,0.0471,0.0471,0,104,104,141,1,seveneight,,,,,,,,,,,,,,,,,,,,,,,,,,,,,,,,,,,,,,,,,,,,,,,,,,,,,,,,,,,,,,,,,,,,,,,,,,,,,,,,,,,,,,,,,,,,,,,,,,,,,,,,,,,,,,,,,,,,,,,,,,,,,,,,,,,,,,,,,
,,672b24390a9c197eb61f2f72,2026-03-17_10h23.48.102,kallum_motion_pilot_GIST_update_2,2026.1.1,Win32,59.52380952,672b24390a9c197eb61f2f72,69b92ab4aef6dee357cd729a,69b92b769ea2f78e7086aea4,0.0473,0.0473,0,105,105,31,1,fourthree,,,,,,,,,,,,,,,,,,,,,,,,,,,,,,,,,,,,,,,,,,,,,,,,,,,,,,,,,,,,,,,,,,,,,,,,,,,,,,,,,,,,,,,,,,,,,,,,,,,,,,,,,,,,,,,,,,,,,,,,,,,,,,,,,,,,,,,,,
,,672b24390a9c197eb61f2f72,2026-03-17_10h23.48.102,kallum_motion_pilot_GIST_update_2,2026.1.1,Win32,59.52380952,672b24390a9c197eb61f2f72,69b92ab4aef6dee357cd729a,69b92b769ea2f78e7086aea4,0.0475,0.0475,0,106,106,9,1,onethree,,,,,,,,,,,,,,,,,,,,,,,,,,,,,,,,,,,,,,,,,,,,,,,,,,,,,,,,,,,,,,,,,,,,,,,,,,,,,,,,,,,,,,,,,,,,,,,,,,,,,,,,,,,,,,,,,,,,,,,,,,,,,,,,,,,,,,,,,
,,672b24390a9c197eb61f2f72,2026-03-17_10h23.48.102,kallum_motion_pilot_GIST_update_2,2026.1.1,Win32,59.52380952,672b24390a9c197eb61f2f72,69b92ab4aef6dee357cd729a,69b92b769ea2f78e7086aea4,0.0477,0.0477,0,107,107,44,1,threeone,,,,,,,,,,,,,,,,,,,,,,,,,,,,,,,,,,,,,,,,,,,,,,,,,,,,,,,,,,,,,,,,,,,,,,,,,,,,,,,,,,,,,,,,,,,,,,,,,,,,,,,,,,,,,,,,,,,,,,,,,,,,,,,,,,,,,,,,,
,,672b24390a9c197eb61f2f72,2026-03-17_10h23.48.102,kallum_motion_pilot_GIST_update_2,2026.1.1,Win32,59.52380952,672b24390a9c197eb61f2f72,69b92ab4aef6dee357cd729a,69b92b769ea2f78e7086aea4,0.0478,0.0478,0,108,108,100,1,sevenfive,,,,,,,,,,,,,,,,,,,,,,,,,,,,,,,,,,,,,,,,,,,,,,,,,,,,,,,,,,,,,,,,,,,,,,,,,,,,,,,,,,,,,,,,,,,,,,,,,,,,,,,,,,,,,,,,,,,,,,,,,,,,,,,,,,,,,,,,,
,,672b24390a9c197eb61f2f72,2026-03-17_10h23.48.102,kallum_motion_pilot_GIST_update_2,2026.1.1,Win32,59.52380952,672b24390a9c197eb61f2f72,69b92ab4aef6dee357cd729a,69b92b769ea2f78e7086aea4,0.0481,0.0481,0,109,109,128,1,fivesix,,,,,,,,,,,,,,,,,,,,,,,,,,,,,,,,,,,,,,,,,,,,,,,,,,,,,,,,,,,,,,,,,,,,,,,,,,,,,,,,,,,,,,,,,,,,,,,,,,,,,,,,,,,,,,,,,,,,,,,,,,,,,,,,,,,,,,,,,
,,672b24390a9c197eb61f2f72,2026-03-17_10h23.48.102,kallum_motion_pilot_GIST_update_2,2026.1.1,Win32,59.52380952,672b24390a9c197eb61f2f72,69b92ab4aef6dee357cd729a,69b92b769ea2f78e7086aea4,0.0482,0.0482,0,110,110,38,1,fourtwo,,,,,,,,,,,,,,,,,,,,,,,,,,,,,,,,,,,,,,,,,,,,,,,,,,,,,,,,,,,,,,,,,,,,,,,,,,,,,,,,,,,,,,,,,,,,,,,,,,,,,,,,,,,,,,,,,,,,,,,,,,,,,,,,,,,,,,,,,
,,672b24390a9c197eb61f2f72,2026-03-17_10h23.48.102,kallum_motion_pilot_GIST_update_2,2026.1.1,Win32,59.52380952,672b24390a9c197eb61f2f72,69b92ab4aef6dee357cd729a,69b92b769ea2f78e7086aea4,0.0485,0.0485,0,111,111,28,1,threeone,,,,,,,,,,,,,,,,,,,,,,,,,,,,,,,,,,,,,,,,,,,,,,,,,,,,,,,,,,,,,,,,,,,,,,,,,,,,,,,,,,,,,,,,,,,,,,,,,,,,,,,,,,,,,,,,,,,,,,,,,,,,,,,,,,,,,,,,,
,,672b24390a9c197eb61f2f72,2026-03-17_10h23.48.102,kallum_motion_pilot_GIST_update_2,2026.1.1,Win32,59.52380952,672b24390a9c197eb61f2f72,69b92ab4aef6dee357cd729a,69b92b769ea2f78e7086aea4,0.0486,0.0486,0,112,112,116,1,sevenfive,,,,,,,,,,,,,,,,,,,,,,,,,,,,,,,,,,,,,,,,,,,,,,,,,,,,,,,,,,,,,,,,,,,,,,,,,,,,,,,,,,,,,,,,,,,,,,,,,,,,,,,,,,,,,,,,,,,,,,,,,,,,,,,,,,,,,,,,,
,,672b24390a9c197eb61f2f72,2026-03-17_10h23.48.102,kallum_motion_pilot_GIST_update_2,2026.1.1,Win32,59.52380952,672b24390a9c197eb61f2f72,69b92ab4aef6dee357cd729a,69b92b769ea2f78e7086aea4,0.0487,0.0488,0,113,113,63,1,fourthree,,,,,,,,,,,,,,,,,,,,,,,,,,,,,,,,,,,,,,,,,,,,,,,,,,,,,,,,,,,,,,,,,,,,,,,,,,,,,,,,,,,,,,,,,,,,,,,,,,,,,,,,,,,,,,,,,,,,,,,,,,,,,,,,,,,,,,,,,
,,672b24390a9c197eb61f2f72,2026-03-17_10h23.48.102,kallum_motion_pilot_GIST_update_2,2026.1.1,Win32,59.52380952,672b24390a9c197eb61f2f72,69b92ab4aef6dee357cd729a,69b92b769ea2f78e7086aea4,0.0491,0.0492,0,114,114,80,1,fivesix,,,,,,,,,,,,,,,,,,,,,,,,,,,,,,,,,,,,,,,,,,,,,,,,,,,,,,,,,,,,,,,,,,,,,,,,,,,,,,,,,,,,,,,,,,,,,,,,,,,,,,,,,,,,,,,,,,,,,,,,,,,,,,,,,,,,,,,,,
,,672b24390a9c197eb61f2f72,2026-03-17_10h23.48.102,kallum_motion_pilot_GIST_update_2,2026.1.1,Win32,59.52380952,672b24390a9c197eb61f2f72,69b92ab4aef6dee357cd729a,69b92b769ea2f78e7086aea4,0.0493,0.0493,0,115,115,135,1,eightseven,,,,,,,,,,,,,,,,,,,,,,,,,,,,,,,,,,,,,,,,,,,,,,,,,,,,,,,,,,,,,,,,,,,,,,,,,,,,,,,,,,,,,,,,,,,,,,,,,,,,,,,,,,,,,,,,,,,,,,,,,,,,,,,,,,,,,,,,,
,,672b24390a9c197eb61f2f72,2026-03-17_10h23.48.102,kallum_motion_pilot_GIST_update_2,2026.1.1,Win32,59.52380952,672b24390a9c197eb61f2f72,69b92ab4aef6dee357cd729a,69b92b769ea2f78e7086aea4,0.0494,0.0494,0,116,116,131,1,sixeight,,,,,,,,,,,,,,,,,,,,,,,,,,,,,,,,,,,,,,,,,,,,,,,,,,,,,,,,,,,,,,,,,,,,,,,,,,,,,,,,,,,,,,,,,,,,,,,,,,,,,,,,,,,,,,,,,,,,,,,,,,,,,,,,,,,,,,,,,
,,672b24390a9c197eb61f2f72,2026-03-17_10h23.48.102,kallum_motion_pilot_GIST_update_2,2026.1.1,Win32,59.52380952,672b24390a9c197eb61f2f72,69b92ab4aef6dee357cd729a,69b92b769ea2f78e7086aea4,0.0496,0.0496,0,117,117,64,1,onetwo,,,,,,,,,,,,,,,,,,,,,,,,,,,,,,,,,,,,,,,,,,,,,,,,,,,,,,,,,,,,,,,,,,,,,,,,,,,,,,,,,,,,,,,,,,,,,,,,,,,,,,,,,,,,,,,,,,,,,,,,,,,,,,,,,,,,,,,,,
,,672b24390a9c197eb61f2f72,2026-03-17_10h23.48.102,kallum_motion_pilot_GIST_update_2,2026.1.1,Win32,59.52380952,672b24390a9c197eb61f2f72,69b92ab4aef6dee357cd729a,69b92b769ea2f78e7086aea4,0.0498,0.0498,0,118,118,6,1,fourtwo,,,,,,,,,,,,,,,,,,,,,,,,,,,,,,,,,,,,,,,,,,,,,,,,,,,,,,,,,,,,,,,,,,,,,,,,,,,,,,,,,,,,,,,,,,,,,,,,,,,,,,,,,,,,,,,,,,,,,,,,,,,,,,,,,,,,,,,,,
,,672b24390a9c197eb61f2f72,2026-03-17_10h23.48.102,kallum_motion_pilot_GIST_update_2,2026.1.1,Win32,59.52380952,672b24390a9c197eb61f2f72,69b92ab4aef6dee357cd729a,69b92b769ea2f78e7086aea4,0.05,0.0501,0,119,119,150,1,eightsix,,,,,,,,,,,,,,,,,,,,,,,,,,,,,,,,,,,,,,,,,,,,,,,,,,,,,,,,,,,,,,,,,,,,,,,,,,,,,,,,,,,,,,,,,,,,,,,,,,,,,,,,,,,,,,,,,,,,,,,,,,,,,,,,,,,,,,,,,
,,672b24390a9c197eb61f2f72,2026-03-17_10h23.48.102,kallum_motion_pilot_GIST_update_2,2026.1.1,Win32,59.52380952,672b24390a9c197eb61f2f72,69b92ab4aef6dee357cd729a,69b92b769ea2f78e7086aea4,0.0502,0.0502,0,120,120,21,1,threefour,,,,,,,,,,,,,,,,,,,,,,,,,,,,,,,,,,,,,,,,,,,,,,,,,,,,,,,,,,,,,,,,,,,,,,,,,,,,,,,,,,,,,,,,,,,,,,,,,,,,,,,,,,,,,,,,,,,,,,,,,,,,,,,,,,,,,,,,,
,,672b24390a9c197eb61f2f72,2026-03-17_10h23.48.102,kallum_motion_pilot_GIST_update_2,2026.1.1,Win32,59.52380952,672b24390a9c197eb61f2f72,69b92ab4aef6dee357cd729a,69b92b769ea2f78e7086aea4,0.0505,0.0505,0,121,121,37,1,threefour,,,,,,,,,,,,,,,,,,,,,,,,,,,,,,,,,,,,,,,,,,,,,,,,,,,,,,,,,,,,,,,,,,,,,,,,,,,,,,,,,,,,,,,,,,,,,,,,,,,,,,,,,,,,,,,,,,,,,,,,,,,,,,,,,,,,,,,,,
,,672b24390a9c197eb61f2f72,2026-03-17_10h23.48.102,kallum_motion_pilot_GIST_update_2,2026.1.1,Win32,59.52380952,672b24390a9c197eb61f2f72,69b92ab4aef6dee357cd729a,69b92b769ea2f78e7086aea4,0.0506,0.0506,0,122,122,122,1,sixfive,,,,,,,,,,,,,,,,,,,,,,,,,,,,,,,,,,,,,,,,,,,,,,,,,,,,,,,,,,,,,,,,,,,,,,,,,,,,,,,,,,,,,,,,,,,,,,,,,,,,,,,,,,,,,,,,,,,,,,,,,,,,,,,,,,,,,,,,,
,,672b24390a9c197eb61f2f72,2026-03-17_10h23.48.102,kallum_motion_pilot_GIST_update_2,2026.1.1,Win32,59.52380952,672b24390a9c197eb61f2f72,69b92ab4aef6dee357cd729a,69b92b769ea2f78e7086aea4,0.0507,0.0507,0,123,123,48,1,onetwo,,,,,,,,,,,,,,,,,,,,,,,,,,,,,,,,,,,,,,,,,,,,,,,,,,,,,,,,,,,,,,,,,,,,,,,,,,,,,,,,,,,,,,,,,,,,,,,,,,,,,,,,,,,,,,,,,,,,,,,,,,,,,,,,,,,,,,,,,
,,672b24390a9c197eb61f2f72,2026-03-17_10h23.48.102,kallum_motion_pilot_GIST_update_2,2026.1.1,Win32,59.52380952,672b24390a9c197eb61f2f72,69b92ab4aef6dee357cd729a,69b92b769ea2f78e7086aea4,0.0509,0.051,0,124,124,76,1,threeone,,,,,,,,,,,,,,,,,,,,,,,,,,,,,,,,,,,,,,,,,,,,,,,,,,,,,,,,,,,,,,,,,,,,,,,,,,,,,,,,,,,,,,,,,,,,,,,,,,,,,,,,,,,,,,,,,,,,,,,,,,,,,,,,,,,,,,,,,
,,672b24390a9c197eb61f2f72,2026-03-17_10h23.48.102,kallum_motion_pilot_GIST_update_2,2026.1.1,Win32,59.52380952,672b24390a9c197eb61f2f72,69b92ab4aef6dee357cd729a,69b92b769ea2f78e7086aea4,0.0512,0.0513,0,125,125,138,1,sixfive,,,,,,,,,,,,,,,,,,,,,,,,,,,,,,,,,,,,,,,,,,,,,,,,,,,,,,,,,,,,,,,,,,,,,,,,,,,,,,,,,,,,,,,,,,,,,,,,,,,,,,,,,,,,,,,,,,,,,,,,,,,,,,,,,,,,,,,,,
,,672b24390a9c197eb61f2f72,2026-03-17_10h23.48.102,kallum_motion_pilot_GIST_update_2,2026.1.1,Win32,59.52380952,672b24390a9c197eb61f2f72,69b92ab4aef6dee357cd729a,69b92b769ea2f78e7086aea4,0.0515,0.0515,0,126,126,55,1,fourthree,,,,,,,,,,,,,,,,,,,,,,,,,,,,,,,,,,,,,,,,,,,,,,,,,,,,,,,,,,,,,,,,,,,,,,,,,,,,,,,,,,,,,,,,,,,,,,,,,,,,,,,,,,,,,,,,,,,,,,,,,,,,,,,,,,,,,,,,,
,,672b24390a9c197eb61f2f72,2026-03-17_10h23.48.102,kallum_motion_pilot_GIST_update_2,2026.1.1,Win32,59.52380952,672b24390a9c197eb61f2f72,69b92ab4aef6dee357cd729a,69b92b769ea2f78e7086aea4,0.0517,0.0517,0,127,127,50,1,twoone,,,,,,,,,,,,,,,,,,,,,,,,,,,,,,,,,,,,,,,,,,,,,,,,,,,,,,,,,,,,,,,,,,,,,,,,,,,,,,,,,,,,,,,,,,,,,,,,,,,,,,,,,,,,,,,,,,,,,,,,,,,,,,,,,,,,,,,,,
,,672b24390a9c197eb61f2f72,2026-03-17_10h23.48.102,kallum_motion_pilot_GIST_update_2,2026.1.1,Win32,59.52380952,672b24390a9c197eb61f2f72,69b92ab4aef6dee357cd729a,69b92b769ea2f78e7086aea4,0.0519,0.0519,0,128,128,17,1,onethree,,,,,,,,,,,,,,,,,,,,,,,,,,,,,,,,,,,,,,,,,,,,,,,,,,,,,,,,,,,,,,,,,,,,,,,,,,,,,,,,,,,,,,,,,,,,,,,,,,,,,,,,,,,,,,,,,,,,,,,,,,,,,,,,,,,,,,,,,
,,672b24390a9c197eb61f2f72,2026-03-17_10h23.48.102,kallum_motion_pilot_GIST_update_2,2026.1.1,Win32,59.52380952,672b24390a9c197eb61f2f72,69b92ab4aef6dee357cd729a,69b92b769ea2f78e7086aea4,0.0521,0.0521,0,129,129,113,1,fiveseven,,,,,,,,,,,,,,,,,,,,,,,,,,,,,,,,,,,,,,,,,,,,,,,,,,,,,,,,,,,,,,,,,,,,,,,,,,,,,,,,,,,,,,,,,,,,,,,,,,,,,,,,,,,,,,,,,,,,,,,,,,,,,,,,,,,,,,,,,
,,672b24390a9c197eb61f2f72,2026-03-17_10h23.48.102,kallum_motion_pilot_GIST_update_2,2026.1.1,Win32,59.52380952,672b24390a9c197eb61f2f72,69b92ab4aef6dee357cd729a,69b92b769ea2f78e7086aea4,0.0524,0.0524,0,130,130,68,1,threeone,,,,,,,,,,,,,,,,,,,,,,,,,,,,,,,,,,,,,,,,,,,,,,,,,,,,,,,,,,,,,,,,,,,,,,,,,,,,,,,,,,,,,,,,,,,,,,,,,,,,,,,,,,,,,,,,,,,,,,,,,,,,,,,,,,,,,,,,,
,,672b24390a9c197eb61f2f72,2026-03-17_10h23.48.102,kallum_motion_pilot_GIST_update_2,2026.1.1,Win32,59.52380952,672b24390a9c197eb61f2f72,69b92ab4aef6dee357cd729a,69b92b769ea2f78e7086aea4,0.0525,0.0525,0,131,131,8,1,onetwo,,,,,,,,,,,,,,,,,,,,,,,,,,,,,,,,,,,,,,,,,,,,,,,,,,,,,,,,,,,,,,,,,,,,,,,,,,,,,,,,,,,,,,,,,,,,,,,,,,,,,,,,,,,,,,,,,,,,,,,,,,,,,,,,,,,,,,,,,
,,672b24390a9c197eb61f2f72,2026-03-17_10h23.48.102,kallum_motion_pilot_GIST_update_2,2026.1.1,Win32,59.52380952,672b24390a9c197eb61f2f72,69b92ab4aef6dee357cd729a,69b92b769ea2f78e7086aea4,0.0526,0.0526,0,132,132,5,1,threefour,,,,,,,,,,,,,,,,,,,,,,,,,,,,,,,,,,,,,,,,,,,,,,,,,,,,,,,,,,,,,,,,,,,,,,,,,,,,,,,,,,,,,,,,,,,,,,,,,,,,,,,,,,,,,,,,,,,,,,,,,,,,,,,,,,,,,,,,,
,,672b24390a9c197eb61f2f72,2026-03-17_10h23.48.102,kallum_motion_pilot_GIST_update_2,2026.1.1,Win32,59.52380952,672b24390a9c197eb61f2f72,69b92ab4aef6dee357cd729a,69b92b769ea2f78e7086aea4,0.0528,0.0528,0,133,133,101,1,seveneight,,,,,,,,,,,,,,,,,,,,,,,,,,,,,,,,,,,,,,,,,,,,,,,,,,,,,,,,,,,,,,,,,,,,,,,,,,,,,,,,,,,,,,,,,,,,,,,,,,,,,,,,,,,,,,,,,,,,,,,,,,,,,,,,,,,,,,,,,
,,672b24390a9c197eb61f2f72,2026-03-17_10h23.48.102,kallum_motion_pilot_GIST_update_2,2026.1.1,Win32,59.52380952,672b24390a9c197eb61f2f72,69b92ab4aef6dee357cd729a,69b92b769ea2f78e7086aea4,0.053,0.053,0,134,134,115,1,sixeight,,,,,,,,,,,,,,,,,,,,,,,,,,,,,,,,,,,,,,,,,,,,,,,,,,,,,,,,,,,,,,,,,,,,,,,,,,,,,,,,,,,,,,,,,,,,,,,,,,,,,,,,,,,,,,,,,,,,,,,,,,,,,,,,,,,,,,,,,
,,672b24390a9c197eb61f2f72,2026-03-17_10h23.48.102,kallum_motion_pilot_GIST_update_2,2026.1.1,Win32,59.52380952,672b24390a9c197eb61f2f72,69b92ab4aef6dee357cd729a,69b92b769ea2f78e7086aea4,0.0531,0.0531,0,135,135,160,1,fivesix,,,,,,,,,,,,,,,,,,,,,,,,,,,,,,,,,,,,,,,,,,,,,,,,,,,,,,,,,,,,,,,,,,,,,,,,,,,,,,,,,,,,,,,,,,,,,,,,,,,,,,,,,,,,,,,,,,,,,,,,,,,,,,,,,,,,,,,,,
,,672b24390a9c197eb61f2f72,2026-03-17_10h23.48.102,kallum_motion_pilot_GIST_update_2,2026.1.1,Win32,59.52380952,672b24390a9c197eb61f2f72,69b92ab4aef6dee357cd729a,69b92b769ea2f78e7086aea4,0.0534,0.0534,0,136,136,77,1,threefour,,,,,,,,,,,,,,,,,,,,,,,,,,,,,,,,,,,,,,,,,,,,,,,,,,,,,,,,,,,,,,,,,,,,,,,,,,,,,,,,,,,,,,,,,,,,,,,,,,,,,,,,,,,,,,,,,,,,,,,,,,,,,,,,,,,,,,,,,
,,672b24390a9c197eb61f2f72,2026-03-17_10h23.48.102,kallum_motion_pilot_GIST_update_2,2026.1.1,Win32,59.52380952,672b24390a9c197eb61f2f72,69b92ab4aef6dee357cd729a,69b92b769ea2f78e7086aea4,0.0535,0.0536,0,137,137,33,1,onethree,,,,,,,,,,,,,,,,,,,,,,,,,,,,,,,,,,,,,,,,,,,,,,,,,,,,,,,,,,,,,,,,,,,,,,,,,,,,,,,,,,,,,,,,,,,,,,,,,,,,,,,,,,,,,,,,,,,,,,,,,,,,,,,,,,,,,,,,,
,,672b24390a9c197eb61f2f72,2026-03-17_10h23.48.102,kallum_motion_pilot_GIST_update_2,2026.1.1,Win32,59.52380952,672b24390a9c197eb61f2f72,69b92ab4aef6dee357cd729a,69b92b769ea2f78e7086aea4,0.0538,0.0538,0,138,138,78,1,fourtwo,,,,,,,,,,,,,,,,,,,,,,,,,,,,,,,,,,,,,,,,,,,,,,,,,,,,,,,,,,,,,,,,,,,,,,,,,,,,,,,,,,,,,,,,,,,,,,,,,,,,,,,,,,,,,,,,,,,,,,,,,,,,,,,,,,,,,,,,,
,,672b24390a9c197eb61f2f72,2026-03-17_10h23.48.102,kallum_motion_pilot_GIST_update_2,2026.1.1,Win32,59.52380952,672b24390a9c197eb61f2f72,69b92ab4aef6dee357cd729a,69b92b769ea2f78e7086aea4,0.0539,0.054,0,139,139,94,1,eightsix,,,,,,,,,,,,,,,,,,,,,,,,,,,,,,,,,,,,,,,,,,,,,,,,,,,,,,,,,,,,,,,,,,,,,,,,,,,,,,,,,,,,,,,,,,,,,,,,,,,,,,,,,,,,,,,,,,,,,,,,,,,,,,,,,,,,,,,,,
,,672b24390a9c197eb61f2f72,2026-03-17_10h23.48.102,kallum_motion_pilot_GIST_update_2,2026.1.1,Win32,59.52380952,672b24390a9c197eb61f2f72,69b92ab4aef6dee357cd729a,69b92b769ea2f78e7086aea4,0.0541,0.0541,0,140,140,18,1,twoone,,,,,,,,,,,,,,,,,,,,,,,,,,,,,,,,,,,,,,,,,,,,,,,,,,,,,,,,,,,,,,,,,,,,,,,,,,,,,,,,,,,,,,,,,,,,,,,,,,,,,,,,,,,,,,,,,,,,,,,,,,,,,,,,,,,,,,,,,
,,672b24390a9c197eb61f2f72,2026-03-17_10h23.48.102,kallum_motion_pilot_GIST_update_2,2026.1.1,Win32,59.52380952,672b24390a9c197eb61f2f72,69b92ab4aef6dee357cd729a,69b92b769ea2f78e7086aea4,0.0544,0.0544,0,141,141,145,1,fiveseven,,,,,,,,,,,,,,,,,,,,,,,,,,,,,,,,,,,,,,,,,,,,,,,,,,,,,,,,,,,,,,,,,,,,,,,,,,,,,,,,,,,,,,,,,,,,,,,,,,,,,,,,,,,,,,,,,,,,,,,,,,,,,,,,,,,,,,,,,
,,672b24390a9c197eb61f2f72,2026-03-17_10h23.48.102,kallum_motion_pilot_GIST_update_2,2026.1.1,Win32,59.52380952,672b24390a9c197eb61f2f72,69b92ab4aef6dee357cd729a,69b92b769ea2f78e7086aea4,0.0546,0.0546,0,142,142,140,1,sevenfive,,,,,,,,,,,,,,,,,,,,,,,,,,,,,,,,,,,,,,,,,,,,,,,,,,,,,,,,,,,,,,,,,,,,,,,,,,,,,,,,,,,,,,,,,,,,,,,,,,,,,,,,,,,,,,,,,,,,,,,,,,,,,,,,,,,,,,,,,
,,672b24390a9c197eb61f2f72,2026-03-17_10h23.48.102,kallum_motion_pilot_GIST_update_2,2026.1.1,Win32,59.52380952,672b24390a9c197eb61f2f72,69b92ab4aef6dee357cd729a,69b92b769ea2f78e7086aea4,0.0548,0.0548,0,143,143,23,1,fourthree,,,,,,,,,,,,,,,,,,,,,,,,,,,,,,,,,,,,,,,,,,,,,,,,,,,,,,,,,,,,,,,,,,,,,,,,,,,,,,,,,,,,,,,,,,,,,,,,,,,,,,,,,,,,,,,,,,,,,,,,,,,,,,,,,,,,,,,,,
,,672b24390a9c197eb61f2f72,2026-03-17_10h23.48.102,kallum_motion_pilot_GIST_update_2,2026.1.1,Win32,59.52380952,672b24390a9c197eb61f2f72,69b92ab4aef6dee357cd729a,69b92b769ea2f78e7086aea4,0.0549,0.0549,0,144,144,136,1,fivesix,,,,,,,,,,,,,,,,,,,,,,,,,,,,,,,,,,,,,,,,,,,,,,,,,,,,,,,,,,,,,,,,,,,,,,,,,,,,,,,,,,,,,,,,,,,,,,,,,,,,,,,,,,,,,,,,,,,,,,,,,,,,,,,,,,,,,,,,,
,,672b24390a9c197eb61f2f72,2026-03-17_10h23.48.102,kallum_motion_pilot_GIST_update_2,2026.1.1,Win32,59.52380952,672b24390a9c197eb61f2f72,69b92ab4aef6dee357cd729a,69b92b769ea2f78e7086aea4,0.0551,0.0551,0,145,145,13,1,threefour,,,,,,,,,,,,,,,,,,,,,,,,,,,,,,,,,,,,,,,,,,,,,,,,,,,,,,,,,,,,,,,,,,,,,,,,,,,,,,,,,,,,,,,,,,,,,,,,,,,,,,,,,,,,,,,,,,,,,,,,,,,,,,,,,,,,,,,,,
,,672b24390a9c197eb61f2f72,2026-03-17_10h23.48.102,kallum_motion_pilot_GIST_update_2,2026.1.1,Win32,59.52380952,672b24390a9c197eb61f2f72,69b92ab4aef6dee357cd729a,69b92b769ea2f78e7086aea4,0.0554,0.0554,0,146,146,26,1,twoone,,,,,,,,,,,,,,,,,,,,,,,,,,,,,,,,,,,,,,,,,,,,,,,,,,,,,,,,,,,,,,,,,,,,,,,,,,,,,,,,,,,,,,,,,,,,,,,,,,,,,,,,,,,,,,,,,,,,,,,,,,,,,,,,,,,,,,,,,
,,672b24390a9c197eb61f2f72,2026-03-17_10h23.48.102,kallum_motion_pilot_GIST_update_2,2026.1.1,Win32,59.52380952,672b24390a9c197eb61f2f72,69b92ab4aef6dee357cd729a,69b92b769ea2f78e7086aea4,0.0556,0.0556,0,147,147,105,1,fiveseven,,,,,,,,,,,,,,,,,,,,,,,,,,,,,,,,,,,,,,,,,,,,,,,,,,,,,,,,,,,,,,,,,,,,,,,,,,,,,,,,,,,,,,,,,,,,,,,,,,,,,,,,,,,,,,,,,,,,,,,,,,,,,,,,,,,,,,,,,
,,672b24390a9c197eb61f2f72,2026-03-17_10h23.48.102,kallum_motion_pilot_GIST_update_2,2026.1.1,Win32,59.52380952,672b24390a9c197eb61f2f72,69b92ab4aef6dee357cd729a,69b92b769ea2f78e7086aea4,0.0557,0.0557,0,148,148,161,1,fiveseven,,,,,,,,,,,,,,,,,,,,,,,,,,,,,,,,,,,,,,,,,,,,,,,,,,,,,,,,,,,,,,,,,,,,,,,,,,,,,,,,,,,,,,,,,,,,,,,,,,,,,,,,,,,,,,,,,,,,,,,,,,,,,,,,,,,,,,,,,
,,672b24390a9c197eb61f2f72,2026-03-17_10h23.48.102,kallum_motion_pilot_GIST_update_2,2026.1.1,Win32,59.52380952,672b24390a9c197eb61f2f72,69b92ab4aef6dee357cd729a,69b92b769ea2f78e7086aea4,0.0558,0.0558,0,149,149,127,1,eightseven,,,,,,,,,,,,,,,,,,,,,,,,,,,,,,,,,,,,,,,,,,,,,,,,,,,,,,,,,,,,,,,,,,,,,,,,,,,,,,,,,,,,,,,,,,,,,,,,,,,,,,,,,,,,,,,,,,,,,,,,,,,,,,,,,,,,,,,,,
,,672b24390a9c197eb61f2f72,2026-03-17_10h23.48.102,kallum_motion_pilot_GIST_update_2,2026.1.1,Win32,59.52380952,672b24390a9c197eb61f2f72,69b92ab4aef6dee357cd729a,69b92b769ea2f78e7086aea4,0.0559,0.056,0,150,150,57,1,onethree,,,,,,,,,,,,,,,,,,,,,,,,,,,,,,,,,,,,,,,,,,,,,,,,,,,,,,,,,,,,,,,,,,,,,,,,,,,,,,,,,,,,,,,,,,,,,,,,,,,,,,,,,,,,,,,,,,,,,,,,,,,,,,,,,,,,,,,,,
,,672b24390a9c197eb61f2f72,2026-03-17_10h23.48.102,kallum_motion_pilot_GIST_update_2,2026.1.1,Win32,59.52380952,672b24390a9c197eb61f2f72,69b92ab4aef6dee357cd729a,69b92b769ea2f78e7086aea4,0.0562,0.0562,0,151,151,35,1,twofour,,,,,,,,,,,,,,,,,,,,,,,,,,,,,,,,,,,,,,,,,,,,,,,,,,,,,,,,,,,,,,,,,,,,,,,,,,,,,,,,,,,,,,,,,,,,,,,,,,,,,,,,,,,,,,,,,,,,,,,,,,,,,,,,,,,,,,,,,
,,672b24390a9c197eb61f2f72,2026-03-17_10h23.48.102,kallum_motion_pilot_GIST_update_2,2026.1.1,Win32,59.52380952,672b24390a9c197eb61f2f72,69b92ab4aef6dee357cd729a,69b92b769ea2f78e7086aea4,0.0563,0.0563,0,152,152,79,1,eightseven,,,,,,,,,,,,,,,,,,,,,,,,,,,,,,,,,,,,,,,,,,,,,,,,,,,,,,,,,,,,,,,,,,,,,,,,,,,,,,,,,,,,,,,,,,,,,,,,,,,,,,,,,,,,,,,,,,,,,,,,,,,,,,,,,,,,,,,,,
,,672b24390a9c197eb61f2f72,2026-03-17_10h23.48.102,kallum_motion_pilot_GIST_update_2,2026.1.1,Win32,59.52380952,672b24390a9c197eb61f2f72,69b92ab4aef6dee357cd729a,69b92b769ea2f78e7086aea4,0.0566,0.0566,0,153,153,88,1,fivesix,,,,,,,,,,,,,,,,,,,,,,,,,,,,,,,,,,,,,,,,,,,,,,,,,,,,,,,,,,,,,,,,,,,,,,,,,,,,,,,,,,,,,,,,,,,,,,,,,,,,,,,,,,,,,,,,,,,,,,,,,,,,,,,,,,,,,,,,,
,,672b24390a9c197eb61f2f72,2026-03-17_10h23.48.102,kallum_motion_pilot_GIST_update_2,2026.1.1,Win32,59.52380952,672b24390a9c197eb61f2f72,69b92ab4aef6dee357cd729a,69b92b769ea2f78e7086aea4,0.0568,0.0568,0,154,154,34,1,twoone,,,,,,,,,,,,,,,,,,,,,,,,,,,,,,,,,,,,,,,,,,,,,,,,,,,,,,,,,,,,,,,,,,,,,,,,,,,,,,,,,,,,,,,,,,,,,,,,,,,,,,,,,,,,,,,,,,,,,,,,,,,,,,,,,,,,,,,,,
,,672b24390a9c197eb61f2f72,2026-03-17_10h23.48.102,kallum_motion_pilot_GIST_update_2,2026.1.1,Win32,59.52380952,672b24390a9c197eb61f2f72,69b92ab4aef6dee357cd729a,69b92b769ea2f78e7086aea4,0.057,0.057,0,155,155,11,1,twofour,,,,,,,,,,,,,,,,,,,,,,,,,,,,,,,,,,,,,,,,,,,,,,,,,,,,,,,,,,,,,,,,,,,,,,,,,,,,,,,,,,,,,,,,,,,,,,,,,,,,,,,,,,,,,,,,,,,,,,,,,,,,,,,,,,,,,,,,,
,,672b24390a9c197eb61f2f72,2026-03-17_10h23.48.102,kallum_motion_pilot_GIST_update_2,2026.1.1,Win32,59.52380952,672b24390a9c197eb61f2f72,69b92ab4aef6dee357cd729a,69b92b769ea2f78e7086aea4,0.0572,0.0572,0,156,156,1,1,onethree,,,,,,,,,,,,,,,,,,,,,,,,,,,,,,,,,,,,,,,,,,,,,,,,,,,,,,,,,,,,,,,,,,,,,,,,,,,,,,,,,,,,,,,,,,,,,,,,,,,,,,,,,,,,,,,,,,,,,,,,,,,,,,,,,,,,,,,,,
,,672b24390a9c197eb61f2f72,2026-03-17_10h23.48.102,kallum_motion_pilot_GIST_update_2,2026.1.1,Win32,59.52380952,672b24390a9c197eb61f2f72,69b92ab4aef6dee357cd729a,69b92b769ea2f78e7086aea4,0.0575,0.0575,0,157,157,118,1,eightsix,,,,,,,,,,,,,,,,,,,,,,,,,,,,,,,,,,,,,,,,,,,,,,,,,,,,,,,,,,,,,,,,,,,,,,,,,,,,,,,,,,,,,,,,,,,,,,,,,,,,,,,,,,,,,,,,,,,,,,,,,,,,,,,,,,,,,,,,,
,,672b24390a9c197eb61f2f72,2026-03-17_10h23.48.102,kallum_motion_pilot_GIST_update_2,2026.1.1,Win32,59.52380952,672b24390a9c197eb61f2f72,69b92ab4aef6dee357cd729a,69b92b769ea2f78e7086aea4,0.0576,0.0576,0,158,158,90,1,sixfive,,,,,,,,,,,,,,,,,,,,,,,,,,,,,,,,,,,,,,,,,,,,,,,,,,,,,,,,,,,,,,,,,,,,,,,,,,,,,,,,,,,,,,,,,,,,,,,,,,,,,,,,,,,,,,,,,,,,,,,,,,,,,,,,,,,,,,,,,
,,672b24390a9c197eb61f2f72,2026-03-17_10h23.48.102,kallum_motion_pilot_GIST_update_2,2026.1.1,Win32,59.52380952,672b24390a9c197eb61f2f72,69b92ab4aef6dee357cd729a,69b92b769ea2f78e7086aea4,0.0578,0.0578,0,159,159,96,1,fivesix,,,,,,,,,,,,,,,,,,,,,,,,,,,,,,,,,,,,,,,,,,,,,,,,,,,,,,,,,,,,,,,,,,,,,,,,,,,,,,,,,,,,,,,,,,,,,,,,,,,,,,,,,,,,,,,,,,,,,,,,,,,,,,,,,,,,,,,,,
,,672b24390a9c197eb61f2f72,2026-03-17_10h23.48.102,kallum_motion_pilot_GIST_update_2,2026.1.1,Win32,59.52380952,672b24390a9c197eb61f2f72,69b92ab4aef6dee357cd729a,69b92b769ea2f78e7086aea4,0.0581,0.0581,0,160,160,7,1,fourthree,,,,,,,,,,,,,,,,,,,,,,,,,,,,,,,,,,,,,,,,,,,,,,,,,,,,,,,,,,,,,,,,,,,,,,,,,,,,,,,,,,,,,,,,,,,,,,,,,,,,,,,,,,,,,,,,,,,,,,,,,,,,,,,,,,,,,,,,,
,,672b24390a9c197eb61f2f72,2026-03-17_10h23.48.102,kallum_motion_pilot_GIST_update_2,2026.1.1,Win32,59.52380952,672b24390a9c197eb61f2f72,69b92ab4aef6dee357cd729a,69b92b769ea2f78e7086aea4,0.0583,0.0583,0,161,161,159,1,eightseven,,,,,,,,,,,,,,,,,,,,,,,,,,,,,,,,,,,,,,,,,,,,,,,,,,,,,,,,,,,,,,,,,,,,,,,,,,,,,,,,,,,,,,,,,,,,,,,,,,,,,,,,,,,,,,,,,,,,,,,,,,,,,,,,,,,,,,,,,
,,672b24390a9c197eb61f2f72,2026-03-17_10h23.48.102,kallum_motion_pilot_GIST_update_2,2026.1.1,Win32,59.52380952,672b24390a9c197eb61f2f72,69b92ab4aef6dee357cd729a,69b92b769ea2f78e7086aea4,0.0584,0.0584,1,0,162,18,1,twoone,,,,,,,,,,,,,,,,,,,,,,,,,,,,,,,,,,,,,,,,,,,,,,,,,,,,,,,,,,,,,,,,,,,,,,,,,,,,,,,,,,,,,,,,,,,,,,,,,,,,,,,,,,,,,,,,,,,,,,,,,,,,,,,,,,,,,,,,,
,,672b24390a9c197eb61f2f72,2026-03-17_10h23.48.102,kallum_motion_pilot_GIST_update_2,2026.1.1,Win32,59.52380952,672b24390a9c197eb61f2f72,69b92ab4aef6dee357cd729a,69b92b769ea2f78e7086aea4,0.0586,0.0586,1,1,163,5,1,threefour,,,,,,,,,,,,,,,,,,,,,,,,,,,,,,,,,,,,,,,,,,,,,,,,,,,,,,,,,,,,,,,,,,,,,,,,,,,,,,,,,,,,,,,,,,,,,,,,,,,,,,,,,,,,,,,,,,,,,,,,,,,,,,,,,,,,,,,,,
,,672b24390a9c197eb61f2f72,2026-03-17_10h23.48.102,kallum_motion_pilot_GIST_update_2,2026.1.1,Win32,59.52380952,672b24390a9c197eb61f2f72,69b92ab4aef6dee357cd729a,69b92b769ea2f78e7086aea4,0.0587,0.0587,1,2,164,40,1,onetwo,,,,,,,,,,,,,,,,,,,,,,,,,,,,,,,,,,,,,,,,,,,,,,,,,,,,,,,,,,,,,,,,,,,,,,,,,,,,,,,,,,,,,,,,,,,,,,,,,,,,,,,,,,,,,,,,,,,,,,,,,,,,,,,,,,,,,,,,,
,,672b24390a9c197eb61f2f72,2026-03-17_10h23.48.102,kallum_motion_pilot_GIST_update_2,2026.1.1,Win32,59.52380952,672b24390a9c197eb61f2f72,69b92ab4aef6dee357cd729a,69b92b769ea2f78e7086aea4,0.059,0.059,1,3,165,15,1,fourthree,,,,,,,,,,,,,,,,,,,,,,,,,,,,,,,,,,,,,,,,,,,,,,,,,,,,,,,,,,,,,,,,,,,,,,,,,,,,,,,,,,,,,,,,,,,,,,,,,,,,,,,,,,,,,,,,,,,,,,,,,,,,,,,,,,,,,,,,,
,,672b24390a9c197eb61f2f72,2026-03-17_10h23.48.102,kallum_motion_pilot_GIST_update_2,2026.1.1,Win32,59.52380952,672b24390a9c197eb61f2f72,69b92ab4aef6dee357cd729a,69b92b769ea2f78e7086aea4,0.0593,0.0593,1,4,166,140,1,sevenfive,,,,,,,,,,,,,,,,,,,,,,,,,,,,,,,,,,,,,,,,,,,,,,,,,,,,,,,,,,,,,,,,,,,,,,,,,,,,,,,,,,,,,,,,,,,,,,,,,,,,,,,,,,,,,,,,,,,,,,,,,,,,,,,,,,,,,,,,,
,,672b24390a9c197eb61f2f72,2026-03-17_10h23.48.102,kallum_motion_pilot_GIST_update_2,2026.1.1,Win32,59.52380952,672b24390a9c197eb61f2f72,69b92ab4aef6dee357cd729a,69b92b769ea2f78e7086aea4,0.0594,0.0594,1,5,167,14,1,fourtwo,,,,,,,,,,,,,,,,,,,,,,,,,,,,,,,,,,,,,,,,,,,,,,,,,,,,,,,,,,,,,,,,,,,,,,,,,,,,,,,,,,,,,,,,,,,,,,,,,,,,,,,,,,,,,,,,,,,,,,,,,,,,,,,,,,,,,,,,,
,,672b24390a9c197eb61f2f72,2026-03-17_10h23.48.102,kallum_motion_pilot_GIST_update_2,2026.1.1,Win32,59.52380952,672b24390a9c197eb61f2f72,69b92ab4aef6dee357cd729a,69b92b769ea2f78e7086aea4,0.0596,0.0596,1,6,168,143,1,eightseven,,,,,,,,,,,,,,,,,,,,,,,,,,,,,,,,,,,,,,,,,,,,,,,,,,,,,,,,,,,,,,,,,,,,,,,,,,,,,,,,,,,,,,,,,,,,,,,,,,,,,,,,,,,,,,,,,,,,,,,,,,,,,,,,,,,,,,,,,
,,672b24390a9c197eb61f2f72,2026-03-17_10h23.48.102,kallum_motion_pilot_GIST_update_2,2026.1.1,Win32,59.52380952,672b24390a9c197eb61f2f72,69b92ab4aef6dee357cd729a,69b92b769ea2f78e7086aea4,0.0597,0.0597,1,7,169,64,1,onetwo,,,,,,,,,,,,,,,,,,,,,,,,,,,,,,,,,,,,,,,,,,,,,,,,,,,,,,,,,,,,,,,,,,,,,,,,,,,,,,,,,,,,,,,,,,,,,,,,,,,,,,,,,,,,,,,,,,,,,,,,,,,,,,,,,,,,,,,,,
,,672b24390a9c197eb61f2f72,2026-03-17_10h23.48.102,kallum_motion_pilot_GIST_update_2,2026.1.1,Win32,59.52380952,672b24390a9c197eb61f2f72,69b92ab4aef6dee357cd729a,69b92b769ea2f78e7086aea4,0.0598,0.0598,1,8,170,117,1,seveneight,,,,,,,,,,,,,,,,,,,,,,,,,,,,,,,,,,,,,,,,,,,,,,,,,,,,,,,,,,,,,,,,,,,,,,,,,,,,,,,,,,,,,,,,,,,,,,,,,,,,,,,,,,,,,,,,,,,,,,,,,,,,,,,,,,,,,,,,,
,,672b24390a9c197eb61f2f72,2026-03-17_10h23.48.102,kallum_motion_pilot_GIST_update_2,2026.1.1,Win32,59.52380952,672b24390a9c197eb61f2f72,69b92ab4aef6dee357cd729a,69b92b769ea2f78e7086aea4,0.0599,0.06,1,9,171,58,1,twoone,,,,,,,,,,,,,,,,,,,,,,,,,,,,,,,,,,,,,,,,,,,,,,,,,,,,,,,,,,,,,,,,,,,,,,,,,,,,,,,,,,,,,,,,,,,,,,,,,,,,,,,,,,,,,,,,,,,,,,,,,,,,,,,,,,,,,,,,,
,,672b24390a9c197eb61f2f72,2026-03-17_10h23.48.102,kallum_motion_pilot_GIST_update_2,2026.1.1,Win32,59.52380952,672b24390a9c197eb61f2f72,69b92ab4aef6dee357cd729a,69b92b769ea2f78e7086aea4,0.0601,0.0601,1,10,172,102,1,eightsix,,,,,,,,,,,,,,,,,,,,,,,,,,,,,,,,,,,,,,,,,,,,,,,,,,,,,,,,,,,,,,,,,,,,,,,,,,,,,,,,,,,,,,,,,,,,,,,,,,,,,,,,,,,,,,,,,,,,,,,,,,,,,,,,,,,,,,,,,
,,672b24390a9c197eb61f2f72,2026-03-17_10h23.48.102,kallum_motion_pilot_GIST_update_2,2026.1.1,Win32,59.52380952,672b24390a9c197eb61f2f72,69b92ab4aef6dee357cd729a,69b92b769ea2f78e7086aea4,0.0602,0.0602,1,11,173,45,1,threefour,,,,,,,,,,,,,,,,,,,,,,,,,,,,,,,,,,,,,,,,,,,,,,,,,,,,,,,,,,,,,,,,,,,,,,,,,,,,,,,,,,,,,,,,,,,,,,,,,,,,,,,,,,,,,,,,,,,,,,,,,,,,,,,,,,,,,,,,,
,,672b24390a9c197eb61f2f72,2026-03-17_10h23.48.102,kallum_motion_pilot_GIST_update_2,2026.1.1,Win32,59.52380952,672b24390a9c197eb61f2f72,69b92ab4aef6dee357cd729a,69b92b769ea2f78e7086aea4,0.0604,0.0604,1,12,174,88,1,fivesix,,,,,,,,,,,,,,,,,,,,,,,,,,,,,,,,,,,,,,,,,,,,,,,,,,,,,,,,,,,,,,,,,,,,,,,,,,,,,,,,,,,,,,,,,,,,,,,,,,,,,,,,,,,,,,,,,,,,,,,,,,,,,,,,,,,,,,,,,
,,672b24390a9c197eb61f2f72,2026-03-17_10h23.48.102,kallum_motion_pilot_GIST_update_2,2026.1.1,Win32,59.52380952,672b24390a9c197eb61f2f72,69b92ab4aef6dee357cd729a,69b92b769ea2f78e7086aea4,0.0605,0.0605,1,13,175,10,1,twoone,,,,,,,,,,,,,,,,,,,,,,,,,,,,,,,,,,,,,,,,,,,,,,,,,,,,,,,,,,,,,,,,,,,,,,,,,,,,,,,,,,,,,,,,,,,,,,,,,,,,,,,,,,,,,,,,,,,,,,,,,,,,,,,,,,,,,,,,,
,,672b24390a9c197eb61f2f72,2026-03-17_10h23.48.102,kallum_motion_pilot_GIST_update_2,2026.1.1,Win32,59.52380952,672b24390a9c197eb61f2f72,69b92ab4aef6dee357cd729a,69b92b769ea2f78e7086aea4,0.0607,0.0607,1,14,176,11,1,twofour,,,,,,,,,,,,,,,,,,,,,,,,,,,,,,,,,,,,,,,,,,,,,,,,,,,,,,,,,,,,,,,,,,,,,,,,,,,,,,,,,,,,,,,,,,,,,,,,,,,,,,,,,,,,,,,,,,,,,,,,,,,,,,,,,,,,,,,,,
,,672b24390a9c197eb61f2f72,2026-03-17_10h23.48.102,kallum_motion_pilot_GIST_update_2,2026.1.1,Win32,59.52380952,672b24390a9c197eb61f2f72,69b92ab4aef6dee357cd729a,69b92b769ea2f78e7086aea4,0.0608,0.0608,1,15,177,120,1,fivesix,,,,,,,,,,,,,,,,,,,,,,,,,,,,,,,,,,,,,,,,,,,,,,,,,,,,,,,,,,,,,,,,,,,,,,,,,,,,,,,,,,,,,,,,,,,,,,,,,,,,,,,,,,,,,,,,,,,,,,,,,,,,,,,,,,,,,,,,,
,,672b24390a9c197eb61f2f72,2026-03-17_10h23.48.102,kallum_motion_pilot_GIST_update_2,2026.1.1,Win32,59.52380952,672b24390a9c197eb61f2f72,69b92ab4aef6dee357cd729a,69b92b769ea2f78e7086aea4,0.0609,0.0609,1,16,178,21,1,threefour,,,,,,,,,,,,,,,,,,,,,,,,,,,,,,,,,,,,,,,,,,,,,,,,,,,,,,,,,,,,,,,,,,,,,,,,,,,,,,,,,,,,,,,,,,,,,,,,,,,,,,,,,,,,,,,,,,,,,,,,,,,,,,,,,,,,,,,,,
,,672b24390a9c197eb61f2f72,2026-03-17_10h23.48.102,kallum_motion_pilot_GIST_update_2,2026.1.1,Win32,59.52380952,672b24390a9c197eb61f2f72,69b92ab4aef6dee357cd729a,69b92b769ea2f78e7086aea4,0.061,0.061,1,17,179,115,1,sixeight,,,,,,,,,,,,,,,,,,,,,,,,,,,,,,,,,,,,,,,,,,,,,,,,,,,,,,,,,,,,,,,,,,,,,,,,,,,,,,,,,,,,,,,,,,,,,,,,,,,,,,,,,,,,,,,,,,,,,,,,,,,,,,,,,,,,,,,,,
,,672b24390a9c197eb61f2f72,2026-03-17_10h23.48.102,kallum_motion_pilot_GIST_update_2,2026.1.1,Win32,59.52380952,672b24390a9c197eb61f2f72,69b92ab4aef6dee357cd729a,69b92b769ea2f78e7086aea4,0.0611,0.0611,1,18,180,113,1,fiveseven,,,,,,,,,,,,,,,,,,,,,,,,,,,,,,,,,,,,,,,,,,,,,,,,,,,,,,,,,,,,,,,,,,,,,,,,,,,,,,,,,,,,,,,,,,,,,,,,,,,,,,,,,,,,,,,,,,,,,,,,,,,,,,,,,,,,,,,,,
,,672b24390a9c197eb61f2f72,2026-03-17_10h23.48.102,kallum_motion_pilot_GIST_update_2,2026.1.1,Win32,59.52380952,672b24390a9c197eb61f2f72,69b92ab4aef6dee357cd729a,69b92b769ea2f78e7086aea4,0.0613,0.0613,1,19,181,77,1,threefour,,,,,,,,,,,,,,,,,,,,,,,,,,,,,,,,,,,,,,,,,,,,,,,,,,,,,,,,,,,,,,,,,,,,,,,,,,,,,,,,,,,,,,,,,,,,,,,,,,,,,,,,,,,,,,,,,,,,,,,,,,,,,,,,,,,,,,,,,
,,672b24390a9c197eb61f2f72,2026-03-17_10h23.48.102,kallum_motion_pilot_GIST_update_2,2026.1.1,Win32,59.52380952,672b24390a9c197eb61f2f72,69b92ab4aef6dee357cd729a,69b92b769ea2f78e7086aea4,0.0614,0.0614,1,20,182,128,1,fivesix,,,,,,,,,,,,,,,,,,,,,,,,,,,,,,,,,,,,,,,,,,,,,,,,,,,,,,,,,,,,,,,,,,,,,,,,,,,,,,,,,,,,,,,,,,,,,,,,,,,,,,,,,,,,,,,,,,,,,,,,,,,,,,,,,,,,,,,,,
,,672b24390a9c197eb61f2f72,2026-03-17_10h23.48.102,kallum_motion_pilot_GIST_update_2,2026.1.1,Win32,59.52380952,672b24390a9c197eb61f2f72,69b92ab4aef6dee357cd729a,69b92b769ea2f78e7086aea4,0.0616,0.0616,1,21,183,82,1,sixfive,,,,,,,,,,,,,,,,,,,,,,,,,,,,,,,,,,,,,,,,,,,,,,,,,,,,,,,,,,,,,,,,,,,,,,,,,,,,,,,,,,,,,,,,,,,,,,,,,,,,,,,,,,,,,,,,,,,,,,,,,,,,,,,,,,,,,,,,,
,,672b24390a9c197eb61f2f72,2026-03-17_10h23.48.102,kallum_motion_pilot_GIST_update_2,2026.1.1,Win32,59.52380952,672b24390a9c197eb61f2f72,69b92ab4aef6dee357cd729a,69b92b769ea2f78e7086aea4,0.0617,0.0617,1,22,184,33,1,onethree,,,,,,,,,,,,,,,,,,,,,,,,,,,,,,,,,,,,,,,,,,,,,,,,,,,,,,,,,,,,,,,,,,,,,,,,,,,,,,,,,,,,,,,,,,,,,,,,,,,,,,,,,,,,,,,,,,,,,,,,,,,,,,,,,,,,,,,,,
,,672b24390a9c197eb61f2f72,2026-03-17_10h23.48.102,kallum_motion_pilot_GIST_update_2,2026.1.1,Win32,59.52380952,672b24390a9c197eb61f2f72,69b92ab4aef6dee357cd729a,69b92b769ea2f78e7086aea4,0.0618,0.0618,1,23,185,36,1,threeone,,,,,,,,,,,,,,,,,,,,,,,,,,,,,,,,,,,,,,,,,,,,,,,,,,,,,,,,,,,,,,,,,,,,,,,,,,,,,,,,,,,,,,,,,,,,,,,,,,,,,,,,,,,,,,,,,,,,,,,,,,,,,,,,,,,,,,,,,
,,672b24390a9c197eb61f2f72,2026-03-17_10h23.48.102,kallum_motion_pilot_GIST_update_2,2026.1.1,Win32,59.52380952,672b24390a9c197eb61f2f72,69b92ab4aef6dee357cd729a,69b92b769ea2f78e7086aea4,0.062,0.062,1,24,186,0,1,onetwo,,,,,,,,,,,,,,,,,,,,,,,,,,,,,,,,,,,,,,,,,,,,,,,,,,,,,,,,,,,,,,,,,,,,,,,,,,,,,,,,,,,,,,,,,,,,,,,,,,,,,,,,,,,,,,,,,,,,,,,,,,,,,,,,,,,,,,,,,
,,672b24390a9c197eb61f2f72,2026-03-17_10h23.48.102,kallum_motion_pilot_GIST_update_2,2026.1.1,Win32,59.52380952,672b24390a9c197eb61f2f72,69b92ab4aef6dee357cd729a,69b92b769ea2f78e7086aea4,0.0622,0.0622,1,25,187,130,1,sixfive,,,,,,,,,,,,,,,,,,,,,,,,,,,,,,,,,,,,,,,,,,,,,,,,,,,,,,,,,,,,,,,,,,,,,,,,,,,,,,,,,,,,,,,,,,,,,,,,,,,,,,,,,,,,,,,,,,,,,,,,,,,,,,,,,,,,,,,,,
,,672b24390a9c197eb61f2f72,2026-03-17_10h23.48.102,kallum_motion_pilot_GIST_update_2,2026.1.1,Win32,59.52380952,672b24390a9c197eb61f2f72,69b92ab4aef6dee357cd729a,69b92b769ea2f78e7086aea4,0.0623,0.0623,1,26,188,98,1,sixfive,,,,,,,,,,,,,,,,,,,,,,,,,,,,,,,,,,,,,,,,,,,,,,,,,,,,,,,,,,,,,,,,,,,,,,,,,,,,,,,,,,,,,,,,,,,,,,,,,,,,,,,,,,,,,,,,,,,,,,,,,,,,,,,,,,,,,,,,,
,,672b24390a9c197eb61f2f72,2026-03-17_10h23.48.102,kallum_motion_pilot_GIST_update_2,2026.1.1,Win32,59.52380952,672b24390a9c197eb61f2f72,69b92ab4aef6dee357cd729a,69b92b769ea2f78e7086aea4,0.0625,0.0625,1,27,189,62,1,fourtwo,,,,,,,,,,,,,,,,,,,,,,,,,,,,,,,,,,,,,,,,,,,,,,,,,,,,,,,,,,,,,,,,,,,,,,,,,,,,,,,,,,,,,,,,,,,,,,,,,,,,,,,,,,,,,,,,,,,,,,,,,,,,,,,,,,,,,,,,,
,,672b24390a9c197eb61f2f72,2026-03-17_10h23.48.102,kallum_motion_pilot_GIST_update_2,2026.1.1,Win32,59.52380952,672b24390a9c197eb61f2f72,69b92ab4aef6dee357cd729a,69b92b769ea2f78e7086aea4,0.0628,0.0628,1,28,190,150,1,eightsix,,,,,,,,,,,,,,,,,,,,,,,,,,,,,,,,,,,,,,,,,,,,,,,,,,,,,,,,,,,,,,,,,,,,,,,,,,,,,,,,,,,,,,,,,,,,,,,,,,,,,,,,,,,,,,,,,,,,,,,,,,,,,,,,,,,,,,,,,
,,672b24390a9c197eb61f2f72,2026-03-17_10h23.48.102,kallum_motion_pilot_GIST_update_2,2026.1.1,Win32,59.52380952,672b24390a9c197eb61f2f72,69b92ab4aef6dee357cd729a,69b92b769ea2f78e7086aea4,0.0631,0.0632,1,29,191,48,1,onetwo,,,,,,,,,,,,,,,,,,,,,,,,,,,,,,,,,,,,,,,,,,,,,,,,,,,,,,,,,,,,,,,,,,,,,,,,,,,,,,,,,,,,,,,,,,,,,,,,,,,,,,,,,,,,,,,,,,,,,,,,,,,,,,,,,,,,,,,,,
,,672b24390a9c197eb61f2f72,2026-03-17_10h23.48.102,kallum_motion_pilot_GIST_update_2,2026.1.1,Win32,59.52380952,672b24390a9c197eb61f2f72,69b92ab4aef6dee357cd729a,69b92b769ea2f78e7086aea4,0.0634,0.0634,1,30,192,12,1,threeone,,,,,,,,,,,,,,,,,,,,,,,,,,,,,,,,,,,,,,,,,,,,,,,,,,,,,,,,,,,,,,,,,,,,,,,,,,,,,,,,,,,,,,,,,,,,,,,,,,,,,,,,,,,,,,,,,,,,,,,,,,,,,,,,,,,,,,,,,
,,672b24390a9c197eb61f2f72,2026-03-17_10h23.48.102,kallum_motion_pilot_GIST_update_2,2026.1.1,Win32,59.52380952,672b24390a9c197eb61f2f72,69b92ab4aef6dee357cd729a,69b92b769ea2f78e7086aea4,0.0636,0.0636,1,31,193,39,1,fourthree,,,,,,,,,,,,,,,,,,,,,,,,,,,,,,,,,,,,,,,,,,,,,,,,,,,,,,,,,,,,,,,,,,,,,,,,,,,,,,,,,,,,,,,,,,,,,,,,,,,,,,,,,,,,,,,,,,,,,,,,,,,,,,,,,,,,,,,,,
,,672b24390a9c197eb61f2f72,2026-03-17_10h23.48.102,kallum_motion_pilot_GIST_update_2,2026.1.1,Win32,59.52380952,672b24390a9c197eb61f2f72,69b92ab4aef6dee357cd729a,69b92b769ea2f78e7086aea4,0.0638,0.0638,1,32,194,32,1,onetwo,,,,,,,,,,,,,,,,,,,,,,,,,,,,,,,,,,,,,,,,,,,,,,,,,,,,,,,,,,,,,,,,,,,,,,,,,,,,,,,,,,,,,,,,,,,,,,,,,,,,,,,,,,,,,,,,,,,,,,,,,,,,,,,,,,,,,,,,,
,,672b24390a9c197eb61f2f72,2026-03-17_10h23.48.102,kallum_motion_pilot_GIST_update_2,2026.1.1,Win32,59.52380952,672b24390a9c197eb61f2f72,69b92ab4aef6dee357cd729a,69b92b769ea2f78e7086aea4,0.0639,0.0639,1,33,195,31,1,fourthree,,,,,,,,,,,,,,,,,,,,,,,,,,,,,,,,,,,,,,,,,,,,,,,,,,,,,,,,,,,,,,,,,,,,,,,,,,,,,,,,,,,,,,,,,,,,,,,,,,,,,,,,,,,,,,,,,,,,,,,,,,,,,,,,,,,,,,,,,
,,672b24390a9c197eb61f2f72,2026-03-17_10h23.48.102,kallum_motion_pilot_GIST_update_2,2026.1.1,Win32,59.52380952,672b24390a9c197eb61f2f72,69b92ab4aef6dee357cd729a,69b92b769ea2f78e7086aea4,0.0641,0.0641,1,34,196,134,1,eightsix,,,,,,,,,,,,,,,,,,,,,,,,,,,,,,,,,,,,,,,,,,,,,,,,,,,,,,,,,,,,,,,,,,,,,,,,,,,,,,,,,,,,,,,,,,,,,,,,,,,,,,,,,,,,,,,,,,,,,,,,,,,,,,,,,,,,,,,,,
,,672b24390a9c197eb61f2f72,2026-03-17_10h23.48.102,kallum_motion_pilot_GIST_update_2,2026.1.1,Win32,59.52380952,672b24390a9c197eb61f2f72,69b92ab4aef6dee357cd729a,69b92b769ea2f78e7086aea4,0.0642,0.0642,1,35,197,55,1,fourthree,,,,,,,,,,,,,,,,,,,,,,,,,,,,,,,,,,,,,,,,,,,,,,,,,,,,,,,,,,,,,,,,,,,,,,,,,,,,,,,,,,,,,,,,,,,,,,,,,,,,,,,,,,,,,,,,,,,,,,,,,,,,,,,,,,,,,,,,,
,,672b24390a9c197eb61f2f72,2026-03-17_10h23.48.102,kallum_motion_pilot_GIST_update_2,2026.1.1,Win32,59.52380952,672b24390a9c197eb61f2f72,69b92ab4aef6dee357cd729a,69b92b769ea2f78e7086aea4,0.0644,0.0644,1,36,198,124,1,sevenfive,,,,,,,,,,,,,,,,,,,,,,,,,,,,,,,,,,,,,,,,,,,,,,,,,,,,,,,,,,,,,,,,,,,,,,,,,,,,,,,,,,,,,,,,,,,,,,,,,,,,,,,,,,,,,,,,,,,,,,,,,,,,,,,,,,,,,,,,,
,,672b24390a9c197eb61f2f72,2026-03-17_10h23.48.102,kallum_motion_pilot_GIST_update_2,2026.1.1,Win32,59.52380952,672b24390a9c197eb61f2f72,69b92ab4aef6dee357cd729a,69b92b769ea2f78e7086aea4,0.0646,0.0646,1,37,199,127,1,eightseven,,,,,,,,,,,,,,,,,,,,,,,,,,,,,,,,,,,,,,,,,,,,,,,,,,,,,,,,,,,,,,,,,,,,,,,,,,,,,,,,,,,,,,,,,,,,,,,,,,,,,,,,,,,,,,,,,,,,,,,,,,,,,,,,,,,,,,,,,
,,672b24390a9c197eb61f2f72,2026-03-17_10h23.48.102,kallum_motion_pilot_GIST_update_2,2026.1.1,Win32,59.52380952,672b24390a9c197eb61f2f72,69b92ab4aef6dee357cd729a,69b92b769ea2f78e7086aea4,0.0647,0.0647,1,38,200,4,1,threeone,,,,,,,,,,,,,,,,,,,,,,,,,,,,,,,,,,,,,,,,,,,,,,,,,,,,,,,,,,,,,,,,,,,,,,,,,,,,,,,,,,,,,,,,,,,,,,,,,,,,,,,,,,,,,,,,,,,,,,,,,,,,,,,,,,,,,,,,,
,,672b24390a9c197eb61f2f72,2026-03-17_10h23.48.102,kallum_motion_pilot_GIST_update_2,2026.1.1,Win32,59.52380952,672b24390a9c197eb61f2f72,69b92ab4aef6dee357cd729a,69b92b769ea2f78e7086aea4,0.0649,0.0649,1,39,201,121,1,fiveseven,,,,,,,,,,,,,,,,,,,,,,,,,,,,,,,,,,,,,,,,,,,,,,,,,,,,,,,,,,,,,,,,,,,,,,,,,,,,,,,,,,,,,,,,,,,,,,,,,,,,,,,,,,,,,,,,,,,,,,,,,,,,,,,,,,,,,,,,,
,,672b24390a9c197eb61f2f72,2026-03-17_10h23.48.102,kallum_motion_pilot_GIST_update_2,2026.1.1,Win32,59.52380952,672b24390a9c197eb61f2f72,69b92ab4aef6dee357cd729a,69b92b769ea2f78e7086aea4,0.0651,0.0651,1,40,202,46,1,fourtwo,,,,,,,,,,,,,,,,,,,,,,,,,,,,,,,,,,,,,,,,,,,,,,,,,,,,,,,,,,,,,,,,,,,,,,,,,,,,,,,,,,,,,,,,,,,,,,,,,,,,,,,,,,,,,,,,,,,,,,,,,,,,,,,,,,,,,,,,,
,,672b24390a9c197eb61f2f72,2026-03-17_10h23.48.102,kallum_motion_pilot_GIST_update_2,2026.1.1,Win32,59.52380952,672b24390a9c197eb61f2f72,69b92ab4aef6dee357cd729a,69b92b769ea2f78e7086aea4,0.0651,0.0651,1,41,203,142,1,eightsix,,,,,,,,,,,,,,,,,,,,,,,,,,,,,,,,,,,,,,,,,,,,,,,,,,,,,,,,,,,,,,,,,,,,,,,,,,,,,,,,,,,,,,,,,,,,,,,,,,,,,,,,,,,,,,,,,,,,,,,,,,,,,,,,,,,,,,,,,
,,672b24390a9c197eb61f2f72,2026-03-17_10h23.48.102,kallum_motion_pilot_GIST_update_2,2026.1.1,Win32,59.52380952,672b24390a9c197eb61f2f72,69b92ab4aef6dee357cd729a,69b92b769ea2f78e7086aea4,0.0653,0.0653,1,42,204,126,1,eightsix,,,,,,,,,,,,,,,,,,,,,,,,,,,,,,,,,,,,,,,,,,,,,,,,,,,,,,,,,,,,,,,,,,,,,,,,,,,,,,,,,,,,,,,,,,,,,,,,,,,,,,,,,,,,,,,,,,,,,,,,,,,,,,,,,,,,,,,,,
,,672b24390a9c197eb61f2f72,2026-03-17_10h23.48.102,kallum_motion_pilot_GIST_update_2,2026.1.1,Win32,59.52380952,672b24390a9c197eb61f2f72,69b92ab4aef6dee357cd729a,69b92b769ea2f78e7086aea4,0.0655,0.0655,1,43,205,119,1,eightseven,,,,,,,,,,,,,,,,,,,,,,,,,,,,,,,,,,,,,,,,,,,,,,,,,,,,,,,,,,,,,,,,,,,,,,,,,,,,,,,,,,,,,,,,,,,,,,,,,,,,,,,,,,,,,,,,,,,,,,,,,,,,,,,,,,,,,,,,,
,,672b24390a9c197eb61f2f72,2026-03-17_10h23.48.102,kallum_motion_pilot_GIST_update_2,2026.1.1,Win32,59.52380952,672b24390a9c197eb61f2f72,69b92ab4aef6dee357cd729a,69b92b769ea2f78e7086aea4,0.0656,0.0656,1,44,206,146,1,sixfive,,,,,,,,,,,,,,,,,,,,,,,,,,,,,,,,,,,,,,,,,,,,,,,,,,,,,,,,,,,,,,,,,,,,,,,,,,,,,,,,,,,,,,,,,,,,,,,,,,,,,,,,,,,,,,,,,,,,,,,,,,,,,,,,,,,,,,,,,
,,672b24390a9c197eb61f2f72,2026-03-17_10h23.48.102,kallum_motion_pilot_GIST_update_2,2026.1.1,Win32,59.52380952,672b24390a9c197eb61f2f72,69b92ab4aef6dee357cd729a,69b92b769ea2f78e7086aea4,0.0658,0.0658,1,45,207,30,1,fourtwo,,,,,,,,,,,,,,,,,,,,,,,,,,,,,,,,,,,,,,,,,,,,,,,,,,,,,,,,,,,,,,,,,,,,,,,,,,,,,,,,,,,,,,,,,,,,,,,,,,,,,,,,,,,,,,,,,,,,,,,,,,,,,,,,,,,,,,,,,
,,672b24390a9c197eb61f2f72,2026-03-17_10h23.48.102,kallum_motion_pilot_GIST_update_2,2026.1.1,Win32,59.52380952,672b24390a9c197eb61f2f72,69b92ab4aef6dee357cd729a,69b92b769ea2f78e7086aea4,0.0658,0.0658,1,46,208,147,1,sixeight,,,,,,,,,,,,,,,,,,,,,,,,,,,,,,,,,,,,,,,,,,,,,,,,,,,,,,,,,,,,,,,,,,,,,,,,,,,,,,,,,,,,,,,,,,,,,,,,,,,,,,,,,,,,,,,,,,,,,,,,,,,,,,,,,,,,,,,,,
,,672b24390a9c197eb61f2f72,2026-03-17_10h23.48.102,kallum_motion_pilot_GIST_update_2,2026.1.1,Win32,59.52380952,672b24390a9c197eb61f2f72,69b92ab4aef6dee357cd729a,69b92b769ea2f78e7086aea4,0.066,0.066,1,47,209,141,1,seveneight,,,,,,,,,,,,,,,,,,,,,,,,,,,,,,,,,,,,,,,,,,,,,,,,,,,,,,,,,,,,,,,,,,,,,,,,,,,,,,,,,,,,,,,,,,,,,,,,,,,,,,,,,,,,,,,,,,,,,,,,,,,,,,,,,,,,,,,,,
,,672b24390a9c197eb61f2f72,2026-03-17_10h23.48.102,kallum_motion_pilot_GIST_update_2,2026.1.1,Win32,59.52380952,672b24390a9c197eb61f2f72,69b92ab4aef6dee357cd729a,69b92b769ea2f78e7086aea4,0.0662,0.0662,1,48,210,26,1,twoone,,,,,,,,,,,,,,,,,,,,,,,,,,,,,,,,,,,,,,,,,,,,,,,,,,,,,,,,,,,,,,,,,,,,,,,,,,,,,,,,,,,,,,,,,,,,,,,,,,,,,,,,,,,,,,,,,,,,,,,,,,,,,,,,,,,,,,,,,
,,672b24390a9c197eb61f2f72,2026-03-17_10h23.48.102,kallum_motion_pilot_GIST_update_2,2026.1.1,Win32,59.52380952,672b24390a9c197eb61f2f72,69b92ab4aef6dee357cd729a,69b92b769ea2f78e7086aea4,0.0663,0.0663,1,49,211,137,1,fiveseven,,,,,,,,,,,,,,,,,,,,,,,,,,,,,,,,,,,,,,,,,,,,,,,,,,,,,,,,,,,,,,,,,,,,,,,,,,,,,,,,,,,,,,,,,,,,,,,,,,,,,,,,,,,,,,,,,,,,,,,,,,,,,,,,,,,,,,,,,
,,672b24390a9c197eb61f2f72,2026-03-17_10h23.48.102,kallum_motion_pilot_GIST_update_2,2026.1.1,Win32,59.52380952,672b24390a9c197eb61f2f72,69b92ab4aef6dee357cd729a,69b92b769ea2f78e7086aea4,0.0665,0.0665,1,50,212,97,1,fiveseven,,,,,,,,,,,,,,,,,,,,,,,,,,,,,,,,,,,,,,,,,,,,,,,,,,,,,,,,,,,,,,,,,,,,,,,,,,,,,,,,,,,,,,,,,,,,,,,,,,,,,,,,,,,,,,,,,,,,,,,,,,,,,,,,,,,,,,,,,
,,672b24390a9c197eb61f2f72,2026-03-17_10h23.48.102,kallum_motion_pilot_GIST_update_2,2026.1.1,Win32,59.52380952,672b24390a9c197eb61f2f72,69b92ab4aef6dee357cd729a,69b92b769ea2f78e7086aea4,0.0666,0.0666,1,51,213,83,1,sixeight,,,,,,,,,,,,,,,,,,,,,,,,,,,,,,,,,,,,,,,,,,,,,,,,,,,,,,,,,,,,,,,,,,,,,,,,,,,,,,,,,,,,,,,,,,,,,,,,,,,,,,,,,,,,,,,,,,,,,,,,,,,,,,,,,,,,,,,,,
,,672b24390a9c197eb61f2f72,2026-03-17_10h23.48.102,kallum_motion_pilot_GIST_update_2,2026.1.1,Win32,59.52380952,672b24390a9c197eb61f2f72,69b92ab4aef6dee357cd729a,69b92b769ea2f78e7086aea4,0.0668,0.0668,1,52,214,63,1,fourthree,,,,,,,,,,,,,,,,,,,,,,,,,,,,,,,,,,,,,,,,,,,,,,,,,,,,,,,,,,,,,,,,,,,,,,,,,,,,,,,,,,,,,,,,,,,,,,,,,,,,,,,,,,,,,,,,,,,,,,,,,,,,,,,,,,,,,,,,,
,,672b24390a9c197eb61f2f72,2026-03-17_10h23.48.102,kallum_motion_pilot_GIST_update_2,2026.1.1,Win32,59.52380952,672b24390a9c197eb61f2f72,69b92ab4aef6dee357cd729a,69b92b769ea2f78e7086aea4,0.0669,0.0669,1,53,215,47,1,fourthree,,,,,,,,,,,,,,,,,,,,,,,,,,,,,,,,,,,,,,,,,,,,,,,,,,,,,,,,,,,,,,,,,,,,,,,,,,,,,,,,,,,,,,,,,,,,,,,,,,,,,,,,,,,,,,,,,,,,,,,,,,,,,,,,,,,,,,,,,
,,672b24390a9c197eb61f2f72,2026-03-17_10h23.48.102,kallum_motion_pilot_GIST_update_2,2026.1.1,Win32,59.52380952,672b24390a9c197eb61f2f72,69b92ab4aef6dee357cd729a,69b92b769ea2f78e7086aea4,0.0671,0.0671,1,54,216,122,1,sixfive,,,,,,,,,,,,,,,,,,,,,,,,,,,,,,,,,,,,,,,,,,,,,,,,,,,,,,,,,,,,,,,,,,,,,,,,,,,,,,,,,,,,,,,,,,,,,,,,,,,,,,,,,,,,,,,,,,,,,,,,,,,,,,,,,,,,,,,,,
,,672b24390a9c197eb61f2f72,2026-03-17_10h23.48.102,kallum_motion_pilot_GIST_update_2,2026.1.1,Win32,59.52380952,672b24390a9c197eb61f2f72,69b92ab4aef6dee357cd729a,69b92b769ea2f78e7086aea4,0.0672,0.0672,1,55,217,57,1,onethree,,,,,,,,,,,,,,,,,,,,,,,,,,,,,,,,,,,,,,,,,,,,,,,,,,,,,,,,,,,,,,,,,,,,,,,,,,,,,,,,,,,,,,,,,,,,,,,,,,,,,,,,,,,,,,,,,,,,,,,,,,,,,,,,,,,,,,,,,
,,672b24390a9c197eb61f2f72,2026-03-17_10h23.48.102,kallum_motion_pilot_GIST_update_2,2026.1.1,Win32,59.52380952,672b24390a9c197eb61f2f72,69b92ab4aef6dee357cd729a,69b92b769ea2f78e7086aea4,0.0674,0.0674,1,56,218,78,1,fourtwo,,,,,,,,,,,,,,,,,,,,,,,,,,,,,,,,,,,,,,,,,,,,,,,,,,,,,,,,,,,,,,,,,,,,,,,,,,,,,,,,,,,,,,,,,,,,,,,,,,,,,,,,,,,,,,,,,,,,,,,,,,,,,,,,,,,,,,,,,
,,672b24390a9c197eb61f2f72,2026-03-17_10h23.48.102,kallum_motion_pilot_GIST_update_2,2026.1.1,Win32,59.52380952,672b24390a9c197eb61f2f72,69b92ab4aef6dee357cd729a,69b92b769ea2f78e7086aea4,0.0675,0.0675,1,57,219,144,1,fivesix,,,,,,,,,,,,,,,,,,,,,,,,,,,,,,,,,,,,,,,,,,,,,,,,,,,,,,,,,,,,,,,,,,,,,,,,,,,,,,,,,,,,,,,,,,,,,,,,,,,,,,,,,,,,,,,,,,,,,,,,,,,,,,,,,,,,,,,,,
,,672b24390a9c197eb61f2f72,2026-03-17_10h23.48.102,kallum_motion_pilot_GIST_update_2,2026.1.1,Win32,59.52380952,672b24390a9c197eb61f2f72,69b92ab4aef6dee357cd729a,69b92b769ea2f78e7086aea4,0.0677,0.0677,1,58,220,66,1,twoone,,,,,,,,,,,,,,,,,,,,,,,,,,,,,,,,,,,,,,,,,,,,,,,,,,,,,,,,,,,,,,,,,,,,,,,,,,,,,,,,,,,,,,,,,,,,,,,,,,,,,,,,,,,,,,,,,,,,,,,,,,,,,,,,,,,,,,,,,
,,672b24390a9c197eb61f2f72,2026-03-17_10h23.48.102,kallum_motion_pilot_GIST_update_2,2026.1.1,Win32,59.52380952,672b24390a9c197eb61f2f72,69b92ab4aef6dee357cd729a,69b92b769ea2f78e7086aea4,0.0679,0.0679,1,59,221,8,1,onetwo,,,,,,,,,,,,,,,,,,,,,,,,,,,,,,,,,,,,,,,,,,,,,,,,,,,,,,,,,,,,,,,,,,,,,,,,,,,,,,,,,,,,,,,,,,,,,,,,,,,,,,,,,,,,,,,,,,,,,,,,,,,,,,,,,,,,,,,,,
,,672b24390a9c197eb61f2f72,2026-03-17_10h23.48.102,kallum_motion_pilot_GIST_update_2,2026.1.1,Win32,59.52380952,672b24390a9c197eb61f2f72,69b92ab4aef6dee357cd729a,69b92b769ea2f78e7086aea4,0.068,0.068,1,60,222,20,1,threeone,,,,,,,,,,,,,,,,,,,,,,,,,,,,,,,,,,,,,,,,,,,,,,,,,,,,,,,,,,,,,,,,,,,,,,,,,,,,,,,,,,,,,,,,,,,,,,,,,,,,,,,,,,,,,,,,,,,,,,,,,,,,,,,,,,,,,,,,,
,,672b24390a9c197eb61f2f72,2026-03-17_10h23.48.102,kallum_motion_pilot_GIST_update_2,2026.1.1,Win32,59.52380952,672b24390a9c197eb61f2f72,69b92ab4aef6dee357cd729a,69b92b769ea2f78e7086aea4,0.0682,0.0682,1,61,223,3,1,twofour,,,,,,,,,,,,,,,,,,,,,,,,,,,,,,,,,,,,,,,,,,,,,,,,,,,,,,,,,,,,,,,,,,,,,,,,,,,,,,,,,,,,,,,,,,,,,,,,,,,,,,,,,,,,,,,,,,,,,,,,,,,,,,,,,,,,,,,,,
,,672b24390a9c197eb61f2f72,2026-03-17_10h23.48.102,kallum_motion_pilot_GIST_update_2,2026.1.1,Win32,59.52380952,672b24390a9c197eb61f2f72,69b92ab4aef6dee357cd729a,69b92b769ea2f78e7086aea4,0.0683,0.0683,1,62,224,112,1,fivesix,,,,,,,,,,,,,,,,,,,,,,,,,,,,,,,,,,,,,,,,,,,,,,,,,,,,,,,,,,,,,,,,,,,,,,,,,,,,,,,,,,,,,,,,,,,,,,,,,,,,,,,,,,,,,,,,,,,,,,,,,,,,,,,,,,,,,,,,,
,,672b24390a9c197eb61f2f72,2026-03-17_10h23.48.102,kallum_motion_pilot_GIST_update_2,2026.1.1,Win32,59.52380952,672b24390a9c197eb61f2f72,69b92ab4aef6dee357cd729a,69b92b769ea2f78e7086aea4,0.0684,0.0684,1,63,225,132,1,sevenfive,,,,,,,,,,,,,,,,,,,,,,,,,,,,,,,,,,,,,,,,,,,,,,,,,,,,,,,,,,,,,,,,,,,,,,,,,,,,,,,,,,,,,,,,,,,,,,,,,,,,,,,,,,,,,,,,,,,,,,,,,,,,,,,,,,,,,,,,,
,,672b24390a9c197eb61f2f72,2026-03-17_10h23.48.102,kallum_motion_pilot_GIST_update_2,2026.1.1,Win32,59.52380952,672b24390a9c197eb61f2f72,69b92ab4aef6dee357cd729a,69b92b769ea2f78e7086aea4,0.0686,0.0686,1,64,226,136,1,fivesix,,,,,,,,,,,,,,,,,,,,,,,,,,,,,,,,,,,,,,,,,,,,,,,,,,,,,,,,,,,,,,,,,,,,,,,,,,,,,,,,,,,,,,,,,,,,,,,,,,,,,,,,,,,,,,,,,,,,,,,,,,,,,,,,,,,,,,,,,
,,672b24390a9c197eb61f2f72,2026-03-17_10h23.48.102,kallum_motion_pilot_GIST_update_2,2026.1.1,Win32,59.52380952,672b24390a9c197eb61f2f72,69b92ab4aef6dee357cd729a,69b92b769ea2f78e7086aea4,0.0688,0.069,1,65,227,22,1,fourtwo,,,,,,,,,,,,,,,,,,,,,,,,,,,,,,,,,,,,,,,,,,,,,,,,,,,,,,,,,,,,,,,,,,,,,,,,,,,,,,,,,,,,,,,,,,,,,,,,,,,,,,,,,,,,,,,,,,,,,,,,,,,,,,,,,,,,,,,,,
,,672b24390a9c197eb61f2f72,2026-03-17_10h23.48.102,kallum_motion_pilot_GIST_update_2,2026.1.1,Win32,59.52380952,672b24390a9c197eb61f2f72,69b92ab4aef6dee357cd729a,69b92b769ea2f78e7086aea4,0.0694,0.0694,1,66,228,17,1,onethree,,,,,,,,,,,,,,,,,,,,,,,,,,,,,,,,,,,,,,,,,,,,,,,,,,,,,,,,,,,,,,,,,,,,,,,,,,,,,,,,,,,,,,,,,,,,,,,,,,,,,,,,,,,,,,,,,,,,,,,,,,,,,,,,,,,,,,,,,
,,672b24390a9c197eb61f2f72,2026-03-17_10h23.48.102,kallum_motion_pilot_GIST_update_2,2026.1.1,Win32,59.52380952,672b24390a9c197eb61f2f72,69b92ab4aef6dee357cd729a,69b92b769ea2f78e7086aea4,0.0695,0.0695,1,67,229,129,1,fiveseven,,,,,,,,,,,,,,,,,,,,,,,,,,,,,,,,,,,,,,,,,,,,,,,,,,,,,,,,,,,,,,,,,,,,,,,,,,,,,,,,,,,,,,,,,,,,,,,,,,,,,,,,,,,,,,,,,,,,,,,,,,,,,,,,,,,,,,,,,
,,672b24390a9c197eb61f2f72,2026-03-17_10h23.48.102,kallum_motion_pilot_GIST_update_2,2026.1.1,Win32,59.52380952,672b24390a9c197eb61f2f72,69b92ab4aef6dee357cd729a,69b92b769ea2f78e7086aea4,0.0697,0.0697,1,68,230,93,1,seveneight,,,,,,,,,,,,,,,,,,,,,,,,,,,,,,,,,,,,,,,,,,,,,,,,,,,,,,,,,,,,,,,,,,,,,,,,,,,,,,,,,,,,,,,,,,,,,,,,,,,,,,,,,,,,,,,,,,,,,,,,,,,,,,,,,,,,,,,,,
,,672b24390a9c197eb61f2f72,2026-03-17_10h23.48.102,kallum_motion_pilot_GIST_update_2,2026.1.1,Win32,59.52380952,672b24390a9c197eb61f2f72,69b92ab4aef6dee357cd729a,69b92b769ea2f78e7086aea4,0.0698,0.0698,1,69,231,42,1,twoone,,,,,,,,,,,,,,,,,,,,,,,,,,,,,,,,,,,,,,,,,,,,,,,,,,,,,,,,,,,,,,,,,,,,,,,,,,,,,,,,,,,,,,,,,,,,,,,,,,,,,,,,,,,,,,,,,,,,,,,,,,,,,,,,,,,,,,,,,
,,672b24390a9c197eb61f2f72,2026-03-17_10h23.48.102,kallum_motion_pilot_GIST_update_2,2026.1.1,Win32,59.52380952,672b24390a9c197eb61f2f72,69b92ab4aef6dee357cd729a,69b92b769ea2f78e7086aea4,0.07,0.07,1,70,232,86,1,eightsix,,,,,,,,,,,,,,,,,,,,,,,,,,,,,,,,,,,,,,,,,,,,,,,,,,,,,,,,,,,,,,,,,,,,,,,,,,,,,,,,,,,,,,,,,,,,,,,,,,,,,,,,,,,,,,,,,,,,,,,,,,,,,,,,,,,,,,,,,
,,672b24390a9c197eb61f2f72,2026-03-17_10h23.48.102,kallum_motion_pilot_GIST_update_2,2026.1.1,Win32,59.52380952,672b24390a9c197eb61f2f72,69b92ab4aef6dee357cd729a,69b92b769ea2f78e7086aea4,0.0702,0.0702,1,71,233,2,1,twoone,,,,,,,,,,,,,,,,,,,,,,,,,,,,,,,,,,,,,,,,,,,,,,,,,,,,,,,,,,,,,,,,,,,,,,,,,,,,,,,,,,,,,,,,,,,,,,,,,,,,,,,,,,,,,,,,,,,,,,,,,,,,,,,,,,,,,,,,,
,,672b24390a9c197eb61f2f72,2026-03-17_10h23.48.102,kallum_motion_pilot_GIST_update_2,2026.1.1,Win32,59.52380952,672b24390a9c197eb61f2f72,69b92ab4aef6dee357cd729a,69b92b769ea2f78e7086aea4,0.0703,0.0703,1,72,234,23,1,fourthree,,,,,,,,,,,,,,,,,,,,,,,,,,,,,,,,,,,,,,,,,,,,,,,,,,,,,,,,,,,,,,,,,,,,,,,,,,,,,,,,,,,,,,,,,,,,,,,,,,,,,,,,,,,,,,,,,,,,,,,,,,,,,,,,,,,,,,,,,
,,672b24390a9c197eb61f2f72,2026-03-17_10h23.48.102,kallum_motion_pilot_GIST_update_2,2026.1.1,Win32,59.52380952,672b24390a9c197eb61f2f72,69b92ab4aef6dee357cd729a,69b92b769ea2f78e7086aea4,0.0704,0.0704,1,73,235,61,1,threefour,,,,,,,,,,,,,,,,,,,,,,,,,,,,,,,,,,,,,,,,,,,,,,,,,,,,,,,,,,,,,,,,,,,,,,,,,,,,,,,,,,,,,,,,,,,,,,,,,,,,,,,,,,,,,,,,,,,,,,,,,,,,,,,,,,,,,,,,,
,,672b24390a9c197eb61f2f72,2026-03-17_10h23.48.102,kallum_motion_pilot_GIST_update_2,2026.1.1,Win32,59.52380952,672b24390a9c197eb61f2f72,69b92ab4aef6dee357cd729a,69b92b769ea2f78e7086aea4,0.0707,0.0707,1,74,236,101,1,seveneight,,,,,,,,,,,,,,,,,,,,,,,,,,,,,,,,,,,,,,,,,,,,,,,,,,,,,,,,,,,,,,,,,,,,,,,,,,,,,,,,,,,,,,,,,,,,,,,,,,,,,,,,,,,,,,,,,,,,,,,,,,,,,,,,,,,,,,,,,
,,672b24390a9c197eb61f2f72,2026-03-17_10h23.48.102,kallum_motion_pilot_GIST_update_2,2026.1.1,Win32,59.52380952,672b24390a9c197eb61f2f72,69b92ab4aef6dee357cd729a,69b92b769ea2f78e7086aea4,0.0708,0.0708,1,75,237,94,1,eightsix,,,,,,,,,,,,,,,,,,,,,,,,,,,,,,,,,,,,,,,,,,,,,,,,,,,,,,,,,,,,,,,,,,,,,,,,,,,,,,,,,,,,,,,,,,,,,,,,,,,,,,,,,,,,,,,,,,,,,,,,,,,,,,,,,,,,,,,,,
,,672b24390a9c197eb61f2f72,2026-03-17_10h23.48.102,kallum_motion_pilot_GIST_update_2,2026.1.1,Win32,59.52380952,672b24390a9c197eb61f2f72,69b92ab4aef6dee357cd729a,69b92b769ea2f78e7086aea4,0.0709,0.0709,1,76,238,125,1,seveneight,,,,,,,,,,,,,,,,,,,,,,,,,,,,,,,,,,,,,,,,,,,,,,,,,,,,,,,,,,,,,,,,,,,,,,,,,,,,,,,,,,,,,,,,,,,,,,,,,,,,,,,,,,,,,,,,,,,,,,,,,,,,,,,,,,,,,,,,,
,,672b24390a9c197eb61f2f72,2026-03-17_10h23.48.102,kallum_motion_pilot_GIST_update_2,2026.1.1,Win32,59.52380952,672b24390a9c197eb61f2f72,69b92ab4aef6dee357cd729a,69b92b769ea2f78e7086aea4,0.0711,0.0711,1,77,239,68,1,threeone,,,,,,,,,,,,,,,,,,,,,,,,,,,,,,,,,,,,,,,,,,,,,,,,,,,,,,,,,,,,,,,,,,,,,,,,,,,,,,,,,,,,,,,,,,,,,,,,,,,,,,,,,,,,,,,,,,,,,,,,,,,,,,,,,,,,,,,,,
,,672b24390a9c197eb61f2f72,2026-03-17_10h23.48.102,kallum_motion_pilot_GIST_update_2,2026.1.1,Win32,59.52380952,672b24390a9c197eb61f2f72,69b92ab4aef6dee357cd729a,69b92b769ea2f78e7086aea4,0.0712,0.0712,1,78,240,1,1,onethree,,,,,,,,,,,,,,,,,,,,,,,,,,,,,,,,,,,,,,,,,,,,,,,,,,,,,,,,,,,,,,,,,,,,,,,,,,,,,,,,,,,,,,,,,,,,,,,,,,,,,,,,,,,,,,,,,,,,,,,,,,,,,,,,,,,,,,,,,
,,672b24390a9c197eb61f2f72,2026-03-17_10h23.48.102,kallum_motion_pilot_GIST_update_2,2026.1.1,Win32,59.52380952,672b24390a9c197eb61f2f72,69b92ab4aef6dee357cd729a,69b92b769ea2f78e7086aea4,0.0714,0.0714,1,79,241,27,1,twofour,,,,,,,,,,,,,,,,,,,,,,,,,,,,,,,,,,,,,,,,,,,,,,,,,,,,,,,,,,,,,,,,,,,,,,,,,,,,,,,,,,,,,,,,,,,,,,,,,,,,,,,,,,,,,,,,,,,,,,,,,,,,,,,,,,,,,,,,,
,,672b24390a9c197eb61f2f72,2026-03-17_10h23.48.102,kallum_motion_pilot_GIST_update_2,2026.1.1,Win32,59.52380952,672b24390a9c197eb61f2f72,69b92ab4aef6dee357cd729a,69b92b769ea2f78e7086aea4,0.0716,0.0716,1,80,242,95,1,eightseven,,,,,,,,,,,,,,,,,,,,,,,,,,,,,,,,,,,,,,,,,,,,,,,,,,,,,,,,,,,,,,,,,,,,,,,,,,,,,,,,,,,,,,,,,,,,,,,,,,,,,,,,,,,,,,,,,,,,,,,,,,,,,,,,,,,,,,,,,
,,672b24390a9c197eb61f2f72,2026-03-17_10h23.48.102,kallum_motion_pilot_GIST_update_2,2026.1.1,Win32,59.52380952,672b24390a9c197eb61f2f72,69b92ab4aef6dee357cd729a,69b92b769ea2f78e7086aea4,0.0717,0.0717,1,81,243,28,1,threeone,,,,,,,,,,,,,,,,,,,,,,,,,,,,,,,,,,,,,,,,,,,,,,,,,,,,,,,,,,,,,,,,,,,,,,,,,,,,,,,,,,,,,,,,,,,,,,,,,,,,,,,,,,,,,,,,,,,,,,,,,,,,,,,,,,,,,,,,,
,,672b24390a9c197eb61f2f72,2026-03-17_10h23.48.102,kallum_motion_pilot_GIST_update_2,2026.1.1,Win32,59.52380952,672b24390a9c197eb61f2f72,69b92ab4aef6dee357cd729a,69b92b769ea2f78e7086aea4,0.0719,0.0719,1,82,244,84,1,sevenfive,,,,,,,,,,,,,,,,,,,,,,,,,,,,,,,,,,,,,,,,,,,,,,,,,,,,,,,,,,,,,,,,,,,,,,,,,,,,,,,,,,,,,,,,,,,,,,,,,,,,,,,,,,,,,,,,,,,,,,,,,,,,,,,,,,,,,,,,,
,,672b24390a9c197eb61f2f72,2026-03-17_10h23.48.102,kallum_motion_pilot_GIST_update_2,2026.1.1,Win32,59.52380952,672b24390a9c197eb61f2f72,69b92ab4aef6dee357cd729a,69b92b769ea2f78e7086aea4,0.072,0.072,1,83,245,85,1,seveneight,,,,,,,,,,,,,,,,,,,,,,,,,,,,,,,,,,,,,,,,,,,,,,,,,,,,,,,,,,,,,,,,,,,,,,,,,,,,,,,,,,,,,,,,,,,,,,,,,,,,,,,,,,,,,,,,,,,,,,,,,,,,,,,,,,,,,,,,,
,,672b24390a9c197eb61f2f72,2026-03-17_10h23.48.102,kallum_motion_pilot_GIST_update_2,2026.1.1,Win32,59.52380952,672b24390a9c197eb61f2f72,69b92ab4aef6dee357cd729a,69b92b769ea2f78e7086aea4,0.0721,0.0721,1,84,246,91,1,sixeight,,,,,,,,,,,,,,,,,,,,,,,,,,,,,,,,,,,,,,,,,,,,,,,,,,,,,,,,,,,,,,,,,,,,,,,,,,,,,,,,,,,,,,,,,,,,,,,,,,,,,,,,,,,,,,,,,,,,,,,,,,,,,,,,,,,,,,,,,
,,672b24390a9c197eb61f2f72,2026-03-17_10h23.48.102,kallum_motion_pilot_GIST_update_2,2026.1.1,Win32,59.52380952,672b24390a9c197eb61f2f72,69b92ab4aef6dee357cd729a,69b92b769ea2f78e7086aea4,0.0723,0.0723,1,85,247,35,1,twofour,,,,,,,,,,,,,,,,,,,,,,,,,,,,,,,,,,,,,,,,,,,,,,,,,,,,,,,,,,,,,,,,,,,,,,,,,,,,,,,,,,,,,,,,,,,,,,,,,,,,,,,,,,,,,,,,,,,,,,,,,,,,,,,,,,,,,,,,,
,,672b24390a9c197eb61f2f72,2026-03-17_10h23.48.102,kallum_motion_pilot_GIST_update_2,2026.1.1,Win32,59.52380952,672b24390a9c197eb61f2f72,69b92ab4aef6dee357cd729a,69b92b769ea2f78e7086aea4,0.0725,0.0725,1,86,248,138,1,sixfive,,,,,,,,,,,,,,,,,,,,,,,,,,,,,,,,,,,,,,,,,,,,,,,,,,,,,,,,,,,,,,,,,,,,,,,,,,,,,,,,,,,,,,,,,,,,,,,,,,,,,,,,,,,,,,,,,,,,,,,,,,,,,,,,,,,,,,,,,
,,672b24390a9c197eb61f2f72,2026-03-17_10h23.48.102,kallum_motion_pilot_GIST_update_2,2026.1.1,Win32,59.52380952,672b24390a9c197eb61f2f72,69b92ab4aef6dee357cd729a,69b92b769ea2f78e7086aea4,0.0726,0.0726,1,87,249,89,1,fiveseven,,,,,,,,,,,,,,,,,,,,,,,,,,,,,,,,,,,,,,,,,,,,,,,,,,,,,,,,,,,,,,,,,,,,,,,,,,,,,,,,,,,,,,,,,,,,,,,,,,,,,,,,,,,,,,,,,,,,,,,,,,,,,,,,,,,,,,,,,
,,672b24390a9c197eb61f2f72,2026-03-17_10h23.48.102,kallum_motion_pilot_GIST_update_2,2026.1.1,Win32,59.52380952,672b24390a9c197eb61f2f72,69b92ab4aef6dee357cd729a,69b92b769ea2f78e7086aea4,0.0728,0.0728,1,88,250,51,1,twofour,,,,,,,,,,,,,,,,,,,,,,,,,,,,,,,,,,,,,,,,,,,,,,,,,,,,,,,,,,,,,,,,,,,,,,,,,,,,,,,,,,,,,,,,,,,,,,,,,,,,,,,,,,,,,,,,,,,,,,,,,,,,,,,,,,,,,,,,,
,,672b24390a9c197eb61f2f72,2026-03-17_10h23.48.102,kallum_motion_pilot_GIST_update_2,2026.1.1,Win32,59.52380952,672b24390a9c197eb61f2f72,69b92ab4aef6dee357cd729a,69b92b769ea2f78e7086aea4,0.0729,0.0729,1,89,251,108,1,sevenfive,,,,,,,,,,,,,,,,,,,,,,,,,,,,,,,,,,,,,,,,,,,,,,,,,,,,,,,,,,,,,,,,,,,,,,,,,,,,,,,,,,,,,,,,,,,,,,,,,,,,,,,,,,,,,,,,,,,,,,,,,,,,,,,,,,,,,,,,,
,,672b24390a9c197eb61f2f72,2026-03-17_10h23.48.102,kallum_motion_pilot_GIST_update_2,2026.1.1,Win32,59.52380952,672b24390a9c197eb61f2f72,69b92ab4aef6dee357cd729a,69b92b769ea2f78e7086aea4,0.0731,0.0731,1,90,252,148,1,sevenfive,,,,,,,,,,,,,,,,,,,,,,,,,,,,,,,,,,,,,,,,,,,,,,,,,,,,,,,,,,,,,,,,,,,,,,,,,,,,,,,,,,,,,,,,,,,,,,,,,,,,,,,,,,,,,,,,,,,,,,,,,,,,,,,,,,,,,,,,,
,,672b24390a9c197eb61f2f72,2026-03-17_10h23.48.102,kallum_motion_pilot_GIST_update_2,2026.1.1,Win32,59.52380952,672b24390a9c197eb61f2f72,69b92ab4aef6dee357cd729a,69b92b769ea2f78e7086aea4,0.0732,0.0732,1,91,253,6,1,fourtwo,,,,,,,,,,,,,,,,,,,,,,,,,,,,,,,,,,,,,,,,,,,,,,,,,,,,,,,,,,,,,,,,,,,,,,,,,,,,,,,,,,,,,,,,,,,,,,,,,,,,,,,,,,,,,,,,,,,,,,,,,,,,,,,,,,,,,,,,,
,,672b24390a9c197eb61f2f72,2026-03-17_10h23.48.102,kallum_motion_pilot_GIST_update_2,2026.1.1,Win32,59.52380952,672b24390a9c197eb61f2f72,69b92ab4aef6dee357cd729a,69b92b769ea2f78e7086aea4,0.0734,0.0734,1,92,254,99,1,sixeight,,,,,,,,,,,,,,,,,,,,,,,,,,,,,,,,,,,,,,,,,,,,,,,,,,,,,,,,,,,,,,,,,,,,,,,,,,,,,,,,,,,,,,,,,,,,,,,,,,,,,,,,,,,,,,,,,,,,,,,,,,,,,,,,,,,,,,,,,
,,672b24390a9c197eb61f2f72,2026-03-17_10h23.48.102,kallum_motion_pilot_GIST_update_2,2026.1.1,Win32,59.52380952,672b24390a9c197eb61f2f72,69b92ab4aef6dee357cd729a,69b92b769ea2f78e7086aea4,0.0739,0.0739,1,93,255,49,1,onethree,,,,,,,,,,,,,,,,,,,,,,,,,,,,,,,,,,,,,,,,,,,,,,,,,,,,,,,,,,,,,,,,,,,,,,,,,,,,,,,,,,,,,,,,,,,,,,,,,,,,,,,,,,,,,,,,,,,,,,,,,,,,,,,,,,,,,,,,,
,,672b24390a9c197eb61f2f72,2026-03-17_10h23.48.102,kallum_motion_pilot_GIST_update_2,2026.1.1,Win32,59.52380952,672b24390a9c197eb61f2f72,69b92ab4aef6dee357cd729a,69b92b769ea2f78e7086aea4,0.0742,0.0742,1,94,256,24,1,onetwo,,,,,,,,,,,,,,,,,,,,,,,,,,,,,,,,,,,,,,,,,,,,,,,,,,,,,,,,,,,,,,,,,,,,,,,,,,,,,,,,,,,,,,,,,,,,,,,,,,,,,,,,,,,,,,,,,,,,,,,,,,,,,,,,,,,,,,,,,
,,672b24390a9c197eb61f2f72,2026-03-17_10h23.48.102,kallum_motion_pilot_GIST_update_2,2026.1.1,Win32,59.52380952,672b24390a9c197eb61f2f72,69b92ab4aef6dee357cd729a,69b92b769ea2f78e7086aea4,0.0744,0.0744,1,95,257,100,1,sevenfive,,,,,,,,,,,,,,,,,,,,,,,,,,,,,,,,,,,,,,,,,,,,,,,,,,,,,,,,,,,,,,,,,,,,,,,,,,,,,,,,,,,,,,,,,,,,,,,,,,,,,,,,,,,,,,,,,,,,,,,,,,,,,,,,,,,,,,,,,
,,672b24390a9c197eb61f2f72,2026-03-17_10h23.48.102,kallum_motion_pilot_GIST_update_2,2026.1.1,Win32,59.52380952,672b24390a9c197eb61f2f72,69b92ab4aef6dee357cd729a,69b92b769ea2f78e7086aea4,0.0746,0.0746,1,96,258,114,1,sixfive,,,,,,,,,,,,,,,,,,,,,,,,,,,,,,,,,,,,,,,,,,,,,,,,,,,,,,,,,,,,,,,,,,,,,,,,,,,,,,,,,,,,,,,,,,,,,,,,,,,,,,,,,,,,,,,,,,,,,,,,,,,,,,,,,,,,,,,,,
,,672b24390a9c197eb61f2f72,2026-03-17_10h23.48.102,kallum_motion_pilot_GIST_update_2,2026.1.1,Win32,59.52380952,672b24390a9c197eb61f2f72,69b92ab4aef6dee357cd729a,69b92b769ea2f78e7086aea4,0.0747,0.0747,1,97,259,70,1,fourtwo,,,,,,,,,,,,,,,,,,,,,,,,,,,,,,,,,,,,,,,,,,,,,,,,,,,,,,,,,,,,,,,,,,,,,,,,,,,,,,,,,,,,,,,,,,,,,,,,,,,,,,,,,,,,,,,,,,,,,,,,,,,,,,,,,,,,,,,,,
,,672b24390a9c197eb61f2f72,2026-03-17_10h23.48.102,kallum_motion_pilot_GIST_update_2,2026.1.1,Win32,59.52380952,672b24390a9c197eb61f2f72,69b92ab4aef6dee357cd729a,69b92b769ea2f78e7086aea4,0.0749,0.0749,1,98,260,160,1,fivesix,,,,,,,,,,,,,,,,,,,,,,,,,,,,,,,,,,,,,,,,,,,,,,,,,,,,,,,,,,,,,,,,,,,,,,,,,,,,,,,,,,,,,,,,,,,,,,,,,,,,,,,,,,,,,,,,,,,,,,,,,,,,,,,,,,,,,,,,,
,,672b24390a9c197eb61f2f72,2026-03-17_10h23.48.102,kallum_motion_pilot_GIST_update_2,2026.1.1,Win32,59.52380952,672b24390a9c197eb61f2f72,69b92ab4aef6dee357cd729a,69b92b769ea2f78e7086aea4,0.0751,0.0751,1,99,261,50,1,twoone,,,,,,,,,,,,,,,,,,,,,,,,,,,,,,,,,,,,,,,,,,,,,,,,,,,,,,,,,,,,,,,,,,,,,,,,,,,,,,,,,,,,,,,,,,,,,,,,,,,,,,,,,,,,,,,,,,,,,,,,,,,,,,,,,,,,,,,,,
,,672b24390a9c197eb61f2f72,2026-03-17_10h23.48.102,kallum_motion_pilot_GIST_update_2,2026.1.1,Win32,59.52380952,672b24390a9c197eb61f2f72,69b92ab4aef6dee357cd729a,69b92b769ea2f78e7086aea4,0.0752,0.0752,1,100,262,105,1,fiveseven,,,,,,,,,,,,,,,,,,,,,,,,,,,,,,,,,,,,,,,,,,,,,,,,,,,,,,,,,,,,,,,,,,,,,,,,,,,,,,,,,,,,,,,,,,,,,,,,,,,,,,,,,,,,,,,,,,,,,,,,,,,,,,,,,,,,,,,,,
,,672b24390a9c197eb61f2f72,2026-03-17_10h23.48.102,kallum_motion_pilot_GIST_update_2,2026.1.1,Win32,59.52380952,672b24390a9c197eb61f2f72,69b92ab4aef6dee357cd729a,69b92b769ea2f78e7086aea4,0.0754,0.0754,1,101,263,151,1,eightseven,,,,,,,,,,,,,,,,,,,,,,,,,,,,,,,,,,,,,,,,,,,,,,,,,,,,,,,,,,,,,,,,,,,,,,,,,,,,,,,,,,,,,,,,,,,,,,,,,,,,,,,,,,,,,,,,,,,,,,,,,,,,,,,,,,,,,,,,,
,,672b24390a9c197eb61f2f72,2026-03-17_10h23.48.102,kallum_motion_pilot_GIST_update_2,2026.1.1,Win32,59.52380952,672b24390a9c197eb61f2f72,69b92ab4aef6dee357cd729a,69b92b769ea2f78e7086aea4,0.0756,0.0756,1,102,264,44,1,threeone,,,,,,,,,,,,,,,,,,,,,,,,,,,,,,,,,,,,,,,,,,,,,,,,,,,,,,,,,,,,,,,,,,,,,,,,,,,,,,,,,,,,,,,,,,,,,,,,,,,,,,,,,,,,,,,,,,,,,,,,,,,,,,,,,,,,,,,,,
,,672b24390a9c197eb61f2f72,2026-03-17_10h23.48.102,kallum_motion_pilot_GIST_update_2,2026.1.1,Win32,59.52380952,672b24390a9c197eb61f2f72,69b92ab4aef6dee357cd729a,69b92b769ea2f78e7086aea4,0.0759,0.0759,1,103,265,104,1,fivesix,,,,,,,,,,,,,,,,,,,,,,,,,,,,,,,,,,,,,,,,,,,,,,,,,,,,,,,,,,,,,,,,,,,,,,,,,,,,,,,,,,,,,,,,,,,,,,,,,,,,,,,,,,,,,,,,,,,,,,,,,,,,,,,,,,,,,,,,,
,,672b24390a9c197eb61f2f72,2026-03-17_10h23.48.102,kallum_motion_pilot_GIST_update_2,2026.1.1,Win32,59.52380952,672b24390a9c197eb61f2f72,69b92ab4aef6dee357cd729a,69b92b769ea2f78e7086aea4,0.0762,0.0762,1,104,266,103,1,eightseven,,,,,,,,,,,,,,,,,,,,,,,,,,,,,,,,,,,,,,,,,,,,,,,,,,,,,,,,,,,,,,,,,,,,,,,,,,,,,,,,,,,,,,,,,,,,,,,,,,,,,,,,,,,,,,,,,,,,,,,,,,,,,,,,,,,,,,,,,
