startup.started,startup.stopped,Prolific ID*,date,expName,psychopyVersion,OS,frameRate,participant,study_id,session,stimpositions.started,stimpositions.stopped,hardcoded_stimulus_positions.thisRepN,hardcoded_stimulus_positions.thisTrialN,hardcoded_stimulus_positions.thisN,hardcoded_stimulus_positions.thisIndex,hardcoded_stimulus_positions.ran,StimulusPos,stimorientation.started,stimorientation.stopped,prac_stimorientation_import_loop.thisRepN,prac_stimorientation_import_loop.thisTrialN,prac_stimorientation_import_loop.thisN,prac_stimorientation_import_loop.thisIndex,prac_stimorientation_import_loop.ran,Stimorientation,welcome_instr.started,welcome_instr.stopped,key_resp.keys,key_resp.rt,key_resp.duration,response_steppedout_1.started,response_steppedout_1.stopped,key_resp_20.keys,key_resp_20.rt,key_resp_20.duration,response_steppedout_2.started,response_steppedout_2.stopped,key_resp_19.keys,key_resp_19.rt,key_resp_19.duration,stim_response_instr.started,stim_response_instr.stopped,key_resp_15.keys,key_resp_15.rt,key_resp_15.duration,direction_instr_2.started,direction_instr_2.stopped,key_resp_9.keys,key_resp_9.rt,key_resp_9.duration,instr_prac.started,instr_prac.stopped,key_resp_10.keys,key_resp_10.rt,key_resp_10.duration,Stim1_display_prac.started,Stim1_display_prac.stopped,Ecc,Circle1_ori,Circle2_ori,response_prac.started,similarity,response_time,response_prac.stopped,mouse_5.x,mouse_5.y,mouse_5.leftButton,mouse_5.midButton,mouse_5.rightButton,mouse_5.clicked_name,responseprac_feedback.started,responseprac_feedback.stopped,summary2_prac.started,summary2_prac.stopped,mouse_6.x,mouse_6.y,mouse_6.leftButton,mouse_6.midButton,mouse_6.rightButton,mouse_6.clicked_name,duringprac.thisRepN,duringprac.thisTrialN,duringprac.thisN,duringprac.thisIndex,duringprac.ran,begin.started,begin.stopped,key_resp_22.keys,key_resp_22.rt,key_resp_22.duration,Stim1_display.started,Stim1_display.stopped,circle1_ori,circle2_ori,circle1_SF,circle2_SF,response.started,response.stopped,mouse.x,mouse.y,mouse.leftButton,mouse.midButton,mouse.rightButton,mouse.clicked_name,trialnumber,double_pass.thisRepN,double_pass.thisTrialN,double_pass.thisN,double_pass.thisIndex,double_pass.ran,double_pass.order,main_trial.thisRepN,main_trial.thisTrialN,main_trial.thisN,main_trial.thisIndex,main_trial.ran,main_trial.order,Trial_Counter,Catch,Frequencies,response_2.started,response_2.stopped,mouse_2.x,mouse_2.y,mouse_2.leftButton,mouse_2.midButton,mouse_2.rightButton,mouse_2.clicked_name,special_trial.started,special_trial.stopped,catch_1.started,catch_1.stopped,mouse_3.x,mouse_3.y,mouse_3.leftButton,mouse_3.midButton,mouse_3.rightButton,catchresponse,catchnumber,response_time_catch,response_sum.started,response_sum.stopped,mouse_11.x,mouse_11.y,mouse_11.leftButton,mouse_11.midButton,mouse_11.rightButton,flip_presentation_sequence_for_double_pass.started,flip_presentation_sequence_for_double_pass.stopped,goodbye.started,goodbye.stopped,key_resp_3.keys,key_resp_3.rt,key_resp_3.duration
0.0006,0.0008,673231ca547cd8ac8dfbffd6,2026-03-17_16h15.15.757,kallum_motion_pilot_GIST_update_2,2026.1.1,Win32,30.12048193,673231ca547cd8ac8dfbffd6,69b95efdef24cd8a694e89ee,69b960c9d64aca07156b56bc,,,,,,,,,,,,,,,,,,,,,,,,,,,,,,,,,,,,,,,,,,,,,,,,,,,,,,,,,,,,,,,,,,,,,,,,,,,,,,,,,,,,,,,,,,,,,,,,,,,,,,,,,,,,,,,,,,,,,,,,,,,,,,,,,,,,,,,,,,,,,,,,,
,,673231ca547cd8ac8dfbffd6,2026-03-17_16h15.15.757,kallum_motion_pilot_GIST_update_2,2026.1.1,Win32,30.12048193,673231ca547cd8ac8dfbffd6,69b95efdef24cd8a694e89ee,69b960c9d64aca07156b56bc,0.0777,0.0779,0,0,0,103,1,eightseven,,,,,,,,,,,,,,,,,,,,,,,,,,,,,,,,,,,,,,,,,,,,,,,,,,,,,,,,,,,,,,,,,,,,,,,,,,,,,,,,,,,,,,,,,,,,,,,,,,,,,,,,,,,,,,,,,,,,,,,,,,,,,,,,,,,,,,,,,
,,673231ca547cd8ac8dfbffd6,2026-03-17_16h15.15.757,kallum_motion_pilot_GIST_update_2,2026.1.1,Win32,30.12048193,673231ca547cd8ac8dfbffd6,69b95efdef24cd8a694e89ee,69b960c9d64aca07156b56bc,0.0791,0.0792,0,1,1,2,1,twoone,,,,,,,,,,,,,,,,,,,,,,,,,,,,,,,,,,,,,,,,,,,,,,,,,,,,,,,,,,,,,,,,,,,,,,,,,,,,,,,,,,,,,,,,,,,,,,,,,,,,,,,,,,,,,,,,,,,,,,,,,,,,,,,,,,,,,,,,,
,,673231ca547cd8ac8dfbffd6,2026-03-17_16h15.15.757,kallum_motion_pilot_GIST_update_2,2026.1.1,Win32,30.12048193,673231ca547cd8ac8dfbffd6,69b95efdef24cd8a694e89ee,69b960c9d64aca07156b56bc,0.0797,0.0797,0,2,2,147,1,sixeight,,,,,,,,,,,,,,,,,,,,,,,,,,,,,,,,,,,,,,,,,,,,,,,,,,,,,,,,,,,,,,,,,,,,,,,,,,,,,,,,,,,,,,,,,,,,,,,,,,,,,,,,,,,,,,,,,,,,,,,,,,,,,,,,,,,,,,,,,
,,673231ca547cd8ac8dfbffd6,2026-03-17_16h15.15.757,kallum_motion_pilot_GIST_update_2,2026.1.1,Win32,30.12048193,673231ca547cd8ac8dfbffd6,69b95efdef24cd8a694e89ee,69b960c9d64aca07156b56bc,0.0803,0.0803,0,3,3,94,1,eightsix,,,,,,,,,,,,,,,,,,,,,,,,,,,,,,,,,,,,,,,,,,,,,,,,,,,,,,,,,,,,,,,,,,,,,,,,,,,,,,,,,,,,,,,,,,,,,,,,,,,,,,,,,,,,,,,,,,,,,,,,,,,,,,,,,,,,,,,,,
,,673231ca547cd8ac8dfbffd6,2026-03-17_16h15.15.757,kallum_motion_pilot_GIST_update_2,2026.1.1,Win32,30.12048193,673231ca547cd8ac8dfbffd6,69b95efdef24cd8a694e89ee,69b960c9d64aca07156b56bc,0.0806,0.0807,0,4,4,43,1,twofour,,,,,,,,,,,,,,,,,,,,,,,,,,,,,,,,,,,,,,,,,,,,,,,,,,,,,,,,,,,,,,,,,,,,,,,,,,,,,,,,,,,,,,,,,,,,,,,,,,,,,,,,,,,,,,,,,,,,,,,,,,,,,,,,,,,,,,,,,
,,673231ca547cd8ac8dfbffd6,2026-03-17_16h15.15.757,kallum_motion_pilot_GIST_update_2,2026.1.1,Win32,30.12048193,673231ca547cd8ac8dfbffd6,69b95efdef24cd8a694e89ee,69b960c9d64aca07156b56bc,0.0815,0.0816,0,5,5,121,1,fiveseven,,,,,,,,,,,,,,,,,,,,,,,,,,,,,,,,,,,,,,,,,,,,,,,,,,,,,,,,,,,,,,,,,,,,,,,,,,,,,,,,,,,,,,,,,,,,,,,,,,,,,,,,,,,,,,,,,,,,,,,,,,,,,,,,,,,,,,,,,
,,673231ca547cd8ac8dfbffd6,2026-03-17_16h15.15.757,kallum_motion_pilot_GIST_update_2,2026.1.1,Win32,30.12048193,673231ca547cd8ac8dfbffd6,69b95efdef24cd8a694e89ee,69b960c9d64aca07156b56bc,0.0821,0.0822,0,6,6,104,1,fivesix,,,,,,,,,,,,,,,,,,,,,,,,,,,,,,,,,,,,,,,,,,,,,,,,,,,,,,,,,,,,,,,,,,,,,,,,,,,,,,,,,,,,,,,,,,,,,,,,,,,,,,,,,,,,,,,,,,,,,,,,,,,,,,,,,,,,,,,,,
,,673231ca547cd8ac8dfbffd6,2026-03-17_16h15.15.757,kallum_motion_pilot_GIST_update_2,2026.1.1,Win32,30.12048193,673231ca547cd8ac8dfbffd6,69b95efdef24cd8a694e89ee,69b960c9d64aca07156b56bc,0.0828,0.0828,0,7,7,89,1,fiveseven,,,,,,,,,,,,,,,,,,,,,,,,,,,,,,,,,,,,,,,,,,,,,,,,,,,,,,,,,,,,,,,,,,,,,,,,,,,,,,,,,,,,,,,,,,,,,,,,,,,,,,,,,,,,,,,,,,,,,,,,,,,,,,,,,,,,,,,,,
,,673231ca547cd8ac8dfbffd6,2026-03-17_16h15.15.757,kallum_motion_pilot_GIST_update_2,2026.1.1,Win32,30.12048193,673231ca547cd8ac8dfbffd6,69b95efdef24cd8a694e89ee,69b960c9d64aca07156b56bc,0.0832,0.0836,0,8,8,152,1,fivesix,,,,,,,,,,,,,,,,,,,,,,,,,,,,,,,,,,,,,,,,,,,,,,,,,,,,,,,,,,,,,,,,,,,,,,,,,,,,,,,,,,,,,,,,,,,,,,,,,,,,,,,,,,,,,,,,,,,,,,,,,,,,,,,,,,,,,,,,,
,,673231ca547cd8ac8dfbffd6,2026-03-17_16h15.15.757,kallum_motion_pilot_GIST_update_2,2026.1.1,Win32,30.12048193,673231ca547cd8ac8dfbffd6,69b95efdef24cd8a694e89ee,69b960c9d64aca07156b56bc,0.084,0.0842,0,9,9,95,1,eightseven,,,,,,,,,,,,,,,,,,,,,,,,,,,,,,,,,,,,,,,,,,,,,,,,,,,,,,,,,,,,,,,,,,,,,,,,,,,,,,,,,,,,,,,,,,,,,,,,,,,,,,,,,,,,,,,,,,,,,,,,,,,,,,,,,,,,,,,,,
,,673231ca547cd8ac8dfbffd6,2026-03-17_16h15.15.757,kallum_motion_pilot_GIST_update_2,2026.1.1,Win32,30.12048193,673231ca547cd8ac8dfbffd6,69b95efdef24cd8a694e89ee,69b960c9d64aca07156b56bc,0.085,0.085,0,10,10,143,1,eightseven,,,,,,,,,,,,,,,,,,,,,,,,,,,,,,,,,,,,,,,,,,,,,,,,,,,,,,,,,,,,,,,,,,,,,,,,,,,,,,,,,,,,,,,,,,,,,,,,,,,,,,,,,,,,,,,,,,,,,,,,,,,,,,,,,,,,,,,,,
,,673231ca547cd8ac8dfbffd6,2026-03-17_16h15.15.757,kallum_motion_pilot_GIST_update_2,2026.1.1,Win32,30.12048193,673231ca547cd8ac8dfbffd6,69b95efdef24cd8a694e89ee,69b960c9d64aca07156b56bc,0.0856,0.0856,0,11,11,71,1,fourthree,,,,,,,,,,,,,,,,,,,,,,,,,,,,,,,,,,,,,,,,,,,,,,,,,,,,,,,,,,,,,,,,,,,,,,,,,,,,,,,,,,,,,,,,,,,,,,,,,,,,,,,,,,,,,,,,,,,,,,,,,,,,,,,,,,,,,,,,,
,,673231ca547cd8ac8dfbffd6,2026-03-17_16h15.15.757,kallum_motion_pilot_GIST_update_2,2026.1.1,Win32,30.12048193,673231ca547cd8ac8dfbffd6,69b95efdef24cd8a694e89ee,69b960c9d64aca07156b56bc,0.0861,0.0861,0,12,12,26,1,twoone,,,,,,,,,,,,,,,,,,,,,,,,,,,,,,,,,,,,,,,,,,,,,,,,,,,,,,,,,,,,,,,,,,,,,,,,,,,,,,,,,,,,,,,,,,,,,,,,,,,,,,,,,,,,,,,,,,,,,,,,,,,,,,,,,,,,,,,,,
,,673231ca547cd8ac8dfbffd6,2026-03-17_16h15.15.757,kallum_motion_pilot_GIST_update_2,2026.1.1,Win32,30.12048193,673231ca547cd8ac8dfbffd6,69b95efdef24cd8a694e89ee,69b960c9d64aca07156b56bc,0.0865,0.0866,0,13,13,0,1,onetwo,,,,,,,,,,,,,,,,,,,,,,,,,,,,,,,,,,,,,,,,,,,,,,,,,,,,,,,,,,,,,,,,,,,,,,,,,,,,,,,,,,,,,,,,,,,,,,,,,,,,,,,,,,,,,,,,,,,,,,,,,,,,,,,,,,,,,,,,,
,,673231ca547cd8ac8dfbffd6,2026-03-17_16h15.15.757,kallum_motion_pilot_GIST_update_2,2026.1.1,Win32,30.12048193,673231ca547cd8ac8dfbffd6,69b95efdef24cd8a694e89ee,69b960c9d64aca07156b56bc,0.0869,0.0869,0,14,14,115,1,sixeight,,,,,,,,,,,,,,,,,,,,,,,,,,,,,,,,,,,,,,,,,,,,,,,,,,,,,,,,,,,,,,,,,,,,,,,,,,,,,,,,,,,,,,,,,,,,,,,,,,,,,,,,,,,,,,,,,,,,,,,,,,,,,,,,,,,,,,,,,
,,673231ca547cd8ac8dfbffd6,2026-03-17_16h15.15.757,kallum_motion_pilot_GIST_update_2,2026.1.1,Win32,30.12048193,673231ca547cd8ac8dfbffd6,69b95efdef24cd8a694e89ee,69b960c9d64aca07156b56bc,0.0872,0.0872,0,15,15,125,1,seveneight,,,,,,,,,,,,,,,,,,,,,,,,,,,,,,,,,,,,,,,,,,,,,,,,,,,,,,,,,,,,,,,,,,,,,,,,,,,,,,,,,,,,,,,,,,,,,,,,,,,,,,,,,,,,,,,,,,,,,,,,,,,,,,,,,,,,,,,,,
,,673231ca547cd8ac8dfbffd6,2026-03-17_16h15.15.757,kallum_motion_pilot_GIST_update_2,2026.1.1,Win32,30.12048193,673231ca547cd8ac8dfbffd6,69b95efdef24cd8a694e89ee,69b960c9d64aca07156b56bc,0.0876,0.0876,0,16,16,142,1,eightsix,,,,,,,,,,,,,,,,,,,,,,,,,,,,,,,,,,,,,,,,,,,,,,,,,,,,,,,,,,,,,,,,,,,,,,,,,,,,,,,,,,,,,,,,,,,,,,,,,,,,,,,,,,,,,,,,,,,,,,,,,,,,,,,,,,,,,,,,,
,,673231ca547cd8ac8dfbffd6,2026-03-17_16h15.15.757,kallum_motion_pilot_GIST_update_2,2026.1.1,Win32,30.12048193,673231ca547cd8ac8dfbffd6,69b95efdef24cd8a694e89ee,69b960c9d64aca07156b56bc,0.0895,0.0896,0,17,17,44,1,threeone,,,,,,,,,,,,,,,,,,,,,,,,,,,,,,,,,,,,,,,,,,,,,,,,,,,,,,,,,,,,,,,,,,,,,,,,,,,,,,,,,,,,,,,,,,,,,,,,,,,,,,,,,,,,,,,,,,,,,,,,,,,,,,,,,,,,,,,,,
,,673231ca547cd8ac8dfbffd6,2026-03-17_16h15.15.757,kallum_motion_pilot_GIST_update_2,2026.1.1,Win32,30.12048193,673231ca547cd8ac8dfbffd6,69b95efdef24cd8a694e89ee,69b960c9d64aca07156b56bc,0.0905,0.0906,0,18,18,19,1,twofour,,,,,,,,,,,,,,,,,,,,,,,,,,,,,,,,,,,,,,,,,,,,,,,,,,,,,,,,,,,,,,,,,,,,,,,,,,,,,,,,,,,,,,,,,,,,,,,,,,,,,,,,,,,,,,,,,,,,,,,,,,,,,,,,,,,,,,,,,
,,673231ca547cd8ac8dfbffd6,2026-03-17_16h15.15.757,kallum_motion_pilot_GIST_update_2,2026.1.1,Win32,30.12048193,673231ca547cd8ac8dfbffd6,69b95efdef24cd8a694e89ee,69b960c9d64aca07156b56bc,0.0916,0.0916,0,19,19,154,1,sixfive,,,,,,,,,,,,,,,,,,,,,,,,,,,,,,,,,,,,,,,,,,,,,,,,,,,,,,,,,,,,,,,,,,,,,,,,,,,,,,,,,,,,,,,,,,,,,,,,,,,,,,,,,,,,,,,,,,,,,,,,,,,,,,,,,,,,,,,,,
,,673231ca547cd8ac8dfbffd6,2026-03-17_16h15.15.757,kallum_motion_pilot_GIST_update_2,2026.1.1,Win32,30.12048193,673231ca547cd8ac8dfbffd6,69b95efdef24cd8a694e89ee,69b960c9d64aca07156b56bc,0.0923,0.0923,0,20,20,98,1,sixfive,,,,,,,,,,,,,,,,,,,,,,,,,,,,,,,,,,,,,,,,,,,,,,,,,,,,,,,,,,,,,,,,,,,,,,,,,,,,,,,,,,,,,,,,,,,,,,,,,,,,,,,,,,,,,,,,,,,,,,,,,,,,,,,,,,,,,,,,,
,,673231ca547cd8ac8dfbffd6,2026-03-17_16h15.15.757,kallum_motion_pilot_GIST_update_2,2026.1.1,Win32,30.12048193,673231ca547cd8ac8dfbffd6,69b95efdef24cd8a694e89ee,69b960c9d64aca07156b56bc,0.0929,0.093,0,21,21,91,1,sixeight,,,,,,,,,,,,,,,,,,,,,,,,,,,,,,,,,,,,,,,,,,,,,,,,,,,,,,,,,,,,,,,,,,,,,,,,,,,,,,,,,,,,,,,,,,,,,,,,,,,,,,,,,,,,,,,,,,,,,,,,,,,,,,,,,,,,,,,,,
,,673231ca547cd8ac8dfbffd6,2026-03-17_16h15.15.757,kallum_motion_pilot_GIST_update_2,2026.1.1,Win32,30.12048193,673231ca547cd8ac8dfbffd6,69b95efdef24cd8a694e89ee,69b960c9d64aca07156b56bc,0.0941,0.0942,0,22,22,117,1,seveneight,,,,,,,,,,,,,,,,,,,,,,,,,,,,,,,,,,,,,,,,,,,,,,,,,,,,,,,,,,,,,,,,,,,,,,,,,,,,,,,,,,,,,,,,,,,,,,,,,,,,,,,,,,,,,,,,,,,,,,,,,,,,,,,,,,,,,,,,,
,,673231ca547cd8ac8dfbffd6,2026-03-17_16h15.15.757,kallum_motion_pilot_GIST_update_2,2026.1.1,Win32,30.12048193,673231ca547cd8ac8dfbffd6,69b95efdef24cd8a694e89ee,69b960c9d64aca07156b56bc,0.095,0.095,0,23,23,45,1,threefour,,,,,,,,,,,,,,,,,,,,,,,,,,,,,,,,,,,,,,,,,,,,,,,,,,,,,,,,,,,,,,,,,,,,,,,,,,,,,,,,,,,,,,,,,,,,,,,,,,,,,,,,,,,,,,,,,,,,,,,,,,,,,,,,,,,,,,,,,
,,673231ca547cd8ac8dfbffd6,2026-03-17_16h15.15.757,kallum_motion_pilot_GIST_update_2,2026.1.1,Win32,30.12048193,673231ca547cd8ac8dfbffd6,69b95efdef24cd8a694e89ee,69b960c9d64aca07156b56bc,0.0956,0.0957,0,24,24,146,1,sixfive,,,,,,,,,,,,,,,,,,,,,,,,,,,,,,,,,,,,,,,,,,,,,,,,,,,,,,,,,,,,,,,,,,,,,,,,,,,,,,,,,,,,,,,,,,,,,,,,,,,,,,,,,,,,,,,,,,,,,,,,,,,,,,,,,,,,,,,,,
,,673231ca547cd8ac8dfbffd6,2026-03-17_16h15.15.757,kallum_motion_pilot_GIST_update_2,2026.1.1,Win32,30.12048193,673231ca547cd8ac8dfbffd6,69b95efdef24cd8a694e89ee,69b960c9d64aca07156b56bc,0.0961,0.0961,0,25,25,137,1,fiveseven,,,,,,,,,,,,,,,,,,,,,,,,,,,,,,,,,,,,,,,,,,,,,,,,,,,,,,,,,,,,,,,,,,,,,,,,,,,,,,,,,,,,,,,,,,,,,,,,,,,,,,,,,,,,,,,,,,,,,,,,,,,,,,,,,,,,,,,,,
,,673231ca547cd8ac8dfbffd6,2026-03-17_16h15.15.757,kallum_motion_pilot_GIST_update_2,2026.1.1,Win32,30.12048193,673231ca547cd8ac8dfbffd6,69b95efdef24cd8a694e89ee,69b960c9d64aca07156b56bc,0.0966,0.0967,0,26,26,10,1,twoone,,,,,,,,,,,,,,,,,,,,,,,,,,,,,,,,,,,,,,,,,,,,,,,,,,,,,,,,,,,,,,,,,,,,,,,,,,,,,,,,,,,,,,,,,,,,,,,,,,,,,,,,,,,,,,,,,,,,,,,,,,,,,,,,,,,,,,,,,
,,673231ca547cd8ac8dfbffd6,2026-03-17_16h15.15.757,kallum_motion_pilot_GIST_update_2,2026.1.1,Win32,30.12048193,673231ca547cd8ac8dfbffd6,69b95efdef24cd8a694e89ee,69b960c9d64aca07156b56bc,0.0973,0.0974,0,27,27,90,1,sixfive,,,,,,,,,,,,,,,,,,,,,,,,,,,,,,,,,,,,,,,,,,,,,,,,,,,,,,,,,,,,,,,,,,,,,,,,,,,,,,,,,,,,,,,,,,,,,,,,,,,,,,,,,,,,,,,,,,,,,,,,,,,,,,,,,,,,,,,,,
,,673231ca547cd8ac8dfbffd6,2026-03-17_16h15.15.757,kallum_motion_pilot_GIST_update_2,2026.1.1,Win32,30.12048193,673231ca547cd8ac8dfbffd6,69b95efdef24cd8a694e89ee,69b960c9d64aca07156b56bc,0.098,0.0981,0,28,28,32,1,onetwo,,,,,,,,,,,,,,,,,,,,,,,,,,,,,,,,,,,,,,,,,,,,,,,,,,,,,,,,,,,,,,,,,,,,,,,,,,,,,,,,,,,,,,,,,,,,,,,,,,,,,,,,,,,,,,,,,,,,,,,,,,,,,,,,,,,,,,,,,
,,673231ca547cd8ac8dfbffd6,2026-03-17_16h15.15.757,kallum_motion_pilot_GIST_update_2,2026.1.1,Win32,30.12048193,673231ca547cd8ac8dfbffd6,69b95efdef24cd8a694e89ee,69b960c9d64aca07156b56bc,0.0987,0.0987,0,29,29,75,1,twofour,,,,,,,,,,,,,,,,,,,,,,,,,,,,,,,,,,,,,,,,,,,,,,,,,,,,,,,,,,,,,,,,,,,,,,,,,,,,,,,,,,,,,,,,,,,,,,,,,,,,,,,,,,,,,,,,,,,,,,,,,,,,,,,,,,,,,,,,,
,,673231ca547cd8ac8dfbffd6,2026-03-17_16h15.15.757,kallum_motion_pilot_GIST_update_2,2026.1.1,Win32,30.12048193,673231ca547cd8ac8dfbffd6,69b95efdef24cd8a694e89ee,69b960c9d64aca07156b56bc,0.0991,0.0991,0,30,30,128,1,fivesix,,,,,,,,,,,,,,,,,,,,,,,,,,,,,,,,,,,,,,,,,,,,,,,,,,,,,,,,,,,,,,,,,,,,,,,,,,,,,,,,,,,,,,,,,,,,,,,,,,,,,,,,,,,,,,,,,,,,,,,,,,,,,,,,,,,,,,,,,
,,673231ca547cd8ac8dfbffd6,2026-03-17_16h15.15.757,kallum_motion_pilot_GIST_update_2,2026.1.1,Win32,30.12048193,673231ca547cd8ac8dfbffd6,69b95efdef24cd8a694e89ee,69b960c9d64aca07156b56bc,0.0999,0.0999,0,31,31,100,1,sevenfive,,,,,,,,,,,,,,,,,,,,,,,,,,,,,,,,,,,,,,,,,,,,,,,,,,,,,,,,,,,,,,,,,,,,,,,,,,,,,,,,,,,,,,,,,,,,,,,,,,,,,,,,,,,,,,,,,,,,,,,,,,,,,,,,,,,,,,,,,
,,673231ca547cd8ac8dfbffd6,2026-03-17_16h15.15.757,kallum_motion_pilot_GIST_update_2,2026.1.1,Win32,30.12048193,673231ca547cd8ac8dfbffd6,69b95efdef24cd8a694e89ee,69b960c9d64aca07156b56bc,0.1006,0.1006,0,32,32,64,1,onetwo,,,,,,,,,,,,,,,,,,,,,,,,,,,,,,,,,,,,,,,,,,,,,,,,,,,,,,,,,,,,,,,,,,,,,,,,,,,,,,,,,,,,,,,,,,,,,,,,,,,,,,,,,,,,,,,,,,,,,,,,,,,,,,,,,,,,,,,,,
,,673231ca547cd8ac8dfbffd6,2026-03-17_16h15.15.757,kallum_motion_pilot_GIST_update_2,2026.1.1,Win32,30.12048193,673231ca547cd8ac8dfbffd6,69b95efdef24cd8a694e89ee,69b960c9d64aca07156b56bc,0.1011,0.1012,0,33,33,74,1,twoone,,,,,,,,,,,,,,,,,,,,,,,,,,,,,,,,,,,,,,,,,,,,,,,,,,,,,,,,,,,,,,,,,,,,,,,,,,,,,,,,,,,,,,,,,,,,,,,,,,,,,,,,,,,,,,,,,,,,,,,,,,,,,,,,,,,,,,,,,
,,673231ca547cd8ac8dfbffd6,2026-03-17_16h15.15.757,kallum_motion_pilot_GIST_update_2,2026.1.1,Win32,30.12048193,673231ca547cd8ac8dfbffd6,69b95efdef24cd8a694e89ee,69b960c9d64aca07156b56bc,0.1016,0.1017,0,34,34,102,1,eightsix,,,,,,,,,,,,,,,,,,,,,,,,,,,,,,,,,,,,,,,,,,,,,,,,,,,,,,,,,,,,,,,,,,,,,,,,,,,,,,,,,,,,,,,,,,,,,,,,,,,,,,,,,,,,,,,,,,,,,,,,,,,,,,,,,,,,,,,,,
,,673231ca547cd8ac8dfbffd6,2026-03-17_16h15.15.757,kallum_motion_pilot_GIST_update_2,2026.1.1,Win32,30.12048193,673231ca547cd8ac8dfbffd6,69b95efdef24cd8a694e89ee,69b960c9d64aca07156b56bc,0.1021,0.1021,0,35,35,118,1,eightsix,,,,,,,,,,,,,,,,,,,,,,,,,,,,,,,,,,,,,,,,,,,,,,,,,,,,,,,,,,,,,,,,,,,,,,,,,,,,,,,,,,,,,,,,,,,,,,,,,,,,,,,,,,,,,,,,,,,,,,,,,,,,,,,,,,,,,,,,,
,,673231ca547cd8ac8dfbffd6,2026-03-17_16h15.15.757,kallum_motion_pilot_GIST_update_2,2026.1.1,Win32,30.12048193,673231ca547cd8ac8dfbffd6,69b95efdef24cd8a694e89ee,69b960c9d64aca07156b56bc,0.1025,0.1026,0,36,36,92,1,sevenfive,,,,,,,,,,,,,,,,,,,,,,,,,,,,,,,,,,,,,,,,,,,,,,,,,,,,,,,,,,,,,,,,,,,,,,,,,,,,,,,,,,,,,,,,,,,,,,,,,,,,,,,,,,,,,,,,,,,,,,,,,,,,,,,,,,,,,,,,,
,,673231ca547cd8ac8dfbffd6,2026-03-17_16h15.15.757,kallum_motion_pilot_GIST_update_2,2026.1.1,Win32,30.12048193,673231ca547cd8ac8dfbffd6,69b95efdef24cd8a694e89ee,69b960c9d64aca07156b56bc,0.103,0.1031,0,37,37,72,1,onetwo,,,,,,,,,,,,,,,,,,,,,,,,,,,,,,,,,,,,,,,,,,,,,,,,,,,,,,,,,,,,,,,,,,,,,,,,,,,,,,,,,,,,,,,,,,,,,,,,,,,,,,,,,,,,,,,,,,,,,,,,,,,,,,,,,,,,,,,,,
,,673231ca547cd8ac8dfbffd6,2026-03-17_16h15.15.757,kallum_motion_pilot_GIST_update_2,2026.1.1,Win32,30.12048193,673231ca547cd8ac8dfbffd6,69b95efdef24cd8a694e89ee,69b960c9d64aca07156b56bc,0.1035,0.1036,0,38,38,13,1,threefour,,,,,,,,,,,,,,,,,,,,,,,,,,,,,,,,,,,,,,,,,,,,,,,,,,,,,,,,,,,,,,,,,,,,,,,,,,,,,,,,,,,,,,,,,,,,,,,,,,,,,,,,,,,,,,,,,,,,,,,,,,,,,,,,,,,,,,,,,
,,673231ca547cd8ac8dfbffd6,2026-03-17_16h15.15.757,kallum_motion_pilot_GIST_update_2,2026.1.1,Win32,30.12048193,673231ca547cd8ac8dfbffd6,69b95efdef24cd8a694e89ee,69b960c9d64aca07156b56bc,0.1063,0.1063,0,39,39,7,1,fourthree,,,,,,,,,,,,,,,,,,,,,,,,,,,,,,,,,,,,,,,,,,,,,,,,,,,,,,,,,,,,,,,,,,,,,,,,,,,,,,,,,,,,,,,,,,,,,,,,,,,,,,,,,,,,,,,,,,,,,,,,,,,,,,,,,,,,,,,,,
,,673231ca547cd8ac8dfbffd6,2026-03-17_16h15.15.757,kallum_motion_pilot_GIST_update_2,2026.1.1,Win32,30.12048193,673231ca547cd8ac8dfbffd6,69b95efdef24cd8a694e89ee,69b960c9d64aca07156b56bc,0.1083,0.1083,0,40,40,15,1,fourthree,,,,,,,,,,,,,,,,,,,,,,,,,,,,,,,,,,,,,,,,,,,,,,,,,,,,,,,,,,,,,,,,,,,,,,,,,,,,,,,,,,,,,,,,,,,,,,,,,,,,,,,,,,,,,,,,,,,,,,,,,,,,,,,,,,,,,,,,,
,,673231ca547cd8ac8dfbffd6,2026-03-17_16h15.15.757,kallum_motion_pilot_GIST_update_2,2026.1.1,Win32,30.12048193,673231ca547cd8ac8dfbffd6,69b95efdef24cd8a694e89ee,69b960c9d64aca07156b56bc,0.1097,0.1098,0,41,41,93,1,seveneight,,,,,,,,,,,,,,,,,,,,,,,,,,,,,,,,,,,,,,,,,,,,,,,,,,,,,,,,,,,,,,,,,,,,,,,,,,,,,,,,,,,,,,,,,,,,,,,,,,,,,,,,,,,,,,,,,,,,,,,,,,,,,,,,,,,,,,,,,
,,673231ca547cd8ac8dfbffd6,2026-03-17_16h15.15.757,kallum_motion_pilot_GIST_update_2,2026.1.1,Win32,30.12048193,673231ca547cd8ac8dfbffd6,69b95efdef24cd8a694e89ee,69b960c9d64aca07156b56bc,0.1104,0.1104,0,42,42,36,1,threeone,,,,,,,,,,,,,,,,,,,,,,,,,,,,,,,,,,,,,,,,,,,,,,,,,,,,,,,,,,,,,,,,,,,,,,,,,,,,,,,,,,,,,,,,,,,,,,,,,,,,,,,,,,,,,,,,,,,,,,,,,,,,,,,,,,,,,,,,,
,,673231ca547cd8ac8dfbffd6,2026-03-17_16h15.15.757,kallum_motion_pilot_GIST_update_2,2026.1.1,Win32,30.12048193,673231ca547cd8ac8dfbffd6,69b95efdef24cd8a694e89ee,69b960c9d64aca07156b56bc,0.1109,0.111,0,43,43,155,1,sixeight,,,,,,,,,,,,,,,,,,,,,,,,,,,,,,,,,,,,,,,,,,,,,,,,,,,,,,,,,,,,,,,,,,,,,,,,,,,,,,,,,,,,,,,,,,,,,,,,,,,,,,,,,,,,,,,,,,,,,,,,,,,,,,,,,,,,,,,,,
,,673231ca547cd8ac8dfbffd6,2026-03-17_16h15.15.757,kallum_motion_pilot_GIST_update_2,2026.1.1,Win32,30.12048193,673231ca547cd8ac8dfbffd6,69b95efdef24cd8a694e89ee,69b960c9d64aca07156b56bc,0.1113,0.1114,0,44,44,69,1,threefour,,,,,,,,,,,,,,,,,,,,,,,,,,,,,,,,,,,,,,,,,,,,,,,,,,,,,,,,,,,,,,,,,,,,,,,,,,,,,,,,,,,,,,,,,,,,,,,,,,,,,,,,,,,,,,,,,,,,,,,,,,,,,,,,,,,,,,,,,
,,673231ca547cd8ac8dfbffd6,2026-03-17_16h15.15.757,kallum_motion_pilot_GIST_update_2,2026.1.1,Win32,30.12048193,673231ca547cd8ac8dfbffd6,69b95efdef24cd8a694e89ee,69b960c9d64aca07156b56bc,0.1118,0.112,0,45,45,31,1,fourthree,,,,,,,,,,,,,,,,,,,,,,,,,,,,,,,,,,,,,,,,,,,,,,,,,,,,,,,,,,,,,,,,,,,,,,,,,,,,,,,,,,,,,,,,,,,,,,,,,,,,,,,,,,,,,,,,,,,,,,,,,,,,,,,,,,,,,,,,,
,,673231ca547cd8ac8dfbffd6,2026-03-17_16h15.15.757,kallum_motion_pilot_GIST_update_2,2026.1.1,Win32,30.12048193,673231ca547cd8ac8dfbffd6,69b95efdef24cd8a694e89ee,69b960c9d64aca07156b56bc,0.1124,0.1124,0,46,46,46,1,fourtwo,,,,,,,,,,,,,,,,,,,,,,,,,,,,,,,,,,,,,,,,,,,,,,,,,,,,,,,,,,,,,,,,,,,,,,,,,,,,,,,,,,,,,,,,,,,,,,,,,,,,,,,,,,,,,,,,,,,,,,,,,,,,,,,,,,,,,,,,,
,,673231ca547cd8ac8dfbffd6,2026-03-17_16h15.15.757,kallum_motion_pilot_GIST_update_2,2026.1.1,Win32,30.12048193,673231ca547cd8ac8dfbffd6,69b95efdef24cd8a694e89ee,69b960c9d64aca07156b56bc,0.1129,0.1129,0,47,47,136,1,fivesix,,,,,,,,,,,,,,,,,,,,,,,,,,,,,,,,,,,,,,,,,,,,,,,,,,,,,,,,,,,,,,,,,,,,,,,,,,,,,,,,,,,,,,,,,,,,,,,,,,,,,,,,,,,,,,,,,,,,,,,,,,,,,,,,,,,,,,,,,
,,673231ca547cd8ac8dfbffd6,2026-03-17_16h15.15.757,kallum_motion_pilot_GIST_update_2,2026.1.1,Win32,30.12048193,673231ca547cd8ac8dfbffd6,69b95efdef24cd8a694e89ee,69b960c9d64aca07156b56bc,0.1135,0.1135,0,48,48,99,1,sixeight,,,,,,,,,,,,,,,,,,,,,,,,,,,,,,,,,,,,,,,,,,,,,,,,,,,,,,,,,,,,,,,,,,,,,,,,,,,,,,,,,,,,,,,,,,,,,,,,,,,,,,,,,,,,,,,,,,,,,,,,,,,,,,,,,,,,,,,,,
,,673231ca547cd8ac8dfbffd6,2026-03-17_16h15.15.757,kallum_motion_pilot_GIST_update_2,2026.1.1,Win32,30.12048193,673231ca547cd8ac8dfbffd6,69b95efdef24cd8a694e89ee,69b960c9d64aca07156b56bc,0.1139,0.1139,0,49,49,8,1,onetwo,,,,,,,,,,,,,,,,,,,,,,,,,,,,,,,,,,,,,,,,,,,,,,,,,,,,,,,,,,,,,,,,,,,,,,,,,,,,,,,,,,,,,,,,,,,,,,,,,,,,,,,,,,,,,,,,,,,,,,,,,,,,,,,,,,,,,,,,,
,,673231ca547cd8ac8dfbffd6,2026-03-17_16h15.15.757,kallum_motion_pilot_GIST_update_2,2026.1.1,Win32,30.12048193,673231ca547cd8ac8dfbffd6,69b95efdef24cd8a694e89ee,69b960c9d64aca07156b56bc,0.1147,0.1147,0,50,50,109,1,seveneight,,,,,,,,,,,,,,,,,,,,,,,,,,,,,,,,,,,,,,,,,,,,,,,,,,,,,,,,,,,,,,,,,,,,,,,,,,,,,,,,,,,,,,,,,,,,,,,,,,,,,,,,,,,,,,,,,,,,,,,,,,,,,,,,,,,,,,,,,
,,673231ca547cd8ac8dfbffd6,2026-03-17_16h15.15.757,kallum_motion_pilot_GIST_update_2,2026.1.1,Win32,30.12048193,673231ca547cd8ac8dfbffd6,69b95efdef24cd8a694e89ee,69b960c9d64aca07156b56bc,0.1155,0.1157,0,51,51,107,1,sixeight,,,,,,,,,,,,,,,,,,,,,,,,,,,,,,,,,,,,,,,,,,,,,,,,,,,,,,,,,,,,,,,,,,,,,,,,,,,,,,,,,,,,,,,,,,,,,,,,,,,,,,,,,,,,,,,,,,,,,,,,,,,,,,,,,,,,,,,,,
,,673231ca547cd8ac8dfbffd6,2026-03-17_16h15.15.757,kallum_motion_pilot_GIST_update_2,2026.1.1,Win32,30.12048193,673231ca547cd8ac8dfbffd6,69b95efdef24cd8a694e89ee,69b960c9d64aca07156b56bc,0.116,0.1161,0,52,52,6,1,fourtwo,,,,,,,,,,,,,,,,,,,,,,,,,,,,,,,,,,,,,,,,,,,,,,,,,,,,,,,,,,,,,,,,,,,,,,,,,,,,,,,,,,,,,,,,,,,,,,,,,,,,,,,,,,,,,,,,,,,,,,,,,,,,,,,,,,,,,,,,,
,,673231ca547cd8ac8dfbffd6,2026-03-17_16h15.15.757,kallum_motion_pilot_GIST_update_2,2026.1.1,Win32,30.12048193,673231ca547cd8ac8dfbffd6,69b95efdef24cd8a694e89ee,69b960c9d64aca07156b56bc,0.1166,0.1166,0,53,53,5,1,threefour,,,,,,,,,,,,,,,,,,,,,,,,,,,,,,,,,,,,,,,,,,,,,,,,,,,,,,,,,,,,,,,,,,,,,,,,,,,,,,,,,,,,,,,,,,,,,,,,,,,,,,,,,,,,,,,,,,,,,,,,,,,,,,,,,,,,,,,,,
,,673231ca547cd8ac8dfbffd6,2026-03-17_16h15.15.757,kallum_motion_pilot_GIST_update_2,2026.1.1,Win32,30.12048193,673231ca547cd8ac8dfbffd6,69b95efdef24cd8a694e89ee,69b960c9d64aca07156b56bc,0.1171,0.1172,0,54,54,55,1,fourthree,,,,,,,,,,,,,,,,,,,,,,,,,,,,,,,,,,,,,,,,,,,,,,,,,,,,,,,,,,,,,,,,,,,,,,,,,,,,,,,,,,,,,,,,,,,,,,,,,,,,,,,,,,,,,,,,,,,,,,,,,,,,,,,,,,,,,,,,,
,,673231ca547cd8ac8dfbffd6,2026-03-17_16h15.15.757,kallum_motion_pilot_GIST_update_2,2026.1.1,Win32,30.12048193,673231ca547cd8ac8dfbffd6,69b95efdef24cd8a694e89ee,69b960c9d64aca07156b56bc,0.1178,0.1178,0,55,55,135,1,eightseven,,,,,,,,,,,,,,,,,,,,,,,,,,,,,,,,,,,,,,,,,,,,,,,,,,,,,,,,,,,,,,,,,,,,,,,,,,,,,,,,,,,,,,,,,,,,,,,,,,,,,,,,,,,,,,,,,,,,,,,,,,,,,,,,,,,,,,,,,
,,673231ca547cd8ac8dfbffd6,2026-03-17_16h15.15.757,kallum_motion_pilot_GIST_update_2,2026.1.1,Win32,30.12048193,673231ca547cd8ac8dfbffd6,69b95efdef24cd8a694e89ee,69b960c9d64aca07156b56bc,0.1185,0.1186,0,56,56,35,1,twofour,,,,,,,,,,,,,,,,,,,,,,,,,,,,,,,,,,,,,,,,,,,,,,,,,,,,,,,,,,,,,,,,,,,,,,,,,,,,,,,,,,,,,,,,,,,,,,,,,,,,,,,,,,,,,,,,,,,,,,,,,,,,,,,,,,,,,,,,,
,,673231ca547cd8ac8dfbffd6,2026-03-17_16h15.15.757,kallum_motion_pilot_GIST_update_2,2026.1.1,Win32,30.12048193,673231ca547cd8ac8dfbffd6,69b95efdef24cd8a694e89ee,69b960c9d64aca07156b56bc,0.119,0.119,0,57,57,149,1,seveneight,,,,,,,,,,,,,,,,,,,,,,,,,,,,,,,,,,,,,,,,,,,,,,,,,,,,,,,,,,,,,,,,,,,,,,,,,,,,,,,,,,,,,,,,,,,,,,,,,,,,,,,,,,,,,,,,,,,,,,,,,,,,,,,,,,,,,,,,,
,,673231ca547cd8ac8dfbffd6,2026-03-17_16h15.15.757,kallum_motion_pilot_GIST_update_2,2026.1.1,Win32,30.12048193,673231ca547cd8ac8dfbffd6,69b95efdef24cd8a694e89ee,69b960c9d64aca07156b56bc,0.1195,0.1195,0,58,58,60,1,threeone,,,,,,,,,,,,,,,,,,,,,,,,,,,,,,,,,,,,,,,,,,,,,,,,,,,,,,,,,,,,,,,,,,,,,,,,,,,,,,,,,,,,,,,,,,,,,,,,,,,,,,,,,,,,,,,,,,,,,,,,,,,,,,,,,,,,,,,,,
,,673231ca547cd8ac8dfbffd6,2026-03-17_16h15.15.757,kallum_motion_pilot_GIST_update_2,2026.1.1,Win32,30.12048193,673231ca547cd8ac8dfbffd6,69b95efdef24cd8a694e89ee,69b960c9d64aca07156b56bc,0.1206,0.1207,0,59,59,81,1,fiveseven,,,,,,,,,,,,,,,,,,,,,,,,,,,,,,,,,,,,,,,,,,,,,,,,,,,,,,,,,,,,,,,,,,,,,,,,,,,,,,,,,,,,,,,,,,,,,,,,,,,,,,,,,,,,,,,,,,,,,,,,,,,,,,,,,,,,,,,,,
,,673231ca547cd8ac8dfbffd6,2026-03-17_16h15.15.757,kallum_motion_pilot_GIST_update_2,2026.1.1,Win32,30.12048193,673231ca547cd8ac8dfbffd6,69b95efdef24cd8a694e89ee,69b960c9d64aca07156b56bc,0.1228,0.1228,0,60,60,133,1,seveneight,,,,,,,,,,,,,,,,,,,,,,,,,,,,,,,,,,,,,,,,,,,,,,,,,,,,,,,,,,,,,,,,,,,,,,,,,,,,,,,,,,,,,,,,,,,,,,,,,,,,,,,,,,,,,,,,,,,,,,,,,,,,,,,,,,,,,,,,,
,,673231ca547cd8ac8dfbffd6,2026-03-17_16h15.15.757,kallum_motion_pilot_GIST_update_2,2026.1.1,Win32,30.12048193,673231ca547cd8ac8dfbffd6,69b95efdef24cd8a694e89ee,69b960c9d64aca07156b56bc,0.1266,0.1267,0,61,61,56,1,onetwo,,,,,,,,,,,,,,,,,,,,,,,,,,,,,,,,,,,,,,,,,,,,,,,,,,,,,,,,,,,,,,,,,,,,,,,,,,,,,,,,,,,,,,,,,,,,,,,,,,,,,,,,,,,,,,,,,,,,,,,,,,,,,,,,,,,,,,,,,
,,673231ca547cd8ac8dfbffd6,2026-03-17_16h15.15.757,kallum_motion_pilot_GIST_update_2,2026.1.1,Win32,30.12048193,673231ca547cd8ac8dfbffd6,69b95efdef24cd8a694e89ee,69b960c9d64aca07156b56bc,0.1272,0.1272,0,62,62,105,1,fiveseven,,,,,,,,,,,,,,,,,,,,,,,,,,,,,,,,,,,,,,,,,,,,,,,,,,,,,,,,,,,,,,,,,,,,,,,,,,,,,,,,,,,,,,,,,,,,,,,,,,,,,,,,,,,,,,,,,,,,,,,,,,,,,,,,,,,,,,,,,
,,673231ca547cd8ac8dfbffd6,2026-03-17_16h15.15.757,kallum_motion_pilot_GIST_update_2,2026.1.1,Win32,30.12048193,673231ca547cd8ac8dfbffd6,69b95efdef24cd8a694e89ee,69b960c9d64aca07156b56bc,0.1281,0.1281,0,63,63,11,1,twofour,,,,,,,,,,,,,,,,,,,,,,,,,,,,,,,,,,,,,,,,,,,,,,,,,,,,,,,,,,,,,,,,,,,,,,,,,,,,,,,,,,,,,,,,,,,,,,,,,,,,,,,,,,,,,,,,,,,,,,,,,,,,,,,,,,,,,,,,,
,,673231ca547cd8ac8dfbffd6,2026-03-17_16h15.15.757,kallum_motion_pilot_GIST_update_2,2026.1.1,Win32,30.12048193,673231ca547cd8ac8dfbffd6,69b95efdef24cd8a694e89ee,69b960c9d64aca07156b56bc,0.1289,0.1289,0,64,64,112,1,fivesix,,,,,,,,,,,,,,,,,,,,,,,,,,,,,,,,,,,,,,,,,,,,,,,,,,,,,,,,,,,,,,,,,,,,,,,,,,,,,,,,,,,,,,,,,,,,,,,,,,,,,,,,,,,,,,,,,,,,,,,,,,,,,,,,,,,,,,,,,
,,673231ca547cd8ac8dfbffd6,2026-03-17_16h15.15.757,kallum_motion_pilot_GIST_update_2,2026.1.1,Win32,30.12048193,673231ca547cd8ac8dfbffd6,69b95efdef24cd8a694e89ee,69b960c9d64aca07156b56bc,0.1292,0.1294,0,65,65,58,1,twoone,,,,,,,,,,,,,,,,,,,,,,,,,,,,,,,,,,,,,,,,,,,,,,,,,,,,,,,,,,,,,,,,,,,,,,,,,,,,,,,,,,,,,,,,,,,,,,,,,,,,,,,,,,,,,,,,,,,,,,,,,,,,,,,,,,,,,,,,,
,,673231ca547cd8ac8dfbffd6,2026-03-17_16h15.15.757,kallum_motion_pilot_GIST_update_2,2026.1.1,Win32,30.12048193,673231ca547cd8ac8dfbffd6,69b95efdef24cd8a694e89ee,69b960c9d64aca07156b56bc,0.1298,0.1299,0,66,66,84,1,sevenfive,,,,,,,,,,,,,,,,,,,,,,,,,,,,,,,,,,,,,,,,,,,,,,,,,,,,,,,,,,,,,,,,,,,,,,,,,,,,,,,,,,,,,,,,,,,,,,,,,,,,,,,,,,,,,,,,,,,,,,,,,,,,,,,,,,,,,,,,,
,,673231ca547cd8ac8dfbffd6,2026-03-17_16h15.15.757,kallum_motion_pilot_GIST_update_2,2026.1.1,Win32,30.12048193,673231ca547cd8ac8dfbffd6,69b95efdef24cd8a694e89ee,69b960c9d64aca07156b56bc,0.1305,0.1305,0,67,67,27,1,twofour,,,,,,,,,,,,,,,,,,,,,,,,,,,,,,,,,,,,,,,,,,,,,,,,,,,,,,,,,,,,,,,,,,,,,,,,,,,,,,,,,,,,,,,,,,,,,,,,,,,,,,,,,,,,,,,,,,,,,,,,,,,,,,,,,,,,,,,,,
,,673231ca547cd8ac8dfbffd6,2026-03-17_16h15.15.757,kallum_motion_pilot_GIST_update_2,2026.1.1,Win32,30.12048193,673231ca547cd8ac8dfbffd6,69b95efdef24cd8a694e89ee,69b960c9d64aca07156b56bc,0.1311,0.1311,0,68,68,14,1,fourtwo,,,,,,,,,,,,,,,,,,,,,,,,,,,,,,,,,,,,,,,,,,,,,,,,,,,,,,,,,,,,,,,,,,,,,,,,,,,,,,,,,,,,,,,,,,,,,,,,,,,,,,,,,,,,,,,,,,,,,,,,,,,,,,,,,,,,,,,,,
,,673231ca547cd8ac8dfbffd6,2026-03-17_16h15.15.757,kallum_motion_pilot_GIST_update_2,2026.1.1,Win32,30.12048193,673231ca547cd8ac8dfbffd6,69b95efdef24cd8a694e89ee,69b960c9d64aca07156b56bc,0.1318,0.1318,0,69,69,76,1,threeone,,,,,,,,,,,,,,,,,,,,,,,,,,,,,,,,,,,,,,,,,,,,,,,,,,,,,,,,,,,,,,,,,,,,,,,,,,,,,,,,,,,,,,,,,,,,,,,,,,,,,,,,,,,,,,,,,,,,,,,,,,,,,,,,,,,,,,,,,
,,673231ca547cd8ac8dfbffd6,2026-03-17_16h15.15.757,kallum_motion_pilot_GIST_update_2,2026.1.1,Win32,30.12048193,673231ca547cd8ac8dfbffd6,69b95efdef24cd8a694e89ee,69b960c9d64aca07156b56bc,0.1324,0.1324,0,70,70,127,1,eightseven,,,,,,,,,,,,,,,,,,,,,,,,,,,,,,,,,,,,,,,,,,,,,,,,,,,,,,,,,,,,,,,,,,,,,,,,,,,,,,,,,,,,,,,,,,,,,,,,,,,,,,,,,,,,,,,,,,,,,,,,,,,,,,,,,,,,,,,,,
,,673231ca547cd8ac8dfbffd6,2026-03-17_16h15.15.757,kallum_motion_pilot_GIST_update_2,2026.1.1,Win32,30.12048193,673231ca547cd8ac8dfbffd6,69b95efdef24cd8a694e89ee,69b960c9d64aca07156b56bc,0.1328,0.1329,0,71,71,88,1,fivesix,,,,,,,,,,,,,,,,,,,,,,,,,,,,,,,,,,,,,,,,,,,,,,,,,,,,,,,,,,,,,,,,,,,,,,,,,,,,,,,,,,,,,,,,,,,,,,,,,,,,,,,,,,,,,,,,,,,,,,,,,,,,,,,,,,,,,,,,,
,,673231ca547cd8ac8dfbffd6,2026-03-17_16h15.15.757,kallum_motion_pilot_GIST_update_2,2026.1.1,Win32,30.12048193,673231ca547cd8ac8dfbffd6,69b95efdef24cd8a694e89ee,69b960c9d64aca07156b56bc,0.1333,0.1334,0,72,72,122,1,sixfive,,,,,,,,,,,,,,,,,,,,,,,,,,,,,,,,,,,,,,,,,,,,,,,,,,,,,,,,,,,,,,,,,,,,,,,,,,,,,,,,,,,,,,,,,,,,,,,,,,,,,,,,,,,,,,,,,,,,,,,,,,,,,,,,,,,,,,,,,
,,673231ca547cd8ac8dfbffd6,2026-03-17_16h15.15.757,kallum_motion_pilot_GIST_update_2,2026.1.1,Win32,30.12048193,673231ca547cd8ac8dfbffd6,69b95efdef24cd8a694e89ee,69b960c9d64aca07156b56bc,0.1337,0.1337,0,73,73,67,1,twofour,,,,,,,,,,,,,,,,,,,,,,,,,,,,,,,,,,,,,,,,,,,,,,,,,,,,,,,,,,,,,,,,,,,,,,,,,,,,,,,,,,,,,,,,,,,,,,,,,,,,,,,,,,,,,,,,,,,,,,,,,,,,,,,,,,,,,,,,,
,,673231ca547cd8ac8dfbffd6,2026-03-17_16h15.15.757,kallum_motion_pilot_GIST_update_2,2026.1.1,Win32,30.12048193,673231ca547cd8ac8dfbffd6,69b95efdef24cd8a694e89ee,69b960c9d64aca07156b56bc,0.1341,0.1344,0,74,74,38,1,fourtwo,,,,,,,,,,,,,,,,,,,,,,,,,,,,,,,,,,,,,,,,,,,,,,,,,,,,,,,,,,,,,,,,,,,,,,,,,,,,,,,,,,,,,,,,,,,,,,,,,,,,,,,,,,,,,,,,,,,,,,,,,,,,,,,,,,,,,,,,,
,,673231ca547cd8ac8dfbffd6,2026-03-17_16h15.15.757,kallum_motion_pilot_GIST_update_2,2026.1.1,Win32,30.12048193,673231ca547cd8ac8dfbffd6,69b95efdef24cd8a694e89ee,69b960c9d64aca07156b56bc,0.135,0.135,0,75,75,132,1,sevenfive,,,,,,,,,,,,,,,,,,,,,,,,,,,,,,,,,,,,,,,,,,,,,,,,,,,,,,,,,,,,,,,,,,,,,,,,,,,,,,,,,,,,,,,,,,,,,,,,,,,,,,,,,,,,,,,,,,,,,,,,,,,,,,,,,,,,,,,,,
,,673231ca547cd8ac8dfbffd6,2026-03-17_16h15.15.757,kallum_motion_pilot_GIST_update_2,2026.1.1,Win32,30.12048193,673231ca547cd8ac8dfbffd6,69b95efdef24cd8a694e89ee,69b960c9d64aca07156b56bc,0.1357,0.1358,0,76,76,83,1,sixeight,,,,,,,,,,,,,,,,,,,,,,,,,,,,,,,,,,,,,,,,,,,,,,,,,,,,,,,,,,,,,,,,,,,,,,,,,,,,,,,,,,,,,,,,,,,,,,,,,,,,,,,,,,,,,,,,,,,,,,,,,,,,,,,,,,,,,,,,,
,,673231ca547cd8ac8dfbffd6,2026-03-17_16h15.15.757,kallum_motion_pilot_GIST_update_2,2026.1.1,Win32,30.12048193,673231ca547cd8ac8dfbffd6,69b95efdef24cd8a694e89ee,69b960c9d64aca07156b56bc,0.136,0.136,0,77,77,57,1,onethree,,,,,,,,,,,,,,,,,,,,,,,,,,,,,,,,,,,,,,,,,,,,,,,,,,,,,,,,,,,,,,,,,,,,,,,,,,,,,,,,,,,,,,,,,,,,,,,,,,,,,,,,,,,,,,,,,,,,,,,,,,,,,,,,,,,,,,,,,
,,673231ca547cd8ac8dfbffd6,2026-03-17_16h15.15.757,kallum_motion_pilot_GIST_update_2,2026.1.1,Win32,30.12048193,673231ca547cd8ac8dfbffd6,69b95efdef24cd8a694e89ee,69b960c9d64aca07156b56bc,0.1366,0.1366,0,78,78,21,1,threefour,,,,,,,,,,,,,,,,,,,,,,,,,,,,,,,,,,,,,,,,,,,,,,,,,,,,,,,,,,,,,,,,,,,,,,,,,,,,,,,,,,,,,,,,,,,,,,,,,,,,,,,,,,,,,,,,,,,,,,,,,,,,,,,,,,,,,,,,,
,,673231ca547cd8ac8dfbffd6,2026-03-17_16h15.15.757,kallum_motion_pilot_GIST_update_2,2026.1.1,Win32,30.12048193,673231ca547cd8ac8dfbffd6,69b95efdef24cd8a694e89ee,69b960c9d64aca07156b56bc,0.1371,0.1372,0,79,79,101,1,seveneight,,,,,,,,,,,,,,,,,,,,,,,,,,,,,,,,,,,,,,,,,,,,,,,,,,,,,,,,,,,,,,,,,,,,,,,,,,,,,,,,,,,,,,,,,,,,,,,,,,,,,,,,,,,,,,,,,,,,,,,,,,,,,,,,,,,,,,,,,
,,673231ca547cd8ac8dfbffd6,2026-03-17_16h15.15.757,kallum_motion_pilot_GIST_update_2,2026.1.1,Win32,30.12048193,673231ca547cd8ac8dfbffd6,69b95efdef24cd8a694e89ee,69b960c9d64aca07156b56bc,0.1395,0.1396,0,80,80,49,1,onethree,,,,,,,,,,,,,,,,,,,,,,,,,,,,,,,,,,,,,,,,,,,,,,,,,,,,,,,,,,,,,,,,,,,,,,,,,,,,,,,,,,,,,,,,,,,,,,,,,,,,,,,,,,,,,,,,,,,,,,,,,,,,,,,,,,,,,,,,,
,,673231ca547cd8ac8dfbffd6,2026-03-17_16h15.15.757,kallum_motion_pilot_GIST_update_2,2026.1.1,Win32,30.12048193,673231ca547cd8ac8dfbffd6,69b95efdef24cd8a694e89ee,69b960c9d64aca07156b56bc,0.1408,0.1408,0,81,81,42,1,twoone,,,,,,,,,,,,,,,,,,,,,,,,,,,,,,,,,,,,,,,,,,,,,,,,,,,,,,,,,,,,,,,,,,,,,,,,,,,,,,,,,,,,,,,,,,,,,,,,,,,,,,,,,,,,,,,,,,,,,,,,,,,,,,,,,,,,,,,,,
,,673231ca547cd8ac8dfbffd6,2026-03-17_16h15.15.757,kallum_motion_pilot_GIST_update_2,2026.1.1,Win32,30.12048193,673231ca547cd8ac8dfbffd6,69b95efdef24cd8a694e89ee,69b960c9d64aca07156b56bc,0.1417,0.1417,0,82,82,47,1,fourthree,,,,,,,,,,,,,,,,,,,,,,,,,,,,,,,,,,,,,,,,,,,,,,,,,,,,,,,,,,,,,,,,,,,,,,,,,,,,,,,,,,,,,,,,,,,,,,,,,,,,,,,,,,,,,,,,,,,,,,,,,,,,,,,,,,,,,,,,,
,,673231ca547cd8ac8dfbffd6,2026-03-17_16h15.15.757,kallum_motion_pilot_GIST_update_2,2026.1.1,Win32,30.12048193,673231ca547cd8ac8dfbffd6,69b95efdef24cd8a694e89ee,69b960c9d64aca07156b56bc,0.1424,0.1425,0,83,83,16,1,onetwo,,,,,,,,,,,,,,,,,,,,,,,,,,,,,,,,,,,,,,,,,,,,,,,,,,,,,,,,,,,,,,,,,,,,,,,,,,,,,,,,,,,,,,,,,,,,,,,,,,,,,,,,,,,,,,,,,,,,,,,,,,,,,,,,,,,,,,,,,
,,673231ca547cd8ac8dfbffd6,2026-03-17_16h15.15.757,kallum_motion_pilot_GIST_update_2,2026.1.1,Win32,30.12048193,673231ca547cd8ac8dfbffd6,69b95efdef24cd8a694e89ee,69b960c9d64aca07156b56bc,0.143,0.143,0,84,84,34,1,twoone,,,,,,,,,,,,,,,,,,,,,,,,,,,,,,,,,,,,,,,,,,,,,,,,,,,,,,,,,,,,,,,,,,,,,,,,,,,,,,,,,,,,,,,,,,,,,,,,,,,,,,,,,,,,,,,,,,,,,,,,,,,,,,,,,,,,,,,,,
,,673231ca547cd8ac8dfbffd6,2026-03-17_16h15.15.757,kallum_motion_pilot_GIST_update_2,2026.1.1,Win32,30.12048193,673231ca547cd8ac8dfbffd6,69b95efdef24cd8a694e89ee,69b960c9d64aca07156b56bc,0.1437,0.1437,0,85,85,65,1,onethree,,,,,,,,,,,,,,,,,,,,,,,,,,,,,,,,,,,,,,,,,,,,,,,,,,,,,,,,,,,,,,,,,,,,,,,,,,,,,,,,,,,,,,,,,,,,,,,,,,,,,,,,,,,,,,,,,,,,,,,,,,,,,,,,,,,,,,,,,
,,673231ca547cd8ac8dfbffd6,2026-03-17_16h15.15.757,kallum_motion_pilot_GIST_update_2,2026.1.1,Win32,30.12048193,673231ca547cd8ac8dfbffd6,69b95efdef24cd8a694e89ee,69b960c9d64aca07156b56bc,0.1441,0.1445,0,86,86,145,1,fiveseven,,,,,,,,,,,,,,,,,,,,,,,,,,,,,,,,,,,,,,,,,,,,,,,,,,,,,,,,,,,,,,,,,,,,,,,,,,,,,,,,,,,,,,,,,,,,,,,,,,,,,,,,,,,,,,,,,,,,,,,,,,,,,,,,,,,,,,,,,
,,673231ca547cd8ac8dfbffd6,2026-03-17_16h15.15.757,kallum_motion_pilot_GIST_update_2,2026.1.1,Win32,30.12048193,673231ca547cd8ac8dfbffd6,69b95efdef24cd8a694e89ee,69b960c9d64aca07156b56bc,0.1453,0.1453,0,87,87,153,1,fiveseven,,,,,,,,,,,,,,,,,,,,,,,,,,,,,,,,,,,,,,,,,,,,,,,,,,,,,,,,,,,,,,,,,,,,,,,,,,,,,,,,,,,,,,,,,,,,,,,,,,,,,,,,,,,,,,,,,,,,,,,,,,,,,,,,,,,,,,,,,
,,673231ca547cd8ac8dfbffd6,2026-03-17_16h15.15.757,kallum_motion_pilot_GIST_update_2,2026.1.1,Win32,30.12048193,673231ca547cd8ac8dfbffd6,69b95efdef24cd8a694e89ee,69b960c9d64aca07156b56bc,0.1458,0.1458,0,88,88,161,1,fiveseven,,,,,,,,,,,,,,,,,,,,,,,,,,,,,,,,,,,,,,,,,,,,,,,,,,,,,,,,,,,,,,,,,,,,,,,,,,,,,,,,,,,,,,,,,,,,,,,,,,,,,,,,,,,,,,,,,,,,,,,,,,,,,,,,,,,,,,,,,
,,673231ca547cd8ac8dfbffd6,2026-03-17_16h15.15.757,kallum_motion_pilot_GIST_update_2,2026.1.1,Win32,30.12048193,673231ca547cd8ac8dfbffd6,69b95efdef24cd8a694e89ee,69b960c9d64aca07156b56bc,0.1464,0.1464,0,89,89,110,1,eightsix,,,,,,,,,,,,,,,,,,,,,,,,,,,,,,,,,,,,,,,,,,,,,,,,,,,,,,,,,,,,,,,,,,,,,,,,,,,,,,,,,,,,,,,,,,,,,,,,,,,,,,,,,,,,,,,,,,,,,,,,,,,,,,,,,,,,,,,,,
,,673231ca547cd8ac8dfbffd6,2026-03-17_16h15.15.757,kallum_motion_pilot_GIST_update_2,2026.1.1,Win32,30.12048193,673231ca547cd8ac8dfbffd6,69b95efdef24cd8a694e89ee,69b960c9d64aca07156b56bc,0.1469,0.147,0,90,90,3,1,twofour,,,,,,,,,,,,,,,,,,,,,,,,,,,,,,,,,,,,,,,,,,,,,,,,,,,,,,,,,,,,,,,,,,,,,,,,,,,,,,,,,,,,,,,,,,,,,,,,,,,,,,,,,,,,,,,,,,,,,,,,,,,,,,,,,,,,,,,,,
,,673231ca547cd8ac8dfbffd6,2026-03-17_16h15.15.757,kallum_motion_pilot_GIST_update_2,2026.1.1,Win32,30.12048193,673231ca547cd8ac8dfbffd6,69b95efdef24cd8a694e89ee,69b960c9d64aca07156b56bc,0.1482,0.1483,0,91,91,48,1,onetwo,,,,,,,,,,,,,,,,,,,,,,,,,,,,,,,,,,,,,,,,,,,,,,,,,,,,,,,,,,,,,,,,,,,,,,,,,,,,,,,,,,,,,,,,,,,,,,,,,,,,,,,,,,,,,,,,,,,,,,,,,,,,,,,,,,,,,,,,,
,,673231ca547cd8ac8dfbffd6,2026-03-17_16h15.15.757,kallum_motion_pilot_GIST_update_2,2026.1.1,Win32,30.12048193,673231ca547cd8ac8dfbffd6,69b95efdef24cd8a694e89ee,69b960c9d64aca07156b56bc,0.1489,0.149,0,92,92,126,1,eightsix,,,,,,,,,,,,,,,,,,,,,,,,,,,,,,,,,,,,,,,,,,,,,,,,,,,,,,,,,,,,,,,,,,,,,,,,,,,,,,,,,,,,,,,,,,,,,,,,,,,,,,,,,,,,,,,,,,,,,,,,,,,,,,,,,,,,,,,,,
,,673231ca547cd8ac8dfbffd6,2026-03-17_16h15.15.757,kallum_motion_pilot_GIST_update_2,2026.1.1,Win32,30.12048193,673231ca547cd8ac8dfbffd6,69b95efdef24cd8a694e89ee,69b960c9d64aca07156b56bc,0.1494,0.1495,0,93,93,9,1,onethree,,,,,,,,,,,,,,,,,,,,,,,,,,,,,,,,,,,,,,,,,,,,,,,,,,,,,,,,,,,,,,,,,,,,,,,,,,,,,,,,,,,,,,,,,,,,,,,,,,,,,,,,,,,,,,,,,,,,,,,,,,,,,,,,,,,,,,,,,
,,673231ca547cd8ac8dfbffd6,2026-03-17_16h15.15.757,kallum_motion_pilot_GIST_update_2,2026.1.1,Win32,30.12048193,673231ca547cd8ac8dfbffd6,69b95efdef24cd8a694e89ee,69b960c9d64aca07156b56bc,0.15,0.15,0,94,94,144,1,fivesix,,,,,,,,,,,,,,,,,,,,,,,,,,,,,,,,,,,,,,,,,,,,,,,,,,,,,,,,,,,,,,,,,,,,,,,,,,,,,,,,,,,,,,,,,,,,,,,,,,,,,,,,,,,,,,,,,,,,,,,,,,,,,,,,,,,,,,,,,
,,673231ca547cd8ac8dfbffd6,2026-03-17_16h15.15.757,kallum_motion_pilot_GIST_update_2,2026.1.1,Win32,30.12048193,673231ca547cd8ac8dfbffd6,69b95efdef24cd8a694e89ee,69b960c9d64aca07156b56bc,0.1506,0.1506,0,95,95,20,1,threeone,,,,,,,,,,,,,,,,,,,,,,,,,,,,,,,,,,,,,,,,,,,,,,,,,,,,,,,,,,,,,,,,,,,,,,,,,,,,,,,,,,,,,,,,,,,,,,,,,,,,,,,,,,,,,,,,,,,,,,,,,,,,,,,,,,,,,,,,,
,,673231ca547cd8ac8dfbffd6,2026-03-17_16h15.15.757,kallum_motion_pilot_GIST_update_2,2026.1.1,Win32,30.12048193,673231ca547cd8ac8dfbffd6,69b95efdef24cd8a694e89ee,69b960c9d64aca07156b56bc,0.151,0.151,0,96,96,50,1,twoone,,,,,,,,,,,,,,,,,,,,,,,,,,,,,,,,,,,,,,,,,,,,,,,,,,,,,,,,,,,,,,,,,,,,,,,,,,,,,,,,,,,,,,,,,,,,,,,,,,,,,,,,,,,,,,,,,,,,,,,,,,,,,,,,,,,,,,,,,
,,673231ca547cd8ac8dfbffd6,2026-03-17_16h15.15.757,kallum_motion_pilot_GIST_update_2,2026.1.1,Win32,30.12048193,673231ca547cd8ac8dfbffd6,69b95efdef24cd8a694e89ee,69b960c9d64aca07156b56bc,0.1515,0.1515,0,97,97,30,1,fourtwo,,,,,,,,,,,,,,,,,,,,,,,,,,,,,,,,,,,,,,,,,,,,,,,,,,,,,,,,,,,,,,,,,,,,,,,,,,,,,,,,,,,,,,,,,,,,,,,,,,,,,,,,,,,,,,,,,,,,,,,,,,,,,,,,,,,,,,,,,
,,673231ca547cd8ac8dfbffd6,2026-03-17_16h15.15.757,kallum_motion_pilot_GIST_update_2,2026.1.1,Win32,30.12048193,673231ca547cd8ac8dfbffd6,69b95efdef24cd8a694e89ee,69b960c9d64aca07156b56bc,0.152,0.1521,0,98,98,86,1,eightsix,,,,,,,,,,,,,,,,,,,,,,,,,,,,,,,,,,,,,,,,,,,,,,,,,,,,,,,,,,,,,,,,,,,,,,,,,,,,,,,,,,,,,,,,,,,,,,,,,,,,,,,,,,,,,,,,,,,,,,,,,,,,,,,,,,,,,,,,,
,,673231ca547cd8ac8dfbffd6,2026-03-17_16h15.15.757,kallum_motion_pilot_GIST_update_2,2026.1.1,Win32,30.12048193,673231ca547cd8ac8dfbffd6,69b95efdef24cd8a694e89ee,69b960c9d64aca07156b56bc,0.1526,0.1527,0,99,99,39,1,fourthree,,,,,,,,,,,,,,,,,,,,,,,,,,,,,,,,,,,,,,,,,,,,,,,,,,,,,,,,,,,,,,,,,,,,,,,,,,,,,,,,,,,,,,,,,,,,,,,,,,,,,,,,,,,,,,,,,,,,,,,,,,,,,,,,,,,,,,,,,
,,673231ca547cd8ac8dfbffd6,2026-03-17_16h15.15.757,kallum_motion_pilot_GIST_update_2,2026.1.1,Win32,30.12048193,673231ca547cd8ac8dfbffd6,69b95efdef24cd8a694e89ee,69b960c9d64aca07156b56bc,0.1531,0.1531,0,100,100,79,1,eightseven,,,,,,,,,,,,,,,,,,,,,,,,,,,,,,,,,,,,,,,,,,,,,,,,,,,,,,,,,,,,,,,,,,,,,,,,,,,,,,,,,,,,,,,,,,,,,,,,,,,,,,,,,,,,,,,,,,,,,,,,,,,,,,,,,,,,,,,,,
,,673231ca547cd8ac8dfbffd6,2026-03-17_16h15.15.757,kallum_motion_pilot_GIST_update_2,2026.1.1,Win32,30.12048193,673231ca547cd8ac8dfbffd6,69b95efdef24cd8a694e89ee,69b960c9d64aca07156b56bc,0.1537,0.1537,0,101,101,63,1,fourthree,,,,,,,,,,,,,,,,,,,,,,,,,,,,,,,,,,,,,,,,,,,,,,,,,,,,,,,,,,,,,,,,,,,,,,,,,,,,,,,,,,,,,,,,,,,,,,,,,,,,,,,,,,,,,,,,,,,,,,,,,,,,,,,,,,,,,,,,,
,,673231ca547cd8ac8dfbffd6,2026-03-17_16h15.15.757,kallum_motion_pilot_GIST_update_2,2026.1.1,Win32,30.12048193,673231ca547cd8ac8dfbffd6,69b95efdef24cd8a694e89ee,69b960c9d64aca07156b56bc,0.1571,0.1572,0,102,102,97,1,fiveseven,,,,,,,,,,,,,,,,,,,,,,,,,,,,,,,,,,,,,,,,,,,,,,,,,,,,,,,,,,,,,,,,,,,,,,,,,,,,,,,,,,,,,,,,,,,,,,,,,,,,,,,,,,,,,,,,,,,,,,,,,,,,,,,,,,,,,,,,,
,,673231ca547cd8ac8dfbffd6,2026-03-17_16h15.15.757,kallum_motion_pilot_GIST_update_2,2026.1.1,Win32,30.12048193,673231ca547cd8ac8dfbffd6,69b95efdef24cd8a694e89ee,69b960c9d64aca07156b56bc,0.1582,0.1582,0,103,103,129,1,fiveseven,,,,,,,,,,,,,,,,,,,,,,,,,,,,,,,,,,,,,,,,,,,,,,,,,,,,,,,,,,,,,,,,,,,,,,,,,,,,,,,,,,,,,,,,,,,,,,,,,,,,,,,,,,,,,,,,,,,,,,,,,,,,,,,,,,,,,,,,,
,,673231ca547cd8ac8dfbffd6,2026-03-17_16h15.15.757,kallum_motion_pilot_GIST_update_2,2026.1.1,Win32,30.12048193,673231ca547cd8ac8dfbffd6,69b95efdef24cd8a694e89ee,69b960c9d64aca07156b56bc,0.1593,0.1594,0,104,104,62,1,fourtwo,,,,,,,,,,,,,,,,,,,,,,,,,,,,,,,,,,,,,,,,,,,,,,,,,,,,,,,,,,,,,,,,,,,,,,,,,,,,,,,,,,,,,,,,,,,,,,,,,,,,,,,,,,,,,,,,,,,,,,,,,,,,,,,,,,,,,,,,,
,,673231ca547cd8ac8dfbffd6,2026-03-17_16h15.15.757,kallum_motion_pilot_GIST_update_2,2026.1.1,Win32,30.12048193,673231ca547cd8ac8dfbffd6,69b95efdef24cd8a694e89ee,69b960c9d64aca07156b56bc,0.1605,0.1606,0,105,105,73,1,onethree,,,,,,,,,,,,,,,,,,,,,,,,,,,,,,,,,,,,,,,,,,,,,,,,,,,,,,,,,,,,,,,,,,,,,,,,,,,,,,,,,,,,,,,,,,,,,,,,,,,,,,,,,,,,,,,,,,,,,,,,,,,,,,,,,,,,,,,,,
,,673231ca547cd8ac8dfbffd6,2026-03-17_16h15.15.757,kallum_motion_pilot_GIST_update_2,2026.1.1,Win32,30.12048193,673231ca547cd8ac8dfbffd6,69b95efdef24cd8a694e89ee,69b960c9d64aca07156b56bc,0.1615,0.1615,0,106,106,131,1,sixeight,,,,,,,,,,,,,,,,,,,,,,,,,,,,,,,,,,,,,,,,,,,,,,,,,,,,,,,,,,,,,,,,,,,,,,,,,,,,,,,,,,,,,,,,,,,,,,,,,,,,,,,,,,,,,,,,,,,,,,,,,,,,,,,,,,,,,,,,,
,,673231ca547cd8ac8dfbffd6,2026-03-17_16h15.15.757,kallum_motion_pilot_GIST_update_2,2026.1.1,Win32,30.12048193,673231ca547cd8ac8dfbffd6,69b95efdef24cd8a694e89ee,69b960c9d64aca07156b56bc,0.1622,0.1622,0,107,107,116,1,sevenfive,,,,,,,,,,,,,,,,,,,,,,,,,,,,,,,,,,,,,,,,,,,,,,,,,,,,,,,,,,,,,,,,,,,,,,,,,,,,,,,,,,,,,,,,,,,,,,,,,,,,,,,,,,,,,,,,,,,,,,,,,,,,,,,,,,,,,,,,,
,,673231ca547cd8ac8dfbffd6,2026-03-17_16h15.15.757,kallum_motion_pilot_GIST_update_2,2026.1.1,Win32,30.12048193,673231ca547cd8ac8dfbffd6,69b95efdef24cd8a694e89ee,69b960c9d64aca07156b56bc,0.163,0.1654,0,108,108,151,1,eightseven,,,,,,,,,,,,,,,,,,,,,,,,,,,,,,,,,,,,,,,,,,,,,,,,,,,,,,,,,,,,,,,,,,,,,,,,,,,,,,,,,,,,,,,,,,,,,,,,,,,,,,,,,,,,,,,,,,,,,,,,,,,,,,,,,,,,,,,,,
,,673231ca547cd8ac8dfbffd6,2026-03-17_16h15.15.757,kallum_motion_pilot_GIST_update_2,2026.1.1,Win32,30.12048193,673231ca547cd8ac8dfbffd6,69b95efdef24cd8a694e89ee,69b960c9d64aca07156b56bc,0.1669,0.1669,0,109,109,1,1,onethree,,,,,,,,,,,,,,,,,,,,,,,,,,,,,,,,,,,,,,,,,,,,,,,,,,,,,,,,,,,,,,,,,,,,,,,,,,,,,,,,,,,,,,,,,,,,,,,,,,,,,,,,,,,,,,,,,,,,,,,,,,,,,,,,,,,,,,,,,
,,673231ca547cd8ac8dfbffd6,2026-03-17_16h15.15.757,kallum_motion_pilot_GIST_update_2,2026.1.1,Win32,30.12048193,673231ca547cd8ac8dfbffd6,69b95efdef24cd8a694e89ee,69b960c9d64aca07156b56bc,0.1677,0.1677,0,110,110,156,1,sevenfive,,,,,,,,,,,,,,,,,,,,,,,,,,,,,,,,,,,,,,,,,,,,,,,,,,,,,,,,,,,,,,,,,,,,,,,,,,,,,,,,,,,,,,,,,,,,,,,,,,,,,,,,,,,,,,,,,,,,,,,,,,,,,,,,,,,,,,,,,
,,673231ca547cd8ac8dfbffd6,2026-03-17_16h15.15.757,kallum_motion_pilot_GIST_update_2,2026.1.1,Win32,30.12048193,673231ca547cd8ac8dfbffd6,69b95efdef24cd8a694e89ee,69b960c9d64aca07156b56bc,0.1685,0.1685,0,111,111,148,1,sevenfive,,,,,,,,,,,,,,,,,,,,,,,,,,,,,,,,,,,,,,,,,,,,,,,,,,,,,,,,,,,,,,,,,,,,,,,,,,,,,,,,,,,,,,,,,,,,,,,,,,,,,,,,,,,,,,,,,,,,,,,,,,,,,,,,,,,,,,,,,
,,673231ca547cd8ac8dfbffd6,2026-03-17_16h15.15.757,kallum_motion_pilot_GIST_update_2,2026.1.1,Win32,30.12048193,673231ca547cd8ac8dfbffd6,69b95efdef24cd8a694e89ee,69b960c9d64aca07156b56bc,0.1692,0.1693,0,112,112,51,1,twofour,,,,,,,,,,,,,,,,,,,,,,,,,,,,,,,,,,,,,,,,,,,,,,,,,,,,,,,,,,,,,,,,,,,,,,,,,,,,,,,,,,,,,,,,,,,,,,,,,,,,,,,,,,,,,,,,,,,,,,,,,,,,,,,,,,,,,,,,,
,,673231ca547cd8ac8dfbffd6,2026-03-17_16h15.15.757,kallum_motion_pilot_GIST_update_2,2026.1.1,Win32,30.12048193,673231ca547cd8ac8dfbffd6,69b95efdef24cd8a694e89ee,69b960c9d64aca07156b56bc,0.17,0.17,0,113,113,119,1,eightseven,,,,,,,,,,,,,,,,,,,,,,,,,,,,,,,,,,,,,,,,,,,,,,,,,,,,,,,,,,,,,,,,,,,,,,,,,,,,,,,,,,,,,,,,,,,,,,,,,,,,,,,,,,,,,,,,,,,,,,,,,,,,,,,,,,,,,,,,,
,,673231ca547cd8ac8dfbffd6,2026-03-17_16h15.15.757,kallum_motion_pilot_GIST_update_2,2026.1.1,Win32,30.12048193,673231ca547cd8ac8dfbffd6,69b95efdef24cd8a694e89ee,69b960c9d64aca07156b56bc,0.1705,0.1705,0,114,114,96,1,fivesix,,,,,,,,,,,,,,,,,,,,,,,,,,,,,,,,,,,,,,,,,,,,,,,,,,,,,,,,,,,,,,,,,,,,,,,,,,,,,,,,,,,,,,,,,,,,,,,,,,,,,,,,,,,,,,,,,,,,,,,,,,,,,,,,,,,,,,,,,
,,673231ca547cd8ac8dfbffd6,2026-03-17_16h15.15.757,kallum_motion_pilot_GIST_update_2,2026.1.1,Win32,30.12048193,673231ca547cd8ac8dfbffd6,69b95efdef24cd8a694e89ee,69b960c9d64aca07156b56bc,0.1771,0.1771,0,115,115,80,1,fivesix,,,,,,,,,,,,,,,,,,,,,,,,,,,,,,,,,,,,,,,,,,,,,,,,,,,,,,,,,,,,,,,,,,,,,,,,,,,,,,,,,,,,,,,,,,,,,,,,,,,,,,,,,,,,,,,,,,,,,,,,,,,,,,,,,,,,,,,,,
,,673231ca547cd8ac8dfbffd6,2026-03-17_16h15.15.757,kallum_motion_pilot_GIST_update_2,2026.1.1,Win32,30.12048193,673231ca547cd8ac8dfbffd6,69b95efdef24cd8a694e89ee,69b960c9d64aca07156b56bc,0.1781,0.1781,0,116,116,87,1,eightseven,,,,,,,,,,,,,,,,,,,,,,,,,,,,,,,,,,,,,,,,,,,,,,,,,,,,,,,,,,,,,,,,,,,,,,,,,,,,,,,,,,,,,,,,,,,,,,,,,,,,,,,,,,,,,,,,,,,,,,,,,,,,,,,,,,,,,,,,,
,,673231ca547cd8ac8dfbffd6,2026-03-17_16h15.15.757,kallum_motion_pilot_GIST_update_2,2026.1.1,Win32,30.12048193,673231ca547cd8ac8dfbffd6,69b95efdef24cd8a694e89ee,69b960c9d64aca07156b56bc,0.1788,0.1788,0,117,117,68,1,threeone,,,,,,,,,,,,,,,,,,,,,,,,,,,,,,,,,,,,,,,,,,,,,,,,,,,,,,,,,,,,,,,,,,,,,,,,,,,,,,,,,,,,,,,,,,,,,,,,,,,,,,,,,,,,,,,,,,,,,,,,,,,,,,,,,,,,,,,,,
,,673231ca547cd8ac8dfbffd6,2026-03-17_16h15.15.757,kallum_motion_pilot_GIST_update_2,2026.1.1,Win32,30.12048193,673231ca547cd8ac8dfbffd6,69b95efdef24cd8a694e89ee,69b960c9d64aca07156b56bc,0.1794,0.1794,0,118,118,4,1,threeone,,,,,,,,,,,,,,,,,,,,,,,,,,,,,,,,,,,,,,,,,,,,,,,,,,,,,,,,,,,,,,,,,,,,,,,,,,,,,,,,,,,,,,,,,,,,,,,,,,,,,,,,,,,,,,,,,,,,,,,,,,,,,,,,,,,,,,,,,
,,673231ca547cd8ac8dfbffd6,2026-03-17_16h15.15.757,kallum_motion_pilot_GIST_update_2,2026.1.1,Win32,30.12048193,673231ca547cd8ac8dfbffd6,69b95efdef24cd8a694e89ee,69b960c9d64aca07156b56bc,0.1805,0.1805,0,119,119,33,1,onethree,,,,,,,,,,,,,,,,,,,,,,,,,,,,,,,,,,,,,,,,,,,,,,,,,,,,,,,,,,,,,,,,,,,,,,,,,,,,,,,,,,,,,,,,,,,,,,,,,,,,,,,,,,,,,,,,,,,,,,,,,,,,,,,,,,,,,,,,,
,,673231ca547cd8ac8dfbffd6,2026-03-17_16h15.15.757,kallum_motion_pilot_GIST_update_2,2026.1.1,Win32,30.12048193,673231ca547cd8ac8dfbffd6,69b95efdef24cd8a694e89ee,69b960c9d64aca07156b56bc,0.1811,0.1811,0,120,120,28,1,threeone,,,,,,,,,,,,,,,,,,,,,,,,,,,,,,,,,,,,,,,,,,,,,,,,,,,,,,,,,,,,,,,,,,,,,,,,,,,,,,,,,,,,,,,,,,,,,,,,,,,,,,,,,,,,,,,,,,,,,,,,,,,,,,,,,,,,,,,,,
,,673231ca547cd8ac8dfbffd6,2026-03-17_16h15.15.757,kallum_motion_pilot_GIST_update_2,2026.1.1,Win32,30.12048193,673231ca547cd8ac8dfbffd6,69b95efdef24cd8a694e89ee,69b960c9d64aca07156b56bc,0.1816,0.1817,0,121,121,40,1,onetwo,,,,,,,,,,,,,,,,,,,,,,,,,,,,,,,,,,,,,,,,,,,,,,,,,,,,,,,,,,,,,,,,,,,,,,,,,,,,,,,,,,,,,,,,,,,,,,,,,,,,,,,,,,,,,,,,,,,,,,,,,,,,,,,,,,,,,,,,,
,,673231ca547cd8ac8dfbffd6,2026-03-17_16h15.15.757,kallum_motion_pilot_GIST_update_2,2026.1.1,Win32,30.12048193,673231ca547cd8ac8dfbffd6,69b95efdef24cd8a694e89ee,69b960c9d64aca07156b56bc,0.1821,0.1822,0,122,122,140,1,sevenfive,,,,,,,,,,,,,,,,,,,,,,,,,,,,,,,,,,,,,,,,,,,,,,,,,,,,,,,,,,,,,,,,,,,,,,,,,,,,,,,,,,,,,,,,,,,,,,,,,,,,,,,,,,,,,,,,,,,,,,,,,,,,,,,,,,,,,,,,,
,,673231ca547cd8ac8dfbffd6,2026-03-17_16h15.15.757,kallum_motion_pilot_GIST_update_2,2026.1.1,Win32,30.12048193,673231ca547cd8ac8dfbffd6,69b95efdef24cd8a694e89ee,69b960c9d64aca07156b56bc,0.1826,0.1827,0,123,123,41,1,onethree,,,,,,,,,,,,,,,,,,,,,,,,,,,,,,,,,,,,,,,,,,,,,,,,,,,,,,,,,,,,,,,,,,,,,,,,,,,,,,,,,,,,,,,,,,,,,,,,,,,,,,,,,,,,,,,,,,,,,,,,,,,,,,,,,,,,,,,,,
,,673231ca547cd8ac8dfbffd6,2026-03-17_16h15.15.757,kallum_motion_pilot_GIST_update_2,2026.1.1,Win32,30.12048193,673231ca547cd8ac8dfbffd6,69b95efdef24cd8a694e89ee,69b960c9d64aca07156b56bc,0.1831,0.1831,0,124,124,157,1,seveneight,,,,,,,,,,,,,,,,,,,,,,,,,,,,,,,,,,,,,,,,,,,,,,,,,,,,,,,,,,,,,,,,,,,,,,,,,,,,,,,,,,,,,,,,,,,,,,,,,,,,,,,,,,,,,,,,,,,,,,,,,,,,,,,,,,,,,,,,,
,,673231ca547cd8ac8dfbffd6,2026-03-17_16h15.15.757,kallum_motion_pilot_GIST_update_2,2026.1.1,Win32,30.12048193,673231ca547cd8ac8dfbffd6,69b95efdef24cd8a694e89ee,69b960c9d64aca07156b56bc,0.1837,0.1837,0,125,125,37,1,threefour,,,,,,,,,,,,,,,,,,,,,,,,,,,,,,,,,,,,,,,,,,,,,,,,,,,,,,,,,,,,,,,,,,,,,,,,,,,,,,,,,,,,,,,,,,,,,,,,,,,,,,,,,,,,,,,,,,,,,,,,,,,,,,,,,,,,,,,,,
,,673231ca547cd8ac8dfbffd6,2026-03-17_16h15.15.757,kallum_motion_pilot_GIST_update_2,2026.1.1,Win32,30.12048193,673231ca547cd8ac8dfbffd6,69b95efdef24cd8a694e89ee,69b960c9d64aca07156b56bc,0.1846,0.1847,0,126,126,114,1,sixfive,,,,,,,,,,,,,,,,,,,,,,,,,,,,,,,,,,,,,,,,,,,,,,,,,,,,,,,,,,,,,,,,,,,,,,,,,,,,,,,,,,,,,,,,,,,,,,,,,,,,,,,,,,,,,,,,,,,,,,,,,,,,,,,,,,,,,,,,,
,,673231ca547cd8ac8dfbffd6,2026-03-17_16h15.15.757,kallum_motion_pilot_GIST_update_2,2026.1.1,Win32,30.12048193,673231ca547cd8ac8dfbffd6,69b95efdef24cd8a694e89ee,69b960c9d64aca07156b56bc,0.1853,0.1854,0,127,127,158,1,eightsix,,,,,,,,,,,,,,,,,,,,,,,,,,,,,,,,,,,,,,,,,,,,,,,,,,,,,,,,,,,,,,,,,,,,,,,,,,,,,,,,,,,,,,,,,,,,,,,,,,,,,,,,,,,,,,,,,,,,,,,,,,,,,,,,,,,,,,,,,
,,673231ca547cd8ac8dfbffd6,2026-03-17_16h15.15.757,kallum_motion_pilot_GIST_update_2,2026.1.1,Win32,30.12048193,673231ca547cd8ac8dfbffd6,69b95efdef24cd8a694e89ee,69b960c9d64aca07156b56bc,0.1861,0.1862,0,128,128,25,1,onethree,,,,,,,,,,,,,,,,,,,,,,,,,,,,,,,,,,,,,,,,,,,,,,,,,,,,,,,,,,,,,,,,,,,,,,,,,,,,,,,,,,,,,,,,,,,,,,,,,,,,,,,,,,,,,,,,,,,,,,,,,,,,,,,,,,,,,,,,,
,,673231ca547cd8ac8dfbffd6,2026-03-17_16h15.15.757,kallum_motion_pilot_GIST_update_2,2026.1.1,Win32,30.12048193,673231ca547cd8ac8dfbffd6,69b95efdef24cd8a694e89ee,69b960c9d64aca07156b56bc,0.1869,0.187,0,129,129,53,1,threefour,,,,,,,,,,,,,,,,,,,,,,,,,,,,,,,,,,,,,,,,,,,,,,,,,,,,,,,,,,,,,,,,,,,,,,,,,,,,,,,,,,,,,,,,,,,,,,,,,,,,,,,,,,,,,,,,,,,,,,,,,,,,,,,,,,,,,,,,,
,,673231ca547cd8ac8dfbffd6,2026-03-17_16h15.15.757,kallum_motion_pilot_GIST_update_2,2026.1.1,Win32,30.12048193,673231ca547cd8ac8dfbffd6,69b95efdef24cd8a694e89ee,69b960c9d64aca07156b56bc,0.189,0.189,0,130,130,150,1,eightsix,,,,,,,,,,,,,,,,,,,,,,,,,,,,,,,,,,,,,,,,,,,,,,,,,,,,,,,,,,,,,,,,,,,,,,,,,,,,,,,,,,,,,,,,,,,,,,,,,,,,,,,,,,,,,,,,,,,,,,,,,,,,,,,,,,,,,,,,,
,,673231ca547cd8ac8dfbffd6,2026-03-17_16h15.15.757,kallum_motion_pilot_GIST_update_2,2026.1.1,Win32,30.12048193,673231ca547cd8ac8dfbffd6,69b95efdef24cd8a694e89ee,69b960c9d64aca07156b56bc,0.1903,0.1904,0,131,131,59,1,twofour,,,,,,,,,,,,,,,,,,,,,,,,,,,,,,,,,,,,,,,,,,,,,,,,,,,,,,,,,,,,,,,,,,,,,,,,,,,,,,,,,,,,,,,,,,,,,,,,,,,,,,,,,,,,,,,,,,,,,,,,,,,,,,,,,,,,,,,,,
,,673231ca547cd8ac8dfbffd6,2026-03-17_16h15.15.757,kallum_motion_pilot_GIST_update_2,2026.1.1,Win32,30.12048193,673231ca547cd8ac8dfbffd6,69b95efdef24cd8a694e89ee,69b960c9d64aca07156b56bc,0.1912,0.1912,0,132,132,111,1,eightseven,,,,,,,,,,,,,,,,,,,,,,,,,,,,,,,,,,,,,,,,,,,,,,,,,,,,,,,,,,,,,,,,,,,,,,,,,,,,,,,,,,,,,,,,,,,,,,,,,,,,,,,,,,,,,,,,,,,,,,,,,,,,,,,,,,,,,,,,,
,,673231ca547cd8ac8dfbffd6,2026-03-17_16h15.15.757,kallum_motion_pilot_GIST_update_2,2026.1.1,Win32,30.12048193,673231ca547cd8ac8dfbffd6,69b95efdef24cd8a694e89ee,69b960c9d64aca07156b56bc,0.1924,0.1924,0,133,133,78,1,fourtwo,,,,,,,,,,,,,,,,,,,,,,,,,,,,,,,,,,,,,,,,,,,,,,,,,,,,,,,,,,,,,,,,,,,,,,,,,,,,,,,,,,,,,,,,,,,,,,,,,,,,,,,,,,,,,,,,,,,,,,,,,,,,,,,,,,,,,,,,,
,,673231ca547cd8ac8dfbffd6,2026-03-17_16h15.15.757,kallum_motion_pilot_GIST_update_2,2026.1.1,Win32,30.12048193,673231ca547cd8ac8dfbffd6,69b95efdef24cd8a694e89ee,69b960c9d64aca07156b56bc,0.1929,0.1932,0,134,134,12,1,threeone,,,,,,,,,,,,,,,,,,,,,,,,,,,,,,,,,,,,,,,,,,,,,,,,,,,,,,,,,,,,,,,,,,,,,,,,,,,,,,,,,,,,,,,,,,,,,,,,,,,,,,,,,,,,,,,,,,,,,,,,,,,,,,,,,,,,,,,,,
,,673231ca547cd8ac8dfbffd6,2026-03-17_16h15.15.757,kallum_motion_pilot_GIST_update_2,2026.1.1,Win32,30.12048193,673231ca547cd8ac8dfbffd6,69b95efdef24cd8a694e89ee,69b960c9d64aca07156b56bc,0.1944,0.1944,0,135,135,17,1,onethree,,,,,,,,,,,,,,,,,,,,,,,,,,,,,,,,,,,,,,,,,,,,,,,,,,,,,,,,,,,,,,,,,,,,,,,,,,,,,,,,,,,,,,,,,,,,,,,,,,,,,,,,,,,,,,,,,,,,,,,,,,,,,,,,,,,,,,,,,
,,673231ca547cd8ac8dfbffd6,2026-03-17_16h15.15.757,kallum_motion_pilot_GIST_update_2,2026.1.1,Win32,30.12048193,673231ca547cd8ac8dfbffd6,69b95efdef24cd8a694e89ee,69b960c9d64aca07156b56bc,0.1953,0.1953,0,136,136,159,1,eightseven,,,,,,,,,,,,,,,,,,,,,,,,,,,,,,,,,,,,,,,,,,,,,,,,,,,,,,,,,,,,,,,,,,,,,,,,,,,,,,,,,,,,,,,,,,,,,,,,,,,,,,,,,,,,,,,,,,,,,,,,,,,,,,,,,,,,,,,,,
,,673231ca547cd8ac8dfbffd6,2026-03-17_16h15.15.757,kallum_motion_pilot_GIST_update_2,2026.1.1,Win32,30.12048193,673231ca547cd8ac8dfbffd6,69b95efdef24cd8a694e89ee,69b960c9d64aca07156b56bc,0.1958,0.1959,0,137,137,29,1,threefour,,,,,,,,,,,,,,,,,,,,,,,,,,,,,,,,,,,,,,,,,,,,,,,,,,,,,,,,,,,,,,,,,,,,,,,,,,,,,,,,,,,,,,,,,,,,,,,,,,,,,,,,,,,,,,,,,,,,,,,,,,,,,,,,,,,,,,,,,
,,673231ca547cd8ac8dfbffd6,2026-03-17_16h15.15.757,kallum_motion_pilot_GIST_update_2,2026.1.1,Win32,30.12048193,673231ca547cd8ac8dfbffd6,69b95efdef24cd8a694e89ee,69b960c9d64aca07156b56bc,0.1963,0.1964,0,138,138,120,1,fivesix,,,,,,,,,,,,,,,,,,,,,,,,,,,,,,,,,,,,,,,,,,,,,,,,,,,,,,,,,,,,,,,,,,,,,,,,,,,,,,,,,,,,,,,,,,,,,,,,,,,,,,,,,,,,,,,,,,,,,,,,,,,,,,,,,,,,,,,,,
,,673231ca547cd8ac8dfbffd6,2026-03-17_16h15.15.757,kallum_motion_pilot_GIST_update_2,2026.1.1,Win32,30.12048193,673231ca547cd8ac8dfbffd6,69b95efdef24cd8a694e89ee,69b960c9d64aca07156b56bc,0.1968,0.1968,0,139,139,61,1,threefour,,,,,,,,,,,,,,,,,,,,,,,,,,,,,,,,,,,,,,,,,,,,,,,,,,,,,,,,,,,,,,,,,,,,,,,,,,,,,,,,,,,,,,,,,,,,,,,,,,,,,,,,,,,,,,,,,,,,,,,,,,,,,,,,,,,,,,,,,
,,673231ca547cd8ac8dfbffd6,2026-03-17_16h15.15.757,kallum_motion_pilot_GIST_update_2,2026.1.1,Win32,30.12048193,673231ca547cd8ac8dfbffd6,69b95efdef24cd8a694e89ee,69b960c9d64aca07156b56bc,0.1973,0.1974,0,140,140,23,1,fourthree,,,,,,,,,,,,,,,,,,,,,,,,,,,,,,,,,,,,,,,,,,,,,,,,,,,,,,,,,,,,,,,,,,,,,,,,,,,,,,,,,,,,,,,,,,,,,,,,,,,,,,,,,,,,,,,,,,,,,,,,,,,,,,,,,,,,,,,,,
,,673231ca547cd8ac8dfbffd6,2026-03-17_16h15.15.757,kallum_motion_pilot_GIST_update_2,2026.1.1,Win32,30.12048193,673231ca547cd8ac8dfbffd6,69b95efdef24cd8a694e89ee,69b960c9d64aca07156b56bc,0.1978,0.1979,0,141,141,52,1,threeone,,,,,,,,,,,,,,,,,,,,,,,,,,,,,,,,,,,,,,,,,,,,,,,,,,,,,,,,,,,,,,,,,,,,,,,,,,,,,,,,,,,,,,,,,,,,,,,,,,,,,,,,,,,,,,,,,,,,,,,,,,,,,,,,,,,,,,,,,
,,673231ca547cd8ac8dfbffd6,2026-03-17_16h15.15.757,kallum_motion_pilot_GIST_update_2,2026.1.1,Win32,30.12048193,673231ca547cd8ac8dfbffd6,69b95efdef24cd8a694e89ee,69b960c9d64aca07156b56bc,0.2019,0.2019,0,142,142,24,1,onetwo,,,,,,,,,,,,,,,,,,,,,,,,,,,,,,,,,,,,,,,,,,,,,,,,,,,,,,,,,,,,,,,,,,,,,,,,,,,,,,,,,,,,,,,,,,,,,,,,,,,,,,,,,,,,,,,,,,,,,,,,,,,,,,,,,,,,,,,,,
,,673231ca547cd8ac8dfbffd6,2026-03-17_16h15.15.757,kallum_motion_pilot_GIST_update_2,2026.1.1,Win32,30.12048193,673231ca547cd8ac8dfbffd6,69b95efdef24cd8a694e89ee,69b960c9d64aca07156b56bc,0.2023,0.2024,0,143,143,70,1,fourtwo,,,,,,,,,,,,,,,,,,,,,,,,,,,,,,,,,,,,,,,,,,,,,,,,,,,,,,,,,,,,,,,,,,,,,,,,,,,,,,,,,,,,,,,,,,,,,,,,,,,,,,,,,,,,,,,,,,,,,,,,,,,,,,,,,,,,,,,,,
,,673231ca547cd8ac8dfbffd6,2026-03-17_16h15.15.757,kallum_motion_pilot_GIST_update_2,2026.1.1,Win32,30.12048193,673231ca547cd8ac8dfbffd6,69b95efdef24cd8a694e89ee,69b960c9d64aca07156b56bc,0.2028,0.2029,0,144,144,113,1,fiveseven,,,,,,,,,,,,,,,,,,,,,,,,,,,,,,,,,,,,,,,,,,,,,,,,,,,,,,,,,,,,,,,,,,,,,,,,,,,,,,,,,,,,,,,,,,,,,,,,,,,,,,,,,,,,,,,,,,,,,,,,,,,,,,,,,,,,,,,,,
,,673231ca547cd8ac8dfbffd6,2026-03-17_16h15.15.757,kallum_motion_pilot_GIST_update_2,2026.1.1,Win32,30.12048193,673231ca547cd8ac8dfbffd6,69b95efdef24cd8a694e89ee,69b960c9d64aca07156b56bc,0.2092,0.2093,0,145,145,130,1,sixfive,,,,,,,,,,,,,,,,,,,,,,,,,,,,,,,,,,,,,,,,,,,,,,,,,,,,,,,,,,,,,,,,,,,,,,,,,,,,,,,,,,,,,,,,,,,,,,,,,,,,,,,,,,,,,,,,,,,,,,,,,,,,,,,,,,,,,,,,,
,,673231ca547cd8ac8dfbffd6,2026-03-17_16h15.15.757,kallum_motion_pilot_GIST_update_2,2026.1.1,Win32,30.12048193,673231ca547cd8ac8dfbffd6,69b95efdef24cd8a694e89ee,69b960c9d64aca07156b56bc,0.211,0.2111,0,146,146,108,1,sevenfive,,,,,,,,,,,,,,,,,,,,,,,,,,,,,,,,,,,,,,,,,,,,,,,,,,,,,,,,,,,,,,,,,,,,,,,,,,,,,,,,,,,,,,,,,,,,,,,,,,,,,,,,,,,,,,,,,,,,,,,,,,,,,,,,,,,,,,,,,
,,673231ca547cd8ac8dfbffd6,2026-03-17_16h15.15.757,kallum_motion_pilot_GIST_update_2,2026.1.1,Win32,30.12048193,673231ca547cd8ac8dfbffd6,69b95efdef24cd8a694e89ee,69b960c9d64aca07156b56bc,0.2117,0.2117,0,147,147,106,1,sixfive,,,,,,,,,,,,,,,,,,,,,,,,,,,,,,,,,,,,,,,,,,,,,,,,,,,,,,,,,,,,,,,,,,,,,,,,,,,,,,,,,,,,,,,,,,,,,,,,,,,,,,,,,,,,,,,,,,,,,,,,,,,,,,,,,,,,,,,,,
,,673231ca547cd8ac8dfbffd6,2026-03-17_16h15.15.757,kallum_motion_pilot_GIST_update_2,2026.1.1,Win32,30.12048193,673231ca547cd8ac8dfbffd6,69b95efdef24cd8a694e89ee,69b960c9d64aca07156b56bc,0.2123,0.2125,0,148,148,22,1,fourtwo,,,,,,,,,,,,,,,,,,,,,,,,,,,,,,,,,,,,,,,,,,,,,,,,,,,,,,,,,,,,,,,,,,,,,,,,,,,,,,,,,,,,,,,,,,,,,,,,,,,,,,,,,,,,,,,,,,,,,,,,,,,,,,,,,,,,,,,,,
,,673231ca547cd8ac8dfbffd6,2026-03-17_16h15.15.757,kallum_motion_pilot_GIST_update_2,2026.1.1,Win32,30.12048193,673231ca547cd8ac8dfbffd6,69b95efdef24cd8a694e89ee,69b960c9d64aca07156b56bc,0.2131,0.2131,0,149,149,77,1,threefour,,,,,,,,,,,,,,,,,,,,,,,,,,,,,,,,,,,,,,,,,,,,,,,,,,,,,,,,,,,,,,,,,,,,,,,,,,,,,,,,,,,,,,,,,,,,,,,,,,,,,,,,,,,,,,,,,,,,,,,,,,,,,,,,,,,,,,,,,
,,673231ca547cd8ac8dfbffd6,2026-03-17_16h15.15.757,kallum_motion_pilot_GIST_update_2,2026.1.1,Win32,30.12048193,673231ca547cd8ac8dfbffd6,69b95efdef24cd8a694e89ee,69b960c9d64aca07156b56bc,0.2142,0.2143,0,150,150,66,1,twoone,,,,,,,,,,,,,,,,,,,,,,,,,,,,,,,,,,,,,,,,,,,,,,,,,,,,,,,,,,,,,,,,,,,,,,,,,,,,,,,,,,,,,,,,,,,,,,,,,,,,,,,,,,,,,,,,,,,,,,,,,,,,,,,,,,,,,,,,,
,,673231ca547cd8ac8dfbffd6,2026-03-17_16h15.15.757,kallum_motion_pilot_GIST_update_2,2026.1.1,Win32,30.12048193,673231ca547cd8ac8dfbffd6,69b95efdef24cd8a694e89ee,69b960c9d64aca07156b56bc,0.2155,0.2155,0,151,151,138,1,sixfive,,,,,,,,,,,,,,,,,,,,,,,,,,,,,,,,,,,,,,,,,,,,,,,,,,,,,,,,,,,,,,,,,,,,,,,,,,,,,,,,,,,,,,,,,,,,,,,,,,,,,,,,,,,,,,,,,,,,,,,,,,,,,,,,,,,,,,,,,
,,673231ca547cd8ac8dfbffd6,2026-03-17_16h15.15.757,kallum_motion_pilot_GIST_update_2,2026.1.1,Win32,30.12048193,673231ca547cd8ac8dfbffd6,69b95efdef24cd8a694e89ee,69b960c9d64aca07156b56bc,0.2166,0.2166,0,152,152,134,1,eightsix,,,,,,,,,,,,,,,,,,,,,,,,,,,,,,,,,,,,,,,,,,,,,,,,,,,,,,,,,,,,,,,,,,,,,,,,,,,,,,,,,,,,,,,,,,,,,,,,,,,,,,,,,,,,,,,,,,,,,,,,,,,,,,,,,,,,,,,,,
,,673231ca547cd8ac8dfbffd6,2026-03-17_16h15.15.757,kallum_motion_pilot_GIST_update_2,2026.1.1,Win32,30.12048193,673231ca547cd8ac8dfbffd6,69b95efdef24cd8a694e89ee,69b960c9d64aca07156b56bc,0.2177,0.2177,0,153,153,141,1,seveneight,,,,,,,,,,,,,,,,,,,,,,,,,,,,,,,,,,,,,,,,,,,,,,,,,,,,,,,,,,,,,,,,,,,,,,,,,,,,,,,,,,,,,,,,,,,,,,,,,,,,,,,,,,,,,,,,,,,,,,,,,,,,,,,,,,,,,,,,,
,,673231ca547cd8ac8dfbffd6,2026-03-17_16h15.15.757,kallum_motion_pilot_GIST_update_2,2026.1.1,Win32,30.12048193,673231ca547cd8ac8dfbffd6,69b95efdef24cd8a694e89ee,69b960c9d64aca07156b56bc,0.2188,0.2188,0,154,154,18,1,twoone,,,,,,,,,,,,,,,,,,,,,,,,,,,,,,,,,,,,,,,,,,,,,,,,,,,,,,,,,,,,,,,,,,,,,,,,,,,,,,,,,,,,,,,,,,,,,,,,,,,,,,,,,,,,,,,,,,,,,,,,,,,,,,,,,,,,,,,,,
,,673231ca547cd8ac8dfbffd6,2026-03-17_16h15.15.757,kallum_motion_pilot_GIST_update_2,2026.1.1,Win32,30.12048193,673231ca547cd8ac8dfbffd6,69b95efdef24cd8a694e89ee,69b960c9d64aca07156b56bc,0.2202,0.2202,0,155,155,139,1,sixeight,,,,,,,,,,,,,,,,,,,,,,,,,,,,,,,,,,,,,,,,,,,,,,,,,,,,,,,,,,,,,,,,,,,,,,,,,,,,,,,,,,,,,,,,,,,,,,,,,,,,,,,,,,,,,,,,,,,,,,,,,,,,,,,,,,,,,,,,,
,,673231ca547cd8ac8dfbffd6,2026-03-17_16h15.15.757,kallum_motion_pilot_GIST_update_2,2026.1.1,Win32,30.12048193,673231ca547cd8ac8dfbffd6,69b95efdef24cd8a694e89ee,69b960c9d64aca07156b56bc,0.2264,0.2264,0,156,156,82,1,sixfive,,,,,,,,,,,,,,,,,,,,,,,,,,,,,,,,,,,,,,,,,,,,,,,,,,,,,,,,,,,,,,,,,,,,,,,,,,,,,,,,,,,,,,,,,,,,,,,,,,,,,,,,,,,,,,,,,,,,,,,,,,,,,,,,,,,,,,,,,
,,673231ca547cd8ac8dfbffd6,2026-03-17_16h15.15.757,kallum_motion_pilot_GIST_update_2,2026.1.1,Win32,30.12048193,673231ca547cd8ac8dfbffd6,69b95efdef24cd8a694e89ee,69b960c9d64aca07156b56bc,0.2271,0.2272,0,157,157,160,1,fivesix,,,,,,,,,,,,,,,,,,,,,,,,,,,,,,,,,,,,,,,,,,,,,,,,,,,,,,,,,,,,,,,,,,,,,,,,,,,,,,,,,,,,,,,,,,,,,,,,,,,,,,,,,,,,,,,,,,,,,,,,,,,,,,,,,,,,,,,,,
,,673231ca547cd8ac8dfbffd6,2026-03-17_16h15.15.757,kallum_motion_pilot_GIST_update_2,2026.1.1,Win32,30.12048193,673231ca547cd8ac8dfbffd6,69b95efdef24cd8a694e89ee,69b960c9d64aca07156b56bc,0.2279,0.2279,0,158,158,54,1,fourtwo,,,,,,,,,,,,,,,,,,,,,,,,,,,,,,,,,,,,,,,,,,,,,,,,,,,,,,,,,,,,,,,,,,,,,,,,,,,,,,,,,,,,,,,,,,,,,,,,,,,,,,,,,,,,,,,,,,,,,,,,,,,,,,,,,,,,,,,,,
,,673231ca547cd8ac8dfbffd6,2026-03-17_16h15.15.757,kallum_motion_pilot_GIST_update_2,2026.1.1,Win32,30.12048193,673231ca547cd8ac8dfbffd6,69b95efdef24cd8a694e89ee,69b960c9d64aca07156b56bc,0.2285,0.2285,0,159,159,123,1,sixeight,,,,,,,,,,,,,,,,,,,,,,,,,,,,,,,,,,,,,,,,,,,,,,,,,,,,,,,,,,,,,,,,,,,,,,,,,,,,,,,,,,,,,,,,,,,,,,,,,,,,,,,,,,,,,,,,,,,,,,,,,,,,,,,,,,,,,,,,,
,,673231ca547cd8ac8dfbffd6,2026-03-17_16h15.15.757,kallum_motion_pilot_GIST_update_2,2026.1.1,Win32,30.12048193,673231ca547cd8ac8dfbffd6,69b95efdef24cd8a694e89ee,69b960c9d64aca07156b56bc,0.2291,0.2291,0,160,160,85,1,seveneight,,,,,,,,,,,,,,,,,,,,,,,,,,,,,,,,,,,,,,,,,,,,,,,,,,,,,,,,,,,,,,,,,,,,,,,,,,,,,,,,,,,,,,,,,,,,,,,,,,,,,,,,,,,,,,,,,,,,,,,,,,,,,,,,,,,,,,,,,
,,673231ca547cd8ac8dfbffd6,2026-03-17_16h15.15.757,kallum_motion_pilot_GIST_update_2,2026.1.1,Win32,30.12048193,673231ca547cd8ac8dfbffd6,69b95efdef24cd8a694e89ee,69b960c9d64aca07156b56bc,0.2295,0.2295,0,161,161,124,1,sevenfive,,,,,,,,,,,,,,,,,,,,,,,,,,,,,,,,,,,,,,,,,,,,,,,,,,,,,,,,,,,,,,,,,,,,,,,,,,,,,,,,,,,,,,,,,,,,,,,,,,,,,,,,,,,,,,,,,,,,,,,,,,,,,,,,,,,,,,,,,
,,673231ca547cd8ac8dfbffd6,2026-03-17_16h15.15.757,kallum_motion_pilot_GIST_update_2,2026.1.1,Win32,30.12048193,673231ca547cd8ac8dfbffd6,69b95efdef24cd8a694e89ee,69b960c9d64aca07156b56bc,0.2301,0.2301,1,0,162,70,1,fourtwo,,,,,,,,,,,,,,,,,,,,,,,,,,,,,,,,,,,,,,,,,,,,,,,,,,,,,,,,,,,,,,,,,,,,,,,,,,,,,,,,,,,,,,,,,,,,,,,,,,,,,,,,,,,,,,,,,,,,,,,,,,,,,,,,,,,,,,,,,
,,673231ca547cd8ac8dfbffd6,2026-03-17_16h15.15.757,kallum_motion_pilot_GIST_update_2,2026.1.1,Win32,30.12048193,673231ca547cd8ac8dfbffd6,69b95efdef24cd8a694e89ee,69b960c9d64aca07156b56bc,0.2306,0.2306,1,1,163,64,1,onetwo,,,,,,,,,,,,,,,,,,,,,,,,,,,,,,,,,,,,,,,,,,,,,,,,,,,,,,,,,,,,,,,,,,,,,,,,,,,,,,,,,,,,,,,,,,,,,,,,,,,,,,,,,,,,,,,,,,,,,,,,,,,,,,,,,,,,,,,,,
,,673231ca547cd8ac8dfbffd6,2026-03-17_16h15.15.757,kallum_motion_pilot_GIST_update_2,2026.1.1,Win32,30.12048193,673231ca547cd8ac8dfbffd6,69b95efdef24cd8a694e89ee,69b960c9d64aca07156b56bc,0.2312,0.2312,1,2,164,68,1,threeone,,,,,,,,,,,,,,,,,,,,,,,,,,,,,,,,,,,,,,,,,,,,,,,,,,,,,,,,,,,,,,,,,,,,,,,,,,,,,,,,,,,,,,,,,,,,,,,,,,,,,,,,,,,,,,,,,,,,,,,,,,,,,,,,,,,,,,,,,
,,673231ca547cd8ac8dfbffd6,2026-03-17_16h15.15.757,kallum_motion_pilot_GIST_update_2,2026.1.1,Win32,30.12048193,673231ca547cd8ac8dfbffd6,69b95efdef24cd8a694e89ee,69b960c9d64aca07156b56bc,0.2319,0.2319,1,3,165,84,1,sevenfive,,,,,,,,,,,,,,,,,,,,,,,,,,,,,,,,,,,,,,,,,,,,,,,,,,,,,,,,,,,,,,,,,,,,,,,,,,,,,,,,,,,,,,,,,,,,,,,,,,,,,,,,,,,,,,,,,,,,,,,,,,,,,,,,,,,,,,,,,
,,673231ca547cd8ac8dfbffd6,2026-03-17_16h15.15.757,kallum_motion_pilot_GIST_update_2,2026.1.1,Win32,30.12048193,673231ca547cd8ac8dfbffd6,69b95efdef24cd8a694e89ee,69b960c9d64aca07156b56bc,0.2325,0.2325,1,4,166,93,1,seveneight,,,,,,,,,,,,,,,,,,,,,,,,,,,,,,,,,,,,,,,,,,,,,,,,,,,,,,,,,,,,,,,,,,,,,,,,,,,,,,,,,,,,,,,,,,,,,,,,,,,,,,,,,,,,,,,,,,,,,,,,,,,,,,,,,,,,,,,,,
,,673231ca547cd8ac8dfbffd6,2026-03-17_16h15.15.757,kallum_motion_pilot_GIST_update_2,2026.1.1,Win32,30.12048193,673231ca547cd8ac8dfbffd6,69b95efdef24cd8a694e89ee,69b960c9d64aca07156b56bc,0.233,0.2331,1,5,167,119,1,eightseven,,,,,,,,,,,,,,,,,,,,,,,,,,,,,,,,,,,,,,,,,,,,,,,,,,,,,,,,,,,,,,,,,,,,,,,,,,,,,,,,,,,,,,,,,,,,,,,,,,,,,,,,,,,,,,,,,,,,,,,,,,,,,,,,,,,,,,,,,
,,673231ca547cd8ac8dfbffd6,2026-03-17_16h15.15.757,kallum_motion_pilot_GIST_update_2,2026.1.1,Win32,30.12048193,673231ca547cd8ac8dfbffd6,69b95efdef24cd8a694e89ee,69b960c9d64aca07156b56bc,0.234,0.234,1,6,168,59,1,twofour,,,,,,,,,,,,,,,,,,,,,,,,,,,,,,,,,,,,,,,,,,,,,,,,,,,,,,,,,,,,,,,,,,,,,,,,,,,,,,,,,,,,,,,,,,,,,,,,,,,,,,,,,,,,,,,,,,,,,,,,,,,,,,,,,,,,,,,,,
,,673231ca547cd8ac8dfbffd6,2026-03-17_16h15.15.757,kallum_motion_pilot_GIST_update_2,2026.1.1,Win32,30.12048193,673231ca547cd8ac8dfbffd6,69b95efdef24cd8a694e89ee,69b960c9d64aca07156b56bc,0.2349,0.2349,1,7,169,152,1,fivesix,,,,,,,,,,,,,,,,,,,,,,,,,,,,,,,,,,,,,,,,,,,,,,,,,,,,,,,,,,,,,,,,,,,,,,,,,,,,,,,,,,,,,,,,,,,,,,,,,,,,,,,,,,,,,,,,,,,,,,,,,,,,,,,,,,,,,,,,,
,,673231ca547cd8ac8dfbffd6,2026-03-17_16h15.15.757,kallum_motion_pilot_GIST_update_2,2026.1.1,Win32,30.12048193,673231ca547cd8ac8dfbffd6,69b95efdef24cd8a694e89ee,69b960c9d64aca07156b56bc,0.2356,0.2356,1,8,170,20,1,threeone,,,,,,,,,,,,,,,,,,,,,,,,,,,,,,,,,,,,,,,,,,,,,,,,,,,,,,,,,,,,,,,,,,,,,,,,,,,,,,,,,,,,,,,,,,,,,,,,,,,,,,,,,,,,,,,,,,,,,,,,,,,,,,,,,,,,,,,,,
,,673231ca547cd8ac8dfbffd6,2026-03-17_16h15.15.757,kallum_motion_pilot_GIST_update_2,2026.1.1,Win32,30.12048193,673231ca547cd8ac8dfbffd6,69b95efdef24cd8a694e89ee,69b960c9d64aca07156b56bc,0.2362,0.2362,1,9,171,81,1,fiveseven,,,,,,,,,,,,,,,,,,,,,,,,,,,,,,,,,,,,,,,,,,,,,,,,,,,,,,,,,,,,,,,,,,,,,,,,,,,,,,,,,,,,,,,,,,,,,,,,,,,,,,,,,,,,,,,,,,,,,,,,,,,,,,,,,,,,,,,,,
,,673231ca547cd8ac8dfbffd6,2026-03-17_16h15.15.757,kallum_motion_pilot_GIST_update_2,2026.1.1,Win32,30.12048193,673231ca547cd8ac8dfbffd6,69b95efdef24cd8a694e89ee,69b960c9d64aca07156b56bc,0.2372,0.2372,1,10,172,77,1,threefour,,,,,,,,,,,,,,,,,,,,,,,,,,,,,,,,,,,,,,,,,,,,,,,,,,,,,,,,,,,,,,,,,,,,,,,,,,,,,,,,,,,,,,,,,,,,,,,,,,,,,,,,,,,,,,,,,,,,,,,,,,,,,,,,,,,,,,,,,
,,673231ca547cd8ac8dfbffd6,2026-03-17_16h15.15.757,kallum_motion_pilot_GIST_update_2,2026.1.1,Win32,30.12048193,673231ca547cd8ac8dfbffd6,69b95efdef24cd8a694e89ee,69b960c9d64aca07156b56bc,0.2407,0.2409,1,11,173,40,1,onetwo,,,,,,,,,,,,,,,,,,,,,,,,,,,,,,,,,,,,,,,,,,,,,,,,,,,,,,,,,,,,,,,,,,,,,,,,,,,,,,,,,,,,,,,,,,,,,,,,,,,,,,,,,,,,,,,,,,,,,,,,,,,,,,,,,,,,,,,,,
,,673231ca547cd8ac8dfbffd6,2026-03-17_16h15.15.757,kallum_motion_pilot_GIST_update_2,2026.1.1,Win32,30.12048193,673231ca547cd8ac8dfbffd6,69b95efdef24cd8a694e89ee,69b960c9d64aca07156b56bc,0.2427,0.2428,1,12,174,127,1,eightseven,,,,,,,,,,,,,,,,,,,,,,,,,,,,,,,,,,,,,,,,,,,,,,,,,,,,,,,,,,,,,,,,,,,,,,,,,,,,,,,,,,,,,,,,,,,,,,,,,,,,,,,,,,,,,,,,,,,,,,,,,,,,,,,,,,,,,,,,,
,,673231ca547cd8ac8dfbffd6,2026-03-17_16h15.15.757,kallum_motion_pilot_GIST_update_2,2026.1.1,Win32,30.12048193,673231ca547cd8ac8dfbffd6,69b95efdef24cd8a694e89ee,69b960c9d64aca07156b56bc,0.2439,0.244,1,13,175,159,1,eightseven,,,,,,,,,,,,,,,,,,,,,,,,,,,,,,,,,,,,,,,,,,,,,,,,,,,,,,,,,,,,,,,,,,,,,,,,,,,,,,,,,,,,,,,,,,,,,,,,,,,,,,,,,,,,,,,,,,,,,,,,,,,,,,,,,,,,,,,,,
,,673231ca547cd8ac8dfbffd6,2026-03-17_16h15.15.757,kallum_motion_pilot_GIST_update_2,2026.1.1,Win32,30.12048193,673231ca547cd8ac8dfbffd6,69b95efdef24cd8a694e89ee,69b960c9d64aca07156b56bc,0.2451,0.2452,1,14,176,53,1,threefour,,,,,,,,,,,,,,,,,,,,,,,,,,,,,,,,,,,,,,,,,,,,,,,,,,,,,,,,,,,,,,,,,,,,,,,,,,,,,,,,,,,,,,,,,,,,,,,,,,,,,,,,,,,,,,,,,,,,,,,,,,,,,,,,,,,,,,,,,
,,673231ca547cd8ac8dfbffd6,2026-03-17_16h15.15.757,kallum_motion_pilot_GIST_update_2,2026.1.1,Win32,30.12048193,673231ca547cd8ac8dfbffd6,69b95efdef24cd8a694e89ee,69b960c9d64aca07156b56bc,0.2459,0.2459,1,15,177,39,1,fourthree,,,,,,,,,,,,,,,,,,,,,,,,,,,,,,,,,,,,,,,,,,,,,,,,,,,,,,,,,,,,,,,,,,,,,,,,,,,,,,,,,,,,,,,,,,,,,,,,,,,,,,,,,,,,,,,,,,,,,,,,,,,,,,,,,,,,,,,,,
,,673231ca547cd8ac8dfbffd6,2026-03-17_16h15.15.757,kallum_motion_pilot_GIST_update_2,2026.1.1,Win32,30.12048193,673231ca547cd8ac8dfbffd6,69b95efdef24cd8a694e89ee,69b960c9d64aca07156b56bc,0.2464,0.2464,1,16,178,157,1,seveneight,,,,,,,,,,,,,,,,,,,,,,,,,,,,,,,,,,,,,,,,,,,,,,,,,,,,,,,,,,,,,,,,,,,,,,,,,,,,,,,,,,,,,,,,,,,,,,,,,,,,,,,,,,,,,,,,,,,,,,,,,,,,,,,,,,,,,,,,,
,,673231ca547cd8ac8dfbffd6,2026-03-17_16h15.15.757,kallum_motion_pilot_GIST_update_2,2026.1.1,Win32,30.12048193,673231ca547cd8ac8dfbffd6,69b95efdef24cd8a694e89ee,69b960c9d64aca07156b56bc,0.2469,0.247,1,17,179,153,1,fiveseven,,,,,,,,,,,,,,,,,,,,,,,,,,,,,,,,,,,,,,,,,,,,,,,,,,,,,,,,,,,,,,,,,,,,,,,,,,,,,,,,,,,,,,,,,,,,,,,,,,,,,,,,,,,,,,,,,,,,,,,,,,,,,,,,,,,,,,,,,
,,673231ca547cd8ac8dfbffd6,2026-03-17_16h15.15.757,kallum_motion_pilot_GIST_update_2,2026.1.1,Win32,30.12048193,673231ca547cd8ac8dfbffd6,69b95efdef24cd8a694e89ee,69b960c9d64aca07156b56bc,0.2474,0.2474,1,18,180,54,1,fourtwo,,,,,,,,,,,,,,,,,,,,,,,,,,,,,,,,,,,,,,,,,,,,,,,,,,,,,,,,,,,,,,,,,,,,,,,,,,,,,,,,,,,,,,,,,,,,,,,,,,,,,,,,,,,,,,,,,,,,,,,,,,,,,,,,,,,,,,,,,
,,673231ca547cd8ac8dfbffd6,2026-03-17_16h15.15.757,kallum_motion_pilot_GIST_update_2,2026.1.1,Win32,30.12048193,673231ca547cd8ac8dfbffd6,69b95efdef24cd8a694e89ee,69b960c9d64aca07156b56bc,0.2483,0.2483,1,19,181,33,1,onethree,,,,,,,,,,,,,,,,,,,,,,,,,,,,,,,,,,,,,,,,,,,,,,,,,,,,,,,,,,,,,,,,,,,,,,,,,,,,,,,,,,,,,,,,,,,,,,,,,,,,,,,,,,,,,,,,,,,,,,,,,,,,,,,,,,,,,,,,,
,,673231ca547cd8ac8dfbffd6,2026-03-17_16h15.15.757,kallum_motion_pilot_GIST_update_2,2026.1.1,Win32,30.12048193,673231ca547cd8ac8dfbffd6,69b95efdef24cd8a694e89ee,69b960c9d64aca07156b56bc,0.2488,0.2488,1,20,182,55,1,fourthree,,,,,,,,,,,,,,,,,,,,,,,,,,,,,,,,,,,,,,,,,,,,,,,,,,,,,,,,,,,,,,,,,,,,,,,,,,,,,,,,,,,,,,,,,,,,,,,,,,,,,,,,,,,,,,,,,,,,,,,,,,,,,,,,,,,,,,,,,
,,673231ca547cd8ac8dfbffd6,2026-03-17_16h15.15.757,kallum_motion_pilot_GIST_update_2,2026.1.1,Win32,30.12048193,673231ca547cd8ac8dfbffd6,69b95efdef24cd8a694e89ee,69b960c9d64aca07156b56bc,0.2493,0.2493,1,21,183,108,1,sevenfive,,,,,,,,,,,,,,,,,,,,,,,,,,,,,,,,,,,,,,,,,,,,,,,,,,,,,,,,,,,,,,,,,,,,,,,,,,,,,,,,,,,,,,,,,,,,,,,,,,,,,,,,,,,,,,,,,,,,,,,,,,,,,,,,,,,,,,,,,
,,673231ca547cd8ac8dfbffd6,2026-03-17_16h15.15.757,kallum_motion_pilot_GIST_update_2,2026.1.1,Win32,30.12048193,673231ca547cd8ac8dfbffd6,69b95efdef24cd8a694e89ee,69b960c9d64aca07156b56bc,0.25,0.2501,1,22,184,71,1,fourthree,,,,,,,,,,,,,,,,,,,,,,,,,,,,,,,,,,,,,,,,,,,,,,,,,,,,,,,,,,,,,,,,,,,,,,,,,,,,,,,,,,,,,,,,,,,,,,,,,,,,,,,,,,,,,,,,,,,,,,,,,,,,,,,,,,,,,,,,,
,,673231ca547cd8ac8dfbffd6,2026-03-17_16h15.15.757,kallum_motion_pilot_GIST_update_2,2026.1.1,Win32,30.12048193,673231ca547cd8ac8dfbffd6,69b95efdef24cd8a694e89ee,69b960c9d64aca07156b56bc,0.2507,0.2507,1,23,185,156,1,sevenfive,,,,,,,,,,,,,,,,,,,,,,,,,,,,,,,,,,,,,,,,,,,,,,,,,,,,,,,,,,,,,,,,,,,,,,,,,,,,,,,,,,,,,,,,,,,,,,,,,,,,,,,,,,,,,,,,,,,,,,,,,,,,,,,,,,,,,,,,,
,,673231ca547cd8ac8dfbffd6,2026-03-17_16h15.15.757,kallum_motion_pilot_GIST_update_2,2026.1.1,Win32,30.12048193,673231ca547cd8ac8dfbffd6,69b95efdef24cd8a694e89ee,69b960c9d64aca07156b56bc,0.2513,0.2513,1,24,186,158,1,eightsix,,,,,,,,,,,,,,,,,,,,,,,,,,,,,,,,,,,,,,,,,,,,,,,,,,,,,,,,,,,,,,,,,,,,,,,,,,,,,,,,,,,,,,,,,,,,,,,,,,,,,,,,,,,,,,,,,,,,,,,,,,,,,,,,,,,,,,,,,
,,673231ca547cd8ac8dfbffd6,2026-03-17_16h15.15.757,kallum_motion_pilot_GIST_update_2,2026.1.1,Win32,30.12048193,673231ca547cd8ac8dfbffd6,69b95efdef24cd8a694e89ee,69b960c9d64aca07156b56bc,0.2519,0.2519,1,25,187,9,1,onethree,,,,,,,,,,,,,,,,,,,,,,,,,,,,,,,,,,,,,,,,,,,,,,,,,,,,,,,,,,,,,,,,,,,,,,,,,,,,,,,,,,,,,,,,,,,,,,,,,,,,,,,,,,,,,,,,,,,,,,,,,,,,,,,,,,,,,,,,,
,,673231ca547cd8ac8dfbffd6,2026-03-17_16h15.15.757,kallum_motion_pilot_GIST_update_2,2026.1.1,Win32,30.12048193,673231ca547cd8ac8dfbffd6,69b95efdef24cd8a694e89ee,69b960c9d64aca07156b56bc,0.2524,0.2525,1,26,188,26,1,twoone,,,,,,,,,,,,,,,,,,,,,,,,,,,,,,,,,,,,,,,,,,,,,,,,,,,,,,,,,,,,,,,,,,,,,,,,,,,,,,,,,,,,,,,,,,,,,,,,,,,,,,,,,,,,,,,,,,,,,,,,,,,,,,,,,,,,,,,,,
,,673231ca547cd8ac8dfbffd6,2026-03-17_16h15.15.757,kallum_motion_pilot_GIST_update_2,2026.1.1,Win32,30.12048193,673231ca547cd8ac8dfbffd6,69b95efdef24cd8a694e89ee,69b960c9d64aca07156b56bc,0.2529,0.2529,1,27,189,154,1,sixfive,,,,,,,,,,,,,,,,,,,,,,,,,,,,,,,,,,,,,,,,,,,,,,,,,,,,,,,,,,,,,,,,,,,,,,,,,,,,,,,,,,,,,,,,,,,,,,,,,,,,,,,,,,,,,,,,,,,,,,,,,,,,,,,,,,,,,,,,,
,,673231ca547cd8ac8dfbffd6,2026-03-17_16h15.15.757,kallum_motion_pilot_GIST_update_2,2026.1.1,Win32,30.12048193,673231ca547cd8ac8dfbffd6,69b95efdef24cd8a694e89ee,69b960c9d64aca07156b56bc,0.2567,0.2567,1,28,190,150,1,eightsix,,,,,,,,,,,,,,,,,,,,,,,,,,,,,,,,,,,,,,,,,,,,,,,,,,,,,,,,,,,,,,,,,,,,,,,,,,,,,,,,,,,,,,,,,,,,,,,,,,,,,,,,,,,,,,,,,,,,,,,,,,,,,,,,,,,,,,,,,
,,673231ca547cd8ac8dfbffd6,2026-03-17_16h15.15.757,kallum_motion_pilot_GIST_update_2,2026.1.1,Win32,30.12048193,673231ca547cd8ac8dfbffd6,69b95efdef24cd8a694e89ee,69b960c9d64aca07156b56bc,0.259,0.2592,1,29,191,16,1,onetwo,,,,,,,,,,,,,,,,,,,,,,,,,,,,,,,,,,,,,,,,,,,,,,,,,,,,,,,,,,,,,,,,,,,,,,,,,,,,,,,,,,,,,,,,,,,,,,,,,,,,,,,,,,,,,,,,,,,,,,,,,,,,,,,,,,,,,,,,,
,,673231ca547cd8ac8dfbffd6,2026-03-17_16h15.15.757,kallum_motion_pilot_GIST_update_2,2026.1.1,Win32,30.12048193,673231ca547cd8ac8dfbffd6,69b95efdef24cd8a694e89ee,69b960c9d64aca07156b56bc,0.2604,0.2604,1,30,192,146,1,sixfive,,,,,,,,,,,,,,,,,,,,,,,,,,,,,,,,,,,,,,,,,,,,,,,,,,,,,,,,,,,,,,,,,,,,,,,,,,,,,,,,,,,,,,,,,,,,,,,,,,,,,,,,,,,,,,,,,,,,,,,,,,,,,,,,,,,,,,,,,
,,673231ca547cd8ac8dfbffd6,2026-03-17_16h15.15.757,kallum_motion_pilot_GIST_update_2,2026.1.1,Win32,30.12048193,673231ca547cd8ac8dfbffd6,69b95efdef24cd8a694e89ee,69b960c9d64aca07156b56bc,0.2609,0.261,1,31,193,147,1,sixeight,,,,,,,,,,,,,,,,,,,,,,,,,,,,,,,,,,,,,,,,,,,,,,,,,,,,,,,,,,,,,,,,,,,,,,,,,,,,,,,,,,,,,,,,,,,,,,,,,,,,,,,,,,,,,,,,,,,,,,,,,,,,,,,,,,,,,,,,,
,,673231ca547cd8ac8dfbffd6,2026-03-17_16h15.15.757,kallum_motion_pilot_GIST_update_2,2026.1.1,Win32,30.12048193,673231ca547cd8ac8dfbffd6,69b95efdef24cd8a694e89ee,69b960c9d64aca07156b56bc,0.2615,0.2615,1,32,194,89,1,fiveseven,,,,,,,,,,,,,,,,,,,,,,,,,,,,,,,,,,,,,,,,,,,,,,,,,,,,,,,,,,,,,,,,,,,,,,,,,,,,,,,,,,,,,,,,,,,,,,,,,,,,,,,,,,,,,,,,,,,,,,,,,,,,,,,,,,,,,,,,,
,,673231ca547cd8ac8dfbffd6,2026-03-17_16h15.15.757,kallum_motion_pilot_GIST_update_2,2026.1.1,Win32,30.12048193,673231ca547cd8ac8dfbffd6,69b95efdef24cd8a694e89ee,69b960c9d64aca07156b56bc,0.2621,0.2621,1,33,195,14,1,fourtwo,,,,,,,,,,,,,,,,,,,,,,,,,,,,,,,,,,,,,,,,,,,,,,,,,,,,,,,,,,,,,,,,,,,,,,,,,,,,,,,,,,,,,,,,,,,,,,,,,,,,,,,,,,,,,,,,,,,,,,,,,,,,,,,,,,,,,,,,,
,,673231ca547cd8ac8dfbffd6,2026-03-17_16h15.15.757,kallum_motion_pilot_GIST_update_2,2026.1.1,Win32,30.12048193,673231ca547cd8ac8dfbffd6,69b95efdef24cd8a694e89ee,69b960c9d64aca07156b56bc,0.2625,0.2626,1,34,196,86,1,eightsix,,,,,,,,,,,,,,,,,,,,,,,,,,,,,,,,,,,,,,,,,,,,,,,,,,,,,,,,,,,,,,,,,,,,,,,,,,,,,,,,,,,,,,,,,,,,,,,,,,,,,,,,,,,,,,,,,,,,,,,,,,,,,,,,,,,,,,,,,
,,673231ca547cd8ac8dfbffd6,2026-03-17_16h15.15.757,kallum_motion_pilot_GIST_update_2,2026.1.1,Win32,30.12048193,673231ca547cd8ac8dfbffd6,69b95efdef24cd8a694e89ee,69b960c9d64aca07156b56bc,0.263,0.2633,1,35,197,35,1,twofour,,,,,,,,,,,,,,,,,,,,,,,,,,,,,,,,,,,,,,,,,,,,,,,,,,,,,,,,,,,,,,,,,,,,,,,,,,,,,,,,,,,,,,,,,,,,,,,,,,,,,,,,,,,,,,,,,,,,,,,,,,,,,,,,,,,,,,,,,
,,673231ca547cd8ac8dfbffd6,2026-03-17_16h15.15.757,kallum_motion_pilot_GIST_update_2,2026.1.1,Win32,30.12048193,673231ca547cd8ac8dfbffd6,69b95efdef24cd8a694e89ee,69b960c9d64aca07156b56bc,0.2641,0.2641,1,36,198,102,1,eightsix,,,,,,,,,,,,,,,,,,,,,,,,,,,,,,,,,,,,,,,,,,,,,,,,,,,,,,,,,,,,,,,,,,,,,,,,,,,,,,,,,,,,,,,,,,,,,,,,,,,,,,,,,,,,,,,,,,,,,,,,,,,,,,,,,,,,,,,,,
,,673231ca547cd8ac8dfbffd6,2026-03-17_16h15.15.757,kallum_motion_pilot_GIST_update_2,2026.1.1,Win32,30.12048193,673231ca547cd8ac8dfbffd6,69b95efdef24cd8a694e89ee,69b960c9d64aca07156b56bc,0.2652,0.2652,1,37,199,21,1,threefour,,,,,,,,,,,,,,,,,,,,,,,,,,,,,,,,,,,,,,,,,,,,,,,,,,,,,,,,,,,,,,,,,,,,,,,,,,,,,,,,,,,,,,,,,,,,,,,,,,,,,,,,,,,,,,,,,,,,,,,,,,,,,,,,,,,,,,,,,
,,673231ca547cd8ac8dfbffd6,2026-03-17_16h15.15.757,kallum_motion_pilot_GIST_update_2,2026.1.1,Win32,30.12048193,673231ca547cd8ac8dfbffd6,69b95efdef24cd8a694e89ee,69b960c9d64aca07156b56bc,0.2659,0.2659,1,38,200,15,1,fourthree,,,,,,,,,,,,,,,,,,,,,,,,,,,,,,,,,,,,,,,,,,,,,,,,,,,,,,,,,,,,,,,,,,,,,,,,,,,,,,,,,,,,,,,,,,,,,,,,,,,,,,,,,,,,,,,,,,,,,,,,,,,,,,,,,,,,,,,,,
,,673231ca547cd8ac8dfbffd6,2026-03-17_16h15.15.757,kallum_motion_pilot_GIST_update_2,2026.1.1,Win32,30.12048193,673231ca547cd8ac8dfbffd6,69b95efdef24cd8a694e89ee,69b960c9d64aca07156b56bc,0.2664,0.2664,1,39,201,36,1,threeone,,,,,,,,,,,,,,,,,,,,,,,,,,,,,,,,,,,,,,,,,,,,,,,,,,,,,,,,,,,,,,,,,,,,,,,,,,,,,,,,,,,,,,,,,,,,,,,,,,,,,,,,,,,,,,,,,,,,,,,,,,,,,,,,,,,,,,,,,
,,673231ca547cd8ac8dfbffd6,2026-03-17_16h15.15.757,kallum_motion_pilot_GIST_update_2,2026.1.1,Win32,30.12048193,673231ca547cd8ac8dfbffd6,69b95efdef24cd8a694e89ee,69b960c9d64aca07156b56bc,0.267,0.2671,1,40,202,72,1,onetwo,,,,,,,,,,,,,,,,,,,,,,,,,,,,,,,,,,,,,,,,,,,,,,,,,,,,,,,,,,,,,,,,,,,,,,,,,,,,,,,,,,,,,,,,,,,,,,,,,,,,,,,,,,,,,,,,,,,,,,,,,,,,,,,,,,,,,,,,,
,,673231ca547cd8ac8dfbffd6,2026-03-17_16h15.15.757,kallum_motion_pilot_GIST_update_2,2026.1.1,Win32,30.12048193,673231ca547cd8ac8dfbffd6,69b95efdef24cd8a694e89ee,69b960c9d64aca07156b56bc,0.2677,0.2677,1,41,203,29,1,threefour,,,,,,,,,,,,,,,,,,,,,,,,,,,,,,,,,,,,,,,,,,,,,,,,,,,,,,,,,,,,,,,,,,,,,,,,,,,,,,,,,,,,,,,,,,,,,,,,,,,,,,,,,,,,,,,,,,,,,,,,,,,,,,,,,,,,,,,,,
,,673231ca547cd8ac8dfbffd6,2026-03-17_16h15.15.757,kallum_motion_pilot_GIST_update_2,2026.1.1,Win32,30.12048193,673231ca547cd8ac8dfbffd6,69b95efdef24cd8a694e89ee,69b960c9d64aca07156b56bc,0.2684,0.2684,1,42,204,144,1,fivesix,,,,,,,,,,,,,,,,,,,,,,,,,,,,,,,,,,,,,,,,,,,,,,,,,,,,,,,,,,,,,,,,,,,,,,,,,,,,,,,,,,,,,,,,,,,,,,,,,,,,,,,,,,,,,,,,,,,,,,,,,,,,,,,,,,,,,,,,,
,,673231ca547cd8ac8dfbffd6,2026-03-17_16h15.15.757,kallum_motion_pilot_GIST_update_2,2026.1.1,Win32,30.12048193,673231ca547cd8ac8dfbffd6,69b95efdef24cd8a694e89ee,69b960c9d64aca07156b56bc,0.2688,0.2689,1,43,205,112,1,fivesix,,,,,,,,,,,,,,,,,,,,,,,,,,,,,,,,,,,,,,,,,,,,,,,,,,,,,,,,,,,,,,,,,,,,,,,,,,,,,,,,,,,,,,,,,,,,,,,,,,,,,,,,,,,,,,,,,,,,,,,,,,,,,,,,,,,,,,,,,
,,673231ca547cd8ac8dfbffd6,2026-03-17_16h15.15.757,kallum_motion_pilot_GIST_update_2,2026.1.1,Win32,30.12048193,673231ca547cd8ac8dfbffd6,69b95efdef24cd8a694e89ee,69b960c9d64aca07156b56bc,0.2694,0.2694,1,44,206,117,1,seveneight,,,,,,,,,,,,,,,,,,,,,,,,,,,,,,,,,,,,,,,,,,,,,,,,,,,,,,,,,,,,,,,,,,,,,,,,,,,,,,,,,,,,,,,,,,,,,,,,,,,,,,,,,,,,,,,,,,,,,,,,,,,,,,,,,,,,,,,,,
,,673231ca547cd8ac8dfbffd6,2026-03-17_16h15.15.757,kallum_motion_pilot_GIST_update_2,2026.1.1,Win32,30.12048193,673231ca547cd8ac8dfbffd6,69b95efdef24cd8a694e89ee,69b960c9d64aca07156b56bc,0.27,0.2701,1,45,207,105,1,fiveseven,,,,,,,,,,,,,,,,,,,,,,,,,,,,,,,,,,,,,,,,,,,,,,,,,,,,,,,,,,,,,,,,,,,,,,,,,,,,,,,,,,,,,,,,,,,,,,,,,,,,,,,,,,,,,,,,,,,,,,,,,,,,,,,,,,,,,,,,,
,,673231ca547cd8ac8dfbffd6,2026-03-17_16h15.15.757,kallum_motion_pilot_GIST_update_2,2026.1.1,Win32,30.12048193,673231ca547cd8ac8dfbffd6,69b95efdef24cd8a694e89ee,69b960c9d64aca07156b56bc,0.2767,0.2768,1,46,208,107,1,sixeight,,,,,,,,,,,,,,,,,,,,,,,,,,,,,,,,,,,,,,,,,,,,,,,,,,,,,,,,,,,,,,,,,,,,,,,,,,,,,,,,,,,,,,,,,,,,,,,,,,,,,,,,,,,,,,,,,,,,,,,,,,,,,,,,,,,,,,,,,
,,673231ca547cd8ac8dfbffd6,2026-03-17_16h15.15.757,kallum_motion_pilot_GIST_update_2,2026.1.1,Win32,30.12048193,673231ca547cd8ac8dfbffd6,69b95efdef24cd8a694e89ee,69b960c9d64aca07156b56bc,0.2777,0.2777,1,47,209,11,1,twofour,,,,,,,,,,,,,,,,,,,,,,,,,,,,,,,,,,,,,,,,,,,,,,,,,,,,,,,,,,,,,,,,,,,,,,,,,,,,,,,,,,,,,,,,,,,,,,,,,,,,,,,,,,,,,,,,,,,,,,,,,,,,,,,,,,,,,,,,,
,,673231ca547cd8ac8dfbffd6,2026-03-17_16h15.15.757,kallum_motion_pilot_GIST_update_2,2026.1.1,Win32,30.12048193,673231ca547cd8ac8dfbffd6,69b95efdef24cd8a694e89ee,69b960c9d64aca07156b56bc,0.2782,0.2782,1,48,210,28,1,threeone,,,,,,,,,,,,,,,,,,,,,,,,,,,,,,,,,,,,,,,,,,,,,,,,,,,,,,,,,,,,,,,,,,,,,,,,,,,,,,,,,,,,,,,,,,,,,,,,,,,,,,,,,,,,,,,,,,,,,,,,,,,,,,,,,,,,,,,,,
,,673231ca547cd8ac8dfbffd6,2026-03-17_16h15.15.757,kallum_motion_pilot_GIST_update_2,2026.1.1,Win32,30.12048193,673231ca547cd8ac8dfbffd6,69b95efdef24cd8a694e89ee,69b960c9d64aca07156b56bc,0.2795,0.2796,1,49,211,13,1,threefour,,,,,,,,,,,,,,,,,,,,,,,,,,,,,,,,,,,,,,,,,,,,,,,,,,,,,,,,,,,,,,,,,,,,,,,,,,,,,,,,,,,,,,,,,,,,,,,,,,,,,,,,,,,,,,,,,,,,,,,,,,,,,,,,,,,,,,,,,
,,673231ca547cd8ac8dfbffd6,2026-03-17_16h15.15.757,kallum_motion_pilot_GIST_update_2,2026.1.1,Win32,30.12048193,673231ca547cd8ac8dfbffd6,69b95efdef24cd8a694e89ee,69b960c9d64aca07156b56bc,0.2804,0.2804,1,50,212,3,1,twofour,,,,,,,,,,,,,,,,,,,,,,,,,,,,,,,,,,,,,,,,,,,,,,,,,,,,,,,,,,,,,,,,,,,,,,,,,,,,,,,,,,,,,,,,,,,,,,,,,,,,,,,,,,,,,,,,,,,,,,,,,,,,,,,,,,,,,,,,,
,,673231ca547cd8ac8dfbffd6,2026-03-17_16h15.15.757,kallum_motion_pilot_GIST_update_2,2026.1.1,Win32,30.12048193,673231ca547cd8ac8dfbffd6,69b95efdef24cd8a694e89ee,69b960c9d64aca07156b56bc,0.281,0.281,1,51,213,111,1,eightseven,,,,,,,,,,,,,,,,,,,,,,,,,,,,,,,,,,,,,,,,,,,,,,,,,,,,,,,,,,,,,,,,,,,,,,,,,,,,,,,,,,,,,,,,,,,,,,,,,,,,,,,,,,,,,,,,,,,,,,,,,,,,,,,,,,,,,,,,,
,,673231ca547cd8ac8dfbffd6,2026-03-17_16h15.15.757,kallum_motion_pilot_GIST_update_2,2026.1.1,Win32,30.12048193,673231ca547cd8ac8dfbffd6,69b95efdef24cd8a694e89ee,69b960c9d64aca07156b56bc,0.2815,0.2815,1,52,214,22,1,fourtwo,,,,,,,,,,,,,,,,,,,,,,,,,,,,,,,,,,,,,,,,,,,,,,,,,,,,,,,,,,,,,,,,,,,,,,,,,,,,,,,,,,,,,,,,,,,,,,,,,,,,,,,,,,,,,,,,,,,,,,,,,,,,,,,,,,,,,,,,,
,,673231ca547cd8ac8dfbffd6,2026-03-17_16h15.15.757,kallum_motion_pilot_GIST_update_2,2026.1.1,Win32,30.12048193,673231ca547cd8ac8dfbffd6,69b95efdef24cd8a694e89ee,69b960c9d64aca07156b56bc,0.2821,0.2822,1,53,215,103,1,eightseven,,,,,,,,,,,,,,,,,,,,,,,,,,,,,,,,,,,,,,,,,,,,,,,,,,,,,,,,,,,,,,,,,,,,,,,,,,,,,,,,,,,,,,,,,,,,,,,,,,,,,,,,,,,,,,,,,,,,,,,,,,,,,,,,,,,,,,,,,
,,673231ca547cd8ac8dfbffd6,2026-03-17_16h15.15.757,kallum_motion_pilot_GIST_update_2,2026.1.1,Win32,30.12048193,673231ca547cd8ac8dfbffd6,69b95efdef24cd8a694e89ee,69b960c9d64aca07156b56bc,0.2827,0.2827,1,54,216,142,1,eightsix,,,,,,,,,,,,,,,,,,,,,,,,,,,,,,,,,,,,,,,,,,,,,,,,,,,,,,,,,,,,,,,,,,,,,,,,,,,,,,,,,,,,,,,,,,,,,,,,,,,,,,,,,,,,,,,,,,,,,,,,,,,,,,,,,,,,,,,,,
,,673231ca547cd8ac8dfbffd6,2026-03-17_16h15.15.757,kallum_motion_pilot_GIST_update_2,2026.1.1,Win32,30.12048193,673231ca547cd8ac8dfbffd6,69b95efdef24cd8a694e89ee,69b960c9d64aca07156b56bc,0.2835,0.2835,1,55,217,88,1,fivesix,,,,,,,,,,,,,,,,,,,,,,,,,,,,,,,,,,,,,,,,,,,,,,,,,,,,,,,,,,,,,,,,,,,,,,,,,,,,,,,,,,,,,,,,,,,,,,,,,,,,,,,,,,,,,,,,,,,,,,,,,,,,,,,,,,,,,,,,,
,,673231ca547cd8ac8dfbffd6,2026-03-17_16h15.15.757,kallum_motion_pilot_GIST_update_2,2026.1.1,Win32,30.12048193,673231ca547cd8ac8dfbffd6,69b95efdef24cd8a694e89ee,69b960c9d64aca07156b56bc,0.2844,0.2846,1,56,218,45,1,threefour,,,,,,,,,,,,,,,,,,,,,,,,,,,,,,,,,,,,,,,,,,,,,,,,,,,,,,,,,,,,,,,,,,,,,,,,,,,,,,,,,,,,,,,,,,,,,,,,,,,,,,,,,,,,,,,,,,,,,,,,,,,,,,,,,,,,,,,,,
,,673231ca547cd8ac8dfbffd6,2026-03-17_16h15.15.757,kallum_motion_pilot_GIST_update_2,2026.1.1,Win32,30.12048193,673231ca547cd8ac8dfbffd6,69b95efdef24cd8a694e89ee,69b960c9d64aca07156b56bc,0.2852,0.2852,1,57,219,6,1,fourtwo,,,,,,,,,,,,,,,,,,,,,,,,,,,,,,,,,,,,,,,,,,,,,,,,,,,,,,,,,,,,,,,,,,,,,,,,,,,,,,,,,,,,,,,,,,,,,,,,,,,,,,,,,,,,,,,,,,,,,,,,,,,,,,,,,,,,,,,,,
,,673231ca547cd8ac8dfbffd6,2026-03-17_16h15.15.757,kallum_motion_pilot_GIST_update_2,2026.1.1,Win32,30.12048193,673231ca547cd8ac8dfbffd6,69b95efdef24cd8a694e89ee,69b960c9d64aca07156b56bc,0.2858,0.2858,1,58,220,57,1,onethree,,,,,,,,,,,,,,,,,,,,,,,,,,,,,,,,,,,,,,,,,,,,,,,,,,,,,,,,,,,,,,,,,,,,,,,,,,,,,,,,,,,,,,,,,,,,,,,,,,,,,,,,,,,,,,,,,,,,,,,,,,,,,,,,,,,,,,,,,
,,673231ca547cd8ac8dfbffd6,2026-03-17_16h15.15.757,kallum_motion_pilot_GIST_update_2,2026.1.1,Win32,30.12048193,673231ca547cd8ac8dfbffd6,69b95efdef24cd8a694e89ee,69b960c9d64aca07156b56bc,0.2863,0.2863,1,59,221,65,1,onethree,,,,,,,,,,,,,,,,,,,,,,,,,,,,,,,,,,,,,,,,,,,,,,,,,,,,,,,,,,,,,,,,,,,,,,,,,,,,,,,,,,,,,,,,,,,,,,,,,,,,,,,,,,,,,,,,,,,,,,,,,,,,,,,,,,,,,,,,,
,,673231ca547cd8ac8dfbffd6,2026-03-17_16h15.15.757,kallum_motion_pilot_GIST_update_2,2026.1.1,Win32,30.12048193,673231ca547cd8ac8dfbffd6,69b95efdef24cd8a694e89ee,69b960c9d64aca07156b56bc,0.2869,0.2869,1,60,222,32,1,onetwo,,,,,,,,,,,,,,,,,,,,,,,,,,,,,,,,,,,,,,,,,,,,,,,,,,,,,,,,,,,,,,,,,,,,,,,,,,,,,,,,,,,,,,,,,,,,,,,,,,,,,,,,,,,,,,,,,,,,,,,,,,,,,,,,,,,,,,,,,
,,673231ca547cd8ac8dfbffd6,2026-03-17_16h15.15.757,kallum_motion_pilot_GIST_update_2,2026.1.1,Win32,30.12048193,673231ca547cd8ac8dfbffd6,69b95efdef24cd8a694e89ee,69b960c9d64aca07156b56bc,0.2891,0.2891,1,61,223,27,1,twofour,,,,,,,,,,,,,,,,,,,,,,,,,,,,,,,,,,,,,,,,,,,,,,,,,,,,,,,,,,,,,,,,,,,,,,,,,,,,,,,,,,,,,,,,,,,,,,,,,,,,,,,,,,,,,,,,,,,,,,,,,,,,,,,,,,,,,,,,,
,,673231ca547cd8ac8dfbffd6,2026-03-17_16h15.15.757,kallum_motion_pilot_GIST_update_2,2026.1.1,Win32,30.12048193,673231ca547cd8ac8dfbffd6,69b95efdef24cd8a694e89ee,69b960c9d64aca07156b56bc,0.2903,0.2904,1,62,224,126,1,eightsix,,,,,,,,,,,,,,,,,,,,,,,,,,,,,,,,,,,,,,,,,,,,,,,,,,,,,,,,,,,,,,,,,,,,,,,,,,,,,,,,,,,,,,,,,,,,,,,,,,,,,,,,,,,,,,,,,,,,,,,,,,,,,,,,,,,,,,,,,
,,673231ca547cd8ac8dfbffd6,2026-03-17_16h15.15.757,kallum_motion_pilot_GIST_update_2,2026.1.1,Win32,30.12048193,673231ca547cd8ac8dfbffd6,69b95efdef24cd8a694e89ee,69b960c9d64aca07156b56bc,0.2914,0.2914,1,63,225,140,1,sevenfive,,,,,,,,,,,,,,,,,,,,,,,,,,,,,,,,,,,,,,,,,,,,,,,,,,,,,,,,,,,,,,,,,,,,,,,,,,,,,,,,,,,,,,,,,,,,,,,,,,,,,,,,,,,,,,,,,,,,,,,,,,,,,,,,,,,,,,,,,
,,673231ca547cd8ac8dfbffd6,2026-03-17_16h15.15.757,kallum_motion_pilot_GIST_update_2,2026.1.1,Win32,30.12048193,673231ca547cd8ac8dfbffd6,69b95efdef24cd8a694e89ee,69b960c9d64aca07156b56bc,0.2924,0.2925,1,64,226,114,1,sixfive,,,,,,,,,,,,,,,,,,,,,,,,,,,,,,,,,,,,,,,,,,,,,,,,,,,,,,,,,,,,,,,,,,,,,,,,,,,,,,,,,,,,,,,,,,,,,,,,,,,,,,,,,,,,,,,,,,,,,,,,,,,,,,,,,,,,,,,,,
,,673231ca547cd8ac8dfbffd6,2026-03-17_16h15.15.757,kallum_motion_pilot_GIST_update_2,2026.1.1,Win32,30.12048193,673231ca547cd8ac8dfbffd6,69b95efdef24cd8a694e89ee,69b960c9d64aca07156b56bc,0.2932,0.2932,1,65,227,0,1,onetwo,,,,,,,,,,,,,,,,,,,,,,,,,,,,,,,,,,,,,,,,,,,,,,,,,,,,,,,,,,,,,,,,,,,,,,,,,,,,,,,,,,,,,,,,,,,,,,,,,,,,,,,,,,,,,,,,,,,,,,,,,,,,,,,,,,,,,,,,,
,,673231ca547cd8ac8dfbffd6,2026-03-17_16h15.15.757,kallum_motion_pilot_GIST_update_2,2026.1.1,Win32,30.12048193,673231ca547cd8ac8dfbffd6,69b95efdef24cd8a694e89ee,69b960c9d64aca07156b56bc,0.294,0.2941,1,66,228,83,1,sixeight,,,,,,,,,,,,,,,,,,,,,,,,,,,,,,,,,,,,,,,,,,,,,,,,,,,,,,,,,,,,,,,,,,,,,,,,,,,,,,,,,,,,,,,,,,,,,,,,,,,,,,,,,,,,,,,,,,,,,,,,,,,,,,,,,,,,,,,,,
,,673231ca547cd8ac8dfbffd6,2026-03-17_16h15.15.757,kallum_motion_pilot_GIST_update_2,2026.1.1,Win32,30.12048193,673231ca547cd8ac8dfbffd6,69b95efdef24cd8a694e89ee,69b960c9d64aca07156b56bc,0.2951,0.2952,1,67,229,66,1,twoone,,,,,,,,,,,,,,,,,,,,,,,,,,,,,,,,,,,,,,,,,,,,,,,,,,,,,,,,,,,,,,,,,,,,,,,,,,,,,,,,,,,,,,,,,,,,,,,,,,,,,,,,,,,,,,,,,,,,,,,,,,,,,,,,,,,,,,,,,
,,673231ca547cd8ac8dfbffd6,2026-03-17_16h15.15.757,kallum_motion_pilot_GIST_update_2,2026.1.1,Win32,30.12048193,673231ca547cd8ac8dfbffd6,69b95efdef24cd8a694e89ee,69b960c9d64aca07156b56bc,0.2959,0.2959,1,68,230,135,1,eightseven,,,,,,,,,,,,,,,,,,,,,,,,,,,,,,,,,,,,,,,,,,,,,,,,,,,,,,,,,,,,,,,,,,,,,,,,,,,,,,,,,,,,,,,,,,,,,,,,,,,,,,,,,,,,,,,,,,,,,,,,,,,,,,,,,,,,,,,,,
,,673231ca547cd8ac8dfbffd6,2026-03-17_16h15.15.757,kallum_motion_pilot_GIST_update_2,2026.1.1,Win32,30.12048193,673231ca547cd8ac8dfbffd6,69b95efdef24cd8a694e89ee,69b960c9d64aca07156b56bc,0.2966,0.2967,1,69,231,129,1,fiveseven,,,,,,,,,,,,,,,,,,,,,,,,,,,,,,,,,,,,,,,,,,,,,,,,,,,,,,,,,,,,,,,,,,,,,,,,,,,,,,,,,,,,,,,,,,,,,,,,,,,,,,,,,,,,,,,,,,,,,,,,,,,,,,,,,,,,,,,,,
,,673231ca547cd8ac8dfbffd6,2026-03-17_16h15.15.757,kallum_motion_pilot_GIST_update_2,2026.1.1,Win32,30.12048193,673231ca547cd8ac8dfbffd6,69b95efdef24cd8a694e89ee,69b960c9d64aca07156b56bc,0.2991,0.2991,1,70,232,128,1,fivesix,,,,,,,,,,,,,,,,,,,,,,,,,,,,,,,,,,,,,,,,,,,,,,,,,,,,,,,,,,,,,,,,,,,,,,,,,,,,,,,,,,,,,,,,,,,,,,,,,,,,,,,,,,,,,,,,,,,,,,,,,,,,,,,,,,,,,,,,,
,,673231ca547cd8ac8dfbffd6,2026-03-17_16h15.15.757,kallum_motion_pilot_GIST_update_2,2026.1.1,Win32,30.12048193,673231ca547cd8ac8dfbffd6,69b95efdef24cd8a694e89ee,69b960c9d64aca07156b56bc,0.2998,0.2998,1,71,233,5,1,threefour,,,,,,,,,,,,,,,,,,,,,,,,,,,,,,,,,,,,,,,,,,,,,,,,,,,,,,,,,,,,,,,,,,,,,,,,,,,,,,,,,,,,,,,,,,,,,,,,,,,,,,,,,,,,,,,,,,,,,,,,,,,,,,,,,,,,,,,,,
,,673231ca547cd8ac8dfbffd6,2026-03-17_16h15.15.757,kallum_motion_pilot_GIST_update_2,2026.1.1,Win32,30.12048193,673231ca547cd8ac8dfbffd6,69b95efdef24cd8a694e89ee,69b960c9d64aca07156b56bc,0.3004,0.3004,1,72,234,48,1,onetwo,,,,,,,,,,,,,,,,,,,,,,,,,,,,,,,,,,,,,,,,,,,,,,,,,,,,,,,,,,,,,,,,,,,,,,,,,,,,,,,,,,,,,,,,,,,,,,,,,,,,,,,,,,,,,,,,,,,,,,,,,,,,,,,,,,,,,,,,,
,,673231ca547cd8ac8dfbffd6,2026-03-17_16h15.15.757,kallum_motion_pilot_GIST_update_2,2026.1.1,Win32,30.12048193,673231ca547cd8ac8dfbffd6,69b95efdef24cd8a694e89ee,69b960c9d64aca07156b56bc,0.3012,0.3012,1,73,235,8,1,onetwo,,,,,,,,,,,,,,,,,,,,,,,,,,,,,,,,,,,,,,,,,,,,,,,,,,,,,,,,,,,,,,,,,,,,,,,,,,,,,,,,,,,,,,,,,,,,,,,,,,,,,,,,,,,,,,,,,,,,,,,,,,,,,,,,,,,,,,,,,
,,673231ca547cd8ac8dfbffd6,2026-03-17_16h15.15.757,kallum_motion_pilot_GIST_update_2,2026.1.1,Win32,30.12048193,673231ca547cd8ac8dfbffd6,69b95efdef24cd8a694e89ee,69b960c9d64aca07156b56bc,0.3017,0.3017,1,74,236,138,1,sixfive,,,,,,,,,,,,,,,,,,,,,,,,,,,,,,,,,,,,,,,,,,,,,,,,,,,,,,,,,,,,,,,,,,,,,,,,,,,,,,,,,,,,,,,,,,,,,,,,,,,,,,,,,,,,,,,,,,,,,,,,,,,,,,,,,,,,,,,,,
,,673231ca547cd8ac8dfbffd6,2026-03-17_16h15.15.757,kallum_motion_pilot_GIST_update_2,2026.1.1,Win32,30.12048193,673231ca547cd8ac8dfbffd6,69b95efdef24cd8a694e89ee,69b960c9d64aca07156b56bc,0.3023,0.3023,1,75,237,124,1,sevenfive,,,,,,,,,,,,,,,,,,,,,,,,,,,,,,,,,,,,,,,,,,,,,,,,,,,,,,,,,,,,,,,,,,,,,,,,,,,,,,,,,,,,,,,,,,,,,,,,,,,,,,,,,,,,,,,,,,,,,,,,,,,,,,,,,,,,,,,,,
,,673231ca547cd8ac8dfbffd6,2026-03-17_16h15.15.757,kallum_motion_pilot_GIST_update_2,2026.1.1,Win32,30.12048193,673231ca547cd8ac8dfbffd6,69b95efdef24cd8a694e89ee,69b960c9d64aca07156b56bc,0.3027,0.3037,1,76,238,92,1,sevenfive,,,,,,,,,,,,,,,,,,,,,,,,,,,,,,,,,,,,,,,,,,,,,,,,,,,,,,,,,,,,,,,,,,,,,,,,,,,,,,,,,,,,,,,,,,,,,,,,,,,,,,,,,,,,,,,,,,,,,,,,,,,,,,,,,,,,,,,,,
,,673231ca547cd8ac8dfbffd6,2026-03-17_16h15.15.757,kallum_motion_pilot_GIST_update_2,2026.1.1,Win32,30.12048193,673231ca547cd8ac8dfbffd6,69b95efdef24cd8a694e89ee,69b960c9d64aca07156b56bc,0.3084,0.3084,1,77,239,123,1,sixeight,,,,,,,,,,,,,,,,,,,,,,,,,,,,,,,,,,,,,,,,,,,,,,,,,,,,,,,,,,,,,,,,,,,,,,,,,,,,,,,,,,,,,,,,,,,,,,,,,,,,,,,,,,,,,,,,,,,,,,,,,,,,,,,,,,,,,,,,,
,,673231ca547cd8ac8dfbffd6,2026-03-17_16h15.15.757,kallum_motion_pilot_GIST_update_2,2026.1.1,Win32,30.12048193,673231ca547cd8ac8dfbffd6,69b95efdef24cd8a694e89ee,69b960c9d64aca07156b56bc,0.3091,0.3091,1,78,240,43,1,twofour,,,,,,,,,,,,,,,,,,,,,,,,,,,,,,,,,,,,,,,,,,,,,,,,,,,,,,,,,,,,,,,,,,,,,,,,,,,,,,,,,,,,,,,,,,,,,,,,,,,,,,,,,,,,,,,,,,,,,,,,,,,,,,,,,,,,,,,,,
,,673231ca547cd8ac8dfbffd6,2026-03-17_16h15.15.757,kallum_motion_pilot_GIST_update_2,2026.1.1,Win32,30.12048193,673231ca547cd8ac8dfbffd6,69b95efdef24cd8a694e89ee,69b960c9d64aca07156b56bc,0.3095,0.3095,1,79,241,151,1,eightseven,,,,,,,,,,,,,,,,,,,,,,,,,,,,,,,,,,,,,,,,,,,,,,,,,,,,,,,,,,,,,,,,,,,,,,,,,,,,,,,,,,,,,,,,,,,,,,,,,,,,,,,,,,,,,,,,,,,,,,,,,,,,,,,,,,,,,,,,,
,,673231ca547cd8ac8dfbffd6,2026-03-17_16h15.15.757,kallum_motion_pilot_GIST_update_2,2026.1.1,Win32,30.12048193,673231ca547cd8ac8dfbffd6,69b95efdef24cd8a694e89ee,69b960c9d64aca07156b56bc,0.31,0.3102,1,80,242,121,1,fiveseven,,,,,,,,,,,,,,,,,,,,,,,,,,,,,,,,,,,,,,,,,,,,,,,,,,,,,,,,,,,,,,,,,,,,,,,,,,,,,,,,,,,,,,,,,,,,,,,,,,,,,,,,,,,,,,,,,,,,,,,,,,,,,,,,,,,,,,,,,
,,673231ca547cd8ac8dfbffd6,2026-03-17_16h15.15.757,kallum_motion_pilot_GIST_update_2,2026.1.1,Win32,30.12048193,673231ca547cd8ac8dfbffd6,69b95efdef24cd8a694e89ee,69b960c9d64aca07156b56bc,0.3107,0.3107,1,81,243,143,1,eightseven,,,,,,,,,,,,,,,,,,,,,,,,,,,,,,,,,,,,,,,,,,,,,,,,,,,,,,,,,,,,,,,,,,,,,,,,,,,,,,,,,,,,,,,,,,,,,,,,,,,,,,,,,,,,,,,,,,,,,,,,,,,,,,,,,,,,,,,,,
,,673231ca547cd8ac8dfbffd6,2026-03-17_16h15.15.757,kallum_motion_pilot_GIST_update_2,2026.1.1,Win32,30.12048193,673231ca547cd8ac8dfbffd6,69b95efdef24cd8a694e89ee,69b960c9d64aca07156b56bc,0.3112,0.3112,1,82,244,51,1,twofour,,,,,,,,,,,,,,,,,,,,,,,,,,,,,,,,,,,,,,,,,,,,,,,,,,,,,,,,,,,,,,,,,,,,,,,,,,,,,,,,,,,,,,,,,,,,,,,,,,,,,,,,,,,,,,,,,,,,,,,,,,,,,,,,,,,,,,,,,
,,673231ca547cd8ac8dfbffd6,2026-03-17_16h15.15.757,kallum_motion_pilot_GIST_update_2,2026.1.1,Win32,30.12048193,673231ca547cd8ac8dfbffd6,69b95efdef24cd8a694e89ee,69b960c9d64aca07156b56bc,0.3117,0.3117,1,83,245,82,1,sixfive,,,,,,,,,,,,,,,,,,,,,,,,,,,,,,,,,,,,,,,,,,,,,,,,,,,,,,,,,,,,,,,,,,,,,,,,,,,,,,,,,,,,,,,,,,,,,,,,,,,,,,,,,,,,,,,,,,,,,,,,,,,,,,,,,,,,,,,,,
,,673231ca547cd8ac8dfbffd6,2026-03-17_16h15.15.757,kallum_motion_pilot_GIST_update_2,2026.1.1,Win32,30.12048193,673231ca547cd8ac8dfbffd6,69b95efdef24cd8a694e89ee,69b960c9d64aca07156b56bc,0.3124,0.3124,1,84,246,75,1,twofour,,,,,,,,,,,,,,,,,,,,,,,,,,,,,,,,,,,,,,,,,,,,,,,,,,,,,,,,,,,,,,,,,,,,,,,,,,,,,,,,,,,,,,,,,,,,,,,,,,,,,,,,,,,,,,,,,,,,,,,,,,,,,,,,,,,,,,,,,
,,673231ca547cd8ac8dfbffd6,2026-03-17_16h15.15.757,kallum_motion_pilot_GIST_update_2,2026.1.1,Win32,30.12048193,673231ca547cd8ac8dfbffd6,69b95efdef24cd8a694e89ee,69b960c9d64aca07156b56bc,0.3129,0.3129,1,85,247,155,1,sixeight,,,,,,,,,,,,,,,,,,,,,,,,,,,,,,,,,,,,,,,,,,,,,,,,,,,,,,,,,,,,,,,,,,,,,,,,,,,,,,,,,,,,,,,,,,,,,,,,,,,,,,,,,,,,,,,,,,,,,,,,,,,,,,,,,,,,,,,,,
,,673231ca547cd8ac8dfbffd6,2026-03-17_16h15.15.757,kallum_motion_pilot_GIST_update_2,2026.1.1,Win32,30.12048193,673231ca547cd8ac8dfbffd6,69b95efdef24cd8a694e89ee,69b960c9d64aca07156b56bc,0.3134,0.3135,1,86,248,113,1,fiveseven,,,,,,,,,,,,,,,,,,,,,,,,,,,,,,,,,,,,,,,,,,,,,,,,,,,,,,,,,,,,,,,,,,,,,,,,,,,,,,,,,,,,,,,,,,,,,,,,,,,,,,,,,,,,,,,,,,,,,,,,,,,,,,,,,,,,,,,,,
,,673231ca547cd8ac8dfbffd6,2026-03-17_16h15.15.757,kallum_motion_pilot_GIST_update_2,2026.1.1,Win32,30.12048193,673231ca547cd8ac8dfbffd6,69b95efdef24cd8a694e89ee,69b960c9d64aca07156b56bc,0.3144,0.3144,1,87,249,120,1,fivesix,,,,,,,,,,,,,,,,,,,,,,,,,,,,,,,,,,,,,,,,,,,,,,,,,,,,,,,,,,,,,,,,,,,,,,,,,,,,,,,,,,,,,,,,,,,,,,,,,,,,,,,,,,,,,,,,,,,,,,,,,,,,,,,,,,,,,,,,,
,,673231ca547cd8ac8dfbffd6,2026-03-17_16h15.15.757,kallum_motion_pilot_GIST_update_2,2026.1.1,Win32,30.12048193,673231ca547cd8ac8dfbffd6,69b95efdef24cd8a694e89ee,69b960c9d64aca07156b56bc,0.3152,0.3152,1,88,250,98,1,sixfive,,,,,,,,,,,,,,,,,,,,,,,,,,,,,,,,,,,,,,,,,,,,,,,,,,,,,,,,,,,,,,,,,,,,,,,,,,,,,,,,,,,,,,,,,,,,,,,,,,,,,,,,,,,,,,,,,,,,,,,,,,,,,,,,,,,,,,,,,
,,673231ca547cd8ac8dfbffd6,2026-03-17_16h15.15.757,kallum_motion_pilot_GIST_update_2,2026.1.1,Win32,30.12048193,673231ca547cd8ac8dfbffd6,69b95efdef24cd8a694e89ee,69b960c9d64aca07156b56bc,0.3158,0.3158,1,89,251,99,1,sixeight,,,,,,,,,,,,,,,,,,,,,,,,,,,,,,,,,,,,,,,,,,,,,,,,,,,,,,,,,,,,,,,,,,,,,,,,,,,,,,,,,,,,,,,,,,,,,,,,,,,,,,,,,,,,,,,,,,,,,,,,,,,,,,,,,,,,,,,,,
,,673231ca547cd8ac8dfbffd6,2026-03-17_16h15.15.757,kallum_motion_pilot_GIST_update_2,2026.1.1,Win32,30.12048193,673231ca547cd8ac8dfbffd6,69b95efdef24cd8a694e89ee,69b960c9d64aca07156b56bc,0.3163,0.3163,1,90,252,63,1,fourthree,,,,,,,,,,,,,,,,,,,,,,,,,,,,,,,,,,,,,,,,,,,,,,,,,,,,,,,,,,,,,,,,,,,,,,,,,,,,,,,,,,,,,,,,,,,,,,,,,,,,,,,,,,,,,,,,,,,,,,,,,,,,,,,,,,,,,,,,,
,,673231ca547cd8ac8dfbffd6,2026-03-17_16h15.15.757,kallum_motion_pilot_GIST_update_2,2026.1.1,Win32,30.12048193,673231ca547cd8ac8dfbffd6,69b95efdef24cd8a694e89ee,69b960c9d64aca07156b56bc,0.3168,0.3169,1,91,253,69,1,threefour,,,,,,,,,,,,,,,,,,,,,,,,,,,,,,,,,,,,,,,,,,,,,,,,,,,,,,,,,,,,,,,,,,,,,,,,,,,,,,,,,,,,,,,,,,,,,,,,,,,,,,,,,,,,,,,,,,,,,,,,,,,,,,,,,,,,,,,,,
,,673231ca547cd8ac8dfbffd6,2026-03-17_16h15.15.757,kallum_motion_pilot_GIST_update_2,2026.1.1,Win32,30.12048193,673231ca547cd8ac8dfbffd6,69b95efdef24cd8a694e89ee,69b960c9d64aca07156b56bc,0.3178,0.3178,1,92,254,161,1,fiveseven,,,,,,,,,,,,,,,,,,,,,,,,,,,,,,,,,,,,,,,,,,,,,,,,,,,,,,,,,,,,,,,,,,,,,,,,,,,,,,,,,,,,,,,,,,,,,,,,,,,,,,,,,,,,,,,,,,,,,,,,,,,,,,,,,,,,,,,,,
,,673231ca547cd8ac8dfbffd6,2026-03-17_16h15.15.757,kallum_motion_pilot_GIST_update_2,2026.1.1,Win32,30.12048193,673231ca547cd8ac8dfbffd6,69b95efdef24cd8a694e89ee,69b960c9d64aca07156b56bc,0.3188,0.3188,1,93,255,2,1,twoone,,,,,,,,,,,,,,,,,,,,,,,,,,,,,,,,,,,,,,,,,,,,,,,,,,,,,,,,,,,,,,,,,,,,,,,,,,,,,,,,,,,,,,,,,,,,,,,,,,,,,,,,,,,,,,,,,,,,,,,,,,,,,,,,,,,,,,,,,
,,673231ca547cd8ac8dfbffd6,2026-03-17_16h15.15.757,kallum_motion_pilot_GIST_update_2,2026.1.1,Win32,30.12048193,673231ca547cd8ac8dfbffd6,69b95efdef24cd8a694e89ee,69b960c9d64aca07156b56bc,0.3203,0.3203,1,94,256,137,1,fiveseven,,,,,,,,,,,,,,,,,,,,,,,,,,,,,,,,,,,,,,,,,,,,,,,,,,,,,,,,,,,,,,,,,,,,,,,,,,,,,,,,,,,,,,,,,,,,,,,,,,,,,,,,,,,,,,,,,,,,,,,,,,,,,,,,,,,,,,,,,
,,673231ca547cd8ac8dfbffd6,2026-03-17_16h15.15.757,kallum_motion_pilot_GIST_update_2,2026.1.1,Win32,30.12048193,673231ca547cd8ac8dfbffd6,69b95efdef24cd8a694e89ee,69b960c9d64aca07156b56bc,0.3253,0.3253,1,95,257,136,1,fivesix,,,,,,,,,,,,,,,,,,,,,,,,,,,,,,,,,,,,,,,,,,,,,,,,,,,,,,,,,,,,,,,,,,,,,,,,,,,,,,,,,,,,,,,,,,,,,,,,,,,,,,,,,,,,,,,,,,,,,,,,,,,,,,,,,,,,,,,,,
,,673231ca547cd8ac8dfbffd6,2026-03-17_16h15.15.757,kallum_motion_pilot_GIST_update_2,2026.1.1,Win32,30.12048193,673231ca547cd8ac8dfbffd6,69b95efdef24cd8a694e89ee,69b960c9d64aca07156b56bc,0.3262,0.3263,1,96,258,134,1,eightsix,,,,,,,,,,,,,,,,,,,,,,,,,,,,,,,,,,,,,,,,,,,,,,,,,,,,,,,,,,,,,,,,,,,,,,,,,,,,,,,,,,,,,,,,,,,,,,,,,,,,,,,,,,,,,,,,,,,,,,,,,,,,,,,,,,,,,,,,,
,,673231ca547cd8ac8dfbffd6,2026-03-17_16h15.15.757,kallum_motion_pilot_GIST_update_2,2026.1.1,Win32,30.12048193,673231ca547cd8ac8dfbffd6,69b95efdef24cd8a694e89ee,69b960c9d64aca07156b56bc,0.3273,0.3273,1,97,259,100,1,sevenfive,,,,,,,,,,,,,,,,,,,,,,,,,,,,,,,,,,,,,,,,,,,,,,,,,,,,,,,,,,,,,,,,,,,,,,,,,,,,,,,,,,,,,,,,,,,,,,,,,,,,,,,,,,,,,,,,,,,,,,,,,,,,,,,,,,,,,,,,,
,,673231ca547cd8ac8dfbffd6,2026-03-17_16h15.15.757,kallum_motion_pilot_GIST_update_2,2026.1.1,Win32,30.12048193,673231ca547cd8ac8dfbffd6,69b95efdef24cd8a694e89ee,69b960c9d64aca07156b56bc,0.3281,0.3282,1,98,260,91,1,sixeight,,,,,,,,,,,,,,,,,,,,,,,,,,,,,,,,,,,,,,,,,,,,,,,,,,,,,,,,,,,,,,,,,,,,,,,,,,,,,,,,,,,,,,,,,,,,,,,,,,,,,,,,,,,,,,,,,,,,,,,,,,,,,,,,,,,,,,,,,
,,673231ca547cd8ac8dfbffd6,2026-03-17_16h15.15.757,kallum_motion_pilot_GIST_update_2,2026.1.1,Win32,30.12048193,673231ca547cd8ac8dfbffd6,69b95efdef24cd8a694e89ee,69b960c9d64aca07156b56bc,0.3291,0.3291,1,99,261,78,1,fourtwo,,,,,,,,,,,,,,,,,,,,,,,,,,,,,,,,,,,,,,,,,,,,,,,,,,,,,,,,,,,,,,,,,,,,,,,,,,,,,,,,,,,,,,,,,,,,,,,,,,,,,,,,,,,,,,,,,,,,,,,,,,,,,,,,,,,,,,,,,
,,673231ca547cd8ac8dfbffd6,2026-03-17_16h15.15.757,kallum_motion_pilot_GIST_update_2,2026.1.1,Win32,30.12048193,673231ca547cd8ac8dfbffd6,69b95efdef24cd8a694e89ee,69b960c9d64aca07156b56bc,0.3301,0.3301,1,100,262,56,1,onetwo,,,,,,,,,,,,,,,,,,,,,,,,,,,,,,,,,,,,,,,,,,,,,,,,,,,,,,,,,,,,,,,,,,,,,,,,,,,,,,,,,,,,,,,,,,,,,,,,,,,,,,,,,,,,,,,,,,,,,,,,,,,,,,,,,,,,,,,,,
,,673231ca547cd8ac8dfbffd6,2026-03-17_16h15.15.757,kallum_motion_pilot_GIST_update_2,2026.1.1,Win32,30.12048193,673231ca547cd8ac8dfbffd6,69b95efdef24cd8a694e89ee,69b960c9d64aca07156b56bc,0.3311,0.3311,1,101,263,41,1,onethree,,,,,,,,,,,,,,,,,,,,,,,,,,,,,,,,,,,,,,,,,,,,,,,,,,,,,,,,,,,,,,,,,,,,,,,,,,,,,,,,,,,,,,,,,,,,,,,,,,,,,,,,,,,,,,,,,,,,,,,,,,,,,,,,,,,,,,,,,
,,673231ca547cd8ac8dfbffd6,2026-03-17_16h15.15.757,kallum_motion_pilot_GIST_update_2,2026.1.1,Win32,30.12048193,673231ca547cd8ac8dfbffd6,69b95efdef24cd8a694e89ee,69b960c9d64aca07156b56bc,0.3321,0.3321,1,102,264,18,1,twoone,,,,,,,,,,,,,,,,,,,,,,,,,,,,,,,,,,,,,,,,,,,,,,,,,,,,,,,,,,,,,,,,,,,,,,,,,,,,,,,,,,,,,,,,,,,,,,,,,,,,,,,,,,,,,,,,,,,,,,,,,,,,,,,,,,,,,,,,,
,,673231ca547cd8ac8dfbffd6,2026-03-17_16h15.15.757,kallum_motion_pilot_GIST_update_2,2026.1.1,Win32,30.12048193,673231ca547cd8ac8dfbffd6,69b95efdef24cd8a694e89ee,69b960c9d64aca07156b56bc,0.3329,0.333,1,103,265,10,1,twoone,,,,,,,,,,,,,,,,,,,,,,,,,,,,,,,,,,,,,,,,,,,,,,,,,,,,,,,,,,,,,,,,,,,,,,,,,,,,,,,,,,,,,,,,,,,,,,,,,,,,,,,,,,,,,,,,,,,,,,,,,,,,,,,,,,,,,,,,,
,,673231ca547cd8ac8dfbffd6,2026-03-17_16h15.15.757,kallum_motion_pilot_GIST_update_2,2026.1.1,Win32,30.12048193,673231ca547cd8ac8dfbffd6,69b95efdef24cd8a694e89ee,69b960c9d64aca07156b56bc,0.3357,0.3358,1,104,266,25,1,onethree,,,,,,,,,,,,,,,,,,,,,,,,,,,,,,,,,,,,,,,,,,,,,,,,,,,,,,,,,,,,,,,,,,,,,,,,,,,,,,,,,,,,,,,,,,,,,,,,,,,,,,,,,,,,,,,,,,,,,,,,,,,,,,,,,,,,,,,,,
