startup.started,startup.stopped,Prolific ID*,date,expName,psychopyVersion,OS,frameRate,participant,study_id,session,stimpositions.started,stimpositions.stopped,hardcoded_stimulus_positions.thisRepN,hardcoded_stimulus_positions.thisTrialN,hardcoded_stimulus_positions.thisN,hardcoded_stimulus_positions.thisIndex,hardcoded_stimulus_positions.ran,StimulusPos,stimorientation.started,stimorientation.stopped,prac_stimorientation_import_loop.thisRepN,prac_stimorientation_import_loop.thisTrialN,prac_stimorientation_import_loop.thisN,prac_stimorientation_import_loop.thisIndex,prac_stimorientation_import_loop.ran,Stimorientation,welcome_instr.started,welcome_instr.stopped,key_resp.keys,key_resp.rt,key_resp.duration,response_steppedout_1.started,response_steppedout_1.stopped,key_resp_20.keys,key_resp_20.rt,key_resp_20.duration,response_steppedout_2.started,response_steppedout_2.stopped,key_resp_19.keys,key_resp_19.rt,key_resp_19.duration,stim_response_instr.started,stim_response_instr.stopped,key_resp_15.keys,key_resp_15.rt,key_resp_15.duration,direction_instr_2.started,direction_instr_2.stopped,key_resp_9.keys,key_resp_9.rt,key_resp_9.duration,instr_prac.started,instr_prac.stopped,key_resp_10.keys,key_resp_10.rt,key_resp_10.duration,Stim1_display_prac.started,Stim1_display_prac.stopped,Ecc,Circle1_ori,Circle2_ori,response_prac.started,similarity,response_time,response_prac.stopped,mouse_5.x,mouse_5.y,mouse_5.leftButton,mouse_5.midButton,mouse_5.rightButton,mouse_5.clicked_name,responseprac_feedback.started,responseprac_feedback.stopped,summary2_prac.started,summary2_prac.stopped,mouse_6.x,mouse_6.y,mouse_6.leftButton,mouse_6.midButton,mouse_6.rightButton,mouse_6.clicked_name,duringprac.thisRepN,duringprac.thisTrialN,duringprac.thisN,duringprac.thisIndex,duringprac.ran,begin.started,begin.stopped,key_resp_22.keys,key_resp_22.rt,key_resp_22.duration,Stim1_display.started,Stim1_display.stopped,circle1_ori,circle2_ori,circle1_SF,circle2_SF,response.started,response.stopped,mouse.x,mouse.y,mouse.leftButton,mouse.midButton,mouse.rightButton,mouse.clicked_name,trialnumber,double_pass.thisRepN,double_pass.thisTrialN,double_pass.thisN,double_pass.thisIndex,double_pass.ran,double_pass.order,main_trial.thisRepN,main_trial.thisTrialN,main_trial.thisN,main_trial.thisIndex,main_trial.ran,main_trial.order,Trial_Counter,Catch,Frequencies,response_2.started,response_2.stopped,mouse_2.x,mouse_2.y,mouse_2.leftButton,mouse_2.midButton,mouse_2.rightButton,mouse_2.clicked_name,special_trial.started,special_trial.stopped,catch_1.started,catch_1.stopped,mouse_3.x,mouse_3.y,mouse_3.leftButton,mouse_3.midButton,mouse_3.rightButton,catchresponse,catchnumber,response_time_catch,response_sum.started,response_sum.stopped,mouse_11.x,mouse_11.y,mouse_11.leftButton,mouse_11.midButton,mouse_11.rightButton,flip_presentation_sequence_for_double_pass.started,flip_presentation_sequence_for_double_pass.stopped,goodbye.started,goodbye.stopped,key_resp_3.keys,key_resp_3.rt,key_resp_3.duration
0.0002,0.0003,6733d850215fd59debe051ab,2026-03-17_16h07.49.350,kallum_motion_pilot_GIST_update_2,2026.1.1,Win32,59.52380952,6733d850215fd59debe051ab,69b95efdef24cd8a694e89ee,69b96017d51c210ab009ca9b,,,,,,,,,,,,,,,,,,,,,,,,,,,,,,,,,,,,,,,,,,,,,,,,,,,,,,,,,,,,,,,,,,,,,,,,,,,,,,,,,,,,,,,,,,,,,,,,,,,,,,,,,,,,,,,,,,,,,,,,,,,,,,,,,,,,,,,,,,,,,,,,,
,,6733d850215fd59debe051ab,2026-03-17_16h07.49.350,kallum_motion_pilot_GIST_update_2,2026.1.1,Win32,59.52380952,6733d850215fd59debe051ab,69b95efdef24cd8a694e89ee,69b96017d51c210ab009ca9b,0.0183,0.0183,0,0,0,70,1,fourtwo,,,,,,,,,,,,,,,,,,,,,,,,,,,,,,,,,,,,,,,,,,,,,,,,,,,,,,,,,,,,,,,,,,,,,,,,,,,,,,,,,,,,,,,,,,,,,,,,,,,,,,,,,,,,,,,,,,,,,,,,,,,,,,,,,,,,,,,,,
,,6733d850215fd59debe051ab,2026-03-17_16h07.49.350,kallum_motion_pilot_GIST_update_2,2026.1.1,Win32,59.52380952,6733d850215fd59debe051ab,69b95efdef24cd8a694e89ee,69b96017d51c210ab009ca9b,0.0185,0.0185,0,1,1,40,1,onetwo,,,,,,,,,,,,,,,,,,,,,,,,,,,,,,,,,,,,,,,,,,,,,,,,,,,,,,,,,,,,,,,,,,,,,,,,,,,,,,,,,,,,,,,,,,,,,,,,,,,,,,,,,,,,,,,,,,,,,,,,,,,,,,,,,,,,,,,,,
,,6733d850215fd59debe051ab,2026-03-17_16h07.49.350,kallum_motion_pilot_GIST_update_2,2026.1.1,Win32,59.52380952,6733d850215fd59debe051ab,69b95efdef24cd8a694e89ee,69b96017d51c210ab009ca9b,0.0186,0.0186,0,2,2,80,1,fivesix,,,,,,,,,,,,,,,,,,,,,,,,,,,,,,,,,,,,,,,,,,,,,,,,,,,,,,,,,,,,,,,,,,,,,,,,,,,,,,,,,,,,,,,,,,,,,,,,,,,,,,,,,,,,,,,,,,,,,,,,,,,,,,,,,,,,,,,,,
,,6733d850215fd59debe051ab,2026-03-17_16h07.49.350,kallum_motion_pilot_GIST_update_2,2026.1.1,Win32,59.52380952,6733d850215fd59debe051ab,69b95efdef24cd8a694e89ee,69b96017d51c210ab009ca9b,0.0188,0.0188,0,3,3,30,1,fourtwo,,,,,,,,,,,,,,,,,,,,,,,,,,,,,,,,,,,,,,,,,,,,,,,,,,,,,,,,,,,,,,,,,,,,,,,,,,,,,,,,,,,,,,,,,,,,,,,,,,,,,,,,,,,,,,,,,,,,,,,,,,,,,,,,,,,,,,,,,
,,6733d850215fd59debe051ab,2026-03-17_16h07.49.350,kallum_motion_pilot_GIST_update_2,2026.1.1,Win32,59.52380952,6733d850215fd59debe051ab,69b95efdef24cd8a694e89ee,69b96017d51c210ab009ca9b,0.0188,0.0188,0,4,4,155,1,sixeight,,,,,,,,,,,,,,,,,,,,,,,,,,,,,,,,,,,,,,,,,,,,,,,,,,,,,,,,,,,,,,,,,,,,,,,,,,,,,,,,,,,,,,,,,,,,,,,,,,,,,,,,,,,,,,,,,,,,,,,,,,,,,,,,,,,,,,,,,
,,6733d850215fd59debe051ab,2026-03-17_16h07.49.350,kallum_motion_pilot_GIST_update_2,2026.1.1,Win32,59.52380952,6733d850215fd59debe051ab,69b95efdef24cd8a694e89ee,69b96017d51c210ab009ca9b,0.019,0.019,0,5,5,8,1,onetwo,,,,,,,,,,,,,,,,,,,,,,,,,,,,,,,,,,,,,,,,,,,,,,,,,,,,,,,,,,,,,,,,,,,,,,,,,,,,,,,,,,,,,,,,,,,,,,,,,,,,,,,,,,,,,,,,,,,,,,,,,,,,,,,,,,,,,,,,,
,,6733d850215fd59debe051ab,2026-03-17_16h07.49.350,kallum_motion_pilot_GIST_update_2,2026.1.1,Win32,59.52380952,6733d850215fd59debe051ab,69b95efdef24cd8a694e89ee,69b96017d51c210ab009ca9b,0.019,0.019,0,6,6,143,1,eightseven,,,,,,,,,,,,,,,,,,,,,,,,,,,,,,,,,,,,,,,,,,,,,,,,,,,,,,,,,,,,,,,,,,,,,,,,,,,,,,,,,,,,,,,,,,,,,,,,,,,,,,,,,,,,,,,,,,,,,,,,,,,,,,,,,,,,,,,,,
,,6733d850215fd59debe051ab,2026-03-17_16h07.49.350,kallum_motion_pilot_GIST_update_2,2026.1.1,Win32,59.52380952,6733d850215fd59debe051ab,69b95efdef24cd8a694e89ee,69b96017d51c210ab009ca9b,0.0191,0.0191,0,7,7,37,1,threefour,,,,,,,,,,,,,,,,,,,,,,,,,,,,,,,,,,,,,,,,,,,,,,,,,,,,,,,,,,,,,,,,,,,,,,,,,,,,,,,,,,,,,,,,,,,,,,,,,,,,,,,,,,,,,,,,,,,,,,,,,,,,,,,,,,,,,,,,,
,,6733d850215fd59debe051ab,2026-03-17_16h07.49.350,kallum_motion_pilot_GIST_update_2,2026.1.1,Win32,59.52380952,6733d850215fd59debe051ab,69b95efdef24cd8a694e89ee,69b96017d51c210ab009ca9b,0.0191,0.0191,0,8,8,159,1,eightseven,,,,,,,,,,,,,,,,,,,,,,,,,,,,,,,,,,,,,,,,,,,,,,,,,,,,,,,,,,,,,,,,,,,,,,,,,,,,,,,,,,,,,,,,,,,,,,,,,,,,,,,,,,,,,,,,,,,,,,,,,,,,,,,,,,,,,,,,,
,,6733d850215fd59debe051ab,2026-03-17_16h07.49.350,kallum_motion_pilot_GIST_update_2,2026.1.1,Win32,59.52380952,6733d850215fd59debe051ab,69b95efdef24cd8a694e89ee,69b96017d51c210ab009ca9b,0.0193,0.0193,0,9,9,67,1,twofour,,,,,,,,,,,,,,,,,,,,,,,,,,,,,,,,,,,,,,,,,,,,,,,,,,,,,,,,,,,,,,,,,,,,,,,,,,,,,,,,,,,,,,,,,,,,,,,,,,,,,,,,,,,,,,,,,,,,,,,,,,,,,,,,,,,,,,,,,
,,6733d850215fd59debe051ab,2026-03-17_16h07.49.350,kallum_motion_pilot_GIST_update_2,2026.1.1,Win32,59.52380952,6733d850215fd59debe051ab,69b95efdef24cd8a694e89ee,69b96017d51c210ab009ca9b,0.0193,0.0193,0,10,10,99,1,sixeight,,,,,,,,,,,,,,,,,,,,,,,,,,,,,,,,,,,,,,,,,,,,,,,,,,,,,,,,,,,,,,,,,,,,,,,,,,,,,,,,,,,,,,,,,,,,,,,,,,,,,,,,,,,,,,,,,,,,,,,,,,,,,,,,,,,,,,,,,
,,6733d850215fd59debe051ab,2026-03-17_16h07.49.350,kallum_motion_pilot_GIST_update_2,2026.1.1,Win32,59.52380952,6733d850215fd59debe051ab,69b95efdef24cd8a694e89ee,69b96017d51c210ab009ca9b,0.0194,0.0194,0,11,11,100,1,sevenfive,,,,,,,,,,,,,,,,,,,,,,,,,,,,,,,,,,,,,,,,,,,,,,,,,,,,,,,,,,,,,,,,,,,,,,,,,,,,,,,,,,,,,,,,,,,,,,,,,,,,,,,,,,,,,,,,,,,,,,,,,,,,,,,,,,,,,,,,,
,,6733d850215fd59debe051ab,2026-03-17_16h07.49.350,kallum_motion_pilot_GIST_update_2,2026.1.1,Win32,59.52380952,6733d850215fd59debe051ab,69b95efdef24cd8a694e89ee,69b96017d51c210ab009ca9b,0.0195,0.0195,0,12,12,79,1,eightseven,,,,,,,,,,,,,,,,,,,,,,,,,,,,,,,,,,,,,,,,,,,,,,,,,,,,,,,,,,,,,,,,,,,,,,,,,,,,,,,,,,,,,,,,,,,,,,,,,,,,,,,,,,,,,,,,,,,,,,,,,,,,,,,,,,,,,,,,,
,,6733d850215fd59debe051ab,2026-03-17_16h07.49.350,kallum_motion_pilot_GIST_update_2,2026.1.1,Win32,59.52380952,6733d850215fd59debe051ab,69b95efdef24cd8a694e89ee,69b96017d51c210ab009ca9b,0.0206,0.0206,0,13,13,148,1,sevenfive,,,,,,,,,,,,,,,,,,,,,,,,,,,,,,,,,,,,,,,,,,,,,,,,,,,,,,,,,,,,,,,,,,,,,,,,,,,,,,,,,,,,,,,,,,,,,,,,,,,,,,,,,,,,,,,,,,,,,,,,,,,,,,,,,,,,,,,,,
,,6733d850215fd59debe051ab,2026-03-17_16h07.49.350,kallum_motion_pilot_GIST_update_2,2026.1.1,Win32,59.52380952,6733d850215fd59debe051ab,69b95efdef24cd8a694e89ee,69b96017d51c210ab009ca9b,0.0207,0.0207,0,14,14,10,1,twoone,,,,,,,,,,,,,,,,,,,,,,,,,,,,,,,,,,,,,,,,,,,,,,,,,,,,,,,,,,,,,,,,,,,,,,,,,,,,,,,,,,,,,,,,,,,,,,,,,,,,,,,,,,,,,,,,,,,,,,,,,,,,,,,,,,,,,,,,,
,,6733d850215fd59debe051ab,2026-03-17_16h07.49.350,kallum_motion_pilot_GIST_update_2,2026.1.1,Win32,59.52380952,6733d850215fd59debe051ab,69b95efdef24cd8a694e89ee,69b96017d51c210ab009ca9b,0.0207,0.0207,0,15,15,115,1,sixeight,,,,,,,,,,,,,,,,,,,,,,,,,,,,,,,,,,,,,,,,,,,,,,,,,,,,,,,,,,,,,,,,,,,,,,,,,,,,,,,,,,,,,,,,,,,,,,,,,,,,,,,,,,,,,,,,,,,,,,,,,,,,,,,,,,,,,,,,,
,,6733d850215fd59debe051ab,2026-03-17_16h07.49.350,kallum_motion_pilot_GIST_update_2,2026.1.1,Win32,59.52380952,6733d850215fd59debe051ab,69b95efdef24cd8a694e89ee,69b96017d51c210ab009ca9b,0.0208,0.0208,0,16,16,5,1,threefour,,,,,,,,,,,,,,,,,,,,,,,,,,,,,,,,,,,,,,,,,,,,,,,,,,,,,,,,,,,,,,,,,,,,,,,,,,,,,,,,,,,,,,,,,,,,,,,,,,,,,,,,,,,,,,,,,,,,,,,,,,,,,,,,,,,,,,,,,
,,6733d850215fd59debe051ab,2026-03-17_16h07.49.350,kallum_motion_pilot_GIST_update_2,2026.1.1,Win32,59.52380952,6733d850215fd59debe051ab,69b95efdef24cd8a694e89ee,69b96017d51c210ab009ca9b,0.0209,0.0209,0,17,17,113,1,fiveseven,,,,,,,,,,,,,,,,,,,,,,,,,,,,,,,,,,,,,,,,,,,,,,,,,,,,,,,,,,,,,,,,,,,,,,,,,,,,,,,,,,,,,,,,,,,,,,,,,,,,,,,,,,,,,,,,,,,,,,,,,,,,,,,,,,,,,,,,,
,,6733d850215fd59debe051ab,2026-03-17_16h07.49.350,kallum_motion_pilot_GIST_update_2,2026.1.1,Win32,59.52380952,6733d850215fd59debe051ab,69b95efdef24cd8a694e89ee,69b96017d51c210ab009ca9b,0.021,0.021,0,18,18,157,1,seveneight,,,,,,,,,,,,,,,,,,,,,,,,,,,,,,,,,,,,,,,,,,,,,,,,,,,,,,,,,,,,,,,,,,,,,,,,,,,,,,,,,,,,,,,,,,,,,,,,,,,,,,,,,,,,,,,,,,,,,,,,,,,,,,,,,,,,,,,,,
,,6733d850215fd59debe051ab,2026-03-17_16h07.49.350,kallum_motion_pilot_GIST_update_2,2026.1.1,Win32,59.52380952,6733d850215fd59debe051ab,69b95efdef24cd8a694e89ee,69b96017d51c210ab009ca9b,0.021,0.021,0,19,19,156,1,sevenfive,,,,,,,,,,,,,,,,,,,,,,,,,,,,,,,,,,,,,,,,,,,,,,,,,,,,,,,,,,,,,,,,,,,,,,,,,,,,,,,,,,,,,,,,,,,,,,,,,,,,,,,,,,,,,,,,,,,,,,,,,,,,,,,,,,,,,,,,,
,,6733d850215fd59debe051ab,2026-03-17_16h07.49.350,kallum_motion_pilot_GIST_update_2,2026.1.1,Win32,59.52380952,6733d850215fd59debe051ab,69b95efdef24cd8a694e89ee,69b96017d51c210ab009ca9b,0.021,0.021,0,20,20,94,1,eightsix,,,,,,,,,,,,,,,,,,,,,,,,,,,,,,,,,,,,,,,,,,,,,,,,,,,,,,,,,,,,,,,,,,,,,,,,,,,,,,,,,,,,,,,,,,,,,,,,,,,,,,,,,,,,,,,,,,,,,,,,,,,,,,,,,,,,,,,,,
,,6733d850215fd59debe051ab,2026-03-17_16h07.49.350,kallum_motion_pilot_GIST_update_2,2026.1.1,Win32,59.52380952,6733d850215fd59debe051ab,69b95efdef24cd8a694e89ee,69b96017d51c210ab009ca9b,0.0212,0.0212,0,21,21,74,1,twoone,,,,,,,,,,,,,,,,,,,,,,,,,,,,,,,,,,,,,,,,,,,,,,,,,,,,,,,,,,,,,,,,,,,,,,,,,,,,,,,,,,,,,,,,,,,,,,,,,,,,,,,,,,,,,,,,,,,,,,,,,,,,,,,,,,,,,,,,,
,,6733d850215fd59debe051ab,2026-03-17_16h07.49.350,kallum_motion_pilot_GIST_update_2,2026.1.1,Win32,59.52380952,6733d850215fd59debe051ab,69b95efdef24cd8a694e89ee,69b96017d51c210ab009ca9b,0.0212,0.0212,0,22,22,110,1,eightsix,,,,,,,,,,,,,,,,,,,,,,,,,,,,,,,,,,,,,,,,,,,,,,,,,,,,,,,,,,,,,,,,,,,,,,,,,,,,,,,,,,,,,,,,,,,,,,,,,,,,,,,,,,,,,,,,,,,,,,,,,,,,,,,,,,,,,,,,,
,,6733d850215fd59debe051ab,2026-03-17_16h07.49.350,kallum_motion_pilot_GIST_update_2,2026.1.1,Win32,59.52380952,6733d850215fd59debe051ab,69b95efdef24cd8a694e89ee,69b96017d51c210ab009ca9b,0.0212,0.0212,0,23,23,7,1,fourthree,,,,,,,,,,,,,,,,,,,,,,,,,,,,,,,,,,,,,,,,,,,,,,,,,,,,,,,,,,,,,,,,,,,,,,,,,,,,,,,,,,,,,,,,,,,,,,,,,,,,,,,,,,,,,,,,,,,,,,,,,,,,,,,,,,,,,,,,,
,,6733d850215fd59debe051ab,2026-03-17_16h07.49.350,kallum_motion_pilot_GIST_update_2,2026.1.1,Win32,59.52380952,6733d850215fd59debe051ab,69b95efdef24cd8a694e89ee,69b96017d51c210ab009ca9b,0.0213,0.0213,0,24,24,108,1,sevenfive,,,,,,,,,,,,,,,,,,,,,,,,,,,,,,,,,,,,,,,,,,,,,,,,,,,,,,,,,,,,,,,,,,,,,,,,,,,,,,,,,,,,,,,,,,,,,,,,,,,,,,,,,,,,,,,,,,,,,,,,,,,,,,,,,,,,,,,,,
,,6733d850215fd59debe051ab,2026-03-17_16h07.49.350,kallum_motion_pilot_GIST_update_2,2026.1.1,Win32,59.52380952,6733d850215fd59debe051ab,69b95efdef24cd8a694e89ee,69b96017d51c210ab009ca9b,0.0215,0.0215,0,25,25,58,1,twoone,,,,,,,,,,,,,,,,,,,,,,,,,,,,,,,,,,,,,,,,,,,,,,,,,,,,,,,,,,,,,,,,,,,,,,,,,,,,,,,,,,,,,,,,,,,,,,,,,,,,,,,,,,,,,,,,,,,,,,,,,,,,,,,,,,,,,,,,,
,,6733d850215fd59debe051ab,2026-03-17_16h07.49.350,kallum_motion_pilot_GIST_update_2,2026.1.1,Win32,59.52380952,6733d850215fd59debe051ab,69b95efdef24cd8a694e89ee,69b96017d51c210ab009ca9b,0.0216,0.0216,0,26,26,112,1,fivesix,,,,,,,,,,,,,,,,,,,,,,,,,,,,,,,,,,,,,,,,,,,,,,,,,,,,,,,,,,,,,,,,,,,,,,,,,,,,,,,,,,,,,,,,,,,,,,,,,,,,,,,,,,,,,,,,,,,,,,,,,,,,,,,,,,,,,,,,,
,,6733d850215fd59debe051ab,2026-03-17_16h07.49.350,kallum_motion_pilot_GIST_update_2,2026.1.1,Win32,59.52380952,6733d850215fd59debe051ab,69b95efdef24cd8a694e89ee,69b96017d51c210ab009ca9b,0.0217,0.0217,0,27,27,127,1,eightseven,,,,,,,,,,,,,,,,,,,,,,,,,,,,,,,,,,,,,,,,,,,,,,,,,,,,,,,,,,,,,,,,,,,,,,,,,,,,,,,,,,,,,,,,,,,,,,,,,,,,,,,,,,,,,,,,,,,,,,,,,,,,,,,,,,,,,,,,,
,,6733d850215fd59debe051ab,2026-03-17_16h07.49.350,kallum_motion_pilot_GIST_update_2,2026.1.1,Win32,59.52380952,6733d850215fd59debe051ab,69b95efdef24cd8a694e89ee,69b96017d51c210ab009ca9b,0.0218,0.0218,0,28,28,95,1,eightseven,,,,,,,,,,,,,,,,,,,,,,,,,,,,,,,,,,,,,,,,,,,,,,,,,,,,,,,,,,,,,,,,,,,,,,,,,,,,,,,,,,,,,,,,,,,,,,,,,,,,,,,,,,,,,,,,,,,,,,,,,,,,,,,,,,,,,,,,,
,,6733d850215fd59debe051ab,2026-03-17_16h07.49.350,kallum_motion_pilot_GIST_update_2,2026.1.1,Win32,59.52380952,6733d850215fd59debe051ab,69b95efdef24cd8a694e89ee,69b96017d51c210ab009ca9b,0.0219,0.0219,0,29,29,98,1,sixfive,,,,,,,,,,,,,,,,,,,,,,,,,,,,,,,,,,,,,,,,,,,,,,,,,,,,,,,,,,,,,,,,,,,,,,,,,,,,,,,,,,,,,,,,,,,,,,,,,,,,,,,,,,,,,,,,,,,,,,,,,,,,,,,,,,,,,,,,,
,,6733d850215fd59debe051ab,2026-03-17_16h07.49.350,kallum_motion_pilot_GIST_update_2,2026.1.1,Win32,59.52380952,6733d850215fd59debe051ab,69b95efdef24cd8a694e89ee,69b96017d51c210ab009ca9b,0.022,0.022,0,30,30,12,1,threeone,,,,,,,,,,,,,,,,,,,,,,,,,,,,,,,,,,,,,,,,,,,,,,,,,,,,,,,,,,,,,,,,,,,,,,,,,,,,,,,,,,,,,,,,,,,,,,,,,,,,,,,,,,,,,,,,,,,,,,,,,,,,,,,,,,,,,,,,,
,,6733d850215fd59debe051ab,2026-03-17_16h07.49.350,kallum_motion_pilot_GIST_update_2,2026.1.1,Win32,59.52380952,6733d850215fd59debe051ab,69b95efdef24cd8a694e89ee,69b96017d51c210ab009ca9b,0.022,0.022,0,31,31,145,1,fiveseven,,,,,,,,,,,,,,,,,,,,,,,,,,,,,,,,,,,,,,,,,,,,,,,,,,,,,,,,,,,,,,,,,,,,,,,,,,,,,,,,,,,,,,,,,,,,,,,,,,,,,,,,,,,,,,,,,,,,,,,,,,,,,,,,,,,,,,,,,
,,6733d850215fd59debe051ab,2026-03-17_16h07.49.350,kallum_motion_pilot_GIST_update_2,2026.1.1,Win32,59.52380952,6733d850215fd59debe051ab,69b95efdef24cd8a694e89ee,69b96017d51c210ab009ca9b,0.0222,0.0222,0,32,32,27,1,twofour,,,,,,,,,,,,,,,,,,,,,,,,,,,,,,,,,,,,,,,,,,,,,,,,,,,,,,,,,,,,,,,,,,,,,,,,,,,,,,,,,,,,,,,,,,,,,,,,,,,,,,,,,,,,,,,,,,,,,,,,,,,,,,,,,,,,,,,,,
,,6733d850215fd59debe051ab,2026-03-17_16h07.49.350,kallum_motion_pilot_GIST_update_2,2026.1.1,Win32,59.52380952,6733d850215fd59debe051ab,69b95efdef24cd8a694e89ee,69b96017d51c210ab009ca9b,0.0223,0.0223,0,33,33,87,1,eightseven,,,,,,,,,,,,,,,,,,,,,,,,,,,,,,,,,,,,,,,,,,,,,,,,,,,,,,,,,,,,,,,,,,,,,,,,,,,,,,,,,,,,,,,,,,,,,,,,,,,,,,,,,,,,,,,,,,,,,,,,,,,,,,,,,,,,,,,,,
,,6733d850215fd59debe051ab,2026-03-17_16h07.49.350,kallum_motion_pilot_GIST_update_2,2026.1.1,Win32,59.52380952,6733d850215fd59debe051ab,69b95efdef24cd8a694e89ee,69b96017d51c210ab009ca9b,0.0223,0.0223,0,34,34,160,1,fivesix,,,,,,,,,,,,,,,,,,,,,,,,,,,,,,,,,,,,,,,,,,,,,,,,,,,,,,,,,,,,,,,,,,,,,,,,,,,,,,,,,,,,,,,,,,,,,,,,,,,,,,,,,,,,,,,,,,,,,,,,,,,,,,,,,,,,,,,,,
,,6733d850215fd59debe051ab,2026-03-17_16h07.49.350,kallum_motion_pilot_GIST_update_2,2026.1.1,Win32,59.52380952,6733d850215fd59debe051ab,69b95efdef24cd8a694e89ee,69b96017d51c210ab009ca9b,0.0224,0.0224,0,35,35,45,1,threefour,,,,,,,,,,,,,,,,,,,,,,,,,,,,,,,,,,,,,,,,,,,,,,,,,,,,,,,,,,,,,,,,,,,,,,,,,,,,,,,,,,,,,,,,,,,,,,,,,,,,,,,,,,,,,,,,,,,,,,,,,,,,,,,,,,,,,,,,,
,,6733d850215fd59debe051ab,2026-03-17_16h07.49.350,kallum_motion_pilot_GIST_update_2,2026.1.1,Win32,59.52380952,6733d850215fd59debe051ab,69b95efdef24cd8a694e89ee,69b96017d51c210ab009ca9b,0.0225,0.0225,0,36,36,86,1,eightsix,,,,,,,,,,,,,,,,,,,,,,,,,,,,,,,,,,,,,,,,,,,,,,,,,,,,,,,,,,,,,,,,,,,,,,,,,,,,,,,,,,,,,,,,,,,,,,,,,,,,,,,,,,,,,,,,,,,,,,,,,,,,,,,,,,,,,,,,,
,,6733d850215fd59debe051ab,2026-03-17_16h07.49.350,kallum_motion_pilot_GIST_update_2,2026.1.1,Win32,59.52380952,6733d850215fd59debe051ab,69b95efdef24cd8a694e89ee,69b96017d51c210ab009ca9b,0.0225,0.0225,0,37,37,83,1,sixeight,,,,,,,,,,,,,,,,,,,,,,,,,,,,,,,,,,,,,,,,,,,,,,,,,,,,,,,,,,,,,,,,,,,,,,,,,,,,,,,,,,,,,,,,,,,,,,,,,,,,,,,,,,,,,,,,,,,,,,,,,,,,,,,,,,,,,,,,,
,,6733d850215fd59debe051ab,2026-03-17_16h07.49.350,kallum_motion_pilot_GIST_update_2,2026.1.1,Win32,59.52380952,6733d850215fd59debe051ab,69b95efdef24cd8a694e89ee,69b96017d51c210ab009ca9b,0.0225,0.0225,0,38,38,102,1,eightsix,,,,,,,,,,,,,,,,,,,,,,,,,,,,,,,,,,,,,,,,,,,,,,,,,,,,,,,,,,,,,,,,,,,,,,,,,,,,,,,,,,,,,,,,,,,,,,,,,,,,,,,,,,,,,,,,,,,,,,,,,,,,,,,,,,,,,,,,,
,,6733d850215fd59debe051ab,2026-03-17_16h07.49.350,kallum_motion_pilot_GIST_update_2,2026.1.1,Win32,59.52380952,6733d850215fd59debe051ab,69b95efdef24cd8a694e89ee,69b96017d51c210ab009ca9b,0.0226,0.0226,0,39,39,139,1,sixeight,,,,,,,,,,,,,,,,,,,,,,,,,,,,,,,,,,,,,,,,,,,,,,,,,,,,,,,,,,,,,,,,,,,,,,,,,,,,,,,,,,,,,,,,,,,,,,,,,,,,,,,,,,,,,,,,,,,,,,,,,,,,,,,,,,,,,,,,,
,,6733d850215fd59debe051ab,2026-03-17_16h07.49.350,kallum_motion_pilot_GIST_update_2,2026.1.1,Win32,59.52380952,6733d850215fd59debe051ab,69b95efdef24cd8a694e89ee,69b96017d51c210ab009ca9b,0.0227,0.0227,0,40,40,125,1,seveneight,,,,,,,,,,,,,,,,,,,,,,,,,,,,,,,,,,,,,,,,,,,,,,,,,,,,,,,,,,,,,,,,,,,,,,,,,,,,,,,,,,,,,,,,,,,,,,,,,,,,,,,,,,,,,,,,,,,,,,,,,,,,,,,,,,,,,,,,,
,,6733d850215fd59debe051ab,2026-03-17_16h07.49.350,kallum_motion_pilot_GIST_update_2,2026.1.1,Win32,59.52380952,6733d850215fd59debe051ab,69b95efdef24cd8a694e89ee,69b96017d51c210ab009ca9b,0.0228,0.0228,0,41,41,140,1,sevenfive,,,,,,,,,,,,,,,,,,,,,,,,,,,,,,,,,,,,,,,,,,,,,,,,,,,,,,,,,,,,,,,,,,,,,,,,,,,,,,,,,,,,,,,,,,,,,,,,,,,,,,,,,,,,,,,,,,,,,,,,,,,,,,,,,,,,,,,,,
,,6733d850215fd59debe051ab,2026-03-17_16h07.49.350,kallum_motion_pilot_GIST_update_2,2026.1.1,Win32,59.52380952,6733d850215fd59debe051ab,69b95efdef24cd8a694e89ee,69b96017d51c210ab009ca9b,0.0228,0.0228,0,42,42,152,1,fivesix,,,,,,,,,,,,,,,,,,,,,,,,,,,,,,,,,,,,,,,,,,,,,,,,,,,,,,,,,,,,,,,,,,,,,,,,,,,,,,,,,,,,,,,,,,,,,,,,,,,,,,,,,,,,,,,,,,,,,,,,,,,,,,,,,,,,,,,,,
,,6733d850215fd59debe051ab,2026-03-17_16h07.49.350,kallum_motion_pilot_GIST_update_2,2026.1.1,Win32,59.52380952,6733d850215fd59debe051ab,69b95efdef24cd8a694e89ee,69b96017d51c210ab009ca9b,0.0229,0.0229,0,43,43,123,1,sixeight,,,,,,,,,,,,,,,,,,,,,,,,,,,,,,,,,,,,,,,,,,,,,,,,,,,,,,,,,,,,,,,,,,,,,,,,,,,,,,,,,,,,,,,,,,,,,,,,,,,,,,,,,,,,,,,,,,,,,,,,,,,,,,,,,,,,,,,,,
,,6733d850215fd59debe051ab,2026-03-17_16h07.49.350,kallum_motion_pilot_GIST_update_2,2026.1.1,Win32,59.52380952,6733d850215fd59debe051ab,69b95efdef24cd8a694e89ee,69b96017d51c210ab009ca9b,0.0229,0.0229,0,44,44,117,1,seveneight,,,,,,,,,,,,,,,,,,,,,,,,,,,,,,,,,,,,,,,,,,,,,,,,,,,,,,,,,,,,,,,,,,,,,,,,,,,,,,,,,,,,,,,,,,,,,,,,,,,,,,,,,,,,,,,,,,,,,,,,,,,,,,,,,,,,,,,,,
,,6733d850215fd59debe051ab,2026-03-17_16h07.49.350,kallum_motion_pilot_GIST_update_2,2026.1.1,Win32,59.52380952,6733d850215fd59debe051ab,69b95efdef24cd8a694e89ee,69b96017d51c210ab009ca9b,0.023,0.023,0,45,45,84,1,sevenfive,,,,,,,,,,,,,,,,,,,,,,,,,,,,,,,,,,,,,,,,,,,,,,,,,,,,,,,,,,,,,,,,,,,,,,,,,,,,,,,,,,,,,,,,,,,,,,,,,,,,,,,,,,,,,,,,,,,,,,,,,,,,,,,,,,,,,,,,,
,,6733d850215fd59debe051ab,2026-03-17_16h07.49.350,kallum_motion_pilot_GIST_update_2,2026.1.1,Win32,59.52380952,6733d850215fd59debe051ab,69b95efdef24cd8a694e89ee,69b96017d51c210ab009ca9b,0.0231,0.0231,0,46,46,11,1,twofour,,,,,,,,,,,,,,,,,,,,,,,,,,,,,,,,,,,,,,,,,,,,,,,,,,,,,,,,,,,,,,,,,,,,,,,,,,,,,,,,,,,,,,,,,,,,,,,,,,,,,,,,,,,,,,,,,,,,,,,,,,,,,,,,,,,,,,,,,
,,6733d850215fd59debe051ab,2026-03-17_16h07.49.350,kallum_motion_pilot_GIST_update_2,2026.1.1,Win32,59.52380952,6733d850215fd59debe051ab,69b95efdef24cd8a694e89ee,69b96017d51c210ab009ca9b,0.0231,0.0231,0,47,47,161,1,fiveseven,,,,,,,,,,,,,,,,,,,,,,,,,,,,,,,,,,,,,,,,,,,,,,,,,,,,,,,,,,,,,,,,,,,,,,,,,,,,,,,,,,,,,,,,,,,,,,,,,,,,,,,,,,,,,,,,,,,,,,,,,,,,,,,,,,,,,,,,,
,,6733d850215fd59debe051ab,2026-03-17_16h07.49.350,kallum_motion_pilot_GIST_update_2,2026.1.1,Win32,59.52380952,6733d850215fd59debe051ab,69b95efdef24cd8a694e89ee,69b96017d51c210ab009ca9b,0.0233,0.0233,0,48,48,36,1,threeone,,,,,,,,,,,,,,,,,,,,,,,,,,,,,,,,,,,,,,,,,,,,,,,,,,,,,,,,,,,,,,,,,,,,,,,,,,,,,,,,,,,,,,,,,,,,,,,,,,,,,,,,,,,,,,,,,,,,,,,,,,,,,,,,,,,,,,,,,
,,6733d850215fd59debe051ab,2026-03-17_16h07.49.350,kallum_motion_pilot_GIST_update_2,2026.1.1,Win32,59.52380952,6733d850215fd59debe051ab,69b95efdef24cd8a694e89ee,69b96017d51c210ab009ca9b,0.0234,0.0234,0,49,49,126,1,eightsix,,,,,,,,,,,,,,,,,,,,,,,,,,,,,,,,,,,,,,,,,,,,,,,,,,,,,,,,,,,,,,,,,,,,,,,,,,,,,,,,,,,,,,,,,,,,,,,,,,,,,,,,,,,,,,,,,,,,,,,,,,,,,,,,,,,,,,,,,
,,6733d850215fd59debe051ab,2026-03-17_16h07.49.350,kallum_motion_pilot_GIST_update_2,2026.1.1,Win32,59.52380952,6733d850215fd59debe051ab,69b95efdef24cd8a694e89ee,69b96017d51c210ab009ca9b,0.0234,0.0234,0,50,50,3,1,twofour,,,,,,,,,,,,,,,,,,,,,,,,,,,,,,,,,,,,,,,,,,,,,,,,,,,,,,,,,,,,,,,,,,,,,,,,,,,,,,,,,,,,,,,,,,,,,,,,,,,,,,,,,,,,,,,,,,,,,,,,,,,,,,,,,,,,,,,,,
,,6733d850215fd59debe051ab,2026-03-17_16h07.49.350,kallum_motion_pilot_GIST_update_2,2026.1.1,Win32,59.52380952,6733d850215fd59debe051ab,69b95efdef24cd8a694e89ee,69b96017d51c210ab009ca9b,0.0234,0.0234,0,51,51,131,1,sixeight,,,,,,,,,,,,,,,,,,,,,,,,,,,,,,,,,,,,,,,,,,,,,,,,,,,,,,,,,,,,,,,,,,,,,,,,,,,,,,,,,,,,,,,,,,,,,,,,,,,,,,,,,,,,,,,,,,,,,,,,,,,,,,,,,,,,,,,,,
,,6733d850215fd59debe051ab,2026-03-17_16h07.49.350,kallum_motion_pilot_GIST_update_2,2026.1.1,Win32,59.52380952,6733d850215fd59debe051ab,69b95efdef24cd8a694e89ee,69b96017d51c210ab009ca9b,0.0235,0.0235,0,52,52,16,1,onetwo,,,,,,,,,,,,,,,,,,,,,,,,,,,,,,,,,,,,,,,,,,,,,,,,,,,,,,,,,,,,,,,,,,,,,,,,,,,,,,,,,,,,,,,,,,,,,,,,,,,,,,,,,,,,,,,,,,,,,,,,,,,,,,,,,,,,,,,,,
,,6733d850215fd59debe051ab,2026-03-17_16h07.49.350,kallum_motion_pilot_GIST_update_2,2026.1.1,Win32,59.52380952,6733d850215fd59debe051ab,69b95efdef24cd8a694e89ee,69b96017d51c210ab009ca9b,0.0236,0.0236,0,53,53,34,1,twoone,,,,,,,,,,,,,,,,,,,,,,,,,,,,,,,,,,,,,,,,,,,,,,,,,,,,,,,,,,,,,,,,,,,,,,,,,,,,,,,,,,,,,,,,,,,,,,,,,,,,,,,,,,,,,,,,,,,,,,,,,,,,,,,,,,,,,,,,,
,,6733d850215fd59debe051ab,2026-03-17_16h07.49.350,kallum_motion_pilot_GIST_update_2,2026.1.1,Win32,59.52380952,6733d850215fd59debe051ab,69b95efdef24cd8a694e89ee,69b96017d51c210ab009ca9b,0.0236,0.0236,0,54,54,158,1,eightsix,,,,,,,,,,,,,,,,,,,,,,,,,,,,,,,,,,,,,,,,,,,,,,,,,,,,,,,,,,,,,,,,,,,,,,,,,,,,,,,,,,,,,,,,,,,,,,,,,,,,,,,,,,,,,,,,,,,,,,,,,,,,,,,,,,,,,,,,,
,,6733d850215fd59debe051ab,2026-03-17_16h07.49.350,kallum_motion_pilot_GIST_update_2,2026.1.1,Win32,59.52380952,6733d850215fd59debe051ab,69b95efdef24cd8a694e89ee,69b96017d51c210ab009ca9b,0.0237,0.0237,0,55,55,31,1,fourthree,,,,,,,,,,,,,,,,,,,,,,,,,,,,,,,,,,,,,,,,,,,,,,,,,,,,,,,,,,,,,,,,,,,,,,,,,,,,,,,,,,,,,,,,,,,,,,,,,,,,,,,,,,,,,,,,,,,,,,,,,,,,,,,,,,,,,,,,,
,,6733d850215fd59debe051ab,2026-03-17_16h07.49.350,kallum_motion_pilot_GIST_update_2,2026.1.1,Win32,59.52380952,6733d850215fd59debe051ab,69b95efdef24cd8a694e89ee,69b96017d51c210ab009ca9b,0.0238,0.0238,0,56,56,61,1,threefour,,,,,,,,,,,,,,,,,,,,,,,,,,,,,,,,,,,,,,,,,,,,,,,,,,,,,,,,,,,,,,,,,,,,,,,,,,,,,,,,,,,,,,,,,,,,,,,,,,,,,,,,,,,,,,,,,,,,,,,,,,,,,,,,,,,,,,,,,
,,6733d850215fd59debe051ab,2026-03-17_16h07.49.350,kallum_motion_pilot_GIST_update_2,2026.1.1,Win32,59.52380952,6733d850215fd59debe051ab,69b95efdef24cd8a694e89ee,69b96017d51c210ab009ca9b,0.0238,0.0238,0,57,57,82,1,sixfive,,,,,,,,,,,,,,,,,,,,,,,,,,,,,,,,,,,,,,,,,,,,,,,,,,,,,,,,,,,,,,,,,,,,,,,,,,,,,,,,,,,,,,,,,,,,,,,,,,,,,,,,,,,,,,,,,,,,,,,,,,,,,,,,,,,,,,,,,
,,6733d850215fd59debe051ab,2026-03-17_16h07.49.350,kallum_motion_pilot_GIST_update_2,2026.1.1,Win32,59.52380952,6733d850215fd59debe051ab,69b95efdef24cd8a694e89ee,69b96017d51c210ab009ca9b,0.024,0.024,0,58,58,64,1,onetwo,,,,,,,,,,,,,,,,,,,,,,,,,,,,,,,,,,,,,,,,,,,,,,,,,,,,,,,,,,,,,,,,,,,,,,,,,,,,,,,,,,,,,,,,,,,,,,,,,,,,,,,,,,,,,,,,,,,,,,,,,,,,,,,,,,,,,,,,,
,,6733d850215fd59debe051ab,2026-03-17_16h07.49.350,kallum_motion_pilot_GIST_update_2,2026.1.1,Win32,59.52380952,6733d850215fd59debe051ab,69b95efdef24cd8a694e89ee,69b96017d51c210ab009ca9b,0.024,0.024,0,59,59,89,1,fiveseven,,,,,,,,,,,,,,,,,,,,,,,,,,,,,,,,,,,,,,,,,,,,,,,,,,,,,,,,,,,,,,,,,,,,,,,,,,,,,,,,,,,,,,,,,,,,,,,,,,,,,,,,,,,,,,,,,,,,,,,,,,,,,,,,,,,,,,,,,
,,6733d850215fd59debe051ab,2026-03-17_16h07.49.350,kallum_motion_pilot_GIST_update_2,2026.1.1,Win32,59.52380952,6733d850215fd59debe051ab,69b95efdef24cd8a694e89ee,69b96017d51c210ab009ca9b,0.0241,0.0241,0,60,60,116,1,sevenfive,,,,,,,,,,,,,,,,,,,,,,,,,,,,,,,,,,,,,,,,,,,,,,,,,,,,,,,,,,,,,,,,,,,,,,,,,,,,,,,,,,,,,,,,,,,,,,,,,,,,,,,,,,,,,,,,,,,,,,,,,,,,,,,,,,,,,,,,,
,,6733d850215fd59debe051ab,2026-03-17_16h07.49.350,kallum_motion_pilot_GIST_update_2,2026.1.1,Win32,59.52380952,6733d850215fd59debe051ab,69b95efdef24cd8a694e89ee,69b96017d51c210ab009ca9b,0.0242,0.0242,0,61,61,153,1,fiveseven,,,,,,,,,,,,,,,,,,,,,,,,,,,,,,,,,,,,,,,,,,,,,,,,,,,,,,,,,,,,,,,,,,,,,,,,,,,,,,,,,,,,,,,,,,,,,,,,,,,,,,,,,,,,,,,,,,,,,,,,,,,,,,,,,,,,,,,,,
,,6733d850215fd59debe051ab,2026-03-17_16h07.49.350,kallum_motion_pilot_GIST_update_2,2026.1.1,Win32,59.52380952,6733d850215fd59debe051ab,69b95efdef24cd8a694e89ee,69b96017d51c210ab009ca9b,0.0242,0.0242,0,62,62,0,1,onetwo,,,,,,,,,,,,,,,,,,,,,,,,,,,,,,,,,,,,,,,,,,,,,,,,,,,,,,,,,,,,,,,,,,,,,,,,,,,,,,,,,,,,,,,,,,,,,,,,,,,,,,,,,,,,,,,,,,,,,,,,,,,,,,,,,,,,,,,,,
,,6733d850215fd59debe051ab,2026-03-17_16h07.49.350,kallum_motion_pilot_GIST_update_2,2026.1.1,Win32,59.52380952,6733d850215fd59debe051ab,69b95efdef24cd8a694e89ee,69b96017d51c210ab009ca9b,0.0243,0.0243,0,63,63,121,1,fiveseven,,,,,,,,,,,,,,,,,,,,,,,,,,,,,,,,,,,,,,,,,,,,,,,,,,,,,,,,,,,,,,,,,,,,,,,,,,,,,,,,,,,,,,,,,,,,,,,,,,,,,,,,,,,,,,,,,,,,,,,,,,,,,,,,,,,,,,,,,
,,6733d850215fd59debe051ab,2026-03-17_16h07.49.350,kallum_motion_pilot_GIST_update_2,2026.1.1,Win32,59.52380952,6733d850215fd59debe051ab,69b95efdef24cd8a694e89ee,69b96017d51c210ab009ca9b,0.0244,0.0244,0,64,64,47,1,fourthree,,,,,,,,,,,,,,,,,,,,,,,,,,,,,,,,,,,,,,,,,,,,,,,,,,,,,,,,,,,,,,,,,,,,,,,,,,,,,,,,,,,,,,,,,,,,,,,,,,,,,,,,,,,,,,,,,,,,,,,,,,,,,,,,,,,,,,,,,
,,6733d850215fd59debe051ab,2026-03-17_16h07.49.350,kallum_motion_pilot_GIST_update_2,2026.1.1,Win32,59.52380952,6733d850215fd59debe051ab,69b95efdef24cd8a694e89ee,69b96017d51c210ab009ca9b,0.0244,0.0244,0,65,65,136,1,fivesix,,,,,,,,,,,,,,,,,,,,,,,,,,,,,,,,,,,,,,,,,,,,,,,,,,,,,,,,,,,,,,,,,,,,,,,,,,,,,,,,,,,,,,,,,,,,,,,,,,,,,,,,,,,,,,,,,,,,,,,,,,,,,,,,,,,,,,,,,
,,6733d850215fd59debe051ab,2026-03-17_16h07.49.350,kallum_motion_pilot_GIST_update_2,2026.1.1,Win32,59.52380952,6733d850215fd59debe051ab,69b95efdef24cd8a694e89ee,69b96017d51c210ab009ca9b,0.0245,0.0245,0,66,66,146,1,sixfive,,,,,,,,,,,,,,,,,,,,,,,,,,,,,,,,,,,,,,,,,,,,,,,,,,,,,,,,,,,,,,,,,,,,,,,,,,,,,,,,,,,,,,,,,,,,,,,,,,,,,,,,,,,,,,,,,,,,,,,,,,,,,,,,,,,,,,,,,
,,6733d850215fd59debe051ab,2026-03-17_16h07.49.350,kallum_motion_pilot_GIST_update_2,2026.1.1,Win32,59.52380952,6733d850215fd59debe051ab,69b95efdef24cd8a694e89ee,69b96017d51c210ab009ca9b,0.0245,0.0245,0,67,67,138,1,sixfive,,,,,,,,,,,,,,,,,,,,,,,,,,,,,,,,,,,,,,,,,,,,,,,,,,,,,,,,,,,,,,,,,,,,,,,,,,,,,,,,,,,,,,,,,,,,,,,,,,,,,,,,,,,,,,,,,,,,,,,,,,,,,,,,,,,,,,,,,
,,6733d850215fd59debe051ab,2026-03-17_16h07.49.350,kallum_motion_pilot_GIST_update_2,2026.1.1,Win32,59.52380952,6733d850215fd59debe051ab,69b95efdef24cd8a694e89ee,69b96017d51c210ab009ca9b,0.0246,0.0246,0,68,68,50,1,twoone,,,,,,,,,,,,,,,,,,,,,,,,,,,,,,,,,,,,,,,,,,,,,,,,,,,,,,,,,,,,,,,,,,,,,,,,,,,,,,,,,,,,,,,,,,,,,,,,,,,,,,,,,,,,,,,,,,,,,,,,,,,,,,,,,,,,,,,,,
,,6733d850215fd59debe051ab,2026-03-17_16h07.49.350,kallum_motion_pilot_GIST_update_2,2026.1.1,Win32,59.52380952,6733d850215fd59debe051ab,69b95efdef24cd8a694e89ee,69b96017d51c210ab009ca9b,0.0248,0.0248,0,69,69,142,1,eightsix,,,,,,,,,,,,,,,,,,,,,,,,,,,,,,,,,,,,,,,,,,,,,,,,,,,,,,,,,,,,,,,,,,,,,,,,,,,,,,,,,,,,,,,,,,,,,,,,,,,,,,,,,,,,,,,,,,,,,,,,,,,,,,,,,,,,,,,,,
,,6733d850215fd59debe051ab,2026-03-17_16h07.49.350,kallum_motion_pilot_GIST_update_2,2026.1.1,Win32,59.52380952,6733d850215fd59debe051ab,69b95efdef24cd8a694e89ee,69b96017d51c210ab009ca9b,0.0248,0.0248,0,70,70,35,1,twofour,,,,,,,,,,,,,,,,,,,,,,,,,,,,,,,,,,,,,,,,,,,,,,,,,,,,,,,,,,,,,,,,,,,,,,,,,,,,,,,,,,,,,,,,,,,,,,,,,,,,,,,,,,,,,,,,,,,,,,,,,,,,,,,,,,,,,,,,,
,,6733d850215fd59debe051ab,2026-03-17_16h07.49.350,kallum_motion_pilot_GIST_update_2,2026.1.1,Win32,59.52380952,6733d850215fd59debe051ab,69b95efdef24cd8a694e89ee,69b96017d51c210ab009ca9b,0.0249,0.0249,0,71,71,76,1,threeone,,,,,,,,,,,,,,,,,,,,,,,,,,,,,,,,,,,,,,,,,,,,,,,,,,,,,,,,,,,,,,,,,,,,,,,,,,,,,,,,,,,,,,,,,,,,,,,,,,,,,,,,,,,,,,,,,,,,,,,,,,,,,,,,,,,,,,,,,
,,6733d850215fd59debe051ab,2026-03-17_16h07.49.350,kallum_motion_pilot_GIST_update_2,2026.1.1,Win32,59.52380952,6733d850215fd59debe051ab,69b95efdef24cd8a694e89ee,69b96017d51c210ab009ca9b,0.0249,0.0249,0,72,72,4,1,threeone,,,,,,,,,,,,,,,,,,,,,,,,,,,,,,,,,,,,,,,,,,,,,,,,,,,,,,,,,,,,,,,,,,,,,,,,,,,,,,,,,,,,,,,,,,,,,,,,,,,,,,,,,,,,,,,,,,,,,,,,,,,,,,,,,,,,,,,,,
,,6733d850215fd59debe051ab,2026-03-17_16h07.49.350,kallum_motion_pilot_GIST_update_2,2026.1.1,Win32,59.52380952,6733d850215fd59debe051ab,69b95efdef24cd8a694e89ee,69b96017d51c210ab009ca9b,0.025,0.025,0,73,73,19,1,twofour,,,,,,,,,,,,,,,,,,,,,,,,,,,,,,,,,,,,,,,,,,,,,,,,,,,,,,,,,,,,,,,,,,,,,,,,,,,,,,,,,,,,,,,,,,,,,,,,,,,,,,,,,,,,,,,,,,,,,,,,,,,,,,,,,,,,,,,,,
,,6733d850215fd59debe051ab,2026-03-17_16h07.49.350,kallum_motion_pilot_GIST_update_2,2026.1.1,Win32,59.52380952,6733d850215fd59debe051ab,69b95efdef24cd8a694e89ee,69b96017d51c210ab009ca9b,0.0251,0.0251,0,74,74,18,1,twoone,,,,,,,,,,,,,,,,,,,,,,,,,,,,,,,,,,,,,,,,,,,,,,,,,,,,,,,,,,,,,,,,,,,,,,,,,,,,,,,,,,,,,,,,,,,,,,,,,,,,,,,,,,,,,,,,,,,,,,,,,,,,,,,,,,,,,,,,,
,,6733d850215fd59debe051ab,2026-03-17_16h07.49.350,kallum_motion_pilot_GIST_update_2,2026.1.1,Win32,59.52380952,6733d850215fd59debe051ab,69b95efdef24cd8a694e89ee,69b96017d51c210ab009ca9b,0.0251,0.0251,0,75,75,147,1,sixeight,,,,,,,,,,,,,,,,,,,,,,,,,,,,,,,,,,,,,,,,,,,,,,,,,,,,,,,,,,,,,,,,,,,,,,,,,,,,,,,,,,,,,,,,,,,,,,,,,,,,,,,,,,,,,,,,,,,,,,,,,,,,,,,,,,,,,,,,,
,,6733d850215fd59debe051ab,2026-03-17_16h07.49.350,kallum_motion_pilot_GIST_update_2,2026.1.1,Win32,59.52380952,6733d850215fd59debe051ab,69b95efdef24cd8a694e89ee,69b96017d51c210ab009ca9b,0.0252,0.0252,0,76,76,17,1,onethree,,,,,,,,,,,,,,,,,,,,,,,,,,,,,,,,,,,,,,,,,,,,,,,,,,,,,,,,,,,,,,,,,,,,,,,,,,,,,,,,,,,,,,,,,,,,,,,,,,,,,,,,,,,,,,,,,,,,,,,,,,,,,,,,,,,,,,,,,
,,6733d850215fd59debe051ab,2026-03-17_16h07.49.350,kallum_motion_pilot_GIST_update_2,2026.1.1,Win32,59.52380952,6733d850215fd59debe051ab,69b95efdef24cd8a694e89ee,69b96017d51c210ab009ca9b,0.0253,0.0253,0,77,77,75,1,twofour,,,,,,,,,,,,,,,,,,,,,,,,,,,,,,,,,,,,,,,,,,,,,,,,,,,,,,,,,,,,,,,,,,,,,,,,,,,,,,,,,,,,,,,,,,,,,,,,,,,,,,,,,,,,,,,,,,,,,,,,,,,,,,,,,,,,,,,,,
,,6733d850215fd59debe051ab,2026-03-17_16h07.49.350,kallum_motion_pilot_GIST_update_2,2026.1.1,Win32,59.52380952,6733d850215fd59debe051ab,69b95efdef24cd8a694e89ee,69b96017d51c210ab009ca9b,0.0254,0.0254,0,78,78,97,1,fiveseven,,,,,,,,,,,,,,,,,,,,,,,,,,,,,,,,,,,,,,,,,,,,,,,,,,,,,,,,,,,,,,,,,,,,,,,,,,,,,,,,,,,,,,,,,,,,,,,,,,,,,,,,,,,,,,,,,,,,,,,,,,,,,,,,,,,,,,,,,
,,6733d850215fd59debe051ab,2026-03-17_16h07.49.350,kallum_motion_pilot_GIST_update_2,2026.1.1,Win32,59.52380952,6733d850215fd59debe051ab,69b95efdef24cd8a694e89ee,69b96017d51c210ab009ca9b,0.0254,0.0254,0,79,79,39,1,fourthree,,,,,,,,,,,,,,,,,,,,,,,,,,,,,,,,,,,,,,,,,,,,,,,,,,,,,,,,,,,,,,,,,,,,,,,,,,,,,,,,,,,,,,,,,,,,,,,,,,,,,,,,,,,,,,,,,,,,,,,,,,,,,,,,,,,,,,,,,
,,6733d850215fd59debe051ab,2026-03-17_16h07.49.350,kallum_motion_pilot_GIST_update_2,2026.1.1,Win32,59.52380952,6733d850215fd59debe051ab,69b95efdef24cd8a694e89ee,69b96017d51c210ab009ca9b,0.0256,0.0256,0,80,80,1,1,onethree,,,,,,,,,,,,,,,,,,,,,,,,,,,,,,,,,,,,,,,,,,,,,,,,,,,,,,,,,,,,,,,,,,,,,,,,,,,,,,,,,,,,,,,,,,,,,,,,,,,,,,,,,,,,,,,,,,,,,,,,,,,,,,,,,,,,,,,,,
,,6733d850215fd59debe051ab,2026-03-17_16h07.49.350,kallum_motion_pilot_GIST_update_2,2026.1.1,Win32,59.52380952,6733d850215fd59debe051ab,69b95efdef24cd8a694e89ee,69b96017d51c210ab009ca9b,0.0256,0.0256,0,81,81,42,1,twoone,,,,,,,,,,,,,,,,,,,,,,,,,,,,,,,,,,,,,,,,,,,,,,,,,,,,,,,,,,,,,,,,,,,,,,,,,,,,,,,,,,,,,,,,,,,,,,,,,,,,,,,,,,,,,,,,,,,,,,,,,,,,,,,,,,,,,,,,,
,,6733d850215fd59debe051ab,2026-03-17_16h07.49.350,kallum_motion_pilot_GIST_update_2,2026.1.1,Win32,59.52380952,6733d850215fd59debe051ab,69b95efdef24cd8a694e89ee,69b96017d51c210ab009ca9b,0.0257,0.0257,0,82,82,25,1,onethree,,,,,,,,,,,,,,,,,,,,,,,,,,,,,,,,,,,,,,,,,,,,,,,,,,,,,,,,,,,,,,,,,,,,,,,,,,,,,,,,,,,,,,,,,,,,,,,,,,,,,,,,,,,,,,,,,,,,,,,,,,,,,,,,,,,,,,,,,
,,6733d850215fd59debe051ab,2026-03-17_16h07.49.350,kallum_motion_pilot_GIST_update_2,2026.1.1,Win32,59.52380952,6733d850215fd59debe051ab,69b95efdef24cd8a694e89ee,69b96017d51c210ab009ca9b,0.0258,0.0258,0,83,83,43,1,twofour,,,,,,,,,,,,,,,,,,,,,,,,,,,,,,,,,,,,,,,,,,,,,,,,,,,,,,,,,,,,,,,,,,,,,,,,,,,,,,,,,,,,,,,,,,,,,,,,,,,,,,,,,,,,,,,,,,,,,,,,,,,,,,,,,,,,,,,,,
,,6733d850215fd59debe051ab,2026-03-17_16h07.49.350,kallum_motion_pilot_GIST_update_2,2026.1.1,Win32,59.52380952,6733d850215fd59debe051ab,69b95efdef24cd8a694e89ee,69b96017d51c210ab009ca9b,0.0259,0.0259,0,84,84,21,1,threefour,,,,,,,,,,,,,,,,,,,,,,,,,,,,,,,,,,,,,,,,,,,,,,,,,,,,,,,,,,,,,,,,,,,,,,,,,,,,,,,,,,,,,,,,,,,,,,,,,,,,,,,,,,,,,,,,,,,,,,,,,,,,,,,,,,,,,,,,,
,,6733d850215fd59debe051ab,2026-03-17_16h07.49.350,kallum_motion_pilot_GIST_update_2,2026.1.1,Win32,59.52380952,6733d850215fd59debe051ab,69b95efdef24cd8a694e89ee,69b96017d51c210ab009ca9b,0.0259,0.0259,0,85,85,52,1,threeone,,,,,,,,,,,,,,,,,,,,,,,,,,,,,,,,,,,,,,,,,,,,,,,,,,,,,,,,,,,,,,,,,,,,,,,,,,,,,,,,,,,,,,,,,,,,,,,,,,,,,,,,,,,,,,,,,,,,,,,,,,,,,,,,,,,,,,,,,
,,6733d850215fd59debe051ab,2026-03-17_16h07.49.350,kallum_motion_pilot_GIST_update_2,2026.1.1,Win32,59.52380952,6733d850215fd59debe051ab,69b95efdef24cd8a694e89ee,69b96017d51c210ab009ca9b,0.026,0.026,0,86,86,103,1,eightseven,,,,,,,,,,,,,,,,,,,,,,,,,,,,,,,,,,,,,,,,,,,,,,,,,,,,,,,,,,,,,,,,,,,,,,,,,,,,,,,,,,,,,,,,,,,,,,,,,,,,,,,,,,,,,,,,,,,,,,,,,,,,,,,,,,,,,,,,,
,,6733d850215fd59debe051ab,2026-03-17_16h07.49.350,kallum_motion_pilot_GIST_update_2,2026.1.1,Win32,59.52380952,6733d850215fd59debe051ab,69b95efdef24cd8a694e89ee,69b96017d51c210ab009ca9b,0.0261,0.0261,0,87,87,49,1,onethree,,,,,,,,,,,,,,,,,,,,,,,,,,,,,,,,,,,,,,,,,,,,,,,,,,,,,,,,,,,,,,,,,,,,,,,,,,,,,,,,,,,,,,,,,,,,,,,,,,,,,,,,,,,,,,,,,,,,,,,,,,,,,,,,,,,,,,,,,
,,6733d850215fd59debe051ab,2026-03-17_16h07.49.350,kallum_motion_pilot_GIST_update_2,2026.1.1,Win32,59.52380952,6733d850215fd59debe051ab,69b95efdef24cd8a694e89ee,69b96017d51c210ab009ca9b,0.0262,0.0262,0,88,88,107,1,sixeight,,,,,,,,,,,,,,,,,,,,,,,,,,,,,,,,,,,,,,,,,,,,,,,,,,,,,,,,,,,,,,,,,,,,,,,,,,,,,,,,,,,,,,,,,,,,,,,,,,,,,,,,,,,,,,,,,,,,,,,,,,,,,,,,,,,,,,,,,
,,6733d850215fd59debe051ab,2026-03-17_16h07.49.350,kallum_motion_pilot_GIST_update_2,2026.1.1,Win32,59.52380952,6733d850215fd59debe051ab,69b95efdef24cd8a694e89ee,69b96017d51c210ab009ca9b,0.0262,0.0262,0,89,89,6,1,fourtwo,,,,,,,,,,,,,,,,,,,,,,,,,,,,,,,,,,,,,,,,,,,,,,,,,,,,,,,,,,,,,,,,,,,,,,,,,,,,,,,,,,,,,,,,,,,,,,,,,,,,,,,,,,,,,,,,,,,,,,,,,,,,,,,,,,,,,,,,,
,,6733d850215fd59debe051ab,2026-03-17_16h07.49.350,kallum_motion_pilot_GIST_update_2,2026.1.1,Win32,59.52380952,6733d850215fd59debe051ab,69b95efdef24cd8a694e89ee,69b96017d51c210ab009ca9b,0.0263,0.0263,0,90,90,105,1,fiveseven,,,,,,,,,,,,,,,,,,,,,,,,,,,,,,,,,,,,,,,,,,,,,,,,,,,,,,,,,,,,,,,,,,,,,,,,,,,,,,,,,,,,,,,,,,,,,,,,,,,,,,,,,,,,,,,,,,,,,,,,,,,,,,,,,,,,,,,,,
,,6733d850215fd59debe051ab,2026-03-17_16h07.49.350,kallum_motion_pilot_GIST_update_2,2026.1.1,Win32,59.52380952,6733d850215fd59debe051ab,69b95efdef24cd8a694e89ee,69b96017d51c210ab009ca9b,0.0264,0.0264,0,91,91,26,1,twoone,,,,,,,,,,,,,,,,,,,,,,,,,,,,,,,,,,,,,,,,,,,,,,,,,,,,,,,,,,,,,,,,,,,,,,,,,,,,,,,,,,,,,,,,,,,,,,,,,,,,,,,,,,,,,,,,,,,,,,,,,,,,,,,,,,,,,,,,,
,,6733d850215fd59debe051ab,2026-03-17_16h07.49.350,kallum_motion_pilot_GIST_update_2,2026.1.1,Win32,59.52380952,6733d850215fd59debe051ab,69b95efdef24cd8a694e89ee,69b96017d51c210ab009ca9b,0.0265,0.0265,0,92,92,15,1,fourthree,,,,,,,,,,,,,,,,,,,,,,,,,,,,,,,,,,,,,,,,,,,,,,,,,,,,,,,,,,,,,,,,,,,,,,,,,,,,,,,,,,,,,,,,,,,,,,,,,,,,,,,,,,,,,,,,,,,,,,,,,,,,,,,,,,,,,,,,,
,,6733d850215fd59debe051ab,2026-03-17_16h07.49.350,kallum_motion_pilot_GIST_update_2,2026.1.1,Win32,59.52380952,6733d850215fd59debe051ab,69b95efdef24cd8a694e89ee,69b96017d51c210ab009ca9b,0.0265,0.0265,0,93,93,14,1,fourtwo,,,,,,,,,,,,,,,,,,,,,,,,,,,,,,,,,,,,,,,,,,,,,,,,,,,,,,,,,,,,,,,,,,,,,,,,,,,,,,,,,,,,,,,,,,,,,,,,,,,,,,,,,,,,,,,,,,,,,,,,,,,,,,,,,,,,,,,,,
,,6733d850215fd59debe051ab,2026-03-17_16h07.49.350,kallum_motion_pilot_GIST_update_2,2026.1.1,Win32,59.52380952,6733d850215fd59debe051ab,69b95efdef24cd8a694e89ee,69b96017d51c210ab009ca9b,0.0266,0.0266,0,94,94,106,1,sixfive,,,,,,,,,,,,,,,,,,,,,,,,,,,,,,,,,,,,,,,,,,,,,,,,,,,,,,,,,,,,,,,,,,,,,,,,,,,,,,,,,,,,,,,,,,,,,,,,,,,,,,,,,,,,,,,,,,,,,,,,,,,,,,,,,,,,,,,,,
,,6733d850215fd59debe051ab,2026-03-17_16h07.49.350,kallum_motion_pilot_GIST_update_2,2026.1.1,Win32,59.52380952,6733d850215fd59debe051ab,69b95efdef24cd8a694e89ee,69b96017d51c210ab009ca9b,0.0266,0.0266,0,95,95,53,1,threefour,,,,,,,,,,,,,,,,,,,,,,,,,,,,,,,,,,,,,,,,,,,,,,,,,,,,,,,,,,,,,,,,,,,,,,,,,,,,,,,,,,,,,,,,,,,,,,,,,,,,,,,,,,,,,,,,,,,,,,,,,,,,,,,,,,,,,,,,,
,,6733d850215fd59debe051ab,2026-03-17_16h07.49.350,kallum_motion_pilot_GIST_update_2,2026.1.1,Win32,59.52380952,6733d850215fd59debe051ab,69b95efdef24cd8a694e89ee,69b96017d51c210ab009ca9b,0.0268,0.0268,0,96,96,51,1,twofour,,,,,,,,,,,,,,,,,,,,,,,,,,,,,,,,,,,,,,,,,,,,,,,,,,,,,,,,,,,,,,,,,,,,,,,,,,,,,,,,,,,,,,,,,,,,,,,,,,,,,,,,,,,,,,,,,,,,,,,,,,,,,,,,,,,,,,,,,
,,6733d850215fd59debe051ab,2026-03-17_16h07.49.350,kallum_motion_pilot_GIST_update_2,2026.1.1,Win32,59.52380952,6733d850215fd59debe051ab,69b95efdef24cd8a694e89ee,69b96017d51c210ab009ca9b,0.0268,0.0268,0,97,97,55,1,fourthree,,,,,,,,,,,,,,,,,,,,,,,,,,,,,,,,,,,,,,,,,,,,,,,,,,,,,,,,,,,,,,,,,,,,,,,,,,,,,,,,,,,,,,,,,,,,,,,,,,,,,,,,,,,,,,,,,,,,,,,,,,,,,,,,,,,,,,,,,
,,6733d850215fd59debe051ab,2026-03-17_16h07.49.350,kallum_motion_pilot_GIST_update_2,2026.1.1,Win32,59.52380952,6733d850215fd59debe051ab,69b95efdef24cd8a694e89ee,69b96017d51c210ab009ca9b,0.0269,0.0269,0,98,98,54,1,fourtwo,,,,,,,,,,,,,,,,,,,,,,,,,,,,,,,,,,,,,,,,,,,,,,,,,,,,,,,,,,,,,,,,,,,,,,,,,,,,,,,,,,,,,,,,,,,,,,,,,,,,,,,,,,,,,,,,,,,,,,,,,,,,,,,,,,,,,,,,,
,,6733d850215fd59debe051ab,2026-03-17_16h07.49.350,kallum_motion_pilot_GIST_update_2,2026.1.1,Win32,59.52380952,6733d850215fd59debe051ab,69b95efdef24cd8a694e89ee,69b96017d51c210ab009ca9b,0.027,0.027,0,99,99,122,1,sixfive,,,,,,,,,,,,,,,,,,,,,,,,,,,,,,,,,,,,,,,,,,,,,,,,,,,,,,,,,,,,,,,,,,,,,,,,,,,,,,,,,,,,,,,,,,,,,,,,,,,,,,,,,,,,,,,,,,,,,,,,,,,,,,,,,,,,,,,,,
,,6733d850215fd59debe051ab,2026-03-17_16h07.49.350,kallum_motion_pilot_GIST_update_2,2026.1.1,Win32,59.52380952,6733d850215fd59debe051ab,69b95efdef24cd8a694e89ee,69b96017d51c210ab009ca9b,0.0271,0.0271,0,100,100,109,1,seveneight,,,,,,,,,,,,,,,,,,,,,,,,,,,,,,,,,,,,,,,,,,,,,,,,,,,,,,,,,,,,,,,,,,,,,,,,,,,,,,,,,,,,,,,,,,,,,,,,,,,,,,,,,,,,,,,,,,,,,,,,,,,,,,,,,,,,,,,,,
,,6733d850215fd59debe051ab,2026-03-17_16h07.49.350,kallum_motion_pilot_GIST_update_2,2026.1.1,Win32,59.52380952,6733d850215fd59debe051ab,69b95efdef24cd8a694e89ee,69b96017d51c210ab009ca9b,0.0272,0.0272,0,101,101,119,1,eightseven,,,,,,,,,,,,,,,,,,,,,,,,,,,,,,,,,,,,,,,,,,,,,,,,,,,,,,,,,,,,,,,,,,,,,,,,,,,,,,,,,,,,,,,,,,,,,,,,,,,,,,,,,,,,,,,,,,,,,,,,,,,,,,,,,,,,,,,,,
,,6733d850215fd59debe051ab,2026-03-17_16h07.49.350,kallum_motion_pilot_GIST_update_2,2026.1.1,Win32,59.52380952,6733d850215fd59debe051ab,69b95efdef24cd8a694e89ee,69b96017d51c210ab009ca9b,0.0272,0.0272,0,102,102,78,1,fourtwo,,,,,,,,,,,,,,,,,,,,,,,,,,,,,,,,,,,,,,,,,,,,,,,,,,,,,,,,,,,,,,,,,,,,,,,,,,,,,,,,,,,,,,,,,,,,,,,,,,,,,,,,,,,,,,,,,,,,,,,,,,,,,,,,,,,,,,,,,
,,6733d850215fd59debe051ab,2026-03-17_16h07.49.350,kallum_motion_pilot_GIST_update_2,2026.1.1,Win32,59.52380952,6733d850215fd59debe051ab,69b95efdef24cd8a694e89ee,69b96017d51c210ab009ca9b,0.0273,0.0273,0,103,103,2,1,twoone,,,,,,,,,,,,,,,,,,,,,,,,,,,,,,,,,,,,,,,,,,,,,,,,,,,,,,,,,,,,,,,,,,,,,,,,,,,,,,,,,,,,,,,,,,,,,,,,,,,,,,,,,,,,,,,,,,,,,,,,,,,,,,,,,,,,,,,,,
,,6733d850215fd59debe051ab,2026-03-17_16h07.49.350,kallum_motion_pilot_GIST_update_2,2026.1.1,Win32,59.52380952,6733d850215fd59debe051ab,69b95efdef24cd8a694e89ee,69b96017d51c210ab009ca9b,0.0274,0.0275,0,104,104,134,1,eightsix,,,,,,,,,,,,,,,,,,,,,,,,,,,,,,,,,,,,,,,,,,,,,,,,,,,,,,,,,,,,,,,,,,,,,,,,,,,,,,,,,,,,,,,,,,,,,,,,,,,,,,,,,,,,,,,,,,,,,,,,,,,,,,,,,,,,,,,,,
,,6733d850215fd59debe051ab,2026-03-17_16h07.49.350,kallum_motion_pilot_GIST_update_2,2026.1.1,Win32,59.52380952,6733d850215fd59debe051ab,69b95efdef24cd8a694e89ee,69b96017d51c210ab009ca9b,0.0275,0.0275,0,105,105,128,1,fivesix,,,,,,,,,,,,,,,,,,,,,,,,,,,,,,,,,,,,,,,,,,,,,,,,,,,,,,,,,,,,,,,,,,,,,,,,,,,,,,,,,,,,,,,,,,,,,,,,,,,,,,,,,,,,,,,,,,,,,,,,,,,,,,,,,,,,,,,,,
,,6733d850215fd59debe051ab,2026-03-17_16h07.49.350,kallum_motion_pilot_GIST_update_2,2026.1.1,Win32,59.52380952,6733d850215fd59debe051ab,69b95efdef24cd8a694e89ee,69b96017d51c210ab009ca9b,0.0276,0.0276,0,106,106,20,1,threeone,,,,,,,,,,,,,,,,,,,,,,,,,,,,,,,,,,,,,,,,,,,,,,,,,,,,,,,,,,,,,,,,,,,,,,,,,,,,,,,,,,,,,,,,,,,,,,,,,,,,,,,,,,,,,,,,,,,,,,,,,,,,,,,,,,,,,,,,,
,,6733d850215fd59debe051ab,2026-03-17_16h07.49.350,kallum_motion_pilot_GIST_update_2,2026.1.1,Win32,59.52380952,6733d850215fd59debe051ab,69b95efdef24cd8a694e89ee,69b96017d51c210ab009ca9b,0.0277,0.0277,0,107,107,129,1,fiveseven,,,,,,,,,,,,,,,,,,,,,,,,,,,,,,,,,,,,,,,,,,,,,,,,,,,,,,,,,,,,,,,,,,,,,,,,,,,,,,,,,,,,,,,,,,,,,,,,,,,,,,,,,,,,,,,,,,,,,,,,,,,,,,,,,,,,,,,,,
,,6733d850215fd59debe051ab,2026-03-17_16h07.49.350,kallum_motion_pilot_GIST_update_2,2026.1.1,Win32,59.52380952,6733d850215fd59debe051ab,69b95efdef24cd8a694e89ee,69b96017d51c210ab009ca9b,0.0278,0.0278,0,108,108,73,1,onethree,,,,,,,,,,,,,,,,,,,,,,,,,,,,,,,,,,,,,,,,,,,,,,,,,,,,,,,,,,,,,,,,,,,,,,,,,,,,,,,,,,,,,,,,,,,,,,,,,,,,,,,,,,,,,,,,,,,,,,,,,,,,,,,,,,,,,,,,,
,,6733d850215fd59debe051ab,2026-03-17_16h07.49.350,kallum_motion_pilot_GIST_update_2,2026.1.1,Win32,59.52380952,6733d850215fd59debe051ab,69b95efdef24cd8a694e89ee,69b96017d51c210ab009ca9b,0.0278,0.0278,0,109,109,24,1,onetwo,,,,,,,,,,,,,,,,,,,,,,,,,,,,,,,,,,,,,,,,,,,,,,,,,,,,,,,,,,,,,,,,,,,,,,,,,,,,,,,,,,,,,,,,,,,,,,,,,,,,,,,,,,,,,,,,,,,,,,,,,,,,,,,,,,,,,,,,,
,,6733d850215fd59debe051ab,2026-03-17_16h07.49.350,kallum_motion_pilot_GIST_update_2,2026.1.1,Win32,59.52380952,6733d850215fd59debe051ab,69b95efdef24cd8a694e89ee,69b96017d51c210ab009ca9b,0.0279,0.028,0,110,110,71,1,fourthree,,,,,,,,,,,,,,,,,,,,,,,,,,,,,,,,,,,,,,,,,,,,,,,,,,,,,,,,,,,,,,,,,,,,,,,,,,,,,,,,,,,,,,,,,,,,,,,,,,,,,,,,,,,,,,,,,,,,,,,,,,,,,,,,,,,,,,,,,
,,6733d850215fd59debe051ab,2026-03-17_16h07.49.350,kallum_motion_pilot_GIST_update_2,2026.1.1,Win32,59.52380952,6733d850215fd59debe051ab,69b95efdef24cd8a694e89ee,69b96017d51c210ab009ca9b,0.028,0.028,0,111,111,132,1,sevenfive,,,,,,,,,,,,,,,,,,,,,,,,,,,,,,,,,,,,,,,,,,,,,,,,,,,,,,,,,,,,,,,,,,,,,,,,,,,,,,,,,,,,,,,,,,,,,,,,,,,,,,,,,,,,,,,,,,,,,,,,,,,,,,,,,,,,,,,,,
,,6733d850215fd59debe051ab,2026-03-17_16h07.49.350,kallum_motion_pilot_GIST_update_2,2026.1.1,Win32,59.52380952,6733d850215fd59debe051ab,69b95efdef24cd8a694e89ee,69b96017d51c210ab009ca9b,0.0281,0.0281,0,112,112,60,1,threeone,,,,,,,,,,,,,,,,,,,,,,,,,,,,,,,,,,,,,,,,,,,,,,,,,,,,,,,,,,,,,,,,,,,,,,,,,,,,,,,,,,,,,,,,,,,,,,,,,,,,,,,,,,,,,,,,,,,,,,,,,,,,,,,,,,,,,,,,,
,,6733d850215fd59debe051ab,2026-03-17_16h07.49.350,kallum_motion_pilot_GIST_update_2,2026.1.1,Win32,59.52380952,6733d850215fd59debe051ab,69b95efdef24cd8a694e89ee,69b96017d51c210ab009ca9b,0.0282,0.0282,0,113,113,9,1,onethree,,,,,,,,,,,,,,,,,,,,,,,,,,,,,,,,,,,,,,,,,,,,,,,,,,,,,,,,,,,,,,,,,,,,,,,,,,,,,,,,,,,,,,,,,,,,,,,,,,,,,,,,,,,,,,,,,,,,,,,,,,,,,,,,,,,,,,,,,
,,6733d850215fd59debe051ab,2026-03-17_16h07.49.350,kallum_motion_pilot_GIST_update_2,2026.1.1,Win32,59.52380952,6733d850215fd59debe051ab,69b95efdef24cd8a694e89ee,69b96017d51c210ab009ca9b,0.0282,0.0282,0,114,114,32,1,onetwo,,,,,,,,,,,,,,,,,,,,,,,,,,,,,,,,,,,,,,,,,,,,,,,,,,,,,,,,,,,,,,,,,,,,,,,,,,,,,,,,,,,,,,,,,,,,,,,,,,,,,,,,,,,,,,,,,,,,,,,,,,,,,,,,,,,,,,,,,
,,6733d850215fd59debe051ab,2026-03-17_16h07.49.350,kallum_motion_pilot_GIST_update_2,2026.1.1,Win32,59.52380952,6733d850215fd59debe051ab,69b95efdef24cd8a694e89ee,69b96017d51c210ab009ca9b,0.0284,0.0284,0,115,115,114,1,sixfive,,,,,,,,,,,,,,,,,,,,,,,,,,,,,,,,,,,,,,,,,,,,,,,,,,,,,,,,,,,,,,,,,,,,,,,,,,,,,,,,,,,,,,,,,,,,,,,,,,,,,,,,,,,,,,,,,,,,,,,,,,,,,,,,,,,,,,,,,
,,6733d850215fd59debe051ab,2026-03-17_16h07.49.350,kallum_motion_pilot_GIST_update_2,2026.1.1,Win32,59.52380952,6733d850215fd59debe051ab,69b95efdef24cd8a694e89ee,69b96017d51c210ab009ca9b,0.0284,0.0284,0,116,116,41,1,onethree,,,,,,,,,,,,,,,,,,,,,,,,,,,,,,,,,,,,,,,,,,,,,,,,,,,,,,,,,,,,,,,,,,,,,,,,,,,,,,,,,,,,,,,,,,,,,,,,,,,,,,,,,,,,,,,,,,,,,,,,,,,,,,,,,,,,,,,,,
,,6733d850215fd59debe051ab,2026-03-17_16h07.49.350,kallum_motion_pilot_GIST_update_2,2026.1.1,Win32,59.52380952,6733d850215fd59debe051ab,69b95efdef24cd8a694e89ee,69b96017d51c210ab009ca9b,0.0285,0.0285,0,117,117,154,1,sixfive,,,,,,,,,,,,,,,,,,,,,,,,,,,,,,,,,,,,,,,,,,,,,,,,,,,,,,,,,,,,,,,,,,,,,,,,,,,,,,,,,,,,,,,,,,,,,,,,,,,,,,,,,,,,,,,,,,,,,,,,,,,,,,,,,,,,,,,,,
,,6733d850215fd59debe051ab,2026-03-17_16h07.49.350,kallum_motion_pilot_GIST_update_2,2026.1.1,Win32,59.52380952,6733d850215fd59debe051ab,69b95efdef24cd8a694e89ee,69b96017d51c210ab009ca9b,0.0286,0.0286,0,118,118,96,1,fivesix,,,,,,,,,,,,,,,,,,,,,,,,,,,,,,,,,,,,,,,,,,,,,,,,,,,,,,,,,,,,,,,,,,,,,,,,,,,,,,,,,,,,,,,,,,,,,,,,,,,,,,,,,,,,,,,,,,,,,,,,,,,,,,,,,,,,,,,,,
,,6733d850215fd59debe051ab,2026-03-17_16h07.49.350,kallum_motion_pilot_GIST_update_2,2026.1.1,Win32,59.52380952,6733d850215fd59debe051ab,69b95efdef24cd8a694e89ee,69b96017d51c210ab009ca9b,0.0286,0.0286,0,119,119,72,1,onetwo,,,,,,,,,,,,,,,,,,,,,,,,,,,,,,,,,,,,,,,,,,,,,,,,,,,,,,,,,,,,,,,,,,,,,,,,,,,,,,,,,,,,,,,,,,,,,,,,,,,,,,,,,,,,,,,,,,,,,,,,,,,,,,,,,,,,,,,,,
,,6733d850215fd59debe051ab,2026-03-17_16h07.49.350,kallum_motion_pilot_GIST_update_2,2026.1.1,Win32,59.52380952,6733d850215fd59debe051ab,69b95efdef24cd8a694e89ee,69b96017d51c210ab009ca9b,0.0287,0.0287,0,120,120,149,1,seveneight,,,,,,,,,,,,,,,,,,,,,,,,,,,,,,,,,,,,,,,,,,,,,,,,,,,,,,,,,,,,,,,,,,,,,,,,,,,,,,,,,,,,,,,,,,,,,,,,,,,,,,,,,,,,,,,,,,,,,,,,,,,,,,,,,,,,,,,,,
,,6733d850215fd59debe051ab,2026-03-17_16h07.49.350,kallum_motion_pilot_GIST_update_2,2026.1.1,Win32,59.52380952,6733d850215fd59debe051ab,69b95efdef24cd8a694e89ee,69b96017d51c210ab009ca9b,0.0288,0.0288,0,121,121,92,1,sevenfive,,,,,,,,,,,,,,,,,,,,,,,,,,,,,,,,,,,,,,,,,,,,,,,,,,,,,,,,,,,,,,,,,,,,,,,,,,,,,,,,,,,,,,,,,,,,,,,,,,,,,,,,,,,,,,,,,,,,,,,,,,,,,,,,,,,,,,,,,
,,6733d850215fd59debe051ab,2026-03-17_16h07.49.350,kallum_motion_pilot_GIST_update_2,2026.1.1,Win32,59.52380952,6733d850215fd59debe051ab,69b95efdef24cd8a694e89ee,69b96017d51c210ab009ca9b,0.0289,0.0289,0,122,122,69,1,threefour,,,,,,,,,,,,,,,,,,,,,,,,,,,,,,,,,,,,,,,,,,,,,,,,,,,,,,,,,,,,,,,,,,,,,,,,,,,,,,,,,,,,,,,,,,,,,,,,,,,,,,,,,,,,,,,,,,,,,,,,,,,,,,,,,,,,,,,,,
,,6733d850215fd59debe051ab,2026-03-17_16h07.49.350,kallum_motion_pilot_GIST_update_2,2026.1.1,Win32,59.52380952,6733d850215fd59debe051ab,69b95efdef24cd8a694e89ee,69b96017d51c210ab009ca9b,0.029,0.029,0,123,123,130,1,sixfive,,,,,,,,,,,,,,,,,,,,,,,,,,,,,,,,,,,,,,,,,,,,,,,,,,,,,,,,,,,,,,,,,,,,,,,,,,,,,,,,,,,,,,,,,,,,,,,,,,,,,,,,,,,,,,,,,,,,,,,,,,,,,,,,,,,,,,,,,
,,6733d850215fd59debe051ab,2026-03-17_16h07.49.350,kallum_motion_pilot_GIST_update_2,2026.1.1,Win32,59.52380952,6733d850215fd59debe051ab,69b95efdef24cd8a694e89ee,69b96017d51c210ab009ca9b,0.0291,0.0291,0,124,124,59,1,twofour,,,,,,,,,,,,,,,,,,,,,,,,,,,,,,,,,,,,,,,,,,,,,,,,,,,,,,,,,,,,,,,,,,,,,,,,,,,,,,,,,,,,,,,,,,,,,,,,,,,,,,,,,,,,,,,,,,,,,,,,,,,,,,,,,,,,,,,,,
,,6733d850215fd59debe051ab,2026-03-17_16h07.49.350,kallum_motion_pilot_GIST_update_2,2026.1.1,Win32,59.52380952,6733d850215fd59debe051ab,69b95efdef24cd8a694e89ee,69b96017d51c210ab009ca9b,0.0291,0.0291,0,125,125,88,1,fivesix,,,,,,,,,,,,,,,,,,,,,,,,,,,,,,,,,,,,,,,,,,,,,,,,,,,,,,,,,,,,,,,,,,,,,,,,,,,,,,,,,,,,,,,,,,,,,,,,,,,,,,,,,,,,,,,,,,,,,,,,,,,,,,,,,,,,,,,,,
,,6733d850215fd59debe051ab,2026-03-17_16h07.49.350,kallum_motion_pilot_GIST_update_2,2026.1.1,Win32,59.52380952,6733d850215fd59debe051ab,69b95efdef24cd8a694e89ee,69b96017d51c210ab009ca9b,0.0292,0.0293,0,126,126,85,1,seveneight,,,,,,,,,,,,,,,,,,,,,,,,,,,,,,,,,,,,,,,,,,,,,,,,,,,,,,,,,,,,,,,,,,,,,,,,,,,,,,,,,,,,,,,,,,,,,,,,,,,,,,,,,,,,,,,,,,,,,,,,,,,,,,,,,,,,,,,,,
,,6733d850215fd59debe051ab,2026-03-17_16h07.49.350,kallum_motion_pilot_GIST_update_2,2026.1.1,Win32,59.52380952,6733d850215fd59debe051ab,69b95efdef24cd8a694e89ee,69b96017d51c210ab009ca9b,0.0293,0.0293,0,127,127,63,1,fourthree,,,,,,,,,,,,,,,,,,,,,,,,,,,,,,,,,,,,,,,,,,,,,,,,,,,,,,,,,,,,,,,,,,,,,,,,,,,,,,,,,,,,,,,,,,,,,,,,,,,,,,,,,,,,,,,,,,,,,,,,,,,,,,,,,,,,,,,,,
,,6733d850215fd59debe051ab,2026-03-17_16h07.49.350,kallum_motion_pilot_GIST_update_2,2026.1.1,Win32,59.52380952,6733d850215fd59debe051ab,69b95efdef24cd8a694e89ee,69b96017d51c210ab009ca9b,0.0294,0.0294,0,128,128,144,1,fivesix,,,,,,,,,,,,,,,,,,,,,,,,,,,,,,,,,,,,,,,,,,,,,,,,,,,,,,,,,,,,,,,,,,,,,,,,,,,,,,,,,,,,,,,,,,,,,,,,,,,,,,,,,,,,,,,,,,,,,,,,,,,,,,,,,,,,,,,,,
,,6733d850215fd59debe051ab,2026-03-17_16h07.49.350,kallum_motion_pilot_GIST_update_2,2026.1.1,Win32,59.52380952,6733d850215fd59debe051ab,69b95efdef24cd8a694e89ee,69b96017d51c210ab009ca9b,0.0294,0.0294,0,129,129,91,1,sixeight,,,,,,,,,,,,,,,,,,,,,,,,,,,,,,,,,,,,,,,,,,,,,,,,,,,,,,,,,,,,,,,,,,,,,,,,,,,,,,,,,,,,,,,,,,,,,,,,,,,,,,,,,,,,,,,,,,,,,,,,,,,,,,,,,,,,,,,,,
,,6733d850215fd59debe051ab,2026-03-17_16h07.49.350,kallum_motion_pilot_GIST_update_2,2026.1.1,Win32,59.52380952,6733d850215fd59debe051ab,69b95efdef24cd8a694e89ee,69b96017d51c210ab009ca9b,0.0295,0.0295,0,130,130,62,1,fourtwo,,,,,,,,,,,,,,,,,,,,,,,,,,,,,,,,,,,,,,,,,,,,,,,,,,,,,,,,,,,,,,,,,,,,,,,,,,,,,,,,,,,,,,,,,,,,,,,,,,,,,,,,,,,,,,,,,,,,,,,,,,,,,,,,,,,,,,,,,
,,6733d850215fd59debe051ab,2026-03-17_16h07.49.350,kallum_motion_pilot_GIST_update_2,2026.1.1,Win32,59.52380952,6733d850215fd59debe051ab,69b95efdef24cd8a694e89ee,69b96017d51c210ab009ca9b,0.0296,0.0296,0,131,131,13,1,threefour,,,,,,,,,,,,,,,,,,,,,,,,,,,,,,,,,,,,,,,,,,,,,,,,,,,,,,,,,,,,,,,,,,,,,,,,,,,,,,,,,,,,,,,,,,,,,,,,,,,,,,,,,,,,,,,,,,,,,,,,,,,,,,,,,,,,,,,,,
,,6733d850215fd59debe051ab,2026-03-17_16h07.49.350,kallum_motion_pilot_GIST_update_2,2026.1.1,Win32,59.52380952,6733d850215fd59debe051ab,69b95efdef24cd8a694e89ee,69b96017d51c210ab009ca9b,0.0297,0.0297,0,132,132,104,1,fivesix,,,,,,,,,,,,,,,,,,,,,,,,,,,,,,,,,,,,,,,,,,,,,,,,,,,,,,,,,,,,,,,,,,,,,,,,,,,,,,,,,,,,,,,,,,,,,,,,,,,,,,,,,,,,,,,,,,,,,,,,,,,,,,,,,,,,,,,,,
,,6733d850215fd59debe051ab,2026-03-17_16h07.49.350,kallum_motion_pilot_GIST_update_2,2026.1.1,Win32,59.52380952,6733d850215fd59debe051ab,69b95efdef24cd8a694e89ee,69b96017d51c210ab009ca9b,0.0298,0.0298,0,133,133,66,1,twoone,,,,,,,,,,,,,,,,,,,,,,,,,,,,,,,,,,,,,,,,,,,,,,,,,,,,,,,,,,,,,,,,,,,,,,,,,,,,,,,,,,,,,,,,,,,,,,,,,,,,,,,,,,,,,,,,,,,,,,,,,,,,,,,,,,,,,,,,,
,,6733d850215fd59debe051ab,2026-03-17_16h07.49.350,kallum_motion_pilot_GIST_update_2,2026.1.1,Win32,59.52380952,6733d850215fd59debe051ab,69b95efdef24cd8a694e89ee,69b96017d51c210ab009ca9b,0.0299,0.0299,0,134,134,33,1,onethree,,,,,,,,,,,,,,,,,,,,,,,,,,,,,,,,,,,,,,,,,,,,,,,,,,,,,,,,,,,,,,,,,,,,,,,,,,,,,,,,,,,,,,,,,,,,,,,,,,,,,,,,,,,,,,,,,,,,,,,,,,,,,,,,,,,,,,,,,
,,6733d850215fd59debe051ab,2026-03-17_16h07.49.350,kallum_motion_pilot_GIST_update_2,2026.1.1,Win32,59.52380952,6733d850215fd59debe051ab,69b95efdef24cd8a694e89ee,69b96017d51c210ab009ca9b,0.03,0.03,0,135,135,57,1,onethree,,,,,,,,,,,,,,,,,,,,,,,,,,,,,,,,,,,,,,,,,,,,,,,,,,,,,,,,,,,,,,,,,,,,,,,,,,,,,,,,,,,,,,,,,,,,,,,,,,,,,,,,,,,,,,,,,,,,,,,,,,,,,,,,,,,,,,,,,
,,6733d850215fd59debe051ab,2026-03-17_16h07.49.350,kallum_motion_pilot_GIST_update_2,2026.1.1,Win32,59.52380952,6733d850215fd59debe051ab,69b95efdef24cd8a694e89ee,69b96017d51c210ab009ca9b,0.03,0.03,0,136,136,38,1,fourtwo,,,,,,,,,,,,,,,,,,,,,,,,,,,,,,,,,,,,,,,,,,,,,,,,,,,,,,,,,,,,,,,,,,,,,,,,,,,,,,,,,,,,,,,,,,,,,,,,,,,,,,,,,,,,,,,,,,,,,,,,,,,,,,,,,,,,,,,,,
,,6733d850215fd59debe051ab,2026-03-17_16h07.49.350,kallum_motion_pilot_GIST_update_2,2026.1.1,Win32,59.52380952,6733d850215fd59debe051ab,69b95efdef24cd8a694e89ee,69b96017d51c210ab009ca9b,0.0301,0.0301,0,137,137,81,1,fiveseven,,,,,,,,,,,,,,,,,,,,,,,,,,,,,,,,,,,,,,,,,,,,,,,,,,,,,,,,,,,,,,,,,,,,,,,,,,,,,,,,,,,,,,,,,,,,,,,,,,,,,,,,,,,,,,,,,,,,,,,,,,,,,,,,,,,,,,,,,
,,6733d850215fd59debe051ab,2026-03-17_16h07.49.350,kallum_motion_pilot_GIST_update_2,2026.1.1,Win32,59.52380952,6733d850215fd59debe051ab,69b95efdef24cd8a694e89ee,69b96017d51c210ab009ca9b,0.0302,0.0302,0,138,138,23,1,fourthree,,,,,,,,,,,,,,,,,,,,,,,,,,,,,,,,,,,,,,,,,,,,,,,,,,,,,,,,,,,,,,,,,,,,,,,,,,,,,,,,,,,,,,,,,,,,,,,,,,,,,,,,,,,,,,,,,,,,,,,,,,,,,,,,,,,,,,,,,
,,6733d850215fd59debe051ab,2026-03-17_16h07.49.350,kallum_motion_pilot_GIST_update_2,2026.1.1,Win32,59.52380952,6733d850215fd59debe051ab,69b95efdef24cd8a694e89ee,69b96017d51c210ab009ca9b,0.0303,0.0303,0,139,139,124,1,sevenfive,,,,,,,,,,,,,,,,,,,,,,,,,,,,,,,,,,,,,,,,,,,,,,,,,,,,,,,,,,,,,,,,,,,,,,,,,,,,,,,,,,,,,,,,,,,,,,,,,,,,,,,,,,,,,,,,,,,,,,,,,,,,,,,,,,,,,,,,,
,,6733d850215fd59debe051ab,2026-03-17_16h07.49.350,kallum_motion_pilot_GIST_update_2,2026.1.1,Win32,59.52380952,6733d850215fd59debe051ab,69b95efdef24cd8a694e89ee,69b96017d51c210ab009ca9b,0.0303,0.0303,0,140,140,150,1,eightsix,,,,,,,,,,,,,,,,,,,,,,,,,,,,,,,,,,,,,,,,,,,,,,,,,,,,,,,,,,,,,,,,,,,,,,,,,,,,,,,,,,,,,,,,,,,,,,,,,,,,,,,,,,,,,,,,,,,,,,,,,,,,,,,,,,,,,,,,,
,,6733d850215fd59debe051ab,2026-03-17_16h07.49.350,kallum_motion_pilot_GIST_update_2,2026.1.1,Win32,59.52380952,6733d850215fd59debe051ab,69b95efdef24cd8a694e89ee,69b96017d51c210ab009ca9b,0.0304,0.0305,0,141,141,77,1,threefour,,,,,,,,,,,,,,,,,,,,,,,,,,,,,,,,,,,,,,,,,,,,,,,,,,,,,,,,,,,,,,,,,,,,,,,,,,,,,,,,,,,,,,,,,,,,,,,,,,,,,,,,,,,,,,,,,,,,,,,,,,,,,,,,,,,,,,,,,
,,6733d850215fd59debe051ab,2026-03-17_16h07.49.350,kallum_motion_pilot_GIST_update_2,2026.1.1,Win32,59.52380952,6733d850215fd59debe051ab,69b95efdef24cd8a694e89ee,69b96017d51c210ab009ca9b,0.0305,0.0305,0,142,142,93,1,seveneight,,,,,,,,,,,,,,,,,,,,,,,,,,,,,,,,,,,,,,,,,,,,,,,,,,,,,,,,,,,,,,,,,,,,,,,,,,,,,,,,,,,,,,,,,,,,,,,,,,,,,,,,,,,,,,,,,,,,,,,,,,,,,,,,,,,,,,,,,
,,6733d850215fd59debe051ab,2026-03-17_16h07.49.350,kallum_motion_pilot_GIST_update_2,2026.1.1,Win32,59.52380952,6733d850215fd59debe051ab,69b95efdef24cd8a694e89ee,69b96017d51c210ab009ca9b,0.0306,0.0306,0,143,143,101,1,seveneight,,,,,,,,,,,,,,,,,,,,,,,,,,,,,,,,,,,,,,,,,,,,,,,,,,,,,,,,,,,,,,,,,,,,,,,,,,,,,,,,,,,,,,,,,,,,,,,,,,,,,,,,,,,,,,,,,,,,,,,,,,,,,,,,,,,,,,,,,
,,6733d850215fd59debe051ab,2026-03-17_16h07.49.350,kallum_motion_pilot_GIST_update_2,2026.1.1,Win32,59.52380952,6733d850215fd59debe051ab,69b95efdef24cd8a694e89ee,69b96017d51c210ab009ca9b,0.0306,0.0307,0,144,144,68,1,threeone,,,,,,,,,,,,,,,,,,,,,,,,,,,,,,,,,,,,,,,,,,,,,,,,,,,,,,,,,,,,,,,,,,,,,,,,,,,,,,,,,,,,,,,,,,,,,,,,,,,,,,,,,,,,,,,,,,,,,,,,,,,,,,,,,,,,,,,,,
,,6733d850215fd59debe051ab,2026-03-17_16h07.49.350,kallum_motion_pilot_GIST_update_2,2026.1.1,Win32,59.52380952,6733d850215fd59debe051ab,69b95efdef24cd8a694e89ee,69b96017d51c210ab009ca9b,0.0307,0.0307,0,145,145,22,1,fourtwo,,,,,,,,,,,,,,,,,,,,,,,,,,,,,,,,,,,,,,,,,,,,,,,,,,,,,,,,,,,,,,,,,,,,,,,,,,,,,,,,,,,,,,,,,,,,,,,,,,,,,,,,,,,,,,,,,,,,,,,,,,,,,,,,,,,,,,,,,
,,6733d850215fd59debe051ab,2026-03-17_16h07.49.350,kallum_motion_pilot_GIST_update_2,2026.1.1,Win32,59.52380952,6733d850215fd59debe051ab,69b95efdef24cd8a694e89ee,69b96017d51c210ab009ca9b,0.0308,0.0308,0,146,146,151,1,eightseven,,,,,,,,,,,,,,,,,,,,,,,,,,,,,,,,,,,,,,,,,,,,,,,,,,,,,,,,,,,,,,,,,,,,,,,,,,,,,,,,,,,,,,,,,,,,,,,,,,,,,,,,,,,,,,,,,,,,,,,,,,,,,,,,,,,,,,,,,
,,6733d850215fd59debe051ab,2026-03-17_16h07.49.350,kallum_motion_pilot_GIST_update_2,2026.1.1,Win32,59.52380952,6733d850215fd59debe051ab,69b95efdef24cd8a694e89ee,69b96017d51c210ab009ca9b,0.0309,0.0309,0,147,147,48,1,onetwo,,,,,,,,,,,,,,,,,,,,,,,,,,,,,,,,,,,,,,,,,,,,,,,,,,,,,,,,,,,,,,,,,,,,,,,,,,,,,,,,,,,,,,,,,,,,,,,,,,,,,,,,,,,,,,,,,,,,,,,,,,,,,,,,,,,,,,,,,
,,6733d850215fd59debe051ab,2026-03-17_16h07.49.350,kallum_motion_pilot_GIST_update_2,2026.1.1,Win32,59.52380952,6733d850215fd59debe051ab,69b95efdef24cd8a694e89ee,69b96017d51c210ab009ca9b,0.031,0.031,0,148,148,111,1,eightseven,,,,,,,,,,,,,,,,,,,,,,,,,,,,,,,,,,,,,,,,,,,,,,,,,,,,,,,,,,,,,,,,,,,,,,,,,,,,,,,,,,,,,,,,,,,,,,,,,,,,,,,,,,,,,,,,,,,,,,,,,,,,,,,,,,,,,,,,,
,,6733d850215fd59debe051ab,2026-03-17_16h07.49.350,kallum_motion_pilot_GIST_update_2,2026.1.1,Win32,59.52380952,6733d850215fd59debe051ab,69b95efdef24cd8a694e89ee,69b96017d51c210ab009ca9b,0.031,0.031,0,149,149,118,1,eightsix,,,,,,,,,,,,,,,,,,,,,,,,,,,,,,,,,,,,,,,,,,,,,,,,,,,,,,,,,,,,,,,,,,,,,,,,,,,,,,,,,,,,,,,,,,,,,,,,,,,,,,,,,,,,,,,,,,,,,,,,,,,,,,,,,,,,,,,,,
,,6733d850215fd59debe051ab,2026-03-17_16h07.49.350,kallum_motion_pilot_GIST_update_2,2026.1.1,Win32,59.52380952,6733d850215fd59debe051ab,69b95efdef24cd8a694e89ee,69b96017d51c210ab009ca9b,0.0311,0.0311,0,150,150,135,1,eightseven,,,,,,,,,,,,,,,,,,,,,,,,,,,,,,,,,,,,,,,,,,,,,,,,,,,,,,,,,,,,,,,,,,,,,,,,,,,,,,,,,,,,,,,,,,,,,,,,,,,,,,,,,,,,,,,,,,,,,,,,,,,,,,,,,,,,,,,,,
,,6733d850215fd59debe051ab,2026-03-17_16h07.49.350,kallum_motion_pilot_GIST_update_2,2026.1.1,Win32,59.52380952,6733d850215fd59debe051ab,69b95efdef24cd8a694e89ee,69b96017d51c210ab009ca9b,0.0312,0.0312,0,151,151,65,1,onethree,,,,,,,,,,,,,,,,,,,,,,,,,,,,,,,,,,,,,,,,,,,,,,,,,,,,,,,,,,,,,,,,,,,,,,,,,,,,,,,,,,,,,,,,,,,,,,,,,,,,,,,,,,,,,,,,,,,,,,,,,,,,,,,,,,,,,,,,,
,,6733d850215fd59debe051ab,2026-03-17_16h07.49.350,kallum_motion_pilot_GIST_update_2,2026.1.1,Win32,59.52380952,6733d850215fd59debe051ab,69b95efdef24cd8a694e89ee,69b96017d51c210ab009ca9b,0.0313,0.0313,0,152,152,46,1,fourtwo,,,,,,,,,,,,,,,,,,,,,,,,,,,,,,,,,,,,,,,,,,,,,,,,,,,,,,,,,,,,,,,,,,,,,,,,,,,,,,,,,,,,,,,,,,,,,,,,,,,,,,,,,,,,,,,,,,,,,,,,,,,,,,,,,,,,,,,,,
,,6733d850215fd59debe051ab,2026-03-17_16h07.49.350,kallum_motion_pilot_GIST_update_2,2026.1.1,Win32,59.52380952,6733d850215fd59debe051ab,69b95efdef24cd8a694e89ee,69b96017d51c210ab009ca9b,0.0314,0.0314,0,153,153,141,1,seveneight,,,,,,,,,,,,,,,,,,,,,,,,,,,,,,,,,,,,,,,,,,,,,,,,,,,,,,,,,,,,,,,,,,,,,,,,,,,,,,,,,,,,,,,,,,,,,,,,,,,,,,,,,,,,,,,,,,,,,,,,,,,,,,,,,,,,,,,,,
,,6733d850215fd59debe051ab,2026-03-17_16h07.49.350,kallum_motion_pilot_GIST_update_2,2026.1.1,Win32,59.52380952,6733d850215fd59debe051ab,69b95efdef24cd8a694e89ee,69b96017d51c210ab009ca9b,0.0315,0.0315,0,154,154,120,1,fivesix,,,,,,,,,,,,,,,,,,,,,,,,,,,,,,,,,,,,,,,,,,,,,,,,,,,,,,,,,,,,,,,,,,,,,,,,,,,,,,,,,,,,,,,,,,,,,,,,,,,,,,,,,,,,,,,,,,,,,,,,,,,,,,,,,,,,,,,,,
,,6733d850215fd59debe051ab,2026-03-17_16h07.49.350,kallum_motion_pilot_GIST_update_2,2026.1.1,Win32,59.52380952,6733d850215fd59debe051ab,69b95efdef24cd8a694e89ee,69b96017d51c210ab009ca9b,0.0315,0.0315,0,155,155,56,1,onetwo,,,,,,,,,,,,,,,,,,,,,,,,,,,,,,,,,,,,,,,,,,,,,,,,,,,,,,,,,,,,,,,,,,,,,,,,,,,,,,,,,,,,,,,,,,,,,,,,,,,,,,,,,,,,,,,,,,,,,,,,,,,,,,,,,,,,,,,,,
,,6733d850215fd59debe051ab,2026-03-17_16h07.49.350,kallum_motion_pilot_GIST_update_2,2026.1.1,Win32,59.52380952,6733d850215fd59debe051ab,69b95efdef24cd8a694e89ee,69b96017d51c210ab009ca9b,0.0316,0.0316,0,156,156,28,1,threeone,,,,,,,,,,,,,,,,,,,,,,,,,,,,,,,,,,,,,,,,,,,,,,,,,,,,,,,,,,,,,,,,,,,,,,,,,,,,,,,,,,,,,,,,,,,,,,,,,,,,,,,,,,,,,,,,,,,,,,,,,,,,,,,,,,,,,,,,,
,,6733d850215fd59debe051ab,2026-03-17_16h07.49.350,kallum_motion_pilot_GIST_update_2,2026.1.1,Win32,59.52380952,6733d850215fd59debe051ab,69b95efdef24cd8a694e89ee,69b96017d51c210ab009ca9b,0.0317,0.0317,0,157,157,133,1,seveneight,,,,,,,,,,,,,,,,,,,,,,,,,,,,,,,,,,,,,,,,,,,,,,,,,,,,,,,,,,,,,,,,,,,,,,,,,,,,,,,,,,,,,,,,,,,,,,,,,,,,,,,,,,,,,,,,,,,,,,,,,,,,,,,,,,,,,,,,,
,,6733d850215fd59debe051ab,2026-03-17_16h07.49.350,kallum_motion_pilot_GIST_update_2,2026.1.1,Win32,59.52380952,6733d850215fd59debe051ab,69b95efdef24cd8a694e89ee,69b96017d51c210ab009ca9b,0.0318,0.0318,0,158,158,29,1,threefour,,,,,,,,,,,,,,,,,,,,,,,,,,,,,,,,,,,,,,,,,,,,,,,,,,,,,,,,,,,,,,,,,,,,,,,,,,,,,,,,,,,,,,,,,,,,,,,,,,,,,,,,,,,,,,,,,,,,,,,,,,,,,,,,,,,,,,,,,
,,6733d850215fd59debe051ab,2026-03-17_16h07.49.350,kallum_motion_pilot_GIST_update_2,2026.1.1,Win32,59.52380952,6733d850215fd59debe051ab,69b95efdef24cd8a694e89ee,69b96017d51c210ab009ca9b,0.0319,0.0319,0,159,159,137,1,fiveseven,,,,,,,,,,,,,,,,,,,,,,,,,,,,,,,,,,,,,,,,,,,,,,,,,,,,,,,,,,,,,,,,,,,,,,,,,,,,,,,,,,,,,,,,,,,,,,,,,,,,,,,,,,,,,,,,,,,,,,,,,,,,,,,,,,,,,,,,,
,,6733d850215fd59debe051ab,2026-03-17_16h07.49.350,kallum_motion_pilot_GIST_update_2,2026.1.1,Win32,59.52380952,6733d850215fd59debe051ab,69b95efdef24cd8a694e89ee,69b96017d51c210ab009ca9b,0.032,0.032,0,160,160,44,1,threeone,,,,,,,,,,,,,,,,,,,,,,,,,,,,,,,,,,,,,,,,,,,,,,,,,,,,,,,,,,,,,,,,,,,,,,,,,,,,,,,,,,,,,,,,,,,,,,,,,,,,,,,,,,,,,,,,,,,,,,,,,,,,,,,,,,,,,,,,,
,,6733d850215fd59debe051ab,2026-03-17_16h07.49.350,kallum_motion_pilot_GIST_update_2,2026.1.1,Win32,59.52380952,6733d850215fd59debe051ab,69b95efdef24cd8a694e89ee,69b96017d51c210ab009ca9b,0.0321,0.0321,0,161,161,90,1,sixfive,,,,,,,,,,,,,,,,,,,,,,,,,,,,,,,,,,,,,,,,,,,,,,,,,,,,,,,,,,,,,,,,,,,,,,,,,,,,,,,,,,,,,,,,,,,,,,,,,,,,,,,,,,,,,,,,,,,,,,,,,,,,,,,,,,,,,,,,,
,,6733d850215fd59debe051ab,2026-03-17_16h07.49.350,kallum_motion_pilot_GIST_update_2,2026.1.1,Win32,59.52380952,6733d850215fd59debe051ab,69b95efdef24cd8a694e89ee,69b96017d51c210ab009ca9b,0.0321,0.0321,1,0,162,142,1,eightsix,,,,,,,,,,,,,,,,,,,,,,,,,,,,,,,,,,,,,,,,,,,,,,,,,,,,,,,,,,,,,,,,,,,,,,,,,,,,,,,,,,,,,,,,,,,,,,,,,,,,,,,,,,,,,,,,,,,,,,,,,,,,,,,,,,,,,,,,,
,,6733d850215fd59debe051ab,2026-03-17_16h07.49.350,kallum_motion_pilot_GIST_update_2,2026.1.1,Win32,59.52380952,6733d850215fd59debe051ab,69b95efdef24cd8a694e89ee,69b96017d51c210ab009ca9b,0.0322,0.0322,1,1,163,27,1,twofour,,,,,,,,,,,,,,,,,,,,,,,,,,,,,,,,,,,,,,,,,,,,,,,,,,,,,,,,,,,,,,,,,,,,,,,,,,,,,,,,,,,,,,,,,,,,,,,,,,,,,,,,,,,,,,,,,,,,,,,,,,,,,,,,,,,,,,,,,
,,6733d850215fd59debe051ab,2026-03-17_16h07.49.350,kallum_motion_pilot_GIST_update_2,2026.1.1,Win32,59.52380952,6733d850215fd59debe051ab,69b95efdef24cd8a694e89ee,69b96017d51c210ab009ca9b,0.0324,0.0324,1,2,164,124,1,sevenfive,,,,,,,,,,,,,,,,,,,,,,,,,,,,,,,,,,,,,,,,,,,,,,,,,,,,,,,,,,,,,,,,,,,,,,,,,,,,,,,,,,,,,,,,,,,,,,,,,,,,,,,,,,,,,,,,,,,,,,,,,,,,,,,,,,,,,,,,,
,,6733d850215fd59debe051ab,2026-03-17_16h07.49.350,kallum_motion_pilot_GIST_update_2,2026.1.1,Win32,59.52380952,6733d850215fd59debe051ab,69b95efdef24cd8a694e89ee,69b96017d51c210ab009ca9b,0.0324,0.0324,1,3,165,137,1,fiveseven,,,,,,,,,,,,,,,,,,,,,,,,,,,,,,,,,,,,,,,,,,,,,,,,,,,,,,,,,,,,,,,,,,,,,,,,,,,,,,,,,,,,,,,,,,,,,,,,,,,,,,,,,,,,,,,,,,,,,,,,,,,,,,,,,,,,,,,,,
,,6733d850215fd59debe051ab,2026-03-17_16h07.49.350,kallum_motion_pilot_GIST_update_2,2026.1.1,Win32,59.52380952,6733d850215fd59debe051ab,69b95efdef24cd8a694e89ee,69b96017d51c210ab009ca9b,0.0325,0.0325,1,4,166,2,1,twoone,,,,,,,,,,,,,,,,,,,,,,,,,,,,,,,,,,,,,,,,,,,,,,,,,,,,,,,,,,,,,,,,,,,,,,,,,,,,,,,,,,,,,,,,,,,,,,,,,,,,,,,,,,,,,,,,,,,,,,,,,,,,,,,,,,,,,,,,,
,,6733d850215fd59debe051ab,2026-03-17_16h07.49.350,kallum_motion_pilot_GIST_update_2,2026.1.1,Win32,59.52380952,6733d850215fd59debe051ab,69b95efdef24cd8a694e89ee,69b96017d51c210ab009ca9b,0.0326,0.0326,1,5,167,133,1,seveneight,,,,,,,,,,,,,,,,,,,,,,,,,,,,,,,,,,,,,,,,,,,,,,,,,,,,,,,,,,,,,,,,,,,,,,,,,,,,,,,,,,,,,,,,,,,,,,,,,,,,,,,,,,,,,,,,,,,,,,,,,,,,,,,,,,,,,,,,,
,,6733d850215fd59debe051ab,2026-03-17_16h07.49.350,kallum_motion_pilot_GIST_update_2,2026.1.1,Win32,59.52380952,6733d850215fd59debe051ab,69b95efdef24cd8a694e89ee,69b96017d51c210ab009ca9b,0.0327,0.0327,1,6,168,72,1,onetwo,,,,,,,,,,,,,,,,,,,,,,,,,,,,,,,,,,,,,,,,,,,,,,,,,,,,,,,,,,,,,,,,,,,,,,,,,,,,,,,,,,,,,,,,,,,,,,,,,,,,,,,,,,,,,,,,,,,,,,,,,,,,,,,,,,,,,,,,,
,,6733d850215fd59debe051ab,2026-03-17_16h07.49.350,kallum_motion_pilot_GIST_update_2,2026.1.1,Win32,59.52380952,6733d850215fd59debe051ab,69b95efdef24cd8a694e89ee,69b96017d51c210ab009ca9b,0.0328,0.0328,1,7,169,109,1,seveneight,,,,,,,,,,,,,,,,,,,,,,,,,,,,,,,,,,,,,,,,,,,,,,,,,,,,,,,,,,,,,,,,,,,,,,,,,,,,,,,,,,,,,,,,,,,,,,,,,,,,,,,,,,,,,,,,,,,,,,,,,,,,,,,,,,,,,,,,,
,,6733d850215fd59debe051ab,2026-03-17_16h07.49.350,kallum_motion_pilot_GIST_update_2,2026.1.1,Win32,59.52380952,6733d850215fd59debe051ab,69b95efdef24cd8a694e89ee,69b96017d51c210ab009ca9b,0.0328,0.0329,1,8,170,102,1,eightsix,,,,,,,,,,,,,,,,,,,,,,,,,,,,,,,,,,,,,,,,,,,,,,,,,,,,,,,,,,,,,,,,,,,,,,,,,,,,,,,,,,,,,,,,,,,,,,,,,,,,,,,,,,,,,,,,,,,,,,,,,,,,,,,,,,,,,,,,,
,,6733d850215fd59debe051ab,2026-03-17_16h07.49.350,kallum_motion_pilot_GIST_update_2,2026.1.1,Win32,59.52380952,6733d850215fd59debe051ab,69b95efdef24cd8a694e89ee,69b96017d51c210ab009ca9b,0.033,0.033,1,9,171,111,1,eightseven,,,,,,,,,,,,,,,,,,,,,,,,,,,,,,,,,,,,,,,,,,,,,,,,,,,,,,,,,,,,,,,,,,,,,,,,,,,,,,,,,,,,,,,,,,,,,,,,,,,,,,,,,,,,,,,,,,,,,,,,,,,,,,,,,,,,,,,,,
,,6733d850215fd59debe051ab,2026-03-17_16h07.49.350,kallum_motion_pilot_GIST_update_2,2026.1.1,Win32,59.52380952,6733d850215fd59debe051ab,69b95efdef24cd8a694e89ee,69b96017d51c210ab009ca9b,0.033,0.033,1,10,172,114,1,sixfive,,,,,,,,,,,,,,,,,,,,,,,,,,,,,,,,,,,,,,,,,,,,,,,,,,,,,,,,,,,,,,,,,,,,,,,,,,,,,,,,,,,,,,,,,,,,,,,,,,,,,,,,,,,,,,,,,,,,,,,,,,,,,,,,,,,,,,,,,
,,6733d850215fd59debe051ab,2026-03-17_16h07.49.350,kallum_motion_pilot_GIST_update_2,2026.1.1,Win32,59.52380952,6733d850215fd59debe051ab,69b95efdef24cd8a694e89ee,69b96017d51c210ab009ca9b,0.0331,0.0331,1,11,173,88,1,fivesix,,,,,,,,,,,,,,,,,,,,,,,,,,,,,,,,,,,,,,,,,,,,,,,,,,,,,,,,,,,,,,,,,,,,,,,,,,,,,,,,,,,,,,,,,,,,,,,,,,,,,,,,,,,,,,,,,,,,,,,,,,,,,,,,,,,,,,,,,
,,6733d850215fd59debe051ab,2026-03-17_16h07.49.350,kallum_motion_pilot_GIST_update_2,2026.1.1,Win32,59.52380952,6733d850215fd59debe051ab,69b95efdef24cd8a694e89ee,69b96017d51c210ab009ca9b,0.0332,0.0332,1,12,174,99,1,sixeight,,,,,,,,,,,,,,,,,,,,,,,,,,,,,,,,,,,,,,,,,,,,,,,,,,,,,,,,,,,,,,,,,,,,,,,,,,,,,,,,,,,,,,,,,,,,,,,,,,,,,,,,,,,,,,,,,,,,,,,,,,,,,,,,,,,,,,,,,
,,6733d850215fd59debe051ab,2026-03-17_16h07.49.350,kallum_motion_pilot_GIST_update_2,2026.1.1,Win32,59.52380952,6733d850215fd59debe051ab,69b95efdef24cd8a694e89ee,69b96017d51c210ab009ca9b,0.0333,0.0333,1,13,175,44,1,threeone,,,,,,,,,,,,,,,,,,,,,,,,,,,,,,,,,,,,,,,,,,,,,,,,,,,,,,,,,,,,,,,,,,,,,,,,,,,,,,,,,,,,,,,,,,,,,,,,,,,,,,,,,,,,,,,,,,,,,,,,,,,,,,,,,,,,,,,,,
,,6733d850215fd59debe051ab,2026-03-17_16h07.49.350,kallum_motion_pilot_GIST_update_2,2026.1.1,Win32,59.52380952,6733d850215fd59debe051ab,69b95efdef24cd8a694e89ee,69b96017d51c210ab009ca9b,0.0334,0.0334,1,14,176,96,1,fivesix,,,,,,,,,,,,,,,,,,,,,,,,,,,,,,,,,,,,,,,,,,,,,,,,,,,,,,,,,,,,,,,,,,,,,,,,,,,,,,,,,,,,,,,,,,,,,,,,,,,,,,,,,,,,,,,,,,,,,,,,,,,,,,,,,,,,,,,,,
,,6733d850215fd59debe051ab,2026-03-17_16h07.49.350,kallum_motion_pilot_GIST_update_2,2026.1.1,Win32,59.52380952,6733d850215fd59debe051ab,69b95efdef24cd8a694e89ee,69b96017d51c210ab009ca9b,0.0335,0.0335,1,15,177,24,1,onetwo,,,,,,,,,,,,,,,,,,,,,,,,,,,,,,,,,,,,,,,,,,,,,,,,,,,,,,,,,,,,,,,,,,,,,,,,,,,,,,,,,,,,,,,,,,,,,,,,,,,,,,,,,,,,,,,,,,,,,,,,,,,,,,,,,,,,,,,,,
,,6733d850215fd59debe051ab,2026-03-17_16h07.49.350,kallum_motion_pilot_GIST_update_2,2026.1.1,Win32,59.52380952,6733d850215fd59debe051ab,69b95efdef24cd8a694e89ee,69b96017d51c210ab009ca9b,0.0335,0.0335,1,16,178,22,1,fourtwo,,,,,,,,,,,,,,,,,,,,,,,,,,,,,,,,,,,,,,,,,,,,,,,,,,,,,,,,,,,,,,,,,,,,,,,,,,,,,,,,,,,,,,,,,,,,,,,,,,,,,,,,,,,,,,,,,,,,,,,,,,,,,,,,,,,,,,,,,
,,6733d850215fd59debe051ab,2026-03-17_16h07.49.350,kallum_motion_pilot_GIST_update_2,2026.1.1,Win32,59.52380952,6733d850215fd59debe051ab,69b95efdef24cd8a694e89ee,69b96017d51c210ab009ca9b,0.0336,0.0336,1,17,179,101,1,seveneight,,,,,,,,,,,,,,,,,,,,,,,,,,,,,,,,,,,,,,,,,,,,,,,,,,,,,,,,,,,,,,,,,,,,,,,,,,,,,,,,,,,,,,,,,,,,,,,,,,,,,,,,,,,,,,,,,,,,,,,,,,,,,,,,,,,,,,,,,
,,6733d850215fd59debe051ab,2026-03-17_16h07.49.350,kallum_motion_pilot_GIST_update_2,2026.1.1,Win32,59.52380952,6733d850215fd59debe051ab,69b95efdef24cd8a694e89ee,69b96017d51c210ab009ca9b,0.0337,0.0337,1,18,180,0,1,onetwo,,,,,,,,,,,,,,,,,,,,,,,,,,,,,,,,,,,,,,,,,,,,,,,,,,,,,,,,,,,,,,,,,,,,,,,,,,,,,,,,,,,,,,,,,,,,,,,,,,,,,,,,,,,,,,,,,,,,,,,,,,,,,,,,,,,,,,,,,
,,6733d850215fd59debe051ab,2026-03-17_16h07.49.350,kallum_motion_pilot_GIST_update_2,2026.1.1,Win32,59.52380952,6733d850215fd59debe051ab,69b95efdef24cd8a694e89ee,69b96017d51c210ab009ca9b,0.0338,0.0338,1,19,181,138,1,sixfive,,,,,,,,,,,,,,,,,,,,,,,,,,,,,,,,,,,,,,,,,,,,,,,,,,,,,,,,,,,,,,,,,,,,,,,,,,,,,,,,,,,,,,,,,,,,,,,,,,,,,,,,,,,,,,,,,,,,,,,,,,,,,,,,,,,,,,,,,
,,6733d850215fd59debe051ab,2026-03-17_16h07.49.350,kallum_motion_pilot_GIST_update_2,2026.1.1,Win32,59.52380952,6733d850215fd59debe051ab,69b95efdef24cd8a694e89ee,69b96017d51c210ab009ca9b,0.0338,0.0338,1,20,182,57,1,onethree,,,,,,,,,,,,,,,,,,,,,,,,,,,,,,,,,,,,,,,,,,,,,,,,,,,,,,,,,,,,,,,,,,,,,,,,,,,,,,,,,,,,,,,,,,,,,,,,,,,,,,,,,,,,,,,,,,,,,,,,,,,,,,,,,,,,,,,,,
,,6733d850215fd59debe051ab,2026-03-17_16h07.49.350,kallum_motion_pilot_GIST_update_2,2026.1.1,Win32,59.52380952,6733d850215fd59debe051ab,69b95efdef24cd8a694e89ee,69b96017d51c210ab009ca9b,0.034,0.034,1,21,183,39,1,fourthree,,,,,,,,,,,,,,,,,,,,,,,,,,,,,,,,,,,,,,,,,,,,,,,,,,,,,,,,,,,,,,,,,,,,,,,,,,,,,,,,,,,,,,,,,,,,,,,,,,,,,,,,,,,,,,,,,,,,,,,,,,,,,,,,,,,,,,,,,
,,6733d850215fd59debe051ab,2026-03-17_16h07.49.350,kallum_motion_pilot_GIST_update_2,2026.1.1,Win32,59.52380952,6733d850215fd59debe051ab,69b95efdef24cd8a694e89ee,69b96017d51c210ab009ca9b,0.034,0.034,1,22,184,85,1,seveneight,,,,,,,,,,,,,,,,,,,,,,,,,,,,,,,,,,,,,,,,,,,,,,,,,,,,,,,,,,,,,,,,,,,,,,,,,,,,,,,,,,,,,,,,,,,,,,,,,,,,,,,,,,,,,,,,,,,,,,,,,,,,,,,,,,,,,,,,,
,,6733d850215fd59debe051ab,2026-03-17_16h07.49.350,kallum_motion_pilot_GIST_update_2,2026.1.1,Win32,59.52380952,6733d850215fd59debe051ab,69b95efdef24cd8a694e89ee,69b96017d51c210ab009ca9b,0.0341,0.0341,1,23,185,115,1,sixeight,,,,,,,,,,,,,,,,,,,,,,,,,,,,,,,,,,,,,,,,,,,,,,,,,,,,,,,,,,,,,,,,,,,,,,,,,,,,,,,,,,,,,,,,,,,,,,,,,,,,,,,,,,,,,,,,,,,,,,,,,,,,,,,,,,,,,,,,,
,,6733d850215fd59debe051ab,2026-03-17_16h07.49.350,kallum_motion_pilot_GIST_update_2,2026.1.1,Win32,59.52380952,6733d850215fd59debe051ab,69b95efdef24cd8a694e89ee,69b96017d51c210ab009ca9b,0.0342,0.0342,1,24,186,131,1,sixeight,,,,,,,,,,,,,,,,,,,,,,,,,,,,,,,,,,,,,,,,,,,,,,,,,,,,,,,,,,,,,,,,,,,,,,,,,,,,,,,,,,,,,,,,,,,,,,,,,,,,,,,,,,,,,,,,,,,,,,,,,,,,,,,,,,,,,,,,,
,,6733d850215fd59debe051ab,2026-03-17_16h07.49.350,kallum_motion_pilot_GIST_update_2,2026.1.1,Win32,59.52380952,6733d850215fd59debe051ab,69b95efdef24cd8a694e89ee,69b96017d51c210ab009ca9b,0.0343,0.0343,1,25,187,122,1,sixfive,,,,,,,,,,,,,,,,,,,,,,,,,,,,,,,,,,,,,,,,,,,,,,,,,,,,,,,,,,,,,,,,,,,,,,,,,,,,,,,,,,,,,,,,,,,,,,,,,,,,,,,,,,,,,,,,,,,,,,,,,,,,,,,,,,,,,,,,,
,,6733d850215fd59debe051ab,2026-03-17_16h07.49.350,kallum_motion_pilot_GIST_update_2,2026.1.1,Win32,59.52380952,6733d850215fd59debe051ab,69b95efdef24cd8a694e89ee,69b96017d51c210ab009ca9b,0.0344,0.0344,1,26,188,110,1,eightsix,,,,,,,,,,,,,,,,,,,,,,,,,,,,,,,,,,,,,,,,,,,,,,,,,,,,,,,,,,,,,,,,,,,,,,,,,,,,,,,,,,,,,,,,,,,,,,,,,,,,,,,,,,,,,,,,,,,,,,,,,,,,,,,,,,,,,,,,,
,,6733d850215fd59debe051ab,2026-03-17_16h07.49.350,kallum_motion_pilot_GIST_update_2,2026.1.1,Win32,59.52380952,6733d850215fd59debe051ab,69b95efdef24cd8a694e89ee,69b96017d51c210ab009ca9b,0.0345,0.0345,1,27,189,43,1,twofour,,,,,,,,,,,,,,,,,,,,,,,,,,,,,,,,,,,,,,,,,,,,,,,,,,,,,,,,,,,,,,,,,,,,,,,,,,,,,,,,,,,,,,,,,,,,,,,,,,,,,,,,,,,,,,,,,,,,,,,,,,,,,,,,,,,,,,,,,
,,6733d850215fd59debe051ab,2026-03-17_16h07.49.350,kallum_motion_pilot_GIST_update_2,2026.1.1,Win32,59.52380952,6733d850215fd59debe051ab,69b95efdef24cd8a694e89ee,69b96017d51c210ab009ca9b,0.0346,0.0346,1,28,190,28,1,threeone,,,,,,,,,,,,,,,,,,,,,,,,,,,,,,,,,,,,,,,,,,,,,,,,,,,,,,,,,,,,,,,,,,,,,,,,,,,,,,,,,,,,,,,,,,,,,,,,,,,,,,,,,,,,,,,,,,,,,,,,,,,,,,,,,,,,,,,,,
,,6733d850215fd59debe051ab,2026-03-17_16h07.49.350,kallum_motion_pilot_GIST_update_2,2026.1.1,Win32,59.52380952,6733d850215fd59debe051ab,69b95efdef24cd8a694e89ee,69b96017d51c210ab009ca9b,0.0347,0.0347,1,29,191,13,1,threefour,,,,,,,,,,,,,,,,,,,,,,,,,,,,,,,,,,,,,,,,,,,,,,,,,,,,,,,,,,,,,,,,,,,,,,,,,,,,,,,,,,,,,,,,,,,,,,,,,,,,,,,,,,,,,,,,,,,,,,,,,,,,,,,,,,,,,,,,,
,,6733d850215fd59debe051ab,2026-03-17_16h07.49.350,kallum_motion_pilot_GIST_update_2,2026.1.1,Win32,59.52380952,6733d850215fd59debe051ab,69b95efdef24cd8a694e89ee,69b96017d51c210ab009ca9b,0.0348,0.0348,1,30,192,107,1,sixeight,,,,,,,,,,,,,,,,,,,,,,,,,,,,,,,,,,,,,,,,,,,,,,,,,,,,,,,,,,,,,,,,,,,,,,,,,,,,,,,,,,,,,,,,,,,,,,,,,,,,,,,,,,,,,,,,,,,,,,,,,,,,,,,,,,,,,,,,,
,,6733d850215fd59debe051ab,2026-03-17_16h07.49.350,kallum_motion_pilot_GIST_update_2,2026.1.1,Win32,59.52380952,6733d850215fd59debe051ab,69b95efdef24cd8a694e89ee,69b96017d51c210ab009ca9b,0.0349,0.0349,1,31,193,62,1,fourtwo,,,,,,,,,,,,,,,,,,,,,,,,,,,,,,,,,,,,,,,,,,,,,,,,,,,,,,,,,,,,,,,,,,,,,,,,,,,,,,,,,,,,,,,,,,,,,,,,,,,,,,,,,,,,,,,,,,,,,,,,,,,,,,,,,,,,,,,,,
,,6733d850215fd59debe051ab,2026-03-17_16h07.49.350,kallum_motion_pilot_GIST_update_2,2026.1.1,Win32,59.52380952,6733d850215fd59debe051ab,69b95efdef24cd8a694e89ee,69b96017d51c210ab009ca9b,0.0349,0.0349,1,32,194,6,1,fourtwo,,,,,,,,,,,,,,,,,,,,,,,,,,,,,,,,,,,,,,,,,,,,,,,,,,,,,,,,,,,,,,,,,,,,,,,,,,,,,,,,,,,,,,,,,,,,,,,,,,,,,,,,,,,,,,,,,,,,,,,,,,,,,,,,,,,,,,,,,
,,6733d850215fd59debe051ab,2026-03-17_16h07.49.350,kallum_motion_pilot_GIST_update_2,2026.1.1,Win32,59.52380952,6733d850215fd59debe051ab,69b95efdef24cd8a694e89ee,69b96017d51c210ab009ca9b,0.0351,0.0351,1,33,195,83,1,sixeight,,,,,,,,,,,,,,,,,,,,,,,,,,,,,,,,,,,,,,,,,,,,,,,,,,,,,,,,,,,,,,,,,,,,,,,,,,,,,,,,,,,,,,,,,,,,,,,,,,,,,,,,,,,,,,,,,,,,,,,,,,,,,,,,,,,,,,,,,
,,6733d850215fd59debe051ab,2026-03-17_16h07.49.350,kallum_motion_pilot_GIST_update_2,2026.1.1,Win32,59.52380952,6733d850215fd59debe051ab,69b95efdef24cd8a694e89ee,69b96017d51c210ab009ca9b,0.0352,0.0352,1,34,196,148,1,sevenfive,,,,,,,,,,,,,,,,,,,,,,,,,,,,,,,,,,,,,,,,,,,,,,,,,,,,,,,,,,,,,,,,,,,,,,,,,,,,,,,,,,,,,,,,,,,,,,,,,,,,,,,,,,,,,,,,,,,,,,,,,,,,,,,,,,,,,,,,,
,,6733d850215fd59debe051ab,2026-03-17_16h07.49.350,kallum_motion_pilot_GIST_update_2,2026.1.1,Win32,59.52380952,6733d850215fd59debe051ab,69b95efdef24cd8a694e89ee,69b96017d51c210ab009ca9b,0.0353,0.0353,1,35,197,108,1,sevenfive,,,,,,,,,,,,,,,,,,,,,,,,,,,,,,,,,,,,,,,,,,,,,,,,,,,,,,,,,,,,,,,,,,,,,,,,,,,,,,,,,,,,,,,,,,,,,,,,,,,,,,,,,,,,,,,,,,,,,,,,,,,,,,,,,,,,,,,,,
,,6733d850215fd59debe051ab,2026-03-17_16h07.49.350,kallum_motion_pilot_GIST_update_2,2026.1.1,Win32,59.52380952,6733d850215fd59debe051ab,69b95efdef24cd8a694e89ee,69b96017d51c210ab009ca9b,0.0354,0.0354,1,36,198,17,1,onethree,,,,,,,,,,,,,,,,,,,,,,,,,,,,,,,,,,,,,,,,,,,,,,,,,,,,,,,,,,,,,,,,,,,,,,,,,,,,,,,,,,,,,,,,,,,,,,,,,,,,,,,,,,,,,,,,,,,,,,,,,,,,,,,,,,,,,,,,,
,,6733d850215fd59debe051ab,2026-03-17_16h07.49.350,kallum_motion_pilot_GIST_update_2,2026.1.1,Win32,59.52380952,6733d850215fd59debe051ab,69b95efdef24cd8a694e89ee,69b96017d51c210ab009ca9b,0.0354,0.0354,1,37,199,73,1,onethree,,,,,,,,,,,,,,,,,,,,,,,,,,,,,,,,,,,,,,,,,,,,,,,,,,,,,,,,,,,,,,,,,,,,,,,,,,,,,,,,,,,,,,,,,,,,,,,,,,,,,,,,,,,,,,,,,,,,,,,,,,,,,,,,,,,,,,,,,
,,6733d850215fd59debe051ab,2026-03-17_16h07.49.350,kallum_motion_pilot_GIST_update_2,2026.1.1,Win32,59.52380952,6733d850215fd59debe051ab,69b95efdef24cd8a694e89ee,69b96017d51c210ab009ca9b,0.0356,0.0356,1,38,200,20,1,threeone,,,,,,,,,,,,,,,,,,,,,,,,,,,,,,,,,,,,,,,,,,,,,,,,,,,,,,,,,,,,,,,,,,,,,,,,,,,,,,,,,,,,,,,,,,,,,,,,,,,,,,,,,,,,,,,,,,,,,,,,,,,,,,,,,,,,,,,,,
,,6733d850215fd59debe051ab,2026-03-17_16h07.49.350,kallum_motion_pilot_GIST_update_2,2026.1.1,Win32,59.52380952,6733d850215fd59debe051ab,69b95efdef24cd8a694e89ee,69b96017d51c210ab009ca9b,0.0356,0.0356,1,39,201,55,1,fourthree,,,,,,,,,,,,,,,,,,,,,,,,,,,,,,,,,,,,,,,,,,,,,,,,,,,,,,,,,,,,,,,,,,,,,,,,,,,,,,,,,,,,,,,,,,,,,,,,,,,,,,,,,,,,,,,,,,,,,,,,,,,,,,,,,,,,,,,,,
,,6733d850215fd59debe051ab,2026-03-17_16h07.49.350,kallum_motion_pilot_GIST_update_2,2026.1.1,Win32,59.52380952,6733d850215fd59debe051ab,69b95efdef24cd8a694e89ee,69b96017d51c210ab009ca9b,0.0357,0.0357,1,40,202,58,1,twoone,,,,,,,,,,,,,,,,,,,,,,,,,,,,,,,,,,,,,,,,,,,,,,,,,,,,,,,,,,,,,,,,,,,,,,,,,,,,,,,,,,,,,,,,,,,,,,,,,,,,,,,,,,,,,,,,,,,,,,,,,,,,,,,,,,,,,,,,,
,,6733d850215fd59debe051ab,2026-03-17_16h07.49.350,kallum_motion_pilot_GIST_update_2,2026.1.1,Win32,59.52380952,6733d850215fd59debe051ab,69b95efdef24cd8a694e89ee,69b96017d51c210ab009ca9b,0.0359,0.0359,1,41,203,66,1,twoone,,,,,,,,,,,,,,,,,,,,,,,,,,,,,,,,,,,,,,,,,,,,,,,,,,,,,,,,,,,,,,,,,,,,,,,,,,,,,,,,,,,,,,,,,,,,,,,,,,,,,,,,,,,,,,,,,,,,,,,,,,,,,,,,,,,,,,,,,
,,6733d850215fd59debe051ab,2026-03-17_16h07.49.350,kallum_motion_pilot_GIST_update_2,2026.1.1,Win32,59.52380952,6733d850215fd59debe051ab,69b95efdef24cd8a694e89ee,69b96017d51c210ab009ca9b,0.0359,0.0359,1,42,204,50,1,twoone,,,,,,,,,,,,,,,,,,,,,,,,,,,,,,,,,,,,,,,,,,,,,,,,,,,,,,,,,,,,,,,,,,,,,,,,,,,,,,,,,,,,,,,,,,,,,,,,,,,,,,,,,,,,,,,,,,,,,,,,,,,,,,,,,,,,,,,,,
,,6733d850215fd59debe051ab,2026-03-17_16h07.49.350,kallum_motion_pilot_GIST_update_2,2026.1.1,Win32,59.52380952,6733d850215fd59debe051ab,69b95efdef24cd8a694e89ee,69b96017d51c210ab009ca9b,0.036,0.036,1,43,205,140,1,sevenfive,,,,,,,,,,,,,,,,,,,,,,,,,,,,,,,,,,,,,,,,,,,,,,,,,,,,,,,,,,,,,,,,,,,,,,,,,,,,,,,,,,,,,,,,,,,,,,,,,,,,,,,,,,,,,,,,,,,,,,,,,,,,,,,,,,,,,,,,,
,,6733d850215fd59debe051ab,2026-03-17_16h07.49.350,kallum_motion_pilot_GIST_update_2,2026.1.1,Win32,59.52380952,6733d850215fd59debe051ab,69b95efdef24cd8a694e89ee,69b96017d51c210ab009ca9b,0.0361,0.0361,1,44,206,98,1,sixfive,,,,,,,,,,,,,,,,,,,,,,,,,,,,,,,,,,,,,,,,,,,,,,,,,,,,,,,,,,,,,,,,,,,,,,,,,,,,,,,,,,,,,,,,,,,,,,,,,,,,,,,,,,,,,,,,,,,,,,,,,,,,,,,,,,,,,,,,,
,,6733d850215fd59debe051ab,2026-03-17_16h07.49.350,kallum_motion_pilot_GIST_update_2,2026.1.1,Win32,59.52380952,6733d850215fd59debe051ab,69b95efdef24cd8a694e89ee,69b96017d51c210ab009ca9b,0.0362,0.0362,1,45,207,128,1,fivesix,,,,,,,,,,,,,,,,,,,,,,,,,,,,,,,,,,,,,,,,,,,,,,,,,,,,,,,,,,,,,,,,,,,,,,,,,,,,,,,,,,,,,,,,,,,,,,,,,,,,,,,,,,,,,,,,,,,,,,,,,,,,,,,,,,,,,,,,,
,,6733d850215fd59debe051ab,2026-03-17_16h07.49.350,kallum_motion_pilot_GIST_update_2,2026.1.1,Win32,59.52380952,6733d850215fd59debe051ab,69b95efdef24cd8a694e89ee,69b96017d51c210ab009ca9b,0.0363,0.0363,1,46,208,151,1,eightseven,,,,,,,,,,,,,,,,,,,,,,,,,,,,,,,,,,,,,,,,,,,,,,,,,,,,,,,,,,,,,,,,,,,,,,,,,,,,,,,,,,,,,,,,,,,,,,,,,,,,,,,,,,,,,,,,,,,,,,,,,,,,,,,,,,,,,,,,,
,,6733d850215fd59debe051ab,2026-03-17_16h07.49.350,kallum_motion_pilot_GIST_update_2,2026.1.1,Win32,59.52380952,6733d850215fd59debe051ab,69b95efdef24cd8a694e89ee,69b96017d51c210ab009ca9b,0.0364,0.0364,1,47,209,61,1,threefour,,,,,,,,,,,,,,,,,,,,,,,,,,,,,,,,,,,,,,,,,,,,,,,,,,,,,,,,,,,,,,,,,,,,,,,,,,,,,,,,,,,,,,,,,,,,,,,,,,,,,,,,,,,,,,,,,,,,,,,,,,,,,,,,,,,,,,,,,
,,6733d850215fd59debe051ab,2026-03-17_16h07.49.350,kallum_motion_pilot_GIST_update_2,2026.1.1,Win32,59.52380952,6733d850215fd59debe051ab,69b95efdef24cd8a694e89ee,69b96017d51c210ab009ca9b,0.0365,0.0365,1,48,210,70,1,fourtwo,,,,,,,,,,,,,,,,,,,,,,,,,,,,,,,,,,,,,,,,,,,,,,,,,,,,,,,,,,,,,,,,,,,,,,,,,,,,,,,,,,,,,,,,,,,,,,,,,,,,,,,,,,,,,,,,,,,,,,,,,,,,,,,,,,,,,,,,,
,,6733d850215fd59debe051ab,2026-03-17_16h07.49.350,kallum_motion_pilot_GIST_update_2,2026.1.1,Win32,59.52380952,6733d850215fd59debe051ab,69b95efdef24cd8a694e89ee,69b96017d51c210ab009ca9b,0.0366,0.0366,1,49,211,21,1,threefour,,,,,,,,,,,,,,,,,,,,,,,,,,,,,,,,,,,,,,,,,,,,,,,,,,,,,,,,,,,,,,,,,,,,,,,,,,,,,,,,,,,,,,,,,,,,,,,,,,,,,,,,,,,,,,,,,,,,,,,,,,,,,,,,,,,,,,,,,
,,6733d850215fd59debe051ab,2026-03-17_16h07.49.350,kallum_motion_pilot_GIST_update_2,2026.1.1,Win32,59.52380952,6733d850215fd59debe051ab,69b95efdef24cd8a694e89ee,69b96017d51c210ab009ca9b,0.0367,0.0367,1,50,212,103,1,eightseven,,,,,,,,,,,,,,,,,,,,,,,,,,,,,,,,,,,,,,,,,,,,,,,,,,,,,,,,,,,,,,,,,,,,,,,,,,,,,,,,,,,,,,,,,,,,,,,,,,,,,,,,,,,,,,,,,,,,,,,,,,,,,,,,,,,,,,,,,
,,6733d850215fd59debe051ab,2026-03-17_16h07.49.350,kallum_motion_pilot_GIST_update_2,2026.1.1,Win32,59.52380952,6733d850215fd59debe051ab,69b95efdef24cd8a694e89ee,69b96017d51c210ab009ca9b,0.0368,0.0368,1,51,213,63,1,fourthree,,,,,,,,,,,,,,,,,,,,,,,,,,,,,,,,,,,,,,,,,,,,,,,,,,,,,,,,,,,,,,,,,,,,,,,,,,,,,,,,,,,,,,,,,,,,,,,,,,,,,,,,,,,,,,,,,,,,,,,,,,,,,,,,,,,,,,,,,
,,6733d850215fd59debe051ab,2026-03-17_16h07.49.350,kallum_motion_pilot_GIST_update_2,2026.1.1,Win32,59.52380952,6733d850215fd59debe051ab,69b95efdef24cd8a694e89ee,69b96017d51c210ab009ca9b,0.0368,0.0368,1,52,214,150,1,eightsix,,,,,,,,,,,,,,,,,,,,,,,,,,,,,,,,,,,,,,,,,,,,,,,,,,,,,,,,,,,,,,,,,,,,,,,,,,,,,,,,,,,,,,,,,,,,,,,,,,,,,,,,,,,,,,,,,,,,,,,,,,,,,,,,,,,,,,,,,
,,6733d850215fd59debe051ab,2026-03-17_16h07.49.350,kallum_motion_pilot_GIST_update_2,2026.1.1,Win32,59.52380952,6733d850215fd59debe051ab,69b95efdef24cd8a694e89ee,69b96017d51c210ab009ca9b,0.037,0.037,1,53,215,41,1,onethree,,,,,,,,,,,,,,,,,,,,,,,,,,,,,,,,,,,,,,,,,,,,,,,,,,,,,,,,,,,,,,,,,,,,,,,,,,,,,,,,,,,,,,,,,,,,,,,,,,,,,,,,,,,,,,,,,,,,,,,,,,,,,,,,,,,,,,,,,
,,6733d850215fd59debe051ab,2026-03-17_16h07.49.350,kallum_motion_pilot_GIST_update_2,2026.1.1,Win32,59.52380952,6733d850215fd59debe051ab,69b95efdef24cd8a694e89ee,69b96017d51c210ab009ca9b,0.0371,0.0371,1,54,216,113,1,fiveseven,,,,,,,,,,,,,,,,,,,,,,,,,,,,,,,,,,,,,,,,,,,,,,,,,,,,,,,,,,,,,,,,,,,,,,,,,,,,,,,,,,,,,,,,,,,,,,,,,,,,,,,,,,,,,,,,,,,,,,,,,,,,,,,,,,,,,,,,,
,,6733d850215fd59debe051ab,2026-03-17_16h07.49.350,kallum_motion_pilot_GIST_update_2,2026.1.1,Win32,59.52380952,6733d850215fd59debe051ab,69b95efdef24cd8a694e89ee,69b96017d51c210ab009ca9b,0.0372,0.0372,1,55,217,1,1,onethree,,,,,,,,,,,,,,,,,,,,,,,,,,,,,,,,,,,,,,,,,,,,,,,,,,,,,,,,,,,,,,,,,,,,,,,,,,,,,,,,,,,,,,,,,,,,,,,,,,,,,,,,,,,,,,,,,,,,,,,,,,,,,,,,,,,,,,,,,
,,6733d850215fd59debe051ab,2026-03-17_16h07.49.350,kallum_motion_pilot_GIST_update_2,2026.1.1,Win32,59.52380952,6733d850215fd59debe051ab,69b95efdef24cd8a694e89ee,69b96017d51c210ab009ca9b,0.0373,0.0373,1,56,218,89,1,fiveseven,,,,,,,,,,,,,,,,,,,,,,,,,,,,,,,,,,,,,,,,,,,,,,,,,,,,,,,,,,,,,,,,,,,,,,,,,,,,,,,,,,,,,,,,,,,,,,,,,,,,,,,,,,,,,,,,,,,,,,,,,,,,,,,,,,,,,,,,,
,,6733d850215fd59debe051ab,2026-03-17_16h07.49.350,kallum_motion_pilot_GIST_update_2,2026.1.1,Win32,59.52380952,6733d850215fd59debe051ab,69b95efdef24cd8a694e89ee,69b96017d51c210ab009ca9b,0.0373,0.0373,1,57,219,126,1,eightsix,,,,,,,,,,,,,,,,,,,,,,,,,,,,,,,,,,,,,,,,,,,,,,,,,,,,,,,,,,,,,,,,,,,,,,,,,,,,,,,,,,,,,,,,,,,,,,,,,,,,,,,,,,,,,,,,,,,,,,,,,,,,,,,,,,,,,,,,,
,,6733d850215fd59debe051ab,2026-03-17_16h07.49.350,kallum_motion_pilot_GIST_update_2,2026.1.1,Win32,59.52380952,6733d850215fd59debe051ab,69b95efdef24cd8a694e89ee,69b96017d51c210ab009ca9b,0.0374,0.0375,1,58,220,65,1,onethree,,,,,,,,,,,,,,,,,,,,,,,,,,,,,,,,,,,,,,,,,,,,,,,,,,,,,,,,,,,,,,,,,,,,,,,,,,,,,,,,,,,,,,,,,,,,,,,,,,,,,,,,,,,,,,,,,,,,,,,,,,,,,,,,,,,,,,,,,
,,6733d850215fd59debe051ab,2026-03-17_16h07.49.350,kallum_motion_pilot_GIST_update_2,2026.1.1,Win32,59.52380952,6733d850215fd59debe051ab,69b95efdef24cd8a694e89ee,69b96017d51c210ab009ca9b,0.0375,0.0375,1,59,221,106,1,sixfive,,,,,,,,,,,,,,,,,,,,,,,,,,,,,,,,,,,,,,,,,,,,,,,,,,,,,,,,,,,,,,,,,,,,,,,,,,,,,,,,,,,,,,,,,,,,,,,,,,,,,,,,,,,,,,,,,,,,,,,,,,,,,,,,,,,,,,,,,
,,6733d850215fd59debe051ab,2026-03-17_16h07.49.350,kallum_motion_pilot_GIST_update_2,2026.1.1,Win32,59.52380952,6733d850215fd59debe051ab,69b95efdef24cd8a694e89ee,69b96017d51c210ab009ca9b,0.0376,0.0376,1,60,222,157,1,seveneight,,,,,,,,,,,,,,,,,,,,,,,,,,,,,,,,,,,,,,,,,,,,,,,,,,,,,,,,,,,,,,,,,,,,,,,,,,,,,,,,,,,,,,,,,,,,,,,,,,,,,,,,,,,,,,,,,,,,,,,,,,,,,,,,,,,,,,,,,
,,6733d850215fd59debe051ab,2026-03-17_16h07.49.350,kallum_motion_pilot_GIST_update_2,2026.1.1,Win32,59.52380952,6733d850215fd59debe051ab,69b95efdef24cd8a694e89ee,69b96017d51c210ab009ca9b,0.0378,0.0378,1,61,223,49,1,onethree,,,,,,,,,,,,,,,,,,,,,,,,,,,,,,,,,,,,,,,,,,,,,,,,,,,,,,,,,,,,,,,,,,,,,,,,,,,,,,,,,,,,,,,,,,,,,,,,,,,,,,,,,,,,,,,,,,,,,,,,,,,,,,,,,,,,,,,,,
,,6733d850215fd59debe051ab,2026-03-17_16h07.49.350,kallum_motion_pilot_GIST_update_2,2026.1.1,Win32,59.52380952,6733d850215fd59debe051ab,69b95efdef24cd8a694e89ee,69b96017d51c210ab009ca9b,0.0379,0.0379,1,62,224,60,1,threeone,,,,,,,,,,,,,,,,,,,,,,,,,,,,,,,,,,,,,,,,,,,,,,,,,,,,,,,,,,,,,,,,,,,,,,,,,,,,,,,,,,,,,,,,,,,,,,,,,,,,,,,,,,,,,,,,,,,,,,,,,,,,,,,,,,,,,,,,,
,,6733d850215fd59debe051ab,2026-03-17_16h07.49.350,kallum_motion_pilot_GIST_update_2,2026.1.1,Win32,59.52380952,6733d850215fd59debe051ab,69b95efdef24cd8a694e89ee,69b96017d51c210ab009ca9b,0.038,0.038,1,63,225,33,1,onethree,,,,,,,,,,,,,,,,,,,,,,,,,,,,,,,,,,,,,,,,,,,,,,,,,,,,,,,,,,,,,,,,,,,,,,,,,,,,,,,,,,,,,,,,,,,,,,,,,,,,,,,,,,,,,,,,,,,,,,,,,,,,,,,,,,,,,,,,,
,,6733d850215fd59debe051ab,2026-03-17_16h07.49.350,kallum_motion_pilot_GIST_update_2,2026.1.1,Win32,59.52380952,6733d850215fd59debe051ab,69b95efdef24cd8a694e89ee,69b96017d51c210ab009ca9b,0.0381,0.0381,1,64,226,127,1,eightseven,,,,,,,,,,,,,,,,,,,,,,,,,,,,,,,,,,,,,,,,,,,,,,,,,,,,,,,,,,,,,,,,,,,,,,,,,,,,,,,,,,,,,,,,,,,,,,,,,,,,,,,,,,,,,,,,,,,,,,,,,,,,,,,,,,,,,,,,,
,,6733d850215fd59debe051ab,2026-03-17_16h07.49.350,kallum_motion_pilot_GIST_update_2,2026.1.1,Win32,59.52380952,6733d850215fd59debe051ab,69b95efdef24cd8a694e89ee,69b96017d51c210ab009ca9b,0.0382,0.0382,1,65,227,31,1,fourthree,,,,,,,,,,,,,,,,,,,,,,,,,,,,,,,,,,,,,,,,,,,,,,,,,,,,,,,,,,,,,,,,,,,,,,,,,,,,,,,,,,,,,,,,,,,,,,,,,,,,,,,,,,,,,,,,,,,,,,,,,,,,,,,,,,,,,,,,,
,,6733d850215fd59debe051ab,2026-03-17_16h07.49.350,kallum_motion_pilot_GIST_update_2,2026.1.1,Win32,59.52380952,6733d850215fd59debe051ab,69b95efdef24cd8a694e89ee,69b96017d51c210ab009ca9b,0.0383,0.0383,1,66,228,10,1,twoone,,,,,,,,,,,,,,,,,,,,,,,,,,,,,,,,,,,,,,,,,,,,,,,,,,,,,,,,,,,,,,,,,,,,,,,,,,,,,,,,,,,,,,,,,,,,,,,,,,,,,,,,,,,,,,,,,,,,,,,,,,,,,,,,,,,,,,,,,
,,6733d850215fd59debe051ab,2026-03-17_16h07.49.350,kallum_motion_pilot_GIST_update_2,2026.1.1,Win32,59.52380952,6733d850215fd59debe051ab,69b95efdef24cd8a694e89ee,69b96017d51c210ab009ca9b,0.0385,0.0385,1,67,229,74,1,twoone,,,,,,,,,,,,,,,,,,,,,,,,,,,,,,,,,,,,,,,,,,,,,,,,,,,,,,,,,,,,,,,,,,,,,,,,,,,,,,,,,,,,,,,,,,,,,,,,,,,,,,,,,,,,,,,,,,,,,,,,,,,,,,,,,,,,,,,,,
,,6733d850215fd59debe051ab,2026-03-17_16h07.49.350,kallum_motion_pilot_GIST_update_2,2026.1.1,Win32,59.52380952,6733d850215fd59debe051ab,69b95efdef24cd8a694e89ee,69b96017d51c210ab009ca9b,0.0386,0.0386,1,68,230,8,1,onetwo,,,,,,,,,,,,,,,,,,,,,,,,,,,,,,,,,,,,,,,,,,,,,,,,,,,,,,,,,,,,,,,,,,,,,,,,,,,,,,,,,,,,,,,,,,,,,,,,,,,,,,,,,,,,,,,,,,,,,,,,,,,,,,,,,,,,,,,,,
,,6733d850215fd59debe051ab,2026-03-17_16h07.49.350,kallum_motion_pilot_GIST_update_2,2026.1.1,Win32,59.52380952,6733d850215fd59debe051ab,69b95efdef24cd8a694e89ee,69b96017d51c210ab009ca9b,0.0386,0.0386,1,69,231,68,1,threeone,,,,,,,,,,,,,,,,,,,,,,,,,,,,,,,,,,,,,,,,,,,,,,,,,,,,,,,,,,,,,,,,,,,,,,,,,,,,,,,,,,,,,,,,,,,,,,,,,,,,,,,,,,,,,,,,,,,,,,,,,,,,,,,,,,,,,,,,,
,,6733d850215fd59debe051ab,2026-03-17_16h07.49.350,kallum_motion_pilot_GIST_update_2,2026.1.1,Win32,59.52380952,6733d850215fd59debe051ab,69b95efdef24cd8a694e89ee,69b96017d51c210ab009ca9b,0.0388,0.0388,1,70,232,118,1,eightsix,,,,,,,,,,,,,,,,,,,,,,,,,,,,,,,,,,,,,,,,,,,,,,,,,,,,,,,,,,,,,,,,,,,,,,,,,,,,,,,,,,,,,,,,,,,,,,,,,,,,,,,,,,,,,,,,,,,,,,,,,,,,,,,,,,,,,,,,,
,,6733d850215fd59debe051ab,2026-03-17_16h07.49.350,kallum_motion_pilot_GIST_update_2,2026.1.1,Win32,59.52380952,6733d850215fd59debe051ab,69b95efdef24cd8a694e89ee,69b96017d51c210ab009ca9b,0.0388,0.0388,1,71,233,146,1,sixfive,,,,,,,,,,,,,,,,,,,,,,,,,,,,,,,,,,,,,,,,,,,,,,,,,,,,,,,,,,,,,,,,,,,,,,,,,,,,,,,,,,,,,,,,,,,,,,,,,,,,,,,,,,,,,,,,,,,,,,,,,,,,,,,,,,,,,,,,,
,,6733d850215fd59debe051ab,2026-03-17_16h07.49.350,kallum_motion_pilot_GIST_update_2,2026.1.1,Win32,59.52380952,6733d850215fd59debe051ab,69b95efdef24cd8a694e89ee,69b96017d51c210ab009ca9b,0.039,0.039,1,72,234,144,1,fivesix,,,,,,,,,,,,,,,,,,,,,,,,,,,,,,,,,,,,,,,,,,,,,,,,,,,,,,,,,,,,,,,,,,,,,,,,,,,,,,,,,,,,,,,,,,,,,,,,,,,,,,,,,,,,,,,,,,,,,,,,,,,,,,,,,,,,,,,,,
,,6733d850215fd59debe051ab,2026-03-17_16h07.49.350,kallum_motion_pilot_GIST_update_2,2026.1.1,Win32,59.52380952,6733d850215fd59debe051ab,69b95efdef24cd8a694e89ee,69b96017d51c210ab009ca9b,0.0391,0.0391,1,73,235,67,1,twofour,,,,,,,,,,,,,,,,,,,,,,,,,,,,,,,,,,,,,,,,,,,,,,,,,,,,,,,,,,,,,,,,,,,,,,,,,,,,,,,,,,,,,,,,,,,,,,,,,,,,,,,,,,,,,,,,,,,,,,,,,,,,,,,,,,,,,,,,,
,,6733d850215fd59debe051ab,2026-03-17_16h07.49.350,kallum_motion_pilot_GIST_update_2,2026.1.1,Win32,59.52380952,6733d850215fd59debe051ab,69b95efdef24cd8a694e89ee,69b96017d51c210ab009ca9b,0.0391,0.0391,1,74,236,82,1,sixfive,,,,,,,,,,,,,,,,,,,,,,,,,,,,,,,,,,,,,,,,,,,,,,,,,,,,,,,,,,,,,,,,,,,,,,,,,,,,,,,,,,,,,,,,,,,,,,,,,,,,,,,,,,,,,,,,,,,,,,,,,,,,,,,,,,,,,,,,,
,,6733d850215fd59debe051ab,2026-03-17_16h07.49.350,kallum_motion_pilot_GIST_update_2,2026.1.1,Win32,59.52380952,6733d850215fd59debe051ab,69b95efdef24cd8a694e89ee,69b96017d51c210ab009ca9b,0.0392,0.0392,1,75,237,76,1,threeone,,,,,,,,,,,,,,,,,,,,,,,,,,,,,,,,,,,,,,,,,,,,,,,,,,,,,,,,,,,,,,,,,,,,,,,,,,,,,,,,,,,,,,,,,,,,,,,,,,,,,,,,,,,,,,,,,,,,,,,,,,,,,,,,,,,,,,,,,
,,6733d850215fd59debe051ab,2026-03-17_16h07.49.350,kallum_motion_pilot_GIST_update_2,2026.1.1,Win32,59.52380952,6733d850215fd59debe051ab,69b95efdef24cd8a694e89ee,69b96017d51c210ab009ca9b,0.0394,0.0394,1,76,238,130,1,sixfive,,,,,,,,,,,,,,,,,,,,,,,,,,,,,,,,,,,,,,,,,,,,,,,,,,,,,,,,,,,,,,,,,,,,,,,,,,,,,,,,,,,,,,,,,,,,,,,,,,,,,,,,,,,,,,,,,,,,,,,,,,,,,,,,,,,,,,,,,
,,6733d850215fd59debe051ab,2026-03-17_16h07.49.350,kallum_motion_pilot_GIST_update_2,2026.1.1,Win32,59.52380952,6733d850215fd59debe051ab,69b95efdef24cd8a694e89ee,69b96017d51c210ab009ca9b,0.0395,0.0395,1,77,239,59,1,twofour,,,,,,,,,,,,,,,,,,,,,,,,,,,,,,,,,,,,,,,,,,,,,,,,,,,,,,,,,,,,,,,,,,,,,,,,,,,,,,,,,,,,,,,,,,,,,,,,,,,,,,,,,,,,,,,,,,,,,,,,,,,,,,,,,,,,,,,,,
,,6733d850215fd59debe051ab,2026-03-17_16h07.49.350,kallum_motion_pilot_GIST_update_2,2026.1.1,Win32,59.52380952,6733d850215fd59debe051ab,69b95efdef24cd8a694e89ee,69b96017d51c210ab009ca9b,0.0396,0.0396,1,78,240,84,1,sevenfive,,,,,,,,,,,,,,,,,,,,,,,,,,,,,,,,,,,,,,,,,,,,,,,,,,,,,,,,,,,,,,,,,,,,,,,,,,,,,,,,,,,,,,,,,,,,,,,,,,,,,,,,,,,,,,,,,,,,,,,,,,,,,,,,,,,,,,,,,
,,6733d850215fd59debe051ab,2026-03-17_16h07.49.350,kallum_motion_pilot_GIST_update_2,2026.1.1,Win32,59.52380952,6733d850215fd59debe051ab,69b95efdef24cd8a694e89ee,69b96017d51c210ab009ca9b,0.0396,0.0396,1,79,241,125,1,seveneight,,,,,,,,,,,,,,,,,,,,,,,,,,,,,,,,,,,,,,,,,,,,,,,,,,,,,,,,,,,,,,,,,,,,,,,,,,,,,,,,,,,,,,,,,,,,,,,,,,,,,,,,,,,,,,,,,,,,,,,,,,,,,,,,,,,,,,,,,
,,6733d850215fd59debe051ab,2026-03-17_16h07.49.350,kallum_motion_pilot_GIST_update_2,2026.1.1,Win32,59.52380952,6733d850215fd59debe051ab,69b95efdef24cd8a694e89ee,69b96017d51c210ab009ca9b,0.0397,0.0397,1,80,242,156,1,sevenfive,,,,,,,,,,,,,,,,,,,,,,,,,,,,,,,,,,,,,,,,,,,,,,,,,,,,,,,,,,,,,,,,,,,,,,,,,,,,,,,,,,,,,,,,,,,,,,,,,,,,,,,,,,,,,,,,,,,,,,,,,,,,,,,,,,,,,,,,,
,,6733d850215fd59debe051ab,2026-03-17_16h07.49.350,kallum_motion_pilot_GIST_update_2,2026.1.1,Win32,59.52380952,6733d850215fd59debe051ab,69b95efdef24cd8a694e89ee,69b96017d51c210ab009ca9b,0.0399,0.0399,1,81,243,34,1,twoone,,,,,,,,,,,,,,,,,,,,,,,,,,,,,,,,,,,,,,,,,,,,,,,,,,,,,,,,,,,,,,,,,,,,,,,,,,,,,,,,,,,,,,,,,,,,,,,,,,,,,,,,,,,,,,,,,,,,,,,,,,,,,,,,,,,,,,,,,
,,6733d850215fd59debe051ab,2026-03-17_16h07.49.350,kallum_motion_pilot_GIST_update_2,2026.1.1,Win32,59.52380952,6733d850215fd59debe051ab,69b95efdef24cd8a694e89ee,69b96017d51c210ab009ca9b,0.04,0.04,1,82,244,160,1,fivesix,,,,,,,,,,,,,,,,,,,,,,,,,,,,,,,,,,,,,,,,,,,,,,,,,,,,,,,,,,,,,,,,,,,,,,,,,,,,,,,,,,,,,,,,,,,,,,,,,,,,,,,,,,,,,,,,,,,,,,,,,,,,,,,,,,,,,,,,,
,,6733d850215fd59debe051ab,2026-03-17_16h07.49.350,kallum_motion_pilot_GIST_update_2,2026.1.1,Win32,59.52380952,6733d850215fd59debe051ab,69b95efdef24cd8a694e89ee,69b96017d51c210ab009ca9b,0.04,0.04,1,83,245,42,1,twoone,,,,,,,,,,,,,,,,,,,,,,,,,,,,,,,,,,,,,,,,,,,,,,,,,,,,,,,,,,,,,,,,,,,,,,,,,,,,,,,,,,,,,,,,,,,,,,,,,,,,,,,,,,,,,,,,,,,,,,,,,,,,,,,,,,,,,,,,,
,,6733d850215fd59debe051ab,2026-03-17_16h07.49.350,kallum_motion_pilot_GIST_update_2,2026.1.1,Win32,59.52380952,6733d850215fd59debe051ab,69b95efdef24cd8a694e89ee,69b96017d51c210ab009ca9b,0.0402,0.0402,1,84,246,104,1,fivesix,,,,,,,,,,,,,,,,,,,,,,,,,,,,,,,,,,,,,,,,,,,,,,,,,,,,,,,,,,,,,,,,,,,,,,,,,,,,,,,,,,,,,,,,,,,,,,,,,,,,,,,,,,,,,,,,,,,,,,,,,,,,,,,,,,,,,,,,,
,,6733d850215fd59debe051ab,2026-03-17_16h07.49.350,kallum_motion_pilot_GIST_update_2,2026.1.1,Win32,59.52380952,6733d850215fd59debe051ab,69b95efdef24cd8a694e89ee,69b96017d51c210ab009ca9b,0.0402,0.0402,1,85,247,129,1,fiveseven,,,,,,,,,,,,,,,,,,,,,,,,,,,,,,,,,,,,,,,,,,,,,,,,,,,,,,,,,,,,,,,,,,,,,,,,,,,,,,,,,,,,,,,,,,,,,,,,,,,,,,,,,,,,,,,,,,,,,,,,,,,,,,,,,,,,,,,,,
,,6733d850215fd59debe051ab,2026-03-17_16h07.49.350,kallum_motion_pilot_GIST_update_2,2026.1.1,Win32,59.52380952,6733d850215fd59debe051ab,69b95efdef24cd8a694e89ee,69b96017d51c210ab009ca9b,0.0403,0.0403,1,86,248,86,1,eightsix,,,,,,,,,,,,,,,,,,,,,,,,,,,,,,,,,,,,,,,,,,,,,,,,,,,,,,,,,,,,,,,,,,,,,,,,,,,,,,,,,,,,,,,,,,,,,,,,,,,,,,,,,,,,,,,,,,,,,,,,,,,,,,,,,,,,,,,,,
,,6733d850215fd59debe051ab,2026-03-17_16h07.49.350,kallum_motion_pilot_GIST_update_2,2026.1.1,Win32,59.52380952,6733d850215fd59debe051ab,69b95efdef24cd8a694e89ee,69b96017d51c210ab009ca9b,0.0404,0.0404,1,87,249,56,1,onetwo,,,,,,,,,,,,,,,,,,,,,,,,,,,,,,,,,,,,,,,,,,,,,,,,,,,,,,,,,,,,,,,,,,,,,,,,,,,,,,,,,,,,,,,,,,,,,,,,,,,,,,,,,,,,,,,,,,,,,,,,,,,,,,,,,,,,,,,,,
,,6733d850215fd59debe051ab,2026-03-17_16h07.49.350,kallum_motion_pilot_GIST_update_2,2026.1.1,Win32,59.52380952,6733d850215fd59debe051ab,69b95efdef24cd8a694e89ee,69b96017d51c210ab009ca9b,0.0406,0.0406,1,88,250,47,1,fourthree,,,,,,,,,,,,,,,,,,,,,,,,,,,,,,,,,,,,,,,,,,,,,,,,,,,,,,,,,,,,,,,,,,,,,,,,,,,,,,,,,,,,,,,,,,,,,,,,,,,,,,,,,,,,,,,,,,,,,,,,,,,,,,,,,,,,,,,,,
,,6733d850215fd59debe051ab,2026-03-17_16h07.49.350,kallum_motion_pilot_GIST_update_2,2026.1.1,Win32,59.52380952,6733d850215fd59debe051ab,69b95efdef24cd8a694e89ee,69b96017d51c210ab009ca9b,0.0406,0.0406,1,89,251,15,1,fourthree,,,,,,,,,,,,,,,,,,,,,,,,,,,,,,,,,,,,,,,,,,,,,,,,,,,,,,,,,,,,,,,,,,,,,,,,,,,,,,,,,,,,,,,,,,,,,,,,,,,,,,,,,,,,,,,,,,,,,,,,,,,,,,,,,,,,,,,,,
,,6733d850215fd59debe051ab,2026-03-17_16h07.49.350,kallum_motion_pilot_GIST_update_2,2026.1.1,Win32,59.52380952,6733d850215fd59debe051ab,69b95efdef24cd8a694e89ee,69b96017d51c210ab009ca9b,0.0408,0.0408,1,90,252,94,1,eightsix,,,,,,,,,,,,,,,,,,,,,,,,,,,,,,,,,,,,,,,,,,,,,,,,,,,,,,,,,,,,,,,,,,,,,,,,,,,,,,,,,,,,,,,,,,,,,,,,,,,,,,,,,,,,,,,,,,,,,,,,,,,,,,,,,,,,,,,,,
,,6733d850215fd59debe051ab,2026-03-17_16h07.49.350,kallum_motion_pilot_GIST_update_2,2026.1.1,Win32,59.52380952,6733d850215fd59debe051ab,69b95efdef24cd8a694e89ee,69b96017d51c210ab009ca9b,0.0408,0.0408,1,91,253,147,1,sixeight,,,,,,,,,,,,,,,,,,,,,,,,,,,,,,,,,,,,,,,,,,,,,,,,,,,,,,,,,,,,,,,,,,,,,,,,,,,,,,,,,,,,,,,,,,,,,,,,,,,,,,,,,,,,,,,,,,,,,,,,,,,,,,,,,,,,,,,,,
,,6733d850215fd59debe051ab,2026-03-17_16h07.49.350,kallum_motion_pilot_GIST_update_2,2026.1.1,Win32,59.52380952,6733d850215fd59debe051ab,69b95efdef24cd8a694e89ee,69b96017d51c210ab009ca9b,0.041,0.041,1,92,254,121,1,fiveseven,,,,,,,,,,,,,,,,,,,,,,,,,,,,,,,,,,,,,,,,,,,,,,,,,,,,,,,,,,,,,,,,,,,,,,,,,,,,,,,,,,,,,,,,,,,,,,,,,,,,,,,,,,,,,,,,,,,,,,,,,,,,,,,,,,,,,,,,,
,,6733d850215fd59debe051ab,2026-03-17_16h07.49.350,kallum_motion_pilot_GIST_update_2,2026.1.1,Win32,59.52380952,6733d850215fd59debe051ab,69b95efdef24cd8a694e89ee,69b96017d51c210ab009ca9b,0.041,0.041,1,93,255,154,1,sixfive,,,,,,,,,,,,,,,,,,,,,,,,,,,,,,,,,,,,,,,,,,,,,,,,,,,,,,,,,,,,,,,,,,,,,,,,,,,,,,,,,,,,,,,,,,,,,,,,,,,,,,,,,,,,,,,,,,,,,,,,,,,,,,,,,,,,,,,,,
,,6733d850215fd59debe051ab,2026-03-17_16h07.49.350,kallum_motion_pilot_GIST_update_2,2026.1.1,Win32,59.52380952,6733d850215fd59debe051ab,69b95efdef24cd8a694e89ee,69b96017d51c210ab009ca9b,0.0412,0.0412,1,94,256,12,1,threeone,,,,,,,,,,,,,,,,,,,,,,,,,,,,,,,,,,,,,,,,,,,,,,,,,,,,,,,,,,,,,,,,,,,,,,,,,,,,,,,,,,,,,,,,,,,,,,,,,,,,,,,,,,,,,,,,,,,,,,,,,,,,,,,,,,,,,,,,,
,,6733d850215fd59debe051ab,2026-03-17_16h07.49.350,kallum_motion_pilot_GIST_update_2,2026.1.1,Win32,59.52380952,6733d850215fd59debe051ab,69b95efdef24cd8a694e89ee,69b96017d51c210ab009ca9b,0.0413,0.0413,1,95,257,87,1,eightseven,,,,,,,,,,,,,,,,,,,,,,,,,,,,,,,,,,,,,,,,,,,,,,,,,,,,,,,,,,,,,,,,,,,,,,,,,,,,,,,,,,,,,,,,,,,,,,,,,,,,,,,,,,,,,,,,,,,,,,,,,,,,,,,,,,,,,,,,,
,,6733d850215fd59debe051ab,2026-03-17_16h07.49.350,kallum_motion_pilot_GIST_update_2,2026.1.1,Win32,59.52380952,6733d850215fd59debe051ab,69b95efdef24cd8a694e89ee,69b96017d51c210ab009ca9b,0.0414,0.0414,1,96,258,71,1,fourthree,,,,,,,,,,,,,,,,,,,,,,,,,,,,,,,,,,,,,,,,,,,,,,,,,,,,,,,,,,,,,,,,,,,,,,,,,,,,,,,,,,,,,,,,,,,,,,,,,,,,,,,,,,,,,,,,,,,,,,,,,,,,,,,,,,,,,,,,,
,,6733d850215fd59debe051ab,2026-03-17_16h07.49.350,kallum_motion_pilot_GIST_update_2,2026.1.1,Win32,59.52380952,6733d850215fd59debe051ab,69b95efdef24cd8a694e89ee,69b96017d51c210ab009ca9b,0.0415,0.0415,1,97,259,149,1,seveneight,,,,,,,,,,,,,,,,,,,,,,,,,,,,,,,,,,,,,,,,,,,,,,,,,,,,,,,,,,,,,,,,,,,,,,,,,,,,,,,,,,,,,,,,,,,,,,,,,,,,,,,,,,,,,,,,,,,,,,,,,,,,,,,,,,,,,,,,,
,,6733d850215fd59debe051ab,2026-03-17_16h07.49.350,kallum_motion_pilot_GIST_update_2,2026.1.1,Win32,59.52380952,6733d850215fd59debe051ab,69b95efdef24cd8a694e89ee,69b96017d51c210ab009ca9b,0.0416,0.0416,1,98,260,132,1,sevenfive,,,,,,,,,,,,,,,,,,,,,,,,,,,,,,,,,,,,,,,,,,,,,,,,,,,,,,,,,,,,,,,,,,,,,,,,,,,,,,,,,,,,,,,,,,,,,,,,,,,,,,,,,,,,,,,,,,,,,,,,,,,,,,,,,,,,,,,,,
,,6733d850215fd59debe051ab,2026-03-17_16h07.49.350,kallum_motion_pilot_GIST_update_2,2026.1.1,Win32,59.52380952,6733d850215fd59debe051ab,69b95efdef24cd8a694e89ee,69b96017d51c210ab009ca9b,0.0416,0.0416,1,99,261,91,1,sixeight,,,,,,,,,,,,,,,,,,,,,,,,,,,,,,,,,,,,,,,,,,,,,,,,,,,,,,,,,,,,,,,,,,,,,,,,,,,,,,,,,,,,,,,,,,,,,,,,,,,,,,,,,,,,,,,,,,,,,,,,,,,,,,,,,,,,,,,,,
,,6733d850215fd59debe051ab,2026-03-17_16h07.49.350,kallum_motion_pilot_GIST_update_2,2026.1.1,Win32,59.52380952,6733d850215fd59debe051ab,69b95efdef24cd8a694e89ee,69b96017d51c210ab009ca9b,0.0417,0.0417,1,100,262,117,1,seveneight,,,,,,,,,,,,,,,,,,,,,,,,,,,,,,,,,,,,,,,,,,,,,,,,,,,,,,,,,,,,,,,,,,,,,,,,,,,,,,,,,,,,,,,,,,,,,,,,,,,,,,,,,,,,,,,,,,,,,,,,,,,,,,,,,,,,,,,,,
,,6733d850215fd59debe051ab,2026-03-17_16h07.49.350,kallum_motion_pilot_GIST_update_2,2026.1.1,Win32,59.52380952,6733d850215fd59debe051ab,69b95efdef24cd8a694e89ee,69b96017d51c210ab009ca9b,0.0419,0.0419,1,101,263,120,1,fivesix,,,,,,,,,,,,,,,,,,,,,,,,,,,,,,,,,,,,,,,,,,,,,,,,,,,,,,,,,,,,,,,,,,,,,,,,,,,,,,,,,,,,,,,,,,,,,,,,,,,,,,,,,,,,,,,,,,,,,,,,,,,,,,,,,,,,,,,,,
,,6733d850215fd59debe051ab,2026-03-17_16h07.49.350,kallum_motion_pilot_GIST_update_2,2026.1.1,Win32,59.52380952,6733d850215fd59debe051ab,69b95efdef24cd8a694e89ee,69b96017d51c210ab009ca9b,0.042,0.042,1,102,264,51,1,twofour,,,,,,,,,,,,,,,,,,,,,,,,,,,,,,,,,,,,,,,,,,,,,,,,,,,,,,,,,,,,,,,,,,,,,,,,,,,,,,,,,,,,,,,,,,,,,,,,,,,,,,,,,,,,,,,,,,,,,,,,,,,,,,,,,,,,,,,,,
,,6733d850215fd59debe051ab,2026-03-17_16h07.49.350,kallum_motion_pilot_GIST_update_2,2026.1.1,Win32,59.52380952,6733d850215fd59debe051ab,69b95efdef24cd8a694e89ee,69b96017d51c210ab009ca9b,0.0422,0.0422,1,103,265,143,1,eightseven,,,,,,,,,,,,,,,,,,,,,,,,,,,,,,,,,,,,,,,,,,,,,,,,,,,,,,,,,,,,,,,,,,,,,,,,,,,,,,,,,,,,,,,,,,,,,,,,,,,,,,,,,,,,,,,,,,,,,,,,,,,,,,,,,,,,,,,,,
,,6733d850215fd59debe051ab,2026-03-17_16h07.49.350,kallum_motion_pilot_GIST_update_2,2026.1.1,Win32,59.52380952,6733d850215fd59debe051ab,69b95efdef24cd8a694e89ee,69b96017d51c210ab009ca9b,0.0423,0.0423,1,104,266,153,1,fiveseven,,,,,,,,,,,,,,,,,,,,,,,,,,,,,,,,,,,,,,,,,,,,,,,,,,,,,,,,,,,,,,,,,,,,,,,,,,,,,,,,,,,,,,,,,,,,,,,,,,,,,,,,,,,,,,,,,,,,,,,,,,,,,,,,,,,,,,,,,
