startup.started,startup.stopped,Prolific ID*,date,expName,psychopyVersion,OS,frameRate,participant,study_id,session,stimpositions.started,stimpositions.stopped,hardcoded_stimulus_positions.thisRepN,hardcoded_stimulus_positions.thisTrialN,hardcoded_stimulus_positions.thisN,hardcoded_stimulus_positions.thisIndex,hardcoded_stimulus_positions.ran,StimulusPos,stimorientation.started,stimorientation.stopped,prac_stimorientation_import_loop.thisRepN,prac_stimorientation_import_loop.thisTrialN,prac_stimorientation_import_loop.thisN,prac_stimorientation_import_loop.thisIndex,prac_stimorientation_import_loop.ran,Stimorientation,welcome_instr.started,welcome_instr.stopped,key_resp.keys,key_resp.rt,key_resp.duration,response_steppedout_1.started,response_steppedout_1.stopped,key_resp_20.keys,key_resp_20.rt,key_resp_20.duration,response_steppedout_2.started,response_steppedout_2.stopped,key_resp_19.keys,key_resp_19.rt,key_resp_19.duration,stim_response_instr.started,stim_response_instr.stopped,key_resp_15.keys,key_resp_15.rt,key_resp_15.duration,direction_instr_2.started,direction_instr_2.stopped,key_resp_9.keys,key_resp_9.rt,key_resp_9.duration,instr_prac.started,instr_prac.stopped,key_resp_10.keys,key_resp_10.rt,key_resp_10.duration,Stim1_display_prac.started,Stim1_display_prac.stopped,Ecc,Circle1_ori,Circle2_ori,response_prac.started,similarity,response_time,response_prac.stopped,mouse_5.x,mouse_5.y,mouse_5.leftButton,mouse_5.midButton,mouse_5.rightButton,mouse_5.clicked_name,responseprac_feedback.started,responseprac_feedback.stopped,summary2_prac.started,summary2_prac.stopped,mouse_6.x,mouse_6.y,mouse_6.leftButton,mouse_6.midButton,mouse_6.rightButton,mouse_6.clicked_name,duringprac.thisRepN,duringprac.thisTrialN,duringprac.thisN,duringprac.thisIndex,duringprac.ran,begin.started,begin.stopped,key_resp_22.keys,key_resp_22.rt,key_resp_22.duration,Stim1_display.started,Stim1_display.stopped,circle1_ori,circle2_ori,circle1_SF,circle2_SF,response.started,response.stopped,mouse.x,mouse.y,mouse.leftButton,mouse.midButton,mouse.rightButton,mouse.clicked_name,trialnumber,double_pass.thisRepN,double_pass.thisTrialN,double_pass.thisN,double_pass.thisIndex,double_pass.ran,double_pass.order,main_trial.thisRepN,main_trial.thisTrialN,main_trial.thisN,main_trial.thisIndex,main_trial.ran,main_trial.order,Trial_Counter,Catch,Frequencies,response_2.started,response_2.stopped,mouse_2.x,mouse_2.y,mouse_2.leftButton,mouse_2.midButton,mouse_2.rightButton,mouse_2.clicked_name,special_trial.started,special_trial.stopped,catch_1.started,catch_1.stopped,mouse_3.x,mouse_3.y,mouse_3.leftButton,mouse_3.midButton,mouse_3.rightButton,catchresponse,catchnumber,response_time_catch,response_sum.started,response_sum.stopped,mouse_11.x,mouse_11.y,mouse_11.leftButton,mouse_11.midButton,mouse_11.rightButton,flip_presentation_sequence_for_double_pass.started,flip_presentation_sequence_for_double_pass.stopped,goodbye.started,goodbye.stopped,key_resp_3.keys,key_resp_3.rt,key_resp_3.duration
0.003,0.0031,673493f39318451e1c97abac,2026-03-17_12h40.43.538,kallum_motion_pilot_GIST_update_2,2026.1.1,Win32,59.88023952,673493f39318451e1c97abac,69b92ab4aef6dee357cd729a,69b92f44f6a3c7c88ab241f3,,,,,,,,,,,,,,,,,,,,,,,,,,,,,,,,,,,,,,,,,,,,,,,,,,,,,,,,,,,,,,,,,,,,,,,,,,,,,,,,,,,,,,,,,,,,,,,,,,,,,,,,,,,,,,,,,,,,,,,,,,,,,,,,,,,,,,,,,,,,,,,,,
,,673493f39318451e1c97abac,2026-03-17_12h40.43.538,kallum_motion_pilot_GIST_update_2,2026.1.1,Win32,59.88023952,673493f39318451e1c97abac,69b92ab4aef6dee357cd729a,69b92f44f6a3c7c88ab241f3,0.0213,0.0217,0,0,0,59,1,twofour,,,,,,,,,,,,,,,,,,,,,,,,,,,,,,,,,,,,,,,,,,,,,,,,,,,,,,,,,,,,,,,,,,,,,,,,,,,,,,,,,,,,,,,,,,,,,,,,,,,,,,,,,,,,,,,,,,,,,,,,,,,,,,,,,,,,,,,,,
,,673493f39318451e1c97abac,2026-03-17_12h40.43.538,kallum_motion_pilot_GIST_update_2,2026.1.1,Win32,59.88023952,673493f39318451e1c97abac,69b92ab4aef6dee357cd729a,69b92f44f6a3c7c88ab241f3,0.0222,0.0222,0,1,1,77,1,threefour,,,,,,,,,,,,,,,,,,,,,,,,,,,,,,,,,,,,,,,,,,,,,,,,,,,,,,,,,,,,,,,,,,,,,,,,,,,,,,,,,,,,,,,,,,,,,,,,,,,,,,,,,,,,,,,,,,,,,,,,,,,,,,,,,,,,,,,,,
,,673493f39318451e1c97abac,2026-03-17_12h40.43.538,kallum_motion_pilot_GIST_update_2,2026.1.1,Win32,59.88023952,673493f39318451e1c97abac,69b92ab4aef6dee357cd729a,69b92f44f6a3c7c88ab241f3,0.0225,0.0226,0,2,2,51,1,twofour,,,,,,,,,,,,,,,,,,,,,,,,,,,,,,,,,,,,,,,,,,,,,,,,,,,,,,,,,,,,,,,,,,,,,,,,,,,,,,,,,,,,,,,,,,,,,,,,,,,,,,,,,,,,,,,,,,,,,,,,,,,,,,,,,,,,,,,,,
,,673493f39318451e1c97abac,2026-03-17_12h40.43.538,kallum_motion_pilot_GIST_update_2,2026.1.1,Win32,59.88023952,673493f39318451e1c97abac,69b92ab4aef6dee357cd729a,69b92f44f6a3c7c88ab241f3,0.0229,0.023,0,3,3,21,1,threefour,,,,,,,,,,,,,,,,,,,,,,,,,,,,,,,,,,,,,,,,,,,,,,,,,,,,,,,,,,,,,,,,,,,,,,,,,,,,,,,,,,,,,,,,,,,,,,,,,,,,,,,,,,,,,,,,,,,,,,,,,,,,,,,,,,,,,,,,,
,,673493f39318451e1c97abac,2026-03-17_12h40.43.538,kallum_motion_pilot_GIST_update_2,2026.1.1,Win32,59.88023952,673493f39318451e1c97abac,69b92ab4aef6dee357cd729a,69b92f44f6a3c7c88ab241f3,0.0232,0.0233,0,4,4,9,1,onethree,,,,,,,,,,,,,,,,,,,,,,,,,,,,,,,,,,,,,,,,,,,,,,,,,,,,,,,,,,,,,,,,,,,,,,,,,,,,,,,,,,,,,,,,,,,,,,,,,,,,,,,,,,,,,,,,,,,,,,,,,,,,,,,,,,,,,,,,,
,,673493f39318451e1c97abac,2026-03-17_12h40.43.538,kallum_motion_pilot_GIST_update_2,2026.1.1,Win32,59.88023952,673493f39318451e1c97abac,69b92ab4aef6dee357cd729a,69b92f44f6a3c7c88ab241f3,0.0236,0.0236,0,5,5,157,1,seveneight,,,,,,,,,,,,,,,,,,,,,,,,,,,,,,,,,,,,,,,,,,,,,,,,,,,,,,,,,,,,,,,,,,,,,,,,,,,,,,,,,,,,,,,,,,,,,,,,,,,,,,,,,,,,,,,,,,,,,,,,,,,,,,,,,,,,,,,,,
,,673493f39318451e1c97abac,2026-03-17_12h40.43.538,kallum_motion_pilot_GIST_update_2,2026.1.1,Win32,59.88023952,673493f39318451e1c97abac,69b92ab4aef6dee357cd729a,69b92f44f6a3c7c88ab241f3,0.0238,0.0239,0,6,6,53,1,threefour,,,,,,,,,,,,,,,,,,,,,,,,,,,,,,,,,,,,,,,,,,,,,,,,,,,,,,,,,,,,,,,,,,,,,,,,,,,,,,,,,,,,,,,,,,,,,,,,,,,,,,,,,,,,,,,,,,,,,,,,,,,,,,,,,,,,,,,,,
,,673493f39318451e1c97abac,2026-03-17_12h40.43.538,kallum_motion_pilot_GIST_update_2,2026.1.1,Win32,59.88023952,673493f39318451e1c97abac,69b92ab4aef6dee357cd729a,69b92f44f6a3c7c88ab241f3,0.0241,0.0242,0,7,7,143,1,eightseven,,,,,,,,,,,,,,,,,,,,,,,,,,,,,,,,,,,,,,,,,,,,,,,,,,,,,,,,,,,,,,,,,,,,,,,,,,,,,,,,,,,,,,,,,,,,,,,,,,,,,,,,,,,,,,,,,,,,,,,,,,,,,,,,,,,,,,,,,
,,673493f39318451e1c97abac,2026-03-17_12h40.43.538,kallum_motion_pilot_GIST_update_2,2026.1.1,Win32,59.88023952,673493f39318451e1c97abac,69b92ab4aef6dee357cd729a,69b92f44f6a3c7c88ab241f3,0.0245,0.0245,0,8,8,67,1,twofour,,,,,,,,,,,,,,,,,,,,,,,,,,,,,,,,,,,,,,,,,,,,,,,,,,,,,,,,,,,,,,,,,,,,,,,,,,,,,,,,,,,,,,,,,,,,,,,,,,,,,,,,,,,,,,,,,,,,,,,,,,,,,,,,,,,,,,,,,
,,673493f39318451e1c97abac,2026-03-17_12h40.43.538,kallum_motion_pilot_GIST_update_2,2026.1.1,Win32,59.88023952,673493f39318451e1c97abac,69b92ab4aef6dee357cd729a,69b92f44f6a3c7c88ab241f3,0.0248,0.0249,0,9,9,14,1,fourtwo,,,,,,,,,,,,,,,,,,,,,,,,,,,,,,,,,,,,,,,,,,,,,,,,,,,,,,,,,,,,,,,,,,,,,,,,,,,,,,,,,,,,,,,,,,,,,,,,,,,,,,,,,,,,,,,,,,,,,,,,,,,,,,,,,,,,,,,,,
,,673493f39318451e1c97abac,2026-03-17_12h40.43.538,kallum_motion_pilot_GIST_update_2,2026.1.1,Win32,59.88023952,673493f39318451e1c97abac,69b92ab4aef6dee357cd729a,69b92f44f6a3c7c88ab241f3,0.0251,0.0252,0,10,10,87,1,eightseven,,,,,,,,,,,,,,,,,,,,,,,,,,,,,,,,,,,,,,,,,,,,,,,,,,,,,,,,,,,,,,,,,,,,,,,,,,,,,,,,,,,,,,,,,,,,,,,,,,,,,,,,,,,,,,,,,,,,,,,,,,,,,,,,,,,,,,,,,
,,673493f39318451e1c97abac,2026-03-17_12h40.43.538,kallum_motion_pilot_GIST_update_2,2026.1.1,Win32,59.88023952,673493f39318451e1c97abac,69b92ab4aef6dee357cd729a,69b92f44f6a3c7c88ab241f3,0.0253,0.0255,0,11,11,10,1,twoone,,,,,,,,,,,,,,,,,,,,,,,,,,,,,,,,,,,,,,,,,,,,,,,,,,,,,,,,,,,,,,,,,,,,,,,,,,,,,,,,,,,,,,,,,,,,,,,,,,,,,,,,,,,,,,,,,,,,,,,,,,,,,,,,,,,,,,,,,
,,673493f39318451e1c97abac,2026-03-17_12h40.43.538,kallum_motion_pilot_GIST_update_2,2026.1.1,Win32,59.88023952,673493f39318451e1c97abac,69b92ab4aef6dee357cd729a,69b92f44f6a3c7c88ab241f3,0.0256,0.0257,0,12,12,159,1,eightseven,,,,,,,,,,,,,,,,,,,,,,,,,,,,,,,,,,,,,,,,,,,,,,,,,,,,,,,,,,,,,,,,,,,,,,,,,,,,,,,,,,,,,,,,,,,,,,,,,,,,,,,,,,,,,,,,,,,,,,,,,,,,,,,,,,,,,,,,,
,,673493f39318451e1c97abac,2026-03-17_12h40.43.538,kallum_motion_pilot_GIST_update_2,2026.1.1,Win32,59.88023952,673493f39318451e1c97abac,69b92ab4aef6dee357cd729a,69b92f44f6a3c7c88ab241f3,0.0261,0.0262,0,13,13,107,1,sixeight,,,,,,,,,,,,,,,,,,,,,,,,,,,,,,,,,,,,,,,,,,,,,,,,,,,,,,,,,,,,,,,,,,,,,,,,,,,,,,,,,,,,,,,,,,,,,,,,,,,,,,,,,,,,,,,,,,,,,,,,,,,,,,,,,,,,,,,,,
,,673493f39318451e1c97abac,2026-03-17_12h40.43.538,kallum_motion_pilot_GIST_update_2,2026.1.1,Win32,59.88023952,673493f39318451e1c97abac,69b92ab4aef6dee357cd729a,69b92f44f6a3c7c88ab241f3,0.0271,0.0272,0,14,14,95,1,eightseven,,,,,,,,,,,,,,,,,,,,,,,,,,,,,,,,,,,,,,,,,,,,,,,,,,,,,,,,,,,,,,,,,,,,,,,,,,,,,,,,,,,,,,,,,,,,,,,,,,,,,,,,,,,,,,,,,,,,,,,,,,,,,,,,,,,,,,,,,
,,673493f39318451e1c97abac,2026-03-17_12h40.43.538,kallum_motion_pilot_GIST_update_2,2026.1.1,Win32,59.88023952,673493f39318451e1c97abac,69b92ab4aef6dee357cd729a,69b92f44f6a3c7c88ab241f3,0.0275,0.0275,0,15,15,133,1,seveneight,,,,,,,,,,,,,,,,,,,,,,,,,,,,,,,,,,,,,,,,,,,,,,,,,,,,,,,,,,,,,,,,,,,,,,,,,,,,,,,,,,,,,,,,,,,,,,,,,,,,,,,,,,,,,,,,,,,,,,,,,,,,,,,,,,,,,,,,,
,,673493f39318451e1c97abac,2026-03-17_12h40.43.538,kallum_motion_pilot_GIST_update_2,2026.1.1,Win32,59.88023952,673493f39318451e1c97abac,69b92ab4aef6dee357cd729a,69b92f44f6a3c7c88ab241f3,0.0278,0.0278,0,16,16,80,1,fivesix,,,,,,,,,,,,,,,,,,,,,,,,,,,,,,,,,,,,,,,,,,,,,,,,,,,,,,,,,,,,,,,,,,,,,,,,,,,,,,,,,,,,,,,,,,,,,,,,,,,,,,,,,,,,,,,,,,,,,,,,,,,,,,,,,,,,,,,,,
,,673493f39318451e1c97abac,2026-03-17_12h40.43.538,kallum_motion_pilot_GIST_update_2,2026.1.1,Win32,59.88023952,673493f39318451e1c97abac,69b92ab4aef6dee357cd729a,69b92f44f6a3c7c88ab241f3,0.0281,0.0282,0,17,17,97,1,fiveseven,,,,,,,,,,,,,,,,,,,,,,,,,,,,,,,,,,,,,,,,,,,,,,,,,,,,,,,,,,,,,,,,,,,,,,,,,,,,,,,,,,,,,,,,,,,,,,,,,,,,,,,,,,,,,,,,,,,,,,,,,,,,,,,,,,,,,,,,,
,,673493f39318451e1c97abac,2026-03-17_12h40.43.538,kallum_motion_pilot_GIST_update_2,2026.1.1,Win32,59.88023952,673493f39318451e1c97abac,69b92ab4aef6dee357cd729a,69b92f44f6a3c7c88ab241f3,0.0285,0.0285,0,18,18,79,1,eightseven,,,,,,,,,,,,,,,,,,,,,,,,,,,,,,,,,,,,,,,,,,,,,,,,,,,,,,,,,,,,,,,,,,,,,,,,,,,,,,,,,,,,,,,,,,,,,,,,,,,,,,,,,,,,,,,,,,,,,,,,,,,,,,,,,,,,,,,,,
,,673493f39318451e1c97abac,2026-03-17_12h40.43.538,kallum_motion_pilot_GIST_update_2,2026.1.1,Win32,59.88023952,673493f39318451e1c97abac,69b92ab4aef6dee357cd729a,69b92f44f6a3c7c88ab241f3,0.0288,0.0288,0,19,19,90,1,sixfive,,,,,,,,,,,,,,,,,,,,,,,,,,,,,,,,,,,,,,,,,,,,,,,,,,,,,,,,,,,,,,,,,,,,,,,,,,,,,,,,,,,,,,,,,,,,,,,,,,,,,,,,,,,,,,,,,,,,,,,,,,,,,,,,,,,,,,,,,
,,673493f39318451e1c97abac,2026-03-17_12h40.43.538,kallum_motion_pilot_GIST_update_2,2026.1.1,Win32,59.88023952,673493f39318451e1c97abac,69b92ab4aef6dee357cd729a,69b92f44f6a3c7c88ab241f3,0.0292,0.0292,0,20,20,11,1,twofour,,,,,,,,,,,,,,,,,,,,,,,,,,,,,,,,,,,,,,,,,,,,,,,,,,,,,,,,,,,,,,,,,,,,,,,,,,,,,,,,,,,,,,,,,,,,,,,,,,,,,,,,,,,,,,,,,,,,,,,,,,,,,,,,,,,,,,,,,
,,673493f39318451e1c97abac,2026-03-17_12h40.43.538,kallum_motion_pilot_GIST_update_2,2026.1.1,Win32,59.88023952,673493f39318451e1c97abac,69b92ab4aef6dee357cd729a,69b92f44f6a3c7c88ab241f3,0.0296,0.0296,0,21,21,15,1,fourthree,,,,,,,,,,,,,,,,,,,,,,,,,,,,,,,,,,,,,,,,,,,,,,,,,,,,,,,,,,,,,,,,,,,,,,,,,,,,,,,,,,,,,,,,,,,,,,,,,,,,,,,,,,,,,,,,,,,,,,,,,,,,,,,,,,,,,,,,,
,,673493f39318451e1c97abac,2026-03-17_12h40.43.538,kallum_motion_pilot_GIST_update_2,2026.1.1,Win32,59.88023952,673493f39318451e1c97abac,69b92ab4aef6dee357cd729a,69b92f44f6a3c7c88ab241f3,0.0299,0.03,0,22,22,64,1,onetwo,,,,,,,,,,,,,,,,,,,,,,,,,,,,,,,,,,,,,,,,,,,,,,,,,,,,,,,,,,,,,,,,,,,,,,,,,,,,,,,,,,,,,,,,,,,,,,,,,,,,,,,,,,,,,,,,,,,,,,,,,,,,,,,,,,,,,,,,,
,,673493f39318451e1c97abac,2026-03-17_12h40.43.538,kallum_motion_pilot_GIST_update_2,2026.1.1,Win32,59.88023952,673493f39318451e1c97abac,69b92ab4aef6dee357cd729a,69b92f44f6a3c7c88ab241f3,0.0303,0.0303,0,23,23,70,1,fourtwo,,,,,,,,,,,,,,,,,,,,,,,,,,,,,,,,,,,,,,,,,,,,,,,,,,,,,,,,,,,,,,,,,,,,,,,,,,,,,,,,,,,,,,,,,,,,,,,,,,,,,,,,,,,,,,,,,,,,,,,,,,,,,,,,,,,,,,,,,
,,673493f39318451e1c97abac,2026-03-17_12h40.43.538,kallum_motion_pilot_GIST_update_2,2026.1.1,Win32,59.88023952,673493f39318451e1c97abac,69b92ab4aef6dee357cd729a,69b92f44f6a3c7c88ab241f3,0.0306,0.0307,0,24,24,65,1,onethree,,,,,,,,,,,,,,,,,,,,,,,,,,,,,,,,,,,,,,,,,,,,,,,,,,,,,,,,,,,,,,,,,,,,,,,,,,,,,,,,,,,,,,,,,,,,,,,,,,,,,,,,,,,,,,,,,,,,,,,,,,,,,,,,,,,,,,,,,
,,673493f39318451e1c97abac,2026-03-17_12h40.43.538,kallum_motion_pilot_GIST_update_2,2026.1.1,Win32,59.88023952,673493f39318451e1c97abac,69b92ab4aef6dee357cd729a,69b92f44f6a3c7c88ab241f3,0.0309,0.0309,0,25,25,98,1,sixfive,,,,,,,,,,,,,,,,,,,,,,,,,,,,,,,,,,,,,,,,,,,,,,,,,,,,,,,,,,,,,,,,,,,,,,,,,,,,,,,,,,,,,,,,,,,,,,,,,,,,,,,,,,,,,,,,,,,,,,,,,,,,,,,,,,,,,,,,,
,,673493f39318451e1c97abac,2026-03-17_12h40.43.538,kallum_motion_pilot_GIST_update_2,2026.1.1,Win32,59.88023952,673493f39318451e1c97abac,69b92ab4aef6dee357cd729a,69b92f44f6a3c7c88ab241f3,0.0311,0.0312,0,26,26,35,1,twofour,,,,,,,,,,,,,,,,,,,,,,,,,,,,,,,,,,,,,,,,,,,,,,,,,,,,,,,,,,,,,,,,,,,,,,,,,,,,,,,,,,,,,,,,,,,,,,,,,,,,,,,,,,,,,,,,,,,,,,,,,,,,,,,,,,,,,,,,,
,,673493f39318451e1c97abac,2026-03-17_12h40.43.538,kallum_motion_pilot_GIST_update_2,2026.1.1,Win32,59.88023952,673493f39318451e1c97abac,69b92ab4aef6dee357cd729a,69b92f44f6a3c7c88ab241f3,0.0314,0.0314,0,27,27,138,1,sixfive,,,,,,,,,,,,,,,,,,,,,,,,,,,,,,,,,,,,,,,,,,,,,,,,,,,,,,,,,,,,,,,,,,,,,,,,,,,,,,,,,,,,,,,,,,,,,,,,,,,,,,,,,,,,,,,,,,,,,,,,,,,,,,,,,,,,,,,,,
,,673493f39318451e1c97abac,2026-03-17_12h40.43.538,kallum_motion_pilot_GIST_update_2,2026.1.1,Win32,59.88023952,673493f39318451e1c97abac,69b92ab4aef6dee357cd729a,69b92f44f6a3c7c88ab241f3,0.0316,0.0317,0,28,28,16,1,onetwo,,,,,,,,,,,,,,,,,,,,,,,,,,,,,,,,,,,,,,,,,,,,,,,,,,,,,,,,,,,,,,,,,,,,,,,,,,,,,,,,,,,,,,,,,,,,,,,,,,,,,,,,,,,,,,,,,,,,,,,,,,,,,,,,,,,,,,,,,
,,673493f39318451e1c97abac,2026-03-17_12h40.43.538,kallum_motion_pilot_GIST_update_2,2026.1.1,Win32,59.88023952,673493f39318451e1c97abac,69b92ab4aef6dee357cd729a,69b92f44f6a3c7c88ab241f3,0.0319,0.032,0,29,29,92,1,sevenfive,,,,,,,,,,,,,,,,,,,,,,,,,,,,,,,,,,,,,,,,,,,,,,,,,,,,,,,,,,,,,,,,,,,,,,,,,,,,,,,,,,,,,,,,,,,,,,,,,,,,,,,,,,,,,,,,,,,,,,,,,,,,,,,,,,,,,,,,,
,,673493f39318451e1c97abac,2026-03-17_12h40.43.538,kallum_motion_pilot_GIST_update_2,2026.1.1,Win32,59.88023952,673493f39318451e1c97abac,69b92ab4aef6dee357cd729a,69b92f44f6a3c7c88ab241f3,0.0322,0.0322,0,30,30,103,1,eightseven,,,,,,,,,,,,,,,,,,,,,,,,,,,,,,,,,,,,,,,,,,,,,,,,,,,,,,,,,,,,,,,,,,,,,,,,,,,,,,,,,,,,,,,,,,,,,,,,,,,,,,,,,,,,,,,,,,,,,,,,,,,,,,,,,,,,,,,,,
,,673493f39318451e1c97abac,2026-03-17_12h40.43.538,kallum_motion_pilot_GIST_update_2,2026.1.1,Win32,59.88023952,673493f39318451e1c97abac,69b92ab4aef6dee357cd729a,69b92f44f6a3c7c88ab241f3,0.0324,0.0324,0,31,31,0,1,onetwo,,,,,,,,,,,,,,,,,,,,,,,,,,,,,,,,,,,,,,,,,,,,,,,,,,,,,,,,,,,,,,,,,,,,,,,,,,,,,,,,,,,,,,,,,,,,,,,,,,,,,,,,,,,,,,,,,,,,,,,,,,,,,,,,,,,,,,,,,
,,673493f39318451e1c97abac,2026-03-17_12h40.43.538,kallum_motion_pilot_GIST_update_2,2026.1.1,Win32,59.88023952,673493f39318451e1c97abac,69b92ab4aef6dee357cd729a,69b92f44f6a3c7c88ab241f3,0.0327,0.0327,0,32,32,46,1,fourtwo,,,,,,,,,,,,,,,,,,,,,,,,,,,,,,,,,,,,,,,,,,,,,,,,,,,,,,,,,,,,,,,,,,,,,,,,,,,,,,,,,,,,,,,,,,,,,,,,,,,,,,,,,,,,,,,,,,,,,,,,,,,,,,,,,,,,,,,,,
,,673493f39318451e1c97abac,2026-03-17_12h40.43.538,kallum_motion_pilot_GIST_update_2,2026.1.1,Win32,59.88023952,673493f39318451e1c97abac,69b92ab4aef6dee357cd729a,69b92f44f6a3c7c88ab241f3,0.0329,0.0329,0,33,33,37,1,threefour,,,,,,,,,,,,,,,,,,,,,,,,,,,,,,,,,,,,,,,,,,,,,,,,,,,,,,,,,,,,,,,,,,,,,,,,,,,,,,,,,,,,,,,,,,,,,,,,,,,,,,,,,,,,,,,,,,,,,,,,,,,,,,,,,,,,,,,,,
,,673493f39318451e1c97abac,2026-03-17_12h40.43.538,kallum_motion_pilot_GIST_update_2,2026.1.1,Win32,59.88023952,673493f39318451e1c97abac,69b92ab4aef6dee357cd729a,69b92f44f6a3c7c88ab241f3,0.0332,0.0333,0,34,34,18,1,twoone,,,,,,,,,,,,,,,,,,,,,,,,,,,,,,,,,,,,,,,,,,,,,,,,,,,,,,,,,,,,,,,,,,,,,,,,,,,,,,,,,,,,,,,,,,,,,,,,,,,,,,,,,,,,,,,,,,,,,,,,,,,,,,,,,,,,,,,,,
,,673493f39318451e1c97abac,2026-03-17_12h40.43.538,kallum_motion_pilot_GIST_update_2,2026.1.1,Win32,59.88023952,673493f39318451e1c97abac,69b92ab4aef6dee357cd729a,69b92f44f6a3c7c88ab241f3,0.0335,0.0335,0,35,35,52,1,threeone,,,,,,,,,,,,,,,,,,,,,,,,,,,,,,,,,,,,,,,,,,,,,,,,,,,,,,,,,,,,,,,,,,,,,,,,,,,,,,,,,,,,,,,,,,,,,,,,,,,,,,,,,,,,,,,,,,,,,,,,,,,,,,,,,,,,,,,,,
,,673493f39318451e1c97abac,2026-03-17_12h40.43.538,kallum_motion_pilot_GIST_update_2,2026.1.1,Win32,59.88023952,673493f39318451e1c97abac,69b92ab4aef6dee357cd729a,69b92f44f6a3c7c88ab241f3,0.0336,0.0337,0,36,36,86,1,eightsix,,,,,,,,,,,,,,,,,,,,,,,,,,,,,,,,,,,,,,,,,,,,,,,,,,,,,,,,,,,,,,,,,,,,,,,,,,,,,,,,,,,,,,,,,,,,,,,,,,,,,,,,,,,,,,,,,,,,,,,,,,,,,,,,,,,,,,,,,
,,673493f39318451e1c97abac,2026-03-17_12h40.43.538,kallum_motion_pilot_GIST_update_2,2026.1.1,Win32,59.88023952,673493f39318451e1c97abac,69b92ab4aef6dee357cd729a,69b92f44f6a3c7c88ab241f3,0.0338,0.0338,0,37,37,5,1,threefour,,,,,,,,,,,,,,,,,,,,,,,,,,,,,,,,,,,,,,,,,,,,,,,,,,,,,,,,,,,,,,,,,,,,,,,,,,,,,,,,,,,,,,,,,,,,,,,,,,,,,,,,,,,,,,,,,,,,,,,,,,,,,,,,,,,,,,,,,
,,673493f39318451e1c97abac,2026-03-17_12h40.43.538,kallum_motion_pilot_GIST_update_2,2026.1.1,Win32,59.88023952,673493f39318451e1c97abac,69b92ab4aef6dee357cd729a,69b92f44f6a3c7c88ab241f3,0.034,0.034,0,38,38,154,1,sixfive,,,,,,,,,,,,,,,,,,,,,,,,,,,,,,,,,,,,,,,,,,,,,,,,,,,,,,,,,,,,,,,,,,,,,,,,,,,,,,,,,,,,,,,,,,,,,,,,,,,,,,,,,,,,,,,,,,,,,,,,,,,,,,,,,,,,,,,,,
,,673493f39318451e1c97abac,2026-03-17_12h40.43.538,kallum_motion_pilot_GIST_update_2,2026.1.1,Win32,59.88023952,673493f39318451e1c97abac,69b92ab4aef6dee357cd729a,69b92f44f6a3c7c88ab241f3,0.0341,0.0341,0,39,39,32,1,onetwo,,,,,,,,,,,,,,,,,,,,,,,,,,,,,,,,,,,,,,,,,,,,,,,,,,,,,,,,,,,,,,,,,,,,,,,,,,,,,,,,,,,,,,,,,,,,,,,,,,,,,,,,,,,,,,,,,,,,,,,,,,,,,,,,,,,,,,,,,
,,673493f39318451e1c97abac,2026-03-17_12h40.43.538,kallum_motion_pilot_GIST_update_2,2026.1.1,Win32,59.88023952,673493f39318451e1c97abac,69b92ab4aef6dee357cd729a,69b92f44f6a3c7c88ab241f3,0.035,0.0351,0,40,40,132,1,sevenfive,,,,,,,,,,,,,,,,,,,,,,,,,,,,,,,,,,,,,,,,,,,,,,,,,,,,,,,,,,,,,,,,,,,,,,,,,,,,,,,,,,,,,,,,,,,,,,,,,,,,,,,,,,,,,,,,,,,,,,,,,,,,,,,,,,,,,,,,,
,,673493f39318451e1c97abac,2026-03-17_12h40.43.538,kallum_motion_pilot_GIST_update_2,2026.1.1,Win32,59.88023952,673493f39318451e1c97abac,69b92ab4aef6dee357cd729a,69b92f44f6a3c7c88ab241f3,0.0352,0.0353,0,41,41,142,1,eightsix,,,,,,,,,,,,,,,,,,,,,,,,,,,,,,,,,,,,,,,,,,,,,,,,,,,,,,,,,,,,,,,,,,,,,,,,,,,,,,,,,,,,,,,,,,,,,,,,,,,,,,,,,,,,,,,,,,,,,,,,,,,,,,,,,,,,,,,,,
,,673493f39318451e1c97abac,2026-03-17_12h40.43.538,kallum_motion_pilot_GIST_update_2,2026.1.1,Win32,59.88023952,673493f39318451e1c97abac,69b92ab4aef6dee357cd729a,69b92f44f6a3c7c88ab241f3,0.0353,0.0354,0,42,42,33,1,onethree,,,,,,,,,,,,,,,,,,,,,,,,,,,,,,,,,,,,,,,,,,,,,,,,,,,,,,,,,,,,,,,,,,,,,,,,,,,,,,,,,,,,,,,,,,,,,,,,,,,,,,,,,,,,,,,,,,,,,,,,,,,,,,,,,,,,,,,,,
,,673493f39318451e1c97abac,2026-03-17_12h40.43.538,kallum_motion_pilot_GIST_update_2,2026.1.1,Win32,59.88023952,673493f39318451e1c97abac,69b92ab4aef6dee357cd729a,69b92f44f6a3c7c88ab241f3,0.0355,0.0355,0,43,43,76,1,threeone,,,,,,,,,,,,,,,,,,,,,,,,,,,,,,,,,,,,,,,,,,,,,,,,,,,,,,,,,,,,,,,,,,,,,,,,,,,,,,,,,,,,,,,,,,,,,,,,,,,,,,,,,,,,,,,,,,,,,,,,,,,,,,,,,,,,,,,,,
,,673493f39318451e1c97abac,2026-03-17_12h40.43.538,kallum_motion_pilot_GIST_update_2,2026.1.1,Win32,59.88023952,673493f39318451e1c97abac,69b92ab4aef6dee357cd729a,69b92f44f6a3c7c88ab241f3,0.0357,0.0357,0,44,44,3,1,twofour,,,,,,,,,,,,,,,,,,,,,,,,,,,,,,,,,,,,,,,,,,,,,,,,,,,,,,,,,,,,,,,,,,,,,,,,,,,,,,,,,,,,,,,,,,,,,,,,,,,,,,,,,,,,,,,,,,,,,,,,,,,,,,,,,,,,,,,,,
,,673493f39318451e1c97abac,2026-03-17_12h40.43.538,kallum_motion_pilot_GIST_update_2,2026.1.1,Win32,59.88023952,673493f39318451e1c97abac,69b92ab4aef6dee357cd729a,69b92f44f6a3c7c88ab241f3,0.0358,0.0358,0,45,45,104,1,fivesix,,,,,,,,,,,,,,,,,,,,,,,,,,,,,,,,,,,,,,,,,,,,,,,,,,,,,,,,,,,,,,,,,,,,,,,,,,,,,,,,,,,,,,,,,,,,,,,,,,,,,,,,,,,,,,,,,,,,,,,,,,,,,,,,,,,,,,,,,
,,673493f39318451e1c97abac,2026-03-17_12h40.43.538,kallum_motion_pilot_GIST_update_2,2026.1.1,Win32,59.88023952,673493f39318451e1c97abac,69b92ab4aef6dee357cd729a,69b92f44f6a3c7c88ab241f3,0.0359,0.036,0,46,46,139,1,sixeight,,,,,,,,,,,,,,,,,,,,,,,,,,,,,,,,,,,,,,,,,,,,,,,,,,,,,,,,,,,,,,,,,,,,,,,,,,,,,,,,,,,,,,,,,,,,,,,,,,,,,,,,,,,,,,,,,,,,,,,,,,,,,,,,,,,,,,,,,
,,673493f39318451e1c97abac,2026-03-17_12h40.43.538,kallum_motion_pilot_GIST_update_2,2026.1.1,Win32,59.88023952,673493f39318451e1c97abac,69b92ab4aef6dee357cd729a,69b92f44f6a3c7c88ab241f3,0.0361,0.0361,0,47,47,72,1,onetwo,,,,,,,,,,,,,,,,,,,,,,,,,,,,,,,,,,,,,,,,,,,,,,,,,,,,,,,,,,,,,,,,,,,,,,,,,,,,,,,,,,,,,,,,,,,,,,,,,,,,,,,,,,,,,,,,,,,,,,,,,,,,,,,,,,,,,,,,,
,,673493f39318451e1c97abac,2026-03-17_12h40.43.538,kallum_motion_pilot_GIST_update_2,2026.1.1,Win32,59.88023952,673493f39318451e1c97abac,69b92ab4aef6dee357cd729a,69b92f44f6a3c7c88ab241f3,0.0367,0.0367,0,48,48,100,1,sevenfive,,,,,,,,,,,,,,,,,,,,,,,,,,,,,,,,,,,,,,,,,,,,,,,,,,,,,,,,,,,,,,,,,,,,,,,,,,,,,,,,,,,,,,,,,,,,,,,,,,,,,,,,,,,,,,,,,,,,,,,,,,,,,,,,,,,,,,,,,
,,673493f39318451e1c97abac,2026-03-17_12h40.43.538,kallum_motion_pilot_GIST_update_2,2026.1.1,Win32,59.88023952,673493f39318451e1c97abac,69b92ab4aef6dee357cd729a,69b92f44f6a3c7c88ab241f3,0.0369,0.0369,0,49,49,2,1,twoone,,,,,,,,,,,,,,,,,,,,,,,,,,,,,,,,,,,,,,,,,,,,,,,,,,,,,,,,,,,,,,,,,,,,,,,,,,,,,,,,,,,,,,,,,,,,,,,,,,,,,,,,,,,,,,,,,,,,,,,,,,,,,,,,,,,,,,,,,
,,673493f39318451e1c97abac,2026-03-17_12h40.43.538,kallum_motion_pilot_GIST_update_2,2026.1.1,Win32,59.88023952,673493f39318451e1c97abac,69b92ab4aef6dee357cd729a,69b92f44f6a3c7c88ab241f3,0.0371,0.0371,0,50,50,89,1,fiveseven,,,,,,,,,,,,,,,,,,,,,,,,,,,,,,,,,,,,,,,,,,,,,,,,,,,,,,,,,,,,,,,,,,,,,,,,,,,,,,,,,,,,,,,,,,,,,,,,,,,,,,,,,,,,,,,,,,,,,,,,,,,,,,,,,,,,,,,,,
,,673493f39318451e1c97abac,2026-03-17_12h40.43.538,kallum_motion_pilot_GIST_update_2,2026.1.1,Win32,59.88023952,673493f39318451e1c97abac,69b92ab4aef6dee357cd729a,69b92f44f6a3c7c88ab241f3,0.0372,0.0372,0,51,51,19,1,twofour,,,,,,,,,,,,,,,,,,,,,,,,,,,,,,,,,,,,,,,,,,,,,,,,,,,,,,,,,,,,,,,,,,,,,,,,,,,,,,,,,,,,,,,,,,,,,,,,,,,,,,,,,,,,,,,,,,,,,,,,,,,,,,,,,,,,,,,,,
,,673493f39318451e1c97abac,2026-03-17_12h40.43.538,kallum_motion_pilot_GIST_update_2,2026.1.1,Win32,59.88023952,673493f39318451e1c97abac,69b92ab4aef6dee357cd729a,69b92f44f6a3c7c88ab241f3,0.0373,0.0375,0,52,52,30,1,fourtwo,,,,,,,,,,,,,,,,,,,,,,,,,,,,,,,,,,,,,,,,,,,,,,,,,,,,,,,,,,,,,,,,,,,,,,,,,,,,,,,,,,,,,,,,,,,,,,,,,,,,,,,,,,,,,,,,,,,,,,,,,,,,,,,,,,,,,,,,,
,,673493f39318451e1c97abac,2026-03-17_12h40.43.538,kallum_motion_pilot_GIST_update_2,2026.1.1,Win32,59.88023952,673493f39318451e1c97abac,69b92ab4aef6dee357cd729a,69b92f44f6a3c7c88ab241f3,0.0412,0.0412,0,53,53,1,1,onethree,,,,,,,,,,,,,,,,,,,,,,,,,,,,,,,,,,,,,,,,,,,,,,,,,,,,,,,,,,,,,,,,,,,,,,,,,,,,,,,,,,,,,,,,,,,,,,,,,,,,,,,,,,,,,,,,,,,,,,,,,,,,,,,,,,,,,,,,,
,,673493f39318451e1c97abac,2026-03-17_12h40.43.538,kallum_motion_pilot_GIST_update_2,2026.1.1,Win32,59.88023952,673493f39318451e1c97abac,69b92ab4aef6dee357cd729a,69b92f44f6a3c7c88ab241f3,0.0414,0.0414,0,54,54,131,1,sixeight,,,,,,,,,,,,,,,,,,,,,,,,,,,,,,,,,,,,,,,,,,,,,,,,,,,,,,,,,,,,,,,,,,,,,,,,,,,,,,,,,,,,,,,,,,,,,,,,,,,,,,,,,,,,,,,,,,,,,,,,,,,,,,,,,,,,,,,,,
,,673493f39318451e1c97abac,2026-03-17_12h40.43.538,kallum_motion_pilot_GIST_update_2,2026.1.1,Win32,59.88023952,673493f39318451e1c97abac,69b92ab4aef6dee357cd729a,69b92f44f6a3c7c88ab241f3,0.0415,0.0415,0,55,55,12,1,threeone,,,,,,,,,,,,,,,,,,,,,,,,,,,,,,,,,,,,,,,,,,,,,,,,,,,,,,,,,,,,,,,,,,,,,,,,,,,,,,,,,,,,,,,,,,,,,,,,,,,,,,,,,,,,,,,,,,,,,,,,,,,,,,,,,,,,,,,,,
,,673493f39318451e1c97abac,2026-03-17_12h40.43.538,kallum_motion_pilot_GIST_update_2,2026.1.1,Win32,59.88023952,673493f39318451e1c97abac,69b92ab4aef6dee357cd729a,69b92f44f6a3c7c88ab241f3,0.0417,0.0417,0,56,56,73,1,onethree,,,,,,,,,,,,,,,,,,,,,,,,,,,,,,,,,,,,,,,,,,,,,,,,,,,,,,,,,,,,,,,,,,,,,,,,,,,,,,,,,,,,,,,,,,,,,,,,,,,,,,,,,,,,,,,,,,,,,,,,,,,,,,,,,,,,,,,,,
,,673493f39318451e1c97abac,2026-03-17_12h40.43.538,kallum_motion_pilot_GIST_update_2,2026.1.1,Win32,59.88023952,673493f39318451e1c97abac,69b92ab4aef6dee357cd729a,69b92f44f6a3c7c88ab241f3,0.0425,0.0425,0,57,57,78,1,fourtwo,,,,,,,,,,,,,,,,,,,,,,,,,,,,,,,,,,,,,,,,,,,,,,,,,,,,,,,,,,,,,,,,,,,,,,,,,,,,,,,,,,,,,,,,,,,,,,,,,,,,,,,,,,,,,,,,,,,,,,,,,,,,,,,,,,,,,,,,,
,,673493f39318451e1c97abac,2026-03-17_12h40.43.538,kallum_motion_pilot_GIST_update_2,2026.1.1,Win32,59.88023952,673493f39318451e1c97abac,69b92ab4aef6dee357cd729a,69b92f44f6a3c7c88ab241f3,0.0426,0.0426,0,58,58,71,1,fourthree,,,,,,,,,,,,,,,,,,,,,,,,,,,,,,,,,,,,,,,,,,,,,,,,,,,,,,,,,,,,,,,,,,,,,,,,,,,,,,,,,,,,,,,,,,,,,,,,,,,,,,,,,,,,,,,,,,,,,,,,,,,,,,,,,,,,,,,,,
,,673493f39318451e1c97abac,2026-03-17_12h40.43.538,kallum_motion_pilot_GIST_update_2,2026.1.1,Win32,59.88023952,673493f39318451e1c97abac,69b92ab4aef6dee357cd729a,69b92f44f6a3c7c88ab241f3,0.0427,0.0427,0,59,59,109,1,seveneight,,,,,,,,,,,,,,,,,,,,,,,,,,,,,,,,,,,,,,,,,,,,,,,,,,,,,,,,,,,,,,,,,,,,,,,,,,,,,,,,,,,,,,,,,,,,,,,,,,,,,,,,,,,,,,,,,,,,,,,,,,,,,,,,,,,,,,,,,
,,673493f39318451e1c97abac,2026-03-17_12h40.43.538,kallum_motion_pilot_GIST_update_2,2026.1.1,Win32,59.88023952,673493f39318451e1c97abac,69b92ab4aef6dee357cd729a,69b92f44f6a3c7c88ab241f3,0.0429,0.0429,0,60,60,116,1,sevenfive,,,,,,,,,,,,,,,,,,,,,,,,,,,,,,,,,,,,,,,,,,,,,,,,,,,,,,,,,,,,,,,,,,,,,,,,,,,,,,,,,,,,,,,,,,,,,,,,,,,,,,,,,,,,,,,,,,,,,,,,,,,,,,,,,,,,,,,,,
,,673493f39318451e1c97abac,2026-03-17_12h40.43.538,kallum_motion_pilot_GIST_update_2,2026.1.1,Win32,59.88023952,673493f39318451e1c97abac,69b92ab4aef6dee357cd729a,69b92f44f6a3c7c88ab241f3,0.0431,0.0431,0,61,61,151,1,eightseven,,,,,,,,,,,,,,,,,,,,,,,,,,,,,,,,,,,,,,,,,,,,,,,,,,,,,,,,,,,,,,,,,,,,,,,,,,,,,,,,,,,,,,,,,,,,,,,,,,,,,,,,,,,,,,,,,,,,,,,,,,,,,,,,,,,,,,,,,
,,673493f39318451e1c97abac,2026-03-17_12h40.43.538,kallum_motion_pilot_GIST_update_2,2026.1.1,Win32,59.88023952,673493f39318451e1c97abac,69b92ab4aef6dee357cd729a,69b92f44f6a3c7c88ab241f3,0.0432,0.0432,0,62,62,25,1,onethree,,,,,,,,,,,,,,,,,,,,,,,,,,,,,,,,,,,,,,,,,,,,,,,,,,,,,,,,,,,,,,,,,,,,,,,,,,,,,,,,,,,,,,,,,,,,,,,,,,,,,,,,,,,,,,,,,,,,,,,,,,,,,,,,,,,,,,,,,
,,673493f39318451e1c97abac,2026-03-17_12h40.43.538,kallum_motion_pilot_GIST_update_2,2026.1.1,Win32,59.88023952,673493f39318451e1c97abac,69b92ab4aef6dee357cd729a,69b92f44f6a3c7c88ab241f3,0.0434,0.0434,0,63,63,126,1,eightsix,,,,,,,,,,,,,,,,,,,,,,,,,,,,,,,,,,,,,,,,,,,,,,,,,,,,,,,,,,,,,,,,,,,,,,,,,,,,,,,,,,,,,,,,,,,,,,,,,,,,,,,,,,,,,,,,,,,,,,,,,,,,,,,,,,,,,,,,,
,,673493f39318451e1c97abac,2026-03-17_12h40.43.538,kallum_motion_pilot_GIST_update_2,2026.1.1,Win32,59.88023952,673493f39318451e1c97abac,69b92ab4aef6dee357cd729a,69b92f44f6a3c7c88ab241f3,0.0434,0.0434,0,64,64,114,1,sixfive,,,,,,,,,,,,,,,,,,,,,,,,,,,,,,,,,,,,,,,,,,,,,,,,,,,,,,,,,,,,,,,,,,,,,,,,,,,,,,,,,,,,,,,,,,,,,,,,,,,,,,,,,,,,,,,,,,,,,,,,,,,,,,,,,,,,,,,,,
,,673493f39318451e1c97abac,2026-03-17_12h40.43.538,kallum_motion_pilot_GIST_update_2,2026.1.1,Win32,59.88023952,673493f39318451e1c97abac,69b92ab4aef6dee357cd729a,69b92f44f6a3c7c88ab241f3,0.0436,0.0436,0,65,65,75,1,twofour,,,,,,,,,,,,,,,,,,,,,,,,,,,,,,,,,,,,,,,,,,,,,,,,,,,,,,,,,,,,,,,,,,,,,,,,,,,,,,,,,,,,,,,,,,,,,,,,,,,,,,,,,,,,,,,,,,,,,,,,,,,,,,,,,,,,,,,,,
,,673493f39318451e1c97abac,2026-03-17_12h40.43.538,kallum_motion_pilot_GIST_update_2,2026.1.1,Win32,59.88023952,673493f39318451e1c97abac,69b92ab4aef6dee357cd729a,69b92f44f6a3c7c88ab241f3,0.0437,0.0437,0,66,66,99,1,sixeight,,,,,,,,,,,,,,,,,,,,,,,,,,,,,,,,,,,,,,,,,,,,,,,,,,,,,,,,,,,,,,,,,,,,,,,,,,,,,,,,,,,,,,,,,,,,,,,,,,,,,,,,,,,,,,,,,,,,,,,,,,,,,,,,,,,,,,,,,
,,673493f39318451e1c97abac,2026-03-17_12h40.43.538,kallum_motion_pilot_GIST_update_2,2026.1.1,Win32,59.88023952,673493f39318451e1c97abac,69b92ab4aef6dee357cd729a,69b92f44f6a3c7c88ab241f3,0.0438,0.0438,0,67,67,161,1,fiveseven,,,,,,,,,,,,,,,,,,,,,,,,,,,,,,,,,,,,,,,,,,,,,,,,,,,,,,,,,,,,,,,,,,,,,,,,,,,,,,,,,,,,,,,,,,,,,,,,,,,,,,,,,,,,,,,,,,,,,,,,,,,,,,,,,,,,,,,,,
,,673493f39318451e1c97abac,2026-03-17_12h40.43.538,kallum_motion_pilot_GIST_update_2,2026.1.1,Win32,59.88023952,673493f39318451e1c97abac,69b92ab4aef6dee357cd729a,69b92f44f6a3c7c88ab241f3,0.0439,0.0439,0,68,68,56,1,onetwo,,,,,,,,,,,,,,,,,,,,,,,,,,,,,,,,,,,,,,,,,,,,,,,,,,,,,,,,,,,,,,,,,,,,,,,,,,,,,,,,,,,,,,,,,,,,,,,,,,,,,,,,,,,,,,,,,,,,,,,,,,,,,,,,,,,,,,,,,
,,673493f39318451e1c97abac,2026-03-17_12h40.43.538,kallum_motion_pilot_GIST_update_2,2026.1.1,Win32,59.88023952,673493f39318451e1c97abac,69b92ab4aef6dee357cd729a,69b92f44f6a3c7c88ab241f3,0.044,0.044,0,69,69,82,1,sixfive,,,,,,,,,,,,,,,,,,,,,,,,,,,,,,,,,,,,,,,,,,,,,,,,,,,,,,,,,,,,,,,,,,,,,,,,,,,,,,,,,,,,,,,,,,,,,,,,,,,,,,,,,,,,,,,,,,,,,,,,,,,,,,,,,,,,,,,,,
,,673493f39318451e1c97abac,2026-03-17_12h40.43.538,kallum_motion_pilot_GIST_update_2,2026.1.1,Win32,59.88023952,673493f39318451e1c97abac,69b92ab4aef6dee357cd729a,69b92f44f6a3c7c88ab241f3,0.044,0.044,0,70,70,113,1,fiveseven,,,,,,,,,,,,,,,,,,,,,,,,,,,,,,,,,,,,,,,,,,,,,,,,,,,,,,,,,,,,,,,,,,,,,,,,,,,,,,,,,,,,,,,,,,,,,,,,,,,,,,,,,,,,,,,,,,,,,,,,,,,,,,,,,,,,,,,,,
,,673493f39318451e1c97abac,2026-03-17_12h40.43.538,kallum_motion_pilot_GIST_update_2,2026.1.1,Win32,59.88023952,673493f39318451e1c97abac,69b92ab4aef6dee357cd729a,69b92f44f6a3c7c88ab241f3,0.0442,0.0442,0,71,71,50,1,twoone,,,,,,,,,,,,,,,,,,,,,,,,,,,,,,,,,,,,,,,,,,,,,,,,,,,,,,,,,,,,,,,,,,,,,,,,,,,,,,,,,,,,,,,,,,,,,,,,,,,,,,,,,,,,,,,,,,,,,,,,,,,,,,,,,,,,,,,,,
,,673493f39318451e1c97abac,2026-03-17_12h40.43.538,kallum_motion_pilot_GIST_update_2,2026.1.1,Win32,59.88023952,673493f39318451e1c97abac,69b92ab4aef6dee357cd729a,69b92f44f6a3c7c88ab241f3,0.0444,0.0444,0,72,72,57,1,onethree,,,,,,,,,,,,,,,,,,,,,,,,,,,,,,,,,,,,,,,,,,,,,,,,,,,,,,,,,,,,,,,,,,,,,,,,,,,,,,,,,,,,,,,,,,,,,,,,,,,,,,,,,,,,,,,,,,,,,,,,,,,,,,,,,,,,,,,,,
,,673493f39318451e1c97abac,2026-03-17_12h40.43.538,kallum_motion_pilot_GIST_update_2,2026.1.1,Win32,59.88023952,673493f39318451e1c97abac,69b92ab4aef6dee357cd729a,69b92f44f6a3c7c88ab241f3,0.0445,0.0445,0,73,73,160,1,fivesix,,,,,,,,,,,,,,,,,,,,,,,,,,,,,,,,,,,,,,,,,,,,,,,,,,,,,,,,,,,,,,,,,,,,,,,,,,,,,,,,,,,,,,,,,,,,,,,,,,,,,,,,,,,,,,,,,,,,,,,,,,,,,,,,,,,,,,,,,
,,673493f39318451e1c97abac,2026-03-17_12h40.43.538,kallum_motion_pilot_GIST_update_2,2026.1.1,Win32,59.88023952,673493f39318451e1c97abac,69b92ab4aef6dee357cd729a,69b92f44f6a3c7c88ab241f3,0.0446,0.0446,0,74,74,115,1,sixeight,,,,,,,,,,,,,,,,,,,,,,,,,,,,,,,,,,,,,,,,,,,,,,,,,,,,,,,,,,,,,,,,,,,,,,,,,,,,,,,,,,,,,,,,,,,,,,,,,,,,,,,,,,,,,,,,,,,,,,,,,,,,,,,,,,,,,,,,,
,,673493f39318451e1c97abac,2026-03-17_12h40.43.538,kallum_motion_pilot_GIST_update_2,2026.1.1,Win32,59.88023952,673493f39318451e1c97abac,69b92ab4aef6dee357cd729a,69b92f44f6a3c7c88ab241f3,0.0447,0.0447,0,75,75,144,1,fivesix,,,,,,,,,,,,,,,,,,,,,,,,,,,,,,,,,,,,,,,,,,,,,,,,,,,,,,,,,,,,,,,,,,,,,,,,,,,,,,,,,,,,,,,,,,,,,,,,,,,,,,,,,,,,,,,,,,,,,,,,,,,,,,,,,,,,,,,,,
,,673493f39318451e1c97abac,2026-03-17_12h40.43.538,kallum_motion_pilot_GIST_update_2,2026.1.1,Win32,59.88023952,673493f39318451e1c97abac,69b92ab4aef6dee357cd729a,69b92f44f6a3c7c88ab241f3,0.0447,0.0447,0,76,76,20,1,threeone,,,,,,,,,,,,,,,,,,,,,,,,,,,,,,,,,,,,,,,,,,,,,,,,,,,,,,,,,,,,,,,,,,,,,,,,,,,,,,,,,,,,,,,,,,,,,,,,,,,,,,,,,,,,,,,,,,,,,,,,,,,,,,,,,,,,,,,,,
,,673493f39318451e1c97abac,2026-03-17_12h40.43.538,kallum_motion_pilot_GIST_update_2,2026.1.1,Win32,59.88023952,673493f39318451e1c97abac,69b92ab4aef6dee357cd729a,69b92f44f6a3c7c88ab241f3,0.0448,0.0448,0,77,77,91,1,sixeight,,,,,,,,,,,,,,,,,,,,,,,,,,,,,,,,,,,,,,,,,,,,,,,,,,,,,,,,,,,,,,,,,,,,,,,,,,,,,,,,,,,,,,,,,,,,,,,,,,,,,,,,,,,,,,,,,,,,,,,,,,,,,,,,,,,,,,,,,
,,673493f39318451e1c97abac,2026-03-17_12h40.43.538,kallum_motion_pilot_GIST_update_2,2026.1.1,Win32,59.88023952,673493f39318451e1c97abac,69b92ab4aef6dee357cd729a,69b92f44f6a3c7c88ab241f3,0.0448,0.0448,0,78,78,61,1,threefour,,,,,,,,,,,,,,,,,,,,,,,,,,,,,,,,,,,,,,,,,,,,,,,,,,,,,,,,,,,,,,,,,,,,,,,,,,,,,,,,,,,,,,,,,,,,,,,,,,,,,,,,,,,,,,,,,,,,,,,,,,,,,,,,,,,,,,,,,
,,673493f39318451e1c97abac,2026-03-17_12h40.43.538,kallum_motion_pilot_GIST_update_2,2026.1.1,Win32,59.88023952,673493f39318451e1c97abac,69b92ab4aef6dee357cd729a,69b92f44f6a3c7c88ab241f3,0.0449,0.0449,0,79,79,102,1,eightsix,,,,,,,,,,,,,,,,,,,,,,,,,,,,,,,,,,,,,,,,,,,,,,,,,,,,,,,,,,,,,,,,,,,,,,,,,,,,,,,,,,,,,,,,,,,,,,,,,,,,,,,,,,,,,,,,,,,,,,,,,,,,,,,,,,,,,,,,,
,,673493f39318451e1c97abac,2026-03-17_12h40.43.538,kallum_motion_pilot_GIST_update_2,2026.1.1,Win32,59.88023952,673493f39318451e1c97abac,69b92ab4aef6dee357cd729a,69b92f44f6a3c7c88ab241f3,0.045,0.045,0,80,80,28,1,threeone,,,,,,,,,,,,,,,,,,,,,,,,,,,,,,,,,,,,,,,,,,,,,,,,,,,,,,,,,,,,,,,,,,,,,,,,,,,,,,,,,,,,,,,,,,,,,,,,,,,,,,,,,,,,,,,,,,,,,,,,,,,,,,,,,,,,,,,,,
,,673493f39318451e1c97abac,2026-03-17_12h40.43.538,kallum_motion_pilot_GIST_update_2,2026.1.1,Win32,59.88023952,673493f39318451e1c97abac,69b92ab4aef6dee357cd729a,69b92f44f6a3c7c88ab241f3,0.045,0.045,0,81,81,118,1,eightsix,,,,,,,,,,,,,,,,,,,,,,,,,,,,,,,,,,,,,,,,,,,,,,,,,,,,,,,,,,,,,,,,,,,,,,,,,,,,,,,,,,,,,,,,,,,,,,,,,,,,,,,,,,,,,,,,,,,,,,,,,,,,,,,,,,,,,,,,,
,,673493f39318451e1c97abac,2026-03-17_12h40.43.538,kallum_motion_pilot_GIST_update_2,2026.1.1,Win32,59.88023952,673493f39318451e1c97abac,69b92ab4aef6dee357cd729a,69b92f44f6a3c7c88ab241f3,0.045,0.045,0,82,82,93,1,seveneight,,,,,,,,,,,,,,,,,,,,,,,,,,,,,,,,,,,,,,,,,,,,,,,,,,,,,,,,,,,,,,,,,,,,,,,,,,,,,,,,,,,,,,,,,,,,,,,,,,,,,,,,,,,,,,,,,,,,,,,,,,,,,,,,,,,,,,,,,
,,673493f39318451e1c97abac,2026-03-17_12h40.43.538,kallum_motion_pilot_GIST_update_2,2026.1.1,Win32,59.88023952,673493f39318451e1c97abac,69b92ab4aef6dee357cd729a,69b92f44f6a3c7c88ab241f3,0.0451,0.0451,0,83,83,62,1,fourtwo,,,,,,,,,,,,,,,,,,,,,,,,,,,,,,,,,,,,,,,,,,,,,,,,,,,,,,,,,,,,,,,,,,,,,,,,,,,,,,,,,,,,,,,,,,,,,,,,,,,,,,,,,,,,,,,,,,,,,,,,,,,,,,,,,,,,,,,,,
,,673493f39318451e1c97abac,2026-03-17_12h40.43.538,kallum_motion_pilot_GIST_update_2,2026.1.1,Win32,59.88023952,673493f39318451e1c97abac,69b92ab4aef6dee357cd729a,69b92f44f6a3c7c88ab241f3,0.0452,0.0452,0,84,84,41,1,onethree,,,,,,,,,,,,,,,,,,,,,,,,,,,,,,,,,,,,,,,,,,,,,,,,,,,,,,,,,,,,,,,,,,,,,,,,,,,,,,,,,,,,,,,,,,,,,,,,,,,,,,,,,,,,,,,,,,,,,,,,,,,,,,,,,,,,,,,,,
,,673493f39318451e1c97abac,2026-03-17_12h40.43.538,kallum_motion_pilot_GIST_update_2,2026.1.1,Win32,59.88023952,673493f39318451e1c97abac,69b92ab4aef6dee357cd729a,69b92f44f6a3c7c88ab241f3,0.0455,0.0455,0,85,85,153,1,fiveseven,,,,,,,,,,,,,,,,,,,,,,,,,,,,,,,,,,,,,,,,,,,,,,,,,,,,,,,,,,,,,,,,,,,,,,,,,,,,,,,,,,,,,,,,,,,,,,,,,,,,,,,,,,,,,,,,,,,,,,,,,,,,,,,,,,,,,,,,,
,,673493f39318451e1c97abac,2026-03-17_12h40.43.538,kallum_motion_pilot_GIST_update_2,2026.1.1,Win32,59.88023952,673493f39318451e1c97abac,69b92ab4aef6dee357cd729a,69b92f44f6a3c7c88ab241f3,0.0456,0.0456,0,86,86,112,1,fivesix,,,,,,,,,,,,,,,,,,,,,,,,,,,,,,,,,,,,,,,,,,,,,,,,,,,,,,,,,,,,,,,,,,,,,,,,,,,,,,,,,,,,,,,,,,,,,,,,,,,,,,,,,,,,,,,,,,,,,,,,,,,,,,,,,,,,,,,,,
,,673493f39318451e1c97abac,2026-03-17_12h40.43.538,kallum_motion_pilot_GIST_update_2,2026.1.1,Win32,59.88023952,673493f39318451e1c97abac,69b92ab4aef6dee357cd729a,69b92f44f6a3c7c88ab241f3,0.0458,0.0458,0,87,87,117,1,seveneight,,,,,,,,,,,,,,,,,,,,,,,,,,,,,,,,,,,,,,,,,,,,,,,,,,,,,,,,,,,,,,,,,,,,,,,,,,,,,,,,,,,,,,,,,,,,,,,,,,,,,,,,,,,,,,,,,,,,,,,,,,,,,,,,,,,,,,,,,
,,673493f39318451e1c97abac,2026-03-17_12h40.43.538,kallum_motion_pilot_GIST_update_2,2026.1.1,Win32,59.88023952,673493f39318451e1c97abac,69b92ab4aef6dee357cd729a,69b92f44f6a3c7c88ab241f3,0.0458,0.0459,0,88,88,147,1,sixeight,,,,,,,,,,,,,,,,,,,,,,,,,,,,,,,,,,,,,,,,,,,,,,,,,,,,,,,,,,,,,,,,,,,,,,,,,,,,,,,,,,,,,,,,,,,,,,,,,,,,,,,,,,,,,,,,,,,,,,,,,,,,,,,,,,,,,,,,,
,,673493f39318451e1c97abac,2026-03-17_12h40.43.538,kallum_motion_pilot_GIST_update_2,2026.1.1,Win32,59.88023952,673493f39318451e1c97abac,69b92ab4aef6dee357cd729a,69b92f44f6a3c7c88ab241f3,0.0459,0.0459,0,89,89,156,1,sevenfive,,,,,,,,,,,,,,,,,,,,,,,,,,,,,,,,,,,,,,,,,,,,,,,,,,,,,,,,,,,,,,,,,,,,,,,,,,,,,,,,,,,,,,,,,,,,,,,,,,,,,,,,,,,,,,,,,,,,,,,,,,,,,,,,,,,,,,,,,
,,673493f39318451e1c97abac,2026-03-17_12h40.43.538,kallum_motion_pilot_GIST_update_2,2026.1.1,Win32,59.88023952,673493f39318451e1c97abac,69b92ab4aef6dee357cd729a,69b92f44f6a3c7c88ab241f3,0.046,0.046,0,90,90,122,1,sixfive,,,,,,,,,,,,,,,,,,,,,,,,,,,,,,,,,,,,,,,,,,,,,,,,,,,,,,,,,,,,,,,,,,,,,,,,,,,,,,,,,,,,,,,,,,,,,,,,,,,,,,,,,,,,,,,,,,,,,,,,,,,,,,,,,,,,,,,,,
,,673493f39318451e1c97abac,2026-03-17_12h40.43.538,kallum_motion_pilot_GIST_update_2,2026.1.1,Win32,59.88023952,673493f39318451e1c97abac,69b92ab4aef6dee357cd729a,69b92f44f6a3c7c88ab241f3,0.046,0.046,0,91,91,45,1,threefour,,,,,,,,,,,,,,,,,,,,,,,,,,,,,,,,,,,,,,,,,,,,,,,,,,,,,,,,,,,,,,,,,,,,,,,,,,,,,,,,,,,,,,,,,,,,,,,,,,,,,,,,,,,,,,,,,,,,,,,,,,,,,,,,,,,,,,,,,
,,673493f39318451e1c97abac,2026-03-17_12h40.43.538,kallum_motion_pilot_GIST_update_2,2026.1.1,Win32,59.88023952,673493f39318451e1c97abac,69b92ab4aef6dee357cd729a,69b92f44f6a3c7c88ab241f3,0.0462,0.0462,0,92,92,127,1,eightseven,,,,,,,,,,,,,,,,,,,,,,,,,,,,,,,,,,,,,,,,,,,,,,,,,,,,,,,,,,,,,,,,,,,,,,,,,,,,,,,,,,,,,,,,,,,,,,,,,,,,,,,,,,,,,,,,,,,,,,,,,,,,,,,,,,,,,,,,,
,,673493f39318451e1c97abac,2026-03-17_12h40.43.538,kallum_motion_pilot_GIST_update_2,2026.1.1,Win32,59.88023952,673493f39318451e1c97abac,69b92ab4aef6dee357cd729a,69b92f44f6a3c7c88ab241f3,0.0463,0.0463,0,93,93,69,1,threefour,,,,,,,,,,,,,,,,,,,,,,,,,,,,,,,,,,,,,,,,,,,,,,,,,,,,,,,,,,,,,,,,,,,,,,,,,,,,,,,,,,,,,,,,,,,,,,,,,,,,,,,,,,,,,,,,,,,,,,,,,,,,,,,,,,,,,,,,,
,,673493f39318451e1c97abac,2026-03-17_12h40.43.538,kallum_motion_pilot_GIST_update_2,2026.1.1,Win32,59.88023952,673493f39318451e1c97abac,69b92ab4aef6dee357cd729a,69b92f44f6a3c7c88ab241f3,0.0464,0.0464,0,94,94,49,1,onethree,,,,,,,,,,,,,,,,,,,,,,,,,,,,,,,,,,,,,,,,,,,,,,,,,,,,,,,,,,,,,,,,,,,,,,,,,,,,,,,,,,,,,,,,,,,,,,,,,,,,,,,,,,,,,,,,,,,,,,,,,,,,,,,,,,,,,,,,,
,,673493f39318451e1c97abac,2026-03-17_12h40.43.538,kallum_motion_pilot_GIST_update_2,2026.1.1,Win32,59.88023952,673493f39318451e1c97abac,69b92ab4aef6dee357cd729a,69b92f44f6a3c7c88ab241f3,0.0465,0.0465,0,95,95,130,1,sixfive,,,,,,,,,,,,,,,,,,,,,,,,,,,,,,,,,,,,,,,,,,,,,,,,,,,,,,,,,,,,,,,,,,,,,,,,,,,,,,,,,,,,,,,,,,,,,,,,,,,,,,,,,,,,,,,,,,,,,,,,,,,,,,,,,,,,,,,,,
,,673493f39318451e1c97abac,2026-03-17_12h40.43.538,kallum_motion_pilot_GIST_update_2,2026.1.1,Win32,59.88023952,673493f39318451e1c97abac,69b92ab4aef6dee357cd729a,69b92f44f6a3c7c88ab241f3,0.0466,0.0466,0,96,96,135,1,eightseven,,,,,,,,,,,,,,,,,,,,,,,,,,,,,,,,,,,,,,,,,,,,,,,,,,,,,,,,,,,,,,,,,,,,,,,,,,,,,,,,,,,,,,,,,,,,,,,,,,,,,,,,,,,,,,,,,,,,,,,,,,,,,,,,,,,,,,,,,
,,673493f39318451e1c97abac,2026-03-17_12h40.43.538,kallum_motion_pilot_GIST_update_2,2026.1.1,Win32,59.88023952,673493f39318451e1c97abac,69b92ab4aef6dee357cd729a,69b92f44f6a3c7c88ab241f3,0.0467,0.0467,0,97,97,152,1,fivesix,,,,,,,,,,,,,,,,,,,,,,,,,,,,,,,,,,,,,,,,,,,,,,,,,,,,,,,,,,,,,,,,,,,,,,,,,,,,,,,,,,,,,,,,,,,,,,,,,,,,,,,,,,,,,,,,,,,,,,,,,,,,,,,,,,,,,,,,,
,,673493f39318451e1c97abac,2026-03-17_12h40.43.538,kallum_motion_pilot_GIST_update_2,2026.1.1,Win32,59.88023952,673493f39318451e1c97abac,69b92ab4aef6dee357cd729a,69b92f44f6a3c7c88ab241f3,0.0467,0.0467,0,98,98,29,1,threefour,,,,,,,,,,,,,,,,,,,,,,,,,,,,,,,,,,,,,,,,,,,,,,,,,,,,,,,,,,,,,,,,,,,,,,,,,,,,,,,,,,,,,,,,,,,,,,,,,,,,,,,,,,,,,,,,,,,,,,,,,,,,,,,,,,,,,,,,,
,,673493f39318451e1c97abac,2026-03-17_12h40.43.538,kallum_motion_pilot_GIST_update_2,2026.1.1,Win32,59.88023952,673493f39318451e1c97abac,69b92ab4aef6dee357cd729a,69b92f44f6a3c7c88ab241f3,0.0468,0.0468,0,99,99,148,1,sevenfive,,,,,,,,,,,,,,,,,,,,,,,,,,,,,,,,,,,,,,,,,,,,,,,,,,,,,,,,,,,,,,,,,,,,,,,,,,,,,,,,,,,,,,,,,,,,,,,,,,,,,,,,,,,,,,,,,,,,,,,,,,,,,,,,,,,,,,,,,
,,673493f39318451e1c97abac,2026-03-17_12h40.43.538,kallum_motion_pilot_GIST_update_2,2026.1.1,Win32,59.88023952,673493f39318451e1c97abac,69b92ab4aef6dee357cd729a,69b92f44f6a3c7c88ab241f3,0.0469,0.047,0,100,100,47,1,fourthree,,,,,,,,,,,,,,,,,,,,,,,,,,,,,,,,,,,,,,,,,,,,,,,,,,,,,,,,,,,,,,,,,,,,,,,,,,,,,,,,,,,,,,,,,,,,,,,,,,,,,,,,,,,,,,,,,,,,,,,,,,,,,,,,,,,,,,,,,
,,673493f39318451e1c97abac,2026-03-17_12h40.43.538,kallum_motion_pilot_GIST_update_2,2026.1.1,Win32,59.88023952,673493f39318451e1c97abac,69b92ab4aef6dee357cd729a,69b92f44f6a3c7c88ab241f3,0.0471,0.0471,0,101,101,6,1,fourtwo,,,,,,,,,,,,,,,,,,,,,,,,,,,,,,,,,,,,,,,,,,,,,,,,,,,,,,,,,,,,,,,,,,,,,,,,,,,,,,,,,,,,,,,,,,,,,,,,,,,,,,,,,,,,,,,,,,,,,,,,,,,,,,,,,,,,,,,,,
,,673493f39318451e1c97abac,2026-03-17_12h40.43.538,kallum_motion_pilot_GIST_update_2,2026.1.1,Win32,59.88023952,673493f39318451e1c97abac,69b92ab4aef6dee357cd729a,69b92f44f6a3c7c88ab241f3,0.0471,0.0471,0,102,102,43,1,twofour,,,,,,,,,,,,,,,,,,,,,,,,,,,,,,,,,,,,,,,,,,,,,,,,,,,,,,,,,,,,,,,,,,,,,,,,,,,,,,,,,,,,,,,,,,,,,,,,,,,,,,,,,,,,,,,,,,,,,,,,,,,,,,,,,,,,,,,,,
,,673493f39318451e1c97abac,2026-03-17_12h40.43.538,kallum_motion_pilot_GIST_update_2,2026.1.1,Win32,59.88023952,673493f39318451e1c97abac,69b92ab4aef6dee357cd729a,69b92f44f6a3c7c88ab241f3,0.0472,0.0472,0,103,103,13,1,threefour,,,,,,,,,,,,,,,,,,,,,,,,,,,,,,,,,,,,,,,,,,,,,,,,,,,,,,,,,,,,,,,,,,,,,,,,,,,,,,,,,,,,,,,,,,,,,,,,,,,,,,,,,,,,,,,,,,,,,,,,,,,,,,,,,,,,,,,,,
,,673493f39318451e1c97abac,2026-03-17_12h40.43.538,kallum_motion_pilot_GIST_update_2,2026.1.1,Win32,59.88023952,673493f39318451e1c97abac,69b92ab4aef6dee357cd729a,69b92f44f6a3c7c88ab241f3,0.0474,0.0474,0,104,104,31,1,fourthree,,,,,,,,,,,,,,,,,,,,,,,,,,,,,,,,,,,,,,,,,,,,,,,,,,,,,,,,,,,,,,,,,,,,,,,,,,,,,,,,,,,,,,,,,,,,,,,,,,,,,,,,,,,,,,,,,,,,,,,,,,,,,,,,,,,,,,,,,
,,673493f39318451e1c97abac,2026-03-17_12h40.43.538,kallum_motion_pilot_GIST_update_2,2026.1.1,Win32,59.88023952,673493f39318451e1c97abac,69b92ab4aef6dee357cd729a,69b92f44f6a3c7c88ab241f3,0.0475,0.0475,0,105,105,66,1,twoone,,,,,,,,,,,,,,,,,,,,,,,,,,,,,,,,,,,,,,,,,,,,,,,,,,,,,,,,,,,,,,,,,,,,,,,,,,,,,,,,,,,,,,,,,,,,,,,,,,,,,,,,,,,,,,,,,,,,,,,,,,,,,,,,,,,,,,,,,
,,673493f39318451e1c97abac,2026-03-17_12h40.43.538,kallum_motion_pilot_GIST_update_2,2026.1.1,Win32,59.88023952,673493f39318451e1c97abac,69b92ab4aef6dee357cd729a,69b92f44f6a3c7c88ab241f3,0.0478,0.0478,0,106,106,24,1,onetwo,,,,,,,,,,,,,,,,,,,,,,,,,,,,,,,,,,,,,,,,,,,,,,,,,,,,,,,,,,,,,,,,,,,,,,,,,,,,,,,,,,,,,,,,,,,,,,,,,,,,,,,,,,,,,,,,,,,,,,,,,,,,,,,,,,,,,,,,,
,,673493f39318451e1c97abac,2026-03-17_12h40.43.538,kallum_motion_pilot_GIST_update_2,2026.1.1,Win32,59.88023952,673493f39318451e1c97abac,69b92ab4aef6dee357cd729a,69b92f44f6a3c7c88ab241f3,0.0479,0.0479,0,107,107,8,1,onetwo,,,,,,,,,,,,,,,,,,,,,,,,,,,,,,,,,,,,,,,,,,,,,,,,,,,,,,,,,,,,,,,,,,,,,,,,,,,,,,,,,,,,,,,,,,,,,,,,,,,,,,,,,,,,,,,,,,,,,,,,,,,,,,,,,,,,,,,,,
,,673493f39318451e1c97abac,2026-03-17_12h40.43.538,kallum_motion_pilot_GIST_update_2,2026.1.1,Win32,59.88023952,673493f39318451e1c97abac,69b92ab4aef6dee357cd729a,69b92f44f6a3c7c88ab241f3,0.048,0.048,0,108,108,54,1,fourtwo,,,,,,,,,,,,,,,,,,,,,,,,,,,,,,,,,,,,,,,,,,,,,,,,,,,,,,,,,,,,,,,,,,,,,,,,,,,,,,,,,,,,,,,,,,,,,,,,,,,,,,,,,,,,,,,,,,,,,,,,,,,,,,,,,,,,,,,,,
,,673493f39318451e1c97abac,2026-03-17_12h40.43.538,kallum_motion_pilot_GIST_update_2,2026.1.1,Win32,59.88023952,673493f39318451e1c97abac,69b92ab4aef6dee357cd729a,69b92f44f6a3c7c88ab241f3,0.0482,0.0482,0,109,109,34,1,twoone,,,,,,,,,,,,,,,,,,,,,,,,,,,,,,,,,,,,,,,,,,,,,,,,,,,,,,,,,,,,,,,,,,,,,,,,,,,,,,,,,,,,,,,,,,,,,,,,,,,,,,,,,,,,,,,,,,,,,,,,,,,,,,,,,,,,,,,,,
,,673493f39318451e1c97abac,2026-03-17_12h40.43.538,kallum_motion_pilot_GIST_update_2,2026.1.1,Win32,59.88023952,673493f39318451e1c97abac,69b92ab4aef6dee357cd729a,69b92f44f6a3c7c88ab241f3,0.0482,0.0482,0,110,110,44,1,threeone,,,,,,,,,,,,,,,,,,,,,,,,,,,,,,,,,,,,,,,,,,,,,,,,,,,,,,,,,,,,,,,,,,,,,,,,,,,,,,,,,,,,,,,,,,,,,,,,,,,,,,,,,,,,,,,,,,,,,,,,,,,,,,,,,,,,,,,,,
,,673493f39318451e1c97abac,2026-03-17_12h40.43.538,kallum_motion_pilot_GIST_update_2,2026.1.1,Win32,59.88023952,673493f39318451e1c97abac,69b92ab4aef6dee357cd729a,69b92f44f6a3c7c88ab241f3,0.0483,0.0483,0,111,111,141,1,seveneight,,,,,,,,,,,,,,,,,,,,,,,,,,,,,,,,,,,,,,,,,,,,,,,,,,,,,,,,,,,,,,,,,,,,,,,,,,,,,,,,,,,,,,,,,,,,,,,,,,,,,,,,,,,,,,,,,,,,,,,,,,,,,,,,,,,,,,,,,
,,673493f39318451e1c97abac,2026-03-17_12h40.43.538,kallum_motion_pilot_GIST_update_2,2026.1.1,Win32,59.88023952,673493f39318451e1c97abac,69b92ab4aef6dee357cd729a,69b92f44f6a3c7c88ab241f3,0.0485,0.0485,0,112,112,94,1,eightsix,,,,,,,,,,,,,,,,,,,,,,,,,,,,,,,,,,,,,,,,,,,,,,,,,,,,,,,,,,,,,,,,,,,,,,,,,,,,,,,,,,,,,,,,,,,,,,,,,,,,,,,,,,,,,,,,,,,,,,,,,,,,,,,,,,,,,,,,,
,,673493f39318451e1c97abac,2026-03-17_12h40.43.538,kallum_motion_pilot_GIST_update_2,2026.1.1,Win32,59.88023952,673493f39318451e1c97abac,69b92ab4aef6dee357cd729a,69b92f44f6a3c7c88ab241f3,0.0486,0.0486,0,113,113,145,1,fiveseven,,,,,,,,,,,,,,,,,,,,,,,,,,,,,,,,,,,,,,,,,,,,,,,,,,,,,,,,,,,,,,,,,,,,,,,,,,,,,,,,,,,,,,,,,,,,,,,,,,,,,,,,,,,,,,,,,,,,,,,,,,,,,,,,,,,,,,,,,
,,673493f39318451e1c97abac,2026-03-17_12h40.43.538,kallum_motion_pilot_GIST_update_2,2026.1.1,Win32,59.88023952,673493f39318451e1c97abac,69b92ab4aef6dee357cd729a,69b92f44f6a3c7c88ab241f3,0.0487,0.0487,0,114,114,120,1,fivesix,,,,,,,,,,,,,,,,,,,,,,,,,,,,,,,,,,,,,,,,,,,,,,,,,,,,,,,,,,,,,,,,,,,,,,,,,,,,,,,,,,,,,,,,,,,,,,,,,,,,,,,,,,,,,,,,,,,,,,,,,,,,,,,,,,,,,,,,,
,,673493f39318451e1c97abac,2026-03-17_12h40.43.538,kallum_motion_pilot_GIST_update_2,2026.1.1,Win32,59.88023952,673493f39318451e1c97abac,69b92ab4aef6dee357cd729a,69b92f44f6a3c7c88ab241f3,0.0488,0.0488,0,115,115,58,1,twoone,,,,,,,,,,,,,,,,,,,,,,,,,,,,,,,,,,,,,,,,,,,,,,,,,,,,,,,,,,,,,,,,,,,,,,,,,,,,,,,,,,,,,,,,,,,,,,,,,,,,,,,,,,,,,,,,,,,,,,,,,,,,,,,,,,,,,,,,,
,,673493f39318451e1c97abac,2026-03-17_12h40.43.538,kallum_motion_pilot_GIST_update_2,2026.1.1,Win32,59.88023952,673493f39318451e1c97abac,69b92ab4aef6dee357cd729a,69b92f44f6a3c7c88ab241f3,0.0488,0.0489,0,116,116,136,1,fivesix,,,,,,,,,,,,,,,,,,,,,,,,,,,,,,,,,,,,,,,,,,,,,,,,,,,,,,,,,,,,,,,,,,,,,,,,,,,,,,,,,,,,,,,,,,,,,,,,,,,,,,,,,,,,,,,,,,,,,,,,,,,,,,,,,,,,,,,,,
,,673493f39318451e1c97abac,2026-03-17_12h40.43.538,kallum_motion_pilot_GIST_update_2,2026.1.1,Win32,59.88023952,673493f39318451e1c97abac,69b92ab4aef6dee357cd729a,69b92f44f6a3c7c88ab241f3,0.049,0.049,0,117,117,81,1,fiveseven,,,,,,,,,,,,,,,,,,,,,,,,,,,,,,,,,,,,,,,,,,,,,,,,,,,,,,,,,,,,,,,,,,,,,,,,,,,,,,,,,,,,,,,,,,,,,,,,,,,,,,,,,,,,,,,,,,,,,,,,,,,,,,,,,,,,,,,,,
,,673493f39318451e1c97abac,2026-03-17_12h40.43.538,kallum_motion_pilot_GIST_update_2,2026.1.1,Win32,59.88023952,673493f39318451e1c97abac,69b92ab4aef6dee357cd729a,69b92f44f6a3c7c88ab241f3,0.0491,0.0491,0,118,118,17,1,onethree,,,,,,,,,,,,,,,,,,,,,,,,,,,,,,,,,,,,,,,,,,,,,,,,,,,,,,,,,,,,,,,,,,,,,,,,,,,,,,,,,,,,,,,,,,,,,,,,,,,,,,,,,,,,,,,,,,,,,,,,,,,,,,,,,,,,,,,,,
,,673493f39318451e1c97abac,2026-03-17_12h40.43.538,kallum_motion_pilot_GIST_update_2,2026.1.1,Win32,59.88023952,673493f39318451e1c97abac,69b92ab4aef6dee357cd729a,69b92f44f6a3c7c88ab241f3,0.0492,0.0492,0,119,119,26,1,twoone,,,,,,,,,,,,,,,,,,,,,,,,,,,,,,,,,,,,,,,,,,,,,,,,,,,,,,,,,,,,,,,,,,,,,,,,,,,,,,,,,,,,,,,,,,,,,,,,,,,,,,,,,,,,,,,,,,,,,,,,,,,,,,,,,,,,,,,,,
,,673493f39318451e1c97abac,2026-03-17_12h40.43.538,kallum_motion_pilot_GIST_update_2,2026.1.1,Win32,59.88023952,673493f39318451e1c97abac,69b92ab4aef6dee357cd729a,69b92f44f6a3c7c88ab241f3,0.0494,0.0494,0,120,120,146,1,sixfive,,,,,,,,,,,,,,,,,,,,,,,,,,,,,,,,,,,,,,,,,,,,,,,,,,,,,,,,,,,,,,,,,,,,,,,,,,,,,,,,,,,,,,,,,,,,,,,,,,,,,,,,,,,,,,,,,,,,,,,,,,,,,,,,,,,,,,,,,
,,673493f39318451e1c97abac,2026-03-17_12h40.43.538,kallum_motion_pilot_GIST_update_2,2026.1.1,Win32,59.88023952,673493f39318451e1c97abac,69b92ab4aef6dee357cd729a,69b92f44f6a3c7c88ab241f3,0.0495,0.0495,0,121,121,40,1,onetwo,,,,,,,,,,,,,,,,,,,,,,,,,,,,,,,,,,,,,,,,,,,,,,,,,,,,,,,,,,,,,,,,,,,,,,,,,,,,,,,,,,,,,,,,,,,,,,,,,,,,,,,,,,,,,,,,,,,,,,,,,,,,,,,,,,,,,,,,,
,,673493f39318451e1c97abac,2026-03-17_12h40.43.538,kallum_motion_pilot_GIST_update_2,2026.1.1,Win32,59.88023952,673493f39318451e1c97abac,69b92ab4aef6dee357cd729a,69b92f44f6a3c7c88ab241f3,0.0497,0.0497,0,122,122,88,1,fivesix,,,,,,,,,,,,,,,,,,,,,,,,,,,,,,,,,,,,,,,,,,,,,,,,,,,,,,,,,,,,,,,,,,,,,,,,,,,,,,,,,,,,,,,,,,,,,,,,,,,,,,,,,,,,,,,,,,,,,,,,,,,,,,,,,,,,,,,,,
,,673493f39318451e1c97abac,2026-03-17_12h40.43.538,kallum_motion_pilot_GIST_update_2,2026.1.1,Win32,59.88023952,673493f39318451e1c97abac,69b92ab4aef6dee357cd729a,69b92f44f6a3c7c88ab241f3,0.0499,0.0499,0,123,123,42,1,twoone,,,,,,,,,,,,,,,,,,,,,,,,,,,,,,,,,,,,,,,,,,,,,,,,,,,,,,,,,,,,,,,,,,,,,,,,,,,,,,,,,,,,,,,,,,,,,,,,,,,,,,,,,,,,,,,,,,,,,,,,,,,,,,,,,,,,,,,,,
,,673493f39318451e1c97abac,2026-03-17_12h40.43.538,kallum_motion_pilot_GIST_update_2,2026.1.1,Win32,59.88023952,673493f39318451e1c97abac,69b92ab4aef6dee357cd729a,69b92f44f6a3c7c88ab241f3,0.05,0.05,0,124,124,140,1,sevenfive,,,,,,,,,,,,,,,,,,,,,,,,,,,,,,,,,,,,,,,,,,,,,,,,,,,,,,,,,,,,,,,,,,,,,,,,,,,,,,,,,,,,,,,,,,,,,,,,,,,,,,,,,,,,,,,,,,,,,,,,,,,,,,,,,,,,,,,,,
,,673493f39318451e1c97abac,2026-03-17_12h40.43.538,kallum_motion_pilot_GIST_update_2,2026.1.1,Win32,59.88023952,673493f39318451e1c97abac,69b92ab4aef6dee357cd729a,69b92f44f6a3c7c88ab241f3,0.05,0.05,0,125,125,129,1,fiveseven,,,,,,,,,,,,,,,,,,,,,,,,,,,,,,,,,,,,,,,,,,,,,,,,,,,,,,,,,,,,,,,,,,,,,,,,,,,,,,,,,,,,,,,,,,,,,,,,,,,,,,,,,,,,,,,,,,,,,,,,,,,,,,,,,,,,,,,,,
,,673493f39318451e1c97abac,2026-03-17_12h40.43.538,kallum_motion_pilot_GIST_update_2,2026.1.1,Win32,59.88023952,673493f39318451e1c97abac,69b92ab4aef6dee357cd729a,69b92f44f6a3c7c88ab241f3,0.0504,0.0504,0,126,126,83,1,sixeight,,,,,,,,,,,,,,,,,,,,,,,,,,,,,,,,,,,,,,,,,,,,,,,,,,,,,,,,,,,,,,,,,,,,,,,,,,,,,,,,,,,,,,,,,,,,,,,,,,,,,,,,,,,,,,,,,,,,,,,,,,,,,,,,,,,,,,,,,
,,673493f39318451e1c97abac,2026-03-17_12h40.43.538,kallum_motion_pilot_GIST_update_2,2026.1.1,Win32,59.88023952,673493f39318451e1c97abac,69b92ab4aef6dee357cd729a,69b92f44f6a3c7c88ab241f3,0.0506,0.0506,0,127,127,48,1,onetwo,,,,,,,,,,,,,,,,,,,,,,,,,,,,,,,,,,,,,,,,,,,,,,,,,,,,,,,,,,,,,,,,,,,,,,,,,,,,,,,,,,,,,,,,,,,,,,,,,,,,,,,,,,,,,,,,,,,,,,,,,,,,,,,,,,,,,,,,,
,,673493f39318451e1c97abac,2026-03-17_12h40.43.538,kallum_motion_pilot_GIST_update_2,2026.1.1,Win32,59.88023952,673493f39318451e1c97abac,69b92ab4aef6dee357cd729a,69b92f44f6a3c7c88ab241f3,0.0506,0.0506,0,128,128,68,1,threeone,,,,,,,,,,,,,,,,,,,,,,,,,,,,,,,,,,,,,,,,,,,,,,,,,,,,,,,,,,,,,,,,,,,,,,,,,,,,,,,,,,,,,,,,,,,,,,,,,,,,,,,,,,,,,,,,,,,,,,,,,,,,,,,,,,,,,,,,,
,,673493f39318451e1c97abac,2026-03-17_12h40.43.538,kallum_motion_pilot_GIST_update_2,2026.1.1,Win32,59.88023952,673493f39318451e1c97abac,69b92ab4aef6dee357cd729a,69b92f44f6a3c7c88ab241f3,0.0506,0.0506,0,129,129,134,1,eightsix,,,,,,,,,,,,,,,,,,,,,,,,,,,,,,,,,,,,,,,,,,,,,,,,,,,,,,,,,,,,,,,,,,,,,,,,,,,,,,,,,,,,,,,,,,,,,,,,,,,,,,,,,,,,,,,,,,,,,,,,,,,,,,,,,,,,,,,,,
,,673493f39318451e1c97abac,2026-03-17_12h40.43.538,kallum_motion_pilot_GIST_update_2,2026.1.1,Win32,59.88023952,673493f39318451e1c97abac,69b92ab4aef6dee357cd729a,69b92f44f6a3c7c88ab241f3,0.0507,0.0507,0,130,130,150,1,eightsix,,,,,,,,,,,,,,,,,,,,,,,,,,,,,,,,,,,,,,,,,,,,,,,,,,,,,,,,,,,,,,,,,,,,,,,,,,,,,,,,,,,,,,,,,,,,,,,,,,,,,,,,,,,,,,,,,,,,,,,,,,,,,,,,,,,,,,,,,
,,673493f39318451e1c97abac,2026-03-17_12h40.43.538,kallum_motion_pilot_GIST_update_2,2026.1.1,Win32,59.88023952,673493f39318451e1c97abac,69b92ab4aef6dee357cd729a,69b92f44f6a3c7c88ab241f3,0.0508,0.0508,0,131,131,149,1,seveneight,,,,,,,,,,,,,,,,,,,,,,,,,,,,,,,,,,,,,,,,,,,,,,,,,,,,,,,,,,,,,,,,,,,,,,,,,,,,,,,,,,,,,,,,,,,,,,,,,,,,,,,,,,,,,,,,,,,,,,,,,,,,,,,,,,,,,,,,,
,,673493f39318451e1c97abac,2026-03-17_12h40.43.538,kallum_motion_pilot_GIST_update_2,2026.1.1,Win32,59.88023952,673493f39318451e1c97abac,69b92ab4aef6dee357cd729a,69b92f44f6a3c7c88ab241f3,0.0508,0.0508,0,132,132,63,1,fourthree,,,,,,,,,,,,,,,,,,,,,,,,,,,,,,,,,,,,,,,,,,,,,,,,,,,,,,,,,,,,,,,,,,,,,,,,,,,,,,,,,,,,,,,,,,,,,,,,,,,,,,,,,,,,,,,,,,,,,,,,,,,,,,,,,,,,,,,,,
,,673493f39318451e1c97abac,2026-03-17_12h40.43.538,kallum_motion_pilot_GIST_update_2,2026.1.1,Win32,59.88023952,673493f39318451e1c97abac,69b92ab4aef6dee357cd729a,69b92f44f6a3c7c88ab241f3,0.0509,0.0509,0,133,133,125,1,seveneight,,,,,,,,,,,,,,,,,,,,,,,,,,,,,,,,,,,,,,,,,,,,,,,,,,,,,,,,,,,,,,,,,,,,,,,,,,,,,,,,,,,,,,,,,,,,,,,,,,,,,,,,,,,,,,,,,,,,,,,,,,,,,,,,,,,,,,,,,
,,673493f39318451e1c97abac,2026-03-17_12h40.43.538,kallum_motion_pilot_GIST_update_2,2026.1.1,Win32,59.88023952,673493f39318451e1c97abac,69b92ab4aef6dee357cd729a,69b92f44f6a3c7c88ab241f3,0.051,0.051,0,134,134,158,1,eightsix,,,,,,,,,,,,,,,,,,,,,,,,,,,,,,,,,,,,,,,,,,,,,,,,,,,,,,,,,,,,,,,,,,,,,,,,,,,,,,,,,,,,,,,,,,,,,,,,,,,,,,,,,,,,,,,,,,,,,,,,,,,,,,,,,,,,,,,,,
,,673493f39318451e1c97abac,2026-03-17_12h40.43.538,kallum_motion_pilot_GIST_update_2,2026.1.1,Win32,59.88023952,673493f39318451e1c97abac,69b92ab4aef6dee357cd729a,69b92f44f6a3c7c88ab241f3,0.051,0.051,0,135,135,123,1,sixeight,,,,,,,,,,,,,,,,,,,,,,,,,,,,,,,,,,,,,,,,,,,,,,,,,,,,,,,,,,,,,,,,,,,,,,,,,,,,,,,,,,,,,,,,,,,,,,,,,,,,,,,,,,,,,,,,,,,,,,,,,,,,,,,,,,,,,,,,,
,,673493f39318451e1c97abac,2026-03-17_12h40.43.538,kallum_motion_pilot_GIST_update_2,2026.1.1,Win32,59.88023952,673493f39318451e1c97abac,69b92ab4aef6dee357cd729a,69b92f44f6a3c7c88ab241f3,0.0511,0.0511,0,136,136,101,1,seveneight,,,,,,,,,,,,,,,,,,,,,,,,,,,,,,,,,,,,,,,,,,,,,,,,,,,,,,,,,,,,,,,,,,,,,,,,,,,,,,,,,,,,,,,,,,,,,,,,,,,,,,,,,,,,,,,,,,,,,,,,,,,,,,,,,,,,,,,,,
,,673493f39318451e1c97abac,2026-03-17_12h40.43.538,kallum_motion_pilot_GIST_update_2,2026.1.1,Win32,59.88023952,673493f39318451e1c97abac,69b92ab4aef6dee357cd729a,69b92f44f6a3c7c88ab241f3,0.0511,0.0511,0,137,137,7,1,fourthree,,,,,,,,,,,,,,,,,,,,,,,,,,,,,,,,,,,,,,,,,,,,,,,,,,,,,,,,,,,,,,,,,,,,,,,,,,,,,,,,,,,,,,,,,,,,,,,,,,,,,,,,,,,,,,,,,,,,,,,,,,,,,,,,,,,,,,,,,
,,673493f39318451e1c97abac,2026-03-17_12h40.43.538,kallum_motion_pilot_GIST_update_2,2026.1.1,Win32,59.88023952,673493f39318451e1c97abac,69b92ab4aef6dee357cd729a,69b92f44f6a3c7c88ab241f3,0.0514,0.0514,0,138,138,124,1,sevenfive,,,,,,,,,,,,,,,,,,,,,,,,,,,,,,,,,,,,,,,,,,,,,,,,,,,,,,,,,,,,,,,,,,,,,,,,,,,,,,,,,,,,,,,,,,,,,,,,,,,,,,,,,,,,,,,,,,,,,,,,,,,,,,,,,,,,,,,,,
,,673493f39318451e1c97abac,2026-03-17_12h40.43.538,kallum_motion_pilot_GIST_update_2,2026.1.1,Win32,59.88023952,673493f39318451e1c97abac,69b92ab4aef6dee357cd729a,69b92f44f6a3c7c88ab241f3,0.0515,0.0515,0,139,139,96,1,fivesix,,,,,,,,,,,,,,,,,,,,,,,,,,,,,,,,,,,,,,,,,,,,,,,,,,,,,,,,,,,,,,,,,,,,,,,,,,,,,,,,,,,,,,,,,,,,,,,,,,,,,,,,,,,,,,,,,,,,,,,,,,,,,,,,,,,,,,,,,
,,673493f39318451e1c97abac,2026-03-17_12h40.43.538,kallum_motion_pilot_GIST_update_2,2026.1.1,Win32,59.88023952,673493f39318451e1c97abac,69b92ab4aef6dee357cd729a,69b92f44f6a3c7c88ab241f3,0.0516,0.0517,0,140,140,155,1,sixeight,,,,,,,,,,,,,,,,,,,,,,,,,,,,,,,,,,,,,,,,,,,,,,,,,,,,,,,,,,,,,,,,,,,,,,,,,,,,,,,,,,,,,,,,,,,,,,,,,,,,,,,,,,,,,,,,,,,,,,,,,,,,,,,,,,,,,,,,,
,,673493f39318451e1c97abac,2026-03-17_12h40.43.538,kallum_motion_pilot_GIST_update_2,2026.1.1,Win32,59.88023952,673493f39318451e1c97abac,69b92ab4aef6dee357cd729a,69b92f44f6a3c7c88ab241f3,0.0517,0.0517,0,141,141,85,1,seveneight,,,,,,,,,,,,,,,,,,,,,,,,,,,,,,,,,,,,,,,,,,,,,,,,,,,,,,,,,,,,,,,,,,,,,,,,,,,,,,,,,,,,,,,,,,,,,,,,,,,,,,,,,,,,,,,,,,,,,,,,,,,,,,,,,,,,,,,,,
,,673493f39318451e1c97abac,2026-03-17_12h40.43.538,kallum_motion_pilot_GIST_update_2,2026.1.1,Win32,59.88023952,673493f39318451e1c97abac,69b92ab4aef6dee357cd729a,69b92f44f6a3c7c88ab241f3,0.0519,0.0519,0,142,142,110,1,eightsix,,,,,,,,,,,,,,,,,,,,,,,,,,,,,,,,,,,,,,,,,,,,,,,,,,,,,,,,,,,,,,,,,,,,,,,,,,,,,,,,,,,,,,,,,,,,,,,,,,,,,,,,,,,,,,,,,,,,,,,,,,,,,,,,,,,,,,,,,
,,673493f39318451e1c97abac,2026-03-17_12h40.43.538,kallum_motion_pilot_GIST_update_2,2026.1.1,Win32,59.88023952,673493f39318451e1c97abac,69b92ab4aef6dee357cd729a,69b92f44f6a3c7c88ab241f3,0.0519,0.0519,0,143,143,60,1,threeone,,,,,,,,,,,,,,,,,,,,,,,,,,,,,,,,,,,,,,,,,,,,,,,,,,,,,,,,,,,,,,,,,,,,,,,,,,,,,,,,,,,,,,,,,,,,,,,,,,,,,,,,,,,,,,,,,,,,,,,,,,,,,,,,,,,,,,,,,
,,673493f39318451e1c97abac,2026-03-17_12h40.43.538,kallum_motion_pilot_GIST_update_2,2026.1.1,Win32,59.88023952,673493f39318451e1c97abac,69b92ab4aef6dee357cd729a,69b92f44f6a3c7c88ab241f3,0.052,0.052,0,144,144,74,1,twoone,,,,,,,,,,,,,,,,,,,,,,,,,,,,,,,,,,,,,,,,,,,,,,,,,,,,,,,,,,,,,,,,,,,,,,,,,,,,,,,,,,,,,,,,,,,,,,,,,,,,,,,,,,,,,,,,,,,,,,,,,,,,,,,,,,,,,,,,,
,,673493f39318451e1c97abac,2026-03-17_12h40.43.538,kallum_motion_pilot_GIST_update_2,2026.1.1,Win32,59.88023952,673493f39318451e1c97abac,69b92ab4aef6dee357cd729a,69b92f44f6a3c7c88ab241f3,0.0521,0.0521,0,145,145,36,1,threeone,,,,,,,,,,,,,,,,,,,,,,,,,,,,,,,,,,,,,,,,,,,,,,,,,,,,,,,,,,,,,,,,,,,,,,,,,,,,,,,,,,,,,,,,,,,,,,,,,,,,,,,,,,,,,,,,,,,,,,,,,,,,,,,,,,,,,,,,,
,,673493f39318451e1c97abac,2026-03-17_12h40.43.538,kallum_motion_pilot_GIST_update_2,2026.1.1,Win32,59.88023952,673493f39318451e1c97abac,69b92ab4aef6dee357cd729a,69b92f44f6a3c7c88ab241f3,0.0523,0.0523,0,146,146,106,1,sixfive,,,,,,,,,,,,,,,,,,,,,,,,,,,,,,,,,,,,,,,,,,,,,,,,,,,,,,,,,,,,,,,,,,,,,,,,,,,,,,,,,,,,,,,,,,,,,,,,,,,,,,,,,,,,,,,,,,,,,,,,,,,,,,,,,,,,,,,,,
,,673493f39318451e1c97abac,2026-03-17_12h40.43.538,kallum_motion_pilot_GIST_update_2,2026.1.1,Win32,59.88023952,673493f39318451e1c97abac,69b92ab4aef6dee357cd729a,69b92f44f6a3c7c88ab241f3,0.0523,0.0523,0,147,147,23,1,fourthree,,,,,,,,,,,,,,,,,,,,,,,,,,,,,,,,,,,,,,,,,,,,,,,,,,,,,,,,,,,,,,,,,,,,,,,,,,,,,,,,,,,,,,,,,,,,,,,,,,,,,,,,,,,,,,,,,,,,,,,,,,,,,,,,,,,,,,,,,
,,673493f39318451e1c97abac,2026-03-17_12h40.43.538,kallum_motion_pilot_GIST_update_2,2026.1.1,Win32,59.88023952,673493f39318451e1c97abac,69b92ab4aef6dee357cd729a,69b92f44f6a3c7c88ab241f3,0.0525,0.0525,0,148,148,137,1,fiveseven,,,,,,,,,,,,,,,,,,,,,,,,,,,,,,,,,,,,,,,,,,,,,,,,,,,,,,,,,,,,,,,,,,,,,,,,,,,,,,,,,,,,,,,,,,,,,,,,,,,,,,,,,,,,,,,,,,,,,,,,,,,,,,,,,,,,,,,,,
,,673493f39318451e1c97abac,2026-03-17_12h40.43.538,kallum_motion_pilot_GIST_update_2,2026.1.1,Win32,59.88023952,673493f39318451e1c97abac,69b92ab4aef6dee357cd729a,69b92f44f6a3c7c88ab241f3,0.0526,0.0526,0,149,149,119,1,eightseven,,,,,,,,,,,,,,,,,,,,,,,,,,,,,,,,,,,,,,,,,,,,,,,,,,,,,,,,,,,,,,,,,,,,,,,,,,,,,,,,,,,,,,,,,,,,,,,,,,,,,,,,,,,,,,,,,,,,,,,,,,,,,,,,,,,,,,,,,
,,673493f39318451e1c97abac,2026-03-17_12h40.43.538,kallum_motion_pilot_GIST_update_2,2026.1.1,Win32,59.88023952,673493f39318451e1c97abac,69b92ab4aef6dee357cd729a,69b92f44f6a3c7c88ab241f3,0.0527,0.0527,0,150,150,38,1,fourtwo,,,,,,,,,,,,,,,,,,,,,,,,,,,,,,,,,,,,,,,,,,,,,,,,,,,,,,,,,,,,,,,,,,,,,,,,,,,,,,,,,,,,,,,,,,,,,,,,,,,,,,,,,,,,,,,,,,,,,,,,,,,,,,,,,,,,,,,,,
,,673493f39318451e1c97abac,2026-03-17_12h40.43.538,kallum_motion_pilot_GIST_update_2,2026.1.1,Win32,59.88023952,673493f39318451e1c97abac,69b92ab4aef6dee357cd729a,69b92f44f6a3c7c88ab241f3,0.0528,0.0528,0,151,151,121,1,fiveseven,,,,,,,,,,,,,,,,,,,,,,,,,,,,,,,,,,,,,,,,,,,,,,,,,,,,,,,,,,,,,,,,,,,,,,,,,,,,,,,,,,,,,,,,,,,,,,,,,,,,,,,,,,,,,,,,,,,,,,,,,,,,,,,,,,,,,,,,,
,,673493f39318451e1c97abac,2026-03-17_12h40.43.538,kallum_motion_pilot_GIST_update_2,2026.1.1,Win32,59.88023952,673493f39318451e1c97abac,69b92ab4aef6dee357cd729a,69b92f44f6a3c7c88ab241f3,0.0529,0.0529,0,152,152,4,1,threeone,,,,,,,,,,,,,,,,,,,,,,,,,,,,,,,,,,,,,,,,,,,,,,,,,,,,,,,,,,,,,,,,,,,,,,,,,,,,,,,,,,,,,,,,,,,,,,,,,,,,,,,,,,,,,,,,,,,,,,,,,,,,,,,,,,,,,,,,,
,,673493f39318451e1c97abac,2026-03-17_12h40.43.538,kallum_motion_pilot_GIST_update_2,2026.1.1,Win32,59.88023952,673493f39318451e1c97abac,69b92ab4aef6dee357cd729a,69b92f44f6a3c7c88ab241f3,0.053,0.053,0,153,153,84,1,sevenfive,,,,,,,,,,,,,,,,,,,,,,,,,,,,,,,,,,,,,,,,,,,,,,,,,,,,,,,,,,,,,,,,,,,,,,,,,,,,,,,,,,,,,,,,,,,,,,,,,,,,,,,,,,,,,,,,,,,,,,,,,,,,,,,,,,,,,,,,,
,,673493f39318451e1c97abac,2026-03-17_12h40.43.538,kallum_motion_pilot_GIST_update_2,2026.1.1,Win32,59.88023952,673493f39318451e1c97abac,69b92ab4aef6dee357cd729a,69b92f44f6a3c7c88ab241f3,0.0532,0.0532,0,154,154,128,1,fivesix,,,,,,,,,,,,,,,,,,,,,,,,,,,,,,,,,,,,,,,,,,,,,,,,,,,,,,,,,,,,,,,,,,,,,,,,,,,,,,,,,,,,,,,,,,,,,,,,,,,,,,,,,,,,,,,,,,,,,,,,,,,,,,,,,,,,,,,,,
,,673493f39318451e1c97abac,2026-03-17_12h40.43.538,kallum_motion_pilot_GIST_update_2,2026.1.1,Win32,59.88023952,673493f39318451e1c97abac,69b92ab4aef6dee357cd729a,69b92f44f6a3c7c88ab241f3,0.0532,0.0532,0,155,155,111,1,eightseven,,,,,,,,,,,,,,,,,,,,,,,,,,,,,,,,,,,,,,,,,,,,,,,,,,,,,,,,,,,,,,,,,,,,,,,,,,,,,,,,,,,,,,,,,,,,,,,,,,,,,,,,,,,,,,,,,,,,,,,,,,,,,,,,,,,,,,,,,
,,673493f39318451e1c97abac,2026-03-17_12h40.43.538,kallum_motion_pilot_GIST_update_2,2026.1.1,Win32,59.88023952,673493f39318451e1c97abac,69b92ab4aef6dee357cd729a,69b92f44f6a3c7c88ab241f3,0.0533,0.0533,0,156,156,55,1,fourthree,,,,,,,,,,,,,,,,,,,,,,,,,,,,,,,,,,,,,,,,,,,,,,,,,,,,,,,,,,,,,,,,,,,,,,,,,,,,,,,,,,,,,,,,,,,,,,,,,,,,,,,,,,,,,,,,,,,,,,,,,,,,,,,,,,,,,,,,,
,,673493f39318451e1c97abac,2026-03-17_12h40.43.538,kallum_motion_pilot_GIST_update_2,2026.1.1,Win32,59.88023952,673493f39318451e1c97abac,69b92ab4aef6dee357cd729a,69b92f44f6a3c7c88ab241f3,0.0535,0.0535,0,157,157,105,1,fiveseven,,,,,,,,,,,,,,,,,,,,,,,,,,,,,,,,,,,,,,,,,,,,,,,,,,,,,,,,,,,,,,,,,,,,,,,,,,,,,,,,,,,,,,,,,,,,,,,,,,,,,,,,,,,,,,,,,,,,,,,,,,,,,,,,,,,,,,,,,
,,673493f39318451e1c97abac,2026-03-17_12h40.43.538,kallum_motion_pilot_GIST_update_2,2026.1.1,Win32,59.88023952,673493f39318451e1c97abac,69b92ab4aef6dee357cd729a,69b92f44f6a3c7c88ab241f3,0.0536,0.0536,0,158,158,108,1,sevenfive,,,,,,,,,,,,,,,,,,,,,,,,,,,,,,,,,,,,,,,,,,,,,,,,,,,,,,,,,,,,,,,,,,,,,,,,,,,,,,,,,,,,,,,,,,,,,,,,,,,,,,,,,,,,,,,,,,,,,,,,,,,,,,,,,,,,,,,,,
,,673493f39318451e1c97abac,2026-03-17_12h40.43.538,kallum_motion_pilot_GIST_update_2,2026.1.1,Win32,59.88023952,673493f39318451e1c97abac,69b92ab4aef6dee357cd729a,69b92f44f6a3c7c88ab241f3,0.0537,0.0537,0,159,159,39,1,fourthree,,,,,,,,,,,,,,,,,,,,,,,,,,,,,,,,,,,,,,,,,,,,,,,,,,,,,,,,,,,,,,,,,,,,,,,,,,,,,,,,,,,,,,,,,,,,,,,,,,,,,,,,,,,,,,,,,,,,,,,,,,,,,,,,,,,,,,,,,
,,673493f39318451e1c97abac,2026-03-17_12h40.43.538,kallum_motion_pilot_GIST_update_2,2026.1.1,Win32,59.88023952,673493f39318451e1c97abac,69b92ab4aef6dee357cd729a,69b92f44f6a3c7c88ab241f3,0.0539,0.0539,0,160,160,27,1,twofour,,,,,,,,,,,,,,,,,,,,,,,,,,,,,,,,,,,,,,,,,,,,,,,,,,,,,,,,,,,,,,,,,,,,,,,,,,,,,,,,,,,,,,,,,,,,,,,,,,,,,,,,,,,,,,,,,,,,,,,,,,,,,,,,,,,,,,,,,
,,673493f39318451e1c97abac,2026-03-17_12h40.43.538,kallum_motion_pilot_GIST_update_2,2026.1.1,Win32,59.88023952,673493f39318451e1c97abac,69b92ab4aef6dee357cd729a,69b92f44f6a3c7c88ab241f3,0.0539,0.0539,0,161,161,22,1,fourtwo,,,,,,,,,,,,,,,,,,,,,,,,,,,,,,,,,,,,,,,,,,,,,,,,,,,,,,,,,,,,,,,,,,,,,,,,,,,,,,,,,,,,,,,,,,,,,,,,,,,,,,,,,,,,,,,,,,,,,,,,,,,,,,,,,,,,,,,,,
,,673493f39318451e1c97abac,2026-03-17_12h40.43.538,kallum_motion_pilot_GIST_update_2,2026.1.1,Win32,59.88023952,673493f39318451e1c97abac,69b92ab4aef6dee357cd729a,69b92f44f6a3c7c88ab241f3,0.0542,0.0542,1,0,162,102,1,eightsix,,,,,,,,,,,,,,,,,,,,,,,,,,,,,,,,,,,,,,,,,,,,,,,,,,,,,,,,,,,,,,,,,,,,,,,,,,,,,,,,,,,,,,,,,,,,,,,,,,,,,,,,,,,,,,,,,,,,,,,,,,,,,,,,,,,,,,,,,
,,673493f39318451e1c97abac,2026-03-17_12h40.43.538,kallum_motion_pilot_GIST_update_2,2026.1.1,Win32,59.88023952,673493f39318451e1c97abac,69b92ab4aef6dee357cd729a,69b92f44f6a3c7c88ab241f3,0.0543,0.0543,1,1,163,57,1,onethree,,,,,,,,,,,,,,,,,,,,,,,,,,,,,,,,,,,,,,,,,,,,,,,,,,,,,,,,,,,,,,,,,,,,,,,,,,,,,,,,,,,,,,,,,,,,,,,,,,,,,,,,,,,,,,,,,,,,,,,,,,,,,,,,,,,,,,,,,
,,673493f39318451e1c97abac,2026-03-17_12h40.43.538,kallum_motion_pilot_GIST_update_2,2026.1.1,Win32,59.88023952,673493f39318451e1c97abac,69b92ab4aef6dee357cd729a,69b92f44f6a3c7c88ab241f3,0.0545,0.0545,1,2,164,6,1,fourtwo,,,,,,,,,,,,,,,,,,,,,,,,,,,,,,,,,,,,,,,,,,,,,,,,,,,,,,,,,,,,,,,,,,,,,,,,,,,,,,,,,,,,,,,,,,,,,,,,,,,,,,,,,,,,,,,,,,,,,,,,,,,,,,,,,,,,,,,,,
,,673493f39318451e1c97abac,2026-03-17_12h40.43.538,kallum_motion_pilot_GIST_update_2,2026.1.1,Win32,59.88023952,673493f39318451e1c97abac,69b92ab4aef6dee357cd729a,69b92f44f6a3c7c88ab241f3,0.0547,0.0547,1,3,165,50,1,twoone,,,,,,,,,,,,,,,,,,,,,,,,,,,,,,,,,,,,,,,,,,,,,,,,,,,,,,,,,,,,,,,,,,,,,,,,,,,,,,,,,,,,,,,,,,,,,,,,,,,,,,,,,,,,,,,,,,,,,,,,,,,,,,,,,,,,,,,,,
,,673493f39318451e1c97abac,2026-03-17_12h40.43.538,kallum_motion_pilot_GIST_update_2,2026.1.1,Win32,59.88023952,673493f39318451e1c97abac,69b92ab4aef6dee357cd729a,69b92f44f6a3c7c88ab241f3,0.0548,0.0548,1,4,166,151,1,eightseven,,,,,,,,,,,,,,,,,,,,,,,,,,,,,,,,,,,,,,,,,,,,,,,,,,,,,,,,,,,,,,,,,,,,,,,,,,,,,,,,,,,,,,,,,,,,,,,,,,,,,,,,,,,,,,,,,,,,,,,,,,,,,,,,,,,,,,,,,
,,673493f39318451e1c97abac,2026-03-17_12h40.43.538,kallum_motion_pilot_GIST_update_2,2026.1.1,Win32,59.88023952,673493f39318451e1c97abac,69b92ab4aef6dee357cd729a,69b92f44f6a3c7c88ab241f3,0.055,0.055,1,5,167,106,1,sixfive,,,,,,,,,,,,,,,,,,,,,,,,,,,,,,,,,,,,,,,,,,,,,,,,,,,,,,,,,,,,,,,,,,,,,,,,,,,,,,,,,,,,,,,,,,,,,,,,,,,,,,,,,,,,,,,,,,,,,,,,,,,,,,,,,,,,,,,,,
,,673493f39318451e1c97abac,2026-03-17_12h40.43.538,kallum_motion_pilot_GIST_update_2,2026.1.1,Win32,59.88023952,673493f39318451e1c97abac,69b92ab4aef6dee357cd729a,69b92f44f6a3c7c88ab241f3,0.0551,0.0551,1,6,168,23,1,fourthree,,,,,,,,,,,,,,,,,,,,,,,,,,,,,,,,,,,,,,,,,,,,,,,,,,,,,,,,,,,,,,,,,,,,,,,,,,,,,,,,,,,,,,,,,,,,,,,,,,,,,,,,,,,,,,,,,,,,,,,,,,,,,,,,,,,,,,,,,
,,673493f39318451e1c97abac,2026-03-17_12h40.43.538,kallum_motion_pilot_GIST_update_2,2026.1.1,Win32,59.88023952,673493f39318451e1c97abac,69b92ab4aef6dee357cd729a,69b92f44f6a3c7c88ab241f3,0.0553,0.0553,1,7,169,142,1,eightsix,,,,,,,,,,,,,,,,,,,,,,,,,,,,,,,,,,,,,,,,,,,,,,,,,,,,,,,,,,,,,,,,,,,,,,,,,,,,,,,,,,,,,,,,,,,,,,,,,,,,,,,,,,,,,,,,,,,,,,,,,,,,,,,,,,,,,,,,,
,,673493f39318451e1c97abac,2026-03-17_12h40.43.538,kallum_motion_pilot_GIST_update_2,2026.1.1,Win32,59.88023952,673493f39318451e1c97abac,69b92ab4aef6dee357cd729a,69b92f44f6a3c7c88ab241f3,0.0554,0.0554,1,8,170,0,1,onetwo,,,,,,,,,,,,,,,,,,,,,,,,,,,,,,,,,,,,,,,,,,,,,,,,,,,,,,,,,,,,,,,,,,,,,,,,,,,,,,,,,,,,,,,,,,,,,,,,,,,,,,,,,,,,,,,,,,,,,,,,,,,,,,,,,,,,,,,,,
,,673493f39318451e1c97abac,2026-03-17_12h40.43.538,kallum_motion_pilot_GIST_update_2,2026.1.1,Win32,59.88023952,673493f39318451e1c97abac,69b92ab4aef6dee357cd729a,69b92f44f6a3c7c88ab241f3,0.0555,0.0555,1,9,171,48,1,onetwo,,,,,,,,,,,,,,,,,,,,,,,,,,,,,,,,,,,,,,,,,,,,,,,,,,,,,,,,,,,,,,,,,,,,,,,,,,,,,,,,,,,,,,,,,,,,,,,,,,,,,,,,,,,,,,,,,,,,,,,,,,,,,,,,,,,,,,,,,
,,673493f39318451e1c97abac,2026-03-17_12h40.43.538,kallum_motion_pilot_GIST_update_2,2026.1.1,Win32,59.88023952,673493f39318451e1c97abac,69b92ab4aef6dee357cd729a,69b92f44f6a3c7c88ab241f3,0.0555,0.0555,1,10,172,7,1,fourthree,,,,,,,,,,,,,,,,,,,,,,,,,,,,,,,,,,,,,,,,,,,,,,,,,,,,,,,,,,,,,,,,,,,,,,,,,,,,,,,,,,,,,,,,,,,,,,,,,,,,,,,,,,,,,,,,,,,,,,,,,,,,,,,,,,,,,,,,,
,,673493f39318451e1c97abac,2026-03-17_12h40.43.538,kallum_motion_pilot_GIST_update_2,2026.1.1,Win32,59.88023952,673493f39318451e1c97abac,69b92ab4aef6dee357cd729a,69b92f44f6a3c7c88ab241f3,0.0556,0.0556,1,11,173,117,1,seveneight,,,,,,,,,,,,,,,,,,,,,,,,,,,,,,,,,,,,,,,,,,,,,,,,,,,,,,,,,,,,,,,,,,,,,,,,,,,,,,,,,,,,,,,,,,,,,,,,,,,,,,,,,,,,,,,,,,,,,,,,,,,,,,,,,,,,,,,,,
,,673493f39318451e1c97abac,2026-03-17_12h40.43.538,kallum_motion_pilot_GIST_update_2,2026.1.1,Win32,59.88023952,673493f39318451e1c97abac,69b92ab4aef6dee357cd729a,69b92f44f6a3c7c88ab241f3,0.0557,0.0557,1,12,174,66,1,twoone,,,,,,,,,,,,,,,,,,,,,,,,,,,,,,,,,,,,,,,,,,,,,,,,,,,,,,,,,,,,,,,,,,,,,,,,,,,,,,,,,,,,,,,,,,,,,,,,,,,,,,,,,,,,,,,,,,,,,,,,,,,,,,,,,,,,,,,,,
,,673493f39318451e1c97abac,2026-03-17_12h40.43.538,kallum_motion_pilot_GIST_update_2,2026.1.1,Win32,59.88023952,673493f39318451e1c97abac,69b92ab4aef6dee357cd729a,69b92f44f6a3c7c88ab241f3,0.0558,0.0558,1,13,175,157,1,seveneight,,,,,,,,,,,,,,,,,,,,,,,,,,,,,,,,,,,,,,,,,,,,,,,,,,,,,,,,,,,,,,,,,,,,,,,,,,,,,,,,,,,,,,,,,,,,,,,,,,,,,,,,,,,,,,,,,,,,,,,,,,,,,,,,,,,,,,,,,
,,673493f39318451e1c97abac,2026-03-17_12h40.43.538,kallum_motion_pilot_GIST_update_2,2026.1.1,Win32,59.88023952,673493f39318451e1c97abac,69b92ab4aef6dee357cd729a,69b92f44f6a3c7c88ab241f3,0.0559,0.0559,1,14,176,128,1,fivesix,,,,,,,,,,,,,,,,,,,,,,,,,,,,,,,,,,,,,,,,,,,,,,,,,,,,,,,,,,,,,,,,,,,,,,,,,,,,,,,,,,,,,,,,,,,,,,,,,,,,,,,,,,,,,,,,,,,,,,,,,,,,,,,,,,,,,,,,,
,,673493f39318451e1c97abac,2026-03-17_12h40.43.538,kallum_motion_pilot_GIST_update_2,2026.1.1,Win32,59.88023952,673493f39318451e1c97abac,69b92ab4aef6dee357cd729a,69b92f44f6a3c7c88ab241f3,0.0561,0.0561,1,15,177,4,1,threeone,,,,,,,,,,,,,,,,,,,,,,,,,,,,,,,,,,,,,,,,,,,,,,,,,,,,,,,,,,,,,,,,,,,,,,,,,,,,,,,,,,,,,,,,,,,,,,,,,,,,,,,,,,,,,,,,,,,,,,,,,,,,,,,,,,,,,,,,,
,,673493f39318451e1c97abac,2026-03-17_12h40.43.538,kallum_motion_pilot_GIST_update_2,2026.1.1,Win32,59.88023952,673493f39318451e1c97abac,69b92ab4aef6dee357cd729a,69b92f44f6a3c7c88ab241f3,0.0562,0.0562,1,16,178,14,1,fourtwo,,,,,,,,,,,,,,,,,,,,,,,,,,,,,,,,,,,,,,,,,,,,,,,,,,,,,,,,,,,,,,,,,,,,,,,,,,,,,,,,,,,,,,,,,,,,,,,,,,,,,,,,,,,,,,,,,,,,,,,,,,,,,,,,,,,,,,,,,
,,673493f39318451e1c97abac,2026-03-17_12h40.43.538,kallum_motion_pilot_GIST_update_2,2026.1.1,Win32,59.88023952,673493f39318451e1c97abac,69b92ab4aef6dee357cd729a,69b92f44f6a3c7c88ab241f3,0.0563,0.0563,1,17,179,3,1,twofour,,,,,,,,,,,,,,,,,,,,,,,,,,,,,,,,,,,,,,,,,,,,,,,,,,,,,,,,,,,,,,,,,,,,,,,,,,,,,,,,,,,,,,,,,,,,,,,,,,,,,,,,,,,,,,,,,,,,,,,,,,,,,,,,,,,,,,,,,
,,673493f39318451e1c97abac,2026-03-17_12h40.43.538,kallum_motion_pilot_GIST_update_2,2026.1.1,Win32,59.88023952,673493f39318451e1c97abac,69b92ab4aef6dee357cd729a,69b92f44f6a3c7c88ab241f3,0.0564,0.0564,1,18,180,73,1,onethree,,,,,,,,,,,,,,,,,,,,,,,,,,,,,,,,,,,,,,,,,,,,,,,,,,,,,,,,,,,,,,,,,,,,,,,,,,,,,,,,,,,,,,,,,,,,,,,,,,,,,,,,,,,,,,,,,,,,,,,,,,,,,,,,,,,,,,,,,
,,673493f39318451e1c97abac,2026-03-17_12h40.43.538,kallum_motion_pilot_GIST_update_2,2026.1.1,Win32,59.88023952,673493f39318451e1c97abac,69b92ab4aef6dee357cd729a,69b92f44f6a3c7c88ab241f3,0.0565,0.0565,1,19,181,22,1,fourtwo,,,,,,,,,,,,,,,,,,,,,,,,,,,,,,,,,,,,,,,,,,,,,,,,,,,,,,,,,,,,,,,,,,,,,,,,,,,,,,,,,,,,,,,,,,,,,,,,,,,,,,,,,,,,,,,,,,,,,,,,,,,,,,,,,,,,,,,,,
,,673493f39318451e1c97abac,2026-03-17_12h40.43.538,kallum_motion_pilot_GIST_update_2,2026.1.1,Win32,59.88023952,673493f39318451e1c97abac,69b92ab4aef6dee357cd729a,69b92f44f6a3c7c88ab241f3,0.0567,0.0567,1,20,182,39,1,fourthree,,,,,,,,,,,,,,,,,,,,,,,,,,,,,,,,,,,,,,,,,,,,,,,,,,,,,,,,,,,,,,,,,,,,,,,,,,,,,,,,,,,,,,,,,,,,,,,,,,,,,,,,,,,,,,,,,,,,,,,,,,,,,,,,,,,,,,,,,
,,673493f39318451e1c97abac,2026-03-17_12h40.43.538,kallum_motion_pilot_GIST_update_2,2026.1.1,Win32,59.88023952,673493f39318451e1c97abac,69b92ab4aef6dee357cd729a,69b92f44f6a3c7c88ab241f3,0.0568,0.0568,1,21,183,77,1,threefour,,,,,,,,,,,,,,,,,,,,,,,,,,,,,,,,,,,,,,,,,,,,,,,,,,,,,,,,,,,,,,,,,,,,,,,,,,,,,,,,,,,,,,,,,,,,,,,,,,,,,,,,,,,,,,,,,,,,,,,,,,,,,,,,,,,,,,,,,
,,673493f39318451e1c97abac,2026-03-17_12h40.43.538,kallum_motion_pilot_GIST_update_2,2026.1.1,Win32,59.88023952,673493f39318451e1c97abac,69b92ab4aef6dee357cd729a,69b92f44f6a3c7c88ab241f3,0.0569,0.0569,1,22,184,58,1,twoone,,,,,,,,,,,,,,,,,,,,,,,,,,,,,,,,,,,,,,,,,,,,,,,,,,,,,,,,,,,,,,,,,,,,,,,,,,,,,,,,,,,,,,,,,,,,,,,,,,,,,,,,,,,,,,,,,,,,,,,,,,,,,,,,,,,,,,,,,
,,673493f39318451e1c97abac,2026-03-17_12h40.43.538,kallum_motion_pilot_GIST_update_2,2026.1.1,Win32,59.88023952,673493f39318451e1c97abac,69b92ab4aef6dee357cd729a,69b92f44f6a3c7c88ab241f3,0.057,0.057,1,23,185,144,1,fivesix,,,,,,,,,,,,,,,,,,,,,,,,,,,,,,,,,,,,,,,,,,,,,,,,,,,,,,,,,,,,,,,,,,,,,,,,,,,,,,,,,,,,,,,,,,,,,,,,,,,,,,,,,,,,,,,,,,,,,,,,,,,,,,,,,,,,,,,,,
,,673493f39318451e1c97abac,2026-03-17_12h40.43.538,kallum_motion_pilot_GIST_update_2,2026.1.1,Win32,59.88023952,673493f39318451e1c97abac,69b92ab4aef6dee357cd729a,69b92f44f6a3c7c88ab241f3,0.0572,0.0572,1,24,186,161,1,fiveseven,,,,,,,,,,,,,,,,,,,,,,,,,,,,,,,,,,,,,,,,,,,,,,,,,,,,,,,,,,,,,,,,,,,,,,,,,,,,,,,,,,,,,,,,,,,,,,,,,,,,,,,,,,,,,,,,,,,,,,,,,,,,,,,,,,,,,,,,,
,,673493f39318451e1c97abac,2026-03-17_12h40.43.538,kallum_motion_pilot_GIST_update_2,2026.1.1,Win32,59.88023952,673493f39318451e1c97abac,69b92ab4aef6dee357cd729a,69b92f44f6a3c7c88ab241f3,0.0573,0.0573,1,25,187,90,1,sixfive,,,,,,,,,,,,,,,,,,,,,,,,,,,,,,,,,,,,,,,,,,,,,,,,,,,,,,,,,,,,,,,,,,,,,,,,,,,,,,,,,,,,,,,,,,,,,,,,,,,,,,,,,,,,,,,,,,,,,,,,,,,,,,,,,,,,,,,,,
,,673493f39318451e1c97abac,2026-03-17_12h40.43.538,kallum_motion_pilot_GIST_update_2,2026.1.1,Win32,59.88023952,673493f39318451e1c97abac,69b92ab4aef6dee357cd729a,69b92f44f6a3c7c88ab241f3,0.0575,0.0575,1,26,188,11,1,twofour,,,,,,,,,,,,,,,,,,,,,,,,,,,,,,,,,,,,,,,,,,,,,,,,,,,,,,,,,,,,,,,,,,,,,,,,,,,,,,,,,,,,,,,,,,,,,,,,,,,,,,,,,,,,,,,,,,,,,,,,,,,,,,,,,,,,,,,,,
,,673493f39318451e1c97abac,2026-03-17_12h40.43.538,kallum_motion_pilot_GIST_update_2,2026.1.1,Win32,59.88023952,673493f39318451e1c97abac,69b92ab4aef6dee357cd729a,69b92f44f6a3c7c88ab241f3,0.0577,0.0577,1,27,189,132,1,sevenfive,,,,,,,,,,,,,,,,,,,,,,,,,,,,,,,,,,,,,,,,,,,,,,,,,,,,,,,,,,,,,,,,,,,,,,,,,,,,,,,,,,,,,,,,,,,,,,,,,,,,,,,,,,,,,,,,,,,,,,,,,,,,,,,,,,,,,,,,,
,,673493f39318451e1c97abac,2026-03-17_12h40.43.538,kallum_motion_pilot_GIST_update_2,2026.1.1,Win32,59.88023952,673493f39318451e1c97abac,69b92ab4aef6dee357cd729a,69b92f44f6a3c7c88ab241f3,0.0579,0.0579,1,28,190,74,1,twoone,,,,,,,,,,,,,,,,,,,,,,,,,,,,,,,,,,,,,,,,,,,,,,,,,,,,,,,,,,,,,,,,,,,,,,,,,,,,,,,,,,,,,,,,,,,,,,,,,,,,,,,,,,,,,,,,,,,,,,,,,,,,,,,,,,,,,,,,,
,,673493f39318451e1c97abac,2026-03-17_12h40.43.538,kallum_motion_pilot_GIST_update_2,2026.1.1,Win32,59.88023952,673493f39318451e1c97abac,69b92ab4aef6dee357cd729a,69b92f44f6a3c7c88ab241f3,0.058,0.058,1,29,191,126,1,eightsix,,,,,,,,,,,,,,,,,,,,,,,,,,,,,,,,,,,,,,,,,,,,,,,,,,,,,,,,,,,,,,,,,,,,,,,,,,,,,,,,,,,,,,,,,,,,,,,,,,,,,,,,,,,,,,,,,,,,,,,,,,,,,,,,,,,,,,,,,
,,673493f39318451e1c97abac,2026-03-17_12h40.43.538,kallum_motion_pilot_GIST_update_2,2026.1.1,Win32,59.88023952,673493f39318451e1c97abac,69b92ab4aef6dee357cd729a,69b92f44f6a3c7c88ab241f3,0.058,0.058,1,30,192,135,1,eightseven,,,,,,,,,,,,,,,,,,,,,,,,,,,,,,,,,,,,,,,,,,,,,,,,,,,,,,,,,,,,,,,,,,,,,,,,,,,,,,,,,,,,,,,,,,,,,,,,,,,,,,,,,,,,,,,,,,,,,,,,,,,,,,,,,,,,,,,,,
,,673493f39318451e1c97abac,2026-03-17_12h40.43.538,kallum_motion_pilot_GIST_update_2,2026.1.1,Win32,59.88023952,673493f39318451e1c97abac,69b92ab4aef6dee357cd729a,69b92f44f6a3c7c88ab241f3,0.0581,0.0581,1,31,193,99,1,sixeight,,,,,,,,,,,,,,,,,,,,,,,,,,,,,,,,,,,,,,,,,,,,,,,,,,,,,,,,,,,,,,,,,,,,,,,,,,,,,,,,,,,,,,,,,,,,,,,,,,,,,,,,,,,,,,,,,,,,,,,,,,,,,,,,,,,,,,,,,
,,673493f39318451e1c97abac,2026-03-17_12h40.43.538,kallum_motion_pilot_GIST_update_2,2026.1.1,Win32,59.88023952,673493f39318451e1c97abac,69b92ab4aef6dee357cd729a,69b92f44f6a3c7c88ab241f3,0.0584,0.0584,1,32,194,78,1,fourtwo,,,,,,,,,,,,,,,,,,,,,,,,,,,,,,,,,,,,,,,,,,,,,,,,,,,,,,,,,,,,,,,,,,,,,,,,,,,,,,,,,,,,,,,,,,,,,,,,,,,,,,,,,,,,,,,,,,,,,,,,,,,,,,,,,,,,,,,,,
,,673493f39318451e1c97abac,2026-03-17_12h40.43.538,kallum_motion_pilot_GIST_update_2,2026.1.1,Win32,59.88023952,673493f39318451e1c97abac,69b92ab4aef6dee357cd729a,69b92f44f6a3c7c88ab241f3,0.0586,0.0586,1,33,195,17,1,onethree,,,,,,,,,,,,,,,,,,,,,,,,,,,,,,,,,,,,,,,,,,,,,,,,,,,,,,,,,,,,,,,,,,,,,,,,,,,,,,,,,,,,,,,,,,,,,,,,,,,,,,,,,,,,,,,,,,,,,,,,,,,,,,,,,,,,,,,,,
,,673493f39318451e1c97abac,2026-03-17_12h40.43.538,kallum_motion_pilot_GIST_update_2,2026.1.1,Win32,59.88023952,673493f39318451e1c97abac,69b92ab4aef6dee357cd729a,69b92f44f6a3c7c88ab241f3,0.0588,0.0588,1,34,196,40,1,onetwo,,,,,,,,,,,,,,,,,,,,,,,,,,,,,,,,,,,,,,,,,,,,,,,,,,,,,,,,,,,,,,,,,,,,,,,,,,,,,,,,,,,,,,,,,,,,,,,,,,,,,,,,,,,,,,,,,,,,,,,,,,,,,,,,,,,,,,,,,
,,673493f39318451e1c97abac,2026-03-17_12h40.43.538,kallum_motion_pilot_GIST_update_2,2026.1.1,Win32,59.88023952,673493f39318451e1c97abac,69b92ab4aef6dee357cd729a,69b92f44f6a3c7c88ab241f3,0.0589,0.059,1,35,197,94,1,eightsix,,,,,,,,,,,,,,,,,,,,,,,,,,,,,,,,,,,,,,,,,,,,,,,,,,,,,,,,,,,,,,,,,,,,,,,,,,,,,,,,,,,,,,,,,,,,,,,,,,,,,,,,,,,,,,,,,,,,,,,,,,,,,,,,,,,,,,,,,
,,673493f39318451e1c97abac,2026-03-17_12h40.43.538,kallum_motion_pilot_GIST_update_2,2026.1.1,Win32,59.88023952,673493f39318451e1c97abac,69b92ab4aef6dee357cd729a,69b92f44f6a3c7c88ab241f3,0.059,0.059,1,36,198,69,1,threefour,,,,,,,,,,,,,,,,,,,,,,,,,,,,,,,,,,,,,,,,,,,,,,,,,,,,,,,,,,,,,,,,,,,,,,,,,,,,,,,,,,,,,,,,,,,,,,,,,,,,,,,,,,,,,,,,,,,,,,,,,,,,,,,,,,,,,,,,,
,,673493f39318451e1c97abac,2026-03-17_12h40.43.538,kallum_motion_pilot_GIST_update_2,2026.1.1,Win32,59.88023952,673493f39318451e1c97abac,69b92ab4aef6dee357cd729a,69b92f44f6a3c7c88ab241f3,0.0592,0.0592,1,37,199,149,1,seveneight,,,,,,,,,,,,,,,,,,,,,,,,,,,,,,,,,,,,,,,,,,,,,,,,,,,,,,,,,,,,,,,,,,,,,,,,,,,,,,,,,,,,,,,,,,,,,,,,,,,,,,,,,,,,,,,,,,,,,,,,,,,,,,,,,,,,,,,,,
,,673493f39318451e1c97abac,2026-03-17_12h40.43.538,kallum_motion_pilot_GIST_update_2,2026.1.1,Win32,59.88023952,673493f39318451e1c97abac,69b92ab4aef6dee357cd729a,69b92f44f6a3c7c88ab241f3,0.0593,0.0593,1,38,200,88,1,fivesix,,,,,,,,,,,,,,,,,,,,,,,,,,,,,,,,,,,,,,,,,,,,,,,,,,,,,,,,,,,,,,,,,,,,,,,,,,,,,,,,,,,,,,,,,,,,,,,,,,,,,,,,,,,,,,,,,,,,,,,,,,,,,,,,,,,,,,,,,
,,673493f39318451e1c97abac,2026-03-17_12h40.43.538,kallum_motion_pilot_GIST_update_2,2026.1.1,Win32,59.88023952,673493f39318451e1c97abac,69b92ab4aef6dee357cd729a,69b92f44f6a3c7c88ab241f3,0.0597,0.0597,1,39,201,43,1,twofour,,,,,,,,,,,,,,,,,,,,,,,,,,,,,,,,,,,,,,,,,,,,,,,,,,,,,,,,,,,,,,,,,,,,,,,,,,,,,,,,,,,,,,,,,,,,,,,,,,,,,,,,,,,,,,,,,,,,,,,,,,,,,,,,,,,,,,,,,
,,673493f39318451e1c97abac,2026-03-17_12h40.43.538,kallum_motion_pilot_GIST_update_2,2026.1.1,Win32,59.88023952,673493f39318451e1c97abac,69b92ab4aef6dee357cd729a,69b92f44f6a3c7c88ab241f3,0.0597,0.0597,1,40,202,54,1,fourtwo,,,,,,,,,,,,,,,,,,,,,,,,,,,,,,,,,,,,,,,,,,,,,,,,,,,,,,,,,,,,,,,,,,,,,,,,,,,,,,,,,,,,,,,,,,,,,,,,,,,,,,,,,,,,,,,,,,,,,,,,,,,,,,,,,,,,,,,,,
,,673493f39318451e1c97abac,2026-03-17_12h40.43.538,kallum_motion_pilot_GIST_update_2,2026.1.1,Win32,59.88023952,673493f39318451e1c97abac,69b92ab4aef6dee357cd729a,69b92f44f6a3c7c88ab241f3,0.0598,0.0598,1,41,203,30,1,fourtwo,,,,,,,,,,,,,,,,,,,,,,,,,,,,,,,,,,,,,,,,,,,,,,,,,,,,,,,,,,,,,,,,,,,,,,,,,,,,,,,,,,,,,,,,,,,,,,,,,,,,,,,,,,,,,,,,,,,,,,,,,,,,,,,,,,,,,,,,,
,,673493f39318451e1c97abac,2026-03-17_12h40.43.538,kallum_motion_pilot_GIST_update_2,2026.1.1,Win32,59.88023952,673493f39318451e1c97abac,69b92ab4aef6dee357cd729a,69b92f44f6a3c7c88ab241f3,0.0599,0.06,1,42,204,45,1,threefour,,,,,,,,,,,,,,,,,,,,,,,,,,,,,,,,,,,,,,,,,,,,,,,,,,,,,,,,,,,,,,,,,,,,,,,,,,,,,,,,,,,,,,,,,,,,,,,,,,,,,,,,,,,,,,,,,,,,,,,,,,,,,,,,,,,,,,,,,
,,673493f39318451e1c97abac,2026-03-17_12h40.43.538,kallum_motion_pilot_GIST_update_2,2026.1.1,Win32,59.88023952,673493f39318451e1c97abac,69b92ab4aef6dee357cd729a,69b92f44f6a3c7c88ab241f3,0.0602,0.0602,1,43,205,95,1,eightseven,,,,,,,,,,,,,,,,,,,,,,,,,,,,,,,,,,,,,,,,,,,,,,,,,,,,,,,,,,,,,,,,,,,,,,,,,,,,,,,,,,,,,,,,,,,,,,,,,,,,,,,,,,,,,,,,,,,,,,,,,,,,,,,,,,,,,,,,,
,,673493f39318451e1c97abac,2026-03-17_12h40.43.538,kallum_motion_pilot_GIST_update_2,2026.1.1,Win32,59.88023952,673493f39318451e1c97abac,69b92ab4aef6dee357cd729a,69b92f44f6a3c7c88ab241f3,0.0604,0.0604,1,44,206,112,1,fivesix,,,,,,,,,,,,,,,,,,,,,,,,,,,,,,,,,,,,,,,,,,,,,,,,,,,,,,,,,,,,,,,,,,,,,,,,,,,,,,,,,,,,,,,,,,,,,,,,,,,,,,,,,,,,,,,,,,,,,,,,,,,,,,,,,,,,,,,,,
,,673493f39318451e1c97abac,2026-03-17_12h40.43.538,kallum_motion_pilot_GIST_update_2,2026.1.1,Win32,59.88023952,673493f39318451e1c97abac,69b92ab4aef6dee357cd729a,69b92f44f6a3c7c88ab241f3,0.0605,0.0605,1,45,207,119,1,eightseven,,,,,,,,,,,,,,,,,,,,,,,,,,,,,,,,,,,,,,,,,,,,,,,,,,,,,,,,,,,,,,,,,,,,,,,,,,,,,,,,,,,,,,,,,,,,,,,,,,,,,,,,,,,,,,,,,,,,,,,,,,,,,,,,,,,,,,,,,
,,673493f39318451e1c97abac,2026-03-17_12h40.43.538,kallum_motion_pilot_GIST_update_2,2026.1.1,Win32,59.88023952,673493f39318451e1c97abac,69b92ab4aef6dee357cd729a,69b92f44f6a3c7c88ab241f3,0.0606,0.0606,1,46,208,124,1,sevenfive,,,,,,,,,,,,,,,,,,,,,,,,,,,,,,,,,,,,,,,,,,,,,,,,,,,,,,,,,,,,,,,,,,,,,,,,,,,,,,,,,,,,,,,,,,,,,,,,,,,,,,,,,,,,,,,,,,,,,,,,,,,,,,,,,,,,,,,,,
,,673493f39318451e1c97abac,2026-03-17_12h40.43.538,kallum_motion_pilot_GIST_update_2,2026.1.1,Win32,59.88023952,673493f39318451e1c97abac,69b92ab4aef6dee357cd729a,69b92f44f6a3c7c88ab241f3,0.0607,0.0607,1,47,209,47,1,fourthree,,,,,,,,,,,,,,,,,,,,,,,,,,,,,,,,,,,,,,,,,,,,,,,,,,,,,,,,,,,,,,,,,,,,,,,,,,,,,,,,,,,,,,,,,,,,,,,,,,,,,,,,,,,,,,,,,,,,,,,,,,,,,,,,,,,,,,,,,
,,673493f39318451e1c97abac,2026-03-17_12h40.43.538,kallum_motion_pilot_GIST_update_2,2026.1.1,Win32,59.88023952,673493f39318451e1c97abac,69b92ab4aef6dee357cd729a,69b92f44f6a3c7c88ab241f3,0.0608,0.0608,1,48,210,101,1,seveneight,,,,,,,,,,,,,,,,,,,,,,,,,,,,,,,,,,,,,,,,,,,,,,,,,,,,,,,,,,,,,,,,,,,,,,,,,,,,,,,,,,,,,,,,,,,,,,,,,,,,,,,,,,,,,,,,,,,,,,,,,,,,,,,,,,,,,,,,,
,,673493f39318451e1c97abac,2026-03-17_12h40.43.538,kallum_motion_pilot_GIST_update_2,2026.1.1,Win32,59.88023952,673493f39318451e1c97abac,69b92ab4aef6dee357cd729a,69b92f44f6a3c7c88ab241f3,0.0609,0.0609,1,49,211,20,1,threeone,,,,,,,,,,,,,,,,,,,,,,,,,,,,,,,,,,,,,,,,,,,,,,,,,,,,,,,,,,,,,,,,,,,,,,,,,,,,,,,,,,,,,,,,,,,,,,,,,,,,,,,,,,,,,,,,,,,,,,,,,,,,,,,,,,,,,,,,,
,,673493f39318451e1c97abac,2026-03-17_12h40.43.538,kallum_motion_pilot_GIST_update_2,2026.1.1,Win32,59.88023952,673493f39318451e1c97abac,69b92ab4aef6dee357cd729a,69b92f44f6a3c7c88ab241f3,0.061,0.061,1,50,212,98,1,sixfive,,,,,,,,,,,,,,,,,,,,,,,,,,,,,,,,,,,,,,,,,,,,,,,,,,,,,,,,,,,,,,,,,,,,,,,,,,,,,,,,,,,,,,,,,,,,,,,,,,,,,,,,,,,,,,,,,,,,,,,,,,,,,,,,,,,,,,,,,
,,673493f39318451e1c97abac,2026-03-17_12h40.43.538,kallum_motion_pilot_GIST_update_2,2026.1.1,Win32,59.88023952,673493f39318451e1c97abac,69b92ab4aef6dee357cd729a,69b92f44f6a3c7c88ab241f3,0.0612,0.0612,1,51,213,113,1,fiveseven,,,,,,,,,,,,,,,,,,,,,,,,,,,,,,,,,,,,,,,,,,,,,,,,,,,,,,,,,,,,,,,,,,,,,,,,,,,,,,,,,,,,,,,,,,,,,,,,,,,,,,,,,,,,,,,,,,,,,,,,,,,,,,,,,,,,,,,,,
,,673493f39318451e1c97abac,2026-03-17_12h40.43.538,kallum_motion_pilot_GIST_update_2,2026.1.1,Win32,59.88023952,673493f39318451e1c97abac,69b92ab4aef6dee357cd729a,69b92f44f6a3c7c88ab241f3,0.0614,0.0614,1,52,214,51,1,twofour,,,,,,,,,,,,,,,,,,,,,,,,,,,,,,,,,,,,,,,,,,,,,,,,,,,,,,,,,,,,,,,,,,,,,,,,,,,,,,,,,,,,,,,,,,,,,,,,,,,,,,,,,,,,,,,,,,,,,,,,,,,,,,,,,,,,,,,,,
,,673493f39318451e1c97abac,2026-03-17_12h40.43.538,kallum_motion_pilot_GIST_update_2,2026.1.1,Win32,59.88023952,673493f39318451e1c97abac,69b92ab4aef6dee357cd729a,69b92f44f6a3c7c88ab241f3,0.0615,0.0615,1,53,215,91,1,sixeight,,,,,,,,,,,,,,,,,,,,,,,,,,,,,,,,,,,,,,,,,,,,,,,,,,,,,,,,,,,,,,,,,,,,,,,,,,,,,,,,,,,,,,,,,,,,,,,,,,,,,,,,,,,,,,,,,,,,,,,,,,,,,,,,,,,,,,,,,
,,673493f39318451e1c97abac,2026-03-17_12h40.43.538,kallum_motion_pilot_GIST_update_2,2026.1.1,Win32,59.88023952,673493f39318451e1c97abac,69b92ab4aef6dee357cd729a,69b92f44f6a3c7c88ab241f3,0.0616,0.0616,1,54,216,155,1,sixeight,,,,,,,,,,,,,,,,,,,,,,,,,,,,,,,,,,,,,,,,,,,,,,,,,,,,,,,,,,,,,,,,,,,,,,,,,,,,,,,,,,,,,,,,,,,,,,,,,,,,,,,,,,,,,,,,,,,,,,,,,,,,,,,,,,,,,,,,,
,,673493f39318451e1c97abac,2026-03-17_12h40.43.538,kallum_motion_pilot_GIST_update_2,2026.1.1,Win32,59.88023952,673493f39318451e1c97abac,69b92ab4aef6dee357cd729a,69b92f44f6a3c7c88ab241f3,0.0618,0.0618,1,55,217,36,1,threeone,,,,,,,,,,,,,,,,,,,,,,,,,,,,,,,,,,,,,,,,,,,,,,,,,,,,,,,,,,,,,,,,,,,,,,,,,,,,,,,,,,,,,,,,,,,,,,,,,,,,,,,,,,,,,,,,,,,,,,,,,,,,,,,,,,,,,,,,,
,,673493f39318451e1c97abac,2026-03-17_12h40.43.538,kallum_motion_pilot_GIST_update_2,2026.1.1,Win32,59.88023952,673493f39318451e1c97abac,69b92ab4aef6dee357cd729a,69b92f44f6a3c7c88ab241f3,0.0619,0.0619,1,56,218,110,1,eightsix,,,,,,,,,,,,,,,,,,,,,,,,,,,,,,,,,,,,,,,,,,,,,,,,,,,,,,,,,,,,,,,,,,,,,,,,,,,,,,,,,,,,,,,,,,,,,,,,,,,,,,,,,,,,,,,,,,,,,,,,,,,,,,,,,,,,,,,,,
,,673493f39318451e1c97abac,2026-03-17_12h40.43.538,kallum_motion_pilot_GIST_update_2,2026.1.1,Win32,59.88023952,673493f39318451e1c97abac,69b92ab4aef6dee357cd729a,69b92f44f6a3c7c88ab241f3,0.062,0.062,1,57,219,79,1,eightseven,,,,,,,,,,,,,,,,,,,,,,,,,,,,,,,,,,,,,,,,,,,,,,,,,,,,,,,,,,,,,,,,,,,,,,,,,,,,,,,,,,,,,,,,,,,,,,,,,,,,,,,,,,,,,,,,,,,,,,,,,,,,,,,,,,,,,,,,,
,,673493f39318451e1c97abac,2026-03-17_12h40.43.538,kallum_motion_pilot_GIST_update_2,2026.1.1,Win32,59.88023952,673493f39318451e1c97abac,69b92ab4aef6dee357cd729a,69b92f44f6a3c7c88ab241f3,0.0621,0.0621,1,58,220,148,1,sevenfive,,,,,,,,,,,,,,,,,,,,,,,,,,,,,,,,,,,,,,,,,,,,,,,,,,,,,,,,,,,,,,,,,,,,,,,,,,,,,,,,,,,,,,,,,,,,,,,,,,,,,,,,,,,,,,,,,,,,,,,,,,,,,,,,,,,,,,,,,
,,673493f39318451e1c97abac,2026-03-17_12h40.43.538,kallum_motion_pilot_GIST_update_2,2026.1.1,Win32,59.88023952,673493f39318451e1c97abac,69b92ab4aef6dee357cd729a,69b92f44f6a3c7c88ab241f3,0.0621,0.0621,1,59,221,67,1,twofour,,,,,,,,,,,,,,,,,,,,,,,,,,,,,,,,,,,,,,,,,,,,,,,,,,,,,,,,,,,,,,,,,,,,,,,,,,,,,,,,,,,,,,,,,,,,,,,,,,,,,,,,,,,,,,,,,,,,,,,,,,,,,,,,,,,,,,,,,
,,673493f39318451e1c97abac,2026-03-17_12h40.43.538,kallum_motion_pilot_GIST_update_2,2026.1.1,Win32,59.88023952,673493f39318451e1c97abac,69b92ab4aef6dee357cd729a,69b92f44f6a3c7c88ab241f3,0.0622,0.0622,1,60,222,68,1,threeone,,,,,,,,,,,,,,,,,,,,,,,,,,,,,,,,,,,,,,,,,,,,,,,,,,,,,,,,,,,,,,,,,,,,,,,,,,,,,,,,,,,,,,,,,,,,,,,,,,,,,,,,,,,,,,,,,,,,,,,,,,,,,,,,,,,,,,,,,
,,673493f39318451e1c97abac,2026-03-17_12h40.43.538,kallum_motion_pilot_GIST_update_2,2026.1.1,Win32,59.88023952,673493f39318451e1c97abac,69b92ab4aef6dee357cd729a,69b92f44f6a3c7c88ab241f3,0.0623,0.0623,1,61,223,130,1,sixfive,,,,,,,,,,,,,,,,,,,,,,,,,,,,,,,,,,,,,,,,,,,,,,,,,,,,,,,,,,,,,,,,,,,,,,,,,,,,,,,,,,,,,,,,,,,,,,,,,,,,,,,,,,,,,,,,,,,,,,,,,,,,,,,,,,,,,,,,,
,,673493f39318451e1c97abac,2026-03-17_12h40.43.538,kallum_motion_pilot_GIST_update_2,2026.1.1,Win32,59.88023952,673493f39318451e1c97abac,69b92ab4aef6dee357cd729a,69b92f44f6a3c7c88ab241f3,0.0624,0.0624,1,62,224,70,1,fourtwo,,,,,,,,,,,,,,,,,,,,,,,,,,,,,,,,,,,,,,,,,,,,,,,,,,,,,,,,,,,,,,,,,,,,,,,,,,,,,,,,,,,,,,,,,,,,,,,,,,,,,,,,,,,,,,,,,,,,,,,,,,,,,,,,,,,,,,,,,
,,673493f39318451e1c97abac,2026-03-17_12h40.43.538,kallum_motion_pilot_GIST_update_2,2026.1.1,Win32,59.88023952,673493f39318451e1c97abac,69b92ab4aef6dee357cd729a,69b92f44f6a3c7c88ab241f3,0.0626,0.0626,1,63,225,127,1,eightseven,,,,,,,,,,,,,,,,,,,,,,,,,,,,,,,,,,,,,,,,,,,,,,,,,,,,,,,,,,,,,,,,,,,,,,,,,,,,,,,,,,,,,,,,,,,,,,,,,,,,,,,,,,,,,,,,,,,,,,,,,,,,,,,,,,,,,,,,,
,,673493f39318451e1c97abac,2026-03-17_12h40.43.538,kallum_motion_pilot_GIST_update_2,2026.1.1,Win32,59.88023952,673493f39318451e1c97abac,69b92ab4aef6dee357cd729a,69b92f44f6a3c7c88ab241f3,0.0627,0.0627,1,64,226,61,1,threefour,,,,,,,,,,,,,,,,,,,,,,,,,,,,,,,,,,,,,,,,,,,,,,,,,,,,,,,,,,,,,,,,,,,,,,,,,,,,,,,,,,,,,,,,,,,,,,,,,,,,,,,,,,,,,,,,,,,,,,,,,,,,,,,,,,,,,,,,,
,,673493f39318451e1c97abac,2026-03-17_12h40.43.538,kallum_motion_pilot_GIST_update_2,2026.1.1,Win32,59.88023952,673493f39318451e1c97abac,69b92ab4aef6dee357cd729a,69b92f44f6a3c7c88ab241f3,0.0628,0.0628,1,65,227,103,1,eightseven,,,,,,,,,,,,,,,,,,,,,,,,,,,,,,,,,,,,,,,,,,,,,,,,,,,,,,,,,,,,,,,,,,,,,,,,,,,,,,,,,,,,,,,,,,,,,,,,,,,,,,,,,,,,,,,,,,,,,,,,,,,,,,,,,,,,,,,,,
,,673493f39318451e1c97abac,2026-03-17_12h40.43.538,kallum_motion_pilot_GIST_update_2,2026.1.1,Win32,59.88023952,673493f39318451e1c97abac,69b92ab4aef6dee357cd729a,69b92f44f6a3c7c88ab241f3,0.0629,0.0629,1,66,228,156,1,sevenfive,,,,,,,,,,,,,,,,,,,,,,,,,,,,,,,,,,,,,,,,,,,,,,,,,,,,,,,,,,,,,,,,,,,,,,,,,,,,,,,,,,,,,,,,,,,,,,,,,,,,,,,,,,,,,,,,,,,,,,,,,,,,,,,,,,,,,,,,,
,,673493f39318451e1c97abac,2026-03-17_12h40.43.538,kallum_motion_pilot_GIST_update_2,2026.1.1,Win32,59.88023952,673493f39318451e1c97abac,69b92ab4aef6dee357cd729a,69b92f44f6a3c7c88ab241f3,0.0629,0.0629,1,67,229,154,1,sixfive,,,,,,,,,,,,,,,,,,,,,,,,,,,,,,,,,,,,,,,,,,,,,,,,,,,,,,,,,,,,,,,,,,,,,,,,,,,,,,,,,,,,,,,,,,,,,,,,,,,,,,,,,,,,,,,,,,,,,,,,,,,,,,,,,,,,,,,,,
,,673493f39318451e1c97abac,2026-03-17_12h40.43.538,kallum_motion_pilot_GIST_update_2,2026.1.1,Win32,59.88023952,673493f39318451e1c97abac,69b92ab4aef6dee357cd729a,69b92f44f6a3c7c88ab241f3,0.063,0.063,1,68,230,2,1,twoone,,,,,,,,,,,,,,,,,,,,,,,,,,,,,,,,,,,,,,,,,,,,,,,,,,,,,,,,,,,,,,,,,,,,,,,,,,,,,,,,,,,,,,,,,,,,,,,,,,,,,,,,,,,,,,,,,,,,,,,,,,,,,,,,,,,,,,,,,
,,673493f39318451e1c97abac,2026-03-17_12h40.43.538,kallum_motion_pilot_GIST_update_2,2026.1.1,Win32,59.88023952,673493f39318451e1c97abac,69b92ab4aef6dee357cd729a,69b92f44f6a3c7c88ab241f3,0.0631,0.0631,1,69,231,152,1,fivesix,,,,,,,,,,,,,,,,,,,,,,,,,,,,,,,,,,,,,,,,,,,,,,,,,,,,,,,,,,,,,,,,,,,,,,,,,,,,,,,,,,,,,,,,,,,,,,,,,,,,,,,,,,,,,,,,,,,,,,,,,,,,,,,,,,,,,,,,,
,,673493f39318451e1c97abac,2026-03-17_12h40.43.538,kallum_motion_pilot_GIST_update_2,2026.1.1,Win32,59.88023952,673493f39318451e1c97abac,69b92ab4aef6dee357cd729a,69b92f44f6a3c7c88ab241f3,0.0632,0.0632,1,70,232,134,1,eightsix,,,,,,,,,,,,,,,,,,,,,,,,,,,,,,,,,,,,,,,,,,,,,,,,,,,,,,,,,,,,,,,,,,,,,,,,,,,,,,,,,,,,,,,,,,,,,,,,,,,,,,,,,,,,,,,,,,,,,,,,,,,,,,,,,,,,,,,,,
,,673493f39318451e1c97abac,2026-03-17_12h40.43.538,kallum_motion_pilot_GIST_update_2,2026.1.1,Win32,59.88023952,673493f39318451e1c97abac,69b92ab4aef6dee357cd729a,69b92f44f6a3c7c88ab241f3,0.0634,0.0634,1,71,233,72,1,onetwo,,,,,,,,,,,,,,,,,,,,,,,,,,,,,,,,,,,,,,,,,,,,,,,,,,,,,,,,,,,,,,,,,,,,,,,,,,,,,,,,,,,,,,,,,,,,,,,,,,,,,,,,,,,,,,,,,,,,,,,,,,,,,,,,,,,,,,,,,
,,673493f39318451e1c97abac,2026-03-17_12h40.43.538,kallum_motion_pilot_GIST_update_2,2026.1.1,Win32,59.88023952,673493f39318451e1c97abac,69b92ab4aef6dee357cd729a,69b92f44f6a3c7c88ab241f3,0.0635,0.0635,1,72,234,125,1,seveneight,,,,,,,,,,,,,,,,,,,,,,,,,,,,,,,,,,,,,,,,,,,,,,,,,,,,,,,,,,,,,,,,,,,,,,,,,,,,,,,,,,,,,,,,,,,,,,,,,,,,,,,,,,,,,,,,,,,,,,,,,,,,,,,,,,,,,,,,,
,,673493f39318451e1c97abac,2026-03-17_12h40.43.538,kallum_motion_pilot_GIST_update_2,2026.1.1,Win32,59.88023952,673493f39318451e1c97abac,69b92ab4aef6dee357cd729a,69b92f44f6a3c7c88ab241f3,0.0636,0.0637,1,73,235,97,1,fiveseven,,,,,,,,,,,,,,,,,,,,,,,,,,,,,,,,,,,,,,,,,,,,,,,,,,,,,,,,,,,,,,,,,,,,,,,,,,,,,,,,,,,,,,,,,,,,,,,,,,,,,,,,,,,,,,,,,,,,,,,,,,,,,,,,,,,,,,,,,
,,673493f39318451e1c97abac,2026-03-17_12h40.43.538,kallum_motion_pilot_GIST_update_2,2026.1.1,Win32,59.88023952,673493f39318451e1c97abac,69b92ab4aef6dee357cd729a,69b92f44f6a3c7c88ab241f3,0.0638,0.0638,1,74,236,10,1,twoone,,,,,,,,,,,,,,,,,,,,,,,,,,,,,,,,,,,,,,,,,,,,,,,,,,,,,,,,,,,,,,,,,,,,,,,,,,,,,,,,,,,,,,,,,,,,,,,,,,,,,,,,,,,,,,,,,,,,,,,,,,,,,,,,,,,,,,,,,
,,673493f39318451e1c97abac,2026-03-17_12h40.43.538,kallum_motion_pilot_GIST_update_2,2026.1.1,Win32,59.88023952,673493f39318451e1c97abac,69b92ab4aef6dee357cd729a,69b92f44f6a3c7c88ab241f3,0.064,0.064,1,75,237,131,1,sixeight,,,,,,,,,,,,,,,,,,,,,,,,,,,,,,,,,,,,,,,,,,,,,,,,,,,,,,,,,,,,,,,,,,,,,,,,,,,,,,,,,,,,,,,,,,,,,,,,,,,,,,,,,,,,,,,,,,,,,,,,,,,,,,,,,,,,,,,,,
,,673493f39318451e1c97abac,2026-03-17_12h40.43.538,kallum_motion_pilot_GIST_update_2,2026.1.1,Win32,59.88023952,673493f39318451e1c97abac,69b92ab4aef6dee357cd729a,69b92f44f6a3c7c88ab241f3,0.0641,0.0641,1,76,238,84,1,sevenfive,,,,,,,,,,,,,,,,,,,,,,,,,,,,,,,,,,,,,,,,,,,,,,,,,,,,,,,,,,,,,,,,,,,,,,,,,,,,,,,,,,,,,,,,,,,,,,,,,,,,,,,,,,,,,,,,,,,,,,,,,,,,,,,,,,,,,,,,,
,,673493f39318451e1c97abac,2026-03-17_12h40.43.538,kallum_motion_pilot_GIST_update_2,2026.1.1,Win32,59.88023952,673493f39318451e1c97abac,69b92ab4aef6dee357cd729a,69b92f44f6a3c7c88ab241f3,0.0642,0.0642,1,77,239,121,1,fiveseven,,,,,,,,,,,,,,,,,,,,,,,,,,,,,,,,,,,,,,,,,,,,,,,,,,,,,,,,,,,,,,,,,,,,,,,,,,,,,,,,,,,,,,,,,,,,,,,,,,,,,,,,,,,,,,,,,,,,,,,,,,,,,,,,,,,,,,,,,
,,673493f39318451e1c97abac,2026-03-17_12h40.43.538,kallum_motion_pilot_GIST_update_2,2026.1.1,Win32,59.88023952,673493f39318451e1c97abac,69b92ab4aef6dee357cd729a,69b92f44f6a3c7c88ab241f3,0.0643,0.0643,1,78,240,116,1,sevenfive,,,,,,,,,,,,,,,,,,,,,,,,,,,,,,,,,,,,,,,,,,,,,,,,,,,,,,,,,,,,,,,,,,,,,,,,,,,,,,,,,,,,,,,,,,,,,,,,,,,,,,,,,,,,,,,,,,,,,,,,,,,,,,,,,,,,,,,,,
,,673493f39318451e1c97abac,2026-03-17_12h40.43.538,kallum_motion_pilot_GIST_update_2,2026.1.1,Win32,59.88023952,673493f39318451e1c97abac,69b92ab4aef6dee357cd729a,69b92f44f6a3c7c88ab241f3,0.0645,0.0645,1,79,241,76,1,threeone,,,,,,,,,,,,,,,,,,,,,,,,,,,,,,,,,,,,,,,,,,,,,,,,,,,,,,,,,,,,,,,,,,,,,,,,,,,,,,,,,,,,,,,,,,,,,,,,,,,,,,,,,,,,,,,,,,,,,,,,,,,,,,,,,,,,,,,,,
,,673493f39318451e1c97abac,2026-03-17_12h40.43.538,kallum_motion_pilot_GIST_update_2,2026.1.1,Win32,59.88023952,673493f39318451e1c97abac,69b92ab4aef6dee357cd729a,69b92f44f6a3c7c88ab241f3,0.0646,0.0646,1,80,242,41,1,onethree,,,,,,,,,,,,,,,,,,,,,,,,,,,,,,,,,,,,,,,,,,,,,,,,,,,,,,,,,,,,,,,,,,,,,,,,,,,,,,,,,,,,,,,,,,,,,,,,,,,,,,,,,,,,,,,,,,,,,,,,,,,,,,,,,,,,,,,,,
,,673493f39318451e1c97abac,2026-03-17_12h40.43.538,kallum_motion_pilot_GIST_update_2,2026.1.1,Win32,59.88023952,673493f39318451e1c97abac,69b92ab4aef6dee357cd729a,69b92f44f6a3c7c88ab241f3,0.0648,0.0648,1,81,243,9,1,onethree,,,,,,,,,,,,,,,,,,,,,,,,,,,,,,,,,,,,,,,,,,,,,,,,,,,,,,,,,,,,,,,,,,,,,,,,,,,,,,,,,,,,,,,,,,,,,,,,,,,,,,,,,,,,,,,,,,,,,,,,,,,,,,,,,,,,,,,,,
,,673493f39318451e1c97abac,2026-03-17_12h40.43.538,kallum_motion_pilot_GIST_update_2,2026.1.1,Win32,59.88023952,673493f39318451e1c97abac,69b92ab4aef6dee357cd729a,69b92f44f6a3c7c88ab241f3,0.0648,0.0649,1,82,244,60,1,threeone,,,,,,,,,,,,,,,,,,,,,,,,,,,,,,,,,,,,,,,,,,,,,,,,,,,,,,,,,,,,,,,,,,,,,,,,,,,,,,,,,,,,,,,,,,,,,,,,,,,,,,,,,,,,,,,,,,,,,,,,,,,,,,,,,,,,,,,,,
,,673493f39318451e1c97abac,2026-03-17_12h40.43.538,kallum_motion_pilot_GIST_update_2,2026.1.1,Win32,59.88023952,673493f39318451e1c97abac,69b92ab4aef6dee357cd729a,69b92f44f6a3c7c88ab241f3,0.0651,0.0651,1,83,245,83,1,sixeight,,,,,,,,,,,,,,,,,,,,,,,,,,,,,,,,,,,,,,,,,,,,,,,,,,,,,,,,,,,,,,,,,,,,,,,,,,,,,,,,,,,,,,,,,,,,,,,,,,,,,,,,,,,,,,,,,,,,,,,,,,,,,,,,,,,,,,,,,
,,673493f39318451e1c97abac,2026-03-17_12h40.43.538,kallum_motion_pilot_GIST_update_2,2026.1.1,Win32,59.88023952,673493f39318451e1c97abac,69b92ab4aef6dee357cd729a,69b92f44f6a3c7c88ab241f3,0.0651,0.0651,1,84,246,146,1,sixfive,,,,,,,,,,,,,,,,,,,,,,,,,,,,,,,,,,,,,,,,,,,,,,,,,,,,,,,,,,,,,,,,,,,,,,,,,,,,,,,,,,,,,,,,,,,,,,,,,,,,,,,,,,,,,,,,,,,,,,,,,,,,,,,,,,,,,,,,,
,,673493f39318451e1c97abac,2026-03-17_12h40.43.538,kallum_motion_pilot_GIST_update_2,2026.1.1,Win32,59.88023952,673493f39318451e1c97abac,69b92ab4aef6dee357cd729a,69b92f44f6a3c7c88ab241f3,0.0652,0.0652,1,85,247,81,1,fiveseven,,,,,,,,,,,,,,,,,,,,,,,,,,,,,,,,,,,,,,,,,,,,,,,,,,,,,,,,,,,,,,,,,,,,,,,,,,,,,,,,,,,,,,,,,,,,,,,,,,,,,,,,,,,,,,,,,,,,,,,,,,,,,,,,,,,,,,,,,
,,673493f39318451e1c97abac,2026-03-17_12h40.43.538,kallum_motion_pilot_GIST_update_2,2026.1.1,Win32,59.88023952,673493f39318451e1c97abac,69b92ab4aef6dee357cd729a,69b92f44f6a3c7c88ab241f3,0.0654,0.0654,1,86,248,16,1,onetwo,,,,,,,,,,,,,,,,,,,,,,,,,,,,,,,,,,,,,,,,,,,,,,,,,,,,,,,,,,,,,,,,,,,,,,,,,,,,,,,,,,,,,,,,,,,,,,,,,,,,,,,,,,,,,,,,,,,,,,,,,,,,,,,,,,,,,,,,,
,,673493f39318451e1c97abac,2026-03-17_12h40.43.538,kallum_motion_pilot_GIST_update_2,2026.1.1,Win32,59.88023952,673493f39318451e1c97abac,69b92ab4aef6dee357cd729a,69b92f44f6a3c7c88ab241f3,0.0656,0.0656,1,87,249,5,1,threefour,,,,,,,,,,,,,,,,,,,,,,,,,,,,,,,,,,,,,,,,,,,,,,,,,,,,,,,,,,,,,,,,,,,,,,,,,,,,,,,,,,,,,,,,,,,,,,,,,,,,,,,,,,,,,,,,,,,,,,,,,,,,,,,,,,,,,,,,,
,,673493f39318451e1c97abac,2026-03-17_12h40.43.538,kallum_motion_pilot_GIST_update_2,2026.1.1,Win32,59.88023952,673493f39318451e1c97abac,69b92ab4aef6dee357cd729a,69b92f44f6a3c7c88ab241f3,0.0657,0.0657,1,88,250,115,1,sixeight,,,,,,,,,,,,,,,,,,,,,,,,,,,,,,,,,,,,,,,,,,,,,,,,,,,,,,,,,,,,,,,,,,,,,,,,,,,,,,,,,,,,,,,,,,,,,,,,,,,,,,,,,,,,,,,,,,,,,,,,,,,,,,,,,,,,,,,,,
,,673493f39318451e1c97abac,2026-03-17_12h40.43.538,kallum_motion_pilot_GIST_update_2,2026.1.1,Win32,59.88023952,673493f39318451e1c97abac,69b92ab4aef6dee357cd729a,69b92f44f6a3c7c88ab241f3,0.0658,0.0659,1,89,251,123,1,sixeight,,,,,,,,,,,,,,,,,,,,,,,,,,,,,,,,,,,,,,,,,,,,,,,,,,,,,,,,,,,,,,,,,,,,,,,,,,,,,,,,,,,,,,,,,,,,,,,,,,,,,,,,,,,,,,,,,,,,,,,,,,,,,,,,,,,,,,,,,
,,673493f39318451e1c97abac,2026-03-17_12h40.43.538,kallum_motion_pilot_GIST_update_2,2026.1.1,Win32,59.88023952,673493f39318451e1c97abac,69b92ab4aef6dee357cd729a,69b92f44f6a3c7c88ab241f3,0.0661,0.0661,1,90,252,82,1,sixfive,,,,,,,,,,,,,,,,,,,,,,,,,,,,,,,,,,,,,,,,,,,,,,,,,,,,,,,,,,,,,,,,,,,,,,,,,,,,,,,,,,,,,,,,,,,,,,,,,,,,,,,,,,,,,,,,,,,,,,,,,,,,,,,,,,,,,,,,,
,,673493f39318451e1c97abac,2026-03-17_12h40.43.538,kallum_motion_pilot_GIST_update_2,2026.1.1,Win32,59.88023952,673493f39318451e1c97abac,69b92ab4aef6dee357cd729a,69b92f44f6a3c7c88ab241f3,0.0662,0.0662,1,91,253,86,1,eightsix,,,,,,,,,,,,,,,,,,,,,,,,,,,,,,,,,,,,,,,,,,,,,,,,,,,,,,,,,,,,,,,,,,,,,,,,,,,,,,,,,,,,,,,,,,,,,,,,,,,,,,,,,,,,,,,,,,,,,,,,,,,,,,,,,,,,,,,,,
,,673493f39318451e1c97abac,2026-03-17_12h40.43.538,kallum_motion_pilot_GIST_update_2,2026.1.1,Win32,59.88023952,673493f39318451e1c97abac,69b92ab4aef6dee357cd729a,69b92f44f6a3c7c88ab241f3,0.0663,0.0663,1,92,254,42,1,twoone,,,,,,,,,,,,,,,,,,,,,,,,,,,,,,,,,,,,,,,,,,,,,,,,,,,,,,,,,,,,,,,,,,,,,,,,,,,,,,,,,,,,,,,,,,,,,,,,,,,,,,,,,,,,,,,,,,,,,,,,,,,,,,,,,,,,,,,,,
,,673493f39318451e1c97abac,2026-03-17_12h40.43.538,kallum_motion_pilot_GIST_update_2,2026.1.1,Win32,59.88023952,673493f39318451e1c97abac,69b92ab4aef6dee357cd729a,69b92f44f6a3c7c88ab241f3,0.0664,0.0664,1,93,255,143,1,eightseven,,,,,,,,,,,,,,,,,,,,,,,,,,,,,,,,,,,,,,,,,,,,,,,,,,,,,,,,,,,,,,,,,,,,,,,,,,,,,,,,,,,,,,,,,,,,,,,,,,,,,,,,,,,,,,,,,,,,,,,,,,,,,,,,,,,,,,,,,
,,673493f39318451e1c97abac,2026-03-17_12h40.43.538,kallum_motion_pilot_GIST_update_2,2026.1.1,Win32,59.88023952,673493f39318451e1c97abac,69b92ab4aef6dee357cd729a,69b92f44f6a3c7c88ab241f3,0.0665,0.0665,1,94,256,153,1,fiveseven,,,,,,,,,,,,,,,,,,,,,,,,,,,,,,,,,,,,,,,,,,,,,,,,,,,,,,,,,,,,,,,,,,,,,,,,,,,,,,,,,,,,,,,,,,,,,,,,,,,,,,,,,,,,,,,,,,,,,,,,,,,,,,,,,,,,,,,,,
,,673493f39318451e1c97abac,2026-03-17_12h40.43.538,kallum_motion_pilot_GIST_update_2,2026.1.1,Win32,59.88023952,673493f39318451e1c97abac,69b92ab4aef6dee357cd729a,69b92f44f6a3c7c88ab241f3,0.0666,0.0666,1,95,257,8,1,onetwo,,,,,,,,,,,,,,,,,,,,,,,,,,,,,,,,,,,,,,,,,,,,,,,,,,,,,,,,,,,,,,,,,,,,,,,,,,,,,,,,,,,,,,,,,,,,,,,,,,,,,,,,,,,,,,,,,,,,,,,,,,,,,,,,,,,,,,,,,
,,673493f39318451e1c97abac,2026-03-17_12h40.43.538,kallum_motion_pilot_GIST_update_2,2026.1.1,Win32,59.88023952,673493f39318451e1c97abac,69b92ab4aef6dee357cd729a,69b92f44f6a3c7c88ab241f3,0.0669,0.0669,1,96,258,158,1,eightsix,,,,,,,,,,,,,,,,,,,,,,,,,,,,,,,,,,,,,,,,,,,,,,,,,,,,,,,,,,,,,,,,,,,,,,,,,,,,,,,,,,,,,,,,,,,,,,,,,,,,,,,,,,,,,,,,,,,,,,,,,,,,,,,,,,,,,,,,,
,,673493f39318451e1c97abac,2026-03-17_12h40.43.538,kallum_motion_pilot_GIST_update_2,2026.1.1,Win32,59.88023952,673493f39318451e1c97abac,69b92ab4aef6dee357cd729a,69b92f44f6a3c7c88ab241f3,0.067,0.067,1,97,259,63,1,fourthree,,,,,,,,,,,,,,,,,,,,,,,,,,,,,,,,,,,,,,,,,,,,,,,,,,,,,,,,,,,,,,,,,,,,,,,,,,,,,,,,,,,,,,,,,,,,,,,,,,,,,,,,,,,,,,,,,,,,,,,,,,,,,,,,,,,,,,,,,
,,673493f39318451e1c97abac,2026-03-17_12h40.43.538,kallum_motion_pilot_GIST_update_2,2026.1.1,Win32,59.88023952,673493f39318451e1c97abac,69b92ab4aef6dee357cd729a,69b92f44f6a3c7c88ab241f3,0.0672,0.0672,1,98,260,129,1,fiveseven,,,,,,,,,,,,,,,,,,,,,,,,,,,,,,,,,,,,,,,,,,,,,,,,,,,,,,,,,,,,,,,,,,,,,,,,,,,,,,,,,,,,,,,,,,,,,,,,,,,,,,,,,,,,,,,,,,,,,,,,,,,,,,,,,,,,,,,,,
,,673493f39318451e1c97abac,2026-03-17_12h40.43.538,kallum_motion_pilot_GIST_update_2,2026.1.1,Win32,59.88023952,673493f39318451e1c97abac,69b92ab4aef6dee357cd729a,69b92f44f6a3c7c88ab241f3,0.0672,0.0672,1,99,261,120,1,fivesix,,,,,,,,,,,,,,,,,,,,,,,,,,,,,,,,,,,,,,,,,,,,,,,,,,,,,,,,,,,,,,,,,,,,,,,,,,,,,,,,,,,,,,,,,,,,,,,,,,,,,,,,,,,,,,,,,,,,,,,,,,,,,,,,,,,,,,,,,
,,673493f39318451e1c97abac,2026-03-17_12h40.43.538,kallum_motion_pilot_GIST_update_2,2026.1.1,Win32,59.88023952,673493f39318451e1c97abac,69b92ab4aef6dee357cd729a,69b92f44f6a3c7c88ab241f3,0.0674,0.0674,1,100,262,33,1,onethree,,,,,,,,,,,,,,,,,,,,,,,,,,,,,,,,,,,,,,,,,,,,,,,,,,,,,,,,,,,,,,,,,,,,,,,,,,,,,,,,,,,,,,,,,,,,,,,,,,,,,,,,,,,,,,,,,,,,,,,,,,,,,,,,,,,,,,,,,
,,673493f39318451e1c97abac,2026-03-17_12h40.43.538,kallum_motion_pilot_GIST_update_2,2026.1.1,Win32,59.88023952,673493f39318451e1c97abac,69b92ab4aef6dee357cd729a,69b92f44f6a3c7c88ab241f3,0.0675,0.0675,1,101,263,71,1,fourthree,,,,,,,,,,,,,,,,,,,,,,,,,,,,,,,,,,,,,,,,,,,,,,,,,,,,,,,,,,,,,,,,,,,,,,,,,,,,,,,,,,,,,,,,,,,,,,,,,,,,,,,,,,,,,,,,,,,,,,,,,,,,,,,,,,,,,,,,,
,,673493f39318451e1c97abac,2026-03-17_12h40.43.538,kallum_motion_pilot_GIST_update_2,2026.1.1,Win32,59.88023952,673493f39318451e1c97abac,69b92ab4aef6dee357cd729a,69b92f44f6a3c7c88ab241f3,0.0678,0.0678,1,102,264,15,1,fourthree,,,,,,,,,,,,,,,,,,,,,,,,,,,,,,,,,,,,,,,,,,,,,,,,,,,,,,,,,,,,,,,,,,,,,,,,,,,,,,,,,,,,,,,,,,,,,,,,,,,,,,,,,,,,,,,,,,,,,,,,,,,,,,,,,,,,,,,,,
,,673493f39318451e1c97abac,2026-03-17_12h40.43.538,kallum_motion_pilot_GIST_update_2,2026.1.1,Win32,59.88023952,673493f39318451e1c97abac,69b92ab4aef6dee357cd729a,69b92f44f6a3c7c88ab241f3,0.0679,0.0679,1,103,265,96,1,fivesix,,,,,,,,,,,,,,,,,,,,,,,,,,,,,,,,,,,,,,,,,,,,,,,,,,,,,,,,,,,,,,,,,,,,,,,,,,,,,,,,,,,,,,,,,,,,,,,,,,,,,,,,,,,,,,,,,,,,,,,,,,,,,,,,,,,,,,,,,
,,673493f39318451e1c97abac,2026-03-17_12h40.43.538,kallum_motion_pilot_GIST_update_2,2026.1.1,Win32,59.88023952,673493f39318451e1c97abac,69b92ab4aef6dee357cd729a,69b92f44f6a3c7c88ab241f3,0.068,0.068,1,104,266,25,1,onethree,,,,,,,,,,,,,,,,,,,,,,,,,,,,,,,,,,,,,,,,,,,,,,,,,,,,,,,,,,,,,,,,,,,,,,,,,,,,,,,,,,,,,,,,,,,,,,,,,,,,,,,,,,,,,,,,,,,,,,,,,,,,,,,,,,,,,,,,,
