startup.started,startup.stopped,Prolific ID*,date,expName,psychopyVersion,OS,frameRate,participant,study_id,session,stimpositions.started,stimpositions.stopped,hardcoded_stimulus_positions.thisRepN,hardcoded_stimulus_positions.thisTrialN,hardcoded_stimulus_positions.thisN,hardcoded_stimulus_positions.thisIndex,hardcoded_stimulus_positions.ran,StimulusPos,stimorientation.started,stimorientation.stopped,prac_stimorientation_import_loop.thisRepN,prac_stimorientation_import_loop.thisTrialN,prac_stimorientation_import_loop.thisN,prac_stimorientation_import_loop.thisIndex,prac_stimorientation_import_loop.ran,Stimorientation,welcome_instr.started,welcome_instr.stopped,key_resp.keys,key_resp.rt,key_resp.duration,response_steppedout_1.started,response_steppedout_1.stopped,key_resp_20.keys,key_resp_20.rt,key_resp_20.duration,response_steppedout_2.started,response_steppedout_2.stopped,key_resp_19.keys,key_resp_19.rt,key_resp_19.duration,stim_response_instr.started,stim_response_instr.stopped,key_resp_15.keys,key_resp_15.rt,key_resp_15.duration,direction_instr_2.started,direction_instr_2.stopped,key_resp_9.keys,key_resp_9.rt,key_resp_9.duration,instr_prac.started,instr_prac.stopped,key_resp_10.keys,key_resp_10.rt,key_resp_10.duration,Stim1_display_prac.started,Stim1_display_prac.stopped,Ecc,Circle1_ori,Circle2_ori,response_prac.started,similarity,response_time,response_prac.stopped,mouse_5.x,mouse_5.y,mouse_5.leftButton,mouse_5.midButton,mouse_5.rightButton,mouse_5.clicked_name,responseprac_feedback.started,responseprac_feedback.stopped,summary2_prac.started,summary2_prac.stopped,mouse_6.x,mouse_6.y,mouse_6.leftButton,mouse_6.midButton,mouse_6.rightButton,mouse_6.clicked_name,duringprac.thisRepN,duringprac.thisTrialN,duringprac.thisN,duringprac.thisIndex,duringprac.ran,begin.started,begin.stopped,key_resp_22.keys,key_resp_22.rt,key_resp_22.duration,Stim1_display.started,Stim1_display.stopped,circle1_ori,circle2_ori,circle1_SF,circle2_SF,response.started,response.stopped,mouse.x,mouse.y,mouse.leftButton,mouse.midButton,mouse.rightButton,mouse.clicked_name,trialnumber,double_pass.thisRepN,double_pass.thisTrialN,double_pass.thisN,double_pass.thisIndex,double_pass.ran,double_pass.order,main_trial.thisRepN,main_trial.thisTrialN,main_trial.thisN,main_trial.thisIndex,main_trial.ran,main_trial.order,Trial_Counter,Catch,Frequencies,response_2.started,response_2.stopped,mouse_2.x,mouse_2.y,mouse_2.leftButton,mouse_2.midButton,mouse_2.rightButton,mouse_2.clicked_name,special_trial.started,special_trial.stopped,catch_1.started,catch_1.stopped,mouse_3.x,mouse_3.y,mouse_3.leftButton,mouse_3.midButton,mouse_3.rightButton,catchresponse,catchnumber,response_time_catch,response_sum.started,response_sum.stopped,mouse_11.x,mouse_11.y,mouse_11.leftButton,mouse_11.midButton,mouse_11.rightButton,flip_presentation_sequence_for_double_pass.started,flip_presentation_sequence_for_double_pass.stopped,goodbye.started,goodbye.stopped,key_resp_3.keys,key_resp_3.rt,key_resp_3.duration
0.001,0.0014,6739e14db26d5900008e841d,2026-03-17_16h11.57.229,kallum_motion_pilot_GIST_update_2,2026.1.1,Linux armv81,59.88023952,6739e14db26d5900008e841d,69b95efdef24cd8a694e89ee,69b960f54a6040ca440812e4,,,,,,,,,,,,,,,,,,,,,,,,,,,,,,,,,,,,,,,,,,,,,,,,,,,,,,,,,,,,,,,,,,,,,,,,,,,,,,,,,,,,,,,,,,,,,,,,,,,,,,,,,,,,,,,,,,,,,,,,,,,,,,,,,,,,,,,,,,,,,,,,,
,,6739e14db26d5900008e841d,2026-03-17_16h11.57.229,kallum_motion_pilot_GIST_update_2,2026.1.1,Linux armv81,59.88023952,6739e14db26d5900008e841d,69b95efdef24cd8a694e89ee,69b960f54a6040ca440812e4,0.0929,0.0933,0,0,0,90,1,sixfive,,,,,,,,,,,,,,,,,,,,,,,,,,,,,,,,,,,,,,,,,,,,,,,,,,,,,,,,,,,,,,,,,,,,,,,,,,,,,,,,,,,,,,,,,,,,,,,,,,,,,,,,,,,,,,,,,,,,,,,,,,,,,,,,,,,,,,,,,
,,6739e14db26d5900008e841d,2026-03-17_16h11.57.229,kallum_motion_pilot_GIST_update_2,2026.1.1,Linux armv81,59.88023952,6739e14db26d5900008e841d,69b95efdef24cd8a694e89ee,69b960f54a6040ca440812e4,0.0946,0.0948,0,1,1,160,1,fivesix,,,,,,,,,,,,,,,,,,,,,,,,,,,,,,,,,,,,,,,,,,,,,,,,,,,,,,,,,,,,,,,,,,,,,,,,,,,,,,,,,,,,,,,,,,,,,,,,,,,,,,,,,,,,,,,,,,,,,,,,,,,,,,,,,,,,,,,,,
,,6739e14db26d5900008e841d,2026-03-17_16h11.57.229,kallum_motion_pilot_GIST_update_2,2026.1.1,Linux armv81,59.88023952,6739e14db26d5900008e841d,69b95efdef24cd8a694e89ee,69b960f54a6040ca440812e4,0.0956,0.0956,0,2,2,153,1,fiveseven,,,,,,,,,,,,,,,,,,,,,,,,,,,,,,,,,,,,,,,,,,,,,,,,,,,,,,,,,,,,,,,,,,,,,,,,,,,,,,,,,,,,,,,,,,,,,,,,,,,,,,,,,,,,,,,,,,,,,,,,,,,,,,,,,,,,,,,,,
,,6739e14db26d5900008e841d,2026-03-17_16h11.57.229,kallum_motion_pilot_GIST_update_2,2026.1.1,Linux armv81,59.88023952,6739e14db26d5900008e841d,69b95efdef24cd8a694e89ee,69b960f54a6040ca440812e4,0.0966,0.0966,0,3,3,109,1,seveneight,,,,,,,,,,,,,,,,,,,,,,,,,,,,,,,,,,,,,,,,,,,,,,,,,,,,,,,,,,,,,,,,,,,,,,,,,,,,,,,,,,,,,,,,,,,,,,,,,,,,,,,,,,,,,,,,,,,,,,,,,,,,,,,,,,,,,,,,,
,,6739e14db26d5900008e841d,2026-03-17_16h11.57.229,kallum_motion_pilot_GIST_update_2,2026.1.1,Linux armv81,59.88023952,6739e14db26d5900008e841d,69b95efdef24cd8a694e89ee,69b960f54a6040ca440812e4,0.0974,0.0975,0,4,4,155,1,sixeight,,,,,,,,,,,,,,,,,,,,,,,,,,,,,,,,,,,,,,,,,,,,,,,,,,,,,,,,,,,,,,,,,,,,,,,,,,,,,,,,,,,,,,,,,,,,,,,,,,,,,,,,,,,,,,,,,,,,,,,,,,,,,,,,,,,,,,,,,
,,6739e14db26d5900008e841d,2026-03-17_16h11.57.229,kallum_motion_pilot_GIST_update_2,2026.1.1,Linux armv81,59.88023952,6739e14db26d5900008e841d,69b95efdef24cd8a694e89ee,69b960f54a6040ca440812e4,0.0983,0.0983,0,5,5,12,1,threeone,,,,,,,,,,,,,,,,,,,,,,,,,,,,,,,,,,,,,,,,,,,,,,,,,,,,,,,,,,,,,,,,,,,,,,,,,,,,,,,,,,,,,,,,,,,,,,,,,,,,,,,,,,,,,,,,,,,,,,,,,,,,,,,,,,,,,,,,,
,,6739e14db26d5900008e841d,2026-03-17_16h11.57.229,kallum_motion_pilot_GIST_update_2,2026.1.1,Linux armv81,59.88023952,6739e14db26d5900008e841d,69b95efdef24cd8a694e89ee,69b960f54a6040ca440812e4,0.0992,0.0993,0,6,6,48,1,onetwo,,,,,,,,,,,,,,,,,,,,,,,,,,,,,,,,,,,,,,,,,,,,,,,,,,,,,,,,,,,,,,,,,,,,,,,,,,,,,,,,,,,,,,,,,,,,,,,,,,,,,,,,,,,,,,,,,,,,,,,,,,,,,,,,,,,,,,,,,
,,6739e14db26d5900008e841d,2026-03-17_16h11.57.229,kallum_motion_pilot_GIST_update_2,2026.1.1,Linux armv81,59.88023952,6739e14db26d5900008e841d,69b95efdef24cd8a694e89ee,69b960f54a6040ca440812e4,0.1001,0.1002,0,7,7,78,1,fourtwo,,,,,,,,,,,,,,,,,,,,,,,,,,,,,,,,,,,,,,,,,,,,,,,,,,,,,,,,,,,,,,,,,,,,,,,,,,,,,,,,,,,,,,,,,,,,,,,,,,,,,,,,,,,,,,,,,,,,,,,,,,,,,,,,,,,,,,,,,
,,6739e14db26d5900008e841d,2026-03-17_16h11.57.229,kallum_motion_pilot_GIST_update_2,2026.1.1,Linux armv81,59.88023952,6739e14db26d5900008e841d,69b95efdef24cd8a694e89ee,69b960f54a6040ca440812e4,0.1011,0.1012,0,8,8,157,1,seveneight,,,,,,,,,,,,,,,,,,,,,,,,,,,,,,,,,,,,,,,,,,,,,,,,,,,,,,,,,,,,,,,,,,,,,,,,,,,,,,,,,,,,,,,,,,,,,,,,,,,,,,,,,,,,,,,,,,,,,,,,,,,,,,,,,,,,,,,,,
,,6739e14db26d5900008e841d,2026-03-17_16h11.57.229,kallum_motion_pilot_GIST_update_2,2026.1.1,Linux armv81,59.88023952,6739e14db26d5900008e841d,69b95efdef24cd8a694e89ee,69b960f54a6040ca440812e4,0.102,0.1021,0,9,9,141,1,seveneight,,,,,,,,,,,,,,,,,,,,,,,,,,,,,,,,,,,,,,,,,,,,,,,,,,,,,,,,,,,,,,,,,,,,,,,,,,,,,,,,,,,,,,,,,,,,,,,,,,,,,,,,,,,,,,,,,,,,,,,,,,,,,,,,,,,,,,,,,
,,6739e14db26d5900008e841d,2026-03-17_16h11.57.229,kallum_motion_pilot_GIST_update_2,2026.1.1,Linux armv81,59.88023952,6739e14db26d5900008e841d,69b95efdef24cd8a694e89ee,69b960f54a6040ca440812e4,0.1029,0.103,0,10,10,84,1,sevenfive,,,,,,,,,,,,,,,,,,,,,,,,,,,,,,,,,,,,,,,,,,,,,,,,,,,,,,,,,,,,,,,,,,,,,,,,,,,,,,,,,,,,,,,,,,,,,,,,,,,,,,,,,,,,,,,,,,,,,,,,,,,,,,,,,,,,,,,,,
,,6739e14db26d5900008e841d,2026-03-17_16h11.57.229,kallum_motion_pilot_GIST_update_2,2026.1.1,Linux armv81,59.88023952,6739e14db26d5900008e841d,69b95efdef24cd8a694e89ee,69b960f54a6040ca440812e4,0.1037,0.1037,0,11,11,159,1,eightseven,,,,,,,,,,,,,,,,,,,,,,,,,,,,,,,,,,,,,,,,,,,,,,,,,,,,,,,,,,,,,,,,,,,,,,,,,,,,,,,,,,,,,,,,,,,,,,,,,,,,,,,,,,,,,,,,,,,,,,,,,,,,,,,,,,,,,,,,,
,,6739e14db26d5900008e841d,2026-03-17_16h11.57.229,kallum_motion_pilot_GIST_update_2,2026.1.1,Linux armv81,59.88023952,6739e14db26d5900008e841d,69b95efdef24cd8a694e89ee,69b960f54a6040ca440812e4,0.1045,0.1045,0,12,12,146,1,sixfive,,,,,,,,,,,,,,,,,,,,,,,,,,,,,,,,,,,,,,,,,,,,,,,,,,,,,,,,,,,,,,,,,,,,,,,,,,,,,,,,,,,,,,,,,,,,,,,,,,,,,,,,,,,,,,,,,,,,,,,,,,,,,,,,,,,,,,,,,
,,6739e14db26d5900008e841d,2026-03-17_16h11.57.229,kallum_motion_pilot_GIST_update_2,2026.1.1,Linux armv81,59.88023952,6739e14db26d5900008e841d,69b95efdef24cd8a694e89ee,69b960f54a6040ca440812e4,0.1052,0.1053,0,13,13,144,1,fivesix,,,,,,,,,,,,,,,,,,,,,,,,,,,,,,,,,,,,,,,,,,,,,,,,,,,,,,,,,,,,,,,,,,,,,,,,,,,,,,,,,,,,,,,,,,,,,,,,,,,,,,,,,,,,,,,,,,,,,,,,,,,,,,,,,,,,,,,,,
,,6739e14db26d5900008e841d,2026-03-17_16h11.57.229,kallum_motion_pilot_GIST_update_2,2026.1.1,Linux armv81,59.88023952,6739e14db26d5900008e841d,69b95efdef24cd8a694e89ee,69b960f54a6040ca440812e4,0.106,0.106,0,14,14,40,1,onetwo,,,,,,,,,,,,,,,,,,,,,,,,,,,,,,,,,,,,,,,,,,,,,,,,,,,,,,,,,,,,,,,,,,,,,,,,,,,,,,,,,,,,,,,,,,,,,,,,,,,,,,,,,,,,,,,,,,,,,,,,,,,,,,,,,,,,,,,,,
,,6739e14db26d5900008e841d,2026-03-17_16h11.57.229,kallum_motion_pilot_GIST_update_2,2026.1.1,Linux armv81,59.88023952,6739e14db26d5900008e841d,69b95efdef24cd8a694e89ee,69b960f54a6040ca440812e4,0.1068,0.1069,0,15,15,6,1,fourtwo,,,,,,,,,,,,,,,,,,,,,,,,,,,,,,,,,,,,,,,,,,,,,,,,,,,,,,,,,,,,,,,,,,,,,,,,,,,,,,,,,,,,,,,,,,,,,,,,,,,,,,,,,,,,,,,,,,,,,,,,,,,,,,,,,,,,,,,,,
,,6739e14db26d5900008e841d,2026-03-17_16h11.57.229,kallum_motion_pilot_GIST_update_2,2026.1.1,Linux armv81,59.88023952,6739e14db26d5900008e841d,69b95efdef24cd8a694e89ee,69b960f54a6040ca440812e4,0.1077,0.1077,0,16,16,68,1,threeone,,,,,,,,,,,,,,,,,,,,,,,,,,,,,,,,,,,,,,,,,,,,,,,,,,,,,,,,,,,,,,,,,,,,,,,,,,,,,,,,,,,,,,,,,,,,,,,,,,,,,,,,,,,,,,,,,,,,,,,,,,,,,,,,,,,,,,,,,
,,6739e14db26d5900008e841d,2026-03-17_16h11.57.229,kallum_motion_pilot_GIST_update_2,2026.1.1,Linux armv81,59.88023952,6739e14db26d5900008e841d,69b95efdef24cd8a694e89ee,69b960f54a6040ca440812e4,0.1084,0.1084,0,17,17,134,1,eightsix,,,,,,,,,,,,,,,,,,,,,,,,,,,,,,,,,,,,,,,,,,,,,,,,,,,,,,,,,,,,,,,,,,,,,,,,,,,,,,,,,,,,,,,,,,,,,,,,,,,,,,,,,,,,,,,,,,,,,,,,,,,,,,,,,,,,,,,,,
,,6739e14db26d5900008e841d,2026-03-17_16h11.57.229,kallum_motion_pilot_GIST_update_2,2026.1.1,Linux armv81,59.88023952,6739e14db26d5900008e841d,69b95efdef24cd8a694e89ee,69b960f54a6040ca440812e4,0.1091,0.1091,0,18,18,15,1,fourthree,,,,,,,,,,,,,,,,,,,,,,,,,,,,,,,,,,,,,,,,,,,,,,,,,,,,,,,,,,,,,,,,,,,,,,,,,,,,,,,,,,,,,,,,,,,,,,,,,,,,,,,,,,,,,,,,,,,,,,,,,,,,,,,,,,,,,,,,,
,,6739e14db26d5900008e841d,2026-03-17_16h11.57.229,kallum_motion_pilot_GIST_update_2,2026.1.1,Linux armv81,59.88023952,6739e14db26d5900008e841d,69b95efdef24cd8a694e89ee,69b960f54a6040ca440812e4,0.1098,0.1098,0,19,19,57,1,onethree,,,,,,,,,,,,,,,,,,,,,,,,,,,,,,,,,,,,,,,,,,,,,,,,,,,,,,,,,,,,,,,,,,,,,,,,,,,,,,,,,,,,,,,,,,,,,,,,,,,,,,,,,,,,,,,,,,,,,,,,,,,,,,,,,,,,,,,,,
,,6739e14db26d5900008e841d,2026-03-17_16h11.57.229,kallum_motion_pilot_GIST_update_2,2026.1.1,Linux armv81,59.88023952,6739e14db26d5900008e841d,69b95efdef24cd8a694e89ee,69b960f54a6040ca440812e4,0.1105,0.1105,0,20,20,124,1,sevenfive,,,,,,,,,,,,,,,,,,,,,,,,,,,,,,,,,,,,,,,,,,,,,,,,,,,,,,,,,,,,,,,,,,,,,,,,,,,,,,,,,,,,,,,,,,,,,,,,,,,,,,,,,,,,,,,,,,,,,,,,,,,,,,,,,,,,,,,,,
,,6739e14db26d5900008e841d,2026-03-17_16h11.57.229,kallum_motion_pilot_GIST_update_2,2026.1.1,Linux armv81,59.88023952,6739e14db26d5900008e841d,69b95efdef24cd8a694e89ee,69b960f54a6040ca440812e4,0.1112,0.1113,0,21,21,104,1,fivesix,,,,,,,,,,,,,,,,,,,,,,,,,,,,,,,,,,,,,,,,,,,,,,,,,,,,,,,,,,,,,,,,,,,,,,,,,,,,,,,,,,,,,,,,,,,,,,,,,,,,,,,,,,,,,,,,,,,,,,,,,,,,,,,,,,,,,,,,,
,,6739e14db26d5900008e841d,2026-03-17_16h11.57.229,kallum_motion_pilot_GIST_update_2,2026.1.1,Linux armv81,59.88023952,6739e14db26d5900008e841d,69b95efdef24cd8a694e89ee,69b960f54a6040ca440812e4,0.112,0.112,0,22,22,128,1,fivesix,,,,,,,,,,,,,,,,,,,,,,,,,,,,,,,,,,,,,,,,,,,,,,,,,,,,,,,,,,,,,,,,,,,,,,,,,,,,,,,,,,,,,,,,,,,,,,,,,,,,,,,,,,,,,,,,,,,,,,,,,,,,,,,,,,,,,,,,,
,,6739e14db26d5900008e841d,2026-03-17_16h11.57.229,kallum_motion_pilot_GIST_update_2,2026.1.1,Linux armv81,59.88023952,6739e14db26d5900008e841d,69b95efdef24cd8a694e89ee,69b960f54a6040ca440812e4,0.1127,0.1127,0,23,23,161,1,fiveseven,,,,,,,,,,,,,,,,,,,,,,,,,,,,,,,,,,,,,,,,,,,,,,,,,,,,,,,,,,,,,,,,,,,,,,,,,,,,,,,,,,,,,,,,,,,,,,,,,,,,,,,,,,,,,,,,,,,,,,,,,,,,,,,,,,,,,,,,,
,,6739e14db26d5900008e841d,2026-03-17_16h11.57.229,kallum_motion_pilot_GIST_update_2,2026.1.1,Linux armv81,59.88023952,6739e14db26d5900008e841d,69b95efdef24cd8a694e89ee,69b960f54a6040ca440812e4,0.1134,0.1134,0,24,24,76,1,threeone,,,,,,,,,,,,,,,,,,,,,,,,,,,,,,,,,,,,,,,,,,,,,,,,,,,,,,,,,,,,,,,,,,,,,,,,,,,,,,,,,,,,,,,,,,,,,,,,,,,,,,,,,,,,,,,,,,,,,,,,,,,,,,,,,,,,,,,,,
,,6739e14db26d5900008e841d,2026-03-17_16h11.57.229,kallum_motion_pilot_GIST_update_2,2026.1.1,Linux armv81,59.88023952,6739e14db26d5900008e841d,69b95efdef24cd8a694e89ee,69b960f54a6040ca440812e4,0.1141,0.1142,0,25,25,38,1,fourtwo,,,,,,,,,,,,,,,,,,,,,,,,,,,,,,,,,,,,,,,,,,,,,,,,,,,,,,,,,,,,,,,,,,,,,,,,,,,,,,,,,,,,,,,,,,,,,,,,,,,,,,,,,,,,,,,,,,,,,,,,,,,,,,,,,,,,,,,,,
,,6739e14db26d5900008e841d,2026-03-17_16h11.57.229,kallum_motion_pilot_GIST_update_2,2026.1.1,Linux armv81,59.88023952,6739e14db26d5900008e841d,69b95efdef24cd8a694e89ee,69b960f54a6040ca440812e4,0.1149,0.115,0,26,26,127,1,eightseven,,,,,,,,,,,,,,,,,,,,,,,,,,,,,,,,,,,,,,,,,,,,,,,,,,,,,,,,,,,,,,,,,,,,,,,,,,,,,,,,,,,,,,,,,,,,,,,,,,,,,,,,,,,,,,,,,,,,,,,,,,,,,,,,,,,,,,,,,
,,6739e14db26d5900008e841d,2026-03-17_16h11.57.229,kallum_motion_pilot_GIST_update_2,2026.1.1,Linux armv81,59.88023952,6739e14db26d5900008e841d,69b95efdef24cd8a694e89ee,69b960f54a6040ca440812e4,0.1157,0.1158,0,27,27,91,1,sixeight,,,,,,,,,,,,,,,,,,,,,,,,,,,,,,,,,,,,,,,,,,,,,,,,,,,,,,,,,,,,,,,,,,,,,,,,,,,,,,,,,,,,,,,,,,,,,,,,,,,,,,,,,,,,,,,,,,,,,,,,,,,,,,,,,,,,,,,,,
,,6739e14db26d5900008e841d,2026-03-17_16h11.57.229,kallum_motion_pilot_GIST_update_2,2026.1.1,Linux armv81,59.88023952,6739e14db26d5900008e841d,69b95efdef24cd8a694e89ee,69b960f54a6040ca440812e4,0.1165,0.1166,0,28,28,123,1,sixeight,,,,,,,,,,,,,,,,,,,,,,,,,,,,,,,,,,,,,,,,,,,,,,,,,,,,,,,,,,,,,,,,,,,,,,,,,,,,,,,,,,,,,,,,,,,,,,,,,,,,,,,,,,,,,,,,,,,,,,,,,,,,,,,,,,,,,,,,,
,,6739e14db26d5900008e841d,2026-03-17_16h11.57.229,kallum_motion_pilot_GIST_update_2,2026.1.1,Linux armv81,59.88023952,6739e14db26d5900008e841d,69b95efdef24cd8a694e89ee,69b960f54a6040ca440812e4,0.1172,0.1173,0,29,29,4,1,threeone,,,,,,,,,,,,,,,,,,,,,,,,,,,,,,,,,,,,,,,,,,,,,,,,,,,,,,,,,,,,,,,,,,,,,,,,,,,,,,,,,,,,,,,,,,,,,,,,,,,,,,,,,,,,,,,,,,,,,,,,,,,,,,,,,,,,,,,,,
,,6739e14db26d5900008e841d,2026-03-17_16h11.57.229,kallum_motion_pilot_GIST_update_2,2026.1.1,Linux armv81,59.88023952,6739e14db26d5900008e841d,69b95efdef24cd8a694e89ee,69b960f54a6040ca440812e4,0.1179,0.1181,0,30,30,63,1,fourthree,,,,,,,,,,,,,,,,,,,,,,,,,,,,,,,,,,,,,,,,,,,,,,,,,,,,,,,,,,,,,,,,,,,,,,,,,,,,,,,,,,,,,,,,,,,,,,,,,,,,,,,,,,,,,,,,,,,,,,,,,,,,,,,,,,,,,,,,,
,,6739e14db26d5900008e841d,2026-03-17_16h11.57.229,kallum_motion_pilot_GIST_update_2,2026.1.1,Linux armv81,59.88023952,6739e14db26d5900008e841d,69b95efdef24cd8a694e89ee,69b960f54a6040ca440812e4,0.119,0.119,0,31,31,33,1,onethree,,,,,,,,,,,,,,,,,,,,,,,,,,,,,,,,,,,,,,,,,,,,,,,,,,,,,,,,,,,,,,,,,,,,,,,,,,,,,,,,,,,,,,,,,,,,,,,,,,,,,,,,,,,,,,,,,,,,,,,,,,,,,,,,,,,,,,,,,
,,6739e14db26d5900008e841d,2026-03-17_16h11.57.229,kallum_motion_pilot_GIST_update_2,2026.1.1,Linux armv81,59.88023952,6739e14db26d5900008e841d,69b95efdef24cd8a694e89ee,69b960f54a6040ca440812e4,0.1199,0.12,0,32,32,56,1,onetwo,,,,,,,,,,,,,,,,,,,,,,,,,,,,,,,,,,,,,,,,,,,,,,,,,,,,,,,,,,,,,,,,,,,,,,,,,,,,,,,,,,,,,,,,,,,,,,,,,,,,,,,,,,,,,,,,,,,,,,,,,,,,,,,,,,,,,,,,,
,,6739e14db26d5900008e841d,2026-03-17_16h11.57.229,kallum_motion_pilot_GIST_update_2,2026.1.1,Linux armv81,59.88023952,6739e14db26d5900008e841d,69b95efdef24cd8a694e89ee,69b960f54a6040ca440812e4,0.1207,0.1208,0,33,33,46,1,fourtwo,,,,,,,,,,,,,,,,,,,,,,,,,,,,,,,,,,,,,,,,,,,,,,,,,,,,,,,,,,,,,,,,,,,,,,,,,,,,,,,,,,,,,,,,,,,,,,,,,,,,,,,,,,,,,,,,,,,,,,,,,,,,,,,,,,,,,,,,,
,,6739e14db26d5900008e841d,2026-03-17_16h11.57.229,kallum_motion_pilot_GIST_update_2,2026.1.1,Linux armv81,59.88023952,6739e14db26d5900008e841d,69b95efdef24cd8a694e89ee,69b960f54a6040ca440812e4,0.1215,0.1215,0,34,34,139,1,sixeight,,,,,,,,,,,,,,,,,,,,,,,,,,,,,,,,,,,,,,,,,,,,,,,,,,,,,,,,,,,,,,,,,,,,,,,,,,,,,,,,,,,,,,,,,,,,,,,,,,,,,,,,,,,,,,,,,,,,,,,,,,,,,,,,,,,,,,,,,
,,6739e14db26d5900008e841d,2026-03-17_16h11.57.229,kallum_motion_pilot_GIST_update_2,2026.1.1,Linux armv81,59.88023952,6739e14db26d5900008e841d,69b95efdef24cd8a694e89ee,69b960f54a6040ca440812e4,0.1223,0.1223,0,35,35,152,1,fivesix,,,,,,,,,,,,,,,,,,,,,,,,,,,,,,,,,,,,,,,,,,,,,,,,,,,,,,,,,,,,,,,,,,,,,,,,,,,,,,,,,,,,,,,,,,,,,,,,,,,,,,,,,,,,,,,,,,,,,,,,,,,,,,,,,,,,,,,,,
,,6739e14db26d5900008e841d,2026-03-17_16h11.57.229,kallum_motion_pilot_GIST_update_2,2026.1.1,Linux armv81,59.88023952,6739e14db26d5900008e841d,69b95efdef24cd8a694e89ee,69b960f54a6040ca440812e4,0.1231,0.1232,0,36,36,131,1,sixeight,,,,,,,,,,,,,,,,,,,,,,,,,,,,,,,,,,,,,,,,,,,,,,,,,,,,,,,,,,,,,,,,,,,,,,,,,,,,,,,,,,,,,,,,,,,,,,,,,,,,,,,,,,,,,,,,,,,,,,,,,,,,,,,,,,,,,,,,,
,,6739e14db26d5900008e841d,2026-03-17_16h11.57.229,kallum_motion_pilot_GIST_update_2,2026.1.1,Linux armv81,59.88023952,6739e14db26d5900008e841d,69b95efdef24cd8a694e89ee,69b960f54a6040ca440812e4,0.1241,0.1241,0,37,37,117,1,seveneight,,,,,,,,,,,,,,,,,,,,,,,,,,,,,,,,,,,,,,,,,,,,,,,,,,,,,,,,,,,,,,,,,,,,,,,,,,,,,,,,,,,,,,,,,,,,,,,,,,,,,,,,,,,,,,,,,,,,,,,,,,,,,,,,,,,,,,,,,
,,6739e14db26d5900008e841d,2026-03-17_16h11.57.229,kallum_motion_pilot_GIST_update_2,2026.1.1,Linux armv81,59.88023952,6739e14db26d5900008e841d,69b95efdef24cd8a694e89ee,69b960f54a6040ca440812e4,0.1248,0.125,0,38,38,94,1,eightsix,,,,,,,,,,,,,,,,,,,,,,,,,,,,,,,,,,,,,,,,,,,,,,,,,,,,,,,,,,,,,,,,,,,,,,,,,,,,,,,,,,,,,,,,,,,,,,,,,,,,,,,,,,,,,,,,,,,,,,,,,,,,,,,,,,,,,,,,,
,,6739e14db26d5900008e841d,2026-03-17_16h11.57.229,kallum_motion_pilot_GIST_update_2,2026.1.1,Linux armv81,59.88023952,6739e14db26d5900008e841d,69b95efdef24cd8a694e89ee,69b960f54a6040ca440812e4,0.1255,0.1256,0,39,39,16,1,onetwo,,,,,,,,,,,,,,,,,,,,,,,,,,,,,,,,,,,,,,,,,,,,,,,,,,,,,,,,,,,,,,,,,,,,,,,,,,,,,,,,,,,,,,,,,,,,,,,,,,,,,,,,,,,,,,,,,,,,,,,,,,,,,,,,,,,,,,,,,
,,6739e14db26d5900008e841d,2026-03-17_16h11.57.229,kallum_motion_pilot_GIST_update_2,2026.1.1,Linux armv81,59.88023952,6739e14db26d5900008e841d,69b95efdef24cd8a694e89ee,69b960f54a6040ca440812e4,0.1263,0.1264,0,40,40,37,1,threefour,,,,,,,,,,,,,,,,,,,,,,,,,,,,,,,,,,,,,,,,,,,,,,,,,,,,,,,,,,,,,,,,,,,,,,,,,,,,,,,,,,,,,,,,,,,,,,,,,,,,,,,,,,,,,,,,,,,,,,,,,,,,,,,,,,,,,,,,,
,,6739e14db26d5900008e841d,2026-03-17_16h11.57.229,kallum_motion_pilot_GIST_update_2,2026.1.1,Linux armv81,59.88023952,6739e14db26d5900008e841d,69b95efdef24cd8a694e89ee,69b960f54a6040ca440812e4,0.1272,0.1273,0,41,41,24,1,onetwo,,,,,,,,,,,,,,,,,,,,,,,,,,,,,,,,,,,,,,,,,,,,,,,,,,,,,,,,,,,,,,,,,,,,,,,,,,,,,,,,,,,,,,,,,,,,,,,,,,,,,,,,,,,,,,,,,,,,,,,,,,,,,,,,,,,,,,,,,
,,6739e14db26d5900008e841d,2026-03-17_16h11.57.229,kallum_motion_pilot_GIST_update_2,2026.1.1,Linux armv81,59.88023952,6739e14db26d5900008e841d,69b95efdef24cd8a694e89ee,69b960f54a6040ca440812e4,0.1279,0.128,0,42,42,67,1,twofour,,,,,,,,,,,,,,,,,,,,,,,,,,,,,,,,,,,,,,,,,,,,,,,,,,,,,,,,,,,,,,,,,,,,,,,,,,,,,,,,,,,,,,,,,,,,,,,,,,,,,,,,,,,,,,,,,,,,,,,,,,,,,,,,,,,,,,,,,
,,6739e14db26d5900008e841d,2026-03-17_16h11.57.229,kallum_motion_pilot_GIST_update_2,2026.1.1,Linux armv81,59.88023952,6739e14db26d5900008e841d,69b95efdef24cd8a694e89ee,69b960f54a6040ca440812e4,0.1287,0.1287,0,43,43,113,1,fiveseven,,,,,,,,,,,,,,,,,,,,,,,,,,,,,,,,,,,,,,,,,,,,,,,,,,,,,,,,,,,,,,,,,,,,,,,,,,,,,,,,,,,,,,,,,,,,,,,,,,,,,,,,,,,,,,,,,,,,,,,,,,,,,,,,,,,,,,,,,
,,6739e14db26d5900008e841d,2026-03-17_16h11.57.229,kallum_motion_pilot_GIST_update_2,2026.1.1,Linux armv81,59.88023952,6739e14db26d5900008e841d,69b95efdef24cd8a694e89ee,69b960f54a6040ca440812e4,0.1295,0.1295,0,44,44,25,1,onethree,,,,,,,,,,,,,,,,,,,,,,,,,,,,,,,,,,,,,,,,,,,,,,,,,,,,,,,,,,,,,,,,,,,,,,,,,,,,,,,,,,,,,,,,,,,,,,,,,,,,,,,,,,,,,,,,,,,,,,,,,,,,,,,,,,,,,,,,,
,,6739e14db26d5900008e841d,2026-03-17_16h11.57.229,kallum_motion_pilot_GIST_update_2,2026.1.1,Linux armv81,59.88023952,6739e14db26d5900008e841d,69b95efdef24cd8a694e89ee,69b960f54a6040ca440812e4,0.1302,0.1303,0,45,45,28,1,threeone,,,,,,,,,,,,,,,,,,,,,,,,,,,,,,,,,,,,,,,,,,,,,,,,,,,,,,,,,,,,,,,,,,,,,,,,,,,,,,,,,,,,,,,,,,,,,,,,,,,,,,,,,,,,,,,,,,,,,,,,,,,,,,,,,,,,,,,,,
,,6739e14db26d5900008e841d,2026-03-17_16h11.57.229,kallum_motion_pilot_GIST_update_2,2026.1.1,Linux armv81,59.88023952,6739e14db26d5900008e841d,69b95efdef24cd8a694e89ee,69b960f54a6040ca440812e4,0.1311,0.1312,0,46,46,44,1,threeone,,,,,,,,,,,,,,,,,,,,,,,,,,,,,,,,,,,,,,,,,,,,,,,,,,,,,,,,,,,,,,,,,,,,,,,,,,,,,,,,,,,,,,,,,,,,,,,,,,,,,,,,,,,,,,,,,,,,,,,,,,,,,,,,,,,,,,,,,
,,6739e14db26d5900008e841d,2026-03-17_16h11.57.229,kallum_motion_pilot_GIST_update_2,2026.1.1,Linux armv81,59.88023952,6739e14db26d5900008e841d,69b95efdef24cd8a694e89ee,69b960f54a6040ca440812e4,0.1318,0.1319,0,47,47,106,1,sixfive,,,,,,,,,,,,,,,,,,,,,,,,,,,,,,,,,,,,,,,,,,,,,,,,,,,,,,,,,,,,,,,,,,,,,,,,,,,,,,,,,,,,,,,,,,,,,,,,,,,,,,,,,,,,,,,,,,,,,,,,,,,,,,,,,,,,,,,,,
,,6739e14db26d5900008e841d,2026-03-17_16h11.57.229,kallum_motion_pilot_GIST_update_2,2026.1.1,Linux armv81,59.88023952,6739e14db26d5900008e841d,69b95efdef24cd8a694e89ee,69b960f54a6040ca440812e4,0.1327,0.1327,0,48,48,121,1,fiveseven,,,,,,,,,,,,,,,,,,,,,,,,,,,,,,,,,,,,,,,,,,,,,,,,,,,,,,,,,,,,,,,,,,,,,,,,,,,,,,,,,,,,,,,,,,,,,,,,,,,,,,,,,,,,,,,,,,,,,,,,,,,,,,,,,,,,,,,,,
,,6739e14db26d5900008e841d,2026-03-17_16h11.57.229,kallum_motion_pilot_GIST_update_2,2026.1.1,Linux armv81,59.88023952,6739e14db26d5900008e841d,69b95efdef24cd8a694e89ee,69b960f54a6040ca440812e4,0.1335,0.1335,0,49,49,133,1,seveneight,,,,,,,,,,,,,,,,,,,,,,,,,,,,,,,,,,,,,,,,,,,,,,,,,,,,,,,,,,,,,,,,,,,,,,,,,,,,,,,,,,,,,,,,,,,,,,,,,,,,,,,,,,,,,,,,,,,,,,,,,,,,,,,,,,,,,,,,,
,,6739e14db26d5900008e841d,2026-03-17_16h11.57.229,kallum_motion_pilot_GIST_update_2,2026.1.1,Linux armv81,59.88023952,6739e14db26d5900008e841d,69b95efdef24cd8a694e89ee,69b960f54a6040ca440812e4,0.1342,0.1343,0,50,50,86,1,eightsix,,,,,,,,,,,,,,,,,,,,,,,,,,,,,,,,,,,,,,,,,,,,,,,,,,,,,,,,,,,,,,,,,,,,,,,,,,,,,,,,,,,,,,,,,,,,,,,,,,,,,,,,,,,,,,,,,,,,,,,,,,,,,,,,,,,,,,,,,
,,6739e14db26d5900008e841d,2026-03-17_16h11.57.229,kallum_motion_pilot_GIST_update_2,2026.1.1,Linux armv81,59.88023952,6739e14db26d5900008e841d,69b95efdef24cd8a694e89ee,69b960f54a6040ca440812e4,0.1351,0.1351,0,51,51,8,1,onetwo,,,,,,,,,,,,,,,,,,,,,,,,,,,,,,,,,,,,,,,,,,,,,,,,,,,,,,,,,,,,,,,,,,,,,,,,,,,,,,,,,,,,,,,,,,,,,,,,,,,,,,,,,,,,,,,,,,,,,,,,,,,,,,,,,,,,,,,,,
,,6739e14db26d5900008e841d,2026-03-17_16h11.57.229,kallum_motion_pilot_GIST_update_2,2026.1.1,Linux armv81,59.88023952,6739e14db26d5900008e841d,69b95efdef24cd8a694e89ee,69b960f54a6040ca440812e4,0.1359,0.1359,0,52,52,97,1,fiveseven,,,,,,,,,,,,,,,,,,,,,,,,,,,,,,,,,,,,,,,,,,,,,,,,,,,,,,,,,,,,,,,,,,,,,,,,,,,,,,,,,,,,,,,,,,,,,,,,,,,,,,,,,,,,,,,,,,,,,,,,,,,,,,,,,,,,,,,,,
,,6739e14db26d5900008e841d,2026-03-17_16h11.57.229,kallum_motion_pilot_GIST_update_2,2026.1.1,Linux armv81,59.88023952,6739e14db26d5900008e841d,69b95efdef24cd8a694e89ee,69b960f54a6040ca440812e4,0.1366,0.1366,0,53,53,13,1,threefour,,,,,,,,,,,,,,,,,,,,,,,,,,,,,,,,,,,,,,,,,,,,,,,,,,,,,,,,,,,,,,,,,,,,,,,,,,,,,,,,,,,,,,,,,,,,,,,,,,,,,,,,,,,,,,,,,,,,,,,,,,,,,,,,,,,,,,,,,
,,6739e14db26d5900008e841d,2026-03-17_16h11.57.229,kallum_motion_pilot_GIST_update_2,2026.1.1,Linux armv81,59.88023952,6739e14db26d5900008e841d,69b95efdef24cd8a694e89ee,69b960f54a6040ca440812e4,0.1374,0.1374,0,54,54,41,1,onethree,,,,,,,,,,,,,,,,,,,,,,,,,,,,,,,,,,,,,,,,,,,,,,,,,,,,,,,,,,,,,,,,,,,,,,,,,,,,,,,,,,,,,,,,,,,,,,,,,,,,,,,,,,,,,,,,,,,,,,,,,,,,,,,,,,,,,,,,,
,,6739e14db26d5900008e841d,2026-03-17_16h11.57.229,kallum_motion_pilot_GIST_update_2,2026.1.1,Linux armv81,59.88023952,6739e14db26d5900008e841d,69b95efdef24cd8a694e89ee,69b960f54a6040ca440812e4,0.1381,0.1382,0,55,55,112,1,fivesix,,,,,,,,,,,,,,,,,,,,,,,,,,,,,,,,,,,,,,,,,,,,,,,,,,,,,,,,,,,,,,,,,,,,,,,,,,,,,,,,,,,,,,,,,,,,,,,,,,,,,,,,,,,,,,,,,,,,,,,,,,,,,,,,,,,,,,,,,
,,6739e14db26d5900008e841d,2026-03-17_16h11.57.229,kallum_motion_pilot_GIST_update_2,2026.1.1,Linux armv81,59.88023952,6739e14db26d5900008e841d,69b95efdef24cd8a694e89ee,69b960f54a6040ca440812e4,0.1391,0.1391,0,56,56,122,1,sixfive,,,,,,,,,,,,,,,,,,,,,,,,,,,,,,,,,,,,,,,,,,,,,,,,,,,,,,,,,,,,,,,,,,,,,,,,,,,,,,,,,,,,,,,,,,,,,,,,,,,,,,,,,,,,,,,,,,,,,,,,,,,,,,,,,,,,,,,,,
,,6739e14db26d5900008e841d,2026-03-17_16h11.57.229,kallum_motion_pilot_GIST_update_2,2026.1.1,Linux armv81,59.88023952,6739e14db26d5900008e841d,69b95efdef24cd8a694e89ee,69b960f54a6040ca440812e4,0.1398,0.1399,0,57,57,118,1,eightsix,,,,,,,,,,,,,,,,,,,,,,,,,,,,,,,,,,,,,,,,,,,,,,,,,,,,,,,,,,,,,,,,,,,,,,,,,,,,,,,,,,,,,,,,,,,,,,,,,,,,,,,,,,,,,,,,,,,,,,,,,,,,,,,,,,,,,,,,,
,,6739e14db26d5900008e841d,2026-03-17_16h11.57.229,kallum_motion_pilot_GIST_update_2,2026.1.1,Linux armv81,59.88023952,6739e14db26d5900008e841d,69b95efdef24cd8a694e89ee,69b960f54a6040ca440812e4,0.1408,0.1408,0,58,58,51,1,twofour,,,,,,,,,,,,,,,,,,,,,,,,,,,,,,,,,,,,,,,,,,,,,,,,,,,,,,,,,,,,,,,,,,,,,,,,,,,,,,,,,,,,,,,,,,,,,,,,,,,,,,,,,,,,,,,,,,,,,,,,,,,,,,,,,,,,,,,,,
,,6739e14db26d5900008e841d,2026-03-17_16h11.57.229,kallum_motion_pilot_GIST_update_2,2026.1.1,Linux armv81,59.88023952,6739e14db26d5900008e841d,69b95efdef24cd8a694e89ee,69b960f54a6040ca440812e4,0.1416,0.1417,0,59,59,116,1,sevenfive,,,,,,,,,,,,,,,,,,,,,,,,,,,,,,,,,,,,,,,,,,,,,,,,,,,,,,,,,,,,,,,,,,,,,,,,,,,,,,,,,,,,,,,,,,,,,,,,,,,,,,,,,,,,,,,,,,,,,,,,,,,,,,,,,,,,,,,,,
,,6739e14db26d5900008e841d,2026-03-17_16h11.57.229,kallum_motion_pilot_GIST_update_2,2026.1.1,Linux armv81,59.88023952,6739e14db26d5900008e841d,69b95efdef24cd8a694e89ee,69b960f54a6040ca440812e4,0.1424,0.1425,0,60,60,142,1,eightsix,,,,,,,,,,,,,,,,,,,,,,,,,,,,,,,,,,,,,,,,,,,,,,,,,,,,,,,,,,,,,,,,,,,,,,,,,,,,,,,,,,,,,,,,,,,,,,,,,,,,,,,,,,,,,,,,,,,,,,,,,,,,,,,,,,,,,,,,,
,,6739e14db26d5900008e841d,2026-03-17_16h11.57.229,kallum_motion_pilot_GIST_update_2,2026.1.1,Linux armv81,59.88023952,6739e14db26d5900008e841d,69b95efdef24cd8a694e89ee,69b960f54a6040ca440812e4,0.1433,0.1434,0,61,61,47,1,fourthree,,,,,,,,,,,,,,,,,,,,,,,,,,,,,,,,,,,,,,,,,,,,,,,,,,,,,,,,,,,,,,,,,,,,,,,,,,,,,,,,,,,,,,,,,,,,,,,,,,,,,,,,,,,,,,,,,,,,,,,,,,,,,,,,,,,,,,,,,
,,6739e14db26d5900008e841d,2026-03-17_16h11.57.229,kallum_motion_pilot_GIST_update_2,2026.1.1,Linux armv81,59.88023952,6739e14db26d5900008e841d,69b95efdef24cd8a694e89ee,69b960f54a6040ca440812e4,0.1442,0.1443,0,62,62,60,1,threeone,,,,,,,,,,,,,,,,,,,,,,,,,,,,,,,,,,,,,,,,,,,,,,,,,,,,,,,,,,,,,,,,,,,,,,,,,,,,,,,,,,,,,,,,,,,,,,,,,,,,,,,,,,,,,,,,,,,,,,,,,,,,,,,,,,,,,,,,,
,,6739e14db26d5900008e841d,2026-03-17_16h11.57.229,kallum_motion_pilot_GIST_update_2,2026.1.1,Linux armv81,59.88023952,6739e14db26d5900008e841d,69b95efdef24cd8a694e89ee,69b960f54a6040ca440812e4,0.145,0.145,0,63,63,156,1,sevenfive,,,,,,,,,,,,,,,,,,,,,,,,,,,,,,,,,,,,,,,,,,,,,,,,,,,,,,,,,,,,,,,,,,,,,,,,,,,,,,,,,,,,,,,,,,,,,,,,,,,,,,,,,,,,,,,,,,,,,,,,,,,,,,,,,,,,,,,,,
,,6739e14db26d5900008e841d,2026-03-17_16h11.57.229,kallum_motion_pilot_GIST_update_2,2026.1.1,Linux armv81,59.88023952,6739e14db26d5900008e841d,69b95efdef24cd8a694e89ee,69b960f54a6040ca440812e4,0.1458,0.1458,0,64,64,80,1,fivesix,,,,,,,,,,,,,,,,,,,,,,,,,,,,,,,,,,,,,,,,,,,,,,,,,,,,,,,,,,,,,,,,,,,,,,,,,,,,,,,,,,,,,,,,,,,,,,,,,,,,,,,,,,,,,,,,,,,,,,,,,,,,,,,,,,,,,,,,,
,,6739e14db26d5900008e841d,2026-03-17_16h11.57.229,kallum_motion_pilot_GIST_update_2,2026.1.1,Linux armv81,59.88023952,6739e14db26d5900008e841d,69b95efdef24cd8a694e89ee,69b960f54a6040ca440812e4,0.1465,0.1466,0,65,65,135,1,eightseven,,,,,,,,,,,,,,,,,,,,,,,,,,,,,,,,,,,,,,,,,,,,,,,,,,,,,,,,,,,,,,,,,,,,,,,,,,,,,,,,,,,,,,,,,,,,,,,,,,,,,,,,,,,,,,,,,,,,,,,,,,,,,,,,,,,,,,,,,
,,6739e14db26d5900008e841d,2026-03-17_16h11.57.229,kallum_motion_pilot_GIST_update_2,2026.1.1,Linux armv81,59.88023952,6739e14db26d5900008e841d,69b95efdef24cd8a694e89ee,69b960f54a6040ca440812e4,0.1475,0.1475,0,66,66,136,1,fivesix,,,,,,,,,,,,,,,,,,,,,,,,,,,,,,,,,,,,,,,,,,,,,,,,,,,,,,,,,,,,,,,,,,,,,,,,,,,,,,,,,,,,,,,,,,,,,,,,,,,,,,,,,,,,,,,,,,,,,,,,,,,,,,,,,,,,,,,,,
,,6739e14db26d5900008e841d,2026-03-17_16h11.57.229,kallum_motion_pilot_GIST_update_2,2026.1.1,Linux armv81,59.88023952,6739e14db26d5900008e841d,69b95efdef24cd8a694e89ee,69b960f54a6040ca440812e4,0.1483,0.1483,0,67,67,87,1,eightseven,,,,,,,,,,,,,,,,,,,,,,,,,,,,,,,,,,,,,,,,,,,,,,,,,,,,,,,,,,,,,,,,,,,,,,,,,,,,,,,,,,,,,,,,,,,,,,,,,,,,,,,,,,,,,,,,,,,,,,,,,,,,,,,,,,,,,,,,,
,,6739e14db26d5900008e841d,2026-03-17_16h11.57.229,kallum_motion_pilot_GIST_update_2,2026.1.1,Linux armv81,59.88023952,6739e14db26d5900008e841d,69b95efdef24cd8a694e89ee,69b960f54a6040ca440812e4,0.1491,0.1491,0,68,68,96,1,fivesix,,,,,,,,,,,,,,,,,,,,,,,,,,,,,,,,,,,,,,,,,,,,,,,,,,,,,,,,,,,,,,,,,,,,,,,,,,,,,,,,,,,,,,,,,,,,,,,,,,,,,,,,,,,,,,,,,,,,,,,,,,,,,,,,,,,,,,,,,
,,6739e14db26d5900008e841d,2026-03-17_16h11.57.229,kallum_motion_pilot_GIST_update_2,2026.1.1,Linux armv81,59.88023952,6739e14db26d5900008e841d,69b95efdef24cd8a694e89ee,69b960f54a6040ca440812e4,0.1498,0.1499,0,69,69,137,1,fiveseven,,,,,,,,,,,,,,,,,,,,,,,,,,,,,,,,,,,,,,,,,,,,,,,,,,,,,,,,,,,,,,,,,,,,,,,,,,,,,,,,,,,,,,,,,,,,,,,,,,,,,,,,,,,,,,,,,,,,,,,,,,,,,,,,,,,,,,,,,
,,6739e14db26d5900008e841d,2026-03-17_16h11.57.229,kallum_motion_pilot_GIST_update_2,2026.1.1,Linux armv81,59.88023952,6739e14db26d5900008e841d,69b95efdef24cd8a694e89ee,69b960f54a6040ca440812e4,0.1507,0.1508,0,70,70,82,1,sixfive,,,,,,,,,,,,,,,,,,,,,,,,,,,,,,,,,,,,,,,,,,,,,,,,,,,,,,,,,,,,,,,,,,,,,,,,,,,,,,,,,,,,,,,,,,,,,,,,,,,,,,,,,,,,,,,,,,,,,,,,,,,,,,,,,,,,,,,,,
,,6739e14db26d5900008e841d,2026-03-17_16h11.57.229,kallum_motion_pilot_GIST_update_2,2026.1.1,Linux armv81,59.88023952,6739e14db26d5900008e841d,69b95efdef24cd8a694e89ee,69b960f54a6040ca440812e4,0.1516,0.1516,0,71,71,102,1,eightsix,,,,,,,,,,,,,,,,,,,,,,,,,,,,,,,,,,,,,,,,,,,,,,,,,,,,,,,,,,,,,,,,,,,,,,,,,,,,,,,,,,,,,,,,,,,,,,,,,,,,,,,,,,,,,,,,,,,,,,,,,,,,,,,,,,,,,,,,,
,,6739e14db26d5900008e841d,2026-03-17_16h11.57.229,kallum_motion_pilot_GIST_update_2,2026.1.1,Linux armv81,59.88023952,6739e14db26d5900008e841d,69b95efdef24cd8a694e89ee,69b960f54a6040ca440812e4,0.1524,0.1524,0,72,72,34,1,twoone,,,,,,,,,,,,,,,,,,,,,,,,,,,,,,,,,,,,,,,,,,,,,,,,,,,,,,,,,,,,,,,,,,,,,,,,,,,,,,,,,,,,,,,,,,,,,,,,,,,,,,,,,,,,,,,,,,,,,,,,,,,,,,,,,,,,,,,,,
,,6739e14db26d5900008e841d,2026-03-17_16h11.57.229,kallum_motion_pilot_GIST_update_2,2026.1.1,Linux armv81,59.88023952,6739e14db26d5900008e841d,69b95efdef24cd8a694e89ee,69b960f54a6040ca440812e4,0.1532,0.1532,0,73,73,42,1,twoone,,,,,,,,,,,,,,,,,,,,,,,,,,,,,,,,,,,,,,,,,,,,,,,,,,,,,,,,,,,,,,,,,,,,,,,,,,,,,,,,,,,,,,,,,,,,,,,,,,,,,,,,,,,,,,,,,,,,,,,,,,,,,,,,,,,,,,,,,
,,6739e14db26d5900008e841d,2026-03-17_16h11.57.229,kallum_motion_pilot_GIST_update_2,2026.1.1,Linux armv81,59.88023952,6739e14db26d5900008e841d,69b95efdef24cd8a694e89ee,69b960f54a6040ca440812e4,0.154,0.154,0,74,74,150,1,eightsix,,,,,,,,,,,,,,,,,,,,,,,,,,,,,,,,,,,,,,,,,,,,,,,,,,,,,,,,,,,,,,,,,,,,,,,,,,,,,,,,,,,,,,,,,,,,,,,,,,,,,,,,,,,,,,,,,,,,,,,,,,,,,,,,,,,,,,,,,
,,6739e14db26d5900008e841d,2026-03-17_16h11.57.229,kallum_motion_pilot_GIST_update_2,2026.1.1,Linux armv81,59.88023952,6739e14db26d5900008e841d,69b95efdef24cd8a694e89ee,69b960f54a6040ca440812e4,0.1549,0.1549,0,75,75,114,1,sixfive,,,,,,,,,,,,,,,,,,,,,,,,,,,,,,,,,,,,,,,,,,,,,,,,,,,,,,,,,,,,,,,,,,,,,,,,,,,,,,,,,,,,,,,,,,,,,,,,,,,,,,,,,,,,,,,,,,,,,,,,,,,,,,,,,,,,,,,,,
,,6739e14db26d5900008e841d,2026-03-17_16h11.57.229,kallum_motion_pilot_GIST_update_2,2026.1.1,Linux armv81,59.88023952,6739e14db26d5900008e841d,69b95efdef24cd8a694e89ee,69b960f54a6040ca440812e4,0.1557,0.1558,0,76,76,129,1,fiveseven,,,,,,,,,,,,,,,,,,,,,,,,,,,,,,,,,,,,,,,,,,,,,,,,,,,,,,,,,,,,,,,,,,,,,,,,,,,,,,,,,,,,,,,,,,,,,,,,,,,,,,,,,,,,,,,,,,,,,,,,,,,,,,,,,,,,,,,,,
,,6739e14db26d5900008e841d,2026-03-17_16h11.57.229,kallum_motion_pilot_GIST_update_2,2026.1.1,Linux armv81,59.88023952,6739e14db26d5900008e841d,69b95efdef24cd8a694e89ee,69b960f54a6040ca440812e4,0.1566,0.1566,0,77,77,99,1,sixeight,,,,,,,,,,,,,,,,,,,,,,,,,,,,,,,,,,,,,,,,,,,,,,,,,,,,,,,,,,,,,,,,,,,,,,,,,,,,,,,,,,,,,,,,,,,,,,,,,,,,,,,,,,,,,,,,,,,,,,,,,,,,,,,,,,,,,,,,,
,,6739e14db26d5900008e841d,2026-03-17_16h11.57.229,kallum_motion_pilot_GIST_update_2,2026.1.1,Linux armv81,59.88023952,6739e14db26d5900008e841d,69b95efdef24cd8a694e89ee,69b960f54a6040ca440812e4,0.1576,0.1576,0,78,78,111,1,eightseven,,,,,,,,,,,,,,,,,,,,,,,,,,,,,,,,,,,,,,,,,,,,,,,,,,,,,,,,,,,,,,,,,,,,,,,,,,,,,,,,,,,,,,,,,,,,,,,,,,,,,,,,,,,,,,,,,,,,,,,,,,,,,,,,,,,,,,,,,
,,6739e14db26d5900008e841d,2026-03-17_16h11.57.229,kallum_motion_pilot_GIST_update_2,2026.1.1,Linux armv81,59.88023952,6739e14db26d5900008e841d,69b95efdef24cd8a694e89ee,69b960f54a6040ca440812e4,0.1584,0.1584,0,79,79,147,1,sixeight,,,,,,,,,,,,,,,,,,,,,,,,,,,,,,,,,,,,,,,,,,,,,,,,,,,,,,,,,,,,,,,,,,,,,,,,,,,,,,,,,,,,,,,,,,,,,,,,,,,,,,,,,,,,,,,,,,,,,,,,,,,,,,,,,,,,,,,,,
,,6739e14db26d5900008e841d,2026-03-17_16h11.57.229,kallum_motion_pilot_GIST_update_2,2026.1.1,Linux armv81,59.88023952,6739e14db26d5900008e841d,69b95efdef24cd8a694e89ee,69b960f54a6040ca440812e4,0.1593,0.1593,0,80,80,92,1,sevenfive,,,,,,,,,,,,,,,,,,,,,,,,,,,,,,,,,,,,,,,,,,,,,,,,,,,,,,,,,,,,,,,,,,,,,,,,,,,,,,,,,,,,,,,,,,,,,,,,,,,,,,,,,,,,,,,,,,,,,,,,,,,,,,,,,,,,,,,,,
,,6739e14db26d5900008e841d,2026-03-17_16h11.57.229,kallum_motion_pilot_GIST_update_2,2026.1.1,Linux armv81,59.88023952,6739e14db26d5900008e841d,69b95efdef24cd8a694e89ee,69b960f54a6040ca440812e4,0.1601,0.1602,0,81,81,11,1,twofour,,,,,,,,,,,,,,,,,,,,,,,,,,,,,,,,,,,,,,,,,,,,,,,,,,,,,,,,,,,,,,,,,,,,,,,,,,,,,,,,,,,,,,,,,,,,,,,,,,,,,,,,,,,,,,,,,,,,,,,,,,,,,,,,,,,,,,,,,
,,6739e14db26d5900008e841d,2026-03-17_16h11.57.229,kallum_motion_pilot_GIST_update_2,2026.1.1,Linux armv81,59.88023952,6739e14db26d5900008e841d,69b95efdef24cd8a694e89ee,69b960f54a6040ca440812e4,0.161,0.161,0,82,82,98,1,sixfive,,,,,,,,,,,,,,,,,,,,,,,,,,,,,,,,,,,,,,,,,,,,,,,,,,,,,,,,,,,,,,,,,,,,,,,,,,,,,,,,,,,,,,,,,,,,,,,,,,,,,,,,,,,,,,,,,,,,,,,,,,,,,,,,,,,,,,,,,
,,6739e14db26d5900008e841d,2026-03-17_16h11.57.229,kallum_motion_pilot_GIST_update_2,2026.1.1,Linux armv81,59.88023952,6739e14db26d5900008e841d,69b95efdef24cd8a694e89ee,69b960f54a6040ca440812e4,0.1618,0.1618,0,83,83,26,1,twoone,,,,,,,,,,,,,,,,,,,,,,,,,,,,,,,,,,,,,,,,,,,,,,,,,,,,,,,,,,,,,,,,,,,,,,,,,,,,,,,,,,,,,,,,,,,,,,,,,,,,,,,,,,,,,,,,,,,,,,,,,,,,,,,,,,,,,,,,,
,,6739e14db26d5900008e841d,2026-03-17_16h11.57.229,kallum_motion_pilot_GIST_update_2,2026.1.1,Linux armv81,59.88023952,6739e14db26d5900008e841d,69b95efdef24cd8a694e89ee,69b960f54a6040ca440812e4,0.1626,0.1626,0,84,84,29,1,threefour,,,,,,,,,,,,,,,,,,,,,,,,,,,,,,,,,,,,,,,,,,,,,,,,,,,,,,,,,,,,,,,,,,,,,,,,,,,,,,,,,,,,,,,,,,,,,,,,,,,,,,,,,,,,,,,,,,,,,,,,,,,,,,,,,,,,,,,,,
,,6739e14db26d5900008e841d,2026-03-17_16h11.57.229,kallum_motion_pilot_GIST_update_2,2026.1.1,Linux armv81,59.88023952,6739e14db26d5900008e841d,69b95efdef24cd8a694e89ee,69b960f54a6040ca440812e4,0.1636,0.1636,0,85,85,22,1,fourtwo,,,,,,,,,,,,,,,,,,,,,,,,,,,,,,,,,,,,,,,,,,,,,,,,,,,,,,,,,,,,,,,,,,,,,,,,,,,,,,,,,,,,,,,,,,,,,,,,,,,,,,,,,,,,,,,,,,,,,,,,,,,,,,,,,,,,,,,,,
,,6739e14db26d5900008e841d,2026-03-17_16h11.57.229,kallum_motion_pilot_GIST_update_2,2026.1.1,Linux armv81,59.88023952,6739e14db26d5900008e841d,69b95efdef24cd8a694e89ee,69b960f54a6040ca440812e4,0.1644,0.1644,0,86,86,77,1,threefour,,,,,,,,,,,,,,,,,,,,,,,,,,,,,,,,,,,,,,,,,,,,,,,,,,,,,,,,,,,,,,,,,,,,,,,,,,,,,,,,,,,,,,,,,,,,,,,,,,,,,,,,,,,,,,,,,,,,,,,,,,,,,,,,,,,,,,,,,
,,6739e14db26d5900008e841d,2026-03-17_16h11.57.229,kallum_motion_pilot_GIST_update_2,2026.1.1,Linux armv81,59.88023952,6739e14db26d5900008e841d,69b95efdef24cd8a694e89ee,69b960f54a6040ca440812e4,0.1651,0.1652,0,87,87,2,1,twoone,,,,,,,,,,,,,,,,,,,,,,,,,,,,,,,,,,,,,,,,,,,,,,,,,,,,,,,,,,,,,,,,,,,,,,,,,,,,,,,,,,,,,,,,,,,,,,,,,,,,,,,,,,,,,,,,,,,,,,,,,,,,,,,,,,,,,,,,,
,,6739e14db26d5900008e841d,2026-03-17_16h11.57.229,kallum_motion_pilot_GIST_update_2,2026.1.1,Linux armv81,59.88023952,6739e14db26d5900008e841d,69b95efdef24cd8a694e89ee,69b960f54a6040ca440812e4,0.1659,0.166,0,88,88,85,1,seveneight,,,,,,,,,,,,,,,,,,,,,,,,,,,,,,,,,,,,,,,,,,,,,,,,,,,,,,,,,,,,,,,,,,,,,,,,,,,,,,,,,,,,,,,,,,,,,,,,,,,,,,,,,,,,,,,,,,,,,,,,,,,,,,,,,,,,,,,,,
,,6739e14db26d5900008e841d,2026-03-17_16h11.57.229,kallum_motion_pilot_GIST_update_2,2026.1.1,Linux armv81,59.88023952,6739e14db26d5900008e841d,69b95efdef24cd8a694e89ee,69b960f54a6040ca440812e4,0.167,0.1671,0,89,89,3,1,twofour,,,,,,,,,,,,,,,,,,,,,,,,,,,,,,,,,,,,,,,,,,,,,,,,,,,,,,,,,,,,,,,,,,,,,,,,,,,,,,,,,,,,,,,,,,,,,,,,,,,,,,,,,,,,,,,,,,,,,,,,,,,,,,,,,,,,,,,,,
,,6739e14db26d5900008e841d,2026-03-17_16h11.57.229,kallum_motion_pilot_GIST_update_2,2026.1.1,Linux armv81,59.88023952,6739e14db26d5900008e841d,69b95efdef24cd8a694e89ee,69b960f54a6040ca440812e4,0.1679,0.1679,0,90,90,30,1,fourtwo,,,,,,,,,,,,,,,,,,,,,,,,,,,,,,,,,,,,,,,,,,,,,,,,,,,,,,,,,,,,,,,,,,,,,,,,,,,,,,,,,,,,,,,,,,,,,,,,,,,,,,,,,,,,,,,,,,,,,,,,,,,,,,,,,,,,,,,,,
,,6739e14db26d5900008e841d,2026-03-17_16h11.57.229,kallum_motion_pilot_GIST_update_2,2026.1.1,Linux armv81,59.88023952,6739e14db26d5900008e841d,69b95efdef24cd8a694e89ee,69b960f54a6040ca440812e4,0.1687,0.1688,0,91,91,23,1,fourthree,,,,,,,,,,,,,,,,,,,,,,,,,,,,,,,,,,,,,,,,,,,,,,,,,,,,,,,,,,,,,,,,,,,,,,,,,,,,,,,,,,,,,,,,,,,,,,,,,,,,,,,,,,,,,,,,,,,,,,,,,,,,,,,,,,,,,,,,,
,,6739e14db26d5900008e841d,2026-03-17_16h11.57.229,kallum_motion_pilot_GIST_update_2,2026.1.1,Linux armv81,59.88023952,6739e14db26d5900008e841d,69b95efdef24cd8a694e89ee,69b960f54a6040ca440812e4,0.1696,0.1696,0,92,92,100,1,sevenfive,,,,,,,,,,,,,,,,,,,,,,,,,,,,,,,,,,,,,,,,,,,,,,,,,,,,,,,,,,,,,,,,,,,,,,,,,,,,,,,,,,,,,,,,,,,,,,,,,,,,,,,,,,,,,,,,,,,,,,,,,,,,,,,,,,,,,,,,,
,,6739e14db26d5900008e841d,2026-03-17_16h11.57.229,kallum_motion_pilot_GIST_update_2,2026.1.1,Linux armv81,59.88023952,6739e14db26d5900008e841d,69b95efdef24cd8a694e89ee,69b960f54a6040ca440812e4,0.1705,0.1705,0,93,93,9,1,onethree,,,,,,,,,,,,,,,,,,,,,,,,,,,,,,,,,,,,,,,,,,,,,,,,,,,,,,,,,,,,,,,,,,,,,,,,,,,,,,,,,,,,,,,,,,,,,,,,,,,,,,,,,,,,,,,,,,,,,,,,,,,,,,,,,,,,,,,,,
,,6739e14db26d5900008e841d,2026-03-17_16h11.57.229,kallum_motion_pilot_GIST_update_2,2026.1.1,Linux armv81,59.88023952,6739e14db26d5900008e841d,69b95efdef24cd8a694e89ee,69b960f54a6040ca440812e4,0.1714,0.1714,0,94,94,110,1,eightsix,,,,,,,,,,,,,,,,,,,,,,,,,,,,,,,,,,,,,,,,,,,,,,,,,,,,,,,,,,,,,,,,,,,,,,,,,,,,,,,,,,,,,,,,,,,,,,,,,,,,,,,,,,,,,,,,,,,,,,,,,,,,,,,,,,,,,,,,,
,,6739e14db26d5900008e841d,2026-03-17_16h11.57.229,kallum_motion_pilot_GIST_update_2,2026.1.1,Linux armv81,59.88023952,6739e14db26d5900008e841d,69b95efdef24cd8a694e89ee,69b960f54a6040ca440812e4,0.1722,0.1723,0,95,95,59,1,twofour,,,,,,,,,,,,,,,,,,,,,,,,,,,,,,,,,,,,,,,,,,,,,,,,,,,,,,,,,,,,,,,,,,,,,,,,,,,,,,,,,,,,,,,,,,,,,,,,,,,,,,,,,,,,,,,,,,,,,,,,,,,,,,,,,,,,,,,,,
,,6739e14db26d5900008e841d,2026-03-17_16h11.57.229,kallum_motion_pilot_GIST_update_2,2026.1.1,Linux armv81,59.88023952,6739e14db26d5900008e841d,69b95efdef24cd8a694e89ee,69b960f54a6040ca440812e4,0.1731,0.1731,0,96,96,66,1,twoone,,,,,,,,,,,,,,,,,,,,,,,,,,,,,,,,,,,,,,,,,,,,,,,,,,,,,,,,,,,,,,,,,,,,,,,,,,,,,,,,,,,,,,,,,,,,,,,,,,,,,,,,,,,,,,,,,,,,,,,,,,,,,,,,,,,,,,,,,
,,6739e14db26d5900008e841d,2026-03-17_16h11.57.229,kallum_motion_pilot_GIST_update_2,2026.1.1,Linux armv81,59.88023952,6739e14db26d5900008e841d,69b95efdef24cd8a694e89ee,69b960f54a6040ca440812e4,0.174,0.1741,0,97,97,101,1,seveneight,,,,,,,,,,,,,,,,,,,,,,,,,,,,,,,,,,,,,,,,,,,,,,,,,,,,,,,,,,,,,,,,,,,,,,,,,,,,,,,,,,,,,,,,,,,,,,,,,,,,,,,,,,,,,,,,,,,,,,,,,,,,,,,,,,,,,,,,,
,,6739e14db26d5900008e841d,2026-03-17_16h11.57.229,kallum_motion_pilot_GIST_update_2,2026.1.1,Linux armv81,59.88023952,6739e14db26d5900008e841d,69b95efdef24cd8a694e89ee,69b960f54a6040ca440812e4,0.175,0.175,0,98,98,89,1,fiveseven,,,,,,,,,,,,,,,,,,,,,,,,,,,,,,,,,,,,,,,,,,,,,,,,,,,,,,,,,,,,,,,,,,,,,,,,,,,,,,,,,,,,,,,,,,,,,,,,,,,,,,,,,,,,,,,,,,,,,,,,,,,,,,,,,,,,,,,,,
,,6739e14db26d5900008e841d,2026-03-17_16h11.57.229,kallum_motion_pilot_GIST_update_2,2026.1.1,Linux armv81,59.88023952,6739e14db26d5900008e841d,69b95efdef24cd8a694e89ee,69b960f54a6040ca440812e4,0.1758,0.1759,0,99,99,21,1,threefour,,,,,,,,,,,,,,,,,,,,,,,,,,,,,,,,,,,,,,,,,,,,,,,,,,,,,,,,,,,,,,,,,,,,,,,,,,,,,,,,,,,,,,,,,,,,,,,,,,,,,,,,,,,,,,,,,,,,,,,,,,,,,,,,,,,,,,,,,
,,6739e14db26d5900008e841d,2026-03-17_16h11.57.229,kallum_motion_pilot_GIST_update_2,2026.1.1,Linux armv81,59.88023952,6739e14db26d5900008e841d,69b95efdef24cd8a694e89ee,69b960f54a6040ca440812e4,0.1767,0.1768,0,100,100,115,1,sixeight,,,,,,,,,,,,,,,,,,,,,,,,,,,,,,,,,,,,,,,,,,,,,,,,,,,,,,,,,,,,,,,,,,,,,,,,,,,,,,,,,,,,,,,,,,,,,,,,,,,,,,,,,,,,,,,,,,,,,,,,,,,,,,,,,,,,,,,,,
,,6739e14db26d5900008e841d,2026-03-17_16h11.57.229,kallum_motion_pilot_GIST_update_2,2026.1.1,Linux armv81,59.88023952,6739e14db26d5900008e841d,69b95efdef24cd8a694e89ee,69b960f54a6040ca440812e4,0.1775,0.1777,0,101,101,10,1,twoone,,,,,,,,,,,,,,,,,,,,,,,,,,,,,,,,,,,,,,,,,,,,,,,,,,,,,,,,,,,,,,,,,,,,,,,,,,,,,,,,,,,,,,,,,,,,,,,,,,,,,,,,,,,,,,,,,,,,,,,,,,,,,,,,,,,,,,,,,
,,6739e14db26d5900008e841d,2026-03-17_16h11.57.229,kallum_motion_pilot_GIST_update_2,2026.1.1,Linux armv81,59.88023952,6739e14db26d5900008e841d,69b95efdef24cd8a694e89ee,69b960f54a6040ca440812e4,0.1784,0.1785,0,102,102,149,1,seveneight,,,,,,,,,,,,,,,,,,,,,,,,,,,,,,,,,,,,,,,,,,,,,,,,,,,,,,,,,,,,,,,,,,,,,,,,,,,,,,,,,,,,,,,,,,,,,,,,,,,,,,,,,,,,,,,,,,,,,,,,,,,,,,,,,,,,,,,,,
,,6739e14db26d5900008e841d,2026-03-17_16h11.57.229,kallum_motion_pilot_GIST_update_2,2026.1.1,Linux armv81,59.88023952,6739e14db26d5900008e841d,69b95efdef24cd8a694e89ee,69b960f54a6040ca440812e4,0.1793,0.1793,0,103,103,43,1,twofour,,,,,,,,,,,,,,,,,,,,,,,,,,,,,,,,,,,,,,,,,,,,,,,,,,,,,,,,,,,,,,,,,,,,,,,,,,,,,,,,,,,,,,,,,,,,,,,,,,,,,,,,,,,,,,,,,,,,,,,,,,,,,,,,,,,,,,,,,
,,6739e14db26d5900008e841d,2026-03-17_16h11.57.229,kallum_motion_pilot_GIST_update_2,2026.1.1,Linux armv81,59.88023952,6739e14db26d5900008e841d,69b95efdef24cd8a694e89ee,69b960f54a6040ca440812e4,0.1802,0.1802,0,104,104,74,1,twoone,,,,,,,,,,,,,,,,,,,,,,,,,,,,,,,,,,,,,,,,,,,,,,,,,,,,,,,,,,,,,,,,,,,,,,,,,,,,,,,,,,,,,,,,,,,,,,,,,,,,,,,,,,,,,,,,,,,,,,,,,,,,,,,,,,,,,,,,,
,,6739e14db26d5900008e841d,2026-03-17_16h11.57.229,kallum_motion_pilot_GIST_update_2,2026.1.1,Linux armv81,59.88023952,6739e14db26d5900008e841d,69b95efdef24cd8a694e89ee,69b960f54a6040ca440812e4,0.1809,0.181,0,105,105,52,1,threeone,,,,,,,,,,,,,,,,,,,,,,,,,,,,,,,,,,,,,,,,,,,,,,,,,,,,,,,,,,,,,,,,,,,,,,,,,,,,,,,,,,,,,,,,,,,,,,,,,,,,,,,,,,,,,,,,,,,,,,,,,,,,,,,,,,,,,,,,,
,,6739e14db26d5900008e841d,2026-03-17_16h11.57.229,kallum_motion_pilot_GIST_update_2,2026.1.1,Linux armv81,59.88023952,6739e14db26d5900008e841d,69b95efdef24cd8a694e89ee,69b960f54a6040ca440812e4,0.1819,0.1819,0,106,106,18,1,twoone,,,,,,,,,,,,,,,,,,,,,,,,,,,,,,,,,,,,,,,,,,,,,,,,,,,,,,,,,,,,,,,,,,,,,,,,,,,,,,,,,,,,,,,,,,,,,,,,,,,,,,,,,,,,,,,,,,,,,,,,,,,,,,,,,,,,,,,,,
,,6739e14db26d5900008e841d,2026-03-17_16h11.57.229,kallum_motion_pilot_GIST_update_2,2026.1.1,Linux armv81,59.88023952,6739e14db26d5900008e841d,69b95efdef24cd8a694e89ee,69b960f54a6040ca440812e4,0.1861,0.1862,0,107,107,14,1,fourtwo,,,,,,,,,,,,,,,,,,,,,,,,,,,,,,,,,,,,,,,,,,,,,,,,,,,,,,,,,,,,,,,,,,,,,,,,,,,,,,,,,,,,,,,,,,,,,,,,,,,,,,,,,,,,,,,,,,,,,,,,,,,,,,,,,,,,,,,,,
,,6739e14db26d5900008e841d,2026-03-17_16h11.57.229,kallum_motion_pilot_GIST_update_2,2026.1.1,Linux armv81,59.88023952,6739e14db26d5900008e841d,69b95efdef24cd8a694e89ee,69b960f54a6040ca440812e4,0.1872,0.1872,0,108,108,7,1,fourthree,,,,,,,,,,,,,,,,,,,,,,,,,,,,,,,,,,,,,,,,,,,,,,,,,,,,,,,,,,,,,,,,,,,,,,,,,,,,,,,,,,,,,,,,,,,,,,,,,,,,,,,,,,,,,,,,,,,,,,,,,,,,,,,,,,,,,,,,,
,,6739e14db26d5900008e841d,2026-03-17_16h11.57.229,kallum_motion_pilot_GIST_update_2,2026.1.1,Linux armv81,59.88023952,6739e14db26d5900008e841d,69b95efdef24cd8a694e89ee,69b960f54a6040ca440812e4,0.1881,0.1881,0,109,109,45,1,threefour,,,,,,,,,,,,,,,,,,,,,,,,,,,,,,,,,,,,,,,,,,,,,,,,,,,,,,,,,,,,,,,,,,,,,,,,,,,,,,,,,,,,,,,,,,,,,,,,,,,,,,,,,,,,,,,,,,,,,,,,,,,,,,,,,,,,,,,,,
,,6739e14db26d5900008e841d,2026-03-17_16h11.57.229,kallum_motion_pilot_GIST_update_2,2026.1.1,Linux armv81,59.88023952,6739e14db26d5900008e841d,69b95efdef24cd8a694e89ee,69b960f54a6040ca440812e4,0.1889,0.189,0,110,110,36,1,threeone,,,,,,,,,,,,,,,,,,,,,,,,,,,,,,,,,,,,,,,,,,,,,,,,,,,,,,,,,,,,,,,,,,,,,,,,,,,,,,,,,,,,,,,,,,,,,,,,,,,,,,,,,,,,,,,,,,,,,,,,,,,,,,,,,,,,,,,,,
,,6739e14db26d5900008e841d,2026-03-17_16h11.57.229,kallum_motion_pilot_GIST_update_2,2026.1.1,Linux armv81,59.88023952,6739e14db26d5900008e841d,69b95efdef24cd8a694e89ee,69b960f54a6040ca440812e4,0.1898,0.1898,0,111,111,35,1,twofour,,,,,,,,,,,,,,,,,,,,,,,,,,,,,,,,,,,,,,,,,,,,,,,,,,,,,,,,,,,,,,,,,,,,,,,,,,,,,,,,,,,,,,,,,,,,,,,,,,,,,,,,,,,,,,,,,,,,,,,,,,,,,,,,,,,,,,,,,
,,6739e14db26d5900008e841d,2026-03-17_16h11.57.229,kallum_motion_pilot_GIST_update_2,2026.1.1,Linux armv81,59.88023952,6739e14db26d5900008e841d,69b95efdef24cd8a694e89ee,69b960f54a6040ca440812e4,0.1908,0.1909,0,112,112,58,1,twoone,,,,,,,,,,,,,,,,,,,,,,,,,,,,,,,,,,,,,,,,,,,,,,,,,,,,,,,,,,,,,,,,,,,,,,,,,,,,,,,,,,,,,,,,,,,,,,,,,,,,,,,,,,,,,,,,,,,,,,,,,,,,,,,,,,,,,,,,,
,,6739e14db26d5900008e841d,2026-03-17_16h11.57.229,kallum_motion_pilot_GIST_update_2,2026.1.1,Linux armv81,59.88023952,6739e14db26d5900008e841d,69b95efdef24cd8a694e89ee,69b960f54a6040ca440812e4,0.1917,0.1918,0,113,113,95,1,eightseven,,,,,,,,,,,,,,,,,,,,,,,,,,,,,,,,,,,,,,,,,,,,,,,,,,,,,,,,,,,,,,,,,,,,,,,,,,,,,,,,,,,,,,,,,,,,,,,,,,,,,,,,,,,,,,,,,,,,,,,,,,,,,,,,,,,,,,,,,
,,6739e14db26d5900008e841d,2026-03-17_16h11.57.229,kallum_motion_pilot_GIST_update_2,2026.1.1,Linux armv81,59.88023952,6739e14db26d5900008e841d,69b95efdef24cd8a694e89ee,69b960f54a6040ca440812e4,0.1926,0.1926,0,114,114,138,1,sixfive,,,,,,,,,,,,,,,,,,,,,,,,,,,,,,,,,,,,,,,,,,,,,,,,,,,,,,,,,,,,,,,,,,,,,,,,,,,,,,,,,,,,,,,,,,,,,,,,,,,,,,,,,,,,,,,,,,,,,,,,,,,,,,,,,,,,,,,,,
,,6739e14db26d5900008e841d,2026-03-17_16h11.57.229,kallum_motion_pilot_GIST_update_2,2026.1.1,Linux armv81,59.88023952,6739e14db26d5900008e841d,69b95efdef24cd8a694e89ee,69b960f54a6040ca440812e4,0.1934,0.1935,0,115,115,88,1,fivesix,,,,,,,,,,,,,,,,,,,,,,,,,,,,,,,,,,,,,,,,,,,,,,,,,,,,,,,,,,,,,,,,,,,,,,,,,,,,,,,,,,,,,,,,,,,,,,,,,,,,,,,,,,,,,,,,,,,,,,,,,,,,,,,,,,,,,,,,,
,,6739e14db26d5900008e841d,2026-03-17_16h11.57.229,kallum_motion_pilot_GIST_update_2,2026.1.1,Linux armv81,59.88023952,6739e14db26d5900008e841d,69b95efdef24cd8a694e89ee,69b960f54a6040ca440812e4,0.1943,0.1944,0,116,116,70,1,fourtwo,,,,,,,,,,,,,,,,,,,,,,,,,,,,,,,,,,,,,,,,,,,,,,,,,,,,,,,,,,,,,,,,,,,,,,,,,,,,,,,,,,,,,,,,,,,,,,,,,,,,,,,,,,,,,,,,,,,,,,,,,,,,,,,,,,,,,,,,,
,,6739e14db26d5900008e841d,2026-03-17_16h11.57.229,kallum_motion_pilot_GIST_update_2,2026.1.1,Linux armv81,59.88023952,6739e14db26d5900008e841d,69b95efdef24cd8a694e89ee,69b960f54a6040ca440812e4,0.1953,0.1954,0,117,117,73,1,onethree,,,,,,,,,,,,,,,,,,,,,,,,,,,,,,,,,,,,,,,,,,,,,,,,,,,,,,,,,,,,,,,,,,,,,,,,,,,,,,,,,,,,,,,,,,,,,,,,,,,,,,,,,,,,,,,,,,,,,,,,,,,,,,,,,,,,,,,,,
,,6739e14db26d5900008e841d,2026-03-17_16h11.57.229,kallum_motion_pilot_GIST_update_2,2026.1.1,Linux armv81,59.88023952,6739e14db26d5900008e841d,69b95efdef24cd8a694e89ee,69b960f54a6040ca440812e4,0.1961,0.1962,0,118,118,119,1,eightseven,,,,,,,,,,,,,,,,,,,,,,,,,,,,,,,,,,,,,,,,,,,,,,,,,,,,,,,,,,,,,,,,,,,,,,,,,,,,,,,,,,,,,,,,,,,,,,,,,,,,,,,,,,,,,,,,,,,,,,,,,,,,,,,,,,,,,,,,,
,,6739e14db26d5900008e841d,2026-03-17_16h11.57.229,kallum_motion_pilot_GIST_update_2,2026.1.1,Linux armv81,59.88023952,6739e14db26d5900008e841d,69b95efdef24cd8a694e89ee,69b960f54a6040ca440812e4,0.1971,0.1971,0,119,119,71,1,fourthree,,,,,,,,,,,,,,,,,,,,,,,,,,,,,,,,,,,,,,,,,,,,,,,,,,,,,,,,,,,,,,,,,,,,,,,,,,,,,,,,,,,,,,,,,,,,,,,,,,,,,,,,,,,,,,,,,,,,,,,,,,,,,,,,,,,,,,,,,
,,6739e14db26d5900008e841d,2026-03-17_16h11.57.229,kallum_motion_pilot_GIST_update_2,2026.1.1,Linux armv81,59.88023952,6739e14db26d5900008e841d,69b95efdef24cd8a694e89ee,69b960f54a6040ca440812e4,0.198,0.1981,0,120,120,83,1,sixeight,,,,,,,,,,,,,,,,,,,,,,,,,,,,,,,,,,,,,,,,,,,,,,,,,,,,,,,,,,,,,,,,,,,,,,,,,,,,,,,,,,,,,,,,,,,,,,,,,,,,,,,,,,,,,,,,,,,,,,,,,,,,,,,,,,,,,,,,,
,,6739e14db26d5900008e841d,2026-03-17_16h11.57.229,kallum_motion_pilot_GIST_update_2,2026.1.1,Linux armv81,59.88023952,6739e14db26d5900008e841d,69b95efdef24cd8a694e89ee,69b960f54a6040ca440812e4,0.1989,0.199,0,121,121,0,1,onetwo,,,,,,,,,,,,,,,,,,,,,,,,,,,,,,,,,,,,,,,,,,,,,,,,,,,,,,,,,,,,,,,,,,,,,,,,,,,,,,,,,,,,,,,,,,,,,,,,,,,,,,,,,,,,,,,,,,,,,,,,,,,,,,,,,,,,,,,,,
,,6739e14db26d5900008e841d,2026-03-17_16h11.57.229,kallum_motion_pilot_GIST_update_2,2026.1.1,Linux armv81,59.88023952,6739e14db26d5900008e841d,69b95efdef24cd8a694e89ee,69b960f54a6040ca440812e4,0.1999,0.1999,0,122,122,32,1,onetwo,,,,,,,,,,,,,,,,,,,,,,,,,,,,,,,,,,,,,,,,,,,,,,,,,,,,,,,,,,,,,,,,,,,,,,,,,,,,,,,,,,,,,,,,,,,,,,,,,,,,,,,,,,,,,,,,,,,,,,,,,,,,,,,,,,,,,,,,,
,,6739e14db26d5900008e841d,2026-03-17_16h11.57.229,kallum_motion_pilot_GIST_update_2,2026.1.1,Linux armv81,59.88023952,6739e14db26d5900008e841d,69b95efdef24cd8a694e89ee,69b960f54a6040ca440812e4,0.201,0.201,0,123,123,103,1,eightseven,,,,,,,,,,,,,,,,,,,,,,,,,,,,,,,,,,,,,,,,,,,,,,,,,,,,,,,,,,,,,,,,,,,,,,,,,,,,,,,,,,,,,,,,,,,,,,,,,,,,,,,,,,,,,,,,,,,,,,,,,,,,,,,,,,,,,,,,,
,,6739e14db26d5900008e841d,2026-03-17_16h11.57.229,kallum_motion_pilot_GIST_update_2,2026.1.1,Linux armv81,59.88023952,6739e14db26d5900008e841d,69b95efdef24cd8a694e89ee,69b960f54a6040ca440812e4,0.2021,0.2021,0,124,124,49,1,onethree,,,,,,,,,,,,,,,,,,,,,,,,,,,,,,,,,,,,,,,,,,,,,,,,,,,,,,,,,,,,,,,,,,,,,,,,,,,,,,,,,,,,,,,,,,,,,,,,,,,,,,,,,,,,,,,,,,,,,,,,,,,,,,,,,,,,,,,,,
,,6739e14db26d5900008e841d,2026-03-17_16h11.57.229,kallum_motion_pilot_GIST_update_2,2026.1.1,Linux armv81,59.88023952,6739e14db26d5900008e841d,69b95efdef24cd8a694e89ee,69b960f54a6040ca440812e4,0.2031,0.2032,0,125,125,55,1,fourthree,,,,,,,,,,,,,,,,,,,,,,,,,,,,,,,,,,,,,,,,,,,,,,,,,,,,,,,,,,,,,,,,,,,,,,,,,,,,,,,,,,,,,,,,,,,,,,,,,,,,,,,,,,,,,,,,,,,,,,,,,,,,,,,,,,,,,,,,,
,,6739e14db26d5900008e841d,2026-03-17_16h11.57.229,kallum_motion_pilot_GIST_update_2,2026.1.1,Linux armv81,59.88023952,6739e14db26d5900008e841d,69b95efdef24cd8a694e89ee,69b960f54a6040ca440812e4,0.204,0.2041,0,126,126,125,1,seveneight,,,,,,,,,,,,,,,,,,,,,,,,,,,,,,,,,,,,,,,,,,,,,,,,,,,,,,,,,,,,,,,,,,,,,,,,,,,,,,,,,,,,,,,,,,,,,,,,,,,,,,,,,,,,,,,,,,,,,,,,,,,,,,,,,,,,,,,,,
,,6739e14db26d5900008e841d,2026-03-17_16h11.57.229,kallum_motion_pilot_GIST_update_2,2026.1.1,Linux armv81,59.88023952,6739e14db26d5900008e841d,69b95efdef24cd8a694e89ee,69b960f54a6040ca440812e4,0.2048,0.2049,0,127,127,93,1,seveneight,,,,,,,,,,,,,,,,,,,,,,,,,,,,,,,,,,,,,,,,,,,,,,,,,,,,,,,,,,,,,,,,,,,,,,,,,,,,,,,,,,,,,,,,,,,,,,,,,,,,,,,,,,,,,,,,,,,,,,,,,,,,,,,,,,,,,,,,,
,,6739e14db26d5900008e841d,2026-03-17_16h11.57.229,kallum_motion_pilot_GIST_update_2,2026.1.1,Linux armv81,59.88023952,6739e14db26d5900008e841d,69b95efdef24cd8a694e89ee,69b960f54a6040ca440812e4,0.2057,0.2058,0,128,128,64,1,onetwo,,,,,,,,,,,,,,,,,,,,,,,,,,,,,,,,,,,,,,,,,,,,,,,,,,,,,,,,,,,,,,,,,,,,,,,,,,,,,,,,,,,,,,,,,,,,,,,,,,,,,,,,,,,,,,,,,,,,,,,,,,,,,,,,,,,,,,,,,
,,6739e14db26d5900008e841d,2026-03-17_16h11.57.229,kallum_motion_pilot_GIST_update_2,2026.1.1,Linux armv81,59.88023952,6739e14db26d5900008e841d,69b95efdef24cd8a694e89ee,69b960f54a6040ca440812e4,0.2066,0.2067,0,129,129,20,1,threeone,,,,,,,,,,,,,,,,,,,,,,,,,,,,,,,,,,,,,,,,,,,,,,,,,,,,,,,,,,,,,,,,,,,,,,,,,,,,,,,,,,,,,,,,,,,,,,,,,,,,,,,,,,,,,,,,,,,,,,,,,,,,,,,,,,,,,,,,,
,,6739e14db26d5900008e841d,2026-03-17_16h11.57.229,kallum_motion_pilot_GIST_update_2,2026.1.1,Linux armv81,59.88023952,6739e14db26d5900008e841d,69b95efdef24cd8a694e89ee,69b960f54a6040ca440812e4,0.2077,0.2078,0,130,130,69,1,threefour,,,,,,,,,,,,,,,,,,,,,,,,,,,,,,,,,,,,,,,,,,,,,,,,,,,,,,,,,,,,,,,,,,,,,,,,,,,,,,,,,,,,,,,,,,,,,,,,,,,,,,,,,,,,,,,,,,,,,,,,,,,,,,,,,,,,,,,,,
,,6739e14db26d5900008e841d,2026-03-17_16h11.57.229,kallum_motion_pilot_GIST_update_2,2026.1.1,Linux armv81,59.88023952,6739e14db26d5900008e841d,69b95efdef24cd8a694e89ee,69b960f54a6040ca440812e4,0.2086,0.2087,0,131,131,31,1,fourthree,,,,,,,,,,,,,,,,,,,,,,,,,,,,,,,,,,,,,,,,,,,,,,,,,,,,,,,,,,,,,,,,,,,,,,,,,,,,,,,,,,,,,,,,,,,,,,,,,,,,,,,,,,,,,,,,,,,,,,,,,,,,,,,,,,,,,,,,,
,,6739e14db26d5900008e841d,2026-03-17_16h11.57.229,kallum_motion_pilot_GIST_update_2,2026.1.1,Linux armv81,59.88023952,6739e14db26d5900008e841d,69b95efdef24cd8a694e89ee,69b960f54a6040ca440812e4,0.2095,0.2096,0,132,132,126,1,eightsix,,,,,,,,,,,,,,,,,,,,,,,,,,,,,,,,,,,,,,,,,,,,,,,,,,,,,,,,,,,,,,,,,,,,,,,,,,,,,,,,,,,,,,,,,,,,,,,,,,,,,,,,,,,,,,,,,,,,,,,,,,,,,,,,,,,,,,,,,
,,6739e14db26d5900008e841d,2026-03-17_16h11.57.229,kallum_motion_pilot_GIST_update_2,2026.1.1,Linux armv81,59.88023952,6739e14db26d5900008e841d,69b95efdef24cd8a694e89ee,69b960f54a6040ca440812e4,0.2104,0.2105,0,133,133,151,1,eightseven,,,,,,,,,,,,,,,,,,,,,,,,,,,,,,,,,,,,,,,,,,,,,,,,,,,,,,,,,,,,,,,,,,,,,,,,,,,,,,,,,,,,,,,,,,,,,,,,,,,,,,,,,,,,,,,,,,,,,,,,,,,,,,,,,,,,,,,,,
,,6739e14db26d5900008e841d,2026-03-17_16h11.57.229,kallum_motion_pilot_GIST_update_2,2026.1.1,Linux armv81,59.88023952,6739e14db26d5900008e841d,69b95efdef24cd8a694e89ee,69b960f54a6040ca440812e4,0.2113,0.2114,0,134,134,130,1,sixfive,,,,,,,,,,,,,,,,,,,,,,,,,,,,,,,,,,,,,,,,,,,,,,,,,,,,,,,,,,,,,,,,,,,,,,,,,,,,,,,,,,,,,,,,,,,,,,,,,,,,,,,,,,,,,,,,,,,,,,,,,,,,,,,,,,,,,,,,,
,,6739e14db26d5900008e841d,2026-03-17_16h11.57.229,kallum_motion_pilot_GIST_update_2,2026.1.1,Linux armv81,59.88023952,6739e14db26d5900008e841d,69b95efdef24cd8a694e89ee,69b960f54a6040ca440812e4,0.2122,0.2123,0,135,135,105,1,fiveseven,,,,,,,,,,,,,,,,,,,,,,,,,,,,,,,,,,,,,,,,,,,,,,,,,,,,,,,,,,,,,,,,,,,,,,,,,,,,,,,,,,,,,,,,,,,,,,,,,,,,,,,,,,,,,,,,,,,,,,,,,,,,,,,,,,,,,,,,,
,,6739e14db26d5900008e841d,2026-03-17_16h11.57.229,kallum_motion_pilot_GIST_update_2,2026.1.1,Linux armv81,59.88023952,6739e14db26d5900008e841d,69b95efdef24cd8a694e89ee,69b960f54a6040ca440812e4,0.2131,0.2131,0,136,136,72,1,onetwo,,,,,,,,,,,,,,,,,,,,,,,,,,,,,,,,,,,,,,,,,,,,,,,,,,,,,,,,,,,,,,,,,,,,,,,,,,,,,,,,,,,,,,,,,,,,,,,,,,,,,,,,,,,,,,,,,,,,,,,,,,,,,,,,,,,,,,,,,
,,6739e14db26d5900008e841d,2026-03-17_16h11.57.229,kallum_motion_pilot_GIST_update_2,2026.1.1,Linux armv81,59.88023952,6739e14db26d5900008e841d,69b95efdef24cd8a694e89ee,69b960f54a6040ca440812e4,0.2139,0.214,0,137,137,81,1,fiveseven,,,,,,,,,,,,,,,,,,,,,,,,,,,,,,,,,,,,,,,,,,,,,,,,,,,,,,,,,,,,,,,,,,,,,,,,,,,,,,,,,,,,,,,,,,,,,,,,,,,,,,,,,,,,,,,,,,,,,,,,,,,,,,,,,,,,,,,,,
,,6739e14db26d5900008e841d,2026-03-17_16h11.57.229,kallum_motion_pilot_GIST_update_2,2026.1.1,Linux armv81,59.88023952,6739e14db26d5900008e841d,69b95efdef24cd8a694e89ee,69b960f54a6040ca440812e4,0.2149,0.2149,0,138,138,62,1,fourtwo,,,,,,,,,,,,,,,,,,,,,,,,,,,,,,,,,,,,,,,,,,,,,,,,,,,,,,,,,,,,,,,,,,,,,,,,,,,,,,,,,,,,,,,,,,,,,,,,,,,,,,,,,,,,,,,,,,,,,,,,,,,,,,,,,,,,,,,,,
,,6739e14db26d5900008e841d,2026-03-17_16h11.57.229,kallum_motion_pilot_GIST_update_2,2026.1.1,Linux armv81,59.88023952,6739e14db26d5900008e841d,69b95efdef24cd8a694e89ee,69b960f54a6040ca440812e4,0.2158,0.2159,0,139,139,140,1,sevenfive,,,,,,,,,,,,,,,,,,,,,,,,,,,,,,,,,,,,,,,,,,,,,,,,,,,,,,,,,,,,,,,,,,,,,,,,,,,,,,,,,,,,,,,,,,,,,,,,,,,,,,,,,,,,,,,,,,,,,,,,,,,,,,,,,,,,,,,,,
,,6739e14db26d5900008e841d,2026-03-17_16h11.57.229,kallum_motion_pilot_GIST_update_2,2026.1.1,Linux armv81,59.88023952,6739e14db26d5900008e841d,69b95efdef24cd8a694e89ee,69b960f54a6040ca440812e4,0.2167,0.2167,0,140,140,132,1,sevenfive,,,,,,,,,,,,,,,,,,,,,,,,,,,,,,,,,,,,,,,,,,,,,,,,,,,,,,,,,,,,,,,,,,,,,,,,,,,,,,,,,,,,,,,,,,,,,,,,,,,,,,,,,,,,,,,,,,,,,,,,,,,,,,,,,,,,,,,,,
,,6739e14db26d5900008e841d,2026-03-17_16h11.57.229,kallum_motion_pilot_GIST_update_2,2026.1.1,Linux armv81,59.88023952,6739e14db26d5900008e841d,69b95efdef24cd8a694e89ee,69b960f54a6040ca440812e4,0.2176,0.2176,0,141,141,50,1,twoone,,,,,,,,,,,,,,,,,,,,,,,,,,,,,,,,,,,,,,,,,,,,,,,,,,,,,,,,,,,,,,,,,,,,,,,,,,,,,,,,,,,,,,,,,,,,,,,,,,,,,,,,,,,,,,,,,,,,,,,,,,,,,,,,,,,,,,,,,
,,6739e14db26d5900008e841d,2026-03-17_16h11.57.229,kallum_motion_pilot_GIST_update_2,2026.1.1,Linux armv81,59.88023952,6739e14db26d5900008e841d,69b95efdef24cd8a694e89ee,69b960f54a6040ca440812e4,0.2185,0.2186,0,142,142,39,1,fourthree,,,,,,,,,,,,,,,,,,,,,,,,,,,,,,,,,,,,,,,,,,,,,,,,,,,,,,,,,,,,,,,,,,,,,,,,,,,,,,,,,,,,,,,,,,,,,,,,,,,,,,,,,,,,,,,,,,,,,,,,,,,,,,,,,,,,,,,,,
,,6739e14db26d5900008e841d,2026-03-17_16h11.57.229,kallum_motion_pilot_GIST_update_2,2026.1.1,Linux armv81,59.88023952,6739e14db26d5900008e841d,69b95efdef24cd8a694e89ee,69b960f54a6040ca440812e4,0.2196,0.2196,0,143,143,107,1,sixeight,,,,,,,,,,,,,,,,,,,,,,,,,,,,,,,,,,,,,,,,,,,,,,,,,,,,,,,,,,,,,,,,,,,,,,,,,,,,,,,,,,,,,,,,,,,,,,,,,,,,,,,,,,,,,,,,,,,,,,,,,,,,,,,,,,,,,,,,,
,,6739e14db26d5900008e841d,2026-03-17_16h11.57.229,kallum_motion_pilot_GIST_update_2,2026.1.1,Linux armv81,59.88023952,6739e14db26d5900008e841d,69b95efdef24cd8a694e89ee,69b960f54a6040ca440812e4,0.2205,0.2206,0,144,144,54,1,fourtwo,,,,,,,,,,,,,,,,,,,,,,,,,,,,,,,,,,,,,,,,,,,,,,,,,,,,,,,,,,,,,,,,,,,,,,,,,,,,,,,,,,,,,,,,,,,,,,,,,,,,,,,,,,,,,,,,,,,,,,,,,,,,,,,,,,,,,,,,,
,,6739e14db26d5900008e841d,2026-03-17_16h11.57.229,kallum_motion_pilot_GIST_update_2,2026.1.1,Linux armv81,59.88023952,6739e14db26d5900008e841d,69b95efdef24cd8a694e89ee,69b960f54a6040ca440812e4,0.2214,0.2214,0,145,145,53,1,threefour,,,,,,,,,,,,,,,,,,,,,,,,,,,,,,,,,,,,,,,,,,,,,,,,,,,,,,,,,,,,,,,,,,,,,,,,,,,,,,,,,,,,,,,,,,,,,,,,,,,,,,,,,,,,,,,,,,,,,,,,,,,,,,,,,,,,,,,,,
,,6739e14db26d5900008e841d,2026-03-17_16h11.57.229,kallum_motion_pilot_GIST_update_2,2026.1.1,Linux armv81,59.88023952,6739e14db26d5900008e841d,69b95efdef24cd8a694e89ee,69b960f54a6040ca440812e4,0.2223,0.2223,0,146,146,75,1,twofour,,,,,,,,,,,,,,,,,,,,,,,,,,,,,,,,,,,,,,,,,,,,,,,,,,,,,,,,,,,,,,,,,,,,,,,,,,,,,,,,,,,,,,,,,,,,,,,,,,,,,,,,,,,,,,,,,,,,,,,,,,,,,,,,,,,,,,,,,
,,6739e14db26d5900008e841d,2026-03-17_16h11.57.229,kallum_motion_pilot_GIST_update_2,2026.1.1,Linux armv81,59.88023952,6739e14db26d5900008e841d,69b95efdef24cd8a694e89ee,69b960f54a6040ca440812e4,0.2232,0.2233,0,147,147,148,1,sevenfive,,,,,,,,,,,,,,,,,,,,,,,,,,,,,,,,,,,,,,,,,,,,,,,,,,,,,,,,,,,,,,,,,,,,,,,,,,,,,,,,,,,,,,,,,,,,,,,,,,,,,,,,,,,,,,,,,,,,,,,,,,,,,,,,,,,,,,,,,
,,6739e14db26d5900008e841d,2026-03-17_16h11.57.229,kallum_motion_pilot_GIST_update_2,2026.1.1,Linux armv81,59.88023952,6739e14db26d5900008e841d,69b95efdef24cd8a694e89ee,69b960f54a6040ca440812e4,0.2243,0.2243,0,148,148,120,1,fivesix,,,,,,,,,,,,,,,,,,,,,,,,,,,,,,,,,,,,,,,,,,,,,,,,,,,,,,,,,,,,,,,,,,,,,,,,,,,,,,,,,,,,,,,,,,,,,,,,,,,,,,,,,,,,,,,,,,,,,,,,,,,,,,,,,,,,,,,,,
,,6739e14db26d5900008e841d,2026-03-17_16h11.57.229,kallum_motion_pilot_GIST_update_2,2026.1.1,Linux armv81,59.88023952,6739e14db26d5900008e841d,69b95efdef24cd8a694e89ee,69b960f54a6040ca440812e4,0.2251,0.2252,0,149,149,17,1,onethree,,,,,,,,,,,,,,,,,,,,,,,,,,,,,,,,,,,,,,,,,,,,,,,,,,,,,,,,,,,,,,,,,,,,,,,,,,,,,,,,,,,,,,,,,,,,,,,,,,,,,,,,,,,,,,,,,,,,,,,,,,,,,,,,,,,,,,,,,
,,6739e14db26d5900008e841d,2026-03-17_16h11.57.229,kallum_motion_pilot_GIST_update_2,2026.1.1,Linux armv81,59.88023952,6739e14db26d5900008e841d,69b95efdef24cd8a694e89ee,69b960f54a6040ca440812e4,0.2261,0.2261,0,150,150,1,1,onethree,,,,,,,,,,,,,,,,,,,,,,,,,,,,,,,,,,,,,,,,,,,,,,,,,,,,,,,,,,,,,,,,,,,,,,,,,,,,,,,,,,,,,,,,,,,,,,,,,,,,,,,,,,,,,,,,,,,,,,,,,,,,,,,,,,,,,,,,,
,,6739e14db26d5900008e841d,2026-03-17_16h11.57.229,kallum_motion_pilot_GIST_update_2,2026.1.1,Linux armv81,59.88023952,6739e14db26d5900008e841d,69b95efdef24cd8a694e89ee,69b960f54a6040ca440812e4,0.227,0.2271,0,151,151,19,1,twofour,,,,,,,,,,,,,,,,,,,,,,,,,,,,,,,,,,,,,,,,,,,,,,,,,,,,,,,,,,,,,,,,,,,,,,,,,,,,,,,,,,,,,,,,,,,,,,,,,,,,,,,,,,,,,,,,,,,,,,,,,,,,,,,,,,,,,,,,,
,,6739e14db26d5900008e841d,2026-03-17_16h11.57.229,kallum_motion_pilot_GIST_update_2,2026.1.1,Linux armv81,59.88023952,6739e14db26d5900008e841d,69b95efdef24cd8a694e89ee,69b960f54a6040ca440812e4,0.228,0.2281,0,152,152,27,1,twofour,,,,,,,,,,,,,,,,,,,,,,,,,,,,,,,,,,,,,,,,,,,,,,,,,,,,,,,,,,,,,,,,,,,,,,,,,,,,,,,,,,,,,,,,,,,,,,,,,,,,,,,,,,,,,,,,,,,,,,,,,,,,,,,,,,,,,,,,,
,,6739e14db26d5900008e841d,2026-03-17_16h11.57.229,kallum_motion_pilot_GIST_update_2,2026.1.1,Linux armv81,59.88023952,6739e14db26d5900008e841d,69b95efdef24cd8a694e89ee,69b960f54a6040ca440812e4,0.2288,0.229,0,153,153,154,1,sixfive,,,,,,,,,,,,,,,,,,,,,,,,,,,,,,,,,,,,,,,,,,,,,,,,,,,,,,,,,,,,,,,,,,,,,,,,,,,,,,,,,,,,,,,,,,,,,,,,,,,,,,,,,,,,,,,,,,,,,,,,,,,,,,,,,,,,,,,,,
,,6739e14db26d5900008e841d,2026-03-17_16h11.57.229,kallum_motion_pilot_GIST_update_2,2026.1.1,Linux armv81,59.88023952,6739e14db26d5900008e841d,69b95efdef24cd8a694e89ee,69b960f54a6040ca440812e4,0.2298,0.2298,0,154,154,108,1,sevenfive,,,,,,,,,,,,,,,,,,,,,,,,,,,,,,,,,,,,,,,,,,,,,,,,,,,,,,,,,,,,,,,,,,,,,,,,,,,,,,,,,,,,,,,,,,,,,,,,,,,,,,,,,,,,,,,,,,,,,,,,,,,,,,,,,,,,,,,,,
,,6739e14db26d5900008e841d,2026-03-17_16h11.57.229,kallum_motion_pilot_GIST_update_2,2026.1.1,Linux armv81,59.88023952,6739e14db26d5900008e841d,69b95efdef24cd8a694e89ee,69b960f54a6040ca440812e4,0.2307,0.2308,0,155,155,61,1,threefour,,,,,,,,,,,,,,,,,,,,,,,,,,,,,,,,,,,,,,,,,,,,,,,,,,,,,,,,,,,,,,,,,,,,,,,,,,,,,,,,,,,,,,,,,,,,,,,,,,,,,,,,,,,,,,,,,,,,,,,,,,,,,,,,,,,,,,,,,
,,6739e14db26d5900008e841d,2026-03-17_16h11.57.229,kallum_motion_pilot_GIST_update_2,2026.1.1,Linux armv81,59.88023952,6739e14db26d5900008e841d,69b95efdef24cd8a694e89ee,69b960f54a6040ca440812e4,0.2317,0.2318,0,156,156,158,1,eightsix,,,,,,,,,,,,,,,,,,,,,,,,,,,,,,,,,,,,,,,,,,,,,,,,,,,,,,,,,,,,,,,,,,,,,,,,,,,,,,,,,,,,,,,,,,,,,,,,,,,,,,,,,,,,,,,,,,,,,,,,,,,,,,,,,,,,,,,,,
,,6739e14db26d5900008e841d,2026-03-17_16h11.57.229,kallum_motion_pilot_GIST_update_2,2026.1.1,Linux armv81,59.88023952,6739e14db26d5900008e841d,69b95efdef24cd8a694e89ee,69b960f54a6040ca440812e4,0.2325,0.2326,0,157,157,143,1,eightseven,,,,,,,,,,,,,,,,,,,,,,,,,,,,,,,,,,,,,,,,,,,,,,,,,,,,,,,,,,,,,,,,,,,,,,,,,,,,,,,,,,,,,,,,,,,,,,,,,,,,,,,,,,,,,,,,,,,,,,,,,,,,,,,,,,,,,,,,,
,,6739e14db26d5900008e841d,2026-03-17_16h11.57.229,kallum_motion_pilot_GIST_update_2,2026.1.1,Linux armv81,59.88023952,6739e14db26d5900008e841d,69b95efdef24cd8a694e89ee,69b960f54a6040ca440812e4,0.2335,0.2336,0,158,158,145,1,fiveseven,,,,,,,,,,,,,,,,,,,,,,,,,,,,,,,,,,,,,,,,,,,,,,,,,,,,,,,,,,,,,,,,,,,,,,,,,,,,,,,,,,,,,,,,,,,,,,,,,,,,,,,,,,,,,,,,,,,,,,,,,,,,,,,,,,,,,,,,,
,,6739e14db26d5900008e841d,2026-03-17_16h11.57.229,kallum_motion_pilot_GIST_update_2,2026.1.1,Linux armv81,59.88023952,6739e14db26d5900008e841d,69b95efdef24cd8a694e89ee,69b960f54a6040ca440812e4,0.2344,0.2345,0,159,159,65,1,onethree,,,,,,,,,,,,,,,,,,,,,,,,,,,,,,,,,,,,,,,,,,,,,,,,,,,,,,,,,,,,,,,,,,,,,,,,,,,,,,,,,,,,,,,,,,,,,,,,,,,,,,,,,,,,,,,,,,,,,,,,,,,,,,,,,,,,,,,,,
,,6739e14db26d5900008e841d,2026-03-17_16h11.57.229,kallum_motion_pilot_GIST_update_2,2026.1.1,Linux armv81,59.88023952,6739e14db26d5900008e841d,69b95efdef24cd8a694e89ee,69b960f54a6040ca440812e4,0.2354,0.2355,0,160,160,5,1,threefour,,,,,,,,,,,,,,,,,,,,,,,,,,,,,,,,,,,,,,,,,,,,,,,,,,,,,,,,,,,,,,,,,,,,,,,,,,,,,,,,,,,,,,,,,,,,,,,,,,,,,,,,,,,,,,,,,,,,,,,,,,,,,,,,,,,,,,,,,
,,6739e14db26d5900008e841d,2026-03-17_16h11.57.229,kallum_motion_pilot_GIST_update_2,2026.1.1,Linux armv81,59.88023952,6739e14db26d5900008e841d,69b95efdef24cd8a694e89ee,69b960f54a6040ca440812e4,0.2364,0.2364,0,161,161,79,1,eightseven,,,,,,,,,,,,,,,,,,,,,,,,,,,,,,,,,,,,,,,,,,,,,,,,,,,,,,,,,,,,,,,,,,,,,,,,,,,,,,,,,,,,,,,,,,,,,,,,,,,,,,,,,,,,,,,,,,,,,,,,,,,,,,,,,,,,,,,,,
,,6739e14db26d5900008e841d,2026-03-17_16h11.57.229,kallum_motion_pilot_GIST_update_2,2026.1.1,Linux armv81,59.88023952,6739e14db26d5900008e841d,69b95efdef24cd8a694e89ee,69b960f54a6040ca440812e4,0.2372,0.2373,1,0,162,25,1,onethree,,,,,,,,,,,,,,,,,,,,,,,,,,,,,,,,,,,,,,,,,,,,,,,,,,,,,,,,,,,,,,,,,,,,,,,,,,,,,,,,,,,,,,,,,,,,,,,,,,,,,,,,,,,,,,,,,,,,,,,,,,,,,,,,,,,,,,,,,
,,6739e14db26d5900008e841d,2026-03-17_16h11.57.229,kallum_motion_pilot_GIST_update_2,2026.1.1,Linux armv81,59.88023952,6739e14db26d5900008e841d,69b95efdef24cd8a694e89ee,69b960f54a6040ca440812e4,0.2381,0.2382,1,1,163,68,1,threeone,,,,,,,,,,,,,,,,,,,,,,,,,,,,,,,,,,,,,,,,,,,,,,,,,,,,,,,,,,,,,,,,,,,,,,,,,,,,,,,,,,,,,,,,,,,,,,,,,,,,,,,,,,,,,,,,,,,,,,,,,,,,,,,,,,,,,,,,,
,,6739e14db26d5900008e841d,2026-03-17_16h11.57.229,kallum_motion_pilot_GIST_update_2,2026.1.1,Linux armv81,59.88023952,6739e14db26d5900008e841d,69b95efdef24cd8a694e89ee,69b960f54a6040ca440812e4,0.2392,0.2392,1,2,164,102,1,eightsix,,,,,,,,,,,,,,,,,,,,,,,,,,,,,,,,,,,,,,,,,,,,,,,,,,,,,,,,,,,,,,,,,,,,,,,,,,,,,,,,,,,,,,,,,,,,,,,,,,,,,,,,,,,,,,,,,,,,,,,,,,,,,,,,,,,,,,,,,
,,6739e14db26d5900008e841d,2026-03-17_16h11.57.229,kallum_motion_pilot_GIST_update_2,2026.1.1,Linux armv81,59.88023952,6739e14db26d5900008e841d,69b95efdef24cd8a694e89ee,69b960f54a6040ca440812e4,0.2401,0.2403,1,3,165,12,1,threeone,,,,,,,,,,,,,,,,,,,,,,,,,,,,,,,,,,,,,,,,,,,,,,,,,,,,,,,,,,,,,,,,,,,,,,,,,,,,,,,,,,,,,,,,,,,,,,,,,,,,,,,,,,,,,,,,,,,,,,,,,,,,,,,,,,,,,,,,,
,,6739e14db26d5900008e841d,2026-03-17_16h11.57.229,kallum_motion_pilot_GIST_update_2,2026.1.1,Linux armv81,59.88023952,6739e14db26d5900008e841d,69b95efdef24cd8a694e89ee,69b960f54a6040ca440812e4,0.2412,0.2412,1,4,166,46,1,fourtwo,,,,,,,,,,,,,,,,,,,,,,,,,,,,,,,,,,,,,,,,,,,,,,,,,,,,,,,,,,,,,,,,,,,,,,,,,,,,,,,,,,,,,,,,,,,,,,,,,,,,,,,,,,,,,,,,,,,,,,,,,,,,,,,,,,,,,,,,,
,,6739e14db26d5900008e841d,2026-03-17_16h11.57.229,kallum_motion_pilot_GIST_update_2,2026.1.1,Linux armv81,59.88023952,6739e14db26d5900008e841d,69b95efdef24cd8a694e89ee,69b960f54a6040ca440812e4,0.2421,0.2421,1,5,167,52,1,threeone,,,,,,,,,,,,,,,,,,,,,,,,,,,,,,,,,,,,,,,,,,,,,,,,,,,,,,,,,,,,,,,,,,,,,,,,,,,,,,,,,,,,,,,,,,,,,,,,,,,,,,,,,,,,,,,,,,,,,,,,,,,,,,,,,,,,,,,,,
,,6739e14db26d5900008e841d,2026-03-17_16h11.57.229,kallum_motion_pilot_GIST_update_2,2026.1.1,Linux armv81,59.88023952,6739e14db26d5900008e841d,69b95efdef24cd8a694e89ee,69b960f54a6040ca440812e4,0.2432,0.2432,1,6,168,10,1,twoone,,,,,,,,,,,,,,,,,,,,,,,,,,,,,,,,,,,,,,,,,,,,,,,,,,,,,,,,,,,,,,,,,,,,,,,,,,,,,,,,,,,,,,,,,,,,,,,,,,,,,,,,,,,,,,,,,,,,,,,,,,,,,,,,,,,,,,,,,
,,6739e14db26d5900008e841d,2026-03-17_16h11.57.229,kallum_motion_pilot_GIST_update_2,2026.1.1,Linux armv81,59.88023952,6739e14db26d5900008e841d,69b95efdef24cd8a694e89ee,69b960f54a6040ca440812e4,0.2441,0.2442,1,7,169,26,1,twoone,,,,,,,,,,,,,,,,,,,,,,,,,,,,,,,,,,,,,,,,,,,,,,,,,,,,,,,,,,,,,,,,,,,,,,,,,,,,,,,,,,,,,,,,,,,,,,,,,,,,,,,,,,,,,,,,,,,,,,,,,,,,,,,,,,,,,,,,,
,,6739e14db26d5900008e841d,2026-03-17_16h11.57.229,kallum_motion_pilot_GIST_update_2,2026.1.1,Linux armv81,59.88023952,6739e14db26d5900008e841d,69b95efdef24cd8a694e89ee,69b960f54a6040ca440812e4,0.245,0.245,1,8,170,4,1,threeone,,,,,,,,,,,,,,,,,,,,,,,,,,,,,,,,,,,,,,,,,,,,,,,,,,,,,,,,,,,,,,,,,,,,,,,,,,,,,,,,,,,,,,,,,,,,,,,,,,,,,,,,,,,,,,,,,,,,,,,,,,,,,,,,,,,,,,,,,
,,6739e14db26d5900008e841d,2026-03-17_16h11.57.229,kallum_motion_pilot_GIST_update_2,2026.1.1,Linux armv81,59.88023952,6739e14db26d5900008e841d,69b95efdef24cd8a694e89ee,69b960f54a6040ca440812e4,0.2459,0.2459,1,9,171,49,1,onethree,,,,,,,,,,,,,,,,,,,,,,,,,,,,,,,,,,,,,,,,,,,,,,,,,,,,,,,,,,,,,,,,,,,,,,,,,,,,,,,,,,,,,,,,,,,,,,,,,,,,,,,,,,,,,,,,,,,,,,,,,,,,,,,,,,,,,,,,,
,,6739e14db26d5900008e841d,2026-03-17_16h11.57.229,kallum_motion_pilot_GIST_update_2,2026.1.1,Linux armv81,59.88023952,6739e14db26d5900008e841d,69b95efdef24cd8a694e89ee,69b960f54a6040ca440812e4,0.247,0.2471,1,10,172,2,1,twoone,,,,,,,,,,,,,,,,,,,,,,,,,,,,,,,,,,,,,,,,,,,,,,,,,,,,,,,,,,,,,,,,,,,,,,,,,,,,,,,,,,,,,,,,,,,,,,,,,,,,,,,,,,,,,,,,,,,,,,,,,,,,,,,,,,,,,,,,,
,,6739e14db26d5900008e841d,2026-03-17_16h11.57.229,kallum_motion_pilot_GIST_update_2,2026.1.1,Linux armv81,59.88023952,6739e14db26d5900008e841d,69b95efdef24cd8a694e89ee,69b960f54a6040ca440812e4,0.2479,0.248,1,11,173,147,1,sixeight,,,,,,,,,,,,,,,,,,,,,,,,,,,,,,,,,,,,,,,,,,,,,,,,,,,,,,,,,,,,,,,,,,,,,,,,,,,,,,,,,,,,,,,,,,,,,,,,,,,,,,,,,,,,,,,,,,,,,,,,,,,,,,,,,,,,,,,,,
,,6739e14db26d5900008e841d,2026-03-17_16h11.57.229,kallum_motion_pilot_GIST_update_2,2026.1.1,Linux armv81,59.88023952,6739e14db26d5900008e841d,69b95efdef24cd8a694e89ee,69b960f54a6040ca440812e4,0.2488,0.2489,1,12,174,63,1,fourthree,,,,,,,,,,,,,,,,,,,,,,,,,,,,,,,,,,,,,,,,,,,,,,,,,,,,,,,,,,,,,,,,,,,,,,,,,,,,,,,,,,,,,,,,,,,,,,,,,,,,,,,,,,,,,,,,,,,,,,,,,,,,,,,,,,,,,,,,,
,,6739e14db26d5900008e841d,2026-03-17_16h11.57.229,kallum_motion_pilot_GIST_update_2,2026.1.1,Linux armv81,59.88023952,6739e14db26d5900008e841d,69b95efdef24cd8a694e89ee,69b960f54a6040ca440812e4,0.2497,0.2498,1,13,175,122,1,sixfive,,,,,,,,,,,,,,,,,,,,,,,,,,,,,,,,,,,,,,,,,,,,,,,,,,,,,,,,,,,,,,,,,,,,,,,,,,,,,,,,,,,,,,,,,,,,,,,,,,,,,,,,,,,,,,,,,,,,,,,,,,,,,,,,,,,,,,,,,
,,6739e14db26d5900008e841d,2026-03-17_16h11.57.229,kallum_motion_pilot_GIST_update_2,2026.1.1,Linux armv81,59.88023952,6739e14db26d5900008e841d,69b95efdef24cd8a694e89ee,69b960f54a6040ca440812e4,0.2506,0.2508,1,14,176,131,1,sixeight,,,,,,,,,,,,,,,,,,,,,,,,,,,,,,,,,,,,,,,,,,,,,,,,,,,,,,,,,,,,,,,,,,,,,,,,,,,,,,,,,,,,,,,,,,,,,,,,,,,,,,,,,,,,,,,,,,,,,,,,,,,,,,,,,,,,,,,,,
,,6739e14db26d5900008e841d,2026-03-17_16h11.57.229,kallum_motion_pilot_GIST_update_2,2026.1.1,Linux armv81,59.88023952,6739e14db26d5900008e841d,69b95efdef24cd8a694e89ee,69b960f54a6040ca440812e4,0.2517,0.2518,1,15,177,33,1,onethree,,,,,,,,,,,,,,,,,,,,,,,,,,,,,,,,,,,,,,,,,,,,,,,,,,,,,,,,,,,,,,,,,,,,,,,,,,,,,,,,,,,,,,,,,,,,,,,,,,,,,,,,,,,,,,,,,,,,,,,,,,,,,,,,,,,,,,,,,
,,6739e14db26d5900008e841d,2026-03-17_16h11.57.229,kallum_motion_pilot_GIST_update_2,2026.1.1,Linux armv81,59.88023952,6739e14db26d5900008e841d,69b95efdef24cd8a694e89ee,69b960f54a6040ca440812e4,0.2527,0.2527,1,16,178,78,1,fourtwo,,,,,,,,,,,,,,,,,,,,,,,,,,,,,,,,,,,,,,,,,,,,,,,,,,,,,,,,,,,,,,,,,,,,,,,,,,,,,,,,,,,,,,,,,,,,,,,,,,,,,,,,,,,,,,,,,,,,,,,,,,,,,,,,,,,,,,,,,
,,6739e14db26d5900008e841d,2026-03-17_16h11.57.229,kallum_motion_pilot_GIST_update_2,2026.1.1,Linux armv81,59.88023952,6739e14db26d5900008e841d,69b95efdef24cd8a694e89ee,69b960f54a6040ca440812e4,0.2536,0.2536,1,17,179,80,1,fivesix,,,,,,,,,,,,,,,,,,,,,,,,,,,,,,,,,,,,,,,,,,,,,,,,,,,,,,,,,,,,,,,,,,,,,,,,,,,,,,,,,,,,,,,,,,,,,,,,,,,,,,,,,,,,,,,,,,,,,,,,,,,,,,,,,,,,,,,,,
,,6739e14db26d5900008e841d,2026-03-17_16h11.57.229,kallum_motion_pilot_GIST_update_2,2026.1.1,Linux armv81,59.88023952,6739e14db26d5900008e841d,69b95efdef24cd8a694e89ee,69b960f54a6040ca440812e4,0.2545,0.2546,1,18,180,149,1,seveneight,,,,,,,,,,,,,,,,,,,,,,,,,,,,,,,,,,,,,,,,,,,,,,,,,,,,,,,,,,,,,,,,,,,,,,,,,,,,,,,,,,,,,,,,,,,,,,,,,,,,,,,,,,,,,,,,,,,,,,,,,,,,,,,,,,,,,,,,,
,,6739e14db26d5900008e841d,2026-03-17_16h11.57.229,kallum_motion_pilot_GIST_update_2,2026.1.1,Linux armv81,59.88023952,6739e14db26d5900008e841d,69b95efdef24cd8a694e89ee,69b960f54a6040ca440812e4,0.2556,0.2556,1,19,181,56,1,onetwo,,,,,,,,,,,,,,,,,,,,,,,,,,,,,,,,,,,,,,,,,,,,,,,,,,,,,,,,,,,,,,,,,,,,,,,,,,,,,,,,,,,,,,,,,,,,,,,,,,,,,,,,,,,,,,,,,,,,,,,,,,,,,,,,,,,,,,,,,
,,6739e14db26d5900008e841d,2026-03-17_16h11.57.229,kallum_motion_pilot_GIST_update_2,2026.1.1,Linux armv81,59.88023952,6739e14db26d5900008e841d,69b95efdef24cd8a694e89ee,69b960f54a6040ca440812e4,0.2565,0.2566,1,20,182,45,1,threefour,,,,,,,,,,,,,,,,,,,,,,,,,,,,,,,,,,,,,,,,,,,,,,,,,,,,,,,,,,,,,,,,,,,,,,,,,,,,,,,,,,,,,,,,,,,,,,,,,,,,,,,,,,,,,,,,,,,,,,,,,,,,,,,,,,,,,,,,,
,,6739e14db26d5900008e841d,2026-03-17_16h11.57.229,kallum_motion_pilot_GIST_update_2,2026.1.1,Linux armv81,59.88023952,6739e14db26d5900008e841d,69b95efdef24cd8a694e89ee,69b960f54a6040ca440812e4,0.2576,0.2576,1,21,183,97,1,fiveseven,,,,,,,,,,,,,,,,,,,,,,,,,,,,,,,,,,,,,,,,,,,,,,,,,,,,,,,,,,,,,,,,,,,,,,,,,,,,,,,,,,,,,,,,,,,,,,,,,,,,,,,,,,,,,,,,,,,,,,,,,,,,,,,,,,,,,,,,,
,,6739e14db26d5900008e841d,2026-03-17_16h11.57.229,kallum_motion_pilot_GIST_update_2,2026.1.1,Linux armv81,59.88023952,6739e14db26d5900008e841d,69b95efdef24cd8a694e89ee,69b960f54a6040ca440812e4,0.2584,0.2586,1,22,184,24,1,onetwo,,,,,,,,,,,,,,,,,,,,,,,,,,,,,,,,,,,,,,,,,,,,,,,,,,,,,,,,,,,,,,,,,,,,,,,,,,,,,,,,,,,,,,,,,,,,,,,,,,,,,,,,,,,,,,,,,,,,,,,,,,,,,,,,,,,,,,,,,
,,6739e14db26d5900008e841d,2026-03-17_16h11.57.229,kallum_motion_pilot_GIST_update_2,2026.1.1,Linux armv81,59.88023952,6739e14db26d5900008e841d,69b95efdef24cd8a694e89ee,69b960f54a6040ca440812e4,0.2595,0.2595,1,23,185,96,1,fivesix,,,,,,,,,,,,,,,,,,,,,,,,,,,,,,,,,,,,,,,,,,,,,,,,,,,,,,,,,,,,,,,,,,,,,,,,,,,,,,,,,,,,,,,,,,,,,,,,,,,,,,,,,,,,,,,,,,,,,,,,,,,,,,,,,,,,,,,,,
,,6739e14db26d5900008e841d,2026-03-17_16h11.57.229,kallum_motion_pilot_GIST_update_2,2026.1.1,Linux armv81,59.88023952,6739e14db26d5900008e841d,69b95efdef24cd8a694e89ee,69b960f54a6040ca440812e4,0.2604,0.2605,1,24,186,8,1,onetwo,,,,,,,,,,,,,,,,,,,,,,,,,,,,,,,,,,,,,,,,,,,,,,,,,,,,,,,,,,,,,,,,,,,,,,,,,,,,,,,,,,,,,,,,,,,,,,,,,,,,,,,,,,,,,,,,,,,,,,,,,,,,,,,,,,,,,,,,,
,,6739e14db26d5900008e841d,2026-03-17_16h11.57.229,kallum_motion_pilot_GIST_update_2,2026.1.1,Linux armv81,59.88023952,6739e14db26d5900008e841d,69b95efdef24cd8a694e89ee,69b960f54a6040ca440812e4,0.2612,0.2613,1,25,187,110,1,eightsix,,,,,,,,,,,,,,,,,,,,,,,,,,,,,,,,,,,,,,,,,,,,,,,,,,,,,,,,,,,,,,,,,,,,,,,,,,,,,,,,,,,,,,,,,,,,,,,,,,,,,,,,,,,,,,,,,,,,,,,,,,,,,,,,,,,,,,,,,
,,6739e14db26d5900008e841d,2026-03-17_16h11.57.229,kallum_motion_pilot_GIST_update_2,2026.1.1,Linux armv81,59.88023952,6739e14db26d5900008e841d,69b95efdef24cd8a694e89ee,69b960f54a6040ca440812e4,0.2622,0.2622,1,26,188,153,1,fiveseven,,,,,,,,,,,,,,,,,,,,,,,,,,,,,,,,,,,,,,,,,,,,,,,,,,,,,,,,,,,,,,,,,,,,,,,,,,,,,,,,,,,,,,,,,,,,,,,,,,,,,,,,,,,,,,,,,,,,,,,,,,,,,,,,,,,,,,,,,
,,6739e14db26d5900008e841d,2026-03-17_16h11.57.229,kallum_motion_pilot_GIST_update_2,2026.1.1,Linux armv81,59.88023952,6739e14db26d5900008e841d,69b95efdef24cd8a694e89ee,69b960f54a6040ca440812e4,0.2633,0.2634,1,27,189,140,1,sevenfive,,,,,,,,,,,,,,,,,,,,,,,,,,,,,,,,,,,,,,,,,,,,,,,,,,,,,,,,,,,,,,,,,,,,,,,,,,,,,,,,,,,,,,,,,,,,,,,,,,,,,,,,,,,,,,,,,,,,,,,,,,,,,,,,,,,,,,,,,
,,6739e14db26d5900008e841d,2026-03-17_16h11.57.229,kallum_motion_pilot_GIST_update_2,2026.1.1,Linux armv81,59.88023952,6739e14db26d5900008e841d,69b95efdef24cd8a694e89ee,69b960f54a6040ca440812e4,0.2643,0.2643,1,28,190,75,1,twofour,,,,,,,,,,,,,,,,,,,,,,,,,,,,,,,,,,,,,,,,,,,,,,,,,,,,,,,,,,,,,,,,,,,,,,,,,,,,,,,,,,,,,,,,,,,,,,,,,,,,,,,,,,,,,,,,,,,,,,,,,,,,,,,,,,,,,,,,,
,,6739e14db26d5900008e841d,2026-03-17_16h11.57.229,kallum_motion_pilot_GIST_update_2,2026.1.1,Linux armv81,59.88023952,6739e14db26d5900008e841d,69b95efdef24cd8a694e89ee,69b960f54a6040ca440812e4,0.2652,0.2652,1,29,191,83,1,sixeight,,,,,,,,,,,,,,,,,,,,,,,,,,,,,,,,,,,,,,,,,,,,,,,,,,,,,,,,,,,,,,,,,,,,,,,,,,,,,,,,,,,,,,,,,,,,,,,,,,,,,,,,,,,,,,,,,,,,,,,,,,,,,,,,,,,,,,,,,
,,6739e14db26d5900008e841d,2026-03-17_16h11.57.229,kallum_motion_pilot_GIST_update_2,2026.1.1,Linux armv81,59.88023952,6739e14db26d5900008e841d,69b95efdef24cd8a694e89ee,69b960f54a6040ca440812e4,0.2662,0.2662,1,30,192,54,1,fourtwo,,,,,,,,,,,,,,,,,,,,,,,,,,,,,,,,,,,,,,,,,,,,,,,,,,,,,,,,,,,,,,,,,,,,,,,,,,,,,,,,,,,,,,,,,,,,,,,,,,,,,,,,,,,,,,,,,,,,,,,,,,,,,,,,,,,,,,,,,
,,6739e14db26d5900008e841d,2026-03-17_16h11.57.229,kallum_motion_pilot_GIST_update_2,2026.1.1,Linux armv81,59.88023952,6739e14db26d5900008e841d,69b95efdef24cd8a694e89ee,69b960f54a6040ca440812e4,0.2673,0.2673,1,31,193,20,1,threeone,,,,,,,,,,,,,,,,,,,,,,,,,,,,,,,,,,,,,,,,,,,,,,,,,,,,,,,,,,,,,,,,,,,,,,,,,,,,,,,,,,,,,,,,,,,,,,,,,,,,,,,,,,,,,,,,,,,,,,,,,,,,,,,,,,,,,,,,,
,,6739e14db26d5900008e841d,2026-03-17_16h11.57.229,kallum_motion_pilot_GIST_update_2,2026.1.1,Linux armv81,59.88023952,6739e14db26d5900008e841d,69b95efdef24cd8a694e89ee,69b960f54a6040ca440812e4,0.2682,0.2682,1,32,194,143,1,eightseven,,,,,,,,,,,,,,,,,,,,,,,,,,,,,,,,,,,,,,,,,,,,,,,,,,,,,,,,,,,,,,,,,,,,,,,,,,,,,,,,,,,,,,,,,,,,,,,,,,,,,,,,,,,,,,,,,,,,,,,,,,,,,,,,,,,,,,,,,
,,6739e14db26d5900008e841d,2026-03-17_16h11.57.229,kallum_motion_pilot_GIST_update_2,2026.1.1,Linux armv81,59.88023952,6739e14db26d5900008e841d,69b95efdef24cd8a694e89ee,69b960f54a6040ca440812e4,0.2691,0.2692,1,33,195,64,1,onetwo,,,,,,,,,,,,,,,,,,,,,,,,,,,,,,,,,,,,,,,,,,,,,,,,,,,,,,,,,,,,,,,,,,,,,,,,,,,,,,,,,,,,,,,,,,,,,,,,,,,,,,,,,,,,,,,,,,,,,,,,,,,,,,,,,,,,,,,,,
,,6739e14db26d5900008e841d,2026-03-17_16h11.57.229,kallum_motion_pilot_GIST_update_2,2026.1.1,Linux armv81,59.88023952,6739e14db26d5900008e841d,69b95efdef24cd8a694e89ee,69b960f54a6040ca440812e4,0.2701,0.2701,1,34,196,32,1,onetwo,,,,,,,,,,,,,,,,,,,,,,,,,,,,,,,,,,,,,,,,,,,,,,,,,,,,,,,,,,,,,,,,,,,,,,,,,,,,,,,,,,,,,,,,,,,,,,,,,,,,,,,,,,,,,,,,,,,,,,,,,,,,,,,,,,,,,,,,,
,,6739e14db26d5900008e841d,2026-03-17_16h11.57.229,kallum_motion_pilot_GIST_update_2,2026.1.1,Linux armv81,59.88023952,6739e14db26d5900008e841d,69b95efdef24cd8a694e89ee,69b960f54a6040ca440812e4,0.2711,0.2711,1,35,197,156,1,sevenfive,,,,,,,,,,,,,,,,,,,,,,,,,,,,,,,,,,,,,,,,,,,,,,,,,,,,,,,,,,,,,,,,,,,,,,,,,,,,,,,,,,,,,,,,,,,,,,,,,,,,,,,,,,,,,,,,,,,,,,,,,,,,,,,,,,,,,,,,,
,,6739e14db26d5900008e841d,2026-03-17_16h11.57.229,kallum_motion_pilot_GIST_update_2,2026.1.1,Linux armv81,59.88023952,6739e14db26d5900008e841d,69b95efdef24cd8a694e89ee,69b960f54a6040ca440812e4,0.2721,0.2722,1,36,198,116,1,sevenfive,,,,,,,,,,,,,,,,,,,,,,,,,,,,,,,,,,,,,,,,,,,,,,,,,,,,,,,,,,,,,,,,,,,,,,,,,,,,,,,,,,,,,,,,,,,,,,,,,,,,,,,,,,,,,,,,,,,,,,,,,,,,,,,,,,,,,,,,,
,,6739e14db26d5900008e841d,2026-03-17_16h11.57.229,kallum_motion_pilot_GIST_update_2,2026.1.1,Linux armv81,59.88023952,6739e14db26d5900008e841d,69b95efdef24cd8a694e89ee,69b960f54a6040ca440812e4,0.2731,0.2731,1,37,199,73,1,onethree,,,,,,,,,,,,,,,,,,,,,,,,,,,,,,,,,,,,,,,,,,,,,,,,,,,,,,,,,,,,,,,,,,,,,,,,,,,,,,,,,,,,,,,,,,,,,,,,,,,,,,,,,,,,,,,,,,,,,,,,,,,,,,,,,,,,,,,,,
,,6739e14db26d5900008e841d,2026-03-17_16h11.57.229,kallum_motion_pilot_GIST_update_2,2026.1.1,Linux armv81,59.88023952,6739e14db26d5900008e841d,69b95efdef24cd8a694e89ee,69b960f54a6040ca440812e4,0.2741,0.2742,1,38,200,85,1,seveneight,,,,,,,,,,,,,,,,,,,,,,,,,,,,,,,,,,,,,,,,,,,,,,,,,,,,,,,,,,,,,,,,,,,,,,,,,,,,,,,,,,,,,,,,,,,,,,,,,,,,,,,,,,,,,,,,,,,,,,,,,,,,,,,,,,,,,,,,,
,,6739e14db26d5900008e841d,2026-03-17_16h11.57.229,kallum_motion_pilot_GIST_update_2,2026.1.1,Linux armv81,59.88023952,6739e14db26d5900008e841d,69b95efdef24cd8a694e89ee,69b960f54a6040ca440812e4,0.2753,0.2754,1,39,201,126,1,eightsix,,,,,,,,,,,,,,,,,,,,,,,,,,,,,,,,,,,,,,,,,,,,,,,,,,,,,,,,,,,,,,,,,,,,,,,,,,,,,,,,,,,,,,,,,,,,,,,,,,,,,,,,,,,,,,,,,,,,,,,,,,,,,,,,,,,,,,,,,
,,6739e14db26d5900008e841d,2026-03-17_16h11.57.229,kallum_motion_pilot_GIST_update_2,2026.1.1,Linux armv81,59.88023952,6739e14db26d5900008e841d,69b95efdef24cd8a694e89ee,69b960f54a6040ca440812e4,0.2763,0.2763,1,40,202,77,1,threefour,,,,,,,,,,,,,,,,,,,,,,,,,,,,,,,,,,,,,,,,,,,,,,,,,,,,,,,,,,,,,,,,,,,,,,,,,,,,,,,,,,,,,,,,,,,,,,,,,,,,,,,,,,,,,,,,,,,,,,,,,,,,,,,,,,,,,,,,,
,,6739e14db26d5900008e841d,2026-03-17_16h11.57.229,kallum_motion_pilot_GIST_update_2,2026.1.1,Linux armv81,59.88023952,6739e14db26d5900008e841d,69b95efdef24cd8a694e89ee,69b960f54a6040ca440812e4,0.2773,0.2773,1,41,203,34,1,twoone,,,,,,,,,,,,,,,,,,,,,,,,,,,,,,,,,,,,,,,,,,,,,,,,,,,,,,,,,,,,,,,,,,,,,,,,,,,,,,,,,,,,,,,,,,,,,,,,,,,,,,,,,,,,,,,,,,,,,,,,,,,,,,,,,,,,,,,,,
,,6739e14db26d5900008e841d,2026-03-17_16h11.57.229,kallum_motion_pilot_GIST_update_2,2026.1.1,Linux armv81,59.88023952,6739e14db26d5900008e841d,69b95efdef24cd8a694e89ee,69b960f54a6040ca440812e4,0.2782,0.2782,1,42,204,151,1,eightseven,,,,,,,,,,,,,,,,,,,,,,,,,,,,,,,,,,,,,,,,,,,,,,,,,,,,,,,,,,,,,,,,,,,,,,,,,,,,,,,,,,,,,,,,,,,,,,,,,,,,,,,,,,,,,,,,,,,,,,,,,,,,,,,,,,,,,,,,,
,,6739e14db26d5900008e841d,2026-03-17_16h11.57.229,kallum_motion_pilot_GIST_update_2,2026.1.1,Linux armv81,59.88023952,6739e14db26d5900008e841d,69b95efdef24cd8a694e89ee,69b960f54a6040ca440812e4,0.2793,0.2794,1,43,205,145,1,fiveseven,,,,,,,,,,,,,,,,,,,,,,,,,,,,,,,,,,,,,,,,,,,,,,,,,,,,,,,,,,,,,,,,,,,,,,,,,,,,,,,,,,,,,,,,,,,,,,,,,,,,,,,,,,,,,,,,,,,,,,,,,,,,,,,,,,,,,,,,,
,,6739e14db26d5900008e841d,2026-03-17_16h11.57.229,kallum_motion_pilot_GIST_update_2,2026.1.1,Linux armv81,59.88023952,6739e14db26d5900008e841d,69b95efdef24cd8a694e89ee,69b960f54a6040ca440812e4,0.2805,0.2806,1,44,206,74,1,twoone,,,,,,,,,,,,,,,,,,,,,,,,,,,,,,,,,,,,,,,,,,,,,,,,,,,,,,,,,,,,,,,,,,,,,,,,,,,,,,,,,,,,,,,,,,,,,,,,,,,,,,,,,,,,,,,,,,,,,,,,,,,,,,,,,,,,,,,,,
,,6739e14db26d5900008e841d,2026-03-17_16h11.57.229,kallum_motion_pilot_GIST_update_2,2026.1.1,Linux armv81,59.88023952,6739e14db26d5900008e841d,69b95efdef24cd8a694e89ee,69b960f54a6040ca440812e4,0.2817,0.2818,1,45,207,19,1,twofour,,,,,,,,,,,,,,,,,,,,,,,,,,,,,,,,,,,,,,,,,,,,,,,,,,,,,,,,,,,,,,,,,,,,,,,,,,,,,,,,,,,,,,,,,,,,,,,,,,,,,,,,,,,,,,,,,,,,,,,,,,,,,,,,,,,,,,,,,
,,6739e14db26d5900008e841d,2026-03-17_16h11.57.229,kallum_motion_pilot_GIST_update_2,2026.1.1,Linux armv81,59.88023952,6739e14db26d5900008e841d,69b95efdef24cd8a694e89ee,69b960f54a6040ca440812e4,0.2829,0.2829,1,46,208,95,1,eightseven,,,,,,,,,,,,,,,,,,,,,,,,,,,,,,,,,,,,,,,,,,,,,,,,,,,,,,,,,,,,,,,,,,,,,,,,,,,,,,,,,,,,,,,,,,,,,,,,,,,,,,,,,,,,,,,,,,,,,,,,,,,,,,,,,,,,,,,,,
,,6739e14db26d5900008e841d,2026-03-17_16h11.57.229,kallum_motion_pilot_GIST_update_2,2026.1.1,Linux armv81,59.88023952,6739e14db26d5900008e841d,69b95efdef24cd8a694e89ee,69b960f54a6040ca440812e4,0.284,0.284,1,47,209,136,1,fivesix,,,,,,,,,,,,,,,,,,,,,,,,,,,,,,,,,,,,,,,,,,,,,,,,,,,,,,,,,,,,,,,,,,,,,,,,,,,,,,,,,,,,,,,,,,,,,,,,,,,,,,,,,,,,,,,,,,,,,,,,,,,,,,,,,,,,,,,,,
,,6739e14db26d5900008e841d,2026-03-17_16h11.57.229,kallum_motion_pilot_GIST_update_2,2026.1.1,Linux armv81,59.88023952,6739e14db26d5900008e841d,69b95efdef24cd8a694e89ee,69b960f54a6040ca440812e4,0.2849,0.285,1,48,210,107,1,sixeight,,,,,,,,,,,,,,,,,,,,,,,,,,,,,,,,,,,,,,,,,,,,,,,,,,,,,,,,,,,,,,,,,,,,,,,,,,,,,,,,,,,,,,,,,,,,,,,,,,,,,,,,,,,,,,,,,,,,,,,,,,,,,,,,,,,,,,,,,
,,6739e14db26d5900008e841d,2026-03-17_16h11.57.229,kallum_motion_pilot_GIST_update_2,2026.1.1,Linux armv81,59.88023952,6739e14db26d5900008e841d,69b95efdef24cd8a694e89ee,69b960f54a6040ca440812e4,0.2858,0.2859,1,49,211,155,1,sixeight,,,,,,,,,,,,,,,,,,,,,,,,,,,,,,,,,,,,,,,,,,,,,,,,,,,,,,,,,,,,,,,,,,,,,,,,,,,,,,,,,,,,,,,,,,,,,,,,,,,,,,,,,,,,,,,,,,,,,,,,,,,,,,,,,,,,,,,,,
,,6739e14db26d5900008e841d,2026-03-17_16h11.57.229,kallum_motion_pilot_GIST_update_2,2026.1.1,Linux armv81,59.88023952,6739e14db26d5900008e841d,69b95efdef24cd8a694e89ee,69b960f54a6040ca440812e4,0.2871,0.2871,1,50,212,108,1,sevenfive,,,,,,,,,,,,,,,,,,,,,,,,,,,,,,,,,,,,,,,,,,,,,,,,,,,,,,,,,,,,,,,,,,,,,,,,,,,,,,,,,,,,,,,,,,,,,,,,,,,,,,,,,,,,,,,,,,,,,,,,,,,,,,,,,,,,,,,,,
,,6739e14db26d5900008e841d,2026-03-17_16h11.57.229,kallum_motion_pilot_GIST_update_2,2026.1.1,Linux armv81,59.88023952,6739e14db26d5900008e841d,69b95efdef24cd8a694e89ee,69b960f54a6040ca440812e4,0.2882,0.2882,1,51,213,114,1,sixfive,,,,,,,,,,,,,,,,,,,,,,,,,,,,,,,,,,,,,,,,,,,,,,,,,,,,,,,,,,,,,,,,,,,,,,,,,,,,,,,,,,,,,,,,,,,,,,,,,,,,,,,,,,,,,,,,,,,,,,,,,,,,,,,,,,,,,,,,,
,,6739e14db26d5900008e841d,2026-03-17_16h11.57.229,kallum_motion_pilot_GIST_update_2,2026.1.1,Linux armv81,59.88023952,6739e14db26d5900008e841d,69b95efdef24cd8a694e89ee,69b960f54a6040ca440812e4,0.2891,0.2892,1,52,214,141,1,seveneight,,,,,,,,,,,,,,,,,,,,,,,,,,,,,,,,,,,,,,,,,,,,,,,,,,,,,,,,,,,,,,,,,,,,,,,,,,,,,,,,,,,,,,,,,,,,,,,,,,,,,,,,,,,,,,,,,,,,,,,,,,,,,,,,,,,,,,,,,
,,6739e14db26d5900008e841d,2026-03-17_16h11.57.229,kallum_motion_pilot_GIST_update_2,2026.1.1,Linux armv81,59.88023952,6739e14db26d5900008e841d,69b95efdef24cd8a694e89ee,69b960f54a6040ca440812e4,0.2901,0.2902,1,53,215,161,1,fiveseven,,,,,,,,,,,,,,,,,,,,,,,,,,,,,,,,,,,,,,,,,,,,,,,,,,,,,,,,,,,,,,,,,,,,,,,,,,,,,,,,,,,,,,,,,,,,,,,,,,,,,,,,,,,,,,,,,,,,,,,,,,,,,,,,,,,,,,,,,
,,6739e14db26d5900008e841d,2026-03-17_16h11.57.229,kallum_motion_pilot_GIST_update_2,2026.1.1,Linux armv81,59.88023952,6739e14db26d5900008e841d,69b95efdef24cd8a694e89ee,69b960f54a6040ca440812e4,0.2913,0.2914,1,54,216,13,1,threefour,,,,,,,,,,,,,,,,,,,,,,,,,,,,,,,,,,,,,,,,,,,,,,,,,,,,,,,,,,,,,,,,,,,,,,,,,,,,,,,,,,,,,,,,,,,,,,,,,,,,,,,,,,,,,,,,,,,,,,,,,,,,,,,,,,,,,,,,,
,,6739e14db26d5900008e841d,2026-03-17_16h11.57.229,kallum_motion_pilot_GIST_update_2,2026.1.1,Linux armv81,59.88023952,6739e14db26d5900008e841d,69b95efdef24cd8a694e89ee,69b960f54a6040ca440812e4,0.2924,0.2924,1,55,217,14,1,fourtwo,,,,,,,,,,,,,,,,,,,,,,,,,,,,,,,,,,,,,,,,,,,,,,,,,,,,,,,,,,,,,,,,,,,,,,,,,,,,,,,,,,,,,,,,,,,,,,,,,,,,,,,,,,,,,,,,,,,,,,,,,,,,,,,,,,,,,,,,,
,,6739e14db26d5900008e841d,2026-03-17_16h11.57.229,kallum_motion_pilot_GIST_update_2,2026.1.1,Linux armv81,59.88023952,6739e14db26d5900008e841d,69b95efdef24cd8a694e89ee,69b960f54a6040ca440812e4,0.2934,0.2935,1,56,218,105,1,fiveseven,,,,,,,,,,,,,,,,,,,,,,,,,,,,,,,,,,,,,,,,,,,,,,,,,,,,,,,,,,,,,,,,,,,,,,,,,,,,,,,,,,,,,,,,,,,,,,,,,,,,,,,,,,,,,,,,,,,,,,,,,,,,,,,,,,,,,,,,,
,,6739e14db26d5900008e841d,2026-03-17_16h11.57.229,kallum_motion_pilot_GIST_update_2,2026.1.1,Linux armv81,59.88023952,6739e14db26d5900008e841d,69b95efdef24cd8a694e89ee,69b960f54a6040ca440812e4,0.2943,0.2944,1,57,219,81,1,fiveseven,,,,,,,,,,,,,,,,,,,,,,,,,,,,,,,,,,,,,,,,,,,,,,,,,,,,,,,,,,,,,,,,,,,,,,,,,,,,,,,,,,,,,,,,,,,,,,,,,,,,,,,,,,,,,,,,,,,,,,,,,,,,,,,,,,,,,,,,,
,,6739e14db26d5900008e841d,2026-03-17_16h11.57.229,kallum_motion_pilot_GIST_update_2,2026.1.1,Linux armv81,59.88023952,6739e14db26d5900008e841d,69b95efdef24cd8a694e89ee,69b960f54a6040ca440812e4,0.2954,0.2955,1,58,220,93,1,seveneight,,,,,,,,,,,,,,,,,,,,,,,,,,,,,,,,,,,,,,,,,,,,,,,,,,,,,,,,,,,,,,,,,,,,,,,,,,,,,,,,,,,,,,,,,,,,,,,,,,,,,,,,,,,,,,,,,,,,,,,,,,,,,,,,,,,,,,,,,
,,6739e14db26d5900008e841d,2026-03-17_16h11.57.229,kallum_motion_pilot_GIST_update_2,2026.1.1,Linux armv81,59.88023952,6739e14db26d5900008e841d,69b95efdef24cd8a694e89ee,69b960f54a6040ca440812e4,0.2964,0.2965,1,59,221,9,1,onethree,,,,,,,,,,,,,,,,,,,,,,,,,,,,,,,,,,,,,,,,,,,,,,,,,,,,,,,,,,,,,,,,,,,,,,,,,,,,,,,,,,,,,,,,,,,,,,,,,,,,,,,,,,,,,,,,,,,,,,,,,,,,,,,,,,,,,,,,,
,,6739e14db26d5900008e841d,2026-03-17_16h11.57.229,kallum_motion_pilot_GIST_update_2,2026.1.1,Linux armv81,59.88023952,6739e14db26d5900008e841d,69b95efdef24cd8a694e89ee,69b960f54a6040ca440812e4,0.2974,0.2975,1,60,222,154,1,sixfive,,,,,,,,,,,,,,,,,,,,,,,,,,,,,,,,,,,,,,,,,,,,,,,,,,,,,,,,,,,,,,,,,,,,,,,,,,,,,,,,,,,,,,,,,,,,,,,,,,,,,,,,,,,,,,,,,,,,,,,,,,,,,,,,,,,,,,,,,
,,6739e14db26d5900008e841d,2026-03-17_16h11.57.229,kallum_motion_pilot_GIST_update_2,2026.1.1,Linux armv81,59.88023952,6739e14db26d5900008e841d,69b95efdef24cd8a694e89ee,69b960f54a6040ca440812e4,0.2986,0.2988,1,61,223,117,1,seveneight,,,,,,,,,,,,,,,,,,,,,,,,,,,,,,,,,,,,,,,,,,,,,,,,,,,,,,,,,,,,,,,,,,,,,,,,,,,,,,,,,,,,,,,,,,,,,,,,,,,,,,,,,,,,,,,,,,,,,,,,,,,,,,,,,,,,,,,,,
,,6739e14db26d5900008e841d,2026-03-17_16h11.57.229,kallum_motion_pilot_GIST_update_2,2026.1.1,Linux armv81,59.88023952,6739e14db26d5900008e841d,69b95efdef24cd8a694e89ee,69b960f54a6040ca440812e4,0.3,0.3001,1,62,224,150,1,eightsix,,,,,,,,,,,,,,,,,,,,,,,,,,,,,,,,,,,,,,,,,,,,,,,,,,,,,,,,,,,,,,,,,,,,,,,,,,,,,,,,,,,,,,,,,,,,,,,,,,,,,,,,,,,,,,,,,,,,,,,,,,,,,,,,,,,,,,,,,
,,6739e14db26d5900008e841d,2026-03-17_16h11.57.229,kallum_motion_pilot_GIST_update_2,2026.1.1,Linux armv81,59.88023952,6739e14db26d5900008e841d,69b95efdef24cd8a694e89ee,69b960f54a6040ca440812e4,0.301,0.3011,1,63,225,133,1,seveneight,,,,,,,,,,,,,,,,,,,,,,,,,,,,,,,,,,,,,,,,,,,,,,,,,,,,,,,,,,,,,,,,,,,,,,,,,,,,,,,,,,,,,,,,,,,,,,,,,,,,,,,,,,,,,,,,,,,,,,,,,,,,,,,,,,,,,,,,,
,,6739e14db26d5900008e841d,2026-03-17_16h11.57.229,kallum_motion_pilot_GIST_update_2,2026.1.1,Linux armv81,59.88023952,6739e14db26d5900008e841d,69b95efdef24cd8a694e89ee,69b960f54a6040ca440812e4,0.3021,0.3021,1,64,226,109,1,seveneight,,,,,,,,,,,,,,,,,,,,,,,,,,,,,,,,,,,,,,,,,,,,,,,,,,,,,,,,,,,,,,,,,,,,,,,,,,,,,,,,,,,,,,,,,,,,,,,,,,,,,,,,,,,,,,,,,,,,,,,,,,,,,,,,,,,,,,,,,
,,6739e14db26d5900008e841d,2026-03-17_16h11.57.229,kallum_motion_pilot_GIST_update_2,2026.1.1,Linux armv81,59.88023952,6739e14db26d5900008e841d,69b95efdef24cd8a694e89ee,69b960f54a6040ca440812e4,0.3031,0.3031,1,65,227,132,1,sevenfive,,,,,,,,,,,,,,,,,,,,,,,,,,,,,,,,,,,,,,,,,,,,,,,,,,,,,,,,,,,,,,,,,,,,,,,,,,,,,,,,,,,,,,,,,,,,,,,,,,,,,,,,,,,,,,,,,,,,,,,,,,,,,,,,,,,,,,,,,
,,6739e14db26d5900008e841d,2026-03-17_16h11.57.229,kallum_motion_pilot_GIST_update_2,2026.1.1,Linux armv81,59.88023952,6739e14db26d5900008e841d,69b95efdef24cd8a694e89ee,69b960f54a6040ca440812e4,0.3041,0.3041,1,66,228,41,1,onethree,,,,,,,,,,,,,,,,,,,,,,,,,,,,,,,,,,,,,,,,,,,,,,,,,,,,,,,,,,,,,,,,,,,,,,,,,,,,,,,,,,,,,,,,,,,,,,,,,,,,,,,,,,,,,,,,,,,,,,,,,,,,,,,,,,,,,,,,,
,,6739e14db26d5900008e841d,2026-03-17_16h11.57.229,kallum_motion_pilot_GIST_update_2,2026.1.1,Linux armv81,59.88023952,6739e14db26d5900008e841d,69b95efdef24cd8a694e89ee,69b960f54a6040ca440812e4,0.3051,0.3052,1,67,229,92,1,sevenfive,,,,,,,,,,,,,,,,,,,,,,,,,,,,,,,,,,,,,,,,,,,,,,,,,,,,,,,,,,,,,,,,,,,,,,,,,,,,,,,,,,,,,,,,,,,,,,,,,,,,,,,,,,,,,,,,,,,,,,,,,,,,,,,,,,,,,,,,,
,,6739e14db26d5900008e841d,2026-03-17_16h11.57.229,kallum_motion_pilot_GIST_update_2,2026.1.1,Linux armv81,59.88023952,6739e14db26d5900008e841d,69b95efdef24cd8a694e89ee,69b960f54a6040ca440812e4,0.3061,0.3062,1,68,230,61,1,threefour,,,,,,,,,,,,,,,,,,,,,,,,,,,,,,,,,,,,,,,,,,,,,,,,,,,,,,,,,,,,,,,,,,,,,,,,,,,,,,,,,,,,,,,,,,,,,,,,,,,,,,,,,,,,,,,,,,,,,,,,,,,,,,,,,,,,,,,,,
,,6739e14db26d5900008e841d,2026-03-17_16h11.57.229,kallum_motion_pilot_GIST_update_2,2026.1.1,Linux armv81,59.88023952,6739e14db26d5900008e841d,69b95efdef24cd8a694e89ee,69b960f54a6040ca440812e4,0.3072,0.3073,1,69,231,47,1,fourthree,,,,,,,,,,,,,,,,,,,,,,,,,,,,,,,,,,,,,,,,,,,,,,,,,,,,,,,,,,,,,,,,,,,,,,,,,,,,,,,,,,,,,,,,,,,,,,,,,,,,,,,,,,,,,,,,,,,,,,,,,,,,,,,,,,,,,,,,,
,,6739e14db26d5900008e841d,2026-03-17_16h11.57.229,kallum_motion_pilot_GIST_update_2,2026.1.1,Linux armv81,59.88023952,6739e14db26d5900008e841d,69b95efdef24cd8a694e89ee,69b960f54a6040ca440812e4,0.3083,0.3084,1,70,232,71,1,fourthree,,,,,,,,,,,,,,,,,,,,,,,,,,,,,,,,,,,,,,,,,,,,,,,,,,,,,,,,,,,,,,,,,,,,,,,,,,,,,,,,,,,,,,,,,,,,,,,,,,,,,,,,,,,,,,,,,,,,,,,,,,,,,,,,,,,,,,,,,
,,6739e14db26d5900008e841d,2026-03-17_16h11.57.229,kallum_motion_pilot_GIST_update_2,2026.1.1,Linux armv81,59.88023952,6739e14db26d5900008e841d,69b95efdef24cd8a694e89ee,69b960f54a6040ca440812e4,0.3092,0.3093,1,71,233,115,1,sixeight,,,,,,,,,,,,,,,,,,,,,,,,,,,,,,,,,,,,,,,,,,,,,,,,,,,,,,,,,,,,,,,,,,,,,,,,,,,,,,,,,,,,,,,,,,,,,,,,,,,,,,,,,,,,,,,,,,,,,,,,,,,,,,,,,,,,,,,,,
,,6739e14db26d5900008e841d,2026-03-17_16h11.57.229,kallum_motion_pilot_GIST_update_2,2026.1.1,Linux armv81,59.88023952,6739e14db26d5900008e841d,69b95efdef24cd8a694e89ee,69b960f54a6040ca440812e4,0.3103,0.3103,1,72,234,112,1,fivesix,,,,,,,,,,,,,,,,,,,,,,,,,,,,,,,,,,,,,,,,,,,,,,,,,,,,,,,,,,,,,,,,,,,,,,,,,,,,,,,,,,,,,,,,,,,,,,,,,,,,,,,,,,,,,,,,,,,,,,,,,,,,,,,,,,,,,,,,,
,,6739e14db26d5900008e841d,2026-03-17_16h11.57.229,kallum_motion_pilot_GIST_update_2,2026.1.1,Linux armv81,59.88023952,6739e14db26d5900008e841d,69b95efdef24cd8a694e89ee,69b960f54a6040ca440812e4,0.3114,0.3115,1,73,235,69,1,threefour,,,,,,,,,,,,,,,,,,,,,,,,,,,,,,,,,,,,,,,,,,,,,,,,,,,,,,,,,,,,,,,,,,,,,,,,,,,,,,,,,,,,,,,,,,,,,,,,,,,,,,,,,,,,,,,,,,,,,,,,,,,,,,,,,,,,,,,,,
,,6739e14db26d5900008e841d,2026-03-17_16h11.57.229,kallum_motion_pilot_GIST_update_2,2026.1.1,Linux armv81,59.88023952,6739e14db26d5900008e841d,69b95efdef24cd8a694e89ee,69b960f54a6040ca440812e4,0.3124,0.3125,1,74,236,31,1,fourthree,,,,,,,,,,,,,,,,,,,,,,,,,,,,,,,,,,,,,,,,,,,,,,,,,,,,,,,,,,,,,,,,,,,,,,,,,,,,,,,,,,,,,,,,,,,,,,,,,,,,,,,,,,,,,,,,,,,,,,,,,,,,,,,,,,,,,,,,,
,,6739e14db26d5900008e841d,2026-03-17_16h11.57.229,kallum_motion_pilot_GIST_update_2,2026.1.1,Linux armv81,59.88023952,6739e14db26d5900008e841d,69b95efdef24cd8a694e89ee,69b960f54a6040ca440812e4,0.3134,0.3135,1,75,237,5,1,threefour,,,,,,,,,,,,,,,,,,,,,,,,,,,,,,,,,,,,,,,,,,,,,,,,,,,,,,,,,,,,,,,,,,,,,,,,,,,,,,,,,,,,,,,,,,,,,,,,,,,,,,,,,,,,,,,,,,,,,,,,,,,,,,,,,,,,,,,,,
,,6739e14db26d5900008e841d,2026-03-17_16h11.57.229,kallum_motion_pilot_GIST_update_2,2026.1.1,Linux armv81,59.88023952,6739e14db26d5900008e841d,69b95efdef24cd8a694e89ee,69b960f54a6040ca440812e4,0.3145,0.3145,1,76,238,144,1,fivesix,,,,,,,,,,,,,,,,,,,,,,,,,,,,,,,,,,,,,,,,,,,,,,,,,,,,,,,,,,,,,,,,,,,,,,,,,,,,,,,,,,,,,,,,,,,,,,,,,,,,,,,,,,,,,,,,,,,,,,,,,,,,,,,,,,,,,,,,,
,,6739e14db26d5900008e841d,2026-03-17_16h11.57.229,kallum_motion_pilot_GIST_update_2,2026.1.1,Linux armv81,59.88023952,6739e14db26d5900008e841d,69b95efdef24cd8a694e89ee,69b960f54a6040ca440812e4,0.3155,0.3155,1,77,239,104,1,fivesix,,,,,,,,,,,,,,,,,,,,,,,,,,,,,,,,,,,,,,,,,,,,,,,,,,,,,,,,,,,,,,,,,,,,,,,,,,,,,,,,,,,,,,,,,,,,,,,,,,,,,,,,,,,,,,,,,,,,,,,,,,,,,,,,,,,,,,,,,
,,6739e14db26d5900008e841d,2026-03-17_16h11.57.229,kallum_motion_pilot_GIST_update_2,2026.1.1,Linux armv81,59.88023952,6739e14db26d5900008e841d,69b95efdef24cd8a694e89ee,69b960f54a6040ca440812e4,0.3165,0.3165,1,78,240,43,1,twofour,,,,,,,,,,,,,,,,,,,,,,,,,,,,,,,,,,,,,,,,,,,,,,,,,,,,,,,,,,,,,,,,,,,,,,,,,,,,,,,,,,,,,,,,,,,,,,,,,,,,,,,,,,,,,,,,,,,,,,,,,,,,,,,,,,,,,,,,,
,,6739e14db26d5900008e841d,2026-03-17_16h11.57.229,kallum_motion_pilot_GIST_update_2,2026.1.1,Linux armv81,59.88023952,6739e14db26d5900008e841d,69b95efdef24cd8a694e89ee,69b960f54a6040ca440812e4,0.3175,0.3176,1,79,241,100,1,sevenfive,,,,,,,,,,,,,,,,,,,,,,,,,,,,,,,,,,,,,,,,,,,,,,,,,,,,,,,,,,,,,,,,,,,,,,,,,,,,,,,,,,,,,,,,,,,,,,,,,,,,,,,,,,,,,,,,,,,,,,,,,,,,,,,,,,,,,,,,,
,,6739e14db26d5900008e841d,2026-03-17_16h11.57.229,kallum_motion_pilot_GIST_update_2,2026.1.1,Linux armv81,59.88023952,6739e14db26d5900008e841d,69b95efdef24cd8a694e89ee,69b960f54a6040ca440812e4,0.3185,0.3186,1,80,242,48,1,onetwo,,,,,,,,,,,,,,,,,,,,,,,,,,,,,,,,,,,,,,,,,,,,,,,,,,,,,,,,,,,,,,,,,,,,,,,,,,,,,,,,,,,,,,,,,,,,,,,,,,,,,,,,,,,,,,,,,,,,,,,,,,,,,,,,,,,,,,,,,
,,6739e14db26d5900008e841d,2026-03-17_16h11.57.229,kallum_motion_pilot_GIST_update_2,2026.1.1,Linux armv81,59.88023952,6739e14db26d5900008e841d,69b95efdef24cd8a694e89ee,69b960f54a6040ca440812e4,0.3196,0.3196,1,81,243,158,1,eightsix,,,,,,,,,,,,,,,,,,,,,,,,,,,,,,,,,,,,,,,,,,,,,,,,,,,,,,,,,,,,,,,,,,,,,,,,,,,,,,,,,,,,,,,,,,,,,,,,,,,,,,,,,,,,,,,,,,,,,,,,,,,,,,,,,,,,,,,,,
,,6739e14db26d5900008e841d,2026-03-17_16h11.57.229,kallum_motion_pilot_GIST_update_2,2026.1.1,Linux armv81,59.88023952,6739e14db26d5900008e841d,69b95efdef24cd8a694e89ee,69b960f54a6040ca440812e4,0.3206,0.3206,1,82,244,59,1,twofour,,,,,,,,,,,,,,,,,,,,,,,,,,,,,,,,,,,,,,,,,,,,,,,,,,,,,,,,,,,,,,,,,,,,,,,,,,,,,,,,,,,,,,,,,,,,,,,,,,,,,,,,,,,,,,,,,,,,,,,,,,,,,,,,,,,,,,,,,
,,6739e14db26d5900008e841d,2026-03-17_16h11.57.229,kallum_motion_pilot_GIST_update_2,2026.1.1,Linux armv81,59.88023952,6739e14db26d5900008e841d,69b95efdef24cd8a694e89ee,69b960f54a6040ca440812e4,0.3216,0.3216,1,83,245,76,1,threeone,,,,,,,,,,,,,,,,,,,,,,,,,,,,,,,,,,,,,,,,,,,,,,,,,,,,,,,,,,,,,,,,,,,,,,,,,,,,,,,,,,,,,,,,,,,,,,,,,,,,,,,,,,,,,,,,,,,,,,,,,,,,,,,,,,,,,,,,,
,,6739e14db26d5900008e841d,2026-03-17_16h11.57.229,kallum_motion_pilot_GIST_update_2,2026.1.1,Linux armv81,59.88023952,6739e14db26d5900008e841d,69b95efdef24cd8a694e89ee,69b960f54a6040ca440812e4,0.3226,0.3227,1,84,246,18,1,twoone,,,,,,,,,,,,,,,,,,,,,,,,,,,,,,,,,,,,,,,,,,,,,,,,,,,,,,,,,,,,,,,,,,,,,,,,,,,,,,,,,,,,,,,,,,,,,,,,,,,,,,,,,,,,,,,,,,,,,,,,,,,,,,,,,,,,,,,,,
,,6739e14db26d5900008e841d,2026-03-17_16h11.57.229,kallum_motion_pilot_GIST_update_2,2026.1.1,Linux armv81,59.88023952,6739e14db26d5900008e841d,69b95efdef24cd8a694e89ee,69b960f54a6040ca440812e4,0.3238,0.3239,1,85,247,50,1,twoone,,,,,,,,,,,,,,,,,,,,,,,,,,,,,,,,,,,,,,,,,,,,,,,,,,,,,,,,,,,,,,,,,,,,,,,,,,,,,,,,,,,,,,,,,,,,,,,,,,,,,,,,,,,,,,,,,,,,,,,,,,,,,,,,,,,,,,,,,
,,6739e14db26d5900008e841d,2026-03-17_16h11.57.229,kallum_motion_pilot_GIST_update_2,2026.1.1,Linux armv81,59.88023952,6739e14db26d5900008e841d,69b95efdef24cd8a694e89ee,69b960f54a6040ca440812e4,0.3249,0.3249,1,86,248,7,1,fourthree,,,,,,,,,,,,,,,,,,,,,,,,,,,,,,,,,,,,,,,,,,,,,,,,,,,,,,,,,,,,,,,,,,,,,,,,,,,,,,,,,,,,,,,,,,,,,,,,,,,,,,,,,,,,,,,,,,,,,,,,,,,,,,,,,,,,,,,,,
,,6739e14db26d5900008e841d,2026-03-17_16h11.57.229,kallum_motion_pilot_GIST_update_2,2026.1.1,Linux armv81,59.88023952,6739e14db26d5900008e841d,69b95efdef24cd8a694e89ee,69b960f54a6040ca440812e4,0.3259,0.3259,1,87,249,70,1,fourtwo,,,,,,,,,,,,,,,,,,,,,,,,,,,,,,,,,,,,,,,,,,,,,,,,,,,,,,,,,,,,,,,,,,,,,,,,,,,,,,,,,,,,,,,,,,,,,,,,,,,,,,,,,,,,,,,,,,,,,,,,,,,,,,,,,,,,,,,,,
,,6739e14db26d5900008e841d,2026-03-17_16h11.57.229,kallum_motion_pilot_GIST_update_2,2026.1.1,Linux armv81,59.88023952,6739e14db26d5900008e841d,69b95efdef24cd8a694e89ee,69b960f54a6040ca440812e4,0.327,0.3271,1,88,250,38,1,fourtwo,,,,,,,,,,,,,,,,,,,,,,,,,,,,,,,,,,,,,,,,,,,,,,,,,,,,,,,,,,,,,,,,,,,,,,,,,,,,,,,,,,,,,,,,,,,,,,,,,,,,,,,,,,,,,,,,,,,,,,,,,,,,,,,,,,,,,,,,,
,,6739e14db26d5900008e841d,2026-03-17_16h11.57.229,kallum_motion_pilot_GIST_update_2,2026.1.1,Linux armv81,59.88023952,6739e14db26d5900008e841d,69b95efdef24cd8a694e89ee,69b960f54a6040ca440812e4,0.3283,0.3283,1,89,251,17,1,onethree,,,,,,,,,,,,,,,,,,,,,,,,,,,,,,,,,,,,,,,,,,,,,,,,,,,,,,,,,,,,,,,,,,,,,,,,,,,,,,,,,,,,,,,,,,,,,,,,,,,,,,,,,,,,,,,,,,,,,,,,,,,,,,,,,,,,,,,,,
,,6739e14db26d5900008e841d,2026-03-17_16h11.57.229,kallum_motion_pilot_GIST_update_2,2026.1.1,Linux armv81,59.88023952,6739e14db26d5900008e841d,69b95efdef24cd8a694e89ee,69b960f54a6040ca440812e4,0.3294,0.3294,1,90,252,88,1,fivesix,,,,,,,,,,,,,,,,,,,,,,,,,,,,,,,,,,,,,,,,,,,,,,,,,,,,,,,,,,,,,,,,,,,,,,,,,,,,,,,,,,,,,,,,,,,,,,,,,,,,,,,,,,,,,,,,,,,,,,,,,,,,,,,,,,,,,,,,,
,,6739e14db26d5900008e841d,2026-03-17_16h11.57.229,kallum_motion_pilot_GIST_update_2,2026.1.1,Linux armv81,59.88023952,6739e14db26d5900008e841d,69b95efdef24cd8a694e89ee,69b960f54a6040ca440812e4,0.3304,0.3304,1,91,253,84,1,sevenfive,,,,,,,,,,,,,,,,,,,,,,,,,,,,,,,,,,,,,,,,,,,,,,,,,,,,,,,,,,,,,,,,,,,,,,,,,,,,,,,,,,,,,,,,,,,,,,,,,,,,,,,,,,,,,,,,,,,,,,,,,,,,,,,,,,,,,,,,,
,,6739e14db26d5900008e841d,2026-03-17_16h11.57.229,kallum_motion_pilot_GIST_update_2,2026.1.1,Linux armv81,59.88023952,6739e14db26d5900008e841d,69b95efdef24cd8a694e89ee,69b960f54a6040ca440812e4,0.3315,0.3316,1,92,254,106,1,sixfive,,,,,,,,,,,,,,,,,,,,,,,,,,,,,,,,,,,,,,,,,,,,,,,,,,,,,,,,,,,,,,,,,,,,,,,,,,,,,,,,,,,,,,,,,,,,,,,,,,,,,,,,,,,,,,,,,,,,,,,,,,,,,,,,,,,,,,,,,
,,6739e14db26d5900008e841d,2026-03-17_16h11.57.229,kallum_motion_pilot_GIST_update_2,2026.1.1,Linux armv81,59.88023952,6739e14db26d5900008e841d,69b95efdef24cd8a694e89ee,69b960f54a6040ca440812e4,0.3325,0.3326,1,93,255,86,1,eightsix,,,,,,,,,,,,,,,,,,,,,,,,,,,,,,,,,,,,,,,,,,,,,,,,,,,,,,,,,,,,,,,,,,,,,,,,,,,,,,,,,,,,,,,,,,,,,,,,,,,,,,,,,,,,,,,,,,,,,,,,,,,,,,,,,,,,,,,,,
,,6739e14db26d5900008e841d,2026-03-17_16h11.57.229,kallum_motion_pilot_GIST_update_2,2026.1.1,Linux armv81,59.88023952,6739e14db26d5900008e841d,69b95efdef24cd8a694e89ee,69b960f54a6040ca440812e4,0.3335,0.3336,1,94,256,29,1,threefour,,,,,,,,,,,,,,,,,,,,,,,,,,,,,,,,,,,,,,,,,,,,,,,,,,,,,,,,,,,,,,,,,,,,,,,,,,,,,,,,,,,,,,,,,,,,,,,,,,,,,,,,,,,,,,,,,,,,,,,,,,,,,,,,,,,,,,,,,
,,6739e14db26d5900008e841d,2026-03-17_16h11.57.229,kallum_motion_pilot_GIST_update_2,2026.1.1,Linux armv81,59.88023952,6739e14db26d5900008e841d,69b95efdef24cd8a694e89ee,69b960f54a6040ca440812e4,0.3345,0.3346,1,95,257,142,1,eightsix,,,,,,,,,,,,,,,,,,,,,,,,,,,,,,,,,,,,,,,,,,,,,,,,,,,,,,,,,,,,,,,,,,,,,,,,,,,,,,,,,,,,,,,,,,,,,,,,,,,,,,,,,,,,,,,,,,,,,,,,,,,,,,,,,,,,,,,,,
,,6739e14db26d5900008e841d,2026-03-17_16h11.57.229,kallum_motion_pilot_GIST_update_2,2026.1.1,Linux armv81,59.88023952,6739e14db26d5900008e841d,69b95efdef24cd8a694e89ee,69b960f54a6040ca440812e4,0.3359,0.336,1,96,258,160,1,fivesix,,,,,,,,,,,,,,,,,,,,,,,,,,,,,,,,,,,,,,,,,,,,,,,,,,,,,,,,,,,,,,,,,,,,,,,,,,,,,,,,,,,,,,,,,,,,,,,,,,,,,,,,,,,,,,,,,,,,,,,,,,,,,,,,,,,,,,,,,
,,6739e14db26d5900008e841d,2026-03-17_16h11.57.229,kallum_motion_pilot_GIST_update_2,2026.1.1,Linux armv81,59.88023952,6739e14db26d5900008e841d,69b95efdef24cd8a694e89ee,69b960f54a6040ca440812e4,0.337,0.337,1,97,259,27,1,twofour,,,,,,,,,,,,,,,,,,,,,,,,,,,,,,,,,,,,,,,,,,,,,,,,,,,,,,,,,,,,,,,,,,,,,,,,,,,,,,,,,,,,,,,,,,,,,,,,,,,,,,,,,,,,,,,,,,,,,,,,,,,,,,,,,,,,,,,,,
,,6739e14db26d5900008e841d,2026-03-17_16h11.57.229,kallum_motion_pilot_GIST_update_2,2026.1.1,Linux armv81,59.88023952,6739e14db26d5900008e841d,69b95efdef24cd8a694e89ee,69b960f54a6040ca440812e4,0.338,0.3381,1,98,260,66,1,twoone,,,,,,,,,,,,,,,,,,,,,,,,,,,,,,,,,,,,,,,,,,,,,,,,,,,,,,,,,,,,,,,,,,,,,,,,,,,,,,,,,,,,,,,,,,,,,,,,,,,,,,,,,,,,,,,,,,,,,,,,,,,,,,,,,,,,,,,,,
,,6739e14db26d5900008e841d,2026-03-17_16h11.57.229,kallum_motion_pilot_GIST_update_2,2026.1.1,Linux armv81,59.88023952,6739e14db26d5900008e841d,69b95efdef24cd8a694e89ee,69b960f54a6040ca440812e4,0.3392,0.3392,1,99,261,87,1,eightseven,,,,,,,,,,,,,,,,,,,,,,,,,,,,,,,,,,,,,,,,,,,,,,,,,,,,,,,,,,,,,,,,,,,,,,,,,,,,,,,,,,,,,,,,,,,,,,,,,,,,,,,,,,,,,,,,,,,,,,,,,,,,,,,,,,,,,,,,,
