startup.started,startup.stopped,Prolific ID*,date,expName,psychopyVersion,OS,frameRate,participant,study_id,session,stimpositions.started,stimpositions.stopped,hardcoded_stimulus_positions.thisRepN,hardcoded_stimulus_positions.thisTrialN,hardcoded_stimulus_positions.thisN,hardcoded_stimulus_positions.thisIndex,hardcoded_stimulus_positions.ran,StimulusPos,stimorientation.started,stimorientation.stopped,prac_stimorientation_import_loop.thisRepN,prac_stimorientation_import_loop.thisTrialN,prac_stimorientation_import_loop.thisN,prac_stimorientation_import_loop.thisIndex,prac_stimorientation_import_loop.ran,Stimorientation,welcome_instr.started,welcome_instr.stopped,key_resp.keys,key_resp.rt,key_resp.duration,response_steppedout_1.started,response_steppedout_1.stopped,key_resp_20.keys,key_resp_20.rt,key_resp_20.duration,response_steppedout_2.started,response_steppedout_2.stopped,key_resp_19.keys,key_resp_19.rt,key_resp_19.duration,stim_response_instr.started,stim_response_instr.stopped,key_resp_15.keys,key_resp_15.rt,key_resp_15.duration,direction_instr_2.started,direction_instr_2.stopped,key_resp_9.keys,key_resp_9.rt,key_resp_9.duration,instr_prac.started,instr_prac.stopped,key_resp_10.keys,key_resp_10.rt,key_resp_10.duration,Stim1_display_prac.started,Stim1_display_prac.stopped,Ecc,Circle1_ori,Circle2_ori,response_prac.started,similarity,response_time,response_prac.stopped,mouse_5.x,mouse_5.y,mouse_5.leftButton,mouse_5.midButton,mouse_5.rightButton,mouse_5.clicked_name,responseprac_feedback.started,responseprac_feedback.stopped,summary2_prac.started,summary2_prac.stopped,mouse_6.x,mouse_6.y,mouse_6.leftButton,mouse_6.midButton,mouse_6.rightButton,mouse_6.clicked_name,duringprac.thisRepN,duringprac.thisTrialN,duringprac.thisN,duringprac.thisIndex,duringprac.ran,begin.started,begin.stopped,key_resp_22.keys,key_resp_22.rt,key_resp_22.duration,Stim1_display.started,Stim1_display.stopped,circle1_ori,circle2_ori,circle1_SF,circle2_SF,response.started,response.stopped,mouse.x,mouse.y,mouse.leftButton,mouse.midButton,mouse.rightButton,mouse.clicked_name,trialnumber,double_pass.thisRepN,double_pass.thisTrialN,double_pass.thisN,double_pass.thisIndex,double_pass.ran,double_pass.order,main_trial.thisRepN,main_trial.thisTrialN,main_trial.thisN,main_trial.thisIndex,main_trial.ran,main_trial.order,Trial_Counter,Catch,Frequencies,response_2.started,response_2.stopped,mouse_2.x,mouse_2.y,mouse_2.leftButton,mouse_2.midButton,mouse_2.rightButton,mouse_2.clicked_name,special_trial.started,special_trial.stopped,catch_1.started,catch_1.stopped,mouse_3.x,mouse_3.y,mouse_3.leftButton,mouse_3.midButton,mouse_3.rightButton,catchresponse,catchnumber,response_time_catch,response_sum.started,response_sum.stopped,mouse_11.x,mouse_11.y,mouse_11.leftButton,mouse_11.midButton,mouse_11.rightButton,flip_presentation_sequence_for_double_pass.started,flip_presentation_sequence_for_double_pass.stopped,goodbye.started,goodbye.stopped,key_resp_3.keys,key_resp_3.rt,key_resp_3.duration
0.0007,0.001,673a1dcffde7de9c08f6d2e6,2026-03-17_14h31.13.678,kallum_motion_pilot_GIST_update_2,2026.1.1,Win32,59.88023952,673a1dcffde7de9c08f6d2e6,69b95efdef24cd8a694e89ee,69b960488d95a741f3adf43e,,,,,,,,,,,,,,,,,,,,,,,,,,,,,,,,,,,,,,,,,,,,,,,,,,,,,,,,,,,,,,,,,,,,,,,,,,,,,,,,,,,,,,,,,,,,,,,,,,,,,,,,,,,,,,,,,,,,,,,,,,,,,,,,,,,,,,,,,,,,,,,,,
,,673a1dcffde7de9c08f6d2e6,2026-03-17_14h31.13.678,kallum_motion_pilot_GIST_update_2,2026.1.1,Win32,59.88023952,673a1dcffde7de9c08f6d2e6,69b95efdef24cd8a694e89ee,69b960488d95a741f3adf43e,0.0595,0.0597,0,0,0,77,1,threefour,,,,,,,,,,,,,,,,,,,,,,,,,,,,,,,,,,,,,,,,,,,,,,,,,,,,,,,,,,,,,,,,,,,,,,,,,,,,,,,,,,,,,,,,,,,,,,,,,,,,,,,,,,,,,,,,,,,,,,,,,,,,,,,,,,,,,,,,,
,,673a1dcffde7de9c08f6d2e6,2026-03-17_14h31.13.678,kallum_motion_pilot_GIST_update_2,2026.1.1,Win32,59.88023952,673a1dcffde7de9c08f6d2e6,69b95efdef24cd8a694e89ee,69b960488d95a741f3adf43e,0.0604,0.0604,0,1,1,39,1,fourthree,,,,,,,,,,,,,,,,,,,,,,,,,,,,,,,,,,,,,,,,,,,,,,,,,,,,,,,,,,,,,,,,,,,,,,,,,,,,,,,,,,,,,,,,,,,,,,,,,,,,,,,,,,,,,,,,,,,,,,,,,,,,,,,,,,,,,,,,,
,,673a1dcffde7de9c08f6d2e6,2026-03-17_14h31.13.678,kallum_motion_pilot_GIST_update_2,2026.1.1,Win32,59.88023952,673a1dcffde7de9c08f6d2e6,69b95efdef24cd8a694e89ee,69b960488d95a741f3adf43e,0.0607,0.0607,0,2,2,18,1,twoone,,,,,,,,,,,,,,,,,,,,,,,,,,,,,,,,,,,,,,,,,,,,,,,,,,,,,,,,,,,,,,,,,,,,,,,,,,,,,,,,,,,,,,,,,,,,,,,,,,,,,,,,,,,,,,,,,,,,,,,,,,,,,,,,,,,,,,,,,
,,673a1dcffde7de9c08f6d2e6,2026-03-17_14h31.13.678,kallum_motion_pilot_GIST_update_2,2026.1.1,Win32,59.88023952,673a1dcffde7de9c08f6d2e6,69b95efdef24cd8a694e89ee,69b960488d95a741f3adf43e,0.0611,0.0612,0,3,3,3,1,twofour,,,,,,,,,,,,,,,,,,,,,,,,,,,,,,,,,,,,,,,,,,,,,,,,,,,,,,,,,,,,,,,,,,,,,,,,,,,,,,,,,,,,,,,,,,,,,,,,,,,,,,,,,,,,,,,,,,,,,,,,,,,,,,,,,,,,,,,,,
,,673a1dcffde7de9c08f6d2e6,2026-03-17_14h31.13.678,kallum_motion_pilot_GIST_update_2,2026.1.1,Win32,59.88023952,673a1dcffde7de9c08f6d2e6,69b95efdef24cd8a694e89ee,69b960488d95a741f3adf43e,0.0616,0.0616,0,4,4,9,1,onethree,,,,,,,,,,,,,,,,,,,,,,,,,,,,,,,,,,,,,,,,,,,,,,,,,,,,,,,,,,,,,,,,,,,,,,,,,,,,,,,,,,,,,,,,,,,,,,,,,,,,,,,,,,,,,,,,,,,,,,,,,,,,,,,,,,,,,,,,,
,,673a1dcffde7de9c08f6d2e6,2026-03-17_14h31.13.678,kallum_motion_pilot_GIST_update_2,2026.1.1,Win32,59.88023952,673a1dcffde7de9c08f6d2e6,69b95efdef24cd8a694e89ee,69b960488d95a741f3adf43e,0.0619,0.0619,0,5,5,46,1,fourtwo,,,,,,,,,,,,,,,,,,,,,,,,,,,,,,,,,,,,,,,,,,,,,,,,,,,,,,,,,,,,,,,,,,,,,,,,,,,,,,,,,,,,,,,,,,,,,,,,,,,,,,,,,,,,,,,,,,,,,,,,,,,,,,,,,,,,,,,,,
,,673a1dcffde7de9c08f6d2e6,2026-03-17_14h31.13.678,kallum_motion_pilot_GIST_update_2,2026.1.1,Win32,59.88023952,673a1dcffde7de9c08f6d2e6,69b95efdef24cd8a694e89ee,69b960488d95a741f3adf43e,0.0621,0.0621,0,6,6,124,1,sevenfive,,,,,,,,,,,,,,,,,,,,,,,,,,,,,,,,,,,,,,,,,,,,,,,,,,,,,,,,,,,,,,,,,,,,,,,,,,,,,,,,,,,,,,,,,,,,,,,,,,,,,,,,,,,,,,,,,,,,,,,,,,,,,,,,,,,,,,,,,
,,673a1dcffde7de9c08f6d2e6,2026-03-17_14h31.13.678,kallum_motion_pilot_GIST_update_2,2026.1.1,Win32,59.88023952,673a1dcffde7de9c08f6d2e6,69b95efdef24cd8a694e89ee,69b960488d95a741f3adf43e,0.0624,0.0624,0,7,7,31,1,fourthree,,,,,,,,,,,,,,,,,,,,,,,,,,,,,,,,,,,,,,,,,,,,,,,,,,,,,,,,,,,,,,,,,,,,,,,,,,,,,,,,,,,,,,,,,,,,,,,,,,,,,,,,,,,,,,,,,,,,,,,,,,,,,,,,,,,,,,,,,
,,673a1dcffde7de9c08f6d2e6,2026-03-17_14h31.13.678,kallum_motion_pilot_GIST_update_2,2026.1.1,Win32,59.88023952,673a1dcffde7de9c08f6d2e6,69b95efdef24cd8a694e89ee,69b960488d95a741f3adf43e,0.0627,0.0628,0,8,8,106,1,sixfive,,,,,,,,,,,,,,,,,,,,,,,,,,,,,,,,,,,,,,,,,,,,,,,,,,,,,,,,,,,,,,,,,,,,,,,,,,,,,,,,,,,,,,,,,,,,,,,,,,,,,,,,,,,,,,,,,,,,,,,,,,,,,,,,,,,,,,,,,
,,673a1dcffde7de9c08f6d2e6,2026-03-17_14h31.13.678,kallum_motion_pilot_GIST_update_2,2026.1.1,Win32,59.88023952,673a1dcffde7de9c08f6d2e6,69b95efdef24cd8a694e89ee,69b960488d95a741f3adf43e,0.0632,0.0633,0,9,9,19,1,twofour,,,,,,,,,,,,,,,,,,,,,,,,,,,,,,,,,,,,,,,,,,,,,,,,,,,,,,,,,,,,,,,,,,,,,,,,,,,,,,,,,,,,,,,,,,,,,,,,,,,,,,,,,,,,,,,,,,,,,,,,,,,,,,,,,,,,,,,,,
,,673a1dcffde7de9c08f6d2e6,2026-03-17_14h31.13.678,kallum_motion_pilot_GIST_update_2,2026.1.1,Win32,59.88023952,673a1dcffde7de9c08f6d2e6,69b95efdef24cd8a694e89ee,69b960488d95a741f3adf43e,0.0636,0.0636,0,10,10,32,1,onetwo,,,,,,,,,,,,,,,,,,,,,,,,,,,,,,,,,,,,,,,,,,,,,,,,,,,,,,,,,,,,,,,,,,,,,,,,,,,,,,,,,,,,,,,,,,,,,,,,,,,,,,,,,,,,,,,,,,,,,,,,,,,,,,,,,,,,,,,,,
,,673a1dcffde7de9c08f6d2e6,2026-03-17_14h31.13.678,kallum_motion_pilot_GIST_update_2,2026.1.1,Win32,59.88023952,673a1dcffde7de9c08f6d2e6,69b95efdef24cd8a694e89ee,69b960488d95a741f3adf43e,0.0639,0.0639,0,11,11,141,1,seveneight,,,,,,,,,,,,,,,,,,,,,,,,,,,,,,,,,,,,,,,,,,,,,,,,,,,,,,,,,,,,,,,,,,,,,,,,,,,,,,,,,,,,,,,,,,,,,,,,,,,,,,,,,,,,,,,,,,,,,,,,,,,,,,,,,,,,,,,,,
,,673a1dcffde7de9c08f6d2e6,2026-03-17_14h31.13.678,kallum_motion_pilot_GIST_update_2,2026.1.1,Win32,59.88023952,673a1dcffde7de9c08f6d2e6,69b95efdef24cd8a694e89ee,69b960488d95a741f3adf43e,0.0641,0.0641,0,12,12,25,1,onethree,,,,,,,,,,,,,,,,,,,,,,,,,,,,,,,,,,,,,,,,,,,,,,,,,,,,,,,,,,,,,,,,,,,,,,,,,,,,,,,,,,,,,,,,,,,,,,,,,,,,,,,,,,,,,,,,,,,,,,,,,,,,,,,,,,,,,,,,,
,,673a1dcffde7de9c08f6d2e6,2026-03-17_14h31.13.678,kallum_motion_pilot_GIST_update_2,2026.1.1,Win32,59.88023952,673a1dcffde7de9c08f6d2e6,69b95efdef24cd8a694e89ee,69b960488d95a741f3adf43e,0.0643,0.0644,0,13,13,0,1,onetwo,,,,,,,,,,,,,,,,,,,,,,,,,,,,,,,,,,,,,,,,,,,,,,,,,,,,,,,,,,,,,,,,,,,,,,,,,,,,,,,,,,,,,,,,,,,,,,,,,,,,,,,,,,,,,,,,,,,,,,,,,,,,,,,,,,,,,,,,,
,,673a1dcffde7de9c08f6d2e6,2026-03-17_14h31.13.678,kallum_motion_pilot_GIST_update_2,2026.1.1,Win32,59.88023952,673a1dcffde7de9c08f6d2e6,69b95efdef24cd8a694e89ee,69b960488d95a741f3adf43e,0.0647,0.0647,0,14,14,93,1,seveneight,,,,,,,,,,,,,,,,,,,,,,,,,,,,,,,,,,,,,,,,,,,,,,,,,,,,,,,,,,,,,,,,,,,,,,,,,,,,,,,,,,,,,,,,,,,,,,,,,,,,,,,,,,,,,,,,,,,,,,,,,,,,,,,,,,,,,,,,,
,,673a1dcffde7de9c08f6d2e6,2026-03-17_14h31.13.678,kallum_motion_pilot_GIST_update_2,2026.1.1,Win32,59.88023952,673a1dcffde7de9c08f6d2e6,69b95efdef24cd8a694e89ee,69b960488d95a741f3adf43e,0.0648,0.0648,0,15,15,139,1,sixeight,,,,,,,,,,,,,,,,,,,,,,,,,,,,,,,,,,,,,,,,,,,,,,,,,,,,,,,,,,,,,,,,,,,,,,,,,,,,,,,,,,,,,,,,,,,,,,,,,,,,,,,,,,,,,,,,,,,,,,,,,,,,,,,,,,,,,,,,,
,,673a1dcffde7de9c08f6d2e6,2026-03-17_14h31.13.678,kallum_motion_pilot_GIST_update_2,2026.1.1,Win32,59.88023952,673a1dcffde7de9c08f6d2e6,69b95efdef24cd8a694e89ee,69b960488d95a741f3adf43e,0.0651,0.0652,0,16,16,97,1,fiveseven,,,,,,,,,,,,,,,,,,,,,,,,,,,,,,,,,,,,,,,,,,,,,,,,,,,,,,,,,,,,,,,,,,,,,,,,,,,,,,,,,,,,,,,,,,,,,,,,,,,,,,,,,,,,,,,,,,,,,,,,,,,,,,,,,,,,,,,,,
,,673a1dcffde7de9c08f6d2e6,2026-03-17_14h31.13.678,kallum_motion_pilot_GIST_update_2,2026.1.1,Win32,59.88023952,673a1dcffde7de9c08f6d2e6,69b95efdef24cd8a694e89ee,69b960488d95a741f3adf43e,0.0654,0.0655,0,17,17,55,1,fourthree,,,,,,,,,,,,,,,,,,,,,,,,,,,,,,,,,,,,,,,,,,,,,,,,,,,,,,,,,,,,,,,,,,,,,,,,,,,,,,,,,,,,,,,,,,,,,,,,,,,,,,,,,,,,,,,,,,,,,,,,,,,,,,,,,,,,,,,,,
,,673a1dcffde7de9c08f6d2e6,2026-03-17_14h31.13.678,kallum_motion_pilot_GIST_update_2,2026.1.1,Win32,59.88023952,673a1dcffde7de9c08f6d2e6,69b95efdef24cd8a694e89ee,69b960488d95a741f3adf43e,0.0656,0.0657,0,18,18,69,1,threefour,,,,,,,,,,,,,,,,,,,,,,,,,,,,,,,,,,,,,,,,,,,,,,,,,,,,,,,,,,,,,,,,,,,,,,,,,,,,,,,,,,,,,,,,,,,,,,,,,,,,,,,,,,,,,,,,,,,,,,,,,,,,,,,,,,,,,,,,,
,,673a1dcffde7de9c08f6d2e6,2026-03-17_14h31.13.678,kallum_motion_pilot_GIST_update_2,2026.1.1,Win32,59.88023952,673a1dcffde7de9c08f6d2e6,69b95efdef24cd8a694e89ee,69b960488d95a741f3adf43e,0.0659,0.0659,0,19,19,20,1,threeone,,,,,,,,,,,,,,,,,,,,,,,,,,,,,,,,,,,,,,,,,,,,,,,,,,,,,,,,,,,,,,,,,,,,,,,,,,,,,,,,,,,,,,,,,,,,,,,,,,,,,,,,,,,,,,,,,,,,,,,,,,,,,,,,,,,,,,,,,
,,673a1dcffde7de9c08f6d2e6,2026-03-17_14h31.13.678,kallum_motion_pilot_GIST_update_2,2026.1.1,Win32,59.88023952,673a1dcffde7de9c08f6d2e6,69b95efdef24cd8a694e89ee,69b960488d95a741f3adf43e,0.0662,0.0662,0,20,20,53,1,threefour,,,,,,,,,,,,,,,,,,,,,,,,,,,,,,,,,,,,,,,,,,,,,,,,,,,,,,,,,,,,,,,,,,,,,,,,,,,,,,,,,,,,,,,,,,,,,,,,,,,,,,,,,,,,,,,,,,,,,,,,,,,,,,,,,,,,,,,,,
,,673a1dcffde7de9c08f6d2e6,2026-03-17_14h31.13.678,kallum_motion_pilot_GIST_update_2,2026.1.1,Win32,59.88023952,673a1dcffde7de9c08f6d2e6,69b95efdef24cd8a694e89ee,69b960488d95a741f3adf43e,0.0665,0.0665,0,21,21,41,1,onethree,,,,,,,,,,,,,,,,,,,,,,,,,,,,,,,,,,,,,,,,,,,,,,,,,,,,,,,,,,,,,,,,,,,,,,,,,,,,,,,,,,,,,,,,,,,,,,,,,,,,,,,,,,,,,,,,,,,,,,,,,,,,,,,,,,,,,,,,,
,,673a1dcffde7de9c08f6d2e6,2026-03-17_14h31.13.678,kallum_motion_pilot_GIST_update_2,2026.1.1,Win32,59.88023952,673a1dcffde7de9c08f6d2e6,69b95efdef24cd8a694e89ee,69b960488d95a741f3adf43e,0.0667,0.0667,0,22,22,129,1,fiveseven,,,,,,,,,,,,,,,,,,,,,,,,,,,,,,,,,,,,,,,,,,,,,,,,,,,,,,,,,,,,,,,,,,,,,,,,,,,,,,,,,,,,,,,,,,,,,,,,,,,,,,,,,,,,,,,,,,,,,,,,,,,,,,,,,,,,,,,,,
,,673a1dcffde7de9c08f6d2e6,2026-03-17_14h31.13.678,kallum_motion_pilot_GIST_update_2,2026.1.1,Win32,59.88023952,673a1dcffde7de9c08f6d2e6,69b95efdef24cd8a694e89ee,69b960488d95a741f3adf43e,0.067,0.067,0,23,23,36,1,threeone,,,,,,,,,,,,,,,,,,,,,,,,,,,,,,,,,,,,,,,,,,,,,,,,,,,,,,,,,,,,,,,,,,,,,,,,,,,,,,,,,,,,,,,,,,,,,,,,,,,,,,,,,,,,,,,,,,,,,,,,,,,,,,,,,,,,,,,,,
,,673a1dcffde7de9c08f6d2e6,2026-03-17_14h31.13.678,kallum_motion_pilot_GIST_update_2,2026.1.1,Win32,59.88023952,673a1dcffde7de9c08f6d2e6,69b95efdef24cd8a694e89ee,69b960488d95a741f3adf43e,0.0675,0.0675,0,24,24,136,1,fivesix,,,,,,,,,,,,,,,,,,,,,,,,,,,,,,,,,,,,,,,,,,,,,,,,,,,,,,,,,,,,,,,,,,,,,,,,,,,,,,,,,,,,,,,,,,,,,,,,,,,,,,,,,,,,,,,,,,,,,,,,,,,,,,,,,,,,,,,,,
,,673a1dcffde7de9c08f6d2e6,2026-03-17_14h31.13.678,kallum_motion_pilot_GIST_update_2,2026.1.1,Win32,59.88023952,673a1dcffde7de9c08f6d2e6,69b95efdef24cd8a694e89ee,69b960488d95a741f3adf43e,0.0678,0.0678,0,25,25,148,1,sevenfive,,,,,,,,,,,,,,,,,,,,,,,,,,,,,,,,,,,,,,,,,,,,,,,,,,,,,,,,,,,,,,,,,,,,,,,,,,,,,,,,,,,,,,,,,,,,,,,,,,,,,,,,,,,,,,,,,,,,,,,,,,,,,,,,,,,,,,,,,
,,673a1dcffde7de9c08f6d2e6,2026-03-17_14h31.13.678,kallum_motion_pilot_GIST_update_2,2026.1.1,Win32,59.88023952,673a1dcffde7de9c08f6d2e6,69b95efdef24cd8a694e89ee,69b960488d95a741f3adf43e,0.068,0.068,0,26,26,43,1,twofour,,,,,,,,,,,,,,,,,,,,,,,,,,,,,,,,,,,,,,,,,,,,,,,,,,,,,,,,,,,,,,,,,,,,,,,,,,,,,,,,,,,,,,,,,,,,,,,,,,,,,,,,,,,,,,,,,,,,,,,,,,,,,,,,,,,,,,,,,
,,673a1dcffde7de9c08f6d2e6,2026-03-17_14h31.13.678,kallum_motion_pilot_GIST_update_2,2026.1.1,Win32,59.88023952,673a1dcffde7de9c08f6d2e6,69b95efdef24cd8a694e89ee,69b960488d95a741f3adf43e,0.0682,0.0682,0,27,27,2,1,twoone,,,,,,,,,,,,,,,,,,,,,,,,,,,,,,,,,,,,,,,,,,,,,,,,,,,,,,,,,,,,,,,,,,,,,,,,,,,,,,,,,,,,,,,,,,,,,,,,,,,,,,,,,,,,,,,,,,,,,,,,,,,,,,,,,,,,,,,,,
,,673a1dcffde7de9c08f6d2e6,2026-03-17_14h31.13.678,kallum_motion_pilot_GIST_update_2,2026.1.1,Win32,59.88023952,673a1dcffde7de9c08f6d2e6,69b95efdef24cd8a694e89ee,69b960488d95a741f3adf43e,0.0685,0.0685,0,28,28,50,1,twoone,,,,,,,,,,,,,,,,,,,,,,,,,,,,,,,,,,,,,,,,,,,,,,,,,,,,,,,,,,,,,,,,,,,,,,,,,,,,,,,,,,,,,,,,,,,,,,,,,,,,,,,,,,,,,,,,,,,,,,,,,,,,,,,,,,,,,,,,,
,,673a1dcffde7de9c08f6d2e6,2026-03-17_14h31.13.678,kallum_motion_pilot_GIST_update_2,2026.1.1,Win32,59.88023952,673a1dcffde7de9c08f6d2e6,69b95efdef24cd8a694e89ee,69b960488d95a741f3adf43e,0.0687,0.0687,0,29,29,4,1,threeone,,,,,,,,,,,,,,,,,,,,,,,,,,,,,,,,,,,,,,,,,,,,,,,,,,,,,,,,,,,,,,,,,,,,,,,,,,,,,,,,,,,,,,,,,,,,,,,,,,,,,,,,,,,,,,,,,,,,,,,,,,,,,,,,,,,,,,,,,
,,673a1dcffde7de9c08f6d2e6,2026-03-17_14h31.13.678,kallum_motion_pilot_GIST_update_2,2026.1.1,Win32,59.88023952,673a1dcffde7de9c08f6d2e6,69b95efdef24cd8a694e89ee,69b960488d95a741f3adf43e,0.069,0.069,0,30,30,35,1,twofour,,,,,,,,,,,,,,,,,,,,,,,,,,,,,,,,,,,,,,,,,,,,,,,,,,,,,,,,,,,,,,,,,,,,,,,,,,,,,,,,,,,,,,,,,,,,,,,,,,,,,,,,,,,,,,,,,,,,,,,,,,,,,,,,,,,,,,,,,
,,673a1dcffde7de9c08f6d2e6,2026-03-17_14h31.13.678,kallum_motion_pilot_GIST_update_2,2026.1.1,Win32,59.88023952,673a1dcffde7de9c08f6d2e6,69b95efdef24cd8a694e89ee,69b960488d95a741f3adf43e,0.0693,0.0693,0,31,31,122,1,sixfive,,,,,,,,,,,,,,,,,,,,,,,,,,,,,,,,,,,,,,,,,,,,,,,,,,,,,,,,,,,,,,,,,,,,,,,,,,,,,,,,,,,,,,,,,,,,,,,,,,,,,,,,,,,,,,,,,,,,,,,,,,,,,,,,,,,,,,,,,
,,673a1dcffde7de9c08f6d2e6,2026-03-17_14h31.13.678,kallum_motion_pilot_GIST_update_2,2026.1.1,Win32,59.88023952,673a1dcffde7de9c08f6d2e6,69b95efdef24cd8a694e89ee,69b960488d95a741f3adf43e,0.0696,0.0696,0,32,32,61,1,threefour,,,,,,,,,,,,,,,,,,,,,,,,,,,,,,,,,,,,,,,,,,,,,,,,,,,,,,,,,,,,,,,,,,,,,,,,,,,,,,,,,,,,,,,,,,,,,,,,,,,,,,,,,,,,,,,,,,,,,,,,,,,,,,,,,,,,,,,,,
,,673a1dcffde7de9c08f6d2e6,2026-03-17_14h31.13.678,kallum_motion_pilot_GIST_update_2,2026.1.1,Win32,59.88023952,673a1dcffde7de9c08f6d2e6,69b95efdef24cd8a694e89ee,69b960488d95a741f3adf43e,0.0699,0.0699,0,33,33,67,1,twofour,,,,,,,,,,,,,,,,,,,,,,,,,,,,,,,,,,,,,,,,,,,,,,,,,,,,,,,,,,,,,,,,,,,,,,,,,,,,,,,,,,,,,,,,,,,,,,,,,,,,,,,,,,,,,,,,,,,,,,,,,,,,,,,,,,,,,,,,,
,,673a1dcffde7de9c08f6d2e6,2026-03-17_14h31.13.678,kallum_motion_pilot_GIST_update_2,2026.1.1,Win32,59.88023952,673a1dcffde7de9c08f6d2e6,69b95efdef24cd8a694e89ee,69b960488d95a741f3adf43e,0.0702,0.0702,0,34,34,160,1,fivesix,,,,,,,,,,,,,,,,,,,,,,,,,,,,,,,,,,,,,,,,,,,,,,,,,,,,,,,,,,,,,,,,,,,,,,,,,,,,,,,,,,,,,,,,,,,,,,,,,,,,,,,,,,,,,,,,,,,,,,,,,,,,,,,,,,,,,,,,,
,,673a1dcffde7de9c08f6d2e6,2026-03-17_14h31.13.678,kallum_motion_pilot_GIST_update_2,2026.1.1,Win32,59.88023952,673a1dcffde7de9c08f6d2e6,69b95efdef24cd8a694e89ee,69b960488d95a741f3adf43e,0.0705,0.0705,0,35,35,83,1,sixeight,,,,,,,,,,,,,,,,,,,,,,,,,,,,,,,,,,,,,,,,,,,,,,,,,,,,,,,,,,,,,,,,,,,,,,,,,,,,,,,,,,,,,,,,,,,,,,,,,,,,,,,,,,,,,,,,,,,,,,,,,,,,,,,,,,,,,,,,,
,,673a1dcffde7de9c08f6d2e6,2026-03-17_14h31.13.678,kallum_motion_pilot_GIST_update_2,2026.1.1,Win32,59.88023952,673a1dcffde7de9c08f6d2e6,69b95efdef24cd8a694e89ee,69b960488d95a741f3adf43e,0.0707,0.0707,0,36,36,29,1,threefour,,,,,,,,,,,,,,,,,,,,,,,,,,,,,,,,,,,,,,,,,,,,,,,,,,,,,,,,,,,,,,,,,,,,,,,,,,,,,,,,,,,,,,,,,,,,,,,,,,,,,,,,,,,,,,,,,,,,,,,,,,,,,,,,,,,,,,,,,
,,673a1dcffde7de9c08f6d2e6,2026-03-17_14h31.13.678,kallum_motion_pilot_GIST_update_2,2026.1.1,Win32,59.88023952,673a1dcffde7de9c08f6d2e6,69b95efdef24cd8a694e89ee,69b960488d95a741f3adf43e,0.071,0.071,0,37,37,137,1,fiveseven,,,,,,,,,,,,,,,,,,,,,,,,,,,,,,,,,,,,,,,,,,,,,,,,,,,,,,,,,,,,,,,,,,,,,,,,,,,,,,,,,,,,,,,,,,,,,,,,,,,,,,,,,,,,,,,,,,,,,,,,,,,,,,,,,,,,,,,,,
,,673a1dcffde7de9c08f6d2e6,2026-03-17_14h31.13.678,kallum_motion_pilot_GIST_update_2,2026.1.1,Win32,59.88023952,673a1dcffde7de9c08f6d2e6,69b95efdef24cd8a694e89ee,69b960488d95a741f3adf43e,0.0712,0.0712,0,38,38,21,1,threefour,,,,,,,,,,,,,,,,,,,,,,,,,,,,,,,,,,,,,,,,,,,,,,,,,,,,,,,,,,,,,,,,,,,,,,,,,,,,,,,,,,,,,,,,,,,,,,,,,,,,,,,,,,,,,,,,,,,,,,,,,,,,,,,,,,,,,,,,,
,,673a1dcffde7de9c08f6d2e6,2026-03-17_14h31.13.678,kallum_motion_pilot_GIST_update_2,2026.1.1,Win32,59.88023952,673a1dcffde7de9c08f6d2e6,69b95efdef24cd8a694e89ee,69b960488d95a741f3adf43e,0.0715,0.0715,0,39,39,150,1,eightsix,,,,,,,,,,,,,,,,,,,,,,,,,,,,,,,,,,,,,,,,,,,,,,,,,,,,,,,,,,,,,,,,,,,,,,,,,,,,,,,,,,,,,,,,,,,,,,,,,,,,,,,,,,,,,,,,,,,,,,,,,,,,,,,,,,,,,,,,,
,,673a1dcffde7de9c08f6d2e6,2026-03-17_14h31.13.678,kallum_motion_pilot_GIST_update_2,2026.1.1,Win32,59.88023952,673a1dcffde7de9c08f6d2e6,69b95efdef24cd8a694e89ee,69b960488d95a741f3adf43e,0.0717,0.0718,0,40,40,14,1,fourtwo,,,,,,,,,,,,,,,,,,,,,,,,,,,,,,,,,,,,,,,,,,,,,,,,,,,,,,,,,,,,,,,,,,,,,,,,,,,,,,,,,,,,,,,,,,,,,,,,,,,,,,,,,,,,,,,,,,,,,,,,,,,,,,,,,,,,,,,,,
,,673a1dcffde7de9c08f6d2e6,2026-03-17_14h31.13.678,kallum_motion_pilot_GIST_update_2,2026.1.1,Win32,59.88023952,673a1dcffde7de9c08f6d2e6,69b95efdef24cd8a694e89ee,69b960488d95a741f3adf43e,0.0719,0.072,0,41,41,68,1,threeone,,,,,,,,,,,,,,,,,,,,,,,,,,,,,,,,,,,,,,,,,,,,,,,,,,,,,,,,,,,,,,,,,,,,,,,,,,,,,,,,,,,,,,,,,,,,,,,,,,,,,,,,,,,,,,,,,,,,,,,,,,,,,,,,,,,,,,,,,
,,673a1dcffde7de9c08f6d2e6,2026-03-17_14h31.13.678,kallum_motion_pilot_GIST_update_2,2026.1.1,Win32,59.88023952,673a1dcffde7de9c08f6d2e6,69b95efdef24cd8a694e89ee,69b960488d95a741f3adf43e,0.0722,0.0722,0,42,42,128,1,fivesix,,,,,,,,,,,,,,,,,,,,,,,,,,,,,,,,,,,,,,,,,,,,,,,,,,,,,,,,,,,,,,,,,,,,,,,,,,,,,,,,,,,,,,,,,,,,,,,,,,,,,,,,,,,,,,,,,,,,,,,,,,,,,,,,,,,,,,,,,
,,673a1dcffde7de9c08f6d2e6,2026-03-17_14h31.13.678,kallum_motion_pilot_GIST_update_2,2026.1.1,Win32,59.88023952,673a1dcffde7de9c08f6d2e6,69b95efdef24cd8a694e89ee,69b960488d95a741f3adf43e,0.0725,0.0725,0,43,43,114,1,sixfive,,,,,,,,,,,,,,,,,,,,,,,,,,,,,,,,,,,,,,,,,,,,,,,,,,,,,,,,,,,,,,,,,,,,,,,,,,,,,,,,,,,,,,,,,,,,,,,,,,,,,,,,,,,,,,,,,,,,,,,,,,,,,,,,,,,,,,,,,
,,673a1dcffde7de9c08f6d2e6,2026-03-17_14h31.13.678,kallum_motion_pilot_GIST_update_2,2026.1.1,Win32,59.88023952,673a1dcffde7de9c08f6d2e6,69b95efdef24cd8a694e89ee,69b960488d95a741f3adf43e,0.0728,0.0729,0,44,44,133,1,seveneight,,,,,,,,,,,,,,,,,,,,,,,,,,,,,,,,,,,,,,,,,,,,,,,,,,,,,,,,,,,,,,,,,,,,,,,,,,,,,,,,,,,,,,,,,,,,,,,,,,,,,,,,,,,,,,,,,,,,,,,,,,,,,,,,,,,,,,,,,
,,673a1dcffde7de9c08f6d2e6,2026-03-17_14h31.13.678,kallum_motion_pilot_GIST_update_2,2026.1.1,Win32,59.88023952,673a1dcffde7de9c08f6d2e6,69b95efdef24cd8a694e89ee,69b960488d95a741f3adf43e,0.0731,0.0731,0,45,45,47,1,fourthree,,,,,,,,,,,,,,,,,,,,,,,,,,,,,,,,,,,,,,,,,,,,,,,,,,,,,,,,,,,,,,,,,,,,,,,,,,,,,,,,,,,,,,,,,,,,,,,,,,,,,,,,,,,,,,,,,,,,,,,,,,,,,,,,,,,,,,,,,
,,673a1dcffde7de9c08f6d2e6,2026-03-17_14h31.13.678,kallum_motion_pilot_GIST_update_2,2026.1.1,Win32,59.88023952,673a1dcffde7de9c08f6d2e6,69b95efdef24cd8a694e89ee,69b960488d95a741f3adf43e,0.0734,0.0734,0,46,46,158,1,eightsix,,,,,,,,,,,,,,,,,,,,,,,,,,,,,,,,,,,,,,,,,,,,,,,,,,,,,,,,,,,,,,,,,,,,,,,,,,,,,,,,,,,,,,,,,,,,,,,,,,,,,,,,,,,,,,,,,,,,,,,,,,,,,,,,,,,,,,,,,
,,673a1dcffde7de9c08f6d2e6,2026-03-17_14h31.13.678,kallum_motion_pilot_GIST_update_2,2026.1.1,Win32,59.88023952,673a1dcffde7de9c08f6d2e6,69b95efdef24cd8a694e89ee,69b960488d95a741f3adf43e,0.0737,0.0737,0,47,47,15,1,fourthree,,,,,,,,,,,,,,,,,,,,,,,,,,,,,,,,,,,,,,,,,,,,,,,,,,,,,,,,,,,,,,,,,,,,,,,,,,,,,,,,,,,,,,,,,,,,,,,,,,,,,,,,,,,,,,,,,,,,,,,,,,,,,,,,,,,,,,,,,
,,673a1dcffde7de9c08f6d2e6,2026-03-17_14h31.13.678,kallum_motion_pilot_GIST_update_2,2026.1.1,Win32,59.88023952,673a1dcffde7de9c08f6d2e6,69b95efdef24cd8a694e89ee,69b960488d95a741f3adf43e,0.0739,0.0739,0,48,48,144,1,fivesix,,,,,,,,,,,,,,,,,,,,,,,,,,,,,,,,,,,,,,,,,,,,,,,,,,,,,,,,,,,,,,,,,,,,,,,,,,,,,,,,,,,,,,,,,,,,,,,,,,,,,,,,,,,,,,,,,,,,,,,,,,,,,,,,,,,,,,,,,
,,673a1dcffde7de9c08f6d2e6,2026-03-17_14h31.13.678,kallum_motion_pilot_GIST_update_2,2026.1.1,Win32,59.88023952,673a1dcffde7de9c08f6d2e6,69b95efdef24cd8a694e89ee,69b960488d95a741f3adf43e,0.0743,0.0743,0,49,49,7,1,fourthree,,,,,,,,,,,,,,,,,,,,,,,,,,,,,,,,,,,,,,,,,,,,,,,,,,,,,,,,,,,,,,,,,,,,,,,,,,,,,,,,,,,,,,,,,,,,,,,,,,,,,,,,,,,,,,,,,,,,,,,,,,,,,,,,,,,,,,,,,
,,673a1dcffde7de9c08f6d2e6,2026-03-17_14h31.13.678,kallum_motion_pilot_GIST_update_2,2026.1.1,Win32,59.88023952,673a1dcffde7de9c08f6d2e6,69b95efdef24cd8a694e89ee,69b960488d95a741f3adf43e,0.0746,0.0746,0,50,50,66,1,twoone,,,,,,,,,,,,,,,,,,,,,,,,,,,,,,,,,,,,,,,,,,,,,,,,,,,,,,,,,,,,,,,,,,,,,,,,,,,,,,,,,,,,,,,,,,,,,,,,,,,,,,,,,,,,,,,,,,,,,,,,,,,,,,,,,,,,,,,,,
,,673a1dcffde7de9c08f6d2e6,2026-03-17_14h31.13.678,kallum_motion_pilot_GIST_update_2,2026.1.1,Win32,59.88023952,673a1dcffde7de9c08f6d2e6,69b95efdef24cd8a694e89ee,69b960488d95a741f3adf43e,0.0749,0.0749,0,51,51,81,1,fiveseven,,,,,,,,,,,,,,,,,,,,,,,,,,,,,,,,,,,,,,,,,,,,,,,,,,,,,,,,,,,,,,,,,,,,,,,,,,,,,,,,,,,,,,,,,,,,,,,,,,,,,,,,,,,,,,,,,,,,,,,,,,,,,,,,,,,,,,,,,
,,673a1dcffde7de9c08f6d2e6,2026-03-17_14h31.13.678,kallum_motion_pilot_GIST_update_2,2026.1.1,Win32,59.88023952,673a1dcffde7de9c08f6d2e6,69b95efdef24cd8a694e89ee,69b960488d95a741f3adf43e,0.0754,0.0754,0,52,52,115,1,sixeight,,,,,,,,,,,,,,,,,,,,,,,,,,,,,,,,,,,,,,,,,,,,,,,,,,,,,,,,,,,,,,,,,,,,,,,,,,,,,,,,,,,,,,,,,,,,,,,,,,,,,,,,,,,,,,,,,,,,,,,,,,,,,,,,,,,,,,,,,
,,673a1dcffde7de9c08f6d2e6,2026-03-17_14h31.13.678,kallum_motion_pilot_GIST_update_2,2026.1.1,Win32,59.88023952,673a1dcffde7de9c08f6d2e6,69b95efdef24cd8a694e89ee,69b960488d95a741f3adf43e,0.0757,0.0757,0,53,53,132,1,sevenfive,,,,,,,,,,,,,,,,,,,,,,,,,,,,,,,,,,,,,,,,,,,,,,,,,,,,,,,,,,,,,,,,,,,,,,,,,,,,,,,,,,,,,,,,,,,,,,,,,,,,,,,,,,,,,,,,,,,,,,,,,,,,,,,,,,,,,,,,,
,,673a1dcffde7de9c08f6d2e6,2026-03-17_14h31.13.678,kallum_motion_pilot_GIST_update_2,2026.1.1,Win32,59.88023952,673a1dcffde7de9c08f6d2e6,69b95efdef24cd8a694e89ee,69b960488d95a741f3adf43e,0.076,0.0761,0,54,54,118,1,eightsix,,,,,,,,,,,,,,,,,,,,,,,,,,,,,,,,,,,,,,,,,,,,,,,,,,,,,,,,,,,,,,,,,,,,,,,,,,,,,,,,,,,,,,,,,,,,,,,,,,,,,,,,,,,,,,,,,,,,,,,,,,,,,,,,,,,,,,,,,
,,673a1dcffde7de9c08f6d2e6,2026-03-17_14h31.13.678,kallum_motion_pilot_GIST_update_2,2026.1.1,Win32,59.88023952,673a1dcffde7de9c08f6d2e6,69b95efdef24cd8a694e89ee,69b960488d95a741f3adf43e,0.0763,0.0763,0,55,55,8,1,onetwo,,,,,,,,,,,,,,,,,,,,,,,,,,,,,,,,,,,,,,,,,,,,,,,,,,,,,,,,,,,,,,,,,,,,,,,,,,,,,,,,,,,,,,,,,,,,,,,,,,,,,,,,,,,,,,,,,,,,,,,,,,,,,,,,,,,,,,,,,
,,673a1dcffde7de9c08f6d2e6,2026-03-17_14h31.13.678,kallum_motion_pilot_GIST_update_2,2026.1.1,Win32,59.88023952,673a1dcffde7de9c08f6d2e6,69b95efdef24cd8a694e89ee,69b960488d95a741f3adf43e,0.0766,0.0766,0,56,56,10,1,twoone,,,,,,,,,,,,,,,,,,,,,,,,,,,,,,,,,,,,,,,,,,,,,,,,,,,,,,,,,,,,,,,,,,,,,,,,,,,,,,,,,,,,,,,,,,,,,,,,,,,,,,,,,,,,,,,,,,,,,,,,,,,,,,,,,,,,,,,,,
,,673a1dcffde7de9c08f6d2e6,2026-03-17_14h31.13.678,kallum_motion_pilot_GIST_update_2,2026.1.1,Win32,59.88023952,673a1dcffde7de9c08f6d2e6,69b95efdef24cd8a694e89ee,69b960488d95a741f3adf43e,0.0769,0.077,0,57,57,96,1,fivesix,,,,,,,,,,,,,,,,,,,,,,,,,,,,,,,,,,,,,,,,,,,,,,,,,,,,,,,,,,,,,,,,,,,,,,,,,,,,,,,,,,,,,,,,,,,,,,,,,,,,,,,,,,,,,,,,,,,,,,,,,,,,,,,,,,,,,,,,,
,,673a1dcffde7de9c08f6d2e6,2026-03-17_14h31.13.678,kallum_motion_pilot_GIST_update_2,2026.1.1,Win32,59.88023952,673a1dcffde7de9c08f6d2e6,69b95efdef24cd8a694e89ee,69b960488d95a741f3adf43e,0.0773,0.0773,0,58,58,159,1,eightseven,,,,,,,,,,,,,,,,,,,,,,,,,,,,,,,,,,,,,,,,,,,,,,,,,,,,,,,,,,,,,,,,,,,,,,,,,,,,,,,,,,,,,,,,,,,,,,,,,,,,,,,,,,,,,,,,,,,,,,,,,,,,,,,,,,,,,,,,,
,,673a1dcffde7de9c08f6d2e6,2026-03-17_14h31.13.678,kallum_motion_pilot_GIST_update_2,2026.1.1,Win32,59.88023952,673a1dcffde7de9c08f6d2e6,69b95efdef24cd8a694e89ee,69b960488d95a741f3adf43e,0.0775,0.0775,0,59,59,142,1,eightsix,,,,,,,,,,,,,,,,,,,,,,,,,,,,,,,,,,,,,,,,,,,,,,,,,,,,,,,,,,,,,,,,,,,,,,,,,,,,,,,,,,,,,,,,,,,,,,,,,,,,,,,,,,,,,,,,,,,,,,,,,,,,,,,,,,,,,,,,,
,,673a1dcffde7de9c08f6d2e6,2026-03-17_14h31.13.678,kallum_motion_pilot_GIST_update_2,2026.1.1,Win32,59.88023952,673a1dcffde7de9c08f6d2e6,69b95efdef24cd8a694e89ee,69b960488d95a741f3adf43e,0.0778,0.0778,0,60,60,86,1,eightsix,,,,,,,,,,,,,,,,,,,,,,,,,,,,,,,,,,,,,,,,,,,,,,,,,,,,,,,,,,,,,,,,,,,,,,,,,,,,,,,,,,,,,,,,,,,,,,,,,,,,,,,,,,,,,,,,,,,,,,,,,,,,,,,,,,,,,,,,,
,,673a1dcffde7de9c08f6d2e6,2026-03-17_14h31.13.678,kallum_motion_pilot_GIST_update_2,2026.1.1,Win32,59.88023952,673a1dcffde7de9c08f6d2e6,69b95efdef24cd8a694e89ee,69b960488d95a741f3adf43e,0.0781,0.0781,0,61,61,17,1,onethree,,,,,,,,,,,,,,,,,,,,,,,,,,,,,,,,,,,,,,,,,,,,,,,,,,,,,,,,,,,,,,,,,,,,,,,,,,,,,,,,,,,,,,,,,,,,,,,,,,,,,,,,,,,,,,,,,,,,,,,,,,,,,,,,,,,,,,,,,
,,673a1dcffde7de9c08f6d2e6,2026-03-17_14h31.13.678,kallum_motion_pilot_GIST_update_2,2026.1.1,Win32,59.88023952,673a1dcffde7de9c08f6d2e6,69b95efdef24cd8a694e89ee,69b960488d95a741f3adf43e,0.0784,0.0784,0,62,62,101,1,seveneight,,,,,,,,,,,,,,,,,,,,,,,,,,,,,,,,,,,,,,,,,,,,,,,,,,,,,,,,,,,,,,,,,,,,,,,,,,,,,,,,,,,,,,,,,,,,,,,,,,,,,,,,,,,,,,,,,,,,,,,,,,,,,,,,,,,,,,,,,
,,673a1dcffde7de9c08f6d2e6,2026-03-17_14h31.13.678,kallum_motion_pilot_GIST_update_2,2026.1.1,Win32,59.88023952,673a1dcffde7de9c08f6d2e6,69b95efdef24cd8a694e89ee,69b960488d95a741f3adf43e,0.0787,0.0788,0,63,63,70,1,fourtwo,,,,,,,,,,,,,,,,,,,,,,,,,,,,,,,,,,,,,,,,,,,,,,,,,,,,,,,,,,,,,,,,,,,,,,,,,,,,,,,,,,,,,,,,,,,,,,,,,,,,,,,,,,,,,,,,,,,,,,,,,,,,,,,,,,,,,,,,,
,,673a1dcffde7de9c08f6d2e6,2026-03-17_14h31.13.678,kallum_motion_pilot_GIST_update_2,2026.1.1,Win32,59.88023952,673a1dcffde7de9c08f6d2e6,69b95efdef24cd8a694e89ee,69b960488d95a741f3adf43e,0.0792,0.0792,0,64,64,57,1,onethree,,,,,,,,,,,,,,,,,,,,,,,,,,,,,,,,,,,,,,,,,,,,,,,,,,,,,,,,,,,,,,,,,,,,,,,,,,,,,,,,,,,,,,,,,,,,,,,,,,,,,,,,,,,,,,,,,,,,,,,,,,,,,,,,,,,,,,,,,
,,673a1dcffde7de9c08f6d2e6,2026-03-17_14h31.13.678,kallum_motion_pilot_GIST_update_2,2026.1.1,Win32,59.88023952,673a1dcffde7de9c08f6d2e6,69b95efdef24cd8a694e89ee,69b960488d95a741f3adf43e,0.0797,0.0798,0,65,65,149,1,seveneight,,,,,,,,,,,,,,,,,,,,,,,,,,,,,,,,,,,,,,,,,,,,,,,,,,,,,,,,,,,,,,,,,,,,,,,,,,,,,,,,,,,,,,,,,,,,,,,,,,,,,,,,,,,,,,,,,,,,,,,,,,,,,,,,,,,,,,,,,
,,673a1dcffde7de9c08f6d2e6,2026-03-17_14h31.13.678,kallum_motion_pilot_GIST_update_2,2026.1.1,Win32,59.88023952,673a1dcffde7de9c08f6d2e6,69b95efdef24cd8a694e89ee,69b960488d95a741f3adf43e,0.0801,0.0801,0,66,66,91,1,sixeight,,,,,,,,,,,,,,,,,,,,,,,,,,,,,,,,,,,,,,,,,,,,,,,,,,,,,,,,,,,,,,,,,,,,,,,,,,,,,,,,,,,,,,,,,,,,,,,,,,,,,,,,,,,,,,,,,,,,,,,,,,,,,,,,,,,,,,,,,
,,673a1dcffde7de9c08f6d2e6,2026-03-17_14h31.13.678,kallum_motion_pilot_GIST_update_2,2026.1.1,Win32,59.88023952,673a1dcffde7de9c08f6d2e6,69b95efdef24cd8a694e89ee,69b960488d95a741f3adf43e,0.0806,0.0807,0,67,67,52,1,threeone,,,,,,,,,,,,,,,,,,,,,,,,,,,,,,,,,,,,,,,,,,,,,,,,,,,,,,,,,,,,,,,,,,,,,,,,,,,,,,,,,,,,,,,,,,,,,,,,,,,,,,,,,,,,,,,,,,,,,,,,,,,,,,,,,,,,,,,,,
,,673a1dcffde7de9c08f6d2e6,2026-03-17_14h31.13.678,kallum_motion_pilot_GIST_update_2,2026.1.1,Win32,59.88023952,673a1dcffde7de9c08f6d2e6,69b95efdef24cd8a694e89ee,69b960488d95a741f3adf43e,0.0809,0.0809,0,68,68,113,1,fiveseven,,,,,,,,,,,,,,,,,,,,,,,,,,,,,,,,,,,,,,,,,,,,,,,,,,,,,,,,,,,,,,,,,,,,,,,,,,,,,,,,,,,,,,,,,,,,,,,,,,,,,,,,,,,,,,,,,,,,,,,,,,,,,,,,,,,,,,,,,
,,673a1dcffde7de9c08f6d2e6,2026-03-17_14h31.13.678,kallum_motion_pilot_GIST_update_2,2026.1.1,Win32,59.88023952,673a1dcffde7de9c08f6d2e6,69b95efdef24cd8a694e89ee,69b960488d95a741f3adf43e,0.0812,0.0812,0,69,69,13,1,threefour,,,,,,,,,,,,,,,,,,,,,,,,,,,,,,,,,,,,,,,,,,,,,,,,,,,,,,,,,,,,,,,,,,,,,,,,,,,,,,,,,,,,,,,,,,,,,,,,,,,,,,,,,,,,,,,,,,,,,,,,,,,,,,,,,,,,,,,,,
,,673a1dcffde7de9c08f6d2e6,2026-03-17_14h31.13.678,kallum_motion_pilot_GIST_update_2,2026.1.1,Win32,59.88023952,673a1dcffde7de9c08f6d2e6,69b95efdef24cd8a694e89ee,69b960488d95a741f3adf43e,0.0815,0.0815,0,70,70,12,1,threeone,,,,,,,,,,,,,,,,,,,,,,,,,,,,,,,,,,,,,,,,,,,,,,,,,,,,,,,,,,,,,,,,,,,,,,,,,,,,,,,,,,,,,,,,,,,,,,,,,,,,,,,,,,,,,,,,,,,,,,,,,,,,,,,,,,,,,,,,,
,,673a1dcffde7de9c08f6d2e6,2026-03-17_14h31.13.678,kallum_motion_pilot_GIST_update_2,2026.1.1,Win32,59.88023952,673a1dcffde7de9c08f6d2e6,69b95efdef24cd8a694e89ee,69b960488d95a741f3adf43e,0.0817,0.0817,0,71,71,28,1,threeone,,,,,,,,,,,,,,,,,,,,,,,,,,,,,,,,,,,,,,,,,,,,,,,,,,,,,,,,,,,,,,,,,,,,,,,,,,,,,,,,,,,,,,,,,,,,,,,,,,,,,,,,,,,,,,,,,,,,,,,,,,,,,,,,,,,,,,,,,
,,673a1dcffde7de9c08f6d2e6,2026-03-17_14h31.13.678,kallum_motion_pilot_GIST_update_2,2026.1.1,Win32,59.88023952,673a1dcffde7de9c08f6d2e6,69b95efdef24cd8a694e89ee,69b960488d95a741f3adf43e,0.0819,0.0821,0,72,72,58,1,twoone,,,,,,,,,,,,,,,,,,,,,,,,,,,,,,,,,,,,,,,,,,,,,,,,,,,,,,,,,,,,,,,,,,,,,,,,,,,,,,,,,,,,,,,,,,,,,,,,,,,,,,,,,,,,,,,,,,,,,,,,,,,,,,,,,,,,,,,,,
,,673a1dcffde7de9c08f6d2e6,2026-03-17_14h31.13.678,kallum_motion_pilot_GIST_update_2,2026.1.1,Win32,59.88023952,673a1dcffde7de9c08f6d2e6,69b95efdef24cd8a694e89ee,69b960488d95a741f3adf43e,0.0823,0.0823,0,73,73,87,1,eightseven,,,,,,,,,,,,,,,,,,,,,,,,,,,,,,,,,,,,,,,,,,,,,,,,,,,,,,,,,,,,,,,,,,,,,,,,,,,,,,,,,,,,,,,,,,,,,,,,,,,,,,,,,,,,,,,,,,,,,,,,,,,,,,,,,,,,,,,,,
,,673a1dcffde7de9c08f6d2e6,2026-03-17_14h31.13.678,kallum_motion_pilot_GIST_update_2,2026.1.1,Win32,59.88023952,673a1dcffde7de9c08f6d2e6,69b95efdef24cd8a694e89ee,69b960488d95a741f3adf43e,0.0826,0.0826,0,74,74,16,1,onetwo,,,,,,,,,,,,,,,,,,,,,,,,,,,,,,,,,,,,,,,,,,,,,,,,,,,,,,,,,,,,,,,,,,,,,,,,,,,,,,,,,,,,,,,,,,,,,,,,,,,,,,,,,,,,,,,,,,,,,,,,,,,,,,,,,,,,,,,,,
,,673a1dcffde7de9c08f6d2e6,2026-03-17_14h31.13.678,kallum_motion_pilot_GIST_update_2,2026.1.1,Win32,59.88023952,673a1dcffde7de9c08f6d2e6,69b95efdef24cd8a694e89ee,69b960488d95a741f3adf43e,0.0829,0.0829,0,75,75,44,1,threeone,,,,,,,,,,,,,,,,,,,,,,,,,,,,,,,,,,,,,,,,,,,,,,,,,,,,,,,,,,,,,,,,,,,,,,,,,,,,,,,,,,,,,,,,,,,,,,,,,,,,,,,,,,,,,,,,,,,,,,,,,,,,,,,,,,,,,,,,,
,,673a1dcffde7de9c08f6d2e6,2026-03-17_14h31.13.678,kallum_motion_pilot_GIST_update_2,2026.1.1,Win32,59.88023952,673a1dcffde7de9c08f6d2e6,69b95efdef24cd8a694e89ee,69b960488d95a741f3adf43e,0.0833,0.0834,0,76,76,84,1,sevenfive,,,,,,,,,,,,,,,,,,,,,,,,,,,,,,,,,,,,,,,,,,,,,,,,,,,,,,,,,,,,,,,,,,,,,,,,,,,,,,,,,,,,,,,,,,,,,,,,,,,,,,,,,,,,,,,,,,,,,,,,,,,,,,,,,,,,,,,,,
,,673a1dcffde7de9c08f6d2e6,2026-03-17_14h31.13.678,kallum_motion_pilot_GIST_update_2,2026.1.1,Win32,59.88023952,673a1dcffde7de9c08f6d2e6,69b95efdef24cd8a694e89ee,69b960488d95a741f3adf43e,0.0836,0.0836,0,77,77,38,1,fourtwo,,,,,,,,,,,,,,,,,,,,,,,,,,,,,,,,,,,,,,,,,,,,,,,,,,,,,,,,,,,,,,,,,,,,,,,,,,,,,,,,,,,,,,,,,,,,,,,,,,,,,,,,,,,,,,,,,,,,,,,,,,,,,,,,,,,,,,,,,
,,673a1dcffde7de9c08f6d2e6,2026-03-17_14h31.13.678,kallum_motion_pilot_GIST_update_2,2026.1.1,Win32,59.88023952,673a1dcffde7de9c08f6d2e6,69b95efdef24cd8a694e89ee,69b960488d95a741f3adf43e,0.0838,0.0838,0,78,78,33,1,onethree,,,,,,,,,,,,,,,,,,,,,,,,,,,,,,,,,,,,,,,,,,,,,,,,,,,,,,,,,,,,,,,,,,,,,,,,,,,,,,,,,,,,,,,,,,,,,,,,,,,,,,,,,,,,,,,,,,,,,,,,,,,,,,,,,,,,,,,,,
,,673a1dcffde7de9c08f6d2e6,2026-03-17_14h31.13.678,kallum_motion_pilot_GIST_update_2,2026.1.1,Win32,59.88023952,673a1dcffde7de9c08f6d2e6,69b95efdef24cd8a694e89ee,69b960488d95a741f3adf43e,0.0841,0.0841,0,79,79,126,1,eightsix,,,,,,,,,,,,,,,,,,,,,,,,,,,,,,,,,,,,,,,,,,,,,,,,,,,,,,,,,,,,,,,,,,,,,,,,,,,,,,,,,,,,,,,,,,,,,,,,,,,,,,,,,,,,,,,,,,,,,,,,,,,,,,,,,,,,,,,,,
,,673a1dcffde7de9c08f6d2e6,2026-03-17_14h31.13.678,kallum_motion_pilot_GIST_update_2,2026.1.1,Win32,59.88023952,673a1dcffde7de9c08f6d2e6,69b95efdef24cd8a694e89ee,69b960488d95a741f3adf43e,0.0843,0.0844,0,80,80,161,1,fiveseven,,,,,,,,,,,,,,,,,,,,,,,,,,,,,,,,,,,,,,,,,,,,,,,,,,,,,,,,,,,,,,,,,,,,,,,,,,,,,,,,,,,,,,,,,,,,,,,,,,,,,,,,,,,,,,,,,,,,,,,,,,,,,,,,,,,,,,,,,
,,673a1dcffde7de9c08f6d2e6,2026-03-17_14h31.13.678,kallum_motion_pilot_GIST_update_2,2026.1.1,Win32,59.88023952,673a1dcffde7de9c08f6d2e6,69b95efdef24cd8a694e89ee,69b960488d95a741f3adf43e,0.0847,0.0847,0,81,81,62,1,fourtwo,,,,,,,,,,,,,,,,,,,,,,,,,,,,,,,,,,,,,,,,,,,,,,,,,,,,,,,,,,,,,,,,,,,,,,,,,,,,,,,,,,,,,,,,,,,,,,,,,,,,,,,,,,,,,,,,,,,,,,,,,,,,,,,,,,,,,,,,,
,,673a1dcffde7de9c08f6d2e6,2026-03-17_14h31.13.678,kallum_motion_pilot_GIST_update_2,2026.1.1,Win32,59.88023952,673a1dcffde7de9c08f6d2e6,69b95efdef24cd8a694e89ee,69b960488d95a741f3adf43e,0.085,0.085,0,82,82,5,1,threefour,,,,,,,,,,,,,,,,,,,,,,,,,,,,,,,,,,,,,,,,,,,,,,,,,,,,,,,,,,,,,,,,,,,,,,,,,,,,,,,,,,,,,,,,,,,,,,,,,,,,,,,,,,,,,,,,,,,,,,,,,,,,,,,,,,,,,,,,,
,,673a1dcffde7de9c08f6d2e6,2026-03-17_14h31.13.678,kallum_motion_pilot_GIST_update_2,2026.1.1,Win32,59.88023952,673a1dcffde7de9c08f6d2e6,69b95efdef24cd8a694e89ee,69b960488d95a741f3adf43e,0.0853,0.0853,0,83,83,153,1,fiveseven,,,,,,,,,,,,,,,,,,,,,,,,,,,,,,,,,,,,,,,,,,,,,,,,,,,,,,,,,,,,,,,,,,,,,,,,,,,,,,,,,,,,,,,,,,,,,,,,,,,,,,,,,,,,,,,,,,,,,,,,,,,,,,,,,,,,,,,,,
,,673a1dcffde7de9c08f6d2e6,2026-03-17_14h31.13.678,kallum_motion_pilot_GIST_update_2,2026.1.1,Win32,59.88023952,673a1dcffde7de9c08f6d2e6,69b95efdef24cd8a694e89ee,69b960488d95a741f3adf43e,0.0856,0.0856,0,84,84,110,1,eightsix,,,,,,,,,,,,,,,,,,,,,,,,,,,,,,,,,,,,,,,,,,,,,,,,,,,,,,,,,,,,,,,,,,,,,,,,,,,,,,,,,,,,,,,,,,,,,,,,,,,,,,,,,,,,,,,,,,,,,,,,,,,,,,,,,,,,,,,,,
,,673a1dcffde7de9c08f6d2e6,2026-03-17_14h31.13.678,kallum_motion_pilot_GIST_update_2,2026.1.1,Win32,59.88023952,673a1dcffde7de9c08f6d2e6,69b95efdef24cd8a694e89ee,69b960488d95a741f3adf43e,0.0859,0.0859,0,85,85,40,1,onetwo,,,,,,,,,,,,,,,,,,,,,,,,,,,,,,,,,,,,,,,,,,,,,,,,,,,,,,,,,,,,,,,,,,,,,,,,,,,,,,,,,,,,,,,,,,,,,,,,,,,,,,,,,,,,,,,,,,,,,,,,,,,,,,,,,,,,,,,,,
,,673a1dcffde7de9c08f6d2e6,2026-03-17_14h31.13.678,kallum_motion_pilot_GIST_update_2,2026.1.1,Win32,59.88023952,673a1dcffde7de9c08f6d2e6,69b95efdef24cd8a694e89ee,69b960488d95a741f3adf43e,0.0861,0.0861,0,86,86,89,1,fiveseven,,,,,,,,,,,,,,,,,,,,,,,,,,,,,,,,,,,,,,,,,,,,,,,,,,,,,,,,,,,,,,,,,,,,,,,,,,,,,,,,,,,,,,,,,,,,,,,,,,,,,,,,,,,,,,,,,,,,,,,,,,,,,,,,,,,,,,,,,
,,673a1dcffde7de9c08f6d2e6,2026-03-17_14h31.13.678,kallum_motion_pilot_GIST_update_2,2026.1.1,Win32,59.88023952,673a1dcffde7de9c08f6d2e6,69b95efdef24cd8a694e89ee,69b960488d95a741f3adf43e,0.0865,0.0865,0,87,87,102,1,eightsix,,,,,,,,,,,,,,,,,,,,,,,,,,,,,,,,,,,,,,,,,,,,,,,,,,,,,,,,,,,,,,,,,,,,,,,,,,,,,,,,,,,,,,,,,,,,,,,,,,,,,,,,,,,,,,,,,,,,,,,,,,,,,,,,,,,,,,,,,
,,673a1dcffde7de9c08f6d2e6,2026-03-17_14h31.13.678,kallum_motion_pilot_GIST_update_2,2026.1.1,Win32,59.88023952,673a1dcffde7de9c08f6d2e6,69b95efdef24cd8a694e89ee,69b960488d95a741f3adf43e,0.0868,0.0868,0,88,88,152,1,fivesix,,,,,,,,,,,,,,,,,,,,,,,,,,,,,,,,,,,,,,,,,,,,,,,,,,,,,,,,,,,,,,,,,,,,,,,,,,,,,,,,,,,,,,,,,,,,,,,,,,,,,,,,,,,,,,,,,,,,,,,,,,,,,,,,,,,,,,,,,
,,673a1dcffde7de9c08f6d2e6,2026-03-17_14h31.13.678,kallum_motion_pilot_GIST_update_2,2026.1.1,Win32,59.88023952,673a1dcffde7de9c08f6d2e6,69b95efdef24cd8a694e89ee,69b960488d95a741f3adf43e,0.0871,0.0871,0,89,89,117,1,seveneight,,,,,,,,,,,,,,,,,,,,,,,,,,,,,,,,,,,,,,,,,,,,,,,,,,,,,,,,,,,,,,,,,,,,,,,,,,,,,,,,,,,,,,,,,,,,,,,,,,,,,,,,,,,,,,,,,,,,,,,,,,,,,,,,,,,,,,,,,
,,673a1dcffde7de9c08f6d2e6,2026-03-17_14h31.13.678,kallum_motion_pilot_GIST_update_2,2026.1.1,Win32,59.88023952,673a1dcffde7de9c08f6d2e6,69b95efdef24cd8a694e89ee,69b960488d95a741f3adf43e,0.0874,0.0874,0,90,90,111,1,eightseven,,,,,,,,,,,,,,,,,,,,,,,,,,,,,,,,,,,,,,,,,,,,,,,,,,,,,,,,,,,,,,,,,,,,,,,,,,,,,,,,,,,,,,,,,,,,,,,,,,,,,,,,,,,,,,,,,,,,,,,,,,,,,,,,,,,,,,,,,
,,673a1dcffde7de9c08f6d2e6,2026-03-17_14h31.13.678,kallum_motion_pilot_GIST_update_2,2026.1.1,Win32,59.88023952,673a1dcffde7de9c08f6d2e6,69b95efdef24cd8a694e89ee,69b960488d95a741f3adf43e,0.0877,0.0877,0,91,91,75,1,twofour,,,,,,,,,,,,,,,,,,,,,,,,,,,,,,,,,,,,,,,,,,,,,,,,,,,,,,,,,,,,,,,,,,,,,,,,,,,,,,,,,,,,,,,,,,,,,,,,,,,,,,,,,,,,,,,,,,,,,,,,,,,,,,,,,,,,,,,,,
,,673a1dcffde7de9c08f6d2e6,2026-03-17_14h31.13.678,kallum_motion_pilot_GIST_update_2,2026.1.1,Win32,59.88023952,673a1dcffde7de9c08f6d2e6,69b95efdef24cd8a694e89ee,69b960488d95a741f3adf43e,0.088,0.088,0,92,92,103,1,eightseven,,,,,,,,,,,,,,,,,,,,,,,,,,,,,,,,,,,,,,,,,,,,,,,,,,,,,,,,,,,,,,,,,,,,,,,,,,,,,,,,,,,,,,,,,,,,,,,,,,,,,,,,,,,,,,,,,,,,,,,,,,,,,,,,,,,,,,,,,
,,673a1dcffde7de9c08f6d2e6,2026-03-17_14h31.13.678,kallum_motion_pilot_GIST_update_2,2026.1.1,Win32,59.88023952,673a1dcffde7de9c08f6d2e6,69b95efdef24cd8a694e89ee,69b960488d95a741f3adf43e,0.0883,0.0883,0,93,93,105,1,fiveseven,,,,,,,,,,,,,,,,,,,,,,,,,,,,,,,,,,,,,,,,,,,,,,,,,,,,,,,,,,,,,,,,,,,,,,,,,,,,,,,,,,,,,,,,,,,,,,,,,,,,,,,,,,,,,,,,,,,,,,,,,,,,,,,,,,,,,,,,,
,,673a1dcffde7de9c08f6d2e6,2026-03-17_14h31.13.678,kallum_motion_pilot_GIST_update_2,2026.1.1,Win32,59.88023952,673a1dcffde7de9c08f6d2e6,69b95efdef24cd8a694e89ee,69b960488d95a741f3adf43e,0.0886,0.0886,0,94,94,95,1,eightseven,,,,,,,,,,,,,,,,,,,,,,,,,,,,,,,,,,,,,,,,,,,,,,,,,,,,,,,,,,,,,,,,,,,,,,,,,,,,,,,,,,,,,,,,,,,,,,,,,,,,,,,,,,,,,,,,,,,,,,,,,,,,,,,,,,,,,,,,,
,,673a1dcffde7de9c08f6d2e6,2026-03-17_14h31.13.678,kallum_motion_pilot_GIST_update_2,2026.1.1,Win32,59.88023952,673a1dcffde7de9c08f6d2e6,69b95efdef24cd8a694e89ee,69b960488d95a741f3adf43e,0.0889,0.0889,0,95,95,116,1,sevenfive,,,,,,,,,,,,,,,,,,,,,,,,,,,,,,,,,,,,,,,,,,,,,,,,,,,,,,,,,,,,,,,,,,,,,,,,,,,,,,,,,,,,,,,,,,,,,,,,,,,,,,,,,,,,,,,,,,,,,,,,,,,,,,,,,,,,,,,,,
,,673a1dcffde7de9c08f6d2e6,2026-03-17_14h31.13.678,kallum_motion_pilot_GIST_update_2,2026.1.1,Win32,59.88023952,673a1dcffde7de9c08f6d2e6,69b95efdef24cd8a694e89ee,69b960488d95a741f3adf43e,0.0893,0.0893,0,96,96,82,1,sixfive,,,,,,,,,,,,,,,,,,,,,,,,,,,,,,,,,,,,,,,,,,,,,,,,,,,,,,,,,,,,,,,,,,,,,,,,,,,,,,,,,,,,,,,,,,,,,,,,,,,,,,,,,,,,,,,,,,,,,,,,,,,,,,,,,,,,,,,,,
,,673a1dcffde7de9c08f6d2e6,2026-03-17_14h31.13.678,kallum_motion_pilot_GIST_update_2,2026.1.1,Win32,59.88023952,673a1dcffde7de9c08f6d2e6,69b95efdef24cd8a694e89ee,69b960488d95a741f3adf43e,0.0895,0.0895,0,97,97,51,1,twofour,,,,,,,,,,,,,,,,,,,,,,,,,,,,,,,,,,,,,,,,,,,,,,,,,,,,,,,,,,,,,,,,,,,,,,,,,,,,,,,,,,,,,,,,,,,,,,,,,,,,,,,,,,,,,,,,,,,,,,,,,,,,,,,,,,,,,,,,,
,,673a1dcffde7de9c08f6d2e6,2026-03-17_14h31.13.678,kallum_motion_pilot_GIST_update_2,2026.1.1,Win32,59.88023952,673a1dcffde7de9c08f6d2e6,69b95efdef24cd8a694e89ee,69b960488d95a741f3adf43e,0.0899,0.0899,0,98,98,109,1,seveneight,,,,,,,,,,,,,,,,,,,,,,,,,,,,,,,,,,,,,,,,,,,,,,,,,,,,,,,,,,,,,,,,,,,,,,,,,,,,,,,,,,,,,,,,,,,,,,,,,,,,,,,,,,,,,,,,,,,,,,,,,,,,,,,,,,,,,,,,,
,,673a1dcffde7de9c08f6d2e6,2026-03-17_14h31.13.678,kallum_motion_pilot_GIST_update_2,2026.1.1,Win32,59.88023952,673a1dcffde7de9c08f6d2e6,69b95efdef24cd8a694e89ee,69b960488d95a741f3adf43e,0.0902,0.0902,0,99,99,64,1,onetwo,,,,,,,,,,,,,,,,,,,,,,,,,,,,,,,,,,,,,,,,,,,,,,,,,,,,,,,,,,,,,,,,,,,,,,,,,,,,,,,,,,,,,,,,,,,,,,,,,,,,,,,,,,,,,,,,,,,,,,,,,,,,,,,,,,,,,,,,,
,,673a1dcffde7de9c08f6d2e6,2026-03-17_14h31.13.678,kallum_motion_pilot_GIST_update_2,2026.1.1,Win32,59.88023952,673a1dcffde7de9c08f6d2e6,69b95efdef24cd8a694e89ee,69b960488d95a741f3adf43e,0.0905,0.0905,0,100,100,30,1,fourtwo,,,,,,,,,,,,,,,,,,,,,,,,,,,,,,,,,,,,,,,,,,,,,,,,,,,,,,,,,,,,,,,,,,,,,,,,,,,,,,,,,,,,,,,,,,,,,,,,,,,,,,,,,,,,,,,,,,,,,,,,,,,,,,,,,,,,,,,,,
,,673a1dcffde7de9c08f6d2e6,2026-03-17_14h31.13.678,kallum_motion_pilot_GIST_update_2,2026.1.1,Win32,59.88023952,673a1dcffde7de9c08f6d2e6,69b95efdef24cd8a694e89ee,69b960488d95a741f3adf43e,0.0909,0.0909,0,101,101,45,1,threefour,,,,,,,,,,,,,,,,,,,,,,,,,,,,,,,,,,,,,,,,,,,,,,,,,,,,,,,,,,,,,,,,,,,,,,,,,,,,,,,,,,,,,,,,,,,,,,,,,,,,,,,,,,,,,,,,,,,,,,,,,,,,,,,,,,,,,,,,,
,,673a1dcffde7de9c08f6d2e6,2026-03-17_14h31.13.678,kallum_motion_pilot_GIST_update_2,2026.1.1,Win32,59.88023952,673a1dcffde7de9c08f6d2e6,69b95efdef24cd8a694e89ee,69b960488d95a741f3adf43e,0.0911,0.0911,0,102,102,112,1,fivesix,,,,,,,,,,,,,,,,,,,,,,,,,,,,,,,,,,,,,,,,,,,,,,,,,,,,,,,,,,,,,,,,,,,,,,,,,,,,,,,,,,,,,,,,,,,,,,,,,,,,,,,,,,,,,,,,,,,,,,,,,,,,,,,,,,,,,,,,,
,,673a1dcffde7de9c08f6d2e6,2026-03-17_14h31.13.678,kallum_motion_pilot_GIST_update_2,2026.1.1,Win32,59.88023952,673a1dcffde7de9c08f6d2e6,69b95efdef24cd8a694e89ee,69b960488d95a741f3adf43e,0.0915,0.0915,0,103,103,49,1,onethree,,,,,,,,,,,,,,,,,,,,,,,,,,,,,,,,,,,,,,,,,,,,,,,,,,,,,,,,,,,,,,,,,,,,,,,,,,,,,,,,,,,,,,,,,,,,,,,,,,,,,,,,,,,,,,,,,,,,,,,,,,,,,,,,,,,,,,,,,
,,673a1dcffde7de9c08f6d2e6,2026-03-17_14h31.13.678,kallum_motion_pilot_GIST_update_2,2026.1.1,Win32,59.88023952,673a1dcffde7de9c08f6d2e6,69b95efdef24cd8a694e89ee,69b960488d95a741f3adf43e,0.0918,0.0918,0,104,104,42,1,twoone,,,,,,,,,,,,,,,,,,,,,,,,,,,,,,,,,,,,,,,,,,,,,,,,,,,,,,,,,,,,,,,,,,,,,,,,,,,,,,,,,,,,,,,,,,,,,,,,,,,,,,,,,,,,,,,,,,,,,,,,,,,,,,,,,,,,,,,,,
,,673a1dcffde7de9c08f6d2e6,2026-03-17_14h31.13.678,kallum_motion_pilot_GIST_update_2,2026.1.1,Win32,59.88023952,673a1dcffde7de9c08f6d2e6,69b95efdef24cd8a694e89ee,69b960488d95a741f3adf43e,0.0922,0.0923,0,105,105,72,1,onetwo,,,,,,,,,,,,,,,,,,,,,,,,,,,,,,,,,,,,,,,,,,,,,,,,,,,,,,,,,,,,,,,,,,,,,,,,,,,,,,,,,,,,,,,,,,,,,,,,,,,,,,,,,,,,,,,,,,,,,,,,,,,,,,,,,,,,,,,,,
,,673a1dcffde7de9c08f6d2e6,2026-03-17_14h31.13.678,kallum_motion_pilot_GIST_update_2,2026.1.1,Win32,59.88023952,673a1dcffde7de9c08f6d2e6,69b95efdef24cd8a694e89ee,69b960488d95a741f3adf43e,0.0927,0.0927,0,106,106,92,1,sevenfive,,,,,,,,,,,,,,,,,,,,,,,,,,,,,,,,,,,,,,,,,,,,,,,,,,,,,,,,,,,,,,,,,,,,,,,,,,,,,,,,,,,,,,,,,,,,,,,,,,,,,,,,,,,,,,,,,,,,,,,,,,,,,,,,,,,,,,,,,
,,673a1dcffde7de9c08f6d2e6,2026-03-17_14h31.13.678,kallum_motion_pilot_GIST_update_2,2026.1.1,Win32,59.88023952,673a1dcffde7de9c08f6d2e6,69b95efdef24cd8a694e89ee,69b960488d95a741f3adf43e,0.0931,0.0931,0,107,107,54,1,fourtwo,,,,,,,,,,,,,,,,,,,,,,,,,,,,,,,,,,,,,,,,,,,,,,,,,,,,,,,,,,,,,,,,,,,,,,,,,,,,,,,,,,,,,,,,,,,,,,,,,,,,,,,,,,,,,,,,,,,,,,,,,,,,,,,,,,,,,,,,,
,,673a1dcffde7de9c08f6d2e6,2026-03-17_14h31.13.678,kallum_motion_pilot_GIST_update_2,2026.1.1,Win32,59.88023952,673a1dcffde7de9c08f6d2e6,69b95efdef24cd8a694e89ee,69b960488d95a741f3adf43e,0.0933,0.0933,0,108,108,155,1,sixeight,,,,,,,,,,,,,,,,,,,,,,,,,,,,,,,,,,,,,,,,,,,,,,,,,,,,,,,,,,,,,,,,,,,,,,,,,,,,,,,,,,,,,,,,,,,,,,,,,,,,,,,,,,,,,,,,,,,,,,,,,,,,,,,,,,,,,,,,,
,,673a1dcffde7de9c08f6d2e6,2026-03-17_14h31.13.678,kallum_motion_pilot_GIST_update_2,2026.1.1,Win32,59.88023952,673a1dcffde7de9c08f6d2e6,69b95efdef24cd8a694e89ee,69b960488d95a741f3adf43e,0.0938,0.0938,0,109,109,27,1,twofour,,,,,,,,,,,,,,,,,,,,,,,,,,,,,,,,,,,,,,,,,,,,,,,,,,,,,,,,,,,,,,,,,,,,,,,,,,,,,,,,,,,,,,,,,,,,,,,,,,,,,,,,,,,,,,,,,,,,,,,,,,,,,,,,,,,,,,,,,
,,673a1dcffde7de9c08f6d2e6,2026-03-17_14h31.13.678,kallum_motion_pilot_GIST_update_2,2026.1.1,Win32,59.88023952,673a1dcffde7de9c08f6d2e6,69b95efdef24cd8a694e89ee,69b960488d95a741f3adf43e,0.0942,0.0942,0,110,110,147,1,sixeight,,,,,,,,,,,,,,,,,,,,,,,,,,,,,,,,,,,,,,,,,,,,,,,,,,,,,,,,,,,,,,,,,,,,,,,,,,,,,,,,,,,,,,,,,,,,,,,,,,,,,,,,,,,,,,,,,,,,,,,,,,,,,,,,,,,,,,,,,
,,673a1dcffde7de9c08f6d2e6,2026-03-17_14h31.13.678,kallum_motion_pilot_GIST_update_2,2026.1.1,Win32,59.88023952,673a1dcffde7de9c08f6d2e6,69b95efdef24cd8a694e89ee,69b960488d95a741f3adf43e,0.0945,0.0946,0,111,111,73,1,onethree,,,,,,,,,,,,,,,,,,,,,,,,,,,,,,,,,,,,,,,,,,,,,,,,,,,,,,,,,,,,,,,,,,,,,,,,,,,,,,,,,,,,,,,,,,,,,,,,,,,,,,,,,,,,,,,,,,,,,,,,,,,,,,,,,,,,,,,,,
,,673a1dcffde7de9c08f6d2e6,2026-03-17_14h31.13.678,kallum_motion_pilot_GIST_update_2,2026.1.1,Win32,59.88023952,673a1dcffde7de9c08f6d2e6,69b95efdef24cd8a694e89ee,69b960488d95a741f3adf43e,0.0949,0.095,0,112,112,74,1,twoone,,,,,,,,,,,,,,,,,,,,,,,,,,,,,,,,,,,,,,,,,,,,,,,,,,,,,,,,,,,,,,,,,,,,,,,,,,,,,,,,,,,,,,,,,,,,,,,,,,,,,,,,,,,,,,,,,,,,,,,,,,,,,,,,,,,,,,,,,
,,673a1dcffde7de9c08f6d2e6,2026-03-17_14h31.13.678,kallum_motion_pilot_GIST_update_2,2026.1.1,Win32,59.88023952,673a1dcffde7de9c08f6d2e6,69b95efdef24cd8a694e89ee,69b960488d95a741f3adf43e,0.0954,0.0954,0,113,113,90,1,sixfive,,,,,,,,,,,,,,,,,,,,,,,,,,,,,,,,,,,,,,,,,,,,,,,,,,,,,,,,,,,,,,,,,,,,,,,,,,,,,,,,,,,,,,,,,,,,,,,,,,,,,,,,,,,,,,,,,,,,,,,,,,,,,,,,,,,,,,,,,
,,673a1dcffde7de9c08f6d2e6,2026-03-17_14h31.13.678,kallum_motion_pilot_GIST_update_2,2026.1.1,Win32,59.88023952,673a1dcffde7de9c08f6d2e6,69b95efdef24cd8a694e89ee,69b960488d95a741f3adf43e,0.0959,0.096,0,114,114,104,1,fivesix,,,,,,,,,,,,,,,,,,,,,,,,,,,,,,,,,,,,,,,,,,,,,,,,,,,,,,,,,,,,,,,,,,,,,,,,,,,,,,,,,,,,,,,,,,,,,,,,,,,,,,,,,,,,,,,,,,,,,,,,,,,,,,,,,,,,,,,,,
,,673a1dcffde7de9c08f6d2e6,2026-03-17_14h31.13.678,kallum_motion_pilot_GIST_update_2,2026.1.1,Win32,59.88023952,673a1dcffde7de9c08f6d2e6,69b95efdef24cd8a694e89ee,69b960488d95a741f3adf43e,0.0963,0.0963,0,115,115,78,1,fourtwo,,,,,,,,,,,,,,,,,,,,,,,,,,,,,,,,,,,,,,,,,,,,,,,,,,,,,,,,,,,,,,,,,,,,,,,,,,,,,,,,,,,,,,,,,,,,,,,,,,,,,,,,,,,,,,,,,,,,,,,,,,,,,,,,,,,,,,,,,
,,673a1dcffde7de9c08f6d2e6,2026-03-17_14h31.13.678,kallum_motion_pilot_GIST_update_2,2026.1.1,Win32,59.88023952,673a1dcffde7de9c08f6d2e6,69b95efdef24cd8a694e89ee,69b960488d95a741f3adf43e,0.0966,0.0966,0,116,116,22,1,fourtwo,,,,,,,,,,,,,,,,,,,,,,,,,,,,,,,,,,,,,,,,,,,,,,,,,,,,,,,,,,,,,,,,,,,,,,,,,,,,,,,,,,,,,,,,,,,,,,,,,,,,,,,,,,,,,,,,,,,,,,,,,,,,,,,,,,,,,,,,,
,,673a1dcffde7de9c08f6d2e6,2026-03-17_14h31.13.678,kallum_motion_pilot_GIST_update_2,2026.1.1,Win32,59.88023952,673a1dcffde7de9c08f6d2e6,69b95efdef24cd8a694e89ee,69b960488d95a741f3adf43e,0.0969,0.0969,0,117,117,140,1,sevenfive,,,,,,,,,,,,,,,,,,,,,,,,,,,,,,,,,,,,,,,,,,,,,,,,,,,,,,,,,,,,,,,,,,,,,,,,,,,,,,,,,,,,,,,,,,,,,,,,,,,,,,,,,,,,,,,,,,,,,,,,,,,,,,,,,,,,,,,,,
,,673a1dcffde7de9c08f6d2e6,2026-03-17_14h31.13.678,kallum_motion_pilot_GIST_update_2,2026.1.1,Win32,59.88023952,673a1dcffde7de9c08f6d2e6,69b95efdef24cd8a694e89ee,69b960488d95a741f3adf43e,0.0973,0.0973,0,118,118,24,1,onetwo,,,,,,,,,,,,,,,,,,,,,,,,,,,,,,,,,,,,,,,,,,,,,,,,,,,,,,,,,,,,,,,,,,,,,,,,,,,,,,,,,,,,,,,,,,,,,,,,,,,,,,,,,,,,,,,,,,,,,,,,,,,,,,,,,,,,,,,,,
,,673a1dcffde7de9c08f6d2e6,2026-03-17_14h31.13.678,kallum_motion_pilot_GIST_update_2,2026.1.1,Win32,59.88023952,673a1dcffde7de9c08f6d2e6,69b95efdef24cd8a694e89ee,69b960488d95a741f3adf43e,0.0977,0.0977,0,119,119,107,1,sixeight,,,,,,,,,,,,,,,,,,,,,,,,,,,,,,,,,,,,,,,,,,,,,,,,,,,,,,,,,,,,,,,,,,,,,,,,,,,,,,,,,,,,,,,,,,,,,,,,,,,,,,,,,,,,,,,,,,,,,,,,,,,,,,,,,,,,,,,,,
,,673a1dcffde7de9c08f6d2e6,2026-03-17_14h31.13.678,kallum_motion_pilot_GIST_update_2,2026.1.1,Win32,59.88023952,673a1dcffde7de9c08f6d2e6,69b95efdef24cd8a694e89ee,69b960488d95a741f3adf43e,0.098,0.098,0,120,120,98,1,sixfive,,,,,,,,,,,,,,,,,,,,,,,,,,,,,,,,,,,,,,,,,,,,,,,,,,,,,,,,,,,,,,,,,,,,,,,,,,,,,,,,,,,,,,,,,,,,,,,,,,,,,,,,,,,,,,,,,,,,,,,,,,,,,,,,,,,,,,,,,
,,673a1dcffde7de9c08f6d2e6,2026-03-17_14h31.13.678,kallum_motion_pilot_GIST_update_2,2026.1.1,Win32,59.88023952,673a1dcffde7de9c08f6d2e6,69b95efdef24cd8a694e89ee,69b960488d95a741f3adf43e,0.0986,0.0986,0,121,121,80,1,fivesix,,,,,,,,,,,,,,,,,,,,,,,,,,,,,,,,,,,,,,,,,,,,,,,,,,,,,,,,,,,,,,,,,,,,,,,,,,,,,,,,,,,,,,,,,,,,,,,,,,,,,,,,,,,,,,,,,,,,,,,,,,,,,,,,,,,,,,,,,
,,673a1dcffde7de9c08f6d2e6,2026-03-17_14h31.13.678,kallum_motion_pilot_GIST_update_2,2026.1.1,Win32,59.88023952,673a1dcffde7de9c08f6d2e6,69b95efdef24cd8a694e89ee,69b960488d95a741f3adf43e,0.0991,0.0991,0,122,122,60,1,threeone,,,,,,,,,,,,,,,,,,,,,,,,,,,,,,,,,,,,,,,,,,,,,,,,,,,,,,,,,,,,,,,,,,,,,,,,,,,,,,,,,,,,,,,,,,,,,,,,,,,,,,,,,,,,,,,,,,,,,,,,,,,,,,,,,,,,,,,,,
,,673a1dcffde7de9c08f6d2e6,2026-03-17_14h31.13.678,kallum_motion_pilot_GIST_update_2,2026.1.1,Win32,59.88023952,673a1dcffde7de9c08f6d2e6,69b95efdef24cd8a694e89ee,69b960488d95a741f3adf43e,0.0997,0.0997,0,123,123,63,1,fourthree,,,,,,,,,,,,,,,,,,,,,,,,,,,,,,,,,,,,,,,,,,,,,,,,,,,,,,,,,,,,,,,,,,,,,,,,,,,,,,,,,,,,,,,,,,,,,,,,,,,,,,,,,,,,,,,,,,,,,,,,,,,,,,,,,,,,,,,,,
,,673a1dcffde7de9c08f6d2e6,2026-03-17_14h31.13.678,kallum_motion_pilot_GIST_update_2,2026.1.1,Win32,59.88023952,673a1dcffde7de9c08f6d2e6,69b95efdef24cd8a694e89ee,69b960488d95a741f3adf43e,0.1,0.1,0,124,124,48,1,onetwo,,,,,,,,,,,,,,,,,,,,,,,,,,,,,,,,,,,,,,,,,,,,,,,,,,,,,,,,,,,,,,,,,,,,,,,,,,,,,,,,,,,,,,,,,,,,,,,,,,,,,,,,,,,,,,,,,,,,,,,,,,,,,,,,,,,,,,,,,
,,673a1dcffde7de9c08f6d2e6,2026-03-17_14h31.13.678,kallum_motion_pilot_GIST_update_2,2026.1.1,Win32,59.88023952,673a1dcffde7de9c08f6d2e6,69b95efdef24cd8a694e89ee,69b960488d95a741f3adf43e,0.1003,0.1003,0,125,125,6,1,fourtwo,,,,,,,,,,,,,,,,,,,,,,,,,,,,,,,,,,,,,,,,,,,,,,,,,,,,,,,,,,,,,,,,,,,,,,,,,,,,,,,,,,,,,,,,,,,,,,,,,,,,,,,,,,,,,,,,,,,,,,,,,,,,,,,,,,,,,,,,,
,,673a1dcffde7de9c08f6d2e6,2026-03-17_14h31.13.678,kallum_motion_pilot_GIST_update_2,2026.1.1,Win32,59.88023952,673a1dcffde7de9c08f6d2e6,69b95efdef24cd8a694e89ee,69b960488d95a741f3adf43e,0.1007,0.1007,0,126,126,79,1,eightseven,,,,,,,,,,,,,,,,,,,,,,,,,,,,,,,,,,,,,,,,,,,,,,,,,,,,,,,,,,,,,,,,,,,,,,,,,,,,,,,,,,,,,,,,,,,,,,,,,,,,,,,,,,,,,,,,,,,,,,,,,,,,,,,,,,,,,,,,,
,,673a1dcffde7de9c08f6d2e6,2026-03-17_14h31.13.678,kallum_motion_pilot_GIST_update_2,2026.1.1,Win32,59.88023952,673a1dcffde7de9c08f6d2e6,69b95efdef24cd8a694e89ee,69b960488d95a741f3adf43e,0.1011,0.1011,0,127,127,11,1,twofour,,,,,,,,,,,,,,,,,,,,,,,,,,,,,,,,,,,,,,,,,,,,,,,,,,,,,,,,,,,,,,,,,,,,,,,,,,,,,,,,,,,,,,,,,,,,,,,,,,,,,,,,,,,,,,,,,,,,,,,,,,,,,,,,,,,,,,,,,
,,673a1dcffde7de9c08f6d2e6,2026-03-17_14h31.13.678,kallum_motion_pilot_GIST_update_2,2026.1.1,Win32,59.88023952,673a1dcffde7de9c08f6d2e6,69b95efdef24cd8a694e89ee,69b960488d95a741f3adf43e,0.1013,0.1013,0,128,128,134,1,eightsix,,,,,,,,,,,,,,,,,,,,,,,,,,,,,,,,,,,,,,,,,,,,,,,,,,,,,,,,,,,,,,,,,,,,,,,,,,,,,,,,,,,,,,,,,,,,,,,,,,,,,,,,,,,,,,,,,,,,,,,,,,,,,,,,,,,,,,,,,
,,673a1dcffde7de9c08f6d2e6,2026-03-17_14h31.13.678,kallum_motion_pilot_GIST_update_2,2026.1.1,Win32,59.88023952,673a1dcffde7de9c08f6d2e6,69b95efdef24cd8a694e89ee,69b960488d95a741f3adf43e,0.1017,0.1017,0,129,129,127,1,eightseven,,,,,,,,,,,,,,,,,,,,,,,,,,,,,,,,,,,,,,,,,,,,,,,,,,,,,,,,,,,,,,,,,,,,,,,,,,,,,,,,,,,,,,,,,,,,,,,,,,,,,,,,,,,,,,,,,,,,,,,,,,,,,,,,,,,,,,,,,
,,673a1dcffde7de9c08f6d2e6,2026-03-17_14h31.13.678,kallum_motion_pilot_GIST_update_2,2026.1.1,Win32,59.88023952,673a1dcffde7de9c08f6d2e6,69b95efdef24cd8a694e89ee,69b960488d95a741f3adf43e,0.102,0.102,0,130,130,56,1,onetwo,,,,,,,,,,,,,,,,,,,,,,,,,,,,,,,,,,,,,,,,,,,,,,,,,,,,,,,,,,,,,,,,,,,,,,,,,,,,,,,,,,,,,,,,,,,,,,,,,,,,,,,,,,,,,,,,,,,,,,,,,,,,,,,,,,,,,,,,,
,,673a1dcffde7de9c08f6d2e6,2026-03-17_14h31.13.678,kallum_motion_pilot_GIST_update_2,2026.1.1,Win32,59.88023952,673a1dcffde7de9c08f6d2e6,69b95efdef24cd8a694e89ee,69b960488d95a741f3adf43e,0.1023,0.1023,0,131,131,125,1,seveneight,,,,,,,,,,,,,,,,,,,,,,,,,,,,,,,,,,,,,,,,,,,,,,,,,,,,,,,,,,,,,,,,,,,,,,,,,,,,,,,,,,,,,,,,,,,,,,,,,,,,,,,,,,,,,,,,,,,,,,,,,,,,,,,,,,,,,,,,,
,,673a1dcffde7de9c08f6d2e6,2026-03-17_14h31.13.678,kallum_motion_pilot_GIST_update_2,2026.1.1,Win32,59.88023952,673a1dcffde7de9c08f6d2e6,69b95efdef24cd8a694e89ee,69b960488d95a741f3adf43e,0.1026,0.1026,0,132,132,121,1,fiveseven,,,,,,,,,,,,,,,,,,,,,,,,,,,,,,,,,,,,,,,,,,,,,,,,,,,,,,,,,,,,,,,,,,,,,,,,,,,,,,,,,,,,,,,,,,,,,,,,,,,,,,,,,,,,,,,,,,,,,,,,,,,,,,,,,,,,,,,,,
,,673a1dcffde7de9c08f6d2e6,2026-03-17_14h31.13.678,kallum_motion_pilot_GIST_update_2,2026.1.1,Win32,59.88023952,673a1dcffde7de9c08f6d2e6,69b95efdef24cd8a694e89ee,69b960488d95a741f3adf43e,0.1028,0.1028,0,133,133,156,1,sevenfive,,,,,,,,,,,,,,,,,,,,,,,,,,,,,,,,,,,,,,,,,,,,,,,,,,,,,,,,,,,,,,,,,,,,,,,,,,,,,,,,,,,,,,,,,,,,,,,,,,,,,,,,,,,,,,,,,,,,,,,,,,,,,,,,,,,,,,,,,
,,673a1dcffde7de9c08f6d2e6,2026-03-17_14h31.13.678,kallum_motion_pilot_GIST_update_2,2026.1.1,Win32,59.88023952,673a1dcffde7de9c08f6d2e6,69b95efdef24cd8a694e89ee,69b960488d95a741f3adf43e,0.1031,0.1031,0,134,134,143,1,eightseven,,,,,,,,,,,,,,,,,,,,,,,,,,,,,,,,,,,,,,,,,,,,,,,,,,,,,,,,,,,,,,,,,,,,,,,,,,,,,,,,,,,,,,,,,,,,,,,,,,,,,,,,,,,,,,,,,,,,,,,,,,,,,,,,,,,,,,,,,
,,673a1dcffde7de9c08f6d2e6,2026-03-17_14h31.13.678,kallum_motion_pilot_GIST_update_2,2026.1.1,Win32,59.88023952,673a1dcffde7de9c08f6d2e6,69b95efdef24cd8a694e89ee,69b960488d95a741f3adf43e,0.1033,0.1033,0,135,135,151,1,eightseven,,,,,,,,,,,,,,,,,,,,,,,,,,,,,,,,,,,,,,,,,,,,,,,,,,,,,,,,,,,,,,,,,,,,,,,,,,,,,,,,,,,,,,,,,,,,,,,,,,,,,,,,,,,,,,,,,,,,,,,,,,,,,,,,,,,,,,,,,
,,673a1dcffde7de9c08f6d2e6,2026-03-17_14h31.13.678,kallum_motion_pilot_GIST_update_2,2026.1.1,Win32,59.88023952,673a1dcffde7de9c08f6d2e6,69b95efdef24cd8a694e89ee,69b960488d95a741f3adf43e,0.1037,0.1037,0,136,136,100,1,sevenfive,,,,,,,,,,,,,,,,,,,,,,,,,,,,,,,,,,,,,,,,,,,,,,,,,,,,,,,,,,,,,,,,,,,,,,,,,,,,,,,,,,,,,,,,,,,,,,,,,,,,,,,,,,,,,,,,,,,,,,,,,,,,,,,,,,,,,,,,,
,,673a1dcffde7de9c08f6d2e6,2026-03-17_14h31.13.678,kallum_motion_pilot_GIST_update_2,2026.1.1,Win32,59.88023952,673a1dcffde7de9c08f6d2e6,69b95efdef24cd8a694e89ee,69b960488d95a741f3adf43e,0.1039,0.1039,0,137,137,119,1,eightseven,,,,,,,,,,,,,,,,,,,,,,,,,,,,,,,,,,,,,,,,,,,,,,,,,,,,,,,,,,,,,,,,,,,,,,,,,,,,,,,,,,,,,,,,,,,,,,,,,,,,,,,,,,,,,,,,,,,,,,,,,,,,,,,,,,,,,,,,,
,,673a1dcffde7de9c08f6d2e6,2026-03-17_14h31.13.678,kallum_motion_pilot_GIST_update_2,2026.1.1,Win32,59.88023952,673a1dcffde7de9c08f6d2e6,69b95efdef24cd8a694e89ee,69b960488d95a741f3adf43e,0.1042,0.1042,0,138,138,135,1,eightseven,,,,,,,,,,,,,,,,,,,,,,,,,,,,,,,,,,,,,,,,,,,,,,,,,,,,,,,,,,,,,,,,,,,,,,,,,,,,,,,,,,,,,,,,,,,,,,,,,,,,,,,,,,,,,,,,,,,,,,,,,,,,,,,,,,,,,,,,,
,,673a1dcffde7de9c08f6d2e6,2026-03-17_14h31.13.678,kallum_motion_pilot_GIST_update_2,2026.1.1,Win32,59.88023952,673a1dcffde7de9c08f6d2e6,69b95efdef24cd8a694e89ee,69b960488d95a741f3adf43e,0.1045,0.1045,0,139,139,37,1,threefour,,,,,,,,,,,,,,,,,,,,,,,,,,,,,,,,,,,,,,,,,,,,,,,,,,,,,,,,,,,,,,,,,,,,,,,,,,,,,,,,,,,,,,,,,,,,,,,,,,,,,,,,,,,,,,,,,,,,,,,,,,,,,,,,,,,,,,,,,
,,673a1dcffde7de9c08f6d2e6,2026-03-17_14h31.13.678,kallum_motion_pilot_GIST_update_2,2026.1.1,Win32,59.88023952,673a1dcffde7de9c08f6d2e6,69b95efdef24cd8a694e89ee,69b960488d95a741f3adf43e,0.1049,0.1049,0,140,140,154,1,sixfive,,,,,,,,,,,,,,,,,,,,,,,,,,,,,,,,,,,,,,,,,,,,,,,,,,,,,,,,,,,,,,,,,,,,,,,,,,,,,,,,,,,,,,,,,,,,,,,,,,,,,,,,,,,,,,,,,,,,,,,,,,,,,,,,,,,,,,,,,
,,673a1dcffde7de9c08f6d2e6,2026-03-17_14h31.13.678,kallum_motion_pilot_GIST_update_2,2026.1.1,Win32,59.88023952,673a1dcffde7de9c08f6d2e6,69b95efdef24cd8a694e89ee,69b960488d95a741f3adf43e,0.1053,0.1053,0,141,141,138,1,sixfive,,,,,,,,,,,,,,,,,,,,,,,,,,,,,,,,,,,,,,,,,,,,,,,,,,,,,,,,,,,,,,,,,,,,,,,,,,,,,,,,,,,,,,,,,,,,,,,,,,,,,,,,,,,,,,,,,,,,,,,,,,,,,,,,,,,,,,,,,
,,673a1dcffde7de9c08f6d2e6,2026-03-17_14h31.13.678,kallum_motion_pilot_GIST_update_2,2026.1.1,Win32,59.88023952,673a1dcffde7de9c08f6d2e6,69b95efdef24cd8a694e89ee,69b960488d95a741f3adf43e,0.1056,0.1056,0,142,142,120,1,fivesix,,,,,,,,,,,,,,,,,,,,,,,,,,,,,,,,,,,,,,,,,,,,,,,,,,,,,,,,,,,,,,,,,,,,,,,,,,,,,,,,,,,,,,,,,,,,,,,,,,,,,,,,,,,,,,,,,,,,,,,,,,,,,,,,,,,,,,,,,
,,673a1dcffde7de9c08f6d2e6,2026-03-17_14h31.13.678,kallum_motion_pilot_GIST_update_2,2026.1.1,Win32,59.88023952,673a1dcffde7de9c08f6d2e6,69b95efdef24cd8a694e89ee,69b960488d95a741f3adf43e,0.1058,0.1059,0,143,143,123,1,sixeight,,,,,,,,,,,,,,,,,,,,,,,,,,,,,,,,,,,,,,,,,,,,,,,,,,,,,,,,,,,,,,,,,,,,,,,,,,,,,,,,,,,,,,,,,,,,,,,,,,,,,,,,,,,,,,,,,,,,,,,,,,,,,,,,,,,,,,,,,
,,673a1dcffde7de9c08f6d2e6,2026-03-17_14h31.13.678,kallum_motion_pilot_GIST_update_2,2026.1.1,Win32,59.88023952,673a1dcffde7de9c08f6d2e6,69b95efdef24cd8a694e89ee,69b960488d95a741f3adf43e,0.1061,0.1061,0,144,144,34,1,twoone,,,,,,,,,,,,,,,,,,,,,,,,,,,,,,,,,,,,,,,,,,,,,,,,,,,,,,,,,,,,,,,,,,,,,,,,,,,,,,,,,,,,,,,,,,,,,,,,,,,,,,,,,,,,,,,,,,,,,,,,,,,,,,,,,,,,,,,,,
,,673a1dcffde7de9c08f6d2e6,2026-03-17_14h31.13.678,kallum_motion_pilot_GIST_update_2,2026.1.1,Win32,59.88023952,673a1dcffde7de9c08f6d2e6,69b95efdef24cd8a694e89ee,69b960488d95a741f3adf43e,0.1065,0.1065,0,145,145,23,1,fourthree,,,,,,,,,,,,,,,,,,,,,,,,,,,,,,,,,,,,,,,,,,,,,,,,,,,,,,,,,,,,,,,,,,,,,,,,,,,,,,,,,,,,,,,,,,,,,,,,,,,,,,,,,,,,,,,,,,,,,,,,,,,,,,,,,,,,,,,,,
,,673a1dcffde7de9c08f6d2e6,2026-03-17_14h31.13.678,kallum_motion_pilot_GIST_update_2,2026.1.1,Win32,59.88023952,673a1dcffde7de9c08f6d2e6,69b95efdef24cd8a694e89ee,69b960488d95a741f3adf43e,0.1067,0.1067,0,146,146,131,1,sixeight,,,,,,,,,,,,,,,,,,,,,,,,,,,,,,,,,,,,,,,,,,,,,,,,,,,,,,,,,,,,,,,,,,,,,,,,,,,,,,,,,,,,,,,,,,,,,,,,,,,,,,,,,,,,,,,,,,,,,,,,,,,,,,,,,,,,,,,,,
,,673a1dcffde7de9c08f6d2e6,2026-03-17_14h31.13.678,kallum_motion_pilot_GIST_update_2,2026.1.1,Win32,59.88023952,673a1dcffde7de9c08f6d2e6,69b95efdef24cd8a694e89ee,69b960488d95a741f3adf43e,0.1071,0.1071,0,147,147,76,1,threeone,,,,,,,,,,,,,,,,,,,,,,,,,,,,,,,,,,,,,,,,,,,,,,,,,,,,,,,,,,,,,,,,,,,,,,,,,,,,,,,,,,,,,,,,,,,,,,,,,,,,,,,,,,,,,,,,,,,,,,,,,,,,,,,,,,,,,,,,,
,,673a1dcffde7de9c08f6d2e6,2026-03-17_14h31.13.678,kallum_motion_pilot_GIST_update_2,2026.1.1,Win32,59.88023952,673a1dcffde7de9c08f6d2e6,69b95efdef24cd8a694e89ee,69b960488d95a741f3adf43e,0.1074,0.1074,0,148,148,99,1,sixeight,,,,,,,,,,,,,,,,,,,,,,,,,,,,,,,,,,,,,,,,,,,,,,,,,,,,,,,,,,,,,,,,,,,,,,,,,,,,,,,,,,,,,,,,,,,,,,,,,,,,,,,,,,,,,,,,,,,,,,,,,,,,,,,,,,,,,,,,,
,,673a1dcffde7de9c08f6d2e6,2026-03-17_14h31.13.678,kallum_motion_pilot_GIST_update_2,2026.1.1,Win32,59.88023952,673a1dcffde7de9c08f6d2e6,69b95efdef24cd8a694e89ee,69b960488d95a741f3adf43e,0.1076,0.1076,0,149,149,157,1,seveneight,,,,,,,,,,,,,,,,,,,,,,,,,,,,,,,,,,,,,,,,,,,,,,,,,,,,,,,,,,,,,,,,,,,,,,,,,,,,,,,,,,,,,,,,,,,,,,,,,,,,,,,,,,,,,,,,,,,,,,,,,,,,,,,,,,,,,,,,,
,,673a1dcffde7de9c08f6d2e6,2026-03-17_14h31.13.678,kallum_motion_pilot_GIST_update_2,2026.1.1,Win32,59.88023952,673a1dcffde7de9c08f6d2e6,69b95efdef24cd8a694e89ee,69b960488d95a741f3adf43e,0.1079,0.1079,0,150,150,145,1,fiveseven,,,,,,,,,,,,,,,,,,,,,,,,,,,,,,,,,,,,,,,,,,,,,,,,,,,,,,,,,,,,,,,,,,,,,,,,,,,,,,,,,,,,,,,,,,,,,,,,,,,,,,,,,,,,,,,,,,,,,,,,,,,,,,,,,,,,,,,,,
,,673a1dcffde7de9c08f6d2e6,2026-03-17_14h31.13.678,kallum_motion_pilot_GIST_update_2,2026.1.1,Win32,59.88023952,673a1dcffde7de9c08f6d2e6,69b95efdef24cd8a694e89ee,69b960488d95a741f3adf43e,0.1082,0.1082,0,151,151,65,1,onethree,,,,,,,,,,,,,,,,,,,,,,,,,,,,,,,,,,,,,,,,,,,,,,,,,,,,,,,,,,,,,,,,,,,,,,,,,,,,,,,,,,,,,,,,,,,,,,,,,,,,,,,,,,,,,,,,,,,,,,,,,,,,,,,,,,,,,,,,,
,,673a1dcffde7de9c08f6d2e6,2026-03-17_14h31.13.678,kallum_motion_pilot_GIST_update_2,2026.1.1,Win32,59.88023952,673a1dcffde7de9c08f6d2e6,69b95efdef24cd8a694e89ee,69b960488d95a741f3adf43e,0.1085,0.1085,0,152,152,94,1,eightsix,,,,,,,,,,,,,,,,,,,,,,,,,,,,,,,,,,,,,,,,,,,,,,,,,,,,,,,,,,,,,,,,,,,,,,,,,,,,,,,,,,,,,,,,,,,,,,,,,,,,,,,,,,,,,,,,,,,,,,,,,,,,,,,,,,,,,,,,,
,,673a1dcffde7de9c08f6d2e6,2026-03-17_14h31.13.678,kallum_motion_pilot_GIST_update_2,2026.1.1,Win32,59.88023952,673a1dcffde7de9c08f6d2e6,69b95efdef24cd8a694e89ee,69b960488d95a741f3adf43e,0.1088,0.1088,0,153,153,85,1,seveneight,,,,,,,,,,,,,,,,,,,,,,,,,,,,,,,,,,,,,,,,,,,,,,,,,,,,,,,,,,,,,,,,,,,,,,,,,,,,,,,,,,,,,,,,,,,,,,,,,,,,,,,,,,,,,,,,,,,,,,,,,,,,,,,,,,,,,,,,,
,,673a1dcffde7de9c08f6d2e6,2026-03-17_14h31.13.678,kallum_motion_pilot_GIST_update_2,2026.1.1,Win32,59.88023952,673a1dcffde7de9c08f6d2e6,69b95efdef24cd8a694e89ee,69b960488d95a741f3adf43e,0.1093,0.1094,0,154,154,26,1,twoone,,,,,,,,,,,,,,,,,,,,,,,,,,,,,,,,,,,,,,,,,,,,,,,,,,,,,,,,,,,,,,,,,,,,,,,,,,,,,,,,,,,,,,,,,,,,,,,,,,,,,,,,,,,,,,,,,,,,,,,,,,,,,,,,,,,,,,,,,
,,673a1dcffde7de9c08f6d2e6,2026-03-17_14h31.13.678,kallum_motion_pilot_GIST_update_2,2026.1.1,Win32,59.88023952,673a1dcffde7de9c08f6d2e6,69b95efdef24cd8a694e89ee,69b960488d95a741f3adf43e,0.1099,0.1099,0,155,155,59,1,twofour,,,,,,,,,,,,,,,,,,,,,,,,,,,,,,,,,,,,,,,,,,,,,,,,,,,,,,,,,,,,,,,,,,,,,,,,,,,,,,,,,,,,,,,,,,,,,,,,,,,,,,,,,,,,,,,,,,,,,,,,,,,,,,,,,,,,,,,,,
,,673a1dcffde7de9c08f6d2e6,2026-03-17_14h31.13.678,kallum_motion_pilot_GIST_update_2,2026.1.1,Win32,59.88023952,673a1dcffde7de9c08f6d2e6,69b95efdef24cd8a694e89ee,69b960488d95a741f3adf43e,0.1104,0.1104,0,156,156,71,1,fourthree,,,,,,,,,,,,,,,,,,,,,,,,,,,,,,,,,,,,,,,,,,,,,,,,,,,,,,,,,,,,,,,,,,,,,,,,,,,,,,,,,,,,,,,,,,,,,,,,,,,,,,,,,,,,,,,,,,,,,,,,,,,,,,,,,,,,,,,,,
,,673a1dcffde7de9c08f6d2e6,2026-03-17_14h31.13.678,kallum_motion_pilot_GIST_update_2,2026.1.1,Win32,59.88023952,673a1dcffde7de9c08f6d2e6,69b95efdef24cd8a694e89ee,69b960488d95a741f3adf43e,0.1108,0.1108,0,157,157,1,1,onethree,,,,,,,,,,,,,,,,,,,,,,,,,,,,,,,,,,,,,,,,,,,,,,,,,,,,,,,,,,,,,,,,,,,,,,,,,,,,,,,,,,,,,,,,,,,,,,,,,,,,,,,,,,,,,,,,,,,,,,,,,,,,,,,,,,,,,,,,,
,,673a1dcffde7de9c08f6d2e6,2026-03-17_14h31.13.678,kallum_motion_pilot_GIST_update_2,2026.1.1,Win32,59.88023952,673a1dcffde7de9c08f6d2e6,69b95efdef24cd8a694e89ee,69b960488d95a741f3adf43e,0.1111,0.1111,0,158,158,146,1,sixfive,,,,,,,,,,,,,,,,,,,,,,,,,,,,,,,,,,,,,,,,,,,,,,,,,,,,,,,,,,,,,,,,,,,,,,,,,,,,,,,,,,,,,,,,,,,,,,,,,,,,,,,,,,,,,,,,,,,,,,,,,,,,,,,,,,,,,,,,,
,,673a1dcffde7de9c08f6d2e6,2026-03-17_14h31.13.678,kallum_motion_pilot_GIST_update_2,2026.1.1,Win32,59.88023952,673a1dcffde7de9c08f6d2e6,69b95efdef24cd8a694e89ee,69b960488d95a741f3adf43e,0.1114,0.1114,0,159,159,108,1,sevenfive,,,,,,,,,,,,,,,,,,,,,,,,,,,,,,,,,,,,,,,,,,,,,,,,,,,,,,,,,,,,,,,,,,,,,,,,,,,,,,,,,,,,,,,,,,,,,,,,,,,,,,,,,,,,,,,,,,,,,,,,,,,,,,,,,,,,,,,,,
,,673a1dcffde7de9c08f6d2e6,2026-03-17_14h31.13.678,kallum_motion_pilot_GIST_update_2,2026.1.1,Win32,59.88023952,673a1dcffde7de9c08f6d2e6,69b95efdef24cd8a694e89ee,69b960488d95a741f3adf43e,0.1118,0.1118,0,160,160,88,1,fivesix,,,,,,,,,,,,,,,,,,,,,,,,,,,,,,,,,,,,,,,,,,,,,,,,,,,,,,,,,,,,,,,,,,,,,,,,,,,,,,,,,,,,,,,,,,,,,,,,,,,,,,,,,,,,,,,,,,,,,,,,,,,,,,,,,,,,,,,,,
,,673a1dcffde7de9c08f6d2e6,2026-03-17_14h31.13.678,kallum_motion_pilot_GIST_update_2,2026.1.1,Win32,59.88023952,673a1dcffde7de9c08f6d2e6,69b95efdef24cd8a694e89ee,69b960488d95a741f3adf43e,0.1121,0.1121,0,161,161,130,1,sixfive,,,,,,,,,,,,,,,,,,,,,,,,,,,,,,,,,,,,,,,,,,,,,,,,,,,,,,,,,,,,,,,,,,,,,,,,,,,,,,,,,,,,,,,,,,,,,,,,,,,,,,,,,,,,,,,,,,,,,,,,,,,,,,,,,,,,,,,,,
,,673a1dcffde7de9c08f6d2e6,2026-03-17_14h31.13.678,kallum_motion_pilot_GIST_update_2,2026.1.1,Win32,59.88023952,673a1dcffde7de9c08f6d2e6,69b95efdef24cd8a694e89ee,69b960488d95a741f3adf43e,0.1126,0.1126,1,0,162,74,1,twoone,,,,,,,,,,,,,,,,,,,,,,,,,,,,,,,,,,,,,,,,,,,,,,,,,,,,,,,,,,,,,,,,,,,,,,,,,,,,,,,,,,,,,,,,,,,,,,,,,,,,,,,,,,,,,,,,,,,,,,,,,,,,,,,,,,,,,,,,,
,,673a1dcffde7de9c08f6d2e6,2026-03-17_14h31.13.678,kallum_motion_pilot_GIST_update_2,2026.1.1,Win32,59.88023952,673a1dcffde7de9c08f6d2e6,69b95efdef24cd8a694e89ee,69b960488d95a741f3adf43e,0.1129,0.1129,1,1,163,40,1,onetwo,,,,,,,,,,,,,,,,,,,,,,,,,,,,,,,,,,,,,,,,,,,,,,,,,,,,,,,,,,,,,,,,,,,,,,,,,,,,,,,,,,,,,,,,,,,,,,,,,,,,,,,,,,,,,,,,,,,,,,,,,,,,,,,,,,,,,,,,,
,,673a1dcffde7de9c08f6d2e6,2026-03-17_14h31.13.678,kallum_motion_pilot_GIST_update_2,2026.1.1,Win32,59.88023952,673a1dcffde7de9c08f6d2e6,69b95efdef24cd8a694e89ee,69b960488d95a741f3adf43e,0.1132,0.1132,1,2,164,97,1,fiveseven,,,,,,,,,,,,,,,,,,,,,,,,,,,,,,,,,,,,,,,,,,,,,,,,,,,,,,,,,,,,,,,,,,,,,,,,,,,,,,,,,,,,,,,,,,,,,,,,,,,,,,,,,,,,,,,,,,,,,,,,,,,,,,,,,,,,,,,,,
,,673a1dcffde7de9c08f6d2e6,2026-03-17_14h31.13.678,kallum_motion_pilot_GIST_update_2,2026.1.1,Win32,59.88023952,673a1dcffde7de9c08f6d2e6,69b95efdef24cd8a694e89ee,69b960488d95a741f3adf43e,0.1136,0.1136,1,3,165,62,1,fourtwo,,,,,,,,,,,,,,,,,,,,,,,,,,,,,,,,,,,,,,,,,,,,,,,,,,,,,,,,,,,,,,,,,,,,,,,,,,,,,,,,,,,,,,,,,,,,,,,,,,,,,,,,,,,,,,,,,,,,,,,,,,,,,,,,,,,,,,,,,
,,673a1dcffde7de9c08f6d2e6,2026-03-17_14h31.13.678,kallum_motion_pilot_GIST_update_2,2026.1.1,Win32,59.88023952,673a1dcffde7de9c08f6d2e6,69b95efdef24cd8a694e89ee,69b960488d95a741f3adf43e,0.114,0.114,1,4,166,138,1,sixfive,,,,,,,,,,,,,,,,,,,,,,,,,,,,,,,,,,,,,,,,,,,,,,,,,,,,,,,,,,,,,,,,,,,,,,,,,,,,,,,,,,,,,,,,,,,,,,,,,,,,,,,,,,,,,,,,,,,,,,,,,,,,,,,,,,,,,,,,,
,,673a1dcffde7de9c08f6d2e6,2026-03-17_14h31.13.678,kallum_motion_pilot_GIST_update_2,2026.1.1,Win32,59.88023952,673a1dcffde7de9c08f6d2e6,69b95efdef24cd8a694e89ee,69b960488d95a741f3adf43e,0.1142,0.1142,1,5,167,65,1,onethree,,,,,,,,,,,,,,,,,,,,,,,,,,,,,,,,,,,,,,,,,,,,,,,,,,,,,,,,,,,,,,,,,,,,,,,,,,,,,,,,,,,,,,,,,,,,,,,,,,,,,,,,,,,,,,,,,,,,,,,,,,,,,,,,,,,,,,,,,
,,673a1dcffde7de9c08f6d2e6,2026-03-17_14h31.13.678,kallum_motion_pilot_GIST_update_2,2026.1.1,Win32,59.88023952,673a1dcffde7de9c08f6d2e6,69b95efdef24cd8a694e89ee,69b960488d95a741f3adf43e,0.1149,0.1149,1,6,168,109,1,seveneight,,,,,,,,,,,,,,,,,,,,,,,,,,,,,,,,,,,,,,,,,,,,,,,,,,,,,,,,,,,,,,,,,,,,,,,,,,,,,,,,,,,,,,,,,,,,,,,,,,,,,,,,,,,,,,,,,,,,,,,,,,,,,,,,,,,,,,,,,
,,673a1dcffde7de9c08f6d2e6,2026-03-17_14h31.13.678,kallum_motion_pilot_GIST_update_2,2026.1.1,Win32,59.88023952,673a1dcffde7de9c08f6d2e6,69b95efdef24cd8a694e89ee,69b960488d95a741f3adf43e,0.1155,0.1155,1,7,169,11,1,twofour,,,,,,,,,,,,,,,,,,,,,,,,,,,,,,,,,,,,,,,,,,,,,,,,,,,,,,,,,,,,,,,,,,,,,,,,,,,,,,,,,,,,,,,,,,,,,,,,,,,,,,,,,,,,,,,,,,,,,,,,,,,,,,,,,,,,,,,,,
,,673a1dcffde7de9c08f6d2e6,2026-03-17_14h31.13.678,kallum_motion_pilot_GIST_update_2,2026.1.1,Win32,59.88023952,673a1dcffde7de9c08f6d2e6,69b95efdef24cd8a694e89ee,69b960488d95a741f3adf43e,0.116,0.1161,1,8,170,145,1,fiveseven,,,,,,,,,,,,,,,,,,,,,,,,,,,,,,,,,,,,,,,,,,,,,,,,,,,,,,,,,,,,,,,,,,,,,,,,,,,,,,,,,,,,,,,,,,,,,,,,,,,,,,,,,,,,,,,,,,,,,,,,,,,,,,,,,,,,,,,,,
,,673a1dcffde7de9c08f6d2e6,2026-03-17_14h31.13.678,kallum_motion_pilot_GIST_update_2,2026.1.1,Win32,59.88023952,673a1dcffde7de9c08f6d2e6,69b95efdef24cd8a694e89ee,69b960488d95a741f3adf43e,0.1166,0.1166,1,9,171,134,1,eightsix,,,,,,,,,,,,,,,,,,,,,,,,,,,,,,,,,,,,,,,,,,,,,,,,,,,,,,,,,,,,,,,,,,,,,,,,,,,,,,,,,,,,,,,,,,,,,,,,,,,,,,,,,,,,,,,,,,,,,,,,,,,,,,,,,,,,,,,,,
,,673a1dcffde7de9c08f6d2e6,2026-03-17_14h31.13.678,kallum_motion_pilot_GIST_update_2,2026.1.1,Win32,59.88023952,673a1dcffde7de9c08f6d2e6,69b95efdef24cd8a694e89ee,69b960488d95a741f3adf43e,0.1171,0.1171,1,10,172,132,1,sevenfive,,,,,,,,,,,,,,,,,,,,,,,,,,,,,,,,,,,,,,,,,,,,,,,,,,,,,,,,,,,,,,,,,,,,,,,,,,,,,,,,,,,,,,,,,,,,,,,,,,,,,,,,,,,,,,,,,,,,,,,,,,,,,,,,,,,,,,,,,
,,673a1dcffde7de9c08f6d2e6,2026-03-17_14h31.13.678,kallum_motion_pilot_GIST_update_2,2026.1.1,Win32,59.88023952,673a1dcffde7de9c08f6d2e6,69b95efdef24cd8a694e89ee,69b960488d95a741f3adf43e,0.1176,0.1176,1,11,173,8,1,onetwo,,,,,,,,,,,,,,,,,,,,,,,,,,,,,,,,,,,,,,,,,,,,,,,,,,,,,,,,,,,,,,,,,,,,,,,,,,,,,,,,,,,,,,,,,,,,,,,,,,,,,,,,,,,,,,,,,,,,,,,,,,,,,,,,,,,,,,,,,
,,673a1dcffde7de9c08f6d2e6,2026-03-17_14h31.13.678,kallum_motion_pilot_GIST_update_2,2026.1.1,Win32,59.88023952,673a1dcffde7de9c08f6d2e6,69b95efdef24cd8a694e89ee,69b960488d95a741f3adf43e,0.1178,0.1179,1,12,174,47,1,fourthree,,,,,,,,,,,,,,,,,,,,,,,,,,,,,,,,,,,,,,,,,,,,,,,,,,,,,,,,,,,,,,,,,,,,,,,,,,,,,,,,,,,,,,,,,,,,,,,,,,,,,,,,,,,,,,,,,,,,,,,,,,,,,,,,,,,,,,,,,
,,673a1dcffde7de9c08f6d2e6,2026-03-17_14h31.13.678,kallum_motion_pilot_GIST_update_2,2026.1.1,Win32,59.88023952,673a1dcffde7de9c08f6d2e6,69b95efdef24cd8a694e89ee,69b960488d95a741f3adf43e,0.1182,0.1182,1,13,175,72,1,onetwo,,,,,,,,,,,,,,,,,,,,,,,,,,,,,,,,,,,,,,,,,,,,,,,,,,,,,,,,,,,,,,,,,,,,,,,,,,,,,,,,,,,,,,,,,,,,,,,,,,,,,,,,,,,,,,,,,,,,,,,,,,,,,,,,,,,,,,,,,
,,673a1dcffde7de9c08f6d2e6,2026-03-17_14h31.13.678,kallum_motion_pilot_GIST_update_2,2026.1.1,Win32,59.88023952,673a1dcffde7de9c08f6d2e6,69b95efdef24cd8a694e89ee,69b960488d95a741f3adf43e,0.1185,0.1185,1,14,176,57,1,onethree,,,,,,,,,,,,,,,,,,,,,,,,,,,,,,,,,,,,,,,,,,,,,,,,,,,,,,,,,,,,,,,,,,,,,,,,,,,,,,,,,,,,,,,,,,,,,,,,,,,,,,,,,,,,,,,,,,,,,,,,,,,,,,,,,,,,,,,,,
,,673a1dcffde7de9c08f6d2e6,2026-03-17_14h31.13.678,kallum_motion_pilot_GIST_update_2,2026.1.1,Win32,59.88023952,673a1dcffde7de9c08f6d2e6,69b95efdef24cd8a694e89ee,69b960488d95a741f3adf43e,0.1188,0.1188,1,15,177,159,1,eightseven,,,,,,,,,,,,,,,,,,,,,,,,,,,,,,,,,,,,,,,,,,,,,,,,,,,,,,,,,,,,,,,,,,,,,,,,,,,,,,,,,,,,,,,,,,,,,,,,,,,,,,,,,,,,,,,,,,,,,,,,,,,,,,,,,,,,,,,,,
,,673a1dcffde7de9c08f6d2e6,2026-03-17_14h31.13.678,kallum_motion_pilot_GIST_update_2,2026.1.1,Win32,59.88023952,673a1dcffde7de9c08f6d2e6,69b95efdef24cd8a694e89ee,69b960488d95a741f3adf43e,0.1191,0.1191,1,16,178,78,1,fourtwo,,,,,,,,,,,,,,,,,,,,,,,,,,,,,,,,,,,,,,,,,,,,,,,,,,,,,,,,,,,,,,,,,,,,,,,,,,,,,,,,,,,,,,,,,,,,,,,,,,,,,,,,,,,,,,,,,,,,,,,,,,,,,,,,,,,,,,,,,
,,673a1dcffde7de9c08f6d2e6,2026-03-17_14h31.13.678,kallum_motion_pilot_GIST_update_2,2026.1.1,Win32,59.88023952,673a1dcffde7de9c08f6d2e6,69b95efdef24cd8a694e89ee,69b960488d95a741f3adf43e,0.1194,0.1194,1,17,179,142,1,eightsix,,,,,,,,,,,,,,,,,,,,,,,,,,,,,,,,,,,,,,,,,,,,,,,,,,,,,,,,,,,,,,,,,,,,,,,,,,,,,,,,,,,,,,,,,,,,,,,,,,,,,,,,,,,,,,,,,,,,,,,,,,,,,,,,,,,,,,,,,
,,673a1dcffde7de9c08f6d2e6,2026-03-17_14h31.13.678,kallum_motion_pilot_GIST_update_2,2026.1.1,Win32,59.88023952,673a1dcffde7de9c08f6d2e6,69b95efdef24cd8a694e89ee,69b960488d95a741f3adf43e,0.1197,0.1197,1,18,180,114,1,sixfive,,,,,,,,,,,,,,,,,,,,,,,,,,,,,,,,,,,,,,,,,,,,,,,,,,,,,,,,,,,,,,,,,,,,,,,,,,,,,,,,,,,,,,,,,,,,,,,,,,,,,,,,,,,,,,,,,,,,,,,,,,,,,,,,,,,,,,,,,
,,673a1dcffde7de9c08f6d2e6,2026-03-17_14h31.13.678,kallum_motion_pilot_GIST_update_2,2026.1.1,Win32,59.88023952,673a1dcffde7de9c08f6d2e6,69b95efdef24cd8a694e89ee,69b960488d95a741f3adf43e,0.12,0.1201,1,19,181,154,1,sixfive,,,,,,,,,,,,,,,,,,,,,,,,,,,,,,,,,,,,,,,,,,,,,,,,,,,,,,,,,,,,,,,,,,,,,,,,,,,,,,,,,,,,,,,,,,,,,,,,,,,,,,,,,,,,,,,,,,,,,,,,,,,,,,,,,,,,,,,,,
,,673a1dcffde7de9c08f6d2e6,2026-03-17_14h31.13.678,kallum_motion_pilot_GIST_update_2,2026.1.1,Win32,59.88023952,673a1dcffde7de9c08f6d2e6,69b95efdef24cd8a694e89ee,69b960488d95a741f3adf43e,0.1204,0.1204,1,20,182,52,1,threeone,,,,,,,,,,,,,,,,,,,,,,,,,,,,,,,,,,,,,,,,,,,,,,,,,,,,,,,,,,,,,,,,,,,,,,,,,,,,,,,,,,,,,,,,,,,,,,,,,,,,,,,,,,,,,,,,,,,,,,,,,,,,,,,,,,,,,,,,,
,,673a1dcffde7de9c08f6d2e6,2026-03-17_14h31.13.678,kallum_motion_pilot_GIST_update_2,2026.1.1,Win32,59.88023952,673a1dcffde7de9c08f6d2e6,69b95efdef24cd8a694e89ee,69b960488d95a741f3adf43e,0.1208,0.1208,1,21,183,119,1,eightseven,,,,,,,,,,,,,,,,,,,,,,,,,,,,,,,,,,,,,,,,,,,,,,,,,,,,,,,,,,,,,,,,,,,,,,,,,,,,,,,,,,,,,,,,,,,,,,,,,,,,,,,,,,,,,,,,,,,,,,,,,,,,,,,,,,,,,,,,,
,,673a1dcffde7de9c08f6d2e6,2026-03-17_14h31.13.678,kallum_motion_pilot_GIST_update_2,2026.1.1,Win32,59.88023952,673a1dcffde7de9c08f6d2e6,69b95efdef24cd8a694e89ee,69b960488d95a741f3adf43e,0.1211,0.1212,1,22,184,73,1,onethree,,,,,,,,,,,,,,,,,,,,,,,,,,,,,,,,,,,,,,,,,,,,,,,,,,,,,,,,,,,,,,,,,,,,,,,,,,,,,,,,,,,,,,,,,,,,,,,,,,,,,,,,,,,,,,,,,,,,,,,,,,,,,,,,,,,,,,,,,
,,673a1dcffde7de9c08f6d2e6,2026-03-17_14h31.13.678,kallum_motion_pilot_GIST_update_2,2026.1.1,Win32,59.88023952,673a1dcffde7de9c08f6d2e6,69b95efdef24cd8a694e89ee,69b960488d95a741f3adf43e,0.1215,0.1215,1,23,185,91,1,sixeight,,,,,,,,,,,,,,,,,,,,,,,,,,,,,,,,,,,,,,,,,,,,,,,,,,,,,,,,,,,,,,,,,,,,,,,,,,,,,,,,,,,,,,,,,,,,,,,,,,,,,,,,,,,,,,,,,,,,,,,,,,,,,,,,,,,,,,,,,
,,673a1dcffde7de9c08f6d2e6,2026-03-17_14h31.13.678,kallum_motion_pilot_GIST_update_2,2026.1.1,Win32,59.88023952,673a1dcffde7de9c08f6d2e6,69b95efdef24cd8a694e89ee,69b960488d95a741f3adf43e,0.1218,0.1218,1,24,186,9,1,onethree,,,,,,,,,,,,,,,,,,,,,,,,,,,,,,,,,,,,,,,,,,,,,,,,,,,,,,,,,,,,,,,,,,,,,,,,,,,,,,,,,,,,,,,,,,,,,,,,,,,,,,,,,,,,,,,,,,,,,,,,,,,,,,,,,,,,,,,,,
,,673a1dcffde7de9c08f6d2e6,2026-03-17_14h31.13.678,kallum_motion_pilot_GIST_update_2,2026.1.1,Win32,59.88023952,673a1dcffde7de9c08f6d2e6,69b95efdef24cd8a694e89ee,69b960488d95a741f3adf43e,0.1223,0.1223,1,25,187,129,1,fiveseven,,,,,,,,,,,,,,,,,,,,,,,,,,,,,,,,,,,,,,,,,,,,,,,,,,,,,,,,,,,,,,,,,,,,,,,,,,,,,,,,,,,,,,,,,,,,,,,,,,,,,,,,,,,,,,,,,,,,,,,,,,,,,,,,,,,,,,,,,
,,673a1dcffde7de9c08f6d2e6,2026-03-17_14h31.13.678,kallum_motion_pilot_GIST_update_2,2026.1.1,Win32,59.88023952,673a1dcffde7de9c08f6d2e6,69b95efdef24cd8a694e89ee,69b960488d95a741f3adf43e,0.1228,0.1228,1,26,188,23,1,fourthree,,,,,,,,,,,,,,,,,,,,,,,,,,,,,,,,,,,,,,,,,,,,,,,,,,,,,,,,,,,,,,,,,,,,,,,,,,,,,,,,,,,,,,,,,,,,,,,,,,,,,,,,,,,,,,,,,,,,,,,,,,,,,,,,,,,,,,,,,
,,673a1dcffde7de9c08f6d2e6,2026-03-17_14h31.13.678,kallum_motion_pilot_GIST_update_2,2026.1.1,Win32,59.88023952,673a1dcffde7de9c08f6d2e6,69b95efdef24cd8a694e89ee,69b960488d95a741f3adf43e,0.1231,0.1231,1,27,189,98,1,sixfive,,,,,,,,,,,,,,,,,,,,,,,,,,,,,,,,,,,,,,,,,,,,,,,,,,,,,,,,,,,,,,,,,,,,,,,,,,,,,,,,,,,,,,,,,,,,,,,,,,,,,,,,,,,,,,,,,,,,,,,,,,,,,,,,,,,,,,,,,
,,673a1dcffde7de9c08f6d2e6,2026-03-17_14h31.13.678,kallum_motion_pilot_GIST_update_2,2026.1.1,Win32,59.88023952,673a1dcffde7de9c08f6d2e6,69b95efdef24cd8a694e89ee,69b960488d95a741f3adf43e,0.1236,0.1236,1,28,190,69,1,threefour,,,,,,,,,,,,,,,,,,,,,,,,,,,,,,,,,,,,,,,,,,,,,,,,,,,,,,,,,,,,,,,,,,,,,,,,,,,,,,,,,,,,,,,,,,,,,,,,,,,,,,,,,,,,,,,,,,,,,,,,,,,,,,,,,,,,,,,,,
,,673a1dcffde7de9c08f6d2e6,2026-03-17_14h31.13.678,kallum_motion_pilot_GIST_update_2,2026.1.1,Win32,59.88023952,673a1dcffde7de9c08f6d2e6,69b95efdef24cd8a694e89ee,69b960488d95a741f3adf43e,0.1241,0.1241,1,29,191,90,1,sixfive,,,,,,,,,,,,,,,,,,,,,,,,,,,,,,,,,,,,,,,,,,,,,,,,,,,,,,,,,,,,,,,,,,,,,,,,,,,,,,,,,,,,,,,,,,,,,,,,,,,,,,,,,,,,,,,,,,,,,,,,,,,,,,,,,,,,,,,,,
,,673a1dcffde7de9c08f6d2e6,2026-03-17_14h31.13.678,kallum_motion_pilot_GIST_update_2,2026.1.1,Win32,59.88023952,673a1dcffde7de9c08f6d2e6,69b95efdef24cd8a694e89ee,69b960488d95a741f3adf43e,0.1245,0.1245,1,30,192,121,1,fiveseven,,,,,,,,,,,,,,,,,,,,,,,,,,,,,,,,,,,,,,,,,,,,,,,,,,,,,,,,,,,,,,,,,,,,,,,,,,,,,,,,,,,,,,,,,,,,,,,,,,,,,,,,,,,,,,,,,,,,,,,,,,,,,,,,,,,,,,,,,
,,673a1dcffde7de9c08f6d2e6,2026-03-17_14h31.13.678,kallum_motion_pilot_GIST_update_2,2026.1.1,Win32,59.88023952,673a1dcffde7de9c08f6d2e6,69b95efdef24cd8a694e89ee,69b960488d95a741f3adf43e,0.1248,0.1248,1,31,193,50,1,twoone,,,,,,,,,,,,,,,,,,,,,,,,,,,,,,,,,,,,,,,,,,,,,,,,,,,,,,,,,,,,,,,,,,,,,,,,,,,,,,,,,,,,,,,,,,,,,,,,,,,,,,,,,,,,,,,,,,,,,,,,,,,,,,,,,,,,,,,,,
,,673a1dcffde7de9c08f6d2e6,2026-03-17_14h31.13.678,kallum_motion_pilot_GIST_update_2,2026.1.1,Win32,59.88023952,673a1dcffde7de9c08f6d2e6,69b95efdef24cd8a694e89ee,69b960488d95a741f3adf43e,0.1254,0.1254,1,32,194,30,1,fourtwo,,,,,,,,,,,,,,,,,,,,,,,,,,,,,,,,,,,,,,,,,,,,,,,,,,,,,,,,,,,,,,,,,,,,,,,,,,,,,,,,,,,,,,,,,,,,,,,,,,,,,,,,,,,,,,,,,,,,,,,,,,,,,,,,,,,,,,,,,
,,673a1dcffde7de9c08f6d2e6,2026-03-17_14h31.13.678,kallum_motion_pilot_GIST_update_2,2026.1.1,Win32,59.88023952,673a1dcffde7de9c08f6d2e6,69b95efdef24cd8a694e89ee,69b960488d95a741f3adf43e,0.126,0.126,1,33,195,20,1,threeone,,,,,,,,,,,,,,,,,,,,,,,,,,,,,,,,,,,,,,,,,,,,,,,,,,,,,,,,,,,,,,,,,,,,,,,,,,,,,,,,,,,,,,,,,,,,,,,,,,,,,,,,,,,,,,,,,,,,,,,,,,,,,,,,,,,,,,,,,
,,673a1dcffde7de9c08f6d2e6,2026-03-17_14h31.13.678,kallum_motion_pilot_GIST_update_2,2026.1.1,Win32,59.88023952,673a1dcffde7de9c08f6d2e6,69b95efdef24cd8a694e89ee,69b960488d95a741f3adf43e,0.1264,0.1264,1,34,196,79,1,eightseven,,,,,,,,,,,,,,,,,,,,,,,,,,,,,,,,,,,,,,,,,,,,,,,,,,,,,,,,,,,,,,,,,,,,,,,,,,,,,,,,,,,,,,,,,,,,,,,,,,,,,,,,,,,,,,,,,,,,,,,,,,,,,,,,,,,,,,,,,
,,673a1dcffde7de9c08f6d2e6,2026-03-17_14h31.13.678,kallum_motion_pilot_GIST_update_2,2026.1.1,Win32,59.88023952,673a1dcffde7de9c08f6d2e6,69b95efdef24cd8a694e89ee,69b960488d95a741f3adf43e,0.1269,0.1269,1,35,197,43,1,twofour,,,,,,,,,,,,,,,,,,,,,,,,,,,,,,,,,,,,,,,,,,,,,,,,,,,,,,,,,,,,,,,,,,,,,,,,,,,,,,,,,,,,,,,,,,,,,,,,,,,,,,,,,,,,,,,,,,,,,,,,,,,,,,,,,,,,,,,,,
,,673a1dcffde7de9c08f6d2e6,2026-03-17_14h31.13.678,kallum_motion_pilot_GIST_update_2,2026.1.1,Win32,59.88023952,673a1dcffde7de9c08f6d2e6,69b95efdef24cd8a694e89ee,69b960488d95a741f3adf43e,0.1273,0.1273,1,36,198,113,1,fiveseven,,,,,,,,,,,,,,,,,,,,,,,,,,,,,,,,,,,,,,,,,,,,,,,,,,,,,,,,,,,,,,,,,,,,,,,,,,,,,,,,,,,,,,,,,,,,,,,,,,,,,,,,,,,,,,,,,,,,,,,,,,,,,,,,,,,,,,,,,
,,673a1dcffde7de9c08f6d2e6,2026-03-17_14h31.13.678,kallum_motion_pilot_GIST_update_2,2026.1.1,Win32,59.88023952,673a1dcffde7de9c08f6d2e6,69b95efdef24cd8a694e89ee,69b960488d95a741f3adf43e,0.1277,0.1277,1,37,199,18,1,twoone,,,,,,,,,,,,,,,,,,,,,,,,,,,,,,,,,,,,,,,,,,,,,,,,,,,,,,,,,,,,,,,,,,,,,,,,,,,,,,,,,,,,,,,,,,,,,,,,,,,,,,,,,,,,,,,,,,,,,,,,,,,,,,,,,,,,,,,,,
,,673a1dcffde7de9c08f6d2e6,2026-03-17_14h31.13.678,kallum_motion_pilot_GIST_update_2,2026.1.1,Win32,59.88023952,673a1dcffde7de9c08f6d2e6,69b95efdef24cd8a694e89ee,69b960488d95a741f3adf43e,0.128,0.128,1,38,200,53,1,threefour,,,,,,,,,,,,,,,,,,,,,,,,,,,,,,,,,,,,,,,,,,,,,,,,,,,,,,,,,,,,,,,,,,,,,,,,,,,,,,,,,,,,,,,,,,,,,,,,,,,,,,,,,,,,,,,,,,,,,,,,,,,,,,,,,,,,,,,,,
,,673a1dcffde7de9c08f6d2e6,2026-03-17_14h31.13.678,kallum_motion_pilot_GIST_update_2,2026.1.1,Win32,59.88023952,673a1dcffde7de9c08f6d2e6,69b95efdef24cd8a694e89ee,69b960488d95a741f3adf43e,0.1285,0.1285,1,39,201,116,1,sevenfive,,,,,,,,,,,,,,,,,,,,,,,,,,,,,,,,,,,,,,,,,,,,,,,,,,,,,,,,,,,,,,,,,,,,,,,,,,,,,,,,,,,,,,,,,,,,,,,,,,,,,,,,,,,,,,,,,,,,,,,,,,,,,,,,,,,,,,,,,
,,673a1dcffde7de9c08f6d2e6,2026-03-17_14h31.13.678,kallum_motion_pilot_GIST_update_2,2026.1.1,Win32,59.88023952,673a1dcffde7de9c08f6d2e6,69b95efdef24cd8a694e89ee,69b960488d95a741f3adf43e,0.1288,0.1289,1,40,202,156,1,sevenfive,,,,,,,,,,,,,,,,,,,,,,,,,,,,,,,,,,,,,,,,,,,,,,,,,,,,,,,,,,,,,,,,,,,,,,,,,,,,,,,,,,,,,,,,,,,,,,,,,,,,,,,,,,,,,,,,,,,,,,,,,,,,,,,,,,,,,,,,,
,,673a1dcffde7de9c08f6d2e6,2026-03-17_14h31.13.678,kallum_motion_pilot_GIST_update_2,2026.1.1,Win32,59.88023952,673a1dcffde7de9c08f6d2e6,69b95efdef24cd8a694e89ee,69b960488d95a741f3adf43e,0.1293,0.1293,1,41,203,29,1,threefour,,,,,,,,,,,,,,,,,,,,,,,,,,,,,,,,,,,,,,,,,,,,,,,,,,,,,,,,,,,,,,,,,,,,,,,,,,,,,,,,,,,,,,,,,,,,,,,,,,,,,,,,,,,,,,,,,,,,,,,,,,,,,,,,,,,,,,,,,
,,673a1dcffde7de9c08f6d2e6,2026-03-17_14h31.13.678,kallum_motion_pilot_GIST_update_2,2026.1.1,Win32,59.88023952,673a1dcffde7de9c08f6d2e6,69b95efdef24cd8a694e89ee,69b960488d95a741f3adf43e,0.1296,0.1296,1,42,204,16,1,onetwo,,,,,,,,,,,,,,,,,,,,,,,,,,,,,,,,,,,,,,,,,,,,,,,,,,,,,,,,,,,,,,,,,,,,,,,,,,,,,,,,,,,,,,,,,,,,,,,,,,,,,,,,,,,,,,,,,,,,,,,,,,,,,,,,,,,,,,,,,
,,673a1dcffde7de9c08f6d2e6,2026-03-17_14h31.13.678,kallum_motion_pilot_GIST_update_2,2026.1.1,Win32,59.88023952,673a1dcffde7de9c08f6d2e6,69b95efdef24cd8a694e89ee,69b960488d95a741f3adf43e,0.1301,0.1301,1,43,205,157,1,seveneight,,,,,,,,,,,,,,,,,,,,,,,,,,,,,,,,,,,,,,,,,,,,,,,,,,,,,,,,,,,,,,,,,,,,,,,,,,,,,,,,,,,,,,,,,,,,,,,,,,,,,,,,,,,,,,,,,,,,,,,,,,,,,,,,,,,,,,,,,
,,673a1dcffde7de9c08f6d2e6,2026-03-17_14h31.13.678,kallum_motion_pilot_GIST_update_2,2026.1.1,Win32,59.88023952,673a1dcffde7de9c08f6d2e6,69b95efdef24cd8a694e89ee,69b960488d95a741f3adf43e,0.1306,0.1306,1,44,206,0,1,onetwo,,,,,,,,,,,,,,,,,,,,,,,,,,,,,,,,,,,,,,,,,,,,,,,,,,,,,,,,,,,,,,,,,,,,,,,,,,,,,,,,,,,,,,,,,,,,,,,,,,,,,,,,,,,,,,,,,,,,,,,,,,,,,,,,,,,,,,,,,
,,673a1dcffde7de9c08f6d2e6,2026-03-17_14h31.13.678,kallum_motion_pilot_GIST_update_2,2026.1.1,Win32,59.88023952,673a1dcffde7de9c08f6d2e6,69b95efdef24cd8a694e89ee,69b960488d95a741f3adf43e,0.131,0.131,1,45,207,68,1,threeone,,,,,,,,,,,,,,,,,,,,,,,,,,,,,,,,,,,,,,,,,,,,,,,,,,,,,,,,,,,,,,,,,,,,,,,,,,,,,,,,,,,,,,,,,,,,,,,,,,,,,,,,,,,,,,,,,,,,,,,,,,,,,,,,,,,,,,,,,
,,673a1dcffde7de9c08f6d2e6,2026-03-17_14h31.13.678,kallum_motion_pilot_GIST_update_2,2026.1.1,Win32,59.88023952,673a1dcffde7de9c08f6d2e6,69b95efdef24cd8a694e89ee,69b960488d95a741f3adf43e,0.1312,0.1312,1,46,208,136,1,fivesix,,,,,,,,,,,,,,,,,,,,,,,,,,,,,,,,,,,,,,,,,,,,,,,,,,,,,,,,,,,,,,,,,,,,,,,,,,,,,,,,,,,,,,,,,,,,,,,,,,,,,,,,,,,,,,,,,,,,,,,,,,,,,,,,,,,,,,,,,
,,673a1dcffde7de9c08f6d2e6,2026-03-17_14h31.13.678,kallum_motion_pilot_GIST_update_2,2026.1.1,Win32,59.88023952,673a1dcffde7de9c08f6d2e6,69b95efdef24cd8a694e89ee,69b960488d95a741f3adf43e,0.1315,0.1315,1,47,209,13,1,threefour,,,,,,,,,,,,,,,,,,,,,,,,,,,,,,,,,,,,,,,,,,,,,,,,,,,,,,,,,,,,,,,,,,,,,,,,,,,,,,,,,,,,,,,,,,,,,,,,,,,,,,,,,,,,,,,,,,,,,,,,,,,,,,,,,,,,,,,,,
,,673a1dcffde7de9c08f6d2e6,2026-03-17_14h31.13.678,kallum_motion_pilot_GIST_update_2,2026.1.1,Win32,59.88023952,673a1dcffde7de9c08f6d2e6,69b95efdef24cd8a694e89ee,69b960488d95a741f3adf43e,0.1319,0.1319,1,48,210,24,1,onetwo,,,,,,,,,,,,,,,,,,,,,,,,,,,,,,,,,,,,,,,,,,,,,,,,,,,,,,,,,,,,,,,,,,,,,,,,,,,,,,,,,,,,,,,,,,,,,,,,,,,,,,,,,,,,,,,,,,,,,,,,,,,,,,,,,,,,,,,,,
,,673a1dcffde7de9c08f6d2e6,2026-03-17_14h31.13.678,kallum_motion_pilot_GIST_update_2,2026.1.1,Win32,59.88023952,673a1dcffde7de9c08f6d2e6,69b95efdef24cd8a694e89ee,69b960488d95a741f3adf43e,0.1324,0.1324,1,49,211,141,1,seveneight,,,,,,,,,,,,,,,,,,,,,,,,,,,,,,,,,,,,,,,,,,,,,,,,,,,,,,,,,,,,,,,,,,,,,,,,,,,,,,,,,,,,,,,,,,,,,,,,,,,,,,,,,,,,,,,,,,,,,,,,,,,,,,,,,,,,,,,,,
,,673a1dcffde7de9c08f6d2e6,2026-03-17_14h31.13.678,kallum_motion_pilot_GIST_update_2,2026.1.1,Win32,59.88023952,673a1dcffde7de9c08f6d2e6,69b95efdef24cd8a694e89ee,69b960488d95a741f3adf43e,0.1328,0.1328,1,50,212,15,1,fourthree,,,,,,,,,,,,,,,,,,,,,,,,,,,,,,,,,,,,,,,,,,,,,,,,,,,,,,,,,,,,,,,,,,,,,,,,,,,,,,,,,,,,,,,,,,,,,,,,,,,,,,,,,,,,,,,,,,,,,,,,,,,,,,,,,,,,,,,,,
,,673a1dcffde7de9c08f6d2e6,2026-03-17_14h31.13.678,kallum_motion_pilot_GIST_update_2,2026.1.1,Win32,59.88023952,673a1dcffde7de9c08f6d2e6,69b95efdef24cd8a694e89ee,69b960488d95a741f3adf43e,0.1334,0.1334,1,51,213,32,1,onetwo,,,,,,,,,,,,,,,,,,,,,,,,,,,,,,,,,,,,,,,,,,,,,,,,,,,,,,,,,,,,,,,,,,,,,,,,,,,,,,,,,,,,,,,,,,,,,,,,,,,,,,,,,,,,,,,,,,,,,,,,,,,,,,,,,,,,,,,,,
,,673a1dcffde7de9c08f6d2e6,2026-03-17_14h31.13.678,kallum_motion_pilot_GIST_update_2,2026.1.1,Win32,59.88023952,673a1dcffde7de9c08f6d2e6,69b95efdef24cd8a694e89ee,69b960488d95a741f3adf43e,0.1338,0.1339,1,52,214,63,1,fourthree,,,,,,,,,,,,,,,,,,,,,,,,,,,,,,,,,,,,,,,,,,,,,,,,,,,,,,,,,,,,,,,,,,,,,,,,,,,,,,,,,,,,,,,,,,,,,,,,,,,,,,,,,,,,,,,,,,,,,,,,,,,,,,,,,,,,,,,,,
,,673a1dcffde7de9c08f6d2e6,2026-03-17_14h31.13.678,kallum_motion_pilot_GIST_update_2,2026.1.1,Win32,59.88023952,673a1dcffde7de9c08f6d2e6,69b95efdef24cd8a694e89ee,69b960488d95a741f3adf43e,0.1342,0.1342,1,53,215,54,1,fourtwo,,,,,,,,,,,,,,,,,,,,,,,,,,,,,,,,,,,,,,,,,,,,,,,,,,,,,,,,,,,,,,,,,,,,,,,,,,,,,,,,,,,,,,,,,,,,,,,,,,,,,,,,,,,,,,,,,,,,,,,,,,,,,,,,,,,,,,,,,
,,673a1dcffde7de9c08f6d2e6,2026-03-17_14h31.13.678,kallum_motion_pilot_GIST_update_2,2026.1.1,Win32,59.88023952,673a1dcffde7de9c08f6d2e6,69b95efdef24cd8a694e89ee,69b960488d95a741f3adf43e,0.1346,0.1346,1,54,216,25,1,onethree,,,,,,,,,,,,,,,,,,,,,,,,,,,,,,,,,,,,,,,,,,,,,,,,,,,,,,,,,,,,,,,,,,,,,,,,,,,,,,,,,,,,,,,,,,,,,,,,,,,,,,,,,,,,,,,,,,,,,,,,,,,,,,,,,,,,,,,,,
,,673a1dcffde7de9c08f6d2e6,2026-03-17_14h31.13.678,kallum_motion_pilot_GIST_update_2,2026.1.1,Win32,59.88023952,673a1dcffde7de9c08f6d2e6,69b95efdef24cd8a694e89ee,69b960488d95a741f3adf43e,0.1351,0.1351,1,55,217,4,1,threeone,,,,,,,,,,,,,,,,,,,,,,,,,,,,,,,,,,,,,,,,,,,,,,,,,,,,,,,,,,,,,,,,,,,,,,,,,,,,,,,,,,,,,,,,,,,,,,,,,,,,,,,,,,,,,,,,,,,,,,,,,,,,,,,,,,,,,,,,,
,,673a1dcffde7de9c08f6d2e6,2026-03-17_14h31.13.678,kallum_motion_pilot_GIST_update_2,2026.1.1,Win32,59.88023952,673a1dcffde7de9c08f6d2e6,69b95efdef24cd8a694e89ee,69b960488d95a741f3adf43e,0.1355,0.1355,1,56,218,137,1,fiveseven,,,,,,,,,,,,,,,,,,,,,,,,,,,,,,,,,,,,,,,,,,,,,,,,,,,,,,,,,,,,,,,,,,,,,,,,,,,,,,,,,,,,,,,,,,,,,,,,,,,,,,,,,,,,,,,,,,,,,,,,,,,,,,,,,,,,,,,,,
,,673a1dcffde7de9c08f6d2e6,2026-03-17_14h31.13.678,kallum_motion_pilot_GIST_update_2,2026.1.1,Win32,59.88023952,673a1dcffde7de9c08f6d2e6,69b95efdef24cd8a694e89ee,69b960488d95a741f3adf43e,0.1359,0.1359,1,57,219,127,1,eightseven,,,,,,,,,,,,,,,,,,,,,,,,,,,,,,,,,,,,,,,,,,,,,,,,,,,,,,,,,,,,,,,,,,,,,,,,,,,,,,,,,,,,,,,,,,,,,,,,,,,,,,,,,,,,,,,,,,,,,,,,,,,,,,,,,,,,,,,,,
,,673a1dcffde7de9c08f6d2e6,2026-03-17_14h31.13.678,kallum_motion_pilot_GIST_update_2,2026.1.1,Win32,59.88023952,673a1dcffde7de9c08f6d2e6,69b95efdef24cd8a694e89ee,69b960488d95a741f3adf43e,0.1362,0.1363,1,58,220,120,1,fivesix,,,,,,,,,,,,,,,,,,,,,,,,,,,,,,,,,,,,,,,,,,,,,,,,,,,,,,,,,,,,,,,,,,,,,,,,,,,,,,,,,,,,,,,,,,,,,,,,,,,,,,,,,,,,,,,,,,,,,,,,,,,,,,,,,,,,,,,,,
,,673a1dcffde7de9c08f6d2e6,2026-03-17_14h31.13.678,kallum_motion_pilot_GIST_update_2,2026.1.1,Win32,59.88023952,673a1dcffde7de9c08f6d2e6,69b95efdef24cd8a694e89ee,69b960488d95a741f3adf43e,0.1367,0.1367,1,59,221,60,1,threeone,,,,,,,,,,,,,,,,,,,,,,,,,,,,,,,,,,,,,,,,,,,,,,,,,,,,,,,,,,,,,,,,,,,,,,,,,,,,,,,,,,,,,,,,,,,,,,,,,,,,,,,,,,,,,,,,,,,,,,,,,,,,,,,,,,,,,,,,,
,,673a1dcffde7de9c08f6d2e6,2026-03-17_14h31.13.678,kallum_motion_pilot_GIST_update_2,2026.1.1,Win32,59.88023952,673a1dcffde7de9c08f6d2e6,69b95efdef24cd8a694e89ee,69b960488d95a741f3adf43e,0.137,0.137,1,60,222,55,1,fourthree,,,,,,,,,,,,,,,,,,,,,,,,,,,,,,,,,,,,,,,,,,,,,,,,,,,,,,,,,,,,,,,,,,,,,,,,,,,,,,,,,,,,,,,,,,,,,,,,,,,,,,,,,,,,,,,,,,,,,,,,,,,,,,,,,,,,,,,,,
,,673a1dcffde7de9c08f6d2e6,2026-03-17_14h31.13.678,kallum_motion_pilot_GIST_update_2,2026.1.1,Win32,59.88023952,673a1dcffde7de9c08f6d2e6,69b95efdef24cd8a694e89ee,69b960488d95a741f3adf43e,0.1373,0.1373,1,61,223,3,1,twofour,,,,,,,,,,,,,,,,,,,,,,,,,,,,,,,,,,,,,,,,,,,,,,,,,,,,,,,,,,,,,,,,,,,,,,,,,,,,,,,,,,,,,,,,,,,,,,,,,,,,,,,,,,,,,,,,,,,,,,,,,,,,,,,,,,,,,,,,,
,,673a1dcffde7de9c08f6d2e6,2026-03-17_14h31.13.678,kallum_motion_pilot_GIST_update_2,2026.1.1,Win32,59.88023952,673a1dcffde7de9c08f6d2e6,69b95efdef24cd8a694e89ee,69b960488d95a741f3adf43e,0.1377,0.1377,1,62,224,75,1,twofour,,,,,,,,,,,,,,,,,,,,,,,,,,,,,,,,,,,,,,,,,,,,,,,,,,,,,,,,,,,,,,,,,,,,,,,,,,,,,,,,,,,,,,,,,,,,,,,,,,,,,,,,,,,,,,,,,,,,,,,,,,,,,,,,,,,,,,,,,
,,673a1dcffde7de9c08f6d2e6,2026-03-17_14h31.13.678,kallum_motion_pilot_GIST_update_2,2026.1.1,Win32,59.88023952,673a1dcffde7de9c08f6d2e6,69b95efdef24cd8a694e89ee,69b960488d95a741f3adf43e,0.138,0.1381,1,63,225,2,1,twoone,,,,,,,,,,,,,,,,,,,,,,,,,,,,,,,,,,,,,,,,,,,,,,,,,,,,,,,,,,,,,,,,,,,,,,,,,,,,,,,,,,,,,,,,,,,,,,,,,,,,,,,,,,,,,,,,,,,,,,,,,,,,,,,,,,,,,,,,,
,,673a1dcffde7de9c08f6d2e6,2026-03-17_14h31.13.678,kallum_motion_pilot_GIST_update_2,2026.1.1,Win32,59.88023952,673a1dcffde7de9c08f6d2e6,69b95efdef24cd8a694e89ee,69b960488d95a741f3adf43e,0.1385,0.1385,1,64,226,81,1,fiveseven,,,,,,,,,,,,,,,,,,,,,,,,,,,,,,,,,,,,,,,,,,,,,,,,,,,,,,,,,,,,,,,,,,,,,,,,,,,,,,,,,,,,,,,,,,,,,,,,,,,,,,,,,,,,,,,,,,,,,,,,,,,,,,,,,,,,,,,,,
,,673a1dcffde7de9c08f6d2e6,2026-03-17_14h31.13.678,kallum_motion_pilot_GIST_update_2,2026.1.1,Win32,59.88023952,673a1dcffde7de9c08f6d2e6,69b95efdef24cd8a694e89ee,69b960488d95a741f3adf43e,0.139,0.139,1,65,227,100,1,sevenfive,,,,,,,,,,,,,,,,,,,,,,,,,,,,,,,,,,,,,,,,,,,,,,,,,,,,,,,,,,,,,,,,,,,,,,,,,,,,,,,,,,,,,,,,,,,,,,,,,,,,,,,,,,,,,,,,,,,,,,,,,,,,,,,,,,,,,,,,,
,,673a1dcffde7de9c08f6d2e6,2026-03-17_14h31.13.678,kallum_motion_pilot_GIST_update_2,2026.1.1,Win32,59.88023952,673a1dcffde7de9c08f6d2e6,69b95efdef24cd8a694e89ee,69b960488d95a741f3adf43e,0.1393,0.1394,1,66,228,37,1,threefour,,,,,,,,,,,,,,,,,,,,,,,,,,,,,,,,,,,,,,,,,,,,,,,,,,,,,,,,,,,,,,,,,,,,,,,,,,,,,,,,,,,,,,,,,,,,,,,,,,,,,,,,,,,,,,,,,,,,,,,,,,,,,,,,,,,,,,,,,
,,673a1dcffde7de9c08f6d2e6,2026-03-17_14h31.13.678,kallum_motion_pilot_GIST_update_2,2026.1.1,Win32,59.88023952,673a1dcffde7de9c08f6d2e6,69b95efdef24cd8a694e89ee,69b960488d95a741f3adf43e,0.1398,0.1398,1,67,229,66,1,twoone,,,,,,,,,,,,,,,,,,,,,,,,,,,,,,,,,,,,,,,,,,,,,,,,,,,,,,,,,,,,,,,,,,,,,,,,,,,,,,,,,,,,,,,,,,,,,,,,,,,,,,,,,,,,,,,,,,,,,,,,,,,,,,,,,,,,,,,,,
,,673a1dcffde7de9c08f6d2e6,2026-03-17_14h31.13.678,kallum_motion_pilot_GIST_update_2,2026.1.1,Win32,59.88023952,673a1dcffde7de9c08f6d2e6,69b95efdef24cd8a694e89ee,69b960488d95a741f3adf43e,0.1402,0.1402,1,68,230,115,1,sixeight,,,,,,,,,,,,,,,,,,,,,,,,,,,,,,,,,,,,,,,,,,,,,,,,,,,,,,,,,,,,,,,,,,,,,,,,,,,,,,,,,,,,,,,,,,,,,,,,,,,,,,,,,,,,,,,,,,,,,,,,,,,,,,,,,,,,,,,,,
,,673a1dcffde7de9c08f6d2e6,2026-03-17_14h31.13.678,kallum_motion_pilot_GIST_update_2,2026.1.1,Win32,59.88023952,673a1dcffde7de9c08f6d2e6,69b95efdef24cd8a694e89ee,69b960488d95a741f3adf43e,0.1406,0.1406,1,69,231,99,1,sixeight,,,,,,,,,,,,,,,,,,,,,,,,,,,,,,,,,,,,,,,,,,,,,,,,,,,,,,,,,,,,,,,,,,,,,,,,,,,,,,,,,,,,,,,,,,,,,,,,,,,,,,,,,,,,,,,,,,,,,,,,,,,,,,,,,,,,,,,,,
,,673a1dcffde7de9c08f6d2e6,2026-03-17_14h31.13.678,kallum_motion_pilot_GIST_update_2,2026.1.1,Win32,59.88023952,673a1dcffde7de9c08f6d2e6,69b95efdef24cd8a694e89ee,69b960488d95a741f3adf43e,0.1411,0.1411,1,70,232,153,1,fiveseven,,,,,,,,,,,,,,,,,,,,,,,,,,,,,,,,,,,,,,,,,,,,,,,,,,,,,,,,,,,,,,,,,,,,,,,,,,,,,,,,,,,,,,,,,,,,,,,,,,,,,,,,,,,,,,,,,,,,,,,,,,,,,,,,,,,,,,,,,
,,673a1dcffde7de9c08f6d2e6,2026-03-17_14h31.13.678,kallum_motion_pilot_GIST_update_2,2026.1.1,Win32,59.88023952,673a1dcffde7de9c08f6d2e6,69b95efdef24cd8a694e89ee,69b960488d95a741f3adf43e,0.1416,0.1416,1,71,233,14,1,fourtwo,,,,,,,,,,,,,,,,,,,,,,,,,,,,,,,,,,,,,,,,,,,,,,,,,,,,,,,,,,,,,,,,,,,,,,,,,,,,,,,,,,,,,,,,,,,,,,,,,,,,,,,,,,,,,,,,,,,,,,,,,,,,,,,,,,,,,,,,,
,,673a1dcffde7de9c08f6d2e6,2026-03-17_14h31.13.678,kallum_motion_pilot_GIST_update_2,2026.1.1,Win32,59.88023952,673a1dcffde7de9c08f6d2e6,69b95efdef24cd8a694e89ee,69b960488d95a741f3adf43e,0.142,0.142,1,72,234,148,1,sevenfive,,,,,,,,,,,,,,,,,,,,,,,,,,,,,,,,,,,,,,,,,,,,,,,,,,,,,,,,,,,,,,,,,,,,,,,,,,,,,,,,,,,,,,,,,,,,,,,,,,,,,,,,,,,,,,,,,,,,,,,,,,,,,,,,,,,,,,,,,
,,673a1dcffde7de9c08f6d2e6,2026-03-17_14h31.13.678,kallum_motion_pilot_GIST_update_2,2026.1.1,Win32,59.88023952,673a1dcffde7de9c08f6d2e6,69b95efdef24cd8a694e89ee,69b960488d95a741f3adf43e,0.1426,0.1426,1,73,235,34,1,twoone,,,,,,,,,,,,,,,,,,,,,,,,,,,,,,,,,,,,,,,,,,,,,,,,,,,,,,,,,,,,,,,,,,,,,,,,,,,,,,,,,,,,,,,,,,,,,,,,,,,,,,,,,,,,,,,,,,,,,,,,,,,,,,,,,,,,,,,,,
,,673a1dcffde7de9c08f6d2e6,2026-03-17_14h31.13.678,kallum_motion_pilot_GIST_update_2,2026.1.1,Win32,59.88023952,673a1dcffde7de9c08f6d2e6,69b95efdef24cd8a694e89ee,69b960488d95a741f3adf43e,0.1431,0.1432,1,74,236,133,1,seveneight,,,,,,,,,,,,,,,,,,,,,,,,,,,,,,,,,,,,,,,,,,,,,,,,,,,,,,,,,,,,,,,,,,,,,,,,,,,,,,,,,,,,,,,,,,,,,,,,,,,,,,,,,,,,,,,,,,,,,,,,,,,,,,,,,,,,,,,,,
,,673a1dcffde7de9c08f6d2e6,2026-03-17_14h31.13.678,kallum_motion_pilot_GIST_update_2,2026.1.1,Win32,59.88023952,673a1dcffde7de9c08f6d2e6,69b95efdef24cd8a694e89ee,69b960488d95a741f3adf43e,0.1437,0.1437,1,75,237,128,1,fivesix,,,,,,,,,,,,,,,,,,,,,,,,,,,,,,,,,,,,,,,,,,,,,,,,,,,,,,,,,,,,,,,,,,,,,,,,,,,,,,,,,,,,,,,,,,,,,,,,,,,,,,,,,,,,,,,,,,,,,,,,,,,,,,,,,,,,,,,,,
,,673a1dcffde7de9c08f6d2e6,2026-03-17_14h31.13.678,kallum_motion_pilot_GIST_update_2,2026.1.1,Win32,59.88023952,673a1dcffde7de9c08f6d2e6,69b95efdef24cd8a694e89ee,69b960488d95a741f3adf43e,0.144,0.144,1,76,238,152,1,fivesix,,,,,,,,,,,,,,,,,,,,,,,,,,,,,,,,,,,,,,,,,,,,,,,,,,,,,,,,,,,,,,,,,,,,,,,,,,,,,,,,,,,,,,,,,,,,,,,,,,,,,,,,,,,,,,,,,,,,,,,,,,,,,,,,,,,,,,,,,
,,673a1dcffde7de9c08f6d2e6,2026-03-17_14h31.13.678,kallum_motion_pilot_GIST_update_2,2026.1.1,Win32,59.88023952,673a1dcffde7de9c08f6d2e6,69b95efdef24cd8a694e89ee,69b960488d95a741f3adf43e,0.1443,0.1443,1,77,239,87,1,eightseven,,,,,,,,,,,,,,,,,,,,,,,,,,,,,,,,,,,,,,,,,,,,,,,,,,,,,,,,,,,,,,,,,,,,,,,,,,,,,,,,,,,,,,,,,,,,,,,,,,,,,,,,,,,,,,,,,,,,,,,,,,,,,,,,,,,,,,,,,
,,673a1dcffde7de9c08f6d2e6,2026-03-17_14h31.13.678,kallum_motion_pilot_GIST_update_2,2026.1.1,Win32,59.88023952,673a1dcffde7de9c08f6d2e6,69b95efdef24cd8a694e89ee,69b960488d95a741f3adf43e,0.1447,0.1447,1,78,240,1,1,onethree,,,,,,,,,,,,,,,,,,,,,,,,,,,,,,,,,,,,,,,,,,,,,,,,,,,,,,,,,,,,,,,,,,,,,,,,,,,,,,,,,,,,,,,,,,,,,,,,,,,,,,,,,,,,,,,,,,,,,,,,,,,,,,,,,,,,,,,,,
,,673a1dcffde7de9c08f6d2e6,2026-03-17_14h31.13.678,kallum_motion_pilot_GIST_update_2,2026.1.1,Win32,59.88023952,673a1dcffde7de9c08f6d2e6,69b95efdef24cd8a694e89ee,69b960488d95a741f3adf43e,0.145,0.145,1,79,241,131,1,sixeight,,,,,,,,,,,,,,,,,,,,,,,,,,,,,,,,,,,,,,,,,,,,,,,,,,,,,,,,,,,,,,,,,,,,,,,,,,,,,,,,,,,,,,,,,,,,,,,,,,,,,,,,,,,,,,,,,,,,,,,,,,,,,,,,,,,,,,,,,
,,673a1dcffde7de9c08f6d2e6,2026-03-17_14h31.13.678,kallum_motion_pilot_GIST_update_2,2026.1.1,Win32,59.88023952,673a1dcffde7de9c08f6d2e6,69b95efdef24cd8a694e89ee,69b960488d95a741f3adf43e,0.1453,0.1453,1,80,242,149,1,seveneight,,,,,,,,,,,,,,,,,,,,,,,,,,,,,,,,,,,,,,,,,,,,,,,,,,,,,,,,,,,,,,,,,,,,,,,,,,,,,,,,,,,,,,,,,,,,,,,,,,,,,,,,,,,,,,,,,,,,,,,,,,,,,,,,,,,,,,,,,
,,673a1dcffde7de9c08f6d2e6,2026-03-17_14h31.13.678,kallum_motion_pilot_GIST_update_2,2026.1.1,Win32,59.88023952,673a1dcffde7de9c08f6d2e6,69b95efdef24cd8a694e89ee,69b960488d95a741f3adf43e,0.1458,0.1458,1,81,243,77,1,threefour,,,,,,,,,,,,,,,,,,,,,,,,,,,,,,,,,,,,,,,,,,,,,,,,,,,,,,,,,,,,,,,,,,,,,,,,,,,,,,,,,,,,,,,,,,,,,,,,,,,,,,,,,,,,,,,,,,,,,,,,,,,,,,,,,,,,,,,,,
,,673a1dcffde7de9c08f6d2e6,2026-03-17_14h31.13.678,kallum_motion_pilot_GIST_update_2,2026.1.1,Win32,59.88023952,673a1dcffde7de9c08f6d2e6,69b95efdef24cd8a694e89ee,69b960488d95a741f3adf43e,0.1463,0.1463,1,82,244,122,1,sixfive,,,,,,,,,,,,,,,,,,,,,,,,,,,,,,,,,,,,,,,,,,,,,,,,,,,,,,,,,,,,,,,,,,,,,,,,,,,,,,,,,,,,,,,,,,,,,,,,,,,,,,,,,,,,,,,,,,,,,,,,,,,,,,,,,,,,,,,,,
,,673a1dcffde7de9c08f6d2e6,2026-03-17_14h31.13.678,kallum_motion_pilot_GIST_update_2,2026.1.1,Win32,59.88023952,673a1dcffde7de9c08f6d2e6,69b95efdef24cd8a694e89ee,69b960488d95a741f3adf43e,0.1467,0.1467,1,83,245,151,1,eightseven,,,,,,,,,,,,,,,,,,,,,,,,,,,,,,,,,,,,,,,,,,,,,,,,,,,,,,,,,,,,,,,,,,,,,,,,,,,,,,,,,,,,,,,,,,,,,,,,,,,,,,,,,,,,,,,,,,,,,,,,,,,,,,,,,,,,,,,,,
,,673a1dcffde7de9c08f6d2e6,2026-03-17_14h31.13.678,kallum_motion_pilot_GIST_update_2,2026.1.1,Win32,59.88023952,673a1dcffde7de9c08f6d2e6,69b95efdef24cd8a694e89ee,69b960488d95a741f3adf43e,0.1471,0.1471,1,84,246,76,1,threeone,,,,,,,,,,,,,,,,,,,,,,,,,,,,,,,,,,,,,,,,,,,,,,,,,,,,,,,,,,,,,,,,,,,,,,,,,,,,,,,,,,,,,,,,,,,,,,,,,,,,,,,,,,,,,,,,,,,,,,,,,,,,,,,,,,,,,,,,,
,,673a1dcffde7de9c08f6d2e6,2026-03-17_14h31.13.678,kallum_motion_pilot_GIST_update_2,2026.1.1,Win32,59.88023952,673a1dcffde7de9c08f6d2e6,69b95efdef24cd8a694e89ee,69b960488d95a741f3adf43e,0.1475,0.1476,1,85,247,33,1,onethree,,,,,,,,,,,,,,,,,,,,,,,,,,,,,,,,,,,,,,,,,,,,,,,,,,,,,,,,,,,,,,,,,,,,,,,,,,,,,,,,,,,,,,,,,,,,,,,,,,,,,,,,,,,,,,,,,,,,,,,,,,,,,,,,,,,,,,,,,
,,673a1dcffde7de9c08f6d2e6,2026-03-17_14h31.13.678,kallum_motion_pilot_GIST_update_2,2026.1.1,Win32,59.88023952,673a1dcffde7de9c08f6d2e6,69b95efdef24cd8a694e89ee,69b960488d95a741f3adf43e,0.1482,0.1482,1,86,248,5,1,threefour,,,,,,,,,,,,,,,,,,,,,,,,,,,,,,,,,,,,,,,,,,,,,,,,,,,,,,,,,,,,,,,,,,,,,,,,,,,,,,,,,,,,,,,,,,,,,,,,,,,,,,,,,,,,,,,,,,,,,,,,,,,,,,,,,,,,,,,,,
,,673a1dcffde7de9c08f6d2e6,2026-03-17_14h31.13.678,kallum_motion_pilot_GIST_update_2,2026.1.1,Win32,59.88023952,673a1dcffde7de9c08f6d2e6,69b95efdef24cd8a694e89ee,69b960488d95a741f3adf43e,0.1486,0.1486,1,87,249,46,1,fourtwo,,,,,,,,,,,,,,,,,,,,,,,,,,,,,,,,,,,,,,,,,,,,,,,,,,,,,,,,,,,,,,,,,,,,,,,,,,,,,,,,,,,,,,,,,,,,,,,,,,,,,,,,,,,,,,,,,,,,,,,,,,,,,,,,,,,,,,,,,
,,673a1dcffde7de9c08f6d2e6,2026-03-17_14h31.13.678,kallum_motion_pilot_GIST_update_2,2026.1.1,Win32,59.88023952,673a1dcffde7de9c08f6d2e6,69b95efdef24cd8a694e89ee,69b960488d95a741f3adf43e,0.1491,0.1491,1,88,250,64,1,onetwo,,,,,,,,,,,,,,,,,,,,,,,,,,,,,,,,,,,,,,,,,,,,,,,,,,,,,,,,,,,,,,,,,,,,,,,,,,,,,,,,,,,,,,,,,,,,,,,,,,,,,,,,,,,,,,,,,,,,,,,,,,,,,,,,,,,,,,,,,
,,673a1dcffde7de9c08f6d2e6,2026-03-17_14h31.13.678,kallum_motion_pilot_GIST_update_2,2026.1.1,Win32,59.88023952,673a1dcffde7de9c08f6d2e6,69b95efdef24cd8a694e89ee,69b960488d95a741f3adf43e,0.1495,0.1496,1,89,251,41,1,onethree,,,,,,,,,,,,,,,,,,,,,,,,,,,,,,,,,,,,,,,,,,,,,,,,,,,,,,,,,,,,,,,,,,,,,,,,,,,,,,,,,,,,,,,,,,,,,,,,,,,,,,,,,,,,,,,,,,,,,,,,,,,,,,,,,,,,,,,,,
,,673a1dcffde7de9c08f6d2e6,2026-03-17_14h31.13.678,kallum_motion_pilot_GIST_update_2,2026.1.1,Win32,59.88023952,673a1dcffde7de9c08f6d2e6,69b95efdef24cd8a694e89ee,69b960488d95a741f3adf43e,0.15,0.1501,1,90,252,49,1,onethree,,,,,,,,,,,,,,,,,,,,,,,,,,,,,,,,,,,,,,,,,,,,,,,,,,,,,,,,,,,,,,,,,,,,,,,,,,,,,,,,,,,,,,,,,,,,,,,,,,,,,,,,,,,,,,,,,,,,,,,,,,,,,,,,,,,,,,,,,
,,673a1dcffde7de9c08f6d2e6,2026-03-17_14h31.13.678,kallum_motion_pilot_GIST_update_2,2026.1.1,Win32,59.88023952,673a1dcffde7de9c08f6d2e6,69b95efdef24cd8a694e89ee,69b960488d95a741f3adf43e,0.1506,0.1506,1,91,253,94,1,eightsix,,,,,,,,,,,,,,,,,,,,,,,,,,,,,,,,,,,,,,,,,,,,,,,,,,,,,,,,,,,,,,,,,,,,,,,,,,,,,,,,,,,,,,,,,,,,,,,,,,,,,,,,,,,,,,,,,,,,,,,,,,,,,,,,,,,,,,,,,
,,673a1dcffde7de9c08f6d2e6,2026-03-17_14h31.13.678,kallum_motion_pilot_GIST_update_2,2026.1.1,Win32,59.88023952,673a1dcffde7de9c08f6d2e6,69b95efdef24cd8a694e89ee,69b960488d95a741f3adf43e,0.1513,0.1513,1,92,254,140,1,sevenfive,,,,,,,,,,,,,,,,,,,,,,,,,,,,,,,,,,,,,,,,,,,,,,,,,,,,,,,,,,,,,,,,,,,,,,,,,,,,,,,,,,,,,,,,,,,,,,,,,,,,,,,,,,,,,,,,,,,,,,,,,,,,,,,,,,,,,,,,,
,,673a1dcffde7de9c08f6d2e6,2026-03-17_14h31.13.678,kallum_motion_pilot_GIST_update_2,2026.1.1,Win32,59.88023952,673a1dcffde7de9c08f6d2e6,69b95efdef24cd8a694e89ee,69b960488d95a741f3adf43e,0.1521,0.1522,1,93,255,88,1,fivesix,,,,,,,,,,,,,,,,,,,,,,,,,,,,,,,,,,,,,,,,,,,,,,,,,,,,,,,,,,,,,,,,,,,,,,,,,,,,,,,,,,,,,,,,,,,,,,,,,,,,,,,,,,,,,,,,,,,,,,,,,,,,,,,,,,,,,,,,,
,,673a1dcffde7de9c08f6d2e6,2026-03-17_14h31.13.678,kallum_motion_pilot_GIST_update_2,2026.1.1,Win32,59.88023952,673a1dcffde7de9c08f6d2e6,69b95efdef24cd8a694e89ee,69b960488d95a741f3adf43e,0.1525,0.1526,1,94,256,112,1,fivesix,,,,,,,,,,,,,,,,,,,,,,,,,,,,,,,,,,,,,,,,,,,,,,,,,,,,,,,,,,,,,,,,,,,,,,,,,,,,,,,,,,,,,,,,,,,,,,,,,,,,,,,,,,,,,,,,,,,,,,,,,,,,,,,,,,,,,,,,,
,,673a1dcffde7de9c08f6d2e6,2026-03-17_14h31.13.678,kallum_motion_pilot_GIST_update_2,2026.1.1,Win32,59.88023952,673a1dcffde7de9c08f6d2e6,69b95efdef24cd8a694e89ee,69b960488d95a741f3adf43e,0.1531,0.1531,1,95,257,139,1,sixeight,,,,,,,,,,,,,,,,,,,,,,,,,,,,,,,,,,,,,,,,,,,,,,,,,,,,,,,,,,,,,,,,,,,,,,,,,,,,,,,,,,,,,,,,,,,,,,,,,,,,,,,,,,,,,,,,,,,,,,,,,,,,,,,,,,,,,,,,,
,,673a1dcffde7de9c08f6d2e6,2026-03-17_14h31.13.678,kallum_motion_pilot_GIST_update_2,2026.1.1,Win32,59.88023952,673a1dcffde7de9c08f6d2e6,69b95efdef24cd8a694e89ee,69b960488d95a741f3adf43e,0.1536,0.1536,1,96,258,118,1,eightsix,,,,,,,,,,,,,,,,,,,,,,,,,,,,,,,,,,,,,,,,,,,,,,,,,,,,,,,,,,,,,,,,,,,,,,,,,,,,,,,,,,,,,,,,,,,,,,,,,,,,,,,,,,,,,,,,,,,,,,,,,,,,,,,,,,,,,,,,,
,,673a1dcffde7de9c08f6d2e6,2026-03-17_14h31.13.678,kallum_motion_pilot_GIST_update_2,2026.1.1,Win32,59.88023952,673a1dcffde7de9c08f6d2e6,69b95efdef24cd8a694e89ee,69b960488d95a741f3adf43e,0.1541,0.1541,1,97,259,89,1,fiveseven,,,,,,,,,,,,,,,,,,,,,,,,,,,,,,,,,,,,,,,,,,,,,,,,,,,,,,,,,,,,,,,,,,,,,,,,,,,,,,,,,,,,,,,,,,,,,,,,,,,,,,,,,,,,,,,,,,,,,,,,,,,,,,,,,,,,,,,,,
,,673a1dcffde7de9c08f6d2e6,2026-03-17_14h31.13.678,kallum_motion_pilot_GIST_update_2,2026.1.1,Win32,59.88023952,673a1dcffde7de9c08f6d2e6,69b95efdef24cd8a694e89ee,69b960488d95a741f3adf43e,0.1546,0.1546,1,98,260,143,1,eightseven,,,,,,,,,,,,,,,,,,,,,,,,,,,,,,,,,,,,,,,,,,,,,,,,,,,,,,,,,,,,,,,,,,,,,,,,,,,,,,,,,,,,,,,,,,,,,,,,,,,,,,,,,,,,,,,,,,,,,,,,,,,,,,,,,,,,,,,,,
,,673a1dcffde7de9c08f6d2e6,2026-03-17_14h31.13.678,kallum_motion_pilot_GIST_update_2,2026.1.1,Win32,59.88023952,673a1dcffde7de9c08f6d2e6,69b95efdef24cd8a694e89ee,69b960488d95a741f3adf43e,0.1551,0.1551,1,99,261,42,1,twoone,,,,,,,,,,,,,,,,,,,,,,,,,,,,,,,,,,,,,,,,,,,,,,,,,,,,,,,,,,,,,,,,,,,,,,,,,,,,,,,,,,,,,,,,,,,,,,,,,,,,,,,,,,,,,,,,,,,,,,,,,,,,,,,,,,,,,,,,,
,,673a1dcffde7de9c08f6d2e6,2026-03-17_14h31.13.678,kallum_motion_pilot_GIST_update_2,2026.1.1,Win32,59.88023952,673a1dcffde7de9c08f6d2e6,69b95efdef24cd8a694e89ee,69b960488d95a741f3adf43e,0.1558,0.1558,1,100,262,158,1,eightsix,,,,,,,,,,,,,,,,,,,,,,,,,,,,,,,,,,,,,,,,,,,,,,,,,,,,,,,,,,,,,,,,,,,,,,,,,,,,,,,,,,,,,,,,,,,,,,,,,,,,,,,,,,,,,,,,,,,,,,,,,,,,,,,,,,,,,,,,,
,,673a1dcffde7de9c08f6d2e6,2026-03-17_14h31.13.678,kallum_motion_pilot_GIST_update_2,2026.1.1,Win32,59.88023952,673a1dcffde7de9c08f6d2e6,69b95efdef24cd8a694e89ee,69b960488d95a741f3adf43e,0.1564,0.1565,1,101,263,70,1,fourtwo,,,,,,,,,,,,,,,,,,,,,,,,,,,,,,,,,,,,,,,,,,,,,,,,,,,,,,,,,,,,,,,,,,,,,,,,,,,,,,,,,,,,,,,,,,,,,,,,,,,,,,,,,,,,,,,,,,,,,,,,,,,,,,,,,,,,,,,,,
,,673a1dcffde7de9c08f6d2e6,2026-03-17_14h31.13.678,kallum_motion_pilot_GIST_update_2,2026.1.1,Win32,59.88023952,673a1dcffde7de9c08f6d2e6,69b95efdef24cd8a694e89ee,69b960488d95a741f3adf43e,0.1572,0.1573,1,102,264,67,1,twofour,,,,,,,,,,,,,,,,,,,,,,,,,,,,,,,,,,,,,,,,,,,,,,,,,,,,,,,,,,,,,,,,,,,,,,,,,,,,,,,,,,,,,,,,,,,,,,,,,,,,,,,,,,,,,,,,,,,,,,,,,,,,,,,,,,,,,,,,,
,,673a1dcffde7de9c08f6d2e6,2026-03-17_14h31.13.678,kallum_motion_pilot_GIST_update_2,2026.1.1,Win32,59.88023952,673a1dcffde7de9c08f6d2e6,69b95efdef24cd8a694e89ee,69b960488d95a741f3adf43e,0.158,0.1581,1,103,265,17,1,onethree,,,,,,,,,,,,,,,,,,,,,,,,,,,,,,,,,,,,,,,,,,,,,,,,,,,,,,,,,,,,,,,,,,,,,,,,,,,,,,,,,,,,,,,,,,,,,,,,,,,,,,,,,,,,,,,,,,,,,,,,,,,,,,,,,,,,,,,,,
,,673a1dcffde7de9c08f6d2e6,2026-03-17_14h31.13.678,kallum_motion_pilot_GIST_update_2,2026.1.1,Win32,59.88023952,673a1dcffde7de9c08f6d2e6,69b95efdef24cd8a694e89ee,69b960488d95a741f3adf43e,0.1586,0.1586,1,104,266,124,1,sevenfive,,,,,,,,,,,,,,,,,,,,,,,,,,,,,,,,,,,,,,,,,,,,,,,,,,,,,,,,,,,,,,,,,,,,,,,,,,,,,,,,,,,,,,,,,,,,,,,,,,,,,,,,,,,,,,,,,,,,,,,,,,,,,,,,,,,,,,,,,
