startup.started,startup.stopped,Prolific ID*,date,expName,psychopyVersion,OS,frameRate,participant,study_id,session,stimpositions.started,stimpositions.stopped,hardcoded_stimulus_positions.thisRepN,hardcoded_stimulus_positions.thisTrialN,hardcoded_stimulus_positions.thisN,hardcoded_stimulus_positions.thisIndex,hardcoded_stimulus_positions.ran,StimulusPos,stimorientation.started,stimorientation.stopped,prac_stimorientation_import_loop.thisRepN,prac_stimorientation_import_loop.thisTrialN,prac_stimorientation_import_loop.thisN,prac_stimorientation_import_loop.thisIndex,prac_stimorientation_import_loop.ran,Stimorientation,welcome_instr.started,welcome_instr.stopped,key_resp.keys,key_resp.rt,key_resp.duration,response_steppedout_1.started,response_steppedout_1.stopped,key_resp_20.keys,key_resp_20.rt,key_resp_20.duration,response_steppedout_2.started,response_steppedout_2.stopped,key_resp_19.keys,key_resp_19.rt,key_resp_19.duration,stim_response_instr.started,stim_response_instr.stopped,key_resp_15.keys,key_resp_15.rt,key_resp_15.duration,direction_instr_2.started,direction_instr_2.stopped,key_resp_9.keys,key_resp_9.rt,key_resp_9.duration,instr_prac.started,instr_prac.stopped,key_resp_10.keys,key_resp_10.rt,key_resp_10.duration,Stim1_display_prac.started,Stim1_display_prac.stopped,Ecc,Circle1_ori,Circle2_ori,response_prac.started,similarity,response_time,response_prac.stopped,mouse_5.x,mouse_5.y,mouse_5.leftButton,mouse_5.midButton,mouse_5.rightButton,mouse_5.clicked_name,responseprac_feedback.started,responseprac_feedback.stopped,summary2_prac.started,summary2_prac.stopped,mouse_6.x,mouse_6.y,mouse_6.leftButton,mouse_6.midButton,mouse_6.rightButton,mouse_6.clicked_name,duringprac.thisRepN,duringprac.thisTrialN,duringprac.thisN,duringprac.thisIndex,duringprac.ran,begin.started,begin.stopped,key_resp_22.keys,key_resp_22.rt,key_resp_22.duration,Stim1_display.started,Stim1_display.stopped,circle1_ori,circle2_ori,circle1_SF,circle2_SF,response.started,response.stopped,mouse.x,mouse.y,mouse.leftButton,mouse.midButton,mouse.rightButton,mouse.clicked_name,trialnumber,double_pass.thisRepN,double_pass.thisTrialN,double_pass.thisN,double_pass.thisIndex,double_pass.ran,double_pass.order,main_trial.thisRepN,main_trial.thisTrialN,main_trial.thisN,main_trial.thisIndex,main_trial.ran,main_trial.order,Trial_Counter,Catch,Frequencies,response_2.started,response_2.stopped,mouse_2.x,mouse_2.y,mouse_2.leftButton,mouse_2.midButton,mouse_2.rightButton,mouse_2.clicked_name,special_trial.started,special_trial.stopped,catch_1.started,catch_1.stopped,mouse_3.x,mouse_3.y,mouse_3.leftButton,mouse_3.midButton,mouse_3.rightButton,catchresponse,catchnumber,response_time_catch,response_sum.started,response_sum.stopped,mouse_11.x,mouse_11.y,mouse_11.leftButton,mouse_11.midButton,mouse_11.rightButton,flip_presentation_sequence_for_double_pass.started,flip_presentation_sequence_for_double_pass.stopped,goodbye.started,goodbye.stopped,key_resp_3.keys,key_resp_3.rt,key_resp_3.duration
0.0008,0.0013,67503701c4ef8958767a58d9,2026-03-17_14h02.43.287,kallum_motion_pilot_GIST_update_2,2026.1.1,Win32,60.60606061,67503701c4ef8958767a58d9,69b95efdef24cd8a694e89ee,69b960023d95e0bc67e1dd4a,,,,,,,,,,,,,,,,,,,,,,,,,,,,,,,,,,,,,,,,,,,,,,,,,,,,,,,,,,,,,,,,,,,,,,,,,,,,,,,,,,,,,,,,,,,,,,,,,,,,,,,,,,,,,,,,,,,,,,,,,,,,,,,,,,,,,,,,,,,,,,,,,
,,67503701c4ef8958767a58d9,2026-03-17_14h02.43.287,kallum_motion_pilot_GIST_update_2,2026.1.1,Win32,60.60606061,67503701c4ef8958767a58d9,69b95efdef24cd8a694e89ee,69b960023d95e0bc67e1dd4a,0.0816,0.0819,0,0,0,144,1,fivesix,,,,,,,,,,,,,,,,,,,,,,,,,,,,,,,,,,,,,,,,,,,,,,,,,,,,,,,,,,,,,,,,,,,,,,,,,,,,,,,,,,,,,,,,,,,,,,,,,,,,,,,,,,,,,,,,,,,,,,,,,,,,,,,,,,,,,,,,,
,,67503701c4ef8958767a58d9,2026-03-17_14h02.43.287,kallum_motion_pilot_GIST_update_2,2026.1.1,Win32,60.60606061,67503701c4ef8958767a58d9,69b95efdef24cd8a694e89ee,69b960023d95e0bc67e1dd4a,0.0828,0.0829,0,1,1,49,1,onethree,,,,,,,,,,,,,,,,,,,,,,,,,,,,,,,,,,,,,,,,,,,,,,,,,,,,,,,,,,,,,,,,,,,,,,,,,,,,,,,,,,,,,,,,,,,,,,,,,,,,,,,,,,,,,,,,,,,,,,,,,,,,,,,,,,,,,,,,,
,,67503701c4ef8958767a58d9,2026-03-17_14h02.43.287,kallum_motion_pilot_GIST_update_2,2026.1.1,Win32,60.60606061,67503701c4ef8958767a58d9,69b95efdef24cd8a694e89ee,69b960023d95e0bc67e1dd4a,0.0833,0.0833,0,2,2,145,1,fiveseven,,,,,,,,,,,,,,,,,,,,,,,,,,,,,,,,,,,,,,,,,,,,,,,,,,,,,,,,,,,,,,,,,,,,,,,,,,,,,,,,,,,,,,,,,,,,,,,,,,,,,,,,,,,,,,,,,,,,,,,,,,,,,,,,,,,,,,,,,
,,67503701c4ef8958767a58d9,2026-03-17_14h02.43.287,kallum_motion_pilot_GIST_update_2,2026.1.1,Win32,60.60606061,67503701c4ef8958767a58d9,69b95efdef24cd8a694e89ee,69b960023d95e0bc67e1dd4a,0.0837,0.0838,0,3,3,35,1,twofour,,,,,,,,,,,,,,,,,,,,,,,,,,,,,,,,,,,,,,,,,,,,,,,,,,,,,,,,,,,,,,,,,,,,,,,,,,,,,,,,,,,,,,,,,,,,,,,,,,,,,,,,,,,,,,,,,,,,,,,,,,,,,,,,,,,,,,,,,
,,67503701c4ef8958767a58d9,2026-03-17_14h02.43.287,kallum_motion_pilot_GIST_update_2,2026.1.1,Win32,60.60606061,67503701c4ef8958767a58d9,69b95efdef24cd8a694e89ee,69b960023d95e0bc67e1dd4a,0.0842,0.0843,0,4,4,80,1,fivesix,,,,,,,,,,,,,,,,,,,,,,,,,,,,,,,,,,,,,,,,,,,,,,,,,,,,,,,,,,,,,,,,,,,,,,,,,,,,,,,,,,,,,,,,,,,,,,,,,,,,,,,,,,,,,,,,,,,,,,,,,,,,,,,,,,,,,,,,,
,,67503701c4ef8958767a58d9,2026-03-17_14h02.43.287,kallum_motion_pilot_GIST_update_2,2026.1.1,Win32,60.60606061,67503701c4ef8958767a58d9,69b95efdef24cd8a694e89ee,69b960023d95e0bc67e1dd4a,0.0846,0.0846,0,5,5,100,1,sevenfive,,,,,,,,,,,,,,,,,,,,,,,,,,,,,,,,,,,,,,,,,,,,,,,,,,,,,,,,,,,,,,,,,,,,,,,,,,,,,,,,,,,,,,,,,,,,,,,,,,,,,,,,,,,,,,,,,,,,,,,,,,,,,,,,,,,,,,,,,
,,67503701c4ef8958767a58d9,2026-03-17_14h02.43.287,kallum_motion_pilot_GIST_update_2,2026.1.1,Win32,60.60606061,67503701c4ef8958767a58d9,69b95efdef24cd8a694e89ee,69b960023d95e0bc67e1dd4a,0.085,0.085,0,6,6,139,1,sixeight,,,,,,,,,,,,,,,,,,,,,,,,,,,,,,,,,,,,,,,,,,,,,,,,,,,,,,,,,,,,,,,,,,,,,,,,,,,,,,,,,,,,,,,,,,,,,,,,,,,,,,,,,,,,,,,,,,,,,,,,,,,,,,,,,,,,,,,,,
,,67503701c4ef8958767a58d9,2026-03-17_14h02.43.287,kallum_motion_pilot_GIST_update_2,2026.1.1,Win32,60.60606061,67503701c4ef8958767a58d9,69b95efdef24cd8a694e89ee,69b960023d95e0bc67e1dd4a,0.0854,0.0854,0,7,7,116,1,sevenfive,,,,,,,,,,,,,,,,,,,,,,,,,,,,,,,,,,,,,,,,,,,,,,,,,,,,,,,,,,,,,,,,,,,,,,,,,,,,,,,,,,,,,,,,,,,,,,,,,,,,,,,,,,,,,,,,,,,,,,,,,,,,,,,,,,,,,,,,,
,,67503701c4ef8958767a58d9,2026-03-17_14h02.43.287,kallum_motion_pilot_GIST_update_2,2026.1.1,Win32,60.60606061,67503701c4ef8958767a58d9,69b95efdef24cd8a694e89ee,69b960023d95e0bc67e1dd4a,0.0862,0.0863,0,8,8,74,1,twoone,,,,,,,,,,,,,,,,,,,,,,,,,,,,,,,,,,,,,,,,,,,,,,,,,,,,,,,,,,,,,,,,,,,,,,,,,,,,,,,,,,,,,,,,,,,,,,,,,,,,,,,,,,,,,,,,,,,,,,,,,,,,,,,,,,,,,,,,,
,,67503701c4ef8958767a58d9,2026-03-17_14h02.43.287,kallum_motion_pilot_GIST_update_2,2026.1.1,Win32,60.60606061,67503701c4ef8958767a58d9,69b95efdef24cd8a694e89ee,69b960023d95e0bc67e1dd4a,0.0871,0.0872,0,9,9,65,1,onethree,,,,,,,,,,,,,,,,,,,,,,,,,,,,,,,,,,,,,,,,,,,,,,,,,,,,,,,,,,,,,,,,,,,,,,,,,,,,,,,,,,,,,,,,,,,,,,,,,,,,,,,,,,,,,,,,,,,,,,,,,,,,,,,,,,,,,,,,,
,,67503701c4ef8958767a58d9,2026-03-17_14h02.43.287,kallum_motion_pilot_GIST_update_2,2026.1.1,Win32,60.60606061,67503701c4ef8958767a58d9,69b95efdef24cd8a694e89ee,69b960023d95e0bc67e1dd4a,0.0874,0.0874,0,10,10,91,1,sixeight,,,,,,,,,,,,,,,,,,,,,,,,,,,,,,,,,,,,,,,,,,,,,,,,,,,,,,,,,,,,,,,,,,,,,,,,,,,,,,,,,,,,,,,,,,,,,,,,,,,,,,,,,,,,,,,,,,,,,,,,,,,,,,,,,,,,,,,,,
,,67503701c4ef8958767a58d9,2026-03-17_14h02.43.287,kallum_motion_pilot_GIST_update_2,2026.1.1,Win32,60.60606061,67503701c4ef8958767a58d9,69b95efdef24cd8a694e89ee,69b960023d95e0bc67e1dd4a,0.0876,0.0876,0,11,11,4,1,threeone,,,,,,,,,,,,,,,,,,,,,,,,,,,,,,,,,,,,,,,,,,,,,,,,,,,,,,,,,,,,,,,,,,,,,,,,,,,,,,,,,,,,,,,,,,,,,,,,,,,,,,,,,,,,,,,,,,,,,,,,,,,,,,,,,,,,,,,,,
,,67503701c4ef8958767a58d9,2026-03-17_14h02.43.287,kallum_motion_pilot_GIST_update_2,2026.1.1,Win32,60.60606061,67503701c4ef8958767a58d9,69b95efdef24cd8a694e89ee,69b960023d95e0bc67e1dd4a,0.0879,0.0879,0,12,12,153,1,fiveseven,,,,,,,,,,,,,,,,,,,,,,,,,,,,,,,,,,,,,,,,,,,,,,,,,,,,,,,,,,,,,,,,,,,,,,,,,,,,,,,,,,,,,,,,,,,,,,,,,,,,,,,,,,,,,,,,,,,,,,,,,,,,,,,,,,,,,,,,,
,,67503701c4ef8958767a58d9,2026-03-17_14h02.43.287,kallum_motion_pilot_GIST_update_2,2026.1.1,Win32,60.60606061,67503701c4ef8958767a58d9,69b95efdef24cd8a694e89ee,69b960023d95e0bc67e1dd4a,0.0881,0.0881,0,13,13,63,1,fourthree,,,,,,,,,,,,,,,,,,,,,,,,,,,,,,,,,,,,,,,,,,,,,,,,,,,,,,,,,,,,,,,,,,,,,,,,,,,,,,,,,,,,,,,,,,,,,,,,,,,,,,,,,,,,,,,,,,,,,,,,,,,,,,,,,,,,,,,,,
,,67503701c4ef8958767a58d9,2026-03-17_14h02.43.287,kallum_motion_pilot_GIST_update_2,2026.1.1,Win32,60.60606061,67503701c4ef8958767a58d9,69b95efdef24cd8a694e89ee,69b960023d95e0bc67e1dd4a,0.0883,0.0883,0,14,14,30,1,fourtwo,,,,,,,,,,,,,,,,,,,,,,,,,,,,,,,,,,,,,,,,,,,,,,,,,,,,,,,,,,,,,,,,,,,,,,,,,,,,,,,,,,,,,,,,,,,,,,,,,,,,,,,,,,,,,,,,,,,,,,,,,,,,,,,,,,,,,,,,,
,,67503701c4ef8958767a58d9,2026-03-17_14h02.43.287,kallum_motion_pilot_GIST_update_2,2026.1.1,Win32,60.60606061,67503701c4ef8958767a58d9,69b95efdef24cd8a694e89ee,69b960023d95e0bc67e1dd4a,0.0885,0.0885,0,15,15,1,1,onethree,,,,,,,,,,,,,,,,,,,,,,,,,,,,,,,,,,,,,,,,,,,,,,,,,,,,,,,,,,,,,,,,,,,,,,,,,,,,,,,,,,,,,,,,,,,,,,,,,,,,,,,,,,,,,,,,,,,,,,,,,,,,,,,,,,,,,,,,,
,,67503701c4ef8958767a58d9,2026-03-17_14h02.43.287,kallum_motion_pilot_GIST_update_2,2026.1.1,Win32,60.60606061,67503701c4ef8958767a58d9,69b95efdef24cd8a694e89ee,69b960023d95e0bc67e1dd4a,0.0888,0.0888,0,16,16,119,1,eightseven,,,,,,,,,,,,,,,,,,,,,,,,,,,,,,,,,,,,,,,,,,,,,,,,,,,,,,,,,,,,,,,,,,,,,,,,,,,,,,,,,,,,,,,,,,,,,,,,,,,,,,,,,,,,,,,,,,,,,,,,,,,,,,,,,,,,,,,,,
,,67503701c4ef8958767a58d9,2026-03-17_14h02.43.287,kallum_motion_pilot_GIST_update_2,2026.1.1,Win32,60.60606061,67503701c4ef8958767a58d9,69b95efdef24cd8a694e89ee,69b960023d95e0bc67e1dd4a,0.089,0.089,0,17,17,156,1,sevenfive,,,,,,,,,,,,,,,,,,,,,,,,,,,,,,,,,,,,,,,,,,,,,,,,,,,,,,,,,,,,,,,,,,,,,,,,,,,,,,,,,,,,,,,,,,,,,,,,,,,,,,,,,,,,,,,,,,,,,,,,,,,,,,,,,,,,,,,,,
,,67503701c4ef8958767a58d9,2026-03-17_14h02.43.287,kallum_motion_pilot_GIST_update_2,2026.1.1,Win32,60.60606061,67503701c4ef8958767a58d9,69b95efdef24cd8a694e89ee,69b960023d95e0bc67e1dd4a,0.0903,0.0903,0,18,18,95,1,eightseven,,,,,,,,,,,,,,,,,,,,,,,,,,,,,,,,,,,,,,,,,,,,,,,,,,,,,,,,,,,,,,,,,,,,,,,,,,,,,,,,,,,,,,,,,,,,,,,,,,,,,,,,,,,,,,,,,,,,,,,,,,,,,,,,,,,,,,,,,
,,67503701c4ef8958767a58d9,2026-03-17_14h02.43.287,kallum_motion_pilot_GIST_update_2,2026.1.1,Win32,60.60606061,67503701c4ef8958767a58d9,69b95efdef24cd8a694e89ee,69b960023d95e0bc67e1dd4a,0.0908,0.0908,0,19,19,148,1,sevenfive,,,,,,,,,,,,,,,,,,,,,,,,,,,,,,,,,,,,,,,,,,,,,,,,,,,,,,,,,,,,,,,,,,,,,,,,,,,,,,,,,,,,,,,,,,,,,,,,,,,,,,,,,,,,,,,,,,,,,,,,,,,,,,,,,,,,,,,,,
,,67503701c4ef8958767a58d9,2026-03-17_14h02.43.287,kallum_motion_pilot_GIST_update_2,2026.1.1,Win32,60.60606061,67503701c4ef8958767a58d9,69b95efdef24cd8a694e89ee,69b960023d95e0bc67e1dd4a,0.0912,0.0912,0,20,20,42,1,twoone,,,,,,,,,,,,,,,,,,,,,,,,,,,,,,,,,,,,,,,,,,,,,,,,,,,,,,,,,,,,,,,,,,,,,,,,,,,,,,,,,,,,,,,,,,,,,,,,,,,,,,,,,,,,,,,,,,,,,,,,,,,,,,,,,,,,,,,,,
,,67503701c4ef8958767a58d9,2026-03-17_14h02.43.287,kallum_motion_pilot_GIST_update_2,2026.1.1,Win32,60.60606061,67503701c4ef8958767a58d9,69b95efdef24cd8a694e89ee,69b960023d95e0bc67e1dd4a,0.0914,0.0914,0,21,21,155,1,sixeight,,,,,,,,,,,,,,,,,,,,,,,,,,,,,,,,,,,,,,,,,,,,,,,,,,,,,,,,,,,,,,,,,,,,,,,,,,,,,,,,,,,,,,,,,,,,,,,,,,,,,,,,,,,,,,,,,,,,,,,,,,,,,,,,,,,,,,,,,
,,67503701c4ef8958767a58d9,2026-03-17_14h02.43.287,kallum_motion_pilot_GIST_update_2,2026.1.1,Win32,60.60606061,67503701c4ef8958767a58d9,69b95efdef24cd8a694e89ee,69b960023d95e0bc67e1dd4a,0.0917,0.0917,0,22,22,117,1,seveneight,,,,,,,,,,,,,,,,,,,,,,,,,,,,,,,,,,,,,,,,,,,,,,,,,,,,,,,,,,,,,,,,,,,,,,,,,,,,,,,,,,,,,,,,,,,,,,,,,,,,,,,,,,,,,,,,,,,,,,,,,,,,,,,,,,,,,,,,,
,,67503701c4ef8958767a58d9,2026-03-17_14h02.43.287,kallum_motion_pilot_GIST_update_2,2026.1.1,Win32,60.60606061,67503701c4ef8958767a58d9,69b95efdef24cd8a694e89ee,69b960023d95e0bc67e1dd4a,0.0919,0.0919,0,23,23,52,1,threeone,,,,,,,,,,,,,,,,,,,,,,,,,,,,,,,,,,,,,,,,,,,,,,,,,,,,,,,,,,,,,,,,,,,,,,,,,,,,,,,,,,,,,,,,,,,,,,,,,,,,,,,,,,,,,,,,,,,,,,,,,,,,,,,,,,,,,,,,,
,,67503701c4ef8958767a58d9,2026-03-17_14h02.43.287,kallum_motion_pilot_GIST_update_2,2026.1.1,Win32,60.60606061,67503701c4ef8958767a58d9,69b95efdef24cd8a694e89ee,69b960023d95e0bc67e1dd4a,0.0921,0.0922,0,24,24,113,1,fiveseven,,,,,,,,,,,,,,,,,,,,,,,,,,,,,,,,,,,,,,,,,,,,,,,,,,,,,,,,,,,,,,,,,,,,,,,,,,,,,,,,,,,,,,,,,,,,,,,,,,,,,,,,,,,,,,,,,,,,,,,,,,,,,,,,,,,,,,,,,
,,67503701c4ef8958767a58d9,2026-03-17_14h02.43.287,kallum_motion_pilot_GIST_update_2,2026.1.1,Win32,60.60606061,67503701c4ef8958767a58d9,69b95efdef24cd8a694e89ee,69b960023d95e0bc67e1dd4a,0.0926,0.0926,0,25,25,70,1,fourtwo,,,,,,,,,,,,,,,,,,,,,,,,,,,,,,,,,,,,,,,,,,,,,,,,,,,,,,,,,,,,,,,,,,,,,,,,,,,,,,,,,,,,,,,,,,,,,,,,,,,,,,,,,,,,,,,,,,,,,,,,,,,,,,,,,,,,,,,,,
,,67503701c4ef8958767a58d9,2026-03-17_14h02.43.287,kallum_motion_pilot_GIST_update_2,2026.1.1,Win32,60.60606061,67503701c4ef8958767a58d9,69b95efdef24cd8a694e89ee,69b960023d95e0bc67e1dd4a,0.0928,0.0928,0,26,26,152,1,fivesix,,,,,,,,,,,,,,,,,,,,,,,,,,,,,,,,,,,,,,,,,,,,,,,,,,,,,,,,,,,,,,,,,,,,,,,,,,,,,,,,,,,,,,,,,,,,,,,,,,,,,,,,,,,,,,,,,,,,,,,,,,,,,,,,,,,,,,,,,
,,67503701c4ef8958767a58d9,2026-03-17_14h02.43.287,kallum_motion_pilot_GIST_update_2,2026.1.1,Win32,60.60606061,67503701c4ef8958767a58d9,69b95efdef24cd8a694e89ee,69b960023d95e0bc67e1dd4a,0.093,0.093,0,27,27,47,1,fourthree,,,,,,,,,,,,,,,,,,,,,,,,,,,,,,,,,,,,,,,,,,,,,,,,,,,,,,,,,,,,,,,,,,,,,,,,,,,,,,,,,,,,,,,,,,,,,,,,,,,,,,,,,,,,,,,,,,,,,,,,,,,,,,,,,,,,,,,,,
,,67503701c4ef8958767a58d9,2026-03-17_14h02.43.287,kallum_motion_pilot_GIST_update_2,2026.1.1,Win32,60.60606061,67503701c4ef8958767a58d9,69b95efdef24cd8a694e89ee,69b960023d95e0bc67e1dd4a,0.0932,0.0932,0,28,28,104,1,fivesix,,,,,,,,,,,,,,,,,,,,,,,,,,,,,,,,,,,,,,,,,,,,,,,,,,,,,,,,,,,,,,,,,,,,,,,,,,,,,,,,,,,,,,,,,,,,,,,,,,,,,,,,,,,,,,,,,,,,,,,,,,,,,,,,,,,,,,,,,
,,67503701c4ef8958767a58d9,2026-03-17_14h02.43.287,kallum_motion_pilot_GIST_update_2,2026.1.1,Win32,60.60606061,67503701c4ef8958767a58d9,69b95efdef24cd8a694e89ee,69b960023d95e0bc67e1dd4a,0.0934,0.0934,0,29,29,31,1,fourthree,,,,,,,,,,,,,,,,,,,,,,,,,,,,,,,,,,,,,,,,,,,,,,,,,,,,,,,,,,,,,,,,,,,,,,,,,,,,,,,,,,,,,,,,,,,,,,,,,,,,,,,,,,,,,,,,,,,,,,,,,,,,,,,,,,,,,,,,,
,,67503701c4ef8958767a58d9,2026-03-17_14h02.43.287,kallum_motion_pilot_GIST_update_2,2026.1.1,Win32,60.60606061,67503701c4ef8958767a58d9,69b95efdef24cd8a694e89ee,69b960023d95e0bc67e1dd4a,0.0936,0.0936,0,30,30,121,1,fiveseven,,,,,,,,,,,,,,,,,,,,,,,,,,,,,,,,,,,,,,,,,,,,,,,,,,,,,,,,,,,,,,,,,,,,,,,,,,,,,,,,,,,,,,,,,,,,,,,,,,,,,,,,,,,,,,,,,,,,,,,,,,,,,,,,,,,,,,,,,
,,67503701c4ef8958767a58d9,2026-03-17_14h02.43.287,kallum_motion_pilot_GIST_update_2,2026.1.1,Win32,60.60606061,67503701c4ef8958767a58d9,69b95efdef24cd8a694e89ee,69b960023d95e0bc67e1dd4a,0.0938,0.0939,0,31,31,68,1,threeone,,,,,,,,,,,,,,,,,,,,,,,,,,,,,,,,,,,,,,,,,,,,,,,,,,,,,,,,,,,,,,,,,,,,,,,,,,,,,,,,,,,,,,,,,,,,,,,,,,,,,,,,,,,,,,,,,,,,,,,,,,,,,,,,,,,,,,,,,
,,67503701c4ef8958767a58d9,2026-03-17_14h02.43.287,kallum_motion_pilot_GIST_update_2,2026.1.1,Win32,60.60606061,67503701c4ef8958767a58d9,69b95efdef24cd8a694e89ee,69b960023d95e0bc67e1dd4a,0.094,0.094,0,32,32,21,1,threefour,,,,,,,,,,,,,,,,,,,,,,,,,,,,,,,,,,,,,,,,,,,,,,,,,,,,,,,,,,,,,,,,,,,,,,,,,,,,,,,,,,,,,,,,,,,,,,,,,,,,,,,,,,,,,,,,,,,,,,,,,,,,,,,,,,,,,,,,,
,,67503701c4ef8958767a58d9,2026-03-17_14h02.43.287,kallum_motion_pilot_GIST_update_2,2026.1.1,Win32,60.60606061,67503701c4ef8958767a58d9,69b95efdef24cd8a694e89ee,69b960023d95e0bc67e1dd4a,0.0943,0.0943,0,33,33,5,1,threefour,,,,,,,,,,,,,,,,,,,,,,,,,,,,,,,,,,,,,,,,,,,,,,,,,,,,,,,,,,,,,,,,,,,,,,,,,,,,,,,,,,,,,,,,,,,,,,,,,,,,,,,,,,,,,,,,,,,,,,,,,,,,,,,,,,,,,,,,,
,,67503701c4ef8958767a58d9,2026-03-17_14h02.43.287,kallum_motion_pilot_GIST_update_2,2026.1.1,Win32,60.60606061,67503701c4ef8958767a58d9,69b95efdef24cd8a694e89ee,69b960023d95e0bc67e1dd4a,0.0946,0.0946,0,34,34,46,1,fourtwo,,,,,,,,,,,,,,,,,,,,,,,,,,,,,,,,,,,,,,,,,,,,,,,,,,,,,,,,,,,,,,,,,,,,,,,,,,,,,,,,,,,,,,,,,,,,,,,,,,,,,,,,,,,,,,,,,,,,,,,,,,,,,,,,,,,,,,,,,
,,67503701c4ef8958767a58d9,2026-03-17_14h02.43.287,kallum_motion_pilot_GIST_update_2,2026.1.1,Win32,60.60606061,67503701c4ef8958767a58d9,69b95efdef24cd8a694e89ee,69b960023d95e0bc67e1dd4a,0.0948,0.0948,0,35,35,97,1,fiveseven,,,,,,,,,,,,,,,,,,,,,,,,,,,,,,,,,,,,,,,,,,,,,,,,,,,,,,,,,,,,,,,,,,,,,,,,,,,,,,,,,,,,,,,,,,,,,,,,,,,,,,,,,,,,,,,,,,,,,,,,,,,,,,,,,,,,,,,,,
,,67503701c4ef8958767a58d9,2026-03-17_14h02.43.287,kallum_motion_pilot_GIST_update_2,2026.1.1,Win32,60.60606061,67503701c4ef8958767a58d9,69b95efdef24cd8a694e89ee,69b960023d95e0bc67e1dd4a,0.095,0.0951,0,36,36,115,1,sixeight,,,,,,,,,,,,,,,,,,,,,,,,,,,,,,,,,,,,,,,,,,,,,,,,,,,,,,,,,,,,,,,,,,,,,,,,,,,,,,,,,,,,,,,,,,,,,,,,,,,,,,,,,,,,,,,,,,,,,,,,,,,,,,,,,,,,,,,,,
,,67503701c4ef8958767a58d9,2026-03-17_14h02.43.287,kallum_motion_pilot_GIST_update_2,2026.1.1,Win32,60.60606061,67503701c4ef8958767a58d9,69b95efdef24cd8a694e89ee,69b960023d95e0bc67e1dd4a,0.0952,0.0953,0,37,37,92,1,sevenfive,,,,,,,,,,,,,,,,,,,,,,,,,,,,,,,,,,,,,,,,,,,,,,,,,,,,,,,,,,,,,,,,,,,,,,,,,,,,,,,,,,,,,,,,,,,,,,,,,,,,,,,,,,,,,,,,,,,,,,,,,,,,,,,,,,,,,,,,,
,,67503701c4ef8958767a58d9,2026-03-17_14h02.43.287,kallum_motion_pilot_GIST_update_2,2026.1.1,Win32,60.60606061,67503701c4ef8958767a58d9,69b95efdef24cd8a694e89ee,69b960023d95e0bc67e1dd4a,0.0955,0.0955,0,38,38,158,1,eightsix,,,,,,,,,,,,,,,,,,,,,,,,,,,,,,,,,,,,,,,,,,,,,,,,,,,,,,,,,,,,,,,,,,,,,,,,,,,,,,,,,,,,,,,,,,,,,,,,,,,,,,,,,,,,,,,,,,,,,,,,,,,,,,,,,,,,,,,,,
,,67503701c4ef8958767a58d9,2026-03-17_14h02.43.287,kallum_motion_pilot_GIST_update_2,2026.1.1,Win32,60.60606061,67503701c4ef8958767a58d9,69b95efdef24cd8a694e89ee,69b960023d95e0bc67e1dd4a,0.0958,0.0958,0,39,39,105,1,fiveseven,,,,,,,,,,,,,,,,,,,,,,,,,,,,,,,,,,,,,,,,,,,,,,,,,,,,,,,,,,,,,,,,,,,,,,,,,,,,,,,,,,,,,,,,,,,,,,,,,,,,,,,,,,,,,,,,,,,,,,,,,,,,,,,,,,,,,,,,,
,,67503701c4ef8958767a58d9,2026-03-17_14h02.43.287,kallum_motion_pilot_GIST_update_2,2026.1.1,Win32,60.60606061,67503701c4ef8958767a58d9,69b95efdef24cd8a694e89ee,69b960023d95e0bc67e1dd4a,0.096,0.096,0,40,40,71,1,fourthree,,,,,,,,,,,,,,,,,,,,,,,,,,,,,,,,,,,,,,,,,,,,,,,,,,,,,,,,,,,,,,,,,,,,,,,,,,,,,,,,,,,,,,,,,,,,,,,,,,,,,,,,,,,,,,,,,,,,,,,,,,,,,,,,,,,,,,,,,
,,67503701c4ef8958767a58d9,2026-03-17_14h02.43.287,kallum_motion_pilot_GIST_update_2,2026.1.1,Win32,60.60606061,67503701c4ef8958767a58d9,69b95efdef24cd8a694e89ee,69b960023d95e0bc67e1dd4a,0.0964,0.0964,0,41,41,3,1,twofour,,,,,,,,,,,,,,,,,,,,,,,,,,,,,,,,,,,,,,,,,,,,,,,,,,,,,,,,,,,,,,,,,,,,,,,,,,,,,,,,,,,,,,,,,,,,,,,,,,,,,,,,,,,,,,,,,,,,,,,,,,,,,,,,,,,,,,,,,
,,67503701c4ef8958767a58d9,2026-03-17_14h02.43.287,kallum_motion_pilot_GIST_update_2,2026.1.1,Win32,60.60606061,67503701c4ef8958767a58d9,69b95efdef24cd8a694e89ee,69b960023d95e0bc67e1dd4a,0.0966,0.0966,0,42,42,33,1,onethree,,,,,,,,,,,,,,,,,,,,,,,,,,,,,,,,,,,,,,,,,,,,,,,,,,,,,,,,,,,,,,,,,,,,,,,,,,,,,,,,,,,,,,,,,,,,,,,,,,,,,,,,,,,,,,,,,,,,,,,,,,,,,,,,,,,,,,,,,
,,67503701c4ef8958767a58d9,2026-03-17_14h02.43.287,kallum_motion_pilot_GIST_update_2,2026.1.1,Win32,60.60606061,67503701c4ef8958767a58d9,69b95efdef24cd8a694e89ee,69b960023d95e0bc67e1dd4a,0.0968,0.0968,0,43,43,36,1,threeone,,,,,,,,,,,,,,,,,,,,,,,,,,,,,,,,,,,,,,,,,,,,,,,,,,,,,,,,,,,,,,,,,,,,,,,,,,,,,,,,,,,,,,,,,,,,,,,,,,,,,,,,,,,,,,,,,,,,,,,,,,,,,,,,,,,,,,,,,
,,67503701c4ef8958767a58d9,2026-03-17_14h02.43.287,kallum_motion_pilot_GIST_update_2,2026.1.1,Win32,60.60606061,67503701c4ef8958767a58d9,69b95efdef24cd8a694e89ee,69b960023d95e0bc67e1dd4a,0.097,0.097,0,44,44,123,1,sixeight,,,,,,,,,,,,,,,,,,,,,,,,,,,,,,,,,,,,,,,,,,,,,,,,,,,,,,,,,,,,,,,,,,,,,,,,,,,,,,,,,,,,,,,,,,,,,,,,,,,,,,,,,,,,,,,,,,,,,,,,,,,,,,,,,,,,,,,,,
,,67503701c4ef8958767a58d9,2026-03-17_14h02.43.287,kallum_motion_pilot_GIST_update_2,2026.1.1,Win32,60.60606061,67503701c4ef8958767a58d9,69b95efdef24cd8a694e89ee,69b960023d95e0bc67e1dd4a,0.0972,0.0973,0,45,45,8,1,onetwo,,,,,,,,,,,,,,,,,,,,,,,,,,,,,,,,,,,,,,,,,,,,,,,,,,,,,,,,,,,,,,,,,,,,,,,,,,,,,,,,,,,,,,,,,,,,,,,,,,,,,,,,,,,,,,,,,,,,,,,,,,,,,,,,,,,,,,,,,
,,67503701c4ef8958767a58d9,2026-03-17_14h02.43.287,kallum_motion_pilot_GIST_update_2,2026.1.1,Win32,60.60606061,67503701c4ef8958767a58d9,69b95efdef24cd8a694e89ee,69b960023d95e0bc67e1dd4a,0.0975,0.0975,0,46,46,79,1,eightseven,,,,,,,,,,,,,,,,,,,,,,,,,,,,,,,,,,,,,,,,,,,,,,,,,,,,,,,,,,,,,,,,,,,,,,,,,,,,,,,,,,,,,,,,,,,,,,,,,,,,,,,,,,,,,,,,,,,,,,,,,,,,,,,,,,,,,,,,,
,,67503701c4ef8958767a58d9,2026-03-17_14h02.43.287,kallum_motion_pilot_GIST_update_2,2026.1.1,Win32,60.60606061,67503701c4ef8958767a58d9,69b95efdef24cd8a694e89ee,69b960023d95e0bc67e1dd4a,0.0977,0.0978,0,47,47,98,1,sixfive,,,,,,,,,,,,,,,,,,,,,,,,,,,,,,,,,,,,,,,,,,,,,,,,,,,,,,,,,,,,,,,,,,,,,,,,,,,,,,,,,,,,,,,,,,,,,,,,,,,,,,,,,,,,,,,,,,,,,,,,,,,,,,,,,,,,,,,,,
,,67503701c4ef8958767a58d9,2026-03-17_14h02.43.287,kallum_motion_pilot_GIST_update_2,2026.1.1,Win32,60.60606061,67503701c4ef8958767a58d9,69b95efdef24cd8a694e89ee,69b960023d95e0bc67e1dd4a,0.098,0.098,0,48,48,48,1,onetwo,,,,,,,,,,,,,,,,,,,,,,,,,,,,,,,,,,,,,,,,,,,,,,,,,,,,,,,,,,,,,,,,,,,,,,,,,,,,,,,,,,,,,,,,,,,,,,,,,,,,,,,,,,,,,,,,,,,,,,,,,,,,,,,,,,,,,,,,,
,,67503701c4ef8958767a58d9,2026-03-17_14h02.43.287,kallum_motion_pilot_GIST_update_2,2026.1.1,Win32,60.60606061,67503701c4ef8958767a58d9,69b95efdef24cd8a694e89ee,69b960023d95e0bc67e1dd4a,0.0982,0.0982,0,49,49,134,1,eightsix,,,,,,,,,,,,,,,,,,,,,,,,,,,,,,,,,,,,,,,,,,,,,,,,,,,,,,,,,,,,,,,,,,,,,,,,,,,,,,,,,,,,,,,,,,,,,,,,,,,,,,,,,,,,,,,,,,,,,,,,,,,,,,,,,,,,,,,,,
,,67503701c4ef8958767a58d9,2026-03-17_14h02.43.287,kallum_motion_pilot_GIST_update_2,2026.1.1,Win32,60.60606061,67503701c4ef8958767a58d9,69b95efdef24cd8a694e89ee,69b960023d95e0bc67e1dd4a,0.0984,0.0984,0,50,50,23,1,fourthree,,,,,,,,,,,,,,,,,,,,,,,,,,,,,,,,,,,,,,,,,,,,,,,,,,,,,,,,,,,,,,,,,,,,,,,,,,,,,,,,,,,,,,,,,,,,,,,,,,,,,,,,,,,,,,,,,,,,,,,,,,,,,,,,,,,,,,,,,
,,67503701c4ef8958767a58d9,2026-03-17_14h02.43.287,kallum_motion_pilot_GIST_update_2,2026.1.1,Win32,60.60606061,67503701c4ef8958767a58d9,69b95efdef24cd8a694e89ee,69b960023d95e0bc67e1dd4a,0.0987,0.0987,0,51,51,128,1,fivesix,,,,,,,,,,,,,,,,,,,,,,,,,,,,,,,,,,,,,,,,,,,,,,,,,,,,,,,,,,,,,,,,,,,,,,,,,,,,,,,,,,,,,,,,,,,,,,,,,,,,,,,,,,,,,,,,,,,,,,,,,,,,,,,,,,,,,,,,,
,,67503701c4ef8958767a58d9,2026-03-17_14h02.43.287,kallum_motion_pilot_GIST_update_2,2026.1.1,Win32,60.60606061,67503701c4ef8958767a58d9,69b95efdef24cd8a694e89ee,69b960023d95e0bc67e1dd4a,0.0989,0.0989,0,52,52,11,1,twofour,,,,,,,,,,,,,,,,,,,,,,,,,,,,,,,,,,,,,,,,,,,,,,,,,,,,,,,,,,,,,,,,,,,,,,,,,,,,,,,,,,,,,,,,,,,,,,,,,,,,,,,,,,,,,,,,,,,,,,,,,,,,,,,,,,,,,,,,,
,,67503701c4ef8958767a58d9,2026-03-17_14h02.43.287,kallum_motion_pilot_GIST_update_2,2026.1.1,Win32,60.60606061,67503701c4ef8958767a58d9,69b95efdef24cd8a694e89ee,69b960023d95e0bc67e1dd4a,0.0991,0.0991,0,53,53,109,1,seveneight,,,,,,,,,,,,,,,,,,,,,,,,,,,,,,,,,,,,,,,,,,,,,,,,,,,,,,,,,,,,,,,,,,,,,,,,,,,,,,,,,,,,,,,,,,,,,,,,,,,,,,,,,,,,,,,,,,,,,,,,,,,,,,,,,,,,,,,,,
,,67503701c4ef8958767a58d9,2026-03-17_14h02.43.287,kallum_motion_pilot_GIST_update_2,2026.1.1,Win32,60.60606061,67503701c4ef8958767a58d9,69b95efdef24cd8a694e89ee,69b960023d95e0bc67e1dd4a,0.0993,0.0993,0,54,54,9,1,onethree,,,,,,,,,,,,,,,,,,,,,,,,,,,,,,,,,,,,,,,,,,,,,,,,,,,,,,,,,,,,,,,,,,,,,,,,,,,,,,,,,,,,,,,,,,,,,,,,,,,,,,,,,,,,,,,,,,,,,,,,,,,,,,,,,,,,,,,,,
,,67503701c4ef8958767a58d9,2026-03-17_14h02.43.287,kallum_motion_pilot_GIST_update_2,2026.1.1,Win32,60.60606061,67503701c4ef8958767a58d9,69b95efdef24cd8a694e89ee,69b960023d95e0bc67e1dd4a,0.0995,0.0995,0,55,55,88,1,fivesix,,,,,,,,,,,,,,,,,,,,,,,,,,,,,,,,,,,,,,,,,,,,,,,,,,,,,,,,,,,,,,,,,,,,,,,,,,,,,,,,,,,,,,,,,,,,,,,,,,,,,,,,,,,,,,,,,,,,,,,,,,,,,,,,,,,,,,,,,
,,67503701c4ef8958767a58d9,2026-03-17_14h02.43.287,kallum_motion_pilot_GIST_update_2,2026.1.1,Win32,60.60606061,67503701c4ef8958767a58d9,69b95efdef24cd8a694e89ee,69b960023d95e0bc67e1dd4a,0.0998,0.0998,0,56,56,142,1,eightsix,,,,,,,,,,,,,,,,,,,,,,,,,,,,,,,,,,,,,,,,,,,,,,,,,,,,,,,,,,,,,,,,,,,,,,,,,,,,,,,,,,,,,,,,,,,,,,,,,,,,,,,,,,,,,,,,,,,,,,,,,,,,,,,,,,,,,,,,,
,,67503701c4ef8958767a58d9,2026-03-17_14h02.43.287,kallum_motion_pilot_GIST_update_2,2026.1.1,Win32,60.60606061,67503701c4ef8958767a58d9,69b95efdef24cd8a694e89ee,69b960023d95e0bc67e1dd4a,0.1,0.1,0,57,57,15,1,fourthree,,,,,,,,,,,,,,,,,,,,,,,,,,,,,,,,,,,,,,,,,,,,,,,,,,,,,,,,,,,,,,,,,,,,,,,,,,,,,,,,,,,,,,,,,,,,,,,,,,,,,,,,,,,,,,,,,,,,,,,,,,,,,,,,,,,,,,,,,
,,67503701c4ef8958767a58d9,2026-03-17_14h02.43.287,kallum_motion_pilot_GIST_update_2,2026.1.1,Win32,60.60606061,67503701c4ef8958767a58d9,69b95efdef24cd8a694e89ee,69b960023d95e0bc67e1dd4a,0.1003,0.1003,0,58,58,96,1,fivesix,,,,,,,,,,,,,,,,,,,,,,,,,,,,,,,,,,,,,,,,,,,,,,,,,,,,,,,,,,,,,,,,,,,,,,,,,,,,,,,,,,,,,,,,,,,,,,,,,,,,,,,,,,,,,,,,,,,,,,,,,,,,,,,,,,,,,,,,,
,,67503701c4ef8958767a58d9,2026-03-17_14h02.43.287,kallum_motion_pilot_GIST_update_2,2026.1.1,Win32,60.60606061,67503701c4ef8958767a58d9,69b95efdef24cd8a694e89ee,69b960023d95e0bc67e1dd4a,0.1005,0.1005,0,59,59,84,1,sevenfive,,,,,,,,,,,,,,,,,,,,,,,,,,,,,,,,,,,,,,,,,,,,,,,,,,,,,,,,,,,,,,,,,,,,,,,,,,,,,,,,,,,,,,,,,,,,,,,,,,,,,,,,,,,,,,,,,,,,,,,,,,,,,,,,,,,,,,,,,
,,67503701c4ef8958767a58d9,2026-03-17_14h02.43.287,kallum_motion_pilot_GIST_update_2,2026.1.1,Win32,60.60606061,67503701c4ef8958767a58d9,69b95efdef24cd8a694e89ee,69b960023d95e0bc67e1dd4a,0.1007,0.1007,0,60,60,18,1,twoone,,,,,,,,,,,,,,,,,,,,,,,,,,,,,,,,,,,,,,,,,,,,,,,,,,,,,,,,,,,,,,,,,,,,,,,,,,,,,,,,,,,,,,,,,,,,,,,,,,,,,,,,,,,,,,,,,,,,,,,,,,,,,,,,,,,,,,,,,
,,67503701c4ef8958767a58d9,2026-03-17_14h02.43.287,kallum_motion_pilot_GIST_update_2,2026.1.1,Win32,60.60606061,67503701c4ef8958767a58d9,69b95efdef24cd8a694e89ee,69b960023d95e0bc67e1dd4a,0.101,0.101,0,61,61,136,1,fivesix,,,,,,,,,,,,,,,,,,,,,,,,,,,,,,,,,,,,,,,,,,,,,,,,,,,,,,,,,,,,,,,,,,,,,,,,,,,,,,,,,,,,,,,,,,,,,,,,,,,,,,,,,,,,,,,,,,,,,,,,,,,,,,,,,,,,,,,,,
,,67503701c4ef8958767a58d9,2026-03-17_14h02.43.287,kallum_motion_pilot_GIST_update_2,2026.1.1,Win32,60.60606061,67503701c4ef8958767a58d9,69b95efdef24cd8a694e89ee,69b960023d95e0bc67e1dd4a,0.1012,0.1012,0,62,62,12,1,threeone,,,,,,,,,,,,,,,,,,,,,,,,,,,,,,,,,,,,,,,,,,,,,,,,,,,,,,,,,,,,,,,,,,,,,,,,,,,,,,,,,,,,,,,,,,,,,,,,,,,,,,,,,,,,,,,,,,,,,,,,,,,,,,,,,,,,,,,,,
,,67503701c4ef8958767a58d9,2026-03-17_14h02.43.287,kallum_motion_pilot_GIST_update_2,2026.1.1,Win32,60.60606061,67503701c4ef8958767a58d9,69b95efdef24cd8a694e89ee,69b960023d95e0bc67e1dd4a,0.1014,0.1014,0,63,63,141,1,seveneight,,,,,,,,,,,,,,,,,,,,,,,,,,,,,,,,,,,,,,,,,,,,,,,,,,,,,,,,,,,,,,,,,,,,,,,,,,,,,,,,,,,,,,,,,,,,,,,,,,,,,,,,,,,,,,,,,,,,,,,,,,,,,,,,,,,,,,,,,
,,67503701c4ef8958767a58d9,2026-03-17_14h02.43.287,kallum_motion_pilot_GIST_update_2,2026.1.1,Win32,60.60606061,67503701c4ef8958767a58d9,69b95efdef24cd8a694e89ee,69b960023d95e0bc67e1dd4a,0.1017,0.1017,0,64,64,90,1,sixfive,,,,,,,,,,,,,,,,,,,,,,,,,,,,,,,,,,,,,,,,,,,,,,,,,,,,,,,,,,,,,,,,,,,,,,,,,,,,,,,,,,,,,,,,,,,,,,,,,,,,,,,,,,,,,,,,,,,,,,,,,,,,,,,,,,,,,,,,,
,,67503701c4ef8958767a58d9,2026-03-17_14h02.43.287,kallum_motion_pilot_GIST_update_2,2026.1.1,Win32,60.60606061,67503701c4ef8958767a58d9,69b95efdef24cd8a694e89ee,69b960023d95e0bc67e1dd4a,0.102,0.102,0,65,65,61,1,threefour,,,,,,,,,,,,,,,,,,,,,,,,,,,,,,,,,,,,,,,,,,,,,,,,,,,,,,,,,,,,,,,,,,,,,,,,,,,,,,,,,,,,,,,,,,,,,,,,,,,,,,,,,,,,,,,,,,,,,,,,,,,,,,,,,,,,,,,,,
,,67503701c4ef8958767a58d9,2026-03-17_14h02.43.287,kallum_motion_pilot_GIST_update_2,2026.1.1,Win32,60.60606061,67503701c4ef8958767a58d9,69b95efdef24cd8a694e89ee,69b960023d95e0bc67e1dd4a,0.1022,0.1023,0,66,66,10,1,twoone,,,,,,,,,,,,,,,,,,,,,,,,,,,,,,,,,,,,,,,,,,,,,,,,,,,,,,,,,,,,,,,,,,,,,,,,,,,,,,,,,,,,,,,,,,,,,,,,,,,,,,,,,,,,,,,,,,,,,,,,,,,,,,,,,,,,,,,,,
,,67503701c4ef8958767a58d9,2026-03-17_14h02.43.287,kallum_motion_pilot_GIST_update_2,2026.1.1,Win32,60.60606061,67503701c4ef8958767a58d9,69b95efdef24cd8a694e89ee,69b960023d95e0bc67e1dd4a,0.1026,0.1027,0,67,67,14,1,fourtwo,,,,,,,,,,,,,,,,,,,,,,,,,,,,,,,,,,,,,,,,,,,,,,,,,,,,,,,,,,,,,,,,,,,,,,,,,,,,,,,,,,,,,,,,,,,,,,,,,,,,,,,,,,,,,,,,,,,,,,,,,,,,,,,,,,,,,,,,,
,,67503701c4ef8958767a58d9,2026-03-17_14h02.43.287,kallum_motion_pilot_GIST_update_2,2026.1.1,Win32,60.60606061,67503701c4ef8958767a58d9,69b95efdef24cd8a694e89ee,69b960023d95e0bc67e1dd4a,0.1031,0.1031,0,68,68,132,1,sevenfive,,,,,,,,,,,,,,,,,,,,,,,,,,,,,,,,,,,,,,,,,,,,,,,,,,,,,,,,,,,,,,,,,,,,,,,,,,,,,,,,,,,,,,,,,,,,,,,,,,,,,,,,,,,,,,,,,,,,,,,,,,,,,,,,,,,,,,,,,
,,67503701c4ef8958767a58d9,2026-03-17_14h02.43.287,kallum_motion_pilot_GIST_update_2,2026.1.1,Win32,60.60606061,67503701c4ef8958767a58d9,69b95efdef24cd8a694e89ee,69b960023d95e0bc67e1dd4a,0.1035,0.1035,0,69,69,77,1,threefour,,,,,,,,,,,,,,,,,,,,,,,,,,,,,,,,,,,,,,,,,,,,,,,,,,,,,,,,,,,,,,,,,,,,,,,,,,,,,,,,,,,,,,,,,,,,,,,,,,,,,,,,,,,,,,,,,,,,,,,,,,,,,,,,,,,,,,,,,
,,67503701c4ef8958767a58d9,2026-03-17_14h02.43.287,kallum_motion_pilot_GIST_update_2,2026.1.1,Win32,60.60606061,67503701c4ef8958767a58d9,69b95efdef24cd8a694e89ee,69b960023d95e0bc67e1dd4a,0.1038,0.1038,0,70,70,56,1,onetwo,,,,,,,,,,,,,,,,,,,,,,,,,,,,,,,,,,,,,,,,,,,,,,,,,,,,,,,,,,,,,,,,,,,,,,,,,,,,,,,,,,,,,,,,,,,,,,,,,,,,,,,,,,,,,,,,,,,,,,,,,,,,,,,,,,,,,,,,,
,,67503701c4ef8958767a58d9,2026-03-17_14h02.43.287,kallum_motion_pilot_GIST_update_2,2026.1.1,Win32,60.60606061,67503701c4ef8958767a58d9,69b95efdef24cd8a694e89ee,69b960023d95e0bc67e1dd4a,0.104,0.104,0,71,71,112,1,fivesix,,,,,,,,,,,,,,,,,,,,,,,,,,,,,,,,,,,,,,,,,,,,,,,,,,,,,,,,,,,,,,,,,,,,,,,,,,,,,,,,,,,,,,,,,,,,,,,,,,,,,,,,,,,,,,,,,,,,,,,,,,,,,,,,,,,,,,,,,
,,67503701c4ef8958767a58d9,2026-03-17_14h02.43.287,kallum_motion_pilot_GIST_update_2,2026.1.1,Win32,60.60606061,67503701c4ef8958767a58d9,69b95efdef24cd8a694e89ee,69b960023d95e0bc67e1dd4a,0.1042,0.1042,0,72,72,51,1,twofour,,,,,,,,,,,,,,,,,,,,,,,,,,,,,,,,,,,,,,,,,,,,,,,,,,,,,,,,,,,,,,,,,,,,,,,,,,,,,,,,,,,,,,,,,,,,,,,,,,,,,,,,,,,,,,,,,,,,,,,,,,,,,,,,,,,,,,,,,
,,67503701c4ef8958767a58d9,2026-03-17_14h02.43.287,kallum_motion_pilot_GIST_update_2,2026.1.1,Win32,60.60606061,67503701c4ef8958767a58d9,69b95efdef24cd8a694e89ee,69b960023d95e0bc67e1dd4a,0.1044,0.1045,0,73,73,110,1,eightsix,,,,,,,,,,,,,,,,,,,,,,,,,,,,,,,,,,,,,,,,,,,,,,,,,,,,,,,,,,,,,,,,,,,,,,,,,,,,,,,,,,,,,,,,,,,,,,,,,,,,,,,,,,,,,,,,,,,,,,,,,,,,,,,,,,,,,,,,,
,,67503701c4ef8958767a58d9,2026-03-17_14h02.43.287,kallum_motion_pilot_GIST_update_2,2026.1.1,Win32,60.60606061,67503701c4ef8958767a58d9,69b95efdef24cd8a694e89ee,69b960023d95e0bc67e1dd4a,0.1047,0.1047,0,74,74,34,1,twoone,,,,,,,,,,,,,,,,,,,,,,,,,,,,,,,,,,,,,,,,,,,,,,,,,,,,,,,,,,,,,,,,,,,,,,,,,,,,,,,,,,,,,,,,,,,,,,,,,,,,,,,,,,,,,,,,,,,,,,,,,,,,,,,,,,,,,,,,,
,,67503701c4ef8958767a58d9,2026-03-17_14h02.43.287,kallum_motion_pilot_GIST_update_2,2026.1.1,Win32,60.60606061,67503701c4ef8958767a58d9,69b95efdef24cd8a694e89ee,69b960023d95e0bc67e1dd4a,0.105,0.105,0,75,75,93,1,seveneight,,,,,,,,,,,,,,,,,,,,,,,,,,,,,,,,,,,,,,,,,,,,,,,,,,,,,,,,,,,,,,,,,,,,,,,,,,,,,,,,,,,,,,,,,,,,,,,,,,,,,,,,,,,,,,,,,,,,,,,,,,,,,,,,,,,,,,,,,
,,67503701c4ef8958767a58d9,2026-03-17_14h02.43.287,kallum_motion_pilot_GIST_update_2,2026.1.1,Win32,60.60606061,67503701c4ef8958767a58d9,69b95efdef24cd8a694e89ee,69b960023d95e0bc67e1dd4a,0.1052,0.1052,0,76,76,75,1,twofour,,,,,,,,,,,,,,,,,,,,,,,,,,,,,,,,,,,,,,,,,,,,,,,,,,,,,,,,,,,,,,,,,,,,,,,,,,,,,,,,,,,,,,,,,,,,,,,,,,,,,,,,,,,,,,,,,,,,,,,,,,,,,,,,,,,,,,,,,
,,67503701c4ef8958767a58d9,2026-03-17_14h02.43.287,kallum_motion_pilot_GIST_update_2,2026.1.1,Win32,60.60606061,67503701c4ef8958767a58d9,69b95efdef24cd8a694e89ee,69b960023d95e0bc67e1dd4a,0.1054,0.1054,0,77,77,143,1,eightseven,,,,,,,,,,,,,,,,,,,,,,,,,,,,,,,,,,,,,,,,,,,,,,,,,,,,,,,,,,,,,,,,,,,,,,,,,,,,,,,,,,,,,,,,,,,,,,,,,,,,,,,,,,,,,,,,,,,,,,,,,,,,,,,,,,,,,,,,,
,,67503701c4ef8958767a58d9,2026-03-17_14h02.43.287,kallum_motion_pilot_GIST_update_2,2026.1.1,Win32,60.60606061,67503701c4ef8958767a58d9,69b95efdef24cd8a694e89ee,69b960023d95e0bc67e1dd4a,0.1057,0.1057,0,78,78,54,1,fourtwo,,,,,,,,,,,,,,,,,,,,,,,,,,,,,,,,,,,,,,,,,,,,,,,,,,,,,,,,,,,,,,,,,,,,,,,,,,,,,,,,,,,,,,,,,,,,,,,,,,,,,,,,,,,,,,,,,,,,,,,,,,,,,,,,,,,,,,,,,
,,67503701c4ef8958767a58d9,2026-03-17_14h02.43.287,kallum_motion_pilot_GIST_update_2,2026.1.1,Win32,60.60606061,67503701c4ef8958767a58d9,69b95efdef24cd8a694e89ee,69b960023d95e0bc67e1dd4a,0.1059,0.1059,0,79,79,108,1,sevenfive,,,,,,,,,,,,,,,,,,,,,,,,,,,,,,,,,,,,,,,,,,,,,,,,,,,,,,,,,,,,,,,,,,,,,,,,,,,,,,,,,,,,,,,,,,,,,,,,,,,,,,,,,,,,,,,,,,,,,,,,,,,,,,,,,,,,,,,,,
,,67503701c4ef8958767a58d9,2026-03-17_14h02.43.287,kallum_motion_pilot_GIST_update_2,2026.1.1,Win32,60.60606061,67503701c4ef8958767a58d9,69b95efdef24cd8a694e89ee,69b960023d95e0bc67e1dd4a,0.1063,0.1063,0,80,80,133,1,seveneight,,,,,,,,,,,,,,,,,,,,,,,,,,,,,,,,,,,,,,,,,,,,,,,,,,,,,,,,,,,,,,,,,,,,,,,,,,,,,,,,,,,,,,,,,,,,,,,,,,,,,,,,,,,,,,,,,,,,,,,,,,,,,,,,,,,,,,,,,
,,67503701c4ef8958767a58d9,2026-03-17_14h02.43.287,kallum_motion_pilot_GIST_update_2,2026.1.1,Win32,60.60606061,67503701c4ef8958767a58d9,69b95efdef24cd8a694e89ee,69b960023d95e0bc67e1dd4a,0.1066,0.1066,0,81,81,82,1,sixfive,,,,,,,,,,,,,,,,,,,,,,,,,,,,,,,,,,,,,,,,,,,,,,,,,,,,,,,,,,,,,,,,,,,,,,,,,,,,,,,,,,,,,,,,,,,,,,,,,,,,,,,,,,,,,,,,,,,,,,,,,,,,,,,,,,,,,,,,,
,,67503701c4ef8958767a58d9,2026-03-17_14h02.43.287,kallum_motion_pilot_GIST_update_2,2026.1.1,Win32,60.60606061,67503701c4ef8958767a58d9,69b95efdef24cd8a694e89ee,69b960023d95e0bc67e1dd4a,0.1069,0.1069,0,82,82,89,1,fiveseven,,,,,,,,,,,,,,,,,,,,,,,,,,,,,,,,,,,,,,,,,,,,,,,,,,,,,,,,,,,,,,,,,,,,,,,,,,,,,,,,,,,,,,,,,,,,,,,,,,,,,,,,,,,,,,,,,,,,,,,,,,,,,,,,,,,,,,,,,
,,67503701c4ef8958767a58d9,2026-03-17_14h02.43.287,kallum_motion_pilot_GIST_update_2,2026.1.1,Win32,60.60606061,67503701c4ef8958767a58d9,69b95efdef24cd8a694e89ee,69b960023d95e0bc67e1dd4a,0.1072,0.1072,0,83,83,131,1,sixeight,,,,,,,,,,,,,,,,,,,,,,,,,,,,,,,,,,,,,,,,,,,,,,,,,,,,,,,,,,,,,,,,,,,,,,,,,,,,,,,,,,,,,,,,,,,,,,,,,,,,,,,,,,,,,,,,,,,,,,,,,,,,,,,,,,,,,,,,,
,,67503701c4ef8958767a58d9,2026-03-17_14h02.43.287,kallum_motion_pilot_GIST_update_2,2026.1.1,Win32,60.60606061,67503701c4ef8958767a58d9,69b95efdef24cd8a694e89ee,69b960023d95e0bc67e1dd4a,0.1074,0.1074,0,84,84,83,1,sixeight,,,,,,,,,,,,,,,,,,,,,,,,,,,,,,,,,,,,,,,,,,,,,,,,,,,,,,,,,,,,,,,,,,,,,,,,,,,,,,,,,,,,,,,,,,,,,,,,,,,,,,,,,,,,,,,,,,,,,,,,,,,,,,,,,,,,,,,,,
,,67503701c4ef8958767a58d9,2026-03-17_14h02.43.287,kallum_motion_pilot_GIST_update_2,2026.1.1,Win32,60.60606061,67503701c4ef8958767a58d9,69b95efdef24cd8a694e89ee,69b960023d95e0bc67e1dd4a,0.1076,0.1076,0,85,85,43,1,twofour,,,,,,,,,,,,,,,,,,,,,,,,,,,,,,,,,,,,,,,,,,,,,,,,,,,,,,,,,,,,,,,,,,,,,,,,,,,,,,,,,,,,,,,,,,,,,,,,,,,,,,,,,,,,,,,,,,,,,,,,,,,,,,,,,,,,,,,,,
,,67503701c4ef8958767a58d9,2026-03-17_14h02.43.287,kallum_motion_pilot_GIST_update_2,2026.1.1,Win32,60.60606061,67503701c4ef8958767a58d9,69b95efdef24cd8a694e89ee,69b960023d95e0bc67e1dd4a,0.1078,0.1079,0,86,86,125,1,seveneight,,,,,,,,,,,,,,,,,,,,,,,,,,,,,,,,,,,,,,,,,,,,,,,,,,,,,,,,,,,,,,,,,,,,,,,,,,,,,,,,,,,,,,,,,,,,,,,,,,,,,,,,,,,,,,,,,,,,,,,,,,,,,,,,,,,,,,,,,
,,67503701c4ef8958767a58d9,2026-03-17_14h02.43.287,kallum_motion_pilot_GIST_update_2,2026.1.1,Win32,60.60606061,67503701c4ef8958767a58d9,69b95efdef24cd8a694e89ee,69b960023d95e0bc67e1dd4a,0.1081,0.1082,0,87,87,130,1,sixfive,,,,,,,,,,,,,,,,,,,,,,,,,,,,,,,,,,,,,,,,,,,,,,,,,,,,,,,,,,,,,,,,,,,,,,,,,,,,,,,,,,,,,,,,,,,,,,,,,,,,,,,,,,,,,,,,,,,,,,,,,,,,,,,,,,,,,,,,,
,,67503701c4ef8958767a58d9,2026-03-17_14h02.43.287,kallum_motion_pilot_GIST_update_2,2026.1.1,Win32,60.60606061,67503701c4ef8958767a58d9,69b95efdef24cd8a694e89ee,69b960023d95e0bc67e1dd4a,0.1083,0.1083,0,88,88,78,1,fourtwo,,,,,,,,,,,,,,,,,,,,,,,,,,,,,,,,,,,,,,,,,,,,,,,,,,,,,,,,,,,,,,,,,,,,,,,,,,,,,,,,,,,,,,,,,,,,,,,,,,,,,,,,,,,,,,,,,,,,,,,,,,,,,,,,,,,,,,,,,
,,67503701c4ef8958767a58d9,2026-03-17_14h02.43.287,kallum_motion_pilot_GIST_update_2,2026.1.1,Win32,60.60606061,67503701c4ef8958767a58d9,69b95efdef24cd8a694e89ee,69b960023d95e0bc67e1dd4a,0.1086,0.1086,0,89,89,44,1,threeone,,,,,,,,,,,,,,,,,,,,,,,,,,,,,,,,,,,,,,,,,,,,,,,,,,,,,,,,,,,,,,,,,,,,,,,,,,,,,,,,,,,,,,,,,,,,,,,,,,,,,,,,,,,,,,,,,,,,,,,,,,,,,,,,,,,,,,,,,
,,67503701c4ef8958767a58d9,2026-03-17_14h02.43.287,kallum_motion_pilot_GIST_update_2,2026.1.1,Win32,60.60606061,67503701c4ef8958767a58d9,69b95efdef24cd8a694e89ee,69b960023d95e0bc67e1dd4a,0.1089,0.1089,0,90,90,107,1,sixeight,,,,,,,,,,,,,,,,,,,,,,,,,,,,,,,,,,,,,,,,,,,,,,,,,,,,,,,,,,,,,,,,,,,,,,,,,,,,,,,,,,,,,,,,,,,,,,,,,,,,,,,,,,,,,,,,,,,,,,,,,,,,,,,,,,,,,,,,,
,,67503701c4ef8958767a58d9,2026-03-17_14h02.43.287,kallum_motion_pilot_GIST_update_2,2026.1.1,Win32,60.60606061,67503701c4ef8958767a58d9,69b95efdef24cd8a694e89ee,69b960023d95e0bc67e1dd4a,0.1091,0.1091,0,91,91,126,1,eightsix,,,,,,,,,,,,,,,,,,,,,,,,,,,,,,,,,,,,,,,,,,,,,,,,,,,,,,,,,,,,,,,,,,,,,,,,,,,,,,,,,,,,,,,,,,,,,,,,,,,,,,,,,,,,,,,,,,,,,,,,,,,,,,,,,,,,,,,,,
,,67503701c4ef8958767a58d9,2026-03-17_14h02.43.287,kallum_motion_pilot_GIST_update_2,2026.1.1,Win32,60.60606061,67503701c4ef8958767a58d9,69b95efdef24cd8a694e89ee,69b960023d95e0bc67e1dd4a,0.1094,0.1094,0,92,92,154,1,sixfive,,,,,,,,,,,,,,,,,,,,,,,,,,,,,,,,,,,,,,,,,,,,,,,,,,,,,,,,,,,,,,,,,,,,,,,,,,,,,,,,,,,,,,,,,,,,,,,,,,,,,,,,,,,,,,,,,,,,,,,,,,,,,,,,,,,,,,,,,
,,67503701c4ef8958767a58d9,2026-03-17_14h02.43.287,kallum_motion_pilot_GIST_update_2,2026.1.1,Win32,60.60606061,67503701c4ef8958767a58d9,69b95efdef24cd8a694e89ee,69b960023d95e0bc67e1dd4a,0.1096,0.1096,0,93,93,2,1,twoone,,,,,,,,,,,,,,,,,,,,,,,,,,,,,,,,,,,,,,,,,,,,,,,,,,,,,,,,,,,,,,,,,,,,,,,,,,,,,,,,,,,,,,,,,,,,,,,,,,,,,,,,,,,,,,,,,,,,,,,,,,,,,,,,,,,,,,,,,
,,67503701c4ef8958767a58d9,2026-03-17_14h02.43.287,kallum_motion_pilot_GIST_update_2,2026.1.1,Win32,60.60606061,67503701c4ef8958767a58d9,69b95efdef24cd8a694e89ee,69b960023d95e0bc67e1dd4a,0.1099,0.1099,0,94,94,16,1,onetwo,,,,,,,,,,,,,,,,,,,,,,,,,,,,,,,,,,,,,,,,,,,,,,,,,,,,,,,,,,,,,,,,,,,,,,,,,,,,,,,,,,,,,,,,,,,,,,,,,,,,,,,,,,,,,,,,,,,,,,,,,,,,,,,,,,,,,,,,,
,,67503701c4ef8958767a58d9,2026-03-17_14h02.43.287,kallum_motion_pilot_GIST_update_2,2026.1.1,Win32,60.60606061,67503701c4ef8958767a58d9,69b95efdef24cd8a694e89ee,69b960023d95e0bc67e1dd4a,0.1101,0.1101,0,95,95,124,1,sevenfive,,,,,,,,,,,,,,,,,,,,,,,,,,,,,,,,,,,,,,,,,,,,,,,,,,,,,,,,,,,,,,,,,,,,,,,,,,,,,,,,,,,,,,,,,,,,,,,,,,,,,,,,,,,,,,,,,,,,,,,,,,,,,,,,,,,,,,,,,
,,67503701c4ef8958767a58d9,2026-03-17_14h02.43.287,kallum_motion_pilot_GIST_update_2,2026.1.1,Win32,60.60606061,67503701c4ef8958767a58d9,69b95efdef24cd8a694e89ee,69b960023d95e0bc67e1dd4a,0.1104,0.1104,0,96,96,62,1,fourtwo,,,,,,,,,,,,,,,,,,,,,,,,,,,,,,,,,,,,,,,,,,,,,,,,,,,,,,,,,,,,,,,,,,,,,,,,,,,,,,,,,,,,,,,,,,,,,,,,,,,,,,,,,,,,,,,,,,,,,,,,,,,,,,,,,,,,,,,,,
,,67503701c4ef8958767a58d9,2026-03-17_14h02.43.287,kallum_motion_pilot_GIST_update_2,2026.1.1,Win32,60.60606061,67503701c4ef8958767a58d9,69b95efdef24cd8a694e89ee,69b960023d95e0bc67e1dd4a,0.1107,0.1107,0,97,97,120,1,fivesix,,,,,,,,,,,,,,,,,,,,,,,,,,,,,,,,,,,,,,,,,,,,,,,,,,,,,,,,,,,,,,,,,,,,,,,,,,,,,,,,,,,,,,,,,,,,,,,,,,,,,,,,,,,,,,,,,,,,,,,,,,,,,,,,,,,,,,,,,
,,67503701c4ef8958767a58d9,2026-03-17_14h02.43.287,kallum_motion_pilot_GIST_update_2,2026.1.1,Win32,60.60606061,67503701c4ef8958767a58d9,69b95efdef24cd8a694e89ee,69b960023d95e0bc67e1dd4a,0.111,0.111,0,98,98,114,1,sixfive,,,,,,,,,,,,,,,,,,,,,,,,,,,,,,,,,,,,,,,,,,,,,,,,,,,,,,,,,,,,,,,,,,,,,,,,,,,,,,,,,,,,,,,,,,,,,,,,,,,,,,,,,,,,,,,,,,,,,,,,,,,,,,,,,,,,,,,,,
,,67503701c4ef8958767a58d9,2026-03-17_14h02.43.287,kallum_motion_pilot_GIST_update_2,2026.1.1,Win32,60.60606061,67503701c4ef8958767a58d9,69b95efdef24cd8a694e89ee,69b960023d95e0bc67e1dd4a,0.1112,0.1112,0,99,99,101,1,seveneight,,,,,,,,,,,,,,,,,,,,,,,,,,,,,,,,,,,,,,,,,,,,,,,,,,,,,,,,,,,,,,,,,,,,,,,,,,,,,,,,,,,,,,,,,,,,,,,,,,,,,,,,,,,,,,,,,,,,,,,,,,,,,,,,,,,,,,,,,
,,67503701c4ef8958767a58d9,2026-03-17_14h02.43.287,kallum_motion_pilot_GIST_update_2,2026.1.1,Win32,60.60606061,67503701c4ef8958767a58d9,69b95efdef24cd8a694e89ee,69b960023d95e0bc67e1dd4a,0.1114,0.1114,0,100,100,53,1,threefour,,,,,,,,,,,,,,,,,,,,,,,,,,,,,,,,,,,,,,,,,,,,,,,,,,,,,,,,,,,,,,,,,,,,,,,,,,,,,,,,,,,,,,,,,,,,,,,,,,,,,,,,,,,,,,,,,,,,,,,,,,,,,,,,,,,,,,,,,
,,67503701c4ef8958767a58d9,2026-03-17_14h02.43.287,kallum_motion_pilot_GIST_update_2,2026.1.1,Win32,60.60606061,67503701c4ef8958767a58d9,69b95efdef24cd8a694e89ee,69b960023d95e0bc67e1dd4a,0.1117,0.1117,0,101,101,57,1,onethree,,,,,,,,,,,,,,,,,,,,,,,,,,,,,,,,,,,,,,,,,,,,,,,,,,,,,,,,,,,,,,,,,,,,,,,,,,,,,,,,,,,,,,,,,,,,,,,,,,,,,,,,,,,,,,,,,,,,,,,,,,,,,,,,,,,,,,,,,
,,67503701c4ef8958767a58d9,2026-03-17_14h02.43.287,kallum_motion_pilot_GIST_update_2,2026.1.1,Win32,60.60606061,67503701c4ef8958767a58d9,69b95efdef24cd8a694e89ee,69b960023d95e0bc67e1dd4a,0.112,0.112,0,102,102,81,1,fiveseven,,,,,,,,,,,,,,,,,,,,,,,,,,,,,,,,,,,,,,,,,,,,,,,,,,,,,,,,,,,,,,,,,,,,,,,,,,,,,,,,,,,,,,,,,,,,,,,,,,,,,,,,,,,,,,,,,,,,,,,,,,,,,,,,,,,,,,,,,
,,67503701c4ef8958767a58d9,2026-03-17_14h02.43.287,kallum_motion_pilot_GIST_update_2,2026.1.1,Win32,60.60606061,67503701c4ef8958767a58d9,69b95efdef24cd8a694e89ee,69b960023d95e0bc67e1dd4a,0.1123,0.1123,0,103,103,69,1,threefour,,,,,,,,,,,,,,,,,,,,,,,,,,,,,,,,,,,,,,,,,,,,,,,,,,,,,,,,,,,,,,,,,,,,,,,,,,,,,,,,,,,,,,,,,,,,,,,,,,,,,,,,,,,,,,,,,,,,,,,,,,,,,,,,,,,,,,,,,
,,67503701c4ef8958767a58d9,2026-03-17_14h02.43.287,kallum_motion_pilot_GIST_update_2,2026.1.1,Win32,60.60606061,67503701c4ef8958767a58d9,69b95efdef24cd8a694e89ee,69b960023d95e0bc67e1dd4a,0.1125,0.1125,0,104,104,106,1,sixfive,,,,,,,,,,,,,,,,,,,,,,,,,,,,,,,,,,,,,,,,,,,,,,,,,,,,,,,,,,,,,,,,,,,,,,,,,,,,,,,,,,,,,,,,,,,,,,,,,,,,,,,,,,,,,,,,,,,,,,,,,,,,,,,,,,,,,,,,,
,,67503701c4ef8958767a58d9,2026-03-17_14h02.43.287,kallum_motion_pilot_GIST_update_2,2026.1.1,Win32,60.60606061,67503701c4ef8958767a58d9,69b95efdef24cd8a694e89ee,69b960023d95e0bc67e1dd4a,0.1127,0.1128,0,105,105,45,1,threefour,,,,,,,,,,,,,,,,,,,,,,,,,,,,,,,,,,,,,,,,,,,,,,,,,,,,,,,,,,,,,,,,,,,,,,,,,,,,,,,,,,,,,,,,,,,,,,,,,,,,,,,,,,,,,,,,,,,,,,,,,,,,,,,,,,,,,,,,,
,,67503701c4ef8958767a58d9,2026-03-17_14h02.43.287,kallum_motion_pilot_GIST_update_2,2026.1.1,Win32,60.60606061,67503701c4ef8958767a58d9,69b95efdef24cd8a694e89ee,69b960023d95e0bc67e1dd4a,0.113,0.113,0,106,106,59,1,twofour,,,,,,,,,,,,,,,,,,,,,,,,,,,,,,,,,,,,,,,,,,,,,,,,,,,,,,,,,,,,,,,,,,,,,,,,,,,,,,,,,,,,,,,,,,,,,,,,,,,,,,,,,,,,,,,,,,,,,,,,,,,,,,,,,,,,,,,,,
,,67503701c4ef8958767a58d9,2026-03-17_14h02.43.287,kallum_motion_pilot_GIST_update_2,2026.1.1,Win32,60.60606061,67503701c4ef8958767a58d9,69b95efdef24cd8a694e89ee,69b960023d95e0bc67e1dd4a,0.1133,0.1133,0,107,107,58,1,twoone,,,,,,,,,,,,,,,,,,,,,,,,,,,,,,,,,,,,,,,,,,,,,,,,,,,,,,,,,,,,,,,,,,,,,,,,,,,,,,,,,,,,,,,,,,,,,,,,,,,,,,,,,,,,,,,,,,,,,,,,,,,,,,,,,,,,,,,,,
,,67503701c4ef8958767a58d9,2026-03-17_14h02.43.287,kallum_motion_pilot_GIST_update_2,2026.1.1,Win32,60.60606061,67503701c4ef8958767a58d9,69b95efdef24cd8a694e89ee,69b960023d95e0bc67e1dd4a,0.1135,0.1135,0,108,108,103,1,eightseven,,,,,,,,,,,,,,,,,,,,,,,,,,,,,,,,,,,,,,,,,,,,,,,,,,,,,,,,,,,,,,,,,,,,,,,,,,,,,,,,,,,,,,,,,,,,,,,,,,,,,,,,,,,,,,,,,,,,,,,,,,,,,,,,,,,,,,,,,
,,67503701c4ef8958767a58d9,2026-03-17_14h02.43.287,kallum_motion_pilot_GIST_update_2,2026.1.1,Win32,60.60606061,67503701c4ef8958767a58d9,69b95efdef24cd8a694e89ee,69b960023d95e0bc67e1dd4a,0.1138,0.1138,0,109,109,0,1,onetwo,,,,,,,,,,,,,,,,,,,,,,,,,,,,,,,,,,,,,,,,,,,,,,,,,,,,,,,,,,,,,,,,,,,,,,,,,,,,,,,,,,,,,,,,,,,,,,,,,,,,,,,,,,,,,,,,,,,,,,,,,,,,,,,,,,,,,,,,,
,,67503701c4ef8958767a58d9,2026-03-17_14h02.43.287,kallum_motion_pilot_GIST_update_2,2026.1.1,Win32,60.60606061,67503701c4ef8958767a58d9,69b95efdef24cd8a694e89ee,69b960023d95e0bc67e1dd4a,0.1141,0.1141,0,110,110,27,1,twofour,,,,,,,,,,,,,,,,,,,,,,,,,,,,,,,,,,,,,,,,,,,,,,,,,,,,,,,,,,,,,,,,,,,,,,,,,,,,,,,,,,,,,,,,,,,,,,,,,,,,,,,,,,,,,,,,,,,,,,,,,,,,,,,,,,,,,,,,,
,,67503701c4ef8958767a58d9,2026-03-17_14h02.43.287,kallum_motion_pilot_GIST_update_2,2026.1.1,Win32,60.60606061,67503701c4ef8958767a58d9,69b95efdef24cd8a694e89ee,69b960023d95e0bc67e1dd4a,0.1143,0.1143,0,111,111,118,1,eightsix,,,,,,,,,,,,,,,,,,,,,,,,,,,,,,,,,,,,,,,,,,,,,,,,,,,,,,,,,,,,,,,,,,,,,,,,,,,,,,,,,,,,,,,,,,,,,,,,,,,,,,,,,,,,,,,,,,,,,,,,,,,,,,,,,,,,,,,,,
,,67503701c4ef8958767a58d9,2026-03-17_14h02.43.287,kallum_motion_pilot_GIST_update_2,2026.1.1,Win32,60.60606061,67503701c4ef8958767a58d9,69b95efdef24cd8a694e89ee,69b960023d95e0bc67e1dd4a,0.1146,0.1146,0,112,112,102,1,eightsix,,,,,,,,,,,,,,,,,,,,,,,,,,,,,,,,,,,,,,,,,,,,,,,,,,,,,,,,,,,,,,,,,,,,,,,,,,,,,,,,,,,,,,,,,,,,,,,,,,,,,,,,,,,,,,,,,,,,,,,,,,,,,,,,,,,,,,,,,
,,67503701c4ef8958767a58d9,2026-03-17_14h02.43.287,kallum_motion_pilot_GIST_update_2,2026.1.1,Win32,60.60606061,67503701c4ef8958767a58d9,69b95efdef24cd8a694e89ee,69b960023d95e0bc67e1dd4a,0.1149,0.1149,0,113,113,127,1,eightseven,,,,,,,,,,,,,,,,,,,,,,,,,,,,,,,,,,,,,,,,,,,,,,,,,,,,,,,,,,,,,,,,,,,,,,,,,,,,,,,,,,,,,,,,,,,,,,,,,,,,,,,,,,,,,,,,,,,,,,,,,,,,,,,,,,,,,,,,,
,,67503701c4ef8958767a58d9,2026-03-17_14h02.43.287,kallum_motion_pilot_GIST_update_2,2026.1.1,Win32,60.60606061,67503701c4ef8958767a58d9,69b95efdef24cd8a694e89ee,69b960023d95e0bc67e1dd4a,0.1151,0.1151,0,114,114,111,1,eightseven,,,,,,,,,,,,,,,,,,,,,,,,,,,,,,,,,,,,,,,,,,,,,,,,,,,,,,,,,,,,,,,,,,,,,,,,,,,,,,,,,,,,,,,,,,,,,,,,,,,,,,,,,,,,,,,,,,,,,,,,,,,,,,,,,,,,,,,,,
,,67503701c4ef8958767a58d9,2026-03-17_14h02.43.287,kallum_motion_pilot_GIST_update_2,2026.1.1,Win32,60.60606061,67503701c4ef8958767a58d9,69b95efdef24cd8a694e89ee,69b960023d95e0bc67e1dd4a,0.1154,0.1154,0,115,115,22,1,fourtwo,,,,,,,,,,,,,,,,,,,,,,,,,,,,,,,,,,,,,,,,,,,,,,,,,,,,,,,,,,,,,,,,,,,,,,,,,,,,,,,,,,,,,,,,,,,,,,,,,,,,,,,,,,,,,,,,,,,,,,,,,,,,,,,,,,,,,,,,,
,,67503701c4ef8958767a58d9,2026-03-17_14h02.43.287,kallum_motion_pilot_GIST_update_2,2026.1.1,Win32,60.60606061,67503701c4ef8958767a58d9,69b95efdef24cd8a694e89ee,69b960023d95e0bc67e1dd4a,0.1157,0.1158,0,116,116,122,1,sixfive,,,,,,,,,,,,,,,,,,,,,,,,,,,,,,,,,,,,,,,,,,,,,,,,,,,,,,,,,,,,,,,,,,,,,,,,,,,,,,,,,,,,,,,,,,,,,,,,,,,,,,,,,,,,,,,,,,,,,,,,,,,,,,,,,,,,,,,,,
,,67503701c4ef8958767a58d9,2026-03-17_14h02.43.287,kallum_motion_pilot_GIST_update_2,2026.1.1,Win32,60.60606061,67503701c4ef8958767a58d9,69b95efdef24cd8a694e89ee,69b960023d95e0bc67e1dd4a,0.1161,0.1161,0,117,117,67,1,twofour,,,,,,,,,,,,,,,,,,,,,,,,,,,,,,,,,,,,,,,,,,,,,,,,,,,,,,,,,,,,,,,,,,,,,,,,,,,,,,,,,,,,,,,,,,,,,,,,,,,,,,,,,,,,,,,,,,,,,,,,,,,,,,,,,,,,,,,,,
,,67503701c4ef8958767a58d9,2026-03-17_14h02.43.287,kallum_motion_pilot_GIST_update_2,2026.1.1,Win32,60.60606061,67503701c4ef8958767a58d9,69b95efdef24cd8a694e89ee,69b960023d95e0bc67e1dd4a,0.1163,0.1163,0,118,118,19,1,twofour,,,,,,,,,,,,,,,,,,,,,,,,,,,,,,,,,,,,,,,,,,,,,,,,,,,,,,,,,,,,,,,,,,,,,,,,,,,,,,,,,,,,,,,,,,,,,,,,,,,,,,,,,,,,,,,,,,,,,,,,,,,,,,,,,,,,,,,,,
,,67503701c4ef8958767a58d9,2026-03-17_14h02.43.287,kallum_motion_pilot_GIST_update_2,2026.1.1,Win32,60.60606061,67503701c4ef8958767a58d9,69b95efdef24cd8a694e89ee,69b960023d95e0bc67e1dd4a,0.1167,0.1167,0,119,119,157,1,seveneight,,,,,,,,,,,,,,,,,,,,,,,,,,,,,,,,,,,,,,,,,,,,,,,,,,,,,,,,,,,,,,,,,,,,,,,,,,,,,,,,,,,,,,,,,,,,,,,,,,,,,,,,,,,,,,,,,,,,,,,,,,,,,,,,,,,,,,,,,
,,67503701c4ef8958767a58d9,2026-03-17_14h02.43.287,kallum_motion_pilot_GIST_update_2,2026.1.1,Win32,60.60606061,67503701c4ef8958767a58d9,69b95efdef24cd8a694e89ee,69b960023d95e0bc67e1dd4a,0.117,0.117,0,120,120,6,1,fourtwo,,,,,,,,,,,,,,,,,,,,,,,,,,,,,,,,,,,,,,,,,,,,,,,,,,,,,,,,,,,,,,,,,,,,,,,,,,,,,,,,,,,,,,,,,,,,,,,,,,,,,,,,,,,,,,,,,,,,,,,,,,,,,,,,,,,,,,,,,
,,67503701c4ef8958767a58d9,2026-03-17_14h02.43.287,kallum_motion_pilot_GIST_update_2,2026.1.1,Win32,60.60606061,67503701c4ef8958767a58d9,69b95efdef24cd8a694e89ee,69b960023d95e0bc67e1dd4a,0.1173,0.1173,0,121,121,13,1,threefour,,,,,,,,,,,,,,,,,,,,,,,,,,,,,,,,,,,,,,,,,,,,,,,,,,,,,,,,,,,,,,,,,,,,,,,,,,,,,,,,,,,,,,,,,,,,,,,,,,,,,,,,,,,,,,,,,,,,,,,,,,,,,,,,,,,,,,,,,
,,67503701c4ef8958767a58d9,2026-03-17_14h02.43.287,kallum_motion_pilot_GIST_update_2,2026.1.1,Win32,60.60606061,67503701c4ef8958767a58d9,69b95efdef24cd8a694e89ee,69b960023d95e0bc67e1dd4a,0.1175,0.1176,0,122,122,41,1,onethree,,,,,,,,,,,,,,,,,,,,,,,,,,,,,,,,,,,,,,,,,,,,,,,,,,,,,,,,,,,,,,,,,,,,,,,,,,,,,,,,,,,,,,,,,,,,,,,,,,,,,,,,,,,,,,,,,,,,,,,,,,,,,,,,,,,,,,,,,
,,67503701c4ef8958767a58d9,2026-03-17_14h02.43.287,kallum_motion_pilot_GIST_update_2,2026.1.1,Win32,60.60606061,67503701c4ef8958767a58d9,69b95efdef24cd8a694e89ee,69b960023d95e0bc67e1dd4a,0.1179,0.1179,0,123,123,26,1,twoone,,,,,,,,,,,,,,,,,,,,,,,,,,,,,,,,,,,,,,,,,,,,,,,,,,,,,,,,,,,,,,,,,,,,,,,,,,,,,,,,,,,,,,,,,,,,,,,,,,,,,,,,,,,,,,,,,,,,,,,,,,,,,,,,,,,,,,,,,
,,67503701c4ef8958767a58d9,2026-03-17_14h02.43.287,kallum_motion_pilot_GIST_update_2,2026.1.1,Win32,60.60606061,67503701c4ef8958767a58d9,69b95efdef24cd8a694e89ee,69b960023d95e0bc67e1dd4a,0.1182,0.1183,0,124,124,72,1,onetwo,,,,,,,,,,,,,,,,,,,,,,,,,,,,,,,,,,,,,,,,,,,,,,,,,,,,,,,,,,,,,,,,,,,,,,,,,,,,,,,,,,,,,,,,,,,,,,,,,,,,,,,,,,,,,,,,,,,,,,,,,,,,,,,,,,,,,,,,,
,,67503701c4ef8958767a58d9,2026-03-17_14h02.43.287,kallum_motion_pilot_GIST_update_2,2026.1.1,Win32,60.60606061,67503701c4ef8958767a58d9,69b95efdef24cd8a694e89ee,69b960023d95e0bc67e1dd4a,0.1185,0.1186,0,125,125,39,1,fourthree,,,,,,,,,,,,,,,,,,,,,,,,,,,,,,,,,,,,,,,,,,,,,,,,,,,,,,,,,,,,,,,,,,,,,,,,,,,,,,,,,,,,,,,,,,,,,,,,,,,,,,,,,,,,,,,,,,,,,,,,,,,,,,,,,,,,,,,,,
,,67503701c4ef8958767a58d9,2026-03-17_14h02.43.287,kallum_motion_pilot_GIST_update_2,2026.1.1,Win32,60.60606061,67503701c4ef8958767a58d9,69b95efdef24cd8a694e89ee,69b960023d95e0bc67e1dd4a,0.1191,0.1191,0,126,126,28,1,threeone,,,,,,,,,,,,,,,,,,,,,,,,,,,,,,,,,,,,,,,,,,,,,,,,,,,,,,,,,,,,,,,,,,,,,,,,,,,,,,,,,,,,,,,,,,,,,,,,,,,,,,,,,,,,,,,,,,,,,,,,,,,,,,,,,,,,,,,,,
,,67503701c4ef8958767a58d9,2026-03-17_14h02.43.287,kallum_motion_pilot_GIST_update_2,2026.1.1,Win32,60.60606061,67503701c4ef8958767a58d9,69b95efdef24cd8a694e89ee,69b960023d95e0bc67e1dd4a,0.1193,0.1193,0,127,127,99,1,sixeight,,,,,,,,,,,,,,,,,,,,,,,,,,,,,,,,,,,,,,,,,,,,,,,,,,,,,,,,,,,,,,,,,,,,,,,,,,,,,,,,,,,,,,,,,,,,,,,,,,,,,,,,,,,,,,,,,,,,,,,,,,,,,,,,,,,,,,,,,
,,67503701c4ef8958767a58d9,2026-03-17_14h02.43.287,kallum_motion_pilot_GIST_update_2,2026.1.1,Win32,60.60606061,67503701c4ef8958767a58d9,69b95efdef24cd8a694e89ee,69b960023d95e0bc67e1dd4a,0.1196,0.1196,0,128,128,73,1,onethree,,,,,,,,,,,,,,,,,,,,,,,,,,,,,,,,,,,,,,,,,,,,,,,,,,,,,,,,,,,,,,,,,,,,,,,,,,,,,,,,,,,,,,,,,,,,,,,,,,,,,,,,,,,,,,,,,,,,,,,,,,,,,,,,,,,,,,,,,
,,67503701c4ef8958767a58d9,2026-03-17_14h02.43.287,kallum_motion_pilot_GIST_update_2,2026.1.1,Win32,60.60606061,67503701c4ef8958767a58d9,69b95efdef24cd8a694e89ee,69b960023d95e0bc67e1dd4a,0.12,0.12,0,129,129,40,1,onetwo,,,,,,,,,,,,,,,,,,,,,,,,,,,,,,,,,,,,,,,,,,,,,,,,,,,,,,,,,,,,,,,,,,,,,,,,,,,,,,,,,,,,,,,,,,,,,,,,,,,,,,,,,,,,,,,,,,,,,,,,,,,,,,,,,,,,,,,,,
,,67503701c4ef8958767a58d9,2026-03-17_14h02.43.287,kallum_motion_pilot_GIST_update_2,2026.1.1,Win32,60.60606061,67503701c4ef8958767a58d9,69b95efdef24cd8a694e89ee,69b960023d95e0bc67e1dd4a,0.1203,0.1203,0,130,130,25,1,onethree,,,,,,,,,,,,,,,,,,,,,,,,,,,,,,,,,,,,,,,,,,,,,,,,,,,,,,,,,,,,,,,,,,,,,,,,,,,,,,,,,,,,,,,,,,,,,,,,,,,,,,,,,,,,,,,,,,,,,,,,,,,,,,,,,,,,,,,,,
,,67503701c4ef8958767a58d9,2026-03-17_14h02.43.287,kallum_motion_pilot_GIST_update_2,2026.1.1,Win32,60.60606061,67503701c4ef8958767a58d9,69b95efdef24cd8a694e89ee,69b960023d95e0bc67e1dd4a,0.1206,0.1206,0,131,131,146,1,sixfive,,,,,,,,,,,,,,,,,,,,,,,,,,,,,,,,,,,,,,,,,,,,,,,,,,,,,,,,,,,,,,,,,,,,,,,,,,,,,,,,,,,,,,,,,,,,,,,,,,,,,,,,,,,,,,,,,,,,,,,,,,,,,,,,,,,,,,,,,
,,67503701c4ef8958767a58d9,2026-03-17_14h02.43.287,kallum_motion_pilot_GIST_update_2,2026.1.1,Win32,60.60606061,67503701c4ef8958767a58d9,69b95efdef24cd8a694e89ee,69b960023d95e0bc67e1dd4a,0.1208,0.1209,0,132,132,138,1,sixfive,,,,,,,,,,,,,,,,,,,,,,,,,,,,,,,,,,,,,,,,,,,,,,,,,,,,,,,,,,,,,,,,,,,,,,,,,,,,,,,,,,,,,,,,,,,,,,,,,,,,,,,,,,,,,,,,,,,,,,,,,,,,,,,,,,,,,,,,,
,,67503701c4ef8958767a58d9,2026-03-17_14h02.43.287,kallum_motion_pilot_GIST_update_2,2026.1.1,Win32,60.60606061,67503701c4ef8958767a58d9,69b95efdef24cd8a694e89ee,69b960023d95e0bc67e1dd4a,0.1212,0.1212,0,133,133,50,1,twoone,,,,,,,,,,,,,,,,,,,,,,,,,,,,,,,,,,,,,,,,,,,,,,,,,,,,,,,,,,,,,,,,,,,,,,,,,,,,,,,,,,,,,,,,,,,,,,,,,,,,,,,,,,,,,,,,,,,,,,,,,,,,,,,,,,,,,,,,,
,,67503701c4ef8958767a58d9,2026-03-17_14h02.43.287,kallum_motion_pilot_GIST_update_2,2026.1.1,Win32,60.60606061,67503701c4ef8958767a58d9,69b95efdef24cd8a694e89ee,69b960023d95e0bc67e1dd4a,0.1214,0.1214,0,134,134,85,1,seveneight,,,,,,,,,,,,,,,,,,,,,,,,,,,,,,,,,,,,,,,,,,,,,,,,,,,,,,,,,,,,,,,,,,,,,,,,,,,,,,,,,,,,,,,,,,,,,,,,,,,,,,,,,,,,,,,,,,,,,,,,,,,,,,,,,,,,,,,,,
,,67503701c4ef8958767a58d9,2026-03-17_14h02.43.287,kallum_motion_pilot_GIST_update_2,2026.1.1,Win32,60.60606061,67503701c4ef8958767a58d9,69b95efdef24cd8a694e89ee,69b960023d95e0bc67e1dd4a,0.1217,0.1217,0,135,135,159,1,eightseven,,,,,,,,,,,,,,,,,,,,,,,,,,,,,,,,,,,,,,,,,,,,,,,,,,,,,,,,,,,,,,,,,,,,,,,,,,,,,,,,,,,,,,,,,,,,,,,,,,,,,,,,,,,,,,,,,,,,,,,,,,,,,,,,,,,,,,,,,
,,67503701c4ef8958767a58d9,2026-03-17_14h02.43.287,kallum_motion_pilot_GIST_update_2,2026.1.1,Win32,60.60606061,67503701c4ef8958767a58d9,69b95efdef24cd8a694e89ee,69b960023d95e0bc67e1dd4a,0.122,0.122,0,136,136,129,1,fiveseven,,,,,,,,,,,,,,,,,,,,,,,,,,,,,,,,,,,,,,,,,,,,,,,,,,,,,,,,,,,,,,,,,,,,,,,,,,,,,,,,,,,,,,,,,,,,,,,,,,,,,,,,,,,,,,,,,,,,,,,,,,,,,,,,,,,,,,,,,
,,67503701c4ef8958767a58d9,2026-03-17_14h02.43.287,kallum_motion_pilot_GIST_update_2,2026.1.1,Win32,60.60606061,67503701c4ef8958767a58d9,69b95efdef24cd8a694e89ee,69b960023d95e0bc67e1dd4a,0.1224,0.1224,0,137,137,76,1,threeone,,,,,,,,,,,,,,,,,,,,,,,,,,,,,,,,,,,,,,,,,,,,,,,,,,,,,,,,,,,,,,,,,,,,,,,,,,,,,,,,,,,,,,,,,,,,,,,,,,,,,,,,,,,,,,,,,,,,,,,,,,,,,,,,,,,,,,,,,
,,67503701c4ef8958767a58d9,2026-03-17_14h02.43.287,kallum_motion_pilot_GIST_update_2,2026.1.1,Win32,60.60606061,67503701c4ef8958767a58d9,69b95efdef24cd8a694e89ee,69b960023d95e0bc67e1dd4a,0.1227,0.1227,0,138,138,17,1,onethree,,,,,,,,,,,,,,,,,,,,,,,,,,,,,,,,,,,,,,,,,,,,,,,,,,,,,,,,,,,,,,,,,,,,,,,,,,,,,,,,,,,,,,,,,,,,,,,,,,,,,,,,,,,,,,,,,,,,,,,,,,,,,,,,,,,,,,,,,
,,67503701c4ef8958767a58d9,2026-03-17_14h02.43.287,kallum_motion_pilot_GIST_update_2,2026.1.1,Win32,60.60606061,67503701c4ef8958767a58d9,69b95efdef24cd8a694e89ee,69b960023d95e0bc67e1dd4a,0.1229,0.123,0,139,139,29,1,threefour,,,,,,,,,,,,,,,,,,,,,,,,,,,,,,,,,,,,,,,,,,,,,,,,,,,,,,,,,,,,,,,,,,,,,,,,,,,,,,,,,,,,,,,,,,,,,,,,,,,,,,,,,,,,,,,,,,,,,,,,,,,,,,,,,,,,,,,,,
,,67503701c4ef8958767a58d9,2026-03-17_14h02.43.287,kallum_motion_pilot_GIST_update_2,2026.1.1,Win32,60.60606061,67503701c4ef8958767a58d9,69b95efdef24cd8a694e89ee,69b960023d95e0bc67e1dd4a,0.1233,0.1233,0,140,140,149,1,seveneight,,,,,,,,,,,,,,,,,,,,,,,,,,,,,,,,,,,,,,,,,,,,,,,,,,,,,,,,,,,,,,,,,,,,,,,,,,,,,,,,,,,,,,,,,,,,,,,,,,,,,,,,,,,,,,,,,,,,,,,,,,,,,,,,,,,,,,,,,
,,67503701c4ef8958767a58d9,2026-03-17_14h02.43.287,kallum_motion_pilot_GIST_update_2,2026.1.1,Win32,60.60606061,67503701c4ef8958767a58d9,69b95efdef24cd8a694e89ee,69b960023d95e0bc67e1dd4a,0.1236,0.1236,0,141,141,160,1,fivesix,,,,,,,,,,,,,,,,,,,,,,,,,,,,,,,,,,,,,,,,,,,,,,,,,,,,,,,,,,,,,,,,,,,,,,,,,,,,,,,,,,,,,,,,,,,,,,,,,,,,,,,,,,,,,,,,,,,,,,,,,,,,,,,,,,,,,,,,,
,,67503701c4ef8958767a58d9,2026-03-17_14h02.43.287,kallum_motion_pilot_GIST_update_2,2026.1.1,Win32,60.60606061,67503701c4ef8958767a58d9,69b95efdef24cd8a694e89ee,69b960023d95e0bc67e1dd4a,0.1238,0.1238,0,142,142,86,1,eightsix,,,,,,,,,,,,,,,,,,,,,,,,,,,,,,,,,,,,,,,,,,,,,,,,,,,,,,,,,,,,,,,,,,,,,,,,,,,,,,,,,,,,,,,,,,,,,,,,,,,,,,,,,,,,,,,,,,,,,,,,,,,,,,,,,,,,,,,,,
,,67503701c4ef8958767a58d9,2026-03-17_14h02.43.287,kallum_motion_pilot_GIST_update_2,2026.1.1,Win32,60.60606061,67503701c4ef8958767a58d9,69b95efdef24cd8a694e89ee,69b960023d95e0bc67e1dd4a,0.1242,0.1242,0,143,143,60,1,threeone,,,,,,,,,,,,,,,,,,,,,,,,,,,,,,,,,,,,,,,,,,,,,,,,,,,,,,,,,,,,,,,,,,,,,,,,,,,,,,,,,,,,,,,,,,,,,,,,,,,,,,,,,,,,,,,,,,,,,,,,,,,,,,,,,,,,,,,,,
,,67503701c4ef8958767a58d9,2026-03-17_14h02.43.287,kallum_motion_pilot_GIST_update_2,2026.1.1,Win32,60.60606061,67503701c4ef8958767a58d9,69b95efdef24cd8a694e89ee,69b960023d95e0bc67e1dd4a,0.1244,0.1245,0,144,144,55,1,fourthree,,,,,,,,,,,,,,,,,,,,,,,,,,,,,,,,,,,,,,,,,,,,,,,,,,,,,,,,,,,,,,,,,,,,,,,,,,,,,,,,,,,,,,,,,,,,,,,,,,,,,,,,,,,,,,,,,,,,,,,,,,,,,,,,,,,,,,,,,
,,67503701c4ef8958767a58d9,2026-03-17_14h02.43.287,kallum_motion_pilot_GIST_update_2,2026.1.1,Win32,60.60606061,67503701c4ef8958767a58d9,69b95efdef24cd8a694e89ee,69b960023d95e0bc67e1dd4a,0.1247,0.1247,0,145,145,7,1,fourthree,,,,,,,,,,,,,,,,,,,,,,,,,,,,,,,,,,,,,,,,,,,,,,,,,,,,,,,,,,,,,,,,,,,,,,,,,,,,,,,,,,,,,,,,,,,,,,,,,,,,,,,,,,,,,,,,,,,,,,,,,,,,,,,,,,,,,,,,,
,,67503701c4ef8958767a58d9,2026-03-17_14h02.43.287,kallum_motion_pilot_GIST_update_2,2026.1.1,Win32,60.60606061,67503701c4ef8958767a58d9,69b95efdef24cd8a694e89ee,69b960023d95e0bc67e1dd4a,0.1268,0.1268,0,146,146,137,1,fiveseven,,,,,,,,,,,,,,,,,,,,,,,,,,,,,,,,,,,,,,,,,,,,,,,,,,,,,,,,,,,,,,,,,,,,,,,,,,,,,,,,,,,,,,,,,,,,,,,,,,,,,,,,,,,,,,,,,,,,,,,,,,,,,,,,,,,,,,,,,
,,67503701c4ef8958767a58d9,2026-03-17_14h02.43.287,kallum_motion_pilot_GIST_update_2,2026.1.1,Win32,60.60606061,67503701c4ef8958767a58d9,69b95efdef24cd8a694e89ee,69b960023d95e0bc67e1dd4a,0.1272,0.1272,0,147,147,147,1,sixeight,,,,,,,,,,,,,,,,,,,,,,,,,,,,,,,,,,,,,,,,,,,,,,,,,,,,,,,,,,,,,,,,,,,,,,,,,,,,,,,,,,,,,,,,,,,,,,,,,,,,,,,,,,,,,,,,,,,,,,,,,,,,,,,,,,,,,,,,,
,,67503701c4ef8958767a58d9,2026-03-17_14h02.43.287,kallum_motion_pilot_GIST_update_2,2026.1.1,Win32,60.60606061,67503701c4ef8958767a58d9,69b95efdef24cd8a694e89ee,69b960023d95e0bc67e1dd4a,0.1275,0.1275,0,148,148,32,1,onetwo,,,,,,,,,,,,,,,,,,,,,,,,,,,,,,,,,,,,,,,,,,,,,,,,,,,,,,,,,,,,,,,,,,,,,,,,,,,,,,,,,,,,,,,,,,,,,,,,,,,,,,,,,,,,,,,,,,,,,,,,,,,,,,,,,,,,,,,,,
,,67503701c4ef8958767a58d9,2026-03-17_14h02.43.287,kallum_motion_pilot_GIST_update_2,2026.1.1,Win32,60.60606061,67503701c4ef8958767a58d9,69b95efdef24cd8a694e89ee,69b960023d95e0bc67e1dd4a,0.1279,0.1279,0,149,149,135,1,eightseven,,,,,,,,,,,,,,,,,,,,,,,,,,,,,,,,,,,,,,,,,,,,,,,,,,,,,,,,,,,,,,,,,,,,,,,,,,,,,,,,,,,,,,,,,,,,,,,,,,,,,,,,,,,,,,,,,,,,,,,,,,,,,,,,,,,,,,,,,
,,67503701c4ef8958767a58d9,2026-03-17_14h02.43.287,kallum_motion_pilot_GIST_update_2,2026.1.1,Win32,60.60606061,67503701c4ef8958767a58d9,69b95efdef24cd8a694e89ee,69b960023d95e0bc67e1dd4a,0.1281,0.1281,0,150,150,150,1,eightsix,,,,,,,,,,,,,,,,,,,,,,,,,,,,,,,,,,,,,,,,,,,,,,,,,,,,,,,,,,,,,,,,,,,,,,,,,,,,,,,,,,,,,,,,,,,,,,,,,,,,,,,,,,,,,,,,,,,,,,,,,,,,,,,,,,,,,,,,,
,,67503701c4ef8958767a58d9,2026-03-17_14h02.43.287,kallum_motion_pilot_GIST_update_2,2026.1.1,Win32,60.60606061,67503701c4ef8958767a58d9,69b95efdef24cd8a694e89ee,69b960023d95e0bc67e1dd4a,0.1284,0.1284,0,151,151,87,1,eightseven,,,,,,,,,,,,,,,,,,,,,,,,,,,,,,,,,,,,,,,,,,,,,,,,,,,,,,,,,,,,,,,,,,,,,,,,,,,,,,,,,,,,,,,,,,,,,,,,,,,,,,,,,,,,,,,,,,,,,,,,,,,,,,,,,,,,,,,,,
,,67503701c4ef8958767a58d9,2026-03-17_14h02.43.287,kallum_motion_pilot_GIST_update_2,2026.1.1,Win32,60.60606061,67503701c4ef8958767a58d9,69b95efdef24cd8a694e89ee,69b960023d95e0bc67e1dd4a,0.1287,0.1287,0,152,152,20,1,threeone,,,,,,,,,,,,,,,,,,,,,,,,,,,,,,,,,,,,,,,,,,,,,,,,,,,,,,,,,,,,,,,,,,,,,,,,,,,,,,,,,,,,,,,,,,,,,,,,,,,,,,,,,,,,,,,,,,,,,,,,,,,,,,,,,,,,,,,,,
,,67503701c4ef8958767a58d9,2026-03-17_14h02.43.287,kallum_motion_pilot_GIST_update_2,2026.1.1,Win32,60.60606061,67503701c4ef8958767a58d9,69b95efdef24cd8a694e89ee,69b960023d95e0bc67e1dd4a,0.129,0.129,0,153,153,24,1,onetwo,,,,,,,,,,,,,,,,,,,,,,,,,,,,,,,,,,,,,,,,,,,,,,,,,,,,,,,,,,,,,,,,,,,,,,,,,,,,,,,,,,,,,,,,,,,,,,,,,,,,,,,,,,,,,,,,,,,,,,,,,,,,,,,,,,,,,,,,,
,,67503701c4ef8958767a58d9,2026-03-17_14h02.43.287,kallum_motion_pilot_GIST_update_2,2026.1.1,Win32,60.60606061,67503701c4ef8958767a58d9,69b95efdef24cd8a694e89ee,69b960023d95e0bc67e1dd4a,0.1293,0.1293,0,154,154,140,1,sevenfive,,,,,,,,,,,,,,,,,,,,,,,,,,,,,,,,,,,,,,,,,,,,,,,,,,,,,,,,,,,,,,,,,,,,,,,,,,,,,,,,,,,,,,,,,,,,,,,,,,,,,,,,,,,,,,,,,,,,,,,,,,,,,,,,,,,,,,,,,
,,67503701c4ef8958767a58d9,2026-03-17_14h02.43.287,kallum_motion_pilot_GIST_update_2,2026.1.1,Win32,60.60606061,67503701c4ef8958767a58d9,69b95efdef24cd8a694e89ee,69b960023d95e0bc67e1dd4a,0.1295,0.1295,0,155,155,66,1,twoone,,,,,,,,,,,,,,,,,,,,,,,,,,,,,,,,,,,,,,,,,,,,,,,,,,,,,,,,,,,,,,,,,,,,,,,,,,,,,,,,,,,,,,,,,,,,,,,,,,,,,,,,,,,,,,,,,,,,,,,,,,,,,,,,,,,,,,,,,
,,67503701c4ef8958767a58d9,2026-03-17_14h02.43.287,kallum_motion_pilot_GIST_update_2,2026.1.1,Win32,60.60606061,67503701c4ef8958767a58d9,69b95efdef24cd8a694e89ee,69b960023d95e0bc67e1dd4a,0.1298,0.1298,0,156,156,94,1,eightsix,,,,,,,,,,,,,,,,,,,,,,,,,,,,,,,,,,,,,,,,,,,,,,,,,,,,,,,,,,,,,,,,,,,,,,,,,,,,,,,,,,,,,,,,,,,,,,,,,,,,,,,,,,,,,,,,,,,,,,,,,,,,,,,,,,,,,,,,,
,,67503701c4ef8958767a58d9,2026-03-17_14h02.43.287,kallum_motion_pilot_GIST_update_2,2026.1.1,Win32,60.60606061,67503701c4ef8958767a58d9,69b95efdef24cd8a694e89ee,69b960023d95e0bc67e1dd4a,0.1301,0.1301,0,157,157,161,1,fiveseven,,,,,,,,,,,,,,,,,,,,,,,,,,,,,,,,,,,,,,,,,,,,,,,,,,,,,,,,,,,,,,,,,,,,,,,,,,,,,,,,,,,,,,,,,,,,,,,,,,,,,,,,,,,,,,,,,,,,,,,,,,,,,,,,,,,,,,,,,
,,67503701c4ef8958767a58d9,2026-03-17_14h02.43.287,kallum_motion_pilot_GIST_update_2,2026.1.1,Win32,60.60606061,67503701c4ef8958767a58d9,69b95efdef24cd8a694e89ee,69b960023d95e0bc67e1dd4a,0.1304,0.1304,0,158,158,151,1,eightseven,,,,,,,,,,,,,,,,,,,,,,,,,,,,,,,,,,,,,,,,,,,,,,,,,,,,,,,,,,,,,,,,,,,,,,,,,,,,,,,,,,,,,,,,,,,,,,,,,,,,,,,,,,,,,,,,,,,,,,,,,,,,,,,,,,,,,,,,,
,,67503701c4ef8958767a58d9,2026-03-17_14h02.43.287,kallum_motion_pilot_GIST_update_2,2026.1.1,Win32,60.60606061,67503701c4ef8958767a58d9,69b95efdef24cd8a694e89ee,69b960023d95e0bc67e1dd4a,0.1307,0.1307,0,159,159,38,1,fourtwo,,,,,,,,,,,,,,,,,,,,,,,,,,,,,,,,,,,,,,,,,,,,,,,,,,,,,,,,,,,,,,,,,,,,,,,,,,,,,,,,,,,,,,,,,,,,,,,,,,,,,,,,,,,,,,,,,,,,,,,,,,,,,,,,,,,,,,,,,
,,67503701c4ef8958767a58d9,2026-03-17_14h02.43.287,kallum_motion_pilot_GIST_update_2,2026.1.1,Win32,60.60606061,67503701c4ef8958767a58d9,69b95efdef24cd8a694e89ee,69b960023d95e0bc67e1dd4a,0.131,0.131,0,160,160,37,1,threefour,,,,,,,,,,,,,,,,,,,,,,,,,,,,,,,,,,,,,,,,,,,,,,,,,,,,,,,,,,,,,,,,,,,,,,,,,,,,,,,,,,,,,,,,,,,,,,,,,,,,,,,,,,,,,,,,,,,,,,,,,,,,,,,,,,,,,,,,,
,,67503701c4ef8958767a58d9,2026-03-17_14h02.43.287,kallum_motion_pilot_GIST_update_2,2026.1.1,Win32,60.60606061,67503701c4ef8958767a58d9,69b95efdef24cd8a694e89ee,69b960023d95e0bc67e1dd4a,0.1312,0.1312,0,161,161,64,1,onetwo,,,,,,,,,,,,,,,,,,,,,,,,,,,,,,,,,,,,,,,,,,,,,,,,,,,,,,,,,,,,,,,,,,,,,,,,,,,,,,,,,,,,,,,,,,,,,,,,,,,,,,,,,,,,,,,,,,,,,,,,,,,,,,,,,,,,,,,,,
,,67503701c4ef8958767a58d9,2026-03-17_14h02.43.287,kallum_motion_pilot_GIST_update_2,2026.1.1,Win32,60.60606061,67503701c4ef8958767a58d9,69b95efdef24cd8a694e89ee,69b960023d95e0bc67e1dd4a,0.1316,0.1316,1,0,162,114,1,sixfive,,,,,,,,,,,,,,,,,,,,,,,,,,,,,,,,,,,,,,,,,,,,,,,,,,,,,,,,,,,,,,,,,,,,,,,,,,,,,,,,,,,,,,,,,,,,,,,,,,,,,,,,,,,,,,,,,,,,,,,,,,,,,,,,,,,,,,,,,
,,67503701c4ef8958767a58d9,2026-03-17_14h02.43.287,kallum_motion_pilot_GIST_update_2,2026.1.1,Win32,60.60606061,67503701c4ef8958767a58d9,69b95efdef24cd8a694e89ee,69b960023d95e0bc67e1dd4a,0.1319,0.1319,1,1,163,89,1,fiveseven,,,,,,,,,,,,,,,,,,,,,,,,,,,,,,,,,,,,,,,,,,,,,,,,,,,,,,,,,,,,,,,,,,,,,,,,,,,,,,,,,,,,,,,,,,,,,,,,,,,,,,,,,,,,,,,,,,,,,,,,,,,,,,,,,,,,,,,,,
,,67503701c4ef8958767a58d9,2026-03-17_14h02.43.287,kallum_motion_pilot_GIST_update_2,2026.1.1,Win32,60.60606061,67503701c4ef8958767a58d9,69b95efdef24cd8a694e89ee,69b960023d95e0bc67e1dd4a,0.1322,0.1322,1,2,164,107,1,sixeight,,,,,,,,,,,,,,,,,,,,,,,,,,,,,,,,,,,,,,,,,,,,,,,,,,,,,,,,,,,,,,,,,,,,,,,,,,,,,,,,,,,,,,,,,,,,,,,,,,,,,,,,,,,,,,,,,,,,,,,,,,,,,,,,,,,,,,,,,
,,67503701c4ef8958767a58d9,2026-03-17_14h02.43.287,kallum_motion_pilot_GIST_update_2,2026.1.1,Win32,60.60606061,67503701c4ef8958767a58d9,69b95efdef24cd8a694e89ee,69b960023d95e0bc67e1dd4a,0.1325,0.1325,1,3,165,141,1,seveneight,,,,,,,,,,,,,,,,,,,,,,,,,,,,,,,,,,,,,,,,,,,,,,,,,,,,,,,,,,,,,,,,,,,,,,,,,,,,,,,,,,,,,,,,,,,,,,,,,,,,,,,,,,,,,,,,,,,,,,,,,,,,,,,,,,,,,,,,,
,,67503701c4ef8958767a58d9,2026-03-17_14h02.43.287,kallum_motion_pilot_GIST_update_2,2026.1.1,Win32,60.60606061,67503701c4ef8958767a58d9,69b95efdef24cd8a694e89ee,69b960023d95e0bc67e1dd4a,0.1328,0.1328,1,4,166,76,1,threeone,,,,,,,,,,,,,,,,,,,,,,,,,,,,,,,,,,,,,,,,,,,,,,,,,,,,,,,,,,,,,,,,,,,,,,,,,,,,,,,,,,,,,,,,,,,,,,,,,,,,,,,,,,,,,,,,,,,,,,,,,,,,,,,,,,,,,,,,,
,,67503701c4ef8958767a58d9,2026-03-17_14h02.43.287,kallum_motion_pilot_GIST_update_2,2026.1.1,Win32,60.60606061,67503701c4ef8958767a58d9,69b95efdef24cd8a694e89ee,69b960023d95e0bc67e1dd4a,0.133,0.133,1,5,167,3,1,twofour,,,,,,,,,,,,,,,,,,,,,,,,,,,,,,,,,,,,,,,,,,,,,,,,,,,,,,,,,,,,,,,,,,,,,,,,,,,,,,,,,,,,,,,,,,,,,,,,,,,,,,,,,,,,,,,,,,,,,,,,,,,,,,,,,,,,,,,,,
,,67503701c4ef8958767a58d9,2026-03-17_14h02.43.287,kallum_motion_pilot_GIST_update_2,2026.1.1,Win32,60.60606061,67503701c4ef8958767a58d9,69b95efdef24cd8a694e89ee,69b960023d95e0bc67e1dd4a,0.1333,0.1334,1,6,168,4,1,threeone,,,,,,,,,,,,,,,,,,,,,,,,,,,,,,,,,,,,,,,,,,,,,,,,,,,,,,,,,,,,,,,,,,,,,,,,,,,,,,,,,,,,,,,,,,,,,,,,,,,,,,,,,,,,,,,,,,,,,,,,,,,,,,,,,,,,,,,,,
,,67503701c4ef8958767a58d9,2026-03-17_14h02.43.287,kallum_motion_pilot_GIST_update_2,2026.1.1,Win32,60.60606061,67503701c4ef8958767a58d9,69b95efdef24cd8a694e89ee,69b960023d95e0bc67e1dd4a,0.1336,0.1336,1,7,169,62,1,fourtwo,,,,,,,,,,,,,,,,,,,,,,,,,,,,,,,,,,,,,,,,,,,,,,,,,,,,,,,,,,,,,,,,,,,,,,,,,,,,,,,,,,,,,,,,,,,,,,,,,,,,,,,,,,,,,,,,,,,,,,,,,,,,,,,,,,,,,,,,,
,,67503701c4ef8958767a58d9,2026-03-17_14h02.43.287,kallum_motion_pilot_GIST_update_2,2026.1.1,Win32,60.60606061,67503701c4ef8958767a58d9,69b95efdef24cd8a694e89ee,69b960023d95e0bc67e1dd4a,0.134,0.134,1,8,170,87,1,eightseven,,,,,,,,,,,,,,,,,,,,,,,,,,,,,,,,,,,,,,,,,,,,,,,,,,,,,,,,,,,,,,,,,,,,,,,,,,,,,,,,,,,,,,,,,,,,,,,,,,,,,,,,,,,,,,,,,,,,,,,,,,,,,,,,,,,,,,,,,
,,67503701c4ef8958767a58d9,2026-03-17_14h02.43.287,kallum_motion_pilot_GIST_update_2,2026.1.1,Win32,60.60606061,67503701c4ef8958767a58d9,69b95efdef24cd8a694e89ee,69b960023d95e0bc67e1dd4a,0.1343,0.1343,1,9,171,53,1,threefour,,,,,,,,,,,,,,,,,,,,,,,,,,,,,,,,,,,,,,,,,,,,,,,,,,,,,,,,,,,,,,,,,,,,,,,,,,,,,,,,,,,,,,,,,,,,,,,,,,,,,,,,,,,,,,,,,,,,,,,,,,,,,,,,,,,,,,,,,
,,67503701c4ef8958767a58d9,2026-03-17_14h02.43.287,kallum_motion_pilot_GIST_update_2,2026.1.1,Win32,60.60606061,67503701c4ef8958767a58d9,69b95efdef24cd8a694e89ee,69b960023d95e0bc67e1dd4a,0.1345,0.1345,1,10,172,66,1,twoone,,,,,,,,,,,,,,,,,,,,,,,,,,,,,,,,,,,,,,,,,,,,,,,,,,,,,,,,,,,,,,,,,,,,,,,,,,,,,,,,,,,,,,,,,,,,,,,,,,,,,,,,,,,,,,,,,,,,,,,,,,,,,,,,,,,,,,,,,
,,67503701c4ef8958767a58d9,2026-03-17_14h02.43.287,kallum_motion_pilot_GIST_update_2,2026.1.1,Win32,60.60606061,67503701c4ef8958767a58d9,69b95efdef24cd8a694e89ee,69b960023d95e0bc67e1dd4a,0.1348,0.1348,1,11,173,149,1,seveneight,,,,,,,,,,,,,,,,,,,,,,,,,,,,,,,,,,,,,,,,,,,,,,,,,,,,,,,,,,,,,,,,,,,,,,,,,,,,,,,,,,,,,,,,,,,,,,,,,,,,,,,,,,,,,,,,,,,,,,,,,,,,,,,,,,,,,,,,,
,,67503701c4ef8958767a58d9,2026-03-17_14h02.43.287,kallum_motion_pilot_GIST_update_2,2026.1.1,Win32,60.60606061,67503701c4ef8958767a58d9,69b95efdef24cd8a694e89ee,69b960023d95e0bc67e1dd4a,0.135,0.1351,1,12,174,84,1,sevenfive,,,,,,,,,,,,,,,,,,,,,,,,,,,,,,,,,,,,,,,,,,,,,,,,,,,,,,,,,,,,,,,,,,,,,,,,,,,,,,,,,,,,,,,,,,,,,,,,,,,,,,,,,,,,,,,,,,,,,,,,,,,,,,,,,,,,,,,,,
,,67503701c4ef8958767a58d9,2026-03-17_14h02.43.287,kallum_motion_pilot_GIST_update_2,2026.1.1,Win32,60.60606061,67503701c4ef8958767a58d9,69b95efdef24cd8a694e89ee,69b960023d95e0bc67e1dd4a,0.1353,0.1353,1,13,175,91,1,sixeight,,,,,,,,,,,,,,,,,,,,,,,,,,,,,,,,,,,,,,,,,,,,,,,,,,,,,,,,,,,,,,,,,,,,,,,,,,,,,,,,,,,,,,,,,,,,,,,,,,,,,,,,,,,,,,,,,,,,,,,,,,,,,,,,,,,,,,,,,
,,67503701c4ef8958767a58d9,2026-03-17_14h02.43.287,kallum_motion_pilot_GIST_update_2,2026.1.1,Win32,60.60606061,67503701c4ef8958767a58d9,69b95efdef24cd8a694e89ee,69b960023d95e0bc67e1dd4a,0.1356,0.1356,1,14,176,82,1,sixfive,,,,,,,,,,,,,,,,,,,,,,,,,,,,,,,,,,,,,,,,,,,,,,,,,,,,,,,,,,,,,,,,,,,,,,,,,,,,,,,,,,,,,,,,,,,,,,,,,,,,,,,,,,,,,,,,,,,,,,,,,,,,,,,,,,,,,,,,,
,,67503701c4ef8958767a58d9,2026-03-17_14h02.43.287,kallum_motion_pilot_GIST_update_2,2026.1.1,Win32,60.60606061,67503701c4ef8958767a58d9,69b95efdef24cd8a694e89ee,69b960023d95e0bc67e1dd4a,0.1359,0.1359,1,15,177,26,1,twoone,,,,,,,,,,,,,,,,,,,,,,,,,,,,,,,,,,,,,,,,,,,,,,,,,,,,,,,,,,,,,,,,,,,,,,,,,,,,,,,,,,,,,,,,,,,,,,,,,,,,,,,,,,,,,,,,,,,,,,,,,,,,,,,,,,,,,,,,,
,,67503701c4ef8958767a58d9,2026-03-17_14h02.43.287,kallum_motion_pilot_GIST_update_2,2026.1.1,Win32,60.60606061,67503701c4ef8958767a58d9,69b95efdef24cd8a694e89ee,69b960023d95e0bc67e1dd4a,0.1362,0.1363,1,16,178,17,1,onethree,,,,,,,,,,,,,,,,,,,,,,,,,,,,,,,,,,,,,,,,,,,,,,,,,,,,,,,,,,,,,,,,,,,,,,,,,,,,,,,,,,,,,,,,,,,,,,,,,,,,,,,,,,,,,,,,,,,,,,,,,,,,,,,,,,,,,,,,,
,,67503701c4ef8958767a58d9,2026-03-17_14h02.43.287,kallum_motion_pilot_GIST_update_2,2026.1.1,Win32,60.60606061,67503701c4ef8958767a58d9,69b95efdef24cd8a694e89ee,69b960023d95e0bc67e1dd4a,0.1366,0.1366,1,17,179,79,1,eightseven,,,,,,,,,,,,,,,,,,,,,,,,,,,,,,,,,,,,,,,,,,,,,,,,,,,,,,,,,,,,,,,,,,,,,,,,,,,,,,,,,,,,,,,,,,,,,,,,,,,,,,,,,,,,,,,,,,,,,,,,,,,,,,,,,,,,,,,,,
,,67503701c4ef8958767a58d9,2026-03-17_14h02.43.287,kallum_motion_pilot_GIST_update_2,2026.1.1,Win32,60.60606061,67503701c4ef8958767a58d9,69b95efdef24cd8a694e89ee,69b960023d95e0bc67e1dd4a,0.1369,0.1369,1,18,180,32,1,onetwo,,,,,,,,,,,,,,,,,,,,,,,,,,,,,,,,,,,,,,,,,,,,,,,,,,,,,,,,,,,,,,,,,,,,,,,,,,,,,,,,,,,,,,,,,,,,,,,,,,,,,,,,,,,,,,,,,,,,,,,,,,,,,,,,,,,,,,,,,
,,67503701c4ef8958767a58d9,2026-03-17_14h02.43.287,kallum_motion_pilot_GIST_update_2,2026.1.1,Win32,60.60606061,67503701c4ef8958767a58d9,69b95efdef24cd8a694e89ee,69b960023d95e0bc67e1dd4a,0.1372,0.1372,1,19,181,154,1,sixfive,,,,,,,,,,,,,,,,,,,,,,,,,,,,,,,,,,,,,,,,,,,,,,,,,,,,,,,,,,,,,,,,,,,,,,,,,,,,,,,,,,,,,,,,,,,,,,,,,,,,,,,,,,,,,,,,,,,,,,,,,,,,,,,,,,,,,,,,,
,,67503701c4ef8958767a58d9,2026-03-17_14h02.43.287,kallum_motion_pilot_GIST_update_2,2026.1.1,Win32,60.60606061,67503701c4ef8958767a58d9,69b95efdef24cd8a694e89ee,69b960023d95e0bc67e1dd4a,0.1375,0.1375,1,20,182,119,1,eightseven,,,,,,,,,,,,,,,,,,,,,,,,,,,,,,,,,,,,,,,,,,,,,,,,,,,,,,,,,,,,,,,,,,,,,,,,,,,,,,,,,,,,,,,,,,,,,,,,,,,,,,,,,,,,,,,,,,,,,,,,,,,,,,,,,,,,,,,,,
,,67503701c4ef8958767a58d9,2026-03-17_14h02.43.287,kallum_motion_pilot_GIST_update_2,2026.1.1,Win32,60.60606061,67503701c4ef8958767a58d9,69b95efdef24cd8a694e89ee,69b960023d95e0bc67e1dd4a,0.1377,0.1377,1,21,183,25,1,onethree,,,,,,,,,,,,,,,,,,,,,,,,,,,,,,,,,,,,,,,,,,,,,,,,,,,,,,,,,,,,,,,,,,,,,,,,,,,,,,,,,,,,,,,,,,,,,,,,,,,,,,,,,,,,,,,,,,,,,,,,,,,,,,,,,,,,,,,,,
,,67503701c4ef8958767a58d9,2026-03-17_14h02.43.287,kallum_motion_pilot_GIST_update_2,2026.1.1,Win32,60.60606061,67503701c4ef8958767a58d9,69b95efdef24cd8a694e89ee,69b960023d95e0bc67e1dd4a,0.1381,0.1381,1,22,184,49,1,onethree,,,,,,,,,,,,,,,,,,,,,,,,,,,,,,,,,,,,,,,,,,,,,,,,,,,,,,,,,,,,,,,,,,,,,,,,,,,,,,,,,,,,,,,,,,,,,,,,,,,,,,,,,,,,,,,,,,,,,,,,,,,,,,,,,,,,,,,,,
,,67503701c4ef8958767a58d9,2026-03-17_14h02.43.287,kallum_motion_pilot_GIST_update_2,2026.1.1,Win32,60.60606061,67503701c4ef8958767a58d9,69b95efdef24cd8a694e89ee,69b960023d95e0bc67e1dd4a,0.1384,0.1384,1,23,185,28,1,threeone,,,,,,,,,,,,,,,,,,,,,,,,,,,,,,,,,,,,,,,,,,,,,,,,,,,,,,,,,,,,,,,,,,,,,,,,,,,,,,,,,,,,,,,,,,,,,,,,,,,,,,,,,,,,,,,,,,,,,,,,,,,,,,,,,,,,,,,,,
,,67503701c4ef8958767a58d9,2026-03-17_14h02.43.287,kallum_motion_pilot_GIST_update_2,2026.1.1,Win32,60.60606061,67503701c4ef8958767a58d9,69b95efdef24cd8a694e89ee,69b960023d95e0bc67e1dd4a,0.1387,0.1387,1,24,186,120,1,fivesix,,,,,,,,,,,,,,,,,,,,,,,,,,,,,,,,,,,,,,,,,,,,,,,,,,,,,,,,,,,,,,,,,,,,,,,,,,,,,,,,,,,,,,,,,,,,,,,,,,,,,,,,,,,,,,,,,,,,,,,,,,,,,,,,,,,,,,,,,
,,67503701c4ef8958767a58d9,2026-03-17_14h02.43.287,kallum_motion_pilot_GIST_update_2,2026.1.1,Win32,60.60606061,67503701c4ef8958767a58d9,69b95efdef24cd8a694e89ee,69b960023d95e0bc67e1dd4a,0.1392,0.1392,1,25,187,77,1,threefour,,,,,,,,,,,,,,,,,,,,,,,,,,,,,,,,,,,,,,,,,,,,,,,,,,,,,,,,,,,,,,,,,,,,,,,,,,,,,,,,,,,,,,,,,,,,,,,,,,,,,,,,,,,,,,,,,,,,,,,,,,,,,,,,,,,,,,,,,
,,67503701c4ef8958767a58d9,2026-03-17_14h02.43.287,kallum_motion_pilot_GIST_update_2,2026.1.1,Win32,60.60606061,67503701c4ef8958767a58d9,69b95efdef24cd8a694e89ee,69b960023d95e0bc67e1dd4a,0.1394,0.1394,1,26,188,153,1,fiveseven,,,,,,,,,,,,,,,,,,,,,,,,,,,,,,,,,,,,,,,,,,,,,,,,,,,,,,,,,,,,,,,,,,,,,,,,,,,,,,,,,,,,,,,,,,,,,,,,,,,,,,,,,,,,,,,,,,,,,,,,,,,,,,,,,,,,,,,,,
,,67503701c4ef8958767a58d9,2026-03-17_14h02.43.287,kallum_motion_pilot_GIST_update_2,2026.1.1,Win32,60.60606061,67503701c4ef8958767a58d9,69b95efdef24cd8a694e89ee,69b960023d95e0bc67e1dd4a,0.1397,0.1398,1,27,189,128,1,fivesix,,,,,,,,,,,,,,,,,,,,,,,,,,,,,,,,,,,,,,,,,,,,,,,,,,,,,,,,,,,,,,,,,,,,,,,,,,,,,,,,,,,,,,,,,,,,,,,,,,,,,,,,,,,,,,,,,,,,,,,,,,,,,,,,,,,,,,,,,
,,67503701c4ef8958767a58d9,2026-03-17_14h02.43.287,kallum_motion_pilot_GIST_update_2,2026.1.1,Win32,60.60606061,67503701c4ef8958767a58d9,69b95efdef24cd8a694e89ee,69b960023d95e0bc67e1dd4a,0.1401,0.1401,1,28,190,36,1,threeone,,,,,,,,,,,,,,,,,,,,,,,,,,,,,,,,,,,,,,,,,,,,,,,,,,,,,,,,,,,,,,,,,,,,,,,,,,,,,,,,,,,,,,,,,,,,,,,,,,,,,,,,,,,,,,,,,,,,,,,,,,,,,,,,,,,,,,,,,
,,67503701c4ef8958767a58d9,2026-03-17_14h02.43.287,kallum_motion_pilot_GIST_update_2,2026.1.1,Win32,60.60606061,67503701c4ef8958767a58d9,69b95efdef24cd8a694e89ee,69b960023d95e0bc67e1dd4a,0.1405,0.1405,1,29,191,146,1,sixfive,,,,,,,,,,,,,,,,,,,,,,,,,,,,,,,,,,,,,,,,,,,,,,,,,,,,,,,,,,,,,,,,,,,,,,,,,,,,,,,,,,,,,,,,,,,,,,,,,,,,,,,,,,,,,,,,,,,,,,,,,,,,,,,,,,,,,,,,,
,,67503701c4ef8958767a58d9,2026-03-17_14h02.43.287,kallum_motion_pilot_GIST_update_2,2026.1.1,Win32,60.60606061,67503701c4ef8958767a58d9,69b95efdef24cd8a694e89ee,69b960023d95e0bc67e1dd4a,0.1408,0.1408,1,30,192,83,1,sixeight,,,,,,,,,,,,,,,,,,,,,,,,,,,,,,,,,,,,,,,,,,,,,,,,,,,,,,,,,,,,,,,,,,,,,,,,,,,,,,,,,,,,,,,,,,,,,,,,,,,,,,,,,,,,,,,,,,,,,,,,,,,,,,,,,,,,,,,,,
,,67503701c4ef8958767a58d9,2026-03-17_14h02.43.287,kallum_motion_pilot_GIST_update_2,2026.1.1,Win32,60.60606061,67503701c4ef8958767a58d9,69b95efdef24cd8a694e89ee,69b960023d95e0bc67e1dd4a,0.141,0.141,1,31,193,118,1,eightsix,,,,,,,,,,,,,,,,,,,,,,,,,,,,,,,,,,,,,,,,,,,,,,,,,,,,,,,,,,,,,,,,,,,,,,,,,,,,,,,,,,,,,,,,,,,,,,,,,,,,,,,,,,,,,,,,,,,,,,,,,,,,,,,,,,,,,,,,,
,,67503701c4ef8958767a58d9,2026-03-17_14h02.43.287,kallum_motion_pilot_GIST_update_2,2026.1.1,Win32,60.60606061,67503701c4ef8958767a58d9,69b95efdef24cd8a694e89ee,69b960023d95e0bc67e1dd4a,0.1414,0.1415,1,32,194,0,1,onetwo,,,,,,,,,,,,,,,,,,,,,,,,,,,,,,,,,,,,,,,,,,,,,,,,,,,,,,,,,,,,,,,,,,,,,,,,,,,,,,,,,,,,,,,,,,,,,,,,,,,,,,,,,,,,,,,,,,,,,,,,,,,,,,,,,,,,,,,,,
,,67503701c4ef8958767a58d9,2026-03-17_14h02.43.287,kallum_motion_pilot_GIST_update_2,2026.1.1,Win32,60.60606061,67503701c4ef8958767a58d9,69b95efdef24cd8a694e89ee,69b960023d95e0bc67e1dd4a,0.1418,0.1418,1,33,195,19,1,twofour,,,,,,,,,,,,,,,,,,,,,,,,,,,,,,,,,,,,,,,,,,,,,,,,,,,,,,,,,,,,,,,,,,,,,,,,,,,,,,,,,,,,,,,,,,,,,,,,,,,,,,,,,,,,,,,,,,,,,,,,,,,,,,,,,,,,,,,,,
,,67503701c4ef8958767a58d9,2026-03-17_14h02.43.287,kallum_motion_pilot_GIST_update_2,2026.1.1,Win32,60.60606061,67503701c4ef8958767a58d9,69b95efdef24cd8a694e89ee,69b960023d95e0bc67e1dd4a,0.1422,0.1422,1,34,196,113,1,fiveseven,,,,,,,,,,,,,,,,,,,,,,,,,,,,,,,,,,,,,,,,,,,,,,,,,,,,,,,,,,,,,,,,,,,,,,,,,,,,,,,,,,,,,,,,,,,,,,,,,,,,,,,,,,,,,,,,,,,,,,,,,,,,,,,,,,,,,,,,,
,,67503701c4ef8958767a58d9,2026-03-17_14h02.43.287,kallum_motion_pilot_GIST_update_2,2026.1.1,Win32,60.60606061,67503701c4ef8958767a58d9,69b95efdef24cd8a694e89ee,69b960023d95e0bc67e1dd4a,0.1426,0.1426,1,35,197,148,1,sevenfive,,,,,,,,,,,,,,,,,,,,,,,,,,,,,,,,,,,,,,,,,,,,,,,,,,,,,,,,,,,,,,,,,,,,,,,,,,,,,,,,,,,,,,,,,,,,,,,,,,,,,,,,,,,,,,,,,,,,,,,,,,,,,,,,,,,,,,,,,
,,67503701c4ef8958767a58d9,2026-03-17_14h02.43.287,kallum_motion_pilot_GIST_update_2,2026.1.1,Win32,60.60606061,67503701c4ef8958767a58d9,69b95efdef24cd8a694e89ee,69b960023d95e0bc67e1dd4a,0.1428,0.1428,1,36,198,139,1,sixeight,,,,,,,,,,,,,,,,,,,,,,,,,,,,,,,,,,,,,,,,,,,,,,,,,,,,,,,,,,,,,,,,,,,,,,,,,,,,,,,,,,,,,,,,,,,,,,,,,,,,,,,,,,,,,,,,,,,,,,,,,,,,,,,,,,,,,,,,,
,,67503701c4ef8958767a58d9,2026-03-17_14h02.43.287,kallum_motion_pilot_GIST_update_2,2026.1.1,Win32,60.60606061,67503701c4ef8958767a58d9,69b95efdef24cd8a694e89ee,69b960023d95e0bc67e1dd4a,0.1432,0.1432,1,37,199,27,1,twofour,,,,,,,,,,,,,,,,,,,,,,,,,,,,,,,,,,,,,,,,,,,,,,,,,,,,,,,,,,,,,,,,,,,,,,,,,,,,,,,,,,,,,,,,,,,,,,,,,,,,,,,,,,,,,,,,,,,,,,,,,,,,,,,,,,,,,,,,,
,,67503701c4ef8958767a58d9,2026-03-17_14h02.43.287,kallum_motion_pilot_GIST_update_2,2026.1.1,Win32,60.60606061,67503701c4ef8958767a58d9,69b95efdef24cd8a694e89ee,69b960023d95e0bc67e1dd4a,0.1435,0.1435,1,38,200,131,1,sixeight,,,,,,,,,,,,,,,,,,,,,,,,,,,,,,,,,,,,,,,,,,,,,,,,,,,,,,,,,,,,,,,,,,,,,,,,,,,,,,,,,,,,,,,,,,,,,,,,,,,,,,,,,,,,,,,,,,,,,,,,,,,,,,,,,,,,,,,,,
,,67503701c4ef8958767a58d9,2026-03-17_14h02.43.287,kallum_motion_pilot_GIST_update_2,2026.1.1,Win32,60.60606061,67503701c4ef8958767a58d9,69b95efdef24cd8a694e89ee,69b960023d95e0bc67e1dd4a,0.1439,0.1439,1,39,201,73,1,onethree,,,,,,,,,,,,,,,,,,,,,,,,,,,,,,,,,,,,,,,,,,,,,,,,,,,,,,,,,,,,,,,,,,,,,,,,,,,,,,,,,,,,,,,,,,,,,,,,,,,,,,,,,,,,,,,,,,,,,,,,,,,,,,,,,,,,,,,,,
,,67503701c4ef8958767a58d9,2026-03-17_14h02.43.287,kallum_motion_pilot_GIST_update_2,2026.1.1,Win32,60.60606061,67503701c4ef8958767a58d9,69b95efdef24cd8a694e89ee,69b960023d95e0bc67e1dd4a,0.1442,0.1442,1,40,202,48,1,onetwo,,,,,,,,,,,,,,,,,,,,,,,,,,,,,,,,,,,,,,,,,,,,,,,,,,,,,,,,,,,,,,,,,,,,,,,,,,,,,,,,,,,,,,,,,,,,,,,,,,,,,,,,,,,,,,,,,,,,,,,,,,,,,,,,,,,,,,,,,
,,67503701c4ef8958767a58d9,2026-03-17_14h02.43.287,kallum_motion_pilot_GIST_update_2,2026.1.1,Win32,60.60606061,67503701c4ef8958767a58d9,69b95efdef24cd8a694e89ee,69b960023d95e0bc67e1dd4a,0.1445,0.1445,1,41,203,109,1,seveneight,,,,,,,,,,,,,,,,,,,,,,,,,,,,,,,,,,,,,,,,,,,,,,,,,,,,,,,,,,,,,,,,,,,,,,,,,,,,,,,,,,,,,,,,,,,,,,,,,,,,,,,,,,,,,,,,,,,,,,,,,,,,,,,,,,,,,,,,,
,,67503701c4ef8958767a58d9,2026-03-17_14h02.43.287,kallum_motion_pilot_GIST_update_2,2026.1.1,Win32,60.60606061,67503701c4ef8958767a58d9,69b95efdef24cd8a694e89ee,69b960023d95e0bc67e1dd4a,0.1448,0.1448,1,42,204,12,1,threeone,,,,,,,,,,,,,,,,,,,,,,,,,,,,,,,,,,,,,,,,,,,,,,,,,,,,,,,,,,,,,,,,,,,,,,,,,,,,,,,,,,,,,,,,,,,,,,,,,,,,,,,,,,,,,,,,,,,,,,,,,,,,,,,,,,,,,,,,,
,,67503701c4ef8958767a58d9,2026-03-17_14h02.43.287,kallum_motion_pilot_GIST_update_2,2026.1.1,Win32,60.60606061,67503701c4ef8958767a58d9,69b95efdef24cd8a694e89ee,69b960023d95e0bc67e1dd4a,0.1451,0.1451,1,43,205,100,1,sevenfive,,,,,,,,,,,,,,,,,,,,,,,,,,,,,,,,,,,,,,,,,,,,,,,,,,,,,,,,,,,,,,,,,,,,,,,,,,,,,,,,,,,,,,,,,,,,,,,,,,,,,,,,,,,,,,,,,,,,,,,,,,,,,,,,,,,,,,,,,
,,67503701c4ef8958767a58d9,2026-03-17_14h02.43.287,kallum_motion_pilot_GIST_update_2,2026.1.1,Win32,60.60606061,67503701c4ef8958767a58d9,69b95efdef24cd8a694e89ee,69b960023d95e0bc67e1dd4a,0.1454,0.1454,1,44,206,124,1,sevenfive,,,,,,,,,,,,,,,,,,,,,,,,,,,,,,,,,,,,,,,,,,,,,,,,,,,,,,,,,,,,,,,,,,,,,,,,,,,,,,,,,,,,,,,,,,,,,,,,,,,,,,,,,,,,,,,,,,,,,,,,,,,,,,,,,,,,,,,,,
,,67503701c4ef8958767a58d9,2026-03-17_14h02.43.287,kallum_motion_pilot_GIST_update_2,2026.1.1,Win32,60.60606061,67503701c4ef8958767a58d9,69b95efdef24cd8a694e89ee,69b960023d95e0bc67e1dd4a,0.1458,0.1458,1,45,207,93,1,seveneight,,,,,,,,,,,,,,,,,,,,,,,,,,,,,,,,,,,,,,,,,,,,,,,,,,,,,,,,,,,,,,,,,,,,,,,,,,,,,,,,,,,,,,,,,,,,,,,,,,,,,,,,,,,,,,,,,,,,,,,,,,,,,,,,,,,,,,,,,
,,67503701c4ef8958767a58d9,2026-03-17_14h02.43.287,kallum_motion_pilot_GIST_update_2,2026.1.1,Win32,60.60606061,67503701c4ef8958767a58d9,69b95efdef24cd8a694e89ee,69b960023d95e0bc67e1dd4a,0.1462,0.1462,1,46,208,71,1,fourthree,,,,,,,,,,,,,,,,,,,,,,,,,,,,,,,,,,,,,,,,,,,,,,,,,,,,,,,,,,,,,,,,,,,,,,,,,,,,,,,,,,,,,,,,,,,,,,,,,,,,,,,,,,,,,,,,,,,,,,,,,,,,,,,,,,,,,,,,,
,,67503701c4ef8958767a58d9,2026-03-17_14h02.43.287,kallum_motion_pilot_GIST_update_2,2026.1.1,Win32,60.60606061,67503701c4ef8958767a58d9,69b95efdef24cd8a694e89ee,69b960023d95e0bc67e1dd4a,0.1465,0.1465,1,47,209,60,1,threeone,,,,,,,,,,,,,,,,,,,,,,,,,,,,,,,,,,,,,,,,,,,,,,,,,,,,,,,,,,,,,,,,,,,,,,,,,,,,,,,,,,,,,,,,,,,,,,,,,,,,,,,,,,,,,,,,,,,,,,,,,,,,,,,,,,,,,,,,,
,,67503701c4ef8958767a58d9,2026-03-17_14h02.43.287,kallum_motion_pilot_GIST_update_2,2026.1.1,Win32,60.60606061,67503701c4ef8958767a58d9,69b95efdef24cd8a694e89ee,69b960023d95e0bc67e1dd4a,0.1469,0.1469,1,48,210,150,1,eightsix,,,,,,,,,,,,,,,,,,,,,,,,,,,,,,,,,,,,,,,,,,,,,,,,,,,,,,,,,,,,,,,,,,,,,,,,,,,,,,,,,,,,,,,,,,,,,,,,,,,,,,,,,,,,,,,,,,,,,,,,,,,,,,,,,,,,,,,,,
,,67503701c4ef8958767a58d9,2026-03-17_14h02.43.287,kallum_motion_pilot_GIST_update_2,2026.1.1,Win32,60.60606061,67503701c4ef8958767a58d9,69b95efdef24cd8a694e89ee,69b960023d95e0bc67e1dd4a,0.1472,0.1472,1,49,211,101,1,seveneight,,,,,,,,,,,,,,,,,,,,,,,,,,,,,,,,,,,,,,,,,,,,,,,,,,,,,,,,,,,,,,,,,,,,,,,,,,,,,,,,,,,,,,,,,,,,,,,,,,,,,,,,,,,,,,,,,,,,,,,,,,,,,,,,,,,,,,,,,
,,67503701c4ef8958767a58d9,2026-03-17_14h02.43.287,kallum_motion_pilot_GIST_update_2,2026.1.1,Win32,60.60606061,67503701c4ef8958767a58d9,69b95efdef24cd8a694e89ee,69b960023d95e0bc67e1dd4a,0.1475,0.1475,1,50,212,147,1,sixeight,,,,,,,,,,,,,,,,,,,,,,,,,,,,,,,,,,,,,,,,,,,,,,,,,,,,,,,,,,,,,,,,,,,,,,,,,,,,,,,,,,,,,,,,,,,,,,,,,,,,,,,,,,,,,,,,,,,,,,,,,,,,,,,,,,,,,,,,,
,,67503701c4ef8958767a58d9,2026-03-17_14h02.43.287,kallum_motion_pilot_GIST_update_2,2026.1.1,Win32,60.60606061,67503701c4ef8958767a58d9,69b95efdef24cd8a694e89ee,69b960023d95e0bc67e1dd4a,0.1478,0.1478,1,51,213,8,1,onetwo,,,,,,,,,,,,,,,,,,,,,,,,,,,,,,,,,,,,,,,,,,,,,,,,,,,,,,,,,,,,,,,,,,,,,,,,,,,,,,,,,,,,,,,,,,,,,,,,,,,,,,,,,,,,,,,,,,,,,,,,,,,,,,,,,,,,,,,,,
,,67503701c4ef8958767a58d9,2026-03-17_14h02.43.287,kallum_motion_pilot_GIST_update_2,2026.1.1,Win32,60.60606061,67503701c4ef8958767a58d9,69b95efdef24cd8a694e89ee,69b960023d95e0bc67e1dd4a,0.1481,0.1482,1,52,214,54,1,fourtwo,,,,,,,,,,,,,,,,,,,,,,,,,,,,,,,,,,,,,,,,,,,,,,,,,,,,,,,,,,,,,,,,,,,,,,,,,,,,,,,,,,,,,,,,,,,,,,,,,,,,,,,,,,,,,,,,,,,,,,,,,,,,,,,,,,,,,,,,,
,,67503701c4ef8958767a58d9,2026-03-17_14h02.43.287,kallum_motion_pilot_GIST_update_2,2026.1.1,Win32,60.60606061,67503701c4ef8958767a58d9,69b95efdef24cd8a694e89ee,69b960023d95e0bc67e1dd4a,0.1484,0.1484,1,53,215,37,1,threefour,,,,,,,,,,,,,,,,,,,,,,,,,,,,,,,,,,,,,,,,,,,,,,,,,,,,,,,,,,,,,,,,,,,,,,,,,,,,,,,,,,,,,,,,,,,,,,,,,,,,,,,,,,,,,,,,,,,,,,,,,,,,,,,,,,,,,,,,,
,,67503701c4ef8958767a58d9,2026-03-17_14h02.43.287,kallum_motion_pilot_GIST_update_2,2026.1.1,Win32,60.60606061,67503701c4ef8958767a58d9,69b95efdef24cd8a694e89ee,69b960023d95e0bc67e1dd4a,0.1487,0.1487,1,54,216,90,1,sixfive,,,,,,,,,,,,,,,,,,,,,,,,,,,,,,,,,,,,,,,,,,,,,,,,,,,,,,,,,,,,,,,,,,,,,,,,,,,,,,,,,,,,,,,,,,,,,,,,,,,,,,,,,,,,,,,,,,,,,,,,,,,,,,,,,,,,,,,,,
,,67503701c4ef8958767a58d9,2026-03-17_14h02.43.287,kallum_motion_pilot_GIST_update_2,2026.1.1,Win32,60.60606061,67503701c4ef8958767a58d9,69b95efdef24cd8a694e89ee,69b960023d95e0bc67e1dd4a,0.149,0.149,1,55,217,9,1,onethree,,,,,,,,,,,,,,,,,,,,,,,,,,,,,,,,,,,,,,,,,,,,,,,,,,,,,,,,,,,,,,,,,,,,,,,,,,,,,,,,,,,,,,,,,,,,,,,,,,,,,,,,,,,,,,,,,,,,,,,,,,,,,,,,,,,,,,,,,
,,67503701c4ef8958767a58d9,2026-03-17_14h02.43.287,kallum_motion_pilot_GIST_update_2,2026.1.1,Win32,60.60606061,67503701c4ef8958767a58d9,69b95efdef24cd8a694e89ee,69b960023d95e0bc67e1dd4a,0.1493,0.1493,1,56,218,31,1,fourthree,,,,,,,,,,,,,,,,,,,,,,,,,,,,,,,,,,,,,,,,,,,,,,,,,,,,,,,,,,,,,,,,,,,,,,,,,,,,,,,,,,,,,,,,,,,,,,,,,,,,,,,,,,,,,,,,,,,,,,,,,,,,,,,,,,,,,,,,,
,,67503701c4ef8958767a58d9,2026-03-17_14h02.43.287,kallum_motion_pilot_GIST_update_2,2026.1.1,Win32,60.60606061,67503701c4ef8958767a58d9,69b95efdef24cd8a694e89ee,69b960023d95e0bc67e1dd4a,0.1496,0.1496,1,57,219,160,1,fivesix,,,,,,,,,,,,,,,,,,,,,,,,,,,,,,,,,,,,,,,,,,,,,,,,,,,,,,,,,,,,,,,,,,,,,,,,,,,,,,,,,,,,,,,,,,,,,,,,,,,,,,,,,,,,,,,,,,,,,,,,,,,,,,,,,,,,,,,,,
,,67503701c4ef8958767a58d9,2026-03-17_14h02.43.287,kallum_motion_pilot_GIST_update_2,2026.1.1,Win32,60.60606061,67503701c4ef8958767a58d9,69b95efdef24cd8a694e89ee,69b960023d95e0bc67e1dd4a,0.1499,0.1499,1,58,220,161,1,fiveseven,,,,,,,,,,,,,,,,,,,,,,,,,,,,,,,,,,,,,,,,,,,,,,,,,,,,,,,,,,,,,,,,,,,,,,,,,,,,,,,,,,,,,,,,,,,,,,,,,,,,,,,,,,,,,,,,,,,,,,,,,,,,,,,,,,,,,,,,,
,,67503701c4ef8958767a58d9,2026-03-17_14h02.43.287,kallum_motion_pilot_GIST_update_2,2026.1.1,Win32,60.60606061,67503701c4ef8958767a58d9,69b95efdef24cd8a694e89ee,69b960023d95e0bc67e1dd4a,0.1502,0.1502,1,59,221,13,1,threefour,,,,,,,,,,,,,,,,,,,,,,,,,,,,,,,,,,,,,,,,,,,,,,,,,,,,,,,,,,,,,,,,,,,,,,,,,,,,,,,,,,,,,,,,,,,,,,,,,,,,,,,,,,,,,,,,,,,,,,,,,,,,,,,,,,,,,,,,,
,,67503701c4ef8958767a58d9,2026-03-17_14h02.43.287,kallum_motion_pilot_GIST_update_2,2026.1.1,Win32,60.60606061,67503701c4ef8958767a58d9,69b95efdef24cd8a694e89ee,69b960023d95e0bc67e1dd4a,0.1506,0.1506,1,60,222,1,1,onethree,,,,,,,,,,,,,,,,,,,,,,,,,,,,,,,,,,,,,,,,,,,,,,,,,,,,,,,,,,,,,,,,,,,,,,,,,,,,,,,,,,,,,,,,,,,,,,,,,,,,,,,,,,,,,,,,,,,,,,,,,,,,,,,,,,,,,,,,,
,,67503701c4ef8958767a58d9,2026-03-17_14h02.43.287,kallum_motion_pilot_GIST_update_2,2026.1.1,Win32,60.60606061,67503701c4ef8958767a58d9,69b95efdef24cd8a694e89ee,69b960023d95e0bc67e1dd4a,0.1509,0.1509,1,61,223,15,1,fourthree,,,,,,,,,,,,,,,,,,,,,,,,,,,,,,,,,,,,,,,,,,,,,,,,,,,,,,,,,,,,,,,,,,,,,,,,,,,,,,,,,,,,,,,,,,,,,,,,,,,,,,,,,,,,,,,,,,,,,,,,,,,,,,,,,,,,,,,,,
,,67503701c4ef8958767a58d9,2026-03-17_14h02.43.287,kallum_motion_pilot_GIST_update_2,2026.1.1,Win32,60.60606061,67503701c4ef8958767a58d9,69b95efdef24cd8a694e89ee,69b960023d95e0bc67e1dd4a,0.1512,0.1512,1,62,224,115,1,sixeight,,,,,,,,,,,,,,,,,,,,,,,,,,,,,,,,,,,,,,,,,,,,,,,,,,,,,,,,,,,,,,,,,,,,,,,,,,,,,,,,,,,,,,,,,,,,,,,,,,,,,,,,,,,,,,,,,,,,,,,,,,,,,,,,,,,,,,,,,
,,67503701c4ef8958767a58d9,2026-03-17_14h02.43.287,kallum_motion_pilot_GIST_update_2,2026.1.1,Win32,60.60606061,67503701c4ef8958767a58d9,69b95efdef24cd8a694e89ee,69b960023d95e0bc67e1dd4a,0.1516,0.1516,1,63,225,55,1,fourthree,,,,,,,,,,,,,,,,,,,,,,,,,,,,,,,,,,,,,,,,,,,,,,,,,,,,,,,,,,,,,,,,,,,,,,,,,,,,,,,,,,,,,,,,,,,,,,,,,,,,,,,,,,,,,,,,,,,,,,,,,,,,,,,,,,,,,,,,,
,,67503701c4ef8958767a58d9,2026-03-17_14h02.43.287,kallum_motion_pilot_GIST_update_2,2026.1.1,Win32,60.60606061,67503701c4ef8958767a58d9,69b95efdef24cd8a694e89ee,69b960023d95e0bc67e1dd4a,0.1519,0.1519,1,64,226,57,1,onethree,,,,,,,,,,,,,,,,,,,,,,,,,,,,,,,,,,,,,,,,,,,,,,,,,,,,,,,,,,,,,,,,,,,,,,,,,,,,,,,,,,,,,,,,,,,,,,,,,,,,,,,,,,,,,,,,,,,,,,,,,,,,,,,,,,,,,,,,,
,,67503701c4ef8958767a58d9,2026-03-17_14h02.43.287,kallum_motion_pilot_GIST_update_2,2026.1.1,Win32,60.60606061,67503701c4ef8958767a58d9,69b95efdef24cd8a694e89ee,69b960023d95e0bc67e1dd4a,0.1522,0.1522,1,65,227,63,1,fourthree,,,,,,,,,,,,,,,,,,,,,,,,,,,,,,,,,,,,,,,,,,,,,,,,,,,,,,,,,,,,,,,,,,,,,,,,,,,,,,,,,,,,,,,,,,,,,,,,,,,,,,,,,,,,,,,,,,,,,,,,,,,,,,,,,,,,,,,,,
,,67503701c4ef8958767a58d9,2026-03-17_14h02.43.287,kallum_motion_pilot_GIST_update_2,2026.1.1,Win32,60.60606061,67503701c4ef8958767a58d9,69b95efdef24cd8a694e89ee,69b960023d95e0bc67e1dd4a,0.1525,0.1525,1,66,228,158,1,eightsix,,,,,,,,,,,,,,,,,,,,,,,,,,,,,,,,,,,,,,,,,,,,,,,,,,,,,,,,,,,,,,,,,,,,,,,,,,,,,,,,,,,,,,,,,,,,,,,,,,,,,,,,,,,,,,,,,,,,,,,,,,,,,,,,,,,,,,,,,
,,67503701c4ef8958767a58d9,2026-03-17_14h02.43.287,kallum_motion_pilot_GIST_update_2,2026.1.1,Win32,60.60606061,67503701c4ef8958767a58d9,69b95efdef24cd8a694e89ee,69b960023d95e0bc67e1dd4a,0.1528,0.1528,1,67,229,42,1,twoone,,,,,,,,,,,,,,,,,,,,,,,,,,,,,,,,,,,,,,,,,,,,,,,,,,,,,,,,,,,,,,,,,,,,,,,,,,,,,,,,,,,,,,,,,,,,,,,,,,,,,,,,,,,,,,,,,,,,,,,,,,,,,,,,,,,,,,,,,
,,67503701c4ef8958767a58d9,2026-03-17_14h02.43.287,kallum_motion_pilot_GIST_update_2,2026.1.1,Win32,60.60606061,67503701c4ef8958767a58d9,69b95efdef24cd8a694e89ee,69b960023d95e0bc67e1dd4a,0.1533,0.1533,1,68,230,142,1,eightsix,,,,,,,,,,,,,,,,,,,,,,,,,,,,,,,,,,,,,,,,,,,,,,,,,,,,,,,,,,,,,,,,,,,,,,,,,,,,,,,,,,,,,,,,,,,,,,,,,,,,,,,,,,,,,,,,,,,,,,,,,,,,,,,,,,,,,,,,,
,,67503701c4ef8958767a58d9,2026-03-17_14h02.43.287,kallum_motion_pilot_GIST_update_2,2026.1.1,Win32,60.60606061,67503701c4ef8958767a58d9,69b95efdef24cd8a694e89ee,69b960023d95e0bc67e1dd4a,0.1537,0.1537,1,69,231,72,1,onetwo,,,,,,,,,,,,,,,,,,,,,,,,,,,,,,,,,,,,,,,,,,,,,,,,,,,,,,,,,,,,,,,,,,,,,,,,,,,,,,,,,,,,,,,,,,,,,,,,,,,,,,,,,,,,,,,,,,,,,,,,,,,,,,,,,,,,,,,,,
,,67503701c4ef8958767a58d9,2026-03-17_14h02.43.287,kallum_motion_pilot_GIST_update_2,2026.1.1,Win32,60.60606061,67503701c4ef8958767a58d9,69b95efdef24cd8a694e89ee,69b960023d95e0bc67e1dd4a,0.154,0.154,1,70,232,126,1,eightsix,,,,,,,,,,,,,,,,,,,,,,,,,,,,,,,,,,,,,,,,,,,,,,,,,,,,,,,,,,,,,,,,,,,,,,,,,,,,,,,,,,,,,,,,,,,,,,,,,,,,,,,,,,,,,,,,,,,,,,,,,,,,,,,,,,,,,,,,,
,,67503701c4ef8958767a58d9,2026-03-17_14h02.43.287,kallum_motion_pilot_GIST_update_2,2026.1.1,Win32,60.60606061,67503701c4ef8958767a58d9,69b95efdef24cd8a694e89ee,69b960023d95e0bc67e1dd4a,0.1544,0.1544,1,71,233,105,1,fiveseven,,,,,,,,,,,,,,,,,,,,,,,,,,,,,,,,,,,,,,,,,,,,,,,,,,,,,,,,,,,,,,,,,,,,,,,,,,,,,,,,,,,,,,,,,,,,,,,,,,,,,,,,,,,,,,,,,,,,,,,,,,,,,,,,,,,,,,,,,
,,67503701c4ef8958767a58d9,2026-03-17_14h02.43.287,kallum_motion_pilot_GIST_update_2,2026.1.1,Win32,60.60606061,67503701c4ef8958767a58d9,69b95efdef24cd8a694e89ee,69b960023d95e0bc67e1dd4a,0.1548,0.1548,1,72,234,16,1,onetwo,,,,,,,,,,,,,,,,,,,,,,,,,,,,,,,,,,,,,,,,,,,,,,,,,,,,,,,,,,,,,,,,,,,,,,,,,,,,,,,,,,,,,,,,,,,,,,,,,,,,,,,,,,,,,,,,,,,,,,,,,,,,,,,,,,,,,,,,,
,,67503701c4ef8958767a58d9,2026-03-17_14h02.43.287,kallum_motion_pilot_GIST_update_2,2026.1.1,Win32,60.60606061,67503701c4ef8958767a58d9,69b95efdef24cd8a694e89ee,69b960023d95e0bc67e1dd4a,0.1551,0.1551,1,73,235,135,1,eightseven,,,,,,,,,,,,,,,,,,,,,,,,,,,,,,,,,,,,,,,,,,,,,,,,,,,,,,,,,,,,,,,,,,,,,,,,,,,,,,,,,,,,,,,,,,,,,,,,,,,,,,,,,,,,,,,,,,,,,,,,,,,,,,,,,,,,,,,,,
,,67503701c4ef8958767a58d9,2026-03-17_14h02.43.287,kallum_motion_pilot_GIST_update_2,2026.1.1,Win32,60.60606061,67503701c4ef8958767a58d9,69b95efdef24cd8a694e89ee,69b960023d95e0bc67e1dd4a,0.1554,0.1554,1,74,236,46,1,fourtwo,,,,,,,,,,,,,,,,,,,,,,,,,,,,,,,,,,,,,,,,,,,,,,,,,,,,,,,,,,,,,,,,,,,,,,,,,,,,,,,,,,,,,,,,,,,,,,,,,,,,,,,,,,,,,,,,,,,,,,,,,,,,,,,,,,,,,,,,,
,,67503701c4ef8958767a58d9,2026-03-17_14h02.43.287,kallum_motion_pilot_GIST_update_2,2026.1.1,Win32,60.60606061,67503701c4ef8958767a58d9,69b95efdef24cd8a694e89ee,69b960023d95e0bc67e1dd4a,0.1557,0.1557,1,75,237,68,1,threeone,,,,,,,,,,,,,,,,,,,,,,,,,,,,,,,,,,,,,,,,,,,,,,,,,,,,,,,,,,,,,,,,,,,,,,,,,,,,,,,,,,,,,,,,,,,,,,,,,,,,,,,,,,,,,,,,,,,,,,,,,,,,,,,,,,,,,,,,,
,,67503701c4ef8958767a58d9,2026-03-17_14h02.43.287,kallum_motion_pilot_GIST_update_2,2026.1.1,Win32,60.60606061,67503701c4ef8958767a58d9,69b95efdef24cd8a694e89ee,69b960023d95e0bc67e1dd4a,0.1562,0.1562,1,76,238,22,1,fourtwo,,,,,,,,,,,,,,,,,,,,,,,,,,,,,,,,,,,,,,,,,,,,,,,,,,,,,,,,,,,,,,,,,,,,,,,,,,,,,,,,,,,,,,,,,,,,,,,,,,,,,,,,,,,,,,,,,,,,,,,,,,,,,,,,,,,,,,,,,
,,67503701c4ef8958767a58d9,2026-03-17_14h02.43.287,kallum_motion_pilot_GIST_update_2,2026.1.1,Win32,60.60606061,67503701c4ef8958767a58d9,69b95efdef24cd8a694e89ee,69b960023d95e0bc67e1dd4a,0.1565,0.1566,1,77,239,21,1,threefour,,,,,,,,,,,,,,,,,,,,,,,,,,,,,,,,,,,,,,,,,,,,,,,,,,,,,,,,,,,,,,,,,,,,,,,,,,,,,,,,,,,,,,,,,,,,,,,,,,,,,,,,,,,,,,,,,,,,,,,,,,,,,,,,,,,,,,,,,
,,67503701c4ef8958767a58d9,2026-03-17_14h02.43.287,kallum_motion_pilot_GIST_update_2,2026.1.1,Win32,60.60606061,67503701c4ef8958767a58d9,69b95efdef24cd8a694e89ee,69b960023d95e0bc67e1dd4a,0.1569,0.1569,1,78,240,5,1,threefour,,,,,,,,,,,,,,,,,,,,,,,,,,,,,,,,,,,,,,,,,,,,,,,,,,,,,,,,,,,,,,,,,,,,,,,,,,,,,,,,,,,,,,,,,,,,,,,,,,,,,,,,,,,,,,,,,,,,,,,,,,,,,,,,,,,,,,,,,
,,67503701c4ef8958767a58d9,2026-03-17_14h02.43.287,kallum_motion_pilot_GIST_update_2,2026.1.1,Win32,60.60606061,67503701c4ef8958767a58d9,69b95efdef24cd8a694e89ee,69b960023d95e0bc67e1dd4a,0.1571,0.1572,1,79,241,6,1,fourtwo,,,,,,,,,,,,,,,,,,,,,,,,,,,,,,,,,,,,,,,,,,,,,,,,,,,,,,,,,,,,,,,,,,,,,,,,,,,,,,,,,,,,,,,,,,,,,,,,,,,,,,,,,,,,,,,,,,,,,,,,,,,,,,,,,,,,,,,,,
,,67503701c4ef8958767a58d9,2026-03-17_14h02.43.287,kallum_motion_pilot_GIST_update_2,2026.1.1,Win32,60.60606061,67503701c4ef8958767a58d9,69b95efdef24cd8a694e89ee,69b960023d95e0bc67e1dd4a,0.1576,0.1576,1,80,242,7,1,fourthree,,,,,,,,,,,,,,,,,,,,,,,,,,,,,,,,,,,,,,,,,,,,,,,,,,,,,,,,,,,,,,,,,,,,,,,,,,,,,,,,,,,,,,,,,,,,,,,,,,,,,,,,,,,,,,,,,,,,,,,,,,,,,,,,,,,,,,,,,
,,67503701c4ef8958767a58d9,2026-03-17_14h02.43.287,kallum_motion_pilot_GIST_update_2,2026.1.1,Win32,60.60606061,67503701c4ef8958767a58d9,69b95efdef24cd8a694e89ee,69b960023d95e0bc67e1dd4a,0.1578,0.1578,1,81,243,92,1,sevenfive,,,,,,,,,,,,,,,,,,,,,,,,,,,,,,,,,,,,,,,,,,,,,,,,,,,,,,,,,,,,,,,,,,,,,,,,,,,,,,,,,,,,,,,,,,,,,,,,,,,,,,,,,,,,,,,,,,,,,,,,,,,,,,,,,,,,,,,,,
,,67503701c4ef8958767a58d9,2026-03-17_14h02.43.287,kallum_motion_pilot_GIST_update_2,2026.1.1,Win32,60.60606061,67503701c4ef8958767a58d9,69b95efdef24cd8a694e89ee,69b960023d95e0bc67e1dd4a,0.1582,0.1582,1,82,244,51,1,twofour,,,,,,,,,,,,,,,,,,,,,,,,,,,,,,,,,,,,,,,,,,,,,,,,,,,,,,,,,,,,,,,,,,,,,,,,,,,,,,,,,,,,,,,,,,,,,,,,,,,,,,,,,,,,,,,,,,,,,,,,,,,,,,,,,,,,,,,,,
,,67503701c4ef8958767a58d9,2026-03-17_14h02.43.287,kallum_motion_pilot_GIST_update_2,2026.1.1,Win32,60.60606061,67503701c4ef8958767a58d9,69b95efdef24cd8a694e89ee,69b960023d95e0bc67e1dd4a,0.1585,0.1585,1,83,245,129,1,fiveseven,,,,,,,,,,,,,,,,,,,,,,,,,,,,,,,,,,,,,,,,,,,,,,,,,,,,,,,,,,,,,,,,,,,,,,,,,,,,,,,,,,,,,,,,,,,,,,,,,,,,,,,,,,,,,,,,,,,,,,,,,,,,,,,,,,,,,,,,,
,,67503701c4ef8958767a58d9,2026-03-17_14h02.43.287,kallum_motion_pilot_GIST_update_2,2026.1.1,Win32,60.60606061,67503701c4ef8958767a58d9,69b95efdef24cd8a694e89ee,69b960023d95e0bc67e1dd4a,0.1589,0.1589,1,84,246,157,1,seveneight,,,,,,,,,,,,,,,,,,,,,,,,,,,,,,,,,,,,,,,,,,,,,,,,,,,,,,,,,,,,,,,,,,,,,,,,,,,,,,,,,,,,,,,,,,,,,,,,,,,,,,,,,,,,,,,,,,,,,,,,,,,,,,,,,,,,,,,,,
,,67503701c4ef8958767a58d9,2026-03-17_14h02.43.287,kallum_motion_pilot_GIST_update_2,2026.1.1,Win32,60.60606061,67503701c4ef8958767a58d9,69b95efdef24cd8a694e89ee,69b960023d95e0bc67e1dd4a,0.1591,0.1591,1,85,247,59,1,twofour,,,,,,,,,,,,,,,,,,,,,,,,,,,,,,,,,,,,,,,,,,,,,,,,,,,,,,,,,,,,,,,,,,,,,,,,,,,,,,,,,,,,,,,,,,,,,,,,,,,,,,,,,,,,,,,,,,,,,,,,,,,,,,,,,,,,,,,,,
,,67503701c4ef8958767a58d9,2026-03-17_14h02.43.287,kallum_motion_pilot_GIST_update_2,2026.1.1,Win32,60.60606061,67503701c4ef8958767a58d9,69b95efdef24cd8a694e89ee,69b960023d95e0bc67e1dd4a,0.1595,0.1595,1,86,248,23,1,fourthree,,,,,,,,,,,,,,,,,,,,,,,,,,,,,,,,,,,,,,,,,,,,,,,,,,,,,,,,,,,,,,,,,,,,,,,,,,,,,,,,,,,,,,,,,,,,,,,,,,,,,,,,,,,,,,,,,,,,,,,,,,,,,,,,,,,,,,,,,
,,67503701c4ef8958767a58d9,2026-03-17_14h02.43.287,kallum_motion_pilot_GIST_update_2,2026.1.1,Win32,60.60606061,67503701c4ef8958767a58d9,69b95efdef24cd8a694e89ee,69b960023d95e0bc67e1dd4a,0.1597,0.1597,1,87,249,133,1,seveneight,,,,,,,,,,,,,,,,,,,,,,,,,,,,,,,,,,,,,,,,,,,,,,,,,,,,,,,,,,,,,,,,,,,,,,,,,,,,,,,,,,,,,,,,,,,,,,,,,,,,,,,,,,,,,,,,,,,,,,,,,,,,,,,,,,,,,,,,,
,,67503701c4ef8958767a58d9,2026-03-17_14h02.43.287,kallum_motion_pilot_GIST_update_2,2026.1.1,Win32,60.60606061,67503701c4ef8958767a58d9,69b95efdef24cd8a694e89ee,69b960023d95e0bc67e1dd4a,0.1601,0.1601,1,88,250,95,1,eightseven,,,,,,,,,,,,,,,,,,,,,,,,,,,,,,,,,,,,,,,,,,,,,,,,,,,,,,,,,,,,,,,,,,,,,,,,,,,,,,,,,,,,,,,,,,,,,,,,,,,,,,,,,,,,,,,,,,,,,,,,,,,,,,,,,,,,,,,,,
,,67503701c4ef8958767a58d9,2026-03-17_14h02.43.287,kallum_motion_pilot_GIST_update_2,2026.1.1,Win32,60.60606061,67503701c4ef8958767a58d9,69b95efdef24cd8a694e89ee,69b960023d95e0bc67e1dd4a,0.1604,0.1604,1,89,251,2,1,twoone,,,,,,,,,,,,,,,,,,,,,,,,,,,,,,,,,,,,,,,,,,,,,,,,,,,,,,,,,,,,,,,,,,,,,,,,,,,,,,,,,,,,,,,,,,,,,,,,,,,,,,,,,,,,,,,,,,,,,,,,,,,,,,,,,,,,,,,,,
,,67503701c4ef8958767a58d9,2026-03-17_14h02.43.287,kallum_motion_pilot_GIST_update_2,2026.1.1,Win32,60.60606061,67503701c4ef8958767a58d9,69b95efdef24cd8a694e89ee,69b960023d95e0bc67e1dd4a,0.1607,0.1607,1,90,252,151,1,eightseven,,,,,,,,,,,,,,,,,,,,,,,,,,,,,,,,,,,,,,,,,,,,,,,,,,,,,,,,,,,,,,,,,,,,,,,,,,,,,,,,,,,,,,,,,,,,,,,,,,,,,,,,,,,,,,,,,,,,,,,,,,,,,,,,,,,,,,,,,
,,67503701c4ef8958767a58d9,2026-03-17_14h02.43.287,kallum_motion_pilot_GIST_update_2,2026.1.1,Win32,60.60606061,67503701c4ef8958767a58d9,69b95efdef24cd8a694e89ee,69b960023d95e0bc67e1dd4a,0.161,0.161,1,91,253,159,1,eightseven,,,,,,,,,,,,,,,,,,,,,,,,,,,,,,,,,,,,,,,,,,,,,,,,,,,,,,,,,,,,,,,,,,,,,,,,,,,,,,,,,,,,,,,,,,,,,,,,,,,,,,,,,,,,,,,,,,,,,,,,,,,,,,,,,,,,,,,,,
,,67503701c4ef8958767a58d9,2026-03-17_14h02.43.287,kallum_motion_pilot_GIST_update_2,2026.1.1,Win32,60.60606061,67503701c4ef8958767a58d9,69b95efdef24cd8a694e89ee,69b960023d95e0bc67e1dd4a,0.1614,0.1614,1,92,254,125,1,seveneight,,,,,,,,,,,,,,,,,,,,,,,,,,,,,,,,,,,,,,,,,,,,,,,,,,,,,,,,,,,,,,,,,,,,,,,,,,,,,,,,,,,,,,,,,,,,,,,,,,,,,,,,,,,,,,,,,,,,,,,,,,,,,,,,,,,,,,,,,
,,67503701c4ef8958767a58d9,2026-03-17_14h02.43.287,kallum_motion_pilot_GIST_update_2,2026.1.1,Win32,60.60606061,67503701c4ef8958767a58d9,69b95efdef24cd8a694e89ee,69b960023d95e0bc67e1dd4a,0.1619,0.1619,1,93,255,98,1,sixfive,,,,,,,,,,,,,,,,,,,,,,,,,,,,,,,,,,,,,,,,,,,,,,,,,,,,,,,,,,,,,,,,,,,,,,,,,,,,,,,,,,,,,,,,,,,,,,,,,,,,,,,,,,,,,,,,,,,,,,,,,,,,,,,,,,,,,,,,,
,,67503701c4ef8958767a58d9,2026-03-17_14h02.43.287,kallum_motion_pilot_GIST_update_2,2026.1.1,Win32,60.60606061,67503701c4ef8958767a58d9,69b95efdef24cd8a694e89ee,69b960023d95e0bc67e1dd4a,0.1623,0.1623,1,94,256,45,1,threefour,,,,,,,,,,,,,,,,,,,,,,,,,,,,,,,,,,,,,,,,,,,,,,,,,,,,,,,,,,,,,,,,,,,,,,,,,,,,,,,,,,,,,,,,,,,,,,,,,,,,,,,,,,,,,,,,,,,,,,,,,,,,,,,,,,,,,,,,,
,,67503701c4ef8958767a58d9,2026-03-17_14h02.43.287,kallum_motion_pilot_GIST_update_2,2026.1.1,Win32,60.60606061,67503701c4ef8958767a58d9,69b95efdef24cd8a694e89ee,69b960023d95e0bc67e1dd4a,0.1627,0.1627,1,95,257,34,1,twoone,,,,,,,,,,,,,,,,,,,,,,,,,,,,,,,,,,,,,,,,,,,,,,,,,,,,,,,,,,,,,,,,,,,,,,,,,,,,,,,,,,,,,,,,,,,,,,,,,,,,,,,,,,,,,,,,,,,,,,,,,,,,,,,,,,,,,,,,,
,,67503701c4ef8958767a58d9,2026-03-17_14h02.43.287,kallum_motion_pilot_GIST_update_2,2026.1.1,Win32,60.60606061,67503701c4ef8958767a58d9,69b95efdef24cd8a694e89ee,69b960023d95e0bc67e1dd4a,0.163,0.1631,1,96,258,24,1,onetwo,,,,,,,,,,,,,,,,,,,,,,,,,,,,,,,,,,,,,,,,,,,,,,,,,,,,,,,,,,,,,,,,,,,,,,,,,,,,,,,,,,,,,,,,,,,,,,,,,,,,,,,,,,,,,,,,,,,,,,,,,,,,,,,,,,,,,,,,,
,,67503701c4ef8958767a58d9,2026-03-17_14h02.43.287,kallum_motion_pilot_GIST_update_2,2026.1.1,Win32,60.60606061,67503701c4ef8958767a58d9,69b95efdef24cd8a694e89ee,69b960023d95e0bc67e1dd4a,0.1634,0.1634,1,97,259,99,1,sixeight,,,,,,,,,,,,,,,,,,,,,,,,,,,,,,,,,,,,,,,,,,,,,,,,,,,,,,,,,,,,,,,,,,,,,,,,,,,,,,,,,,,,,,,,,,,,,,,,,,,,,,,,,,,,,,,,,,,,,,,,,,,,,,,,,,,,,,,,,
,,67503701c4ef8958767a58d9,2026-03-17_14h02.43.287,kallum_motion_pilot_GIST_update_2,2026.1.1,Win32,60.60606061,67503701c4ef8958767a58d9,69b95efdef24cd8a694e89ee,69b960023d95e0bc67e1dd4a,0.1638,0.1638,1,98,260,41,1,onethree,,,,,,,,,,,,,,,,,,,,,,,,,,,,,,,,,,,,,,,,,,,,,,,,,,,,,,,,,,,,,,,,,,,,,,,,,,,,,,,,,,,,,,,,,,,,,,,,,,,,,,,,,,,,,,,,,,,,,,,,,,,,,,,,,,,,,,,,,
,,67503701c4ef8958767a58d9,2026-03-17_14h02.43.287,kallum_motion_pilot_GIST_update_2,2026.1.1,Win32,60.60606061,67503701c4ef8958767a58d9,69b95efdef24cd8a694e89ee,69b960023d95e0bc67e1dd4a,0.1641,0.1642,1,99,261,116,1,sevenfive,,,,,,,,,,,,,,,,,,,,,,,,,,,,,,,,,,,,,,,,,,,,,,,,,,,,,,,,,,,,,,,,,,,,,,,,,,,,,,,,,,,,,,,,,,,,,,,,,,,,,,,,,,,,,,,,,,,,,,,,,,,,,,,,,,,,,,,,,
,,67503701c4ef8958767a58d9,2026-03-17_14h02.43.287,kallum_motion_pilot_GIST_update_2,2026.1.1,Win32,60.60606061,67503701c4ef8958767a58d9,69b95efdef24cd8a694e89ee,69b960023d95e0bc67e1dd4a,0.1645,0.1645,1,100,262,108,1,sevenfive,,,,,,,,,,,,,,,,,,,,,,,,,,,,,,,,,,,,,,,,,,,,,,,,,,,,,,,,,,,,,,,,,,,,,,,,,,,,,,,,,,,,,,,,,,,,,,,,,,,,,,,,,,,,,,,,,,,,,,,,,,,,,,,,,,,,,,,,,
,,67503701c4ef8958767a58d9,2026-03-17_14h02.43.287,kallum_motion_pilot_GIST_update_2,2026.1.1,Win32,60.60606061,67503701c4ef8958767a58d9,69b95efdef24cd8a694e89ee,69b960023d95e0bc67e1dd4a,0.1649,0.1649,1,101,263,74,1,twoone,,,,,,,,,,,,,,,,,,,,,,,,,,,,,,,,,,,,,,,,,,,,,,,,,,,,,,,,,,,,,,,,,,,,,,,,,,,,,,,,,,,,,,,,,,,,,,,,,,,,,,,,,,,,,,,,,,,,,,,,,,,,,,,,,,,,,,,,,
,,67503701c4ef8958767a58d9,2026-03-17_14h02.43.287,kallum_motion_pilot_GIST_update_2,2026.1.1,Win32,60.60606061,67503701c4ef8958767a58d9,69b95efdef24cd8a694e89ee,69b960023d95e0bc67e1dd4a,0.1655,0.1655,1,102,264,156,1,sevenfive,,,,,,,,,,,,,,,,,,,,,,,,,,,,,,,,,,,,,,,,,,,,,,,,,,,,,,,,,,,,,,,,,,,,,,,,,,,,,,,,,,,,,,,,,,,,,,,,,,,,,,,,,,,,,,,,,,,,,,,,,,,,,,,,,,,,,,,,,
,,67503701c4ef8958767a58d9,2026-03-17_14h02.43.287,kallum_motion_pilot_GIST_update_2,2026.1.1,Win32,60.60606061,67503701c4ef8958767a58d9,69b95efdef24cd8a694e89ee,69b960023d95e0bc67e1dd4a,0.1661,0.1661,1,103,265,61,1,threefour,,,,,,,,,,,,,,,,,,,,,,,,,,,,,,,,,,,,,,,,,,,,,,,,,,,,,,,,,,,,,,,,,,,,,,,,,,,,,,,,,,,,,,,,,,,,,,,,,,,,,,,,,,,,,,,,,,,,,,,,,,,,,,,,,,,,,,,,,
,,67503701c4ef8958767a58d9,2026-03-17_14h02.43.287,kallum_motion_pilot_GIST_update_2,2026.1.1,Win32,60.60606061,67503701c4ef8958767a58d9,69b95efdef24cd8a694e89ee,69b960023d95e0bc67e1dd4a,0.1664,0.1664,1,104,266,140,1,sevenfive,,,,,,,,,,,,,,,,,,,,,,,,,,,,,,,,,,,,,,,,,,,,,,,,,,,,,,,,,,,,,,,,,,,,,,,,,,,,,,,,,,,,,,,,,,,,,,,,,,,,,,,,,,,,,,,,,,,,,,,,,,,,,,,,,,,,,,,,,
