startup.started,startup.stopped,Prolific ID*,date,expName,psychopyVersion,OS,frameRate,participant,study_id,session,stimpositions.started,stimpositions.stopped,hardcoded_stimulus_positions.thisRepN,hardcoded_stimulus_positions.thisTrialN,hardcoded_stimulus_positions.thisN,hardcoded_stimulus_positions.thisIndex,hardcoded_stimulus_positions.ran,StimulusPos,stimorientation.started,stimorientation.stopped,prac_stimorientation_import_loop.thisRepN,prac_stimorientation_import_loop.thisTrialN,prac_stimorientation_import_loop.thisN,prac_stimorientation_import_loop.thisIndex,prac_stimorientation_import_loop.ran,Stimorientation,welcome_instr.started,welcome_instr.stopped,key_resp.keys,key_resp.rt,key_resp.duration,response_steppedout_1.started,response_steppedout_1.stopped,key_resp_20.keys,key_resp_20.rt,key_resp_20.duration,response_steppedout_2.started,response_steppedout_2.stopped,key_resp_19.keys,key_resp_19.rt,key_resp_19.duration,stim_response_instr.started,stim_response_instr.stopped,key_resp_15.keys,key_resp_15.rt,key_resp_15.duration,direction_instr_2.started,direction_instr_2.stopped,key_resp_9.keys,key_resp_9.rt,key_resp_9.duration,instr_prac.started,instr_prac.stopped,key_resp_10.keys,key_resp_10.rt,key_resp_10.duration,Stim1_display_prac.started,Stim1_display_prac.stopped,Ecc,Circle1_ori,Circle2_ori,response_prac.started,similarity,response_time,response_prac.stopped,mouse_5.x,mouse_5.y,mouse_5.leftButton,mouse_5.midButton,mouse_5.rightButton,mouse_5.clicked_name,responseprac_feedback.started,responseprac_feedback.stopped,summary2_prac.started,summary2_prac.stopped,mouse_6.x,mouse_6.y,mouse_6.leftButton,mouse_6.midButton,mouse_6.rightButton,mouse_6.clicked_name,duringprac.thisRepN,duringprac.thisTrialN,duringprac.thisN,duringprac.thisIndex,duringprac.ran,begin.started,begin.stopped,key_resp_22.keys,key_resp_22.rt,key_resp_22.duration,Stim1_display.started,Stim1_display.stopped,circle1_ori,circle2_ori,circle1_SF,circle2_SF,response.started,response.stopped,mouse.x,mouse.y,mouse.leftButton,mouse.midButton,mouse.rightButton,mouse.clicked_name,trialnumber,double_pass.thisRepN,double_pass.thisTrialN,double_pass.thisN,double_pass.thisIndex,double_pass.ran,double_pass.order,main_trial.thisRepN,main_trial.thisTrialN,main_trial.thisN,main_trial.thisIndex,main_trial.ran,main_trial.order,Trial_Counter,Catch,Frequencies,response_2.started,response_2.stopped,mouse_2.x,mouse_2.y,mouse_2.leftButton,mouse_2.midButton,mouse_2.rightButton,mouse_2.clicked_name,special_trial.started,special_trial.stopped,catch_1.started,catch_1.stopped,mouse_3.x,mouse_3.y,mouse_3.leftButton,mouse_3.midButton,mouse_3.rightButton,catchresponse,catchnumber,response_time_catch,response_sum.started,response_sum.stopped,mouse_11.x,mouse_11.y,mouse_11.leftButton,mouse_11.midButton,mouse_11.rightButton,flip_presentation_sequence_for_double_pass.started,flip_presentation_sequence_for_double_pass.stopped,goodbye.started,goodbye.stopped,key_resp_3.keys,key_resp_3.rt,key_resp_3.duration
0.0003,0.0005,67700724f07c694ad429287a,2026-03-17_14h14.00.264,kallum_motion_pilot_GIST_update_2,2026.1.1,Win32,60.24096386,67700724f07c694ad429287a,69b95efdef24cd8a694e89ee,69b96159d85520ac69b5559e,,,,,,,,,,,,,,,,,,,,,,,,,,,,,,,,,,,,,,,,,,,,,,,,,,,,,,,,,,,,,,,,,,,,,,,,,,,,,,,,,,,,,,,,,,,,,,,,,,,,,,,,,,,,,,,,,,,,,,,,,,,,,,,,,,,,,,,,,,,,,,,,,
,,67700724f07c694ad429287a,2026-03-17_14h14.00.264,kallum_motion_pilot_GIST_update_2,2026.1.1,Win32,60.24096386,67700724f07c694ad429287a,69b95efdef24cd8a694e89ee,69b96159d85520ac69b5559e,0.0193,0.0193,0,0,0,131,1,sixeight,,,,,,,,,,,,,,,,,,,,,,,,,,,,,,,,,,,,,,,,,,,,,,,,,,,,,,,,,,,,,,,,,,,,,,,,,,,,,,,,,,,,,,,,,,,,,,,,,,,,,,,,,,,,,,,,,,,,,,,,,,,,,,,,,,,,,,,,,
,,67700724f07c694ad429287a,2026-03-17_14h14.00.264,kallum_motion_pilot_GIST_update_2,2026.1.1,Win32,60.24096386,67700724f07c694ad429287a,69b95efdef24cd8a694e89ee,69b96159d85520ac69b5559e,0.0196,0.0196,0,1,1,151,1,eightseven,,,,,,,,,,,,,,,,,,,,,,,,,,,,,,,,,,,,,,,,,,,,,,,,,,,,,,,,,,,,,,,,,,,,,,,,,,,,,,,,,,,,,,,,,,,,,,,,,,,,,,,,,,,,,,,,,,,,,,,,,,,,,,,,,,,,,,,,,
,,67700724f07c694ad429287a,2026-03-17_14h14.00.264,kallum_motion_pilot_GIST_update_2,2026.1.1,Win32,60.24096386,67700724f07c694ad429287a,69b95efdef24cd8a694e89ee,69b96159d85520ac69b5559e,0.0196,0.0196,0,2,2,116,1,sevenfive,,,,,,,,,,,,,,,,,,,,,,,,,,,,,,,,,,,,,,,,,,,,,,,,,,,,,,,,,,,,,,,,,,,,,,,,,,,,,,,,,,,,,,,,,,,,,,,,,,,,,,,,,,,,,,,,,,,,,,,,,,,,,,,,,,,,,,,,,
,,67700724f07c694ad429287a,2026-03-17_14h14.00.264,kallum_motion_pilot_GIST_update_2,2026.1.1,Win32,60.24096386,67700724f07c694ad429287a,69b95efdef24cd8a694e89ee,69b96159d85520ac69b5559e,0.0197,0.0198,0,3,3,126,1,eightsix,,,,,,,,,,,,,,,,,,,,,,,,,,,,,,,,,,,,,,,,,,,,,,,,,,,,,,,,,,,,,,,,,,,,,,,,,,,,,,,,,,,,,,,,,,,,,,,,,,,,,,,,,,,,,,,,,,,,,,,,,,,,,,,,,,,,,,,,,
,,67700724f07c694ad429287a,2026-03-17_14h14.00.264,kallum_motion_pilot_GIST_update_2,2026.1.1,Win32,60.24096386,67700724f07c694ad429287a,69b95efdef24cd8a694e89ee,69b96159d85520ac69b5559e,0.0198,0.0198,0,4,4,101,1,seveneight,,,,,,,,,,,,,,,,,,,,,,,,,,,,,,,,,,,,,,,,,,,,,,,,,,,,,,,,,,,,,,,,,,,,,,,,,,,,,,,,,,,,,,,,,,,,,,,,,,,,,,,,,,,,,,,,,,,,,,,,,,,,,,,,,,,,,,,,,
,,67700724f07c694ad429287a,2026-03-17_14h14.00.264,kallum_motion_pilot_GIST_update_2,2026.1.1,Win32,60.24096386,67700724f07c694ad429287a,69b95efdef24cd8a694e89ee,69b96159d85520ac69b5559e,0.0199,0.0199,0,5,5,134,1,eightsix,,,,,,,,,,,,,,,,,,,,,,,,,,,,,,,,,,,,,,,,,,,,,,,,,,,,,,,,,,,,,,,,,,,,,,,,,,,,,,,,,,,,,,,,,,,,,,,,,,,,,,,,,,,,,,,,,,,,,,,,,,,,,,,,,,,,,,,,,
,,67700724f07c694ad429287a,2026-03-17_14h14.00.264,kallum_motion_pilot_GIST_update_2,2026.1.1,Win32,60.24096386,67700724f07c694ad429287a,69b95efdef24cd8a694e89ee,69b96159d85520ac69b5559e,0.02,0.02,0,6,6,31,1,fourthree,,,,,,,,,,,,,,,,,,,,,,,,,,,,,,,,,,,,,,,,,,,,,,,,,,,,,,,,,,,,,,,,,,,,,,,,,,,,,,,,,,,,,,,,,,,,,,,,,,,,,,,,,,,,,,,,,,,,,,,,,,,,,,,,,,,,,,,,,
,,67700724f07c694ad429287a,2026-03-17_14h14.00.264,kallum_motion_pilot_GIST_update_2,2026.1.1,Win32,60.24096386,67700724f07c694ad429287a,69b95efdef24cd8a694e89ee,69b96159d85520ac69b5559e,0.0202,0.0202,0,7,7,61,1,threefour,,,,,,,,,,,,,,,,,,,,,,,,,,,,,,,,,,,,,,,,,,,,,,,,,,,,,,,,,,,,,,,,,,,,,,,,,,,,,,,,,,,,,,,,,,,,,,,,,,,,,,,,,,,,,,,,,,,,,,,,,,,,,,,,,,,,,,,,,
,,67700724f07c694ad429287a,2026-03-17_14h14.00.264,kallum_motion_pilot_GIST_update_2,2026.1.1,Win32,60.24096386,67700724f07c694ad429287a,69b95efdef24cd8a694e89ee,69b96159d85520ac69b5559e,0.0202,0.0202,0,8,8,86,1,eightsix,,,,,,,,,,,,,,,,,,,,,,,,,,,,,,,,,,,,,,,,,,,,,,,,,,,,,,,,,,,,,,,,,,,,,,,,,,,,,,,,,,,,,,,,,,,,,,,,,,,,,,,,,,,,,,,,,,,,,,,,,,,,,,,,,,,,,,,,,
,,67700724f07c694ad429287a,2026-03-17_14h14.00.264,kallum_motion_pilot_GIST_update_2,2026.1.1,Win32,60.24096386,67700724f07c694ad429287a,69b95efdef24cd8a694e89ee,69b96159d85520ac69b5559e,0.0203,0.0203,0,9,9,95,1,eightseven,,,,,,,,,,,,,,,,,,,,,,,,,,,,,,,,,,,,,,,,,,,,,,,,,,,,,,,,,,,,,,,,,,,,,,,,,,,,,,,,,,,,,,,,,,,,,,,,,,,,,,,,,,,,,,,,,,,,,,,,,,,,,,,,,,,,,,,,,
,,67700724f07c694ad429287a,2026-03-17_14h14.00.264,kallum_motion_pilot_GIST_update_2,2026.1.1,Win32,60.24096386,67700724f07c694ad429287a,69b95efdef24cd8a694e89ee,69b96159d85520ac69b5559e,0.0204,0.0204,0,10,10,98,1,sixfive,,,,,,,,,,,,,,,,,,,,,,,,,,,,,,,,,,,,,,,,,,,,,,,,,,,,,,,,,,,,,,,,,,,,,,,,,,,,,,,,,,,,,,,,,,,,,,,,,,,,,,,,,,,,,,,,,,,,,,,,,,,,,,,,,,,,,,,,,
,,67700724f07c694ad429287a,2026-03-17_14h14.00.264,kallum_motion_pilot_GIST_update_2,2026.1.1,Win32,60.24096386,67700724f07c694ad429287a,69b95efdef24cd8a694e89ee,69b96159d85520ac69b5559e,0.0205,0.0206,0,11,11,25,1,onethree,,,,,,,,,,,,,,,,,,,,,,,,,,,,,,,,,,,,,,,,,,,,,,,,,,,,,,,,,,,,,,,,,,,,,,,,,,,,,,,,,,,,,,,,,,,,,,,,,,,,,,,,,,,,,,,,,,,,,,,,,,,,,,,,,,,,,,,,,
,,67700724f07c694ad429287a,2026-03-17_14h14.00.264,kallum_motion_pilot_GIST_update_2,2026.1.1,Win32,60.24096386,67700724f07c694ad429287a,69b95efdef24cd8a694e89ee,69b96159d85520ac69b5559e,0.0206,0.0206,0,12,12,89,1,fiveseven,,,,,,,,,,,,,,,,,,,,,,,,,,,,,,,,,,,,,,,,,,,,,,,,,,,,,,,,,,,,,,,,,,,,,,,,,,,,,,,,,,,,,,,,,,,,,,,,,,,,,,,,,,,,,,,,,,,,,,,,,,,,,,,,,,,,,,,,,
,,67700724f07c694ad429287a,2026-03-17_14h14.00.264,kallum_motion_pilot_GIST_update_2,2026.1.1,Win32,60.24096386,67700724f07c694ad429287a,69b95efdef24cd8a694e89ee,69b96159d85520ac69b5559e,0.0206,0.0206,0,13,13,125,1,seveneight,,,,,,,,,,,,,,,,,,,,,,,,,,,,,,,,,,,,,,,,,,,,,,,,,,,,,,,,,,,,,,,,,,,,,,,,,,,,,,,,,,,,,,,,,,,,,,,,,,,,,,,,,,,,,,,,,,,,,,,,,,,,,,,,,,,,,,,,,
,,67700724f07c694ad429287a,2026-03-17_14h14.00.264,kallum_motion_pilot_GIST_update_2,2026.1.1,Win32,60.24096386,67700724f07c694ad429287a,69b95efdef24cd8a694e89ee,69b96159d85520ac69b5559e,0.0207,0.0207,0,14,14,3,1,twofour,,,,,,,,,,,,,,,,,,,,,,,,,,,,,,,,,,,,,,,,,,,,,,,,,,,,,,,,,,,,,,,,,,,,,,,,,,,,,,,,,,,,,,,,,,,,,,,,,,,,,,,,,,,,,,,,,,,,,,,,,,,,,,,,,,,,,,,,,
,,67700724f07c694ad429287a,2026-03-17_14h14.00.264,kallum_motion_pilot_GIST_update_2,2026.1.1,Win32,60.24096386,67700724f07c694ad429287a,69b95efdef24cd8a694e89ee,69b96159d85520ac69b5559e,0.0208,0.0208,0,15,15,38,1,fourtwo,,,,,,,,,,,,,,,,,,,,,,,,,,,,,,,,,,,,,,,,,,,,,,,,,,,,,,,,,,,,,,,,,,,,,,,,,,,,,,,,,,,,,,,,,,,,,,,,,,,,,,,,,,,,,,,,,,,,,,,,,,,,,,,,,,,,,,,,,
,,67700724f07c694ad429287a,2026-03-17_14h14.00.264,kallum_motion_pilot_GIST_update_2,2026.1.1,Win32,60.24096386,67700724f07c694ad429287a,69b95efdef24cd8a694e89ee,69b96159d85520ac69b5559e,0.0209,0.0209,0,16,16,150,1,eightsix,,,,,,,,,,,,,,,,,,,,,,,,,,,,,,,,,,,,,,,,,,,,,,,,,,,,,,,,,,,,,,,,,,,,,,,,,,,,,,,,,,,,,,,,,,,,,,,,,,,,,,,,,,,,,,,,,,,,,,,,,,,,,,,,,,,,,,,,,
,,67700724f07c694ad429287a,2026-03-17_14h14.00.264,kallum_motion_pilot_GIST_update_2,2026.1.1,Win32,60.24096386,67700724f07c694ad429287a,69b95efdef24cd8a694e89ee,69b96159d85520ac69b5559e,0.021,0.021,0,17,17,94,1,eightsix,,,,,,,,,,,,,,,,,,,,,,,,,,,,,,,,,,,,,,,,,,,,,,,,,,,,,,,,,,,,,,,,,,,,,,,,,,,,,,,,,,,,,,,,,,,,,,,,,,,,,,,,,,,,,,,,,,,,,,,,,,,,,,,,,,,,,,,,,
,,67700724f07c694ad429287a,2026-03-17_14h14.00.264,kallum_motion_pilot_GIST_update_2,2026.1.1,Win32,60.24096386,67700724f07c694ad429287a,69b95efdef24cd8a694e89ee,69b96159d85520ac69b5559e,0.021,0.021,0,18,18,115,1,sixeight,,,,,,,,,,,,,,,,,,,,,,,,,,,,,,,,,,,,,,,,,,,,,,,,,,,,,,,,,,,,,,,,,,,,,,,,,,,,,,,,,,,,,,,,,,,,,,,,,,,,,,,,,,,,,,,,,,,,,,,,,,,,,,,,,,,,,,,,,
,,67700724f07c694ad429287a,2026-03-17_14h14.00.264,kallum_motion_pilot_GIST_update_2,2026.1.1,Win32,60.24096386,67700724f07c694ad429287a,69b95efdef24cd8a694e89ee,69b96159d85520ac69b5559e,0.0212,0.0212,0,19,19,102,1,eightsix,,,,,,,,,,,,,,,,,,,,,,,,,,,,,,,,,,,,,,,,,,,,,,,,,,,,,,,,,,,,,,,,,,,,,,,,,,,,,,,,,,,,,,,,,,,,,,,,,,,,,,,,,,,,,,,,,,,,,,,,,,,,,,,,,,,,,,,,,
,,67700724f07c694ad429287a,2026-03-17_14h14.00.264,kallum_motion_pilot_GIST_update_2,2026.1.1,Win32,60.24096386,67700724f07c694ad429287a,69b95efdef24cd8a694e89ee,69b96159d85520ac69b5559e,0.0213,0.0213,0,20,20,138,1,sixfive,,,,,,,,,,,,,,,,,,,,,,,,,,,,,,,,,,,,,,,,,,,,,,,,,,,,,,,,,,,,,,,,,,,,,,,,,,,,,,,,,,,,,,,,,,,,,,,,,,,,,,,,,,,,,,,,,,,,,,,,,,,,,,,,,,,,,,,,,
,,67700724f07c694ad429287a,2026-03-17_14h14.00.264,kallum_motion_pilot_GIST_update_2,2026.1.1,Win32,60.24096386,67700724f07c694ad429287a,69b95efdef24cd8a694e89ee,69b96159d85520ac69b5559e,0.0213,0.0213,0,21,21,90,1,sixfive,,,,,,,,,,,,,,,,,,,,,,,,,,,,,,,,,,,,,,,,,,,,,,,,,,,,,,,,,,,,,,,,,,,,,,,,,,,,,,,,,,,,,,,,,,,,,,,,,,,,,,,,,,,,,,,,,,,,,,,,,,,,,,,,,,,,,,,,,
,,67700724f07c694ad429287a,2026-03-17_14h14.00.264,kallum_motion_pilot_GIST_update_2,2026.1.1,Win32,60.24096386,67700724f07c694ad429287a,69b95efdef24cd8a694e89ee,69b96159d85520ac69b5559e,0.0214,0.0214,0,22,22,2,1,twoone,,,,,,,,,,,,,,,,,,,,,,,,,,,,,,,,,,,,,,,,,,,,,,,,,,,,,,,,,,,,,,,,,,,,,,,,,,,,,,,,,,,,,,,,,,,,,,,,,,,,,,,,,,,,,,,,,,,,,,,,,,,,,,,,,,,,,,,,,
,,67700724f07c694ad429287a,2026-03-17_14h14.00.264,kallum_motion_pilot_GIST_update_2,2026.1.1,Win32,60.24096386,67700724f07c694ad429287a,69b95efdef24cd8a694e89ee,69b96159d85520ac69b5559e,0.0214,0.0214,0,23,23,153,1,fiveseven,,,,,,,,,,,,,,,,,,,,,,,,,,,,,,,,,,,,,,,,,,,,,,,,,,,,,,,,,,,,,,,,,,,,,,,,,,,,,,,,,,,,,,,,,,,,,,,,,,,,,,,,,,,,,,,,,,,,,,,,,,,,,,,,,,,,,,,,,
,,67700724f07c694ad429287a,2026-03-17_14h14.00.264,kallum_motion_pilot_GIST_update_2,2026.1.1,Win32,60.24096386,67700724f07c694ad429287a,69b95efdef24cd8a694e89ee,69b96159d85520ac69b5559e,0.0215,0.0215,0,24,24,136,1,fivesix,,,,,,,,,,,,,,,,,,,,,,,,,,,,,,,,,,,,,,,,,,,,,,,,,,,,,,,,,,,,,,,,,,,,,,,,,,,,,,,,,,,,,,,,,,,,,,,,,,,,,,,,,,,,,,,,,,,,,,,,,,,,,,,,,,,,,,,,,
,,67700724f07c694ad429287a,2026-03-17_14h14.00.264,kallum_motion_pilot_GIST_update_2,2026.1.1,Win32,60.24096386,67700724f07c694ad429287a,69b95efdef24cd8a694e89ee,69b96159d85520ac69b5559e,0.0216,0.0216,0,25,25,9,1,onethree,,,,,,,,,,,,,,,,,,,,,,,,,,,,,,,,,,,,,,,,,,,,,,,,,,,,,,,,,,,,,,,,,,,,,,,,,,,,,,,,,,,,,,,,,,,,,,,,,,,,,,,,,,,,,,,,,,,,,,,,,,,,,,,,,,,,,,,,,
,,67700724f07c694ad429287a,2026-03-17_14h14.00.264,kallum_motion_pilot_GIST_update_2,2026.1.1,Win32,60.24096386,67700724f07c694ad429287a,69b95efdef24cd8a694e89ee,69b96159d85520ac69b5559e,0.0217,0.0217,0,26,26,77,1,threefour,,,,,,,,,,,,,,,,,,,,,,,,,,,,,,,,,,,,,,,,,,,,,,,,,,,,,,,,,,,,,,,,,,,,,,,,,,,,,,,,,,,,,,,,,,,,,,,,,,,,,,,,,,,,,,,,,,,,,,,,,,,,,,,,,,,,,,,,,
,,67700724f07c694ad429287a,2026-03-17_14h14.00.264,kallum_motion_pilot_GIST_update_2,2026.1.1,Win32,60.24096386,67700724f07c694ad429287a,69b95efdef24cd8a694e89ee,69b96159d85520ac69b5559e,0.0218,0.0218,0,27,27,88,1,fivesix,,,,,,,,,,,,,,,,,,,,,,,,,,,,,,,,,,,,,,,,,,,,,,,,,,,,,,,,,,,,,,,,,,,,,,,,,,,,,,,,,,,,,,,,,,,,,,,,,,,,,,,,,,,,,,,,,,,,,,,,,,,,,,,,,,,,,,,,,
,,67700724f07c694ad429287a,2026-03-17_14h14.00.264,kallum_motion_pilot_GIST_update_2,2026.1.1,Win32,60.24096386,67700724f07c694ad429287a,69b95efdef24cd8a694e89ee,69b96159d85520ac69b5559e,0.0219,0.0219,0,28,28,92,1,sevenfive,,,,,,,,,,,,,,,,,,,,,,,,,,,,,,,,,,,,,,,,,,,,,,,,,,,,,,,,,,,,,,,,,,,,,,,,,,,,,,,,,,,,,,,,,,,,,,,,,,,,,,,,,,,,,,,,,,,,,,,,,,,,,,,,,,,,,,,,,
,,67700724f07c694ad429287a,2026-03-17_14h14.00.264,kallum_motion_pilot_GIST_update_2,2026.1.1,Win32,60.24096386,67700724f07c694ad429287a,69b95efdef24cd8a694e89ee,69b96159d85520ac69b5559e,0.0219,0.0219,0,29,29,52,1,threeone,,,,,,,,,,,,,,,,,,,,,,,,,,,,,,,,,,,,,,,,,,,,,,,,,,,,,,,,,,,,,,,,,,,,,,,,,,,,,,,,,,,,,,,,,,,,,,,,,,,,,,,,,,,,,,,,,,,,,,,,,,,,,,,,,,,,,,,,,
,,67700724f07c694ad429287a,2026-03-17_14h14.00.264,kallum_motion_pilot_GIST_update_2,2026.1.1,Win32,60.24096386,67700724f07c694ad429287a,69b95efdef24cd8a694e89ee,69b96159d85520ac69b5559e,0.022,0.022,0,30,30,84,1,sevenfive,,,,,,,,,,,,,,,,,,,,,,,,,,,,,,,,,,,,,,,,,,,,,,,,,,,,,,,,,,,,,,,,,,,,,,,,,,,,,,,,,,,,,,,,,,,,,,,,,,,,,,,,,,,,,,,,,,,,,,,,,,,,,,,,,,,,,,,,,
,,67700724f07c694ad429287a,2026-03-17_14h14.00.264,kallum_motion_pilot_GIST_update_2,2026.1.1,Win32,60.24096386,67700724f07c694ad429287a,69b95efdef24cd8a694e89ee,69b96159d85520ac69b5559e,0.022,0.0221,0,31,31,121,1,fiveseven,,,,,,,,,,,,,,,,,,,,,,,,,,,,,,,,,,,,,,,,,,,,,,,,,,,,,,,,,,,,,,,,,,,,,,,,,,,,,,,,,,,,,,,,,,,,,,,,,,,,,,,,,,,,,,,,,,,,,,,,,,,,,,,,,,,,,,,,,
,,67700724f07c694ad429287a,2026-03-17_14h14.00.264,kallum_motion_pilot_GIST_update_2,2026.1.1,Win32,60.24096386,67700724f07c694ad429287a,69b95efdef24cd8a694e89ee,69b96159d85520ac69b5559e,0.0222,0.0222,0,32,32,158,1,eightsix,,,,,,,,,,,,,,,,,,,,,,,,,,,,,,,,,,,,,,,,,,,,,,,,,,,,,,,,,,,,,,,,,,,,,,,,,,,,,,,,,,,,,,,,,,,,,,,,,,,,,,,,,,,,,,,,,,,,,,,,,,,,,,,,,,,,,,,,,
,,67700724f07c694ad429287a,2026-03-17_14h14.00.264,kallum_motion_pilot_GIST_update_2,2026.1.1,Win32,60.24096386,67700724f07c694ad429287a,69b95efdef24cd8a694e89ee,69b96159d85520ac69b5559e,0.0222,0.0222,0,33,33,81,1,fiveseven,,,,,,,,,,,,,,,,,,,,,,,,,,,,,,,,,,,,,,,,,,,,,,,,,,,,,,,,,,,,,,,,,,,,,,,,,,,,,,,,,,,,,,,,,,,,,,,,,,,,,,,,,,,,,,,,,,,,,,,,,,,,,,,,,,,,,,,,,
,,67700724f07c694ad429287a,2026-03-17_14h14.00.264,kallum_motion_pilot_GIST_update_2,2026.1.1,Win32,60.24096386,67700724f07c694ad429287a,69b95efdef24cd8a694e89ee,69b96159d85520ac69b5559e,0.0223,0.0224,0,34,34,142,1,eightsix,,,,,,,,,,,,,,,,,,,,,,,,,,,,,,,,,,,,,,,,,,,,,,,,,,,,,,,,,,,,,,,,,,,,,,,,,,,,,,,,,,,,,,,,,,,,,,,,,,,,,,,,,,,,,,,,,,,,,,,,,,,,,,,,,,,,,,,,,
,,67700724f07c694ad429287a,2026-03-17_14h14.00.264,kallum_motion_pilot_GIST_update_2,2026.1.1,Win32,60.24096386,67700724f07c694ad429287a,69b95efdef24cd8a694e89ee,69b96159d85520ac69b5559e,0.0225,0.0225,0,35,35,79,1,eightseven,,,,,,,,,,,,,,,,,,,,,,,,,,,,,,,,,,,,,,,,,,,,,,,,,,,,,,,,,,,,,,,,,,,,,,,,,,,,,,,,,,,,,,,,,,,,,,,,,,,,,,,,,,,,,,,,,,,,,,,,,,,,,,,,,,,,,,,,,
,,67700724f07c694ad429287a,2026-03-17_14h14.00.264,kallum_motion_pilot_GIST_update_2,2026.1.1,Win32,60.24096386,67700724f07c694ad429287a,69b95efdef24cd8a694e89ee,69b96159d85520ac69b5559e,0.0226,0.0226,0,36,36,97,1,fiveseven,,,,,,,,,,,,,,,,,,,,,,,,,,,,,,,,,,,,,,,,,,,,,,,,,,,,,,,,,,,,,,,,,,,,,,,,,,,,,,,,,,,,,,,,,,,,,,,,,,,,,,,,,,,,,,,,,,,,,,,,,,,,,,,,,,,,,,,,,
,,67700724f07c694ad429287a,2026-03-17_14h14.00.264,kallum_motion_pilot_GIST_update_2,2026.1.1,Win32,60.24096386,67700724f07c694ad429287a,69b95efdef24cd8a694e89ee,69b96159d85520ac69b5559e,0.0227,0.0227,0,37,37,51,1,twofour,,,,,,,,,,,,,,,,,,,,,,,,,,,,,,,,,,,,,,,,,,,,,,,,,,,,,,,,,,,,,,,,,,,,,,,,,,,,,,,,,,,,,,,,,,,,,,,,,,,,,,,,,,,,,,,,,,,,,,,,,,,,,,,,,,,,,,,,,
,,67700724f07c694ad429287a,2026-03-17_14h14.00.264,kallum_motion_pilot_GIST_update_2,2026.1.1,Win32,60.24096386,67700724f07c694ad429287a,69b95efdef24cd8a694e89ee,69b96159d85520ac69b5559e,0.0227,0.0227,0,38,38,10,1,twoone,,,,,,,,,,,,,,,,,,,,,,,,,,,,,,,,,,,,,,,,,,,,,,,,,,,,,,,,,,,,,,,,,,,,,,,,,,,,,,,,,,,,,,,,,,,,,,,,,,,,,,,,,,,,,,,,,,,,,,,,,,,,,,,,,,,,,,,,,
,,67700724f07c694ad429287a,2026-03-17_14h14.00.264,kallum_motion_pilot_GIST_update_2,2026.1.1,Win32,60.24096386,67700724f07c694ad429287a,69b95efdef24cd8a694e89ee,69b96159d85520ac69b5559e,0.0228,0.0228,0,39,39,70,1,fourtwo,,,,,,,,,,,,,,,,,,,,,,,,,,,,,,,,,,,,,,,,,,,,,,,,,,,,,,,,,,,,,,,,,,,,,,,,,,,,,,,,,,,,,,,,,,,,,,,,,,,,,,,,,,,,,,,,,,,,,,,,,,,,,,,,,,,,,,,,,
,,67700724f07c694ad429287a,2026-03-17_14h14.00.264,kallum_motion_pilot_GIST_update_2,2026.1.1,Win32,60.24096386,67700724f07c694ad429287a,69b95efdef24cd8a694e89ee,69b96159d85520ac69b5559e,0.023,0.023,0,40,40,55,1,fourthree,,,,,,,,,,,,,,,,,,,,,,,,,,,,,,,,,,,,,,,,,,,,,,,,,,,,,,,,,,,,,,,,,,,,,,,,,,,,,,,,,,,,,,,,,,,,,,,,,,,,,,,,,,,,,,,,,,,,,,,,,,,,,,,,,,,,,,,,,
,,67700724f07c694ad429287a,2026-03-17_14h14.00.264,kallum_motion_pilot_GIST_update_2,2026.1.1,Win32,60.24096386,67700724f07c694ad429287a,69b95efdef24cd8a694e89ee,69b96159d85520ac69b5559e,0.023,0.023,0,41,41,37,1,threefour,,,,,,,,,,,,,,,,,,,,,,,,,,,,,,,,,,,,,,,,,,,,,,,,,,,,,,,,,,,,,,,,,,,,,,,,,,,,,,,,,,,,,,,,,,,,,,,,,,,,,,,,,,,,,,,,,,,,,,,,,,,,,,,,,,,,,,,,,
,,67700724f07c694ad429287a,2026-03-17_14h14.00.264,kallum_motion_pilot_GIST_update_2,2026.1.1,Win32,60.24096386,67700724f07c694ad429287a,69b95efdef24cd8a694e89ee,69b96159d85520ac69b5559e,0.0231,0.0231,0,42,42,7,1,fourthree,,,,,,,,,,,,,,,,,,,,,,,,,,,,,,,,,,,,,,,,,,,,,,,,,,,,,,,,,,,,,,,,,,,,,,,,,,,,,,,,,,,,,,,,,,,,,,,,,,,,,,,,,,,,,,,,,,,,,,,,,,,,,,,,,,,,,,,,,
,,67700724f07c694ad429287a,2026-03-17_14h14.00.264,kallum_motion_pilot_GIST_update_2,2026.1.1,Win32,60.24096386,67700724f07c694ad429287a,69b95efdef24cd8a694e89ee,69b96159d85520ac69b5559e,0.0232,0.0232,0,43,43,41,1,onethree,,,,,,,,,,,,,,,,,,,,,,,,,,,,,,,,,,,,,,,,,,,,,,,,,,,,,,,,,,,,,,,,,,,,,,,,,,,,,,,,,,,,,,,,,,,,,,,,,,,,,,,,,,,,,,,,,,,,,,,,,,,,,,,,,,,,,,,,,
,,67700724f07c694ad429287a,2026-03-17_14h14.00.264,kallum_motion_pilot_GIST_update_2,2026.1.1,Win32,60.24096386,67700724f07c694ad429287a,69b95efdef24cd8a694e89ee,69b96159d85520ac69b5559e,0.0232,0.0232,0,44,44,145,1,fiveseven,,,,,,,,,,,,,,,,,,,,,,,,,,,,,,,,,,,,,,,,,,,,,,,,,,,,,,,,,,,,,,,,,,,,,,,,,,,,,,,,,,,,,,,,,,,,,,,,,,,,,,,,,,,,,,,,,,,,,,,,,,,,,,,,,,,,,,,,,
,,67700724f07c694ad429287a,2026-03-17_14h14.00.264,kallum_motion_pilot_GIST_update_2,2026.1.1,Win32,60.24096386,67700724f07c694ad429287a,69b95efdef24cd8a694e89ee,69b96159d85520ac69b5559e,0.0233,0.0233,0,45,45,159,1,eightseven,,,,,,,,,,,,,,,,,,,,,,,,,,,,,,,,,,,,,,,,,,,,,,,,,,,,,,,,,,,,,,,,,,,,,,,,,,,,,,,,,,,,,,,,,,,,,,,,,,,,,,,,,,,,,,,,,,,,,,,,,,,,,,,,,,,,,,,,,
,,67700724f07c694ad429287a,2026-03-17_14h14.00.264,kallum_motion_pilot_GIST_update_2,2026.1.1,Win32,60.24096386,67700724f07c694ad429287a,69b95efdef24cd8a694e89ee,69b96159d85520ac69b5559e,0.0234,0.0234,0,46,46,106,1,sixfive,,,,,,,,,,,,,,,,,,,,,,,,,,,,,,,,,,,,,,,,,,,,,,,,,,,,,,,,,,,,,,,,,,,,,,,,,,,,,,,,,,,,,,,,,,,,,,,,,,,,,,,,,,,,,,,,,,,,,,,,,,,,,,,,,,,,,,,,,
,,67700724f07c694ad429287a,2026-03-17_14h14.00.264,kallum_motion_pilot_GIST_update_2,2026.1.1,Win32,60.24096386,67700724f07c694ad429287a,69b95efdef24cd8a694e89ee,69b96159d85520ac69b5559e,0.0234,0.0234,0,47,47,66,1,twoone,,,,,,,,,,,,,,,,,,,,,,,,,,,,,,,,,,,,,,,,,,,,,,,,,,,,,,,,,,,,,,,,,,,,,,,,,,,,,,,,,,,,,,,,,,,,,,,,,,,,,,,,,,,,,,,,,,,,,,,,,,,,,,,,,,,,,,,,,
,,67700724f07c694ad429287a,2026-03-17_14h14.00.264,kallum_motion_pilot_GIST_update_2,2026.1.1,Win32,60.24096386,67700724f07c694ad429287a,69b95efdef24cd8a694e89ee,69b96159d85520ac69b5559e,0.0236,0.0236,0,48,48,72,1,onetwo,,,,,,,,,,,,,,,,,,,,,,,,,,,,,,,,,,,,,,,,,,,,,,,,,,,,,,,,,,,,,,,,,,,,,,,,,,,,,,,,,,,,,,,,,,,,,,,,,,,,,,,,,,,,,,,,,,,,,,,,,,,,,,,,,,,,,,,,,
,,67700724f07c694ad429287a,2026-03-17_14h14.00.264,kallum_motion_pilot_GIST_update_2,2026.1.1,Win32,60.24096386,67700724f07c694ad429287a,69b95efdef24cd8a694e89ee,69b96159d85520ac69b5559e,0.0236,0.0236,0,49,49,23,1,fourthree,,,,,,,,,,,,,,,,,,,,,,,,,,,,,,,,,,,,,,,,,,,,,,,,,,,,,,,,,,,,,,,,,,,,,,,,,,,,,,,,,,,,,,,,,,,,,,,,,,,,,,,,,,,,,,,,,,,,,,,,,,,,,,,,,,,,,,,,,
,,67700724f07c694ad429287a,2026-03-17_14h14.00.264,kallum_motion_pilot_GIST_update_2,2026.1.1,Win32,60.24096386,67700724f07c694ad429287a,69b95efdef24cd8a694e89ee,69b96159d85520ac69b5559e,0.0238,0.0238,0,50,50,43,1,twofour,,,,,,,,,,,,,,,,,,,,,,,,,,,,,,,,,,,,,,,,,,,,,,,,,,,,,,,,,,,,,,,,,,,,,,,,,,,,,,,,,,,,,,,,,,,,,,,,,,,,,,,,,,,,,,,,,,,,,,,,,,,,,,,,,,,,,,,,,
,,67700724f07c694ad429287a,2026-03-17_14h14.00.264,kallum_motion_pilot_GIST_update_2,2026.1.1,Win32,60.24096386,67700724f07c694ad429287a,69b95efdef24cd8a694e89ee,69b96159d85520ac69b5559e,0.0239,0.0239,0,51,51,32,1,onetwo,,,,,,,,,,,,,,,,,,,,,,,,,,,,,,,,,,,,,,,,,,,,,,,,,,,,,,,,,,,,,,,,,,,,,,,,,,,,,,,,,,,,,,,,,,,,,,,,,,,,,,,,,,,,,,,,,,,,,,,,,,,,,,,,,,,,,,,,,
,,67700724f07c694ad429287a,2026-03-17_14h14.00.264,kallum_motion_pilot_GIST_update_2,2026.1.1,Win32,60.24096386,67700724f07c694ad429287a,69b95efdef24cd8a694e89ee,69b96159d85520ac69b5559e,0.024,0.024,0,52,52,141,1,seveneight,,,,,,,,,,,,,,,,,,,,,,,,,,,,,,,,,,,,,,,,,,,,,,,,,,,,,,,,,,,,,,,,,,,,,,,,,,,,,,,,,,,,,,,,,,,,,,,,,,,,,,,,,,,,,,,,,,,,,,,,,,,,,,,,,,,,,,,,,
,,67700724f07c694ad429287a,2026-03-17_14h14.00.264,kallum_motion_pilot_GIST_update_2,2026.1.1,Win32,60.24096386,67700724f07c694ad429287a,69b95efdef24cd8a694e89ee,69b96159d85520ac69b5559e,0.024,0.024,0,53,53,68,1,threeone,,,,,,,,,,,,,,,,,,,,,,,,,,,,,,,,,,,,,,,,,,,,,,,,,,,,,,,,,,,,,,,,,,,,,,,,,,,,,,,,,,,,,,,,,,,,,,,,,,,,,,,,,,,,,,,,,,,,,,,,,,,,,,,,,,,,,,,,,
,,67700724f07c694ad429287a,2026-03-17_14h14.00.264,kallum_motion_pilot_GIST_update_2,2026.1.1,Win32,60.24096386,67700724f07c694ad429287a,69b95efdef24cd8a694e89ee,69b96159d85520ac69b5559e,0.0241,0.0241,0,54,54,87,1,eightseven,,,,,,,,,,,,,,,,,,,,,,,,,,,,,,,,,,,,,,,,,,,,,,,,,,,,,,,,,,,,,,,,,,,,,,,,,,,,,,,,,,,,,,,,,,,,,,,,,,,,,,,,,,,,,,,,,,,,,,,,,,,,,,,,,,,,,,,,,
,,67700724f07c694ad429287a,2026-03-17_14h14.00.264,kallum_motion_pilot_GIST_update_2,2026.1.1,Win32,60.24096386,67700724f07c694ad429287a,69b95efdef24cd8a694e89ee,69b96159d85520ac69b5559e,0.0242,0.0242,0,55,55,132,1,sevenfive,,,,,,,,,,,,,,,,,,,,,,,,,,,,,,,,,,,,,,,,,,,,,,,,,,,,,,,,,,,,,,,,,,,,,,,,,,,,,,,,,,,,,,,,,,,,,,,,,,,,,,,,,,,,,,,,,,,,,,,,,,,,,,,,,,,,,,,,,
,,67700724f07c694ad429287a,2026-03-17_14h14.00.264,kallum_motion_pilot_GIST_update_2,2026.1.1,Win32,60.24096386,67700724f07c694ad429287a,69b95efdef24cd8a694e89ee,69b96159d85520ac69b5559e,0.0243,0.0243,0,56,56,17,1,onethree,,,,,,,,,,,,,,,,,,,,,,,,,,,,,,,,,,,,,,,,,,,,,,,,,,,,,,,,,,,,,,,,,,,,,,,,,,,,,,,,,,,,,,,,,,,,,,,,,,,,,,,,,,,,,,,,,,,,,,,,,,,,,,,,,,,,,,,,,
,,67700724f07c694ad429287a,2026-03-17_14h14.00.264,kallum_motion_pilot_GIST_update_2,2026.1.1,Win32,60.24096386,67700724f07c694ad429287a,69b95efdef24cd8a694e89ee,69b96159d85520ac69b5559e,0.0244,0.0244,0,57,57,21,1,threefour,,,,,,,,,,,,,,,,,,,,,,,,,,,,,,,,,,,,,,,,,,,,,,,,,,,,,,,,,,,,,,,,,,,,,,,,,,,,,,,,,,,,,,,,,,,,,,,,,,,,,,,,,,,,,,,,,,,,,,,,,,,,,,,,,,,,,,,,,
,,67700724f07c694ad429287a,2026-03-17_14h14.00.264,kallum_motion_pilot_GIST_update_2,2026.1.1,Win32,60.24096386,67700724f07c694ad429287a,69b95efdef24cd8a694e89ee,69b96159d85520ac69b5559e,0.0245,0.0245,0,58,58,100,1,sevenfive,,,,,,,,,,,,,,,,,,,,,,,,,,,,,,,,,,,,,,,,,,,,,,,,,,,,,,,,,,,,,,,,,,,,,,,,,,,,,,,,,,,,,,,,,,,,,,,,,,,,,,,,,,,,,,,,,,,,,,,,,,,,,,,,,,,,,,,,,
,,67700724f07c694ad429287a,2026-03-17_14h14.00.264,kallum_motion_pilot_GIST_update_2,2026.1.1,Win32,60.24096386,67700724f07c694ad429287a,69b95efdef24cd8a694e89ee,69b96159d85520ac69b5559e,0.0246,0.0246,0,59,59,117,1,seveneight,,,,,,,,,,,,,,,,,,,,,,,,,,,,,,,,,,,,,,,,,,,,,,,,,,,,,,,,,,,,,,,,,,,,,,,,,,,,,,,,,,,,,,,,,,,,,,,,,,,,,,,,,,,,,,,,,,,,,,,,,,,,,,,,,,,,,,,,,
,,67700724f07c694ad429287a,2026-03-17_14h14.00.264,kallum_motion_pilot_GIST_update_2,2026.1.1,Win32,60.24096386,67700724f07c694ad429287a,69b95efdef24cd8a694e89ee,69b96159d85520ac69b5559e,0.0247,0.0247,0,60,60,112,1,fivesix,,,,,,,,,,,,,,,,,,,,,,,,,,,,,,,,,,,,,,,,,,,,,,,,,,,,,,,,,,,,,,,,,,,,,,,,,,,,,,,,,,,,,,,,,,,,,,,,,,,,,,,,,,,,,,,,,,,,,,,,,,,,,,,,,,,,,,,,,
,,67700724f07c694ad429287a,2026-03-17_14h14.00.264,kallum_motion_pilot_GIST_update_2,2026.1.1,Win32,60.24096386,67700724f07c694ad429287a,69b95efdef24cd8a694e89ee,69b96159d85520ac69b5559e,0.0247,0.0247,0,61,61,122,1,sixfive,,,,,,,,,,,,,,,,,,,,,,,,,,,,,,,,,,,,,,,,,,,,,,,,,,,,,,,,,,,,,,,,,,,,,,,,,,,,,,,,,,,,,,,,,,,,,,,,,,,,,,,,,,,,,,,,,,,,,,,,,,,,,,,,,,,,,,,,,
,,67700724f07c694ad429287a,2026-03-17_14h14.00.264,kallum_motion_pilot_GIST_update_2,2026.1.1,Win32,60.24096386,67700724f07c694ad429287a,69b95efdef24cd8a694e89ee,69b96159d85520ac69b5559e,0.0248,0.0248,0,62,62,123,1,sixeight,,,,,,,,,,,,,,,,,,,,,,,,,,,,,,,,,,,,,,,,,,,,,,,,,,,,,,,,,,,,,,,,,,,,,,,,,,,,,,,,,,,,,,,,,,,,,,,,,,,,,,,,,,,,,,,,,,,,,,,,,,,,,,,,,,,,,,,,,
,,67700724f07c694ad429287a,2026-03-17_14h14.00.264,kallum_motion_pilot_GIST_update_2,2026.1.1,Win32,60.24096386,67700724f07c694ad429287a,69b95efdef24cd8a694e89ee,69b96159d85520ac69b5559e,0.0248,0.0249,0,63,63,48,1,onetwo,,,,,,,,,,,,,,,,,,,,,,,,,,,,,,,,,,,,,,,,,,,,,,,,,,,,,,,,,,,,,,,,,,,,,,,,,,,,,,,,,,,,,,,,,,,,,,,,,,,,,,,,,,,,,,,,,,,,,,,,,,,,,,,,,,,,,,,,,
,,67700724f07c694ad429287a,2026-03-17_14h14.00.264,kallum_motion_pilot_GIST_update_2,2026.1.1,Win32,60.24096386,67700724f07c694ad429287a,69b95efdef24cd8a694e89ee,69b96159d85520ac69b5559e,0.025,0.025,0,64,64,135,1,eightseven,,,,,,,,,,,,,,,,,,,,,,,,,,,,,,,,,,,,,,,,,,,,,,,,,,,,,,,,,,,,,,,,,,,,,,,,,,,,,,,,,,,,,,,,,,,,,,,,,,,,,,,,,,,,,,,,,,,,,,,,,,,,,,,,,,,,,,,,,
,,67700724f07c694ad429287a,2026-03-17_14h14.00.264,kallum_motion_pilot_GIST_update_2,2026.1.1,Win32,60.24096386,67700724f07c694ad429287a,69b95efdef24cd8a694e89ee,69b96159d85520ac69b5559e,0.0251,0.0251,0,65,65,14,1,fourtwo,,,,,,,,,,,,,,,,,,,,,,,,,,,,,,,,,,,,,,,,,,,,,,,,,,,,,,,,,,,,,,,,,,,,,,,,,,,,,,,,,,,,,,,,,,,,,,,,,,,,,,,,,,,,,,,,,,,,,,,,,,,,,,,,,,,,,,,,,
,,67700724f07c694ad429287a,2026-03-17_14h14.00.264,kallum_motion_pilot_GIST_update_2,2026.1.1,Win32,60.24096386,67700724f07c694ad429287a,69b95efdef24cd8a694e89ee,69b96159d85520ac69b5559e,0.0251,0.0251,0,66,66,30,1,fourtwo,,,,,,,,,,,,,,,,,,,,,,,,,,,,,,,,,,,,,,,,,,,,,,,,,,,,,,,,,,,,,,,,,,,,,,,,,,,,,,,,,,,,,,,,,,,,,,,,,,,,,,,,,,,,,,,,,,,,,,,,,,,,,,,,,,,,,,,,,
,,67700724f07c694ad429287a,2026-03-17_14h14.00.264,kallum_motion_pilot_GIST_update_2,2026.1.1,Win32,60.24096386,67700724f07c694ad429287a,69b95efdef24cd8a694e89ee,69b96159d85520ac69b5559e,0.0252,0.0252,0,67,67,155,1,sixeight,,,,,,,,,,,,,,,,,,,,,,,,,,,,,,,,,,,,,,,,,,,,,,,,,,,,,,,,,,,,,,,,,,,,,,,,,,,,,,,,,,,,,,,,,,,,,,,,,,,,,,,,,,,,,,,,,,,,,,,,,,,,,,,,,,,,,,,,,
,,67700724f07c694ad429287a,2026-03-17_14h14.00.264,kallum_motion_pilot_GIST_update_2,2026.1.1,Win32,60.24096386,67700724f07c694ad429287a,69b95efdef24cd8a694e89ee,69b96159d85520ac69b5559e,0.0253,0.0253,0,68,68,127,1,eightseven,,,,,,,,,,,,,,,,,,,,,,,,,,,,,,,,,,,,,,,,,,,,,,,,,,,,,,,,,,,,,,,,,,,,,,,,,,,,,,,,,,,,,,,,,,,,,,,,,,,,,,,,,,,,,,,,,,,,,,,,,,,,,,,,,,,,,,,,,
,,67700724f07c694ad429287a,2026-03-17_14h14.00.264,kallum_motion_pilot_GIST_update_2,2026.1.1,Win32,60.24096386,67700724f07c694ad429287a,69b95efdef24cd8a694e89ee,69b96159d85520ac69b5559e,0.0255,0.0255,0,69,69,120,1,fivesix,,,,,,,,,,,,,,,,,,,,,,,,,,,,,,,,,,,,,,,,,,,,,,,,,,,,,,,,,,,,,,,,,,,,,,,,,,,,,,,,,,,,,,,,,,,,,,,,,,,,,,,,,,,,,,,,,,,,,,,,,,,,,,,,,,,,,,,,,
,,67700724f07c694ad429287a,2026-03-17_14h14.00.264,kallum_motion_pilot_GIST_update_2,2026.1.1,Win32,60.24096386,67700724f07c694ad429287a,69b95efdef24cd8a694e89ee,69b96159d85520ac69b5559e,0.0256,0.0256,0,70,70,73,1,onethree,,,,,,,,,,,,,,,,,,,,,,,,,,,,,,,,,,,,,,,,,,,,,,,,,,,,,,,,,,,,,,,,,,,,,,,,,,,,,,,,,,,,,,,,,,,,,,,,,,,,,,,,,,,,,,,,,,,,,,,,,,,,,,,,,,,,,,,,,
,,67700724f07c694ad429287a,2026-03-17_14h14.00.264,kallum_motion_pilot_GIST_update_2,2026.1.1,Win32,60.24096386,67700724f07c694ad429287a,69b95efdef24cd8a694e89ee,69b96159d85520ac69b5559e,0.0257,0.0257,0,71,71,156,1,sevenfive,,,,,,,,,,,,,,,,,,,,,,,,,,,,,,,,,,,,,,,,,,,,,,,,,,,,,,,,,,,,,,,,,,,,,,,,,,,,,,,,,,,,,,,,,,,,,,,,,,,,,,,,,,,,,,,,,,,,,,,,,,,,,,,,,,,,,,,,,
,,67700724f07c694ad429287a,2026-03-17_14h14.00.264,kallum_motion_pilot_GIST_update_2,2026.1.1,Win32,60.24096386,67700724f07c694ad429287a,69b95efdef24cd8a694e89ee,69b96159d85520ac69b5559e,0.0258,0.0258,0,72,72,149,1,seveneight,,,,,,,,,,,,,,,,,,,,,,,,,,,,,,,,,,,,,,,,,,,,,,,,,,,,,,,,,,,,,,,,,,,,,,,,,,,,,,,,,,,,,,,,,,,,,,,,,,,,,,,,,,,,,,,,,,,,,,,,,,,,,,,,,,,,,,,,,
,,67700724f07c694ad429287a,2026-03-17_14h14.00.264,kallum_motion_pilot_GIST_update_2,2026.1.1,Win32,60.24096386,67700724f07c694ad429287a,69b95efdef24cd8a694e89ee,69b96159d85520ac69b5559e,0.0259,0.0259,0,73,73,36,1,threeone,,,,,,,,,,,,,,,,,,,,,,,,,,,,,,,,,,,,,,,,,,,,,,,,,,,,,,,,,,,,,,,,,,,,,,,,,,,,,,,,,,,,,,,,,,,,,,,,,,,,,,,,,,,,,,,,,,,,,,,,,,,,,,,,,,,,,,,,,
,,67700724f07c694ad429287a,2026-03-17_14h14.00.264,kallum_motion_pilot_GIST_update_2,2026.1.1,Win32,60.24096386,67700724f07c694ad429287a,69b95efdef24cd8a694e89ee,69b96159d85520ac69b5559e,0.026,0.026,0,74,74,5,1,threefour,,,,,,,,,,,,,,,,,,,,,,,,,,,,,,,,,,,,,,,,,,,,,,,,,,,,,,,,,,,,,,,,,,,,,,,,,,,,,,,,,,,,,,,,,,,,,,,,,,,,,,,,,,,,,,,,,,,,,,,,,,,,,,,,,,,,,,,,,
,,67700724f07c694ad429287a,2026-03-17_14h14.00.264,kallum_motion_pilot_GIST_update_2,2026.1.1,Win32,60.24096386,67700724f07c694ad429287a,69b95efdef24cd8a694e89ee,69b96159d85520ac69b5559e,0.0261,0.0261,0,75,75,154,1,sixfive,,,,,,,,,,,,,,,,,,,,,,,,,,,,,,,,,,,,,,,,,,,,,,,,,,,,,,,,,,,,,,,,,,,,,,,,,,,,,,,,,,,,,,,,,,,,,,,,,,,,,,,,,,,,,,,,,,,,,,,,,,,,,,,,,,,,,,,,,
,,67700724f07c694ad429287a,2026-03-17_14h14.00.264,kallum_motion_pilot_GIST_update_2,2026.1.1,Win32,60.24096386,67700724f07c694ad429287a,69b95efdef24cd8a694e89ee,69b96159d85520ac69b5559e,0.0262,0.0262,0,76,76,64,1,onetwo,,,,,,,,,,,,,,,,,,,,,,,,,,,,,,,,,,,,,,,,,,,,,,,,,,,,,,,,,,,,,,,,,,,,,,,,,,,,,,,,,,,,,,,,,,,,,,,,,,,,,,,,,,,,,,,,,,,,,,,,,,,,,,,,,,,,,,,,,
,,67700724f07c694ad429287a,2026-03-17_14h14.00.264,kallum_motion_pilot_GIST_update_2,2026.1.1,Win32,60.24096386,67700724f07c694ad429287a,69b95efdef24cd8a694e89ee,69b96159d85520ac69b5559e,0.0263,0.0263,0,77,77,157,1,seveneight,,,,,,,,,,,,,,,,,,,,,,,,,,,,,,,,,,,,,,,,,,,,,,,,,,,,,,,,,,,,,,,,,,,,,,,,,,,,,,,,,,,,,,,,,,,,,,,,,,,,,,,,,,,,,,,,,,,,,,,,,,,,,,,,,,,,,,,,,
,,67700724f07c694ad429287a,2026-03-17_14h14.00.264,kallum_motion_pilot_GIST_update_2,2026.1.1,Win32,60.24096386,67700724f07c694ad429287a,69b95efdef24cd8a694e89ee,69b96159d85520ac69b5559e,0.0264,0.0264,0,78,78,110,1,eightsix,,,,,,,,,,,,,,,,,,,,,,,,,,,,,,,,,,,,,,,,,,,,,,,,,,,,,,,,,,,,,,,,,,,,,,,,,,,,,,,,,,,,,,,,,,,,,,,,,,,,,,,,,,,,,,,,,,,,,,,,,,,,,,,,,,,,,,,,,
,,67700724f07c694ad429287a,2026-03-17_14h14.00.264,kallum_motion_pilot_GIST_update_2,2026.1.1,Win32,60.24096386,67700724f07c694ad429287a,69b95efdef24cd8a694e89ee,69b96159d85520ac69b5559e,0.0265,0.0265,0,79,79,99,1,sixeight,,,,,,,,,,,,,,,,,,,,,,,,,,,,,,,,,,,,,,,,,,,,,,,,,,,,,,,,,,,,,,,,,,,,,,,,,,,,,,,,,,,,,,,,,,,,,,,,,,,,,,,,,,,,,,,,,,,,,,,,,,,,,,,,,,,,,,,,,
,,67700724f07c694ad429287a,2026-03-17_14h14.00.264,kallum_motion_pilot_GIST_update_2,2026.1.1,Win32,60.24096386,67700724f07c694ad429287a,69b95efdef24cd8a694e89ee,69b96159d85520ac69b5559e,0.0266,0.0266,0,80,80,58,1,twoone,,,,,,,,,,,,,,,,,,,,,,,,,,,,,,,,,,,,,,,,,,,,,,,,,,,,,,,,,,,,,,,,,,,,,,,,,,,,,,,,,,,,,,,,,,,,,,,,,,,,,,,,,,,,,,,,,,,,,,,,,,,,,,,,,,,,,,,,,
,,67700724f07c694ad429287a,2026-03-17_14h14.00.264,kallum_motion_pilot_GIST_update_2,2026.1.1,Win32,60.24096386,67700724f07c694ad429287a,69b95efdef24cd8a694e89ee,69b96159d85520ac69b5559e,0.0266,0.0266,0,81,81,144,1,fivesix,,,,,,,,,,,,,,,,,,,,,,,,,,,,,,,,,,,,,,,,,,,,,,,,,,,,,,,,,,,,,,,,,,,,,,,,,,,,,,,,,,,,,,,,,,,,,,,,,,,,,,,,,,,,,,,,,,,,,,,,,,,,,,,,,,,,,,,,,
,,67700724f07c694ad429287a,2026-03-17_14h14.00.264,kallum_motion_pilot_GIST_update_2,2026.1.1,Win32,60.24096386,67700724f07c694ad429287a,69b95efdef24cd8a694e89ee,69b96159d85520ac69b5559e,0.0267,0.0267,0,82,82,161,1,fiveseven,,,,,,,,,,,,,,,,,,,,,,,,,,,,,,,,,,,,,,,,,,,,,,,,,,,,,,,,,,,,,,,,,,,,,,,,,,,,,,,,,,,,,,,,,,,,,,,,,,,,,,,,,,,,,,,,,,,,,,,,,,,,,,,,,,,,,,,,,
,,67700724f07c694ad429287a,2026-03-17_14h14.00.264,kallum_motion_pilot_GIST_update_2,2026.1.1,Win32,60.24096386,67700724f07c694ad429287a,69b95efdef24cd8a694e89ee,69b96159d85520ac69b5559e,0.0268,0.0268,0,83,83,42,1,twoone,,,,,,,,,,,,,,,,,,,,,,,,,,,,,,,,,,,,,,,,,,,,,,,,,,,,,,,,,,,,,,,,,,,,,,,,,,,,,,,,,,,,,,,,,,,,,,,,,,,,,,,,,,,,,,,,,,,,,,,,,,,,,,,,,,,,,,,,,
,,67700724f07c694ad429287a,2026-03-17_14h14.00.264,kallum_motion_pilot_GIST_update_2,2026.1.1,Win32,60.24096386,67700724f07c694ad429287a,69b95efdef24cd8a694e89ee,69b96159d85520ac69b5559e,0.027,0.027,0,84,84,105,1,fiveseven,,,,,,,,,,,,,,,,,,,,,,,,,,,,,,,,,,,,,,,,,,,,,,,,,,,,,,,,,,,,,,,,,,,,,,,,,,,,,,,,,,,,,,,,,,,,,,,,,,,,,,,,,,,,,,,,,,,,,,,,,,,,,,,,,,,,,,,,,
,,67700724f07c694ad429287a,2026-03-17_14h14.00.264,kallum_motion_pilot_GIST_update_2,2026.1.1,Win32,60.24096386,67700724f07c694ad429287a,69b95efdef24cd8a694e89ee,69b96159d85520ac69b5559e,0.027,0.027,0,85,85,34,1,twoone,,,,,,,,,,,,,,,,,,,,,,,,,,,,,,,,,,,,,,,,,,,,,,,,,,,,,,,,,,,,,,,,,,,,,,,,,,,,,,,,,,,,,,,,,,,,,,,,,,,,,,,,,,,,,,,,,,,,,,,,,,,,,,,,,,,,,,,,,
,,67700724f07c694ad429287a,2026-03-17_14h14.00.264,kallum_motion_pilot_GIST_update_2,2026.1.1,Win32,60.24096386,67700724f07c694ad429287a,69b95efdef24cd8a694e89ee,69b96159d85520ac69b5559e,0.0271,0.0271,0,86,86,119,1,eightseven,,,,,,,,,,,,,,,,,,,,,,,,,,,,,,,,,,,,,,,,,,,,,,,,,,,,,,,,,,,,,,,,,,,,,,,,,,,,,,,,,,,,,,,,,,,,,,,,,,,,,,,,,,,,,,,,,,,,,,,,,,,,,,,,,,,,,,,,,
,,67700724f07c694ad429287a,2026-03-17_14h14.00.264,kallum_motion_pilot_GIST_update_2,2026.1.1,Win32,60.24096386,67700724f07c694ad429287a,69b95efdef24cd8a694e89ee,69b96159d85520ac69b5559e,0.0272,0.0272,0,87,87,47,1,fourthree,,,,,,,,,,,,,,,,,,,,,,,,,,,,,,,,,,,,,,,,,,,,,,,,,,,,,,,,,,,,,,,,,,,,,,,,,,,,,,,,,,,,,,,,,,,,,,,,,,,,,,,,,,,,,,,,,,,,,,,,,,,,,,,,,,,,,,,,,
,,67700724f07c694ad429287a,2026-03-17_14h14.00.264,kallum_motion_pilot_GIST_update_2,2026.1.1,Win32,60.24096386,67700724f07c694ad429287a,69b95efdef24cd8a694e89ee,69b96159d85520ac69b5559e,0.0273,0.0273,0,88,88,129,1,fiveseven,,,,,,,,,,,,,,,,,,,,,,,,,,,,,,,,,,,,,,,,,,,,,,,,,,,,,,,,,,,,,,,,,,,,,,,,,,,,,,,,,,,,,,,,,,,,,,,,,,,,,,,,,,,,,,,,,,,,,,,,,,,,,,,,,,,,,,,,,
,,67700724f07c694ad429287a,2026-03-17_14h14.00.264,kallum_motion_pilot_GIST_update_2,2026.1.1,Win32,60.24096386,67700724f07c694ad429287a,69b95efdef24cd8a694e89ee,69b96159d85520ac69b5559e,0.0273,0.0273,0,89,89,96,1,fivesix,,,,,,,,,,,,,,,,,,,,,,,,,,,,,,,,,,,,,,,,,,,,,,,,,,,,,,,,,,,,,,,,,,,,,,,,,,,,,,,,,,,,,,,,,,,,,,,,,,,,,,,,,,,,,,,,,,,,,,,,,,,,,,,,,,,,,,,,,
,,67700724f07c694ad429287a,2026-03-17_14h14.00.264,kallum_motion_pilot_GIST_update_2,2026.1.1,Win32,60.24096386,67700724f07c694ad429287a,69b95efdef24cd8a694e89ee,69b96159d85520ac69b5559e,0.0274,0.0274,0,90,90,133,1,seveneight,,,,,,,,,,,,,,,,,,,,,,,,,,,,,,,,,,,,,,,,,,,,,,,,,,,,,,,,,,,,,,,,,,,,,,,,,,,,,,,,,,,,,,,,,,,,,,,,,,,,,,,,,,,,,,,,,,,,,,,,,,,,,,,,,,,,,,,,,
,,67700724f07c694ad429287a,2026-03-17_14h14.00.264,kallum_motion_pilot_GIST_update_2,2026.1.1,Win32,60.24096386,67700724f07c694ad429287a,69b95efdef24cd8a694e89ee,69b96159d85520ac69b5559e,0.0276,0.0276,0,91,91,46,1,fourtwo,,,,,,,,,,,,,,,,,,,,,,,,,,,,,,,,,,,,,,,,,,,,,,,,,,,,,,,,,,,,,,,,,,,,,,,,,,,,,,,,,,,,,,,,,,,,,,,,,,,,,,,,,,,,,,,,,,,,,,,,,,,,,,,,,,,,,,,,,
,,67700724f07c694ad429287a,2026-03-17_14h14.00.264,kallum_motion_pilot_GIST_update_2,2026.1.1,Win32,60.24096386,67700724f07c694ad429287a,69b95efdef24cd8a694e89ee,69b96159d85520ac69b5559e,0.0277,0.0277,0,92,92,67,1,twofour,,,,,,,,,,,,,,,,,,,,,,,,,,,,,,,,,,,,,,,,,,,,,,,,,,,,,,,,,,,,,,,,,,,,,,,,,,,,,,,,,,,,,,,,,,,,,,,,,,,,,,,,,,,,,,,,,,,,,,,,,,,,,,,,,,,,,,,,,
,,67700724f07c694ad429287a,2026-03-17_14h14.00.264,kallum_motion_pilot_GIST_update_2,2026.1.1,Win32,60.24096386,67700724f07c694ad429287a,69b95efdef24cd8a694e89ee,69b96159d85520ac69b5559e,0.0277,0.0277,0,93,93,12,1,threeone,,,,,,,,,,,,,,,,,,,,,,,,,,,,,,,,,,,,,,,,,,,,,,,,,,,,,,,,,,,,,,,,,,,,,,,,,,,,,,,,,,,,,,,,,,,,,,,,,,,,,,,,,,,,,,,,,,,,,,,,,,,,,,,,,,,,,,,,,
,,67700724f07c694ad429287a,2026-03-17_14h14.00.264,kallum_motion_pilot_GIST_update_2,2026.1.1,Win32,60.24096386,67700724f07c694ad429287a,69b95efdef24cd8a694e89ee,69b96159d85520ac69b5559e,0.0279,0.0279,0,94,94,80,1,fivesix,,,,,,,,,,,,,,,,,,,,,,,,,,,,,,,,,,,,,,,,,,,,,,,,,,,,,,,,,,,,,,,,,,,,,,,,,,,,,,,,,,,,,,,,,,,,,,,,,,,,,,,,,,,,,,,,,,,,,,,,,,,,,,,,,,,,,,,,,
,,67700724f07c694ad429287a,2026-03-17_14h14.00.264,kallum_motion_pilot_GIST_update_2,2026.1.1,Win32,60.24096386,67700724f07c694ad429287a,69b95efdef24cd8a694e89ee,69b96159d85520ac69b5559e,0.028,0.028,0,95,95,83,1,sixeight,,,,,,,,,,,,,,,,,,,,,,,,,,,,,,,,,,,,,,,,,,,,,,,,,,,,,,,,,,,,,,,,,,,,,,,,,,,,,,,,,,,,,,,,,,,,,,,,,,,,,,,,,,,,,,,,,,,,,,,,,,,,,,,,,,,,,,,,,
,,67700724f07c694ad429287a,2026-03-17_14h14.00.264,kallum_motion_pilot_GIST_update_2,2026.1.1,Win32,60.24096386,67700724f07c694ad429287a,69b95efdef24cd8a694e89ee,69b96159d85520ac69b5559e,0.0281,0.0281,0,96,96,62,1,fourtwo,,,,,,,,,,,,,,,,,,,,,,,,,,,,,,,,,,,,,,,,,,,,,,,,,,,,,,,,,,,,,,,,,,,,,,,,,,,,,,,,,,,,,,,,,,,,,,,,,,,,,,,,,,,,,,,,,,,,,,,,,,,,,,,,,,,,,,,,,
,,67700724f07c694ad429287a,2026-03-17_14h14.00.264,kallum_motion_pilot_GIST_update_2,2026.1.1,Win32,60.24096386,67700724f07c694ad429287a,69b95efdef24cd8a694e89ee,69b96159d85520ac69b5559e,0.0282,0.0282,0,97,97,130,1,sixfive,,,,,,,,,,,,,,,,,,,,,,,,,,,,,,,,,,,,,,,,,,,,,,,,,,,,,,,,,,,,,,,,,,,,,,,,,,,,,,,,,,,,,,,,,,,,,,,,,,,,,,,,,,,,,,,,,,,,,,,,,,,,,,,,,,,,,,,,,
,,67700724f07c694ad429287a,2026-03-17_14h14.00.264,kallum_motion_pilot_GIST_update_2,2026.1.1,Win32,60.24096386,67700724f07c694ad429287a,69b95efdef24cd8a694e89ee,69b96159d85520ac69b5559e,0.0283,0.0283,0,98,98,75,1,twofour,,,,,,,,,,,,,,,,,,,,,,,,,,,,,,,,,,,,,,,,,,,,,,,,,,,,,,,,,,,,,,,,,,,,,,,,,,,,,,,,,,,,,,,,,,,,,,,,,,,,,,,,,,,,,,,,,,,,,,,,,,,,,,,,,,,,,,,,,
,,67700724f07c694ad429287a,2026-03-17_14h14.00.264,kallum_motion_pilot_GIST_update_2,2026.1.1,Win32,60.24096386,67700724f07c694ad429287a,69b95efdef24cd8a694e89ee,69b96159d85520ac69b5559e,0.0284,0.0284,0,99,99,50,1,twoone,,,,,,,,,,,,,,,,,,,,,,,,,,,,,,,,,,,,,,,,,,,,,,,,,,,,,,,,,,,,,,,,,,,,,,,,,,,,,,,,,,,,,,,,,,,,,,,,,,,,,,,,,,,,,,,,,,,,,,,,,,,,,,,,,,,,,,,,,
,,67700724f07c694ad429287a,2026-03-17_14h14.00.264,kallum_motion_pilot_GIST_update_2,2026.1.1,Win32,60.24096386,67700724f07c694ad429287a,69b95efdef24cd8a694e89ee,69b96159d85520ac69b5559e,0.0285,0.0285,0,100,100,16,1,onetwo,,,,,,,,,,,,,,,,,,,,,,,,,,,,,,,,,,,,,,,,,,,,,,,,,,,,,,,,,,,,,,,,,,,,,,,,,,,,,,,,,,,,,,,,,,,,,,,,,,,,,,,,,,,,,,,,,,,,,,,,,,,,,,,,,,,,,,,,,
,,67700724f07c694ad429287a,2026-03-17_14h14.00.264,kallum_motion_pilot_GIST_update_2,2026.1.1,Win32,60.24096386,67700724f07c694ad429287a,69b95efdef24cd8a694e89ee,69b96159d85520ac69b5559e,0.0286,0.0286,0,101,101,27,1,twofour,,,,,,,,,,,,,,,,,,,,,,,,,,,,,,,,,,,,,,,,,,,,,,,,,,,,,,,,,,,,,,,,,,,,,,,,,,,,,,,,,,,,,,,,,,,,,,,,,,,,,,,,,,,,,,,,,,,,,,,,,,,,,,,,,,,,,,,,,
,,67700724f07c694ad429287a,2026-03-17_14h14.00.264,kallum_motion_pilot_GIST_update_2,2026.1.1,Win32,60.24096386,67700724f07c694ad429287a,69b95efdef24cd8a694e89ee,69b96159d85520ac69b5559e,0.0287,0.0287,0,102,102,28,1,threeone,,,,,,,,,,,,,,,,,,,,,,,,,,,,,,,,,,,,,,,,,,,,,,,,,,,,,,,,,,,,,,,,,,,,,,,,,,,,,,,,,,,,,,,,,,,,,,,,,,,,,,,,,,,,,,,,,,,,,,,,,,,,,,,,,,,,,,,,,
,,67700724f07c694ad429287a,2026-03-17_14h14.00.264,kallum_motion_pilot_GIST_update_2,2026.1.1,Win32,60.24096386,67700724f07c694ad429287a,69b95efdef24cd8a694e89ee,69b96159d85520ac69b5559e,0.0288,0.0288,0,103,103,140,1,sevenfive,,,,,,,,,,,,,,,,,,,,,,,,,,,,,,,,,,,,,,,,,,,,,,,,,,,,,,,,,,,,,,,,,,,,,,,,,,,,,,,,,,,,,,,,,,,,,,,,,,,,,,,,,,,,,,,,,,,,,,,,,,,,,,,,,,,,,,,,,
,,67700724f07c694ad429287a,2026-03-17_14h14.00.264,kallum_motion_pilot_GIST_update_2,2026.1.1,Win32,60.24096386,67700724f07c694ad429287a,69b95efdef24cd8a694e89ee,69b96159d85520ac69b5559e,0.0289,0.0289,0,104,104,11,1,twofour,,,,,,,,,,,,,,,,,,,,,,,,,,,,,,,,,,,,,,,,,,,,,,,,,,,,,,,,,,,,,,,,,,,,,,,,,,,,,,,,,,,,,,,,,,,,,,,,,,,,,,,,,,,,,,,,,,,,,,,,,,,,,,,,,,,,,,,,,
,,67700724f07c694ad429287a,2026-03-17_14h14.00.264,kallum_motion_pilot_GIST_update_2,2026.1.1,Win32,60.24096386,67700724f07c694ad429287a,69b95efdef24cd8a694e89ee,69b96159d85520ac69b5559e,0.0291,0.0291,0,105,105,60,1,threeone,,,,,,,,,,,,,,,,,,,,,,,,,,,,,,,,,,,,,,,,,,,,,,,,,,,,,,,,,,,,,,,,,,,,,,,,,,,,,,,,,,,,,,,,,,,,,,,,,,,,,,,,,,,,,,,,,,,,,,,,,,,,,,,,,,,,,,,,,
,,67700724f07c694ad429287a,2026-03-17_14h14.00.264,kallum_motion_pilot_GIST_update_2,2026.1.1,Win32,60.24096386,67700724f07c694ad429287a,69b95efdef24cd8a694e89ee,69b96159d85520ac69b5559e,0.0291,0.0291,0,106,106,49,1,onethree,,,,,,,,,,,,,,,,,,,,,,,,,,,,,,,,,,,,,,,,,,,,,,,,,,,,,,,,,,,,,,,,,,,,,,,,,,,,,,,,,,,,,,,,,,,,,,,,,,,,,,,,,,,,,,,,,,,,,,,,,,,,,,,,,,,,,,,,,
,,67700724f07c694ad429287a,2026-03-17_14h14.00.264,kallum_motion_pilot_GIST_update_2,2026.1.1,Win32,60.24096386,67700724f07c694ad429287a,69b95efdef24cd8a694e89ee,69b96159d85520ac69b5559e,0.0292,0.0292,0,107,107,137,1,fiveseven,,,,,,,,,,,,,,,,,,,,,,,,,,,,,,,,,,,,,,,,,,,,,,,,,,,,,,,,,,,,,,,,,,,,,,,,,,,,,,,,,,,,,,,,,,,,,,,,,,,,,,,,,,,,,,,,,,,,,,,,,,,,,,,,,,,,,,,,,
,,67700724f07c694ad429287a,2026-03-17_14h14.00.264,kallum_motion_pilot_GIST_update_2,2026.1.1,Win32,60.24096386,67700724f07c694ad429287a,69b95efdef24cd8a694e89ee,69b96159d85520ac69b5559e,0.0293,0.0293,0,108,108,118,1,eightsix,,,,,,,,,,,,,,,,,,,,,,,,,,,,,,,,,,,,,,,,,,,,,,,,,,,,,,,,,,,,,,,,,,,,,,,,,,,,,,,,,,,,,,,,,,,,,,,,,,,,,,,,,,,,,,,,,,,,,,,,,,,,,,,,,,,,,,,,,
,,67700724f07c694ad429287a,2026-03-17_14h14.00.264,kallum_motion_pilot_GIST_update_2,2026.1.1,Win32,60.24096386,67700724f07c694ad429287a,69b95efdef24cd8a694e89ee,69b96159d85520ac69b5559e,0.0294,0.0294,0,109,109,91,1,sixeight,,,,,,,,,,,,,,,,,,,,,,,,,,,,,,,,,,,,,,,,,,,,,,,,,,,,,,,,,,,,,,,,,,,,,,,,,,,,,,,,,,,,,,,,,,,,,,,,,,,,,,,,,,,,,,,,,,,,,,,,,,,,,,,,,,,,,,,,,
,,67700724f07c694ad429287a,2026-03-17_14h14.00.264,kallum_motion_pilot_GIST_update_2,2026.1.1,Win32,60.24096386,67700724f07c694ad429287a,69b95efdef24cd8a694e89ee,69b96159d85520ac69b5559e,0.0295,0.0295,0,110,110,139,1,sixeight,,,,,,,,,,,,,,,,,,,,,,,,,,,,,,,,,,,,,,,,,,,,,,,,,,,,,,,,,,,,,,,,,,,,,,,,,,,,,,,,,,,,,,,,,,,,,,,,,,,,,,,,,,,,,,,,,,,,,,,,,,,,,,,,,,,,,,,,,
,,67700724f07c694ad429287a,2026-03-17_14h14.00.264,kallum_motion_pilot_GIST_update_2,2026.1.1,Win32,60.24096386,67700724f07c694ad429287a,69b95efdef24cd8a694e89ee,69b96159d85520ac69b5559e,0.0296,0.0296,0,111,111,0,1,onetwo,,,,,,,,,,,,,,,,,,,,,,,,,,,,,,,,,,,,,,,,,,,,,,,,,,,,,,,,,,,,,,,,,,,,,,,,,,,,,,,,,,,,,,,,,,,,,,,,,,,,,,,,,,,,,,,,,,,,,,,,,,,,,,,,,,,,,,,,,
,,67700724f07c694ad429287a,2026-03-17_14h14.00.264,kallum_motion_pilot_GIST_update_2,2026.1.1,Win32,60.24096386,67700724f07c694ad429287a,69b95efdef24cd8a694e89ee,69b96159d85520ac69b5559e,0.0297,0.0297,0,112,112,26,1,twoone,,,,,,,,,,,,,,,,,,,,,,,,,,,,,,,,,,,,,,,,,,,,,,,,,,,,,,,,,,,,,,,,,,,,,,,,,,,,,,,,,,,,,,,,,,,,,,,,,,,,,,,,,,,,,,,,,,,,,,,,,,,,,,,,,,,,,,,,,
,,67700724f07c694ad429287a,2026-03-17_14h14.00.264,kallum_motion_pilot_GIST_update_2,2026.1.1,Win32,60.24096386,67700724f07c694ad429287a,69b95efdef24cd8a694e89ee,69b96159d85520ac69b5559e,0.0298,0.0298,0,113,113,103,1,eightseven,,,,,,,,,,,,,,,,,,,,,,,,,,,,,,,,,,,,,,,,,,,,,,,,,,,,,,,,,,,,,,,,,,,,,,,,,,,,,,,,,,,,,,,,,,,,,,,,,,,,,,,,,,,,,,,,,,,,,,,,,,,,,,,,,,,,,,,,,
,,67700724f07c694ad429287a,2026-03-17_14h14.00.264,kallum_motion_pilot_GIST_update_2,2026.1.1,Win32,60.24096386,67700724f07c694ad429287a,69b95efdef24cd8a694e89ee,69b96159d85520ac69b5559e,0.0299,0.0299,0,114,114,114,1,sixfive,,,,,,,,,,,,,,,,,,,,,,,,,,,,,,,,,,,,,,,,,,,,,,,,,,,,,,,,,,,,,,,,,,,,,,,,,,,,,,,,,,,,,,,,,,,,,,,,,,,,,,,,,,,,,,,,,,,,,,,,,,,,,,,,,,,,,,,,,
,,67700724f07c694ad429287a,2026-03-17_14h14.00.264,kallum_motion_pilot_GIST_update_2,2026.1.1,Win32,60.24096386,67700724f07c694ad429287a,69b95efdef24cd8a694e89ee,69b96159d85520ac69b5559e,0.03,0.03,0,115,115,160,1,fivesix,,,,,,,,,,,,,,,,,,,,,,,,,,,,,,,,,,,,,,,,,,,,,,,,,,,,,,,,,,,,,,,,,,,,,,,,,,,,,,,,,,,,,,,,,,,,,,,,,,,,,,,,,,,,,,,,,,,,,,,,,,,,,,,,,,,,,,,,,
,,67700724f07c694ad429287a,2026-03-17_14h14.00.264,kallum_motion_pilot_GIST_update_2,2026.1.1,Win32,60.24096386,67700724f07c694ad429287a,69b95efdef24cd8a694e89ee,69b96159d85520ac69b5559e,0.03,0.03,0,116,116,146,1,sixfive,,,,,,,,,,,,,,,,,,,,,,,,,,,,,,,,,,,,,,,,,,,,,,,,,,,,,,,,,,,,,,,,,,,,,,,,,,,,,,,,,,,,,,,,,,,,,,,,,,,,,,,,,,,,,,,,,,,,,,,,,,,,,,,,,,,,,,,,,
,,67700724f07c694ad429287a,2026-03-17_14h14.00.264,kallum_motion_pilot_GIST_update_2,2026.1.1,Win32,60.24096386,67700724f07c694ad429287a,69b95efdef24cd8a694e89ee,69b96159d85520ac69b5559e,0.0302,0.0302,0,117,117,40,1,onetwo,,,,,,,,,,,,,,,,,,,,,,,,,,,,,,,,,,,,,,,,,,,,,,,,,,,,,,,,,,,,,,,,,,,,,,,,,,,,,,,,,,,,,,,,,,,,,,,,,,,,,,,,,,,,,,,,,,,,,,,,,,,,,,,,,,,,,,,,,
,,67700724f07c694ad429287a,2026-03-17_14h14.00.264,kallum_motion_pilot_GIST_update_2,2026.1.1,Win32,60.24096386,67700724f07c694ad429287a,69b95efdef24cd8a694e89ee,69b96159d85520ac69b5559e,0.0303,0.0303,0,118,118,18,1,twoone,,,,,,,,,,,,,,,,,,,,,,,,,,,,,,,,,,,,,,,,,,,,,,,,,,,,,,,,,,,,,,,,,,,,,,,,,,,,,,,,,,,,,,,,,,,,,,,,,,,,,,,,,,,,,,,,,,,,,,,,,,,,,,,,,,,,,,,,,
,,67700724f07c694ad429287a,2026-03-17_14h14.00.264,kallum_motion_pilot_GIST_update_2,2026.1.1,Win32,60.24096386,67700724f07c694ad429287a,69b95efdef24cd8a694e89ee,69b96159d85520ac69b5559e,0.0304,0.0304,0,119,119,111,1,eightseven,,,,,,,,,,,,,,,,,,,,,,,,,,,,,,,,,,,,,,,,,,,,,,,,,,,,,,,,,,,,,,,,,,,,,,,,,,,,,,,,,,,,,,,,,,,,,,,,,,,,,,,,,,,,,,,,,,,,,,,,,,,,,,,,,,,,,,,,,
,,67700724f07c694ad429287a,2026-03-17_14h14.00.264,kallum_motion_pilot_GIST_update_2,2026.1.1,Win32,60.24096386,67700724f07c694ad429287a,69b95efdef24cd8a694e89ee,69b96159d85520ac69b5559e,0.0305,0.0305,0,120,120,8,1,onetwo,,,,,,,,,,,,,,,,,,,,,,,,,,,,,,,,,,,,,,,,,,,,,,,,,,,,,,,,,,,,,,,,,,,,,,,,,,,,,,,,,,,,,,,,,,,,,,,,,,,,,,,,,,,,,,,,,,,,,,,,,,,,,,,,,,,,,,,,,
,,67700724f07c694ad429287a,2026-03-17_14h14.00.264,kallum_motion_pilot_GIST_update_2,2026.1.1,Win32,60.24096386,67700724f07c694ad429287a,69b95efdef24cd8a694e89ee,69b96159d85520ac69b5559e,0.0306,0.0306,0,121,121,20,1,threeone,,,,,,,,,,,,,,,,,,,,,,,,,,,,,,,,,,,,,,,,,,,,,,,,,,,,,,,,,,,,,,,,,,,,,,,,,,,,,,,,,,,,,,,,,,,,,,,,,,,,,,,,,,,,,,,,,,,,,,,,,,,,,,,,,,,,,,,,,
,,67700724f07c694ad429287a,2026-03-17_14h14.00.264,kallum_motion_pilot_GIST_update_2,2026.1.1,Win32,60.24096386,67700724f07c694ad429287a,69b95efdef24cd8a694e89ee,69b96159d85520ac69b5559e,0.0307,0.0307,0,122,122,54,1,fourtwo,,,,,,,,,,,,,,,,,,,,,,,,,,,,,,,,,,,,,,,,,,,,,,,,,,,,,,,,,,,,,,,,,,,,,,,,,,,,,,,,,,,,,,,,,,,,,,,,,,,,,,,,,,,,,,,,,,,,,,,,,,,,,,,,,,,,,,,,,
,,67700724f07c694ad429287a,2026-03-17_14h14.00.264,kallum_motion_pilot_GIST_update_2,2026.1.1,Win32,60.24096386,67700724f07c694ad429287a,69b95efdef24cd8a694e89ee,69b96159d85520ac69b5559e,0.0308,0.0308,0,123,123,143,1,eightseven,,,,,,,,,,,,,,,,,,,,,,,,,,,,,,,,,,,,,,,,,,,,,,,,,,,,,,,,,,,,,,,,,,,,,,,,,,,,,,,,,,,,,,,,,,,,,,,,,,,,,,,,,,,,,,,,,,,,,,,,,,,,,,,,,,,,,,,,,
,,67700724f07c694ad429287a,2026-03-17_14h14.00.264,kallum_motion_pilot_GIST_update_2,2026.1.1,Win32,60.24096386,67700724f07c694ad429287a,69b95efdef24cd8a694e89ee,69b96159d85520ac69b5559e,0.0309,0.0309,0,124,124,6,1,fourtwo,,,,,,,,,,,,,,,,,,,,,,,,,,,,,,,,,,,,,,,,,,,,,,,,,,,,,,,,,,,,,,,,,,,,,,,,,,,,,,,,,,,,,,,,,,,,,,,,,,,,,,,,,,,,,,,,,,,,,,,,,,,,,,,,,,,,,,,,,
,,67700724f07c694ad429287a,2026-03-17_14h14.00.264,kallum_motion_pilot_GIST_update_2,2026.1.1,Win32,60.24096386,67700724f07c694ad429287a,69b95efdef24cd8a694e89ee,69b96159d85520ac69b5559e,0.031,0.031,0,125,125,104,1,fivesix,,,,,,,,,,,,,,,,,,,,,,,,,,,,,,,,,,,,,,,,,,,,,,,,,,,,,,,,,,,,,,,,,,,,,,,,,,,,,,,,,,,,,,,,,,,,,,,,,,,,,,,,,,,,,,,,,,,,,,,,,,,,,,,,,,,,,,,,,
,,67700724f07c694ad429287a,2026-03-17_14h14.00.264,kallum_motion_pilot_GIST_update_2,2026.1.1,Win32,60.24096386,67700724f07c694ad429287a,69b95efdef24cd8a694e89ee,69b96159d85520ac69b5559e,0.0311,0.0311,0,126,126,13,1,threefour,,,,,,,,,,,,,,,,,,,,,,,,,,,,,,,,,,,,,,,,,,,,,,,,,,,,,,,,,,,,,,,,,,,,,,,,,,,,,,,,,,,,,,,,,,,,,,,,,,,,,,,,,,,,,,,,,,,,,,,,,,,,,,,,,,,,,,,,,
,,67700724f07c694ad429287a,2026-03-17_14h14.00.264,kallum_motion_pilot_GIST_update_2,2026.1.1,Win32,60.24096386,67700724f07c694ad429287a,69b95efdef24cd8a694e89ee,69b96159d85520ac69b5559e,0.0312,0.0312,0,127,127,22,1,fourtwo,,,,,,,,,,,,,,,,,,,,,,,,,,,,,,,,,,,,,,,,,,,,,,,,,,,,,,,,,,,,,,,,,,,,,,,,,,,,,,,,,,,,,,,,,,,,,,,,,,,,,,,,,,,,,,,,,,,,,,,,,,,,,,,,,,,,,,,,,
,,67700724f07c694ad429287a,2026-03-17_14h14.00.264,kallum_motion_pilot_GIST_update_2,2026.1.1,Win32,60.24096386,67700724f07c694ad429287a,69b95efdef24cd8a694e89ee,69b96159d85520ac69b5559e,0.0313,0.0313,0,128,128,108,1,sevenfive,,,,,,,,,,,,,,,,,,,,,,,,,,,,,,,,,,,,,,,,,,,,,,,,,,,,,,,,,,,,,,,,,,,,,,,,,,,,,,,,,,,,,,,,,,,,,,,,,,,,,,,,,,,,,,,,,,,,,,,,,,,,,,,,,,,,,,,,,
,,67700724f07c694ad429287a,2026-03-17_14h14.00.264,kallum_motion_pilot_GIST_update_2,2026.1.1,Win32,60.24096386,67700724f07c694ad429287a,69b95efdef24cd8a694e89ee,69b96159d85520ac69b5559e,0.0314,0.0315,0,129,129,82,1,sixfive,,,,,,,,,,,,,,,,,,,,,,,,,,,,,,,,,,,,,,,,,,,,,,,,,,,,,,,,,,,,,,,,,,,,,,,,,,,,,,,,,,,,,,,,,,,,,,,,,,,,,,,,,,,,,,,,,,,,,,,,,,,,,,,,,,,,,,,,,
,,67700724f07c694ad429287a,2026-03-17_14h14.00.264,kallum_motion_pilot_GIST_update_2,2026.1.1,Win32,60.24096386,67700724f07c694ad429287a,69b95efdef24cd8a694e89ee,69b96159d85520ac69b5559e,0.0315,0.0315,0,130,130,56,1,onetwo,,,,,,,,,,,,,,,,,,,,,,,,,,,,,,,,,,,,,,,,,,,,,,,,,,,,,,,,,,,,,,,,,,,,,,,,,,,,,,,,,,,,,,,,,,,,,,,,,,,,,,,,,,,,,,,,,,,,,,,,,,,,,,,,,,,,,,,,,
,,67700724f07c694ad429287a,2026-03-17_14h14.00.264,kallum_motion_pilot_GIST_update_2,2026.1.1,Win32,60.24096386,67700724f07c694ad429287a,69b95efdef24cd8a694e89ee,69b96159d85520ac69b5559e,0.0316,0.0317,0,131,131,65,1,onethree,,,,,,,,,,,,,,,,,,,,,,,,,,,,,,,,,,,,,,,,,,,,,,,,,,,,,,,,,,,,,,,,,,,,,,,,,,,,,,,,,,,,,,,,,,,,,,,,,,,,,,,,,,,,,,,,,,,,,,,,,,,,,,,,,,,,,,,,,
,,67700724f07c694ad429287a,2026-03-17_14h14.00.264,kallum_motion_pilot_GIST_update_2,2026.1.1,Win32,60.24096386,67700724f07c694ad429287a,69b95efdef24cd8a694e89ee,69b96159d85520ac69b5559e,0.0317,0.0317,0,132,132,15,1,fourthree,,,,,,,,,,,,,,,,,,,,,,,,,,,,,,,,,,,,,,,,,,,,,,,,,,,,,,,,,,,,,,,,,,,,,,,,,,,,,,,,,,,,,,,,,,,,,,,,,,,,,,,,,,,,,,,,,,,,,,,,,,,,,,,,,,,,,,,,,
,,67700724f07c694ad429287a,2026-03-17_14h14.00.264,kallum_motion_pilot_GIST_update_2,2026.1.1,Win32,60.24096386,67700724f07c694ad429287a,69b95efdef24cd8a694e89ee,69b96159d85520ac69b5559e,0.0318,0.0318,0,133,133,69,1,threefour,,,,,,,,,,,,,,,,,,,,,,,,,,,,,,,,,,,,,,,,,,,,,,,,,,,,,,,,,,,,,,,,,,,,,,,,,,,,,,,,,,,,,,,,,,,,,,,,,,,,,,,,,,,,,,,,,,,,,,,,,,,,,,,,,,,,,,,,,
,,67700724f07c694ad429287a,2026-03-17_14h14.00.264,kallum_motion_pilot_GIST_update_2,2026.1.1,Win32,60.24096386,67700724f07c694ad429287a,69b95efdef24cd8a694e89ee,69b96159d85520ac69b5559e,0.032,0.032,0,134,134,148,1,sevenfive,,,,,,,,,,,,,,,,,,,,,,,,,,,,,,,,,,,,,,,,,,,,,,,,,,,,,,,,,,,,,,,,,,,,,,,,,,,,,,,,,,,,,,,,,,,,,,,,,,,,,,,,,,,,,,,,,,,,,,,,,,,,,,,,,,,,,,,,,
,,67700724f07c694ad429287a,2026-03-17_14h14.00.264,kallum_motion_pilot_GIST_update_2,2026.1.1,Win32,60.24096386,67700724f07c694ad429287a,69b95efdef24cd8a694e89ee,69b96159d85520ac69b5559e,0.032,0.032,0,135,135,152,1,fivesix,,,,,,,,,,,,,,,,,,,,,,,,,,,,,,,,,,,,,,,,,,,,,,,,,,,,,,,,,,,,,,,,,,,,,,,,,,,,,,,,,,,,,,,,,,,,,,,,,,,,,,,,,,,,,,,,,,,,,,,,,,,,,,,,,,,,,,,,,
,,67700724f07c694ad429287a,2026-03-17_14h14.00.264,kallum_motion_pilot_GIST_update_2,2026.1.1,Win32,60.24096386,67700724f07c694ad429287a,69b95efdef24cd8a694e89ee,69b96159d85520ac69b5559e,0.0321,0.0321,0,136,136,78,1,fourtwo,,,,,,,,,,,,,,,,,,,,,,,,,,,,,,,,,,,,,,,,,,,,,,,,,,,,,,,,,,,,,,,,,,,,,,,,,,,,,,,,,,,,,,,,,,,,,,,,,,,,,,,,,,,,,,,,,,,,,,,,,,,,,,,,,,,,,,,,,
,,67700724f07c694ad429287a,2026-03-17_14h14.00.264,kallum_motion_pilot_GIST_update_2,2026.1.1,Win32,60.24096386,67700724f07c694ad429287a,69b95efdef24cd8a694e89ee,69b96159d85520ac69b5559e,0.0323,0.0323,0,137,137,53,1,threefour,,,,,,,,,,,,,,,,,,,,,,,,,,,,,,,,,,,,,,,,,,,,,,,,,,,,,,,,,,,,,,,,,,,,,,,,,,,,,,,,,,,,,,,,,,,,,,,,,,,,,,,,,,,,,,,,,,,,,,,,,,,,,,,,,,,,,,,,,
,,67700724f07c694ad429287a,2026-03-17_14h14.00.264,kallum_motion_pilot_GIST_update_2,2026.1.1,Win32,60.24096386,67700724f07c694ad429287a,69b95efdef24cd8a694e89ee,69b96159d85520ac69b5559e,0.0324,0.0324,0,138,138,71,1,fourthree,,,,,,,,,,,,,,,,,,,,,,,,,,,,,,,,,,,,,,,,,,,,,,,,,,,,,,,,,,,,,,,,,,,,,,,,,,,,,,,,,,,,,,,,,,,,,,,,,,,,,,,,,,,,,,,,,,,,,,,,,,,,,,,,,,,,,,,,,
,,67700724f07c694ad429287a,2026-03-17_14h14.00.264,kallum_motion_pilot_GIST_update_2,2026.1.1,Win32,60.24096386,67700724f07c694ad429287a,69b95efdef24cd8a694e89ee,69b96159d85520ac69b5559e,0.0324,0.0324,0,139,139,74,1,twoone,,,,,,,,,,,,,,,,,,,,,,,,,,,,,,,,,,,,,,,,,,,,,,,,,,,,,,,,,,,,,,,,,,,,,,,,,,,,,,,,,,,,,,,,,,,,,,,,,,,,,,,,,,,,,,,,,,,,,,,,,,,,,,,,,,,,,,,,,
,,67700724f07c694ad429287a,2026-03-17_14h14.00.264,kallum_motion_pilot_GIST_update_2,2026.1.1,Win32,60.24096386,67700724f07c694ad429287a,69b95efdef24cd8a694e89ee,69b96159d85520ac69b5559e,0.0326,0.0326,0,140,140,19,1,twofour,,,,,,,,,,,,,,,,,,,,,,,,,,,,,,,,,,,,,,,,,,,,,,,,,,,,,,,,,,,,,,,,,,,,,,,,,,,,,,,,,,,,,,,,,,,,,,,,,,,,,,,,,,,,,,,,,,,,,,,,,,,,,,,,,,,,,,,,,
,,67700724f07c694ad429287a,2026-03-17_14h14.00.264,kallum_motion_pilot_GIST_update_2,2026.1.1,Win32,60.24096386,67700724f07c694ad429287a,69b95efdef24cd8a694e89ee,69b96159d85520ac69b5559e,0.0327,0.0327,0,141,141,147,1,sixeight,,,,,,,,,,,,,,,,,,,,,,,,,,,,,,,,,,,,,,,,,,,,,,,,,,,,,,,,,,,,,,,,,,,,,,,,,,,,,,,,,,,,,,,,,,,,,,,,,,,,,,,,,,,,,,,,,,,,,,,,,,,,,,,,,,,,,,,,,
,,67700724f07c694ad429287a,2026-03-17_14h14.00.264,kallum_motion_pilot_GIST_update_2,2026.1.1,Win32,60.24096386,67700724f07c694ad429287a,69b95efdef24cd8a694e89ee,69b96159d85520ac69b5559e,0.0328,0.0328,0,142,142,45,1,threefour,,,,,,,,,,,,,,,,,,,,,,,,,,,,,,,,,,,,,,,,,,,,,,,,,,,,,,,,,,,,,,,,,,,,,,,,,,,,,,,,,,,,,,,,,,,,,,,,,,,,,,,,,,,,,,,,,,,,,,,,,,,,,,,,,,,,,,,,,
,,67700724f07c694ad429287a,2026-03-17_14h14.00.264,kallum_motion_pilot_GIST_update_2,2026.1.1,Win32,60.24096386,67700724f07c694ad429287a,69b95efdef24cd8a694e89ee,69b96159d85520ac69b5559e,0.0329,0.0329,0,143,143,107,1,sixeight,,,,,,,,,,,,,,,,,,,,,,,,,,,,,,,,,,,,,,,,,,,,,,,,,,,,,,,,,,,,,,,,,,,,,,,,,,,,,,,,,,,,,,,,,,,,,,,,,,,,,,,,,,,,,,,,,,,,,,,,,,,,,,,,,,,,,,,,,
,,67700724f07c694ad429287a,2026-03-17_14h14.00.264,kallum_motion_pilot_GIST_update_2,2026.1.1,Win32,60.24096386,67700724f07c694ad429287a,69b95efdef24cd8a694e89ee,69b96159d85520ac69b5559e,0.033,0.033,0,144,144,109,1,seveneight,,,,,,,,,,,,,,,,,,,,,,,,,,,,,,,,,,,,,,,,,,,,,,,,,,,,,,,,,,,,,,,,,,,,,,,,,,,,,,,,,,,,,,,,,,,,,,,,,,,,,,,,,,,,,,,,,,,,,,,,,,,,,,,,,,,,,,,,,
,,67700724f07c694ad429287a,2026-03-17_14h14.00.264,kallum_motion_pilot_GIST_update_2,2026.1.1,Win32,60.24096386,67700724f07c694ad429287a,69b95efdef24cd8a694e89ee,69b96159d85520ac69b5559e,0.0331,0.0332,0,145,145,33,1,onethree,,,,,,,,,,,,,,,,,,,,,,,,,,,,,,,,,,,,,,,,,,,,,,,,,,,,,,,,,,,,,,,,,,,,,,,,,,,,,,,,,,,,,,,,,,,,,,,,,,,,,,,,,,,,,,,,,,,,,,,,,,,,,,,,,,,,,,,,,
,,67700724f07c694ad429287a,2026-03-17_14h14.00.264,kallum_motion_pilot_GIST_update_2,2026.1.1,Win32,60.24096386,67700724f07c694ad429287a,69b95efdef24cd8a694e89ee,69b96159d85520ac69b5559e,0.0332,0.0332,0,146,146,35,1,twofour,,,,,,,,,,,,,,,,,,,,,,,,,,,,,,,,,,,,,,,,,,,,,,,,,,,,,,,,,,,,,,,,,,,,,,,,,,,,,,,,,,,,,,,,,,,,,,,,,,,,,,,,,,,,,,,,,,,,,,,,,,,,,,,,,,,,,,,,,
,,67700724f07c694ad429287a,2026-03-17_14h14.00.264,kallum_motion_pilot_GIST_update_2,2026.1.1,Win32,60.24096386,67700724f07c694ad429287a,69b95efdef24cd8a694e89ee,69b96159d85520ac69b5559e,0.0333,0.0334,0,147,147,85,1,seveneight,,,,,,,,,,,,,,,,,,,,,,,,,,,,,,,,,,,,,,,,,,,,,,,,,,,,,,,,,,,,,,,,,,,,,,,,,,,,,,,,,,,,,,,,,,,,,,,,,,,,,,,,,,,,,,,,,,,,,,,,,,,,,,,,,,,,,,,,,
,,67700724f07c694ad429287a,2026-03-17_14h14.00.264,kallum_motion_pilot_GIST_update_2,2026.1.1,Win32,60.24096386,67700724f07c694ad429287a,69b95efdef24cd8a694e89ee,69b96159d85520ac69b5559e,0.0334,0.0334,0,148,148,29,1,threefour,,,,,,,,,,,,,,,,,,,,,,,,,,,,,,,,,,,,,,,,,,,,,,,,,,,,,,,,,,,,,,,,,,,,,,,,,,,,,,,,,,,,,,,,,,,,,,,,,,,,,,,,,,,,,,,,,,,,,,,,,,,,,,,,,,,,,,,,,
,,67700724f07c694ad429287a,2026-03-17_14h14.00.264,kallum_motion_pilot_GIST_update_2,2026.1.1,Win32,60.24096386,67700724f07c694ad429287a,69b95efdef24cd8a694e89ee,69b96159d85520ac69b5559e,0.0335,0.0335,0,149,149,93,1,seveneight,,,,,,,,,,,,,,,,,,,,,,,,,,,,,,,,,,,,,,,,,,,,,,,,,,,,,,,,,,,,,,,,,,,,,,,,,,,,,,,,,,,,,,,,,,,,,,,,,,,,,,,,,,,,,,,,,,,,,,,,,,,,,,,,,,,,,,,,,
,,67700724f07c694ad429287a,2026-03-17_14h14.00.264,kallum_motion_pilot_GIST_update_2,2026.1.1,Win32,60.24096386,67700724f07c694ad429287a,69b95efdef24cd8a694e89ee,69b96159d85520ac69b5559e,0.0337,0.0337,0,150,150,128,1,fivesix,,,,,,,,,,,,,,,,,,,,,,,,,,,,,,,,,,,,,,,,,,,,,,,,,,,,,,,,,,,,,,,,,,,,,,,,,,,,,,,,,,,,,,,,,,,,,,,,,,,,,,,,,,,,,,,,,,,,,,,,,,,,,,,,,,,,,,,,,
,,67700724f07c694ad429287a,2026-03-17_14h14.00.264,kallum_motion_pilot_GIST_update_2,2026.1.1,Win32,60.24096386,67700724f07c694ad429287a,69b95efdef24cd8a694e89ee,69b96159d85520ac69b5559e,0.0338,0.0338,0,151,151,76,1,threeone,,,,,,,,,,,,,,,,,,,,,,,,,,,,,,,,,,,,,,,,,,,,,,,,,,,,,,,,,,,,,,,,,,,,,,,,,,,,,,,,,,,,,,,,,,,,,,,,,,,,,,,,,,,,,,,,,,,,,,,,,,,,,,,,,,,,,,,,,
,,67700724f07c694ad429287a,2026-03-17_14h14.00.264,kallum_motion_pilot_GIST_update_2,2026.1.1,Win32,60.24096386,67700724f07c694ad429287a,69b95efdef24cd8a694e89ee,69b96159d85520ac69b5559e,0.0339,0.0339,0,152,152,59,1,twofour,,,,,,,,,,,,,,,,,,,,,,,,,,,,,,,,,,,,,,,,,,,,,,,,,,,,,,,,,,,,,,,,,,,,,,,,,,,,,,,,,,,,,,,,,,,,,,,,,,,,,,,,,,,,,,,,,,,,,,,,,,,,,,,,,,,,,,,,,
,,67700724f07c694ad429287a,2026-03-17_14h14.00.264,kallum_motion_pilot_GIST_update_2,2026.1.1,Win32,60.24096386,67700724f07c694ad429287a,69b95efdef24cd8a694e89ee,69b96159d85520ac69b5559e,0.0341,0.0341,0,153,153,113,1,fiveseven,,,,,,,,,,,,,,,,,,,,,,,,,,,,,,,,,,,,,,,,,,,,,,,,,,,,,,,,,,,,,,,,,,,,,,,,,,,,,,,,,,,,,,,,,,,,,,,,,,,,,,,,,,,,,,,,,,,,,,,,,,,,,,,,,,,,,,,,,
,,67700724f07c694ad429287a,2026-03-17_14h14.00.264,kallum_motion_pilot_GIST_update_2,2026.1.1,Win32,60.24096386,67700724f07c694ad429287a,69b95efdef24cd8a694e89ee,69b96159d85520ac69b5559e,0.0341,0.0341,0,154,154,39,1,fourthree,,,,,,,,,,,,,,,,,,,,,,,,,,,,,,,,,,,,,,,,,,,,,,,,,,,,,,,,,,,,,,,,,,,,,,,,,,,,,,,,,,,,,,,,,,,,,,,,,,,,,,,,,,,,,,,,,,,,,,,,,,,,,,,,,,,,,,,,,
,,67700724f07c694ad429287a,2026-03-17_14h14.00.264,kallum_motion_pilot_GIST_update_2,2026.1.1,Win32,60.24096386,67700724f07c694ad429287a,69b95efdef24cd8a694e89ee,69b96159d85520ac69b5559e,0.0342,0.0342,0,155,155,124,1,sevenfive,,,,,,,,,,,,,,,,,,,,,,,,,,,,,,,,,,,,,,,,,,,,,,,,,,,,,,,,,,,,,,,,,,,,,,,,,,,,,,,,,,,,,,,,,,,,,,,,,,,,,,,,,,,,,,,,,,,,,,,,,,,,,,,,,,,,,,,,,
,,67700724f07c694ad429287a,2026-03-17_14h14.00.264,kallum_motion_pilot_GIST_update_2,2026.1.1,Win32,60.24096386,67700724f07c694ad429287a,69b95efdef24cd8a694e89ee,69b96159d85520ac69b5559e,0.0344,0.0344,0,156,156,1,1,onethree,,,,,,,,,,,,,,,,,,,,,,,,,,,,,,,,,,,,,,,,,,,,,,,,,,,,,,,,,,,,,,,,,,,,,,,,,,,,,,,,,,,,,,,,,,,,,,,,,,,,,,,,,,,,,,,,,,,,,,,,,,,,,,,,,,,,,,,,,
,,67700724f07c694ad429287a,2026-03-17_14h14.00.264,kallum_motion_pilot_GIST_update_2,2026.1.1,Win32,60.24096386,67700724f07c694ad429287a,69b95efdef24cd8a694e89ee,69b96159d85520ac69b5559e,0.0344,0.0344,0,157,157,44,1,threeone,,,,,,,,,,,,,,,,,,,,,,,,,,,,,,,,,,,,,,,,,,,,,,,,,,,,,,,,,,,,,,,,,,,,,,,,,,,,,,,,,,,,,,,,,,,,,,,,,,,,,,,,,,,,,,,,,,,,,,,,,,,,,,,,,,,,,,,,,
,,67700724f07c694ad429287a,2026-03-17_14h14.00.264,kallum_motion_pilot_GIST_update_2,2026.1.1,Win32,60.24096386,67700724f07c694ad429287a,69b95efdef24cd8a694e89ee,69b96159d85520ac69b5559e,0.0345,0.0345,0,158,158,57,1,onethree,,,,,,,,,,,,,,,,,,,,,,,,,,,,,,,,,,,,,,,,,,,,,,,,,,,,,,,,,,,,,,,,,,,,,,,,,,,,,,,,,,,,,,,,,,,,,,,,,,,,,,,,,,,,,,,,,,,,,,,,,,,,,,,,,,,,,,,,,
,,67700724f07c694ad429287a,2026-03-17_14h14.00.264,kallum_motion_pilot_GIST_update_2,2026.1.1,Win32,60.24096386,67700724f07c694ad429287a,69b95efdef24cd8a694e89ee,69b96159d85520ac69b5559e,0.0347,0.0347,0,159,159,63,1,fourthree,,,,,,,,,,,,,,,,,,,,,,,,,,,,,,,,,,,,,,,,,,,,,,,,,,,,,,,,,,,,,,,,,,,,,,,,,,,,,,,,,,,,,,,,,,,,,,,,,,,,,,,,,,,,,,,,,,,,,,,,,,,,,,,,,,,,,,,,,
,,67700724f07c694ad429287a,2026-03-17_14h14.00.264,kallum_motion_pilot_GIST_update_2,2026.1.1,Win32,60.24096386,67700724f07c694ad429287a,69b95efdef24cd8a694e89ee,69b96159d85520ac69b5559e,0.0347,0.0347,0,160,160,24,1,onetwo,,,,,,,,,,,,,,,,,,,,,,,,,,,,,,,,,,,,,,,,,,,,,,,,,,,,,,,,,,,,,,,,,,,,,,,,,,,,,,,,,,,,,,,,,,,,,,,,,,,,,,,,,,,,,,,,,,,,,,,,,,,,,,,,,,,,,,,,,
,,67700724f07c694ad429287a,2026-03-17_14h14.00.264,kallum_motion_pilot_GIST_update_2,2026.1.1,Win32,60.24096386,67700724f07c694ad429287a,69b95efdef24cd8a694e89ee,69b96159d85520ac69b5559e,0.0348,0.0348,0,161,161,4,1,threeone,,,,,,,,,,,,,,,,,,,,,,,,,,,,,,,,,,,,,,,,,,,,,,,,,,,,,,,,,,,,,,,,,,,,,,,,,,,,,,,,,,,,,,,,,,,,,,,,,,,,,,,,,,,,,,,,,,,,,,,,,,,,,,,,,,,,,,,,,
,,67700724f07c694ad429287a,2026-03-17_14h14.00.264,kallum_motion_pilot_GIST_update_2,2026.1.1,Win32,60.24096386,67700724f07c694ad429287a,69b95efdef24cd8a694e89ee,69b96159d85520ac69b5559e,0.035,0.035,1,0,162,37,1,threefour,,,,,,,,,,,,,,,,,,,,,,,,,,,,,,,,,,,,,,,,,,,,,,,,,,,,,,,,,,,,,,,,,,,,,,,,,,,,,,,,,,,,,,,,,,,,,,,,,,,,,,,,,,,,,,,,,,,,,,,,,,,,,,,,,,,,,,,,,
,,67700724f07c694ad429287a,2026-03-17_14h14.00.264,kallum_motion_pilot_GIST_update_2,2026.1.1,Win32,60.24096386,67700724f07c694ad429287a,69b95efdef24cd8a694e89ee,69b96159d85520ac69b5559e,0.0351,0.0351,1,1,163,16,1,onetwo,,,,,,,,,,,,,,,,,,,,,,,,,,,,,,,,,,,,,,,,,,,,,,,,,,,,,,,,,,,,,,,,,,,,,,,,,,,,,,,,,,,,,,,,,,,,,,,,,,,,,,,,,,,,,,,,,,,,,,,,,,,,,,,,,,,,,,,,,
,,67700724f07c694ad429287a,2026-03-17_14h14.00.264,kallum_motion_pilot_GIST_update_2,2026.1.1,Win32,60.24096386,67700724f07c694ad429287a,69b95efdef24cd8a694e89ee,69b96159d85520ac69b5559e,0.0351,0.0351,1,2,164,18,1,twoone,,,,,,,,,,,,,,,,,,,,,,,,,,,,,,,,,,,,,,,,,,,,,,,,,,,,,,,,,,,,,,,,,,,,,,,,,,,,,,,,,,,,,,,,,,,,,,,,,,,,,,,,,,,,,,,,,,,,,,,,,,,,,,,,,,,,,,,,,
,,67700724f07c694ad429287a,2026-03-17_14h14.00.264,kallum_motion_pilot_GIST_update_2,2026.1.1,Win32,60.24096386,67700724f07c694ad429287a,69b95efdef24cd8a694e89ee,69b96159d85520ac69b5559e,0.0353,0.0353,1,3,165,95,1,eightseven,,,,,,,,,,,,,,,,,,,,,,,,,,,,,,,,,,,,,,,,,,,,,,,,,,,,,,,,,,,,,,,,,,,,,,,,,,,,,,,,,,,,,,,,,,,,,,,,,,,,,,,,,,,,,,,,,,,,,,,,,,,,,,,,,,,,,,,,,
,,67700724f07c694ad429287a,2026-03-17_14h14.00.264,kallum_motion_pilot_GIST_update_2,2026.1.1,Win32,60.24096386,67700724f07c694ad429287a,69b95efdef24cd8a694e89ee,69b96159d85520ac69b5559e,0.0353,0.0354,1,4,166,137,1,fiveseven,,,,,,,,,,,,,,,,,,,,,,,,,,,,,,,,,,,,,,,,,,,,,,,,,,,,,,,,,,,,,,,,,,,,,,,,,,,,,,,,,,,,,,,,,,,,,,,,,,,,,,,,,,,,,,,,,,,,,,,,,,,,,,,,,,,,,,,,,
,,67700724f07c694ad429287a,2026-03-17_14h14.00.264,kallum_motion_pilot_GIST_update_2,2026.1.1,Win32,60.24096386,67700724f07c694ad429287a,69b95efdef24cd8a694e89ee,69b96159d85520ac69b5559e,0.0355,0.0355,1,5,167,113,1,fiveseven,,,,,,,,,,,,,,,,,,,,,,,,,,,,,,,,,,,,,,,,,,,,,,,,,,,,,,,,,,,,,,,,,,,,,,,,,,,,,,,,,,,,,,,,,,,,,,,,,,,,,,,,,,,,,,,,,,,,,,,,,,,,,,,,,,,,,,,,,
,,67700724f07c694ad429287a,2026-03-17_14h14.00.264,kallum_motion_pilot_GIST_update_2,2026.1.1,Win32,60.24096386,67700724f07c694ad429287a,69b95efdef24cd8a694e89ee,69b96159d85520ac69b5559e,0.0356,0.0356,1,6,168,77,1,threefour,,,,,,,,,,,,,,,,,,,,,,,,,,,,,,,,,,,,,,,,,,,,,,,,,,,,,,,,,,,,,,,,,,,,,,,,,,,,,,,,,,,,,,,,,,,,,,,,,,,,,,,,,,,,,,,,,,,,,,,,,,,,,,,,,,,,,,,,,
,,67700724f07c694ad429287a,2026-03-17_14h14.00.264,kallum_motion_pilot_GIST_update_2,2026.1.1,Win32,60.24096386,67700724f07c694ad429287a,69b95efdef24cd8a694e89ee,69b96159d85520ac69b5559e,0.0357,0.0357,1,7,169,33,1,onethree,,,,,,,,,,,,,,,,,,,,,,,,,,,,,,,,,,,,,,,,,,,,,,,,,,,,,,,,,,,,,,,,,,,,,,,,,,,,,,,,,,,,,,,,,,,,,,,,,,,,,,,,,,,,,,,,,,,,,,,,,,,,,,,,,,,,,,,,,
,,67700724f07c694ad429287a,2026-03-17_14h14.00.264,kallum_motion_pilot_GIST_update_2,2026.1.1,Win32,60.24096386,67700724f07c694ad429287a,69b95efdef24cd8a694e89ee,69b96159d85520ac69b5559e,0.0358,0.0358,1,8,170,147,1,sixeight,,,,,,,,,,,,,,,,,,,,,,,,,,,,,,,,,,,,,,,,,,,,,,,,,,,,,,,,,,,,,,,,,,,,,,,,,,,,,,,,,,,,,,,,,,,,,,,,,,,,,,,,,,,,,,,,,,,,,,,,,,,,,,,,,,,,,,,,,
,,67700724f07c694ad429287a,2026-03-17_14h14.00.264,kallum_motion_pilot_GIST_update_2,2026.1.1,Win32,60.24096386,67700724f07c694ad429287a,69b95efdef24cd8a694e89ee,69b96159d85520ac69b5559e,0.0359,0.0359,1,9,171,24,1,onetwo,,,,,,,,,,,,,,,,,,,,,,,,,,,,,,,,,,,,,,,,,,,,,,,,,,,,,,,,,,,,,,,,,,,,,,,,,,,,,,,,,,,,,,,,,,,,,,,,,,,,,,,,,,,,,,,,,,,,,,,,,,,,,,,,,,,,,,,,,
,,67700724f07c694ad429287a,2026-03-17_14h14.00.264,kallum_motion_pilot_GIST_update_2,2026.1.1,Win32,60.24096386,67700724f07c694ad429287a,69b95efdef24cd8a694e89ee,69b96159d85520ac69b5559e,0.0361,0.0361,1,10,172,57,1,onethree,,,,,,,,,,,,,,,,,,,,,,,,,,,,,,,,,,,,,,,,,,,,,,,,,,,,,,,,,,,,,,,,,,,,,,,,,,,,,,,,,,,,,,,,,,,,,,,,,,,,,,,,,,,,,,,,,,,,,,,,,,,,,,,,,,,,,,,,,
,,67700724f07c694ad429287a,2026-03-17_14h14.00.264,kallum_motion_pilot_GIST_update_2,2026.1.1,Win32,60.24096386,67700724f07c694ad429287a,69b95efdef24cd8a694e89ee,69b96159d85520ac69b5559e,0.0361,0.0361,1,11,173,124,1,sevenfive,,,,,,,,,,,,,,,,,,,,,,,,,,,,,,,,,,,,,,,,,,,,,,,,,,,,,,,,,,,,,,,,,,,,,,,,,,,,,,,,,,,,,,,,,,,,,,,,,,,,,,,,,,,,,,,,,,,,,,,,,,,,,,,,,,,,,,,,,
,,67700724f07c694ad429287a,2026-03-17_14h14.00.264,kallum_motion_pilot_GIST_update_2,2026.1.1,Win32,60.24096386,67700724f07c694ad429287a,69b95efdef24cd8a694e89ee,69b96159d85520ac69b5559e,0.0363,0.0363,1,12,174,88,1,fivesix,,,,,,,,,,,,,,,,,,,,,,,,,,,,,,,,,,,,,,,,,,,,,,,,,,,,,,,,,,,,,,,,,,,,,,,,,,,,,,,,,,,,,,,,,,,,,,,,,,,,,,,,,,,,,,,,,,,,,,,,,,,,,,,,,,,,,,,,,
,,67700724f07c694ad429287a,2026-03-17_14h14.00.264,kallum_motion_pilot_GIST_update_2,2026.1.1,Win32,60.24096386,67700724f07c694ad429287a,69b95efdef24cd8a694e89ee,69b96159d85520ac69b5559e,0.0364,0.0364,1,13,175,8,1,onetwo,,,,,,,,,,,,,,,,,,,,,,,,,,,,,,,,,,,,,,,,,,,,,,,,,,,,,,,,,,,,,,,,,,,,,,,,,,,,,,,,,,,,,,,,,,,,,,,,,,,,,,,,,,,,,,,,,,,,,,,,,,,,,,,,,,,,,,,,,
,,67700724f07c694ad429287a,2026-03-17_14h14.00.264,kallum_motion_pilot_GIST_update_2,2026.1.1,Win32,60.24096386,67700724f07c694ad429287a,69b95efdef24cd8a694e89ee,69b96159d85520ac69b5559e,0.0365,0.0365,1,14,176,141,1,seveneight,,,,,,,,,,,,,,,,,,,,,,,,,,,,,,,,,,,,,,,,,,,,,,,,,,,,,,,,,,,,,,,,,,,,,,,,,,,,,,,,,,,,,,,,,,,,,,,,,,,,,,,,,,,,,,,,,,,,,,,,,,,,,,,,,,,,,,,,,
,,67700724f07c694ad429287a,2026-03-17_14h14.00.264,kallum_motion_pilot_GIST_update_2,2026.1.1,Win32,60.24096386,67700724f07c694ad429287a,69b95efdef24cd8a694e89ee,69b96159d85520ac69b5559e,0.0367,0.0367,1,15,177,7,1,fourthree,,,,,,,,,,,,,,,,,,,,,,,,,,,,,,,,,,,,,,,,,,,,,,,,,,,,,,,,,,,,,,,,,,,,,,,,,,,,,,,,,,,,,,,,,,,,,,,,,,,,,,,,,,,,,,,,,,,,,,,,,,,,,,,,,,,,,,,,,
,,67700724f07c694ad429287a,2026-03-17_14h14.00.264,kallum_motion_pilot_GIST_update_2,2026.1.1,Win32,60.24096386,67700724f07c694ad429287a,69b95efdef24cd8a694e89ee,69b96159d85520ac69b5559e,0.0367,0.0367,1,16,178,29,1,threefour,,,,,,,,,,,,,,,,,,,,,,,,,,,,,,,,,,,,,,,,,,,,,,,,,,,,,,,,,,,,,,,,,,,,,,,,,,,,,,,,,,,,,,,,,,,,,,,,,,,,,,,,,,,,,,,,,,,,,,,,,,,,,,,,,,,,,,,,,
,,67700724f07c694ad429287a,2026-03-17_14h14.00.264,kallum_motion_pilot_GIST_update_2,2026.1.1,Win32,60.24096386,67700724f07c694ad429287a,69b95efdef24cd8a694e89ee,69b96159d85520ac69b5559e,0.0369,0.0369,1,17,179,32,1,onetwo,,,,,,,,,,,,,,,,,,,,,,,,,,,,,,,,,,,,,,,,,,,,,,,,,,,,,,,,,,,,,,,,,,,,,,,,,,,,,,,,,,,,,,,,,,,,,,,,,,,,,,,,,,,,,,,,,,,,,,,,,,,,,,,,,,,,,,,,,
,,67700724f07c694ad429287a,2026-03-17_14h14.00.264,kallum_motion_pilot_GIST_update_2,2026.1.1,Win32,60.24096386,67700724f07c694ad429287a,69b95efdef24cd8a694e89ee,69b96159d85520ac69b5559e,0.0369,0.0369,1,18,180,55,1,fourthree,,,,,,,,,,,,,,,,,,,,,,,,,,,,,,,,,,,,,,,,,,,,,,,,,,,,,,,,,,,,,,,,,,,,,,,,,,,,,,,,,,,,,,,,,,,,,,,,,,,,,,,,,,,,,,,,,,,,,,,,,,,,,,,,,,,,,,,,,
,,67700724f07c694ad429287a,2026-03-17_14h14.00.264,kallum_motion_pilot_GIST_update_2,2026.1.1,Win32,60.24096386,67700724f07c694ad429287a,69b95efdef24cd8a694e89ee,69b96159d85520ac69b5559e,0.037,0.037,1,19,181,127,1,eightseven,,,,,,,,,,,,,,,,,,,,,,,,,,,,,,,,,,,,,,,,,,,,,,,,,,,,,,,,,,,,,,,,,,,,,,,,,,,,,,,,,,,,,,,,,,,,,,,,,,,,,,,,,,,,,,,,,,,,,,,,,,,,,,,,,,,,,,,,,
,,67700724f07c694ad429287a,2026-03-17_14h14.00.264,kallum_motion_pilot_GIST_update_2,2026.1.1,Win32,60.24096386,67700724f07c694ad429287a,69b95efdef24cd8a694e89ee,69b96159d85520ac69b5559e,0.0371,0.0371,1,20,182,75,1,twofour,,,,,,,,,,,,,,,,,,,,,,,,,,,,,,,,,,,,,,,,,,,,,,,,,,,,,,,,,,,,,,,,,,,,,,,,,,,,,,,,,,,,,,,,,,,,,,,,,,,,,,,,,,,,,,,,,,,,,,,,,,,,,,,,,,,,,,,,,
,,67700724f07c694ad429287a,2026-03-17_14h14.00.264,kallum_motion_pilot_GIST_update_2,2026.1.1,Win32,60.24096386,67700724f07c694ad429287a,69b95efdef24cd8a694e89ee,69b96159d85520ac69b5559e,0.0372,0.0372,1,21,183,86,1,eightsix,,,,,,,,,,,,,,,,,,,,,,,,,,,,,,,,,,,,,,,,,,,,,,,,,,,,,,,,,,,,,,,,,,,,,,,,,,,,,,,,,,,,,,,,,,,,,,,,,,,,,,,,,,,,,,,,,,,,,,,,,,,,,,,,,,,,,,,,,
,,67700724f07c694ad429287a,2026-03-17_14h14.00.264,kallum_motion_pilot_GIST_update_2,2026.1.1,Win32,60.24096386,67700724f07c694ad429287a,69b95efdef24cd8a694e89ee,69b96159d85520ac69b5559e,0.0374,0.0374,1,22,184,74,1,twoone,,,,,,,,,,,,,,,,,,,,,,,,,,,,,,,,,,,,,,,,,,,,,,,,,,,,,,,,,,,,,,,,,,,,,,,,,,,,,,,,,,,,,,,,,,,,,,,,,,,,,,,,,,,,,,,,,,,,,,,,,,,,,,,,,,,,,,,,,
,,67700724f07c694ad429287a,2026-03-17_14h14.00.264,kallum_motion_pilot_GIST_update_2,2026.1.1,Win32,60.24096386,67700724f07c694ad429287a,69b95efdef24cd8a694e89ee,69b96159d85520ac69b5559e,0.0374,0.0374,1,23,185,91,1,sixeight,,,,,,,,,,,,,,,,,,,,,,,,,,,,,,,,,,,,,,,,,,,,,,,,,,,,,,,,,,,,,,,,,,,,,,,,,,,,,,,,,,,,,,,,,,,,,,,,,,,,,,,,,,,,,,,,,,,,,,,,,,,,,,,,,,,,,,,,,
,,67700724f07c694ad429287a,2026-03-17_14h14.00.264,kallum_motion_pilot_GIST_update_2,2026.1.1,Win32,60.24096386,67700724f07c694ad429287a,69b95efdef24cd8a694e89ee,69b96159d85520ac69b5559e,0.0376,0.0376,1,24,186,56,1,onetwo,,,,,,,,,,,,,,,,,,,,,,,,,,,,,,,,,,,,,,,,,,,,,,,,,,,,,,,,,,,,,,,,,,,,,,,,,,,,,,,,,,,,,,,,,,,,,,,,,,,,,,,,,,,,,,,,,,,,,,,,,,,,,,,,,,,,,,,,,
,,67700724f07c694ad429287a,2026-03-17_14h14.00.264,kallum_motion_pilot_GIST_update_2,2026.1.1,Win32,60.24096386,67700724f07c694ad429287a,69b95efdef24cd8a694e89ee,69b96159d85520ac69b5559e,0.0377,0.0377,1,25,187,135,1,eightseven,,,,,,,,,,,,,,,,,,,,,,,,,,,,,,,,,,,,,,,,,,,,,,,,,,,,,,,,,,,,,,,,,,,,,,,,,,,,,,,,,,,,,,,,,,,,,,,,,,,,,,,,,,,,,,,,,,,,,,,,,,,,,,,,,,,,,,,,,
,,67700724f07c694ad429287a,2026-03-17_14h14.00.264,kallum_motion_pilot_GIST_update_2,2026.1.1,Win32,60.24096386,67700724f07c694ad429287a,69b95efdef24cd8a694e89ee,69b96159d85520ac69b5559e,0.0379,0.0379,1,26,188,79,1,eightseven,,,,,,,,,,,,,,,,,,,,,,,,,,,,,,,,,,,,,,,,,,,,,,,,,,,,,,,,,,,,,,,,,,,,,,,,,,,,,,,,,,,,,,,,,,,,,,,,,,,,,,,,,,,,,,,,,,,,,,,,,,,,,,,,,,,,,,,,,
,,67700724f07c694ad429287a,2026-03-17_14h14.00.264,kallum_motion_pilot_GIST_update_2,2026.1.1,Win32,60.24096386,67700724f07c694ad429287a,69b95efdef24cd8a694e89ee,69b96159d85520ac69b5559e,0.038,0.038,1,27,189,14,1,fourtwo,,,,,,,,,,,,,,,,,,,,,,,,,,,,,,,,,,,,,,,,,,,,,,,,,,,,,,,,,,,,,,,,,,,,,,,,,,,,,,,,,,,,,,,,,,,,,,,,,,,,,,,,,,,,,,,,,,,,,,,,,,,,,,,,,,,,,,,,,
,,67700724f07c694ad429287a,2026-03-17_14h14.00.264,kallum_motion_pilot_GIST_update_2,2026.1.1,Win32,60.24096386,67700724f07c694ad429287a,69b95efdef24cd8a694e89ee,69b96159d85520ac69b5559e,0.0381,0.0381,1,28,190,116,1,sevenfive,,,,,,,,,,,,,,,,,,,,,,,,,,,,,,,,,,,,,,,,,,,,,,,,,,,,,,,,,,,,,,,,,,,,,,,,,,,,,,,,,,,,,,,,,,,,,,,,,,,,,,,,,,,,,,,,,,,,,,,,,,,,,,,,,,,,,,,,,
,,67700724f07c694ad429287a,2026-03-17_14h14.00.264,kallum_motion_pilot_GIST_update_2,2026.1.1,Win32,60.24096386,67700724f07c694ad429287a,69b95efdef24cd8a694e89ee,69b96159d85520ac69b5559e,0.0382,0.0382,1,29,191,6,1,fourtwo,,,,,,,,,,,,,,,,,,,,,,,,,,,,,,,,,,,,,,,,,,,,,,,,,,,,,,,,,,,,,,,,,,,,,,,,,,,,,,,,,,,,,,,,,,,,,,,,,,,,,,,,,,,,,,,,,,,,,,,,,,,,,,,,,,,,,,,,,
,,67700724f07c694ad429287a,2026-03-17_14h14.00.264,kallum_motion_pilot_GIST_update_2,2026.1.1,Win32,60.24096386,67700724f07c694ad429287a,69b95efdef24cd8a694e89ee,69b96159d85520ac69b5559e,0.0383,0.0383,1,30,192,83,1,sixeight,,,,,,,,,,,,,,,,,,,,,,,,,,,,,,,,,,,,,,,,,,,,,,,,,,,,,,,,,,,,,,,,,,,,,,,,,,,,,,,,,,,,,,,,,,,,,,,,,,,,,,,,,,,,,,,,,,,,,,,,,,,,,,,,,,,,,,,,,
,,67700724f07c694ad429287a,2026-03-17_14h14.00.264,kallum_motion_pilot_GIST_update_2,2026.1.1,Win32,60.24096386,67700724f07c694ad429287a,69b95efdef24cd8a694e89ee,69b96159d85520ac69b5559e,0.0384,0.0384,1,31,193,1,1,onethree,,,,,,,,,,,,,,,,,,,,,,,,,,,,,,,,,,,,,,,,,,,,,,,,,,,,,,,,,,,,,,,,,,,,,,,,,,,,,,,,,,,,,,,,,,,,,,,,,,,,,,,,,,,,,,,,,,,,,,,,,,,,,,,,,,,,,,,,,
,,67700724f07c694ad429287a,2026-03-17_14h14.00.264,kallum_motion_pilot_GIST_update_2,2026.1.1,Win32,60.24096386,67700724f07c694ad429287a,69b95efdef24cd8a694e89ee,69b96159d85520ac69b5559e,0.0385,0.0385,1,32,194,158,1,eightsix,,,,,,,,,,,,,,,,,,,,,,,,,,,,,,,,,,,,,,,,,,,,,,,,,,,,,,,,,,,,,,,,,,,,,,,,,,,,,,,,,,,,,,,,,,,,,,,,,,,,,,,,,,,,,,,,,,,,,,,,,,,,,,,,,,,,,,,,,
,,67700724f07c694ad429287a,2026-03-17_14h14.00.264,kallum_motion_pilot_GIST_update_2,2026.1.1,Win32,60.24096386,67700724f07c694ad429287a,69b95efdef24cd8a694e89ee,69b96159d85520ac69b5559e,0.0387,0.0387,1,33,195,111,1,eightseven,,,,,,,,,,,,,,,,,,,,,,,,,,,,,,,,,,,,,,,,,,,,,,,,,,,,,,,,,,,,,,,,,,,,,,,,,,,,,,,,,,,,,,,,,,,,,,,,,,,,,,,,,,,,,,,,,,,,,,,,,,,,,,,,,,,,,,,,,
,,67700724f07c694ad429287a,2026-03-17_14h14.00.264,kallum_motion_pilot_GIST_update_2,2026.1.1,Win32,60.24096386,67700724f07c694ad429287a,69b95efdef24cd8a694e89ee,69b96159d85520ac69b5559e,0.0387,0.0387,1,34,196,93,1,seveneight,,,,,,,,,,,,,,,,,,,,,,,,,,,,,,,,,,,,,,,,,,,,,,,,,,,,,,,,,,,,,,,,,,,,,,,,,,,,,,,,,,,,,,,,,,,,,,,,,,,,,,,,,,,,,,,,,,,,,,,,,,,,,,,,,,,,,,,,,
,,67700724f07c694ad429287a,2026-03-17_14h14.00.264,kallum_motion_pilot_GIST_update_2,2026.1.1,Win32,60.24096386,67700724f07c694ad429287a,69b95efdef24cd8a694e89ee,69b96159d85520ac69b5559e,0.0388,0.0388,1,35,197,78,1,fourtwo,,,,,,,,,,,,,,,,,,,,,,,,,,,,,,,,,,,,,,,,,,,,,,,,,,,,,,,,,,,,,,,,,,,,,,,,,,,,,,,,,,,,,,,,,,,,,,,,,,,,,,,,,,,,,,,,,,,,,,,,,,,,,,,,,,,,,,,,,
,,67700724f07c694ad429287a,2026-03-17_14h14.00.264,kallum_motion_pilot_GIST_update_2,2026.1.1,Win32,60.24096386,67700724f07c694ad429287a,69b95efdef24cd8a694e89ee,69b96159d85520ac69b5559e,0.039,0.039,1,36,198,128,1,fivesix,,,,,,,,,,,,,,,,,,,,,,,,,,,,,,,,,,,,,,,,,,,,,,,,,,,,,,,,,,,,,,,,,,,,,,,,,,,,,,,,,,,,,,,,,,,,,,,,,,,,,,,,,,,,,,,,,,,,,,,,,,,,,,,,,,,,,,,,,
,,67700724f07c694ad429287a,2026-03-17_14h14.00.264,kallum_motion_pilot_GIST_update_2,2026.1.1,Win32,60.24096386,67700724f07c694ad429287a,69b95efdef24cd8a694e89ee,69b96159d85520ac69b5559e,0.0391,0.0391,1,37,199,13,1,threefour,,,,,,,,,,,,,,,,,,,,,,,,,,,,,,,,,,,,,,,,,,,,,,,,,,,,,,,,,,,,,,,,,,,,,,,,,,,,,,,,,,,,,,,,,,,,,,,,,,,,,,,,,,,,,,,,,,,,,,,,,,,,,,,,,,,,,,,,,
,,67700724f07c694ad429287a,2026-03-17_14h14.00.264,kallum_motion_pilot_GIST_update_2,2026.1.1,Win32,60.24096386,67700724f07c694ad429287a,69b95efdef24cd8a694e89ee,69b96159d85520ac69b5559e,0.0392,0.0393,1,38,200,105,1,fiveseven,,,,,,,,,,,,,,,,,,,,,,,,,,,,,,,,,,,,,,,,,,,,,,,,,,,,,,,,,,,,,,,,,,,,,,,,,,,,,,,,,,,,,,,,,,,,,,,,,,,,,,,,,,,,,,,,,,,,,,,,,,,,,,,,,,,,,,,,,
,,67700724f07c694ad429287a,2026-03-17_14h14.00.264,kallum_motion_pilot_GIST_update_2,2026.1.1,Win32,60.24096386,67700724f07c694ad429287a,69b95efdef24cd8a694e89ee,69b96159d85520ac69b5559e,0.0394,0.0394,1,39,201,39,1,fourthree,,,,,,,,,,,,,,,,,,,,,,,,,,,,,,,,,,,,,,,,,,,,,,,,,,,,,,,,,,,,,,,,,,,,,,,,,,,,,,,,,,,,,,,,,,,,,,,,,,,,,,,,,,,,,,,,,,,,,,,,,,,,,,,,,,,,,,,,,
,,67700724f07c694ad429287a,2026-03-17_14h14.00.264,kallum_motion_pilot_GIST_update_2,2026.1.1,Win32,60.24096386,67700724f07c694ad429287a,69b95efdef24cd8a694e89ee,69b96159d85520ac69b5559e,0.0396,0.0396,1,40,202,150,1,eightsix,,,,,,,,,,,,,,,,,,,,,,,,,,,,,,,,,,,,,,,,,,,,,,,,,,,,,,,,,,,,,,,,,,,,,,,,,,,,,,,,,,,,,,,,,,,,,,,,,,,,,,,,,,,,,,,,,,,,,,,,,,,,,,,,,,,,,,,,,
,,67700724f07c694ad429287a,2026-03-17_14h14.00.264,kallum_motion_pilot_GIST_update_2,2026.1.1,Win32,60.24096386,67700724f07c694ad429287a,69b95efdef24cd8a694e89ee,69b96159d85520ac69b5559e,0.0401,0.0401,1,41,203,89,1,fiveseven,,,,,,,,,,,,,,,,,,,,,,,,,,,,,,,,,,,,,,,,,,,,,,,,,,,,,,,,,,,,,,,,,,,,,,,,,,,,,,,,,,,,,,,,,,,,,,,,,,,,,,,,,,,,,,,,,,,,,,,,,,,,,,,,,,,,,,,,,
,,67700724f07c694ad429287a,2026-03-17_14h14.00.264,kallum_motion_pilot_GIST_update_2,2026.1.1,Win32,60.24096386,67700724f07c694ad429287a,69b95efdef24cd8a694e89ee,69b96159d85520ac69b5559e,0.0403,0.0403,1,42,204,112,1,fivesix,,,,,,,,,,,,,,,,,,,,,,,,,,,,,,,,,,,,,,,,,,,,,,,,,,,,,,,,,,,,,,,,,,,,,,,,,,,,,,,,,,,,,,,,,,,,,,,,,,,,,,,,,,,,,,,,,,,,,,,,,,,,,,,,,,,,,,,,,
,,67700724f07c694ad429287a,2026-03-17_14h14.00.264,kallum_motion_pilot_GIST_update_2,2026.1.1,Win32,60.24096386,67700724f07c694ad429287a,69b95efdef24cd8a694e89ee,69b96159d85520ac69b5559e,0.0404,0.0404,1,43,205,132,1,sevenfive,,,,,,,,,,,,,,,,,,,,,,,,,,,,,,,,,,,,,,,,,,,,,,,,,,,,,,,,,,,,,,,,,,,,,,,,,,,,,,,,,,,,,,,,,,,,,,,,,,,,,,,,,,,,,,,,,,,,,,,,,,,,,,,,,,,,,,,,,
,,67700724f07c694ad429287a,2026-03-17_14h14.00.264,kallum_motion_pilot_GIST_update_2,2026.1.1,Win32,60.24096386,67700724f07c694ad429287a,69b95efdef24cd8a694e89ee,69b96159d85520ac69b5559e,0.0405,0.0405,1,44,206,143,1,eightseven,,,,,,,,,,,,,,,,,,,,,,,,,,,,,,,,,,,,,,,,,,,,,,,,,,,,,,,,,,,,,,,,,,,,,,,,,,,,,,,,,,,,,,,,,,,,,,,,,,,,,,,,,,,,,,,,,,,,,,,,,,,,,,,,,,,,,,,,,
,,67700724f07c694ad429287a,2026-03-17_14h14.00.264,kallum_motion_pilot_GIST_update_2,2026.1.1,Win32,60.24096386,67700724f07c694ad429287a,69b95efdef24cd8a694e89ee,69b96159d85520ac69b5559e,0.0406,0.0407,1,45,207,36,1,threeone,,,,,,,,,,,,,,,,,,,,,,,,,,,,,,,,,,,,,,,,,,,,,,,,,,,,,,,,,,,,,,,,,,,,,,,,,,,,,,,,,,,,,,,,,,,,,,,,,,,,,,,,,,,,,,,,,,,,,,,,,,,,,,,,,,,,,,,,,
,,67700724f07c694ad429287a,2026-03-17_14h14.00.264,kallum_motion_pilot_GIST_update_2,2026.1.1,Win32,60.24096386,67700724f07c694ad429287a,69b95efdef24cd8a694e89ee,69b96159d85520ac69b5559e,0.0407,0.0407,1,46,208,2,1,twoone,,,,,,,,,,,,,,,,,,,,,,,,,,,,,,,,,,,,,,,,,,,,,,,,,,,,,,,,,,,,,,,,,,,,,,,,,,,,,,,,,,,,,,,,,,,,,,,,,,,,,,,,,,,,,,,,,,,,,,,,,,,,,,,,,,,,,,,,,
,,67700724f07c694ad429287a,2026-03-17_14h14.00.264,kallum_motion_pilot_GIST_update_2,2026.1.1,Win32,60.24096386,67700724f07c694ad429287a,69b95efdef24cd8a694e89ee,69b96159d85520ac69b5559e,0.0408,0.0408,1,47,209,34,1,twoone,,,,,,,,,,,,,,,,,,,,,,,,,,,,,,,,,,,,,,,,,,,,,,,,,,,,,,,,,,,,,,,,,,,,,,,,,,,,,,,,,,,,,,,,,,,,,,,,,,,,,,,,,,,,,,,,,,,,,,,,,,,,,,,,,,,,,,,,,
,,67700724f07c694ad429287a,2026-03-17_14h14.00.264,kallum_motion_pilot_GIST_update_2,2026.1.1,Win32,60.24096386,67700724f07c694ad429287a,69b95efdef24cd8a694e89ee,69b96159d85520ac69b5559e,0.041,0.041,1,48,210,154,1,sixfive,,,,,,,,,,,,,,,,,,,,,,,,,,,,,,,,,,,,,,,,,,,,,,,,,,,,,,,,,,,,,,,,,,,,,,,,,,,,,,,,,,,,,,,,,,,,,,,,,,,,,,,,,,,,,,,,,,,,,,,,,,,,,,,,,,,,,,,,,
,,67700724f07c694ad429287a,2026-03-17_14h14.00.264,kallum_motion_pilot_GIST_update_2,2026.1.1,Win32,60.24096386,67700724f07c694ad429287a,69b95efdef24cd8a694e89ee,69b96159d85520ac69b5559e,0.0412,0.0412,1,49,211,0,1,onetwo,,,,,,,,,,,,,,,,,,,,,,,,,,,,,,,,,,,,,,,,,,,,,,,,,,,,,,,,,,,,,,,,,,,,,,,,,,,,,,,,,,,,,,,,,,,,,,,,,,,,,,,,,,,,,,,,,,,,,,,,,,,,,,,,,,,,,,,,,
,,67700724f07c694ad429287a,2026-03-17_14h14.00.264,kallum_motion_pilot_GIST_update_2,2026.1.1,Win32,60.24096386,67700724f07c694ad429287a,69b95efdef24cd8a694e89ee,69b96159d85520ac69b5559e,0.0413,0.0413,1,50,212,145,1,fiveseven,,,,,,,,,,,,,,,,,,,,,,,,,,,,,,,,,,,,,,,,,,,,,,,,,,,,,,,,,,,,,,,,,,,,,,,,,,,,,,,,,,,,,,,,,,,,,,,,,,,,,,,,,,,,,,,,,,,,,,,,,,,,,,,,,,,,,,,,,
,,67700724f07c694ad429287a,2026-03-17_14h14.00.264,kallum_motion_pilot_GIST_update_2,2026.1.1,Win32,60.24096386,67700724f07c694ad429287a,69b95efdef24cd8a694e89ee,69b96159d85520ac69b5559e,0.0414,0.0414,1,51,213,98,1,sixfive,,,,,,,,,,,,,,,,,,,,,,,,,,,,,,,,,,,,,,,,,,,,,,,,,,,,,,,,,,,,,,,,,,,,,,,,,,,,,,,,,,,,,,,,,,,,,,,,,,,,,,,,,,,,,,,,,,,,,,,,,,,,,,,,,,,,,,,,,
,,67700724f07c694ad429287a,2026-03-17_14h14.00.264,kallum_motion_pilot_GIST_update_2,2026.1.1,Win32,60.24096386,67700724f07c694ad429287a,69b95efdef24cd8a694e89ee,69b96159d85520ac69b5559e,0.0415,0.0415,1,52,214,5,1,threefour,,,,,,,,,,,,,,,,,,,,,,,,,,,,,,,,,,,,,,,,,,,,,,,,,,,,,,,,,,,,,,,,,,,,,,,,,,,,,,,,,,,,,,,,,,,,,,,,,,,,,,,,,,,,,,,,,,,,,,,,,,,,,,,,,,,,,,,,,
,,67700724f07c694ad429287a,2026-03-17_14h14.00.264,kallum_motion_pilot_GIST_update_2,2026.1.1,Win32,60.24096386,67700724f07c694ad429287a,69b95efdef24cd8a694e89ee,69b96159d85520ac69b5559e,0.0416,0.0416,1,53,215,26,1,twoone,,,,,,,,,,,,,,,,,,,,,,,,,,,,,,,,,,,,,,,,,,,,,,,,,,,,,,,,,,,,,,,,,,,,,,,,,,,,,,,,,,,,,,,,,,,,,,,,,,,,,,,,,,,,,,,,,,,,,,,,,,,,,,,,,,,,,,,,,
,,67700724f07c694ad429287a,2026-03-17_14h14.00.264,kallum_motion_pilot_GIST_update_2,2026.1.1,Win32,60.24096386,67700724f07c694ad429287a,69b95efdef24cd8a694e89ee,69b96159d85520ac69b5559e,0.0418,0.0418,1,54,216,20,1,threeone,,,,,,,,,,,,,,,,,,,,,,,,,,,,,,,,,,,,,,,,,,,,,,,,,,,,,,,,,,,,,,,,,,,,,,,,,,,,,,,,,,,,,,,,,,,,,,,,,,,,,,,,,,,,,,,,,,,,,,,,,,,,,,,,,,,,,,,,,
,,67700724f07c694ad429287a,2026-03-17_14h14.00.264,kallum_motion_pilot_GIST_update_2,2026.1.1,Win32,60.24096386,67700724f07c694ad429287a,69b95efdef24cd8a694e89ee,69b96159d85520ac69b5559e,0.0418,0.0418,1,55,217,54,1,fourtwo,,,,,,,,,,,,,,,,,,,,,,,,,,,,,,,,,,,,,,,,,,,,,,,,,,,,,,,,,,,,,,,,,,,,,,,,,,,,,,,,,,,,,,,,,,,,,,,,,,,,,,,,,,,,,,,,,,,,,,,,,,,,,,,,,,,,,,,,,
,,67700724f07c694ad429287a,2026-03-17_14h14.00.264,kallum_motion_pilot_GIST_update_2,2026.1.1,Win32,60.24096386,67700724f07c694ad429287a,69b95efdef24cd8a694e89ee,69b96159d85520ac69b5559e,0.0419,0.0419,1,56,218,92,1,sevenfive,,,,,,,,,,,,,,,,,,,,,,,,,,,,,,,,,,,,,,,,,,,,,,,,,,,,,,,,,,,,,,,,,,,,,,,,,,,,,,,,,,,,,,,,,,,,,,,,,,,,,,,,,,,,,,,,,,,,,,,,,,,,,,,,,,,,,,,,,
,,67700724f07c694ad429287a,2026-03-17_14h14.00.264,kallum_motion_pilot_GIST_update_2,2026.1.1,Win32,60.24096386,67700724f07c694ad429287a,69b95efdef24cd8a694e89ee,69b96159d85520ac69b5559e,0.0421,0.0421,1,57,219,134,1,eightsix,,,,,,,,,,,,,,,,,,,,,,,,,,,,,,,,,,,,,,,,,,,,,,,,,,,,,,,,,,,,,,,,,,,,,,,,,,,,,,,,,,,,,,,,,,,,,,,,,,,,,,,,,,,,,,,,,,,,,,,,,,,,,,,,,,,,,,,,,
,,67700724f07c694ad429287a,2026-03-17_14h14.00.264,kallum_motion_pilot_GIST_update_2,2026.1.1,Win32,60.24096386,67700724f07c694ad429287a,69b95efdef24cd8a694e89ee,69b96159d85520ac69b5559e,0.0421,0.0422,1,58,220,67,1,twofour,,,,,,,,,,,,,,,,,,,,,,,,,,,,,,,,,,,,,,,,,,,,,,,,,,,,,,,,,,,,,,,,,,,,,,,,,,,,,,,,,,,,,,,,,,,,,,,,,,,,,,,,,,,,,,,,,,,,,,,,,,,,,,,,,,,,,,,,,
,,67700724f07c694ad429287a,2026-03-17_14h14.00.264,kallum_motion_pilot_GIST_update_2,2026.1.1,Win32,60.24096386,67700724f07c694ad429287a,69b95efdef24cd8a694e89ee,69b96159d85520ac69b5559e,0.0422,0.0423,1,59,221,47,1,fourthree,,,,,,,,,,,,,,,,,,,,,,,,,,,,,,,,,,,,,,,,,,,,,,,,,,,,,,,,,,,,,,,,,,,,,,,,,,,,,,,,,,,,,,,,,,,,,,,,,,,,,,,,,,,,,,,,,,,,,,,,,,,,,,,,,,,,,,,,,
,,67700724f07c694ad429287a,2026-03-17_14h14.00.264,kallum_motion_pilot_GIST_update_2,2026.1.1,Win32,60.24096386,67700724f07c694ad429287a,69b95efdef24cd8a694e89ee,69b96159d85520ac69b5559e,0.0424,0.0424,1,60,222,107,1,sixeight,,,,,,,,,,,,,,,,,,,,,,,,,,,,,,,,,,,,,,,,,,,,,,,,,,,,,,,,,,,,,,,,,,,,,,,,,,,,,,,,,,,,,,,,,,,,,,,,,,,,,,,,,,,,,,,,,,,,,,,,,,,,,,,,,,,,,,,,,
,,67700724f07c694ad429287a,2026-03-17_14h14.00.264,kallum_motion_pilot_GIST_update_2,2026.1.1,Win32,60.24096386,67700724f07c694ad429287a,69b95efdef24cd8a694e89ee,69b96159d85520ac69b5559e,0.0425,0.0425,1,61,223,81,1,fiveseven,,,,,,,,,,,,,,,,,,,,,,,,,,,,,,,,,,,,,,,,,,,,,,,,,,,,,,,,,,,,,,,,,,,,,,,,,,,,,,,,,,,,,,,,,,,,,,,,,,,,,,,,,,,,,,,,,,,,,,,,,,,,,,,,,,,,,,,,,
,,67700724f07c694ad429287a,2026-03-17_14h14.00.264,kallum_motion_pilot_GIST_update_2,2026.1.1,Win32,60.24096386,67700724f07c694ad429287a,69b95efdef24cd8a694e89ee,69b96159d85520ac69b5559e,0.0426,0.0426,1,62,224,28,1,threeone,,,,,,,,,,,,,,,,,,,,,,,,,,,,,,,,,,,,,,,,,,,,,,,,,,,,,,,,,,,,,,,,,,,,,,,,,,,,,,,,,,,,,,,,,,,,,,,,,,,,,,,,,,,,,,,,,,,,,,,,,,,,,,,,,,,,,,,,,
,,67700724f07c694ad429287a,2026-03-17_14h14.00.264,kallum_motion_pilot_GIST_update_2,2026.1.1,Win32,60.24096386,67700724f07c694ad429287a,69b95efdef24cd8a694e89ee,69b96159d85520ac69b5559e,0.0427,0.0427,1,63,225,45,1,threefour,,,,,,,,,,,,,,,,,,,,,,,,,,,,,,,,,,,,,,,,,,,,,,,,,,,,,,,,,,,,,,,,,,,,,,,,,,,,,,,,,,,,,,,,,,,,,,,,,,,,,,,,,,,,,,,,,,,,,,,,,,,,,,,,,,,,,,,,,
,,67700724f07c694ad429287a,2026-03-17_14h14.00.264,kallum_motion_pilot_GIST_update_2,2026.1.1,Win32,60.24096386,67700724f07c694ad429287a,69b95efdef24cd8a694e89ee,69b96159d85520ac69b5559e,0.0428,0.0428,1,64,226,104,1,fivesix,,,,,,,,,,,,,,,,,,,,,,,,,,,,,,,,,,,,,,,,,,,,,,,,,,,,,,,,,,,,,,,,,,,,,,,,,,,,,,,,,,,,,,,,,,,,,,,,,,,,,,,,,,,,,,,,,,,,,,,,,,,,,,,,,,,,,,,,,
,,67700724f07c694ad429287a,2026-03-17_14h14.00.264,kallum_motion_pilot_GIST_update_2,2026.1.1,Win32,60.24096386,67700724f07c694ad429287a,69b95efdef24cd8a694e89ee,69b96159d85520ac69b5559e,0.0429,0.0429,1,65,227,100,1,sevenfive,,,,,,,,,,,,,,,,,,,,,,,,,,,,,,,,,,,,,,,,,,,,,,,,,,,,,,,,,,,,,,,,,,,,,,,,,,,,,,,,,,,,,,,,,,,,,,,,,,,,,,,,,,,,,,,,,,,,,,,,,,,,,,,,,,,,,,,,,
,,67700724f07c694ad429287a,2026-03-17_14h14.00.264,kallum_motion_pilot_GIST_update_2,2026.1.1,Win32,60.24096386,67700724f07c694ad429287a,69b95efdef24cd8a694e89ee,69b96159d85520ac69b5559e,0.0431,0.0431,1,66,228,19,1,twofour,,,,,,,,,,,,,,,,,,,,,,,,,,,,,,,,,,,,,,,,,,,,,,,,,,,,,,,,,,,,,,,,,,,,,,,,,,,,,,,,,,,,,,,,,,,,,,,,,,,,,,,,,,,,,,,,,,,,,,,,,,,,,,,,,,,,,,,,,
,,67700724f07c694ad429287a,2026-03-17_14h14.00.264,kallum_motion_pilot_GIST_update_2,2026.1.1,Win32,60.24096386,67700724f07c694ad429287a,69b95efdef24cd8a694e89ee,69b96159d85520ac69b5559e,0.0431,0.0431,1,67,229,152,1,fivesix,,,,,,,,,,,,,,,,,,,,,,,,,,,,,,,,,,,,,,,,,,,,,,,,,,,,,,,,,,,,,,,,,,,,,,,,,,,,,,,,,,,,,,,,,,,,,,,,,,,,,,,,,,,,,,,,,,,,,,,,,,,,,,,,,,,,,,,,,
,,67700724f07c694ad429287a,2026-03-17_14h14.00.264,kallum_motion_pilot_GIST_update_2,2026.1.1,Win32,60.24096386,67700724f07c694ad429287a,69b95efdef24cd8a694e89ee,69b96159d85520ac69b5559e,0.0433,0.0433,1,68,230,21,1,threefour,,,,,,,,,,,,,,,,,,,,,,,,,,,,,,,,,,,,,,,,,,,,,,,,,,,,,,,,,,,,,,,,,,,,,,,,,,,,,,,,,,,,,,,,,,,,,,,,,,,,,,,,,,,,,,,,,,,,,,,,,,,,,,,,,,,,,,,,,
,,67700724f07c694ad429287a,2026-03-17_14h14.00.264,kallum_motion_pilot_GIST_update_2,2026.1.1,Win32,60.24096386,67700724f07c694ad429287a,69b95efdef24cd8a694e89ee,69b96159d85520ac69b5559e,0.0433,0.0433,1,69,231,51,1,twofour,,,,,,,,,,,,,,,,,,,,,,,,,,,,,,,,,,,,,,,,,,,,,,,,,,,,,,,,,,,,,,,,,,,,,,,,,,,,,,,,,,,,,,,,,,,,,,,,,,,,,,,,,,,,,,,,,,,,,,,,,,,,,,,,,,,,,,,,,
,,67700724f07c694ad429287a,2026-03-17_14h14.00.264,kallum_motion_pilot_GIST_update_2,2026.1.1,Win32,60.24096386,67700724f07c694ad429287a,69b95efdef24cd8a694e89ee,69b96159d85520ac69b5559e,0.0434,0.0434,1,70,232,144,1,fivesix,,,,,,,,,,,,,,,,,,,,,,,,,,,,,,,,,,,,,,,,,,,,,,,,,,,,,,,,,,,,,,,,,,,,,,,,,,,,,,,,,,,,,,,,,,,,,,,,,,,,,,,,,,,,,,,,,,,,,,,,,,,,,,,,,,,,,,,,,
,,67700724f07c694ad429287a,2026-03-17_14h14.00.264,kallum_motion_pilot_GIST_update_2,2026.1.1,Win32,60.24096386,67700724f07c694ad429287a,69b95efdef24cd8a694e89ee,69b96159d85520ac69b5559e,0.0436,0.0436,1,71,233,76,1,threeone,,,,,,,,,,,,,,,,,,,,,,,,,,,,,,,,,,,,,,,,,,,,,,,,,,,,,,,,,,,,,,,,,,,,,,,,,,,,,,,,,,,,,,,,,,,,,,,,,,,,,,,,,,,,,,,,,,,,,,,,,,,,,,,,,,,,,,,,,
,,67700724f07c694ad429287a,2026-03-17_14h14.00.264,kallum_motion_pilot_GIST_update_2,2026.1.1,Win32,60.24096386,67700724f07c694ad429287a,69b95efdef24cd8a694e89ee,69b96159d85520ac69b5559e,0.0437,0.0437,1,72,234,122,1,sixfive,,,,,,,,,,,,,,,,,,,,,,,,,,,,,,,,,,,,,,,,,,,,,,,,,,,,,,,,,,,,,,,,,,,,,,,,,,,,,,,,,,,,,,,,,,,,,,,,,,,,,,,,,,,,,,,,,,,,,,,,,,,,,,,,,,,,,,,,,
,,67700724f07c694ad429287a,2026-03-17_14h14.00.264,kallum_motion_pilot_GIST_update_2,2026.1.1,Win32,60.24096386,67700724f07c694ad429287a,69b95efdef24cd8a694e89ee,69b96159d85520ac69b5559e,0.0438,0.0438,1,73,235,41,1,onethree,,,,,,,,,,,,,,,,,,,,,,,,,,,,,,,,,,,,,,,,,,,,,,,,,,,,,,,,,,,,,,,,,,,,,,,,,,,,,,,,,,,,,,,,,,,,,,,,,,,,,,,,,,,,,,,,,,,,,,,,,,,,,,,,,,,,,,,,,
,,67700724f07c694ad429287a,2026-03-17_14h14.00.264,kallum_motion_pilot_GIST_update_2,2026.1.1,Win32,60.24096386,67700724f07c694ad429287a,69b95efdef24cd8a694e89ee,69b96159d85520ac69b5559e,0.0439,0.0439,1,74,236,60,1,threeone,,,,,,,,,,,,,,,,,,,,,,,,,,,,,,,,,,,,,,,,,,,,,,,,,,,,,,,,,,,,,,,,,,,,,,,,,,,,,,,,,,,,,,,,,,,,,,,,,,,,,,,,,,,,,,,,,,,,,,,,,,,,,,,,,,,,,,,,,
,,67700724f07c694ad429287a,2026-03-17_14h14.00.264,kallum_motion_pilot_GIST_update_2,2026.1.1,Win32,60.24096386,67700724f07c694ad429287a,69b95efdef24cd8a694e89ee,69b96159d85520ac69b5559e,0.044,0.044,1,75,237,11,1,twofour,,,,,,,,,,,,,,,,,,,,,,,,,,,,,,,,,,,,,,,,,,,,,,,,,,,,,,,,,,,,,,,,,,,,,,,,,,,,,,,,,,,,,,,,,,,,,,,,,,,,,,,,,,,,,,,,,,,,,,,,,,,,,,,,,,,,,,,,,
,,67700724f07c694ad429287a,2026-03-17_14h14.00.264,kallum_motion_pilot_GIST_update_2,2026.1.1,Win32,60.24096386,67700724f07c694ad429287a,69b95efdef24cd8a694e89ee,69b96159d85520ac69b5559e,0.0441,0.0441,1,76,238,53,1,threefour,,,,,,,,,,,,,,,,,,,,,,,,,,,,,,,,,,,,,,,,,,,,,,,,,,,,,,,,,,,,,,,,,,,,,,,,,,,,,,,,,,,,,,,,,,,,,,,,,,,,,,,,,,,,,,,,,,,,,,,,,,,,,,,,,,,,,,,,,
,,67700724f07c694ad429287a,2026-03-17_14h14.00.264,kallum_motion_pilot_GIST_update_2,2026.1.1,Win32,60.24096386,67700724f07c694ad429287a,69b95efdef24cd8a694e89ee,69b96159d85520ac69b5559e,0.0442,0.0443,1,77,239,82,1,sixfive,,,,,,,,,,,,,,,,,,,,,,,,,,,,,,,,,,,,,,,,,,,,,,,,,,,,,,,,,,,,,,,,,,,,,,,,,,,,,,,,,,,,,,,,,,,,,,,,,,,,,,,,,,,,,,,,,,,,,,,,,,,,,,,,,,,,,,,,,
,,67700724f07c694ad429287a,2026-03-17_14h14.00.264,kallum_motion_pilot_GIST_update_2,2026.1.1,Win32,60.24096386,67700724f07c694ad429287a,69b95efdef24cd8a694e89ee,69b96159d85520ac69b5559e,0.0443,0.0443,1,78,240,49,1,onethree,,,,,,,,,,,,,,,,,,,,,,,,,,,,,,,,,,,,,,,,,,,,,,,,,,,,,,,,,,,,,,,,,,,,,,,,,,,,,,,,,,,,,,,,,,,,,,,,,,,,,,,,,,,,,,,,,,,,,,,,,,,,,,,,,,,,,,,,,
,,67700724f07c694ad429287a,2026-03-17_14h14.00.264,kallum_motion_pilot_GIST_update_2,2026.1.1,Win32,60.24096386,67700724f07c694ad429287a,69b95efdef24cd8a694e89ee,69b96159d85520ac69b5559e,0.0445,0.0445,1,79,241,17,1,onethree,,,,,,,,,,,,,,,,,,,,,,,,,,,,,,,,,,,,,,,,,,,,,,,,,,,,,,,,,,,,,,,,,,,,,,,,,,,,,,,,,,,,,,,,,,,,,,,,,,,,,,,,,,,,,,,,,,,,,,,,,,,,,,,,,,,,,,,,,
,,67700724f07c694ad429287a,2026-03-17_14h14.00.264,kallum_motion_pilot_GIST_update_2,2026.1.1,Win32,60.24096386,67700724f07c694ad429287a,69b95efdef24cd8a694e89ee,69b96159d85520ac69b5559e,0.0446,0.0446,1,80,242,117,1,seveneight,,,,,,,,,,,,,,,,,,,,,,,,,,,,,,,,,,,,,,,,,,,,,,,,,,,,,,,,,,,,,,,,,,,,,,,,,,,,,,,,,,,,,,,,,,,,,,,,,,,,,,,,,,,,,,,,,,,,,,,,,,,,,,,,,,,,,,,,,
,,67700724f07c694ad429287a,2026-03-17_14h14.00.264,kallum_motion_pilot_GIST_update_2,2026.1.1,Win32,60.24096386,67700724f07c694ad429287a,69b95efdef24cd8a694e89ee,69b96159d85520ac69b5559e,0.0447,0.0447,1,81,243,155,1,sixeight,,,,,,,,,,,,,,,,,,,,,,,,,,,,,,,,,,,,,,,,,,,,,,,,,,,,,,,,,,,,,,,,,,,,,,,,,,,,,,,,,,,,,,,,,,,,,,,,,,,,,,,,,,,,,,,,,,,,,,,,,,,,,,,,,,,,,,,,,
,,67700724f07c694ad429287a,2026-03-17_14h14.00.264,kallum_motion_pilot_GIST_update_2,2026.1.1,Win32,60.24096386,67700724f07c694ad429287a,69b95efdef24cd8a694e89ee,69b96159d85520ac69b5559e,0.0449,0.0449,1,82,244,138,1,sixfive,,,,,,,,,,,,,,,,,,,,,,,,,,,,,,,,,,,,,,,,,,,,,,,,,,,,,,,,,,,,,,,,,,,,,,,,,,,,,,,,,,,,,,,,,,,,,,,,,,,,,,,,,,,,,,,,,,,,,,,,,,,,,,,,,,,,,,,,,
,,67700724f07c694ad429287a,2026-03-17_14h14.00.264,kallum_motion_pilot_GIST_update_2,2026.1.1,Win32,60.24096386,67700724f07c694ad429287a,69b95efdef24cd8a694e89ee,69b96159d85520ac69b5559e,0.0449,0.0449,1,83,245,115,1,sixeight,,,,,,,,,,,,,,,,,,,,,,,,,,,,,,,,,,,,,,,,,,,,,,,,,,,,,,,,,,,,,,,,,,,,,,,,,,,,,,,,,,,,,,,,,,,,,,,,,,,,,,,,,,,,,,,,,,,,,,,,,,,,,,,,,,,,,,,,,
,,67700724f07c694ad429287a,2026-03-17_14h14.00.264,kallum_motion_pilot_GIST_update_2,2026.1.1,Win32,60.24096386,67700724f07c694ad429287a,69b95efdef24cd8a694e89ee,69b96159d85520ac69b5559e,0.0451,0.0451,1,84,246,84,1,sevenfive,,,,,,,,,,,,,,,,,,,,,,,,,,,,,,,,,,,,,,,,,,,,,,,,,,,,,,,,,,,,,,,,,,,,,,,,,,,,,,,,,,,,,,,,,,,,,,,,,,,,,,,,,,,,,,,,,,,,,,,,,,,,,,,,,,,,,,,,,
,,67700724f07c694ad429287a,2026-03-17_14h14.00.264,kallum_motion_pilot_GIST_update_2,2026.1.1,Win32,60.24096386,67700724f07c694ad429287a,69b95efdef24cd8a694e89ee,69b96159d85520ac69b5559e,0.0452,0.0452,1,85,247,96,1,fivesix,,,,,,,,,,,,,,,,,,,,,,,,,,,,,,,,,,,,,,,,,,,,,,,,,,,,,,,,,,,,,,,,,,,,,,,,,,,,,,,,,,,,,,,,,,,,,,,,,,,,,,,,,,,,,,,,,,,,,,,,,,,,,,,,,,,,,,,,,
,,67700724f07c694ad429287a,2026-03-17_14h14.00.264,kallum_motion_pilot_GIST_update_2,2026.1.1,Win32,60.24096386,67700724f07c694ad429287a,69b95efdef24cd8a694e89ee,69b96159d85520ac69b5559e,0.0453,0.0453,1,86,248,119,1,eightseven,,,,,,,,,,,,,,,,,,,,,,,,,,,,,,,,,,,,,,,,,,,,,,,,,,,,,,,,,,,,,,,,,,,,,,,,,,,,,,,,,,,,,,,,,,,,,,,,,,,,,,,,,,,,,,,,,,,,,,,,,,,,,,,,,,,,,,,,,
,,67700724f07c694ad429287a,2026-03-17_14h14.00.264,kallum_motion_pilot_GIST_update_2,2026.1.1,Win32,60.24096386,67700724f07c694ad429287a,69b95efdef24cd8a694e89ee,69b96159d85520ac69b5559e,0.0454,0.0454,1,87,249,15,1,fourthree,,,,,,,,,,,,,,,,,,,,,,,,,,,,,,,,,,,,,,,,,,,,,,,,,,,,,,,,,,,,,,,,,,,,,,,,,,,,,,,,,,,,,,,,,,,,,,,,,,,,,,,,,,,,,,,,,,,,,,,,,,,,,,,,,,,,,,,,,
,,67700724f07c694ad429287a,2026-03-17_14h14.00.264,kallum_motion_pilot_GIST_update_2,2026.1.1,Win32,60.24096386,67700724f07c694ad429287a,69b95efdef24cd8a694e89ee,69b96159d85520ac69b5559e,0.0455,0.0456,1,88,250,120,1,fivesix,,,,,,,,,,,,,,,,,,,,,,,,,,,,,,,,,,,,,,,,,,,,,,,,,,,,,,,,,,,,,,,,,,,,,,,,,,,,,,,,,,,,,,,,,,,,,,,,,,,,,,,,,,,,,,,,,,,,,,,,,,,,,,,,,,,,,,,,,
,,67700724f07c694ad429287a,2026-03-17_14h14.00.264,kallum_motion_pilot_GIST_update_2,2026.1.1,Win32,60.24096386,67700724f07c694ad429287a,69b95efdef24cd8a694e89ee,69b96159d85520ac69b5559e,0.0458,0.0458,1,89,251,40,1,onetwo,,,,,,,,,,,,,,,,,,,,,,,,,,,,,,,,,,,,,,,,,,,,,,,,,,,,,,,,,,,,,,,,,,,,,,,,,,,,,,,,,,,,,,,,,,,,,,,,,,,,,,,,,,,,,,,,,,,,,,,,,,,,,,,,,,,,,,,,,
,,67700724f07c694ad429287a,2026-03-17_14h14.00.264,kallum_motion_pilot_GIST_update_2,2026.1.1,Win32,60.24096386,67700724f07c694ad429287a,69b95efdef24cd8a694e89ee,69b96159d85520ac69b5559e,0.0459,0.0459,1,90,252,140,1,sevenfive,,,,,,,,,,,,,,,,,,,,,,,,,,,,,,,,,,,,,,,,,,,,,,,,,,,,,,,,,,,,,,,,,,,,,,,,,,,,,,,,,,,,,,,,,,,,,,,,,,,,,,,,,,,,,,,,,,,,,,,,,,,,,,,,,,,,,,,,,
,,67700724f07c694ad429287a,2026-03-17_14h14.00.264,kallum_motion_pilot_GIST_update_2,2026.1.1,Win32,60.24096386,67700724f07c694ad429287a,69b95efdef24cd8a694e89ee,69b96159d85520ac69b5559e,0.046,0.046,1,91,253,157,1,seveneight,,,,,,,,,,,,,,,,,,,,,,,,,,,,,,,,,,,,,,,,,,,,,,,,,,,,,,,,,,,,,,,,,,,,,,,,,,,,,,,,,,,,,,,,,,,,,,,,,,,,,,,,,,,,,,,,,,,,,,,,,,,,,,,,,,,,,,,,,
,,67700724f07c694ad429287a,2026-03-17_14h14.00.264,kallum_motion_pilot_GIST_update_2,2026.1.1,Win32,60.24096386,67700724f07c694ad429287a,69b95efdef24cd8a694e89ee,69b96159d85520ac69b5559e,0.0462,0.0462,1,92,254,139,1,sixeight,,,,,,,,,,,,,,,,,,,,,,,,,,,,,,,,,,,,,,,,,,,,,,,,,,,,,,,,,,,,,,,,,,,,,,,,,,,,,,,,,,,,,,,,,,,,,,,,,,,,,,,,,,,,,,,,,,,,,,,,,,,,,,,,,,,,,,,,,
,,67700724f07c694ad429287a,2026-03-17_14h14.00.264,kallum_motion_pilot_GIST_update_2,2026.1.1,Win32,60.24096386,67700724f07c694ad429287a,69b95efdef24cd8a694e89ee,69b96159d85520ac69b5559e,0.0465,0.0465,1,93,255,44,1,threeone,,,,,,,,,,,,,,,,,,,,,,,,,,,,,,,,,,,,,,,,,,,,,,,,,,,,,,,,,,,,,,,,,,,,,,,,,,,,,,,,,,,,,,,,,,,,,,,,,,,,,,,,,,,,,,,,,,,,,,,,,,,,,,,,,,,,,,,,,
,,67700724f07c694ad429287a,2026-03-17_14h14.00.264,kallum_motion_pilot_GIST_update_2,2026.1.1,Win32,60.24096386,67700724f07c694ad429287a,69b95efdef24cd8a694e89ee,69b96159d85520ac69b5559e,0.0466,0.0466,1,94,256,109,1,seveneight,,,,,,,,,,,,,,,,,,,,,,,,,,,,,,,,,,,,,,,,,,,,,,,,,,,,,,,,,,,,,,,,,,,,,,,,,,,,,,,,,,,,,,,,,,,,,,,,,,,,,,,,,,,,,,,,,,,,,,,,,,,,,,,,,,,,,,,,,
,,67700724f07c694ad429287a,2026-03-17_14h14.00.264,kallum_motion_pilot_GIST_update_2,2026.1.1,Win32,60.24096386,67700724f07c694ad429287a,69b95efdef24cd8a694e89ee,69b96159d85520ac69b5559e,0.0467,0.0467,1,95,257,85,1,seveneight,,,,,,,,,,,,,,,,,,,,,,,,,,,,,,,,,,,,,,,,,,,,,,,,,,,,,,,,,,,,,,,,,,,,,,,,,,,,,,,,,,,,,,,,,,,,,,,,,,,,,,,,,,,,,,,,,,,,,,,,,,,,,,,,,,,,,,,,,
,,67700724f07c694ad429287a,2026-03-17_14h14.00.264,kallum_motion_pilot_GIST_update_2,2026.1.1,Win32,60.24096386,67700724f07c694ad429287a,69b95efdef24cd8a694e89ee,69b96159d85520ac69b5559e,0.0469,0.0469,1,96,258,27,1,twofour,,,,,,,,,,,,,,,,,,,,,,,,,,,,,,,,,,,,,,,,,,,,,,,,,,,,,,,,,,,,,,,,,,,,,,,,,,,,,,,,,,,,,,,,,,,,,,,,,,,,,,,,,,,,,,,,,,,,,,,,,,,,,,,,,,,,,,,,,
,,67700724f07c694ad429287a,2026-03-17_14h14.00.264,kallum_motion_pilot_GIST_update_2,2026.1.1,Win32,60.24096386,67700724f07c694ad429287a,69b95efdef24cd8a694e89ee,69b96159d85520ac69b5559e,0.047,0.047,1,97,259,42,1,twoone,,,,,,,,,,,,,,,,,,,,,,,,,,,,,,,,,,,,,,,,,,,,,,,,,,,,,,,,,,,,,,,,,,,,,,,,,,,,,,,,,,,,,,,,,,,,,,,,,,,,,,,,,,,,,,,,,,,,,,,,,,,,,,,,,,,,,,,,,
,,67700724f07c694ad429287a,2026-03-17_14h14.00.264,kallum_motion_pilot_GIST_update_2,2026.1.1,Win32,60.24096386,67700724f07c694ad429287a,69b95efdef24cd8a694e89ee,69b96159d85520ac69b5559e,0.0471,0.0471,1,98,260,50,1,twoone,,,,,,,,,,,,,,,,,,,,,,,,,,,,,,,,,,,,,,,,,,,,,,,,,,,,,,,,,,,,,,,,,,,,,,,,,,,,,,,,,,,,,,,,,,,,,,,,,,,,,,,,,,,,,,,,,,,,,,,,,,,,,,,,,,,,,,,,,
,,67700724f07c694ad429287a,2026-03-17_14h14.00.264,kallum_motion_pilot_GIST_update_2,2026.1.1,Win32,60.24096386,67700724f07c694ad429287a,69b95efdef24cd8a694e89ee,69b96159d85520ac69b5559e,0.0473,0.0473,1,99,261,3,1,twofour,,,,,,,,,,,,,,,,,,,,,,,,,,,,,,,,,,,,,,,,,,,,,,,,,,,,,,,,,,,,,,,,,,,,,,,,,,,,,,,,,,,,,,,,,,,,,,,,,,,,,,,,,,,,,,,,,,,,,,,,,,,,,,,,,,,,,,,,,
,,67700724f07c694ad429287a,2026-03-17_14h14.00.264,kallum_motion_pilot_GIST_update_2,2026.1.1,Win32,60.24096386,67700724f07c694ad429287a,69b95efdef24cd8a694e89ee,69b96159d85520ac69b5559e,0.0474,0.0474,1,100,262,129,1,fiveseven,,,,,,,,,,,,,,,,,,,,,,,,,,,,,,,,,,,,,,,,,,,,,,,,,,,,,,,,,,,,,,,,,,,,,,,,,,,,,,,,,,,,,,,,,,,,,,,,,,,,,,,,,,,,,,,,,,,,,,,,,,,,,,,,,,,,,,,,,
,,67700724f07c694ad429287a,2026-03-17_14h14.00.264,kallum_motion_pilot_GIST_update_2,2026.1.1,Win32,60.24096386,67700724f07c694ad429287a,69b95efdef24cd8a694e89ee,69b96159d85520ac69b5559e,0.0475,0.0475,1,101,263,65,1,onethree,,,,,,,,,,,,,,,,,,,,,,,,,,,,,,,,,,,,,,,,,,,,,,,,,,,,,,,,,,,,,,,,,,,,,,,,,,,,,,,,,,,,,,,,,,,,,,,,,,,,,,,,,,,,,,,,,,,,,,,,,,,,,,,,,,,,,,,,,
,,67700724f07c694ad429287a,2026-03-17_14h14.00.264,kallum_motion_pilot_GIST_update_2,2026.1.1,Win32,60.24096386,67700724f07c694ad429287a,69b95efdef24cd8a694e89ee,69b96159d85520ac69b5559e,0.0477,0.0477,1,102,264,4,1,threeone,,,,,,,,,,,,,,,,,,,,,,,,,,,,,,,,,,,,,,,,,,,,,,,,,,,,,,,,,,,,,,,,,,,,,,,,,,,,,,,,,,,,,,,,,,,,,,,,,,,,,,,,,,,,,,,,,,,,,,,,,,,,,,,,,,,,,,,,,
,,67700724f07c694ad429287a,2026-03-17_14h14.00.264,kallum_motion_pilot_GIST_update_2,2026.1.1,Win32,60.24096386,67700724f07c694ad429287a,69b95efdef24cd8a694e89ee,69b96159d85520ac69b5559e,0.0478,0.0478,1,103,265,66,1,twoone,,,,,,,,,,,,,,,,,,,,,,,,,,,,,,,,,,,,,,,,,,,,,,,,,,,,,,,,,,,,,,,,,,,,,,,,,,,,,,,,,,,,,,,,,,,,,,,,,,,,,,,,,,,,,,,,,,,,,,,,,,,,,,,,,,,,,,,,,
,,67700724f07c694ad429287a,2026-03-17_14h14.00.264,kallum_motion_pilot_GIST_update_2,2026.1.1,Win32,60.24096386,67700724f07c694ad429287a,69b95efdef24cd8a694e89ee,69b96159d85520ac69b5559e,0.0479,0.0479,1,104,266,12,1,threeone,,,,,,,,,,,,,,,,,,,,,,,,,,,,,,,,,,,,,,,,,,,,,,,,,,,,,,,,,,,,,,,,,,,,,,,,,,,,,,,,,,,,,,,,,,,,,,,,,,,,,,,,,,,,,,,,,,,,,,,,,,,,,,,,,,,,,,,,,
