startup.started,startup.stopped,Prolific ID*,date,expName,psychopyVersion,OS,frameRate,participant,study_id,session,stimpositions.started,stimpositions.stopped,hardcoded_stimulus_positions.thisRepN,hardcoded_stimulus_positions.thisTrialN,hardcoded_stimulus_positions.thisN,hardcoded_stimulus_positions.thisIndex,hardcoded_stimulus_positions.ran,StimulusPos,stimorientation.started,stimorientation.stopped,prac_stimorientation_import_loop.thisRepN,prac_stimorientation_import_loop.thisTrialN,prac_stimorientation_import_loop.thisN,prac_stimorientation_import_loop.thisIndex,prac_stimorientation_import_loop.ran,Stimorientation,welcome_instr.started,welcome_instr.stopped,key_resp.keys,key_resp.rt,key_resp.duration,response_steppedout_1.started,response_steppedout_1.stopped,key_resp_20.keys,key_resp_20.rt,key_resp_20.duration,response_steppedout_2.started,response_steppedout_2.stopped,key_resp_19.keys,key_resp_19.rt,key_resp_19.duration,stim_response_instr.started,stim_response_instr.stopped,key_resp_15.keys,key_resp_15.rt,key_resp_15.duration,direction_instr_2.started,direction_instr_2.stopped,key_resp_9.keys,key_resp_9.rt,key_resp_9.duration,instr_prac.started,instr_prac.stopped,key_resp_10.keys,key_resp_10.rt,key_resp_10.duration,Stim1_display_prac.started,Stim1_display_prac.stopped,Ecc,Circle1_ori,Circle2_ori,response_prac.started,similarity,response_time,response_prac.stopped,mouse_5.x,mouse_5.y,mouse_5.leftButton,mouse_5.midButton,mouse_5.rightButton,mouse_5.clicked_name,responseprac_feedback.started,responseprac_feedback.stopped,summary2_prac.started,summary2_prac.stopped,mouse_6.x,mouse_6.y,mouse_6.leftButton,mouse_6.midButton,mouse_6.rightButton,mouse_6.clicked_name,duringprac.thisRepN,duringprac.thisTrialN,duringprac.thisN,duringprac.thisIndex,duringprac.ran,begin.started,begin.stopped,key_resp_22.keys,key_resp_22.rt,key_resp_22.duration,Stim1_display.started,Stim1_display.stopped,circle1_ori,circle2_ori,circle1_SF,circle2_SF,response.started,response.stopped,mouse.x,mouse.y,mouse.leftButton,mouse.midButton,mouse.rightButton,mouse.clicked_name,trialnumber,double_pass.thisRepN,double_pass.thisTrialN,double_pass.thisN,double_pass.thisIndex,double_pass.ran,double_pass.order,main_trial.thisRepN,main_trial.thisTrialN,main_trial.thisN,main_trial.thisIndex,main_trial.ran,main_trial.order,Trial_Counter,Catch,Frequencies,response_2.started,response_2.stopped,mouse_2.x,mouse_2.y,mouse_2.leftButton,mouse_2.midButton,mouse_2.rightButton,mouse_2.clicked_name,special_trial.started,special_trial.stopped,catch_1.started,catch_1.stopped,mouse_3.x,mouse_3.y,mouse_3.leftButton,mouse_3.midButton,mouse_3.rightButton,catchresponse,catchnumber,response_time_catch,response_sum.started,response_sum.stopped,mouse_11.x,mouse_11.y,mouse_11.leftButton,mouse_11.midButton,mouse_11.rightButton,flip_presentation_sequence_for_double_pass.started,flip_presentation_sequence_for_double_pass.stopped,goodbye.started,goodbye.stopped,key_resp_3.keys,key_resp_3.rt,key_resp_3.duration
0,0,6773e0c2bb0187b6ecc2c835,2026-03-17_10h22.17.455,kallum_motion_pilot_GIST_update_2,2026.1.1,Win32,60.0240096,6773e0c2bb0187b6ecc2c835,69b92ab4aef6dee357cd729a,69b92b4fc2e49c3fcd4a30e9,,,,,,,,,,,,,,,,,,,,,,,,,,,,,,,,,,,,,,,,,,,,,,,,,,,,,,,,,,,,,,,,,,,,,,,,,,,,,,,,,,,,,,,,,,,,,,,,,,,,,,,,,,,,,,,,,,,,,,,,,,,,,,,,,,,,,,,,,,,,,,,,,
,,6773e0c2bb0187b6ecc2c835,2026-03-17_10h22.17.455,kallum_motion_pilot_GIST_update_2,2026.1.1,Win32,60.0240096,6773e0c2bb0187b6ecc2c835,69b92ab4aef6dee357cd729a,69b92b4fc2e49c3fcd4a30e9,0.011,0.011,0,0,0,122,1,sixfive,,,,,,,,,,,,,,,,,,,,,,,,,,,,,,,,,,,,,,,,,,,,,,,,,,,,,,,,,,,,,,,,,,,,,,,,,,,,,,,,,,,,,,,,,,,,,,,,,,,,,,,,,,,,,,,,,,,,,,,,,,,,,,,,,,,,,,,,,
,,6773e0c2bb0187b6ecc2c835,2026-03-17_10h22.17.455,kallum_motion_pilot_GIST_update_2,2026.1.1,Win32,60.0240096,6773e0c2bb0187b6ecc2c835,69b92ab4aef6dee357cd729a,69b92b4fc2e49c3fcd4a30e9,0.011,0.011,0,1,1,144,1,fivesix,,,,,,,,,,,,,,,,,,,,,,,,,,,,,,,,,,,,,,,,,,,,,,,,,,,,,,,,,,,,,,,,,,,,,,,,,,,,,,,,,,,,,,,,,,,,,,,,,,,,,,,,,,,,,,,,,,,,,,,,,,,,,,,,,,,,,,,,,
,,6773e0c2bb0187b6ecc2c835,2026-03-17_10h22.17.455,kallum_motion_pilot_GIST_update_2,2026.1.1,Win32,60.0240096,6773e0c2bb0187b6ecc2c835,69b92ab4aef6dee357cd729a,69b92b4fc2e49c3fcd4a30e9,0.011,0.011,0,2,2,75,1,twofour,,,,,,,,,,,,,,,,,,,,,,,,,,,,,,,,,,,,,,,,,,,,,,,,,,,,,,,,,,,,,,,,,,,,,,,,,,,,,,,,,,,,,,,,,,,,,,,,,,,,,,,,,,,,,,,,,,,,,,,,,,,,,,,,,,,,,,,,,
,,6773e0c2bb0187b6ecc2c835,2026-03-17_10h22.17.455,kallum_motion_pilot_GIST_update_2,2026.1.1,Win32,60.0240096,6773e0c2bb0187b6ecc2c835,69b92ab4aef6dee357cd729a,69b92b4fc2e49c3fcd4a30e9,0.011,0.011,0,3,3,93,1,seveneight,,,,,,,,,,,,,,,,,,,,,,,,,,,,,,,,,,,,,,,,,,,,,,,,,,,,,,,,,,,,,,,,,,,,,,,,,,,,,,,,,,,,,,,,,,,,,,,,,,,,,,,,,,,,,,,,,,,,,,,,,,,,,,,,,,,,,,,,,
,,6773e0c2bb0187b6ecc2c835,2026-03-17_10h22.17.455,kallum_motion_pilot_GIST_update_2,2026.1.1,Win32,60.0240096,6773e0c2bb0187b6ecc2c835,69b92ab4aef6dee357cd729a,69b92b4fc2e49c3fcd4a30e9,0.011,0.011,0,4,4,134,1,eightsix,,,,,,,,,,,,,,,,,,,,,,,,,,,,,,,,,,,,,,,,,,,,,,,,,,,,,,,,,,,,,,,,,,,,,,,,,,,,,,,,,,,,,,,,,,,,,,,,,,,,,,,,,,,,,,,,,,,,,,,,,,,,,,,,,,,,,,,,,
,,6773e0c2bb0187b6ecc2c835,2026-03-17_10h22.17.455,kallum_motion_pilot_GIST_update_2,2026.1.1,Win32,60.0240096,6773e0c2bb0187b6ecc2c835,69b92ab4aef6dee357cd729a,69b92b4fc2e49c3fcd4a30e9,0.011,0.011,0,5,5,129,1,fiveseven,,,,,,,,,,,,,,,,,,,,,,,,,,,,,,,,,,,,,,,,,,,,,,,,,,,,,,,,,,,,,,,,,,,,,,,,,,,,,,,,,,,,,,,,,,,,,,,,,,,,,,,,,,,,,,,,,,,,,,,,,,,,,,,,,,,,,,,,,
,,6773e0c2bb0187b6ecc2c835,2026-03-17_10h22.17.455,kallum_motion_pilot_GIST_update_2,2026.1.1,Win32,60.0240096,6773e0c2bb0187b6ecc2c835,69b92ab4aef6dee357cd729a,69b92b4fc2e49c3fcd4a30e9,0.011,0.011,0,6,6,76,1,threeone,,,,,,,,,,,,,,,,,,,,,,,,,,,,,,,,,,,,,,,,,,,,,,,,,,,,,,,,,,,,,,,,,,,,,,,,,,,,,,,,,,,,,,,,,,,,,,,,,,,,,,,,,,,,,,,,,,,,,,,,,,,,,,,,,,,,,,,,,
,,6773e0c2bb0187b6ecc2c835,2026-03-17_10h22.17.455,kallum_motion_pilot_GIST_update_2,2026.1.1,Win32,60.0240096,6773e0c2bb0187b6ecc2c835,69b92ab4aef6dee357cd729a,69b92b4fc2e49c3fcd4a30e9,0.011,0.011,0,7,7,152,1,fivesix,,,,,,,,,,,,,,,,,,,,,,,,,,,,,,,,,,,,,,,,,,,,,,,,,,,,,,,,,,,,,,,,,,,,,,,,,,,,,,,,,,,,,,,,,,,,,,,,,,,,,,,,,,,,,,,,,,,,,,,,,,,,,,,,,,,,,,,,,
,,6773e0c2bb0187b6ecc2c835,2026-03-17_10h22.17.455,kallum_motion_pilot_GIST_update_2,2026.1.1,Win32,60.0240096,6773e0c2bb0187b6ecc2c835,69b92ab4aef6dee357cd729a,69b92b4fc2e49c3fcd4a30e9,0.011,0.011,0,8,8,104,1,fivesix,,,,,,,,,,,,,,,,,,,,,,,,,,,,,,,,,,,,,,,,,,,,,,,,,,,,,,,,,,,,,,,,,,,,,,,,,,,,,,,,,,,,,,,,,,,,,,,,,,,,,,,,,,,,,,,,,,,,,,,,,,,,,,,,,,,,,,,,,
,,6773e0c2bb0187b6ecc2c835,2026-03-17_10h22.17.455,kallum_motion_pilot_GIST_update_2,2026.1.1,Win32,60.0240096,6773e0c2bb0187b6ecc2c835,69b92ab4aef6dee357cd729a,69b92b4fc2e49c3fcd4a30e9,0.011,0.011,0,9,9,149,1,seveneight,,,,,,,,,,,,,,,,,,,,,,,,,,,,,,,,,,,,,,,,,,,,,,,,,,,,,,,,,,,,,,,,,,,,,,,,,,,,,,,,,,,,,,,,,,,,,,,,,,,,,,,,,,,,,,,,,,,,,,,,,,,,,,,,,,,,,,,,,
,,6773e0c2bb0187b6ecc2c835,2026-03-17_10h22.17.455,kallum_motion_pilot_GIST_update_2,2026.1.1,Win32,60.0240096,6773e0c2bb0187b6ecc2c835,69b92ab4aef6dee357cd729a,69b92b4fc2e49c3fcd4a30e9,0.011,0.011,0,10,10,19,1,twofour,,,,,,,,,,,,,,,,,,,,,,,,,,,,,,,,,,,,,,,,,,,,,,,,,,,,,,,,,,,,,,,,,,,,,,,,,,,,,,,,,,,,,,,,,,,,,,,,,,,,,,,,,,,,,,,,,,,,,,,,,,,,,,,,,,,,,,,,,
,,6773e0c2bb0187b6ecc2c835,2026-03-17_10h22.17.455,kallum_motion_pilot_GIST_update_2,2026.1.1,Win32,60.0240096,6773e0c2bb0187b6ecc2c835,69b92ab4aef6dee357cd729a,69b92b4fc2e49c3fcd4a30e9,0.011,0.011,0,11,11,57,1,onethree,,,,,,,,,,,,,,,,,,,,,,,,,,,,,,,,,,,,,,,,,,,,,,,,,,,,,,,,,,,,,,,,,,,,,,,,,,,,,,,,,,,,,,,,,,,,,,,,,,,,,,,,,,,,,,,,,,,,,,,,,,,,,,,,,,,,,,,,,
,,6773e0c2bb0187b6ecc2c835,2026-03-17_10h22.17.455,kallum_motion_pilot_GIST_update_2,2026.1.1,Win32,60.0240096,6773e0c2bb0187b6ecc2c835,69b92ab4aef6dee357cd729a,69b92b4fc2e49c3fcd4a30e9,0.011,0.011,0,12,12,8,1,onetwo,,,,,,,,,,,,,,,,,,,,,,,,,,,,,,,,,,,,,,,,,,,,,,,,,,,,,,,,,,,,,,,,,,,,,,,,,,,,,,,,,,,,,,,,,,,,,,,,,,,,,,,,,,,,,,,,,,,,,,,,,,,,,,,,,,,,,,,,,
,,6773e0c2bb0187b6ecc2c835,2026-03-17_10h22.17.455,kallum_motion_pilot_GIST_update_2,2026.1.1,Win32,60.0240096,6773e0c2bb0187b6ecc2c835,69b92ab4aef6dee357cd729a,69b92b4fc2e49c3fcd4a30e9,0.011,0.011,0,13,13,63,1,fourthree,,,,,,,,,,,,,,,,,,,,,,,,,,,,,,,,,,,,,,,,,,,,,,,,,,,,,,,,,,,,,,,,,,,,,,,,,,,,,,,,,,,,,,,,,,,,,,,,,,,,,,,,,,,,,,,,,,,,,,,,,,,,,,,,,,,,,,,,,
,,6773e0c2bb0187b6ecc2c835,2026-03-17_10h22.17.455,kallum_motion_pilot_GIST_update_2,2026.1.1,Win32,60.0240096,6773e0c2bb0187b6ecc2c835,69b92ab4aef6dee357cd729a,69b92b4fc2e49c3fcd4a30e9,0.011,0.011,0,14,14,9,1,onethree,,,,,,,,,,,,,,,,,,,,,,,,,,,,,,,,,,,,,,,,,,,,,,,,,,,,,,,,,,,,,,,,,,,,,,,,,,,,,,,,,,,,,,,,,,,,,,,,,,,,,,,,,,,,,,,,,,,,,,,,,,,,,,,,,,,,,,,,,
,,6773e0c2bb0187b6ecc2c835,2026-03-17_10h22.17.455,kallum_motion_pilot_GIST_update_2,2026.1.1,Win32,60.0240096,6773e0c2bb0187b6ecc2c835,69b92ab4aef6dee357cd729a,69b92b4fc2e49c3fcd4a30e9,0.011,0.011,0,15,15,58,1,twoone,,,,,,,,,,,,,,,,,,,,,,,,,,,,,,,,,,,,,,,,,,,,,,,,,,,,,,,,,,,,,,,,,,,,,,,,,,,,,,,,,,,,,,,,,,,,,,,,,,,,,,,,,,,,,,,,,,,,,,,,,,,,,,,,,,,,,,,,,
,,6773e0c2bb0187b6ecc2c835,2026-03-17_10h22.17.455,kallum_motion_pilot_GIST_update_2,2026.1.1,Win32,60.0240096,6773e0c2bb0187b6ecc2c835,69b92ab4aef6dee357cd729a,69b92b4fc2e49c3fcd4a30e9,0.012,0.012,0,16,16,5,1,threefour,,,,,,,,,,,,,,,,,,,,,,,,,,,,,,,,,,,,,,,,,,,,,,,,,,,,,,,,,,,,,,,,,,,,,,,,,,,,,,,,,,,,,,,,,,,,,,,,,,,,,,,,,,,,,,,,,,,,,,,,,,,,,,,,,,,,,,,,,
,,6773e0c2bb0187b6ecc2c835,2026-03-17_10h22.17.455,kallum_motion_pilot_GIST_update_2,2026.1.1,Win32,60.0240096,6773e0c2bb0187b6ecc2c835,69b92ab4aef6dee357cd729a,69b92b4fc2e49c3fcd4a30e9,0.012,0.012,0,17,17,143,1,eightseven,,,,,,,,,,,,,,,,,,,,,,,,,,,,,,,,,,,,,,,,,,,,,,,,,,,,,,,,,,,,,,,,,,,,,,,,,,,,,,,,,,,,,,,,,,,,,,,,,,,,,,,,,,,,,,,,,,,,,,,,,,,,,,,,,,,,,,,,,
,,6773e0c2bb0187b6ecc2c835,2026-03-17_10h22.17.455,kallum_motion_pilot_GIST_update_2,2026.1.1,Win32,60.0240096,6773e0c2bb0187b6ecc2c835,69b92ab4aef6dee357cd729a,69b92b4fc2e49c3fcd4a30e9,0.012,0.012,0,18,18,106,1,sixfive,,,,,,,,,,,,,,,,,,,,,,,,,,,,,,,,,,,,,,,,,,,,,,,,,,,,,,,,,,,,,,,,,,,,,,,,,,,,,,,,,,,,,,,,,,,,,,,,,,,,,,,,,,,,,,,,,,,,,,,,,,,,,,,,,,,,,,,,,
,,6773e0c2bb0187b6ecc2c835,2026-03-17_10h22.17.455,kallum_motion_pilot_GIST_update_2,2026.1.1,Win32,60.0240096,6773e0c2bb0187b6ecc2c835,69b92ab4aef6dee357cd729a,69b92b4fc2e49c3fcd4a30e9,0.012,0.012,0,19,19,69,1,threefour,,,,,,,,,,,,,,,,,,,,,,,,,,,,,,,,,,,,,,,,,,,,,,,,,,,,,,,,,,,,,,,,,,,,,,,,,,,,,,,,,,,,,,,,,,,,,,,,,,,,,,,,,,,,,,,,,,,,,,,,,,,,,,,,,,,,,,,,,
,,6773e0c2bb0187b6ecc2c835,2026-03-17_10h22.17.455,kallum_motion_pilot_GIST_update_2,2026.1.1,Win32,60.0240096,6773e0c2bb0187b6ecc2c835,69b92ab4aef6dee357cd729a,69b92b4fc2e49c3fcd4a30e9,0.012,0.012,0,20,20,137,1,fiveseven,,,,,,,,,,,,,,,,,,,,,,,,,,,,,,,,,,,,,,,,,,,,,,,,,,,,,,,,,,,,,,,,,,,,,,,,,,,,,,,,,,,,,,,,,,,,,,,,,,,,,,,,,,,,,,,,,,,,,,,,,,,,,,,,,,,,,,,,,
,,6773e0c2bb0187b6ecc2c835,2026-03-17_10h22.17.455,kallum_motion_pilot_GIST_update_2,2026.1.1,Win32,60.0240096,6773e0c2bb0187b6ecc2c835,69b92ab4aef6dee357cd729a,69b92b4fc2e49c3fcd4a30e9,0.012,0.012,0,21,21,80,1,fivesix,,,,,,,,,,,,,,,,,,,,,,,,,,,,,,,,,,,,,,,,,,,,,,,,,,,,,,,,,,,,,,,,,,,,,,,,,,,,,,,,,,,,,,,,,,,,,,,,,,,,,,,,,,,,,,,,,,,,,,,,,,,,,,,,,,,,,,,,,
,,6773e0c2bb0187b6ecc2c835,2026-03-17_10h22.17.455,kallum_motion_pilot_GIST_update_2,2026.1.1,Win32,60.0240096,6773e0c2bb0187b6ecc2c835,69b92ab4aef6dee357cd729a,69b92b4fc2e49c3fcd4a30e9,0.012,0.012,0,22,22,89,1,fiveseven,,,,,,,,,,,,,,,,,,,,,,,,,,,,,,,,,,,,,,,,,,,,,,,,,,,,,,,,,,,,,,,,,,,,,,,,,,,,,,,,,,,,,,,,,,,,,,,,,,,,,,,,,,,,,,,,,,,,,,,,,,,,,,,,,,,,,,,,,
,,6773e0c2bb0187b6ecc2c835,2026-03-17_10h22.17.455,kallum_motion_pilot_GIST_update_2,2026.1.1,Win32,60.0240096,6773e0c2bb0187b6ecc2c835,69b92ab4aef6dee357cd729a,69b92b4fc2e49c3fcd4a30e9,0.012,0.012,0,23,23,98,1,sixfive,,,,,,,,,,,,,,,,,,,,,,,,,,,,,,,,,,,,,,,,,,,,,,,,,,,,,,,,,,,,,,,,,,,,,,,,,,,,,,,,,,,,,,,,,,,,,,,,,,,,,,,,,,,,,,,,,,,,,,,,,,,,,,,,,,,,,,,,,
,,6773e0c2bb0187b6ecc2c835,2026-03-17_10h22.17.455,kallum_motion_pilot_GIST_update_2,2026.1.1,Win32,60.0240096,6773e0c2bb0187b6ecc2c835,69b92ab4aef6dee357cd729a,69b92b4fc2e49c3fcd4a30e9,0.012,0.012,0,24,24,50,1,twoone,,,,,,,,,,,,,,,,,,,,,,,,,,,,,,,,,,,,,,,,,,,,,,,,,,,,,,,,,,,,,,,,,,,,,,,,,,,,,,,,,,,,,,,,,,,,,,,,,,,,,,,,,,,,,,,,,,,,,,,,,,,,,,,,,,,,,,,,,
,,6773e0c2bb0187b6ecc2c835,2026-03-17_10h22.17.455,kallum_motion_pilot_GIST_update_2,2026.1.1,Win32,60.0240096,6773e0c2bb0187b6ecc2c835,69b92ab4aef6dee357cd729a,69b92b4fc2e49c3fcd4a30e9,0.012,0.012,0,25,25,7,1,fourthree,,,,,,,,,,,,,,,,,,,,,,,,,,,,,,,,,,,,,,,,,,,,,,,,,,,,,,,,,,,,,,,,,,,,,,,,,,,,,,,,,,,,,,,,,,,,,,,,,,,,,,,,,,,,,,,,,,,,,,,,,,,,,,,,,,,,,,,,,
,,6773e0c2bb0187b6ecc2c835,2026-03-17_10h22.17.455,kallum_motion_pilot_GIST_update_2,2026.1.1,Win32,60.0240096,6773e0c2bb0187b6ecc2c835,69b92ab4aef6dee357cd729a,69b92b4fc2e49c3fcd4a30e9,0.012,0.012,0,26,26,103,1,eightseven,,,,,,,,,,,,,,,,,,,,,,,,,,,,,,,,,,,,,,,,,,,,,,,,,,,,,,,,,,,,,,,,,,,,,,,,,,,,,,,,,,,,,,,,,,,,,,,,,,,,,,,,,,,,,,,,,,,,,,,,,,,,,,,,,,,,,,,,,
,,6773e0c2bb0187b6ecc2c835,2026-03-17_10h22.17.455,kallum_motion_pilot_GIST_update_2,2026.1.1,Win32,60.0240096,6773e0c2bb0187b6ecc2c835,69b92ab4aef6dee357cd729a,69b92b4fc2e49c3fcd4a30e9,0.012,0.012,0,27,27,25,1,onethree,,,,,,,,,,,,,,,,,,,,,,,,,,,,,,,,,,,,,,,,,,,,,,,,,,,,,,,,,,,,,,,,,,,,,,,,,,,,,,,,,,,,,,,,,,,,,,,,,,,,,,,,,,,,,,,,,,,,,,,,,,,,,,,,,,,,,,,,,
,,6773e0c2bb0187b6ecc2c835,2026-03-17_10h22.17.455,kallum_motion_pilot_GIST_update_2,2026.1.1,Win32,60.0240096,6773e0c2bb0187b6ecc2c835,69b92ab4aef6dee357cd729a,69b92b4fc2e49c3fcd4a30e9,0.012,0.012,0,28,28,141,1,seveneight,,,,,,,,,,,,,,,,,,,,,,,,,,,,,,,,,,,,,,,,,,,,,,,,,,,,,,,,,,,,,,,,,,,,,,,,,,,,,,,,,,,,,,,,,,,,,,,,,,,,,,,,,,,,,,,,,,,,,,,,,,,,,,,,,,,,,,,,,
,,6773e0c2bb0187b6ecc2c835,2026-03-17_10h22.17.455,kallum_motion_pilot_GIST_update_2,2026.1.1,Win32,60.0240096,6773e0c2bb0187b6ecc2c835,69b92ab4aef6dee357cd729a,69b92b4fc2e49c3fcd4a30e9,0.012,0.012,0,29,29,2,1,twoone,,,,,,,,,,,,,,,,,,,,,,,,,,,,,,,,,,,,,,,,,,,,,,,,,,,,,,,,,,,,,,,,,,,,,,,,,,,,,,,,,,,,,,,,,,,,,,,,,,,,,,,,,,,,,,,,,,,,,,,,,,,,,,,,,,,,,,,,,
,,6773e0c2bb0187b6ecc2c835,2026-03-17_10h22.17.455,kallum_motion_pilot_GIST_update_2,2026.1.1,Win32,60.0240096,6773e0c2bb0187b6ecc2c835,69b92ab4aef6dee357cd729a,69b92b4fc2e49c3fcd4a30e9,0.012,0.012,0,30,30,38,1,fourtwo,,,,,,,,,,,,,,,,,,,,,,,,,,,,,,,,,,,,,,,,,,,,,,,,,,,,,,,,,,,,,,,,,,,,,,,,,,,,,,,,,,,,,,,,,,,,,,,,,,,,,,,,,,,,,,,,,,,,,,,,,,,,,,,,,,,,,,,,,
,,6773e0c2bb0187b6ecc2c835,2026-03-17_10h22.17.455,kallum_motion_pilot_GIST_update_2,2026.1.1,Win32,60.0240096,6773e0c2bb0187b6ecc2c835,69b92ab4aef6dee357cd729a,69b92b4fc2e49c3fcd4a30e9,0.012,0.012,0,31,31,67,1,twofour,,,,,,,,,,,,,,,,,,,,,,,,,,,,,,,,,,,,,,,,,,,,,,,,,,,,,,,,,,,,,,,,,,,,,,,,,,,,,,,,,,,,,,,,,,,,,,,,,,,,,,,,,,,,,,,,,,,,,,,,,,,,,,,,,,,,,,,,,
,,6773e0c2bb0187b6ecc2c835,2026-03-17_10h22.17.455,kallum_motion_pilot_GIST_update_2,2026.1.1,Win32,60.0240096,6773e0c2bb0187b6ecc2c835,69b92ab4aef6dee357cd729a,69b92b4fc2e49c3fcd4a30e9,0.012,0.012,0,32,32,81,1,fiveseven,,,,,,,,,,,,,,,,,,,,,,,,,,,,,,,,,,,,,,,,,,,,,,,,,,,,,,,,,,,,,,,,,,,,,,,,,,,,,,,,,,,,,,,,,,,,,,,,,,,,,,,,,,,,,,,,,,,,,,,,,,,,,,,,,,,,,,,,,
,,6773e0c2bb0187b6ecc2c835,2026-03-17_10h22.17.455,kallum_motion_pilot_GIST_update_2,2026.1.1,Win32,60.0240096,6773e0c2bb0187b6ecc2c835,69b92ab4aef6dee357cd729a,69b92b4fc2e49c3fcd4a30e9,0.012,0.012,0,33,33,59,1,twofour,,,,,,,,,,,,,,,,,,,,,,,,,,,,,,,,,,,,,,,,,,,,,,,,,,,,,,,,,,,,,,,,,,,,,,,,,,,,,,,,,,,,,,,,,,,,,,,,,,,,,,,,,,,,,,,,,,,,,,,,,,,,,,,,,,,,,,,,,
,,6773e0c2bb0187b6ecc2c835,2026-03-17_10h22.17.455,kallum_motion_pilot_GIST_update_2,2026.1.1,Win32,60.0240096,6773e0c2bb0187b6ecc2c835,69b92ab4aef6dee357cd729a,69b92b4fc2e49c3fcd4a30e9,0.012,0.012,0,34,34,35,1,twofour,,,,,,,,,,,,,,,,,,,,,,,,,,,,,,,,,,,,,,,,,,,,,,,,,,,,,,,,,,,,,,,,,,,,,,,,,,,,,,,,,,,,,,,,,,,,,,,,,,,,,,,,,,,,,,,,,,,,,,,,,,,,,,,,,,,,,,,,,
,,6773e0c2bb0187b6ecc2c835,2026-03-17_10h22.17.455,kallum_motion_pilot_GIST_update_2,2026.1.1,Win32,60.0240096,6773e0c2bb0187b6ecc2c835,69b92ab4aef6dee357cd729a,69b92b4fc2e49c3fcd4a30e9,0.012,0.012,0,35,35,92,1,sevenfive,,,,,,,,,,,,,,,,,,,,,,,,,,,,,,,,,,,,,,,,,,,,,,,,,,,,,,,,,,,,,,,,,,,,,,,,,,,,,,,,,,,,,,,,,,,,,,,,,,,,,,,,,,,,,,,,,,,,,,,,,,,,,,,,,,,,,,,,,
,,6773e0c2bb0187b6ecc2c835,2026-03-17_10h22.17.455,kallum_motion_pilot_GIST_update_2,2026.1.1,Win32,60.0240096,6773e0c2bb0187b6ecc2c835,69b92ab4aef6dee357cd729a,69b92b4fc2e49c3fcd4a30e9,0.012,0.012,0,36,36,119,1,eightseven,,,,,,,,,,,,,,,,,,,,,,,,,,,,,,,,,,,,,,,,,,,,,,,,,,,,,,,,,,,,,,,,,,,,,,,,,,,,,,,,,,,,,,,,,,,,,,,,,,,,,,,,,,,,,,,,,,,,,,,,,,,,,,,,,,,,,,,,,
,,6773e0c2bb0187b6ecc2c835,2026-03-17_10h22.17.455,kallum_motion_pilot_GIST_update_2,2026.1.1,Win32,60.0240096,6773e0c2bb0187b6ecc2c835,69b92ab4aef6dee357cd729a,69b92b4fc2e49c3fcd4a30e9,0.012,0.012,0,37,37,154,1,sixfive,,,,,,,,,,,,,,,,,,,,,,,,,,,,,,,,,,,,,,,,,,,,,,,,,,,,,,,,,,,,,,,,,,,,,,,,,,,,,,,,,,,,,,,,,,,,,,,,,,,,,,,,,,,,,,,,,,,,,,,,,,,,,,,,,,,,,,,,,
,,6773e0c2bb0187b6ecc2c835,2026-03-17_10h22.17.455,kallum_motion_pilot_GIST_update_2,2026.1.1,Win32,60.0240096,6773e0c2bb0187b6ecc2c835,69b92ab4aef6dee357cd729a,69b92b4fc2e49c3fcd4a30e9,0.012,0.012,0,38,38,145,1,fiveseven,,,,,,,,,,,,,,,,,,,,,,,,,,,,,,,,,,,,,,,,,,,,,,,,,,,,,,,,,,,,,,,,,,,,,,,,,,,,,,,,,,,,,,,,,,,,,,,,,,,,,,,,,,,,,,,,,,,,,,,,,,,,,,,,,,,,,,,,,
,,6773e0c2bb0187b6ecc2c835,2026-03-17_10h22.17.455,kallum_motion_pilot_GIST_update_2,2026.1.1,Win32,60.0240096,6773e0c2bb0187b6ecc2c835,69b92ab4aef6dee357cd729a,69b92b4fc2e49c3fcd4a30e9,0.012,0.012,0,39,39,64,1,onetwo,,,,,,,,,,,,,,,,,,,,,,,,,,,,,,,,,,,,,,,,,,,,,,,,,,,,,,,,,,,,,,,,,,,,,,,,,,,,,,,,,,,,,,,,,,,,,,,,,,,,,,,,,,,,,,,,,,,,,,,,,,,,,,,,,,,,,,,,,
,,6773e0c2bb0187b6ecc2c835,2026-03-17_10h22.17.455,kallum_motion_pilot_GIST_update_2,2026.1.1,Win32,60.0240096,6773e0c2bb0187b6ecc2c835,69b92ab4aef6dee357cd729a,69b92b4fc2e49c3fcd4a30e9,0.012,0.012,0,40,40,88,1,fivesix,,,,,,,,,,,,,,,,,,,,,,,,,,,,,,,,,,,,,,,,,,,,,,,,,,,,,,,,,,,,,,,,,,,,,,,,,,,,,,,,,,,,,,,,,,,,,,,,,,,,,,,,,,,,,,,,,,,,,,,,,,,,,,,,,,,,,,,,,
,,6773e0c2bb0187b6ecc2c835,2026-03-17_10h22.17.455,kallum_motion_pilot_GIST_update_2,2026.1.1,Win32,60.0240096,6773e0c2bb0187b6ecc2c835,69b92ab4aef6dee357cd729a,69b92b4fc2e49c3fcd4a30e9,0.012,0.012,0,41,41,133,1,seveneight,,,,,,,,,,,,,,,,,,,,,,,,,,,,,,,,,,,,,,,,,,,,,,,,,,,,,,,,,,,,,,,,,,,,,,,,,,,,,,,,,,,,,,,,,,,,,,,,,,,,,,,,,,,,,,,,,,,,,,,,,,,,,,,,,,,,,,,,,
,,6773e0c2bb0187b6ecc2c835,2026-03-17_10h22.17.455,kallum_motion_pilot_GIST_update_2,2026.1.1,Win32,60.0240096,6773e0c2bb0187b6ecc2c835,69b92ab4aef6dee357cd729a,69b92b4fc2e49c3fcd4a30e9,0.012,0.012,0,42,42,52,1,threeone,,,,,,,,,,,,,,,,,,,,,,,,,,,,,,,,,,,,,,,,,,,,,,,,,,,,,,,,,,,,,,,,,,,,,,,,,,,,,,,,,,,,,,,,,,,,,,,,,,,,,,,,,,,,,,,,,,,,,,,,,,,,,,,,,,,,,,,,,
,,6773e0c2bb0187b6ecc2c835,2026-03-17_10h22.17.455,kallum_motion_pilot_GIST_update_2,2026.1.1,Win32,60.0240096,6773e0c2bb0187b6ecc2c835,69b92ab4aef6dee357cd729a,69b92b4fc2e49c3fcd4a30e9,0.012,0.012,0,43,43,83,1,sixeight,,,,,,,,,,,,,,,,,,,,,,,,,,,,,,,,,,,,,,,,,,,,,,,,,,,,,,,,,,,,,,,,,,,,,,,,,,,,,,,,,,,,,,,,,,,,,,,,,,,,,,,,,,,,,,,,,,,,,,,,,,,,,,,,,,,,,,,,,
,,6773e0c2bb0187b6ecc2c835,2026-03-17_10h22.17.455,kallum_motion_pilot_GIST_update_2,2026.1.1,Win32,60.0240096,6773e0c2bb0187b6ecc2c835,69b92ab4aef6dee357cd729a,69b92b4fc2e49c3fcd4a30e9,0.012,0.012,0,44,44,101,1,seveneight,,,,,,,,,,,,,,,,,,,,,,,,,,,,,,,,,,,,,,,,,,,,,,,,,,,,,,,,,,,,,,,,,,,,,,,,,,,,,,,,,,,,,,,,,,,,,,,,,,,,,,,,,,,,,,,,,,,,,,,,,,,,,,,,,,,,,,,,,
,,6773e0c2bb0187b6ecc2c835,2026-03-17_10h22.17.455,kallum_motion_pilot_GIST_update_2,2026.1.1,Win32,60.0240096,6773e0c2bb0187b6ecc2c835,69b92ab4aef6dee357cd729a,69b92b4fc2e49c3fcd4a30e9,0.012,0.012,0,45,45,33,1,onethree,,,,,,,,,,,,,,,,,,,,,,,,,,,,,,,,,,,,,,,,,,,,,,,,,,,,,,,,,,,,,,,,,,,,,,,,,,,,,,,,,,,,,,,,,,,,,,,,,,,,,,,,,,,,,,,,,,,,,,,,,,,,,,,,,,,,,,,,,
,,6773e0c2bb0187b6ecc2c835,2026-03-17_10h22.17.455,kallum_motion_pilot_GIST_update_2,2026.1.1,Win32,60.0240096,6773e0c2bb0187b6ecc2c835,69b92ab4aef6dee357cd729a,69b92b4fc2e49c3fcd4a30e9,0.012,0.012,0,46,46,10,1,twoone,,,,,,,,,,,,,,,,,,,,,,,,,,,,,,,,,,,,,,,,,,,,,,,,,,,,,,,,,,,,,,,,,,,,,,,,,,,,,,,,,,,,,,,,,,,,,,,,,,,,,,,,,,,,,,,,,,,,,,,,,,,,,,,,,,,,,,,,,
,,6773e0c2bb0187b6ecc2c835,2026-03-17_10h22.17.455,kallum_motion_pilot_GIST_update_2,2026.1.1,Win32,60.0240096,6773e0c2bb0187b6ecc2c835,69b92ab4aef6dee357cd729a,69b92b4fc2e49c3fcd4a30e9,0.012,0.012,0,47,47,113,1,fiveseven,,,,,,,,,,,,,,,,,,,,,,,,,,,,,,,,,,,,,,,,,,,,,,,,,,,,,,,,,,,,,,,,,,,,,,,,,,,,,,,,,,,,,,,,,,,,,,,,,,,,,,,,,,,,,,,,,,,,,,,,,,,,,,,,,,,,,,,,,
,,6773e0c2bb0187b6ecc2c835,2026-03-17_10h22.17.455,kallum_motion_pilot_GIST_update_2,2026.1.1,Win32,60.0240096,6773e0c2bb0187b6ecc2c835,69b92ab4aef6dee357cd729a,69b92b4fc2e49c3fcd4a30e9,0.012,0.012,0,48,48,56,1,onetwo,,,,,,,,,,,,,,,,,,,,,,,,,,,,,,,,,,,,,,,,,,,,,,,,,,,,,,,,,,,,,,,,,,,,,,,,,,,,,,,,,,,,,,,,,,,,,,,,,,,,,,,,,,,,,,,,,,,,,,,,,,,,,,,,,,,,,,,,,
,,6773e0c2bb0187b6ecc2c835,2026-03-17_10h22.17.455,kallum_motion_pilot_GIST_update_2,2026.1.1,Win32,60.0240096,6773e0c2bb0187b6ecc2c835,69b92ab4aef6dee357cd729a,69b92b4fc2e49c3fcd4a30e9,0.012,0.012,0,49,49,31,1,fourthree,,,,,,,,,,,,,,,,,,,,,,,,,,,,,,,,,,,,,,,,,,,,,,,,,,,,,,,,,,,,,,,,,,,,,,,,,,,,,,,,,,,,,,,,,,,,,,,,,,,,,,,,,,,,,,,,,,,,,,,,,,,,,,,,,,,,,,,,,
,,6773e0c2bb0187b6ecc2c835,2026-03-17_10h22.17.455,kallum_motion_pilot_GIST_update_2,2026.1.1,Win32,60.0240096,6773e0c2bb0187b6ecc2c835,69b92ab4aef6dee357cd729a,69b92b4fc2e49c3fcd4a30e9,0.013,0.013,0,50,50,74,1,twoone,,,,,,,,,,,,,,,,,,,,,,,,,,,,,,,,,,,,,,,,,,,,,,,,,,,,,,,,,,,,,,,,,,,,,,,,,,,,,,,,,,,,,,,,,,,,,,,,,,,,,,,,,,,,,,,,,,,,,,,,,,,,,,,,,,,,,,,,,
,,6773e0c2bb0187b6ecc2c835,2026-03-17_10h22.17.455,kallum_motion_pilot_GIST_update_2,2026.1.1,Win32,60.0240096,6773e0c2bb0187b6ecc2c835,69b92ab4aef6dee357cd729a,69b92b4fc2e49c3fcd4a30e9,0.013,0.013,0,51,51,4,1,threeone,,,,,,,,,,,,,,,,,,,,,,,,,,,,,,,,,,,,,,,,,,,,,,,,,,,,,,,,,,,,,,,,,,,,,,,,,,,,,,,,,,,,,,,,,,,,,,,,,,,,,,,,,,,,,,,,,,,,,,,,,,,,,,,,,,,,,,,,,
,,6773e0c2bb0187b6ecc2c835,2026-03-17_10h22.17.455,kallum_motion_pilot_GIST_update_2,2026.1.1,Win32,60.0240096,6773e0c2bb0187b6ecc2c835,69b92ab4aef6dee357cd729a,69b92b4fc2e49c3fcd4a30e9,0.013,0.013,0,52,52,6,1,fourtwo,,,,,,,,,,,,,,,,,,,,,,,,,,,,,,,,,,,,,,,,,,,,,,,,,,,,,,,,,,,,,,,,,,,,,,,,,,,,,,,,,,,,,,,,,,,,,,,,,,,,,,,,,,,,,,,,,,,,,,,,,,,,,,,,,,,,,,,,,
,,6773e0c2bb0187b6ecc2c835,2026-03-17_10h22.17.455,kallum_motion_pilot_GIST_update_2,2026.1.1,Win32,60.0240096,6773e0c2bb0187b6ecc2c835,69b92ab4aef6dee357cd729a,69b92b4fc2e49c3fcd4a30e9,0.013,0.013,0,53,53,65,1,onethree,,,,,,,,,,,,,,,,,,,,,,,,,,,,,,,,,,,,,,,,,,,,,,,,,,,,,,,,,,,,,,,,,,,,,,,,,,,,,,,,,,,,,,,,,,,,,,,,,,,,,,,,,,,,,,,,,,,,,,,,,,,,,,,,,,,,,,,,,
,,6773e0c2bb0187b6ecc2c835,2026-03-17_10h22.17.455,kallum_motion_pilot_GIST_update_2,2026.1.1,Win32,60.0240096,6773e0c2bb0187b6ecc2c835,69b92ab4aef6dee357cd729a,69b92b4fc2e49c3fcd4a30e9,0.013,0.013,0,54,54,46,1,fourtwo,,,,,,,,,,,,,,,,,,,,,,,,,,,,,,,,,,,,,,,,,,,,,,,,,,,,,,,,,,,,,,,,,,,,,,,,,,,,,,,,,,,,,,,,,,,,,,,,,,,,,,,,,,,,,,,,,,,,,,,,,,,,,,,,,,,,,,,,,
,,6773e0c2bb0187b6ecc2c835,2026-03-17_10h22.17.455,kallum_motion_pilot_GIST_update_2,2026.1.1,Win32,60.0240096,6773e0c2bb0187b6ecc2c835,69b92ab4aef6dee357cd729a,69b92b4fc2e49c3fcd4a30e9,0.013,0.013,0,55,55,43,1,twofour,,,,,,,,,,,,,,,,,,,,,,,,,,,,,,,,,,,,,,,,,,,,,,,,,,,,,,,,,,,,,,,,,,,,,,,,,,,,,,,,,,,,,,,,,,,,,,,,,,,,,,,,,,,,,,,,,,,,,,,,,,,,,,,,,,,,,,,,,
,,6773e0c2bb0187b6ecc2c835,2026-03-17_10h22.17.455,kallum_motion_pilot_GIST_update_2,2026.1.1,Win32,60.0240096,6773e0c2bb0187b6ecc2c835,69b92ab4aef6dee357cd729a,69b92b4fc2e49c3fcd4a30e9,0.013,0.013,0,56,56,90,1,sixfive,,,,,,,,,,,,,,,,,,,,,,,,,,,,,,,,,,,,,,,,,,,,,,,,,,,,,,,,,,,,,,,,,,,,,,,,,,,,,,,,,,,,,,,,,,,,,,,,,,,,,,,,,,,,,,,,,,,,,,,,,,,,,,,,,,,,,,,,,
,,6773e0c2bb0187b6ecc2c835,2026-03-17_10h22.17.455,kallum_motion_pilot_GIST_update_2,2026.1.1,Win32,60.0240096,6773e0c2bb0187b6ecc2c835,69b92ab4aef6dee357cd729a,69b92b4fc2e49c3fcd4a30e9,0.013,0.013,0,57,57,72,1,onetwo,,,,,,,,,,,,,,,,,,,,,,,,,,,,,,,,,,,,,,,,,,,,,,,,,,,,,,,,,,,,,,,,,,,,,,,,,,,,,,,,,,,,,,,,,,,,,,,,,,,,,,,,,,,,,,,,,,,,,,,,,,,,,,,,,,,,,,,,,
,,6773e0c2bb0187b6ecc2c835,2026-03-17_10h22.17.455,kallum_motion_pilot_GIST_update_2,2026.1.1,Win32,60.0240096,6773e0c2bb0187b6ecc2c835,69b92ab4aef6dee357cd729a,69b92b4fc2e49c3fcd4a30e9,0.013,0.013,0,58,58,86,1,eightsix,,,,,,,,,,,,,,,,,,,,,,,,,,,,,,,,,,,,,,,,,,,,,,,,,,,,,,,,,,,,,,,,,,,,,,,,,,,,,,,,,,,,,,,,,,,,,,,,,,,,,,,,,,,,,,,,,,,,,,,,,,,,,,,,,,,,,,,,,
,,6773e0c2bb0187b6ecc2c835,2026-03-17_10h22.17.455,kallum_motion_pilot_GIST_update_2,2026.1.1,Win32,60.0240096,6773e0c2bb0187b6ecc2c835,69b92ab4aef6dee357cd729a,69b92b4fc2e49c3fcd4a30e9,0.013,0.013,0,59,59,84,1,sevenfive,,,,,,,,,,,,,,,,,,,,,,,,,,,,,,,,,,,,,,,,,,,,,,,,,,,,,,,,,,,,,,,,,,,,,,,,,,,,,,,,,,,,,,,,,,,,,,,,,,,,,,,,,,,,,,,,,,,,,,,,,,,,,,,,,,,,,,,,,
,,6773e0c2bb0187b6ecc2c835,2026-03-17_10h22.17.455,kallum_motion_pilot_GIST_update_2,2026.1.1,Win32,60.0240096,6773e0c2bb0187b6ecc2c835,69b92ab4aef6dee357cd729a,69b92b4fc2e49c3fcd4a30e9,0.013,0.013,0,60,60,13,1,threefour,,,,,,,,,,,,,,,,,,,,,,,,,,,,,,,,,,,,,,,,,,,,,,,,,,,,,,,,,,,,,,,,,,,,,,,,,,,,,,,,,,,,,,,,,,,,,,,,,,,,,,,,,,,,,,,,,,,,,,,,,,,,,,,,,,,,,,,,,
,,6773e0c2bb0187b6ecc2c835,2026-03-17_10h22.17.455,kallum_motion_pilot_GIST_update_2,2026.1.1,Win32,60.0240096,6773e0c2bb0187b6ecc2c835,69b92ab4aef6dee357cd729a,69b92b4fc2e49c3fcd4a30e9,0.013,0.013,0,61,61,14,1,fourtwo,,,,,,,,,,,,,,,,,,,,,,,,,,,,,,,,,,,,,,,,,,,,,,,,,,,,,,,,,,,,,,,,,,,,,,,,,,,,,,,,,,,,,,,,,,,,,,,,,,,,,,,,,,,,,,,,,,,,,,,,,,,,,,,,,,,,,,,,,
,,6773e0c2bb0187b6ecc2c835,2026-03-17_10h22.17.455,kallum_motion_pilot_GIST_update_2,2026.1.1,Win32,60.0240096,6773e0c2bb0187b6ecc2c835,69b92ab4aef6dee357cd729a,69b92b4fc2e49c3fcd4a30e9,0.013,0.013,0,62,62,148,1,sevenfive,,,,,,,,,,,,,,,,,,,,,,,,,,,,,,,,,,,,,,,,,,,,,,,,,,,,,,,,,,,,,,,,,,,,,,,,,,,,,,,,,,,,,,,,,,,,,,,,,,,,,,,,,,,,,,,,,,,,,,,,,,,,,,,,,,,,,,,,,
,,6773e0c2bb0187b6ecc2c835,2026-03-17_10h22.17.455,kallum_motion_pilot_GIST_update_2,2026.1.1,Win32,60.0240096,6773e0c2bb0187b6ecc2c835,69b92ab4aef6dee357cd729a,69b92b4fc2e49c3fcd4a30e9,0.013,0.013,0,63,63,41,1,onethree,,,,,,,,,,,,,,,,,,,,,,,,,,,,,,,,,,,,,,,,,,,,,,,,,,,,,,,,,,,,,,,,,,,,,,,,,,,,,,,,,,,,,,,,,,,,,,,,,,,,,,,,,,,,,,,,,,,,,,,,,,,,,,,,,,,,,,,,,
,,6773e0c2bb0187b6ecc2c835,2026-03-17_10h22.17.455,kallum_motion_pilot_GIST_update_2,2026.1.1,Win32,60.0240096,6773e0c2bb0187b6ecc2c835,69b92ab4aef6dee357cd729a,69b92b4fc2e49c3fcd4a30e9,0.013,0.013,0,64,64,105,1,fiveseven,,,,,,,,,,,,,,,,,,,,,,,,,,,,,,,,,,,,,,,,,,,,,,,,,,,,,,,,,,,,,,,,,,,,,,,,,,,,,,,,,,,,,,,,,,,,,,,,,,,,,,,,,,,,,,,,,,,,,,,,,,,,,,,,,,,,,,,,,
,,6773e0c2bb0187b6ecc2c835,2026-03-17_10h22.17.455,kallum_motion_pilot_GIST_update_2,2026.1.1,Win32,60.0240096,6773e0c2bb0187b6ecc2c835,69b92ab4aef6dee357cd729a,69b92b4fc2e49c3fcd4a30e9,0.013,0.013,0,65,65,73,1,onethree,,,,,,,,,,,,,,,,,,,,,,,,,,,,,,,,,,,,,,,,,,,,,,,,,,,,,,,,,,,,,,,,,,,,,,,,,,,,,,,,,,,,,,,,,,,,,,,,,,,,,,,,,,,,,,,,,,,,,,,,,,,,,,,,,,,,,,,,,
,,6773e0c2bb0187b6ecc2c835,2026-03-17_10h22.17.455,kallum_motion_pilot_GIST_update_2,2026.1.1,Win32,60.0240096,6773e0c2bb0187b6ecc2c835,69b92ab4aef6dee357cd729a,69b92b4fc2e49c3fcd4a30e9,0.013,0.013,0,66,66,61,1,threefour,,,,,,,,,,,,,,,,,,,,,,,,,,,,,,,,,,,,,,,,,,,,,,,,,,,,,,,,,,,,,,,,,,,,,,,,,,,,,,,,,,,,,,,,,,,,,,,,,,,,,,,,,,,,,,,,,,,,,,,,,,,,,,,,,,,,,,,,,
,,6773e0c2bb0187b6ecc2c835,2026-03-17_10h22.17.455,kallum_motion_pilot_GIST_update_2,2026.1.1,Win32,60.0240096,6773e0c2bb0187b6ecc2c835,69b92ab4aef6dee357cd729a,69b92b4fc2e49c3fcd4a30e9,0.013,0.013,0,67,67,37,1,threefour,,,,,,,,,,,,,,,,,,,,,,,,,,,,,,,,,,,,,,,,,,,,,,,,,,,,,,,,,,,,,,,,,,,,,,,,,,,,,,,,,,,,,,,,,,,,,,,,,,,,,,,,,,,,,,,,,,,,,,,,,,,,,,,,,,,,,,,,,
,,6773e0c2bb0187b6ecc2c835,2026-03-17_10h22.17.455,kallum_motion_pilot_GIST_update_2,2026.1.1,Win32,60.0240096,6773e0c2bb0187b6ecc2c835,69b92ab4aef6dee357cd729a,69b92b4fc2e49c3fcd4a30e9,0.013,0.013,0,68,68,66,1,twoone,,,,,,,,,,,,,,,,,,,,,,,,,,,,,,,,,,,,,,,,,,,,,,,,,,,,,,,,,,,,,,,,,,,,,,,,,,,,,,,,,,,,,,,,,,,,,,,,,,,,,,,,,,,,,,,,,,,,,,,,,,,,,,,,,,,,,,,,,
,,6773e0c2bb0187b6ecc2c835,2026-03-17_10h22.17.455,kallum_motion_pilot_GIST_update_2,2026.1.1,Win32,60.0240096,6773e0c2bb0187b6ecc2c835,69b92ab4aef6dee357cd729a,69b92b4fc2e49c3fcd4a30e9,0.013,0.013,0,69,69,125,1,seveneight,,,,,,,,,,,,,,,,,,,,,,,,,,,,,,,,,,,,,,,,,,,,,,,,,,,,,,,,,,,,,,,,,,,,,,,,,,,,,,,,,,,,,,,,,,,,,,,,,,,,,,,,,,,,,,,,,,,,,,,,,,,,,,,,,,,,,,,,,
,,6773e0c2bb0187b6ecc2c835,2026-03-17_10h22.17.455,kallum_motion_pilot_GIST_update_2,2026.1.1,Win32,60.0240096,6773e0c2bb0187b6ecc2c835,69b92ab4aef6dee357cd729a,69b92b4fc2e49c3fcd4a30e9,0.013,0.013,0,70,70,27,1,twofour,,,,,,,,,,,,,,,,,,,,,,,,,,,,,,,,,,,,,,,,,,,,,,,,,,,,,,,,,,,,,,,,,,,,,,,,,,,,,,,,,,,,,,,,,,,,,,,,,,,,,,,,,,,,,,,,,,,,,,,,,,,,,,,,,,,,,,,,,
,,6773e0c2bb0187b6ecc2c835,2026-03-17_10h22.17.455,kallum_motion_pilot_GIST_update_2,2026.1.1,Win32,60.0240096,6773e0c2bb0187b6ecc2c835,69b92ab4aef6dee357cd729a,69b92b4fc2e49c3fcd4a30e9,0.013,0.013,0,71,71,78,1,fourtwo,,,,,,,,,,,,,,,,,,,,,,,,,,,,,,,,,,,,,,,,,,,,,,,,,,,,,,,,,,,,,,,,,,,,,,,,,,,,,,,,,,,,,,,,,,,,,,,,,,,,,,,,,,,,,,,,,,,,,,,,,,,,,,,,,,,,,,,,,
,,6773e0c2bb0187b6ecc2c835,2026-03-17_10h22.17.455,kallum_motion_pilot_GIST_update_2,2026.1.1,Win32,60.0240096,6773e0c2bb0187b6ecc2c835,69b92ab4aef6dee357cd729a,69b92b4fc2e49c3fcd4a30e9,0.013,0.013,0,72,72,159,1,eightseven,,,,,,,,,,,,,,,,,,,,,,,,,,,,,,,,,,,,,,,,,,,,,,,,,,,,,,,,,,,,,,,,,,,,,,,,,,,,,,,,,,,,,,,,,,,,,,,,,,,,,,,,,,,,,,,,,,,,,,,,,,,,,,,,,,,,,,,,,
,,6773e0c2bb0187b6ecc2c835,2026-03-17_10h22.17.455,kallum_motion_pilot_GIST_update_2,2026.1.1,Win32,60.0240096,6773e0c2bb0187b6ecc2c835,69b92ab4aef6dee357cd729a,69b92b4fc2e49c3fcd4a30e9,0.013,0.013,0,73,73,110,1,eightsix,,,,,,,,,,,,,,,,,,,,,,,,,,,,,,,,,,,,,,,,,,,,,,,,,,,,,,,,,,,,,,,,,,,,,,,,,,,,,,,,,,,,,,,,,,,,,,,,,,,,,,,,,,,,,,,,,,,,,,,,,,,,,,,,,,,,,,,,,
,,6773e0c2bb0187b6ecc2c835,2026-03-17_10h22.17.455,kallum_motion_pilot_GIST_update_2,2026.1.1,Win32,60.0240096,6773e0c2bb0187b6ecc2c835,69b92ab4aef6dee357cd729a,69b92b4fc2e49c3fcd4a30e9,0.013,0.013,0,74,74,121,1,fiveseven,,,,,,,,,,,,,,,,,,,,,,,,,,,,,,,,,,,,,,,,,,,,,,,,,,,,,,,,,,,,,,,,,,,,,,,,,,,,,,,,,,,,,,,,,,,,,,,,,,,,,,,,,,,,,,,,,,,,,,,,,,,,,,,,,,,,,,,,,
,,6773e0c2bb0187b6ecc2c835,2026-03-17_10h22.17.455,kallum_motion_pilot_GIST_update_2,2026.1.1,Win32,60.0240096,6773e0c2bb0187b6ecc2c835,69b92ab4aef6dee357cd729a,69b92b4fc2e49c3fcd4a30e9,0.013,0.013,0,75,75,17,1,onethree,,,,,,,,,,,,,,,,,,,,,,,,,,,,,,,,,,,,,,,,,,,,,,,,,,,,,,,,,,,,,,,,,,,,,,,,,,,,,,,,,,,,,,,,,,,,,,,,,,,,,,,,,,,,,,,,,,,,,,,,,,,,,,,,,,,,,,,,,
,,6773e0c2bb0187b6ecc2c835,2026-03-17_10h22.17.455,kallum_motion_pilot_GIST_update_2,2026.1.1,Win32,60.0240096,6773e0c2bb0187b6ecc2c835,69b92ab4aef6dee357cd729a,69b92b4fc2e49c3fcd4a30e9,0.013,0.013,0,76,76,23,1,fourthree,,,,,,,,,,,,,,,,,,,,,,,,,,,,,,,,,,,,,,,,,,,,,,,,,,,,,,,,,,,,,,,,,,,,,,,,,,,,,,,,,,,,,,,,,,,,,,,,,,,,,,,,,,,,,,,,,,,,,,,,,,,,,,,,,,,,,,,,,
,,6773e0c2bb0187b6ecc2c835,2026-03-17_10h22.17.455,kallum_motion_pilot_GIST_update_2,2026.1.1,Win32,60.0240096,6773e0c2bb0187b6ecc2c835,69b92ab4aef6dee357cd729a,69b92b4fc2e49c3fcd4a30e9,0.013,0.013,0,77,77,40,1,onetwo,,,,,,,,,,,,,,,,,,,,,,,,,,,,,,,,,,,,,,,,,,,,,,,,,,,,,,,,,,,,,,,,,,,,,,,,,,,,,,,,,,,,,,,,,,,,,,,,,,,,,,,,,,,,,,,,,,,,,,,,,,,,,,,,,,,,,,,,,
,,6773e0c2bb0187b6ecc2c835,2026-03-17_10h22.17.455,kallum_motion_pilot_GIST_update_2,2026.1.1,Win32,60.0240096,6773e0c2bb0187b6ecc2c835,69b92ab4aef6dee357cd729a,69b92b4fc2e49c3fcd4a30e9,0.013,0.013,0,78,78,158,1,eightsix,,,,,,,,,,,,,,,,,,,,,,,,,,,,,,,,,,,,,,,,,,,,,,,,,,,,,,,,,,,,,,,,,,,,,,,,,,,,,,,,,,,,,,,,,,,,,,,,,,,,,,,,,,,,,,,,,,,,,,,,,,,,,,,,,,,,,,,,,
,,6773e0c2bb0187b6ecc2c835,2026-03-17_10h22.17.455,kallum_motion_pilot_GIST_update_2,2026.1.1,Win32,60.0240096,6773e0c2bb0187b6ecc2c835,69b92ab4aef6dee357cd729a,69b92b4fc2e49c3fcd4a30e9,0.013,0.013,0,79,79,30,1,fourtwo,,,,,,,,,,,,,,,,,,,,,,,,,,,,,,,,,,,,,,,,,,,,,,,,,,,,,,,,,,,,,,,,,,,,,,,,,,,,,,,,,,,,,,,,,,,,,,,,,,,,,,,,,,,,,,,,,,,,,,,,,,,,,,,,,,,,,,,,,
,,6773e0c2bb0187b6ecc2c835,2026-03-17_10h22.17.455,kallum_motion_pilot_GIST_update_2,2026.1.1,Win32,60.0240096,6773e0c2bb0187b6ecc2c835,69b92ab4aef6dee357cd729a,69b92b4fc2e49c3fcd4a30e9,0.013,0.013,0,80,80,160,1,fivesix,,,,,,,,,,,,,,,,,,,,,,,,,,,,,,,,,,,,,,,,,,,,,,,,,,,,,,,,,,,,,,,,,,,,,,,,,,,,,,,,,,,,,,,,,,,,,,,,,,,,,,,,,,,,,,,,,,,,,,,,,,,,,,,,,,,,,,,,,
,,6773e0c2bb0187b6ecc2c835,2026-03-17_10h22.17.455,kallum_motion_pilot_GIST_update_2,2026.1.1,Win32,60.0240096,6773e0c2bb0187b6ecc2c835,69b92ab4aef6dee357cd729a,69b92b4fc2e49c3fcd4a30e9,0.013,0.013,0,81,81,21,1,threefour,,,,,,,,,,,,,,,,,,,,,,,,,,,,,,,,,,,,,,,,,,,,,,,,,,,,,,,,,,,,,,,,,,,,,,,,,,,,,,,,,,,,,,,,,,,,,,,,,,,,,,,,,,,,,,,,,,,,,,,,,,,,,,,,,,,,,,,,,
,,6773e0c2bb0187b6ecc2c835,2026-03-17_10h22.17.455,kallum_motion_pilot_GIST_update_2,2026.1.1,Win32,60.0240096,6773e0c2bb0187b6ecc2c835,69b92ab4aef6dee357cd729a,69b92b4fc2e49c3fcd4a30e9,0.013,0.013,0,82,82,1,1,onethree,,,,,,,,,,,,,,,,,,,,,,,,,,,,,,,,,,,,,,,,,,,,,,,,,,,,,,,,,,,,,,,,,,,,,,,,,,,,,,,,,,,,,,,,,,,,,,,,,,,,,,,,,,,,,,,,,,,,,,,,,,,,,,,,,,,,,,,,,
,,6773e0c2bb0187b6ecc2c835,2026-03-17_10h22.17.455,kallum_motion_pilot_GIST_update_2,2026.1.1,Win32,60.0240096,6773e0c2bb0187b6ecc2c835,69b92ab4aef6dee357cd729a,69b92b4fc2e49c3fcd4a30e9,0.013,0.013,0,83,83,18,1,twoone,,,,,,,,,,,,,,,,,,,,,,,,,,,,,,,,,,,,,,,,,,,,,,,,,,,,,,,,,,,,,,,,,,,,,,,,,,,,,,,,,,,,,,,,,,,,,,,,,,,,,,,,,,,,,,,,,,,,,,,,,,,,,,,,,,,,,,,,,
,,6773e0c2bb0187b6ecc2c835,2026-03-17_10h22.17.455,kallum_motion_pilot_GIST_update_2,2026.1.1,Win32,60.0240096,6773e0c2bb0187b6ecc2c835,69b92ab4aef6dee357cd729a,69b92b4fc2e49c3fcd4a30e9,0.013,0.013,0,84,84,142,1,eightsix,,,,,,,,,,,,,,,,,,,,,,,,,,,,,,,,,,,,,,,,,,,,,,,,,,,,,,,,,,,,,,,,,,,,,,,,,,,,,,,,,,,,,,,,,,,,,,,,,,,,,,,,,,,,,,,,,,,,,,,,,,,,,,,,,,,,,,,,,
,,6773e0c2bb0187b6ecc2c835,2026-03-17_10h22.17.455,kallum_motion_pilot_GIST_update_2,2026.1.1,Win32,60.0240096,6773e0c2bb0187b6ecc2c835,69b92ab4aef6dee357cd729a,69b92b4fc2e49c3fcd4a30e9,0.013,0.013,0,85,85,117,1,seveneight,,,,,,,,,,,,,,,,,,,,,,,,,,,,,,,,,,,,,,,,,,,,,,,,,,,,,,,,,,,,,,,,,,,,,,,,,,,,,,,,,,,,,,,,,,,,,,,,,,,,,,,,,,,,,,,,,,,,,,,,,,,,,,,,,,,,,,,,,
,,6773e0c2bb0187b6ecc2c835,2026-03-17_10h22.17.455,kallum_motion_pilot_GIST_update_2,2026.1.1,Win32,60.0240096,6773e0c2bb0187b6ecc2c835,69b92ab4aef6dee357cd729a,69b92b4fc2e49c3fcd4a30e9,0.013,0.013,0,86,86,138,1,sixfive,,,,,,,,,,,,,,,,,,,,,,,,,,,,,,,,,,,,,,,,,,,,,,,,,,,,,,,,,,,,,,,,,,,,,,,,,,,,,,,,,,,,,,,,,,,,,,,,,,,,,,,,,,,,,,,,,,,,,,,,,,,,,,,,,,,,,,,,,
,,6773e0c2bb0187b6ecc2c835,2026-03-17_10h22.17.455,kallum_motion_pilot_GIST_update_2,2026.1.1,Win32,60.0240096,6773e0c2bb0187b6ecc2c835,69b92ab4aef6dee357cd729a,69b92b4fc2e49c3fcd4a30e9,0.013,0.013,0,87,87,146,1,sixfive,,,,,,,,,,,,,,,,,,,,,,,,,,,,,,,,,,,,,,,,,,,,,,,,,,,,,,,,,,,,,,,,,,,,,,,,,,,,,,,,,,,,,,,,,,,,,,,,,,,,,,,,,,,,,,,,,,,,,,,,,,,,,,,,,,,,,,,,,
,,6773e0c2bb0187b6ecc2c835,2026-03-17_10h22.17.455,kallum_motion_pilot_GIST_update_2,2026.1.1,Win32,60.0240096,6773e0c2bb0187b6ecc2c835,69b92ab4aef6dee357cd729a,69b92b4fc2e49c3fcd4a30e9,0.013,0.013,0,88,88,77,1,threefour,,,,,,,,,,,,,,,,,,,,,,,,,,,,,,,,,,,,,,,,,,,,,,,,,,,,,,,,,,,,,,,,,,,,,,,,,,,,,,,,,,,,,,,,,,,,,,,,,,,,,,,,,,,,,,,,,,,,,,,,,,,,,,,,,,,,,,,,,
,,6773e0c2bb0187b6ecc2c835,2026-03-17_10h22.17.455,kallum_motion_pilot_GIST_update_2,2026.1.1,Win32,60.0240096,6773e0c2bb0187b6ecc2c835,69b92ab4aef6dee357cd729a,69b92b4fc2e49c3fcd4a30e9,0.013,0.013,0,89,89,161,1,fiveseven,,,,,,,,,,,,,,,,,,,,,,,,,,,,,,,,,,,,,,,,,,,,,,,,,,,,,,,,,,,,,,,,,,,,,,,,,,,,,,,,,,,,,,,,,,,,,,,,,,,,,,,,,,,,,,,,,,,,,,,,,,,,,,,,,,,,,,,,,
,,6773e0c2bb0187b6ecc2c835,2026-03-17_10h22.17.455,kallum_motion_pilot_GIST_update_2,2026.1.1,Win32,60.0240096,6773e0c2bb0187b6ecc2c835,69b92ab4aef6dee357cd729a,69b92b4fc2e49c3fcd4a30e9,0.013,0.013,0,90,90,131,1,sixeight,,,,,,,,,,,,,,,,,,,,,,,,,,,,,,,,,,,,,,,,,,,,,,,,,,,,,,,,,,,,,,,,,,,,,,,,,,,,,,,,,,,,,,,,,,,,,,,,,,,,,,,,,,,,,,,,,,,,,,,,,,,,,,,,,,,,,,,,,
,,6773e0c2bb0187b6ecc2c835,2026-03-17_10h22.17.455,kallum_motion_pilot_GIST_update_2,2026.1.1,Win32,60.0240096,6773e0c2bb0187b6ecc2c835,69b92ab4aef6dee357cd729a,69b92b4fc2e49c3fcd4a30e9,0.013,0.013,0,91,91,155,1,sixeight,,,,,,,,,,,,,,,,,,,,,,,,,,,,,,,,,,,,,,,,,,,,,,,,,,,,,,,,,,,,,,,,,,,,,,,,,,,,,,,,,,,,,,,,,,,,,,,,,,,,,,,,,,,,,,,,,,,,,,,,,,,,,,,,,,,,,,,,,
,,6773e0c2bb0187b6ecc2c835,2026-03-17_10h22.17.455,kallum_motion_pilot_GIST_update_2,2026.1.1,Win32,60.0240096,6773e0c2bb0187b6ecc2c835,69b92ab4aef6dee357cd729a,69b92b4fc2e49c3fcd4a30e9,0.013,0.013,0,92,92,3,1,twofour,,,,,,,,,,,,,,,,,,,,,,,,,,,,,,,,,,,,,,,,,,,,,,,,,,,,,,,,,,,,,,,,,,,,,,,,,,,,,,,,,,,,,,,,,,,,,,,,,,,,,,,,,,,,,,,,,,,,,,,,,,,,,,,,,,,,,,,,,
,,6773e0c2bb0187b6ecc2c835,2026-03-17_10h22.17.455,kallum_motion_pilot_GIST_update_2,2026.1.1,Win32,60.0240096,6773e0c2bb0187b6ecc2c835,69b92ab4aef6dee357cd729a,69b92b4fc2e49c3fcd4a30e9,0.013,0.013,0,93,93,20,1,threeone,,,,,,,,,,,,,,,,,,,,,,,,,,,,,,,,,,,,,,,,,,,,,,,,,,,,,,,,,,,,,,,,,,,,,,,,,,,,,,,,,,,,,,,,,,,,,,,,,,,,,,,,,,,,,,,,,,,,,,,,,,,,,,,,,,,,,,,,,
,,6773e0c2bb0187b6ecc2c835,2026-03-17_10h22.17.455,kallum_motion_pilot_GIST_update_2,2026.1.1,Win32,60.0240096,6773e0c2bb0187b6ecc2c835,69b92ab4aef6dee357cd729a,69b92b4fc2e49c3fcd4a30e9,0.013,0.013,0,94,94,53,1,threefour,,,,,,,,,,,,,,,,,,,,,,,,,,,,,,,,,,,,,,,,,,,,,,,,,,,,,,,,,,,,,,,,,,,,,,,,,,,,,,,,,,,,,,,,,,,,,,,,,,,,,,,,,,,,,,,,,,,,,,,,,,,,,,,,,,,,,,,,,
,,6773e0c2bb0187b6ecc2c835,2026-03-17_10h22.17.455,kallum_motion_pilot_GIST_update_2,2026.1.1,Win32,60.0240096,6773e0c2bb0187b6ecc2c835,69b92ab4aef6dee357cd729a,69b92b4fc2e49c3fcd4a30e9,0.014,0.014,0,95,95,60,1,threeone,,,,,,,,,,,,,,,,,,,,,,,,,,,,,,,,,,,,,,,,,,,,,,,,,,,,,,,,,,,,,,,,,,,,,,,,,,,,,,,,,,,,,,,,,,,,,,,,,,,,,,,,,,,,,,,,,,,,,,,,,,,,,,,,,,,,,,,,,
,,6773e0c2bb0187b6ecc2c835,2026-03-17_10h22.17.455,kallum_motion_pilot_GIST_update_2,2026.1.1,Win32,60.0240096,6773e0c2bb0187b6ecc2c835,69b92ab4aef6dee357cd729a,69b92b4fc2e49c3fcd4a30e9,0.014,0.014,0,96,96,136,1,fivesix,,,,,,,,,,,,,,,,,,,,,,,,,,,,,,,,,,,,,,,,,,,,,,,,,,,,,,,,,,,,,,,,,,,,,,,,,,,,,,,,,,,,,,,,,,,,,,,,,,,,,,,,,,,,,,,,,,,,,,,,,,,,,,,,,,,,,,,,,
,,6773e0c2bb0187b6ecc2c835,2026-03-17_10h22.17.455,kallum_motion_pilot_GIST_update_2,2026.1.1,Win32,60.0240096,6773e0c2bb0187b6ecc2c835,69b92ab4aef6dee357cd729a,69b92b4fc2e49c3fcd4a30e9,0.014,0.014,0,97,97,68,1,threeone,,,,,,,,,,,,,,,,,,,,,,,,,,,,,,,,,,,,,,,,,,,,,,,,,,,,,,,,,,,,,,,,,,,,,,,,,,,,,,,,,,,,,,,,,,,,,,,,,,,,,,,,,,,,,,,,,,,,,,,,,,,,,,,,,,,,,,,,,
,,6773e0c2bb0187b6ecc2c835,2026-03-17_10h22.17.455,kallum_motion_pilot_GIST_update_2,2026.1.1,Win32,60.0240096,6773e0c2bb0187b6ecc2c835,69b92ab4aef6dee357cd729a,69b92b4fc2e49c3fcd4a30e9,0.014,0.014,0,98,98,82,1,sixfive,,,,,,,,,,,,,,,,,,,,,,,,,,,,,,,,,,,,,,,,,,,,,,,,,,,,,,,,,,,,,,,,,,,,,,,,,,,,,,,,,,,,,,,,,,,,,,,,,,,,,,,,,,,,,,,,,,,,,,,,,,,,,,,,,,,,,,,,,
,,6773e0c2bb0187b6ecc2c835,2026-03-17_10h22.17.455,kallum_motion_pilot_GIST_update_2,2026.1.1,Win32,60.0240096,6773e0c2bb0187b6ecc2c835,69b92ab4aef6dee357cd729a,69b92b4fc2e49c3fcd4a30e9,0.014,0.014,0,99,99,111,1,eightseven,,,,,,,,,,,,,,,,,,,,,,,,,,,,,,,,,,,,,,,,,,,,,,,,,,,,,,,,,,,,,,,,,,,,,,,,,,,,,,,,,,,,,,,,,,,,,,,,,,,,,,,,,,,,,,,,,,,,,,,,,,,,,,,,,,,,,,,,,
,,6773e0c2bb0187b6ecc2c835,2026-03-17_10h22.17.455,kallum_motion_pilot_GIST_update_2,2026.1.1,Win32,60.0240096,6773e0c2bb0187b6ecc2c835,69b92ab4aef6dee357cd729a,69b92b4fc2e49c3fcd4a30e9,0.014,0.014,0,100,100,54,1,fourtwo,,,,,,,,,,,,,,,,,,,,,,,,,,,,,,,,,,,,,,,,,,,,,,,,,,,,,,,,,,,,,,,,,,,,,,,,,,,,,,,,,,,,,,,,,,,,,,,,,,,,,,,,,,,,,,,,,,,,,,,,,,,,,,,,,,,,,,,,,
,,6773e0c2bb0187b6ecc2c835,2026-03-17_10h22.17.455,kallum_motion_pilot_GIST_update_2,2026.1.1,Win32,60.0240096,6773e0c2bb0187b6ecc2c835,69b92ab4aef6dee357cd729a,69b92b4fc2e49c3fcd4a30e9,0.014,0.014,0,101,101,48,1,onetwo,,,,,,,,,,,,,,,,,,,,,,,,,,,,,,,,,,,,,,,,,,,,,,,,,,,,,,,,,,,,,,,,,,,,,,,,,,,,,,,,,,,,,,,,,,,,,,,,,,,,,,,,,,,,,,,,,,,,,,,,,,,,,,,,,,,,,,,,,
,,6773e0c2bb0187b6ecc2c835,2026-03-17_10h22.17.455,kallum_motion_pilot_GIST_update_2,2026.1.1,Win32,60.0240096,6773e0c2bb0187b6ecc2c835,69b92ab4aef6dee357cd729a,69b92b4fc2e49c3fcd4a30e9,0.014,0.014,0,102,102,87,1,eightseven,,,,,,,,,,,,,,,,,,,,,,,,,,,,,,,,,,,,,,,,,,,,,,,,,,,,,,,,,,,,,,,,,,,,,,,,,,,,,,,,,,,,,,,,,,,,,,,,,,,,,,,,,,,,,,,,,,,,,,,,,,,,,,,,,,,,,,,,,
,,6773e0c2bb0187b6ecc2c835,2026-03-17_10h22.17.455,kallum_motion_pilot_GIST_update_2,2026.1.1,Win32,60.0240096,6773e0c2bb0187b6ecc2c835,69b92ab4aef6dee357cd729a,69b92b4fc2e49c3fcd4a30e9,0.014,0.014,0,103,103,97,1,fiveseven,,,,,,,,,,,,,,,,,,,,,,,,,,,,,,,,,,,,,,,,,,,,,,,,,,,,,,,,,,,,,,,,,,,,,,,,,,,,,,,,,,,,,,,,,,,,,,,,,,,,,,,,,,,,,,,,,,,,,,,,,,,,,,,,,,,,,,,,,
,,6773e0c2bb0187b6ecc2c835,2026-03-17_10h22.17.455,kallum_motion_pilot_GIST_update_2,2026.1.1,Win32,60.0240096,6773e0c2bb0187b6ecc2c835,69b92ab4aef6dee357cd729a,69b92b4fc2e49c3fcd4a30e9,0.014,0.014,0,104,104,0,1,onetwo,,,,,,,,,,,,,,,,,,,,,,,,,,,,,,,,,,,,,,,,,,,,,,,,,,,,,,,,,,,,,,,,,,,,,,,,,,,,,,,,,,,,,,,,,,,,,,,,,,,,,,,,,,,,,,,,,,,,,,,,,,,,,,,,,,,,,,,,,
,,6773e0c2bb0187b6ecc2c835,2026-03-17_10h22.17.455,kallum_motion_pilot_GIST_update_2,2026.1.1,Win32,60.0240096,6773e0c2bb0187b6ecc2c835,69b92ab4aef6dee357cd729a,69b92b4fc2e49c3fcd4a30e9,0.014,0.014,0,105,105,150,1,eightsix,,,,,,,,,,,,,,,,,,,,,,,,,,,,,,,,,,,,,,,,,,,,,,,,,,,,,,,,,,,,,,,,,,,,,,,,,,,,,,,,,,,,,,,,,,,,,,,,,,,,,,,,,,,,,,,,,,,,,,,,,,,,,,,,,,,,,,,,,
,,6773e0c2bb0187b6ecc2c835,2026-03-17_10h22.17.455,kallum_motion_pilot_GIST_update_2,2026.1.1,Win32,60.0240096,6773e0c2bb0187b6ecc2c835,69b92ab4aef6dee357cd729a,69b92b4fc2e49c3fcd4a30e9,0.014,0.014,0,106,106,85,1,seveneight,,,,,,,,,,,,,,,,,,,,,,,,,,,,,,,,,,,,,,,,,,,,,,,,,,,,,,,,,,,,,,,,,,,,,,,,,,,,,,,,,,,,,,,,,,,,,,,,,,,,,,,,,,,,,,,,,,,,,,,,,,,,,,,,,,,,,,,,,
,,6773e0c2bb0187b6ecc2c835,2026-03-17_10h22.17.455,kallum_motion_pilot_GIST_update_2,2026.1.1,Win32,60.0240096,6773e0c2bb0187b6ecc2c835,69b92ab4aef6dee357cd729a,69b92b4fc2e49c3fcd4a30e9,0.014,0.014,0,107,107,39,1,fourthree,,,,,,,,,,,,,,,,,,,,,,,,,,,,,,,,,,,,,,,,,,,,,,,,,,,,,,,,,,,,,,,,,,,,,,,,,,,,,,,,,,,,,,,,,,,,,,,,,,,,,,,,,,,,,,,,,,,,,,,,,,,,,,,,,,,,,,,,,
,,6773e0c2bb0187b6ecc2c835,2026-03-17_10h22.17.455,kallum_motion_pilot_GIST_update_2,2026.1.1,Win32,60.0240096,6773e0c2bb0187b6ecc2c835,69b92ab4aef6dee357cd729a,69b92b4fc2e49c3fcd4a30e9,0.014,0.014,0,108,108,130,1,sixfive,,,,,,,,,,,,,,,,,,,,,,,,,,,,,,,,,,,,,,,,,,,,,,,,,,,,,,,,,,,,,,,,,,,,,,,,,,,,,,,,,,,,,,,,,,,,,,,,,,,,,,,,,,,,,,,,,,,,,,,,,,,,,,,,,,,,,,,,,
,,6773e0c2bb0187b6ecc2c835,2026-03-17_10h22.17.455,kallum_motion_pilot_GIST_update_2,2026.1.1,Win32,60.0240096,6773e0c2bb0187b6ecc2c835,69b92ab4aef6dee357cd729a,69b92b4fc2e49c3fcd4a30e9,0.014,0.014,0,109,109,36,1,threeone,,,,,,,,,,,,,,,,,,,,,,,,,,,,,,,,,,,,,,,,,,,,,,,,,,,,,,,,,,,,,,,,,,,,,,,,,,,,,,,,,,,,,,,,,,,,,,,,,,,,,,,,,,,,,,,,,,,,,,,,,,,,,,,,,,,,,,,,,
,,6773e0c2bb0187b6ecc2c835,2026-03-17_10h22.17.455,kallum_motion_pilot_GIST_update_2,2026.1.1,Win32,60.0240096,6773e0c2bb0187b6ecc2c835,69b92ab4aef6dee357cd729a,69b92b4fc2e49c3fcd4a30e9,0.014,0.014,0,110,110,95,1,eightseven,,,,,,,,,,,,,,,,,,,,,,,,,,,,,,,,,,,,,,,,,,,,,,,,,,,,,,,,,,,,,,,,,,,,,,,,,,,,,,,,,,,,,,,,,,,,,,,,,,,,,,,,,,,,,,,,,,,,,,,,,,,,,,,,,,,,,,,,,
,,6773e0c2bb0187b6ecc2c835,2026-03-17_10h22.17.455,kallum_motion_pilot_GIST_update_2,2026.1.1,Win32,60.0240096,6773e0c2bb0187b6ecc2c835,69b92ab4aef6dee357cd729a,69b92b4fc2e49c3fcd4a30e9,0.014,0.014,0,111,111,114,1,sixfive,,,,,,,,,,,,,,,,,,,,,,,,,,,,,,,,,,,,,,,,,,,,,,,,,,,,,,,,,,,,,,,,,,,,,,,,,,,,,,,,,,,,,,,,,,,,,,,,,,,,,,,,,,,,,,,,,,,,,,,,,,,,,,,,,,,,,,,,,
,,6773e0c2bb0187b6ecc2c835,2026-03-17_10h22.17.455,kallum_motion_pilot_GIST_update_2,2026.1.1,Win32,60.0240096,6773e0c2bb0187b6ecc2c835,69b92ab4aef6dee357cd729a,69b92b4fc2e49c3fcd4a30e9,0.014,0.014,0,112,112,16,1,onetwo,,,,,,,,,,,,,,,,,,,,,,,,,,,,,,,,,,,,,,,,,,,,,,,,,,,,,,,,,,,,,,,,,,,,,,,,,,,,,,,,,,,,,,,,,,,,,,,,,,,,,,,,,,,,,,,,,,,,,,,,,,,,,,,,,,,,,,,,,
,,6773e0c2bb0187b6ecc2c835,2026-03-17_10h22.17.455,kallum_motion_pilot_GIST_update_2,2026.1.1,Win32,60.0240096,6773e0c2bb0187b6ecc2c835,69b92ab4aef6dee357cd729a,69b92b4fc2e49c3fcd4a30e9,0.014,0.014,0,113,113,49,1,onethree,,,,,,,,,,,,,,,,,,,,,,,,,,,,,,,,,,,,,,,,,,,,,,,,,,,,,,,,,,,,,,,,,,,,,,,,,,,,,,,,,,,,,,,,,,,,,,,,,,,,,,,,,,,,,,,,,,,,,,,,,,,,,,,,,,,,,,,,,
,,6773e0c2bb0187b6ecc2c835,2026-03-17_10h22.17.455,kallum_motion_pilot_GIST_update_2,2026.1.1,Win32,60.0240096,6773e0c2bb0187b6ecc2c835,69b92ab4aef6dee357cd729a,69b92b4fc2e49c3fcd4a30e9,0.014,0.014,0,114,114,118,1,eightsix,,,,,,,,,,,,,,,,,,,,,,,,,,,,,,,,,,,,,,,,,,,,,,,,,,,,,,,,,,,,,,,,,,,,,,,,,,,,,,,,,,,,,,,,,,,,,,,,,,,,,,,,,,,,,,,,,,,,,,,,,,,,,,,,,,,,,,,,,
,,6773e0c2bb0187b6ecc2c835,2026-03-17_10h22.17.455,kallum_motion_pilot_GIST_update_2,2026.1.1,Win32,60.0240096,6773e0c2bb0187b6ecc2c835,69b92ab4aef6dee357cd729a,69b92b4fc2e49c3fcd4a30e9,0.014,0.014,0,115,115,45,1,threefour,,,,,,,,,,,,,,,,,,,,,,,,,,,,,,,,,,,,,,,,,,,,,,,,,,,,,,,,,,,,,,,,,,,,,,,,,,,,,,,,,,,,,,,,,,,,,,,,,,,,,,,,,,,,,,,,,,,,,,,,,,,,,,,,,,,,,,,,,
,,6773e0c2bb0187b6ecc2c835,2026-03-17_10h22.17.455,kallum_motion_pilot_GIST_update_2,2026.1.1,Win32,60.0240096,6773e0c2bb0187b6ecc2c835,69b92ab4aef6dee357cd729a,69b92b4fc2e49c3fcd4a30e9,0.014,0.014,0,116,116,79,1,eightseven,,,,,,,,,,,,,,,,,,,,,,,,,,,,,,,,,,,,,,,,,,,,,,,,,,,,,,,,,,,,,,,,,,,,,,,,,,,,,,,,,,,,,,,,,,,,,,,,,,,,,,,,,,,,,,,,,,,,,,,,,,,,,,,,,,,,,,,,,
,,6773e0c2bb0187b6ecc2c835,2026-03-17_10h22.17.455,kallum_motion_pilot_GIST_update_2,2026.1.1,Win32,60.0240096,6773e0c2bb0187b6ecc2c835,69b92ab4aef6dee357cd729a,69b92b4fc2e49c3fcd4a30e9,0.014,0.014,0,117,117,94,1,eightsix,,,,,,,,,,,,,,,,,,,,,,,,,,,,,,,,,,,,,,,,,,,,,,,,,,,,,,,,,,,,,,,,,,,,,,,,,,,,,,,,,,,,,,,,,,,,,,,,,,,,,,,,,,,,,,,,,,,,,,,,,,,,,,,,,,,,,,,,,
,,6773e0c2bb0187b6ecc2c835,2026-03-17_10h22.17.455,kallum_motion_pilot_GIST_update_2,2026.1.1,Win32,60.0240096,6773e0c2bb0187b6ecc2c835,69b92ab4aef6dee357cd729a,69b92b4fc2e49c3fcd4a30e9,0.014,0.014,0,118,118,109,1,seveneight,,,,,,,,,,,,,,,,,,,,,,,,,,,,,,,,,,,,,,,,,,,,,,,,,,,,,,,,,,,,,,,,,,,,,,,,,,,,,,,,,,,,,,,,,,,,,,,,,,,,,,,,,,,,,,,,,,,,,,,,,,,,,,,,,,,,,,,,,
,,6773e0c2bb0187b6ecc2c835,2026-03-17_10h22.17.455,kallum_motion_pilot_GIST_update_2,2026.1.1,Win32,60.0240096,6773e0c2bb0187b6ecc2c835,69b92ab4aef6dee357cd729a,69b92b4fc2e49c3fcd4a30e9,0.014,0.014,0,119,119,153,1,fiveseven,,,,,,,,,,,,,,,,,,,,,,,,,,,,,,,,,,,,,,,,,,,,,,,,,,,,,,,,,,,,,,,,,,,,,,,,,,,,,,,,,,,,,,,,,,,,,,,,,,,,,,,,,,,,,,,,,,,,,,,,,,,,,,,,,,,,,,,,,
,,6773e0c2bb0187b6ecc2c835,2026-03-17_10h22.17.455,kallum_motion_pilot_GIST_update_2,2026.1.1,Win32,60.0240096,6773e0c2bb0187b6ecc2c835,69b92ab4aef6dee357cd729a,69b92b4fc2e49c3fcd4a30e9,0.014,0.014,0,120,120,151,1,eightseven,,,,,,,,,,,,,,,,,,,,,,,,,,,,,,,,,,,,,,,,,,,,,,,,,,,,,,,,,,,,,,,,,,,,,,,,,,,,,,,,,,,,,,,,,,,,,,,,,,,,,,,,,,,,,,,,,,,,,,,,,,,,,,,,,,,,,,,,,
,,6773e0c2bb0187b6ecc2c835,2026-03-17_10h22.17.455,kallum_motion_pilot_GIST_update_2,2026.1.1,Win32,60.0240096,6773e0c2bb0187b6ecc2c835,69b92ab4aef6dee357cd729a,69b92b4fc2e49c3fcd4a30e9,0.014,0.014,0,121,121,62,1,fourtwo,,,,,,,,,,,,,,,,,,,,,,,,,,,,,,,,,,,,,,,,,,,,,,,,,,,,,,,,,,,,,,,,,,,,,,,,,,,,,,,,,,,,,,,,,,,,,,,,,,,,,,,,,,,,,,,,,,,,,,,,,,,,,,,,,,,,,,,,,
,,6773e0c2bb0187b6ecc2c835,2026-03-17_10h22.17.455,kallum_motion_pilot_GIST_update_2,2026.1.1,Win32,60.0240096,6773e0c2bb0187b6ecc2c835,69b92ab4aef6dee357cd729a,69b92b4fc2e49c3fcd4a30e9,0.014,0.014,0,122,122,126,1,eightsix,,,,,,,,,,,,,,,,,,,,,,,,,,,,,,,,,,,,,,,,,,,,,,,,,,,,,,,,,,,,,,,,,,,,,,,,,,,,,,,,,,,,,,,,,,,,,,,,,,,,,,,,,,,,,,,,,,,,,,,,,,,,,,,,,,,,,,,,,
,,6773e0c2bb0187b6ecc2c835,2026-03-17_10h22.17.455,kallum_motion_pilot_GIST_update_2,2026.1.1,Win32,60.0240096,6773e0c2bb0187b6ecc2c835,69b92ab4aef6dee357cd729a,69b92b4fc2e49c3fcd4a30e9,0.014,0.014,0,123,123,42,1,twoone,,,,,,,,,,,,,,,,,,,,,,,,,,,,,,,,,,,,,,,,,,,,,,,,,,,,,,,,,,,,,,,,,,,,,,,,,,,,,,,,,,,,,,,,,,,,,,,,,,,,,,,,,,,,,,,,,,,,,,,,,,,,,,,,,,,,,,,,,
,,6773e0c2bb0187b6ecc2c835,2026-03-17_10h22.17.455,kallum_motion_pilot_GIST_update_2,2026.1.1,Win32,60.0240096,6773e0c2bb0187b6ecc2c835,69b92ab4aef6dee357cd729a,69b92b4fc2e49c3fcd4a30e9,0.014,0.014,0,124,124,12,1,threeone,,,,,,,,,,,,,,,,,,,,,,,,,,,,,,,,,,,,,,,,,,,,,,,,,,,,,,,,,,,,,,,,,,,,,,,,,,,,,,,,,,,,,,,,,,,,,,,,,,,,,,,,,,,,,,,,,,,,,,,,,,,,,,,,,,,,,,,,,
,,6773e0c2bb0187b6ecc2c835,2026-03-17_10h22.17.455,kallum_motion_pilot_GIST_update_2,2026.1.1,Win32,60.0240096,6773e0c2bb0187b6ecc2c835,69b92ab4aef6dee357cd729a,69b92b4fc2e49c3fcd4a30e9,0.014,0.014,0,125,125,51,1,twofour,,,,,,,,,,,,,,,,,,,,,,,,,,,,,,,,,,,,,,,,,,,,,,,,,,,,,,,,,,,,,,,,,,,,,,,,,,,,,,,,,,,,,,,,,,,,,,,,,,,,,,,,,,,,,,,,,,,,,,,,,,,,,,,,,,,,,,,,,
,,6773e0c2bb0187b6ecc2c835,2026-03-17_10h22.17.455,kallum_motion_pilot_GIST_update_2,2026.1.1,Win32,60.0240096,6773e0c2bb0187b6ecc2c835,69b92ab4aef6dee357cd729a,69b92b4fc2e49c3fcd4a30e9,0.014,0.014,0,126,126,120,1,fivesix,,,,,,,,,,,,,,,,,,,,,,,,,,,,,,,,,,,,,,,,,,,,,,,,,,,,,,,,,,,,,,,,,,,,,,,,,,,,,,,,,,,,,,,,,,,,,,,,,,,,,,,,,,,,,,,,,,,,,,,,,,,,,,,,,,,,,,,,,
,,6773e0c2bb0187b6ecc2c835,2026-03-17_10h22.17.455,kallum_motion_pilot_GIST_update_2,2026.1.1,Win32,60.0240096,6773e0c2bb0187b6ecc2c835,69b92ab4aef6dee357cd729a,69b92b4fc2e49c3fcd4a30e9,0.014,0.014,0,127,127,140,1,sevenfive,,,,,,,,,,,,,,,,,,,,,,,,,,,,,,,,,,,,,,,,,,,,,,,,,,,,,,,,,,,,,,,,,,,,,,,,,,,,,,,,,,,,,,,,,,,,,,,,,,,,,,,,,,,,,,,,,,,,,,,,,,,,,,,,,,,,,,,,,
,,6773e0c2bb0187b6ecc2c835,2026-03-17_10h22.17.455,kallum_motion_pilot_GIST_update_2,2026.1.1,Win32,60.0240096,6773e0c2bb0187b6ecc2c835,69b92ab4aef6dee357cd729a,69b92b4fc2e49c3fcd4a30e9,0.014,0.014,0,128,128,108,1,sevenfive,,,,,,,,,,,,,,,,,,,,,,,,,,,,,,,,,,,,,,,,,,,,,,,,,,,,,,,,,,,,,,,,,,,,,,,,,,,,,,,,,,,,,,,,,,,,,,,,,,,,,,,,,,,,,,,,,,,,,,,,,,,,,,,,,,,,,,,,,
,,6773e0c2bb0187b6ecc2c835,2026-03-17_10h22.17.455,kallum_motion_pilot_GIST_update_2,2026.1.1,Win32,60.0240096,6773e0c2bb0187b6ecc2c835,69b92ab4aef6dee357cd729a,69b92b4fc2e49c3fcd4a30e9,0.014,0.014,0,129,129,147,1,sixeight,,,,,,,,,,,,,,,,,,,,,,,,,,,,,,,,,,,,,,,,,,,,,,,,,,,,,,,,,,,,,,,,,,,,,,,,,,,,,,,,,,,,,,,,,,,,,,,,,,,,,,,,,,,,,,,,,,,,,,,,,,,,,,,,,,,,,,,,,
,,6773e0c2bb0187b6ecc2c835,2026-03-17_10h22.17.455,kallum_motion_pilot_GIST_update_2,2026.1.1,Win32,60.0240096,6773e0c2bb0187b6ecc2c835,69b92ab4aef6dee357cd729a,69b92b4fc2e49c3fcd4a30e9,0.014,0.014,0,130,130,26,1,twoone,,,,,,,,,,,,,,,,,,,,,,,,,,,,,,,,,,,,,,,,,,,,,,,,,,,,,,,,,,,,,,,,,,,,,,,,,,,,,,,,,,,,,,,,,,,,,,,,,,,,,,,,,,,,,,,,,,,,,,,,,,,,,,,,,,,,,,,,,
,,6773e0c2bb0187b6ecc2c835,2026-03-17_10h22.17.455,kallum_motion_pilot_GIST_update_2,2026.1.1,Win32,60.0240096,6773e0c2bb0187b6ecc2c835,69b92ab4aef6dee357cd729a,69b92b4fc2e49c3fcd4a30e9,0.014,0.014,0,131,131,135,1,eightseven,,,,,,,,,,,,,,,,,,,,,,,,,,,,,,,,,,,,,,,,,,,,,,,,,,,,,,,,,,,,,,,,,,,,,,,,,,,,,,,,,,,,,,,,,,,,,,,,,,,,,,,,,,,,,,,,,,,,,,,,,,,,,,,,,,,,,,,,,
,,6773e0c2bb0187b6ecc2c835,2026-03-17_10h22.17.455,kallum_motion_pilot_GIST_update_2,2026.1.1,Win32,60.0240096,6773e0c2bb0187b6ecc2c835,69b92ab4aef6dee357cd729a,69b92b4fc2e49c3fcd4a30e9,0.014,0.014,0,132,132,55,1,fourthree,,,,,,,,,,,,,,,,,,,,,,,,,,,,,,,,,,,,,,,,,,,,,,,,,,,,,,,,,,,,,,,,,,,,,,,,,,,,,,,,,,,,,,,,,,,,,,,,,,,,,,,,,,,,,,,,,,,,,,,,,,,,,,,,,,,,,,,,,
,,6773e0c2bb0187b6ecc2c835,2026-03-17_10h22.17.455,kallum_motion_pilot_GIST_update_2,2026.1.1,Win32,60.0240096,6773e0c2bb0187b6ecc2c835,69b92ab4aef6dee357cd729a,69b92b4fc2e49c3fcd4a30e9,0.014,0.014,0,133,133,107,1,sixeight,,,,,,,,,,,,,,,,,,,,,,,,,,,,,,,,,,,,,,,,,,,,,,,,,,,,,,,,,,,,,,,,,,,,,,,,,,,,,,,,,,,,,,,,,,,,,,,,,,,,,,,,,,,,,,,,,,,,,,,,,,,,,,,,,,,,,,,,,
,,6773e0c2bb0187b6ecc2c835,2026-03-17_10h22.17.455,kallum_motion_pilot_GIST_update_2,2026.1.1,Win32,60.0240096,6773e0c2bb0187b6ecc2c835,69b92ab4aef6dee357cd729a,69b92b4fc2e49c3fcd4a30e9,0.014,0.014,0,134,134,116,1,sevenfive,,,,,,,,,,,,,,,,,,,,,,,,,,,,,,,,,,,,,,,,,,,,,,,,,,,,,,,,,,,,,,,,,,,,,,,,,,,,,,,,,,,,,,,,,,,,,,,,,,,,,,,,,,,,,,,,,,,,,,,,,,,,,,,,,,,,,,,,,
,,6773e0c2bb0187b6ecc2c835,2026-03-17_10h22.17.455,kallum_motion_pilot_GIST_update_2,2026.1.1,Win32,60.0240096,6773e0c2bb0187b6ecc2c835,69b92ab4aef6dee357cd729a,69b92b4fc2e49c3fcd4a30e9,0.014,0.014,0,135,135,11,1,twofour,,,,,,,,,,,,,,,,,,,,,,,,,,,,,,,,,,,,,,,,,,,,,,,,,,,,,,,,,,,,,,,,,,,,,,,,,,,,,,,,,,,,,,,,,,,,,,,,,,,,,,,,,,,,,,,,,,,,,,,,,,,,,,,,,,,,,,,,,
,,6773e0c2bb0187b6ecc2c835,2026-03-17_10h22.17.455,kallum_motion_pilot_GIST_update_2,2026.1.1,Win32,60.0240096,6773e0c2bb0187b6ecc2c835,69b92ab4aef6dee357cd729a,69b92b4fc2e49c3fcd4a30e9,0.014,0.014,0,136,136,156,1,sevenfive,,,,,,,,,,,,,,,,,,,,,,,,,,,,,,,,,,,,,,,,,,,,,,,,,,,,,,,,,,,,,,,,,,,,,,,,,,,,,,,,,,,,,,,,,,,,,,,,,,,,,,,,,,,,,,,,,,,,,,,,,,,,,,,,,,,,,,,,,
,,6773e0c2bb0187b6ecc2c835,2026-03-17_10h22.17.455,kallum_motion_pilot_GIST_update_2,2026.1.1,Win32,60.0240096,6773e0c2bb0187b6ecc2c835,69b92ab4aef6dee357cd729a,69b92b4fc2e49c3fcd4a30e9,0.014,0.014,0,137,137,123,1,sixeight,,,,,,,,,,,,,,,,,,,,,,,,,,,,,,,,,,,,,,,,,,,,,,,,,,,,,,,,,,,,,,,,,,,,,,,,,,,,,,,,,,,,,,,,,,,,,,,,,,,,,,,,,,,,,,,,,,,,,,,,,,,,,,,,,,,,,,,,,
,,6773e0c2bb0187b6ecc2c835,2026-03-17_10h22.17.455,kallum_motion_pilot_GIST_update_2,2026.1.1,Win32,60.0240096,6773e0c2bb0187b6ecc2c835,69b92ab4aef6dee357cd729a,69b92b4fc2e49c3fcd4a30e9,0.014,0.014,0,138,138,70,1,fourtwo,,,,,,,,,,,,,,,,,,,,,,,,,,,,,,,,,,,,,,,,,,,,,,,,,,,,,,,,,,,,,,,,,,,,,,,,,,,,,,,,,,,,,,,,,,,,,,,,,,,,,,,,,,,,,,,,,,,,,,,,,,,,,,,,,,,,,,,,,
,,6773e0c2bb0187b6ecc2c835,2026-03-17_10h22.17.455,kallum_motion_pilot_GIST_update_2,2026.1.1,Win32,60.0240096,6773e0c2bb0187b6ecc2c835,69b92ab4aef6dee357cd729a,69b92b4fc2e49c3fcd4a30e9,0.014,0.014,0,139,139,115,1,sixeight,,,,,,,,,,,,,,,,,,,,,,,,,,,,,,,,,,,,,,,,,,,,,,,,,,,,,,,,,,,,,,,,,,,,,,,,,,,,,,,,,,,,,,,,,,,,,,,,,,,,,,,,,,,,,,,,,,,,,,,,,,,,,,,,,,,,,,,,,
,,6773e0c2bb0187b6ecc2c835,2026-03-17_10h22.17.455,kallum_motion_pilot_GIST_update_2,2026.1.1,Win32,60.0240096,6773e0c2bb0187b6ecc2c835,69b92ab4aef6dee357cd729a,69b92b4fc2e49c3fcd4a30e9,0.015,0.015,0,140,140,28,1,threeone,,,,,,,,,,,,,,,,,,,,,,,,,,,,,,,,,,,,,,,,,,,,,,,,,,,,,,,,,,,,,,,,,,,,,,,,,,,,,,,,,,,,,,,,,,,,,,,,,,,,,,,,,,,,,,,,,,,,,,,,,,,,,,,,,,,,,,,,,
,,6773e0c2bb0187b6ecc2c835,2026-03-17_10h22.17.455,kallum_motion_pilot_GIST_update_2,2026.1.1,Win32,60.0240096,6773e0c2bb0187b6ecc2c835,69b92ab4aef6dee357cd729a,69b92b4fc2e49c3fcd4a30e9,0.015,0.015,0,141,141,102,1,eightsix,,,,,,,,,,,,,,,,,,,,,,,,,,,,,,,,,,,,,,,,,,,,,,,,,,,,,,,,,,,,,,,,,,,,,,,,,,,,,,,,,,,,,,,,,,,,,,,,,,,,,,,,,,,,,,,,,,,,,,,,,,,,,,,,,,,,,,,,,
,,6773e0c2bb0187b6ecc2c835,2026-03-17_10h22.17.455,kallum_motion_pilot_GIST_update_2,2026.1.1,Win32,60.0240096,6773e0c2bb0187b6ecc2c835,69b92ab4aef6dee357cd729a,69b92b4fc2e49c3fcd4a30e9,0.015,0.015,0,142,142,100,1,sevenfive,,,,,,,,,,,,,,,,,,,,,,,,,,,,,,,,,,,,,,,,,,,,,,,,,,,,,,,,,,,,,,,,,,,,,,,,,,,,,,,,,,,,,,,,,,,,,,,,,,,,,,,,,,,,,,,,,,,,,,,,,,,,,,,,,,,,,,,,,
,,6773e0c2bb0187b6ecc2c835,2026-03-17_10h22.17.455,kallum_motion_pilot_GIST_update_2,2026.1.1,Win32,60.0240096,6773e0c2bb0187b6ecc2c835,69b92ab4aef6dee357cd729a,69b92b4fc2e49c3fcd4a30e9,0.015,0.015,0,143,143,15,1,fourthree,,,,,,,,,,,,,,,,,,,,,,,,,,,,,,,,,,,,,,,,,,,,,,,,,,,,,,,,,,,,,,,,,,,,,,,,,,,,,,,,,,,,,,,,,,,,,,,,,,,,,,,,,,,,,,,,,,,,,,,,,,,,,,,,,,,,,,,,,
,,6773e0c2bb0187b6ecc2c835,2026-03-17_10h22.17.455,kallum_motion_pilot_GIST_update_2,2026.1.1,Win32,60.0240096,6773e0c2bb0187b6ecc2c835,69b92ab4aef6dee357cd729a,69b92b4fc2e49c3fcd4a30e9,0.015,0.015,0,144,144,44,1,threeone,,,,,,,,,,,,,,,,,,,,,,,,,,,,,,,,,,,,,,,,,,,,,,,,,,,,,,,,,,,,,,,,,,,,,,,,,,,,,,,,,,,,,,,,,,,,,,,,,,,,,,,,,,,,,,,,,,,,,,,,,,,,,,,,,,,,,,,,,
,,6773e0c2bb0187b6ecc2c835,2026-03-17_10h22.17.455,kallum_motion_pilot_GIST_update_2,2026.1.1,Win32,60.0240096,6773e0c2bb0187b6ecc2c835,69b92ab4aef6dee357cd729a,69b92b4fc2e49c3fcd4a30e9,0.015,0.015,0,145,145,22,1,fourtwo,,,,,,,,,,,,,,,,,,,,,,,,,,,,,,,,,,,,,,,,,,,,,,,,,,,,,,,,,,,,,,,,,,,,,,,,,,,,,,,,,,,,,,,,,,,,,,,,,,,,,,,,,,,,,,,,,,,,,,,,,,,,,,,,,,,,,,,,,
,,6773e0c2bb0187b6ecc2c835,2026-03-17_10h22.17.455,kallum_motion_pilot_GIST_update_2,2026.1.1,Win32,60.0240096,6773e0c2bb0187b6ecc2c835,69b92ab4aef6dee357cd729a,69b92b4fc2e49c3fcd4a30e9,0.015,0.015,0,146,146,127,1,eightseven,,,,,,,,,,,,,,,,,,,,,,,,,,,,,,,,,,,,,,,,,,,,,,,,,,,,,,,,,,,,,,,,,,,,,,,,,,,,,,,,,,,,,,,,,,,,,,,,,,,,,,,,,,,,,,,,,,,,,,,,,,,,,,,,,,,,,,,,,
,,6773e0c2bb0187b6ecc2c835,2026-03-17_10h22.17.455,kallum_motion_pilot_GIST_update_2,2026.1.1,Win32,60.0240096,6773e0c2bb0187b6ecc2c835,69b92ab4aef6dee357cd729a,69b92b4fc2e49c3fcd4a30e9,0.015,0.015,0,147,147,132,1,sevenfive,,,,,,,,,,,,,,,,,,,,,,,,,,,,,,,,,,,,,,,,,,,,,,,,,,,,,,,,,,,,,,,,,,,,,,,,,,,,,,,,,,,,,,,,,,,,,,,,,,,,,,,,,,,,,,,,,,,,,,,,,,,,,,,,,,,,,,,,,
,,6773e0c2bb0187b6ecc2c835,2026-03-17_10h22.17.455,kallum_motion_pilot_GIST_update_2,2026.1.1,Win32,60.0240096,6773e0c2bb0187b6ecc2c835,69b92ab4aef6dee357cd729a,69b92b4fc2e49c3fcd4a30e9,0.015,0.015,0,148,148,124,1,sevenfive,,,,,,,,,,,,,,,,,,,,,,,,,,,,,,,,,,,,,,,,,,,,,,,,,,,,,,,,,,,,,,,,,,,,,,,,,,,,,,,,,,,,,,,,,,,,,,,,,,,,,,,,,,,,,,,,,,,,,,,,,,,,,,,,,,,,,,,,,
,,6773e0c2bb0187b6ecc2c835,2026-03-17_10h22.17.455,kallum_motion_pilot_GIST_update_2,2026.1.1,Win32,60.0240096,6773e0c2bb0187b6ecc2c835,69b92ab4aef6dee357cd729a,69b92b4fc2e49c3fcd4a30e9,0.015,0.015,0,149,149,24,1,onetwo,,,,,,,,,,,,,,,,,,,,,,,,,,,,,,,,,,,,,,,,,,,,,,,,,,,,,,,,,,,,,,,,,,,,,,,,,,,,,,,,,,,,,,,,,,,,,,,,,,,,,,,,,,,,,,,,,,,,,,,,,,,,,,,,,,,,,,,,,
,,6773e0c2bb0187b6ecc2c835,2026-03-17_10h22.17.455,kallum_motion_pilot_GIST_update_2,2026.1.1,Win32,60.0240096,6773e0c2bb0187b6ecc2c835,69b92ab4aef6dee357cd729a,69b92b4fc2e49c3fcd4a30e9,0.015,0.015,0,150,150,91,1,sixeight,,,,,,,,,,,,,,,,,,,,,,,,,,,,,,,,,,,,,,,,,,,,,,,,,,,,,,,,,,,,,,,,,,,,,,,,,,,,,,,,,,,,,,,,,,,,,,,,,,,,,,,,,,,,,,,,,,,,,,,,,,,,,,,,,,,,,,,,,
,,6773e0c2bb0187b6ecc2c835,2026-03-17_10h22.17.455,kallum_motion_pilot_GIST_update_2,2026.1.1,Win32,60.0240096,6773e0c2bb0187b6ecc2c835,69b92ab4aef6dee357cd729a,69b92b4fc2e49c3fcd4a30e9,0.015,0.015,0,151,151,99,1,sixeight,,,,,,,,,,,,,,,,,,,,,,,,,,,,,,,,,,,,,,,,,,,,,,,,,,,,,,,,,,,,,,,,,,,,,,,,,,,,,,,,,,,,,,,,,,,,,,,,,,,,,,,,,,,,,,,,,,,,,,,,,,,,,,,,,,,,,,,,,
,,6773e0c2bb0187b6ecc2c835,2026-03-17_10h22.17.455,kallum_motion_pilot_GIST_update_2,2026.1.1,Win32,60.0240096,6773e0c2bb0187b6ecc2c835,69b92ab4aef6dee357cd729a,69b92b4fc2e49c3fcd4a30e9,0.015,0.015,0,152,152,32,1,onetwo,,,,,,,,,,,,,,,,,,,,,,,,,,,,,,,,,,,,,,,,,,,,,,,,,,,,,,,,,,,,,,,,,,,,,,,,,,,,,,,,,,,,,,,,,,,,,,,,,,,,,,,,,,,,,,,,,,,,,,,,,,,,,,,,,,,,,,,,,
,,6773e0c2bb0187b6ecc2c835,2026-03-17_10h22.17.455,kallum_motion_pilot_GIST_update_2,2026.1.1,Win32,60.0240096,6773e0c2bb0187b6ecc2c835,69b92ab4aef6dee357cd729a,69b92b4fc2e49c3fcd4a30e9,0.015,0.015,0,153,153,29,1,threefour,,,,,,,,,,,,,,,,,,,,,,,,,,,,,,,,,,,,,,,,,,,,,,,,,,,,,,,,,,,,,,,,,,,,,,,,,,,,,,,,,,,,,,,,,,,,,,,,,,,,,,,,,,,,,,,,,,,,,,,,,,,,,,,,,,,,,,,,,
,,6773e0c2bb0187b6ecc2c835,2026-03-17_10h22.17.455,kallum_motion_pilot_GIST_update_2,2026.1.1,Win32,60.0240096,6773e0c2bb0187b6ecc2c835,69b92ab4aef6dee357cd729a,69b92b4fc2e49c3fcd4a30e9,0.015,0.015,0,154,154,139,1,sixeight,,,,,,,,,,,,,,,,,,,,,,,,,,,,,,,,,,,,,,,,,,,,,,,,,,,,,,,,,,,,,,,,,,,,,,,,,,,,,,,,,,,,,,,,,,,,,,,,,,,,,,,,,,,,,,,,,,,,,,,,,,,,,,,,,,,,,,,,,
,,6773e0c2bb0187b6ecc2c835,2026-03-17_10h22.17.455,kallum_motion_pilot_GIST_update_2,2026.1.1,Win32,60.0240096,6773e0c2bb0187b6ecc2c835,69b92ab4aef6dee357cd729a,69b92b4fc2e49c3fcd4a30e9,0.015,0.015,0,155,155,96,1,fivesix,,,,,,,,,,,,,,,,,,,,,,,,,,,,,,,,,,,,,,,,,,,,,,,,,,,,,,,,,,,,,,,,,,,,,,,,,,,,,,,,,,,,,,,,,,,,,,,,,,,,,,,,,,,,,,,,,,,,,,,,,,,,,,,,,,,,,,,,,
,,6773e0c2bb0187b6ecc2c835,2026-03-17_10h22.17.455,kallum_motion_pilot_GIST_update_2,2026.1.1,Win32,60.0240096,6773e0c2bb0187b6ecc2c835,69b92ab4aef6dee357cd729a,69b92b4fc2e49c3fcd4a30e9,0.015,0.015,0,156,156,128,1,fivesix,,,,,,,,,,,,,,,,,,,,,,,,,,,,,,,,,,,,,,,,,,,,,,,,,,,,,,,,,,,,,,,,,,,,,,,,,,,,,,,,,,,,,,,,,,,,,,,,,,,,,,,,,,,,,,,,,,,,,,,,,,,,,,,,,,,,,,,,,
,,6773e0c2bb0187b6ecc2c835,2026-03-17_10h22.17.455,kallum_motion_pilot_GIST_update_2,2026.1.1,Win32,60.0240096,6773e0c2bb0187b6ecc2c835,69b92ab4aef6dee357cd729a,69b92b4fc2e49c3fcd4a30e9,0.015,0.015,0,157,157,157,1,seveneight,,,,,,,,,,,,,,,,,,,,,,,,,,,,,,,,,,,,,,,,,,,,,,,,,,,,,,,,,,,,,,,,,,,,,,,,,,,,,,,,,,,,,,,,,,,,,,,,,,,,,,,,,,,,,,,,,,,,,,,,,,,,,,,,,,,,,,,,,
,,6773e0c2bb0187b6ecc2c835,2026-03-17_10h22.17.455,kallum_motion_pilot_GIST_update_2,2026.1.1,Win32,60.0240096,6773e0c2bb0187b6ecc2c835,69b92ab4aef6dee357cd729a,69b92b4fc2e49c3fcd4a30e9,0.015,0.015,0,158,158,112,1,fivesix,,,,,,,,,,,,,,,,,,,,,,,,,,,,,,,,,,,,,,,,,,,,,,,,,,,,,,,,,,,,,,,,,,,,,,,,,,,,,,,,,,,,,,,,,,,,,,,,,,,,,,,,,,,,,,,,,,,,,,,,,,,,,,,,,,,,,,,,,
,,6773e0c2bb0187b6ecc2c835,2026-03-17_10h22.17.455,kallum_motion_pilot_GIST_update_2,2026.1.1,Win32,60.0240096,6773e0c2bb0187b6ecc2c835,69b92ab4aef6dee357cd729a,69b92b4fc2e49c3fcd4a30e9,0.015,0.015,0,159,159,47,1,fourthree,,,,,,,,,,,,,,,,,,,,,,,,,,,,,,,,,,,,,,,,,,,,,,,,,,,,,,,,,,,,,,,,,,,,,,,,,,,,,,,,,,,,,,,,,,,,,,,,,,,,,,,,,,,,,,,,,,,,,,,,,,,,,,,,,,,,,,,,,
,,6773e0c2bb0187b6ecc2c835,2026-03-17_10h22.17.455,kallum_motion_pilot_GIST_update_2,2026.1.1,Win32,60.0240096,6773e0c2bb0187b6ecc2c835,69b92ab4aef6dee357cd729a,69b92b4fc2e49c3fcd4a30e9,0.015,0.015,0,160,160,34,1,twoone,,,,,,,,,,,,,,,,,,,,,,,,,,,,,,,,,,,,,,,,,,,,,,,,,,,,,,,,,,,,,,,,,,,,,,,,,,,,,,,,,,,,,,,,,,,,,,,,,,,,,,,,,,,,,,,,,,,,,,,,,,,,,,,,,,,,,,,,,
,,6773e0c2bb0187b6ecc2c835,2026-03-17_10h22.17.455,kallum_motion_pilot_GIST_update_2,2026.1.1,Win32,60.0240096,6773e0c2bb0187b6ecc2c835,69b92ab4aef6dee357cd729a,69b92b4fc2e49c3fcd4a30e9,0.015,0.015,0,161,161,71,1,fourthree,,,,,,,,,,,,,,,,,,,,,,,,,,,,,,,,,,,,,,,,,,,,,,,,,,,,,,,,,,,,,,,,,,,,,,,,,,,,,,,,,,,,,,,,,,,,,,,,,,,,,,,,,,,,,,,,,,,,,,,,,,,,,,,,,,,,,,,,,
,,6773e0c2bb0187b6ecc2c835,2026-03-17_10h22.17.455,kallum_motion_pilot_GIST_update_2,2026.1.1,Win32,60.0240096,6773e0c2bb0187b6ecc2c835,69b92ab4aef6dee357cd729a,69b92b4fc2e49c3fcd4a30e9,0.015,0.015,1,0,162,132,1,sevenfive,,,,,,,,,,,,,,,,,,,,,,,,,,,,,,,,,,,,,,,,,,,,,,,,,,,,,,,,,,,,,,,,,,,,,,,,,,,,,,,,,,,,,,,,,,,,,,,,,,,,,,,,,,,,,,,,,,,,,,,,,,,,,,,,,,,,,,,,,
,,6773e0c2bb0187b6ecc2c835,2026-03-17_10h22.17.455,kallum_motion_pilot_GIST_update_2,2026.1.1,Win32,60.0240096,6773e0c2bb0187b6ecc2c835,69b92ab4aef6dee357cd729a,69b92b4fc2e49c3fcd4a30e9,0.015,0.015,1,1,163,17,1,onethree,,,,,,,,,,,,,,,,,,,,,,,,,,,,,,,,,,,,,,,,,,,,,,,,,,,,,,,,,,,,,,,,,,,,,,,,,,,,,,,,,,,,,,,,,,,,,,,,,,,,,,,,,,,,,,,,,,,,,,,,,,,,,,,,,,,,,,,,,
,,6773e0c2bb0187b6ecc2c835,2026-03-17_10h22.17.455,kallum_motion_pilot_GIST_update_2,2026.1.1,Win32,60.0240096,6773e0c2bb0187b6ecc2c835,69b92ab4aef6dee357cd729a,69b92b4fc2e49c3fcd4a30e9,0.015,0.015,1,2,164,102,1,eightsix,,,,,,,,,,,,,,,,,,,,,,,,,,,,,,,,,,,,,,,,,,,,,,,,,,,,,,,,,,,,,,,,,,,,,,,,,,,,,,,,,,,,,,,,,,,,,,,,,,,,,,,,,,,,,,,,,,,,,,,,,,,,,,,,,,,,,,,,,
,,6773e0c2bb0187b6ecc2c835,2026-03-17_10h22.17.455,kallum_motion_pilot_GIST_update_2,2026.1.1,Win32,60.0240096,6773e0c2bb0187b6ecc2c835,69b92ab4aef6dee357cd729a,69b92b4fc2e49c3fcd4a30e9,0.015,0.015,1,3,165,120,1,fivesix,,,,,,,,,,,,,,,,,,,,,,,,,,,,,,,,,,,,,,,,,,,,,,,,,,,,,,,,,,,,,,,,,,,,,,,,,,,,,,,,,,,,,,,,,,,,,,,,,,,,,,,,,,,,,,,,,,,,,,,,,,,,,,,,,,,,,,,,,
,,6773e0c2bb0187b6ecc2c835,2026-03-17_10h22.17.455,kallum_motion_pilot_GIST_update_2,2026.1.1,Win32,60.0240096,6773e0c2bb0187b6ecc2c835,69b92ab4aef6dee357cd729a,69b92b4fc2e49c3fcd4a30e9,0.015,0.015,1,4,166,157,1,seveneight,,,,,,,,,,,,,,,,,,,,,,,,,,,,,,,,,,,,,,,,,,,,,,,,,,,,,,,,,,,,,,,,,,,,,,,,,,,,,,,,,,,,,,,,,,,,,,,,,,,,,,,,,,,,,,,,,,,,,,,,,,,,,,,,,,,,,,,,,
,,6773e0c2bb0187b6ecc2c835,2026-03-17_10h22.17.455,kallum_motion_pilot_GIST_update_2,2026.1.1,Win32,60.0240096,6773e0c2bb0187b6ecc2c835,69b92ab4aef6dee357cd729a,69b92b4fc2e49c3fcd4a30e9,0.015,0.015,1,5,167,144,1,fivesix,,,,,,,,,,,,,,,,,,,,,,,,,,,,,,,,,,,,,,,,,,,,,,,,,,,,,,,,,,,,,,,,,,,,,,,,,,,,,,,,,,,,,,,,,,,,,,,,,,,,,,,,,,,,,,,,,,,,,,,,,,,,,,,,,,,,,,,,,
,,6773e0c2bb0187b6ecc2c835,2026-03-17_10h22.17.455,kallum_motion_pilot_GIST_update_2,2026.1.1,Win32,60.0240096,6773e0c2bb0187b6ecc2c835,69b92ab4aef6dee357cd729a,69b92b4fc2e49c3fcd4a30e9,0.015,0.015,1,6,168,130,1,sixfive,,,,,,,,,,,,,,,,,,,,,,,,,,,,,,,,,,,,,,,,,,,,,,,,,,,,,,,,,,,,,,,,,,,,,,,,,,,,,,,,,,,,,,,,,,,,,,,,,,,,,,,,,,,,,,,,,,,,,,,,,,,,,,,,,,,,,,,,,
,,6773e0c2bb0187b6ecc2c835,2026-03-17_10h22.17.455,kallum_motion_pilot_GIST_update_2,2026.1.1,Win32,60.0240096,6773e0c2bb0187b6ecc2c835,69b92ab4aef6dee357cd729a,69b92b4fc2e49c3fcd4a30e9,0.015,0.015,1,7,169,30,1,fourtwo,,,,,,,,,,,,,,,,,,,,,,,,,,,,,,,,,,,,,,,,,,,,,,,,,,,,,,,,,,,,,,,,,,,,,,,,,,,,,,,,,,,,,,,,,,,,,,,,,,,,,,,,,,,,,,,,,,,,,,,,,,,,,,,,,,,,,,,,,
,,6773e0c2bb0187b6ecc2c835,2026-03-17_10h22.17.455,kallum_motion_pilot_GIST_update_2,2026.1.1,Win32,60.0240096,6773e0c2bb0187b6ecc2c835,69b92ab4aef6dee357cd729a,69b92b4fc2e49c3fcd4a30e9,0.015,0.015,1,8,170,56,1,onetwo,,,,,,,,,,,,,,,,,,,,,,,,,,,,,,,,,,,,,,,,,,,,,,,,,,,,,,,,,,,,,,,,,,,,,,,,,,,,,,,,,,,,,,,,,,,,,,,,,,,,,,,,,,,,,,,,,,,,,,,,,,,,,,,,,,,,,,,,,
,,6773e0c2bb0187b6ecc2c835,2026-03-17_10h22.17.455,kallum_motion_pilot_GIST_update_2,2026.1.1,Win32,60.0240096,6773e0c2bb0187b6ecc2c835,69b92ab4aef6dee357cd729a,69b92b4fc2e49c3fcd4a30e9,0.015,0.015,1,9,171,88,1,fivesix,,,,,,,,,,,,,,,,,,,,,,,,,,,,,,,,,,,,,,,,,,,,,,,,,,,,,,,,,,,,,,,,,,,,,,,,,,,,,,,,,,,,,,,,,,,,,,,,,,,,,,,,,,,,,,,,,,,,,,,,,,,,,,,,,,,,,,,,,
,,6773e0c2bb0187b6ecc2c835,2026-03-17_10h22.17.455,kallum_motion_pilot_GIST_update_2,2026.1.1,Win32,60.0240096,6773e0c2bb0187b6ecc2c835,69b92ab4aef6dee357cd729a,69b92b4fc2e49c3fcd4a30e9,0.015,0.015,1,10,172,60,1,threeone,,,,,,,,,,,,,,,,,,,,,,,,,,,,,,,,,,,,,,,,,,,,,,,,,,,,,,,,,,,,,,,,,,,,,,,,,,,,,,,,,,,,,,,,,,,,,,,,,,,,,,,,,,,,,,,,,,,,,,,,,,,,,,,,,,,,,,,,,
,,6773e0c2bb0187b6ecc2c835,2026-03-17_10h22.17.455,kallum_motion_pilot_GIST_update_2,2026.1.1,Win32,60.0240096,6773e0c2bb0187b6ecc2c835,69b92ab4aef6dee357cd729a,69b92b4fc2e49c3fcd4a30e9,0.015,0.015,1,11,173,35,1,twofour,,,,,,,,,,,,,,,,,,,,,,,,,,,,,,,,,,,,,,,,,,,,,,,,,,,,,,,,,,,,,,,,,,,,,,,,,,,,,,,,,,,,,,,,,,,,,,,,,,,,,,,,,,,,,,,,,,,,,,,,,,,,,,,,,,,,,,,,,
,,6773e0c2bb0187b6ecc2c835,2026-03-17_10h22.17.455,kallum_motion_pilot_GIST_update_2,2026.1.1,Win32,60.0240096,6773e0c2bb0187b6ecc2c835,69b92ab4aef6dee357cd729a,69b92b4fc2e49c3fcd4a30e9,0.015,0.015,1,12,174,156,1,sevenfive,,,,,,,,,,,,,,,,,,,,,,,,,,,,,,,,,,,,,,,,,,,,,,,,,,,,,,,,,,,,,,,,,,,,,,,,,,,,,,,,,,,,,,,,,,,,,,,,,,,,,,,,,,,,,,,,,,,,,,,,,,,,,,,,,,,,,,,,,
,,6773e0c2bb0187b6ecc2c835,2026-03-17_10h22.17.455,kallum_motion_pilot_GIST_update_2,2026.1.1,Win32,60.0240096,6773e0c2bb0187b6ecc2c835,69b92ab4aef6dee357cd729a,69b92b4fc2e49c3fcd4a30e9,0.015,0.015,1,13,175,116,1,sevenfive,,,,,,,,,,,,,,,,,,,,,,,,,,,,,,,,,,,,,,,,,,,,,,,,,,,,,,,,,,,,,,,,,,,,,,,,,,,,,,,,,,,,,,,,,,,,,,,,,,,,,,,,,,,,,,,,,,,,,,,,,,,,,,,,,,,,,,,,,
,,6773e0c2bb0187b6ecc2c835,2026-03-17_10h22.17.455,kallum_motion_pilot_GIST_update_2,2026.1.1,Win32,60.0240096,6773e0c2bb0187b6ecc2c835,69b92ab4aef6dee357cd729a,69b92b4fc2e49c3fcd4a30e9,0.015,0.015,1,14,176,77,1,threefour,,,,,,,,,,,,,,,,,,,,,,,,,,,,,,,,,,,,,,,,,,,,,,,,,,,,,,,,,,,,,,,,,,,,,,,,,,,,,,,,,,,,,,,,,,,,,,,,,,,,,,,,,,,,,,,,,,,,,,,,,,,,,,,,,,,,,,,,,
,,6773e0c2bb0187b6ecc2c835,2026-03-17_10h22.17.455,kallum_motion_pilot_GIST_update_2,2026.1.1,Win32,60.0240096,6773e0c2bb0187b6ecc2c835,69b92ab4aef6dee357cd729a,69b92b4fc2e49c3fcd4a30e9,0.015,0.015,1,15,177,127,1,eightseven,,,,,,,,,,,,,,,,,,,,,,,,,,,,,,,,,,,,,,,,,,,,,,,,,,,,,,,,,,,,,,,,,,,,,,,,,,,,,,,,,,,,,,,,,,,,,,,,,,,,,,,,,,,,,,,,,,,,,,,,,,,,,,,,,,,,,,,,,
,,6773e0c2bb0187b6ecc2c835,2026-03-17_10h22.17.455,kallum_motion_pilot_GIST_update_2,2026.1.1,Win32,60.0240096,6773e0c2bb0187b6ecc2c835,69b92ab4aef6dee357cd729a,69b92b4fc2e49c3fcd4a30e9,0.015,0.015,1,16,178,151,1,eightseven,,,,,,,,,,,,,,,,,,,,,,,,,,,,,,,,,,,,,,,,,,,,,,,,,,,,,,,,,,,,,,,,,,,,,,,,,,,,,,,,,,,,,,,,,,,,,,,,,,,,,,,,,,,,,,,,,,,,,,,,,,,,,,,,,,,,,,,,,
,,6773e0c2bb0187b6ecc2c835,2026-03-17_10h22.17.455,kallum_motion_pilot_GIST_update_2,2026.1.1,Win32,60.0240096,6773e0c2bb0187b6ecc2c835,69b92ab4aef6dee357cd729a,69b92b4fc2e49c3fcd4a30e9,0.015,0.015,1,17,179,110,1,eightsix,,,,,,,,,,,,,,,,,,,,,,,,,,,,,,,,,,,,,,,,,,,,,,,,,,,,,,,,,,,,,,,,,,,,,,,,,,,,,,,,,,,,,,,,,,,,,,,,,,,,,,,,,,,,,,,,,,,,,,,,,,,,,,,,,,,,,,,,,
,,6773e0c2bb0187b6ecc2c835,2026-03-17_10h22.17.455,kallum_motion_pilot_GIST_update_2,2026.1.1,Win32,60.0240096,6773e0c2bb0187b6ecc2c835,69b92ab4aef6dee357cd729a,69b92b4fc2e49c3fcd4a30e9,0.015,0.015,1,18,180,57,1,onethree,,,,,,,,,,,,,,,,,,,,,,,,,,,,,,,,,,,,,,,,,,,,,,,,,,,,,,,,,,,,,,,,,,,,,,,,,,,,,,,,,,,,,,,,,,,,,,,,,,,,,,,,,,,,,,,,,,,,,,,,,,,,,,,,,,,,,,,,,
,,6773e0c2bb0187b6ecc2c835,2026-03-17_10h22.17.455,kallum_motion_pilot_GIST_update_2,2026.1.1,Win32,60.0240096,6773e0c2bb0187b6ecc2c835,69b92ab4aef6dee357cd729a,69b92b4fc2e49c3fcd4a30e9,0.015,0.015,1,19,181,64,1,onetwo,,,,,,,,,,,,,,,,,,,,,,,,,,,,,,,,,,,,,,,,,,,,,,,,,,,,,,,,,,,,,,,,,,,,,,,,,,,,,,,,,,,,,,,,,,,,,,,,,,,,,,,,,,,,,,,,,,,,,,,,,,,,,,,,,,,,,,,,,
,,6773e0c2bb0187b6ecc2c835,2026-03-17_10h22.17.455,kallum_motion_pilot_GIST_update_2,2026.1.1,Win32,60.0240096,6773e0c2bb0187b6ecc2c835,69b92ab4aef6dee357cd729a,69b92b4fc2e49c3fcd4a30e9,0.016,0.016,1,20,182,5,1,threefour,,,,,,,,,,,,,,,,,,,,,,,,,,,,,,,,,,,,,,,,,,,,,,,,,,,,,,,,,,,,,,,,,,,,,,,,,,,,,,,,,,,,,,,,,,,,,,,,,,,,,,,,,,,,,,,,,,,,,,,,,,,,,,,,,,,,,,,,,
,,6773e0c2bb0187b6ecc2c835,2026-03-17_10h22.17.455,kallum_motion_pilot_GIST_update_2,2026.1.1,Win32,60.0240096,6773e0c2bb0187b6ecc2c835,69b92ab4aef6dee357cd729a,69b92b4fc2e49c3fcd4a30e9,0.016,0.016,1,21,183,9,1,onethree,,,,,,,,,,,,,,,,,,,,,,,,,,,,,,,,,,,,,,,,,,,,,,,,,,,,,,,,,,,,,,,,,,,,,,,,,,,,,,,,,,,,,,,,,,,,,,,,,,,,,,,,,,,,,,,,,,,,,,,,,,,,,,,,,,,,,,,,,
,,6773e0c2bb0187b6ecc2c835,2026-03-17_10h22.17.455,kallum_motion_pilot_GIST_update_2,2026.1.1,Win32,60.0240096,6773e0c2bb0187b6ecc2c835,69b92ab4aef6dee357cd729a,69b92b4fc2e49c3fcd4a30e9,0.016,0.016,1,22,184,80,1,fivesix,,,,,,,,,,,,,,,,,,,,,,,,,,,,,,,,,,,,,,,,,,,,,,,,,,,,,,,,,,,,,,,,,,,,,,,,,,,,,,,,,,,,,,,,,,,,,,,,,,,,,,,,,,,,,,,,,,,,,,,,,,,,,,,,,,,,,,,,,
,,6773e0c2bb0187b6ecc2c835,2026-03-17_10h22.17.455,kallum_motion_pilot_GIST_update_2,2026.1.1,Win32,60.0240096,6773e0c2bb0187b6ecc2c835,69b92ab4aef6dee357cd729a,69b92b4fc2e49c3fcd4a30e9,0.016,0.016,1,23,185,153,1,fiveseven,,,,,,,,,,,,,,,,,,,,,,,,,,,,,,,,,,,,,,,,,,,,,,,,,,,,,,,,,,,,,,,,,,,,,,,,,,,,,,,,,,,,,,,,,,,,,,,,,,,,,,,,,,,,,,,,,,,,,,,,,,,,,,,,,,,,,,,,,
,,6773e0c2bb0187b6ecc2c835,2026-03-17_10h22.17.455,kallum_motion_pilot_GIST_update_2,2026.1.1,Win32,60.0240096,6773e0c2bb0187b6ecc2c835,69b92ab4aef6dee357cd729a,69b92b4fc2e49c3fcd4a30e9,0.016,0.016,1,24,186,134,1,eightsix,,,,,,,,,,,,,,,,,,,,,,,,,,,,,,,,,,,,,,,,,,,,,,,,,,,,,,,,,,,,,,,,,,,,,,,,,,,,,,,,,,,,,,,,,,,,,,,,,,,,,,,,,,,,,,,,,,,,,,,,,,,,,,,,,,,,,,,,,
,,6773e0c2bb0187b6ecc2c835,2026-03-17_10h22.17.455,kallum_motion_pilot_GIST_update_2,2026.1.1,Win32,60.0240096,6773e0c2bb0187b6ecc2c835,69b92ab4aef6dee357cd729a,69b92b4fc2e49c3fcd4a30e9,0.016,0.016,1,25,187,10,1,twoone,,,,,,,,,,,,,,,,,,,,,,,,,,,,,,,,,,,,,,,,,,,,,,,,,,,,,,,,,,,,,,,,,,,,,,,,,,,,,,,,,,,,,,,,,,,,,,,,,,,,,,,,,,,,,,,,,,,,,,,,,,,,,,,,,,,,,,,,,
,,6773e0c2bb0187b6ecc2c835,2026-03-17_10h22.17.455,kallum_motion_pilot_GIST_update_2,2026.1.1,Win32,60.0240096,6773e0c2bb0187b6ecc2c835,69b92ab4aef6dee357cd729a,69b92b4fc2e49c3fcd4a30e9,0.016,0.016,1,26,188,27,1,twofour,,,,,,,,,,,,,,,,,,,,,,,,,,,,,,,,,,,,,,,,,,,,,,,,,,,,,,,,,,,,,,,,,,,,,,,,,,,,,,,,,,,,,,,,,,,,,,,,,,,,,,,,,,,,,,,,,,,,,,,,,,,,,,,,,,,,,,,,,
,,6773e0c2bb0187b6ecc2c835,2026-03-17_10h22.17.455,kallum_motion_pilot_GIST_update_2,2026.1.1,Win32,60.0240096,6773e0c2bb0187b6ecc2c835,69b92ab4aef6dee357cd729a,69b92b4fc2e49c3fcd4a30e9,0.016,0.016,1,27,189,51,1,twofour,,,,,,,,,,,,,,,,,,,,,,,,,,,,,,,,,,,,,,,,,,,,,,,,,,,,,,,,,,,,,,,,,,,,,,,,,,,,,,,,,,,,,,,,,,,,,,,,,,,,,,,,,,,,,,,,,,,,,,,,,,,,,,,,,,,,,,,,,
,,6773e0c2bb0187b6ecc2c835,2026-03-17_10h22.17.455,kallum_motion_pilot_GIST_update_2,2026.1.1,Win32,60.0240096,6773e0c2bb0187b6ecc2c835,69b92ab4aef6dee357cd729a,69b92b4fc2e49c3fcd4a30e9,0.016,0.016,1,28,190,101,1,seveneight,,,,,,,,,,,,,,,,,,,,,,,,,,,,,,,,,,,,,,,,,,,,,,,,,,,,,,,,,,,,,,,,,,,,,,,,,,,,,,,,,,,,,,,,,,,,,,,,,,,,,,,,,,,,,,,,,,,,,,,,,,,,,,,,,,,,,,,,,
,,6773e0c2bb0187b6ecc2c835,2026-03-17_10h22.17.455,kallum_motion_pilot_GIST_update_2,2026.1.1,Win32,60.0240096,6773e0c2bb0187b6ecc2c835,69b92ab4aef6dee357cd729a,69b92b4fc2e49c3fcd4a30e9,0.016,0.016,1,29,191,66,1,twoone,,,,,,,,,,,,,,,,,,,,,,,,,,,,,,,,,,,,,,,,,,,,,,,,,,,,,,,,,,,,,,,,,,,,,,,,,,,,,,,,,,,,,,,,,,,,,,,,,,,,,,,,,,,,,,,,,,,,,,,,,,,,,,,,,,,,,,,,,
,,6773e0c2bb0187b6ecc2c835,2026-03-17_10h22.17.455,kallum_motion_pilot_GIST_update_2,2026.1.1,Win32,60.0240096,6773e0c2bb0187b6ecc2c835,69b92ab4aef6dee357cd729a,69b92b4fc2e49c3fcd4a30e9,0.016,0.016,1,30,192,103,1,eightseven,,,,,,,,,,,,,,,,,,,,,,,,,,,,,,,,,,,,,,,,,,,,,,,,,,,,,,,,,,,,,,,,,,,,,,,,,,,,,,,,,,,,,,,,,,,,,,,,,,,,,,,,,,,,,,,,,,,,,,,,,,,,,,,,,,,,,,,,,
,,6773e0c2bb0187b6ecc2c835,2026-03-17_10h22.17.455,kallum_motion_pilot_GIST_update_2,2026.1.1,Win32,60.0240096,6773e0c2bb0187b6ecc2c835,69b92ab4aef6dee357cd729a,69b92b4fc2e49c3fcd4a30e9,0.016,0.016,1,31,193,89,1,fiveseven,,,,,,,,,,,,,,,,,,,,,,,,,,,,,,,,,,,,,,,,,,,,,,,,,,,,,,,,,,,,,,,,,,,,,,,,,,,,,,,,,,,,,,,,,,,,,,,,,,,,,,,,,,,,,,,,,,,,,,,,,,,,,,,,,,,,,,,,,
,,6773e0c2bb0187b6ecc2c835,2026-03-17_10h22.17.455,kallum_motion_pilot_GIST_update_2,2026.1.1,Win32,60.0240096,6773e0c2bb0187b6ecc2c835,69b92ab4aef6dee357cd729a,69b92b4fc2e49c3fcd4a30e9,0.016,0.016,1,32,194,104,1,fivesix,,,,,,,,,,,,,,,,,,,,,,,,,,,,,,,,,,,,,,,,,,,,,,,,,,,,,,,,,,,,,,,,,,,,,,,,,,,,,,,,,,,,,,,,,,,,,,,,,,,,,,,,,,,,,,,,,,,,,,,,,,,,,,,,,,,,,,,,,
,,6773e0c2bb0187b6ecc2c835,2026-03-17_10h22.17.455,kallum_motion_pilot_GIST_update_2,2026.1.1,Win32,60.0240096,6773e0c2bb0187b6ecc2c835,69b92ab4aef6dee357cd729a,69b92b4fc2e49c3fcd4a30e9,0.016,0.016,1,33,195,90,1,sixfive,,,,,,,,,,,,,,,,,,,,,,,,,,,,,,,,,,,,,,,,,,,,,,,,,,,,,,,,,,,,,,,,,,,,,,,,,,,,,,,,,,,,,,,,,,,,,,,,,,,,,,,,,,,,,,,,,,,,,,,,,,,,,,,,,,,,,,,,,
,,6773e0c2bb0187b6ecc2c835,2026-03-17_10h22.17.455,kallum_motion_pilot_GIST_update_2,2026.1.1,Win32,60.0240096,6773e0c2bb0187b6ecc2c835,69b92ab4aef6dee357cd729a,69b92b4fc2e49c3fcd4a30e9,0.016,0.016,1,34,196,49,1,onethree,,,,,,,,,,,,,,,,,,,,,,,,,,,,,,,,,,,,,,,,,,,,,,,,,,,,,,,,,,,,,,,,,,,,,,,,,,,,,,,,,,,,,,,,,,,,,,,,,,,,,,,,,,,,,,,,,,,,,,,,,,,,,,,,,,,,,,,,,
,,6773e0c2bb0187b6ecc2c835,2026-03-17_10h22.17.455,kallum_motion_pilot_GIST_update_2,2026.1.1,Win32,60.0240096,6773e0c2bb0187b6ecc2c835,69b92ab4aef6dee357cd729a,69b92b4fc2e49c3fcd4a30e9,0.016,0.016,1,35,197,46,1,fourtwo,,,,,,,,,,,,,,,,,,,,,,,,,,,,,,,,,,,,,,,,,,,,,,,,,,,,,,,,,,,,,,,,,,,,,,,,,,,,,,,,,,,,,,,,,,,,,,,,,,,,,,,,,,,,,,,,,,,,,,,,,,,,,,,,,,,,,,,,,
,,6773e0c2bb0187b6ecc2c835,2026-03-17_10h22.17.455,kallum_motion_pilot_GIST_update_2,2026.1.1,Win32,60.0240096,6773e0c2bb0187b6ecc2c835,69b92ab4aef6dee357cd729a,69b92b4fc2e49c3fcd4a30e9,0.016,0.016,1,36,198,37,1,threefour,,,,,,,,,,,,,,,,,,,,,,,,,,,,,,,,,,,,,,,,,,,,,,,,,,,,,,,,,,,,,,,,,,,,,,,,,,,,,,,,,,,,,,,,,,,,,,,,,,,,,,,,,,,,,,,,,,,,,,,,,,,,,,,,,,,,,,,,,
,,6773e0c2bb0187b6ecc2c835,2026-03-17_10h22.17.455,kallum_motion_pilot_GIST_update_2,2026.1.1,Win32,60.0240096,6773e0c2bb0187b6ecc2c835,69b92ab4aef6dee357cd729a,69b92b4fc2e49c3fcd4a30e9,0.016,0.016,1,37,199,38,1,fourtwo,,,,,,,,,,,,,,,,,,,,,,,,,,,,,,,,,,,,,,,,,,,,,,,,,,,,,,,,,,,,,,,,,,,,,,,,,,,,,,,,,,,,,,,,,,,,,,,,,,,,,,,,,,,,,,,,,,,,,,,,,,,,,,,,,,,,,,,,,
,,6773e0c2bb0187b6ecc2c835,2026-03-17_10h22.17.455,kallum_motion_pilot_GIST_update_2,2026.1.1,Win32,60.0240096,6773e0c2bb0187b6ecc2c835,69b92ab4aef6dee357cd729a,69b92b4fc2e49c3fcd4a30e9,0.016,0.016,1,38,200,58,1,twoone,,,,,,,,,,,,,,,,,,,,,,,,,,,,,,,,,,,,,,,,,,,,,,,,,,,,,,,,,,,,,,,,,,,,,,,,,,,,,,,,,,,,,,,,,,,,,,,,,,,,,,,,,,,,,,,,,,,,,,,,,,,,,,,,,,,,,,,,,
,,6773e0c2bb0187b6ecc2c835,2026-03-17_10h22.17.455,kallum_motion_pilot_GIST_update_2,2026.1.1,Win32,60.0240096,6773e0c2bb0187b6ecc2c835,69b92ab4aef6dee357cd729a,69b92b4fc2e49c3fcd4a30e9,0.016,0.016,1,39,201,26,1,twoone,,,,,,,,,,,,,,,,,,,,,,,,,,,,,,,,,,,,,,,,,,,,,,,,,,,,,,,,,,,,,,,,,,,,,,,,,,,,,,,,,,,,,,,,,,,,,,,,,,,,,,,,,,,,,,,,,,,,,,,,,,,,,,,,,,,,,,,,,
,,6773e0c2bb0187b6ecc2c835,2026-03-17_10h22.17.455,kallum_motion_pilot_GIST_update_2,2026.1.1,Win32,60.0240096,6773e0c2bb0187b6ecc2c835,69b92ab4aef6dee357cd729a,69b92b4fc2e49c3fcd4a30e9,0.016,0.016,1,40,202,108,1,sevenfive,,,,,,,,,,,,,,,,,,,,,,,,,,,,,,,,,,,,,,,,,,,,,,,,,,,,,,,,,,,,,,,,,,,,,,,,,,,,,,,,,,,,,,,,,,,,,,,,,,,,,,,,,,,,,,,,,,,,,,,,,,,,,,,,,,,,,,,,,
,,6773e0c2bb0187b6ecc2c835,2026-03-17_10h22.17.455,kallum_motion_pilot_GIST_update_2,2026.1.1,Win32,60.0240096,6773e0c2bb0187b6ecc2c835,69b92ab4aef6dee357cd729a,69b92b4fc2e49c3fcd4a30e9,0.016,0.016,1,41,203,33,1,onethree,,,,,,,,,,,,,,,,,,,,,,,,,,,,,,,,,,,,,,,,,,,,,,,,,,,,,,,,,,,,,,,,,,,,,,,,,,,,,,,,,,,,,,,,,,,,,,,,,,,,,,,,,,,,,,,,,,,,,,,,,,,,,,,,,,,,,,,,,
,,6773e0c2bb0187b6ecc2c835,2026-03-17_10h22.17.455,kallum_motion_pilot_GIST_update_2,2026.1.1,Win32,60.0240096,6773e0c2bb0187b6ecc2c835,69b92ab4aef6dee357cd729a,69b92b4fc2e49c3fcd4a30e9,0.016,0.016,1,42,204,128,1,fivesix,,,,,,,,,,,,,,,,,,,,,,,,,,,,,,,,,,,,,,,,,,,,,,,,,,,,,,,,,,,,,,,,,,,,,,,,,,,,,,,,,,,,,,,,,,,,,,,,,,,,,,,,,,,,,,,,,,,,,,,,,,,,,,,,,,,,,,,,,
,,6773e0c2bb0187b6ecc2c835,2026-03-17_10h22.17.455,kallum_motion_pilot_GIST_update_2,2026.1.1,Win32,60.0240096,6773e0c2bb0187b6ecc2c835,69b92ab4aef6dee357cd729a,69b92b4fc2e49c3fcd4a30e9,0.016,0.016,1,43,205,47,1,fourthree,,,,,,,,,,,,,,,,,,,,,,,,,,,,,,,,,,,,,,,,,,,,,,,,,,,,,,,,,,,,,,,,,,,,,,,,,,,,,,,,,,,,,,,,,,,,,,,,,,,,,,,,,,,,,,,,,,,,,,,,,,,,,,,,,,,,,,,,,
,,6773e0c2bb0187b6ecc2c835,2026-03-17_10h22.17.455,kallum_motion_pilot_GIST_update_2,2026.1.1,Win32,60.0240096,6773e0c2bb0187b6ecc2c835,69b92ab4aef6dee357cd729a,69b92b4fc2e49c3fcd4a30e9,0.016,0.016,1,44,206,25,1,onethree,,,,,,,,,,,,,,,,,,,,,,,,,,,,,,,,,,,,,,,,,,,,,,,,,,,,,,,,,,,,,,,,,,,,,,,,,,,,,,,,,,,,,,,,,,,,,,,,,,,,,,,,,,,,,,,,,,,,,,,,,,,,,,,,,,,,,,,,,
,,6773e0c2bb0187b6ecc2c835,2026-03-17_10h22.17.455,kallum_motion_pilot_GIST_update_2,2026.1.1,Win32,60.0240096,6773e0c2bb0187b6ecc2c835,69b92ab4aef6dee357cd729a,69b92b4fc2e49c3fcd4a30e9,0.016,0.016,1,45,207,145,1,fiveseven,,,,,,,,,,,,,,,,,,,,,,,,,,,,,,,,,,,,,,,,,,,,,,,,,,,,,,,,,,,,,,,,,,,,,,,,,,,,,,,,,,,,,,,,,,,,,,,,,,,,,,,,,,,,,,,,,,,,,,,,,,,,,,,,,,,,,,,,,
,,6773e0c2bb0187b6ecc2c835,2026-03-17_10h22.17.455,kallum_motion_pilot_GIST_update_2,2026.1.1,Win32,60.0240096,6773e0c2bb0187b6ecc2c835,69b92ab4aef6dee357cd729a,69b92b4fc2e49c3fcd4a30e9,0.016,0.016,1,46,208,121,1,fiveseven,,,,,,,,,,,,,,,,,,,,,,,,,,,,,,,,,,,,,,,,,,,,,,,,,,,,,,,,,,,,,,,,,,,,,,,,,,,,,,,,,,,,,,,,,,,,,,,,,,,,,,,,,,,,,,,,,,,,,,,,,,,,,,,,,,,,,,,,,
,,6773e0c2bb0187b6ecc2c835,2026-03-17_10h22.17.455,kallum_motion_pilot_GIST_update_2,2026.1.1,Win32,60.0240096,6773e0c2bb0187b6ecc2c835,69b92ab4aef6dee357cd729a,69b92b4fc2e49c3fcd4a30e9,0.016,0.016,1,47,209,152,1,fivesix,,,,,,,,,,,,,,,,,,,,,,,,,,,,,,,,,,,,,,,,,,,,,,,,,,,,,,,,,,,,,,,,,,,,,,,,,,,,,,,,,,,,,,,,,,,,,,,,,,,,,,,,,,,,,,,,,,,,,,,,,,,,,,,,,,,,,,,,,
,,6773e0c2bb0187b6ecc2c835,2026-03-17_10h22.17.455,kallum_motion_pilot_GIST_update_2,2026.1.1,Win32,60.0240096,6773e0c2bb0187b6ecc2c835,69b92ab4aef6dee357cd729a,69b92b4fc2e49c3fcd4a30e9,0.016,0.016,1,48,210,78,1,fourtwo,,,,,,,,,,,,,,,,,,,,,,,,,,,,,,,,,,,,,,,,,,,,,,,,,,,,,,,,,,,,,,,,,,,,,,,,,,,,,,,,,,,,,,,,,,,,,,,,,,,,,,,,,,,,,,,,,,,,,,,,,,,,,,,,,,,,,,,,,
,,6773e0c2bb0187b6ecc2c835,2026-03-17_10h22.17.455,kallum_motion_pilot_GIST_update_2,2026.1.1,Win32,60.0240096,6773e0c2bb0187b6ecc2c835,69b92ab4aef6dee357cd729a,69b92b4fc2e49c3fcd4a30e9,0.016,0.016,1,49,211,21,1,threefour,,,,,,,,,,,,,,,,,,,,,,,,,,,,,,,,,,,,,,,,,,,,,,,,,,,,,,,,,,,,,,,,,,,,,,,,,,,,,,,,,,,,,,,,,,,,,,,,,,,,,,,,,,,,,,,,,,,,,,,,,,,,,,,,,,,,,,,,,
,,6773e0c2bb0187b6ecc2c835,2026-03-17_10h22.17.455,kallum_motion_pilot_GIST_update_2,2026.1.1,Win32,60.0240096,6773e0c2bb0187b6ecc2c835,69b92ab4aef6dee357cd729a,69b92b4fc2e49c3fcd4a30e9,0.016,0.016,1,50,212,7,1,fourthree,,,,,,,,,,,,,,,,,,,,,,,,,,,,,,,,,,,,,,,,,,,,,,,,,,,,,,,,,,,,,,,,,,,,,,,,,,,,,,,,,,,,,,,,,,,,,,,,,,,,,,,,,,,,,,,,,,,,,,,,,,,,,,,,,,,,,,,,,
,,6773e0c2bb0187b6ecc2c835,2026-03-17_10h22.17.455,kallum_motion_pilot_GIST_update_2,2026.1.1,Win32,60.0240096,6773e0c2bb0187b6ecc2c835,69b92ab4aef6dee357cd729a,69b92b4fc2e49c3fcd4a30e9,0.016,0.016,1,51,213,0,1,onetwo,,,,,,,,,,,,,,,,,,,,,,,,,,,,,,,,,,,,,,,,,,,,,,,,,,,,,,,,,,,,,,,,,,,,,,,,,,,,,,,,,,,,,,,,,,,,,,,,,,,,,,,,,,,,,,,,,,,,,,,,,,,,,,,,,,,,,,,,,
,,6773e0c2bb0187b6ecc2c835,2026-03-17_10h22.17.455,kallum_motion_pilot_GIST_update_2,2026.1.1,Win32,60.0240096,6773e0c2bb0187b6ecc2c835,69b92ab4aef6dee357cd729a,69b92b4fc2e49c3fcd4a30e9,0.016,0.016,1,52,214,76,1,threeone,,,,,,,,,,,,,,,,,,,,,,,,,,,,,,,,,,,,,,,,,,,,,,,,,,,,,,,,,,,,,,,,,,,,,,,,,,,,,,,,,,,,,,,,,,,,,,,,,,,,,,,,,,,,,,,,,,,,,,,,,,,,,,,,,,,,,,,,,
,,6773e0c2bb0187b6ecc2c835,2026-03-17_10h22.17.455,kallum_motion_pilot_GIST_update_2,2026.1.1,Win32,60.0240096,6773e0c2bb0187b6ecc2c835,69b92ab4aef6dee357cd729a,69b92b4fc2e49c3fcd4a30e9,0.016,0.016,1,53,215,63,1,fourthree,,,,,,,,,,,,,,,,,,,,,,,,,,,,,,,,,,,,,,,,,,,,,,,,,,,,,,,,,,,,,,,,,,,,,,,,,,,,,,,,,,,,,,,,,,,,,,,,,,,,,,,,,,,,,,,,,,,,,,,,,,,,,,,,,,,,,,,,,
,,6773e0c2bb0187b6ecc2c835,2026-03-17_10h22.17.455,kallum_motion_pilot_GIST_update_2,2026.1.1,Win32,60.0240096,6773e0c2bb0187b6ecc2c835,69b92ab4aef6dee357cd729a,69b92b4fc2e49c3fcd4a30e9,0.016,0.016,1,54,216,22,1,fourtwo,,,,,,,,,,,,,,,,,,,,,,,,,,,,,,,,,,,,,,,,,,,,,,,,,,,,,,,,,,,,,,,,,,,,,,,,,,,,,,,,,,,,,,,,,,,,,,,,,,,,,,,,,,,,,,,,,,,,,,,,,,,,,,,,,,,,,,,,,
,,6773e0c2bb0187b6ecc2c835,2026-03-17_10h22.17.455,kallum_motion_pilot_GIST_update_2,2026.1.1,Win32,60.0240096,6773e0c2bb0187b6ecc2c835,69b92ab4aef6dee357cd729a,69b92b4fc2e49c3fcd4a30e9,0.016,0.016,1,55,217,55,1,fourthree,,,,,,,,,,,,,,,,,,,,,,,,,,,,,,,,,,,,,,,,,,,,,,,,,,,,,,,,,,,,,,,,,,,,,,,,,,,,,,,,,,,,,,,,,,,,,,,,,,,,,,,,,,,,,,,,,,,,,,,,,,,,,,,,,,,,,,,,,
,,6773e0c2bb0187b6ecc2c835,2026-03-17_10h22.17.455,kallum_motion_pilot_GIST_update_2,2026.1.1,Win32,60.0240096,6773e0c2bb0187b6ecc2c835,69b92ab4aef6dee357cd729a,69b92b4fc2e49c3fcd4a30e9,0.016,0.016,1,56,218,154,1,sixfive,,,,,,,,,,,,,,,,,,,,,,,,,,,,,,,,,,,,,,,,,,,,,,,,,,,,,,,,,,,,,,,,,,,,,,,,,,,,,,,,,,,,,,,,,,,,,,,,,,,,,,,,,,,,,,,,,,,,,,,,,,,,,,,,,,,,,,,,,
,,6773e0c2bb0187b6ecc2c835,2026-03-17_10h22.17.455,kallum_motion_pilot_GIST_update_2,2026.1.1,Win32,60.0240096,6773e0c2bb0187b6ecc2c835,69b92ab4aef6dee357cd729a,69b92b4fc2e49c3fcd4a30e9,0.016,0.016,1,57,219,83,1,sixeight,,,,,,,,,,,,,,,,,,,,,,,,,,,,,,,,,,,,,,,,,,,,,,,,,,,,,,,,,,,,,,,,,,,,,,,,,,,,,,,,,,,,,,,,,,,,,,,,,,,,,,,,,,,,,,,,,,,,,,,,,,,,,,,,,,,,,,,,,
,,6773e0c2bb0187b6ecc2c835,2026-03-17_10h22.17.455,kallum_motion_pilot_GIST_update_2,2026.1.1,Win32,60.0240096,6773e0c2bb0187b6ecc2c835,69b92ab4aef6dee357cd729a,69b92b4fc2e49c3fcd4a30e9,0.017,0.017,1,58,220,4,1,threeone,,,,,,,,,,,,,,,,,,,,,,,,,,,,,,,,,,,,,,,,,,,,,,,,,,,,,,,,,,,,,,,,,,,,,,,,,,,,,,,,,,,,,,,,,,,,,,,,,,,,,,,,,,,,,,,,,,,,,,,,,,,,,,,,,,,,,,,,,
,,6773e0c2bb0187b6ecc2c835,2026-03-17_10h22.17.455,kallum_motion_pilot_GIST_update_2,2026.1.1,Win32,60.0240096,6773e0c2bb0187b6ecc2c835,69b92ab4aef6dee357cd729a,69b92b4fc2e49c3fcd4a30e9,0.017,0.017,1,59,221,42,1,twoone,,,,,,,,,,,,,,,,,,,,,,,,,,,,,,,,,,,,,,,,,,,,,,,,,,,,,,,,,,,,,,,,,,,,,,,,,,,,,,,,,,,,,,,,,,,,,,,,,,,,,,,,,,,,,,,,,,,,,,,,,,,,,,,,,,,,,,,,,
,,6773e0c2bb0187b6ecc2c835,2026-03-17_10h22.17.455,kallum_motion_pilot_GIST_update_2,2026.1.1,Win32,60.0240096,6773e0c2bb0187b6ecc2c835,69b92ab4aef6dee357cd729a,69b92b4fc2e49c3fcd4a30e9,0.017,0.017,1,60,222,138,1,sixfive,,,,,,,,,,,,,,,,,,,,,,,,,,,,,,,,,,,,,,,,,,,,,,,,,,,,,,,,,,,,,,,,,,,,,,,,,,,,,,,,,,,,,,,,,,,,,,,,,,,,,,,,,,,,,,,,,,,,,,,,,,,,,,,,,,,,,,,,,
,,6773e0c2bb0187b6ecc2c835,2026-03-17_10h22.17.455,kallum_motion_pilot_GIST_update_2,2026.1.1,Win32,60.0240096,6773e0c2bb0187b6ecc2c835,69b92ab4aef6dee357cd729a,69b92b4fc2e49c3fcd4a30e9,0.017,0.017,1,61,223,93,1,seveneight,,,,,,,,,,,,,,,,,,,,,,,,,,,,,,,,,,,,,,,,,,,,,,,,,,,,,,,,,,,,,,,,,,,,,,,,,,,,,,,,,,,,,,,,,,,,,,,,,,,,,,,,,,,,,,,,,,,,,,,,,,,,,,,,,,,,,,,,,
,,6773e0c2bb0187b6ecc2c835,2026-03-17_10h22.17.455,kallum_motion_pilot_GIST_update_2,2026.1.1,Win32,60.0240096,6773e0c2bb0187b6ecc2c835,69b92ab4aef6dee357cd729a,69b92b4fc2e49c3fcd4a30e9,0.017,0.017,1,62,224,94,1,eightsix,,,,,,,,,,,,,,,,,,,,,,,,,,,,,,,,,,,,,,,,,,,,,,,,,,,,,,,,,,,,,,,,,,,,,,,,,,,,,,,,,,,,,,,,,,,,,,,,,,,,,,,,,,,,,,,,,,,,,,,,,,,,,,,,,,,,,,,,,
,,6773e0c2bb0187b6ecc2c835,2026-03-17_10h22.17.455,kallum_motion_pilot_GIST_update_2,2026.1.1,Win32,60.0240096,6773e0c2bb0187b6ecc2c835,69b92ab4aef6dee357cd729a,69b92b4fc2e49c3fcd4a30e9,0.017,0.017,1,63,225,129,1,fiveseven,,,,,,,,,,,,,,,,,,,,,,,,,,,,,,,,,,,,,,,,,,,,,,,,,,,,,,,,,,,,,,,,,,,,,,,,,,,,,,,,,,,,,,,,,,,,,,,,,,,,,,,,,,,,,,,,,,,,,,,,,,,,,,,,,,,,,,,,,
,,6773e0c2bb0187b6ecc2c835,2026-03-17_10h22.17.455,kallum_motion_pilot_GIST_update_2,2026.1.1,Win32,60.0240096,6773e0c2bb0187b6ecc2c835,69b92ab4aef6dee357cd729a,69b92b4fc2e49c3fcd4a30e9,0.017,0.017,1,64,226,140,1,sevenfive,,,,,,,,,,,,,,,,,,,,,,,,,,,,,,,,,,,,,,,,,,,,,,,,,,,,,,,,,,,,,,,,,,,,,,,,,,,,,,,,,,,,,,,,,,,,,,,,,,,,,,,,,,,,,,,,,,,,,,,,,,,,,,,,,,,,,,,,,
,,6773e0c2bb0187b6ecc2c835,2026-03-17_10h22.17.455,kallum_motion_pilot_GIST_update_2,2026.1.1,Win32,60.0240096,6773e0c2bb0187b6ecc2c835,69b92ab4aef6dee357cd729a,69b92b4fc2e49c3fcd4a30e9,0.017,0.017,1,65,227,11,1,twofour,,,,,,,,,,,,,,,,,,,,,,,,,,,,,,,,,,,,,,,,,,,,,,,,,,,,,,,,,,,,,,,,,,,,,,,,,,,,,,,,,,,,,,,,,,,,,,,,,,,,,,,,,,,,,,,,,,,,,,,,,,,,,,,,,,,,,,,,,
,,6773e0c2bb0187b6ecc2c835,2026-03-17_10h22.17.455,kallum_motion_pilot_GIST_update_2,2026.1.1,Win32,60.0240096,6773e0c2bb0187b6ecc2c835,69b92ab4aef6dee357cd729a,69b92b4fc2e49c3fcd4a30e9,0.017,0.017,1,66,228,65,1,onethree,,,,,,,,,,,,,,,,,,,,,,,,,,,,,,,,,,,,,,,,,,,,,,,,,,,,,,,,,,,,,,,,,,,,,,,,,,,,,,,,,,,,,,,,,,,,,,,,,,,,,,,,,,,,,,,,,,,,,,,,,,,,,,,,,,,,,,,,,
,,6773e0c2bb0187b6ecc2c835,2026-03-17_10h22.17.455,kallum_motion_pilot_GIST_update_2,2026.1.1,Win32,60.0240096,6773e0c2bb0187b6ecc2c835,69b92ab4aef6dee357cd729a,69b92b4fc2e49c3fcd4a30e9,0.017,0.017,1,67,229,44,1,threeone,,,,,,,,,,,,,,,,,,,,,,,,,,,,,,,,,,,,,,,,,,,,,,,,,,,,,,,,,,,,,,,,,,,,,,,,,,,,,,,,,,,,,,,,,,,,,,,,,,,,,,,,,,,,,,,,,,,,,,,,,,,,,,,,,,,,,,,,,
,,6773e0c2bb0187b6ecc2c835,2026-03-17_10h22.17.455,kallum_motion_pilot_GIST_update_2,2026.1.1,Win32,60.0240096,6773e0c2bb0187b6ecc2c835,69b92ab4aef6dee357cd729a,69b92b4fc2e49c3fcd4a30e9,0.017,0.017,1,68,230,147,1,sixeight,,,,,,,,,,,,,,,,,,,,,,,,,,,,,,,,,,,,,,,,,,,,,,,,,,,,,,,,,,,,,,,,,,,,,,,,,,,,,,,,,,,,,,,,,,,,,,,,,,,,,,,,,,,,,,,,,,,,,,,,,,,,,,,,,,,,,,,,,
,,6773e0c2bb0187b6ecc2c835,2026-03-17_10h22.17.455,kallum_motion_pilot_GIST_update_2,2026.1.1,Win32,60.0240096,6773e0c2bb0187b6ecc2c835,69b92ab4aef6dee357cd729a,69b92b4fc2e49c3fcd4a30e9,0.017,0.017,1,69,231,13,1,threefour,,,,,,,,,,,,,,,,,,,,,,,,,,,,,,,,,,,,,,,,,,,,,,,,,,,,,,,,,,,,,,,,,,,,,,,,,,,,,,,,,,,,,,,,,,,,,,,,,,,,,,,,,,,,,,,,,,,,,,,,,,,,,,,,,,,,,,,,,
,,6773e0c2bb0187b6ecc2c835,2026-03-17_10h22.17.455,kallum_motion_pilot_GIST_update_2,2026.1.1,Win32,60.0240096,6773e0c2bb0187b6ecc2c835,69b92ab4aef6dee357cd729a,69b92b4fc2e49c3fcd4a30e9,0.017,0.017,1,70,232,67,1,twofour,,,,,,,,,,,,,,,,,,,,,,,,,,,,,,,,,,,,,,,,,,,,,,,,,,,,,,,,,,,,,,,,,,,,,,,,,,,,,,,,,,,,,,,,,,,,,,,,,,,,,,,,,,,,,,,,,,,,,,,,,,,,,,,,,,,,,,,,,
,,6773e0c2bb0187b6ecc2c835,2026-03-17_10h22.17.455,kallum_motion_pilot_GIST_update_2,2026.1.1,Win32,60.0240096,6773e0c2bb0187b6ecc2c835,69b92ab4aef6dee357cd729a,69b92b4fc2e49c3fcd4a30e9,0.017,0.017,1,71,233,124,1,sevenfive,,,,,,,,,,,,,,,,,,,,,,,,,,,,,,,,,,,,,,,,,,,,,,,,,,,,,,,,,,,,,,,,,,,,,,,,,,,,,,,,,,,,,,,,,,,,,,,,,,,,,,,,,,,,,,,,,,,,,,,,,,,,,,,,,,,,,,,,,
,,6773e0c2bb0187b6ecc2c835,2026-03-17_10h22.17.455,kallum_motion_pilot_GIST_update_2,2026.1.1,Win32,60.0240096,6773e0c2bb0187b6ecc2c835,69b92ab4aef6dee357cd729a,69b92b4fc2e49c3fcd4a30e9,0.017,0.017,1,72,234,123,1,sixeight,,,,,,,,,,,,,,,,,,,,,,,,,,,,,,,,,,,,,,,,,,,,,,,,,,,,,,,,,,,,,,,,,,,,,,,,,,,,,,,,,,,,,,,,,,,,,,,,,,,,,,,,,,,,,,,,,,,,,,,,,,,,,,,,,,,,,,,,,
,,6773e0c2bb0187b6ecc2c835,2026-03-17_10h22.17.455,kallum_motion_pilot_GIST_update_2,2026.1.1,Win32,60.0240096,6773e0c2bb0187b6ecc2c835,69b92ab4aef6dee357cd729a,69b92b4fc2e49c3fcd4a30e9,0.017,0.017,1,73,235,81,1,fiveseven,,,,,,,,,,,,,,,,,,,,,,,,,,,,,,,,,,,,,,,,,,,,,,,,,,,,,,,,,,,,,,,,,,,,,,,,,,,,,,,,,,,,,,,,,,,,,,,,,,,,,,,,,,,,,,,,,,,,,,,,,,,,,,,,,,,,,,,,,
,,6773e0c2bb0187b6ecc2c835,2026-03-17_10h22.17.455,kallum_motion_pilot_GIST_update_2,2026.1.1,Win32,60.0240096,6773e0c2bb0187b6ecc2c835,69b92ab4aef6dee357cd729a,69b92b4fc2e49c3fcd4a30e9,0.017,0.017,1,74,236,131,1,sixeight,,,,,,,,,,,,,,,,,,,,,,,,,,,,,,,,,,,,,,,,,,,,,,,,,,,,,,,,,,,,,,,,,,,,,,,,,,,,,,,,,,,,,,,,,,,,,,,,,,,,,,,,,,,,,,,,,,,,,,,,,,,,,,,,,,,,,,,,,
,,6773e0c2bb0187b6ecc2c835,2026-03-17_10h22.17.455,kallum_motion_pilot_GIST_update_2,2026.1.1,Win32,60.0240096,6773e0c2bb0187b6ecc2c835,69b92ab4aef6dee357cd729a,69b92b4fc2e49c3fcd4a30e9,0.017,0.017,1,75,237,87,1,eightseven,,,,,,,,,,,,,,,,,,,,,,,,,,,,,,,,,,,,,,,,,,,,,,,,,,,,,,,,,,,,,,,,,,,,,,,,,,,,,,,,,,,,,,,,,,,,,,,,,,,,,,,,,,,,,,,,,,,,,,,,,,,,,,,,,,,,,,,,,
,,6773e0c2bb0187b6ecc2c835,2026-03-17_10h22.17.455,kallum_motion_pilot_GIST_update_2,2026.1.1,Win32,60.0240096,6773e0c2bb0187b6ecc2c835,69b92ab4aef6dee357cd729a,69b92b4fc2e49c3fcd4a30e9,0.017,0.017,1,76,238,137,1,fiveseven,,,,,,,,,,,,,,,,,,,,,,,,,,,,,,,,,,,,,,,,,,,,,,,,,,,,,,,,,,,,,,,,,,,,,,,,,,,,,,,,,,,,,,,,,,,,,,,,,,,,,,,,,,,,,,,,,,,,,,,,,,,,,,,,,,,,,,,,,
,,6773e0c2bb0187b6ecc2c835,2026-03-17_10h22.17.455,kallum_motion_pilot_GIST_update_2,2026.1.1,Win32,60.0240096,6773e0c2bb0187b6ecc2c835,69b92ab4aef6dee357cd729a,69b92b4fc2e49c3fcd4a30e9,0.017,0.017,1,77,239,92,1,sevenfive,,,,,,,,,,,,,,,,,,,,,,,,,,,,,,,,,,,,,,,,,,,,,,,,,,,,,,,,,,,,,,,,,,,,,,,,,,,,,,,,,,,,,,,,,,,,,,,,,,,,,,,,,,,,,,,,,,,,,,,,,,,,,,,,,,,,,,,,,
,,6773e0c2bb0187b6ecc2c835,2026-03-17_10h22.17.455,kallum_motion_pilot_GIST_update_2,2026.1.1,Win32,60.0240096,6773e0c2bb0187b6ecc2c835,69b92ab4aef6dee357cd729a,69b92b4fc2e49c3fcd4a30e9,0.017,0.017,1,78,240,126,1,eightsix,,,,,,,,,,,,,,,,,,,,,,,,,,,,,,,,,,,,,,,,,,,,,,,,,,,,,,,,,,,,,,,,,,,,,,,,,,,,,,,,,,,,,,,,,,,,,,,,,,,,,,,,,,,,,,,,,,,,,,,,,,,,,,,,,,,,,,,,,
,,6773e0c2bb0187b6ecc2c835,2026-03-17_10h22.17.455,kallum_motion_pilot_GIST_update_2,2026.1.1,Win32,60.0240096,6773e0c2bb0187b6ecc2c835,69b92ab4aef6dee357cd729a,69b92b4fc2e49c3fcd4a30e9,0.017,0.017,1,79,241,106,1,sixfive,,,,,,,,,,,,,,,,,,,,,,,,,,,,,,,,,,,,,,,,,,,,,,,,,,,,,,,,,,,,,,,,,,,,,,,,,,,,,,,,,,,,,,,,,,,,,,,,,,,,,,,,,,,,,,,,,,,,,,,,,,,,,,,,,,,,,,,,,
,,6773e0c2bb0187b6ecc2c835,2026-03-17_10h22.17.455,kallum_motion_pilot_GIST_update_2,2026.1.1,Win32,60.0240096,6773e0c2bb0187b6ecc2c835,69b92ab4aef6dee357cd729a,69b92b4fc2e49c3fcd4a30e9,0.017,0.017,1,80,242,19,1,twofour,,,,,,,,,,,,,,,,,,,,,,,,,,,,,,,,,,,,,,,,,,,,,,,,,,,,,,,,,,,,,,,,,,,,,,,,,,,,,,,,,,,,,,,,,,,,,,,,,,,,,,,,,,,,,,,,,,,,,,,,,,,,,,,,,,,,,,,,,
,,6773e0c2bb0187b6ecc2c835,2026-03-17_10h22.17.455,kallum_motion_pilot_GIST_update_2,2026.1.1,Win32,60.0240096,6773e0c2bb0187b6ecc2c835,69b92ab4aef6dee357cd729a,69b92b4fc2e49c3fcd4a30e9,0.017,0.017,1,81,243,125,1,seveneight,,,,,,,,,,,,,,,,,,,,,,,,,,,,,,,,,,,,,,,,,,,,,,,,,,,,,,,,,,,,,,,,,,,,,,,,,,,,,,,,,,,,,,,,,,,,,,,,,,,,,,,,,,,,,,,,,,,,,,,,,,,,,,,,,,,,,,,,,
,,6773e0c2bb0187b6ecc2c835,2026-03-17_10h22.17.455,kallum_motion_pilot_GIST_update_2,2026.1.1,Win32,60.0240096,6773e0c2bb0187b6ecc2c835,69b92ab4aef6dee357cd729a,69b92b4fc2e49c3fcd4a30e9,0.017,0.017,1,82,244,2,1,twoone,,,,,,,,,,,,,,,,,,,,,,,,,,,,,,,,,,,,,,,,,,,,,,,,,,,,,,,,,,,,,,,,,,,,,,,,,,,,,,,,,,,,,,,,,,,,,,,,,,,,,,,,,,,,,,,,,,,,,,,,,,,,,,,,,,,,,,,,,
,,6773e0c2bb0187b6ecc2c835,2026-03-17_10h22.17.455,kallum_motion_pilot_GIST_update_2,2026.1.1,Win32,60.0240096,6773e0c2bb0187b6ecc2c835,69b92ab4aef6dee357cd729a,69b92b4fc2e49c3fcd4a30e9,0.017,0.017,1,83,245,73,1,onethree,,,,,,,,,,,,,,,,,,,,,,,,,,,,,,,,,,,,,,,,,,,,,,,,,,,,,,,,,,,,,,,,,,,,,,,,,,,,,,,,,,,,,,,,,,,,,,,,,,,,,,,,,,,,,,,,,,,,,,,,,,,,,,,,,,,,,,,,,
,,6773e0c2bb0187b6ecc2c835,2026-03-17_10h22.17.455,kallum_motion_pilot_GIST_update_2,2026.1.1,Win32,60.0240096,6773e0c2bb0187b6ecc2c835,69b92ab4aef6dee357cd729a,69b92b4fc2e49c3fcd4a30e9,0.017,0.017,1,84,246,41,1,onethree,,,,,,,,,,,,,,,,,,,,,,,,,,,,,,,,,,,,,,,,,,,,,,,,,,,,,,,,,,,,,,,,,,,,,,,,,,,,,,,,,,,,,,,,,,,,,,,,,,,,,,,,,,,,,,,,,,,,,,,,,,,,,,,,,,,,,,,,,
,,6773e0c2bb0187b6ecc2c835,2026-03-17_10h22.17.455,kallum_motion_pilot_GIST_update_2,2026.1.1,Win32,60.0240096,6773e0c2bb0187b6ecc2c835,69b92ab4aef6dee357cd729a,69b92b4fc2e49c3fcd4a30e9,0.017,0.017,1,85,247,12,1,threeone,,,,,,,,,,,,,,,,,,,,,,,,,,,,,,,,,,,,,,,,,,,,,,,,,,,,,,,,,,,,,,,,,,,,,,,,,,,,,,,,,,,,,,,,,,,,,,,,,,,,,,,,,,,,,,,,,,,,,,,,,,,,,,,,,,,,,,,,,
,,6773e0c2bb0187b6ecc2c835,2026-03-17_10h22.17.455,kallum_motion_pilot_GIST_update_2,2026.1.1,Win32,60.0240096,6773e0c2bb0187b6ecc2c835,69b92ab4aef6dee357cd729a,69b92b4fc2e49c3fcd4a30e9,0.017,0.017,1,86,248,109,1,seveneight,,,,,,,,,,,,,,,,,,,,,,,,,,,,,,,,,,,,,,,,,,,,,,,,,,,,,,,,,,,,,,,,,,,,,,,,,,,,,,,,,,,,,,,,,,,,,,,,,,,,,,,,,,,,,,,,,,,,,,,,,,,,,,,,,,,,,,,,,
,,6773e0c2bb0187b6ecc2c835,2026-03-17_10h22.17.455,kallum_motion_pilot_GIST_update_2,2026.1.1,Win32,60.0240096,6773e0c2bb0187b6ecc2c835,69b92ab4aef6dee357cd729a,69b92b4fc2e49c3fcd4a30e9,0.017,0.017,1,87,249,159,1,eightseven,,,,,,,,,,,,,,,,,,,,,,,,,,,,,,,,,,,,,,,,,,,,,,,,,,,,,,,,,,,,,,,,,,,,,,,,,,,,,,,,,,,,,,,,,,,,,,,,,,,,,,,,,,,,,,,,,,,,,,,,,,,,,,,,,,,,,,,,,
,,6773e0c2bb0187b6ecc2c835,2026-03-17_10h22.17.455,kallum_motion_pilot_GIST_update_2,2026.1.1,Win32,60.0240096,6773e0c2bb0187b6ecc2c835,69b92ab4aef6dee357cd729a,69b92b4fc2e49c3fcd4a30e9,0.017,0.017,1,88,250,99,1,sixeight,,,,,,,,,,,,,,,,,,,,,,,,,,,,,,,,,,,,,,,,,,,,,,,,,,,,,,,,,,,,,,,,,,,,,,,,,,,,,,,,,,,,,,,,,,,,,,,,,,,,,,,,,,,,,,,,,,,,,,,,,,,,,,,,,,,,,,,,,
,,6773e0c2bb0187b6ecc2c835,2026-03-17_10h22.17.455,kallum_motion_pilot_GIST_update_2,2026.1.1,Win32,60.0240096,6773e0c2bb0187b6ecc2c835,69b92ab4aef6dee357cd729a,69b92b4fc2e49c3fcd4a30e9,0.017,0.017,1,89,251,6,1,fourtwo,,,,,,,,,,,,,,,,,,,,,,,,,,,,,,,,,,,,,,,,,,,,,,,,,,,,,,,,,,,,,,,,,,,,,,,,,,,,,,,,,,,,,,,,,,,,,,,,,,,,,,,,,,,,,,,,,,,,,,,,,,,,,,,,,,,,,,,,,
,,6773e0c2bb0187b6ecc2c835,2026-03-17_10h22.17.455,kallum_motion_pilot_GIST_update_2,2026.1.1,Win32,60.0240096,6773e0c2bb0187b6ecc2c835,69b92ab4aef6dee357cd729a,69b92b4fc2e49c3fcd4a30e9,0.017,0.017,1,90,252,75,1,twofour,,,,,,,,,,,,,,,,,,,,,,,,,,,,,,,,,,,,,,,,,,,,,,,,,,,,,,,,,,,,,,,,,,,,,,,,,,,,,,,,,,,,,,,,,,,,,,,,,,,,,,,,,,,,,,,,,,,,,,,,,,,,,,,,,,,,,,,,,
,,6773e0c2bb0187b6ecc2c835,2026-03-17_10h22.17.455,kallum_motion_pilot_GIST_update_2,2026.1.1,Win32,60.0240096,6773e0c2bb0187b6ecc2c835,69b92ab4aef6dee357cd729a,69b92b4fc2e49c3fcd4a30e9,0.017,0.017,1,91,253,15,1,fourthree,,,,,,,,,,,,,,,,,,,,,,,,,,,,,,,,,,,,,,,,,,,,,,,,,,,,,,,,,,,,,,,,,,,,,,,,,,,,,,,,,,,,,,,,,,,,,,,,,,,,,,,,,,,,,,,,,,,,,,,,,,,,,,,,,,,,,,,,,
,,6773e0c2bb0187b6ecc2c835,2026-03-17_10h22.17.455,kallum_motion_pilot_GIST_update_2,2026.1.1,Win32,60.0240096,6773e0c2bb0187b6ecc2c835,69b92ab4aef6dee357cd729a,69b92b4fc2e49c3fcd4a30e9,0.017,0.017,1,92,254,74,1,twoone,,,,,,,,,,,,,,,,,,,,,,,,,,,,,,,,,,,,,,,,,,,,,,,,,,,,,,,,,,,,,,,,,,,,,,,,,,,,,,,,,,,,,,,,,,,,,,,,,,,,,,,,,,,,,,,,,,,,,,,,,,,,,,,,,,,,,,,,,
,,6773e0c2bb0187b6ecc2c835,2026-03-17_10h22.17.455,kallum_motion_pilot_GIST_update_2,2026.1.1,Win32,60.0240096,6773e0c2bb0187b6ecc2c835,69b92ab4aef6dee357cd729a,69b92b4fc2e49c3fcd4a30e9,0.017,0.017,1,93,255,97,1,fiveseven,,,,,,,,,,,,,,,,,,,,,,,,,,,,,,,,,,,,,,,,,,,,,,,,,,,,,,,,,,,,,,,,,,,,,,,,,,,,,,,,,,,,,,,,,,,,,,,,,,,,,,,,,,,,,,,,,,,,,,,,,,,,,,,,,,,,,,,,,
,,6773e0c2bb0187b6ecc2c835,2026-03-17_10h22.17.455,kallum_motion_pilot_GIST_update_2,2026.1.1,Win32,60.0240096,6773e0c2bb0187b6ecc2c835,69b92ab4aef6dee357cd729a,69b92b4fc2e49c3fcd4a30e9,0.017,0.017,1,94,256,135,1,eightseven,,,,,,,,,,,,,,,,,,,,,,,,,,,,,,,,,,,,,,,,,,,,,,,,,,,,,,,,,,,,,,,,,,,,,,,,,,,,,,,,,,,,,,,,,,,,,,,,,,,,,,,,,,,,,,,,,,,,,,,,,,,,,,,,,,,,,,,,,
,,6773e0c2bb0187b6ecc2c835,2026-03-17_10h22.17.455,kallum_motion_pilot_GIST_update_2,2026.1.1,Win32,60.0240096,6773e0c2bb0187b6ecc2c835,69b92ab4aef6dee357cd729a,69b92b4fc2e49c3fcd4a30e9,0.017,0.017,1,95,257,118,1,eightsix,,,,,,,,,,,,,,,,,,,,,,,,,,,,,,,,,,,,,,,,,,,,,,,,,,,,,,,,,,,,,,,,,,,,,,,,,,,,,,,,,,,,,,,,,,,,,,,,,,,,,,,,,,,,,,,,,,,,,,,,,,,,,,,,,,,,,,,,,
,,6773e0c2bb0187b6ecc2c835,2026-03-17_10h22.17.455,kallum_motion_pilot_GIST_update_2,2026.1.1,Win32,60.0240096,6773e0c2bb0187b6ecc2c835,69b92ab4aef6dee357cd729a,69b92b4fc2e49c3fcd4a30e9,0.017,0.017,1,96,258,115,1,sixeight,,,,,,,,,,,,,,,,,,,,,,,,,,,,,,,,,,,,,,,,,,,,,,,,,,,,,,,,,,,,,,,,,,,,,,,,,,,,,,,,,,,,,,,,,,,,,,,,,,,,,,,,,,,,,,,,,,,,,,,,,,,,,,,,,,,,,,,,,
,,6773e0c2bb0187b6ecc2c835,2026-03-17_10h22.17.455,kallum_motion_pilot_GIST_update_2,2026.1.1,Win32,60.0240096,6773e0c2bb0187b6ecc2c835,69b92ab4aef6dee357cd729a,69b92b4fc2e49c3fcd4a30e9,0.017,0.017,1,97,259,43,1,twofour,,,,,,,,,,,,,,,,,,,,,,,,,,,,,,,,,,,,,,,,,,,,,,,,,,,,,,,,,,,,,,,,,,,,,,,,,,,,,,,,,,,,,,,,,,,,,,,,,,,,,,,,,,,,,,,,,,,,,,,,,,,,,,,,,,,,,,,,,
,,6773e0c2bb0187b6ecc2c835,2026-03-17_10h22.17.455,kallum_motion_pilot_GIST_update_2,2026.1.1,Win32,60.0240096,6773e0c2bb0187b6ecc2c835,69b92ab4aef6dee357cd729a,69b92b4fc2e49c3fcd4a30e9,0.017,0.017,1,98,260,107,1,sixeight,,,,,,,,,,,,,,,,,,,,,,,,,,,,,,,,,,,,,,,,,,,,,,,,,,,,,,,,,,,,,,,,,,,,,,,,,,,,,,,,,,,,,,,,,,,,,,,,,,,,,,,,,,,,,,,,,,,,,,,,,,,,,,,,,,,,,,,,,
,,6773e0c2bb0187b6ecc2c835,2026-03-17_10h22.17.455,kallum_motion_pilot_GIST_update_2,2026.1.1,Win32,60.0240096,6773e0c2bb0187b6ecc2c835,69b92ab4aef6dee357cd729a,69b92b4fc2e49c3fcd4a30e9,0.017,0.017,1,99,261,20,1,threeone,,,,,,,,,,,,,,,,,,,,,,,,,,,,,,,,,,,,,,,,,,,,,,,,,,,,,,,,,,,,,,,,,,,,,,,,,,,,,,,,,,,,,,,,,,,,,,,,,,,,,,,,,,,,,,,,,,,,,,,,,,,,,,,,,,,,,,,,,
,,6773e0c2bb0187b6ecc2c835,2026-03-17_10h22.17.455,kallum_motion_pilot_GIST_update_2,2026.1.1,Win32,60.0240096,6773e0c2bb0187b6ecc2c835,69b92ab4aef6dee357cd729a,69b92b4fc2e49c3fcd4a30e9,0.017,0.017,1,100,262,96,1,fivesix,,,,,,,,,,,,,,,,,,,,,,,,,,,,,,,,,,,,,,,,,,,,,,,,,,,,,,,,,,,,,,,,,,,,,,,,,,,,,,,,,,,,,,,,,,,,,,,,,,,,,,,,,,,,,,,,,,,,,,,,,,,,,,,,,,,,,,,,,
,,6773e0c2bb0187b6ecc2c835,2026-03-17_10h22.17.455,kallum_motion_pilot_GIST_update_2,2026.1.1,Win32,60.0240096,6773e0c2bb0187b6ecc2c835,69b92ab4aef6dee357cd729a,69b92b4fc2e49c3fcd4a30e9,0.017,0.017,1,101,263,48,1,onetwo,,,,,,,,,,,,,,,,,,,,,,,,,,,,,,,,,,,,,,,,,,,,,,,,,,,,,,,,,,,,,,,,,,,,,,,,,,,,,,,,,,,,,,,,,,,,,,,,,,,,,,,,,,,,,,,,,,,,,,,,,,,,,,,,,,,,,,,,,
,,6773e0c2bb0187b6ecc2c835,2026-03-17_10h22.17.455,kallum_motion_pilot_GIST_update_2,2026.1.1,Win32,60.0240096,6773e0c2bb0187b6ecc2c835,69b92ab4aef6dee357cd729a,69b92b4fc2e49c3fcd4a30e9,0.017,0.017,1,102,264,3,1,twofour,,,,,,,,,,,,,,,,,,,,,,,,,,,,,,,,,,,,,,,,,,,,,,,,,,,,,,,,,,,,,,,,,,,,,,,,,,,,,,,,,,,,,,,,,,,,,,,,,,,,,,,,,,,,,,,,,,,,,,,,,,,,,,,,,,,,,,,,,
,,6773e0c2bb0187b6ecc2c835,2026-03-17_10h22.17.455,kallum_motion_pilot_GIST_update_2,2026.1.1,Win32,60.0240096,6773e0c2bb0187b6ecc2c835,69b92ab4aef6dee357cd729a,69b92b4fc2e49c3fcd4a30e9,0.017,0.017,1,103,265,91,1,sixeight,,,,,,,,,,,,,,,,,,,,,,,,,,,,,,,,,,,,,,,,,,,,,,,,,,,,,,,,,,,,,,,,,,,,,,,,,,,,,,,,,,,,,,,,,,,,,,,,,,,,,,,,,,,,,,,,,,,,,,,,,,,,,,,,,,,,,,,,,
,,6773e0c2bb0187b6ecc2c835,2026-03-17_10h22.17.455,kallum_motion_pilot_GIST_update_2,2026.1.1,Win32,60.0240096,6773e0c2bb0187b6ecc2c835,69b92ab4aef6dee357cd729a,69b92b4fc2e49c3fcd4a30e9,0.017,0.017,1,104,266,85,1,seveneight,,,,,,,,,,,,,,,,,,,,,,,,,,,,,,,,,,,,,,,,,,,,,,,,,,,,,,,,,,,,,,,,,,,,,,,,,,,,,,,,,,,,,,,,,,,,,,,,,,,,,,,,,,,,,,,,,,,,,,,,,,,,,,,,,,,,,,,,,
,,6773e0c2bb0187b6ecc2c835,2026-03-17_10h22.17.455,kallum_motion_pilot_GIST_update_2,2026.1.1,Win32,60.0240096,6773e0c2bb0187b6ecc2c835,69b92ab4aef6dee357cd729a,69b92b4fc2e49c3fcd4a30e9,0.017,0.017,1,105,267,86,1,eightsix,,,,,,,,,,,,,,,,,,,,,,,,,,,,,,,,,,,,,,,,,,,,,,,,,,,,,,,,,,,,,,,,,,,,,,,,,,,,,,,,,,,,,,,,,,,,,,,,,,,,,,,,,,,,,,,,,,,,,,,,,,,,,,,,,,,,,,,,,
,,6773e0c2bb0187b6ecc2c835,2026-03-17_10h22.17.455,kallum_motion_pilot_GIST_update_2,2026.1.1,Win32,60.0240096,6773e0c2bb0187b6ecc2c835,69b92ab4aef6dee357cd729a,69b92b4fc2e49c3fcd4a30e9,0.017,0.017,1,106,268,39,1,fourthree,,,,,,,,,,,,,,,,,,,,,,,,,,,,,,,,,,,,,,,,,,,,,,,,,,,,,,,,,,,,,,,,,,,,,,,,,,,,,,,,,,,,,,,,,,,,,,,,,,,,,,,,,,,,,,,,,,,,,,,,,,,,,,,,,,,,,,,,,
