startup.started,startup.stopped,Prolific ID*,date,expName,psychopyVersion,OS,frameRate,participant,study_id,session,stimpositions.started,stimpositions.stopped,hardcoded_stimulus_positions.thisRepN,hardcoded_stimulus_positions.thisTrialN,hardcoded_stimulus_positions.thisN,hardcoded_stimulus_positions.thisIndex,hardcoded_stimulus_positions.ran,StimulusPos,stimorientation.started,stimorientation.stopped,prac_stimorientation_import_loop.thisRepN,prac_stimorientation_import_loop.thisTrialN,prac_stimorientation_import_loop.thisN,prac_stimorientation_import_loop.thisIndex,prac_stimorientation_import_loop.ran,Stimorientation,welcome_instr.started,welcome_instr.stopped,key_resp.keys,key_resp.rt,key_resp.duration,response_steppedout_1.started,response_steppedout_1.stopped,key_resp_20.keys,key_resp_20.rt,key_resp_20.duration,response_steppedout_2.started,response_steppedout_2.stopped,key_resp_19.keys,key_resp_19.rt,key_resp_19.duration,stim_response_instr.started,stim_response_instr.stopped,key_resp_15.keys,key_resp_15.rt,key_resp_15.duration,direction_instr_2.started,direction_instr_2.stopped,key_resp_9.keys,key_resp_9.rt,key_resp_9.duration,instr_prac.started,instr_prac.stopped,key_resp_10.keys,key_resp_10.rt,key_resp_10.duration,Stim1_display_prac.started,Stim1_display_prac.stopped,Ecc,Circle1_ori,Circle2_ori,response_prac.started,similarity,response_time,response_prac.stopped,mouse_5.x,mouse_5.y,mouse_5.leftButton,mouse_5.midButton,mouse_5.rightButton,mouse_5.clicked_name,responseprac_feedback.started,responseprac_feedback.stopped,summary2_prac.started,summary2_prac.stopped,mouse_6.x,mouse_6.y,mouse_6.leftButton,mouse_6.midButton,mouse_6.rightButton,mouse_6.clicked_name,duringprac.thisRepN,duringprac.thisTrialN,duringprac.thisN,duringprac.thisIndex,duringprac.ran,begin.started,begin.stopped,key_resp_22.keys,key_resp_22.rt,key_resp_22.duration,Stim1_display.started,Stim1_display.stopped,circle1_ori,circle2_ori,circle1_SF,circle2_SF,response.started,response.stopped,mouse.x,mouse.y,mouse.leftButton,mouse.midButton,mouse.rightButton,mouse.clicked_name,trialnumber,double_pass.thisRepN,double_pass.thisTrialN,double_pass.thisN,double_pass.thisIndex,double_pass.ran,double_pass.order,main_trial.thisRepN,main_trial.thisTrialN,main_trial.thisN,main_trial.thisIndex,main_trial.ran,main_trial.order,Trial_Counter,Catch,Frequencies,response_2.started,response_2.stopped,mouse_2.x,mouse_2.y,mouse_2.leftButton,mouse_2.midButton,mouse_2.rightButton,mouse_2.clicked_name,special_trial.started,special_trial.stopped,catch_1.started,catch_1.stopped,mouse_3.x,mouse_3.y,mouse_3.leftButton,mouse_3.midButton,mouse_3.rightButton,catchresponse,catchnumber,response_time_catch,response_sum.started,response_sum.stopped,mouse_11.x,mouse_11.y,mouse_11.leftButton,mouse_11.midButton,mouse_11.rightButton,flip_presentation_sequence_for_double_pass.started,flip_presentation_sequence_for_double_pass.stopped,goodbye.started,goodbye.stopped,key_resp_3.keys,key_resp_3.rt,key_resp_3.duration
0.0003,0.0004,67754b05380765134ed617c0,2026-03-17_17h03.32.614,kallum_motion_pilot_GIST_update_2,2026.1.1,Win32,60.97560976,67754b05380765134ed617c0,69b95efdef24cd8a694e89ee,69b960eee382b2445a5dc58b,,,,,,,,,,,,,,,,,,,,,,,,,,,,,,,,,,,,,,,,,,,,,,,,,,,,,,,,,,,,,,,,,,,,,,,,,,,,,,,,,,,,,,,,,,,,,,,,,,,,,,,,,,,,,,,,,,,,,,,,,,,,,,,,,,,,,,,,,,,,,,,,,
,,67754b05380765134ed617c0,2026-03-17_17h03.32.614,kallum_motion_pilot_GIST_update_2,2026.1.1,Win32,60.97560976,67754b05380765134ed617c0,69b95efdef24cd8a694e89ee,69b960eee382b2445a5dc58b,0.0218,0.0219,0,0,0,6,1,fourtwo,,,,,,,,,,,,,,,,,,,,,,,,,,,,,,,,,,,,,,,,,,,,,,,,,,,,,,,,,,,,,,,,,,,,,,,,,,,,,,,,,,,,,,,,,,,,,,,,,,,,,,,,,,,,,,,,,,,,,,,,,,,,,,,,,,,,,,,,,
,,67754b05380765134ed617c0,2026-03-17_17h03.32.614,kallum_motion_pilot_GIST_update_2,2026.1.1,Win32,60.97560976,67754b05380765134ed617c0,69b95efdef24cd8a694e89ee,69b960eee382b2445a5dc58b,0.0221,0.0221,0,1,1,8,1,onetwo,,,,,,,,,,,,,,,,,,,,,,,,,,,,,,,,,,,,,,,,,,,,,,,,,,,,,,,,,,,,,,,,,,,,,,,,,,,,,,,,,,,,,,,,,,,,,,,,,,,,,,,,,,,,,,,,,,,,,,,,,,,,,,,,,,,,,,,,,
,,67754b05380765134ed617c0,2026-03-17_17h03.32.614,kallum_motion_pilot_GIST_update_2,2026.1.1,Win32,60.97560976,67754b05380765134ed617c0,69b95efdef24cd8a694e89ee,69b960eee382b2445a5dc58b,0.0222,0.0222,0,2,2,137,1,fiveseven,,,,,,,,,,,,,,,,,,,,,,,,,,,,,,,,,,,,,,,,,,,,,,,,,,,,,,,,,,,,,,,,,,,,,,,,,,,,,,,,,,,,,,,,,,,,,,,,,,,,,,,,,,,,,,,,,,,,,,,,,,,,,,,,,,,,,,,,,
,,67754b05380765134ed617c0,2026-03-17_17h03.32.614,kallum_motion_pilot_GIST_update_2,2026.1.1,Win32,60.97560976,67754b05380765134ed617c0,69b95efdef24cd8a694e89ee,69b960eee382b2445a5dc58b,0.0223,0.0223,0,3,3,83,1,sixeight,,,,,,,,,,,,,,,,,,,,,,,,,,,,,,,,,,,,,,,,,,,,,,,,,,,,,,,,,,,,,,,,,,,,,,,,,,,,,,,,,,,,,,,,,,,,,,,,,,,,,,,,,,,,,,,,,,,,,,,,,,,,,,,,,,,,,,,,,
,,67754b05380765134ed617c0,2026-03-17_17h03.32.614,kallum_motion_pilot_GIST_update_2,2026.1.1,Win32,60.97560976,67754b05380765134ed617c0,69b95efdef24cd8a694e89ee,69b960eee382b2445a5dc58b,0.0225,0.0225,0,4,4,59,1,twofour,,,,,,,,,,,,,,,,,,,,,,,,,,,,,,,,,,,,,,,,,,,,,,,,,,,,,,,,,,,,,,,,,,,,,,,,,,,,,,,,,,,,,,,,,,,,,,,,,,,,,,,,,,,,,,,,,,,,,,,,,,,,,,,,,,,,,,,,,
,,67754b05380765134ed617c0,2026-03-17_17h03.32.614,kallum_motion_pilot_GIST_update_2,2026.1.1,Win32,60.97560976,67754b05380765134ed617c0,69b95efdef24cd8a694e89ee,69b960eee382b2445a5dc58b,0.0226,0.0226,0,5,5,72,1,onetwo,,,,,,,,,,,,,,,,,,,,,,,,,,,,,,,,,,,,,,,,,,,,,,,,,,,,,,,,,,,,,,,,,,,,,,,,,,,,,,,,,,,,,,,,,,,,,,,,,,,,,,,,,,,,,,,,,,,,,,,,,,,,,,,,,,,,,,,,,
,,67754b05380765134ed617c0,2026-03-17_17h03.32.614,kallum_motion_pilot_GIST_update_2,2026.1.1,Win32,60.97560976,67754b05380765134ed617c0,69b95efdef24cd8a694e89ee,69b960eee382b2445a5dc58b,0.0227,0.0228,0,6,6,61,1,threefour,,,,,,,,,,,,,,,,,,,,,,,,,,,,,,,,,,,,,,,,,,,,,,,,,,,,,,,,,,,,,,,,,,,,,,,,,,,,,,,,,,,,,,,,,,,,,,,,,,,,,,,,,,,,,,,,,,,,,,,,,,,,,,,,,,,,,,,,,
,,67754b05380765134ed617c0,2026-03-17_17h03.32.614,kallum_motion_pilot_GIST_update_2,2026.1.1,Win32,60.97560976,67754b05380765134ed617c0,69b95efdef24cd8a694e89ee,69b960eee382b2445a5dc58b,0.0229,0.023,0,7,7,88,1,fivesix,,,,,,,,,,,,,,,,,,,,,,,,,,,,,,,,,,,,,,,,,,,,,,,,,,,,,,,,,,,,,,,,,,,,,,,,,,,,,,,,,,,,,,,,,,,,,,,,,,,,,,,,,,,,,,,,,,,,,,,,,,,,,,,,,,,,,,,,,
,,67754b05380765134ed617c0,2026-03-17_17h03.32.614,kallum_motion_pilot_GIST_update_2,2026.1.1,Win32,60.97560976,67754b05380765134ed617c0,69b95efdef24cd8a694e89ee,69b960eee382b2445a5dc58b,0.0231,0.0232,0,8,8,115,1,sixeight,,,,,,,,,,,,,,,,,,,,,,,,,,,,,,,,,,,,,,,,,,,,,,,,,,,,,,,,,,,,,,,,,,,,,,,,,,,,,,,,,,,,,,,,,,,,,,,,,,,,,,,,,,,,,,,,,,,,,,,,,,,,,,,,,,,,,,,,,
,,67754b05380765134ed617c0,2026-03-17_17h03.32.614,kallum_motion_pilot_GIST_update_2,2026.1.1,Win32,60.97560976,67754b05380765134ed617c0,69b95efdef24cd8a694e89ee,69b960eee382b2445a5dc58b,0.0234,0.0234,0,9,9,73,1,onethree,,,,,,,,,,,,,,,,,,,,,,,,,,,,,,,,,,,,,,,,,,,,,,,,,,,,,,,,,,,,,,,,,,,,,,,,,,,,,,,,,,,,,,,,,,,,,,,,,,,,,,,,,,,,,,,,,,,,,,,,,,,,,,,,,,,,,,,,,
,,67754b05380765134ed617c0,2026-03-17_17h03.32.614,kallum_motion_pilot_GIST_update_2,2026.1.1,Win32,60.97560976,67754b05380765134ed617c0,69b95efdef24cd8a694e89ee,69b960eee382b2445a5dc58b,0.0235,0.0235,0,10,10,35,1,twofour,,,,,,,,,,,,,,,,,,,,,,,,,,,,,,,,,,,,,,,,,,,,,,,,,,,,,,,,,,,,,,,,,,,,,,,,,,,,,,,,,,,,,,,,,,,,,,,,,,,,,,,,,,,,,,,,,,,,,,,,,,,,,,,,,,,,,,,,,
,,67754b05380765134ed617c0,2026-03-17_17h03.32.614,kallum_motion_pilot_GIST_update_2,2026.1.1,Win32,60.97560976,67754b05380765134ed617c0,69b95efdef24cd8a694e89ee,69b960eee382b2445a5dc58b,0.0236,0.0236,0,11,11,50,1,twoone,,,,,,,,,,,,,,,,,,,,,,,,,,,,,,,,,,,,,,,,,,,,,,,,,,,,,,,,,,,,,,,,,,,,,,,,,,,,,,,,,,,,,,,,,,,,,,,,,,,,,,,,,,,,,,,,,,,,,,,,,,,,,,,,,,,,,,,,,
,,67754b05380765134ed617c0,2026-03-17_17h03.32.614,kallum_motion_pilot_GIST_update_2,2026.1.1,Win32,60.97560976,67754b05380765134ed617c0,69b95efdef24cd8a694e89ee,69b960eee382b2445a5dc58b,0.0238,0.0238,0,12,12,68,1,threeone,,,,,,,,,,,,,,,,,,,,,,,,,,,,,,,,,,,,,,,,,,,,,,,,,,,,,,,,,,,,,,,,,,,,,,,,,,,,,,,,,,,,,,,,,,,,,,,,,,,,,,,,,,,,,,,,,,,,,,,,,,,,,,,,,,,,,,,,,
,,67754b05380765134ed617c0,2026-03-17_17h03.32.614,kallum_motion_pilot_GIST_update_2,2026.1.1,Win32,60.97560976,67754b05380765134ed617c0,69b95efdef24cd8a694e89ee,69b960eee382b2445a5dc58b,0.0239,0.0239,0,13,13,96,1,fivesix,,,,,,,,,,,,,,,,,,,,,,,,,,,,,,,,,,,,,,,,,,,,,,,,,,,,,,,,,,,,,,,,,,,,,,,,,,,,,,,,,,,,,,,,,,,,,,,,,,,,,,,,,,,,,,,,,,,,,,,,,,,,,,,,,,,,,,,,,
,,67754b05380765134ed617c0,2026-03-17_17h03.32.614,kallum_motion_pilot_GIST_update_2,2026.1.1,Win32,60.97560976,67754b05380765134ed617c0,69b95efdef24cd8a694e89ee,69b960eee382b2445a5dc58b,0.024,0.024,0,14,14,149,1,seveneight,,,,,,,,,,,,,,,,,,,,,,,,,,,,,,,,,,,,,,,,,,,,,,,,,,,,,,,,,,,,,,,,,,,,,,,,,,,,,,,,,,,,,,,,,,,,,,,,,,,,,,,,,,,,,,,,,,,,,,,,,,,,,,,,,,,,,,,,,
,,67754b05380765134ed617c0,2026-03-17_17h03.32.614,kallum_motion_pilot_GIST_update_2,2026.1.1,Win32,60.97560976,67754b05380765134ed617c0,69b95efdef24cd8a694e89ee,69b960eee382b2445a5dc58b,0.0242,0.0242,0,15,15,146,1,sixfive,,,,,,,,,,,,,,,,,,,,,,,,,,,,,,,,,,,,,,,,,,,,,,,,,,,,,,,,,,,,,,,,,,,,,,,,,,,,,,,,,,,,,,,,,,,,,,,,,,,,,,,,,,,,,,,,,,,,,,,,,,,,,,,,,,,,,,,,,
,,67754b05380765134ed617c0,2026-03-17_17h03.32.614,kallum_motion_pilot_GIST_update_2,2026.1.1,Win32,60.97560976,67754b05380765134ed617c0,69b95efdef24cd8a694e89ee,69b960eee382b2445a5dc58b,0.0244,0.0244,0,16,16,69,1,threefour,,,,,,,,,,,,,,,,,,,,,,,,,,,,,,,,,,,,,,,,,,,,,,,,,,,,,,,,,,,,,,,,,,,,,,,,,,,,,,,,,,,,,,,,,,,,,,,,,,,,,,,,,,,,,,,,,,,,,,,,,,,,,,,,,,,,,,,,,
,,67754b05380765134ed617c0,2026-03-17_17h03.32.614,kallum_motion_pilot_GIST_update_2,2026.1.1,Win32,60.97560976,67754b05380765134ed617c0,69b95efdef24cd8a694e89ee,69b960eee382b2445a5dc58b,0.0244,0.0244,0,17,17,112,1,fivesix,,,,,,,,,,,,,,,,,,,,,,,,,,,,,,,,,,,,,,,,,,,,,,,,,,,,,,,,,,,,,,,,,,,,,,,,,,,,,,,,,,,,,,,,,,,,,,,,,,,,,,,,,,,,,,,,,,,,,,,,,,,,,,,,,,,,,,,,,
,,67754b05380765134ed617c0,2026-03-17_17h03.32.614,kallum_motion_pilot_GIST_update_2,2026.1.1,Win32,60.97560976,67754b05380765134ed617c0,69b95efdef24cd8a694e89ee,69b960eee382b2445a5dc58b,0.0245,0.0245,0,18,18,24,1,onetwo,,,,,,,,,,,,,,,,,,,,,,,,,,,,,,,,,,,,,,,,,,,,,,,,,,,,,,,,,,,,,,,,,,,,,,,,,,,,,,,,,,,,,,,,,,,,,,,,,,,,,,,,,,,,,,,,,,,,,,,,,,,,,,,,,,,,,,,,,
,,67754b05380765134ed617c0,2026-03-17_17h03.32.614,kallum_motion_pilot_GIST_update_2,2026.1.1,Win32,60.97560976,67754b05380765134ed617c0,69b95efdef24cd8a694e89ee,69b960eee382b2445a5dc58b,0.0246,0.0246,0,19,19,129,1,fiveseven,,,,,,,,,,,,,,,,,,,,,,,,,,,,,,,,,,,,,,,,,,,,,,,,,,,,,,,,,,,,,,,,,,,,,,,,,,,,,,,,,,,,,,,,,,,,,,,,,,,,,,,,,,,,,,,,,,,,,,,,,,,,,,,,,,,,,,,,,
,,67754b05380765134ed617c0,2026-03-17_17h03.32.614,kallum_motion_pilot_GIST_update_2,2026.1.1,Win32,60.97560976,67754b05380765134ed617c0,69b95efdef24cd8a694e89ee,69b960eee382b2445a5dc58b,0.0248,0.0248,0,20,20,159,1,eightseven,,,,,,,,,,,,,,,,,,,,,,,,,,,,,,,,,,,,,,,,,,,,,,,,,,,,,,,,,,,,,,,,,,,,,,,,,,,,,,,,,,,,,,,,,,,,,,,,,,,,,,,,,,,,,,,,,,,,,,,,,,,,,,,,,,,,,,,,,
,,67754b05380765134ed617c0,2026-03-17_17h03.32.614,kallum_motion_pilot_GIST_update_2,2026.1.1,Win32,60.97560976,67754b05380765134ed617c0,69b95efdef24cd8a694e89ee,69b960eee382b2445a5dc58b,0.0248,0.0248,0,21,21,19,1,twofour,,,,,,,,,,,,,,,,,,,,,,,,,,,,,,,,,,,,,,,,,,,,,,,,,,,,,,,,,,,,,,,,,,,,,,,,,,,,,,,,,,,,,,,,,,,,,,,,,,,,,,,,,,,,,,,,,,,,,,,,,,,,,,,,,,,,,,,,,
,,67754b05380765134ed617c0,2026-03-17_17h03.32.614,kallum_motion_pilot_GIST_update_2,2026.1.1,Win32,60.97560976,67754b05380765134ed617c0,69b95efdef24cd8a694e89ee,69b960eee382b2445a5dc58b,0.0249,0.0249,0,22,22,89,1,fiveseven,,,,,,,,,,,,,,,,,,,,,,,,,,,,,,,,,,,,,,,,,,,,,,,,,,,,,,,,,,,,,,,,,,,,,,,,,,,,,,,,,,,,,,,,,,,,,,,,,,,,,,,,,,,,,,,,,,,,,,,,,,,,,,,,,,,,,,,,,
,,67754b05380765134ed617c0,2026-03-17_17h03.32.614,kallum_motion_pilot_GIST_update_2,2026.1.1,Win32,60.97560976,67754b05380765134ed617c0,69b95efdef24cd8a694e89ee,69b960eee382b2445a5dc58b,0.025,0.025,0,23,23,154,1,sixfive,,,,,,,,,,,,,,,,,,,,,,,,,,,,,,,,,,,,,,,,,,,,,,,,,,,,,,,,,,,,,,,,,,,,,,,,,,,,,,,,,,,,,,,,,,,,,,,,,,,,,,,,,,,,,,,,,,,,,,,,,,,,,,,,,,,,,,,,,
,,67754b05380765134ed617c0,2026-03-17_17h03.32.614,kallum_motion_pilot_GIST_update_2,2026.1.1,Win32,60.97560976,67754b05380765134ed617c0,69b95efdef24cd8a694e89ee,69b960eee382b2445a5dc58b,0.0252,0.0252,0,24,24,37,1,threefour,,,,,,,,,,,,,,,,,,,,,,,,,,,,,,,,,,,,,,,,,,,,,,,,,,,,,,,,,,,,,,,,,,,,,,,,,,,,,,,,,,,,,,,,,,,,,,,,,,,,,,,,,,,,,,,,,,,,,,,,,,,,,,,,,,,,,,,,,
,,67754b05380765134ed617c0,2026-03-17_17h03.32.614,kallum_motion_pilot_GIST_update_2,2026.1.1,Win32,60.97560976,67754b05380765134ed617c0,69b95efdef24cd8a694e89ee,69b960eee382b2445a5dc58b,0.0253,0.0253,0,25,25,17,1,onethree,,,,,,,,,,,,,,,,,,,,,,,,,,,,,,,,,,,,,,,,,,,,,,,,,,,,,,,,,,,,,,,,,,,,,,,,,,,,,,,,,,,,,,,,,,,,,,,,,,,,,,,,,,,,,,,,,,,,,,,,,,,,,,,,,,,,,,,,,
,,67754b05380765134ed617c0,2026-03-17_17h03.32.614,kallum_motion_pilot_GIST_update_2,2026.1.1,Win32,60.97560976,67754b05380765134ed617c0,69b95efdef24cd8a694e89ee,69b960eee382b2445a5dc58b,0.0255,0.0255,0,26,26,99,1,sixeight,,,,,,,,,,,,,,,,,,,,,,,,,,,,,,,,,,,,,,,,,,,,,,,,,,,,,,,,,,,,,,,,,,,,,,,,,,,,,,,,,,,,,,,,,,,,,,,,,,,,,,,,,,,,,,,,,,,,,,,,,,,,,,,,,,,,,,,,,
,,67754b05380765134ed617c0,2026-03-17_17h03.32.614,kallum_motion_pilot_GIST_update_2,2026.1.1,Win32,60.97560976,67754b05380765134ed617c0,69b95efdef24cd8a694e89ee,69b960eee382b2445a5dc58b,0.0258,0.0258,0,27,27,54,1,fourtwo,,,,,,,,,,,,,,,,,,,,,,,,,,,,,,,,,,,,,,,,,,,,,,,,,,,,,,,,,,,,,,,,,,,,,,,,,,,,,,,,,,,,,,,,,,,,,,,,,,,,,,,,,,,,,,,,,,,,,,,,,,,,,,,,,,,,,,,,,
,,67754b05380765134ed617c0,2026-03-17_17h03.32.614,kallum_motion_pilot_GIST_update_2,2026.1.1,Win32,60.97560976,67754b05380765134ed617c0,69b95efdef24cd8a694e89ee,69b960eee382b2445a5dc58b,0.0263,0.0263,0,28,28,3,1,twofour,,,,,,,,,,,,,,,,,,,,,,,,,,,,,,,,,,,,,,,,,,,,,,,,,,,,,,,,,,,,,,,,,,,,,,,,,,,,,,,,,,,,,,,,,,,,,,,,,,,,,,,,,,,,,,,,,,,,,,,,,,,,,,,,,,,,,,,,,
,,67754b05380765134ed617c0,2026-03-17_17h03.32.614,kallum_motion_pilot_GIST_update_2,2026.1.1,Win32,60.97560976,67754b05380765134ed617c0,69b95efdef24cd8a694e89ee,69b960eee382b2445a5dc58b,0.0264,0.0264,0,29,29,26,1,twoone,,,,,,,,,,,,,,,,,,,,,,,,,,,,,,,,,,,,,,,,,,,,,,,,,,,,,,,,,,,,,,,,,,,,,,,,,,,,,,,,,,,,,,,,,,,,,,,,,,,,,,,,,,,,,,,,,,,,,,,,,,,,,,,,,,,,,,,,,
,,67754b05380765134ed617c0,2026-03-17_17h03.32.614,kallum_motion_pilot_GIST_update_2,2026.1.1,Win32,60.97560976,67754b05380765134ed617c0,69b95efdef24cd8a694e89ee,69b960eee382b2445a5dc58b,0.0267,0.0267,0,30,30,65,1,onethree,,,,,,,,,,,,,,,,,,,,,,,,,,,,,,,,,,,,,,,,,,,,,,,,,,,,,,,,,,,,,,,,,,,,,,,,,,,,,,,,,,,,,,,,,,,,,,,,,,,,,,,,,,,,,,,,,,,,,,,,,,,,,,,,,,,,,,,,,
,,67754b05380765134ed617c0,2026-03-17_17h03.32.614,kallum_motion_pilot_GIST_update_2,2026.1.1,Win32,60.97560976,67754b05380765134ed617c0,69b95efdef24cd8a694e89ee,69b960eee382b2445a5dc58b,0.0269,0.0269,0,31,31,10,1,twoone,,,,,,,,,,,,,,,,,,,,,,,,,,,,,,,,,,,,,,,,,,,,,,,,,,,,,,,,,,,,,,,,,,,,,,,,,,,,,,,,,,,,,,,,,,,,,,,,,,,,,,,,,,,,,,,,,,,,,,,,,,,,,,,,,,,,,,,,,
,,67754b05380765134ed617c0,2026-03-17_17h03.32.614,kallum_motion_pilot_GIST_update_2,2026.1.1,Win32,60.97560976,67754b05380765134ed617c0,69b95efdef24cd8a694e89ee,69b960eee382b2445a5dc58b,0.0271,0.0271,0,32,32,105,1,fiveseven,,,,,,,,,,,,,,,,,,,,,,,,,,,,,,,,,,,,,,,,,,,,,,,,,,,,,,,,,,,,,,,,,,,,,,,,,,,,,,,,,,,,,,,,,,,,,,,,,,,,,,,,,,,,,,,,,,,,,,,,,,,,,,,,,,,,,,,,,
,,67754b05380765134ed617c0,2026-03-17_17h03.32.614,kallum_motion_pilot_GIST_update_2,2026.1.1,Win32,60.97560976,67754b05380765134ed617c0,69b95efdef24cd8a694e89ee,69b960eee382b2445a5dc58b,0.0274,0.0274,0,33,33,36,1,threeone,,,,,,,,,,,,,,,,,,,,,,,,,,,,,,,,,,,,,,,,,,,,,,,,,,,,,,,,,,,,,,,,,,,,,,,,,,,,,,,,,,,,,,,,,,,,,,,,,,,,,,,,,,,,,,,,,,,,,,,,,,,,,,,,,,,,,,,,,
,,67754b05380765134ed617c0,2026-03-17_17h03.32.614,kallum_motion_pilot_GIST_update_2,2026.1.1,Win32,60.97560976,67754b05380765134ed617c0,69b95efdef24cd8a694e89ee,69b960eee382b2445a5dc58b,0.0277,0.0277,0,34,34,2,1,twoone,,,,,,,,,,,,,,,,,,,,,,,,,,,,,,,,,,,,,,,,,,,,,,,,,,,,,,,,,,,,,,,,,,,,,,,,,,,,,,,,,,,,,,,,,,,,,,,,,,,,,,,,,,,,,,,,,,,,,,,,,,,,,,,,,,,,,,,,,
,,67754b05380765134ed617c0,2026-03-17_17h03.32.614,kallum_motion_pilot_GIST_update_2,2026.1.1,Win32,60.97560976,67754b05380765134ed617c0,69b95efdef24cd8a694e89ee,69b960eee382b2445a5dc58b,0.0278,0.0278,0,35,35,143,1,eightseven,,,,,,,,,,,,,,,,,,,,,,,,,,,,,,,,,,,,,,,,,,,,,,,,,,,,,,,,,,,,,,,,,,,,,,,,,,,,,,,,,,,,,,,,,,,,,,,,,,,,,,,,,,,,,,,,,,,,,,,,,,,,,,,,,,,,,,,,,
,,67754b05380765134ed617c0,2026-03-17_17h03.32.614,kallum_motion_pilot_GIST_update_2,2026.1.1,Win32,60.97560976,67754b05380765134ed617c0,69b95efdef24cd8a694e89ee,69b960eee382b2445a5dc58b,0.0279,0.0279,0,36,36,97,1,fiveseven,,,,,,,,,,,,,,,,,,,,,,,,,,,,,,,,,,,,,,,,,,,,,,,,,,,,,,,,,,,,,,,,,,,,,,,,,,,,,,,,,,,,,,,,,,,,,,,,,,,,,,,,,,,,,,,,,,,,,,,,,,,,,,,,,,,,,,,,,
,,67754b05380765134ed617c0,2026-03-17_17h03.32.614,kallum_motion_pilot_GIST_update_2,2026.1.1,Win32,60.97560976,67754b05380765134ed617c0,69b95efdef24cd8a694e89ee,69b960eee382b2445a5dc58b,0.028,0.028,0,37,37,49,1,onethree,,,,,,,,,,,,,,,,,,,,,,,,,,,,,,,,,,,,,,,,,,,,,,,,,,,,,,,,,,,,,,,,,,,,,,,,,,,,,,,,,,,,,,,,,,,,,,,,,,,,,,,,,,,,,,,,,,,,,,,,,,,,,,,,,,,,,,,,,
,,67754b05380765134ed617c0,2026-03-17_17h03.32.614,kallum_motion_pilot_GIST_update_2,2026.1.1,Win32,60.97560976,67754b05380765134ed617c0,69b95efdef24cd8a694e89ee,69b960eee382b2445a5dc58b,0.028,0.028,0,38,38,90,1,sixfive,,,,,,,,,,,,,,,,,,,,,,,,,,,,,,,,,,,,,,,,,,,,,,,,,,,,,,,,,,,,,,,,,,,,,,,,,,,,,,,,,,,,,,,,,,,,,,,,,,,,,,,,,,,,,,,,,,,,,,,,,,,,,,,,,,,,,,,,,
,,67754b05380765134ed617c0,2026-03-17_17h03.32.614,kallum_motion_pilot_GIST_update_2,2026.1.1,Win32,60.97560976,67754b05380765134ed617c0,69b95efdef24cd8a694e89ee,69b960eee382b2445a5dc58b,0.0283,0.0283,0,39,39,28,1,threeone,,,,,,,,,,,,,,,,,,,,,,,,,,,,,,,,,,,,,,,,,,,,,,,,,,,,,,,,,,,,,,,,,,,,,,,,,,,,,,,,,,,,,,,,,,,,,,,,,,,,,,,,,,,,,,,,,,,,,,,,,,,,,,,,,,,,,,,,,
,,67754b05380765134ed617c0,2026-03-17_17h03.32.614,kallum_motion_pilot_GIST_update_2,2026.1.1,Win32,60.97560976,67754b05380765134ed617c0,69b95efdef24cd8a694e89ee,69b960eee382b2445a5dc58b,0.0284,0.0284,0,40,40,128,1,fivesix,,,,,,,,,,,,,,,,,,,,,,,,,,,,,,,,,,,,,,,,,,,,,,,,,,,,,,,,,,,,,,,,,,,,,,,,,,,,,,,,,,,,,,,,,,,,,,,,,,,,,,,,,,,,,,,,,,,,,,,,,,,,,,,,,,,,,,,,,
,,67754b05380765134ed617c0,2026-03-17_17h03.32.614,kallum_motion_pilot_GIST_update_2,2026.1.1,Win32,60.97560976,67754b05380765134ed617c0,69b95efdef24cd8a694e89ee,69b960eee382b2445a5dc58b,0.0286,0.0286,0,41,41,34,1,twoone,,,,,,,,,,,,,,,,,,,,,,,,,,,,,,,,,,,,,,,,,,,,,,,,,,,,,,,,,,,,,,,,,,,,,,,,,,,,,,,,,,,,,,,,,,,,,,,,,,,,,,,,,,,,,,,,,,,,,,,,,,,,,,,,,,,,,,,,,
,,67754b05380765134ed617c0,2026-03-17_17h03.32.614,kallum_motion_pilot_GIST_update_2,2026.1.1,Win32,60.97560976,67754b05380765134ed617c0,69b95efdef24cd8a694e89ee,69b960eee382b2445a5dc58b,0.0287,0.0287,0,42,42,120,1,fivesix,,,,,,,,,,,,,,,,,,,,,,,,,,,,,,,,,,,,,,,,,,,,,,,,,,,,,,,,,,,,,,,,,,,,,,,,,,,,,,,,,,,,,,,,,,,,,,,,,,,,,,,,,,,,,,,,,,,,,,,,,,,,,,,,,,,,,,,,,
,,67754b05380765134ed617c0,2026-03-17_17h03.32.614,kallum_motion_pilot_GIST_update_2,2026.1.1,Win32,60.97560976,67754b05380765134ed617c0,69b95efdef24cd8a694e89ee,69b960eee382b2445a5dc58b,0.0288,0.0288,0,43,43,135,1,eightseven,,,,,,,,,,,,,,,,,,,,,,,,,,,,,,,,,,,,,,,,,,,,,,,,,,,,,,,,,,,,,,,,,,,,,,,,,,,,,,,,,,,,,,,,,,,,,,,,,,,,,,,,,,,,,,,,,,,,,,,,,,,,,,,,,,,,,,,,,
,,67754b05380765134ed617c0,2026-03-17_17h03.32.614,kallum_motion_pilot_GIST_update_2,2026.1.1,Win32,60.97560976,67754b05380765134ed617c0,69b95efdef24cd8a694e89ee,69b960eee382b2445a5dc58b,0.0289,0.0289,0,44,44,116,1,sevenfive,,,,,,,,,,,,,,,,,,,,,,,,,,,,,,,,,,,,,,,,,,,,,,,,,,,,,,,,,,,,,,,,,,,,,,,,,,,,,,,,,,,,,,,,,,,,,,,,,,,,,,,,,,,,,,,,,,,,,,,,,,,,,,,,,,,,,,,,,
,,67754b05380765134ed617c0,2026-03-17_17h03.32.614,kallum_motion_pilot_GIST_update_2,2026.1.1,Win32,60.97560976,67754b05380765134ed617c0,69b95efdef24cd8a694e89ee,69b960eee382b2445a5dc58b,0.029,0.029,0,45,45,104,1,fivesix,,,,,,,,,,,,,,,,,,,,,,,,,,,,,,,,,,,,,,,,,,,,,,,,,,,,,,,,,,,,,,,,,,,,,,,,,,,,,,,,,,,,,,,,,,,,,,,,,,,,,,,,,,,,,,,,,,,,,,,,,,,,,,,,,,,,,,,,,
,,67754b05380765134ed617c0,2026-03-17_17h03.32.614,kallum_motion_pilot_GIST_update_2,2026.1.1,Win32,60.97560976,67754b05380765134ed617c0,69b95efdef24cd8a694e89ee,69b960eee382b2445a5dc58b,0.0302,0.0303,0,46,46,134,1,eightsix,,,,,,,,,,,,,,,,,,,,,,,,,,,,,,,,,,,,,,,,,,,,,,,,,,,,,,,,,,,,,,,,,,,,,,,,,,,,,,,,,,,,,,,,,,,,,,,,,,,,,,,,,,,,,,,,,,,,,,,,,,,,,,,,,,,,,,,,,
,,67754b05380765134ed617c0,2026-03-17_17h03.32.614,kallum_motion_pilot_GIST_update_2,2026.1.1,Win32,60.97560976,67754b05380765134ed617c0,69b95efdef24cd8a694e89ee,69b960eee382b2445a5dc58b,0.0304,0.0304,0,47,47,125,1,seveneight,,,,,,,,,,,,,,,,,,,,,,,,,,,,,,,,,,,,,,,,,,,,,,,,,,,,,,,,,,,,,,,,,,,,,,,,,,,,,,,,,,,,,,,,,,,,,,,,,,,,,,,,,,,,,,,,,,,,,,,,,,,,,,,,,,,,,,,,,
,,67754b05380765134ed617c0,2026-03-17_17h03.32.614,kallum_motion_pilot_GIST_update_2,2026.1.1,Win32,60.97560976,67754b05380765134ed617c0,69b95efdef24cd8a694e89ee,69b960eee382b2445a5dc58b,0.0305,0.0306,0,48,48,117,1,seveneight,,,,,,,,,,,,,,,,,,,,,,,,,,,,,,,,,,,,,,,,,,,,,,,,,,,,,,,,,,,,,,,,,,,,,,,,,,,,,,,,,,,,,,,,,,,,,,,,,,,,,,,,,,,,,,,,,,,,,,,,,,,,,,,,,,,,,,,,,
,,67754b05380765134ed617c0,2026-03-17_17h03.32.614,kallum_motion_pilot_GIST_update_2,2026.1.1,Win32,60.97560976,67754b05380765134ed617c0,69b95efdef24cd8a694e89ee,69b960eee382b2445a5dc58b,0.0308,0.0308,0,49,49,71,1,fourthree,,,,,,,,,,,,,,,,,,,,,,,,,,,,,,,,,,,,,,,,,,,,,,,,,,,,,,,,,,,,,,,,,,,,,,,,,,,,,,,,,,,,,,,,,,,,,,,,,,,,,,,,,,,,,,,,,,,,,,,,,,,,,,,,,,,,,,,,,
,,67754b05380765134ed617c0,2026-03-17_17h03.32.614,kallum_motion_pilot_GIST_update_2,2026.1.1,Win32,60.97560976,67754b05380765134ed617c0,69b95efdef24cd8a694e89ee,69b960eee382b2445a5dc58b,0.0308,0.0308,0,50,50,95,1,eightseven,,,,,,,,,,,,,,,,,,,,,,,,,,,,,,,,,,,,,,,,,,,,,,,,,,,,,,,,,,,,,,,,,,,,,,,,,,,,,,,,,,,,,,,,,,,,,,,,,,,,,,,,,,,,,,,,,,,,,,,,,,,,,,,,,,,,,,,,,
,,67754b05380765134ed617c0,2026-03-17_17h03.32.614,kallum_motion_pilot_GIST_update_2,2026.1.1,Win32,60.97560976,67754b05380765134ed617c0,69b95efdef24cd8a694e89ee,69b960eee382b2445a5dc58b,0.031,0.031,0,51,51,123,1,sixeight,,,,,,,,,,,,,,,,,,,,,,,,,,,,,,,,,,,,,,,,,,,,,,,,,,,,,,,,,,,,,,,,,,,,,,,,,,,,,,,,,,,,,,,,,,,,,,,,,,,,,,,,,,,,,,,,,,,,,,,,,,,,,,,,,,,,,,,,,
,,67754b05380765134ed617c0,2026-03-17_17h03.32.614,kallum_motion_pilot_GIST_update_2,2026.1.1,Win32,60.97560976,67754b05380765134ed617c0,69b95efdef24cd8a694e89ee,69b960eee382b2445a5dc58b,0.0311,0.0312,0,52,52,75,1,twofour,,,,,,,,,,,,,,,,,,,,,,,,,,,,,,,,,,,,,,,,,,,,,,,,,,,,,,,,,,,,,,,,,,,,,,,,,,,,,,,,,,,,,,,,,,,,,,,,,,,,,,,,,,,,,,,,,,,,,,,,,,,,,,,,,,,,,,,,,
,,67754b05380765134ed617c0,2026-03-17_17h03.32.614,kallum_motion_pilot_GIST_update_2,2026.1.1,Win32,60.97560976,67754b05380765134ed617c0,69b95efdef24cd8a694e89ee,69b960eee382b2445a5dc58b,0.0313,0.0313,0,53,53,100,1,sevenfive,,,,,,,,,,,,,,,,,,,,,,,,,,,,,,,,,,,,,,,,,,,,,,,,,,,,,,,,,,,,,,,,,,,,,,,,,,,,,,,,,,,,,,,,,,,,,,,,,,,,,,,,,,,,,,,,,,,,,,,,,,,,,,,,,,,,,,,,,
,,67754b05380765134ed617c0,2026-03-17_17h03.32.614,kallum_motion_pilot_GIST_update_2,2026.1.1,Win32,60.97560976,67754b05380765134ed617c0,69b95efdef24cd8a694e89ee,69b960eee382b2445a5dc58b,0.0315,0.0315,0,54,54,139,1,sixeight,,,,,,,,,,,,,,,,,,,,,,,,,,,,,,,,,,,,,,,,,,,,,,,,,,,,,,,,,,,,,,,,,,,,,,,,,,,,,,,,,,,,,,,,,,,,,,,,,,,,,,,,,,,,,,,,,,,,,,,,,,,,,,,,,,,,,,,,,
,,67754b05380765134ed617c0,2026-03-17_17h03.32.614,kallum_motion_pilot_GIST_update_2,2026.1.1,Win32,60.97560976,67754b05380765134ed617c0,69b95efdef24cd8a694e89ee,69b960eee382b2445a5dc58b,0.0315,0.0315,0,55,55,60,1,threeone,,,,,,,,,,,,,,,,,,,,,,,,,,,,,,,,,,,,,,,,,,,,,,,,,,,,,,,,,,,,,,,,,,,,,,,,,,,,,,,,,,,,,,,,,,,,,,,,,,,,,,,,,,,,,,,,,,,,,,,,,,,,,,,,,,,,,,,,,
,,67754b05380765134ed617c0,2026-03-17_17h03.32.614,kallum_motion_pilot_GIST_update_2,2026.1.1,Win32,60.97560976,67754b05380765134ed617c0,69b95efdef24cd8a694e89ee,69b960eee382b2445a5dc58b,0.0316,0.0317,0,56,56,47,1,fourthree,,,,,,,,,,,,,,,,,,,,,,,,,,,,,,,,,,,,,,,,,,,,,,,,,,,,,,,,,,,,,,,,,,,,,,,,,,,,,,,,,,,,,,,,,,,,,,,,,,,,,,,,,,,,,,,,,,,,,,,,,,,,,,,,,,,,,,,,,
,,67754b05380765134ed617c0,2026-03-17_17h03.32.614,kallum_motion_pilot_GIST_update_2,2026.1.1,Win32,60.97560976,67754b05380765134ed617c0,69b95efdef24cd8a694e89ee,69b960eee382b2445a5dc58b,0.0317,0.0317,0,57,57,127,1,eightseven,,,,,,,,,,,,,,,,,,,,,,,,,,,,,,,,,,,,,,,,,,,,,,,,,,,,,,,,,,,,,,,,,,,,,,,,,,,,,,,,,,,,,,,,,,,,,,,,,,,,,,,,,,,,,,,,,,,,,,,,,,,,,,,,,,,,,,,,,
,,67754b05380765134ed617c0,2026-03-17_17h03.32.614,kallum_motion_pilot_GIST_update_2,2026.1.1,Win32,60.97560976,67754b05380765134ed617c0,69b95efdef24cd8a694e89ee,69b960eee382b2445a5dc58b,0.0319,0.0319,0,58,58,108,1,sevenfive,,,,,,,,,,,,,,,,,,,,,,,,,,,,,,,,,,,,,,,,,,,,,,,,,,,,,,,,,,,,,,,,,,,,,,,,,,,,,,,,,,,,,,,,,,,,,,,,,,,,,,,,,,,,,,,,,,,,,,,,,,,,,,,,,,,,,,,,,
,,67754b05380765134ed617c0,2026-03-17_17h03.32.614,kallum_motion_pilot_GIST_update_2,2026.1.1,Win32,60.97560976,67754b05380765134ed617c0,69b95efdef24cd8a694e89ee,69b960eee382b2445a5dc58b,0.0319,0.0319,0,59,59,55,1,fourthree,,,,,,,,,,,,,,,,,,,,,,,,,,,,,,,,,,,,,,,,,,,,,,,,,,,,,,,,,,,,,,,,,,,,,,,,,,,,,,,,,,,,,,,,,,,,,,,,,,,,,,,,,,,,,,,,,,,,,,,,,,,,,,,,,,,,,,,,,
,,67754b05380765134ed617c0,2026-03-17_17h03.32.614,kallum_motion_pilot_GIST_update_2,2026.1.1,Win32,60.97560976,67754b05380765134ed617c0,69b95efdef24cd8a694e89ee,69b960eee382b2445a5dc58b,0.032,0.032,0,60,60,92,1,sevenfive,,,,,,,,,,,,,,,,,,,,,,,,,,,,,,,,,,,,,,,,,,,,,,,,,,,,,,,,,,,,,,,,,,,,,,,,,,,,,,,,,,,,,,,,,,,,,,,,,,,,,,,,,,,,,,,,,,,,,,,,,,,,,,,,,,,,,,,,,
,,67754b05380765134ed617c0,2026-03-17_17h03.32.614,kallum_motion_pilot_GIST_update_2,2026.1.1,Win32,60.97560976,67754b05380765134ed617c0,69b95efdef24cd8a694e89ee,69b960eee382b2445a5dc58b,0.0322,0.0322,0,61,61,41,1,onethree,,,,,,,,,,,,,,,,,,,,,,,,,,,,,,,,,,,,,,,,,,,,,,,,,,,,,,,,,,,,,,,,,,,,,,,,,,,,,,,,,,,,,,,,,,,,,,,,,,,,,,,,,,,,,,,,,,,,,,,,,,,,,,,,,,,,,,,,,
,,67754b05380765134ed617c0,2026-03-17_17h03.32.614,kallum_motion_pilot_GIST_update_2,2026.1.1,Win32,60.97560976,67754b05380765134ed617c0,69b95efdef24cd8a694e89ee,69b960eee382b2445a5dc58b,0.0322,0.0322,0,62,62,114,1,sixfive,,,,,,,,,,,,,,,,,,,,,,,,,,,,,,,,,,,,,,,,,,,,,,,,,,,,,,,,,,,,,,,,,,,,,,,,,,,,,,,,,,,,,,,,,,,,,,,,,,,,,,,,,,,,,,,,,,,,,,,,,,,,,,,,,,,,,,,,,
,,67754b05380765134ed617c0,2026-03-17_17h03.32.614,kallum_motion_pilot_GIST_update_2,2026.1.1,Win32,60.97560976,67754b05380765134ed617c0,69b95efdef24cd8a694e89ee,69b960eee382b2445a5dc58b,0.0324,0.0324,0,63,63,13,1,threefour,,,,,,,,,,,,,,,,,,,,,,,,,,,,,,,,,,,,,,,,,,,,,,,,,,,,,,,,,,,,,,,,,,,,,,,,,,,,,,,,,,,,,,,,,,,,,,,,,,,,,,,,,,,,,,,,,,,,,,,,,,,,,,,,,,,,,,,,,
,,67754b05380765134ed617c0,2026-03-17_17h03.32.614,kallum_motion_pilot_GIST_update_2,2026.1.1,Win32,60.97560976,67754b05380765134ed617c0,69b95efdef24cd8a694e89ee,69b960eee382b2445a5dc58b,0.0324,0.0324,0,64,64,56,1,onetwo,,,,,,,,,,,,,,,,,,,,,,,,,,,,,,,,,,,,,,,,,,,,,,,,,,,,,,,,,,,,,,,,,,,,,,,,,,,,,,,,,,,,,,,,,,,,,,,,,,,,,,,,,,,,,,,,,,,,,,,,,,,,,,,,,,,,,,,,,
,,67754b05380765134ed617c0,2026-03-17_17h03.32.614,kallum_motion_pilot_GIST_update_2,2026.1.1,Win32,60.97560976,67754b05380765134ed617c0,69b95efdef24cd8a694e89ee,69b960eee382b2445a5dc58b,0.0326,0.0326,0,65,65,98,1,sixfive,,,,,,,,,,,,,,,,,,,,,,,,,,,,,,,,,,,,,,,,,,,,,,,,,,,,,,,,,,,,,,,,,,,,,,,,,,,,,,,,,,,,,,,,,,,,,,,,,,,,,,,,,,,,,,,,,,,,,,,,,,,,,,,,,,,,,,,,,
,,67754b05380765134ed617c0,2026-03-17_17h03.32.614,kallum_motion_pilot_GIST_update_2,2026.1.1,Win32,60.97560976,67754b05380765134ed617c0,69b95efdef24cd8a694e89ee,69b960eee382b2445a5dc58b,0.0328,0.0328,0,66,66,84,1,sevenfive,,,,,,,,,,,,,,,,,,,,,,,,,,,,,,,,,,,,,,,,,,,,,,,,,,,,,,,,,,,,,,,,,,,,,,,,,,,,,,,,,,,,,,,,,,,,,,,,,,,,,,,,,,,,,,,,,,,,,,,,,,,,,,,,,,,,,,,,,
,,67754b05380765134ed617c0,2026-03-17_17h03.32.614,kallum_motion_pilot_GIST_update_2,2026.1.1,Win32,60.97560976,67754b05380765134ed617c0,69b95efdef24cd8a694e89ee,69b960eee382b2445a5dc58b,0.0329,0.0329,0,67,67,29,1,threefour,,,,,,,,,,,,,,,,,,,,,,,,,,,,,,,,,,,,,,,,,,,,,,,,,,,,,,,,,,,,,,,,,,,,,,,,,,,,,,,,,,,,,,,,,,,,,,,,,,,,,,,,,,,,,,,,,,,,,,,,,,,,,,,,,,,,,,,,,
,,67754b05380765134ed617c0,2026-03-17_17h03.32.614,kallum_motion_pilot_GIST_update_2,2026.1.1,Win32,60.97560976,67754b05380765134ed617c0,69b95efdef24cd8a694e89ee,69b960eee382b2445a5dc58b,0.033,0.033,0,68,68,63,1,fourthree,,,,,,,,,,,,,,,,,,,,,,,,,,,,,,,,,,,,,,,,,,,,,,,,,,,,,,,,,,,,,,,,,,,,,,,,,,,,,,,,,,,,,,,,,,,,,,,,,,,,,,,,,,,,,,,,,,,,,,,,,,,,,,,,,,,,,,,,,
,,67754b05380765134ed617c0,2026-03-17_17h03.32.614,kallum_motion_pilot_GIST_update_2,2026.1.1,Win32,60.97560976,67754b05380765134ed617c0,69b95efdef24cd8a694e89ee,69b960eee382b2445a5dc58b,0.0331,0.0331,0,69,69,52,1,threeone,,,,,,,,,,,,,,,,,,,,,,,,,,,,,,,,,,,,,,,,,,,,,,,,,,,,,,,,,,,,,,,,,,,,,,,,,,,,,,,,,,,,,,,,,,,,,,,,,,,,,,,,,,,,,,,,,,,,,,,,,,,,,,,,,,,,,,,,,
,,67754b05380765134ed617c0,2026-03-17_17h03.32.614,kallum_motion_pilot_GIST_update_2,2026.1.1,Win32,60.97560976,67754b05380765134ed617c0,69b95efdef24cd8a694e89ee,69b960eee382b2445a5dc58b,0.0333,0.0333,0,70,70,91,1,sixeight,,,,,,,,,,,,,,,,,,,,,,,,,,,,,,,,,,,,,,,,,,,,,,,,,,,,,,,,,,,,,,,,,,,,,,,,,,,,,,,,,,,,,,,,,,,,,,,,,,,,,,,,,,,,,,,,,,,,,,,,,,,,,,,,,,,,,,,,,
,,67754b05380765134ed617c0,2026-03-17_17h03.32.614,kallum_motion_pilot_GIST_update_2,2026.1.1,Win32,60.97560976,67754b05380765134ed617c0,69b95efdef24cd8a694e89ee,69b960eee382b2445a5dc58b,0.0333,0.0333,0,71,71,30,1,fourtwo,,,,,,,,,,,,,,,,,,,,,,,,,,,,,,,,,,,,,,,,,,,,,,,,,,,,,,,,,,,,,,,,,,,,,,,,,,,,,,,,,,,,,,,,,,,,,,,,,,,,,,,,,,,,,,,,,,,,,,,,,,,,,,,,,,,,,,,,,
,,67754b05380765134ed617c0,2026-03-17_17h03.32.614,kallum_motion_pilot_GIST_update_2,2026.1.1,Win32,60.97560976,67754b05380765134ed617c0,69b95efdef24cd8a694e89ee,69b960eee382b2445a5dc58b,0.0335,0.0335,0,72,72,152,1,fivesix,,,,,,,,,,,,,,,,,,,,,,,,,,,,,,,,,,,,,,,,,,,,,,,,,,,,,,,,,,,,,,,,,,,,,,,,,,,,,,,,,,,,,,,,,,,,,,,,,,,,,,,,,,,,,,,,,,,,,,,,,,,,,,,,,,,,,,,,,
,,67754b05380765134ed617c0,2026-03-17_17h03.32.614,kallum_motion_pilot_GIST_update_2,2026.1.1,Win32,60.97560976,67754b05380765134ed617c0,69b95efdef24cd8a694e89ee,69b960eee382b2445a5dc58b,0.0335,0.0335,0,73,73,0,1,onetwo,,,,,,,,,,,,,,,,,,,,,,,,,,,,,,,,,,,,,,,,,,,,,,,,,,,,,,,,,,,,,,,,,,,,,,,,,,,,,,,,,,,,,,,,,,,,,,,,,,,,,,,,,,,,,,,,,,,,,,,,,,,,,,,,,,,,,,,,,
,,67754b05380765134ed617c0,2026-03-17_17h03.32.614,kallum_motion_pilot_GIST_update_2,2026.1.1,Win32,60.97560976,67754b05380765134ed617c0,69b95efdef24cd8a694e89ee,69b960eee382b2445a5dc58b,0.0336,0.0336,0,74,74,156,1,sevenfive,,,,,,,,,,,,,,,,,,,,,,,,,,,,,,,,,,,,,,,,,,,,,,,,,,,,,,,,,,,,,,,,,,,,,,,,,,,,,,,,,,,,,,,,,,,,,,,,,,,,,,,,,,,,,,,,,,,,,,,,,,,,,,,,,,,,,,,,,
,,67754b05380765134ed617c0,2026-03-17_17h03.32.614,kallum_motion_pilot_GIST_update_2,2026.1.1,Win32,60.97560976,67754b05380765134ed617c0,69b95efdef24cd8a694e89ee,69b960eee382b2445a5dc58b,0.0338,0.0338,0,75,75,21,1,threefour,,,,,,,,,,,,,,,,,,,,,,,,,,,,,,,,,,,,,,,,,,,,,,,,,,,,,,,,,,,,,,,,,,,,,,,,,,,,,,,,,,,,,,,,,,,,,,,,,,,,,,,,,,,,,,,,,,,,,,,,,,,,,,,,,,,,,,,,,
,,67754b05380765134ed617c0,2026-03-17_17h03.32.614,kallum_motion_pilot_GIST_update_2,2026.1.1,Win32,60.97560976,67754b05380765134ed617c0,69b95efdef24cd8a694e89ee,69b960eee382b2445a5dc58b,0.0338,0.0338,0,76,76,78,1,fourtwo,,,,,,,,,,,,,,,,,,,,,,,,,,,,,,,,,,,,,,,,,,,,,,,,,,,,,,,,,,,,,,,,,,,,,,,,,,,,,,,,,,,,,,,,,,,,,,,,,,,,,,,,,,,,,,,,,,,,,,,,,,,,,,,,,,,,,,,,,
,,67754b05380765134ed617c0,2026-03-17_17h03.32.614,kallum_motion_pilot_GIST_update_2,2026.1.1,Win32,60.97560976,67754b05380765134ed617c0,69b95efdef24cd8a694e89ee,69b960eee382b2445a5dc58b,0.0339,0.034,0,77,77,158,1,eightsix,,,,,,,,,,,,,,,,,,,,,,,,,,,,,,,,,,,,,,,,,,,,,,,,,,,,,,,,,,,,,,,,,,,,,,,,,,,,,,,,,,,,,,,,,,,,,,,,,,,,,,,,,,,,,,,,,,,,,,,,,,,,,,,,,,,,,,,,,
,,67754b05380765134ed617c0,2026-03-17_17h03.32.614,kallum_motion_pilot_GIST_update_2,2026.1.1,Win32,60.97560976,67754b05380765134ed617c0,69b95efdef24cd8a694e89ee,69b960eee382b2445a5dc58b,0.0341,0.0341,0,78,78,145,1,fiveseven,,,,,,,,,,,,,,,,,,,,,,,,,,,,,,,,,,,,,,,,,,,,,,,,,,,,,,,,,,,,,,,,,,,,,,,,,,,,,,,,,,,,,,,,,,,,,,,,,,,,,,,,,,,,,,,,,,,,,,,,,,,,,,,,,,,,,,,,,
,,67754b05380765134ed617c0,2026-03-17_17h03.32.614,kallum_motion_pilot_GIST_update_2,2026.1.1,Win32,60.97560976,67754b05380765134ed617c0,69b95efdef24cd8a694e89ee,69b960eee382b2445a5dc58b,0.0341,0.0341,0,79,79,33,1,onethree,,,,,,,,,,,,,,,,,,,,,,,,,,,,,,,,,,,,,,,,,,,,,,,,,,,,,,,,,,,,,,,,,,,,,,,,,,,,,,,,,,,,,,,,,,,,,,,,,,,,,,,,,,,,,,,,,,,,,,,,,,,,,,,,,,,,,,,,,
,,67754b05380765134ed617c0,2026-03-17_17h03.32.614,kallum_motion_pilot_GIST_update_2,2026.1.1,Win32,60.97560976,67754b05380765134ed617c0,69b95efdef24cd8a694e89ee,69b960eee382b2445a5dc58b,0.0343,0.0343,0,80,80,85,1,seveneight,,,,,,,,,,,,,,,,,,,,,,,,,,,,,,,,,,,,,,,,,,,,,,,,,,,,,,,,,,,,,,,,,,,,,,,,,,,,,,,,,,,,,,,,,,,,,,,,,,,,,,,,,,,,,,,,,,,,,,,,,,,,,,,,,,,,,,,,,
,,67754b05380765134ed617c0,2026-03-17_17h03.32.614,kallum_motion_pilot_GIST_update_2,2026.1.1,Win32,60.97560976,67754b05380765134ed617c0,69b95efdef24cd8a694e89ee,69b960eee382b2445a5dc58b,0.0344,0.0344,0,81,81,119,1,eightseven,,,,,,,,,,,,,,,,,,,,,,,,,,,,,,,,,,,,,,,,,,,,,,,,,,,,,,,,,,,,,,,,,,,,,,,,,,,,,,,,,,,,,,,,,,,,,,,,,,,,,,,,,,,,,,,,,,,,,,,,,,,,,,,,,,,,,,,,,
,,67754b05380765134ed617c0,2026-03-17_17h03.32.614,kallum_motion_pilot_GIST_update_2,2026.1.1,Win32,60.97560976,67754b05380765134ed617c0,69b95efdef24cd8a694e89ee,69b960eee382b2445a5dc58b,0.0345,0.0345,0,82,82,160,1,fivesix,,,,,,,,,,,,,,,,,,,,,,,,,,,,,,,,,,,,,,,,,,,,,,,,,,,,,,,,,,,,,,,,,,,,,,,,,,,,,,,,,,,,,,,,,,,,,,,,,,,,,,,,,,,,,,,,,,,,,,,,,,,,,,,,,,,,,,,,,
,,67754b05380765134ed617c0,2026-03-17_17h03.32.614,kallum_motion_pilot_GIST_update_2,2026.1.1,Win32,60.97560976,67754b05380765134ed617c0,69b95efdef24cd8a694e89ee,69b960eee382b2445a5dc58b,0.0345,0.0345,0,83,83,12,1,threeone,,,,,,,,,,,,,,,,,,,,,,,,,,,,,,,,,,,,,,,,,,,,,,,,,,,,,,,,,,,,,,,,,,,,,,,,,,,,,,,,,,,,,,,,,,,,,,,,,,,,,,,,,,,,,,,,,,,,,,,,,,,,,,,,,,,,,,,,,
,,67754b05380765134ed617c0,2026-03-17_17h03.32.614,kallum_motion_pilot_GIST_update_2,2026.1.1,Win32,60.97560976,67754b05380765134ed617c0,69b95efdef24cd8a694e89ee,69b960eee382b2445a5dc58b,0.0347,0.0347,0,84,84,113,1,fiveseven,,,,,,,,,,,,,,,,,,,,,,,,,,,,,,,,,,,,,,,,,,,,,,,,,,,,,,,,,,,,,,,,,,,,,,,,,,,,,,,,,,,,,,,,,,,,,,,,,,,,,,,,,,,,,,,,,,,,,,,,,,,,,,,,,,,,,,,,,
,,67754b05380765134ed617c0,2026-03-17_17h03.32.614,kallum_motion_pilot_GIST_update_2,2026.1.1,Win32,60.97560976,67754b05380765134ed617c0,69b95efdef24cd8a694e89ee,69b960eee382b2445a5dc58b,0.0348,0.0348,0,85,85,126,1,eightsix,,,,,,,,,,,,,,,,,,,,,,,,,,,,,,,,,,,,,,,,,,,,,,,,,,,,,,,,,,,,,,,,,,,,,,,,,,,,,,,,,,,,,,,,,,,,,,,,,,,,,,,,,,,,,,,,,,,,,,,,,,,,,,,,,,,,,,,,,
,,67754b05380765134ed617c0,2026-03-17_17h03.32.614,kallum_motion_pilot_GIST_update_2,2026.1.1,Win32,60.97560976,67754b05380765134ed617c0,69b95efdef24cd8a694e89ee,69b960eee382b2445a5dc58b,0.0349,0.0349,0,86,86,136,1,fivesix,,,,,,,,,,,,,,,,,,,,,,,,,,,,,,,,,,,,,,,,,,,,,,,,,,,,,,,,,,,,,,,,,,,,,,,,,,,,,,,,,,,,,,,,,,,,,,,,,,,,,,,,,,,,,,,,,,,,,,,,,,,,,,,,,,,,,,,,,
,,67754b05380765134ed617c0,2026-03-17_17h03.32.614,kallum_motion_pilot_GIST_update_2,2026.1.1,Win32,60.97560976,67754b05380765134ed617c0,69b95efdef24cd8a694e89ee,69b960eee382b2445a5dc58b,0.0351,0.0351,0,87,87,140,1,sevenfive,,,,,,,,,,,,,,,,,,,,,,,,,,,,,,,,,,,,,,,,,,,,,,,,,,,,,,,,,,,,,,,,,,,,,,,,,,,,,,,,,,,,,,,,,,,,,,,,,,,,,,,,,,,,,,,,,,,,,,,,,,,,,,,,,,,,,,,,,
,,67754b05380765134ed617c0,2026-03-17_17h03.32.614,kallum_motion_pilot_GIST_update_2,2026.1.1,Win32,60.97560976,67754b05380765134ed617c0,69b95efdef24cd8a694e89ee,69b960eee382b2445a5dc58b,0.0351,0.0351,0,88,88,43,1,twofour,,,,,,,,,,,,,,,,,,,,,,,,,,,,,,,,,,,,,,,,,,,,,,,,,,,,,,,,,,,,,,,,,,,,,,,,,,,,,,,,,,,,,,,,,,,,,,,,,,,,,,,,,,,,,,,,,,,,,,,,,,,,,,,,,,,,,,,,,
,,67754b05380765134ed617c0,2026-03-17_17h03.32.614,kallum_motion_pilot_GIST_update_2,2026.1.1,Win32,60.97560976,67754b05380765134ed617c0,69b95efdef24cd8a694e89ee,69b960eee382b2445a5dc58b,0.0352,0.0353,0,89,89,46,1,fourtwo,,,,,,,,,,,,,,,,,,,,,,,,,,,,,,,,,,,,,,,,,,,,,,,,,,,,,,,,,,,,,,,,,,,,,,,,,,,,,,,,,,,,,,,,,,,,,,,,,,,,,,,,,,,,,,,,,,,,,,,,,,,,,,,,,,,,,,,,,
,,67754b05380765134ed617c0,2026-03-17_17h03.32.614,kallum_motion_pilot_GIST_update_2,2026.1.1,Win32,60.97560976,67754b05380765134ed617c0,69b95efdef24cd8a694e89ee,69b960eee382b2445a5dc58b,0.0354,0.0354,0,90,90,64,1,onetwo,,,,,,,,,,,,,,,,,,,,,,,,,,,,,,,,,,,,,,,,,,,,,,,,,,,,,,,,,,,,,,,,,,,,,,,,,,,,,,,,,,,,,,,,,,,,,,,,,,,,,,,,,,,,,,,,,,,,,,,,,,,,,,,,,,,,,,,,,
,,67754b05380765134ed617c0,2026-03-17_17h03.32.614,kallum_motion_pilot_GIST_update_2,2026.1.1,Win32,60.97560976,67754b05380765134ed617c0,69b95efdef24cd8a694e89ee,69b960eee382b2445a5dc58b,0.0355,0.0355,0,91,91,77,1,threefour,,,,,,,,,,,,,,,,,,,,,,,,,,,,,,,,,,,,,,,,,,,,,,,,,,,,,,,,,,,,,,,,,,,,,,,,,,,,,,,,,,,,,,,,,,,,,,,,,,,,,,,,,,,,,,,,,,,,,,,,,,,,,,,,,,,,,,,,,
,,67754b05380765134ed617c0,2026-03-17_17h03.32.614,kallum_motion_pilot_GIST_update_2,2026.1.1,Win32,60.97560976,67754b05380765134ed617c0,69b95efdef24cd8a694e89ee,69b960eee382b2445a5dc58b,0.0356,0.0356,0,92,92,150,1,eightsix,,,,,,,,,,,,,,,,,,,,,,,,,,,,,,,,,,,,,,,,,,,,,,,,,,,,,,,,,,,,,,,,,,,,,,,,,,,,,,,,,,,,,,,,,,,,,,,,,,,,,,,,,,,,,,,,,,,,,,,,,,,,,,,,,,,,,,,,,
,,67754b05380765134ed617c0,2026-03-17_17h03.32.614,kallum_motion_pilot_GIST_update_2,2026.1.1,Win32,60.97560976,67754b05380765134ed617c0,69b95efdef24cd8a694e89ee,69b960eee382b2445a5dc58b,0.0357,0.0357,0,93,93,4,1,threeone,,,,,,,,,,,,,,,,,,,,,,,,,,,,,,,,,,,,,,,,,,,,,,,,,,,,,,,,,,,,,,,,,,,,,,,,,,,,,,,,,,,,,,,,,,,,,,,,,,,,,,,,,,,,,,,,,,,,,,,,,,,,,,,,,,,,,,,,,
,,67754b05380765134ed617c0,2026-03-17_17h03.32.614,kallum_motion_pilot_GIST_update_2,2026.1.1,Win32,60.97560976,67754b05380765134ed617c0,69b95efdef24cd8a694e89ee,69b960eee382b2445a5dc58b,0.0358,0.0358,0,94,94,27,1,twofour,,,,,,,,,,,,,,,,,,,,,,,,,,,,,,,,,,,,,,,,,,,,,,,,,,,,,,,,,,,,,,,,,,,,,,,,,,,,,,,,,,,,,,,,,,,,,,,,,,,,,,,,,,,,,,,,,,,,,,,,,,,,,,,,,,,,,,,,,
,,67754b05380765134ed617c0,2026-03-17_17h03.32.614,kallum_motion_pilot_GIST_update_2,2026.1.1,Win32,60.97560976,67754b05380765134ed617c0,69b95efdef24cd8a694e89ee,69b960eee382b2445a5dc58b,0.0359,0.0359,0,95,95,131,1,sixeight,,,,,,,,,,,,,,,,,,,,,,,,,,,,,,,,,,,,,,,,,,,,,,,,,,,,,,,,,,,,,,,,,,,,,,,,,,,,,,,,,,,,,,,,,,,,,,,,,,,,,,,,,,,,,,,,,,,,,,,,,,,,,,,,,,,,,,,,,
,,67754b05380765134ed617c0,2026-03-17_17h03.32.614,kallum_motion_pilot_GIST_update_2,2026.1.1,Win32,60.97560976,67754b05380765134ed617c0,69b95efdef24cd8a694e89ee,69b960eee382b2445a5dc58b,0.0361,0.0361,0,96,96,51,1,twofour,,,,,,,,,,,,,,,,,,,,,,,,,,,,,,,,,,,,,,,,,,,,,,,,,,,,,,,,,,,,,,,,,,,,,,,,,,,,,,,,,,,,,,,,,,,,,,,,,,,,,,,,,,,,,,,,,,,,,,,,,,,,,,,,,,,,,,,,,
,,67754b05380765134ed617c0,2026-03-17_17h03.32.614,kallum_motion_pilot_GIST_update_2,2026.1.1,Win32,60.97560976,67754b05380765134ed617c0,69b95efdef24cd8a694e89ee,69b960eee382b2445a5dc58b,0.0361,0.0361,0,97,97,23,1,fourthree,,,,,,,,,,,,,,,,,,,,,,,,,,,,,,,,,,,,,,,,,,,,,,,,,,,,,,,,,,,,,,,,,,,,,,,,,,,,,,,,,,,,,,,,,,,,,,,,,,,,,,,,,,,,,,,,,,,,,,,,,,,,,,,,,,,,,,,,,
,,67754b05380765134ed617c0,2026-03-17_17h03.32.614,kallum_motion_pilot_GIST_update_2,2026.1.1,Win32,60.97560976,67754b05380765134ed617c0,69b95efdef24cd8a694e89ee,69b960eee382b2445a5dc58b,0.0362,0.0363,0,98,98,161,1,fiveseven,,,,,,,,,,,,,,,,,,,,,,,,,,,,,,,,,,,,,,,,,,,,,,,,,,,,,,,,,,,,,,,,,,,,,,,,,,,,,,,,,,,,,,,,,,,,,,,,,,,,,,,,,,,,,,,,,,,,,,,,,,,,,,,,,,,,,,,,,
,,67754b05380765134ed617c0,2026-03-17_17h03.32.614,kallum_motion_pilot_GIST_update_2,2026.1.1,Win32,60.97560976,67754b05380765134ed617c0,69b95efdef24cd8a694e89ee,69b960eee382b2445a5dc58b,0.0364,0.0364,0,99,99,76,1,threeone,,,,,,,,,,,,,,,,,,,,,,,,,,,,,,,,,,,,,,,,,,,,,,,,,,,,,,,,,,,,,,,,,,,,,,,,,,,,,,,,,,,,,,,,,,,,,,,,,,,,,,,,,,,,,,,,,,,,,,,,,,,,,,,,,,,,,,,,,
,,67754b05380765134ed617c0,2026-03-17_17h03.32.614,kallum_motion_pilot_GIST_update_2,2026.1.1,Win32,60.97560976,67754b05380765134ed617c0,69b95efdef24cd8a694e89ee,69b960eee382b2445a5dc58b,0.0365,0.0365,0,100,100,42,1,twoone,,,,,,,,,,,,,,,,,,,,,,,,,,,,,,,,,,,,,,,,,,,,,,,,,,,,,,,,,,,,,,,,,,,,,,,,,,,,,,,,,,,,,,,,,,,,,,,,,,,,,,,,,,,,,,,,,,,,,,,,,,,,,,,,,,,,,,,,,
,,67754b05380765134ed617c0,2026-03-17_17h03.32.614,kallum_motion_pilot_GIST_update_2,2026.1.1,Win32,60.97560976,67754b05380765134ed617c0,69b95efdef24cd8a694e89ee,69b960eee382b2445a5dc58b,0.0366,0.0366,0,101,101,14,1,fourtwo,,,,,,,,,,,,,,,,,,,,,,,,,,,,,,,,,,,,,,,,,,,,,,,,,,,,,,,,,,,,,,,,,,,,,,,,,,,,,,,,,,,,,,,,,,,,,,,,,,,,,,,,,,,,,,,,,,,,,,,,,,,,,,,,,,,,,,,,,
,,67754b05380765134ed617c0,2026-03-17_17h03.32.614,kallum_motion_pilot_GIST_update_2,2026.1.1,Win32,60.97560976,67754b05380765134ed617c0,69b95efdef24cd8a694e89ee,69b960eee382b2445a5dc58b,0.0367,0.0367,0,102,102,70,1,fourtwo,,,,,,,,,,,,,,,,,,,,,,,,,,,,,,,,,,,,,,,,,,,,,,,,,,,,,,,,,,,,,,,,,,,,,,,,,,,,,,,,,,,,,,,,,,,,,,,,,,,,,,,,,,,,,,,,,,,,,,,,,,,,,,,,,,,,,,,,,
,,67754b05380765134ed617c0,2026-03-17_17h03.32.614,kallum_motion_pilot_GIST_update_2,2026.1.1,Win32,60.97560976,67754b05380765134ed617c0,69b95efdef24cd8a694e89ee,69b960eee382b2445a5dc58b,0.0368,0.0368,0,103,103,130,1,sixfive,,,,,,,,,,,,,,,,,,,,,,,,,,,,,,,,,,,,,,,,,,,,,,,,,,,,,,,,,,,,,,,,,,,,,,,,,,,,,,,,,,,,,,,,,,,,,,,,,,,,,,,,,,,,,,,,,,,,,,,,,,,,,,,,,,,,,,,,,
,,67754b05380765134ed617c0,2026-03-17_17h03.32.614,kallum_motion_pilot_GIST_update_2,2026.1.1,Win32,60.97560976,67754b05380765134ed617c0,69b95efdef24cd8a694e89ee,69b960eee382b2445a5dc58b,0.0369,0.0369,0,104,104,25,1,onethree,,,,,,,,,,,,,,,,,,,,,,,,,,,,,,,,,,,,,,,,,,,,,,,,,,,,,,,,,,,,,,,,,,,,,,,,,,,,,,,,,,,,,,,,,,,,,,,,,,,,,,,,,,,,,,,,,,,,,,,,,,,,,,,,,,,,,,,,,
,,67754b05380765134ed617c0,2026-03-17_17h03.32.614,kallum_motion_pilot_GIST_update_2,2026.1.1,Win32,60.97560976,67754b05380765134ed617c0,69b95efdef24cd8a694e89ee,69b960eee382b2445a5dc58b,0.037,0.037,0,105,105,48,1,onetwo,,,,,,,,,,,,,,,,,,,,,,,,,,,,,,,,,,,,,,,,,,,,,,,,,,,,,,,,,,,,,,,,,,,,,,,,,,,,,,,,,,,,,,,,,,,,,,,,,,,,,,,,,,,,,,,,,,,,,,,,,,,,,,,,,,,,,,,,,
,,67754b05380765134ed617c0,2026-03-17_17h03.32.614,kallum_motion_pilot_GIST_update_2,2026.1.1,Win32,60.97560976,67754b05380765134ed617c0,69b95efdef24cd8a694e89ee,69b960eee382b2445a5dc58b,0.0371,0.0371,0,106,106,157,1,seveneight,,,,,,,,,,,,,,,,,,,,,,,,,,,,,,,,,,,,,,,,,,,,,,,,,,,,,,,,,,,,,,,,,,,,,,,,,,,,,,,,,,,,,,,,,,,,,,,,,,,,,,,,,,,,,,,,,,,,,,,,,,,,,,,,,,,,,,,,,
,,67754b05380765134ed617c0,2026-03-17_17h03.32.614,kallum_motion_pilot_GIST_update_2,2026.1.1,Win32,60.97560976,67754b05380765134ed617c0,69b95efdef24cd8a694e89ee,69b960eee382b2445a5dc58b,0.0372,0.0372,0,107,107,153,1,fiveseven,,,,,,,,,,,,,,,,,,,,,,,,,,,,,,,,,,,,,,,,,,,,,,,,,,,,,,,,,,,,,,,,,,,,,,,,,,,,,,,,,,,,,,,,,,,,,,,,,,,,,,,,,,,,,,,,,,,,,,,,,,,,,,,,,,,,,,,,,
,,67754b05380765134ed617c0,2026-03-17_17h03.32.614,kallum_motion_pilot_GIST_update_2,2026.1.1,Win32,60.97560976,67754b05380765134ed617c0,69b95efdef24cd8a694e89ee,69b960eee382b2445a5dc58b,0.0374,0.0374,0,108,108,79,1,eightseven,,,,,,,,,,,,,,,,,,,,,,,,,,,,,,,,,,,,,,,,,,,,,,,,,,,,,,,,,,,,,,,,,,,,,,,,,,,,,,,,,,,,,,,,,,,,,,,,,,,,,,,,,,,,,,,,,,,,,,,,,,,,,,,,,,,,,,,,,
,,67754b05380765134ed617c0,2026-03-17_17h03.32.614,kallum_motion_pilot_GIST_update_2,2026.1.1,Win32,60.97560976,67754b05380765134ed617c0,69b95efdef24cd8a694e89ee,69b960eee382b2445a5dc58b,0.0375,0.0375,0,109,109,82,1,sixfive,,,,,,,,,,,,,,,,,,,,,,,,,,,,,,,,,,,,,,,,,,,,,,,,,,,,,,,,,,,,,,,,,,,,,,,,,,,,,,,,,,,,,,,,,,,,,,,,,,,,,,,,,,,,,,,,,,,,,,,,,,,,,,,,,,,,,,,,,
,,67754b05380765134ed617c0,2026-03-17_17h03.32.614,kallum_motion_pilot_GIST_update_2,2026.1.1,Win32,60.97560976,67754b05380765134ed617c0,69b95efdef24cd8a694e89ee,69b960eee382b2445a5dc58b,0.0375,0.0375,0,110,110,132,1,sevenfive,,,,,,,,,,,,,,,,,,,,,,,,,,,,,,,,,,,,,,,,,,,,,,,,,,,,,,,,,,,,,,,,,,,,,,,,,,,,,,,,,,,,,,,,,,,,,,,,,,,,,,,,,,,,,,,,,,,,,,,,,,,,,,,,,,,,,,,,,
,,67754b05380765134ed617c0,2026-03-17_17h03.32.614,kallum_motion_pilot_GIST_update_2,2026.1.1,Win32,60.97560976,67754b05380765134ed617c0,69b95efdef24cd8a694e89ee,69b960eee382b2445a5dc58b,0.0377,0.0377,0,111,111,58,1,twoone,,,,,,,,,,,,,,,,,,,,,,,,,,,,,,,,,,,,,,,,,,,,,,,,,,,,,,,,,,,,,,,,,,,,,,,,,,,,,,,,,,,,,,,,,,,,,,,,,,,,,,,,,,,,,,,,,,,,,,,,,,,,,,,,,,,,,,,,,
,,67754b05380765134ed617c0,2026-03-17_17h03.32.614,kallum_motion_pilot_GIST_update_2,2026.1.1,Win32,60.97560976,67754b05380765134ed617c0,69b95efdef24cd8a694e89ee,69b960eee382b2445a5dc58b,0.0378,0.0378,0,112,112,7,1,fourthree,,,,,,,,,,,,,,,,,,,,,,,,,,,,,,,,,,,,,,,,,,,,,,,,,,,,,,,,,,,,,,,,,,,,,,,,,,,,,,,,,,,,,,,,,,,,,,,,,,,,,,,,,,,,,,,,,,,,,,,,,,,,,,,,,,,,,,,,,
,,67754b05380765134ed617c0,2026-03-17_17h03.32.614,kallum_motion_pilot_GIST_update_2,2026.1.1,Win32,60.97560976,67754b05380765134ed617c0,69b95efdef24cd8a694e89ee,69b960eee382b2445a5dc58b,0.0379,0.0379,0,113,113,18,1,twoone,,,,,,,,,,,,,,,,,,,,,,,,,,,,,,,,,,,,,,,,,,,,,,,,,,,,,,,,,,,,,,,,,,,,,,,,,,,,,,,,,,,,,,,,,,,,,,,,,,,,,,,,,,,,,,,,,,,,,,,,,,,,,,,,,,,,,,,,,
,,67754b05380765134ed617c0,2026-03-17_17h03.32.614,kallum_motion_pilot_GIST_update_2,2026.1.1,Win32,60.97560976,67754b05380765134ed617c0,69b95efdef24cd8a694e89ee,69b960eee382b2445a5dc58b,0.038,0.0381,0,114,114,32,1,onetwo,,,,,,,,,,,,,,,,,,,,,,,,,,,,,,,,,,,,,,,,,,,,,,,,,,,,,,,,,,,,,,,,,,,,,,,,,,,,,,,,,,,,,,,,,,,,,,,,,,,,,,,,,,,,,,,,,,,,,,,,,,,,,,,,,,,,,,,,,
,,67754b05380765134ed617c0,2026-03-17_17h03.32.614,kallum_motion_pilot_GIST_update_2,2026.1.1,Win32,60.97560976,67754b05380765134ed617c0,69b95efdef24cd8a694e89ee,69b960eee382b2445a5dc58b,0.0381,0.0381,0,115,115,151,1,eightseven,,,,,,,,,,,,,,,,,,,,,,,,,,,,,,,,,,,,,,,,,,,,,,,,,,,,,,,,,,,,,,,,,,,,,,,,,,,,,,,,,,,,,,,,,,,,,,,,,,,,,,,,,,,,,,,,,,,,,,,,,,,,,,,,,,,,,,,,,
,,67754b05380765134ed617c0,2026-03-17_17h03.32.614,kallum_motion_pilot_GIST_update_2,2026.1.1,Win32,60.97560976,67754b05380765134ed617c0,69b95efdef24cd8a694e89ee,69b960eee382b2445a5dc58b,0.0382,0.0382,0,116,116,147,1,sixeight,,,,,,,,,,,,,,,,,,,,,,,,,,,,,,,,,,,,,,,,,,,,,,,,,,,,,,,,,,,,,,,,,,,,,,,,,,,,,,,,,,,,,,,,,,,,,,,,,,,,,,,,,,,,,,,,,,,,,,,,,,,,,,,,,,,,,,,,,
,,67754b05380765134ed617c0,2026-03-17_17h03.32.614,kallum_motion_pilot_GIST_update_2,2026.1.1,Win32,60.97560976,67754b05380765134ed617c0,69b95efdef24cd8a694e89ee,69b960eee382b2445a5dc58b,0.0383,0.0383,0,117,117,66,1,twoone,,,,,,,,,,,,,,,,,,,,,,,,,,,,,,,,,,,,,,,,,,,,,,,,,,,,,,,,,,,,,,,,,,,,,,,,,,,,,,,,,,,,,,,,,,,,,,,,,,,,,,,,,,,,,,,,,,,,,,,,,,,,,,,,,,,,,,,,,
,,67754b05380765134ed617c0,2026-03-17_17h03.32.614,kallum_motion_pilot_GIST_update_2,2026.1.1,Win32,60.97560976,67754b05380765134ed617c0,69b95efdef24cd8a694e89ee,69b960eee382b2445a5dc58b,0.0384,0.0384,0,118,118,142,1,eightsix,,,,,,,,,,,,,,,,,,,,,,,,,,,,,,,,,,,,,,,,,,,,,,,,,,,,,,,,,,,,,,,,,,,,,,,,,,,,,,,,,,,,,,,,,,,,,,,,,,,,,,,,,,,,,,,,,,,,,,,,,,,,,,,,,,,,,,,,,
,,67754b05380765134ed617c0,2026-03-17_17h03.32.614,kallum_motion_pilot_GIST_update_2,2026.1.1,Win32,60.97560976,67754b05380765134ed617c0,69b95efdef24cd8a694e89ee,69b960eee382b2445a5dc58b,0.0386,0.0386,0,119,119,148,1,sevenfive,,,,,,,,,,,,,,,,,,,,,,,,,,,,,,,,,,,,,,,,,,,,,,,,,,,,,,,,,,,,,,,,,,,,,,,,,,,,,,,,,,,,,,,,,,,,,,,,,,,,,,,,,,,,,,,,,,,,,,,,,,,,,,,,,,,,,,,,,
,,67754b05380765134ed617c0,2026-03-17_17h03.32.614,kallum_motion_pilot_GIST_update_2,2026.1.1,Win32,60.97560976,67754b05380765134ed617c0,69b95efdef24cd8a694e89ee,69b960eee382b2445a5dc58b,0.0387,0.0387,0,120,120,40,1,onetwo,,,,,,,,,,,,,,,,,,,,,,,,,,,,,,,,,,,,,,,,,,,,,,,,,,,,,,,,,,,,,,,,,,,,,,,,,,,,,,,,,,,,,,,,,,,,,,,,,,,,,,,,,,,,,,,,,,,,,,,,,,,,,,,,,,,,,,,,,
,,67754b05380765134ed617c0,2026-03-17_17h03.32.614,kallum_motion_pilot_GIST_update_2,2026.1.1,Win32,60.97560976,67754b05380765134ed617c0,69b95efdef24cd8a694e89ee,69b960eee382b2445a5dc58b,0.0388,0.0388,0,121,121,124,1,sevenfive,,,,,,,,,,,,,,,,,,,,,,,,,,,,,,,,,,,,,,,,,,,,,,,,,,,,,,,,,,,,,,,,,,,,,,,,,,,,,,,,,,,,,,,,,,,,,,,,,,,,,,,,,,,,,,,,,,,,,,,,,,,,,,,,,,,,,,,,,
,,67754b05380765134ed617c0,2026-03-17_17h03.32.614,kallum_motion_pilot_GIST_update_2,2026.1.1,Win32,60.97560976,67754b05380765134ed617c0,69b95efdef24cd8a694e89ee,69b960eee382b2445a5dc58b,0.0389,0.0389,0,122,122,45,1,threefour,,,,,,,,,,,,,,,,,,,,,,,,,,,,,,,,,,,,,,,,,,,,,,,,,,,,,,,,,,,,,,,,,,,,,,,,,,,,,,,,,,,,,,,,,,,,,,,,,,,,,,,,,,,,,,,,,,,,,,,,,,,,,,,,,,,,,,,,,
,,67754b05380765134ed617c0,2026-03-17_17h03.32.614,kallum_motion_pilot_GIST_update_2,2026.1.1,Win32,60.97560976,67754b05380765134ed617c0,69b95efdef24cd8a694e89ee,69b960eee382b2445a5dc58b,0.0391,0.0391,0,123,123,53,1,threefour,,,,,,,,,,,,,,,,,,,,,,,,,,,,,,,,,,,,,,,,,,,,,,,,,,,,,,,,,,,,,,,,,,,,,,,,,,,,,,,,,,,,,,,,,,,,,,,,,,,,,,,,,,,,,,,,,,,,,,,,,,,,,,,,,,,,,,,,,
,,67754b05380765134ed617c0,2026-03-17_17h03.32.614,kallum_motion_pilot_GIST_update_2,2026.1.1,Win32,60.97560976,67754b05380765134ed617c0,69b95efdef24cd8a694e89ee,69b960eee382b2445a5dc58b,0.0392,0.0393,0,124,124,81,1,fiveseven,,,,,,,,,,,,,,,,,,,,,,,,,,,,,,,,,,,,,,,,,,,,,,,,,,,,,,,,,,,,,,,,,,,,,,,,,,,,,,,,,,,,,,,,,,,,,,,,,,,,,,,,,,,,,,,,,,,,,,,,,,,,,,,,,,,,,,,,,
,,67754b05380765134ed617c0,2026-03-17_17h03.32.614,kallum_motion_pilot_GIST_update_2,2026.1.1,Win32,60.97560976,67754b05380765134ed617c0,69b95efdef24cd8a694e89ee,69b960eee382b2445a5dc58b,0.0394,0.0394,0,125,125,138,1,sixfive,,,,,,,,,,,,,,,,,,,,,,,,,,,,,,,,,,,,,,,,,,,,,,,,,,,,,,,,,,,,,,,,,,,,,,,,,,,,,,,,,,,,,,,,,,,,,,,,,,,,,,,,,,,,,,,,,,,,,,,,,,,,,,,,,,,,,,,,,
,,67754b05380765134ed617c0,2026-03-17_17h03.32.614,kallum_motion_pilot_GIST_update_2,2026.1.1,Win32,60.97560976,67754b05380765134ed617c0,69b95efdef24cd8a694e89ee,69b960eee382b2445a5dc58b,0.0396,0.0396,0,126,126,94,1,eightsix,,,,,,,,,,,,,,,,,,,,,,,,,,,,,,,,,,,,,,,,,,,,,,,,,,,,,,,,,,,,,,,,,,,,,,,,,,,,,,,,,,,,,,,,,,,,,,,,,,,,,,,,,,,,,,,,,,,,,,,,,,,,,,,,,,,,,,,,,
,,67754b05380765134ed617c0,2026-03-17_17h03.32.614,kallum_motion_pilot_GIST_update_2,2026.1.1,Win32,60.97560976,67754b05380765134ed617c0,69b95efdef24cd8a694e89ee,69b960eee382b2445a5dc58b,0.0397,0.0397,0,127,127,111,1,eightseven,,,,,,,,,,,,,,,,,,,,,,,,,,,,,,,,,,,,,,,,,,,,,,,,,,,,,,,,,,,,,,,,,,,,,,,,,,,,,,,,,,,,,,,,,,,,,,,,,,,,,,,,,,,,,,,,,,,,,,,,,,,,,,,,,,,,,,,,,
,,67754b05380765134ed617c0,2026-03-17_17h03.32.614,kallum_motion_pilot_GIST_update_2,2026.1.1,Win32,60.97560976,67754b05380765134ed617c0,69b95efdef24cd8a694e89ee,69b960eee382b2445a5dc58b,0.0398,0.0398,0,128,128,9,1,onethree,,,,,,,,,,,,,,,,,,,,,,,,,,,,,,,,,,,,,,,,,,,,,,,,,,,,,,,,,,,,,,,,,,,,,,,,,,,,,,,,,,,,,,,,,,,,,,,,,,,,,,,,,,,,,,,,,,,,,,,,,,,,,,,,,,,,,,,,,
,,67754b05380765134ed617c0,2026-03-17_17h03.32.614,kallum_motion_pilot_GIST_update_2,2026.1.1,Win32,60.97560976,67754b05380765134ed617c0,69b95efdef24cd8a694e89ee,69b960eee382b2445a5dc58b,0.0399,0.0399,0,129,129,74,1,twoone,,,,,,,,,,,,,,,,,,,,,,,,,,,,,,,,,,,,,,,,,,,,,,,,,,,,,,,,,,,,,,,,,,,,,,,,,,,,,,,,,,,,,,,,,,,,,,,,,,,,,,,,,,,,,,,,,,,,,,,,,,,,,,,,,,,,,,,,,
,,67754b05380765134ed617c0,2026-03-17_17h03.32.614,kallum_motion_pilot_GIST_update_2,2026.1.1,Win32,60.97560976,67754b05380765134ed617c0,69b95efdef24cd8a694e89ee,69b960eee382b2445a5dc58b,0.0402,0.0402,0,130,130,93,1,seveneight,,,,,,,,,,,,,,,,,,,,,,,,,,,,,,,,,,,,,,,,,,,,,,,,,,,,,,,,,,,,,,,,,,,,,,,,,,,,,,,,,,,,,,,,,,,,,,,,,,,,,,,,,,,,,,,,,,,,,,,,,,,,,,,,,,,,,,,,,
,,67754b05380765134ed617c0,2026-03-17_17h03.32.614,kallum_motion_pilot_GIST_update_2,2026.1.1,Win32,60.97560976,67754b05380765134ed617c0,69b95efdef24cd8a694e89ee,69b960eee382b2445a5dc58b,0.0402,0.0402,0,131,131,11,1,twofour,,,,,,,,,,,,,,,,,,,,,,,,,,,,,,,,,,,,,,,,,,,,,,,,,,,,,,,,,,,,,,,,,,,,,,,,,,,,,,,,,,,,,,,,,,,,,,,,,,,,,,,,,,,,,,,,,,,,,,,,,,,,,,,,,,,,,,,,,
,,67754b05380765134ed617c0,2026-03-17_17h03.32.614,kallum_motion_pilot_GIST_update_2,2026.1.1,Win32,60.97560976,67754b05380765134ed617c0,69b95efdef24cd8a694e89ee,69b960eee382b2445a5dc58b,0.0403,0.0403,0,132,132,118,1,eightsix,,,,,,,,,,,,,,,,,,,,,,,,,,,,,,,,,,,,,,,,,,,,,,,,,,,,,,,,,,,,,,,,,,,,,,,,,,,,,,,,,,,,,,,,,,,,,,,,,,,,,,,,,,,,,,,,,,,,,,,,,,,,,,,,,,,,,,,,,
,,67754b05380765134ed617c0,2026-03-17_17h03.32.614,kallum_motion_pilot_GIST_update_2,2026.1.1,Win32,60.97560976,67754b05380765134ed617c0,69b95efdef24cd8a694e89ee,69b960eee382b2445a5dc58b,0.0405,0.0405,0,133,133,133,1,seveneight,,,,,,,,,,,,,,,,,,,,,,,,,,,,,,,,,,,,,,,,,,,,,,,,,,,,,,,,,,,,,,,,,,,,,,,,,,,,,,,,,,,,,,,,,,,,,,,,,,,,,,,,,,,,,,,,,,,,,,,,,,,,,,,,,,,,,,,,,
,,67754b05380765134ed617c0,2026-03-17_17h03.32.614,kallum_motion_pilot_GIST_update_2,2026.1.1,Win32,60.97560976,67754b05380765134ed617c0,69b95efdef24cd8a694e89ee,69b960eee382b2445a5dc58b,0.0406,0.0406,0,134,134,144,1,fivesix,,,,,,,,,,,,,,,,,,,,,,,,,,,,,,,,,,,,,,,,,,,,,,,,,,,,,,,,,,,,,,,,,,,,,,,,,,,,,,,,,,,,,,,,,,,,,,,,,,,,,,,,,,,,,,,,,,,,,,,,,,,,,,,,,,,,,,,,,
,,67754b05380765134ed617c0,2026-03-17_17h03.32.614,kallum_motion_pilot_GIST_update_2,2026.1.1,Win32,60.97560976,67754b05380765134ed617c0,69b95efdef24cd8a694e89ee,69b960eee382b2445a5dc58b,0.0406,0.0407,0,135,135,103,1,eightseven,,,,,,,,,,,,,,,,,,,,,,,,,,,,,,,,,,,,,,,,,,,,,,,,,,,,,,,,,,,,,,,,,,,,,,,,,,,,,,,,,,,,,,,,,,,,,,,,,,,,,,,,,,,,,,,,,,,,,,,,,,,,,,,,,,,,,,,,,
,,67754b05380765134ed617c0,2026-03-17_17h03.32.614,kallum_motion_pilot_GIST_update_2,2026.1.1,Win32,60.97560976,67754b05380765134ed617c0,69b95efdef24cd8a694e89ee,69b960eee382b2445a5dc58b,0.0408,0.0408,0,136,136,86,1,eightsix,,,,,,,,,,,,,,,,,,,,,,,,,,,,,,,,,,,,,,,,,,,,,,,,,,,,,,,,,,,,,,,,,,,,,,,,,,,,,,,,,,,,,,,,,,,,,,,,,,,,,,,,,,,,,,,,,,,,,,,,,,,,,,,,,,,,,,,,,
,,67754b05380765134ed617c0,2026-03-17_17h03.32.614,kallum_motion_pilot_GIST_update_2,2026.1.1,Win32,60.97560976,67754b05380765134ed617c0,69b95efdef24cd8a694e89ee,69b960eee382b2445a5dc58b,0.041,0.041,0,137,137,155,1,sixeight,,,,,,,,,,,,,,,,,,,,,,,,,,,,,,,,,,,,,,,,,,,,,,,,,,,,,,,,,,,,,,,,,,,,,,,,,,,,,,,,,,,,,,,,,,,,,,,,,,,,,,,,,,,,,,,,,,,,,,,,,,,,,,,,,,,,,,,,,
,,67754b05380765134ed617c0,2026-03-17_17h03.32.614,kallum_motion_pilot_GIST_update_2,2026.1.1,Win32,60.97560976,67754b05380765134ed617c0,69b95efdef24cd8a694e89ee,69b960eee382b2445a5dc58b,0.041,0.041,0,138,138,1,1,onethree,,,,,,,,,,,,,,,,,,,,,,,,,,,,,,,,,,,,,,,,,,,,,,,,,,,,,,,,,,,,,,,,,,,,,,,,,,,,,,,,,,,,,,,,,,,,,,,,,,,,,,,,,,,,,,,,,,,,,,,,,,,,,,,,,,,,,,,,,
,,67754b05380765134ed617c0,2026-03-17_17h03.32.614,kallum_motion_pilot_GIST_update_2,2026.1.1,Win32,60.97560976,67754b05380765134ed617c0,69b95efdef24cd8a694e89ee,69b960eee382b2445a5dc58b,0.0412,0.0412,0,139,139,39,1,fourthree,,,,,,,,,,,,,,,,,,,,,,,,,,,,,,,,,,,,,,,,,,,,,,,,,,,,,,,,,,,,,,,,,,,,,,,,,,,,,,,,,,,,,,,,,,,,,,,,,,,,,,,,,,,,,,,,,,,,,,,,,,,,,,,,,,,,,,,,,
,,67754b05380765134ed617c0,2026-03-17_17h03.32.614,kallum_motion_pilot_GIST_update_2,2026.1.1,Win32,60.97560976,67754b05380765134ed617c0,69b95efdef24cd8a694e89ee,69b960eee382b2445a5dc58b,0.0413,0.0413,0,140,140,20,1,threeone,,,,,,,,,,,,,,,,,,,,,,,,,,,,,,,,,,,,,,,,,,,,,,,,,,,,,,,,,,,,,,,,,,,,,,,,,,,,,,,,,,,,,,,,,,,,,,,,,,,,,,,,,,,,,,,,,,,,,,,,,,,,,,,,,,,,,,,,,
,,67754b05380765134ed617c0,2026-03-17_17h03.32.614,kallum_motion_pilot_GIST_update_2,2026.1.1,Win32,60.97560976,67754b05380765134ed617c0,69b95efdef24cd8a694e89ee,69b960eee382b2445a5dc58b,0.0414,0.0414,0,141,141,22,1,fourtwo,,,,,,,,,,,,,,,,,,,,,,,,,,,,,,,,,,,,,,,,,,,,,,,,,,,,,,,,,,,,,,,,,,,,,,,,,,,,,,,,,,,,,,,,,,,,,,,,,,,,,,,,,,,,,,,,,,,,,,,,,,,,,,,,,,,,,,,,,
,,67754b05380765134ed617c0,2026-03-17_17h03.32.614,kallum_motion_pilot_GIST_update_2,2026.1.1,Win32,60.97560976,67754b05380765134ed617c0,69b95efdef24cd8a694e89ee,69b960eee382b2445a5dc58b,0.0415,0.0415,0,142,142,107,1,sixeight,,,,,,,,,,,,,,,,,,,,,,,,,,,,,,,,,,,,,,,,,,,,,,,,,,,,,,,,,,,,,,,,,,,,,,,,,,,,,,,,,,,,,,,,,,,,,,,,,,,,,,,,,,,,,,,,,,,,,,,,,,,,,,,,,,,,,,,,,
,,67754b05380765134ed617c0,2026-03-17_17h03.32.614,kallum_motion_pilot_GIST_update_2,2026.1.1,Win32,60.97560976,67754b05380765134ed617c0,69b95efdef24cd8a694e89ee,69b960eee382b2445a5dc58b,0.0416,0.0416,0,143,143,62,1,fourtwo,,,,,,,,,,,,,,,,,,,,,,,,,,,,,,,,,,,,,,,,,,,,,,,,,,,,,,,,,,,,,,,,,,,,,,,,,,,,,,,,,,,,,,,,,,,,,,,,,,,,,,,,,,,,,,,,,,,,,,,,,,,,,,,,,,,,,,,,,
,,67754b05380765134ed617c0,2026-03-17_17h03.32.614,kallum_motion_pilot_GIST_update_2,2026.1.1,Win32,60.97560976,67754b05380765134ed617c0,69b95efdef24cd8a694e89ee,69b960eee382b2445a5dc58b,0.0418,0.0418,0,144,144,101,1,seveneight,,,,,,,,,,,,,,,,,,,,,,,,,,,,,,,,,,,,,,,,,,,,,,,,,,,,,,,,,,,,,,,,,,,,,,,,,,,,,,,,,,,,,,,,,,,,,,,,,,,,,,,,,,,,,,,,,,,,,,,,,,,,,,,,,,,,,,,,,
,,67754b05380765134ed617c0,2026-03-17_17h03.32.614,kallum_motion_pilot_GIST_update_2,2026.1.1,Win32,60.97560976,67754b05380765134ed617c0,69b95efdef24cd8a694e89ee,69b960eee382b2445a5dc58b,0.0419,0.0419,0,145,145,102,1,eightsix,,,,,,,,,,,,,,,,,,,,,,,,,,,,,,,,,,,,,,,,,,,,,,,,,,,,,,,,,,,,,,,,,,,,,,,,,,,,,,,,,,,,,,,,,,,,,,,,,,,,,,,,,,,,,,,,,,,,,,,,,,,,,,,,,,,,,,,,,
,,67754b05380765134ed617c0,2026-03-17_17h03.32.614,kallum_motion_pilot_GIST_update_2,2026.1.1,Win32,60.97560976,67754b05380765134ed617c0,69b95efdef24cd8a694e89ee,69b960eee382b2445a5dc58b,0.042,0.042,0,146,146,5,1,threefour,,,,,,,,,,,,,,,,,,,,,,,,,,,,,,,,,,,,,,,,,,,,,,,,,,,,,,,,,,,,,,,,,,,,,,,,,,,,,,,,,,,,,,,,,,,,,,,,,,,,,,,,,,,,,,,,,,,,,,,,,,,,,,,,,,,,,,,,,
,,67754b05380765134ed617c0,2026-03-17_17h03.32.614,kallum_motion_pilot_GIST_update_2,2026.1.1,Win32,60.97560976,67754b05380765134ed617c0,69b95efdef24cd8a694e89ee,69b960eee382b2445a5dc58b,0.0422,0.0422,0,147,147,15,1,fourthree,,,,,,,,,,,,,,,,,,,,,,,,,,,,,,,,,,,,,,,,,,,,,,,,,,,,,,,,,,,,,,,,,,,,,,,,,,,,,,,,,,,,,,,,,,,,,,,,,,,,,,,,,,,,,,,,,,,,,,,,,,,,,,,,,,,,,,,,,
,,67754b05380765134ed617c0,2026-03-17_17h03.32.614,kallum_motion_pilot_GIST_update_2,2026.1.1,Win32,60.97560976,67754b05380765134ed617c0,69b95efdef24cd8a694e89ee,69b960eee382b2445a5dc58b,0.0426,0.0426,0,148,148,44,1,threeone,,,,,,,,,,,,,,,,,,,,,,,,,,,,,,,,,,,,,,,,,,,,,,,,,,,,,,,,,,,,,,,,,,,,,,,,,,,,,,,,,,,,,,,,,,,,,,,,,,,,,,,,,,,,,,,,,,,,,,,,,,,,,,,,,,,,,,,,,
,,67754b05380765134ed617c0,2026-03-17_17h03.32.614,kallum_motion_pilot_GIST_update_2,2026.1.1,Win32,60.97560976,67754b05380765134ed617c0,69b95efdef24cd8a694e89ee,69b960eee382b2445a5dc58b,0.043,0.043,0,149,149,80,1,fivesix,,,,,,,,,,,,,,,,,,,,,,,,,,,,,,,,,,,,,,,,,,,,,,,,,,,,,,,,,,,,,,,,,,,,,,,,,,,,,,,,,,,,,,,,,,,,,,,,,,,,,,,,,,,,,,,,,,,,,,,,,,,,,,,,,,,,,,,,,
,,67754b05380765134ed617c0,2026-03-17_17h03.32.614,kallum_motion_pilot_GIST_update_2,2026.1.1,Win32,60.97560976,67754b05380765134ed617c0,69b95efdef24cd8a694e89ee,69b960eee382b2445a5dc58b,0.0432,0.0432,0,150,150,16,1,onetwo,,,,,,,,,,,,,,,,,,,,,,,,,,,,,,,,,,,,,,,,,,,,,,,,,,,,,,,,,,,,,,,,,,,,,,,,,,,,,,,,,,,,,,,,,,,,,,,,,,,,,,,,,,,,,,,,,,,,,,,,,,,,,,,,,,,,,,,,,
,,67754b05380765134ed617c0,2026-03-17_17h03.32.614,kallum_motion_pilot_GIST_update_2,2026.1.1,Win32,60.97560976,67754b05380765134ed617c0,69b95efdef24cd8a694e89ee,69b960eee382b2445a5dc58b,0.0435,0.0436,0,151,151,141,1,seveneight,,,,,,,,,,,,,,,,,,,,,,,,,,,,,,,,,,,,,,,,,,,,,,,,,,,,,,,,,,,,,,,,,,,,,,,,,,,,,,,,,,,,,,,,,,,,,,,,,,,,,,,,,,,,,,,,,,,,,,,,,,,,,,,,,,,,,,,,,
,,67754b05380765134ed617c0,2026-03-17_17h03.32.614,kallum_motion_pilot_GIST_update_2,2026.1.1,Win32,60.97560976,67754b05380765134ed617c0,69b95efdef24cd8a694e89ee,69b960eee382b2445a5dc58b,0.0439,0.0439,0,152,152,57,1,onethree,,,,,,,,,,,,,,,,,,,,,,,,,,,,,,,,,,,,,,,,,,,,,,,,,,,,,,,,,,,,,,,,,,,,,,,,,,,,,,,,,,,,,,,,,,,,,,,,,,,,,,,,,,,,,,,,,,,,,,,,,,,,,,,,,,,,,,,,,
,,67754b05380765134ed617c0,2026-03-17_17h03.32.614,kallum_motion_pilot_GIST_update_2,2026.1.1,Win32,60.97560976,67754b05380765134ed617c0,69b95efdef24cd8a694e89ee,69b960eee382b2445a5dc58b,0.0444,0.0444,0,153,153,67,1,twofour,,,,,,,,,,,,,,,,,,,,,,,,,,,,,,,,,,,,,,,,,,,,,,,,,,,,,,,,,,,,,,,,,,,,,,,,,,,,,,,,,,,,,,,,,,,,,,,,,,,,,,,,,,,,,,,,,,,,,,,,,,,,,,,,,,,,,,,,,
,,67754b05380765134ed617c0,2026-03-17_17h03.32.614,kallum_motion_pilot_GIST_update_2,2026.1.1,Win32,60.97560976,67754b05380765134ed617c0,69b95efdef24cd8a694e89ee,69b960eee382b2445a5dc58b,0.0448,0.0448,0,154,154,110,1,eightsix,,,,,,,,,,,,,,,,,,,,,,,,,,,,,,,,,,,,,,,,,,,,,,,,,,,,,,,,,,,,,,,,,,,,,,,,,,,,,,,,,,,,,,,,,,,,,,,,,,,,,,,,,,,,,,,,,,,,,,,,,,,,,,,,,,,,,,,,,
,,67754b05380765134ed617c0,2026-03-17_17h03.32.614,kallum_motion_pilot_GIST_update_2,2026.1.1,Win32,60.97560976,67754b05380765134ed617c0,69b95efdef24cd8a694e89ee,69b960eee382b2445a5dc58b,0.045,0.045,0,155,155,109,1,seveneight,,,,,,,,,,,,,,,,,,,,,,,,,,,,,,,,,,,,,,,,,,,,,,,,,,,,,,,,,,,,,,,,,,,,,,,,,,,,,,,,,,,,,,,,,,,,,,,,,,,,,,,,,,,,,,,,,,,,,,,,,,,,,,,,,,,,,,,,,
,,67754b05380765134ed617c0,2026-03-17_17h03.32.614,kallum_motion_pilot_GIST_update_2,2026.1.1,Win32,60.97560976,67754b05380765134ed617c0,69b95efdef24cd8a694e89ee,69b960eee382b2445a5dc58b,0.0451,0.0451,0,156,156,38,1,fourtwo,,,,,,,,,,,,,,,,,,,,,,,,,,,,,,,,,,,,,,,,,,,,,,,,,,,,,,,,,,,,,,,,,,,,,,,,,,,,,,,,,,,,,,,,,,,,,,,,,,,,,,,,,,,,,,,,,,,,,,,,,,,,,,,,,,,,,,,,,
,,67754b05380765134ed617c0,2026-03-17_17h03.32.614,kallum_motion_pilot_GIST_update_2,2026.1.1,Win32,60.97560976,67754b05380765134ed617c0,69b95efdef24cd8a694e89ee,69b960eee382b2445a5dc58b,0.0453,0.0454,0,157,157,121,1,fiveseven,,,,,,,,,,,,,,,,,,,,,,,,,,,,,,,,,,,,,,,,,,,,,,,,,,,,,,,,,,,,,,,,,,,,,,,,,,,,,,,,,,,,,,,,,,,,,,,,,,,,,,,,,,,,,,,,,,,,,,,,,,,,,,,,,,,,,,,,,
,,67754b05380765134ed617c0,2026-03-17_17h03.32.614,kallum_motion_pilot_GIST_update_2,2026.1.1,Win32,60.97560976,67754b05380765134ed617c0,69b95efdef24cd8a694e89ee,69b960eee382b2445a5dc58b,0.0455,0.0455,0,158,158,87,1,eightseven,,,,,,,,,,,,,,,,,,,,,,,,,,,,,,,,,,,,,,,,,,,,,,,,,,,,,,,,,,,,,,,,,,,,,,,,,,,,,,,,,,,,,,,,,,,,,,,,,,,,,,,,,,,,,,,,,,,,,,,,,,,,,,,,,,,,,,,,,
,,67754b05380765134ed617c0,2026-03-17_17h03.32.614,kallum_motion_pilot_GIST_update_2,2026.1.1,Win32,60.97560976,67754b05380765134ed617c0,69b95efdef24cd8a694e89ee,69b960eee382b2445a5dc58b,0.0456,0.0456,0,159,159,122,1,sixfive,,,,,,,,,,,,,,,,,,,,,,,,,,,,,,,,,,,,,,,,,,,,,,,,,,,,,,,,,,,,,,,,,,,,,,,,,,,,,,,,,,,,,,,,,,,,,,,,,,,,,,,,,,,,,,,,,,,,,,,,,,,,,,,,,,,,,,,,,
,,67754b05380765134ed617c0,2026-03-17_17h03.32.614,kallum_motion_pilot_GIST_update_2,2026.1.1,Win32,60.97560976,67754b05380765134ed617c0,69b95efdef24cd8a694e89ee,69b960eee382b2445a5dc58b,0.0458,0.0458,0,160,160,31,1,fourthree,,,,,,,,,,,,,,,,,,,,,,,,,,,,,,,,,,,,,,,,,,,,,,,,,,,,,,,,,,,,,,,,,,,,,,,,,,,,,,,,,,,,,,,,,,,,,,,,,,,,,,,,,,,,,,,,,,,,,,,,,,,,,,,,,,,,,,,,,
,,67754b05380765134ed617c0,2026-03-17_17h03.32.614,kallum_motion_pilot_GIST_update_2,2026.1.1,Win32,60.97560976,67754b05380765134ed617c0,69b95efdef24cd8a694e89ee,69b960eee382b2445a5dc58b,0.0459,0.0459,0,161,161,106,1,sixfive,,,,,,,,,,,,,,,,,,,,,,,,,,,,,,,,,,,,,,,,,,,,,,,,,,,,,,,,,,,,,,,,,,,,,,,,,,,,,,,,,,,,,,,,,,,,,,,,,,,,,,,,,,,,,,,,,,,,,,,,,,,,,,,,,,,,,,,,,
,,67754b05380765134ed617c0,2026-03-17_17h03.32.614,kallum_motion_pilot_GIST_update_2,2026.1.1,Win32,60.97560976,67754b05380765134ed617c0,69b95efdef24cd8a694e89ee,69b960eee382b2445a5dc58b,0.0461,0.0461,1,0,162,159,1,eightseven,,,,,,,,,,,,,,,,,,,,,,,,,,,,,,,,,,,,,,,,,,,,,,,,,,,,,,,,,,,,,,,,,,,,,,,,,,,,,,,,,,,,,,,,,,,,,,,,,,,,,,,,,,,,,,,,,,,,,,,,,,,,,,,,,,,,,,,,,
,,67754b05380765134ed617c0,2026-03-17_17h03.32.614,kallum_motion_pilot_GIST_update_2,2026.1.1,Win32,60.97560976,67754b05380765134ed617c0,69b95efdef24cd8a694e89ee,69b960eee382b2445a5dc58b,0.0462,0.0462,1,1,163,73,1,onethree,,,,,,,,,,,,,,,,,,,,,,,,,,,,,,,,,,,,,,,,,,,,,,,,,,,,,,,,,,,,,,,,,,,,,,,,,,,,,,,,,,,,,,,,,,,,,,,,,,,,,,,,,,,,,,,,,,,,,,,,,,,,,,,,,,,,,,,,,
,,67754b05380765134ed617c0,2026-03-17_17h03.32.614,kallum_motion_pilot_GIST_update_2,2026.1.1,Win32,60.97560976,67754b05380765134ed617c0,69b95efdef24cd8a694e89ee,69b960eee382b2445a5dc58b,0.0464,0.0464,1,2,164,37,1,threefour,,,,,,,,,,,,,,,,,,,,,,,,,,,,,,,,,,,,,,,,,,,,,,,,,,,,,,,,,,,,,,,,,,,,,,,,,,,,,,,,,,,,,,,,,,,,,,,,,,,,,,,,,,,,,,,,,,,,,,,,,,,,,,,,,,,,,,,,,
,,67754b05380765134ed617c0,2026-03-17_17h03.32.614,kallum_motion_pilot_GIST_update_2,2026.1.1,Win32,60.97560976,67754b05380765134ed617c0,69b95efdef24cd8a694e89ee,69b960eee382b2445a5dc58b,0.0466,0.0466,1,3,165,141,1,seveneight,,,,,,,,,,,,,,,,,,,,,,,,,,,,,,,,,,,,,,,,,,,,,,,,,,,,,,,,,,,,,,,,,,,,,,,,,,,,,,,,,,,,,,,,,,,,,,,,,,,,,,,,,,,,,,,,,,,,,,,,,,,,,,,,,,,,,,,,,
,,67754b05380765134ed617c0,2026-03-17_17h03.32.614,kallum_motion_pilot_GIST_update_2,2026.1.1,Win32,60.97560976,67754b05380765134ed617c0,69b95efdef24cd8a694e89ee,69b960eee382b2445a5dc58b,0.0467,0.0467,1,4,166,35,1,twofour,,,,,,,,,,,,,,,,,,,,,,,,,,,,,,,,,,,,,,,,,,,,,,,,,,,,,,,,,,,,,,,,,,,,,,,,,,,,,,,,,,,,,,,,,,,,,,,,,,,,,,,,,,,,,,,,,,,,,,,,,,,,,,,,,,,,,,,,,
,,67754b05380765134ed617c0,2026-03-17_17h03.32.614,kallum_motion_pilot_GIST_update_2,2026.1.1,Win32,60.97560976,67754b05380765134ed617c0,69b95efdef24cd8a694e89ee,69b960eee382b2445a5dc58b,0.0469,0.0469,1,5,167,154,1,sixfive,,,,,,,,,,,,,,,,,,,,,,,,,,,,,,,,,,,,,,,,,,,,,,,,,,,,,,,,,,,,,,,,,,,,,,,,,,,,,,,,,,,,,,,,,,,,,,,,,,,,,,,,,,,,,,,,,,,,,,,,,,,,,,,,,,,,,,,,,
,,67754b05380765134ed617c0,2026-03-17_17h03.32.614,kallum_motion_pilot_GIST_update_2,2026.1.1,Win32,60.97560976,67754b05380765134ed617c0,69b95efdef24cd8a694e89ee,69b960eee382b2445a5dc58b,0.0471,0.0471,1,6,168,36,1,threeone,,,,,,,,,,,,,,,,,,,,,,,,,,,,,,,,,,,,,,,,,,,,,,,,,,,,,,,,,,,,,,,,,,,,,,,,,,,,,,,,,,,,,,,,,,,,,,,,,,,,,,,,,,,,,,,,,,,,,,,,,,,,,,,,,,,,,,,,,
,,67754b05380765134ed617c0,2026-03-17_17h03.32.614,kallum_motion_pilot_GIST_update_2,2026.1.1,Win32,60.97560976,67754b05380765134ed617c0,69b95efdef24cd8a694e89ee,69b960eee382b2445a5dc58b,0.0472,0.0472,1,7,169,59,1,twofour,,,,,,,,,,,,,,,,,,,,,,,,,,,,,,,,,,,,,,,,,,,,,,,,,,,,,,,,,,,,,,,,,,,,,,,,,,,,,,,,,,,,,,,,,,,,,,,,,,,,,,,,,,,,,,,,,,,,,,,,,,,,,,,,,,,,,,,,,
,,67754b05380765134ed617c0,2026-03-17_17h03.32.614,kallum_motion_pilot_GIST_update_2,2026.1.1,Win32,60.97560976,67754b05380765134ed617c0,69b95efdef24cd8a694e89ee,69b960eee382b2445a5dc58b,0.0473,0.0473,1,8,170,161,1,fiveseven,,,,,,,,,,,,,,,,,,,,,,,,,,,,,,,,,,,,,,,,,,,,,,,,,,,,,,,,,,,,,,,,,,,,,,,,,,,,,,,,,,,,,,,,,,,,,,,,,,,,,,,,,,,,,,,,,,,,,,,,,,,,,,,,,,,,,,,,,
,,67754b05380765134ed617c0,2026-03-17_17h03.32.614,kallum_motion_pilot_GIST_update_2,2026.1.1,Win32,60.97560976,67754b05380765134ed617c0,69b95efdef24cd8a694e89ee,69b960eee382b2445a5dc58b,0.0475,0.0475,1,9,171,75,1,twofour,,,,,,,,,,,,,,,,,,,,,,,,,,,,,,,,,,,,,,,,,,,,,,,,,,,,,,,,,,,,,,,,,,,,,,,,,,,,,,,,,,,,,,,,,,,,,,,,,,,,,,,,,,,,,,,,,,,,,,,,,,,,,,,,,,,,,,,,,
,,67754b05380765134ed617c0,2026-03-17_17h03.32.614,kallum_motion_pilot_GIST_update_2,2026.1.1,Win32,60.97560976,67754b05380765134ed617c0,69b95efdef24cd8a694e89ee,69b960eee382b2445a5dc58b,0.0476,0.0476,1,10,172,116,1,sevenfive,,,,,,,,,,,,,,,,,,,,,,,,,,,,,,,,,,,,,,,,,,,,,,,,,,,,,,,,,,,,,,,,,,,,,,,,,,,,,,,,,,,,,,,,,,,,,,,,,,,,,,,,,,,,,,,,,,,,,,,,,,,,,,,,,,,,,,,,,
,,67754b05380765134ed617c0,2026-03-17_17h03.32.614,kallum_motion_pilot_GIST_update_2,2026.1.1,Win32,60.97560976,67754b05380765134ed617c0,69b95efdef24cd8a694e89ee,69b960eee382b2445a5dc58b,0.0476,0.0476,1,11,173,98,1,sixfive,,,,,,,,,,,,,,,,,,,,,,,,,,,,,,,,,,,,,,,,,,,,,,,,,,,,,,,,,,,,,,,,,,,,,,,,,,,,,,,,,,,,,,,,,,,,,,,,,,,,,,,,,,,,,,,,,,,,,,,,,,,,,,,,,,,,,,,,,
,,67754b05380765134ed617c0,2026-03-17_17h03.32.614,kallum_motion_pilot_GIST_update_2,2026.1.1,Win32,60.97560976,67754b05380765134ed617c0,69b95efdef24cd8a694e89ee,69b960eee382b2445a5dc58b,0.0478,0.0478,1,12,174,16,1,onetwo,,,,,,,,,,,,,,,,,,,,,,,,,,,,,,,,,,,,,,,,,,,,,,,,,,,,,,,,,,,,,,,,,,,,,,,,,,,,,,,,,,,,,,,,,,,,,,,,,,,,,,,,,,,,,,,,,,,,,,,,,,,,,,,,,,,,,,,,,
,,67754b05380765134ed617c0,2026-03-17_17h03.32.614,kallum_motion_pilot_GIST_update_2,2026.1.1,Win32,60.97560976,67754b05380765134ed617c0,69b95efdef24cd8a694e89ee,69b960eee382b2445a5dc58b,0.0479,0.0479,1,13,175,89,1,fiveseven,,,,,,,,,,,,,,,,,,,,,,,,,,,,,,,,,,,,,,,,,,,,,,,,,,,,,,,,,,,,,,,,,,,,,,,,,,,,,,,,,,,,,,,,,,,,,,,,,,,,,,,,,,,,,,,,,,,,,,,,,,,,,,,,,,,,,,,,,
,,67754b05380765134ed617c0,2026-03-17_17h03.32.614,kallum_motion_pilot_GIST_update_2,2026.1.1,Win32,60.97560976,67754b05380765134ed617c0,69b95efdef24cd8a694e89ee,69b960eee382b2445a5dc58b,0.048,0.048,1,14,176,125,1,seveneight,,,,,,,,,,,,,,,,,,,,,,,,,,,,,,,,,,,,,,,,,,,,,,,,,,,,,,,,,,,,,,,,,,,,,,,,,,,,,,,,,,,,,,,,,,,,,,,,,,,,,,,,,,,,,,,,,,,,,,,,,,,,,,,,,,,,,,,,,
,,67754b05380765134ed617c0,2026-03-17_17h03.32.614,kallum_motion_pilot_GIST_update_2,2026.1.1,Win32,60.97560976,67754b05380765134ed617c0,69b95efdef24cd8a694e89ee,69b960eee382b2445a5dc58b,0.0481,0.0481,1,15,177,127,1,eightseven,,,,,,,,,,,,,,,,,,,,,,,,,,,,,,,,,,,,,,,,,,,,,,,,,,,,,,,,,,,,,,,,,,,,,,,,,,,,,,,,,,,,,,,,,,,,,,,,,,,,,,,,,,,,,,,,,,,,,,,,,,,,,,,,,,,,,,,,,
,,67754b05380765134ed617c0,2026-03-17_17h03.32.614,kallum_motion_pilot_GIST_update_2,2026.1.1,Win32,60.97560976,67754b05380765134ed617c0,69b95efdef24cd8a694e89ee,69b960eee382b2445a5dc58b,0.0482,0.0482,1,16,178,71,1,fourthree,,,,,,,,,,,,,,,,,,,,,,,,,,,,,,,,,,,,,,,,,,,,,,,,,,,,,,,,,,,,,,,,,,,,,,,,,,,,,,,,,,,,,,,,,,,,,,,,,,,,,,,,,,,,,,,,,,,,,,,,,,,,,,,,,,,,,,,,,
,,67754b05380765134ed617c0,2026-03-17_17h03.32.614,kallum_motion_pilot_GIST_update_2,2026.1.1,Win32,60.97560976,67754b05380765134ed617c0,69b95efdef24cd8a694e89ee,69b960eee382b2445a5dc58b,0.0483,0.0483,1,17,179,104,1,fivesix,,,,,,,,,,,,,,,,,,,,,,,,,,,,,,,,,,,,,,,,,,,,,,,,,,,,,,,,,,,,,,,,,,,,,,,,,,,,,,,,,,,,,,,,,,,,,,,,,,,,,,,,,,,,,,,,,,,,,,,,,,,,,,,,,,,,,,,,,
,,67754b05380765134ed617c0,2026-03-17_17h03.32.614,kallum_motion_pilot_GIST_update_2,2026.1.1,Win32,60.97560976,67754b05380765134ed617c0,69b95efdef24cd8a694e89ee,69b960eee382b2445a5dc58b,0.0484,0.0484,1,18,180,137,1,fiveseven,,,,,,,,,,,,,,,,,,,,,,,,,,,,,,,,,,,,,,,,,,,,,,,,,,,,,,,,,,,,,,,,,,,,,,,,,,,,,,,,,,,,,,,,,,,,,,,,,,,,,,,,,,,,,,,,,,,,,,,,,,,,,,,,,,,,,,,,,
,,67754b05380765134ed617c0,2026-03-17_17h03.32.614,kallum_motion_pilot_GIST_update_2,2026.1.1,Win32,60.97560976,67754b05380765134ed617c0,69b95efdef24cd8a694e89ee,69b960eee382b2445a5dc58b,0.0485,0.0485,1,19,181,143,1,eightseven,,,,,,,,,,,,,,,,,,,,,,,,,,,,,,,,,,,,,,,,,,,,,,,,,,,,,,,,,,,,,,,,,,,,,,,,,,,,,,,,,,,,,,,,,,,,,,,,,,,,,,,,,,,,,,,,,,,,,,,,,,,,,,,,,,,,,,,,,
,,67754b05380765134ed617c0,2026-03-17_17h03.32.614,kallum_motion_pilot_GIST_update_2,2026.1.1,Win32,60.97560976,67754b05380765134ed617c0,69b95efdef24cd8a694e89ee,69b960eee382b2445a5dc58b,0.0486,0.0486,1,20,182,40,1,onetwo,,,,,,,,,,,,,,,,,,,,,,,,,,,,,,,,,,,,,,,,,,,,,,,,,,,,,,,,,,,,,,,,,,,,,,,,,,,,,,,,,,,,,,,,,,,,,,,,,,,,,,,,,,,,,,,,,,,,,,,,,,,,,,,,,,,,,,,,,
,,67754b05380765134ed617c0,2026-03-17_17h03.32.614,kallum_motion_pilot_GIST_update_2,2026.1.1,Win32,60.97560976,67754b05380765134ed617c0,69b95efdef24cd8a694e89ee,69b960eee382b2445a5dc58b,0.0487,0.0487,1,21,183,44,1,threeone,,,,,,,,,,,,,,,,,,,,,,,,,,,,,,,,,,,,,,,,,,,,,,,,,,,,,,,,,,,,,,,,,,,,,,,,,,,,,,,,,,,,,,,,,,,,,,,,,,,,,,,,,,,,,,,,,,,,,,,,,,,,,,,,,,,,,,,,,
,,67754b05380765134ed617c0,2026-03-17_17h03.32.614,kallum_motion_pilot_GIST_update_2,2026.1.1,Win32,60.97560976,67754b05380765134ed617c0,69b95efdef24cd8a694e89ee,69b960eee382b2445a5dc58b,0.0489,0.0489,1,22,184,97,1,fiveseven,,,,,,,,,,,,,,,,,,,,,,,,,,,,,,,,,,,,,,,,,,,,,,,,,,,,,,,,,,,,,,,,,,,,,,,,,,,,,,,,,,,,,,,,,,,,,,,,,,,,,,,,,,,,,,,,,,,,,,,,,,,,,,,,,,,,,,,,,
,,67754b05380765134ed617c0,2026-03-17_17h03.32.614,kallum_motion_pilot_GIST_update_2,2026.1.1,Win32,60.97560976,67754b05380765134ed617c0,69b95efdef24cd8a694e89ee,69b960eee382b2445a5dc58b,0.0489,0.0489,1,23,185,126,1,eightsix,,,,,,,,,,,,,,,,,,,,,,,,,,,,,,,,,,,,,,,,,,,,,,,,,,,,,,,,,,,,,,,,,,,,,,,,,,,,,,,,,,,,,,,,,,,,,,,,,,,,,,,,,,,,,,,,,,,,,,,,,,,,,,,,,,,,,,,,,
,,67754b05380765134ed617c0,2026-03-17_17h03.32.614,kallum_motion_pilot_GIST_update_2,2026.1.1,Win32,60.97560976,67754b05380765134ed617c0,69b95efdef24cd8a694e89ee,69b960eee382b2445a5dc58b,0.0491,0.0491,1,24,186,4,1,threeone,,,,,,,,,,,,,,,,,,,,,,,,,,,,,,,,,,,,,,,,,,,,,,,,,,,,,,,,,,,,,,,,,,,,,,,,,,,,,,,,,,,,,,,,,,,,,,,,,,,,,,,,,,,,,,,,,,,,,,,,,,,,,,,,,,,,,,,,,
,,67754b05380765134ed617c0,2026-03-17_17h03.32.614,kallum_motion_pilot_GIST_update_2,2026.1.1,Win32,60.97560976,67754b05380765134ed617c0,69b95efdef24cd8a694e89ee,69b960eee382b2445a5dc58b,0.0492,0.0492,1,25,187,153,1,fiveseven,,,,,,,,,,,,,,,,,,,,,,,,,,,,,,,,,,,,,,,,,,,,,,,,,,,,,,,,,,,,,,,,,,,,,,,,,,,,,,,,,,,,,,,,,,,,,,,,,,,,,,,,,,,,,,,,,,,,,,,,,,,,,,,,,,,,,,,,,
,,67754b05380765134ed617c0,2026-03-17_17h03.32.614,kallum_motion_pilot_GIST_update_2,2026.1.1,Win32,60.97560976,67754b05380765134ed617c0,69b95efdef24cd8a694e89ee,69b960eee382b2445a5dc58b,0.0493,0.0494,1,26,188,43,1,twofour,,,,,,,,,,,,,,,,,,,,,,,,,,,,,,,,,,,,,,,,,,,,,,,,,,,,,,,,,,,,,,,,,,,,,,,,,,,,,,,,,,,,,,,,,,,,,,,,,,,,,,,,,,,,,,,,,,,,,,,,,,,,,,,,,,,,,,,,,
,,67754b05380765134ed617c0,2026-03-17_17h03.32.614,kallum_motion_pilot_GIST_update_2,2026.1.1,Win32,60.97560976,67754b05380765134ed617c0,69b95efdef24cd8a694e89ee,69b960eee382b2445a5dc58b,0.0495,0.0495,1,27,189,45,1,threefour,,,,,,,,,,,,,,,,,,,,,,,,,,,,,,,,,,,,,,,,,,,,,,,,,,,,,,,,,,,,,,,,,,,,,,,,,,,,,,,,,,,,,,,,,,,,,,,,,,,,,,,,,,,,,,,,,,,,,,,,,,,,,,,,,,,,,,,,,
,,67754b05380765134ed617c0,2026-03-17_17h03.32.614,kallum_motion_pilot_GIST_update_2,2026.1.1,Win32,60.97560976,67754b05380765134ed617c0,69b95efdef24cd8a694e89ee,69b960eee382b2445a5dc58b,0.0496,0.0496,1,28,190,91,1,sixeight,,,,,,,,,,,,,,,,,,,,,,,,,,,,,,,,,,,,,,,,,,,,,,,,,,,,,,,,,,,,,,,,,,,,,,,,,,,,,,,,,,,,,,,,,,,,,,,,,,,,,,,,,,,,,,,,,,,,,,,,,,,,,,,,,,,,,,,,,
,,67754b05380765134ed617c0,2026-03-17_17h03.32.614,kallum_motion_pilot_GIST_update_2,2026.1.1,Win32,60.97560976,67754b05380765134ed617c0,69b95efdef24cd8a694e89ee,69b960eee382b2445a5dc58b,0.0497,0.0497,1,29,191,140,1,sevenfive,,,,,,,,,,,,,,,,,,,,,,,,,,,,,,,,,,,,,,,,,,,,,,,,,,,,,,,,,,,,,,,,,,,,,,,,,,,,,,,,,,,,,,,,,,,,,,,,,,,,,,,,,,,,,,,,,,,,,,,,,,,,,,,,,,,,,,,,,
,,67754b05380765134ed617c0,2026-03-17_17h03.32.614,kallum_motion_pilot_GIST_update_2,2026.1.1,Win32,60.97560976,67754b05380765134ed617c0,69b95efdef24cd8a694e89ee,69b960eee382b2445a5dc58b,0.0499,0.05,1,30,192,150,1,eightsix,,,,,,,,,,,,,,,,,,,,,,,,,,,,,,,,,,,,,,,,,,,,,,,,,,,,,,,,,,,,,,,,,,,,,,,,,,,,,,,,,,,,,,,,,,,,,,,,,,,,,,,,,,,,,,,,,,,,,,,,,,,,,,,,,,,,,,,,,
,,67754b05380765134ed617c0,2026-03-17_17h03.32.614,kallum_motion_pilot_GIST_update_2,2026.1.1,Win32,60.97560976,67754b05380765134ed617c0,69b95efdef24cd8a694e89ee,69b960eee382b2445a5dc58b,0.0501,0.0501,1,31,193,49,1,onethree,,,,,,,,,,,,,,,,,,,,,,,,,,,,,,,,,,,,,,,,,,,,,,,,,,,,,,,,,,,,,,,,,,,,,,,,,,,,,,,,,,,,,,,,,,,,,,,,,,,,,,,,,,,,,,,,,,,,,,,,,,,,,,,,,,,,,,,,,
,,67754b05380765134ed617c0,2026-03-17_17h03.32.614,kallum_motion_pilot_GIST_update_2,2026.1.1,Win32,60.97560976,67754b05380765134ed617c0,69b95efdef24cd8a694e89ee,69b960eee382b2445a5dc58b,0.0502,0.0502,1,32,194,107,1,sixeight,,,,,,,,,,,,,,,,,,,,,,,,,,,,,,,,,,,,,,,,,,,,,,,,,,,,,,,,,,,,,,,,,,,,,,,,,,,,,,,,,,,,,,,,,,,,,,,,,,,,,,,,,,,,,,,,,,,,,,,,,,,,,,,,,,,,,,,,,
,,67754b05380765134ed617c0,2026-03-17_17h03.32.614,kallum_motion_pilot_GIST_update_2,2026.1.1,Win32,60.97560976,67754b05380765134ed617c0,69b95efdef24cd8a694e89ee,69b960eee382b2445a5dc58b,0.0504,0.0504,1,33,195,119,1,eightseven,,,,,,,,,,,,,,,,,,,,,,,,,,,,,,,,,,,,,,,,,,,,,,,,,,,,,,,,,,,,,,,,,,,,,,,,,,,,,,,,,,,,,,,,,,,,,,,,,,,,,,,,,,,,,,,,,,,,,,,,,,,,,,,,,,,,,,,,,
,,67754b05380765134ed617c0,2026-03-17_17h03.32.614,kallum_motion_pilot_GIST_update_2,2026.1.1,Win32,60.97560976,67754b05380765134ed617c0,69b95efdef24cd8a694e89ee,69b960eee382b2445a5dc58b,0.0505,0.0505,1,34,196,117,1,seveneight,,,,,,,,,,,,,,,,,,,,,,,,,,,,,,,,,,,,,,,,,,,,,,,,,,,,,,,,,,,,,,,,,,,,,,,,,,,,,,,,,,,,,,,,,,,,,,,,,,,,,,,,,,,,,,,,,,,,,,,,,,,,,,,,,,,,,,,,,
,,67754b05380765134ed617c0,2026-03-17_17h03.32.614,kallum_motion_pilot_GIST_update_2,2026.1.1,Win32,60.97560976,67754b05380765134ed617c0,69b95efdef24cd8a694e89ee,69b960eee382b2445a5dc58b,0.0507,0.0507,1,35,197,145,1,fiveseven,,,,,,,,,,,,,,,,,,,,,,,,,,,,,,,,,,,,,,,,,,,,,,,,,,,,,,,,,,,,,,,,,,,,,,,,,,,,,,,,,,,,,,,,,,,,,,,,,,,,,,,,,,,,,,,,,,,,,,,,,,,,,,,,,,,,,,,,,
,,67754b05380765134ed617c0,2026-03-17_17h03.32.614,kallum_motion_pilot_GIST_update_2,2026.1.1,Win32,60.97560976,67754b05380765134ed617c0,69b95efdef24cd8a694e89ee,69b960eee382b2445a5dc58b,0.0507,0.0507,1,36,198,53,1,threefour,,,,,,,,,,,,,,,,,,,,,,,,,,,,,,,,,,,,,,,,,,,,,,,,,,,,,,,,,,,,,,,,,,,,,,,,,,,,,,,,,,,,,,,,,,,,,,,,,,,,,,,,,,,,,,,,,,,,,,,,,,,,,,,,,,,,,,,,,
,,67754b05380765134ed617c0,2026-03-17_17h03.32.614,kallum_motion_pilot_GIST_update_2,2026.1.1,Win32,60.97560976,67754b05380765134ed617c0,69b95efdef24cd8a694e89ee,69b960eee382b2445a5dc58b,0.0509,0.0509,1,37,199,47,1,fourthree,,,,,,,,,,,,,,,,,,,,,,,,,,,,,,,,,,,,,,,,,,,,,,,,,,,,,,,,,,,,,,,,,,,,,,,,,,,,,,,,,,,,,,,,,,,,,,,,,,,,,,,,,,,,,,,,,,,,,,,,,,,,,,,,,,,,,,,,,
,,67754b05380765134ed617c0,2026-03-17_17h03.32.614,kallum_motion_pilot_GIST_update_2,2026.1.1,Win32,60.97560976,67754b05380765134ed617c0,69b95efdef24cd8a694e89ee,69b960eee382b2445a5dc58b,0.0511,0.0511,1,38,200,81,1,fiveseven,,,,,,,,,,,,,,,,,,,,,,,,,,,,,,,,,,,,,,,,,,,,,,,,,,,,,,,,,,,,,,,,,,,,,,,,,,,,,,,,,,,,,,,,,,,,,,,,,,,,,,,,,,,,,,,,,,,,,,,,,,,,,,,,,,,,,,,,,
,,67754b05380765134ed617c0,2026-03-17_17h03.32.614,kallum_motion_pilot_GIST_update_2,2026.1.1,Win32,60.97560976,67754b05380765134ed617c0,69b95efdef24cd8a694e89ee,69b960eee382b2445a5dc58b,0.0512,0.0512,1,39,201,122,1,sixfive,,,,,,,,,,,,,,,,,,,,,,,,,,,,,,,,,,,,,,,,,,,,,,,,,,,,,,,,,,,,,,,,,,,,,,,,,,,,,,,,,,,,,,,,,,,,,,,,,,,,,,,,,,,,,,,,,,,,,,,,,,,,,,,,,,,,,,,,,
,,67754b05380765134ed617c0,2026-03-17_17h03.32.614,kallum_motion_pilot_GIST_update_2,2026.1.1,Win32,60.97560976,67754b05380765134ed617c0,69b95efdef24cd8a694e89ee,69b960eee382b2445a5dc58b,0.0515,0.0515,1,40,202,118,1,eightsix,,,,,,,,,,,,,,,,,,,,,,,,,,,,,,,,,,,,,,,,,,,,,,,,,,,,,,,,,,,,,,,,,,,,,,,,,,,,,,,,,,,,,,,,,,,,,,,,,,,,,,,,,,,,,,,,,,,,,,,,,,,,,,,,,,,,,,,,,
,,67754b05380765134ed617c0,2026-03-17_17h03.32.614,kallum_motion_pilot_GIST_update_2,2026.1.1,Win32,60.97560976,67754b05380765134ed617c0,69b95efdef24cd8a694e89ee,69b960eee382b2445a5dc58b,0.0517,0.0517,1,41,203,80,1,fivesix,,,,,,,,,,,,,,,,,,,,,,,,,,,,,,,,,,,,,,,,,,,,,,,,,,,,,,,,,,,,,,,,,,,,,,,,,,,,,,,,,,,,,,,,,,,,,,,,,,,,,,,,,,,,,,,,,,,,,,,,,,,,,,,,,,,,,,,,,
,,67754b05380765134ed617c0,2026-03-17_17h03.32.614,kallum_motion_pilot_GIST_update_2,2026.1.1,Win32,60.97560976,67754b05380765134ed617c0,69b95efdef24cd8a694e89ee,69b960eee382b2445a5dc58b,0.0518,0.0518,1,42,204,129,1,fiveseven,,,,,,,,,,,,,,,,,,,,,,,,,,,,,,,,,,,,,,,,,,,,,,,,,,,,,,,,,,,,,,,,,,,,,,,,,,,,,,,,,,,,,,,,,,,,,,,,,,,,,,,,,,,,,,,,,,,,,,,,,,,,,,,,,,,,,,,,,
,,67754b05380765134ed617c0,2026-03-17_17h03.32.614,kallum_motion_pilot_GIST_update_2,2026.1.1,Win32,60.97560976,67754b05380765134ed617c0,69b95efdef24cd8a694e89ee,69b960eee382b2445a5dc58b,0.0519,0.0519,1,43,205,46,1,fourtwo,,,,,,,,,,,,,,,,,,,,,,,,,,,,,,,,,,,,,,,,,,,,,,,,,,,,,,,,,,,,,,,,,,,,,,,,,,,,,,,,,,,,,,,,,,,,,,,,,,,,,,,,,,,,,,,,,,,,,,,,,,,,,,,,,,,,,,,,,
,,67754b05380765134ed617c0,2026-03-17_17h03.32.614,kallum_motion_pilot_GIST_update_2,2026.1.1,Win32,60.97560976,67754b05380765134ed617c0,69b95efdef24cd8a694e89ee,69b960eee382b2445a5dc58b,0.0521,0.0521,1,44,206,8,1,onetwo,,,,,,,,,,,,,,,,,,,,,,,,,,,,,,,,,,,,,,,,,,,,,,,,,,,,,,,,,,,,,,,,,,,,,,,,,,,,,,,,,,,,,,,,,,,,,,,,,,,,,,,,,,,,,,,,,,,,,,,,,,,,,,,,,,,,,,,,,
,,67754b05380765134ed617c0,2026-03-17_17h03.32.614,kallum_motion_pilot_GIST_update_2,2026.1.1,Win32,60.97560976,67754b05380765134ed617c0,69b95efdef24cd8a694e89ee,69b960eee382b2445a5dc58b,0.0522,0.0522,1,45,207,68,1,threeone,,,,,,,,,,,,,,,,,,,,,,,,,,,,,,,,,,,,,,,,,,,,,,,,,,,,,,,,,,,,,,,,,,,,,,,,,,,,,,,,,,,,,,,,,,,,,,,,,,,,,,,,,,,,,,,,,,,,,,,,,,,,,,,,,,,,,,,,,
,,67754b05380765134ed617c0,2026-03-17_17h03.32.614,kallum_motion_pilot_GIST_update_2,2026.1.1,Win32,60.97560976,67754b05380765134ed617c0,69b95efdef24cd8a694e89ee,69b960eee382b2445a5dc58b,0.0523,0.0523,1,46,208,128,1,fivesix,,,,,,,,,,,,,,,,,,,,,,,,,,,,,,,,,,,,,,,,,,,,,,,,,,,,,,,,,,,,,,,,,,,,,,,,,,,,,,,,,,,,,,,,,,,,,,,,,,,,,,,,,,,,,,,,,,,,,,,,,,,,,,,,,,,,,,,,,
,,67754b05380765134ed617c0,2026-03-17_17h03.32.614,kallum_motion_pilot_GIST_update_2,2026.1.1,Win32,60.97560976,67754b05380765134ed617c0,69b95efdef24cd8a694e89ee,69b960eee382b2445a5dc58b,0.0524,0.0524,1,47,209,132,1,sevenfive,,,,,,,,,,,,,,,,,,,,,,,,,,,,,,,,,,,,,,,,,,,,,,,,,,,,,,,,,,,,,,,,,,,,,,,,,,,,,,,,,,,,,,,,,,,,,,,,,,,,,,,,,,,,,,,,,,,,,,,,,,,,,,,,,,,,,,,,,
,,67754b05380765134ed617c0,2026-03-17_17h03.32.614,kallum_motion_pilot_GIST_update_2,2026.1.1,Win32,60.97560976,67754b05380765134ed617c0,69b95efdef24cd8a694e89ee,69b960eee382b2445a5dc58b,0.0525,0.0525,1,48,210,55,1,fourthree,,,,,,,,,,,,,,,,,,,,,,,,,,,,,,,,,,,,,,,,,,,,,,,,,,,,,,,,,,,,,,,,,,,,,,,,,,,,,,,,,,,,,,,,,,,,,,,,,,,,,,,,,,,,,,,,,,,,,,,,,,,,,,,,,,,,,,,,,
,,67754b05380765134ed617c0,2026-03-17_17h03.32.614,kallum_motion_pilot_GIST_update_2,2026.1.1,Win32,60.97560976,67754b05380765134ed617c0,69b95efdef24cd8a694e89ee,69b960eee382b2445a5dc58b,0.0527,0.0527,1,49,211,65,1,onethree,,,,,,,,,,,,,,,,,,,,,,,,,,,,,,,,,,,,,,,,,,,,,,,,,,,,,,,,,,,,,,,,,,,,,,,,,,,,,,,,,,,,,,,,,,,,,,,,,,,,,,,,,,,,,,,,,,,,,,,,,,,,,,,,,,,,,,,,,
,,67754b05380765134ed617c0,2026-03-17_17h03.32.614,kallum_motion_pilot_GIST_update_2,2026.1.1,Win32,60.97560976,67754b05380765134ed617c0,69b95efdef24cd8a694e89ee,69b960eee382b2445a5dc58b,0.0527,0.0527,1,50,212,93,1,seveneight,,,,,,,,,,,,,,,,,,,,,,,,,,,,,,,,,,,,,,,,,,,,,,,,,,,,,,,,,,,,,,,,,,,,,,,,,,,,,,,,,,,,,,,,,,,,,,,,,,,,,,,,,,,,,,,,,,,,,,,,,,,,,,,,,,,,,,,,,
,,67754b05380765134ed617c0,2026-03-17_17h03.32.614,kallum_motion_pilot_GIST_update_2,2026.1.1,Win32,60.97560976,67754b05380765134ed617c0,69b95efdef24cd8a694e89ee,69b960eee382b2445a5dc58b,0.0528,0.0528,1,51,213,99,1,sixeight,,,,,,,,,,,,,,,,,,,,,,,,,,,,,,,,,,,,,,,,,,,,,,,,,,,,,,,,,,,,,,,,,,,,,,,,,,,,,,,,,,,,,,,,,,,,,,,,,,,,,,,,,,,,,,,,,,,,,,,,,,,,,,,,,,,,,,,,,
,,67754b05380765134ed617c0,2026-03-17_17h03.32.614,kallum_motion_pilot_GIST_update_2,2026.1.1,Win32,60.97560976,67754b05380765134ed617c0,69b95efdef24cd8a694e89ee,69b960eee382b2445a5dc58b,0.053,0.053,1,52,214,70,1,fourtwo,,,,,,,,,,,,,,,,,,,,,,,,,,,,,,,,,,,,,,,,,,,,,,,,,,,,,,,,,,,,,,,,,,,,,,,,,,,,,,,,,,,,,,,,,,,,,,,,,,,,,,,,,,,,,,,,,,,,,,,,,,,,,,,,,,,,,,,,,
,,67754b05380765134ed617c0,2026-03-17_17h03.32.614,kallum_motion_pilot_GIST_update_2,2026.1.1,Win32,60.97560976,67754b05380765134ed617c0,69b95efdef24cd8a694e89ee,69b960eee382b2445a5dc58b,0.0531,0.0531,1,53,215,110,1,eightsix,,,,,,,,,,,,,,,,,,,,,,,,,,,,,,,,,,,,,,,,,,,,,,,,,,,,,,,,,,,,,,,,,,,,,,,,,,,,,,,,,,,,,,,,,,,,,,,,,,,,,,,,,,,,,,,,,,,,,,,,,,,,,,,,,,,,,,,,,
,,67754b05380765134ed617c0,2026-03-17_17h03.32.614,kallum_motion_pilot_GIST_update_2,2026.1.1,Win32,60.97560976,67754b05380765134ed617c0,69b95efdef24cd8a694e89ee,69b960eee382b2445a5dc58b,0.0533,0.0533,1,54,216,39,1,fourthree,,,,,,,,,,,,,,,,,,,,,,,,,,,,,,,,,,,,,,,,,,,,,,,,,,,,,,,,,,,,,,,,,,,,,,,,,,,,,,,,,,,,,,,,,,,,,,,,,,,,,,,,,,,,,,,,,,,,,,,,,,,,,,,,,,,,,,,,,
,,67754b05380765134ed617c0,2026-03-17_17h03.32.614,kallum_motion_pilot_GIST_update_2,2026.1.1,Win32,60.97560976,67754b05380765134ed617c0,69b95efdef24cd8a694e89ee,69b960eee382b2445a5dc58b,0.0533,0.0533,1,55,217,2,1,twoone,,,,,,,,,,,,,,,,,,,,,,,,,,,,,,,,,,,,,,,,,,,,,,,,,,,,,,,,,,,,,,,,,,,,,,,,,,,,,,,,,,,,,,,,,,,,,,,,,,,,,,,,,,,,,,,,,,,,,,,,,,,,,,,,,,,,,,,,,
,,67754b05380765134ed617c0,2026-03-17_17h03.32.614,kallum_motion_pilot_GIST_update_2,2026.1.1,Win32,60.97560976,67754b05380765134ed617c0,69b95efdef24cd8a694e89ee,69b960eee382b2445a5dc58b,0.0534,0.0535,1,56,218,114,1,sixfive,,,,,,,,,,,,,,,,,,,,,,,,,,,,,,,,,,,,,,,,,,,,,,,,,,,,,,,,,,,,,,,,,,,,,,,,,,,,,,,,,,,,,,,,,,,,,,,,,,,,,,,,,,,,,,,,,,,,,,,,,,,,,,,,,,,,,,,,,
,,67754b05380765134ed617c0,2026-03-17_17h03.32.614,kallum_motion_pilot_GIST_update_2,2026.1.1,Win32,60.97560976,67754b05380765134ed617c0,69b95efdef24cd8a694e89ee,69b960eee382b2445a5dc58b,0.0535,0.0535,1,57,219,54,1,fourtwo,,,,,,,,,,,,,,,,,,,,,,,,,,,,,,,,,,,,,,,,,,,,,,,,,,,,,,,,,,,,,,,,,,,,,,,,,,,,,,,,,,,,,,,,,,,,,,,,,,,,,,,,,,,,,,,,,,,,,,,,,,,,,,,,,,,,,,,,,
,,67754b05380765134ed617c0,2026-03-17_17h03.32.614,kallum_motion_pilot_GIST_update_2,2026.1.1,Win32,60.97560976,67754b05380765134ed617c0,69b95efdef24cd8a694e89ee,69b960eee382b2445a5dc58b,0.0537,0.0537,1,58,220,22,1,fourtwo,,,,,,,,,,,,,,,,,,,,,,,,,,,,,,,,,,,,,,,,,,,,,,,,,,,,,,,,,,,,,,,,,,,,,,,,,,,,,,,,,,,,,,,,,,,,,,,,,,,,,,,,,,,,,,,,,,,,,,,,,,,,,,,,,,,,,,,,,
,,67754b05380765134ed617c0,2026-03-17_17h03.32.614,kallum_motion_pilot_GIST_update_2,2026.1.1,Win32,60.97560976,67754b05380765134ed617c0,69b95efdef24cd8a694e89ee,69b960eee382b2445a5dc58b,0.0537,0.0537,1,59,221,92,1,sevenfive,,,,,,,,,,,,,,,,,,,,,,,,,,,,,,,,,,,,,,,,,,,,,,,,,,,,,,,,,,,,,,,,,,,,,,,,,,,,,,,,,,,,,,,,,,,,,,,,,,,,,,,,,,,,,,,,,,,,,,,,,,,,,,,,,,,,,,,,,
,,67754b05380765134ed617c0,2026-03-17_17h03.32.614,kallum_motion_pilot_GIST_update_2,2026.1.1,Win32,60.97560976,67754b05380765134ed617c0,69b95efdef24cd8a694e89ee,69b960eee382b2445a5dc58b,0.0538,0.0538,1,60,222,19,1,twofour,,,,,,,,,,,,,,,,,,,,,,,,,,,,,,,,,,,,,,,,,,,,,,,,,,,,,,,,,,,,,,,,,,,,,,,,,,,,,,,,,,,,,,,,,,,,,,,,,,,,,,,,,,,,,,,,,,,,,,,,,,,,,,,,,,,,,,,,,
,,67754b05380765134ed617c0,2026-03-17_17h03.32.614,kallum_motion_pilot_GIST_update_2,2026.1.1,Win32,60.97560976,67754b05380765134ed617c0,69b95efdef24cd8a694e89ee,69b960eee382b2445a5dc58b,0.054,0.054,1,61,223,155,1,sixeight,,,,,,,,,,,,,,,,,,,,,,,,,,,,,,,,,,,,,,,,,,,,,,,,,,,,,,,,,,,,,,,,,,,,,,,,,,,,,,,,,,,,,,,,,,,,,,,,,,,,,,,,,,,,,,,,,,,,,,,,,,,,,,,,,,,,,,,,,
,,67754b05380765134ed617c0,2026-03-17_17h03.32.614,kallum_motion_pilot_GIST_update_2,2026.1.1,Win32,60.97560976,67754b05380765134ed617c0,69b95efdef24cd8a694e89ee,69b960eee382b2445a5dc58b,0.0541,0.0541,1,62,224,120,1,fivesix,,,,,,,,,,,,,,,,,,,,,,,,,,,,,,,,,,,,,,,,,,,,,,,,,,,,,,,,,,,,,,,,,,,,,,,,,,,,,,,,,,,,,,,,,,,,,,,,,,,,,,,,,,,,,,,,,,,,,,,,,,,,,,,,,,,,,,,,,
,,67754b05380765134ed617c0,2026-03-17_17h03.32.614,kallum_motion_pilot_GIST_update_2,2026.1.1,Win32,60.97560976,67754b05380765134ed617c0,69b95efdef24cd8a694e89ee,69b960eee382b2445a5dc58b,0.0542,0.0542,1,63,225,6,1,fourtwo,,,,,,,,,,,,,,,,,,,,,,,,,,,,,,,,,,,,,,,,,,,,,,,,,,,,,,,,,,,,,,,,,,,,,,,,,,,,,,,,,,,,,,,,,,,,,,,,,,,,,,,,,,,,,,,,,,,,,,,,,,,,,,,,,,,,,,,,,
,,67754b05380765134ed617c0,2026-03-17_17h03.32.614,kallum_motion_pilot_GIST_update_2,2026.1.1,Win32,60.97560976,67754b05380765134ed617c0,69b95efdef24cd8a694e89ee,69b960eee382b2445a5dc58b,0.0543,0.0543,1,64,226,25,1,onethree,,,,,,,,,,,,,,,,,,,,,,,,,,,,,,,,,,,,,,,,,,,,,,,,,,,,,,,,,,,,,,,,,,,,,,,,,,,,,,,,,,,,,,,,,,,,,,,,,,,,,,,,,,,,,,,,,,,,,,,,,,,,,,,,,,,,,,,,,
,,67754b05380765134ed617c0,2026-03-17_17h03.32.614,kallum_motion_pilot_GIST_update_2,2026.1.1,Win32,60.97560976,67754b05380765134ed617c0,69b95efdef24cd8a694e89ee,69b960eee382b2445a5dc58b,0.0544,0.0544,1,65,227,48,1,onetwo,,,,,,,,,,,,,,,,,,,,,,,,,,,,,,,,,,,,,,,,,,,,,,,,,,,,,,,,,,,,,,,,,,,,,,,,,,,,,,,,,,,,,,,,,,,,,,,,,,,,,,,,,,,,,,,,,,,,,,,,,,,,,,,,,,,,,,,,,
,,67754b05380765134ed617c0,2026-03-17_17h03.32.614,kallum_motion_pilot_GIST_update_2,2026.1.1,Win32,60.97560976,67754b05380765134ed617c0,69b95efdef24cd8a694e89ee,69b960eee382b2445a5dc58b,0.0545,0.0545,1,66,228,14,1,fourtwo,,,,,,,,,,,,,,,,,,,,,,,,,,,,,,,,,,,,,,,,,,,,,,,,,,,,,,,,,,,,,,,,,,,,,,,,,,,,,,,,,,,,,,,,,,,,,,,,,,,,,,,,,,,,,,,,,,,,,,,,,,,,,,,,,,,,,,,,,
,,67754b05380765134ed617c0,2026-03-17_17h03.32.614,kallum_motion_pilot_GIST_update_2,2026.1.1,Win32,60.97560976,67754b05380765134ed617c0,69b95efdef24cd8a694e89ee,69b960eee382b2445a5dc58b,0.0547,0.0547,1,67,229,134,1,eightsix,,,,,,,,,,,,,,,,,,,,,,,,,,,,,,,,,,,,,,,,,,,,,,,,,,,,,,,,,,,,,,,,,,,,,,,,,,,,,,,,,,,,,,,,,,,,,,,,,,,,,,,,,,,,,,,,,,,,,,,,,,,,,,,,,,,,,,,,,
,,67754b05380765134ed617c0,2026-03-17_17h03.32.614,kallum_motion_pilot_GIST_update_2,2026.1.1,Win32,60.97560976,67754b05380765134ed617c0,69b95efdef24cd8a694e89ee,69b960eee382b2445a5dc58b,0.0548,0.0548,1,68,230,123,1,sixeight,,,,,,,,,,,,,,,,,,,,,,,,,,,,,,,,,,,,,,,,,,,,,,,,,,,,,,,,,,,,,,,,,,,,,,,,,,,,,,,,,,,,,,,,,,,,,,,,,,,,,,,,,,,,,,,,,,,,,,,,,,,,,,,,,,,,,,,,,
,,67754b05380765134ed617c0,2026-03-17_17h03.32.614,kallum_motion_pilot_GIST_update_2,2026.1.1,Win32,60.97560976,67754b05380765134ed617c0,69b95efdef24cd8a694e89ee,69b960eee382b2445a5dc58b,0.0551,0.0551,1,69,231,138,1,sixfive,,,,,,,,,,,,,,,,,,,,,,,,,,,,,,,,,,,,,,,,,,,,,,,,,,,,,,,,,,,,,,,,,,,,,,,,,,,,,,,,,,,,,,,,,,,,,,,,,,,,,,,,,,,,,,,,,,,,,,,,,,,,,,,,,,,,,,,,,
,,67754b05380765134ed617c0,2026-03-17_17h03.32.614,kallum_motion_pilot_GIST_update_2,2026.1.1,Win32,60.97560976,67754b05380765134ed617c0,69b95efdef24cd8a694e89ee,69b960eee382b2445a5dc58b,0.0552,0.0552,1,70,232,56,1,onetwo,,,,,,,,,,,,,,,,,,,,,,,,,,,,,,,,,,,,,,,,,,,,,,,,,,,,,,,,,,,,,,,,,,,,,,,,,,,,,,,,,,,,,,,,,,,,,,,,,,,,,,,,,,,,,,,,,,,,,,,,,,,,,,,,,,,,,,,,,
,,67754b05380765134ed617c0,2026-03-17_17h03.32.614,kallum_motion_pilot_GIST_update_2,2026.1.1,Win32,60.97560976,67754b05380765134ed617c0,69b95efdef24cd8a694e89ee,69b960eee382b2445a5dc58b,0.0554,0.0554,1,71,233,135,1,eightseven,,,,,,,,,,,,,,,,,,,,,,,,,,,,,,,,,,,,,,,,,,,,,,,,,,,,,,,,,,,,,,,,,,,,,,,,,,,,,,,,,,,,,,,,,,,,,,,,,,,,,,,,,,,,,,,,,,,,,,,,,,,,,,,,,,,,,,,,,
,,67754b05380765134ed617c0,2026-03-17_17h03.32.614,kallum_motion_pilot_GIST_update_2,2026.1.1,Win32,60.97560976,67754b05380765134ed617c0,69b95efdef24cd8a694e89ee,69b960eee382b2445a5dc58b,0.0555,0.0555,1,72,234,111,1,eightseven,,,,,,,,,,,,,,,,,,,,,,,,,,,,,,,,,,,,,,,,,,,,,,,,,,,,,,,,,,,,,,,,,,,,,,,,,,,,,,,,,,,,,,,,,,,,,,,,,,,,,,,,,,,,,,,,,,,,,,,,,,,,,,,,,,,,,,,,,
,,67754b05380765134ed617c0,2026-03-17_17h03.32.614,kallum_motion_pilot_GIST_update_2,2026.1.1,Win32,60.97560976,67754b05380765134ed617c0,69b95efdef24cd8a694e89ee,69b960eee382b2445a5dc58b,0.0556,0.0556,1,73,235,147,1,sixeight,,,,,,,,,,,,,,,,,,,,,,,,,,,,,,,,,,,,,,,,,,,,,,,,,,,,,,,,,,,,,,,,,,,,,,,,,,,,,,,,,,,,,,,,,,,,,,,,,,,,,,,,,,,,,,,,,,,,,,,,,,,,,,,,,,,,,,,,,
,,67754b05380765134ed617c0,2026-03-17_17h03.32.614,kallum_motion_pilot_GIST_update_2,2026.1.1,Win32,60.97560976,67754b05380765134ed617c0,69b95efdef24cd8a694e89ee,69b960eee382b2445a5dc58b,0.0557,0.0558,1,74,236,11,1,twofour,,,,,,,,,,,,,,,,,,,,,,,,,,,,,,,,,,,,,,,,,,,,,,,,,,,,,,,,,,,,,,,,,,,,,,,,,,,,,,,,,,,,,,,,,,,,,,,,,,,,,,,,,,,,,,,,,,,,,,,,,,,,,,,,,,,,,,,,,
,,67754b05380765134ed617c0,2026-03-17_17h03.32.614,kallum_motion_pilot_GIST_update_2,2026.1.1,Win32,60.97560976,67754b05380765134ed617c0,69b95efdef24cd8a694e89ee,69b960eee382b2445a5dc58b,0.0558,0.0558,1,75,237,112,1,fivesix,,,,,,,,,,,,,,,,,,,,,,,,,,,,,,,,,,,,,,,,,,,,,,,,,,,,,,,,,,,,,,,,,,,,,,,,,,,,,,,,,,,,,,,,,,,,,,,,,,,,,,,,,,,,,,,,,,,,,,,,,,,,,,,,,,,,,,,,,
,,67754b05380765134ed617c0,2026-03-17_17h03.32.614,kallum_motion_pilot_GIST_update_2,2026.1.1,Win32,60.97560976,67754b05380765134ed617c0,69b95efdef24cd8a694e89ee,69b960eee382b2445a5dc58b,0.056,0.056,1,76,238,79,1,eightseven,,,,,,,,,,,,,,,,,,,,,,,,,,,,,,,,,,,,,,,,,,,,,,,,,,,,,,,,,,,,,,,,,,,,,,,,,,,,,,,,,,,,,,,,,,,,,,,,,,,,,,,,,,,,,,,,,,,,,,,,,,,,,,,,,,,,,,,,,
,,67754b05380765134ed617c0,2026-03-17_17h03.32.614,kallum_motion_pilot_GIST_update_2,2026.1.1,Win32,60.97560976,67754b05380765134ed617c0,69b95efdef24cd8a694e89ee,69b960eee382b2445a5dc58b,0.0562,0.0562,1,77,239,101,1,seveneight,,,,,,,,,,,,,,,,,,,,,,,,,,,,,,,,,,,,,,,,,,,,,,,,,,,,,,,,,,,,,,,,,,,,,,,,,,,,,,,,,,,,,,,,,,,,,,,,,,,,,,,,,,,,,,,,,,,,,,,,,,,,,,,,,,,,,,,,,
,,67754b05380765134ed617c0,2026-03-17_17h03.32.614,kallum_motion_pilot_GIST_update_2,2026.1.1,Win32,60.97560976,67754b05380765134ed617c0,69b95efdef24cd8a694e89ee,69b960eee382b2445a5dc58b,0.0563,0.0563,1,78,240,90,1,sixfive,,,,,,,,,,,,,,,,,,,,,,,,,,,,,,,,,,,,,,,,,,,,,,,,,,,,,,,,,,,,,,,,,,,,,,,,,,,,,,,,,,,,,,,,,,,,,,,,,,,,,,,,,,,,,,,,,,,,,,,,,,,,,,,,,,,,,,,,,
,,67754b05380765134ed617c0,2026-03-17_17h03.32.614,kallum_motion_pilot_GIST_update_2,2026.1.1,Win32,60.97560976,67754b05380765134ed617c0,69b95efdef24cd8a694e89ee,69b960eee382b2445a5dc58b,0.0564,0.0564,1,79,241,38,1,fourtwo,,,,,,,,,,,,,,,,,,,,,,,,,,,,,,,,,,,,,,,,,,,,,,,,,,,,,,,,,,,,,,,,,,,,,,,,,,,,,,,,,,,,,,,,,,,,,,,,,,,,,,,,,,,,,,,,,,,,,,,,,,,,,,,,,,,,,,,,,
,,67754b05380765134ed617c0,2026-03-17_17h03.32.614,kallum_motion_pilot_GIST_update_2,2026.1.1,Win32,60.97560976,67754b05380765134ed617c0,69b95efdef24cd8a694e89ee,69b960eee382b2445a5dc58b,0.0566,0.0566,1,80,242,60,1,threeone,,,,,,,,,,,,,,,,,,,,,,,,,,,,,,,,,,,,,,,,,,,,,,,,,,,,,,,,,,,,,,,,,,,,,,,,,,,,,,,,,,,,,,,,,,,,,,,,,,,,,,,,,,,,,,,,,,,,,,,,,,,,,,,,,,,,,,,,,
,,67754b05380765134ed617c0,2026-03-17_17h03.32.614,kallum_motion_pilot_GIST_update_2,2026.1.1,Win32,60.97560976,67754b05380765134ed617c0,69b95efdef24cd8a694e89ee,69b960eee382b2445a5dc58b,0.0567,0.0567,1,81,243,133,1,seveneight,,,,,,,,,,,,,,,,,,,,,,,,,,,,,,,,,,,,,,,,,,,,,,,,,,,,,,,,,,,,,,,,,,,,,,,,,,,,,,,,,,,,,,,,,,,,,,,,,,,,,,,,,,,,,,,,,,,,,,,,,,,,,,,,,,,,,,,,,
,,67754b05380765134ed617c0,2026-03-17_17h03.32.614,kallum_motion_pilot_GIST_update_2,2026.1.1,Win32,60.97560976,67754b05380765134ed617c0,69b95efdef24cd8a694e89ee,69b960eee382b2445a5dc58b,0.0568,0.0568,1,82,244,5,1,threefour,,,,,,,,,,,,,,,,,,,,,,,,,,,,,,,,,,,,,,,,,,,,,,,,,,,,,,,,,,,,,,,,,,,,,,,,,,,,,,,,,,,,,,,,,,,,,,,,,,,,,,,,,,,,,,,,,,,,,,,,,,,,,,,,,,,,,,,,,
,,67754b05380765134ed617c0,2026-03-17_17h03.32.614,kallum_motion_pilot_GIST_update_2,2026.1.1,Win32,60.97560976,67754b05380765134ed617c0,69b95efdef24cd8a694e89ee,69b960eee382b2445a5dc58b,0.057,0.057,1,83,245,12,1,threeone,,,,,,,,,,,,,,,,,,,,,,,,,,,,,,,,,,,,,,,,,,,,,,,,,,,,,,,,,,,,,,,,,,,,,,,,,,,,,,,,,,,,,,,,,,,,,,,,,,,,,,,,,,,,,,,,,,,,,,,,,,,,,,,,,,,,,,,,,
,,67754b05380765134ed617c0,2026-03-17_17h03.32.614,kallum_motion_pilot_GIST_update_2,2026.1.1,Win32,60.97560976,67754b05380765134ed617c0,69b95efdef24cd8a694e89ee,69b960eee382b2445a5dc58b,0.0572,0.0572,1,84,246,87,1,eightseven,,,,,,,,,,,,,,,,,,,,,,,,,,,,,,,,,,,,,,,,,,,,,,,,,,,,,,,,,,,,,,,,,,,,,,,,,,,,,,,,,,,,,,,,,,,,,,,,,,,,,,,,,,,,,,,,,,,,,,,,,,,,,,,,,,,,,,,,,
,,67754b05380765134ed617c0,2026-03-17_17h03.32.614,kallum_motion_pilot_GIST_update_2,2026.1.1,Win32,60.97560976,67754b05380765134ed617c0,69b95efdef24cd8a694e89ee,69b960eee382b2445a5dc58b,0.0573,0.0573,1,85,247,136,1,fivesix,,,,,,,,,,,,,,,,,,,,,,,,,,,,,,,,,,,,,,,,,,,,,,,,,,,,,,,,,,,,,,,,,,,,,,,,,,,,,,,,,,,,,,,,,,,,,,,,,,,,,,,,,,,,,,,,,,,,,,,,,,,,,,,,,,,,,,,,,
,,67754b05380765134ed617c0,2026-03-17_17h03.32.614,kallum_motion_pilot_GIST_update_2,2026.1.1,Win32,60.97560976,67754b05380765134ed617c0,69b95efdef24cd8a694e89ee,69b960eee382b2445a5dc58b,0.0574,0.0574,1,86,248,24,1,onetwo,,,,,,,,,,,,,,,,,,,,,,,,,,,,,,,,,,,,,,,,,,,,,,,,,,,,,,,,,,,,,,,,,,,,,,,,,,,,,,,,,,,,,,,,,,,,,,,,,,,,,,,,,,,,,,,,,,,,,,,,,,,,,,,,,,,,,,,,,
,,67754b05380765134ed617c0,2026-03-17_17h03.32.614,kallum_motion_pilot_GIST_update_2,2026.1.1,Win32,60.97560976,67754b05380765134ed617c0,69b95efdef24cd8a694e89ee,69b960eee382b2445a5dc58b,0.0575,0.0575,1,87,249,23,1,fourthree,,,,,,,,,,,,,,,,,,,,,,,,,,,,,,,,,,,,,,,,,,,,,,,,,,,,,,,,,,,,,,,,,,,,,,,,,,,,,,,,,,,,,,,,,,,,,,,,,,,,,,,,,,,,,,,,,,,,,,,,,,,,,,,,,,,,,,,,,
,,67754b05380765134ed617c0,2026-03-17_17h03.32.614,kallum_motion_pilot_GIST_update_2,2026.1.1,Win32,60.97560976,67754b05380765134ed617c0,69b95efdef24cd8a694e89ee,69b960eee382b2445a5dc58b,0.0576,0.0576,1,88,250,148,1,sevenfive,,,,,,,,,,,,,,,,,,,,,,,,,,,,,,,,,,,,,,,,,,,,,,,,,,,,,,,,,,,,,,,,,,,,,,,,,,,,,,,,,,,,,,,,,,,,,,,,,,,,,,,,,,,,,,,,,,,,,,,,,,,,,,,,,,,,,,,,,
,,67754b05380765134ed617c0,2026-03-17_17h03.32.614,kallum_motion_pilot_GIST_update_2,2026.1.1,Win32,60.97560976,67754b05380765134ed617c0,69b95efdef24cd8a694e89ee,69b960eee382b2445a5dc58b,0.0578,0.0578,1,89,251,152,1,fivesix,,,,,,,,,,,,,,,,,,,,,,,,,,,,,,,,,,,,,,,,,,,,,,,,,,,,,,,,,,,,,,,,,,,,,,,,,,,,,,,,,,,,,,,,,,,,,,,,,,,,,,,,,,,,,,,,,,,,,,,,,,,,,,,,,,,,,,,,,
,,67754b05380765134ed617c0,2026-03-17_17h03.32.614,kallum_motion_pilot_GIST_update_2,2026.1.1,Win32,60.97560976,67754b05380765134ed617c0,69b95efdef24cd8a694e89ee,69b960eee382b2445a5dc58b,0.0579,0.0579,1,90,252,151,1,eightseven,,,,,,,,,,,,,,,,,,,,,,,,,,,,,,,,,,,,,,,,,,,,,,,,,,,,,,,,,,,,,,,,,,,,,,,,,,,,,,,,,,,,,,,,,,,,,,,,,,,,,,,,,,,,,,,,,,,,,,,,,,,,,,,,,,,,,,,,,
,,67754b05380765134ed617c0,2026-03-17_17h03.32.614,kallum_motion_pilot_GIST_update_2,2026.1.1,Win32,60.97560976,67754b05380765134ed617c0,69b95efdef24cd8a694e89ee,69b960eee382b2445a5dc58b,0.0581,0.0581,1,91,253,144,1,fivesix,,,,,,,,,,,,,,,,,,,,,,,,,,,,,,,,,,,,,,,,,,,,,,,,,,,,,,,,,,,,,,,,,,,,,,,,,,,,,,,,,,,,,,,,,,,,,,,,,,,,,,,,,,,,,,,,,,,,,,,,,,,,,,,,,,,,,,,,,
,,67754b05380765134ed617c0,2026-03-17_17h03.32.614,kallum_motion_pilot_GIST_update_2,2026.1.1,Win32,60.97560976,67754b05380765134ed617c0,69b95efdef24cd8a694e89ee,69b960eee382b2445a5dc58b,0.0582,0.0582,1,92,254,31,1,fourthree,,,,,,,,,,,,,,,,,,,,,,,,,,,,,,,,,,,,,,,,,,,,,,,,,,,,,,,,,,,,,,,,,,,,,,,,,,,,,,,,,,,,,,,,,,,,,,,,,,,,,,,,,,,,,,,,,,,,,,,,,,,,,,,,,,,,,,,,,
,,67754b05380765134ed617c0,2026-03-17_17h03.32.614,kallum_motion_pilot_GIST_update_2,2026.1.1,Win32,60.97560976,67754b05380765134ed617c0,69b95efdef24cd8a694e89ee,69b960eee382b2445a5dc58b,0.0584,0.0584,1,93,255,57,1,onethree,,,,,,,,,,,,,,,,,,,,,,,,,,,,,,,,,,,,,,,,,,,,,,,,,,,,,,,,,,,,,,,,,,,,,,,,,,,,,,,,,,,,,,,,,,,,,,,,,,,,,,,,,,,,,,,,,,,,,,,,,,,,,,,,,,,,,,,,,
,,67754b05380765134ed617c0,2026-03-17_17h03.32.614,kallum_motion_pilot_GIST_update_2,2026.1.1,Win32,60.97560976,67754b05380765134ed617c0,69b95efdef24cd8a694e89ee,69b960eee382b2445a5dc58b,0.0586,0.0586,1,94,256,109,1,seveneight,,,,,,,,,,,,,,,,,,,,,,,,,,,,,,,,,,,,,,,,,,,,,,,,,,,,,,,,,,,,,,,,,,,,,,,,,,,,,,,,,,,,,,,,,,,,,,,,,,,,,,,,,,,,,,,,,,,,,,,,,,,,,,,,,,,,,,,,,
,,67754b05380765134ed617c0,2026-03-17_17h03.32.614,kallum_motion_pilot_GIST_update_2,2026.1.1,Win32,60.97560976,67754b05380765134ed617c0,69b95efdef24cd8a694e89ee,69b960eee382b2445a5dc58b,0.0587,0.0587,1,95,257,131,1,sixeight,,,,,,,,,,,,,,,,,,,,,,,,,,,,,,,,,,,,,,,,,,,,,,,,,,,,,,,,,,,,,,,,,,,,,,,,,,,,,,,,,,,,,,,,,,,,,,,,,,,,,,,,,,,,,,,,,,,,,,,,,,,,,,,,,,,,,,,,,
,,67754b05380765134ed617c0,2026-03-17_17h03.32.614,kallum_motion_pilot_GIST_update_2,2026.1.1,Win32,60.97560976,67754b05380765134ed617c0,69b95efdef24cd8a694e89ee,69b960eee382b2445a5dc58b,0.059,0.059,1,96,258,82,1,sixfive,,,,,,,,,,,,,,,,,,,,,,,,,,,,,,,,,,,,,,,,,,,,,,,,,,,,,,,,,,,,,,,,,,,,,,,,,,,,,,,,,,,,,,,,,,,,,,,,,,,,,,,,,,,,,,,,,,,,,,,,,,,,,,,,,,,,,,,,,
,,67754b05380765134ed617c0,2026-03-17_17h03.32.614,kallum_motion_pilot_GIST_update_2,2026.1.1,Win32,60.97560976,67754b05380765134ed617c0,69b95efdef24cd8a694e89ee,69b960eee382b2445a5dc58b,0.0594,0.0594,1,97,259,64,1,onetwo,,,,,,,,,,,,,,,,,,,,,,,,,,,,,,,,,,,,,,,,,,,,,,,,,,,,,,,,,,,,,,,,,,,,,,,,,,,,,,,,,,,,,,,,,,,,,,,,,,,,,,,,,,,,,,,,,,,,,,,,,,,,,,,,,,,,,,,,,
,,67754b05380765134ed617c0,2026-03-17_17h03.32.614,kallum_motion_pilot_GIST_update_2,2026.1.1,Win32,60.97560976,67754b05380765134ed617c0,69b95efdef24cd8a694e89ee,69b960eee382b2445a5dc58b,0.0596,0.0596,1,98,260,100,1,sevenfive,,,,,,,,,,,,,,,,,,,,,,,,,,,,,,,,,,,,,,,,,,,,,,,,,,,,,,,,,,,,,,,,,,,,,,,,,,,,,,,,,,,,,,,,,,,,,,,,,,,,,,,,,,,,,,,,,,,,,,,,,,,,,,,,,,,,,,,,,
,,67754b05380765134ed617c0,2026-03-17_17h03.32.614,kallum_motion_pilot_GIST_update_2,2026.1.1,Win32,60.97560976,67754b05380765134ed617c0,69b95efdef24cd8a694e89ee,69b960eee382b2445a5dc58b,0.0598,0.0598,1,99,261,67,1,twofour,,,,,,,,,,,,,,,,,,,,,,,,,,,,,,,,,,,,,,,,,,,,,,,,,,,,,,,,,,,,,,,,,,,,,,,,,,,,,,,,,,,,,,,,,,,,,,,,,,,,,,,,,,,,,,,,,,,,,,,,,,,,,,,,,,,,,,,,,
,,67754b05380765134ed617c0,2026-03-17_17h03.32.614,kallum_motion_pilot_GIST_update_2,2026.1.1,Win32,60.97560976,67754b05380765134ed617c0,69b95efdef24cd8a694e89ee,69b960eee382b2445a5dc58b,0.0599,0.0599,1,100,262,106,1,sixfive,,,,,,,,,,,,,,,,,,,,,,,,,,,,,,,,,,,,,,,,,,,,,,,,,,,,,,,,,,,,,,,,,,,,,,,,,,,,,,,,,,,,,,,,,,,,,,,,,,,,,,,,,,,,,,,,,,,,,,,,,,,,,,,,,,,,,,,,,
,,67754b05380765134ed617c0,2026-03-17_17h03.32.614,kallum_motion_pilot_GIST_update_2,2026.1.1,Win32,60.97560976,67754b05380765134ed617c0,69b95efdef24cd8a694e89ee,69b960eee382b2445a5dc58b,0.0601,0.0601,1,101,263,74,1,twoone,,,,,,,,,,,,,,,,,,,,,,,,,,,,,,,,,,,,,,,,,,,,,,,,,,,,,,,,,,,,,,,,,,,,,,,,,,,,,,,,,,,,,,,,,,,,,,,,,,,,,,,,,,,,,,,,,,,,,,,,,,,,,,,,,,,,,,,,,
,,67754b05380765134ed617c0,2026-03-17_17h03.32.614,kallum_motion_pilot_GIST_update_2,2026.1.1,Win32,60.97560976,67754b05380765134ed617c0,69b95efdef24cd8a694e89ee,69b960eee382b2445a5dc58b,0.0604,0.0604,1,102,264,34,1,twoone,,,,,,,,,,,,,,,,,,,,,,,,,,,,,,,,,,,,,,,,,,,,,,,,,,,,,,,,,,,,,,,,,,,,,,,,,,,,,,,,,,,,,,,,,,,,,,,,,,,,,,,,,,,,,,,,,,,,,,,,,,,,,,,,,,,,,,,,,
,,67754b05380765134ed617c0,2026-03-17_17h03.32.614,kallum_motion_pilot_GIST_update_2,2026.1.1,Win32,60.97560976,67754b05380765134ed617c0,69b95efdef24cd8a694e89ee,69b960eee382b2445a5dc58b,0.0609,0.0609,1,103,265,160,1,fivesix,,,,,,,,,,,,,,,,,,,,,,,,,,,,,,,,,,,,,,,,,,,,,,,,,,,,,,,,,,,,,,,,,,,,,,,,,,,,,,,,,,,,,,,,,,,,,,,,,,,,,,,,,,,,,,,,,,,,,,,,,,,,,,,,,,,,,,,,,
,,67754b05380765134ed617c0,2026-03-17_17h03.32.614,kallum_motion_pilot_GIST_update_2,2026.1.1,Win32,60.97560976,67754b05380765134ed617c0,69b95efdef24cd8a694e89ee,69b960eee382b2445a5dc58b,0.0611,0.0611,1,104,266,96,1,fivesix,,,,,,,,,,,,,,,,,,,,,,,,,,,,,,,,,,,,,,,,,,,,,,,,,,,,,,,,,,,,,,,,,,,,,,,,,,,,,,,,,,,,,,,,,,,,,,,,,,,,,,,,,,,,,,,,,,,,,,,,,,,,,,,,,,,,,,,,,
