startup.started,startup.stopped,Prolific ID*,date,expName,psychopyVersion,OS,frameRate,participant,study_id,session,stimpositions.started,stimpositions.stopped,hardcoded_stimulus_positions.thisRepN,hardcoded_stimulus_positions.thisTrialN,hardcoded_stimulus_positions.thisN,hardcoded_stimulus_positions.thisIndex,hardcoded_stimulus_positions.ran,StimulusPos,stimorientation.started,stimorientation.stopped,prac_stimorientation_import_loop.thisRepN,prac_stimorientation_import_loop.thisTrialN,prac_stimorientation_import_loop.thisN,prac_stimorientation_import_loop.thisIndex,prac_stimorientation_import_loop.ran,Stimorientation,welcome_instr.started,welcome_instr.stopped,key_resp.keys,key_resp.rt,key_resp.duration,response_steppedout_1.started,response_steppedout_1.stopped,key_resp_20.keys,key_resp_20.rt,key_resp_20.duration,response_steppedout_2.started,response_steppedout_2.stopped,key_resp_19.keys,key_resp_19.rt,key_resp_19.duration,stim_response_instr.started,stim_response_instr.stopped,key_resp_15.keys,key_resp_15.rt,key_resp_15.duration,direction_instr_2.started,direction_instr_2.stopped,key_resp_9.keys,key_resp_9.rt,key_resp_9.duration,instr_prac.started,instr_prac.stopped,key_resp_10.keys,key_resp_10.rt,key_resp_10.duration,Stim1_display_prac.started,Stim1_display_prac.stopped,Ecc,Circle1_ori,Circle2_ori,response_prac.started,similarity,response_time,response_prac.stopped,mouse_5.x,mouse_5.y,mouse_5.leftButton,mouse_5.midButton,mouse_5.rightButton,mouse_5.clicked_name,responseprac_feedback.started,responseprac_feedback.stopped,summary2_prac.started,summary2_prac.stopped,mouse_6.x,mouse_6.y,mouse_6.leftButton,mouse_6.midButton,mouse_6.rightButton,mouse_6.clicked_name,duringprac.thisRepN,duringprac.thisTrialN,duringprac.thisN,duringprac.thisIndex,duringprac.ran,begin.started,begin.stopped,key_resp_22.keys,key_resp_22.rt,key_resp_22.duration,Stim1_display.started,Stim1_display.stopped,circle1_ori,circle2_ori,circle1_SF,circle2_SF,response.started,response.stopped,mouse.x,mouse.y,mouse.leftButton,mouse.midButton,mouse.rightButton,mouse.clicked_name,trialnumber,double_pass.thisRepN,double_pass.thisTrialN,double_pass.thisN,double_pass.thisIndex,double_pass.ran,double_pass.order,main_trial.thisRepN,main_trial.thisTrialN,main_trial.thisN,main_trial.thisIndex,main_trial.ran,main_trial.order,Trial_Counter,Catch,Frequencies,response_2.started,response_2.stopped,mouse_2.x,mouse_2.y,mouse_2.leftButton,mouse_2.midButton,mouse_2.rightButton,mouse_2.clicked_name,special_trial.started,special_trial.stopped,catch_1.started,catch_1.stopped,mouse_3.x,mouse_3.y,mouse_3.leftButton,mouse_3.midButton,mouse_3.rightButton,catchresponse,catchnumber,response_time_catch,response_sum.started,response_sum.stopped,mouse_11.x,mouse_11.y,mouse_11.leftButton,mouse_11.midButton,mouse_11.rightButton,flip_presentation_sequence_for_double_pass.started,flip_presentation_sequence_for_double_pass.stopped,goodbye.started,goodbye.stopped,key_resp_3.keys,key_resp_3.rt,key_resp_3.duration
0.0007,0.001,67869fc436295171deaa52c9,2026-03-17_13h18.59.481,kallum_motion_pilot_GIST_update_2,2026.1.1,Win32,29.94011976,67869fc436295171deaa52c9,69b92ab4aef6dee357cd729a,69b9386e3bc83edcc3c9d75f,,,,,,,,,,,,,,,,,,,,,,,,,,,,,,,,,,,,,,,,,,,,,,,,,,,,,,,,,,,,,,,,,,,,,,,,,,,,,,,,,,,,,,,,,,,,,,,,,,,,,,,,,,,,,,,,,,,,,,,,,,,,,,,,,,,,,,,,,,,,,,,,,
,,67869fc436295171deaa52c9,2026-03-17_13h18.59.481,kallum_motion_pilot_GIST_update_2,2026.1.1,Win32,29.94011976,67869fc436295171deaa52c9,69b92ab4aef6dee357cd729a,69b9386e3bc83edcc3c9d75f,0.0975,0.0977,0,0,0,89,1,fiveseven,,,,,,,,,,,,,,,,,,,,,,,,,,,,,,,,,,,,,,,,,,,,,,,,,,,,,,,,,,,,,,,,,,,,,,,,,,,,,,,,,,,,,,,,,,,,,,,,,,,,,,,,,,,,,,,,,,,,,,,,,,,,,,,,,,,,,,,,,
,,67869fc436295171deaa52c9,2026-03-17_13h18.59.481,kallum_motion_pilot_GIST_update_2,2026.1.1,Win32,29.94011976,67869fc436295171deaa52c9,69b92ab4aef6dee357cd729a,69b9386e3bc83edcc3c9d75f,0.0995,0.0995,0,1,1,66,1,twoone,,,,,,,,,,,,,,,,,,,,,,,,,,,,,,,,,,,,,,,,,,,,,,,,,,,,,,,,,,,,,,,,,,,,,,,,,,,,,,,,,,,,,,,,,,,,,,,,,,,,,,,,,,,,,,,,,,,,,,,,,,,,,,,,,,,,,,,,,
,,67869fc436295171deaa52c9,2026-03-17_13h18.59.481,kallum_motion_pilot_GIST_update_2,2026.1.1,Win32,29.94011976,67869fc436295171deaa52c9,69b92ab4aef6dee357cd729a,69b9386e3bc83edcc3c9d75f,0.1004,0.1004,0,2,2,121,1,fiveseven,,,,,,,,,,,,,,,,,,,,,,,,,,,,,,,,,,,,,,,,,,,,,,,,,,,,,,,,,,,,,,,,,,,,,,,,,,,,,,,,,,,,,,,,,,,,,,,,,,,,,,,,,,,,,,,,,,,,,,,,,,,,,,,,,,,,,,,,,
,,67869fc436295171deaa52c9,2026-03-17_13h18.59.481,kallum_motion_pilot_GIST_update_2,2026.1.1,Win32,29.94011976,67869fc436295171deaa52c9,69b92ab4aef6dee357cd729a,69b9386e3bc83edcc3c9d75f,0.1012,0.1013,0,3,3,81,1,fiveseven,,,,,,,,,,,,,,,,,,,,,,,,,,,,,,,,,,,,,,,,,,,,,,,,,,,,,,,,,,,,,,,,,,,,,,,,,,,,,,,,,,,,,,,,,,,,,,,,,,,,,,,,,,,,,,,,,,,,,,,,,,,,,,,,,,,,,,,,,
,,67869fc436295171deaa52c9,2026-03-17_13h18.59.481,kallum_motion_pilot_GIST_update_2,2026.1.1,Win32,29.94011976,67869fc436295171deaa52c9,69b92ab4aef6dee357cd729a,69b9386e3bc83edcc3c9d75f,0.1022,0.1022,0,4,4,101,1,seveneight,,,,,,,,,,,,,,,,,,,,,,,,,,,,,,,,,,,,,,,,,,,,,,,,,,,,,,,,,,,,,,,,,,,,,,,,,,,,,,,,,,,,,,,,,,,,,,,,,,,,,,,,,,,,,,,,,,,,,,,,,,,,,,,,,,,,,,,,,
,,67869fc436295171deaa52c9,2026-03-17_13h18.59.481,kallum_motion_pilot_GIST_update_2,2026.1.1,Win32,29.94011976,67869fc436295171deaa52c9,69b92ab4aef6dee357cd729a,69b9386e3bc83edcc3c9d75f,0.1034,0.1035,0,5,5,60,1,threeone,,,,,,,,,,,,,,,,,,,,,,,,,,,,,,,,,,,,,,,,,,,,,,,,,,,,,,,,,,,,,,,,,,,,,,,,,,,,,,,,,,,,,,,,,,,,,,,,,,,,,,,,,,,,,,,,,,,,,,,,,,,,,,,,,,,,,,,,,
,,67869fc436295171deaa52c9,2026-03-17_13h18.59.481,kallum_motion_pilot_GIST_update_2,2026.1.1,Win32,29.94011976,67869fc436295171deaa52c9,69b92ab4aef6dee357cd729a,69b9386e3bc83edcc3c9d75f,0.1045,0.1045,0,6,6,114,1,sixfive,,,,,,,,,,,,,,,,,,,,,,,,,,,,,,,,,,,,,,,,,,,,,,,,,,,,,,,,,,,,,,,,,,,,,,,,,,,,,,,,,,,,,,,,,,,,,,,,,,,,,,,,,,,,,,,,,,,,,,,,,,,,,,,,,,,,,,,,,
,,67869fc436295171deaa52c9,2026-03-17_13h18.59.481,kallum_motion_pilot_GIST_update_2,2026.1.1,Win32,29.94011976,67869fc436295171deaa52c9,69b92ab4aef6dee357cd729a,69b9386e3bc83edcc3c9d75f,0.105,0.1051,0,7,7,159,1,eightseven,,,,,,,,,,,,,,,,,,,,,,,,,,,,,,,,,,,,,,,,,,,,,,,,,,,,,,,,,,,,,,,,,,,,,,,,,,,,,,,,,,,,,,,,,,,,,,,,,,,,,,,,,,,,,,,,,,,,,,,,,,,,,,,,,,,,,,,,,
,,67869fc436295171deaa52c9,2026-03-17_13h18.59.481,kallum_motion_pilot_GIST_update_2,2026.1.1,Win32,29.94011976,67869fc436295171deaa52c9,69b92ab4aef6dee357cd729a,69b9386e3bc83edcc3c9d75f,0.1055,0.1056,0,8,8,65,1,onethree,,,,,,,,,,,,,,,,,,,,,,,,,,,,,,,,,,,,,,,,,,,,,,,,,,,,,,,,,,,,,,,,,,,,,,,,,,,,,,,,,,,,,,,,,,,,,,,,,,,,,,,,,,,,,,,,,,,,,,,,,,,,,,,,,,,,,,,,,
,,67869fc436295171deaa52c9,2026-03-17_13h18.59.481,kallum_motion_pilot_GIST_update_2,2026.1.1,Win32,29.94011976,67869fc436295171deaa52c9,69b92ab4aef6dee357cd729a,69b9386e3bc83edcc3c9d75f,0.106,0.1062,0,9,9,92,1,sevenfive,,,,,,,,,,,,,,,,,,,,,,,,,,,,,,,,,,,,,,,,,,,,,,,,,,,,,,,,,,,,,,,,,,,,,,,,,,,,,,,,,,,,,,,,,,,,,,,,,,,,,,,,,,,,,,,,,,,,,,,,,,,,,,,,,,,,,,,,,
,,67869fc436295171deaa52c9,2026-03-17_13h18.59.481,kallum_motion_pilot_GIST_update_2,2026.1.1,Win32,29.94011976,67869fc436295171deaa52c9,69b92ab4aef6dee357cd729a,69b9386e3bc83edcc3c9d75f,0.1066,0.1066,0,10,10,28,1,threeone,,,,,,,,,,,,,,,,,,,,,,,,,,,,,,,,,,,,,,,,,,,,,,,,,,,,,,,,,,,,,,,,,,,,,,,,,,,,,,,,,,,,,,,,,,,,,,,,,,,,,,,,,,,,,,,,,,,,,,,,,,,,,,,,,,,,,,,,,
,,67869fc436295171deaa52c9,2026-03-17_13h18.59.481,kallum_motion_pilot_GIST_update_2,2026.1.1,Win32,29.94011976,67869fc436295171deaa52c9,69b92ab4aef6dee357cd729a,69b9386e3bc83edcc3c9d75f,0.1071,0.1071,0,11,11,105,1,fiveseven,,,,,,,,,,,,,,,,,,,,,,,,,,,,,,,,,,,,,,,,,,,,,,,,,,,,,,,,,,,,,,,,,,,,,,,,,,,,,,,,,,,,,,,,,,,,,,,,,,,,,,,,,,,,,,,,,,,,,,,,,,,,,,,,,,,,,,,,,
,,67869fc436295171deaa52c9,2026-03-17_13h18.59.481,kallum_motion_pilot_GIST_update_2,2026.1.1,Win32,29.94011976,67869fc436295171deaa52c9,69b92ab4aef6dee357cd729a,69b9386e3bc83edcc3c9d75f,0.1075,0.1075,0,12,12,17,1,onethree,,,,,,,,,,,,,,,,,,,,,,,,,,,,,,,,,,,,,,,,,,,,,,,,,,,,,,,,,,,,,,,,,,,,,,,,,,,,,,,,,,,,,,,,,,,,,,,,,,,,,,,,,,,,,,,,,,,,,,,,,,,,,,,,,,,,,,,,,
,,67869fc436295171deaa52c9,2026-03-17_13h18.59.481,kallum_motion_pilot_GIST_update_2,2026.1.1,Win32,29.94011976,67869fc436295171deaa52c9,69b92ab4aef6dee357cd729a,69b9386e3bc83edcc3c9d75f,0.108,0.108,0,13,13,127,1,eightseven,,,,,,,,,,,,,,,,,,,,,,,,,,,,,,,,,,,,,,,,,,,,,,,,,,,,,,,,,,,,,,,,,,,,,,,,,,,,,,,,,,,,,,,,,,,,,,,,,,,,,,,,,,,,,,,,,,,,,,,,,,,,,,,,,,,,,,,,,
,,67869fc436295171deaa52c9,2026-03-17_13h18.59.481,kallum_motion_pilot_GIST_update_2,2026.1.1,Win32,29.94011976,67869fc436295171deaa52c9,69b92ab4aef6dee357cd729a,69b9386e3bc83edcc3c9d75f,0.1084,0.1084,0,14,14,72,1,onetwo,,,,,,,,,,,,,,,,,,,,,,,,,,,,,,,,,,,,,,,,,,,,,,,,,,,,,,,,,,,,,,,,,,,,,,,,,,,,,,,,,,,,,,,,,,,,,,,,,,,,,,,,,,,,,,,,,,,,,,,,,,,,,,,,,,,,,,,,,
,,67869fc436295171deaa52c9,2026-03-17_13h18.59.481,kallum_motion_pilot_GIST_update_2,2026.1.1,Win32,29.94011976,67869fc436295171deaa52c9,69b92ab4aef6dee357cd729a,69b9386e3bc83edcc3c9d75f,0.1088,0.1088,0,15,15,134,1,eightsix,,,,,,,,,,,,,,,,,,,,,,,,,,,,,,,,,,,,,,,,,,,,,,,,,,,,,,,,,,,,,,,,,,,,,,,,,,,,,,,,,,,,,,,,,,,,,,,,,,,,,,,,,,,,,,,,,,,,,,,,,,,,,,,,,,,,,,,,,
,,67869fc436295171deaa52c9,2026-03-17_13h18.59.481,kallum_motion_pilot_GIST_update_2,2026.1.1,Win32,29.94011976,67869fc436295171deaa52c9,69b92ab4aef6dee357cd729a,69b9386e3bc83edcc3c9d75f,0.1093,0.1093,0,16,16,23,1,fourthree,,,,,,,,,,,,,,,,,,,,,,,,,,,,,,,,,,,,,,,,,,,,,,,,,,,,,,,,,,,,,,,,,,,,,,,,,,,,,,,,,,,,,,,,,,,,,,,,,,,,,,,,,,,,,,,,,,,,,,,,,,,,,,,,,,,,,,,,,
,,67869fc436295171deaa52c9,2026-03-17_13h18.59.481,kallum_motion_pilot_GIST_update_2,2026.1.1,Win32,29.94011976,67869fc436295171deaa52c9,69b92ab4aef6dee357cd729a,69b9386e3bc83edcc3c9d75f,0.1099,0.11,0,17,17,120,1,fivesix,,,,,,,,,,,,,,,,,,,,,,,,,,,,,,,,,,,,,,,,,,,,,,,,,,,,,,,,,,,,,,,,,,,,,,,,,,,,,,,,,,,,,,,,,,,,,,,,,,,,,,,,,,,,,,,,,,,,,,,,,,,,,,,,,,,,,,,,,
,,67869fc436295171deaa52c9,2026-03-17_13h18.59.481,kallum_motion_pilot_GIST_update_2,2026.1.1,Win32,29.94011976,67869fc436295171deaa52c9,69b92ab4aef6dee357cd729a,69b9386e3bc83edcc3c9d75f,0.1107,0.1107,0,18,18,157,1,seveneight,,,,,,,,,,,,,,,,,,,,,,,,,,,,,,,,,,,,,,,,,,,,,,,,,,,,,,,,,,,,,,,,,,,,,,,,,,,,,,,,,,,,,,,,,,,,,,,,,,,,,,,,,,,,,,,,,,,,,,,,,,,,,,,,,,,,,,,,,
,,67869fc436295171deaa52c9,2026-03-17_13h18.59.481,kallum_motion_pilot_GIST_update_2,2026.1.1,Win32,29.94011976,67869fc436295171deaa52c9,69b92ab4aef6dee357cd729a,69b9386e3bc83edcc3c9d75f,0.1113,0.1113,0,19,19,62,1,fourtwo,,,,,,,,,,,,,,,,,,,,,,,,,,,,,,,,,,,,,,,,,,,,,,,,,,,,,,,,,,,,,,,,,,,,,,,,,,,,,,,,,,,,,,,,,,,,,,,,,,,,,,,,,,,,,,,,,,,,,,,,,,,,,,,,,,,,,,,,,
,,67869fc436295171deaa52c9,2026-03-17_13h18.59.481,kallum_motion_pilot_GIST_update_2,2026.1.1,Win32,29.94011976,67869fc436295171deaa52c9,69b92ab4aef6dee357cd729a,69b9386e3bc83edcc3c9d75f,0.112,0.112,0,20,20,46,1,fourtwo,,,,,,,,,,,,,,,,,,,,,,,,,,,,,,,,,,,,,,,,,,,,,,,,,,,,,,,,,,,,,,,,,,,,,,,,,,,,,,,,,,,,,,,,,,,,,,,,,,,,,,,,,,,,,,,,,,,,,,,,,,,,,,,,,,,,,,,,,
,,67869fc436295171deaa52c9,2026-03-17_13h18.59.481,kallum_motion_pilot_GIST_update_2,2026.1.1,Win32,29.94011976,67869fc436295171deaa52c9,69b92ab4aef6dee357cd729a,69b9386e3bc83edcc3c9d75f,0.1132,0.1132,0,21,21,90,1,sixfive,,,,,,,,,,,,,,,,,,,,,,,,,,,,,,,,,,,,,,,,,,,,,,,,,,,,,,,,,,,,,,,,,,,,,,,,,,,,,,,,,,,,,,,,,,,,,,,,,,,,,,,,,,,,,,,,,,,,,,,,,,,,,,,,,,,,,,,,,
,,67869fc436295171deaa52c9,2026-03-17_13h18.59.481,kallum_motion_pilot_GIST_update_2,2026.1.1,Win32,29.94011976,67869fc436295171deaa52c9,69b92ab4aef6dee357cd729a,69b9386e3bc83edcc3c9d75f,0.1137,0.1137,0,22,22,124,1,sevenfive,,,,,,,,,,,,,,,,,,,,,,,,,,,,,,,,,,,,,,,,,,,,,,,,,,,,,,,,,,,,,,,,,,,,,,,,,,,,,,,,,,,,,,,,,,,,,,,,,,,,,,,,,,,,,,,,,,,,,,,,,,,,,,,,,,,,,,,,,
,,67869fc436295171deaa52c9,2026-03-17_13h18.59.481,kallum_motion_pilot_GIST_update_2,2026.1.1,Win32,29.94011976,67869fc436295171deaa52c9,69b92ab4aef6dee357cd729a,69b9386e3bc83edcc3c9d75f,0.1142,0.1142,0,23,23,8,1,onetwo,,,,,,,,,,,,,,,,,,,,,,,,,,,,,,,,,,,,,,,,,,,,,,,,,,,,,,,,,,,,,,,,,,,,,,,,,,,,,,,,,,,,,,,,,,,,,,,,,,,,,,,,,,,,,,,,,,,,,,,,,,,,,,,,,,,,,,,,,
,,67869fc436295171deaa52c9,2026-03-17_13h18.59.481,kallum_motion_pilot_GIST_update_2,2026.1.1,Win32,29.94011976,67869fc436295171deaa52c9,69b92ab4aef6dee357cd729a,69b9386e3bc83edcc3c9d75f,0.1146,0.1147,0,24,24,107,1,sixeight,,,,,,,,,,,,,,,,,,,,,,,,,,,,,,,,,,,,,,,,,,,,,,,,,,,,,,,,,,,,,,,,,,,,,,,,,,,,,,,,,,,,,,,,,,,,,,,,,,,,,,,,,,,,,,,,,,,,,,,,,,,,,,,,,,,,,,,,,
,,67869fc436295171deaa52c9,2026-03-17_13h18.59.481,kallum_motion_pilot_GIST_update_2,2026.1.1,Win32,29.94011976,67869fc436295171deaa52c9,69b92ab4aef6dee357cd729a,69b9386e3bc83edcc3c9d75f,0.1151,0.1151,0,25,25,147,1,sixeight,,,,,,,,,,,,,,,,,,,,,,,,,,,,,,,,,,,,,,,,,,,,,,,,,,,,,,,,,,,,,,,,,,,,,,,,,,,,,,,,,,,,,,,,,,,,,,,,,,,,,,,,,,,,,,,,,,,,,,,,,,,,,,,,,,,,,,,,,
,,67869fc436295171deaa52c9,2026-03-17_13h18.59.481,kallum_motion_pilot_GIST_update_2,2026.1.1,Win32,29.94011976,67869fc436295171deaa52c9,69b92ab4aef6dee357cd729a,69b9386e3bc83edcc3c9d75f,0.1164,0.1164,0,26,26,80,1,fivesix,,,,,,,,,,,,,,,,,,,,,,,,,,,,,,,,,,,,,,,,,,,,,,,,,,,,,,,,,,,,,,,,,,,,,,,,,,,,,,,,,,,,,,,,,,,,,,,,,,,,,,,,,,,,,,,,,,,,,,,,,,,,,,,,,,,,,,,,,
,,67869fc436295171deaa52c9,2026-03-17_13h18.59.481,kallum_motion_pilot_GIST_update_2,2026.1.1,Win32,29.94011976,67869fc436295171deaa52c9,69b92ab4aef6dee357cd729a,69b9386e3bc83edcc3c9d75f,0.1171,0.1172,0,27,27,100,1,sevenfive,,,,,,,,,,,,,,,,,,,,,,,,,,,,,,,,,,,,,,,,,,,,,,,,,,,,,,,,,,,,,,,,,,,,,,,,,,,,,,,,,,,,,,,,,,,,,,,,,,,,,,,,,,,,,,,,,,,,,,,,,,,,,,,,,,,,,,,,,
,,67869fc436295171deaa52c9,2026-03-17_13h18.59.481,kallum_motion_pilot_GIST_update_2,2026.1.1,Win32,29.94011976,67869fc436295171deaa52c9,69b92ab4aef6dee357cd729a,69b9386e3bc83edcc3c9d75f,0.1177,0.1177,0,28,28,96,1,fivesix,,,,,,,,,,,,,,,,,,,,,,,,,,,,,,,,,,,,,,,,,,,,,,,,,,,,,,,,,,,,,,,,,,,,,,,,,,,,,,,,,,,,,,,,,,,,,,,,,,,,,,,,,,,,,,,,,,,,,,,,,,,,,,,,,,,,,,,,,
,,67869fc436295171deaa52c9,2026-03-17_13h18.59.481,kallum_motion_pilot_GIST_update_2,2026.1.1,Win32,29.94011976,67869fc436295171deaa52c9,69b92ab4aef6dee357cd729a,69b9386e3bc83edcc3c9d75f,0.118,0.1181,0,29,29,74,1,twoone,,,,,,,,,,,,,,,,,,,,,,,,,,,,,,,,,,,,,,,,,,,,,,,,,,,,,,,,,,,,,,,,,,,,,,,,,,,,,,,,,,,,,,,,,,,,,,,,,,,,,,,,,,,,,,,,,,,,,,,,,,,,,,,,,,,,,,,,,
,,67869fc436295171deaa52c9,2026-03-17_13h18.59.481,kallum_motion_pilot_GIST_update_2,2026.1.1,Win32,29.94011976,67869fc436295171deaa52c9,69b92ab4aef6dee357cd729a,69b9386e3bc83edcc3c9d75f,0.1184,0.1184,0,30,30,103,1,eightseven,,,,,,,,,,,,,,,,,,,,,,,,,,,,,,,,,,,,,,,,,,,,,,,,,,,,,,,,,,,,,,,,,,,,,,,,,,,,,,,,,,,,,,,,,,,,,,,,,,,,,,,,,,,,,,,,,,,,,,,,,,,,,,,,,,,,,,,,,
,,67869fc436295171deaa52c9,2026-03-17_13h18.59.481,kallum_motion_pilot_GIST_update_2,2026.1.1,Win32,29.94011976,67869fc436295171deaa52c9,69b92ab4aef6dee357cd729a,69b9386e3bc83edcc3c9d75f,0.1189,0.1189,0,31,31,86,1,eightsix,,,,,,,,,,,,,,,,,,,,,,,,,,,,,,,,,,,,,,,,,,,,,,,,,,,,,,,,,,,,,,,,,,,,,,,,,,,,,,,,,,,,,,,,,,,,,,,,,,,,,,,,,,,,,,,,,,,,,,,,,,,,,,,,,,,,,,,,,
,,67869fc436295171deaa52c9,2026-03-17_13h18.59.481,kallum_motion_pilot_GIST_update_2,2026.1.1,Win32,29.94011976,67869fc436295171deaa52c9,69b92ab4aef6dee357cd729a,69b9386e3bc83edcc3c9d75f,0.1193,0.1193,0,32,32,138,1,sixfive,,,,,,,,,,,,,,,,,,,,,,,,,,,,,,,,,,,,,,,,,,,,,,,,,,,,,,,,,,,,,,,,,,,,,,,,,,,,,,,,,,,,,,,,,,,,,,,,,,,,,,,,,,,,,,,,,,,,,,,,,,,,,,,,,,,,,,,,,
,,67869fc436295171deaa52c9,2026-03-17_13h18.59.481,kallum_motion_pilot_GIST_update_2,2026.1.1,Win32,29.94011976,67869fc436295171deaa52c9,69b92ab4aef6dee357cd729a,69b9386e3bc83edcc3c9d75f,0.1197,0.1198,0,33,33,70,1,fourtwo,,,,,,,,,,,,,,,,,,,,,,,,,,,,,,,,,,,,,,,,,,,,,,,,,,,,,,,,,,,,,,,,,,,,,,,,,,,,,,,,,,,,,,,,,,,,,,,,,,,,,,,,,,,,,,,,,,,,,,,,,,,,,,,,,,,,,,,,,
,,67869fc436295171deaa52c9,2026-03-17_13h18.59.481,kallum_motion_pilot_GIST_update_2,2026.1.1,Win32,29.94011976,67869fc436295171deaa52c9,69b92ab4aef6dee357cd729a,69b9386e3bc83edcc3c9d75f,0.1202,0.1202,0,34,34,77,1,threefour,,,,,,,,,,,,,,,,,,,,,,,,,,,,,,,,,,,,,,,,,,,,,,,,,,,,,,,,,,,,,,,,,,,,,,,,,,,,,,,,,,,,,,,,,,,,,,,,,,,,,,,,,,,,,,,,,,,,,,,,,,,,,,,,,,,,,,,,,
,,67869fc436295171deaa52c9,2026-03-17_13h18.59.481,kallum_motion_pilot_GIST_update_2,2026.1.1,Win32,29.94011976,67869fc436295171deaa52c9,69b92ab4aef6dee357cd729a,69b9386e3bc83edcc3c9d75f,0.1205,0.1206,0,35,35,14,1,fourtwo,,,,,,,,,,,,,,,,,,,,,,,,,,,,,,,,,,,,,,,,,,,,,,,,,,,,,,,,,,,,,,,,,,,,,,,,,,,,,,,,,,,,,,,,,,,,,,,,,,,,,,,,,,,,,,,,,,,,,,,,,,,,,,,,,,,,,,,,,
,,67869fc436295171deaa52c9,2026-03-17_13h18.59.481,kallum_motion_pilot_GIST_update_2,2026.1.1,Win32,29.94011976,67869fc436295171deaa52c9,69b92ab4aef6dee357cd729a,69b9386e3bc83edcc3c9d75f,0.121,0.1211,0,36,36,118,1,eightsix,,,,,,,,,,,,,,,,,,,,,,,,,,,,,,,,,,,,,,,,,,,,,,,,,,,,,,,,,,,,,,,,,,,,,,,,,,,,,,,,,,,,,,,,,,,,,,,,,,,,,,,,,,,,,,,,,,,,,,,,,,,,,,,,,,,,,,,,,
,,67869fc436295171deaa52c9,2026-03-17_13h18.59.481,kallum_motion_pilot_GIST_update_2,2026.1.1,Win32,29.94011976,67869fc436295171deaa52c9,69b92ab4aef6dee357cd729a,69b9386e3bc83edcc3c9d75f,0.1214,0.1214,0,37,37,106,1,sixfive,,,,,,,,,,,,,,,,,,,,,,,,,,,,,,,,,,,,,,,,,,,,,,,,,,,,,,,,,,,,,,,,,,,,,,,,,,,,,,,,,,,,,,,,,,,,,,,,,,,,,,,,,,,,,,,,,,,,,,,,,,,,,,,,,,,,,,,,,
,,67869fc436295171deaa52c9,2026-03-17_13h18.59.481,kallum_motion_pilot_GIST_update_2,2026.1.1,Win32,29.94011976,67869fc436295171deaa52c9,69b92ab4aef6dee357cd729a,69b9386e3bc83edcc3c9d75f,0.1221,0.1221,0,38,38,93,1,seveneight,,,,,,,,,,,,,,,,,,,,,,,,,,,,,,,,,,,,,,,,,,,,,,,,,,,,,,,,,,,,,,,,,,,,,,,,,,,,,,,,,,,,,,,,,,,,,,,,,,,,,,,,,,,,,,,,,,,,,,,,,,,,,,,,,,,,,,,,,
,,67869fc436295171deaa52c9,2026-03-17_13h18.59.481,kallum_motion_pilot_GIST_update_2,2026.1.1,Win32,29.94011976,67869fc436295171deaa52c9,69b92ab4aef6dee357cd729a,69b9386e3bc83edcc3c9d75f,0.1225,0.1226,0,39,39,56,1,onetwo,,,,,,,,,,,,,,,,,,,,,,,,,,,,,,,,,,,,,,,,,,,,,,,,,,,,,,,,,,,,,,,,,,,,,,,,,,,,,,,,,,,,,,,,,,,,,,,,,,,,,,,,,,,,,,,,,,,,,,,,,,,,,,,,,,,,,,,,,
,,67869fc436295171deaa52c9,2026-03-17_13h18.59.481,kallum_motion_pilot_GIST_update_2,2026.1.1,Win32,29.94011976,67869fc436295171deaa52c9,69b92ab4aef6dee357cd729a,69b9386e3bc83edcc3c9d75f,0.1233,0.1233,0,40,40,108,1,sevenfive,,,,,,,,,,,,,,,,,,,,,,,,,,,,,,,,,,,,,,,,,,,,,,,,,,,,,,,,,,,,,,,,,,,,,,,,,,,,,,,,,,,,,,,,,,,,,,,,,,,,,,,,,,,,,,,,,,,,,,,,,,,,,,,,,,,,,,,,,
,,67869fc436295171deaa52c9,2026-03-17_13h18.59.481,kallum_motion_pilot_GIST_update_2,2026.1.1,Win32,29.94011976,67869fc436295171deaa52c9,69b92ab4aef6dee357cd729a,69b9386e3bc83edcc3c9d75f,0.1238,0.1238,0,41,41,27,1,twofour,,,,,,,,,,,,,,,,,,,,,,,,,,,,,,,,,,,,,,,,,,,,,,,,,,,,,,,,,,,,,,,,,,,,,,,,,,,,,,,,,,,,,,,,,,,,,,,,,,,,,,,,,,,,,,,,,,,,,,,,,,,,,,,,,,,,,,,,,
,,67869fc436295171deaa52c9,2026-03-17_13h18.59.481,kallum_motion_pilot_GIST_update_2,2026.1.1,Win32,29.94011976,67869fc436295171deaa52c9,69b92ab4aef6dee357cd729a,69b9386e3bc83edcc3c9d75f,0.1242,0.1243,0,42,42,129,1,fiveseven,,,,,,,,,,,,,,,,,,,,,,,,,,,,,,,,,,,,,,,,,,,,,,,,,,,,,,,,,,,,,,,,,,,,,,,,,,,,,,,,,,,,,,,,,,,,,,,,,,,,,,,,,,,,,,,,,,,,,,,,,,,,,,,,,,,,,,,,,
,,67869fc436295171deaa52c9,2026-03-17_13h18.59.481,kallum_motion_pilot_GIST_update_2,2026.1.1,Win32,29.94011976,67869fc436295171deaa52c9,69b92ab4aef6dee357cd729a,69b9386e3bc83edcc3c9d75f,0.1247,0.1247,0,43,43,115,1,sixeight,,,,,,,,,,,,,,,,,,,,,,,,,,,,,,,,,,,,,,,,,,,,,,,,,,,,,,,,,,,,,,,,,,,,,,,,,,,,,,,,,,,,,,,,,,,,,,,,,,,,,,,,,,,,,,,,,,,,,,,,,,,,,,,,,,,,,,,,,
,,67869fc436295171deaa52c9,2026-03-17_13h18.59.481,kallum_motion_pilot_GIST_update_2,2026.1.1,Win32,29.94011976,67869fc436295171deaa52c9,69b92ab4aef6dee357cd729a,69b9386e3bc83edcc3c9d75f,0.1251,0.1251,0,44,44,151,1,eightseven,,,,,,,,,,,,,,,,,,,,,,,,,,,,,,,,,,,,,,,,,,,,,,,,,,,,,,,,,,,,,,,,,,,,,,,,,,,,,,,,,,,,,,,,,,,,,,,,,,,,,,,,,,,,,,,,,,,,,,,,,,,,,,,,,,,,,,,,,
,,67869fc436295171deaa52c9,2026-03-17_13h18.59.481,kallum_motion_pilot_GIST_update_2,2026.1.1,Win32,29.94011976,67869fc436295171deaa52c9,69b92ab4aef6dee357cd729a,69b9386e3bc83edcc3c9d75f,0.1255,0.1255,0,45,45,155,1,sixeight,,,,,,,,,,,,,,,,,,,,,,,,,,,,,,,,,,,,,,,,,,,,,,,,,,,,,,,,,,,,,,,,,,,,,,,,,,,,,,,,,,,,,,,,,,,,,,,,,,,,,,,,,,,,,,,,,,,,,,,,,,,,,,,,,,,,,,,,,
,,67869fc436295171deaa52c9,2026-03-17_13h18.59.481,kallum_motion_pilot_GIST_update_2,2026.1.1,Win32,29.94011976,67869fc436295171deaa52c9,69b92ab4aef6dee357cd729a,69b9386e3bc83edcc3c9d75f,0.1259,0.1259,0,46,46,140,1,sevenfive,,,,,,,,,,,,,,,,,,,,,,,,,,,,,,,,,,,,,,,,,,,,,,,,,,,,,,,,,,,,,,,,,,,,,,,,,,,,,,,,,,,,,,,,,,,,,,,,,,,,,,,,,,,,,,,,,,,,,,,,,,,,,,,,,,,,,,,,,
,,67869fc436295171deaa52c9,2026-03-17_13h18.59.481,kallum_motion_pilot_GIST_update_2,2026.1.1,Win32,29.94011976,67869fc436295171deaa52c9,69b92ab4aef6dee357cd729a,69b9386e3bc83edcc3c9d75f,0.1265,0.1265,0,47,47,78,1,fourtwo,,,,,,,,,,,,,,,,,,,,,,,,,,,,,,,,,,,,,,,,,,,,,,,,,,,,,,,,,,,,,,,,,,,,,,,,,,,,,,,,,,,,,,,,,,,,,,,,,,,,,,,,,,,,,,,,,,,,,,,,,,,,,,,,,,,,,,,,,
,,67869fc436295171deaa52c9,2026-03-17_13h18.59.481,kallum_motion_pilot_GIST_update_2,2026.1.1,Win32,29.94011976,67869fc436295171deaa52c9,69b92ab4aef6dee357cd729a,69b9386e3bc83edcc3c9d75f,0.1272,0.1272,0,48,48,48,1,onetwo,,,,,,,,,,,,,,,,,,,,,,,,,,,,,,,,,,,,,,,,,,,,,,,,,,,,,,,,,,,,,,,,,,,,,,,,,,,,,,,,,,,,,,,,,,,,,,,,,,,,,,,,,,,,,,,,,,,,,,,,,,,,,,,,,,,,,,,,,
,,67869fc436295171deaa52c9,2026-03-17_13h18.59.481,kallum_motion_pilot_GIST_update_2,2026.1.1,Win32,29.94011976,67869fc436295171deaa52c9,69b92ab4aef6dee357cd729a,69b9386e3bc83edcc3c9d75f,0.1277,0.1278,0,49,49,85,1,seveneight,,,,,,,,,,,,,,,,,,,,,,,,,,,,,,,,,,,,,,,,,,,,,,,,,,,,,,,,,,,,,,,,,,,,,,,,,,,,,,,,,,,,,,,,,,,,,,,,,,,,,,,,,,,,,,,,,,,,,,,,,,,,,,,,,,,,,,,,,
,,67869fc436295171deaa52c9,2026-03-17_13h18.59.481,kallum_motion_pilot_GIST_update_2,2026.1.1,Win32,29.94011976,67869fc436295171deaa52c9,69b92ab4aef6dee357cd729a,69b9386e3bc83edcc3c9d75f,0.1282,0.1282,0,50,50,4,1,threeone,,,,,,,,,,,,,,,,,,,,,,,,,,,,,,,,,,,,,,,,,,,,,,,,,,,,,,,,,,,,,,,,,,,,,,,,,,,,,,,,,,,,,,,,,,,,,,,,,,,,,,,,,,,,,,,,,,,,,,,,,,,,,,,,,,,,,,,,,
,,67869fc436295171deaa52c9,2026-03-17_13h18.59.481,kallum_motion_pilot_GIST_update_2,2026.1.1,Win32,29.94011976,67869fc436295171deaa52c9,69b92ab4aef6dee357cd729a,69b9386e3bc83edcc3c9d75f,0.1288,0.1288,0,51,51,37,1,threefour,,,,,,,,,,,,,,,,,,,,,,,,,,,,,,,,,,,,,,,,,,,,,,,,,,,,,,,,,,,,,,,,,,,,,,,,,,,,,,,,,,,,,,,,,,,,,,,,,,,,,,,,,,,,,,,,,,,,,,,,,,,,,,,,,,,,,,,,,
,,67869fc436295171deaa52c9,2026-03-17_13h18.59.481,kallum_motion_pilot_GIST_update_2,2026.1.1,Win32,29.94011976,67869fc436295171deaa52c9,69b92ab4aef6dee357cd729a,69b9386e3bc83edcc3c9d75f,0.1293,0.1293,0,52,52,99,1,sixeight,,,,,,,,,,,,,,,,,,,,,,,,,,,,,,,,,,,,,,,,,,,,,,,,,,,,,,,,,,,,,,,,,,,,,,,,,,,,,,,,,,,,,,,,,,,,,,,,,,,,,,,,,,,,,,,,,,,,,,,,,,,,,,,,,,,,,,,,,
,,67869fc436295171deaa52c9,2026-03-17_13h18.59.481,kallum_motion_pilot_GIST_update_2,2026.1.1,Win32,29.94011976,67869fc436295171deaa52c9,69b92ab4aef6dee357cd729a,69b9386e3bc83edcc3c9d75f,0.1298,0.1298,0,53,53,84,1,sevenfive,,,,,,,,,,,,,,,,,,,,,,,,,,,,,,,,,,,,,,,,,,,,,,,,,,,,,,,,,,,,,,,,,,,,,,,,,,,,,,,,,,,,,,,,,,,,,,,,,,,,,,,,,,,,,,,,,,,,,,,,,,,,,,,,,,,,,,,,,
,,67869fc436295171deaa52c9,2026-03-17_13h18.59.481,kallum_motion_pilot_GIST_update_2,2026.1.1,Win32,29.94011976,67869fc436295171deaa52c9,69b92ab4aef6dee357cd729a,69b9386e3bc83edcc3c9d75f,0.1304,0.1305,0,54,54,42,1,twoone,,,,,,,,,,,,,,,,,,,,,,,,,,,,,,,,,,,,,,,,,,,,,,,,,,,,,,,,,,,,,,,,,,,,,,,,,,,,,,,,,,,,,,,,,,,,,,,,,,,,,,,,,,,,,,,,,,,,,,,,,,,,,,,,,,,,,,,,,
,,67869fc436295171deaa52c9,2026-03-17_13h18.59.481,kallum_motion_pilot_GIST_update_2,2026.1.1,Win32,29.94011976,67869fc436295171deaa52c9,69b92ab4aef6dee357cd729a,69b9386e3bc83edcc3c9d75f,0.131,0.131,0,55,55,58,1,twoone,,,,,,,,,,,,,,,,,,,,,,,,,,,,,,,,,,,,,,,,,,,,,,,,,,,,,,,,,,,,,,,,,,,,,,,,,,,,,,,,,,,,,,,,,,,,,,,,,,,,,,,,,,,,,,,,,,,,,,,,,,,,,,,,,,,,,,,,,
,,67869fc436295171deaa52c9,2026-03-17_13h18.59.481,kallum_motion_pilot_GIST_update_2,2026.1.1,Win32,29.94011976,67869fc436295171deaa52c9,69b92ab4aef6dee357cd729a,69b9386e3bc83edcc3c9d75f,0.1332,0.1333,0,56,56,59,1,twofour,,,,,,,,,,,,,,,,,,,,,,,,,,,,,,,,,,,,,,,,,,,,,,,,,,,,,,,,,,,,,,,,,,,,,,,,,,,,,,,,,,,,,,,,,,,,,,,,,,,,,,,,,,,,,,,,,,,,,,,,,,,,,,,,,,,,,,,,,
,,67869fc436295171deaa52c9,2026-03-17_13h18.59.481,kallum_motion_pilot_GIST_update_2,2026.1.1,Win32,29.94011976,67869fc436295171deaa52c9,69b92ab4aef6dee357cd729a,69b9386e3bc83edcc3c9d75f,0.1341,0.1342,0,57,57,20,1,threeone,,,,,,,,,,,,,,,,,,,,,,,,,,,,,,,,,,,,,,,,,,,,,,,,,,,,,,,,,,,,,,,,,,,,,,,,,,,,,,,,,,,,,,,,,,,,,,,,,,,,,,,,,,,,,,,,,,,,,,,,,,,,,,,,,,,,,,,,,
,,67869fc436295171deaa52c9,2026-03-17_13h18.59.481,kallum_motion_pilot_GIST_update_2,2026.1.1,Win32,29.94011976,67869fc436295171deaa52c9,69b92ab4aef6dee357cd729a,69b9386e3bc83edcc3c9d75f,0.1349,0.1349,0,58,58,75,1,twofour,,,,,,,,,,,,,,,,,,,,,,,,,,,,,,,,,,,,,,,,,,,,,,,,,,,,,,,,,,,,,,,,,,,,,,,,,,,,,,,,,,,,,,,,,,,,,,,,,,,,,,,,,,,,,,,,,,,,,,,,,,,,,,,,,,,,,,,,,
,,67869fc436295171deaa52c9,2026-03-17_13h18.59.481,kallum_motion_pilot_GIST_update_2,2026.1.1,Win32,29.94011976,67869fc436295171deaa52c9,69b92ab4aef6dee357cd729a,69b9386e3bc83edcc3c9d75f,0.1355,0.1356,0,59,59,139,1,sixeight,,,,,,,,,,,,,,,,,,,,,,,,,,,,,,,,,,,,,,,,,,,,,,,,,,,,,,,,,,,,,,,,,,,,,,,,,,,,,,,,,,,,,,,,,,,,,,,,,,,,,,,,,,,,,,,,,,,,,,,,,,,,,,,,,,,,,,,,,
,,67869fc436295171deaa52c9,2026-03-17_13h18.59.481,kallum_motion_pilot_GIST_update_2,2026.1.1,Win32,29.94011976,67869fc436295171deaa52c9,69b92ab4aef6dee357cd729a,69b9386e3bc83edcc3c9d75f,0.136,0.136,0,60,60,34,1,twoone,,,,,,,,,,,,,,,,,,,,,,,,,,,,,,,,,,,,,,,,,,,,,,,,,,,,,,,,,,,,,,,,,,,,,,,,,,,,,,,,,,,,,,,,,,,,,,,,,,,,,,,,,,,,,,,,,,,,,,,,,,,,,,,,,,,,,,,,,
,,67869fc436295171deaa52c9,2026-03-17_13h18.59.481,kallum_motion_pilot_GIST_update_2,2026.1.1,Win32,29.94011976,67869fc436295171deaa52c9,69b92ab4aef6dee357cd729a,69b9386e3bc83edcc3c9d75f,0.1365,0.1365,0,61,61,132,1,sevenfive,,,,,,,,,,,,,,,,,,,,,,,,,,,,,,,,,,,,,,,,,,,,,,,,,,,,,,,,,,,,,,,,,,,,,,,,,,,,,,,,,,,,,,,,,,,,,,,,,,,,,,,,,,,,,,,,,,,,,,,,,,,,,,,,,,,,,,,,,
,,67869fc436295171deaa52c9,2026-03-17_13h18.59.481,kallum_motion_pilot_GIST_update_2,2026.1.1,Win32,29.94011976,67869fc436295171deaa52c9,69b92ab4aef6dee357cd729a,69b9386e3bc83edcc3c9d75f,0.1372,0.1372,0,62,62,150,1,eightsix,,,,,,,,,,,,,,,,,,,,,,,,,,,,,,,,,,,,,,,,,,,,,,,,,,,,,,,,,,,,,,,,,,,,,,,,,,,,,,,,,,,,,,,,,,,,,,,,,,,,,,,,,,,,,,,,,,,,,,,,,,,,,,,,,,,,,,,,,
,,67869fc436295171deaa52c9,2026-03-17_13h18.59.481,kallum_motion_pilot_GIST_update_2,2026.1.1,Win32,29.94011976,67869fc436295171deaa52c9,69b92ab4aef6dee357cd729a,69b9386e3bc83edcc3c9d75f,0.1379,0.138,0,63,63,38,1,fourtwo,,,,,,,,,,,,,,,,,,,,,,,,,,,,,,,,,,,,,,,,,,,,,,,,,,,,,,,,,,,,,,,,,,,,,,,,,,,,,,,,,,,,,,,,,,,,,,,,,,,,,,,,,,,,,,,,,,,,,,,,,,,,,,,,,,,,,,,,,
,,67869fc436295171deaa52c9,2026-03-17_13h18.59.481,kallum_motion_pilot_GIST_update_2,2026.1.1,Win32,29.94011976,67869fc436295171deaa52c9,69b92ab4aef6dee357cd729a,69b9386e3bc83edcc3c9d75f,0.1386,0.1386,0,64,64,87,1,eightseven,,,,,,,,,,,,,,,,,,,,,,,,,,,,,,,,,,,,,,,,,,,,,,,,,,,,,,,,,,,,,,,,,,,,,,,,,,,,,,,,,,,,,,,,,,,,,,,,,,,,,,,,,,,,,,,,,,,,,,,,,,,,,,,,,,,,,,,,,
,,67869fc436295171deaa52c9,2026-03-17_13h18.59.481,kallum_motion_pilot_GIST_update_2,2026.1.1,Win32,29.94011976,67869fc436295171deaa52c9,69b92ab4aef6dee357cd729a,69b9386e3bc83edcc3c9d75f,0.139,0.1391,0,65,65,88,1,fivesix,,,,,,,,,,,,,,,,,,,,,,,,,,,,,,,,,,,,,,,,,,,,,,,,,,,,,,,,,,,,,,,,,,,,,,,,,,,,,,,,,,,,,,,,,,,,,,,,,,,,,,,,,,,,,,,,,,,,,,,,,,,,,,,,,,,,,,,,,
,,67869fc436295171deaa52c9,2026-03-17_13h18.59.481,kallum_motion_pilot_GIST_update_2,2026.1.1,Win32,29.94011976,67869fc436295171deaa52c9,69b92ab4aef6dee357cd729a,69b9386e3bc83edcc3c9d75f,0.14,0.14,0,66,66,79,1,eightseven,,,,,,,,,,,,,,,,,,,,,,,,,,,,,,,,,,,,,,,,,,,,,,,,,,,,,,,,,,,,,,,,,,,,,,,,,,,,,,,,,,,,,,,,,,,,,,,,,,,,,,,,,,,,,,,,,,,,,,,,,,,,,,,,,,,,,,,,,
,,67869fc436295171deaa52c9,2026-03-17_13h18.59.481,kallum_motion_pilot_GIST_update_2,2026.1.1,Win32,29.94011976,67869fc436295171deaa52c9,69b92ab4aef6dee357cd729a,69b9386e3bc83edcc3c9d75f,0.1407,0.1407,0,67,67,18,1,twoone,,,,,,,,,,,,,,,,,,,,,,,,,,,,,,,,,,,,,,,,,,,,,,,,,,,,,,,,,,,,,,,,,,,,,,,,,,,,,,,,,,,,,,,,,,,,,,,,,,,,,,,,,,,,,,,,,,,,,,,,,,,,,,,,,,,,,,,,,
,,67869fc436295171deaa52c9,2026-03-17_13h18.59.481,kallum_motion_pilot_GIST_update_2,2026.1.1,Win32,29.94011976,67869fc436295171deaa52c9,69b92ab4aef6dee357cd729a,69b9386e3bc83edcc3c9d75f,0.1415,0.1416,0,68,68,11,1,twofour,,,,,,,,,,,,,,,,,,,,,,,,,,,,,,,,,,,,,,,,,,,,,,,,,,,,,,,,,,,,,,,,,,,,,,,,,,,,,,,,,,,,,,,,,,,,,,,,,,,,,,,,,,,,,,,,,,,,,,,,,,,,,,,,,,,,,,,,,
,,67869fc436295171deaa52c9,2026-03-17_13h18.59.481,kallum_motion_pilot_GIST_update_2,2026.1.1,Win32,29.94011976,67869fc436295171deaa52c9,69b92ab4aef6dee357cd729a,69b9386e3bc83edcc3c9d75f,0.1425,0.1425,0,69,69,55,1,fourthree,,,,,,,,,,,,,,,,,,,,,,,,,,,,,,,,,,,,,,,,,,,,,,,,,,,,,,,,,,,,,,,,,,,,,,,,,,,,,,,,,,,,,,,,,,,,,,,,,,,,,,,,,,,,,,,,,,,,,,,,,,,,,,,,,,,,,,,,,
,,67869fc436295171deaa52c9,2026-03-17_13h18.59.481,kallum_motion_pilot_GIST_update_2,2026.1.1,Win32,29.94011976,67869fc436295171deaa52c9,69b92ab4aef6dee357cd729a,69b9386e3bc83edcc3c9d75f,0.1435,0.1436,0,70,70,126,1,eightsix,,,,,,,,,,,,,,,,,,,,,,,,,,,,,,,,,,,,,,,,,,,,,,,,,,,,,,,,,,,,,,,,,,,,,,,,,,,,,,,,,,,,,,,,,,,,,,,,,,,,,,,,,,,,,,,,,,,,,,,,,,,,,,,,,,,,,,,,,
,,67869fc436295171deaa52c9,2026-03-17_13h18.59.481,kallum_motion_pilot_GIST_update_2,2026.1.1,Win32,29.94011976,67869fc436295171deaa52c9,69b92ab4aef6dee357cd729a,69b9386e3bc83edcc3c9d75f,0.1441,0.1441,0,71,71,36,1,threeone,,,,,,,,,,,,,,,,,,,,,,,,,,,,,,,,,,,,,,,,,,,,,,,,,,,,,,,,,,,,,,,,,,,,,,,,,,,,,,,,,,,,,,,,,,,,,,,,,,,,,,,,,,,,,,,,,,,,,,,,,,,,,,,,,,,,,,,,,
,,67869fc436295171deaa52c9,2026-03-17_13h18.59.481,kallum_motion_pilot_GIST_update_2,2026.1.1,Win32,29.94011976,67869fc436295171deaa52c9,69b92ab4aef6dee357cd729a,69b9386e3bc83edcc3c9d75f,0.1446,0.1447,0,72,72,141,1,seveneight,,,,,,,,,,,,,,,,,,,,,,,,,,,,,,,,,,,,,,,,,,,,,,,,,,,,,,,,,,,,,,,,,,,,,,,,,,,,,,,,,,,,,,,,,,,,,,,,,,,,,,,,,,,,,,,,,,,,,,,,,,,,,,,,,,,,,,,,,
,,67869fc436295171deaa52c9,2026-03-17_13h18.59.481,kallum_motion_pilot_GIST_update_2,2026.1.1,Win32,29.94011976,67869fc436295171deaa52c9,69b92ab4aef6dee357cd729a,69b9386e3bc83edcc3c9d75f,0.1451,0.1455,0,73,73,43,1,twofour,,,,,,,,,,,,,,,,,,,,,,,,,,,,,,,,,,,,,,,,,,,,,,,,,,,,,,,,,,,,,,,,,,,,,,,,,,,,,,,,,,,,,,,,,,,,,,,,,,,,,,,,,,,,,,,,,,,,,,,,,,,,,,,,,,,,,,,,,
,,67869fc436295171deaa52c9,2026-03-17_13h18.59.481,kallum_motion_pilot_GIST_update_2,2026.1.1,Win32,29.94011976,67869fc436295171deaa52c9,69b92ab4aef6dee357cd729a,69b9386e3bc83edcc3c9d75f,0.1459,0.1459,0,74,74,128,1,fivesix,,,,,,,,,,,,,,,,,,,,,,,,,,,,,,,,,,,,,,,,,,,,,,,,,,,,,,,,,,,,,,,,,,,,,,,,,,,,,,,,,,,,,,,,,,,,,,,,,,,,,,,,,,,,,,,,,,,,,,,,,,,,,,,,,,,,,,,,,
,,67869fc436295171deaa52c9,2026-03-17_13h18.59.481,kallum_motion_pilot_GIST_update_2,2026.1.1,Win32,29.94011976,67869fc436295171deaa52c9,69b92ab4aef6dee357cd729a,69b9386e3bc83edcc3c9d75f,0.1465,0.1465,0,75,75,53,1,threefour,,,,,,,,,,,,,,,,,,,,,,,,,,,,,,,,,,,,,,,,,,,,,,,,,,,,,,,,,,,,,,,,,,,,,,,,,,,,,,,,,,,,,,,,,,,,,,,,,,,,,,,,,,,,,,,,,,,,,,,,,,,,,,,,,,,,,,,,,
,,67869fc436295171deaa52c9,2026-03-17_13h18.59.481,kallum_motion_pilot_GIST_update_2,2026.1.1,Win32,29.94011976,67869fc436295171deaa52c9,69b92ab4aef6dee357cd729a,69b9386e3bc83edcc3c9d75f,0.1468,0.1469,0,76,76,5,1,threefour,,,,,,,,,,,,,,,,,,,,,,,,,,,,,,,,,,,,,,,,,,,,,,,,,,,,,,,,,,,,,,,,,,,,,,,,,,,,,,,,,,,,,,,,,,,,,,,,,,,,,,,,,,,,,,,,,,,,,,,,,,,,,,,,,,,,,,,,,
,,67869fc436295171deaa52c9,2026-03-17_13h18.59.481,kallum_motion_pilot_GIST_update_2,2026.1.1,Win32,29.94011976,67869fc436295171deaa52c9,69b92ab4aef6dee357cd729a,69b9386e3bc83edcc3c9d75f,0.1476,0.1476,0,77,77,31,1,fourthree,,,,,,,,,,,,,,,,,,,,,,,,,,,,,,,,,,,,,,,,,,,,,,,,,,,,,,,,,,,,,,,,,,,,,,,,,,,,,,,,,,,,,,,,,,,,,,,,,,,,,,,,,,,,,,,,,,,,,,,,,,,,,,,,,,,,,,,,,
,,67869fc436295171deaa52c9,2026-03-17_13h18.59.481,kallum_motion_pilot_GIST_update_2,2026.1.1,Win32,29.94011976,67869fc436295171deaa52c9,69b92ab4aef6dee357cd729a,69b9386e3bc83edcc3c9d75f,0.1482,0.1482,0,78,78,137,1,fiveseven,,,,,,,,,,,,,,,,,,,,,,,,,,,,,,,,,,,,,,,,,,,,,,,,,,,,,,,,,,,,,,,,,,,,,,,,,,,,,,,,,,,,,,,,,,,,,,,,,,,,,,,,,,,,,,,,,,,,,,,,,,,,,,,,,,,,,,,,,
,,67869fc436295171deaa52c9,2026-03-17_13h18.59.481,kallum_motion_pilot_GIST_update_2,2026.1.1,Win32,29.94011976,67869fc436295171deaa52c9,69b92ab4aef6dee357cd729a,69b9386e3bc83edcc3c9d75f,0.1487,0.1488,0,79,79,47,1,fourthree,,,,,,,,,,,,,,,,,,,,,,,,,,,,,,,,,,,,,,,,,,,,,,,,,,,,,,,,,,,,,,,,,,,,,,,,,,,,,,,,,,,,,,,,,,,,,,,,,,,,,,,,,,,,,,,,,,,,,,,,,,,,,,,,,,,,,,,,,
,,67869fc436295171deaa52c9,2026-03-17_13h18.59.481,kallum_motion_pilot_GIST_update_2,2026.1.1,Win32,29.94011976,67869fc436295171deaa52c9,69b92ab4aef6dee357cd729a,69b9386e3bc83edcc3c9d75f,0.1499,0.1499,0,80,80,49,1,onethree,,,,,,,,,,,,,,,,,,,,,,,,,,,,,,,,,,,,,,,,,,,,,,,,,,,,,,,,,,,,,,,,,,,,,,,,,,,,,,,,,,,,,,,,,,,,,,,,,,,,,,,,,,,,,,,,,,,,,,,,,,,,,,,,,,,,,,,,,
,,67869fc436295171deaa52c9,2026-03-17_13h18.59.481,kallum_motion_pilot_GIST_update_2,2026.1.1,Win32,29.94011976,67869fc436295171deaa52c9,69b92ab4aef6dee357cd729a,69b9386e3bc83edcc3c9d75f,0.1507,0.1508,0,81,81,44,1,threeone,,,,,,,,,,,,,,,,,,,,,,,,,,,,,,,,,,,,,,,,,,,,,,,,,,,,,,,,,,,,,,,,,,,,,,,,,,,,,,,,,,,,,,,,,,,,,,,,,,,,,,,,,,,,,,,,,,,,,,,,,,,,,,,,,,,,,,,,,
,,67869fc436295171deaa52c9,2026-03-17_13h18.59.481,kallum_motion_pilot_GIST_update_2,2026.1.1,Win32,29.94011976,67869fc436295171deaa52c9,69b92ab4aef6dee357cd729a,69b9386e3bc83edcc3c9d75f,0.1512,0.1514,0,82,82,112,1,fivesix,,,,,,,,,,,,,,,,,,,,,,,,,,,,,,,,,,,,,,,,,,,,,,,,,,,,,,,,,,,,,,,,,,,,,,,,,,,,,,,,,,,,,,,,,,,,,,,,,,,,,,,,,,,,,,,,,,,,,,,,,,,,,,,,,,,,,,,,,
,,67869fc436295171deaa52c9,2026-03-17_13h18.59.481,kallum_motion_pilot_GIST_update_2,2026.1.1,Win32,29.94011976,67869fc436295171deaa52c9,69b92ab4aef6dee357cd729a,69b9386e3bc83edcc3c9d75f,0.1518,0.1519,0,83,83,0,1,onetwo,,,,,,,,,,,,,,,,,,,,,,,,,,,,,,,,,,,,,,,,,,,,,,,,,,,,,,,,,,,,,,,,,,,,,,,,,,,,,,,,,,,,,,,,,,,,,,,,,,,,,,,,,,,,,,,,,,,,,,,,,,,,,,,,,,,,,,,,,
,,67869fc436295171deaa52c9,2026-03-17_13h18.59.481,kallum_motion_pilot_GIST_update_2,2026.1.1,Win32,29.94011976,67869fc436295171deaa52c9,69b92ab4aef6dee357cd729a,69b9386e3bc83edcc3c9d75f,0.153,0.153,0,84,84,45,1,threefour,,,,,,,,,,,,,,,,,,,,,,,,,,,,,,,,,,,,,,,,,,,,,,,,,,,,,,,,,,,,,,,,,,,,,,,,,,,,,,,,,,,,,,,,,,,,,,,,,,,,,,,,,,,,,,,,,,,,,,,,,,,,,,,,,,,,,,,,,
,,67869fc436295171deaa52c9,2026-03-17_13h18.59.481,kallum_motion_pilot_GIST_update_2,2026.1.1,Win32,29.94011976,67869fc436295171deaa52c9,69b92ab4aef6dee357cd729a,69b9386e3bc83edcc3c9d75f,0.1536,0.1536,0,85,85,91,1,sixeight,,,,,,,,,,,,,,,,,,,,,,,,,,,,,,,,,,,,,,,,,,,,,,,,,,,,,,,,,,,,,,,,,,,,,,,,,,,,,,,,,,,,,,,,,,,,,,,,,,,,,,,,,,,,,,,,,,,,,,,,,,,,,,,,,,,,,,,,,
,,67869fc436295171deaa52c9,2026-03-17_13h18.59.481,kallum_motion_pilot_GIST_update_2,2026.1.1,Win32,29.94011976,67869fc436295171deaa52c9,69b92ab4aef6dee357cd729a,69b9386e3bc83edcc3c9d75f,0.1542,0.1542,0,86,86,9,1,onethree,,,,,,,,,,,,,,,,,,,,,,,,,,,,,,,,,,,,,,,,,,,,,,,,,,,,,,,,,,,,,,,,,,,,,,,,,,,,,,,,,,,,,,,,,,,,,,,,,,,,,,,,,,,,,,,,,,,,,,,,,,,,,,,,,,,,,,,,,
,,67869fc436295171deaa52c9,2026-03-17_13h18.59.481,kallum_motion_pilot_GIST_update_2,2026.1.1,Win32,29.94011976,67869fc436295171deaa52c9,69b92ab4aef6dee357cd729a,69b9386e3bc83edcc3c9d75f,0.1546,0.1547,0,87,87,83,1,sixeight,,,,,,,,,,,,,,,,,,,,,,,,,,,,,,,,,,,,,,,,,,,,,,,,,,,,,,,,,,,,,,,,,,,,,,,,,,,,,,,,,,,,,,,,,,,,,,,,,,,,,,,,,,,,,,,,,,,,,,,,,,,,,,,,,,,,,,,,,
,,67869fc436295171deaa52c9,2026-03-17_13h18.59.481,kallum_motion_pilot_GIST_update_2,2026.1.1,Win32,29.94011976,67869fc436295171deaa52c9,69b92ab4aef6dee357cd729a,69b9386e3bc83edcc3c9d75f,0.1555,0.1556,0,88,88,109,1,seveneight,,,,,,,,,,,,,,,,,,,,,,,,,,,,,,,,,,,,,,,,,,,,,,,,,,,,,,,,,,,,,,,,,,,,,,,,,,,,,,,,,,,,,,,,,,,,,,,,,,,,,,,,,,,,,,,,,,,,,,,,,,,,,,,,,,,,,,,,,
,,67869fc436295171deaa52c9,2026-03-17_13h18.59.481,kallum_motion_pilot_GIST_update_2,2026.1.1,Win32,29.94011976,67869fc436295171deaa52c9,69b92ab4aef6dee357cd729a,69b9386e3bc83edcc3c9d75f,0.1562,0.1563,0,89,89,54,1,fourtwo,,,,,,,,,,,,,,,,,,,,,,,,,,,,,,,,,,,,,,,,,,,,,,,,,,,,,,,,,,,,,,,,,,,,,,,,,,,,,,,,,,,,,,,,,,,,,,,,,,,,,,,,,,,,,,,,,,,,,,,,,,,,,,,,,,,,,,,,,
,,67869fc436295171deaa52c9,2026-03-17_13h18.59.481,kallum_motion_pilot_GIST_update_2,2026.1.1,Win32,29.94011976,67869fc436295171deaa52c9,69b92ab4aef6dee357cd729a,69b9386e3bc83edcc3c9d75f,0.1567,0.1568,0,90,90,12,1,threeone,,,,,,,,,,,,,,,,,,,,,,,,,,,,,,,,,,,,,,,,,,,,,,,,,,,,,,,,,,,,,,,,,,,,,,,,,,,,,,,,,,,,,,,,,,,,,,,,,,,,,,,,,,,,,,,,,,,,,,,,,,,,,,,,,,,,,,,,,
,,67869fc436295171deaa52c9,2026-03-17_13h18.59.481,kallum_motion_pilot_GIST_update_2,2026.1.1,Win32,29.94011976,67869fc436295171deaa52c9,69b92ab4aef6dee357cd729a,69b9386e3bc83edcc3c9d75f,0.1573,0.1573,0,91,91,41,1,onethree,,,,,,,,,,,,,,,,,,,,,,,,,,,,,,,,,,,,,,,,,,,,,,,,,,,,,,,,,,,,,,,,,,,,,,,,,,,,,,,,,,,,,,,,,,,,,,,,,,,,,,,,,,,,,,,,,,,,,,,,,,,,,,,,,,,,,,,,,
,,67869fc436295171deaa52c9,2026-03-17_13h18.59.481,kallum_motion_pilot_GIST_update_2,2026.1.1,Win32,29.94011976,67869fc436295171deaa52c9,69b92ab4aef6dee357cd729a,69b9386e3bc83edcc3c9d75f,0.1579,0.158,0,92,92,143,1,eightseven,,,,,,,,,,,,,,,,,,,,,,,,,,,,,,,,,,,,,,,,,,,,,,,,,,,,,,,,,,,,,,,,,,,,,,,,,,,,,,,,,,,,,,,,,,,,,,,,,,,,,,,,,,,,,,,,,,,,,,,,,,,,,,,,,,,,,,,,,
,,67869fc436295171deaa52c9,2026-03-17_13h18.59.481,kallum_motion_pilot_GIST_update_2,2026.1.1,Win32,29.94011976,67869fc436295171deaa52c9,69b92ab4aef6dee357cd729a,69b9386e3bc83edcc3c9d75f,0.1588,0.1589,0,93,93,76,1,threeone,,,,,,,,,,,,,,,,,,,,,,,,,,,,,,,,,,,,,,,,,,,,,,,,,,,,,,,,,,,,,,,,,,,,,,,,,,,,,,,,,,,,,,,,,,,,,,,,,,,,,,,,,,,,,,,,,,,,,,,,,,,,,,,,,,,,,,,,,
,,67869fc436295171deaa52c9,2026-03-17_13h18.59.481,kallum_motion_pilot_GIST_update_2,2026.1.1,Win32,29.94011976,67869fc436295171deaa52c9,69b92ab4aef6dee357cd729a,69b9386e3bc83edcc3c9d75f,0.1596,0.1596,0,94,94,40,1,onetwo,,,,,,,,,,,,,,,,,,,,,,,,,,,,,,,,,,,,,,,,,,,,,,,,,,,,,,,,,,,,,,,,,,,,,,,,,,,,,,,,,,,,,,,,,,,,,,,,,,,,,,,,,,,,,,,,,,,,,,,,,,,,,,,,,,,,,,,,,
,,67869fc436295171deaa52c9,2026-03-17_13h18.59.481,kallum_motion_pilot_GIST_update_2,2026.1.1,Win32,29.94011976,67869fc436295171deaa52c9,69b92ab4aef6dee357cd729a,69b9386e3bc83edcc3c9d75f,0.1604,0.1604,0,95,95,67,1,twofour,,,,,,,,,,,,,,,,,,,,,,,,,,,,,,,,,,,,,,,,,,,,,,,,,,,,,,,,,,,,,,,,,,,,,,,,,,,,,,,,,,,,,,,,,,,,,,,,,,,,,,,,,,,,,,,,,,,,,,,,,,,,,,,,,,,,,,,,,
,,67869fc436295171deaa52c9,2026-03-17_13h18.59.481,kallum_motion_pilot_GIST_update_2,2026.1.1,Win32,29.94011976,67869fc436295171deaa52c9,69b92ab4aef6dee357cd729a,69b9386e3bc83edcc3c9d75f,0.1614,0.1615,0,96,96,57,1,onethree,,,,,,,,,,,,,,,,,,,,,,,,,,,,,,,,,,,,,,,,,,,,,,,,,,,,,,,,,,,,,,,,,,,,,,,,,,,,,,,,,,,,,,,,,,,,,,,,,,,,,,,,,,,,,,,,,,,,,,,,,,,,,,,,,,,,,,,,,
,,67869fc436295171deaa52c9,2026-03-17_13h18.59.481,kallum_motion_pilot_GIST_update_2,2026.1.1,Win32,29.94011976,67869fc436295171deaa52c9,69b92ab4aef6dee357cd729a,69b9386e3bc83edcc3c9d75f,0.1622,0.1622,0,97,97,119,1,eightseven,,,,,,,,,,,,,,,,,,,,,,,,,,,,,,,,,,,,,,,,,,,,,,,,,,,,,,,,,,,,,,,,,,,,,,,,,,,,,,,,,,,,,,,,,,,,,,,,,,,,,,,,,,,,,,,,,,,,,,,,,,,,,,,,,,,,,,,,,
,,67869fc436295171deaa52c9,2026-03-17_13h18.59.481,kallum_motion_pilot_GIST_update_2,2026.1.1,Win32,29.94011976,67869fc436295171deaa52c9,69b92ab4aef6dee357cd729a,69b9386e3bc83edcc3c9d75f,0.1633,0.1633,0,98,98,160,1,fivesix,,,,,,,,,,,,,,,,,,,,,,,,,,,,,,,,,,,,,,,,,,,,,,,,,,,,,,,,,,,,,,,,,,,,,,,,,,,,,,,,,,,,,,,,,,,,,,,,,,,,,,,,,,,,,,,,,,,,,,,,,,,,,,,,,,,,,,,,,
,,67869fc436295171deaa52c9,2026-03-17_13h18.59.481,kallum_motion_pilot_GIST_update_2,2026.1.1,Win32,29.94011976,67869fc436295171deaa52c9,69b92ab4aef6dee357cd729a,69b9386e3bc83edcc3c9d75f,0.1641,0.1642,0,99,99,111,1,eightseven,,,,,,,,,,,,,,,,,,,,,,,,,,,,,,,,,,,,,,,,,,,,,,,,,,,,,,,,,,,,,,,,,,,,,,,,,,,,,,,,,,,,,,,,,,,,,,,,,,,,,,,,,,,,,,,,,,,,,,,,,,,,,,,,,,,,,,,,,
,,67869fc436295171deaa52c9,2026-03-17_13h18.59.481,kallum_motion_pilot_GIST_update_2,2026.1.1,Win32,29.94011976,67869fc436295171deaa52c9,69b92ab4aef6dee357cd729a,69b9386e3bc83edcc3c9d75f,0.1647,0.1647,0,100,100,51,1,twofour,,,,,,,,,,,,,,,,,,,,,,,,,,,,,,,,,,,,,,,,,,,,,,,,,,,,,,,,,,,,,,,,,,,,,,,,,,,,,,,,,,,,,,,,,,,,,,,,,,,,,,,,,,,,,,,,,,,,,,,,,,,,,,,,,,,,,,,,,
,,67869fc436295171deaa52c9,2026-03-17_13h18.59.481,kallum_motion_pilot_GIST_update_2,2026.1.1,Win32,29.94011976,67869fc436295171deaa52c9,69b92ab4aef6dee357cd729a,69b9386e3bc83edcc3c9d75f,0.1653,0.1653,0,101,101,16,1,onetwo,,,,,,,,,,,,,,,,,,,,,,,,,,,,,,,,,,,,,,,,,,,,,,,,,,,,,,,,,,,,,,,,,,,,,,,,,,,,,,,,,,,,,,,,,,,,,,,,,,,,,,,,,,,,,,,,,,,,,,,,,,,,,,,,,,,,,,,,,
,,67869fc436295171deaa52c9,2026-03-17_13h18.59.481,kallum_motion_pilot_GIST_update_2,2026.1.1,Win32,29.94011976,67869fc436295171deaa52c9,69b92ab4aef6dee357cd729a,69b9386e3bc83edcc3c9d75f,0.1664,0.1664,0,102,102,39,1,fourthree,,,,,,,,,,,,,,,,,,,,,,,,,,,,,,,,,,,,,,,,,,,,,,,,,,,,,,,,,,,,,,,,,,,,,,,,,,,,,,,,,,,,,,,,,,,,,,,,,,,,,,,,,,,,,,,,,,,,,,,,,,,,,,,,,,,,,,,,,
,,67869fc436295171deaa52c9,2026-03-17_13h18.59.481,kallum_motion_pilot_GIST_update_2,2026.1.1,Win32,29.94011976,67869fc436295171deaa52c9,69b92ab4aef6dee357cd729a,69b9386e3bc83edcc3c9d75f,0.1669,0.1669,0,103,103,161,1,fiveseven,,,,,,,,,,,,,,,,,,,,,,,,,,,,,,,,,,,,,,,,,,,,,,,,,,,,,,,,,,,,,,,,,,,,,,,,,,,,,,,,,,,,,,,,,,,,,,,,,,,,,,,,,,,,,,,,,,,,,,,,,,,,,,,,,,,,,,,,,
,,67869fc436295171deaa52c9,2026-03-17_13h18.59.481,kallum_motion_pilot_GIST_update_2,2026.1.1,Win32,29.94011976,67869fc436295171deaa52c9,69b92ab4aef6dee357cd729a,69b9386e3bc83edcc3c9d75f,0.1677,0.1677,0,104,104,117,1,seveneight,,,,,,,,,,,,,,,,,,,,,,,,,,,,,,,,,,,,,,,,,,,,,,,,,,,,,,,,,,,,,,,,,,,,,,,,,,,,,,,,,,,,,,,,,,,,,,,,,,,,,,,,,,,,,,,,,,,,,,,,,,,,,,,,,,,,,,,,,
,,67869fc436295171deaa52c9,2026-03-17_13h18.59.481,kallum_motion_pilot_GIST_update_2,2026.1.1,Win32,29.94011976,67869fc436295171deaa52c9,69b92ab4aef6dee357cd729a,69b9386e3bc83edcc3c9d75f,0.1681,0.1682,0,105,105,94,1,eightsix,,,,,,,,,,,,,,,,,,,,,,,,,,,,,,,,,,,,,,,,,,,,,,,,,,,,,,,,,,,,,,,,,,,,,,,,,,,,,,,,,,,,,,,,,,,,,,,,,,,,,,,,,,,,,,,,,,,,,,,,,,,,,,,,,,,,,,,,,
,,67869fc436295171deaa52c9,2026-03-17_13h18.59.481,kallum_motion_pilot_GIST_update_2,2026.1.1,Win32,29.94011976,67869fc436295171deaa52c9,69b92ab4aef6dee357cd729a,69b9386e3bc83edcc3c9d75f,0.1687,0.1687,0,106,106,15,1,fourthree,,,,,,,,,,,,,,,,,,,,,,,,,,,,,,,,,,,,,,,,,,,,,,,,,,,,,,,,,,,,,,,,,,,,,,,,,,,,,,,,,,,,,,,,,,,,,,,,,,,,,,,,,,,,,,,,,,,,,,,,,,,,,,,,,,,,,,,,,
,,67869fc436295171deaa52c9,2026-03-17_13h18.59.481,kallum_motion_pilot_GIST_update_2,2026.1.1,Win32,29.94011976,67869fc436295171deaa52c9,69b92ab4aef6dee357cd729a,69b9386e3bc83edcc3c9d75f,0.1692,0.1692,0,107,107,135,1,eightseven,,,,,,,,,,,,,,,,,,,,,,,,,,,,,,,,,,,,,,,,,,,,,,,,,,,,,,,,,,,,,,,,,,,,,,,,,,,,,,,,,,,,,,,,,,,,,,,,,,,,,,,,,,,,,,,,,,,,,,,,,,,,,,,,,,,,,,,,,
,,67869fc436295171deaa52c9,2026-03-17_13h18.59.481,kallum_motion_pilot_GIST_update_2,2026.1.1,Win32,29.94011976,67869fc436295171deaa52c9,69b92ab4aef6dee357cd729a,69b9386e3bc83edcc3c9d75f,0.1696,0.1697,0,108,108,52,1,threeone,,,,,,,,,,,,,,,,,,,,,,,,,,,,,,,,,,,,,,,,,,,,,,,,,,,,,,,,,,,,,,,,,,,,,,,,,,,,,,,,,,,,,,,,,,,,,,,,,,,,,,,,,,,,,,,,,,,,,,,,,,,,,,,,,,,,,,,,,
,,67869fc436295171deaa52c9,2026-03-17_13h18.59.481,kallum_motion_pilot_GIST_update_2,2026.1.1,Win32,29.94011976,67869fc436295171deaa52c9,69b92ab4aef6dee357cd729a,69b9386e3bc83edcc3c9d75f,0.17,0.1701,0,109,109,61,1,threefour,,,,,,,,,,,,,,,,,,,,,,,,,,,,,,,,,,,,,,,,,,,,,,,,,,,,,,,,,,,,,,,,,,,,,,,,,,,,,,,,,,,,,,,,,,,,,,,,,,,,,,,,,,,,,,,,,,,,,,,,,,,,,,,,,,,,,,,,,
,,67869fc436295171deaa52c9,2026-03-17_13h18.59.481,kallum_motion_pilot_GIST_update_2,2026.1.1,Win32,29.94011976,67869fc436295171deaa52c9,69b92ab4aef6dee357cd729a,69b9386e3bc83edcc3c9d75f,0.1706,0.1706,0,110,110,3,1,twofour,,,,,,,,,,,,,,,,,,,,,,,,,,,,,,,,,,,,,,,,,,,,,,,,,,,,,,,,,,,,,,,,,,,,,,,,,,,,,,,,,,,,,,,,,,,,,,,,,,,,,,,,,,,,,,,,,,,,,,,,,,,,,,,,,,,,,,,,,
,,67869fc436295171deaa52c9,2026-03-17_13h18.59.481,kallum_motion_pilot_GIST_update_2,2026.1.1,Win32,29.94011976,67869fc436295171deaa52c9,69b92ab4aef6dee357cd729a,69b9386e3bc83edcc3c9d75f,0.1713,0.1713,0,111,111,145,1,fiveseven,,,,,,,,,,,,,,,,,,,,,,,,,,,,,,,,,,,,,,,,,,,,,,,,,,,,,,,,,,,,,,,,,,,,,,,,,,,,,,,,,,,,,,,,,,,,,,,,,,,,,,,,,,,,,,,,,,,,,,,,,,,,,,,,,,,,,,,,,
,,67869fc436295171deaa52c9,2026-03-17_13h18.59.481,kallum_motion_pilot_GIST_update_2,2026.1.1,Win32,29.94011976,67869fc436295171deaa52c9,69b92ab4aef6dee357cd729a,69b9386e3bc83edcc3c9d75f,0.172,0.172,0,112,112,63,1,fourthree,,,,,,,,,,,,,,,,,,,,,,,,,,,,,,,,,,,,,,,,,,,,,,,,,,,,,,,,,,,,,,,,,,,,,,,,,,,,,,,,,,,,,,,,,,,,,,,,,,,,,,,,,,,,,,,,,,,,,,,,,,,,,,,,,,,,,,,,,
,,67869fc436295171deaa52c9,2026-03-17_13h18.59.481,kallum_motion_pilot_GIST_update_2,2026.1.1,Win32,29.94011976,67869fc436295171deaa52c9,69b92ab4aef6dee357cd729a,69b9386e3bc83edcc3c9d75f,0.1726,0.1727,0,113,113,10,1,twoone,,,,,,,,,,,,,,,,,,,,,,,,,,,,,,,,,,,,,,,,,,,,,,,,,,,,,,,,,,,,,,,,,,,,,,,,,,,,,,,,,,,,,,,,,,,,,,,,,,,,,,,,,,,,,,,,,,,,,,,,,,,,,,,,,,,,,,,,,
,,67869fc436295171deaa52c9,2026-03-17_13h18.59.481,kallum_motion_pilot_GIST_update_2,2026.1.1,Win32,29.94011976,67869fc436295171deaa52c9,69b92ab4aef6dee357cd729a,69b9386e3bc83edcc3c9d75f,0.1733,0.1734,0,114,114,153,1,fiveseven,,,,,,,,,,,,,,,,,,,,,,,,,,,,,,,,,,,,,,,,,,,,,,,,,,,,,,,,,,,,,,,,,,,,,,,,,,,,,,,,,,,,,,,,,,,,,,,,,,,,,,,,,,,,,,,,,,,,,,,,,,,,,,,,,,,,,,,,,
,,67869fc436295171deaa52c9,2026-03-17_13h18.59.481,kallum_motion_pilot_GIST_update_2,2026.1.1,Win32,29.94011976,67869fc436295171deaa52c9,69b92ab4aef6dee357cd729a,69b9386e3bc83edcc3c9d75f,0.1742,0.1743,0,115,115,25,1,onethree,,,,,,,,,,,,,,,,,,,,,,,,,,,,,,,,,,,,,,,,,,,,,,,,,,,,,,,,,,,,,,,,,,,,,,,,,,,,,,,,,,,,,,,,,,,,,,,,,,,,,,,,,,,,,,,,,,,,,,,,,,,,,,,,,,,,,,,,,
,,67869fc436295171deaa52c9,2026-03-17_13h18.59.481,kallum_motion_pilot_GIST_update_2,2026.1.1,Win32,29.94011976,67869fc436295171deaa52c9,69b92ab4aef6dee357cd729a,69b9386e3bc83edcc3c9d75f,0.175,0.175,0,116,116,32,1,onetwo,,,,,,,,,,,,,,,,,,,,,,,,,,,,,,,,,,,,,,,,,,,,,,,,,,,,,,,,,,,,,,,,,,,,,,,,,,,,,,,,,,,,,,,,,,,,,,,,,,,,,,,,,,,,,,,,,,,,,,,,,,,,,,,,,,,,,,,,,
,,67869fc436295171deaa52c9,2026-03-17_13h18.59.481,kallum_motion_pilot_GIST_update_2,2026.1.1,Win32,29.94011976,67869fc436295171deaa52c9,69b92ab4aef6dee357cd729a,69b9386e3bc83edcc3c9d75f,0.1755,0.1755,0,117,117,13,1,threefour,,,,,,,,,,,,,,,,,,,,,,,,,,,,,,,,,,,,,,,,,,,,,,,,,,,,,,,,,,,,,,,,,,,,,,,,,,,,,,,,,,,,,,,,,,,,,,,,,,,,,,,,,,,,,,,,,,,,,,,,,,,,,,,,,,,,,,,,,
,,67869fc436295171deaa52c9,2026-03-17_13h18.59.481,kallum_motion_pilot_GIST_update_2,2026.1.1,Win32,29.94011976,67869fc436295171deaa52c9,69b92ab4aef6dee357cd729a,69b9386e3bc83edcc3c9d75f,0.176,0.176,0,118,118,146,1,sixfive,,,,,,,,,,,,,,,,,,,,,,,,,,,,,,,,,,,,,,,,,,,,,,,,,,,,,,,,,,,,,,,,,,,,,,,,,,,,,,,,,,,,,,,,,,,,,,,,,,,,,,,,,,,,,,,,,,,,,,,,,,,,,,,,,,,,,,,,,
,,67869fc436295171deaa52c9,2026-03-17_13h18.59.481,kallum_motion_pilot_GIST_update_2,2026.1.1,Win32,29.94011976,67869fc436295171deaa52c9,69b92ab4aef6dee357cd729a,69b9386e3bc83edcc3c9d75f,0.1769,0.1769,0,119,119,64,1,onetwo,,,,,,,,,,,,,,,,,,,,,,,,,,,,,,,,,,,,,,,,,,,,,,,,,,,,,,,,,,,,,,,,,,,,,,,,,,,,,,,,,,,,,,,,,,,,,,,,,,,,,,,,,,,,,,,,,,,,,,,,,,,,,,,,,,,,,,,,,
,,67869fc436295171deaa52c9,2026-03-17_13h18.59.481,kallum_motion_pilot_GIST_update_2,2026.1.1,Win32,29.94011976,67869fc436295171deaa52c9,69b92ab4aef6dee357cd729a,69b9386e3bc83edcc3c9d75f,0.1774,0.1774,0,120,120,95,1,eightseven,,,,,,,,,,,,,,,,,,,,,,,,,,,,,,,,,,,,,,,,,,,,,,,,,,,,,,,,,,,,,,,,,,,,,,,,,,,,,,,,,,,,,,,,,,,,,,,,,,,,,,,,,,,,,,,,,,,,,,,,,,,,,,,,,,,,,,,,,
,,67869fc436295171deaa52c9,2026-03-17_13h18.59.481,kallum_motion_pilot_GIST_update_2,2026.1.1,Win32,29.94011976,67869fc436295171deaa52c9,69b92ab4aef6dee357cd729a,69b9386e3bc83edcc3c9d75f,0.1779,0.1779,0,121,121,156,1,sevenfive,,,,,,,,,,,,,,,,,,,,,,,,,,,,,,,,,,,,,,,,,,,,,,,,,,,,,,,,,,,,,,,,,,,,,,,,,,,,,,,,,,,,,,,,,,,,,,,,,,,,,,,,,,,,,,,,,,,,,,,,,,,,,,,,,,,,,,,,,
,,67869fc436295171deaa52c9,2026-03-17_13h18.59.481,kallum_motion_pilot_GIST_update_2,2026.1.1,Win32,29.94011976,67869fc436295171deaa52c9,69b92ab4aef6dee357cd729a,69b9386e3bc83edcc3c9d75f,0.1786,0.1787,0,122,122,98,1,sixfive,,,,,,,,,,,,,,,,,,,,,,,,,,,,,,,,,,,,,,,,,,,,,,,,,,,,,,,,,,,,,,,,,,,,,,,,,,,,,,,,,,,,,,,,,,,,,,,,,,,,,,,,,,,,,,,,,,,,,,,,,,,,,,,,,,,,,,,,,
,,67869fc436295171deaa52c9,2026-03-17_13h18.59.481,kallum_motion_pilot_GIST_update_2,2026.1.1,Win32,29.94011976,67869fc436295171deaa52c9,69b92ab4aef6dee357cd729a,69b9386e3bc83edcc3c9d75f,0.1792,0.1793,0,123,123,130,1,sixfive,,,,,,,,,,,,,,,,,,,,,,,,,,,,,,,,,,,,,,,,,,,,,,,,,,,,,,,,,,,,,,,,,,,,,,,,,,,,,,,,,,,,,,,,,,,,,,,,,,,,,,,,,,,,,,,,,,,,,,,,,,,,,,,,,,,,,,,,,
,,67869fc436295171deaa52c9,2026-03-17_13h18.59.481,kallum_motion_pilot_GIST_update_2,2026.1.1,Win32,29.94011976,67869fc436295171deaa52c9,69b92ab4aef6dee357cd729a,69b9386e3bc83edcc3c9d75f,0.1798,0.1798,0,124,124,116,1,sevenfive,,,,,,,,,,,,,,,,,,,,,,,,,,,,,,,,,,,,,,,,,,,,,,,,,,,,,,,,,,,,,,,,,,,,,,,,,,,,,,,,,,,,,,,,,,,,,,,,,,,,,,,,,,,,,,,,,,,,,,,,,,,,,,,,,,,,,,,,,
,,67869fc436295171deaa52c9,2026-03-17_13h18.59.481,kallum_motion_pilot_GIST_update_2,2026.1.1,Win32,29.94011976,67869fc436295171deaa52c9,69b92ab4aef6dee357cd729a,69b9386e3bc83edcc3c9d75f,0.1803,0.1805,0,125,125,19,1,twofour,,,,,,,,,,,,,,,,,,,,,,,,,,,,,,,,,,,,,,,,,,,,,,,,,,,,,,,,,,,,,,,,,,,,,,,,,,,,,,,,,,,,,,,,,,,,,,,,,,,,,,,,,,,,,,,,,,,,,,,,,,,,,,,,,,,,,,,,,
,,67869fc436295171deaa52c9,2026-03-17_13h18.59.481,kallum_motion_pilot_GIST_update_2,2026.1.1,Win32,29.94011976,67869fc436295171deaa52c9,69b92ab4aef6dee357cd729a,69b9386e3bc83edcc3c9d75f,0.1812,0.1812,0,126,126,22,1,fourtwo,,,,,,,,,,,,,,,,,,,,,,,,,,,,,,,,,,,,,,,,,,,,,,,,,,,,,,,,,,,,,,,,,,,,,,,,,,,,,,,,,,,,,,,,,,,,,,,,,,,,,,,,,,,,,,,,,,,,,,,,,,,,,,,,,,,,,,,,,
,,67869fc436295171deaa52c9,2026-03-17_13h18.59.481,kallum_motion_pilot_GIST_update_2,2026.1.1,Win32,29.94011976,67869fc436295171deaa52c9,69b92ab4aef6dee357cd729a,69b9386e3bc83edcc3c9d75f,0.1818,0.1818,0,127,127,158,1,eightsix,,,,,,,,,,,,,,,,,,,,,,,,,,,,,,,,,,,,,,,,,,,,,,,,,,,,,,,,,,,,,,,,,,,,,,,,,,,,,,,,,,,,,,,,,,,,,,,,,,,,,,,,,,,,,,,,,,,,,,,,,,,,,,,,,,,,,,,,,
,,67869fc436295171deaa52c9,2026-03-17_13h18.59.481,kallum_motion_pilot_GIST_update_2,2026.1.1,Win32,29.94011976,67869fc436295171deaa52c9,69b92ab4aef6dee357cd729a,69b9386e3bc83edcc3c9d75f,0.183,0.183,0,128,128,82,1,sixfive,,,,,,,,,,,,,,,,,,,,,,,,,,,,,,,,,,,,,,,,,,,,,,,,,,,,,,,,,,,,,,,,,,,,,,,,,,,,,,,,,,,,,,,,,,,,,,,,,,,,,,,,,,,,,,,,,,,,,,,,,,,,,,,,,,,,,,,,,
,,67869fc436295171deaa52c9,2026-03-17_13h18.59.481,kallum_motion_pilot_GIST_update_2,2026.1.1,Win32,29.94011976,67869fc436295171deaa52c9,69b92ab4aef6dee357cd729a,69b9386e3bc83edcc3c9d75f,0.1838,0.1839,0,129,129,26,1,twoone,,,,,,,,,,,,,,,,,,,,,,,,,,,,,,,,,,,,,,,,,,,,,,,,,,,,,,,,,,,,,,,,,,,,,,,,,,,,,,,,,,,,,,,,,,,,,,,,,,,,,,,,,,,,,,,,,,,,,,,,,,,,,,,,,,,,,,,,,
,,67869fc436295171deaa52c9,2026-03-17_13h18.59.481,kallum_motion_pilot_GIST_update_2,2026.1.1,Win32,29.94011976,67869fc436295171deaa52c9,69b92ab4aef6dee357cd729a,69b9386e3bc83edcc3c9d75f,0.1845,0.1847,0,130,130,136,1,fivesix,,,,,,,,,,,,,,,,,,,,,,,,,,,,,,,,,,,,,,,,,,,,,,,,,,,,,,,,,,,,,,,,,,,,,,,,,,,,,,,,,,,,,,,,,,,,,,,,,,,,,,,,,,,,,,,,,,,,,,,,,,,,,,,,,,,,,,,,,
,,67869fc436295171deaa52c9,2026-03-17_13h18.59.481,kallum_motion_pilot_GIST_update_2,2026.1.1,Win32,29.94011976,67869fc436295171deaa52c9,69b92ab4aef6dee357cd729a,69b9386e3bc83edcc3c9d75f,0.1852,0.1852,0,131,131,68,1,threeone,,,,,,,,,,,,,,,,,,,,,,,,,,,,,,,,,,,,,,,,,,,,,,,,,,,,,,,,,,,,,,,,,,,,,,,,,,,,,,,,,,,,,,,,,,,,,,,,,,,,,,,,,,,,,,,,,,,,,,,,,,,,,,,,,,,,,,,,,
,,67869fc436295171deaa52c9,2026-03-17_13h18.59.481,kallum_motion_pilot_GIST_update_2,2026.1.1,Win32,29.94011976,67869fc436295171deaa52c9,69b92ab4aef6dee357cd729a,69b9386e3bc83edcc3c9d75f,0.1857,0.1857,0,132,132,133,1,seveneight,,,,,,,,,,,,,,,,,,,,,,,,,,,,,,,,,,,,,,,,,,,,,,,,,,,,,,,,,,,,,,,,,,,,,,,,,,,,,,,,,,,,,,,,,,,,,,,,,,,,,,,,,,,,,,,,,,,,,,,,,,,,,,,,,,,,,,,,,
,,67869fc436295171deaa52c9,2026-03-17_13h18.59.481,kallum_motion_pilot_GIST_update_2,2026.1.1,Win32,29.94011976,67869fc436295171deaa52c9,69b92ab4aef6dee357cd729a,69b9386e3bc83edcc3c9d75f,0.1861,0.1862,0,133,133,142,1,eightsix,,,,,,,,,,,,,,,,,,,,,,,,,,,,,,,,,,,,,,,,,,,,,,,,,,,,,,,,,,,,,,,,,,,,,,,,,,,,,,,,,,,,,,,,,,,,,,,,,,,,,,,,,,,,,,,,,,,,,,,,,,,,,,,,,,,,,,,,,
,,67869fc436295171deaa52c9,2026-03-17_13h18.59.481,kallum_motion_pilot_GIST_update_2,2026.1.1,Win32,29.94011976,67869fc436295171deaa52c9,69b92ab4aef6dee357cd729a,69b9386e3bc83edcc3c9d75f,0.187,0.187,0,134,134,33,1,onethree,,,,,,,,,,,,,,,,,,,,,,,,,,,,,,,,,,,,,,,,,,,,,,,,,,,,,,,,,,,,,,,,,,,,,,,,,,,,,,,,,,,,,,,,,,,,,,,,,,,,,,,,,,,,,,,,,,,,,,,,,,,,,,,,,,,,,,,,,
,,67869fc436295171deaa52c9,2026-03-17_13h18.59.481,kallum_motion_pilot_GIST_update_2,2026.1.1,Win32,29.94011976,67869fc436295171deaa52c9,69b92ab4aef6dee357cd729a,69b9386e3bc83edcc3c9d75f,0.1876,0.1876,0,135,135,21,1,threefour,,,,,,,,,,,,,,,,,,,,,,,,,,,,,,,,,,,,,,,,,,,,,,,,,,,,,,,,,,,,,,,,,,,,,,,,,,,,,,,,,,,,,,,,,,,,,,,,,,,,,,,,,,,,,,,,,,,,,,,,,,,,,,,,,,,,,,,,,
,,67869fc436295171deaa52c9,2026-03-17_13h18.59.481,kallum_motion_pilot_GIST_update_2,2026.1.1,Win32,29.94011976,67869fc436295171deaa52c9,69b92ab4aef6dee357cd729a,69b9386e3bc83edcc3c9d75f,0.1884,0.1884,0,136,136,97,1,fiveseven,,,,,,,,,,,,,,,,,,,,,,,,,,,,,,,,,,,,,,,,,,,,,,,,,,,,,,,,,,,,,,,,,,,,,,,,,,,,,,,,,,,,,,,,,,,,,,,,,,,,,,,,,,,,,,,,,,,,,,,,,,,,,,,,,,,,,,,,,
,,67869fc436295171deaa52c9,2026-03-17_13h18.59.481,kallum_motion_pilot_GIST_update_2,2026.1.1,Win32,29.94011976,67869fc436295171deaa52c9,69b92ab4aef6dee357cd729a,69b9386e3bc83edcc3c9d75f,0.1893,0.1894,0,137,137,125,1,seveneight,,,,,,,,,,,,,,,,,,,,,,,,,,,,,,,,,,,,,,,,,,,,,,,,,,,,,,,,,,,,,,,,,,,,,,,,,,,,,,,,,,,,,,,,,,,,,,,,,,,,,,,,,,,,,,,,,,,,,,,,,,,,,,,,,,,,,,,,,
,,67869fc436295171deaa52c9,2026-03-17_13h18.59.481,kallum_motion_pilot_GIST_update_2,2026.1.1,Win32,29.94011976,67869fc436295171deaa52c9,69b92ab4aef6dee357cd729a,69b9386e3bc83edcc3c9d75f,0.1901,0.1901,0,138,138,122,1,sixfive,,,,,,,,,,,,,,,,,,,,,,,,,,,,,,,,,,,,,,,,,,,,,,,,,,,,,,,,,,,,,,,,,,,,,,,,,,,,,,,,,,,,,,,,,,,,,,,,,,,,,,,,,,,,,,,,,,,,,,,,,,,,,,,,,,,,,,,,,
,,67869fc436295171deaa52c9,2026-03-17_13h18.59.481,kallum_motion_pilot_GIST_update_2,2026.1.1,Win32,29.94011976,67869fc436295171deaa52c9,69b92ab4aef6dee357cd729a,69b9386e3bc83edcc3c9d75f,0.1908,0.1909,0,139,139,144,1,fivesix,,,,,,,,,,,,,,,,,,,,,,,,,,,,,,,,,,,,,,,,,,,,,,,,,,,,,,,,,,,,,,,,,,,,,,,,,,,,,,,,,,,,,,,,,,,,,,,,,,,,,,,,,,,,,,,,,,,,,,,,,,,,,,,,,,,,,,,,,
,,67869fc436295171deaa52c9,2026-03-17_13h18.59.481,kallum_motion_pilot_GIST_update_2,2026.1.1,Win32,29.94011976,67869fc436295171deaa52c9,69b92ab4aef6dee357cd729a,69b9386e3bc83edcc3c9d75f,0.1915,0.1915,0,140,140,50,1,twoone,,,,,,,,,,,,,,,,,,,,,,,,,,,,,,,,,,,,,,,,,,,,,,,,,,,,,,,,,,,,,,,,,,,,,,,,,,,,,,,,,,,,,,,,,,,,,,,,,,,,,,,,,,,,,,,,,,,,,,,,,,,,,,,,,,,,,,,,,
,,67869fc436295171deaa52c9,2026-03-17_13h18.59.481,kallum_motion_pilot_GIST_update_2,2026.1.1,Win32,29.94011976,67869fc436295171deaa52c9,69b92ab4aef6dee357cd729a,69b9386e3bc83edcc3c9d75f,0.1922,0.1922,0,141,141,110,1,eightsix,,,,,,,,,,,,,,,,,,,,,,,,,,,,,,,,,,,,,,,,,,,,,,,,,,,,,,,,,,,,,,,,,,,,,,,,,,,,,,,,,,,,,,,,,,,,,,,,,,,,,,,,,,,,,,,,,,,,,,,,,,,,,,,,,,,,,,,,,
,,67869fc436295171deaa52c9,2026-03-17_13h18.59.481,kallum_motion_pilot_GIST_update_2,2026.1.1,Win32,29.94011976,67869fc436295171deaa52c9,69b92ab4aef6dee357cd729a,69b9386e3bc83edcc3c9d75f,0.1931,0.1931,0,142,142,1,1,onethree,,,,,,,,,,,,,,,,,,,,,,,,,,,,,,,,,,,,,,,,,,,,,,,,,,,,,,,,,,,,,,,,,,,,,,,,,,,,,,,,,,,,,,,,,,,,,,,,,,,,,,,,,,,,,,,,,,,,,,,,,,,,,,,,,,,,,,,,,
,,67869fc436295171deaa52c9,2026-03-17_13h18.59.481,kallum_motion_pilot_GIST_update_2,2026.1.1,Win32,29.94011976,67869fc436295171deaa52c9,69b92ab4aef6dee357cd729a,69b9386e3bc83edcc3c9d75f,0.1937,0.1937,0,143,143,24,1,onetwo,,,,,,,,,,,,,,,,,,,,,,,,,,,,,,,,,,,,,,,,,,,,,,,,,,,,,,,,,,,,,,,,,,,,,,,,,,,,,,,,,,,,,,,,,,,,,,,,,,,,,,,,,,,,,,,,,,,,,,,,,,,,,,,,,,,,,,,,,
,,67869fc436295171deaa52c9,2026-03-17_13h18.59.481,kallum_motion_pilot_GIST_update_2,2026.1.1,Win32,29.94011976,67869fc436295171deaa52c9,69b92ab4aef6dee357cd729a,69b9386e3bc83edcc3c9d75f,0.1941,0.1942,0,144,144,35,1,twofour,,,,,,,,,,,,,,,,,,,,,,,,,,,,,,,,,,,,,,,,,,,,,,,,,,,,,,,,,,,,,,,,,,,,,,,,,,,,,,,,,,,,,,,,,,,,,,,,,,,,,,,,,,,,,,,,,,,,,,,,,,,,,,,,,,,,,,,,,
,,67869fc436295171deaa52c9,2026-03-17_13h18.59.481,kallum_motion_pilot_GIST_update_2,2026.1.1,Win32,29.94011976,67869fc436295171deaa52c9,69b92ab4aef6dee357cd729a,69b9386e3bc83edcc3c9d75f,0.1946,0.1947,0,145,145,104,1,fivesix,,,,,,,,,,,,,,,,,,,,,,,,,,,,,,,,,,,,,,,,,,,,,,,,,,,,,,,,,,,,,,,,,,,,,,,,,,,,,,,,,,,,,,,,,,,,,,,,,,,,,,,,,,,,,,,,,,,,,,,,,,,,,,,,,,,,,,,,,
,,67869fc436295171deaa52c9,2026-03-17_13h18.59.481,kallum_motion_pilot_GIST_update_2,2026.1.1,Win32,29.94011976,67869fc436295171deaa52c9,69b92ab4aef6dee357cd729a,69b9386e3bc83edcc3c9d75f,0.1957,0.1958,0,146,146,149,1,seveneight,,,,,,,,,,,,,,,,,,,,,,,,,,,,,,,,,,,,,,,,,,,,,,,,,,,,,,,,,,,,,,,,,,,,,,,,,,,,,,,,,,,,,,,,,,,,,,,,,,,,,,,,,,,,,,,,,,,,,,,,,,,,,,,,,,,,,,,,,
,,67869fc436295171deaa52c9,2026-03-17_13h18.59.481,kallum_motion_pilot_GIST_update_2,2026.1.1,Win32,29.94011976,67869fc436295171deaa52c9,69b92ab4aef6dee357cd729a,69b9386e3bc83edcc3c9d75f,0.1963,0.1964,0,147,147,30,1,fourtwo,,,,,,,,,,,,,,,,,,,,,,,,,,,,,,,,,,,,,,,,,,,,,,,,,,,,,,,,,,,,,,,,,,,,,,,,,,,,,,,,,,,,,,,,,,,,,,,,,,,,,,,,,,,,,,,,,,,,,,,,,,,,,,,,,,,,,,,,,
,,67869fc436295171deaa52c9,2026-03-17_13h18.59.481,kallum_motion_pilot_GIST_update_2,2026.1.1,Win32,29.94011976,67869fc436295171deaa52c9,69b92ab4aef6dee357cd729a,69b9386e3bc83edcc3c9d75f,0.1968,0.1968,0,148,148,29,1,threefour,,,,,,,,,,,,,,,,,,,,,,,,,,,,,,,,,,,,,,,,,,,,,,,,,,,,,,,,,,,,,,,,,,,,,,,,,,,,,,,,,,,,,,,,,,,,,,,,,,,,,,,,,,,,,,,,,,,,,,,,,,,,,,,,,,,,,,,,,
,,67869fc436295171deaa52c9,2026-03-17_13h18.59.481,kallum_motion_pilot_GIST_update_2,2026.1.1,Win32,29.94011976,67869fc436295171deaa52c9,69b92ab4aef6dee357cd729a,69b9386e3bc83edcc3c9d75f,0.1973,0.1974,0,149,149,123,1,sixeight,,,,,,,,,,,,,,,,,,,,,,,,,,,,,,,,,,,,,,,,,,,,,,,,,,,,,,,,,,,,,,,,,,,,,,,,,,,,,,,,,,,,,,,,,,,,,,,,,,,,,,,,,,,,,,,,,,,,,,,,,,,,,,,,,,,,,,,,,
,,67869fc436295171deaa52c9,2026-03-17_13h18.59.481,kallum_motion_pilot_GIST_update_2,2026.1.1,Win32,29.94011976,67869fc436295171deaa52c9,69b92ab4aef6dee357cd729a,69b9386e3bc83edcc3c9d75f,0.1978,0.1978,0,150,150,131,1,sixeight,,,,,,,,,,,,,,,,,,,,,,,,,,,,,,,,,,,,,,,,,,,,,,,,,,,,,,,,,,,,,,,,,,,,,,,,,,,,,,,,,,,,,,,,,,,,,,,,,,,,,,,,,,,,,,,,,,,,,,,,,,,,,,,,,,,,,,,,,
,,67869fc436295171deaa52c9,2026-03-17_13h18.59.481,kallum_motion_pilot_GIST_update_2,2026.1.1,Win32,29.94011976,67869fc436295171deaa52c9,69b92ab4aef6dee357cd729a,69b9386e3bc83edcc3c9d75f,0.1982,0.1983,0,151,151,154,1,sixfive,,,,,,,,,,,,,,,,,,,,,,,,,,,,,,,,,,,,,,,,,,,,,,,,,,,,,,,,,,,,,,,,,,,,,,,,,,,,,,,,,,,,,,,,,,,,,,,,,,,,,,,,,,,,,,,,,,,,,,,,,,,,,,,,,,,,,,,,,
,,67869fc436295171deaa52c9,2026-03-17_13h18.59.481,kallum_motion_pilot_GIST_update_2,2026.1.1,Win32,29.94011976,67869fc436295171deaa52c9,69b92ab4aef6dee357cd729a,69b9386e3bc83edcc3c9d75f,0.1987,0.1988,0,152,152,113,1,fiveseven,,,,,,,,,,,,,,,,,,,,,,,,,,,,,,,,,,,,,,,,,,,,,,,,,,,,,,,,,,,,,,,,,,,,,,,,,,,,,,,,,,,,,,,,,,,,,,,,,,,,,,,,,,,,,,,,,,,,,,,,,,,,,,,,,,,,,,,,,
,,67869fc436295171deaa52c9,2026-03-17_13h18.59.481,kallum_motion_pilot_GIST_update_2,2026.1.1,Win32,29.94011976,67869fc436295171deaa52c9,69b92ab4aef6dee357cd729a,69b9386e3bc83edcc3c9d75f,0.1997,0.1997,0,153,153,71,1,fourthree,,,,,,,,,,,,,,,,,,,,,,,,,,,,,,,,,,,,,,,,,,,,,,,,,,,,,,,,,,,,,,,,,,,,,,,,,,,,,,,,,,,,,,,,,,,,,,,,,,,,,,,,,,,,,,,,,,,,,,,,,,,,,,,,,,,,,,,,,
,,67869fc436295171deaa52c9,2026-03-17_13h18.59.481,kallum_motion_pilot_GIST_update_2,2026.1.1,Win32,29.94011976,67869fc436295171deaa52c9,69b92ab4aef6dee357cd729a,69b9386e3bc83edcc3c9d75f,0.2005,0.2005,0,154,154,69,1,threefour,,,,,,,,,,,,,,,,,,,,,,,,,,,,,,,,,,,,,,,,,,,,,,,,,,,,,,,,,,,,,,,,,,,,,,,,,,,,,,,,,,,,,,,,,,,,,,,,,,,,,,,,,,,,,,,,,,,,,,,,,,,,,,,,,,,,,,,,,
,,67869fc436295171deaa52c9,2026-03-17_13h18.59.481,kallum_motion_pilot_GIST_update_2,2026.1.1,Win32,29.94011976,67869fc436295171deaa52c9,69b92ab4aef6dee357cd729a,69b9386e3bc83edcc3c9d75f,0.2009,0.201,0,155,155,2,1,twoone,,,,,,,,,,,,,,,,,,,,,,,,,,,,,,,,,,,,,,,,,,,,,,,,,,,,,,,,,,,,,,,,,,,,,,,,,,,,,,,,,,,,,,,,,,,,,,,,,,,,,,,,,,,,,,,,,,,,,,,,,,,,,,,,,,,,,,,,,
,,67869fc436295171deaa52c9,2026-03-17_13h18.59.481,kallum_motion_pilot_GIST_update_2,2026.1.1,Win32,29.94011976,67869fc436295171deaa52c9,69b92ab4aef6dee357cd729a,69b9386e3bc83edcc3c9d75f,0.2014,0.2014,0,156,156,73,1,onethree,,,,,,,,,,,,,,,,,,,,,,,,,,,,,,,,,,,,,,,,,,,,,,,,,,,,,,,,,,,,,,,,,,,,,,,,,,,,,,,,,,,,,,,,,,,,,,,,,,,,,,,,,,,,,,,,,,,,,,,,,,,,,,,,,,,,,,,,,
,,67869fc436295171deaa52c9,2026-03-17_13h18.59.481,kallum_motion_pilot_GIST_update_2,2026.1.1,Win32,29.94011976,67869fc436295171deaa52c9,69b92ab4aef6dee357cd729a,69b9386e3bc83edcc3c9d75f,0.202,0.202,0,157,157,152,1,fivesix,,,,,,,,,,,,,,,,,,,,,,,,,,,,,,,,,,,,,,,,,,,,,,,,,,,,,,,,,,,,,,,,,,,,,,,,,,,,,,,,,,,,,,,,,,,,,,,,,,,,,,,,,,,,,,,,,,,,,,,,,,,,,,,,,,,,,,,,,
,,67869fc436295171deaa52c9,2026-03-17_13h18.59.481,kallum_motion_pilot_GIST_update_2,2026.1.1,Win32,29.94011976,67869fc436295171deaa52c9,69b92ab4aef6dee357cd729a,69b9386e3bc83edcc3c9d75f,0.2026,0.2026,0,158,158,102,1,eightsix,,,,,,,,,,,,,,,,,,,,,,,,,,,,,,,,,,,,,,,,,,,,,,,,,,,,,,,,,,,,,,,,,,,,,,,,,,,,,,,,,,,,,,,,,,,,,,,,,,,,,,,,,,,,,,,,,,,,,,,,,,,,,,,,,,,,,,,,,
,,67869fc436295171deaa52c9,2026-03-17_13h18.59.481,kallum_motion_pilot_GIST_update_2,2026.1.1,Win32,29.94011976,67869fc436295171deaa52c9,69b92ab4aef6dee357cd729a,69b9386e3bc83edcc3c9d75f,0.2033,0.2034,0,159,159,7,1,fourthree,,,,,,,,,,,,,,,,,,,,,,,,,,,,,,,,,,,,,,,,,,,,,,,,,,,,,,,,,,,,,,,,,,,,,,,,,,,,,,,,,,,,,,,,,,,,,,,,,,,,,,,,,,,,,,,,,,,,,,,,,,,,,,,,,,,,,,,,,
,,67869fc436295171deaa52c9,2026-03-17_13h18.59.481,kallum_motion_pilot_GIST_update_2,2026.1.1,Win32,29.94011976,67869fc436295171deaa52c9,69b92ab4aef6dee357cd729a,69b9386e3bc83edcc3c9d75f,0.204,0.2041,0,160,160,6,1,fourtwo,,,,,,,,,,,,,,,,,,,,,,,,,,,,,,,,,,,,,,,,,,,,,,,,,,,,,,,,,,,,,,,,,,,,,,,,,,,,,,,,,,,,,,,,,,,,,,,,,,,,,,,,,,,,,,,,,,,,,,,,,,,,,,,,,,,,,,,,,
,,67869fc436295171deaa52c9,2026-03-17_13h18.59.481,kallum_motion_pilot_GIST_update_2,2026.1.1,Win32,29.94011976,67869fc436295171deaa52c9,69b92ab4aef6dee357cd729a,69b9386e3bc83edcc3c9d75f,0.2047,0.2047,0,161,161,148,1,sevenfive,,,,,,,,,,,,,,,,,,,,,,,,,,,,,,,,,,,,,,,,,,,,,,,,,,,,,,,,,,,,,,,,,,,,,,,,,,,,,,,,,,,,,,,,,,,,,,,,,,,,,,,,,,,,,,,,,,,,,,,,,,,,,,,,,,,,,,,,,
,,67869fc436295171deaa52c9,2026-03-17_13h18.59.481,kallum_motion_pilot_GIST_update_2,2026.1.1,Win32,29.94011976,67869fc436295171deaa52c9,69b92ab4aef6dee357cd729a,69b9386e3bc83edcc3c9d75f,0.2053,0.2053,1,0,162,95,1,eightseven,,,,,,,,,,,,,,,,,,,,,,,,,,,,,,,,,,,,,,,,,,,,,,,,,,,,,,,,,,,,,,,,,,,,,,,,,,,,,,,,,,,,,,,,,,,,,,,,,,,,,,,,,,,,,,,,,,,,,,,,,,,,,,,,,,,,,,,,,
,,67869fc436295171deaa52c9,2026-03-17_13h18.59.481,kallum_motion_pilot_GIST_update_2,2026.1.1,Win32,29.94011976,67869fc436295171deaa52c9,69b92ab4aef6dee357cd729a,69b9386e3bc83edcc3c9d75f,0.2057,0.2058,1,1,163,139,1,sixeight,,,,,,,,,,,,,,,,,,,,,,,,,,,,,,,,,,,,,,,,,,,,,,,,,,,,,,,,,,,,,,,,,,,,,,,,,,,,,,,,,,,,,,,,,,,,,,,,,,,,,,,,,,,,,,,,,,,,,,,,,,,,,,,,,,,,,,,,,
,,67869fc436295171deaa52c9,2026-03-17_13h18.59.481,kallum_motion_pilot_GIST_update_2,2026.1.1,Win32,29.94011976,67869fc436295171deaa52c9,69b92ab4aef6dee357cd729a,69b9386e3bc83edcc3c9d75f,0.2065,0.2066,1,2,164,130,1,sixfive,,,,,,,,,,,,,,,,,,,,,,,,,,,,,,,,,,,,,,,,,,,,,,,,,,,,,,,,,,,,,,,,,,,,,,,,,,,,,,,,,,,,,,,,,,,,,,,,,,,,,,,,,,,,,,,,,,,,,,,,,,,,,,,,,,,,,,,,,
,,67869fc436295171deaa52c9,2026-03-17_13h18.59.481,kallum_motion_pilot_GIST_update_2,2026.1.1,Win32,29.94011976,67869fc436295171deaa52c9,69b92ab4aef6dee357cd729a,69b9386e3bc83edcc3c9d75f,0.207,0.2071,1,3,165,23,1,fourthree,,,,,,,,,,,,,,,,,,,,,,,,,,,,,,,,,,,,,,,,,,,,,,,,,,,,,,,,,,,,,,,,,,,,,,,,,,,,,,,,,,,,,,,,,,,,,,,,,,,,,,,,,,,,,,,,,,,,,,,,,,,,,,,,,,,,,,,,,
,,67869fc436295171deaa52c9,2026-03-17_13h18.59.481,kallum_motion_pilot_GIST_update_2,2026.1.1,Win32,29.94011976,67869fc436295171deaa52c9,69b92ab4aef6dee357cd729a,69b9386e3bc83edcc3c9d75f,0.2075,0.2078,1,4,166,113,1,fiveseven,,,,,,,,,,,,,,,,,,,,,,,,,,,,,,,,,,,,,,,,,,,,,,,,,,,,,,,,,,,,,,,,,,,,,,,,,,,,,,,,,,,,,,,,,,,,,,,,,,,,,,,,,,,,,,,,,,,,,,,,,,,,,,,,,,,,,,,,,
,,67869fc436295171deaa52c9,2026-03-17_13h18.59.481,kallum_motion_pilot_GIST_update_2,2026.1.1,Win32,29.94011976,67869fc436295171deaa52c9,69b92ab4aef6dee357cd729a,69b9386e3bc83edcc3c9d75f,0.2083,0.2084,1,5,167,71,1,fourthree,,,,,,,,,,,,,,,,,,,,,,,,,,,,,,,,,,,,,,,,,,,,,,,,,,,,,,,,,,,,,,,,,,,,,,,,,,,,,,,,,,,,,,,,,,,,,,,,,,,,,,,,,,,,,,,,,,,,,,,,,,,,,,,,,,,,,,,,,
,,67869fc436295171deaa52c9,2026-03-17_13h18.59.481,kallum_motion_pilot_GIST_update_2,2026.1.1,Win32,29.94011976,67869fc436295171deaa52c9,69b92ab4aef6dee357cd729a,69b9386e3bc83edcc3c9d75f,0.2088,0.2088,1,6,168,47,1,fourthree,,,,,,,,,,,,,,,,,,,,,,,,,,,,,,,,,,,,,,,,,,,,,,,,,,,,,,,,,,,,,,,,,,,,,,,,,,,,,,,,,,,,,,,,,,,,,,,,,,,,,,,,,,,,,,,,,,,,,,,,,,,,,,,,,,,,,,,,,
,,67869fc436295171deaa52c9,2026-03-17_13h18.59.481,kallum_motion_pilot_GIST_update_2,2026.1.1,Win32,29.94011976,67869fc436295171deaa52c9,69b92ab4aef6dee357cd729a,69b9386e3bc83edcc3c9d75f,0.2092,0.2093,1,7,169,12,1,threeone,,,,,,,,,,,,,,,,,,,,,,,,,,,,,,,,,,,,,,,,,,,,,,,,,,,,,,,,,,,,,,,,,,,,,,,,,,,,,,,,,,,,,,,,,,,,,,,,,,,,,,,,,,,,,,,,,,,,,,,,,,,,,,,,,,,,,,,,,
,,67869fc436295171deaa52c9,2026-03-17_13h18.59.481,kallum_motion_pilot_GIST_update_2,2026.1.1,Win32,29.94011976,67869fc436295171deaa52c9,69b92ab4aef6dee357cd729a,69b9386e3bc83edcc3c9d75f,0.2097,0.2098,1,8,170,51,1,twofour,,,,,,,,,,,,,,,,,,,,,,,,,,,,,,,,,,,,,,,,,,,,,,,,,,,,,,,,,,,,,,,,,,,,,,,,,,,,,,,,,,,,,,,,,,,,,,,,,,,,,,,,,,,,,,,,,,,,,,,,,,,,,,,,,,,,,,,,,
,,67869fc436295171deaa52c9,2026-03-17_13h18.59.481,kallum_motion_pilot_GIST_update_2,2026.1.1,Win32,29.94011976,67869fc436295171deaa52c9,69b92ab4aef6dee357cd729a,69b9386e3bc83edcc3c9d75f,0.2103,0.2104,1,9,171,101,1,seveneight,,,,,,,,,,,,,,,,,,,,,,,,,,,,,,,,,,,,,,,,,,,,,,,,,,,,,,,,,,,,,,,,,,,,,,,,,,,,,,,,,,,,,,,,,,,,,,,,,,,,,,,,,,,,,,,,,,,,,,,,,,,,,,,,,,,,,,,,,
,,67869fc436295171deaa52c9,2026-03-17_13h18.59.481,kallum_motion_pilot_GIST_update_2,2026.1.1,Win32,29.94011976,67869fc436295171deaa52c9,69b92ab4aef6dee357cd729a,69b9386e3bc83edcc3c9d75f,0.2111,0.2111,1,10,172,159,1,eightseven,,,,,,,,,,,,,,,,,,,,,,,,,,,,,,,,,,,,,,,,,,,,,,,,,,,,,,,,,,,,,,,,,,,,,,,,,,,,,,,,,,,,,,,,,,,,,,,,,,,,,,,,,,,,,,,,,,,,,,,,,,,,,,,,,,,,,,,,,
,,67869fc436295171deaa52c9,2026-03-17_13h18.59.481,kallum_motion_pilot_GIST_update_2,2026.1.1,Win32,29.94011976,67869fc436295171deaa52c9,69b92ab4aef6dee357cd729a,69b9386e3bc83edcc3c9d75f,0.2115,0.2116,1,11,173,5,1,threefour,,,,,,,,,,,,,,,,,,,,,,,,,,,,,,,,,,,,,,,,,,,,,,,,,,,,,,,,,,,,,,,,,,,,,,,,,,,,,,,,,,,,,,,,,,,,,,,,,,,,,,,,,,,,,,,,,,,,,,,,,,,,,,,,,,,,,,,,,
,,67869fc436295171deaa52c9,2026-03-17_13h18.59.481,kallum_motion_pilot_GIST_update_2,2026.1.1,Win32,29.94011976,67869fc436295171deaa52c9,69b92ab4aef6dee357cd729a,69b9386e3bc83edcc3c9d75f,0.212,0.2121,1,12,174,91,1,sixeight,,,,,,,,,,,,,,,,,,,,,,,,,,,,,,,,,,,,,,,,,,,,,,,,,,,,,,,,,,,,,,,,,,,,,,,,,,,,,,,,,,,,,,,,,,,,,,,,,,,,,,,,,,,,,,,,,,,,,,,,,,,,,,,,,,,,,,,,,
,,67869fc436295171deaa52c9,2026-03-17_13h18.59.481,kallum_motion_pilot_GIST_update_2,2026.1.1,Win32,29.94011976,67869fc436295171deaa52c9,69b92ab4aef6dee357cd729a,69b9386e3bc83edcc3c9d75f,0.2126,0.2127,1,13,175,100,1,sevenfive,,,,,,,,,,,,,,,,,,,,,,,,,,,,,,,,,,,,,,,,,,,,,,,,,,,,,,,,,,,,,,,,,,,,,,,,,,,,,,,,,,,,,,,,,,,,,,,,,,,,,,,,,,,,,,,,,,,,,,,,,,,,,,,,,,,,,,,,,
,,67869fc436295171deaa52c9,2026-03-17_13h18.59.481,kallum_motion_pilot_GIST_update_2,2026.1.1,Win32,29.94011976,67869fc436295171deaa52c9,69b92ab4aef6dee357cd729a,69b9386e3bc83edcc3c9d75f,0.2133,0.2134,1,14,176,76,1,threeone,,,,,,,,,,,,,,,,,,,,,,,,,,,,,,,,,,,,,,,,,,,,,,,,,,,,,,,,,,,,,,,,,,,,,,,,,,,,,,,,,,,,,,,,,,,,,,,,,,,,,,,,,,,,,,,,,,,,,,,,,,,,,,,,,,,,,,,,,
,,67869fc436295171deaa52c9,2026-03-17_13h18.59.481,kallum_motion_pilot_GIST_update_2,2026.1.1,Win32,29.94011976,67869fc436295171deaa52c9,69b92ab4aef6dee357cd729a,69b9386e3bc83edcc3c9d75f,0.2139,0.2139,1,15,177,11,1,twofour,,,,,,,,,,,,,,,,,,,,,,,,,,,,,,,,,,,,,,,,,,,,,,,,,,,,,,,,,,,,,,,,,,,,,,,,,,,,,,,,,,,,,,,,,,,,,,,,,,,,,,,,,,,,,,,,,,,,,,,,,,,,,,,,,,,,,,,,,
,,67869fc436295171deaa52c9,2026-03-17_13h18.59.481,kallum_motion_pilot_GIST_update_2,2026.1.1,Win32,29.94011976,67869fc436295171deaa52c9,69b92ab4aef6dee357cd729a,69b9386e3bc83edcc3c9d75f,0.2144,0.2144,1,16,178,134,1,eightsix,,,,,,,,,,,,,,,,,,,,,,,,,,,,,,,,,,,,,,,,,,,,,,,,,,,,,,,,,,,,,,,,,,,,,,,,,,,,,,,,,,,,,,,,,,,,,,,,,,,,,,,,,,,,,,,,,,,,,,,,,,,,,,,,,,,,,,,,,
,,67869fc436295171deaa52c9,2026-03-17_13h18.59.481,kallum_motion_pilot_GIST_update_2,2026.1.1,Win32,29.94011976,67869fc436295171deaa52c9,69b92ab4aef6dee357cd729a,69b9386e3bc83edcc3c9d75f,0.2148,0.215,1,17,179,53,1,threefour,,,,,,,,,,,,,,,,,,,,,,,,,,,,,,,,,,,,,,,,,,,,,,,,,,,,,,,,,,,,,,,,,,,,,,,,,,,,,,,,,,,,,,,,,,,,,,,,,,,,,,,,,,,,,,,,,,,,,,,,,,,,,,,,,,,,,,,,,
,,67869fc436295171deaa52c9,2026-03-17_13h18.59.481,kallum_motion_pilot_GIST_update_2,2026.1.1,Win32,29.94011976,67869fc436295171deaa52c9,69b92ab4aef6dee357cd729a,69b9386e3bc83edcc3c9d75f,0.2154,0.2154,1,18,180,74,1,twoone,,,,,,,,,,,,,,,,,,,,,,,,,,,,,,,,,,,,,,,,,,,,,,,,,,,,,,,,,,,,,,,,,,,,,,,,,,,,,,,,,,,,,,,,,,,,,,,,,,,,,,,,,,,,,,,,,,,,,,,,,,,,,,,,,,,,,,,,,
,,67869fc436295171deaa52c9,2026-03-17_13h18.59.481,kallum_motion_pilot_GIST_update_2,2026.1.1,Win32,29.94011976,67869fc436295171deaa52c9,69b92ab4aef6dee357cd729a,69b9386e3bc83edcc3c9d75f,0.2164,0.2164,1,19,181,27,1,twofour,,,,,,,,,,,,,,,,,,,,,,,,,,,,,,,,,,,,,,,,,,,,,,,,,,,,,,,,,,,,,,,,,,,,,,,,,,,,,,,,,,,,,,,,,,,,,,,,,,,,,,,,,,,,,,,,,,,,,,,,,,,,,,,,,,,,,,,,,
,,67869fc436295171deaa52c9,2026-03-17_13h18.59.481,kallum_motion_pilot_GIST_update_2,2026.1.1,Win32,29.94011976,67869fc436295171deaa52c9,69b92ab4aef6dee357cd729a,69b9386e3bc83edcc3c9d75f,0.217,0.2171,1,20,182,150,1,eightsix,,,,,,,,,,,,,,,,,,,,,,,,,,,,,,,,,,,,,,,,,,,,,,,,,,,,,,,,,,,,,,,,,,,,,,,,,,,,,,,,,,,,,,,,,,,,,,,,,,,,,,,,,,,,,,,,,,,,,,,,,,,,,,,,,,,,,,,,,
,,67869fc436295171deaa52c9,2026-03-17_13h18.59.481,kallum_motion_pilot_GIST_update_2,2026.1.1,Win32,29.94011976,67869fc436295171deaa52c9,69b92ab4aef6dee357cd729a,69b9386e3bc83edcc3c9d75f,0.2174,0.2175,1,21,183,0,1,onetwo,,,,,,,,,,,,,,,,,,,,,,,,,,,,,,,,,,,,,,,,,,,,,,,,,,,,,,,,,,,,,,,,,,,,,,,,,,,,,,,,,,,,,,,,,,,,,,,,,,,,,,,,,,,,,,,,,,,,,,,,,,,,,,,,,,,,,,,,,
,,67869fc436295171deaa52c9,2026-03-17_13h18.59.481,kallum_motion_pilot_GIST_update_2,2026.1.1,Win32,29.94011976,67869fc436295171deaa52c9,69b92ab4aef6dee357cd729a,69b9386e3bc83edcc3c9d75f,0.218,0.2181,1,22,184,28,1,threeone,,,,,,,,,,,,,,,,,,,,,,,,,,,,,,,,,,,,,,,,,,,,,,,,,,,,,,,,,,,,,,,,,,,,,,,,,,,,,,,,,,,,,,,,,,,,,,,,,,,,,,,,,,,,,,,,,,,,,,,,,,,,,,,,,,,,,,,,,
,,67869fc436295171deaa52c9,2026-03-17_13h18.59.481,kallum_motion_pilot_GIST_update_2,2026.1.1,Win32,29.94011976,67869fc436295171deaa52c9,69b92ab4aef6dee357cd729a,69b9386e3bc83edcc3c9d75f,0.2186,0.2186,1,23,185,25,1,onethree,,,,,,,,,,,,,,,,,,,,,,,,,,,,,,,,,,,,,,,,,,,,,,,,,,,,,,,,,,,,,,,,,,,,,,,,,,,,,,,,,,,,,,,,,,,,,,,,,,,,,,,,,,,,,,,,,,,,,,,,,,,,,,,,,,,,,,,,,
,,67869fc436295171deaa52c9,2026-03-17_13h18.59.481,kallum_motion_pilot_GIST_update_2,2026.1.1,Win32,29.94011976,67869fc436295171deaa52c9,69b92ab4aef6dee357cd729a,69b9386e3bc83edcc3c9d75f,0.2191,0.2191,1,24,186,62,1,fourtwo,,,,,,,,,,,,,,,,,,,,,,,,,,,,,,,,,,,,,,,,,,,,,,,,,,,,,,,,,,,,,,,,,,,,,,,,,,,,,,,,,,,,,,,,,,,,,,,,,,,,,,,,,,,,,,,,,,,,,,,,,,,,,,,,,,,,,,,,,
,,67869fc436295171deaa52c9,2026-03-17_13h18.59.481,kallum_motion_pilot_GIST_update_2,2026.1.1,Win32,29.94011976,67869fc436295171deaa52c9,69b92ab4aef6dee357cd729a,69b9386e3bc83edcc3c9d75f,0.2198,0.2198,1,25,187,33,1,onethree,,,,,,,,,,,,,,,,,,,,,,,,,,,,,,,,,,,,,,,,,,,,,,,,,,,,,,,,,,,,,,,,,,,,,,,,,,,,,,,,,,,,,,,,,,,,,,,,,,,,,,,,,,,,,,,,,,,,,,,,,,,,,,,,,,,,,,,,,
,,67869fc436295171deaa52c9,2026-03-17_13h18.59.481,kallum_motion_pilot_GIST_update_2,2026.1.1,Win32,29.94011976,67869fc436295171deaa52c9,69b92ab4aef6dee357cd729a,69b9386e3bc83edcc3c9d75f,0.2202,0.2203,1,26,188,15,1,fourthree,,,,,,,,,,,,,,,,,,,,,,,,,,,,,,,,,,,,,,,,,,,,,,,,,,,,,,,,,,,,,,,,,,,,,,,,,,,,,,,,,,,,,,,,,,,,,,,,,,,,,,,,,,,,,,,,,,,,,,,,,,,,,,,,,,,,,,,,,
,,67869fc436295171deaa52c9,2026-03-17_13h18.59.481,kallum_motion_pilot_GIST_update_2,2026.1.1,Win32,29.94011976,67869fc436295171deaa52c9,69b92ab4aef6dee357cd729a,69b9386e3bc83edcc3c9d75f,0.2208,0.2208,1,27,189,120,1,fivesix,,,,,,,,,,,,,,,,,,,,,,,,,,,,,,,,,,,,,,,,,,,,,,,,,,,,,,,,,,,,,,,,,,,,,,,,,,,,,,,,,,,,,,,,,,,,,,,,,,,,,,,,,,,,,,,,,,,,,,,,,,,,,,,,,,,,,,,,,
,,67869fc436295171deaa52c9,2026-03-17_13h18.59.481,kallum_motion_pilot_GIST_update_2,2026.1.1,Win32,29.94011976,67869fc436295171deaa52c9,69b92ab4aef6dee357cd729a,69b9386e3bc83edcc3c9d75f,0.2212,0.2213,1,28,190,129,1,fiveseven,,,,,,,,,,,,,,,,,,,,,,,,,,,,,,,,,,,,,,,,,,,,,,,,,,,,,,,,,,,,,,,,,,,,,,,,,,,,,,,,,,,,,,,,,,,,,,,,,,,,,,,,,,,,,,,,,,,,,,,,,,,,,,,,,,,,,,,,,
,,67869fc436295171deaa52c9,2026-03-17_13h18.59.481,kallum_motion_pilot_GIST_update_2,2026.1.1,Win32,29.94011976,67869fc436295171deaa52c9,69b92ab4aef6dee357cd729a,69b9386e3bc83edcc3c9d75f,0.2217,0.2217,1,29,191,55,1,fourthree,,,,,,,,,,,,,,,,,,,,,,,,,,,,,,,,,,,,,,,,,,,,,,,,,,,,,,,,,,,,,,,,,,,,,,,,,,,,,,,,,,,,,,,,,,,,,,,,,,,,,,,,,,,,,,,,,,,,,,,,,,,,,,,,,,,,,,,,,
,,67869fc436295171deaa52c9,2026-03-17_13h18.59.481,kallum_motion_pilot_GIST_update_2,2026.1.1,Win32,29.94011976,67869fc436295171deaa52c9,69b92ab4aef6dee357cd729a,69b9386e3bc83edcc3c9d75f,0.2221,0.2223,1,30,192,10,1,twoone,,,,,,,,,,,,,,,,,,,,,,,,,,,,,,,,,,,,,,,,,,,,,,,,,,,,,,,,,,,,,,,,,,,,,,,,,,,,,,,,,,,,,,,,,,,,,,,,,,,,,,,,,,,,,,,,,,,,,,,,,,,,,,,,,,,,,,,,,
,,67869fc436295171deaa52c9,2026-03-17_13h18.59.481,kallum_motion_pilot_GIST_update_2,2026.1.1,Win32,29.94011976,67869fc436295171deaa52c9,69b92ab4aef6dee357cd729a,69b9386e3bc83edcc3c9d75f,0.2233,0.2233,1,31,193,98,1,sixfive,,,,,,,,,,,,,,,,,,,,,,,,,,,,,,,,,,,,,,,,,,,,,,,,,,,,,,,,,,,,,,,,,,,,,,,,,,,,,,,,,,,,,,,,,,,,,,,,,,,,,,,,,,,,,,,,,,,,,,,,,,,,,,,,,,,,,,,,,
,,67869fc436295171deaa52c9,2026-03-17_13h18.59.481,kallum_motion_pilot_GIST_update_2,2026.1.1,Win32,29.94011976,67869fc436295171deaa52c9,69b92ab4aef6dee357cd729a,69b9386e3bc83edcc3c9d75f,0.2239,0.2239,1,32,194,7,1,fourthree,,,,,,,,,,,,,,,,,,,,,,,,,,,,,,,,,,,,,,,,,,,,,,,,,,,,,,,,,,,,,,,,,,,,,,,,,,,,,,,,,,,,,,,,,,,,,,,,,,,,,,,,,,,,,,,,,,,,,,,,,,,,,,,,,,,,,,,,,
,,67869fc436295171deaa52c9,2026-03-17_13h18.59.481,kallum_motion_pilot_GIST_update_2,2026.1.1,Win32,29.94011976,67869fc436295171deaa52c9,69b92ab4aef6dee357cd729a,69b9386e3bc83edcc3c9d75f,0.2246,0.2247,1,33,195,137,1,fiveseven,,,,,,,,,,,,,,,,,,,,,,,,,,,,,,,,,,,,,,,,,,,,,,,,,,,,,,,,,,,,,,,,,,,,,,,,,,,,,,,,,,,,,,,,,,,,,,,,,,,,,,,,,,,,,,,,,,,,,,,,,,,,,,,,,,,,,,,,,
,,67869fc436295171deaa52c9,2026-03-17_13h18.59.481,kallum_motion_pilot_GIST_update_2,2026.1.1,Win32,29.94011976,67869fc436295171deaa52c9,69b92ab4aef6dee357cd729a,69b9386e3bc83edcc3c9d75f,0.2252,0.2253,1,34,196,93,1,seveneight,,,,,,,,,,,,,,,,,,,,,,,,,,,,,,,,,,,,,,,,,,,,,,,,,,,,,,,,,,,,,,,,,,,,,,,,,,,,,,,,,,,,,,,,,,,,,,,,,,,,,,,,,,,,,,,,,,,,,,,,,,,,,,,,,,,,,,,,,
,,67869fc436295171deaa52c9,2026-03-17_13h18.59.481,kallum_motion_pilot_GIST_update_2,2026.1.1,Win32,29.94011976,67869fc436295171deaa52c9,69b92ab4aef6dee357cd729a,69b9386e3bc83edcc3c9d75f,0.2257,0.2258,1,35,197,133,1,seveneight,,,,,,,,,,,,,,,,,,,,,,,,,,,,,,,,,,,,,,,,,,,,,,,,,,,,,,,,,,,,,,,,,,,,,,,,,,,,,,,,,,,,,,,,,,,,,,,,,,,,,,,,,,,,,,,,,,,,,,,,,,,,,,,,,,,,,,,,,
,,67869fc436295171deaa52c9,2026-03-17_13h18.59.481,kallum_motion_pilot_GIST_update_2,2026.1.1,Win32,29.94011976,67869fc436295171deaa52c9,69b92ab4aef6dee357cd729a,69b9386e3bc83edcc3c9d75f,0.2262,0.2264,1,36,198,89,1,fiveseven,,,,,,,,,,,,,,,,,,,,,,,,,,,,,,,,,,,,,,,,,,,,,,,,,,,,,,,,,,,,,,,,,,,,,,,,,,,,,,,,,,,,,,,,,,,,,,,,,,,,,,,,,,,,,,,,,,,,,,,,,,,,,,,,,,,,,,,,,
,,67869fc436295171deaa52c9,2026-03-17_13h18.59.481,kallum_motion_pilot_GIST_update_2,2026.1.1,Win32,29.94011976,67869fc436295171deaa52c9,69b92ab4aef6dee357cd729a,69b9386e3bc83edcc3c9d75f,0.2268,0.2268,1,37,199,1,1,onethree,,,,,,,,,,,,,,,,,,,,,,,,,,,,,,,,,,,,,,,,,,,,,,,,,,,,,,,,,,,,,,,,,,,,,,,,,,,,,,,,,,,,,,,,,,,,,,,,,,,,,,,,,,,,,,,,,,,,,,,,,,,,,,,,,,,,,,,,,
,,67869fc436295171deaa52c9,2026-03-17_13h18.59.481,kallum_motion_pilot_GIST_update_2,2026.1.1,Win32,29.94011976,67869fc436295171deaa52c9,69b92ab4aef6dee357cd729a,69b9386e3bc83edcc3c9d75f,0.2272,0.2273,1,38,200,99,1,sixeight,,,,,,,,,,,,,,,,,,,,,,,,,,,,,,,,,,,,,,,,,,,,,,,,,,,,,,,,,,,,,,,,,,,,,,,,,,,,,,,,,,,,,,,,,,,,,,,,,,,,,,,,,,,,,,,,,,,,,,,,,,,,,,,,,,,,,,,,,
,,67869fc436295171deaa52c9,2026-03-17_13h18.59.481,kallum_motion_pilot_GIST_update_2,2026.1.1,Win32,29.94011976,67869fc436295171deaa52c9,69b92ab4aef6dee357cd729a,69b9386e3bc83edcc3c9d75f,0.2277,0.2278,1,39,201,54,1,fourtwo,,,,,,,,,,,,,,,,,,,,,,,,,,,,,,,,,,,,,,,,,,,,,,,,,,,,,,,,,,,,,,,,,,,,,,,,,,,,,,,,,,,,,,,,,,,,,,,,,,,,,,,,,,,,,,,,,,,,,,,,,,,,,,,,,,,,,,,,,
,,67869fc436295171deaa52c9,2026-03-17_13h18.59.481,kallum_motion_pilot_GIST_update_2,2026.1.1,Win32,29.94011976,67869fc436295171deaa52c9,69b92ab4aef6dee357cd729a,69b9386e3bc83edcc3c9d75f,0.2283,0.2283,1,40,202,143,1,eightseven,,,,,,,,,,,,,,,,,,,,,,,,,,,,,,,,,,,,,,,,,,,,,,,,,,,,,,,,,,,,,,,,,,,,,,,,,,,,,,,,,,,,,,,,,,,,,,,,,,,,,,,,,,,,,,,,,,,,,,,,,,,,,,,,,,,,,,,,,
,,67869fc436295171deaa52c9,2026-03-17_13h18.59.481,kallum_motion_pilot_GIST_update_2,2026.1.1,Win32,29.94011976,67869fc436295171deaa52c9,69b92ab4aef6dee357cd729a,69b9386e3bc83edcc3c9d75f,0.2288,0.2289,1,41,203,42,1,twoone,,,,,,,,,,,,,,,,,,,,,,,,,,,,,,,,,,,,,,,,,,,,,,,,,,,,,,,,,,,,,,,,,,,,,,,,,,,,,,,,,,,,,,,,,,,,,,,,,,,,,,,,,,,,,,,,,,,,,,,,,,,,,,,,,,,,,,,,,
,,67869fc436295171deaa52c9,2026-03-17_13h18.59.481,kallum_motion_pilot_GIST_update_2,2026.1.1,Win32,29.94011976,67869fc436295171deaa52c9,69b92ab4aef6dee357cd729a,69b9386e3bc83edcc3c9d75f,0.2293,0.2293,1,42,204,118,1,eightsix,,,,,,,,,,,,,,,,,,,,,,,,,,,,,,,,,,,,,,,,,,,,,,,,,,,,,,,,,,,,,,,,,,,,,,,,,,,,,,,,,,,,,,,,,,,,,,,,,,,,,,,,,,,,,,,,,,,,,,,,,,,,,,,,,,,,,,,,,
,,67869fc436295171deaa52c9,2026-03-17_13h18.59.481,kallum_motion_pilot_GIST_update_2,2026.1.1,Win32,29.94011976,67869fc436295171deaa52c9,69b92ab4aef6dee357cd729a,69b9386e3bc83edcc3c9d75f,0.2298,0.2299,1,43,205,58,1,twoone,,,,,,,,,,,,,,,,,,,,,,,,,,,,,,,,,,,,,,,,,,,,,,,,,,,,,,,,,,,,,,,,,,,,,,,,,,,,,,,,,,,,,,,,,,,,,,,,,,,,,,,,,,,,,,,,,,,,,,,,,,,,,,,,,,,,,,,,,
,,67869fc436295171deaa52c9,2026-03-17_13h18.59.481,kallum_motion_pilot_GIST_update_2,2026.1.1,Win32,29.94011976,67869fc436295171deaa52c9,69b92ab4aef6dee357cd729a,69b9386e3bc83edcc3c9d75f,0.2303,0.2303,1,44,206,141,1,seveneight,,,,,,,,,,,,,,,,,,,,,,,,,,,,,,,,,,,,,,,,,,,,,,,,,,,,,,,,,,,,,,,,,,,,,,,,,,,,,,,,,,,,,,,,,,,,,,,,,,,,,,,,,,,,,,,,,,,,,,,,,,,,,,,,,,,,,,,,,
,,67869fc436295171deaa52c9,2026-03-17_13h18.59.481,kallum_motion_pilot_GIST_update_2,2026.1.1,Win32,29.94011976,67869fc436295171deaa52c9,69b92ab4aef6dee357cd729a,69b9386e3bc83edcc3c9d75f,0.2308,0.2308,1,45,207,30,1,fourtwo,,,,,,,,,,,,,,,,,,,,,,,,,,,,,,,,,,,,,,,,,,,,,,,,,,,,,,,,,,,,,,,,,,,,,,,,,,,,,,,,,,,,,,,,,,,,,,,,,,,,,,,,,,,,,,,,,,,,,,,,,,,,,,,,,,,,,,,,,
,,67869fc436295171deaa52c9,2026-03-17_13h18.59.481,kallum_motion_pilot_GIST_update_2,2026.1.1,Win32,29.94011976,67869fc436295171deaa52c9,69b92ab4aef6dee357cd729a,69b9386e3bc83edcc3c9d75f,0.2313,0.2313,1,46,208,26,1,twoone,,,,,,,,,,,,,,,,,,,,,,,,,,,,,,,,,,,,,,,,,,,,,,,,,,,,,,,,,,,,,,,,,,,,,,,,,,,,,,,,,,,,,,,,,,,,,,,,,,,,,,,,,,,,,,,,,,,,,,,,,,,,,,,,,,,,,,,,,
,,67869fc436295171deaa52c9,2026-03-17_13h18.59.481,kallum_motion_pilot_GIST_update_2,2026.1.1,Win32,29.94011976,67869fc436295171deaa52c9,69b92ab4aef6dee357cd729a,69b9386e3bc83edcc3c9d75f,0.2318,0.2318,1,47,209,21,1,threefour,,,,,,,,,,,,,,,,,,,,,,,,,,,,,,,,,,,,,,,,,,,,,,,,,,,,,,,,,,,,,,,,,,,,,,,,,,,,,,,,,,,,,,,,,,,,,,,,,,,,,,,,,,,,,,,,,,,,,,,,,,,,,,,,,,,,,,,,,
,,67869fc436295171deaa52c9,2026-03-17_13h18.59.481,kallum_motion_pilot_GIST_update_2,2026.1.1,Win32,29.94011976,67869fc436295171deaa52c9,69b92ab4aef6dee357cd729a,69b9386e3bc83edcc3c9d75f,0.2323,0.2324,1,48,210,92,1,sevenfive,,,,,,,,,,,,,,,,,,,,,,,,,,,,,,,,,,,,,,,,,,,,,,,,,,,,,,,,,,,,,,,,,,,,,,,,,,,,,,,,,,,,,,,,,,,,,,,,,,,,,,,,,,,,,,,,,,,,,,,,,,,,,,,,,,,,,,,,,
,,67869fc436295171deaa52c9,2026-03-17_13h18.59.481,kallum_motion_pilot_GIST_update_2,2026.1.1,Win32,29.94011976,67869fc436295171deaa52c9,69b92ab4aef6dee357cd729a,69b9386e3bc83edcc3c9d75f,0.2336,0.2336,1,49,211,61,1,threefour,,,,,,,,,,,,,,,,,,,,,,,,,,,,,,,,,,,,,,,,,,,,,,,,,,,,,,,,,,,,,,,,,,,,,,,,,,,,,,,,,,,,,,,,,,,,,,,,,,,,,,,,,,,,,,,,,,,,,,,,,,,,,,,,,,,,,,,,,
,,67869fc436295171deaa52c9,2026-03-17_13h18.59.481,kallum_motion_pilot_GIST_update_2,2026.1.1,Win32,29.94011976,67869fc436295171deaa52c9,69b92ab4aef6dee357cd729a,69b9386e3bc83edcc3c9d75f,0.2341,0.2341,1,50,212,49,1,onethree,,,,,,,,,,,,,,,,,,,,,,,,,,,,,,,,,,,,,,,,,,,,,,,,,,,,,,,,,,,,,,,,,,,,,,,,,,,,,,,,,,,,,,,,,,,,,,,,,,,,,,,,,,,,,,,,,,,,,,,,,,,,,,,,,,,,,,,,,
,,67869fc436295171deaa52c9,2026-03-17_13h18.59.481,kallum_motion_pilot_GIST_update_2,2026.1.1,Win32,29.94011976,67869fc436295171deaa52c9,69b92ab4aef6dee357cd729a,69b9386e3bc83edcc3c9d75f,0.2346,0.2346,1,51,213,22,1,fourtwo,,,,,,,,,,,,,,,,,,,,,,,,,,,,,,,,,,,,,,,,,,,,,,,,,,,,,,,,,,,,,,,,,,,,,,,,,,,,,,,,,,,,,,,,,,,,,,,,,,,,,,,,,,,,,,,,,,,,,,,,,,,,,,,,,,,,,,,,,
,,67869fc436295171deaa52c9,2026-03-17_13h18.59.481,kallum_motion_pilot_GIST_update_2,2026.1.1,Win32,29.94011976,67869fc436295171deaa52c9,69b92ab4aef6dee357cd729a,69b9386e3bc83edcc3c9d75f,0.235,0.2351,1,52,214,110,1,eightsix,,,,,,,,,,,,,,,,,,,,,,,,,,,,,,,,,,,,,,,,,,,,,,,,,,,,,,,,,,,,,,,,,,,,,,,,,,,,,,,,,,,,,,,,,,,,,,,,,,,,,,,,,,,,,,,,,,,,,,,,,,,,,,,,,,,,,,,,,
,,67869fc436295171deaa52c9,2026-03-17_13h18.59.481,kallum_motion_pilot_GIST_update_2,2026.1.1,Win32,29.94011976,67869fc436295171deaa52c9,69b92ab4aef6dee357cd729a,69b9386e3bc83edcc3c9d75f,0.2356,0.2356,1,53,215,114,1,sixfive,,,,,,,,,,,,,,,,,,,,,,,,,,,,,,,,,,,,,,,,,,,,,,,,,,,,,,,,,,,,,,,,,,,,,,,,,,,,,,,,,,,,,,,,,,,,,,,,,,,,,,,,,,,,,,,,,,,,,,,,,,,,,,,,,,,,,,,,,
,,67869fc436295171deaa52c9,2026-03-17_13h18.59.481,kallum_motion_pilot_GIST_update_2,2026.1.1,Win32,29.94011976,67869fc436295171deaa52c9,69b92ab4aef6dee357cd729a,69b9386e3bc83edcc3c9d75f,0.236,0.236,1,54,216,17,1,onethree,,,,,,,,,,,,,,,,,,,,,,,,,,,,,,,,,,,,,,,,,,,,,,,,,,,,,,,,,,,,,,,,,,,,,,,,,,,,,,,,,,,,,,,,,,,,,,,,,,,,,,,,,,,,,,,,,,,,,,,,,,,,,,,,,,,,,,,,,
,,67869fc436295171deaa52c9,2026-03-17_13h18.59.481,kallum_motion_pilot_GIST_update_2,2026.1.1,Win32,29.94011976,67869fc436295171deaa52c9,69b92ab4aef6dee357cd729a,69b9386e3bc83edcc3c9d75f,0.2365,0.2365,1,55,217,14,1,fourtwo,,,,,,,,,,,,,,,,,,,,,,,,,,,,,,,,,,,,,,,,,,,,,,,,,,,,,,,,,,,,,,,,,,,,,,,,,,,,,,,,,,,,,,,,,,,,,,,,,,,,,,,,,,,,,,,,,,,,,,,,,,,,,,,,,,,,,,,,,
,,67869fc436295171deaa52c9,2026-03-17_13h18.59.481,kallum_motion_pilot_GIST_update_2,2026.1.1,Win32,29.94011976,67869fc436295171deaa52c9,69b92ab4aef6dee357cd729a,69b9386e3bc83edcc3c9d75f,0.237,0.237,1,56,218,108,1,sevenfive,,,,,,,,,,,,,,,,,,,,,,,,,,,,,,,,,,,,,,,,,,,,,,,,,,,,,,,,,,,,,,,,,,,,,,,,,,,,,,,,,,,,,,,,,,,,,,,,,,,,,,,,,,,,,,,,,,,,,,,,,,,,,,,,,,,,,,,,,
,,67869fc436295171deaa52c9,2026-03-17_13h18.59.481,kallum_motion_pilot_GIST_update_2,2026.1.1,Win32,29.94011976,67869fc436295171deaa52c9,69b92ab4aef6dee357cd729a,69b9386e3bc83edcc3c9d75f,0.2375,0.2375,1,57,219,153,1,fiveseven,,,,,,,,,,,,,,,,,,,,,,,,,,,,,,,,,,,,,,,,,,,,,,,,,,,,,,,,,,,,,,,,,,,,,,,,,,,,,,,,,,,,,,,,,,,,,,,,,,,,,,,,,,,,,,,,,,,,,,,,,,,,,,,,,,,,,,,,,
,,67869fc436295171deaa52c9,2026-03-17_13h18.59.481,kallum_motion_pilot_GIST_update_2,2026.1.1,Win32,29.94011976,67869fc436295171deaa52c9,69b92ab4aef6dee357cd729a,69b9386e3bc83edcc3c9d75f,0.238,0.238,1,58,220,152,1,fivesix,,,,,,,,,,,,,,,,,,,,,,,,,,,,,,,,,,,,,,,,,,,,,,,,,,,,,,,,,,,,,,,,,,,,,,,,,,,,,,,,,,,,,,,,,,,,,,,,,,,,,,,,,,,,,,,,,,,,,,,,,,,,,,,,,,,,,,,,,
,,67869fc436295171deaa52c9,2026-03-17_13h18.59.481,kallum_motion_pilot_GIST_update_2,2026.1.1,Win32,29.94011976,67869fc436295171deaa52c9,69b92ab4aef6dee357cd729a,69b9386e3bc83edcc3c9d75f,0.2385,0.2386,1,59,221,156,1,sevenfive,,,,,,,,,,,,,,,,,,,,,,,,,,,,,,,,,,,,,,,,,,,,,,,,,,,,,,,,,,,,,,,,,,,,,,,,,,,,,,,,,,,,,,,,,,,,,,,,,,,,,,,,,,,,,,,,,,,,,,,,,,,,,,,,,,,,,,,,,
,,67869fc436295171deaa52c9,2026-03-17_13h18.59.481,kallum_motion_pilot_GIST_update_2,2026.1.1,Win32,29.94011976,67869fc436295171deaa52c9,69b92ab4aef6dee357cd729a,69b9386e3bc83edcc3c9d75f,0.239,0.2391,1,60,222,75,1,twofour,,,,,,,,,,,,,,,,,,,,,,,,,,,,,,,,,,,,,,,,,,,,,,,,,,,,,,,,,,,,,,,,,,,,,,,,,,,,,,,,,,,,,,,,,,,,,,,,,,,,,,,,,,,,,,,,,,,,,,,,,,,,,,,,,,,,,,,,,
,,67869fc436295171deaa52c9,2026-03-17_13h18.59.481,kallum_motion_pilot_GIST_update_2,2026.1.1,Win32,29.94011976,67869fc436295171deaa52c9,69b92ab4aef6dee357cd729a,69b9386e3bc83edcc3c9d75f,0.2396,0.2396,1,61,223,104,1,fivesix,,,,,,,,,,,,,,,,,,,,,,,,,,,,,,,,,,,,,,,,,,,,,,,,,,,,,,,,,,,,,,,,,,,,,,,,,,,,,,,,,,,,,,,,,,,,,,,,,,,,,,,,,,,,,,,,,,,,,,,,,,,,,,,,,,,,,,,,,
,,67869fc436295171deaa52c9,2026-03-17_13h18.59.481,kallum_motion_pilot_GIST_update_2,2026.1.1,Win32,29.94011976,67869fc436295171deaa52c9,69b92ab4aef6dee357cd729a,69b9386e3bc83edcc3c9d75f,0.2401,0.2402,1,62,224,50,1,twoone,,,,,,,,,,,,,,,,,,,,,,,,,,,,,,,,,,,,,,,,,,,,,,,,,,,,,,,,,,,,,,,,,,,,,,,,,,,,,,,,,,,,,,,,,,,,,,,,,,,,,,,,,,,,,,,,,,,,,,,,,,,,,,,,,,,,,,,,,
,,67869fc436295171deaa52c9,2026-03-17_13h18.59.481,kallum_motion_pilot_GIST_update_2,2026.1.1,Win32,29.94011976,67869fc436295171deaa52c9,69b92ab4aef6dee357cd729a,69b9386e3bc83edcc3c9d75f,0.2405,0.2406,1,63,225,116,1,sevenfive,,,,,,,,,,,,,,,,,,,,,,,,,,,,,,,,,,,,,,,,,,,,,,,,,,,,,,,,,,,,,,,,,,,,,,,,,,,,,,,,,,,,,,,,,,,,,,,,,,,,,,,,,,,,,,,,,,,,,,,,,,,,,,,,,,,,,,,,,
,,67869fc436295171deaa52c9,2026-03-17_13h18.59.481,kallum_motion_pilot_GIST_update_2,2026.1.1,Win32,29.94011976,67869fc436295171deaa52c9,69b92ab4aef6dee357cd729a,69b9386e3bc83edcc3c9d75f,0.2411,0.2411,1,64,226,37,1,threefour,,,,,,,,,,,,,,,,,,,,,,,,,,,,,,,,,,,,,,,,,,,,,,,,,,,,,,,,,,,,,,,,,,,,,,,,,,,,,,,,,,,,,,,,,,,,,,,,,,,,,,,,,,,,,,,,,,,,,,,,,,,,,,,,,,,,,,,,,
,,67869fc436295171deaa52c9,2026-03-17_13h18.59.481,kallum_motion_pilot_GIST_update_2,2026.1.1,Win32,29.94011976,67869fc436295171deaa52c9,69b92ab4aef6dee357cd729a,69b9386e3bc83edcc3c9d75f,0.2416,0.2416,1,65,227,83,1,sixeight,,,,,,,,,,,,,,,,,,,,,,,,,,,,,,,,,,,,,,,,,,,,,,,,,,,,,,,,,,,,,,,,,,,,,,,,,,,,,,,,,,,,,,,,,,,,,,,,,,,,,,,,,,,,,,,,,,,,,,,,,,,,,,,,,,,,,,,,,
,,67869fc436295171deaa52c9,2026-03-17_13h18.59.481,kallum_motion_pilot_GIST_update_2,2026.1.1,Win32,29.94011976,67869fc436295171deaa52c9,69b92ab4aef6dee357cd729a,69b9386e3bc83edcc3c9d75f,0.2422,0.2422,1,66,228,46,1,fourtwo,,,,,,,,,,,,,,,,,,,,,,,,,,,,,,,,,,,,,,,,,,,,,,,,,,,,,,,,,,,,,,,,,,,,,,,,,,,,,,,,,,,,,,,,,,,,,,,,,,,,,,,,,,,,,,,,,,,,,,,,,,,,,,,,,,,,,,,,,
,,67869fc436295171deaa52c9,2026-03-17_13h18.59.481,kallum_motion_pilot_GIST_update_2,2026.1.1,Win32,29.94011976,67869fc436295171deaa52c9,69b92ab4aef6dee357cd729a,69b9386e3bc83edcc3c9d75f,0.2427,0.2427,1,67,229,40,1,onetwo,,,,,,,,,,,,,,,,,,,,,,,,,,,,,,,,,,,,,,,,,,,,,,,,,,,,,,,,,,,,,,,,,,,,,,,,,,,,,,,,,,,,,,,,,,,,,,,,,,,,,,,,,,,,,,,,,,,,,,,,,,,,,,,,,,,,,,,,,
,,67869fc436295171deaa52c9,2026-03-17_13h18.59.481,kallum_motion_pilot_GIST_update_2,2026.1.1,Win32,29.94011976,67869fc436295171deaa52c9,69b92ab4aef6dee357cd729a,69b9386e3bc83edcc3c9d75f,0.2435,0.2435,1,68,230,59,1,twofour,,,,,,,,,,,,,,,,,,,,,,,,,,,,,,,,,,,,,,,,,,,,,,,,,,,,,,,,,,,,,,,,,,,,,,,,,,,,,,,,,,,,,,,,,,,,,,,,,,,,,,,,,,,,,,,,,,,,,,,,,,,,,,,,,,,,,,,,,
,,67869fc436295171deaa52c9,2026-03-17_13h18.59.481,kallum_motion_pilot_GIST_update_2,2026.1.1,Win32,29.94011976,67869fc436295171deaa52c9,69b92ab4aef6dee357cd729a,69b9386e3bc83edcc3c9d75f,0.244,0.244,1,69,231,20,1,threeone,,,,,,,,,,,,,,,,,,,,,,,,,,,,,,,,,,,,,,,,,,,,,,,,,,,,,,,,,,,,,,,,,,,,,,,,,,,,,,,,,,,,,,,,,,,,,,,,,,,,,,,,,,,,,,,,,,,,,,,,,,,,,,,,,,,,,,,,,
,,67869fc436295171deaa52c9,2026-03-17_13h18.59.481,kallum_motion_pilot_GIST_update_2,2026.1.1,Win32,29.94011976,67869fc436295171deaa52c9,69b92ab4aef6dee357cd729a,69b9386e3bc83edcc3c9d75f,0.2477,0.2477,1,70,232,41,1,onethree,,,,,,,,,,,,,,,,,,,,,,,,,,,,,,,,,,,,,,,,,,,,,,,,,,,,,,,,,,,,,,,,,,,,,,,,,,,,,,,,,,,,,,,,,,,,,,,,,,,,,,,,,,,,,,,,,,,,,,,,,,,,,,,,,,,,,,,,,
,,67869fc436295171deaa52c9,2026-03-17_13h18.59.481,kallum_motion_pilot_GIST_update_2,2026.1.1,Win32,29.94011976,67869fc436295171deaa52c9,69b92ab4aef6dee357cd729a,69b9386e3bc83edcc3c9d75f,0.2482,0.2482,1,71,233,35,1,twofour,,,,,,,,,,,,,,,,,,,,,,,,,,,,,,,,,,,,,,,,,,,,,,,,,,,,,,,,,,,,,,,,,,,,,,,,,,,,,,,,,,,,,,,,,,,,,,,,,,,,,,,,,,,,,,,,,,,,,,,,,,,,,,,,,,,,,,,,,
,,67869fc436295171deaa52c9,2026-03-17_13h18.59.481,kallum_motion_pilot_GIST_update_2,2026.1.1,Win32,29.94011976,67869fc436295171deaa52c9,69b92ab4aef6dee357cd729a,69b9386e3bc83edcc3c9d75f,0.2487,0.2487,1,72,234,115,1,sixeight,,,,,,,,,,,,,,,,,,,,,,,,,,,,,,,,,,,,,,,,,,,,,,,,,,,,,,,,,,,,,,,,,,,,,,,,,,,,,,,,,,,,,,,,,,,,,,,,,,,,,,,,,,,,,,,,,,,,,,,,,,,,,,,,,,,,,,,,,
,,67869fc436295171deaa52c9,2026-03-17_13h18.59.481,kallum_motion_pilot_GIST_update_2,2026.1.1,Win32,29.94011976,67869fc436295171deaa52c9,69b92ab4aef6dee357cd729a,69b9386e3bc83edcc3c9d75f,0.2492,0.2492,1,73,235,140,1,sevenfive,,,,,,,,,,,,,,,,,,,,,,,,,,,,,,,,,,,,,,,,,,,,,,,,,,,,,,,,,,,,,,,,,,,,,,,,,,,,,,,,,,,,,,,,,,,,,,,,,,,,,,,,,,,,,,,,,,,,,,,,,,,,,,,,,,,,,,,,,
,,67869fc436295171deaa52c9,2026-03-17_13h18.59.481,kallum_motion_pilot_GIST_update_2,2026.1.1,Win32,29.94011976,67869fc436295171deaa52c9,69b92ab4aef6dee357cd729a,69b9386e3bc83edcc3c9d75f,0.2502,0.2502,1,74,236,84,1,sevenfive,,,,,,,,,,,,,,,,,,,,,,,,,,,,,,,,,,,,,,,,,,,,,,,,,,,,,,,,,,,,,,,,,,,,,,,,,,,,,,,,,,,,,,,,,,,,,,,,,,,,,,,,,,,,,,,,,,,,,,,,,,,,,,,,,,,,,,,,,
,,67869fc436295171deaa52c9,2026-03-17_13h18.59.481,kallum_motion_pilot_GIST_update_2,2026.1.1,Win32,29.94011976,67869fc436295171deaa52c9,69b92ab4aef6dee357cd729a,69b9386e3bc83edcc3c9d75f,0.2507,0.2507,1,75,237,103,1,eightseven,,,,,,,,,,,,,,,,,,,,,,,,,,,,,,,,,,,,,,,,,,,,,,,,,,,,,,,,,,,,,,,,,,,,,,,,,,,,,,,,,,,,,,,,,,,,,,,,,,,,,,,,,,,,,,,,,,,,,,,,,,,,,,,,,,,,,,,,,
,,67869fc436295171deaa52c9,2026-03-17_13h18.59.481,kallum_motion_pilot_GIST_update_2,2026.1.1,Win32,29.94011976,67869fc436295171deaa52c9,69b92ab4aef6dee357cd729a,69b9386e3bc83edcc3c9d75f,0.2512,0.2512,1,76,238,43,1,twofour,,,,,,,,,,,,,,,,,,,,,,,,,,,,,,,,,,,,,,,,,,,,,,,,,,,,,,,,,,,,,,,,,,,,,,,,,,,,,,,,,,,,,,,,,,,,,,,,,,,,,,,,,,,,,,,,,,,,,,,,,,,,,,,,,,,,,,,,,
,,67869fc436295171deaa52c9,2026-03-17_13h18.59.481,kallum_motion_pilot_GIST_update_2,2026.1.1,Win32,29.94011976,67869fc436295171deaa52c9,69b92ab4aef6dee357cd729a,69b9386e3bc83edcc3c9d75f,0.2517,0.2517,1,77,239,94,1,eightsix,,,,,,,,,,,,,,,,,,,,,,,,,,,,,,,,,,,,,,,,,,,,,,,,,,,,,,,,,,,,,,,,,,,,,,,,,,,,,,,,,,,,,,,,,,,,,,,,,,,,,,,,,,,,,,,,,,,,,,,,,,,,,,,,,,,,,,,,,
,,67869fc436295171deaa52c9,2026-03-17_13h18.59.481,kallum_motion_pilot_GIST_update_2,2026.1.1,Win32,29.94011976,67869fc436295171deaa52c9,69b92ab4aef6dee357cd729a,69b9386e3bc83edcc3c9d75f,0.2523,0.2523,1,78,240,24,1,onetwo,,,,,,,,,,,,,,,,,,,,,,,,,,,,,,,,,,,,,,,,,,,,,,,,,,,,,,,,,,,,,,,,,,,,,,,,,,,,,,,,,,,,,,,,,,,,,,,,,,,,,,,,,,,,,,,,,,,,,,,,,,,,,,,,,,,,,,,,,
,,67869fc436295171deaa52c9,2026-03-17_13h18.59.481,kallum_motion_pilot_GIST_update_2,2026.1.1,Win32,29.94011976,67869fc436295171deaa52c9,69b92ab4aef6dee357cd729a,69b9386e3bc83edcc3c9d75f,0.2528,0.2528,1,79,241,73,1,onethree,,,,,,,,,,,,,,,,,,,,,,,,,,,,,,,,,,,,,,,,,,,,,,,,,,,,,,,,,,,,,,,,,,,,,,,,,,,,,,,,,,,,,,,,,,,,,,,,,,,,,,,,,,,,,,,,,,,,,,,,,,,,,,,,,,,,,,,,,
,,67869fc436295171deaa52c9,2026-03-17_13h18.59.481,kallum_motion_pilot_GIST_update_2,2026.1.1,Win32,29.94011976,67869fc436295171deaa52c9,69b92ab4aef6dee357cd729a,69b9386e3bc83edcc3c9d75f,0.2535,0.2535,1,80,242,56,1,onetwo,,,,,,,,,,,,,,,,,,,,,,,,,,,,,,,,,,,,,,,,,,,,,,,,,,,,,,,,,,,,,,,,,,,,,,,,,,,,,,,,,,,,,,,,,,,,,,,,,,,,,,,,,,,,,,,,,,,,,,,,,,,,,,,,,,,,,,,,,
,,67869fc436295171deaa52c9,2026-03-17_13h18.59.481,kallum_motion_pilot_GIST_update_2,2026.1.1,Win32,29.94011976,67869fc436295171deaa52c9,69b92ab4aef6dee357cd729a,69b9386e3bc83edcc3c9d75f,0.254,0.2541,1,81,243,117,1,seveneight,,,,,,,,,,,,,,,,,,,,,,,,,,,,,,,,,,,,,,,,,,,,,,,,,,,,,,,,,,,,,,,,,,,,,,,,,,,,,,,,,,,,,,,,,,,,,,,,,,,,,,,,,,,,,,,,,,,,,,,,,,,,,,,,,,,,,,,,,
,,67869fc436295171deaa52c9,2026-03-17_13h18.59.481,kallum_motion_pilot_GIST_update_2,2026.1.1,Win32,29.94011976,67869fc436295171deaa52c9,69b92ab4aef6dee357cd729a,69b9386e3bc83edcc3c9d75f,0.2546,0.2546,1,82,244,77,1,threefour,,,,,,,,,,,,,,,,,,,,,,,,,,,,,,,,,,,,,,,,,,,,,,,,,,,,,,,,,,,,,,,,,,,,,,,,,,,,,,,,,,,,,,,,,,,,,,,,,,,,,,,,,,,,,,,,,,,,,,,,,,,,,,,,,,,,,,,,,
,,67869fc436295171deaa52c9,2026-03-17_13h18.59.481,kallum_motion_pilot_GIST_update_2,2026.1.1,Win32,29.94011976,67869fc436295171deaa52c9,69b92ab4aef6dee357cd729a,69b9386e3bc83edcc3c9d75f,0.2551,0.2551,1,83,245,126,1,eightsix,,,,,,,,,,,,,,,,,,,,,,,,,,,,,,,,,,,,,,,,,,,,,,,,,,,,,,,,,,,,,,,,,,,,,,,,,,,,,,,,,,,,,,,,,,,,,,,,,,,,,,,,,,,,,,,,,,,,,,,,,,,,,,,,,,,,,,,,,
,,67869fc436295171deaa52c9,2026-03-17_13h18.59.481,kallum_motion_pilot_GIST_update_2,2026.1.1,Win32,29.94011976,67869fc436295171deaa52c9,69b92ab4aef6dee357cd729a,69b9386e3bc83edcc3c9d75f,0.2556,0.2556,1,84,246,160,1,fivesix,,,,,,,,,,,,,,,,,,,,,,,,,,,,,,,,,,,,,,,,,,,,,,,,,,,,,,,,,,,,,,,,,,,,,,,,,,,,,,,,,,,,,,,,,,,,,,,,,,,,,,,,,,,,,,,,,,,,,,,,,,,,,,,,,,,,,,,,,
,,67869fc436295171deaa52c9,2026-03-17_13h18.59.481,kallum_motion_pilot_GIST_update_2,2026.1.1,Win32,29.94011976,67869fc436295171deaa52c9,69b92ab4aef6dee357cd729a,69b9386e3bc83edcc3c9d75f,0.2561,0.2561,1,85,247,107,1,sixeight,,,,,,,,,,,,,,,,,,,,,,,,,,,,,,,,,,,,,,,,,,,,,,,,,,,,,,,,,,,,,,,,,,,,,,,,,,,,,,,,,,,,,,,,,,,,,,,,,,,,,,,,,,,,,,,,,,,,,,,,,,,,,,,,,,,,,,,,,
,,67869fc436295171deaa52c9,2026-03-17_13h18.59.481,kallum_motion_pilot_GIST_update_2,2026.1.1,Win32,29.94011976,67869fc436295171deaa52c9,69b92ab4aef6dee357cd729a,69b9386e3bc83edcc3c9d75f,0.2566,0.2566,1,86,248,72,1,onetwo,,,,,,,,,,,,,,,,,,,,,,,,,,,,,,,,,,,,,,,,,,,,,,,,,,,,,,,,,,,,,,,,,,,,,,,,,,,,,,,,,,,,,,,,,,,,,,,,,,,,,,,,,,,,,,,,,,,,,,,,,,,,,,,,,,,,,,,,,
,,67869fc436295171deaa52c9,2026-03-17_13h18.59.481,kallum_motion_pilot_GIST_update_2,2026.1.1,Win32,29.94011976,67869fc436295171deaa52c9,69b92ab4aef6dee357cd729a,69b9386e3bc83edcc3c9d75f,0.257,0.2571,1,87,249,18,1,twoone,,,,,,,,,,,,,,,,,,,,,,,,,,,,,,,,,,,,,,,,,,,,,,,,,,,,,,,,,,,,,,,,,,,,,,,,,,,,,,,,,,,,,,,,,,,,,,,,,,,,,,,,,,,,,,,,,,,,,,,,,,,,,,,,,,,,,,,,,
,,67869fc436295171deaa52c9,2026-03-17_13h18.59.481,kallum_motion_pilot_GIST_update_2,2026.1.1,Win32,29.94011976,67869fc436295171deaa52c9,69b92ab4aef6dee357cd729a,69b9386e3bc83edcc3c9d75f,0.2575,0.2576,1,88,250,68,1,threeone,,,,,,,,,,,,,,,,,,,,,,,,,,,,,,,,,,,,,,,,,,,,,,,,,,,,,,,,,,,,,,,,,,,,,,,,,,,,,,,,,,,,,,,,,,,,,,,,,,,,,,,,,,,,,,,,,,,,,,,,,,,,,,,,,,,,,,,,,
,,67869fc436295171deaa52c9,2026-03-17_13h18.59.481,kallum_motion_pilot_GIST_update_2,2026.1.1,Win32,29.94011976,67869fc436295171deaa52c9,69b92ab4aef6dee357cd729a,69b9386e3bc83edcc3c9d75f,0.2584,0.2584,1,89,251,123,1,sixeight,,,,,,,,,,,,,,,,,,,,,,,,,,,,,,,,,,,,,,,,,,,,,,,,,,,,,,,,,,,,,,,,,,,,,,,,,,,,,,,,,,,,,,,,,,,,,,,,,,,,,,,,,,,,,,,,,,,,,,,,,,,,,,,,,,,,,,,,,
,,67869fc436295171deaa52c9,2026-03-17_13h18.59.481,kallum_motion_pilot_GIST_update_2,2026.1.1,Win32,29.94011976,67869fc436295171deaa52c9,69b92ab4aef6dee357cd729a,69b9386e3bc83edcc3c9d75f,0.259,0.259,1,90,252,142,1,eightsix,,,,,,,,,,,,,,,,,,,,,,,,,,,,,,,,,,,,,,,,,,,,,,,,,,,,,,,,,,,,,,,,,,,,,,,,,,,,,,,,,,,,,,,,,,,,,,,,,,,,,,,,,,,,,,,,,,,,,,,,,,,,,,,,,,,,,,,,,
,,67869fc436295171deaa52c9,2026-03-17_13h18.59.481,kallum_motion_pilot_GIST_update_2,2026.1.1,Win32,29.94011976,67869fc436295171deaa52c9,69b92ab4aef6dee357cd729a,69b9386e3bc83edcc3c9d75f,0.2594,0.2594,1,91,253,144,1,fivesix,,,,,,,,,,,,,,,,,,,,,,,,,,,,,,,,,,,,,,,,,,,,,,,,,,,,,,,,,,,,,,,,,,,,,,,,,,,,,,,,,,,,,,,,,,,,,,,,,,,,,,,,,,,,,,,,,,,,,,,,,,,,,,,,,,,,,,,,,
,,67869fc436295171deaa52c9,2026-03-17_13h18.59.481,kallum_motion_pilot_GIST_update_2,2026.1.1,Win32,29.94011976,67869fc436295171deaa52c9,69b92ab4aef6dee357cd729a,69b9386e3bc83edcc3c9d75f,0.26,0.2601,1,92,254,111,1,eightseven,,,,,,,,,,,,,,,,,,,,,,,,,,,,,,,,,,,,,,,,,,,,,,,,,,,,,,,,,,,,,,,,,,,,,,,,,,,,,,,,,,,,,,,,,,,,,,,,,,,,,,,,,,,,,,,,,,,,,,,,,,,,,,,,,,,,,,,,,
,,67869fc436295171deaa52c9,2026-03-17_13h18.59.481,kallum_motion_pilot_GIST_update_2,2026.1.1,Win32,29.94011976,67869fc436295171deaa52c9,69b92ab4aef6dee357cd729a,69b9386e3bc83edcc3c9d75f,0.2606,0.2606,1,93,255,19,1,twofour,,,,,,,,,,,,,,,,,,,,,,,,,,,,,,,,,,,,,,,,,,,,,,,,,,,,,,,,,,,,,,,,,,,,,,,,,,,,,,,,,,,,,,,,,,,,,,,,,,,,,,,,,,,,,,,,,,,,,,,,,,,,,,,,,,,,,,,,,
,,67869fc436295171deaa52c9,2026-03-17_13h18.59.481,kallum_motion_pilot_GIST_update_2,2026.1.1,Win32,29.94011976,67869fc436295171deaa52c9,69b92ab4aef6dee357cd729a,69b9386e3bc83edcc3c9d75f,0.2611,0.2611,1,94,256,36,1,threeone,,,,,,,,,,,,,,,,,,,,,,,,,,,,,,,,,,,,,,,,,,,,,,,,,,,,,,,,,,,,,,,,,,,,,,,,,,,,,,,,,,,,,,,,,,,,,,,,,,,,,,,,,,,,,,,,,,,,,,,,,,,,,,,,,,,,,,,,,
,,67869fc436295171deaa52c9,2026-03-17_13h18.59.481,kallum_motion_pilot_GIST_update_2,2026.1.1,Win32,29.94011976,67869fc436295171deaa52c9,69b92ab4aef6dee357cd729a,69b9386e3bc83edcc3c9d75f,0.2616,0.2616,1,95,257,119,1,eightseven,,,,,,,,,,,,,,,,,,,,,,,,,,,,,,,,,,,,,,,,,,,,,,,,,,,,,,,,,,,,,,,,,,,,,,,,,,,,,,,,,,,,,,,,,,,,,,,,,,,,,,,,,,,,,,,,,,,,,,,,,,,,,,,,,,,,,,,,,
,,67869fc436295171deaa52c9,2026-03-17_13h18.59.481,kallum_motion_pilot_GIST_update_2,2026.1.1,Win32,29.94011976,67869fc436295171deaa52c9,69b92ab4aef6dee357cd729a,69b9386e3bc83edcc3c9d75f,0.2621,0.2622,1,96,258,3,1,twofour,,,,,,,,,,,,,,,,,,,,,,,,,,,,,,,,,,,,,,,,,,,,,,,,,,,,,,,,,,,,,,,,,,,,,,,,,,,,,,,,,,,,,,,,,,,,,,,,,,,,,,,,,,,,,,,,,,,,,,,,,,,,,,,,,,,,,,,,,
,,67869fc436295171deaa52c9,2026-03-17_13h18.59.481,kallum_motion_pilot_GIST_update_2,2026.1.1,Win32,29.94011976,67869fc436295171deaa52c9,69b92ab4aef6dee357cd729a,69b9386e3bc83edcc3c9d75f,0.2635,0.2636,1,97,259,151,1,eightseven,,,,,,,,,,,,,,,,,,,,,,,,,,,,,,,,,,,,,,,,,,,,,,,,,,,,,,,,,,,,,,,,,,,,,,,,,,,,,,,,,,,,,,,,,,,,,,,,,,,,,,,,,,,,,,,,,,,,,,,,,,,,,,,,,,,,,,,,,
,,67869fc436295171deaa52c9,2026-03-17_13h18.59.481,kallum_motion_pilot_GIST_update_2,2026.1.1,Win32,29.94011976,67869fc436295171deaa52c9,69b92ab4aef6dee357cd729a,69b9386e3bc83edcc3c9d75f,0.2641,0.2642,1,98,260,82,1,sixfive,,,,,,,,,,,,,,,,,,,,,,,,,,,,,,,,,,,,,,,,,,,,,,,,,,,,,,,,,,,,,,,,,,,,,,,,,,,,,,,,,,,,,,,,,,,,,,,,,,,,,,,,,,,,,,,,,,,,,,,,,,,,,,,,,,,,,,,,,
,,67869fc436295171deaa52c9,2026-03-17_13h18.59.481,kallum_motion_pilot_GIST_update_2,2026.1.1,Win32,29.94011976,67869fc436295171deaa52c9,69b92ab4aef6dee357cd729a,69b9386e3bc83edcc3c9d75f,0.2646,0.2647,1,99,261,79,1,eightseven,,,,,,,,,,,,,,,,,,,,,,,,,,,,,,,,,,,,,,,,,,,,,,,,,,,,,,,,,,,,,,,,,,,,,,,,,,,,,,,,,,,,,,,,,,,,,,,,,,,,,,,,,,,,,,,,,,,,,,,,,,,,,,,,,,,,,,,,,
,,67869fc436295171deaa52c9,2026-03-17_13h18.59.481,kallum_motion_pilot_GIST_update_2,2026.1.1,Win32,29.94011976,67869fc436295171deaa52c9,69b92ab4aef6dee357cd729a,69b9386e3bc83edcc3c9d75f,0.2652,0.2653,1,100,262,147,1,sixeight,,,,,,,,,,,,,,,,,,,,,,,,,,,,,,,,,,,,,,,,,,,,,,,,,,,,,,,,,,,,,,,,,,,,,,,,,,,,,,,,,,,,,,,,,,,,,,,,,,,,,,,,,,,,,,,,,,,,,,,,,,,,,,,,,,,,,,,,,
,,67869fc436295171deaa52c9,2026-03-17_13h18.59.481,kallum_motion_pilot_GIST_update_2,2026.1.1,Win32,29.94011976,67869fc436295171deaa52c9,69b92ab4aef6dee357cd729a,69b9386e3bc83edcc3c9d75f,0.2657,0.2658,1,101,263,121,1,fiveseven,,,,,,,,,,,,,,,,,,,,,,,,,,,,,,,,,,,,,,,,,,,,,,,,,,,,,,,,,,,,,,,,,,,,,,,,,,,,,,,,,,,,,,,,,,,,,,,,,,,,,,,,,,,,,,,,,,,,,,,,,,,,,,,,,,,,,,,,,
,,67869fc436295171deaa52c9,2026-03-17_13h18.59.481,kallum_motion_pilot_GIST_update_2,2026.1.1,Win32,29.94011976,67869fc436295171deaa52c9,69b92ab4aef6dee357cd729a,69b9386e3bc83edcc3c9d75f,0.267,0.267,1,102,264,48,1,onetwo,,,,,,,,,,,,,,,,,,,,,,,,,,,,,,,,,,,,,,,,,,,,,,,,,,,,,,,,,,,,,,,,,,,,,,,,,,,,,,,,,,,,,,,,,,,,,,,,,,,,,,,,,,,,,,,,,,,,,,,,,,,,,,,,,,,,,,,,,
,,67869fc436295171deaa52c9,2026-03-17_13h18.59.481,kallum_motion_pilot_GIST_update_2,2026.1.1,Win32,29.94011976,67869fc436295171deaa52c9,69b92ab4aef6dee357cd729a,69b9386e3bc83edcc3c9d75f,0.2675,0.2676,1,103,265,161,1,fiveseven,,,,,,,,,,,,,,,,,,,,,,,,,,,,,,,,,,,,,,,,,,,,,,,,,,,,,,,,,,,,,,,,,,,,,,,,,,,,,,,,,,,,,,,,,,,,,,,,,,,,,,,,,,,,,,,,,,,,,,,,,,,,,,,,,,,,,,,,,
,,67869fc436295171deaa52c9,2026-03-17_13h18.59.481,kallum_motion_pilot_GIST_update_2,2026.1.1,Win32,29.94011976,67869fc436295171deaa52c9,69b92ab4aef6dee357cd729a,69b9386e3bc83edcc3c9d75f,0.2681,0.2681,1,104,266,81,1,fiveseven,,,,,,,,,,,,,,,,,,,,,,,,,,,,,,,,,,,,,,,,,,,,,,,,,,,,,,,,,,,,,,,,,,,,,,,,,,,,,,,,,,,,,,,,,,,,,,,,,,,,,,,,,,,,,,,,,,,,,,,,,,,,,,,,,,,,,,,,,
