startup.started,startup.stopped,Prolific ID*,date,expName,psychopyVersion,OS,frameRate,participant,study_id,session,stimpositions.started,stimpositions.stopped,hardcoded_stimulus_positions.thisRepN,hardcoded_stimulus_positions.thisTrialN,hardcoded_stimulus_positions.thisN,hardcoded_stimulus_positions.thisIndex,hardcoded_stimulus_positions.ran,StimulusPos,stimorientation.started,stimorientation.stopped,prac_stimorientation_import_loop.thisRepN,prac_stimorientation_import_loop.thisTrialN,prac_stimorientation_import_loop.thisN,prac_stimorientation_import_loop.thisIndex,prac_stimorientation_import_loop.ran,Stimorientation,welcome_instr.started,welcome_instr.stopped,key_resp.keys,key_resp.rt,key_resp.duration,response_steppedout_1.started,response_steppedout_1.stopped,key_resp_20.keys,key_resp_20.rt,key_resp_20.duration,response_steppedout_2.started,response_steppedout_2.stopped,key_resp_19.keys,key_resp_19.rt,key_resp_19.duration,stim_response_instr.started,stim_response_instr.stopped,key_resp_15.keys,key_resp_15.rt,key_resp_15.duration,direction_instr_2.started,direction_instr_2.stopped,key_resp_9.keys,key_resp_9.rt,key_resp_9.duration,instr_prac.started,instr_prac.stopped,key_resp_10.keys,key_resp_10.rt,key_resp_10.duration,Stim1_display_prac.started,Stim1_display_prac.stopped,Ecc,Circle1_ori,Circle2_ori,response_prac.started,similarity,response_time,response_prac.stopped,mouse_5.x,mouse_5.y,mouse_5.leftButton,mouse_5.midButton,mouse_5.rightButton,mouse_5.clicked_name,responseprac_feedback.started,responseprac_feedback.stopped,summary2_prac.started,summary2_prac.stopped,mouse_6.x,mouse_6.y,mouse_6.leftButton,mouse_6.midButton,mouse_6.rightButton,mouse_6.clicked_name,duringprac.thisRepN,duringprac.thisTrialN,duringprac.thisN,duringprac.thisIndex,duringprac.ran,begin.started,begin.stopped,key_resp_22.keys,key_resp_22.rt,key_resp_22.duration,Stim1_display.started,Stim1_display.stopped,circle1_ori,circle2_ori,circle1_SF,circle2_SF,response.started,response.stopped,mouse.x,mouse.y,mouse.leftButton,mouse.midButton,mouse.rightButton,mouse.clicked_name,trialnumber,double_pass.thisRepN,double_pass.thisTrialN,double_pass.thisN,double_pass.thisIndex,double_pass.ran,double_pass.order,main_trial.thisRepN,main_trial.thisTrialN,main_trial.thisN,main_trial.thisIndex,main_trial.ran,main_trial.order,Trial_Counter,Catch,Frequencies,response_2.started,response_2.stopped,mouse_2.x,mouse_2.y,mouse_2.leftButton,mouse_2.midButton,mouse_2.rightButton,mouse_2.clicked_name,special_trial.started,special_trial.stopped,catch_1.started,catch_1.stopped,mouse_3.x,mouse_3.y,mouse_3.leftButton,mouse_3.midButton,mouse_3.rightButton,catchresponse,catchnumber,response_time_catch,response_sum.started,response_sum.stopped,mouse_11.x,mouse_11.y,mouse_11.leftButton,mouse_11.midButton,mouse_11.rightButton,flip_presentation_sequence_for_double_pass.started,flip_presentation_sequence_for_double_pass.stopped,goodbye.started,goodbye.stopped,key_resp_3.keys,key_resp_3.rt,key_resp_3.duration
0.0004,0.0007,67a95d468d14bd6324b4bbba,2026-03-17_06h23.36.956,kallum_motion_pilot_GIST_update_2,2026.1.1,Win32,59.88023952,67a95d468d14bd6324b4bbba,69b92ab4aef6dee357cd729a,69b92b4d5cc039aa7625260f,,,,,,,,,,,,,,,,,,,,,,,,,,,,,,,,,,,,,,,,,,,,,,,,,,,,,,,,,,,,,,,,,,,,,,,,,,,,,,,,,,,,,,,,,,,,,,,,,,,,,,,,,,,,,,,,,,,,,,,,,,,,,,,,,,,,,,,,,,,,,,,,,
,,67a95d468d14bd6324b4bbba,2026-03-17_06h23.36.956,kallum_motion_pilot_GIST_update_2,2026.1.1,Win32,59.88023952,67a95d468d14bd6324b4bbba,69b92ab4aef6dee357cd729a,69b92b4d5cc039aa7625260f,0.0342,0.0344,0,0,0,137,1,fiveseven,,,,,,,,,,,,,,,,,,,,,,,,,,,,,,,,,,,,,,,,,,,,,,,,,,,,,,,,,,,,,,,,,,,,,,,,,,,,,,,,,,,,,,,,,,,,,,,,,,,,,,,,,,,,,,,,,,,,,,,,,,,,,,,,,,,,,,,,,
,,67a95d468d14bd6324b4bbba,2026-03-17_06h23.36.956,kallum_motion_pilot_GIST_update_2,2026.1.1,Win32,59.88023952,67a95d468d14bd6324b4bbba,69b92ab4aef6dee357cd729a,69b92b4d5cc039aa7625260f,0.0347,0.0347,0,1,1,39,1,fourthree,,,,,,,,,,,,,,,,,,,,,,,,,,,,,,,,,,,,,,,,,,,,,,,,,,,,,,,,,,,,,,,,,,,,,,,,,,,,,,,,,,,,,,,,,,,,,,,,,,,,,,,,,,,,,,,,,,,,,,,,,,,,,,,,,,,,,,,,,
,,67a95d468d14bd6324b4bbba,2026-03-17_06h23.36.956,kallum_motion_pilot_GIST_update_2,2026.1.1,Win32,59.88023952,67a95d468d14bd6324b4bbba,69b92ab4aef6dee357cd729a,69b92b4d5cc039aa7625260f,0.035,0.035,0,2,2,126,1,eightsix,,,,,,,,,,,,,,,,,,,,,,,,,,,,,,,,,,,,,,,,,,,,,,,,,,,,,,,,,,,,,,,,,,,,,,,,,,,,,,,,,,,,,,,,,,,,,,,,,,,,,,,,,,,,,,,,,,,,,,,,,,,,,,,,,,,,,,,,,
,,67a95d468d14bd6324b4bbba,2026-03-17_06h23.36.956,kallum_motion_pilot_GIST_update_2,2026.1.1,Win32,59.88023952,67a95d468d14bd6324b4bbba,69b92ab4aef6dee357cd729a,69b92b4d5cc039aa7625260f,0.0353,0.0354,0,3,3,142,1,eightsix,,,,,,,,,,,,,,,,,,,,,,,,,,,,,,,,,,,,,,,,,,,,,,,,,,,,,,,,,,,,,,,,,,,,,,,,,,,,,,,,,,,,,,,,,,,,,,,,,,,,,,,,,,,,,,,,,,,,,,,,,,,,,,,,,,,,,,,,,
,,67a95d468d14bd6324b4bbba,2026-03-17_06h23.36.956,kallum_motion_pilot_GIST_update_2,2026.1.1,Win32,59.88023952,67a95d468d14bd6324b4bbba,69b92ab4aef6dee357cd729a,69b92b4d5cc039aa7625260f,0.0355,0.0355,0,4,4,68,1,threeone,,,,,,,,,,,,,,,,,,,,,,,,,,,,,,,,,,,,,,,,,,,,,,,,,,,,,,,,,,,,,,,,,,,,,,,,,,,,,,,,,,,,,,,,,,,,,,,,,,,,,,,,,,,,,,,,,,,,,,,,,,,,,,,,,,,,,,,,,
,,67a95d468d14bd6324b4bbba,2026-03-17_06h23.36.956,kallum_motion_pilot_GIST_update_2,2026.1.1,Win32,59.88023952,67a95d468d14bd6324b4bbba,69b92ab4aef6dee357cd729a,69b92b4d5cc039aa7625260f,0.0358,0.0358,0,5,5,7,1,fourthree,,,,,,,,,,,,,,,,,,,,,,,,,,,,,,,,,,,,,,,,,,,,,,,,,,,,,,,,,,,,,,,,,,,,,,,,,,,,,,,,,,,,,,,,,,,,,,,,,,,,,,,,,,,,,,,,,,,,,,,,,,,,,,,,,,,,,,,,,
,,67a95d468d14bd6324b4bbba,2026-03-17_06h23.36.956,kallum_motion_pilot_GIST_update_2,2026.1.1,Win32,59.88023952,67a95d468d14bd6324b4bbba,69b92ab4aef6dee357cd729a,69b92b4d5cc039aa7625260f,0.0361,0.0361,0,6,6,124,1,sevenfive,,,,,,,,,,,,,,,,,,,,,,,,,,,,,,,,,,,,,,,,,,,,,,,,,,,,,,,,,,,,,,,,,,,,,,,,,,,,,,,,,,,,,,,,,,,,,,,,,,,,,,,,,,,,,,,,,,,,,,,,,,,,,,,,,,,,,,,,,
,,67a95d468d14bd6324b4bbba,2026-03-17_06h23.36.956,kallum_motion_pilot_GIST_update_2,2026.1.1,Win32,59.88023952,67a95d468d14bd6324b4bbba,69b92ab4aef6dee357cd729a,69b92b4d5cc039aa7625260f,0.0363,0.0363,0,7,7,59,1,twofour,,,,,,,,,,,,,,,,,,,,,,,,,,,,,,,,,,,,,,,,,,,,,,,,,,,,,,,,,,,,,,,,,,,,,,,,,,,,,,,,,,,,,,,,,,,,,,,,,,,,,,,,,,,,,,,,,,,,,,,,,,,,,,,,,,,,,,,,,
,,67a95d468d14bd6324b4bbba,2026-03-17_06h23.36.956,kallum_motion_pilot_GIST_update_2,2026.1.1,Win32,59.88023952,67a95d468d14bd6324b4bbba,69b92ab4aef6dee357cd729a,69b92b4d5cc039aa7625260f,0.0366,0.0366,0,8,8,11,1,twofour,,,,,,,,,,,,,,,,,,,,,,,,,,,,,,,,,,,,,,,,,,,,,,,,,,,,,,,,,,,,,,,,,,,,,,,,,,,,,,,,,,,,,,,,,,,,,,,,,,,,,,,,,,,,,,,,,,,,,,,,,,,,,,,,,,,,,,,,,
,,67a95d468d14bd6324b4bbba,2026-03-17_06h23.36.956,kallum_motion_pilot_GIST_update_2,2026.1.1,Win32,59.88023952,67a95d468d14bd6324b4bbba,69b92ab4aef6dee357cd729a,69b92b4d5cc039aa7625260f,0.0368,0.0369,0,9,9,24,1,onetwo,,,,,,,,,,,,,,,,,,,,,,,,,,,,,,,,,,,,,,,,,,,,,,,,,,,,,,,,,,,,,,,,,,,,,,,,,,,,,,,,,,,,,,,,,,,,,,,,,,,,,,,,,,,,,,,,,,,,,,,,,,,,,,,,,,,,,,,,,
,,67a95d468d14bd6324b4bbba,2026-03-17_06h23.36.956,kallum_motion_pilot_GIST_update_2,2026.1.1,Win32,59.88023952,67a95d468d14bd6324b4bbba,69b92ab4aef6dee357cd729a,69b92b4d5cc039aa7625260f,0.0371,0.0371,0,10,10,120,1,fivesix,,,,,,,,,,,,,,,,,,,,,,,,,,,,,,,,,,,,,,,,,,,,,,,,,,,,,,,,,,,,,,,,,,,,,,,,,,,,,,,,,,,,,,,,,,,,,,,,,,,,,,,,,,,,,,,,,,,,,,,,,,,,,,,,,,,,,,,,,
,,67a95d468d14bd6324b4bbba,2026-03-17_06h23.36.956,kallum_motion_pilot_GIST_update_2,2026.1.1,Win32,59.88023952,67a95d468d14bd6324b4bbba,69b92ab4aef6dee357cd729a,69b92b4d5cc039aa7625260f,0.0374,0.0374,0,11,11,34,1,twoone,,,,,,,,,,,,,,,,,,,,,,,,,,,,,,,,,,,,,,,,,,,,,,,,,,,,,,,,,,,,,,,,,,,,,,,,,,,,,,,,,,,,,,,,,,,,,,,,,,,,,,,,,,,,,,,,,,,,,,,,,,,,,,,,,,,,,,,,,
,,67a95d468d14bd6324b4bbba,2026-03-17_06h23.36.956,kallum_motion_pilot_GIST_update_2,2026.1.1,Win32,59.88023952,67a95d468d14bd6324b4bbba,69b92ab4aef6dee357cd729a,69b92b4d5cc039aa7625260f,0.0375,0.0376,0,12,12,72,1,onetwo,,,,,,,,,,,,,,,,,,,,,,,,,,,,,,,,,,,,,,,,,,,,,,,,,,,,,,,,,,,,,,,,,,,,,,,,,,,,,,,,,,,,,,,,,,,,,,,,,,,,,,,,,,,,,,,,,,,,,,,,,,,,,,,,,,,,,,,,,
,,67a95d468d14bd6324b4bbba,2026-03-17_06h23.36.956,kallum_motion_pilot_GIST_update_2,2026.1.1,Win32,59.88023952,67a95d468d14bd6324b4bbba,69b92ab4aef6dee357cd729a,69b92b4d5cc039aa7625260f,0.0379,0.0379,0,13,13,158,1,eightsix,,,,,,,,,,,,,,,,,,,,,,,,,,,,,,,,,,,,,,,,,,,,,,,,,,,,,,,,,,,,,,,,,,,,,,,,,,,,,,,,,,,,,,,,,,,,,,,,,,,,,,,,,,,,,,,,,,,,,,,,,,,,,,,,,,,,,,,,,
,,67a95d468d14bd6324b4bbba,2026-03-17_06h23.36.956,kallum_motion_pilot_GIST_update_2,2026.1.1,Win32,59.88023952,67a95d468d14bd6324b4bbba,69b92ab4aef6dee357cd729a,69b92b4d5cc039aa7625260f,0.0381,0.0381,0,14,14,101,1,seveneight,,,,,,,,,,,,,,,,,,,,,,,,,,,,,,,,,,,,,,,,,,,,,,,,,,,,,,,,,,,,,,,,,,,,,,,,,,,,,,,,,,,,,,,,,,,,,,,,,,,,,,,,,,,,,,,,,,,,,,,,,,,,,,,,,,,,,,,,,
,,67a95d468d14bd6324b4bbba,2026-03-17_06h23.36.956,kallum_motion_pilot_GIST_update_2,2026.1.1,Win32,59.88023952,67a95d468d14bd6324b4bbba,69b92ab4aef6dee357cd729a,69b92b4d5cc039aa7625260f,0.0383,0.0383,0,15,15,100,1,sevenfive,,,,,,,,,,,,,,,,,,,,,,,,,,,,,,,,,,,,,,,,,,,,,,,,,,,,,,,,,,,,,,,,,,,,,,,,,,,,,,,,,,,,,,,,,,,,,,,,,,,,,,,,,,,,,,,,,,,,,,,,,,,,,,,,,,,,,,,,,
,,67a95d468d14bd6324b4bbba,2026-03-17_06h23.36.956,kallum_motion_pilot_GIST_update_2,2026.1.1,Win32,59.88023952,67a95d468d14bd6324b4bbba,69b92ab4aef6dee357cd729a,69b92b4d5cc039aa7625260f,0.0386,0.0386,0,16,16,107,1,sixeight,,,,,,,,,,,,,,,,,,,,,,,,,,,,,,,,,,,,,,,,,,,,,,,,,,,,,,,,,,,,,,,,,,,,,,,,,,,,,,,,,,,,,,,,,,,,,,,,,,,,,,,,,,,,,,,,,,,,,,,,,,,,,,,,,,,,,,,,,
,,67a95d468d14bd6324b4bbba,2026-03-17_06h23.36.956,kallum_motion_pilot_GIST_update_2,2026.1.1,Win32,59.88023952,67a95d468d14bd6324b4bbba,69b92ab4aef6dee357cd729a,69b92b4d5cc039aa7625260f,0.0387,0.0387,0,17,17,12,1,threeone,,,,,,,,,,,,,,,,,,,,,,,,,,,,,,,,,,,,,,,,,,,,,,,,,,,,,,,,,,,,,,,,,,,,,,,,,,,,,,,,,,,,,,,,,,,,,,,,,,,,,,,,,,,,,,,,,,,,,,,,,,,,,,,,,,,,,,,,,
,,67a95d468d14bd6324b4bbba,2026-03-17_06h23.36.956,kallum_motion_pilot_GIST_update_2,2026.1.1,Win32,59.88023952,67a95d468d14bd6324b4bbba,69b92ab4aef6dee357cd729a,69b92b4d5cc039aa7625260f,0.039,0.039,0,18,18,36,1,threeone,,,,,,,,,,,,,,,,,,,,,,,,,,,,,,,,,,,,,,,,,,,,,,,,,,,,,,,,,,,,,,,,,,,,,,,,,,,,,,,,,,,,,,,,,,,,,,,,,,,,,,,,,,,,,,,,,,,,,,,,,,,,,,,,,,,,,,,,,
,,67a95d468d14bd6324b4bbba,2026-03-17_06h23.36.956,kallum_motion_pilot_GIST_update_2,2026.1.1,Win32,59.88023952,67a95d468d14bd6324b4bbba,69b92ab4aef6dee357cd729a,69b92b4d5cc039aa7625260f,0.0392,0.0392,0,19,19,90,1,sixfive,,,,,,,,,,,,,,,,,,,,,,,,,,,,,,,,,,,,,,,,,,,,,,,,,,,,,,,,,,,,,,,,,,,,,,,,,,,,,,,,,,,,,,,,,,,,,,,,,,,,,,,,,,,,,,,,,,,,,,,,,,,,,,,,,,,,,,,,,
,,67a95d468d14bd6324b4bbba,2026-03-17_06h23.36.956,kallum_motion_pilot_GIST_update_2,2026.1.1,Win32,59.88023952,67a95d468d14bd6324b4bbba,69b92ab4aef6dee357cd729a,69b92b4d5cc039aa7625260f,0.0393,0.0394,0,20,20,98,1,sixfive,,,,,,,,,,,,,,,,,,,,,,,,,,,,,,,,,,,,,,,,,,,,,,,,,,,,,,,,,,,,,,,,,,,,,,,,,,,,,,,,,,,,,,,,,,,,,,,,,,,,,,,,,,,,,,,,,,,,,,,,,,,,,,,,,,,,,,,,,
,,67a95d468d14bd6324b4bbba,2026-03-17_06h23.36.956,kallum_motion_pilot_GIST_update_2,2026.1.1,Win32,59.88023952,67a95d468d14bd6324b4bbba,69b92ab4aef6dee357cd729a,69b92b4d5cc039aa7625260f,0.0396,0.0396,0,21,21,70,1,fourtwo,,,,,,,,,,,,,,,,,,,,,,,,,,,,,,,,,,,,,,,,,,,,,,,,,,,,,,,,,,,,,,,,,,,,,,,,,,,,,,,,,,,,,,,,,,,,,,,,,,,,,,,,,,,,,,,,,,,,,,,,,,,,,,,,,,,,,,,,,
,,67a95d468d14bd6324b4bbba,2026-03-17_06h23.36.956,kallum_motion_pilot_GIST_update_2,2026.1.1,Win32,59.88023952,67a95d468d14bd6324b4bbba,69b92ab4aef6dee357cd729a,69b92b4d5cc039aa7625260f,0.0399,0.0401,0,22,22,16,1,onetwo,,,,,,,,,,,,,,,,,,,,,,,,,,,,,,,,,,,,,,,,,,,,,,,,,,,,,,,,,,,,,,,,,,,,,,,,,,,,,,,,,,,,,,,,,,,,,,,,,,,,,,,,,,,,,,,,,,,,,,,,,,,,,,,,,,,,,,,,,
,,67a95d468d14bd6324b4bbba,2026-03-17_06h23.36.956,kallum_motion_pilot_GIST_update_2,2026.1.1,Win32,59.88023952,67a95d468d14bd6324b4bbba,69b92ab4aef6dee357cd729a,69b92b4d5cc039aa7625260f,0.0403,0.0403,0,23,23,4,1,threeone,,,,,,,,,,,,,,,,,,,,,,,,,,,,,,,,,,,,,,,,,,,,,,,,,,,,,,,,,,,,,,,,,,,,,,,,,,,,,,,,,,,,,,,,,,,,,,,,,,,,,,,,,,,,,,,,,,,,,,,,,,,,,,,,,,,,,,,,,
,,67a95d468d14bd6324b4bbba,2026-03-17_06h23.36.956,kallum_motion_pilot_GIST_update_2,2026.1.1,Win32,59.88023952,67a95d468d14bd6324b4bbba,69b92ab4aef6dee357cd729a,69b92b4d5cc039aa7625260f,0.0407,0.0407,0,24,24,141,1,seveneight,,,,,,,,,,,,,,,,,,,,,,,,,,,,,,,,,,,,,,,,,,,,,,,,,,,,,,,,,,,,,,,,,,,,,,,,,,,,,,,,,,,,,,,,,,,,,,,,,,,,,,,,,,,,,,,,,,,,,,,,,,,,,,,,,,,,,,,,,
,,67a95d468d14bd6324b4bbba,2026-03-17_06h23.36.956,kallum_motion_pilot_GIST_update_2,2026.1.1,Win32,59.88023952,67a95d468d14bd6324b4bbba,69b92ab4aef6dee357cd729a,69b92b4d5cc039aa7625260f,0.041,0.041,0,25,25,104,1,fivesix,,,,,,,,,,,,,,,,,,,,,,,,,,,,,,,,,,,,,,,,,,,,,,,,,,,,,,,,,,,,,,,,,,,,,,,,,,,,,,,,,,,,,,,,,,,,,,,,,,,,,,,,,,,,,,,,,,,,,,,,,,,,,,,,,,,,,,,,,
,,67a95d468d14bd6324b4bbba,2026-03-17_06h23.36.956,kallum_motion_pilot_GIST_update_2,2026.1.1,Win32,59.88023952,67a95d468d14bd6324b4bbba,69b92ab4aef6dee357cd729a,69b92b4d5cc039aa7625260f,0.0413,0.0413,0,26,26,38,1,fourtwo,,,,,,,,,,,,,,,,,,,,,,,,,,,,,,,,,,,,,,,,,,,,,,,,,,,,,,,,,,,,,,,,,,,,,,,,,,,,,,,,,,,,,,,,,,,,,,,,,,,,,,,,,,,,,,,,,,,,,,,,,,,,,,,,,,,,,,,,,
,,67a95d468d14bd6324b4bbba,2026-03-17_06h23.36.956,kallum_motion_pilot_GIST_update_2,2026.1.1,Win32,59.88023952,67a95d468d14bd6324b4bbba,69b92ab4aef6dee357cd729a,69b92b4d5cc039aa7625260f,0.0415,0.0415,0,27,27,58,1,twoone,,,,,,,,,,,,,,,,,,,,,,,,,,,,,,,,,,,,,,,,,,,,,,,,,,,,,,,,,,,,,,,,,,,,,,,,,,,,,,,,,,,,,,,,,,,,,,,,,,,,,,,,,,,,,,,,,,,,,,,,,,,,,,,,,,,,,,,,,
,,67a95d468d14bd6324b4bbba,2026-03-17_06h23.36.956,kallum_motion_pilot_GIST_update_2,2026.1.1,Win32,59.88023952,67a95d468d14bd6324b4bbba,69b92ab4aef6dee357cd729a,69b92b4d5cc039aa7625260f,0.0417,0.0417,0,28,28,153,1,fiveseven,,,,,,,,,,,,,,,,,,,,,,,,,,,,,,,,,,,,,,,,,,,,,,,,,,,,,,,,,,,,,,,,,,,,,,,,,,,,,,,,,,,,,,,,,,,,,,,,,,,,,,,,,,,,,,,,,,,,,,,,,,,,,,,,,,,,,,,,,
,,67a95d468d14bd6324b4bbba,2026-03-17_06h23.36.956,kallum_motion_pilot_GIST_update_2,2026.1.1,Win32,59.88023952,67a95d468d14bd6324b4bbba,69b92ab4aef6dee357cd729a,69b92b4d5cc039aa7625260f,0.0419,0.0419,0,29,29,116,1,sevenfive,,,,,,,,,,,,,,,,,,,,,,,,,,,,,,,,,,,,,,,,,,,,,,,,,,,,,,,,,,,,,,,,,,,,,,,,,,,,,,,,,,,,,,,,,,,,,,,,,,,,,,,,,,,,,,,,,,,,,,,,,,,,,,,,,,,,,,,,,
,,67a95d468d14bd6324b4bbba,2026-03-17_06h23.36.956,kallum_motion_pilot_GIST_update_2,2026.1.1,Win32,59.88023952,67a95d468d14bd6324b4bbba,69b92ab4aef6dee357cd729a,69b92b4d5cc039aa7625260f,0.0421,0.0421,0,30,30,136,1,fivesix,,,,,,,,,,,,,,,,,,,,,,,,,,,,,,,,,,,,,,,,,,,,,,,,,,,,,,,,,,,,,,,,,,,,,,,,,,,,,,,,,,,,,,,,,,,,,,,,,,,,,,,,,,,,,,,,,,,,,,,,,,,,,,,,,,,,,,,,,
,,67a95d468d14bd6324b4bbba,2026-03-17_06h23.36.956,kallum_motion_pilot_GIST_update_2,2026.1.1,Win32,59.88023952,67a95d468d14bd6324b4bbba,69b92ab4aef6dee357cd729a,69b92b4d5cc039aa7625260f,0.0423,0.0423,0,31,31,78,1,fourtwo,,,,,,,,,,,,,,,,,,,,,,,,,,,,,,,,,,,,,,,,,,,,,,,,,,,,,,,,,,,,,,,,,,,,,,,,,,,,,,,,,,,,,,,,,,,,,,,,,,,,,,,,,,,,,,,,,,,,,,,,,,,,,,,,,,,,,,,,,
,,67a95d468d14bd6324b4bbba,2026-03-17_06h23.36.956,kallum_motion_pilot_GIST_update_2,2026.1.1,Win32,59.88023952,67a95d468d14bd6324b4bbba,69b92ab4aef6dee357cd729a,69b92b4d5cc039aa7625260f,0.0425,0.0426,0,32,32,43,1,twofour,,,,,,,,,,,,,,,,,,,,,,,,,,,,,,,,,,,,,,,,,,,,,,,,,,,,,,,,,,,,,,,,,,,,,,,,,,,,,,,,,,,,,,,,,,,,,,,,,,,,,,,,,,,,,,,,,,,,,,,,,,,,,,,,,,,,,,,,,
,,67a95d468d14bd6324b4bbba,2026-03-17_06h23.36.956,kallum_motion_pilot_GIST_update_2,2026.1.1,Win32,59.88023952,67a95d468d14bd6324b4bbba,69b92ab4aef6dee357cd729a,69b92b4d5cc039aa7625260f,0.0428,0.0428,0,33,33,29,1,threefour,,,,,,,,,,,,,,,,,,,,,,,,,,,,,,,,,,,,,,,,,,,,,,,,,,,,,,,,,,,,,,,,,,,,,,,,,,,,,,,,,,,,,,,,,,,,,,,,,,,,,,,,,,,,,,,,,,,,,,,,,,,,,,,,,,,,,,,,,
,,67a95d468d14bd6324b4bbba,2026-03-17_06h23.36.956,kallum_motion_pilot_GIST_update_2,2026.1.1,Win32,59.88023952,67a95d468d14bd6324b4bbba,69b92ab4aef6dee357cd729a,69b92b4d5cc039aa7625260f,0.043,0.043,0,34,34,17,1,onethree,,,,,,,,,,,,,,,,,,,,,,,,,,,,,,,,,,,,,,,,,,,,,,,,,,,,,,,,,,,,,,,,,,,,,,,,,,,,,,,,,,,,,,,,,,,,,,,,,,,,,,,,,,,,,,,,,,,,,,,,,,,,,,,,,,,,,,,,,
,,67a95d468d14bd6324b4bbba,2026-03-17_06h23.36.956,kallum_motion_pilot_GIST_update_2,2026.1.1,Win32,59.88023952,67a95d468d14bd6324b4bbba,69b92ab4aef6dee357cd729a,69b92b4d5cc039aa7625260f,0.0432,0.0432,0,35,35,82,1,sixfive,,,,,,,,,,,,,,,,,,,,,,,,,,,,,,,,,,,,,,,,,,,,,,,,,,,,,,,,,,,,,,,,,,,,,,,,,,,,,,,,,,,,,,,,,,,,,,,,,,,,,,,,,,,,,,,,,,,,,,,,,,,,,,,,,,,,,,,,,
,,67a95d468d14bd6324b4bbba,2026-03-17_06h23.36.956,kallum_motion_pilot_GIST_update_2,2026.1.1,Win32,59.88023952,67a95d468d14bd6324b4bbba,69b92ab4aef6dee357cd729a,69b92b4d5cc039aa7625260f,0.0434,0.0434,0,36,36,88,1,fivesix,,,,,,,,,,,,,,,,,,,,,,,,,,,,,,,,,,,,,,,,,,,,,,,,,,,,,,,,,,,,,,,,,,,,,,,,,,,,,,,,,,,,,,,,,,,,,,,,,,,,,,,,,,,,,,,,,,,,,,,,,,,,,,,,,,,,,,,,,
,,67a95d468d14bd6324b4bbba,2026-03-17_06h23.36.956,kallum_motion_pilot_GIST_update_2,2026.1.1,Win32,59.88023952,67a95d468d14bd6324b4bbba,69b92ab4aef6dee357cd729a,69b92b4d5cc039aa7625260f,0.0436,0.0436,0,37,37,118,1,eightsix,,,,,,,,,,,,,,,,,,,,,,,,,,,,,,,,,,,,,,,,,,,,,,,,,,,,,,,,,,,,,,,,,,,,,,,,,,,,,,,,,,,,,,,,,,,,,,,,,,,,,,,,,,,,,,,,,,,,,,,,,,,,,,,,,,,,,,,,,
,,67a95d468d14bd6324b4bbba,2026-03-17_06h23.36.956,kallum_motion_pilot_GIST_update_2,2026.1.1,Win32,59.88023952,67a95d468d14bd6324b4bbba,69b92ab4aef6dee357cd729a,69b92b4d5cc039aa7625260f,0.0438,0.0438,0,38,38,77,1,threefour,,,,,,,,,,,,,,,,,,,,,,,,,,,,,,,,,,,,,,,,,,,,,,,,,,,,,,,,,,,,,,,,,,,,,,,,,,,,,,,,,,,,,,,,,,,,,,,,,,,,,,,,,,,,,,,,,,,,,,,,,,,,,,,,,,,,,,,,,
,,67a95d468d14bd6324b4bbba,2026-03-17_06h23.36.956,kallum_motion_pilot_GIST_update_2,2026.1.1,Win32,59.88023952,67a95d468d14bd6324b4bbba,69b92ab4aef6dee357cd729a,69b92b4d5cc039aa7625260f,0.044,0.044,0,39,39,109,1,seveneight,,,,,,,,,,,,,,,,,,,,,,,,,,,,,,,,,,,,,,,,,,,,,,,,,,,,,,,,,,,,,,,,,,,,,,,,,,,,,,,,,,,,,,,,,,,,,,,,,,,,,,,,,,,,,,,,,,,,,,,,,,,,,,,,,,,,,,,,,
,,67a95d468d14bd6324b4bbba,2026-03-17_06h23.36.956,kallum_motion_pilot_GIST_update_2,2026.1.1,Win32,59.88023952,67a95d468d14bd6324b4bbba,69b92ab4aef6dee357cd729a,69b92b4d5cc039aa7625260f,0.0443,0.0443,0,40,40,20,1,threeone,,,,,,,,,,,,,,,,,,,,,,,,,,,,,,,,,,,,,,,,,,,,,,,,,,,,,,,,,,,,,,,,,,,,,,,,,,,,,,,,,,,,,,,,,,,,,,,,,,,,,,,,,,,,,,,,,,,,,,,,,,,,,,,,,,,,,,,,,
,,67a95d468d14bd6324b4bbba,2026-03-17_06h23.36.956,kallum_motion_pilot_GIST_update_2,2026.1.1,Win32,59.88023952,67a95d468d14bd6324b4bbba,69b92ab4aef6dee357cd729a,69b92b4d5cc039aa7625260f,0.0444,0.0444,0,41,41,135,1,eightseven,,,,,,,,,,,,,,,,,,,,,,,,,,,,,,,,,,,,,,,,,,,,,,,,,,,,,,,,,,,,,,,,,,,,,,,,,,,,,,,,,,,,,,,,,,,,,,,,,,,,,,,,,,,,,,,,,,,,,,,,,,,,,,,,,,,,,,,,,
,,67a95d468d14bd6324b4bbba,2026-03-17_06h23.36.956,kallum_motion_pilot_GIST_update_2,2026.1.1,Win32,59.88023952,67a95d468d14bd6324b4bbba,69b92ab4aef6dee357cd729a,69b92b4d5cc039aa7625260f,0.0446,0.0446,0,42,42,97,1,fiveseven,,,,,,,,,,,,,,,,,,,,,,,,,,,,,,,,,,,,,,,,,,,,,,,,,,,,,,,,,,,,,,,,,,,,,,,,,,,,,,,,,,,,,,,,,,,,,,,,,,,,,,,,,,,,,,,,,,,,,,,,,,,,,,,,,,,,,,,,,
,,67a95d468d14bd6324b4bbba,2026-03-17_06h23.36.956,kallum_motion_pilot_GIST_update_2,2026.1.1,Win32,59.88023952,67a95d468d14bd6324b4bbba,69b92ab4aef6dee357cd729a,69b92b4d5cc039aa7625260f,0.0449,0.0449,0,43,43,46,1,fourtwo,,,,,,,,,,,,,,,,,,,,,,,,,,,,,,,,,,,,,,,,,,,,,,,,,,,,,,,,,,,,,,,,,,,,,,,,,,,,,,,,,,,,,,,,,,,,,,,,,,,,,,,,,,,,,,,,,,,,,,,,,,,,,,,,,,,,,,,,,
,,67a95d468d14bd6324b4bbba,2026-03-17_06h23.36.956,kallum_motion_pilot_GIST_update_2,2026.1.1,Win32,59.88023952,67a95d468d14bd6324b4bbba,69b92ab4aef6dee357cd729a,69b92b4d5cc039aa7625260f,0.045,0.0451,0,44,44,129,1,fiveseven,,,,,,,,,,,,,,,,,,,,,,,,,,,,,,,,,,,,,,,,,,,,,,,,,,,,,,,,,,,,,,,,,,,,,,,,,,,,,,,,,,,,,,,,,,,,,,,,,,,,,,,,,,,,,,,,,,,,,,,,,,,,,,,,,,,,,,,,,
,,67a95d468d14bd6324b4bbba,2026-03-17_06h23.36.956,kallum_motion_pilot_GIST_update_2,2026.1.1,Win32,59.88023952,67a95d468d14bd6324b4bbba,69b92ab4aef6dee357cd729a,69b92b4d5cc039aa7625260f,0.0453,0.0453,0,45,45,122,1,sixfive,,,,,,,,,,,,,,,,,,,,,,,,,,,,,,,,,,,,,,,,,,,,,,,,,,,,,,,,,,,,,,,,,,,,,,,,,,,,,,,,,,,,,,,,,,,,,,,,,,,,,,,,,,,,,,,,,,,,,,,,,,,,,,,,,,,,,,,,,
,,67a95d468d14bd6324b4bbba,2026-03-17_06h23.36.956,kallum_motion_pilot_GIST_update_2,2026.1.1,Win32,59.88023952,67a95d468d14bd6324b4bbba,69b92ab4aef6dee357cd729a,69b92b4d5cc039aa7625260f,0.0455,0.0455,0,46,46,93,1,seveneight,,,,,,,,,,,,,,,,,,,,,,,,,,,,,,,,,,,,,,,,,,,,,,,,,,,,,,,,,,,,,,,,,,,,,,,,,,,,,,,,,,,,,,,,,,,,,,,,,,,,,,,,,,,,,,,,,,,,,,,,,,,,,,,,,,,,,,,,,
,,67a95d468d14bd6324b4bbba,2026-03-17_06h23.36.956,kallum_motion_pilot_GIST_update_2,2026.1.1,Win32,59.88023952,67a95d468d14bd6324b4bbba,69b92ab4aef6dee357cd729a,69b92b4d5cc039aa7625260f,0.0457,0.0457,0,47,47,160,1,fivesix,,,,,,,,,,,,,,,,,,,,,,,,,,,,,,,,,,,,,,,,,,,,,,,,,,,,,,,,,,,,,,,,,,,,,,,,,,,,,,,,,,,,,,,,,,,,,,,,,,,,,,,,,,,,,,,,,,,,,,,,,,,,,,,,,,,,,,,,,
,,67a95d468d14bd6324b4bbba,2026-03-17_06h23.36.956,kallum_motion_pilot_GIST_update_2,2026.1.1,Win32,59.88023952,67a95d468d14bd6324b4bbba,69b92ab4aef6dee357cd729a,69b92b4d5cc039aa7625260f,0.046,0.046,0,48,48,61,1,threefour,,,,,,,,,,,,,,,,,,,,,,,,,,,,,,,,,,,,,,,,,,,,,,,,,,,,,,,,,,,,,,,,,,,,,,,,,,,,,,,,,,,,,,,,,,,,,,,,,,,,,,,,,,,,,,,,,,,,,,,,,,,,,,,,,,,,,,,,,
,,67a95d468d14bd6324b4bbba,2026-03-17_06h23.36.956,kallum_motion_pilot_GIST_update_2,2026.1.1,Win32,59.88023952,67a95d468d14bd6324b4bbba,69b92ab4aef6dee357cd729a,69b92b4d5cc039aa7625260f,0.0462,0.0462,0,49,49,89,1,fiveseven,,,,,,,,,,,,,,,,,,,,,,,,,,,,,,,,,,,,,,,,,,,,,,,,,,,,,,,,,,,,,,,,,,,,,,,,,,,,,,,,,,,,,,,,,,,,,,,,,,,,,,,,,,,,,,,,,,,,,,,,,,,,,,,,,,,,,,,,,
,,67a95d468d14bd6324b4bbba,2026-03-17_06h23.36.956,kallum_motion_pilot_GIST_update_2,2026.1.1,Win32,59.88023952,67a95d468d14bd6324b4bbba,69b92ab4aef6dee357cd729a,69b92b4d5cc039aa7625260f,0.0464,0.0464,0,50,50,64,1,onetwo,,,,,,,,,,,,,,,,,,,,,,,,,,,,,,,,,,,,,,,,,,,,,,,,,,,,,,,,,,,,,,,,,,,,,,,,,,,,,,,,,,,,,,,,,,,,,,,,,,,,,,,,,,,,,,,,,,,,,,,,,,,,,,,,,,,,,,,,,
,,67a95d468d14bd6324b4bbba,2026-03-17_06h23.36.956,kallum_motion_pilot_GIST_update_2,2026.1.1,Win32,59.88023952,67a95d468d14bd6324b4bbba,69b92ab4aef6dee357cd729a,69b92b4d5cc039aa7625260f,0.0467,0.0467,0,51,51,74,1,twoone,,,,,,,,,,,,,,,,,,,,,,,,,,,,,,,,,,,,,,,,,,,,,,,,,,,,,,,,,,,,,,,,,,,,,,,,,,,,,,,,,,,,,,,,,,,,,,,,,,,,,,,,,,,,,,,,,,,,,,,,,,,,,,,,,,,,,,,,,
,,67a95d468d14bd6324b4bbba,2026-03-17_06h23.36.956,kallum_motion_pilot_GIST_update_2,2026.1.1,Win32,59.88023952,67a95d468d14bd6324b4bbba,69b92ab4aef6dee357cd729a,69b92b4d5cc039aa7625260f,0.047,0.047,0,52,52,84,1,sevenfive,,,,,,,,,,,,,,,,,,,,,,,,,,,,,,,,,,,,,,,,,,,,,,,,,,,,,,,,,,,,,,,,,,,,,,,,,,,,,,,,,,,,,,,,,,,,,,,,,,,,,,,,,,,,,,,,,,,,,,,,,,,,,,,,,,,,,,,,,
,,67a95d468d14bd6324b4bbba,2026-03-17_06h23.36.956,kallum_motion_pilot_GIST_update_2,2026.1.1,Win32,59.88023952,67a95d468d14bd6324b4bbba,69b92ab4aef6dee357cd729a,69b92b4d5cc039aa7625260f,0.0473,0.0473,0,53,53,65,1,onethree,,,,,,,,,,,,,,,,,,,,,,,,,,,,,,,,,,,,,,,,,,,,,,,,,,,,,,,,,,,,,,,,,,,,,,,,,,,,,,,,,,,,,,,,,,,,,,,,,,,,,,,,,,,,,,,,,,,,,,,,,,,,,,,,,,,,,,,,,
,,67a95d468d14bd6324b4bbba,2026-03-17_06h23.36.956,kallum_motion_pilot_GIST_update_2,2026.1.1,Win32,59.88023952,67a95d468d14bd6324b4bbba,69b92ab4aef6dee357cd729a,69b92b4d5cc039aa7625260f,0.0475,0.0475,0,54,54,23,1,fourthree,,,,,,,,,,,,,,,,,,,,,,,,,,,,,,,,,,,,,,,,,,,,,,,,,,,,,,,,,,,,,,,,,,,,,,,,,,,,,,,,,,,,,,,,,,,,,,,,,,,,,,,,,,,,,,,,,,,,,,,,,,,,,,,,,,,,,,,,,
,,67a95d468d14bd6324b4bbba,2026-03-17_06h23.36.956,kallum_motion_pilot_GIST_update_2,2026.1.1,Win32,59.88023952,67a95d468d14bd6324b4bbba,69b92ab4aef6dee357cd729a,69b92b4d5cc039aa7625260f,0.0478,0.0478,0,55,55,14,1,fourtwo,,,,,,,,,,,,,,,,,,,,,,,,,,,,,,,,,,,,,,,,,,,,,,,,,,,,,,,,,,,,,,,,,,,,,,,,,,,,,,,,,,,,,,,,,,,,,,,,,,,,,,,,,,,,,,,,,,,,,,,,,,,,,,,,,,,,,,,,,
,,67a95d468d14bd6324b4bbba,2026-03-17_06h23.36.956,kallum_motion_pilot_GIST_update_2,2026.1.1,Win32,59.88023952,67a95d468d14bd6324b4bbba,69b92ab4aef6dee357cd729a,69b92b4d5cc039aa7625260f,0.048,0.048,0,56,56,130,1,sixfive,,,,,,,,,,,,,,,,,,,,,,,,,,,,,,,,,,,,,,,,,,,,,,,,,,,,,,,,,,,,,,,,,,,,,,,,,,,,,,,,,,,,,,,,,,,,,,,,,,,,,,,,,,,,,,,,,,,,,,,,,,,,,,,,,,,,,,,,,
,,67a95d468d14bd6324b4bbba,2026-03-17_06h23.36.956,kallum_motion_pilot_GIST_update_2,2026.1.1,Win32,59.88023952,67a95d468d14bd6324b4bbba,69b92ab4aef6dee357cd729a,69b92b4d5cc039aa7625260f,0.0484,0.0484,0,57,57,42,1,twoone,,,,,,,,,,,,,,,,,,,,,,,,,,,,,,,,,,,,,,,,,,,,,,,,,,,,,,,,,,,,,,,,,,,,,,,,,,,,,,,,,,,,,,,,,,,,,,,,,,,,,,,,,,,,,,,,,,,,,,,,,,,,,,,,,,,,,,,,,
,,67a95d468d14bd6324b4bbba,2026-03-17_06h23.36.956,kallum_motion_pilot_GIST_update_2,2026.1.1,Win32,59.88023952,67a95d468d14bd6324b4bbba,69b92ab4aef6dee357cd729a,69b92b4d5cc039aa7625260f,0.0487,0.0487,0,58,58,56,1,onetwo,,,,,,,,,,,,,,,,,,,,,,,,,,,,,,,,,,,,,,,,,,,,,,,,,,,,,,,,,,,,,,,,,,,,,,,,,,,,,,,,,,,,,,,,,,,,,,,,,,,,,,,,,,,,,,,,,,,,,,,,,,,,,,,,,,,,,,,,,
,,67a95d468d14bd6324b4bbba,2026-03-17_06h23.36.956,kallum_motion_pilot_GIST_update_2,2026.1.1,Win32,59.88023952,67a95d468d14bd6324b4bbba,69b92ab4aef6dee357cd729a,69b92b4d5cc039aa7625260f,0.049,0.049,0,59,59,54,1,fourtwo,,,,,,,,,,,,,,,,,,,,,,,,,,,,,,,,,,,,,,,,,,,,,,,,,,,,,,,,,,,,,,,,,,,,,,,,,,,,,,,,,,,,,,,,,,,,,,,,,,,,,,,,,,,,,,,,,,,,,,,,,,,,,,,,,,,,,,,,,
,,67a95d468d14bd6324b4bbba,2026-03-17_06h23.36.956,kallum_motion_pilot_GIST_update_2,2026.1.1,Win32,59.88023952,67a95d468d14bd6324b4bbba,69b92ab4aef6dee357cd729a,69b92b4d5cc039aa7625260f,0.0491,0.0492,0,60,60,99,1,sixeight,,,,,,,,,,,,,,,,,,,,,,,,,,,,,,,,,,,,,,,,,,,,,,,,,,,,,,,,,,,,,,,,,,,,,,,,,,,,,,,,,,,,,,,,,,,,,,,,,,,,,,,,,,,,,,,,,,,,,,,,,,,,,,,,,,,,,,,,,
,,67a95d468d14bd6324b4bbba,2026-03-17_06h23.36.956,kallum_motion_pilot_GIST_update_2,2026.1.1,Win32,59.88023952,67a95d468d14bd6324b4bbba,69b92ab4aef6dee357cd729a,69b92b4d5cc039aa7625260f,0.0494,0.0494,0,61,61,148,1,sevenfive,,,,,,,,,,,,,,,,,,,,,,,,,,,,,,,,,,,,,,,,,,,,,,,,,,,,,,,,,,,,,,,,,,,,,,,,,,,,,,,,,,,,,,,,,,,,,,,,,,,,,,,,,,,,,,,,,,,,,,,,,,,,,,,,,,,,,,,,,
,,67a95d468d14bd6324b4bbba,2026-03-17_06h23.36.956,kallum_motion_pilot_GIST_update_2,2026.1.1,Win32,59.88023952,67a95d468d14bd6324b4bbba,69b92ab4aef6dee357cd729a,69b92b4d5cc039aa7625260f,0.0496,0.0496,0,62,62,123,1,sixeight,,,,,,,,,,,,,,,,,,,,,,,,,,,,,,,,,,,,,,,,,,,,,,,,,,,,,,,,,,,,,,,,,,,,,,,,,,,,,,,,,,,,,,,,,,,,,,,,,,,,,,,,,,,,,,,,,,,,,,,,,,,,,,,,,,,,,,,,,
,,67a95d468d14bd6324b4bbba,2026-03-17_06h23.36.956,kallum_motion_pilot_GIST_update_2,2026.1.1,Win32,59.88023952,67a95d468d14bd6324b4bbba,69b92ab4aef6dee357cd729a,69b92b4d5cc039aa7625260f,0.0498,0.0499,0,63,63,2,1,twoone,,,,,,,,,,,,,,,,,,,,,,,,,,,,,,,,,,,,,,,,,,,,,,,,,,,,,,,,,,,,,,,,,,,,,,,,,,,,,,,,,,,,,,,,,,,,,,,,,,,,,,,,,,,,,,,,,,,,,,,,,,,,,,,,,,,,,,,,,
,,67a95d468d14bd6324b4bbba,2026-03-17_06h23.36.956,kallum_motion_pilot_GIST_update_2,2026.1.1,Win32,59.88023952,67a95d468d14bd6324b4bbba,69b92ab4aef6dee357cd729a,69b92b4d5cc039aa7625260f,0.0502,0.0502,0,64,64,113,1,fiveseven,,,,,,,,,,,,,,,,,,,,,,,,,,,,,,,,,,,,,,,,,,,,,,,,,,,,,,,,,,,,,,,,,,,,,,,,,,,,,,,,,,,,,,,,,,,,,,,,,,,,,,,,,,,,,,,,,,,,,,,,,,,,,,,,,,,,,,,,,
,,67a95d468d14bd6324b4bbba,2026-03-17_06h23.36.956,kallum_motion_pilot_GIST_update_2,2026.1.1,Win32,59.88023952,67a95d468d14bd6324b4bbba,69b92ab4aef6dee357cd729a,69b92b4d5cc039aa7625260f,0.0504,0.0505,0,65,65,145,1,fiveseven,,,,,,,,,,,,,,,,,,,,,,,,,,,,,,,,,,,,,,,,,,,,,,,,,,,,,,,,,,,,,,,,,,,,,,,,,,,,,,,,,,,,,,,,,,,,,,,,,,,,,,,,,,,,,,,,,,,,,,,,,,,,,,,,,,,,,,,,,
,,67a95d468d14bd6324b4bbba,2026-03-17_06h23.36.956,kallum_motion_pilot_GIST_update_2,2026.1.1,Win32,59.88023952,67a95d468d14bd6324b4bbba,69b92ab4aef6dee357cd729a,69b92b4d5cc039aa7625260f,0.0506,0.0507,0,66,66,33,1,onethree,,,,,,,,,,,,,,,,,,,,,,,,,,,,,,,,,,,,,,,,,,,,,,,,,,,,,,,,,,,,,,,,,,,,,,,,,,,,,,,,,,,,,,,,,,,,,,,,,,,,,,,,,,,,,,,,,,,,,,,,,,,,,,,,,,,,,,,,,
,,67a95d468d14bd6324b4bbba,2026-03-17_06h23.36.956,kallum_motion_pilot_GIST_update_2,2026.1.1,Win32,59.88023952,67a95d468d14bd6324b4bbba,69b92ab4aef6dee357cd729a,69b92b4d5cc039aa7625260f,0.0509,0.0509,0,67,67,3,1,twofour,,,,,,,,,,,,,,,,,,,,,,,,,,,,,,,,,,,,,,,,,,,,,,,,,,,,,,,,,,,,,,,,,,,,,,,,,,,,,,,,,,,,,,,,,,,,,,,,,,,,,,,,,,,,,,,,,,,,,,,,,,,,,,,,,,,,,,,,,
,,67a95d468d14bd6324b4bbba,2026-03-17_06h23.36.956,kallum_motion_pilot_GIST_update_2,2026.1.1,Win32,59.88023952,67a95d468d14bd6324b4bbba,69b92ab4aef6dee357cd729a,69b92b4d5cc039aa7625260f,0.0512,0.0512,0,68,68,149,1,seveneight,,,,,,,,,,,,,,,,,,,,,,,,,,,,,,,,,,,,,,,,,,,,,,,,,,,,,,,,,,,,,,,,,,,,,,,,,,,,,,,,,,,,,,,,,,,,,,,,,,,,,,,,,,,,,,,,,,,,,,,,,,,,,,,,,,,,,,,,,
,,67a95d468d14bd6324b4bbba,2026-03-17_06h23.36.956,kallum_motion_pilot_GIST_update_2,2026.1.1,Win32,59.88023952,67a95d468d14bd6324b4bbba,69b92ab4aef6dee357cd729a,69b92b4d5cc039aa7625260f,0.0514,0.0514,0,69,69,83,1,sixeight,,,,,,,,,,,,,,,,,,,,,,,,,,,,,,,,,,,,,,,,,,,,,,,,,,,,,,,,,,,,,,,,,,,,,,,,,,,,,,,,,,,,,,,,,,,,,,,,,,,,,,,,,,,,,,,,,,,,,,,,,,,,,,,,,,,,,,,,,
,,67a95d468d14bd6324b4bbba,2026-03-17_06h23.36.956,kallum_motion_pilot_GIST_update_2,2026.1.1,Win32,59.88023952,67a95d468d14bd6324b4bbba,69b92ab4aef6dee357cd729a,69b92b4d5cc039aa7625260f,0.0517,0.0517,0,70,70,146,1,sixfive,,,,,,,,,,,,,,,,,,,,,,,,,,,,,,,,,,,,,,,,,,,,,,,,,,,,,,,,,,,,,,,,,,,,,,,,,,,,,,,,,,,,,,,,,,,,,,,,,,,,,,,,,,,,,,,,,,,,,,,,,,,,,,,,,,,,,,,,,
,,67a95d468d14bd6324b4bbba,2026-03-17_06h23.36.956,kallum_motion_pilot_GIST_update_2,2026.1.1,Win32,59.88023952,67a95d468d14bd6324b4bbba,69b92ab4aef6dee357cd729a,69b92b4d5cc039aa7625260f,0.052,0.052,0,71,71,41,1,onethree,,,,,,,,,,,,,,,,,,,,,,,,,,,,,,,,,,,,,,,,,,,,,,,,,,,,,,,,,,,,,,,,,,,,,,,,,,,,,,,,,,,,,,,,,,,,,,,,,,,,,,,,,,,,,,,,,,,,,,,,,,,,,,,,,,,,,,,,,
,,67a95d468d14bd6324b4bbba,2026-03-17_06h23.36.956,kallum_motion_pilot_GIST_update_2,2026.1.1,Win32,59.88023952,67a95d468d14bd6324b4bbba,69b92ab4aef6dee357cd729a,69b92b4d5cc039aa7625260f,0.0521,0.0521,0,72,72,53,1,threefour,,,,,,,,,,,,,,,,,,,,,,,,,,,,,,,,,,,,,,,,,,,,,,,,,,,,,,,,,,,,,,,,,,,,,,,,,,,,,,,,,,,,,,,,,,,,,,,,,,,,,,,,,,,,,,,,,,,,,,,,,,,,,,,,,,,,,,,,,
,,67a95d468d14bd6324b4bbba,2026-03-17_06h23.36.956,kallum_motion_pilot_GIST_update_2,2026.1.1,Win32,59.88023952,67a95d468d14bd6324b4bbba,69b92ab4aef6dee357cd729a,69b92b4d5cc039aa7625260f,0.0524,0.0524,0,73,73,102,1,eightsix,,,,,,,,,,,,,,,,,,,,,,,,,,,,,,,,,,,,,,,,,,,,,,,,,,,,,,,,,,,,,,,,,,,,,,,,,,,,,,,,,,,,,,,,,,,,,,,,,,,,,,,,,,,,,,,,,,,,,,,,,,,,,,,,,,,,,,,,,
,,67a95d468d14bd6324b4bbba,2026-03-17_06h23.36.956,kallum_motion_pilot_GIST_update_2,2026.1.1,Win32,59.88023952,67a95d468d14bd6324b4bbba,69b92ab4aef6dee357cd729a,69b92b4d5cc039aa7625260f,0.0526,0.0526,0,74,74,94,1,eightsix,,,,,,,,,,,,,,,,,,,,,,,,,,,,,,,,,,,,,,,,,,,,,,,,,,,,,,,,,,,,,,,,,,,,,,,,,,,,,,,,,,,,,,,,,,,,,,,,,,,,,,,,,,,,,,,,,,,,,,,,,,,,,,,,,,,,,,,,,
,,67a95d468d14bd6324b4bbba,2026-03-17_06h23.36.956,kallum_motion_pilot_GIST_update_2,2026.1.1,Win32,59.88023952,67a95d468d14bd6324b4bbba,69b92ab4aef6dee357cd729a,69b92b4d5cc039aa7625260f,0.0528,0.0529,0,75,75,96,1,fivesix,,,,,,,,,,,,,,,,,,,,,,,,,,,,,,,,,,,,,,,,,,,,,,,,,,,,,,,,,,,,,,,,,,,,,,,,,,,,,,,,,,,,,,,,,,,,,,,,,,,,,,,,,,,,,,,,,,,,,,,,,,,,,,,,,,,,,,,,,
,,67a95d468d14bd6324b4bbba,2026-03-17_06h23.36.956,kallum_motion_pilot_GIST_update_2,2026.1.1,Win32,59.88023952,67a95d468d14bd6324b4bbba,69b92ab4aef6dee357cd729a,69b92b4d5cc039aa7625260f,0.053,0.0531,0,76,76,147,1,sixeight,,,,,,,,,,,,,,,,,,,,,,,,,,,,,,,,,,,,,,,,,,,,,,,,,,,,,,,,,,,,,,,,,,,,,,,,,,,,,,,,,,,,,,,,,,,,,,,,,,,,,,,,,,,,,,,,,,,,,,,,,,,,,,,,,,,,,,,,,
,,67a95d468d14bd6324b4bbba,2026-03-17_06h23.36.956,kallum_motion_pilot_GIST_update_2,2026.1.1,Win32,59.88023952,67a95d468d14bd6324b4bbba,69b92ab4aef6dee357cd729a,69b92b4d5cc039aa7625260f,0.0533,0.0533,0,77,77,63,1,fourthree,,,,,,,,,,,,,,,,,,,,,,,,,,,,,,,,,,,,,,,,,,,,,,,,,,,,,,,,,,,,,,,,,,,,,,,,,,,,,,,,,,,,,,,,,,,,,,,,,,,,,,,,,,,,,,,,,,,,,,,,,,,,,,,,,,,,,,,,,
,,67a95d468d14bd6324b4bbba,2026-03-17_06h23.36.956,kallum_motion_pilot_GIST_update_2,2026.1.1,Win32,59.88023952,67a95d468d14bd6324b4bbba,69b92ab4aef6dee357cd729a,69b92b4d5cc039aa7625260f,0.0536,0.0536,0,78,78,6,1,fourtwo,,,,,,,,,,,,,,,,,,,,,,,,,,,,,,,,,,,,,,,,,,,,,,,,,,,,,,,,,,,,,,,,,,,,,,,,,,,,,,,,,,,,,,,,,,,,,,,,,,,,,,,,,,,,,,,,,,,,,,,,,,,,,,,,,,,,,,,,,
,,67a95d468d14bd6324b4bbba,2026-03-17_06h23.36.956,kallum_motion_pilot_GIST_update_2,2026.1.1,Win32,59.88023952,67a95d468d14bd6324b4bbba,69b92ab4aef6dee357cd729a,69b92b4d5cc039aa7625260f,0.0538,0.0538,0,79,79,133,1,seveneight,,,,,,,,,,,,,,,,,,,,,,,,,,,,,,,,,,,,,,,,,,,,,,,,,,,,,,,,,,,,,,,,,,,,,,,,,,,,,,,,,,,,,,,,,,,,,,,,,,,,,,,,,,,,,,,,,,,,,,,,,,,,,,,,,,,,,,,,,
,,67a95d468d14bd6324b4bbba,2026-03-17_06h23.36.956,kallum_motion_pilot_GIST_update_2,2026.1.1,Win32,59.88023952,67a95d468d14bd6324b4bbba,69b92ab4aef6dee357cd729a,69b92b4d5cc039aa7625260f,0.054,0.054,0,80,80,159,1,eightseven,,,,,,,,,,,,,,,,,,,,,,,,,,,,,,,,,,,,,,,,,,,,,,,,,,,,,,,,,,,,,,,,,,,,,,,,,,,,,,,,,,,,,,,,,,,,,,,,,,,,,,,,,,,,,,,,,,,,,,,,,,,,,,,,,,,,,,,,,
,,67a95d468d14bd6324b4bbba,2026-03-17_06h23.36.956,kallum_motion_pilot_GIST_update_2,2026.1.1,Win32,59.88023952,67a95d468d14bd6324b4bbba,69b92ab4aef6dee357cd729a,69b92b4d5cc039aa7625260f,0.0542,0.0543,0,81,81,22,1,fourtwo,,,,,,,,,,,,,,,,,,,,,,,,,,,,,,,,,,,,,,,,,,,,,,,,,,,,,,,,,,,,,,,,,,,,,,,,,,,,,,,,,,,,,,,,,,,,,,,,,,,,,,,,,,,,,,,,,,,,,,,,,,,,,,,,,,,,,,,,,
,,67a95d468d14bd6324b4bbba,2026-03-17_06h23.36.956,kallum_motion_pilot_GIST_update_2,2026.1.1,Win32,59.88023952,67a95d468d14bd6324b4bbba,69b92ab4aef6dee357cd729a,69b92b4d5cc039aa7625260f,0.0545,0.0545,0,82,82,9,1,onethree,,,,,,,,,,,,,,,,,,,,,,,,,,,,,,,,,,,,,,,,,,,,,,,,,,,,,,,,,,,,,,,,,,,,,,,,,,,,,,,,,,,,,,,,,,,,,,,,,,,,,,,,,,,,,,,,,,,,,,,,,,,,,,,,,,,,,,,,,
,,67a95d468d14bd6324b4bbba,2026-03-17_06h23.36.956,kallum_motion_pilot_GIST_update_2,2026.1.1,Win32,59.88023952,67a95d468d14bd6324b4bbba,69b92ab4aef6dee357cd729a,69b92b4d5cc039aa7625260f,0.0546,0.0546,0,83,83,62,1,fourtwo,,,,,,,,,,,,,,,,,,,,,,,,,,,,,,,,,,,,,,,,,,,,,,,,,,,,,,,,,,,,,,,,,,,,,,,,,,,,,,,,,,,,,,,,,,,,,,,,,,,,,,,,,,,,,,,,,,,,,,,,,,,,,,,,,,,,,,,,,
,,67a95d468d14bd6324b4bbba,2026-03-17_06h23.36.956,kallum_motion_pilot_GIST_update_2,2026.1.1,Win32,59.88023952,67a95d468d14bd6324b4bbba,69b92ab4aef6dee357cd729a,69b92b4d5cc039aa7625260f,0.0549,0.0549,0,84,84,15,1,fourthree,,,,,,,,,,,,,,,,,,,,,,,,,,,,,,,,,,,,,,,,,,,,,,,,,,,,,,,,,,,,,,,,,,,,,,,,,,,,,,,,,,,,,,,,,,,,,,,,,,,,,,,,,,,,,,,,,,,,,,,,,,,,,,,,,,,,,,,,,
,,67a95d468d14bd6324b4bbba,2026-03-17_06h23.36.956,kallum_motion_pilot_GIST_update_2,2026.1.1,Win32,59.88023952,67a95d468d14bd6324b4bbba,69b92ab4aef6dee357cd729a,69b92b4d5cc039aa7625260f,0.0552,0.0552,0,85,85,125,1,seveneight,,,,,,,,,,,,,,,,,,,,,,,,,,,,,,,,,,,,,,,,,,,,,,,,,,,,,,,,,,,,,,,,,,,,,,,,,,,,,,,,,,,,,,,,,,,,,,,,,,,,,,,,,,,,,,,,,,,,,,,,,,,,,,,,,,,,,,,,,
,,67a95d468d14bd6324b4bbba,2026-03-17_06h23.36.956,kallum_motion_pilot_GIST_update_2,2026.1.1,Win32,59.88023952,67a95d468d14bd6324b4bbba,69b92ab4aef6dee357cd729a,69b92b4d5cc039aa7625260f,0.0554,0.0554,0,86,86,75,1,twofour,,,,,,,,,,,,,,,,,,,,,,,,,,,,,,,,,,,,,,,,,,,,,,,,,,,,,,,,,,,,,,,,,,,,,,,,,,,,,,,,,,,,,,,,,,,,,,,,,,,,,,,,,,,,,,,,,,,,,,,,,,,,,,,,,,,,,,,,,
,,67a95d468d14bd6324b4bbba,2026-03-17_06h23.36.956,kallum_motion_pilot_GIST_update_2,2026.1.1,Win32,59.88023952,67a95d468d14bd6324b4bbba,69b92ab4aef6dee357cd729a,69b92b4d5cc039aa7625260f,0.0557,0.0557,0,87,87,92,1,sevenfive,,,,,,,,,,,,,,,,,,,,,,,,,,,,,,,,,,,,,,,,,,,,,,,,,,,,,,,,,,,,,,,,,,,,,,,,,,,,,,,,,,,,,,,,,,,,,,,,,,,,,,,,,,,,,,,,,,,,,,,,,,,,,,,,,,,,,,,,,
,,67a95d468d14bd6324b4bbba,2026-03-17_06h23.36.956,kallum_motion_pilot_GIST_update_2,2026.1.1,Win32,59.88023952,67a95d468d14bd6324b4bbba,69b92ab4aef6dee357cd729a,69b92b4d5cc039aa7625260f,0.0559,0.0559,0,88,88,115,1,sixeight,,,,,,,,,,,,,,,,,,,,,,,,,,,,,,,,,,,,,,,,,,,,,,,,,,,,,,,,,,,,,,,,,,,,,,,,,,,,,,,,,,,,,,,,,,,,,,,,,,,,,,,,,,,,,,,,,,,,,,,,,,,,,,,,,,,,,,,,,
,,67a95d468d14bd6324b4bbba,2026-03-17_06h23.36.956,kallum_motion_pilot_GIST_update_2,2026.1.1,Win32,59.88023952,67a95d468d14bd6324b4bbba,69b92ab4aef6dee357cd729a,69b92b4d5cc039aa7625260f,0.0561,0.0561,0,89,89,67,1,twofour,,,,,,,,,,,,,,,,,,,,,,,,,,,,,,,,,,,,,,,,,,,,,,,,,,,,,,,,,,,,,,,,,,,,,,,,,,,,,,,,,,,,,,,,,,,,,,,,,,,,,,,,,,,,,,,,,,,,,,,,,,,,,,,,,,,,,,,,,
,,67a95d468d14bd6324b4bbba,2026-03-17_06h23.36.956,kallum_motion_pilot_GIST_update_2,2026.1.1,Win32,59.88023952,67a95d468d14bd6324b4bbba,69b92ab4aef6dee357cd729a,69b92b4d5cc039aa7625260f,0.0565,0.0565,0,90,90,37,1,threefour,,,,,,,,,,,,,,,,,,,,,,,,,,,,,,,,,,,,,,,,,,,,,,,,,,,,,,,,,,,,,,,,,,,,,,,,,,,,,,,,,,,,,,,,,,,,,,,,,,,,,,,,,,,,,,,,,,,,,,,,,,,,,,,,,,,,,,,,,
,,67a95d468d14bd6324b4bbba,2026-03-17_06h23.36.956,kallum_motion_pilot_GIST_update_2,2026.1.1,Win32,59.88023952,67a95d468d14bd6324b4bbba,69b92ab4aef6dee357cd729a,69b92b4d5cc039aa7625260f,0.0568,0.0568,0,91,91,156,1,sevenfive,,,,,,,,,,,,,,,,,,,,,,,,,,,,,,,,,,,,,,,,,,,,,,,,,,,,,,,,,,,,,,,,,,,,,,,,,,,,,,,,,,,,,,,,,,,,,,,,,,,,,,,,,,,,,,,,,,,,,,,,,,,,,,,,,,,,,,,,,
,,67a95d468d14bd6324b4bbba,2026-03-17_06h23.36.956,kallum_motion_pilot_GIST_update_2,2026.1.1,Win32,59.88023952,67a95d468d14bd6324b4bbba,69b92ab4aef6dee357cd729a,69b92b4d5cc039aa7625260f,0.057,0.057,0,92,92,79,1,eightseven,,,,,,,,,,,,,,,,,,,,,,,,,,,,,,,,,,,,,,,,,,,,,,,,,,,,,,,,,,,,,,,,,,,,,,,,,,,,,,,,,,,,,,,,,,,,,,,,,,,,,,,,,,,,,,,,,,,,,,,,,,,,,,,,,,,,,,,,,
,,67a95d468d14bd6324b4bbba,2026-03-17_06h23.36.956,kallum_motion_pilot_GIST_update_2,2026.1.1,Win32,59.88023952,67a95d468d14bd6324b4bbba,69b92ab4aef6dee357cd729a,69b92b4d5cc039aa7625260f,0.0573,0.0573,0,93,93,44,1,threeone,,,,,,,,,,,,,,,,,,,,,,,,,,,,,,,,,,,,,,,,,,,,,,,,,,,,,,,,,,,,,,,,,,,,,,,,,,,,,,,,,,,,,,,,,,,,,,,,,,,,,,,,,,,,,,,,,,,,,,,,,,,,,,,,,,,,,,,,,
,,67a95d468d14bd6324b4bbba,2026-03-17_06h23.36.956,kallum_motion_pilot_GIST_update_2,2026.1.1,Win32,59.88023952,67a95d468d14bd6324b4bbba,69b92ab4aef6dee357cd729a,69b92b4d5cc039aa7625260f,0.0576,0.0576,0,94,94,32,1,onetwo,,,,,,,,,,,,,,,,,,,,,,,,,,,,,,,,,,,,,,,,,,,,,,,,,,,,,,,,,,,,,,,,,,,,,,,,,,,,,,,,,,,,,,,,,,,,,,,,,,,,,,,,,,,,,,,,,,,,,,,,,,,,,,,,,,,,,,,,,
,,67a95d468d14bd6324b4bbba,2026-03-17_06h23.36.956,kallum_motion_pilot_GIST_update_2,2026.1.1,Win32,59.88023952,67a95d468d14bd6324b4bbba,69b92ab4aef6dee357cd729a,69b92b4d5cc039aa7625260f,0.0579,0.0579,0,95,95,31,1,fourthree,,,,,,,,,,,,,,,,,,,,,,,,,,,,,,,,,,,,,,,,,,,,,,,,,,,,,,,,,,,,,,,,,,,,,,,,,,,,,,,,,,,,,,,,,,,,,,,,,,,,,,,,,,,,,,,,,,,,,,,,,,,,,,,,,,,,,,,,,
,,67a95d468d14bd6324b4bbba,2026-03-17_06h23.36.956,kallum_motion_pilot_GIST_update_2,2026.1.1,Win32,59.88023952,67a95d468d14bd6324b4bbba,69b92ab4aef6dee357cd729a,69b92b4d5cc039aa7625260f,0.0581,0.0581,0,96,96,25,1,onethree,,,,,,,,,,,,,,,,,,,,,,,,,,,,,,,,,,,,,,,,,,,,,,,,,,,,,,,,,,,,,,,,,,,,,,,,,,,,,,,,,,,,,,,,,,,,,,,,,,,,,,,,,,,,,,,,,,,,,,,,,,,,,,,,,,,,,,,,,
,,67a95d468d14bd6324b4bbba,2026-03-17_06h23.36.956,kallum_motion_pilot_GIST_update_2,2026.1.1,Win32,59.88023952,67a95d468d14bd6324b4bbba,69b92ab4aef6dee357cd729a,69b92b4d5cc039aa7625260f,0.0583,0.0583,0,97,97,50,1,twoone,,,,,,,,,,,,,,,,,,,,,,,,,,,,,,,,,,,,,,,,,,,,,,,,,,,,,,,,,,,,,,,,,,,,,,,,,,,,,,,,,,,,,,,,,,,,,,,,,,,,,,,,,,,,,,,,,,,,,,,,,,,,,,,,,,,,,,,,,
,,67a95d468d14bd6324b4bbba,2026-03-17_06h23.36.956,kallum_motion_pilot_GIST_update_2,2026.1.1,Win32,59.88023952,67a95d468d14bd6324b4bbba,69b92ab4aef6dee357cd729a,69b92b4d5cc039aa7625260f,0.0585,0.0585,0,98,98,119,1,eightseven,,,,,,,,,,,,,,,,,,,,,,,,,,,,,,,,,,,,,,,,,,,,,,,,,,,,,,,,,,,,,,,,,,,,,,,,,,,,,,,,,,,,,,,,,,,,,,,,,,,,,,,,,,,,,,,,,,,,,,,,,,,,,,,,,,,,,,,,,
,,67a95d468d14bd6324b4bbba,2026-03-17_06h23.36.956,kallum_motion_pilot_GIST_update_2,2026.1.1,Win32,59.88023952,67a95d468d14bd6324b4bbba,69b92ab4aef6dee357cd729a,69b92b4d5cc039aa7625260f,0.0588,0.0588,0,99,99,87,1,eightseven,,,,,,,,,,,,,,,,,,,,,,,,,,,,,,,,,,,,,,,,,,,,,,,,,,,,,,,,,,,,,,,,,,,,,,,,,,,,,,,,,,,,,,,,,,,,,,,,,,,,,,,,,,,,,,,,,,,,,,,,,,,,,,,,,,,,,,,,,
,,67a95d468d14bd6324b4bbba,2026-03-17_06h23.36.956,kallum_motion_pilot_GIST_update_2,2026.1.1,Win32,59.88023952,67a95d468d14bd6324b4bbba,69b92ab4aef6dee357cd729a,69b92b4d5cc039aa7625260f,0.0591,0.0591,0,100,100,108,1,sevenfive,,,,,,,,,,,,,,,,,,,,,,,,,,,,,,,,,,,,,,,,,,,,,,,,,,,,,,,,,,,,,,,,,,,,,,,,,,,,,,,,,,,,,,,,,,,,,,,,,,,,,,,,,,,,,,,,,,,,,,,,,,,,,,,,,,,,,,,,,
,,67a95d468d14bd6324b4bbba,2026-03-17_06h23.36.956,kallum_motion_pilot_GIST_update_2,2026.1.1,Win32,59.88023952,67a95d468d14bd6324b4bbba,69b92ab4aef6dee357cd729a,69b92b4d5cc039aa7625260f,0.0593,0.0594,0,101,101,143,1,eightseven,,,,,,,,,,,,,,,,,,,,,,,,,,,,,,,,,,,,,,,,,,,,,,,,,,,,,,,,,,,,,,,,,,,,,,,,,,,,,,,,,,,,,,,,,,,,,,,,,,,,,,,,,,,,,,,,,,,,,,,,,,,,,,,,,,,,,,,,,
,,67a95d468d14bd6324b4bbba,2026-03-17_06h23.36.956,kallum_motion_pilot_GIST_update_2,2026.1.1,Win32,59.88023952,67a95d468d14bd6324b4bbba,69b92ab4aef6dee357cd729a,69b92b4d5cc039aa7625260f,0.0595,0.0595,0,102,102,140,1,sevenfive,,,,,,,,,,,,,,,,,,,,,,,,,,,,,,,,,,,,,,,,,,,,,,,,,,,,,,,,,,,,,,,,,,,,,,,,,,,,,,,,,,,,,,,,,,,,,,,,,,,,,,,,,,,,,,,,,,,,,,,,,,,,,,,,,,,,,,,,,
,,67a95d468d14bd6324b4bbba,2026-03-17_06h23.36.956,kallum_motion_pilot_GIST_update_2,2026.1.1,Win32,59.88023952,67a95d468d14bd6324b4bbba,69b92ab4aef6dee357cd729a,69b92b4d5cc039aa7625260f,0.0598,0.0598,0,103,103,60,1,threeone,,,,,,,,,,,,,,,,,,,,,,,,,,,,,,,,,,,,,,,,,,,,,,,,,,,,,,,,,,,,,,,,,,,,,,,,,,,,,,,,,,,,,,,,,,,,,,,,,,,,,,,,,,,,,,,,,,,,,,,,,,,,,,,,,,,,,,,,,
,,67a95d468d14bd6324b4bbba,2026-03-17_06h23.36.956,kallum_motion_pilot_GIST_update_2,2026.1.1,Win32,59.88023952,67a95d468d14bd6324b4bbba,69b92ab4aef6dee357cd729a,69b92b4d5cc039aa7625260f,0.06,0.06,0,104,104,13,1,threefour,,,,,,,,,,,,,,,,,,,,,,,,,,,,,,,,,,,,,,,,,,,,,,,,,,,,,,,,,,,,,,,,,,,,,,,,,,,,,,,,,,,,,,,,,,,,,,,,,,,,,,,,,,,,,,,,,,,,,,,,,,,,,,,,,,,,,,,,,
,,67a95d468d14bd6324b4bbba,2026-03-17_06h23.36.956,kallum_motion_pilot_GIST_update_2,2026.1.1,Win32,59.88023952,67a95d468d14bd6324b4bbba,69b92ab4aef6dee357cd729a,69b92b4d5cc039aa7625260f,0.0602,0.0603,0,105,105,111,1,eightseven,,,,,,,,,,,,,,,,,,,,,,,,,,,,,,,,,,,,,,,,,,,,,,,,,,,,,,,,,,,,,,,,,,,,,,,,,,,,,,,,,,,,,,,,,,,,,,,,,,,,,,,,,,,,,,,,,,,,,,,,,,,,,,,,,,,,,,,,,
,,67a95d468d14bd6324b4bbba,2026-03-17_06h23.36.956,kallum_motion_pilot_GIST_update_2,2026.1.1,Win32,59.88023952,67a95d468d14bd6324b4bbba,69b92ab4aef6dee357cd729a,69b92b4d5cc039aa7625260f,0.0605,0.0605,0,106,106,105,1,fiveseven,,,,,,,,,,,,,,,,,,,,,,,,,,,,,,,,,,,,,,,,,,,,,,,,,,,,,,,,,,,,,,,,,,,,,,,,,,,,,,,,,,,,,,,,,,,,,,,,,,,,,,,,,,,,,,,,,,,,,,,,,,,,,,,,,,,,,,,,,
,,67a95d468d14bd6324b4bbba,2026-03-17_06h23.36.956,kallum_motion_pilot_GIST_update_2,2026.1.1,Win32,59.88023952,67a95d468d14bd6324b4bbba,69b92ab4aef6dee357cd729a,69b92b4d5cc039aa7625260f,0.0607,0.0607,0,107,107,76,1,threeone,,,,,,,,,,,,,,,,,,,,,,,,,,,,,,,,,,,,,,,,,,,,,,,,,,,,,,,,,,,,,,,,,,,,,,,,,,,,,,,,,,,,,,,,,,,,,,,,,,,,,,,,,,,,,,,,,,,,,,,,,,,,,,,,,,,,,,,,,
,,67a95d468d14bd6324b4bbba,2026-03-17_06h23.36.956,kallum_motion_pilot_GIST_update_2,2026.1.1,Win32,59.88023952,67a95d468d14bd6324b4bbba,69b92ab4aef6dee357cd729a,69b92b4d5cc039aa7625260f,0.0609,0.0609,0,108,108,161,1,fiveseven,,,,,,,,,,,,,,,,,,,,,,,,,,,,,,,,,,,,,,,,,,,,,,,,,,,,,,,,,,,,,,,,,,,,,,,,,,,,,,,,,,,,,,,,,,,,,,,,,,,,,,,,,,,,,,,,,,,,,,,,,,,,,,,,,,,,,,,,,
,,67a95d468d14bd6324b4bbba,2026-03-17_06h23.36.956,kallum_motion_pilot_GIST_update_2,2026.1.1,Win32,59.88023952,67a95d468d14bd6324b4bbba,69b92ab4aef6dee357cd729a,69b92b4d5cc039aa7625260f,0.0612,0.0612,0,109,109,121,1,fiveseven,,,,,,,,,,,,,,,,,,,,,,,,,,,,,,,,,,,,,,,,,,,,,,,,,,,,,,,,,,,,,,,,,,,,,,,,,,,,,,,,,,,,,,,,,,,,,,,,,,,,,,,,,,,,,,,,,,,,,,,,,,,,,,,,,,,,,,,,,
,,67a95d468d14bd6324b4bbba,2026-03-17_06h23.36.956,kallum_motion_pilot_GIST_update_2,2026.1.1,Win32,59.88023952,67a95d468d14bd6324b4bbba,69b92ab4aef6dee357cd729a,69b92b4d5cc039aa7625260f,0.0614,0.0614,0,110,110,8,1,onetwo,,,,,,,,,,,,,,,,,,,,,,,,,,,,,,,,,,,,,,,,,,,,,,,,,,,,,,,,,,,,,,,,,,,,,,,,,,,,,,,,,,,,,,,,,,,,,,,,,,,,,,,,,,,,,,,,,,,,,,,,,,,,,,,,,,,,,,,,,
,,67a95d468d14bd6324b4bbba,2026-03-17_06h23.36.956,kallum_motion_pilot_GIST_update_2,2026.1.1,Win32,59.88023952,67a95d468d14bd6324b4bbba,69b92ab4aef6dee357cd729a,69b92b4d5cc039aa7625260f,0.0616,0.0617,0,111,111,114,1,sixfive,,,,,,,,,,,,,,,,,,,,,,,,,,,,,,,,,,,,,,,,,,,,,,,,,,,,,,,,,,,,,,,,,,,,,,,,,,,,,,,,,,,,,,,,,,,,,,,,,,,,,,,,,,,,,,,,,,,,,,,,,,,,,,,,,,,,,,,,,
,,67a95d468d14bd6324b4bbba,2026-03-17_06h23.36.956,kallum_motion_pilot_GIST_update_2,2026.1.1,Win32,59.88023952,67a95d468d14bd6324b4bbba,69b92ab4aef6dee357cd729a,69b92b4d5cc039aa7625260f,0.0619,0.0619,0,112,112,10,1,twoone,,,,,,,,,,,,,,,,,,,,,,,,,,,,,,,,,,,,,,,,,,,,,,,,,,,,,,,,,,,,,,,,,,,,,,,,,,,,,,,,,,,,,,,,,,,,,,,,,,,,,,,,,,,,,,,,,,,,,,,,,,,,,,,,,,,,,,,,,
,,67a95d468d14bd6324b4bbba,2026-03-17_06h23.36.956,kallum_motion_pilot_GIST_update_2,2026.1.1,Win32,59.88023952,67a95d468d14bd6324b4bbba,69b92ab4aef6dee357cd729a,69b92b4d5cc039aa7625260f,0.0621,0.0622,0,113,113,35,1,twofour,,,,,,,,,,,,,,,,,,,,,,,,,,,,,,,,,,,,,,,,,,,,,,,,,,,,,,,,,,,,,,,,,,,,,,,,,,,,,,,,,,,,,,,,,,,,,,,,,,,,,,,,,,,,,,,,,,,,,,,,,,,,,,,,,,,,,,,,,
,,67a95d468d14bd6324b4bbba,2026-03-17_06h23.36.956,kallum_motion_pilot_GIST_update_2,2026.1.1,Win32,59.88023952,67a95d468d14bd6324b4bbba,69b92ab4aef6dee357cd729a,69b92b4d5cc039aa7625260f,0.0624,0.0624,0,114,114,21,1,threefour,,,,,,,,,,,,,,,,,,,,,,,,,,,,,,,,,,,,,,,,,,,,,,,,,,,,,,,,,,,,,,,,,,,,,,,,,,,,,,,,,,,,,,,,,,,,,,,,,,,,,,,,,,,,,,,,,,,,,,,,,,,,,,,,,,,,,,,,,
,,67a95d468d14bd6324b4bbba,2026-03-17_06h23.36.956,kallum_motion_pilot_GIST_update_2,2026.1.1,Win32,59.88023952,67a95d468d14bd6324b4bbba,69b92ab4aef6dee357cd729a,69b92b4d5cc039aa7625260f,0.0626,0.0626,0,115,115,73,1,onethree,,,,,,,,,,,,,,,,,,,,,,,,,,,,,,,,,,,,,,,,,,,,,,,,,,,,,,,,,,,,,,,,,,,,,,,,,,,,,,,,,,,,,,,,,,,,,,,,,,,,,,,,,,,,,,,,,,,,,,,,,,,,,,,,,,,,,,,,,
,,67a95d468d14bd6324b4bbba,2026-03-17_06h23.36.956,kallum_motion_pilot_GIST_update_2,2026.1.1,Win32,59.88023952,67a95d468d14bd6324b4bbba,69b92ab4aef6dee357cd729a,69b92b4d5cc039aa7625260f,0.0628,0.0629,0,116,116,0,1,onetwo,,,,,,,,,,,,,,,,,,,,,,,,,,,,,,,,,,,,,,,,,,,,,,,,,,,,,,,,,,,,,,,,,,,,,,,,,,,,,,,,,,,,,,,,,,,,,,,,,,,,,,,,,,,,,,,,,,,,,,,,,,,,,,,,,,,,,,,,,
,,67a95d468d14bd6324b4bbba,2026-03-17_06h23.36.956,kallum_motion_pilot_GIST_update_2,2026.1.1,Win32,59.88023952,67a95d468d14bd6324b4bbba,69b92ab4aef6dee357cd729a,69b92b4d5cc039aa7625260f,0.063,0.0631,0,117,117,152,1,fivesix,,,,,,,,,,,,,,,,,,,,,,,,,,,,,,,,,,,,,,,,,,,,,,,,,,,,,,,,,,,,,,,,,,,,,,,,,,,,,,,,,,,,,,,,,,,,,,,,,,,,,,,,,,,,,,,,,,,,,,,,,,,,,,,,,,,,,,,,,
,,67a95d468d14bd6324b4bbba,2026-03-17_06h23.36.956,kallum_motion_pilot_GIST_update_2,2026.1.1,Win32,59.88023952,67a95d468d14bd6324b4bbba,69b92ab4aef6dee357cd729a,69b92b4d5cc039aa7625260f,0.0637,0.0637,0,118,118,57,1,onethree,,,,,,,,,,,,,,,,,,,,,,,,,,,,,,,,,,,,,,,,,,,,,,,,,,,,,,,,,,,,,,,,,,,,,,,,,,,,,,,,,,,,,,,,,,,,,,,,,,,,,,,,,,,,,,,,,,,,,,,,,,,,,,,,,,,,,,,,,
,,67a95d468d14bd6324b4bbba,2026-03-17_06h23.36.956,kallum_motion_pilot_GIST_update_2,2026.1.1,Win32,59.88023952,67a95d468d14bd6324b4bbba,69b92ab4aef6dee357cd729a,69b92b4d5cc039aa7625260f,0.0642,0.0642,0,119,119,103,1,eightseven,,,,,,,,,,,,,,,,,,,,,,,,,,,,,,,,,,,,,,,,,,,,,,,,,,,,,,,,,,,,,,,,,,,,,,,,,,,,,,,,,,,,,,,,,,,,,,,,,,,,,,,,,,,,,,,,,,,,,,,,,,,,,,,,,,,,,,,,,
,,67a95d468d14bd6324b4bbba,2026-03-17_06h23.36.956,kallum_motion_pilot_GIST_update_2,2026.1.1,Win32,59.88023952,67a95d468d14bd6324b4bbba,69b92ab4aef6dee357cd729a,69b92b4d5cc039aa7625260f,0.0645,0.0645,0,120,120,138,1,sixfive,,,,,,,,,,,,,,,,,,,,,,,,,,,,,,,,,,,,,,,,,,,,,,,,,,,,,,,,,,,,,,,,,,,,,,,,,,,,,,,,,,,,,,,,,,,,,,,,,,,,,,,,,,,,,,,,,,,,,,,,,,,,,,,,,,,,,,,,,
,,67a95d468d14bd6324b4bbba,2026-03-17_06h23.36.956,kallum_motion_pilot_GIST_update_2,2026.1.1,Win32,59.88023952,67a95d468d14bd6324b4bbba,69b92ab4aef6dee357cd729a,69b92b4d5cc039aa7625260f,0.0649,0.065,0,121,121,106,1,sixfive,,,,,,,,,,,,,,,,,,,,,,,,,,,,,,,,,,,,,,,,,,,,,,,,,,,,,,,,,,,,,,,,,,,,,,,,,,,,,,,,,,,,,,,,,,,,,,,,,,,,,,,,,,,,,,,,,,,,,,,,,,,,,,,,,,,,,,,,,
,,67a95d468d14bd6324b4bbba,2026-03-17_06h23.36.956,kallum_motion_pilot_GIST_update_2,2026.1.1,Win32,59.88023952,67a95d468d14bd6324b4bbba,69b92ab4aef6dee357cd729a,69b92b4d5cc039aa7625260f,0.0653,0.0653,0,122,122,52,1,threeone,,,,,,,,,,,,,,,,,,,,,,,,,,,,,,,,,,,,,,,,,,,,,,,,,,,,,,,,,,,,,,,,,,,,,,,,,,,,,,,,,,,,,,,,,,,,,,,,,,,,,,,,,,,,,,,,,,,,,,,,,,,,,,,,,,,,,,,,,
,,67a95d468d14bd6324b4bbba,2026-03-17_06h23.36.956,kallum_motion_pilot_GIST_update_2,2026.1.1,Win32,59.88023952,67a95d468d14bd6324b4bbba,69b92ab4aef6dee357cd729a,69b92b4d5cc039aa7625260f,0.0656,0.0656,0,123,123,117,1,seveneight,,,,,,,,,,,,,,,,,,,,,,,,,,,,,,,,,,,,,,,,,,,,,,,,,,,,,,,,,,,,,,,,,,,,,,,,,,,,,,,,,,,,,,,,,,,,,,,,,,,,,,,,,,,,,,,,,,,,,,,,,,,,,,,,,,,,,,,,,
,,67a95d468d14bd6324b4bbba,2026-03-17_06h23.36.956,kallum_motion_pilot_GIST_update_2,2026.1.1,Win32,59.88023952,67a95d468d14bd6324b4bbba,69b92ab4aef6dee357cd729a,69b92b4d5cc039aa7625260f,0.0659,0.0659,0,124,124,91,1,sixeight,,,,,,,,,,,,,,,,,,,,,,,,,,,,,,,,,,,,,,,,,,,,,,,,,,,,,,,,,,,,,,,,,,,,,,,,,,,,,,,,,,,,,,,,,,,,,,,,,,,,,,,,,,,,,,,,,,,,,,,,,,,,,,,,,,,,,,,,,
,,67a95d468d14bd6324b4bbba,2026-03-17_06h23.36.956,kallum_motion_pilot_GIST_update_2,2026.1.1,Win32,59.88023952,67a95d468d14bd6324b4bbba,69b92ab4aef6dee357cd729a,69b92b4d5cc039aa7625260f,0.0661,0.0662,0,125,125,71,1,fourthree,,,,,,,,,,,,,,,,,,,,,,,,,,,,,,,,,,,,,,,,,,,,,,,,,,,,,,,,,,,,,,,,,,,,,,,,,,,,,,,,,,,,,,,,,,,,,,,,,,,,,,,,,,,,,,,,,,,,,,,,,,,,,,,,,,,,,,,,,
,,67a95d468d14bd6324b4bbba,2026-03-17_06h23.36.956,kallum_motion_pilot_GIST_update_2,2026.1.1,Win32,59.88023952,67a95d468d14bd6324b4bbba,69b92ab4aef6dee357cd729a,69b92b4d5cc039aa7625260f,0.0664,0.0664,0,126,126,155,1,sixeight,,,,,,,,,,,,,,,,,,,,,,,,,,,,,,,,,,,,,,,,,,,,,,,,,,,,,,,,,,,,,,,,,,,,,,,,,,,,,,,,,,,,,,,,,,,,,,,,,,,,,,,,,,,,,,,,,,,,,,,,,,,,,,,,,,,,,,,,,
,,67a95d468d14bd6324b4bbba,2026-03-17_06h23.36.956,kallum_motion_pilot_GIST_update_2,2026.1.1,Win32,59.88023952,67a95d468d14bd6324b4bbba,69b92ab4aef6dee357cd729a,69b92b4d5cc039aa7625260f,0.0667,0.0667,0,127,127,18,1,twoone,,,,,,,,,,,,,,,,,,,,,,,,,,,,,,,,,,,,,,,,,,,,,,,,,,,,,,,,,,,,,,,,,,,,,,,,,,,,,,,,,,,,,,,,,,,,,,,,,,,,,,,,,,,,,,,,,,,,,,,,,,,,,,,,,,,,,,,,,
,,67a95d468d14bd6324b4bbba,2026-03-17_06h23.36.956,kallum_motion_pilot_GIST_update_2,2026.1.1,Win32,59.88023952,67a95d468d14bd6324b4bbba,69b92ab4aef6dee357cd729a,69b92b4d5cc039aa7625260f,0.067,0.067,0,128,128,69,1,threefour,,,,,,,,,,,,,,,,,,,,,,,,,,,,,,,,,,,,,,,,,,,,,,,,,,,,,,,,,,,,,,,,,,,,,,,,,,,,,,,,,,,,,,,,,,,,,,,,,,,,,,,,,,,,,,,,,,,,,,,,,,,,,,,,,,,,,,,,,
,,67a95d468d14bd6324b4bbba,2026-03-17_06h23.36.956,kallum_motion_pilot_GIST_update_2,2026.1.1,Win32,59.88023952,67a95d468d14bd6324b4bbba,69b92ab4aef6dee357cd729a,69b92b4d5cc039aa7625260f,0.0672,0.0673,0,129,129,5,1,threefour,,,,,,,,,,,,,,,,,,,,,,,,,,,,,,,,,,,,,,,,,,,,,,,,,,,,,,,,,,,,,,,,,,,,,,,,,,,,,,,,,,,,,,,,,,,,,,,,,,,,,,,,,,,,,,,,,,,,,,,,,,,,,,,,,,,,,,,,,
,,67a95d468d14bd6324b4bbba,2026-03-17_06h23.36.956,kallum_motion_pilot_GIST_update_2,2026.1.1,Win32,59.88023952,67a95d468d14bd6324b4bbba,69b92ab4aef6dee357cd729a,69b92b4d5cc039aa7625260f,0.0676,0.0676,0,130,130,151,1,eightseven,,,,,,,,,,,,,,,,,,,,,,,,,,,,,,,,,,,,,,,,,,,,,,,,,,,,,,,,,,,,,,,,,,,,,,,,,,,,,,,,,,,,,,,,,,,,,,,,,,,,,,,,,,,,,,,,,,,,,,,,,,,,,,,,,,,,,,,,,
,,67a95d468d14bd6324b4bbba,2026-03-17_06h23.36.956,kallum_motion_pilot_GIST_update_2,2026.1.1,Win32,59.88023952,67a95d468d14bd6324b4bbba,69b92ab4aef6dee357cd729a,69b92b4d5cc039aa7625260f,0.0679,0.0679,0,131,131,45,1,threefour,,,,,,,,,,,,,,,,,,,,,,,,,,,,,,,,,,,,,,,,,,,,,,,,,,,,,,,,,,,,,,,,,,,,,,,,,,,,,,,,,,,,,,,,,,,,,,,,,,,,,,,,,,,,,,,,,,,,,,,,,,,,,,,,,,,,,,,,,
,,67a95d468d14bd6324b4bbba,2026-03-17_06h23.36.956,kallum_motion_pilot_GIST_update_2,2026.1.1,Win32,59.88023952,67a95d468d14bd6324b4bbba,69b92ab4aef6dee357cd729a,69b92b4d5cc039aa7625260f,0.0682,0.0682,0,132,132,51,1,twofour,,,,,,,,,,,,,,,,,,,,,,,,,,,,,,,,,,,,,,,,,,,,,,,,,,,,,,,,,,,,,,,,,,,,,,,,,,,,,,,,,,,,,,,,,,,,,,,,,,,,,,,,,,,,,,,,,,,,,,,,,,,,,,,,,,,,,,,,,
,,67a95d468d14bd6324b4bbba,2026-03-17_06h23.36.956,kallum_motion_pilot_GIST_update_2,2026.1.1,Win32,59.88023952,67a95d468d14bd6324b4bbba,69b92ab4aef6dee357cd729a,69b92b4d5cc039aa7625260f,0.0684,0.0684,0,133,133,19,1,twofour,,,,,,,,,,,,,,,,,,,,,,,,,,,,,,,,,,,,,,,,,,,,,,,,,,,,,,,,,,,,,,,,,,,,,,,,,,,,,,,,,,,,,,,,,,,,,,,,,,,,,,,,,,,,,,,,,,,,,,,,,,,,,,,,,,,,,,,,,
,,67a95d468d14bd6324b4bbba,2026-03-17_06h23.36.956,kallum_motion_pilot_GIST_update_2,2026.1.1,Win32,59.88023952,67a95d468d14bd6324b4bbba,69b92ab4aef6dee357cd729a,69b92b4d5cc039aa7625260f,0.0687,0.0687,0,134,134,81,1,fiveseven,,,,,,,,,,,,,,,,,,,,,,,,,,,,,,,,,,,,,,,,,,,,,,,,,,,,,,,,,,,,,,,,,,,,,,,,,,,,,,,,,,,,,,,,,,,,,,,,,,,,,,,,,,,,,,,,,,,,,,,,,,,,,,,,,,,,,,,,,
,,67a95d468d14bd6324b4bbba,2026-03-17_06h23.36.956,kallum_motion_pilot_GIST_update_2,2026.1.1,Win32,59.88023952,67a95d468d14bd6324b4bbba,69b92ab4aef6dee357cd729a,69b92b4d5cc039aa7625260f,0.0689,0.0689,0,135,135,139,1,sixeight,,,,,,,,,,,,,,,,,,,,,,,,,,,,,,,,,,,,,,,,,,,,,,,,,,,,,,,,,,,,,,,,,,,,,,,,,,,,,,,,,,,,,,,,,,,,,,,,,,,,,,,,,,,,,,,,,,,,,,,,,,,,,,,,,,,,,,,,,
,,67a95d468d14bd6324b4bbba,2026-03-17_06h23.36.956,kallum_motion_pilot_GIST_update_2,2026.1.1,Win32,59.88023952,67a95d468d14bd6324b4bbba,69b92ab4aef6dee357cd729a,69b92b4d5cc039aa7625260f,0.0691,0.0691,0,136,136,95,1,eightseven,,,,,,,,,,,,,,,,,,,,,,,,,,,,,,,,,,,,,,,,,,,,,,,,,,,,,,,,,,,,,,,,,,,,,,,,,,,,,,,,,,,,,,,,,,,,,,,,,,,,,,,,,,,,,,,,,,,,,,,,,,,,,,,,,,,,,,,,,
,,67a95d468d14bd6324b4bbba,2026-03-17_06h23.36.956,kallum_motion_pilot_GIST_update_2,2026.1.1,Win32,59.88023952,67a95d468d14bd6324b4bbba,69b92ab4aef6dee357cd729a,69b92b4d5cc039aa7625260f,0.0694,0.0694,0,137,137,110,1,eightsix,,,,,,,,,,,,,,,,,,,,,,,,,,,,,,,,,,,,,,,,,,,,,,,,,,,,,,,,,,,,,,,,,,,,,,,,,,,,,,,,,,,,,,,,,,,,,,,,,,,,,,,,,,,,,,,,,,,,,,,,,,,,,,,,,,,,,,,,,
,,67a95d468d14bd6324b4bbba,2026-03-17_06h23.36.956,kallum_motion_pilot_GIST_update_2,2026.1.1,Win32,59.88023952,67a95d468d14bd6324b4bbba,69b92ab4aef6dee357cd729a,69b92b4d5cc039aa7625260f,0.0697,0.0697,0,138,138,134,1,eightsix,,,,,,,,,,,,,,,,,,,,,,,,,,,,,,,,,,,,,,,,,,,,,,,,,,,,,,,,,,,,,,,,,,,,,,,,,,,,,,,,,,,,,,,,,,,,,,,,,,,,,,,,,,,,,,,,,,,,,,,,,,,,,,,,,,,,,,,,,
,,67a95d468d14bd6324b4bbba,2026-03-17_06h23.36.956,kallum_motion_pilot_GIST_update_2,2026.1.1,Win32,59.88023952,67a95d468d14bd6324b4bbba,69b92ab4aef6dee357cd729a,69b92b4d5cc039aa7625260f,0.0699,0.0699,0,139,139,86,1,eightsix,,,,,,,,,,,,,,,,,,,,,,,,,,,,,,,,,,,,,,,,,,,,,,,,,,,,,,,,,,,,,,,,,,,,,,,,,,,,,,,,,,,,,,,,,,,,,,,,,,,,,,,,,,,,,,,,,,,,,,,,,,,,,,,,,,,,,,,,,
,,67a95d468d14bd6324b4bbba,2026-03-17_06h23.36.956,kallum_motion_pilot_GIST_update_2,2026.1.1,Win32,59.88023952,67a95d468d14bd6324b4bbba,69b92ab4aef6dee357cd729a,69b92b4d5cc039aa7625260f,0.0702,0.0702,0,140,140,144,1,fivesix,,,,,,,,,,,,,,,,,,,,,,,,,,,,,,,,,,,,,,,,,,,,,,,,,,,,,,,,,,,,,,,,,,,,,,,,,,,,,,,,,,,,,,,,,,,,,,,,,,,,,,,,,,,,,,,,,,,,,,,,,,,,,,,,,,,,,,,,,
,,67a95d468d14bd6324b4bbba,2026-03-17_06h23.36.956,kallum_motion_pilot_GIST_update_2,2026.1.1,Win32,59.88023952,67a95d468d14bd6324b4bbba,69b92ab4aef6dee357cd729a,69b92b4d5cc039aa7625260f,0.0704,0.0704,0,141,141,80,1,fivesix,,,,,,,,,,,,,,,,,,,,,,,,,,,,,,,,,,,,,,,,,,,,,,,,,,,,,,,,,,,,,,,,,,,,,,,,,,,,,,,,,,,,,,,,,,,,,,,,,,,,,,,,,,,,,,,,,,,,,,,,,,,,,,,,,,,,,,,,,
,,67a95d468d14bd6324b4bbba,2026-03-17_06h23.36.956,kallum_motion_pilot_GIST_update_2,2026.1.1,Win32,59.88023952,67a95d468d14bd6324b4bbba,69b92ab4aef6dee357cd729a,69b92b4d5cc039aa7625260f,0.0707,0.0707,0,142,142,48,1,onetwo,,,,,,,,,,,,,,,,,,,,,,,,,,,,,,,,,,,,,,,,,,,,,,,,,,,,,,,,,,,,,,,,,,,,,,,,,,,,,,,,,,,,,,,,,,,,,,,,,,,,,,,,,,,,,,,,,,,,,,,,,,,,,,,,,,,,,,,,,
,,67a95d468d14bd6324b4bbba,2026-03-17_06h23.36.956,kallum_motion_pilot_GIST_update_2,2026.1.1,Win32,59.88023952,67a95d468d14bd6324b4bbba,69b92ab4aef6dee357cd729a,69b92b4d5cc039aa7625260f,0.071,0.071,0,143,143,27,1,twofour,,,,,,,,,,,,,,,,,,,,,,,,,,,,,,,,,,,,,,,,,,,,,,,,,,,,,,,,,,,,,,,,,,,,,,,,,,,,,,,,,,,,,,,,,,,,,,,,,,,,,,,,,,,,,,,,,,,,,,,,,,,,,,,,,,,,,,,,,
,,67a95d468d14bd6324b4bbba,2026-03-17_06h23.36.956,kallum_motion_pilot_GIST_update_2,2026.1.1,Win32,59.88023952,67a95d468d14bd6324b4bbba,69b92ab4aef6dee357cd729a,69b92b4d5cc039aa7625260f,0.0712,0.0712,0,144,144,154,1,sixfive,,,,,,,,,,,,,,,,,,,,,,,,,,,,,,,,,,,,,,,,,,,,,,,,,,,,,,,,,,,,,,,,,,,,,,,,,,,,,,,,,,,,,,,,,,,,,,,,,,,,,,,,,,,,,,,,,,,,,,,,,,,,,,,,,,,,,,,,,
,,67a95d468d14bd6324b4bbba,2026-03-17_06h23.36.956,kallum_motion_pilot_GIST_update_2,2026.1.1,Win32,59.88023952,67a95d468d14bd6324b4bbba,69b92ab4aef6dee357cd729a,69b92b4d5cc039aa7625260f,0.0716,0.0716,0,145,145,127,1,eightseven,,,,,,,,,,,,,,,,,,,,,,,,,,,,,,,,,,,,,,,,,,,,,,,,,,,,,,,,,,,,,,,,,,,,,,,,,,,,,,,,,,,,,,,,,,,,,,,,,,,,,,,,,,,,,,,,,,,,,,,,,,,,,,,,,,,,,,,,,
,,67a95d468d14bd6324b4bbba,2026-03-17_06h23.36.956,kallum_motion_pilot_GIST_update_2,2026.1.1,Win32,59.88023952,67a95d468d14bd6324b4bbba,69b92ab4aef6dee357cd729a,69b92b4d5cc039aa7625260f,0.0719,0.0719,0,146,146,157,1,seveneight,,,,,,,,,,,,,,,,,,,,,,,,,,,,,,,,,,,,,,,,,,,,,,,,,,,,,,,,,,,,,,,,,,,,,,,,,,,,,,,,,,,,,,,,,,,,,,,,,,,,,,,,,,,,,,,,,,,,,,,,,,,,,,,,,,,,,,,,,
,,67a95d468d14bd6324b4bbba,2026-03-17_06h23.36.956,kallum_motion_pilot_GIST_update_2,2026.1.1,Win32,59.88023952,67a95d468d14bd6324b4bbba,69b92ab4aef6dee357cd729a,69b92b4d5cc039aa7625260f,0.0722,0.0722,0,147,147,55,1,fourthree,,,,,,,,,,,,,,,,,,,,,,,,,,,,,,,,,,,,,,,,,,,,,,,,,,,,,,,,,,,,,,,,,,,,,,,,,,,,,,,,,,,,,,,,,,,,,,,,,,,,,,,,,,,,,,,,,,,,,,,,,,,,,,,,,,,,,,,,,
,,67a95d468d14bd6324b4bbba,2026-03-17_06h23.36.956,kallum_motion_pilot_GIST_update_2,2026.1.1,Win32,59.88023952,67a95d468d14bd6324b4bbba,69b92ab4aef6dee357cd729a,69b92b4d5cc039aa7625260f,0.0725,0.0725,0,148,148,49,1,onethree,,,,,,,,,,,,,,,,,,,,,,,,,,,,,,,,,,,,,,,,,,,,,,,,,,,,,,,,,,,,,,,,,,,,,,,,,,,,,,,,,,,,,,,,,,,,,,,,,,,,,,,,,,,,,,,,,,,,,,,,,,,,,,,,,,,,,,,,,
,,67a95d468d14bd6324b4bbba,2026-03-17_06h23.36.956,kallum_motion_pilot_GIST_update_2,2026.1.1,Win32,59.88023952,67a95d468d14bd6324b4bbba,69b92ab4aef6dee357cd729a,69b92b4d5cc039aa7625260f,0.0729,0.073,0,149,149,47,1,fourthree,,,,,,,,,,,,,,,,,,,,,,,,,,,,,,,,,,,,,,,,,,,,,,,,,,,,,,,,,,,,,,,,,,,,,,,,,,,,,,,,,,,,,,,,,,,,,,,,,,,,,,,,,,,,,,,,,,,,,,,,,,,,,,,,,,,,,,,,,
,,67a95d468d14bd6324b4bbba,2026-03-17_06h23.36.956,kallum_motion_pilot_GIST_update_2,2026.1.1,Win32,59.88023952,67a95d468d14bd6324b4bbba,69b92ab4aef6dee357cd729a,69b92b4d5cc039aa7625260f,0.0733,0.0733,0,150,150,128,1,fivesix,,,,,,,,,,,,,,,,,,,,,,,,,,,,,,,,,,,,,,,,,,,,,,,,,,,,,,,,,,,,,,,,,,,,,,,,,,,,,,,,,,,,,,,,,,,,,,,,,,,,,,,,,,,,,,,,,,,,,,,,,,,,,,,,,,,,,,,,,
,,67a95d468d14bd6324b4bbba,2026-03-17_06h23.36.956,kallum_motion_pilot_GIST_update_2,2026.1.1,Win32,59.88023952,67a95d468d14bd6324b4bbba,69b92ab4aef6dee357cd729a,69b92b4d5cc039aa7625260f,0.0735,0.0735,0,151,151,40,1,onetwo,,,,,,,,,,,,,,,,,,,,,,,,,,,,,,,,,,,,,,,,,,,,,,,,,,,,,,,,,,,,,,,,,,,,,,,,,,,,,,,,,,,,,,,,,,,,,,,,,,,,,,,,,,,,,,,,,,,,,,,,,,,,,,,,,,,,,,,,,
,,67a95d468d14bd6324b4bbba,2026-03-17_06h23.36.956,kallum_motion_pilot_GIST_update_2,2026.1.1,Win32,59.88023952,67a95d468d14bd6324b4bbba,69b92ab4aef6dee357cd729a,69b92b4d5cc039aa7625260f,0.0739,0.0739,0,152,152,28,1,threeone,,,,,,,,,,,,,,,,,,,,,,,,,,,,,,,,,,,,,,,,,,,,,,,,,,,,,,,,,,,,,,,,,,,,,,,,,,,,,,,,,,,,,,,,,,,,,,,,,,,,,,,,,,,,,,,,,,,,,,,,,,,,,,,,,,,,,,,,,
,,67a95d468d14bd6324b4bbba,2026-03-17_06h23.36.956,kallum_motion_pilot_GIST_update_2,2026.1.1,Win32,59.88023952,67a95d468d14bd6324b4bbba,69b92ab4aef6dee357cd729a,69b92b4d5cc039aa7625260f,0.0741,0.0741,0,153,153,1,1,onethree,,,,,,,,,,,,,,,,,,,,,,,,,,,,,,,,,,,,,,,,,,,,,,,,,,,,,,,,,,,,,,,,,,,,,,,,,,,,,,,,,,,,,,,,,,,,,,,,,,,,,,,,,,,,,,,,,,,,,,,,,,,,,,,,,,,,,,,,,
,,67a95d468d14bd6324b4bbba,2026-03-17_06h23.36.956,kallum_motion_pilot_GIST_update_2,2026.1.1,Win32,59.88023952,67a95d468d14bd6324b4bbba,69b92ab4aef6dee357cd729a,69b92b4d5cc039aa7625260f,0.0744,0.0744,0,154,154,132,1,sevenfive,,,,,,,,,,,,,,,,,,,,,,,,,,,,,,,,,,,,,,,,,,,,,,,,,,,,,,,,,,,,,,,,,,,,,,,,,,,,,,,,,,,,,,,,,,,,,,,,,,,,,,,,,,,,,,,,,,,,,,,,,,,,,,,,,,,,,,,,,
,,67a95d468d14bd6324b4bbba,2026-03-17_06h23.36.956,kallum_motion_pilot_GIST_update_2,2026.1.1,Win32,59.88023952,67a95d468d14bd6324b4bbba,69b92ab4aef6dee357cd729a,69b92b4d5cc039aa7625260f,0.0747,0.0747,0,155,155,85,1,seveneight,,,,,,,,,,,,,,,,,,,,,,,,,,,,,,,,,,,,,,,,,,,,,,,,,,,,,,,,,,,,,,,,,,,,,,,,,,,,,,,,,,,,,,,,,,,,,,,,,,,,,,,,,,,,,,,,,,,,,,,,,,,,,,,,,,,,,,,,,
,,67a95d468d14bd6324b4bbba,2026-03-17_06h23.36.956,kallum_motion_pilot_GIST_update_2,2026.1.1,Win32,59.88023952,67a95d468d14bd6324b4bbba,69b92ab4aef6dee357cd729a,69b92b4d5cc039aa7625260f,0.075,0.0751,0,156,156,112,1,fivesix,,,,,,,,,,,,,,,,,,,,,,,,,,,,,,,,,,,,,,,,,,,,,,,,,,,,,,,,,,,,,,,,,,,,,,,,,,,,,,,,,,,,,,,,,,,,,,,,,,,,,,,,,,,,,,,,,,,,,,,,,,,,,,,,,,,,,,,,,
,,67a95d468d14bd6324b4bbba,2026-03-17_06h23.36.956,kallum_motion_pilot_GIST_update_2,2026.1.1,Win32,59.88023952,67a95d468d14bd6324b4bbba,69b92ab4aef6dee357cd729a,69b92b4d5cc039aa7625260f,0.0754,0.0754,0,157,157,66,1,twoone,,,,,,,,,,,,,,,,,,,,,,,,,,,,,,,,,,,,,,,,,,,,,,,,,,,,,,,,,,,,,,,,,,,,,,,,,,,,,,,,,,,,,,,,,,,,,,,,,,,,,,,,,,,,,,,,,,,,,,,,,,,,,,,,,,,,,,,,,
,,67a95d468d14bd6324b4bbba,2026-03-17_06h23.36.956,kallum_motion_pilot_GIST_update_2,2026.1.1,Win32,59.88023952,67a95d468d14bd6324b4bbba,69b92ab4aef6dee357cd729a,69b92b4d5cc039aa7625260f,0.0756,0.0756,0,158,158,26,1,twoone,,,,,,,,,,,,,,,,,,,,,,,,,,,,,,,,,,,,,,,,,,,,,,,,,,,,,,,,,,,,,,,,,,,,,,,,,,,,,,,,,,,,,,,,,,,,,,,,,,,,,,,,,,,,,,,,,,,,,,,,,,,,,,,,,,,,,,,,,
,,67a95d468d14bd6324b4bbba,2026-03-17_06h23.36.956,kallum_motion_pilot_GIST_update_2,2026.1.1,Win32,59.88023952,67a95d468d14bd6324b4bbba,69b92ab4aef6dee357cd729a,69b92b4d5cc039aa7625260f,0.0759,0.0759,0,159,159,131,1,sixeight,,,,,,,,,,,,,,,,,,,,,,,,,,,,,,,,,,,,,,,,,,,,,,,,,,,,,,,,,,,,,,,,,,,,,,,,,,,,,,,,,,,,,,,,,,,,,,,,,,,,,,,,,,,,,,,,,,,,,,,,,,,,,,,,,,,,,,,,,
,,67a95d468d14bd6324b4bbba,2026-03-17_06h23.36.956,kallum_motion_pilot_GIST_update_2,2026.1.1,Win32,59.88023952,67a95d468d14bd6324b4bbba,69b92ab4aef6dee357cd729a,69b92b4d5cc039aa7625260f,0.0762,0.0762,0,160,160,30,1,fourtwo,,,,,,,,,,,,,,,,,,,,,,,,,,,,,,,,,,,,,,,,,,,,,,,,,,,,,,,,,,,,,,,,,,,,,,,,,,,,,,,,,,,,,,,,,,,,,,,,,,,,,,,,,,,,,,,,,,,,,,,,,,,,,,,,,,,,,,,,,
,,67a95d468d14bd6324b4bbba,2026-03-17_06h23.36.956,kallum_motion_pilot_GIST_update_2,2026.1.1,Win32,59.88023952,67a95d468d14bd6324b4bbba,69b92ab4aef6dee357cd729a,69b92b4d5cc039aa7625260f,0.0764,0.0765,0,161,161,150,1,eightsix,,,,,,,,,,,,,,,,,,,,,,,,,,,,,,,,,,,,,,,,,,,,,,,,,,,,,,,,,,,,,,,,,,,,,,,,,,,,,,,,,,,,,,,,,,,,,,,,,,,,,,,,,,,,,,,,,,,,,,,,,,,,,,,,,,,,,,,,,
,,67a95d468d14bd6324b4bbba,2026-03-17_06h23.36.956,kallum_motion_pilot_GIST_update_2,2026.1.1,Win32,59.88023952,67a95d468d14bd6324b4bbba,69b92ab4aef6dee357cd729a,69b92b4d5cc039aa7625260f,0.0768,0.0768,1,0,162,142,1,eightsix,,,,,,,,,,,,,,,,,,,,,,,,,,,,,,,,,,,,,,,,,,,,,,,,,,,,,,,,,,,,,,,,,,,,,,,,,,,,,,,,,,,,,,,,,,,,,,,,,,,,,,,,,,,,,,,,,,,,,,,,,,,,,,,,,,,,,,,,,
,,67a95d468d14bd6324b4bbba,2026-03-17_06h23.36.956,kallum_motion_pilot_GIST_update_2,2026.1.1,Win32,59.88023952,67a95d468d14bd6324b4bbba,69b92ab4aef6dee357cd729a,69b92b4d5cc039aa7625260f,0.077,0.0771,1,1,163,143,1,eightseven,,,,,,,,,,,,,,,,,,,,,,,,,,,,,,,,,,,,,,,,,,,,,,,,,,,,,,,,,,,,,,,,,,,,,,,,,,,,,,,,,,,,,,,,,,,,,,,,,,,,,,,,,,,,,,,,,,,,,,,,,,,,,,,,,,,,,,,,,
,,67a95d468d14bd6324b4bbba,2026-03-17_06h23.36.956,kallum_motion_pilot_GIST_update_2,2026.1.1,Win32,59.88023952,67a95d468d14bd6324b4bbba,69b92ab4aef6dee357cd729a,69b92b4d5cc039aa7625260f,0.0774,0.0774,1,2,164,90,1,sixfive,,,,,,,,,,,,,,,,,,,,,,,,,,,,,,,,,,,,,,,,,,,,,,,,,,,,,,,,,,,,,,,,,,,,,,,,,,,,,,,,,,,,,,,,,,,,,,,,,,,,,,,,,,,,,,,,,,,,,,,,,,,,,,,,,,,,,,,,,
,,67a95d468d14bd6324b4bbba,2026-03-17_06h23.36.956,kallum_motion_pilot_GIST_update_2,2026.1.1,Win32,59.88023952,67a95d468d14bd6324b4bbba,69b92ab4aef6dee357cd729a,69b92b4d5cc039aa7625260f,0.0777,0.0777,1,3,165,21,1,threefour,,,,,,,,,,,,,,,,,,,,,,,,,,,,,,,,,,,,,,,,,,,,,,,,,,,,,,,,,,,,,,,,,,,,,,,,,,,,,,,,,,,,,,,,,,,,,,,,,,,,,,,,,,,,,,,,,,,,,,,,,,,,,,,,,,,,,,,,,
,,67a95d468d14bd6324b4bbba,2026-03-17_06h23.36.956,kallum_motion_pilot_GIST_update_2,2026.1.1,Win32,59.88023952,67a95d468d14bd6324b4bbba,69b92ab4aef6dee357cd729a,69b92b4d5cc039aa7625260f,0.078,0.078,1,4,166,32,1,onetwo,,,,,,,,,,,,,,,,,,,,,,,,,,,,,,,,,,,,,,,,,,,,,,,,,,,,,,,,,,,,,,,,,,,,,,,,,,,,,,,,,,,,,,,,,,,,,,,,,,,,,,,,,,,,,,,,,,,,,,,,,,,,,,,,,,,,,,,,,
,,67a95d468d14bd6324b4bbba,2026-03-17_06h23.36.956,kallum_motion_pilot_GIST_update_2,2026.1.1,Win32,59.88023952,67a95d468d14bd6324b4bbba,69b92ab4aef6dee357cd729a,69b92b4d5cc039aa7625260f,0.0783,0.0783,1,5,167,129,1,fiveseven,,,,,,,,,,,,,,,,,,,,,,,,,,,,,,,,,,,,,,,,,,,,,,,,,,,,,,,,,,,,,,,,,,,,,,,,,,,,,,,,,,,,,,,,,,,,,,,,,,,,,,,,,,,,,,,,,,,,,,,,,,,,,,,,,,,,,,,,,
,,67a95d468d14bd6324b4bbba,2026-03-17_06h23.36.956,kallum_motion_pilot_GIST_update_2,2026.1.1,Win32,59.88023952,67a95d468d14bd6324b4bbba,69b92ab4aef6dee357cd729a,69b92b4d5cc039aa7625260f,0.0787,0.0787,1,6,168,37,1,threefour,,,,,,,,,,,,,,,,,,,,,,,,,,,,,,,,,,,,,,,,,,,,,,,,,,,,,,,,,,,,,,,,,,,,,,,,,,,,,,,,,,,,,,,,,,,,,,,,,,,,,,,,,,,,,,,,,,,,,,,,,,,,,,,,,,,,,,,,,
,,67a95d468d14bd6324b4bbba,2026-03-17_06h23.36.956,kallum_motion_pilot_GIST_update_2,2026.1.1,Win32,59.88023952,67a95d468d14bd6324b4bbba,69b92ab4aef6dee357cd729a,69b92b4d5cc039aa7625260f,0.0789,0.0789,1,7,169,65,1,onethree,,,,,,,,,,,,,,,,,,,,,,,,,,,,,,,,,,,,,,,,,,,,,,,,,,,,,,,,,,,,,,,,,,,,,,,,,,,,,,,,,,,,,,,,,,,,,,,,,,,,,,,,,,,,,,,,,,,,,,,,,,,,,,,,,,,,,,,,,
,,67a95d468d14bd6324b4bbba,2026-03-17_06h23.36.956,kallum_motion_pilot_GIST_update_2,2026.1.1,Win32,59.88023952,67a95d468d14bd6324b4bbba,69b92ab4aef6dee357cd729a,69b92b4d5cc039aa7625260f,0.0792,0.0792,1,8,170,95,1,eightseven,,,,,,,,,,,,,,,,,,,,,,,,,,,,,,,,,,,,,,,,,,,,,,,,,,,,,,,,,,,,,,,,,,,,,,,,,,,,,,,,,,,,,,,,,,,,,,,,,,,,,,,,,,,,,,,,,,,,,,,,,,,,,,,,,,,,,,,,,
,,67a95d468d14bd6324b4bbba,2026-03-17_06h23.36.956,kallum_motion_pilot_GIST_update_2,2026.1.1,Win32,59.88023952,67a95d468d14bd6324b4bbba,69b92ab4aef6dee357cd729a,69b92b4d5cc039aa7625260f,0.0795,0.0796,1,9,171,152,1,fivesix,,,,,,,,,,,,,,,,,,,,,,,,,,,,,,,,,,,,,,,,,,,,,,,,,,,,,,,,,,,,,,,,,,,,,,,,,,,,,,,,,,,,,,,,,,,,,,,,,,,,,,,,,,,,,,,,,,,,,,,,,,,,,,,,,,,,,,,,,
,,67a95d468d14bd6324b4bbba,2026-03-17_06h23.36.956,kallum_motion_pilot_GIST_update_2,2026.1.1,Win32,59.88023952,67a95d468d14bd6324b4bbba,69b92ab4aef6dee357cd729a,69b92b4d5cc039aa7625260f,0.0803,0.0803,1,10,172,121,1,fiveseven,,,,,,,,,,,,,,,,,,,,,,,,,,,,,,,,,,,,,,,,,,,,,,,,,,,,,,,,,,,,,,,,,,,,,,,,,,,,,,,,,,,,,,,,,,,,,,,,,,,,,,,,,,,,,,,,,,,,,,,,,,,,,,,,,,,,,,,,,
,,67a95d468d14bd6324b4bbba,2026-03-17_06h23.36.956,kallum_motion_pilot_GIST_update_2,2026.1.1,Win32,59.88023952,67a95d468d14bd6324b4bbba,69b92ab4aef6dee357cd729a,69b92b4d5cc039aa7625260f,0.0807,0.0807,1,11,173,133,1,seveneight,,,,,,,,,,,,,,,,,,,,,,,,,,,,,,,,,,,,,,,,,,,,,,,,,,,,,,,,,,,,,,,,,,,,,,,,,,,,,,,,,,,,,,,,,,,,,,,,,,,,,,,,,,,,,,,,,,,,,,,,,,,,,,,,,,,,,,,,,
,,67a95d468d14bd6324b4bbba,2026-03-17_06h23.36.956,kallum_motion_pilot_GIST_update_2,2026.1.1,Win32,59.88023952,67a95d468d14bd6324b4bbba,69b92ab4aef6dee357cd729a,69b92b4d5cc039aa7625260f,0.0812,0.0812,1,12,174,132,1,sevenfive,,,,,,,,,,,,,,,,,,,,,,,,,,,,,,,,,,,,,,,,,,,,,,,,,,,,,,,,,,,,,,,,,,,,,,,,,,,,,,,,,,,,,,,,,,,,,,,,,,,,,,,,,,,,,,,,,,,,,,,,,,,,,,,,,,,,,,,,,
,,67a95d468d14bd6324b4bbba,2026-03-17_06h23.36.956,kallum_motion_pilot_GIST_update_2,2026.1.1,Win32,59.88023952,67a95d468d14bd6324b4bbba,69b92ab4aef6dee357cd729a,69b92b4d5cc039aa7625260f,0.0815,0.0816,1,13,175,144,1,fivesix,,,,,,,,,,,,,,,,,,,,,,,,,,,,,,,,,,,,,,,,,,,,,,,,,,,,,,,,,,,,,,,,,,,,,,,,,,,,,,,,,,,,,,,,,,,,,,,,,,,,,,,,,,,,,,,,,,,,,,,,,,,,,,,,,,,,,,,,,
,,67a95d468d14bd6324b4bbba,2026-03-17_06h23.36.956,kallum_motion_pilot_GIST_update_2,2026.1.1,Win32,59.88023952,67a95d468d14bd6324b4bbba,69b92ab4aef6dee357cd729a,69b92b4d5cc039aa7625260f,0.0818,0.0818,1,14,176,141,1,seveneight,,,,,,,,,,,,,,,,,,,,,,,,,,,,,,,,,,,,,,,,,,,,,,,,,,,,,,,,,,,,,,,,,,,,,,,,,,,,,,,,,,,,,,,,,,,,,,,,,,,,,,,,,,,,,,,,,,,,,,,,,,,,,,,,,,,,,,,,,
,,67a95d468d14bd6324b4bbba,2026-03-17_06h23.36.956,kallum_motion_pilot_GIST_update_2,2026.1.1,Win32,59.88023952,67a95d468d14bd6324b4bbba,69b92ab4aef6dee357cd729a,69b92b4d5cc039aa7625260f,0.082,0.082,1,15,177,151,1,eightseven,,,,,,,,,,,,,,,,,,,,,,,,,,,,,,,,,,,,,,,,,,,,,,,,,,,,,,,,,,,,,,,,,,,,,,,,,,,,,,,,,,,,,,,,,,,,,,,,,,,,,,,,,,,,,,,,,,,,,,,,,,,,,,,,,,,,,,,,,
,,67a95d468d14bd6324b4bbba,2026-03-17_06h23.36.956,kallum_motion_pilot_GIST_update_2,2026.1.1,Win32,59.88023952,67a95d468d14bd6324b4bbba,69b92ab4aef6dee357cd729a,69b92b4d5cc039aa7625260f,0.0824,0.0824,1,16,178,69,1,threefour,,,,,,,,,,,,,,,,,,,,,,,,,,,,,,,,,,,,,,,,,,,,,,,,,,,,,,,,,,,,,,,,,,,,,,,,,,,,,,,,,,,,,,,,,,,,,,,,,,,,,,,,,,,,,,,,,,,,,,,,,,,,,,,,,,,,,,,,,
,,67a95d468d14bd6324b4bbba,2026-03-17_06h23.36.956,kallum_motion_pilot_GIST_update_2,2026.1.1,Win32,59.88023952,67a95d468d14bd6324b4bbba,69b92ab4aef6dee357cd729a,69b92b4d5cc039aa7625260f,0.0826,0.0826,1,17,179,81,1,fiveseven,,,,,,,,,,,,,,,,,,,,,,,,,,,,,,,,,,,,,,,,,,,,,,,,,,,,,,,,,,,,,,,,,,,,,,,,,,,,,,,,,,,,,,,,,,,,,,,,,,,,,,,,,,,,,,,,,,,,,,,,,,,,,,,,,,,,,,,,,
,,67a95d468d14bd6324b4bbba,2026-03-17_06h23.36.956,kallum_motion_pilot_GIST_update_2,2026.1.1,Win32,59.88023952,67a95d468d14bd6324b4bbba,69b92ab4aef6dee357cd729a,69b92b4d5cc039aa7625260f,0.0829,0.0829,1,18,180,128,1,fivesix,,,,,,,,,,,,,,,,,,,,,,,,,,,,,,,,,,,,,,,,,,,,,,,,,,,,,,,,,,,,,,,,,,,,,,,,,,,,,,,,,,,,,,,,,,,,,,,,,,,,,,,,,,,,,,,,,,,,,,,,,,,,,,,,,,,,,,,,,
,,67a95d468d14bd6324b4bbba,2026-03-17_06h23.36.956,kallum_motion_pilot_GIST_update_2,2026.1.1,Win32,59.88023952,67a95d468d14bd6324b4bbba,69b92ab4aef6dee357cd729a,69b92b4d5cc039aa7625260f,0.0831,0.0831,1,19,181,44,1,threeone,,,,,,,,,,,,,,,,,,,,,,,,,,,,,,,,,,,,,,,,,,,,,,,,,,,,,,,,,,,,,,,,,,,,,,,,,,,,,,,,,,,,,,,,,,,,,,,,,,,,,,,,,,,,,,,,,,,,,,,,,,,,,,,,,,,,,,,,,
,,67a95d468d14bd6324b4bbba,2026-03-17_06h23.36.956,kallum_motion_pilot_GIST_update_2,2026.1.1,Win32,59.88023952,67a95d468d14bd6324b4bbba,69b92ab4aef6dee357cd729a,69b92b4d5cc039aa7625260f,0.0833,0.0834,1,20,182,61,1,threefour,,,,,,,,,,,,,,,,,,,,,,,,,,,,,,,,,,,,,,,,,,,,,,,,,,,,,,,,,,,,,,,,,,,,,,,,,,,,,,,,,,,,,,,,,,,,,,,,,,,,,,,,,,,,,,,,,,,,,,,,,,,,,,,,,,,,,,,,,
,,67a95d468d14bd6324b4bbba,2026-03-17_06h23.36.956,kallum_motion_pilot_GIST_update_2,2026.1.1,Win32,59.88023952,67a95d468d14bd6324b4bbba,69b92ab4aef6dee357cd729a,69b92b4d5cc039aa7625260f,0.0836,0.0836,1,21,183,6,1,fourtwo,,,,,,,,,,,,,,,,,,,,,,,,,,,,,,,,,,,,,,,,,,,,,,,,,,,,,,,,,,,,,,,,,,,,,,,,,,,,,,,,,,,,,,,,,,,,,,,,,,,,,,,,,,,,,,,,,,,,,,,,,,,,,,,,,,,,,,,,,
,,67a95d468d14bd6324b4bbba,2026-03-17_06h23.36.956,kallum_motion_pilot_GIST_update_2,2026.1.1,Win32,59.88023952,67a95d468d14bd6324b4bbba,69b92ab4aef6dee357cd729a,69b92b4d5cc039aa7625260f,0.0839,0.0839,1,22,184,53,1,threefour,,,,,,,,,,,,,,,,,,,,,,,,,,,,,,,,,,,,,,,,,,,,,,,,,,,,,,,,,,,,,,,,,,,,,,,,,,,,,,,,,,,,,,,,,,,,,,,,,,,,,,,,,,,,,,,,,,,,,,,,,,,,,,,,,,,,,,,,,
,,67a95d468d14bd6324b4bbba,2026-03-17_06h23.36.956,kallum_motion_pilot_GIST_update_2,2026.1.1,Win32,59.88023952,67a95d468d14bd6324b4bbba,69b92ab4aef6dee357cd729a,69b92b4d5cc039aa7625260f,0.0843,0.0843,1,23,185,156,1,sevenfive,,,,,,,,,,,,,,,,,,,,,,,,,,,,,,,,,,,,,,,,,,,,,,,,,,,,,,,,,,,,,,,,,,,,,,,,,,,,,,,,,,,,,,,,,,,,,,,,,,,,,,,,,,,,,,,,,,,,,,,,,,,,,,,,,,,,,,,,,
,,67a95d468d14bd6324b4bbba,2026-03-17_06h23.36.956,kallum_motion_pilot_GIST_update_2,2026.1.1,Win32,59.88023952,67a95d468d14bd6324b4bbba,69b92ab4aef6dee357cd729a,69b92b4d5cc039aa7625260f,0.0845,0.0845,1,24,186,63,1,fourthree,,,,,,,,,,,,,,,,,,,,,,,,,,,,,,,,,,,,,,,,,,,,,,,,,,,,,,,,,,,,,,,,,,,,,,,,,,,,,,,,,,,,,,,,,,,,,,,,,,,,,,,,,,,,,,,,,,,,,,,,,,,,,,,,,,,,,,,,,
,,67a95d468d14bd6324b4bbba,2026-03-17_06h23.36.956,kallum_motion_pilot_GIST_update_2,2026.1.1,Win32,59.88023952,67a95d468d14bd6324b4bbba,69b92ab4aef6dee357cd729a,69b92b4d5cc039aa7625260f,0.0848,0.0848,1,25,187,62,1,fourtwo,,,,,,,,,,,,,,,,,,,,,,,,,,,,,,,,,,,,,,,,,,,,,,,,,,,,,,,,,,,,,,,,,,,,,,,,,,,,,,,,,,,,,,,,,,,,,,,,,,,,,,,,,,,,,,,,,,,,,,,,,,,,,,,,,,,,,,,,,
,,67a95d468d14bd6324b4bbba,2026-03-17_06h23.36.956,kallum_motion_pilot_GIST_update_2,2026.1.1,Win32,59.88023952,67a95d468d14bd6324b4bbba,69b92ab4aef6dee357cd729a,69b92b4d5cc039aa7625260f,0.0852,0.0853,1,26,188,122,1,sixfive,,,,,,,,,,,,,,,,,,,,,,,,,,,,,,,,,,,,,,,,,,,,,,,,,,,,,,,,,,,,,,,,,,,,,,,,,,,,,,,,,,,,,,,,,,,,,,,,,,,,,,,,,,,,,,,,,,,,,,,,,,,,,,,,,,,,,,,,,
,,67a95d468d14bd6324b4bbba,2026-03-17_06h23.36.956,kallum_motion_pilot_GIST_update_2,2026.1.1,Win32,59.88023952,67a95d468d14bd6324b4bbba,69b92ab4aef6dee357cd729a,69b92b4d5cc039aa7625260f,0.0855,0.0856,1,27,189,159,1,eightseven,,,,,,,,,,,,,,,,,,,,,,,,,,,,,,,,,,,,,,,,,,,,,,,,,,,,,,,,,,,,,,,,,,,,,,,,,,,,,,,,,,,,,,,,,,,,,,,,,,,,,,,,,,,,,,,,,,,,,,,,,,,,,,,,,,,,,,,,,
,,67a95d468d14bd6324b4bbba,2026-03-17_06h23.36.956,kallum_motion_pilot_GIST_update_2,2026.1.1,Win32,59.88023952,67a95d468d14bd6324b4bbba,69b92ab4aef6dee357cd729a,69b92b4d5cc039aa7625260f,0.0859,0.0859,1,28,190,117,1,seveneight,,,,,,,,,,,,,,,,,,,,,,,,,,,,,,,,,,,,,,,,,,,,,,,,,,,,,,,,,,,,,,,,,,,,,,,,,,,,,,,,,,,,,,,,,,,,,,,,,,,,,,,,,,,,,,,,,,,,,,,,,,,,,,,,,,,,,,,,,
,,67a95d468d14bd6324b4bbba,2026-03-17_06h23.36.956,kallum_motion_pilot_GIST_update_2,2026.1.1,Win32,59.88023952,67a95d468d14bd6324b4bbba,69b92ab4aef6dee357cd729a,69b92b4d5cc039aa7625260f,0.0861,0.0861,1,29,191,70,1,fourtwo,,,,,,,,,,,,,,,,,,,,,,,,,,,,,,,,,,,,,,,,,,,,,,,,,,,,,,,,,,,,,,,,,,,,,,,,,,,,,,,,,,,,,,,,,,,,,,,,,,,,,,,,,,,,,,,,,,,,,,,,,,,,,,,,,,,,,,,,,
,,67a95d468d14bd6324b4bbba,2026-03-17_06h23.36.956,kallum_motion_pilot_GIST_update_2,2026.1.1,Win32,59.88023952,67a95d468d14bd6324b4bbba,69b92ab4aef6dee357cd729a,69b92b4d5cc039aa7625260f,0.0864,0.0864,1,30,192,58,1,twoone,,,,,,,,,,,,,,,,,,,,,,,,,,,,,,,,,,,,,,,,,,,,,,,,,,,,,,,,,,,,,,,,,,,,,,,,,,,,,,,,,,,,,,,,,,,,,,,,,,,,,,,,,,,,,,,,,,,,,,,,,,,,,,,,,,,,,,,,,
,,67a95d468d14bd6324b4bbba,2026-03-17_06h23.36.956,kallum_motion_pilot_GIST_update_2,2026.1.1,Win32,59.88023952,67a95d468d14bd6324b4bbba,69b92ab4aef6dee357cd729a,69b92b4d5cc039aa7625260f,0.0867,0.0867,1,31,193,89,1,fiveseven,,,,,,,,,,,,,,,,,,,,,,,,,,,,,,,,,,,,,,,,,,,,,,,,,,,,,,,,,,,,,,,,,,,,,,,,,,,,,,,,,,,,,,,,,,,,,,,,,,,,,,,,,,,,,,,,,,,,,,,,,,,,,,,,,,,,,,,,,
,,67a95d468d14bd6324b4bbba,2026-03-17_06h23.36.956,kallum_motion_pilot_GIST_update_2,2026.1.1,Win32,59.88023952,67a95d468d14bd6324b4bbba,69b92ab4aef6dee357cd729a,69b92b4d5cc039aa7625260f,0.087,0.087,1,32,194,155,1,sixeight,,,,,,,,,,,,,,,,,,,,,,,,,,,,,,,,,,,,,,,,,,,,,,,,,,,,,,,,,,,,,,,,,,,,,,,,,,,,,,,,,,,,,,,,,,,,,,,,,,,,,,,,,,,,,,,,,,,,,,,,,,,,,,,,,,,,,,,,,
,,67a95d468d14bd6324b4bbba,2026-03-17_06h23.36.956,kallum_motion_pilot_GIST_update_2,2026.1.1,Win32,59.88023952,67a95d468d14bd6324b4bbba,69b92ab4aef6dee357cd729a,69b92b4d5cc039aa7625260f,0.0875,0.0875,1,33,195,124,1,sevenfive,,,,,,,,,,,,,,,,,,,,,,,,,,,,,,,,,,,,,,,,,,,,,,,,,,,,,,,,,,,,,,,,,,,,,,,,,,,,,,,,,,,,,,,,,,,,,,,,,,,,,,,,,,,,,,,,,,,,,,,,,,,,,,,,,,,,,,,,,
,,67a95d468d14bd6324b4bbba,2026-03-17_06h23.36.956,kallum_motion_pilot_GIST_update_2,2026.1.1,Win32,59.88023952,67a95d468d14bd6324b4bbba,69b92ab4aef6dee357cd729a,69b92b4d5cc039aa7625260f,0.088,0.088,1,34,196,80,1,fivesix,,,,,,,,,,,,,,,,,,,,,,,,,,,,,,,,,,,,,,,,,,,,,,,,,,,,,,,,,,,,,,,,,,,,,,,,,,,,,,,,,,,,,,,,,,,,,,,,,,,,,,,,,,,,,,,,,,,,,,,,,,,,,,,,,,,,,,,,,
,,67a95d468d14bd6324b4bbba,2026-03-17_06h23.36.956,kallum_motion_pilot_GIST_update_2,2026.1.1,Win32,59.88023952,67a95d468d14bd6324b4bbba,69b92ab4aef6dee357cd729a,69b92b4d5cc039aa7625260f,0.0885,0.0885,1,35,197,4,1,threeone,,,,,,,,,,,,,,,,,,,,,,,,,,,,,,,,,,,,,,,,,,,,,,,,,,,,,,,,,,,,,,,,,,,,,,,,,,,,,,,,,,,,,,,,,,,,,,,,,,,,,,,,,,,,,,,,,,,,,,,,,,,,,,,,,,,,,,,,,
,,67a95d468d14bd6324b4bbba,2026-03-17_06h23.36.956,kallum_motion_pilot_GIST_update_2,2026.1.1,Win32,59.88023952,67a95d468d14bd6324b4bbba,69b92ab4aef6dee357cd729a,69b92b4d5cc039aa7625260f,0.089,0.0891,1,36,198,134,1,eightsix,,,,,,,,,,,,,,,,,,,,,,,,,,,,,,,,,,,,,,,,,,,,,,,,,,,,,,,,,,,,,,,,,,,,,,,,,,,,,,,,,,,,,,,,,,,,,,,,,,,,,,,,,,,,,,,,,,,,,,,,,,,,,,,,,,,,,,,,,
,,67a95d468d14bd6324b4bbba,2026-03-17_06h23.36.956,kallum_motion_pilot_GIST_update_2,2026.1.1,Win32,59.88023952,67a95d468d14bd6324b4bbba,69b92ab4aef6dee357cd729a,69b92b4d5cc039aa7625260f,0.0893,0.0893,1,37,199,43,1,twofour,,,,,,,,,,,,,,,,,,,,,,,,,,,,,,,,,,,,,,,,,,,,,,,,,,,,,,,,,,,,,,,,,,,,,,,,,,,,,,,,,,,,,,,,,,,,,,,,,,,,,,,,,,,,,,,,,,,,,,,,,,,,,,,,,,,,,,,,,
,,67a95d468d14bd6324b4bbba,2026-03-17_06h23.36.956,kallum_motion_pilot_GIST_update_2,2026.1.1,Win32,59.88023952,67a95d468d14bd6324b4bbba,69b92ab4aef6dee357cd729a,69b92b4d5cc039aa7625260f,0.0896,0.0896,1,38,200,115,1,sixeight,,,,,,,,,,,,,,,,,,,,,,,,,,,,,,,,,,,,,,,,,,,,,,,,,,,,,,,,,,,,,,,,,,,,,,,,,,,,,,,,,,,,,,,,,,,,,,,,,,,,,,,,,,,,,,,,,,,,,,,,,,,,,,,,,,,,,,,,,
,,67a95d468d14bd6324b4bbba,2026-03-17_06h23.36.956,kallum_motion_pilot_GIST_update_2,2026.1.1,Win32,59.88023952,67a95d468d14bd6324b4bbba,69b92ab4aef6dee357cd729a,69b92b4d5cc039aa7625260f,0.09,0.09,1,39,201,25,1,onethree,,,,,,,,,,,,,,,,,,,,,,,,,,,,,,,,,,,,,,,,,,,,,,,,,,,,,,,,,,,,,,,,,,,,,,,,,,,,,,,,,,,,,,,,,,,,,,,,,,,,,,,,,,,,,,,,,,,,,,,,,,,,,,,,,,,,,,,,,
,,67a95d468d14bd6324b4bbba,2026-03-17_06h23.36.956,kallum_motion_pilot_GIST_update_2,2026.1.1,Win32,59.88023952,67a95d468d14bd6324b4bbba,69b92ab4aef6dee357cd729a,69b92b4d5cc039aa7625260f,0.0903,0.0903,1,40,202,102,1,eightsix,,,,,,,,,,,,,,,,,,,,,,,,,,,,,,,,,,,,,,,,,,,,,,,,,,,,,,,,,,,,,,,,,,,,,,,,,,,,,,,,,,,,,,,,,,,,,,,,,,,,,,,,,,,,,,,,,,,,,,,,,,,,,,,,,,,,,,,,,
,,67a95d468d14bd6324b4bbba,2026-03-17_06h23.36.956,kallum_motion_pilot_GIST_update_2,2026.1.1,Win32,59.88023952,67a95d468d14bd6324b4bbba,69b92ab4aef6dee357cd729a,69b92b4d5cc039aa7625260f,0.0906,0.0906,1,41,203,147,1,sixeight,,,,,,,,,,,,,,,,,,,,,,,,,,,,,,,,,,,,,,,,,,,,,,,,,,,,,,,,,,,,,,,,,,,,,,,,,,,,,,,,,,,,,,,,,,,,,,,,,,,,,,,,,,,,,,,,,,,,,,,,,,,,,,,,,,,,,,,,,
,,67a95d468d14bd6324b4bbba,2026-03-17_06h23.36.956,kallum_motion_pilot_GIST_update_2,2026.1.1,Win32,59.88023952,67a95d468d14bd6324b4bbba,69b92ab4aef6dee357cd729a,69b92b4d5cc039aa7625260f,0.0909,0.0909,1,42,204,0,1,onetwo,,,,,,,,,,,,,,,,,,,,,,,,,,,,,,,,,,,,,,,,,,,,,,,,,,,,,,,,,,,,,,,,,,,,,,,,,,,,,,,,,,,,,,,,,,,,,,,,,,,,,,,,,,,,,,,,,,,,,,,,,,,,,,,,,,,,,,,,,
,,67a95d468d14bd6324b4bbba,2026-03-17_06h23.36.956,kallum_motion_pilot_GIST_update_2,2026.1.1,Win32,59.88023952,67a95d468d14bd6324b4bbba,69b92ab4aef6dee357cd729a,69b92b4d5cc039aa7625260f,0.0913,0.0913,1,43,205,1,1,onethree,,,,,,,,,,,,,,,,,,,,,,,,,,,,,,,,,,,,,,,,,,,,,,,,,,,,,,,,,,,,,,,,,,,,,,,,,,,,,,,,,,,,,,,,,,,,,,,,,,,,,,,,,,,,,,,,,,,,,,,,,,,,,,,,,,,,,,,,,
,,67a95d468d14bd6324b4bbba,2026-03-17_06h23.36.956,kallum_motion_pilot_GIST_update_2,2026.1.1,Win32,59.88023952,67a95d468d14bd6324b4bbba,69b92ab4aef6dee357cd729a,69b92b4d5cc039aa7625260f,0.0915,0.0916,1,44,206,8,1,onetwo,,,,,,,,,,,,,,,,,,,,,,,,,,,,,,,,,,,,,,,,,,,,,,,,,,,,,,,,,,,,,,,,,,,,,,,,,,,,,,,,,,,,,,,,,,,,,,,,,,,,,,,,,,,,,,,,,,,,,,,,,,,,,,,,,,,,,,,,,
,,67a95d468d14bd6324b4bbba,2026-03-17_06h23.36.956,kallum_motion_pilot_GIST_update_2,2026.1.1,Win32,59.88023952,67a95d468d14bd6324b4bbba,69b92ab4aef6dee357cd729a,69b92b4d5cc039aa7625260f,0.0918,0.0918,1,45,207,119,1,eightseven,,,,,,,,,,,,,,,,,,,,,,,,,,,,,,,,,,,,,,,,,,,,,,,,,,,,,,,,,,,,,,,,,,,,,,,,,,,,,,,,,,,,,,,,,,,,,,,,,,,,,,,,,,,,,,,,,,,,,,,,,,,,,,,,,,,,,,,,,
,,67a95d468d14bd6324b4bbba,2026-03-17_06h23.36.956,kallum_motion_pilot_GIST_update_2,2026.1.1,Win32,59.88023952,67a95d468d14bd6324b4bbba,69b92ab4aef6dee357cd729a,69b92b4d5cc039aa7625260f,0.0922,0.0922,1,46,208,161,1,fiveseven,,,,,,,,,,,,,,,,,,,,,,,,,,,,,,,,,,,,,,,,,,,,,,,,,,,,,,,,,,,,,,,,,,,,,,,,,,,,,,,,,,,,,,,,,,,,,,,,,,,,,,,,,,,,,,,,,,,,,,,,,,,,,,,,,,,,,,,,,
,,67a95d468d14bd6324b4bbba,2026-03-17_06h23.36.956,kallum_motion_pilot_GIST_update_2,2026.1.1,Win32,59.88023952,67a95d468d14bd6324b4bbba,69b92ab4aef6dee357cd729a,69b92b4d5cc039aa7625260f,0.0925,0.0925,1,47,209,73,1,onethree,,,,,,,,,,,,,,,,,,,,,,,,,,,,,,,,,,,,,,,,,,,,,,,,,,,,,,,,,,,,,,,,,,,,,,,,,,,,,,,,,,,,,,,,,,,,,,,,,,,,,,,,,,,,,,,,,,,,,,,,,,,,,,,,,,,,,,,,,
,,67a95d468d14bd6324b4bbba,2026-03-17_06h23.36.956,kallum_motion_pilot_GIST_update_2,2026.1.1,Win32,59.88023952,67a95d468d14bd6324b4bbba,69b92ab4aef6dee357cd729a,69b92b4d5cc039aa7625260f,0.0928,0.0928,1,48,210,109,1,seveneight,,,,,,,,,,,,,,,,,,,,,,,,,,,,,,,,,,,,,,,,,,,,,,,,,,,,,,,,,,,,,,,,,,,,,,,,,,,,,,,,,,,,,,,,,,,,,,,,,,,,,,,,,,,,,,,,,,,,,,,,,,,,,,,,,,,,,,,,,
,,67a95d468d14bd6324b4bbba,2026-03-17_06h23.36.956,kallum_motion_pilot_GIST_update_2,2026.1.1,Win32,59.88023952,67a95d468d14bd6324b4bbba,69b92ab4aef6dee357cd729a,69b92b4d5cc039aa7625260f,0.0931,0.0931,1,49,211,123,1,sixeight,,,,,,,,,,,,,,,,,,,,,,,,,,,,,,,,,,,,,,,,,,,,,,,,,,,,,,,,,,,,,,,,,,,,,,,,,,,,,,,,,,,,,,,,,,,,,,,,,,,,,,,,,,,,,,,,,,,,,,,,,,,,,,,,,,,,,,,,,
,,67a95d468d14bd6324b4bbba,2026-03-17_06h23.36.956,kallum_motion_pilot_GIST_update_2,2026.1.1,Win32,59.88023952,67a95d468d14bd6324b4bbba,69b92ab4aef6dee357cd729a,69b92b4d5cc039aa7625260f,0.0934,0.0934,1,50,212,28,1,threeone,,,,,,,,,,,,,,,,,,,,,,,,,,,,,,,,,,,,,,,,,,,,,,,,,,,,,,,,,,,,,,,,,,,,,,,,,,,,,,,,,,,,,,,,,,,,,,,,,,,,,,,,,,,,,,,,,,,,,,,,,,,,,,,,,,,,,,,,,
,,67a95d468d14bd6324b4bbba,2026-03-17_06h23.36.956,kallum_motion_pilot_GIST_update_2,2026.1.1,Win32,59.88023952,67a95d468d14bd6324b4bbba,69b92ab4aef6dee357cd729a,69b92b4d5cc039aa7625260f,0.0937,0.0937,1,51,213,14,1,fourtwo,,,,,,,,,,,,,,,,,,,,,,,,,,,,,,,,,,,,,,,,,,,,,,,,,,,,,,,,,,,,,,,,,,,,,,,,,,,,,,,,,,,,,,,,,,,,,,,,,,,,,,,,,,,,,,,,,,,,,,,,,,,,,,,,,,,,,,,,,
,,67a95d468d14bd6324b4bbba,2026-03-17_06h23.36.956,kallum_motion_pilot_GIST_update_2,2026.1.1,Win32,59.88023952,67a95d468d14bd6324b4bbba,69b92ab4aef6dee357cd729a,69b92b4d5cc039aa7625260f,0.094,0.094,1,52,214,35,1,twofour,,,,,,,,,,,,,,,,,,,,,,,,,,,,,,,,,,,,,,,,,,,,,,,,,,,,,,,,,,,,,,,,,,,,,,,,,,,,,,,,,,,,,,,,,,,,,,,,,,,,,,,,,,,,,,,,,,,,,,,,,,,,,,,,,,,,,,,,,
,,67a95d468d14bd6324b4bbba,2026-03-17_06h23.36.956,kallum_motion_pilot_GIST_update_2,2026.1.1,Win32,59.88023952,67a95d468d14bd6324b4bbba,69b92ab4aef6dee357cd729a,69b92b4d5cc039aa7625260f,0.0943,0.0943,1,53,215,50,1,twoone,,,,,,,,,,,,,,,,,,,,,,,,,,,,,,,,,,,,,,,,,,,,,,,,,,,,,,,,,,,,,,,,,,,,,,,,,,,,,,,,,,,,,,,,,,,,,,,,,,,,,,,,,,,,,,,,,,,,,,,,,,,,,,,,,,,,,,,,,
,,67a95d468d14bd6324b4bbba,2026-03-17_06h23.36.956,kallum_motion_pilot_GIST_update_2,2026.1.1,Win32,59.88023952,67a95d468d14bd6324b4bbba,69b92ab4aef6dee357cd729a,69b92b4d5cc039aa7625260f,0.0946,0.0946,1,54,216,97,1,fiveseven,,,,,,,,,,,,,,,,,,,,,,,,,,,,,,,,,,,,,,,,,,,,,,,,,,,,,,,,,,,,,,,,,,,,,,,,,,,,,,,,,,,,,,,,,,,,,,,,,,,,,,,,,,,,,,,,,,,,,,,,,,,,,,,,,,,,,,,,,
,,67a95d468d14bd6324b4bbba,2026-03-17_06h23.36.956,kallum_motion_pilot_GIST_update_2,2026.1.1,Win32,59.88023952,67a95d468d14bd6324b4bbba,69b92ab4aef6dee357cd729a,69b92b4d5cc039aa7625260f,0.095,0.095,1,55,217,93,1,seveneight,,,,,,,,,,,,,,,,,,,,,,,,,,,,,,,,,,,,,,,,,,,,,,,,,,,,,,,,,,,,,,,,,,,,,,,,,,,,,,,,,,,,,,,,,,,,,,,,,,,,,,,,,,,,,,,,,,,,,,,,,,,,,,,,,,,,,,,,,
,,67a95d468d14bd6324b4bbba,2026-03-17_06h23.36.956,kallum_motion_pilot_GIST_update_2,2026.1.1,Win32,59.88023952,67a95d468d14bd6324b4bbba,69b92ab4aef6dee357cd729a,69b92b4d5cc039aa7625260f,0.0952,0.0953,1,56,218,10,1,twoone,,,,,,,,,,,,,,,,,,,,,,,,,,,,,,,,,,,,,,,,,,,,,,,,,,,,,,,,,,,,,,,,,,,,,,,,,,,,,,,,,,,,,,,,,,,,,,,,,,,,,,,,,,,,,,,,,,,,,,,,,,,,,,,,,,,,,,,,,
,,67a95d468d14bd6324b4bbba,2026-03-17_06h23.36.956,kallum_motion_pilot_GIST_update_2,2026.1.1,Win32,59.88023952,67a95d468d14bd6324b4bbba,69b92ab4aef6dee357cd729a,69b92b4d5cc039aa7625260f,0.0955,0.0955,1,57,219,74,1,twoone,,,,,,,,,,,,,,,,,,,,,,,,,,,,,,,,,,,,,,,,,,,,,,,,,,,,,,,,,,,,,,,,,,,,,,,,,,,,,,,,,,,,,,,,,,,,,,,,,,,,,,,,,,,,,,,,,,,,,,,,,,,,,,,,,,,,,,,,,
,,67a95d468d14bd6324b4bbba,2026-03-17_06h23.36.956,kallum_motion_pilot_GIST_update_2,2026.1.1,Win32,59.88023952,67a95d468d14bd6324b4bbba,69b92ab4aef6dee357cd729a,69b92b4d5cc039aa7625260f,0.096,0.096,1,58,220,13,1,threefour,,,,,,,,,,,,,,,,,,,,,,,,,,,,,,,,,,,,,,,,,,,,,,,,,,,,,,,,,,,,,,,,,,,,,,,,,,,,,,,,,,,,,,,,,,,,,,,,,,,,,,,,,,,,,,,,,,,,,,,,,,,,,,,,,,,,,,,,,
,,67a95d468d14bd6324b4bbba,2026-03-17_06h23.36.956,kallum_motion_pilot_GIST_update_2,2026.1.1,Win32,59.88023952,67a95d468d14bd6324b4bbba,69b92ab4aef6dee357cd729a,69b92b4d5cc039aa7625260f,0.0964,0.0964,1,59,221,59,1,twofour,,,,,,,,,,,,,,,,,,,,,,,,,,,,,,,,,,,,,,,,,,,,,,,,,,,,,,,,,,,,,,,,,,,,,,,,,,,,,,,,,,,,,,,,,,,,,,,,,,,,,,,,,,,,,,,,,,,,,,,,,,,,,,,,,,,,,,,,,
,,67a95d468d14bd6324b4bbba,2026-03-17_06h23.36.956,kallum_motion_pilot_GIST_update_2,2026.1.1,Win32,59.88023952,67a95d468d14bd6324b4bbba,69b92ab4aef6dee357cd729a,69b92b4d5cc039aa7625260f,0.0971,0.0971,1,60,222,18,1,twoone,,,,,,,,,,,,,,,,,,,,,,,,,,,,,,,,,,,,,,,,,,,,,,,,,,,,,,,,,,,,,,,,,,,,,,,,,,,,,,,,,,,,,,,,,,,,,,,,,,,,,,,,,,,,,,,,,,,,,,,,,,,,,,,,,,,,,,,,,
,,67a95d468d14bd6324b4bbba,2026-03-17_06h23.36.956,kallum_motion_pilot_GIST_update_2,2026.1.1,Win32,59.88023952,67a95d468d14bd6324b4bbba,69b92ab4aef6dee357cd729a,69b92b4d5cc039aa7625260f,0.0974,0.0975,1,61,223,100,1,sevenfive,,,,,,,,,,,,,,,,,,,,,,,,,,,,,,,,,,,,,,,,,,,,,,,,,,,,,,,,,,,,,,,,,,,,,,,,,,,,,,,,,,,,,,,,,,,,,,,,,,,,,,,,,,,,,,,,,,,,,,,,,,,,,,,,,,,,,,,,,
,,67a95d468d14bd6324b4bbba,2026-03-17_06h23.36.956,kallum_motion_pilot_GIST_update_2,2026.1.1,Win32,59.88023952,67a95d468d14bd6324b4bbba,69b92ab4aef6dee357cd729a,69b92b4d5cc039aa7625260f,0.0978,0.0978,1,62,224,137,1,fiveseven,,,,,,,,,,,,,,,,,,,,,,,,,,,,,,,,,,,,,,,,,,,,,,,,,,,,,,,,,,,,,,,,,,,,,,,,,,,,,,,,,,,,,,,,,,,,,,,,,,,,,,,,,,,,,,,,,,,,,,,,,,,,,,,,,,,,,,,,,
,,67a95d468d14bd6324b4bbba,2026-03-17_06h23.36.956,kallum_motion_pilot_GIST_update_2,2026.1.1,Win32,59.88023952,67a95d468d14bd6324b4bbba,69b92ab4aef6dee357cd729a,69b92b4d5cc039aa7625260f,0.0981,0.0981,1,63,225,77,1,threefour,,,,,,,,,,,,,,,,,,,,,,,,,,,,,,,,,,,,,,,,,,,,,,,,,,,,,,,,,,,,,,,,,,,,,,,,,,,,,,,,,,,,,,,,,,,,,,,,,,,,,,,,,,,,,,,,,,,,,,,,,,,,,,,,,,,,,,,,,
,,67a95d468d14bd6324b4bbba,2026-03-17_06h23.36.956,kallum_motion_pilot_GIST_update_2,2026.1.1,Win32,59.88023952,67a95d468d14bd6324b4bbba,69b92ab4aef6dee357cd729a,69b92b4d5cc039aa7625260f,0.0984,0.0985,1,64,226,72,1,onetwo,,,,,,,,,,,,,,,,,,,,,,,,,,,,,,,,,,,,,,,,,,,,,,,,,,,,,,,,,,,,,,,,,,,,,,,,,,,,,,,,,,,,,,,,,,,,,,,,,,,,,,,,,,,,,,,,,,,,,,,,,,,,,,,,,,,,,,,,,
,,67a95d468d14bd6324b4bbba,2026-03-17_06h23.36.956,kallum_motion_pilot_GIST_update_2,2026.1.1,Win32,59.88023952,67a95d468d14bd6324b4bbba,69b92ab4aef6dee357cd729a,69b92b4d5cc039aa7625260f,0.0987,0.0987,1,65,227,112,1,fivesix,,,,,,,,,,,,,,,,,,,,,,,,,,,,,,,,,,,,,,,,,,,,,,,,,,,,,,,,,,,,,,,,,,,,,,,,,,,,,,,,,,,,,,,,,,,,,,,,,,,,,,,,,,,,,,,,,,,,,,,,,,,,,,,,,,,,,,,,,
,,67a95d468d14bd6324b4bbba,2026-03-17_06h23.36.956,kallum_motion_pilot_GIST_update_2,2026.1.1,Win32,59.88023952,67a95d468d14bd6324b4bbba,69b92ab4aef6dee357cd729a,69b92b4d5cc039aa7625260f,0.099,0.099,1,66,228,3,1,twofour,,,,,,,,,,,,,,,,,,,,,,,,,,,,,,,,,,,,,,,,,,,,,,,,,,,,,,,,,,,,,,,,,,,,,,,,,,,,,,,,,,,,,,,,,,,,,,,,,,,,,,,,,,,,,,,,,,,,,,,,,,,,,,,,,,,,,,,,,
,,67a95d468d14bd6324b4bbba,2026-03-17_06h23.36.956,kallum_motion_pilot_GIST_update_2,2026.1.1,Win32,59.88023952,67a95d468d14bd6324b4bbba,69b92ab4aef6dee357cd729a,69b92b4d5cc039aa7625260f,0.0993,0.0993,1,67,229,31,1,fourthree,,,,,,,,,,,,,,,,,,,,,,,,,,,,,,,,,,,,,,,,,,,,,,,,,,,,,,,,,,,,,,,,,,,,,,,,,,,,,,,,,,,,,,,,,,,,,,,,,,,,,,,,,,,,,,,,,,,,,,,,,,,,,,,,,,,,,,,,,
,,67a95d468d14bd6324b4bbba,2026-03-17_06h23.36.956,kallum_motion_pilot_GIST_update_2,2026.1.1,Win32,59.88023952,67a95d468d14bd6324b4bbba,69b92ab4aef6dee357cd729a,69b92b4d5cc039aa7625260f,0.0996,0.0997,1,68,230,19,1,twofour,,,,,,,,,,,,,,,,,,,,,,,,,,,,,,,,,,,,,,,,,,,,,,,,,,,,,,,,,,,,,,,,,,,,,,,,,,,,,,,,,,,,,,,,,,,,,,,,,,,,,,,,,,,,,,,,,,,,,,,,,,,,,,,,,,,,,,,,,
,,67a95d468d14bd6324b4bbba,2026-03-17_06h23.36.956,kallum_motion_pilot_GIST_update_2,2026.1.1,Win32,59.88023952,67a95d468d14bd6324b4bbba,69b92ab4aef6dee357cd729a,69b92b4d5cc039aa7625260f,0.1,0.1,1,69,231,136,1,fivesix,,,,,,,,,,,,,,,,,,,,,,,,,,,,,,,,,,,,,,,,,,,,,,,,,,,,,,,,,,,,,,,,,,,,,,,,,,,,,,,,,,,,,,,,,,,,,,,,,,,,,,,,,,,,,,,,,,,,,,,,,,,,,,,,,,,,,,,,,
,,67a95d468d14bd6324b4bbba,2026-03-17_06h23.36.956,kallum_motion_pilot_GIST_update_2,2026.1.1,Win32,59.88023952,67a95d468d14bd6324b4bbba,69b92ab4aef6dee357cd729a,69b92b4d5cc039aa7625260f,0.1003,0.1003,1,70,232,11,1,twofour,,,,,,,,,,,,,,,,,,,,,,,,,,,,,,,,,,,,,,,,,,,,,,,,,,,,,,,,,,,,,,,,,,,,,,,,,,,,,,,,,,,,,,,,,,,,,,,,,,,,,,,,,,,,,,,,,,,,,,,,,,,,,,,,,,,,,,,,,
,,67a95d468d14bd6324b4bbba,2026-03-17_06h23.36.956,kallum_motion_pilot_GIST_update_2,2026.1.1,Win32,59.88023952,67a95d468d14bd6324b4bbba,69b92ab4aef6dee357cd729a,69b92b4d5cc039aa7625260f,0.1006,0.1007,1,71,233,108,1,sevenfive,,,,,,,,,,,,,,,,,,,,,,,,,,,,,,,,,,,,,,,,,,,,,,,,,,,,,,,,,,,,,,,,,,,,,,,,,,,,,,,,,,,,,,,,,,,,,,,,,,,,,,,,,,,,,,,,,,,,,,,,,,,,,,,,,,,,,,,,,
,,67a95d468d14bd6324b4bbba,2026-03-17_06h23.36.956,kallum_motion_pilot_GIST_update_2,2026.1.1,Win32,59.88023952,67a95d468d14bd6324b4bbba,69b92ab4aef6dee357cd729a,69b92b4d5cc039aa7625260f,0.101,0.101,1,72,234,148,1,sevenfive,,,,,,,,,,,,,,,,,,,,,,,,,,,,,,,,,,,,,,,,,,,,,,,,,,,,,,,,,,,,,,,,,,,,,,,,,,,,,,,,,,,,,,,,,,,,,,,,,,,,,,,,,,,,,,,,,,,,,,,,,,,,,,,,,,,,,,,,,
,,67a95d468d14bd6324b4bbba,2026-03-17_06h23.36.956,kallum_motion_pilot_GIST_update_2,2026.1.1,Win32,59.88023952,67a95d468d14bd6324b4bbba,69b92ab4aef6dee357cd729a,69b92b4d5cc039aa7625260f,0.1012,0.1012,1,73,235,91,1,sixeight,,,,,,,,,,,,,,,,,,,,,,,,,,,,,,,,,,,,,,,,,,,,,,,,,,,,,,,,,,,,,,,,,,,,,,,,,,,,,,,,,,,,,,,,,,,,,,,,,,,,,,,,,,,,,,,,,,,,,,,,,,,,,,,,,,,,,,,,,
,,67a95d468d14bd6324b4bbba,2026-03-17_06h23.36.956,kallum_motion_pilot_GIST_update_2,2026.1.1,Win32,59.88023952,67a95d468d14bd6324b4bbba,69b92ab4aef6dee357cd729a,69b92b4d5cc039aa7625260f,0.1015,0.1015,1,74,236,92,1,sevenfive,,,,,,,,,,,,,,,,,,,,,,,,,,,,,,,,,,,,,,,,,,,,,,,,,,,,,,,,,,,,,,,,,,,,,,,,,,,,,,,,,,,,,,,,,,,,,,,,,,,,,,,,,,,,,,,,,,,,,,,,,,,,,,,,,,,,,,,,,
,,67a95d468d14bd6324b4bbba,2026-03-17_06h23.36.956,kallum_motion_pilot_GIST_update_2,2026.1.1,Win32,59.88023952,67a95d468d14bd6324b4bbba,69b92ab4aef6dee357cd729a,69b92b4d5cc039aa7625260f,0.1019,0.1019,1,75,237,153,1,fiveseven,,,,,,,,,,,,,,,,,,,,,,,,,,,,,,,,,,,,,,,,,,,,,,,,,,,,,,,,,,,,,,,,,,,,,,,,,,,,,,,,,,,,,,,,,,,,,,,,,,,,,,,,,,,,,,,,,,,,,,,,,,,,,,,,,,,,,,,,,
,,67a95d468d14bd6324b4bbba,2026-03-17_06h23.36.956,kallum_motion_pilot_GIST_update_2,2026.1.1,Win32,59.88023952,67a95d468d14bd6324b4bbba,69b92ab4aef6dee357cd729a,69b92b4d5cc039aa7625260f,0.1021,0.1021,1,76,238,71,1,fourthree,,,,,,,,,,,,,,,,,,,,,,,,,,,,,,,,,,,,,,,,,,,,,,,,,,,,,,,,,,,,,,,,,,,,,,,,,,,,,,,,,,,,,,,,,,,,,,,,,,,,,,,,,,,,,,,,,,,,,,,,,,,,,,,,,,,,,,,,,
,,67a95d468d14bd6324b4bbba,2026-03-17_06h23.36.956,kallum_motion_pilot_GIST_update_2,2026.1.1,Win32,59.88023952,67a95d468d14bd6324b4bbba,69b92ab4aef6dee357cd729a,69b92b4d5cc039aa7625260f,0.1025,0.1025,1,77,239,9,1,onethree,,,,,,,,,,,,,,,,,,,,,,,,,,,,,,,,,,,,,,,,,,,,,,,,,,,,,,,,,,,,,,,,,,,,,,,,,,,,,,,,,,,,,,,,,,,,,,,,,,,,,,,,,,,,,,,,,,,,,,,,,,,,,,,,,,,,,,,,,
,,67a95d468d14bd6324b4bbba,2026-03-17_06h23.36.956,kallum_motion_pilot_GIST_update_2,2026.1.1,Win32,59.88023952,67a95d468d14bd6324b4bbba,69b92ab4aef6dee357cd729a,69b92b4d5cc039aa7625260f,0.1027,0.1027,1,78,240,83,1,sixeight,,,,,,,,,,,,,,,,,,,,,,,,,,,,,,,,,,,,,,,,,,,,,,,,,,,,,,,,,,,,,,,,,,,,,,,,,,,,,,,,,,,,,,,,,,,,,,,,,,,,,,,,,,,,,,,,,,,,,,,,,,,,,,,,,,,,,,,,,
,,67a95d468d14bd6324b4bbba,2026-03-17_06h23.36.956,kallum_motion_pilot_GIST_update_2,2026.1.1,Win32,59.88023952,67a95d468d14bd6324b4bbba,69b92ab4aef6dee357cd729a,69b92b4d5cc039aa7625260f,0.1031,0.1031,1,79,241,154,1,sixfive,,,,,,,,,,,,,,,,,,,,,,,,,,,,,,,,,,,,,,,,,,,,,,,,,,,,,,,,,,,,,,,,,,,,,,,,,,,,,,,,,,,,,,,,,,,,,,,,,,,,,,,,,,,,,,,,,,,,,,,,,,,,,,,,,,,,,,,,,
,,67a95d468d14bd6324b4bbba,2026-03-17_06h23.36.956,kallum_motion_pilot_GIST_update_2,2026.1.1,Win32,59.88023952,67a95d468d14bd6324b4bbba,69b92ab4aef6dee357cd729a,69b92b4d5cc039aa7625260f,0.1034,0.1034,1,80,242,118,1,eightsix,,,,,,,,,,,,,,,,,,,,,,,,,,,,,,,,,,,,,,,,,,,,,,,,,,,,,,,,,,,,,,,,,,,,,,,,,,,,,,,,,,,,,,,,,,,,,,,,,,,,,,,,,,,,,,,,,,,,,,,,,,,,,,,,,,,,,,,,,
,,67a95d468d14bd6324b4bbba,2026-03-17_06h23.36.956,kallum_motion_pilot_GIST_update_2,2026.1.1,Win32,59.88023952,67a95d468d14bd6324b4bbba,69b92ab4aef6dee357cd729a,69b92b4d5cc039aa7625260f,0.1038,0.1039,1,81,243,23,1,fourthree,,,,,,,,,,,,,,,,,,,,,,,,,,,,,,,,,,,,,,,,,,,,,,,,,,,,,,,,,,,,,,,,,,,,,,,,,,,,,,,,,,,,,,,,,,,,,,,,,,,,,,,,,,,,,,,,,,,,,,,,,,,,,,,,,,,,,,,,,
,,67a95d468d14bd6324b4bbba,2026-03-17_06h23.36.956,kallum_motion_pilot_GIST_update_2,2026.1.1,Win32,59.88023952,67a95d468d14bd6324b4bbba,69b92ab4aef6dee357cd729a,69b92b4d5cc039aa7625260f,0.1044,0.1044,1,82,244,84,1,sevenfive,,,,,,,,,,,,,,,,,,,,,,,,,,,,,,,,,,,,,,,,,,,,,,,,,,,,,,,,,,,,,,,,,,,,,,,,,,,,,,,,,,,,,,,,,,,,,,,,,,,,,,,,,,,,,,,,,,,,,,,,,,,,,,,,,,,,,,,,,
,,67a95d468d14bd6324b4bbba,2026-03-17_06h23.36.956,kallum_motion_pilot_GIST_update_2,2026.1.1,Win32,59.88023952,67a95d468d14bd6324b4bbba,69b92ab4aef6dee357cd729a,69b92b4d5cc039aa7625260f,0.1047,0.1048,1,83,245,45,1,threefour,,,,,,,,,,,,,,,,,,,,,,,,,,,,,,,,,,,,,,,,,,,,,,,,,,,,,,,,,,,,,,,,,,,,,,,,,,,,,,,,,,,,,,,,,,,,,,,,,,,,,,,,,,,,,,,,,,,,,,,,,,,,,,,,,,,,,,,,,
,,67a95d468d14bd6324b4bbba,2026-03-17_06h23.36.956,kallum_motion_pilot_GIST_update_2,2026.1.1,Win32,59.88023952,67a95d468d14bd6324b4bbba,69b92ab4aef6dee357cd729a,69b92b4d5cc039aa7625260f,0.1051,0.1051,1,84,246,158,1,eightsix,,,,,,,,,,,,,,,,,,,,,,,,,,,,,,,,,,,,,,,,,,,,,,,,,,,,,,,,,,,,,,,,,,,,,,,,,,,,,,,,,,,,,,,,,,,,,,,,,,,,,,,,,,,,,,,,,,,,,,,,,,,,,,,,,,,,,,,,,
,,67a95d468d14bd6324b4bbba,2026-03-17_06h23.36.956,kallum_motion_pilot_GIST_update_2,2026.1.1,Win32,59.88023952,67a95d468d14bd6324b4bbba,69b92ab4aef6dee357cd729a,69b92b4d5cc039aa7625260f,0.1056,0.1056,1,85,247,39,1,fourthree,,,,,,,,,,,,,,,,,,,,,,,,,,,,,,,,,,,,,,,,,,,,,,,,,,,,,,,,,,,,,,,,,,,,,,,,,,,,,,,,,,,,,,,,,,,,,,,,,,,,,,,,,,,,,,,,,,,,,,,,,,,,,,,,,,,,,,,,,
,,67a95d468d14bd6324b4bbba,2026-03-17_06h23.36.956,kallum_motion_pilot_GIST_update_2,2026.1.1,Win32,59.88023952,67a95d468d14bd6324b4bbba,69b92ab4aef6dee357cd729a,69b92b4d5cc039aa7625260f,0.106,0.106,1,86,248,66,1,twoone,,,,,,,,,,,,,,,,,,,,,,,,,,,,,,,,,,,,,,,,,,,,,,,,,,,,,,,,,,,,,,,,,,,,,,,,,,,,,,,,,,,,,,,,,,,,,,,,,,,,,,,,,,,,,,,,,,,,,,,,,,,,,,,,,,,,,,,,,
,,67a95d468d14bd6324b4bbba,2026-03-17_06h23.36.956,kallum_motion_pilot_GIST_update_2,2026.1.1,Win32,59.88023952,67a95d468d14bd6324b4bbba,69b92ab4aef6dee357cd729a,69b92b4d5cc039aa7625260f,0.1064,0.1064,1,87,249,150,1,eightsix,,,,,,,,,,,,,,,,,,,,,,,,,,,,,,,,,,,,,,,,,,,,,,,,,,,,,,,,,,,,,,,,,,,,,,,,,,,,,,,,,,,,,,,,,,,,,,,,,,,,,,,,,,,,,,,,,,,,,,,,,,,,,,,,,,,,,,,,,
,,67a95d468d14bd6324b4bbba,2026-03-17_06h23.36.956,kallum_motion_pilot_GIST_update_2,2026.1.1,Win32,59.88023952,67a95d468d14bd6324b4bbba,69b92ab4aef6dee357cd729a,69b92b4d5cc039aa7625260f,0.1067,0.1068,1,88,250,101,1,seveneight,,,,,,,,,,,,,,,,,,,,,,,,,,,,,,,,,,,,,,,,,,,,,,,,,,,,,,,,,,,,,,,,,,,,,,,,,,,,,,,,,,,,,,,,,,,,,,,,,,,,,,,,,,,,,,,,,,,,,,,,,,,,,,,,,,,,,,,,,
,,67a95d468d14bd6324b4bbba,2026-03-17_06h23.36.956,kallum_motion_pilot_GIST_update_2,2026.1.1,Win32,59.88023952,67a95d468d14bd6324b4bbba,69b92ab4aef6dee357cd729a,69b92b4d5cc039aa7625260f,0.1071,0.1071,1,89,251,17,1,onethree,,,,,,,,,,,,,,,,,,,,,,,,,,,,,,,,,,,,,,,,,,,,,,,,,,,,,,,,,,,,,,,,,,,,,,,,,,,,,,,,,,,,,,,,,,,,,,,,,,,,,,,,,,,,,,,,,,,,,,,,,,,,,,,,,,,,,,,,,
,,67a95d468d14bd6324b4bbba,2026-03-17_06h23.36.956,kallum_motion_pilot_GIST_update_2,2026.1.1,Win32,59.88023952,67a95d468d14bd6324b4bbba,69b92ab4aef6dee357cd729a,69b92b4d5cc039aa7625260f,0.1076,0.1076,1,90,252,116,1,sevenfive,,,,,,,,,,,,,,,,,,,,,,,,,,,,,,,,,,,,,,,,,,,,,,,,,,,,,,,,,,,,,,,,,,,,,,,,,,,,,,,,,,,,,,,,,,,,,,,,,,,,,,,,,,,,,,,,,,,,,,,,,,,,,,,,,,,,,,,,,
,,67a95d468d14bd6324b4bbba,2026-03-17_06h23.36.956,kallum_motion_pilot_GIST_update_2,2026.1.1,Win32,59.88023952,67a95d468d14bd6324b4bbba,69b92ab4aef6dee357cd729a,69b92b4d5cc039aa7625260f,0.1081,0.1082,1,91,253,30,1,fourtwo,,,,,,,,,,,,,,,,,,,,,,,,,,,,,,,,,,,,,,,,,,,,,,,,,,,,,,,,,,,,,,,,,,,,,,,,,,,,,,,,,,,,,,,,,,,,,,,,,,,,,,,,,,,,,,,,,,,,,,,,,,,,,,,,,,,,,,,,,
,,67a95d468d14bd6324b4bbba,2026-03-17_06h23.36.956,kallum_motion_pilot_GIST_update_2,2026.1.1,Win32,59.88023952,67a95d468d14bd6324b4bbba,69b92ab4aef6dee357cd729a,69b92b4d5cc039aa7625260f,0.1086,0.1086,1,92,254,38,1,fourtwo,,,,,,,,,,,,,,,,,,,,,,,,,,,,,,,,,,,,,,,,,,,,,,,,,,,,,,,,,,,,,,,,,,,,,,,,,,,,,,,,,,,,,,,,,,,,,,,,,,,,,,,,,,,,,,,,,,,,,,,,,,,,,,,,,,,,,,,,,
,,67a95d468d14bd6324b4bbba,2026-03-17_06h23.36.956,kallum_motion_pilot_GIST_update_2,2026.1.1,Win32,59.88023952,67a95d468d14bd6324b4bbba,69b92ab4aef6dee357cd729a,69b92b4d5cc039aa7625260f,0.1091,0.1091,1,93,255,149,1,seveneight,,,,,,,,,,,,,,,,,,,,,,,,,,,,,,,,,,,,,,,,,,,,,,,,,,,,,,,,,,,,,,,,,,,,,,,,,,,,,,,,,,,,,,,,,,,,,,,,,,,,,,,,,,,,,,,,,,,,,,,,,,,,,,,,,,,,,,,,,
,,67a95d468d14bd6324b4bbba,2026-03-17_06h23.36.956,kallum_motion_pilot_GIST_update_2,2026.1.1,Win32,59.88023952,67a95d468d14bd6324b4bbba,69b92ab4aef6dee357cd729a,69b92b4d5cc039aa7625260f,0.1096,0.1096,1,94,256,56,1,onetwo,,,,,,,,,,,,,,,,,,,,,,,,,,,,,,,,,,,,,,,,,,,,,,,,,,,,,,,,,,,,,,,,,,,,,,,,,,,,,,,,,,,,,,,,,,,,,,,,,,,,,,,,,,,,,,,,,,,,,,,,,,,,,,,,,,,,,,,,,
,,67a95d468d14bd6324b4bbba,2026-03-17_06h23.36.956,kallum_motion_pilot_GIST_update_2,2026.1.1,Win32,59.88023952,67a95d468d14bd6324b4bbba,69b92ab4aef6dee357cd729a,69b92b4d5cc039aa7625260f,0.1102,0.1102,1,95,257,86,1,eightsix,,,,,,,,,,,,,,,,,,,,,,,,,,,,,,,,,,,,,,,,,,,,,,,,,,,,,,,,,,,,,,,,,,,,,,,,,,,,,,,,,,,,,,,,,,,,,,,,,,,,,,,,,,,,,,,,,,,,,,,,,,,,,,,,,,,,,,,,,
,,67a95d468d14bd6324b4bbba,2026-03-17_06h23.36.956,kallum_motion_pilot_GIST_update_2,2026.1.1,Win32,59.88023952,67a95d468d14bd6324b4bbba,69b92ab4aef6dee357cd729a,69b92b4d5cc039aa7625260f,0.1105,0.1105,1,96,258,22,1,fourtwo,,,,,,,,,,,,,,,,,,,,,,,,,,,,,,,,,,,,,,,,,,,,,,,,,,,,,,,,,,,,,,,,,,,,,,,,,,,,,,,,,,,,,,,,,,,,,,,,,,,,,,,,,,,,,,,,,,,,,,,,,,,,,,,,,,,,,,,,,
,,67a95d468d14bd6324b4bbba,2026-03-17_06h23.36.956,kallum_motion_pilot_GIST_update_2,2026.1.1,Win32,59.88023952,67a95d468d14bd6324b4bbba,69b92ab4aef6dee357cd729a,69b92b4d5cc039aa7625260f,0.111,0.111,1,97,259,127,1,eightseven,,,,,,,,,,,,,,,,,,,,,,,,,,,,,,,,,,,,,,,,,,,,,,,,,,,,,,,,,,,,,,,,,,,,,,,,,,,,,,,,,,,,,,,,,,,,,,,,,,,,,,,,,,,,,,,,,,,,,,,,,,,,,,,,,,,,,,,,,
,,67a95d468d14bd6324b4bbba,2026-03-17_06h23.36.956,kallum_motion_pilot_GIST_update_2,2026.1.1,Win32,59.88023952,67a95d468d14bd6324b4bbba,69b92ab4aef6dee357cd729a,69b92b4d5cc039aa7625260f,0.1113,0.1113,1,98,260,105,1,fiveseven,,,,,,,,,,,,,,,,,,,,,,,,,,,,,,,,,,,,,,,,,,,,,,,,,,,,,,,,,,,,,,,,,,,,,,,,,,,,,,,,,,,,,,,,,,,,,,,,,,,,,,,,,,,,,,,,,,,,,,,,,,,,,,,,,,,,,,,,,
,,67a95d468d14bd6324b4bbba,2026-03-17_06h23.36.956,kallum_motion_pilot_GIST_update_2,2026.1.1,Win32,59.88023952,67a95d468d14bd6324b4bbba,69b92ab4aef6dee357cd729a,69b92b4d5cc039aa7625260f,0.1116,0.1116,1,99,261,12,1,threeone,,,,,,,,,,,,,,,,,,,,,,,,,,,,,,,,,,,,,,,,,,,,,,,,,,,,,,,,,,,,,,,,,,,,,,,,,,,,,,,,,,,,,,,,,,,,,,,,,,,,,,,,,,,,,,,,,,,,,,,,,,,,,,,,,,,,,,,,,
,,67a95d468d14bd6324b4bbba,2026-03-17_06h23.36.956,kallum_motion_pilot_GIST_update_2,2026.1.1,Win32,59.88023952,67a95d468d14bd6324b4bbba,69b92ab4aef6dee357cd729a,69b92b4d5cc039aa7625260f,0.112,0.1121,1,100,262,67,1,twofour,,,,,,,,,,,,,,,,,,,,,,,,,,,,,,,,,,,,,,,,,,,,,,,,,,,,,,,,,,,,,,,,,,,,,,,,,,,,,,,,,,,,,,,,,,,,,,,,,,,,,,,,,,,,,,,,,,,,,,,,,,,,,,,,,,,,,,,,,
,,67a95d468d14bd6324b4bbba,2026-03-17_06h23.36.956,kallum_motion_pilot_GIST_update_2,2026.1.1,Win32,59.88023952,67a95d468d14bd6324b4bbba,69b92ab4aef6dee357cd729a,69b92b4d5cc039aa7625260f,0.1125,0.1125,1,101,263,52,1,threeone,,,,,,,,,,,,,,,,,,,,,,,,,,,,,,,,,,,,,,,,,,,,,,,,,,,,,,,,,,,,,,,,,,,,,,,,,,,,,,,,,,,,,,,,,,,,,,,,,,,,,,,,,,,,,,,,,,,,,,,,,,,,,,,,,,,,,,,,,
,,67a95d468d14bd6324b4bbba,2026-03-17_06h23.36.956,kallum_motion_pilot_GIST_update_2,2026.1.1,Win32,59.88023952,67a95d468d14bd6324b4bbba,69b92ab4aef6dee357cd729a,69b92b4d5cc039aa7625260f,0.1131,0.1132,1,102,264,47,1,fourthree,,,,,,,,,,,,,,,,,,,,,,,,,,,,,,,,,,,,,,,,,,,,,,,,,,,,,,,,,,,,,,,,,,,,,,,,,,,,,,,,,,,,,,,,,,,,,,,,,,,,,,,,,,,,,,,,,,,,,,,,,,,,,,,,,,,,,,,,,
,,67a95d468d14bd6324b4bbba,2026-03-17_06h23.36.956,kallum_motion_pilot_GIST_update_2,2026.1.1,Win32,59.88023952,67a95d468d14bd6324b4bbba,69b92ab4aef6dee357cd729a,69b92b4d5cc039aa7625260f,0.1137,0.1137,1,103,265,114,1,sixfive,,,,,,,,,,,,,,,,,,,,,,,,,,,,,,,,,,,,,,,,,,,,,,,,,,,,,,,,,,,,,,,,,,,,,,,,,,,,,,,,,,,,,,,,,,,,,,,,,,,,,,,,,,,,,,,,,,,,,,,,,,,,,,,,,,,,,,,,,
,,67a95d468d14bd6324b4bbba,2026-03-17_06h23.36.956,kallum_motion_pilot_GIST_update_2,2026.1.1,Win32,59.88023952,67a95d468d14bd6324b4bbba,69b92ab4aef6dee357cd729a,69b92b4d5cc039aa7625260f,0.1141,0.1141,1,104,266,48,1,onetwo,,,,,,,,,,,,,,,,,,,,,,,,,,,,,,,,,,,,,,,,,,,,,,,,,,,,,,,,,,,,,,,,,,,,,,,,,,,,,,,,,,,,,,,,,,,,,,,,,,,,,,,,,,,,,,,,,,,,,,,,,,,,,,,,,,,,,,,,,
