startup.started,startup.stopped,Prolific ID*,date,expName,psychopyVersion,OS,frameRate,participant,study_id,session,stimpositions.started,stimpositions.stopped,hardcoded_stimulus_positions.thisRepN,hardcoded_stimulus_positions.thisTrialN,hardcoded_stimulus_positions.thisN,hardcoded_stimulus_positions.thisIndex,hardcoded_stimulus_positions.ran,StimulusPos,stimorientation.started,stimorientation.stopped,prac_stimorientation_import_loop.thisRepN,prac_stimorientation_import_loop.thisTrialN,prac_stimorientation_import_loop.thisN,prac_stimorientation_import_loop.thisIndex,prac_stimorientation_import_loop.ran,Stimorientation,welcome_instr.started,welcome_instr.stopped,key_resp.keys,key_resp.rt,key_resp.duration,response_steppedout_1.started,response_steppedout_1.stopped,key_resp_20.keys,key_resp_20.rt,key_resp_20.duration,response_steppedout_2.started,response_steppedout_2.stopped,key_resp_19.keys,key_resp_19.rt,key_resp_19.duration,stim_response_instr.started,stim_response_instr.stopped,key_resp_15.keys,key_resp_15.rt,key_resp_15.duration,direction_instr_2.started,direction_instr_2.stopped,key_resp_9.keys,key_resp_9.rt,key_resp_9.duration,instr_prac.started,instr_prac.stopped,key_resp_10.keys,key_resp_10.rt,key_resp_10.duration,Stim1_display_prac.started,Stim1_display_prac.stopped,Ecc,Circle1_ori,Circle2_ori,response_prac.started,similarity,response_time,response_prac.stopped,mouse_5.x,mouse_5.y,mouse_5.leftButton,mouse_5.midButton,mouse_5.rightButton,mouse_5.clicked_name,responseprac_feedback.started,responseprac_feedback.stopped,summary2_prac.started,summary2_prac.stopped,mouse_6.x,mouse_6.y,mouse_6.leftButton,mouse_6.midButton,mouse_6.rightButton,mouse_6.clicked_name,duringprac.thisRepN,duringprac.thisTrialN,duringprac.thisN,duringprac.thisIndex,duringprac.ran,begin.started,begin.stopped,key_resp_22.keys,key_resp_22.rt,key_resp_22.duration,Stim1_display.started,Stim1_display.stopped,circle1_ori,circle2_ori,circle1_SF,circle2_SF,response.started,response.stopped,mouse.x,mouse.y,mouse.leftButton,mouse.midButton,mouse.rightButton,mouse.clicked_name,trialnumber,double_pass.thisRepN,double_pass.thisTrialN,double_pass.thisN,double_pass.thisIndex,double_pass.ran,double_pass.order,main_trial.thisRepN,main_trial.thisTrialN,main_trial.thisN,main_trial.thisIndex,main_trial.ran,main_trial.order,Trial_Counter,Catch,Frequencies,response_2.started,response_2.stopped,mouse_2.x,mouse_2.y,mouse_2.leftButton,mouse_2.midButton,mouse_2.rightButton,mouse_2.clicked_name,special_trial.started,special_trial.stopped,catch_1.started,catch_1.stopped,mouse_3.x,mouse_3.y,mouse_3.leftButton,mouse_3.midButton,mouse_3.rightButton,catchresponse,catchnumber,response_time_catch,response_sum.started,response_sum.stopped,mouse_11.x,mouse_11.y,mouse_11.leftButton,mouse_11.midButton,mouse_11.rightButton,flip_presentation_sequence_for_double_pass.started,flip_presentation_sequence_for_double_pass.stopped,goodbye.started,goodbye.stopped,key_resp_3.keys,key_resp_3.rt,key_resp_3.duration
0.0011,0.0018,67ad92d9631677cfaa995e28,2026-03-17_12h43.54.317,kallum_motion_pilot_GIST_update_2,2026.1.1,Win32,59.52380952,67ad92d9631677cfaa995e28,69b92ab4aef6dee357cd729a,69b92f46d80a3b3e4ffc20c5,,,,,,,,,,,,,,,,,,,,,,,,,,,,,,,,,,,,,,,,,,,,,,,,,,,,,,,,,,,,,,,,,,,,,,,,,,,,,,,,,,,,,,,,,,,,,,,,,,,,,,,,,,,,,,,,,,,,,,,,,,,,,,,,,,,,,,,,,,,,,,,,,
,,67ad92d9631677cfaa995e28,2026-03-17_12h43.54.317,kallum_motion_pilot_GIST_update_2,2026.1.1,Win32,59.52380952,67ad92d9631677cfaa995e28,69b92ab4aef6dee357cd729a,69b92f46d80a3b3e4ffc20c5,0.1192,0.1196,0,0,0,105,1,fiveseven,,,,,,,,,,,,,,,,,,,,,,,,,,,,,,,,,,,,,,,,,,,,,,,,,,,,,,,,,,,,,,,,,,,,,,,,,,,,,,,,,,,,,,,,,,,,,,,,,,,,,,,,,,,,,,,,,,,,,,,,,,,,,,,,,,,,,,,,,
,,67ad92d9631677cfaa995e28,2026-03-17_12h43.54.317,kallum_motion_pilot_GIST_update_2,2026.1.1,Win32,59.52380952,67ad92d9631677cfaa995e28,69b92ab4aef6dee357cd729a,69b92f46d80a3b3e4ffc20c5,0.1211,0.1211,0,1,1,29,1,threefour,,,,,,,,,,,,,,,,,,,,,,,,,,,,,,,,,,,,,,,,,,,,,,,,,,,,,,,,,,,,,,,,,,,,,,,,,,,,,,,,,,,,,,,,,,,,,,,,,,,,,,,,,,,,,,,,,,,,,,,,,,,,,,,,,,,,,,,,,
,,67ad92d9631677cfaa995e28,2026-03-17_12h43.54.317,kallum_motion_pilot_GIST_update_2,2026.1.1,Win32,59.52380952,67ad92d9631677cfaa995e28,69b92ab4aef6dee357cd729a,69b92f46d80a3b3e4ffc20c5,0.1219,0.1221,0,2,2,42,1,twoone,,,,,,,,,,,,,,,,,,,,,,,,,,,,,,,,,,,,,,,,,,,,,,,,,,,,,,,,,,,,,,,,,,,,,,,,,,,,,,,,,,,,,,,,,,,,,,,,,,,,,,,,,,,,,,,,,,,,,,,,,,,,,,,,,,,,,,,,,
,,67ad92d9631677cfaa995e28,2026-03-17_12h43.54.317,kallum_motion_pilot_GIST_update_2,2026.1.1,Win32,59.52380952,67ad92d9631677cfaa995e28,69b92ab4aef6dee357cd729a,69b92f46d80a3b3e4ffc20c5,0.123,0.1231,0,3,3,126,1,eightsix,,,,,,,,,,,,,,,,,,,,,,,,,,,,,,,,,,,,,,,,,,,,,,,,,,,,,,,,,,,,,,,,,,,,,,,,,,,,,,,,,,,,,,,,,,,,,,,,,,,,,,,,,,,,,,,,,,,,,,,,,,,,,,,,,,,,,,,,,
,,67ad92d9631677cfaa995e28,2026-03-17_12h43.54.317,kallum_motion_pilot_GIST_update_2,2026.1.1,Win32,59.52380952,67ad92d9631677cfaa995e28,69b92ab4aef6dee357cd729a,69b92f46d80a3b3e4ffc20c5,0.1241,0.1242,0,4,4,159,1,eightseven,,,,,,,,,,,,,,,,,,,,,,,,,,,,,,,,,,,,,,,,,,,,,,,,,,,,,,,,,,,,,,,,,,,,,,,,,,,,,,,,,,,,,,,,,,,,,,,,,,,,,,,,,,,,,,,,,,,,,,,,,,,,,,,,,,,,,,,,,
,,67ad92d9631677cfaa995e28,2026-03-17_12h43.54.317,kallum_motion_pilot_GIST_update_2,2026.1.1,Win32,59.52380952,67ad92d9631677cfaa995e28,69b92ab4aef6dee357cd729a,69b92f46d80a3b3e4ffc20c5,0.1249,0.125,0,5,5,82,1,sixfive,,,,,,,,,,,,,,,,,,,,,,,,,,,,,,,,,,,,,,,,,,,,,,,,,,,,,,,,,,,,,,,,,,,,,,,,,,,,,,,,,,,,,,,,,,,,,,,,,,,,,,,,,,,,,,,,,,,,,,,,,,,,,,,,,,,,,,,,,
,,67ad92d9631677cfaa995e28,2026-03-17_12h43.54.317,kallum_motion_pilot_GIST_update_2,2026.1.1,Win32,59.52380952,67ad92d9631677cfaa995e28,69b92ab4aef6dee357cd729a,69b92f46d80a3b3e4ffc20c5,0.126,0.1262,0,6,6,27,1,twofour,,,,,,,,,,,,,,,,,,,,,,,,,,,,,,,,,,,,,,,,,,,,,,,,,,,,,,,,,,,,,,,,,,,,,,,,,,,,,,,,,,,,,,,,,,,,,,,,,,,,,,,,,,,,,,,,,,,,,,,,,,,,,,,,,,,,,,,,,
,,67ad92d9631677cfaa995e28,2026-03-17_12h43.54.317,kallum_motion_pilot_GIST_update_2,2026.1.1,Win32,59.52380952,67ad92d9631677cfaa995e28,69b92ab4aef6dee357cd729a,69b92f46d80a3b3e4ffc20c5,0.1274,0.1275,0,7,7,63,1,fourthree,,,,,,,,,,,,,,,,,,,,,,,,,,,,,,,,,,,,,,,,,,,,,,,,,,,,,,,,,,,,,,,,,,,,,,,,,,,,,,,,,,,,,,,,,,,,,,,,,,,,,,,,,,,,,,,,,,,,,,,,,,,,,,,,,,,,,,,,,
,,67ad92d9631677cfaa995e28,2026-03-17_12h43.54.317,kallum_motion_pilot_GIST_update_2,2026.1.1,Win32,59.52380952,67ad92d9631677cfaa995e28,69b92ab4aef6dee357cd729a,69b92f46d80a3b3e4ffc20c5,0.1321,0.1322,0,8,8,8,1,onetwo,,,,,,,,,,,,,,,,,,,,,,,,,,,,,,,,,,,,,,,,,,,,,,,,,,,,,,,,,,,,,,,,,,,,,,,,,,,,,,,,,,,,,,,,,,,,,,,,,,,,,,,,,,,,,,,,,,,,,,,,,,,,,,,,,,,,,,,,,
,,67ad92d9631677cfaa995e28,2026-03-17_12h43.54.317,kallum_motion_pilot_GIST_update_2,2026.1.1,Win32,59.52380952,67ad92d9631677cfaa995e28,69b92ab4aef6dee357cd729a,69b92f46d80a3b3e4ffc20c5,0.1331,0.1331,0,9,9,28,1,threeone,,,,,,,,,,,,,,,,,,,,,,,,,,,,,,,,,,,,,,,,,,,,,,,,,,,,,,,,,,,,,,,,,,,,,,,,,,,,,,,,,,,,,,,,,,,,,,,,,,,,,,,,,,,,,,,,,,,,,,,,,,,,,,,,,,,,,,,,,
,,67ad92d9631677cfaa995e28,2026-03-17_12h43.54.317,kallum_motion_pilot_GIST_update_2,2026.1.1,Win32,59.52380952,67ad92d9631677cfaa995e28,69b92ab4aef6dee357cd729a,69b92f46d80a3b3e4ffc20c5,0.1339,0.1339,0,10,10,120,1,fivesix,,,,,,,,,,,,,,,,,,,,,,,,,,,,,,,,,,,,,,,,,,,,,,,,,,,,,,,,,,,,,,,,,,,,,,,,,,,,,,,,,,,,,,,,,,,,,,,,,,,,,,,,,,,,,,,,,,,,,,,,,,,,,,,,,,,,,,,,,
,,67ad92d9631677cfaa995e28,2026-03-17_12h43.54.317,kallum_motion_pilot_GIST_update_2,2026.1.1,Win32,59.52380952,67ad92d9631677cfaa995e28,69b92ab4aef6dee357cd729a,69b92f46d80a3b3e4ffc20c5,0.1347,0.1348,0,11,11,44,1,threeone,,,,,,,,,,,,,,,,,,,,,,,,,,,,,,,,,,,,,,,,,,,,,,,,,,,,,,,,,,,,,,,,,,,,,,,,,,,,,,,,,,,,,,,,,,,,,,,,,,,,,,,,,,,,,,,,,,,,,,,,,,,,,,,,,,,,,,,,,
,,67ad92d9631677cfaa995e28,2026-03-17_12h43.54.317,kallum_motion_pilot_GIST_update_2,2026.1.1,Win32,59.52380952,67ad92d9631677cfaa995e28,69b92ab4aef6dee357cd729a,69b92f46d80a3b3e4ffc20c5,0.1356,0.1357,0,12,12,92,1,sevenfive,,,,,,,,,,,,,,,,,,,,,,,,,,,,,,,,,,,,,,,,,,,,,,,,,,,,,,,,,,,,,,,,,,,,,,,,,,,,,,,,,,,,,,,,,,,,,,,,,,,,,,,,,,,,,,,,,,,,,,,,,,,,,,,,,,,,,,,,,
,,67ad92d9631677cfaa995e28,2026-03-17_12h43.54.317,kallum_motion_pilot_GIST_update_2,2026.1.1,Win32,59.52380952,67ad92d9631677cfaa995e28,69b92ab4aef6dee357cd729a,69b92f46d80a3b3e4ffc20c5,0.137,0.137,0,13,13,149,1,seveneight,,,,,,,,,,,,,,,,,,,,,,,,,,,,,,,,,,,,,,,,,,,,,,,,,,,,,,,,,,,,,,,,,,,,,,,,,,,,,,,,,,,,,,,,,,,,,,,,,,,,,,,,,,,,,,,,,,,,,,,,,,,,,,,,,,,,,,,,,
,,67ad92d9631677cfaa995e28,2026-03-17_12h43.54.317,kallum_motion_pilot_GIST_update_2,2026.1.1,Win32,59.52380952,67ad92d9631677cfaa995e28,69b92ab4aef6dee357cd729a,69b92f46d80a3b3e4ffc20c5,0.1378,0.1379,0,14,14,111,1,eightseven,,,,,,,,,,,,,,,,,,,,,,,,,,,,,,,,,,,,,,,,,,,,,,,,,,,,,,,,,,,,,,,,,,,,,,,,,,,,,,,,,,,,,,,,,,,,,,,,,,,,,,,,,,,,,,,,,,,,,,,,,,,,,,,,,,,,,,,,,
,,67ad92d9631677cfaa995e28,2026-03-17_12h43.54.317,kallum_motion_pilot_GIST_update_2,2026.1.1,Win32,59.52380952,67ad92d9631677cfaa995e28,69b92ab4aef6dee357cd729a,69b92f46d80a3b3e4ffc20c5,0.1385,0.1387,0,15,15,17,1,onethree,,,,,,,,,,,,,,,,,,,,,,,,,,,,,,,,,,,,,,,,,,,,,,,,,,,,,,,,,,,,,,,,,,,,,,,,,,,,,,,,,,,,,,,,,,,,,,,,,,,,,,,,,,,,,,,,,,,,,,,,,,,,,,,,,,,,,,,,,
,,67ad92d9631677cfaa995e28,2026-03-17_12h43.54.317,kallum_motion_pilot_GIST_update_2,2026.1.1,Win32,59.52380952,67ad92d9631677cfaa995e28,69b92ab4aef6dee357cd729a,69b92f46d80a3b3e4ffc20c5,0.1395,0.1396,0,16,16,69,1,threefour,,,,,,,,,,,,,,,,,,,,,,,,,,,,,,,,,,,,,,,,,,,,,,,,,,,,,,,,,,,,,,,,,,,,,,,,,,,,,,,,,,,,,,,,,,,,,,,,,,,,,,,,,,,,,,,,,,,,,,,,,,,,,,,,,,,,,,,,,
,,67ad92d9631677cfaa995e28,2026-03-17_12h43.54.317,kallum_motion_pilot_GIST_update_2,2026.1.1,Win32,59.52380952,67ad92d9631677cfaa995e28,69b92ab4aef6dee357cd729a,69b92f46d80a3b3e4ffc20c5,0.1404,0.1404,0,17,17,145,1,fiveseven,,,,,,,,,,,,,,,,,,,,,,,,,,,,,,,,,,,,,,,,,,,,,,,,,,,,,,,,,,,,,,,,,,,,,,,,,,,,,,,,,,,,,,,,,,,,,,,,,,,,,,,,,,,,,,,,,,,,,,,,,,,,,,,,,,,,,,,,,
,,67ad92d9631677cfaa995e28,2026-03-17_12h43.54.317,kallum_motion_pilot_GIST_update_2,2026.1.1,Win32,59.52380952,67ad92d9631677cfaa995e28,69b92ab4aef6dee357cd729a,69b92f46d80a3b3e4ffc20c5,0.1412,0.1412,0,18,18,147,1,sixeight,,,,,,,,,,,,,,,,,,,,,,,,,,,,,,,,,,,,,,,,,,,,,,,,,,,,,,,,,,,,,,,,,,,,,,,,,,,,,,,,,,,,,,,,,,,,,,,,,,,,,,,,,,,,,,,,,,,,,,,,,,,,,,,,,,,,,,,,,
,,67ad92d9631677cfaa995e28,2026-03-17_12h43.54.317,kallum_motion_pilot_GIST_update_2,2026.1.1,Win32,59.52380952,67ad92d9631677cfaa995e28,69b92ab4aef6dee357cd729a,69b92f46d80a3b3e4ffc20c5,0.1419,0.142,0,19,19,21,1,threefour,,,,,,,,,,,,,,,,,,,,,,,,,,,,,,,,,,,,,,,,,,,,,,,,,,,,,,,,,,,,,,,,,,,,,,,,,,,,,,,,,,,,,,,,,,,,,,,,,,,,,,,,,,,,,,,,,,,,,,,,,,,,,,,,,,,,,,,,,
,,67ad92d9631677cfaa995e28,2026-03-17_12h43.54.317,kallum_motion_pilot_GIST_update_2,2026.1.1,Win32,59.52380952,67ad92d9631677cfaa995e28,69b92ab4aef6dee357cd729a,69b92f46d80a3b3e4ffc20c5,0.1427,0.1428,0,20,20,139,1,sixeight,,,,,,,,,,,,,,,,,,,,,,,,,,,,,,,,,,,,,,,,,,,,,,,,,,,,,,,,,,,,,,,,,,,,,,,,,,,,,,,,,,,,,,,,,,,,,,,,,,,,,,,,,,,,,,,,,,,,,,,,,,,,,,,,,,,,,,,,,
,,67ad92d9631677cfaa995e28,2026-03-17_12h43.54.317,kallum_motion_pilot_GIST_update_2,2026.1.1,Win32,59.52380952,67ad92d9631677cfaa995e28,69b92ab4aef6dee357cd729a,69b92f46d80a3b3e4ffc20c5,0.1434,0.1435,0,21,21,136,1,fivesix,,,,,,,,,,,,,,,,,,,,,,,,,,,,,,,,,,,,,,,,,,,,,,,,,,,,,,,,,,,,,,,,,,,,,,,,,,,,,,,,,,,,,,,,,,,,,,,,,,,,,,,,,,,,,,,,,,,,,,,,,,,,,,,,,,,,,,,,,
,,67ad92d9631677cfaa995e28,2026-03-17_12h43.54.317,kallum_motion_pilot_GIST_update_2,2026.1.1,Win32,59.52380952,67ad92d9631677cfaa995e28,69b92ab4aef6dee357cd729a,69b92f46d80a3b3e4ffc20c5,0.1443,0.1443,0,22,22,22,1,fourtwo,,,,,,,,,,,,,,,,,,,,,,,,,,,,,,,,,,,,,,,,,,,,,,,,,,,,,,,,,,,,,,,,,,,,,,,,,,,,,,,,,,,,,,,,,,,,,,,,,,,,,,,,,,,,,,,,,,,,,,,,,,,,,,,,,,,,,,,,,
,,67ad92d9631677cfaa995e28,2026-03-17_12h43.54.317,kallum_motion_pilot_GIST_update_2,2026.1.1,Win32,59.52380952,67ad92d9631677cfaa995e28,69b92ab4aef6dee357cd729a,69b92f46d80a3b3e4ffc20c5,0.1449,0.1449,0,23,23,151,1,eightseven,,,,,,,,,,,,,,,,,,,,,,,,,,,,,,,,,,,,,,,,,,,,,,,,,,,,,,,,,,,,,,,,,,,,,,,,,,,,,,,,,,,,,,,,,,,,,,,,,,,,,,,,,,,,,,,,,,,,,,,,,,,,,,,,,,,,,,,,,
,,67ad92d9631677cfaa995e28,2026-03-17_12h43.54.317,kallum_motion_pilot_GIST_update_2,2026.1.1,Win32,59.52380952,67ad92d9631677cfaa995e28,69b92ab4aef6dee357cd729a,69b92f46d80a3b3e4ffc20c5,0.1455,0.1458,0,24,24,79,1,eightseven,,,,,,,,,,,,,,,,,,,,,,,,,,,,,,,,,,,,,,,,,,,,,,,,,,,,,,,,,,,,,,,,,,,,,,,,,,,,,,,,,,,,,,,,,,,,,,,,,,,,,,,,,,,,,,,,,,,,,,,,,,,,,,,,,,,,,,,,,
,,67ad92d9631677cfaa995e28,2026-03-17_12h43.54.317,kallum_motion_pilot_GIST_update_2,2026.1.1,Win32,59.52380952,67ad92d9631677cfaa995e28,69b92ab4aef6dee357cd729a,69b92f46d80a3b3e4ffc20c5,0.1478,0.1479,0,25,25,10,1,twoone,,,,,,,,,,,,,,,,,,,,,,,,,,,,,,,,,,,,,,,,,,,,,,,,,,,,,,,,,,,,,,,,,,,,,,,,,,,,,,,,,,,,,,,,,,,,,,,,,,,,,,,,,,,,,,,,,,,,,,,,,,,,,,,,,,,,,,,,,
,,67ad92d9631677cfaa995e28,2026-03-17_12h43.54.317,kallum_motion_pilot_GIST_update_2,2026.1.1,Win32,59.52380952,67ad92d9631677cfaa995e28,69b92ab4aef6dee357cd729a,69b92f46d80a3b3e4ffc20c5,0.1487,0.1487,0,26,26,158,1,eightsix,,,,,,,,,,,,,,,,,,,,,,,,,,,,,,,,,,,,,,,,,,,,,,,,,,,,,,,,,,,,,,,,,,,,,,,,,,,,,,,,,,,,,,,,,,,,,,,,,,,,,,,,,,,,,,,,,,,,,,,,,,,,,,,,,,,,,,,,,
,,67ad92d9631677cfaa995e28,2026-03-17_12h43.54.317,kallum_motion_pilot_GIST_update_2,2026.1.1,Win32,59.52380952,67ad92d9631677cfaa995e28,69b92ab4aef6dee357cd729a,69b92f46d80a3b3e4ffc20c5,0.1496,0.1496,0,27,27,59,1,twofour,,,,,,,,,,,,,,,,,,,,,,,,,,,,,,,,,,,,,,,,,,,,,,,,,,,,,,,,,,,,,,,,,,,,,,,,,,,,,,,,,,,,,,,,,,,,,,,,,,,,,,,,,,,,,,,,,,,,,,,,,,,,,,,,,,,,,,,,,
,,67ad92d9631677cfaa995e28,2026-03-17_12h43.54.317,kallum_motion_pilot_GIST_update_2,2026.1.1,Win32,59.52380952,67ad92d9631677cfaa995e28,69b92ab4aef6dee357cd729a,69b92f46d80a3b3e4ffc20c5,0.1505,0.1505,0,28,28,93,1,seveneight,,,,,,,,,,,,,,,,,,,,,,,,,,,,,,,,,,,,,,,,,,,,,,,,,,,,,,,,,,,,,,,,,,,,,,,,,,,,,,,,,,,,,,,,,,,,,,,,,,,,,,,,,,,,,,,,,,,,,,,,,,,,,,,,,,,,,,,,,
,,67ad92d9631677cfaa995e28,2026-03-17_12h43.54.317,kallum_motion_pilot_GIST_update_2,2026.1.1,Win32,59.52380952,67ad92d9631677cfaa995e28,69b92ab4aef6dee357cd729a,69b92f46d80a3b3e4ffc20c5,0.1514,0.1514,0,29,29,133,1,seveneight,,,,,,,,,,,,,,,,,,,,,,,,,,,,,,,,,,,,,,,,,,,,,,,,,,,,,,,,,,,,,,,,,,,,,,,,,,,,,,,,,,,,,,,,,,,,,,,,,,,,,,,,,,,,,,,,,,,,,,,,,,,,,,,,,,,,,,,,,
,,67ad92d9631677cfaa995e28,2026-03-17_12h43.54.317,kallum_motion_pilot_GIST_update_2,2026.1.1,Win32,59.52380952,67ad92d9631677cfaa995e28,69b92ab4aef6dee357cd729a,69b92f46d80a3b3e4ffc20c5,0.152,0.1522,0,30,30,97,1,fiveseven,,,,,,,,,,,,,,,,,,,,,,,,,,,,,,,,,,,,,,,,,,,,,,,,,,,,,,,,,,,,,,,,,,,,,,,,,,,,,,,,,,,,,,,,,,,,,,,,,,,,,,,,,,,,,,,,,,,,,,,,,,,,,,,,,,,,,,,,,
,,67ad92d9631677cfaa995e28,2026-03-17_12h43.54.317,kallum_motion_pilot_GIST_update_2,2026.1.1,Win32,59.52380952,67ad92d9631677cfaa995e28,69b92ab4aef6dee357cd729a,69b92f46d80a3b3e4ffc20c5,0.1529,0.153,0,31,31,101,1,seveneight,,,,,,,,,,,,,,,,,,,,,,,,,,,,,,,,,,,,,,,,,,,,,,,,,,,,,,,,,,,,,,,,,,,,,,,,,,,,,,,,,,,,,,,,,,,,,,,,,,,,,,,,,,,,,,,,,,,,,,,,,,,,,,,,,,,,,,,,,
,,67ad92d9631677cfaa995e28,2026-03-17_12h43.54.317,kallum_motion_pilot_GIST_update_2,2026.1.1,Win32,59.52380952,67ad92d9631677cfaa995e28,69b92ab4aef6dee357cd729a,69b92f46d80a3b3e4ffc20c5,0.1538,0.1539,0,32,32,114,1,sixfive,,,,,,,,,,,,,,,,,,,,,,,,,,,,,,,,,,,,,,,,,,,,,,,,,,,,,,,,,,,,,,,,,,,,,,,,,,,,,,,,,,,,,,,,,,,,,,,,,,,,,,,,,,,,,,,,,,,,,,,,,,,,,,,,,,,,,,,,,
,,67ad92d9631677cfaa995e28,2026-03-17_12h43.54.317,kallum_motion_pilot_GIST_update_2,2026.1.1,Win32,59.52380952,67ad92d9631677cfaa995e28,69b92ab4aef6dee357cd729a,69b92f46d80a3b3e4ffc20c5,0.1545,0.1548,0,33,33,50,1,twoone,,,,,,,,,,,,,,,,,,,,,,,,,,,,,,,,,,,,,,,,,,,,,,,,,,,,,,,,,,,,,,,,,,,,,,,,,,,,,,,,,,,,,,,,,,,,,,,,,,,,,,,,,,,,,,,,,,,,,,,,,,,,,,,,,,,,,,,,,
,,67ad92d9631677cfaa995e28,2026-03-17_12h43.54.317,kallum_motion_pilot_GIST_update_2,2026.1.1,Win32,59.52380952,67ad92d9631677cfaa995e28,69b92ab4aef6dee357cd729a,69b92f46d80a3b3e4ffc20c5,0.1556,0.1556,0,34,34,43,1,twofour,,,,,,,,,,,,,,,,,,,,,,,,,,,,,,,,,,,,,,,,,,,,,,,,,,,,,,,,,,,,,,,,,,,,,,,,,,,,,,,,,,,,,,,,,,,,,,,,,,,,,,,,,,,,,,,,,,,,,,,,,,,,,,,,,,,,,,,,,
,,67ad92d9631677cfaa995e28,2026-03-17_12h43.54.317,kallum_motion_pilot_GIST_update_2,2026.1.1,Win32,59.52380952,67ad92d9631677cfaa995e28,69b92ab4aef6dee357cd729a,69b92f46d80a3b3e4ffc20c5,0.1566,0.1568,0,35,35,54,1,fourtwo,,,,,,,,,,,,,,,,,,,,,,,,,,,,,,,,,,,,,,,,,,,,,,,,,,,,,,,,,,,,,,,,,,,,,,,,,,,,,,,,,,,,,,,,,,,,,,,,,,,,,,,,,,,,,,,,,,,,,,,,,,,,,,,,,,,,,,,,,
,,67ad92d9631677cfaa995e28,2026-03-17_12h43.54.317,kallum_motion_pilot_GIST_update_2,2026.1.1,Win32,59.52380952,67ad92d9631677cfaa995e28,69b92ab4aef6dee357cd729a,69b92f46d80a3b3e4ffc20c5,0.1576,0.1577,0,36,36,144,1,fivesix,,,,,,,,,,,,,,,,,,,,,,,,,,,,,,,,,,,,,,,,,,,,,,,,,,,,,,,,,,,,,,,,,,,,,,,,,,,,,,,,,,,,,,,,,,,,,,,,,,,,,,,,,,,,,,,,,,,,,,,,,,,,,,,,,,,,,,,,,
,,67ad92d9631677cfaa995e28,2026-03-17_12h43.54.317,kallum_motion_pilot_GIST_update_2,2026.1.1,Win32,59.52380952,67ad92d9631677cfaa995e28,69b92ab4aef6dee357cd729a,69b92f46d80a3b3e4ffc20c5,0.1584,0.1584,0,37,37,103,1,eightseven,,,,,,,,,,,,,,,,,,,,,,,,,,,,,,,,,,,,,,,,,,,,,,,,,,,,,,,,,,,,,,,,,,,,,,,,,,,,,,,,,,,,,,,,,,,,,,,,,,,,,,,,,,,,,,,,,,,,,,,,,,,,,,,,,,,,,,,,,
,,67ad92d9631677cfaa995e28,2026-03-17_12h43.54.317,kallum_motion_pilot_GIST_update_2,2026.1.1,Win32,59.52380952,67ad92d9631677cfaa995e28,69b92ab4aef6dee357cd729a,69b92f46d80a3b3e4ffc20c5,0.1592,0.1593,0,38,38,95,1,eightseven,,,,,,,,,,,,,,,,,,,,,,,,,,,,,,,,,,,,,,,,,,,,,,,,,,,,,,,,,,,,,,,,,,,,,,,,,,,,,,,,,,,,,,,,,,,,,,,,,,,,,,,,,,,,,,,,,,,,,,,,,,,,,,,,,,,,,,,,,
,,67ad92d9631677cfaa995e28,2026-03-17_12h43.54.317,kallum_motion_pilot_GIST_update_2,2026.1.1,Win32,59.52380952,67ad92d9631677cfaa995e28,69b92ab4aef6dee357cd729a,69b92f46d80a3b3e4ffc20c5,0.16,0.16,0,39,39,146,1,sixfive,,,,,,,,,,,,,,,,,,,,,,,,,,,,,,,,,,,,,,,,,,,,,,,,,,,,,,,,,,,,,,,,,,,,,,,,,,,,,,,,,,,,,,,,,,,,,,,,,,,,,,,,,,,,,,,,,,,,,,,,,,,,,,,,,,,,,,,,,
,,67ad92d9631677cfaa995e28,2026-03-17_12h43.54.317,kallum_motion_pilot_GIST_update_2,2026.1.1,Win32,59.52380952,67ad92d9631677cfaa995e28,69b92ab4aef6dee357cd729a,69b92f46d80a3b3e4ffc20c5,0.1607,0.1608,0,40,40,127,1,eightseven,,,,,,,,,,,,,,,,,,,,,,,,,,,,,,,,,,,,,,,,,,,,,,,,,,,,,,,,,,,,,,,,,,,,,,,,,,,,,,,,,,,,,,,,,,,,,,,,,,,,,,,,,,,,,,,,,,,,,,,,,,,,,,,,,,,,,,,,,
,,67ad92d9631677cfaa995e28,2026-03-17_12h43.54.317,kallum_motion_pilot_GIST_update_2,2026.1.1,Win32,59.52380952,67ad92d9631677cfaa995e28,69b92ab4aef6dee357cd729a,69b92f46d80a3b3e4ffc20c5,0.1615,0.1616,0,41,41,121,1,fiveseven,,,,,,,,,,,,,,,,,,,,,,,,,,,,,,,,,,,,,,,,,,,,,,,,,,,,,,,,,,,,,,,,,,,,,,,,,,,,,,,,,,,,,,,,,,,,,,,,,,,,,,,,,,,,,,,,,,,,,,,,,,,,,,,,,,,,,,,,,
,,67ad92d9631677cfaa995e28,2026-03-17_12h43.54.317,kallum_motion_pilot_GIST_update_2,2026.1.1,Win32,59.52380952,67ad92d9631677cfaa995e28,69b92ab4aef6dee357cd729a,69b92f46d80a3b3e4ffc20c5,0.1623,0.1623,0,42,42,20,1,threeone,,,,,,,,,,,,,,,,,,,,,,,,,,,,,,,,,,,,,,,,,,,,,,,,,,,,,,,,,,,,,,,,,,,,,,,,,,,,,,,,,,,,,,,,,,,,,,,,,,,,,,,,,,,,,,,,,,,,,,,,,,,,,,,,,,,,,,,,,
,,67ad92d9631677cfaa995e28,2026-03-17_12h43.54.317,kallum_motion_pilot_GIST_update_2,2026.1.1,Win32,59.52380952,67ad92d9631677cfaa995e28,69b92ab4aef6dee357cd729a,69b92f46d80a3b3e4ffc20c5,0.1631,0.1632,0,43,43,131,1,sixeight,,,,,,,,,,,,,,,,,,,,,,,,,,,,,,,,,,,,,,,,,,,,,,,,,,,,,,,,,,,,,,,,,,,,,,,,,,,,,,,,,,,,,,,,,,,,,,,,,,,,,,,,,,,,,,,,,,,,,,,,,,,,,,,,,,,,,,,,,
,,67ad92d9631677cfaa995e28,2026-03-17_12h43.54.317,kallum_motion_pilot_GIST_update_2,2026.1.1,Win32,59.52380952,67ad92d9631677cfaa995e28,69b92ab4aef6dee357cd729a,69b92f46d80a3b3e4ffc20c5,0.1645,0.1646,0,44,44,37,1,threefour,,,,,,,,,,,,,,,,,,,,,,,,,,,,,,,,,,,,,,,,,,,,,,,,,,,,,,,,,,,,,,,,,,,,,,,,,,,,,,,,,,,,,,,,,,,,,,,,,,,,,,,,,,,,,,,,,,,,,,,,,,,,,,,,,,,,,,,,,
,,67ad92d9631677cfaa995e28,2026-03-17_12h43.54.317,kallum_motion_pilot_GIST_update_2,2026.1.1,Win32,59.52380952,67ad92d9631677cfaa995e28,69b92ab4aef6dee357cd729a,69b92f46d80a3b3e4ffc20c5,0.1654,0.1656,0,45,45,122,1,sixfive,,,,,,,,,,,,,,,,,,,,,,,,,,,,,,,,,,,,,,,,,,,,,,,,,,,,,,,,,,,,,,,,,,,,,,,,,,,,,,,,,,,,,,,,,,,,,,,,,,,,,,,,,,,,,,,,,,,,,,,,,,,,,,,,,,,,,,,,,
,,67ad92d9631677cfaa995e28,2026-03-17_12h43.54.317,kallum_motion_pilot_GIST_update_2,2026.1.1,Win32,59.52380952,67ad92d9631677cfaa995e28,69b92ab4aef6dee357cd729a,69b92f46d80a3b3e4ffc20c5,0.1663,0.1663,0,46,46,130,1,sixfive,,,,,,,,,,,,,,,,,,,,,,,,,,,,,,,,,,,,,,,,,,,,,,,,,,,,,,,,,,,,,,,,,,,,,,,,,,,,,,,,,,,,,,,,,,,,,,,,,,,,,,,,,,,,,,,,,,,,,,,,,,,,,,,,,,,,,,,,,
,,67ad92d9631677cfaa995e28,2026-03-17_12h43.54.317,kallum_motion_pilot_GIST_update_2,2026.1.1,Win32,59.52380952,67ad92d9631677cfaa995e28,69b92ab4aef6dee357cd729a,69b92f46d80a3b3e4ffc20c5,0.1674,0.1674,0,47,47,77,1,threefour,,,,,,,,,,,,,,,,,,,,,,,,,,,,,,,,,,,,,,,,,,,,,,,,,,,,,,,,,,,,,,,,,,,,,,,,,,,,,,,,,,,,,,,,,,,,,,,,,,,,,,,,,,,,,,,,,,,,,,,,,,,,,,,,,,,,,,,,,
,,67ad92d9631677cfaa995e28,2026-03-17_12h43.54.317,kallum_motion_pilot_GIST_update_2,2026.1.1,Win32,59.52380952,67ad92d9631677cfaa995e28,69b92ab4aef6dee357cd729a,69b92f46d80a3b3e4ffc20c5,0.1683,0.1684,0,48,48,62,1,fourtwo,,,,,,,,,,,,,,,,,,,,,,,,,,,,,,,,,,,,,,,,,,,,,,,,,,,,,,,,,,,,,,,,,,,,,,,,,,,,,,,,,,,,,,,,,,,,,,,,,,,,,,,,,,,,,,,,,,,,,,,,,,,,,,,,,,,,,,,,,
,,67ad92d9631677cfaa995e28,2026-03-17_12h43.54.317,kallum_motion_pilot_GIST_update_2,2026.1.1,Win32,59.52380952,67ad92d9631677cfaa995e28,69b92ab4aef6dee357cd729a,69b92f46d80a3b3e4ffc20c5,0.1694,0.1694,0,49,49,70,1,fourtwo,,,,,,,,,,,,,,,,,,,,,,,,,,,,,,,,,,,,,,,,,,,,,,,,,,,,,,,,,,,,,,,,,,,,,,,,,,,,,,,,,,,,,,,,,,,,,,,,,,,,,,,,,,,,,,,,,,,,,,,,,,,,,,,,,,,,,,,,,
,,67ad92d9631677cfaa995e28,2026-03-17_12h43.54.317,kallum_motion_pilot_GIST_update_2,2026.1.1,Win32,59.52380952,67ad92d9631677cfaa995e28,69b92ab4aef6dee357cd729a,69b92f46d80a3b3e4ffc20c5,0.1702,0.1702,0,50,50,156,1,sevenfive,,,,,,,,,,,,,,,,,,,,,,,,,,,,,,,,,,,,,,,,,,,,,,,,,,,,,,,,,,,,,,,,,,,,,,,,,,,,,,,,,,,,,,,,,,,,,,,,,,,,,,,,,,,,,,,,,,,,,,,,,,,,,,,,,,,,,,,,,
,,67ad92d9631677cfaa995e28,2026-03-17_12h43.54.317,kallum_motion_pilot_GIST_update_2,2026.1.1,Win32,59.52380952,67ad92d9631677cfaa995e28,69b92ab4aef6dee357cd729a,69b92f46d80a3b3e4ffc20c5,0.171,0.1711,0,51,51,72,1,onetwo,,,,,,,,,,,,,,,,,,,,,,,,,,,,,,,,,,,,,,,,,,,,,,,,,,,,,,,,,,,,,,,,,,,,,,,,,,,,,,,,,,,,,,,,,,,,,,,,,,,,,,,,,,,,,,,,,,,,,,,,,,,,,,,,,,,,,,,,,
,,67ad92d9631677cfaa995e28,2026-03-17_12h43.54.317,kallum_motion_pilot_GIST_update_2,2026.1.1,Win32,59.52380952,67ad92d9631677cfaa995e28,69b92ab4aef6dee357cd729a,69b92f46d80a3b3e4ffc20c5,0.1717,0.1718,0,52,52,51,1,twofour,,,,,,,,,,,,,,,,,,,,,,,,,,,,,,,,,,,,,,,,,,,,,,,,,,,,,,,,,,,,,,,,,,,,,,,,,,,,,,,,,,,,,,,,,,,,,,,,,,,,,,,,,,,,,,,,,,,,,,,,,,,,,,,,,,,,,,,,,
,,67ad92d9631677cfaa995e28,2026-03-17_12h43.54.317,kallum_motion_pilot_GIST_update_2,2026.1.1,Win32,59.52380952,67ad92d9631677cfaa995e28,69b92ab4aef6dee357cd729a,69b92f46d80a3b3e4ffc20c5,0.1726,0.1726,0,53,53,32,1,onetwo,,,,,,,,,,,,,,,,,,,,,,,,,,,,,,,,,,,,,,,,,,,,,,,,,,,,,,,,,,,,,,,,,,,,,,,,,,,,,,,,,,,,,,,,,,,,,,,,,,,,,,,,,,,,,,,,,,,,,,,,,,,,,,,,,,,,,,,,,
,,67ad92d9631677cfaa995e28,2026-03-17_12h43.54.317,kallum_motion_pilot_GIST_update_2,2026.1.1,Win32,59.52380952,67ad92d9631677cfaa995e28,69b92ab4aef6dee357cd729a,69b92f46d80a3b3e4ffc20c5,0.1736,0.1737,0,54,54,68,1,threeone,,,,,,,,,,,,,,,,,,,,,,,,,,,,,,,,,,,,,,,,,,,,,,,,,,,,,,,,,,,,,,,,,,,,,,,,,,,,,,,,,,,,,,,,,,,,,,,,,,,,,,,,,,,,,,,,,,,,,,,,,,,,,,,,,,,,,,,,,
,,67ad92d9631677cfaa995e28,2026-03-17_12h43.54.317,kallum_motion_pilot_GIST_update_2,2026.1.1,Win32,59.52380952,67ad92d9631677cfaa995e28,69b92ab4aef6dee357cd729a,69b92f46d80a3b3e4ffc20c5,0.1747,0.1748,0,55,55,89,1,fiveseven,,,,,,,,,,,,,,,,,,,,,,,,,,,,,,,,,,,,,,,,,,,,,,,,,,,,,,,,,,,,,,,,,,,,,,,,,,,,,,,,,,,,,,,,,,,,,,,,,,,,,,,,,,,,,,,,,,,,,,,,,,,,,,,,,,,,,,,,,
,,67ad92d9631677cfaa995e28,2026-03-17_12h43.54.317,kallum_motion_pilot_GIST_update_2,2026.1.1,Win32,59.52380952,67ad92d9631677cfaa995e28,69b92ab4aef6dee357cd729a,69b92f46d80a3b3e4ffc20c5,0.1757,0.1758,0,56,56,1,1,onethree,,,,,,,,,,,,,,,,,,,,,,,,,,,,,,,,,,,,,,,,,,,,,,,,,,,,,,,,,,,,,,,,,,,,,,,,,,,,,,,,,,,,,,,,,,,,,,,,,,,,,,,,,,,,,,,,,,,,,,,,,,,,,,,,,,,,,,,,,
,,67ad92d9631677cfaa995e28,2026-03-17_12h43.54.317,kallum_motion_pilot_GIST_update_2,2026.1.1,Win32,59.52380952,67ad92d9631677cfaa995e28,69b92ab4aef6dee357cd729a,69b92f46d80a3b3e4ffc20c5,0.1769,0.177,0,57,57,14,1,fourtwo,,,,,,,,,,,,,,,,,,,,,,,,,,,,,,,,,,,,,,,,,,,,,,,,,,,,,,,,,,,,,,,,,,,,,,,,,,,,,,,,,,,,,,,,,,,,,,,,,,,,,,,,,,,,,,,,,,,,,,,,,,,,,,,,,,,,,,,,,
,,67ad92d9631677cfaa995e28,2026-03-17_12h43.54.317,kallum_motion_pilot_GIST_update_2,2026.1.1,Win32,59.52380952,67ad92d9631677cfaa995e28,69b92ab4aef6dee357cd729a,69b92f46d80a3b3e4ffc20c5,0.1779,0.1779,0,58,58,25,1,onethree,,,,,,,,,,,,,,,,,,,,,,,,,,,,,,,,,,,,,,,,,,,,,,,,,,,,,,,,,,,,,,,,,,,,,,,,,,,,,,,,,,,,,,,,,,,,,,,,,,,,,,,,,,,,,,,,,,,,,,,,,,,,,,,,,,,,,,,,,
,,67ad92d9631677cfaa995e28,2026-03-17_12h43.54.317,kallum_motion_pilot_GIST_update_2,2026.1.1,Win32,59.52380952,67ad92d9631677cfaa995e28,69b92ab4aef6dee357cd729a,69b92f46d80a3b3e4ffc20c5,0.1788,0.179,0,59,59,57,1,onethree,,,,,,,,,,,,,,,,,,,,,,,,,,,,,,,,,,,,,,,,,,,,,,,,,,,,,,,,,,,,,,,,,,,,,,,,,,,,,,,,,,,,,,,,,,,,,,,,,,,,,,,,,,,,,,,,,,,,,,,,,,,,,,,,,,,,,,,,,
,,67ad92d9631677cfaa995e28,2026-03-17_12h43.54.317,kallum_motion_pilot_GIST_update_2,2026.1.1,Win32,59.52380952,67ad92d9631677cfaa995e28,69b92ab4aef6dee357cd729a,69b92f46d80a3b3e4ffc20c5,0.1798,0.1799,0,60,60,98,1,sixfive,,,,,,,,,,,,,,,,,,,,,,,,,,,,,,,,,,,,,,,,,,,,,,,,,,,,,,,,,,,,,,,,,,,,,,,,,,,,,,,,,,,,,,,,,,,,,,,,,,,,,,,,,,,,,,,,,,,,,,,,,,,,,,,,,,,,,,,,,
,,67ad92d9631677cfaa995e28,2026-03-17_12h43.54.317,kallum_motion_pilot_GIST_update_2,2026.1.1,Win32,59.52380952,67ad92d9631677cfaa995e28,69b92ab4aef6dee357cd729a,69b92f46d80a3b3e4ffc20c5,0.1814,0.1815,0,61,61,16,1,onetwo,,,,,,,,,,,,,,,,,,,,,,,,,,,,,,,,,,,,,,,,,,,,,,,,,,,,,,,,,,,,,,,,,,,,,,,,,,,,,,,,,,,,,,,,,,,,,,,,,,,,,,,,,,,,,,,,,,,,,,,,,,,,,,,,,,,,,,,,,
,,67ad92d9631677cfaa995e28,2026-03-17_12h43.54.317,kallum_motion_pilot_GIST_update_2,2026.1.1,Win32,59.52380952,67ad92d9631677cfaa995e28,69b92ab4aef6dee357cd729a,69b92f46d80a3b3e4ffc20c5,0.1823,0.1824,0,62,62,15,1,fourthree,,,,,,,,,,,,,,,,,,,,,,,,,,,,,,,,,,,,,,,,,,,,,,,,,,,,,,,,,,,,,,,,,,,,,,,,,,,,,,,,,,,,,,,,,,,,,,,,,,,,,,,,,,,,,,,,,,,,,,,,,,,,,,,,,,,,,,,,,
,,67ad92d9631677cfaa995e28,2026-03-17_12h43.54.317,kallum_motion_pilot_GIST_update_2,2026.1.1,Win32,59.52380952,67ad92d9631677cfaa995e28,69b92ab4aef6dee357cd729a,69b92f46d80a3b3e4ffc20c5,0.1839,0.184,0,63,63,13,1,threefour,,,,,,,,,,,,,,,,,,,,,,,,,,,,,,,,,,,,,,,,,,,,,,,,,,,,,,,,,,,,,,,,,,,,,,,,,,,,,,,,,,,,,,,,,,,,,,,,,,,,,,,,,,,,,,,,,,,,,,,,,,,,,,,,,,,,,,,,,
,,67ad92d9631677cfaa995e28,2026-03-17_12h43.54.317,kallum_motion_pilot_GIST_update_2,2026.1.1,Win32,59.52380952,67ad92d9631677cfaa995e28,69b92ab4aef6dee357cd729a,69b92f46d80a3b3e4ffc20c5,0.1848,0.1849,0,64,64,75,1,twofour,,,,,,,,,,,,,,,,,,,,,,,,,,,,,,,,,,,,,,,,,,,,,,,,,,,,,,,,,,,,,,,,,,,,,,,,,,,,,,,,,,,,,,,,,,,,,,,,,,,,,,,,,,,,,,,,,,,,,,,,,,,,,,,,,,,,,,,,,
,,67ad92d9631677cfaa995e28,2026-03-17_12h43.54.317,kallum_motion_pilot_GIST_update_2,2026.1.1,Win32,59.52380952,67ad92d9631677cfaa995e28,69b92ab4aef6dee357cd729a,69b92f46d80a3b3e4ffc20c5,0.1859,0.186,0,65,65,64,1,onetwo,,,,,,,,,,,,,,,,,,,,,,,,,,,,,,,,,,,,,,,,,,,,,,,,,,,,,,,,,,,,,,,,,,,,,,,,,,,,,,,,,,,,,,,,,,,,,,,,,,,,,,,,,,,,,,,,,,,,,,,,,,,,,,,,,,,,,,,,,
,,67ad92d9631677cfaa995e28,2026-03-17_12h43.54.317,kallum_motion_pilot_GIST_update_2,2026.1.1,Win32,59.52380952,67ad92d9631677cfaa995e28,69b92ab4aef6dee357cd729a,69b92f46d80a3b3e4ffc20c5,0.1873,0.1873,0,66,66,100,1,sevenfive,,,,,,,,,,,,,,,,,,,,,,,,,,,,,,,,,,,,,,,,,,,,,,,,,,,,,,,,,,,,,,,,,,,,,,,,,,,,,,,,,,,,,,,,,,,,,,,,,,,,,,,,,,,,,,,,,,,,,,,,,,,,,,,,,,,,,,,,,
,,67ad92d9631677cfaa995e28,2026-03-17_12h43.54.317,kallum_motion_pilot_GIST_update_2,2026.1.1,Win32,59.52380952,67ad92d9631677cfaa995e28,69b92ab4aef6dee357cd729a,69b92f46d80a3b3e4ffc20c5,0.1883,0.1883,0,67,67,0,1,onetwo,,,,,,,,,,,,,,,,,,,,,,,,,,,,,,,,,,,,,,,,,,,,,,,,,,,,,,,,,,,,,,,,,,,,,,,,,,,,,,,,,,,,,,,,,,,,,,,,,,,,,,,,,,,,,,,,,,,,,,,,,,,,,,,,,,,,,,,,,
,,67ad92d9631677cfaa995e28,2026-03-17_12h43.54.317,kallum_motion_pilot_GIST_update_2,2026.1.1,Win32,59.52380952,67ad92d9631677cfaa995e28,69b92ab4aef6dee357cd729a,69b92f46d80a3b3e4ffc20c5,0.189,0.1892,0,68,68,94,1,eightsix,,,,,,,,,,,,,,,,,,,,,,,,,,,,,,,,,,,,,,,,,,,,,,,,,,,,,,,,,,,,,,,,,,,,,,,,,,,,,,,,,,,,,,,,,,,,,,,,,,,,,,,,,,,,,,,,,,,,,,,,,,,,,,,,,,,,,,,,,
,,67ad92d9631677cfaa995e28,2026-03-17_12h43.54.317,kallum_motion_pilot_GIST_update_2,2026.1.1,Win32,59.52380952,67ad92d9631677cfaa995e28,69b92ab4aef6dee357cd729a,69b92f46d80a3b3e4ffc20c5,0.1903,0.1903,0,69,69,39,1,fourthree,,,,,,,,,,,,,,,,,,,,,,,,,,,,,,,,,,,,,,,,,,,,,,,,,,,,,,,,,,,,,,,,,,,,,,,,,,,,,,,,,,,,,,,,,,,,,,,,,,,,,,,,,,,,,,,,,,,,,,,,,,,,,,,,,,,,,,,,,
,,67ad92d9631677cfaa995e28,2026-03-17_12h43.54.317,kallum_motion_pilot_GIST_update_2,2026.1.1,Win32,59.52380952,67ad92d9631677cfaa995e28,69b92ab4aef6dee357cd729a,69b92f46d80a3b3e4ffc20c5,0.1915,0.1916,0,70,70,40,1,onetwo,,,,,,,,,,,,,,,,,,,,,,,,,,,,,,,,,,,,,,,,,,,,,,,,,,,,,,,,,,,,,,,,,,,,,,,,,,,,,,,,,,,,,,,,,,,,,,,,,,,,,,,,,,,,,,,,,,,,,,,,,,,,,,,,,,,,,,,,,
,,67ad92d9631677cfaa995e28,2026-03-17_12h43.54.317,kallum_motion_pilot_GIST_update_2,2026.1.1,Win32,59.52380952,67ad92d9631677cfaa995e28,69b92ab4aef6dee357cd729a,69b92f46d80a3b3e4ffc20c5,0.1925,0.1925,0,71,71,47,1,fourthree,,,,,,,,,,,,,,,,,,,,,,,,,,,,,,,,,,,,,,,,,,,,,,,,,,,,,,,,,,,,,,,,,,,,,,,,,,,,,,,,,,,,,,,,,,,,,,,,,,,,,,,,,,,,,,,,,,,,,,,,,,,,,,,,,,,,,,,,,
,,67ad92d9631677cfaa995e28,2026-03-17_12h43.54.317,kallum_motion_pilot_GIST_update_2,2026.1.1,Win32,59.52380952,67ad92d9631677cfaa995e28,69b92ab4aef6dee357cd729a,69b92f46d80a3b3e4ffc20c5,0.1933,0.1934,0,72,72,12,1,threeone,,,,,,,,,,,,,,,,,,,,,,,,,,,,,,,,,,,,,,,,,,,,,,,,,,,,,,,,,,,,,,,,,,,,,,,,,,,,,,,,,,,,,,,,,,,,,,,,,,,,,,,,,,,,,,,,,,,,,,,,,,,,,,,,,,,,,,,,,
,,67ad92d9631677cfaa995e28,2026-03-17_12h43.54.317,kallum_motion_pilot_GIST_update_2,2026.1.1,Win32,59.52380952,67ad92d9631677cfaa995e28,69b92ab4aef6dee357cd729a,69b92f46d80a3b3e4ffc20c5,0.1945,0.1945,0,73,73,9,1,onethree,,,,,,,,,,,,,,,,,,,,,,,,,,,,,,,,,,,,,,,,,,,,,,,,,,,,,,,,,,,,,,,,,,,,,,,,,,,,,,,,,,,,,,,,,,,,,,,,,,,,,,,,,,,,,,,,,,,,,,,,,,,,,,,,,,,,,,,,,
,,67ad92d9631677cfaa995e28,2026-03-17_12h43.54.317,kallum_motion_pilot_GIST_update_2,2026.1.1,Win32,59.52380952,67ad92d9631677cfaa995e28,69b92ab4aef6dee357cd729a,69b92f46d80a3b3e4ffc20c5,0.1953,0.1956,0,74,74,3,1,twofour,,,,,,,,,,,,,,,,,,,,,,,,,,,,,,,,,,,,,,,,,,,,,,,,,,,,,,,,,,,,,,,,,,,,,,,,,,,,,,,,,,,,,,,,,,,,,,,,,,,,,,,,,,,,,,,,,,,,,,,,,,,,,,,,,,,,,,,,,
,,67ad92d9631677cfaa995e28,2026-03-17_12h43.54.317,kallum_motion_pilot_GIST_update_2,2026.1.1,Win32,59.52380952,67ad92d9631677cfaa995e28,69b92ab4aef6dee357cd729a,69b92f46d80a3b3e4ffc20c5,0.1974,0.1976,0,75,75,4,1,threeone,,,,,,,,,,,,,,,,,,,,,,,,,,,,,,,,,,,,,,,,,,,,,,,,,,,,,,,,,,,,,,,,,,,,,,,,,,,,,,,,,,,,,,,,,,,,,,,,,,,,,,,,,,,,,,,,,,,,,,,,,,,,,,,,,,,,,,,,,
,,67ad92d9631677cfaa995e28,2026-03-17_12h43.54.317,kallum_motion_pilot_GIST_update_2,2026.1.1,Win32,59.52380952,67ad92d9631677cfaa995e28,69b92ab4aef6dee357cd729a,69b92f46d80a3b3e4ffc20c5,0.1986,0.1988,0,76,76,56,1,onetwo,,,,,,,,,,,,,,,,,,,,,,,,,,,,,,,,,,,,,,,,,,,,,,,,,,,,,,,,,,,,,,,,,,,,,,,,,,,,,,,,,,,,,,,,,,,,,,,,,,,,,,,,,,,,,,,,,,,,,,,,,,,,,,,,,,,,,,,,,
,,67ad92d9631677cfaa995e28,2026-03-17_12h43.54.317,kallum_motion_pilot_GIST_update_2,2026.1.1,Win32,59.52380952,67ad92d9631677cfaa995e28,69b92ab4aef6dee357cd729a,69b92f46d80a3b3e4ffc20c5,0.1996,0.1997,0,77,77,46,1,fourtwo,,,,,,,,,,,,,,,,,,,,,,,,,,,,,,,,,,,,,,,,,,,,,,,,,,,,,,,,,,,,,,,,,,,,,,,,,,,,,,,,,,,,,,,,,,,,,,,,,,,,,,,,,,,,,,,,,,,,,,,,,,,,,,,,,,,,,,,,,
,,67ad92d9631677cfaa995e28,2026-03-17_12h43.54.317,kallum_motion_pilot_GIST_update_2,2026.1.1,Win32,59.52380952,67ad92d9631677cfaa995e28,69b92ab4aef6dee357cd729a,69b92f46d80a3b3e4ffc20c5,0.2004,0.2005,0,78,78,88,1,fivesix,,,,,,,,,,,,,,,,,,,,,,,,,,,,,,,,,,,,,,,,,,,,,,,,,,,,,,,,,,,,,,,,,,,,,,,,,,,,,,,,,,,,,,,,,,,,,,,,,,,,,,,,,,,,,,,,,,,,,,,,,,,,,,,,,,,,,,,,,
,,67ad92d9631677cfaa995e28,2026-03-17_12h43.54.317,kallum_motion_pilot_GIST_update_2,2026.1.1,Win32,59.52380952,67ad92d9631677cfaa995e28,69b92ab4aef6dee357cd729a,69b92f46d80a3b3e4ffc20c5,0.2012,0.2012,0,79,79,5,1,threefour,,,,,,,,,,,,,,,,,,,,,,,,,,,,,,,,,,,,,,,,,,,,,,,,,,,,,,,,,,,,,,,,,,,,,,,,,,,,,,,,,,,,,,,,,,,,,,,,,,,,,,,,,,,,,,,,,,,,,,,,,,,,,,,,,,,,,,,,,
,,67ad92d9631677cfaa995e28,2026-03-17_12h43.54.317,kallum_motion_pilot_GIST_update_2,2026.1.1,Win32,59.52380952,67ad92d9631677cfaa995e28,69b92ab4aef6dee357cd729a,69b92f46d80a3b3e4ffc20c5,0.202,0.202,0,80,80,153,1,fiveseven,,,,,,,,,,,,,,,,,,,,,,,,,,,,,,,,,,,,,,,,,,,,,,,,,,,,,,,,,,,,,,,,,,,,,,,,,,,,,,,,,,,,,,,,,,,,,,,,,,,,,,,,,,,,,,,,,,,,,,,,,,,,,,,,,,,,,,,,,
,,67ad92d9631677cfaa995e28,2026-03-17_12h43.54.317,kallum_motion_pilot_GIST_update_2,2026.1.1,Win32,59.52380952,67ad92d9631677cfaa995e28,69b92ab4aef6dee357cd729a,69b92f46d80a3b3e4ffc20c5,0.2026,0.2027,0,81,81,143,1,eightseven,,,,,,,,,,,,,,,,,,,,,,,,,,,,,,,,,,,,,,,,,,,,,,,,,,,,,,,,,,,,,,,,,,,,,,,,,,,,,,,,,,,,,,,,,,,,,,,,,,,,,,,,,,,,,,,,,,,,,,,,,,,,,,,,,,,,,,,,,
,,67ad92d9631677cfaa995e28,2026-03-17_12h43.54.317,kallum_motion_pilot_GIST_update_2,2026.1.1,Win32,59.52380952,67ad92d9631677cfaa995e28,69b92ab4aef6dee357cd729a,69b92f46d80a3b3e4ffc20c5,0.2034,0.2035,0,82,82,73,1,onethree,,,,,,,,,,,,,,,,,,,,,,,,,,,,,,,,,,,,,,,,,,,,,,,,,,,,,,,,,,,,,,,,,,,,,,,,,,,,,,,,,,,,,,,,,,,,,,,,,,,,,,,,,,,,,,,,,,,,,,,,,,,,,,,,,,,,,,,,,
,,67ad92d9631677cfaa995e28,2026-03-17_12h43.54.317,kallum_motion_pilot_GIST_update_2,2026.1.1,Win32,59.52380952,67ad92d9631677cfaa995e28,69b92ab4aef6dee357cd729a,69b92f46d80a3b3e4ffc20c5,0.2049,0.2049,0,83,83,113,1,fiveseven,,,,,,,,,,,,,,,,,,,,,,,,,,,,,,,,,,,,,,,,,,,,,,,,,,,,,,,,,,,,,,,,,,,,,,,,,,,,,,,,,,,,,,,,,,,,,,,,,,,,,,,,,,,,,,,,,,,,,,,,,,,,,,,,,,,,,,,,,
,,67ad92d9631677cfaa995e28,2026-03-17_12h43.54.317,kallum_motion_pilot_GIST_update_2,2026.1.1,Win32,59.52380952,67ad92d9631677cfaa995e28,69b92ab4aef6dee357cd729a,69b92f46d80a3b3e4ffc20c5,0.2062,0.2063,0,84,84,11,1,twofour,,,,,,,,,,,,,,,,,,,,,,,,,,,,,,,,,,,,,,,,,,,,,,,,,,,,,,,,,,,,,,,,,,,,,,,,,,,,,,,,,,,,,,,,,,,,,,,,,,,,,,,,,,,,,,,,,,,,,,,,,,,,,,,,,,,,,,,,,
,,67ad92d9631677cfaa995e28,2026-03-17_12h43.54.317,kallum_motion_pilot_GIST_update_2,2026.1.1,Win32,59.52380952,67ad92d9631677cfaa995e28,69b92ab4aef6dee357cd729a,69b92f46d80a3b3e4ffc20c5,0.2075,0.2077,0,85,85,65,1,onethree,,,,,,,,,,,,,,,,,,,,,,,,,,,,,,,,,,,,,,,,,,,,,,,,,,,,,,,,,,,,,,,,,,,,,,,,,,,,,,,,,,,,,,,,,,,,,,,,,,,,,,,,,,,,,,,,,,,,,,,,,,,,,,,,,,,,,,,,,
,,67ad92d9631677cfaa995e28,2026-03-17_12h43.54.317,kallum_motion_pilot_GIST_update_2,2026.1.1,Win32,59.52380952,67ad92d9631677cfaa995e28,69b92ab4aef6dee357cd729a,69b92f46d80a3b3e4ffc20c5,0.2085,0.2086,0,86,86,112,1,fivesix,,,,,,,,,,,,,,,,,,,,,,,,,,,,,,,,,,,,,,,,,,,,,,,,,,,,,,,,,,,,,,,,,,,,,,,,,,,,,,,,,,,,,,,,,,,,,,,,,,,,,,,,,,,,,,,,,,,,,,,,,,,,,,,,,,,,,,,,,
,,67ad92d9631677cfaa995e28,2026-03-17_12h43.54.317,kallum_motion_pilot_GIST_update_2,2026.1.1,Win32,59.52380952,67ad92d9631677cfaa995e28,69b92ab4aef6dee357cd729a,69b92f46d80a3b3e4ffc20c5,0.2093,0.2094,0,87,87,137,1,fiveseven,,,,,,,,,,,,,,,,,,,,,,,,,,,,,,,,,,,,,,,,,,,,,,,,,,,,,,,,,,,,,,,,,,,,,,,,,,,,,,,,,,,,,,,,,,,,,,,,,,,,,,,,,,,,,,,,,,,,,,,,,,,,,,,,,,,,,,,,,
,,67ad92d9631677cfaa995e28,2026-03-17_12h43.54.317,kallum_motion_pilot_GIST_update_2,2026.1.1,Win32,59.52380952,67ad92d9631677cfaa995e28,69b92ab4aef6dee357cd729a,69b92f46d80a3b3e4ffc20c5,0.2104,0.2105,0,88,88,84,1,sevenfive,,,,,,,,,,,,,,,,,,,,,,,,,,,,,,,,,,,,,,,,,,,,,,,,,,,,,,,,,,,,,,,,,,,,,,,,,,,,,,,,,,,,,,,,,,,,,,,,,,,,,,,,,,,,,,,,,,,,,,,,,,,,,,,,,,,,,,,,,
,,67ad92d9631677cfaa995e28,2026-03-17_12h43.54.317,kallum_motion_pilot_GIST_update_2,2026.1.1,Win32,59.52380952,67ad92d9631677cfaa995e28,69b92ab4aef6dee357cd729a,69b92f46d80a3b3e4ffc20c5,0.2135,0.2135,0,89,89,138,1,sixfive,,,,,,,,,,,,,,,,,,,,,,,,,,,,,,,,,,,,,,,,,,,,,,,,,,,,,,,,,,,,,,,,,,,,,,,,,,,,,,,,,,,,,,,,,,,,,,,,,,,,,,,,,,,,,,,,,,,,,,,,,,,,,,,,,,,,,,,,,
,,67ad92d9631677cfaa995e28,2026-03-17_12h43.54.317,kallum_motion_pilot_GIST_update_2,2026.1.1,Win32,59.52380952,67ad92d9631677cfaa995e28,69b92ab4aef6dee357cd729a,69b92f46d80a3b3e4ffc20c5,0.2159,0.2159,0,90,90,148,1,sevenfive,,,,,,,,,,,,,,,,,,,,,,,,,,,,,,,,,,,,,,,,,,,,,,,,,,,,,,,,,,,,,,,,,,,,,,,,,,,,,,,,,,,,,,,,,,,,,,,,,,,,,,,,,,,,,,,,,,,,,,,,,,,,,,,,,,,,,,,,,
,,67ad92d9631677cfaa995e28,2026-03-17_12h43.54.317,kallum_motion_pilot_GIST_update_2,2026.1.1,Win32,59.52380952,67ad92d9631677cfaa995e28,69b92ab4aef6dee357cd729a,69b92f46d80a3b3e4ffc20c5,0.2173,0.2173,0,91,91,30,1,fourtwo,,,,,,,,,,,,,,,,,,,,,,,,,,,,,,,,,,,,,,,,,,,,,,,,,,,,,,,,,,,,,,,,,,,,,,,,,,,,,,,,,,,,,,,,,,,,,,,,,,,,,,,,,,,,,,,,,,,,,,,,,,,,,,,,,,,,,,,,,
,,67ad92d9631677cfaa995e28,2026-03-17_12h43.54.317,kallum_motion_pilot_GIST_update_2,2026.1.1,Win32,59.52380952,67ad92d9631677cfaa995e28,69b92ab4aef6dee357cd729a,69b92f46d80a3b3e4ffc20c5,0.2184,0.2185,0,92,92,118,1,eightsix,,,,,,,,,,,,,,,,,,,,,,,,,,,,,,,,,,,,,,,,,,,,,,,,,,,,,,,,,,,,,,,,,,,,,,,,,,,,,,,,,,,,,,,,,,,,,,,,,,,,,,,,,,,,,,,,,,,,,,,,,,,,,,,,,,,,,,,,,
,,67ad92d9631677cfaa995e28,2026-03-17_12h43.54.317,kallum_motion_pilot_GIST_update_2,2026.1.1,Win32,59.52380952,67ad92d9631677cfaa995e28,69b92ab4aef6dee357cd729a,69b92f46d80a3b3e4ffc20c5,0.2193,0.2193,0,93,93,152,1,fivesix,,,,,,,,,,,,,,,,,,,,,,,,,,,,,,,,,,,,,,,,,,,,,,,,,,,,,,,,,,,,,,,,,,,,,,,,,,,,,,,,,,,,,,,,,,,,,,,,,,,,,,,,,,,,,,,,,,,,,,,,,,,,,,,,,,,,,,,,,
,,67ad92d9631677cfaa995e28,2026-03-17_12h43.54.317,kallum_motion_pilot_GIST_update_2,2026.1.1,Win32,59.52380952,67ad92d9631677cfaa995e28,69b92ab4aef6dee357cd729a,69b92f46d80a3b3e4ffc20c5,0.2201,0.2202,0,94,94,66,1,twoone,,,,,,,,,,,,,,,,,,,,,,,,,,,,,,,,,,,,,,,,,,,,,,,,,,,,,,,,,,,,,,,,,,,,,,,,,,,,,,,,,,,,,,,,,,,,,,,,,,,,,,,,,,,,,,,,,,,,,,,,,,,,,,,,,,,,,,,,,
,,67ad92d9631677cfaa995e28,2026-03-17_12h43.54.317,kallum_motion_pilot_GIST_update_2,2026.1.1,Win32,59.52380952,67ad92d9631677cfaa995e28,69b92ab4aef6dee357cd729a,69b92f46d80a3b3e4ffc20c5,0.2209,0.221,0,95,95,49,1,onethree,,,,,,,,,,,,,,,,,,,,,,,,,,,,,,,,,,,,,,,,,,,,,,,,,,,,,,,,,,,,,,,,,,,,,,,,,,,,,,,,,,,,,,,,,,,,,,,,,,,,,,,,,,,,,,,,,,,,,,,,,,,,,,,,,,,,,,,,,
,,67ad92d9631677cfaa995e28,2026-03-17_12h43.54.317,kallum_motion_pilot_GIST_update_2,2026.1.1,Win32,59.52380952,67ad92d9631677cfaa995e28,69b92ab4aef6dee357cd729a,69b92f46d80a3b3e4ffc20c5,0.2218,0.2218,0,96,96,96,1,fivesix,,,,,,,,,,,,,,,,,,,,,,,,,,,,,,,,,,,,,,,,,,,,,,,,,,,,,,,,,,,,,,,,,,,,,,,,,,,,,,,,,,,,,,,,,,,,,,,,,,,,,,,,,,,,,,,,,,,,,,,,,,,,,,,,,,,,,,,,,
,,67ad92d9631677cfaa995e28,2026-03-17_12h43.54.317,kallum_motion_pilot_GIST_update_2,2026.1.1,Win32,59.52380952,67ad92d9631677cfaa995e28,69b92ab4aef6dee357cd729a,69b92f46d80a3b3e4ffc20c5,0.2224,0.2225,0,97,97,67,1,twofour,,,,,,,,,,,,,,,,,,,,,,,,,,,,,,,,,,,,,,,,,,,,,,,,,,,,,,,,,,,,,,,,,,,,,,,,,,,,,,,,,,,,,,,,,,,,,,,,,,,,,,,,,,,,,,,,,,,,,,,,,,,,,,,,,,,,,,,,,
,,67ad92d9631677cfaa995e28,2026-03-17_12h43.54.317,kallum_motion_pilot_GIST_update_2,2026.1.1,Win32,59.52380952,67ad92d9631677cfaa995e28,69b92ab4aef6dee357cd729a,69b92f46d80a3b3e4ffc20c5,0.2233,0.2233,0,98,98,160,1,fivesix,,,,,,,,,,,,,,,,,,,,,,,,,,,,,,,,,,,,,,,,,,,,,,,,,,,,,,,,,,,,,,,,,,,,,,,,,,,,,,,,,,,,,,,,,,,,,,,,,,,,,,,,,,,,,,,,,,,,,,,,,,,,,,,,,,,,,,,,,
,,67ad92d9631677cfaa995e28,2026-03-17_12h43.54.317,kallum_motion_pilot_GIST_update_2,2026.1.1,Win32,59.52380952,67ad92d9631677cfaa995e28,69b92ab4aef6dee357cd729a,69b92f46d80a3b3e4ffc20c5,0.2241,0.2241,0,99,99,102,1,eightsix,,,,,,,,,,,,,,,,,,,,,,,,,,,,,,,,,,,,,,,,,,,,,,,,,,,,,,,,,,,,,,,,,,,,,,,,,,,,,,,,,,,,,,,,,,,,,,,,,,,,,,,,,,,,,,,,,,,,,,,,,,,,,,,,,,,,,,,,,
,,67ad92d9631677cfaa995e28,2026-03-17_12h43.54.317,kallum_motion_pilot_GIST_update_2,2026.1.1,Win32,59.52380952,67ad92d9631677cfaa995e28,69b92ab4aef6dee357cd729a,69b92f46d80a3b3e4ffc20c5,0.2248,0.2248,0,100,100,135,1,eightseven,,,,,,,,,,,,,,,,,,,,,,,,,,,,,,,,,,,,,,,,,,,,,,,,,,,,,,,,,,,,,,,,,,,,,,,,,,,,,,,,,,,,,,,,,,,,,,,,,,,,,,,,,,,,,,,,,,,,,,,,,,,,,,,,,,,,,,,,,
,,67ad92d9631677cfaa995e28,2026-03-17_12h43.54.317,kallum_motion_pilot_GIST_update_2,2026.1.1,Win32,59.52380952,67ad92d9631677cfaa995e28,69b92ab4aef6dee357cd729a,69b92f46d80a3b3e4ffc20c5,0.2257,0.2258,0,101,101,115,1,sixeight,,,,,,,,,,,,,,,,,,,,,,,,,,,,,,,,,,,,,,,,,,,,,,,,,,,,,,,,,,,,,,,,,,,,,,,,,,,,,,,,,,,,,,,,,,,,,,,,,,,,,,,,,,,,,,,,,,,,,,,,,,,,,,,,,,,,,,,,,
,,67ad92d9631677cfaa995e28,2026-03-17_12h43.54.317,kallum_motion_pilot_GIST_update_2,2026.1.1,Win32,59.52380952,67ad92d9631677cfaa995e28,69b92ab4aef6dee357cd729a,69b92f46d80a3b3e4ffc20c5,0.227,0.227,0,102,102,74,1,twoone,,,,,,,,,,,,,,,,,,,,,,,,,,,,,,,,,,,,,,,,,,,,,,,,,,,,,,,,,,,,,,,,,,,,,,,,,,,,,,,,,,,,,,,,,,,,,,,,,,,,,,,,,,,,,,,,,,,,,,,,,,,,,,,,,,,,,,,,,
,,67ad92d9631677cfaa995e28,2026-03-17_12h43.54.317,kallum_motion_pilot_GIST_update_2,2026.1.1,Win32,59.52380952,67ad92d9631677cfaa995e28,69b92ab4aef6dee357cd729a,69b92f46d80a3b3e4ffc20c5,0.2281,0.2281,0,103,103,154,1,sixfive,,,,,,,,,,,,,,,,,,,,,,,,,,,,,,,,,,,,,,,,,,,,,,,,,,,,,,,,,,,,,,,,,,,,,,,,,,,,,,,,,,,,,,,,,,,,,,,,,,,,,,,,,,,,,,,,,,,,,,,,,,,,,,,,,,,,,,,,,
,,67ad92d9631677cfaa995e28,2026-03-17_12h43.54.317,kallum_motion_pilot_GIST_update_2,2026.1.1,Win32,59.52380952,67ad92d9631677cfaa995e28,69b92ab4aef6dee357cd729a,69b92f46d80a3b3e4ffc20c5,0.229,0.2291,0,104,104,52,1,threeone,,,,,,,,,,,,,,,,,,,,,,,,,,,,,,,,,,,,,,,,,,,,,,,,,,,,,,,,,,,,,,,,,,,,,,,,,,,,,,,,,,,,,,,,,,,,,,,,,,,,,,,,,,,,,,,,,,,,,,,,,,,,,,,,,,,,,,,,,
,,67ad92d9631677cfaa995e28,2026-03-17_12h43.54.317,kallum_motion_pilot_GIST_update_2,2026.1.1,Win32,59.52380952,67ad92d9631677cfaa995e28,69b92ab4aef6dee357cd729a,69b92f46d80a3b3e4ffc20c5,0.2306,0.2311,0,105,105,53,1,threefour,,,,,,,,,,,,,,,,,,,,,,,,,,,,,,,,,,,,,,,,,,,,,,,,,,,,,,,,,,,,,,,,,,,,,,,,,,,,,,,,,,,,,,,,,,,,,,,,,,,,,,,,,,,,,,,,,,,,,,,,,,,,,,,,,,,,,,,,,
,,67ad92d9631677cfaa995e28,2026-03-17_12h43.54.317,kallum_motion_pilot_GIST_update_2,2026.1.1,Win32,59.52380952,67ad92d9631677cfaa995e28,69b92ab4aef6dee357cd729a,69b92f46d80a3b3e4ffc20c5,0.232,0.232,0,106,106,76,1,threeone,,,,,,,,,,,,,,,,,,,,,,,,,,,,,,,,,,,,,,,,,,,,,,,,,,,,,,,,,,,,,,,,,,,,,,,,,,,,,,,,,,,,,,,,,,,,,,,,,,,,,,,,,,,,,,,,,,,,,,,,,,,,,,,,,,,,,,,,,
,,67ad92d9631677cfaa995e28,2026-03-17_12h43.54.317,kallum_motion_pilot_GIST_update_2,2026.1.1,Win32,59.52380952,67ad92d9631677cfaa995e28,69b92ab4aef6dee357cd729a,69b92f46d80a3b3e4ffc20c5,0.2328,0.2328,0,107,107,35,1,twofour,,,,,,,,,,,,,,,,,,,,,,,,,,,,,,,,,,,,,,,,,,,,,,,,,,,,,,,,,,,,,,,,,,,,,,,,,,,,,,,,,,,,,,,,,,,,,,,,,,,,,,,,,,,,,,,,,,,,,,,,,,,,,,,,,,,,,,,,,
,,67ad92d9631677cfaa995e28,2026-03-17_12h43.54.317,kallum_motion_pilot_GIST_update_2,2026.1.1,Win32,59.52380952,67ad92d9631677cfaa995e28,69b92ab4aef6dee357cd729a,69b92f46d80a3b3e4ffc20c5,0.2337,0.2337,0,108,108,19,1,twofour,,,,,,,,,,,,,,,,,,,,,,,,,,,,,,,,,,,,,,,,,,,,,,,,,,,,,,,,,,,,,,,,,,,,,,,,,,,,,,,,,,,,,,,,,,,,,,,,,,,,,,,,,,,,,,,,,,,,,,,,,,,,,,,,,,,,,,,,,
,,67ad92d9631677cfaa995e28,2026-03-17_12h43.54.317,kallum_motion_pilot_GIST_update_2,2026.1.1,Win32,59.52380952,67ad92d9631677cfaa995e28,69b92ab4aef6dee357cd729a,69b92f46d80a3b3e4ffc20c5,0.2352,0.2353,0,109,109,45,1,threefour,,,,,,,,,,,,,,,,,,,,,,,,,,,,,,,,,,,,,,,,,,,,,,,,,,,,,,,,,,,,,,,,,,,,,,,,,,,,,,,,,,,,,,,,,,,,,,,,,,,,,,,,,,,,,,,,,,,,,,,,,,,,,,,,,,,,,,,,,
,,67ad92d9631677cfaa995e28,2026-03-17_12h43.54.317,kallum_motion_pilot_GIST_update_2,2026.1.1,Win32,59.52380952,67ad92d9631677cfaa995e28,69b92ab4aef6dee357cd729a,69b92f46d80a3b3e4ffc20c5,0.2369,0.2369,0,110,110,86,1,eightsix,,,,,,,,,,,,,,,,,,,,,,,,,,,,,,,,,,,,,,,,,,,,,,,,,,,,,,,,,,,,,,,,,,,,,,,,,,,,,,,,,,,,,,,,,,,,,,,,,,,,,,,,,,,,,,,,,,,,,,,,,,,,,,,,,,,,,,,,,
,,67ad92d9631677cfaa995e28,2026-03-17_12h43.54.317,kallum_motion_pilot_GIST_update_2,2026.1.1,Win32,59.52380952,67ad92d9631677cfaa995e28,69b92ab4aef6dee357cd729a,69b92f46d80a3b3e4ffc20c5,0.2384,0.2385,0,111,111,2,1,twoone,,,,,,,,,,,,,,,,,,,,,,,,,,,,,,,,,,,,,,,,,,,,,,,,,,,,,,,,,,,,,,,,,,,,,,,,,,,,,,,,,,,,,,,,,,,,,,,,,,,,,,,,,,,,,,,,,,,,,,,,,,,,,,,,,,,,,,,,,
,,67ad92d9631677cfaa995e28,2026-03-17_12h43.54.317,kallum_motion_pilot_GIST_update_2,2026.1.1,Win32,59.52380952,67ad92d9631677cfaa995e28,69b92ab4aef6dee357cd729a,69b92f46d80a3b3e4ffc20c5,0.2393,0.2393,0,112,112,140,1,sevenfive,,,,,,,,,,,,,,,,,,,,,,,,,,,,,,,,,,,,,,,,,,,,,,,,,,,,,,,,,,,,,,,,,,,,,,,,,,,,,,,,,,,,,,,,,,,,,,,,,,,,,,,,,,,,,,,,,,,,,,,,,,,,,,,,,,,,,,,,,
,,67ad92d9631677cfaa995e28,2026-03-17_12h43.54.317,kallum_motion_pilot_GIST_update_2,2026.1.1,Win32,59.52380952,67ad92d9631677cfaa995e28,69b92ab4aef6dee357cd729a,69b92f46d80a3b3e4ffc20c5,0.2402,0.2402,0,113,113,71,1,fourthree,,,,,,,,,,,,,,,,,,,,,,,,,,,,,,,,,,,,,,,,,,,,,,,,,,,,,,,,,,,,,,,,,,,,,,,,,,,,,,,,,,,,,,,,,,,,,,,,,,,,,,,,,,,,,,,,,,,,,,,,,,,,,,,,,,,,,,,,,
,,67ad92d9631677cfaa995e28,2026-03-17_12h43.54.317,kallum_motion_pilot_GIST_update_2,2026.1.1,Win32,59.52380952,67ad92d9631677cfaa995e28,69b92ab4aef6dee357cd729a,69b92f46d80a3b3e4ffc20c5,0.2411,0.2411,0,114,114,48,1,onetwo,,,,,,,,,,,,,,,,,,,,,,,,,,,,,,,,,,,,,,,,,,,,,,,,,,,,,,,,,,,,,,,,,,,,,,,,,,,,,,,,,,,,,,,,,,,,,,,,,,,,,,,,,,,,,,,,,,,,,,,,,,,,,,,,,,,,,,,,,
,,67ad92d9631677cfaa995e28,2026-03-17_12h43.54.317,kallum_motion_pilot_GIST_update_2,2026.1.1,Win32,59.52380952,67ad92d9631677cfaa995e28,69b92ab4aef6dee357cd729a,69b92f46d80a3b3e4ffc20c5,0.2423,0.2423,0,115,115,24,1,onetwo,,,,,,,,,,,,,,,,,,,,,,,,,,,,,,,,,,,,,,,,,,,,,,,,,,,,,,,,,,,,,,,,,,,,,,,,,,,,,,,,,,,,,,,,,,,,,,,,,,,,,,,,,,,,,,,,,,,,,,,,,,,,,,,,,,,,,,,,,
,,67ad92d9631677cfaa995e28,2026-03-17_12h43.54.317,kallum_motion_pilot_GIST_update_2,2026.1.1,Win32,59.52380952,67ad92d9631677cfaa995e28,69b92ab4aef6dee357cd729a,69b92f46d80a3b3e4ffc20c5,0.2431,0.2433,0,116,116,83,1,sixeight,,,,,,,,,,,,,,,,,,,,,,,,,,,,,,,,,,,,,,,,,,,,,,,,,,,,,,,,,,,,,,,,,,,,,,,,,,,,,,,,,,,,,,,,,,,,,,,,,,,,,,,,,,,,,,,,,,,,,,,,,,,,,,,,,,,,,,,,,
,,67ad92d9631677cfaa995e28,2026-03-17_12h43.54.317,kallum_motion_pilot_GIST_update_2,2026.1.1,Win32,59.52380952,67ad92d9631677cfaa995e28,69b92ab4aef6dee357cd729a,69b92f46d80a3b3e4ffc20c5,0.2439,0.244,0,117,117,124,1,sevenfive,,,,,,,,,,,,,,,,,,,,,,,,,,,,,,,,,,,,,,,,,,,,,,,,,,,,,,,,,,,,,,,,,,,,,,,,,,,,,,,,,,,,,,,,,,,,,,,,,,,,,,,,,,,,,,,,,,,,,,,,,,,,,,,,,,,,,,,,,
,,67ad92d9631677cfaa995e28,2026-03-17_12h43.54.317,kallum_motion_pilot_GIST_update_2,2026.1.1,Win32,59.52380952,67ad92d9631677cfaa995e28,69b92ab4aef6dee357cd729a,69b92f46d80a3b3e4ffc20c5,0.2447,0.2447,0,118,118,26,1,twoone,,,,,,,,,,,,,,,,,,,,,,,,,,,,,,,,,,,,,,,,,,,,,,,,,,,,,,,,,,,,,,,,,,,,,,,,,,,,,,,,,,,,,,,,,,,,,,,,,,,,,,,,,,,,,,,,,,,,,,,,,,,,,,,,,,,,,,,,,
,,67ad92d9631677cfaa995e28,2026-03-17_12h43.54.317,kallum_motion_pilot_GIST_update_2,2026.1.1,Win32,59.52380952,67ad92d9631677cfaa995e28,69b92ab4aef6dee357cd729a,69b92f46d80a3b3e4ffc20c5,0.2454,0.2455,0,119,119,108,1,sevenfive,,,,,,,,,,,,,,,,,,,,,,,,,,,,,,,,,,,,,,,,,,,,,,,,,,,,,,,,,,,,,,,,,,,,,,,,,,,,,,,,,,,,,,,,,,,,,,,,,,,,,,,,,,,,,,,,,,,,,,,,,,,,,,,,,,,,,,,,,
,,67ad92d9631677cfaa995e28,2026-03-17_12h43.54.317,kallum_motion_pilot_GIST_update_2,2026.1.1,Win32,59.52380952,67ad92d9631677cfaa995e28,69b92ab4aef6dee357cd729a,69b92f46d80a3b3e4ffc20c5,0.2462,0.2464,0,120,120,85,1,seveneight,,,,,,,,,,,,,,,,,,,,,,,,,,,,,,,,,,,,,,,,,,,,,,,,,,,,,,,,,,,,,,,,,,,,,,,,,,,,,,,,,,,,,,,,,,,,,,,,,,,,,,,,,,,,,,,,,,,,,,,,,,,,,,,,,,,,,,,,,
,,67ad92d9631677cfaa995e28,2026-03-17_12h43.54.317,kallum_motion_pilot_GIST_update_2,2026.1.1,Win32,59.52380952,67ad92d9631677cfaa995e28,69b92ab4aef6dee357cd729a,69b92f46d80a3b3e4ffc20c5,0.2478,0.248,0,121,121,81,1,fiveseven,,,,,,,,,,,,,,,,,,,,,,,,,,,,,,,,,,,,,,,,,,,,,,,,,,,,,,,,,,,,,,,,,,,,,,,,,,,,,,,,,,,,,,,,,,,,,,,,,,,,,,,,,,,,,,,,,,,,,,,,,,,,,,,,,,,,,,,,,
,,67ad92d9631677cfaa995e28,2026-03-17_12h43.54.317,kallum_motion_pilot_GIST_update_2,2026.1.1,Win32,59.52380952,67ad92d9631677cfaa995e28,69b92ab4aef6dee357cd729a,69b92f46d80a3b3e4ffc20c5,0.2489,0.2489,0,122,122,90,1,sixfive,,,,,,,,,,,,,,,,,,,,,,,,,,,,,,,,,,,,,,,,,,,,,,,,,,,,,,,,,,,,,,,,,,,,,,,,,,,,,,,,,,,,,,,,,,,,,,,,,,,,,,,,,,,,,,,,,,,,,,,,,,,,,,,,,,,,,,,,,
,,67ad92d9631677cfaa995e28,2026-03-17_12h43.54.317,kallum_motion_pilot_GIST_update_2,2026.1.1,Win32,59.52380952,67ad92d9631677cfaa995e28,69b92ab4aef6dee357cd729a,69b92f46d80a3b3e4ffc20c5,0.2496,0.2498,0,123,123,34,1,twoone,,,,,,,,,,,,,,,,,,,,,,,,,,,,,,,,,,,,,,,,,,,,,,,,,,,,,,,,,,,,,,,,,,,,,,,,,,,,,,,,,,,,,,,,,,,,,,,,,,,,,,,,,,,,,,,,,,,,,,,,,,,,,,,,,,,,,,,,,
,,67ad92d9631677cfaa995e28,2026-03-17_12h43.54.317,kallum_motion_pilot_GIST_update_2,2026.1.1,Win32,59.52380952,67ad92d9631677cfaa995e28,69b92ab4aef6dee357cd729a,69b92f46d80a3b3e4ffc20c5,0.2506,0.2506,0,124,124,110,1,eightsix,,,,,,,,,,,,,,,,,,,,,,,,,,,,,,,,,,,,,,,,,,,,,,,,,,,,,,,,,,,,,,,,,,,,,,,,,,,,,,,,,,,,,,,,,,,,,,,,,,,,,,,,,,,,,,,,,,,,,,,,,,,,,,,,,,,,,,,,,
,,67ad92d9631677cfaa995e28,2026-03-17_12h43.54.317,kallum_motion_pilot_GIST_update_2,2026.1.1,Win32,59.52380952,67ad92d9631677cfaa995e28,69b92ab4aef6dee357cd729a,69b92f46d80a3b3e4ffc20c5,0.2513,0.2515,0,125,125,55,1,fourthree,,,,,,,,,,,,,,,,,,,,,,,,,,,,,,,,,,,,,,,,,,,,,,,,,,,,,,,,,,,,,,,,,,,,,,,,,,,,,,,,,,,,,,,,,,,,,,,,,,,,,,,,,,,,,,,,,,,,,,,,,,,,,,,,,,,,,,,,,
,,67ad92d9631677cfaa995e28,2026-03-17_12h43.54.317,kallum_motion_pilot_GIST_update_2,2026.1.1,Win32,59.52380952,67ad92d9631677cfaa995e28,69b92ab4aef6dee357cd729a,69b92f46d80a3b3e4ffc20c5,0.2521,0.2522,0,126,126,60,1,threeone,,,,,,,,,,,,,,,,,,,,,,,,,,,,,,,,,,,,,,,,,,,,,,,,,,,,,,,,,,,,,,,,,,,,,,,,,,,,,,,,,,,,,,,,,,,,,,,,,,,,,,,,,,,,,,,,,,,,,,,,,,,,,,,,,,,,,,,,,
,,67ad92d9631677cfaa995e28,2026-03-17_12h43.54.317,kallum_motion_pilot_GIST_update_2,2026.1.1,Win32,59.52380952,67ad92d9631677cfaa995e28,69b92ab4aef6dee357cd729a,69b92f46d80a3b3e4ffc20c5,0.2529,0.253,0,127,127,119,1,eightseven,,,,,,,,,,,,,,,,,,,,,,,,,,,,,,,,,,,,,,,,,,,,,,,,,,,,,,,,,,,,,,,,,,,,,,,,,,,,,,,,,,,,,,,,,,,,,,,,,,,,,,,,,,,,,,,,,,,,,,,,,,,,,,,,,,,,,,,,,
,,67ad92d9631677cfaa995e28,2026-03-17_12h43.54.317,kallum_motion_pilot_GIST_update_2,2026.1.1,Win32,59.52380952,67ad92d9631677cfaa995e28,69b92ab4aef6dee357cd729a,69b92f46d80a3b3e4ffc20c5,0.2536,0.2537,0,128,128,125,1,seveneight,,,,,,,,,,,,,,,,,,,,,,,,,,,,,,,,,,,,,,,,,,,,,,,,,,,,,,,,,,,,,,,,,,,,,,,,,,,,,,,,,,,,,,,,,,,,,,,,,,,,,,,,,,,,,,,,,,,,,,,,,,,,,,,,,,,,,,,,,
,,67ad92d9631677cfaa995e28,2026-03-17_12h43.54.317,kallum_motion_pilot_GIST_update_2,2026.1.1,Win32,59.52380952,67ad92d9631677cfaa995e28,69b92ab4aef6dee357cd729a,69b92f46d80a3b3e4ffc20c5,0.2544,0.255,0,129,129,155,1,sixeight,,,,,,,,,,,,,,,,,,,,,,,,,,,,,,,,,,,,,,,,,,,,,,,,,,,,,,,,,,,,,,,,,,,,,,,,,,,,,,,,,,,,,,,,,,,,,,,,,,,,,,,,,,,,,,,,,,,,,,,,,,,,,,,,,,,,,,,,,
,,67ad92d9631677cfaa995e28,2026-03-17_12h43.54.317,kallum_motion_pilot_GIST_update_2,2026.1.1,Win32,59.52380952,67ad92d9631677cfaa995e28,69b92ab4aef6dee357cd729a,69b92f46d80a3b3e4ffc20c5,0.2561,0.2562,0,130,130,99,1,sixeight,,,,,,,,,,,,,,,,,,,,,,,,,,,,,,,,,,,,,,,,,,,,,,,,,,,,,,,,,,,,,,,,,,,,,,,,,,,,,,,,,,,,,,,,,,,,,,,,,,,,,,,,,,,,,,,,,,,,,,,,,,,,,,,,,,,,,,,,,
,,67ad92d9631677cfaa995e28,2026-03-17_12h43.54.317,kallum_motion_pilot_GIST_update_2,2026.1.1,Win32,59.52380952,67ad92d9631677cfaa995e28,69b92ab4aef6dee357cd729a,69b92f46d80a3b3e4ffc20c5,0.2572,0.2573,0,131,131,117,1,seveneight,,,,,,,,,,,,,,,,,,,,,,,,,,,,,,,,,,,,,,,,,,,,,,,,,,,,,,,,,,,,,,,,,,,,,,,,,,,,,,,,,,,,,,,,,,,,,,,,,,,,,,,,,,,,,,,,,,,,,,,,,,,,,,,,,,,,,,,,,
,,67ad92d9631677cfaa995e28,2026-03-17_12h43.54.317,kallum_motion_pilot_GIST_update_2,2026.1.1,Win32,59.52380952,67ad92d9631677cfaa995e28,69b92ab4aef6dee357cd729a,69b92f46d80a3b3e4ffc20c5,0.2586,0.2586,0,132,132,107,1,sixeight,,,,,,,,,,,,,,,,,,,,,,,,,,,,,,,,,,,,,,,,,,,,,,,,,,,,,,,,,,,,,,,,,,,,,,,,,,,,,,,,,,,,,,,,,,,,,,,,,,,,,,,,,,,,,,,,,,,,,,,,,,,,,,,,,,,,,,,,,
,,67ad92d9631677cfaa995e28,2026-03-17_12h43.54.317,kallum_motion_pilot_GIST_update_2,2026.1.1,Win32,59.52380952,67ad92d9631677cfaa995e28,69b92ab4aef6dee357cd729a,69b92f46d80a3b3e4ffc20c5,0.2595,0.2596,0,133,133,132,1,sevenfive,,,,,,,,,,,,,,,,,,,,,,,,,,,,,,,,,,,,,,,,,,,,,,,,,,,,,,,,,,,,,,,,,,,,,,,,,,,,,,,,,,,,,,,,,,,,,,,,,,,,,,,,,,,,,,,,,,,,,,,,,,,,,,,,,,,,,,,,,
,,67ad92d9631677cfaa995e28,2026-03-17_12h43.54.317,kallum_motion_pilot_GIST_update_2,2026.1.1,Win32,59.52380952,67ad92d9631677cfaa995e28,69b92ab4aef6dee357cd729a,69b92f46d80a3b3e4ffc20c5,0.2604,0.2605,0,134,134,104,1,fivesix,,,,,,,,,,,,,,,,,,,,,,,,,,,,,,,,,,,,,,,,,,,,,,,,,,,,,,,,,,,,,,,,,,,,,,,,,,,,,,,,,,,,,,,,,,,,,,,,,,,,,,,,,,,,,,,,,,,,,,,,,,,,,,,,,,,,,,,,,
,,67ad92d9631677cfaa995e28,2026-03-17_12h43.54.317,kallum_motion_pilot_GIST_update_2,2026.1.1,Win32,59.52380952,67ad92d9631677cfaa995e28,69b92ab4aef6dee357cd729a,69b92f46d80a3b3e4ffc20c5,0.2614,0.2614,0,135,135,134,1,eightsix,,,,,,,,,,,,,,,,,,,,,,,,,,,,,,,,,,,,,,,,,,,,,,,,,,,,,,,,,,,,,,,,,,,,,,,,,,,,,,,,,,,,,,,,,,,,,,,,,,,,,,,,,,,,,,,,,,,,,,,,,,,,,,,,,,,,,,,,,
,,67ad92d9631677cfaa995e28,2026-03-17_12h43.54.317,kallum_motion_pilot_GIST_update_2,2026.1.1,Win32,59.52380952,67ad92d9631677cfaa995e28,69b92ab4aef6dee357cd729a,69b92f46d80a3b3e4ffc20c5,0.2628,0.2628,0,136,136,33,1,onethree,,,,,,,,,,,,,,,,,,,,,,,,,,,,,,,,,,,,,,,,,,,,,,,,,,,,,,,,,,,,,,,,,,,,,,,,,,,,,,,,,,,,,,,,,,,,,,,,,,,,,,,,,,,,,,,,,,,,,,,,,,,,,,,,,,,,,,,,,
,,67ad92d9631677cfaa995e28,2026-03-17_12h43.54.317,kallum_motion_pilot_GIST_update_2,2026.1.1,Win32,59.52380952,67ad92d9631677cfaa995e28,69b92ab4aef6dee357cd729a,69b92f46d80a3b3e4ffc20c5,0.2643,0.2643,0,137,137,78,1,fourtwo,,,,,,,,,,,,,,,,,,,,,,,,,,,,,,,,,,,,,,,,,,,,,,,,,,,,,,,,,,,,,,,,,,,,,,,,,,,,,,,,,,,,,,,,,,,,,,,,,,,,,,,,,,,,,,,,,,,,,,,,,,,,,,,,,,,,,,,,,
,,67ad92d9631677cfaa995e28,2026-03-17_12h43.54.317,kallum_motion_pilot_GIST_update_2,2026.1.1,Win32,59.52380952,67ad92d9631677cfaa995e28,69b92ab4aef6dee357cd729a,69b92f46d80a3b3e4ffc20c5,0.2652,0.2653,0,138,138,91,1,sixeight,,,,,,,,,,,,,,,,,,,,,,,,,,,,,,,,,,,,,,,,,,,,,,,,,,,,,,,,,,,,,,,,,,,,,,,,,,,,,,,,,,,,,,,,,,,,,,,,,,,,,,,,,,,,,,,,,,,,,,,,,,,,,,,,,,,,,,,,,
,,67ad92d9631677cfaa995e28,2026-03-17_12h43.54.317,kallum_motion_pilot_GIST_update_2,2026.1.1,Win32,59.52380952,67ad92d9631677cfaa995e28,69b92ab4aef6dee357cd729a,69b92f46d80a3b3e4ffc20c5,0.2666,0.2667,0,139,139,80,1,fivesix,,,,,,,,,,,,,,,,,,,,,,,,,,,,,,,,,,,,,,,,,,,,,,,,,,,,,,,,,,,,,,,,,,,,,,,,,,,,,,,,,,,,,,,,,,,,,,,,,,,,,,,,,,,,,,,,,,,,,,,,,,,,,,,,,,,,,,,,,
,,67ad92d9631677cfaa995e28,2026-03-17_12h43.54.317,kallum_motion_pilot_GIST_update_2,2026.1.1,Win32,59.52380952,67ad92d9631677cfaa995e28,69b92ab4aef6dee357cd729a,69b92f46d80a3b3e4ffc20c5,0.2674,0.2676,0,140,140,58,1,twoone,,,,,,,,,,,,,,,,,,,,,,,,,,,,,,,,,,,,,,,,,,,,,,,,,,,,,,,,,,,,,,,,,,,,,,,,,,,,,,,,,,,,,,,,,,,,,,,,,,,,,,,,,,,,,,,,,,,,,,,,,,,,,,,,,,,,,,,,,
,,67ad92d9631677cfaa995e28,2026-03-17_12h43.54.317,kallum_motion_pilot_GIST_update_2,2026.1.1,Win32,59.52380952,67ad92d9631677cfaa995e28,69b92ab4aef6dee357cd729a,69b92f46d80a3b3e4ffc20c5,0.2688,0.2688,0,141,141,38,1,fourtwo,,,,,,,,,,,,,,,,,,,,,,,,,,,,,,,,,,,,,,,,,,,,,,,,,,,,,,,,,,,,,,,,,,,,,,,,,,,,,,,,,,,,,,,,,,,,,,,,,,,,,,,,,,,,,,,,,,,,,,,,,,,,,,,,,,,,,,,,,
,,67ad92d9631677cfaa995e28,2026-03-17_12h43.54.317,kallum_motion_pilot_GIST_update_2,2026.1.1,Win32,59.52380952,67ad92d9631677cfaa995e28,69b92ab4aef6dee357cd729a,69b92f46d80a3b3e4ffc20c5,0.2697,0.2699,0,142,142,106,1,sixfive,,,,,,,,,,,,,,,,,,,,,,,,,,,,,,,,,,,,,,,,,,,,,,,,,,,,,,,,,,,,,,,,,,,,,,,,,,,,,,,,,,,,,,,,,,,,,,,,,,,,,,,,,,,,,,,,,,,,,,,,,,,,,,,,,,,,,,,,,
,,67ad92d9631677cfaa995e28,2026-03-17_12h43.54.317,kallum_motion_pilot_GIST_update_2,2026.1.1,Win32,59.52380952,67ad92d9631677cfaa995e28,69b92ab4aef6dee357cd729a,69b92f46d80a3b3e4ffc20c5,0.2707,0.2707,0,143,143,141,1,seveneight,,,,,,,,,,,,,,,,,,,,,,,,,,,,,,,,,,,,,,,,,,,,,,,,,,,,,,,,,,,,,,,,,,,,,,,,,,,,,,,,,,,,,,,,,,,,,,,,,,,,,,,,,,,,,,,,,,,,,,,,,,,,,,,,,,,,,,,,,
,,67ad92d9631677cfaa995e28,2026-03-17_12h43.54.317,kallum_motion_pilot_GIST_update_2,2026.1.1,Win32,59.52380952,67ad92d9631677cfaa995e28,69b92ab4aef6dee357cd729a,69b92f46d80a3b3e4ffc20c5,0.2716,0.2716,0,144,144,41,1,onethree,,,,,,,,,,,,,,,,,,,,,,,,,,,,,,,,,,,,,,,,,,,,,,,,,,,,,,,,,,,,,,,,,,,,,,,,,,,,,,,,,,,,,,,,,,,,,,,,,,,,,,,,,,,,,,,,,,,,,,,,,,,,,,,,,,,,,,,,,
,,67ad92d9631677cfaa995e28,2026-03-17_12h43.54.317,kallum_motion_pilot_GIST_update_2,2026.1.1,Win32,59.52380952,67ad92d9631677cfaa995e28,69b92ab4aef6dee357cd729a,69b92f46d80a3b3e4ffc20c5,0.2727,0.2728,0,145,145,109,1,seveneight,,,,,,,,,,,,,,,,,,,,,,,,,,,,,,,,,,,,,,,,,,,,,,,,,,,,,,,,,,,,,,,,,,,,,,,,,,,,,,,,,,,,,,,,,,,,,,,,,,,,,,,,,,,,,,,,,,,,,,,,,,,,,,,,,,,,,,,,,
,,67ad92d9631677cfaa995e28,2026-03-17_12h43.54.317,kallum_motion_pilot_GIST_update_2,2026.1.1,Win32,59.52380952,67ad92d9631677cfaa995e28,69b92ab4aef6dee357cd729a,69b92f46d80a3b3e4ffc20c5,0.2738,0.2739,0,146,146,123,1,sixeight,,,,,,,,,,,,,,,,,,,,,,,,,,,,,,,,,,,,,,,,,,,,,,,,,,,,,,,,,,,,,,,,,,,,,,,,,,,,,,,,,,,,,,,,,,,,,,,,,,,,,,,,,,,,,,,,,,,,,,,,,,,,,,,,,,,,,,,,,
,,67ad92d9631677cfaa995e28,2026-03-17_12h43.54.317,kallum_motion_pilot_GIST_update_2,2026.1.1,Win32,59.52380952,67ad92d9631677cfaa995e28,69b92ab4aef6dee357cd729a,69b92f46d80a3b3e4ffc20c5,0.2746,0.2747,0,147,147,23,1,fourthree,,,,,,,,,,,,,,,,,,,,,,,,,,,,,,,,,,,,,,,,,,,,,,,,,,,,,,,,,,,,,,,,,,,,,,,,,,,,,,,,,,,,,,,,,,,,,,,,,,,,,,,,,,,,,,,,,,,,,,,,,,,,,,,,,,,,,,,,,
,,67ad92d9631677cfaa995e28,2026-03-17_12h43.54.317,kallum_motion_pilot_GIST_update_2,2026.1.1,Win32,59.52380952,67ad92d9631677cfaa995e28,69b92ab4aef6dee357cd729a,69b92f46d80a3b3e4ffc20c5,0.2754,0.2755,0,148,148,161,1,fiveseven,,,,,,,,,,,,,,,,,,,,,,,,,,,,,,,,,,,,,,,,,,,,,,,,,,,,,,,,,,,,,,,,,,,,,,,,,,,,,,,,,,,,,,,,,,,,,,,,,,,,,,,,,,,,,,,,,,,,,,,,,,,,,,,,,,,,,,,,,
,,67ad92d9631677cfaa995e28,2026-03-17_12h43.54.317,kallum_motion_pilot_GIST_update_2,2026.1.1,Win32,59.52380952,67ad92d9631677cfaa995e28,69b92ab4aef6dee357cd729a,69b92f46d80a3b3e4ffc20c5,0.2763,0.2764,0,149,149,150,1,eightsix,,,,,,,,,,,,,,,,,,,,,,,,,,,,,,,,,,,,,,,,,,,,,,,,,,,,,,,,,,,,,,,,,,,,,,,,,,,,,,,,,,,,,,,,,,,,,,,,,,,,,,,,,,,,,,,,,,,,,,,,,,,,,,,,,,,,,,,,,
,,67ad92d9631677cfaa995e28,2026-03-17_12h43.54.317,kallum_motion_pilot_GIST_update_2,2026.1.1,Win32,59.52380952,67ad92d9631677cfaa995e28,69b92ab4aef6dee357cd729a,69b92f46d80a3b3e4ffc20c5,0.277,0.2771,0,150,150,116,1,sevenfive,,,,,,,,,,,,,,,,,,,,,,,,,,,,,,,,,,,,,,,,,,,,,,,,,,,,,,,,,,,,,,,,,,,,,,,,,,,,,,,,,,,,,,,,,,,,,,,,,,,,,,,,,,,,,,,,,,,,,,,,,,,,,,,,,,,,,,,,,
,,67ad92d9631677cfaa995e28,2026-03-17_12h43.54.317,kallum_motion_pilot_GIST_update_2,2026.1.1,Win32,59.52380952,67ad92d9631677cfaa995e28,69b92ab4aef6dee357cd729a,69b92f46d80a3b3e4ffc20c5,0.2778,0.2781,0,151,151,128,1,fivesix,,,,,,,,,,,,,,,,,,,,,,,,,,,,,,,,,,,,,,,,,,,,,,,,,,,,,,,,,,,,,,,,,,,,,,,,,,,,,,,,,,,,,,,,,,,,,,,,,,,,,,,,,,,,,,,,,,,,,,,,,,,,,,,,,,,,,,,,,
,,67ad92d9631677cfaa995e28,2026-03-17_12h43.54.317,kallum_motion_pilot_GIST_update_2,2026.1.1,Win32,59.52380952,67ad92d9631677cfaa995e28,69b92ab4aef6dee357cd729a,69b92f46d80a3b3e4ffc20c5,0.2795,0.2795,0,152,152,18,1,twoone,,,,,,,,,,,,,,,,,,,,,,,,,,,,,,,,,,,,,,,,,,,,,,,,,,,,,,,,,,,,,,,,,,,,,,,,,,,,,,,,,,,,,,,,,,,,,,,,,,,,,,,,,,,,,,,,,,,,,,,,,,,,,,,,,,,,,,,,,
,,67ad92d9631677cfaa995e28,2026-03-17_12h43.54.317,kallum_motion_pilot_GIST_update_2,2026.1.1,Win32,59.52380952,67ad92d9631677cfaa995e28,69b92ab4aef6dee357cd729a,69b92f46d80a3b3e4ffc20c5,0.281,0.2811,0,153,153,61,1,threefour,,,,,,,,,,,,,,,,,,,,,,,,,,,,,,,,,,,,,,,,,,,,,,,,,,,,,,,,,,,,,,,,,,,,,,,,,,,,,,,,,,,,,,,,,,,,,,,,,,,,,,,,,,,,,,,,,,,,,,,,,,,,,,,,,,,,,,,,,
,,67ad92d9631677cfaa995e28,2026-03-17_12h43.54.317,kallum_motion_pilot_GIST_update_2,2026.1.1,Win32,59.52380952,67ad92d9631677cfaa995e28,69b92ab4aef6dee357cd729a,69b92f46d80a3b3e4ffc20c5,0.282,0.2821,0,154,154,36,1,threeone,,,,,,,,,,,,,,,,,,,,,,,,,,,,,,,,,,,,,,,,,,,,,,,,,,,,,,,,,,,,,,,,,,,,,,,,,,,,,,,,,,,,,,,,,,,,,,,,,,,,,,,,,,,,,,,,,,,,,,,,,,,,,,,,,,,,,,,,,
,,67ad92d9631677cfaa995e28,2026-03-17_12h43.54.317,kallum_motion_pilot_GIST_update_2,2026.1.1,Win32,59.52380952,67ad92d9631677cfaa995e28,69b92ab4aef6dee357cd729a,69b92f46d80a3b3e4ffc20c5,0.2829,0.2829,0,155,155,142,1,eightsix,,,,,,,,,,,,,,,,,,,,,,,,,,,,,,,,,,,,,,,,,,,,,,,,,,,,,,,,,,,,,,,,,,,,,,,,,,,,,,,,,,,,,,,,,,,,,,,,,,,,,,,,,,,,,,,,,,,,,,,,,,,,,,,,,,,,,,,,,
,,67ad92d9631677cfaa995e28,2026-03-17_12h43.54.317,kallum_motion_pilot_GIST_update_2,2026.1.1,Win32,59.52380952,67ad92d9631677cfaa995e28,69b92ab4aef6dee357cd729a,69b92f46d80a3b3e4ffc20c5,0.2838,0.2838,0,156,156,7,1,fourthree,,,,,,,,,,,,,,,,,,,,,,,,,,,,,,,,,,,,,,,,,,,,,,,,,,,,,,,,,,,,,,,,,,,,,,,,,,,,,,,,,,,,,,,,,,,,,,,,,,,,,,,,,,,,,,,,,,,,,,,,,,,,,,,,,,,,,,,,,
,,67ad92d9631677cfaa995e28,2026-03-17_12h43.54.317,kallum_motion_pilot_GIST_update_2,2026.1.1,Win32,59.52380952,67ad92d9631677cfaa995e28,69b92ab4aef6dee357cd729a,69b92f46d80a3b3e4ffc20c5,0.2851,0.2851,0,157,157,31,1,fourthree,,,,,,,,,,,,,,,,,,,,,,,,,,,,,,,,,,,,,,,,,,,,,,,,,,,,,,,,,,,,,,,,,,,,,,,,,,,,,,,,,,,,,,,,,,,,,,,,,,,,,,,,,,,,,,,,,,,,,,,,,,,,,,,,,,,,,,,,,
,,67ad92d9631677cfaa995e28,2026-03-17_12h43.54.317,kallum_motion_pilot_GIST_update_2,2026.1.1,Win32,59.52380952,67ad92d9631677cfaa995e28,69b92ab4aef6dee357cd729a,69b92f46d80a3b3e4ffc20c5,0.2861,0.2863,0,158,158,157,1,seveneight,,,,,,,,,,,,,,,,,,,,,,,,,,,,,,,,,,,,,,,,,,,,,,,,,,,,,,,,,,,,,,,,,,,,,,,,,,,,,,,,,,,,,,,,,,,,,,,,,,,,,,,,,,,,,,,,,,,,,,,,,,,,,,,,,,,,,,,,,
,,67ad92d9631677cfaa995e28,2026-03-17_12h43.54.317,kallum_motion_pilot_GIST_update_2,2026.1.1,Win32,59.52380952,67ad92d9631677cfaa995e28,69b92ab4aef6dee357cd729a,69b92f46d80a3b3e4ffc20c5,0.287,0.287,0,159,159,87,1,eightseven,,,,,,,,,,,,,,,,,,,,,,,,,,,,,,,,,,,,,,,,,,,,,,,,,,,,,,,,,,,,,,,,,,,,,,,,,,,,,,,,,,,,,,,,,,,,,,,,,,,,,,,,,,,,,,,,,,,,,,,,,,,,,,,,,,,,,,,,,
,,67ad92d9631677cfaa995e28,2026-03-17_12h43.54.317,kallum_motion_pilot_GIST_update_2,2026.1.1,Win32,59.52380952,67ad92d9631677cfaa995e28,69b92ab4aef6dee357cd729a,69b92f46d80a3b3e4ffc20c5,0.2877,0.2878,0,160,160,129,1,fiveseven,,,,,,,,,,,,,,,,,,,,,,,,,,,,,,,,,,,,,,,,,,,,,,,,,,,,,,,,,,,,,,,,,,,,,,,,,,,,,,,,,,,,,,,,,,,,,,,,,,,,,,,,,,,,,,,,,,,,,,,,,,,,,,,,,,,,,,,,,
,,67ad92d9631677cfaa995e28,2026-03-17_12h43.54.317,kallum_motion_pilot_GIST_update_2,2026.1.1,Win32,59.52380952,67ad92d9631677cfaa995e28,69b92ab4aef6dee357cd729a,69b92f46d80a3b3e4ffc20c5,0.289,0.289,0,161,161,6,1,fourtwo,,,,,,,,,,,,,,,,,,,,,,,,,,,,,,,,,,,,,,,,,,,,,,,,,,,,,,,,,,,,,,,,,,,,,,,,,,,,,,,,,,,,,,,,,,,,,,,,,,,,,,,,,,,,,,,,,,,,,,,,,,,,,,,,,,,,,,,,,
,,67ad92d9631677cfaa995e28,2026-03-17_12h43.54.317,kallum_motion_pilot_GIST_update_2,2026.1.1,Win32,59.52380952,67ad92d9631677cfaa995e28,69b92ab4aef6dee357cd729a,69b92f46d80a3b3e4ffc20c5,0.2898,0.29,1,0,162,30,1,fourtwo,,,,,,,,,,,,,,,,,,,,,,,,,,,,,,,,,,,,,,,,,,,,,,,,,,,,,,,,,,,,,,,,,,,,,,,,,,,,,,,,,,,,,,,,,,,,,,,,,,,,,,,,,,,,,,,,,,,,,,,,,,,,,,,,,,,,,,,,,
,,67ad92d9631677cfaa995e28,2026-03-17_12h43.54.317,kallum_motion_pilot_GIST_update_2,2026.1.1,Win32,59.52380952,67ad92d9631677cfaa995e28,69b92ab4aef6dee357cd729a,69b92f46d80a3b3e4ffc20c5,0.2906,0.2907,1,1,163,64,1,onetwo,,,,,,,,,,,,,,,,,,,,,,,,,,,,,,,,,,,,,,,,,,,,,,,,,,,,,,,,,,,,,,,,,,,,,,,,,,,,,,,,,,,,,,,,,,,,,,,,,,,,,,,,,,,,,,,,,,,,,,,,,,,,,,,,,,,,,,,,,
,,67ad92d9631677cfaa995e28,2026-03-17_12h43.54.317,kallum_motion_pilot_GIST_update_2,2026.1.1,Win32,59.52380952,67ad92d9631677cfaa995e28,69b92ab4aef6dee357cd729a,69b92f46d80a3b3e4ffc20c5,0.2916,0.2917,1,2,164,116,1,sevenfive,,,,,,,,,,,,,,,,,,,,,,,,,,,,,,,,,,,,,,,,,,,,,,,,,,,,,,,,,,,,,,,,,,,,,,,,,,,,,,,,,,,,,,,,,,,,,,,,,,,,,,,,,,,,,,,,,,,,,,,,,,,,,,,,,,,,,,,,,
,,67ad92d9631677cfaa995e28,2026-03-17_12h43.54.317,kallum_motion_pilot_GIST_update_2,2026.1.1,Win32,59.52380952,67ad92d9631677cfaa995e28,69b92ab4aef6dee357cd729a,69b92f46d80a3b3e4ffc20c5,0.2924,0.2927,1,3,165,32,1,onetwo,,,,,,,,,,,,,,,,,,,,,,,,,,,,,,,,,,,,,,,,,,,,,,,,,,,,,,,,,,,,,,,,,,,,,,,,,,,,,,,,,,,,,,,,,,,,,,,,,,,,,,,,,,,,,,,,,,,,,,,,,,,,,,,,,,,,,,,,,
,,67ad92d9631677cfaa995e28,2026-03-17_12h43.54.317,kallum_motion_pilot_GIST_update_2,2026.1.1,Win32,59.52380952,67ad92d9631677cfaa995e28,69b92ab4aef6dee357cd729a,69b92f46d80a3b3e4ffc20c5,0.2936,0.2937,1,4,166,123,1,sixeight,,,,,,,,,,,,,,,,,,,,,,,,,,,,,,,,,,,,,,,,,,,,,,,,,,,,,,,,,,,,,,,,,,,,,,,,,,,,,,,,,,,,,,,,,,,,,,,,,,,,,,,,,,,,,,,,,,,,,,,,,,,,,,,,,,,,,,,,,
,,67ad92d9631677cfaa995e28,2026-03-17_12h43.54.317,kallum_motion_pilot_GIST_update_2,2026.1.1,Win32,59.52380952,67ad92d9631677cfaa995e28,69b92ab4aef6dee357cd729a,69b92f46d80a3b3e4ffc20c5,0.2948,0.2949,1,5,167,148,1,sevenfive,,,,,,,,,,,,,,,,,,,,,,,,,,,,,,,,,,,,,,,,,,,,,,,,,,,,,,,,,,,,,,,,,,,,,,,,,,,,,,,,,,,,,,,,,,,,,,,,,,,,,,,,,,,,,,,,,,,,,,,,,,,,,,,,,,,,,,,,,
,,67ad92d9631677cfaa995e28,2026-03-17_12h43.54.317,kallum_motion_pilot_GIST_update_2,2026.1.1,Win32,59.52380952,67ad92d9631677cfaa995e28,69b92ab4aef6dee357cd729a,69b92f46d80a3b3e4ffc20c5,0.2963,0.2963,1,6,168,96,1,fivesix,,,,,,,,,,,,,,,,,,,,,,,,,,,,,,,,,,,,,,,,,,,,,,,,,,,,,,,,,,,,,,,,,,,,,,,,,,,,,,,,,,,,,,,,,,,,,,,,,,,,,,,,,,,,,,,,,,,,,,,,,,,,,,,,,,,,,,,,,
,,67ad92d9631677cfaa995e28,2026-03-17_12h43.54.317,kallum_motion_pilot_GIST_update_2,2026.1.1,Win32,59.52380952,67ad92d9631677cfaa995e28,69b92ab4aef6dee357cd729a,69b92f46d80a3b3e4ffc20c5,0.2977,0.2979,1,7,169,46,1,fourtwo,,,,,,,,,,,,,,,,,,,,,,,,,,,,,,,,,,,,,,,,,,,,,,,,,,,,,,,,,,,,,,,,,,,,,,,,,,,,,,,,,,,,,,,,,,,,,,,,,,,,,,,,,,,,,,,,,,,,,,,,,,,,,,,,,,,,,,,,,
,,67ad92d9631677cfaa995e28,2026-03-17_12h43.54.317,kallum_motion_pilot_GIST_update_2,2026.1.1,Win32,59.52380952,67ad92d9631677cfaa995e28,69b92ab4aef6dee357cd729a,69b92f46d80a3b3e4ffc20c5,0.2991,0.2991,1,8,170,17,1,onethree,,,,,,,,,,,,,,,,,,,,,,,,,,,,,,,,,,,,,,,,,,,,,,,,,,,,,,,,,,,,,,,,,,,,,,,,,,,,,,,,,,,,,,,,,,,,,,,,,,,,,,,,,,,,,,,,,,,,,,,,,,,,,,,,,,,,,,,,,
,,67ad92d9631677cfaa995e28,2026-03-17_12h43.54.317,kallum_motion_pilot_GIST_update_2,2026.1.1,Win32,59.52380952,67ad92d9631677cfaa995e28,69b92ab4aef6dee357cd729a,69b92f46d80a3b3e4ffc20c5,0.3001,0.3002,1,9,171,108,1,sevenfive,,,,,,,,,,,,,,,,,,,,,,,,,,,,,,,,,,,,,,,,,,,,,,,,,,,,,,,,,,,,,,,,,,,,,,,,,,,,,,,,,,,,,,,,,,,,,,,,,,,,,,,,,,,,,,,,,,,,,,,,,,,,,,,,,,,,,,,,,
,,67ad92d9631677cfaa995e28,2026-03-17_12h43.54.317,kallum_motion_pilot_GIST_update_2,2026.1.1,Win32,59.52380952,67ad92d9631677cfaa995e28,69b92ab4aef6dee357cd729a,69b92f46d80a3b3e4ffc20c5,0.3009,0.301,1,10,172,98,1,sixfive,,,,,,,,,,,,,,,,,,,,,,,,,,,,,,,,,,,,,,,,,,,,,,,,,,,,,,,,,,,,,,,,,,,,,,,,,,,,,,,,,,,,,,,,,,,,,,,,,,,,,,,,,,,,,,,,,,,,,,,,,,,,,,,,,,,,,,,,,
,,67ad92d9631677cfaa995e28,2026-03-17_12h43.54.317,kallum_motion_pilot_GIST_update_2,2026.1.1,Win32,59.52380952,67ad92d9631677cfaa995e28,69b92ab4aef6dee357cd729a,69b92f46d80a3b3e4ffc20c5,0.3017,0.3018,1,11,173,91,1,sixeight,,,,,,,,,,,,,,,,,,,,,,,,,,,,,,,,,,,,,,,,,,,,,,,,,,,,,,,,,,,,,,,,,,,,,,,,,,,,,,,,,,,,,,,,,,,,,,,,,,,,,,,,,,,,,,,,,,,,,,,,,,,,,,,,,,,,,,,,,
,,67ad92d9631677cfaa995e28,2026-03-17_12h43.54.317,kallum_motion_pilot_GIST_update_2,2026.1.1,Win32,59.52380952,67ad92d9631677cfaa995e28,69b92ab4aef6dee357cd729a,69b92f46d80a3b3e4ffc20c5,0.3025,0.3025,1,12,174,51,1,twofour,,,,,,,,,,,,,,,,,,,,,,,,,,,,,,,,,,,,,,,,,,,,,,,,,,,,,,,,,,,,,,,,,,,,,,,,,,,,,,,,,,,,,,,,,,,,,,,,,,,,,,,,,,,,,,,,,,,,,,,,,,,,,,,,,,,,,,,,,
,,67ad92d9631677cfaa995e28,2026-03-17_12h43.54.317,kallum_motion_pilot_GIST_update_2,2026.1.1,Win32,59.52380952,67ad92d9631677cfaa995e28,69b92ab4aef6dee357cd729a,69b92f46d80a3b3e4ffc20c5,0.3033,0.3034,1,13,175,140,1,sevenfive,,,,,,,,,,,,,,,,,,,,,,,,,,,,,,,,,,,,,,,,,,,,,,,,,,,,,,,,,,,,,,,,,,,,,,,,,,,,,,,,,,,,,,,,,,,,,,,,,,,,,,,,,,,,,,,,,,,,,,,,,,,,,,,,,,,,,,,,,
,,67ad92d9631677cfaa995e28,2026-03-17_12h43.54.317,kallum_motion_pilot_GIST_update_2,2026.1.1,Win32,59.52380952,67ad92d9631677cfaa995e28,69b92ab4aef6dee357cd729a,69b92f46d80a3b3e4ffc20c5,0.304,0.3041,1,14,176,153,1,fiveseven,,,,,,,,,,,,,,,,,,,,,,,,,,,,,,,,,,,,,,,,,,,,,,,,,,,,,,,,,,,,,,,,,,,,,,,,,,,,,,,,,,,,,,,,,,,,,,,,,,,,,,,,,,,,,,,,,,,,,,,,,,,,,,,,,,,,,,,,,
,,67ad92d9631677cfaa995e28,2026-03-17_12h43.54.317,kallum_motion_pilot_GIST_update_2,2026.1.1,Win32,59.52380952,67ad92d9631677cfaa995e28,69b92ab4aef6dee357cd729a,69b92f46d80a3b3e4ffc20c5,0.3048,0.3049,1,15,177,145,1,fiveseven,,,,,,,,,,,,,,,,,,,,,,,,,,,,,,,,,,,,,,,,,,,,,,,,,,,,,,,,,,,,,,,,,,,,,,,,,,,,,,,,,,,,,,,,,,,,,,,,,,,,,,,,,,,,,,,,,,,,,,,,,,,,,,,,,,,,,,,,,
,,67ad92d9631677cfaa995e28,2026-03-17_12h43.54.317,kallum_motion_pilot_GIST_update_2,2026.1.1,Win32,59.52380952,67ad92d9631677cfaa995e28,69b92ab4aef6dee357cd729a,69b92f46d80a3b3e4ffc20c5,0.3056,0.3057,1,16,178,77,1,threefour,,,,,,,,,,,,,,,,,,,,,,,,,,,,,,,,,,,,,,,,,,,,,,,,,,,,,,,,,,,,,,,,,,,,,,,,,,,,,,,,,,,,,,,,,,,,,,,,,,,,,,,,,,,,,,,,,,,,,,,,,,,,,,,,,,,,,,,,,
,,67ad92d9631677cfaa995e28,2026-03-17_12h43.54.317,kallum_motion_pilot_GIST_update_2,2026.1.1,Win32,59.52380952,67ad92d9631677cfaa995e28,69b92ab4aef6dee357cd729a,69b92f46d80a3b3e4ffc20c5,0.3068,0.3068,1,17,179,102,1,eightsix,,,,,,,,,,,,,,,,,,,,,,,,,,,,,,,,,,,,,,,,,,,,,,,,,,,,,,,,,,,,,,,,,,,,,,,,,,,,,,,,,,,,,,,,,,,,,,,,,,,,,,,,,,,,,,,,,,,,,,,,,,,,,,,,,,,,,,,,,
,,67ad92d9631677cfaa995e28,2026-03-17_12h43.54.317,kallum_motion_pilot_GIST_update_2,2026.1.1,Win32,59.52380952,67ad92d9631677cfaa995e28,69b92ab4aef6dee357cd729a,69b92f46d80a3b3e4ffc20c5,0.3077,0.3077,1,18,180,155,1,sixeight,,,,,,,,,,,,,,,,,,,,,,,,,,,,,,,,,,,,,,,,,,,,,,,,,,,,,,,,,,,,,,,,,,,,,,,,,,,,,,,,,,,,,,,,,,,,,,,,,,,,,,,,,,,,,,,,,,,,,,,,,,,,,,,,,,,,,,,,,
,,67ad92d9631677cfaa995e28,2026-03-17_12h43.54.317,kallum_motion_pilot_GIST_update_2,2026.1.1,Win32,59.52380952,67ad92d9631677cfaa995e28,69b92ab4aef6dee357cd729a,69b92f46d80a3b3e4ffc20c5,0.3091,0.3091,1,19,181,15,1,fourthree,,,,,,,,,,,,,,,,,,,,,,,,,,,,,,,,,,,,,,,,,,,,,,,,,,,,,,,,,,,,,,,,,,,,,,,,,,,,,,,,,,,,,,,,,,,,,,,,,,,,,,,,,,,,,,,,,,,,,,,,,,,,,,,,,,,,,,,,,
,,67ad92d9631677cfaa995e28,2026-03-17_12h43.54.317,kallum_motion_pilot_GIST_update_2,2026.1.1,Win32,59.52380952,67ad92d9631677cfaa995e28,69b92ab4aef6dee357cd729a,69b92f46d80a3b3e4ffc20c5,0.31,0.3102,1,20,182,101,1,seveneight,,,,,,,,,,,,,,,,,,,,,,,,,,,,,,,,,,,,,,,,,,,,,,,,,,,,,,,,,,,,,,,,,,,,,,,,,,,,,,,,,,,,,,,,,,,,,,,,,,,,,,,,,,,,,,,,,,,,,,,,,,,,,,,,,,,,,,,,,
,,67ad92d9631677cfaa995e28,2026-03-17_12h43.54.317,kallum_motion_pilot_GIST_update_2,2026.1.1,Win32,59.52380952,67ad92d9631677cfaa995e28,69b92ab4aef6dee357cd729a,69b92f46d80a3b3e4ffc20c5,0.3111,0.3112,1,21,183,58,1,twoone,,,,,,,,,,,,,,,,,,,,,,,,,,,,,,,,,,,,,,,,,,,,,,,,,,,,,,,,,,,,,,,,,,,,,,,,,,,,,,,,,,,,,,,,,,,,,,,,,,,,,,,,,,,,,,,,,,,,,,,,,,,,,,,,,,,,,,,,,
,,67ad92d9631677cfaa995e28,2026-03-17_12h43.54.317,kallum_motion_pilot_GIST_update_2,2026.1.1,Win32,59.52380952,67ad92d9631677cfaa995e28,69b92ab4aef6dee357cd729a,69b92f46d80a3b3e4ffc20c5,0.3121,0.3122,1,22,184,22,1,fourtwo,,,,,,,,,,,,,,,,,,,,,,,,,,,,,,,,,,,,,,,,,,,,,,,,,,,,,,,,,,,,,,,,,,,,,,,,,,,,,,,,,,,,,,,,,,,,,,,,,,,,,,,,,,,,,,,,,,,,,,,,,,,,,,,,,,,,,,,,,
,,67ad92d9631677cfaa995e28,2026-03-17_12h43.54.317,kallum_motion_pilot_GIST_update_2,2026.1.1,Win32,59.52380952,67ad92d9631677cfaa995e28,69b92ab4aef6dee357cd729a,69b92f46d80a3b3e4ffc20c5,0.3131,0.3133,1,23,185,39,1,fourthree,,,,,,,,,,,,,,,,,,,,,,,,,,,,,,,,,,,,,,,,,,,,,,,,,,,,,,,,,,,,,,,,,,,,,,,,,,,,,,,,,,,,,,,,,,,,,,,,,,,,,,,,,,,,,,,,,,,,,,,,,,,,,,,,,,,,,,,,,
,,67ad92d9631677cfaa995e28,2026-03-17_12h43.54.317,kallum_motion_pilot_GIST_update_2,2026.1.1,Win32,59.52380952,67ad92d9631677cfaa995e28,69b92ab4aef6dee357cd729a,69b92f46d80a3b3e4ffc20c5,0.3149,0.3149,1,24,186,86,1,eightsix,,,,,,,,,,,,,,,,,,,,,,,,,,,,,,,,,,,,,,,,,,,,,,,,,,,,,,,,,,,,,,,,,,,,,,,,,,,,,,,,,,,,,,,,,,,,,,,,,,,,,,,,,,,,,,,,,,,,,,,,,,,,,,,,,,,,,,,,,
,,67ad92d9631677cfaa995e28,2026-03-17_12h43.54.317,kallum_motion_pilot_GIST_update_2,2026.1.1,Win32,59.52380952,67ad92d9631677cfaa995e28,69b92ab4aef6dee357cd729a,69b92f46d80a3b3e4ffc20c5,0.3159,0.316,1,25,187,12,1,threeone,,,,,,,,,,,,,,,,,,,,,,,,,,,,,,,,,,,,,,,,,,,,,,,,,,,,,,,,,,,,,,,,,,,,,,,,,,,,,,,,,,,,,,,,,,,,,,,,,,,,,,,,,,,,,,,,,,,,,,,,,,,,,,,,,,,,,,,,,
,,67ad92d9631677cfaa995e28,2026-03-17_12h43.54.317,kallum_motion_pilot_GIST_update_2,2026.1.1,Win32,59.52380952,67ad92d9631677cfaa995e28,69b92ab4aef6dee357cd729a,69b92f46d80a3b3e4ffc20c5,0.3172,0.3172,1,26,188,85,1,seveneight,,,,,,,,,,,,,,,,,,,,,,,,,,,,,,,,,,,,,,,,,,,,,,,,,,,,,,,,,,,,,,,,,,,,,,,,,,,,,,,,,,,,,,,,,,,,,,,,,,,,,,,,,,,,,,,,,,,,,,,,,,,,,,,,,,,,,,,,,
,,67ad92d9631677cfaa995e28,2026-03-17_12h43.54.317,kallum_motion_pilot_GIST_update_2,2026.1.1,Win32,59.52380952,67ad92d9631677cfaa995e28,69b92ab4aef6dee357cd729a,69b92f46d80a3b3e4ffc20c5,0.3181,0.3182,1,27,189,99,1,sixeight,,,,,,,,,,,,,,,,,,,,,,,,,,,,,,,,,,,,,,,,,,,,,,,,,,,,,,,,,,,,,,,,,,,,,,,,,,,,,,,,,,,,,,,,,,,,,,,,,,,,,,,,,,,,,,,,,,,,,,,,,,,,,,,,,,,,,,,,,
,,67ad92d9631677cfaa995e28,2026-03-17_12h43.54.317,kallum_motion_pilot_GIST_update_2,2026.1.1,Win32,59.52380952,67ad92d9631677cfaa995e28,69b92ab4aef6dee357cd729a,69b92f46d80a3b3e4ffc20c5,0.3196,0.3196,1,28,190,21,1,threefour,,,,,,,,,,,,,,,,,,,,,,,,,,,,,,,,,,,,,,,,,,,,,,,,,,,,,,,,,,,,,,,,,,,,,,,,,,,,,,,,,,,,,,,,,,,,,,,,,,,,,,,,,,,,,,,,,,,,,,,,,,,,,,,,,,,,,,,,,
,,67ad92d9631677cfaa995e28,2026-03-17_12h43.54.317,kallum_motion_pilot_GIST_update_2,2026.1.1,Win32,59.52380952,67ad92d9631677cfaa995e28,69b92ab4aef6dee357cd729a,69b92f46d80a3b3e4ffc20c5,0.3219,0.322,1,29,191,95,1,eightseven,,,,,,,,,,,,,,,,,,,,,,,,,,,,,,,,,,,,,,,,,,,,,,,,,,,,,,,,,,,,,,,,,,,,,,,,,,,,,,,,,,,,,,,,,,,,,,,,,,,,,,,,,,,,,,,,,,,,,,,,,,,,,,,,,,,,,,,,,
,,67ad92d9631677cfaa995e28,2026-03-17_12h43.54.317,kallum_motion_pilot_GIST_update_2,2026.1.1,Win32,59.52380952,67ad92d9631677cfaa995e28,69b92ab4aef6dee357cd729a,69b92f46d80a3b3e4ffc20c5,0.323,0.3231,1,30,192,120,1,fivesix,,,,,,,,,,,,,,,,,,,,,,,,,,,,,,,,,,,,,,,,,,,,,,,,,,,,,,,,,,,,,,,,,,,,,,,,,,,,,,,,,,,,,,,,,,,,,,,,,,,,,,,,,,,,,,,,,,,,,,,,,,,,,,,,,,,,,,,,,
,,67ad92d9631677cfaa995e28,2026-03-17_12h43.54.317,kallum_motion_pilot_GIST_update_2,2026.1.1,Win32,59.52380952,67ad92d9631677cfaa995e28,69b92ab4aef6dee357cd729a,69b92f46d80a3b3e4ffc20c5,0.324,0.3242,1,31,193,89,1,fiveseven,,,,,,,,,,,,,,,,,,,,,,,,,,,,,,,,,,,,,,,,,,,,,,,,,,,,,,,,,,,,,,,,,,,,,,,,,,,,,,,,,,,,,,,,,,,,,,,,,,,,,,,,,,,,,,,,,,,,,,,,,,,,,,,,,,,,,,,,,
,,67ad92d9631677cfaa995e28,2026-03-17_12h43.54.317,kallum_motion_pilot_GIST_update_2,2026.1.1,Win32,59.52380952,67ad92d9631677cfaa995e28,69b92ab4aef6dee357cd729a,69b92f46d80a3b3e4ffc20c5,0.325,0.3252,1,32,194,2,1,twoone,,,,,,,,,,,,,,,,,,,,,,,,,,,,,,,,,,,,,,,,,,,,,,,,,,,,,,,,,,,,,,,,,,,,,,,,,,,,,,,,,,,,,,,,,,,,,,,,,,,,,,,,,,,,,,,,,,,,,,,,,,,,,,,,,,,,,,,,,
,,67ad92d9631677cfaa995e28,2026-03-17_12h43.54.317,kallum_motion_pilot_GIST_update_2,2026.1.1,Win32,59.52380952,67ad92d9631677cfaa995e28,69b92ab4aef6dee357cd729a,69b92f46d80a3b3e4ffc20c5,0.326,0.3261,1,33,195,156,1,sevenfive,,,,,,,,,,,,,,,,,,,,,,,,,,,,,,,,,,,,,,,,,,,,,,,,,,,,,,,,,,,,,,,,,,,,,,,,,,,,,,,,,,,,,,,,,,,,,,,,,,,,,,,,,,,,,,,,,,,,,,,,,,,,,,,,,,,,,,,,,
,,67ad92d9631677cfaa995e28,2026-03-17_12h43.54.317,kallum_motion_pilot_GIST_update_2,2026.1.1,Win32,59.52380952,67ad92d9631677cfaa995e28,69b92ab4aef6dee357cd729a,69b92f46d80a3b3e4ffc20c5,0.327,0.327,1,34,196,62,1,fourtwo,,,,,,,,,,,,,,,,,,,,,,,,,,,,,,,,,,,,,,,,,,,,,,,,,,,,,,,,,,,,,,,,,,,,,,,,,,,,,,,,,,,,,,,,,,,,,,,,,,,,,,,,,,,,,,,,,,,,,,,,,,,,,,,,,,,,,,,,,
,,67ad92d9631677cfaa995e28,2026-03-17_12h43.54.317,kallum_motion_pilot_GIST_update_2,2026.1.1,Win32,59.52380952,67ad92d9631677cfaa995e28,69b92ab4aef6dee357cd729a,69b92f46d80a3b3e4ffc20c5,0.3278,0.3279,1,35,197,97,1,fiveseven,,,,,,,,,,,,,,,,,,,,,,,,,,,,,,,,,,,,,,,,,,,,,,,,,,,,,,,,,,,,,,,,,,,,,,,,,,,,,,,,,,,,,,,,,,,,,,,,,,,,,,,,,,,,,,,,,,,,,,,,,,,,,,,,,,,,,,,,,
,,67ad92d9631677cfaa995e28,2026-03-17_12h43.54.317,kallum_motion_pilot_GIST_update_2,2026.1.1,Win32,59.52380952,67ad92d9631677cfaa995e28,69b92ab4aef6dee357cd729a,69b92f46d80a3b3e4ffc20c5,0.3286,0.3291,1,36,198,158,1,eightsix,,,,,,,,,,,,,,,,,,,,,,,,,,,,,,,,,,,,,,,,,,,,,,,,,,,,,,,,,,,,,,,,,,,,,,,,,,,,,,,,,,,,,,,,,,,,,,,,,,,,,,,,,,,,,,,,,,,,,,,,,,,,,,,,,,,,,,,,,
,,67ad92d9631677cfaa995e28,2026-03-17_12h43.54.317,kallum_motion_pilot_GIST_update_2,2026.1.1,Win32,59.52380952,67ad92d9631677cfaa995e28,69b92ab4aef6dee357cd729a,69b92f46d80a3b3e4ffc20c5,0.3301,0.3302,1,37,199,41,1,onethree,,,,,,,,,,,,,,,,,,,,,,,,,,,,,,,,,,,,,,,,,,,,,,,,,,,,,,,,,,,,,,,,,,,,,,,,,,,,,,,,,,,,,,,,,,,,,,,,,,,,,,,,,,,,,,,,,,,,,,,,,,,,,,,,,,,,,,,,,
,,67ad92d9631677cfaa995e28,2026-03-17_12h43.54.317,kallum_motion_pilot_GIST_update_2,2026.1.1,Win32,59.52380952,67ad92d9631677cfaa995e28,69b92ab4aef6dee357cd729a,69b92f46d80a3b3e4ffc20c5,0.3314,0.3315,1,38,200,49,1,onethree,,,,,,,,,,,,,,,,,,,,,,,,,,,,,,,,,,,,,,,,,,,,,,,,,,,,,,,,,,,,,,,,,,,,,,,,,,,,,,,,,,,,,,,,,,,,,,,,,,,,,,,,,,,,,,,,,,,,,,,,,,,,,,,,,,,,,,,,,
,,67ad92d9631677cfaa995e28,2026-03-17_12h43.54.317,kallum_motion_pilot_GIST_update_2,2026.1.1,Win32,59.52380952,67ad92d9631677cfaa995e28,69b92ab4aef6dee357cd729a,69b92f46d80a3b3e4ffc20c5,0.3324,0.3325,1,39,201,160,1,fivesix,,,,,,,,,,,,,,,,,,,,,,,,,,,,,,,,,,,,,,,,,,,,,,,,,,,,,,,,,,,,,,,,,,,,,,,,,,,,,,,,,,,,,,,,,,,,,,,,,,,,,,,,,,,,,,,,,,,,,,,,,,,,,,,,,,,,,,,,,
,,67ad92d9631677cfaa995e28,2026-03-17_12h43.54.317,kallum_motion_pilot_GIST_update_2,2026.1.1,Win32,59.52380952,67ad92d9631677cfaa995e28,69b92ab4aef6dee357cd729a,69b92f46d80a3b3e4ffc20c5,0.3332,0.3334,1,40,202,152,1,fivesix,,,,,,,,,,,,,,,,,,,,,,,,,,,,,,,,,,,,,,,,,,,,,,,,,,,,,,,,,,,,,,,,,,,,,,,,,,,,,,,,,,,,,,,,,,,,,,,,,,,,,,,,,,,,,,,,,,,,,,,,,,,,,,,,,,,,,,,,,
,,67ad92d9631677cfaa995e28,2026-03-17_12h43.54.317,kallum_motion_pilot_GIST_update_2,2026.1.1,Win32,59.52380952,67ad92d9631677cfaa995e28,69b92ab4aef6dee357cd729a,69b92f46d80a3b3e4ffc20c5,0.3344,0.3345,1,41,203,139,1,sixeight,,,,,,,,,,,,,,,,,,,,,,,,,,,,,,,,,,,,,,,,,,,,,,,,,,,,,,,,,,,,,,,,,,,,,,,,,,,,,,,,,,,,,,,,,,,,,,,,,,,,,,,,,,,,,,,,,,,,,,,,,,,,,,,,,,,,,,,,,
,,67ad92d9631677cfaa995e28,2026-03-17_12h43.54.317,kallum_motion_pilot_GIST_update_2,2026.1.1,Win32,59.52380952,67ad92d9631677cfaa995e28,69b92ab4aef6dee357cd729a,69b92f46d80a3b3e4ffc20c5,0.3357,0.3357,1,42,204,1,1,onethree,,,,,,,,,,,,,,,,,,,,,,,,,,,,,,,,,,,,,,,,,,,,,,,,,,,,,,,,,,,,,,,,,,,,,,,,,,,,,,,,,,,,,,,,,,,,,,,,,,,,,,,,,,,,,,,,,,,,,,,,,,,,,,,,,,,,,,,,,
,,67ad92d9631677cfaa995e28,2026-03-17_12h43.54.317,kallum_motion_pilot_GIST_update_2,2026.1.1,Win32,59.52380952,67ad92d9631677cfaa995e28,69b92ab4aef6dee357cd729a,69b92f46d80a3b3e4ffc20c5,0.3374,0.3376,1,43,205,110,1,eightsix,,,,,,,,,,,,,,,,,,,,,,,,,,,,,,,,,,,,,,,,,,,,,,,,,,,,,,,,,,,,,,,,,,,,,,,,,,,,,,,,,,,,,,,,,,,,,,,,,,,,,,,,,,,,,,,,,,,,,,,,,,,,,,,,,,,,,,,,,
,,67ad92d9631677cfaa995e28,2026-03-17_12h43.54.317,kallum_motion_pilot_GIST_update_2,2026.1.1,Win32,59.52380952,67ad92d9631677cfaa995e28,69b92ab4aef6dee357cd729a,69b92f46d80a3b3e4ffc20c5,0.3385,0.3385,1,44,206,37,1,threefour,,,,,,,,,,,,,,,,,,,,,,,,,,,,,,,,,,,,,,,,,,,,,,,,,,,,,,,,,,,,,,,,,,,,,,,,,,,,,,,,,,,,,,,,,,,,,,,,,,,,,,,,,,,,,,,,,,,,,,,,,,,,,,,,,,,,,,,,,
,,67ad92d9631677cfaa995e28,2026-03-17_12h43.54.317,kallum_motion_pilot_GIST_update_2,2026.1.1,Win32,59.52380952,67ad92d9631677cfaa995e28,69b92ab4aef6dee357cd729a,69b92f46d80a3b3e4ffc20c5,0.3396,0.3397,1,45,207,84,1,sevenfive,,,,,,,,,,,,,,,,,,,,,,,,,,,,,,,,,,,,,,,,,,,,,,,,,,,,,,,,,,,,,,,,,,,,,,,,,,,,,,,,,,,,,,,,,,,,,,,,,,,,,,,,,,,,,,,,,,,,,,,,,,,,,,,,,,,,,,,,,
,,67ad92d9631677cfaa995e28,2026-03-17_12h43.54.317,kallum_motion_pilot_GIST_update_2,2026.1.1,Win32,59.52380952,67ad92d9631677cfaa995e28,69b92ab4aef6dee357cd729a,69b92f46d80a3b3e4ffc20c5,0.3406,0.3406,1,46,208,122,1,sixfive,,,,,,,,,,,,,,,,,,,,,,,,,,,,,,,,,,,,,,,,,,,,,,,,,,,,,,,,,,,,,,,,,,,,,,,,,,,,,,,,,,,,,,,,,,,,,,,,,,,,,,,,,,,,,,,,,,,,,,,,,,,,,,,,,,,,,,,,,
,,67ad92d9631677cfaa995e28,2026-03-17_12h43.54.317,kallum_motion_pilot_GIST_update_2,2026.1.1,Win32,59.52380952,67ad92d9631677cfaa995e28,69b92ab4aef6dee357cd729a,69b92f46d80a3b3e4ffc20c5,0.3414,0.3414,1,47,209,80,1,fivesix,,,,,,,,,,,,,,,,,,,,,,,,,,,,,,,,,,,,,,,,,,,,,,,,,,,,,,,,,,,,,,,,,,,,,,,,,,,,,,,,,,,,,,,,,,,,,,,,,,,,,,,,,,,,,,,,,,,,,,,,,,,,,,,,,,,,,,,,,
,,67ad92d9631677cfaa995e28,2026-03-17_12h43.54.317,kallum_motion_pilot_GIST_update_2,2026.1.1,Win32,59.52380952,67ad92d9631677cfaa995e28,69b92ab4aef6dee357cd729a,69b92f46d80a3b3e4ffc20c5,0.3423,0.3423,1,48,210,9,1,onethree,,,,,,,,,,,,,,,,,,,,,,,,,,,,,,,,,,,,,,,,,,,,,,,,,,,,,,,,,,,,,,,,,,,,,,,,,,,,,,,,,,,,,,,,,,,,,,,,,,,,,,,,,,,,,,,,,,,,,,,,,,,,,,,,,,,,,,,,,
,,67ad92d9631677cfaa995e28,2026-03-17_12h43.54.317,kallum_motion_pilot_GIST_update_2,2026.1.1,Win32,59.52380952,67ad92d9631677cfaa995e28,69b92ab4aef6dee357cd729a,69b92f46d80a3b3e4ffc20c5,0.3432,0.3433,1,49,211,6,1,fourtwo,,,,,,,,,,,,,,,,,,,,,,,,,,,,,,,,,,,,,,,,,,,,,,,,,,,,,,,,,,,,,,,,,,,,,,,,,,,,,,,,,,,,,,,,,,,,,,,,,,,,,,,,,,,,,,,,,,,,,,,,,,,,,,,,,,,,,,,,,
,,67ad92d9631677cfaa995e28,2026-03-17_12h43.54.317,kallum_motion_pilot_GIST_update_2,2026.1.1,Win32,59.52380952,67ad92d9631677cfaa995e28,69b92ab4aef6dee357cd729a,69b92f46d80a3b3e4ffc20c5,0.3441,0.3441,1,50,212,69,1,threefour,,,,,,,,,,,,,,,,,,,,,,,,,,,,,,,,,,,,,,,,,,,,,,,,,,,,,,,,,,,,,,,,,,,,,,,,,,,,,,,,,,,,,,,,,,,,,,,,,,,,,,,,,,,,,,,,,,,,,,,,,,,,,,,,,,,,,,,,,
,,67ad92d9631677cfaa995e28,2026-03-17_12h43.54.317,kallum_motion_pilot_GIST_update_2,2026.1.1,Win32,59.52380952,67ad92d9631677cfaa995e28,69b92ab4aef6dee357cd729a,69b92f46d80a3b3e4ffc20c5,0.345,0.345,1,51,213,3,1,twofour,,,,,,,,,,,,,,,,,,,,,,,,,,,,,,,,,,,,,,,,,,,,,,,,,,,,,,,,,,,,,,,,,,,,,,,,,,,,,,,,,,,,,,,,,,,,,,,,,,,,,,,,,,,,,,,,,,,,,,,,,,,,,,,,,,,,,,,,,
,,67ad92d9631677cfaa995e28,2026-03-17_12h43.54.317,kallum_motion_pilot_GIST_update_2,2026.1.1,Win32,59.52380952,67ad92d9631677cfaa995e28,69b92ab4aef6dee357cd729a,69b92f46d80a3b3e4ffc20c5,0.3458,0.346,1,52,214,143,1,eightseven,,,,,,,,,,,,,,,,,,,,,,,,,,,,,,,,,,,,,,,,,,,,,,,,,,,,,,,,,,,,,,,,,,,,,,,,,,,,,,,,,,,,,,,,,,,,,,,,,,,,,,,,,,,,,,,,,,,,,,,,,,,,,,,,,,,,,,,,,
,,67ad92d9631677cfaa995e28,2026-03-17_12h43.54.317,kallum_motion_pilot_GIST_update_2,2026.1.1,Win32,59.52380952,67ad92d9631677cfaa995e28,69b92ab4aef6dee357cd729a,69b92f46d80a3b3e4ffc20c5,0.3477,0.3479,1,53,215,19,1,twofour,,,,,,,,,,,,,,,,,,,,,,,,,,,,,,,,,,,,,,,,,,,,,,,,,,,,,,,,,,,,,,,,,,,,,,,,,,,,,,,,,,,,,,,,,,,,,,,,,,,,,,,,,,,,,,,,,,,,,,,,,,,,,,,,,,,,,,,,,
,,67ad92d9631677cfaa995e28,2026-03-17_12h43.54.317,kallum_motion_pilot_GIST_update_2,2026.1.1,Win32,59.52380952,67ad92d9631677cfaa995e28,69b92ab4aef6dee357cd729a,69b92f46d80a3b3e4ffc20c5,0.3489,0.349,1,54,216,0,1,onetwo,,,,,,,,,,,,,,,,,,,,,,,,,,,,,,,,,,,,,,,,,,,,,,,,,,,,,,,,,,,,,,,,,,,,,,,,,,,,,,,,,,,,,,,,,,,,,,,,,,,,,,,,,,,,,,,,,,,,,,,,,,,,,,,,,,,,,,,,,
,,67ad92d9631677cfaa995e28,2026-03-17_12h43.54.317,kallum_motion_pilot_GIST_update_2,2026.1.1,Win32,59.52380952,67ad92d9631677cfaa995e28,69b92ab4aef6dee357cd729a,69b92f46d80a3b3e4ffc20c5,0.3501,0.3501,1,55,217,147,1,sixeight,,,,,,,,,,,,,,,,,,,,,,,,,,,,,,,,,,,,,,,,,,,,,,,,,,,,,,,,,,,,,,,,,,,,,,,,,,,,,,,,,,,,,,,,,,,,,,,,,,,,,,,,,,,,,,,,,,,,,,,,,,,,,,,,,,,,,,,,,
,,67ad92d9631677cfaa995e28,2026-03-17_12h43.54.317,kallum_motion_pilot_GIST_update_2,2026.1.1,Win32,59.52380952,67ad92d9631677cfaa995e28,69b92ab4aef6dee357cd729a,69b92f46d80a3b3e4ffc20c5,0.3513,0.3513,1,56,218,45,1,threefour,,,,,,,,,,,,,,,,,,,,,,,,,,,,,,,,,,,,,,,,,,,,,,,,,,,,,,,,,,,,,,,,,,,,,,,,,,,,,,,,,,,,,,,,,,,,,,,,,,,,,,,,,,,,,,,,,,,,,,,,,,,,,,,,,,,,,,,,,
,,67ad92d9631677cfaa995e28,2026-03-17_12h43.54.317,kallum_motion_pilot_GIST_update_2,2026.1.1,Win32,59.52380952,67ad92d9631677cfaa995e28,69b92ab4aef6dee357cd729a,69b92f46d80a3b3e4ffc20c5,0.3522,0.3523,1,57,219,35,1,twofour,,,,,,,,,,,,,,,,,,,,,,,,,,,,,,,,,,,,,,,,,,,,,,,,,,,,,,,,,,,,,,,,,,,,,,,,,,,,,,,,,,,,,,,,,,,,,,,,,,,,,,,,,,,,,,,,,,,,,,,,,,,,,,,,,,,,,,,,,
,,67ad92d9631677cfaa995e28,2026-03-17_12h43.54.317,kallum_motion_pilot_GIST_update_2,2026.1.1,Win32,59.52380952,67ad92d9631677cfaa995e28,69b92ab4aef6dee357cd729a,69b92f46d80a3b3e4ffc20c5,0.3531,0.3532,1,58,220,73,1,onethree,,,,,,,,,,,,,,,,,,,,,,,,,,,,,,,,,,,,,,,,,,,,,,,,,,,,,,,,,,,,,,,,,,,,,,,,,,,,,,,,,,,,,,,,,,,,,,,,,,,,,,,,,,,,,,,,,,,,,,,,,,,,,,,,,,,,,,,,,
,,67ad92d9631677cfaa995e28,2026-03-17_12h43.54.317,kallum_motion_pilot_GIST_update_2,2026.1.1,Win32,59.52380952,67ad92d9631677cfaa995e28,69b92ab4aef6dee357cd729a,69b92f46d80a3b3e4ffc20c5,0.354,0.354,1,59,221,135,1,eightseven,,,,,,,,,,,,,,,,,,,,,,,,,,,,,,,,,,,,,,,,,,,,,,,,,,,,,,,,,,,,,,,,,,,,,,,,,,,,,,,,,,,,,,,,,,,,,,,,,,,,,,,,,,,,,,,,,,,,,,,,,,,,,,,,,,,,,,,,,
,,67ad92d9631677cfaa995e28,2026-03-17_12h43.54.317,kallum_motion_pilot_GIST_update_2,2026.1.1,Win32,59.52380952,67ad92d9631677cfaa995e28,69b92ab4aef6dee357cd729a,69b92f46d80a3b3e4ffc20c5,0.3548,0.3548,1,60,222,94,1,eightsix,,,,,,,,,,,,,,,,,,,,,,,,,,,,,,,,,,,,,,,,,,,,,,,,,,,,,,,,,,,,,,,,,,,,,,,,,,,,,,,,,,,,,,,,,,,,,,,,,,,,,,,,,,,,,,,,,,,,,,,,,,,,,,,,,,,,,,,,,
,,67ad92d9631677cfaa995e28,2026-03-17_12h43.54.317,kallum_motion_pilot_GIST_update_2,2026.1.1,Win32,59.52380952,67ad92d9631677cfaa995e28,69b92ab4aef6dee357cd729a,69b92f46d80a3b3e4ffc20c5,0.3557,0.3558,1,61,223,23,1,fourthree,,,,,,,,,,,,,,,,,,,,,,,,,,,,,,,,,,,,,,,,,,,,,,,,,,,,,,,,,,,,,,,,,,,,,,,,,,,,,,,,,,,,,,,,,,,,,,,,,,,,,,,,,,,,,,,,,,,,,,,,,,,,,,,,,,,,,,,,,
,,67ad92d9631677cfaa995e28,2026-03-17_12h43.54.317,kallum_motion_pilot_GIST_update_2,2026.1.1,Win32,59.52380952,67ad92d9631677cfaa995e28,69b92ab4aef6dee357cd729a,69b92f46d80a3b3e4ffc20c5,0.3572,0.3577,1,62,224,5,1,threefour,,,,,,,,,,,,,,,,,,,,,,,,,,,,,,,,,,,,,,,,,,,,,,,,,,,,,,,,,,,,,,,,,,,,,,,,,,,,,,,,,,,,,,,,,,,,,,,,,,,,,,,,,,,,,,,,,,,,,,,,,,,,,,,,,,,,,,,,,
,,67ad92d9631677cfaa995e28,2026-03-17_12h43.54.317,kallum_motion_pilot_GIST_update_2,2026.1.1,Win32,59.52380952,67ad92d9631677cfaa995e28,69b92ab4aef6dee357cd729a,69b92f46d80a3b3e4ffc20c5,0.3594,0.3595,1,63,225,161,1,fiveseven,,,,,,,,,,,,,,,,,,,,,,,,,,,,,,,,,,,,,,,,,,,,,,,,,,,,,,,,,,,,,,,,,,,,,,,,,,,,,,,,,,,,,,,,,,,,,,,,,,,,,,,,,,,,,,,,,,,,,,,,,,,,,,,,,,,,,,,,,
,,67ad92d9631677cfaa995e28,2026-03-17_12h43.54.317,kallum_motion_pilot_GIST_update_2,2026.1.1,Win32,59.52380952,67ad92d9631677cfaa995e28,69b92ab4aef6dee357cd729a,69b92f46d80a3b3e4ffc20c5,0.361,0.361,1,64,226,151,1,eightseven,,,,,,,,,,,,,,,,,,,,,,,,,,,,,,,,,,,,,,,,,,,,,,,,,,,,,,,,,,,,,,,,,,,,,,,,,,,,,,,,,,,,,,,,,,,,,,,,,,,,,,,,,,,,,,,,,,,,,,,,,,,,,,,,,,,,,,,,,
,,67ad92d9631677cfaa995e28,2026-03-17_12h43.54.317,kallum_motion_pilot_GIST_update_2,2026.1.1,Win32,59.52380952,67ad92d9631677cfaa995e28,69b92ab4aef6dee357cd729a,69b92f46d80a3b3e4ffc20c5,0.3626,0.3626,1,65,227,114,1,sixfive,,,,,,,,,,,,,,,,,,,,,,,,,,,,,,,,,,,,,,,,,,,,,,,,,,,,,,,,,,,,,,,,,,,,,,,,,,,,,,,,,,,,,,,,,,,,,,,,,,,,,,,,,,,,,,,,,,,,,,,,,,,,,,,,,,,,,,,,,
,,67ad92d9631677cfaa995e28,2026-03-17_12h43.54.317,kallum_motion_pilot_GIST_update_2,2026.1.1,Win32,59.52380952,67ad92d9631677cfaa995e28,69b92ab4aef6dee357cd729a,69b92f46d80a3b3e4ffc20c5,0.3656,0.3656,1,66,228,29,1,threefour,,,,,,,,,,,,,,,,,,,,,,,,,,,,,,,,,,,,,,,,,,,,,,,,,,,,,,,,,,,,,,,,,,,,,,,,,,,,,,,,,,,,,,,,,,,,,,,,,,,,,,,,,,,,,,,,,,,,,,,,,,,,,,,,,,,,,,,,,
,,67ad92d9631677cfaa995e28,2026-03-17_12h43.54.317,kallum_motion_pilot_GIST_update_2,2026.1.1,Win32,59.52380952,67ad92d9631677cfaa995e28,69b92ab4aef6dee357cd729a,69b92f46d80a3b3e4ffc20c5,0.3682,0.3682,1,67,229,71,1,fourthree,,,,,,,,,,,,,,,,,,,,,,,,,,,,,,,,,,,,,,,,,,,,,,,,,,,,,,,,,,,,,,,,,,,,,,,,,,,,,,,,,,,,,,,,,,,,,,,,,,,,,,,,,,,,,,,,,,,,,,,,,,,,,,,,,,,,,,,,,
,,67ad92d9631677cfaa995e28,2026-03-17_12h43.54.317,kallum_motion_pilot_GIST_update_2,2026.1.1,Win32,59.52380952,67ad92d9631677cfaa995e28,69b92ab4aef6dee357cd729a,69b92f46d80a3b3e4ffc20c5,0.3697,0.3698,1,68,230,61,1,threefour,,,,,,,,,,,,,,,,,,,,,,,,,,,,,,,,,,,,,,,,,,,,,,,,,,,,,,,,,,,,,,,,,,,,,,,,,,,,,,,,,,,,,,,,,,,,,,,,,,,,,,,,,,,,,,,,,,,,,,,,,,,,,,,,,,,,,,,,,
,,67ad92d9631677cfaa995e28,2026-03-17_12h43.54.317,kallum_motion_pilot_GIST_update_2,2026.1.1,Win32,59.52380952,67ad92d9631677cfaa995e28,69b92ab4aef6dee357cd729a,69b92f46d80a3b3e4ffc20c5,0.3713,0.3713,1,69,231,138,1,sixfive,,,,,,,,,,,,,,,,,,,,,,,,,,,,,,,,,,,,,,,,,,,,,,,,,,,,,,,,,,,,,,,,,,,,,,,,,,,,,,,,,,,,,,,,,,,,,,,,,,,,,,,,,,,,,,,,,,,,,,,,,,,,,,,,,,,,,,,,,
,,67ad92d9631677cfaa995e28,2026-03-17_12h43.54.317,kallum_motion_pilot_GIST_update_2,2026.1.1,Win32,59.52380952,67ad92d9631677cfaa995e28,69b92ab4aef6dee357cd729a,69b92f46d80a3b3e4ffc20c5,0.3728,0.3729,1,70,232,44,1,threeone,,,,,,,,,,,,,,,,,,,,,,,,,,,,,,,,,,,,,,,,,,,,,,,,,,,,,,,,,,,,,,,,,,,,,,,,,,,,,,,,,,,,,,,,,,,,,,,,,,,,,,,,,,,,,,,,,,,,,,,,,,,,,,,,,,,,,,,,,
,,67ad92d9631677cfaa995e28,2026-03-17_12h43.54.317,kallum_motion_pilot_GIST_update_2,2026.1.1,Win32,59.52380952,67ad92d9631677cfaa995e28,69b92ab4aef6dee357cd729a,69b92f46d80a3b3e4ffc20c5,0.3745,0.3745,1,71,233,47,1,fourthree,,,,,,,,,,,,,,,,,,,,,,,,,,,,,,,,,,,,,,,,,,,,,,,,,,,,,,,,,,,,,,,,,,,,,,,,,,,,,,,,,,,,,,,,,,,,,,,,,,,,,,,,,,,,,,,,,,,,,,,,,,,,,,,,,,,,,,,,,
,,67ad92d9631677cfaa995e28,2026-03-17_12h43.54.317,kallum_motion_pilot_GIST_update_2,2026.1.1,Win32,59.52380952,67ad92d9631677cfaa995e28,69b92ab4aef6dee357cd729a,69b92f46d80a3b3e4ffc20c5,0.3761,0.3761,1,72,234,111,1,eightseven,,,,,,,,,,,,,,,,,,,,,,,,,,,,,,,,,,,,,,,,,,,,,,,,,,,,,,,,,,,,,,,,,,,,,,,,,,,,,,,,,,,,,,,,,,,,,,,,,,,,,,,,,,,,,,,,,,,,,,,,,,,,,,,,,,,,,,,,,
,,67ad92d9631677cfaa995e28,2026-03-17_12h43.54.317,kallum_motion_pilot_GIST_update_2,2026.1.1,Win32,59.52380952,67ad92d9631677cfaa995e28,69b92ab4aef6dee357cd729a,69b92f46d80a3b3e4ffc20c5,0.3776,0.3777,1,73,235,144,1,fivesix,,,,,,,,,,,,,,,,,,,,,,,,,,,,,,,,,,,,,,,,,,,,,,,,,,,,,,,,,,,,,,,,,,,,,,,,,,,,,,,,,,,,,,,,,,,,,,,,,,,,,,,,,,,,,,,,,,,,,,,,,,,,,,,,,,,,,,,,,
,,67ad92d9631677cfaa995e28,2026-03-17_12h43.54.317,kallum_motion_pilot_GIST_update_2,2026.1.1,Win32,59.52380952,67ad92d9631677cfaa995e28,69b92ab4aef6dee357cd729a,69b92f46d80a3b3e4ffc20c5,0.3787,0.3787,1,74,236,57,1,onethree,,,,,,,,,,,,,,,,,,,,,,,,,,,,,,,,,,,,,,,,,,,,,,,,,,,,,,,,,,,,,,,,,,,,,,,,,,,,,,,,,,,,,,,,,,,,,,,,,,,,,,,,,,,,,,,,,,,,,,,,,,,,,,,,,,,,,,,,,
,,67ad92d9631677cfaa995e28,2026-03-17_12h43.54.317,kallum_motion_pilot_GIST_update_2,2026.1.1,Win32,59.52380952,67ad92d9631677cfaa995e28,69b92ab4aef6dee357cd729a,69b92f46d80a3b3e4ffc20c5,0.3795,0.3797,1,75,237,105,1,fiveseven,,,,,,,,,,,,,,,,,,,,,,,,,,,,,,,,,,,,,,,,,,,,,,,,,,,,,,,,,,,,,,,,,,,,,,,,,,,,,,,,,,,,,,,,,,,,,,,,,,,,,,,,,,,,,,,,,,,,,,,,,,,,,,,,,,,,,,,,,
,,67ad92d9631677cfaa995e28,2026-03-17_12h43.54.317,kallum_motion_pilot_GIST_update_2,2026.1.1,Win32,59.52380952,67ad92d9631677cfaa995e28,69b92ab4aef6dee357cd729a,69b92f46d80a3b3e4ffc20c5,0.3816,0.3816,1,76,238,150,1,eightsix,,,,,,,,,,,,,,,,,,,,,,,,,,,,,,,,,,,,,,,,,,,,,,,,,,,,,,,,,,,,,,,,,,,,,,,,,,,,,,,,,,,,,,,,,,,,,,,,,,,,,,,,,,,,,,,,,,,,,,,,,,,,,,,,,,,,,,,,,
,,67ad92d9631677cfaa995e28,2026-03-17_12h43.54.317,kallum_motion_pilot_GIST_update_2,2026.1.1,Win32,59.52380952,67ad92d9631677cfaa995e28,69b92ab4aef6dee357cd729a,69b92f46d80a3b3e4ffc20c5,0.3828,0.3828,1,77,239,129,1,fiveseven,,,,,,,,,,,,,,,,,,,,,,,,,,,,,,,,,,,,,,,,,,,,,,,,,,,,,,,,,,,,,,,,,,,,,,,,,,,,,,,,,,,,,,,,,,,,,,,,,,,,,,,,,,,,,,,,,,,,,,,,,,,,,,,,,,,,,,,,,
,,67ad92d9631677cfaa995e28,2026-03-17_12h43.54.317,kallum_motion_pilot_GIST_update_2,2026.1.1,Win32,59.52380952,67ad92d9631677cfaa995e28,69b92ab4aef6dee357cd729a,69b92f46d80a3b3e4ffc20c5,0.3836,0.3837,1,78,240,50,1,twoone,,,,,,,,,,,,,,,,,,,,,,,,,,,,,,,,,,,,,,,,,,,,,,,,,,,,,,,,,,,,,,,,,,,,,,,,,,,,,,,,,,,,,,,,,,,,,,,,,,,,,,,,,,,,,,,,,,,,,,,,,,,,,,,,,,,,,,,,,
,,67ad92d9631677cfaa995e28,2026-03-17_12h43.54.317,kallum_motion_pilot_GIST_update_2,2026.1.1,Win32,59.52380952,67ad92d9631677cfaa995e28,69b92ab4aef6dee357cd729a,69b92f46d80a3b3e4ffc20c5,0.3846,0.3846,1,79,241,78,1,fourtwo,,,,,,,,,,,,,,,,,,,,,,,,,,,,,,,,,,,,,,,,,,,,,,,,,,,,,,,,,,,,,,,,,,,,,,,,,,,,,,,,,,,,,,,,,,,,,,,,,,,,,,,,,,,,,,,,,,,,,,,,,,,,,,,,,,,,,,,,,
,,67ad92d9631677cfaa995e28,2026-03-17_12h43.54.317,kallum_motion_pilot_GIST_update_2,2026.1.1,Win32,59.52380952,67ad92d9631677cfaa995e28,69b92ab4aef6dee357cd729a,69b92f46d80a3b3e4ffc20c5,0.3857,0.3858,1,80,242,127,1,eightseven,,,,,,,,,,,,,,,,,,,,,,,,,,,,,,,,,,,,,,,,,,,,,,,,,,,,,,,,,,,,,,,,,,,,,,,,,,,,,,,,,,,,,,,,,,,,,,,,,,,,,,,,,,,,,,,,,,,,,,,,,,,,,,,,,,,,,,,,,
,,67ad92d9631677cfaa995e28,2026-03-17_12h43.54.317,kallum_motion_pilot_GIST_update_2,2026.1.1,Win32,59.52380952,67ad92d9631677cfaa995e28,69b92ab4aef6dee357cd729a,69b92f46d80a3b3e4ffc20c5,0.3871,0.3872,1,81,243,56,1,onetwo,,,,,,,,,,,,,,,,,,,,,,,,,,,,,,,,,,,,,,,,,,,,,,,,,,,,,,,,,,,,,,,,,,,,,,,,,,,,,,,,,,,,,,,,,,,,,,,,,,,,,,,,,,,,,,,,,,,,,,,,,,,,,,,,,,,,,,,,,
,,67ad92d9631677cfaa995e28,2026-03-17_12h43.54.317,kallum_motion_pilot_GIST_update_2,2026.1.1,Win32,59.52380952,67ad92d9631677cfaa995e28,69b92ab4aef6dee357cd729a,69b92f46d80a3b3e4ffc20c5,0.3881,0.3882,1,82,244,133,1,seveneight,,,,,,,,,,,,,,,,,,,,,,,,,,,,,,,,,,,,,,,,,,,,,,,,,,,,,,,,,,,,,,,,,,,,,,,,,,,,,,,,,,,,,,,,,,,,,,,,,,,,,,,,,,,,,,,,,,,,,,,,,,,,,,,,,,,,,,,,,
,,67ad92d9631677cfaa995e28,2026-03-17_12h43.54.317,kallum_motion_pilot_GIST_update_2,2026.1.1,Win32,59.52380952,67ad92d9631677cfaa995e28,69b92ab4aef6dee357cd729a,69b92f46d80a3b3e4ffc20c5,0.389,0.3891,1,83,245,146,1,sixfive,,,,,,,,,,,,,,,,,,,,,,,,,,,,,,,,,,,,,,,,,,,,,,,,,,,,,,,,,,,,,,,,,,,,,,,,,,,,,,,,,,,,,,,,,,,,,,,,,,,,,,,,,,,,,,,,,,,,,,,,,,,,,,,,,,,,,,,,,
,,67ad92d9631677cfaa995e28,2026-03-17_12h43.54.317,kallum_motion_pilot_GIST_update_2,2026.1.1,Win32,59.52380952,67ad92d9631677cfaa995e28,69b92ab4aef6dee357cd729a,69b92f46d80a3b3e4ffc20c5,0.3899,0.39,1,84,246,92,1,sevenfive,,,,,,,,,,,,,,,,,,,,,,,,,,,,,,,,,,,,,,,,,,,,,,,,,,,,,,,,,,,,,,,,,,,,,,,,,,,,,,,,,,,,,,,,,,,,,,,,,,,,,,,,,,,,,,,,,,,,,,,,,,,,,,,,,,,,,,,,,
,,67ad92d9631677cfaa995e28,2026-03-17_12h43.54.317,kallum_motion_pilot_GIST_update_2,2026.1.1,Win32,59.52380952,67ad92d9631677cfaa995e28,69b92ab4aef6dee357cd729a,69b92f46d80a3b3e4ffc20c5,0.3909,0.3909,1,85,247,28,1,threeone,,,,,,,,,,,,,,,,,,,,,,,,,,,,,,,,,,,,,,,,,,,,,,,,,,,,,,,,,,,,,,,,,,,,,,,,,,,,,,,,,,,,,,,,,,,,,,,,,,,,,,,,,,,,,,,,,,,,,,,,,,,,,,,,,,,,,,,,,
,,67ad92d9631677cfaa995e28,2026-03-17_12h43.54.317,kallum_motion_pilot_GIST_update_2,2026.1.1,Win32,59.52380952,67ad92d9631677cfaa995e28,69b92ab4aef6dee357cd729a,69b92f46d80a3b3e4ffc20c5,0.3917,0.3917,1,86,248,132,1,sevenfive,,,,,,,,,,,,,,,,,,,,,,,,,,,,,,,,,,,,,,,,,,,,,,,,,,,,,,,,,,,,,,,,,,,,,,,,,,,,,,,,,,,,,,,,,,,,,,,,,,,,,,,,,,,,,,,,,,,,,,,,,,,,,,,,,,,,,,,,,
,,67ad92d9631677cfaa995e28,2026-03-17_12h43.54.317,kallum_motion_pilot_GIST_update_2,2026.1.1,Win32,59.52380952,67ad92d9631677cfaa995e28,69b92ab4aef6dee357cd729a,69b92f46d80a3b3e4ffc20c5,0.3925,0.3926,1,87,249,81,1,fiveseven,,,,,,,,,,,,,,,,,,,,,,,,,,,,,,,,,,,,,,,,,,,,,,,,,,,,,,,,,,,,,,,,,,,,,,,,,,,,,,,,,,,,,,,,,,,,,,,,,,,,,,,,,,,,,,,,,,,,,,,,,,,,,,,,,,,,,,,,,
,,67ad92d9631677cfaa995e28,2026-03-17_12h43.54.317,kallum_motion_pilot_GIST_update_2,2026.1.1,Win32,59.52380952,67ad92d9631677cfaa995e28,69b92ab4aef6dee357cd729a,69b92f46d80a3b3e4ffc20c5,0.3934,0.3934,1,88,250,26,1,twoone,,,,,,,,,,,,,,,,,,,,,,,,,,,,,,,,,,,,,,,,,,,,,,,,,,,,,,,,,,,,,,,,,,,,,,,,,,,,,,,,,,,,,,,,,,,,,,,,,,,,,,,,,,,,,,,,,,,,,,,,,,,,,,,,,,,,,,,,,
,,67ad92d9631677cfaa995e28,2026-03-17_12h43.54.317,kallum_motion_pilot_GIST_update_2,2026.1.1,Win32,59.52380952,67ad92d9631677cfaa995e28,69b92ab4aef6dee357cd729a,69b92f46d80a3b3e4ffc20c5,0.3943,0.3944,1,89,251,43,1,twofour,,,,,,,,,,,,,,,,,,,,,,,,,,,,,,,,,,,,,,,,,,,,,,,,,,,,,,,,,,,,,,,,,,,,,,,,,,,,,,,,,,,,,,,,,,,,,,,,,,,,,,,,,,,,,,,,,,,,,,,,,,,,,,,,,,,,,,,,,
,,67ad92d9631677cfaa995e28,2026-03-17_12h43.54.317,kallum_motion_pilot_GIST_update_2,2026.1.1,Win32,59.52380952,67ad92d9631677cfaa995e28,69b92ab4aef6dee357cd729a,69b92f46d80a3b3e4ffc20c5,0.3952,0.3952,1,90,252,124,1,sevenfive,,,,,,,,,,,,,,,,,,,,,,,,,,,,,,,,,,,,,,,,,,,,,,,,,,,,,,,,,,,,,,,,,,,,,,,,,,,,,,,,,,,,,,,,,,,,,,,,,,,,,,,,,,,,,,,,,,,,,,,,,,,,,,,,,,,,,,,,,
,,67ad92d9631677cfaa995e28,2026-03-17_12h43.54.317,kallum_motion_pilot_GIST_update_2,2026.1.1,Win32,59.52380952,67ad92d9631677cfaa995e28,69b92ab4aef6dee357cd729a,69b92f46d80a3b3e4ffc20c5,0.3964,0.3973,1,91,253,74,1,twoone,,,,,,,,,,,,,,,,,,,,,,,,,,,,,,,,,,,,,,,,,,,,,,,,,,,,,,,,,,,,,,,,,,,,,,,,,,,,,,,,,,,,,,,,,,,,,,,,,,,,,,,,,,,,,,,,,,,,,,,,,,,,,,,,,,,,,,,,,
,,67ad92d9631677cfaa995e28,2026-03-17_12h43.54.317,kallum_motion_pilot_GIST_update_2,2026.1.1,Win32,59.52380952,67ad92d9631677cfaa995e28,69b92ab4aef6dee357cd729a,69b92f46d80a3b3e4ffc20c5,0.3985,0.3985,1,92,254,18,1,twoone,,,,,,,,,,,,,,,,,,,,,,,,,,,,,,,,,,,,,,,,,,,,,,,,,,,,,,,,,,,,,,,,,,,,,,,,,,,,,,,,,,,,,,,,,,,,,,,,,,,,,,,,,,,,,,,,,,,,,,,,,,,,,,,,,,,,,,,,,
,,67ad92d9631677cfaa995e28,2026-03-17_12h43.54.317,kallum_motion_pilot_GIST_update_2,2026.1.1,Win32,59.52380952,67ad92d9631677cfaa995e28,69b92ab4aef6dee357cd729a,69b92f46d80a3b3e4ffc20c5,0.3995,0.3995,1,93,255,27,1,twofour,,,,,,,,,,,,,,,,,,,,,,,,,,,,,,,,,,,,,,,,,,,,,,,,,,,,,,,,,,,,,,,,,,,,,,,,,,,,,,,,,,,,,,,,,,,,,,,,,,,,,,,,,,,,,,,,,,,,,,,,,,,,,,,,,,,,,,,,,
,,67ad92d9631677cfaa995e28,2026-03-17_12h43.54.317,kallum_motion_pilot_GIST_update_2,2026.1.1,Win32,59.52380952,67ad92d9631677cfaa995e28,69b92ab4aef6dee357cd729a,69b92f46d80a3b3e4ffc20c5,0.4011,0.4012,1,94,256,126,1,eightsix,,,,,,,,,,,,,,,,,,,,,,,,,,,,,,,,,,,,,,,,,,,,,,,,,,,,,,,,,,,,,,,,,,,,,,,,,,,,,,,,,,,,,,,,,,,,,,,,,,,,,,,,,,,,,,,,,,,,,,,,,,,,,,,,,,,,,,,,,
,,67ad92d9631677cfaa995e28,2026-03-17_12h43.54.317,kallum_motion_pilot_GIST_update_2,2026.1.1,Win32,59.52380952,67ad92d9631677cfaa995e28,69b92ab4aef6dee357cd729a,69b92f46d80a3b3e4ffc20c5,0.4021,0.4021,1,95,257,125,1,seveneight,,,,,,,,,,,,,,,,,,,,,,,,,,,,,,,,,,,,,,,,,,,,,,,,,,,,,,,,,,,,,,,,,,,,,,,,,,,,,,,,,,,,,,,,,,,,,,,,,,,,,,,,,,,,,,,,,,,,,,,,,,,,,,,,,,,,,,,,,
,,67ad92d9631677cfaa995e28,2026-03-17_12h43.54.317,kallum_motion_pilot_GIST_update_2,2026.1.1,Win32,59.52380952,67ad92d9631677cfaa995e28,69b92ab4aef6dee357cd729a,69b92f46d80a3b3e4ffc20c5,0.4029,0.4029,1,96,258,134,1,eightsix,,,,,,,,,,,,,,,,,,,,,,,,,,,,,,,,,,,,,,,,,,,,,,,,,,,,,,,,,,,,,,,,,,,,,,,,,,,,,,,,,,,,,,,,,,,,,,,,,,,,,,,,,,,,,,,,,,,,,,,,,,,,,,,,,,,,,,,,,
,,67ad92d9631677cfaa995e28,2026-03-17_12h43.54.317,kallum_motion_pilot_GIST_update_2,2026.1.1,Win32,59.52380952,67ad92d9631677cfaa995e28,69b92ab4aef6dee357cd729a,69b92f46d80a3b3e4ffc20c5,0.4038,0.4038,1,97,259,131,1,sixeight,,,,,,,,,,,,,,,,,,,,,,,,,,,,,,,,,,,,,,,,,,,,,,,,,,,,,,,,,,,,,,,,,,,,,,,,,,,,,,,,,,,,,,,,,,,,,,,,,,,,,,,,,,,,,,,,,,,,,,,,,,,,,,,,,,,,,,,,,
,,67ad92d9631677cfaa995e28,2026-03-17_12h43.54.317,kallum_motion_pilot_GIST_update_2,2026.1.1,Win32,59.52380952,67ad92d9631677cfaa995e28,69b92ab4aef6dee357cd729a,69b92f46d80a3b3e4ffc20c5,0.4046,0.4047,1,98,260,31,1,fourthree,,,,,,,,,,,,,,,,,,,,,,,,,,,,,,,,,,,,,,,,,,,,,,,,,,,,,,,,,,,,,,,,,,,,,,,,,,,,,,,,,,,,,,,,,,,,,,,,,,,,,,,,,,,,,,,,,,,,,,,,,,,,,,,,,,,,,,,,,
,,67ad92d9631677cfaa995e28,2026-03-17_12h43.54.317,kallum_motion_pilot_GIST_update_2,2026.1.1,Win32,59.52380952,67ad92d9631677cfaa995e28,69b92ab4aef6dee357cd729a,69b92f46d80a3b3e4ffc20c5,0.4056,0.4056,1,99,261,16,1,onetwo,,,,,,,,,,,,,,,,,,,,,,,,,,,,,,,,,,,,,,,,,,,,,,,,,,,,,,,,,,,,,,,,,,,,,,,,,,,,,,,,,,,,,,,,,,,,,,,,,,,,,,,,,,,,,,,,,,,,,,,,,,,,,,,,,,,,,,,,,
,,67ad92d9631677cfaa995e28,2026-03-17_12h43.54.317,kallum_motion_pilot_GIST_update_2,2026.1.1,Win32,59.52380952,67ad92d9631677cfaa995e28,69b92ab4aef6dee357cd729a,69b92f46d80a3b3e4ffc20c5,0.407,0.4071,1,100,262,48,1,onetwo,,,,,,,,,,,,,,,,,,,,,,,,,,,,,,,,,,,,,,,,,,,,,,,,,,,,,,,,,,,,,,,,,,,,,,,,,,,,,,,,,,,,,,,,,,,,,,,,,,,,,,,,,,,,,,,,,,,,,,,,,,,,,,,,,,,,,,,,,
,,67ad92d9631677cfaa995e28,2026-03-17_12h43.54.317,kallum_motion_pilot_GIST_update_2,2026.1.1,Win32,59.52380952,67ad92d9631677cfaa995e28,69b92ab4aef6dee357cd729a,69b92f46d80a3b3e4ffc20c5,0.4082,0.4083,1,101,263,13,1,threefour,,,,,,,,,,,,,,,,,,,,,,,,,,,,,,,,,,,,,,,,,,,,,,,,,,,,,,,,,,,,,,,,,,,,,,,,,,,,,,,,,,,,,,,,,,,,,,,,,,,,,,,,,,,,,,,,,,,,,,,,,,,,,,,,,,,,,,,,,
,,67ad92d9631677cfaa995e28,2026-03-17_12h43.54.317,kallum_motion_pilot_GIST_update_2,2026.1.1,Win32,59.52380952,67ad92d9631677cfaa995e28,69b92ab4aef6dee357cd729a,69b92f46d80a3b3e4ffc20c5,0.4104,0.4104,1,102,264,113,1,fiveseven,,,,,,,,,,,,,,,,,,,,,,,,,,,,,,,,,,,,,,,,,,,,,,,,,,,,,,,,,,,,,,,,,,,,,,,,,,,,,,,,,,,,,,,,,,,,,,,,,,,,,,,,,,,,,,,,,,,,,,,,,,,,,,,,,,,,,,,,,
,,67ad92d9631677cfaa995e28,2026-03-17_12h43.54.317,kallum_motion_pilot_GIST_update_2,2026.1.1,Win32,59.52380952,67ad92d9631677cfaa995e28,69b92ab4aef6dee357cd729a,69b92f46d80a3b3e4ffc20c5,0.4116,0.4116,1,103,265,141,1,seveneight,,,,,,,,,,,,,,,,,,,,,,,,,,,,,,,,,,,,,,,,,,,,,,,,,,,,,,,,,,,,,,,,,,,,,,,,,,,,,,,,,,,,,,,,,,,,,,,,,,,,,,,,,,,,,,,,,,,,,,,,,,,,,,,,,,,,,,,,,
,,67ad92d9631677cfaa995e28,2026-03-17_12h43.54.317,kallum_motion_pilot_GIST_update_2,2026.1.1,Win32,59.52380952,67ad92d9631677cfaa995e28,69b92ab4aef6dee357cd729a,69b92f46d80a3b3e4ffc20c5,0.4125,0.4125,1,104,266,33,1,onethree,,,,,,,,,,,,,,,,,,,,,,,,,,,,,,,,,,,,,,,,,,,,,,,,,,,,,,,,,,,,,,,,,,,,,,,,,,,,,,,,,,,,,,,,,,,,,,,,,,,,,,,,,,,,,,,,,,,,,,,,,,,,,,,,,,,,,,,,,
