startup.started,startup.stopped,Prolific ID*,date,expName,psychopyVersion,OS,frameRate,participant,study_id,session,stimpositions.started,stimpositions.stopped,hardcoded_stimulus_positions.thisRepN,hardcoded_stimulus_positions.thisTrialN,hardcoded_stimulus_positions.thisN,hardcoded_stimulus_positions.thisIndex,hardcoded_stimulus_positions.ran,StimulusPos,stimorientation.started,stimorientation.stopped,prac_stimorientation_import_loop.thisRepN,prac_stimorientation_import_loop.thisTrialN,prac_stimorientation_import_loop.thisN,prac_stimorientation_import_loop.thisIndex,prac_stimorientation_import_loop.ran,Stimorientation,welcome_instr.started,welcome_instr.stopped,key_resp.keys,key_resp.rt,key_resp.duration,response_steppedout_1.started,response_steppedout_1.stopped,key_resp_20.keys,key_resp_20.rt,key_resp_20.duration,response_steppedout_2.started,response_steppedout_2.stopped,key_resp_19.keys,key_resp_19.rt,key_resp_19.duration,stim_response_instr.started,stim_response_instr.stopped,key_resp_15.keys,key_resp_15.rt,key_resp_15.duration,direction_instr_2.started,direction_instr_2.stopped,key_resp_9.keys,key_resp_9.rt,key_resp_9.duration,instr_prac.started,instr_prac.stopped,key_resp_10.keys,key_resp_10.rt,key_resp_10.duration,Stim1_display_prac.started,Stim1_display_prac.stopped,Ecc,Circle1_ori,Circle2_ori,response_prac.started,similarity,response_time,response_prac.stopped,mouse_5.x,mouse_5.y,mouse_5.leftButton,mouse_5.midButton,mouse_5.rightButton,mouse_5.clicked_name,responseprac_feedback.started,responseprac_feedback.stopped,summary2_prac.started,summary2_prac.stopped,mouse_6.x,mouse_6.y,mouse_6.leftButton,mouse_6.midButton,mouse_6.rightButton,mouse_6.clicked_name,duringprac.thisRepN,duringprac.thisTrialN,duringprac.thisN,duringprac.thisIndex,duringprac.ran,begin.started,begin.stopped,key_resp_22.keys,key_resp_22.rt,key_resp_22.duration,Stim1_display.started,Stim1_display.stopped,circle1_ori,circle2_ori,circle1_SF,circle2_SF,response.started,response.stopped,mouse.x,mouse.y,mouse.leftButton,mouse.midButton,mouse.rightButton,mouse.clicked_name,trialnumber,double_pass.thisRepN,double_pass.thisTrialN,double_pass.thisN,double_pass.thisIndex,double_pass.ran,double_pass.order,main_trial.thisRepN,main_trial.thisTrialN,main_trial.thisN,main_trial.thisIndex,main_trial.ran,main_trial.order,Trial_Counter,Catch,Frequencies,response_2.started,response_2.stopped,mouse_2.x,mouse_2.y,mouse_2.leftButton,mouse_2.midButton,mouse_2.rightButton,mouse_2.clicked_name,special_trial.started,special_trial.stopped,catch_1.started,catch_1.stopped,mouse_3.x,mouse_3.y,mouse_3.leftButton,mouse_3.midButton,mouse_3.rightButton,catchresponse,catchnumber,response_time_catch,response_sum.started,response_sum.stopped,mouse_11.x,mouse_11.y,mouse_11.leftButton,mouse_11.midButton,mouse_11.rightButton,flip_presentation_sequence_for_double_pass.started,flip_presentation_sequence_for_double_pass.stopped,goodbye.started,goodbye.stopped,key_resp_3.keys,key_resp_3.rt,key_resp_3.duration
0.0007,0.001,67c045fa5074c5500ca40e76,2026-03-17_16h31.39.524,kallum_motion_pilot_GIST_update_2,2026.1.1,Win32,15.01501502,67c045fa5074c5500ca40e76,69b95efdef24cd8a694e89ee,69b9611c14ed213777b39c82,,,,,,,,,,,,,,,,,,,,,,,,,,,,,,,,,,,,,,,,,,,,,,,,,,,,,,,,,,,,,,,,,,,,,,,,,,,,,,,,,,,,,,,,,,,,,,,,,,,,,,,,,,,,,,,,,,,,,,,,,,,,,,,,,,,,,,,,,,,,,,,,,
,,67c045fa5074c5500ca40e76,2026-03-17_16h31.39.524,kallum_motion_pilot_GIST_update_2,2026.1.1,Win32,15.01501502,67c045fa5074c5500ca40e76,69b95efdef24cd8a694e89ee,69b9611c14ed213777b39c82,0.2447,0.2451,0,0,0,0,1,onetwo,,,,,,,,,,,,,,,,,,,,,,,,,,,,,,,,,,,,,,,,,,,,,,,,,,,,,,,,,,,,,,,,,,,,,,,,,,,,,,,,,,,,,,,,,,,,,,,,,,,,,,,,,,,,,,,,,,,,,,,,,,,,,,,,,,,,,,,,,
,,67c045fa5074c5500ca40e76,2026-03-17_16h31.39.524,kallum_motion_pilot_GIST_update_2,2026.1.1,Win32,15.01501502,67c045fa5074c5500ca40e76,69b95efdef24cd8a694e89ee,69b9611c14ed213777b39c82,0.2462,0.2462,0,1,1,27,1,twofour,,,,,,,,,,,,,,,,,,,,,,,,,,,,,,,,,,,,,,,,,,,,,,,,,,,,,,,,,,,,,,,,,,,,,,,,,,,,,,,,,,,,,,,,,,,,,,,,,,,,,,,,,,,,,,,,,,,,,,,,,,,,,,,,,,,,,,,,,
,,67c045fa5074c5500ca40e76,2026-03-17_16h31.39.524,kallum_motion_pilot_GIST_update_2,2026.1.1,Win32,15.01501502,67c045fa5074c5500ca40e76,69b95efdef24cd8a694e89ee,69b9611c14ed213777b39c82,0.2468,0.2468,0,2,2,47,1,fourthree,,,,,,,,,,,,,,,,,,,,,,,,,,,,,,,,,,,,,,,,,,,,,,,,,,,,,,,,,,,,,,,,,,,,,,,,,,,,,,,,,,,,,,,,,,,,,,,,,,,,,,,,,,,,,,,,,,,,,,,,,,,,,,,,,,,,,,,,,
,,67c045fa5074c5500ca40e76,2026-03-17_16h31.39.524,kallum_motion_pilot_GIST_update_2,2026.1.1,Win32,15.01501502,67c045fa5074c5500ca40e76,69b95efdef24cd8a694e89ee,69b9611c14ed213777b39c82,0.2475,0.2476,0,3,3,139,1,sixeight,,,,,,,,,,,,,,,,,,,,,,,,,,,,,,,,,,,,,,,,,,,,,,,,,,,,,,,,,,,,,,,,,,,,,,,,,,,,,,,,,,,,,,,,,,,,,,,,,,,,,,,,,,,,,,,,,,,,,,,,,,,,,,,,,,,,,,,,,
,,67c045fa5074c5500ca40e76,2026-03-17_16h31.39.524,kallum_motion_pilot_GIST_update_2,2026.1.1,Win32,15.01501502,67c045fa5074c5500ca40e76,69b95efdef24cd8a694e89ee,69b9611c14ed213777b39c82,0.2482,0.2483,0,4,4,82,1,sixfive,,,,,,,,,,,,,,,,,,,,,,,,,,,,,,,,,,,,,,,,,,,,,,,,,,,,,,,,,,,,,,,,,,,,,,,,,,,,,,,,,,,,,,,,,,,,,,,,,,,,,,,,,,,,,,,,,,,,,,,,,,,,,,,,,,,,,,,,,
,,67c045fa5074c5500ca40e76,2026-03-17_16h31.39.524,kallum_motion_pilot_GIST_update_2,2026.1.1,Win32,15.01501502,67c045fa5074c5500ca40e76,69b95efdef24cd8a694e89ee,69b9611c14ed213777b39c82,0.2488,0.2489,0,5,5,15,1,fourthree,,,,,,,,,,,,,,,,,,,,,,,,,,,,,,,,,,,,,,,,,,,,,,,,,,,,,,,,,,,,,,,,,,,,,,,,,,,,,,,,,,,,,,,,,,,,,,,,,,,,,,,,,,,,,,,,,,,,,,,,,,,,,,,,,,,,,,,,,
,,67c045fa5074c5500ca40e76,2026-03-17_16h31.39.524,kallum_motion_pilot_GIST_update_2,2026.1.1,Win32,15.01501502,67c045fa5074c5500ca40e76,69b95efdef24cd8a694e89ee,69b9611c14ed213777b39c82,0.2494,0.2495,0,6,6,106,1,sixfive,,,,,,,,,,,,,,,,,,,,,,,,,,,,,,,,,,,,,,,,,,,,,,,,,,,,,,,,,,,,,,,,,,,,,,,,,,,,,,,,,,,,,,,,,,,,,,,,,,,,,,,,,,,,,,,,,,,,,,,,,,,,,,,,,,,,,,,,,
,,67c045fa5074c5500ca40e76,2026-03-17_16h31.39.524,kallum_motion_pilot_GIST_update_2,2026.1.1,Win32,15.01501502,67c045fa5074c5500ca40e76,69b95efdef24cd8a694e89ee,69b9611c14ed213777b39c82,0.2501,0.2501,0,7,7,53,1,threefour,,,,,,,,,,,,,,,,,,,,,,,,,,,,,,,,,,,,,,,,,,,,,,,,,,,,,,,,,,,,,,,,,,,,,,,,,,,,,,,,,,,,,,,,,,,,,,,,,,,,,,,,,,,,,,,,,,,,,,,,,,,,,,,,,,,,,,,,,
,,67c045fa5074c5500ca40e76,2026-03-17_16h31.39.524,kallum_motion_pilot_GIST_update_2,2026.1.1,Win32,15.01501502,67c045fa5074c5500ca40e76,69b95efdef24cd8a694e89ee,69b9611c14ed213777b39c82,0.2507,0.2508,0,8,8,122,1,sixfive,,,,,,,,,,,,,,,,,,,,,,,,,,,,,,,,,,,,,,,,,,,,,,,,,,,,,,,,,,,,,,,,,,,,,,,,,,,,,,,,,,,,,,,,,,,,,,,,,,,,,,,,,,,,,,,,,,,,,,,,,,,,,,,,,,,,,,,,,
,,67c045fa5074c5500ca40e76,2026-03-17_16h31.39.524,kallum_motion_pilot_GIST_update_2,2026.1.1,Win32,15.01501502,67c045fa5074c5500ca40e76,69b95efdef24cd8a694e89ee,69b9611c14ed213777b39c82,0.2515,0.2516,0,9,9,3,1,twofour,,,,,,,,,,,,,,,,,,,,,,,,,,,,,,,,,,,,,,,,,,,,,,,,,,,,,,,,,,,,,,,,,,,,,,,,,,,,,,,,,,,,,,,,,,,,,,,,,,,,,,,,,,,,,,,,,,,,,,,,,,,,,,,,,,,,,,,,,
,,67c045fa5074c5500ca40e76,2026-03-17_16h31.39.524,kallum_motion_pilot_GIST_update_2,2026.1.1,Win32,15.01501502,67c045fa5074c5500ca40e76,69b95efdef24cd8a694e89ee,69b9611c14ed213777b39c82,0.2521,0.2521,0,10,10,63,1,fourthree,,,,,,,,,,,,,,,,,,,,,,,,,,,,,,,,,,,,,,,,,,,,,,,,,,,,,,,,,,,,,,,,,,,,,,,,,,,,,,,,,,,,,,,,,,,,,,,,,,,,,,,,,,,,,,,,,,,,,,,,,,,,,,,,,,,,,,,,,
,,67c045fa5074c5500ca40e76,2026-03-17_16h31.39.524,kallum_motion_pilot_GIST_update_2,2026.1.1,Win32,15.01501502,67c045fa5074c5500ca40e76,69b95efdef24cd8a694e89ee,69b9611c14ed213777b39c82,0.2535,0.2536,0,11,11,95,1,eightseven,,,,,,,,,,,,,,,,,,,,,,,,,,,,,,,,,,,,,,,,,,,,,,,,,,,,,,,,,,,,,,,,,,,,,,,,,,,,,,,,,,,,,,,,,,,,,,,,,,,,,,,,,,,,,,,,,,,,,,,,,,,,,,,,,,,,,,,,,
,,67c045fa5074c5500ca40e76,2026-03-17_16h31.39.524,kallum_motion_pilot_GIST_update_2,2026.1.1,Win32,15.01501502,67c045fa5074c5500ca40e76,69b95efdef24cd8a694e89ee,69b9611c14ed213777b39c82,0.254,0.254,0,12,12,60,1,threeone,,,,,,,,,,,,,,,,,,,,,,,,,,,,,,,,,,,,,,,,,,,,,,,,,,,,,,,,,,,,,,,,,,,,,,,,,,,,,,,,,,,,,,,,,,,,,,,,,,,,,,,,,,,,,,,,,,,,,,,,,,,,,,,,,,,,,,,,,
,,67c045fa5074c5500ca40e76,2026-03-17_16h31.39.524,kallum_motion_pilot_GIST_update_2,2026.1.1,Win32,15.01501502,67c045fa5074c5500ca40e76,69b95efdef24cd8a694e89ee,69b9611c14ed213777b39c82,0.2544,0.2544,0,13,13,42,1,twoone,,,,,,,,,,,,,,,,,,,,,,,,,,,,,,,,,,,,,,,,,,,,,,,,,,,,,,,,,,,,,,,,,,,,,,,,,,,,,,,,,,,,,,,,,,,,,,,,,,,,,,,,,,,,,,,,,,,,,,,,,,,,,,,,,,,,,,,,,
,,67c045fa5074c5500ca40e76,2026-03-17_16h31.39.524,kallum_motion_pilot_GIST_update_2,2026.1.1,Win32,15.01501502,67c045fa5074c5500ca40e76,69b95efdef24cd8a694e89ee,69b9611c14ed213777b39c82,0.2548,0.2548,0,14,14,127,1,eightseven,,,,,,,,,,,,,,,,,,,,,,,,,,,,,,,,,,,,,,,,,,,,,,,,,,,,,,,,,,,,,,,,,,,,,,,,,,,,,,,,,,,,,,,,,,,,,,,,,,,,,,,,,,,,,,,,,,,,,,,,,,,,,,,,,,,,,,,,,
,,67c045fa5074c5500ca40e76,2026-03-17_16h31.39.524,kallum_motion_pilot_GIST_update_2,2026.1.1,Win32,15.01501502,67c045fa5074c5500ca40e76,69b95efdef24cd8a694e89ee,69b9611c14ed213777b39c82,0.2551,0.2552,0,15,15,52,1,threeone,,,,,,,,,,,,,,,,,,,,,,,,,,,,,,,,,,,,,,,,,,,,,,,,,,,,,,,,,,,,,,,,,,,,,,,,,,,,,,,,,,,,,,,,,,,,,,,,,,,,,,,,,,,,,,,,,,,,,,,,,,,,,,,,,,,,,,,,,
,,67c045fa5074c5500ca40e76,2026-03-17_16h31.39.524,kallum_motion_pilot_GIST_update_2,2026.1.1,Win32,15.01501502,67c045fa5074c5500ca40e76,69b95efdef24cd8a694e89ee,69b9611c14ed213777b39c82,0.2556,0.2557,0,16,16,109,1,seveneight,,,,,,,,,,,,,,,,,,,,,,,,,,,,,,,,,,,,,,,,,,,,,,,,,,,,,,,,,,,,,,,,,,,,,,,,,,,,,,,,,,,,,,,,,,,,,,,,,,,,,,,,,,,,,,,,,,,,,,,,,,,,,,,,,,,,,,,,,
,,67c045fa5074c5500ca40e76,2026-03-17_16h31.39.524,kallum_motion_pilot_GIST_update_2,2026.1.1,Win32,15.01501502,67c045fa5074c5500ca40e76,69b95efdef24cd8a694e89ee,69b9611c14ed213777b39c82,0.2563,0.2563,0,17,17,35,1,twofour,,,,,,,,,,,,,,,,,,,,,,,,,,,,,,,,,,,,,,,,,,,,,,,,,,,,,,,,,,,,,,,,,,,,,,,,,,,,,,,,,,,,,,,,,,,,,,,,,,,,,,,,,,,,,,,,,,,,,,,,,,,,,,,,,,,,,,,,,
,,67c045fa5074c5500ca40e76,2026-03-17_16h31.39.524,kallum_motion_pilot_GIST_update_2,2026.1.1,Win32,15.01501502,67c045fa5074c5500ca40e76,69b95efdef24cd8a694e89ee,69b9611c14ed213777b39c82,0.2568,0.2572,0,18,18,119,1,eightseven,,,,,,,,,,,,,,,,,,,,,,,,,,,,,,,,,,,,,,,,,,,,,,,,,,,,,,,,,,,,,,,,,,,,,,,,,,,,,,,,,,,,,,,,,,,,,,,,,,,,,,,,,,,,,,,,,,,,,,,,,,,,,,,,,,,,,,,,,
,,67c045fa5074c5500ca40e76,2026-03-17_16h31.39.524,kallum_motion_pilot_GIST_update_2,2026.1.1,Win32,15.01501502,67c045fa5074c5500ca40e76,69b95efdef24cd8a694e89ee,69b9611c14ed213777b39c82,0.2576,0.2577,0,19,19,133,1,seveneight,,,,,,,,,,,,,,,,,,,,,,,,,,,,,,,,,,,,,,,,,,,,,,,,,,,,,,,,,,,,,,,,,,,,,,,,,,,,,,,,,,,,,,,,,,,,,,,,,,,,,,,,,,,,,,,,,,,,,,,,,,,,,,,,,,,,,,,,,
,,67c045fa5074c5500ca40e76,2026-03-17_16h31.39.524,kallum_motion_pilot_GIST_update_2,2026.1.1,Win32,15.01501502,67c045fa5074c5500ca40e76,69b95efdef24cd8a694e89ee,69b9611c14ed213777b39c82,0.2582,0.2582,0,20,20,1,1,onethree,,,,,,,,,,,,,,,,,,,,,,,,,,,,,,,,,,,,,,,,,,,,,,,,,,,,,,,,,,,,,,,,,,,,,,,,,,,,,,,,,,,,,,,,,,,,,,,,,,,,,,,,,,,,,,,,,,,,,,,,,,,,,,,,,,,,,,,,,
,,67c045fa5074c5500ca40e76,2026-03-17_16h31.39.524,kallum_motion_pilot_GIST_update_2,2026.1.1,Win32,15.01501502,67c045fa5074c5500ca40e76,69b95efdef24cd8a694e89ee,69b9611c14ed213777b39c82,0.2587,0.2588,0,21,21,147,1,sixeight,,,,,,,,,,,,,,,,,,,,,,,,,,,,,,,,,,,,,,,,,,,,,,,,,,,,,,,,,,,,,,,,,,,,,,,,,,,,,,,,,,,,,,,,,,,,,,,,,,,,,,,,,,,,,,,,,,,,,,,,,,,,,,,,,,,,,,,,,
,,67c045fa5074c5500ca40e76,2026-03-17_16h31.39.524,kallum_motion_pilot_GIST_update_2,2026.1.1,Win32,15.01501502,67c045fa5074c5500ca40e76,69b95efdef24cd8a694e89ee,69b9611c14ed213777b39c82,0.2592,0.2593,0,22,22,58,1,twoone,,,,,,,,,,,,,,,,,,,,,,,,,,,,,,,,,,,,,,,,,,,,,,,,,,,,,,,,,,,,,,,,,,,,,,,,,,,,,,,,,,,,,,,,,,,,,,,,,,,,,,,,,,,,,,,,,,,,,,,,,,,,,,,,,,,,,,,,,
,,67c045fa5074c5500ca40e76,2026-03-17_16h31.39.524,kallum_motion_pilot_GIST_update_2,2026.1.1,Win32,15.01501502,67c045fa5074c5500ca40e76,69b95efdef24cd8a694e89ee,69b9611c14ed213777b39c82,0.2597,0.2598,0,23,23,121,1,fiveseven,,,,,,,,,,,,,,,,,,,,,,,,,,,,,,,,,,,,,,,,,,,,,,,,,,,,,,,,,,,,,,,,,,,,,,,,,,,,,,,,,,,,,,,,,,,,,,,,,,,,,,,,,,,,,,,,,,,,,,,,,,,,,,,,,,,,,,,,,
,,67c045fa5074c5500ca40e76,2026-03-17_16h31.39.524,kallum_motion_pilot_GIST_update_2,2026.1.1,Win32,15.01501502,67c045fa5074c5500ca40e76,69b95efdef24cd8a694e89ee,69b9611c14ed213777b39c82,0.2604,0.2604,0,24,24,157,1,seveneight,,,,,,,,,,,,,,,,,,,,,,,,,,,,,,,,,,,,,,,,,,,,,,,,,,,,,,,,,,,,,,,,,,,,,,,,,,,,,,,,,,,,,,,,,,,,,,,,,,,,,,,,,,,,,,,,,,,,,,,,,,,,,,,,,,,,,,,,,
,,67c045fa5074c5500ca40e76,2026-03-17_16h31.39.524,kallum_motion_pilot_GIST_update_2,2026.1.1,Win32,15.01501502,67c045fa5074c5500ca40e76,69b95efdef24cd8a694e89ee,69b9611c14ed213777b39c82,0.261,0.261,0,25,25,10,1,twoone,,,,,,,,,,,,,,,,,,,,,,,,,,,,,,,,,,,,,,,,,,,,,,,,,,,,,,,,,,,,,,,,,,,,,,,,,,,,,,,,,,,,,,,,,,,,,,,,,,,,,,,,,,,,,,,,,,,,,,,,,,,,,,,,,,,,,,,,,
,,67c045fa5074c5500ca40e76,2026-03-17_16h31.39.524,kallum_motion_pilot_GIST_update_2,2026.1.1,Win32,15.01501502,67c045fa5074c5500ca40e76,69b95efdef24cd8a694e89ee,69b9611c14ed213777b39c82,0.2616,0.2616,0,26,26,150,1,eightsix,,,,,,,,,,,,,,,,,,,,,,,,,,,,,,,,,,,,,,,,,,,,,,,,,,,,,,,,,,,,,,,,,,,,,,,,,,,,,,,,,,,,,,,,,,,,,,,,,,,,,,,,,,,,,,,,,,,,,,,,,,,,,,,,,,,,,,,,,
,,67c045fa5074c5500ca40e76,2026-03-17_16h31.39.524,kallum_motion_pilot_GIST_update_2,2026.1.1,Win32,15.01501502,67c045fa5074c5500ca40e76,69b95efdef24cd8a694e89ee,69b9611c14ed213777b39c82,0.2622,0.2623,0,27,27,126,1,eightsix,,,,,,,,,,,,,,,,,,,,,,,,,,,,,,,,,,,,,,,,,,,,,,,,,,,,,,,,,,,,,,,,,,,,,,,,,,,,,,,,,,,,,,,,,,,,,,,,,,,,,,,,,,,,,,,,,,,,,,,,,,,,,,,,,,,,,,,,,
,,67c045fa5074c5500ca40e76,2026-03-17_16h31.39.524,kallum_motion_pilot_GIST_update_2,2026.1.1,Win32,15.01501502,67c045fa5074c5500ca40e76,69b95efdef24cd8a694e89ee,69b9611c14ed213777b39c82,0.2627,0.2628,0,28,28,73,1,onethree,,,,,,,,,,,,,,,,,,,,,,,,,,,,,,,,,,,,,,,,,,,,,,,,,,,,,,,,,,,,,,,,,,,,,,,,,,,,,,,,,,,,,,,,,,,,,,,,,,,,,,,,,,,,,,,,,,,,,,,,,,,,,,,,,,,,,,,,,
,,67c045fa5074c5500ca40e76,2026-03-17_16h31.39.524,kallum_motion_pilot_GIST_update_2,2026.1.1,Win32,15.01501502,67c045fa5074c5500ca40e76,69b95efdef24cd8a694e89ee,69b9611c14ed213777b39c82,0.2633,0.2633,0,29,29,24,1,onetwo,,,,,,,,,,,,,,,,,,,,,,,,,,,,,,,,,,,,,,,,,,,,,,,,,,,,,,,,,,,,,,,,,,,,,,,,,,,,,,,,,,,,,,,,,,,,,,,,,,,,,,,,,,,,,,,,,,,,,,,,,,,,,,,,,,,,,,,,,
,,67c045fa5074c5500ca40e76,2026-03-17_16h31.39.524,kallum_motion_pilot_GIST_update_2,2026.1.1,Win32,15.01501502,67c045fa5074c5500ca40e76,69b95efdef24cd8a694e89ee,69b9611c14ed213777b39c82,0.2639,0.264,0,30,30,70,1,fourtwo,,,,,,,,,,,,,,,,,,,,,,,,,,,,,,,,,,,,,,,,,,,,,,,,,,,,,,,,,,,,,,,,,,,,,,,,,,,,,,,,,,,,,,,,,,,,,,,,,,,,,,,,,,,,,,,,,,,,,,,,,,,,,,,,,,,,,,,,,
,,67c045fa5074c5500ca40e76,2026-03-17_16h31.39.524,kallum_motion_pilot_GIST_update_2,2026.1.1,Win32,15.01501502,67c045fa5074c5500ca40e76,69b95efdef24cd8a694e89ee,69b9611c14ed213777b39c82,0.2644,0.2644,0,31,31,102,1,eightsix,,,,,,,,,,,,,,,,,,,,,,,,,,,,,,,,,,,,,,,,,,,,,,,,,,,,,,,,,,,,,,,,,,,,,,,,,,,,,,,,,,,,,,,,,,,,,,,,,,,,,,,,,,,,,,,,,,,,,,,,,,,,,,,,,,,,,,,,,
,,67c045fa5074c5500ca40e76,2026-03-17_16h31.39.524,kallum_motion_pilot_GIST_update_2,2026.1.1,Win32,15.01501502,67c045fa5074c5500ca40e76,69b95efdef24cd8a694e89ee,69b9611c14ed213777b39c82,0.265,0.2651,0,32,32,115,1,sixeight,,,,,,,,,,,,,,,,,,,,,,,,,,,,,,,,,,,,,,,,,,,,,,,,,,,,,,,,,,,,,,,,,,,,,,,,,,,,,,,,,,,,,,,,,,,,,,,,,,,,,,,,,,,,,,,,,,,,,,,,,,,,,,,,,,,,,,,,,
,,67c045fa5074c5500ca40e76,2026-03-17_16h31.39.524,kallum_motion_pilot_GIST_update_2,2026.1.1,Win32,15.01501502,67c045fa5074c5500ca40e76,69b95efdef24cd8a694e89ee,69b9611c14ed213777b39c82,0.2656,0.2657,0,33,33,29,1,threefour,,,,,,,,,,,,,,,,,,,,,,,,,,,,,,,,,,,,,,,,,,,,,,,,,,,,,,,,,,,,,,,,,,,,,,,,,,,,,,,,,,,,,,,,,,,,,,,,,,,,,,,,,,,,,,,,,,,,,,,,,,,,,,,,,,,,,,,,,
,,67c045fa5074c5500ca40e76,2026-03-17_16h31.39.524,kallum_motion_pilot_GIST_update_2,2026.1.1,Win32,15.01501502,67c045fa5074c5500ca40e76,69b95efdef24cd8a694e89ee,69b9611c14ed213777b39c82,0.2663,0.2663,0,34,34,30,1,fourtwo,,,,,,,,,,,,,,,,,,,,,,,,,,,,,,,,,,,,,,,,,,,,,,,,,,,,,,,,,,,,,,,,,,,,,,,,,,,,,,,,,,,,,,,,,,,,,,,,,,,,,,,,,,,,,,,,,,,,,,,,,,,,,,,,,,,,,,,,,
,,67c045fa5074c5500ca40e76,2026-03-17_16h31.39.524,kallum_motion_pilot_GIST_update_2,2026.1.1,Win32,15.01501502,67c045fa5074c5500ca40e76,69b95efdef24cd8a694e89ee,69b9611c14ed213777b39c82,0.2669,0.2669,0,35,35,6,1,fourtwo,,,,,,,,,,,,,,,,,,,,,,,,,,,,,,,,,,,,,,,,,,,,,,,,,,,,,,,,,,,,,,,,,,,,,,,,,,,,,,,,,,,,,,,,,,,,,,,,,,,,,,,,,,,,,,,,,,,,,,,,,,,,,,,,,,,,,,,,,
,,67c045fa5074c5500ca40e76,2026-03-17_16h31.39.524,kallum_motion_pilot_GIST_update_2,2026.1.1,Win32,15.01501502,67c045fa5074c5500ca40e76,69b95efdef24cd8a694e89ee,69b9611c14ed213777b39c82,0.2675,0.2675,0,36,36,104,1,fivesix,,,,,,,,,,,,,,,,,,,,,,,,,,,,,,,,,,,,,,,,,,,,,,,,,,,,,,,,,,,,,,,,,,,,,,,,,,,,,,,,,,,,,,,,,,,,,,,,,,,,,,,,,,,,,,,,,,,,,,,,,,,,,,,,,,,,,,,,,
,,67c045fa5074c5500ca40e76,2026-03-17_16h31.39.524,kallum_motion_pilot_GIST_update_2,2026.1.1,Win32,15.01501502,67c045fa5074c5500ca40e76,69b95efdef24cd8a694e89ee,69b9611c14ed213777b39c82,0.268,0.2681,0,37,37,33,1,onethree,,,,,,,,,,,,,,,,,,,,,,,,,,,,,,,,,,,,,,,,,,,,,,,,,,,,,,,,,,,,,,,,,,,,,,,,,,,,,,,,,,,,,,,,,,,,,,,,,,,,,,,,,,,,,,,,,,,,,,,,,,,,,,,,,,,,,,,,,
,,67c045fa5074c5500ca40e76,2026-03-17_16h31.39.524,kallum_motion_pilot_GIST_update_2,2026.1.1,Win32,15.01501502,67c045fa5074c5500ca40e76,69b95efdef24cd8a694e89ee,69b9611c14ed213777b39c82,0.2686,0.2686,0,38,38,80,1,fivesix,,,,,,,,,,,,,,,,,,,,,,,,,,,,,,,,,,,,,,,,,,,,,,,,,,,,,,,,,,,,,,,,,,,,,,,,,,,,,,,,,,,,,,,,,,,,,,,,,,,,,,,,,,,,,,,,,,,,,,,,,,,,,,,,,,,,,,,,,
,,67c045fa5074c5500ca40e76,2026-03-17_16h31.39.524,kallum_motion_pilot_GIST_update_2,2026.1.1,Win32,15.01501502,67c045fa5074c5500ca40e76,69b95efdef24cd8a694e89ee,69b9611c14ed213777b39c82,0.2692,0.2692,0,39,39,78,1,fourtwo,,,,,,,,,,,,,,,,,,,,,,,,,,,,,,,,,,,,,,,,,,,,,,,,,,,,,,,,,,,,,,,,,,,,,,,,,,,,,,,,,,,,,,,,,,,,,,,,,,,,,,,,,,,,,,,,,,,,,,,,,,,,,,,,,,,,,,,,,
,,67c045fa5074c5500ca40e76,2026-03-17_16h31.39.524,kallum_motion_pilot_GIST_update_2,2026.1.1,Win32,15.01501502,67c045fa5074c5500ca40e76,69b95efdef24cd8a694e89ee,69b9611c14ed213777b39c82,0.2708,0.2708,0,40,40,77,1,threefour,,,,,,,,,,,,,,,,,,,,,,,,,,,,,,,,,,,,,,,,,,,,,,,,,,,,,,,,,,,,,,,,,,,,,,,,,,,,,,,,,,,,,,,,,,,,,,,,,,,,,,,,,,,,,,,,,,,,,,,,,,,,,,,,,,,,,,,,,
,,67c045fa5074c5500ca40e76,2026-03-17_16h31.39.524,kallum_motion_pilot_GIST_update_2,2026.1.1,Win32,15.01501502,67c045fa5074c5500ca40e76,69b95efdef24cd8a694e89ee,69b9611c14ed213777b39c82,0.2713,0.2714,0,41,41,32,1,onetwo,,,,,,,,,,,,,,,,,,,,,,,,,,,,,,,,,,,,,,,,,,,,,,,,,,,,,,,,,,,,,,,,,,,,,,,,,,,,,,,,,,,,,,,,,,,,,,,,,,,,,,,,,,,,,,,,,,,,,,,,,,,,,,,,,,,,,,,,,
,,67c045fa5074c5500ca40e76,2026-03-17_16h31.39.524,kallum_motion_pilot_GIST_update_2,2026.1.1,Win32,15.01501502,67c045fa5074c5500ca40e76,69b95efdef24cd8a694e89ee,69b9611c14ed213777b39c82,0.2719,0.2719,0,42,42,83,1,sixeight,,,,,,,,,,,,,,,,,,,,,,,,,,,,,,,,,,,,,,,,,,,,,,,,,,,,,,,,,,,,,,,,,,,,,,,,,,,,,,,,,,,,,,,,,,,,,,,,,,,,,,,,,,,,,,,,,,,,,,,,,,,,,,,,,,,,,,,,,
,,67c045fa5074c5500ca40e76,2026-03-17_16h31.39.524,kallum_motion_pilot_GIST_update_2,2026.1.1,Win32,15.01501502,67c045fa5074c5500ca40e76,69b95efdef24cd8a694e89ee,69b9611c14ed213777b39c82,0.2725,0.2726,0,43,43,72,1,onetwo,,,,,,,,,,,,,,,,,,,,,,,,,,,,,,,,,,,,,,,,,,,,,,,,,,,,,,,,,,,,,,,,,,,,,,,,,,,,,,,,,,,,,,,,,,,,,,,,,,,,,,,,,,,,,,,,,,,,,,,,,,,,,,,,,,,,,,,,,
,,67c045fa5074c5500ca40e76,2026-03-17_16h31.39.524,kallum_motion_pilot_GIST_update_2,2026.1.1,Win32,15.01501502,67c045fa5074c5500ca40e76,69b95efdef24cd8a694e89ee,69b9611c14ed213777b39c82,0.2732,0.2733,0,44,44,113,1,fiveseven,,,,,,,,,,,,,,,,,,,,,,,,,,,,,,,,,,,,,,,,,,,,,,,,,,,,,,,,,,,,,,,,,,,,,,,,,,,,,,,,,,,,,,,,,,,,,,,,,,,,,,,,,,,,,,,,,,,,,,,,,,,,,,,,,,,,,,,,,
,,67c045fa5074c5500ca40e76,2026-03-17_16h31.39.524,kallum_motion_pilot_GIST_update_2,2026.1.1,Win32,15.01501502,67c045fa5074c5500ca40e76,69b95efdef24cd8a694e89ee,69b9611c14ed213777b39c82,0.2739,0.2739,0,45,45,100,1,sevenfive,,,,,,,,,,,,,,,,,,,,,,,,,,,,,,,,,,,,,,,,,,,,,,,,,,,,,,,,,,,,,,,,,,,,,,,,,,,,,,,,,,,,,,,,,,,,,,,,,,,,,,,,,,,,,,,,,,,,,,,,,,,,,,,,,,,,,,,,,
,,67c045fa5074c5500ca40e76,2026-03-17_16h31.39.524,kallum_motion_pilot_GIST_update_2,2026.1.1,Win32,15.01501502,67c045fa5074c5500ca40e76,69b95efdef24cd8a694e89ee,69b9611c14ed213777b39c82,0.2745,0.2745,0,46,46,11,1,twofour,,,,,,,,,,,,,,,,,,,,,,,,,,,,,,,,,,,,,,,,,,,,,,,,,,,,,,,,,,,,,,,,,,,,,,,,,,,,,,,,,,,,,,,,,,,,,,,,,,,,,,,,,,,,,,,,,,,,,,,,,,,,,,,,,,,,,,,,,
,,67c045fa5074c5500ca40e76,2026-03-17_16h31.39.524,kallum_motion_pilot_GIST_update_2,2026.1.1,Win32,15.01501502,67c045fa5074c5500ca40e76,69b95efdef24cd8a694e89ee,69b9611c14ed213777b39c82,0.275,0.275,0,47,47,5,1,threefour,,,,,,,,,,,,,,,,,,,,,,,,,,,,,,,,,,,,,,,,,,,,,,,,,,,,,,,,,,,,,,,,,,,,,,,,,,,,,,,,,,,,,,,,,,,,,,,,,,,,,,,,,,,,,,,,,,,,,,,,,,,,,,,,,,,,,,,,,
,,67c045fa5074c5500ca40e76,2026-03-17_16h31.39.524,kallum_motion_pilot_GIST_update_2,2026.1.1,Win32,15.01501502,67c045fa5074c5500ca40e76,69b95efdef24cd8a694e89ee,69b9611c14ed213777b39c82,0.2756,0.2756,0,48,48,69,1,threefour,,,,,,,,,,,,,,,,,,,,,,,,,,,,,,,,,,,,,,,,,,,,,,,,,,,,,,,,,,,,,,,,,,,,,,,,,,,,,,,,,,,,,,,,,,,,,,,,,,,,,,,,,,,,,,,,,,,,,,,,,,,,,,,,,,,,,,,,,
,,67c045fa5074c5500ca40e76,2026-03-17_16h31.39.524,kallum_motion_pilot_GIST_update_2,2026.1.1,Win32,15.01501502,67c045fa5074c5500ca40e76,69b95efdef24cd8a694e89ee,69b9611c14ed213777b39c82,0.2762,0.2763,0,49,49,111,1,eightseven,,,,,,,,,,,,,,,,,,,,,,,,,,,,,,,,,,,,,,,,,,,,,,,,,,,,,,,,,,,,,,,,,,,,,,,,,,,,,,,,,,,,,,,,,,,,,,,,,,,,,,,,,,,,,,,,,,,,,,,,,,,,,,,,,,,,,,,,,
,,67c045fa5074c5500ca40e76,2026-03-17_16h31.39.524,kallum_motion_pilot_GIST_update_2,2026.1.1,Win32,15.01501502,67c045fa5074c5500ca40e76,69b95efdef24cd8a694e89ee,69b9611c14ed213777b39c82,0.277,0.2771,0,50,50,142,1,eightsix,,,,,,,,,,,,,,,,,,,,,,,,,,,,,,,,,,,,,,,,,,,,,,,,,,,,,,,,,,,,,,,,,,,,,,,,,,,,,,,,,,,,,,,,,,,,,,,,,,,,,,,,,,,,,,,,,,,,,,,,,,,,,,,,,,,,,,,,,
,,67c045fa5074c5500ca40e76,2026-03-17_16h31.39.524,kallum_motion_pilot_GIST_update_2,2026.1.1,Win32,15.01501502,67c045fa5074c5500ca40e76,69b95efdef24cd8a694e89ee,69b9611c14ed213777b39c82,0.2776,0.2776,0,51,51,96,1,fivesix,,,,,,,,,,,,,,,,,,,,,,,,,,,,,,,,,,,,,,,,,,,,,,,,,,,,,,,,,,,,,,,,,,,,,,,,,,,,,,,,,,,,,,,,,,,,,,,,,,,,,,,,,,,,,,,,,,,,,,,,,,,,,,,,,,,,,,,,,
,,67c045fa5074c5500ca40e76,2026-03-17_16h31.39.524,kallum_motion_pilot_GIST_update_2,2026.1.1,Win32,15.01501502,67c045fa5074c5500ca40e76,69b95efdef24cd8a694e89ee,69b9611c14ed213777b39c82,0.2782,0.2782,0,52,52,145,1,fiveseven,,,,,,,,,,,,,,,,,,,,,,,,,,,,,,,,,,,,,,,,,,,,,,,,,,,,,,,,,,,,,,,,,,,,,,,,,,,,,,,,,,,,,,,,,,,,,,,,,,,,,,,,,,,,,,,,,,,,,,,,,,,,,,,,,,,,,,,,,
,,67c045fa5074c5500ca40e76,2026-03-17_16h31.39.524,kallum_motion_pilot_GIST_update_2,2026.1.1,Win32,15.01501502,67c045fa5074c5500ca40e76,69b95efdef24cd8a694e89ee,69b9611c14ed213777b39c82,0.2789,0.2789,0,53,53,2,1,twoone,,,,,,,,,,,,,,,,,,,,,,,,,,,,,,,,,,,,,,,,,,,,,,,,,,,,,,,,,,,,,,,,,,,,,,,,,,,,,,,,,,,,,,,,,,,,,,,,,,,,,,,,,,,,,,,,,,,,,,,,,,,,,,,,,,,,,,,,,
,,67c045fa5074c5500ca40e76,2026-03-17_16h31.39.524,kallum_motion_pilot_GIST_update_2,2026.1.1,Win32,15.01501502,67c045fa5074c5500ca40e76,69b95efdef24cd8a694e89ee,69b9611c14ed213777b39c82,0.2794,0.2795,0,54,54,61,1,threefour,,,,,,,,,,,,,,,,,,,,,,,,,,,,,,,,,,,,,,,,,,,,,,,,,,,,,,,,,,,,,,,,,,,,,,,,,,,,,,,,,,,,,,,,,,,,,,,,,,,,,,,,,,,,,,,,,,,,,,,,,,,,,,,,,,,,,,,,,
,,67c045fa5074c5500ca40e76,2026-03-17_16h31.39.524,kallum_motion_pilot_GIST_update_2,2026.1.1,Win32,15.01501502,67c045fa5074c5500ca40e76,69b95efdef24cd8a694e89ee,69b9611c14ed213777b39c82,0.2801,0.2801,0,55,55,43,1,twofour,,,,,,,,,,,,,,,,,,,,,,,,,,,,,,,,,,,,,,,,,,,,,,,,,,,,,,,,,,,,,,,,,,,,,,,,,,,,,,,,,,,,,,,,,,,,,,,,,,,,,,,,,,,,,,,,,,,,,,,,,,,,,,,,,,,,,,,,,
,,67c045fa5074c5500ca40e76,2026-03-17_16h31.39.524,kallum_motion_pilot_GIST_update_2,2026.1.1,Win32,15.01501502,67c045fa5074c5500ca40e76,69b95efdef24cd8a694e89ee,69b9611c14ed213777b39c82,0.2807,0.2807,0,56,56,41,1,onethree,,,,,,,,,,,,,,,,,,,,,,,,,,,,,,,,,,,,,,,,,,,,,,,,,,,,,,,,,,,,,,,,,,,,,,,,,,,,,,,,,,,,,,,,,,,,,,,,,,,,,,,,,,,,,,,,,,,,,,,,,,,,,,,,,,,,,,,,,
,,67c045fa5074c5500ca40e76,2026-03-17_16h31.39.524,kallum_motion_pilot_GIST_update_2,2026.1.1,Win32,15.01501502,67c045fa5074c5500ca40e76,69b95efdef24cd8a694e89ee,69b9611c14ed213777b39c82,0.2815,0.2815,0,57,57,19,1,twofour,,,,,,,,,,,,,,,,,,,,,,,,,,,,,,,,,,,,,,,,,,,,,,,,,,,,,,,,,,,,,,,,,,,,,,,,,,,,,,,,,,,,,,,,,,,,,,,,,,,,,,,,,,,,,,,,,,,,,,,,,,,,,,,,,,,,,,,,,
,,67c045fa5074c5500ca40e76,2026-03-17_16h31.39.524,kallum_motion_pilot_GIST_update_2,2026.1.1,Win32,15.01501502,67c045fa5074c5500ca40e76,69b95efdef24cd8a694e89ee,69b9611c14ed213777b39c82,0.2821,0.2821,0,58,58,51,1,twofour,,,,,,,,,,,,,,,,,,,,,,,,,,,,,,,,,,,,,,,,,,,,,,,,,,,,,,,,,,,,,,,,,,,,,,,,,,,,,,,,,,,,,,,,,,,,,,,,,,,,,,,,,,,,,,,,,,,,,,,,,,,,,,,,,,,,,,,,,
,,67c045fa5074c5500ca40e76,2026-03-17_16h31.39.524,kallum_motion_pilot_GIST_update_2,2026.1.1,Win32,15.01501502,67c045fa5074c5500ca40e76,69b95efdef24cd8a694e89ee,69b9611c14ed213777b39c82,0.2827,0.2827,0,59,59,159,1,eightseven,,,,,,,,,,,,,,,,,,,,,,,,,,,,,,,,,,,,,,,,,,,,,,,,,,,,,,,,,,,,,,,,,,,,,,,,,,,,,,,,,,,,,,,,,,,,,,,,,,,,,,,,,,,,,,,,,,,,,,,,,,,,,,,,,,,,,,,,,
,,67c045fa5074c5500ca40e76,2026-03-17_16h31.39.524,kallum_motion_pilot_GIST_update_2,2026.1.1,Win32,15.01501502,67c045fa5074c5500ca40e76,69b95efdef24cd8a694e89ee,69b9611c14ed213777b39c82,0.2833,0.2833,0,60,60,38,1,fourtwo,,,,,,,,,,,,,,,,,,,,,,,,,,,,,,,,,,,,,,,,,,,,,,,,,,,,,,,,,,,,,,,,,,,,,,,,,,,,,,,,,,,,,,,,,,,,,,,,,,,,,,,,,,,,,,,,,,,,,,,,,,,,,,,,,,,,,,,,,
,,67c045fa5074c5500ca40e76,2026-03-17_16h31.39.524,kallum_motion_pilot_GIST_update_2,2026.1.1,Win32,15.01501502,67c045fa5074c5500ca40e76,69b95efdef24cd8a694e89ee,69b9611c14ed213777b39c82,0.2839,0.2839,0,61,61,105,1,fiveseven,,,,,,,,,,,,,,,,,,,,,,,,,,,,,,,,,,,,,,,,,,,,,,,,,,,,,,,,,,,,,,,,,,,,,,,,,,,,,,,,,,,,,,,,,,,,,,,,,,,,,,,,,,,,,,,,,,,,,,,,,,,,,,,,,,,,,,,,,
,,67c045fa5074c5500ca40e76,2026-03-17_16h31.39.524,kallum_motion_pilot_GIST_update_2,2026.1.1,Win32,15.01501502,67c045fa5074c5500ca40e76,69b95efdef24cd8a694e89ee,69b9611c14ed213777b39c82,0.2845,0.2845,0,62,62,128,1,fivesix,,,,,,,,,,,,,,,,,,,,,,,,,,,,,,,,,,,,,,,,,,,,,,,,,,,,,,,,,,,,,,,,,,,,,,,,,,,,,,,,,,,,,,,,,,,,,,,,,,,,,,,,,,,,,,,,,,,,,,,,,,,,,,,,,,,,,,,,,
,,67c045fa5074c5500ca40e76,2026-03-17_16h31.39.524,kallum_motion_pilot_GIST_update_2,2026.1.1,Win32,15.01501502,67c045fa5074c5500ca40e76,69b95efdef24cd8a694e89ee,69b9611c14ed213777b39c82,0.2857,0.2857,0,63,63,99,1,sixeight,,,,,,,,,,,,,,,,,,,,,,,,,,,,,,,,,,,,,,,,,,,,,,,,,,,,,,,,,,,,,,,,,,,,,,,,,,,,,,,,,,,,,,,,,,,,,,,,,,,,,,,,,,,,,,,,,,,,,,,,,,,,,,,,,,,,,,,,,
,,67c045fa5074c5500ca40e76,2026-03-17_16h31.39.524,kallum_motion_pilot_GIST_update_2,2026.1.1,Win32,15.01501502,67c045fa5074c5500ca40e76,69b95efdef24cd8a694e89ee,69b9611c14ed213777b39c82,0.2874,0.2875,0,64,64,39,1,fourthree,,,,,,,,,,,,,,,,,,,,,,,,,,,,,,,,,,,,,,,,,,,,,,,,,,,,,,,,,,,,,,,,,,,,,,,,,,,,,,,,,,,,,,,,,,,,,,,,,,,,,,,,,,,,,,,,,,,,,,,,,,,,,,,,,,,,,,,,,
,,67c045fa5074c5500ca40e76,2026-03-17_16h31.39.524,kallum_motion_pilot_GIST_update_2,2026.1.1,Win32,15.01501502,67c045fa5074c5500ca40e76,69b95efdef24cd8a694e89ee,69b9611c14ed213777b39c82,0.2881,0.2881,0,65,65,152,1,fivesix,,,,,,,,,,,,,,,,,,,,,,,,,,,,,,,,,,,,,,,,,,,,,,,,,,,,,,,,,,,,,,,,,,,,,,,,,,,,,,,,,,,,,,,,,,,,,,,,,,,,,,,,,,,,,,,,,,,,,,,,,,,,,,,,,,,,,,,,,
,,67c045fa5074c5500ca40e76,2026-03-17_16h31.39.524,kallum_motion_pilot_GIST_update_2,2026.1.1,Win32,15.01501502,67c045fa5074c5500ca40e76,69b95efdef24cd8a694e89ee,69b9611c14ed213777b39c82,0.2887,0.2888,0,66,66,154,1,sixfive,,,,,,,,,,,,,,,,,,,,,,,,,,,,,,,,,,,,,,,,,,,,,,,,,,,,,,,,,,,,,,,,,,,,,,,,,,,,,,,,,,,,,,,,,,,,,,,,,,,,,,,,,,,,,,,,,,,,,,,,,,,,,,,,,,,,,,,,,
,,67c045fa5074c5500ca40e76,2026-03-17_16h31.39.524,kallum_motion_pilot_GIST_update_2,2026.1.1,Win32,15.01501502,67c045fa5074c5500ca40e76,69b95efdef24cd8a694e89ee,69b9611c14ed213777b39c82,0.2895,0.2895,0,67,67,143,1,eightseven,,,,,,,,,,,,,,,,,,,,,,,,,,,,,,,,,,,,,,,,,,,,,,,,,,,,,,,,,,,,,,,,,,,,,,,,,,,,,,,,,,,,,,,,,,,,,,,,,,,,,,,,,,,,,,,,,,,,,,,,,,,,,,,,,,,,,,,,,
,,67c045fa5074c5500ca40e76,2026-03-17_16h31.39.524,kallum_motion_pilot_GIST_update_2,2026.1.1,Win32,15.01501502,67c045fa5074c5500ca40e76,69b95efdef24cd8a694e89ee,69b9611c14ed213777b39c82,0.29,0.2901,0,68,68,97,1,fiveseven,,,,,,,,,,,,,,,,,,,,,,,,,,,,,,,,,,,,,,,,,,,,,,,,,,,,,,,,,,,,,,,,,,,,,,,,,,,,,,,,,,,,,,,,,,,,,,,,,,,,,,,,,,,,,,,,,,,,,,,,,,,,,,,,,,,,,,,,,
,,67c045fa5074c5500ca40e76,2026-03-17_16h31.39.524,kallum_motion_pilot_GIST_update_2,2026.1.1,Win32,15.01501502,67c045fa5074c5500ca40e76,69b95efdef24cd8a694e89ee,69b9611c14ed213777b39c82,0.2907,0.2907,0,69,69,136,1,fivesix,,,,,,,,,,,,,,,,,,,,,,,,,,,,,,,,,,,,,,,,,,,,,,,,,,,,,,,,,,,,,,,,,,,,,,,,,,,,,,,,,,,,,,,,,,,,,,,,,,,,,,,,,,,,,,,,,,,,,,,,,,,,,,,,,,,,,,,,,
,,67c045fa5074c5500ca40e76,2026-03-17_16h31.39.524,kallum_motion_pilot_GIST_update_2,2026.1.1,Win32,15.01501502,67c045fa5074c5500ca40e76,69b95efdef24cd8a694e89ee,69b9611c14ed213777b39c82,0.2914,0.2914,0,70,70,146,1,sixfive,,,,,,,,,,,,,,,,,,,,,,,,,,,,,,,,,,,,,,,,,,,,,,,,,,,,,,,,,,,,,,,,,,,,,,,,,,,,,,,,,,,,,,,,,,,,,,,,,,,,,,,,,,,,,,,,,,,,,,,,,,,,,,,,,,,,,,,,,
,,67c045fa5074c5500ca40e76,2026-03-17_16h31.39.524,kallum_motion_pilot_GIST_update_2,2026.1.1,Win32,15.01501502,67c045fa5074c5500ca40e76,69b95efdef24cd8a694e89ee,69b9611c14ed213777b39c82,0.292,0.292,0,71,71,81,1,fiveseven,,,,,,,,,,,,,,,,,,,,,,,,,,,,,,,,,,,,,,,,,,,,,,,,,,,,,,,,,,,,,,,,,,,,,,,,,,,,,,,,,,,,,,,,,,,,,,,,,,,,,,,,,,,,,,,,,,,,,,,,,,,,,,,,,,,,,,,,,
,,67c045fa5074c5500ca40e76,2026-03-17_16h31.39.524,kallum_motion_pilot_GIST_update_2,2026.1.1,Win32,15.01501502,67c045fa5074c5500ca40e76,69b95efdef24cd8a694e89ee,69b9611c14ed213777b39c82,0.2926,0.2926,0,72,72,13,1,threefour,,,,,,,,,,,,,,,,,,,,,,,,,,,,,,,,,,,,,,,,,,,,,,,,,,,,,,,,,,,,,,,,,,,,,,,,,,,,,,,,,,,,,,,,,,,,,,,,,,,,,,,,,,,,,,,,,,,,,,,,,,,,,,,,,,,,,,,,,
,,67c045fa5074c5500ca40e76,2026-03-17_16h31.39.524,kallum_motion_pilot_GIST_update_2,2026.1.1,Win32,15.01501502,67c045fa5074c5500ca40e76,69b95efdef24cd8a694e89ee,69b9611c14ed213777b39c82,0.2933,0.2933,0,73,73,36,1,threeone,,,,,,,,,,,,,,,,,,,,,,,,,,,,,,,,,,,,,,,,,,,,,,,,,,,,,,,,,,,,,,,,,,,,,,,,,,,,,,,,,,,,,,,,,,,,,,,,,,,,,,,,,,,,,,,,,,,,,,,,,,,,,,,,,,,,,,,,,
,,67c045fa5074c5500ca40e76,2026-03-17_16h31.39.524,kallum_motion_pilot_GIST_update_2,2026.1.1,Win32,15.01501502,67c045fa5074c5500ca40e76,69b95efdef24cd8a694e89ee,69b9611c14ed213777b39c82,0.2942,0.2942,0,74,74,160,1,fivesix,,,,,,,,,,,,,,,,,,,,,,,,,,,,,,,,,,,,,,,,,,,,,,,,,,,,,,,,,,,,,,,,,,,,,,,,,,,,,,,,,,,,,,,,,,,,,,,,,,,,,,,,,,,,,,,,,,,,,,,,,,,,,,,,,,,,,,,,,
,,67c045fa5074c5500ca40e76,2026-03-17_16h31.39.524,kallum_motion_pilot_GIST_update_2,2026.1.1,Win32,15.01501502,67c045fa5074c5500ca40e76,69b95efdef24cd8a694e89ee,69b9611c14ed213777b39c82,0.295,0.295,0,75,75,12,1,threeone,,,,,,,,,,,,,,,,,,,,,,,,,,,,,,,,,,,,,,,,,,,,,,,,,,,,,,,,,,,,,,,,,,,,,,,,,,,,,,,,,,,,,,,,,,,,,,,,,,,,,,,,,,,,,,,,,,,,,,,,,,,,,,,,,,,,,,,,,
,,67c045fa5074c5500ca40e76,2026-03-17_16h31.39.524,kallum_motion_pilot_GIST_update_2,2026.1.1,Win32,15.01501502,67c045fa5074c5500ca40e76,69b95efdef24cd8a694e89ee,69b9611c14ed213777b39c82,0.2957,0.2958,0,76,76,65,1,onethree,,,,,,,,,,,,,,,,,,,,,,,,,,,,,,,,,,,,,,,,,,,,,,,,,,,,,,,,,,,,,,,,,,,,,,,,,,,,,,,,,,,,,,,,,,,,,,,,,,,,,,,,,,,,,,,,,,,,,,,,,,,,,,,,,,,,,,,,,
,,67c045fa5074c5500ca40e76,2026-03-17_16h31.39.524,kallum_motion_pilot_GIST_update_2,2026.1.1,Win32,15.01501502,67c045fa5074c5500ca40e76,69b95efdef24cd8a694e89ee,69b9611c14ed213777b39c82,0.2967,0.2969,0,77,77,135,1,eightseven,,,,,,,,,,,,,,,,,,,,,,,,,,,,,,,,,,,,,,,,,,,,,,,,,,,,,,,,,,,,,,,,,,,,,,,,,,,,,,,,,,,,,,,,,,,,,,,,,,,,,,,,,,,,,,,,,,,,,,,,,,,,,,,,,,,,,,,,,
,,67c045fa5074c5500ca40e76,2026-03-17_16h31.39.524,kallum_motion_pilot_GIST_update_2,2026.1.1,Win32,15.01501502,67c045fa5074c5500ca40e76,69b95efdef24cd8a694e89ee,69b9611c14ed213777b39c82,0.2976,0.2976,0,78,78,110,1,eightsix,,,,,,,,,,,,,,,,,,,,,,,,,,,,,,,,,,,,,,,,,,,,,,,,,,,,,,,,,,,,,,,,,,,,,,,,,,,,,,,,,,,,,,,,,,,,,,,,,,,,,,,,,,,,,,,,,,,,,,,,,,,,,,,,,,,,,,,,,
,,67c045fa5074c5500ca40e76,2026-03-17_16h31.39.524,kallum_motion_pilot_GIST_update_2,2026.1.1,Win32,15.01501502,67c045fa5074c5500ca40e76,69b95efdef24cd8a694e89ee,69b9611c14ed213777b39c82,0.2983,0.2983,0,79,79,93,1,seveneight,,,,,,,,,,,,,,,,,,,,,,,,,,,,,,,,,,,,,,,,,,,,,,,,,,,,,,,,,,,,,,,,,,,,,,,,,,,,,,,,,,,,,,,,,,,,,,,,,,,,,,,,,,,,,,,,,,,,,,,,,,,,,,,,,,,,,,,,,
,,67c045fa5074c5500ca40e76,2026-03-17_16h31.39.524,kallum_motion_pilot_GIST_update_2,2026.1.1,Win32,15.01501502,67c045fa5074c5500ca40e76,69b95efdef24cd8a694e89ee,69b9611c14ed213777b39c82,0.2988,0.2989,0,80,80,134,1,eightsix,,,,,,,,,,,,,,,,,,,,,,,,,,,,,,,,,,,,,,,,,,,,,,,,,,,,,,,,,,,,,,,,,,,,,,,,,,,,,,,,,,,,,,,,,,,,,,,,,,,,,,,,,,,,,,,,,,,,,,,,,,,,,,,,,,,,,,,,,
,,67c045fa5074c5500ca40e76,2026-03-17_16h31.39.524,kallum_motion_pilot_GIST_update_2,2026.1.1,Win32,15.01501502,67c045fa5074c5500ca40e76,69b95efdef24cd8a694e89ee,69b9611c14ed213777b39c82,0.2995,0.2995,0,81,81,161,1,fiveseven,,,,,,,,,,,,,,,,,,,,,,,,,,,,,,,,,,,,,,,,,,,,,,,,,,,,,,,,,,,,,,,,,,,,,,,,,,,,,,,,,,,,,,,,,,,,,,,,,,,,,,,,,,,,,,,,,,,,,,,,,,,,,,,,,,,,,,,,,
,,67c045fa5074c5500ca40e76,2026-03-17_16h31.39.524,kallum_motion_pilot_GIST_update_2,2026.1.1,Win32,15.01501502,67c045fa5074c5500ca40e76,69b95efdef24cd8a694e89ee,69b9611c14ed213777b39c82,0.3002,0.3002,0,82,82,112,1,fivesix,,,,,,,,,,,,,,,,,,,,,,,,,,,,,,,,,,,,,,,,,,,,,,,,,,,,,,,,,,,,,,,,,,,,,,,,,,,,,,,,,,,,,,,,,,,,,,,,,,,,,,,,,,,,,,,,,,,,,,,,,,,,,,,,,,,,,,,,,
,,67c045fa5074c5500ca40e76,2026-03-17_16h31.39.524,kallum_motion_pilot_GIST_update_2,2026.1.1,Win32,15.01501502,67c045fa5074c5500ca40e76,69b95efdef24cd8a694e89ee,69b9611c14ed213777b39c82,0.3009,0.3009,0,83,83,88,1,fivesix,,,,,,,,,,,,,,,,,,,,,,,,,,,,,,,,,,,,,,,,,,,,,,,,,,,,,,,,,,,,,,,,,,,,,,,,,,,,,,,,,,,,,,,,,,,,,,,,,,,,,,,,,,,,,,,,,,,,,,,,,,,,,,,,,,,,,,,,,
,,67c045fa5074c5500ca40e76,2026-03-17_16h31.39.524,kallum_motion_pilot_GIST_update_2,2026.1.1,Win32,15.01501502,67c045fa5074c5500ca40e76,69b95efdef24cd8a694e89ee,69b9611c14ed213777b39c82,0.3015,0.3016,0,84,84,48,1,onetwo,,,,,,,,,,,,,,,,,,,,,,,,,,,,,,,,,,,,,,,,,,,,,,,,,,,,,,,,,,,,,,,,,,,,,,,,,,,,,,,,,,,,,,,,,,,,,,,,,,,,,,,,,,,,,,,,,,,,,,,,,,,,,,,,,,,,,,,,,
,,67c045fa5074c5500ca40e76,2026-03-17_16h31.39.524,kallum_motion_pilot_GIST_update_2,2026.1.1,Win32,15.01501502,67c045fa5074c5500ca40e76,69b95efdef24cd8a694e89ee,69b9611c14ed213777b39c82,0.3022,0.3022,0,85,85,79,1,eightseven,,,,,,,,,,,,,,,,,,,,,,,,,,,,,,,,,,,,,,,,,,,,,,,,,,,,,,,,,,,,,,,,,,,,,,,,,,,,,,,,,,,,,,,,,,,,,,,,,,,,,,,,,,,,,,,,,,,,,,,,,,,,,,,,,,,,,,,,,
,,67c045fa5074c5500ca40e76,2026-03-17_16h31.39.524,kallum_motion_pilot_GIST_update_2,2026.1.1,Win32,15.01501502,67c045fa5074c5500ca40e76,69b95efdef24cd8a694e89ee,69b9611c14ed213777b39c82,0.3034,0.3035,0,86,86,46,1,fourtwo,,,,,,,,,,,,,,,,,,,,,,,,,,,,,,,,,,,,,,,,,,,,,,,,,,,,,,,,,,,,,,,,,,,,,,,,,,,,,,,,,,,,,,,,,,,,,,,,,,,,,,,,,,,,,,,,,,,,,,,,,,,,,,,,,,,,,,,,,
,,67c045fa5074c5500ca40e76,2026-03-17_16h31.39.524,kallum_motion_pilot_GIST_update_2,2026.1.1,Win32,15.01501502,67c045fa5074c5500ca40e76,69b95efdef24cd8a694e89ee,69b9611c14ed213777b39c82,0.3042,0.3042,0,87,87,144,1,fivesix,,,,,,,,,,,,,,,,,,,,,,,,,,,,,,,,,,,,,,,,,,,,,,,,,,,,,,,,,,,,,,,,,,,,,,,,,,,,,,,,,,,,,,,,,,,,,,,,,,,,,,,,,,,,,,,,,,,,,,,,,,,,,,,,,,,,,,,,,
,,67c045fa5074c5500ca40e76,2026-03-17_16h31.39.524,kallum_motion_pilot_GIST_update_2,2026.1.1,Win32,15.01501502,67c045fa5074c5500ca40e76,69b95efdef24cd8a694e89ee,69b9611c14ed213777b39c82,0.3047,0.3048,0,88,88,153,1,fiveseven,,,,,,,,,,,,,,,,,,,,,,,,,,,,,,,,,,,,,,,,,,,,,,,,,,,,,,,,,,,,,,,,,,,,,,,,,,,,,,,,,,,,,,,,,,,,,,,,,,,,,,,,,,,,,,,,,,,,,,,,,,,,,,,,,,,,,,,,,
,,67c045fa5074c5500ca40e76,2026-03-17_16h31.39.524,kallum_motion_pilot_GIST_update_2,2026.1.1,Win32,15.01501502,67c045fa5074c5500ca40e76,69b95efdef24cd8a694e89ee,69b9611c14ed213777b39c82,0.3055,0.3055,0,89,89,138,1,sixfive,,,,,,,,,,,,,,,,,,,,,,,,,,,,,,,,,,,,,,,,,,,,,,,,,,,,,,,,,,,,,,,,,,,,,,,,,,,,,,,,,,,,,,,,,,,,,,,,,,,,,,,,,,,,,,,,,,,,,,,,,,,,,,,,,,,,,,,,,
,,67c045fa5074c5500ca40e76,2026-03-17_16h31.39.524,kallum_motion_pilot_GIST_update_2,2026.1.1,Win32,15.01501502,67c045fa5074c5500ca40e76,69b95efdef24cd8a694e89ee,69b9611c14ed213777b39c82,0.3062,0.3062,0,90,90,137,1,fiveseven,,,,,,,,,,,,,,,,,,,,,,,,,,,,,,,,,,,,,,,,,,,,,,,,,,,,,,,,,,,,,,,,,,,,,,,,,,,,,,,,,,,,,,,,,,,,,,,,,,,,,,,,,,,,,,,,,,,,,,,,,,,,,,,,,,,,,,,,,
,,67c045fa5074c5500ca40e76,2026-03-17_16h31.39.524,kallum_motion_pilot_GIST_update_2,2026.1.1,Win32,15.01501502,67c045fa5074c5500ca40e76,69b95efdef24cd8a694e89ee,69b9611c14ed213777b39c82,0.3069,0.3069,0,91,91,130,1,sixfive,,,,,,,,,,,,,,,,,,,,,,,,,,,,,,,,,,,,,,,,,,,,,,,,,,,,,,,,,,,,,,,,,,,,,,,,,,,,,,,,,,,,,,,,,,,,,,,,,,,,,,,,,,,,,,,,,,,,,,,,,,,,,,,,,,,,,,,,,
,,67c045fa5074c5500ca40e76,2026-03-17_16h31.39.524,kallum_motion_pilot_GIST_update_2,2026.1.1,Win32,15.01501502,67c045fa5074c5500ca40e76,69b95efdef24cd8a694e89ee,69b9611c14ed213777b39c82,0.3077,0.3077,0,92,92,107,1,sixeight,,,,,,,,,,,,,,,,,,,,,,,,,,,,,,,,,,,,,,,,,,,,,,,,,,,,,,,,,,,,,,,,,,,,,,,,,,,,,,,,,,,,,,,,,,,,,,,,,,,,,,,,,,,,,,,,,,,,,,,,,,,,,,,,,,,,,,,,,
,,67c045fa5074c5500ca40e76,2026-03-17_16h31.39.524,kallum_motion_pilot_GIST_update_2,2026.1.1,Win32,15.01501502,67c045fa5074c5500ca40e76,69b95efdef24cd8a694e89ee,69b9611c14ed213777b39c82,0.3084,0.3084,0,93,93,55,1,fourthree,,,,,,,,,,,,,,,,,,,,,,,,,,,,,,,,,,,,,,,,,,,,,,,,,,,,,,,,,,,,,,,,,,,,,,,,,,,,,,,,,,,,,,,,,,,,,,,,,,,,,,,,,,,,,,,,,,,,,,,,,,,,,,,,,,,,,,,,,
,,67c045fa5074c5500ca40e76,2026-03-17_16h31.39.524,kallum_motion_pilot_GIST_update_2,2026.1.1,Win32,15.01501502,67c045fa5074c5500ca40e76,69b95efdef24cd8a694e89ee,69b9611c14ed213777b39c82,0.3091,0.3092,0,94,94,9,1,onethree,,,,,,,,,,,,,,,,,,,,,,,,,,,,,,,,,,,,,,,,,,,,,,,,,,,,,,,,,,,,,,,,,,,,,,,,,,,,,,,,,,,,,,,,,,,,,,,,,,,,,,,,,,,,,,,,,,,,,,,,,,,,,,,,,,,,,,,,,
,,67c045fa5074c5500ca40e76,2026-03-17_16h31.39.524,kallum_motion_pilot_GIST_update_2,2026.1.1,Win32,15.01501502,67c045fa5074c5500ca40e76,69b95efdef24cd8a694e89ee,69b9611c14ed213777b39c82,0.3097,0.3097,0,95,95,59,1,twofour,,,,,,,,,,,,,,,,,,,,,,,,,,,,,,,,,,,,,,,,,,,,,,,,,,,,,,,,,,,,,,,,,,,,,,,,,,,,,,,,,,,,,,,,,,,,,,,,,,,,,,,,,,,,,,,,,,,,,,,,,,,,,,,,,,,,,,,,,
,,67c045fa5074c5500ca40e76,2026-03-17_16h31.39.524,kallum_motion_pilot_GIST_update_2,2026.1.1,Win32,15.01501502,67c045fa5074c5500ca40e76,69b95efdef24cd8a694e89ee,69b9611c14ed213777b39c82,0.3105,0.3105,0,96,96,108,1,sevenfive,,,,,,,,,,,,,,,,,,,,,,,,,,,,,,,,,,,,,,,,,,,,,,,,,,,,,,,,,,,,,,,,,,,,,,,,,,,,,,,,,,,,,,,,,,,,,,,,,,,,,,,,,,,,,,,,,,,,,,,,,,,,,,,,,,,,,,,,,
,,67c045fa5074c5500ca40e76,2026-03-17_16h31.39.524,kallum_motion_pilot_GIST_update_2,2026.1.1,Win32,15.01501502,67c045fa5074c5500ca40e76,69b95efdef24cd8a694e89ee,69b9611c14ed213777b39c82,0.3114,0.3114,0,97,97,86,1,eightsix,,,,,,,,,,,,,,,,,,,,,,,,,,,,,,,,,,,,,,,,,,,,,,,,,,,,,,,,,,,,,,,,,,,,,,,,,,,,,,,,,,,,,,,,,,,,,,,,,,,,,,,,,,,,,,,,,,,,,,,,,,,,,,,,,,,,,,,,,
,,67c045fa5074c5500ca40e76,2026-03-17_16h31.39.524,kallum_motion_pilot_GIST_update_2,2026.1.1,Win32,15.01501502,67c045fa5074c5500ca40e76,69b95efdef24cd8a694e89ee,69b9611c14ed213777b39c82,0.3121,0.3121,0,98,98,103,1,eightseven,,,,,,,,,,,,,,,,,,,,,,,,,,,,,,,,,,,,,,,,,,,,,,,,,,,,,,,,,,,,,,,,,,,,,,,,,,,,,,,,,,,,,,,,,,,,,,,,,,,,,,,,,,,,,,,,,,,,,,,,,,,,,,,,,,,,,,,,,
,,67c045fa5074c5500ca40e76,2026-03-17_16h31.39.524,kallum_motion_pilot_GIST_update_2,2026.1.1,Win32,15.01501502,67c045fa5074c5500ca40e76,69b95efdef24cd8a694e89ee,69b9611c14ed213777b39c82,0.3128,0.3129,0,99,99,49,1,onethree,,,,,,,,,,,,,,,,,,,,,,,,,,,,,,,,,,,,,,,,,,,,,,,,,,,,,,,,,,,,,,,,,,,,,,,,,,,,,,,,,,,,,,,,,,,,,,,,,,,,,,,,,,,,,,,,,,,,,,,,,,,,,,,,,,,,,,,,,
,,67c045fa5074c5500ca40e76,2026-03-17_16h31.39.524,kallum_motion_pilot_GIST_update_2,2026.1.1,Win32,15.01501502,67c045fa5074c5500ca40e76,69b95efdef24cd8a694e89ee,69b9611c14ed213777b39c82,0.3377,0.3377,0,100,100,151,1,eightseven,,,,,,,,,,,,,,,,,,,,,,,,,,,,,,,,,,,,,,,,,,,,,,,,,,,,,,,,,,,,,,,,,,,,,,,,,,,,,,,,,,,,,,,,,,,,,,,,,,,,,,,,,,,,,,,,,,,,,,,,,,,,,,,,,,,,,,,,,
,,67c045fa5074c5500ca40e76,2026-03-17_16h31.39.524,kallum_motion_pilot_GIST_update_2,2026.1.1,Win32,15.01501502,67c045fa5074c5500ca40e76,69b95efdef24cd8a694e89ee,69b9611c14ed213777b39c82,0.3384,0.3384,0,101,101,8,1,onetwo,,,,,,,,,,,,,,,,,,,,,,,,,,,,,,,,,,,,,,,,,,,,,,,,,,,,,,,,,,,,,,,,,,,,,,,,,,,,,,,,,,,,,,,,,,,,,,,,,,,,,,,,,,,,,,,,,,,,,,,,,,,,,,,,,,,,,,,,,
,,67c045fa5074c5500ca40e76,2026-03-17_16h31.39.524,kallum_motion_pilot_GIST_update_2,2026.1.1,Win32,15.01501502,67c045fa5074c5500ca40e76,69b95efdef24cd8a694e89ee,69b9611c14ed213777b39c82,0.339,0.3391,0,102,102,44,1,threeone,,,,,,,,,,,,,,,,,,,,,,,,,,,,,,,,,,,,,,,,,,,,,,,,,,,,,,,,,,,,,,,,,,,,,,,,,,,,,,,,,,,,,,,,,,,,,,,,,,,,,,,,,,,,,,,,,,,,,,,,,,,,,,,,,,,,,,,,,
,,67c045fa5074c5500ca40e76,2026-03-17_16h31.39.524,kallum_motion_pilot_GIST_update_2,2026.1.1,Win32,15.01501502,67c045fa5074c5500ca40e76,69b95efdef24cd8a694e89ee,69b9611c14ed213777b39c82,0.3396,0.3397,0,103,103,45,1,threefour,,,,,,,,,,,,,,,,,,,,,,,,,,,,,,,,,,,,,,,,,,,,,,,,,,,,,,,,,,,,,,,,,,,,,,,,,,,,,,,,,,,,,,,,,,,,,,,,,,,,,,,,,,,,,,,,,,,,,,,,,,,,,,,,,,,,,,,,,
,,67c045fa5074c5500ca40e76,2026-03-17_16h31.39.524,kallum_motion_pilot_GIST_update_2,2026.1.1,Win32,15.01501502,67c045fa5074c5500ca40e76,69b95efdef24cd8a694e89ee,69b9611c14ed213777b39c82,0.3402,0.3402,0,104,104,155,1,sixeight,,,,,,,,,,,,,,,,,,,,,,,,,,,,,,,,,,,,,,,,,,,,,,,,,,,,,,,,,,,,,,,,,,,,,,,,,,,,,,,,,,,,,,,,,,,,,,,,,,,,,,,,,,,,,,,,,,,,,,,,,,,,,,,,,,,,,,,,,
,,67c045fa5074c5500ca40e76,2026-03-17_16h31.39.524,kallum_motion_pilot_GIST_update_2,2026.1.1,Win32,15.01501502,67c045fa5074c5500ca40e76,69b95efdef24cd8a694e89ee,69b9611c14ed213777b39c82,0.3411,0.3411,0,105,105,131,1,sixeight,,,,,,,,,,,,,,,,,,,,,,,,,,,,,,,,,,,,,,,,,,,,,,,,,,,,,,,,,,,,,,,,,,,,,,,,,,,,,,,,,,,,,,,,,,,,,,,,,,,,,,,,,,,,,,,,,,,,,,,,,,,,,,,,,,,,,,,,,
,,67c045fa5074c5500ca40e76,2026-03-17_16h31.39.524,kallum_motion_pilot_GIST_update_2,2026.1.1,Win32,15.01501502,67c045fa5074c5500ca40e76,69b95efdef24cd8a694e89ee,69b9611c14ed213777b39c82,0.3417,0.3417,0,106,106,141,1,seveneight,,,,,,,,,,,,,,,,,,,,,,,,,,,,,,,,,,,,,,,,,,,,,,,,,,,,,,,,,,,,,,,,,,,,,,,,,,,,,,,,,,,,,,,,,,,,,,,,,,,,,,,,,,,,,,,,,,,,,,,,,,,,,,,,,,,,,,,,,
,,67c045fa5074c5500ca40e76,2026-03-17_16h31.39.524,kallum_motion_pilot_GIST_update_2,2026.1.1,Win32,15.01501502,67c045fa5074c5500ca40e76,69b95efdef24cd8a694e89ee,69b9611c14ed213777b39c82,0.3423,0.3424,0,107,107,114,1,sixfive,,,,,,,,,,,,,,,,,,,,,,,,,,,,,,,,,,,,,,,,,,,,,,,,,,,,,,,,,,,,,,,,,,,,,,,,,,,,,,,,,,,,,,,,,,,,,,,,,,,,,,,,,,,,,,,,,,,,,,,,,,,,,,,,,,,,,,,,,
,,67c045fa5074c5500ca40e76,2026-03-17_16h31.39.524,kallum_motion_pilot_GIST_update_2,2026.1.1,Win32,15.01501502,67c045fa5074c5500ca40e76,69b95efdef24cd8a694e89ee,69b9611c14ed213777b39c82,0.3431,0.3431,0,108,108,56,1,onetwo,,,,,,,,,,,,,,,,,,,,,,,,,,,,,,,,,,,,,,,,,,,,,,,,,,,,,,,,,,,,,,,,,,,,,,,,,,,,,,,,,,,,,,,,,,,,,,,,,,,,,,,,,,,,,,,,,,,,,,,,,,,,,,,,,,,,,,,,,
,,67c045fa5074c5500ca40e76,2026-03-17_16h31.39.524,kallum_motion_pilot_GIST_update_2,2026.1.1,Win32,15.01501502,67c045fa5074c5500ca40e76,69b95efdef24cd8a694e89ee,69b9611c14ed213777b39c82,0.3436,0.3437,0,109,109,98,1,sixfive,,,,,,,,,,,,,,,,,,,,,,,,,,,,,,,,,,,,,,,,,,,,,,,,,,,,,,,,,,,,,,,,,,,,,,,,,,,,,,,,,,,,,,,,,,,,,,,,,,,,,,,,,,,,,,,,,,,,,,,,,,,,,,,,,,,,,,,,,
,,67c045fa5074c5500ca40e76,2026-03-17_16h31.39.524,kallum_motion_pilot_GIST_update_2,2026.1.1,Win32,15.01501502,67c045fa5074c5500ca40e76,69b95efdef24cd8a694e89ee,69b9611c14ed213777b39c82,0.3441,0.3442,0,110,110,50,1,twoone,,,,,,,,,,,,,,,,,,,,,,,,,,,,,,,,,,,,,,,,,,,,,,,,,,,,,,,,,,,,,,,,,,,,,,,,,,,,,,,,,,,,,,,,,,,,,,,,,,,,,,,,,,,,,,,,,,,,,,,,,,,,,,,,,,,,,,,,,
,,67c045fa5074c5500ca40e76,2026-03-17_16h31.39.524,kallum_motion_pilot_GIST_update_2,2026.1.1,Win32,15.01501502,67c045fa5074c5500ca40e76,69b95efdef24cd8a694e89ee,69b9611c14ed213777b39c82,0.3449,0.3449,0,111,111,84,1,sevenfive,,,,,,,,,,,,,,,,,,,,,,,,,,,,,,,,,,,,,,,,,,,,,,,,,,,,,,,,,,,,,,,,,,,,,,,,,,,,,,,,,,,,,,,,,,,,,,,,,,,,,,,,,,,,,,,,,,,,,,,,,,,,,,,,,,,,,,,,,
,,67c045fa5074c5500ca40e76,2026-03-17_16h31.39.524,kallum_motion_pilot_GIST_update_2,2026.1.1,Win32,15.01501502,67c045fa5074c5500ca40e76,69b95efdef24cd8a694e89ee,69b9611c14ed213777b39c82,0.3457,0.3457,0,112,112,149,1,seveneight,,,,,,,,,,,,,,,,,,,,,,,,,,,,,,,,,,,,,,,,,,,,,,,,,,,,,,,,,,,,,,,,,,,,,,,,,,,,,,,,,,,,,,,,,,,,,,,,,,,,,,,,,,,,,,,,,,,,,,,,,,,,,,,,,,,,,,,,,
,,67c045fa5074c5500ca40e76,2026-03-17_16h31.39.524,kallum_motion_pilot_GIST_update_2,2026.1.1,Win32,15.01501502,67c045fa5074c5500ca40e76,69b95efdef24cd8a694e89ee,69b9611c14ed213777b39c82,0.3481,0.3481,0,113,113,37,1,threefour,,,,,,,,,,,,,,,,,,,,,,,,,,,,,,,,,,,,,,,,,,,,,,,,,,,,,,,,,,,,,,,,,,,,,,,,,,,,,,,,,,,,,,,,,,,,,,,,,,,,,,,,,,,,,,,,,,,,,,,,,,,,,,,,,,,,,,,,,
,,67c045fa5074c5500ca40e76,2026-03-17_16h31.39.524,kallum_motion_pilot_GIST_update_2,2026.1.1,Win32,15.01501502,67c045fa5074c5500ca40e76,69b95efdef24cd8a694e89ee,69b9611c14ed213777b39c82,0.3487,0.3488,0,114,114,64,1,onetwo,,,,,,,,,,,,,,,,,,,,,,,,,,,,,,,,,,,,,,,,,,,,,,,,,,,,,,,,,,,,,,,,,,,,,,,,,,,,,,,,,,,,,,,,,,,,,,,,,,,,,,,,,,,,,,,,,,,,,,,,,,,,,,,,,,,,,,,,,
,,67c045fa5074c5500ca40e76,2026-03-17_16h31.39.524,kallum_motion_pilot_GIST_update_2,2026.1.1,Win32,15.01501502,67c045fa5074c5500ca40e76,69b95efdef24cd8a694e89ee,69b9611c14ed213777b39c82,0.3493,0.3493,0,115,115,89,1,fiveseven,,,,,,,,,,,,,,,,,,,,,,,,,,,,,,,,,,,,,,,,,,,,,,,,,,,,,,,,,,,,,,,,,,,,,,,,,,,,,,,,,,,,,,,,,,,,,,,,,,,,,,,,,,,,,,,,,,,,,,,,,,,,,,,,,,,,,,,,,
,,67c045fa5074c5500ca40e76,2026-03-17_16h31.39.524,kallum_motion_pilot_GIST_update_2,2026.1.1,Win32,15.01501502,67c045fa5074c5500ca40e76,69b95efdef24cd8a694e89ee,69b9611c14ed213777b39c82,0.3499,0.35,0,116,116,92,1,sevenfive,,,,,,,,,,,,,,,,,,,,,,,,,,,,,,,,,,,,,,,,,,,,,,,,,,,,,,,,,,,,,,,,,,,,,,,,,,,,,,,,,,,,,,,,,,,,,,,,,,,,,,,,,,,,,,,,,,,,,,,,,,,,,,,,,,,,,,,,,
,,67c045fa5074c5500ca40e76,2026-03-17_16h31.39.524,kallum_motion_pilot_GIST_update_2,2026.1.1,Win32,15.01501502,67c045fa5074c5500ca40e76,69b95efdef24cd8a694e89ee,69b9611c14ed213777b39c82,0.3505,0.3506,0,117,117,116,1,sevenfive,,,,,,,,,,,,,,,,,,,,,,,,,,,,,,,,,,,,,,,,,,,,,,,,,,,,,,,,,,,,,,,,,,,,,,,,,,,,,,,,,,,,,,,,,,,,,,,,,,,,,,,,,,,,,,,,,,,,,,,,,,,,,,,,,,,,,,,,,
,,67c045fa5074c5500ca40e76,2026-03-17_16h31.39.524,kallum_motion_pilot_GIST_update_2,2026.1.1,Win32,15.01501502,67c045fa5074c5500ca40e76,69b95efdef24cd8a694e89ee,69b9611c14ed213777b39c82,0.3513,0.3514,0,118,118,16,1,onetwo,,,,,,,,,,,,,,,,,,,,,,,,,,,,,,,,,,,,,,,,,,,,,,,,,,,,,,,,,,,,,,,,,,,,,,,,,,,,,,,,,,,,,,,,,,,,,,,,,,,,,,,,,,,,,,,,,,,,,,,,,,,,,,,,,,,,,,,,,
,,67c045fa5074c5500ca40e76,2026-03-17_16h31.39.524,kallum_motion_pilot_GIST_update_2,2026.1.1,Win32,15.01501502,67c045fa5074c5500ca40e76,69b95efdef24cd8a694e89ee,69b9611c14ed213777b39c82,0.3519,0.352,0,119,119,4,1,threeone,,,,,,,,,,,,,,,,,,,,,,,,,,,,,,,,,,,,,,,,,,,,,,,,,,,,,,,,,,,,,,,,,,,,,,,,,,,,,,,,,,,,,,,,,,,,,,,,,,,,,,,,,,,,,,,,,,,,,,,,,,,,,,,,,,,,,,,,,
,,67c045fa5074c5500ca40e76,2026-03-17_16h31.39.524,kallum_motion_pilot_GIST_update_2,2026.1.1,Win32,15.01501502,67c045fa5074c5500ca40e76,69b95efdef24cd8a694e89ee,69b9611c14ed213777b39c82,0.3526,0.3526,0,120,120,156,1,sevenfive,,,,,,,,,,,,,,,,,,,,,,,,,,,,,,,,,,,,,,,,,,,,,,,,,,,,,,,,,,,,,,,,,,,,,,,,,,,,,,,,,,,,,,,,,,,,,,,,,,,,,,,,,,,,,,,,,,,,,,,,,,,,,,,,,,,,,,,,,
,,67c045fa5074c5500ca40e76,2026-03-17_16h31.39.524,kallum_motion_pilot_GIST_update_2,2026.1.1,Win32,15.01501502,67c045fa5074c5500ca40e76,69b95efdef24cd8a694e89ee,69b9611c14ed213777b39c82,0.3537,0.3537,0,121,121,66,1,twoone,,,,,,,,,,,,,,,,,,,,,,,,,,,,,,,,,,,,,,,,,,,,,,,,,,,,,,,,,,,,,,,,,,,,,,,,,,,,,,,,,,,,,,,,,,,,,,,,,,,,,,,,,,,,,,,,,,,,,,,,,,,,,,,,,,,,,,,,,
,,67c045fa5074c5500ca40e76,2026-03-17_16h31.39.524,kallum_motion_pilot_GIST_update_2,2026.1.1,Win32,15.01501502,67c045fa5074c5500ca40e76,69b95efdef24cd8a694e89ee,69b9611c14ed213777b39c82,0.3544,0.3544,0,122,122,57,1,onethree,,,,,,,,,,,,,,,,,,,,,,,,,,,,,,,,,,,,,,,,,,,,,,,,,,,,,,,,,,,,,,,,,,,,,,,,,,,,,,,,,,,,,,,,,,,,,,,,,,,,,,,,,,,,,,,,,,,,,,,,,,,,,,,,,,,,,,,,,
,,67c045fa5074c5500ca40e76,2026-03-17_16h31.39.524,kallum_motion_pilot_GIST_update_2,2026.1.1,Win32,15.01501502,67c045fa5074c5500ca40e76,69b95efdef24cd8a694e89ee,69b9611c14ed213777b39c82,0.355,0.355,0,123,123,23,1,fourthree,,,,,,,,,,,,,,,,,,,,,,,,,,,,,,,,,,,,,,,,,,,,,,,,,,,,,,,,,,,,,,,,,,,,,,,,,,,,,,,,,,,,,,,,,,,,,,,,,,,,,,,,,,,,,,,,,,,,,,,,,,,,,,,,,,,,,,,,,
,,67c045fa5074c5500ca40e76,2026-03-17_16h31.39.524,kallum_motion_pilot_GIST_update_2,2026.1.1,Win32,15.01501502,67c045fa5074c5500ca40e76,69b95efdef24cd8a694e89ee,69b9611c14ed213777b39c82,0.3555,0.3556,0,124,124,67,1,twofour,,,,,,,,,,,,,,,,,,,,,,,,,,,,,,,,,,,,,,,,,,,,,,,,,,,,,,,,,,,,,,,,,,,,,,,,,,,,,,,,,,,,,,,,,,,,,,,,,,,,,,,,,,,,,,,,,,,,,,,,,,,,,,,,,,,,,,,,,
,,67c045fa5074c5500ca40e76,2026-03-17_16h31.39.524,kallum_motion_pilot_GIST_update_2,2026.1.1,Win32,15.01501502,67c045fa5074c5500ca40e76,69b95efdef24cd8a694e89ee,69b9611c14ed213777b39c82,0.3562,0.3562,0,125,125,148,1,sevenfive,,,,,,,,,,,,,,,,,,,,,,,,,,,,,,,,,,,,,,,,,,,,,,,,,,,,,,,,,,,,,,,,,,,,,,,,,,,,,,,,,,,,,,,,,,,,,,,,,,,,,,,,,,,,,,,,,,,,,,,,,,,,,,,,,,,,,,,,,
,,67c045fa5074c5500ca40e76,2026-03-17_16h31.39.524,kallum_motion_pilot_GIST_update_2,2026.1.1,Win32,15.01501502,67c045fa5074c5500ca40e76,69b95efdef24cd8a694e89ee,69b9611c14ed213777b39c82,0.3569,0.3569,0,126,126,140,1,sevenfive,,,,,,,,,,,,,,,,,,,,,,,,,,,,,,,,,,,,,,,,,,,,,,,,,,,,,,,,,,,,,,,,,,,,,,,,,,,,,,,,,,,,,,,,,,,,,,,,,,,,,,,,,,,,,,,,,,,,,,,,,,,,,,,,,,,,,,,,,
,,67c045fa5074c5500ca40e76,2026-03-17_16h31.39.524,kallum_motion_pilot_GIST_update_2,2026.1.1,Win32,15.01501502,67c045fa5074c5500ca40e76,69b95efdef24cd8a694e89ee,69b9611c14ed213777b39c82,0.3576,0.3577,0,127,127,117,1,seveneight,,,,,,,,,,,,,,,,,,,,,,,,,,,,,,,,,,,,,,,,,,,,,,,,,,,,,,,,,,,,,,,,,,,,,,,,,,,,,,,,,,,,,,,,,,,,,,,,,,,,,,,,,,,,,,,,,,,,,,,,,,,,,,,,,,,,,,,,,
,,67c045fa5074c5500ca40e76,2026-03-17_16h31.39.524,kallum_motion_pilot_GIST_update_2,2026.1.1,Win32,15.01501502,67c045fa5074c5500ca40e76,69b95efdef24cd8a694e89ee,69b9611c14ed213777b39c82,0.3583,0.3584,0,128,128,118,1,eightsix,,,,,,,,,,,,,,,,,,,,,,,,,,,,,,,,,,,,,,,,,,,,,,,,,,,,,,,,,,,,,,,,,,,,,,,,,,,,,,,,,,,,,,,,,,,,,,,,,,,,,,,,,,,,,,,,,,,,,,,,,,,,,,,,,,,,,,,,,
,,67c045fa5074c5500ca40e76,2026-03-17_16h31.39.524,kallum_motion_pilot_GIST_update_2,2026.1.1,Win32,15.01501502,67c045fa5074c5500ca40e76,69b95efdef24cd8a694e89ee,69b9611c14ed213777b39c82,0.359,0.359,0,129,129,75,1,twofour,,,,,,,,,,,,,,,,,,,,,,,,,,,,,,,,,,,,,,,,,,,,,,,,,,,,,,,,,,,,,,,,,,,,,,,,,,,,,,,,,,,,,,,,,,,,,,,,,,,,,,,,,,,,,,,,,,,,,,,,,,,,,,,,,,,,,,,,,
,,67c045fa5074c5500ca40e76,2026-03-17_16h31.39.524,kallum_motion_pilot_GIST_update_2,2026.1.1,Win32,15.01501502,67c045fa5074c5500ca40e76,69b95efdef24cd8a694e89ee,69b9611c14ed213777b39c82,0.3595,0.3595,0,130,130,7,1,fourthree,,,,,,,,,,,,,,,,,,,,,,,,,,,,,,,,,,,,,,,,,,,,,,,,,,,,,,,,,,,,,,,,,,,,,,,,,,,,,,,,,,,,,,,,,,,,,,,,,,,,,,,,,,,,,,,,,,,,,,,,,,,,,,,,,,,,,,,,,
,,67c045fa5074c5500ca40e76,2026-03-17_16h31.39.524,kallum_motion_pilot_GIST_update_2,2026.1.1,Win32,15.01501502,67c045fa5074c5500ca40e76,69b95efdef24cd8a694e89ee,69b9611c14ed213777b39c82,0.36,0.3602,0,131,131,68,1,threeone,,,,,,,,,,,,,,,,,,,,,,,,,,,,,,,,,,,,,,,,,,,,,,,,,,,,,,,,,,,,,,,,,,,,,,,,,,,,,,,,,,,,,,,,,,,,,,,,,,,,,,,,,,,,,,,,,,,,,,,,,,,,,,,,,,,,,,,,,
,,67c045fa5074c5500ca40e76,2026-03-17_16h31.39.524,kallum_motion_pilot_GIST_update_2,2026.1.1,Win32,15.01501502,67c045fa5074c5500ca40e76,69b95efdef24cd8a694e89ee,69b9611c14ed213777b39c82,0.3606,0.3607,0,132,132,132,1,sevenfive,,,,,,,,,,,,,,,,,,,,,,,,,,,,,,,,,,,,,,,,,,,,,,,,,,,,,,,,,,,,,,,,,,,,,,,,,,,,,,,,,,,,,,,,,,,,,,,,,,,,,,,,,,,,,,,,,,,,,,,,,,,,,,,,,,,,,,,,,
,,67c045fa5074c5500ca40e76,2026-03-17_16h31.39.524,kallum_motion_pilot_GIST_update_2,2026.1.1,Win32,15.01501502,67c045fa5074c5500ca40e76,69b95efdef24cd8a694e89ee,69b9611c14ed213777b39c82,0.3613,0.3614,0,133,133,18,1,twoone,,,,,,,,,,,,,,,,,,,,,,,,,,,,,,,,,,,,,,,,,,,,,,,,,,,,,,,,,,,,,,,,,,,,,,,,,,,,,,,,,,,,,,,,,,,,,,,,,,,,,,,,,,,,,,,,,,,,,,,,,,,,,,,,,,,,,,,,,
,,67c045fa5074c5500ca40e76,2026-03-17_16h31.39.524,kallum_motion_pilot_GIST_update_2,2026.1.1,Win32,15.01501502,67c045fa5074c5500ca40e76,69b95efdef24cd8a694e89ee,69b9611c14ed213777b39c82,0.3619,0.362,0,134,134,87,1,eightseven,,,,,,,,,,,,,,,,,,,,,,,,,,,,,,,,,,,,,,,,,,,,,,,,,,,,,,,,,,,,,,,,,,,,,,,,,,,,,,,,,,,,,,,,,,,,,,,,,,,,,,,,,,,,,,,,,,,,,,,,,,,,,,,,,,,,,,,,,
,,67c045fa5074c5500ca40e76,2026-03-17_16h31.39.524,kallum_motion_pilot_GIST_update_2,2026.1.1,Win32,15.01501502,67c045fa5074c5500ca40e76,69b95efdef24cd8a694e89ee,69b9611c14ed213777b39c82,0.3625,0.3626,0,135,135,31,1,fourthree,,,,,,,,,,,,,,,,,,,,,,,,,,,,,,,,,,,,,,,,,,,,,,,,,,,,,,,,,,,,,,,,,,,,,,,,,,,,,,,,,,,,,,,,,,,,,,,,,,,,,,,,,,,,,,,,,,,,,,,,,,,,,,,,,,,,,,,,,
,,67c045fa5074c5500ca40e76,2026-03-17_16h31.39.524,kallum_motion_pilot_GIST_update_2,2026.1.1,Win32,15.01501502,67c045fa5074c5500ca40e76,69b95efdef24cd8a694e89ee,69b9611c14ed213777b39c82,0.3631,0.3631,0,136,136,158,1,eightsix,,,,,,,,,,,,,,,,,,,,,,,,,,,,,,,,,,,,,,,,,,,,,,,,,,,,,,,,,,,,,,,,,,,,,,,,,,,,,,,,,,,,,,,,,,,,,,,,,,,,,,,,,,,,,,,,,,,,,,,,,,,,,,,,,,,,,,,,,
,,67c045fa5074c5500ca40e76,2026-03-17_16h31.39.524,kallum_motion_pilot_GIST_update_2,2026.1.1,Win32,15.01501502,67c045fa5074c5500ca40e76,69b95efdef24cd8a694e89ee,69b9611c14ed213777b39c82,0.3637,0.3638,0,137,137,25,1,onethree,,,,,,,,,,,,,,,,,,,,,,,,,,,,,,,,,,,,,,,,,,,,,,,,,,,,,,,,,,,,,,,,,,,,,,,,,,,,,,,,,,,,,,,,,,,,,,,,,,,,,,,,,,,,,,,,,,,,,,,,,,,,,,,,,,,,,,,,,
,,67c045fa5074c5500ca40e76,2026-03-17_16h31.39.524,kallum_motion_pilot_GIST_update_2,2026.1.1,Win32,15.01501502,67c045fa5074c5500ca40e76,69b95efdef24cd8a694e89ee,69b9611c14ed213777b39c82,0.3643,0.3643,0,138,138,85,1,seveneight,,,,,,,,,,,,,,,,,,,,,,,,,,,,,,,,,,,,,,,,,,,,,,,,,,,,,,,,,,,,,,,,,,,,,,,,,,,,,,,,,,,,,,,,,,,,,,,,,,,,,,,,,,,,,,,,,,,,,,,,,,,,,,,,,,,,,,,,,
,,67c045fa5074c5500ca40e76,2026-03-17_16h31.39.524,kallum_motion_pilot_GIST_update_2,2026.1.1,Win32,15.01501502,67c045fa5074c5500ca40e76,69b95efdef24cd8a694e89ee,69b9611c14ed213777b39c82,0.3649,0.365,0,139,139,125,1,seveneight,,,,,,,,,,,,,,,,,,,,,,,,,,,,,,,,,,,,,,,,,,,,,,,,,,,,,,,,,,,,,,,,,,,,,,,,,,,,,,,,,,,,,,,,,,,,,,,,,,,,,,,,,,,,,,,,,,,,,,,,,,,,,,,,,,,,,,,,,
,,67c045fa5074c5500ca40e76,2026-03-17_16h31.39.524,kallum_motion_pilot_GIST_update_2,2026.1.1,Win32,15.01501502,67c045fa5074c5500ca40e76,69b95efdef24cd8a694e89ee,69b9611c14ed213777b39c82,0.3656,0.3656,0,140,140,71,1,fourthree,,,,,,,,,,,,,,,,,,,,,,,,,,,,,,,,,,,,,,,,,,,,,,,,,,,,,,,,,,,,,,,,,,,,,,,,,,,,,,,,,,,,,,,,,,,,,,,,,,,,,,,,,,,,,,,,,,,,,,,,,,,,,,,,,,,,,,,,,
,,67c045fa5074c5500ca40e76,2026-03-17_16h31.39.524,kallum_motion_pilot_GIST_update_2,2026.1.1,Win32,15.01501502,67c045fa5074c5500ca40e76,69b95efdef24cd8a694e89ee,69b9611c14ed213777b39c82,0.3663,0.3663,0,141,141,26,1,twoone,,,,,,,,,,,,,,,,,,,,,,,,,,,,,,,,,,,,,,,,,,,,,,,,,,,,,,,,,,,,,,,,,,,,,,,,,,,,,,,,,,,,,,,,,,,,,,,,,,,,,,,,,,,,,,,,,,,,,,,,,,,,,,,,,,,,,,,,,
,,67c045fa5074c5500ca40e76,2026-03-17_16h31.39.524,kallum_motion_pilot_GIST_update_2,2026.1.1,Win32,15.01501502,67c045fa5074c5500ca40e76,69b95efdef24cd8a694e89ee,69b9611c14ed213777b39c82,0.3668,0.3668,0,142,142,90,1,sixfive,,,,,,,,,,,,,,,,,,,,,,,,,,,,,,,,,,,,,,,,,,,,,,,,,,,,,,,,,,,,,,,,,,,,,,,,,,,,,,,,,,,,,,,,,,,,,,,,,,,,,,,,,,,,,,,,,,,,,,,,,,,,,,,,,,,,,,,,,
,,67c045fa5074c5500ca40e76,2026-03-17_16h31.39.524,kallum_motion_pilot_GIST_update_2,2026.1.1,Win32,15.01501502,67c045fa5074c5500ca40e76,69b95efdef24cd8a694e89ee,69b9611c14ed213777b39c82,0.3675,0.3675,0,143,143,21,1,threefour,,,,,,,,,,,,,,,,,,,,,,,,,,,,,,,,,,,,,,,,,,,,,,,,,,,,,,,,,,,,,,,,,,,,,,,,,,,,,,,,,,,,,,,,,,,,,,,,,,,,,,,,,,,,,,,,,,,,,,,,,,,,,,,,,,,,,,,,,
,,67c045fa5074c5500ca40e76,2026-03-17_16h31.39.524,kallum_motion_pilot_GIST_update_2,2026.1.1,Win32,15.01501502,67c045fa5074c5500ca40e76,69b95efdef24cd8a694e89ee,69b9611c14ed213777b39c82,0.3682,0.3682,0,144,144,76,1,threeone,,,,,,,,,,,,,,,,,,,,,,,,,,,,,,,,,,,,,,,,,,,,,,,,,,,,,,,,,,,,,,,,,,,,,,,,,,,,,,,,,,,,,,,,,,,,,,,,,,,,,,,,,,,,,,,,,,,,,,,,,,,,,,,,,,,,,,,,,
,,67c045fa5074c5500ca40e76,2026-03-17_16h31.39.524,kallum_motion_pilot_GIST_update_2,2026.1.1,Win32,15.01501502,67c045fa5074c5500ca40e76,69b95efdef24cd8a694e89ee,69b9611c14ed213777b39c82,0.3688,0.3689,0,145,145,129,1,fiveseven,,,,,,,,,,,,,,,,,,,,,,,,,,,,,,,,,,,,,,,,,,,,,,,,,,,,,,,,,,,,,,,,,,,,,,,,,,,,,,,,,,,,,,,,,,,,,,,,,,,,,,,,,,,,,,,,,,,,,,,,,,,,,,,,,,,,,,,,,
,,67c045fa5074c5500ca40e76,2026-03-17_16h31.39.524,kallum_motion_pilot_GIST_update_2,2026.1.1,Win32,15.01501502,67c045fa5074c5500ca40e76,69b95efdef24cd8a694e89ee,69b9611c14ed213777b39c82,0.3701,0.3702,0,146,146,28,1,threeone,,,,,,,,,,,,,,,,,,,,,,,,,,,,,,,,,,,,,,,,,,,,,,,,,,,,,,,,,,,,,,,,,,,,,,,,,,,,,,,,,,,,,,,,,,,,,,,,,,,,,,,,,,,,,,,,,,,,,,,,,,,,,,,,,,,,,,,,,
,,67c045fa5074c5500ca40e76,2026-03-17_16h31.39.524,kallum_motion_pilot_GIST_update_2,2026.1.1,Win32,15.01501502,67c045fa5074c5500ca40e76,69b95efdef24cd8a694e89ee,69b9611c14ed213777b39c82,0.3708,0.3709,0,147,147,22,1,fourtwo,,,,,,,,,,,,,,,,,,,,,,,,,,,,,,,,,,,,,,,,,,,,,,,,,,,,,,,,,,,,,,,,,,,,,,,,,,,,,,,,,,,,,,,,,,,,,,,,,,,,,,,,,,,,,,,,,,,,,,,,,,,,,,,,,,,,,,,,,
,,67c045fa5074c5500ca40e76,2026-03-17_16h31.39.524,kallum_motion_pilot_GIST_update_2,2026.1.1,Win32,15.01501502,67c045fa5074c5500ca40e76,69b95efdef24cd8a694e89ee,69b9611c14ed213777b39c82,0.3715,0.3716,0,148,148,62,1,fourtwo,,,,,,,,,,,,,,,,,,,,,,,,,,,,,,,,,,,,,,,,,,,,,,,,,,,,,,,,,,,,,,,,,,,,,,,,,,,,,,,,,,,,,,,,,,,,,,,,,,,,,,,,,,,,,,,,,,,,,,,,,,,,,,,,,,,,,,,,,
,,67c045fa5074c5500ca40e76,2026-03-17_16h31.39.524,kallum_motion_pilot_GIST_update_2,2026.1.1,Win32,15.01501502,67c045fa5074c5500ca40e76,69b95efdef24cd8a694e89ee,69b9611c14ed213777b39c82,0.3722,0.3722,0,149,149,40,1,onetwo,,,,,,,,,,,,,,,,,,,,,,,,,,,,,,,,,,,,,,,,,,,,,,,,,,,,,,,,,,,,,,,,,,,,,,,,,,,,,,,,,,,,,,,,,,,,,,,,,,,,,,,,,,,,,,,,,,,,,,,,,,,,,,,,,,,,,,,,,
,,67c045fa5074c5500ca40e76,2026-03-17_16h31.39.524,kallum_motion_pilot_GIST_update_2,2026.1.1,Win32,15.01501502,67c045fa5074c5500ca40e76,69b95efdef24cd8a694e89ee,69b9611c14ed213777b39c82,0.3728,0.3728,0,150,150,120,1,fivesix,,,,,,,,,,,,,,,,,,,,,,,,,,,,,,,,,,,,,,,,,,,,,,,,,,,,,,,,,,,,,,,,,,,,,,,,,,,,,,,,,,,,,,,,,,,,,,,,,,,,,,,,,,,,,,,,,,,,,,,,,,,,,,,,,,,,,,,,,
,,67c045fa5074c5500ca40e76,2026-03-17_16h31.39.524,kallum_motion_pilot_GIST_update_2,2026.1.1,Win32,15.01501502,67c045fa5074c5500ca40e76,69b95efdef24cd8a694e89ee,69b9611c14ed213777b39c82,0.3733,0.3733,0,151,151,34,1,twoone,,,,,,,,,,,,,,,,,,,,,,,,,,,,,,,,,,,,,,,,,,,,,,,,,,,,,,,,,,,,,,,,,,,,,,,,,,,,,,,,,,,,,,,,,,,,,,,,,,,,,,,,,,,,,,,,,,,,,,,,,,,,,,,,,,,,,,,,,
,,67c045fa5074c5500ca40e76,2026-03-17_16h31.39.524,kallum_motion_pilot_GIST_update_2,2026.1.1,Win32,15.01501502,67c045fa5074c5500ca40e76,69b95efdef24cd8a694e89ee,69b9611c14ed213777b39c82,0.3739,0.3739,0,152,152,74,1,twoone,,,,,,,,,,,,,,,,,,,,,,,,,,,,,,,,,,,,,,,,,,,,,,,,,,,,,,,,,,,,,,,,,,,,,,,,,,,,,,,,,,,,,,,,,,,,,,,,,,,,,,,,,,,,,,,,,,,,,,,,,,,,,,,,,,,,,,,,,
,,67c045fa5074c5500ca40e76,2026-03-17_16h31.39.524,kallum_motion_pilot_GIST_update_2,2026.1.1,Win32,15.01501502,67c045fa5074c5500ca40e76,69b95efdef24cd8a694e89ee,69b9611c14ed213777b39c82,0.3744,0.3744,0,153,153,54,1,fourtwo,,,,,,,,,,,,,,,,,,,,,,,,,,,,,,,,,,,,,,,,,,,,,,,,,,,,,,,,,,,,,,,,,,,,,,,,,,,,,,,,,,,,,,,,,,,,,,,,,,,,,,,,,,,,,,,,,,,,,,,,,,,,,,,,,,,,,,,,,
,,67c045fa5074c5500ca40e76,2026-03-17_16h31.39.524,kallum_motion_pilot_GIST_update_2,2026.1.1,Win32,15.01501502,67c045fa5074c5500ca40e76,69b95efdef24cd8a694e89ee,69b9611c14ed213777b39c82,0.3749,0.3749,0,154,154,14,1,fourtwo,,,,,,,,,,,,,,,,,,,,,,,,,,,,,,,,,,,,,,,,,,,,,,,,,,,,,,,,,,,,,,,,,,,,,,,,,,,,,,,,,,,,,,,,,,,,,,,,,,,,,,,,,,,,,,,,,,,,,,,,,,,,,,,,,,,,,,,,,
,,67c045fa5074c5500ca40e76,2026-03-17_16h31.39.524,kallum_motion_pilot_GIST_update_2,2026.1.1,Win32,15.01501502,67c045fa5074c5500ca40e76,69b95efdef24cd8a694e89ee,69b9611c14ed213777b39c82,0.3755,0.3755,0,155,155,101,1,seveneight,,,,,,,,,,,,,,,,,,,,,,,,,,,,,,,,,,,,,,,,,,,,,,,,,,,,,,,,,,,,,,,,,,,,,,,,,,,,,,,,,,,,,,,,,,,,,,,,,,,,,,,,,,,,,,,,,,,,,,,,,,,,,,,,,,,,,,,,,
,,67c045fa5074c5500ca40e76,2026-03-17_16h31.39.524,kallum_motion_pilot_GIST_update_2,2026.1.1,Win32,15.01501502,67c045fa5074c5500ca40e76,69b95efdef24cd8a694e89ee,69b9611c14ed213777b39c82,0.376,0.3761,0,156,156,91,1,sixeight,,,,,,,,,,,,,,,,,,,,,,,,,,,,,,,,,,,,,,,,,,,,,,,,,,,,,,,,,,,,,,,,,,,,,,,,,,,,,,,,,,,,,,,,,,,,,,,,,,,,,,,,,,,,,,,,,,,,,,,,,,,,,,,,,,,,,,,,,
,,67c045fa5074c5500ca40e76,2026-03-17_16h31.39.524,kallum_motion_pilot_GIST_update_2,2026.1.1,Win32,15.01501502,67c045fa5074c5500ca40e76,69b95efdef24cd8a694e89ee,69b9611c14ed213777b39c82,0.3767,0.3767,0,157,157,94,1,eightsix,,,,,,,,,,,,,,,,,,,,,,,,,,,,,,,,,,,,,,,,,,,,,,,,,,,,,,,,,,,,,,,,,,,,,,,,,,,,,,,,,,,,,,,,,,,,,,,,,,,,,,,,,,,,,,,,,,,,,,,,,,,,,,,,,,,,,,,,,
,,67c045fa5074c5500ca40e76,2026-03-17_16h31.39.524,kallum_motion_pilot_GIST_update_2,2026.1.1,Win32,15.01501502,67c045fa5074c5500ca40e76,69b95efdef24cd8a694e89ee,69b9611c14ed213777b39c82,0.3772,0.3772,0,158,158,124,1,sevenfive,,,,,,,,,,,,,,,,,,,,,,,,,,,,,,,,,,,,,,,,,,,,,,,,,,,,,,,,,,,,,,,,,,,,,,,,,,,,,,,,,,,,,,,,,,,,,,,,,,,,,,,,,,,,,,,,,,,,,,,,,,,,,,,,,,,,,,,,,
,,67c045fa5074c5500ca40e76,2026-03-17_16h31.39.524,kallum_motion_pilot_GIST_update_2,2026.1.1,Win32,15.01501502,67c045fa5074c5500ca40e76,69b95efdef24cd8a694e89ee,69b9611c14ed213777b39c82,0.3785,0.3785,0,159,159,17,1,onethree,,,,,,,,,,,,,,,,,,,,,,,,,,,,,,,,,,,,,,,,,,,,,,,,,,,,,,,,,,,,,,,,,,,,,,,,,,,,,,,,,,,,,,,,,,,,,,,,,,,,,,,,,,,,,,,,,,,,,,,,,,,,,,,,,,,,,,,,,
,,67c045fa5074c5500ca40e76,2026-03-17_16h31.39.524,kallum_motion_pilot_GIST_update_2,2026.1.1,Win32,15.01501502,67c045fa5074c5500ca40e76,69b95efdef24cd8a694e89ee,69b9611c14ed213777b39c82,0.3791,0.3791,0,160,160,123,1,sixeight,,,,,,,,,,,,,,,,,,,,,,,,,,,,,,,,,,,,,,,,,,,,,,,,,,,,,,,,,,,,,,,,,,,,,,,,,,,,,,,,,,,,,,,,,,,,,,,,,,,,,,,,,,,,,,,,,,,,,,,,,,,,,,,,,,,,,,,,,
,,67c045fa5074c5500ca40e76,2026-03-17_16h31.39.524,kallum_motion_pilot_GIST_update_2,2026.1.1,Win32,15.01501502,67c045fa5074c5500ca40e76,69b95efdef24cd8a694e89ee,69b9611c14ed213777b39c82,0.3798,0.3798,0,161,161,20,1,threeone,,,,,,,,,,,,,,,,,,,,,,,,,,,,,,,,,,,,,,,,,,,,,,,,,,,,,,,,,,,,,,,,,,,,,,,,,,,,,,,,,,,,,,,,,,,,,,,,,,,,,,,,,,,,,,,,,,,,,,,,,,,,,,,,,,,,,,,,,
,,67c045fa5074c5500ca40e76,2026-03-17_16h31.39.524,kallum_motion_pilot_GIST_update_2,2026.1.1,Win32,15.01501502,67c045fa5074c5500ca40e76,69b95efdef24cd8a694e89ee,69b9611c14ed213777b39c82,0.3803,0.3804,1,0,162,104,1,fivesix,,,,,,,,,,,,,,,,,,,,,,,,,,,,,,,,,,,,,,,,,,,,,,,,,,,,,,,,,,,,,,,,,,,,,,,,,,,,,,,,,,,,,,,,,,,,,,,,,,,,,,,,,,,,,,,,,,,,,,,,,,,,,,,,,,,,,,,,,
,,67c045fa5074c5500ca40e76,2026-03-17_16h31.39.524,kallum_motion_pilot_GIST_update_2,2026.1.1,Win32,15.01501502,67c045fa5074c5500ca40e76,69b95efdef24cd8a694e89ee,69b9611c14ed213777b39c82,0.3811,0.3811,1,1,163,12,1,threeone,,,,,,,,,,,,,,,,,,,,,,,,,,,,,,,,,,,,,,,,,,,,,,,,,,,,,,,,,,,,,,,,,,,,,,,,,,,,,,,,,,,,,,,,,,,,,,,,,,,,,,,,,,,,,,,,,,,,,,,,,,,,,,,,,,,,,,,,,
,,67c045fa5074c5500ca40e76,2026-03-17_16h31.39.524,kallum_motion_pilot_GIST_update_2,2026.1.1,Win32,15.01501502,67c045fa5074c5500ca40e76,69b95efdef24cd8a694e89ee,69b9611c14ed213777b39c82,0.3817,0.3818,1,2,164,52,1,threeone,,,,,,,,,,,,,,,,,,,,,,,,,,,,,,,,,,,,,,,,,,,,,,,,,,,,,,,,,,,,,,,,,,,,,,,,,,,,,,,,,,,,,,,,,,,,,,,,,,,,,,,,,,,,,,,,,,,,,,,,,,,,,,,,,,,,,,,,,
,,67c045fa5074c5500ca40e76,2026-03-17_16h31.39.524,kallum_motion_pilot_GIST_update_2,2026.1.1,Win32,15.01501502,67c045fa5074c5500ca40e76,69b95efdef24cd8a694e89ee,69b9611c14ed213777b39c82,0.3824,0.3825,1,3,165,131,1,sixeight,,,,,,,,,,,,,,,,,,,,,,,,,,,,,,,,,,,,,,,,,,,,,,,,,,,,,,,,,,,,,,,,,,,,,,,,,,,,,,,,,,,,,,,,,,,,,,,,,,,,,,,,,,,,,,,,,,,,,,,,,,,,,,,,,,,,,,,,,
,,67c045fa5074c5500ca40e76,2026-03-17_16h31.39.524,kallum_motion_pilot_GIST_update_2,2026.1.1,Win32,15.01501502,67c045fa5074c5500ca40e76,69b95efdef24cd8a694e89ee,69b9611c14ed213777b39c82,0.3831,0.3832,1,4,166,133,1,seveneight,,,,,,,,,,,,,,,,,,,,,,,,,,,,,,,,,,,,,,,,,,,,,,,,,,,,,,,,,,,,,,,,,,,,,,,,,,,,,,,,,,,,,,,,,,,,,,,,,,,,,,,,,,,,,,,,,,,,,,,,,,,,,,,,,,,,,,,,,
,,67c045fa5074c5500ca40e76,2026-03-17_16h31.39.524,kallum_motion_pilot_GIST_update_2,2026.1.1,Win32,15.01501502,67c045fa5074c5500ca40e76,69b95efdef24cd8a694e89ee,69b9611c14ed213777b39c82,0.3838,0.3839,1,5,167,55,1,fourthree,,,,,,,,,,,,,,,,,,,,,,,,,,,,,,,,,,,,,,,,,,,,,,,,,,,,,,,,,,,,,,,,,,,,,,,,,,,,,,,,,,,,,,,,,,,,,,,,,,,,,,,,,,,,,,,,,,,,,,,,,,,,,,,,,,,,,,,,,
,,67c045fa5074c5500ca40e76,2026-03-17_16h31.39.524,kallum_motion_pilot_GIST_update_2,2026.1.1,Win32,15.01501502,67c045fa5074c5500ca40e76,69b95efdef24cd8a694e89ee,69b9611c14ed213777b39c82,0.3845,0.3846,1,6,168,4,1,threeone,,,,,,,,,,,,,,,,,,,,,,,,,,,,,,,,,,,,,,,,,,,,,,,,,,,,,,,,,,,,,,,,,,,,,,,,,,,,,,,,,,,,,,,,,,,,,,,,,,,,,,,,,,,,,,,,,,,,,,,,,,,,,,,,,,,,,,,,,
,,67c045fa5074c5500ca40e76,2026-03-17_16h31.39.524,kallum_motion_pilot_GIST_update_2,2026.1.1,Win32,15.01501502,67c045fa5074c5500ca40e76,69b95efdef24cd8a694e89ee,69b9611c14ed213777b39c82,0.385,0.3851,1,7,169,89,1,fiveseven,,,,,,,,,,,,,,,,,,,,,,,,,,,,,,,,,,,,,,,,,,,,,,,,,,,,,,,,,,,,,,,,,,,,,,,,,,,,,,,,,,,,,,,,,,,,,,,,,,,,,,,,,,,,,,,,,,,,,,,,,,,,,,,,,,,,,,,,,
,,67c045fa5074c5500ca40e76,2026-03-17_16h31.39.524,kallum_motion_pilot_GIST_update_2,2026.1.1,Win32,15.01501502,67c045fa5074c5500ca40e76,69b95efdef24cd8a694e89ee,69b9611c14ed213777b39c82,0.3858,0.3859,1,8,170,128,1,fivesix,,,,,,,,,,,,,,,,,,,,,,,,,,,,,,,,,,,,,,,,,,,,,,,,,,,,,,,,,,,,,,,,,,,,,,,,,,,,,,,,,,,,,,,,,,,,,,,,,,,,,,,,,,,,,,,,,,,,,,,,,,,,,,,,,,,,,,,,,
,,67c045fa5074c5500ca40e76,2026-03-17_16h31.39.524,kallum_motion_pilot_GIST_update_2,2026.1.1,Win32,15.01501502,67c045fa5074c5500ca40e76,69b95efdef24cd8a694e89ee,69b9611c14ed213777b39c82,0.387,0.387,1,9,171,138,1,sixfive,,,,,,,,,,,,,,,,,,,,,,,,,,,,,,,,,,,,,,,,,,,,,,,,,,,,,,,,,,,,,,,,,,,,,,,,,,,,,,,,,,,,,,,,,,,,,,,,,,,,,,,,,,,,,,,,,,,,,,,,,,,,,,,,,,,,,,,,,
,,67c045fa5074c5500ca40e76,2026-03-17_16h31.39.524,kallum_motion_pilot_GIST_update_2,2026.1.1,Win32,15.01501502,67c045fa5074c5500ca40e76,69b95efdef24cd8a694e89ee,69b9611c14ed213777b39c82,0.3876,0.3877,1,10,172,40,1,onetwo,,,,,,,,,,,,,,,,,,,,,,,,,,,,,,,,,,,,,,,,,,,,,,,,,,,,,,,,,,,,,,,,,,,,,,,,,,,,,,,,,,,,,,,,,,,,,,,,,,,,,,,,,,,,,,,,,,,,,,,,,,,,,,,,,,,,,,,,,
,,67c045fa5074c5500ca40e76,2026-03-17_16h31.39.524,kallum_motion_pilot_GIST_update_2,2026.1.1,Win32,15.01501502,67c045fa5074c5500ca40e76,69b95efdef24cd8a694e89ee,69b9611c14ed213777b39c82,0.3884,0.3884,1,11,173,25,1,onethree,,,,,,,,,,,,,,,,,,,,,,,,,,,,,,,,,,,,,,,,,,,,,,,,,,,,,,,,,,,,,,,,,,,,,,,,,,,,,,,,,,,,,,,,,,,,,,,,,,,,,,,,,,,,,,,,,,,,,,,,,,,,,,,,,,,,,,,,,
,,67c045fa5074c5500ca40e76,2026-03-17_16h31.39.524,kallum_motion_pilot_GIST_update_2,2026.1.1,Win32,15.01501502,67c045fa5074c5500ca40e76,69b95efdef24cd8a694e89ee,69b9611c14ed213777b39c82,0.3891,0.3892,1,12,174,158,1,eightsix,,,,,,,,,,,,,,,,,,,,,,,,,,,,,,,,,,,,,,,,,,,,,,,,,,,,,,,,,,,,,,,,,,,,,,,,,,,,,,,,,,,,,,,,,,,,,,,,,,,,,,,,,,,,,,,,,,,,,,,,,,,,,,,,,,,,,,,,,
,,67c045fa5074c5500ca40e76,2026-03-17_16h31.39.524,kallum_motion_pilot_GIST_update_2,2026.1.1,Win32,15.01501502,67c045fa5074c5500ca40e76,69b95efdef24cd8a694e89ee,69b9611c14ed213777b39c82,0.3897,0.3897,1,13,175,51,1,twofour,,,,,,,,,,,,,,,,,,,,,,,,,,,,,,,,,,,,,,,,,,,,,,,,,,,,,,,,,,,,,,,,,,,,,,,,,,,,,,,,,,,,,,,,,,,,,,,,,,,,,,,,,,,,,,,,,,,,,,,,,,,,,,,,,,,,,,,,,
,,67c045fa5074c5500ca40e76,2026-03-17_16h31.39.524,kallum_motion_pilot_GIST_update_2,2026.1.1,Win32,15.01501502,67c045fa5074c5500ca40e76,69b95efdef24cd8a694e89ee,69b9611c14ed213777b39c82,0.3903,0.3903,1,14,176,144,1,fivesix,,,,,,,,,,,,,,,,,,,,,,,,,,,,,,,,,,,,,,,,,,,,,,,,,,,,,,,,,,,,,,,,,,,,,,,,,,,,,,,,,,,,,,,,,,,,,,,,,,,,,,,,,,,,,,,,,,,,,,,,,,,,,,,,,,,,,,,,,
,,67c045fa5074c5500ca40e76,2026-03-17_16h31.39.524,kallum_motion_pilot_GIST_update_2,2026.1.1,Win32,15.01501502,67c045fa5074c5500ca40e76,69b95efdef24cd8a694e89ee,69b9611c14ed213777b39c82,0.3909,0.391,1,15,177,66,1,twoone,,,,,,,,,,,,,,,,,,,,,,,,,,,,,,,,,,,,,,,,,,,,,,,,,,,,,,,,,,,,,,,,,,,,,,,,,,,,,,,,,,,,,,,,,,,,,,,,,,,,,,,,,,,,,,,,,,,,,,,,,,,,,,,,,,,,,,,,,
,,67c045fa5074c5500ca40e76,2026-03-17_16h31.39.524,kallum_motion_pilot_GIST_update_2,2026.1.1,Win32,15.01501502,67c045fa5074c5500ca40e76,69b95efdef24cd8a694e89ee,69b9611c14ed213777b39c82,0.3915,0.3915,1,16,178,45,1,threefour,,,,,,,,,,,,,,,,,,,,,,,,,,,,,,,,,,,,,,,,,,,,,,,,,,,,,,,,,,,,,,,,,,,,,,,,,,,,,,,,,,,,,,,,,,,,,,,,,,,,,,,,,,,,,,,,,,,,,,,,,,,,,,,,,,,,,,,,,
,,67c045fa5074c5500ca40e76,2026-03-17_16h31.39.524,kallum_motion_pilot_GIST_update_2,2026.1.1,Win32,15.01501502,67c045fa5074c5500ca40e76,69b95efdef24cd8a694e89ee,69b9611c14ed213777b39c82,0.3921,0.3921,1,17,179,83,1,sixeight,,,,,,,,,,,,,,,,,,,,,,,,,,,,,,,,,,,,,,,,,,,,,,,,,,,,,,,,,,,,,,,,,,,,,,,,,,,,,,,,,,,,,,,,,,,,,,,,,,,,,,,,,,,,,,,,,,,,,,,,,,,,,,,,,,,,,,,,,
,,67c045fa5074c5500ca40e76,2026-03-17_16h31.39.524,kallum_motion_pilot_GIST_update_2,2026.1.1,Win32,15.01501502,67c045fa5074c5500ca40e76,69b95efdef24cd8a694e89ee,69b9611c14ed213777b39c82,0.3927,0.3928,1,18,180,57,1,onethree,,,,,,,,,,,,,,,,,,,,,,,,,,,,,,,,,,,,,,,,,,,,,,,,,,,,,,,,,,,,,,,,,,,,,,,,,,,,,,,,,,,,,,,,,,,,,,,,,,,,,,,,,,,,,,,,,,,,,,,,,,,,,,,,,,,,,,,,,
,,67c045fa5074c5500ca40e76,2026-03-17_16h31.39.524,kallum_motion_pilot_GIST_update_2,2026.1.1,Win32,15.01501502,67c045fa5074c5500ca40e76,69b95efdef24cd8a694e89ee,69b9611c14ed213777b39c82,0.3935,0.3935,1,19,181,47,1,fourthree,,,,,,,,,,,,,,,,,,,,,,,,,,,,,,,,,,,,,,,,,,,,,,,,,,,,,,,,,,,,,,,,,,,,,,,,,,,,,,,,,,,,,,,,,,,,,,,,,,,,,,,,,,,,,,,,,,,,,,,,,,,,,,,,,,,,,,,,,
,,67c045fa5074c5500ca40e76,2026-03-17_16h31.39.524,kallum_motion_pilot_GIST_update_2,2026.1.1,Win32,15.01501502,67c045fa5074c5500ca40e76,69b95efdef24cd8a694e89ee,69b9611c14ed213777b39c82,0.3941,0.3941,1,20,182,30,1,fourtwo,,,,,,,,,,,,,,,,,,,,,,,,,,,,,,,,,,,,,,,,,,,,,,,,,,,,,,,,,,,,,,,,,,,,,,,,,,,,,,,,,,,,,,,,,,,,,,,,,,,,,,,,,,,,,,,,,,,,,,,,,,,,,,,,,,,,,,,,,
,,67c045fa5074c5500ca40e76,2026-03-17_16h31.39.524,kallum_motion_pilot_GIST_update_2,2026.1.1,Win32,15.01501502,67c045fa5074c5500ca40e76,69b95efdef24cd8a694e89ee,69b9611c14ed213777b39c82,0.3947,0.3947,1,21,183,123,1,sixeight,,,,,,,,,,,,,,,,,,,,,,,,,,,,,,,,,,,,,,,,,,,,,,,,,,,,,,,,,,,,,,,,,,,,,,,,,,,,,,,,,,,,,,,,,,,,,,,,,,,,,,,,,,,,,,,,,,,,,,,,,,,,,,,,,,,,,,,,,
,,67c045fa5074c5500ca40e76,2026-03-17_16h31.39.524,kallum_motion_pilot_GIST_update_2,2026.1.1,Win32,15.01501502,67c045fa5074c5500ca40e76,69b95efdef24cd8a694e89ee,69b9611c14ed213777b39c82,0.3952,0.3953,1,22,184,9,1,onethree,,,,,,,,,,,,,,,,,,,,,,,,,,,,,,,,,,,,,,,,,,,,,,,,,,,,,,,,,,,,,,,,,,,,,,,,,,,,,,,,,,,,,,,,,,,,,,,,,,,,,,,,,,,,,,,,,,,,,,,,,,,,,,,,,,,,,,,,,
,,67c045fa5074c5500ca40e76,2026-03-17_16h31.39.524,kallum_motion_pilot_GIST_update_2,2026.1.1,Win32,15.01501502,67c045fa5074c5500ca40e76,69b95efdef24cd8a694e89ee,69b9611c14ed213777b39c82,0.3961,0.3961,1,23,185,71,1,fourthree,,,,,,,,,,,,,,,,,,,,,,,,,,,,,,,,,,,,,,,,,,,,,,,,,,,,,,,,,,,,,,,,,,,,,,,,,,,,,,,,,,,,,,,,,,,,,,,,,,,,,,,,,,,,,,,,,,,,,,,,,,,,,,,,,,,,,,,,,
,,67c045fa5074c5500ca40e76,2026-03-17_16h31.39.524,kallum_motion_pilot_GIST_update_2,2026.1.1,Win32,15.01501502,67c045fa5074c5500ca40e76,69b95efdef24cd8a694e89ee,69b9611c14ed213777b39c82,0.3968,0.3968,1,24,186,159,1,eightseven,,,,,,,,,,,,,,,,,,,,,,,,,,,,,,,,,,,,,,,,,,,,,,,,,,,,,,,,,,,,,,,,,,,,,,,,,,,,,,,,,,,,,,,,,,,,,,,,,,,,,,,,,,,,,,,,,,,,,,,,,,,,,,,,,,,,,,,,,
,,67c045fa5074c5500ca40e76,2026-03-17_16h31.39.524,kallum_motion_pilot_GIST_update_2,2026.1.1,Win32,15.01501502,67c045fa5074c5500ca40e76,69b95efdef24cd8a694e89ee,69b9611c14ed213777b39c82,0.3976,0.3976,1,25,187,110,1,eightsix,,,,,,,,,,,,,,,,,,,,,,,,,,,,,,,,,,,,,,,,,,,,,,,,,,,,,,,,,,,,,,,,,,,,,,,,,,,,,,,,,,,,,,,,,,,,,,,,,,,,,,,,,,,,,,,,,,,,,,,,,,,,,,,,,,,,,,,,,
,,67c045fa5074c5500ca40e76,2026-03-17_16h31.39.524,kallum_motion_pilot_GIST_update_2,2026.1.1,Win32,15.01501502,67c045fa5074c5500ca40e76,69b95efdef24cd8a694e89ee,69b9611c14ed213777b39c82,0.3985,0.3985,1,26,188,73,1,onethree,,,,,,,,,,,,,,,,,,,,,,,,,,,,,,,,,,,,,,,,,,,,,,,,,,,,,,,,,,,,,,,,,,,,,,,,,,,,,,,,,,,,,,,,,,,,,,,,,,,,,,,,,,,,,,,,,,,,,,,,,,,,,,,,,,,,,,,,,
,,67c045fa5074c5500ca40e76,2026-03-17_16h31.39.524,kallum_motion_pilot_GIST_update_2,2026.1.1,Win32,15.01501502,67c045fa5074c5500ca40e76,69b95efdef24cd8a694e89ee,69b9611c14ed213777b39c82,0.3992,0.3992,1,27,189,137,1,fiveseven,,,,,,,,,,,,,,,,,,,,,,,,,,,,,,,,,,,,,,,,,,,,,,,,,,,,,,,,,,,,,,,,,,,,,,,,,,,,,,,,,,,,,,,,,,,,,,,,,,,,,,,,,,,,,,,,,,,,,,,,,,,,,,,,,,,,,,,,,
,,67c045fa5074c5500ca40e76,2026-03-17_16h31.39.524,kallum_motion_pilot_GIST_update_2,2026.1.1,Win32,15.01501502,67c045fa5074c5500ca40e76,69b95efdef24cd8a694e89ee,69b9611c14ed213777b39c82,0.3999,0.3999,1,28,190,111,1,eightseven,,,,,,,,,,,,,,,,,,,,,,,,,,,,,,,,,,,,,,,,,,,,,,,,,,,,,,,,,,,,,,,,,,,,,,,,,,,,,,,,,,,,,,,,,,,,,,,,,,,,,,,,,,,,,,,,,,,,,,,,,,,,,,,,,,,,,,,,,
,,67c045fa5074c5500ca40e76,2026-03-17_16h31.39.524,kallum_motion_pilot_GIST_update_2,2026.1.1,Win32,15.01501502,67c045fa5074c5500ca40e76,69b95efdef24cd8a694e89ee,69b9611c14ed213777b39c82,0.4005,0.4005,1,29,191,69,1,threefour,,,,,,,,,,,,,,,,,,,,,,,,,,,,,,,,,,,,,,,,,,,,,,,,,,,,,,,,,,,,,,,,,,,,,,,,,,,,,,,,,,,,,,,,,,,,,,,,,,,,,,,,,,,,,,,,,,,,,,,,,,,,,,,,,,,,,,,,,
,,67c045fa5074c5500ca40e76,2026-03-17_16h31.39.524,kallum_motion_pilot_GIST_update_2,2026.1.1,Win32,15.01501502,67c045fa5074c5500ca40e76,69b95efdef24cd8a694e89ee,69b9611c14ed213777b39c82,0.4012,0.4013,1,30,192,17,1,onethree,,,,,,,,,,,,,,,,,,,,,,,,,,,,,,,,,,,,,,,,,,,,,,,,,,,,,,,,,,,,,,,,,,,,,,,,,,,,,,,,,,,,,,,,,,,,,,,,,,,,,,,,,,,,,,,,,,,,,,,,,,,,,,,,,,,,,,,,,
,,67c045fa5074c5500ca40e76,2026-03-17_16h31.39.524,kallum_motion_pilot_GIST_update_2,2026.1.1,Win32,15.01501502,67c045fa5074c5500ca40e76,69b95efdef24cd8a694e89ee,69b9611c14ed213777b39c82,0.4019,0.402,1,31,193,31,1,fourthree,,,,,,,,,,,,,,,,,,,,,,,,,,,,,,,,,,,,,,,,,,,,,,,,,,,,,,,,,,,,,,,,,,,,,,,,,,,,,,,,,,,,,,,,,,,,,,,,,,,,,,,,,,,,,,,,,,,,,,,,,,,,,,,,,,,,,,,,,
,,67c045fa5074c5500ca40e76,2026-03-17_16h31.39.524,kallum_motion_pilot_GIST_update_2,2026.1.1,Win32,15.01501502,67c045fa5074c5500ca40e76,69b95efdef24cd8a694e89ee,69b9611c14ed213777b39c82,0.4033,0.4034,1,32,194,91,1,sixeight,,,,,,,,,,,,,,,,,,,,,,,,,,,,,,,,,,,,,,,,,,,,,,,,,,,,,,,,,,,,,,,,,,,,,,,,,,,,,,,,,,,,,,,,,,,,,,,,,,,,,,,,,,,,,,,,,,,,,,,,,,,,,,,,,,,,,,,,,
,,67c045fa5074c5500ca40e76,2026-03-17_16h31.39.524,kallum_motion_pilot_GIST_update_2,2026.1.1,Win32,15.01501502,67c045fa5074c5500ca40e76,69b95efdef24cd8a694e89ee,69b9611c14ed213777b39c82,0.4041,0.4042,1,33,195,65,1,onethree,,,,,,,,,,,,,,,,,,,,,,,,,,,,,,,,,,,,,,,,,,,,,,,,,,,,,,,,,,,,,,,,,,,,,,,,,,,,,,,,,,,,,,,,,,,,,,,,,,,,,,,,,,,,,,,,,,,,,,,,,,,,,,,,,,,,,,,,,
,,67c045fa5074c5500ca40e76,2026-03-17_16h31.39.524,kallum_motion_pilot_GIST_update_2,2026.1.1,Win32,15.01501502,67c045fa5074c5500ca40e76,69b95efdef24cd8a694e89ee,69b9611c14ed213777b39c82,0.4048,0.4048,1,34,196,36,1,threeone,,,,,,,,,,,,,,,,,,,,,,,,,,,,,,,,,,,,,,,,,,,,,,,,,,,,,,,,,,,,,,,,,,,,,,,,,,,,,,,,,,,,,,,,,,,,,,,,,,,,,,,,,,,,,,,,,,,,,,,,,,,,,,,,,,,,,,,,,
,,67c045fa5074c5500ca40e76,2026-03-17_16h31.39.524,kallum_motion_pilot_GIST_update_2,2026.1.1,Win32,15.01501502,67c045fa5074c5500ca40e76,69b95efdef24cd8a694e89ee,69b9611c14ed213777b39c82,0.4055,0.4056,1,35,197,63,1,fourthree,,,,,,,,,,,,,,,,,,,,,,,,,,,,,,,,,,,,,,,,,,,,,,,,,,,,,,,,,,,,,,,,,,,,,,,,,,,,,,,,,,,,,,,,,,,,,,,,,,,,,,,,,,,,,,,,,,,,,,,,,,,,,,,,,,,,,,,,,
,,67c045fa5074c5500ca40e76,2026-03-17_16h31.39.524,kallum_motion_pilot_GIST_update_2,2026.1.1,Win32,15.01501502,67c045fa5074c5500ca40e76,69b95efdef24cd8a694e89ee,69b9611c14ed213777b39c82,0.4063,0.4064,1,36,198,151,1,eightseven,,,,,,,,,,,,,,,,,,,,,,,,,,,,,,,,,,,,,,,,,,,,,,,,,,,,,,,,,,,,,,,,,,,,,,,,,,,,,,,,,,,,,,,,,,,,,,,,,,,,,,,,,,,,,,,,,,,,,,,,,,,,,,,,,,,,,,,,,
,,67c045fa5074c5500ca40e76,2026-03-17_16h31.39.524,kallum_motion_pilot_GIST_update_2,2026.1.1,Win32,15.01501502,67c045fa5074c5500ca40e76,69b95efdef24cd8a694e89ee,69b9611c14ed213777b39c82,0.407,0.4071,1,37,199,3,1,twofour,,,,,,,,,,,,,,,,,,,,,,,,,,,,,,,,,,,,,,,,,,,,,,,,,,,,,,,,,,,,,,,,,,,,,,,,,,,,,,,,,,,,,,,,,,,,,,,,,,,,,,,,,,,,,,,,,,,,,,,,,,,,,,,,,,,,,,,,,
,,67c045fa5074c5500ca40e76,2026-03-17_16h31.39.524,kallum_motion_pilot_GIST_update_2,2026.1.1,Win32,15.01501502,67c045fa5074c5500ca40e76,69b95efdef24cd8a694e89ee,69b9611c14ed213777b39c82,0.4078,0.408,1,38,200,113,1,fiveseven,,,,,,,,,,,,,,,,,,,,,,,,,,,,,,,,,,,,,,,,,,,,,,,,,,,,,,,,,,,,,,,,,,,,,,,,,,,,,,,,,,,,,,,,,,,,,,,,,,,,,,,,,,,,,,,,,,,,,,,,,,,,,,,,,,,,,,,,,
,,67c045fa5074c5500ca40e76,2026-03-17_16h31.39.524,kallum_motion_pilot_GIST_update_2,2026.1.1,Win32,15.01501502,67c045fa5074c5500ca40e76,69b95efdef24cd8a694e89ee,69b9611c14ed213777b39c82,0.4087,0.4088,1,39,201,140,1,sevenfive,,,,,,,,,,,,,,,,,,,,,,,,,,,,,,,,,,,,,,,,,,,,,,,,,,,,,,,,,,,,,,,,,,,,,,,,,,,,,,,,,,,,,,,,,,,,,,,,,,,,,,,,,,,,,,,,,,,,,,,,,,,,,,,,,,,,,,,,,
,,67c045fa5074c5500ca40e76,2026-03-17_16h31.39.524,kallum_motion_pilot_GIST_update_2,2026.1.1,Win32,15.01501502,67c045fa5074c5500ca40e76,69b95efdef24cd8a694e89ee,69b9611c14ed213777b39c82,0.4095,0.4095,1,40,202,134,1,eightsix,,,,,,,,,,,,,,,,,,,,,,,,,,,,,,,,,,,,,,,,,,,,,,,,,,,,,,,,,,,,,,,,,,,,,,,,,,,,,,,,,,,,,,,,,,,,,,,,,,,,,,,,,,,,,,,,,,,,,,,,,,,,,,,,,,,,,,,,,
,,67c045fa5074c5500ca40e76,2026-03-17_16h31.39.524,kallum_motion_pilot_GIST_update_2,2026.1.1,Win32,15.01501502,67c045fa5074c5500ca40e76,69b95efdef24cd8a694e89ee,69b9611c14ed213777b39c82,0.4102,0.4103,1,41,203,120,1,fivesix,,,,,,,,,,,,,,,,,,,,,,,,,,,,,,,,,,,,,,,,,,,,,,,,,,,,,,,,,,,,,,,,,,,,,,,,,,,,,,,,,,,,,,,,,,,,,,,,,,,,,,,,,,,,,,,,,,,,,,,,,,,,,,,,,,,,,,,,,
,,67c045fa5074c5500ca40e76,2026-03-17_16h31.39.524,kallum_motion_pilot_GIST_update_2,2026.1.1,Win32,15.01501502,67c045fa5074c5500ca40e76,69b95efdef24cd8a694e89ee,69b9611c14ed213777b39c82,0.4108,0.4109,1,42,204,152,1,fivesix,,,,,,,,,,,,,,,,,,,,,,,,,,,,,,,,,,,,,,,,,,,,,,,,,,,,,,,,,,,,,,,,,,,,,,,,,,,,,,,,,,,,,,,,,,,,,,,,,,,,,,,,,,,,,,,,,,,,,,,,,,,,,,,,,,,,,,,,,
,,67c045fa5074c5500ca40e76,2026-03-17_16h31.39.524,kallum_motion_pilot_GIST_update_2,2026.1.1,Win32,15.01501502,67c045fa5074c5500ca40e76,69b95efdef24cd8a694e89ee,69b9611c14ed213777b39c82,0.4114,0.4115,1,43,205,160,1,fivesix,,,,,,,,,,,,,,,,,,,,,,,,,,,,,,,,,,,,,,,,,,,,,,,,,,,,,,,,,,,,,,,,,,,,,,,,,,,,,,,,,,,,,,,,,,,,,,,,,,,,,,,,,,,,,,,,,,,,,,,,,,,,,,,,,,,,,,,,,
,,67c045fa5074c5500ca40e76,2026-03-17_16h31.39.524,kallum_motion_pilot_GIST_update_2,2026.1.1,Win32,15.01501502,67c045fa5074c5500ca40e76,69b95efdef24cd8a694e89ee,69b9611c14ed213777b39c82,0.4121,0.4121,1,44,206,84,1,sevenfive,,,,,,,,,,,,,,,,,,,,,,,,,,,,,,,,,,,,,,,,,,,,,,,,,,,,,,,,,,,,,,,,,,,,,,,,,,,,,,,,,,,,,,,,,,,,,,,,,,,,,,,,,,,,,,,,,,,,,,,,,,,,,,,,,,,,,,,,,
,,67c045fa5074c5500ca40e76,2026-03-17_16h31.39.524,kallum_motion_pilot_GIST_update_2,2026.1.1,Win32,15.01501502,67c045fa5074c5500ca40e76,69b95efdef24cd8a694e89ee,69b9611c14ed213777b39c82,0.4127,0.4127,1,45,207,105,1,fiveseven,,,,,,,,,,,,,,,,,,,,,,,,,,,,,,,,,,,,,,,,,,,,,,,,,,,,,,,,,,,,,,,,,,,,,,,,,,,,,,,,,,,,,,,,,,,,,,,,,,,,,,,,,,,,,,,,,,,,,,,,,,,,,,,,,,,,,,,,,
,,67c045fa5074c5500ca40e76,2026-03-17_16h31.39.524,kallum_motion_pilot_GIST_update_2,2026.1.1,Win32,15.01501502,67c045fa5074c5500ca40e76,69b95efdef24cd8a694e89ee,69b9611c14ed213777b39c82,0.4132,0.4133,1,46,208,99,1,sixeight,,,,,,,,,,,,,,,,,,,,,,,,,,,,,,,,,,,,,,,,,,,,,,,,,,,,,,,,,,,,,,,,,,,,,,,,,,,,,,,,,,,,,,,,,,,,,,,,,,,,,,,,,,,,,,,,,,,,,,,,,,,,,,,,,,,,,,,,,
,,67c045fa5074c5500ca40e76,2026-03-17_16h31.39.524,kallum_motion_pilot_GIST_update_2,2026.1.1,Win32,15.01501502,67c045fa5074c5500ca40e76,69b95efdef24cd8a694e89ee,69b9611c14ed213777b39c82,0.4139,0.414,1,47,209,48,1,onetwo,,,,,,,,,,,,,,,,,,,,,,,,,,,,,,,,,,,,,,,,,,,,,,,,,,,,,,,,,,,,,,,,,,,,,,,,,,,,,,,,,,,,,,,,,,,,,,,,,,,,,,,,,,,,,,,,,,,,,,,,,,,,,,,,,,,,,,,,,
,,67c045fa5074c5500ca40e76,2026-03-17_16h31.39.524,kallum_motion_pilot_GIST_update_2,2026.1.1,Win32,15.01501502,67c045fa5074c5500ca40e76,69b95efdef24cd8a694e89ee,69b9611c14ed213777b39c82,0.4145,0.4146,1,48,210,94,1,eightsix,,,,,,,,,,,,,,,,,,,,,,,,,,,,,,,,,,,,,,,,,,,,,,,,,,,,,,,,,,,,,,,,,,,,,,,,,,,,,,,,,,,,,,,,,,,,,,,,,,,,,,,,,,,,,,,,,,,,,,,,,,,,,,,,,,,,,,,,,
,,67c045fa5074c5500ca40e76,2026-03-17_16h31.39.524,kallum_motion_pilot_GIST_update_2,2026.1.1,Win32,15.01501502,67c045fa5074c5500ca40e76,69b95efdef24cd8a694e89ee,69b9611c14ed213777b39c82,0.4152,0.4152,1,49,211,82,1,sixfive,,,,,,,,,,,,,,,,,,,,,,,,,,,,,,,,,,,,,,,,,,,,,,,,,,,,,,,,,,,,,,,,,,,,,,,,,,,,,,,,,,,,,,,,,,,,,,,,,,,,,,,,,,,,,,,,,,,,,,,,,,,,,,,,,,,,,,,,,
,,67c045fa5074c5500ca40e76,2026-03-17_16h31.39.524,kallum_motion_pilot_GIST_update_2,2026.1.1,Win32,15.01501502,67c045fa5074c5500ca40e76,69b95efdef24cd8a694e89ee,69b9611c14ed213777b39c82,0.4158,0.4158,1,50,212,22,1,fourtwo,,,,,,,,,,,,,,,,,,,,,,,,,,,,,,,,,,,,,,,,,,,,,,,,,,,,,,,,,,,,,,,,,,,,,,,,,,,,,,,,,,,,,,,,,,,,,,,,,,,,,,,,,,,,,,,,,,,,,,,,,,,,,,,,,,,,,,,,,
,,67c045fa5074c5500ca40e76,2026-03-17_16h31.39.524,kallum_motion_pilot_GIST_update_2,2026.1.1,Win32,15.01501502,67c045fa5074c5500ca40e76,69b95efdef24cd8a694e89ee,69b9611c14ed213777b39c82,0.4166,0.4166,1,51,213,43,1,twofour,,,,,,,,,,,,,,,,,,,,,,,,,,,,,,,,,,,,,,,,,,,,,,,,,,,,,,,,,,,,,,,,,,,,,,,,,,,,,,,,,,,,,,,,,,,,,,,,,,,,,,,,,,,,,,,,,,,,,,,,,,,,,,,,,,,,,,,,,
,,67c045fa5074c5500ca40e76,2026-03-17_16h31.39.524,kallum_motion_pilot_GIST_update_2,2026.1.1,Win32,15.01501502,67c045fa5074c5500ca40e76,69b95efdef24cd8a694e89ee,69b9611c14ed213777b39c82,0.4172,0.4172,1,52,214,153,1,fiveseven,,,,,,,,,,,,,,,,,,,,,,,,,,,,,,,,,,,,,,,,,,,,,,,,,,,,,,,,,,,,,,,,,,,,,,,,,,,,,,,,,,,,,,,,,,,,,,,,,,,,,,,,,,,,,,,,,,,,,,,,,,,,,,,,,,,,,,,,,
,,67c045fa5074c5500ca40e76,2026-03-17_16h31.39.524,kallum_motion_pilot_GIST_update_2,2026.1.1,Win32,15.01501502,67c045fa5074c5500ca40e76,69b95efdef24cd8a694e89ee,69b9611c14ed213777b39c82,0.4178,0.4179,1,53,215,161,1,fiveseven,,,,,,,,,,,,,,,,,,,,,,,,,,,,,,,,,,,,,,,,,,,,,,,,,,,,,,,,,,,,,,,,,,,,,,,,,,,,,,,,,,,,,,,,,,,,,,,,,,,,,,,,,,,,,,,,,,,,,,,,,,,,,,,,,,,,,,,,,
,,67c045fa5074c5500ca40e76,2026-03-17_16h31.39.524,kallum_motion_pilot_GIST_update_2,2026.1.1,Win32,15.01501502,67c045fa5074c5500ca40e76,69b95efdef24cd8a694e89ee,69b9611c14ed213777b39c82,0.4186,0.4187,1,54,216,115,1,sixeight,,,,,,,,,,,,,,,,,,,,,,,,,,,,,,,,,,,,,,,,,,,,,,,,,,,,,,,,,,,,,,,,,,,,,,,,,,,,,,,,,,,,,,,,,,,,,,,,,,,,,,,,,,,,,,,,,,,,,,,,,,,,,,,,,,,,,,,,,
,,67c045fa5074c5500ca40e76,2026-03-17_16h31.39.524,kallum_motion_pilot_GIST_update_2,2026.1.1,Win32,15.01501502,67c045fa5074c5500ca40e76,69b95efdef24cd8a694e89ee,69b9611c14ed213777b39c82,0.4192,0.4192,1,55,217,146,1,sixfive,,,,,,,,,,,,,,,,,,,,,,,,,,,,,,,,,,,,,,,,,,,,,,,,,,,,,,,,,,,,,,,,,,,,,,,,,,,,,,,,,,,,,,,,,,,,,,,,,,,,,,,,,,,,,,,,,,,,,,,,,,,,,,,,,,,,,,,,,
,,67c045fa5074c5500ca40e76,2026-03-17_16h31.39.524,kallum_motion_pilot_GIST_update_2,2026.1.1,Win32,15.01501502,67c045fa5074c5500ca40e76,69b95efdef24cd8a694e89ee,69b9611c14ed213777b39c82,0.4204,0.4205,1,56,218,18,1,twoone,,,,,,,,,,,,,,,,,,,,,,,,,,,,,,,,,,,,,,,,,,,,,,,,,,,,,,,,,,,,,,,,,,,,,,,,,,,,,,,,,,,,,,,,,,,,,,,,,,,,,,,,,,,,,,,,,,,,,,,,,,,,,,,,,,,,,,,,,
,,67c045fa5074c5500ca40e76,2026-03-17_16h31.39.524,kallum_motion_pilot_GIST_update_2,2026.1.1,Win32,15.01501502,67c045fa5074c5500ca40e76,69b95efdef24cd8a694e89ee,69b9611c14ed213777b39c82,0.4211,0.4211,1,57,219,41,1,onethree,,,,,,,,,,,,,,,,,,,,,,,,,,,,,,,,,,,,,,,,,,,,,,,,,,,,,,,,,,,,,,,,,,,,,,,,,,,,,,,,,,,,,,,,,,,,,,,,,,,,,,,,,,,,,,,,,,,,,,,,,,,,,,,,,,,,,,,,,
,,67c045fa5074c5500ca40e76,2026-03-17_16h31.39.524,kallum_motion_pilot_GIST_update_2,2026.1.1,Win32,15.01501502,67c045fa5074c5500ca40e76,69b95efdef24cd8a694e89ee,69b9611c14ed213777b39c82,0.4216,0.4217,1,58,220,11,1,twofour,,,,,,,,,,,,,,,,,,,,,,,,,,,,,,,,,,,,,,,,,,,,,,,,,,,,,,,,,,,,,,,,,,,,,,,,,,,,,,,,,,,,,,,,,,,,,,,,,,,,,,,,,,,,,,,,,,,,,,,,,,,,,,,,,,,,,,,,,
,,67c045fa5074c5500ca40e76,2026-03-17_16h31.39.524,kallum_motion_pilot_GIST_update_2,2026.1.1,Win32,15.01501502,67c045fa5074c5500ca40e76,69b95efdef24cd8a694e89ee,69b9611c14ed213777b39c82,0.4223,0.4223,1,59,221,27,1,twofour,,,,,,,,,,,,,,,,,,,,,,,,,,,,,,,,,,,,,,,,,,,,,,,,,,,,,,,,,,,,,,,,,,,,,,,,,,,,,,,,,,,,,,,,,,,,,,,,,,,,,,,,,,,,,,,,,,,,,,,,,,,,,,,,,,,,,,,,,
,,67c045fa5074c5500ca40e76,2026-03-17_16h31.39.524,kallum_motion_pilot_GIST_update_2,2026.1.1,Win32,15.01501502,67c045fa5074c5500ca40e76,69b95efdef24cd8a694e89ee,69b9611c14ed213777b39c82,0.4229,0.4229,1,60,222,32,1,onetwo,,,,,,,,,,,,,,,,,,,,,,,,,,,,,,,,,,,,,,,,,,,,,,,,,,,,,,,,,,,,,,,,,,,,,,,,,,,,,,,,,,,,,,,,,,,,,,,,,,,,,,,,,,,,,,,,,,,,,,,,,,,,,,,,,,,,,,,,,
,,67c045fa5074c5500ca40e76,2026-03-17_16h31.39.524,kallum_motion_pilot_GIST_update_2,2026.1.1,Win32,15.01501502,67c045fa5074c5500ca40e76,69b95efdef24cd8a694e89ee,69b9611c14ed213777b39c82,0.4235,0.4235,1,61,223,58,1,twoone,,,,,,,,,,,,,,,,,,,,,,,,,,,,,,,,,,,,,,,,,,,,,,,,,,,,,,,,,,,,,,,,,,,,,,,,,,,,,,,,,,,,,,,,,,,,,,,,,,,,,,,,,,,,,,,,,,,,,,,,,,,,,,,,,,,,,,,,,
,,67c045fa5074c5500ca40e76,2026-03-17_16h31.39.524,kallum_motion_pilot_GIST_update_2,2026.1.1,Win32,15.01501502,67c045fa5074c5500ca40e76,69b95efdef24cd8a694e89ee,69b9611c14ed213777b39c82,0.4241,0.4241,1,62,224,79,1,eightseven,,,,,,,,,,,,,,,,,,,,,,,,,,,,,,,,,,,,,,,,,,,,,,,,,,,,,,,,,,,,,,,,,,,,,,,,,,,,,,,,,,,,,,,,,,,,,,,,,,,,,,,,,,,,,,,,,,,,,,,,,,,,,,,,,,,,,,,,,
,,67c045fa5074c5500ca40e76,2026-03-17_16h31.39.524,kallum_motion_pilot_GIST_update_2,2026.1.1,Win32,15.01501502,67c045fa5074c5500ca40e76,69b95efdef24cd8a694e89ee,69b9611c14ed213777b39c82,0.4247,0.4248,1,63,225,44,1,threeone,,,,,,,,,,,,,,,,,,,,,,,,,,,,,,,,,,,,,,,,,,,,,,,,,,,,,,,,,,,,,,,,,,,,,,,,,,,,,,,,,,,,,,,,,,,,,,,,,,,,,,,,,,,,,,,,,,,,,,,,,,,,,,,,,,,,,,,,,
,,67c045fa5074c5500ca40e76,2026-03-17_16h31.39.524,kallum_motion_pilot_GIST_update_2,2026.1.1,Win32,15.01501502,67c045fa5074c5500ca40e76,69b95efdef24cd8a694e89ee,69b9611c14ed213777b39c82,0.4255,0.4255,1,64,226,50,1,twoone,,,,,,,,,,,,,,,,,,,,,,,,,,,,,,,,,,,,,,,,,,,,,,,,,,,,,,,,,,,,,,,,,,,,,,,,,,,,,,,,,,,,,,,,,,,,,,,,,,,,,,,,,,,,,,,,,,,,,,,,,,,,,,,,,,,,,,,,,
,,67c045fa5074c5500ca40e76,2026-03-17_16h31.39.524,kallum_motion_pilot_GIST_update_2,2026.1.1,Win32,15.01501502,67c045fa5074c5500ca40e76,69b95efdef24cd8a694e89ee,69b9611c14ed213777b39c82,0.4262,0.4262,1,65,227,93,1,seveneight,,,,,,,,,,,,,,,,,,,,,,,,,,,,,,,,,,,,,,,,,,,,,,,,,,,,,,,,,,,,,,,,,,,,,,,,,,,,,,,,,,,,,,,,,,,,,,,,,,,,,,,,,,,,,,,,,,,,,,,,,,,,,,,,,,,,,,,,,
,,67c045fa5074c5500ca40e76,2026-03-17_16h31.39.524,kallum_motion_pilot_GIST_update_2,2026.1.1,Win32,15.01501502,67c045fa5074c5500ca40e76,69b95efdef24cd8a694e89ee,69b9611c14ed213777b39c82,0.4268,0.4268,1,66,228,29,1,threefour,,,,,,,,,,,,,,,,,,,,,,,,,,,,,,,,,,,,,,,,,,,,,,,,,,,,,,,,,,,,,,,,,,,,,,,,,,,,,,,,,,,,,,,,,,,,,,,,,,,,,,,,,,,,,,,,,,,,,,,,,,,,,,,,,,,,,,,,,
,,67c045fa5074c5500ca40e76,2026-03-17_16h31.39.524,kallum_motion_pilot_GIST_update_2,2026.1.1,Win32,15.01501502,67c045fa5074c5500ca40e76,69b95efdef24cd8a694e89ee,69b9611c14ed213777b39c82,0.4274,0.4274,1,67,229,116,1,sevenfive,,,,,,,,,,,,,,,,,,,,,,,,,,,,,,,,,,,,,,,,,,,,,,,,,,,,,,,,,,,,,,,,,,,,,,,,,,,,,,,,,,,,,,,,,,,,,,,,,,,,,,,,,,,,,,,,,,,,,,,,,,,,,,,,,,,,,,,,,
,,67c045fa5074c5500ca40e76,2026-03-17_16h31.39.524,kallum_motion_pilot_GIST_update_2,2026.1.1,Win32,15.01501502,67c045fa5074c5500ca40e76,69b95efdef24cd8a694e89ee,69b9611c14ed213777b39c82,0.428,0.428,1,68,230,90,1,sixfive,,,,,,,,,,,,,,,,,,,,,,,,,,,,,,,,,,,,,,,,,,,,,,,,,,,,,,,,,,,,,,,,,,,,,,,,,,,,,,,,,,,,,,,,,,,,,,,,,,,,,,,,,,,,,,,,,,,,,,,,,,,,,,,,,,,,,,,,,
,,67c045fa5074c5500ca40e76,2026-03-17_16h31.39.524,kallum_motion_pilot_GIST_update_2,2026.1.1,Win32,15.01501502,67c045fa5074c5500ca40e76,69b95efdef24cd8a694e89ee,69b9611c14ed213777b39c82,0.4288,0.4288,1,69,231,154,1,sixfive,,,,,,,,,,,,,,,,,,,,,,,,,,,,,,,,,,,,,,,,,,,,,,,,,,,,,,,,,,,,,,,,,,,,,,,,,,,,,,,,,,,,,,,,,,,,,,,,,,,,,,,,,,,,,,,,,,,,,,,,,,,,,,,,,,,,,,,,,
,,67c045fa5074c5500ca40e76,2026-03-17_16h31.39.524,kallum_motion_pilot_GIST_update_2,2026.1.1,Win32,15.01501502,67c045fa5074c5500ca40e76,69b95efdef24cd8a694e89ee,69b9611c14ed213777b39c82,0.4294,0.4295,1,70,232,88,1,fivesix,,,,,,,,,,,,,,,,,,,,,,,,,,,,,,,,,,,,,,,,,,,,,,,,,,,,,,,,,,,,,,,,,,,,,,,,,,,,,,,,,,,,,,,,,,,,,,,,,,,,,,,,,,,,,,,,,,,,,,,,,,,,,,,,,,,,,,,,,
,,67c045fa5074c5500ca40e76,2026-03-17_16h31.39.524,kallum_motion_pilot_GIST_update_2,2026.1.1,Win32,15.01501502,67c045fa5074c5500ca40e76,69b95efdef24cd8a694e89ee,69b9611c14ed213777b39c82,0.43,0.43,1,71,233,49,1,onethree,,,,,,,,,,,,,,,,,,,,,,,,,,,,,,,,,,,,,,,,,,,,,,,,,,,,,,,,,,,,,,,,,,,,,,,,,,,,,,,,,,,,,,,,,,,,,,,,,,,,,,,,,,,,,,,,,,,,,,,,,,,,,,,,,,,,,,,,,
,,67c045fa5074c5500ca40e76,2026-03-17_16h31.39.524,kallum_motion_pilot_GIST_update_2,2026.1.1,Win32,15.01501502,67c045fa5074c5500ca40e76,69b95efdef24cd8a694e89ee,69b9611c14ed213777b39c82,0.4307,0.4307,1,72,234,46,1,fourtwo,,,,,,,,,,,,,,,,,,,,,,,,,,,,,,,,,,,,,,,,,,,,,,,,,,,,,,,,,,,,,,,,,,,,,,,,,,,,,,,,,,,,,,,,,,,,,,,,,,,,,,,,,,,,,,,,,,,,,,,,,,,,,,,,,,,,,,,,,
,,67c045fa5074c5500ca40e76,2026-03-17_16h31.39.524,kallum_motion_pilot_GIST_update_2,2026.1.1,Win32,15.01501502,67c045fa5074c5500ca40e76,69b95efdef24cd8a694e89ee,69b9611c14ed213777b39c82,0.4315,0.4316,1,73,235,136,1,fivesix,,,,,,,,,,,,,,,,,,,,,,,,,,,,,,,,,,,,,,,,,,,,,,,,,,,,,,,,,,,,,,,,,,,,,,,,,,,,,,,,,,,,,,,,,,,,,,,,,,,,,,,,,,,,,,,,,,,,,,,,,,,,,,,,,,,,,,,,,
,,67c045fa5074c5500ca40e76,2026-03-17_16h31.39.524,kallum_motion_pilot_GIST_update_2,2026.1.1,Win32,15.01501502,67c045fa5074c5500ca40e76,69b95efdef24cd8a694e89ee,69b9611c14ed213777b39c82,0.4322,0.4322,1,74,236,86,1,eightsix,,,,,,,,,,,,,,,,,,,,,,,,,,,,,,,,,,,,,,,,,,,,,,,,,,,,,,,,,,,,,,,,,,,,,,,,,,,,,,,,,,,,,,,,,,,,,,,,,,,,,,,,,,,,,,,,,,,,,,,,,,,,,,,,,,,,,,,,,
,,67c045fa5074c5500ca40e76,2026-03-17_16h31.39.524,kallum_motion_pilot_GIST_update_2,2026.1.1,Win32,15.01501502,67c045fa5074c5500ca40e76,69b95efdef24cd8a694e89ee,69b9611c14ed213777b39c82,0.4329,0.433,1,75,237,7,1,fourthree,,,,,,,,,,,,,,,,,,,,,,,,,,,,,,,,,,,,,,,,,,,,,,,,,,,,,,,,,,,,,,,,,,,,,,,,,,,,,,,,,,,,,,,,,,,,,,,,,,,,,,,,,,,,,,,,,,,,,,,,,,,,,,,,,,,,,,,,,
,,67c045fa5074c5500ca40e76,2026-03-17_16h31.39.524,kallum_motion_pilot_GIST_update_2,2026.1.1,Win32,15.01501502,67c045fa5074c5500ca40e76,69b95efdef24cd8a694e89ee,69b9611c14ed213777b39c82,0.4336,0.4336,1,76,238,156,1,sevenfive,,,,,,,,,,,,,,,,,,,,,,,,,,,,,,,,,,,,,,,,,,,,,,,,,,,,,,,,,,,,,,,,,,,,,,,,,,,,,,,,,,,,,,,,,,,,,,,,,,,,,,,,,,,,,,,,,,,,,,,,,,,,,,,,,,,,,,,,,
,,67c045fa5074c5500ca40e76,2026-03-17_16h31.39.524,kallum_motion_pilot_GIST_update_2,2026.1.1,Win32,15.01501502,67c045fa5074c5500ca40e76,69b95efdef24cd8a694e89ee,69b9611c14ed213777b39c82,0.4342,0.4343,1,77,239,85,1,seveneight,,,,,,,,,,,,,,,,,,,,,,,,,,,,,,,,,,,,,,,,,,,,,,,,,,,,,,,,,,,,,,,,,,,,,,,,,,,,,,,,,,,,,,,,,,,,,,,,,,,,,,,,,,,,,,,,,,,,,,,,,,,,,,,,,,,,,,,,,
,,67c045fa5074c5500ca40e76,2026-03-17_16h31.39.524,kallum_motion_pilot_GIST_update_2,2026.1.1,Win32,15.01501502,67c045fa5074c5500ca40e76,69b95efdef24cd8a694e89ee,69b9611c14ed213777b39c82,0.4349,0.4349,1,78,240,54,1,fourtwo,,,,,,,,,,,,,,,,,,,,,,,,,,,,,,,,,,,,,,,,,,,,,,,,,,,,,,,,,,,,,,,,,,,,,,,,,,,,,,,,,,,,,,,,,,,,,,,,,,,,,,,,,,,,,,,,,,,,,,,,,,,,,,,,,,,,,,,,,
,,67c045fa5074c5500ca40e76,2026-03-17_16h31.39.524,kallum_motion_pilot_GIST_update_2,2026.1.1,Win32,15.01501502,67c045fa5074c5500ca40e76,69b95efdef24cd8a694e89ee,69b9611c14ed213777b39c82,0.4356,0.4356,1,79,241,68,1,threeone,,,,,,,,,,,,,,,,,,,,,,,,,,,,,,,,,,,,,,,,,,,,,,,,,,,,,,,,,,,,,,,,,,,,,,,,,,,,,,,,,,,,,,,,,,,,,,,,,,,,,,,,,,,,,,,,,,,,,,,,,,,,,,,,,,,,,,,,,
,,67c045fa5074c5500ca40e76,2026-03-17_16h31.39.524,kallum_motion_pilot_GIST_update_2,2026.1.1,Win32,15.01501502,67c045fa5074c5500ca40e76,69b95efdef24cd8a694e89ee,69b9611c14ed213777b39c82,0.4368,0.4368,1,80,242,148,1,sevenfive,,,,,,,,,,,,,,,,,,,,,,,,,,,,,,,,,,,,,,,,,,,,,,,,,,,,,,,,,,,,,,,,,,,,,,,,,,,,,,,,,,,,,,,,,,,,,,,,,,,,,,,,,,,,,,,,,,,,,,,,,,,,,,,,,,,,,,,,,
,,67c045fa5074c5500ca40e76,2026-03-17_16h31.39.524,kallum_motion_pilot_GIST_update_2,2026.1.1,Win32,15.01501502,67c045fa5074c5500ca40e76,69b95efdef24cd8a694e89ee,69b9611c14ed213777b39c82,0.4376,0.4376,1,81,243,19,1,twofour,,,,,,,,,,,,,,,,,,,,,,,,,,,,,,,,,,,,,,,,,,,,,,,,,,,,,,,,,,,,,,,,,,,,,,,,,,,,,,,,,,,,,,,,,,,,,,,,,,,,,,,,,,,,,,,,,,,,,,,,,,,,,,,,,,,,,,,,,
,,67c045fa5074c5500ca40e76,2026-03-17_16h31.39.524,kallum_motion_pilot_GIST_update_2,2026.1.1,Win32,15.01501502,67c045fa5074c5500ca40e76,69b95efdef24cd8a694e89ee,69b9611c14ed213777b39c82,0.4382,0.4384,1,82,244,147,1,sixeight,,,,,,,,,,,,,,,,,,,,,,,,,,,,,,,,,,,,,,,,,,,,,,,,,,,,,,,,,,,,,,,,,,,,,,,,,,,,,,,,,,,,,,,,,,,,,,,,,,,,,,,,,,,,,,,,,,,,,,,,,,,,,,,,,,,,,,,,,
,,67c045fa5074c5500ca40e76,2026-03-17_16h31.39.524,kallum_motion_pilot_GIST_update_2,2026.1.1,Win32,15.01501502,67c045fa5074c5500ca40e76,69b95efdef24cd8a694e89ee,69b9611c14ed213777b39c82,0.4392,0.4392,1,83,245,37,1,threefour,,,,,,,,,,,,,,,,,,,,,,,,,,,,,,,,,,,,,,,,,,,,,,,,,,,,,,,,,,,,,,,,,,,,,,,,,,,,,,,,,,,,,,,,,,,,,,,,,,,,,,,,,,,,,,,,,,,,,,,,,,,,,,,,,,,,,,,,,
,,67c045fa5074c5500ca40e76,2026-03-17_16h31.39.524,kallum_motion_pilot_GIST_update_2,2026.1.1,Win32,15.01501502,67c045fa5074c5500ca40e76,69b95efdef24cd8a694e89ee,69b9611c14ed213777b39c82,0.4398,0.4399,1,84,246,124,1,sevenfive,,,,,,,,,,,,,,,,,,,,,,,,,,,,,,,,,,,,,,,,,,,,,,,,,,,,,,,,,,,,,,,,,,,,,,,,,,,,,,,,,,,,,,,,,,,,,,,,,,,,,,,,,,,,,,,,,,,,,,,,,,,,,,,,,,,,,,,,,
,,67c045fa5074c5500ca40e76,2026-03-17_16h31.39.524,kallum_motion_pilot_GIST_update_2,2026.1.1,Win32,15.01501502,67c045fa5074c5500ca40e76,69b95efdef24cd8a694e89ee,69b9611c14ed213777b39c82,0.4405,0.4406,1,85,247,92,1,sevenfive,,,,,,,,,,,,,,,,,,,,,,,,,,,,,,,,,,,,,,,,,,,,,,,,,,,,,,,,,,,,,,,,,,,,,,,,,,,,,,,,,,,,,,,,,,,,,,,,,,,,,,,,,,,,,,,,,,,,,,,,,,,,,,,,,,,,,,,,,
,,67c045fa5074c5500ca40e76,2026-03-17_16h31.39.524,kallum_motion_pilot_GIST_update_2,2026.1.1,Win32,15.01501502,67c045fa5074c5500ca40e76,69b95efdef24cd8a694e89ee,69b9611c14ed213777b39c82,0.4411,0.4412,1,86,248,117,1,seveneight,,,,,,,,,,,,,,,,,,,,,,,,,,,,,,,,,,,,,,,,,,,,,,,,,,,,,,,,,,,,,,,,,,,,,,,,,,,,,,,,,,,,,,,,,,,,,,,,,,,,,,,,,,,,,,,,,,,,,,,,,,,,,,,,,,,,,,,,,
,,67c045fa5074c5500ca40e76,2026-03-17_16h31.39.524,kallum_motion_pilot_GIST_update_2,2026.1.1,Win32,15.01501502,67c045fa5074c5500ca40e76,69b95efdef24cd8a694e89ee,69b9611c14ed213777b39c82,0.4419,0.4419,1,87,249,126,1,eightsix,,,,,,,,,,,,,,,,,,,,,,,,,,,,,,,,,,,,,,,,,,,,,,,,,,,,,,,,,,,,,,,,,,,,,,,,,,,,,,,,,,,,,,,,,,,,,,,,,,,,,,,,,,,,,,,,,,,,,,,,,,,,,,,,,,,,,,,,,
,,67c045fa5074c5500ca40e76,2026-03-17_16h31.39.524,kallum_motion_pilot_GIST_update_2,2026.1.1,Win32,15.01501502,67c045fa5074c5500ca40e76,69b95efdef24cd8a694e89ee,69b9611c14ed213777b39c82,0.4425,0.4425,1,88,250,96,1,fivesix,,,,,,,,,,,,,,,,,,,,,,,,,,,,,,,,,,,,,,,,,,,,,,,,,,,,,,,,,,,,,,,,,,,,,,,,,,,,,,,,,,,,,,,,,,,,,,,,,,,,,,,,,,,,,,,,,,,,,,,,,,,,,,,,,,,,,,,,,
,,67c045fa5074c5500ca40e76,2026-03-17_16h31.39.524,kallum_motion_pilot_GIST_update_2,2026.1.1,Win32,15.01501502,67c045fa5074c5500ca40e76,69b95efdef24cd8a694e89ee,69b9611c14ed213777b39c82,0.4431,0.4432,1,89,251,100,1,sevenfive,,,,,,,,,,,,,,,,,,,,,,,,,,,,,,,,,,,,,,,,,,,,,,,,,,,,,,,,,,,,,,,,,,,,,,,,,,,,,,,,,,,,,,,,,,,,,,,,,,,,,,,,,,,,,,,,,,,,,,,,,,,,,,,,,,,,,,,,,
,,67c045fa5074c5500ca40e76,2026-03-17_16h31.39.524,kallum_motion_pilot_GIST_update_2,2026.1.1,Win32,15.01501502,67c045fa5074c5500ca40e76,69b95efdef24cd8a694e89ee,69b9611c14ed213777b39c82,0.4437,0.4438,1,90,252,1,1,onethree,,,,,,,,,,,,,,,,,,,,,,,,,,,,,,,,,,,,,,,,,,,,,,,,,,,,,,,,,,,,,,,,,,,,,,,,,,,,,,,,,,,,,,,,,,,,,,,,,,,,,,,,,,,,,,,,,,,,,,,,,,,,,,,,,,,,,,,,,
,,67c045fa5074c5500ca40e76,2026-03-17_16h31.39.524,kallum_motion_pilot_GIST_update_2,2026.1.1,Win32,15.01501502,67c045fa5074c5500ca40e76,69b95efdef24cd8a694e89ee,69b9611c14ed213777b39c82,0.4444,0.4444,1,91,253,60,1,threeone,,,,,,,,,,,,,,,,,,,,,,,,,,,,,,,,,,,,,,,,,,,,,,,,,,,,,,,,,,,,,,,,,,,,,,,,,,,,,,,,,,,,,,,,,,,,,,,,,,,,,,,,,,,,,,,,,,,,,,,,,,,,,,,,,,,,,,,,,
,,67c045fa5074c5500ca40e76,2026-03-17_16h31.39.524,kallum_motion_pilot_GIST_update_2,2026.1.1,Win32,15.01501502,67c045fa5074c5500ca40e76,69b95efdef24cd8a694e89ee,69b9611c14ed213777b39c82,0.4451,0.4452,1,92,254,33,1,onethree,,,,,,,,,,,,,,,,,,,,,,,,,,,,,,,,,,,,,,,,,,,,,,,,,,,,,,,,,,,,,,,,,,,,,,,,,,,,,,,,,,,,,,,,,,,,,,,,,,,,,,,,,,,,,,,,,,,,,,,,,,,,,,,,,,,,,,,,,
,,67c045fa5074c5500ca40e76,2026-03-17_16h31.39.524,kallum_motion_pilot_GIST_update_2,2026.1.1,Win32,15.01501502,67c045fa5074c5500ca40e76,69b95efdef24cd8a694e89ee,69b9611c14ed213777b39c82,0.4459,0.4459,1,93,255,53,1,threefour,,,,,,,,,,,,,,,,,,,,,,,,,,,,,,,,,,,,,,,,,,,,,,,,,,,,,,,,,,,,,,,,,,,,,,,,,,,,,,,,,,,,,,,,,,,,,,,,,,,,,,,,,,,,,,,,,,,,,,,,,,,,,,,,,,,,,,,,,
,,67c045fa5074c5500ca40e76,2026-03-17_16h31.39.524,kallum_motion_pilot_GIST_update_2,2026.1.1,Win32,15.01501502,67c045fa5074c5500ca40e76,69b95efdef24cd8a694e89ee,69b9611c14ed213777b39c82,0.4469,0.4469,1,94,256,8,1,onetwo,,,,,,,,,,,,,,,,,,,,,,,,,,,,,,,,,,,,,,,,,,,,,,,,,,,,,,,,,,,,,,,,,,,,,,,,,,,,,,,,,,,,,,,,,,,,,,,,,,,,,,,,,,,,,,,,,,,,,,,,,,,,,,,,,,,,,,,,,
,,67c045fa5074c5500ca40e76,2026-03-17_16h31.39.524,kallum_motion_pilot_GIST_update_2,2026.1.1,Win32,15.01501502,67c045fa5074c5500ca40e76,69b95efdef24cd8a694e89ee,69b9611c14ed213777b39c82,0.4475,0.4476,1,95,257,135,1,eightseven,,,,,,,,,,,,,,,,,,,,,,,,,,,,,,,,,,,,,,,,,,,,,,,,,,,,,,,,,,,,,,,,,,,,,,,,,,,,,,,,,,,,,,,,,,,,,,,,,,,,,,,,,,,,,,,,,,,,,,,,,,,,,,,,,,,,,,,,,
,,67c045fa5074c5500ca40e76,2026-03-17_16h31.39.524,kallum_motion_pilot_GIST_update_2,2026.1.1,Win32,15.01501502,67c045fa5074c5500ca40e76,69b95efdef24cd8a694e89ee,69b9611c14ed213777b39c82,0.4483,0.4483,1,96,258,23,1,fourthree,,,,,,,,,,,,,,,,,,,,,,,,,,,,,,,,,,,,,,,,,,,,,,,,,,,,,,,,,,,,,,,,,,,,,,,,,,,,,,,,,,,,,,,,,,,,,,,,,,,,,,,,,,,,,,,,,,,,,,,,,,,,,,,,,,,,,,,,,
,,67c045fa5074c5500ca40e76,2026-03-17_16h31.39.524,kallum_motion_pilot_GIST_update_2,2026.1.1,Win32,15.01501502,67c045fa5074c5500ca40e76,69b95efdef24cd8a694e89ee,69b9611c14ed213777b39c82,0.4493,0.4494,1,97,259,127,1,eightseven,,,,,,,,,,,,,,,,,,,,,,,,,,,,,,,,,,,,,,,,,,,,,,,,,,,,,,,,,,,,,,,,,,,,,,,,,,,,,,,,,,,,,,,,,,,,,,,,,,,,,,,,,,,,,,,,,,,,,,,,,,,,,,,,,,,,,,,,,
,,67c045fa5074c5500ca40e76,2026-03-17_16h31.39.524,kallum_motion_pilot_GIST_update_2,2026.1.1,Win32,15.01501502,67c045fa5074c5500ca40e76,69b95efdef24cd8a694e89ee,69b9611c14ed213777b39c82,0.45,0.45,1,98,260,143,1,eightseven,,,,,,,,,,,,,,,,,,,,,,,,,,,,,,,,,,,,,,,,,,,,,,,,,,,,,,,,,,,,,,,,,,,,,,,,,,,,,,,,,,,,,,,,,,,,,,,,,,,,,,,,,,,,,,,,,,,,,,,,,,,,,,,,,,,,,,,,,
,,67c045fa5074c5500ca40e76,2026-03-17_16h31.39.524,kallum_motion_pilot_GIST_update_2,2026.1.1,Win32,15.01501502,67c045fa5074c5500ca40e76,69b95efdef24cd8a694e89ee,69b9611c14ed213777b39c82,0.4506,0.4506,1,99,261,42,1,twoone,,,,,,,,,,,,,,,,,,,,,,,,,,,,,,,,,,,,,,,,,,,,,,,,,,,,,,,,,,,,,,,,,,,,,,,,,,,,,,,,,,,,,,,,,,,,,,,,,,,,,,,,,,,,,,,,,,,,,,,,,,,,,,,,,,,,,,,,,
,,67c045fa5074c5500ca40e76,2026-03-17_16h31.39.524,kallum_motion_pilot_GIST_update_2,2026.1.1,Win32,15.01501502,67c045fa5074c5500ca40e76,69b95efdef24cd8a694e89ee,69b9611c14ed213777b39c82,0.4513,0.4513,1,100,262,59,1,twofour,,,,,,,,,,,,,,,,,,,,,,,,,,,,,,,,,,,,,,,,,,,,,,,,,,,,,,,,,,,,,,,,,,,,,,,,,,,,,,,,,,,,,,,,,,,,,,,,,,,,,,,,,,,,,,,,,,,,,,,,,,,,,,,,,,,,,,,,,
,,67c045fa5074c5500ca40e76,2026-03-17_16h31.39.524,kallum_motion_pilot_GIST_update_2,2026.1.1,Win32,15.01501502,67c045fa5074c5500ca40e76,69b95efdef24cd8a694e89ee,69b9611c14ed213777b39c82,0.452,0.452,1,101,263,75,1,twofour,,,,,,,,,,,,,,,,,,,,,,,,,,,,,,,,,,,,,,,,,,,,,,,,,,,,,,,,,,,,,,,,,,,,,,,,,,,,,,,,,,,,,,,,,,,,,,,,,,,,,,,,,,,,,,,,,,,,,,,,,,,,,,,,,,,,,,,,,
,,67c045fa5074c5500ca40e76,2026-03-17_16h31.39.524,kallum_motion_pilot_GIST_update_2,2026.1.1,Win32,15.01501502,67c045fa5074c5500ca40e76,69b95efdef24cd8a694e89ee,69b9611c14ed213777b39c82,0.4536,0.4537,1,102,264,95,1,eightseven,,,,,,,,,,,,,,,,,,,,,,,,,,,,,,,,,,,,,,,,,,,,,,,,,,,,,,,,,,,,,,,,,,,,,,,,,,,,,,,,,,,,,,,,,,,,,,,,,,,,,,,,,,,,,,,,,,,,,,,,,,,,,,,,,,,,,,,,,
,,67c045fa5074c5500ca40e76,2026-03-17_16h31.39.524,kallum_motion_pilot_GIST_update_2,2026.1.1,Win32,15.01501502,67c045fa5074c5500ca40e76,69b95efdef24cd8a694e89ee,69b9611c14ed213777b39c82,0.4544,0.4544,1,103,265,108,1,sevenfive,,,,,,,,,,,,,,,,,,,,,,,,,,,,,,,,,,,,,,,,,,,,,,,,,,,,,,,,,,,,,,,,,,,,,,,,,,,,,,,,,,,,,,,,,,,,,,,,,,,,,,,,,,,,,,,,,,,,,,,,,,,,,,,,,,,,,,,,,
,,67c045fa5074c5500ca40e76,2026-03-17_16h31.39.524,kallum_motion_pilot_GIST_update_2,2026.1.1,Win32,15.01501502,67c045fa5074c5500ca40e76,69b95efdef24cd8a694e89ee,69b9611c14ed213777b39c82,0.4553,0.4553,1,104,266,125,1,seveneight,,,,,,,,,,,,,,,,,,,,,,,,,,,,,,,,,,,,,,,,,,,,,,,,,,,,,,,,,,,,,,,,,,,,,,,,,,,,,,,,,,,,,,,,,,,,,,,,,,,,,,,,,,,,,,,,,,,,,,,,,,,,,,,,,,,,,,,,,
