startup.started,startup.stopped,Prolific ID*,date,expName,psychopyVersion,OS,frameRate,participant,study_id,session,stimpositions.started,stimpositions.stopped,hardcoded_stimulus_positions.thisRepN,hardcoded_stimulus_positions.thisTrialN,hardcoded_stimulus_positions.thisN,hardcoded_stimulus_positions.thisIndex,hardcoded_stimulus_positions.ran,StimulusPos,stimorientation.started,stimorientation.stopped,prac_stimorientation_import_loop.thisRepN,prac_stimorientation_import_loop.thisTrialN,prac_stimorientation_import_loop.thisN,prac_stimorientation_import_loop.thisIndex,prac_stimorientation_import_loop.ran,Stimorientation,welcome_instr.started,welcome_instr.stopped,key_resp.keys,key_resp.rt,key_resp.duration,response_steppedout_1.started,response_steppedout_1.stopped,key_resp_20.keys,key_resp_20.rt,key_resp_20.duration,response_steppedout_2.started,response_steppedout_2.stopped,key_resp_19.keys,key_resp_19.rt,key_resp_19.duration,stim_response_instr.started,stim_response_instr.stopped,key_resp_15.keys,key_resp_15.rt,key_resp_15.duration,direction_instr_2.started,direction_instr_2.stopped,key_resp_9.keys,key_resp_9.rt,key_resp_9.duration,instr_prac.started,instr_prac.stopped,key_resp_10.keys,key_resp_10.rt,key_resp_10.duration,Stim1_display_prac.started,Stim1_display_prac.stopped,Ecc,Circle1_ori,Circle2_ori,response_prac.started,similarity,response_time,response_prac.stopped,mouse_5.x,mouse_5.y,mouse_5.leftButton,mouse_5.midButton,mouse_5.rightButton,mouse_5.clicked_name,responseprac_feedback.started,responseprac_feedback.stopped,summary2_prac.started,summary2_prac.stopped,mouse_6.x,mouse_6.y,mouse_6.leftButton,mouse_6.midButton,mouse_6.rightButton,mouse_6.clicked_name,duringprac.thisRepN,duringprac.thisTrialN,duringprac.thisN,duringprac.thisIndex,duringprac.ran,begin.started,begin.stopped,key_resp_22.keys,key_resp_22.rt,key_resp_22.duration,Stim1_display.started,Stim1_display.stopped,circle1_ori,circle2_ori,circle1_SF,circle2_SF,response.started,response.stopped,mouse.x,mouse.y,mouse.leftButton,mouse.midButton,mouse.rightButton,mouse.clicked_name,trialnumber,double_pass.thisRepN,double_pass.thisTrialN,double_pass.thisN,double_pass.thisIndex,double_pass.ran,double_pass.order,main_trial.thisRepN,main_trial.thisTrialN,main_trial.thisN,main_trial.thisIndex,main_trial.ran,main_trial.order,Trial_Counter,Catch,Frequencies,response_2.started,response_2.stopped,mouse_2.x,mouse_2.y,mouse_2.leftButton,mouse_2.midButton,mouse_2.rightButton,mouse_2.clicked_name,special_trial.started,special_trial.stopped,catch_1.started,catch_1.stopped,mouse_3.x,mouse_3.y,mouse_3.leftButton,mouse_3.midButton,mouse_3.rightButton,catchresponse,catchnumber,response_time_catch,response_sum.started,response_sum.stopped,mouse_11.x,mouse_11.y,mouse_11.leftButton,mouse_11.midButton,mouse_11.rightButton,flip_presentation_sequence_for_double_pass.started,flip_presentation_sequence_for_double_pass.stopped,goodbye.started,goodbye.stopped,key_resp_3.keys,key_resp_3.rt,key_resp_3.duration
0.0006,0.0007,67c869b756cd63f0b3387d28,2026-03-17_16h15.43.350,kallum_motion_pilot_GIST_update_2,2026.1.1,Win32,60.60606061,67c869b756cd63f0b3387d28,69b95efdef24cd8a694e89ee,69b96154122787376bdbdb42,,,,,,,,,,,,,,,,,,,,,,,,,,,,,,,,,,,,,,,,,,,,,,,,,,,,,,,,,,,,,,,,,,,,,,,,,,,,,,,,,,,,,,,,,,,,,,,,,,,,,,,,,,,,,,,,,,,,,,,,,,,,,,,,,,,,,,,,,,,,,,,,,
,,67c869b756cd63f0b3387d28,2026-03-17_16h15.43.350,kallum_motion_pilot_GIST_update_2,2026.1.1,Win32,60.60606061,67c869b756cd63f0b3387d28,69b95efdef24cd8a694e89ee,69b96154122787376bdbdb42,0.1086,0.1088,0,0,0,83,1,sixeight,,,,,,,,,,,,,,,,,,,,,,,,,,,,,,,,,,,,,,,,,,,,,,,,,,,,,,,,,,,,,,,,,,,,,,,,,,,,,,,,,,,,,,,,,,,,,,,,,,,,,,,,,,,,,,,,,,,,,,,,,,,,,,,,,,,,,,,,,
,,67c869b756cd63f0b3387d28,2026-03-17_16h15.43.350,kallum_motion_pilot_GIST_update_2,2026.1.1,Win32,60.60606061,67c869b756cd63f0b3387d28,69b95efdef24cd8a694e89ee,69b96154122787376bdbdb42,0.1096,0.1096,0,1,1,78,1,fourtwo,,,,,,,,,,,,,,,,,,,,,,,,,,,,,,,,,,,,,,,,,,,,,,,,,,,,,,,,,,,,,,,,,,,,,,,,,,,,,,,,,,,,,,,,,,,,,,,,,,,,,,,,,,,,,,,,,,,,,,,,,,,,,,,,,,,,,,,,,
,,67c869b756cd63f0b3387d28,2026-03-17_16h15.43.350,kallum_motion_pilot_GIST_update_2,2026.1.1,Win32,60.60606061,67c869b756cd63f0b3387d28,69b95efdef24cd8a694e89ee,69b96154122787376bdbdb42,0.1099,0.11,0,2,2,1,1,onethree,,,,,,,,,,,,,,,,,,,,,,,,,,,,,,,,,,,,,,,,,,,,,,,,,,,,,,,,,,,,,,,,,,,,,,,,,,,,,,,,,,,,,,,,,,,,,,,,,,,,,,,,,,,,,,,,,,,,,,,,,,,,,,,,,,,,,,,,,
,,67c869b756cd63f0b3387d28,2026-03-17_16h15.43.350,kallum_motion_pilot_GIST_update_2,2026.1.1,Win32,60.60606061,67c869b756cd63f0b3387d28,69b95efdef24cd8a694e89ee,69b96154122787376bdbdb42,0.1103,0.1103,0,3,3,82,1,sixfive,,,,,,,,,,,,,,,,,,,,,,,,,,,,,,,,,,,,,,,,,,,,,,,,,,,,,,,,,,,,,,,,,,,,,,,,,,,,,,,,,,,,,,,,,,,,,,,,,,,,,,,,,,,,,,,,,,,,,,,,,,,,,,,,,,,,,,,,,
,,67c869b756cd63f0b3387d28,2026-03-17_16h15.43.350,kallum_motion_pilot_GIST_update_2,2026.1.1,Win32,60.60606061,67c869b756cd63f0b3387d28,69b95efdef24cd8a694e89ee,69b96154122787376bdbdb42,0.1107,0.1107,0,4,4,102,1,eightsix,,,,,,,,,,,,,,,,,,,,,,,,,,,,,,,,,,,,,,,,,,,,,,,,,,,,,,,,,,,,,,,,,,,,,,,,,,,,,,,,,,,,,,,,,,,,,,,,,,,,,,,,,,,,,,,,,,,,,,,,,,,,,,,,,,,,,,,,,
,,67c869b756cd63f0b3387d28,2026-03-17_16h15.43.350,kallum_motion_pilot_GIST_update_2,2026.1.1,Win32,60.60606061,67c869b756cd63f0b3387d28,69b95efdef24cd8a694e89ee,69b96154122787376bdbdb42,0.111,0.111,0,5,5,155,1,sixeight,,,,,,,,,,,,,,,,,,,,,,,,,,,,,,,,,,,,,,,,,,,,,,,,,,,,,,,,,,,,,,,,,,,,,,,,,,,,,,,,,,,,,,,,,,,,,,,,,,,,,,,,,,,,,,,,,,,,,,,,,,,,,,,,,,,,,,,,,
,,67c869b756cd63f0b3387d28,2026-03-17_16h15.43.350,kallum_motion_pilot_GIST_update_2,2026.1.1,Win32,60.60606061,67c869b756cd63f0b3387d28,69b95efdef24cd8a694e89ee,69b96154122787376bdbdb42,0.1112,0.1112,0,6,6,32,1,onetwo,,,,,,,,,,,,,,,,,,,,,,,,,,,,,,,,,,,,,,,,,,,,,,,,,,,,,,,,,,,,,,,,,,,,,,,,,,,,,,,,,,,,,,,,,,,,,,,,,,,,,,,,,,,,,,,,,,,,,,,,,,,,,,,,,,,,,,,,,
,,67c869b756cd63f0b3387d28,2026-03-17_16h15.43.350,kallum_motion_pilot_GIST_update_2,2026.1.1,Win32,60.60606061,67c869b756cd63f0b3387d28,69b95efdef24cd8a694e89ee,69b96154122787376bdbdb42,0.1117,0.1117,0,7,7,70,1,fourtwo,,,,,,,,,,,,,,,,,,,,,,,,,,,,,,,,,,,,,,,,,,,,,,,,,,,,,,,,,,,,,,,,,,,,,,,,,,,,,,,,,,,,,,,,,,,,,,,,,,,,,,,,,,,,,,,,,,,,,,,,,,,,,,,,,,,,,,,,,
,,67c869b756cd63f0b3387d28,2026-03-17_16h15.43.350,kallum_motion_pilot_GIST_update_2,2026.1.1,Win32,60.60606061,67c869b756cd63f0b3387d28,69b95efdef24cd8a694e89ee,69b96154122787376bdbdb42,0.1119,0.1122,0,8,8,160,1,fivesix,,,,,,,,,,,,,,,,,,,,,,,,,,,,,,,,,,,,,,,,,,,,,,,,,,,,,,,,,,,,,,,,,,,,,,,,,,,,,,,,,,,,,,,,,,,,,,,,,,,,,,,,,,,,,,,,,,,,,,,,,,,,,,,,,,,,,,,,,
,,67c869b756cd63f0b3387d28,2026-03-17_16h15.43.350,kallum_motion_pilot_GIST_update_2,2026.1.1,Win32,60.60606061,67c869b756cd63f0b3387d28,69b95efdef24cd8a694e89ee,69b96154122787376bdbdb42,0.1126,0.1127,0,9,9,30,1,fourtwo,,,,,,,,,,,,,,,,,,,,,,,,,,,,,,,,,,,,,,,,,,,,,,,,,,,,,,,,,,,,,,,,,,,,,,,,,,,,,,,,,,,,,,,,,,,,,,,,,,,,,,,,,,,,,,,,,,,,,,,,,,,,,,,,,,,,,,,,,
,,67c869b756cd63f0b3387d28,2026-03-17_16h15.43.350,kallum_motion_pilot_GIST_update_2,2026.1.1,Win32,60.60606061,67c869b756cd63f0b3387d28,69b95efdef24cd8a694e89ee,69b96154122787376bdbdb42,0.1129,0.1129,0,10,10,121,1,fiveseven,,,,,,,,,,,,,,,,,,,,,,,,,,,,,,,,,,,,,,,,,,,,,,,,,,,,,,,,,,,,,,,,,,,,,,,,,,,,,,,,,,,,,,,,,,,,,,,,,,,,,,,,,,,,,,,,,,,,,,,,,,,,,,,,,,,,,,,,,
,,67c869b756cd63f0b3387d28,2026-03-17_16h15.43.350,kallum_motion_pilot_GIST_update_2,2026.1.1,Win32,60.60606061,67c869b756cd63f0b3387d28,69b95efdef24cd8a694e89ee,69b96154122787376bdbdb42,0.1133,0.1133,0,11,11,4,1,threeone,,,,,,,,,,,,,,,,,,,,,,,,,,,,,,,,,,,,,,,,,,,,,,,,,,,,,,,,,,,,,,,,,,,,,,,,,,,,,,,,,,,,,,,,,,,,,,,,,,,,,,,,,,,,,,,,,,,,,,,,,,,,,,,,,,,,,,,,,
,,67c869b756cd63f0b3387d28,2026-03-17_16h15.43.350,kallum_motion_pilot_GIST_update_2,2026.1.1,Win32,60.60606061,67c869b756cd63f0b3387d28,69b95efdef24cd8a694e89ee,69b96154122787376bdbdb42,0.1135,0.1138,0,12,12,137,1,fiveseven,,,,,,,,,,,,,,,,,,,,,,,,,,,,,,,,,,,,,,,,,,,,,,,,,,,,,,,,,,,,,,,,,,,,,,,,,,,,,,,,,,,,,,,,,,,,,,,,,,,,,,,,,,,,,,,,,,,,,,,,,,,,,,,,,,,,,,,,,
,,67c869b756cd63f0b3387d28,2026-03-17_16h15.43.350,kallum_motion_pilot_GIST_update_2,2026.1.1,Win32,60.60606061,67c869b756cd63f0b3387d28,69b95efdef24cd8a694e89ee,69b96154122787376bdbdb42,0.1143,0.1143,0,13,13,76,1,threeone,,,,,,,,,,,,,,,,,,,,,,,,,,,,,,,,,,,,,,,,,,,,,,,,,,,,,,,,,,,,,,,,,,,,,,,,,,,,,,,,,,,,,,,,,,,,,,,,,,,,,,,,,,,,,,,,,,,,,,,,,,,,,,,,,,,,,,,,,
,,67c869b756cd63f0b3387d28,2026-03-17_16h15.43.350,kallum_motion_pilot_GIST_update_2,2026.1.1,Win32,60.60606061,67c869b756cd63f0b3387d28,69b95efdef24cd8a694e89ee,69b96154122787376bdbdb42,0.1147,0.1147,0,14,14,159,1,eightseven,,,,,,,,,,,,,,,,,,,,,,,,,,,,,,,,,,,,,,,,,,,,,,,,,,,,,,,,,,,,,,,,,,,,,,,,,,,,,,,,,,,,,,,,,,,,,,,,,,,,,,,,,,,,,,,,,,,,,,,,,,,,,,,,,,,,,,,,,
,,67c869b756cd63f0b3387d28,2026-03-17_16h15.43.350,kallum_motion_pilot_GIST_update_2,2026.1.1,Win32,60.60606061,67c869b756cd63f0b3387d28,69b95efdef24cd8a694e89ee,69b96154122787376bdbdb42,0.115,0.1151,0,15,15,123,1,sixeight,,,,,,,,,,,,,,,,,,,,,,,,,,,,,,,,,,,,,,,,,,,,,,,,,,,,,,,,,,,,,,,,,,,,,,,,,,,,,,,,,,,,,,,,,,,,,,,,,,,,,,,,,,,,,,,,,,,,,,,,,,,,,,,,,,,,,,,,,
,,67c869b756cd63f0b3387d28,2026-03-17_16h15.43.350,kallum_motion_pilot_GIST_update_2,2026.1.1,Win32,60.60606061,67c869b756cd63f0b3387d28,69b95efdef24cd8a694e89ee,69b96154122787376bdbdb42,0.1154,0.1154,0,16,16,156,1,sevenfive,,,,,,,,,,,,,,,,,,,,,,,,,,,,,,,,,,,,,,,,,,,,,,,,,,,,,,,,,,,,,,,,,,,,,,,,,,,,,,,,,,,,,,,,,,,,,,,,,,,,,,,,,,,,,,,,,,,,,,,,,,,,,,,,,,,,,,,,,
,,67c869b756cd63f0b3387d28,2026-03-17_16h15.43.350,kallum_motion_pilot_GIST_update_2,2026.1.1,Win32,60.60606061,67c869b756cd63f0b3387d28,69b95efdef24cd8a694e89ee,69b96154122787376bdbdb42,0.1157,0.1157,0,17,17,138,1,sixfive,,,,,,,,,,,,,,,,,,,,,,,,,,,,,,,,,,,,,,,,,,,,,,,,,,,,,,,,,,,,,,,,,,,,,,,,,,,,,,,,,,,,,,,,,,,,,,,,,,,,,,,,,,,,,,,,,,,,,,,,,,,,,,,,,,,,,,,,,
,,67c869b756cd63f0b3387d28,2026-03-17_16h15.43.350,kallum_motion_pilot_GIST_update_2,2026.1.1,Win32,60.60606061,67c869b756cd63f0b3387d28,69b95efdef24cd8a694e89ee,69b96154122787376bdbdb42,0.1159,0.1159,0,18,18,144,1,fivesix,,,,,,,,,,,,,,,,,,,,,,,,,,,,,,,,,,,,,,,,,,,,,,,,,,,,,,,,,,,,,,,,,,,,,,,,,,,,,,,,,,,,,,,,,,,,,,,,,,,,,,,,,,,,,,,,,,,,,,,,,,,,,,,,,,,,,,,,,
,,67c869b756cd63f0b3387d28,2026-03-17_16h15.43.350,kallum_motion_pilot_GIST_update_2,2026.1.1,Win32,60.60606061,67c869b756cd63f0b3387d28,69b95efdef24cd8a694e89ee,69b96154122787376bdbdb42,0.1163,0.1163,0,19,19,96,1,fivesix,,,,,,,,,,,,,,,,,,,,,,,,,,,,,,,,,,,,,,,,,,,,,,,,,,,,,,,,,,,,,,,,,,,,,,,,,,,,,,,,,,,,,,,,,,,,,,,,,,,,,,,,,,,,,,,,,,,,,,,,,,,,,,,,,,,,,,,,,
,,67c869b756cd63f0b3387d28,2026-03-17_16h15.43.350,kallum_motion_pilot_GIST_update_2,2026.1.1,Win32,60.60606061,67c869b756cd63f0b3387d28,69b95efdef24cd8a694e89ee,69b96154122787376bdbdb42,0.1165,0.1165,0,20,20,49,1,onethree,,,,,,,,,,,,,,,,,,,,,,,,,,,,,,,,,,,,,,,,,,,,,,,,,,,,,,,,,,,,,,,,,,,,,,,,,,,,,,,,,,,,,,,,,,,,,,,,,,,,,,,,,,,,,,,,,,,,,,,,,,,,,,,,,,,,,,,,,
,,67c869b756cd63f0b3387d28,2026-03-17_16h15.43.350,kallum_motion_pilot_GIST_update_2,2026.1.1,Win32,60.60606061,67c869b756cd63f0b3387d28,69b95efdef24cd8a694e89ee,69b96154122787376bdbdb42,0.1168,0.1169,0,21,21,34,1,twoone,,,,,,,,,,,,,,,,,,,,,,,,,,,,,,,,,,,,,,,,,,,,,,,,,,,,,,,,,,,,,,,,,,,,,,,,,,,,,,,,,,,,,,,,,,,,,,,,,,,,,,,,,,,,,,,,,,,,,,,,,,,,,,,,,,,,,,,,,
,,67c869b756cd63f0b3387d28,2026-03-17_16h15.43.350,kallum_motion_pilot_GIST_update_2,2026.1.1,Win32,60.60606061,67c869b756cd63f0b3387d28,69b95efdef24cd8a694e89ee,69b96154122787376bdbdb42,0.1172,0.1172,0,22,22,134,1,eightsix,,,,,,,,,,,,,,,,,,,,,,,,,,,,,,,,,,,,,,,,,,,,,,,,,,,,,,,,,,,,,,,,,,,,,,,,,,,,,,,,,,,,,,,,,,,,,,,,,,,,,,,,,,,,,,,,,,,,,,,,,,,,,,,,,,,,,,,,,
,,67c869b756cd63f0b3387d28,2026-03-17_16h15.43.350,kallum_motion_pilot_GIST_update_2,2026.1.1,Win32,60.60606061,67c869b756cd63f0b3387d28,69b95efdef24cd8a694e89ee,69b96154122787376bdbdb42,0.1175,0.1175,0,23,23,14,1,fourtwo,,,,,,,,,,,,,,,,,,,,,,,,,,,,,,,,,,,,,,,,,,,,,,,,,,,,,,,,,,,,,,,,,,,,,,,,,,,,,,,,,,,,,,,,,,,,,,,,,,,,,,,,,,,,,,,,,,,,,,,,,,,,,,,,,,,,,,,,,
,,67c869b756cd63f0b3387d28,2026-03-17_16h15.43.350,kallum_motion_pilot_GIST_update_2,2026.1.1,Win32,60.60606061,67c869b756cd63f0b3387d28,69b95efdef24cd8a694e89ee,69b96154122787376bdbdb42,0.1178,0.1178,0,24,24,64,1,onetwo,,,,,,,,,,,,,,,,,,,,,,,,,,,,,,,,,,,,,,,,,,,,,,,,,,,,,,,,,,,,,,,,,,,,,,,,,,,,,,,,,,,,,,,,,,,,,,,,,,,,,,,,,,,,,,,,,,,,,,,,,,,,,,,,,,,,,,,,,
,,67c869b756cd63f0b3387d28,2026-03-17_16h15.43.350,kallum_motion_pilot_GIST_update_2,2026.1.1,Win32,60.60606061,67c869b756cd63f0b3387d28,69b95efdef24cd8a694e89ee,69b96154122787376bdbdb42,0.1181,0.1181,0,25,25,133,1,seveneight,,,,,,,,,,,,,,,,,,,,,,,,,,,,,,,,,,,,,,,,,,,,,,,,,,,,,,,,,,,,,,,,,,,,,,,,,,,,,,,,,,,,,,,,,,,,,,,,,,,,,,,,,,,,,,,,,,,,,,,,,,,,,,,,,,,,,,,,,
,,67c869b756cd63f0b3387d28,2026-03-17_16h15.43.350,kallum_motion_pilot_GIST_update_2,2026.1.1,Win32,60.60606061,67c869b756cd63f0b3387d28,69b95efdef24cd8a694e89ee,69b96154122787376bdbdb42,0.1185,0.1185,0,26,26,110,1,eightsix,,,,,,,,,,,,,,,,,,,,,,,,,,,,,,,,,,,,,,,,,,,,,,,,,,,,,,,,,,,,,,,,,,,,,,,,,,,,,,,,,,,,,,,,,,,,,,,,,,,,,,,,,,,,,,,,,,,,,,,,,,,,,,,,,,,,,,,,,
,,67c869b756cd63f0b3387d28,2026-03-17_16h15.43.350,kallum_motion_pilot_GIST_update_2,2026.1.1,Win32,60.60606061,67c869b756cd63f0b3387d28,69b95efdef24cd8a694e89ee,69b96154122787376bdbdb42,0.1188,0.1188,0,27,27,115,1,sixeight,,,,,,,,,,,,,,,,,,,,,,,,,,,,,,,,,,,,,,,,,,,,,,,,,,,,,,,,,,,,,,,,,,,,,,,,,,,,,,,,,,,,,,,,,,,,,,,,,,,,,,,,,,,,,,,,,,,,,,,,,,,,,,,,,,,,,,,,,
,,67c869b756cd63f0b3387d28,2026-03-17_16h15.43.350,kallum_motion_pilot_GIST_update_2,2026.1.1,Win32,60.60606061,67c869b756cd63f0b3387d28,69b95efdef24cd8a694e89ee,69b96154122787376bdbdb42,0.1191,0.1191,0,28,28,71,1,fourthree,,,,,,,,,,,,,,,,,,,,,,,,,,,,,,,,,,,,,,,,,,,,,,,,,,,,,,,,,,,,,,,,,,,,,,,,,,,,,,,,,,,,,,,,,,,,,,,,,,,,,,,,,,,,,,,,,,,,,,,,,,,,,,,,,,,,,,,,,
,,67c869b756cd63f0b3387d28,2026-03-17_16h15.43.350,kallum_motion_pilot_GIST_update_2,2026.1.1,Win32,60.60606061,67c869b756cd63f0b3387d28,69b95efdef24cd8a694e89ee,69b96154122787376bdbdb42,0.1195,0.1195,0,29,29,143,1,eightseven,,,,,,,,,,,,,,,,,,,,,,,,,,,,,,,,,,,,,,,,,,,,,,,,,,,,,,,,,,,,,,,,,,,,,,,,,,,,,,,,,,,,,,,,,,,,,,,,,,,,,,,,,,,,,,,,,,,,,,,,,,,,,,,,,,,,,,,,,
,,67c869b756cd63f0b3387d28,2026-03-17_16h15.43.350,kallum_motion_pilot_GIST_update_2,2026.1.1,Win32,60.60606061,67c869b756cd63f0b3387d28,69b95efdef24cd8a694e89ee,69b96154122787376bdbdb42,0.1198,0.1198,0,30,30,55,1,fourthree,,,,,,,,,,,,,,,,,,,,,,,,,,,,,,,,,,,,,,,,,,,,,,,,,,,,,,,,,,,,,,,,,,,,,,,,,,,,,,,,,,,,,,,,,,,,,,,,,,,,,,,,,,,,,,,,,,,,,,,,,,,,,,,,,,,,,,,,,
,,67c869b756cd63f0b3387d28,2026-03-17_16h15.43.350,kallum_motion_pilot_GIST_update_2,2026.1.1,Win32,60.60606061,67c869b756cd63f0b3387d28,69b95efdef24cd8a694e89ee,69b96154122787376bdbdb42,0.1202,0.1202,0,31,31,99,1,sixeight,,,,,,,,,,,,,,,,,,,,,,,,,,,,,,,,,,,,,,,,,,,,,,,,,,,,,,,,,,,,,,,,,,,,,,,,,,,,,,,,,,,,,,,,,,,,,,,,,,,,,,,,,,,,,,,,,,,,,,,,,,,,,,,,,,,,,,,,,
,,67c869b756cd63f0b3387d28,2026-03-17_16h15.43.350,kallum_motion_pilot_GIST_update_2,2026.1.1,Win32,60.60606061,67c869b756cd63f0b3387d28,69b95efdef24cd8a694e89ee,69b96154122787376bdbdb42,0.1204,0.1204,0,32,32,6,1,fourtwo,,,,,,,,,,,,,,,,,,,,,,,,,,,,,,,,,,,,,,,,,,,,,,,,,,,,,,,,,,,,,,,,,,,,,,,,,,,,,,,,,,,,,,,,,,,,,,,,,,,,,,,,,,,,,,,,,,,,,,,,,,,,,,,,,,,,,,,,,
,,67c869b756cd63f0b3387d28,2026-03-17_16h15.43.350,kallum_motion_pilot_GIST_update_2,2026.1.1,Win32,60.60606061,67c869b756cd63f0b3387d28,69b95efdef24cd8a694e89ee,69b96154122787376bdbdb42,0.1208,0.1208,0,33,33,116,1,sevenfive,,,,,,,,,,,,,,,,,,,,,,,,,,,,,,,,,,,,,,,,,,,,,,,,,,,,,,,,,,,,,,,,,,,,,,,,,,,,,,,,,,,,,,,,,,,,,,,,,,,,,,,,,,,,,,,,,,,,,,,,,,,,,,,,,,,,,,,,,
,,67c869b756cd63f0b3387d28,2026-03-17_16h15.43.350,kallum_motion_pilot_GIST_update_2,2026.1.1,Win32,60.60606061,67c869b756cd63f0b3387d28,69b95efdef24cd8a694e89ee,69b96154122787376bdbdb42,0.1213,0.1213,0,34,34,33,1,onethree,,,,,,,,,,,,,,,,,,,,,,,,,,,,,,,,,,,,,,,,,,,,,,,,,,,,,,,,,,,,,,,,,,,,,,,,,,,,,,,,,,,,,,,,,,,,,,,,,,,,,,,,,,,,,,,,,,,,,,,,,,,,,,,,,,,,,,,,,
,,67c869b756cd63f0b3387d28,2026-03-17_16h15.43.350,kallum_motion_pilot_GIST_update_2,2026.1.1,Win32,60.60606061,67c869b756cd63f0b3387d28,69b95efdef24cd8a694e89ee,69b96154122787376bdbdb42,0.1216,0.1216,0,35,35,67,1,twofour,,,,,,,,,,,,,,,,,,,,,,,,,,,,,,,,,,,,,,,,,,,,,,,,,,,,,,,,,,,,,,,,,,,,,,,,,,,,,,,,,,,,,,,,,,,,,,,,,,,,,,,,,,,,,,,,,,,,,,,,,,,,,,,,,,,,,,,,,
,,67c869b756cd63f0b3387d28,2026-03-17_16h15.43.350,kallum_motion_pilot_GIST_update_2,2026.1.1,Win32,60.60606061,67c869b756cd63f0b3387d28,69b95efdef24cd8a694e89ee,69b96154122787376bdbdb42,0.1221,0.1221,0,36,36,112,1,fivesix,,,,,,,,,,,,,,,,,,,,,,,,,,,,,,,,,,,,,,,,,,,,,,,,,,,,,,,,,,,,,,,,,,,,,,,,,,,,,,,,,,,,,,,,,,,,,,,,,,,,,,,,,,,,,,,,,,,,,,,,,,,,,,,,,,,,,,,,,
,,67c869b756cd63f0b3387d28,2026-03-17_16h15.43.350,kallum_motion_pilot_GIST_update_2,2026.1.1,Win32,60.60606061,67c869b756cd63f0b3387d28,69b95efdef24cd8a694e89ee,69b96154122787376bdbdb42,0.1224,0.1224,0,37,37,139,1,sixeight,,,,,,,,,,,,,,,,,,,,,,,,,,,,,,,,,,,,,,,,,,,,,,,,,,,,,,,,,,,,,,,,,,,,,,,,,,,,,,,,,,,,,,,,,,,,,,,,,,,,,,,,,,,,,,,,,,,,,,,,,,,,,,,,,,,,,,,,,
,,67c869b756cd63f0b3387d28,2026-03-17_16h15.43.350,kallum_motion_pilot_GIST_update_2,2026.1.1,Win32,60.60606061,67c869b756cd63f0b3387d28,69b95efdef24cd8a694e89ee,69b96154122787376bdbdb42,0.1227,0.1227,0,38,38,81,1,fiveseven,,,,,,,,,,,,,,,,,,,,,,,,,,,,,,,,,,,,,,,,,,,,,,,,,,,,,,,,,,,,,,,,,,,,,,,,,,,,,,,,,,,,,,,,,,,,,,,,,,,,,,,,,,,,,,,,,,,,,,,,,,,,,,,,,,,,,,,,,
,,67c869b756cd63f0b3387d28,2026-03-17_16h15.43.350,kallum_motion_pilot_GIST_update_2,2026.1.1,Win32,60.60606061,67c869b756cd63f0b3387d28,69b95efdef24cd8a694e89ee,69b96154122787376bdbdb42,0.123,0.1231,0,39,39,108,1,sevenfive,,,,,,,,,,,,,,,,,,,,,,,,,,,,,,,,,,,,,,,,,,,,,,,,,,,,,,,,,,,,,,,,,,,,,,,,,,,,,,,,,,,,,,,,,,,,,,,,,,,,,,,,,,,,,,,,,,,,,,,,,,,,,,,,,,,,,,,,,
,,67c869b756cd63f0b3387d28,2026-03-17_16h15.43.350,kallum_motion_pilot_GIST_update_2,2026.1.1,Win32,60.60606061,67c869b756cd63f0b3387d28,69b95efdef24cd8a694e89ee,69b96154122787376bdbdb42,0.1233,0.1233,0,40,40,104,1,fivesix,,,,,,,,,,,,,,,,,,,,,,,,,,,,,,,,,,,,,,,,,,,,,,,,,,,,,,,,,,,,,,,,,,,,,,,,,,,,,,,,,,,,,,,,,,,,,,,,,,,,,,,,,,,,,,,,,,,,,,,,,,,,,,,,,,,,,,,,,
,,67c869b756cd63f0b3387d28,2026-03-17_16h15.43.350,kallum_motion_pilot_GIST_update_2,2026.1.1,Win32,60.60606061,67c869b756cd63f0b3387d28,69b95efdef24cd8a694e89ee,69b96154122787376bdbdb42,0.1236,0.1236,0,41,41,9,1,onethree,,,,,,,,,,,,,,,,,,,,,,,,,,,,,,,,,,,,,,,,,,,,,,,,,,,,,,,,,,,,,,,,,,,,,,,,,,,,,,,,,,,,,,,,,,,,,,,,,,,,,,,,,,,,,,,,,,,,,,,,,,,,,,,,,,,,,,,,,
,,67c869b756cd63f0b3387d28,2026-03-17_16h15.43.350,kallum_motion_pilot_GIST_update_2,2026.1.1,Win32,60.60606061,67c869b756cd63f0b3387d28,69b95efdef24cd8a694e89ee,69b96154122787376bdbdb42,0.1239,0.1239,0,42,42,69,1,threefour,,,,,,,,,,,,,,,,,,,,,,,,,,,,,,,,,,,,,,,,,,,,,,,,,,,,,,,,,,,,,,,,,,,,,,,,,,,,,,,,,,,,,,,,,,,,,,,,,,,,,,,,,,,,,,,,,,,,,,,,,,,,,,,,,,,,,,,,,
,,67c869b756cd63f0b3387d28,2026-03-17_16h15.43.350,kallum_motion_pilot_GIST_update_2,2026.1.1,Win32,60.60606061,67c869b756cd63f0b3387d28,69b95efdef24cd8a694e89ee,69b96154122787376bdbdb42,0.1241,0.1241,0,43,43,114,1,sixfive,,,,,,,,,,,,,,,,,,,,,,,,,,,,,,,,,,,,,,,,,,,,,,,,,,,,,,,,,,,,,,,,,,,,,,,,,,,,,,,,,,,,,,,,,,,,,,,,,,,,,,,,,,,,,,,,,,,,,,,,,,,,,,,,,,,,,,,,,
,,67c869b756cd63f0b3387d28,2026-03-17_16h15.43.350,kallum_motion_pilot_GIST_update_2,2026.1.1,Win32,60.60606061,67c869b756cd63f0b3387d28,69b95efdef24cd8a694e89ee,69b96154122787376bdbdb42,0.1244,0.1244,0,44,44,16,1,onetwo,,,,,,,,,,,,,,,,,,,,,,,,,,,,,,,,,,,,,,,,,,,,,,,,,,,,,,,,,,,,,,,,,,,,,,,,,,,,,,,,,,,,,,,,,,,,,,,,,,,,,,,,,,,,,,,,,,,,,,,,,,,,,,,,,,,,,,,,,
,,67c869b756cd63f0b3387d28,2026-03-17_16h15.43.350,kallum_motion_pilot_GIST_update_2,2026.1.1,Win32,60.60606061,67c869b756cd63f0b3387d28,69b95efdef24cd8a694e89ee,69b96154122787376bdbdb42,0.1247,0.1247,0,45,45,126,1,eightsix,,,,,,,,,,,,,,,,,,,,,,,,,,,,,,,,,,,,,,,,,,,,,,,,,,,,,,,,,,,,,,,,,,,,,,,,,,,,,,,,,,,,,,,,,,,,,,,,,,,,,,,,,,,,,,,,,,,,,,,,,,,,,,,,,,,,,,,,,
,,67c869b756cd63f0b3387d28,2026-03-17_16h15.43.350,kallum_motion_pilot_GIST_update_2,2026.1.1,Win32,60.60606061,67c869b756cd63f0b3387d28,69b95efdef24cd8a694e89ee,69b96154122787376bdbdb42,0.1249,0.1249,0,46,46,26,1,twoone,,,,,,,,,,,,,,,,,,,,,,,,,,,,,,,,,,,,,,,,,,,,,,,,,,,,,,,,,,,,,,,,,,,,,,,,,,,,,,,,,,,,,,,,,,,,,,,,,,,,,,,,,,,,,,,,,,,,,,,,,,,,,,,,,,,,,,,,,
,,67c869b756cd63f0b3387d28,2026-03-17_16h15.43.350,kallum_motion_pilot_GIST_update_2,2026.1.1,Win32,60.60606061,67c869b756cd63f0b3387d28,69b95efdef24cd8a694e89ee,69b96154122787376bdbdb42,0.1251,0.1251,0,47,47,12,1,threeone,,,,,,,,,,,,,,,,,,,,,,,,,,,,,,,,,,,,,,,,,,,,,,,,,,,,,,,,,,,,,,,,,,,,,,,,,,,,,,,,,,,,,,,,,,,,,,,,,,,,,,,,,,,,,,,,,,,,,,,,,,,,,,,,,,,,,,,,,
,,67c869b756cd63f0b3387d28,2026-03-17_16h15.43.350,kallum_motion_pilot_GIST_update_2,2026.1.1,Win32,60.60606061,67c869b756cd63f0b3387d28,69b95efdef24cd8a694e89ee,69b96154122787376bdbdb42,0.1254,0.1254,0,48,48,129,1,fiveseven,,,,,,,,,,,,,,,,,,,,,,,,,,,,,,,,,,,,,,,,,,,,,,,,,,,,,,,,,,,,,,,,,,,,,,,,,,,,,,,,,,,,,,,,,,,,,,,,,,,,,,,,,,,,,,,,,,,,,,,,,,,,,,,,,,,,,,,,,
,,67c869b756cd63f0b3387d28,2026-03-17_16h15.43.350,kallum_motion_pilot_GIST_update_2,2026.1.1,Win32,60.60606061,67c869b756cd63f0b3387d28,69b95efdef24cd8a694e89ee,69b96154122787376bdbdb42,0.1257,0.1258,0,49,49,13,1,threefour,,,,,,,,,,,,,,,,,,,,,,,,,,,,,,,,,,,,,,,,,,,,,,,,,,,,,,,,,,,,,,,,,,,,,,,,,,,,,,,,,,,,,,,,,,,,,,,,,,,,,,,,,,,,,,,,,,,,,,,,,,,,,,,,,,,,,,,,,
,,67c869b756cd63f0b3387d28,2026-03-17_16h15.43.350,kallum_motion_pilot_GIST_update_2,2026.1.1,Win32,60.60606061,67c869b756cd63f0b3387d28,69b95efdef24cd8a694e89ee,69b96154122787376bdbdb42,0.126,0.126,0,50,50,41,1,onethree,,,,,,,,,,,,,,,,,,,,,,,,,,,,,,,,,,,,,,,,,,,,,,,,,,,,,,,,,,,,,,,,,,,,,,,,,,,,,,,,,,,,,,,,,,,,,,,,,,,,,,,,,,,,,,,,,,,,,,,,,,,,,,,,,,,,,,,,,
,,67c869b756cd63f0b3387d28,2026-03-17_16h15.43.350,kallum_motion_pilot_GIST_update_2,2026.1.1,Win32,60.60606061,67c869b756cd63f0b3387d28,69b95efdef24cd8a694e89ee,69b96154122787376bdbdb42,0.1262,0.1263,0,51,51,85,1,seveneight,,,,,,,,,,,,,,,,,,,,,,,,,,,,,,,,,,,,,,,,,,,,,,,,,,,,,,,,,,,,,,,,,,,,,,,,,,,,,,,,,,,,,,,,,,,,,,,,,,,,,,,,,,,,,,,,,,,,,,,,,,,,,,,,,,,,,,,,,
,,67c869b756cd63f0b3387d28,2026-03-17_16h15.43.350,kallum_motion_pilot_GIST_update_2,2026.1.1,Win32,60.60606061,67c869b756cd63f0b3387d28,69b95efdef24cd8a694e89ee,69b96154122787376bdbdb42,0.1265,0.1265,0,52,52,23,1,fourthree,,,,,,,,,,,,,,,,,,,,,,,,,,,,,,,,,,,,,,,,,,,,,,,,,,,,,,,,,,,,,,,,,,,,,,,,,,,,,,,,,,,,,,,,,,,,,,,,,,,,,,,,,,,,,,,,,,,,,,,,,,,,,,,,,,,,,,,,,
,,67c869b756cd63f0b3387d28,2026-03-17_16h15.43.350,kallum_motion_pilot_GIST_update_2,2026.1.1,Win32,60.60606061,67c869b756cd63f0b3387d28,69b95efdef24cd8a694e89ee,69b96154122787376bdbdb42,0.1268,0.1268,0,53,53,25,1,onethree,,,,,,,,,,,,,,,,,,,,,,,,,,,,,,,,,,,,,,,,,,,,,,,,,,,,,,,,,,,,,,,,,,,,,,,,,,,,,,,,,,,,,,,,,,,,,,,,,,,,,,,,,,,,,,,,,,,,,,,,,,,,,,,,,,,,,,,,,
,,67c869b756cd63f0b3387d28,2026-03-17_16h15.43.350,kallum_motion_pilot_GIST_update_2,2026.1.1,Win32,60.60606061,67c869b756cd63f0b3387d28,69b95efdef24cd8a694e89ee,69b96154122787376bdbdb42,0.127,0.127,0,54,54,94,1,eightsix,,,,,,,,,,,,,,,,,,,,,,,,,,,,,,,,,,,,,,,,,,,,,,,,,,,,,,,,,,,,,,,,,,,,,,,,,,,,,,,,,,,,,,,,,,,,,,,,,,,,,,,,,,,,,,,,,,,,,,,,,,,,,,,,,,,,,,,,,
,,67c869b756cd63f0b3387d28,2026-03-17_16h15.43.350,kallum_motion_pilot_GIST_update_2,2026.1.1,Win32,60.60606061,67c869b756cd63f0b3387d28,69b95efdef24cd8a694e89ee,69b96154122787376bdbdb42,0.1273,0.1273,0,55,55,18,1,twoone,,,,,,,,,,,,,,,,,,,,,,,,,,,,,,,,,,,,,,,,,,,,,,,,,,,,,,,,,,,,,,,,,,,,,,,,,,,,,,,,,,,,,,,,,,,,,,,,,,,,,,,,,,,,,,,,,,,,,,,,,,,,,,,,,,,,,,,,,
,,67c869b756cd63f0b3387d28,2026-03-17_16h15.43.350,kallum_motion_pilot_GIST_update_2,2026.1.1,Win32,60.60606061,67c869b756cd63f0b3387d28,69b95efdef24cd8a694e89ee,69b96154122787376bdbdb42,0.1276,0.1276,0,56,56,91,1,sixeight,,,,,,,,,,,,,,,,,,,,,,,,,,,,,,,,,,,,,,,,,,,,,,,,,,,,,,,,,,,,,,,,,,,,,,,,,,,,,,,,,,,,,,,,,,,,,,,,,,,,,,,,,,,,,,,,,,,,,,,,,,,,,,,,,,,,,,,,,
,,67c869b756cd63f0b3387d28,2026-03-17_16h15.43.350,kallum_motion_pilot_GIST_update_2,2026.1.1,Win32,60.60606061,67c869b756cd63f0b3387d28,69b95efdef24cd8a694e89ee,69b96154122787376bdbdb42,0.1279,0.1279,0,57,57,0,1,onetwo,,,,,,,,,,,,,,,,,,,,,,,,,,,,,,,,,,,,,,,,,,,,,,,,,,,,,,,,,,,,,,,,,,,,,,,,,,,,,,,,,,,,,,,,,,,,,,,,,,,,,,,,,,,,,,,,,,,,,,,,,,,,,,,,,,,,,,,,,
,,67c869b756cd63f0b3387d28,2026-03-17_16h15.43.350,kallum_motion_pilot_GIST_update_2,2026.1.1,Win32,60.60606061,67c869b756cd63f0b3387d28,69b95efdef24cd8a694e89ee,69b96154122787376bdbdb42,0.1282,0.1282,0,58,58,77,1,threefour,,,,,,,,,,,,,,,,,,,,,,,,,,,,,,,,,,,,,,,,,,,,,,,,,,,,,,,,,,,,,,,,,,,,,,,,,,,,,,,,,,,,,,,,,,,,,,,,,,,,,,,,,,,,,,,,,,,,,,,,,,,,,,,,,,,,,,,,,
,,67c869b756cd63f0b3387d28,2026-03-17_16h15.43.350,kallum_motion_pilot_GIST_update_2,2026.1.1,Win32,60.60606061,67c869b756cd63f0b3387d28,69b95efdef24cd8a694e89ee,69b96154122787376bdbdb42,0.1285,0.1286,0,59,59,51,1,twofour,,,,,,,,,,,,,,,,,,,,,,,,,,,,,,,,,,,,,,,,,,,,,,,,,,,,,,,,,,,,,,,,,,,,,,,,,,,,,,,,,,,,,,,,,,,,,,,,,,,,,,,,,,,,,,,,,,,,,,,,,,,,,,,,,,,,,,,,,
,,67c869b756cd63f0b3387d28,2026-03-17_16h15.43.350,kallum_motion_pilot_GIST_update_2,2026.1.1,Win32,60.60606061,67c869b756cd63f0b3387d28,69b95efdef24cd8a694e89ee,69b96154122787376bdbdb42,0.1287,0.1288,0,60,60,66,1,twoone,,,,,,,,,,,,,,,,,,,,,,,,,,,,,,,,,,,,,,,,,,,,,,,,,,,,,,,,,,,,,,,,,,,,,,,,,,,,,,,,,,,,,,,,,,,,,,,,,,,,,,,,,,,,,,,,,,,,,,,,,,,,,,,,,,,,,,,,,
,,67c869b756cd63f0b3387d28,2026-03-17_16h15.43.350,kallum_motion_pilot_GIST_update_2,2026.1.1,Win32,60.60606061,67c869b756cd63f0b3387d28,69b95efdef24cd8a694e89ee,69b96154122787376bdbdb42,0.1302,0.1303,0,61,61,19,1,twofour,,,,,,,,,,,,,,,,,,,,,,,,,,,,,,,,,,,,,,,,,,,,,,,,,,,,,,,,,,,,,,,,,,,,,,,,,,,,,,,,,,,,,,,,,,,,,,,,,,,,,,,,,,,,,,,,,,,,,,,,,,,,,,,,,,,,,,,,,
,,67c869b756cd63f0b3387d28,2026-03-17_16h15.43.350,kallum_motion_pilot_GIST_update_2,2026.1.1,Win32,60.60606061,67c869b756cd63f0b3387d28,69b95efdef24cd8a694e89ee,69b96154122787376bdbdb42,0.1305,0.1305,0,62,62,42,1,twoone,,,,,,,,,,,,,,,,,,,,,,,,,,,,,,,,,,,,,,,,,,,,,,,,,,,,,,,,,,,,,,,,,,,,,,,,,,,,,,,,,,,,,,,,,,,,,,,,,,,,,,,,,,,,,,,,,,,,,,,,,,,,,,,,,,,,,,,,,
,,67c869b756cd63f0b3387d28,2026-03-17_16h15.43.350,kallum_motion_pilot_GIST_update_2,2026.1.1,Win32,60.60606061,67c869b756cd63f0b3387d28,69b95efdef24cd8a694e89ee,69b96154122787376bdbdb42,0.1309,0.1309,0,63,63,86,1,eightsix,,,,,,,,,,,,,,,,,,,,,,,,,,,,,,,,,,,,,,,,,,,,,,,,,,,,,,,,,,,,,,,,,,,,,,,,,,,,,,,,,,,,,,,,,,,,,,,,,,,,,,,,,,,,,,,,,,,,,,,,,,,,,,,,,,,,,,,,,
,,67c869b756cd63f0b3387d28,2026-03-17_16h15.43.350,kallum_motion_pilot_GIST_update_2,2026.1.1,Win32,60.60606061,67c869b756cd63f0b3387d28,69b95efdef24cd8a694e89ee,69b96154122787376bdbdb42,0.1313,0.1313,0,64,64,132,1,sevenfive,,,,,,,,,,,,,,,,,,,,,,,,,,,,,,,,,,,,,,,,,,,,,,,,,,,,,,,,,,,,,,,,,,,,,,,,,,,,,,,,,,,,,,,,,,,,,,,,,,,,,,,,,,,,,,,,,,,,,,,,,,,,,,,,,,,,,,,,,
,,67c869b756cd63f0b3387d28,2026-03-17_16h15.43.350,kallum_motion_pilot_GIST_update_2,2026.1.1,Win32,60.60606061,67c869b756cd63f0b3387d28,69b95efdef24cd8a694e89ee,69b96154122787376bdbdb42,0.1317,0.1317,0,65,65,46,1,fourtwo,,,,,,,,,,,,,,,,,,,,,,,,,,,,,,,,,,,,,,,,,,,,,,,,,,,,,,,,,,,,,,,,,,,,,,,,,,,,,,,,,,,,,,,,,,,,,,,,,,,,,,,,,,,,,,,,,,,,,,,,,,,,,,,,,,,,,,,,,
,,67c869b756cd63f0b3387d28,2026-03-17_16h15.43.350,kallum_motion_pilot_GIST_update_2,2026.1.1,Win32,60.60606061,67c869b756cd63f0b3387d28,69b95efdef24cd8a694e89ee,69b96154122787376bdbdb42,0.1322,0.1322,0,66,66,22,1,fourtwo,,,,,,,,,,,,,,,,,,,,,,,,,,,,,,,,,,,,,,,,,,,,,,,,,,,,,,,,,,,,,,,,,,,,,,,,,,,,,,,,,,,,,,,,,,,,,,,,,,,,,,,,,,,,,,,,,,,,,,,,,,,,,,,,,,,,,,,,,
,,67c869b756cd63f0b3387d28,2026-03-17_16h15.43.350,kallum_motion_pilot_GIST_update_2,2026.1.1,Win32,60.60606061,67c869b756cd63f0b3387d28,69b95efdef24cd8a694e89ee,69b96154122787376bdbdb42,0.1325,0.1326,0,67,67,35,1,twofour,,,,,,,,,,,,,,,,,,,,,,,,,,,,,,,,,,,,,,,,,,,,,,,,,,,,,,,,,,,,,,,,,,,,,,,,,,,,,,,,,,,,,,,,,,,,,,,,,,,,,,,,,,,,,,,,,,,,,,,,,,,,,,,,,,,,,,,,,
,,67c869b756cd63f0b3387d28,2026-03-17_16h15.43.350,kallum_motion_pilot_GIST_update_2,2026.1.1,Win32,60.60606061,67c869b756cd63f0b3387d28,69b95efdef24cd8a694e89ee,69b96154122787376bdbdb42,0.1328,0.1328,0,68,68,152,1,fivesix,,,,,,,,,,,,,,,,,,,,,,,,,,,,,,,,,,,,,,,,,,,,,,,,,,,,,,,,,,,,,,,,,,,,,,,,,,,,,,,,,,,,,,,,,,,,,,,,,,,,,,,,,,,,,,,,,,,,,,,,,,,,,,,,,,,,,,,,,
,,67c869b756cd63f0b3387d28,2026-03-17_16h15.43.350,kallum_motion_pilot_GIST_update_2,2026.1.1,Win32,60.60606061,67c869b756cd63f0b3387d28,69b95efdef24cd8a694e89ee,69b96154122787376bdbdb42,0.1331,0.1331,0,69,69,3,1,twofour,,,,,,,,,,,,,,,,,,,,,,,,,,,,,,,,,,,,,,,,,,,,,,,,,,,,,,,,,,,,,,,,,,,,,,,,,,,,,,,,,,,,,,,,,,,,,,,,,,,,,,,,,,,,,,,,,,,,,,,,,,,,,,,,,,,,,,,,,
,,67c869b756cd63f0b3387d28,2026-03-17_16h15.43.350,kallum_motion_pilot_GIST_update_2,2026.1.1,Win32,60.60606061,67c869b756cd63f0b3387d28,69b95efdef24cd8a694e89ee,69b96154122787376bdbdb42,0.1333,0.1333,0,70,70,89,1,fiveseven,,,,,,,,,,,,,,,,,,,,,,,,,,,,,,,,,,,,,,,,,,,,,,,,,,,,,,,,,,,,,,,,,,,,,,,,,,,,,,,,,,,,,,,,,,,,,,,,,,,,,,,,,,,,,,,,,,,,,,,,,,,,,,,,,,,,,,,,,
,,67c869b756cd63f0b3387d28,2026-03-17_16h15.43.350,kallum_motion_pilot_GIST_update_2,2026.1.1,Win32,60.60606061,67c869b756cd63f0b3387d28,69b95efdef24cd8a694e89ee,69b96154122787376bdbdb42,0.1336,0.1337,0,71,71,52,1,threeone,,,,,,,,,,,,,,,,,,,,,,,,,,,,,,,,,,,,,,,,,,,,,,,,,,,,,,,,,,,,,,,,,,,,,,,,,,,,,,,,,,,,,,,,,,,,,,,,,,,,,,,,,,,,,,,,,,,,,,,,,,,,,,,,,,,,,,,,,
,,67c869b756cd63f0b3387d28,2026-03-17_16h15.43.350,kallum_motion_pilot_GIST_update_2,2026.1.1,Win32,60.60606061,67c869b756cd63f0b3387d28,69b95efdef24cd8a694e89ee,69b96154122787376bdbdb42,0.1339,0.134,0,72,72,50,1,twoone,,,,,,,,,,,,,,,,,,,,,,,,,,,,,,,,,,,,,,,,,,,,,,,,,,,,,,,,,,,,,,,,,,,,,,,,,,,,,,,,,,,,,,,,,,,,,,,,,,,,,,,,,,,,,,,,,,,,,,,,,,,,,,,,,,,,,,,,,
,,67c869b756cd63f0b3387d28,2026-03-17_16h15.43.350,kallum_motion_pilot_GIST_update_2,2026.1.1,Win32,60.60606061,67c869b756cd63f0b3387d28,69b95efdef24cd8a694e89ee,69b96154122787376bdbdb42,0.1342,0.1342,0,73,73,68,1,threeone,,,,,,,,,,,,,,,,,,,,,,,,,,,,,,,,,,,,,,,,,,,,,,,,,,,,,,,,,,,,,,,,,,,,,,,,,,,,,,,,,,,,,,,,,,,,,,,,,,,,,,,,,,,,,,,,,,,,,,,,,,,,,,,,,,,,,,,,,
,,67c869b756cd63f0b3387d28,2026-03-17_16h15.43.350,kallum_motion_pilot_GIST_update_2,2026.1.1,Win32,60.60606061,67c869b756cd63f0b3387d28,69b95efdef24cd8a694e89ee,69b96154122787376bdbdb42,0.1345,0.1345,0,74,74,157,1,seveneight,,,,,,,,,,,,,,,,,,,,,,,,,,,,,,,,,,,,,,,,,,,,,,,,,,,,,,,,,,,,,,,,,,,,,,,,,,,,,,,,,,,,,,,,,,,,,,,,,,,,,,,,,,,,,,,,,,,,,,,,,,,,,,,,,,,,,,,,,
,,67c869b756cd63f0b3387d28,2026-03-17_16h15.43.350,kallum_motion_pilot_GIST_update_2,2026.1.1,Win32,60.60606061,67c869b756cd63f0b3387d28,69b95efdef24cd8a694e89ee,69b96154122787376bdbdb42,0.1347,0.1348,0,75,75,111,1,eightseven,,,,,,,,,,,,,,,,,,,,,,,,,,,,,,,,,,,,,,,,,,,,,,,,,,,,,,,,,,,,,,,,,,,,,,,,,,,,,,,,,,,,,,,,,,,,,,,,,,,,,,,,,,,,,,,,,,,,,,,,,,,,,,,,,,,,,,,,,
,,67c869b756cd63f0b3387d28,2026-03-17_16h15.43.350,kallum_motion_pilot_GIST_update_2,2026.1.1,Win32,60.60606061,67c869b756cd63f0b3387d28,69b95efdef24cd8a694e89ee,69b96154122787376bdbdb42,0.135,0.1351,0,76,76,62,1,fourtwo,,,,,,,,,,,,,,,,,,,,,,,,,,,,,,,,,,,,,,,,,,,,,,,,,,,,,,,,,,,,,,,,,,,,,,,,,,,,,,,,,,,,,,,,,,,,,,,,,,,,,,,,,,,,,,,,,,,,,,,,,,,,,,,,,,,,,,,,,
,,67c869b756cd63f0b3387d28,2026-03-17_16h15.43.350,kallum_motion_pilot_GIST_update_2,2026.1.1,Win32,60.60606061,67c869b756cd63f0b3387d28,69b95efdef24cd8a694e89ee,69b96154122787376bdbdb42,0.1353,0.1353,0,77,77,113,1,fiveseven,,,,,,,,,,,,,,,,,,,,,,,,,,,,,,,,,,,,,,,,,,,,,,,,,,,,,,,,,,,,,,,,,,,,,,,,,,,,,,,,,,,,,,,,,,,,,,,,,,,,,,,,,,,,,,,,,,,,,,,,,,,,,,,,,,,,,,,,,
,,67c869b756cd63f0b3387d28,2026-03-17_16h15.43.350,kallum_motion_pilot_GIST_update_2,2026.1.1,Win32,60.60606061,67c869b756cd63f0b3387d28,69b95efdef24cd8a694e89ee,69b96154122787376bdbdb42,0.1355,0.1356,0,78,78,27,1,twofour,,,,,,,,,,,,,,,,,,,,,,,,,,,,,,,,,,,,,,,,,,,,,,,,,,,,,,,,,,,,,,,,,,,,,,,,,,,,,,,,,,,,,,,,,,,,,,,,,,,,,,,,,,,,,,,,,,,,,,,,,,,,,,,,,,,,,,,,,
,,67c869b756cd63f0b3387d28,2026-03-17_16h15.43.350,kallum_motion_pilot_GIST_update_2,2026.1.1,Win32,60.60606061,67c869b756cd63f0b3387d28,69b95efdef24cd8a694e89ee,69b96154122787376bdbdb42,0.1359,0.136,0,79,79,65,1,onethree,,,,,,,,,,,,,,,,,,,,,,,,,,,,,,,,,,,,,,,,,,,,,,,,,,,,,,,,,,,,,,,,,,,,,,,,,,,,,,,,,,,,,,,,,,,,,,,,,,,,,,,,,,,,,,,,,,,,,,,,,,,,,,,,,,,,,,,,,
,,67c869b756cd63f0b3387d28,2026-03-17_16h15.43.350,kallum_motion_pilot_GIST_update_2,2026.1.1,Win32,60.60606061,67c869b756cd63f0b3387d28,69b95efdef24cd8a694e89ee,69b96154122787376bdbdb42,0.1363,0.1363,0,80,80,40,1,onetwo,,,,,,,,,,,,,,,,,,,,,,,,,,,,,,,,,,,,,,,,,,,,,,,,,,,,,,,,,,,,,,,,,,,,,,,,,,,,,,,,,,,,,,,,,,,,,,,,,,,,,,,,,,,,,,,,,,,,,,,,,,,,,,,,,,,,,,,,,
,,67c869b756cd63f0b3387d28,2026-03-17_16h15.43.350,kallum_motion_pilot_GIST_update_2,2026.1.1,Win32,60.60606061,67c869b756cd63f0b3387d28,69b95efdef24cd8a694e89ee,69b96154122787376bdbdb42,0.1367,0.1367,0,81,81,101,1,seveneight,,,,,,,,,,,,,,,,,,,,,,,,,,,,,,,,,,,,,,,,,,,,,,,,,,,,,,,,,,,,,,,,,,,,,,,,,,,,,,,,,,,,,,,,,,,,,,,,,,,,,,,,,,,,,,,,,,,,,,,,,,,,,,,,,,,,,,,,,
,,67c869b756cd63f0b3387d28,2026-03-17_16h15.43.350,kallum_motion_pilot_GIST_update_2,2026.1.1,Win32,60.60606061,67c869b756cd63f0b3387d28,69b95efdef24cd8a694e89ee,69b96154122787376bdbdb42,0.137,0.137,0,82,82,124,1,sevenfive,,,,,,,,,,,,,,,,,,,,,,,,,,,,,,,,,,,,,,,,,,,,,,,,,,,,,,,,,,,,,,,,,,,,,,,,,,,,,,,,,,,,,,,,,,,,,,,,,,,,,,,,,,,,,,,,,,,,,,,,,,,,,,,,,,,,,,,,,
,,67c869b756cd63f0b3387d28,2026-03-17_16h15.43.350,kallum_motion_pilot_GIST_update_2,2026.1.1,Win32,60.60606061,67c869b756cd63f0b3387d28,69b95efdef24cd8a694e89ee,69b96154122787376bdbdb42,0.1372,0.1372,0,83,83,141,1,seveneight,,,,,,,,,,,,,,,,,,,,,,,,,,,,,,,,,,,,,,,,,,,,,,,,,,,,,,,,,,,,,,,,,,,,,,,,,,,,,,,,,,,,,,,,,,,,,,,,,,,,,,,,,,,,,,,,,,,,,,,,,,,,,,,,,,,,,,,,,
,,67c869b756cd63f0b3387d28,2026-03-17_16h15.43.350,kallum_motion_pilot_GIST_update_2,2026.1.1,Win32,60.60606061,67c869b756cd63f0b3387d28,69b95efdef24cd8a694e89ee,69b96154122787376bdbdb42,0.1375,0.1375,0,84,84,125,1,seveneight,,,,,,,,,,,,,,,,,,,,,,,,,,,,,,,,,,,,,,,,,,,,,,,,,,,,,,,,,,,,,,,,,,,,,,,,,,,,,,,,,,,,,,,,,,,,,,,,,,,,,,,,,,,,,,,,,,,,,,,,,,,,,,,,,,,,,,,,,
,,67c869b756cd63f0b3387d28,2026-03-17_16h15.43.350,kallum_motion_pilot_GIST_update_2,2026.1.1,Win32,60.60606061,67c869b756cd63f0b3387d28,69b95efdef24cd8a694e89ee,69b96154122787376bdbdb42,0.1377,0.1378,0,85,85,103,1,eightseven,,,,,,,,,,,,,,,,,,,,,,,,,,,,,,,,,,,,,,,,,,,,,,,,,,,,,,,,,,,,,,,,,,,,,,,,,,,,,,,,,,,,,,,,,,,,,,,,,,,,,,,,,,,,,,,,,,,,,,,,,,,,,,,,,,,,,,,,,
,,67c869b756cd63f0b3387d28,2026-03-17_16h15.43.350,kallum_motion_pilot_GIST_update_2,2026.1.1,Win32,60.60606061,67c869b756cd63f0b3387d28,69b95efdef24cd8a694e89ee,69b96154122787376bdbdb42,0.138,0.1381,0,86,86,107,1,sixeight,,,,,,,,,,,,,,,,,,,,,,,,,,,,,,,,,,,,,,,,,,,,,,,,,,,,,,,,,,,,,,,,,,,,,,,,,,,,,,,,,,,,,,,,,,,,,,,,,,,,,,,,,,,,,,,,,,,,,,,,,,,,,,,,,,,,,,,,,
,,67c869b756cd63f0b3387d28,2026-03-17_16h15.43.350,kallum_motion_pilot_GIST_update_2,2026.1.1,Win32,60.60606061,67c869b756cd63f0b3387d28,69b95efdef24cd8a694e89ee,69b96154122787376bdbdb42,0.1385,0.1385,0,87,87,153,1,fiveseven,,,,,,,,,,,,,,,,,,,,,,,,,,,,,,,,,,,,,,,,,,,,,,,,,,,,,,,,,,,,,,,,,,,,,,,,,,,,,,,,,,,,,,,,,,,,,,,,,,,,,,,,,,,,,,,,,,,,,,,,,,,,,,,,,,,,,,,,,
,,67c869b756cd63f0b3387d28,2026-03-17_16h15.43.350,kallum_motion_pilot_GIST_update_2,2026.1.1,Win32,60.60606061,67c869b756cd63f0b3387d28,69b95efdef24cd8a694e89ee,69b96154122787376bdbdb42,0.1387,0.1387,0,88,88,88,1,fivesix,,,,,,,,,,,,,,,,,,,,,,,,,,,,,,,,,,,,,,,,,,,,,,,,,,,,,,,,,,,,,,,,,,,,,,,,,,,,,,,,,,,,,,,,,,,,,,,,,,,,,,,,,,,,,,,,,,,,,,,,,,,,,,,,,,,,,,,,,
,,67c869b756cd63f0b3387d28,2026-03-17_16h15.43.350,kallum_motion_pilot_GIST_update_2,2026.1.1,Win32,60.60606061,67c869b756cd63f0b3387d28,69b95efdef24cd8a694e89ee,69b96154122787376bdbdb42,0.139,0.139,0,89,89,148,1,sevenfive,,,,,,,,,,,,,,,,,,,,,,,,,,,,,,,,,,,,,,,,,,,,,,,,,,,,,,,,,,,,,,,,,,,,,,,,,,,,,,,,,,,,,,,,,,,,,,,,,,,,,,,,,,,,,,,,,,,,,,,,,,,,,,,,,,,,,,,,,
,,67c869b756cd63f0b3387d28,2026-03-17_16h15.43.350,kallum_motion_pilot_GIST_update_2,2026.1.1,Win32,60.60606061,67c869b756cd63f0b3387d28,69b95efdef24cd8a694e89ee,69b96154122787376bdbdb42,0.1395,0.1395,0,90,90,117,1,seveneight,,,,,,,,,,,,,,,,,,,,,,,,,,,,,,,,,,,,,,,,,,,,,,,,,,,,,,,,,,,,,,,,,,,,,,,,,,,,,,,,,,,,,,,,,,,,,,,,,,,,,,,,,,,,,,,,,,,,,,,,,,,,,,,,,,,,,,,,,
,,67c869b756cd63f0b3387d28,2026-03-17_16h15.43.350,kallum_motion_pilot_GIST_update_2,2026.1.1,Win32,60.60606061,67c869b756cd63f0b3387d28,69b95efdef24cd8a694e89ee,69b96154122787376bdbdb42,0.1399,0.1399,0,91,91,63,1,fourthree,,,,,,,,,,,,,,,,,,,,,,,,,,,,,,,,,,,,,,,,,,,,,,,,,,,,,,,,,,,,,,,,,,,,,,,,,,,,,,,,,,,,,,,,,,,,,,,,,,,,,,,,,,,,,,,,,,,,,,,,,,,,,,,,,,,,,,,,,
,,67c869b756cd63f0b3387d28,2026-03-17_16h15.43.350,kallum_motion_pilot_GIST_update_2,2026.1.1,Win32,60.60606061,67c869b756cd63f0b3387d28,69b95efdef24cd8a694e89ee,69b96154122787376bdbdb42,0.1402,0.1402,0,92,92,57,1,onethree,,,,,,,,,,,,,,,,,,,,,,,,,,,,,,,,,,,,,,,,,,,,,,,,,,,,,,,,,,,,,,,,,,,,,,,,,,,,,,,,,,,,,,,,,,,,,,,,,,,,,,,,,,,,,,,,,,,,,,,,,,,,,,,,,,,,,,,,,
,,67c869b756cd63f0b3387d28,2026-03-17_16h15.43.350,kallum_motion_pilot_GIST_update_2,2026.1.1,Win32,60.60606061,67c869b756cd63f0b3387d28,69b95efdef24cd8a694e89ee,69b96154122787376bdbdb42,0.1404,0.1404,0,93,93,39,1,fourthree,,,,,,,,,,,,,,,,,,,,,,,,,,,,,,,,,,,,,,,,,,,,,,,,,,,,,,,,,,,,,,,,,,,,,,,,,,,,,,,,,,,,,,,,,,,,,,,,,,,,,,,,,,,,,,,,,,,,,,,,,,,,,,,,,,,,,,,,,
,,67c869b756cd63f0b3387d28,2026-03-17_16h15.43.350,kallum_motion_pilot_GIST_update_2,2026.1.1,Win32,60.60606061,67c869b756cd63f0b3387d28,69b95efdef24cd8a694e89ee,69b96154122787376bdbdb42,0.1406,0.1406,0,94,94,90,1,sixfive,,,,,,,,,,,,,,,,,,,,,,,,,,,,,,,,,,,,,,,,,,,,,,,,,,,,,,,,,,,,,,,,,,,,,,,,,,,,,,,,,,,,,,,,,,,,,,,,,,,,,,,,,,,,,,,,,,,,,,,,,,,,,,,,,,,,,,,,,
,,67c869b756cd63f0b3387d28,2026-03-17_16h15.43.350,kallum_motion_pilot_GIST_update_2,2026.1.1,Win32,60.60606061,67c869b756cd63f0b3387d28,69b95efdef24cd8a694e89ee,69b96154122787376bdbdb42,0.1409,0.1409,0,95,95,127,1,eightseven,,,,,,,,,,,,,,,,,,,,,,,,,,,,,,,,,,,,,,,,,,,,,,,,,,,,,,,,,,,,,,,,,,,,,,,,,,,,,,,,,,,,,,,,,,,,,,,,,,,,,,,,,,,,,,,,,,,,,,,,,,,,,,,,,,,,,,,,,
,,67c869b756cd63f0b3387d28,2026-03-17_16h15.43.350,kallum_motion_pilot_GIST_update_2,2026.1.1,Win32,60.60606061,67c869b756cd63f0b3387d28,69b95efdef24cd8a694e89ee,69b96154122787376bdbdb42,0.1413,0.1413,0,96,96,142,1,eightsix,,,,,,,,,,,,,,,,,,,,,,,,,,,,,,,,,,,,,,,,,,,,,,,,,,,,,,,,,,,,,,,,,,,,,,,,,,,,,,,,,,,,,,,,,,,,,,,,,,,,,,,,,,,,,,,,,,,,,,,,,,,,,,,,,,,,,,,,,
,,67c869b756cd63f0b3387d28,2026-03-17_16h15.43.350,kallum_motion_pilot_GIST_update_2,2026.1.1,Win32,60.60606061,67c869b756cd63f0b3387d28,69b95efdef24cd8a694e89ee,69b96154122787376bdbdb42,0.1415,0.1416,0,97,97,93,1,seveneight,,,,,,,,,,,,,,,,,,,,,,,,,,,,,,,,,,,,,,,,,,,,,,,,,,,,,,,,,,,,,,,,,,,,,,,,,,,,,,,,,,,,,,,,,,,,,,,,,,,,,,,,,,,,,,,,,,,,,,,,,,,,,,,,,,,,,,,,,
,,67c869b756cd63f0b3387d28,2026-03-17_16h15.43.350,kallum_motion_pilot_GIST_update_2,2026.1.1,Win32,60.60606061,67c869b756cd63f0b3387d28,69b95efdef24cd8a694e89ee,69b96154122787376bdbdb42,0.1418,0.1418,0,98,98,11,1,twofour,,,,,,,,,,,,,,,,,,,,,,,,,,,,,,,,,,,,,,,,,,,,,,,,,,,,,,,,,,,,,,,,,,,,,,,,,,,,,,,,,,,,,,,,,,,,,,,,,,,,,,,,,,,,,,,,,,,,,,,,,,,,,,,,,,,,,,,,,
,,67c869b756cd63f0b3387d28,2026-03-17_16h15.43.350,kallum_motion_pilot_GIST_update_2,2026.1.1,Win32,60.60606061,67c869b756cd63f0b3387d28,69b95efdef24cd8a694e89ee,69b96154122787376bdbdb42,0.1421,0.1421,0,99,99,58,1,twoone,,,,,,,,,,,,,,,,,,,,,,,,,,,,,,,,,,,,,,,,,,,,,,,,,,,,,,,,,,,,,,,,,,,,,,,,,,,,,,,,,,,,,,,,,,,,,,,,,,,,,,,,,,,,,,,,,,,,,,,,,,,,,,,,,,,,,,,,,
,,67c869b756cd63f0b3387d28,2026-03-17_16h15.43.350,kallum_motion_pilot_GIST_update_2,2026.1.1,Win32,60.60606061,67c869b756cd63f0b3387d28,69b95efdef24cd8a694e89ee,69b96154122787376bdbdb42,0.1423,0.1423,0,100,100,38,1,fourtwo,,,,,,,,,,,,,,,,,,,,,,,,,,,,,,,,,,,,,,,,,,,,,,,,,,,,,,,,,,,,,,,,,,,,,,,,,,,,,,,,,,,,,,,,,,,,,,,,,,,,,,,,,,,,,,,,,,,,,,,,,,,,,,,,,,,,,,,,,
,,67c869b756cd63f0b3387d28,2026-03-17_16h15.43.350,kallum_motion_pilot_GIST_update_2,2026.1.1,Win32,60.60606061,67c869b756cd63f0b3387d28,69b95efdef24cd8a694e89ee,69b96154122787376bdbdb42,0.1426,0.1426,0,101,101,149,1,seveneight,,,,,,,,,,,,,,,,,,,,,,,,,,,,,,,,,,,,,,,,,,,,,,,,,,,,,,,,,,,,,,,,,,,,,,,,,,,,,,,,,,,,,,,,,,,,,,,,,,,,,,,,,,,,,,,,,,,,,,,,,,,,,,,,,,,,,,,,,
,,67c869b756cd63f0b3387d28,2026-03-17_16h15.43.350,kallum_motion_pilot_GIST_update_2,2026.1.1,Win32,60.60606061,67c869b756cd63f0b3387d28,69b95efdef24cd8a694e89ee,69b96154122787376bdbdb42,0.1429,0.1429,0,102,102,118,1,eightsix,,,,,,,,,,,,,,,,,,,,,,,,,,,,,,,,,,,,,,,,,,,,,,,,,,,,,,,,,,,,,,,,,,,,,,,,,,,,,,,,,,,,,,,,,,,,,,,,,,,,,,,,,,,,,,,,,,,,,,,,,,,,,,,,,,,,,,,,,
,,67c869b756cd63f0b3387d28,2026-03-17_16h15.43.350,kallum_motion_pilot_GIST_update_2,2026.1.1,Win32,60.60606061,67c869b756cd63f0b3387d28,69b95efdef24cd8a694e89ee,69b96154122787376bdbdb42,0.1432,0.1432,0,103,103,72,1,onetwo,,,,,,,,,,,,,,,,,,,,,,,,,,,,,,,,,,,,,,,,,,,,,,,,,,,,,,,,,,,,,,,,,,,,,,,,,,,,,,,,,,,,,,,,,,,,,,,,,,,,,,,,,,,,,,,,,,,,,,,,,,,,,,,,,,,,,,,,,
,,67c869b756cd63f0b3387d28,2026-03-17_16h15.43.350,kallum_motion_pilot_GIST_update_2,2026.1.1,Win32,60.60606061,67c869b756cd63f0b3387d28,69b95efdef24cd8a694e89ee,69b96154122787376bdbdb42,0.1435,0.1436,0,104,104,44,1,threeone,,,,,,,,,,,,,,,,,,,,,,,,,,,,,,,,,,,,,,,,,,,,,,,,,,,,,,,,,,,,,,,,,,,,,,,,,,,,,,,,,,,,,,,,,,,,,,,,,,,,,,,,,,,,,,,,,,,,,,,,,,,,,,,,,,,,,,,,,
,,67c869b756cd63f0b3387d28,2026-03-17_16h15.43.350,kallum_motion_pilot_GIST_update_2,2026.1.1,Win32,60.60606061,67c869b756cd63f0b3387d28,69b95efdef24cd8a694e89ee,69b96154122787376bdbdb42,0.1441,0.1441,0,105,105,150,1,eightsix,,,,,,,,,,,,,,,,,,,,,,,,,,,,,,,,,,,,,,,,,,,,,,,,,,,,,,,,,,,,,,,,,,,,,,,,,,,,,,,,,,,,,,,,,,,,,,,,,,,,,,,,,,,,,,,,,,,,,,,,,,,,,,,,,,,,,,,,,
,,67c869b756cd63f0b3387d28,2026-03-17_16h15.43.350,kallum_motion_pilot_GIST_update_2,2026.1.1,Win32,60.60606061,67c869b756cd63f0b3387d28,69b95efdef24cd8a694e89ee,69b96154122787376bdbdb42,0.1447,0.1447,0,106,106,61,1,threefour,,,,,,,,,,,,,,,,,,,,,,,,,,,,,,,,,,,,,,,,,,,,,,,,,,,,,,,,,,,,,,,,,,,,,,,,,,,,,,,,,,,,,,,,,,,,,,,,,,,,,,,,,,,,,,,,,,,,,,,,,,,,,,,,,,,,,,,,,
,,67c869b756cd63f0b3387d28,2026-03-17_16h15.43.350,kallum_motion_pilot_GIST_update_2,2026.1.1,Win32,60.60606061,67c869b756cd63f0b3387d28,69b95efdef24cd8a694e89ee,69b96154122787376bdbdb42,0.1451,0.1451,0,107,107,28,1,threeone,,,,,,,,,,,,,,,,,,,,,,,,,,,,,,,,,,,,,,,,,,,,,,,,,,,,,,,,,,,,,,,,,,,,,,,,,,,,,,,,,,,,,,,,,,,,,,,,,,,,,,,,,,,,,,,,,,,,,,,,,,,,,,,,,,,,,,,,,
,,67c869b756cd63f0b3387d28,2026-03-17_16h15.43.350,kallum_motion_pilot_GIST_update_2,2026.1.1,Win32,60.60606061,67c869b756cd63f0b3387d28,69b95efdef24cd8a694e89ee,69b96154122787376bdbdb42,0.1453,0.1459,0,108,108,158,1,eightsix,,,,,,,,,,,,,,,,,,,,,,,,,,,,,,,,,,,,,,,,,,,,,,,,,,,,,,,,,,,,,,,,,,,,,,,,,,,,,,,,,,,,,,,,,,,,,,,,,,,,,,,,,,,,,,,,,,,,,,,,,,,,,,,,,,,,,,,,,
,,67c869b756cd63f0b3387d28,2026-03-17_16h15.43.350,kallum_motion_pilot_GIST_update_2,2026.1.1,Win32,60.60606061,67c869b756cd63f0b3387d28,69b95efdef24cd8a694e89ee,69b96154122787376bdbdb42,0.1462,0.1462,0,109,109,29,1,threefour,,,,,,,,,,,,,,,,,,,,,,,,,,,,,,,,,,,,,,,,,,,,,,,,,,,,,,,,,,,,,,,,,,,,,,,,,,,,,,,,,,,,,,,,,,,,,,,,,,,,,,,,,,,,,,,,,,,,,,,,,,,,,,,,,,,,,,,,,
,,67c869b756cd63f0b3387d28,2026-03-17_16h15.43.350,kallum_motion_pilot_GIST_update_2,2026.1.1,Win32,60.60606061,67c869b756cd63f0b3387d28,69b95efdef24cd8a694e89ee,69b96154122787376bdbdb42,0.1465,0.1466,0,110,110,135,1,eightseven,,,,,,,,,,,,,,,,,,,,,,,,,,,,,,,,,,,,,,,,,,,,,,,,,,,,,,,,,,,,,,,,,,,,,,,,,,,,,,,,,,,,,,,,,,,,,,,,,,,,,,,,,,,,,,,,,,,,,,,,,,,,,,,,,,,,,,,,,
,,67c869b756cd63f0b3387d28,2026-03-17_16h15.43.350,kallum_motion_pilot_GIST_update_2,2026.1.1,Win32,60.60606061,67c869b756cd63f0b3387d28,69b95efdef24cd8a694e89ee,69b96154122787376bdbdb42,0.1469,0.1469,0,111,111,54,1,fourtwo,,,,,,,,,,,,,,,,,,,,,,,,,,,,,,,,,,,,,,,,,,,,,,,,,,,,,,,,,,,,,,,,,,,,,,,,,,,,,,,,,,,,,,,,,,,,,,,,,,,,,,,,,,,,,,,,,,,,,,,,,,,,,,,,,,,,,,,,,
,,67c869b756cd63f0b3387d28,2026-03-17_16h15.43.350,kallum_motion_pilot_GIST_update_2,2026.1.1,Win32,60.60606061,67c869b756cd63f0b3387d28,69b95efdef24cd8a694e89ee,69b96154122787376bdbdb42,0.1473,0.1473,0,112,112,97,1,fiveseven,,,,,,,,,,,,,,,,,,,,,,,,,,,,,,,,,,,,,,,,,,,,,,,,,,,,,,,,,,,,,,,,,,,,,,,,,,,,,,,,,,,,,,,,,,,,,,,,,,,,,,,,,,,,,,,,,,,,,,,,,,,,,,,,,,,,,,,,,
,,67c869b756cd63f0b3387d28,2026-03-17_16h15.43.350,kallum_motion_pilot_GIST_update_2,2026.1.1,Win32,60.60606061,67c869b756cd63f0b3387d28,69b95efdef24cd8a694e89ee,69b96154122787376bdbdb42,0.1476,0.1476,0,113,113,73,1,onethree,,,,,,,,,,,,,,,,,,,,,,,,,,,,,,,,,,,,,,,,,,,,,,,,,,,,,,,,,,,,,,,,,,,,,,,,,,,,,,,,,,,,,,,,,,,,,,,,,,,,,,,,,,,,,,,,,,,,,,,,,,,,,,,,,,,,,,,,,
,,67c869b756cd63f0b3387d28,2026-03-17_16h15.43.350,kallum_motion_pilot_GIST_update_2,2026.1.1,Win32,60.60606061,67c869b756cd63f0b3387d28,69b95efdef24cd8a694e89ee,69b96154122787376bdbdb42,0.1479,0.148,0,114,114,59,1,twofour,,,,,,,,,,,,,,,,,,,,,,,,,,,,,,,,,,,,,,,,,,,,,,,,,,,,,,,,,,,,,,,,,,,,,,,,,,,,,,,,,,,,,,,,,,,,,,,,,,,,,,,,,,,,,,,,,,,,,,,,,,,,,,,,,,,,,,,,,
,,67c869b756cd63f0b3387d28,2026-03-17_16h15.43.350,kallum_motion_pilot_GIST_update_2,2026.1.1,Win32,60.60606061,67c869b756cd63f0b3387d28,69b95efdef24cd8a694e89ee,69b96154122787376bdbdb42,0.1482,0.1482,0,115,115,100,1,sevenfive,,,,,,,,,,,,,,,,,,,,,,,,,,,,,,,,,,,,,,,,,,,,,,,,,,,,,,,,,,,,,,,,,,,,,,,,,,,,,,,,,,,,,,,,,,,,,,,,,,,,,,,,,,,,,,,,,,,,,,,,,,,,,,,,,,,,,,,,,
,,67c869b756cd63f0b3387d28,2026-03-17_16h15.43.350,kallum_motion_pilot_GIST_update_2,2026.1.1,Win32,60.60606061,67c869b756cd63f0b3387d28,69b95efdef24cd8a694e89ee,69b96154122787376bdbdb42,0.1485,0.1485,0,116,116,119,1,eightseven,,,,,,,,,,,,,,,,,,,,,,,,,,,,,,,,,,,,,,,,,,,,,,,,,,,,,,,,,,,,,,,,,,,,,,,,,,,,,,,,,,,,,,,,,,,,,,,,,,,,,,,,,,,,,,,,,,,,,,,,,,,,,,,,,,,,,,,,,
,,67c869b756cd63f0b3387d28,2026-03-17_16h15.43.350,kallum_motion_pilot_GIST_update_2,2026.1.1,Win32,60.60606061,67c869b756cd63f0b3387d28,69b95efdef24cd8a694e89ee,69b96154122787376bdbdb42,0.1487,0.1488,0,117,117,95,1,eightseven,,,,,,,,,,,,,,,,,,,,,,,,,,,,,,,,,,,,,,,,,,,,,,,,,,,,,,,,,,,,,,,,,,,,,,,,,,,,,,,,,,,,,,,,,,,,,,,,,,,,,,,,,,,,,,,,,,,,,,,,,,,,,,,,,,,,,,,,,
,,67c869b756cd63f0b3387d28,2026-03-17_16h15.43.350,kallum_motion_pilot_GIST_update_2,2026.1.1,Win32,60.60606061,67c869b756cd63f0b3387d28,69b95efdef24cd8a694e89ee,69b96154122787376bdbdb42,0.149,0.1491,0,118,118,145,1,fiveseven,,,,,,,,,,,,,,,,,,,,,,,,,,,,,,,,,,,,,,,,,,,,,,,,,,,,,,,,,,,,,,,,,,,,,,,,,,,,,,,,,,,,,,,,,,,,,,,,,,,,,,,,,,,,,,,,,,,,,,,,,,,,,,,,,,,,,,,,,
,,67c869b756cd63f0b3387d28,2026-03-17_16h15.43.350,kallum_motion_pilot_GIST_update_2,2026.1.1,Win32,60.60606061,67c869b756cd63f0b3387d28,69b95efdef24cd8a694e89ee,69b96154122787376bdbdb42,0.1495,0.1495,0,119,119,131,1,sixeight,,,,,,,,,,,,,,,,,,,,,,,,,,,,,,,,,,,,,,,,,,,,,,,,,,,,,,,,,,,,,,,,,,,,,,,,,,,,,,,,,,,,,,,,,,,,,,,,,,,,,,,,,,,,,,,,,,,,,,,,,,,,,,,,,,,,,,,,,
,,67c869b756cd63f0b3387d28,2026-03-17_16h15.43.350,kallum_motion_pilot_GIST_update_2,2026.1.1,Win32,60.60606061,67c869b756cd63f0b3387d28,69b95efdef24cd8a694e89ee,69b96154122787376bdbdb42,0.1499,0.1499,0,120,120,31,1,fourthree,,,,,,,,,,,,,,,,,,,,,,,,,,,,,,,,,,,,,,,,,,,,,,,,,,,,,,,,,,,,,,,,,,,,,,,,,,,,,,,,,,,,,,,,,,,,,,,,,,,,,,,,,,,,,,,,,,,,,,,,,,,,,,,,,,,,,,,,,
,,67c869b756cd63f0b3387d28,2026-03-17_16h15.43.350,kallum_motion_pilot_GIST_update_2,2026.1.1,Win32,60.60606061,67c869b756cd63f0b3387d28,69b95efdef24cd8a694e89ee,69b96154122787376bdbdb42,0.1501,0.1503,0,121,121,24,1,onetwo,,,,,,,,,,,,,,,,,,,,,,,,,,,,,,,,,,,,,,,,,,,,,,,,,,,,,,,,,,,,,,,,,,,,,,,,,,,,,,,,,,,,,,,,,,,,,,,,,,,,,,,,,,,,,,,,,,,,,,,,,,,,,,,,,,,,,,,,,
,,67c869b756cd63f0b3387d28,2026-03-17_16h15.43.350,kallum_motion_pilot_GIST_update_2,2026.1.1,Win32,60.60606061,67c869b756cd63f0b3387d28,69b95efdef24cd8a694e89ee,69b96154122787376bdbdb42,0.1504,0.1505,0,122,122,79,1,eightseven,,,,,,,,,,,,,,,,,,,,,,,,,,,,,,,,,,,,,,,,,,,,,,,,,,,,,,,,,,,,,,,,,,,,,,,,,,,,,,,,,,,,,,,,,,,,,,,,,,,,,,,,,,,,,,,,,,,,,,,,,,,,,,,,,,,,,,,,,
,,67c869b756cd63f0b3387d28,2026-03-17_16h15.43.350,kallum_motion_pilot_GIST_update_2,2026.1.1,Win32,60.60606061,67c869b756cd63f0b3387d28,69b95efdef24cd8a694e89ee,69b96154122787376bdbdb42,0.1508,0.1508,0,123,123,161,1,fiveseven,,,,,,,,,,,,,,,,,,,,,,,,,,,,,,,,,,,,,,,,,,,,,,,,,,,,,,,,,,,,,,,,,,,,,,,,,,,,,,,,,,,,,,,,,,,,,,,,,,,,,,,,,,,,,,,,,,,,,,,,,,,,,,,,,,,,,,,,,
,,67c869b756cd63f0b3387d28,2026-03-17_16h15.43.350,kallum_motion_pilot_GIST_update_2,2026.1.1,Win32,60.60606061,67c869b756cd63f0b3387d28,69b95efdef24cd8a694e89ee,69b96154122787376bdbdb42,0.1512,0.1512,0,124,124,36,1,threeone,,,,,,,,,,,,,,,,,,,,,,,,,,,,,,,,,,,,,,,,,,,,,,,,,,,,,,,,,,,,,,,,,,,,,,,,,,,,,,,,,,,,,,,,,,,,,,,,,,,,,,,,,,,,,,,,,,,,,,,,,,,,,,,,,,,,,,,,,
,,67c869b756cd63f0b3387d28,2026-03-17_16h15.43.350,kallum_motion_pilot_GIST_update_2,2026.1.1,Win32,60.60606061,67c869b756cd63f0b3387d28,69b95efdef24cd8a694e89ee,69b96154122787376bdbdb42,0.1517,0.1518,0,125,125,15,1,fourthree,,,,,,,,,,,,,,,,,,,,,,,,,,,,,,,,,,,,,,,,,,,,,,,,,,,,,,,,,,,,,,,,,,,,,,,,,,,,,,,,,,,,,,,,,,,,,,,,,,,,,,,,,,,,,,,,,,,,,,,,,,,,,,,,,,,,,,,,,
,,67c869b756cd63f0b3387d28,2026-03-17_16h15.43.350,kallum_motion_pilot_GIST_update_2,2026.1.1,Win32,60.60606061,67c869b756cd63f0b3387d28,69b95efdef24cd8a694e89ee,69b96154122787376bdbdb42,0.1521,0.1521,0,126,126,105,1,fiveseven,,,,,,,,,,,,,,,,,,,,,,,,,,,,,,,,,,,,,,,,,,,,,,,,,,,,,,,,,,,,,,,,,,,,,,,,,,,,,,,,,,,,,,,,,,,,,,,,,,,,,,,,,,,,,,,,,,,,,,,,,,,,,,,,,,,,,,,,,
,,67c869b756cd63f0b3387d28,2026-03-17_16h15.43.350,kallum_motion_pilot_GIST_update_2,2026.1.1,Win32,60.60606061,67c869b756cd63f0b3387d28,69b95efdef24cd8a694e89ee,69b96154122787376bdbdb42,0.1523,0.1524,0,127,127,60,1,threeone,,,,,,,,,,,,,,,,,,,,,,,,,,,,,,,,,,,,,,,,,,,,,,,,,,,,,,,,,,,,,,,,,,,,,,,,,,,,,,,,,,,,,,,,,,,,,,,,,,,,,,,,,,,,,,,,,,,,,,,,,,,,,,,,,,,,,,,,,
,,67c869b756cd63f0b3387d28,2026-03-17_16h15.43.350,kallum_motion_pilot_GIST_update_2,2026.1.1,Win32,60.60606061,67c869b756cd63f0b3387d28,69b95efdef24cd8a694e89ee,69b96154122787376bdbdb42,0.1526,0.1526,0,128,128,140,1,sevenfive,,,,,,,,,,,,,,,,,,,,,,,,,,,,,,,,,,,,,,,,,,,,,,,,,,,,,,,,,,,,,,,,,,,,,,,,,,,,,,,,,,,,,,,,,,,,,,,,,,,,,,,,,,,,,,,,,,,,,,,,,,,,,,,,,,,,,,,,,
,,67c869b756cd63f0b3387d28,2026-03-17_16h15.43.350,kallum_motion_pilot_GIST_update_2,2026.1.1,Win32,60.60606061,67c869b756cd63f0b3387d28,69b95efdef24cd8a694e89ee,69b96154122787376bdbdb42,0.1529,0.1529,0,129,129,7,1,fourthree,,,,,,,,,,,,,,,,,,,,,,,,,,,,,,,,,,,,,,,,,,,,,,,,,,,,,,,,,,,,,,,,,,,,,,,,,,,,,,,,,,,,,,,,,,,,,,,,,,,,,,,,,,,,,,,,,,,,,,,,,,,,,,,,,,,,,,,,,
,,67c869b756cd63f0b3387d28,2026-03-17_16h15.43.350,kallum_motion_pilot_GIST_update_2,2026.1.1,Win32,60.60606061,67c869b756cd63f0b3387d28,69b95efdef24cd8a694e89ee,69b96154122787376bdbdb42,0.1532,0.1532,0,130,130,109,1,seveneight,,,,,,,,,,,,,,,,,,,,,,,,,,,,,,,,,,,,,,,,,,,,,,,,,,,,,,,,,,,,,,,,,,,,,,,,,,,,,,,,,,,,,,,,,,,,,,,,,,,,,,,,,,,,,,,,,,,,,,,,,,,,,,,,,,,,,,,,,
,,67c869b756cd63f0b3387d28,2026-03-17_16h15.43.350,kallum_motion_pilot_GIST_update_2,2026.1.1,Win32,60.60606061,67c869b756cd63f0b3387d28,69b95efdef24cd8a694e89ee,69b96154122787376bdbdb42,0.1536,0.1536,0,131,131,122,1,sixfive,,,,,,,,,,,,,,,,,,,,,,,,,,,,,,,,,,,,,,,,,,,,,,,,,,,,,,,,,,,,,,,,,,,,,,,,,,,,,,,,,,,,,,,,,,,,,,,,,,,,,,,,,,,,,,,,,,,,,,,,,,,,,,,,,,,,,,,,,
,,67c869b756cd63f0b3387d28,2026-03-17_16h15.43.350,kallum_motion_pilot_GIST_update_2,2026.1.1,Win32,60.60606061,67c869b756cd63f0b3387d28,69b95efdef24cd8a694e89ee,69b96154122787376bdbdb42,0.1538,0.1538,0,132,132,136,1,fivesix,,,,,,,,,,,,,,,,,,,,,,,,,,,,,,,,,,,,,,,,,,,,,,,,,,,,,,,,,,,,,,,,,,,,,,,,,,,,,,,,,,,,,,,,,,,,,,,,,,,,,,,,,,,,,,,,,,,,,,,,,,,,,,,,,,,,,,,,,
,,67c869b756cd63f0b3387d28,2026-03-17_16h15.43.350,kallum_motion_pilot_GIST_update_2,2026.1.1,Win32,60.60606061,67c869b756cd63f0b3387d28,69b95efdef24cd8a694e89ee,69b96154122787376bdbdb42,0.1541,0.1541,0,133,133,17,1,onethree,,,,,,,,,,,,,,,,,,,,,,,,,,,,,,,,,,,,,,,,,,,,,,,,,,,,,,,,,,,,,,,,,,,,,,,,,,,,,,,,,,,,,,,,,,,,,,,,,,,,,,,,,,,,,,,,,,,,,,,,,,,,,,,,,,,,,,,,,
,,67c869b756cd63f0b3387d28,2026-03-17_16h15.43.350,kallum_motion_pilot_GIST_update_2,2026.1.1,Win32,60.60606061,67c869b756cd63f0b3387d28,69b95efdef24cd8a694e89ee,69b96154122787376bdbdb42,0.1544,0.1545,0,134,134,154,1,sixfive,,,,,,,,,,,,,,,,,,,,,,,,,,,,,,,,,,,,,,,,,,,,,,,,,,,,,,,,,,,,,,,,,,,,,,,,,,,,,,,,,,,,,,,,,,,,,,,,,,,,,,,,,,,,,,,,,,,,,,,,,,,,,,,,,,,,,,,,,
,,67c869b756cd63f0b3387d28,2026-03-17_16h15.43.350,kallum_motion_pilot_GIST_update_2,2026.1.1,Win32,60.60606061,67c869b756cd63f0b3387d28,69b95efdef24cd8a694e89ee,69b96154122787376bdbdb42,0.1547,0.1547,0,135,135,80,1,fivesix,,,,,,,,,,,,,,,,,,,,,,,,,,,,,,,,,,,,,,,,,,,,,,,,,,,,,,,,,,,,,,,,,,,,,,,,,,,,,,,,,,,,,,,,,,,,,,,,,,,,,,,,,,,,,,,,,,,,,,,,,,,,,,,,,,,,,,,,,
,,67c869b756cd63f0b3387d28,2026-03-17_16h15.43.350,kallum_motion_pilot_GIST_update_2,2026.1.1,Win32,60.60606061,67c869b756cd63f0b3387d28,69b95efdef24cd8a694e89ee,69b96154122787376bdbdb42,0.155,0.155,0,136,136,53,1,threefour,,,,,,,,,,,,,,,,,,,,,,,,,,,,,,,,,,,,,,,,,,,,,,,,,,,,,,,,,,,,,,,,,,,,,,,,,,,,,,,,,,,,,,,,,,,,,,,,,,,,,,,,,,,,,,,,,,,,,,,,,,,,,,,,,,,,,,,,,
,,67c869b756cd63f0b3387d28,2026-03-17_16h15.43.350,kallum_motion_pilot_GIST_update_2,2026.1.1,Win32,60.60606061,67c869b756cd63f0b3387d28,69b95efdef24cd8a694e89ee,69b96154122787376bdbdb42,0.1554,0.1554,0,137,137,98,1,sixfive,,,,,,,,,,,,,,,,,,,,,,,,,,,,,,,,,,,,,,,,,,,,,,,,,,,,,,,,,,,,,,,,,,,,,,,,,,,,,,,,,,,,,,,,,,,,,,,,,,,,,,,,,,,,,,,,,,,,,,,,,,,,,,,,,,,,,,,,,
,,67c869b756cd63f0b3387d28,2026-03-17_16h15.43.350,kallum_motion_pilot_GIST_update_2,2026.1.1,Win32,60.60606061,67c869b756cd63f0b3387d28,69b95efdef24cd8a694e89ee,69b96154122787376bdbdb42,0.1556,0.1556,0,138,138,120,1,fivesix,,,,,,,,,,,,,,,,,,,,,,,,,,,,,,,,,,,,,,,,,,,,,,,,,,,,,,,,,,,,,,,,,,,,,,,,,,,,,,,,,,,,,,,,,,,,,,,,,,,,,,,,,,,,,,,,,,,,,,,,,,,,,,,,,,,,,,,,,
,,67c869b756cd63f0b3387d28,2026-03-17_16h15.43.350,kallum_motion_pilot_GIST_update_2,2026.1.1,Win32,60.60606061,67c869b756cd63f0b3387d28,69b95efdef24cd8a694e89ee,69b96154122787376bdbdb42,0.156,0.156,0,139,139,43,1,twofour,,,,,,,,,,,,,,,,,,,,,,,,,,,,,,,,,,,,,,,,,,,,,,,,,,,,,,,,,,,,,,,,,,,,,,,,,,,,,,,,,,,,,,,,,,,,,,,,,,,,,,,,,,,,,,,,,,,,,,,,,,,,,,,,,,,,,,,,,
,,67c869b756cd63f0b3387d28,2026-03-17_16h15.43.350,kallum_motion_pilot_GIST_update_2,2026.1.1,Win32,60.60606061,67c869b756cd63f0b3387d28,69b95efdef24cd8a694e89ee,69b96154122787376bdbdb42,0.1597,0.1598,0,140,140,2,1,twoone,,,,,,,,,,,,,,,,,,,,,,,,,,,,,,,,,,,,,,,,,,,,,,,,,,,,,,,,,,,,,,,,,,,,,,,,,,,,,,,,,,,,,,,,,,,,,,,,,,,,,,,,,,,,,,,,,,,,,,,,,,,,,,,,,,,,,,,,,
,,67c869b756cd63f0b3387d28,2026-03-17_16h15.43.350,kallum_motion_pilot_GIST_update_2,2026.1.1,Win32,60.60606061,67c869b756cd63f0b3387d28,69b95efdef24cd8a694e89ee,69b96154122787376bdbdb42,0.1601,0.1601,0,141,141,87,1,eightseven,,,,,,,,,,,,,,,,,,,,,,,,,,,,,,,,,,,,,,,,,,,,,,,,,,,,,,,,,,,,,,,,,,,,,,,,,,,,,,,,,,,,,,,,,,,,,,,,,,,,,,,,,,,,,,,,,,,,,,,,,,,,,,,,,,,,,,,,,
,,67c869b756cd63f0b3387d28,2026-03-17_16h15.43.350,kallum_motion_pilot_GIST_update_2,2026.1.1,Win32,60.60606061,67c869b756cd63f0b3387d28,69b95efdef24cd8a694e89ee,69b96154122787376bdbdb42,0.1604,0.1605,0,142,142,84,1,sevenfive,,,,,,,,,,,,,,,,,,,,,,,,,,,,,,,,,,,,,,,,,,,,,,,,,,,,,,,,,,,,,,,,,,,,,,,,,,,,,,,,,,,,,,,,,,,,,,,,,,,,,,,,,,,,,,,,,,,,,,,,,,,,,,,,,,,,,,,,,
,,67c869b756cd63f0b3387d28,2026-03-17_16h15.43.350,kallum_motion_pilot_GIST_update_2,2026.1.1,Win32,60.60606061,67c869b756cd63f0b3387d28,69b95efdef24cd8a694e89ee,69b96154122787376bdbdb42,0.1608,0.1608,0,143,143,10,1,twoone,,,,,,,,,,,,,,,,,,,,,,,,,,,,,,,,,,,,,,,,,,,,,,,,,,,,,,,,,,,,,,,,,,,,,,,,,,,,,,,,,,,,,,,,,,,,,,,,,,,,,,,,,,,,,,,,,,,,,,,,,,,,,,,,,,,,,,,,,
,,67c869b756cd63f0b3387d28,2026-03-17_16h15.43.350,kallum_motion_pilot_GIST_update_2,2026.1.1,Win32,60.60606061,67c869b756cd63f0b3387d28,69b95efdef24cd8a694e89ee,69b96154122787376bdbdb42,0.1611,0.1611,0,144,144,130,1,sixfive,,,,,,,,,,,,,,,,,,,,,,,,,,,,,,,,,,,,,,,,,,,,,,,,,,,,,,,,,,,,,,,,,,,,,,,,,,,,,,,,,,,,,,,,,,,,,,,,,,,,,,,,,,,,,,,,,,,,,,,,,,,,,,,,,,,,,,,,,
,,67c869b756cd63f0b3387d28,2026-03-17_16h15.43.350,kallum_motion_pilot_GIST_update_2,2026.1.1,Win32,60.60606061,67c869b756cd63f0b3387d28,69b95efdef24cd8a694e89ee,69b96154122787376bdbdb42,0.1615,0.1615,0,145,145,37,1,threefour,,,,,,,,,,,,,,,,,,,,,,,,,,,,,,,,,,,,,,,,,,,,,,,,,,,,,,,,,,,,,,,,,,,,,,,,,,,,,,,,,,,,,,,,,,,,,,,,,,,,,,,,,,,,,,,,,,,,,,,,,,,,,,,,,,,,,,,,,
,,67c869b756cd63f0b3387d28,2026-03-17_16h15.43.350,kallum_motion_pilot_GIST_update_2,2026.1.1,Win32,60.60606061,67c869b756cd63f0b3387d28,69b95efdef24cd8a694e89ee,69b96154122787376bdbdb42,0.1619,0.1619,0,146,146,146,1,sixfive,,,,,,,,,,,,,,,,,,,,,,,,,,,,,,,,,,,,,,,,,,,,,,,,,,,,,,,,,,,,,,,,,,,,,,,,,,,,,,,,,,,,,,,,,,,,,,,,,,,,,,,,,,,,,,,,,,,,,,,,,,,,,,,,,,,,,,,,,
,,67c869b756cd63f0b3387d28,2026-03-17_16h15.43.350,kallum_motion_pilot_GIST_update_2,2026.1.1,Win32,60.60606061,67c869b756cd63f0b3387d28,69b95efdef24cd8a694e89ee,69b96154122787376bdbdb42,0.1625,0.1626,0,147,147,151,1,eightseven,,,,,,,,,,,,,,,,,,,,,,,,,,,,,,,,,,,,,,,,,,,,,,,,,,,,,,,,,,,,,,,,,,,,,,,,,,,,,,,,,,,,,,,,,,,,,,,,,,,,,,,,,,,,,,,,,,,,,,,,,,,,,,,,,,,,,,,,,
,,67c869b756cd63f0b3387d28,2026-03-17_16h15.43.350,kallum_motion_pilot_GIST_update_2,2026.1.1,Win32,60.60606061,67c869b756cd63f0b3387d28,69b95efdef24cd8a694e89ee,69b96154122787376bdbdb42,0.1628,0.1629,0,148,148,56,1,onetwo,,,,,,,,,,,,,,,,,,,,,,,,,,,,,,,,,,,,,,,,,,,,,,,,,,,,,,,,,,,,,,,,,,,,,,,,,,,,,,,,,,,,,,,,,,,,,,,,,,,,,,,,,,,,,,,,,,,,,,,,,,,,,,,,,,,,,,,,,
,,67c869b756cd63f0b3387d28,2026-03-17_16h15.43.350,kallum_motion_pilot_GIST_update_2,2026.1.1,Win32,60.60606061,67c869b756cd63f0b3387d28,69b95efdef24cd8a694e89ee,69b96154122787376bdbdb42,0.1632,0.1632,0,149,149,21,1,threefour,,,,,,,,,,,,,,,,,,,,,,,,,,,,,,,,,,,,,,,,,,,,,,,,,,,,,,,,,,,,,,,,,,,,,,,,,,,,,,,,,,,,,,,,,,,,,,,,,,,,,,,,,,,,,,,,,,,,,,,,,,,,,,,,,,,,,,,,,
,,67c869b756cd63f0b3387d28,2026-03-17_16h15.43.350,kallum_motion_pilot_GIST_update_2,2026.1.1,Win32,60.60606061,67c869b756cd63f0b3387d28,69b95efdef24cd8a694e89ee,69b96154122787376bdbdb42,0.1635,0.1635,0,150,150,48,1,onetwo,,,,,,,,,,,,,,,,,,,,,,,,,,,,,,,,,,,,,,,,,,,,,,,,,,,,,,,,,,,,,,,,,,,,,,,,,,,,,,,,,,,,,,,,,,,,,,,,,,,,,,,,,,,,,,,,,,,,,,,,,,,,,,,,,,,,,,,,,
,,67c869b756cd63f0b3387d28,2026-03-17_16h15.43.350,kallum_motion_pilot_GIST_update_2,2026.1.1,Win32,60.60606061,67c869b756cd63f0b3387d28,69b95efdef24cd8a694e89ee,69b96154122787376bdbdb42,0.1638,0.1639,0,151,151,128,1,fivesix,,,,,,,,,,,,,,,,,,,,,,,,,,,,,,,,,,,,,,,,,,,,,,,,,,,,,,,,,,,,,,,,,,,,,,,,,,,,,,,,,,,,,,,,,,,,,,,,,,,,,,,,,,,,,,,,,,,,,,,,,,,,,,,,,,,,,,,,,
,,67c869b756cd63f0b3387d28,2026-03-17_16h15.43.350,kallum_motion_pilot_GIST_update_2,2026.1.1,Win32,60.60606061,67c869b756cd63f0b3387d28,69b95efdef24cd8a694e89ee,69b96154122787376bdbdb42,0.1642,0.1642,0,152,152,147,1,sixeight,,,,,,,,,,,,,,,,,,,,,,,,,,,,,,,,,,,,,,,,,,,,,,,,,,,,,,,,,,,,,,,,,,,,,,,,,,,,,,,,,,,,,,,,,,,,,,,,,,,,,,,,,,,,,,,,,,,,,,,,,,,,,,,,,,,,,,,,,
,,67c869b756cd63f0b3387d28,2026-03-17_16h15.43.350,kallum_motion_pilot_GIST_update_2,2026.1.1,Win32,60.60606061,67c869b756cd63f0b3387d28,69b95efdef24cd8a694e89ee,69b96154122787376bdbdb42,0.1644,0.1644,0,153,153,47,1,fourthree,,,,,,,,,,,,,,,,,,,,,,,,,,,,,,,,,,,,,,,,,,,,,,,,,,,,,,,,,,,,,,,,,,,,,,,,,,,,,,,,,,,,,,,,,,,,,,,,,,,,,,,,,,,,,,,,,,,,,,,,,,,,,,,,,,,,,,,,,
,,67c869b756cd63f0b3387d28,2026-03-17_16h15.43.350,kallum_motion_pilot_GIST_update_2,2026.1.1,Win32,60.60606061,67c869b756cd63f0b3387d28,69b95efdef24cd8a694e89ee,69b96154122787376bdbdb42,0.1648,0.1648,0,154,154,75,1,twofour,,,,,,,,,,,,,,,,,,,,,,,,,,,,,,,,,,,,,,,,,,,,,,,,,,,,,,,,,,,,,,,,,,,,,,,,,,,,,,,,,,,,,,,,,,,,,,,,,,,,,,,,,,,,,,,,,,,,,,,,,,,,,,,,,,,,,,,,,
,,67c869b756cd63f0b3387d28,2026-03-17_16h15.43.350,kallum_motion_pilot_GIST_update_2,2026.1.1,Win32,60.60606061,67c869b756cd63f0b3387d28,69b95efdef24cd8a694e89ee,69b96154122787376bdbdb42,0.1651,0.1652,0,155,155,8,1,onetwo,,,,,,,,,,,,,,,,,,,,,,,,,,,,,,,,,,,,,,,,,,,,,,,,,,,,,,,,,,,,,,,,,,,,,,,,,,,,,,,,,,,,,,,,,,,,,,,,,,,,,,,,,,,,,,,,,,,,,,,,,,,,,,,,,,,,,,,,,
,,67c869b756cd63f0b3387d28,2026-03-17_16h15.43.350,kallum_motion_pilot_GIST_update_2,2026.1.1,Win32,60.60606061,67c869b756cd63f0b3387d28,69b95efdef24cd8a694e89ee,69b96154122787376bdbdb42,0.1655,0.1655,0,156,156,45,1,threefour,,,,,,,,,,,,,,,,,,,,,,,,,,,,,,,,,,,,,,,,,,,,,,,,,,,,,,,,,,,,,,,,,,,,,,,,,,,,,,,,,,,,,,,,,,,,,,,,,,,,,,,,,,,,,,,,,,,,,,,,,,,,,,,,,,,,,,,,,
,,67c869b756cd63f0b3387d28,2026-03-17_16h15.43.350,kallum_motion_pilot_GIST_update_2,2026.1.1,Win32,60.60606061,67c869b756cd63f0b3387d28,69b95efdef24cd8a694e89ee,69b96154122787376bdbdb42,0.1658,0.1658,0,157,157,106,1,sixfive,,,,,,,,,,,,,,,,,,,,,,,,,,,,,,,,,,,,,,,,,,,,,,,,,,,,,,,,,,,,,,,,,,,,,,,,,,,,,,,,,,,,,,,,,,,,,,,,,,,,,,,,,,,,,,,,,,,,,,,,,,,,,,,,,,,,,,,,,
,,67c869b756cd63f0b3387d28,2026-03-17_16h15.43.350,kallum_motion_pilot_GIST_update_2,2026.1.1,Win32,60.60606061,67c869b756cd63f0b3387d28,69b95efdef24cd8a694e89ee,69b96154122787376bdbdb42,0.1663,0.1663,0,158,158,92,1,sevenfive,,,,,,,,,,,,,,,,,,,,,,,,,,,,,,,,,,,,,,,,,,,,,,,,,,,,,,,,,,,,,,,,,,,,,,,,,,,,,,,,,,,,,,,,,,,,,,,,,,,,,,,,,,,,,,,,,,,,,,,,,,,,,,,,,,,,,,,,,
,,67c869b756cd63f0b3387d28,2026-03-17_16h15.43.350,kallum_motion_pilot_GIST_update_2,2026.1.1,Win32,60.60606061,67c869b756cd63f0b3387d28,69b95efdef24cd8a694e89ee,69b96154122787376bdbdb42,0.1665,0.1665,0,159,159,5,1,threefour,,,,,,,,,,,,,,,,,,,,,,,,,,,,,,,,,,,,,,,,,,,,,,,,,,,,,,,,,,,,,,,,,,,,,,,,,,,,,,,,,,,,,,,,,,,,,,,,,,,,,,,,,,,,,,,,,,,,,,,,,,,,,,,,,,,,,,,,,
,,67c869b756cd63f0b3387d28,2026-03-17_16h15.43.350,kallum_motion_pilot_GIST_update_2,2026.1.1,Win32,60.60606061,67c869b756cd63f0b3387d28,69b95efdef24cd8a694e89ee,69b96154122787376bdbdb42,0.167,0.167,0,160,160,74,1,twoone,,,,,,,,,,,,,,,,,,,,,,,,,,,,,,,,,,,,,,,,,,,,,,,,,,,,,,,,,,,,,,,,,,,,,,,,,,,,,,,,,,,,,,,,,,,,,,,,,,,,,,,,,,,,,,,,,,,,,,,,,,,,,,,,,,,,,,,,,
,,67c869b756cd63f0b3387d28,2026-03-17_16h15.43.350,kallum_motion_pilot_GIST_update_2,2026.1.1,Win32,60.60606061,67c869b756cd63f0b3387d28,69b95efdef24cd8a694e89ee,69b96154122787376bdbdb42,0.1673,0.1673,0,161,161,20,1,threeone,,,,,,,,,,,,,,,,,,,,,,,,,,,,,,,,,,,,,,,,,,,,,,,,,,,,,,,,,,,,,,,,,,,,,,,,,,,,,,,,,,,,,,,,,,,,,,,,,,,,,,,,,,,,,,,,,,,,,,,,,,,,,,,,,,,,,,,,,
,,67c869b756cd63f0b3387d28,2026-03-17_16h15.43.350,kallum_motion_pilot_GIST_update_2,2026.1.1,Win32,60.60606061,67c869b756cd63f0b3387d28,69b95efdef24cd8a694e89ee,69b96154122787376bdbdb42,0.1676,0.1676,1,0,162,143,1,eightseven,,,,,,,,,,,,,,,,,,,,,,,,,,,,,,,,,,,,,,,,,,,,,,,,,,,,,,,,,,,,,,,,,,,,,,,,,,,,,,,,,,,,,,,,,,,,,,,,,,,,,,,,,,,,,,,,,,,,,,,,,,,,,,,,,,,,,,,,,
,,67c869b756cd63f0b3387d28,2026-03-17_16h15.43.350,kallum_motion_pilot_GIST_update_2,2026.1.1,Win32,60.60606061,67c869b756cd63f0b3387d28,69b95efdef24cd8a694e89ee,69b96154122787376bdbdb42,0.1678,0.1678,1,1,163,98,1,sixfive,,,,,,,,,,,,,,,,,,,,,,,,,,,,,,,,,,,,,,,,,,,,,,,,,,,,,,,,,,,,,,,,,,,,,,,,,,,,,,,,,,,,,,,,,,,,,,,,,,,,,,,,,,,,,,,,,,,,,,,,,,,,,,,,,,,,,,,,,
,,67c869b756cd63f0b3387d28,2026-03-17_16h15.43.350,kallum_motion_pilot_GIST_update_2,2026.1.1,Win32,60.60606061,67c869b756cd63f0b3387d28,69b95efdef24cd8a694e89ee,69b96154122787376bdbdb42,0.1682,0.1682,1,2,164,49,1,onethree,,,,,,,,,,,,,,,,,,,,,,,,,,,,,,,,,,,,,,,,,,,,,,,,,,,,,,,,,,,,,,,,,,,,,,,,,,,,,,,,,,,,,,,,,,,,,,,,,,,,,,,,,,,,,,,,,,,,,,,,,,,,,,,,,,,,,,,,,
,,67c869b756cd63f0b3387d28,2026-03-17_16h15.43.350,kallum_motion_pilot_GIST_update_2,2026.1.1,Win32,60.60606061,67c869b756cd63f0b3387d28,69b95efdef24cd8a694e89ee,69b96154122787376bdbdb42,0.1685,0.1685,1,3,165,85,1,seveneight,,,,,,,,,,,,,,,,,,,,,,,,,,,,,,,,,,,,,,,,,,,,,,,,,,,,,,,,,,,,,,,,,,,,,,,,,,,,,,,,,,,,,,,,,,,,,,,,,,,,,,,,,,,,,,,,,,,,,,,,,,,,,,,,,,,,,,,,,
,,67c869b756cd63f0b3387d28,2026-03-17_16h15.43.350,kallum_motion_pilot_GIST_update_2,2026.1.1,Win32,60.60606061,67c869b756cd63f0b3387d28,69b95efdef24cd8a694e89ee,69b96154122787376bdbdb42,0.1687,0.1687,1,4,166,28,1,threeone,,,,,,,,,,,,,,,,,,,,,,,,,,,,,,,,,,,,,,,,,,,,,,,,,,,,,,,,,,,,,,,,,,,,,,,,,,,,,,,,,,,,,,,,,,,,,,,,,,,,,,,,,,,,,,,,,,,,,,,,,,,,,,,,,,,,,,,,,
,,67c869b756cd63f0b3387d28,2026-03-17_16h15.43.350,kallum_motion_pilot_GIST_update_2,2026.1.1,Win32,60.60606061,67c869b756cd63f0b3387d28,69b95efdef24cd8a694e89ee,69b96154122787376bdbdb42,0.169,0.169,1,5,167,3,1,twofour,,,,,,,,,,,,,,,,,,,,,,,,,,,,,,,,,,,,,,,,,,,,,,,,,,,,,,,,,,,,,,,,,,,,,,,,,,,,,,,,,,,,,,,,,,,,,,,,,,,,,,,,,,,,,,,,,,,,,,,,,,,,,,,,,,,,,,,,,
,,67c869b756cd63f0b3387d28,2026-03-17_16h15.43.350,kallum_motion_pilot_GIST_update_2,2026.1.1,Win32,60.60606061,67c869b756cd63f0b3387d28,69b95efdef24cd8a694e89ee,69b96154122787376bdbdb42,0.1693,0.1693,1,6,168,27,1,twofour,,,,,,,,,,,,,,,,,,,,,,,,,,,,,,,,,,,,,,,,,,,,,,,,,,,,,,,,,,,,,,,,,,,,,,,,,,,,,,,,,,,,,,,,,,,,,,,,,,,,,,,,,,,,,,,,,,,,,,,,,,,,,,,,,,,,,,,,,
,,67c869b756cd63f0b3387d28,2026-03-17_16h15.43.350,kallum_motion_pilot_GIST_update_2,2026.1.1,Win32,60.60606061,67c869b756cd63f0b3387d28,69b95efdef24cd8a694e89ee,69b96154122787376bdbdb42,0.1695,0.1695,1,7,169,104,1,fivesix,,,,,,,,,,,,,,,,,,,,,,,,,,,,,,,,,,,,,,,,,,,,,,,,,,,,,,,,,,,,,,,,,,,,,,,,,,,,,,,,,,,,,,,,,,,,,,,,,,,,,,,,,,,,,,,,,,,,,,,,,,,,,,,,,,,,,,,,,
,,67c869b756cd63f0b3387d28,2026-03-17_16h15.43.350,kallum_motion_pilot_GIST_update_2,2026.1.1,Win32,60.60606061,67c869b756cd63f0b3387d28,69b95efdef24cd8a694e89ee,69b96154122787376bdbdb42,0.1698,0.1698,1,8,170,0,1,onetwo,,,,,,,,,,,,,,,,,,,,,,,,,,,,,,,,,,,,,,,,,,,,,,,,,,,,,,,,,,,,,,,,,,,,,,,,,,,,,,,,,,,,,,,,,,,,,,,,,,,,,,,,,,,,,,,,,,,,,,,,,,,,,,,,,,,,,,,,,
,,67c869b756cd63f0b3387d28,2026-03-17_16h15.43.350,kallum_motion_pilot_GIST_update_2,2026.1.1,Win32,60.60606061,67c869b756cd63f0b3387d28,69b95efdef24cd8a694e89ee,69b96154122787376bdbdb42,0.1702,0.1702,1,9,171,10,1,twoone,,,,,,,,,,,,,,,,,,,,,,,,,,,,,,,,,,,,,,,,,,,,,,,,,,,,,,,,,,,,,,,,,,,,,,,,,,,,,,,,,,,,,,,,,,,,,,,,,,,,,,,,,,,,,,,,,,,,,,,,,,,,,,,,,,,,,,,,,
,,67c869b756cd63f0b3387d28,2026-03-17_16h15.43.350,kallum_motion_pilot_GIST_update_2,2026.1.1,Win32,60.60606061,67c869b756cd63f0b3387d28,69b95efdef24cd8a694e89ee,69b96154122787376bdbdb42,0.1705,0.1705,1,10,172,89,1,fiveseven,,,,,,,,,,,,,,,,,,,,,,,,,,,,,,,,,,,,,,,,,,,,,,,,,,,,,,,,,,,,,,,,,,,,,,,,,,,,,,,,,,,,,,,,,,,,,,,,,,,,,,,,,,,,,,,,,,,,,,,,,,,,,,,,,,,,,,,,,
,,67c869b756cd63f0b3387d28,2026-03-17_16h15.43.350,kallum_motion_pilot_GIST_update_2,2026.1.1,Win32,60.60606061,67c869b756cd63f0b3387d28,69b95efdef24cd8a694e89ee,69b96154122787376bdbdb42,0.1707,0.1707,1,11,173,110,1,eightsix,,,,,,,,,,,,,,,,,,,,,,,,,,,,,,,,,,,,,,,,,,,,,,,,,,,,,,,,,,,,,,,,,,,,,,,,,,,,,,,,,,,,,,,,,,,,,,,,,,,,,,,,,,,,,,,,,,,,,,,,,,,,,,,,,,,,,,,,,
,,67c869b756cd63f0b3387d28,2026-03-17_16h15.43.350,kallum_motion_pilot_GIST_update_2,2026.1.1,Win32,60.60606061,67c869b756cd63f0b3387d28,69b95efdef24cd8a694e89ee,69b96154122787376bdbdb42,0.171,0.171,1,12,174,150,1,eightsix,,,,,,,,,,,,,,,,,,,,,,,,,,,,,,,,,,,,,,,,,,,,,,,,,,,,,,,,,,,,,,,,,,,,,,,,,,,,,,,,,,,,,,,,,,,,,,,,,,,,,,,,,,,,,,,,,,,,,,,,,,,,,,,,,,,,,,,,,
,,67c869b756cd63f0b3387d28,2026-03-17_16h15.43.350,kallum_motion_pilot_GIST_update_2,2026.1.1,Win32,60.60606061,67c869b756cd63f0b3387d28,69b95efdef24cd8a694e89ee,69b96154122787376bdbdb42,0.1713,0.1713,1,13,175,122,1,sixfive,,,,,,,,,,,,,,,,,,,,,,,,,,,,,,,,,,,,,,,,,,,,,,,,,,,,,,,,,,,,,,,,,,,,,,,,,,,,,,,,,,,,,,,,,,,,,,,,,,,,,,,,,,,,,,,,,,,,,,,,,,,,,,,,,,,,,,,,,
,,67c869b756cd63f0b3387d28,2026-03-17_16h15.43.350,kallum_motion_pilot_GIST_update_2,2026.1.1,Win32,60.60606061,67c869b756cd63f0b3387d28,69b95efdef24cd8a694e89ee,69b96154122787376bdbdb42,0.1716,0.1717,1,14,176,97,1,fiveseven,,,,,,,,,,,,,,,,,,,,,,,,,,,,,,,,,,,,,,,,,,,,,,,,,,,,,,,,,,,,,,,,,,,,,,,,,,,,,,,,,,,,,,,,,,,,,,,,,,,,,,,,,,,,,,,,,,,,,,,,,,,,,,,,,,,,,,,,,
,,67c869b756cd63f0b3387d28,2026-03-17_16h15.43.350,kallum_motion_pilot_GIST_update_2,2026.1.1,Win32,60.60606061,67c869b756cd63f0b3387d28,69b95efdef24cd8a694e89ee,69b96154122787376bdbdb42,0.1719,0.1719,1,15,177,35,1,twofour,,,,,,,,,,,,,,,,,,,,,,,,,,,,,,,,,,,,,,,,,,,,,,,,,,,,,,,,,,,,,,,,,,,,,,,,,,,,,,,,,,,,,,,,,,,,,,,,,,,,,,,,,,,,,,,,,,,,,,,,,,,,,,,,,,,,,,,,,
,,67c869b756cd63f0b3387d28,2026-03-17_16h15.43.350,kallum_motion_pilot_GIST_update_2,2026.1.1,Win32,60.60606061,67c869b756cd63f0b3387d28,69b95efdef24cd8a694e89ee,69b96154122787376bdbdb42,0.1722,0.1722,1,16,178,40,1,onetwo,,,,,,,,,,,,,,,,,,,,,,,,,,,,,,,,,,,,,,,,,,,,,,,,,,,,,,,,,,,,,,,,,,,,,,,,,,,,,,,,,,,,,,,,,,,,,,,,,,,,,,,,,,,,,,,,,,,,,,,,,,,,,,,,,,,,,,,,,
,,67c869b756cd63f0b3387d28,2026-03-17_16h15.43.350,kallum_motion_pilot_GIST_update_2,2026.1.1,Win32,60.60606061,67c869b756cd63f0b3387d28,69b95efdef24cd8a694e89ee,69b96154122787376bdbdb42,0.1724,0.1724,1,17,179,18,1,twoone,,,,,,,,,,,,,,,,,,,,,,,,,,,,,,,,,,,,,,,,,,,,,,,,,,,,,,,,,,,,,,,,,,,,,,,,,,,,,,,,,,,,,,,,,,,,,,,,,,,,,,,,,,,,,,,,,,,,,,,,,,,,,,,,,,,,,,,,,
,,67c869b756cd63f0b3387d28,2026-03-17_16h15.43.350,kallum_motion_pilot_GIST_update_2,2026.1.1,Win32,60.60606061,67c869b756cd63f0b3387d28,69b95efdef24cd8a694e89ee,69b96154122787376bdbdb42,0.1727,0.1727,1,18,180,141,1,seveneight,,,,,,,,,,,,,,,,,,,,,,,,,,,,,,,,,,,,,,,,,,,,,,,,,,,,,,,,,,,,,,,,,,,,,,,,,,,,,,,,,,,,,,,,,,,,,,,,,,,,,,,,,,,,,,,,,,,,,,,,,,,,,,,,,,,,,,,,,
,,67c869b756cd63f0b3387d28,2026-03-17_16h15.43.350,kallum_motion_pilot_GIST_update_2,2026.1.1,Win32,60.60606061,67c869b756cd63f0b3387d28,69b95efdef24cd8a694e89ee,69b96154122787376bdbdb42,0.1731,0.1731,1,19,181,126,1,eightsix,,,,,,,,,,,,,,,,,,,,,,,,,,,,,,,,,,,,,,,,,,,,,,,,,,,,,,,,,,,,,,,,,,,,,,,,,,,,,,,,,,,,,,,,,,,,,,,,,,,,,,,,,,,,,,,,,,,,,,,,,,,,,,,,,,,,,,,,,
,,67c869b756cd63f0b3387d28,2026-03-17_16h15.43.350,kallum_motion_pilot_GIST_update_2,2026.1.1,Win32,60.60606061,67c869b756cd63f0b3387d28,69b95efdef24cd8a694e89ee,69b96154122787376bdbdb42,0.1734,0.1734,1,20,182,57,1,onethree,,,,,,,,,,,,,,,,,,,,,,,,,,,,,,,,,,,,,,,,,,,,,,,,,,,,,,,,,,,,,,,,,,,,,,,,,,,,,,,,,,,,,,,,,,,,,,,,,,,,,,,,,,,,,,,,,,,,,,,,,,,,,,,,,,,,,,,,,
,,67c869b756cd63f0b3387d28,2026-03-17_16h15.43.350,kallum_motion_pilot_GIST_update_2,2026.1.1,Win32,60.60606061,67c869b756cd63f0b3387d28,69b95efdef24cd8a694e89ee,69b96154122787376bdbdb42,0.1739,0.1739,1,21,183,39,1,fourthree,,,,,,,,,,,,,,,,,,,,,,,,,,,,,,,,,,,,,,,,,,,,,,,,,,,,,,,,,,,,,,,,,,,,,,,,,,,,,,,,,,,,,,,,,,,,,,,,,,,,,,,,,,,,,,,,,,,,,,,,,,,,,,,,,,,,,,,,,
,,67c869b756cd63f0b3387d28,2026-03-17_16h15.43.350,kallum_motion_pilot_GIST_update_2,2026.1.1,Win32,60.60606061,67c869b756cd63f0b3387d28,69b95efdef24cd8a694e89ee,69b96154122787376bdbdb42,0.1741,0.1741,1,22,184,84,1,sevenfive,,,,,,,,,,,,,,,,,,,,,,,,,,,,,,,,,,,,,,,,,,,,,,,,,,,,,,,,,,,,,,,,,,,,,,,,,,,,,,,,,,,,,,,,,,,,,,,,,,,,,,,,,,,,,,,,,,,,,,,,,,,,,,,,,,,,,,,,,
,,67c869b756cd63f0b3387d28,2026-03-17_16h15.43.350,kallum_motion_pilot_GIST_update_2,2026.1.1,Win32,60.60606061,67c869b756cd63f0b3387d28,69b95efdef24cd8a694e89ee,69b96154122787376bdbdb42,0.1745,0.1745,1,23,185,77,1,threefour,,,,,,,,,,,,,,,,,,,,,,,,,,,,,,,,,,,,,,,,,,,,,,,,,,,,,,,,,,,,,,,,,,,,,,,,,,,,,,,,,,,,,,,,,,,,,,,,,,,,,,,,,,,,,,,,,,,,,,,,,,,,,,,,,,,,,,,,,
,,67c869b756cd63f0b3387d28,2026-03-17_16h15.43.350,kallum_motion_pilot_GIST_update_2,2026.1.1,Win32,60.60606061,67c869b756cd63f0b3387d28,69b95efdef24cd8a694e89ee,69b96154122787376bdbdb42,0.1748,0.1748,1,24,186,146,1,sixfive,,,,,,,,,,,,,,,,,,,,,,,,,,,,,,,,,,,,,,,,,,,,,,,,,,,,,,,,,,,,,,,,,,,,,,,,,,,,,,,,,,,,,,,,,,,,,,,,,,,,,,,,,,,,,,,,,,,,,,,,,,,,,,,,,,,,,,,,,
,,67c869b756cd63f0b3387d28,2026-03-17_16h15.43.350,kallum_motion_pilot_GIST_update_2,2026.1.1,Win32,60.60606061,67c869b756cd63f0b3387d28,69b95efdef24cd8a694e89ee,69b96154122787376bdbdb42,0.1751,0.1752,1,25,187,107,1,sixeight,,,,,,,,,,,,,,,,,,,,,,,,,,,,,,,,,,,,,,,,,,,,,,,,,,,,,,,,,,,,,,,,,,,,,,,,,,,,,,,,,,,,,,,,,,,,,,,,,,,,,,,,,,,,,,,,,,,,,,,,,,,,,,,,,,,,,,,,,
,,67c869b756cd63f0b3387d28,2026-03-17_16h15.43.350,kallum_motion_pilot_GIST_update_2,2026.1.1,Win32,60.60606061,67c869b756cd63f0b3387d28,69b95efdef24cd8a694e89ee,69b96154122787376bdbdb42,0.1755,0.1755,1,26,188,60,1,threeone,,,,,,,,,,,,,,,,,,,,,,,,,,,,,,,,,,,,,,,,,,,,,,,,,,,,,,,,,,,,,,,,,,,,,,,,,,,,,,,,,,,,,,,,,,,,,,,,,,,,,,,,,,,,,,,,,,,,,,,,,,,,,,,,,,,,,,,,,
,,67c869b756cd63f0b3387d28,2026-03-17_16h15.43.350,kallum_motion_pilot_GIST_update_2,2026.1.1,Win32,60.60606061,67c869b756cd63f0b3387d28,69b95efdef24cd8a694e89ee,69b96154122787376bdbdb42,0.1757,0.1758,1,27,189,34,1,twoone,,,,,,,,,,,,,,,,,,,,,,,,,,,,,,,,,,,,,,,,,,,,,,,,,,,,,,,,,,,,,,,,,,,,,,,,,,,,,,,,,,,,,,,,,,,,,,,,,,,,,,,,,,,,,,,,,,,,,,,,,,,,,,,,,,,,,,,,,
,,67c869b756cd63f0b3387d28,2026-03-17_16h15.43.350,kallum_motion_pilot_GIST_update_2,2026.1.1,Win32,60.60606061,67c869b756cd63f0b3387d28,69b95efdef24cd8a694e89ee,69b96154122787376bdbdb42,0.1761,0.1761,1,28,190,68,1,threeone,,,,,,,,,,,,,,,,,,,,,,,,,,,,,,,,,,,,,,,,,,,,,,,,,,,,,,,,,,,,,,,,,,,,,,,,,,,,,,,,,,,,,,,,,,,,,,,,,,,,,,,,,,,,,,,,,,,,,,,,,,,,,,,,,,,,,,,,,
,,67c869b756cd63f0b3387d28,2026-03-17_16h15.43.350,kallum_motion_pilot_GIST_update_2,2026.1.1,Win32,60.60606061,67c869b756cd63f0b3387d28,69b95efdef24cd8a694e89ee,69b96154122787376bdbdb42,0.1763,0.1763,1,29,191,33,1,onethree,,,,,,,,,,,,,,,,,,,,,,,,,,,,,,,,,,,,,,,,,,,,,,,,,,,,,,,,,,,,,,,,,,,,,,,,,,,,,,,,,,,,,,,,,,,,,,,,,,,,,,,,,,,,,,,,,,,,,,,,,,,,,,,,,,,,,,,,,
,,67c869b756cd63f0b3387d28,2026-03-17_16h15.43.350,kallum_motion_pilot_GIST_update_2,2026.1.1,Win32,60.60606061,67c869b756cd63f0b3387d28,69b95efdef24cd8a694e89ee,69b96154122787376bdbdb42,0.1766,0.1766,1,30,192,134,1,eightsix,,,,,,,,,,,,,,,,,,,,,,,,,,,,,,,,,,,,,,,,,,,,,,,,,,,,,,,,,,,,,,,,,,,,,,,,,,,,,,,,,,,,,,,,,,,,,,,,,,,,,,,,,,,,,,,,,,,,,,,,,,,,,,,,,,,,,,,,,
,,67c869b756cd63f0b3387d28,2026-03-17_16h15.43.350,kallum_motion_pilot_GIST_update_2,2026.1.1,Win32,60.60606061,67c869b756cd63f0b3387d28,69b95efdef24cd8a694e89ee,69b96154122787376bdbdb42,0.1769,0.1769,1,31,193,71,1,fourthree,,,,,,,,,,,,,,,,,,,,,,,,,,,,,,,,,,,,,,,,,,,,,,,,,,,,,,,,,,,,,,,,,,,,,,,,,,,,,,,,,,,,,,,,,,,,,,,,,,,,,,,,,,,,,,,,,,,,,,,,,,,,,,,,,,,,,,,,,
,,67c869b756cd63f0b3387d28,2026-03-17_16h15.43.350,kallum_motion_pilot_GIST_update_2,2026.1.1,Win32,60.60606061,67c869b756cd63f0b3387d28,69b95efdef24cd8a694e89ee,69b96154122787376bdbdb42,0.1772,0.1772,1,32,194,44,1,threeone,,,,,,,,,,,,,,,,,,,,,,,,,,,,,,,,,,,,,,,,,,,,,,,,,,,,,,,,,,,,,,,,,,,,,,,,,,,,,,,,,,,,,,,,,,,,,,,,,,,,,,,,,,,,,,,,,,,,,,,,,,,,,,,,,,,,,,,,,
,,67c869b756cd63f0b3387d28,2026-03-17_16h15.43.350,kallum_motion_pilot_GIST_update_2,2026.1.1,Win32,60.60606061,67c869b756cd63f0b3387d28,69b95efdef24cd8a694e89ee,69b96154122787376bdbdb42,0.1775,0.1776,1,33,195,111,1,eightseven,,,,,,,,,,,,,,,,,,,,,,,,,,,,,,,,,,,,,,,,,,,,,,,,,,,,,,,,,,,,,,,,,,,,,,,,,,,,,,,,,,,,,,,,,,,,,,,,,,,,,,,,,,,,,,,,,,,,,,,,,,,,,,,,,,,,,,,,,
,,67c869b756cd63f0b3387d28,2026-03-17_16h15.43.350,kallum_motion_pilot_GIST_update_2,2026.1.1,Win32,60.60606061,67c869b756cd63f0b3387d28,69b95efdef24cd8a694e89ee,69b96154122787376bdbdb42,0.1778,0.1778,1,34,196,67,1,twofour,,,,,,,,,,,,,,,,,,,,,,,,,,,,,,,,,,,,,,,,,,,,,,,,,,,,,,,,,,,,,,,,,,,,,,,,,,,,,,,,,,,,,,,,,,,,,,,,,,,,,,,,,,,,,,,,,,,,,,,,,,,,,,,,,,,,,,,,,
,,67c869b756cd63f0b3387d28,2026-03-17_16h15.43.350,kallum_motion_pilot_GIST_update_2,2026.1.1,Win32,60.60606061,67c869b756cd63f0b3387d28,69b95efdef24cd8a694e89ee,69b96154122787376bdbdb42,0.1781,0.1781,1,35,197,88,1,fivesix,,,,,,,,,,,,,,,,,,,,,,,,,,,,,,,,,,,,,,,,,,,,,,,,,,,,,,,,,,,,,,,,,,,,,,,,,,,,,,,,,,,,,,,,,,,,,,,,,,,,,,,,,,,,,,,,,,,,,,,,,,,,,,,,,,,,,,,,,
,,67c869b756cd63f0b3387d28,2026-03-17_16h15.43.350,kallum_motion_pilot_GIST_update_2,2026.1.1,Win32,60.60606061,67c869b756cd63f0b3387d28,69b95efdef24cd8a694e89ee,69b96154122787376bdbdb42,0.1784,0.1784,1,36,198,155,1,sixeight,,,,,,,,,,,,,,,,,,,,,,,,,,,,,,,,,,,,,,,,,,,,,,,,,,,,,,,,,,,,,,,,,,,,,,,,,,,,,,,,,,,,,,,,,,,,,,,,,,,,,,,,,,,,,,,,,,,,,,,,,,,,,,,,,,,,,,,,,
,,67c869b756cd63f0b3387d28,2026-03-17_16h15.43.350,kallum_motion_pilot_GIST_update_2,2026.1.1,Win32,60.60606061,67c869b756cd63f0b3387d28,69b95efdef24cd8a694e89ee,69b96154122787376bdbdb42,0.1788,0.1788,1,37,199,90,1,sixfive,,,,,,,,,,,,,,,,,,,,,,,,,,,,,,,,,,,,,,,,,,,,,,,,,,,,,,,,,,,,,,,,,,,,,,,,,,,,,,,,,,,,,,,,,,,,,,,,,,,,,,,,,,,,,,,,,,,,,,,,,,,,,,,,,,,,,,,,,
,,67c869b756cd63f0b3387d28,2026-03-17_16h15.43.350,kallum_motion_pilot_GIST_update_2,2026.1.1,Win32,60.60606061,67c869b756cd63f0b3387d28,69b95efdef24cd8a694e89ee,69b96154122787376bdbdb42,0.1793,0.1793,1,38,200,62,1,fourtwo,,,,,,,,,,,,,,,,,,,,,,,,,,,,,,,,,,,,,,,,,,,,,,,,,,,,,,,,,,,,,,,,,,,,,,,,,,,,,,,,,,,,,,,,,,,,,,,,,,,,,,,,,,,,,,,,,,,,,,,,,,,,,,,,,,,,,,,,,
,,67c869b756cd63f0b3387d28,2026-03-17_16h15.43.350,kallum_motion_pilot_GIST_update_2,2026.1.1,Win32,60.60606061,67c869b756cd63f0b3387d28,69b95efdef24cd8a694e89ee,69b96154122787376bdbdb42,0.1795,0.1795,1,39,201,140,1,sevenfive,,,,,,,,,,,,,,,,,,,,,,,,,,,,,,,,,,,,,,,,,,,,,,,,,,,,,,,,,,,,,,,,,,,,,,,,,,,,,,,,,,,,,,,,,,,,,,,,,,,,,,,,,,,,,,,,,,,,,,,,,,,,,,,,,,,,,,,,,
,,67c869b756cd63f0b3387d28,2026-03-17_16h15.43.350,kallum_motion_pilot_GIST_update_2,2026.1.1,Win32,60.60606061,67c869b756cd63f0b3387d28,69b95efdef24cd8a694e89ee,69b96154122787376bdbdb42,0.1798,0.1798,1,40,202,76,1,threeone,,,,,,,,,,,,,,,,,,,,,,,,,,,,,,,,,,,,,,,,,,,,,,,,,,,,,,,,,,,,,,,,,,,,,,,,,,,,,,,,,,,,,,,,,,,,,,,,,,,,,,,,,,,,,,,,,,,,,,,,,,,,,,,,,,,,,,,,,
,,67c869b756cd63f0b3387d28,2026-03-17_16h15.43.350,kallum_motion_pilot_GIST_update_2,2026.1.1,Win32,60.60606061,67c869b756cd63f0b3387d28,69b95efdef24cd8a694e89ee,69b96154122787376bdbdb42,0.1802,0.1802,1,41,203,11,1,twofour,,,,,,,,,,,,,,,,,,,,,,,,,,,,,,,,,,,,,,,,,,,,,,,,,,,,,,,,,,,,,,,,,,,,,,,,,,,,,,,,,,,,,,,,,,,,,,,,,,,,,,,,,,,,,,,,,,,,,,,,,,,,,,,,,,,,,,,,,
,,67c869b756cd63f0b3387d28,2026-03-17_16h15.43.350,kallum_motion_pilot_GIST_update_2,2026.1.1,Win32,60.60606061,67c869b756cd63f0b3387d28,69b95efdef24cd8a694e89ee,69b96154122787376bdbdb42,0.1805,0.1806,1,42,204,144,1,fivesix,,,,,,,,,,,,,,,,,,,,,,,,,,,,,,,,,,,,,,,,,,,,,,,,,,,,,,,,,,,,,,,,,,,,,,,,,,,,,,,,,,,,,,,,,,,,,,,,,,,,,,,,,,,,,,,,,,,,,,,,,,,,,,,,,,,,,,,,,
,,67c869b756cd63f0b3387d28,2026-03-17_16h15.43.350,kallum_motion_pilot_GIST_update_2,2026.1.1,Win32,60.60606061,67c869b756cd63f0b3387d28,69b95efdef24cd8a694e89ee,69b96154122787376bdbdb42,0.1809,0.1809,1,43,205,133,1,seveneight,,,,,,,,,,,,,,,,,,,,,,,,,,,,,,,,,,,,,,,,,,,,,,,,,,,,,,,,,,,,,,,,,,,,,,,,,,,,,,,,,,,,,,,,,,,,,,,,,,,,,,,,,,,,,,,,,,,,,,,,,,,,,,,,,,,,,,,,,
,,67c869b756cd63f0b3387d28,2026-03-17_16h15.43.350,kallum_motion_pilot_GIST_update_2,2026.1.1,Win32,60.60606061,67c869b756cd63f0b3387d28,69b95efdef24cd8a694e89ee,69b96154122787376bdbdb42,0.1811,0.1811,1,44,206,6,1,fourtwo,,,,,,,,,,,,,,,,,,,,,,,,,,,,,,,,,,,,,,,,,,,,,,,,,,,,,,,,,,,,,,,,,,,,,,,,,,,,,,,,,,,,,,,,,,,,,,,,,,,,,,,,,,,,,,,,,,,,,,,,,,,,,,,,,,,,,,,,,
,,67c869b756cd63f0b3387d28,2026-03-17_16h15.43.350,kallum_motion_pilot_GIST_update_2,2026.1.1,Win32,60.60606061,67c869b756cd63f0b3387d28,69b95efdef24cd8a694e89ee,69b96154122787376bdbdb42,0.1815,0.1815,1,45,207,24,1,onetwo,,,,,,,,,,,,,,,,,,,,,,,,,,,,,,,,,,,,,,,,,,,,,,,,,,,,,,,,,,,,,,,,,,,,,,,,,,,,,,,,,,,,,,,,,,,,,,,,,,,,,,,,,,,,,,,,,,,,,,,,,,,,,,,,,,,,,,,,,
,,67c869b756cd63f0b3387d28,2026-03-17_16h15.43.350,kallum_motion_pilot_GIST_update_2,2026.1.1,Win32,60.60606061,67c869b756cd63f0b3387d28,69b95efdef24cd8a694e89ee,69b96154122787376bdbdb42,0.1819,0.182,1,46,208,148,1,sevenfive,,,,,,,,,,,,,,,,,,,,,,,,,,,,,,,,,,,,,,,,,,,,,,,,,,,,,,,,,,,,,,,,,,,,,,,,,,,,,,,,,,,,,,,,,,,,,,,,,,,,,,,,,,,,,,,,,,,,,,,,,,,,,,,,,,,,,,,,,
,,67c869b756cd63f0b3387d28,2026-03-17_16h15.43.350,kallum_motion_pilot_GIST_update_2,2026.1.1,Win32,60.60606061,67c869b756cd63f0b3387d28,69b95efdef24cd8a694e89ee,69b96154122787376bdbdb42,0.1824,0.1824,1,47,209,96,1,fivesix,,,,,,,,,,,,,,,,,,,,,,,,,,,,,,,,,,,,,,,,,,,,,,,,,,,,,,,,,,,,,,,,,,,,,,,,,,,,,,,,,,,,,,,,,,,,,,,,,,,,,,,,,,,,,,,,,,,,,,,,,,,,,,,,,,,,,,,,,
,,67c869b756cd63f0b3387d28,2026-03-17_16h15.43.350,kallum_motion_pilot_GIST_update_2,2026.1.1,Win32,60.60606061,67c869b756cd63f0b3387d28,69b95efdef24cd8a694e89ee,69b96154122787376bdbdb42,0.1827,0.1827,1,48,210,79,1,eightseven,,,,,,,,,,,,,,,,,,,,,,,,,,,,,,,,,,,,,,,,,,,,,,,,,,,,,,,,,,,,,,,,,,,,,,,,,,,,,,,,,,,,,,,,,,,,,,,,,,,,,,,,,,,,,,,,,,,,,,,,,,,,,,,,,,,,,,,,,
,,67c869b756cd63f0b3387d28,2026-03-17_16h15.43.350,kallum_motion_pilot_GIST_update_2,2026.1.1,Win32,60.60606061,67c869b756cd63f0b3387d28,69b95efdef24cd8a694e89ee,69b96154122787376bdbdb42,0.1834,0.1834,1,49,211,12,1,threeone,,,,,,,,,,,,,,,,,,,,,,,,,,,,,,,,,,,,,,,,,,,,,,,,,,,,,,,,,,,,,,,,,,,,,,,,,,,,,,,,,,,,,,,,,,,,,,,,,,,,,,,,,,,,,,,,,,,,,,,,,,,,,,,,,,,,,,,,,
,,67c869b756cd63f0b3387d28,2026-03-17_16h15.43.350,kallum_motion_pilot_GIST_update_2,2026.1.1,Win32,60.60606061,67c869b756cd63f0b3387d28,69b95efdef24cd8a694e89ee,69b96154122787376bdbdb42,0.1837,0.1837,1,50,212,5,1,threefour,,,,,,,,,,,,,,,,,,,,,,,,,,,,,,,,,,,,,,,,,,,,,,,,,,,,,,,,,,,,,,,,,,,,,,,,,,,,,,,,,,,,,,,,,,,,,,,,,,,,,,,,,,,,,,,,,,,,,,,,,,,,,,,,,,,,,,,,,
,,67c869b756cd63f0b3387d28,2026-03-17_16h15.43.350,kallum_motion_pilot_GIST_update_2,2026.1.1,Win32,60.60606061,67c869b756cd63f0b3387d28,69b95efdef24cd8a694e89ee,69b96154122787376bdbdb42,0.1839,0.184,1,51,213,135,1,eightseven,,,,,,,,,,,,,,,,,,,,,,,,,,,,,,,,,,,,,,,,,,,,,,,,,,,,,,,,,,,,,,,,,,,,,,,,,,,,,,,,,,,,,,,,,,,,,,,,,,,,,,,,,,,,,,,,,,,,,,,,,,,,,,,,,,,,,,,,,
,,67c869b756cd63f0b3387d28,2026-03-17_16h15.43.350,kallum_motion_pilot_GIST_update_2,2026.1.1,Win32,60.60606061,67c869b756cd63f0b3387d28,69b95efdef24cd8a694e89ee,69b96154122787376bdbdb42,0.1843,0.1843,1,52,214,8,1,onetwo,,,,,,,,,,,,,,,,,,,,,,,,,,,,,,,,,,,,,,,,,,,,,,,,,,,,,,,,,,,,,,,,,,,,,,,,,,,,,,,,,,,,,,,,,,,,,,,,,,,,,,,,,,,,,,,,,,,,,,,,,,,,,,,,,,,,,,,,,
,,67c869b756cd63f0b3387d28,2026-03-17_16h15.43.350,kallum_motion_pilot_GIST_update_2,2026.1.1,Win32,60.60606061,67c869b756cd63f0b3387d28,69b95efdef24cd8a694e89ee,69b96154122787376bdbdb42,0.1845,0.1846,1,53,215,52,1,threeone,,,,,,,,,,,,,,,,,,,,,,,,,,,,,,,,,,,,,,,,,,,,,,,,,,,,,,,,,,,,,,,,,,,,,,,,,,,,,,,,,,,,,,,,,,,,,,,,,,,,,,,,,,,,,,,,,,,,,,,,,,,,,,,,,,,,,,,,,
,,67c869b756cd63f0b3387d28,2026-03-17_16h15.43.350,kallum_motion_pilot_GIST_update_2,2026.1.1,Win32,60.60606061,67c869b756cd63f0b3387d28,69b95efdef24cd8a694e89ee,69b96154122787376bdbdb42,0.1849,0.1849,1,54,216,78,1,fourtwo,,,,,,,,,,,,,,,,,,,,,,,,,,,,,,,,,,,,,,,,,,,,,,,,,,,,,,,,,,,,,,,,,,,,,,,,,,,,,,,,,,,,,,,,,,,,,,,,,,,,,,,,,,,,,,,,,,,,,,,,,,,,,,,,,,,,,,,,,
,,67c869b756cd63f0b3387d28,2026-03-17_16h15.43.350,kallum_motion_pilot_GIST_update_2,2026.1.1,Win32,60.60606061,67c869b756cd63f0b3387d28,69b95efdef24cd8a694e89ee,69b96154122787376bdbdb42,0.1852,0.1852,1,55,217,138,1,sixfive,,,,,,,,,,,,,,,,,,,,,,,,,,,,,,,,,,,,,,,,,,,,,,,,,,,,,,,,,,,,,,,,,,,,,,,,,,,,,,,,,,,,,,,,,,,,,,,,,,,,,,,,,,,,,,,,,,,,,,,,,,,,,,,,,,,,,,,,,
,,67c869b756cd63f0b3387d28,2026-03-17_16h15.43.350,kallum_motion_pilot_GIST_update_2,2026.1.1,Win32,60.60606061,67c869b756cd63f0b3387d28,69b95efdef24cd8a694e89ee,69b96154122787376bdbdb42,0.1855,0.1855,1,56,218,55,1,fourthree,,,,,,,,,,,,,,,,,,,,,,,,,,,,,,,,,,,,,,,,,,,,,,,,,,,,,,,,,,,,,,,,,,,,,,,,,,,,,,,,,,,,,,,,,,,,,,,,,,,,,,,,,,,,,,,,,,,,,,,,,,,,,,,,,,,,,,,,,
,,67c869b756cd63f0b3387d28,2026-03-17_16h15.43.350,kallum_motion_pilot_GIST_update_2,2026.1.1,Win32,60.60606061,67c869b756cd63f0b3387d28,69b95efdef24cd8a694e89ee,69b96154122787376bdbdb42,0.1858,0.1858,1,57,219,4,1,threeone,,,,,,,,,,,,,,,,,,,,,,,,,,,,,,,,,,,,,,,,,,,,,,,,,,,,,,,,,,,,,,,,,,,,,,,,,,,,,,,,,,,,,,,,,,,,,,,,,,,,,,,,,,,,,,,,,,,,,,,,,,,,,,,,,,,,,,,,,
,,67c869b756cd63f0b3387d28,2026-03-17_16h15.43.350,kallum_motion_pilot_GIST_update_2,2026.1.1,Win32,60.60606061,67c869b756cd63f0b3387d28,69b95efdef24cd8a694e89ee,69b96154122787376bdbdb42,0.186,0.186,1,58,220,37,1,threefour,,,,,,,,,,,,,,,,,,,,,,,,,,,,,,,,,,,,,,,,,,,,,,,,,,,,,,,,,,,,,,,,,,,,,,,,,,,,,,,,,,,,,,,,,,,,,,,,,,,,,,,,,,,,,,,,,,,,,,,,,,,,,,,,,,,,,,,,,
,,67c869b756cd63f0b3387d28,2026-03-17_16h15.43.350,kallum_motion_pilot_GIST_update_2,2026.1.1,Win32,60.60606061,67c869b756cd63f0b3387d28,69b95efdef24cd8a694e89ee,69b96154122787376bdbdb42,0.1864,0.1864,1,59,221,9,1,onethree,,,,,,,,,,,,,,,,,,,,,,,,,,,,,,,,,,,,,,,,,,,,,,,,,,,,,,,,,,,,,,,,,,,,,,,,,,,,,,,,,,,,,,,,,,,,,,,,,,,,,,,,,,,,,,,,,,,,,,,,,,,,,,,,,,,,,,,,,
,,67c869b756cd63f0b3387d28,2026-03-17_16h15.43.350,kallum_motion_pilot_GIST_update_2,2026.1.1,Win32,60.60606061,67c869b756cd63f0b3387d28,69b95efdef24cd8a694e89ee,69b96154122787376bdbdb42,0.1867,0.1867,1,60,222,56,1,onetwo,,,,,,,,,,,,,,,,,,,,,,,,,,,,,,,,,,,,,,,,,,,,,,,,,,,,,,,,,,,,,,,,,,,,,,,,,,,,,,,,,,,,,,,,,,,,,,,,,,,,,,,,,,,,,,,,,,,,,,,,,,,,,,,,,,,,,,,,,
,,67c869b756cd63f0b3387d28,2026-03-17_16h15.43.350,kallum_motion_pilot_GIST_update_2,2026.1.1,Win32,60.60606061,67c869b756cd63f0b3387d28,69b95efdef24cd8a694e89ee,69b96154122787376bdbdb42,0.1871,0.1871,1,61,223,26,1,twoone,,,,,,,,,,,,,,,,,,,,,,,,,,,,,,,,,,,,,,,,,,,,,,,,,,,,,,,,,,,,,,,,,,,,,,,,,,,,,,,,,,,,,,,,,,,,,,,,,,,,,,,,,,,,,,,,,,,,,,,,,,,,,,,,,,,,,,,,,
,,67c869b756cd63f0b3387d28,2026-03-17_16h15.43.350,kallum_motion_pilot_GIST_update_2,2026.1.1,Win32,60.60606061,67c869b756cd63f0b3387d28,69b95efdef24cd8a694e89ee,69b96154122787376bdbdb42,0.1874,0.1874,1,62,224,19,1,twofour,,,,,,,,,,,,,,,,,,,,,,,,,,,,,,,,,,,,,,,,,,,,,,,,,,,,,,,,,,,,,,,,,,,,,,,,,,,,,,,,,,,,,,,,,,,,,,,,,,,,,,,,,,,,,,,,,,,,,,,,,,,,,,,,,,,,,,,,,
,,67c869b756cd63f0b3387d28,2026-03-17_16h15.43.350,kallum_motion_pilot_GIST_update_2,2026.1.1,Win32,60.60606061,67c869b756cd63f0b3387d28,69b95efdef24cd8a694e89ee,69b96154122787376bdbdb42,0.1877,0.1877,1,63,225,61,1,threefour,,,,,,,,,,,,,,,,,,,,,,,,,,,,,,,,,,,,,,,,,,,,,,,,,,,,,,,,,,,,,,,,,,,,,,,,,,,,,,,,,,,,,,,,,,,,,,,,,,,,,,,,,,,,,,,,,,,,,,,,,,,,,,,,,,,,,,,,,
,,67c869b756cd63f0b3387d28,2026-03-17_16h15.43.350,kallum_motion_pilot_GIST_update_2,2026.1.1,Win32,60.60606061,67c869b756cd63f0b3387d28,69b95efdef24cd8a694e89ee,69b96154122787376bdbdb42,0.188,0.188,1,64,226,159,1,eightseven,,,,,,,,,,,,,,,,,,,,,,,,,,,,,,,,,,,,,,,,,,,,,,,,,,,,,,,,,,,,,,,,,,,,,,,,,,,,,,,,,,,,,,,,,,,,,,,,,,,,,,,,,,,,,,,,,,,,,,,,,,,,,,,,,,,,,,,,,
,,67c869b756cd63f0b3387d28,2026-03-17_16h15.43.350,kallum_motion_pilot_GIST_update_2,2026.1.1,Win32,60.60606061,67c869b756cd63f0b3387d28,69b95efdef24cd8a694e89ee,69b96154122787376bdbdb42,0.1883,0.1883,1,65,227,82,1,sixfive,,,,,,,,,,,,,,,,,,,,,,,,,,,,,,,,,,,,,,,,,,,,,,,,,,,,,,,,,,,,,,,,,,,,,,,,,,,,,,,,,,,,,,,,,,,,,,,,,,,,,,,,,,,,,,,,,,,,,,,,,,,,,,,,,,,,,,,,,
,,67c869b756cd63f0b3387d28,2026-03-17_16h15.43.350,kallum_motion_pilot_GIST_update_2,2026.1.1,Win32,60.60606061,67c869b756cd63f0b3387d28,69b95efdef24cd8a694e89ee,69b96154122787376bdbdb42,0.1886,0.1886,1,66,228,80,1,fivesix,,,,,,,,,,,,,,,,,,,,,,,,,,,,,,,,,,,,,,,,,,,,,,,,,,,,,,,,,,,,,,,,,,,,,,,,,,,,,,,,,,,,,,,,,,,,,,,,,,,,,,,,,,,,,,,,,,,,,,,,,,,,,,,,,,,,,,,,,
,,67c869b756cd63f0b3387d28,2026-03-17_16h15.43.350,kallum_motion_pilot_GIST_update_2,2026.1.1,Win32,60.60606061,67c869b756cd63f0b3387d28,69b95efdef24cd8a694e89ee,69b96154122787376bdbdb42,0.1891,0.1891,1,67,229,63,1,fourthree,,,,,,,,,,,,,,,,,,,,,,,,,,,,,,,,,,,,,,,,,,,,,,,,,,,,,,,,,,,,,,,,,,,,,,,,,,,,,,,,,,,,,,,,,,,,,,,,,,,,,,,,,,,,,,,,,,,,,,,,,,,,,,,,,,,,,,,,,
,,67c869b756cd63f0b3387d28,2026-03-17_16h15.43.350,kallum_motion_pilot_GIST_update_2,2026.1.1,Win32,60.60606061,67c869b756cd63f0b3387d28,69b95efdef24cd8a694e89ee,69b96154122787376bdbdb42,0.1899,0.1899,1,68,230,123,1,sixeight,,,,,,,,,,,,,,,,,,,,,,,,,,,,,,,,,,,,,,,,,,,,,,,,,,,,,,,,,,,,,,,,,,,,,,,,,,,,,,,,,,,,,,,,,,,,,,,,,,,,,,,,,,,,,,,,,,,,,,,,,,,,,,,,,,,,,,,,,
,,67c869b756cd63f0b3387d28,2026-03-17_16h15.43.350,kallum_motion_pilot_GIST_update_2,2026.1.1,Win32,60.60606061,67c869b756cd63f0b3387d28,69b95efdef24cd8a694e89ee,69b96154122787376bdbdb42,0.1902,0.1903,1,69,231,152,1,fivesix,,,,,,,,,,,,,,,,,,,,,,,,,,,,,,,,,,,,,,,,,,,,,,,,,,,,,,,,,,,,,,,,,,,,,,,,,,,,,,,,,,,,,,,,,,,,,,,,,,,,,,,,,,,,,,,,,,,,,,,,,,,,,,,,,,,,,,,,,
,,67c869b756cd63f0b3387d28,2026-03-17_16h15.43.350,kallum_motion_pilot_GIST_update_2,2026.1.1,Win32,60.60606061,67c869b756cd63f0b3387d28,69b95efdef24cd8a694e89ee,69b96154122787376bdbdb42,0.1905,0.1905,1,70,232,157,1,seveneight,,,,,,,,,,,,,,,,,,,,,,,,,,,,,,,,,,,,,,,,,,,,,,,,,,,,,,,,,,,,,,,,,,,,,,,,,,,,,,,,,,,,,,,,,,,,,,,,,,,,,,,,,,,,,,,,,,,,,,,,,,,,,,,,,,,,,,,,,
,,67c869b756cd63f0b3387d28,2026-03-17_16h15.43.350,kallum_motion_pilot_GIST_update_2,2026.1.1,Win32,60.60606061,67c869b756cd63f0b3387d28,69b95efdef24cd8a694e89ee,69b96154122787376bdbdb42,0.1909,0.1909,1,71,233,81,1,fiveseven,,,,,,,,,,,,,,,,,,,,,,,,,,,,,,,,,,,,,,,,,,,,,,,,,,,,,,,,,,,,,,,,,,,,,,,,,,,,,,,,,,,,,,,,,,,,,,,,,,,,,,,,,,,,,,,,,,,,,,,,,,,,,,,,,,,,,,,,,
,,67c869b756cd63f0b3387d28,2026-03-17_16h15.43.350,kallum_motion_pilot_GIST_update_2,2026.1.1,Win32,60.60606061,67c869b756cd63f0b3387d28,69b95efdef24cd8a694e89ee,69b96154122787376bdbdb42,0.1911,0.1911,1,72,234,142,1,eightsix,,,,,,,,,,,,,,,,,,,,,,,,,,,,,,,,,,,,,,,,,,,,,,,,,,,,,,,,,,,,,,,,,,,,,,,,,,,,,,,,,,,,,,,,,,,,,,,,,,,,,,,,,,,,,,,,,,,,,,,,,,,,,,,,,,,,,,,,,
,,67c869b756cd63f0b3387d28,2026-03-17_16h15.43.350,kallum_motion_pilot_GIST_update_2,2026.1.1,Win32,60.60606061,67c869b756cd63f0b3387d28,69b95efdef24cd8a694e89ee,69b96154122787376bdbdb42,0.1914,0.1914,1,73,235,130,1,sixfive,,,,,,,,,,,,,,,,,,,,,,,,,,,,,,,,,,,,,,,,,,,,,,,,,,,,,,,,,,,,,,,,,,,,,,,,,,,,,,,,,,,,,,,,,,,,,,,,,,,,,,,,,,,,,,,,,,,,,,,,,,,,,,,,,,,,,,,,,
,,67c869b756cd63f0b3387d28,2026-03-17_16h15.43.350,kallum_motion_pilot_GIST_update_2,2026.1.1,Win32,60.60606061,67c869b756cd63f0b3387d28,69b95efdef24cd8a694e89ee,69b96154122787376bdbdb42,0.1917,0.1917,1,74,236,66,1,twoone,,,,,,,,,,,,,,,,,,,,,,,,,,,,,,,,,,,,,,,,,,,,,,,,,,,,,,,,,,,,,,,,,,,,,,,,,,,,,,,,,,,,,,,,,,,,,,,,,,,,,,,,,,,,,,,,,,,,,,,,,,,,,,,,,,,,,,,,,
,,67c869b756cd63f0b3387d28,2026-03-17_16h15.43.350,kallum_motion_pilot_GIST_update_2,2026.1.1,Win32,60.60606061,67c869b756cd63f0b3387d28,69b95efdef24cd8a694e89ee,69b96154122787376bdbdb42,0.1921,0.1921,1,75,237,156,1,sevenfive,,,,,,,,,,,,,,,,,,,,,,,,,,,,,,,,,,,,,,,,,,,,,,,,,,,,,,,,,,,,,,,,,,,,,,,,,,,,,,,,,,,,,,,,,,,,,,,,,,,,,,,,,,,,,,,,,,,,,,,,,,,,,,,,,,,,,,,,,
,,67c869b756cd63f0b3387d28,2026-03-17_16h15.43.350,kallum_motion_pilot_GIST_update_2,2026.1.1,Win32,60.60606061,67c869b756cd63f0b3387d28,69b95efdef24cd8a694e89ee,69b96154122787376bdbdb42,0.1923,0.1924,1,76,238,25,1,onethree,,,,,,,,,,,,,,,,,,,,,,,,,,,,,,,,,,,,,,,,,,,,,,,,,,,,,,,,,,,,,,,,,,,,,,,,,,,,,,,,,,,,,,,,,,,,,,,,,,,,,,,,,,,,,,,,,,,,,,,,,,,,,,,,,,,,,,,,,
,,67c869b756cd63f0b3387d28,2026-03-17_16h15.43.350,kallum_motion_pilot_GIST_update_2,2026.1.1,Win32,60.60606061,67c869b756cd63f0b3387d28,69b95efdef24cd8a694e89ee,69b96154122787376bdbdb42,0.1927,0.1927,1,77,239,83,1,sixeight,,,,,,,,,,,,,,,,,,,,,,,,,,,,,,,,,,,,,,,,,,,,,,,,,,,,,,,,,,,,,,,,,,,,,,,,,,,,,,,,,,,,,,,,,,,,,,,,,,,,,,,,,,,,,,,,,,,,,,,,,,,,,,,,,,,,,,,,,
,,67c869b756cd63f0b3387d28,2026-03-17_16h15.43.350,kallum_motion_pilot_GIST_update_2,2026.1.1,Win32,60.60606061,67c869b756cd63f0b3387d28,69b95efdef24cd8a694e89ee,69b96154122787376bdbdb42,0.1929,0.1929,1,78,240,74,1,twoone,,,,,,,,,,,,,,,,,,,,,,,,,,,,,,,,,,,,,,,,,,,,,,,,,,,,,,,,,,,,,,,,,,,,,,,,,,,,,,,,,,,,,,,,,,,,,,,,,,,,,,,,,,,,,,,,,,,,,,,,,,,,,,,,,,,,,,,,,
,,67c869b756cd63f0b3387d28,2026-03-17_16h15.43.350,kallum_motion_pilot_GIST_update_2,2026.1.1,Win32,60.60606061,67c869b756cd63f0b3387d28,69b95efdef24cd8a694e89ee,69b96154122787376bdbdb42,0.1933,0.1933,1,79,241,93,1,seveneight,,,,,,,,,,,,,,,,,,,,,,,,,,,,,,,,,,,,,,,,,,,,,,,,,,,,,,,,,,,,,,,,,,,,,,,,,,,,,,,,,,,,,,,,,,,,,,,,,,,,,,,,,,,,,,,,,,,,,,,,,,,,,,,,,,,,,,,,,
,,67c869b756cd63f0b3387d28,2026-03-17_16h15.43.350,kallum_motion_pilot_GIST_update_2,2026.1.1,Win32,60.60606061,67c869b756cd63f0b3387d28,69b95efdef24cd8a694e89ee,69b96154122787376bdbdb42,0.1935,0.1935,1,80,242,100,1,sevenfive,,,,,,,,,,,,,,,,,,,,,,,,,,,,,,,,,,,,,,,,,,,,,,,,,,,,,,,,,,,,,,,,,,,,,,,,,,,,,,,,,,,,,,,,,,,,,,,,,,,,,,,,,,,,,,,,,,,,,,,,,,,,,,,,,,,,,,,,,
,,67c869b756cd63f0b3387d28,2026-03-17_16h15.43.350,kallum_motion_pilot_GIST_update_2,2026.1.1,Win32,60.60606061,67c869b756cd63f0b3387d28,69b95efdef24cd8a694e89ee,69b96154122787376bdbdb42,0.1938,0.1938,1,81,243,99,1,sixeight,,,,,,,,,,,,,,,,,,,,,,,,,,,,,,,,,,,,,,,,,,,,,,,,,,,,,,,,,,,,,,,,,,,,,,,,,,,,,,,,,,,,,,,,,,,,,,,,,,,,,,,,,,,,,,,,,,,,,,,,,,,,,,,,,,,,,,,,,
,,67c869b756cd63f0b3387d28,2026-03-17_16h15.43.350,kallum_motion_pilot_GIST_update_2,2026.1.1,Win32,60.60606061,67c869b756cd63f0b3387d28,69b95efdef24cd8a694e89ee,69b96154122787376bdbdb42,0.1941,0.1941,1,82,244,21,1,threefour,,,,,,,,,,,,,,,,,,,,,,,,,,,,,,,,,,,,,,,,,,,,,,,,,,,,,,,,,,,,,,,,,,,,,,,,,,,,,,,,,,,,,,,,,,,,,,,,,,,,,,,,,,,,,,,,,,,,,,,,,,,,,,,,,,,,,,,,,
,,67c869b756cd63f0b3387d28,2026-03-17_16h15.43.350,kallum_motion_pilot_GIST_update_2,2026.1.1,Win32,60.60606061,67c869b756cd63f0b3387d28,69b95efdef24cd8a694e89ee,69b96154122787376bdbdb42,0.1944,0.1945,1,83,245,136,1,fivesix,,,,,,,,,,,,,,,,,,,,,,,,,,,,,,,,,,,,,,,,,,,,,,,,,,,,,,,,,,,,,,,,,,,,,,,,,,,,,,,,,,,,,,,,,,,,,,,,,,,,,,,,,,,,,,,,,,,,,,,,,,,,,,,,,,,,,,,,,
,,67c869b756cd63f0b3387d28,2026-03-17_16h15.43.350,kallum_motion_pilot_GIST_update_2,2026.1.1,Win32,60.60606061,67c869b756cd63f0b3387d28,69b95efdef24cd8a694e89ee,69b96154122787376bdbdb42,0.1947,0.1947,1,84,246,147,1,sixeight,,,,,,,,,,,,,,,,,,,,,,,,,,,,,,,,,,,,,,,,,,,,,,,,,,,,,,,,,,,,,,,,,,,,,,,,,,,,,,,,,,,,,,,,,,,,,,,,,,,,,,,,,,,,,,,,,,,,,,,,,,,,,,,,,,,,,,,,,
,,67c869b756cd63f0b3387d28,2026-03-17_16h15.43.350,kallum_motion_pilot_GIST_update_2,2026.1.1,Win32,60.60606061,67c869b756cd63f0b3387d28,69b95efdef24cd8a694e89ee,69b96154122787376bdbdb42,0.195,0.195,1,85,247,125,1,seveneight,,,,,,,,,,,,,,,,,,,,,,,,,,,,,,,,,,,,,,,,,,,,,,,,,,,,,,,,,,,,,,,,,,,,,,,,,,,,,,,,,,,,,,,,,,,,,,,,,,,,,,,,,,,,,,,,,,,,,,,,,,,,,,,,,,,,,,,,,
,,67c869b756cd63f0b3387d28,2026-03-17_16h15.43.350,kallum_motion_pilot_GIST_update_2,2026.1.1,Win32,60.60606061,67c869b756cd63f0b3387d28,69b95efdef24cd8a694e89ee,69b96154122787376bdbdb42,0.1958,0.1958,1,86,248,32,1,onetwo,,,,,,,,,,,,,,,,,,,,,,,,,,,,,,,,,,,,,,,,,,,,,,,,,,,,,,,,,,,,,,,,,,,,,,,,,,,,,,,,,,,,,,,,,,,,,,,,,,,,,,,,,,,,,,,,,,,,,,,,,,,,,,,,,,,,,,,,,
,,67c869b756cd63f0b3387d28,2026-03-17_16h15.43.350,kallum_motion_pilot_GIST_update_2,2026.1.1,Win32,60.60606061,67c869b756cd63f0b3387d28,69b95efdef24cd8a694e89ee,69b96154122787376bdbdb42,0.1962,0.1962,1,87,249,29,1,threefour,,,,,,,,,,,,,,,,,,,,,,,,,,,,,,,,,,,,,,,,,,,,,,,,,,,,,,,,,,,,,,,,,,,,,,,,,,,,,,,,,,,,,,,,,,,,,,,,,,,,,,,,,,,,,,,,,,,,,,,,,,,,,,,,,,,,,,,,,
,,67c869b756cd63f0b3387d28,2026-03-17_16h15.43.350,kallum_motion_pilot_GIST_update_2,2026.1.1,Win32,60.60606061,67c869b756cd63f0b3387d28,69b95efdef24cd8a694e89ee,69b96154122787376bdbdb42,0.1966,0.1966,1,88,250,16,1,onetwo,,,,,,,,,,,,,,,,,,,,,,,,,,,,,,,,,,,,,,,,,,,,,,,,,,,,,,,,,,,,,,,,,,,,,,,,,,,,,,,,,,,,,,,,,,,,,,,,,,,,,,,,,,,,,,,,,,,,,,,,,,,,,,,,,,,,,,,,,
,,67c869b756cd63f0b3387d28,2026-03-17_16h15.43.350,kallum_motion_pilot_GIST_update_2,2026.1.1,Win32,60.60606061,67c869b756cd63f0b3387d28,69b95efdef24cd8a694e89ee,69b96154122787376bdbdb42,0.197,0.1971,1,89,251,73,1,onethree,,,,,,,,,,,,,,,,,,,,,,,,,,,,,,,,,,,,,,,,,,,,,,,,,,,,,,,,,,,,,,,,,,,,,,,,,,,,,,,,,,,,,,,,,,,,,,,,,,,,,,,,,,,,,,,,,,,,,,,,,,,,,,,,,,,,,,,,,
,,67c869b756cd63f0b3387d28,2026-03-17_16h15.43.350,kallum_motion_pilot_GIST_update_2,2026.1.1,Win32,60.60606061,67c869b756cd63f0b3387d28,69b95efdef24cd8a694e89ee,69b96154122787376bdbdb42,0.1975,0.1975,1,90,252,149,1,seveneight,,,,,,,,,,,,,,,,,,,,,,,,,,,,,,,,,,,,,,,,,,,,,,,,,,,,,,,,,,,,,,,,,,,,,,,,,,,,,,,,,,,,,,,,,,,,,,,,,,,,,,,,,,,,,,,,,,,,,,,,,,,,,,,,,,,,,,,,,
,,67c869b756cd63f0b3387d28,2026-03-17_16h15.43.350,kallum_motion_pilot_GIST_update_2,2026.1.1,Win32,60.60606061,67c869b756cd63f0b3387d28,69b95efdef24cd8a694e89ee,69b96154122787376bdbdb42,0.1978,0.1978,1,91,253,119,1,eightseven,,,,,,,,,,,,,,,,,,,,,,,,,,,,,,,,,,,,,,,,,,,,,,,,,,,,,,,,,,,,,,,,,,,,,,,,,,,,,,,,,,,,,,,,,,,,,,,,,,,,,,,,,,,,,,,,,,,,,,,,,,,,,,,,,,,,,,,,,
,,67c869b756cd63f0b3387d28,2026-03-17_16h15.43.350,kallum_motion_pilot_GIST_update_2,2026.1.1,Win32,60.60606061,67c869b756cd63f0b3387d28,69b95efdef24cd8a694e89ee,69b96154122787376bdbdb42,0.1982,0.1982,1,92,254,47,1,fourthree,,,,,,,,,,,,,,,,,,,,,,,,,,,,,,,,,,,,,,,,,,,,,,,,,,,,,,,,,,,,,,,,,,,,,,,,,,,,,,,,,,,,,,,,,,,,,,,,,,,,,,,,,,,,,,,,,,,,,,,,,,,,,,,,,,,,,,,,,
,,67c869b756cd63f0b3387d28,2026-03-17_16h15.43.350,kallum_motion_pilot_GIST_update_2,2026.1.1,Win32,60.60606061,67c869b756cd63f0b3387d28,69b95efdef24cd8a694e89ee,69b96154122787376bdbdb42,0.1985,0.1985,1,93,255,112,1,fivesix,,,,,,,,,,,,,,,,,,,,,,,,,,,,,,,,,,,,,,,,,,,,,,,,,,,,,,,,,,,,,,,,,,,,,,,,,,,,,,,,,,,,,,,,,,,,,,,,,,,,,,,,,,,,,,,,,,,,,,,,,,,,,,,,,,,,,,,,,
,,67c869b756cd63f0b3387d28,2026-03-17_16h15.43.350,kallum_motion_pilot_GIST_update_2,2026.1.1,Win32,60.60606061,67c869b756cd63f0b3387d28,69b95efdef24cd8a694e89ee,69b96154122787376bdbdb42,0.1989,0.1989,1,94,256,45,1,threefour,,,,,,,,,,,,,,,,,,,,,,,,,,,,,,,,,,,,,,,,,,,,,,,,,,,,,,,,,,,,,,,,,,,,,,,,,,,,,,,,,,,,,,,,,,,,,,,,,,,,,,,,,,,,,,,,,,,,,,,,,,,,,,,,,,,,,,,,,
,,67c869b756cd63f0b3387d28,2026-03-17_16h15.43.350,kallum_motion_pilot_GIST_update_2,2026.1.1,Win32,60.60606061,67c869b756cd63f0b3387d28,69b95efdef24cd8a694e89ee,69b96154122787376bdbdb42,0.1992,0.1992,1,95,257,102,1,eightsix,,,,,,,,,,,,,,,,,,,,,,,,,,,,,,,,,,,,,,,,,,,,,,,,,,,,,,,,,,,,,,,,,,,,,,,,,,,,,,,,,,,,,,,,,,,,,,,,,,,,,,,,,,,,,,,,,,,,,,,,,,,,,,,,,,,,,,,,,
,,67c869b756cd63f0b3387d28,2026-03-17_16h15.43.350,kallum_motion_pilot_GIST_update_2,2026.1.1,Win32,60.60606061,67c869b756cd63f0b3387d28,69b95efdef24cd8a694e89ee,69b96154122787376bdbdb42,0.1998,0.1998,1,96,258,103,1,eightseven,,,,,,,,,,,,,,,,,,,,,,,,,,,,,,,,,,,,,,,,,,,,,,,,,,,,,,,,,,,,,,,,,,,,,,,,,,,,,,,,,,,,,,,,,,,,,,,,,,,,,,,,,,,,,,,,,,,,,,,,,,,,,,,,,,,,,,,,,
,,67c869b756cd63f0b3387d28,2026-03-17_16h15.43.350,kallum_motion_pilot_GIST_update_2,2026.1.1,Win32,60.60606061,67c869b756cd63f0b3387d28,69b95efdef24cd8a694e89ee,69b96154122787376bdbdb42,0.2001,0.2001,1,97,259,128,1,fivesix,,,,,,,,,,,,,,,,,,,,,,,,,,,,,,,,,,,,,,,,,,,,,,,,,,,,,,,,,,,,,,,,,,,,,,,,,,,,,,,,,,,,,,,,,,,,,,,,,,,,,,,,,,,,,,,,,,,,,,,,,,,,,,,,,,,,,,,,,
,,67c869b756cd63f0b3387d28,2026-03-17_16h15.43.350,kallum_motion_pilot_GIST_update_2,2026.1.1,Win32,60.60606061,67c869b756cd63f0b3387d28,69b95efdef24cd8a694e89ee,69b96154122787376bdbdb42,0.2005,0.2005,1,98,260,113,1,fiveseven,,,,,,,,,,,,,,,,,,,,,,,,,,,,,,,,,,,,,,,,,,,,,,,,,,,,,,,,,,,,,,,,,,,,,,,,,,,,,,,,,,,,,,,,,,,,,,,,,,,,,,,,,,,,,,,,,,,,,,,,,,,,,,,,,,,,,,,,,
,,67c869b756cd63f0b3387d28,2026-03-17_16h15.43.350,kallum_motion_pilot_GIST_update_2,2026.1.1,Win32,60.60606061,67c869b756cd63f0b3387d28,69b95efdef24cd8a694e89ee,69b96154122787376bdbdb42,0.2008,0.2008,1,99,261,46,1,fourtwo,,,,,,,,,,,,,,,,,,,,,,,,,,,,,,,,,,,,,,,,,,,,,,,,,,,,,,,,,,,,,,,,,,,,,,,,,,,,,,,,,,,,,,,,,,,,,,,,,,,,,,,,,,,,,,,,,,,,,,,,,,,,,,,,,,,,,,,,,
,,67c869b756cd63f0b3387d28,2026-03-17_16h15.43.350,kallum_motion_pilot_GIST_update_2,2026.1.1,Win32,60.60606061,67c869b756cd63f0b3387d28,69b95efdef24cd8a694e89ee,69b96154122787376bdbdb42,0.2011,0.2012,1,100,262,132,1,sevenfive,,,,,,,,,,,,,,,,,,,,,,,,,,,,,,,,,,,,,,,,,,,,,,,,,,,,,,,,,,,,,,,,,,,,,,,,,,,,,,,,,,,,,,,,,,,,,,,,,,,,,,,,,,,,,,,,,,,,,,,,,,,,,,,,,,,,,,,,,
,,67c869b756cd63f0b3387d28,2026-03-17_16h15.43.350,kallum_motion_pilot_GIST_update_2,2026.1.1,Win32,60.60606061,67c869b756cd63f0b3387d28,69b95efdef24cd8a694e89ee,69b96154122787376bdbdb42,0.2014,0.2015,1,101,263,1,1,onethree,,,,,,,,,,,,,,,,,,,,,,,,,,,,,,,,,,,,,,,,,,,,,,,,,,,,,,,,,,,,,,,,,,,,,,,,,,,,,,,,,,,,,,,,,,,,,,,,,,,,,,,,,,,,,,,,,,,,,,,,,,,,,,,,,,,,,,,,,
,,67c869b756cd63f0b3387d28,2026-03-17_16h15.43.350,kallum_motion_pilot_GIST_update_2,2026.1.1,Win32,60.60606061,67c869b756cd63f0b3387d28,69b95efdef24cd8a694e89ee,69b96154122787376bdbdb42,0.2019,0.2019,1,102,264,36,1,threeone,,,,,,,,,,,,,,,,,,,,,,,,,,,,,,,,,,,,,,,,,,,,,,,,,,,,,,,,,,,,,,,,,,,,,,,,,,,,,,,,,,,,,,,,,,,,,,,,,,,,,,,,,,,,,,,,,,,,,,,,,,,,,,,,,,,,,,,,,
,,67c869b756cd63f0b3387d28,2026-03-17_16h15.43.350,kallum_motion_pilot_GIST_update_2,2026.1.1,Win32,60.60606061,67c869b756cd63f0b3387d28,69b95efdef24cd8a694e89ee,69b96154122787376bdbdb42,0.2023,0.2023,1,103,265,127,1,eightseven,,,,,,,,,,,,,,,,,,,,,,,,,,,,,,,,,,,,,,,,,,,,,,,,,,,,,,,,,,,,,,,,,,,,,,,,,,,,,,,,,,,,,,,,,,,,,,,,,,,,,,,,,,,,,,,,,,,,,,,,,,,,,,,,,,,,,,,,,
,,67c869b756cd63f0b3387d28,2026-03-17_16h15.43.350,kallum_motion_pilot_GIST_update_2,2026.1.1,Win32,60.60606061,67c869b756cd63f0b3387d28,69b95efdef24cd8a694e89ee,69b96154122787376bdbdb42,0.2026,0.2026,1,104,266,118,1,eightsix,,,,,,,,,,,,,,,,,,,,,,,,,,,,,,,,,,,,,,,,,,,,,,,,,,,,,,,,,,,,,,,,,,,,,,,,,,,,,,,,,,,,,,,,,,,,,,,,,,,,,,,,,,,,,,,,,,,,,,,,,,,,,,,,,,,,,,,,,
