startup.started,startup.stopped,Prolific ID*,date,expName,psychopyVersion,OS,frameRate,participant,study_id,session,stimpositions.started,stimpositions.stopped,hardcoded_stimulus_positions.thisRepN,hardcoded_stimulus_positions.thisTrialN,hardcoded_stimulus_positions.thisN,hardcoded_stimulus_positions.thisIndex,hardcoded_stimulus_positions.ran,StimulusPos,stimorientation.started,stimorientation.stopped,prac_stimorientation_import_loop.thisRepN,prac_stimorientation_import_loop.thisTrialN,prac_stimorientation_import_loop.thisN,prac_stimorientation_import_loop.thisIndex,prac_stimorientation_import_loop.ran,Stimorientation,welcome_instr.started,welcome_instr.stopped,key_resp.keys,key_resp.rt,key_resp.duration,response_steppedout_1.started,response_steppedout_1.stopped,key_resp_20.keys,key_resp_20.rt,key_resp_20.duration,response_steppedout_2.started,response_steppedout_2.stopped,key_resp_19.keys,key_resp_19.rt,key_resp_19.duration,stim_response_instr.started,stim_response_instr.stopped,key_resp_15.keys,key_resp_15.rt,key_resp_15.duration,direction_instr_2.started,direction_instr_2.stopped,key_resp_9.keys,key_resp_9.rt,key_resp_9.duration,instr_prac.started,instr_prac.stopped,key_resp_10.keys,key_resp_10.rt,key_resp_10.duration,Stim1_display_prac.started,Stim1_display_prac.stopped,Ecc,Circle1_ori,Circle2_ori,response_prac.started,similarity,response_time,response_prac.stopped,mouse_5.x,mouse_5.y,mouse_5.leftButton,mouse_5.midButton,mouse_5.rightButton,mouse_5.clicked_name,responseprac_feedback.started,responseprac_feedback.stopped,summary2_prac.started,summary2_prac.stopped,mouse_6.x,mouse_6.y,mouse_6.leftButton,mouse_6.midButton,mouse_6.rightButton,mouse_6.clicked_name,duringprac.thisRepN,duringprac.thisTrialN,duringprac.thisN,duringprac.thisIndex,duringprac.ran,begin.started,begin.stopped,key_resp_22.keys,key_resp_22.rt,key_resp_22.duration,Stim1_display.started,Stim1_display.stopped,circle1_ori,circle2_ori,circle1_SF,circle2_SF,response.started,response.stopped,mouse.x,mouse.y,mouse.leftButton,mouse.midButton,mouse.rightButton,mouse.clicked_name,trialnumber,double_pass.thisRepN,double_pass.thisTrialN,double_pass.thisN,double_pass.thisIndex,double_pass.ran,double_pass.order,main_trial.thisRepN,main_trial.thisTrialN,main_trial.thisN,main_trial.thisIndex,main_trial.ran,main_trial.order,Trial_Counter,Catch,Frequencies,response_2.started,response_2.stopped,mouse_2.x,mouse_2.y,mouse_2.leftButton,mouse_2.midButton,mouse_2.rightButton,mouse_2.clicked_name,special_trial.started,special_trial.stopped,catch_1.started,catch_1.stopped,mouse_3.x,mouse_3.y,mouse_3.leftButton,mouse_3.midButton,mouse_3.rightButton,catchresponse,catchnumber,response_time_catch,response_sum.started,response_sum.stopped,mouse_11.x,mouse_11.y,mouse_11.leftButton,mouse_11.midButton,mouse_11.rightButton,flip_presentation_sequence_for_double_pass.started,flip_presentation_sequence_for_double_pass.stopped,goodbye.started,goodbye.stopped,key_resp_3.keys,key_resp_3.rt,key_resp_3.duration
0.0001,0.0002,67d00d29e336b9b83ccf9203,2026-03-17_16h09.27.209,kallum_motion_pilot_GIST_update_2,2026.1.1,Win32,60.24096386,67d00d29e336b9b83ccf9203,69b95efdef24cd8a694e89ee,69b9602f9a8e30c1d2d9c09d,,,,,,,,,,,,,,,,,,,,,,,,,,,,,,,,,,,,,,,,,,,,,,,,,,,,,,,,,,,,,,,,,,,,,,,,,,,,,,,,,,,,,,,,,,,,,,,,,,,,,,,,,,,,,,,,,,,,,,,,,,,,,,,,,,,,,,,,,,,,,,,,,
,,67d00d29e336b9b83ccf9203,2026-03-17_16h09.27.209,kallum_motion_pilot_GIST_update_2,2026.1.1,Win32,60.24096386,67d00d29e336b9b83ccf9203,69b95efdef24cd8a694e89ee,69b9602f9a8e30c1d2d9c09d,0.0271,0.0272,0,0,0,7,1,fourthree,,,,,,,,,,,,,,,,,,,,,,,,,,,,,,,,,,,,,,,,,,,,,,,,,,,,,,,,,,,,,,,,,,,,,,,,,,,,,,,,,,,,,,,,,,,,,,,,,,,,,,,,,,,,,,,,,,,,,,,,,,,,,,,,,,,,,,,,,
,,67d00d29e336b9b83ccf9203,2026-03-17_16h09.27.209,kallum_motion_pilot_GIST_update_2,2026.1.1,Win32,60.24096386,67d00d29e336b9b83ccf9203,69b95efdef24cd8a694e89ee,69b9602f9a8e30c1d2d9c09d,0.0276,0.0276,0,1,1,32,1,onetwo,,,,,,,,,,,,,,,,,,,,,,,,,,,,,,,,,,,,,,,,,,,,,,,,,,,,,,,,,,,,,,,,,,,,,,,,,,,,,,,,,,,,,,,,,,,,,,,,,,,,,,,,,,,,,,,,,,,,,,,,,,,,,,,,,,,,,,,,,
,,67d00d29e336b9b83ccf9203,2026-03-17_16h09.27.209,kallum_motion_pilot_GIST_update_2,2026.1.1,Win32,60.24096386,67d00d29e336b9b83ccf9203,69b95efdef24cd8a694e89ee,69b9602f9a8e30c1d2d9c09d,0.0278,0.0279,0,2,2,127,1,eightseven,,,,,,,,,,,,,,,,,,,,,,,,,,,,,,,,,,,,,,,,,,,,,,,,,,,,,,,,,,,,,,,,,,,,,,,,,,,,,,,,,,,,,,,,,,,,,,,,,,,,,,,,,,,,,,,,,,,,,,,,,,,,,,,,,,,,,,,,,
,,67d00d29e336b9b83ccf9203,2026-03-17_16h09.27.209,kallum_motion_pilot_GIST_update_2,2026.1.1,Win32,60.24096386,67d00d29e336b9b83ccf9203,69b95efdef24cd8a694e89ee,69b9602f9a8e30c1d2d9c09d,0.0281,0.0281,0,3,3,140,1,sevenfive,,,,,,,,,,,,,,,,,,,,,,,,,,,,,,,,,,,,,,,,,,,,,,,,,,,,,,,,,,,,,,,,,,,,,,,,,,,,,,,,,,,,,,,,,,,,,,,,,,,,,,,,,,,,,,,,,,,,,,,,,,,,,,,,,,,,,,,,,
,,67d00d29e336b9b83ccf9203,2026-03-17_16h09.27.209,kallum_motion_pilot_GIST_update_2,2026.1.1,Win32,60.24096386,67d00d29e336b9b83ccf9203,69b95efdef24cd8a694e89ee,69b9602f9a8e30c1d2d9c09d,0.0284,0.0284,0,4,4,37,1,threefour,,,,,,,,,,,,,,,,,,,,,,,,,,,,,,,,,,,,,,,,,,,,,,,,,,,,,,,,,,,,,,,,,,,,,,,,,,,,,,,,,,,,,,,,,,,,,,,,,,,,,,,,,,,,,,,,,,,,,,,,,,,,,,,,,,,,,,,,,
,,67d00d29e336b9b83ccf9203,2026-03-17_16h09.27.209,kallum_motion_pilot_GIST_update_2,2026.1.1,Win32,60.24096386,67d00d29e336b9b83ccf9203,69b95efdef24cd8a694e89ee,69b9602f9a8e30c1d2d9c09d,0.0286,0.0286,0,5,5,81,1,fiveseven,,,,,,,,,,,,,,,,,,,,,,,,,,,,,,,,,,,,,,,,,,,,,,,,,,,,,,,,,,,,,,,,,,,,,,,,,,,,,,,,,,,,,,,,,,,,,,,,,,,,,,,,,,,,,,,,,,,,,,,,,,,,,,,,,,,,,,,,,
,,67d00d29e336b9b83ccf9203,2026-03-17_16h09.27.209,kallum_motion_pilot_GIST_update_2,2026.1.1,Win32,60.24096386,67d00d29e336b9b83ccf9203,69b95efdef24cd8a694e89ee,69b9602f9a8e30c1d2d9c09d,0.0287,0.0288,0,6,6,88,1,fivesix,,,,,,,,,,,,,,,,,,,,,,,,,,,,,,,,,,,,,,,,,,,,,,,,,,,,,,,,,,,,,,,,,,,,,,,,,,,,,,,,,,,,,,,,,,,,,,,,,,,,,,,,,,,,,,,,,,,,,,,,,,,,,,,,,,,,,,,,,
,,67d00d29e336b9b83ccf9203,2026-03-17_16h09.27.209,kallum_motion_pilot_GIST_update_2,2026.1.1,Win32,60.24096386,67d00d29e336b9b83ccf9203,69b95efdef24cd8a694e89ee,69b9602f9a8e30c1d2d9c09d,0.029,0.029,0,7,7,61,1,threefour,,,,,,,,,,,,,,,,,,,,,,,,,,,,,,,,,,,,,,,,,,,,,,,,,,,,,,,,,,,,,,,,,,,,,,,,,,,,,,,,,,,,,,,,,,,,,,,,,,,,,,,,,,,,,,,,,,,,,,,,,,,,,,,,,,,,,,,,,
,,67d00d29e336b9b83ccf9203,2026-03-17_16h09.27.209,kallum_motion_pilot_GIST_update_2,2026.1.1,Win32,60.24096386,67d00d29e336b9b83ccf9203,69b95efdef24cd8a694e89ee,69b9602f9a8e30c1d2d9c09d,0.0291,0.0291,0,8,8,76,1,threeone,,,,,,,,,,,,,,,,,,,,,,,,,,,,,,,,,,,,,,,,,,,,,,,,,,,,,,,,,,,,,,,,,,,,,,,,,,,,,,,,,,,,,,,,,,,,,,,,,,,,,,,,,,,,,,,,,,,,,,,,,,,,,,,,,,,,,,,,,
,,67d00d29e336b9b83ccf9203,2026-03-17_16h09.27.209,kallum_motion_pilot_GIST_update_2,2026.1.1,Win32,60.24096386,67d00d29e336b9b83ccf9203,69b95efdef24cd8a694e89ee,69b9602f9a8e30c1d2d9c09d,0.0294,0.0294,0,9,9,67,1,twofour,,,,,,,,,,,,,,,,,,,,,,,,,,,,,,,,,,,,,,,,,,,,,,,,,,,,,,,,,,,,,,,,,,,,,,,,,,,,,,,,,,,,,,,,,,,,,,,,,,,,,,,,,,,,,,,,,,,,,,,,,,,,,,,,,,,,,,,,,
,,67d00d29e336b9b83ccf9203,2026-03-17_16h09.27.209,kallum_motion_pilot_GIST_update_2,2026.1.1,Win32,60.24096386,67d00d29e336b9b83ccf9203,69b95efdef24cd8a694e89ee,69b9602f9a8e30c1d2d9c09d,0.0296,0.0296,0,10,10,128,1,fivesix,,,,,,,,,,,,,,,,,,,,,,,,,,,,,,,,,,,,,,,,,,,,,,,,,,,,,,,,,,,,,,,,,,,,,,,,,,,,,,,,,,,,,,,,,,,,,,,,,,,,,,,,,,,,,,,,,,,,,,,,,,,,,,,,,,,,,,,,,
,,67d00d29e336b9b83ccf9203,2026-03-17_16h09.27.209,kallum_motion_pilot_GIST_update_2,2026.1.1,Win32,60.24096386,67d00d29e336b9b83ccf9203,69b95efdef24cd8a694e89ee,69b9602f9a8e30c1d2d9c09d,0.0297,0.0297,0,11,11,143,1,eightseven,,,,,,,,,,,,,,,,,,,,,,,,,,,,,,,,,,,,,,,,,,,,,,,,,,,,,,,,,,,,,,,,,,,,,,,,,,,,,,,,,,,,,,,,,,,,,,,,,,,,,,,,,,,,,,,,,,,,,,,,,,,,,,,,,,,,,,,,,
,,67d00d29e336b9b83ccf9203,2026-03-17_16h09.27.209,kallum_motion_pilot_GIST_update_2,2026.1.1,Win32,60.24096386,67d00d29e336b9b83ccf9203,69b95efdef24cd8a694e89ee,69b9602f9a8e30c1d2d9c09d,0.0299,0.0299,0,12,12,118,1,eightsix,,,,,,,,,,,,,,,,,,,,,,,,,,,,,,,,,,,,,,,,,,,,,,,,,,,,,,,,,,,,,,,,,,,,,,,,,,,,,,,,,,,,,,,,,,,,,,,,,,,,,,,,,,,,,,,,,,,,,,,,,,,,,,,,,,,,,,,,,
,,67d00d29e336b9b83ccf9203,2026-03-17_16h09.27.209,kallum_motion_pilot_GIST_update_2,2026.1.1,Win32,60.24096386,67d00d29e336b9b83ccf9203,69b95efdef24cd8a694e89ee,69b9602f9a8e30c1d2d9c09d,0.03,0.03,0,13,13,130,1,sixfive,,,,,,,,,,,,,,,,,,,,,,,,,,,,,,,,,,,,,,,,,,,,,,,,,,,,,,,,,,,,,,,,,,,,,,,,,,,,,,,,,,,,,,,,,,,,,,,,,,,,,,,,,,,,,,,,,,,,,,,,,,,,,,,,,,,,,,,,,
,,67d00d29e336b9b83ccf9203,2026-03-17_16h09.27.209,kallum_motion_pilot_GIST_update_2,2026.1.1,Win32,60.24096386,67d00d29e336b9b83ccf9203,69b95efdef24cd8a694e89ee,69b9602f9a8e30c1d2d9c09d,0.0302,0.0302,0,14,14,154,1,sixfive,,,,,,,,,,,,,,,,,,,,,,,,,,,,,,,,,,,,,,,,,,,,,,,,,,,,,,,,,,,,,,,,,,,,,,,,,,,,,,,,,,,,,,,,,,,,,,,,,,,,,,,,,,,,,,,,,,,,,,,,,,,,,,,,,,,,,,,,,
,,67d00d29e336b9b83ccf9203,2026-03-17_16h09.27.209,kallum_motion_pilot_GIST_update_2,2026.1.1,Win32,60.24096386,67d00d29e336b9b83ccf9203,69b95efdef24cd8a694e89ee,69b9602f9a8e30c1d2d9c09d,0.0303,0.0304,0,15,15,66,1,twoone,,,,,,,,,,,,,,,,,,,,,,,,,,,,,,,,,,,,,,,,,,,,,,,,,,,,,,,,,,,,,,,,,,,,,,,,,,,,,,,,,,,,,,,,,,,,,,,,,,,,,,,,,,,,,,,,,,,,,,,,,,,,,,,,,,,,,,,,,
,,67d00d29e336b9b83ccf9203,2026-03-17_16h09.27.209,kallum_motion_pilot_GIST_update_2,2026.1.1,Win32,60.24096386,67d00d29e336b9b83ccf9203,69b95efdef24cd8a694e89ee,69b9602f9a8e30c1d2d9c09d,0.0305,0.0305,0,16,16,116,1,sevenfive,,,,,,,,,,,,,,,,,,,,,,,,,,,,,,,,,,,,,,,,,,,,,,,,,,,,,,,,,,,,,,,,,,,,,,,,,,,,,,,,,,,,,,,,,,,,,,,,,,,,,,,,,,,,,,,,,,,,,,,,,,,,,,,,,,,,,,,,,
,,67d00d29e336b9b83ccf9203,2026-03-17_16h09.27.209,kallum_motion_pilot_GIST_update_2,2026.1.1,Win32,60.24096386,67d00d29e336b9b83ccf9203,69b95efdef24cd8a694e89ee,69b9602f9a8e30c1d2d9c09d,0.0306,0.0306,0,17,17,161,1,fiveseven,,,,,,,,,,,,,,,,,,,,,,,,,,,,,,,,,,,,,,,,,,,,,,,,,,,,,,,,,,,,,,,,,,,,,,,,,,,,,,,,,,,,,,,,,,,,,,,,,,,,,,,,,,,,,,,,,,,,,,,,,,,,,,,,,,,,,,,,,
,,67d00d29e336b9b83ccf9203,2026-03-17_16h09.27.209,kallum_motion_pilot_GIST_update_2,2026.1.1,Win32,60.24096386,67d00d29e336b9b83ccf9203,69b95efdef24cd8a694e89ee,69b9602f9a8e30c1d2d9c09d,0.0307,0.0308,0,18,18,110,1,eightsix,,,,,,,,,,,,,,,,,,,,,,,,,,,,,,,,,,,,,,,,,,,,,,,,,,,,,,,,,,,,,,,,,,,,,,,,,,,,,,,,,,,,,,,,,,,,,,,,,,,,,,,,,,,,,,,,,,,,,,,,,,,,,,,,,,,,,,,,,
,,67d00d29e336b9b83ccf9203,2026-03-17_16h09.27.209,kallum_motion_pilot_GIST_update_2,2026.1.1,Win32,60.24096386,67d00d29e336b9b83ccf9203,69b95efdef24cd8a694e89ee,69b9602f9a8e30c1d2d9c09d,0.0309,0.0309,0,19,19,100,1,sevenfive,,,,,,,,,,,,,,,,,,,,,,,,,,,,,,,,,,,,,,,,,,,,,,,,,,,,,,,,,,,,,,,,,,,,,,,,,,,,,,,,,,,,,,,,,,,,,,,,,,,,,,,,,,,,,,,,,,,,,,,,,,,,,,,,,,,,,,,,,
,,67d00d29e336b9b83ccf9203,2026-03-17_16h09.27.209,kallum_motion_pilot_GIST_update_2,2026.1.1,Win32,60.24096386,67d00d29e336b9b83ccf9203,69b95efdef24cd8a694e89ee,69b9602f9a8e30c1d2d9c09d,0.031,0.031,0,20,20,139,1,sixeight,,,,,,,,,,,,,,,,,,,,,,,,,,,,,,,,,,,,,,,,,,,,,,,,,,,,,,,,,,,,,,,,,,,,,,,,,,,,,,,,,,,,,,,,,,,,,,,,,,,,,,,,,,,,,,,,,,,,,,,,,,,,,,,,,,,,,,,,,
,,67d00d29e336b9b83ccf9203,2026-03-17_16h09.27.209,kallum_motion_pilot_GIST_update_2,2026.1.1,Win32,60.24096386,67d00d29e336b9b83ccf9203,69b95efdef24cd8a694e89ee,69b9602f9a8e30c1d2d9c09d,0.0312,0.0312,0,21,21,4,1,threeone,,,,,,,,,,,,,,,,,,,,,,,,,,,,,,,,,,,,,,,,,,,,,,,,,,,,,,,,,,,,,,,,,,,,,,,,,,,,,,,,,,,,,,,,,,,,,,,,,,,,,,,,,,,,,,,,,,,,,,,,,,,,,,,,,,,,,,,,,
,,67d00d29e336b9b83ccf9203,2026-03-17_16h09.27.209,kallum_motion_pilot_GIST_update_2,2026.1.1,Win32,60.24096386,67d00d29e336b9b83ccf9203,69b95efdef24cd8a694e89ee,69b9602f9a8e30c1d2d9c09d,0.0313,0.0313,0,22,22,138,1,sixfive,,,,,,,,,,,,,,,,,,,,,,,,,,,,,,,,,,,,,,,,,,,,,,,,,,,,,,,,,,,,,,,,,,,,,,,,,,,,,,,,,,,,,,,,,,,,,,,,,,,,,,,,,,,,,,,,,,,,,,,,,,,,,,,,,,,,,,,,,
,,67d00d29e336b9b83ccf9203,2026-03-17_16h09.27.209,kallum_motion_pilot_GIST_update_2,2026.1.1,Win32,60.24096386,67d00d29e336b9b83ccf9203,69b95efdef24cd8a694e89ee,69b9602f9a8e30c1d2d9c09d,0.0315,0.0315,0,23,23,126,1,eightsix,,,,,,,,,,,,,,,,,,,,,,,,,,,,,,,,,,,,,,,,,,,,,,,,,,,,,,,,,,,,,,,,,,,,,,,,,,,,,,,,,,,,,,,,,,,,,,,,,,,,,,,,,,,,,,,,,,,,,,,,,,,,,,,,,,,,,,,,,
,,67d00d29e336b9b83ccf9203,2026-03-17_16h09.27.209,kallum_motion_pilot_GIST_update_2,2026.1.1,Win32,60.24096386,67d00d29e336b9b83ccf9203,69b95efdef24cd8a694e89ee,69b9602f9a8e30c1d2d9c09d,0.0316,0.0316,0,24,24,73,1,onethree,,,,,,,,,,,,,,,,,,,,,,,,,,,,,,,,,,,,,,,,,,,,,,,,,,,,,,,,,,,,,,,,,,,,,,,,,,,,,,,,,,,,,,,,,,,,,,,,,,,,,,,,,,,,,,,,,,,,,,,,,,,,,,,,,,,,,,,,,
,,67d00d29e336b9b83ccf9203,2026-03-17_16h09.27.209,kallum_motion_pilot_GIST_update_2,2026.1.1,Win32,60.24096386,67d00d29e336b9b83ccf9203,69b95efdef24cd8a694e89ee,69b9602f9a8e30c1d2d9c09d,0.0319,0.0319,0,25,25,137,1,fiveseven,,,,,,,,,,,,,,,,,,,,,,,,,,,,,,,,,,,,,,,,,,,,,,,,,,,,,,,,,,,,,,,,,,,,,,,,,,,,,,,,,,,,,,,,,,,,,,,,,,,,,,,,,,,,,,,,,,,,,,,,,,,,,,,,,,,,,,,,,
,,67d00d29e336b9b83ccf9203,2026-03-17_16h09.27.209,kallum_motion_pilot_GIST_update_2,2026.1.1,Win32,60.24096386,67d00d29e336b9b83ccf9203,69b95efdef24cd8a694e89ee,69b9602f9a8e30c1d2d9c09d,0.032,0.032,0,26,26,102,1,eightsix,,,,,,,,,,,,,,,,,,,,,,,,,,,,,,,,,,,,,,,,,,,,,,,,,,,,,,,,,,,,,,,,,,,,,,,,,,,,,,,,,,,,,,,,,,,,,,,,,,,,,,,,,,,,,,,,,,,,,,,,,,,,,,,,,,,,,,,,,
,,67d00d29e336b9b83ccf9203,2026-03-17_16h09.27.209,kallum_motion_pilot_GIST_update_2,2026.1.1,Win32,60.24096386,67d00d29e336b9b83ccf9203,69b95efdef24cd8a694e89ee,69b9602f9a8e30c1d2d9c09d,0.0321,0.0321,0,27,27,155,1,sixeight,,,,,,,,,,,,,,,,,,,,,,,,,,,,,,,,,,,,,,,,,,,,,,,,,,,,,,,,,,,,,,,,,,,,,,,,,,,,,,,,,,,,,,,,,,,,,,,,,,,,,,,,,,,,,,,,,,,,,,,,,,,,,,,,,,,,,,,,,
,,67d00d29e336b9b83ccf9203,2026-03-17_16h09.27.209,kallum_motion_pilot_GIST_update_2,2026.1.1,Win32,60.24096386,67d00d29e336b9b83ccf9203,69b95efdef24cd8a694e89ee,69b9602f9a8e30c1d2d9c09d,0.0323,0.0323,0,28,28,59,1,twofour,,,,,,,,,,,,,,,,,,,,,,,,,,,,,,,,,,,,,,,,,,,,,,,,,,,,,,,,,,,,,,,,,,,,,,,,,,,,,,,,,,,,,,,,,,,,,,,,,,,,,,,,,,,,,,,,,,,,,,,,,,,,,,,,,,,,,,,,,
,,67d00d29e336b9b83ccf9203,2026-03-17_16h09.27.209,kallum_motion_pilot_GIST_update_2,2026.1.1,Win32,60.24096386,67d00d29e336b9b83ccf9203,69b95efdef24cd8a694e89ee,69b9602f9a8e30c1d2d9c09d,0.0324,0.0324,0,29,29,103,1,eightseven,,,,,,,,,,,,,,,,,,,,,,,,,,,,,,,,,,,,,,,,,,,,,,,,,,,,,,,,,,,,,,,,,,,,,,,,,,,,,,,,,,,,,,,,,,,,,,,,,,,,,,,,,,,,,,,,,,,,,,,,,,,,,,,,,,,,,,,,,
,,67d00d29e336b9b83ccf9203,2026-03-17_16h09.27.209,kallum_motion_pilot_GIST_update_2,2026.1.1,Win32,60.24096386,67d00d29e336b9b83ccf9203,69b95efdef24cd8a694e89ee,69b9602f9a8e30c1d2d9c09d,0.0325,0.0325,0,30,30,54,1,fourtwo,,,,,,,,,,,,,,,,,,,,,,,,,,,,,,,,,,,,,,,,,,,,,,,,,,,,,,,,,,,,,,,,,,,,,,,,,,,,,,,,,,,,,,,,,,,,,,,,,,,,,,,,,,,,,,,,,,,,,,,,,,,,,,,,,,,,,,,,,
,,67d00d29e336b9b83ccf9203,2026-03-17_16h09.27.209,kallum_motion_pilot_GIST_update_2,2026.1.1,Win32,60.24096386,67d00d29e336b9b83ccf9203,69b95efdef24cd8a694e89ee,69b9602f9a8e30c1d2d9c09d,0.0327,0.0327,0,31,31,148,1,sevenfive,,,,,,,,,,,,,,,,,,,,,,,,,,,,,,,,,,,,,,,,,,,,,,,,,,,,,,,,,,,,,,,,,,,,,,,,,,,,,,,,,,,,,,,,,,,,,,,,,,,,,,,,,,,,,,,,,,,,,,,,,,,,,,,,,,,,,,,,,
,,67d00d29e336b9b83ccf9203,2026-03-17_16h09.27.209,kallum_motion_pilot_GIST_update_2,2026.1.1,Win32,60.24096386,67d00d29e336b9b83ccf9203,69b95efdef24cd8a694e89ee,69b9602f9a8e30c1d2d9c09d,0.0329,0.0329,0,32,32,82,1,sixfive,,,,,,,,,,,,,,,,,,,,,,,,,,,,,,,,,,,,,,,,,,,,,,,,,,,,,,,,,,,,,,,,,,,,,,,,,,,,,,,,,,,,,,,,,,,,,,,,,,,,,,,,,,,,,,,,,,,,,,,,,,,,,,,,,,,,,,,,,
,,67d00d29e336b9b83ccf9203,2026-03-17_16h09.27.209,kallum_motion_pilot_GIST_update_2,2026.1.1,Win32,60.24096386,67d00d29e336b9b83ccf9203,69b95efdef24cd8a694e89ee,69b9602f9a8e30c1d2d9c09d,0.0331,0.0331,0,33,33,0,1,onetwo,,,,,,,,,,,,,,,,,,,,,,,,,,,,,,,,,,,,,,,,,,,,,,,,,,,,,,,,,,,,,,,,,,,,,,,,,,,,,,,,,,,,,,,,,,,,,,,,,,,,,,,,,,,,,,,,,,,,,,,,,,,,,,,,,,,,,,,,,
,,67d00d29e336b9b83ccf9203,2026-03-17_16h09.27.209,kallum_motion_pilot_GIST_update_2,2026.1.1,Win32,60.24096386,67d00d29e336b9b83ccf9203,69b95efdef24cd8a694e89ee,69b9602f9a8e30c1d2d9c09d,0.0333,0.0333,0,34,34,60,1,threeone,,,,,,,,,,,,,,,,,,,,,,,,,,,,,,,,,,,,,,,,,,,,,,,,,,,,,,,,,,,,,,,,,,,,,,,,,,,,,,,,,,,,,,,,,,,,,,,,,,,,,,,,,,,,,,,,,,,,,,,,,,,,,,,,,,,,,,,,,
,,67d00d29e336b9b83ccf9203,2026-03-17_16h09.27.209,kallum_motion_pilot_GIST_update_2,2026.1.1,Win32,60.24096386,67d00d29e336b9b83ccf9203,69b95efdef24cd8a694e89ee,69b9602f9a8e30c1d2d9c09d,0.0335,0.0335,0,35,35,56,1,onetwo,,,,,,,,,,,,,,,,,,,,,,,,,,,,,,,,,,,,,,,,,,,,,,,,,,,,,,,,,,,,,,,,,,,,,,,,,,,,,,,,,,,,,,,,,,,,,,,,,,,,,,,,,,,,,,,,,,,,,,,,,,,,,,,,,,,,,,,,,
,,67d00d29e336b9b83ccf9203,2026-03-17_16h09.27.209,kallum_motion_pilot_GIST_update_2,2026.1.1,Win32,60.24096386,67d00d29e336b9b83ccf9203,69b95efdef24cd8a694e89ee,69b9602f9a8e30c1d2d9c09d,0.0337,0.0337,0,36,36,112,1,fivesix,,,,,,,,,,,,,,,,,,,,,,,,,,,,,,,,,,,,,,,,,,,,,,,,,,,,,,,,,,,,,,,,,,,,,,,,,,,,,,,,,,,,,,,,,,,,,,,,,,,,,,,,,,,,,,,,,,,,,,,,,,,,,,,,,,,,,,,,,
,,67d00d29e336b9b83ccf9203,2026-03-17_16h09.27.209,kallum_motion_pilot_GIST_update_2,2026.1.1,Win32,60.24096386,67d00d29e336b9b83ccf9203,69b95efdef24cd8a694e89ee,69b9602f9a8e30c1d2d9c09d,0.0339,0.0339,0,37,37,30,1,fourtwo,,,,,,,,,,,,,,,,,,,,,,,,,,,,,,,,,,,,,,,,,,,,,,,,,,,,,,,,,,,,,,,,,,,,,,,,,,,,,,,,,,,,,,,,,,,,,,,,,,,,,,,,,,,,,,,,,,,,,,,,,,,,,,,,,,,,,,,,,
,,67d00d29e336b9b83ccf9203,2026-03-17_16h09.27.209,kallum_motion_pilot_GIST_update_2,2026.1.1,Win32,60.24096386,67d00d29e336b9b83ccf9203,69b95efdef24cd8a694e89ee,69b9602f9a8e30c1d2d9c09d,0.0341,0.0341,0,38,38,132,1,sevenfive,,,,,,,,,,,,,,,,,,,,,,,,,,,,,,,,,,,,,,,,,,,,,,,,,,,,,,,,,,,,,,,,,,,,,,,,,,,,,,,,,,,,,,,,,,,,,,,,,,,,,,,,,,,,,,,,,,,,,,,,,,,,,,,,,,,,,,,,,
,,67d00d29e336b9b83ccf9203,2026-03-17_16h09.27.209,kallum_motion_pilot_GIST_update_2,2026.1.1,Win32,60.24096386,67d00d29e336b9b83ccf9203,69b95efdef24cd8a694e89ee,69b9602f9a8e30c1d2d9c09d,0.0342,0.0342,0,39,39,72,1,onetwo,,,,,,,,,,,,,,,,,,,,,,,,,,,,,,,,,,,,,,,,,,,,,,,,,,,,,,,,,,,,,,,,,,,,,,,,,,,,,,,,,,,,,,,,,,,,,,,,,,,,,,,,,,,,,,,,,,,,,,,,,,,,,,,,,,,,,,,,,
,,67d00d29e336b9b83ccf9203,2026-03-17_16h09.27.209,kallum_motion_pilot_GIST_update_2,2026.1.1,Win32,60.24096386,67d00d29e336b9b83ccf9203,69b95efdef24cd8a694e89ee,69b9602f9a8e30c1d2d9c09d,0.0344,0.0344,0,40,40,9,1,onethree,,,,,,,,,,,,,,,,,,,,,,,,,,,,,,,,,,,,,,,,,,,,,,,,,,,,,,,,,,,,,,,,,,,,,,,,,,,,,,,,,,,,,,,,,,,,,,,,,,,,,,,,,,,,,,,,,,,,,,,,,,,,,,,,,,,,,,,,,
,,67d00d29e336b9b83ccf9203,2026-03-17_16h09.27.209,kallum_motion_pilot_GIST_update_2,2026.1.1,Win32,60.24096386,67d00d29e336b9b83ccf9203,69b95efdef24cd8a694e89ee,69b9602f9a8e30c1d2d9c09d,0.0346,0.0346,0,41,41,83,1,sixeight,,,,,,,,,,,,,,,,,,,,,,,,,,,,,,,,,,,,,,,,,,,,,,,,,,,,,,,,,,,,,,,,,,,,,,,,,,,,,,,,,,,,,,,,,,,,,,,,,,,,,,,,,,,,,,,,,,,,,,,,,,,,,,,,,,,,,,,,,
,,67d00d29e336b9b83ccf9203,2026-03-17_16h09.27.209,kallum_motion_pilot_GIST_update_2,2026.1.1,Win32,60.24096386,67d00d29e336b9b83ccf9203,69b95efdef24cd8a694e89ee,69b9602f9a8e30c1d2d9c09d,0.0348,0.0349,0,42,42,80,1,fivesix,,,,,,,,,,,,,,,,,,,,,,,,,,,,,,,,,,,,,,,,,,,,,,,,,,,,,,,,,,,,,,,,,,,,,,,,,,,,,,,,,,,,,,,,,,,,,,,,,,,,,,,,,,,,,,,,,,,,,,,,,,,,,,,,,,,,,,,,,
,,67d00d29e336b9b83ccf9203,2026-03-17_16h09.27.209,kallum_motion_pilot_GIST_update_2,2026.1.1,Win32,60.24096386,67d00d29e336b9b83ccf9203,69b95efdef24cd8a694e89ee,69b9602f9a8e30c1d2d9c09d,0.035,0.035,0,43,43,153,1,fiveseven,,,,,,,,,,,,,,,,,,,,,,,,,,,,,,,,,,,,,,,,,,,,,,,,,,,,,,,,,,,,,,,,,,,,,,,,,,,,,,,,,,,,,,,,,,,,,,,,,,,,,,,,,,,,,,,,,,,,,,,,,,,,,,,,,,,,,,,,,
,,67d00d29e336b9b83ccf9203,2026-03-17_16h09.27.209,kallum_motion_pilot_GIST_update_2,2026.1.1,Win32,60.24096386,67d00d29e336b9b83ccf9203,69b95efdef24cd8a694e89ee,69b9602f9a8e30c1d2d9c09d,0.0352,0.0352,0,44,44,159,1,eightseven,,,,,,,,,,,,,,,,,,,,,,,,,,,,,,,,,,,,,,,,,,,,,,,,,,,,,,,,,,,,,,,,,,,,,,,,,,,,,,,,,,,,,,,,,,,,,,,,,,,,,,,,,,,,,,,,,,,,,,,,,,,,,,,,,,,,,,,,,
,,67d00d29e336b9b83ccf9203,2026-03-17_16h09.27.209,kallum_motion_pilot_GIST_update_2,2026.1.1,Win32,60.24096386,67d00d29e336b9b83ccf9203,69b95efdef24cd8a694e89ee,69b9602f9a8e30c1d2d9c09d,0.0354,0.0354,0,45,45,25,1,onethree,,,,,,,,,,,,,,,,,,,,,,,,,,,,,,,,,,,,,,,,,,,,,,,,,,,,,,,,,,,,,,,,,,,,,,,,,,,,,,,,,,,,,,,,,,,,,,,,,,,,,,,,,,,,,,,,,,,,,,,,,,,,,,,,,,,,,,,,,
,,67d00d29e336b9b83ccf9203,2026-03-17_16h09.27.209,kallum_motion_pilot_GIST_update_2,2026.1.1,Win32,60.24096386,67d00d29e336b9b83ccf9203,69b95efdef24cd8a694e89ee,69b9602f9a8e30c1d2d9c09d,0.0357,0.0357,0,46,46,63,1,fourthree,,,,,,,,,,,,,,,,,,,,,,,,,,,,,,,,,,,,,,,,,,,,,,,,,,,,,,,,,,,,,,,,,,,,,,,,,,,,,,,,,,,,,,,,,,,,,,,,,,,,,,,,,,,,,,,,,,,,,,,,,,,,,,,,,,,,,,,,,
,,67d00d29e336b9b83ccf9203,2026-03-17_16h09.27.209,kallum_motion_pilot_GIST_update_2,2026.1.1,Win32,60.24096386,67d00d29e336b9b83ccf9203,69b95efdef24cd8a694e89ee,69b9602f9a8e30c1d2d9c09d,0.036,0.036,0,47,47,91,1,sixeight,,,,,,,,,,,,,,,,,,,,,,,,,,,,,,,,,,,,,,,,,,,,,,,,,,,,,,,,,,,,,,,,,,,,,,,,,,,,,,,,,,,,,,,,,,,,,,,,,,,,,,,,,,,,,,,,,,,,,,,,,,,,,,,,,,,,,,,,,
,,67d00d29e336b9b83ccf9203,2026-03-17_16h09.27.209,kallum_motion_pilot_GIST_update_2,2026.1.1,Win32,60.24096386,67d00d29e336b9b83ccf9203,69b95efdef24cd8a694e89ee,69b9602f9a8e30c1d2d9c09d,0.0362,0.0362,0,48,48,8,1,onetwo,,,,,,,,,,,,,,,,,,,,,,,,,,,,,,,,,,,,,,,,,,,,,,,,,,,,,,,,,,,,,,,,,,,,,,,,,,,,,,,,,,,,,,,,,,,,,,,,,,,,,,,,,,,,,,,,,,,,,,,,,,,,,,,,,,,,,,,,,
,,67d00d29e336b9b83ccf9203,2026-03-17_16h09.27.209,kallum_motion_pilot_GIST_update_2,2026.1.1,Win32,60.24096386,67d00d29e336b9b83ccf9203,69b95efdef24cd8a694e89ee,69b9602f9a8e30c1d2d9c09d,0.0366,0.0366,0,49,49,141,1,seveneight,,,,,,,,,,,,,,,,,,,,,,,,,,,,,,,,,,,,,,,,,,,,,,,,,,,,,,,,,,,,,,,,,,,,,,,,,,,,,,,,,,,,,,,,,,,,,,,,,,,,,,,,,,,,,,,,,,,,,,,,,,,,,,,,,,,,,,,,,
,,67d00d29e336b9b83ccf9203,2026-03-17_16h09.27.209,kallum_motion_pilot_GIST_update_2,2026.1.1,Win32,60.24096386,67d00d29e336b9b83ccf9203,69b95efdef24cd8a694e89ee,69b9602f9a8e30c1d2d9c09d,0.0368,0.0369,0,50,50,68,1,threeone,,,,,,,,,,,,,,,,,,,,,,,,,,,,,,,,,,,,,,,,,,,,,,,,,,,,,,,,,,,,,,,,,,,,,,,,,,,,,,,,,,,,,,,,,,,,,,,,,,,,,,,,,,,,,,,,,,,,,,,,,,,,,,,,,,,,,,,,,
,,67d00d29e336b9b83ccf9203,2026-03-17_16h09.27.209,kallum_motion_pilot_GIST_update_2,2026.1.1,Win32,60.24096386,67d00d29e336b9b83ccf9203,69b95efdef24cd8a694e89ee,69b9602f9a8e30c1d2d9c09d,0.037,0.037,0,51,51,38,1,fourtwo,,,,,,,,,,,,,,,,,,,,,,,,,,,,,,,,,,,,,,,,,,,,,,,,,,,,,,,,,,,,,,,,,,,,,,,,,,,,,,,,,,,,,,,,,,,,,,,,,,,,,,,,,,,,,,,,,,,,,,,,,,,,,,,,,,,,,,,,,
,,67d00d29e336b9b83ccf9203,2026-03-17_16h09.27.209,kallum_motion_pilot_GIST_update_2,2026.1.1,Win32,60.24096386,67d00d29e336b9b83ccf9203,69b95efdef24cd8a694e89ee,69b9602f9a8e30c1d2d9c09d,0.0372,0.0372,0,52,52,134,1,eightsix,,,,,,,,,,,,,,,,,,,,,,,,,,,,,,,,,,,,,,,,,,,,,,,,,,,,,,,,,,,,,,,,,,,,,,,,,,,,,,,,,,,,,,,,,,,,,,,,,,,,,,,,,,,,,,,,,,,,,,,,,,,,,,,,,,,,,,,,,
,,67d00d29e336b9b83ccf9203,2026-03-17_16h09.27.209,kallum_motion_pilot_GIST_update_2,2026.1.1,Win32,60.24096386,67d00d29e336b9b83ccf9203,69b95efdef24cd8a694e89ee,69b9602f9a8e30c1d2d9c09d,0.0373,0.0373,0,53,53,69,1,threefour,,,,,,,,,,,,,,,,,,,,,,,,,,,,,,,,,,,,,,,,,,,,,,,,,,,,,,,,,,,,,,,,,,,,,,,,,,,,,,,,,,,,,,,,,,,,,,,,,,,,,,,,,,,,,,,,,,,,,,,,,,,,,,,,,,,,,,,,,
,,67d00d29e336b9b83ccf9203,2026-03-17_16h09.27.209,kallum_motion_pilot_GIST_update_2,2026.1.1,Win32,60.24096386,67d00d29e336b9b83ccf9203,69b95efdef24cd8a694e89ee,69b9602f9a8e30c1d2d9c09d,0.0375,0.0375,0,54,54,107,1,sixeight,,,,,,,,,,,,,,,,,,,,,,,,,,,,,,,,,,,,,,,,,,,,,,,,,,,,,,,,,,,,,,,,,,,,,,,,,,,,,,,,,,,,,,,,,,,,,,,,,,,,,,,,,,,,,,,,,,,,,,,,,,,,,,,,,,,,,,,,,
,,67d00d29e336b9b83ccf9203,2026-03-17_16h09.27.209,kallum_motion_pilot_GIST_update_2,2026.1.1,Win32,60.24096386,67d00d29e336b9b83ccf9203,69b95efdef24cd8a694e89ee,69b9602f9a8e30c1d2d9c09d,0.0377,0.0378,0,55,55,98,1,sixfive,,,,,,,,,,,,,,,,,,,,,,,,,,,,,,,,,,,,,,,,,,,,,,,,,,,,,,,,,,,,,,,,,,,,,,,,,,,,,,,,,,,,,,,,,,,,,,,,,,,,,,,,,,,,,,,,,,,,,,,,,,,,,,,,,,,,,,,,,
,,67d00d29e336b9b83ccf9203,2026-03-17_16h09.27.209,kallum_motion_pilot_GIST_update_2,2026.1.1,Win32,60.24096386,67d00d29e336b9b83ccf9203,69b95efdef24cd8a694e89ee,69b9602f9a8e30c1d2d9c09d,0.0379,0.0379,0,56,56,19,1,twofour,,,,,,,,,,,,,,,,,,,,,,,,,,,,,,,,,,,,,,,,,,,,,,,,,,,,,,,,,,,,,,,,,,,,,,,,,,,,,,,,,,,,,,,,,,,,,,,,,,,,,,,,,,,,,,,,,,,,,,,,,,,,,,,,,,,,,,,,,
,,67d00d29e336b9b83ccf9203,2026-03-17_16h09.27.209,kallum_motion_pilot_GIST_update_2,2026.1.1,Win32,60.24096386,67d00d29e336b9b83ccf9203,69b95efdef24cd8a694e89ee,69b9602f9a8e30c1d2d9c09d,0.0383,0.0383,0,57,57,92,1,sevenfive,,,,,,,,,,,,,,,,,,,,,,,,,,,,,,,,,,,,,,,,,,,,,,,,,,,,,,,,,,,,,,,,,,,,,,,,,,,,,,,,,,,,,,,,,,,,,,,,,,,,,,,,,,,,,,,,,,,,,,,,,,,,,,,,,,,,,,,,,
,,67d00d29e336b9b83ccf9203,2026-03-17_16h09.27.209,kallum_motion_pilot_GIST_update_2,2026.1.1,Win32,60.24096386,67d00d29e336b9b83ccf9203,69b95efdef24cd8a694e89ee,69b9602f9a8e30c1d2d9c09d,0.0385,0.0385,0,58,58,10,1,twoone,,,,,,,,,,,,,,,,,,,,,,,,,,,,,,,,,,,,,,,,,,,,,,,,,,,,,,,,,,,,,,,,,,,,,,,,,,,,,,,,,,,,,,,,,,,,,,,,,,,,,,,,,,,,,,,,,,,,,,,,,,,,,,,,,,,,,,,,,
,,67d00d29e336b9b83ccf9203,2026-03-17_16h09.27.209,kallum_motion_pilot_GIST_update_2,2026.1.1,Win32,60.24096386,67d00d29e336b9b83ccf9203,69b95efdef24cd8a694e89ee,69b9602f9a8e30c1d2d9c09d,0.0387,0.0387,0,59,59,156,1,sevenfive,,,,,,,,,,,,,,,,,,,,,,,,,,,,,,,,,,,,,,,,,,,,,,,,,,,,,,,,,,,,,,,,,,,,,,,,,,,,,,,,,,,,,,,,,,,,,,,,,,,,,,,,,,,,,,,,,,,,,,,,,,,,,,,,,,,,,,,,,
,,67d00d29e336b9b83ccf9203,2026-03-17_16h09.27.209,kallum_motion_pilot_GIST_update_2,2026.1.1,Win32,60.24096386,67d00d29e336b9b83ccf9203,69b95efdef24cd8a694e89ee,69b9602f9a8e30c1d2d9c09d,0.0389,0.039,0,60,60,84,1,sevenfive,,,,,,,,,,,,,,,,,,,,,,,,,,,,,,,,,,,,,,,,,,,,,,,,,,,,,,,,,,,,,,,,,,,,,,,,,,,,,,,,,,,,,,,,,,,,,,,,,,,,,,,,,,,,,,,,,,,,,,,,,,,,,,,,,,,,,,,,,
,,67d00d29e336b9b83ccf9203,2026-03-17_16h09.27.209,kallum_motion_pilot_GIST_update_2,2026.1.1,Win32,60.24096386,67d00d29e336b9b83ccf9203,69b95efdef24cd8a694e89ee,69b9602f9a8e30c1d2d9c09d,0.0392,0.0392,0,61,61,17,1,onethree,,,,,,,,,,,,,,,,,,,,,,,,,,,,,,,,,,,,,,,,,,,,,,,,,,,,,,,,,,,,,,,,,,,,,,,,,,,,,,,,,,,,,,,,,,,,,,,,,,,,,,,,,,,,,,,,,,,,,,,,,,,,,,,,,,,,,,,,,
,,67d00d29e336b9b83ccf9203,2026-03-17_16h09.27.209,kallum_motion_pilot_GIST_update_2,2026.1.1,Win32,60.24096386,67d00d29e336b9b83ccf9203,69b95efdef24cd8a694e89ee,69b9602f9a8e30c1d2d9c09d,0.0394,0.0394,0,62,62,71,1,fourthree,,,,,,,,,,,,,,,,,,,,,,,,,,,,,,,,,,,,,,,,,,,,,,,,,,,,,,,,,,,,,,,,,,,,,,,,,,,,,,,,,,,,,,,,,,,,,,,,,,,,,,,,,,,,,,,,,,,,,,,,,,,,,,,,,,,,,,,,,
,,67d00d29e336b9b83ccf9203,2026-03-17_16h09.27.209,kallum_motion_pilot_GIST_update_2,2026.1.1,Win32,60.24096386,67d00d29e336b9b83ccf9203,69b95efdef24cd8a694e89ee,69b9602f9a8e30c1d2d9c09d,0.0396,0.0396,0,63,63,87,1,eightseven,,,,,,,,,,,,,,,,,,,,,,,,,,,,,,,,,,,,,,,,,,,,,,,,,,,,,,,,,,,,,,,,,,,,,,,,,,,,,,,,,,,,,,,,,,,,,,,,,,,,,,,,,,,,,,,,,,,,,,,,,,,,,,,,,,,,,,,,,
,,67d00d29e336b9b83ccf9203,2026-03-17_16h09.27.209,kallum_motion_pilot_GIST_update_2,2026.1.1,Win32,60.24096386,67d00d29e336b9b83ccf9203,69b95efdef24cd8a694e89ee,69b9602f9a8e30c1d2d9c09d,0.0398,0.0398,0,64,64,109,1,seveneight,,,,,,,,,,,,,,,,,,,,,,,,,,,,,,,,,,,,,,,,,,,,,,,,,,,,,,,,,,,,,,,,,,,,,,,,,,,,,,,,,,,,,,,,,,,,,,,,,,,,,,,,,,,,,,,,,,,,,,,,,,,,,,,,,,,,,,,,,
,,67d00d29e336b9b83ccf9203,2026-03-17_16h09.27.209,kallum_motion_pilot_GIST_update_2,2026.1.1,Win32,60.24096386,67d00d29e336b9b83ccf9203,69b95efdef24cd8a694e89ee,69b9602f9a8e30c1d2d9c09d,0.0401,0.0401,0,65,65,22,1,fourtwo,,,,,,,,,,,,,,,,,,,,,,,,,,,,,,,,,,,,,,,,,,,,,,,,,,,,,,,,,,,,,,,,,,,,,,,,,,,,,,,,,,,,,,,,,,,,,,,,,,,,,,,,,,,,,,,,,,,,,,,,,,,,,,,,,,,,,,,,,
,,67d00d29e336b9b83ccf9203,2026-03-17_16h09.27.209,kallum_motion_pilot_GIST_update_2,2026.1.1,Win32,60.24096386,67d00d29e336b9b83ccf9203,69b95efdef24cd8a694e89ee,69b9602f9a8e30c1d2d9c09d,0.0403,0.0404,0,66,66,96,1,fivesix,,,,,,,,,,,,,,,,,,,,,,,,,,,,,,,,,,,,,,,,,,,,,,,,,,,,,,,,,,,,,,,,,,,,,,,,,,,,,,,,,,,,,,,,,,,,,,,,,,,,,,,,,,,,,,,,,,,,,,,,,,,,,,,,,,,,,,,,,
,,67d00d29e336b9b83ccf9203,2026-03-17_16h09.27.209,kallum_motion_pilot_GIST_update_2,2026.1.1,Win32,60.24096386,67d00d29e336b9b83ccf9203,69b95efdef24cd8a694e89ee,69b9602f9a8e30c1d2d9c09d,0.0406,0.0406,0,67,67,13,1,threefour,,,,,,,,,,,,,,,,,,,,,,,,,,,,,,,,,,,,,,,,,,,,,,,,,,,,,,,,,,,,,,,,,,,,,,,,,,,,,,,,,,,,,,,,,,,,,,,,,,,,,,,,,,,,,,,,,,,,,,,,,,,,,,,,,,,,,,,,,
,,67d00d29e336b9b83ccf9203,2026-03-17_16h09.27.209,kallum_motion_pilot_GIST_update_2,2026.1.1,Win32,60.24096386,67d00d29e336b9b83ccf9203,69b95efdef24cd8a694e89ee,69b9602f9a8e30c1d2d9c09d,0.0408,0.0408,0,68,68,36,1,threeone,,,,,,,,,,,,,,,,,,,,,,,,,,,,,,,,,,,,,,,,,,,,,,,,,,,,,,,,,,,,,,,,,,,,,,,,,,,,,,,,,,,,,,,,,,,,,,,,,,,,,,,,,,,,,,,,,,,,,,,,,,,,,,,,,,,,,,,,,
,,67d00d29e336b9b83ccf9203,2026-03-17_16h09.27.209,kallum_motion_pilot_GIST_update_2,2026.1.1,Win32,60.24096386,67d00d29e336b9b83ccf9203,69b95efdef24cd8a694e89ee,69b9602f9a8e30c1d2d9c09d,0.041,0.041,0,69,69,65,1,onethree,,,,,,,,,,,,,,,,,,,,,,,,,,,,,,,,,,,,,,,,,,,,,,,,,,,,,,,,,,,,,,,,,,,,,,,,,,,,,,,,,,,,,,,,,,,,,,,,,,,,,,,,,,,,,,,,,,,,,,,,,,,,,,,,,,,,,,,,,
,,67d00d29e336b9b83ccf9203,2026-03-17_16h09.27.209,kallum_motion_pilot_GIST_update_2,2026.1.1,Win32,60.24096386,67d00d29e336b9b83ccf9203,69b95efdef24cd8a694e89ee,69b9602f9a8e30c1d2d9c09d,0.0412,0.0412,0,70,70,119,1,eightseven,,,,,,,,,,,,,,,,,,,,,,,,,,,,,,,,,,,,,,,,,,,,,,,,,,,,,,,,,,,,,,,,,,,,,,,,,,,,,,,,,,,,,,,,,,,,,,,,,,,,,,,,,,,,,,,,,,,,,,,,,,,,,,,,,,,,,,,,,
,,67d00d29e336b9b83ccf9203,2026-03-17_16h09.27.209,kallum_motion_pilot_GIST_update_2,2026.1.1,Win32,60.24096386,67d00d29e336b9b83ccf9203,69b95efdef24cd8a694e89ee,69b9602f9a8e30c1d2d9c09d,0.0414,0.0414,0,71,71,5,1,threefour,,,,,,,,,,,,,,,,,,,,,,,,,,,,,,,,,,,,,,,,,,,,,,,,,,,,,,,,,,,,,,,,,,,,,,,,,,,,,,,,,,,,,,,,,,,,,,,,,,,,,,,,,,,,,,,,,,,,,,,,,,,,,,,,,,,,,,,,,
,,67d00d29e336b9b83ccf9203,2026-03-17_16h09.27.209,kallum_motion_pilot_GIST_update_2,2026.1.1,Win32,60.24096386,67d00d29e336b9b83ccf9203,69b95efdef24cd8a694e89ee,69b9602f9a8e30c1d2d9c09d,0.0416,0.0416,0,72,72,45,1,threefour,,,,,,,,,,,,,,,,,,,,,,,,,,,,,,,,,,,,,,,,,,,,,,,,,,,,,,,,,,,,,,,,,,,,,,,,,,,,,,,,,,,,,,,,,,,,,,,,,,,,,,,,,,,,,,,,,,,,,,,,,,,,,,,,,,,,,,,,,
,,67d00d29e336b9b83ccf9203,2026-03-17_16h09.27.209,kallum_motion_pilot_GIST_update_2,2026.1.1,Win32,60.24096386,67d00d29e336b9b83ccf9203,69b95efdef24cd8a694e89ee,69b9602f9a8e30c1d2d9c09d,0.0417,0.0417,0,73,73,149,1,seveneight,,,,,,,,,,,,,,,,,,,,,,,,,,,,,,,,,,,,,,,,,,,,,,,,,,,,,,,,,,,,,,,,,,,,,,,,,,,,,,,,,,,,,,,,,,,,,,,,,,,,,,,,,,,,,,,,,,,,,,,,,,,,,,,,,,,,,,,,,
,,67d00d29e336b9b83ccf9203,2026-03-17_16h09.27.209,kallum_motion_pilot_GIST_update_2,2026.1.1,Win32,60.24096386,67d00d29e336b9b83ccf9203,69b95efdef24cd8a694e89ee,69b9602f9a8e30c1d2d9c09d,0.0419,0.0419,0,74,74,85,1,seveneight,,,,,,,,,,,,,,,,,,,,,,,,,,,,,,,,,,,,,,,,,,,,,,,,,,,,,,,,,,,,,,,,,,,,,,,,,,,,,,,,,,,,,,,,,,,,,,,,,,,,,,,,,,,,,,,,,,,,,,,,,,,,,,,,,,,,,,,,,
,,67d00d29e336b9b83ccf9203,2026-03-17_16h09.27.209,kallum_motion_pilot_GIST_update_2,2026.1.1,Win32,60.24096386,67d00d29e336b9b83ccf9203,69b95efdef24cd8a694e89ee,69b9602f9a8e30c1d2d9c09d,0.0421,0.0421,0,75,75,144,1,fivesix,,,,,,,,,,,,,,,,,,,,,,,,,,,,,,,,,,,,,,,,,,,,,,,,,,,,,,,,,,,,,,,,,,,,,,,,,,,,,,,,,,,,,,,,,,,,,,,,,,,,,,,,,,,,,,,,,,,,,,,,,,,,,,,,,,,,,,,,,
,,67d00d29e336b9b83ccf9203,2026-03-17_16h09.27.209,kallum_motion_pilot_GIST_update_2,2026.1.1,Win32,60.24096386,67d00d29e336b9b83ccf9203,69b95efdef24cd8a694e89ee,69b9602f9a8e30c1d2d9c09d,0.0423,0.0423,0,76,76,18,1,twoone,,,,,,,,,,,,,,,,,,,,,,,,,,,,,,,,,,,,,,,,,,,,,,,,,,,,,,,,,,,,,,,,,,,,,,,,,,,,,,,,,,,,,,,,,,,,,,,,,,,,,,,,,,,,,,,,,,,,,,,,,,,,,,,,,,,,,,,,,
,,67d00d29e336b9b83ccf9203,2026-03-17_16h09.27.209,kallum_motion_pilot_GIST_update_2,2026.1.1,Win32,60.24096386,67d00d29e336b9b83ccf9203,69b95efdef24cd8a694e89ee,69b9602f9a8e30c1d2d9c09d,0.0425,0.0425,0,77,77,123,1,sixeight,,,,,,,,,,,,,,,,,,,,,,,,,,,,,,,,,,,,,,,,,,,,,,,,,,,,,,,,,,,,,,,,,,,,,,,,,,,,,,,,,,,,,,,,,,,,,,,,,,,,,,,,,,,,,,,,,,,,,,,,,,,,,,,,,,,,,,,,,
,,67d00d29e336b9b83ccf9203,2026-03-17_16h09.27.209,kallum_motion_pilot_GIST_update_2,2026.1.1,Win32,60.24096386,67d00d29e336b9b83ccf9203,69b95efdef24cd8a694e89ee,69b9602f9a8e30c1d2d9c09d,0.0428,0.0428,0,78,78,24,1,onetwo,,,,,,,,,,,,,,,,,,,,,,,,,,,,,,,,,,,,,,,,,,,,,,,,,,,,,,,,,,,,,,,,,,,,,,,,,,,,,,,,,,,,,,,,,,,,,,,,,,,,,,,,,,,,,,,,,,,,,,,,,,,,,,,,,,,,,,,,,
,,67d00d29e336b9b83ccf9203,2026-03-17_16h09.27.209,kallum_motion_pilot_GIST_update_2,2026.1.1,Win32,60.24096386,67d00d29e336b9b83ccf9203,69b95efdef24cd8a694e89ee,69b9602f9a8e30c1d2d9c09d,0.0429,0.0429,0,79,79,2,1,twoone,,,,,,,,,,,,,,,,,,,,,,,,,,,,,,,,,,,,,,,,,,,,,,,,,,,,,,,,,,,,,,,,,,,,,,,,,,,,,,,,,,,,,,,,,,,,,,,,,,,,,,,,,,,,,,,,,,,,,,,,,,,,,,,,,,,,,,,,,
,,67d00d29e336b9b83ccf9203,2026-03-17_16h09.27.209,kallum_motion_pilot_GIST_update_2,2026.1.1,Win32,60.24096386,67d00d29e336b9b83ccf9203,69b95efdef24cd8a694e89ee,69b9602f9a8e30c1d2d9c09d,0.0432,0.0432,0,80,80,3,1,twofour,,,,,,,,,,,,,,,,,,,,,,,,,,,,,,,,,,,,,,,,,,,,,,,,,,,,,,,,,,,,,,,,,,,,,,,,,,,,,,,,,,,,,,,,,,,,,,,,,,,,,,,,,,,,,,,,,,,,,,,,,,,,,,,,,,,,,,,,,
,,67d00d29e336b9b83ccf9203,2026-03-17_16h09.27.209,kallum_motion_pilot_GIST_update_2,2026.1.1,Win32,60.24096386,67d00d29e336b9b83ccf9203,69b95efdef24cd8a694e89ee,69b9602f9a8e30c1d2d9c09d,0.0435,0.0435,0,81,81,129,1,fiveseven,,,,,,,,,,,,,,,,,,,,,,,,,,,,,,,,,,,,,,,,,,,,,,,,,,,,,,,,,,,,,,,,,,,,,,,,,,,,,,,,,,,,,,,,,,,,,,,,,,,,,,,,,,,,,,,,,,,,,,,,,,,,,,,,,,,,,,,,,
,,67d00d29e336b9b83ccf9203,2026-03-17_16h09.27.209,kallum_motion_pilot_GIST_update_2,2026.1.1,Win32,60.24096386,67d00d29e336b9b83ccf9203,69b95efdef24cd8a694e89ee,69b9602f9a8e30c1d2d9c09d,0.0438,0.0438,0,82,82,27,1,twofour,,,,,,,,,,,,,,,,,,,,,,,,,,,,,,,,,,,,,,,,,,,,,,,,,,,,,,,,,,,,,,,,,,,,,,,,,,,,,,,,,,,,,,,,,,,,,,,,,,,,,,,,,,,,,,,,,,,,,,,,,,,,,,,,,,,,,,,,,
,,67d00d29e336b9b83ccf9203,2026-03-17_16h09.27.209,kallum_motion_pilot_GIST_update_2,2026.1.1,Win32,60.24096386,67d00d29e336b9b83ccf9203,69b95efdef24cd8a694e89ee,69b9602f9a8e30c1d2d9c09d,0.0439,0.044,0,83,83,26,1,twoone,,,,,,,,,,,,,,,,,,,,,,,,,,,,,,,,,,,,,,,,,,,,,,,,,,,,,,,,,,,,,,,,,,,,,,,,,,,,,,,,,,,,,,,,,,,,,,,,,,,,,,,,,,,,,,,,,,,,,,,,,,,,,,,,,,,,,,,,,
,,67d00d29e336b9b83ccf9203,2026-03-17_16h09.27.209,kallum_motion_pilot_GIST_update_2,2026.1.1,Win32,60.24096386,67d00d29e336b9b83ccf9203,69b95efdef24cd8a694e89ee,69b9602f9a8e30c1d2d9c09d,0.0441,0.0441,0,84,84,40,1,onetwo,,,,,,,,,,,,,,,,,,,,,,,,,,,,,,,,,,,,,,,,,,,,,,,,,,,,,,,,,,,,,,,,,,,,,,,,,,,,,,,,,,,,,,,,,,,,,,,,,,,,,,,,,,,,,,,,,,,,,,,,,,,,,,,,,,,,,,,,,
,,67d00d29e336b9b83ccf9203,2026-03-17_16h09.27.209,kallum_motion_pilot_GIST_update_2,2026.1.1,Win32,60.24096386,67d00d29e336b9b83ccf9203,69b95efdef24cd8a694e89ee,69b9602f9a8e30c1d2d9c09d,0.0444,0.0444,0,85,85,99,1,sixeight,,,,,,,,,,,,,,,,,,,,,,,,,,,,,,,,,,,,,,,,,,,,,,,,,,,,,,,,,,,,,,,,,,,,,,,,,,,,,,,,,,,,,,,,,,,,,,,,,,,,,,,,,,,,,,,,,,,,,,,,,,,,,,,,,,,,,,,,,
,,67d00d29e336b9b83ccf9203,2026-03-17_16h09.27.209,kallum_motion_pilot_GIST_update_2,2026.1.1,Win32,60.24096386,67d00d29e336b9b83ccf9203,69b95efdef24cd8a694e89ee,69b9602f9a8e30c1d2d9c09d,0.0445,0.0446,0,86,86,14,1,fourtwo,,,,,,,,,,,,,,,,,,,,,,,,,,,,,,,,,,,,,,,,,,,,,,,,,,,,,,,,,,,,,,,,,,,,,,,,,,,,,,,,,,,,,,,,,,,,,,,,,,,,,,,,,,,,,,,,,,,,,,,,,,,,,,,,,,,,,,,,,
,,67d00d29e336b9b83ccf9203,2026-03-17_16h09.27.209,kallum_motion_pilot_GIST_update_2,2026.1.1,Win32,60.24096386,67d00d29e336b9b83ccf9203,69b95efdef24cd8a694e89ee,69b9602f9a8e30c1d2d9c09d,0.0448,0.0448,0,87,87,42,1,twoone,,,,,,,,,,,,,,,,,,,,,,,,,,,,,,,,,,,,,,,,,,,,,,,,,,,,,,,,,,,,,,,,,,,,,,,,,,,,,,,,,,,,,,,,,,,,,,,,,,,,,,,,,,,,,,,,,,,,,,,,,,,,,,,,,,,,,,,,,
,,67d00d29e336b9b83ccf9203,2026-03-17_16h09.27.209,kallum_motion_pilot_GIST_update_2,2026.1.1,Win32,60.24096386,67d00d29e336b9b83ccf9203,69b95efdef24cd8a694e89ee,69b9602f9a8e30c1d2d9c09d,0.0449,0.0449,0,88,88,70,1,fourtwo,,,,,,,,,,,,,,,,,,,,,,,,,,,,,,,,,,,,,,,,,,,,,,,,,,,,,,,,,,,,,,,,,,,,,,,,,,,,,,,,,,,,,,,,,,,,,,,,,,,,,,,,,,,,,,,,,,,,,,,,,,,,,,,,,,,,,,,,,
,,67d00d29e336b9b83ccf9203,2026-03-17_16h09.27.209,kallum_motion_pilot_GIST_update_2,2026.1.1,Win32,60.24096386,67d00d29e336b9b83ccf9203,69b95efdef24cd8a694e89ee,69b9602f9a8e30c1d2d9c09d,0.0451,0.0451,0,89,89,46,1,fourtwo,,,,,,,,,,,,,,,,,,,,,,,,,,,,,,,,,,,,,,,,,,,,,,,,,,,,,,,,,,,,,,,,,,,,,,,,,,,,,,,,,,,,,,,,,,,,,,,,,,,,,,,,,,,,,,,,,,,,,,,,,,,,,,,,,,,,,,,,,
,,67d00d29e336b9b83ccf9203,2026-03-17_16h09.27.209,kallum_motion_pilot_GIST_update_2,2026.1.1,Win32,60.24096386,67d00d29e336b9b83ccf9203,69b95efdef24cd8a694e89ee,69b9602f9a8e30c1d2d9c09d,0.0454,0.0454,0,90,90,142,1,eightsix,,,,,,,,,,,,,,,,,,,,,,,,,,,,,,,,,,,,,,,,,,,,,,,,,,,,,,,,,,,,,,,,,,,,,,,,,,,,,,,,,,,,,,,,,,,,,,,,,,,,,,,,,,,,,,,,,,,,,,,,,,,,,,,,,,,,,,,,,
,,67d00d29e336b9b83ccf9203,2026-03-17_16h09.27.209,kallum_motion_pilot_GIST_update_2,2026.1.1,Win32,60.24096386,67d00d29e336b9b83ccf9203,69b95efdef24cd8a694e89ee,69b9602f9a8e30c1d2d9c09d,0.0466,0.0467,0,91,91,16,1,onetwo,,,,,,,,,,,,,,,,,,,,,,,,,,,,,,,,,,,,,,,,,,,,,,,,,,,,,,,,,,,,,,,,,,,,,,,,,,,,,,,,,,,,,,,,,,,,,,,,,,,,,,,,,,,,,,,,,,,,,,,,,,,,,,,,,,,,,,,,,
,,67d00d29e336b9b83ccf9203,2026-03-17_16h09.27.209,kallum_motion_pilot_GIST_update_2,2026.1.1,Win32,60.24096386,67d00d29e336b9b83ccf9203,69b95efdef24cd8a694e89ee,69b9602f9a8e30c1d2d9c09d,0.0469,0.0469,0,92,92,53,1,threefour,,,,,,,,,,,,,,,,,,,,,,,,,,,,,,,,,,,,,,,,,,,,,,,,,,,,,,,,,,,,,,,,,,,,,,,,,,,,,,,,,,,,,,,,,,,,,,,,,,,,,,,,,,,,,,,,,,,,,,,,,,,,,,,,,,,,,,,,,
,,67d00d29e336b9b83ccf9203,2026-03-17_16h09.27.209,kallum_motion_pilot_GIST_update_2,2026.1.1,Win32,60.24096386,67d00d29e336b9b83ccf9203,69b95efdef24cd8a694e89ee,69b9602f9a8e30c1d2d9c09d,0.0472,0.0472,0,93,93,145,1,fiveseven,,,,,,,,,,,,,,,,,,,,,,,,,,,,,,,,,,,,,,,,,,,,,,,,,,,,,,,,,,,,,,,,,,,,,,,,,,,,,,,,,,,,,,,,,,,,,,,,,,,,,,,,,,,,,,,,,,,,,,,,,,,,,,,,,,,,,,,,,
,,67d00d29e336b9b83ccf9203,2026-03-17_16h09.27.209,kallum_motion_pilot_GIST_update_2,2026.1.1,Win32,60.24096386,67d00d29e336b9b83ccf9203,69b95efdef24cd8a694e89ee,69b9602f9a8e30c1d2d9c09d,0.0474,0.0475,0,94,94,97,1,fiveseven,,,,,,,,,,,,,,,,,,,,,,,,,,,,,,,,,,,,,,,,,,,,,,,,,,,,,,,,,,,,,,,,,,,,,,,,,,,,,,,,,,,,,,,,,,,,,,,,,,,,,,,,,,,,,,,,,,,,,,,,,,,,,,,,,,,,,,,,,
,,67d00d29e336b9b83ccf9203,2026-03-17_16h09.27.209,kallum_motion_pilot_GIST_update_2,2026.1.1,Win32,60.24096386,67d00d29e336b9b83ccf9203,69b95efdef24cd8a694e89ee,69b9602f9a8e30c1d2d9c09d,0.0477,0.0477,0,95,95,117,1,seveneight,,,,,,,,,,,,,,,,,,,,,,,,,,,,,,,,,,,,,,,,,,,,,,,,,,,,,,,,,,,,,,,,,,,,,,,,,,,,,,,,,,,,,,,,,,,,,,,,,,,,,,,,,,,,,,,,,,,,,,,,,,,,,,,,,,,,,,,,,
,,67d00d29e336b9b83ccf9203,2026-03-17_16h09.27.209,kallum_motion_pilot_GIST_update_2,2026.1.1,Win32,60.24096386,67d00d29e336b9b83ccf9203,69b95efdef24cd8a694e89ee,69b9602f9a8e30c1d2d9c09d,0.0479,0.0479,0,96,96,124,1,sevenfive,,,,,,,,,,,,,,,,,,,,,,,,,,,,,,,,,,,,,,,,,,,,,,,,,,,,,,,,,,,,,,,,,,,,,,,,,,,,,,,,,,,,,,,,,,,,,,,,,,,,,,,,,,,,,,,,,,,,,,,,,,,,,,,,,,,,,,,,,
,,67d00d29e336b9b83ccf9203,2026-03-17_16h09.27.209,kallum_motion_pilot_GIST_update_2,2026.1.1,Win32,60.24096386,67d00d29e336b9b83ccf9203,69b95efdef24cd8a694e89ee,69b9602f9a8e30c1d2d9c09d,0.0481,0.0481,0,97,97,39,1,fourthree,,,,,,,,,,,,,,,,,,,,,,,,,,,,,,,,,,,,,,,,,,,,,,,,,,,,,,,,,,,,,,,,,,,,,,,,,,,,,,,,,,,,,,,,,,,,,,,,,,,,,,,,,,,,,,,,,,,,,,,,,,,,,,,,,,,,,,,,,
,,67d00d29e336b9b83ccf9203,2026-03-17_16h09.27.209,kallum_motion_pilot_GIST_update_2,2026.1.1,Win32,60.24096386,67d00d29e336b9b83ccf9203,69b95efdef24cd8a694e89ee,69b9602f9a8e30c1d2d9c09d,0.0483,0.0483,0,98,98,31,1,fourthree,,,,,,,,,,,,,,,,,,,,,,,,,,,,,,,,,,,,,,,,,,,,,,,,,,,,,,,,,,,,,,,,,,,,,,,,,,,,,,,,,,,,,,,,,,,,,,,,,,,,,,,,,,,,,,,,,,,,,,,,,,,,,,,,,,,,,,,,,
,,67d00d29e336b9b83ccf9203,2026-03-17_16h09.27.209,kallum_motion_pilot_GIST_update_2,2026.1.1,Win32,60.24096386,67d00d29e336b9b83ccf9203,69b95efdef24cd8a694e89ee,69b9602f9a8e30c1d2d9c09d,0.0485,0.0485,0,99,99,95,1,eightseven,,,,,,,,,,,,,,,,,,,,,,,,,,,,,,,,,,,,,,,,,,,,,,,,,,,,,,,,,,,,,,,,,,,,,,,,,,,,,,,,,,,,,,,,,,,,,,,,,,,,,,,,,,,,,,,,,,,,,,,,,,,,,,,,,,,,,,,,,
,,67d00d29e336b9b83ccf9203,2026-03-17_16h09.27.209,kallum_motion_pilot_GIST_update_2,2026.1.1,Win32,60.24096386,67d00d29e336b9b83ccf9203,69b95efdef24cd8a694e89ee,69b9602f9a8e30c1d2d9c09d,0.0486,0.0486,0,100,100,34,1,twoone,,,,,,,,,,,,,,,,,,,,,,,,,,,,,,,,,,,,,,,,,,,,,,,,,,,,,,,,,,,,,,,,,,,,,,,,,,,,,,,,,,,,,,,,,,,,,,,,,,,,,,,,,,,,,,,,,,,,,,,,,,,,,,,,,,,,,,,,,
,,67d00d29e336b9b83ccf9203,2026-03-17_16h09.27.209,kallum_motion_pilot_GIST_update_2,2026.1.1,Win32,60.24096386,67d00d29e336b9b83ccf9203,69b95efdef24cd8a694e89ee,69b9602f9a8e30c1d2d9c09d,0.0489,0.049,0,101,101,43,1,twofour,,,,,,,,,,,,,,,,,,,,,,,,,,,,,,,,,,,,,,,,,,,,,,,,,,,,,,,,,,,,,,,,,,,,,,,,,,,,,,,,,,,,,,,,,,,,,,,,,,,,,,,,,,,,,,,,,,,,,,,,,,,,,,,,,,,,,,,,,
,,67d00d29e336b9b83ccf9203,2026-03-17_16h09.27.209,kallum_motion_pilot_GIST_update_2,2026.1.1,Win32,60.24096386,67d00d29e336b9b83ccf9203,69b95efdef24cd8a694e89ee,69b9602f9a8e30c1d2d9c09d,0.0491,0.0491,0,102,102,125,1,seveneight,,,,,,,,,,,,,,,,,,,,,,,,,,,,,,,,,,,,,,,,,,,,,,,,,,,,,,,,,,,,,,,,,,,,,,,,,,,,,,,,,,,,,,,,,,,,,,,,,,,,,,,,,,,,,,,,,,,,,,,,,,,,,,,,,,,,,,,,,
,,67d00d29e336b9b83ccf9203,2026-03-17_16h09.27.209,kallum_motion_pilot_GIST_update_2,2026.1.1,Win32,60.24096386,67d00d29e336b9b83ccf9203,69b95efdef24cd8a694e89ee,69b9602f9a8e30c1d2d9c09d,0.0493,0.0493,0,103,103,58,1,twoone,,,,,,,,,,,,,,,,,,,,,,,,,,,,,,,,,,,,,,,,,,,,,,,,,,,,,,,,,,,,,,,,,,,,,,,,,,,,,,,,,,,,,,,,,,,,,,,,,,,,,,,,,,,,,,,,,,,,,,,,,,,,,,,,,,,,,,,,,
,,67d00d29e336b9b83ccf9203,2026-03-17_16h09.27.209,kallum_motion_pilot_GIST_update_2,2026.1.1,Win32,60.24096386,67d00d29e336b9b83ccf9203,69b95efdef24cd8a694e89ee,69b9602f9a8e30c1d2d9c09d,0.0495,0.0495,0,104,104,157,1,seveneight,,,,,,,,,,,,,,,,,,,,,,,,,,,,,,,,,,,,,,,,,,,,,,,,,,,,,,,,,,,,,,,,,,,,,,,,,,,,,,,,,,,,,,,,,,,,,,,,,,,,,,,,,,,,,,,,,,,,,,,,,,,,,,,,,,,,,,,,,
,,67d00d29e336b9b83ccf9203,2026-03-17_16h09.27.209,kallum_motion_pilot_GIST_update_2,2026.1.1,Win32,60.24096386,67d00d29e336b9b83ccf9203,69b95efdef24cd8a694e89ee,69b9602f9a8e30c1d2d9c09d,0.0498,0.0498,0,105,105,105,1,fiveseven,,,,,,,,,,,,,,,,,,,,,,,,,,,,,,,,,,,,,,,,,,,,,,,,,,,,,,,,,,,,,,,,,,,,,,,,,,,,,,,,,,,,,,,,,,,,,,,,,,,,,,,,,,,,,,,,,,,,,,,,,,,,,,,,,,,,,,,,,
,,67d00d29e336b9b83ccf9203,2026-03-17_16h09.27.209,kallum_motion_pilot_GIST_update_2,2026.1.1,Win32,60.24096386,67d00d29e336b9b83ccf9203,69b95efdef24cd8a694e89ee,69b9602f9a8e30c1d2d9c09d,0.05,0.05,0,106,106,120,1,fivesix,,,,,,,,,,,,,,,,,,,,,,,,,,,,,,,,,,,,,,,,,,,,,,,,,,,,,,,,,,,,,,,,,,,,,,,,,,,,,,,,,,,,,,,,,,,,,,,,,,,,,,,,,,,,,,,,,,,,,,,,,,,,,,,,,,,,,,,,,
,,67d00d29e336b9b83ccf9203,2026-03-17_16h09.27.209,kallum_motion_pilot_GIST_update_2,2026.1.1,Win32,60.24096386,67d00d29e336b9b83ccf9203,69b95efdef24cd8a694e89ee,69b9602f9a8e30c1d2d9c09d,0.0501,0.0501,0,107,107,79,1,eightseven,,,,,,,,,,,,,,,,,,,,,,,,,,,,,,,,,,,,,,,,,,,,,,,,,,,,,,,,,,,,,,,,,,,,,,,,,,,,,,,,,,,,,,,,,,,,,,,,,,,,,,,,,,,,,,,,,,,,,,,,,,,,,,,,,,,,,,,,,
,,67d00d29e336b9b83ccf9203,2026-03-17_16h09.27.209,kallum_motion_pilot_GIST_update_2,2026.1.1,Win32,60.24096386,67d00d29e336b9b83ccf9203,69b95efdef24cd8a694e89ee,69b9602f9a8e30c1d2d9c09d,0.0503,0.0503,0,108,108,150,1,eightsix,,,,,,,,,,,,,,,,,,,,,,,,,,,,,,,,,,,,,,,,,,,,,,,,,,,,,,,,,,,,,,,,,,,,,,,,,,,,,,,,,,,,,,,,,,,,,,,,,,,,,,,,,,,,,,,,,,,,,,,,,,,,,,,,,,,,,,,,,
,,67d00d29e336b9b83ccf9203,2026-03-17_16h09.27.209,kallum_motion_pilot_GIST_update_2,2026.1.1,Win32,60.24096386,67d00d29e336b9b83ccf9203,69b95efdef24cd8a694e89ee,69b9602f9a8e30c1d2d9c09d,0.0505,0.0505,0,109,109,158,1,eightsix,,,,,,,,,,,,,,,,,,,,,,,,,,,,,,,,,,,,,,,,,,,,,,,,,,,,,,,,,,,,,,,,,,,,,,,,,,,,,,,,,,,,,,,,,,,,,,,,,,,,,,,,,,,,,,,,,,,,,,,,,,,,,,,,,,,,,,,,,
,,67d00d29e336b9b83ccf9203,2026-03-17_16h09.27.209,kallum_motion_pilot_GIST_update_2,2026.1.1,Win32,60.24096386,67d00d29e336b9b83ccf9203,69b95efdef24cd8a694e89ee,69b9602f9a8e30c1d2d9c09d,0.0507,0.0508,0,110,110,57,1,onethree,,,,,,,,,,,,,,,,,,,,,,,,,,,,,,,,,,,,,,,,,,,,,,,,,,,,,,,,,,,,,,,,,,,,,,,,,,,,,,,,,,,,,,,,,,,,,,,,,,,,,,,,,,,,,,,,,,,,,,,,,,,,,,,,,,,,,,,,,
,,67d00d29e336b9b83ccf9203,2026-03-17_16h09.27.209,kallum_motion_pilot_GIST_update_2,2026.1.1,Win32,60.24096386,67d00d29e336b9b83ccf9203,69b95efdef24cd8a694e89ee,69b9602f9a8e30c1d2d9c09d,0.051,0.051,0,111,111,152,1,fivesix,,,,,,,,,,,,,,,,,,,,,,,,,,,,,,,,,,,,,,,,,,,,,,,,,,,,,,,,,,,,,,,,,,,,,,,,,,,,,,,,,,,,,,,,,,,,,,,,,,,,,,,,,,,,,,,,,,,,,,,,,,,,,,,,,,,,,,,,,
,,67d00d29e336b9b83ccf9203,2026-03-17_16h09.27.209,kallum_motion_pilot_GIST_update_2,2026.1.1,Win32,60.24096386,67d00d29e336b9b83ccf9203,69b95efdef24cd8a694e89ee,69b9602f9a8e30c1d2d9c09d,0.0512,0.0512,0,112,112,41,1,onethree,,,,,,,,,,,,,,,,,,,,,,,,,,,,,,,,,,,,,,,,,,,,,,,,,,,,,,,,,,,,,,,,,,,,,,,,,,,,,,,,,,,,,,,,,,,,,,,,,,,,,,,,,,,,,,,,,,,,,,,,,,,,,,,,,,,,,,,,,
,,67d00d29e336b9b83ccf9203,2026-03-17_16h09.27.209,kallum_motion_pilot_GIST_update_2,2026.1.1,Win32,60.24096386,67d00d29e336b9b83ccf9203,69b95efdef24cd8a694e89ee,69b9602f9a8e30c1d2d9c09d,0.0513,0.0514,0,113,113,136,1,fivesix,,,,,,,,,,,,,,,,,,,,,,,,,,,,,,,,,,,,,,,,,,,,,,,,,,,,,,,,,,,,,,,,,,,,,,,,,,,,,,,,,,,,,,,,,,,,,,,,,,,,,,,,,,,,,,,,,,,,,,,,,,,,,,,,,,,,,,,,,
,,67d00d29e336b9b83ccf9203,2026-03-17_16h09.27.209,kallum_motion_pilot_GIST_update_2,2026.1.1,Win32,60.24096386,67d00d29e336b9b83ccf9203,69b95efdef24cd8a694e89ee,69b9602f9a8e30c1d2d9c09d,0.0516,0.0516,0,114,114,122,1,sixfive,,,,,,,,,,,,,,,,,,,,,,,,,,,,,,,,,,,,,,,,,,,,,,,,,,,,,,,,,,,,,,,,,,,,,,,,,,,,,,,,,,,,,,,,,,,,,,,,,,,,,,,,,,,,,,,,,,,,,,,,,,,,,,,,,,,,,,,,,
,,67d00d29e336b9b83ccf9203,2026-03-17_16h09.27.209,kallum_motion_pilot_GIST_update_2,2026.1.1,Win32,60.24096386,67d00d29e336b9b83ccf9203,69b95efdef24cd8a694e89ee,69b9602f9a8e30c1d2d9c09d,0.0518,0.0518,0,115,115,75,1,twofour,,,,,,,,,,,,,,,,,,,,,,,,,,,,,,,,,,,,,,,,,,,,,,,,,,,,,,,,,,,,,,,,,,,,,,,,,,,,,,,,,,,,,,,,,,,,,,,,,,,,,,,,,,,,,,,,,,,,,,,,,,,,,,,,,,,,,,,,,
,,67d00d29e336b9b83ccf9203,2026-03-17_16h09.27.209,kallum_motion_pilot_GIST_update_2,2026.1.1,Win32,60.24096386,67d00d29e336b9b83ccf9203,69b95efdef24cd8a694e89ee,69b9602f9a8e30c1d2d9c09d,0.0521,0.0521,0,116,116,55,1,fourthree,,,,,,,,,,,,,,,,,,,,,,,,,,,,,,,,,,,,,,,,,,,,,,,,,,,,,,,,,,,,,,,,,,,,,,,,,,,,,,,,,,,,,,,,,,,,,,,,,,,,,,,,,,,,,,,,,,,,,,,,,,,,,,,,,,,,,,,,,
,,67d00d29e336b9b83ccf9203,2026-03-17_16h09.27.209,kallum_motion_pilot_GIST_update_2,2026.1.1,Win32,60.24096386,67d00d29e336b9b83ccf9203,69b95efdef24cd8a694e89ee,69b9602f9a8e30c1d2d9c09d,0.0523,0.0523,0,117,117,113,1,fiveseven,,,,,,,,,,,,,,,,,,,,,,,,,,,,,,,,,,,,,,,,,,,,,,,,,,,,,,,,,,,,,,,,,,,,,,,,,,,,,,,,,,,,,,,,,,,,,,,,,,,,,,,,,,,,,,,,,,,,,,,,,,,,,,,,,,,,,,,,,
,,67d00d29e336b9b83ccf9203,2026-03-17_16h09.27.209,kallum_motion_pilot_GIST_update_2,2026.1.1,Win32,60.24096386,67d00d29e336b9b83ccf9203,69b95efdef24cd8a694e89ee,69b9602f9a8e30c1d2d9c09d,0.0525,0.0525,0,118,118,160,1,fivesix,,,,,,,,,,,,,,,,,,,,,,,,,,,,,,,,,,,,,,,,,,,,,,,,,,,,,,,,,,,,,,,,,,,,,,,,,,,,,,,,,,,,,,,,,,,,,,,,,,,,,,,,,,,,,,,,,,,,,,,,,,,,,,,,,,,,,,,,,
,,67d00d29e336b9b83ccf9203,2026-03-17_16h09.27.209,kallum_motion_pilot_GIST_update_2,2026.1.1,Win32,60.24096386,67d00d29e336b9b83ccf9203,69b95efdef24cd8a694e89ee,69b9602f9a8e30c1d2d9c09d,0.0527,0.0527,0,119,119,133,1,seveneight,,,,,,,,,,,,,,,,,,,,,,,,,,,,,,,,,,,,,,,,,,,,,,,,,,,,,,,,,,,,,,,,,,,,,,,,,,,,,,,,,,,,,,,,,,,,,,,,,,,,,,,,,,,,,,,,,,,,,,,,,,,,,,,,,,,,,,,,,
,,67d00d29e336b9b83ccf9203,2026-03-17_16h09.27.209,kallum_motion_pilot_GIST_update_2,2026.1.1,Win32,60.24096386,67d00d29e336b9b83ccf9203,69b95efdef24cd8a694e89ee,69b9602f9a8e30c1d2d9c09d,0.0529,0.0529,0,120,120,74,1,twoone,,,,,,,,,,,,,,,,,,,,,,,,,,,,,,,,,,,,,,,,,,,,,,,,,,,,,,,,,,,,,,,,,,,,,,,,,,,,,,,,,,,,,,,,,,,,,,,,,,,,,,,,,,,,,,,,,,,,,,,,,,,,,,,,,,,,,,,,,
,,67d00d29e336b9b83ccf9203,2026-03-17_16h09.27.209,kallum_motion_pilot_GIST_update_2,2026.1.1,Win32,60.24096386,67d00d29e336b9b83ccf9203,69b95efdef24cd8a694e89ee,69b9602f9a8e30c1d2d9c09d,0.0531,0.0531,0,121,121,15,1,fourthree,,,,,,,,,,,,,,,,,,,,,,,,,,,,,,,,,,,,,,,,,,,,,,,,,,,,,,,,,,,,,,,,,,,,,,,,,,,,,,,,,,,,,,,,,,,,,,,,,,,,,,,,,,,,,,,,,,,,,,,,,,,,,,,,,,,,,,,,,
,,67d00d29e336b9b83ccf9203,2026-03-17_16h09.27.209,kallum_motion_pilot_GIST_update_2,2026.1.1,Win32,60.24096386,67d00d29e336b9b83ccf9203,69b95efdef24cd8a694e89ee,69b9602f9a8e30c1d2d9c09d,0.0533,0.0533,0,122,122,93,1,seveneight,,,,,,,,,,,,,,,,,,,,,,,,,,,,,,,,,,,,,,,,,,,,,,,,,,,,,,,,,,,,,,,,,,,,,,,,,,,,,,,,,,,,,,,,,,,,,,,,,,,,,,,,,,,,,,,,,,,,,,,,,,,,,,,,,,,,,,,,,
,,67d00d29e336b9b83ccf9203,2026-03-17_16h09.27.209,kallum_motion_pilot_GIST_update_2,2026.1.1,Win32,60.24096386,67d00d29e336b9b83ccf9203,69b95efdef24cd8a694e89ee,69b9602f9a8e30c1d2d9c09d,0.0536,0.0536,0,123,123,151,1,eightseven,,,,,,,,,,,,,,,,,,,,,,,,,,,,,,,,,,,,,,,,,,,,,,,,,,,,,,,,,,,,,,,,,,,,,,,,,,,,,,,,,,,,,,,,,,,,,,,,,,,,,,,,,,,,,,,,,,,,,,,,,,,,,,,,,,,,,,,,,
,,67d00d29e336b9b83ccf9203,2026-03-17_16h09.27.209,kallum_motion_pilot_GIST_update_2,2026.1.1,Win32,60.24096386,67d00d29e336b9b83ccf9203,69b95efdef24cd8a694e89ee,69b9602f9a8e30c1d2d9c09d,0.0539,0.0539,0,124,124,90,1,sixfive,,,,,,,,,,,,,,,,,,,,,,,,,,,,,,,,,,,,,,,,,,,,,,,,,,,,,,,,,,,,,,,,,,,,,,,,,,,,,,,,,,,,,,,,,,,,,,,,,,,,,,,,,,,,,,,,,,,,,,,,,,,,,,,,,,,,,,,,,
,,67d00d29e336b9b83ccf9203,2026-03-17_16h09.27.209,kallum_motion_pilot_GIST_update_2,2026.1.1,Win32,60.24096386,67d00d29e336b9b83ccf9203,69b95efdef24cd8a694e89ee,69b9602f9a8e30c1d2d9c09d,0.0541,0.0541,0,125,125,115,1,sixeight,,,,,,,,,,,,,,,,,,,,,,,,,,,,,,,,,,,,,,,,,,,,,,,,,,,,,,,,,,,,,,,,,,,,,,,,,,,,,,,,,,,,,,,,,,,,,,,,,,,,,,,,,,,,,,,,,,,,,,,,,,,,,,,,,,,,,,,,,
,,67d00d29e336b9b83ccf9203,2026-03-17_16h09.27.209,kallum_motion_pilot_GIST_update_2,2026.1.1,Win32,60.24096386,67d00d29e336b9b83ccf9203,69b95efdef24cd8a694e89ee,69b9602f9a8e30c1d2d9c09d,0.0543,0.0544,0,126,126,49,1,onethree,,,,,,,,,,,,,,,,,,,,,,,,,,,,,,,,,,,,,,,,,,,,,,,,,,,,,,,,,,,,,,,,,,,,,,,,,,,,,,,,,,,,,,,,,,,,,,,,,,,,,,,,,,,,,,,,,,,,,,,,,,,,,,,,,,,,,,,,,
,,67d00d29e336b9b83ccf9203,2026-03-17_16h09.27.209,kallum_motion_pilot_GIST_update_2,2026.1.1,Win32,60.24096386,67d00d29e336b9b83ccf9203,69b95efdef24cd8a694e89ee,69b9602f9a8e30c1d2d9c09d,0.0546,0.0546,0,127,127,101,1,seveneight,,,,,,,,,,,,,,,,,,,,,,,,,,,,,,,,,,,,,,,,,,,,,,,,,,,,,,,,,,,,,,,,,,,,,,,,,,,,,,,,,,,,,,,,,,,,,,,,,,,,,,,,,,,,,,,,,,,,,,,,,,,,,,,,,,,,,,,,,
,,67d00d29e336b9b83ccf9203,2026-03-17_16h09.27.209,kallum_motion_pilot_GIST_update_2,2026.1.1,Win32,60.24096386,67d00d29e336b9b83ccf9203,69b95efdef24cd8a694e89ee,69b9602f9a8e30c1d2d9c09d,0.0548,0.0549,0,128,128,52,1,threeone,,,,,,,,,,,,,,,,,,,,,,,,,,,,,,,,,,,,,,,,,,,,,,,,,,,,,,,,,,,,,,,,,,,,,,,,,,,,,,,,,,,,,,,,,,,,,,,,,,,,,,,,,,,,,,,,,,,,,,,,,,,,,,,,,,,,,,,,,
,,67d00d29e336b9b83ccf9203,2026-03-17_16h09.27.209,kallum_motion_pilot_GIST_update_2,2026.1.1,Win32,60.24096386,67d00d29e336b9b83ccf9203,69b95efdef24cd8a694e89ee,69b9602f9a8e30c1d2d9c09d,0.0551,0.0551,0,129,129,62,1,fourtwo,,,,,,,,,,,,,,,,,,,,,,,,,,,,,,,,,,,,,,,,,,,,,,,,,,,,,,,,,,,,,,,,,,,,,,,,,,,,,,,,,,,,,,,,,,,,,,,,,,,,,,,,,,,,,,,,,,,,,,,,,,,,,,,,,,,,,,,,,
,,67d00d29e336b9b83ccf9203,2026-03-17_16h09.27.209,kallum_motion_pilot_GIST_update_2,2026.1.1,Win32,60.24096386,67d00d29e336b9b83ccf9203,69b95efdef24cd8a694e89ee,69b9602f9a8e30c1d2d9c09d,0.0554,0.0554,0,130,130,11,1,twofour,,,,,,,,,,,,,,,,,,,,,,,,,,,,,,,,,,,,,,,,,,,,,,,,,,,,,,,,,,,,,,,,,,,,,,,,,,,,,,,,,,,,,,,,,,,,,,,,,,,,,,,,,,,,,,,,,,,,,,,,,,,,,,,,,,,,,,,,,
,,67d00d29e336b9b83ccf9203,2026-03-17_16h09.27.209,kallum_motion_pilot_GIST_update_2,2026.1.1,Win32,60.24096386,67d00d29e336b9b83ccf9203,69b95efdef24cd8a694e89ee,69b9602f9a8e30c1d2d9c09d,0.0555,0.0555,0,131,131,21,1,threefour,,,,,,,,,,,,,,,,,,,,,,,,,,,,,,,,,,,,,,,,,,,,,,,,,,,,,,,,,,,,,,,,,,,,,,,,,,,,,,,,,,,,,,,,,,,,,,,,,,,,,,,,,,,,,,,,,,,,,,,,,,,,,,,,,,,,,,,,,
,,67d00d29e336b9b83ccf9203,2026-03-17_16h09.27.209,kallum_motion_pilot_GIST_update_2,2026.1.1,Win32,60.24096386,67d00d29e336b9b83ccf9203,69b95efdef24cd8a694e89ee,69b9602f9a8e30c1d2d9c09d,0.0556,0.0556,0,132,132,86,1,eightsix,,,,,,,,,,,,,,,,,,,,,,,,,,,,,,,,,,,,,,,,,,,,,,,,,,,,,,,,,,,,,,,,,,,,,,,,,,,,,,,,,,,,,,,,,,,,,,,,,,,,,,,,,,,,,,,,,,,,,,,,,,,,,,,,,,,,,,,,,
,,67d00d29e336b9b83ccf9203,2026-03-17_16h09.27.209,kallum_motion_pilot_GIST_update_2,2026.1.1,Win32,60.24096386,67d00d29e336b9b83ccf9203,69b95efdef24cd8a694e89ee,69b9602f9a8e30c1d2d9c09d,0.0559,0.0559,0,133,133,94,1,eightsix,,,,,,,,,,,,,,,,,,,,,,,,,,,,,,,,,,,,,,,,,,,,,,,,,,,,,,,,,,,,,,,,,,,,,,,,,,,,,,,,,,,,,,,,,,,,,,,,,,,,,,,,,,,,,,,,,,,,,,,,,,,,,,,,,,,,,,,,,
,,67d00d29e336b9b83ccf9203,2026-03-17_16h09.27.209,kallum_motion_pilot_GIST_update_2,2026.1.1,Win32,60.24096386,67d00d29e336b9b83ccf9203,69b95efdef24cd8a694e89ee,69b9602f9a8e30c1d2d9c09d,0.056,0.056,0,134,134,12,1,threeone,,,,,,,,,,,,,,,,,,,,,,,,,,,,,,,,,,,,,,,,,,,,,,,,,,,,,,,,,,,,,,,,,,,,,,,,,,,,,,,,,,,,,,,,,,,,,,,,,,,,,,,,,,,,,,,,,,,,,,,,,,,,,,,,,,,,,,,,,
,,67d00d29e336b9b83ccf9203,2026-03-17_16h09.27.209,kallum_motion_pilot_GIST_update_2,2026.1.1,Win32,60.24096386,67d00d29e336b9b83ccf9203,69b95efdef24cd8a694e89ee,69b9602f9a8e30c1d2d9c09d,0.0562,0.0562,0,135,135,114,1,sixfive,,,,,,,,,,,,,,,,,,,,,,,,,,,,,,,,,,,,,,,,,,,,,,,,,,,,,,,,,,,,,,,,,,,,,,,,,,,,,,,,,,,,,,,,,,,,,,,,,,,,,,,,,,,,,,,,,,,,,,,,,,,,,,,,,,,,,,,,,
,,67d00d29e336b9b83ccf9203,2026-03-17_16h09.27.209,kallum_motion_pilot_GIST_update_2,2026.1.1,Win32,60.24096386,67d00d29e336b9b83ccf9203,69b95efdef24cd8a694e89ee,69b9602f9a8e30c1d2d9c09d,0.0564,0.0564,0,136,136,29,1,threefour,,,,,,,,,,,,,,,,,,,,,,,,,,,,,,,,,,,,,,,,,,,,,,,,,,,,,,,,,,,,,,,,,,,,,,,,,,,,,,,,,,,,,,,,,,,,,,,,,,,,,,,,,,,,,,,,,,,,,,,,,,,,,,,,,,,,,,,,,
,,67d00d29e336b9b83ccf9203,2026-03-17_16h09.27.209,kallum_motion_pilot_GIST_update_2,2026.1.1,Win32,60.24096386,67d00d29e336b9b83ccf9203,69b95efdef24cd8a694e89ee,69b9602f9a8e30c1d2d9c09d,0.0566,0.0566,0,137,137,106,1,sixfive,,,,,,,,,,,,,,,,,,,,,,,,,,,,,,,,,,,,,,,,,,,,,,,,,,,,,,,,,,,,,,,,,,,,,,,,,,,,,,,,,,,,,,,,,,,,,,,,,,,,,,,,,,,,,,,,,,,,,,,,,,,,,,,,,,,,,,,,,
,,67d00d29e336b9b83ccf9203,2026-03-17_16h09.27.209,kallum_motion_pilot_GIST_update_2,2026.1.1,Win32,60.24096386,67d00d29e336b9b83ccf9203,69b95efdef24cd8a694e89ee,69b9602f9a8e30c1d2d9c09d,0.0567,0.0567,0,138,138,23,1,fourthree,,,,,,,,,,,,,,,,,,,,,,,,,,,,,,,,,,,,,,,,,,,,,,,,,,,,,,,,,,,,,,,,,,,,,,,,,,,,,,,,,,,,,,,,,,,,,,,,,,,,,,,,,,,,,,,,,,,,,,,,,,,,,,,,,,,,,,,,,
,,67d00d29e336b9b83ccf9203,2026-03-17_16h09.27.209,kallum_motion_pilot_GIST_update_2,2026.1.1,Win32,60.24096386,67d00d29e336b9b83ccf9203,69b95efdef24cd8a694e89ee,69b9602f9a8e30c1d2d9c09d,0.0569,0.0569,0,139,139,20,1,threeone,,,,,,,,,,,,,,,,,,,,,,,,,,,,,,,,,,,,,,,,,,,,,,,,,,,,,,,,,,,,,,,,,,,,,,,,,,,,,,,,,,,,,,,,,,,,,,,,,,,,,,,,,,,,,,,,,,,,,,,,,,,,,,,,,,,,,,,,,
,,67d00d29e336b9b83ccf9203,2026-03-17_16h09.27.209,kallum_motion_pilot_GIST_update_2,2026.1.1,Win32,60.24096386,67d00d29e336b9b83ccf9203,69b95efdef24cd8a694e89ee,69b9602f9a8e30c1d2d9c09d,0.057,0.0571,0,140,140,48,1,onetwo,,,,,,,,,,,,,,,,,,,,,,,,,,,,,,,,,,,,,,,,,,,,,,,,,,,,,,,,,,,,,,,,,,,,,,,,,,,,,,,,,,,,,,,,,,,,,,,,,,,,,,,,,,,,,,,,,,,,,,,,,,,,,,,,,,,,,,,,,
,,67d00d29e336b9b83ccf9203,2026-03-17_16h09.27.209,kallum_motion_pilot_GIST_update_2,2026.1.1,Win32,60.24096386,67d00d29e336b9b83ccf9203,69b95efdef24cd8a694e89ee,69b9602f9a8e30c1d2d9c09d,0.0572,0.0573,0,141,141,64,1,onetwo,,,,,,,,,,,,,,,,,,,,,,,,,,,,,,,,,,,,,,,,,,,,,,,,,,,,,,,,,,,,,,,,,,,,,,,,,,,,,,,,,,,,,,,,,,,,,,,,,,,,,,,,,,,,,,,,,,,,,,,,,,,,,,,,,,,,,,,,,
,,67d00d29e336b9b83ccf9203,2026-03-17_16h09.27.209,kallum_motion_pilot_GIST_update_2,2026.1.1,Win32,60.24096386,67d00d29e336b9b83ccf9203,69b95efdef24cd8a694e89ee,69b9602f9a8e30c1d2d9c09d,0.0575,0.0575,0,142,142,50,1,twoone,,,,,,,,,,,,,,,,,,,,,,,,,,,,,,,,,,,,,,,,,,,,,,,,,,,,,,,,,,,,,,,,,,,,,,,,,,,,,,,,,,,,,,,,,,,,,,,,,,,,,,,,,,,,,,,,,,,,,,,,,,,,,,,,,,,,,,,,,
,,67d00d29e336b9b83ccf9203,2026-03-17_16h09.27.209,kallum_motion_pilot_GIST_update_2,2026.1.1,Win32,60.24096386,67d00d29e336b9b83ccf9203,69b95efdef24cd8a694e89ee,69b9602f9a8e30c1d2d9c09d,0.0577,0.0577,0,143,143,33,1,onethree,,,,,,,,,,,,,,,,,,,,,,,,,,,,,,,,,,,,,,,,,,,,,,,,,,,,,,,,,,,,,,,,,,,,,,,,,,,,,,,,,,,,,,,,,,,,,,,,,,,,,,,,,,,,,,,,,,,,,,,,,,,,,,,,,,,,,,,,,
,,67d00d29e336b9b83ccf9203,2026-03-17_16h09.27.209,kallum_motion_pilot_GIST_update_2,2026.1.1,Win32,60.24096386,67d00d29e336b9b83ccf9203,69b95efdef24cd8a694e89ee,69b9602f9a8e30c1d2d9c09d,0.0578,0.0578,0,144,144,108,1,sevenfive,,,,,,,,,,,,,,,,,,,,,,,,,,,,,,,,,,,,,,,,,,,,,,,,,,,,,,,,,,,,,,,,,,,,,,,,,,,,,,,,,,,,,,,,,,,,,,,,,,,,,,,,,,,,,,,,,,,,,,,,,,,,,,,,,,,,,,,,,
,,67d00d29e336b9b83ccf9203,2026-03-17_16h09.27.209,kallum_motion_pilot_GIST_update_2,2026.1.1,Win32,60.24096386,67d00d29e336b9b83ccf9203,69b95efdef24cd8a694e89ee,69b9602f9a8e30c1d2d9c09d,0.058,0.058,0,145,145,131,1,sixeight,,,,,,,,,,,,,,,,,,,,,,,,,,,,,,,,,,,,,,,,,,,,,,,,,,,,,,,,,,,,,,,,,,,,,,,,,,,,,,,,,,,,,,,,,,,,,,,,,,,,,,,,,,,,,,,,,,,,,,,,,,,,,,,,,,,,,,,,,
,,67d00d29e336b9b83ccf9203,2026-03-17_16h09.27.209,kallum_motion_pilot_GIST_update_2,2026.1.1,Win32,60.24096386,67d00d29e336b9b83ccf9203,69b95efdef24cd8a694e89ee,69b9602f9a8e30c1d2d9c09d,0.0582,0.0582,0,146,146,104,1,fivesix,,,,,,,,,,,,,,,,,,,,,,,,,,,,,,,,,,,,,,,,,,,,,,,,,,,,,,,,,,,,,,,,,,,,,,,,,,,,,,,,,,,,,,,,,,,,,,,,,,,,,,,,,,,,,,,,,,,,,,,,,,,,,,,,,,,,,,,,,
,,67d00d29e336b9b83ccf9203,2026-03-17_16h09.27.209,kallum_motion_pilot_GIST_update_2,2026.1.1,Win32,60.24096386,67d00d29e336b9b83ccf9203,69b95efdef24cd8a694e89ee,69b9602f9a8e30c1d2d9c09d,0.0584,0.0584,0,147,147,146,1,sixfive,,,,,,,,,,,,,,,,,,,,,,,,,,,,,,,,,,,,,,,,,,,,,,,,,,,,,,,,,,,,,,,,,,,,,,,,,,,,,,,,,,,,,,,,,,,,,,,,,,,,,,,,,,,,,,,,,,,,,,,,,,,,,,,,,,,,,,,,,
,,67d00d29e336b9b83ccf9203,2026-03-17_16h09.27.209,kallum_motion_pilot_GIST_update_2,2026.1.1,Win32,60.24096386,67d00d29e336b9b83ccf9203,69b95efdef24cd8a694e89ee,69b9602f9a8e30c1d2d9c09d,0.0586,0.0586,0,148,148,147,1,sixeight,,,,,,,,,,,,,,,,,,,,,,,,,,,,,,,,,,,,,,,,,,,,,,,,,,,,,,,,,,,,,,,,,,,,,,,,,,,,,,,,,,,,,,,,,,,,,,,,,,,,,,,,,,,,,,,,,,,,,,,,,,,,,,,,,,,,,,,,,
,,67d00d29e336b9b83ccf9203,2026-03-17_16h09.27.209,kallum_motion_pilot_GIST_update_2,2026.1.1,Win32,60.24096386,67d00d29e336b9b83ccf9203,69b95efdef24cd8a694e89ee,69b9602f9a8e30c1d2d9c09d,0.0587,0.0587,0,149,149,1,1,onethree,,,,,,,,,,,,,,,,,,,,,,,,,,,,,,,,,,,,,,,,,,,,,,,,,,,,,,,,,,,,,,,,,,,,,,,,,,,,,,,,,,,,,,,,,,,,,,,,,,,,,,,,,,,,,,,,,,,,,,,,,,,,,,,,,,,,,,,,,
,,67d00d29e336b9b83ccf9203,2026-03-17_16h09.27.209,kallum_motion_pilot_GIST_update_2,2026.1.1,Win32,60.24096386,67d00d29e336b9b83ccf9203,69b95efdef24cd8a694e89ee,69b9602f9a8e30c1d2d9c09d,0.059,0.059,0,150,150,111,1,eightseven,,,,,,,,,,,,,,,,,,,,,,,,,,,,,,,,,,,,,,,,,,,,,,,,,,,,,,,,,,,,,,,,,,,,,,,,,,,,,,,,,,,,,,,,,,,,,,,,,,,,,,,,,,,,,,,,,,,,,,,,,,,,,,,,,,,,,,,,,
,,67d00d29e336b9b83ccf9203,2026-03-17_16h09.27.209,kallum_motion_pilot_GIST_update_2,2026.1.1,Win32,60.24096386,67d00d29e336b9b83ccf9203,69b95efdef24cd8a694e89ee,69b9602f9a8e30c1d2d9c09d,0.0591,0.0591,0,151,151,28,1,threeone,,,,,,,,,,,,,,,,,,,,,,,,,,,,,,,,,,,,,,,,,,,,,,,,,,,,,,,,,,,,,,,,,,,,,,,,,,,,,,,,,,,,,,,,,,,,,,,,,,,,,,,,,,,,,,,,,,,,,,,,,,,,,,,,,,,,,,,,,
,,67d00d29e336b9b83ccf9203,2026-03-17_16h09.27.209,kallum_motion_pilot_GIST_update_2,2026.1.1,Win32,60.24096386,67d00d29e336b9b83ccf9203,69b95efdef24cd8a694e89ee,69b9602f9a8e30c1d2d9c09d,0.0593,0.0593,0,152,152,47,1,fourthree,,,,,,,,,,,,,,,,,,,,,,,,,,,,,,,,,,,,,,,,,,,,,,,,,,,,,,,,,,,,,,,,,,,,,,,,,,,,,,,,,,,,,,,,,,,,,,,,,,,,,,,,,,,,,,,,,,,,,,,,,,,,,,,,,,,,,,,,,
,,67d00d29e336b9b83ccf9203,2026-03-17_16h09.27.209,kallum_motion_pilot_GIST_update_2,2026.1.1,Win32,60.24096386,67d00d29e336b9b83ccf9203,69b95efdef24cd8a694e89ee,69b9602f9a8e30c1d2d9c09d,0.0594,0.0595,0,153,153,78,1,fourtwo,,,,,,,,,,,,,,,,,,,,,,,,,,,,,,,,,,,,,,,,,,,,,,,,,,,,,,,,,,,,,,,,,,,,,,,,,,,,,,,,,,,,,,,,,,,,,,,,,,,,,,,,,,,,,,,,,,,,,,,,,,,,,,,,,,,,,,,,,
,,67d00d29e336b9b83ccf9203,2026-03-17_16h09.27.209,kallum_motion_pilot_GIST_update_2,2026.1.1,Win32,60.24096386,67d00d29e336b9b83ccf9203,69b95efdef24cd8a694e89ee,69b9602f9a8e30c1d2d9c09d,0.0596,0.0596,0,154,154,44,1,threeone,,,,,,,,,,,,,,,,,,,,,,,,,,,,,,,,,,,,,,,,,,,,,,,,,,,,,,,,,,,,,,,,,,,,,,,,,,,,,,,,,,,,,,,,,,,,,,,,,,,,,,,,,,,,,,,,,,,,,,,,,,,,,,,,,,,,,,,,,
,,67d00d29e336b9b83ccf9203,2026-03-17_16h09.27.209,kallum_motion_pilot_GIST_update_2,2026.1.1,Win32,60.24096386,67d00d29e336b9b83ccf9203,69b95efdef24cd8a694e89ee,69b9602f9a8e30c1d2d9c09d,0.0597,0.0597,0,155,155,77,1,threefour,,,,,,,,,,,,,,,,,,,,,,,,,,,,,,,,,,,,,,,,,,,,,,,,,,,,,,,,,,,,,,,,,,,,,,,,,,,,,,,,,,,,,,,,,,,,,,,,,,,,,,,,,,,,,,,,,,,,,,,,,,,,,,,,,,,,,,,,,
,,67d00d29e336b9b83ccf9203,2026-03-17_16h09.27.209,kallum_motion_pilot_GIST_update_2,2026.1.1,Win32,60.24096386,67d00d29e336b9b83ccf9203,69b95efdef24cd8a694e89ee,69b9602f9a8e30c1d2d9c09d,0.06,0.06,0,156,156,135,1,eightseven,,,,,,,,,,,,,,,,,,,,,,,,,,,,,,,,,,,,,,,,,,,,,,,,,,,,,,,,,,,,,,,,,,,,,,,,,,,,,,,,,,,,,,,,,,,,,,,,,,,,,,,,,,,,,,,,,,,,,,,,,,,,,,,,,,,,,,,,,
,,67d00d29e336b9b83ccf9203,2026-03-17_16h09.27.209,kallum_motion_pilot_GIST_update_2,2026.1.1,Win32,60.24096386,67d00d29e336b9b83ccf9203,69b95efdef24cd8a694e89ee,69b9602f9a8e30c1d2d9c09d,0.0601,0.0601,0,157,157,35,1,twofour,,,,,,,,,,,,,,,,,,,,,,,,,,,,,,,,,,,,,,,,,,,,,,,,,,,,,,,,,,,,,,,,,,,,,,,,,,,,,,,,,,,,,,,,,,,,,,,,,,,,,,,,,,,,,,,,,,,,,,,,,,,,,,,,,,,,,,,,,
,,67d00d29e336b9b83ccf9203,2026-03-17_16h09.27.209,kallum_motion_pilot_GIST_update_2,2026.1.1,Win32,60.24096386,67d00d29e336b9b83ccf9203,69b95efdef24cd8a694e89ee,69b9602f9a8e30c1d2d9c09d,0.0603,0.0603,0,158,158,121,1,fiveseven,,,,,,,,,,,,,,,,,,,,,,,,,,,,,,,,,,,,,,,,,,,,,,,,,,,,,,,,,,,,,,,,,,,,,,,,,,,,,,,,,,,,,,,,,,,,,,,,,,,,,,,,,,,,,,,,,,,,,,,,,,,,,,,,,,,,,,,,,
,,67d00d29e336b9b83ccf9203,2026-03-17_16h09.27.209,kallum_motion_pilot_GIST_update_2,2026.1.1,Win32,60.24096386,67d00d29e336b9b83ccf9203,69b95efdef24cd8a694e89ee,69b9602f9a8e30c1d2d9c09d,0.0605,0.0605,0,159,159,51,1,twofour,,,,,,,,,,,,,,,,,,,,,,,,,,,,,,,,,,,,,,,,,,,,,,,,,,,,,,,,,,,,,,,,,,,,,,,,,,,,,,,,,,,,,,,,,,,,,,,,,,,,,,,,,,,,,,,,,,,,,,,,,,,,,,,,,,,,,,,,,
,,67d00d29e336b9b83ccf9203,2026-03-17_16h09.27.209,kallum_motion_pilot_GIST_update_2,2026.1.1,Win32,60.24096386,67d00d29e336b9b83ccf9203,69b95efdef24cd8a694e89ee,69b9602f9a8e30c1d2d9c09d,0.0607,0.0607,0,160,160,89,1,fiveseven,,,,,,,,,,,,,,,,,,,,,,,,,,,,,,,,,,,,,,,,,,,,,,,,,,,,,,,,,,,,,,,,,,,,,,,,,,,,,,,,,,,,,,,,,,,,,,,,,,,,,,,,,,,,,,,,,,,,,,,,,,,,,,,,,,,,,,,,,
,,67d00d29e336b9b83ccf9203,2026-03-17_16h09.27.209,kallum_motion_pilot_GIST_update_2,2026.1.1,Win32,60.24096386,67d00d29e336b9b83ccf9203,69b95efdef24cd8a694e89ee,69b9602f9a8e30c1d2d9c09d,0.0609,0.0609,0,161,161,6,1,fourtwo,,,,,,,,,,,,,,,,,,,,,,,,,,,,,,,,,,,,,,,,,,,,,,,,,,,,,,,,,,,,,,,,,,,,,,,,,,,,,,,,,,,,,,,,,,,,,,,,,,,,,,,,,,,,,,,,,,,,,,,,,,,,,,,,,,,,,,,,,
,,67d00d29e336b9b83ccf9203,2026-03-17_16h09.27.209,kallum_motion_pilot_GIST_update_2,2026.1.1,Win32,60.24096386,67d00d29e336b9b83ccf9203,69b95efdef24cd8a694e89ee,69b9602f9a8e30c1d2d9c09d,0.0611,0.0611,1,0,162,91,1,sixeight,,,,,,,,,,,,,,,,,,,,,,,,,,,,,,,,,,,,,,,,,,,,,,,,,,,,,,,,,,,,,,,,,,,,,,,,,,,,,,,,,,,,,,,,,,,,,,,,,,,,,,,,,,,,,,,,,,,,,,,,,,,,,,,,,,,,,,,,,
,,67d00d29e336b9b83ccf9203,2026-03-17_16h09.27.209,kallum_motion_pilot_GIST_update_2,2026.1.1,Win32,60.24096386,67d00d29e336b9b83ccf9203,69b95efdef24cd8a694e89ee,69b9602f9a8e30c1d2d9c09d,0.0613,0.0613,1,1,163,60,1,threeone,,,,,,,,,,,,,,,,,,,,,,,,,,,,,,,,,,,,,,,,,,,,,,,,,,,,,,,,,,,,,,,,,,,,,,,,,,,,,,,,,,,,,,,,,,,,,,,,,,,,,,,,,,,,,,,,,,,,,,,,,,,,,,,,,,,,,,,,,
,,67d00d29e336b9b83ccf9203,2026-03-17_16h09.27.209,kallum_motion_pilot_GIST_update_2,2026.1.1,Win32,60.24096386,67d00d29e336b9b83ccf9203,69b95efdef24cd8a694e89ee,69b9602f9a8e30c1d2d9c09d,0.0615,0.0615,1,2,164,39,1,fourthree,,,,,,,,,,,,,,,,,,,,,,,,,,,,,,,,,,,,,,,,,,,,,,,,,,,,,,,,,,,,,,,,,,,,,,,,,,,,,,,,,,,,,,,,,,,,,,,,,,,,,,,,,,,,,,,,,,,,,,,,,,,,,,,,,,,,,,,,,
,,67d00d29e336b9b83ccf9203,2026-03-17_16h09.27.209,kallum_motion_pilot_GIST_update_2,2026.1.1,Win32,60.24096386,67d00d29e336b9b83ccf9203,69b95efdef24cd8a694e89ee,69b9602f9a8e30c1d2d9c09d,0.0617,0.0617,1,3,165,120,1,fivesix,,,,,,,,,,,,,,,,,,,,,,,,,,,,,,,,,,,,,,,,,,,,,,,,,,,,,,,,,,,,,,,,,,,,,,,,,,,,,,,,,,,,,,,,,,,,,,,,,,,,,,,,,,,,,,,,,,,,,,,,,,,,,,,,,,,,,,,,,
,,67d00d29e336b9b83ccf9203,2026-03-17_16h09.27.209,kallum_motion_pilot_GIST_update_2,2026.1.1,Win32,60.24096386,67d00d29e336b9b83ccf9203,69b95efdef24cd8a694e89ee,69b9602f9a8e30c1d2d9c09d,0.0618,0.0618,1,4,166,137,1,fiveseven,,,,,,,,,,,,,,,,,,,,,,,,,,,,,,,,,,,,,,,,,,,,,,,,,,,,,,,,,,,,,,,,,,,,,,,,,,,,,,,,,,,,,,,,,,,,,,,,,,,,,,,,,,,,,,,,,,,,,,,,,,,,,,,,,,,,,,,,,
,,67d00d29e336b9b83ccf9203,2026-03-17_16h09.27.209,kallum_motion_pilot_GIST_update_2,2026.1.1,Win32,60.24096386,67d00d29e336b9b83ccf9203,69b95efdef24cd8a694e89ee,69b9602f9a8e30c1d2d9c09d,0.0621,0.0621,1,5,167,52,1,threeone,,,,,,,,,,,,,,,,,,,,,,,,,,,,,,,,,,,,,,,,,,,,,,,,,,,,,,,,,,,,,,,,,,,,,,,,,,,,,,,,,,,,,,,,,,,,,,,,,,,,,,,,,,,,,,,,,,,,,,,,,,,,,,,,,,,,,,,,,
,,67d00d29e336b9b83ccf9203,2026-03-17_16h09.27.209,kallum_motion_pilot_GIST_update_2,2026.1.1,Win32,60.24096386,67d00d29e336b9b83ccf9203,69b95efdef24cd8a694e89ee,69b9602f9a8e30c1d2d9c09d,0.0622,0.0622,1,6,168,43,1,twofour,,,,,,,,,,,,,,,,,,,,,,,,,,,,,,,,,,,,,,,,,,,,,,,,,,,,,,,,,,,,,,,,,,,,,,,,,,,,,,,,,,,,,,,,,,,,,,,,,,,,,,,,,,,,,,,,,,,,,,,,,,,,,,,,,,,,,,,,,
,,67d00d29e336b9b83ccf9203,2026-03-17_16h09.27.209,kallum_motion_pilot_GIST_update_2,2026.1.1,Win32,60.24096386,67d00d29e336b9b83ccf9203,69b95efdef24cd8a694e89ee,69b9602f9a8e30c1d2d9c09d,0.0624,0.0624,1,7,169,155,1,sixeight,,,,,,,,,,,,,,,,,,,,,,,,,,,,,,,,,,,,,,,,,,,,,,,,,,,,,,,,,,,,,,,,,,,,,,,,,,,,,,,,,,,,,,,,,,,,,,,,,,,,,,,,,,,,,,,,,,,,,,,,,,,,,,,,,,,,,,,,,
,,67d00d29e336b9b83ccf9203,2026-03-17_16h09.27.209,kallum_motion_pilot_GIST_update_2,2026.1.1,Win32,60.24096386,67d00d29e336b9b83ccf9203,69b95efdef24cd8a694e89ee,69b9602f9a8e30c1d2d9c09d,0.0625,0.0625,1,8,170,51,1,twofour,,,,,,,,,,,,,,,,,,,,,,,,,,,,,,,,,,,,,,,,,,,,,,,,,,,,,,,,,,,,,,,,,,,,,,,,,,,,,,,,,,,,,,,,,,,,,,,,,,,,,,,,,,,,,,,,,,,,,,,,,,,,,,,,,,,,,,,,,
,,67d00d29e336b9b83ccf9203,2026-03-17_16h09.27.209,kallum_motion_pilot_GIST_update_2,2026.1.1,Win32,60.24096386,67d00d29e336b9b83ccf9203,69b95efdef24cd8a694e89ee,69b9602f9a8e30c1d2d9c09d,0.0627,0.0627,1,9,171,135,1,eightseven,,,,,,,,,,,,,,,,,,,,,,,,,,,,,,,,,,,,,,,,,,,,,,,,,,,,,,,,,,,,,,,,,,,,,,,,,,,,,,,,,,,,,,,,,,,,,,,,,,,,,,,,,,,,,,,,,,,,,,,,,,,,,,,,,,,,,,,,,
,,67d00d29e336b9b83ccf9203,2026-03-17_16h09.27.209,kallum_motion_pilot_GIST_update_2,2026.1.1,Win32,60.24096386,67d00d29e336b9b83ccf9203,69b95efdef24cd8a694e89ee,69b9602f9a8e30c1d2d9c09d,0.0629,0.063,1,10,172,127,1,eightseven,,,,,,,,,,,,,,,,,,,,,,,,,,,,,,,,,,,,,,,,,,,,,,,,,,,,,,,,,,,,,,,,,,,,,,,,,,,,,,,,,,,,,,,,,,,,,,,,,,,,,,,,,,,,,,,,,,,,,,,,,,,,,,,,,,,,,,,,,
,,67d00d29e336b9b83ccf9203,2026-03-17_16h09.27.209,kallum_motion_pilot_GIST_update_2,2026.1.1,Win32,60.24096386,67d00d29e336b9b83ccf9203,69b95efdef24cd8a694e89ee,69b9602f9a8e30c1d2d9c09d,0.0632,0.0632,1,11,173,12,1,threeone,,,,,,,,,,,,,,,,,,,,,,,,,,,,,,,,,,,,,,,,,,,,,,,,,,,,,,,,,,,,,,,,,,,,,,,,,,,,,,,,,,,,,,,,,,,,,,,,,,,,,,,,,,,,,,,,,,,,,,,,,,,,,,,,,,,,,,,,,
,,67d00d29e336b9b83ccf9203,2026-03-17_16h09.27.209,kallum_motion_pilot_GIST_update_2,2026.1.1,Win32,60.24096386,67d00d29e336b9b83ccf9203,69b95efdef24cd8a694e89ee,69b9602f9a8e30c1d2d9c09d,0.0634,0.0634,1,12,174,99,1,sixeight,,,,,,,,,,,,,,,,,,,,,,,,,,,,,,,,,,,,,,,,,,,,,,,,,,,,,,,,,,,,,,,,,,,,,,,,,,,,,,,,,,,,,,,,,,,,,,,,,,,,,,,,,,,,,,,,,,,,,,,,,,,,,,,,,,,,,,,,,
,,67d00d29e336b9b83ccf9203,2026-03-17_16h09.27.209,kallum_motion_pilot_GIST_update_2,2026.1.1,Win32,60.24096386,67d00d29e336b9b83ccf9203,69b95efdef24cd8a694e89ee,69b9602f9a8e30c1d2d9c09d,0.0636,0.0636,1,13,175,20,1,threeone,,,,,,,,,,,,,,,,,,,,,,,,,,,,,,,,,,,,,,,,,,,,,,,,,,,,,,,,,,,,,,,,,,,,,,,,,,,,,,,,,,,,,,,,,,,,,,,,,,,,,,,,,,,,,,,,,,,,,,,,,,,,,,,,,,,,,,,,,
,,67d00d29e336b9b83ccf9203,2026-03-17_16h09.27.209,kallum_motion_pilot_GIST_update_2,2026.1.1,Win32,60.24096386,67d00d29e336b9b83ccf9203,69b95efdef24cd8a694e89ee,69b9602f9a8e30c1d2d9c09d,0.064,0.064,1,14,176,72,1,onetwo,,,,,,,,,,,,,,,,,,,,,,,,,,,,,,,,,,,,,,,,,,,,,,,,,,,,,,,,,,,,,,,,,,,,,,,,,,,,,,,,,,,,,,,,,,,,,,,,,,,,,,,,,,,,,,,,,,,,,,,,,,,,,,,,,,,,,,,,,
,,67d00d29e336b9b83ccf9203,2026-03-17_16h09.27.209,kallum_motion_pilot_GIST_update_2,2026.1.1,Win32,60.24096386,67d00d29e336b9b83ccf9203,69b95efdef24cd8a694e89ee,69b9602f9a8e30c1d2d9c09d,0.0643,0.0643,1,15,177,138,1,sixfive,,,,,,,,,,,,,,,,,,,,,,,,,,,,,,,,,,,,,,,,,,,,,,,,,,,,,,,,,,,,,,,,,,,,,,,,,,,,,,,,,,,,,,,,,,,,,,,,,,,,,,,,,,,,,,,,,,,,,,,,,,,,,,,,,,,,,,,,,
,,67d00d29e336b9b83ccf9203,2026-03-17_16h09.27.209,kallum_motion_pilot_GIST_update_2,2026.1.1,Win32,60.24096386,67d00d29e336b9b83ccf9203,69b95efdef24cd8a694e89ee,69b9602f9a8e30c1d2d9c09d,0.0647,0.0647,1,16,178,89,1,fiveseven,,,,,,,,,,,,,,,,,,,,,,,,,,,,,,,,,,,,,,,,,,,,,,,,,,,,,,,,,,,,,,,,,,,,,,,,,,,,,,,,,,,,,,,,,,,,,,,,,,,,,,,,,,,,,,,,,,,,,,,,,,,,,,,,,,,,,,,,,
,,67d00d29e336b9b83ccf9203,2026-03-17_16h09.27.209,kallum_motion_pilot_GIST_update_2,2026.1.1,Win32,60.24096386,67d00d29e336b9b83ccf9203,69b95efdef24cd8a694e89ee,69b9602f9a8e30c1d2d9c09d,0.0649,0.0649,1,17,179,36,1,threeone,,,,,,,,,,,,,,,,,,,,,,,,,,,,,,,,,,,,,,,,,,,,,,,,,,,,,,,,,,,,,,,,,,,,,,,,,,,,,,,,,,,,,,,,,,,,,,,,,,,,,,,,,,,,,,,,,,,,,,,,,,,,,,,,,,,,,,,,,
,,67d00d29e336b9b83ccf9203,2026-03-17_16h09.27.209,kallum_motion_pilot_GIST_update_2,2026.1.1,Win32,60.24096386,67d00d29e336b9b83ccf9203,69b95efdef24cd8a694e89ee,69b9602f9a8e30c1d2d9c09d,0.0651,0.0651,1,18,180,81,1,fiveseven,,,,,,,,,,,,,,,,,,,,,,,,,,,,,,,,,,,,,,,,,,,,,,,,,,,,,,,,,,,,,,,,,,,,,,,,,,,,,,,,,,,,,,,,,,,,,,,,,,,,,,,,,,,,,,,,,,,,,,,,,,,,,,,,,,,,,,,,,
,,67d00d29e336b9b83ccf9203,2026-03-17_16h09.27.209,kallum_motion_pilot_GIST_update_2,2026.1.1,Win32,60.24096386,67d00d29e336b9b83ccf9203,69b95efdef24cd8a694e89ee,69b9602f9a8e30c1d2d9c09d,0.0653,0.0653,1,19,181,132,1,sevenfive,,,,,,,,,,,,,,,,,,,,,,,,,,,,,,,,,,,,,,,,,,,,,,,,,,,,,,,,,,,,,,,,,,,,,,,,,,,,,,,,,,,,,,,,,,,,,,,,,,,,,,,,,,,,,,,,,,,,,,,,,,,,,,,,,,,,,,,,,
,,67d00d29e336b9b83ccf9203,2026-03-17_16h09.27.209,kallum_motion_pilot_GIST_update_2,2026.1.1,Win32,60.24096386,67d00d29e336b9b83ccf9203,69b95efdef24cd8a694e89ee,69b9602f9a8e30c1d2d9c09d,0.0654,0.0654,1,20,182,69,1,threefour,,,,,,,,,,,,,,,,,,,,,,,,,,,,,,,,,,,,,,,,,,,,,,,,,,,,,,,,,,,,,,,,,,,,,,,,,,,,,,,,,,,,,,,,,,,,,,,,,,,,,,,,,,,,,,,,,,,,,,,,,,,,,,,,,,,,,,,,,
,,67d00d29e336b9b83ccf9203,2026-03-17_16h09.27.209,kallum_motion_pilot_GIST_update_2,2026.1.1,Win32,60.24096386,67d00d29e336b9b83ccf9203,69b95efdef24cd8a694e89ee,69b9602f9a8e30c1d2d9c09d,0.0655,0.0656,1,21,183,42,1,twoone,,,,,,,,,,,,,,,,,,,,,,,,,,,,,,,,,,,,,,,,,,,,,,,,,,,,,,,,,,,,,,,,,,,,,,,,,,,,,,,,,,,,,,,,,,,,,,,,,,,,,,,,,,,,,,,,,,,,,,,,,,,,,,,,,,,,,,,,,
,,67d00d29e336b9b83ccf9203,2026-03-17_16h09.27.209,kallum_motion_pilot_GIST_update_2,2026.1.1,Win32,60.24096386,67d00d29e336b9b83ccf9203,69b95efdef24cd8a694e89ee,69b9602f9a8e30c1d2d9c09d,0.0657,0.0657,1,22,184,7,1,fourthree,,,,,,,,,,,,,,,,,,,,,,,,,,,,,,,,,,,,,,,,,,,,,,,,,,,,,,,,,,,,,,,,,,,,,,,,,,,,,,,,,,,,,,,,,,,,,,,,,,,,,,,,,,,,,,,,,,,,,,,,,,,,,,,,,,,,,,,,,
,,67d00d29e336b9b83ccf9203,2026-03-17_16h09.27.209,kallum_motion_pilot_GIST_update_2,2026.1.1,Win32,60.24096386,67d00d29e336b9b83ccf9203,69b95efdef24cd8a694e89ee,69b9602f9a8e30c1d2d9c09d,0.066,0.066,1,23,185,152,1,fivesix,,,,,,,,,,,,,,,,,,,,,,,,,,,,,,,,,,,,,,,,,,,,,,,,,,,,,,,,,,,,,,,,,,,,,,,,,,,,,,,,,,,,,,,,,,,,,,,,,,,,,,,,,,,,,,,,,,,,,,,,,,,,,,,,,,,,,,,,,
,,67d00d29e336b9b83ccf9203,2026-03-17_16h09.27.209,kallum_motion_pilot_GIST_update_2,2026.1.1,Win32,60.24096386,67d00d29e336b9b83ccf9203,69b95efdef24cd8a694e89ee,69b9602f9a8e30c1d2d9c09d,0.0661,0.0661,1,24,186,148,1,sevenfive,,,,,,,,,,,,,,,,,,,,,,,,,,,,,,,,,,,,,,,,,,,,,,,,,,,,,,,,,,,,,,,,,,,,,,,,,,,,,,,,,,,,,,,,,,,,,,,,,,,,,,,,,,,,,,,,,,,,,,,,,,,,,,,,,,,,,,,,,
,,67d00d29e336b9b83ccf9203,2026-03-17_16h09.27.209,kallum_motion_pilot_GIST_update_2,2026.1.1,Win32,60.24096386,67d00d29e336b9b83ccf9203,69b95efdef24cd8a694e89ee,69b9602f9a8e30c1d2d9c09d,0.0664,0.0664,1,25,187,126,1,eightsix,,,,,,,,,,,,,,,,,,,,,,,,,,,,,,,,,,,,,,,,,,,,,,,,,,,,,,,,,,,,,,,,,,,,,,,,,,,,,,,,,,,,,,,,,,,,,,,,,,,,,,,,,,,,,,,,,,,,,,,,,,,,,,,,,,,,,,,,,
,,67d00d29e336b9b83ccf9203,2026-03-17_16h09.27.209,kallum_motion_pilot_GIST_update_2,2026.1.1,Win32,60.24096386,67d00d29e336b9b83ccf9203,69b95efdef24cd8a694e89ee,69b9602f9a8e30c1d2d9c09d,0.0667,0.0667,1,26,188,160,1,fivesix,,,,,,,,,,,,,,,,,,,,,,,,,,,,,,,,,,,,,,,,,,,,,,,,,,,,,,,,,,,,,,,,,,,,,,,,,,,,,,,,,,,,,,,,,,,,,,,,,,,,,,,,,,,,,,,,,,,,,,,,,,,,,,,,,,,,,,,,,
,,67d00d29e336b9b83ccf9203,2026-03-17_16h09.27.209,kallum_motion_pilot_GIST_update_2,2026.1.1,Win32,60.24096386,67d00d29e336b9b83ccf9203,69b95efdef24cd8a694e89ee,69b9602f9a8e30c1d2d9c09d,0.067,0.067,1,27,189,27,1,twofour,,,,,,,,,,,,,,,,,,,,,,,,,,,,,,,,,,,,,,,,,,,,,,,,,,,,,,,,,,,,,,,,,,,,,,,,,,,,,,,,,,,,,,,,,,,,,,,,,,,,,,,,,,,,,,,,,,,,,,,,,,,,,,,,,,,,,,,,,
,,67d00d29e336b9b83ccf9203,2026-03-17_16h09.27.209,kallum_motion_pilot_GIST_update_2,2026.1.1,Win32,60.24096386,67d00d29e336b9b83ccf9203,69b95efdef24cd8a694e89ee,69b9602f9a8e30c1d2d9c09d,0.0672,0.0672,1,28,190,2,1,twoone,,,,,,,,,,,,,,,,,,,,,,,,,,,,,,,,,,,,,,,,,,,,,,,,,,,,,,,,,,,,,,,,,,,,,,,,,,,,,,,,,,,,,,,,,,,,,,,,,,,,,,,,,,,,,,,,,,,,,,,,,,,,,,,,,,,,,,,,,
,,67d00d29e336b9b83ccf9203,2026-03-17_16h09.27.209,kallum_motion_pilot_GIST_update_2,2026.1.1,Win32,60.24096386,67d00d29e336b9b83ccf9203,69b95efdef24cd8a694e89ee,69b9602f9a8e30c1d2d9c09d,0.0674,0.0675,1,29,191,105,1,fiveseven,,,,,,,,,,,,,,,,,,,,,,,,,,,,,,,,,,,,,,,,,,,,,,,,,,,,,,,,,,,,,,,,,,,,,,,,,,,,,,,,,,,,,,,,,,,,,,,,,,,,,,,,,,,,,,,,,,,,,,,,,,,,,,,,,,,,,,,,,
,,67d00d29e336b9b83ccf9203,2026-03-17_16h09.27.209,kallum_motion_pilot_GIST_update_2,2026.1.1,Win32,60.24096386,67d00d29e336b9b83ccf9203,69b95efdef24cd8a694e89ee,69b9602f9a8e30c1d2d9c09d,0.0677,0.0677,1,30,192,153,1,fiveseven,,,,,,,,,,,,,,,,,,,,,,,,,,,,,,,,,,,,,,,,,,,,,,,,,,,,,,,,,,,,,,,,,,,,,,,,,,,,,,,,,,,,,,,,,,,,,,,,,,,,,,,,,,,,,,,,,,,,,,,,,,,,,,,,,,,,,,,,,
,,67d00d29e336b9b83ccf9203,2026-03-17_16h09.27.209,kallum_motion_pilot_GIST_update_2,2026.1.1,Win32,60.24096386,67d00d29e336b9b83ccf9203,69b95efdef24cd8a694e89ee,69b9602f9a8e30c1d2d9c09d,0.068,0.068,1,31,193,16,1,onetwo,,,,,,,,,,,,,,,,,,,,,,,,,,,,,,,,,,,,,,,,,,,,,,,,,,,,,,,,,,,,,,,,,,,,,,,,,,,,,,,,,,,,,,,,,,,,,,,,,,,,,,,,,,,,,,,,,,,,,,,,,,,,,,,,,,,,,,,,,
,,67d00d29e336b9b83ccf9203,2026-03-17_16h09.27.209,kallum_motion_pilot_GIST_update_2,2026.1.1,Win32,60.24096386,67d00d29e336b9b83ccf9203,69b95efdef24cd8a694e89ee,69b9602f9a8e30c1d2d9c09d,0.0683,0.0684,1,32,194,44,1,threeone,,,,,,,,,,,,,,,,,,,,,,,,,,,,,,,,,,,,,,,,,,,,,,,,,,,,,,,,,,,,,,,,,,,,,,,,,,,,,,,,,,,,,,,,,,,,,,,,,,,,,,,,,,,,,,,,,,,,,,,,,,,,,,,,,,,,,,,,,
,,67d00d29e336b9b83ccf9203,2026-03-17_16h09.27.209,kallum_motion_pilot_GIST_update_2,2026.1.1,Win32,60.24096386,67d00d29e336b9b83ccf9203,69b95efdef24cd8a694e89ee,69b9602f9a8e30c1d2d9c09d,0.0686,0.0686,1,33,195,75,1,twofour,,,,,,,,,,,,,,,,,,,,,,,,,,,,,,,,,,,,,,,,,,,,,,,,,,,,,,,,,,,,,,,,,,,,,,,,,,,,,,,,,,,,,,,,,,,,,,,,,,,,,,,,,,,,,,,,,,,,,,,,,,,,,,,,,,,,,,,,,
,,67d00d29e336b9b83ccf9203,2026-03-17_16h09.27.209,kallum_motion_pilot_GIST_update_2,2026.1.1,Win32,60.24096386,67d00d29e336b9b83ccf9203,69b95efdef24cd8a694e89ee,69b9602f9a8e30c1d2d9c09d,0.0688,0.0688,1,34,196,124,1,sevenfive,,,,,,,,,,,,,,,,,,,,,,,,,,,,,,,,,,,,,,,,,,,,,,,,,,,,,,,,,,,,,,,,,,,,,,,,,,,,,,,,,,,,,,,,,,,,,,,,,,,,,,,,,,,,,,,,,,,,,,,,,,,,,,,,,,,,,,,,,
,,67d00d29e336b9b83ccf9203,2026-03-17_16h09.27.209,kallum_motion_pilot_GIST_update_2,2026.1.1,Win32,60.24096386,67d00d29e336b9b83ccf9203,69b95efdef24cd8a694e89ee,69b9602f9a8e30c1d2d9c09d,0.069,0.069,1,35,197,88,1,fivesix,,,,,,,,,,,,,,,,,,,,,,,,,,,,,,,,,,,,,,,,,,,,,,,,,,,,,,,,,,,,,,,,,,,,,,,,,,,,,,,,,,,,,,,,,,,,,,,,,,,,,,,,,,,,,,,,,,,,,,,,,,,,,,,,,,,,,,,,,
,,67d00d29e336b9b83ccf9203,2026-03-17_16h09.27.209,kallum_motion_pilot_GIST_update_2,2026.1.1,Win32,60.24096386,67d00d29e336b9b83ccf9203,69b95efdef24cd8a694e89ee,69b9602f9a8e30c1d2d9c09d,0.0691,0.0691,1,36,198,149,1,seveneight,,,,,,,,,,,,,,,,,,,,,,,,,,,,,,,,,,,,,,,,,,,,,,,,,,,,,,,,,,,,,,,,,,,,,,,,,,,,,,,,,,,,,,,,,,,,,,,,,,,,,,,,,,,,,,,,,,,,,,,,,,,,,,,,,,,,,,,,,
,,67d00d29e336b9b83ccf9203,2026-03-17_16h09.27.209,kallum_motion_pilot_GIST_update_2,2026.1.1,Win32,60.24096386,67d00d29e336b9b83ccf9203,69b95efdef24cd8a694e89ee,69b9602f9a8e30c1d2d9c09d,0.0694,0.0694,1,37,199,125,1,seveneight,,,,,,,,,,,,,,,,,,,,,,,,,,,,,,,,,,,,,,,,,,,,,,,,,,,,,,,,,,,,,,,,,,,,,,,,,,,,,,,,,,,,,,,,,,,,,,,,,,,,,,,,,,,,,,,,,,,,,,,,,,,,,,,,,,,,,,,,,
,,67d00d29e336b9b83ccf9203,2026-03-17_16h09.27.209,kallum_motion_pilot_GIST_update_2,2026.1.1,Win32,60.24096386,67d00d29e336b9b83ccf9203,69b95efdef24cd8a694e89ee,69b9602f9a8e30c1d2d9c09d,0.0696,0.0696,1,38,200,108,1,sevenfive,,,,,,,,,,,,,,,,,,,,,,,,,,,,,,,,,,,,,,,,,,,,,,,,,,,,,,,,,,,,,,,,,,,,,,,,,,,,,,,,,,,,,,,,,,,,,,,,,,,,,,,,,,,,,,,,,,,,,,,,,,,,,,,,,,,,,,,,,
,,67d00d29e336b9b83ccf9203,2026-03-17_16h09.27.209,kallum_motion_pilot_GIST_update_2,2026.1.1,Win32,60.24096386,67d00d29e336b9b83ccf9203,69b95efdef24cd8a694e89ee,69b9602f9a8e30c1d2d9c09d,0.0697,0.0697,1,39,201,8,1,onetwo,,,,,,,,,,,,,,,,,,,,,,,,,,,,,,,,,,,,,,,,,,,,,,,,,,,,,,,,,,,,,,,,,,,,,,,,,,,,,,,,,,,,,,,,,,,,,,,,,,,,,,,,,,,,,,,,,,,,,,,,,,,,,,,,,,,,,,,,,
,,67d00d29e336b9b83ccf9203,2026-03-17_16h09.27.209,kallum_motion_pilot_GIST_update_2,2026.1.1,Win32,60.24096386,67d00d29e336b9b83ccf9203,69b95efdef24cd8a694e89ee,69b9602f9a8e30c1d2d9c09d,0.0699,0.0699,1,40,202,102,1,eightsix,,,,,,,,,,,,,,,,,,,,,,,,,,,,,,,,,,,,,,,,,,,,,,,,,,,,,,,,,,,,,,,,,,,,,,,,,,,,,,,,,,,,,,,,,,,,,,,,,,,,,,,,,,,,,,,,,,,,,,,,,,,,,,,,,,,,,,,,,
,,67d00d29e336b9b83ccf9203,2026-03-17_16h09.27.209,kallum_motion_pilot_GIST_update_2,2026.1.1,Win32,60.24096386,67d00d29e336b9b83ccf9203,69b95efdef24cd8a694e89ee,69b9602f9a8e30c1d2d9c09d,0.0701,0.0701,1,41,203,139,1,sixeight,,,,,,,,,,,,,,,,,,,,,,,,,,,,,,,,,,,,,,,,,,,,,,,,,,,,,,,,,,,,,,,,,,,,,,,,,,,,,,,,,,,,,,,,,,,,,,,,,,,,,,,,,,,,,,,,,,,,,,,,,,,,,,,,,,,,,,,,,
,,67d00d29e336b9b83ccf9203,2026-03-17_16h09.27.209,kallum_motion_pilot_GIST_update_2,2026.1.1,Win32,60.24096386,67d00d29e336b9b83ccf9203,69b95efdef24cd8a694e89ee,69b9602f9a8e30c1d2d9c09d,0.0703,0.0703,1,42,204,161,1,fiveseven,,,,,,,,,,,,,,,,,,,,,,,,,,,,,,,,,,,,,,,,,,,,,,,,,,,,,,,,,,,,,,,,,,,,,,,,,,,,,,,,,,,,,,,,,,,,,,,,,,,,,,,,,,,,,,,,,,,,,,,,,,,,,,,,,,,,,,,,,
,,67d00d29e336b9b83ccf9203,2026-03-17_16h09.27.209,kallum_motion_pilot_GIST_update_2,2026.1.1,Win32,60.24096386,67d00d29e336b9b83ccf9203,69b95efdef24cd8a694e89ee,69b9602f9a8e30c1d2d9c09d,0.071,0.071,1,43,205,136,1,fivesix,,,,,,,,,,,,,,,,,,,,,,,,,,,,,,,,,,,,,,,,,,,,,,,,,,,,,,,,,,,,,,,,,,,,,,,,,,,,,,,,,,,,,,,,,,,,,,,,,,,,,,,,,,,,,,,,,,,,,,,,,,,,,,,,,,,,,,,,,
,,67d00d29e336b9b83ccf9203,2026-03-17_16h09.27.209,kallum_motion_pilot_GIST_update_2,2026.1.1,Win32,60.24096386,67d00d29e336b9b83ccf9203,69b95efdef24cd8a694e89ee,69b9602f9a8e30c1d2d9c09d,0.0718,0.0718,1,44,206,78,1,fourtwo,,,,,,,,,,,,,,,,,,,,,,,,,,,,,,,,,,,,,,,,,,,,,,,,,,,,,,,,,,,,,,,,,,,,,,,,,,,,,,,,,,,,,,,,,,,,,,,,,,,,,,,,,,,,,,,,,,,,,,,,,,,,,,,,,,,,,,,,,
,,67d00d29e336b9b83ccf9203,2026-03-17_16h09.27.209,kallum_motion_pilot_GIST_update_2,2026.1.1,Win32,60.24096386,67d00d29e336b9b83ccf9203,69b95efdef24cd8a694e89ee,69b9602f9a8e30c1d2d9c09d,0.0721,0.0722,1,45,207,122,1,sixfive,,,,,,,,,,,,,,,,,,,,,,,,,,,,,,,,,,,,,,,,,,,,,,,,,,,,,,,,,,,,,,,,,,,,,,,,,,,,,,,,,,,,,,,,,,,,,,,,,,,,,,,,,,,,,,,,,,,,,,,,,,,,,,,,,,,,,,,,,
,,67d00d29e336b9b83ccf9203,2026-03-17_16h09.27.209,kallum_motion_pilot_GIST_update_2,2026.1.1,Win32,60.24096386,67d00d29e336b9b83ccf9203,69b95efdef24cd8a694e89ee,69b9602f9a8e30c1d2d9c09d,0.0724,0.0725,1,46,208,151,1,eightseven,,,,,,,,,,,,,,,,,,,,,,,,,,,,,,,,,,,,,,,,,,,,,,,,,,,,,,,,,,,,,,,,,,,,,,,,,,,,,,,,,,,,,,,,,,,,,,,,,,,,,,,,,,,,,,,,,,,,,,,,,,,,,,,,,,,,,,,,,
,,67d00d29e336b9b83ccf9203,2026-03-17_16h09.27.209,kallum_motion_pilot_GIST_update_2,2026.1.1,Win32,60.24096386,67d00d29e336b9b83ccf9203,69b95efdef24cd8a694e89ee,69b9602f9a8e30c1d2d9c09d,0.0728,0.0728,1,47,209,19,1,twofour,,,,,,,,,,,,,,,,,,,,,,,,,,,,,,,,,,,,,,,,,,,,,,,,,,,,,,,,,,,,,,,,,,,,,,,,,,,,,,,,,,,,,,,,,,,,,,,,,,,,,,,,,,,,,,,,,,,,,,,,,,,,,,,,,,,,,,,,,
,,67d00d29e336b9b83ccf9203,2026-03-17_16h09.27.209,kallum_motion_pilot_GIST_update_2,2026.1.1,Win32,60.24096386,67d00d29e336b9b83ccf9203,69b95efdef24cd8a694e89ee,69b9602f9a8e30c1d2d9c09d,0.0731,0.0731,1,48,210,13,1,threefour,,,,,,,,,,,,,,,,,,,,,,,,,,,,,,,,,,,,,,,,,,,,,,,,,,,,,,,,,,,,,,,,,,,,,,,,,,,,,,,,,,,,,,,,,,,,,,,,,,,,,,,,,,,,,,,,,,,,,,,,,,,,,,,,,,,,,,,,,
,,67d00d29e336b9b83ccf9203,2026-03-17_16h09.27.209,kallum_motion_pilot_GIST_update_2,2026.1.1,Win32,60.24096386,67d00d29e336b9b83ccf9203,69b95efdef24cd8a694e89ee,69b9602f9a8e30c1d2d9c09d,0.0734,0.0734,1,49,211,101,1,seveneight,,,,,,,,,,,,,,,,,,,,,,,,,,,,,,,,,,,,,,,,,,,,,,,,,,,,,,,,,,,,,,,,,,,,,,,,,,,,,,,,,,,,,,,,,,,,,,,,,,,,,,,,,,,,,,,,,,,,,,,,,,,,,,,,,,,,,,,,,
,,67d00d29e336b9b83ccf9203,2026-03-17_16h09.27.209,kallum_motion_pilot_GIST_update_2,2026.1.1,Win32,60.24096386,67d00d29e336b9b83ccf9203,69b95efdef24cd8a694e89ee,69b9602f9a8e30c1d2d9c09d,0.0736,0.0736,1,50,212,65,1,onethree,,,,,,,,,,,,,,,,,,,,,,,,,,,,,,,,,,,,,,,,,,,,,,,,,,,,,,,,,,,,,,,,,,,,,,,,,,,,,,,,,,,,,,,,,,,,,,,,,,,,,,,,,,,,,,,,,,,,,,,,,,,,,,,,,,,,,,,,,
,,67d00d29e336b9b83ccf9203,2026-03-17_16h09.27.209,kallum_motion_pilot_GIST_update_2,2026.1.1,Win32,60.24096386,67d00d29e336b9b83ccf9203,69b95efdef24cd8a694e89ee,69b9602f9a8e30c1d2d9c09d,0.0739,0.0739,1,51,213,83,1,sixeight,,,,,,,,,,,,,,,,,,,,,,,,,,,,,,,,,,,,,,,,,,,,,,,,,,,,,,,,,,,,,,,,,,,,,,,,,,,,,,,,,,,,,,,,,,,,,,,,,,,,,,,,,,,,,,,,,,,,,,,,,,,,,,,,,,,,,,,,,
,,67d00d29e336b9b83ccf9203,2026-03-17_16h09.27.209,kallum_motion_pilot_GIST_update_2,2026.1.1,Win32,60.24096386,67d00d29e336b9b83ccf9203,69b95efdef24cd8a694e89ee,69b9602f9a8e30c1d2d9c09d,0.074,0.0741,1,52,214,146,1,sixfive,,,,,,,,,,,,,,,,,,,,,,,,,,,,,,,,,,,,,,,,,,,,,,,,,,,,,,,,,,,,,,,,,,,,,,,,,,,,,,,,,,,,,,,,,,,,,,,,,,,,,,,,,,,,,,,,,,,,,,,,,,,,,,,,,,,,,,,,,
,,67d00d29e336b9b83ccf9203,2026-03-17_16h09.27.209,kallum_motion_pilot_GIST_update_2,2026.1.1,Win32,60.24096386,67d00d29e336b9b83ccf9203,69b95efdef24cd8a694e89ee,69b9602f9a8e30c1d2d9c09d,0.0742,0.0742,1,53,215,45,1,threefour,,,,,,,,,,,,,,,,,,,,,,,,,,,,,,,,,,,,,,,,,,,,,,,,,,,,,,,,,,,,,,,,,,,,,,,,,,,,,,,,,,,,,,,,,,,,,,,,,,,,,,,,,,,,,,,,,,,,,,,,,,,,,,,,,,,,,,,,,
,,67d00d29e336b9b83ccf9203,2026-03-17_16h09.27.209,kallum_motion_pilot_GIST_update_2,2026.1.1,Win32,60.24096386,67d00d29e336b9b83ccf9203,69b95efdef24cd8a694e89ee,69b9602f9a8e30c1d2d9c09d,0.0745,0.0745,1,54,216,17,1,onethree,,,,,,,,,,,,,,,,,,,,,,,,,,,,,,,,,,,,,,,,,,,,,,,,,,,,,,,,,,,,,,,,,,,,,,,,,,,,,,,,,,,,,,,,,,,,,,,,,,,,,,,,,,,,,,,,,,,,,,,,,,,,,,,,,,,,,,,,,
,,67d00d29e336b9b83ccf9203,2026-03-17_16h09.27.209,kallum_motion_pilot_GIST_update_2,2026.1.1,Win32,60.24096386,67d00d29e336b9b83ccf9203,69b95efdef24cd8a694e89ee,69b9602f9a8e30c1d2d9c09d,0.0747,0.0747,1,55,217,68,1,threeone,,,,,,,,,,,,,,,,,,,,,,,,,,,,,,,,,,,,,,,,,,,,,,,,,,,,,,,,,,,,,,,,,,,,,,,,,,,,,,,,,,,,,,,,,,,,,,,,,,,,,,,,,,,,,,,,,,,,,,,,,,,,,,,,,,,,,,,,,
,,67d00d29e336b9b83ccf9203,2026-03-17_16h09.27.209,kallum_motion_pilot_GIST_update_2,2026.1.1,Win32,60.24096386,67d00d29e336b9b83ccf9203,69b95efdef24cd8a694e89ee,69b9602f9a8e30c1d2d9c09d,0.0749,0.0749,1,56,218,14,1,fourtwo,,,,,,,,,,,,,,,,,,,,,,,,,,,,,,,,,,,,,,,,,,,,,,,,,,,,,,,,,,,,,,,,,,,,,,,,,,,,,,,,,,,,,,,,,,,,,,,,,,,,,,,,,,,,,,,,,,,,,,,,,,,,,,,,,,,,,,,,,
,,67d00d29e336b9b83ccf9203,2026-03-17_16h09.27.209,kallum_motion_pilot_GIST_update_2,2026.1.1,Win32,60.24096386,67d00d29e336b9b83ccf9203,69b95efdef24cd8a694e89ee,69b9602f9a8e30c1d2d9c09d,0.0751,0.0751,1,57,219,130,1,sixfive,,,,,,,,,,,,,,,,,,,,,,,,,,,,,,,,,,,,,,,,,,,,,,,,,,,,,,,,,,,,,,,,,,,,,,,,,,,,,,,,,,,,,,,,,,,,,,,,,,,,,,,,,,,,,,,,,,,,,,,,,,,,,,,,,,,,,,,,,
,,67d00d29e336b9b83ccf9203,2026-03-17_16h09.27.209,kallum_motion_pilot_GIST_update_2,2026.1.1,Win32,60.24096386,67d00d29e336b9b83ccf9203,69b95efdef24cd8a694e89ee,69b9602f9a8e30c1d2d9c09d,0.0752,0.0752,1,58,220,62,1,fourtwo,,,,,,,,,,,,,,,,,,,,,,,,,,,,,,,,,,,,,,,,,,,,,,,,,,,,,,,,,,,,,,,,,,,,,,,,,,,,,,,,,,,,,,,,,,,,,,,,,,,,,,,,,,,,,,,,,,,,,,,,,,,,,,,,,,,,,,,,,
,,67d00d29e336b9b83ccf9203,2026-03-17_16h09.27.209,kallum_motion_pilot_GIST_update_2,2026.1.1,Win32,60.24096386,67d00d29e336b9b83ccf9203,69b95efdef24cd8a694e89ee,69b9602f9a8e30c1d2d9c09d,0.0754,0.0754,1,59,221,145,1,fiveseven,,,,,,,,,,,,,,,,,,,,,,,,,,,,,,,,,,,,,,,,,,,,,,,,,,,,,,,,,,,,,,,,,,,,,,,,,,,,,,,,,,,,,,,,,,,,,,,,,,,,,,,,,,,,,,,,,,,,,,,,,,,,,,,,,,,,,,,,,
,,67d00d29e336b9b83ccf9203,2026-03-17_16h09.27.209,kallum_motion_pilot_GIST_update_2,2026.1.1,Win32,60.24096386,67d00d29e336b9b83ccf9203,69b95efdef24cd8a694e89ee,69b9602f9a8e30c1d2d9c09d,0.0757,0.0757,1,60,222,114,1,sixfive,,,,,,,,,,,,,,,,,,,,,,,,,,,,,,,,,,,,,,,,,,,,,,,,,,,,,,,,,,,,,,,,,,,,,,,,,,,,,,,,,,,,,,,,,,,,,,,,,,,,,,,,,,,,,,,,,,,,,,,,,,,,,,,,,,,,,,,,,
,,67d00d29e336b9b83ccf9203,2026-03-17_16h09.27.209,kallum_motion_pilot_GIST_update_2,2026.1.1,Win32,60.24096386,67d00d29e336b9b83ccf9203,69b95efdef24cd8a694e89ee,69b9602f9a8e30c1d2d9c09d,0.0759,0.0759,1,61,223,109,1,seveneight,,,,,,,,,,,,,,,,,,,,,,,,,,,,,,,,,,,,,,,,,,,,,,,,,,,,,,,,,,,,,,,,,,,,,,,,,,,,,,,,,,,,,,,,,,,,,,,,,,,,,,,,,,,,,,,,,,,,,,,,,,,,,,,,,,,,,,,,,
,,67d00d29e336b9b83ccf9203,2026-03-17_16h09.27.209,kallum_motion_pilot_GIST_update_2,2026.1.1,Win32,60.24096386,67d00d29e336b9b83ccf9203,69b95efdef24cd8a694e89ee,69b9602f9a8e30c1d2d9c09d,0.076,0.0761,1,62,224,92,1,sevenfive,,,,,,,,,,,,,,,,,,,,,,,,,,,,,,,,,,,,,,,,,,,,,,,,,,,,,,,,,,,,,,,,,,,,,,,,,,,,,,,,,,,,,,,,,,,,,,,,,,,,,,,,,,,,,,,,,,,,,,,,,,,,,,,,,,,,,,,,,
,,67d00d29e336b9b83ccf9203,2026-03-17_16h09.27.209,kallum_motion_pilot_GIST_update_2,2026.1.1,Win32,60.24096386,67d00d29e336b9b83ccf9203,69b95efdef24cd8a694e89ee,69b9602f9a8e30c1d2d9c09d,0.0763,0.0763,1,63,225,147,1,sixeight,,,,,,,,,,,,,,,,,,,,,,,,,,,,,,,,,,,,,,,,,,,,,,,,,,,,,,,,,,,,,,,,,,,,,,,,,,,,,,,,,,,,,,,,,,,,,,,,,,,,,,,,,,,,,,,,,,,,,,,,,,,,,,,,,,,,,,,,,
,,67d00d29e336b9b83ccf9203,2026-03-17_16h09.27.209,kallum_motion_pilot_GIST_update_2,2026.1.1,Win32,60.24096386,67d00d29e336b9b83ccf9203,69b95efdef24cd8a694e89ee,69b9602f9a8e30c1d2d9c09d,0.0765,0.0765,1,64,226,29,1,threefour,,,,,,,,,,,,,,,,,,,,,,,,,,,,,,,,,,,,,,,,,,,,,,,,,,,,,,,,,,,,,,,,,,,,,,,,,,,,,,,,,,,,,,,,,,,,,,,,,,,,,,,,,,,,,,,,,,,,,,,,,,,,,,,,,,,,,,,,,
,,67d00d29e336b9b83ccf9203,2026-03-17_16h09.27.209,kallum_motion_pilot_GIST_update_2,2026.1.1,Win32,60.24096386,67d00d29e336b9b83ccf9203,69b95efdef24cd8a694e89ee,69b9602f9a8e30c1d2d9c09d,0.0767,0.0767,1,65,227,93,1,seveneight,,,,,,,,,,,,,,,,,,,,,,,,,,,,,,,,,,,,,,,,,,,,,,,,,,,,,,,,,,,,,,,,,,,,,,,,,,,,,,,,,,,,,,,,,,,,,,,,,,,,,,,,,,,,,,,,,,,,,,,,,,,,,,,,,,,,,,,,,
,,67d00d29e336b9b83ccf9203,2026-03-17_16h09.27.209,kallum_motion_pilot_GIST_update_2,2026.1.1,Win32,60.24096386,67d00d29e336b9b83ccf9203,69b95efdef24cd8a694e89ee,69b9602f9a8e30c1d2d9c09d,0.0769,0.0769,1,66,228,58,1,twoone,,,,,,,,,,,,,,,,,,,,,,,,,,,,,,,,,,,,,,,,,,,,,,,,,,,,,,,,,,,,,,,,,,,,,,,,,,,,,,,,,,,,,,,,,,,,,,,,,,,,,,,,,,,,,,,,,,,,,,,,,,,,,,,,,,,,,,,,,
,,67d00d29e336b9b83ccf9203,2026-03-17_16h09.27.209,kallum_motion_pilot_GIST_update_2,2026.1.1,Win32,60.24096386,67d00d29e336b9b83ccf9203,69b95efdef24cd8a694e89ee,69b9602f9a8e30c1d2d9c09d,0.0771,0.0771,1,67,229,71,1,fourthree,,,,,,,,,,,,,,,,,,,,,,,,,,,,,,,,,,,,,,,,,,,,,,,,,,,,,,,,,,,,,,,,,,,,,,,,,,,,,,,,,,,,,,,,,,,,,,,,,,,,,,,,,,,,,,,,,,,,,,,,,,,,,,,,,,,,,,,,,
,,67d00d29e336b9b83ccf9203,2026-03-17_16h09.27.209,kallum_motion_pilot_GIST_update_2,2026.1.1,Win32,60.24096386,67d00d29e336b9b83ccf9203,69b95efdef24cd8a694e89ee,69b9602f9a8e30c1d2d9c09d,0.0772,0.0772,1,68,230,33,1,onethree,,,,,,,,,,,,,,,,,,,,,,,,,,,,,,,,,,,,,,,,,,,,,,,,,,,,,,,,,,,,,,,,,,,,,,,,,,,,,,,,,,,,,,,,,,,,,,,,,,,,,,,,,,,,,,,,,,,,,,,,,,,,,,,,,,,,,,,,,
,,67d00d29e336b9b83ccf9203,2026-03-17_16h09.27.209,kallum_motion_pilot_GIST_update_2,2026.1.1,Win32,60.24096386,67d00d29e336b9b83ccf9203,69b95efdef24cd8a694e89ee,69b9602f9a8e30c1d2d9c09d,0.0775,0.0775,1,69,231,49,1,onethree,,,,,,,,,,,,,,,,,,,,,,,,,,,,,,,,,,,,,,,,,,,,,,,,,,,,,,,,,,,,,,,,,,,,,,,,,,,,,,,,,,,,,,,,,,,,,,,,,,,,,,,,,,,,,,,,,,,,,,,,,,,,,,,,,,,,,,,,,
,,67d00d29e336b9b83ccf9203,2026-03-17_16h09.27.209,kallum_motion_pilot_GIST_update_2,2026.1.1,Win32,60.24096386,67d00d29e336b9b83ccf9203,69b95efdef24cd8a694e89ee,69b9602f9a8e30c1d2d9c09d,0.0776,0.0776,1,70,232,3,1,twofour,,,,,,,,,,,,,,,,,,,,,,,,,,,,,,,,,,,,,,,,,,,,,,,,,,,,,,,,,,,,,,,,,,,,,,,,,,,,,,,,,,,,,,,,,,,,,,,,,,,,,,,,,,,,,,,,,,,,,,,,,,,,,,,,,,,,,,,,,
,,67d00d29e336b9b83ccf9203,2026-03-17_16h09.27.209,kallum_motion_pilot_GIST_update_2,2026.1.1,Win32,60.24096386,67d00d29e336b9b83ccf9203,69b95efdef24cd8a694e89ee,69b9602f9a8e30c1d2d9c09d,0.0779,0.0779,1,71,233,22,1,fourtwo,,,,,,,,,,,,,,,,,,,,,,,,,,,,,,,,,,,,,,,,,,,,,,,,,,,,,,,,,,,,,,,,,,,,,,,,,,,,,,,,,,,,,,,,,,,,,,,,,,,,,,,,,,,,,,,,,,,,,,,,,,,,,,,,,,,,,,,,,
,,67d00d29e336b9b83ccf9203,2026-03-17_16h09.27.209,kallum_motion_pilot_GIST_update_2,2026.1.1,Win32,60.24096386,67d00d29e336b9b83ccf9203,69b95efdef24cd8a694e89ee,69b9602f9a8e30c1d2d9c09d,0.0781,0.0781,1,72,234,32,1,onetwo,,,,,,,,,,,,,,,,,,,,,,,,,,,,,,,,,,,,,,,,,,,,,,,,,,,,,,,,,,,,,,,,,,,,,,,,,,,,,,,,,,,,,,,,,,,,,,,,,,,,,,,,,,,,,,,,,,,,,,,,,,,,,,,,,,,,,,,,,
,,67d00d29e336b9b83ccf9203,2026-03-17_16h09.27.209,kallum_motion_pilot_GIST_update_2,2026.1.1,Win32,60.24096386,67d00d29e336b9b83ccf9203,69b95efdef24cd8a694e89ee,69b9602f9a8e30c1d2d9c09d,0.0783,0.0783,1,73,235,113,1,fiveseven,,,,,,,,,,,,,,,,,,,,,,,,,,,,,,,,,,,,,,,,,,,,,,,,,,,,,,,,,,,,,,,,,,,,,,,,,,,,,,,,,,,,,,,,,,,,,,,,,,,,,,,,,,,,,,,,,,,,,,,,,,,,,,,,,,,,,,,,,
,,67d00d29e336b9b83ccf9203,2026-03-17_16h09.27.209,kallum_motion_pilot_GIST_update_2,2026.1.1,Win32,60.24096386,67d00d29e336b9b83ccf9203,69b95efdef24cd8a694e89ee,69b9602f9a8e30c1d2d9c09d,0.0785,0.0786,1,74,236,112,1,fivesix,,,,,,,,,,,,,,,,,,,,,,,,,,,,,,,,,,,,,,,,,,,,,,,,,,,,,,,,,,,,,,,,,,,,,,,,,,,,,,,,,,,,,,,,,,,,,,,,,,,,,,,,,,,,,,,,,,,,,,,,,,,,,,,,,,,,,,,,,
,,67d00d29e336b9b83ccf9203,2026-03-17_16h09.27.209,kallum_motion_pilot_GIST_update_2,2026.1.1,Win32,60.24096386,67d00d29e336b9b83ccf9203,69b95efdef24cd8a694e89ee,69b9602f9a8e30c1d2d9c09d,0.0787,0.0787,1,75,237,67,1,twofour,,,,,,,,,,,,,,,,,,,,,,,,,,,,,,,,,,,,,,,,,,,,,,,,,,,,,,,,,,,,,,,,,,,,,,,,,,,,,,,,,,,,,,,,,,,,,,,,,,,,,,,,,,,,,,,,,,,,,,,,,,,,,,,,,,,,,,,,,
,,67d00d29e336b9b83ccf9203,2026-03-17_16h09.27.209,kallum_motion_pilot_GIST_update_2,2026.1.1,Win32,60.24096386,67d00d29e336b9b83ccf9203,69b95efdef24cd8a694e89ee,69b9602f9a8e30c1d2d9c09d,0.0789,0.0789,1,76,238,118,1,eightsix,,,,,,,,,,,,,,,,,,,,,,,,,,,,,,,,,,,,,,,,,,,,,,,,,,,,,,,,,,,,,,,,,,,,,,,,,,,,,,,,,,,,,,,,,,,,,,,,,,,,,,,,,,,,,,,,,,,,,,,,,,,,,,,,,,,,,,,,,
,,67d00d29e336b9b83ccf9203,2026-03-17_16h09.27.209,kallum_motion_pilot_GIST_update_2,2026.1.1,Win32,60.24096386,67d00d29e336b9b83ccf9203,69b95efdef24cd8a694e89ee,69b9602f9a8e30c1d2d9c09d,0.0791,0.0791,1,77,239,61,1,threefour,,,,,,,,,,,,,,,,,,,,,,,,,,,,,,,,,,,,,,,,,,,,,,,,,,,,,,,,,,,,,,,,,,,,,,,,,,,,,,,,,,,,,,,,,,,,,,,,,,,,,,,,,,,,,,,,,,,,,,,,,,,,,,,,,,,,,,,,,
,,67d00d29e336b9b83ccf9203,2026-03-17_16h09.27.209,kallum_motion_pilot_GIST_update_2,2026.1.1,Win32,60.24096386,67d00d29e336b9b83ccf9203,69b95efdef24cd8a694e89ee,69b9602f9a8e30c1d2d9c09d,0.0792,0.0792,1,78,240,46,1,fourtwo,,,,,,,,,,,,,,,,,,,,,,,,,,,,,,,,,,,,,,,,,,,,,,,,,,,,,,,,,,,,,,,,,,,,,,,,,,,,,,,,,,,,,,,,,,,,,,,,,,,,,,,,,,,,,,,,,,,,,,,,,,,,,,,,,,,,,,,,,
,,67d00d29e336b9b83ccf9203,2026-03-17_16h09.27.209,kallum_motion_pilot_GIST_update_2,2026.1.1,Win32,60.24096386,67d00d29e336b9b83ccf9203,69b95efdef24cd8a694e89ee,69b9602f9a8e30c1d2d9c09d,0.0795,0.0795,1,79,241,35,1,twofour,,,,,,,,,,,,,,,,,,,,,,,,,,,,,,,,,,,,,,,,,,,,,,,,,,,,,,,,,,,,,,,,,,,,,,,,,,,,,,,,,,,,,,,,,,,,,,,,,,,,,,,,,,,,,,,,,,,,,,,,,,,,,,,,,,,,,,,,,
,,67d00d29e336b9b83ccf9203,2026-03-17_16h09.27.209,kallum_motion_pilot_GIST_update_2,2026.1.1,Win32,60.24096386,67d00d29e336b9b83ccf9203,69b95efdef24cd8a694e89ee,69b9602f9a8e30c1d2d9c09d,0.0796,0.0796,1,80,242,106,1,sixfive,,,,,,,,,,,,,,,,,,,,,,,,,,,,,,,,,,,,,,,,,,,,,,,,,,,,,,,,,,,,,,,,,,,,,,,,,,,,,,,,,,,,,,,,,,,,,,,,,,,,,,,,,,,,,,,,,,,,,,,,,,,,,,,,,,,,,,,,,
,,67d00d29e336b9b83ccf9203,2026-03-17_16h09.27.209,kallum_motion_pilot_GIST_update_2,2026.1.1,Win32,60.24096386,67d00d29e336b9b83ccf9203,69b95efdef24cd8a694e89ee,69b9602f9a8e30c1d2d9c09d,0.0798,0.0798,1,81,243,77,1,threefour,,,,,,,,,,,,,,,,,,,,,,,,,,,,,,,,,,,,,,,,,,,,,,,,,,,,,,,,,,,,,,,,,,,,,,,,,,,,,,,,,,,,,,,,,,,,,,,,,,,,,,,,,,,,,,,,,,,,,,,,,,,,,,,,,,,,,,,,,
,,67d00d29e336b9b83ccf9203,2026-03-17_16h09.27.209,kallum_motion_pilot_GIST_update_2,2026.1.1,Win32,60.24096386,67d00d29e336b9b83ccf9203,69b95efdef24cd8a694e89ee,69b9602f9a8e30c1d2d9c09d,0.08,0.08,1,82,244,121,1,fiveseven,,,,,,,,,,,,,,,,,,,,,,,,,,,,,,,,,,,,,,,,,,,,,,,,,,,,,,,,,,,,,,,,,,,,,,,,,,,,,,,,,,,,,,,,,,,,,,,,,,,,,,,,,,,,,,,,,,,,,,,,,,,,,,,,,,,,,,,,,
,,67d00d29e336b9b83ccf9203,2026-03-17_16h09.27.209,kallum_motion_pilot_GIST_update_2,2026.1.1,Win32,60.24096386,67d00d29e336b9b83ccf9203,69b95efdef24cd8a694e89ee,69b9602f9a8e30c1d2d9c09d,0.0802,0.0802,1,83,245,90,1,sixfive,,,,,,,,,,,,,,,,,,,,,,,,,,,,,,,,,,,,,,,,,,,,,,,,,,,,,,,,,,,,,,,,,,,,,,,,,,,,,,,,,,,,,,,,,,,,,,,,,,,,,,,,,,,,,,,,,,,,,,,,,,,,,,,,,,,,,,,,,
,,67d00d29e336b9b83ccf9203,2026-03-17_16h09.27.209,kallum_motion_pilot_GIST_update_2,2026.1.1,Win32,60.24096386,67d00d29e336b9b83ccf9203,69b95efdef24cd8a694e89ee,69b9602f9a8e30c1d2d9c09d,0.0804,0.0804,1,84,246,94,1,eightsix,,,,,,,,,,,,,,,,,,,,,,,,,,,,,,,,,,,,,,,,,,,,,,,,,,,,,,,,,,,,,,,,,,,,,,,,,,,,,,,,,,,,,,,,,,,,,,,,,,,,,,,,,,,,,,,,,,,,,,,,,,,,,,,,,,,,,,,,,
,,67d00d29e336b9b83ccf9203,2026-03-17_16h09.27.209,kallum_motion_pilot_GIST_update_2,2026.1.1,Win32,60.24096386,67d00d29e336b9b83ccf9203,69b95efdef24cd8a694e89ee,69b9602f9a8e30c1d2d9c09d,0.0806,0.0806,1,85,247,57,1,onethree,,,,,,,,,,,,,,,,,,,,,,,,,,,,,,,,,,,,,,,,,,,,,,,,,,,,,,,,,,,,,,,,,,,,,,,,,,,,,,,,,,,,,,,,,,,,,,,,,,,,,,,,,,,,,,,,,,,,,,,,,,,,,,,,,,,,,,,,,
,,67d00d29e336b9b83ccf9203,2026-03-17_16h09.27.209,kallum_motion_pilot_GIST_update_2,2026.1.1,Win32,60.24096386,67d00d29e336b9b83ccf9203,69b95efdef24cd8a694e89ee,69b9602f9a8e30c1d2d9c09d,0.0808,0.0808,1,86,248,28,1,threeone,,,,,,,,,,,,,,,,,,,,,,,,,,,,,,,,,,,,,,,,,,,,,,,,,,,,,,,,,,,,,,,,,,,,,,,,,,,,,,,,,,,,,,,,,,,,,,,,,,,,,,,,,,,,,,,,,,,,,,,,,,,,,,,,,,,,,,,,,
,,67d00d29e336b9b83ccf9203,2026-03-17_16h09.27.209,kallum_motion_pilot_GIST_update_2,2026.1.1,Win32,60.24096386,67d00d29e336b9b83ccf9203,69b95efdef24cd8a694e89ee,69b9602f9a8e30c1d2d9c09d,0.0809,0.0809,1,87,249,26,1,twoone,,,,,,,,,,,,,,,,,,,,,,,,,,,,,,,,,,,,,,,,,,,,,,,,,,,,,,,,,,,,,,,,,,,,,,,,,,,,,,,,,,,,,,,,,,,,,,,,,,,,,,,,,,,,,,,,,,,,,,,,,,,,,,,,,,,,,,,,,
,,67d00d29e336b9b83ccf9203,2026-03-17_16h09.27.209,kallum_motion_pilot_GIST_update_2,2026.1.1,Win32,60.24096386,67d00d29e336b9b83ccf9203,69b95efdef24cd8a694e89ee,69b9602f9a8e30c1d2d9c09d,0.0812,0.0812,1,88,250,156,1,sevenfive,,,,,,,,,,,,,,,,,,,,,,,,,,,,,,,,,,,,,,,,,,,,,,,,,,,,,,,,,,,,,,,,,,,,,,,,,,,,,,,,,,,,,,,,,,,,,,,,,,,,,,,,,,,,,,,,,,,,,,,,,,,,,,,,,,,,,,,,,
,,67d00d29e336b9b83ccf9203,2026-03-17_16h09.27.209,kallum_motion_pilot_GIST_update_2,2026.1.1,Win32,60.24096386,67d00d29e336b9b83ccf9203,69b95efdef24cd8a694e89ee,69b9602f9a8e30c1d2d9c09d,0.0814,0.0814,1,89,251,15,1,fourthree,,,,,,,,,,,,,,,,,,,,,,,,,,,,,,,,,,,,,,,,,,,,,,,,,,,,,,,,,,,,,,,,,,,,,,,,,,,,,,,,,,,,,,,,,,,,,,,,,,,,,,,,,,,,,,,,,,,,,,,,,,,,,,,,,,,,,,,,,
,,67d00d29e336b9b83ccf9203,2026-03-17_16h09.27.209,kallum_motion_pilot_GIST_update_2,2026.1.1,Win32,60.24096386,67d00d29e336b9b83ccf9203,69b95efdef24cd8a694e89ee,69b9602f9a8e30c1d2d9c09d,0.0815,0.0815,1,90,252,150,1,eightsix,,,,,,,,,,,,,,,,,,,,,,,,,,,,,,,,,,,,,,,,,,,,,,,,,,,,,,,,,,,,,,,,,,,,,,,,,,,,,,,,,,,,,,,,,,,,,,,,,,,,,,,,,,,,,,,,,,,,,,,,,,,,,,,,,,,,,,,,,
,,67d00d29e336b9b83ccf9203,2026-03-17_16h09.27.209,kallum_motion_pilot_GIST_update_2,2026.1.1,Win32,60.24096386,67d00d29e336b9b83ccf9203,69b95efdef24cd8a694e89ee,69b9602f9a8e30c1d2d9c09d,0.0818,0.0818,1,91,253,25,1,onethree,,,,,,,,,,,,,,,,,,,,,,,,,,,,,,,,,,,,,,,,,,,,,,,,,,,,,,,,,,,,,,,,,,,,,,,,,,,,,,,,,,,,,,,,,,,,,,,,,,,,,,,,,,,,,,,,,,,,,,,,,,,,,,,,,,,,,,,,,
,,67d00d29e336b9b83ccf9203,2026-03-17_16h09.27.209,kallum_motion_pilot_GIST_update_2,2026.1.1,Win32,60.24096386,67d00d29e336b9b83ccf9203,69b95efdef24cd8a694e89ee,69b9602f9a8e30c1d2d9c09d,0.0821,0.0821,1,92,254,159,1,eightseven,,,,,,,,,,,,,,,,,,,,,,,,,,,,,,,,,,,,,,,,,,,,,,,,,,,,,,,,,,,,,,,,,,,,,,,,,,,,,,,,,,,,,,,,,,,,,,,,,,,,,,,,,,,,,,,,,,,,,,,,,,,,,,,,,,,,,,,,,
,,67d00d29e336b9b83ccf9203,2026-03-17_16h09.27.209,kallum_motion_pilot_GIST_update_2,2026.1.1,Win32,60.24096386,67d00d29e336b9b83ccf9203,69b95efdef24cd8a694e89ee,69b9602f9a8e30c1d2d9c09d,0.0824,0.0824,1,93,255,86,1,eightsix,,,,,,,,,,,,,,,,,,,,,,,,,,,,,,,,,,,,,,,,,,,,,,,,,,,,,,,,,,,,,,,,,,,,,,,,,,,,,,,,,,,,,,,,,,,,,,,,,,,,,,,,,,,,,,,,,,,,,,,,,,,,,,,,,,,,,,,,,
,,67d00d29e336b9b83ccf9203,2026-03-17_16h09.27.209,kallum_motion_pilot_GIST_update_2,2026.1.1,Win32,60.24096386,67d00d29e336b9b83ccf9203,69b95efdef24cd8a694e89ee,69b9602f9a8e30c1d2d9c09d,0.0827,0.0827,1,94,256,144,1,fivesix,,,,,,,,,,,,,,,,,,,,,,,,,,,,,,,,,,,,,,,,,,,,,,,,,,,,,,,,,,,,,,,,,,,,,,,,,,,,,,,,,,,,,,,,,,,,,,,,,,,,,,,,,,,,,,,,,,,,,,,,,,,,,,,,,,,,,,,,,
,,67d00d29e336b9b83ccf9203,2026-03-17_16h09.27.209,kallum_motion_pilot_GIST_update_2,2026.1.1,Win32,60.24096386,67d00d29e336b9b83ccf9203,69b95efdef24cd8a694e89ee,69b9602f9a8e30c1d2d9c09d,0.0828,0.0828,1,95,257,40,1,onetwo,,,,,,,,,,,,,,,,,,,,,,,,,,,,,,,,,,,,,,,,,,,,,,,,,,,,,,,,,,,,,,,,,,,,,,,,,,,,,,,,,,,,,,,,,,,,,,,,,,,,,,,,,,,,,,,,,,,,,,,,,,,,,,,,,,,,,,,,,
,,67d00d29e336b9b83ccf9203,2026-03-17_16h09.27.209,kallum_motion_pilot_GIST_update_2,2026.1.1,Win32,60.24096386,67d00d29e336b9b83ccf9203,69b95efdef24cd8a694e89ee,69b9602f9a8e30c1d2d9c09d,0.0831,0.0831,1,96,258,5,1,threefour,,,,,,,,,,,,,,,,,,,,,,,,,,,,,,,,,,,,,,,,,,,,,,,,,,,,,,,,,,,,,,,,,,,,,,,,,,,,,,,,,,,,,,,,,,,,,,,,,,,,,,,,,,,,,,,,,,,,,,,,,,,,,,,,,,,,,,,,,
,,67d00d29e336b9b83ccf9203,2026-03-17_16h09.27.209,kallum_motion_pilot_GIST_update_2,2026.1.1,Win32,60.24096386,67d00d29e336b9b83ccf9203,69b95efdef24cd8a694e89ee,69b9602f9a8e30c1d2d9c09d,0.0834,0.0834,1,97,259,9,1,onethree,,,,,,,,,,,,,,,,,,,,,,,,,,,,,,,,,,,,,,,,,,,,,,,,,,,,,,,,,,,,,,,,,,,,,,,,,,,,,,,,,,,,,,,,,,,,,,,,,,,,,,,,,,,,,,,,,,,,,,,,,,,,,,,,,,,,,,,,,
,,67d00d29e336b9b83ccf9203,2026-03-17_16h09.27.209,kallum_motion_pilot_GIST_update_2,2026.1.1,Win32,60.24096386,67d00d29e336b9b83ccf9203,69b95efdef24cd8a694e89ee,69b9602f9a8e30c1d2d9c09d,0.0836,0.0836,1,98,260,85,1,seveneight,,,,,,,,,,,,,,,,,,,,,,,,,,,,,,,,,,,,,,,,,,,,,,,,,,,,,,,,,,,,,,,,,,,,,,,,,,,,,,,,,,,,,,,,,,,,,,,,,,,,,,,,,,,,,,,,,,,,,,,,,,,,,,,,,,,,,,,,,
,,67d00d29e336b9b83ccf9203,2026-03-17_16h09.27.209,kallum_motion_pilot_GIST_update_2,2026.1.1,Win32,60.24096386,67d00d29e336b9b83ccf9203,69b95efdef24cd8a694e89ee,69b9602f9a8e30c1d2d9c09d,0.0838,0.0838,1,99,261,48,1,onetwo,,,,,,,,,,,,,,,,,,,,,,,,,,,,,,,,,,,,,,,,,,,,,,,,,,,,,,,,,,,,,,,,,,,,,,,,,,,,,,,,,,,,,,,,,,,,,,,,,,,,,,,,,,,,,,,,,,,,,,,,,,,,,,,,,,,,,,,,,
,,67d00d29e336b9b83ccf9203,2026-03-17_16h09.27.209,kallum_motion_pilot_GIST_update_2,2026.1.1,Win32,60.24096386,67d00d29e336b9b83ccf9203,69b95efdef24cd8a694e89ee,69b9602f9a8e30c1d2d9c09d,0.0839,0.0839,1,100,262,47,1,fourthree,,,,,,,,,,,,,,,,,,,,,,,,,,,,,,,,,,,,,,,,,,,,,,,,,,,,,,,,,,,,,,,,,,,,,,,,,,,,,,,,,,,,,,,,,,,,,,,,,,,,,,,,,,,,,,,,,,,,,,,,,,,,,,,,,,,,,,,,,
,,67d00d29e336b9b83ccf9203,2026-03-17_16h09.27.209,kallum_motion_pilot_GIST_update_2,2026.1.1,Win32,60.24096386,67d00d29e336b9b83ccf9203,69b95efdef24cd8a694e89ee,69b9602f9a8e30c1d2d9c09d,0.0842,0.0842,1,101,263,140,1,sevenfive,,,,,,,,,,,,,,,,,,,,,,,,,,,,,,,,,,,,,,,,,,,,,,,,,,,,,,,,,,,,,,,,,,,,,,,,,,,,,,,,,,,,,,,,,,,,,,,,,,,,,,,,,,,,,,,,,,,,,,,,,,,,,,,,,,,,,,,,,
,,67d00d29e336b9b83ccf9203,2026-03-17_16h09.27.209,kallum_motion_pilot_GIST_update_2,2026.1.1,Win32,60.24096386,67d00d29e336b9b83ccf9203,69b95efdef24cd8a694e89ee,69b9602f9a8e30c1d2d9c09d,0.0845,0.0846,1,102,264,66,1,twoone,,,,,,,,,,,,,,,,,,,,,,,,,,,,,,,,,,,,,,,,,,,,,,,,,,,,,,,,,,,,,,,,,,,,,,,,,,,,,,,,,,,,,,,,,,,,,,,,,,,,,,,,,,,,,,,,,,,,,,,,,,,,,,,,,,,,,,,,,
,,67d00d29e336b9b83ccf9203,2026-03-17_16h09.27.209,kallum_motion_pilot_GIST_update_2,2026.1.1,Win32,60.24096386,67d00d29e336b9b83ccf9203,69b95efdef24cd8a694e89ee,69b9602f9a8e30c1d2d9c09d,0.0849,0.0849,1,103,265,98,1,sixfive,,,,,,,,,,,,,,,,,,,,,,,,,,,,,,,,,,,,,,,,,,,,,,,,,,,,,,,,,,,,,,,,,,,,,,,,,,,,,,,,,,,,,,,,,,,,,,,,,,,,,,,,,,,,,,,,,,,,,,,,,,,,,,,,,,,,,,,,,
,,67d00d29e336b9b83ccf9203,2026-03-17_16h09.27.209,kallum_motion_pilot_GIST_update_2,2026.1.1,Win32,60.24096386,67d00d29e336b9b83ccf9203,69b95efdef24cd8a694e89ee,69b9602f9a8e30c1d2d9c09d,0.0852,0.0852,1,104,266,53,1,threefour,,,,,,,,,,,,,,,,,,,,,,,,,,,,,,,,,,,,,,,,,,,,,,,,,,,,,,,,,,,,,,,,,,,,,,,,,,,,,,,,,,,,,,,,,,,,,,,,,,,,,,,,,,,,,,,,,,,,,,,,,,,,,,,,,,,,,,,,,
