startup.started,startup.stopped,Prolific ID*,date,expName,psychopyVersion,OS,frameRate,participant,study_id,session,stimpositions.started,stimpositions.stopped,hardcoded_stimulus_positions.thisRepN,hardcoded_stimulus_positions.thisTrialN,hardcoded_stimulus_positions.thisN,hardcoded_stimulus_positions.thisIndex,hardcoded_stimulus_positions.ran,StimulusPos,stimorientation.started,stimorientation.stopped,prac_stimorientation_import_loop.thisRepN,prac_stimorientation_import_loop.thisTrialN,prac_stimorientation_import_loop.thisN,prac_stimorientation_import_loop.thisIndex,prac_stimorientation_import_loop.ran,Stimorientation,welcome_instr.started,welcome_instr.stopped,key_resp.keys,key_resp.rt,key_resp.duration,response_steppedout_1.started,response_steppedout_1.stopped,key_resp_20.keys,key_resp_20.rt,key_resp_20.duration,response_steppedout_2.started,response_steppedout_2.stopped,key_resp_19.keys,key_resp_19.rt,key_resp_19.duration,stim_response_instr.started,stim_response_instr.stopped,key_resp_15.keys,key_resp_15.rt,key_resp_15.duration,direction_instr_2.started,direction_instr_2.stopped,key_resp_9.keys,key_resp_9.rt,key_resp_9.duration,instr_prac.started,instr_prac.stopped,key_resp_10.keys,key_resp_10.rt,key_resp_10.duration,Stim1_display_prac.started,Stim1_display_prac.stopped,Ecc,Circle1_ori,Circle2_ori,response_prac.started,similarity,response_time,response_prac.stopped,mouse_5.x,mouse_5.y,mouse_5.leftButton,mouse_5.midButton,mouse_5.rightButton,mouse_5.clicked_name,responseprac_feedback.started,responseprac_feedback.stopped,summary2_prac.started,summary2_prac.stopped,mouse_6.x,mouse_6.y,mouse_6.leftButton,mouse_6.midButton,mouse_6.rightButton,mouse_6.clicked_name,duringprac.thisRepN,duringprac.thisTrialN,duringprac.thisN,duringprac.thisIndex,duringprac.ran,begin.started,begin.stopped,key_resp_22.keys,key_resp_22.rt,key_resp_22.duration,Stim1_display.started,Stim1_display.stopped,circle1_ori,circle2_ori,circle1_SF,circle2_SF,response.started,response.stopped,mouse.x,mouse.y,mouse.leftButton,mouse.midButton,mouse.rightButton,mouse.clicked_name,trialnumber,double_pass.thisRepN,double_pass.thisTrialN,double_pass.thisN,double_pass.thisIndex,double_pass.ran,double_pass.order,main_trial.thisRepN,main_trial.thisTrialN,main_trial.thisN,main_trial.thisIndex,main_trial.ran,main_trial.order,Trial_Counter,Catch,Frequencies,response_2.started,response_2.stopped,mouse_2.x,mouse_2.y,mouse_2.leftButton,mouse_2.midButton,mouse_2.rightButton,mouse_2.clicked_name,special_trial.started,special_trial.stopped,catch_1.started,catch_1.stopped,mouse_3.x,mouse_3.y,mouse_3.leftButton,mouse_3.midButton,mouse_3.rightButton,catchresponse,catchnumber,response_time_catch,response_sum.started,response_sum.stopped,mouse_11.x,mouse_11.y,mouse_11.leftButton,mouse_11.midButton,mouse_11.rightButton,flip_presentation_sequence_for_double_pass.started,flip_presentation_sequence_for_double_pass.stopped,goodbye.started,goodbye.stopped,key_resp_3.keys,key_resp_3.rt,key_resp_3.duration
0.0004,0.0005,67da5ae29f57419143d2b99a,2026-03-17_16h40.47.184,kallum_motion_pilot_GIST_update_2,2026.1.1,Win32,58.82352941,67da5ae29f57419143d2b99a,69b95efdef24cd8a694e89ee,69b960d1ea0c9e1a42b61f2b,,,,,,,,,,,,,,,,,,,,,,,,,,,,,,,,,,,,,,,,,,,,,,,,,,,,,,,,,,,,,,,,,,,,,,,,,,,,,,,,,,,,,,,,,,,,,,,,,,,,,,,,,,,,,,,,,,,,,,,,,,,,,,,,,,,,,,,,,,,,,,,,,
,,67da5ae29f57419143d2b99a,2026-03-17_16h40.47.184,kallum_motion_pilot_GIST_update_2,2026.1.1,Win32,58.82352941,67da5ae29f57419143d2b99a,69b95efdef24cd8a694e89ee,69b960d1ea0c9e1a42b61f2b,0.0344,0.0346,0,0,0,46,1,fourtwo,,,,,,,,,,,,,,,,,,,,,,,,,,,,,,,,,,,,,,,,,,,,,,,,,,,,,,,,,,,,,,,,,,,,,,,,,,,,,,,,,,,,,,,,,,,,,,,,,,,,,,,,,,,,,,,,,,,,,,,,,,,,,,,,,,,,,,,,,
,,67da5ae29f57419143d2b99a,2026-03-17_16h40.47.184,kallum_motion_pilot_GIST_update_2,2026.1.1,Win32,58.82352941,67da5ae29f57419143d2b99a,69b95efdef24cd8a694e89ee,69b960d1ea0c9e1a42b61f2b,0.0349,0.035,0,1,1,140,1,sevenfive,,,,,,,,,,,,,,,,,,,,,,,,,,,,,,,,,,,,,,,,,,,,,,,,,,,,,,,,,,,,,,,,,,,,,,,,,,,,,,,,,,,,,,,,,,,,,,,,,,,,,,,,,,,,,,,,,,,,,,,,,,,,,,,,,,,,,,,,,
,,67da5ae29f57419143d2b99a,2026-03-17_16h40.47.184,kallum_motion_pilot_GIST_update_2,2026.1.1,Win32,58.82352941,67da5ae29f57419143d2b99a,69b95efdef24cd8a694e89ee,69b960d1ea0c9e1a42b61f2b,0.0351,0.0351,0,2,2,144,1,fivesix,,,,,,,,,,,,,,,,,,,,,,,,,,,,,,,,,,,,,,,,,,,,,,,,,,,,,,,,,,,,,,,,,,,,,,,,,,,,,,,,,,,,,,,,,,,,,,,,,,,,,,,,,,,,,,,,,,,,,,,,,,,,,,,,,,,,,,,,,
,,67da5ae29f57419143d2b99a,2026-03-17_16h40.47.184,kallum_motion_pilot_GIST_update_2,2026.1.1,Win32,58.82352941,67da5ae29f57419143d2b99a,69b95efdef24cd8a694e89ee,69b960d1ea0c9e1a42b61f2b,0.0353,0.0353,0,3,3,153,1,fiveseven,,,,,,,,,,,,,,,,,,,,,,,,,,,,,,,,,,,,,,,,,,,,,,,,,,,,,,,,,,,,,,,,,,,,,,,,,,,,,,,,,,,,,,,,,,,,,,,,,,,,,,,,,,,,,,,,,,,,,,,,,,,,,,,,,,,,,,,,,
,,67da5ae29f57419143d2b99a,2026-03-17_16h40.47.184,kallum_motion_pilot_GIST_update_2,2026.1.1,Win32,58.82352941,67da5ae29f57419143d2b99a,69b95efdef24cd8a694e89ee,69b960d1ea0c9e1a42b61f2b,0.0354,0.0354,0,4,4,160,1,fivesix,,,,,,,,,,,,,,,,,,,,,,,,,,,,,,,,,,,,,,,,,,,,,,,,,,,,,,,,,,,,,,,,,,,,,,,,,,,,,,,,,,,,,,,,,,,,,,,,,,,,,,,,,,,,,,,,,,,,,,,,,,,,,,,,,,,,,,,,,
,,67da5ae29f57419143d2b99a,2026-03-17_16h40.47.184,kallum_motion_pilot_GIST_update_2,2026.1.1,Win32,58.82352941,67da5ae29f57419143d2b99a,69b95efdef24cd8a694e89ee,69b960d1ea0c9e1a42b61f2b,0.0355,0.0355,0,5,5,18,1,twoone,,,,,,,,,,,,,,,,,,,,,,,,,,,,,,,,,,,,,,,,,,,,,,,,,,,,,,,,,,,,,,,,,,,,,,,,,,,,,,,,,,,,,,,,,,,,,,,,,,,,,,,,,,,,,,,,,,,,,,,,,,,,,,,,,,,,,,,,,
,,67da5ae29f57419143d2b99a,2026-03-17_16h40.47.184,kallum_motion_pilot_GIST_update_2,2026.1.1,Win32,58.82352941,67da5ae29f57419143d2b99a,69b95efdef24cd8a694e89ee,69b960d1ea0c9e1a42b61f2b,0.0356,0.0356,0,6,6,9,1,onethree,,,,,,,,,,,,,,,,,,,,,,,,,,,,,,,,,,,,,,,,,,,,,,,,,,,,,,,,,,,,,,,,,,,,,,,,,,,,,,,,,,,,,,,,,,,,,,,,,,,,,,,,,,,,,,,,,,,,,,,,,,,,,,,,,,,,,,,,,
,,67da5ae29f57419143d2b99a,2026-03-17_16h40.47.184,kallum_motion_pilot_GIST_update_2,2026.1.1,Win32,58.82352941,67da5ae29f57419143d2b99a,69b95efdef24cd8a694e89ee,69b960d1ea0c9e1a42b61f2b,0.0357,0.0357,0,7,7,53,1,threefour,,,,,,,,,,,,,,,,,,,,,,,,,,,,,,,,,,,,,,,,,,,,,,,,,,,,,,,,,,,,,,,,,,,,,,,,,,,,,,,,,,,,,,,,,,,,,,,,,,,,,,,,,,,,,,,,,,,,,,,,,,,,,,,,,,,,,,,,,
,,67da5ae29f57419143d2b99a,2026-03-17_16h40.47.184,kallum_motion_pilot_GIST_update_2,2026.1.1,Win32,58.82352941,67da5ae29f57419143d2b99a,69b95efdef24cd8a694e89ee,69b960d1ea0c9e1a42b61f2b,0.0359,0.0359,0,8,8,76,1,threeone,,,,,,,,,,,,,,,,,,,,,,,,,,,,,,,,,,,,,,,,,,,,,,,,,,,,,,,,,,,,,,,,,,,,,,,,,,,,,,,,,,,,,,,,,,,,,,,,,,,,,,,,,,,,,,,,,,,,,,,,,,,,,,,,,,,,,,,,,
,,67da5ae29f57419143d2b99a,2026-03-17_16h40.47.184,kallum_motion_pilot_GIST_update_2,2026.1.1,Win32,58.82352941,67da5ae29f57419143d2b99a,69b95efdef24cd8a694e89ee,69b960d1ea0c9e1a42b61f2b,0.036,0.036,0,9,9,145,1,fiveseven,,,,,,,,,,,,,,,,,,,,,,,,,,,,,,,,,,,,,,,,,,,,,,,,,,,,,,,,,,,,,,,,,,,,,,,,,,,,,,,,,,,,,,,,,,,,,,,,,,,,,,,,,,,,,,,,,,,,,,,,,,,,,,,,,,,,,,,,,
,,67da5ae29f57419143d2b99a,2026-03-17_16h40.47.184,kallum_motion_pilot_GIST_update_2,2026.1.1,Win32,58.82352941,67da5ae29f57419143d2b99a,69b95efdef24cd8a694e89ee,69b960d1ea0c9e1a42b61f2b,0.0362,0.0362,0,10,10,3,1,twofour,,,,,,,,,,,,,,,,,,,,,,,,,,,,,,,,,,,,,,,,,,,,,,,,,,,,,,,,,,,,,,,,,,,,,,,,,,,,,,,,,,,,,,,,,,,,,,,,,,,,,,,,,,,,,,,,,,,,,,,,,,,,,,,,,,,,,,,,,
,,67da5ae29f57419143d2b99a,2026-03-17_16h40.47.184,kallum_motion_pilot_GIST_update_2,2026.1.1,Win32,58.82352941,67da5ae29f57419143d2b99a,69b95efdef24cd8a694e89ee,69b960d1ea0c9e1a42b61f2b,0.0363,0.0363,0,11,11,101,1,seveneight,,,,,,,,,,,,,,,,,,,,,,,,,,,,,,,,,,,,,,,,,,,,,,,,,,,,,,,,,,,,,,,,,,,,,,,,,,,,,,,,,,,,,,,,,,,,,,,,,,,,,,,,,,,,,,,,,,,,,,,,,,,,,,,,,,,,,,,,,
,,67da5ae29f57419143d2b99a,2026-03-17_16h40.47.184,kallum_motion_pilot_GIST_update_2,2026.1.1,Win32,58.82352941,67da5ae29f57419143d2b99a,69b95efdef24cd8a694e89ee,69b960d1ea0c9e1a42b61f2b,0.0363,0.0363,0,12,12,50,1,twoone,,,,,,,,,,,,,,,,,,,,,,,,,,,,,,,,,,,,,,,,,,,,,,,,,,,,,,,,,,,,,,,,,,,,,,,,,,,,,,,,,,,,,,,,,,,,,,,,,,,,,,,,,,,,,,,,,,,,,,,,,,,,,,,,,,,,,,,,,
,,67da5ae29f57419143d2b99a,2026-03-17_16h40.47.184,kallum_motion_pilot_GIST_update_2,2026.1.1,Win32,58.82352941,67da5ae29f57419143d2b99a,69b95efdef24cd8a694e89ee,69b960d1ea0c9e1a42b61f2b,0.0365,0.0365,0,13,13,34,1,twoone,,,,,,,,,,,,,,,,,,,,,,,,,,,,,,,,,,,,,,,,,,,,,,,,,,,,,,,,,,,,,,,,,,,,,,,,,,,,,,,,,,,,,,,,,,,,,,,,,,,,,,,,,,,,,,,,,,,,,,,,,,,,,,,,,,,,,,,,,
,,67da5ae29f57419143d2b99a,2026-03-17_16h40.47.184,kallum_motion_pilot_GIST_update_2,2026.1.1,Win32,58.82352941,67da5ae29f57419143d2b99a,69b95efdef24cd8a694e89ee,69b960d1ea0c9e1a42b61f2b,0.0365,0.0365,0,14,14,54,1,fourtwo,,,,,,,,,,,,,,,,,,,,,,,,,,,,,,,,,,,,,,,,,,,,,,,,,,,,,,,,,,,,,,,,,,,,,,,,,,,,,,,,,,,,,,,,,,,,,,,,,,,,,,,,,,,,,,,,,,,,,,,,,,,,,,,,,,,,,,,,,
,,67da5ae29f57419143d2b99a,2026-03-17_16h40.47.184,kallum_motion_pilot_GIST_update_2,2026.1.1,Win32,58.82352941,67da5ae29f57419143d2b99a,69b95efdef24cd8a694e89ee,69b960d1ea0c9e1a42b61f2b,0.0366,0.0366,0,15,15,20,1,threeone,,,,,,,,,,,,,,,,,,,,,,,,,,,,,,,,,,,,,,,,,,,,,,,,,,,,,,,,,,,,,,,,,,,,,,,,,,,,,,,,,,,,,,,,,,,,,,,,,,,,,,,,,,,,,,,,,,,,,,,,,,,,,,,,,,,,,,,,,
,,67da5ae29f57419143d2b99a,2026-03-17_16h40.47.184,kallum_motion_pilot_GIST_update_2,2026.1.1,Win32,58.82352941,67da5ae29f57419143d2b99a,69b95efdef24cd8a694e89ee,69b960d1ea0c9e1a42b61f2b,0.0368,0.0368,0,16,16,74,1,twoone,,,,,,,,,,,,,,,,,,,,,,,,,,,,,,,,,,,,,,,,,,,,,,,,,,,,,,,,,,,,,,,,,,,,,,,,,,,,,,,,,,,,,,,,,,,,,,,,,,,,,,,,,,,,,,,,,,,,,,,,,,,,,,,,,,,,,,,,,
,,67da5ae29f57419143d2b99a,2026-03-17_16h40.47.184,kallum_motion_pilot_GIST_update_2,2026.1.1,Win32,58.82352941,67da5ae29f57419143d2b99a,69b95efdef24cd8a694e89ee,69b960d1ea0c9e1a42b61f2b,0.0369,0.0369,0,17,17,15,1,fourthree,,,,,,,,,,,,,,,,,,,,,,,,,,,,,,,,,,,,,,,,,,,,,,,,,,,,,,,,,,,,,,,,,,,,,,,,,,,,,,,,,,,,,,,,,,,,,,,,,,,,,,,,,,,,,,,,,,,,,,,,,,,,,,,,,,,,,,,,,
,,67da5ae29f57419143d2b99a,2026-03-17_16h40.47.184,kallum_motion_pilot_GIST_update_2,2026.1.1,Win32,58.82352941,67da5ae29f57419143d2b99a,69b95efdef24cd8a694e89ee,69b960d1ea0c9e1a42b61f2b,0.037,0.037,0,18,18,122,1,sixfive,,,,,,,,,,,,,,,,,,,,,,,,,,,,,,,,,,,,,,,,,,,,,,,,,,,,,,,,,,,,,,,,,,,,,,,,,,,,,,,,,,,,,,,,,,,,,,,,,,,,,,,,,,,,,,,,,,,,,,,,,,,,,,,,,,,,,,,,,
,,67da5ae29f57419143d2b99a,2026-03-17_16h40.47.184,kallum_motion_pilot_GIST_update_2,2026.1.1,Win32,58.82352941,67da5ae29f57419143d2b99a,69b95efdef24cd8a694e89ee,69b960d1ea0c9e1a42b61f2b,0.037,0.037,0,19,19,90,1,sixfive,,,,,,,,,,,,,,,,,,,,,,,,,,,,,,,,,,,,,,,,,,,,,,,,,,,,,,,,,,,,,,,,,,,,,,,,,,,,,,,,,,,,,,,,,,,,,,,,,,,,,,,,,,,,,,,,,,,,,,,,,,,,,,,,,,,,,,,,,
,,67da5ae29f57419143d2b99a,2026-03-17_16h40.47.184,kallum_motion_pilot_GIST_update_2,2026.1.1,Win32,58.82352941,67da5ae29f57419143d2b99a,69b95efdef24cd8a694e89ee,69b960d1ea0c9e1a42b61f2b,0.0371,0.0371,0,20,20,107,1,sixeight,,,,,,,,,,,,,,,,,,,,,,,,,,,,,,,,,,,,,,,,,,,,,,,,,,,,,,,,,,,,,,,,,,,,,,,,,,,,,,,,,,,,,,,,,,,,,,,,,,,,,,,,,,,,,,,,,,,,,,,,,,,,,,,,,,,,,,,,,
,,67da5ae29f57419143d2b99a,2026-03-17_16h40.47.184,kallum_motion_pilot_GIST_update_2,2026.1.1,Win32,58.82352941,67da5ae29f57419143d2b99a,69b95efdef24cd8a694e89ee,69b960d1ea0c9e1a42b61f2b,0.0373,0.0373,0,21,21,138,1,sixfive,,,,,,,,,,,,,,,,,,,,,,,,,,,,,,,,,,,,,,,,,,,,,,,,,,,,,,,,,,,,,,,,,,,,,,,,,,,,,,,,,,,,,,,,,,,,,,,,,,,,,,,,,,,,,,,,,,,,,,,,,,,,,,,,,,,,,,,,,
,,67da5ae29f57419143d2b99a,2026-03-17_16h40.47.184,kallum_motion_pilot_GIST_update_2,2026.1.1,Win32,58.82352941,67da5ae29f57419143d2b99a,69b95efdef24cd8a694e89ee,69b960d1ea0c9e1a42b61f2b,0.0374,0.0374,0,22,22,155,1,sixeight,,,,,,,,,,,,,,,,,,,,,,,,,,,,,,,,,,,,,,,,,,,,,,,,,,,,,,,,,,,,,,,,,,,,,,,,,,,,,,,,,,,,,,,,,,,,,,,,,,,,,,,,,,,,,,,,,,,,,,,,,,,,,,,,,,,,,,,,,
,,67da5ae29f57419143d2b99a,2026-03-17_16h40.47.184,kallum_motion_pilot_GIST_update_2,2026.1.1,Win32,58.82352941,67da5ae29f57419143d2b99a,69b95efdef24cd8a694e89ee,69b960d1ea0c9e1a42b61f2b,0.0375,0.0375,0,23,23,51,1,twofour,,,,,,,,,,,,,,,,,,,,,,,,,,,,,,,,,,,,,,,,,,,,,,,,,,,,,,,,,,,,,,,,,,,,,,,,,,,,,,,,,,,,,,,,,,,,,,,,,,,,,,,,,,,,,,,,,,,,,,,,,,,,,,,,,,,,,,,,,
,,67da5ae29f57419143d2b99a,2026-03-17_16h40.47.184,kallum_motion_pilot_GIST_update_2,2026.1.1,Win32,58.82352941,67da5ae29f57419143d2b99a,69b95efdef24cd8a694e89ee,69b960d1ea0c9e1a42b61f2b,0.0377,0.0377,0,24,24,14,1,fourtwo,,,,,,,,,,,,,,,,,,,,,,,,,,,,,,,,,,,,,,,,,,,,,,,,,,,,,,,,,,,,,,,,,,,,,,,,,,,,,,,,,,,,,,,,,,,,,,,,,,,,,,,,,,,,,,,,,,,,,,,,,,,,,,,,,,,,,,,,,
,,67da5ae29f57419143d2b99a,2026-03-17_16h40.47.184,kallum_motion_pilot_GIST_update_2,2026.1.1,Win32,58.82352941,67da5ae29f57419143d2b99a,69b95efdef24cd8a694e89ee,69b960d1ea0c9e1a42b61f2b,0.0377,0.0377,0,25,25,116,1,sevenfive,,,,,,,,,,,,,,,,,,,,,,,,,,,,,,,,,,,,,,,,,,,,,,,,,,,,,,,,,,,,,,,,,,,,,,,,,,,,,,,,,,,,,,,,,,,,,,,,,,,,,,,,,,,,,,,,,,,,,,,,,,,,,,,,,,,,,,,,,
,,67da5ae29f57419143d2b99a,2026-03-17_16h40.47.184,kallum_motion_pilot_GIST_update_2,2026.1.1,Win32,58.82352941,67da5ae29f57419143d2b99a,69b95efdef24cd8a694e89ee,69b960d1ea0c9e1a42b61f2b,0.0378,0.0378,0,26,26,10,1,twoone,,,,,,,,,,,,,,,,,,,,,,,,,,,,,,,,,,,,,,,,,,,,,,,,,,,,,,,,,,,,,,,,,,,,,,,,,,,,,,,,,,,,,,,,,,,,,,,,,,,,,,,,,,,,,,,,,,,,,,,,,,,,,,,,,,,,,,,,,
,,67da5ae29f57419143d2b99a,2026-03-17_16h40.47.184,kallum_motion_pilot_GIST_update_2,2026.1.1,Win32,58.82352941,67da5ae29f57419143d2b99a,69b95efdef24cd8a694e89ee,69b960d1ea0c9e1a42b61f2b,0.0379,0.0379,0,27,27,129,1,fiveseven,,,,,,,,,,,,,,,,,,,,,,,,,,,,,,,,,,,,,,,,,,,,,,,,,,,,,,,,,,,,,,,,,,,,,,,,,,,,,,,,,,,,,,,,,,,,,,,,,,,,,,,,,,,,,,,,,,,,,,,,,,,,,,,,,,,,,,,,,
,,67da5ae29f57419143d2b99a,2026-03-17_16h40.47.184,kallum_motion_pilot_GIST_update_2,2026.1.1,Win32,58.82352941,67da5ae29f57419143d2b99a,69b95efdef24cd8a694e89ee,69b960d1ea0c9e1a42b61f2b,0.038,0.038,0,28,28,59,1,twofour,,,,,,,,,,,,,,,,,,,,,,,,,,,,,,,,,,,,,,,,,,,,,,,,,,,,,,,,,,,,,,,,,,,,,,,,,,,,,,,,,,,,,,,,,,,,,,,,,,,,,,,,,,,,,,,,,,,,,,,,,,,,,,,,,,,,,,,,,
,,67da5ae29f57419143d2b99a,2026-03-17_16h40.47.184,kallum_motion_pilot_GIST_update_2,2026.1.1,Win32,58.82352941,67da5ae29f57419143d2b99a,69b95efdef24cd8a694e89ee,69b960d1ea0c9e1a42b61f2b,0.0382,0.0382,0,29,29,147,1,sixeight,,,,,,,,,,,,,,,,,,,,,,,,,,,,,,,,,,,,,,,,,,,,,,,,,,,,,,,,,,,,,,,,,,,,,,,,,,,,,,,,,,,,,,,,,,,,,,,,,,,,,,,,,,,,,,,,,,,,,,,,,,,,,,,,,,,,,,,,,
,,67da5ae29f57419143d2b99a,2026-03-17_16h40.47.184,kallum_motion_pilot_GIST_update_2,2026.1.1,Win32,58.82352941,67da5ae29f57419143d2b99a,69b95efdef24cd8a694e89ee,69b960d1ea0c9e1a42b61f2b,0.0383,0.0383,0,30,30,97,1,fiveseven,,,,,,,,,,,,,,,,,,,,,,,,,,,,,,,,,,,,,,,,,,,,,,,,,,,,,,,,,,,,,,,,,,,,,,,,,,,,,,,,,,,,,,,,,,,,,,,,,,,,,,,,,,,,,,,,,,,,,,,,,,,,,,,,,,,,,,,,,
,,67da5ae29f57419143d2b99a,2026-03-17_16h40.47.184,kallum_motion_pilot_GIST_update_2,2026.1.1,Win32,58.82352941,67da5ae29f57419143d2b99a,69b95efdef24cd8a694e89ee,69b960d1ea0c9e1a42b61f2b,0.0384,0.0384,0,31,31,130,1,sixfive,,,,,,,,,,,,,,,,,,,,,,,,,,,,,,,,,,,,,,,,,,,,,,,,,,,,,,,,,,,,,,,,,,,,,,,,,,,,,,,,,,,,,,,,,,,,,,,,,,,,,,,,,,,,,,,,,,,,,,,,,,,,,,,,,,,,,,,,,
,,67da5ae29f57419143d2b99a,2026-03-17_16h40.47.184,kallum_motion_pilot_GIST_update_2,2026.1.1,Win32,58.82352941,67da5ae29f57419143d2b99a,69b95efdef24cd8a694e89ee,69b960d1ea0c9e1a42b61f2b,0.0385,0.0385,0,32,32,92,1,sevenfive,,,,,,,,,,,,,,,,,,,,,,,,,,,,,,,,,,,,,,,,,,,,,,,,,,,,,,,,,,,,,,,,,,,,,,,,,,,,,,,,,,,,,,,,,,,,,,,,,,,,,,,,,,,,,,,,,,,,,,,,,,,,,,,,,,,,,,,,,
,,67da5ae29f57419143d2b99a,2026-03-17_16h40.47.184,kallum_motion_pilot_GIST_update_2,2026.1.1,Win32,58.82352941,67da5ae29f57419143d2b99a,69b95efdef24cd8a694e89ee,69b960d1ea0c9e1a42b61f2b,0.0387,0.0387,0,33,33,39,1,fourthree,,,,,,,,,,,,,,,,,,,,,,,,,,,,,,,,,,,,,,,,,,,,,,,,,,,,,,,,,,,,,,,,,,,,,,,,,,,,,,,,,,,,,,,,,,,,,,,,,,,,,,,,,,,,,,,,,,,,,,,,,,,,,,,,,,,,,,,,,
,,67da5ae29f57419143d2b99a,2026-03-17_16h40.47.184,kallum_motion_pilot_GIST_update_2,2026.1.1,Win32,58.82352941,67da5ae29f57419143d2b99a,69b95efdef24cd8a694e89ee,69b960d1ea0c9e1a42b61f2b,0.0388,0.0388,0,34,34,4,1,threeone,,,,,,,,,,,,,,,,,,,,,,,,,,,,,,,,,,,,,,,,,,,,,,,,,,,,,,,,,,,,,,,,,,,,,,,,,,,,,,,,,,,,,,,,,,,,,,,,,,,,,,,,,,,,,,,,,,,,,,,,,,,,,,,,,,,,,,,,,
,,67da5ae29f57419143d2b99a,2026-03-17_16h40.47.184,kallum_motion_pilot_GIST_update_2,2026.1.1,Win32,58.82352941,67da5ae29f57419143d2b99a,69b95efdef24cd8a694e89ee,69b960d1ea0c9e1a42b61f2b,0.0389,0.0389,0,35,35,40,1,onetwo,,,,,,,,,,,,,,,,,,,,,,,,,,,,,,,,,,,,,,,,,,,,,,,,,,,,,,,,,,,,,,,,,,,,,,,,,,,,,,,,,,,,,,,,,,,,,,,,,,,,,,,,,,,,,,,,,,,,,,,,,,,,,,,,,,,,,,,,,
,,67da5ae29f57419143d2b99a,2026-03-17_16h40.47.184,kallum_motion_pilot_GIST_update_2,2026.1.1,Win32,58.82352941,67da5ae29f57419143d2b99a,69b95efdef24cd8a694e89ee,69b960d1ea0c9e1a42b61f2b,0.039,0.039,0,36,36,30,1,fourtwo,,,,,,,,,,,,,,,,,,,,,,,,,,,,,,,,,,,,,,,,,,,,,,,,,,,,,,,,,,,,,,,,,,,,,,,,,,,,,,,,,,,,,,,,,,,,,,,,,,,,,,,,,,,,,,,,,,,,,,,,,,,,,,,,,,,,,,,,,
,,67da5ae29f57419143d2b99a,2026-03-17_16h40.47.184,kallum_motion_pilot_GIST_update_2,2026.1.1,Win32,58.82352941,67da5ae29f57419143d2b99a,69b95efdef24cd8a694e89ee,69b960d1ea0c9e1a42b61f2b,0.0391,0.0391,0,37,37,52,1,threeone,,,,,,,,,,,,,,,,,,,,,,,,,,,,,,,,,,,,,,,,,,,,,,,,,,,,,,,,,,,,,,,,,,,,,,,,,,,,,,,,,,,,,,,,,,,,,,,,,,,,,,,,,,,,,,,,,,,,,,,,,,,,,,,,,,,,,,,,,
,,67da5ae29f57419143d2b99a,2026-03-17_16h40.47.184,kallum_motion_pilot_GIST_update_2,2026.1.1,Win32,58.82352941,67da5ae29f57419143d2b99a,69b95efdef24cd8a694e89ee,69b960d1ea0c9e1a42b61f2b,0.0391,0.0391,0,38,38,136,1,fivesix,,,,,,,,,,,,,,,,,,,,,,,,,,,,,,,,,,,,,,,,,,,,,,,,,,,,,,,,,,,,,,,,,,,,,,,,,,,,,,,,,,,,,,,,,,,,,,,,,,,,,,,,,,,,,,,,,,,,,,,,,,,,,,,,,,,,,,,,,
,,67da5ae29f57419143d2b99a,2026-03-17_16h40.47.184,kallum_motion_pilot_GIST_update_2,2026.1.1,Win32,58.82352941,67da5ae29f57419143d2b99a,69b95efdef24cd8a694e89ee,69b960d1ea0c9e1a42b61f2b,0.0393,0.0393,0,39,39,41,1,onethree,,,,,,,,,,,,,,,,,,,,,,,,,,,,,,,,,,,,,,,,,,,,,,,,,,,,,,,,,,,,,,,,,,,,,,,,,,,,,,,,,,,,,,,,,,,,,,,,,,,,,,,,,,,,,,,,,,,,,,,,,,,,,,,,,,,,,,,,,
,,67da5ae29f57419143d2b99a,2026-03-17_16h40.47.184,kallum_motion_pilot_GIST_update_2,2026.1.1,Win32,58.82352941,67da5ae29f57419143d2b99a,69b95efdef24cd8a694e89ee,69b960d1ea0c9e1a42b61f2b,0.0394,0.0394,0,40,40,13,1,threefour,,,,,,,,,,,,,,,,,,,,,,,,,,,,,,,,,,,,,,,,,,,,,,,,,,,,,,,,,,,,,,,,,,,,,,,,,,,,,,,,,,,,,,,,,,,,,,,,,,,,,,,,,,,,,,,,,,,,,,,,,,,,,,,,,,,,,,,,,
,,67da5ae29f57419143d2b99a,2026-03-17_16h40.47.184,kallum_motion_pilot_GIST_update_2,2026.1.1,Win32,58.82352941,67da5ae29f57419143d2b99a,69b95efdef24cd8a694e89ee,69b960d1ea0c9e1a42b61f2b,0.0395,0.0395,0,41,41,61,1,threefour,,,,,,,,,,,,,,,,,,,,,,,,,,,,,,,,,,,,,,,,,,,,,,,,,,,,,,,,,,,,,,,,,,,,,,,,,,,,,,,,,,,,,,,,,,,,,,,,,,,,,,,,,,,,,,,,,,,,,,,,,,,,,,,,,,,,,,,,,
,,67da5ae29f57419143d2b99a,2026-03-17_16h40.47.184,kallum_motion_pilot_GIST_update_2,2026.1.1,Win32,58.82352941,67da5ae29f57419143d2b99a,69b95efdef24cd8a694e89ee,69b960d1ea0c9e1a42b61f2b,0.0396,0.0396,0,42,42,108,1,sevenfive,,,,,,,,,,,,,,,,,,,,,,,,,,,,,,,,,,,,,,,,,,,,,,,,,,,,,,,,,,,,,,,,,,,,,,,,,,,,,,,,,,,,,,,,,,,,,,,,,,,,,,,,,,,,,,,,,,,,,,,,,,,,,,,,,,,,,,,,,
,,67da5ae29f57419143d2b99a,2026-03-17_16h40.47.184,kallum_motion_pilot_GIST_update_2,2026.1.1,Win32,58.82352941,67da5ae29f57419143d2b99a,69b95efdef24cd8a694e89ee,69b960d1ea0c9e1a42b61f2b,0.0396,0.0396,0,43,43,115,1,sixeight,,,,,,,,,,,,,,,,,,,,,,,,,,,,,,,,,,,,,,,,,,,,,,,,,,,,,,,,,,,,,,,,,,,,,,,,,,,,,,,,,,,,,,,,,,,,,,,,,,,,,,,,,,,,,,,,,,,,,,,,,,,,,,,,,,,,,,,,,
,,67da5ae29f57419143d2b99a,2026-03-17_16h40.47.184,kallum_motion_pilot_GIST_update_2,2026.1.1,Win32,58.82352941,67da5ae29f57419143d2b99a,69b95efdef24cd8a694e89ee,69b960d1ea0c9e1a42b61f2b,0.0398,0.0398,0,44,44,161,1,fiveseven,,,,,,,,,,,,,,,,,,,,,,,,,,,,,,,,,,,,,,,,,,,,,,,,,,,,,,,,,,,,,,,,,,,,,,,,,,,,,,,,,,,,,,,,,,,,,,,,,,,,,,,,,,,,,,,,,,,,,,,,,,,,,,,,,,,,,,,,,
,,67da5ae29f57419143d2b99a,2026-03-17_16h40.47.184,kallum_motion_pilot_GIST_update_2,2026.1.1,Win32,58.82352941,67da5ae29f57419143d2b99a,69b95efdef24cd8a694e89ee,69b960d1ea0c9e1a42b61f2b,0.0399,0.0399,0,45,45,58,1,twoone,,,,,,,,,,,,,,,,,,,,,,,,,,,,,,,,,,,,,,,,,,,,,,,,,,,,,,,,,,,,,,,,,,,,,,,,,,,,,,,,,,,,,,,,,,,,,,,,,,,,,,,,,,,,,,,,,,,,,,,,,,,,,,,,,,,,,,,,,
,,67da5ae29f57419143d2b99a,2026-03-17_16h40.47.184,kallum_motion_pilot_GIST_update_2,2026.1.1,Win32,58.82352941,67da5ae29f57419143d2b99a,69b95efdef24cd8a694e89ee,69b960d1ea0c9e1a42b61f2b,0.04,0.04,0,46,46,128,1,fivesix,,,,,,,,,,,,,,,,,,,,,,,,,,,,,,,,,,,,,,,,,,,,,,,,,,,,,,,,,,,,,,,,,,,,,,,,,,,,,,,,,,,,,,,,,,,,,,,,,,,,,,,,,,,,,,,,,,,,,,,,,,,,,,,,,,,,,,,,,
,,67da5ae29f57419143d2b99a,2026-03-17_16h40.47.184,kallum_motion_pilot_GIST_update_2,2026.1.1,Win32,58.82352941,67da5ae29f57419143d2b99a,69b95efdef24cd8a694e89ee,69b960d1ea0c9e1a42b61f2b,0.0401,0.0401,0,47,47,62,1,fourtwo,,,,,,,,,,,,,,,,,,,,,,,,,,,,,,,,,,,,,,,,,,,,,,,,,,,,,,,,,,,,,,,,,,,,,,,,,,,,,,,,,,,,,,,,,,,,,,,,,,,,,,,,,,,,,,,,,,,,,,,,,,,,,,,,,,,,,,,,,
,,67da5ae29f57419143d2b99a,2026-03-17_16h40.47.184,kallum_motion_pilot_GIST_update_2,2026.1.1,Win32,58.82352941,67da5ae29f57419143d2b99a,69b95efdef24cd8a694e89ee,69b960d1ea0c9e1a42b61f2b,0.0401,0.0401,0,48,48,106,1,sixfive,,,,,,,,,,,,,,,,,,,,,,,,,,,,,,,,,,,,,,,,,,,,,,,,,,,,,,,,,,,,,,,,,,,,,,,,,,,,,,,,,,,,,,,,,,,,,,,,,,,,,,,,,,,,,,,,,,,,,,,,,,,,,,,,,,,,,,,,,
,,67da5ae29f57419143d2b99a,2026-03-17_16h40.47.184,kallum_motion_pilot_GIST_update_2,2026.1.1,Win32,58.82352941,67da5ae29f57419143d2b99a,69b95efdef24cd8a694e89ee,69b960d1ea0c9e1a42b61f2b,0.0403,0.0403,0,49,49,64,1,onetwo,,,,,,,,,,,,,,,,,,,,,,,,,,,,,,,,,,,,,,,,,,,,,,,,,,,,,,,,,,,,,,,,,,,,,,,,,,,,,,,,,,,,,,,,,,,,,,,,,,,,,,,,,,,,,,,,,,,,,,,,,,,,,,,,,,,,,,,,,
,,67da5ae29f57419143d2b99a,2026-03-17_16h40.47.184,kallum_motion_pilot_GIST_update_2,2026.1.1,Win32,58.82352941,67da5ae29f57419143d2b99a,69b95efdef24cd8a694e89ee,69b960d1ea0c9e1a42b61f2b,0.0404,0.0404,0,50,50,121,1,fiveseven,,,,,,,,,,,,,,,,,,,,,,,,,,,,,,,,,,,,,,,,,,,,,,,,,,,,,,,,,,,,,,,,,,,,,,,,,,,,,,,,,,,,,,,,,,,,,,,,,,,,,,,,,,,,,,,,,,,,,,,,,,,,,,,,,,,,,,,,,
,,67da5ae29f57419143d2b99a,2026-03-17_16h40.47.184,kallum_motion_pilot_GIST_update_2,2026.1.1,Win32,58.82352941,67da5ae29f57419143d2b99a,69b95efdef24cd8a694e89ee,69b960d1ea0c9e1a42b61f2b,0.0405,0.0405,0,51,51,31,1,fourthree,,,,,,,,,,,,,,,,,,,,,,,,,,,,,,,,,,,,,,,,,,,,,,,,,,,,,,,,,,,,,,,,,,,,,,,,,,,,,,,,,,,,,,,,,,,,,,,,,,,,,,,,,,,,,,,,,,,,,,,,,,,,,,,,,,,,,,,,,
,,67da5ae29f57419143d2b99a,2026-03-17_16h40.47.184,kallum_motion_pilot_GIST_update_2,2026.1.1,Win32,58.82352941,67da5ae29f57419143d2b99a,69b95efdef24cd8a694e89ee,69b960d1ea0c9e1a42b61f2b,0.0406,0.0406,0,52,52,19,1,twofour,,,,,,,,,,,,,,,,,,,,,,,,,,,,,,,,,,,,,,,,,,,,,,,,,,,,,,,,,,,,,,,,,,,,,,,,,,,,,,,,,,,,,,,,,,,,,,,,,,,,,,,,,,,,,,,,,,,,,,,,,,,,,,,,,,,,,,,,,
,,67da5ae29f57419143d2b99a,2026-03-17_16h40.47.184,kallum_motion_pilot_GIST_update_2,2026.1.1,Win32,58.82352941,67da5ae29f57419143d2b99a,69b95efdef24cd8a694e89ee,69b960d1ea0c9e1a42b61f2b,0.0407,0.0407,0,53,53,45,1,threefour,,,,,,,,,,,,,,,,,,,,,,,,,,,,,,,,,,,,,,,,,,,,,,,,,,,,,,,,,,,,,,,,,,,,,,,,,,,,,,,,,,,,,,,,,,,,,,,,,,,,,,,,,,,,,,,,,,,,,,,,,,,,,,,,,,,,,,,,,
,,67da5ae29f57419143d2b99a,2026-03-17_16h40.47.184,kallum_motion_pilot_GIST_update_2,2026.1.1,Win32,58.82352941,67da5ae29f57419143d2b99a,69b95efdef24cd8a694e89ee,69b960d1ea0c9e1a42b61f2b,0.0407,0.0407,0,54,54,148,1,sevenfive,,,,,,,,,,,,,,,,,,,,,,,,,,,,,,,,,,,,,,,,,,,,,,,,,,,,,,,,,,,,,,,,,,,,,,,,,,,,,,,,,,,,,,,,,,,,,,,,,,,,,,,,,,,,,,,,,,,,,,,,,,,,,,,,,,,,,,,,,
,,67da5ae29f57419143d2b99a,2026-03-17_16h40.47.184,kallum_motion_pilot_GIST_update_2,2026.1.1,Win32,58.82352941,67da5ae29f57419143d2b99a,69b95efdef24cd8a694e89ee,69b960d1ea0c9e1a42b61f2b,0.0409,0.0409,0,55,55,75,1,twofour,,,,,,,,,,,,,,,,,,,,,,,,,,,,,,,,,,,,,,,,,,,,,,,,,,,,,,,,,,,,,,,,,,,,,,,,,,,,,,,,,,,,,,,,,,,,,,,,,,,,,,,,,,,,,,,,,,,,,,,,,,,,,,,,,,,,,,,,,
,,67da5ae29f57419143d2b99a,2026-03-17_16h40.47.184,kallum_motion_pilot_GIST_update_2,2026.1.1,Win32,58.82352941,67da5ae29f57419143d2b99a,69b95efdef24cd8a694e89ee,69b960d1ea0c9e1a42b61f2b,0.041,0.041,0,56,56,60,1,threeone,,,,,,,,,,,,,,,,,,,,,,,,,,,,,,,,,,,,,,,,,,,,,,,,,,,,,,,,,,,,,,,,,,,,,,,,,,,,,,,,,,,,,,,,,,,,,,,,,,,,,,,,,,,,,,,,,,,,,,,,,,,,,,,,,,,,,,,,,
,,67da5ae29f57419143d2b99a,2026-03-17_16h40.47.184,kallum_motion_pilot_GIST_update_2,2026.1.1,Win32,58.82352941,67da5ae29f57419143d2b99a,69b95efdef24cd8a694e89ee,69b960d1ea0c9e1a42b61f2b,0.041,0.041,0,57,57,85,1,seveneight,,,,,,,,,,,,,,,,,,,,,,,,,,,,,,,,,,,,,,,,,,,,,,,,,,,,,,,,,,,,,,,,,,,,,,,,,,,,,,,,,,,,,,,,,,,,,,,,,,,,,,,,,,,,,,,,,,,,,,,,,,,,,,,,,,,,,,,,,
,,67da5ae29f57419143d2b99a,2026-03-17_16h40.47.184,kallum_motion_pilot_GIST_update_2,2026.1.1,Win32,58.82352941,67da5ae29f57419143d2b99a,69b95efdef24cd8a694e89ee,69b960d1ea0c9e1a42b61f2b,0.0412,0.0412,0,58,58,72,1,onetwo,,,,,,,,,,,,,,,,,,,,,,,,,,,,,,,,,,,,,,,,,,,,,,,,,,,,,,,,,,,,,,,,,,,,,,,,,,,,,,,,,,,,,,,,,,,,,,,,,,,,,,,,,,,,,,,,,,,,,,,,,,,,,,,,,,,,,,,,,
,,67da5ae29f57419143d2b99a,2026-03-17_16h40.47.184,kallum_motion_pilot_GIST_update_2,2026.1.1,Win32,58.82352941,67da5ae29f57419143d2b99a,69b95efdef24cd8a694e89ee,69b960d1ea0c9e1a42b61f2b,0.0413,0.0413,0,59,59,66,1,twoone,,,,,,,,,,,,,,,,,,,,,,,,,,,,,,,,,,,,,,,,,,,,,,,,,,,,,,,,,,,,,,,,,,,,,,,,,,,,,,,,,,,,,,,,,,,,,,,,,,,,,,,,,,,,,,,,,,,,,,,,,,,,,,,,,,,,,,,,,
,,67da5ae29f57419143d2b99a,2026-03-17_16h40.47.184,kallum_motion_pilot_GIST_update_2,2026.1.1,Win32,58.82352941,67da5ae29f57419143d2b99a,69b95efdef24cd8a694e89ee,69b960d1ea0c9e1a42b61f2b,0.0413,0.0413,0,60,60,36,1,threeone,,,,,,,,,,,,,,,,,,,,,,,,,,,,,,,,,,,,,,,,,,,,,,,,,,,,,,,,,,,,,,,,,,,,,,,,,,,,,,,,,,,,,,,,,,,,,,,,,,,,,,,,,,,,,,,,,,,,,,,,,,,,,,,,,,,,,,,,,
,,67da5ae29f57419143d2b99a,2026-03-17_16h40.47.184,kallum_motion_pilot_GIST_update_2,2026.1.1,Win32,58.82352941,67da5ae29f57419143d2b99a,69b95efdef24cd8a694e89ee,69b960d1ea0c9e1a42b61f2b,0.0415,0.0415,0,61,61,102,1,eightsix,,,,,,,,,,,,,,,,,,,,,,,,,,,,,,,,,,,,,,,,,,,,,,,,,,,,,,,,,,,,,,,,,,,,,,,,,,,,,,,,,,,,,,,,,,,,,,,,,,,,,,,,,,,,,,,,,,,,,,,,,,,,,,,,,,,,,,,,,
,,67da5ae29f57419143d2b99a,2026-03-17_16h40.47.184,kallum_motion_pilot_GIST_update_2,2026.1.1,Win32,58.82352941,67da5ae29f57419143d2b99a,69b95efdef24cd8a694e89ee,69b960d1ea0c9e1a42b61f2b,0.0416,0.0416,0,62,62,22,1,fourtwo,,,,,,,,,,,,,,,,,,,,,,,,,,,,,,,,,,,,,,,,,,,,,,,,,,,,,,,,,,,,,,,,,,,,,,,,,,,,,,,,,,,,,,,,,,,,,,,,,,,,,,,,,,,,,,,,,,,,,,,,,,,,,,,,,,,,,,,,,
,,67da5ae29f57419143d2b99a,2026-03-17_16h40.47.184,kallum_motion_pilot_GIST_update_2,2026.1.1,Win32,58.82352941,67da5ae29f57419143d2b99a,69b95efdef24cd8a694e89ee,69b960d1ea0c9e1a42b61f2b,0.042,0.0421,0,63,63,2,1,twoone,,,,,,,,,,,,,,,,,,,,,,,,,,,,,,,,,,,,,,,,,,,,,,,,,,,,,,,,,,,,,,,,,,,,,,,,,,,,,,,,,,,,,,,,,,,,,,,,,,,,,,,,,,,,,,,,,,,,,,,,,,,,,,,,,,,,,,,,,
,,67da5ae29f57419143d2b99a,2026-03-17_16h40.47.184,kallum_motion_pilot_GIST_update_2,2026.1.1,Win32,58.82352941,67da5ae29f57419143d2b99a,69b95efdef24cd8a694e89ee,69b960d1ea0c9e1a42b61f2b,0.0423,0.0423,0,64,64,111,1,eightseven,,,,,,,,,,,,,,,,,,,,,,,,,,,,,,,,,,,,,,,,,,,,,,,,,,,,,,,,,,,,,,,,,,,,,,,,,,,,,,,,,,,,,,,,,,,,,,,,,,,,,,,,,,,,,,,,,,,,,,,,,,,,,,,,,,,,,,,,,
,,67da5ae29f57419143d2b99a,2026-03-17_16h40.47.184,kallum_motion_pilot_GIST_update_2,2026.1.1,Win32,58.82352941,67da5ae29f57419143d2b99a,69b95efdef24cd8a694e89ee,69b960d1ea0c9e1a42b61f2b,0.0425,0.0425,0,65,65,120,1,fivesix,,,,,,,,,,,,,,,,,,,,,,,,,,,,,,,,,,,,,,,,,,,,,,,,,,,,,,,,,,,,,,,,,,,,,,,,,,,,,,,,,,,,,,,,,,,,,,,,,,,,,,,,,,,,,,,,,,,,,,,,,,,,,,,,,,,,,,,,,
,,67da5ae29f57419143d2b99a,2026-03-17_16h40.47.184,kallum_motion_pilot_GIST_update_2,2026.1.1,Win32,58.82352941,67da5ae29f57419143d2b99a,69b95efdef24cd8a694e89ee,69b960d1ea0c9e1a42b61f2b,0.0427,0.0427,0,66,66,94,1,eightsix,,,,,,,,,,,,,,,,,,,,,,,,,,,,,,,,,,,,,,,,,,,,,,,,,,,,,,,,,,,,,,,,,,,,,,,,,,,,,,,,,,,,,,,,,,,,,,,,,,,,,,,,,,,,,,,,,,,,,,,,,,,,,,,,,,,,,,,,,
,,67da5ae29f57419143d2b99a,2026-03-17_16h40.47.184,kallum_motion_pilot_GIST_update_2,2026.1.1,Win32,58.82352941,67da5ae29f57419143d2b99a,69b95efdef24cd8a694e89ee,69b960d1ea0c9e1a42b61f2b,0.0429,0.0429,0,67,67,55,1,fourthree,,,,,,,,,,,,,,,,,,,,,,,,,,,,,,,,,,,,,,,,,,,,,,,,,,,,,,,,,,,,,,,,,,,,,,,,,,,,,,,,,,,,,,,,,,,,,,,,,,,,,,,,,,,,,,,,,,,,,,,,,,,,,,,,,,,,,,,,,
,,67da5ae29f57419143d2b99a,2026-03-17_16h40.47.184,kallum_motion_pilot_GIST_update_2,2026.1.1,Win32,58.82352941,67da5ae29f57419143d2b99a,69b95efdef24cd8a694e89ee,69b960d1ea0c9e1a42b61f2b,0.0431,0.0431,0,68,68,21,1,threefour,,,,,,,,,,,,,,,,,,,,,,,,,,,,,,,,,,,,,,,,,,,,,,,,,,,,,,,,,,,,,,,,,,,,,,,,,,,,,,,,,,,,,,,,,,,,,,,,,,,,,,,,,,,,,,,,,,,,,,,,,,,,,,,,,,,,,,,,,
,,67da5ae29f57419143d2b99a,2026-03-17_16h40.47.184,kallum_motion_pilot_GIST_update_2,2026.1.1,Win32,58.82352941,67da5ae29f57419143d2b99a,69b95efdef24cd8a694e89ee,69b960d1ea0c9e1a42b61f2b,0.0433,0.0433,0,69,69,104,1,fivesix,,,,,,,,,,,,,,,,,,,,,,,,,,,,,,,,,,,,,,,,,,,,,,,,,,,,,,,,,,,,,,,,,,,,,,,,,,,,,,,,,,,,,,,,,,,,,,,,,,,,,,,,,,,,,,,,,,,,,,,,,,,,,,,,,,,,,,,,,
,,67da5ae29f57419143d2b99a,2026-03-17_16h40.47.184,kallum_motion_pilot_GIST_update_2,2026.1.1,Win32,58.82352941,67da5ae29f57419143d2b99a,69b95efdef24cd8a694e89ee,69b960d1ea0c9e1a42b61f2b,0.0436,0.0436,0,70,70,7,1,fourthree,,,,,,,,,,,,,,,,,,,,,,,,,,,,,,,,,,,,,,,,,,,,,,,,,,,,,,,,,,,,,,,,,,,,,,,,,,,,,,,,,,,,,,,,,,,,,,,,,,,,,,,,,,,,,,,,,,,,,,,,,,,,,,,,,,,,,,,,,
,,67da5ae29f57419143d2b99a,2026-03-17_16h40.47.184,kallum_motion_pilot_GIST_update_2,2026.1.1,Win32,58.82352941,67da5ae29f57419143d2b99a,69b95efdef24cd8a694e89ee,69b960d1ea0c9e1a42b61f2b,0.0438,0.0438,0,71,71,105,1,fiveseven,,,,,,,,,,,,,,,,,,,,,,,,,,,,,,,,,,,,,,,,,,,,,,,,,,,,,,,,,,,,,,,,,,,,,,,,,,,,,,,,,,,,,,,,,,,,,,,,,,,,,,,,,,,,,,,,,,,,,,,,,,,,,,,,,,,,,,,,,
,,67da5ae29f57419143d2b99a,2026-03-17_16h40.47.184,kallum_motion_pilot_GIST_update_2,2026.1.1,Win32,58.82352941,67da5ae29f57419143d2b99a,69b95efdef24cd8a694e89ee,69b960d1ea0c9e1a42b61f2b,0.0441,0.0441,0,72,72,88,1,fivesix,,,,,,,,,,,,,,,,,,,,,,,,,,,,,,,,,,,,,,,,,,,,,,,,,,,,,,,,,,,,,,,,,,,,,,,,,,,,,,,,,,,,,,,,,,,,,,,,,,,,,,,,,,,,,,,,,,,,,,,,,,,,,,,,,,,,,,,,,
,,67da5ae29f57419143d2b99a,2026-03-17_16h40.47.184,kallum_motion_pilot_GIST_update_2,2026.1.1,Win32,58.82352941,67da5ae29f57419143d2b99a,69b95efdef24cd8a694e89ee,69b960d1ea0c9e1a42b61f2b,0.0442,0.0442,0,73,73,87,1,eightseven,,,,,,,,,,,,,,,,,,,,,,,,,,,,,,,,,,,,,,,,,,,,,,,,,,,,,,,,,,,,,,,,,,,,,,,,,,,,,,,,,,,,,,,,,,,,,,,,,,,,,,,,,,,,,,,,,,,,,,,,,,,,,,,,,,,,,,,,,
,,67da5ae29f57419143d2b99a,2026-03-17_16h40.47.184,kallum_motion_pilot_GIST_update_2,2026.1.1,Win32,58.82352941,67da5ae29f57419143d2b99a,69b95efdef24cd8a694e89ee,69b960d1ea0c9e1a42b61f2b,0.0444,0.0444,0,74,74,65,1,onethree,,,,,,,,,,,,,,,,,,,,,,,,,,,,,,,,,,,,,,,,,,,,,,,,,,,,,,,,,,,,,,,,,,,,,,,,,,,,,,,,,,,,,,,,,,,,,,,,,,,,,,,,,,,,,,,,,,,,,,,,,,,,,,,,,,,,,,,,,
,,67da5ae29f57419143d2b99a,2026-03-17_16h40.47.184,kallum_motion_pilot_GIST_update_2,2026.1.1,Win32,58.82352941,67da5ae29f57419143d2b99a,69b95efdef24cd8a694e89ee,69b960d1ea0c9e1a42b61f2b,0.0445,0.0445,0,75,75,99,1,sixeight,,,,,,,,,,,,,,,,,,,,,,,,,,,,,,,,,,,,,,,,,,,,,,,,,,,,,,,,,,,,,,,,,,,,,,,,,,,,,,,,,,,,,,,,,,,,,,,,,,,,,,,,,,,,,,,,,,,,,,,,,,,,,,,,,,,,,,,,,
,,67da5ae29f57419143d2b99a,2026-03-17_16h40.47.184,kallum_motion_pilot_GIST_update_2,2026.1.1,Win32,58.82352941,67da5ae29f57419143d2b99a,69b95efdef24cd8a694e89ee,69b960d1ea0c9e1a42b61f2b,0.0446,0.0446,0,76,76,63,1,fourthree,,,,,,,,,,,,,,,,,,,,,,,,,,,,,,,,,,,,,,,,,,,,,,,,,,,,,,,,,,,,,,,,,,,,,,,,,,,,,,,,,,,,,,,,,,,,,,,,,,,,,,,,,,,,,,,,,,,,,,,,,,,,,,,,,,,,,,,,,
,,67da5ae29f57419143d2b99a,2026-03-17_16h40.47.184,kallum_motion_pilot_GIST_update_2,2026.1.1,Win32,58.82352941,67da5ae29f57419143d2b99a,69b95efdef24cd8a694e89ee,69b960d1ea0c9e1a42b61f2b,0.0448,0.0448,0,77,77,56,1,onetwo,,,,,,,,,,,,,,,,,,,,,,,,,,,,,,,,,,,,,,,,,,,,,,,,,,,,,,,,,,,,,,,,,,,,,,,,,,,,,,,,,,,,,,,,,,,,,,,,,,,,,,,,,,,,,,,,,,,,,,,,,,,,,,,,,,,,,,,,,
,,67da5ae29f57419143d2b99a,2026-03-17_16h40.47.184,kallum_motion_pilot_GIST_update_2,2026.1.1,Win32,58.82352941,67da5ae29f57419143d2b99a,69b95efdef24cd8a694e89ee,69b960d1ea0c9e1a42b61f2b,0.0449,0.045,0,78,78,86,1,eightsix,,,,,,,,,,,,,,,,,,,,,,,,,,,,,,,,,,,,,,,,,,,,,,,,,,,,,,,,,,,,,,,,,,,,,,,,,,,,,,,,,,,,,,,,,,,,,,,,,,,,,,,,,,,,,,,,,,,,,,,,,,,,,,,,,,,,,,,,,
,,67da5ae29f57419143d2b99a,2026-03-17_16h40.47.184,kallum_motion_pilot_GIST_update_2,2026.1.1,Win32,58.82352941,67da5ae29f57419143d2b99a,69b95efdef24cd8a694e89ee,69b960d1ea0c9e1a42b61f2b,0.0451,0.0451,0,79,79,89,1,fiveseven,,,,,,,,,,,,,,,,,,,,,,,,,,,,,,,,,,,,,,,,,,,,,,,,,,,,,,,,,,,,,,,,,,,,,,,,,,,,,,,,,,,,,,,,,,,,,,,,,,,,,,,,,,,,,,,,,,,,,,,,,,,,,,,,,,,,,,,,,
,,67da5ae29f57419143d2b99a,2026-03-17_16h40.47.184,kallum_motion_pilot_GIST_update_2,2026.1.1,Win32,58.82352941,67da5ae29f57419143d2b99a,69b95efdef24cd8a694e89ee,69b960d1ea0c9e1a42b61f2b,0.0453,0.0453,0,80,80,110,1,eightsix,,,,,,,,,,,,,,,,,,,,,,,,,,,,,,,,,,,,,,,,,,,,,,,,,,,,,,,,,,,,,,,,,,,,,,,,,,,,,,,,,,,,,,,,,,,,,,,,,,,,,,,,,,,,,,,,,,,,,,,,,,,,,,,,,,,,,,,,,
,,67da5ae29f57419143d2b99a,2026-03-17_16h40.47.184,kallum_motion_pilot_GIST_update_2,2026.1.1,Win32,58.82352941,67da5ae29f57419143d2b99a,69b95efdef24cd8a694e89ee,69b960d1ea0c9e1a42b61f2b,0.0454,0.0454,0,81,81,124,1,sevenfive,,,,,,,,,,,,,,,,,,,,,,,,,,,,,,,,,,,,,,,,,,,,,,,,,,,,,,,,,,,,,,,,,,,,,,,,,,,,,,,,,,,,,,,,,,,,,,,,,,,,,,,,,,,,,,,,,,,,,,,,,,,,,,,,,,,,,,,,,
,,67da5ae29f57419143d2b99a,2026-03-17_16h40.47.184,kallum_motion_pilot_GIST_update_2,2026.1.1,Win32,58.82352941,67da5ae29f57419143d2b99a,69b95efdef24cd8a694e89ee,69b960d1ea0c9e1a42b61f2b,0.0455,0.0455,0,82,82,123,1,sixeight,,,,,,,,,,,,,,,,,,,,,,,,,,,,,,,,,,,,,,,,,,,,,,,,,,,,,,,,,,,,,,,,,,,,,,,,,,,,,,,,,,,,,,,,,,,,,,,,,,,,,,,,,,,,,,,,,,,,,,,,,,,,,,,,,,,,,,,,,
,,67da5ae29f57419143d2b99a,2026-03-17_16h40.47.184,kallum_motion_pilot_GIST_update_2,2026.1.1,Win32,58.82352941,67da5ae29f57419143d2b99a,69b95efdef24cd8a694e89ee,69b960d1ea0c9e1a42b61f2b,0.0456,0.0456,0,83,83,126,1,eightsix,,,,,,,,,,,,,,,,,,,,,,,,,,,,,,,,,,,,,,,,,,,,,,,,,,,,,,,,,,,,,,,,,,,,,,,,,,,,,,,,,,,,,,,,,,,,,,,,,,,,,,,,,,,,,,,,,,,,,,,,,,,,,,,,,,,,,,,,,
,,67da5ae29f57419143d2b99a,2026-03-17_16h40.47.184,kallum_motion_pilot_GIST_update_2,2026.1.1,Win32,58.82352941,67da5ae29f57419143d2b99a,69b95efdef24cd8a694e89ee,69b960d1ea0c9e1a42b61f2b,0.0457,0.0457,0,84,84,141,1,seveneight,,,,,,,,,,,,,,,,,,,,,,,,,,,,,,,,,,,,,,,,,,,,,,,,,,,,,,,,,,,,,,,,,,,,,,,,,,,,,,,,,,,,,,,,,,,,,,,,,,,,,,,,,,,,,,,,,,,,,,,,,,,,,,,,,,,,,,,,,
,,67da5ae29f57419143d2b99a,2026-03-17_16h40.47.184,kallum_motion_pilot_GIST_update_2,2026.1.1,Win32,58.82352941,67da5ae29f57419143d2b99a,69b95efdef24cd8a694e89ee,69b960d1ea0c9e1a42b61f2b,0.0458,0.0459,0,85,85,152,1,fivesix,,,,,,,,,,,,,,,,,,,,,,,,,,,,,,,,,,,,,,,,,,,,,,,,,,,,,,,,,,,,,,,,,,,,,,,,,,,,,,,,,,,,,,,,,,,,,,,,,,,,,,,,,,,,,,,,,,,,,,,,,,,,,,,,,,,,,,,,,
,,67da5ae29f57419143d2b99a,2026-03-17_16h40.47.184,kallum_motion_pilot_GIST_update_2,2026.1.1,Win32,58.82352941,67da5ae29f57419143d2b99a,69b95efdef24cd8a694e89ee,69b960d1ea0c9e1a42b61f2b,0.046,0.046,0,86,86,5,1,threefour,,,,,,,,,,,,,,,,,,,,,,,,,,,,,,,,,,,,,,,,,,,,,,,,,,,,,,,,,,,,,,,,,,,,,,,,,,,,,,,,,,,,,,,,,,,,,,,,,,,,,,,,,,,,,,,,,,,,,,,,,,,,,,,,,,,,,,,,,
,,67da5ae29f57419143d2b99a,2026-03-17_16h40.47.184,kallum_motion_pilot_GIST_update_2,2026.1.1,Win32,58.82352941,67da5ae29f57419143d2b99a,69b95efdef24cd8a694e89ee,69b960d1ea0c9e1a42b61f2b,0.046,0.046,0,87,87,25,1,onethree,,,,,,,,,,,,,,,,,,,,,,,,,,,,,,,,,,,,,,,,,,,,,,,,,,,,,,,,,,,,,,,,,,,,,,,,,,,,,,,,,,,,,,,,,,,,,,,,,,,,,,,,,,,,,,,,,,,,,,,,,,,,,,,,,,,,,,,,,
,,67da5ae29f57419143d2b99a,2026-03-17_16h40.47.184,kallum_motion_pilot_GIST_update_2,2026.1.1,Win32,58.82352941,67da5ae29f57419143d2b99a,69b95efdef24cd8a694e89ee,69b960d1ea0c9e1a42b61f2b,0.0461,0.0461,0,88,88,117,1,seveneight,,,,,,,,,,,,,,,,,,,,,,,,,,,,,,,,,,,,,,,,,,,,,,,,,,,,,,,,,,,,,,,,,,,,,,,,,,,,,,,,,,,,,,,,,,,,,,,,,,,,,,,,,,,,,,,,,,,,,,,,,,,,,,,,,,,,,,,,,
,,67da5ae29f57419143d2b99a,2026-03-17_16h40.47.184,kallum_motion_pilot_GIST_update_2,2026.1.1,Win32,58.82352941,67da5ae29f57419143d2b99a,69b95efdef24cd8a694e89ee,69b960d1ea0c9e1a42b61f2b,0.0462,0.0462,0,89,89,158,1,eightsix,,,,,,,,,,,,,,,,,,,,,,,,,,,,,,,,,,,,,,,,,,,,,,,,,,,,,,,,,,,,,,,,,,,,,,,,,,,,,,,,,,,,,,,,,,,,,,,,,,,,,,,,,,,,,,,,,,,,,,,,,,,,,,,,,,,,,,,,,
,,67da5ae29f57419143d2b99a,2026-03-17_16h40.47.184,kallum_motion_pilot_GIST_update_2,2026.1.1,Win32,58.82352941,67da5ae29f57419143d2b99a,69b95efdef24cd8a694e89ee,69b960d1ea0c9e1a42b61f2b,0.0464,0.0464,0,90,90,79,1,eightseven,,,,,,,,,,,,,,,,,,,,,,,,,,,,,,,,,,,,,,,,,,,,,,,,,,,,,,,,,,,,,,,,,,,,,,,,,,,,,,,,,,,,,,,,,,,,,,,,,,,,,,,,,,,,,,,,,,,,,,,,,,,,,,,,,,,,,,,,,
,,67da5ae29f57419143d2b99a,2026-03-17_16h40.47.184,kallum_motion_pilot_GIST_update_2,2026.1.1,Win32,58.82352941,67da5ae29f57419143d2b99a,69b95efdef24cd8a694e89ee,69b960d1ea0c9e1a42b61f2b,0.0465,0.0465,0,91,91,157,1,seveneight,,,,,,,,,,,,,,,,,,,,,,,,,,,,,,,,,,,,,,,,,,,,,,,,,,,,,,,,,,,,,,,,,,,,,,,,,,,,,,,,,,,,,,,,,,,,,,,,,,,,,,,,,,,,,,,,,,,,,,,,,,,,,,,,,,,,,,,,,
,,67da5ae29f57419143d2b99a,2026-03-17_16h40.47.184,kallum_motion_pilot_GIST_update_2,2026.1.1,Win32,58.82352941,67da5ae29f57419143d2b99a,69b95efdef24cd8a694e89ee,69b960d1ea0c9e1a42b61f2b,0.0466,0.0466,0,92,92,134,1,eightsix,,,,,,,,,,,,,,,,,,,,,,,,,,,,,,,,,,,,,,,,,,,,,,,,,,,,,,,,,,,,,,,,,,,,,,,,,,,,,,,,,,,,,,,,,,,,,,,,,,,,,,,,,,,,,,,,,,,,,,,,,,,,,,,,,,,,,,,,,
,,67da5ae29f57419143d2b99a,2026-03-17_16h40.47.184,kallum_motion_pilot_GIST_update_2,2026.1.1,Win32,58.82352941,67da5ae29f57419143d2b99a,69b95efdef24cd8a694e89ee,69b960d1ea0c9e1a42b61f2b,0.0466,0.0466,0,93,93,118,1,eightsix,,,,,,,,,,,,,,,,,,,,,,,,,,,,,,,,,,,,,,,,,,,,,,,,,,,,,,,,,,,,,,,,,,,,,,,,,,,,,,,,,,,,,,,,,,,,,,,,,,,,,,,,,,,,,,,,,,,,,,,,,,,,,,,,,,,,,,,,,
,,67da5ae29f57419143d2b99a,2026-03-17_16h40.47.184,kallum_motion_pilot_GIST_update_2,2026.1.1,Win32,58.82352941,67da5ae29f57419143d2b99a,69b95efdef24cd8a694e89ee,69b960d1ea0c9e1a42b61f2b,0.0468,0.0468,0,94,94,132,1,sevenfive,,,,,,,,,,,,,,,,,,,,,,,,,,,,,,,,,,,,,,,,,,,,,,,,,,,,,,,,,,,,,,,,,,,,,,,,,,,,,,,,,,,,,,,,,,,,,,,,,,,,,,,,,,,,,,,,,,,,,,,,,,,,,,,,,,,,,,,,,
,,67da5ae29f57419143d2b99a,2026-03-17_16h40.47.184,kallum_motion_pilot_GIST_update_2,2026.1.1,Win32,58.82352941,67da5ae29f57419143d2b99a,69b95efdef24cd8a694e89ee,69b960d1ea0c9e1a42b61f2b,0.0469,0.0469,0,95,95,67,1,twofour,,,,,,,,,,,,,,,,,,,,,,,,,,,,,,,,,,,,,,,,,,,,,,,,,,,,,,,,,,,,,,,,,,,,,,,,,,,,,,,,,,,,,,,,,,,,,,,,,,,,,,,,,,,,,,,,,,,,,,,,,,,,,,,,,,,,,,,,,
,,67da5ae29f57419143d2b99a,2026-03-17_16h40.47.184,kallum_motion_pilot_GIST_update_2,2026.1.1,Win32,58.82352941,67da5ae29f57419143d2b99a,69b95efdef24cd8a694e89ee,69b960d1ea0c9e1a42b61f2b,0.047,0.047,0,96,96,81,1,fiveseven,,,,,,,,,,,,,,,,,,,,,,,,,,,,,,,,,,,,,,,,,,,,,,,,,,,,,,,,,,,,,,,,,,,,,,,,,,,,,,,,,,,,,,,,,,,,,,,,,,,,,,,,,,,,,,,,,,,,,,,,,,,,,,,,,,,,,,,,,
,,67da5ae29f57419143d2b99a,2026-03-17_16h40.47.184,kallum_motion_pilot_GIST_update_2,2026.1.1,Win32,58.82352941,67da5ae29f57419143d2b99a,69b95efdef24cd8a694e89ee,69b960d1ea0c9e1a42b61f2b,0.0471,0.0471,0,97,97,131,1,sixeight,,,,,,,,,,,,,,,,,,,,,,,,,,,,,,,,,,,,,,,,,,,,,,,,,,,,,,,,,,,,,,,,,,,,,,,,,,,,,,,,,,,,,,,,,,,,,,,,,,,,,,,,,,,,,,,,,,,,,,,,,,,,,,,,,,,,,,,,,
,,67da5ae29f57419143d2b99a,2026-03-17_16h40.47.184,kallum_motion_pilot_GIST_update_2,2026.1.1,Win32,58.82352941,67da5ae29f57419143d2b99a,69b95efdef24cd8a694e89ee,69b960d1ea0c9e1a42b61f2b,0.0473,0.0473,0,98,98,91,1,sixeight,,,,,,,,,,,,,,,,,,,,,,,,,,,,,,,,,,,,,,,,,,,,,,,,,,,,,,,,,,,,,,,,,,,,,,,,,,,,,,,,,,,,,,,,,,,,,,,,,,,,,,,,,,,,,,,,,,,,,,,,,,,,,,,,,,,,,,,,,
,,67da5ae29f57419143d2b99a,2026-03-17_16h40.47.184,kallum_motion_pilot_GIST_update_2,2026.1.1,Win32,58.82352941,67da5ae29f57419143d2b99a,69b95efdef24cd8a694e89ee,69b960d1ea0c9e1a42b61f2b,0.0473,0.0473,0,99,99,12,1,threeone,,,,,,,,,,,,,,,,,,,,,,,,,,,,,,,,,,,,,,,,,,,,,,,,,,,,,,,,,,,,,,,,,,,,,,,,,,,,,,,,,,,,,,,,,,,,,,,,,,,,,,,,,,,,,,,,,,,,,,,,,,,,,,,,,,,,,,,,,
,,67da5ae29f57419143d2b99a,2026-03-17_16h40.47.184,kallum_motion_pilot_GIST_update_2,2026.1.1,Win32,58.82352941,67da5ae29f57419143d2b99a,69b95efdef24cd8a694e89ee,69b960d1ea0c9e1a42b61f2b,0.0474,0.0474,0,100,100,84,1,sevenfive,,,,,,,,,,,,,,,,,,,,,,,,,,,,,,,,,,,,,,,,,,,,,,,,,,,,,,,,,,,,,,,,,,,,,,,,,,,,,,,,,,,,,,,,,,,,,,,,,,,,,,,,,,,,,,,,,,,,,,,,,,,,,,,,,,,,,,,,,
,,67da5ae29f57419143d2b99a,2026-03-17_16h40.47.184,kallum_motion_pilot_GIST_update_2,2026.1.1,Win32,58.82352941,67da5ae29f57419143d2b99a,69b95efdef24cd8a694e89ee,69b960d1ea0c9e1a42b61f2b,0.0476,0.0476,0,101,101,57,1,onethree,,,,,,,,,,,,,,,,,,,,,,,,,,,,,,,,,,,,,,,,,,,,,,,,,,,,,,,,,,,,,,,,,,,,,,,,,,,,,,,,,,,,,,,,,,,,,,,,,,,,,,,,,,,,,,,,,,,,,,,,,,,,,,,,,,,,,,,,,
,,67da5ae29f57419143d2b99a,2026-03-17_16h40.47.184,kallum_motion_pilot_GIST_update_2,2026.1.1,Win32,58.82352941,67da5ae29f57419143d2b99a,69b95efdef24cd8a694e89ee,69b960d1ea0c9e1a42b61f2b,0.0477,0.0477,0,102,102,6,1,fourtwo,,,,,,,,,,,,,,,,,,,,,,,,,,,,,,,,,,,,,,,,,,,,,,,,,,,,,,,,,,,,,,,,,,,,,,,,,,,,,,,,,,,,,,,,,,,,,,,,,,,,,,,,,,,,,,,,,,,,,,,,,,,,,,,,,,,,,,,,,
,,67da5ae29f57419143d2b99a,2026-03-17_16h40.47.184,kallum_motion_pilot_GIST_update_2,2026.1.1,Win32,58.82352941,67da5ae29f57419143d2b99a,69b95efdef24cd8a694e89ee,69b960d1ea0c9e1a42b61f2b,0.0478,0.0478,0,103,103,114,1,sixfive,,,,,,,,,,,,,,,,,,,,,,,,,,,,,,,,,,,,,,,,,,,,,,,,,,,,,,,,,,,,,,,,,,,,,,,,,,,,,,,,,,,,,,,,,,,,,,,,,,,,,,,,,,,,,,,,,,,,,,,,,,,,,,,,,,,,,,,,,
,,67da5ae29f57419143d2b99a,2026-03-17_16h40.47.184,kallum_motion_pilot_GIST_update_2,2026.1.1,Win32,58.82352941,67da5ae29f57419143d2b99a,69b95efdef24cd8a694e89ee,69b960d1ea0c9e1a42b61f2b,0.0479,0.0479,0,104,104,127,1,eightseven,,,,,,,,,,,,,,,,,,,,,,,,,,,,,,,,,,,,,,,,,,,,,,,,,,,,,,,,,,,,,,,,,,,,,,,,,,,,,,,,,,,,,,,,,,,,,,,,,,,,,,,,,,,,,,,,,,,,,,,,,,,,,,,,,,,,,,,,,
,,67da5ae29f57419143d2b99a,2026-03-17_16h40.47.184,kallum_motion_pilot_GIST_update_2,2026.1.1,Win32,58.82352941,67da5ae29f57419143d2b99a,69b95efdef24cd8a694e89ee,69b960d1ea0c9e1a42b61f2b,0.048,0.048,0,105,105,112,1,fivesix,,,,,,,,,,,,,,,,,,,,,,,,,,,,,,,,,,,,,,,,,,,,,,,,,,,,,,,,,,,,,,,,,,,,,,,,,,,,,,,,,,,,,,,,,,,,,,,,,,,,,,,,,,,,,,,,,,,,,,,,,,,,,,,,,,,,,,,,,
,,67da5ae29f57419143d2b99a,2026-03-17_16h40.47.184,kallum_motion_pilot_GIST_update_2,2026.1.1,Win32,58.82352941,67da5ae29f57419143d2b99a,69b95efdef24cd8a694e89ee,69b960d1ea0c9e1a42b61f2b,0.0482,0.0482,0,106,106,17,1,onethree,,,,,,,,,,,,,,,,,,,,,,,,,,,,,,,,,,,,,,,,,,,,,,,,,,,,,,,,,,,,,,,,,,,,,,,,,,,,,,,,,,,,,,,,,,,,,,,,,,,,,,,,,,,,,,,,,,,,,,,,,,,,,,,,,,,,,,,,,
,,67da5ae29f57419143d2b99a,2026-03-17_16h40.47.184,kallum_motion_pilot_GIST_update_2,2026.1.1,Win32,58.82352941,67da5ae29f57419143d2b99a,69b95efdef24cd8a694e89ee,69b960d1ea0c9e1a42b61f2b,0.0482,0.0483,0,107,107,159,1,eightseven,,,,,,,,,,,,,,,,,,,,,,,,,,,,,,,,,,,,,,,,,,,,,,,,,,,,,,,,,,,,,,,,,,,,,,,,,,,,,,,,,,,,,,,,,,,,,,,,,,,,,,,,,,,,,,,,,,,,,,,,,,,,,,,,,,,,,,,,,
,,67da5ae29f57419143d2b99a,2026-03-17_16h40.47.184,kallum_motion_pilot_GIST_update_2,2026.1.1,Win32,58.82352941,67da5ae29f57419143d2b99a,69b95efdef24cd8a694e89ee,69b960d1ea0c9e1a42b61f2b,0.0484,0.0484,0,108,108,83,1,sixeight,,,,,,,,,,,,,,,,,,,,,,,,,,,,,,,,,,,,,,,,,,,,,,,,,,,,,,,,,,,,,,,,,,,,,,,,,,,,,,,,,,,,,,,,,,,,,,,,,,,,,,,,,,,,,,,,,,,,,,,,,,,,,,,,,,,,,,,,,
,,67da5ae29f57419143d2b99a,2026-03-17_16h40.47.184,kallum_motion_pilot_GIST_update_2,2026.1.1,Win32,58.82352941,67da5ae29f57419143d2b99a,69b95efdef24cd8a694e89ee,69b960d1ea0c9e1a42b61f2b,0.0485,0.0486,0,109,109,103,1,eightseven,,,,,,,,,,,,,,,,,,,,,,,,,,,,,,,,,,,,,,,,,,,,,,,,,,,,,,,,,,,,,,,,,,,,,,,,,,,,,,,,,,,,,,,,,,,,,,,,,,,,,,,,,,,,,,,,,,,,,,,,,,,,,,,,,,,,,,,,,
,,67da5ae29f57419143d2b99a,2026-03-17_16h40.47.184,kallum_motion_pilot_GIST_update_2,2026.1.1,Win32,58.82352941,67da5ae29f57419143d2b99a,69b95efdef24cd8a694e89ee,69b960d1ea0c9e1a42b61f2b,0.0486,0.0487,0,110,110,29,1,threefour,,,,,,,,,,,,,,,,,,,,,,,,,,,,,,,,,,,,,,,,,,,,,,,,,,,,,,,,,,,,,,,,,,,,,,,,,,,,,,,,,,,,,,,,,,,,,,,,,,,,,,,,,,,,,,,,,,,,,,,,,,,,,,,,,,,,,,,,,
,,67da5ae29f57419143d2b99a,2026-03-17_16h40.47.184,kallum_motion_pilot_GIST_update_2,2026.1.1,Win32,58.82352941,67da5ae29f57419143d2b99a,69b95efdef24cd8a694e89ee,69b960d1ea0c9e1a42b61f2b,0.0487,0.0487,0,111,111,42,1,twoone,,,,,,,,,,,,,,,,,,,,,,,,,,,,,,,,,,,,,,,,,,,,,,,,,,,,,,,,,,,,,,,,,,,,,,,,,,,,,,,,,,,,,,,,,,,,,,,,,,,,,,,,,,,,,,,,,,,,,,,,,,,,,,,,,,,,,,,,,
,,67da5ae29f57419143d2b99a,2026-03-17_16h40.47.184,kallum_motion_pilot_GIST_update_2,2026.1.1,Win32,58.82352941,67da5ae29f57419143d2b99a,69b95efdef24cd8a694e89ee,69b960d1ea0c9e1a42b61f2b,0.0489,0.0489,0,112,112,16,1,onetwo,,,,,,,,,,,,,,,,,,,,,,,,,,,,,,,,,,,,,,,,,,,,,,,,,,,,,,,,,,,,,,,,,,,,,,,,,,,,,,,,,,,,,,,,,,,,,,,,,,,,,,,,,,,,,,,,,,,,,,,,,,,,,,,,,,,,,,,,,
,,67da5ae29f57419143d2b99a,2026-03-17_16h40.47.184,kallum_motion_pilot_GIST_update_2,2026.1.1,Win32,58.82352941,67da5ae29f57419143d2b99a,69b95efdef24cd8a694e89ee,69b960d1ea0c9e1a42b61f2b,0.049,0.049,0,113,113,78,1,fourtwo,,,,,,,,,,,,,,,,,,,,,,,,,,,,,,,,,,,,,,,,,,,,,,,,,,,,,,,,,,,,,,,,,,,,,,,,,,,,,,,,,,,,,,,,,,,,,,,,,,,,,,,,,,,,,,,,,,,,,,,,,,,,,,,,,,,,,,,,,
,,67da5ae29f57419143d2b99a,2026-03-17_16h40.47.184,kallum_motion_pilot_GIST_update_2,2026.1.1,Win32,58.82352941,67da5ae29f57419143d2b99a,69b95efdef24cd8a694e89ee,69b960d1ea0c9e1a42b61f2b,0.0491,0.0491,0,114,114,146,1,sixfive,,,,,,,,,,,,,,,,,,,,,,,,,,,,,,,,,,,,,,,,,,,,,,,,,,,,,,,,,,,,,,,,,,,,,,,,,,,,,,,,,,,,,,,,,,,,,,,,,,,,,,,,,,,,,,,,,,,,,,,,,,,,,,,,,,,,,,,,,
,,67da5ae29f57419143d2b99a,2026-03-17_16h40.47.184,kallum_motion_pilot_GIST_update_2,2026.1.1,Win32,58.82352941,67da5ae29f57419143d2b99a,69b95efdef24cd8a694e89ee,69b960d1ea0c9e1a42b61f2b,0.0492,0.0492,0,115,115,77,1,threefour,,,,,,,,,,,,,,,,,,,,,,,,,,,,,,,,,,,,,,,,,,,,,,,,,,,,,,,,,,,,,,,,,,,,,,,,,,,,,,,,,,,,,,,,,,,,,,,,,,,,,,,,,,,,,,,,,,,,,,,,,,,,,,,,,,,,,,,,,
,,67da5ae29f57419143d2b99a,2026-03-17_16h40.47.184,kallum_motion_pilot_GIST_update_2,2026.1.1,Win32,58.82352941,67da5ae29f57419143d2b99a,69b95efdef24cd8a694e89ee,69b960d1ea0c9e1a42b61f2b,0.0493,0.0494,0,116,116,137,1,fiveseven,,,,,,,,,,,,,,,,,,,,,,,,,,,,,,,,,,,,,,,,,,,,,,,,,,,,,,,,,,,,,,,,,,,,,,,,,,,,,,,,,,,,,,,,,,,,,,,,,,,,,,,,,,,,,,,,,,,,,,,,,,,,,,,,,,,,,,,,,
,,67da5ae29f57419143d2b99a,2026-03-17_16h40.47.184,kallum_motion_pilot_GIST_update_2,2026.1.1,Win32,58.82352941,67da5ae29f57419143d2b99a,69b95efdef24cd8a694e89ee,69b960d1ea0c9e1a42b61f2b,0.0495,0.0495,0,117,117,70,1,fourtwo,,,,,,,,,,,,,,,,,,,,,,,,,,,,,,,,,,,,,,,,,,,,,,,,,,,,,,,,,,,,,,,,,,,,,,,,,,,,,,,,,,,,,,,,,,,,,,,,,,,,,,,,,,,,,,,,,,,,,,,,,,,,,,,,,,,,,,,,,
,,67da5ae29f57419143d2b99a,2026-03-17_16h40.47.184,kallum_motion_pilot_GIST_update_2,2026.1.1,Win32,58.82352941,67da5ae29f57419143d2b99a,69b95efdef24cd8a694e89ee,69b960d1ea0c9e1a42b61f2b,0.0496,0.0496,0,118,118,150,1,eightsix,,,,,,,,,,,,,,,,,,,,,,,,,,,,,,,,,,,,,,,,,,,,,,,,,,,,,,,,,,,,,,,,,,,,,,,,,,,,,,,,,,,,,,,,,,,,,,,,,,,,,,,,,,,,,,,,,,,,,,,,,,,,,,,,,,,,,,,,,
,,67da5ae29f57419143d2b99a,2026-03-17_16h40.47.184,kallum_motion_pilot_GIST_update_2,2026.1.1,Win32,58.82352941,67da5ae29f57419143d2b99a,69b95efdef24cd8a694e89ee,69b960d1ea0c9e1a42b61f2b,0.0496,0.0496,0,119,119,71,1,fourthree,,,,,,,,,,,,,,,,,,,,,,,,,,,,,,,,,,,,,,,,,,,,,,,,,,,,,,,,,,,,,,,,,,,,,,,,,,,,,,,,,,,,,,,,,,,,,,,,,,,,,,,,,,,,,,,,,,,,,,,,,,,,,,,,,,,,,,,,,
,,67da5ae29f57419143d2b99a,2026-03-17_16h40.47.184,kallum_motion_pilot_GIST_update_2,2026.1.1,Win32,58.82352941,67da5ae29f57419143d2b99a,69b95efdef24cd8a694e89ee,69b960d1ea0c9e1a42b61f2b,0.0507,0.0507,0,120,120,68,1,threeone,,,,,,,,,,,,,,,,,,,,,,,,,,,,,,,,,,,,,,,,,,,,,,,,,,,,,,,,,,,,,,,,,,,,,,,,,,,,,,,,,,,,,,,,,,,,,,,,,,,,,,,,,,,,,,,,,,,,,,,,,,,,,,,,,,,,,,,,,
,,67da5ae29f57419143d2b99a,2026-03-17_16h40.47.184,kallum_motion_pilot_GIST_update_2,2026.1.1,Win32,58.82352941,67da5ae29f57419143d2b99a,69b95efdef24cd8a694e89ee,69b960d1ea0c9e1a42b61f2b,0.0509,0.0509,0,121,121,38,1,fourtwo,,,,,,,,,,,,,,,,,,,,,,,,,,,,,,,,,,,,,,,,,,,,,,,,,,,,,,,,,,,,,,,,,,,,,,,,,,,,,,,,,,,,,,,,,,,,,,,,,,,,,,,,,,,,,,,,,,,,,,,,,,,,,,,,,,,,,,,,,
,,67da5ae29f57419143d2b99a,2026-03-17_16h40.47.184,kallum_motion_pilot_GIST_update_2,2026.1.1,Win32,58.82352941,67da5ae29f57419143d2b99a,69b95efdef24cd8a694e89ee,69b960d1ea0c9e1a42b61f2b,0.051,0.051,0,122,122,93,1,seveneight,,,,,,,,,,,,,,,,,,,,,,,,,,,,,,,,,,,,,,,,,,,,,,,,,,,,,,,,,,,,,,,,,,,,,,,,,,,,,,,,,,,,,,,,,,,,,,,,,,,,,,,,,,,,,,,,,,,,,,,,,,,,,,,,,,,,,,,,,
,,67da5ae29f57419143d2b99a,2026-03-17_16h40.47.184,kallum_motion_pilot_GIST_update_2,2026.1.1,Win32,58.82352941,67da5ae29f57419143d2b99a,69b95efdef24cd8a694e89ee,69b960d1ea0c9e1a42b61f2b,0.0511,0.0511,0,123,123,98,1,sixfive,,,,,,,,,,,,,,,,,,,,,,,,,,,,,,,,,,,,,,,,,,,,,,,,,,,,,,,,,,,,,,,,,,,,,,,,,,,,,,,,,,,,,,,,,,,,,,,,,,,,,,,,,,,,,,,,,,,,,,,,,,,,,,,,,,,,,,,,,
,,67da5ae29f57419143d2b99a,2026-03-17_16h40.47.184,kallum_motion_pilot_GIST_update_2,2026.1.1,Win32,58.82352941,67da5ae29f57419143d2b99a,69b95efdef24cd8a694e89ee,69b960d1ea0c9e1a42b61f2b,0.0512,0.0512,0,124,124,0,1,onetwo,,,,,,,,,,,,,,,,,,,,,,,,,,,,,,,,,,,,,,,,,,,,,,,,,,,,,,,,,,,,,,,,,,,,,,,,,,,,,,,,,,,,,,,,,,,,,,,,,,,,,,,,,,,,,,,,,,,,,,,,,,,,,,,,,,,,,,,,,
,,67da5ae29f57419143d2b99a,2026-03-17_16h40.47.184,kallum_motion_pilot_GIST_update_2,2026.1.1,Win32,58.82352941,67da5ae29f57419143d2b99a,69b95efdef24cd8a694e89ee,69b960d1ea0c9e1a42b61f2b,0.0513,0.0513,0,125,125,109,1,seveneight,,,,,,,,,,,,,,,,,,,,,,,,,,,,,,,,,,,,,,,,,,,,,,,,,,,,,,,,,,,,,,,,,,,,,,,,,,,,,,,,,,,,,,,,,,,,,,,,,,,,,,,,,,,,,,,,,,,,,,,,,,,,,,,,,,,,,,,,,
,,67da5ae29f57419143d2b99a,2026-03-17_16h40.47.184,kallum_motion_pilot_GIST_update_2,2026.1.1,Win32,58.82352941,67da5ae29f57419143d2b99a,69b95efdef24cd8a694e89ee,69b960d1ea0c9e1a42b61f2b,0.0513,0.0513,0,126,126,11,1,twofour,,,,,,,,,,,,,,,,,,,,,,,,,,,,,,,,,,,,,,,,,,,,,,,,,,,,,,,,,,,,,,,,,,,,,,,,,,,,,,,,,,,,,,,,,,,,,,,,,,,,,,,,,,,,,,,,,,,,,,,,,,,,,,,,,,,,,,,,,
,,67da5ae29f57419143d2b99a,2026-03-17_16h40.47.184,kallum_motion_pilot_GIST_update_2,2026.1.1,Win32,58.82352941,67da5ae29f57419143d2b99a,69b95efdef24cd8a694e89ee,69b960d1ea0c9e1a42b61f2b,0.0515,0.0515,0,127,127,142,1,eightsix,,,,,,,,,,,,,,,,,,,,,,,,,,,,,,,,,,,,,,,,,,,,,,,,,,,,,,,,,,,,,,,,,,,,,,,,,,,,,,,,,,,,,,,,,,,,,,,,,,,,,,,,,,,,,,,,,,,,,,,,,,,,,,,,,,,,,,,,,
,,67da5ae29f57419143d2b99a,2026-03-17_16h40.47.184,kallum_motion_pilot_GIST_update_2,2026.1.1,Win32,58.82352941,67da5ae29f57419143d2b99a,69b95efdef24cd8a694e89ee,69b960d1ea0c9e1a42b61f2b,0.0515,0.0515,0,128,128,119,1,eightseven,,,,,,,,,,,,,,,,,,,,,,,,,,,,,,,,,,,,,,,,,,,,,,,,,,,,,,,,,,,,,,,,,,,,,,,,,,,,,,,,,,,,,,,,,,,,,,,,,,,,,,,,,,,,,,,,,,,,,,,,,,,,,,,,,,,,,,,,,
,,67da5ae29f57419143d2b99a,2026-03-17_16h40.47.184,kallum_motion_pilot_GIST_update_2,2026.1.1,Win32,58.82352941,67da5ae29f57419143d2b99a,69b95efdef24cd8a694e89ee,69b960d1ea0c9e1a42b61f2b,0.0516,0.0516,0,129,129,24,1,onetwo,,,,,,,,,,,,,,,,,,,,,,,,,,,,,,,,,,,,,,,,,,,,,,,,,,,,,,,,,,,,,,,,,,,,,,,,,,,,,,,,,,,,,,,,,,,,,,,,,,,,,,,,,,,,,,,,,,,,,,,,,,,,,,,,,,,,,,,,,
,,67da5ae29f57419143d2b99a,2026-03-17_16h40.47.184,kallum_motion_pilot_GIST_update_2,2026.1.1,Win32,58.82352941,67da5ae29f57419143d2b99a,69b95efdef24cd8a694e89ee,69b960d1ea0c9e1a42b61f2b,0.0517,0.0517,0,130,130,149,1,seveneight,,,,,,,,,,,,,,,,,,,,,,,,,,,,,,,,,,,,,,,,,,,,,,,,,,,,,,,,,,,,,,,,,,,,,,,,,,,,,,,,,,,,,,,,,,,,,,,,,,,,,,,,,,,,,,,,,,,,,,,,,,,,,,,,,,,,,,,,,
,,67da5ae29f57419143d2b99a,2026-03-17_16h40.47.184,kallum_motion_pilot_GIST_update_2,2026.1.1,Win32,58.82352941,67da5ae29f57419143d2b99a,69b95efdef24cd8a694e89ee,69b960d1ea0c9e1a42b61f2b,0.0518,0.0518,0,131,131,73,1,onethree,,,,,,,,,,,,,,,,,,,,,,,,,,,,,,,,,,,,,,,,,,,,,,,,,,,,,,,,,,,,,,,,,,,,,,,,,,,,,,,,,,,,,,,,,,,,,,,,,,,,,,,,,,,,,,,,,,,,,,,,,,,,,,,,,,,,,,,,,
,,67da5ae29f57419143d2b99a,2026-03-17_16h40.47.184,kallum_motion_pilot_GIST_update_2,2026.1.1,Win32,58.82352941,67da5ae29f57419143d2b99a,69b95efdef24cd8a694e89ee,69b960d1ea0c9e1a42b61f2b,0.0518,0.0518,0,132,132,96,1,fivesix,,,,,,,,,,,,,,,,,,,,,,,,,,,,,,,,,,,,,,,,,,,,,,,,,,,,,,,,,,,,,,,,,,,,,,,,,,,,,,,,,,,,,,,,,,,,,,,,,,,,,,,,,,,,,,,,,,,,,,,,,,,,,,,,,,,,,,,,,
,,67da5ae29f57419143d2b99a,2026-03-17_16h40.47.184,kallum_motion_pilot_GIST_update_2,2026.1.1,Win32,58.82352941,67da5ae29f57419143d2b99a,69b95efdef24cd8a694e89ee,69b960d1ea0c9e1a42b61f2b,0.0519,0.0519,0,133,133,154,1,sixfive,,,,,,,,,,,,,,,,,,,,,,,,,,,,,,,,,,,,,,,,,,,,,,,,,,,,,,,,,,,,,,,,,,,,,,,,,,,,,,,,,,,,,,,,,,,,,,,,,,,,,,,,,,,,,,,,,,,,,,,,,,,,,,,,,,,,,,,,,
,,67da5ae29f57419143d2b99a,2026-03-17_16h40.47.184,kallum_motion_pilot_GIST_update_2,2026.1.1,Win32,58.82352941,67da5ae29f57419143d2b99a,69b95efdef24cd8a694e89ee,69b960d1ea0c9e1a42b61f2b,0.052,0.052,0,134,134,113,1,fiveseven,,,,,,,,,,,,,,,,,,,,,,,,,,,,,,,,,,,,,,,,,,,,,,,,,,,,,,,,,,,,,,,,,,,,,,,,,,,,,,,,,,,,,,,,,,,,,,,,,,,,,,,,,,,,,,,,,,,,,,,,,,,,,,,,,,,,,,,,,
,,67da5ae29f57419143d2b99a,2026-03-17_16h40.47.184,kallum_motion_pilot_GIST_update_2,2026.1.1,Win32,58.82352941,67da5ae29f57419143d2b99a,69b95efdef24cd8a694e89ee,69b960d1ea0c9e1a42b61f2b,0.0521,0.0521,0,135,135,32,1,onetwo,,,,,,,,,,,,,,,,,,,,,,,,,,,,,,,,,,,,,,,,,,,,,,,,,,,,,,,,,,,,,,,,,,,,,,,,,,,,,,,,,,,,,,,,,,,,,,,,,,,,,,,,,,,,,,,,,,,,,,,,,,,,,,,,,,,,,,,,,
,,67da5ae29f57419143d2b99a,2026-03-17_16h40.47.184,kallum_motion_pilot_GIST_update_2,2026.1.1,Win32,58.82352941,67da5ae29f57419143d2b99a,69b95efdef24cd8a694e89ee,69b960d1ea0c9e1a42b61f2b,0.0522,0.0522,0,136,136,151,1,eightseven,,,,,,,,,,,,,,,,,,,,,,,,,,,,,,,,,,,,,,,,,,,,,,,,,,,,,,,,,,,,,,,,,,,,,,,,,,,,,,,,,,,,,,,,,,,,,,,,,,,,,,,,,,,,,,,,,,,,,,,,,,,,,,,,,,,,,,,,,
,,67da5ae29f57419143d2b99a,2026-03-17_16h40.47.184,kallum_motion_pilot_GIST_update_2,2026.1.1,Win32,58.82352941,67da5ae29f57419143d2b99a,69b95efdef24cd8a694e89ee,69b960d1ea0c9e1a42b61f2b,0.0522,0.0522,0,137,137,80,1,fivesix,,,,,,,,,,,,,,,,,,,,,,,,,,,,,,,,,,,,,,,,,,,,,,,,,,,,,,,,,,,,,,,,,,,,,,,,,,,,,,,,,,,,,,,,,,,,,,,,,,,,,,,,,,,,,,,,,,,,,,,,,,,,,,,,,,,,,,,,,
,,67da5ae29f57419143d2b99a,2026-03-17_16h40.47.184,kallum_motion_pilot_GIST_update_2,2026.1.1,Win32,58.82352941,67da5ae29f57419143d2b99a,69b95efdef24cd8a694e89ee,69b960d1ea0c9e1a42b61f2b,0.0525,0.0525,0,138,138,100,1,sevenfive,,,,,,,,,,,,,,,,,,,,,,,,,,,,,,,,,,,,,,,,,,,,,,,,,,,,,,,,,,,,,,,,,,,,,,,,,,,,,,,,,,,,,,,,,,,,,,,,,,,,,,,,,,,,,,,,,,,,,,,,,,,,,,,,,,,,,,,,,
,,67da5ae29f57419143d2b99a,2026-03-17_16h40.47.184,kallum_motion_pilot_GIST_update_2,2026.1.1,Win32,58.82352941,67da5ae29f57419143d2b99a,69b95efdef24cd8a694e89ee,69b960d1ea0c9e1a42b61f2b,0.0527,0.0527,0,139,139,143,1,eightseven,,,,,,,,,,,,,,,,,,,,,,,,,,,,,,,,,,,,,,,,,,,,,,,,,,,,,,,,,,,,,,,,,,,,,,,,,,,,,,,,,,,,,,,,,,,,,,,,,,,,,,,,,,,,,,,,,,,,,,,,,,,,,,,,,,,,,,,,,
,,67da5ae29f57419143d2b99a,2026-03-17_16h40.47.184,kallum_motion_pilot_GIST_update_2,2026.1.1,Win32,58.82352941,67da5ae29f57419143d2b99a,69b95efdef24cd8a694e89ee,69b960d1ea0c9e1a42b61f2b,0.053,0.053,0,140,140,47,1,fourthree,,,,,,,,,,,,,,,,,,,,,,,,,,,,,,,,,,,,,,,,,,,,,,,,,,,,,,,,,,,,,,,,,,,,,,,,,,,,,,,,,,,,,,,,,,,,,,,,,,,,,,,,,,,,,,,,,,,,,,,,,,,,,,,,,,,,,,,,,
,,67da5ae29f57419143d2b99a,2026-03-17_16h40.47.184,kallum_motion_pilot_GIST_update_2,2026.1.1,Win32,58.82352941,67da5ae29f57419143d2b99a,69b95efdef24cd8a694e89ee,69b960d1ea0c9e1a42b61f2b,0.0531,0.0531,0,141,141,1,1,onethree,,,,,,,,,,,,,,,,,,,,,,,,,,,,,,,,,,,,,,,,,,,,,,,,,,,,,,,,,,,,,,,,,,,,,,,,,,,,,,,,,,,,,,,,,,,,,,,,,,,,,,,,,,,,,,,,,,,,,,,,,,,,,,,,,,,,,,,,,
,,67da5ae29f57419143d2b99a,2026-03-17_16h40.47.184,kallum_motion_pilot_GIST_update_2,2026.1.1,Win32,58.82352941,67da5ae29f57419143d2b99a,69b95efdef24cd8a694e89ee,69b960d1ea0c9e1a42b61f2b,0.0533,0.0533,0,142,142,95,1,eightseven,,,,,,,,,,,,,,,,,,,,,,,,,,,,,,,,,,,,,,,,,,,,,,,,,,,,,,,,,,,,,,,,,,,,,,,,,,,,,,,,,,,,,,,,,,,,,,,,,,,,,,,,,,,,,,,,,,,,,,,,,,,,,,,,,,,,,,,,,
,,67da5ae29f57419143d2b99a,2026-03-17_16h40.47.184,kallum_motion_pilot_GIST_update_2,2026.1.1,Win32,58.82352941,67da5ae29f57419143d2b99a,69b95efdef24cd8a694e89ee,69b960d1ea0c9e1a42b61f2b,0.0535,0.0535,0,143,143,23,1,fourthree,,,,,,,,,,,,,,,,,,,,,,,,,,,,,,,,,,,,,,,,,,,,,,,,,,,,,,,,,,,,,,,,,,,,,,,,,,,,,,,,,,,,,,,,,,,,,,,,,,,,,,,,,,,,,,,,,,,,,,,,,,,,,,,,,,,,,,,,,
,,67da5ae29f57419143d2b99a,2026-03-17_16h40.47.184,kallum_motion_pilot_GIST_update_2,2026.1.1,Win32,58.82352941,67da5ae29f57419143d2b99a,69b95efdef24cd8a694e89ee,69b960d1ea0c9e1a42b61f2b,0.0536,0.0536,0,144,144,135,1,eightseven,,,,,,,,,,,,,,,,,,,,,,,,,,,,,,,,,,,,,,,,,,,,,,,,,,,,,,,,,,,,,,,,,,,,,,,,,,,,,,,,,,,,,,,,,,,,,,,,,,,,,,,,,,,,,,,,,,,,,,,,,,,,,,,,,,,,,,,,,
,,67da5ae29f57419143d2b99a,2026-03-17_16h40.47.184,kallum_motion_pilot_GIST_update_2,2026.1.1,Win32,58.82352941,67da5ae29f57419143d2b99a,69b95efdef24cd8a694e89ee,69b960d1ea0c9e1a42b61f2b,0.0539,0.0539,0,145,145,156,1,sevenfive,,,,,,,,,,,,,,,,,,,,,,,,,,,,,,,,,,,,,,,,,,,,,,,,,,,,,,,,,,,,,,,,,,,,,,,,,,,,,,,,,,,,,,,,,,,,,,,,,,,,,,,,,,,,,,,,,,,,,,,,,,,,,,,,,,,,,,,,,
,,67da5ae29f57419143d2b99a,2026-03-17_16h40.47.184,kallum_motion_pilot_GIST_update_2,2026.1.1,Win32,58.82352941,67da5ae29f57419143d2b99a,69b95efdef24cd8a694e89ee,69b960d1ea0c9e1a42b61f2b,0.054,0.054,0,146,146,28,1,threeone,,,,,,,,,,,,,,,,,,,,,,,,,,,,,,,,,,,,,,,,,,,,,,,,,,,,,,,,,,,,,,,,,,,,,,,,,,,,,,,,,,,,,,,,,,,,,,,,,,,,,,,,,,,,,,,,,,,,,,,,,,,,,,,,,,,,,,,,,
,,67da5ae29f57419143d2b99a,2026-03-17_16h40.47.184,kallum_motion_pilot_GIST_update_2,2026.1.1,Win32,58.82352941,67da5ae29f57419143d2b99a,69b95efdef24cd8a694e89ee,69b960d1ea0c9e1a42b61f2b,0.0541,0.0541,0,147,147,8,1,onetwo,,,,,,,,,,,,,,,,,,,,,,,,,,,,,,,,,,,,,,,,,,,,,,,,,,,,,,,,,,,,,,,,,,,,,,,,,,,,,,,,,,,,,,,,,,,,,,,,,,,,,,,,,,,,,,,,,,,,,,,,,,,,,,,,,,,,,,,,,
,,67da5ae29f57419143d2b99a,2026-03-17_16h40.47.184,kallum_motion_pilot_GIST_update_2,2026.1.1,Win32,58.82352941,67da5ae29f57419143d2b99a,69b95efdef24cd8a694e89ee,69b960d1ea0c9e1a42b61f2b,0.0543,0.0543,0,148,148,49,1,onethree,,,,,,,,,,,,,,,,,,,,,,,,,,,,,,,,,,,,,,,,,,,,,,,,,,,,,,,,,,,,,,,,,,,,,,,,,,,,,,,,,,,,,,,,,,,,,,,,,,,,,,,,,,,,,,,,,,,,,,,,,,,,,,,,,,,,,,,,,
,,67da5ae29f57419143d2b99a,2026-03-17_16h40.47.184,kallum_motion_pilot_GIST_update_2,2026.1.1,Win32,58.82352941,67da5ae29f57419143d2b99a,69b95efdef24cd8a694e89ee,69b960d1ea0c9e1a42b61f2b,0.0545,0.0545,0,149,149,37,1,threefour,,,,,,,,,,,,,,,,,,,,,,,,,,,,,,,,,,,,,,,,,,,,,,,,,,,,,,,,,,,,,,,,,,,,,,,,,,,,,,,,,,,,,,,,,,,,,,,,,,,,,,,,,,,,,,,,,,,,,,,,,,,,,,,,,,,,,,,,,
,,67da5ae29f57419143d2b99a,2026-03-17_16h40.47.184,kallum_motion_pilot_GIST_update_2,2026.1.1,Win32,58.82352941,67da5ae29f57419143d2b99a,69b95efdef24cd8a694e89ee,69b960d1ea0c9e1a42b61f2b,0.0547,0.0547,0,150,150,48,1,onetwo,,,,,,,,,,,,,,,,,,,,,,,,,,,,,,,,,,,,,,,,,,,,,,,,,,,,,,,,,,,,,,,,,,,,,,,,,,,,,,,,,,,,,,,,,,,,,,,,,,,,,,,,,,,,,,,,,,,,,,,,,,,,,,,,,,,,,,,,,
,,67da5ae29f57419143d2b99a,2026-03-17_16h40.47.184,kallum_motion_pilot_GIST_update_2,2026.1.1,Win32,58.82352941,67da5ae29f57419143d2b99a,69b95efdef24cd8a694e89ee,69b960d1ea0c9e1a42b61f2b,0.0548,0.0548,0,151,151,133,1,seveneight,,,,,,,,,,,,,,,,,,,,,,,,,,,,,,,,,,,,,,,,,,,,,,,,,,,,,,,,,,,,,,,,,,,,,,,,,,,,,,,,,,,,,,,,,,,,,,,,,,,,,,,,,,,,,,,,,,,,,,,,,,,,,,,,,,,,,,,,,
,,67da5ae29f57419143d2b99a,2026-03-17_16h40.47.184,kallum_motion_pilot_GIST_update_2,2026.1.1,Win32,58.82352941,67da5ae29f57419143d2b99a,69b95efdef24cd8a694e89ee,69b960d1ea0c9e1a42b61f2b,0.0549,0.0549,0,152,152,82,1,sixfive,,,,,,,,,,,,,,,,,,,,,,,,,,,,,,,,,,,,,,,,,,,,,,,,,,,,,,,,,,,,,,,,,,,,,,,,,,,,,,,,,,,,,,,,,,,,,,,,,,,,,,,,,,,,,,,,,,,,,,,,,,,,,,,,,,,,,,,,,
,,67da5ae29f57419143d2b99a,2026-03-17_16h40.47.184,kallum_motion_pilot_GIST_update_2,2026.1.1,Win32,58.82352941,67da5ae29f57419143d2b99a,69b95efdef24cd8a694e89ee,69b960d1ea0c9e1a42b61f2b,0.0552,0.0552,0,153,153,35,1,twofour,,,,,,,,,,,,,,,,,,,,,,,,,,,,,,,,,,,,,,,,,,,,,,,,,,,,,,,,,,,,,,,,,,,,,,,,,,,,,,,,,,,,,,,,,,,,,,,,,,,,,,,,,,,,,,,,,,,,,,,,,,,,,,,,,,,,,,,,,
,,67da5ae29f57419143d2b99a,2026-03-17_16h40.47.184,kallum_motion_pilot_GIST_update_2,2026.1.1,Win32,58.82352941,67da5ae29f57419143d2b99a,69b95efdef24cd8a694e89ee,69b960d1ea0c9e1a42b61f2b,0.0555,0.0555,0,154,154,44,1,threeone,,,,,,,,,,,,,,,,,,,,,,,,,,,,,,,,,,,,,,,,,,,,,,,,,,,,,,,,,,,,,,,,,,,,,,,,,,,,,,,,,,,,,,,,,,,,,,,,,,,,,,,,,,,,,,,,,,,,,,,,,,,,,,,,,,,,,,,,,
,,67da5ae29f57419143d2b99a,2026-03-17_16h40.47.184,kallum_motion_pilot_GIST_update_2,2026.1.1,Win32,58.82352941,67da5ae29f57419143d2b99a,69b95efdef24cd8a694e89ee,69b960d1ea0c9e1a42b61f2b,0.0557,0.0557,0,155,155,33,1,onethree,,,,,,,,,,,,,,,,,,,,,,,,,,,,,,,,,,,,,,,,,,,,,,,,,,,,,,,,,,,,,,,,,,,,,,,,,,,,,,,,,,,,,,,,,,,,,,,,,,,,,,,,,,,,,,,,,,,,,,,,,,,,,,,,,,,,,,,,,
,,67da5ae29f57419143d2b99a,2026-03-17_16h40.47.184,kallum_motion_pilot_GIST_update_2,2026.1.1,Win32,58.82352941,67da5ae29f57419143d2b99a,69b95efdef24cd8a694e89ee,69b960d1ea0c9e1a42b61f2b,0.0558,0.0558,0,156,156,139,1,sixeight,,,,,,,,,,,,,,,,,,,,,,,,,,,,,,,,,,,,,,,,,,,,,,,,,,,,,,,,,,,,,,,,,,,,,,,,,,,,,,,,,,,,,,,,,,,,,,,,,,,,,,,,,,,,,,,,,,,,,,,,,,,,,,,,,,,,,,,,,
,,67da5ae29f57419143d2b99a,2026-03-17_16h40.47.184,kallum_motion_pilot_GIST_update_2,2026.1.1,Win32,58.82352941,67da5ae29f57419143d2b99a,69b95efdef24cd8a694e89ee,69b960d1ea0c9e1a42b61f2b,0.056,0.056,0,157,157,27,1,twofour,,,,,,,,,,,,,,,,,,,,,,,,,,,,,,,,,,,,,,,,,,,,,,,,,,,,,,,,,,,,,,,,,,,,,,,,,,,,,,,,,,,,,,,,,,,,,,,,,,,,,,,,,,,,,,,,,,,,,,,,,,,,,,,,,,,,,,,,,
,,67da5ae29f57419143d2b99a,2026-03-17_16h40.47.184,kallum_motion_pilot_GIST_update_2,2026.1.1,Win32,58.82352941,67da5ae29f57419143d2b99a,69b95efdef24cd8a694e89ee,69b960d1ea0c9e1a42b61f2b,0.0561,0.0561,0,158,158,26,1,twoone,,,,,,,,,,,,,,,,,,,,,,,,,,,,,,,,,,,,,,,,,,,,,,,,,,,,,,,,,,,,,,,,,,,,,,,,,,,,,,,,,,,,,,,,,,,,,,,,,,,,,,,,,,,,,,,,,,,,,,,,,,,,,,,,,,,,,,,,,
,,67da5ae29f57419143d2b99a,2026-03-17_16h40.47.184,kallum_motion_pilot_GIST_update_2,2026.1.1,Win32,58.82352941,67da5ae29f57419143d2b99a,69b95efdef24cd8a694e89ee,69b960d1ea0c9e1a42b61f2b,0.0563,0.0563,0,159,159,69,1,threefour,,,,,,,,,,,,,,,,,,,,,,,,,,,,,,,,,,,,,,,,,,,,,,,,,,,,,,,,,,,,,,,,,,,,,,,,,,,,,,,,,,,,,,,,,,,,,,,,,,,,,,,,,,,,,,,,,,,,,,,,,,,,,,,,,,,,,,,,,
,,67da5ae29f57419143d2b99a,2026-03-17_16h40.47.184,kallum_motion_pilot_GIST_update_2,2026.1.1,Win32,58.82352941,67da5ae29f57419143d2b99a,69b95efdef24cd8a694e89ee,69b960d1ea0c9e1a42b61f2b,0.0564,0.0564,0,160,160,125,1,seveneight,,,,,,,,,,,,,,,,,,,,,,,,,,,,,,,,,,,,,,,,,,,,,,,,,,,,,,,,,,,,,,,,,,,,,,,,,,,,,,,,,,,,,,,,,,,,,,,,,,,,,,,,,,,,,,,,,,,,,,,,,,,,,,,,,,,,,,,,,
,,67da5ae29f57419143d2b99a,2026-03-17_16h40.47.184,kallum_motion_pilot_GIST_update_2,2026.1.1,Win32,58.82352941,67da5ae29f57419143d2b99a,69b95efdef24cd8a694e89ee,69b960d1ea0c9e1a42b61f2b,0.0566,0.0566,0,161,161,43,1,twofour,,,,,,,,,,,,,,,,,,,,,,,,,,,,,,,,,,,,,,,,,,,,,,,,,,,,,,,,,,,,,,,,,,,,,,,,,,,,,,,,,,,,,,,,,,,,,,,,,,,,,,,,,,,,,,,,,,,,,,,,,,,,,,,,,,,,,,,,,
,,67da5ae29f57419143d2b99a,2026-03-17_16h40.47.184,kallum_motion_pilot_GIST_update_2,2026.1.1,Win32,58.82352941,67da5ae29f57419143d2b99a,69b95efdef24cd8a694e89ee,69b960d1ea0c9e1a42b61f2b,0.0569,0.0569,1,0,162,46,1,fourtwo,,,,,,,,,,,,,,,,,,,,,,,,,,,,,,,,,,,,,,,,,,,,,,,,,,,,,,,,,,,,,,,,,,,,,,,,,,,,,,,,,,,,,,,,,,,,,,,,,,,,,,,,,,,,,,,,,,,,,,,,,,,,,,,,,,,,,,,,,
,,67da5ae29f57419143d2b99a,2026-03-17_16h40.47.184,kallum_motion_pilot_GIST_update_2,2026.1.1,Win32,58.82352941,67da5ae29f57419143d2b99a,69b95efdef24cd8a694e89ee,69b960d1ea0c9e1a42b61f2b,0.057,0.057,1,1,163,150,1,eightsix,,,,,,,,,,,,,,,,,,,,,,,,,,,,,,,,,,,,,,,,,,,,,,,,,,,,,,,,,,,,,,,,,,,,,,,,,,,,,,,,,,,,,,,,,,,,,,,,,,,,,,,,,,,,,,,,,,,,,,,,,,,,,,,,,,,,,,,,,
,,67da5ae29f57419143d2b99a,2026-03-17_16h40.47.184,kallum_motion_pilot_GIST_update_2,2026.1.1,Win32,58.82352941,67da5ae29f57419143d2b99a,69b95efdef24cd8a694e89ee,69b960d1ea0c9e1a42b61f2b,0.0572,0.0572,1,2,164,126,1,eightsix,,,,,,,,,,,,,,,,,,,,,,,,,,,,,,,,,,,,,,,,,,,,,,,,,,,,,,,,,,,,,,,,,,,,,,,,,,,,,,,,,,,,,,,,,,,,,,,,,,,,,,,,,,,,,,,,,,,,,,,,,,,,,,,,,,,,,,,,,
,,67da5ae29f57419143d2b99a,2026-03-17_16h40.47.184,kallum_motion_pilot_GIST_update_2,2026.1.1,Win32,58.82352941,67da5ae29f57419143d2b99a,69b95efdef24cd8a694e89ee,69b960d1ea0c9e1a42b61f2b,0.0574,0.0574,1,3,165,138,1,sixfive,,,,,,,,,,,,,,,,,,,,,,,,,,,,,,,,,,,,,,,,,,,,,,,,,,,,,,,,,,,,,,,,,,,,,,,,,,,,,,,,,,,,,,,,,,,,,,,,,,,,,,,,,,,,,,,,,,,,,,,,,,,,,,,,,,,,,,,,,
,,67da5ae29f57419143d2b99a,2026-03-17_16h40.47.184,kallum_motion_pilot_GIST_update_2,2026.1.1,Win32,58.82352941,67da5ae29f57419143d2b99a,69b95efdef24cd8a694e89ee,69b960d1ea0c9e1a42b61f2b,0.0577,0.0577,1,4,166,114,1,sixfive,,,,,,,,,,,,,,,,,,,,,,,,,,,,,,,,,,,,,,,,,,,,,,,,,,,,,,,,,,,,,,,,,,,,,,,,,,,,,,,,,,,,,,,,,,,,,,,,,,,,,,,,,,,,,,,,,,,,,,,,,,,,,,,,,,,,,,,,,
,,67da5ae29f57419143d2b99a,2026-03-17_16h40.47.184,kallum_motion_pilot_GIST_update_2,2026.1.1,Win32,58.82352941,67da5ae29f57419143d2b99a,69b95efdef24cd8a694e89ee,69b960d1ea0c9e1a42b61f2b,0.0578,0.0578,1,5,167,127,1,eightseven,,,,,,,,,,,,,,,,,,,,,,,,,,,,,,,,,,,,,,,,,,,,,,,,,,,,,,,,,,,,,,,,,,,,,,,,,,,,,,,,,,,,,,,,,,,,,,,,,,,,,,,,,,,,,,,,,,,,,,,,,,,,,,,,,,,,,,,,,
,,67da5ae29f57419143d2b99a,2026-03-17_16h40.47.184,kallum_motion_pilot_GIST_update_2,2026.1.1,Win32,58.82352941,67da5ae29f57419143d2b99a,69b95efdef24cd8a694e89ee,69b960d1ea0c9e1a42b61f2b,0.058,0.058,1,6,168,116,1,sevenfive,,,,,,,,,,,,,,,,,,,,,,,,,,,,,,,,,,,,,,,,,,,,,,,,,,,,,,,,,,,,,,,,,,,,,,,,,,,,,,,,,,,,,,,,,,,,,,,,,,,,,,,,,,,,,,,,,,,,,,,,,,,,,,,,,,,,,,,,,
,,67da5ae29f57419143d2b99a,2026-03-17_16h40.47.184,kallum_motion_pilot_GIST_update_2,2026.1.1,Win32,58.82352941,67da5ae29f57419143d2b99a,69b95efdef24cd8a694e89ee,69b960d1ea0c9e1a42b61f2b,0.0581,0.0581,1,7,169,17,1,onethree,,,,,,,,,,,,,,,,,,,,,,,,,,,,,,,,,,,,,,,,,,,,,,,,,,,,,,,,,,,,,,,,,,,,,,,,,,,,,,,,,,,,,,,,,,,,,,,,,,,,,,,,,,,,,,,,,,,,,,,,,,,,,,,,,,,,,,,,,
,,67da5ae29f57419143d2b99a,2026-03-17_16h40.47.184,kallum_motion_pilot_GIST_update_2,2026.1.1,Win32,58.82352941,67da5ae29f57419143d2b99a,69b95efdef24cd8a694e89ee,69b960d1ea0c9e1a42b61f2b,0.0585,0.0585,1,8,170,62,1,fourtwo,,,,,,,,,,,,,,,,,,,,,,,,,,,,,,,,,,,,,,,,,,,,,,,,,,,,,,,,,,,,,,,,,,,,,,,,,,,,,,,,,,,,,,,,,,,,,,,,,,,,,,,,,,,,,,,,,,,,,,,,,,,,,,,,,,,,,,,,,
,,67da5ae29f57419143d2b99a,2026-03-17_16h40.47.184,kallum_motion_pilot_GIST_update_2,2026.1.1,Win32,58.82352941,67da5ae29f57419143d2b99a,69b95efdef24cd8a694e89ee,69b960d1ea0c9e1a42b61f2b,0.0587,0.0587,1,9,171,82,1,sixfive,,,,,,,,,,,,,,,,,,,,,,,,,,,,,,,,,,,,,,,,,,,,,,,,,,,,,,,,,,,,,,,,,,,,,,,,,,,,,,,,,,,,,,,,,,,,,,,,,,,,,,,,,,,,,,,,,,,,,,,,,,,,,,,,,,,,,,,,,
,,67da5ae29f57419143d2b99a,2026-03-17_16h40.47.184,kallum_motion_pilot_GIST_update_2,2026.1.1,Win32,58.82352941,67da5ae29f57419143d2b99a,69b95efdef24cd8a694e89ee,69b960d1ea0c9e1a42b61f2b,0.0591,0.0591,1,10,172,24,1,onetwo,,,,,,,,,,,,,,,,,,,,,,,,,,,,,,,,,,,,,,,,,,,,,,,,,,,,,,,,,,,,,,,,,,,,,,,,,,,,,,,,,,,,,,,,,,,,,,,,,,,,,,,,,,,,,,,,,,,,,,,,,,,,,,,,,,,,,,,,,
,,67da5ae29f57419143d2b99a,2026-03-17_16h40.47.184,kallum_motion_pilot_GIST_update_2,2026.1.1,Win32,58.82352941,67da5ae29f57419143d2b99a,69b95efdef24cd8a694e89ee,69b960d1ea0c9e1a42b61f2b,0.0592,0.0594,1,11,173,7,1,fourthree,,,,,,,,,,,,,,,,,,,,,,,,,,,,,,,,,,,,,,,,,,,,,,,,,,,,,,,,,,,,,,,,,,,,,,,,,,,,,,,,,,,,,,,,,,,,,,,,,,,,,,,,,,,,,,,,,,,,,,,,,,,,,,,,,,,,,,,,,
,,67da5ae29f57419143d2b99a,2026-03-17_16h40.47.184,kallum_motion_pilot_GIST_update_2,2026.1.1,Win32,58.82352941,67da5ae29f57419143d2b99a,69b95efdef24cd8a694e89ee,69b960d1ea0c9e1a42b61f2b,0.0596,0.0596,1,12,174,47,1,fourthree,,,,,,,,,,,,,,,,,,,,,,,,,,,,,,,,,,,,,,,,,,,,,,,,,,,,,,,,,,,,,,,,,,,,,,,,,,,,,,,,,,,,,,,,,,,,,,,,,,,,,,,,,,,,,,,,,,,,,,,,,,,,,,,,,,,,,,,,,
,,67da5ae29f57419143d2b99a,2026-03-17_16h40.47.184,kallum_motion_pilot_GIST_update_2,2026.1.1,Win32,58.82352941,67da5ae29f57419143d2b99a,69b95efdef24cd8a694e89ee,69b960d1ea0c9e1a42b61f2b,0.0599,0.0599,1,13,175,45,1,threefour,,,,,,,,,,,,,,,,,,,,,,,,,,,,,,,,,,,,,,,,,,,,,,,,,,,,,,,,,,,,,,,,,,,,,,,,,,,,,,,,,,,,,,,,,,,,,,,,,,,,,,,,,,,,,,,,,,,,,,,,,,,,,,,,,,,,,,,,,
,,67da5ae29f57419143d2b99a,2026-03-17_16h40.47.184,kallum_motion_pilot_GIST_update_2,2026.1.1,Win32,58.82352941,67da5ae29f57419143d2b99a,69b95efdef24cd8a694e89ee,69b960d1ea0c9e1a42b61f2b,0.0602,0.0602,1,14,176,53,1,threefour,,,,,,,,,,,,,,,,,,,,,,,,,,,,,,,,,,,,,,,,,,,,,,,,,,,,,,,,,,,,,,,,,,,,,,,,,,,,,,,,,,,,,,,,,,,,,,,,,,,,,,,,,,,,,,,,,,,,,,,,,,,,,,,,,,,,,,,,,
,,67da5ae29f57419143d2b99a,2026-03-17_16h40.47.184,kallum_motion_pilot_GIST_update_2,2026.1.1,Win32,58.82352941,67da5ae29f57419143d2b99a,69b95efdef24cd8a694e89ee,69b960d1ea0c9e1a42b61f2b,0.0605,0.0605,1,15,177,34,1,twoone,,,,,,,,,,,,,,,,,,,,,,,,,,,,,,,,,,,,,,,,,,,,,,,,,,,,,,,,,,,,,,,,,,,,,,,,,,,,,,,,,,,,,,,,,,,,,,,,,,,,,,,,,,,,,,,,,,,,,,,,,,,,,,,,,,,,,,,,,
,,67da5ae29f57419143d2b99a,2026-03-17_16h40.47.184,kallum_motion_pilot_GIST_update_2,2026.1.1,Win32,58.82352941,67da5ae29f57419143d2b99a,69b95efdef24cd8a694e89ee,69b960d1ea0c9e1a42b61f2b,0.0607,0.0607,1,16,178,86,1,eightsix,,,,,,,,,,,,,,,,,,,,,,,,,,,,,,,,,,,,,,,,,,,,,,,,,,,,,,,,,,,,,,,,,,,,,,,,,,,,,,,,,,,,,,,,,,,,,,,,,,,,,,,,,,,,,,,,,,,,,,,,,,,,,,,,,,,,,,,,,
,,67da5ae29f57419143d2b99a,2026-03-17_16h40.47.184,kallum_motion_pilot_GIST_update_2,2026.1.1,Win32,58.82352941,67da5ae29f57419143d2b99a,69b95efdef24cd8a694e89ee,69b960d1ea0c9e1a42b61f2b,0.0608,0.0608,1,17,179,125,1,seveneight,,,,,,,,,,,,,,,,,,,,,,,,,,,,,,,,,,,,,,,,,,,,,,,,,,,,,,,,,,,,,,,,,,,,,,,,,,,,,,,,,,,,,,,,,,,,,,,,,,,,,,,,,,,,,,,,,,,,,,,,,,,,,,,,,,,,,,,,,
,,67da5ae29f57419143d2b99a,2026-03-17_16h40.47.184,kallum_motion_pilot_GIST_update_2,2026.1.1,Win32,58.82352941,67da5ae29f57419143d2b99a,69b95efdef24cd8a694e89ee,69b960d1ea0c9e1a42b61f2b,0.061,0.061,1,18,180,153,1,fiveseven,,,,,,,,,,,,,,,,,,,,,,,,,,,,,,,,,,,,,,,,,,,,,,,,,,,,,,,,,,,,,,,,,,,,,,,,,,,,,,,,,,,,,,,,,,,,,,,,,,,,,,,,,,,,,,,,,,,,,,,,,,,,,,,,,,,,,,,,,
,,67da5ae29f57419143d2b99a,2026-03-17_16h40.47.184,kallum_motion_pilot_GIST_update_2,2026.1.1,Win32,58.82352941,67da5ae29f57419143d2b99a,69b95efdef24cd8a694e89ee,69b960d1ea0c9e1a42b61f2b,0.0611,0.0611,1,19,181,128,1,fivesix,,,,,,,,,,,,,,,,,,,,,,,,,,,,,,,,,,,,,,,,,,,,,,,,,,,,,,,,,,,,,,,,,,,,,,,,,,,,,,,,,,,,,,,,,,,,,,,,,,,,,,,,,,,,,,,,,,,,,,,,,,,,,,,,,,,,,,,,,
,,67da5ae29f57419143d2b99a,2026-03-17_16h40.47.184,kallum_motion_pilot_GIST_update_2,2026.1.1,Win32,58.82352941,67da5ae29f57419143d2b99a,69b95efdef24cd8a694e89ee,69b960d1ea0c9e1a42b61f2b,0.0612,0.0612,1,20,182,16,1,onetwo,,,,,,,,,,,,,,,,,,,,,,,,,,,,,,,,,,,,,,,,,,,,,,,,,,,,,,,,,,,,,,,,,,,,,,,,,,,,,,,,,,,,,,,,,,,,,,,,,,,,,,,,,,,,,,,,,,,,,,,,,,,,,,,,,,,,,,,,,
,,67da5ae29f57419143d2b99a,2026-03-17_16h40.47.184,kallum_motion_pilot_GIST_update_2,2026.1.1,Win32,58.82352941,67da5ae29f57419143d2b99a,69b95efdef24cd8a694e89ee,69b960d1ea0c9e1a42b61f2b,0.0613,0.0613,1,21,183,108,1,sevenfive,,,,,,,,,,,,,,,,,,,,,,,,,,,,,,,,,,,,,,,,,,,,,,,,,,,,,,,,,,,,,,,,,,,,,,,,,,,,,,,,,,,,,,,,,,,,,,,,,,,,,,,,,,,,,,,,,,,,,,,,,,,,,,,,,,,,,,,,,
,,67da5ae29f57419143d2b99a,2026-03-17_16h40.47.184,kallum_motion_pilot_GIST_update_2,2026.1.1,Win32,58.82352941,67da5ae29f57419143d2b99a,69b95efdef24cd8a694e89ee,69b960d1ea0c9e1a42b61f2b,0.0614,0.0614,1,22,184,41,1,onethree,,,,,,,,,,,,,,,,,,,,,,,,,,,,,,,,,,,,,,,,,,,,,,,,,,,,,,,,,,,,,,,,,,,,,,,,,,,,,,,,,,,,,,,,,,,,,,,,,,,,,,,,,,,,,,,,,,,,,,,,,,,,,,,,,,,,,,,,,
,,67da5ae29f57419143d2b99a,2026-03-17_16h40.47.184,kallum_motion_pilot_GIST_update_2,2026.1.1,Win32,58.82352941,67da5ae29f57419143d2b99a,69b95efdef24cd8a694e89ee,69b960d1ea0c9e1a42b61f2b,0.0616,0.0616,1,23,185,156,1,sevenfive,,,,,,,,,,,,,,,,,,,,,,,,,,,,,,,,,,,,,,,,,,,,,,,,,,,,,,,,,,,,,,,,,,,,,,,,,,,,,,,,,,,,,,,,,,,,,,,,,,,,,,,,,,,,,,,,,,,,,,,,,,,,,,,,,,,,,,,,,
,,67da5ae29f57419143d2b99a,2026-03-17_16h40.47.184,kallum_motion_pilot_GIST_update_2,2026.1.1,Win32,58.82352941,67da5ae29f57419143d2b99a,69b95efdef24cd8a694e89ee,69b960d1ea0c9e1a42b61f2b,0.0616,0.0617,1,24,186,117,1,seveneight,,,,,,,,,,,,,,,,,,,,,,,,,,,,,,,,,,,,,,,,,,,,,,,,,,,,,,,,,,,,,,,,,,,,,,,,,,,,,,,,,,,,,,,,,,,,,,,,,,,,,,,,,,,,,,,,,,,,,,,,,,,,,,,,,,,,,,,,,
,,67da5ae29f57419143d2b99a,2026-03-17_16h40.47.184,kallum_motion_pilot_GIST_update_2,2026.1.1,Win32,58.82352941,67da5ae29f57419143d2b99a,69b95efdef24cd8a694e89ee,69b960d1ea0c9e1a42b61f2b,0.0618,0.0618,1,25,187,80,1,fivesix,,,,,,,,,,,,,,,,,,,,,,,,,,,,,,,,,,,,,,,,,,,,,,,,,,,,,,,,,,,,,,,,,,,,,,,,,,,,,,,,,,,,,,,,,,,,,,,,,,,,,,,,,,,,,,,,,,,,,,,,,,,,,,,,,,,,,,,,,
,,67da5ae29f57419143d2b99a,2026-03-17_16h40.47.184,kallum_motion_pilot_GIST_update_2,2026.1.1,Win32,58.82352941,67da5ae29f57419143d2b99a,69b95efdef24cd8a694e89ee,69b960d1ea0c9e1a42b61f2b,0.062,0.062,1,26,188,67,1,twofour,,,,,,,,,,,,,,,,,,,,,,,,,,,,,,,,,,,,,,,,,,,,,,,,,,,,,,,,,,,,,,,,,,,,,,,,,,,,,,,,,,,,,,,,,,,,,,,,,,,,,,,,,,,,,,,,,,,,,,,,,,,,,,,,,,,,,,,,,
,,67da5ae29f57419143d2b99a,2026-03-17_16h40.47.184,kallum_motion_pilot_GIST_update_2,2026.1.1,Win32,58.82352941,67da5ae29f57419143d2b99a,69b95efdef24cd8a694e89ee,69b960d1ea0c9e1a42b61f2b,0.0621,0.0621,1,27,189,119,1,eightseven,,,,,,,,,,,,,,,,,,,,,,,,,,,,,,,,,,,,,,,,,,,,,,,,,,,,,,,,,,,,,,,,,,,,,,,,,,,,,,,,,,,,,,,,,,,,,,,,,,,,,,,,,,,,,,,,,,,,,,,,,,,,,,,,,,,,,,,,,
,,67da5ae29f57419143d2b99a,2026-03-17_16h40.47.184,kallum_motion_pilot_GIST_update_2,2026.1.1,Win32,58.82352941,67da5ae29f57419143d2b99a,69b95efdef24cd8a694e89ee,69b960d1ea0c9e1a42b61f2b,0.0623,0.0623,1,28,190,151,1,eightseven,,,,,,,,,,,,,,,,,,,,,,,,,,,,,,,,,,,,,,,,,,,,,,,,,,,,,,,,,,,,,,,,,,,,,,,,,,,,,,,,,,,,,,,,,,,,,,,,,,,,,,,,,,,,,,,,,,,,,,,,,,,,,,,,,,,,,,,,,
,,67da5ae29f57419143d2b99a,2026-03-17_16h40.47.184,kallum_motion_pilot_GIST_update_2,2026.1.1,Win32,58.82352941,67da5ae29f57419143d2b99a,69b95efdef24cd8a694e89ee,69b960d1ea0c9e1a42b61f2b,0.0624,0.0624,1,29,191,40,1,onetwo,,,,,,,,,,,,,,,,,,,,,,,,,,,,,,,,,,,,,,,,,,,,,,,,,,,,,,,,,,,,,,,,,,,,,,,,,,,,,,,,,,,,,,,,,,,,,,,,,,,,,,,,,,,,,,,,,,,,,,,,,,,,,,,,,,,,,,,,,
,,67da5ae29f57419143d2b99a,2026-03-17_16h40.47.184,kallum_motion_pilot_GIST_update_2,2026.1.1,Win32,58.82352941,67da5ae29f57419143d2b99a,69b95efdef24cd8a694e89ee,69b960d1ea0c9e1a42b61f2b,0.0626,0.0626,1,30,192,37,1,threefour,,,,,,,,,,,,,,,,,,,,,,,,,,,,,,,,,,,,,,,,,,,,,,,,,,,,,,,,,,,,,,,,,,,,,,,,,,,,,,,,,,,,,,,,,,,,,,,,,,,,,,,,,,,,,,,,,,,,,,,,,,,,,,,,,,,,,,,,,
,,67da5ae29f57419143d2b99a,2026-03-17_16h40.47.184,kallum_motion_pilot_GIST_update_2,2026.1.1,Win32,58.82352941,67da5ae29f57419143d2b99a,69b95efdef24cd8a694e89ee,69b960d1ea0c9e1a42b61f2b,0.0627,0.0627,1,31,193,115,1,sixeight,,,,,,,,,,,,,,,,,,,,,,,,,,,,,,,,,,,,,,,,,,,,,,,,,,,,,,,,,,,,,,,,,,,,,,,,,,,,,,,,,,,,,,,,,,,,,,,,,,,,,,,,,,,,,,,,,,,,,,,,,,,,,,,,,,,,,,,,,
,,67da5ae29f57419143d2b99a,2026-03-17_16h40.47.184,kallum_motion_pilot_GIST_update_2,2026.1.1,Win32,58.82352941,67da5ae29f57419143d2b99a,69b95efdef24cd8a694e89ee,69b960d1ea0c9e1a42b61f2b,0.0629,0.0629,1,32,194,71,1,fourthree,,,,,,,,,,,,,,,,,,,,,,,,,,,,,,,,,,,,,,,,,,,,,,,,,,,,,,,,,,,,,,,,,,,,,,,,,,,,,,,,,,,,,,,,,,,,,,,,,,,,,,,,,,,,,,,,,,,,,,,,,,,,,,,,,,,,,,,,,
,,67da5ae29f57419143d2b99a,2026-03-17_16h40.47.184,kallum_motion_pilot_GIST_update_2,2026.1.1,Win32,58.82352941,67da5ae29f57419143d2b99a,69b95efdef24cd8a694e89ee,69b960d1ea0c9e1a42b61f2b,0.063,0.063,1,33,195,83,1,sixeight,,,,,,,,,,,,,,,,,,,,,,,,,,,,,,,,,,,,,,,,,,,,,,,,,,,,,,,,,,,,,,,,,,,,,,,,,,,,,,,,,,,,,,,,,,,,,,,,,,,,,,,,,,,,,,,,,,,,,,,,,,,,,,,,,,,,,,,,,
,,67da5ae29f57419143d2b99a,2026-03-17_16h40.47.184,kallum_motion_pilot_GIST_update_2,2026.1.1,Win32,58.82352941,67da5ae29f57419143d2b99a,69b95efdef24cd8a694e89ee,69b960d1ea0c9e1a42b61f2b,0.0631,0.0631,1,34,196,78,1,fourtwo,,,,,,,,,,,,,,,,,,,,,,,,,,,,,,,,,,,,,,,,,,,,,,,,,,,,,,,,,,,,,,,,,,,,,,,,,,,,,,,,,,,,,,,,,,,,,,,,,,,,,,,,,,,,,,,,,,,,,,,,,,,,,,,,,,,,,,,,,
,,67da5ae29f57419143d2b99a,2026-03-17_16h40.47.184,kallum_motion_pilot_GIST_update_2,2026.1.1,Win32,58.82352941,67da5ae29f57419143d2b99a,69b95efdef24cd8a694e89ee,69b960d1ea0c9e1a42b61f2b,0.0633,0.0633,1,35,197,95,1,eightseven,,,,,,,,,,,,,,,,,,,,,,,,,,,,,,,,,,,,,,,,,,,,,,,,,,,,,,,,,,,,,,,,,,,,,,,,,,,,,,,,,,,,,,,,,,,,,,,,,,,,,,,,,,,,,,,,,,,,,,,,,,,,,,,,,,,,,,,,,
,,67da5ae29f57419143d2b99a,2026-03-17_16h40.47.184,kallum_motion_pilot_GIST_update_2,2026.1.1,Win32,58.82352941,67da5ae29f57419143d2b99a,69b95efdef24cd8a694e89ee,69b960d1ea0c9e1a42b61f2b,0.0634,0.0634,1,36,198,79,1,eightseven,,,,,,,,,,,,,,,,,,,,,,,,,,,,,,,,,,,,,,,,,,,,,,,,,,,,,,,,,,,,,,,,,,,,,,,,,,,,,,,,,,,,,,,,,,,,,,,,,,,,,,,,,,,,,,,,,,,,,,,,,,,,,,,,,,,,,,,,,
,,67da5ae29f57419143d2b99a,2026-03-17_16h40.47.184,kallum_motion_pilot_GIST_update_2,2026.1.1,Win32,58.82352941,67da5ae29f57419143d2b99a,69b95efdef24cd8a694e89ee,69b960d1ea0c9e1a42b61f2b,0.0635,0.0635,1,37,199,70,1,fourtwo,,,,,,,,,,,,,,,,,,,,,,,,,,,,,,,,,,,,,,,,,,,,,,,,,,,,,,,,,,,,,,,,,,,,,,,,,,,,,,,,,,,,,,,,,,,,,,,,,,,,,,,,,,,,,,,,,,,,,,,,,,,,,,,,,,,,,,,,,
,,67da5ae29f57419143d2b99a,2026-03-17_16h40.47.184,kallum_motion_pilot_GIST_update_2,2026.1.1,Win32,58.82352941,67da5ae29f57419143d2b99a,69b95efdef24cd8a694e89ee,69b960d1ea0c9e1a42b61f2b,0.0637,0.0637,1,38,200,146,1,sixfive,,,,,,,,,,,,,,,,,,,,,,,,,,,,,,,,,,,,,,,,,,,,,,,,,,,,,,,,,,,,,,,,,,,,,,,,,,,,,,,,,,,,,,,,,,,,,,,,,,,,,,,,,,,,,,,,,,,,,,,,,,,,,,,,,,,,,,,,,
,,67da5ae29f57419143d2b99a,2026-03-17_16h40.47.184,kallum_motion_pilot_GIST_update_2,2026.1.1,Win32,58.82352941,67da5ae29f57419143d2b99a,69b95efdef24cd8a694e89ee,69b960d1ea0c9e1a42b61f2b,0.0638,0.0638,1,39,201,25,1,onethree,,,,,,,,,,,,,,,,,,,,,,,,,,,,,,,,,,,,,,,,,,,,,,,,,,,,,,,,,,,,,,,,,,,,,,,,,,,,,,,,,,,,,,,,,,,,,,,,,,,,,,,,,,,,,,,,,,,,,,,,,,,,,,,,,,,,,,,,,
,,67da5ae29f57419143d2b99a,2026-03-17_16h40.47.184,kallum_motion_pilot_GIST_update_2,2026.1.1,Win32,58.82352941,67da5ae29f57419143d2b99a,69b95efdef24cd8a694e89ee,69b960d1ea0c9e1a42b61f2b,0.0639,0.0639,1,40,202,28,1,threeone,,,,,,,,,,,,,,,,,,,,,,,,,,,,,,,,,,,,,,,,,,,,,,,,,,,,,,,,,,,,,,,,,,,,,,,,,,,,,,,,,,,,,,,,,,,,,,,,,,,,,,,,,,,,,,,,,,,,,,,,,,,,,,,,,,,,,,,,,
,,67da5ae29f57419143d2b99a,2026-03-17_16h40.47.184,kallum_motion_pilot_GIST_update_2,2026.1.1,Win32,58.82352941,67da5ae29f57419143d2b99a,69b95efdef24cd8a694e89ee,69b960d1ea0c9e1a42b61f2b,0.064,0.064,1,41,203,142,1,eightsix,,,,,,,,,,,,,,,,,,,,,,,,,,,,,,,,,,,,,,,,,,,,,,,,,,,,,,,,,,,,,,,,,,,,,,,,,,,,,,,,,,,,,,,,,,,,,,,,,,,,,,,,,,,,,,,,,,,,,,,,,,,,,,,,,,,,,,,,,
,,67da5ae29f57419143d2b99a,2026-03-17_16h40.47.184,kallum_motion_pilot_GIST_update_2,2026.1.1,Win32,58.82352941,67da5ae29f57419143d2b99a,69b95efdef24cd8a694e89ee,69b960d1ea0c9e1a42b61f2b,0.0642,0.0642,1,42,204,104,1,fivesix,,,,,,,,,,,,,,,,,,,,,,,,,,,,,,,,,,,,,,,,,,,,,,,,,,,,,,,,,,,,,,,,,,,,,,,,,,,,,,,,,,,,,,,,,,,,,,,,,,,,,,,,,,,,,,,,,,,,,,,,,,,,,,,,,,,,,,,,,
,,67da5ae29f57419143d2b99a,2026-03-17_16h40.47.184,kallum_motion_pilot_GIST_update_2,2026.1.1,Win32,58.82352941,67da5ae29f57419143d2b99a,69b95efdef24cd8a694e89ee,69b960d1ea0c9e1a42b61f2b,0.0646,0.0646,1,43,205,22,1,fourtwo,,,,,,,,,,,,,,,,,,,,,,,,,,,,,,,,,,,,,,,,,,,,,,,,,,,,,,,,,,,,,,,,,,,,,,,,,,,,,,,,,,,,,,,,,,,,,,,,,,,,,,,,,,,,,,,,,,,,,,,,,,,,,,,,,,,,,,,,,
,,67da5ae29f57419143d2b99a,2026-03-17_16h40.47.184,kallum_motion_pilot_GIST_update_2,2026.1.1,Win32,58.82352941,67da5ae29f57419143d2b99a,69b95efdef24cd8a694e89ee,69b960d1ea0c9e1a42b61f2b,0.0647,0.0647,1,44,206,105,1,fiveseven,,,,,,,,,,,,,,,,,,,,,,,,,,,,,,,,,,,,,,,,,,,,,,,,,,,,,,,,,,,,,,,,,,,,,,,,,,,,,,,,,,,,,,,,,,,,,,,,,,,,,,,,,,,,,,,,,,,,,,,,,,,,,,,,,,,,,,,,,
,,67da5ae29f57419143d2b99a,2026-03-17_16h40.47.184,kallum_motion_pilot_GIST_update_2,2026.1.1,Win32,58.82352941,67da5ae29f57419143d2b99a,69b95efdef24cd8a694e89ee,69b960d1ea0c9e1a42b61f2b,0.065,0.065,1,45,207,103,1,eightseven,,,,,,,,,,,,,,,,,,,,,,,,,,,,,,,,,,,,,,,,,,,,,,,,,,,,,,,,,,,,,,,,,,,,,,,,,,,,,,,,,,,,,,,,,,,,,,,,,,,,,,,,,,,,,,,,,,,,,,,,,,,,,,,,,,,,,,,,,
,,67da5ae29f57419143d2b99a,2026-03-17_16h40.47.184,kallum_motion_pilot_GIST_update_2,2026.1.1,Win32,58.82352941,67da5ae29f57419143d2b99a,69b95efdef24cd8a694e89ee,69b960d1ea0c9e1a42b61f2b,0.0653,0.0653,1,46,208,76,1,threeone,,,,,,,,,,,,,,,,,,,,,,,,,,,,,,,,,,,,,,,,,,,,,,,,,,,,,,,,,,,,,,,,,,,,,,,,,,,,,,,,,,,,,,,,,,,,,,,,,,,,,,,,,,,,,,,,,,,,,,,,,,,,,,,,,,,,,,,,,
,,67da5ae29f57419143d2b99a,2026-03-17_16h40.47.184,kallum_motion_pilot_GIST_update_2,2026.1.1,Win32,58.82352941,67da5ae29f57419143d2b99a,69b95efdef24cd8a694e89ee,69b960d1ea0c9e1a42b61f2b,0.0656,0.0656,1,47,209,61,1,threefour,,,,,,,,,,,,,,,,,,,,,,,,,,,,,,,,,,,,,,,,,,,,,,,,,,,,,,,,,,,,,,,,,,,,,,,,,,,,,,,,,,,,,,,,,,,,,,,,,,,,,,,,,,,,,,,,,,,,,,,,,,,,,,,,,,,,,,,,,
,,67da5ae29f57419143d2b99a,2026-03-17_16h40.47.184,kallum_motion_pilot_GIST_update_2,2026.1.1,Win32,58.82352941,67da5ae29f57419143d2b99a,69b95efdef24cd8a694e89ee,69b960d1ea0c9e1a42b61f2b,0.0658,0.0658,1,48,210,75,1,twofour,,,,,,,,,,,,,,,,,,,,,,,,,,,,,,,,,,,,,,,,,,,,,,,,,,,,,,,,,,,,,,,,,,,,,,,,,,,,,,,,,,,,,,,,,,,,,,,,,,,,,,,,,,,,,,,,,,,,,,,,,,,,,,,,,,,,,,,,,
,,67da5ae29f57419143d2b99a,2026-03-17_16h40.47.184,kallum_motion_pilot_GIST_update_2,2026.1.1,Win32,58.82352941,67da5ae29f57419143d2b99a,69b95efdef24cd8a694e89ee,69b960d1ea0c9e1a42b61f2b,0.0659,0.0659,1,49,211,141,1,seveneight,,,,,,,,,,,,,,,,,,,,,,,,,,,,,,,,,,,,,,,,,,,,,,,,,,,,,,,,,,,,,,,,,,,,,,,,,,,,,,,,,,,,,,,,,,,,,,,,,,,,,,,,,,,,,,,,,,,,,,,,,,,,,,,,,,,,,,,,,
,,67da5ae29f57419143d2b99a,2026-03-17_16h40.47.184,kallum_motion_pilot_GIST_update_2,2026.1.1,Win32,58.82352941,67da5ae29f57419143d2b99a,69b95efdef24cd8a694e89ee,69b960d1ea0c9e1a42b61f2b,0.0661,0.0661,1,50,212,110,1,eightsix,,,,,,,,,,,,,,,,,,,,,,,,,,,,,,,,,,,,,,,,,,,,,,,,,,,,,,,,,,,,,,,,,,,,,,,,,,,,,,,,,,,,,,,,,,,,,,,,,,,,,,,,,,,,,,,,,,,,,,,,,,,,,,,,,,,,,,,,,
,,67da5ae29f57419143d2b99a,2026-03-17_16h40.47.184,kallum_motion_pilot_GIST_update_2,2026.1.1,Win32,58.82352941,67da5ae29f57419143d2b99a,69b95efdef24cd8a694e89ee,69b960d1ea0c9e1a42b61f2b,0.0664,0.0664,1,51,213,130,1,sixfive,,,,,,,,,,,,,,,,,,,,,,,,,,,,,,,,,,,,,,,,,,,,,,,,,,,,,,,,,,,,,,,,,,,,,,,,,,,,,,,,,,,,,,,,,,,,,,,,,,,,,,,,,,,,,,,,,,,,,,,,,,,,,,,,,,,,,,,,,
,,67da5ae29f57419143d2b99a,2026-03-17_16h40.47.184,kallum_motion_pilot_GIST_update_2,2026.1.1,Win32,58.82352941,67da5ae29f57419143d2b99a,69b95efdef24cd8a694e89ee,69b960d1ea0c9e1a42b61f2b,0.0665,0.0665,1,52,214,155,1,sixeight,,,,,,,,,,,,,,,,,,,,,,,,,,,,,,,,,,,,,,,,,,,,,,,,,,,,,,,,,,,,,,,,,,,,,,,,,,,,,,,,,,,,,,,,,,,,,,,,,,,,,,,,,,,,,,,,,,,,,,,,,,,,,,,,,,,,,,,,,
,,67da5ae29f57419143d2b99a,2026-03-17_16h40.47.184,kallum_motion_pilot_GIST_update_2,2026.1.1,Win32,58.82352941,67da5ae29f57419143d2b99a,69b95efdef24cd8a694e89ee,69b960d1ea0c9e1a42b61f2b,0.0667,0.0667,1,53,215,43,1,twofour,,,,,,,,,,,,,,,,,,,,,,,,,,,,,,,,,,,,,,,,,,,,,,,,,,,,,,,,,,,,,,,,,,,,,,,,,,,,,,,,,,,,,,,,,,,,,,,,,,,,,,,,,,,,,,,,,,,,,,,,,,,,,,,,,,,,,,,,,
,,67da5ae29f57419143d2b99a,2026-03-17_16h40.47.184,kallum_motion_pilot_GIST_update_2,2026.1.1,Win32,58.82352941,67da5ae29f57419143d2b99a,69b95efdef24cd8a694e89ee,69b960d1ea0c9e1a42b61f2b,0.0668,0.0668,1,54,216,92,1,sevenfive,,,,,,,,,,,,,,,,,,,,,,,,,,,,,,,,,,,,,,,,,,,,,,,,,,,,,,,,,,,,,,,,,,,,,,,,,,,,,,,,,,,,,,,,,,,,,,,,,,,,,,,,,,,,,,,,,,,,,,,,,,,,,,,,,,,,,,,,,
,,67da5ae29f57419143d2b99a,2026-03-17_16h40.47.184,kallum_motion_pilot_GIST_update_2,2026.1.1,Win32,58.82352941,67da5ae29f57419143d2b99a,69b95efdef24cd8a694e89ee,69b960d1ea0c9e1a42b61f2b,0.0671,0.0671,1,55,217,135,1,eightseven,,,,,,,,,,,,,,,,,,,,,,,,,,,,,,,,,,,,,,,,,,,,,,,,,,,,,,,,,,,,,,,,,,,,,,,,,,,,,,,,,,,,,,,,,,,,,,,,,,,,,,,,,,,,,,,,,,,,,,,,,,,,,,,,,,,,,,,,,
,,67da5ae29f57419143d2b99a,2026-03-17_16h40.47.184,kallum_motion_pilot_GIST_update_2,2026.1.1,Win32,58.82352941,67da5ae29f57419143d2b99a,69b95efdef24cd8a694e89ee,69b960d1ea0c9e1a42b61f2b,0.0672,0.0672,1,56,218,134,1,eightsix,,,,,,,,,,,,,,,,,,,,,,,,,,,,,,,,,,,,,,,,,,,,,,,,,,,,,,,,,,,,,,,,,,,,,,,,,,,,,,,,,,,,,,,,,,,,,,,,,,,,,,,,,,,,,,,,,,,,,,,,,,,,,,,,,,,,,,,,,
,,67da5ae29f57419143d2b99a,2026-03-17_16h40.47.184,kallum_motion_pilot_GIST_update_2,2026.1.1,Win32,58.82352941,67da5ae29f57419143d2b99a,69b95efdef24cd8a694e89ee,69b960d1ea0c9e1a42b61f2b,0.0674,0.0674,1,57,219,111,1,eightseven,,,,,,,,,,,,,,,,,,,,,,,,,,,,,,,,,,,,,,,,,,,,,,,,,,,,,,,,,,,,,,,,,,,,,,,,,,,,,,,,,,,,,,,,,,,,,,,,,,,,,,,,,,,,,,,,,,,,,,,,,,,,,,,,,,,,,,,,,
,,67da5ae29f57419143d2b99a,2026-03-17_16h40.47.184,kallum_motion_pilot_GIST_update_2,2026.1.1,Win32,58.82352941,67da5ae29f57419143d2b99a,69b95efdef24cd8a694e89ee,69b960d1ea0c9e1a42b61f2b,0.0675,0.0676,1,58,220,60,1,threeone,,,,,,,,,,,,,,,,,,,,,,,,,,,,,,,,,,,,,,,,,,,,,,,,,,,,,,,,,,,,,,,,,,,,,,,,,,,,,,,,,,,,,,,,,,,,,,,,,,,,,,,,,,,,,,,,,,,,,,,,,,,,,,,,,,,,,,,,,
,,67da5ae29f57419143d2b99a,2026-03-17_16h40.47.184,kallum_motion_pilot_GIST_update_2,2026.1.1,Win32,58.82352941,67da5ae29f57419143d2b99a,69b95efdef24cd8a694e89ee,69b960d1ea0c9e1a42b61f2b,0.0676,0.0676,1,59,221,48,1,onetwo,,,,,,,,,,,,,,,,,,,,,,,,,,,,,,,,,,,,,,,,,,,,,,,,,,,,,,,,,,,,,,,,,,,,,,,,,,,,,,,,,,,,,,,,,,,,,,,,,,,,,,,,,,,,,,,,,,,,,,,,,,,,,,,,,,,,,,,,,
,,67da5ae29f57419143d2b99a,2026-03-17_16h40.47.184,kallum_motion_pilot_GIST_update_2,2026.1.1,Win32,58.82352941,67da5ae29f57419143d2b99a,69b95efdef24cd8a694e89ee,69b960d1ea0c9e1a42b61f2b,0.0679,0.0679,1,60,222,12,1,threeone,,,,,,,,,,,,,,,,,,,,,,,,,,,,,,,,,,,,,,,,,,,,,,,,,,,,,,,,,,,,,,,,,,,,,,,,,,,,,,,,,,,,,,,,,,,,,,,,,,,,,,,,,,,,,,,,,,,,,,,,,,,,,,,,,,,,,,,,,
,,67da5ae29f57419143d2b99a,2026-03-17_16h40.47.184,kallum_motion_pilot_GIST_update_2,2026.1.1,Win32,58.82352941,67da5ae29f57419143d2b99a,69b95efdef24cd8a694e89ee,69b960d1ea0c9e1a42b61f2b,0.068,0.068,1,61,223,18,1,twoone,,,,,,,,,,,,,,,,,,,,,,,,,,,,,,,,,,,,,,,,,,,,,,,,,,,,,,,,,,,,,,,,,,,,,,,,,,,,,,,,,,,,,,,,,,,,,,,,,,,,,,,,,,,,,,,,,,,,,,,,,,,,,,,,,,,,,,,,,
,,67da5ae29f57419143d2b99a,2026-03-17_16h40.47.184,kallum_motion_pilot_GIST_update_2,2026.1.1,Win32,58.82352941,67da5ae29f57419143d2b99a,69b95efdef24cd8a694e89ee,69b960d1ea0c9e1a42b61f2b,0.0682,0.0682,1,62,224,133,1,seveneight,,,,,,,,,,,,,,,,,,,,,,,,,,,,,,,,,,,,,,,,,,,,,,,,,,,,,,,,,,,,,,,,,,,,,,,,,,,,,,,,,,,,,,,,,,,,,,,,,,,,,,,,,,,,,,,,,,,,,,,,,,,,,,,,,,,,,,,,,
,,67da5ae29f57419143d2b99a,2026-03-17_16h40.47.184,kallum_motion_pilot_GIST_update_2,2026.1.1,Win32,58.82352941,67da5ae29f57419143d2b99a,69b95efdef24cd8a694e89ee,69b960d1ea0c9e1a42b61f2b,0.0683,0.0683,1,63,225,161,1,fiveseven,,,,,,,,,,,,,,,,,,,,,,,,,,,,,,,,,,,,,,,,,,,,,,,,,,,,,,,,,,,,,,,,,,,,,,,,,,,,,,,,,,,,,,,,,,,,,,,,,,,,,,,,,,,,,,,,,,,,,,,,,,,,,,,,,,,,,,,,,
,,67da5ae29f57419143d2b99a,2026-03-17_16h40.47.184,kallum_motion_pilot_GIST_update_2,2026.1.1,Win32,58.82352941,67da5ae29f57419143d2b99a,69b95efdef24cd8a694e89ee,69b960d1ea0c9e1a42b61f2b,0.0685,0.0685,1,64,226,27,1,twofour,,,,,,,,,,,,,,,,,,,,,,,,,,,,,,,,,,,,,,,,,,,,,,,,,,,,,,,,,,,,,,,,,,,,,,,,,,,,,,,,,,,,,,,,,,,,,,,,,,,,,,,,,,,,,,,,,,,,,,,,,,,,,,,,,,,,,,,,,
,,67da5ae29f57419143d2b99a,2026-03-17_16h40.47.184,kallum_motion_pilot_GIST_update_2,2026.1.1,Win32,58.82352941,67da5ae29f57419143d2b99a,69b95efdef24cd8a694e89ee,69b960d1ea0c9e1a42b61f2b,0.0687,0.0687,1,65,227,50,1,twoone,,,,,,,,,,,,,,,,,,,,,,,,,,,,,,,,,,,,,,,,,,,,,,,,,,,,,,,,,,,,,,,,,,,,,,,,,,,,,,,,,,,,,,,,,,,,,,,,,,,,,,,,,,,,,,,,,,,,,,,,,,,,,,,,,,,,,,,,,
,,67da5ae29f57419143d2b99a,2026-03-17_16h40.47.184,kallum_motion_pilot_GIST_update_2,2026.1.1,Win32,58.82352941,67da5ae29f57419143d2b99a,69b95efdef24cd8a694e89ee,69b960d1ea0c9e1a42b61f2b,0.0688,0.0688,1,66,228,5,1,threefour,,,,,,,,,,,,,,,,,,,,,,,,,,,,,,,,,,,,,,,,,,,,,,,,,,,,,,,,,,,,,,,,,,,,,,,,,,,,,,,,,,,,,,,,,,,,,,,,,,,,,,,,,,,,,,,,,,,,,,,,,,,,,,,,,,,,,,,,,
,,67da5ae29f57419143d2b99a,2026-03-17_16h40.47.184,kallum_motion_pilot_GIST_update_2,2026.1.1,Win32,58.82352941,67da5ae29f57419143d2b99a,69b95efdef24cd8a694e89ee,69b960d1ea0c9e1a42b61f2b,0.069,0.069,1,67,229,147,1,sixeight,,,,,,,,,,,,,,,,,,,,,,,,,,,,,,,,,,,,,,,,,,,,,,,,,,,,,,,,,,,,,,,,,,,,,,,,,,,,,,,,,,,,,,,,,,,,,,,,,,,,,,,,,,,,,,,,,,,,,,,,,,,,,,,,,,,,,,,,,
,,67da5ae29f57419143d2b99a,2026-03-17_16h40.47.184,kallum_motion_pilot_GIST_update_2,2026.1.1,Win32,58.82352941,67da5ae29f57419143d2b99a,69b95efdef24cd8a694e89ee,69b960d1ea0c9e1a42b61f2b,0.0692,0.0692,1,68,230,11,1,twofour,,,,,,,,,,,,,,,,,,,,,,,,,,,,,,,,,,,,,,,,,,,,,,,,,,,,,,,,,,,,,,,,,,,,,,,,,,,,,,,,,,,,,,,,,,,,,,,,,,,,,,,,,,,,,,,,,,,,,,,,,,,,,,,,,,,,,,,,,
,,67da5ae29f57419143d2b99a,2026-03-17_16h40.47.184,kallum_motion_pilot_GIST_update_2,2026.1.1,Win32,58.82352941,67da5ae29f57419143d2b99a,69b95efdef24cd8a694e89ee,69b960d1ea0c9e1a42b61f2b,0.0692,0.0693,1,69,231,112,1,fivesix,,,,,,,,,,,,,,,,,,,,,,,,,,,,,,,,,,,,,,,,,,,,,,,,,,,,,,,,,,,,,,,,,,,,,,,,,,,,,,,,,,,,,,,,,,,,,,,,,,,,,,,,,,,,,,,,,,,,,,,,,,,,,,,,,,,,,,,,,
,,67da5ae29f57419143d2b99a,2026-03-17_16h40.47.184,kallum_motion_pilot_GIST_update_2,2026.1.1,Win32,58.82352941,67da5ae29f57419143d2b99a,69b95efdef24cd8a694e89ee,69b960d1ea0c9e1a42b61f2b,0.0694,0.0694,1,70,232,35,1,twofour,,,,,,,,,,,,,,,,,,,,,,,,,,,,,,,,,,,,,,,,,,,,,,,,,,,,,,,,,,,,,,,,,,,,,,,,,,,,,,,,,,,,,,,,,,,,,,,,,,,,,,,,,,,,,,,,,,,,,,,,,,,,,,,,,,,,,,,,,
,,67da5ae29f57419143d2b99a,2026-03-17_16h40.47.184,kallum_motion_pilot_GIST_update_2,2026.1.1,Win32,58.82352941,67da5ae29f57419143d2b99a,69b95efdef24cd8a694e89ee,69b960d1ea0c9e1a42b61f2b,0.0697,0.0697,1,71,233,54,1,fourtwo,,,,,,,,,,,,,,,,,,,,,,,,,,,,,,,,,,,,,,,,,,,,,,,,,,,,,,,,,,,,,,,,,,,,,,,,,,,,,,,,,,,,,,,,,,,,,,,,,,,,,,,,,,,,,,,,,,,,,,,,,,,,,,,,,,,,,,,,,
,,67da5ae29f57419143d2b99a,2026-03-17_16h40.47.184,kallum_motion_pilot_GIST_update_2,2026.1.1,Win32,58.82352941,67da5ae29f57419143d2b99a,69b95efdef24cd8a694e89ee,69b960d1ea0c9e1a42b61f2b,0.0699,0.0699,1,72,234,100,1,sevenfive,,,,,,,,,,,,,,,,,,,,,,,,,,,,,,,,,,,,,,,,,,,,,,,,,,,,,,,,,,,,,,,,,,,,,,,,,,,,,,,,,,,,,,,,,,,,,,,,,,,,,,,,,,,,,,,,,,,,,,,,,,,,,,,,,,,,,,,,,
,,67da5ae29f57419143d2b99a,2026-03-17_16h40.47.184,kallum_motion_pilot_GIST_update_2,2026.1.1,Win32,58.82352941,67da5ae29f57419143d2b99a,69b95efdef24cd8a694e89ee,69b960d1ea0c9e1a42b61f2b,0.0699,0.0699,1,73,235,96,1,fivesix,,,,,,,,,,,,,,,,,,,,,,,,,,,,,,,,,,,,,,,,,,,,,,,,,,,,,,,,,,,,,,,,,,,,,,,,,,,,,,,,,,,,,,,,,,,,,,,,,,,,,,,,,,,,,,,,,,,,,,,,,,,,,,,,,,,,,,,,,
,,67da5ae29f57419143d2b99a,2026-03-17_16h40.47.184,kallum_motion_pilot_GIST_update_2,2026.1.1,Win32,58.82352941,67da5ae29f57419143d2b99a,69b95efdef24cd8a694e89ee,69b960d1ea0c9e1a42b61f2b,0.0701,0.0701,1,74,236,0,1,onetwo,,,,,,,,,,,,,,,,,,,,,,,,,,,,,,,,,,,,,,,,,,,,,,,,,,,,,,,,,,,,,,,,,,,,,,,,,,,,,,,,,,,,,,,,,,,,,,,,,,,,,,,,,,,,,,,,,,,,,,,,,,,,,,,,,,,,,,,,,
,,67da5ae29f57419143d2b99a,2026-03-17_16h40.47.184,kallum_motion_pilot_GIST_update_2,2026.1.1,Win32,58.82352941,67da5ae29f57419143d2b99a,69b95efdef24cd8a694e89ee,69b960d1ea0c9e1a42b61f2b,0.0703,0.0703,1,75,237,68,1,threeone,,,,,,,,,,,,,,,,,,,,,,,,,,,,,,,,,,,,,,,,,,,,,,,,,,,,,,,,,,,,,,,,,,,,,,,,,,,,,,,,,,,,,,,,,,,,,,,,,,,,,,,,,,,,,,,,,,,,,,,,,,,,,,,,,,,,,,,,,
,,67da5ae29f57419143d2b99a,2026-03-17_16h40.47.184,kallum_motion_pilot_GIST_update_2,2026.1.1,Win32,58.82352941,67da5ae29f57419143d2b99a,69b95efdef24cd8a694e89ee,69b960d1ea0c9e1a42b61f2b,0.0705,0.0705,1,76,238,31,1,fourthree,,,,,,,,,,,,,,,,,,,,,,,,,,,,,,,,,,,,,,,,,,,,,,,,,,,,,,,,,,,,,,,,,,,,,,,,,,,,,,,,,,,,,,,,,,,,,,,,,,,,,,,,,,,,,,,,,,,,,,,,,,,,,,,,,,,,,,,,,
,,67da5ae29f57419143d2b99a,2026-03-17_16h40.47.184,kallum_motion_pilot_GIST_update_2,2026.1.1,Win32,58.82352941,67da5ae29f57419143d2b99a,69b95efdef24cd8a694e89ee,69b960d1ea0c9e1a42b61f2b,0.0706,0.0706,1,77,239,8,1,onetwo,,,,,,,,,,,,,,,,,,,,,,,,,,,,,,,,,,,,,,,,,,,,,,,,,,,,,,,,,,,,,,,,,,,,,,,,,,,,,,,,,,,,,,,,,,,,,,,,,,,,,,,,,,,,,,,,,,,,,,,,,,,,,,,,,,,,,,,,,
,,67da5ae29f57419143d2b99a,2026-03-17_16h40.47.184,kallum_motion_pilot_GIST_update_2,2026.1.1,Win32,58.82352941,67da5ae29f57419143d2b99a,69b95efdef24cd8a694e89ee,69b960d1ea0c9e1a42b61f2b,0.0709,0.0709,1,78,240,159,1,eightseven,,,,,,,,,,,,,,,,,,,,,,,,,,,,,,,,,,,,,,,,,,,,,,,,,,,,,,,,,,,,,,,,,,,,,,,,,,,,,,,,,,,,,,,,,,,,,,,,,,,,,,,,,,,,,,,,,,,,,,,,,,,,,,,,,,,,,,,,,
,,67da5ae29f57419143d2b99a,2026-03-17_16h40.47.184,kallum_motion_pilot_GIST_update_2,2026.1.1,Win32,58.82352941,67da5ae29f57419143d2b99a,69b95efdef24cd8a694e89ee,69b960d1ea0c9e1a42b61f2b,0.071,0.071,1,79,241,44,1,threeone,,,,,,,,,,,,,,,,,,,,,,,,,,,,,,,,,,,,,,,,,,,,,,,,,,,,,,,,,,,,,,,,,,,,,,,,,,,,,,,,,,,,,,,,,,,,,,,,,,,,,,,,,,,,,,,,,,,,,,,,,,,,,,,,,,,,,,,,,
,,67da5ae29f57419143d2b99a,2026-03-17_16h40.47.184,kallum_motion_pilot_GIST_update_2,2026.1.1,Win32,58.82352941,67da5ae29f57419143d2b99a,69b95efdef24cd8a694e89ee,69b960d1ea0c9e1a42b61f2b,0.0711,0.0711,1,80,242,148,1,sevenfive,,,,,,,,,,,,,,,,,,,,,,,,,,,,,,,,,,,,,,,,,,,,,,,,,,,,,,,,,,,,,,,,,,,,,,,,,,,,,,,,,,,,,,,,,,,,,,,,,,,,,,,,,,,,,,,,,,,,,,,,,,,,,,,,,,,,,,,,,
,,67da5ae29f57419143d2b99a,2026-03-17_16h40.47.184,kallum_motion_pilot_GIST_update_2,2026.1.1,Win32,58.82352941,67da5ae29f57419143d2b99a,69b95efdef24cd8a694e89ee,69b960d1ea0c9e1a42b61f2b,0.0713,0.0713,1,81,243,118,1,eightsix,,,,,,,,,,,,,,,,,,,,,,,,,,,,,,,,,,,,,,,,,,,,,,,,,,,,,,,,,,,,,,,,,,,,,,,,,,,,,,,,,,,,,,,,,,,,,,,,,,,,,,,,,,,,,,,,,,,,,,,,,,,,,,,,,,,,,,,,,
,,67da5ae29f57419143d2b99a,2026-03-17_16h40.47.184,kallum_motion_pilot_GIST_update_2,2026.1.1,Win32,58.82352941,67da5ae29f57419143d2b99a,69b95efdef24cd8a694e89ee,69b960d1ea0c9e1a42b61f2b,0.0715,0.0715,1,82,244,36,1,threeone,,,,,,,,,,,,,,,,,,,,,,,,,,,,,,,,,,,,,,,,,,,,,,,,,,,,,,,,,,,,,,,,,,,,,,,,,,,,,,,,,,,,,,,,,,,,,,,,,,,,,,,,,,,,,,,,,,,,,,,,,,,,,,,,,,,,,,,,,
,,67da5ae29f57419143d2b99a,2026-03-17_16h40.47.184,kallum_motion_pilot_GIST_update_2,2026.1.1,Win32,58.82352941,67da5ae29f57419143d2b99a,69b95efdef24cd8a694e89ee,69b960d1ea0c9e1a42b61f2b,0.0716,0.0716,1,83,245,57,1,onethree,,,,,,,,,,,,,,,,,,,,,,,,,,,,,,,,,,,,,,,,,,,,,,,,,,,,,,,,,,,,,,,,,,,,,,,,,,,,,,,,,,,,,,,,,,,,,,,,,,,,,,,,,,,,,,,,,,,,,,,,,,,,,,,,,,,,,,,,,
,,67da5ae29f57419143d2b99a,2026-03-17_16h40.47.184,kallum_motion_pilot_GIST_update_2,2026.1.1,Win32,58.82352941,67da5ae29f57419143d2b99a,69b95efdef24cd8a694e89ee,69b960d1ea0c9e1a42b61f2b,0.0718,0.0718,1,84,246,99,1,sixeight,,,,,,,,,,,,,,,,,,,,,,,,,,,,,,,,,,,,,,,,,,,,,,,,,,,,,,,,,,,,,,,,,,,,,,,,,,,,,,,,,,,,,,,,,,,,,,,,,,,,,,,,,,,,,,,,,,,,,,,,,,,,,,,,,,,,,,,,,
,,67da5ae29f57419143d2b99a,2026-03-17_16h40.47.184,kallum_motion_pilot_GIST_update_2,2026.1.1,Win32,58.82352941,67da5ae29f57419143d2b99a,69b95efdef24cd8a694e89ee,69b960d1ea0c9e1a42b61f2b,0.072,0.072,1,85,247,106,1,sixfive,,,,,,,,,,,,,,,,,,,,,,,,,,,,,,,,,,,,,,,,,,,,,,,,,,,,,,,,,,,,,,,,,,,,,,,,,,,,,,,,,,,,,,,,,,,,,,,,,,,,,,,,,,,,,,,,,,,,,,,,,,,,,,,,,,,,,,,,,
,,67da5ae29f57419143d2b99a,2026-03-17_16h40.47.184,kallum_motion_pilot_GIST_update_2,2026.1.1,Win32,58.82352941,67da5ae29f57419143d2b99a,69b95efdef24cd8a694e89ee,69b960d1ea0c9e1a42b61f2b,0.0721,0.0721,1,86,248,52,1,threeone,,,,,,,,,,,,,,,,,,,,,,,,,,,,,,,,,,,,,,,,,,,,,,,,,,,,,,,,,,,,,,,,,,,,,,,,,,,,,,,,,,,,,,,,,,,,,,,,,,,,,,,,,,,,,,,,,,,,,,,,,,,,,,,,,,,,,,,,,
,,67da5ae29f57419143d2b99a,2026-03-17_16h40.47.184,kallum_motion_pilot_GIST_update_2,2026.1.1,Win32,58.82352941,67da5ae29f57419143d2b99a,69b95efdef24cd8a694e89ee,69b960d1ea0c9e1a42b61f2b,0.0724,0.0724,1,87,249,65,1,onethree,,,,,,,,,,,,,,,,,,,,,,,,,,,,,,,,,,,,,,,,,,,,,,,,,,,,,,,,,,,,,,,,,,,,,,,,,,,,,,,,,,,,,,,,,,,,,,,,,,,,,,,,,,,,,,,,,,,,,,,,,,,,,,,,,,,,,,,,,
,,67da5ae29f57419143d2b99a,2026-03-17_16h40.47.184,kallum_motion_pilot_GIST_update_2,2026.1.1,Win32,58.82352941,67da5ae29f57419143d2b99a,69b95efdef24cd8a694e89ee,69b960d1ea0c9e1a42b61f2b,0.0725,0.0725,1,88,250,90,1,sixfive,,,,,,,,,,,,,,,,,,,,,,,,,,,,,,,,,,,,,,,,,,,,,,,,,,,,,,,,,,,,,,,,,,,,,,,,,,,,,,,,,,,,,,,,,,,,,,,,,,,,,,,,,,,,,,,,,,,,,,,,,,,,,,,,,,,,,,,,,
,,67da5ae29f57419143d2b99a,2026-03-17_16h40.47.184,kallum_motion_pilot_GIST_update_2,2026.1.1,Win32,58.82352941,67da5ae29f57419143d2b99a,69b95efdef24cd8a694e89ee,69b960d1ea0c9e1a42b61f2b,0.0727,0.0727,1,89,251,29,1,threefour,,,,,,,,,,,,,,,,,,,,,,,,,,,,,,,,,,,,,,,,,,,,,,,,,,,,,,,,,,,,,,,,,,,,,,,,,,,,,,,,,,,,,,,,,,,,,,,,,,,,,,,,,,,,,,,,,,,,,,,,,,,,,,,,,,,,,,,,,
,,67da5ae29f57419143d2b99a,2026-03-17_16h40.47.184,kallum_motion_pilot_GIST_update_2,2026.1.1,Win32,58.82352941,67da5ae29f57419143d2b99a,69b95efdef24cd8a694e89ee,69b960d1ea0c9e1a42b61f2b,0.0729,0.0729,1,90,252,10,1,twoone,,,,,,,,,,,,,,,,,,,,,,,,,,,,,,,,,,,,,,,,,,,,,,,,,,,,,,,,,,,,,,,,,,,,,,,,,,,,,,,,,,,,,,,,,,,,,,,,,,,,,,,,,,,,,,,,,,,,,,,,,,,,,,,,,,,,,,,,,
,,67da5ae29f57419143d2b99a,2026-03-17_16h40.47.184,kallum_motion_pilot_GIST_update_2,2026.1.1,Win32,58.82352941,67da5ae29f57419143d2b99a,69b95efdef24cd8a694e89ee,69b960d1ea0c9e1a42b61f2b,0.0731,0.0731,1,91,253,139,1,sixeight,,,,,,,,,,,,,,,,,,,,,,,,,,,,,,,,,,,,,,,,,,,,,,,,,,,,,,,,,,,,,,,,,,,,,,,,,,,,,,,,,,,,,,,,,,,,,,,,,,,,,,,,,,,,,,,,,,,,,,,,,,,,,,,,,,,,,,,,,
,,67da5ae29f57419143d2b99a,2026-03-17_16h40.47.184,kallum_motion_pilot_GIST_update_2,2026.1.1,Win32,58.82352941,67da5ae29f57419143d2b99a,69b95efdef24cd8a694e89ee,69b960d1ea0c9e1a42b61f2b,0.0733,0.0733,1,92,254,129,1,fiveseven,,,,,,,,,,,,,,,,,,,,,,,,,,,,,,,,,,,,,,,,,,,,,,,,,,,,,,,,,,,,,,,,,,,,,,,,,,,,,,,,,,,,,,,,,,,,,,,,,,,,,,,,,,,,,,,,,,,,,,,,,,,,,,,,,,,,,,,,,
,,67da5ae29f57419143d2b99a,2026-03-17_16h40.47.184,kallum_motion_pilot_GIST_update_2,2026.1.1,Win32,58.82352941,67da5ae29f57419143d2b99a,69b95efdef24cd8a694e89ee,69b960d1ea0c9e1a42b61f2b,0.0735,0.0735,1,93,255,121,1,fiveseven,,,,,,,,,,,,,,,,,,,,,,,,,,,,,,,,,,,,,,,,,,,,,,,,,,,,,,,,,,,,,,,,,,,,,,,,,,,,,,,,,,,,,,,,,,,,,,,,,,,,,,,,,,,,,,,,,,,,,,,,,,,,,,,,,,,,,,,,,
,,67da5ae29f57419143d2b99a,2026-03-17_16h40.47.184,kallum_motion_pilot_GIST_update_2,2026.1.1,Win32,58.82352941,67da5ae29f57419143d2b99a,69b95efdef24cd8a694e89ee,69b960d1ea0c9e1a42b61f2b,0.0737,0.0737,1,94,256,158,1,eightsix,,,,,,,,,,,,,,,,,,,,,,,,,,,,,,,,,,,,,,,,,,,,,,,,,,,,,,,,,,,,,,,,,,,,,,,,,,,,,,,,,,,,,,,,,,,,,,,,,,,,,,,,,,,,,,,,,,,,,,,,,,,,,,,,,,,,,,,,,
,,67da5ae29f57419143d2b99a,2026-03-17_16h40.47.184,kallum_motion_pilot_GIST_update_2,2026.1.1,Win32,58.82352941,67da5ae29f57419143d2b99a,69b95efdef24cd8a694e89ee,69b960d1ea0c9e1a42b61f2b,0.074,0.074,1,95,257,2,1,twoone,,,,,,,,,,,,,,,,,,,,,,,,,,,,,,,,,,,,,,,,,,,,,,,,,,,,,,,,,,,,,,,,,,,,,,,,,,,,,,,,,,,,,,,,,,,,,,,,,,,,,,,,,,,,,,,,,,,,,,,,,,,,,,,,,,,,,,,,,
,,67da5ae29f57419143d2b99a,2026-03-17_16h40.47.184,kallum_motion_pilot_GIST_update_2,2026.1.1,Win32,58.82352941,67da5ae29f57419143d2b99a,69b95efdef24cd8a694e89ee,69b960d1ea0c9e1a42b61f2b,0.0741,0.0741,1,96,258,154,1,sixfive,,,,,,,,,,,,,,,,,,,,,,,,,,,,,,,,,,,,,,,,,,,,,,,,,,,,,,,,,,,,,,,,,,,,,,,,,,,,,,,,,,,,,,,,,,,,,,,,,,,,,,,,,,,,,,,,,,,,,,,,,,,,,,,,,,,,,,,,,
,,67da5ae29f57419143d2b99a,2026-03-17_16h40.47.184,kallum_motion_pilot_GIST_update_2,2026.1.1,Win32,58.82352941,67da5ae29f57419143d2b99a,69b95efdef24cd8a694e89ee,69b960d1ea0c9e1a42b61f2b,0.0744,0.0744,1,97,259,30,1,fourtwo,,,,,,,,,,,,,,,,,,,,,,,,,,,,,,,,,,,,,,,,,,,,,,,,,,,,,,,,,,,,,,,,,,,,,,,,,,,,,,,,,,,,,,,,,,,,,,,,,,,,,,,,,,,,,,,,,,,,,,,,,,,,,,,,,,,,,,,,,
,,67da5ae29f57419143d2b99a,2026-03-17_16h40.47.184,kallum_motion_pilot_GIST_update_2,2026.1.1,Win32,58.82352941,67da5ae29f57419143d2b99a,69b95efdef24cd8a694e89ee,69b960d1ea0c9e1a42b61f2b,0.0745,0.0746,1,98,260,109,1,seveneight,,,,,,,,,,,,,,,,,,,,,,,,,,,,,,,,,,,,,,,,,,,,,,,,,,,,,,,,,,,,,,,,,,,,,,,,,,,,,,,,,,,,,,,,,,,,,,,,,,,,,,,,,,,,,,,,,,,,,,,,,,,,,,,,,,,,,,,,,
,,67da5ae29f57419143d2b99a,2026-03-17_16h40.47.184,kallum_motion_pilot_GIST_update_2,2026.1.1,Win32,58.82352941,67da5ae29f57419143d2b99a,69b95efdef24cd8a694e89ee,69b960d1ea0c9e1a42b61f2b,0.0747,0.0748,1,99,261,137,1,fiveseven,,,,,,,,,,,,,,,,,,,,,,,,,,,,,,,,,,,,,,,,,,,,,,,,,,,,,,,,,,,,,,,,,,,,,,,,,,,,,,,,,,,,,,,,,,,,,,,,,,,,,,,,,,,,,,,,,,,,,,,,,,,,,,,,,,,,,,,,,
,,67da5ae29f57419143d2b99a,2026-03-17_16h40.47.184,kallum_motion_pilot_GIST_update_2,2026.1.1,Win32,58.82352941,67da5ae29f57419143d2b99a,69b95efdef24cd8a694e89ee,69b960d1ea0c9e1a42b61f2b,0.0753,0.0753,1,100,262,87,1,eightseven,,,,,,,,,,,,,,,,,,,,,,,,,,,,,,,,,,,,,,,,,,,,,,,,,,,,,,,,,,,,,,,,,,,,,,,,,,,,,,,,,,,,,,,,,,,,,,,,,,,,,,,,,,,,,,,,,,,,,,,,,,,,,,,,,,,,,,,,,
,,67da5ae29f57419143d2b99a,2026-03-17_16h40.47.184,kallum_motion_pilot_GIST_update_2,2026.1.1,Win32,58.82352941,67da5ae29f57419143d2b99a,69b95efdef24cd8a694e89ee,69b960d1ea0c9e1a42b61f2b,0.0754,0.0754,1,101,263,140,1,sevenfive,,,,,,,,,,,,,,,,,,,,,,,,,,,,,,,,,,,,,,,,,,,,,,,,,,,,,,,,,,,,,,,,,,,,,,,,,,,,,,,,,,,,,,,,,,,,,,,,,,,,,,,,,,,,,,,,,,,,,,,,,,,,,,,,,,,,,,,,,
,,67da5ae29f57419143d2b99a,2026-03-17_16h40.47.184,kallum_motion_pilot_GIST_update_2,2026.1.1,Win32,58.82352941,67da5ae29f57419143d2b99a,69b95efdef24cd8a694e89ee,69b960d1ea0c9e1a42b61f2b,0.0758,0.0758,1,102,264,66,1,twoone,,,,,,,,,,,,,,,,,,,,,,,,,,,,,,,,,,,,,,,,,,,,,,,,,,,,,,,,,,,,,,,,,,,,,,,,,,,,,,,,,,,,,,,,,,,,,,,,,,,,,,,,,,,,,,,,,,,,,,,,,,,,,,,,,,,,,,,,,
,,67da5ae29f57419143d2b99a,2026-03-17_16h40.47.184,kallum_motion_pilot_GIST_update_2,2026.1.1,Win32,58.82352941,67da5ae29f57419143d2b99a,69b95efdef24cd8a694e89ee,69b960d1ea0c9e1a42b61f2b,0.0761,0.0761,1,103,265,1,1,onethree,,,,,,,,,,,,,,,,,,,,,,,,,,,,,,,,,,,,,,,,,,,,,,,,,,,,,,,,,,,,,,,,,,,,,,,,,,,,,,,,,,,,,,,,,,,,,,,,,,,,,,,,,,,,,,,,,,,,,,,,,,,,,,,,,,,,,,,,,
,,67da5ae29f57419143d2b99a,2026-03-17_16h40.47.184,kallum_motion_pilot_GIST_update_2,2026.1.1,Win32,58.82352941,67da5ae29f57419143d2b99a,69b95efdef24cd8a694e89ee,69b960d1ea0c9e1a42b61f2b,0.0764,0.0765,1,104,266,89,1,fiveseven,,,,,,,,,,,,,,,,,,,,,,,,,,,,,,,,,,,,,,,,,,,,,,,,,,,,,,,,,,,,,,,,,,,,,,,,,,,,,,,,,,,,,,,,,,,,,,,,,,,,,,,,,,,,,,,,,,,,,,,,,,,,,,,,,,,,,,,,,
