startup.started,startup.stopped,Prolific ID*,date,expName,psychopyVersion,OS,frameRate,participant,study_id,session,stimpositions.started,stimpositions.stopped,hardcoded_stimulus_positions.thisRepN,hardcoded_stimulus_positions.thisTrialN,hardcoded_stimulus_positions.thisN,hardcoded_stimulus_positions.thisIndex,hardcoded_stimulus_positions.ran,StimulusPos,stimorientation.started,stimorientation.stopped,prac_stimorientation_import_loop.thisRepN,prac_stimorientation_import_loop.thisTrialN,prac_stimorientation_import_loop.thisN,prac_stimorientation_import_loop.thisIndex,prac_stimorientation_import_loop.ran,Stimorientation,welcome_instr.started,welcome_instr.stopped,key_resp.keys,key_resp.rt,key_resp.duration,response_steppedout_1.started,response_steppedout_1.stopped,key_resp_20.keys,key_resp_20.rt,key_resp_20.duration,response_steppedout_2.started,response_steppedout_2.stopped,key_resp_19.keys,key_resp_19.rt,key_resp_19.duration,stim_response_instr.started,stim_response_instr.stopped,key_resp_15.keys,key_resp_15.rt,key_resp_15.duration,direction_instr_2.started,direction_instr_2.stopped,key_resp_9.keys,key_resp_9.rt,key_resp_9.duration,instr_prac.started,instr_prac.stopped,key_resp_10.keys,key_resp_10.rt,key_resp_10.duration,Stim1_display_prac.started,Stim1_display_prac.stopped,Ecc,Circle1_ori,Circle2_ori,response_prac.started,similarity,response_time,response_prac.stopped,mouse_5.x,mouse_5.y,mouse_5.leftButton,mouse_5.midButton,mouse_5.rightButton,mouse_5.clicked_name,responseprac_feedback.started,responseprac_feedback.stopped,summary2_prac.started,summary2_prac.stopped,mouse_6.x,mouse_6.y,mouse_6.leftButton,mouse_6.midButton,mouse_6.rightButton,mouse_6.clicked_name,duringprac.thisRepN,duringprac.thisTrialN,duringprac.thisN,duringprac.thisIndex,duringprac.ran,begin.started,begin.stopped,key_resp_22.keys,key_resp_22.rt,key_resp_22.duration,Stim1_display.started,Stim1_display.stopped,circle1_ori,circle2_ori,circle1_SF,circle2_SF,response.started,response.stopped,mouse.x,mouse.y,mouse.leftButton,mouse.midButton,mouse.rightButton,mouse.clicked_name,trialnumber,double_pass.thisRepN,double_pass.thisTrialN,double_pass.thisN,double_pass.thisIndex,double_pass.ran,double_pass.order,main_trial.thisRepN,main_trial.thisTrialN,main_trial.thisN,main_trial.thisIndex,main_trial.ran,main_trial.order,Trial_Counter,Catch,Frequencies,response_2.started,response_2.stopped,mouse_2.x,mouse_2.y,mouse_2.leftButton,mouse_2.midButton,mouse_2.rightButton,mouse_2.clicked_name,special_trial.started,special_trial.stopped,catch_1.started,catch_1.stopped,mouse_3.x,mouse_3.y,mouse_3.leftButton,mouse_3.midButton,mouse_3.rightButton,catchresponse,catchnumber,response_time_catch,response_sum.started,response_sum.stopped,mouse_11.x,mouse_11.y,mouse_11.leftButton,mouse_11.midButton,mouse_11.rightButton,flip_presentation_sequence_for_double_pass.started,flip_presentation_sequence_for_double_pass.stopped,goodbye.started,goodbye.stopped,key_resp_3.keys,key_resp_3.rt,key_resp_3.duration
0.0003,0.0004,67dae998d8f2cfb8a8e3bf03,2026-03-17_16h11.24.345,kallum_motion_pilot_GIST_update_2,2026.1.1,Win32,60.24096386,67dae998d8f2cfb8a8e3bf03,69b95efdef24cd8a694e89ee,69b9609275353e1a76186204,,,,,,,,,,,,,,,,,,,,,,,,,,,,,,,,,,,,,,,,,,,,,,,,,,,,,,,,,,,,,,,,,,,,,,,,,,,,,,,,,,,,,,,,,,,,,,,,,,,,,,,,,,,,,,,,,,,,,,,,,,,,,,,,,,,,,,,,,,,,,,,,,
,,67dae998d8f2cfb8a8e3bf03,2026-03-17_16h11.24.345,kallum_motion_pilot_GIST_update_2,2026.1.1,Win32,60.24096386,67dae998d8f2cfb8a8e3bf03,69b95efdef24cd8a694e89ee,69b9609275353e1a76186204,0.0122,0.0123,0,0,0,140,1,sevenfive,,,,,,,,,,,,,,,,,,,,,,,,,,,,,,,,,,,,,,,,,,,,,,,,,,,,,,,,,,,,,,,,,,,,,,,,,,,,,,,,,,,,,,,,,,,,,,,,,,,,,,,,,,,,,,,,,,,,,,,,,,,,,,,,,,,,,,,,,
,,67dae998d8f2cfb8a8e3bf03,2026-03-17_16h11.24.345,kallum_motion_pilot_GIST_update_2,2026.1.1,Win32,60.24096386,67dae998d8f2cfb8a8e3bf03,69b95efdef24cd8a694e89ee,69b9609275353e1a76186204,0.0124,0.0124,0,1,1,115,1,sixeight,,,,,,,,,,,,,,,,,,,,,,,,,,,,,,,,,,,,,,,,,,,,,,,,,,,,,,,,,,,,,,,,,,,,,,,,,,,,,,,,,,,,,,,,,,,,,,,,,,,,,,,,,,,,,,,,,,,,,,,,,,,,,,,,,,,,,,,,,
,,67dae998d8f2cfb8a8e3bf03,2026-03-17_16h11.24.345,kallum_motion_pilot_GIST_update_2,2026.1.1,Win32,60.24096386,67dae998d8f2cfb8a8e3bf03,69b95efdef24cd8a694e89ee,69b9609275353e1a76186204,0.0124,0.0124,0,2,2,156,1,sevenfive,,,,,,,,,,,,,,,,,,,,,,,,,,,,,,,,,,,,,,,,,,,,,,,,,,,,,,,,,,,,,,,,,,,,,,,,,,,,,,,,,,,,,,,,,,,,,,,,,,,,,,,,,,,,,,,,,,,,,,,,,,,,,,,,,,,,,,,,,
,,67dae998d8f2cfb8a8e3bf03,2026-03-17_16h11.24.345,kallum_motion_pilot_GIST_update_2,2026.1.1,Win32,60.24096386,67dae998d8f2cfb8a8e3bf03,69b95efdef24cd8a694e89ee,69b9609275353e1a76186204,0.0126,0.0126,0,3,3,111,1,eightseven,,,,,,,,,,,,,,,,,,,,,,,,,,,,,,,,,,,,,,,,,,,,,,,,,,,,,,,,,,,,,,,,,,,,,,,,,,,,,,,,,,,,,,,,,,,,,,,,,,,,,,,,,,,,,,,,,,,,,,,,,,,,,,,,,,,,,,,,,
,,67dae998d8f2cfb8a8e3bf03,2026-03-17_16h11.24.345,kallum_motion_pilot_GIST_update_2,2026.1.1,Win32,60.24096386,67dae998d8f2cfb8a8e3bf03,69b95efdef24cd8a694e89ee,69b9609275353e1a76186204,0.0126,0.0126,0,4,4,101,1,seveneight,,,,,,,,,,,,,,,,,,,,,,,,,,,,,,,,,,,,,,,,,,,,,,,,,,,,,,,,,,,,,,,,,,,,,,,,,,,,,,,,,,,,,,,,,,,,,,,,,,,,,,,,,,,,,,,,,,,,,,,,,,,,,,,,,,,,,,,,,
,,67dae998d8f2cfb8a8e3bf03,2026-03-17_16h11.24.345,kallum_motion_pilot_GIST_update_2,2026.1.1,Win32,60.24096386,67dae998d8f2cfb8a8e3bf03,69b95efdef24cd8a694e89ee,69b9609275353e1a76186204,0.0126,0.0126,0,5,5,127,1,eightseven,,,,,,,,,,,,,,,,,,,,,,,,,,,,,,,,,,,,,,,,,,,,,,,,,,,,,,,,,,,,,,,,,,,,,,,,,,,,,,,,,,,,,,,,,,,,,,,,,,,,,,,,,,,,,,,,,,,,,,,,,,,,,,,,,,,,,,,,,
,,67dae998d8f2cfb8a8e3bf03,2026-03-17_16h11.24.345,kallum_motion_pilot_GIST_update_2,2026.1.1,Win32,60.24096386,67dae998d8f2cfb8a8e3bf03,69b95efdef24cd8a694e89ee,69b9609275353e1a76186204,0.0127,0.0127,0,6,6,37,1,threefour,,,,,,,,,,,,,,,,,,,,,,,,,,,,,,,,,,,,,,,,,,,,,,,,,,,,,,,,,,,,,,,,,,,,,,,,,,,,,,,,,,,,,,,,,,,,,,,,,,,,,,,,,,,,,,,,,,,,,,,,,,,,,,,,,,,,,,,,,
,,67dae998d8f2cfb8a8e3bf03,2026-03-17_16h11.24.345,kallum_motion_pilot_GIST_update_2,2026.1.1,Win32,60.24096386,67dae998d8f2cfb8a8e3bf03,69b95efdef24cd8a694e89ee,69b9609275353e1a76186204,0.0127,0.0127,0,7,7,1,1,onethree,,,,,,,,,,,,,,,,,,,,,,,,,,,,,,,,,,,,,,,,,,,,,,,,,,,,,,,,,,,,,,,,,,,,,,,,,,,,,,,,,,,,,,,,,,,,,,,,,,,,,,,,,,,,,,,,,,,,,,,,,,,,,,,,,,,,,,,,,
,,67dae998d8f2cfb8a8e3bf03,2026-03-17_16h11.24.345,kallum_motion_pilot_GIST_update_2,2026.1.1,Win32,60.24096386,67dae998d8f2cfb8a8e3bf03,69b95efdef24cd8a694e89ee,69b9609275353e1a76186204,0.0128,0.0128,0,8,8,4,1,threeone,,,,,,,,,,,,,,,,,,,,,,,,,,,,,,,,,,,,,,,,,,,,,,,,,,,,,,,,,,,,,,,,,,,,,,,,,,,,,,,,,,,,,,,,,,,,,,,,,,,,,,,,,,,,,,,,,,,,,,,,,,,,,,,,,,,,,,,,,
,,67dae998d8f2cfb8a8e3bf03,2026-03-17_16h11.24.345,kallum_motion_pilot_GIST_update_2,2026.1.1,Win32,60.24096386,67dae998d8f2cfb8a8e3bf03,69b95efdef24cd8a694e89ee,69b9609275353e1a76186204,0.0129,0.0129,0,9,9,55,1,fourthree,,,,,,,,,,,,,,,,,,,,,,,,,,,,,,,,,,,,,,,,,,,,,,,,,,,,,,,,,,,,,,,,,,,,,,,,,,,,,,,,,,,,,,,,,,,,,,,,,,,,,,,,,,,,,,,,,,,,,,,,,,,,,,,,,,,,,,,,,
,,67dae998d8f2cfb8a8e3bf03,2026-03-17_16h11.24.345,kallum_motion_pilot_GIST_update_2,2026.1.1,Win32,60.24096386,67dae998d8f2cfb8a8e3bf03,69b95efdef24cd8a694e89ee,69b9609275353e1a76186204,0.0129,0.0129,0,10,10,74,1,twoone,,,,,,,,,,,,,,,,,,,,,,,,,,,,,,,,,,,,,,,,,,,,,,,,,,,,,,,,,,,,,,,,,,,,,,,,,,,,,,,,,,,,,,,,,,,,,,,,,,,,,,,,,,,,,,,,,,,,,,,,,,,,,,,,,,,,,,,,,
,,67dae998d8f2cfb8a8e3bf03,2026-03-17_16h11.24.345,kallum_motion_pilot_GIST_update_2,2026.1.1,Win32,60.24096386,67dae998d8f2cfb8a8e3bf03,69b95efdef24cd8a694e89ee,69b9609275353e1a76186204,0.013,0.013,0,11,11,98,1,sixfive,,,,,,,,,,,,,,,,,,,,,,,,,,,,,,,,,,,,,,,,,,,,,,,,,,,,,,,,,,,,,,,,,,,,,,,,,,,,,,,,,,,,,,,,,,,,,,,,,,,,,,,,,,,,,,,,,,,,,,,,,,,,,,,,,,,,,,,,,
,,67dae998d8f2cfb8a8e3bf03,2026-03-17_16h11.24.345,kallum_motion_pilot_GIST_update_2,2026.1.1,Win32,60.24096386,67dae998d8f2cfb8a8e3bf03,69b95efdef24cd8a694e89ee,69b9609275353e1a76186204,0.0131,0.0131,0,12,12,19,1,twofour,,,,,,,,,,,,,,,,,,,,,,,,,,,,,,,,,,,,,,,,,,,,,,,,,,,,,,,,,,,,,,,,,,,,,,,,,,,,,,,,,,,,,,,,,,,,,,,,,,,,,,,,,,,,,,,,,,,,,,,,,,,,,,,,,,,,,,,,,
,,67dae998d8f2cfb8a8e3bf03,2026-03-17_16h11.24.345,kallum_motion_pilot_GIST_update_2,2026.1.1,Win32,60.24096386,67dae998d8f2cfb8a8e3bf03,69b95efdef24cd8a694e89ee,69b9609275353e1a76186204,0.0131,0.0131,0,13,13,18,1,twoone,,,,,,,,,,,,,,,,,,,,,,,,,,,,,,,,,,,,,,,,,,,,,,,,,,,,,,,,,,,,,,,,,,,,,,,,,,,,,,,,,,,,,,,,,,,,,,,,,,,,,,,,,,,,,,,,,,,,,,,,,,,,,,,,,,,,,,,,,
,,67dae998d8f2cfb8a8e3bf03,2026-03-17_16h11.24.345,kallum_motion_pilot_GIST_update_2,2026.1.1,Win32,60.24096386,67dae998d8f2cfb8a8e3bf03,69b95efdef24cd8a694e89ee,69b9609275353e1a76186204,0.0136,0.0136,0,14,14,77,1,threefour,,,,,,,,,,,,,,,,,,,,,,,,,,,,,,,,,,,,,,,,,,,,,,,,,,,,,,,,,,,,,,,,,,,,,,,,,,,,,,,,,,,,,,,,,,,,,,,,,,,,,,,,,,,,,,,,,,,,,,,,,,,,,,,,,,,,,,,,,
,,67dae998d8f2cfb8a8e3bf03,2026-03-17_16h11.24.345,kallum_motion_pilot_GIST_update_2,2026.1.1,Win32,60.24096386,67dae998d8f2cfb8a8e3bf03,69b95efdef24cd8a694e89ee,69b9609275353e1a76186204,0.0137,0.0137,0,15,15,25,1,onethree,,,,,,,,,,,,,,,,,,,,,,,,,,,,,,,,,,,,,,,,,,,,,,,,,,,,,,,,,,,,,,,,,,,,,,,,,,,,,,,,,,,,,,,,,,,,,,,,,,,,,,,,,,,,,,,,,,,,,,,,,,,,,,,,,,,,,,,,,
,,67dae998d8f2cfb8a8e3bf03,2026-03-17_16h11.24.345,kallum_motion_pilot_GIST_update_2,2026.1.1,Win32,60.24096386,67dae998d8f2cfb8a8e3bf03,69b95efdef24cd8a694e89ee,69b9609275353e1a76186204,0.0138,0.0138,0,16,16,88,1,fivesix,,,,,,,,,,,,,,,,,,,,,,,,,,,,,,,,,,,,,,,,,,,,,,,,,,,,,,,,,,,,,,,,,,,,,,,,,,,,,,,,,,,,,,,,,,,,,,,,,,,,,,,,,,,,,,,,,,,,,,,,,,,,,,,,,,,,,,,,,
,,67dae998d8f2cfb8a8e3bf03,2026-03-17_16h11.24.345,kallum_motion_pilot_GIST_update_2,2026.1.1,Win32,60.24096386,67dae998d8f2cfb8a8e3bf03,69b95efdef24cd8a694e89ee,69b9609275353e1a76186204,0.0138,0.0139,0,17,17,78,1,fourtwo,,,,,,,,,,,,,,,,,,,,,,,,,,,,,,,,,,,,,,,,,,,,,,,,,,,,,,,,,,,,,,,,,,,,,,,,,,,,,,,,,,,,,,,,,,,,,,,,,,,,,,,,,,,,,,,,,,,,,,,,,,,,,,,,,,,,,,,,,
,,67dae998d8f2cfb8a8e3bf03,2026-03-17_16h11.24.345,kallum_motion_pilot_GIST_update_2,2026.1.1,Win32,60.24096386,67dae998d8f2cfb8a8e3bf03,69b95efdef24cd8a694e89ee,69b9609275353e1a76186204,0.0139,0.0139,0,18,18,65,1,onethree,,,,,,,,,,,,,,,,,,,,,,,,,,,,,,,,,,,,,,,,,,,,,,,,,,,,,,,,,,,,,,,,,,,,,,,,,,,,,,,,,,,,,,,,,,,,,,,,,,,,,,,,,,,,,,,,,,,,,,,,,,,,,,,,,,,,,,,,,
,,67dae998d8f2cfb8a8e3bf03,2026-03-17_16h11.24.345,kallum_motion_pilot_GIST_update_2,2026.1.1,Win32,60.24096386,67dae998d8f2cfb8a8e3bf03,69b95efdef24cd8a694e89ee,69b9609275353e1a76186204,0.0139,0.0139,0,19,19,82,1,sixfive,,,,,,,,,,,,,,,,,,,,,,,,,,,,,,,,,,,,,,,,,,,,,,,,,,,,,,,,,,,,,,,,,,,,,,,,,,,,,,,,,,,,,,,,,,,,,,,,,,,,,,,,,,,,,,,,,,,,,,,,,,,,,,,,,,,,,,,,,
,,67dae998d8f2cfb8a8e3bf03,2026-03-17_16h11.24.345,kallum_motion_pilot_GIST_update_2,2026.1.1,Win32,60.24096386,67dae998d8f2cfb8a8e3bf03,69b95efdef24cd8a694e89ee,69b9609275353e1a76186204,0.0139,0.0139,0,20,20,16,1,onetwo,,,,,,,,,,,,,,,,,,,,,,,,,,,,,,,,,,,,,,,,,,,,,,,,,,,,,,,,,,,,,,,,,,,,,,,,,,,,,,,,,,,,,,,,,,,,,,,,,,,,,,,,,,,,,,,,,,,,,,,,,,,,,,,,,,,,,,,,,
,,67dae998d8f2cfb8a8e3bf03,2026-03-17_16h11.24.345,kallum_motion_pilot_GIST_update_2,2026.1.1,Win32,60.24096386,67dae998d8f2cfb8a8e3bf03,69b95efdef24cd8a694e89ee,69b9609275353e1a76186204,0.014,0.014,0,21,21,35,1,twofour,,,,,,,,,,,,,,,,,,,,,,,,,,,,,,,,,,,,,,,,,,,,,,,,,,,,,,,,,,,,,,,,,,,,,,,,,,,,,,,,,,,,,,,,,,,,,,,,,,,,,,,,,,,,,,,,,,,,,,,,,,,,,,,,,,,,,,,,,
,,67dae998d8f2cfb8a8e3bf03,2026-03-17_16h11.24.345,kallum_motion_pilot_GIST_update_2,2026.1.1,Win32,60.24096386,67dae998d8f2cfb8a8e3bf03,69b95efdef24cd8a694e89ee,69b9609275353e1a76186204,0.0141,0.0141,0,22,22,145,1,fiveseven,,,,,,,,,,,,,,,,,,,,,,,,,,,,,,,,,,,,,,,,,,,,,,,,,,,,,,,,,,,,,,,,,,,,,,,,,,,,,,,,,,,,,,,,,,,,,,,,,,,,,,,,,,,,,,,,,,,,,,,,,,,,,,,,,,,,,,,,,
,,67dae998d8f2cfb8a8e3bf03,2026-03-17_16h11.24.345,kallum_motion_pilot_GIST_update_2,2026.1.1,Win32,60.24096386,67dae998d8f2cfb8a8e3bf03,69b95efdef24cd8a694e89ee,69b9609275353e1a76186204,0.0141,0.0141,0,23,23,67,1,twofour,,,,,,,,,,,,,,,,,,,,,,,,,,,,,,,,,,,,,,,,,,,,,,,,,,,,,,,,,,,,,,,,,,,,,,,,,,,,,,,,,,,,,,,,,,,,,,,,,,,,,,,,,,,,,,,,,,,,,,,,,,,,,,,,,,,,,,,,,
,,67dae998d8f2cfb8a8e3bf03,2026-03-17_16h11.24.345,kallum_motion_pilot_GIST_update_2,2026.1.1,Win32,60.24096386,67dae998d8f2cfb8a8e3bf03,69b95efdef24cd8a694e89ee,69b9609275353e1a76186204,0.0142,0.0142,0,24,24,113,1,fiveseven,,,,,,,,,,,,,,,,,,,,,,,,,,,,,,,,,,,,,,,,,,,,,,,,,,,,,,,,,,,,,,,,,,,,,,,,,,,,,,,,,,,,,,,,,,,,,,,,,,,,,,,,,,,,,,,,,,,,,,,,,,,,,,,,,,,,,,,,,
,,67dae998d8f2cfb8a8e3bf03,2026-03-17_16h11.24.345,kallum_motion_pilot_GIST_update_2,2026.1.1,Win32,60.24096386,67dae998d8f2cfb8a8e3bf03,69b95efdef24cd8a694e89ee,69b9609275353e1a76186204,0.0142,0.0142,0,25,25,47,1,fourthree,,,,,,,,,,,,,,,,,,,,,,,,,,,,,,,,,,,,,,,,,,,,,,,,,,,,,,,,,,,,,,,,,,,,,,,,,,,,,,,,,,,,,,,,,,,,,,,,,,,,,,,,,,,,,,,,,,,,,,,,,,,,,,,,,,,,,,,,,
,,67dae998d8f2cfb8a8e3bf03,2026-03-17_16h11.24.345,kallum_motion_pilot_GIST_update_2,2026.1.1,Win32,60.24096386,67dae998d8f2cfb8a8e3bf03,69b95efdef24cd8a694e89ee,69b9609275353e1a76186204,0.0143,0.0143,0,26,26,20,1,threeone,,,,,,,,,,,,,,,,,,,,,,,,,,,,,,,,,,,,,,,,,,,,,,,,,,,,,,,,,,,,,,,,,,,,,,,,,,,,,,,,,,,,,,,,,,,,,,,,,,,,,,,,,,,,,,,,,,,,,,,,,,,,,,,,,,,,,,,,,
,,67dae998d8f2cfb8a8e3bf03,2026-03-17_16h11.24.345,kallum_motion_pilot_GIST_update_2,2026.1.1,Win32,60.24096386,67dae998d8f2cfb8a8e3bf03,69b95efdef24cd8a694e89ee,69b9609275353e1a76186204,0.0143,0.0143,0,27,27,73,1,onethree,,,,,,,,,,,,,,,,,,,,,,,,,,,,,,,,,,,,,,,,,,,,,,,,,,,,,,,,,,,,,,,,,,,,,,,,,,,,,,,,,,,,,,,,,,,,,,,,,,,,,,,,,,,,,,,,,,,,,,,,,,,,,,,,,,,,,,,,,
,,67dae998d8f2cfb8a8e3bf03,2026-03-17_16h11.24.345,kallum_motion_pilot_GIST_update_2,2026.1.1,Win32,60.24096386,67dae998d8f2cfb8a8e3bf03,69b95efdef24cd8a694e89ee,69b9609275353e1a76186204,0.0144,0.0144,0,28,28,95,1,eightseven,,,,,,,,,,,,,,,,,,,,,,,,,,,,,,,,,,,,,,,,,,,,,,,,,,,,,,,,,,,,,,,,,,,,,,,,,,,,,,,,,,,,,,,,,,,,,,,,,,,,,,,,,,,,,,,,,,,,,,,,,,,,,,,,,,,,,,,,,
,,67dae998d8f2cfb8a8e3bf03,2026-03-17_16h11.24.345,kallum_motion_pilot_GIST_update_2,2026.1.1,Win32,60.24096386,67dae998d8f2cfb8a8e3bf03,69b95efdef24cd8a694e89ee,69b9609275353e1a76186204,0.0144,0.0144,0,29,29,116,1,sevenfive,,,,,,,,,,,,,,,,,,,,,,,,,,,,,,,,,,,,,,,,,,,,,,,,,,,,,,,,,,,,,,,,,,,,,,,,,,,,,,,,,,,,,,,,,,,,,,,,,,,,,,,,,,,,,,,,,,,,,,,,,,,,,,,,,,,,,,,,,
,,67dae998d8f2cfb8a8e3bf03,2026-03-17_16h11.24.345,kallum_motion_pilot_GIST_update_2,2026.1.1,Win32,60.24096386,67dae998d8f2cfb8a8e3bf03,69b95efdef24cd8a694e89ee,69b9609275353e1a76186204,0.0144,0.0144,0,30,30,85,1,seveneight,,,,,,,,,,,,,,,,,,,,,,,,,,,,,,,,,,,,,,,,,,,,,,,,,,,,,,,,,,,,,,,,,,,,,,,,,,,,,,,,,,,,,,,,,,,,,,,,,,,,,,,,,,,,,,,,,,,,,,,,,,,,,,,,,,,,,,,,,
,,67dae998d8f2cfb8a8e3bf03,2026-03-17_16h11.24.345,kallum_motion_pilot_GIST_update_2,2026.1.1,Win32,60.24096386,67dae998d8f2cfb8a8e3bf03,69b95efdef24cd8a694e89ee,69b9609275353e1a76186204,0.0145,0.0145,0,31,31,80,1,fivesix,,,,,,,,,,,,,,,,,,,,,,,,,,,,,,,,,,,,,,,,,,,,,,,,,,,,,,,,,,,,,,,,,,,,,,,,,,,,,,,,,,,,,,,,,,,,,,,,,,,,,,,,,,,,,,,,,,,,,,,,,,,,,,,,,,,,,,,,,
,,67dae998d8f2cfb8a8e3bf03,2026-03-17_16h11.24.345,kallum_motion_pilot_GIST_update_2,2026.1.1,Win32,60.24096386,67dae998d8f2cfb8a8e3bf03,69b95efdef24cd8a694e89ee,69b9609275353e1a76186204,0.0145,0.0145,0,32,32,153,1,fiveseven,,,,,,,,,,,,,,,,,,,,,,,,,,,,,,,,,,,,,,,,,,,,,,,,,,,,,,,,,,,,,,,,,,,,,,,,,,,,,,,,,,,,,,,,,,,,,,,,,,,,,,,,,,,,,,,,,,,,,,,,,,,,,,,,,,,,,,,,,
,,67dae998d8f2cfb8a8e3bf03,2026-03-17_16h11.24.345,kallum_motion_pilot_GIST_update_2,2026.1.1,Win32,60.24096386,67dae998d8f2cfb8a8e3bf03,69b95efdef24cd8a694e89ee,69b9609275353e1a76186204,0.0146,0.0146,0,33,33,12,1,threeone,,,,,,,,,,,,,,,,,,,,,,,,,,,,,,,,,,,,,,,,,,,,,,,,,,,,,,,,,,,,,,,,,,,,,,,,,,,,,,,,,,,,,,,,,,,,,,,,,,,,,,,,,,,,,,,,,,,,,,,,,,,,,,,,,,,,,,,,,
,,67dae998d8f2cfb8a8e3bf03,2026-03-17_16h11.24.345,kallum_motion_pilot_GIST_update_2,2026.1.1,Win32,60.24096386,67dae998d8f2cfb8a8e3bf03,69b95efdef24cd8a694e89ee,69b9609275353e1a76186204,0.0146,0.0146,0,34,34,68,1,threeone,,,,,,,,,,,,,,,,,,,,,,,,,,,,,,,,,,,,,,,,,,,,,,,,,,,,,,,,,,,,,,,,,,,,,,,,,,,,,,,,,,,,,,,,,,,,,,,,,,,,,,,,,,,,,,,,,,,,,,,,,,,,,,,,,,,,,,,,,
,,67dae998d8f2cfb8a8e3bf03,2026-03-17_16h11.24.345,kallum_motion_pilot_GIST_update_2,2026.1.1,Win32,60.24096386,67dae998d8f2cfb8a8e3bf03,69b95efdef24cd8a694e89ee,69b9609275353e1a76186204,0.0147,0.0147,0,35,35,136,1,fivesix,,,,,,,,,,,,,,,,,,,,,,,,,,,,,,,,,,,,,,,,,,,,,,,,,,,,,,,,,,,,,,,,,,,,,,,,,,,,,,,,,,,,,,,,,,,,,,,,,,,,,,,,,,,,,,,,,,,,,,,,,,,,,,,,,,,,,,,,,
,,67dae998d8f2cfb8a8e3bf03,2026-03-17_16h11.24.345,kallum_motion_pilot_GIST_update_2,2026.1.1,Win32,60.24096386,67dae998d8f2cfb8a8e3bf03,69b95efdef24cd8a694e89ee,69b9609275353e1a76186204,0.0147,0.0147,0,36,36,141,1,seveneight,,,,,,,,,,,,,,,,,,,,,,,,,,,,,,,,,,,,,,,,,,,,,,,,,,,,,,,,,,,,,,,,,,,,,,,,,,,,,,,,,,,,,,,,,,,,,,,,,,,,,,,,,,,,,,,,,,,,,,,,,,,,,,,,,,,,,,,,,
,,67dae998d8f2cfb8a8e3bf03,2026-03-17_16h11.24.345,kallum_motion_pilot_GIST_update_2,2026.1.1,Win32,60.24096386,67dae998d8f2cfb8a8e3bf03,69b95efdef24cd8a694e89ee,69b9609275353e1a76186204,0.0148,0.0148,0,37,37,72,1,onetwo,,,,,,,,,,,,,,,,,,,,,,,,,,,,,,,,,,,,,,,,,,,,,,,,,,,,,,,,,,,,,,,,,,,,,,,,,,,,,,,,,,,,,,,,,,,,,,,,,,,,,,,,,,,,,,,,,,,,,,,,,,,,,,,,,,,,,,,,,
,,67dae998d8f2cfb8a8e3bf03,2026-03-17_16h11.24.345,kallum_motion_pilot_GIST_update_2,2026.1.1,Win32,60.24096386,67dae998d8f2cfb8a8e3bf03,69b95efdef24cd8a694e89ee,69b9609275353e1a76186204,0.0148,0.0148,0,38,38,71,1,fourthree,,,,,,,,,,,,,,,,,,,,,,,,,,,,,,,,,,,,,,,,,,,,,,,,,,,,,,,,,,,,,,,,,,,,,,,,,,,,,,,,,,,,,,,,,,,,,,,,,,,,,,,,,,,,,,,,,,,,,,,,,,,,,,,,,,,,,,,,,
,,67dae998d8f2cfb8a8e3bf03,2026-03-17_16h11.24.345,kallum_motion_pilot_GIST_update_2,2026.1.1,Win32,60.24096386,67dae998d8f2cfb8a8e3bf03,69b95efdef24cd8a694e89ee,69b9609275353e1a76186204,0.0149,0.0149,0,39,39,59,1,twofour,,,,,,,,,,,,,,,,,,,,,,,,,,,,,,,,,,,,,,,,,,,,,,,,,,,,,,,,,,,,,,,,,,,,,,,,,,,,,,,,,,,,,,,,,,,,,,,,,,,,,,,,,,,,,,,,,,,,,,,,,,,,,,,,,,,,,,,,,
,,67dae998d8f2cfb8a8e3bf03,2026-03-17_16h11.24.345,kallum_motion_pilot_GIST_update_2,2026.1.1,Win32,60.24096386,67dae998d8f2cfb8a8e3bf03,69b95efdef24cd8a694e89ee,69b9609275353e1a76186204,0.0149,0.0149,0,40,40,148,1,sevenfive,,,,,,,,,,,,,,,,,,,,,,,,,,,,,,,,,,,,,,,,,,,,,,,,,,,,,,,,,,,,,,,,,,,,,,,,,,,,,,,,,,,,,,,,,,,,,,,,,,,,,,,,,,,,,,,,,,,,,,,,,,,,,,,,,,,,,,,,,
,,67dae998d8f2cfb8a8e3bf03,2026-03-17_16h11.24.345,kallum_motion_pilot_GIST_update_2,2026.1.1,Win32,60.24096386,67dae998d8f2cfb8a8e3bf03,69b95efdef24cd8a694e89ee,69b9609275353e1a76186204,0.015,0.015,0,41,41,132,1,sevenfive,,,,,,,,,,,,,,,,,,,,,,,,,,,,,,,,,,,,,,,,,,,,,,,,,,,,,,,,,,,,,,,,,,,,,,,,,,,,,,,,,,,,,,,,,,,,,,,,,,,,,,,,,,,,,,,,,,,,,,,,,,,,,,,,,,,,,,,,,
,,67dae998d8f2cfb8a8e3bf03,2026-03-17_16h11.24.345,kallum_motion_pilot_GIST_update_2,2026.1.1,Win32,60.24096386,67dae998d8f2cfb8a8e3bf03,69b95efdef24cd8a694e89ee,69b9609275353e1a76186204,0.015,0.015,0,42,42,114,1,sixfive,,,,,,,,,,,,,,,,,,,,,,,,,,,,,,,,,,,,,,,,,,,,,,,,,,,,,,,,,,,,,,,,,,,,,,,,,,,,,,,,,,,,,,,,,,,,,,,,,,,,,,,,,,,,,,,,,,,,,,,,,,,,,,,,,,,,,,,,,
,,67dae998d8f2cfb8a8e3bf03,2026-03-17_16h11.24.345,kallum_motion_pilot_GIST_update_2,2026.1.1,Win32,60.24096386,67dae998d8f2cfb8a8e3bf03,69b95efdef24cd8a694e89ee,69b9609275353e1a76186204,0.015,0.015,0,43,43,0,1,onetwo,,,,,,,,,,,,,,,,,,,,,,,,,,,,,,,,,,,,,,,,,,,,,,,,,,,,,,,,,,,,,,,,,,,,,,,,,,,,,,,,,,,,,,,,,,,,,,,,,,,,,,,,,,,,,,,,,,,,,,,,,,,,,,,,,,,,,,,,,
,,67dae998d8f2cfb8a8e3bf03,2026-03-17_16h11.24.345,kallum_motion_pilot_GIST_update_2,2026.1.1,Win32,60.24096386,67dae998d8f2cfb8a8e3bf03,69b95efdef24cd8a694e89ee,69b9609275353e1a76186204,0.0151,0.0151,0,44,44,157,1,seveneight,,,,,,,,,,,,,,,,,,,,,,,,,,,,,,,,,,,,,,,,,,,,,,,,,,,,,,,,,,,,,,,,,,,,,,,,,,,,,,,,,,,,,,,,,,,,,,,,,,,,,,,,,,,,,,,,,,,,,,,,,,,,,,,,,,,,,,,,,
,,67dae998d8f2cfb8a8e3bf03,2026-03-17_16h11.24.345,kallum_motion_pilot_GIST_update_2,2026.1.1,Win32,60.24096386,67dae998d8f2cfb8a8e3bf03,69b95efdef24cd8a694e89ee,69b9609275353e1a76186204,0.0151,0.0151,0,45,45,5,1,threefour,,,,,,,,,,,,,,,,,,,,,,,,,,,,,,,,,,,,,,,,,,,,,,,,,,,,,,,,,,,,,,,,,,,,,,,,,,,,,,,,,,,,,,,,,,,,,,,,,,,,,,,,,,,,,,,,,,,,,,,,,,,,,,,,,,,,,,,,,
,,67dae998d8f2cfb8a8e3bf03,2026-03-17_16h11.24.345,kallum_motion_pilot_GIST_update_2,2026.1.1,Win32,60.24096386,67dae998d8f2cfb8a8e3bf03,69b95efdef24cd8a694e89ee,69b9609275353e1a76186204,0.0152,0.0152,0,46,46,106,1,sixfive,,,,,,,,,,,,,,,,,,,,,,,,,,,,,,,,,,,,,,,,,,,,,,,,,,,,,,,,,,,,,,,,,,,,,,,,,,,,,,,,,,,,,,,,,,,,,,,,,,,,,,,,,,,,,,,,,,,,,,,,,,,,,,,,,,,,,,,,,
,,67dae998d8f2cfb8a8e3bf03,2026-03-17_16h11.24.345,kallum_motion_pilot_GIST_update_2,2026.1.1,Win32,60.24096386,67dae998d8f2cfb8a8e3bf03,69b95efdef24cd8a694e89ee,69b9609275353e1a76186204,0.0152,0.0152,0,47,47,50,1,twoone,,,,,,,,,,,,,,,,,,,,,,,,,,,,,,,,,,,,,,,,,,,,,,,,,,,,,,,,,,,,,,,,,,,,,,,,,,,,,,,,,,,,,,,,,,,,,,,,,,,,,,,,,,,,,,,,,,,,,,,,,,,,,,,,,,,,,,,,,
,,67dae998d8f2cfb8a8e3bf03,2026-03-17_16h11.24.345,kallum_motion_pilot_GIST_update_2,2026.1.1,Win32,60.24096386,67dae998d8f2cfb8a8e3bf03,69b95efdef24cd8a694e89ee,69b9609275353e1a76186204,0.0154,0.0154,0,48,48,45,1,threefour,,,,,,,,,,,,,,,,,,,,,,,,,,,,,,,,,,,,,,,,,,,,,,,,,,,,,,,,,,,,,,,,,,,,,,,,,,,,,,,,,,,,,,,,,,,,,,,,,,,,,,,,,,,,,,,,,,,,,,,,,,,,,,,,,,,,,,,,,
,,67dae998d8f2cfb8a8e3bf03,2026-03-17_16h11.24.345,kallum_motion_pilot_GIST_update_2,2026.1.1,Win32,60.24096386,67dae998d8f2cfb8a8e3bf03,69b95efdef24cd8a694e89ee,69b9609275353e1a76186204,0.0154,0.0154,0,49,49,86,1,eightsix,,,,,,,,,,,,,,,,,,,,,,,,,,,,,,,,,,,,,,,,,,,,,,,,,,,,,,,,,,,,,,,,,,,,,,,,,,,,,,,,,,,,,,,,,,,,,,,,,,,,,,,,,,,,,,,,,,,,,,,,,,,,,,,,,,,,,,,,,
,,67dae998d8f2cfb8a8e3bf03,2026-03-17_16h11.24.345,kallum_motion_pilot_GIST_update_2,2026.1.1,Win32,60.24096386,67dae998d8f2cfb8a8e3bf03,69b95efdef24cd8a694e89ee,69b9609275353e1a76186204,0.0154,0.0154,0,50,50,15,1,fourthree,,,,,,,,,,,,,,,,,,,,,,,,,,,,,,,,,,,,,,,,,,,,,,,,,,,,,,,,,,,,,,,,,,,,,,,,,,,,,,,,,,,,,,,,,,,,,,,,,,,,,,,,,,,,,,,,,,,,,,,,,,,,,,,,,,,,,,,,,
,,67dae998d8f2cfb8a8e3bf03,2026-03-17_16h11.24.345,kallum_motion_pilot_GIST_update_2,2026.1.1,Win32,60.24096386,67dae998d8f2cfb8a8e3bf03,69b95efdef24cd8a694e89ee,69b9609275353e1a76186204,0.0155,0.0155,0,51,51,31,1,fourthree,,,,,,,,,,,,,,,,,,,,,,,,,,,,,,,,,,,,,,,,,,,,,,,,,,,,,,,,,,,,,,,,,,,,,,,,,,,,,,,,,,,,,,,,,,,,,,,,,,,,,,,,,,,,,,,,,,,,,,,,,,,,,,,,,,,,,,,,,
,,67dae998d8f2cfb8a8e3bf03,2026-03-17_16h11.24.345,kallum_motion_pilot_GIST_update_2,2026.1.1,Win32,60.24096386,67dae998d8f2cfb8a8e3bf03,69b95efdef24cd8a694e89ee,69b9609275353e1a76186204,0.0155,0.0155,0,52,52,53,1,threefour,,,,,,,,,,,,,,,,,,,,,,,,,,,,,,,,,,,,,,,,,,,,,,,,,,,,,,,,,,,,,,,,,,,,,,,,,,,,,,,,,,,,,,,,,,,,,,,,,,,,,,,,,,,,,,,,,,,,,,,,,,,,,,,,,,,,,,,,,
,,67dae998d8f2cfb8a8e3bf03,2026-03-17_16h11.24.345,kallum_motion_pilot_GIST_update_2,2026.1.1,Win32,60.24096386,67dae998d8f2cfb8a8e3bf03,69b95efdef24cd8a694e89ee,69b9609275353e1a76186204,0.0155,0.0155,0,53,53,120,1,fivesix,,,,,,,,,,,,,,,,,,,,,,,,,,,,,,,,,,,,,,,,,,,,,,,,,,,,,,,,,,,,,,,,,,,,,,,,,,,,,,,,,,,,,,,,,,,,,,,,,,,,,,,,,,,,,,,,,,,,,,,,,,,,,,,,,,,,,,,,,
,,67dae998d8f2cfb8a8e3bf03,2026-03-17_16h11.24.345,kallum_motion_pilot_GIST_update_2,2026.1.1,Win32,60.24096386,67dae998d8f2cfb8a8e3bf03,69b95efdef24cd8a694e89ee,69b9609275353e1a76186204,0.0156,0.0156,0,54,54,54,1,fourtwo,,,,,,,,,,,,,,,,,,,,,,,,,,,,,,,,,,,,,,,,,,,,,,,,,,,,,,,,,,,,,,,,,,,,,,,,,,,,,,,,,,,,,,,,,,,,,,,,,,,,,,,,,,,,,,,,,,,,,,,,,,,,,,,,,,,,,,,,,
,,67dae998d8f2cfb8a8e3bf03,2026-03-17_16h11.24.345,kallum_motion_pilot_GIST_update_2,2026.1.1,Win32,60.24096386,67dae998d8f2cfb8a8e3bf03,69b95efdef24cd8a694e89ee,69b9609275353e1a76186204,0.0156,0.0156,0,55,55,93,1,seveneight,,,,,,,,,,,,,,,,,,,,,,,,,,,,,,,,,,,,,,,,,,,,,,,,,,,,,,,,,,,,,,,,,,,,,,,,,,,,,,,,,,,,,,,,,,,,,,,,,,,,,,,,,,,,,,,,,,,,,,,,,,,,,,,,,,,,,,,,,
,,67dae998d8f2cfb8a8e3bf03,2026-03-17_16h11.24.345,kallum_motion_pilot_GIST_update_2,2026.1.1,Win32,60.24096386,67dae998d8f2cfb8a8e3bf03,69b95efdef24cd8a694e89ee,69b9609275353e1a76186204,0.0157,0.0157,0,56,56,64,1,onetwo,,,,,,,,,,,,,,,,,,,,,,,,,,,,,,,,,,,,,,,,,,,,,,,,,,,,,,,,,,,,,,,,,,,,,,,,,,,,,,,,,,,,,,,,,,,,,,,,,,,,,,,,,,,,,,,,,,,,,,,,,,,,,,,,,,,,,,,,,
,,67dae998d8f2cfb8a8e3bf03,2026-03-17_16h11.24.345,kallum_motion_pilot_GIST_update_2,2026.1.1,Win32,60.24096386,67dae998d8f2cfb8a8e3bf03,69b95efdef24cd8a694e89ee,69b9609275353e1a76186204,0.0157,0.0158,0,57,57,46,1,fourtwo,,,,,,,,,,,,,,,,,,,,,,,,,,,,,,,,,,,,,,,,,,,,,,,,,,,,,,,,,,,,,,,,,,,,,,,,,,,,,,,,,,,,,,,,,,,,,,,,,,,,,,,,,,,,,,,,,,,,,,,,,,,,,,,,,,,,,,,,,
,,67dae998d8f2cfb8a8e3bf03,2026-03-17_16h11.24.345,kallum_motion_pilot_GIST_update_2,2026.1.1,Win32,60.24096386,67dae998d8f2cfb8a8e3bf03,69b95efdef24cd8a694e89ee,69b9609275353e1a76186204,0.0158,0.0158,0,58,58,2,1,twoone,,,,,,,,,,,,,,,,,,,,,,,,,,,,,,,,,,,,,,,,,,,,,,,,,,,,,,,,,,,,,,,,,,,,,,,,,,,,,,,,,,,,,,,,,,,,,,,,,,,,,,,,,,,,,,,,,,,,,,,,,,,,,,,,,,,,,,,,,
,,67dae998d8f2cfb8a8e3bf03,2026-03-17_16h11.24.345,kallum_motion_pilot_GIST_update_2,2026.1.1,Win32,60.24096386,67dae998d8f2cfb8a8e3bf03,69b95efdef24cd8a694e89ee,69b9609275353e1a76186204,0.0158,0.0158,0,59,59,137,1,fiveseven,,,,,,,,,,,,,,,,,,,,,,,,,,,,,,,,,,,,,,,,,,,,,,,,,,,,,,,,,,,,,,,,,,,,,,,,,,,,,,,,,,,,,,,,,,,,,,,,,,,,,,,,,,,,,,,,,,,,,,,,,,,,,,,,,,,,,,,,,
,,67dae998d8f2cfb8a8e3bf03,2026-03-17_16h11.24.345,kallum_motion_pilot_GIST_update_2,2026.1.1,Win32,60.24096386,67dae998d8f2cfb8a8e3bf03,69b95efdef24cd8a694e89ee,69b9609275353e1a76186204,0.0159,0.0159,0,60,60,143,1,eightseven,,,,,,,,,,,,,,,,,,,,,,,,,,,,,,,,,,,,,,,,,,,,,,,,,,,,,,,,,,,,,,,,,,,,,,,,,,,,,,,,,,,,,,,,,,,,,,,,,,,,,,,,,,,,,,,,,,,,,,,,,,,,,,,,,,,,,,,,,
,,67dae998d8f2cfb8a8e3bf03,2026-03-17_16h11.24.345,kallum_motion_pilot_GIST_update_2,2026.1.1,Win32,60.24096386,67dae998d8f2cfb8a8e3bf03,69b95efdef24cd8a694e89ee,69b9609275353e1a76186204,0.0159,0.0159,0,61,61,36,1,threeone,,,,,,,,,,,,,,,,,,,,,,,,,,,,,,,,,,,,,,,,,,,,,,,,,,,,,,,,,,,,,,,,,,,,,,,,,,,,,,,,,,,,,,,,,,,,,,,,,,,,,,,,,,,,,,,,,,,,,,,,,,,,,,,,,,,,,,,,,
,,67dae998d8f2cfb8a8e3bf03,2026-03-17_16h11.24.345,kallum_motion_pilot_GIST_update_2,2026.1.1,Win32,60.24096386,67dae998d8f2cfb8a8e3bf03,69b95efdef24cd8a694e89ee,69b9609275353e1a76186204,0.016,0.016,0,62,62,149,1,seveneight,,,,,,,,,,,,,,,,,,,,,,,,,,,,,,,,,,,,,,,,,,,,,,,,,,,,,,,,,,,,,,,,,,,,,,,,,,,,,,,,,,,,,,,,,,,,,,,,,,,,,,,,,,,,,,,,,,,,,,,,,,,,,,,,,,,,,,,,,
,,67dae998d8f2cfb8a8e3bf03,2026-03-17_16h11.24.345,kallum_motion_pilot_GIST_update_2,2026.1.1,Win32,60.24096386,67dae998d8f2cfb8a8e3bf03,69b95efdef24cd8a694e89ee,69b9609275353e1a76186204,0.0161,0.0161,0,63,63,100,1,sevenfive,,,,,,,,,,,,,,,,,,,,,,,,,,,,,,,,,,,,,,,,,,,,,,,,,,,,,,,,,,,,,,,,,,,,,,,,,,,,,,,,,,,,,,,,,,,,,,,,,,,,,,,,,,,,,,,,,,,,,,,,,,,,,,,,,,,,,,,,,
,,67dae998d8f2cfb8a8e3bf03,2026-03-17_16h11.24.345,kallum_motion_pilot_GIST_update_2,2026.1.1,Win32,60.24096386,67dae998d8f2cfb8a8e3bf03,69b95efdef24cd8a694e89ee,69b9609275353e1a76186204,0.0161,0.0161,0,64,64,21,1,threefour,,,,,,,,,,,,,,,,,,,,,,,,,,,,,,,,,,,,,,,,,,,,,,,,,,,,,,,,,,,,,,,,,,,,,,,,,,,,,,,,,,,,,,,,,,,,,,,,,,,,,,,,,,,,,,,,,,,,,,,,,,,,,,,,,,,,,,,,,
,,67dae998d8f2cfb8a8e3bf03,2026-03-17_16h11.24.345,kallum_motion_pilot_GIST_update_2,2026.1.1,Win32,60.24096386,67dae998d8f2cfb8a8e3bf03,69b95efdef24cd8a694e89ee,69b9609275353e1a76186204,0.0162,0.0162,0,65,65,41,1,onethree,,,,,,,,,,,,,,,,,,,,,,,,,,,,,,,,,,,,,,,,,,,,,,,,,,,,,,,,,,,,,,,,,,,,,,,,,,,,,,,,,,,,,,,,,,,,,,,,,,,,,,,,,,,,,,,,,,,,,,,,,,,,,,,,,,,,,,,,,
,,67dae998d8f2cfb8a8e3bf03,2026-03-17_16h11.24.345,kallum_motion_pilot_GIST_update_2,2026.1.1,Win32,60.24096386,67dae998d8f2cfb8a8e3bf03,69b95efdef24cd8a694e89ee,69b9609275353e1a76186204,0.0162,0.0162,0,66,66,89,1,fiveseven,,,,,,,,,,,,,,,,,,,,,,,,,,,,,,,,,,,,,,,,,,,,,,,,,,,,,,,,,,,,,,,,,,,,,,,,,,,,,,,,,,,,,,,,,,,,,,,,,,,,,,,,,,,,,,,,,,,,,,,,,,,,,,,,,,,,,,,,,
,,67dae998d8f2cfb8a8e3bf03,2026-03-17_16h11.24.345,kallum_motion_pilot_GIST_update_2,2026.1.1,Win32,60.24096386,67dae998d8f2cfb8a8e3bf03,69b95efdef24cd8a694e89ee,69b9609275353e1a76186204,0.0163,0.0163,0,67,67,8,1,onetwo,,,,,,,,,,,,,,,,,,,,,,,,,,,,,,,,,,,,,,,,,,,,,,,,,,,,,,,,,,,,,,,,,,,,,,,,,,,,,,,,,,,,,,,,,,,,,,,,,,,,,,,,,,,,,,,,,,,,,,,,,,,,,,,,,,,,,,,,,
,,67dae998d8f2cfb8a8e3bf03,2026-03-17_16h11.24.345,kallum_motion_pilot_GIST_update_2,2026.1.1,Win32,60.24096386,67dae998d8f2cfb8a8e3bf03,69b95efdef24cd8a694e89ee,69b9609275353e1a76186204,0.0163,0.0163,0,68,68,81,1,fiveseven,,,,,,,,,,,,,,,,,,,,,,,,,,,,,,,,,,,,,,,,,,,,,,,,,,,,,,,,,,,,,,,,,,,,,,,,,,,,,,,,,,,,,,,,,,,,,,,,,,,,,,,,,,,,,,,,,,,,,,,,,,,,,,,,,,,,,,,,,
,,67dae998d8f2cfb8a8e3bf03,2026-03-17_16h11.24.345,kallum_motion_pilot_GIST_update_2,2026.1.1,Win32,60.24096386,67dae998d8f2cfb8a8e3bf03,69b95efdef24cd8a694e89ee,69b9609275353e1a76186204,0.0164,0.0164,0,69,69,152,1,fivesix,,,,,,,,,,,,,,,,,,,,,,,,,,,,,,,,,,,,,,,,,,,,,,,,,,,,,,,,,,,,,,,,,,,,,,,,,,,,,,,,,,,,,,,,,,,,,,,,,,,,,,,,,,,,,,,,,,,,,,,,,,,,,,,,,,,,,,,,,
,,67dae998d8f2cfb8a8e3bf03,2026-03-17_16h11.24.345,kallum_motion_pilot_GIST_update_2,2026.1.1,Win32,60.24096386,67dae998d8f2cfb8a8e3bf03,69b95efdef24cd8a694e89ee,69b9609275353e1a76186204,0.0165,0.0165,0,70,70,125,1,seveneight,,,,,,,,,,,,,,,,,,,,,,,,,,,,,,,,,,,,,,,,,,,,,,,,,,,,,,,,,,,,,,,,,,,,,,,,,,,,,,,,,,,,,,,,,,,,,,,,,,,,,,,,,,,,,,,,,,,,,,,,,,,,,,,,,,,,,,,,,
,,67dae998d8f2cfb8a8e3bf03,2026-03-17_16h11.24.345,kallum_motion_pilot_GIST_update_2,2026.1.1,Win32,60.24096386,67dae998d8f2cfb8a8e3bf03,69b95efdef24cd8a694e89ee,69b9609275353e1a76186204,0.0165,0.0165,0,71,71,90,1,sixfive,,,,,,,,,,,,,,,,,,,,,,,,,,,,,,,,,,,,,,,,,,,,,,,,,,,,,,,,,,,,,,,,,,,,,,,,,,,,,,,,,,,,,,,,,,,,,,,,,,,,,,,,,,,,,,,,,,,,,,,,,,,,,,,,,,,,,,,,,
,,67dae998d8f2cfb8a8e3bf03,2026-03-17_16h11.24.345,kallum_motion_pilot_GIST_update_2,2026.1.1,Win32,60.24096386,67dae998d8f2cfb8a8e3bf03,69b95efdef24cd8a694e89ee,69b9609275353e1a76186204,0.0165,0.0165,0,72,72,117,1,seveneight,,,,,,,,,,,,,,,,,,,,,,,,,,,,,,,,,,,,,,,,,,,,,,,,,,,,,,,,,,,,,,,,,,,,,,,,,,,,,,,,,,,,,,,,,,,,,,,,,,,,,,,,,,,,,,,,,,,,,,,,,,,,,,,,,,,,,,,,,
,,67dae998d8f2cfb8a8e3bf03,2026-03-17_16h11.24.345,kallum_motion_pilot_GIST_update_2,2026.1.1,Win32,60.24096386,67dae998d8f2cfb8a8e3bf03,69b95efdef24cd8a694e89ee,69b9609275353e1a76186204,0.0166,0.0166,0,73,73,123,1,sixeight,,,,,,,,,,,,,,,,,,,,,,,,,,,,,,,,,,,,,,,,,,,,,,,,,,,,,,,,,,,,,,,,,,,,,,,,,,,,,,,,,,,,,,,,,,,,,,,,,,,,,,,,,,,,,,,,,,,,,,,,,,,,,,,,,,,,,,,,,
,,67dae998d8f2cfb8a8e3bf03,2026-03-17_16h11.24.345,kallum_motion_pilot_GIST_update_2,2026.1.1,Win32,60.24096386,67dae998d8f2cfb8a8e3bf03,69b95efdef24cd8a694e89ee,69b9609275353e1a76186204,0.0166,0.0167,0,74,74,42,1,twoone,,,,,,,,,,,,,,,,,,,,,,,,,,,,,,,,,,,,,,,,,,,,,,,,,,,,,,,,,,,,,,,,,,,,,,,,,,,,,,,,,,,,,,,,,,,,,,,,,,,,,,,,,,,,,,,,,,,,,,,,,,,,,,,,,,,,,,,,,
,,67dae998d8f2cfb8a8e3bf03,2026-03-17_16h11.24.345,kallum_motion_pilot_GIST_update_2,2026.1.1,Win32,60.24096386,67dae998d8f2cfb8a8e3bf03,69b95efdef24cd8a694e89ee,69b9609275353e1a76186204,0.0167,0.0167,0,75,75,26,1,twoone,,,,,,,,,,,,,,,,,,,,,,,,,,,,,,,,,,,,,,,,,,,,,,,,,,,,,,,,,,,,,,,,,,,,,,,,,,,,,,,,,,,,,,,,,,,,,,,,,,,,,,,,,,,,,,,,,,,,,,,,,,,,,,,,,,,,,,,,,
,,67dae998d8f2cfb8a8e3bf03,2026-03-17_16h11.24.345,kallum_motion_pilot_GIST_update_2,2026.1.1,Win32,60.24096386,67dae998d8f2cfb8a8e3bf03,69b95efdef24cd8a694e89ee,69b9609275353e1a76186204,0.0168,0.0168,0,76,76,147,1,sixeight,,,,,,,,,,,,,,,,,,,,,,,,,,,,,,,,,,,,,,,,,,,,,,,,,,,,,,,,,,,,,,,,,,,,,,,,,,,,,,,,,,,,,,,,,,,,,,,,,,,,,,,,,,,,,,,,,,,,,,,,,,,,,,,,,,,,,,,,,
,,67dae998d8f2cfb8a8e3bf03,2026-03-17_16h11.24.345,kallum_motion_pilot_GIST_update_2,2026.1.1,Win32,60.24096386,67dae998d8f2cfb8a8e3bf03,69b95efdef24cd8a694e89ee,69b9609275353e1a76186204,0.0168,0.0168,0,77,77,69,1,threefour,,,,,,,,,,,,,,,,,,,,,,,,,,,,,,,,,,,,,,,,,,,,,,,,,,,,,,,,,,,,,,,,,,,,,,,,,,,,,,,,,,,,,,,,,,,,,,,,,,,,,,,,,,,,,,,,,,,,,,,,,,,,,,,,,,,,,,,,,
,,67dae998d8f2cfb8a8e3bf03,2026-03-17_16h11.24.345,kallum_motion_pilot_GIST_update_2,2026.1.1,Win32,60.24096386,67dae998d8f2cfb8a8e3bf03,69b95efdef24cd8a694e89ee,69b9609275353e1a76186204,0.0168,0.0168,0,78,78,84,1,sevenfive,,,,,,,,,,,,,,,,,,,,,,,,,,,,,,,,,,,,,,,,,,,,,,,,,,,,,,,,,,,,,,,,,,,,,,,,,,,,,,,,,,,,,,,,,,,,,,,,,,,,,,,,,,,,,,,,,,,,,,,,,,,,,,,,,,,,,,,,,
,,67dae998d8f2cfb8a8e3bf03,2026-03-17_16h11.24.345,kallum_motion_pilot_GIST_update_2,2026.1.1,Win32,60.24096386,67dae998d8f2cfb8a8e3bf03,69b95efdef24cd8a694e89ee,69b9609275353e1a76186204,0.0169,0.0169,0,79,79,29,1,threefour,,,,,,,,,,,,,,,,,,,,,,,,,,,,,,,,,,,,,,,,,,,,,,,,,,,,,,,,,,,,,,,,,,,,,,,,,,,,,,,,,,,,,,,,,,,,,,,,,,,,,,,,,,,,,,,,,,,,,,,,,,,,,,,,,,,,,,,,,
,,67dae998d8f2cfb8a8e3bf03,2026-03-17_16h11.24.345,kallum_motion_pilot_GIST_update_2,2026.1.1,Win32,60.24096386,67dae998d8f2cfb8a8e3bf03,69b95efdef24cd8a694e89ee,69b9609275353e1a76186204,0.0169,0.0169,0,80,80,159,1,eightseven,,,,,,,,,,,,,,,,,,,,,,,,,,,,,,,,,,,,,,,,,,,,,,,,,,,,,,,,,,,,,,,,,,,,,,,,,,,,,,,,,,,,,,,,,,,,,,,,,,,,,,,,,,,,,,,,,,,,,,,,,,,,,,,,,,,,,,,,,
,,67dae998d8f2cfb8a8e3bf03,2026-03-17_16h11.24.345,kallum_motion_pilot_GIST_update_2,2026.1.1,Win32,60.24096386,67dae998d8f2cfb8a8e3bf03,69b95efdef24cd8a694e89ee,69b9609275353e1a76186204,0.017,0.017,0,81,81,121,1,fiveseven,,,,,,,,,,,,,,,,,,,,,,,,,,,,,,,,,,,,,,,,,,,,,,,,,,,,,,,,,,,,,,,,,,,,,,,,,,,,,,,,,,,,,,,,,,,,,,,,,,,,,,,,,,,,,,,,,,,,,,,,,,,,,,,,,,,,,,,,,
,,67dae998d8f2cfb8a8e3bf03,2026-03-17_16h11.24.345,kallum_motion_pilot_GIST_update_2,2026.1.1,Win32,60.24096386,67dae998d8f2cfb8a8e3bf03,69b95efdef24cd8a694e89ee,69b9609275353e1a76186204,0.0171,0.0171,0,82,82,112,1,fivesix,,,,,,,,,,,,,,,,,,,,,,,,,,,,,,,,,,,,,,,,,,,,,,,,,,,,,,,,,,,,,,,,,,,,,,,,,,,,,,,,,,,,,,,,,,,,,,,,,,,,,,,,,,,,,,,,,,,,,,,,,,,,,,,,,,,,,,,,,
,,67dae998d8f2cfb8a8e3bf03,2026-03-17_16h11.24.345,kallum_motion_pilot_GIST_update_2,2026.1.1,Win32,60.24096386,67dae998d8f2cfb8a8e3bf03,69b95efdef24cd8a694e89ee,69b9609275353e1a76186204,0.0171,0.0171,0,83,83,128,1,fivesix,,,,,,,,,,,,,,,,,,,,,,,,,,,,,,,,,,,,,,,,,,,,,,,,,,,,,,,,,,,,,,,,,,,,,,,,,,,,,,,,,,,,,,,,,,,,,,,,,,,,,,,,,,,,,,,,,,,,,,,,,,,,,,,,,,,,,,,,,
,,67dae998d8f2cfb8a8e3bf03,2026-03-17_16h11.24.345,kallum_motion_pilot_GIST_update_2,2026.1.1,Win32,60.24096386,67dae998d8f2cfb8a8e3bf03,69b95efdef24cd8a694e89ee,69b9609275353e1a76186204,0.0171,0.0171,0,84,84,108,1,sevenfive,,,,,,,,,,,,,,,,,,,,,,,,,,,,,,,,,,,,,,,,,,,,,,,,,,,,,,,,,,,,,,,,,,,,,,,,,,,,,,,,,,,,,,,,,,,,,,,,,,,,,,,,,,,,,,,,,,,,,,,,,,,,,,,,,,,,,,,,,
,,67dae998d8f2cfb8a8e3bf03,2026-03-17_16h11.24.345,kallum_motion_pilot_GIST_update_2,2026.1.1,Win32,60.24096386,67dae998d8f2cfb8a8e3bf03,69b95efdef24cd8a694e89ee,69b9609275353e1a76186204,0.0172,0.0172,0,85,85,22,1,fourtwo,,,,,,,,,,,,,,,,,,,,,,,,,,,,,,,,,,,,,,,,,,,,,,,,,,,,,,,,,,,,,,,,,,,,,,,,,,,,,,,,,,,,,,,,,,,,,,,,,,,,,,,,,,,,,,,,,,,,,,,,,,,,,,,,,,,,,,,,,
,,67dae998d8f2cfb8a8e3bf03,2026-03-17_16h11.24.345,kallum_motion_pilot_GIST_update_2,2026.1.1,Win32,60.24096386,67dae998d8f2cfb8a8e3bf03,69b95efdef24cd8a694e89ee,69b9609275353e1a76186204,0.0173,0.0173,0,86,86,30,1,fourtwo,,,,,,,,,,,,,,,,,,,,,,,,,,,,,,,,,,,,,,,,,,,,,,,,,,,,,,,,,,,,,,,,,,,,,,,,,,,,,,,,,,,,,,,,,,,,,,,,,,,,,,,,,,,,,,,,,,,,,,,,,,,,,,,,,,,,,,,,,
,,67dae998d8f2cfb8a8e3bf03,2026-03-17_16h11.24.345,kallum_motion_pilot_GIST_update_2,2026.1.1,Win32,60.24096386,67dae998d8f2cfb8a8e3bf03,69b95efdef24cd8a694e89ee,69b9609275353e1a76186204,0.0173,0.0173,0,87,87,70,1,fourtwo,,,,,,,,,,,,,,,,,,,,,,,,,,,,,,,,,,,,,,,,,,,,,,,,,,,,,,,,,,,,,,,,,,,,,,,,,,,,,,,,,,,,,,,,,,,,,,,,,,,,,,,,,,,,,,,,,,,,,,,,,,,,,,,,,,,,,,,,,
,,67dae998d8f2cfb8a8e3bf03,2026-03-17_16h11.24.345,kallum_motion_pilot_GIST_update_2,2026.1.1,Win32,60.24096386,67dae998d8f2cfb8a8e3bf03,69b95efdef24cd8a694e89ee,69b9609275353e1a76186204,0.0173,0.0173,0,88,88,99,1,sixeight,,,,,,,,,,,,,,,,,,,,,,,,,,,,,,,,,,,,,,,,,,,,,,,,,,,,,,,,,,,,,,,,,,,,,,,,,,,,,,,,,,,,,,,,,,,,,,,,,,,,,,,,,,,,,,,,,,,,,,,,,,,,,,,,,,,,,,,,,
,,67dae998d8f2cfb8a8e3bf03,2026-03-17_16h11.24.345,kallum_motion_pilot_GIST_update_2,2026.1.1,Win32,60.24096386,67dae998d8f2cfb8a8e3bf03,69b95efdef24cd8a694e89ee,69b9609275353e1a76186204,0.0175,0.0175,0,89,89,28,1,threeone,,,,,,,,,,,,,,,,,,,,,,,,,,,,,,,,,,,,,,,,,,,,,,,,,,,,,,,,,,,,,,,,,,,,,,,,,,,,,,,,,,,,,,,,,,,,,,,,,,,,,,,,,,,,,,,,,,,,,,,,,,,,,,,,,,,,,,,,,
,,67dae998d8f2cfb8a8e3bf03,2026-03-17_16h11.24.345,kallum_motion_pilot_GIST_update_2,2026.1.1,Win32,60.24096386,67dae998d8f2cfb8a8e3bf03,69b95efdef24cd8a694e89ee,69b9609275353e1a76186204,0.0175,0.0175,0,90,90,32,1,onetwo,,,,,,,,,,,,,,,,,,,,,,,,,,,,,,,,,,,,,,,,,,,,,,,,,,,,,,,,,,,,,,,,,,,,,,,,,,,,,,,,,,,,,,,,,,,,,,,,,,,,,,,,,,,,,,,,,,,,,,,,,,,,,,,,,,,,,,,,,
,,67dae998d8f2cfb8a8e3bf03,2026-03-17_16h11.24.345,kallum_motion_pilot_GIST_update_2,2026.1.1,Win32,60.24096386,67dae998d8f2cfb8a8e3bf03,69b95efdef24cd8a694e89ee,69b9609275353e1a76186204,0.0175,0.0175,0,91,91,151,1,eightseven,,,,,,,,,,,,,,,,,,,,,,,,,,,,,,,,,,,,,,,,,,,,,,,,,,,,,,,,,,,,,,,,,,,,,,,,,,,,,,,,,,,,,,,,,,,,,,,,,,,,,,,,,,,,,,,,,,,,,,,,,,,,,,,,,,,,,,,,,
,,67dae998d8f2cfb8a8e3bf03,2026-03-17_16h11.24.345,kallum_motion_pilot_GIST_update_2,2026.1.1,Win32,60.24096386,67dae998d8f2cfb8a8e3bf03,69b95efdef24cd8a694e89ee,69b9609275353e1a76186204,0.0176,0.0176,0,92,92,48,1,onetwo,,,,,,,,,,,,,,,,,,,,,,,,,,,,,,,,,,,,,,,,,,,,,,,,,,,,,,,,,,,,,,,,,,,,,,,,,,,,,,,,,,,,,,,,,,,,,,,,,,,,,,,,,,,,,,,,,,,,,,,,,,,,,,,,,,,,,,,,,
,,67dae998d8f2cfb8a8e3bf03,2026-03-17_16h11.24.345,kallum_motion_pilot_GIST_update_2,2026.1.1,Win32,60.24096386,67dae998d8f2cfb8a8e3bf03,69b95efdef24cd8a694e89ee,69b9609275353e1a76186204,0.0177,0.0177,0,93,93,138,1,sixfive,,,,,,,,,,,,,,,,,,,,,,,,,,,,,,,,,,,,,,,,,,,,,,,,,,,,,,,,,,,,,,,,,,,,,,,,,,,,,,,,,,,,,,,,,,,,,,,,,,,,,,,,,,,,,,,,,,,,,,,,,,,,,,,,,,,,,,,,,
,,67dae998d8f2cfb8a8e3bf03,2026-03-17_16h11.24.345,kallum_motion_pilot_GIST_update_2,2026.1.1,Win32,60.24096386,67dae998d8f2cfb8a8e3bf03,69b95efdef24cd8a694e89ee,69b9609275353e1a76186204,0.0177,0.0177,0,94,94,118,1,eightsix,,,,,,,,,,,,,,,,,,,,,,,,,,,,,,,,,,,,,,,,,,,,,,,,,,,,,,,,,,,,,,,,,,,,,,,,,,,,,,,,,,,,,,,,,,,,,,,,,,,,,,,,,,,,,,,,,,,,,,,,,,,,,,,,,,,,,,,,,
,,67dae998d8f2cfb8a8e3bf03,2026-03-17_16h11.24.345,kallum_motion_pilot_GIST_update_2,2026.1.1,Win32,60.24096386,67dae998d8f2cfb8a8e3bf03,69b95efdef24cd8a694e89ee,69b9609275353e1a76186204,0.0178,0.0178,0,95,95,160,1,fivesix,,,,,,,,,,,,,,,,,,,,,,,,,,,,,,,,,,,,,,,,,,,,,,,,,,,,,,,,,,,,,,,,,,,,,,,,,,,,,,,,,,,,,,,,,,,,,,,,,,,,,,,,,,,,,,,,,,,,,,,,,,,,,,,,,,,,,,,,,
,,67dae998d8f2cfb8a8e3bf03,2026-03-17_16h11.24.345,kallum_motion_pilot_GIST_update_2,2026.1.1,Win32,60.24096386,67dae998d8f2cfb8a8e3bf03,69b95efdef24cd8a694e89ee,69b9609275353e1a76186204,0.0178,0.0178,0,96,96,60,1,threeone,,,,,,,,,,,,,,,,,,,,,,,,,,,,,,,,,,,,,,,,,,,,,,,,,,,,,,,,,,,,,,,,,,,,,,,,,,,,,,,,,,,,,,,,,,,,,,,,,,,,,,,,,,,,,,,,,,,,,,,,,,,,,,,,,,,,,,,,,
,,67dae998d8f2cfb8a8e3bf03,2026-03-17_16h11.24.345,kallum_motion_pilot_GIST_update_2,2026.1.1,Win32,60.24096386,67dae998d8f2cfb8a8e3bf03,69b95efdef24cd8a694e89ee,69b9609275353e1a76186204,0.0178,0.0178,0,97,97,66,1,twoone,,,,,,,,,,,,,,,,,,,,,,,,,,,,,,,,,,,,,,,,,,,,,,,,,,,,,,,,,,,,,,,,,,,,,,,,,,,,,,,,,,,,,,,,,,,,,,,,,,,,,,,,,,,,,,,,,,,,,,,,,,,,,,,,,,,,,,,,,
,,67dae998d8f2cfb8a8e3bf03,2026-03-17_16h11.24.345,kallum_motion_pilot_GIST_update_2,2026.1.1,Win32,60.24096386,67dae998d8f2cfb8a8e3bf03,69b95efdef24cd8a694e89ee,69b9609275353e1a76186204,0.018,0.018,0,98,98,24,1,onetwo,,,,,,,,,,,,,,,,,,,,,,,,,,,,,,,,,,,,,,,,,,,,,,,,,,,,,,,,,,,,,,,,,,,,,,,,,,,,,,,,,,,,,,,,,,,,,,,,,,,,,,,,,,,,,,,,,,,,,,,,,,,,,,,,,,,,,,,,,
,,67dae998d8f2cfb8a8e3bf03,2026-03-17_16h11.24.345,kallum_motion_pilot_GIST_update_2,2026.1.1,Win32,60.24096386,67dae998d8f2cfb8a8e3bf03,69b95efdef24cd8a694e89ee,69b9609275353e1a76186204,0.018,0.018,0,99,99,154,1,sixfive,,,,,,,,,,,,,,,,,,,,,,,,,,,,,,,,,,,,,,,,,,,,,,,,,,,,,,,,,,,,,,,,,,,,,,,,,,,,,,,,,,,,,,,,,,,,,,,,,,,,,,,,,,,,,,,,,,,,,,,,,,,,,,,,,,,,,,,,,
,,67dae998d8f2cfb8a8e3bf03,2026-03-17_16h11.24.345,kallum_motion_pilot_GIST_update_2,2026.1.1,Win32,60.24096386,67dae998d8f2cfb8a8e3bf03,69b95efdef24cd8a694e89ee,69b9609275353e1a76186204,0.018,0.018,0,100,100,109,1,seveneight,,,,,,,,,,,,,,,,,,,,,,,,,,,,,,,,,,,,,,,,,,,,,,,,,,,,,,,,,,,,,,,,,,,,,,,,,,,,,,,,,,,,,,,,,,,,,,,,,,,,,,,,,,,,,,,,,,,,,,,,,,,,,,,,,,,,,,,,,
,,67dae998d8f2cfb8a8e3bf03,2026-03-17_16h11.24.345,kallum_motion_pilot_GIST_update_2,2026.1.1,Win32,60.24096386,67dae998d8f2cfb8a8e3bf03,69b95efdef24cd8a694e89ee,69b9609275353e1a76186204,0.0181,0.0181,0,101,101,49,1,onethree,,,,,,,,,,,,,,,,,,,,,,,,,,,,,,,,,,,,,,,,,,,,,,,,,,,,,,,,,,,,,,,,,,,,,,,,,,,,,,,,,,,,,,,,,,,,,,,,,,,,,,,,,,,,,,,,,,,,,,,,,,,,,,,,,,,,,,,,,
,,67dae998d8f2cfb8a8e3bf03,2026-03-17_16h11.24.345,kallum_motion_pilot_GIST_update_2,2026.1.1,Win32,60.24096386,67dae998d8f2cfb8a8e3bf03,69b95efdef24cd8a694e89ee,69b9609275353e1a76186204,0.0181,0.0181,0,102,102,57,1,onethree,,,,,,,,,,,,,,,,,,,,,,,,,,,,,,,,,,,,,,,,,,,,,,,,,,,,,,,,,,,,,,,,,,,,,,,,,,,,,,,,,,,,,,,,,,,,,,,,,,,,,,,,,,,,,,,,,,,,,,,,,,,,,,,,,,,,,,,,,
,,67dae998d8f2cfb8a8e3bf03,2026-03-17_16h11.24.345,kallum_motion_pilot_GIST_update_2,2026.1.1,Win32,60.24096386,67dae998d8f2cfb8a8e3bf03,69b95efdef24cd8a694e89ee,69b9609275353e1a76186204,0.0182,0.0182,0,103,103,61,1,threefour,,,,,,,,,,,,,,,,,,,,,,,,,,,,,,,,,,,,,,,,,,,,,,,,,,,,,,,,,,,,,,,,,,,,,,,,,,,,,,,,,,,,,,,,,,,,,,,,,,,,,,,,,,,,,,,,,,,,,,,,,,,,,,,,,,,,,,,,,
,,67dae998d8f2cfb8a8e3bf03,2026-03-17_16h11.24.345,kallum_motion_pilot_GIST_update_2,2026.1.1,Win32,60.24096386,67dae998d8f2cfb8a8e3bf03,69b95efdef24cd8a694e89ee,69b9609275353e1a76186204,0.0182,0.0182,0,104,104,87,1,eightseven,,,,,,,,,,,,,,,,,,,,,,,,,,,,,,,,,,,,,,,,,,,,,,,,,,,,,,,,,,,,,,,,,,,,,,,,,,,,,,,,,,,,,,,,,,,,,,,,,,,,,,,,,,,,,,,,,,,,,,,,,,,,,,,,,,,,,,,,,
,,67dae998d8f2cfb8a8e3bf03,2026-03-17_16h11.24.345,kallum_motion_pilot_GIST_update_2,2026.1.1,Win32,60.24096386,67dae998d8f2cfb8a8e3bf03,69b95efdef24cd8a694e89ee,69b9609275353e1a76186204,0.0183,0.0183,0,105,105,58,1,twoone,,,,,,,,,,,,,,,,,,,,,,,,,,,,,,,,,,,,,,,,,,,,,,,,,,,,,,,,,,,,,,,,,,,,,,,,,,,,,,,,,,,,,,,,,,,,,,,,,,,,,,,,,,,,,,,,,,,,,,,,,,,,,,,,,,,,,,,,,
,,67dae998d8f2cfb8a8e3bf03,2026-03-17_16h11.24.345,kallum_motion_pilot_GIST_update_2,2026.1.1,Win32,60.24096386,67dae998d8f2cfb8a8e3bf03,69b95efdef24cd8a694e89ee,69b9609275353e1a76186204,0.0184,0.0184,0,106,106,6,1,fourtwo,,,,,,,,,,,,,,,,,,,,,,,,,,,,,,,,,,,,,,,,,,,,,,,,,,,,,,,,,,,,,,,,,,,,,,,,,,,,,,,,,,,,,,,,,,,,,,,,,,,,,,,,,,,,,,,,,,,,,,,,,,,,,,,,,,,,,,,,,
,,67dae998d8f2cfb8a8e3bf03,2026-03-17_16h11.24.345,kallum_motion_pilot_GIST_update_2,2026.1.1,Win32,60.24096386,67dae998d8f2cfb8a8e3bf03,69b95efdef24cd8a694e89ee,69b9609275353e1a76186204,0.0184,0.0184,0,107,107,83,1,sixeight,,,,,,,,,,,,,,,,,,,,,,,,,,,,,,,,,,,,,,,,,,,,,,,,,,,,,,,,,,,,,,,,,,,,,,,,,,,,,,,,,,,,,,,,,,,,,,,,,,,,,,,,,,,,,,,,,,,,,,,,,,,,,,,,,,,,,,,,,
,,67dae998d8f2cfb8a8e3bf03,2026-03-17_16h11.24.345,kallum_motion_pilot_GIST_update_2,2026.1.1,Win32,60.24096386,67dae998d8f2cfb8a8e3bf03,69b95efdef24cd8a694e89ee,69b9609275353e1a76186204,0.0185,0.0185,0,108,108,134,1,eightsix,,,,,,,,,,,,,,,,,,,,,,,,,,,,,,,,,,,,,,,,,,,,,,,,,,,,,,,,,,,,,,,,,,,,,,,,,,,,,,,,,,,,,,,,,,,,,,,,,,,,,,,,,,,,,,,,,,,,,,,,,,,,,,,,,,,,,,,,,
,,67dae998d8f2cfb8a8e3bf03,2026-03-17_16h11.24.345,kallum_motion_pilot_GIST_update_2,2026.1.1,Win32,60.24096386,67dae998d8f2cfb8a8e3bf03,69b95efdef24cd8a694e89ee,69b9609275353e1a76186204,0.0185,0.0185,0,109,109,96,1,fivesix,,,,,,,,,,,,,,,,,,,,,,,,,,,,,,,,,,,,,,,,,,,,,,,,,,,,,,,,,,,,,,,,,,,,,,,,,,,,,,,,,,,,,,,,,,,,,,,,,,,,,,,,,,,,,,,,,,,,,,,,,,,,,,,,,,,,,,,,,
,,67dae998d8f2cfb8a8e3bf03,2026-03-17_16h11.24.345,kallum_motion_pilot_GIST_update_2,2026.1.1,Win32,60.24096386,67dae998d8f2cfb8a8e3bf03,69b95efdef24cd8a694e89ee,69b9609275353e1a76186204,0.0185,0.0185,0,110,110,144,1,fivesix,,,,,,,,,,,,,,,,,,,,,,,,,,,,,,,,,,,,,,,,,,,,,,,,,,,,,,,,,,,,,,,,,,,,,,,,,,,,,,,,,,,,,,,,,,,,,,,,,,,,,,,,,,,,,,,,,,,,,,,,,,,,,,,,,,,,,,,,,
,,67dae998d8f2cfb8a8e3bf03,2026-03-17_16h11.24.345,kallum_motion_pilot_GIST_update_2,2026.1.1,Win32,60.24096386,67dae998d8f2cfb8a8e3bf03,69b95efdef24cd8a694e89ee,69b9609275353e1a76186204,0.0186,0.0186,0,111,111,51,1,twofour,,,,,,,,,,,,,,,,,,,,,,,,,,,,,,,,,,,,,,,,,,,,,,,,,,,,,,,,,,,,,,,,,,,,,,,,,,,,,,,,,,,,,,,,,,,,,,,,,,,,,,,,,,,,,,,,,,,,,,,,,,,,,,,,,,,,,,,,,
,,67dae998d8f2cfb8a8e3bf03,2026-03-17_16h11.24.345,kallum_motion_pilot_GIST_update_2,2026.1.1,Win32,60.24096386,67dae998d8f2cfb8a8e3bf03,69b95efdef24cd8a694e89ee,69b9609275353e1a76186204,0.0187,0.0187,0,112,112,34,1,twoone,,,,,,,,,,,,,,,,,,,,,,,,,,,,,,,,,,,,,,,,,,,,,,,,,,,,,,,,,,,,,,,,,,,,,,,,,,,,,,,,,,,,,,,,,,,,,,,,,,,,,,,,,,,,,,,,,,,,,,,,,,,,,,,,,,,,,,,,,
,,67dae998d8f2cfb8a8e3bf03,2026-03-17_16h11.24.345,kallum_motion_pilot_GIST_update_2,2026.1.1,Win32,60.24096386,67dae998d8f2cfb8a8e3bf03,69b95efdef24cd8a694e89ee,69b9609275353e1a76186204,0.0188,0.0188,0,113,113,33,1,onethree,,,,,,,,,,,,,,,,,,,,,,,,,,,,,,,,,,,,,,,,,,,,,,,,,,,,,,,,,,,,,,,,,,,,,,,,,,,,,,,,,,,,,,,,,,,,,,,,,,,,,,,,,,,,,,,,,,,,,,,,,,,,,,,,,,,,,,,,,
,,67dae998d8f2cfb8a8e3bf03,2026-03-17_16h11.24.345,kallum_motion_pilot_GIST_update_2,2026.1.1,Win32,60.24096386,67dae998d8f2cfb8a8e3bf03,69b95efdef24cd8a694e89ee,69b9609275353e1a76186204,0.0188,0.0188,0,114,114,17,1,onethree,,,,,,,,,,,,,,,,,,,,,,,,,,,,,,,,,,,,,,,,,,,,,,,,,,,,,,,,,,,,,,,,,,,,,,,,,,,,,,,,,,,,,,,,,,,,,,,,,,,,,,,,,,,,,,,,,,,,,,,,,,,,,,,,,,,,,,,,,
,,67dae998d8f2cfb8a8e3bf03,2026-03-17_16h11.24.345,kallum_motion_pilot_GIST_update_2,2026.1.1,Win32,60.24096386,67dae998d8f2cfb8a8e3bf03,69b95efdef24cd8a694e89ee,69b9609275353e1a76186204,0.0188,0.0188,0,115,115,150,1,eightsix,,,,,,,,,,,,,,,,,,,,,,,,,,,,,,,,,,,,,,,,,,,,,,,,,,,,,,,,,,,,,,,,,,,,,,,,,,,,,,,,,,,,,,,,,,,,,,,,,,,,,,,,,,,,,,,,,,,,,,,,,,,,,,,,,,,,,,,,,
,,67dae998d8f2cfb8a8e3bf03,2026-03-17_16h11.24.345,kallum_motion_pilot_GIST_update_2,2026.1.1,Win32,60.24096386,67dae998d8f2cfb8a8e3bf03,69b95efdef24cd8a694e89ee,69b9609275353e1a76186204,0.0189,0.0189,0,116,116,76,1,threeone,,,,,,,,,,,,,,,,,,,,,,,,,,,,,,,,,,,,,,,,,,,,,,,,,,,,,,,,,,,,,,,,,,,,,,,,,,,,,,,,,,,,,,,,,,,,,,,,,,,,,,,,,,,,,,,,,,,,,,,,,,,,,,,,,,,,,,,,,
,,67dae998d8f2cfb8a8e3bf03,2026-03-17_16h11.24.345,kallum_motion_pilot_GIST_update_2,2026.1.1,Win32,60.24096386,67dae998d8f2cfb8a8e3bf03,69b95efdef24cd8a694e89ee,69b9609275353e1a76186204,0.0189,0.0189,0,117,117,103,1,eightseven,,,,,,,,,,,,,,,,,,,,,,,,,,,,,,,,,,,,,,,,,,,,,,,,,,,,,,,,,,,,,,,,,,,,,,,,,,,,,,,,,,,,,,,,,,,,,,,,,,,,,,,,,,,,,,,,,,,,,,,,,,,,,,,,,,,,,,,,,
,,67dae998d8f2cfb8a8e3bf03,2026-03-17_16h11.24.345,kallum_motion_pilot_GIST_update_2,2026.1.1,Win32,60.24096386,67dae998d8f2cfb8a8e3bf03,69b95efdef24cd8a694e89ee,69b9609275353e1a76186204,0.0191,0.0191,0,118,118,129,1,fiveseven,,,,,,,,,,,,,,,,,,,,,,,,,,,,,,,,,,,,,,,,,,,,,,,,,,,,,,,,,,,,,,,,,,,,,,,,,,,,,,,,,,,,,,,,,,,,,,,,,,,,,,,,,,,,,,,,,,,,,,,,,,,,,,,,,,,,,,,,,
,,67dae998d8f2cfb8a8e3bf03,2026-03-17_16h11.24.345,kallum_motion_pilot_GIST_update_2,2026.1.1,Win32,60.24096386,67dae998d8f2cfb8a8e3bf03,69b95efdef24cd8a694e89ee,69b9609275353e1a76186204,0.0192,0.0192,0,119,119,119,1,eightseven,,,,,,,,,,,,,,,,,,,,,,,,,,,,,,,,,,,,,,,,,,,,,,,,,,,,,,,,,,,,,,,,,,,,,,,,,,,,,,,,,,,,,,,,,,,,,,,,,,,,,,,,,,,,,,,,,,,,,,,,,,,,,,,,,,,,,,,,,
,,67dae998d8f2cfb8a8e3bf03,2026-03-17_16h11.24.345,kallum_motion_pilot_GIST_update_2,2026.1.1,Win32,60.24096386,67dae998d8f2cfb8a8e3bf03,69b95efdef24cd8a694e89ee,69b9609275353e1a76186204,0.0192,0.0192,0,120,120,130,1,sixfive,,,,,,,,,,,,,,,,,,,,,,,,,,,,,,,,,,,,,,,,,,,,,,,,,,,,,,,,,,,,,,,,,,,,,,,,,,,,,,,,,,,,,,,,,,,,,,,,,,,,,,,,,,,,,,,,,,,,,,,,,,,,,,,,,,,,,,,,,
,,67dae998d8f2cfb8a8e3bf03,2026-03-17_16h11.24.345,kallum_motion_pilot_GIST_update_2,2026.1.1,Win32,60.24096386,67dae998d8f2cfb8a8e3bf03,69b95efdef24cd8a694e89ee,69b9609275353e1a76186204,0.0193,0.0193,0,121,121,158,1,eightsix,,,,,,,,,,,,,,,,,,,,,,,,,,,,,,,,,,,,,,,,,,,,,,,,,,,,,,,,,,,,,,,,,,,,,,,,,,,,,,,,,,,,,,,,,,,,,,,,,,,,,,,,,,,,,,,,,,,,,,,,,,,,,,,,,,,,,,,,,
,,67dae998d8f2cfb8a8e3bf03,2026-03-17_16h11.24.345,kallum_motion_pilot_GIST_update_2,2026.1.1,Win32,60.24096386,67dae998d8f2cfb8a8e3bf03,69b95efdef24cd8a694e89ee,69b9609275353e1a76186204,0.0194,0.0194,0,122,122,124,1,sevenfive,,,,,,,,,,,,,,,,,,,,,,,,,,,,,,,,,,,,,,,,,,,,,,,,,,,,,,,,,,,,,,,,,,,,,,,,,,,,,,,,,,,,,,,,,,,,,,,,,,,,,,,,,,,,,,,,,,,,,,,,,,,,,,,,,,,,,,,,,
,,67dae998d8f2cfb8a8e3bf03,2026-03-17_16h11.24.345,kallum_motion_pilot_GIST_update_2,2026.1.1,Win32,60.24096386,67dae998d8f2cfb8a8e3bf03,69b95efdef24cd8a694e89ee,69b9609275353e1a76186204,0.0194,0.0194,0,123,123,27,1,twofour,,,,,,,,,,,,,,,,,,,,,,,,,,,,,,,,,,,,,,,,,,,,,,,,,,,,,,,,,,,,,,,,,,,,,,,,,,,,,,,,,,,,,,,,,,,,,,,,,,,,,,,,,,,,,,,,,,,,,,,,,,,,,,,,,,,,,,,,,
,,67dae998d8f2cfb8a8e3bf03,2026-03-17_16h11.24.345,kallum_motion_pilot_GIST_update_2,2026.1.1,Win32,60.24096386,67dae998d8f2cfb8a8e3bf03,69b95efdef24cd8a694e89ee,69b9609275353e1a76186204,0.0196,0.0196,0,124,124,38,1,fourtwo,,,,,,,,,,,,,,,,,,,,,,,,,,,,,,,,,,,,,,,,,,,,,,,,,,,,,,,,,,,,,,,,,,,,,,,,,,,,,,,,,,,,,,,,,,,,,,,,,,,,,,,,,,,,,,,,,,,,,,,,,,,,,,,,,,,,,,,,,
,,67dae998d8f2cfb8a8e3bf03,2026-03-17_16h11.24.345,kallum_motion_pilot_GIST_update_2,2026.1.1,Win32,60.24096386,67dae998d8f2cfb8a8e3bf03,69b95efdef24cd8a694e89ee,69b9609275353e1a76186204,0.0196,0.0196,0,125,125,9,1,onethree,,,,,,,,,,,,,,,,,,,,,,,,,,,,,,,,,,,,,,,,,,,,,,,,,,,,,,,,,,,,,,,,,,,,,,,,,,,,,,,,,,,,,,,,,,,,,,,,,,,,,,,,,,,,,,,,,,,,,,,,,,,,,,,,,,,,,,,,,
,,67dae998d8f2cfb8a8e3bf03,2026-03-17_16h11.24.345,kallum_motion_pilot_GIST_update_2,2026.1.1,Win32,60.24096386,67dae998d8f2cfb8a8e3bf03,69b95efdef24cd8a694e89ee,69b9609275353e1a76186204,0.0197,0.0197,0,126,126,52,1,threeone,,,,,,,,,,,,,,,,,,,,,,,,,,,,,,,,,,,,,,,,,,,,,,,,,,,,,,,,,,,,,,,,,,,,,,,,,,,,,,,,,,,,,,,,,,,,,,,,,,,,,,,,,,,,,,,,,,,,,,,,,,,,,,,,,,,,,,,,,
,,67dae998d8f2cfb8a8e3bf03,2026-03-17_16h11.24.345,kallum_motion_pilot_GIST_update_2,2026.1.1,Win32,60.24096386,67dae998d8f2cfb8a8e3bf03,69b95efdef24cd8a694e89ee,69b9609275353e1a76186204,0.0197,0.0197,0,127,127,11,1,twofour,,,,,,,,,,,,,,,,,,,,,,,,,,,,,,,,,,,,,,,,,,,,,,,,,,,,,,,,,,,,,,,,,,,,,,,,,,,,,,,,,,,,,,,,,,,,,,,,,,,,,,,,,,,,,,,,,,,,,,,,,,,,,,,,,,,,,,,,,
,,67dae998d8f2cfb8a8e3bf03,2026-03-17_16h11.24.345,kallum_motion_pilot_GIST_update_2,2026.1.1,Win32,60.24096386,67dae998d8f2cfb8a8e3bf03,69b95efdef24cd8a694e89ee,69b9609275353e1a76186204,0.0197,0.0197,0,128,128,146,1,sixfive,,,,,,,,,,,,,,,,,,,,,,,,,,,,,,,,,,,,,,,,,,,,,,,,,,,,,,,,,,,,,,,,,,,,,,,,,,,,,,,,,,,,,,,,,,,,,,,,,,,,,,,,,,,,,,,,,,,,,,,,,,,,,,,,,,,,,,,,,
,,67dae998d8f2cfb8a8e3bf03,2026-03-17_16h11.24.345,kallum_motion_pilot_GIST_update_2,2026.1.1,Win32,60.24096386,67dae998d8f2cfb8a8e3bf03,69b95efdef24cd8a694e89ee,69b9609275353e1a76186204,0.0198,0.0198,0,129,129,79,1,eightseven,,,,,,,,,,,,,,,,,,,,,,,,,,,,,,,,,,,,,,,,,,,,,,,,,,,,,,,,,,,,,,,,,,,,,,,,,,,,,,,,,,,,,,,,,,,,,,,,,,,,,,,,,,,,,,,,,,,,,,,,,,,,,,,,,,,,,,,,,
,,67dae998d8f2cfb8a8e3bf03,2026-03-17_16h11.24.345,kallum_motion_pilot_GIST_update_2,2026.1.1,Win32,60.24096386,67dae998d8f2cfb8a8e3bf03,69b95efdef24cd8a694e89ee,69b9609275353e1a76186204,0.0199,0.0199,0,130,130,39,1,fourthree,,,,,,,,,,,,,,,,,,,,,,,,,,,,,,,,,,,,,,,,,,,,,,,,,,,,,,,,,,,,,,,,,,,,,,,,,,,,,,,,,,,,,,,,,,,,,,,,,,,,,,,,,,,,,,,,,,,,,,,,,,,,,,,,,,,,,,,,,
,,67dae998d8f2cfb8a8e3bf03,2026-03-17_16h11.24.345,kallum_motion_pilot_GIST_update_2,2026.1.1,Win32,60.24096386,67dae998d8f2cfb8a8e3bf03,69b95efdef24cd8a694e89ee,69b9609275353e1a76186204,0.02,0.02,0,131,131,23,1,fourthree,,,,,,,,,,,,,,,,,,,,,,,,,,,,,,,,,,,,,,,,,,,,,,,,,,,,,,,,,,,,,,,,,,,,,,,,,,,,,,,,,,,,,,,,,,,,,,,,,,,,,,,,,,,,,,,,,,,,,,,,,,,,,,,,,,,,,,,,,
,,67dae998d8f2cfb8a8e3bf03,2026-03-17_16h11.24.345,kallum_motion_pilot_GIST_update_2,2026.1.1,Win32,60.24096386,67dae998d8f2cfb8a8e3bf03,69b95efdef24cd8a694e89ee,69b9609275353e1a76186204,0.02,0.02,0,132,132,135,1,eightseven,,,,,,,,,,,,,,,,,,,,,,,,,,,,,,,,,,,,,,,,,,,,,,,,,,,,,,,,,,,,,,,,,,,,,,,,,,,,,,,,,,,,,,,,,,,,,,,,,,,,,,,,,,,,,,,,,,,,,,,,,,,,,,,,,,,,,,,,,
,,67dae998d8f2cfb8a8e3bf03,2026-03-17_16h11.24.345,kallum_motion_pilot_GIST_update_2,2026.1.1,Win32,60.24096386,67dae998d8f2cfb8a8e3bf03,69b95efdef24cd8a694e89ee,69b9609275353e1a76186204,0.02,0.02,0,133,133,44,1,threeone,,,,,,,,,,,,,,,,,,,,,,,,,,,,,,,,,,,,,,,,,,,,,,,,,,,,,,,,,,,,,,,,,,,,,,,,,,,,,,,,,,,,,,,,,,,,,,,,,,,,,,,,,,,,,,,,,,,,,,,,,,,,,,,,,,,,,,,,,
,,67dae998d8f2cfb8a8e3bf03,2026-03-17_16h11.24.345,kallum_motion_pilot_GIST_update_2,2026.1.1,Win32,60.24096386,67dae998d8f2cfb8a8e3bf03,69b95efdef24cd8a694e89ee,69b9609275353e1a76186204,0.0201,0.0201,0,134,134,133,1,seveneight,,,,,,,,,,,,,,,,,,,,,,,,,,,,,,,,,,,,,,,,,,,,,,,,,,,,,,,,,,,,,,,,,,,,,,,,,,,,,,,,,,,,,,,,,,,,,,,,,,,,,,,,,,,,,,,,,,,,,,,,,,,,,,,,,,,,,,,,,
,,67dae998d8f2cfb8a8e3bf03,2026-03-17_16h11.24.345,kallum_motion_pilot_GIST_update_2,2026.1.1,Win32,60.24096386,67dae998d8f2cfb8a8e3bf03,69b95efdef24cd8a694e89ee,69b9609275353e1a76186204,0.0202,0.0202,0,135,135,75,1,twofour,,,,,,,,,,,,,,,,,,,,,,,,,,,,,,,,,,,,,,,,,,,,,,,,,,,,,,,,,,,,,,,,,,,,,,,,,,,,,,,,,,,,,,,,,,,,,,,,,,,,,,,,,,,,,,,,,,,,,,,,,,,,,,,,,,,,,,,,,
,,67dae998d8f2cfb8a8e3bf03,2026-03-17_16h11.24.345,kallum_motion_pilot_GIST_update_2,2026.1.1,Win32,60.24096386,67dae998d8f2cfb8a8e3bf03,69b95efdef24cd8a694e89ee,69b9609275353e1a76186204,0.0203,0.0203,0,136,136,92,1,sevenfive,,,,,,,,,,,,,,,,,,,,,,,,,,,,,,,,,,,,,,,,,,,,,,,,,,,,,,,,,,,,,,,,,,,,,,,,,,,,,,,,,,,,,,,,,,,,,,,,,,,,,,,,,,,,,,,,,,,,,,,,,,,,,,,,,,,,,,,,,
,,67dae998d8f2cfb8a8e3bf03,2026-03-17_16h11.24.345,kallum_motion_pilot_GIST_update_2,2026.1.1,Win32,60.24096386,67dae998d8f2cfb8a8e3bf03,69b95efdef24cd8a694e89ee,69b9609275353e1a76186204,0.0203,0.0203,0,137,137,40,1,onetwo,,,,,,,,,,,,,,,,,,,,,,,,,,,,,,,,,,,,,,,,,,,,,,,,,,,,,,,,,,,,,,,,,,,,,,,,,,,,,,,,,,,,,,,,,,,,,,,,,,,,,,,,,,,,,,,,,,,,,,,,,,,,,,,,,,,,,,,,,
,,67dae998d8f2cfb8a8e3bf03,2026-03-17_16h11.24.345,kallum_motion_pilot_GIST_update_2,2026.1.1,Win32,60.24096386,67dae998d8f2cfb8a8e3bf03,69b95efdef24cd8a694e89ee,69b9609275353e1a76186204,0.0203,0.0203,0,138,138,3,1,twofour,,,,,,,,,,,,,,,,,,,,,,,,,,,,,,,,,,,,,,,,,,,,,,,,,,,,,,,,,,,,,,,,,,,,,,,,,,,,,,,,,,,,,,,,,,,,,,,,,,,,,,,,,,,,,,,,,,,,,,,,,,,,,,,,,,,,,,,,,
,,67dae998d8f2cfb8a8e3bf03,2026-03-17_16h11.24.345,kallum_motion_pilot_GIST_update_2,2026.1.1,Win32,60.24096386,67dae998d8f2cfb8a8e3bf03,69b95efdef24cd8a694e89ee,69b9609275353e1a76186204,0.0204,0.0204,0,139,139,105,1,fiveseven,,,,,,,,,,,,,,,,,,,,,,,,,,,,,,,,,,,,,,,,,,,,,,,,,,,,,,,,,,,,,,,,,,,,,,,,,,,,,,,,,,,,,,,,,,,,,,,,,,,,,,,,,,,,,,,,,,,,,,,,,,,,,,,,,,,,,,,,,
,,67dae998d8f2cfb8a8e3bf03,2026-03-17_16h11.24.345,kallum_motion_pilot_GIST_update_2,2026.1.1,Win32,60.24096386,67dae998d8f2cfb8a8e3bf03,69b95efdef24cd8a694e89ee,69b9609275353e1a76186204,0.0205,0.0205,0,140,140,43,1,twofour,,,,,,,,,,,,,,,,,,,,,,,,,,,,,,,,,,,,,,,,,,,,,,,,,,,,,,,,,,,,,,,,,,,,,,,,,,,,,,,,,,,,,,,,,,,,,,,,,,,,,,,,,,,,,,,,,,,,,,,,,,,,,,,,,,,,,,,,,
,,67dae998d8f2cfb8a8e3bf03,2026-03-17_16h11.24.345,kallum_motion_pilot_GIST_update_2,2026.1.1,Win32,60.24096386,67dae998d8f2cfb8a8e3bf03,69b95efdef24cd8a694e89ee,69b9609275353e1a76186204,0.0206,0.0206,0,141,141,94,1,eightsix,,,,,,,,,,,,,,,,,,,,,,,,,,,,,,,,,,,,,,,,,,,,,,,,,,,,,,,,,,,,,,,,,,,,,,,,,,,,,,,,,,,,,,,,,,,,,,,,,,,,,,,,,,,,,,,,,,,,,,,,,,,,,,,,,,,,,,,,,
,,67dae998d8f2cfb8a8e3bf03,2026-03-17_16h11.24.345,kallum_motion_pilot_GIST_update_2,2026.1.1,Win32,60.24096386,67dae998d8f2cfb8a8e3bf03,69b95efdef24cd8a694e89ee,69b9609275353e1a76186204,0.0206,0.0206,0,142,142,110,1,eightsix,,,,,,,,,,,,,,,,,,,,,,,,,,,,,,,,,,,,,,,,,,,,,,,,,,,,,,,,,,,,,,,,,,,,,,,,,,,,,,,,,,,,,,,,,,,,,,,,,,,,,,,,,,,,,,,,,,,,,,,,,,,,,,,,,,,,,,,,,
,,67dae998d8f2cfb8a8e3bf03,2026-03-17_16h11.24.345,kallum_motion_pilot_GIST_update_2,2026.1.1,Win32,60.24096386,67dae998d8f2cfb8a8e3bf03,69b95efdef24cd8a694e89ee,69b9609275353e1a76186204,0.0206,0.0206,0,143,143,104,1,fivesix,,,,,,,,,,,,,,,,,,,,,,,,,,,,,,,,,,,,,,,,,,,,,,,,,,,,,,,,,,,,,,,,,,,,,,,,,,,,,,,,,,,,,,,,,,,,,,,,,,,,,,,,,,,,,,,,,,,,,,,,,,,,,,,,,,,,,,,,,
,,67dae998d8f2cfb8a8e3bf03,2026-03-17_16h11.24.345,kallum_motion_pilot_GIST_update_2,2026.1.1,Win32,60.24096386,67dae998d8f2cfb8a8e3bf03,69b95efdef24cd8a694e89ee,69b9609275353e1a76186204,0.0207,0.0207,0,144,144,62,1,fourtwo,,,,,,,,,,,,,,,,,,,,,,,,,,,,,,,,,,,,,,,,,,,,,,,,,,,,,,,,,,,,,,,,,,,,,,,,,,,,,,,,,,,,,,,,,,,,,,,,,,,,,,,,,,,,,,,,,,,,,,,,,,,,,,,,,,,,,,,,,
,,67dae998d8f2cfb8a8e3bf03,2026-03-17_16h11.24.345,kallum_motion_pilot_GIST_update_2,2026.1.1,Win32,60.24096386,67dae998d8f2cfb8a8e3bf03,69b95efdef24cd8a694e89ee,69b9609275353e1a76186204,0.0208,0.0208,0,145,145,122,1,sixfive,,,,,,,,,,,,,,,,,,,,,,,,,,,,,,,,,,,,,,,,,,,,,,,,,,,,,,,,,,,,,,,,,,,,,,,,,,,,,,,,,,,,,,,,,,,,,,,,,,,,,,,,,,,,,,,,,,,,,,,,,,,,,,,,,,,,,,,,,
,,67dae998d8f2cfb8a8e3bf03,2026-03-17_16h11.24.345,kallum_motion_pilot_GIST_update_2,2026.1.1,Win32,60.24096386,67dae998d8f2cfb8a8e3bf03,69b95efdef24cd8a694e89ee,69b9609275353e1a76186204,0.0209,0.0209,0,146,146,142,1,eightsix,,,,,,,,,,,,,,,,,,,,,,,,,,,,,,,,,,,,,,,,,,,,,,,,,,,,,,,,,,,,,,,,,,,,,,,,,,,,,,,,,,,,,,,,,,,,,,,,,,,,,,,,,,,,,,,,,,,,,,,,,,,,,,,,,,,,,,,,,
,,67dae998d8f2cfb8a8e3bf03,2026-03-17_16h11.24.345,kallum_motion_pilot_GIST_update_2,2026.1.1,Win32,60.24096386,67dae998d8f2cfb8a8e3bf03,69b95efdef24cd8a694e89ee,69b9609275353e1a76186204,0.0209,0.0209,0,147,147,126,1,eightsix,,,,,,,,,,,,,,,,,,,,,,,,,,,,,,,,,,,,,,,,,,,,,,,,,,,,,,,,,,,,,,,,,,,,,,,,,,,,,,,,,,,,,,,,,,,,,,,,,,,,,,,,,,,,,,,,,,,,,,,,,,,,,,,,,,,,,,,,,
,,67dae998d8f2cfb8a8e3bf03,2026-03-17_16h11.24.345,kallum_motion_pilot_GIST_update_2,2026.1.1,Win32,60.24096386,67dae998d8f2cfb8a8e3bf03,69b95efdef24cd8a694e89ee,69b9609275353e1a76186204,0.021,0.021,0,148,148,97,1,fiveseven,,,,,,,,,,,,,,,,,,,,,,,,,,,,,,,,,,,,,,,,,,,,,,,,,,,,,,,,,,,,,,,,,,,,,,,,,,,,,,,,,,,,,,,,,,,,,,,,,,,,,,,,,,,,,,,,,,,,,,,,,,,,,,,,,,,,,,,,,
,,67dae998d8f2cfb8a8e3bf03,2026-03-17_16h11.24.345,kallum_motion_pilot_GIST_update_2,2026.1.1,Win32,60.24096386,67dae998d8f2cfb8a8e3bf03,69b95efdef24cd8a694e89ee,69b9609275353e1a76186204,0.021,0.021,0,149,149,14,1,fourtwo,,,,,,,,,,,,,,,,,,,,,,,,,,,,,,,,,,,,,,,,,,,,,,,,,,,,,,,,,,,,,,,,,,,,,,,,,,,,,,,,,,,,,,,,,,,,,,,,,,,,,,,,,,,,,,,,,,,,,,,,,,,,,,,,,,,,,,,,,
,,67dae998d8f2cfb8a8e3bf03,2026-03-17_16h11.24.345,kallum_motion_pilot_GIST_update_2,2026.1.1,Win32,60.24096386,67dae998d8f2cfb8a8e3bf03,69b95efdef24cd8a694e89ee,69b9609275353e1a76186204,0.021,0.021,0,150,150,102,1,eightsix,,,,,,,,,,,,,,,,,,,,,,,,,,,,,,,,,,,,,,,,,,,,,,,,,,,,,,,,,,,,,,,,,,,,,,,,,,,,,,,,,,,,,,,,,,,,,,,,,,,,,,,,,,,,,,,,,,,,,,,,,,,,,,,,,,,,,,,,,
,,67dae998d8f2cfb8a8e3bf03,2026-03-17_16h11.24.345,kallum_motion_pilot_GIST_update_2,2026.1.1,Win32,60.24096386,67dae998d8f2cfb8a8e3bf03,69b95efdef24cd8a694e89ee,69b9609275353e1a76186204,0.0211,0.0211,0,151,151,107,1,sixeight,,,,,,,,,,,,,,,,,,,,,,,,,,,,,,,,,,,,,,,,,,,,,,,,,,,,,,,,,,,,,,,,,,,,,,,,,,,,,,,,,,,,,,,,,,,,,,,,,,,,,,,,,,,,,,,,,,,,,,,,,,,,,,,,,,,,,,,,,
,,67dae998d8f2cfb8a8e3bf03,2026-03-17_16h11.24.345,kallum_motion_pilot_GIST_update_2,2026.1.1,Win32,60.24096386,67dae998d8f2cfb8a8e3bf03,69b95efdef24cd8a694e89ee,69b9609275353e1a76186204,0.0211,0.0211,0,152,152,10,1,twoone,,,,,,,,,,,,,,,,,,,,,,,,,,,,,,,,,,,,,,,,,,,,,,,,,,,,,,,,,,,,,,,,,,,,,,,,,,,,,,,,,,,,,,,,,,,,,,,,,,,,,,,,,,,,,,,,,,,,,,,,,,,,,,,,,,,,,,,,,
,,67dae998d8f2cfb8a8e3bf03,2026-03-17_16h11.24.345,kallum_motion_pilot_GIST_update_2,2026.1.1,Win32,60.24096386,67dae998d8f2cfb8a8e3bf03,69b95efdef24cd8a694e89ee,69b9609275353e1a76186204,0.0213,0.0213,0,153,153,13,1,threefour,,,,,,,,,,,,,,,,,,,,,,,,,,,,,,,,,,,,,,,,,,,,,,,,,,,,,,,,,,,,,,,,,,,,,,,,,,,,,,,,,,,,,,,,,,,,,,,,,,,,,,,,,,,,,,,,,,,,,,,,,,,,,,,,,,,,,,,,,
,,67dae998d8f2cfb8a8e3bf03,2026-03-17_16h11.24.345,kallum_motion_pilot_GIST_update_2,2026.1.1,Win32,60.24096386,67dae998d8f2cfb8a8e3bf03,69b95efdef24cd8a694e89ee,69b9609275353e1a76186204,0.0213,0.0213,0,154,154,63,1,fourthree,,,,,,,,,,,,,,,,,,,,,,,,,,,,,,,,,,,,,,,,,,,,,,,,,,,,,,,,,,,,,,,,,,,,,,,,,,,,,,,,,,,,,,,,,,,,,,,,,,,,,,,,,,,,,,,,,,,,,,,,,,,,,,,,,,,,,,,,,
,,67dae998d8f2cfb8a8e3bf03,2026-03-17_16h11.24.345,kallum_motion_pilot_GIST_update_2,2026.1.1,Win32,60.24096386,67dae998d8f2cfb8a8e3bf03,69b95efdef24cd8a694e89ee,69b9609275353e1a76186204,0.0214,0.0214,0,155,155,139,1,sixeight,,,,,,,,,,,,,,,,,,,,,,,,,,,,,,,,,,,,,,,,,,,,,,,,,,,,,,,,,,,,,,,,,,,,,,,,,,,,,,,,,,,,,,,,,,,,,,,,,,,,,,,,,,,,,,,,,,,,,,,,,,,,,,,,,,,,,,,,,
,,67dae998d8f2cfb8a8e3bf03,2026-03-17_16h11.24.345,kallum_motion_pilot_GIST_update_2,2026.1.1,Win32,60.24096386,67dae998d8f2cfb8a8e3bf03,69b95efdef24cd8a694e89ee,69b9609275353e1a76186204,0.0214,0.0214,0,156,156,56,1,onetwo,,,,,,,,,,,,,,,,,,,,,,,,,,,,,,,,,,,,,,,,,,,,,,,,,,,,,,,,,,,,,,,,,,,,,,,,,,,,,,,,,,,,,,,,,,,,,,,,,,,,,,,,,,,,,,,,,,,,,,,,,,,,,,,,,,,,,,,,,
,,67dae998d8f2cfb8a8e3bf03,2026-03-17_16h11.24.345,kallum_motion_pilot_GIST_update_2,2026.1.1,Win32,60.24096386,67dae998d8f2cfb8a8e3bf03,69b95efdef24cd8a694e89ee,69b9609275353e1a76186204,0.0215,0.0215,0,157,157,7,1,fourthree,,,,,,,,,,,,,,,,,,,,,,,,,,,,,,,,,,,,,,,,,,,,,,,,,,,,,,,,,,,,,,,,,,,,,,,,,,,,,,,,,,,,,,,,,,,,,,,,,,,,,,,,,,,,,,,,,,,,,,,,,,,,,,,,,,,,,,,,,
,,67dae998d8f2cfb8a8e3bf03,2026-03-17_16h11.24.345,kallum_motion_pilot_GIST_update_2,2026.1.1,Win32,60.24096386,67dae998d8f2cfb8a8e3bf03,69b95efdef24cd8a694e89ee,69b9609275353e1a76186204,0.0215,0.0215,0,158,158,155,1,sixeight,,,,,,,,,,,,,,,,,,,,,,,,,,,,,,,,,,,,,,,,,,,,,,,,,,,,,,,,,,,,,,,,,,,,,,,,,,,,,,,,,,,,,,,,,,,,,,,,,,,,,,,,,,,,,,,,,,,,,,,,,,,,,,,,,,,,,,,,,
,,67dae998d8f2cfb8a8e3bf03,2026-03-17_16h11.24.345,kallum_motion_pilot_GIST_update_2,2026.1.1,Win32,60.24096386,67dae998d8f2cfb8a8e3bf03,69b95efdef24cd8a694e89ee,69b9609275353e1a76186204,0.0216,0.0216,0,159,159,161,1,fiveseven,,,,,,,,,,,,,,,,,,,,,,,,,,,,,,,,,,,,,,,,,,,,,,,,,,,,,,,,,,,,,,,,,,,,,,,,,,,,,,,,,,,,,,,,,,,,,,,,,,,,,,,,,,,,,,,,,,,,,,,,,,,,,,,,,,,,,,,,,
,,67dae998d8f2cfb8a8e3bf03,2026-03-17_16h11.24.345,kallum_motion_pilot_GIST_update_2,2026.1.1,Win32,60.24096386,67dae998d8f2cfb8a8e3bf03,69b95efdef24cd8a694e89ee,69b9609275353e1a76186204,0.0217,0.0217,0,160,160,131,1,sixeight,,,,,,,,,,,,,,,,,,,,,,,,,,,,,,,,,,,,,,,,,,,,,,,,,,,,,,,,,,,,,,,,,,,,,,,,,,,,,,,,,,,,,,,,,,,,,,,,,,,,,,,,,,,,,,,,,,,,,,,,,,,,,,,,,,,,,,,,,
,,67dae998d8f2cfb8a8e3bf03,2026-03-17_16h11.24.345,kallum_motion_pilot_GIST_update_2,2026.1.1,Win32,60.24096386,67dae998d8f2cfb8a8e3bf03,69b95efdef24cd8a694e89ee,69b9609275353e1a76186204,0.0217,0.0217,0,161,161,91,1,sixeight,,,,,,,,,,,,,,,,,,,,,,,,,,,,,,,,,,,,,,,,,,,,,,,,,,,,,,,,,,,,,,,,,,,,,,,,,,,,,,,,,,,,,,,,,,,,,,,,,,,,,,,,,,,,,,,,,,,,,,,,,,,,,,,,,,,,,,,,,
,,67dae998d8f2cfb8a8e3bf03,2026-03-17_16h11.24.345,kallum_motion_pilot_GIST_update_2,2026.1.1,Win32,60.24096386,67dae998d8f2cfb8a8e3bf03,69b95efdef24cd8a694e89ee,69b9609275353e1a76186204,0.0218,0.0218,1,0,162,81,1,fiveseven,,,,,,,,,,,,,,,,,,,,,,,,,,,,,,,,,,,,,,,,,,,,,,,,,,,,,,,,,,,,,,,,,,,,,,,,,,,,,,,,,,,,,,,,,,,,,,,,,,,,,,,,,,,,,,,,,,,,,,,,,,,,,,,,,,,,,,,,,
,,67dae998d8f2cfb8a8e3bf03,2026-03-17_16h11.24.345,kallum_motion_pilot_GIST_update_2,2026.1.1,Win32,60.24096386,67dae998d8f2cfb8a8e3bf03,69b95efdef24cd8a694e89ee,69b9609275353e1a76186204,0.0219,0.0219,1,1,163,41,1,onethree,,,,,,,,,,,,,,,,,,,,,,,,,,,,,,,,,,,,,,,,,,,,,,,,,,,,,,,,,,,,,,,,,,,,,,,,,,,,,,,,,,,,,,,,,,,,,,,,,,,,,,,,,,,,,,,,,,,,,,,,,,,,,,,,,,,,,,,,,
,,67dae998d8f2cfb8a8e3bf03,2026-03-17_16h11.24.345,kallum_motion_pilot_GIST_update_2,2026.1.1,Win32,60.24096386,67dae998d8f2cfb8a8e3bf03,69b95efdef24cd8a694e89ee,69b9609275353e1a76186204,0.0219,0.0219,1,2,164,90,1,sixfive,,,,,,,,,,,,,,,,,,,,,,,,,,,,,,,,,,,,,,,,,,,,,,,,,,,,,,,,,,,,,,,,,,,,,,,,,,,,,,,,,,,,,,,,,,,,,,,,,,,,,,,,,,,,,,,,,,,,,,,,,,,,,,,,,,,,,,,,,
,,67dae998d8f2cfb8a8e3bf03,2026-03-17_16h11.24.345,kallum_motion_pilot_GIST_update_2,2026.1.1,Win32,60.24096386,67dae998d8f2cfb8a8e3bf03,69b95efdef24cd8a694e89ee,69b9609275353e1a76186204,0.022,0.022,1,3,165,103,1,eightseven,,,,,,,,,,,,,,,,,,,,,,,,,,,,,,,,,,,,,,,,,,,,,,,,,,,,,,,,,,,,,,,,,,,,,,,,,,,,,,,,,,,,,,,,,,,,,,,,,,,,,,,,,,,,,,,,,,,,,,,,,,,,,,,,,,,,,,,,,
,,67dae998d8f2cfb8a8e3bf03,2026-03-17_16h11.24.345,kallum_motion_pilot_GIST_update_2,2026.1.1,Win32,60.24096386,67dae998d8f2cfb8a8e3bf03,69b95efdef24cd8a694e89ee,69b9609275353e1a76186204,0.0221,0.0221,1,4,166,80,1,fivesix,,,,,,,,,,,,,,,,,,,,,,,,,,,,,,,,,,,,,,,,,,,,,,,,,,,,,,,,,,,,,,,,,,,,,,,,,,,,,,,,,,,,,,,,,,,,,,,,,,,,,,,,,,,,,,,,,,,,,,,,,,,,,,,,,,,,,,,,,
,,67dae998d8f2cfb8a8e3bf03,2026-03-17_16h11.24.345,kallum_motion_pilot_GIST_update_2,2026.1.1,Win32,60.24096386,67dae998d8f2cfb8a8e3bf03,69b95efdef24cd8a694e89ee,69b9609275353e1a76186204,0.0221,0.0221,1,5,167,16,1,onetwo,,,,,,,,,,,,,,,,,,,,,,,,,,,,,,,,,,,,,,,,,,,,,,,,,,,,,,,,,,,,,,,,,,,,,,,,,,,,,,,,,,,,,,,,,,,,,,,,,,,,,,,,,,,,,,,,,,,,,,,,,,,,,,,,,,,,,,,,,
,,67dae998d8f2cfb8a8e3bf03,2026-03-17_16h11.24.345,kallum_motion_pilot_GIST_update_2,2026.1.1,Win32,60.24096386,67dae998d8f2cfb8a8e3bf03,69b95efdef24cd8a694e89ee,69b9609275353e1a76186204,0.0222,0.0222,1,6,168,141,1,seveneight,,,,,,,,,,,,,,,,,,,,,,,,,,,,,,,,,,,,,,,,,,,,,,,,,,,,,,,,,,,,,,,,,,,,,,,,,,,,,,,,,,,,,,,,,,,,,,,,,,,,,,,,,,,,,,,,,,,,,,,,,,,,,,,,,,,,,,,,,
,,67dae998d8f2cfb8a8e3bf03,2026-03-17_16h11.24.345,kallum_motion_pilot_GIST_update_2,2026.1.1,Win32,60.24096386,67dae998d8f2cfb8a8e3bf03,69b95efdef24cd8a694e89ee,69b9609275353e1a76186204,0.0222,0.0222,1,7,169,42,1,twoone,,,,,,,,,,,,,,,,,,,,,,,,,,,,,,,,,,,,,,,,,,,,,,,,,,,,,,,,,,,,,,,,,,,,,,,,,,,,,,,,,,,,,,,,,,,,,,,,,,,,,,,,,,,,,,,,,,,,,,,,,,,,,,,,,,,,,,,,,
,,67dae998d8f2cfb8a8e3bf03,2026-03-17_16h11.24.345,kallum_motion_pilot_GIST_update_2,2026.1.1,Win32,60.24096386,67dae998d8f2cfb8a8e3bf03,69b95efdef24cd8a694e89ee,69b9609275353e1a76186204,0.0223,0.0223,1,8,170,138,1,sixfive,,,,,,,,,,,,,,,,,,,,,,,,,,,,,,,,,,,,,,,,,,,,,,,,,,,,,,,,,,,,,,,,,,,,,,,,,,,,,,,,,,,,,,,,,,,,,,,,,,,,,,,,,,,,,,,,,,,,,,,,,,,,,,,,,,,,,,,,,
,,67dae998d8f2cfb8a8e3bf03,2026-03-17_16h11.24.345,kallum_motion_pilot_GIST_update_2,2026.1.1,Win32,60.24096386,67dae998d8f2cfb8a8e3bf03,69b95efdef24cd8a694e89ee,69b9609275353e1a76186204,0.0224,0.0224,1,9,171,34,1,twoone,,,,,,,,,,,,,,,,,,,,,,,,,,,,,,,,,,,,,,,,,,,,,,,,,,,,,,,,,,,,,,,,,,,,,,,,,,,,,,,,,,,,,,,,,,,,,,,,,,,,,,,,,,,,,,,,,,,,,,,,,,,,,,,,,,,,,,,,,
,,67dae998d8f2cfb8a8e3bf03,2026-03-17_16h11.24.345,kallum_motion_pilot_GIST_update_2,2026.1.1,Win32,60.24096386,67dae998d8f2cfb8a8e3bf03,69b95efdef24cd8a694e89ee,69b9609275353e1a76186204,0.0224,0.0224,1,10,172,5,1,threefour,,,,,,,,,,,,,,,,,,,,,,,,,,,,,,,,,,,,,,,,,,,,,,,,,,,,,,,,,,,,,,,,,,,,,,,,,,,,,,,,,,,,,,,,,,,,,,,,,,,,,,,,,,,,,,,,,,,,,,,,,,,,,,,,,,,,,,,,,
,,67dae998d8f2cfb8a8e3bf03,2026-03-17_16h11.24.345,kallum_motion_pilot_GIST_update_2,2026.1.1,Win32,60.24096386,67dae998d8f2cfb8a8e3bf03,69b95efdef24cd8a694e89ee,69b9609275353e1a76186204,0.0225,0.0225,1,11,173,2,1,twoone,,,,,,,,,,,,,,,,,,,,,,,,,,,,,,,,,,,,,,,,,,,,,,,,,,,,,,,,,,,,,,,,,,,,,,,,,,,,,,,,,,,,,,,,,,,,,,,,,,,,,,,,,,,,,,,,,,,,,,,,,,,,,,,,,,,,,,,,,
,,67dae998d8f2cfb8a8e3bf03,2026-03-17_16h11.24.345,kallum_motion_pilot_GIST_update_2,2026.1.1,Win32,60.24096386,67dae998d8f2cfb8a8e3bf03,69b95efdef24cd8a694e89ee,69b9609275353e1a76186204,0.0225,0.0225,1,12,174,62,1,fourtwo,,,,,,,,,,,,,,,,,,,,,,,,,,,,,,,,,,,,,,,,,,,,,,,,,,,,,,,,,,,,,,,,,,,,,,,,,,,,,,,,,,,,,,,,,,,,,,,,,,,,,,,,,,,,,,,,,,,,,,,,,,,,,,,,,,,,,,,,,
,,67dae998d8f2cfb8a8e3bf03,2026-03-17_16h11.24.345,kallum_motion_pilot_GIST_update_2,2026.1.1,Win32,60.24096386,67dae998d8f2cfb8a8e3bf03,69b95efdef24cd8a694e89ee,69b9609275353e1a76186204,0.0226,0.0226,1,13,175,131,1,sixeight,,,,,,,,,,,,,,,,,,,,,,,,,,,,,,,,,,,,,,,,,,,,,,,,,,,,,,,,,,,,,,,,,,,,,,,,,,,,,,,,,,,,,,,,,,,,,,,,,,,,,,,,,,,,,,,,,,,,,,,,,,,,,,,,,,,,,,,,,
,,67dae998d8f2cfb8a8e3bf03,2026-03-17_16h11.24.345,kallum_motion_pilot_GIST_update_2,2026.1.1,Win32,60.24096386,67dae998d8f2cfb8a8e3bf03,69b95efdef24cd8a694e89ee,69b9609275353e1a76186204,0.0227,0.0227,1,14,176,64,1,onetwo,,,,,,,,,,,,,,,,,,,,,,,,,,,,,,,,,,,,,,,,,,,,,,,,,,,,,,,,,,,,,,,,,,,,,,,,,,,,,,,,,,,,,,,,,,,,,,,,,,,,,,,,,,,,,,,,,,,,,,,,,,,,,,,,,,,,,,,,,
,,67dae998d8f2cfb8a8e3bf03,2026-03-17_16h11.24.345,kallum_motion_pilot_GIST_update_2,2026.1.1,Win32,60.24096386,67dae998d8f2cfb8a8e3bf03,69b95efdef24cd8a694e89ee,69b9609275353e1a76186204,0.0227,0.0227,1,15,177,18,1,twoone,,,,,,,,,,,,,,,,,,,,,,,,,,,,,,,,,,,,,,,,,,,,,,,,,,,,,,,,,,,,,,,,,,,,,,,,,,,,,,,,,,,,,,,,,,,,,,,,,,,,,,,,,,,,,,,,,,,,,,,,,,,,,,,,,,,,,,,,,
,,67dae998d8f2cfb8a8e3bf03,2026-03-17_16h11.24.345,kallum_motion_pilot_GIST_update_2,2026.1.1,Win32,60.24096386,67dae998d8f2cfb8a8e3bf03,69b95efdef24cd8a694e89ee,69b9609275353e1a76186204,0.0228,0.0228,1,16,178,85,1,seveneight,,,,,,,,,,,,,,,,,,,,,,,,,,,,,,,,,,,,,,,,,,,,,,,,,,,,,,,,,,,,,,,,,,,,,,,,,,,,,,,,,,,,,,,,,,,,,,,,,,,,,,,,,,,,,,,,,,,,,,,,,,,,,,,,,,,,,,,,,
,,67dae998d8f2cfb8a8e3bf03,2026-03-17_16h11.24.345,kallum_motion_pilot_GIST_update_2,2026.1.1,Win32,60.24096386,67dae998d8f2cfb8a8e3bf03,69b95efdef24cd8a694e89ee,69b9609275353e1a76186204,0.0229,0.0229,1,17,179,87,1,eightseven,,,,,,,,,,,,,,,,,,,,,,,,,,,,,,,,,,,,,,,,,,,,,,,,,,,,,,,,,,,,,,,,,,,,,,,,,,,,,,,,,,,,,,,,,,,,,,,,,,,,,,,,,,,,,,,,,,,,,,,,,,,,,,,,,,,,,,,,,
,,67dae998d8f2cfb8a8e3bf03,2026-03-17_16h11.24.345,kallum_motion_pilot_GIST_update_2,2026.1.1,Win32,60.24096386,67dae998d8f2cfb8a8e3bf03,69b95efdef24cd8a694e89ee,69b9609275353e1a76186204,0.0229,0.0229,1,18,180,0,1,onetwo,,,,,,,,,,,,,,,,,,,,,,,,,,,,,,,,,,,,,,,,,,,,,,,,,,,,,,,,,,,,,,,,,,,,,,,,,,,,,,,,,,,,,,,,,,,,,,,,,,,,,,,,,,,,,,,,,,,,,,,,,,,,,,,,,,,,,,,,,
,,67dae998d8f2cfb8a8e3bf03,2026-03-17_16h11.24.345,kallum_motion_pilot_GIST_update_2,2026.1.1,Win32,60.24096386,67dae998d8f2cfb8a8e3bf03,69b95efdef24cd8a694e89ee,69b9609275353e1a76186204,0.0229,0.0229,1,19,181,50,1,twoone,,,,,,,,,,,,,,,,,,,,,,,,,,,,,,,,,,,,,,,,,,,,,,,,,,,,,,,,,,,,,,,,,,,,,,,,,,,,,,,,,,,,,,,,,,,,,,,,,,,,,,,,,,,,,,,,,,,,,,,,,,,,,,,,,,,,,,,,,
,,67dae998d8f2cfb8a8e3bf03,2026-03-17_16h11.24.345,kallum_motion_pilot_GIST_update_2,2026.1.1,Win32,60.24096386,67dae998d8f2cfb8a8e3bf03,69b95efdef24cd8a694e89ee,69b9609275353e1a76186204,0.0231,0.0231,1,20,182,79,1,eightseven,,,,,,,,,,,,,,,,,,,,,,,,,,,,,,,,,,,,,,,,,,,,,,,,,,,,,,,,,,,,,,,,,,,,,,,,,,,,,,,,,,,,,,,,,,,,,,,,,,,,,,,,,,,,,,,,,,,,,,,,,,,,,,,,,,,,,,,,,
,,67dae998d8f2cfb8a8e3bf03,2026-03-17_16h11.24.345,kallum_motion_pilot_GIST_update_2,2026.1.1,Win32,60.24096386,67dae998d8f2cfb8a8e3bf03,69b95efdef24cd8a694e89ee,69b9609275353e1a76186204,0.0231,0.0231,1,21,183,121,1,fiveseven,,,,,,,,,,,,,,,,,,,,,,,,,,,,,,,,,,,,,,,,,,,,,,,,,,,,,,,,,,,,,,,,,,,,,,,,,,,,,,,,,,,,,,,,,,,,,,,,,,,,,,,,,,,,,,,,,,,,,,,,,,,,,,,,,,,,,,,,,
,,67dae998d8f2cfb8a8e3bf03,2026-03-17_16h11.24.345,kallum_motion_pilot_GIST_update_2,2026.1.1,Win32,60.24096386,67dae998d8f2cfb8a8e3bf03,69b95efdef24cd8a694e89ee,69b9609275353e1a76186204,0.0231,0.0231,1,22,184,4,1,threeone,,,,,,,,,,,,,,,,,,,,,,,,,,,,,,,,,,,,,,,,,,,,,,,,,,,,,,,,,,,,,,,,,,,,,,,,,,,,,,,,,,,,,,,,,,,,,,,,,,,,,,,,,,,,,,,,,,,,,,,,,,,,,,,,,,,,,,,,,
,,67dae998d8f2cfb8a8e3bf03,2026-03-17_16h11.24.345,kallum_motion_pilot_GIST_update_2,2026.1.1,Win32,60.24096386,67dae998d8f2cfb8a8e3bf03,69b95efdef24cd8a694e89ee,69b9609275353e1a76186204,0.0232,0.0232,1,23,185,145,1,fiveseven,,,,,,,,,,,,,,,,,,,,,,,,,,,,,,,,,,,,,,,,,,,,,,,,,,,,,,,,,,,,,,,,,,,,,,,,,,,,,,,,,,,,,,,,,,,,,,,,,,,,,,,,,,,,,,,,,,,,,,,,,,,,,,,,,,,,,,,,,
,,67dae998d8f2cfb8a8e3bf03,2026-03-17_16h11.24.345,kallum_motion_pilot_GIST_update_2,2026.1.1,Win32,60.24096386,67dae998d8f2cfb8a8e3bf03,69b95efdef24cd8a694e89ee,69b9609275353e1a76186204,0.0233,0.0233,1,24,186,24,1,onetwo,,,,,,,,,,,,,,,,,,,,,,,,,,,,,,,,,,,,,,,,,,,,,,,,,,,,,,,,,,,,,,,,,,,,,,,,,,,,,,,,,,,,,,,,,,,,,,,,,,,,,,,,,,,,,,,,,,,,,,,,,,,,,,,,,,,,,,,,,
,,67dae998d8f2cfb8a8e3bf03,2026-03-17_16h11.24.345,kallum_motion_pilot_GIST_update_2,2026.1.1,Win32,60.24096386,67dae998d8f2cfb8a8e3bf03,69b95efdef24cd8a694e89ee,69b9609275353e1a76186204,0.0234,0.0234,1,25,187,23,1,fourthree,,,,,,,,,,,,,,,,,,,,,,,,,,,,,,,,,,,,,,,,,,,,,,,,,,,,,,,,,,,,,,,,,,,,,,,,,,,,,,,,,,,,,,,,,,,,,,,,,,,,,,,,,,,,,,,,,,,,,,,,,,,,,,,,,,,,,,,,,
,,67dae998d8f2cfb8a8e3bf03,2026-03-17_16h11.24.345,kallum_motion_pilot_GIST_update_2,2026.1.1,Win32,60.24096386,67dae998d8f2cfb8a8e3bf03,69b95efdef24cd8a694e89ee,69b9609275353e1a76186204,0.0234,0.0234,1,26,188,126,1,eightsix,,,,,,,,,,,,,,,,,,,,,,,,,,,,,,,,,,,,,,,,,,,,,,,,,,,,,,,,,,,,,,,,,,,,,,,,,,,,,,,,,,,,,,,,,,,,,,,,,,,,,,,,,,,,,,,,,,,,,,,,,,,,,,,,,,,,,,,,,
,,67dae998d8f2cfb8a8e3bf03,2026-03-17_16h11.24.345,kallum_motion_pilot_GIST_update_2,2026.1.1,Win32,60.24096386,67dae998d8f2cfb8a8e3bf03,69b95efdef24cd8a694e89ee,69b9609275353e1a76186204,0.0235,0.0235,1,27,189,134,1,eightsix,,,,,,,,,,,,,,,,,,,,,,,,,,,,,,,,,,,,,,,,,,,,,,,,,,,,,,,,,,,,,,,,,,,,,,,,,,,,,,,,,,,,,,,,,,,,,,,,,,,,,,,,,,,,,,,,,,,,,,,,,,,,,,,,,,,,,,,,,
,,67dae998d8f2cfb8a8e3bf03,2026-03-17_16h11.24.345,kallum_motion_pilot_GIST_update_2,2026.1.1,Win32,60.24096386,67dae998d8f2cfb8a8e3bf03,69b95efdef24cd8a694e89ee,69b9609275353e1a76186204,0.0235,0.0235,1,28,190,15,1,fourthree,,,,,,,,,,,,,,,,,,,,,,,,,,,,,,,,,,,,,,,,,,,,,,,,,,,,,,,,,,,,,,,,,,,,,,,,,,,,,,,,,,,,,,,,,,,,,,,,,,,,,,,,,,,,,,,,,,,,,,,,,,,,,,,,,,,,,,,,,
,,67dae998d8f2cfb8a8e3bf03,2026-03-17_16h11.24.345,kallum_motion_pilot_GIST_update_2,2026.1.1,Win32,60.24096386,67dae998d8f2cfb8a8e3bf03,69b95efdef24cd8a694e89ee,69b9609275353e1a76186204,0.0236,0.0236,1,29,191,6,1,fourtwo,,,,,,,,,,,,,,,,,,,,,,,,,,,,,,,,,,,,,,,,,,,,,,,,,,,,,,,,,,,,,,,,,,,,,,,,,,,,,,,,,,,,,,,,,,,,,,,,,,,,,,,,,,,,,,,,,,,,,,,,,,,,,,,,,,,,,,,,,
,,67dae998d8f2cfb8a8e3bf03,2026-03-17_16h11.24.345,kallum_motion_pilot_GIST_update_2,2026.1.1,Win32,60.24096386,67dae998d8f2cfb8a8e3bf03,69b95efdef24cd8a694e89ee,69b9609275353e1a76186204,0.0237,0.0237,1,30,192,65,1,onethree,,,,,,,,,,,,,,,,,,,,,,,,,,,,,,,,,,,,,,,,,,,,,,,,,,,,,,,,,,,,,,,,,,,,,,,,,,,,,,,,,,,,,,,,,,,,,,,,,,,,,,,,,,,,,,,,,,,,,,,,,,,,,,,,,,,,,,,,,
,,67dae998d8f2cfb8a8e3bf03,2026-03-17_16h11.24.345,kallum_motion_pilot_GIST_update_2,2026.1.1,Win32,60.24096386,67dae998d8f2cfb8a8e3bf03,69b95efdef24cd8a694e89ee,69b9609275353e1a76186204,0.0237,0.0237,1,31,193,31,1,fourthree,,,,,,,,,,,,,,,,,,,,,,,,,,,,,,,,,,,,,,,,,,,,,,,,,,,,,,,,,,,,,,,,,,,,,,,,,,,,,,,,,,,,,,,,,,,,,,,,,,,,,,,,,,,,,,,,,,,,,,,,,,,,,,,,,,,,,,,,,
,,67dae998d8f2cfb8a8e3bf03,2026-03-17_16h11.24.345,kallum_motion_pilot_GIST_update_2,2026.1.1,Win32,60.24096386,67dae998d8f2cfb8a8e3bf03,69b95efdef24cd8a694e89ee,69b9609275353e1a76186204,0.0238,0.0238,1,32,194,116,1,sevenfive,,,,,,,,,,,,,,,,,,,,,,,,,,,,,,,,,,,,,,,,,,,,,,,,,,,,,,,,,,,,,,,,,,,,,,,,,,,,,,,,,,,,,,,,,,,,,,,,,,,,,,,,,,,,,,,,,,,,,,,,,,,,,,,,,,,,,,,,,
,,67dae998d8f2cfb8a8e3bf03,2026-03-17_16h11.24.345,kallum_motion_pilot_GIST_update_2,2026.1.1,Win32,60.24096386,67dae998d8f2cfb8a8e3bf03,69b95efdef24cd8a694e89ee,69b9609275353e1a76186204,0.0238,0.0238,1,33,195,109,1,seveneight,,,,,,,,,,,,,,,,,,,,,,,,,,,,,,,,,,,,,,,,,,,,,,,,,,,,,,,,,,,,,,,,,,,,,,,,,,,,,,,,,,,,,,,,,,,,,,,,,,,,,,,,,,,,,,,,,,,,,,,,,,,,,,,,,,,,,,,,,
,,67dae998d8f2cfb8a8e3bf03,2026-03-17_16h11.24.345,kallum_motion_pilot_GIST_update_2,2026.1.1,Win32,60.24096386,67dae998d8f2cfb8a8e3bf03,69b95efdef24cd8a694e89ee,69b9609275353e1a76186204,0.024,0.024,1,34,196,49,1,onethree,,,,,,,,,,,,,,,,,,,,,,,,,,,,,,,,,,,,,,,,,,,,,,,,,,,,,,,,,,,,,,,,,,,,,,,,,,,,,,,,,,,,,,,,,,,,,,,,,,,,,,,,,,,,,,,,,,,,,,,,,,,,,,,,,,,,,,,,,
,,67dae998d8f2cfb8a8e3bf03,2026-03-17_16h11.24.345,kallum_motion_pilot_GIST_update_2,2026.1.1,Win32,60.24096386,67dae998d8f2cfb8a8e3bf03,69b95efdef24cd8a694e89ee,69b9609275353e1a76186204,0.024,0.024,1,35,197,74,1,twoone,,,,,,,,,,,,,,,,,,,,,,,,,,,,,,,,,,,,,,,,,,,,,,,,,,,,,,,,,,,,,,,,,,,,,,,,,,,,,,,,,,,,,,,,,,,,,,,,,,,,,,,,,,,,,,,,,,,,,,,,,,,,,,,,,,,,,,,,,
,,67dae998d8f2cfb8a8e3bf03,2026-03-17_16h11.24.345,kallum_motion_pilot_GIST_update_2,2026.1.1,Win32,60.24096386,67dae998d8f2cfb8a8e3bf03,69b95efdef24cd8a694e89ee,69b9609275353e1a76186204,0.024,0.024,1,36,198,78,1,fourtwo,,,,,,,,,,,,,,,,,,,,,,,,,,,,,,,,,,,,,,,,,,,,,,,,,,,,,,,,,,,,,,,,,,,,,,,,,,,,,,,,,,,,,,,,,,,,,,,,,,,,,,,,,,,,,,,,,,,,,,,,,,,,,,,,,,,,,,,,,
,,67dae998d8f2cfb8a8e3bf03,2026-03-17_16h11.24.345,kallum_motion_pilot_GIST_update_2,2026.1.1,Win32,60.24096386,67dae998d8f2cfb8a8e3bf03,69b95efdef24cd8a694e89ee,69b9609275353e1a76186204,0.0241,0.0241,1,37,199,86,1,eightsix,,,,,,,,,,,,,,,,,,,,,,,,,,,,,,,,,,,,,,,,,,,,,,,,,,,,,,,,,,,,,,,,,,,,,,,,,,,,,,,,,,,,,,,,,,,,,,,,,,,,,,,,,,,,,,,,,,,,,,,,,,,,,,,,,,,,,,,,,
,,67dae998d8f2cfb8a8e3bf03,2026-03-17_16h11.24.345,kallum_motion_pilot_GIST_update_2,2026.1.1,Win32,60.24096386,67dae998d8f2cfb8a8e3bf03,69b95efdef24cd8a694e89ee,69b9609275353e1a76186204,0.0242,0.0242,1,38,200,97,1,fiveseven,,,,,,,,,,,,,,,,,,,,,,,,,,,,,,,,,,,,,,,,,,,,,,,,,,,,,,,,,,,,,,,,,,,,,,,,,,,,,,,,,,,,,,,,,,,,,,,,,,,,,,,,,,,,,,,,,,,,,,,,,,,,,,,,,,,,,,,,,
,,67dae998d8f2cfb8a8e3bf03,2026-03-17_16h11.24.345,kallum_motion_pilot_GIST_update_2,2026.1.1,Win32,60.24096386,67dae998d8f2cfb8a8e3bf03,69b95efdef24cd8a694e89ee,69b9609275353e1a76186204,0.0243,0.0243,1,39,201,104,1,fivesix,,,,,,,,,,,,,,,,,,,,,,,,,,,,,,,,,,,,,,,,,,,,,,,,,,,,,,,,,,,,,,,,,,,,,,,,,,,,,,,,,,,,,,,,,,,,,,,,,,,,,,,,,,,,,,,,,,,,,,,,,,,,,,,,,,,,,,,,,
,,67dae998d8f2cfb8a8e3bf03,2026-03-17_16h11.24.345,kallum_motion_pilot_GIST_update_2,2026.1.1,Win32,60.24096386,67dae998d8f2cfb8a8e3bf03,69b95efdef24cd8a694e89ee,69b9609275353e1a76186204,0.0243,0.0243,1,40,202,67,1,twofour,,,,,,,,,,,,,,,,,,,,,,,,,,,,,,,,,,,,,,,,,,,,,,,,,,,,,,,,,,,,,,,,,,,,,,,,,,,,,,,,,,,,,,,,,,,,,,,,,,,,,,,,,,,,,,,,,,,,,,,,,,,,,,,,,,,,,,,,,
,,67dae998d8f2cfb8a8e3bf03,2026-03-17_16h11.24.345,kallum_motion_pilot_GIST_update_2,2026.1.1,Win32,60.24096386,67dae998d8f2cfb8a8e3bf03,69b95efdef24cd8a694e89ee,69b9609275353e1a76186204,0.0244,0.0244,1,41,203,144,1,fivesix,,,,,,,,,,,,,,,,,,,,,,,,,,,,,,,,,,,,,,,,,,,,,,,,,,,,,,,,,,,,,,,,,,,,,,,,,,,,,,,,,,,,,,,,,,,,,,,,,,,,,,,,,,,,,,,,,,,,,,,,,,,,,,,,,,,,,,,,,
,,67dae998d8f2cfb8a8e3bf03,2026-03-17_16h11.24.345,kallum_motion_pilot_GIST_update_2,2026.1.1,Win32,60.24096386,67dae998d8f2cfb8a8e3bf03,69b95efdef24cd8a694e89ee,69b9609275353e1a76186204,0.0244,0.0244,1,42,204,56,1,onetwo,,,,,,,,,,,,,,,,,,,,,,,,,,,,,,,,,,,,,,,,,,,,,,,,,,,,,,,,,,,,,,,,,,,,,,,,,,,,,,,,,,,,,,,,,,,,,,,,,,,,,,,,,,,,,,,,,,,,,,,,,,,,,,,,,,,,,,,,,
,,67dae998d8f2cfb8a8e3bf03,2026-03-17_16h11.24.345,kallum_motion_pilot_GIST_update_2,2026.1.1,Win32,60.24096386,67dae998d8f2cfb8a8e3bf03,69b95efdef24cd8a694e89ee,69b9609275353e1a76186204,0.0245,0.0245,1,43,205,58,1,twoone,,,,,,,,,,,,,,,,,,,,,,,,,,,,,,,,,,,,,,,,,,,,,,,,,,,,,,,,,,,,,,,,,,,,,,,,,,,,,,,,,,,,,,,,,,,,,,,,,,,,,,,,,,,,,,,,,,,,,,,,,,,,,,,,,,,,,,,,,
,,67dae998d8f2cfb8a8e3bf03,2026-03-17_16h11.24.345,kallum_motion_pilot_GIST_update_2,2026.1.1,Win32,60.24096386,67dae998d8f2cfb8a8e3bf03,69b95efdef24cd8a694e89ee,69b9609275353e1a76186204,0.0246,0.0246,1,44,206,39,1,fourthree,,,,,,,,,,,,,,,,,,,,,,,,,,,,,,,,,,,,,,,,,,,,,,,,,,,,,,,,,,,,,,,,,,,,,,,,,,,,,,,,,,,,,,,,,,,,,,,,,,,,,,,,,,,,,,,,,,,,,,,,,,,,,,,,,,,,,,,,,
,,67dae998d8f2cfb8a8e3bf03,2026-03-17_16h11.24.345,kallum_motion_pilot_GIST_update_2,2026.1.1,Win32,60.24096386,67dae998d8f2cfb8a8e3bf03,69b95efdef24cd8a694e89ee,69b9609275353e1a76186204,0.0247,0.0247,1,45,207,139,1,sixeight,,,,,,,,,,,,,,,,,,,,,,,,,,,,,,,,,,,,,,,,,,,,,,,,,,,,,,,,,,,,,,,,,,,,,,,,,,,,,,,,,,,,,,,,,,,,,,,,,,,,,,,,,,,,,,,,,,,,,,,,,,,,,,,,,,,,,,,,,
,,67dae998d8f2cfb8a8e3bf03,2026-03-17_16h11.24.345,kallum_motion_pilot_GIST_update_2,2026.1.1,Win32,60.24096386,67dae998d8f2cfb8a8e3bf03,69b95efdef24cd8a694e89ee,69b9609275353e1a76186204,0.0247,0.0247,1,46,208,128,1,fivesix,,,,,,,,,,,,,,,,,,,,,,,,,,,,,,,,,,,,,,,,,,,,,,,,,,,,,,,,,,,,,,,,,,,,,,,,,,,,,,,,,,,,,,,,,,,,,,,,,,,,,,,,,,,,,,,,,,,,,,,,,,,,,,,,,,,,,,,,,
,,67dae998d8f2cfb8a8e3bf03,2026-03-17_16h11.24.345,kallum_motion_pilot_GIST_update_2,2026.1.1,Win32,60.24096386,67dae998d8f2cfb8a8e3bf03,69b95efdef24cd8a694e89ee,69b9609275353e1a76186204,0.0248,0.0248,1,47,209,61,1,threefour,,,,,,,,,,,,,,,,,,,,,,,,,,,,,,,,,,,,,,,,,,,,,,,,,,,,,,,,,,,,,,,,,,,,,,,,,,,,,,,,,,,,,,,,,,,,,,,,,,,,,,,,,,,,,,,,,,,,,,,,,,,,,,,,,,,,,,,,,
,,67dae998d8f2cfb8a8e3bf03,2026-03-17_16h11.24.345,kallum_motion_pilot_GIST_update_2,2026.1.1,Win32,60.24096386,67dae998d8f2cfb8a8e3bf03,69b95efdef24cd8a694e89ee,69b9609275353e1a76186204,0.0249,0.0249,1,48,210,44,1,threeone,,,,,,,,,,,,,,,,,,,,,,,,,,,,,,,,,,,,,,,,,,,,,,,,,,,,,,,,,,,,,,,,,,,,,,,,,,,,,,,,,,,,,,,,,,,,,,,,,,,,,,,,,,,,,,,,,,,,,,,,,,,,,,,,,,,,,,,,,
,,67dae998d8f2cfb8a8e3bf03,2026-03-17_16h11.24.345,kallum_motion_pilot_GIST_update_2,2026.1.1,Win32,60.24096386,67dae998d8f2cfb8a8e3bf03,69b95efdef24cd8a694e89ee,69b9609275353e1a76186204,0.0249,0.0249,1,49,211,22,1,fourtwo,,,,,,,,,,,,,,,,,,,,,,,,,,,,,,,,,,,,,,,,,,,,,,,,,,,,,,,,,,,,,,,,,,,,,,,,,,,,,,,,,,,,,,,,,,,,,,,,,,,,,,,,,,,,,,,,,,,,,,,,,,,,,,,,,,,,,,,,,
,,67dae998d8f2cfb8a8e3bf03,2026-03-17_16h11.24.345,kallum_motion_pilot_GIST_update_2,2026.1.1,Win32,60.24096386,67dae998d8f2cfb8a8e3bf03,69b95efdef24cd8a694e89ee,69b9609275353e1a76186204,0.025,0.025,1,50,212,150,1,eightsix,,,,,,,,,,,,,,,,,,,,,,,,,,,,,,,,,,,,,,,,,,,,,,,,,,,,,,,,,,,,,,,,,,,,,,,,,,,,,,,,,,,,,,,,,,,,,,,,,,,,,,,,,,,,,,,,,,,,,,,,,,,,,,,,,,,,,,,,,
,,67dae998d8f2cfb8a8e3bf03,2026-03-17_16h11.24.345,kallum_motion_pilot_GIST_update_2,2026.1.1,Win32,60.24096386,67dae998d8f2cfb8a8e3bf03,69b95efdef24cd8a694e89ee,69b9609275353e1a76186204,0.0251,0.0251,1,51,213,35,1,twofour,,,,,,,,,,,,,,,,,,,,,,,,,,,,,,,,,,,,,,,,,,,,,,,,,,,,,,,,,,,,,,,,,,,,,,,,,,,,,,,,,,,,,,,,,,,,,,,,,,,,,,,,,,,,,,,,,,,,,,,,,,,,,,,,,,,,,,,,,
,,67dae998d8f2cfb8a8e3bf03,2026-03-17_16h11.24.345,kallum_motion_pilot_GIST_update_2,2026.1.1,Win32,60.24096386,67dae998d8f2cfb8a8e3bf03,69b95efdef24cd8a694e89ee,69b9609275353e1a76186204,0.0252,0.0252,1,52,214,71,1,fourthree,,,,,,,,,,,,,,,,,,,,,,,,,,,,,,,,,,,,,,,,,,,,,,,,,,,,,,,,,,,,,,,,,,,,,,,,,,,,,,,,,,,,,,,,,,,,,,,,,,,,,,,,,,,,,,,,,,,,,,,,,,,,,,,,,,,,,,,,,
,,67dae998d8f2cfb8a8e3bf03,2026-03-17_16h11.24.345,kallum_motion_pilot_GIST_update_2,2026.1.1,Win32,60.24096386,67dae998d8f2cfb8a8e3bf03,69b95efdef24cd8a694e89ee,69b9609275353e1a76186204,0.0253,0.0253,1,53,215,124,1,sevenfive,,,,,,,,,,,,,,,,,,,,,,,,,,,,,,,,,,,,,,,,,,,,,,,,,,,,,,,,,,,,,,,,,,,,,,,,,,,,,,,,,,,,,,,,,,,,,,,,,,,,,,,,,,,,,,,,,,,,,,,,,,,,,,,,,,,,,,,,,
,,67dae998d8f2cfb8a8e3bf03,2026-03-17_16h11.24.345,kallum_motion_pilot_GIST_update_2,2026.1.1,Win32,60.24096386,67dae998d8f2cfb8a8e3bf03,69b95efdef24cd8a694e89ee,69b9609275353e1a76186204,0.0254,0.0254,1,54,216,32,1,onetwo,,,,,,,,,,,,,,,,,,,,,,,,,,,,,,,,,,,,,,,,,,,,,,,,,,,,,,,,,,,,,,,,,,,,,,,,,,,,,,,,,,,,,,,,,,,,,,,,,,,,,,,,,,,,,,,,,,,,,,,,,,,,,,,,,,,,,,,,,
,,67dae998d8f2cfb8a8e3bf03,2026-03-17_16h11.24.345,kallum_motion_pilot_GIST_update_2,2026.1.1,Win32,60.24096386,67dae998d8f2cfb8a8e3bf03,69b95efdef24cd8a694e89ee,69b9609275353e1a76186204,0.0254,0.0254,1,55,217,1,1,onethree,,,,,,,,,,,,,,,,,,,,,,,,,,,,,,,,,,,,,,,,,,,,,,,,,,,,,,,,,,,,,,,,,,,,,,,,,,,,,,,,,,,,,,,,,,,,,,,,,,,,,,,,,,,,,,,,,,,,,,,,,,,,,,,,,,,,,,,,,
,,67dae998d8f2cfb8a8e3bf03,2026-03-17_16h11.24.345,kallum_motion_pilot_GIST_update_2,2026.1.1,Win32,60.24096386,67dae998d8f2cfb8a8e3bf03,69b95efdef24cd8a694e89ee,69b9609275353e1a76186204,0.0255,0.0255,1,56,218,11,1,twofour,,,,,,,,,,,,,,,,,,,,,,,,,,,,,,,,,,,,,,,,,,,,,,,,,,,,,,,,,,,,,,,,,,,,,,,,,,,,,,,,,,,,,,,,,,,,,,,,,,,,,,,,,,,,,,,,,,,,,,,,,,,,,,,,,,,,,,,,,
,,67dae998d8f2cfb8a8e3bf03,2026-03-17_16h11.24.345,kallum_motion_pilot_GIST_update_2,2026.1.1,Win32,60.24096386,67dae998d8f2cfb8a8e3bf03,69b95efdef24cd8a694e89ee,69b9609275353e1a76186204,0.0256,0.0256,1,57,219,133,1,seveneight,,,,,,,,,,,,,,,,,,,,,,,,,,,,,,,,,,,,,,,,,,,,,,,,,,,,,,,,,,,,,,,,,,,,,,,,,,,,,,,,,,,,,,,,,,,,,,,,,,,,,,,,,,,,,,,,,,,,,,,,,,,,,,,,,,,,,,,,,
,,67dae998d8f2cfb8a8e3bf03,2026-03-17_16h11.24.345,kallum_motion_pilot_GIST_update_2,2026.1.1,Win32,60.24096386,67dae998d8f2cfb8a8e3bf03,69b95efdef24cd8a694e89ee,69b9609275353e1a76186204,0.0256,0.0256,1,58,220,53,1,threefour,,,,,,,,,,,,,,,,,,,,,,,,,,,,,,,,,,,,,,,,,,,,,,,,,,,,,,,,,,,,,,,,,,,,,,,,,,,,,,,,,,,,,,,,,,,,,,,,,,,,,,,,,,,,,,,,,,,,,,,,,,,,,,,,,,,,,,,,,
,,67dae998d8f2cfb8a8e3bf03,2026-03-17_16h11.24.345,kallum_motion_pilot_GIST_update_2,2026.1.1,Win32,60.24096386,67dae998d8f2cfb8a8e3bf03,69b95efdef24cd8a694e89ee,69b9609275353e1a76186204,0.0256,0.0256,1,59,221,140,1,sevenfive,,,,,,,,,,,,,,,,,,,,,,,,,,,,,,,,,,,,,,,,,,,,,,,,,,,,,,,,,,,,,,,,,,,,,,,,,,,,,,,,,,,,,,,,,,,,,,,,,,,,,,,,,,,,,,,,,,,,,,,,,,,,,,,,,,,,,,,,,
,,67dae998d8f2cfb8a8e3bf03,2026-03-17_16h11.24.345,kallum_motion_pilot_GIST_update_2,2026.1.1,Win32,60.24096386,67dae998d8f2cfb8a8e3bf03,69b95efdef24cd8a694e89ee,69b9609275353e1a76186204,0.0257,0.0257,1,60,222,93,1,seveneight,,,,,,,,,,,,,,,,,,,,,,,,,,,,,,,,,,,,,,,,,,,,,,,,,,,,,,,,,,,,,,,,,,,,,,,,,,,,,,,,,,,,,,,,,,,,,,,,,,,,,,,,,,,,,,,,,,,,,,,,,,,,,,,,,,,,,,,,,
,,67dae998d8f2cfb8a8e3bf03,2026-03-17_16h11.24.345,kallum_motion_pilot_GIST_update_2,2026.1.1,Win32,60.24096386,67dae998d8f2cfb8a8e3bf03,69b95efdef24cd8a694e89ee,69b9609275353e1a76186204,0.0258,0.0258,1,61,223,152,1,fivesix,,,,,,,,,,,,,,,,,,,,,,,,,,,,,,,,,,,,,,,,,,,,,,,,,,,,,,,,,,,,,,,,,,,,,,,,,,,,,,,,,,,,,,,,,,,,,,,,,,,,,,,,,,,,,,,,,,,,,,,,,,,,,,,,,,,,,,,,,
,,67dae998d8f2cfb8a8e3bf03,2026-03-17_16h11.24.345,kallum_motion_pilot_GIST_update_2,2026.1.1,Win32,60.24096386,67dae998d8f2cfb8a8e3bf03,69b95efdef24cd8a694e89ee,69b9609275353e1a76186204,0.0258,0.0258,1,62,224,77,1,threefour,,,,,,,,,,,,,,,,,,,,,,,,,,,,,,,,,,,,,,,,,,,,,,,,,,,,,,,,,,,,,,,,,,,,,,,,,,,,,,,,,,,,,,,,,,,,,,,,,,,,,,,,,,,,,,,,,,,,,,,,,,,,,,,,,,,,,,,,,
,,67dae998d8f2cfb8a8e3bf03,2026-03-17_16h11.24.345,kallum_motion_pilot_GIST_update_2,2026.1.1,Win32,60.24096386,67dae998d8f2cfb8a8e3bf03,69b95efdef24cd8a694e89ee,69b9609275353e1a76186204,0.026,0.026,1,63,225,47,1,fourthree,,,,,,,,,,,,,,,,,,,,,,,,,,,,,,,,,,,,,,,,,,,,,,,,,,,,,,,,,,,,,,,,,,,,,,,,,,,,,,,,,,,,,,,,,,,,,,,,,,,,,,,,,,,,,,,,,,,,,,,,,,,,,,,,,,,,,,,,,
,,67dae998d8f2cfb8a8e3bf03,2026-03-17_16h11.24.345,kallum_motion_pilot_GIST_update_2,2026.1.1,Win32,60.24096386,67dae998d8f2cfb8a8e3bf03,69b95efdef24cd8a694e89ee,69b9609275353e1a76186204,0.026,0.026,1,64,226,45,1,threefour,,,,,,,,,,,,,,,,,,,,,,,,,,,,,,,,,,,,,,,,,,,,,,,,,,,,,,,,,,,,,,,,,,,,,,,,,,,,,,,,,,,,,,,,,,,,,,,,,,,,,,,,,,,,,,,,,,,,,,,,,,,,,,,,,,,,,,,,,
,,67dae998d8f2cfb8a8e3bf03,2026-03-17_16h11.24.345,kallum_motion_pilot_GIST_update_2,2026.1.1,Win32,60.24096386,67dae998d8f2cfb8a8e3bf03,69b95efdef24cd8a694e89ee,69b9609275353e1a76186204,0.0261,0.0261,1,65,227,94,1,eightsix,,,,,,,,,,,,,,,,,,,,,,,,,,,,,,,,,,,,,,,,,,,,,,,,,,,,,,,,,,,,,,,,,,,,,,,,,,,,,,,,,,,,,,,,,,,,,,,,,,,,,,,,,,,,,,,,,,,,,,,,,,,,,,,,,,,,,,,,,
,,67dae998d8f2cfb8a8e3bf03,2026-03-17_16h11.24.345,kallum_motion_pilot_GIST_update_2,2026.1.1,Win32,60.24096386,67dae998d8f2cfb8a8e3bf03,69b95efdef24cd8a694e89ee,69b9609275353e1a76186204,0.0261,0.0261,1,66,228,13,1,threefour,,,,,,,,,,,,,,,,,,,,,,,,,,,,,,,,,,,,,,,,,,,,,,,,,,,,,,,,,,,,,,,,,,,,,,,,,,,,,,,,,,,,,,,,,,,,,,,,,,,,,,,,,,,,,,,,,,,,,,,,,,,,,,,,,,,,,,,,,
,,67dae998d8f2cfb8a8e3bf03,2026-03-17_16h11.24.345,kallum_motion_pilot_GIST_update_2,2026.1.1,Win32,60.24096386,67dae998d8f2cfb8a8e3bf03,69b95efdef24cd8a694e89ee,69b9609275353e1a76186204,0.0262,0.0262,1,67,229,147,1,sixeight,,,,,,,,,,,,,,,,,,,,,,,,,,,,,,,,,,,,,,,,,,,,,,,,,,,,,,,,,,,,,,,,,,,,,,,,,,,,,,,,,,,,,,,,,,,,,,,,,,,,,,,,,,,,,,,,,,,,,,,,,,,,,,,,,,,,,,,,,
,,67dae998d8f2cfb8a8e3bf03,2026-03-17_16h11.24.345,kallum_motion_pilot_GIST_update_2,2026.1.1,Win32,60.24096386,67dae998d8f2cfb8a8e3bf03,69b95efdef24cd8a694e89ee,69b9609275353e1a76186204,0.0262,0.0262,1,68,230,148,1,sevenfive,,,,,,,,,,,,,,,,,,,,,,,,,,,,,,,,,,,,,,,,,,,,,,,,,,,,,,,,,,,,,,,,,,,,,,,,,,,,,,,,,,,,,,,,,,,,,,,,,,,,,,,,,,,,,,,,,,,,,,,,,,,,,,,,,,,,,,,,,
,,67dae998d8f2cfb8a8e3bf03,2026-03-17_16h11.24.345,kallum_motion_pilot_GIST_update_2,2026.1.1,Win32,60.24096386,67dae998d8f2cfb8a8e3bf03,69b95efdef24cd8a694e89ee,69b9609275353e1a76186204,0.0263,0.0263,1,69,231,12,1,threeone,,,,,,,,,,,,,,,,,,,,,,,,,,,,,,,,,,,,,,,,,,,,,,,,,,,,,,,,,,,,,,,,,,,,,,,,,,,,,,,,,,,,,,,,,,,,,,,,,,,,,,,,,,,,,,,,,,,,,,,,,,,,,,,,,,,,,,,,,
,,67dae998d8f2cfb8a8e3bf03,2026-03-17_16h11.24.345,kallum_motion_pilot_GIST_update_2,2026.1.1,Win32,60.24096386,67dae998d8f2cfb8a8e3bf03,69b95efdef24cd8a694e89ee,69b9609275353e1a76186204,0.0264,0.0264,1,70,232,76,1,threeone,,,,,,,,,,,,,,,,,,,,,,,,,,,,,,,,,,,,,,,,,,,,,,,,,,,,,,,,,,,,,,,,,,,,,,,,,,,,,,,,,,,,,,,,,,,,,,,,,,,,,,,,,,,,,,,,,,,,,,,,,,,,,,,,,,,,,,,,,
,,67dae998d8f2cfb8a8e3bf03,2026-03-17_16h11.24.345,kallum_motion_pilot_GIST_update_2,2026.1.1,Win32,60.24096386,67dae998d8f2cfb8a8e3bf03,69b95efdef24cd8a694e89ee,69b9609275353e1a76186204,0.0264,0.0264,1,71,233,123,1,sixeight,,,,,,,,,,,,,,,,,,,,,,,,,,,,,,,,,,,,,,,,,,,,,,,,,,,,,,,,,,,,,,,,,,,,,,,,,,,,,,,,,,,,,,,,,,,,,,,,,,,,,,,,,,,,,,,,,,,,,,,,,,,,,,,,,,,,,,,,,
,,67dae998d8f2cfb8a8e3bf03,2026-03-17_16h11.24.345,kallum_motion_pilot_GIST_update_2,2026.1.1,Win32,60.24096386,67dae998d8f2cfb8a8e3bf03,69b95efdef24cd8a694e89ee,69b9609275353e1a76186204,0.0265,0.0265,1,72,234,132,1,sevenfive,,,,,,,,,,,,,,,,,,,,,,,,,,,,,,,,,,,,,,,,,,,,,,,,,,,,,,,,,,,,,,,,,,,,,,,,,,,,,,,,,,,,,,,,,,,,,,,,,,,,,,,,,,,,,,,,,,,,,,,,,,,,,,,,,,,,,,,,,
,,67dae998d8f2cfb8a8e3bf03,2026-03-17_16h11.24.345,kallum_motion_pilot_GIST_update_2,2026.1.1,Win32,60.24096386,67dae998d8f2cfb8a8e3bf03,69b95efdef24cd8a694e89ee,69b9609275353e1a76186204,0.0265,0.0266,1,73,235,119,1,eightseven,,,,,,,,,,,,,,,,,,,,,,,,,,,,,,,,,,,,,,,,,,,,,,,,,,,,,,,,,,,,,,,,,,,,,,,,,,,,,,,,,,,,,,,,,,,,,,,,,,,,,,,,,,,,,,,,,,,,,,,,,,,,,,,,,,,,,,,,,
,,67dae998d8f2cfb8a8e3bf03,2026-03-17_16h11.24.345,kallum_motion_pilot_GIST_update_2,2026.1.1,Win32,60.24096386,67dae998d8f2cfb8a8e3bf03,69b95efdef24cd8a694e89ee,69b9609275353e1a76186204,0.0267,0.0267,1,74,236,92,1,sevenfive,,,,,,,,,,,,,,,,,,,,,,,,,,,,,,,,,,,,,,,,,,,,,,,,,,,,,,,,,,,,,,,,,,,,,,,,,,,,,,,,,,,,,,,,,,,,,,,,,,,,,,,,,,,,,,,,,,,,,,,,,,,,,,,,,,,,,,,,,
,,67dae998d8f2cfb8a8e3bf03,2026-03-17_16h11.24.345,kallum_motion_pilot_GIST_update_2,2026.1.1,Win32,60.24096386,67dae998d8f2cfb8a8e3bf03,69b95efdef24cd8a694e89ee,69b9609275353e1a76186204,0.0267,0.0267,1,75,237,112,1,fivesix,,,,,,,,,,,,,,,,,,,,,,,,,,,,,,,,,,,,,,,,,,,,,,,,,,,,,,,,,,,,,,,,,,,,,,,,,,,,,,,,,,,,,,,,,,,,,,,,,,,,,,,,,,,,,,,,,,,,,,,,,,,,,,,,,,,,,,,,,
,,67dae998d8f2cfb8a8e3bf03,2026-03-17_16h11.24.345,kallum_motion_pilot_GIST_update_2,2026.1.1,Win32,60.24096386,67dae998d8f2cfb8a8e3bf03,69b95efdef24cd8a694e89ee,69b9609275353e1a76186204,0.0268,0.0268,1,76,238,66,1,twoone,,,,,,,,,,,,,,,,,,,,,,,,,,,,,,,,,,,,,,,,,,,,,,,,,,,,,,,,,,,,,,,,,,,,,,,,,,,,,,,,,,,,,,,,,,,,,,,,,,,,,,,,,,,,,,,,,,,,,,,,,,,,,,,,,,,,,,,,,
,,67dae998d8f2cfb8a8e3bf03,2026-03-17_16h11.24.345,kallum_motion_pilot_GIST_update_2,2026.1.1,Win32,60.24096386,67dae998d8f2cfb8a8e3bf03,69b95efdef24cd8a694e89ee,69b9609275353e1a76186204,0.0268,0.0268,1,77,239,122,1,sixfive,,,,,,,,,,,,,,,,,,,,,,,,,,,,,,,,,,,,,,,,,,,,,,,,,,,,,,,,,,,,,,,,,,,,,,,,,,,,,,,,,,,,,,,,,,,,,,,,,,,,,,,,,,,,,,,,,,,,,,,,,,,,,,,,,,,,,,,,,
,,67dae998d8f2cfb8a8e3bf03,2026-03-17_16h11.24.345,kallum_motion_pilot_GIST_update_2,2026.1.1,Win32,60.24096386,67dae998d8f2cfb8a8e3bf03,69b95efdef24cd8a694e89ee,69b9609275353e1a76186204,0.0269,0.0269,1,78,240,36,1,threeone,,,,,,,,,,,,,,,,,,,,,,,,,,,,,,,,,,,,,,,,,,,,,,,,,,,,,,,,,,,,,,,,,,,,,,,,,,,,,,,,,,,,,,,,,,,,,,,,,,,,,,,,,,,,,,,,,,,,,,,,,,,,,,,,,,,,,,,,,
,,67dae998d8f2cfb8a8e3bf03,2026-03-17_16h11.24.345,kallum_motion_pilot_GIST_update_2,2026.1.1,Win32,60.24096386,67dae998d8f2cfb8a8e3bf03,69b95efdef24cd8a694e89ee,69b9609275353e1a76186204,0.0269,0.0269,1,79,241,108,1,sevenfive,,,,,,,,,,,,,,,,,,,,,,,,,,,,,,,,,,,,,,,,,,,,,,,,,,,,,,,,,,,,,,,,,,,,,,,,,,,,,,,,,,,,,,,,,,,,,,,,,,,,,,,,,,,,,,,,,,,,,,,,,,,,,,,,,,,,,,,,,
,,67dae998d8f2cfb8a8e3bf03,2026-03-17_16h11.24.345,kallum_motion_pilot_GIST_update_2,2026.1.1,Win32,60.24096386,67dae998d8f2cfb8a8e3bf03,69b95efdef24cd8a694e89ee,69b9609275353e1a76186204,0.027,0.027,1,80,242,46,1,fourtwo,,,,,,,,,,,,,,,,,,,,,,,,,,,,,,,,,,,,,,,,,,,,,,,,,,,,,,,,,,,,,,,,,,,,,,,,,,,,,,,,,,,,,,,,,,,,,,,,,,,,,,,,,,,,,,,,,,,,,,,,,,,,,,,,,,,,,,,,,
,,67dae998d8f2cfb8a8e3bf03,2026-03-17_16h11.24.345,kallum_motion_pilot_GIST_update_2,2026.1.1,Win32,60.24096386,67dae998d8f2cfb8a8e3bf03,69b95efdef24cd8a694e89ee,69b9609275353e1a76186204,0.027,0.027,1,81,243,60,1,threeone,,,,,,,,,,,,,,,,,,,,,,,,,,,,,,,,,,,,,,,,,,,,,,,,,,,,,,,,,,,,,,,,,,,,,,,,,,,,,,,,,,,,,,,,,,,,,,,,,,,,,,,,,,,,,,,,,,,,,,,,,,,,,,,,,,,,,,,,,
,,67dae998d8f2cfb8a8e3bf03,2026-03-17_16h11.24.345,kallum_motion_pilot_GIST_update_2,2026.1.1,Win32,60.24096386,67dae998d8f2cfb8a8e3bf03,69b95efdef24cd8a694e89ee,69b9609275353e1a76186204,0.0272,0.0272,1,82,244,113,1,fiveseven,,,,,,,,,,,,,,,,,,,,,,,,,,,,,,,,,,,,,,,,,,,,,,,,,,,,,,,,,,,,,,,,,,,,,,,,,,,,,,,,,,,,,,,,,,,,,,,,,,,,,,,,,,,,,,,,,,,,,,,,,,,,,,,,,,,,,,,,,
,,67dae998d8f2cfb8a8e3bf03,2026-03-17_16h11.24.345,kallum_motion_pilot_GIST_update_2,2026.1.1,Win32,60.24096386,67dae998d8f2cfb8a8e3bf03,69b95efdef24cd8a694e89ee,69b9609275353e1a76186204,0.0272,0.0272,1,83,245,120,1,fivesix,,,,,,,,,,,,,,,,,,,,,,,,,,,,,,,,,,,,,,,,,,,,,,,,,,,,,,,,,,,,,,,,,,,,,,,,,,,,,,,,,,,,,,,,,,,,,,,,,,,,,,,,,,,,,,,,,,,,,,,,,,,,,,,,,,,,,,,,,
,,67dae998d8f2cfb8a8e3bf03,2026-03-17_16h11.24.345,kallum_motion_pilot_GIST_update_2,2026.1.1,Win32,60.24096386,67dae998d8f2cfb8a8e3bf03,69b95efdef24cd8a694e89ee,69b9609275353e1a76186204,0.0272,0.0272,1,84,246,115,1,sixeight,,,,,,,,,,,,,,,,,,,,,,,,,,,,,,,,,,,,,,,,,,,,,,,,,,,,,,,,,,,,,,,,,,,,,,,,,,,,,,,,,,,,,,,,,,,,,,,,,,,,,,,,,,,,,,,,,,,,,,,,,,,,,,,,,,,,,,,,,
,,67dae998d8f2cfb8a8e3bf03,2026-03-17_16h11.24.345,kallum_motion_pilot_GIST_update_2,2026.1.1,Win32,60.24096386,67dae998d8f2cfb8a8e3bf03,69b95efdef24cd8a694e89ee,69b9609275353e1a76186204,0.0274,0.0274,1,85,247,154,1,sixfive,,,,,,,,,,,,,,,,,,,,,,,,,,,,,,,,,,,,,,,,,,,,,,,,,,,,,,,,,,,,,,,,,,,,,,,,,,,,,,,,,,,,,,,,,,,,,,,,,,,,,,,,,,,,,,,,,,,,,,,,,,,,,,,,,,,,,,,,,
,,67dae998d8f2cfb8a8e3bf03,2026-03-17_16h11.24.345,kallum_motion_pilot_GIST_update_2,2026.1.1,Win32,60.24096386,67dae998d8f2cfb8a8e3bf03,69b95efdef24cd8a694e89ee,69b9609275353e1a76186204,0.0274,0.0274,1,86,248,156,1,sevenfive,,,,,,,,,,,,,,,,,,,,,,,,,,,,,,,,,,,,,,,,,,,,,,,,,,,,,,,,,,,,,,,,,,,,,,,,,,,,,,,,,,,,,,,,,,,,,,,,,,,,,,,,,,,,,,,,,,,,,,,,,,,,,,,,,,,,,,,,,
,,67dae998d8f2cfb8a8e3bf03,2026-03-17_16h11.24.345,kallum_motion_pilot_GIST_update_2,2026.1.1,Win32,60.24096386,67dae998d8f2cfb8a8e3bf03,69b95efdef24cd8a694e89ee,69b9609275353e1a76186204,0.0275,0.0275,1,87,249,107,1,sixeight,,,,,,,,,,,,,,,,,,,,,,,,,,,,,,,,,,,,,,,,,,,,,,,,,,,,,,,,,,,,,,,,,,,,,,,,,,,,,,,,,,,,,,,,,,,,,,,,,,,,,,,,,,,,,,,,,,,,,,,,,,,,,,,,,,,,,,,,,
,,67dae998d8f2cfb8a8e3bf03,2026-03-17_16h11.24.345,kallum_motion_pilot_GIST_update_2,2026.1.1,Win32,60.24096386,67dae998d8f2cfb8a8e3bf03,69b95efdef24cd8a694e89ee,69b9609275353e1a76186204,0.0275,0.0275,1,88,250,101,1,seveneight,,,,,,,,,,,,,,,,,,,,,,,,,,,,,,,,,,,,,,,,,,,,,,,,,,,,,,,,,,,,,,,,,,,,,,,,,,,,,,,,,,,,,,,,,,,,,,,,,,,,,,,,,,,,,,,,,,,,,,,,,,,,,,,,,,,,,,,,,
,,67dae998d8f2cfb8a8e3bf03,2026-03-17_16h11.24.345,kallum_motion_pilot_GIST_update_2,2026.1.1,Win32,60.24096386,67dae998d8f2cfb8a8e3bf03,69b95efdef24cd8a694e89ee,69b9609275353e1a76186204,0.0276,0.0276,1,89,251,19,1,twofour,,,,,,,,,,,,,,,,,,,,,,,,,,,,,,,,,,,,,,,,,,,,,,,,,,,,,,,,,,,,,,,,,,,,,,,,,,,,,,,,,,,,,,,,,,,,,,,,,,,,,,,,,,,,,,,,,,,,,,,,,,,,,,,,,,,,,,,,,
,,67dae998d8f2cfb8a8e3bf03,2026-03-17_16h11.24.345,kallum_motion_pilot_GIST_update_2,2026.1.1,Win32,60.24096386,67dae998d8f2cfb8a8e3bf03,69b95efdef24cd8a694e89ee,69b9609275353e1a76186204,0.0277,0.0277,1,90,252,111,1,eightseven,,,,,,,,,,,,,,,,,,,,,,,,,,,,,,,,,,,,,,,,,,,,,,,,,,,,,,,,,,,,,,,,,,,,,,,,,,,,,,,,,,,,,,,,,,,,,,,,,,,,,,,,,,,,,,,,,,,,,,,,,,,,,,,,,,,,,,,,,
,,67dae998d8f2cfb8a8e3bf03,2026-03-17_16h11.24.345,kallum_motion_pilot_GIST_update_2,2026.1.1,Win32,60.24096386,67dae998d8f2cfb8a8e3bf03,69b95efdef24cd8a694e89ee,69b9609275353e1a76186204,0.0277,0.0277,1,91,253,136,1,fivesix,,,,,,,,,,,,,,,,,,,,,,,,,,,,,,,,,,,,,,,,,,,,,,,,,,,,,,,,,,,,,,,,,,,,,,,,,,,,,,,,,,,,,,,,,,,,,,,,,,,,,,,,,,,,,,,,,,,,,,,,,,,,,,,,,,,,,,,,,
,,67dae998d8f2cfb8a8e3bf03,2026-03-17_16h11.24.345,kallum_motion_pilot_GIST_update_2,2026.1.1,Win32,60.24096386,67dae998d8f2cfb8a8e3bf03,69b95efdef24cd8a694e89ee,69b9609275353e1a76186204,0.0278,0.0278,1,92,254,63,1,fourthree,,,,,,,,,,,,,,,,,,,,,,,,,,,,,,,,,,,,,,,,,,,,,,,,,,,,,,,,,,,,,,,,,,,,,,,,,,,,,,,,,,,,,,,,,,,,,,,,,,,,,,,,,,,,,,,,,,,,,,,,,,,,,,,,,,,,,,,,,
,,67dae998d8f2cfb8a8e3bf03,2026-03-17_16h11.24.345,kallum_motion_pilot_GIST_update_2,2026.1.1,Win32,60.24096386,67dae998d8f2cfb8a8e3bf03,69b95efdef24cd8a694e89ee,69b9609275353e1a76186204,0.0278,0.0278,1,93,255,125,1,seveneight,,,,,,,,,,,,,,,,,,,,,,,,,,,,,,,,,,,,,,,,,,,,,,,,,,,,,,,,,,,,,,,,,,,,,,,,,,,,,,,,,,,,,,,,,,,,,,,,,,,,,,,,,,,,,,,,,,,,,,,,,,,,,,,,,,,,,,,,,
,,67dae998d8f2cfb8a8e3bf03,2026-03-17_16h11.24.345,kallum_motion_pilot_GIST_update_2,2026.1.1,Win32,60.24096386,67dae998d8f2cfb8a8e3bf03,69b95efdef24cd8a694e89ee,69b9609275353e1a76186204,0.0279,0.0279,1,94,256,114,1,sixfive,,,,,,,,,,,,,,,,,,,,,,,,,,,,,,,,,,,,,,,,,,,,,,,,,,,,,,,,,,,,,,,,,,,,,,,,,,,,,,,,,,,,,,,,,,,,,,,,,,,,,,,,,,,,,,,,,,,,,,,,,,,,,,,,,,,,,,,,,
,,67dae998d8f2cfb8a8e3bf03,2026-03-17_16h11.24.345,kallum_motion_pilot_GIST_update_2,2026.1.1,Win32,60.24096386,67dae998d8f2cfb8a8e3bf03,69b95efdef24cd8a694e89ee,69b9609275353e1a76186204,0.028,0.028,1,95,257,57,1,onethree,,,,,,,,,,,,,,,,,,,,,,,,,,,,,,,,,,,,,,,,,,,,,,,,,,,,,,,,,,,,,,,,,,,,,,,,,,,,,,,,,,,,,,,,,,,,,,,,,,,,,,,,,,,,,,,,,,,,,,,,,,,,,,,,,,,,,,,,,
,,67dae998d8f2cfb8a8e3bf03,2026-03-17_16h11.24.345,kallum_motion_pilot_GIST_update_2,2026.1.1,Win32,60.24096386,67dae998d8f2cfb8a8e3bf03,69b95efdef24cd8a694e89ee,69b9609275353e1a76186204,0.0281,0.0281,1,96,258,142,1,eightsix,,,,,,,,,,,,,,,,,,,,,,,,,,,,,,,,,,,,,,,,,,,,,,,,,,,,,,,,,,,,,,,,,,,,,,,,,,,,,,,,,,,,,,,,,,,,,,,,,,,,,,,,,,,,,,,,,,,,,,,,,,,,,,,,,,,,,,,,,
,,67dae998d8f2cfb8a8e3bf03,2026-03-17_16h11.24.345,kallum_motion_pilot_GIST_update_2,2026.1.1,Win32,60.24096386,67dae998d8f2cfb8a8e3bf03,69b95efdef24cd8a694e89ee,69b9609275353e1a76186204,0.0282,0.0282,1,97,259,72,1,onetwo,,,,,,,,,,,,,,,,,,,,,,,,,,,,,,,,,,,,,,,,,,,,,,,,,,,,,,,,,,,,,,,,,,,,,,,,,,,,,,,,,,,,,,,,,,,,,,,,,,,,,,,,,,,,,,,,,,,,,,,,,,,,,,,,,,,,,,,,,
,,67dae998d8f2cfb8a8e3bf03,2026-03-17_16h11.24.345,kallum_motion_pilot_GIST_update_2,2026.1.1,Win32,60.24096386,67dae998d8f2cfb8a8e3bf03,69b95efdef24cd8a694e89ee,69b9609275353e1a76186204,0.0282,0.0282,1,98,260,95,1,eightseven,,,,,,,,,,,,,,,,,,,,,,,,,,,,,,,,,,,,,,,,,,,,,,,,,,,,,,,,,,,,,,,,,,,,,,,,,,,,,,,,,,,,,,,,,,,,,,,,,,,,,,,,,,,,,,,,,,,,,,,,,,,,,,,,,,,,,,,,,
,,67dae998d8f2cfb8a8e3bf03,2026-03-17_16h11.24.345,kallum_motion_pilot_GIST_update_2,2026.1.1,Win32,60.24096386,67dae998d8f2cfb8a8e3bf03,69b95efdef24cd8a694e89ee,69b9609275353e1a76186204,0.0283,0.0283,1,99,261,3,1,twofour,,,,,,,,,,,,,,,,,,,,,,,,,,,,,,,,,,,,,,,,,,,,,,,,,,,,,,,,,,,,,,,,,,,,,,,,,,,,,,,,,,,,,,,,,,,,,,,,,,,,,,,,,,,,,,,,,,,,,,,,,,,,,,,,,,,,,,,,,
,,67dae998d8f2cfb8a8e3bf03,2026-03-17_16h11.24.345,kallum_motion_pilot_GIST_update_2,2026.1.1,Win32,60.24096386,67dae998d8f2cfb8a8e3bf03,69b95efdef24cd8a694e89ee,69b9609275353e1a76186204,0.0283,0.0283,1,100,262,149,1,seveneight,,,,,,,,,,,,,,,,,,,,,,,,,,,,,,,,,,,,,,,,,,,,,,,,,,,,,,,,,,,,,,,,,,,,,,,,,,,,,,,,,,,,,,,,,,,,,,,,,,,,,,,,,,,,,,,,,,,,,,,,,,,,,,,,,,,,,,,,,
,,67dae998d8f2cfb8a8e3bf03,2026-03-17_16h11.24.345,kallum_motion_pilot_GIST_update_2,2026.1.1,Win32,60.24096386,67dae998d8f2cfb8a8e3bf03,69b95efdef24cd8a694e89ee,69b9609275353e1a76186204,0.0284,0.0284,1,101,263,88,1,fivesix,,,,,,,,,,,,,,,,,,,,,,,,,,,,,,,,,,,,,,,,,,,,,,,,,,,,,,,,,,,,,,,,,,,,,,,,,,,,,,,,,,,,,,,,,,,,,,,,,,,,,,,,,,,,,,,,,,,,,,,,,,,,,,,,,,,,,,,,,
,,67dae998d8f2cfb8a8e3bf03,2026-03-17_16h11.24.345,kallum_motion_pilot_GIST_update_2,2026.1.1,Win32,60.24096386,67dae998d8f2cfb8a8e3bf03,69b95efdef24cd8a694e89ee,69b9609275353e1a76186204,0.0285,0.0285,1,102,264,75,1,twofour,,,,,,,,,,,,,,,,,,,,,,,,,,,,,,,,,,,,,,,,,,,,,,,,,,,,,,,,,,,,,,,,,,,,,,,,,,,,,,,,,,,,,,,,,,,,,,,,,,,,,,,,,,,,,,,,,,,,,,,,,,,,,,,,,,,,,,,,,
,,67dae998d8f2cfb8a8e3bf03,2026-03-17_16h11.24.345,kallum_motion_pilot_GIST_update_2,2026.1.1,Win32,60.24096386,67dae998d8f2cfb8a8e3bf03,69b95efdef24cd8a694e89ee,69b9609275353e1a76186204,0.0286,0.0286,1,103,265,51,1,twofour,,,,,,,,,,,,,,,,,,,,,,,,,,,,,,,,,,,,,,,,,,,,,,,,,,,,,,,,,,,,,,,,,,,,,,,,,,,,,,,,,,,,,,,,,,,,,,,,,,,,,,,,,,,,,,,,,,,,,,,,,,,,,,,,,,,,,,,,,
,,67dae998d8f2cfb8a8e3bf03,2026-03-17_16h11.24.345,kallum_motion_pilot_GIST_update_2,2026.1.1,Win32,60.24096386,67dae998d8f2cfb8a8e3bf03,69b95efdef24cd8a694e89ee,69b9609275353e1a76186204,0.0286,0.0286,1,104,266,102,1,eightsix,,,,,,,,,,,,,,,,,,,,,,,,,,,,,,,,,,,,,,,,,,,,,,,,,,,,,,,,,,,,,,,,,,,,,,,,,,,,,,,,,,,,,,,,,,,,,,,,,,,,,,,,,,,,,,,,,,,,,,,,,,,,,,,,,,,,,,,,,
