startup.started,startup.stopped,Prolific ID*,date,expName,psychopyVersion,OS,frameRate,participant,study_id,session,stimpositions.started,stimpositions.stopped,hardcoded_stimulus_positions.thisRepN,hardcoded_stimulus_positions.thisTrialN,hardcoded_stimulus_positions.thisN,hardcoded_stimulus_positions.thisIndex,hardcoded_stimulus_positions.ran,StimulusPos,stimorientation.started,stimorientation.stopped,prac_stimorientation_import_loop.thisRepN,prac_stimorientation_import_loop.thisTrialN,prac_stimorientation_import_loop.thisN,prac_stimorientation_import_loop.thisIndex,prac_stimorientation_import_loop.ran,Stimorientation,welcome_instr.started,welcome_instr.stopped,key_resp.keys,key_resp.rt,key_resp.duration,response_steppedout_1.started,response_steppedout_1.stopped,key_resp_20.keys,key_resp_20.rt,key_resp_20.duration,response_steppedout_2.started,response_steppedout_2.stopped,key_resp_19.keys,key_resp_19.rt,key_resp_19.duration,stim_response_instr.started,stim_response_instr.stopped,key_resp_15.keys,key_resp_15.rt,key_resp_15.duration,direction_instr_2.started,direction_instr_2.stopped,key_resp_9.keys,key_resp_9.rt,key_resp_9.duration,instr_prac.started,instr_prac.stopped,key_resp_10.keys,key_resp_10.rt,key_resp_10.duration,Stim1_display_prac.started,Stim1_display_prac.stopped,Ecc,Circle1_ori,Circle2_ori,response_prac.started,similarity,response_time,response_prac.stopped,mouse_5.x,mouse_5.y,mouse_5.leftButton,mouse_5.midButton,mouse_5.rightButton,mouse_5.clicked_name,responseprac_feedback.started,responseprac_feedback.stopped,summary2_prac.started,summary2_prac.stopped,mouse_6.x,mouse_6.y,mouse_6.leftButton,mouse_6.midButton,mouse_6.rightButton,mouse_6.clicked_name,duringprac.thisRepN,duringprac.thisTrialN,duringprac.thisN,duringprac.thisIndex,duringprac.ran,begin.started,begin.stopped,key_resp_22.keys,key_resp_22.rt,key_resp_22.duration,Stim1_display.started,Stim1_display.stopped,circle1_ori,circle2_ori,circle1_SF,circle2_SF,response.started,response.stopped,mouse.x,mouse.y,mouse.leftButton,mouse.midButton,mouse.rightButton,mouse.clicked_name,trialnumber,double_pass.thisRepN,double_pass.thisTrialN,double_pass.thisN,double_pass.thisIndex,double_pass.ran,double_pass.order,main_trial.thisRepN,main_trial.thisTrialN,main_trial.thisN,main_trial.thisIndex,main_trial.ran,main_trial.order,Trial_Counter,Catch,Frequencies,response_2.started,response_2.stopped,mouse_2.x,mouse_2.y,mouse_2.leftButton,mouse_2.midButton,mouse_2.rightButton,mouse_2.clicked_name,special_trial.started,special_trial.stopped,catch_1.started,catch_1.stopped,mouse_3.x,mouse_3.y,mouse_3.leftButton,mouse_3.midButton,mouse_3.rightButton,catchresponse,catchnumber,response_time_catch,response_sum.started,response_sum.stopped,mouse_11.x,mouse_11.y,mouse_11.leftButton,mouse_11.midButton,mouse_11.rightButton,flip_presentation_sequence_for_double_pass.started,flip_presentation_sequence_for_double_pass.stopped,goodbye.started,goodbye.stopped,key_resp_3.keys,key_resp_3.rt,key_resp_3.duration
0.0007,0.001,67e45e2d59b1494f02e7f164,2026-03-17_16h58.26.150,kallum_motion_pilot_GIST_update_2,2026.1.1,Linux armv81,59.52380952,67e45e2d59b1494f02e7f164,69b95efdef24cd8a694e89ee,69b960bc3fa06a0a46d6f0b0,,,,,,,,,,,,,,,,,,,,,,,,,,,,,,,,,,,,,,,,,,,,,,,,,,,,,,,,,,,,,,,,,,,,,,,,,,,,,,,,,,,,,,,,,,,,,,,,,,,,,,,,,,,,,,,,,,,,,,,,,,,,,,,,,,,,,,,,,,,,,,,,,
,,67e45e2d59b1494f02e7f164,2026-03-17_16h58.26.150,kallum_motion_pilot_GIST_update_2,2026.1.1,Linux armv81,59.52380952,67e45e2d59b1494f02e7f164,69b95efdef24cd8a694e89ee,69b960bc3fa06a0a46d6f0b0,0.0597,0.0599,0,0,0,66,1,twoone,,,,,,,,,,,,,,,,,,,,,,,,,,,,,,,,,,,,,,,,,,,,,,,,,,,,,,,,,,,,,,,,,,,,,,,,,,,,,,,,,,,,,,,,,,,,,,,,,,,,,,,,,,,,,,,,,,,,,,,,,,,,,,,,,,,,,,,,,
,,67e45e2d59b1494f02e7f164,2026-03-17_16h58.26.150,kallum_motion_pilot_GIST_update_2,2026.1.1,Linux armv81,59.52380952,67e45e2d59b1494f02e7f164,69b95efdef24cd8a694e89ee,69b960bc3fa06a0a46d6f0b0,0.0606,0.0606,0,1,1,120,1,fivesix,,,,,,,,,,,,,,,,,,,,,,,,,,,,,,,,,,,,,,,,,,,,,,,,,,,,,,,,,,,,,,,,,,,,,,,,,,,,,,,,,,,,,,,,,,,,,,,,,,,,,,,,,,,,,,,,,,,,,,,,,,,,,,,,,,,,,,,,,
,,67e45e2d59b1494f02e7f164,2026-03-17_16h58.26.150,kallum_motion_pilot_GIST_update_2,2026.1.1,Linux armv81,59.52380952,67e45e2d59b1494f02e7f164,69b95efdef24cd8a694e89ee,69b960bc3fa06a0a46d6f0b0,0.0609,0.0609,0,2,2,2,1,twoone,,,,,,,,,,,,,,,,,,,,,,,,,,,,,,,,,,,,,,,,,,,,,,,,,,,,,,,,,,,,,,,,,,,,,,,,,,,,,,,,,,,,,,,,,,,,,,,,,,,,,,,,,,,,,,,,,,,,,,,,,,,,,,,,,,,,,,,,,
,,67e45e2d59b1494f02e7f164,2026-03-17_16h58.26.150,kallum_motion_pilot_GIST_update_2,2026.1.1,Linux armv81,59.52380952,67e45e2d59b1494f02e7f164,69b95efdef24cd8a694e89ee,69b960bc3fa06a0a46d6f0b0,0.0613,0.0613,0,3,3,50,1,twoone,,,,,,,,,,,,,,,,,,,,,,,,,,,,,,,,,,,,,,,,,,,,,,,,,,,,,,,,,,,,,,,,,,,,,,,,,,,,,,,,,,,,,,,,,,,,,,,,,,,,,,,,,,,,,,,,,,,,,,,,,,,,,,,,,,,,,,,,,
,,67e45e2d59b1494f02e7f164,2026-03-17_16h58.26.150,kallum_motion_pilot_GIST_update_2,2026.1.1,Linux armv81,59.52380952,67e45e2d59b1494f02e7f164,69b95efdef24cd8a694e89ee,69b960bc3fa06a0a46d6f0b0,0.0616,0.0616,0,4,4,113,1,fiveseven,,,,,,,,,,,,,,,,,,,,,,,,,,,,,,,,,,,,,,,,,,,,,,,,,,,,,,,,,,,,,,,,,,,,,,,,,,,,,,,,,,,,,,,,,,,,,,,,,,,,,,,,,,,,,,,,,,,,,,,,,,,,,,,,,,,,,,,,,
,,67e45e2d59b1494f02e7f164,2026-03-17_16h58.26.150,kallum_motion_pilot_GIST_update_2,2026.1.1,Linux armv81,59.52380952,67e45e2d59b1494f02e7f164,69b95efdef24cd8a694e89ee,69b960bc3fa06a0a46d6f0b0,0.0619,0.0619,0,5,5,145,1,fiveseven,,,,,,,,,,,,,,,,,,,,,,,,,,,,,,,,,,,,,,,,,,,,,,,,,,,,,,,,,,,,,,,,,,,,,,,,,,,,,,,,,,,,,,,,,,,,,,,,,,,,,,,,,,,,,,,,,,,,,,,,,,,,,,,,,,,,,,,,,
,,67e45e2d59b1494f02e7f164,2026-03-17_16h58.26.150,kallum_motion_pilot_GIST_update_2,2026.1.1,Linux armv81,59.52380952,67e45e2d59b1494f02e7f164,69b95efdef24cd8a694e89ee,69b960bc3fa06a0a46d6f0b0,0.0622,0.0622,0,6,6,67,1,twofour,,,,,,,,,,,,,,,,,,,,,,,,,,,,,,,,,,,,,,,,,,,,,,,,,,,,,,,,,,,,,,,,,,,,,,,,,,,,,,,,,,,,,,,,,,,,,,,,,,,,,,,,,,,,,,,,,,,,,,,,,,,,,,,,,,,,,,,,,
,,67e45e2d59b1494f02e7f164,2026-03-17_16h58.26.150,kallum_motion_pilot_GIST_update_2,2026.1.1,Linux armv81,59.52380952,67e45e2d59b1494f02e7f164,69b95efdef24cd8a694e89ee,69b960bc3fa06a0a46d6f0b0,0.0625,0.0625,0,7,7,65,1,onethree,,,,,,,,,,,,,,,,,,,,,,,,,,,,,,,,,,,,,,,,,,,,,,,,,,,,,,,,,,,,,,,,,,,,,,,,,,,,,,,,,,,,,,,,,,,,,,,,,,,,,,,,,,,,,,,,,,,,,,,,,,,,,,,,,,,,,,,,,
,,67e45e2d59b1494f02e7f164,2026-03-17_16h58.26.150,kallum_motion_pilot_GIST_update_2,2026.1.1,Linux armv81,59.52380952,67e45e2d59b1494f02e7f164,69b95efdef24cd8a694e89ee,69b960bc3fa06a0a46d6f0b0,0.0628,0.0628,0,8,8,104,1,fivesix,,,,,,,,,,,,,,,,,,,,,,,,,,,,,,,,,,,,,,,,,,,,,,,,,,,,,,,,,,,,,,,,,,,,,,,,,,,,,,,,,,,,,,,,,,,,,,,,,,,,,,,,,,,,,,,,,,,,,,,,,,,,,,,,,,,,,,,,,
,,67e45e2d59b1494f02e7f164,2026-03-17_16h58.26.150,kallum_motion_pilot_GIST_update_2,2026.1.1,Linux armv81,59.52380952,67e45e2d59b1494f02e7f164,69b95efdef24cd8a694e89ee,69b960bc3fa06a0a46d6f0b0,0.0631,0.0631,0,9,9,94,1,eightsix,,,,,,,,,,,,,,,,,,,,,,,,,,,,,,,,,,,,,,,,,,,,,,,,,,,,,,,,,,,,,,,,,,,,,,,,,,,,,,,,,,,,,,,,,,,,,,,,,,,,,,,,,,,,,,,,,,,,,,,,,,,,,,,,,,,,,,,,,
,,67e45e2d59b1494f02e7f164,2026-03-17_16h58.26.150,kallum_motion_pilot_GIST_update_2,2026.1.1,Linux armv81,59.52380952,67e45e2d59b1494f02e7f164,69b95efdef24cd8a694e89ee,69b960bc3fa06a0a46d6f0b0,0.0633,0.0633,0,10,10,152,1,fivesix,,,,,,,,,,,,,,,,,,,,,,,,,,,,,,,,,,,,,,,,,,,,,,,,,,,,,,,,,,,,,,,,,,,,,,,,,,,,,,,,,,,,,,,,,,,,,,,,,,,,,,,,,,,,,,,,,,,,,,,,,,,,,,,,,,,,,,,,,
,,67e45e2d59b1494f02e7f164,2026-03-17_16h58.26.150,kallum_motion_pilot_GIST_update_2,2026.1.1,Linux armv81,59.52380952,67e45e2d59b1494f02e7f164,69b95efdef24cd8a694e89ee,69b960bc3fa06a0a46d6f0b0,0.0636,0.0636,0,11,11,10,1,twoone,,,,,,,,,,,,,,,,,,,,,,,,,,,,,,,,,,,,,,,,,,,,,,,,,,,,,,,,,,,,,,,,,,,,,,,,,,,,,,,,,,,,,,,,,,,,,,,,,,,,,,,,,,,,,,,,,,,,,,,,,,,,,,,,,,,,,,,,,
,,67e45e2d59b1494f02e7f164,2026-03-17_16h58.26.150,kallum_motion_pilot_GIST_update_2,2026.1.1,Linux armv81,59.52380952,67e45e2d59b1494f02e7f164,69b95efdef24cd8a694e89ee,69b960bc3fa06a0a46d6f0b0,0.0639,0.0639,0,12,12,45,1,threefour,,,,,,,,,,,,,,,,,,,,,,,,,,,,,,,,,,,,,,,,,,,,,,,,,,,,,,,,,,,,,,,,,,,,,,,,,,,,,,,,,,,,,,,,,,,,,,,,,,,,,,,,,,,,,,,,,,,,,,,,,,,,,,,,,,,,,,,,,
,,67e45e2d59b1494f02e7f164,2026-03-17_16h58.26.150,kallum_motion_pilot_GIST_update_2,2026.1.1,Linux armv81,59.52380952,67e45e2d59b1494f02e7f164,69b95efdef24cd8a694e89ee,69b960bc3fa06a0a46d6f0b0,0.0641,0.0641,0,13,13,116,1,sevenfive,,,,,,,,,,,,,,,,,,,,,,,,,,,,,,,,,,,,,,,,,,,,,,,,,,,,,,,,,,,,,,,,,,,,,,,,,,,,,,,,,,,,,,,,,,,,,,,,,,,,,,,,,,,,,,,,,,,,,,,,,,,,,,,,,,,,,,,,,
,,67e45e2d59b1494f02e7f164,2026-03-17_16h58.26.150,kallum_motion_pilot_GIST_update_2,2026.1.1,Linux armv81,59.52380952,67e45e2d59b1494f02e7f164,69b95efdef24cd8a694e89ee,69b960bc3fa06a0a46d6f0b0,0.0643,0.0643,0,14,14,121,1,fiveseven,,,,,,,,,,,,,,,,,,,,,,,,,,,,,,,,,,,,,,,,,,,,,,,,,,,,,,,,,,,,,,,,,,,,,,,,,,,,,,,,,,,,,,,,,,,,,,,,,,,,,,,,,,,,,,,,,,,,,,,,,,,,,,,,,,,,,,,,,
,,67e45e2d59b1494f02e7f164,2026-03-17_16h58.26.150,kallum_motion_pilot_GIST_update_2,2026.1.1,Linux armv81,59.52380952,67e45e2d59b1494f02e7f164,69b95efdef24cd8a694e89ee,69b960bc3fa06a0a46d6f0b0,0.0645,0.0645,0,15,15,17,1,onethree,,,,,,,,,,,,,,,,,,,,,,,,,,,,,,,,,,,,,,,,,,,,,,,,,,,,,,,,,,,,,,,,,,,,,,,,,,,,,,,,,,,,,,,,,,,,,,,,,,,,,,,,,,,,,,,,,,,,,,,,,,,,,,,,,,,,,,,,,
,,67e45e2d59b1494f02e7f164,2026-03-17_16h58.26.150,kallum_motion_pilot_GIST_update_2,2026.1.1,Linux armv81,59.52380952,67e45e2d59b1494f02e7f164,69b95efdef24cd8a694e89ee,69b960bc3fa06a0a46d6f0b0,0.0648,0.0648,0,16,16,100,1,sevenfive,,,,,,,,,,,,,,,,,,,,,,,,,,,,,,,,,,,,,,,,,,,,,,,,,,,,,,,,,,,,,,,,,,,,,,,,,,,,,,,,,,,,,,,,,,,,,,,,,,,,,,,,,,,,,,,,,,,,,,,,,,,,,,,,,,,,,,,,,
,,67e45e2d59b1494f02e7f164,2026-03-17_16h58.26.150,kallum_motion_pilot_GIST_update_2,2026.1.1,Linux armv81,59.52380952,67e45e2d59b1494f02e7f164,69b95efdef24cd8a694e89ee,69b960bc3fa06a0a46d6f0b0,0.065,0.065,0,17,17,5,1,threefour,,,,,,,,,,,,,,,,,,,,,,,,,,,,,,,,,,,,,,,,,,,,,,,,,,,,,,,,,,,,,,,,,,,,,,,,,,,,,,,,,,,,,,,,,,,,,,,,,,,,,,,,,,,,,,,,,,,,,,,,,,,,,,,,,,,,,,,,,
,,67e45e2d59b1494f02e7f164,2026-03-17_16h58.26.150,kallum_motion_pilot_GIST_update_2,2026.1.1,Linux armv81,59.52380952,67e45e2d59b1494f02e7f164,69b95efdef24cd8a694e89ee,69b960bc3fa06a0a46d6f0b0,0.0652,0.0652,0,18,18,99,1,sixeight,,,,,,,,,,,,,,,,,,,,,,,,,,,,,,,,,,,,,,,,,,,,,,,,,,,,,,,,,,,,,,,,,,,,,,,,,,,,,,,,,,,,,,,,,,,,,,,,,,,,,,,,,,,,,,,,,,,,,,,,,,,,,,,,,,,,,,,,,
,,67e45e2d59b1494f02e7f164,2026-03-17_16h58.26.150,kallum_motion_pilot_GIST_update_2,2026.1.1,Linux armv81,59.52380952,67e45e2d59b1494f02e7f164,69b95efdef24cd8a694e89ee,69b960bc3fa06a0a46d6f0b0,0.0654,0.0654,0,19,19,6,1,fourtwo,,,,,,,,,,,,,,,,,,,,,,,,,,,,,,,,,,,,,,,,,,,,,,,,,,,,,,,,,,,,,,,,,,,,,,,,,,,,,,,,,,,,,,,,,,,,,,,,,,,,,,,,,,,,,,,,,,,,,,,,,,,,,,,,,,,,,,,,,
,,67e45e2d59b1494f02e7f164,2026-03-17_16h58.26.150,kallum_motion_pilot_GIST_update_2,2026.1.1,Linux armv81,59.52380952,67e45e2d59b1494f02e7f164,69b95efdef24cd8a694e89ee,69b960bc3fa06a0a46d6f0b0,0.0656,0.0656,0,20,20,1,1,onethree,,,,,,,,,,,,,,,,,,,,,,,,,,,,,,,,,,,,,,,,,,,,,,,,,,,,,,,,,,,,,,,,,,,,,,,,,,,,,,,,,,,,,,,,,,,,,,,,,,,,,,,,,,,,,,,,,,,,,,,,,,,,,,,,,,,,,,,,,
,,67e45e2d59b1494f02e7f164,2026-03-17_16h58.26.150,kallum_motion_pilot_GIST_update_2,2026.1.1,Linux armv81,59.52380952,67e45e2d59b1494f02e7f164,69b95efdef24cd8a694e89ee,69b960bc3fa06a0a46d6f0b0,0.0658,0.0659,0,21,21,144,1,fivesix,,,,,,,,,,,,,,,,,,,,,,,,,,,,,,,,,,,,,,,,,,,,,,,,,,,,,,,,,,,,,,,,,,,,,,,,,,,,,,,,,,,,,,,,,,,,,,,,,,,,,,,,,,,,,,,,,,,,,,,,,,,,,,,,,,,,,,,,,
,,67e45e2d59b1494f02e7f164,2026-03-17_16h58.26.150,kallum_motion_pilot_GIST_update_2,2026.1.1,Linux armv81,59.52380952,67e45e2d59b1494f02e7f164,69b95efdef24cd8a694e89ee,69b960bc3fa06a0a46d6f0b0,0.066,0.066,0,22,22,68,1,threeone,,,,,,,,,,,,,,,,,,,,,,,,,,,,,,,,,,,,,,,,,,,,,,,,,,,,,,,,,,,,,,,,,,,,,,,,,,,,,,,,,,,,,,,,,,,,,,,,,,,,,,,,,,,,,,,,,,,,,,,,,,,,,,,,,,,,,,,,,
,,67e45e2d59b1494f02e7f164,2026-03-17_16h58.26.150,kallum_motion_pilot_GIST_update_2,2026.1.1,Linux armv81,59.52380952,67e45e2d59b1494f02e7f164,69b95efdef24cd8a694e89ee,69b960bc3fa06a0a46d6f0b0,0.0662,0.0663,0,23,23,31,1,fourthree,,,,,,,,,,,,,,,,,,,,,,,,,,,,,,,,,,,,,,,,,,,,,,,,,,,,,,,,,,,,,,,,,,,,,,,,,,,,,,,,,,,,,,,,,,,,,,,,,,,,,,,,,,,,,,,,,,,,,,,,,,,,,,,,,,,,,,,,,
,,67e45e2d59b1494f02e7f164,2026-03-17_16h58.26.150,kallum_motion_pilot_GIST_update_2,2026.1.1,Linux armv81,59.52380952,67e45e2d59b1494f02e7f164,69b95efdef24cd8a694e89ee,69b960bc3fa06a0a46d6f0b0,0.0665,0.0666,0,24,24,98,1,sixfive,,,,,,,,,,,,,,,,,,,,,,,,,,,,,,,,,,,,,,,,,,,,,,,,,,,,,,,,,,,,,,,,,,,,,,,,,,,,,,,,,,,,,,,,,,,,,,,,,,,,,,,,,,,,,,,,,,,,,,,,,,,,,,,,,,,,,,,,,
,,67e45e2d59b1494f02e7f164,2026-03-17_16h58.26.150,kallum_motion_pilot_GIST_update_2,2026.1.1,Linux armv81,59.52380952,67e45e2d59b1494f02e7f164,69b95efdef24cd8a694e89ee,69b960bc3fa06a0a46d6f0b0,0.0667,0.0668,0,25,25,35,1,twofour,,,,,,,,,,,,,,,,,,,,,,,,,,,,,,,,,,,,,,,,,,,,,,,,,,,,,,,,,,,,,,,,,,,,,,,,,,,,,,,,,,,,,,,,,,,,,,,,,,,,,,,,,,,,,,,,,,,,,,,,,,,,,,,,,,,,,,,,,
,,67e45e2d59b1494f02e7f164,2026-03-17_16h58.26.150,kallum_motion_pilot_GIST_update_2,2026.1.1,Linux armv81,59.52380952,67e45e2d59b1494f02e7f164,69b95efdef24cd8a694e89ee,69b960bc3fa06a0a46d6f0b0,0.067,0.067,0,26,26,63,1,fourthree,,,,,,,,,,,,,,,,,,,,,,,,,,,,,,,,,,,,,,,,,,,,,,,,,,,,,,,,,,,,,,,,,,,,,,,,,,,,,,,,,,,,,,,,,,,,,,,,,,,,,,,,,,,,,,,,,,,,,,,,,,,,,,,,,,,,,,,,,
,,67e45e2d59b1494f02e7f164,2026-03-17_16h58.26.150,kallum_motion_pilot_GIST_update_2,2026.1.1,Linux armv81,59.52380952,67e45e2d59b1494f02e7f164,69b95efdef24cd8a694e89ee,69b960bc3fa06a0a46d6f0b0,0.0673,0.0674,0,27,27,108,1,sevenfive,,,,,,,,,,,,,,,,,,,,,,,,,,,,,,,,,,,,,,,,,,,,,,,,,,,,,,,,,,,,,,,,,,,,,,,,,,,,,,,,,,,,,,,,,,,,,,,,,,,,,,,,,,,,,,,,,,,,,,,,,,,,,,,,,,,,,,,,,
,,67e45e2d59b1494f02e7f164,2026-03-17_16h58.26.150,kallum_motion_pilot_GIST_update_2,2026.1.1,Linux armv81,59.52380952,67e45e2d59b1494f02e7f164,69b95efdef24cd8a694e89ee,69b960bc3fa06a0a46d6f0b0,0.0676,0.0676,0,28,28,83,1,sixeight,,,,,,,,,,,,,,,,,,,,,,,,,,,,,,,,,,,,,,,,,,,,,,,,,,,,,,,,,,,,,,,,,,,,,,,,,,,,,,,,,,,,,,,,,,,,,,,,,,,,,,,,,,,,,,,,,,,,,,,,,,,,,,,,,,,,,,,,,
,,67e45e2d59b1494f02e7f164,2026-03-17_16h58.26.150,kallum_motion_pilot_GIST_update_2,2026.1.1,Linux armv81,59.52380952,67e45e2d59b1494f02e7f164,69b95efdef24cd8a694e89ee,69b960bc3fa06a0a46d6f0b0,0.0677,0.0678,0,29,29,101,1,seveneight,,,,,,,,,,,,,,,,,,,,,,,,,,,,,,,,,,,,,,,,,,,,,,,,,,,,,,,,,,,,,,,,,,,,,,,,,,,,,,,,,,,,,,,,,,,,,,,,,,,,,,,,,,,,,,,,,,,,,,,,,,,,,,,,,,,,,,,,,
,,67e45e2d59b1494f02e7f164,2026-03-17_16h58.26.150,kallum_motion_pilot_GIST_update_2,2026.1.1,Linux armv81,59.52380952,67e45e2d59b1494f02e7f164,69b95efdef24cd8a694e89ee,69b960bc3fa06a0a46d6f0b0,0.068,0.068,0,30,30,147,1,sixeight,,,,,,,,,,,,,,,,,,,,,,,,,,,,,,,,,,,,,,,,,,,,,,,,,,,,,,,,,,,,,,,,,,,,,,,,,,,,,,,,,,,,,,,,,,,,,,,,,,,,,,,,,,,,,,,,,,,,,,,,,,,,,,,,,,,,,,,,,
,,67e45e2d59b1494f02e7f164,2026-03-17_16h58.26.150,kallum_motion_pilot_GIST_update_2,2026.1.1,Linux armv81,59.52380952,67e45e2d59b1494f02e7f164,69b95efdef24cd8a694e89ee,69b960bc3fa06a0a46d6f0b0,0.0682,0.0683,0,31,31,47,1,fourthree,,,,,,,,,,,,,,,,,,,,,,,,,,,,,,,,,,,,,,,,,,,,,,,,,,,,,,,,,,,,,,,,,,,,,,,,,,,,,,,,,,,,,,,,,,,,,,,,,,,,,,,,,,,,,,,,,,,,,,,,,,,,,,,,,,,,,,,,,
,,67e45e2d59b1494f02e7f164,2026-03-17_16h58.26.150,kallum_motion_pilot_GIST_update_2,2026.1.1,Linux armv81,59.52380952,67e45e2d59b1494f02e7f164,69b95efdef24cd8a694e89ee,69b960bc3fa06a0a46d6f0b0,0.0684,0.0685,0,32,32,72,1,onetwo,,,,,,,,,,,,,,,,,,,,,,,,,,,,,,,,,,,,,,,,,,,,,,,,,,,,,,,,,,,,,,,,,,,,,,,,,,,,,,,,,,,,,,,,,,,,,,,,,,,,,,,,,,,,,,,,,,,,,,,,,,,,,,,,,,,,,,,,,
,,67e45e2d59b1494f02e7f164,2026-03-17_16h58.26.150,kallum_motion_pilot_GIST_update_2,2026.1.1,Linux armv81,59.52380952,67e45e2d59b1494f02e7f164,69b95efdef24cd8a694e89ee,69b960bc3fa06a0a46d6f0b0,0.0688,0.0688,0,33,33,55,1,fourthree,,,,,,,,,,,,,,,,,,,,,,,,,,,,,,,,,,,,,,,,,,,,,,,,,,,,,,,,,,,,,,,,,,,,,,,,,,,,,,,,,,,,,,,,,,,,,,,,,,,,,,,,,,,,,,,,,,,,,,,,,,,,,,,,,,,,,,,,,
,,67e45e2d59b1494f02e7f164,2026-03-17_16h58.26.150,kallum_motion_pilot_GIST_update_2,2026.1.1,Linux armv81,59.52380952,67e45e2d59b1494f02e7f164,69b95efdef24cd8a694e89ee,69b960bc3fa06a0a46d6f0b0,0.069,0.069,0,34,34,149,1,seveneight,,,,,,,,,,,,,,,,,,,,,,,,,,,,,,,,,,,,,,,,,,,,,,,,,,,,,,,,,,,,,,,,,,,,,,,,,,,,,,,,,,,,,,,,,,,,,,,,,,,,,,,,,,,,,,,,,,,,,,,,,,,,,,,,,,,,,,,,,
,,67e45e2d59b1494f02e7f164,2026-03-17_16h58.26.150,kallum_motion_pilot_GIST_update_2,2026.1.1,Linux armv81,59.52380952,67e45e2d59b1494f02e7f164,69b95efdef24cd8a694e89ee,69b960bc3fa06a0a46d6f0b0,0.0693,0.0693,0,35,35,105,1,fiveseven,,,,,,,,,,,,,,,,,,,,,,,,,,,,,,,,,,,,,,,,,,,,,,,,,,,,,,,,,,,,,,,,,,,,,,,,,,,,,,,,,,,,,,,,,,,,,,,,,,,,,,,,,,,,,,,,,,,,,,,,,,,,,,,,,,,,,,,,,
,,67e45e2d59b1494f02e7f164,2026-03-17_16h58.26.150,kallum_motion_pilot_GIST_update_2,2026.1.1,Linux armv81,59.52380952,67e45e2d59b1494f02e7f164,69b95efdef24cd8a694e89ee,69b960bc3fa06a0a46d6f0b0,0.0696,0.0697,0,36,36,44,1,threeone,,,,,,,,,,,,,,,,,,,,,,,,,,,,,,,,,,,,,,,,,,,,,,,,,,,,,,,,,,,,,,,,,,,,,,,,,,,,,,,,,,,,,,,,,,,,,,,,,,,,,,,,,,,,,,,,,,,,,,,,,,,,,,,,,,,,,,,,,
,,67e45e2d59b1494f02e7f164,2026-03-17_16h58.26.150,kallum_motion_pilot_GIST_update_2,2026.1.1,Linux armv81,59.52380952,67e45e2d59b1494f02e7f164,69b95efdef24cd8a694e89ee,69b960bc3fa06a0a46d6f0b0,0.0698,0.0698,0,37,37,102,1,eightsix,,,,,,,,,,,,,,,,,,,,,,,,,,,,,,,,,,,,,,,,,,,,,,,,,,,,,,,,,,,,,,,,,,,,,,,,,,,,,,,,,,,,,,,,,,,,,,,,,,,,,,,,,,,,,,,,,,,,,,,,,,,,,,,,,,,,,,,,,
,,67e45e2d59b1494f02e7f164,2026-03-17_16h58.26.150,kallum_motion_pilot_GIST_update_2,2026.1.1,Linux armv81,59.52380952,67e45e2d59b1494f02e7f164,69b95efdef24cd8a694e89ee,69b960bc3fa06a0a46d6f0b0,0.0701,0.0701,0,38,38,3,1,twofour,,,,,,,,,,,,,,,,,,,,,,,,,,,,,,,,,,,,,,,,,,,,,,,,,,,,,,,,,,,,,,,,,,,,,,,,,,,,,,,,,,,,,,,,,,,,,,,,,,,,,,,,,,,,,,,,,,,,,,,,,,,,,,,,,,,,,,,,,
,,67e45e2d59b1494f02e7f164,2026-03-17_16h58.26.150,kallum_motion_pilot_GIST_update_2,2026.1.1,Linux armv81,59.52380952,67e45e2d59b1494f02e7f164,69b95efdef24cd8a694e89ee,69b960bc3fa06a0a46d6f0b0,0.0704,0.0704,0,39,39,92,1,sevenfive,,,,,,,,,,,,,,,,,,,,,,,,,,,,,,,,,,,,,,,,,,,,,,,,,,,,,,,,,,,,,,,,,,,,,,,,,,,,,,,,,,,,,,,,,,,,,,,,,,,,,,,,,,,,,,,,,,,,,,,,,,,,,,,,,,,,,,,,,
,,67e45e2d59b1494f02e7f164,2026-03-17_16h58.26.150,kallum_motion_pilot_GIST_update_2,2026.1.1,Linux armv81,59.52380952,67e45e2d59b1494f02e7f164,69b95efdef24cd8a694e89ee,69b960bc3fa06a0a46d6f0b0,0.0706,0.0706,0,40,40,64,1,onetwo,,,,,,,,,,,,,,,,,,,,,,,,,,,,,,,,,,,,,,,,,,,,,,,,,,,,,,,,,,,,,,,,,,,,,,,,,,,,,,,,,,,,,,,,,,,,,,,,,,,,,,,,,,,,,,,,,,,,,,,,,,,,,,,,,,,,,,,,,
,,67e45e2d59b1494f02e7f164,2026-03-17_16h58.26.150,kallum_motion_pilot_GIST_update_2,2026.1.1,Linux armv81,59.52380952,67e45e2d59b1494f02e7f164,69b95efdef24cd8a694e89ee,69b960bc3fa06a0a46d6f0b0,0.0708,0.0708,0,41,41,33,1,onethree,,,,,,,,,,,,,,,,,,,,,,,,,,,,,,,,,,,,,,,,,,,,,,,,,,,,,,,,,,,,,,,,,,,,,,,,,,,,,,,,,,,,,,,,,,,,,,,,,,,,,,,,,,,,,,,,,,,,,,,,,,,,,,,,,,,,,,,,,
,,67e45e2d59b1494f02e7f164,2026-03-17_16h58.26.150,kallum_motion_pilot_GIST_update_2,2026.1.1,Linux armv81,59.52380952,67e45e2d59b1494f02e7f164,69b95efdef24cd8a694e89ee,69b960bc3fa06a0a46d6f0b0,0.0711,0.0711,0,42,42,42,1,twoone,,,,,,,,,,,,,,,,,,,,,,,,,,,,,,,,,,,,,,,,,,,,,,,,,,,,,,,,,,,,,,,,,,,,,,,,,,,,,,,,,,,,,,,,,,,,,,,,,,,,,,,,,,,,,,,,,,,,,,,,,,,,,,,,,,,,,,,,,
,,67e45e2d59b1494f02e7f164,2026-03-17_16h58.26.150,kallum_motion_pilot_GIST_update_2,2026.1.1,Linux armv81,59.52380952,67e45e2d59b1494f02e7f164,69b95efdef24cd8a694e89ee,69b960bc3fa06a0a46d6f0b0,0.0714,0.0714,0,43,43,134,1,eightsix,,,,,,,,,,,,,,,,,,,,,,,,,,,,,,,,,,,,,,,,,,,,,,,,,,,,,,,,,,,,,,,,,,,,,,,,,,,,,,,,,,,,,,,,,,,,,,,,,,,,,,,,,,,,,,,,,,,,,,,,,,,,,,,,,,,,,,,,,
,,67e45e2d59b1494f02e7f164,2026-03-17_16h58.26.150,kallum_motion_pilot_GIST_update_2,2026.1.1,Linux armv81,59.52380952,67e45e2d59b1494f02e7f164,69b95efdef24cd8a694e89ee,69b960bc3fa06a0a46d6f0b0,0.0717,0.0717,0,44,44,150,1,eightsix,,,,,,,,,,,,,,,,,,,,,,,,,,,,,,,,,,,,,,,,,,,,,,,,,,,,,,,,,,,,,,,,,,,,,,,,,,,,,,,,,,,,,,,,,,,,,,,,,,,,,,,,,,,,,,,,,,,,,,,,,,,,,,,,,,,,,,,,,
,,67e45e2d59b1494f02e7f164,2026-03-17_16h58.26.150,kallum_motion_pilot_GIST_update_2,2026.1.1,Linux armv81,59.52380952,67e45e2d59b1494f02e7f164,69b95efdef24cd8a694e89ee,69b960bc3fa06a0a46d6f0b0,0.0719,0.0719,0,45,45,135,1,eightseven,,,,,,,,,,,,,,,,,,,,,,,,,,,,,,,,,,,,,,,,,,,,,,,,,,,,,,,,,,,,,,,,,,,,,,,,,,,,,,,,,,,,,,,,,,,,,,,,,,,,,,,,,,,,,,,,,,,,,,,,,,,,,,,,,,,,,,,,,
,,67e45e2d59b1494f02e7f164,2026-03-17_16h58.26.150,kallum_motion_pilot_GIST_update_2,2026.1.1,Linux armv81,59.52380952,67e45e2d59b1494f02e7f164,69b95efdef24cd8a694e89ee,69b960bc3fa06a0a46d6f0b0,0.0722,0.0722,0,46,46,125,1,seveneight,,,,,,,,,,,,,,,,,,,,,,,,,,,,,,,,,,,,,,,,,,,,,,,,,,,,,,,,,,,,,,,,,,,,,,,,,,,,,,,,,,,,,,,,,,,,,,,,,,,,,,,,,,,,,,,,,,,,,,,,,,,,,,,,,,,,,,,,,
,,67e45e2d59b1494f02e7f164,2026-03-17_16h58.26.150,kallum_motion_pilot_GIST_update_2,2026.1.1,Linux armv81,59.52380952,67e45e2d59b1494f02e7f164,69b95efdef24cd8a694e89ee,69b960bc3fa06a0a46d6f0b0,0.0725,0.0725,0,47,47,58,1,twoone,,,,,,,,,,,,,,,,,,,,,,,,,,,,,,,,,,,,,,,,,,,,,,,,,,,,,,,,,,,,,,,,,,,,,,,,,,,,,,,,,,,,,,,,,,,,,,,,,,,,,,,,,,,,,,,,,,,,,,,,,,,,,,,,,,,,,,,,,
,,67e45e2d59b1494f02e7f164,2026-03-17_16h58.26.150,kallum_motion_pilot_GIST_update_2,2026.1.1,Linux armv81,59.52380952,67e45e2d59b1494f02e7f164,69b95efdef24cd8a694e89ee,69b960bc3fa06a0a46d6f0b0,0.0727,0.0728,0,48,48,79,1,eightseven,,,,,,,,,,,,,,,,,,,,,,,,,,,,,,,,,,,,,,,,,,,,,,,,,,,,,,,,,,,,,,,,,,,,,,,,,,,,,,,,,,,,,,,,,,,,,,,,,,,,,,,,,,,,,,,,,,,,,,,,,,,,,,,,,,,,,,,,,
,,67e45e2d59b1494f02e7f164,2026-03-17_16h58.26.150,kallum_motion_pilot_GIST_update_2,2026.1.1,Linux armv81,59.52380952,67e45e2d59b1494f02e7f164,69b95efdef24cd8a694e89ee,69b960bc3fa06a0a46d6f0b0,0.073,0.073,0,49,49,81,1,fiveseven,,,,,,,,,,,,,,,,,,,,,,,,,,,,,,,,,,,,,,,,,,,,,,,,,,,,,,,,,,,,,,,,,,,,,,,,,,,,,,,,,,,,,,,,,,,,,,,,,,,,,,,,,,,,,,,,,,,,,,,,,,,,,,,,,,,,,,,,,
,,67e45e2d59b1494f02e7f164,2026-03-17_16h58.26.150,kallum_motion_pilot_GIST_update_2,2026.1.1,Linux armv81,59.52380952,67e45e2d59b1494f02e7f164,69b95efdef24cd8a694e89ee,69b960bc3fa06a0a46d6f0b0,0.0732,0.0733,0,50,50,124,1,sevenfive,,,,,,,,,,,,,,,,,,,,,,,,,,,,,,,,,,,,,,,,,,,,,,,,,,,,,,,,,,,,,,,,,,,,,,,,,,,,,,,,,,,,,,,,,,,,,,,,,,,,,,,,,,,,,,,,,,,,,,,,,,,,,,,,,,,,,,,,,
,,67e45e2d59b1494f02e7f164,2026-03-17_16h58.26.150,kallum_motion_pilot_GIST_update_2,2026.1.1,Linux armv81,59.52380952,67e45e2d59b1494f02e7f164,69b95efdef24cd8a694e89ee,69b960bc3fa06a0a46d6f0b0,0.0734,0.0734,0,51,51,117,1,seveneight,,,,,,,,,,,,,,,,,,,,,,,,,,,,,,,,,,,,,,,,,,,,,,,,,,,,,,,,,,,,,,,,,,,,,,,,,,,,,,,,,,,,,,,,,,,,,,,,,,,,,,,,,,,,,,,,,,,,,,,,,,,,,,,,,,,,,,,,,
,,67e45e2d59b1494f02e7f164,2026-03-17_16h58.26.150,kallum_motion_pilot_GIST_update_2,2026.1.1,Linux armv81,59.52380952,67e45e2d59b1494f02e7f164,69b95efdef24cd8a694e89ee,69b960bc3fa06a0a46d6f0b0,0.0737,0.0737,0,52,52,71,1,fourthree,,,,,,,,,,,,,,,,,,,,,,,,,,,,,,,,,,,,,,,,,,,,,,,,,,,,,,,,,,,,,,,,,,,,,,,,,,,,,,,,,,,,,,,,,,,,,,,,,,,,,,,,,,,,,,,,,,,,,,,,,,,,,,,,,,,,,,,,,
,,67e45e2d59b1494f02e7f164,2026-03-17_16h58.26.150,kallum_motion_pilot_GIST_update_2,2026.1.1,Linux armv81,59.52380952,67e45e2d59b1494f02e7f164,69b95efdef24cd8a694e89ee,69b960bc3fa06a0a46d6f0b0,0.074,0.074,0,53,53,96,1,fivesix,,,,,,,,,,,,,,,,,,,,,,,,,,,,,,,,,,,,,,,,,,,,,,,,,,,,,,,,,,,,,,,,,,,,,,,,,,,,,,,,,,,,,,,,,,,,,,,,,,,,,,,,,,,,,,,,,,,,,,,,,,,,,,,,,,,,,,,,,
,,67e45e2d59b1494f02e7f164,2026-03-17_16h58.26.150,kallum_motion_pilot_GIST_update_2,2026.1.1,Linux armv81,59.52380952,67e45e2d59b1494f02e7f164,69b95efdef24cd8a694e89ee,69b960bc3fa06a0a46d6f0b0,0.0741,0.0742,0,54,54,130,1,sixfive,,,,,,,,,,,,,,,,,,,,,,,,,,,,,,,,,,,,,,,,,,,,,,,,,,,,,,,,,,,,,,,,,,,,,,,,,,,,,,,,,,,,,,,,,,,,,,,,,,,,,,,,,,,,,,,,,,,,,,,,,,,,,,,,,,,,,,,,,
,,67e45e2d59b1494f02e7f164,2026-03-17_16h58.26.150,kallum_motion_pilot_GIST_update_2,2026.1.1,Linux armv81,59.52380952,67e45e2d59b1494f02e7f164,69b95efdef24cd8a694e89ee,69b960bc3fa06a0a46d6f0b0,0.0745,0.0745,0,55,55,140,1,sevenfive,,,,,,,,,,,,,,,,,,,,,,,,,,,,,,,,,,,,,,,,,,,,,,,,,,,,,,,,,,,,,,,,,,,,,,,,,,,,,,,,,,,,,,,,,,,,,,,,,,,,,,,,,,,,,,,,,,,,,,,,,,,,,,,,,,,,,,,,,
,,67e45e2d59b1494f02e7f164,2026-03-17_16h58.26.150,kallum_motion_pilot_GIST_update_2,2026.1.1,Linux armv81,59.52380952,67e45e2d59b1494f02e7f164,69b95efdef24cd8a694e89ee,69b960bc3fa06a0a46d6f0b0,0.0746,0.0746,0,56,56,137,1,fiveseven,,,,,,,,,,,,,,,,,,,,,,,,,,,,,,,,,,,,,,,,,,,,,,,,,,,,,,,,,,,,,,,,,,,,,,,,,,,,,,,,,,,,,,,,,,,,,,,,,,,,,,,,,,,,,,,,,,,,,,,,,,,,,,,,,,,,,,,,,
,,67e45e2d59b1494f02e7f164,2026-03-17_16h58.26.150,kallum_motion_pilot_GIST_update_2,2026.1.1,Linux armv81,59.52380952,67e45e2d59b1494f02e7f164,69b95efdef24cd8a694e89ee,69b960bc3fa06a0a46d6f0b0,0.0749,0.0749,0,57,57,155,1,sixeight,,,,,,,,,,,,,,,,,,,,,,,,,,,,,,,,,,,,,,,,,,,,,,,,,,,,,,,,,,,,,,,,,,,,,,,,,,,,,,,,,,,,,,,,,,,,,,,,,,,,,,,,,,,,,,,,,,,,,,,,,,,,,,,,,,,,,,,,,
,,67e45e2d59b1494f02e7f164,2026-03-17_16h58.26.150,kallum_motion_pilot_GIST_update_2,2026.1.1,Linux armv81,59.52380952,67e45e2d59b1494f02e7f164,69b95efdef24cd8a694e89ee,69b960bc3fa06a0a46d6f0b0,0.0752,0.0752,0,58,58,129,1,fiveseven,,,,,,,,,,,,,,,,,,,,,,,,,,,,,,,,,,,,,,,,,,,,,,,,,,,,,,,,,,,,,,,,,,,,,,,,,,,,,,,,,,,,,,,,,,,,,,,,,,,,,,,,,,,,,,,,,,,,,,,,,,,,,,,,,,,,,,,,,
,,67e45e2d59b1494f02e7f164,2026-03-17_16h58.26.150,kallum_motion_pilot_GIST_update_2,2026.1.1,Linux armv81,59.52380952,67e45e2d59b1494f02e7f164,69b95efdef24cd8a694e89ee,69b960bc3fa06a0a46d6f0b0,0.0755,0.0755,0,59,59,11,1,twofour,,,,,,,,,,,,,,,,,,,,,,,,,,,,,,,,,,,,,,,,,,,,,,,,,,,,,,,,,,,,,,,,,,,,,,,,,,,,,,,,,,,,,,,,,,,,,,,,,,,,,,,,,,,,,,,,,,,,,,,,,,,,,,,,,,,,,,,,,
,,67e45e2d59b1494f02e7f164,2026-03-17_16h58.26.150,kallum_motion_pilot_GIST_update_2,2026.1.1,Linux armv81,59.52380952,67e45e2d59b1494f02e7f164,69b95efdef24cd8a694e89ee,69b960bc3fa06a0a46d6f0b0,0.0757,0.0757,0,60,60,76,1,threeone,,,,,,,,,,,,,,,,,,,,,,,,,,,,,,,,,,,,,,,,,,,,,,,,,,,,,,,,,,,,,,,,,,,,,,,,,,,,,,,,,,,,,,,,,,,,,,,,,,,,,,,,,,,,,,,,,,,,,,,,,,,,,,,,,,,,,,,,,
,,67e45e2d59b1494f02e7f164,2026-03-17_16h58.26.150,kallum_motion_pilot_GIST_update_2,2026.1.1,Linux armv81,59.52380952,67e45e2d59b1494f02e7f164,69b95efdef24cd8a694e89ee,69b960bc3fa06a0a46d6f0b0,0.076,0.0761,0,61,61,91,1,sixeight,,,,,,,,,,,,,,,,,,,,,,,,,,,,,,,,,,,,,,,,,,,,,,,,,,,,,,,,,,,,,,,,,,,,,,,,,,,,,,,,,,,,,,,,,,,,,,,,,,,,,,,,,,,,,,,,,,,,,,,,,,,,,,,,,,,,,,,,,
,,67e45e2d59b1494f02e7f164,2026-03-17_16h58.26.150,kallum_motion_pilot_GIST_update_2,2026.1.1,Linux armv81,59.52380952,67e45e2d59b1494f02e7f164,69b95efdef24cd8a694e89ee,69b960bc3fa06a0a46d6f0b0,0.0763,0.0763,0,62,62,19,1,twofour,,,,,,,,,,,,,,,,,,,,,,,,,,,,,,,,,,,,,,,,,,,,,,,,,,,,,,,,,,,,,,,,,,,,,,,,,,,,,,,,,,,,,,,,,,,,,,,,,,,,,,,,,,,,,,,,,,,,,,,,,,,,,,,,,,,,,,,,,
,,67e45e2d59b1494f02e7f164,2026-03-17_16h58.26.150,kallum_motion_pilot_GIST_update_2,2026.1.1,Linux armv81,59.52380952,67e45e2d59b1494f02e7f164,69b95efdef24cd8a694e89ee,69b960bc3fa06a0a46d6f0b0,0.0765,0.0765,0,63,63,119,1,eightseven,,,,,,,,,,,,,,,,,,,,,,,,,,,,,,,,,,,,,,,,,,,,,,,,,,,,,,,,,,,,,,,,,,,,,,,,,,,,,,,,,,,,,,,,,,,,,,,,,,,,,,,,,,,,,,,,,,,,,,,,,,,,,,,,,,,,,,,,,
,,67e45e2d59b1494f02e7f164,2026-03-17_16h58.26.150,kallum_motion_pilot_GIST_update_2,2026.1.1,Linux armv81,59.52380952,67e45e2d59b1494f02e7f164,69b95efdef24cd8a694e89ee,69b960bc3fa06a0a46d6f0b0,0.0768,0.0768,0,64,64,62,1,fourtwo,,,,,,,,,,,,,,,,,,,,,,,,,,,,,,,,,,,,,,,,,,,,,,,,,,,,,,,,,,,,,,,,,,,,,,,,,,,,,,,,,,,,,,,,,,,,,,,,,,,,,,,,,,,,,,,,,,,,,,,,,,,,,,,,,,,,,,,,,
,,67e45e2d59b1494f02e7f164,2026-03-17_16h58.26.150,kallum_motion_pilot_GIST_update_2,2026.1.1,Linux armv81,59.52380952,67e45e2d59b1494f02e7f164,69b95efdef24cd8a694e89ee,69b960bc3fa06a0a46d6f0b0,0.077,0.0771,0,65,65,57,1,onethree,,,,,,,,,,,,,,,,,,,,,,,,,,,,,,,,,,,,,,,,,,,,,,,,,,,,,,,,,,,,,,,,,,,,,,,,,,,,,,,,,,,,,,,,,,,,,,,,,,,,,,,,,,,,,,,,,,,,,,,,,,,,,,,,,,,,,,,,,
,,67e45e2d59b1494f02e7f164,2026-03-17_16h58.26.150,kallum_motion_pilot_GIST_update_2,2026.1.1,Linux armv81,59.52380952,67e45e2d59b1494f02e7f164,69b95efdef24cd8a694e89ee,69b960bc3fa06a0a46d6f0b0,0.0777,0.0777,0,66,66,93,1,seveneight,,,,,,,,,,,,,,,,,,,,,,,,,,,,,,,,,,,,,,,,,,,,,,,,,,,,,,,,,,,,,,,,,,,,,,,,,,,,,,,,,,,,,,,,,,,,,,,,,,,,,,,,,,,,,,,,,,,,,,,,,,,,,,,,,,,,,,,,,
,,67e45e2d59b1494f02e7f164,2026-03-17_16h58.26.150,kallum_motion_pilot_GIST_update_2,2026.1.1,Linux armv81,59.52380952,67e45e2d59b1494f02e7f164,69b95efdef24cd8a694e89ee,69b960bc3fa06a0a46d6f0b0,0.078,0.0781,0,67,67,133,1,seveneight,,,,,,,,,,,,,,,,,,,,,,,,,,,,,,,,,,,,,,,,,,,,,,,,,,,,,,,,,,,,,,,,,,,,,,,,,,,,,,,,,,,,,,,,,,,,,,,,,,,,,,,,,,,,,,,,,,,,,,,,,,,,,,,,,,,,,,,,,
,,67e45e2d59b1494f02e7f164,2026-03-17_16h58.26.150,kallum_motion_pilot_GIST_update_2,2026.1.1,Linux armv81,59.52380952,67e45e2d59b1494f02e7f164,69b95efdef24cd8a694e89ee,69b960bc3fa06a0a46d6f0b0,0.0782,0.0783,0,68,68,88,1,fivesix,,,,,,,,,,,,,,,,,,,,,,,,,,,,,,,,,,,,,,,,,,,,,,,,,,,,,,,,,,,,,,,,,,,,,,,,,,,,,,,,,,,,,,,,,,,,,,,,,,,,,,,,,,,,,,,,,,,,,,,,,,,,,,,,,,,,,,,,,
,,67e45e2d59b1494f02e7f164,2026-03-17_16h58.26.150,kallum_motion_pilot_GIST_update_2,2026.1.1,Linux armv81,59.52380952,67e45e2d59b1494f02e7f164,69b95efdef24cd8a694e89ee,69b960bc3fa06a0a46d6f0b0,0.0785,0.0785,0,69,69,24,1,onetwo,,,,,,,,,,,,,,,,,,,,,,,,,,,,,,,,,,,,,,,,,,,,,,,,,,,,,,,,,,,,,,,,,,,,,,,,,,,,,,,,,,,,,,,,,,,,,,,,,,,,,,,,,,,,,,,,,,,,,,,,,,,,,,,,,,,,,,,,,
,,67e45e2d59b1494f02e7f164,2026-03-17_16h58.26.150,kallum_motion_pilot_GIST_update_2,2026.1.1,Linux armv81,59.52380952,67e45e2d59b1494f02e7f164,69b95efdef24cd8a694e89ee,69b960bc3fa06a0a46d6f0b0,0.0788,0.0788,0,70,70,110,1,eightsix,,,,,,,,,,,,,,,,,,,,,,,,,,,,,,,,,,,,,,,,,,,,,,,,,,,,,,,,,,,,,,,,,,,,,,,,,,,,,,,,,,,,,,,,,,,,,,,,,,,,,,,,,,,,,,,,,,,,,,,,,,,,,,,,,,,,,,,,,
,,67e45e2d59b1494f02e7f164,2026-03-17_16h58.26.150,kallum_motion_pilot_GIST_update_2,2026.1.1,Linux armv81,59.52380952,67e45e2d59b1494f02e7f164,69b95efdef24cd8a694e89ee,69b960bc3fa06a0a46d6f0b0,0.0791,0.0791,0,71,71,22,1,fourtwo,,,,,,,,,,,,,,,,,,,,,,,,,,,,,,,,,,,,,,,,,,,,,,,,,,,,,,,,,,,,,,,,,,,,,,,,,,,,,,,,,,,,,,,,,,,,,,,,,,,,,,,,,,,,,,,,,,,,,,,,,,,,,,,,,,,,,,,,,
,,67e45e2d59b1494f02e7f164,2026-03-17_16h58.26.150,kallum_motion_pilot_GIST_update_2,2026.1.1,Linux armv81,59.52380952,67e45e2d59b1494f02e7f164,69b95efdef24cd8a694e89ee,69b960bc3fa06a0a46d6f0b0,0.0794,0.0794,0,72,72,142,1,eightsix,,,,,,,,,,,,,,,,,,,,,,,,,,,,,,,,,,,,,,,,,,,,,,,,,,,,,,,,,,,,,,,,,,,,,,,,,,,,,,,,,,,,,,,,,,,,,,,,,,,,,,,,,,,,,,,,,,,,,,,,,,,,,,,,,,,,,,,,,
,,67e45e2d59b1494f02e7f164,2026-03-17_16h58.26.150,kallum_motion_pilot_GIST_update_2,2026.1.1,Linux armv81,59.52380952,67e45e2d59b1494f02e7f164,69b95efdef24cd8a694e89ee,69b960bc3fa06a0a46d6f0b0,0.0796,0.0796,0,73,73,16,1,onetwo,,,,,,,,,,,,,,,,,,,,,,,,,,,,,,,,,,,,,,,,,,,,,,,,,,,,,,,,,,,,,,,,,,,,,,,,,,,,,,,,,,,,,,,,,,,,,,,,,,,,,,,,,,,,,,,,,,,,,,,,,,,,,,,,,,,,,,,,,
,,67e45e2d59b1494f02e7f164,2026-03-17_16h58.26.150,kallum_motion_pilot_GIST_update_2,2026.1.1,Linux armv81,59.52380952,67e45e2d59b1494f02e7f164,69b95efdef24cd8a694e89ee,69b960bc3fa06a0a46d6f0b0,0.0799,0.0799,0,74,74,46,1,fourtwo,,,,,,,,,,,,,,,,,,,,,,,,,,,,,,,,,,,,,,,,,,,,,,,,,,,,,,,,,,,,,,,,,,,,,,,,,,,,,,,,,,,,,,,,,,,,,,,,,,,,,,,,,,,,,,,,,,,,,,,,,,,,,,,,,,,,,,,,,
,,67e45e2d59b1494f02e7f164,2026-03-17_16h58.26.150,kallum_motion_pilot_GIST_update_2,2026.1.1,Linux armv81,59.52380952,67e45e2d59b1494f02e7f164,69b95efdef24cd8a694e89ee,69b960bc3fa06a0a46d6f0b0,0.0802,0.0802,0,75,75,70,1,fourtwo,,,,,,,,,,,,,,,,,,,,,,,,,,,,,,,,,,,,,,,,,,,,,,,,,,,,,,,,,,,,,,,,,,,,,,,,,,,,,,,,,,,,,,,,,,,,,,,,,,,,,,,,,,,,,,,,,,,,,,,,,,,,,,,,,,,,,,,,,
,,67e45e2d59b1494f02e7f164,2026-03-17_16h58.26.150,kallum_motion_pilot_GIST_update_2,2026.1.1,Linux armv81,59.52380952,67e45e2d59b1494f02e7f164,69b95efdef24cd8a694e89ee,69b960bc3fa06a0a46d6f0b0,0.0804,0.0804,0,76,76,40,1,onetwo,,,,,,,,,,,,,,,,,,,,,,,,,,,,,,,,,,,,,,,,,,,,,,,,,,,,,,,,,,,,,,,,,,,,,,,,,,,,,,,,,,,,,,,,,,,,,,,,,,,,,,,,,,,,,,,,,,,,,,,,,,,,,,,,,,,,,,,,,
,,67e45e2d59b1494f02e7f164,2026-03-17_16h58.26.150,kallum_motion_pilot_GIST_update_2,2026.1.1,Linux armv81,59.52380952,67e45e2d59b1494f02e7f164,69b95efdef24cd8a694e89ee,69b960bc3fa06a0a46d6f0b0,0.0807,0.0808,0,77,77,73,1,onethree,,,,,,,,,,,,,,,,,,,,,,,,,,,,,,,,,,,,,,,,,,,,,,,,,,,,,,,,,,,,,,,,,,,,,,,,,,,,,,,,,,,,,,,,,,,,,,,,,,,,,,,,,,,,,,,,,,,,,,,,,,,,,,,,,,,,,,,,,
,,67e45e2d59b1494f02e7f164,2026-03-17_16h58.26.150,kallum_motion_pilot_GIST_update_2,2026.1.1,Linux armv81,59.52380952,67e45e2d59b1494f02e7f164,69b95efdef24cd8a694e89ee,69b960bc3fa06a0a46d6f0b0,0.081,0.081,0,78,78,148,1,sevenfive,,,,,,,,,,,,,,,,,,,,,,,,,,,,,,,,,,,,,,,,,,,,,,,,,,,,,,,,,,,,,,,,,,,,,,,,,,,,,,,,,,,,,,,,,,,,,,,,,,,,,,,,,,,,,,,,,,,,,,,,,,,,,,,,,,,,,,,,,
,,67e45e2d59b1494f02e7f164,2026-03-17_16h58.26.150,kallum_motion_pilot_GIST_update_2,2026.1.1,Linux armv81,59.52380952,67e45e2d59b1494f02e7f164,69b95efdef24cd8a694e89ee,69b960bc3fa06a0a46d6f0b0,0.0813,0.0813,0,79,79,90,1,sixfive,,,,,,,,,,,,,,,,,,,,,,,,,,,,,,,,,,,,,,,,,,,,,,,,,,,,,,,,,,,,,,,,,,,,,,,,,,,,,,,,,,,,,,,,,,,,,,,,,,,,,,,,,,,,,,,,,,,,,,,,,,,,,,,,,,,,,,,,,
,,67e45e2d59b1494f02e7f164,2026-03-17_16h58.26.150,kallum_motion_pilot_GIST_update_2,2026.1.1,Linux armv81,59.52380952,67e45e2d59b1494f02e7f164,69b95efdef24cd8a694e89ee,69b960bc3fa06a0a46d6f0b0,0.0816,0.0816,0,80,80,8,1,onetwo,,,,,,,,,,,,,,,,,,,,,,,,,,,,,,,,,,,,,,,,,,,,,,,,,,,,,,,,,,,,,,,,,,,,,,,,,,,,,,,,,,,,,,,,,,,,,,,,,,,,,,,,,,,,,,,,,,,,,,,,,,,,,,,,,,,,,,,,,
,,67e45e2d59b1494f02e7f164,2026-03-17_16h58.26.150,kallum_motion_pilot_GIST_update_2,2026.1.1,Linux armv81,59.52380952,67e45e2d59b1494f02e7f164,69b95efdef24cd8a694e89ee,69b960bc3fa06a0a46d6f0b0,0.0819,0.0819,0,81,81,21,1,threefour,,,,,,,,,,,,,,,,,,,,,,,,,,,,,,,,,,,,,,,,,,,,,,,,,,,,,,,,,,,,,,,,,,,,,,,,,,,,,,,,,,,,,,,,,,,,,,,,,,,,,,,,,,,,,,,,,,,,,,,,,,,,,,,,,,,,,,,,,
,,67e45e2d59b1494f02e7f164,2026-03-17_16h58.26.150,kallum_motion_pilot_GIST_update_2,2026.1.1,Linux armv81,59.52380952,67e45e2d59b1494f02e7f164,69b95efdef24cd8a694e89ee,69b960bc3fa06a0a46d6f0b0,0.0822,0.0822,0,82,82,132,1,sevenfive,,,,,,,,,,,,,,,,,,,,,,,,,,,,,,,,,,,,,,,,,,,,,,,,,,,,,,,,,,,,,,,,,,,,,,,,,,,,,,,,,,,,,,,,,,,,,,,,,,,,,,,,,,,,,,,,,,,,,,,,,,,,,,,,,,,,,,,,,
,,67e45e2d59b1494f02e7f164,2026-03-17_16h58.26.150,kallum_motion_pilot_GIST_update_2,2026.1.1,Linux armv81,59.52380952,67e45e2d59b1494f02e7f164,69b95efdef24cd8a694e89ee,69b960bc3fa06a0a46d6f0b0,0.0824,0.0824,0,83,83,69,1,threefour,,,,,,,,,,,,,,,,,,,,,,,,,,,,,,,,,,,,,,,,,,,,,,,,,,,,,,,,,,,,,,,,,,,,,,,,,,,,,,,,,,,,,,,,,,,,,,,,,,,,,,,,,,,,,,,,,,,,,,,,,,,,,,,,,,,,,,,,,
,,67e45e2d59b1494f02e7f164,2026-03-17_16h58.26.150,kallum_motion_pilot_GIST_update_2,2026.1.1,Linux armv81,59.52380952,67e45e2d59b1494f02e7f164,69b95efdef24cd8a694e89ee,69b960bc3fa06a0a46d6f0b0,0.0828,0.0828,0,84,84,158,1,eightsix,,,,,,,,,,,,,,,,,,,,,,,,,,,,,,,,,,,,,,,,,,,,,,,,,,,,,,,,,,,,,,,,,,,,,,,,,,,,,,,,,,,,,,,,,,,,,,,,,,,,,,,,,,,,,,,,,,,,,,,,,,,,,,,,,,,,,,,,,
,,67e45e2d59b1494f02e7f164,2026-03-17_16h58.26.150,kallum_motion_pilot_GIST_update_2,2026.1.1,Linux armv81,59.52380952,67e45e2d59b1494f02e7f164,69b95efdef24cd8a694e89ee,69b960bc3fa06a0a46d6f0b0,0.0831,0.0831,0,85,85,151,1,eightseven,,,,,,,,,,,,,,,,,,,,,,,,,,,,,,,,,,,,,,,,,,,,,,,,,,,,,,,,,,,,,,,,,,,,,,,,,,,,,,,,,,,,,,,,,,,,,,,,,,,,,,,,,,,,,,,,,,,,,,,,,,,,,,,,,,,,,,,,,
,,67e45e2d59b1494f02e7f164,2026-03-17_16h58.26.150,kallum_motion_pilot_GIST_update_2,2026.1.1,Linux armv81,59.52380952,67e45e2d59b1494f02e7f164,69b95efdef24cd8a694e89ee,69b960bc3fa06a0a46d6f0b0,0.0833,0.0834,0,86,86,36,1,threeone,,,,,,,,,,,,,,,,,,,,,,,,,,,,,,,,,,,,,,,,,,,,,,,,,,,,,,,,,,,,,,,,,,,,,,,,,,,,,,,,,,,,,,,,,,,,,,,,,,,,,,,,,,,,,,,,,,,,,,,,,,,,,,,,,,,,,,,,,
,,67e45e2d59b1494f02e7f164,2026-03-17_16h58.26.150,kallum_motion_pilot_GIST_update_2,2026.1.1,Linux armv81,59.52380952,67e45e2d59b1494f02e7f164,69b95efdef24cd8a694e89ee,69b960bc3fa06a0a46d6f0b0,0.0836,0.0836,0,87,87,103,1,eightseven,,,,,,,,,,,,,,,,,,,,,,,,,,,,,,,,,,,,,,,,,,,,,,,,,,,,,,,,,,,,,,,,,,,,,,,,,,,,,,,,,,,,,,,,,,,,,,,,,,,,,,,,,,,,,,,,,,,,,,,,,,,,,,,,,,,,,,,,,
,,67e45e2d59b1494f02e7f164,2026-03-17_16h58.26.150,kallum_motion_pilot_GIST_update_2,2026.1.1,Linux armv81,59.52380952,67e45e2d59b1494f02e7f164,69b95efdef24cd8a694e89ee,69b960bc3fa06a0a46d6f0b0,0.0839,0.0839,0,88,88,87,1,eightseven,,,,,,,,,,,,,,,,,,,,,,,,,,,,,,,,,,,,,,,,,,,,,,,,,,,,,,,,,,,,,,,,,,,,,,,,,,,,,,,,,,,,,,,,,,,,,,,,,,,,,,,,,,,,,,,,,,,,,,,,,,,,,,,,,,,,,,,,,
,,67e45e2d59b1494f02e7f164,2026-03-17_16h58.26.150,kallum_motion_pilot_GIST_update_2,2026.1.1,Linux armv81,59.52380952,67e45e2d59b1494f02e7f164,69b95efdef24cd8a694e89ee,69b960bc3fa06a0a46d6f0b0,0.0841,0.0842,0,89,89,97,1,fiveseven,,,,,,,,,,,,,,,,,,,,,,,,,,,,,,,,,,,,,,,,,,,,,,,,,,,,,,,,,,,,,,,,,,,,,,,,,,,,,,,,,,,,,,,,,,,,,,,,,,,,,,,,,,,,,,,,,,,,,,,,,,,,,,,,,,,,,,,,,
,,67e45e2d59b1494f02e7f164,2026-03-17_16h58.26.150,kallum_motion_pilot_GIST_update_2,2026.1.1,Linux armv81,59.52380952,67e45e2d59b1494f02e7f164,69b95efdef24cd8a694e89ee,69b960bc3fa06a0a46d6f0b0,0.0845,0.0845,0,90,90,28,1,threeone,,,,,,,,,,,,,,,,,,,,,,,,,,,,,,,,,,,,,,,,,,,,,,,,,,,,,,,,,,,,,,,,,,,,,,,,,,,,,,,,,,,,,,,,,,,,,,,,,,,,,,,,,,,,,,,,,,,,,,,,,,,,,,,,,,,,,,,,,
,,67e45e2d59b1494f02e7f164,2026-03-17_16h58.26.150,kallum_motion_pilot_GIST_update_2,2026.1.1,Linux armv81,59.52380952,67e45e2d59b1494f02e7f164,69b95efdef24cd8a694e89ee,69b960bc3fa06a0a46d6f0b0,0.0847,0.0847,0,91,91,41,1,onethree,,,,,,,,,,,,,,,,,,,,,,,,,,,,,,,,,,,,,,,,,,,,,,,,,,,,,,,,,,,,,,,,,,,,,,,,,,,,,,,,,,,,,,,,,,,,,,,,,,,,,,,,,,,,,,,,,,,,,,,,,,,,,,,,,,,,,,,,,
,,67e45e2d59b1494f02e7f164,2026-03-17_16h58.26.150,kallum_motion_pilot_GIST_update_2,2026.1.1,Linux armv81,59.52380952,67e45e2d59b1494f02e7f164,69b95efdef24cd8a694e89ee,69b960bc3fa06a0a46d6f0b0,0.0851,0.0851,0,92,92,139,1,sixeight,,,,,,,,,,,,,,,,,,,,,,,,,,,,,,,,,,,,,,,,,,,,,,,,,,,,,,,,,,,,,,,,,,,,,,,,,,,,,,,,,,,,,,,,,,,,,,,,,,,,,,,,,,,,,,,,,,,,,,,,,,,,,,,,,,,,,,,,,
,,67e45e2d59b1494f02e7f164,2026-03-17_16h58.26.150,kallum_motion_pilot_GIST_update_2,2026.1.1,Linux armv81,59.52380952,67e45e2d59b1494f02e7f164,69b95efdef24cd8a694e89ee,69b960bc3fa06a0a46d6f0b0,0.0854,0.0854,0,93,93,32,1,onetwo,,,,,,,,,,,,,,,,,,,,,,,,,,,,,,,,,,,,,,,,,,,,,,,,,,,,,,,,,,,,,,,,,,,,,,,,,,,,,,,,,,,,,,,,,,,,,,,,,,,,,,,,,,,,,,,,,,,,,,,,,,,,,,,,,,,,,,,,,
,,67e45e2d59b1494f02e7f164,2026-03-17_16h58.26.150,kallum_motion_pilot_GIST_update_2,2026.1.1,Linux armv81,59.52380952,67e45e2d59b1494f02e7f164,69b95efdef24cd8a694e89ee,69b960bc3fa06a0a46d6f0b0,0.0857,0.0857,0,94,94,54,1,fourtwo,,,,,,,,,,,,,,,,,,,,,,,,,,,,,,,,,,,,,,,,,,,,,,,,,,,,,,,,,,,,,,,,,,,,,,,,,,,,,,,,,,,,,,,,,,,,,,,,,,,,,,,,,,,,,,,,,,,,,,,,,,,,,,,,,,,,,,,,,
,,67e45e2d59b1494f02e7f164,2026-03-17_16h58.26.150,kallum_motion_pilot_GIST_update_2,2026.1.1,Linux armv81,59.52380952,67e45e2d59b1494f02e7f164,69b95efdef24cd8a694e89ee,69b960bc3fa06a0a46d6f0b0,0.0861,0.0861,0,95,95,78,1,fourtwo,,,,,,,,,,,,,,,,,,,,,,,,,,,,,,,,,,,,,,,,,,,,,,,,,,,,,,,,,,,,,,,,,,,,,,,,,,,,,,,,,,,,,,,,,,,,,,,,,,,,,,,,,,,,,,,,,,,,,,,,,,,,,,,,,,,,,,,,,
,,67e45e2d59b1494f02e7f164,2026-03-17_16h58.26.150,kallum_motion_pilot_GIST_update_2,2026.1.1,Linux armv81,59.52380952,67e45e2d59b1494f02e7f164,69b95efdef24cd8a694e89ee,69b960bc3fa06a0a46d6f0b0,0.0863,0.0863,0,96,96,23,1,fourthree,,,,,,,,,,,,,,,,,,,,,,,,,,,,,,,,,,,,,,,,,,,,,,,,,,,,,,,,,,,,,,,,,,,,,,,,,,,,,,,,,,,,,,,,,,,,,,,,,,,,,,,,,,,,,,,,,,,,,,,,,,,,,,,,,,,,,,,,,
,,67e45e2d59b1494f02e7f164,2026-03-17_16h58.26.150,kallum_motion_pilot_GIST_update_2,2026.1.1,Linux armv81,59.52380952,67e45e2d59b1494f02e7f164,69b95efdef24cd8a694e89ee,69b960bc3fa06a0a46d6f0b0,0.0867,0.0867,0,97,97,4,1,threeone,,,,,,,,,,,,,,,,,,,,,,,,,,,,,,,,,,,,,,,,,,,,,,,,,,,,,,,,,,,,,,,,,,,,,,,,,,,,,,,,,,,,,,,,,,,,,,,,,,,,,,,,,,,,,,,,,,,,,,,,,,,,,,,,,,,,,,,,,
,,67e45e2d59b1494f02e7f164,2026-03-17_16h58.26.150,kallum_motion_pilot_GIST_update_2,2026.1.1,Linux armv81,59.52380952,67e45e2d59b1494f02e7f164,69b95efdef24cd8a694e89ee,69b960bc3fa06a0a46d6f0b0,0.0871,0.0871,0,98,98,27,1,twofour,,,,,,,,,,,,,,,,,,,,,,,,,,,,,,,,,,,,,,,,,,,,,,,,,,,,,,,,,,,,,,,,,,,,,,,,,,,,,,,,,,,,,,,,,,,,,,,,,,,,,,,,,,,,,,,,,,,,,,,,,,,,,,,,,,,,,,,,,
,,67e45e2d59b1494f02e7f164,2026-03-17_16h58.26.150,kallum_motion_pilot_GIST_update_2,2026.1.1,Linux armv81,59.52380952,67e45e2d59b1494f02e7f164,69b95efdef24cd8a694e89ee,69b960bc3fa06a0a46d6f0b0,0.0874,0.0874,0,99,99,106,1,sixfive,,,,,,,,,,,,,,,,,,,,,,,,,,,,,,,,,,,,,,,,,,,,,,,,,,,,,,,,,,,,,,,,,,,,,,,,,,,,,,,,,,,,,,,,,,,,,,,,,,,,,,,,,,,,,,,,,,,,,,,,,,,,,,,,,,,,,,,,,
,,67e45e2d59b1494f02e7f164,2026-03-17_16h58.26.150,kallum_motion_pilot_GIST_update_2,2026.1.1,Linux armv81,59.52380952,67e45e2d59b1494f02e7f164,69b95efdef24cd8a694e89ee,69b960bc3fa06a0a46d6f0b0,0.0878,0.0878,0,100,100,160,1,fivesix,,,,,,,,,,,,,,,,,,,,,,,,,,,,,,,,,,,,,,,,,,,,,,,,,,,,,,,,,,,,,,,,,,,,,,,,,,,,,,,,,,,,,,,,,,,,,,,,,,,,,,,,,,,,,,,,,,,,,,,,,,,,,,,,,,,,,,,,,
,,67e45e2d59b1494f02e7f164,2026-03-17_16h58.26.150,kallum_motion_pilot_GIST_update_2,2026.1.1,Linux armv81,59.52380952,67e45e2d59b1494f02e7f164,69b95efdef24cd8a694e89ee,69b960bc3fa06a0a46d6f0b0,0.0882,0.0882,0,101,101,114,1,sixfive,,,,,,,,,,,,,,,,,,,,,,,,,,,,,,,,,,,,,,,,,,,,,,,,,,,,,,,,,,,,,,,,,,,,,,,,,,,,,,,,,,,,,,,,,,,,,,,,,,,,,,,,,,,,,,,,,,,,,,,,,,,,,,,,,,,,,,,,,
,,67e45e2d59b1494f02e7f164,2026-03-17_16h58.26.150,kallum_motion_pilot_GIST_update_2,2026.1.1,Linux armv81,59.52380952,67e45e2d59b1494f02e7f164,69b95efdef24cd8a694e89ee,69b960bc3fa06a0a46d6f0b0,0.0885,0.0885,0,102,102,95,1,eightseven,,,,,,,,,,,,,,,,,,,,,,,,,,,,,,,,,,,,,,,,,,,,,,,,,,,,,,,,,,,,,,,,,,,,,,,,,,,,,,,,,,,,,,,,,,,,,,,,,,,,,,,,,,,,,,,,,,,,,,,,,,,,,,,,,,,,,,,,,
,,67e45e2d59b1494f02e7f164,2026-03-17_16h58.26.150,kallum_motion_pilot_GIST_update_2,2026.1.1,Linux armv81,59.52380952,67e45e2d59b1494f02e7f164,69b95efdef24cd8a694e89ee,69b960bc3fa06a0a46d6f0b0,0.0888,0.0889,0,103,103,74,1,twoone,,,,,,,,,,,,,,,,,,,,,,,,,,,,,,,,,,,,,,,,,,,,,,,,,,,,,,,,,,,,,,,,,,,,,,,,,,,,,,,,,,,,,,,,,,,,,,,,,,,,,,,,,,,,,,,,,,,,,,,,,,,,,,,,,,,,,,,,,
,,67e45e2d59b1494f02e7f164,2026-03-17_16h58.26.150,kallum_motion_pilot_GIST_update_2,2026.1.1,Linux armv81,59.52380952,67e45e2d59b1494f02e7f164,69b95efdef24cd8a694e89ee,69b960bc3fa06a0a46d6f0b0,0.0893,0.0893,0,104,104,138,1,sixfive,,,,,,,,,,,,,,,,,,,,,,,,,,,,,,,,,,,,,,,,,,,,,,,,,,,,,,,,,,,,,,,,,,,,,,,,,,,,,,,,,,,,,,,,,,,,,,,,,,,,,,,,,,,,,,,,,,,,,,,,,,,,,,,,,,,,,,,,,
,,67e45e2d59b1494f02e7f164,2026-03-17_16h58.26.150,kallum_motion_pilot_GIST_update_2,2026.1.1,Linux armv81,59.52380952,67e45e2d59b1494f02e7f164,69b95efdef24cd8a694e89ee,69b960bc3fa06a0a46d6f0b0,0.0895,0.0896,0,105,105,51,1,twofour,,,,,,,,,,,,,,,,,,,,,,,,,,,,,,,,,,,,,,,,,,,,,,,,,,,,,,,,,,,,,,,,,,,,,,,,,,,,,,,,,,,,,,,,,,,,,,,,,,,,,,,,,,,,,,,,,,,,,,,,,,,,,,,,,,,,,,,,,
,,67e45e2d59b1494f02e7f164,2026-03-17_16h58.26.150,kallum_motion_pilot_GIST_update_2,2026.1.1,Linux armv81,59.52380952,67e45e2d59b1494f02e7f164,69b95efdef24cd8a694e89ee,69b960bc3fa06a0a46d6f0b0,0.0899,0.0899,0,106,106,75,1,twofour,,,,,,,,,,,,,,,,,,,,,,,,,,,,,,,,,,,,,,,,,,,,,,,,,,,,,,,,,,,,,,,,,,,,,,,,,,,,,,,,,,,,,,,,,,,,,,,,,,,,,,,,,,,,,,,,,,,,,,,,,,,,,,,,,,,,,,,,,
,,67e45e2d59b1494f02e7f164,2026-03-17_16h58.26.150,kallum_motion_pilot_GIST_update_2,2026.1.1,Linux armv81,59.52380952,67e45e2d59b1494f02e7f164,69b95efdef24cd8a694e89ee,69b960bc3fa06a0a46d6f0b0,0.0902,0.0902,0,107,107,59,1,twofour,,,,,,,,,,,,,,,,,,,,,,,,,,,,,,,,,,,,,,,,,,,,,,,,,,,,,,,,,,,,,,,,,,,,,,,,,,,,,,,,,,,,,,,,,,,,,,,,,,,,,,,,,,,,,,,,,,,,,,,,,,,,,,,,,,,,,,,,,
,,67e45e2d59b1494f02e7f164,2026-03-17_16h58.26.150,kallum_motion_pilot_GIST_update_2,2026.1.1,Linux armv81,59.52380952,67e45e2d59b1494f02e7f164,69b95efdef24cd8a694e89ee,69b960bc3fa06a0a46d6f0b0,0.0905,0.0905,0,108,108,107,1,sixeight,,,,,,,,,,,,,,,,,,,,,,,,,,,,,,,,,,,,,,,,,,,,,,,,,,,,,,,,,,,,,,,,,,,,,,,,,,,,,,,,,,,,,,,,,,,,,,,,,,,,,,,,,,,,,,,,,,,,,,,,,,,,,,,,,,,,,,,,,
,,67e45e2d59b1494f02e7f164,2026-03-17_16h58.26.150,kallum_motion_pilot_GIST_update_2,2026.1.1,Linux armv81,59.52380952,67e45e2d59b1494f02e7f164,69b95efdef24cd8a694e89ee,69b960bc3fa06a0a46d6f0b0,0.0908,0.0908,0,109,109,82,1,sixfive,,,,,,,,,,,,,,,,,,,,,,,,,,,,,,,,,,,,,,,,,,,,,,,,,,,,,,,,,,,,,,,,,,,,,,,,,,,,,,,,,,,,,,,,,,,,,,,,,,,,,,,,,,,,,,,,,,,,,,,,,,,,,,,,,,,,,,,,,
,,67e45e2d59b1494f02e7f164,2026-03-17_16h58.26.150,kallum_motion_pilot_GIST_update_2,2026.1.1,Linux armv81,59.52380952,67e45e2d59b1494f02e7f164,69b95efdef24cd8a694e89ee,69b960bc3fa06a0a46d6f0b0,0.091,0.091,0,110,110,85,1,seveneight,,,,,,,,,,,,,,,,,,,,,,,,,,,,,,,,,,,,,,,,,,,,,,,,,,,,,,,,,,,,,,,,,,,,,,,,,,,,,,,,,,,,,,,,,,,,,,,,,,,,,,,,,,,,,,,,,,,,,,,,,,,,,,,,,,,,,,,,,
,,67e45e2d59b1494f02e7f164,2026-03-17_16h58.26.150,kallum_motion_pilot_GIST_update_2,2026.1.1,Linux armv81,59.52380952,67e45e2d59b1494f02e7f164,69b95efdef24cd8a694e89ee,69b960bc3fa06a0a46d6f0b0,0.0914,0.0914,0,111,111,153,1,fiveseven,,,,,,,,,,,,,,,,,,,,,,,,,,,,,,,,,,,,,,,,,,,,,,,,,,,,,,,,,,,,,,,,,,,,,,,,,,,,,,,,,,,,,,,,,,,,,,,,,,,,,,,,,,,,,,,,,,,,,,,,,,,,,,,,,,,,,,,,,
,,67e45e2d59b1494f02e7f164,2026-03-17_16h58.26.150,kallum_motion_pilot_GIST_update_2,2026.1.1,Linux armv81,59.52380952,67e45e2d59b1494f02e7f164,69b95efdef24cd8a694e89ee,69b960bc3fa06a0a46d6f0b0,0.0917,0.0917,0,112,112,37,1,threefour,,,,,,,,,,,,,,,,,,,,,,,,,,,,,,,,,,,,,,,,,,,,,,,,,,,,,,,,,,,,,,,,,,,,,,,,,,,,,,,,,,,,,,,,,,,,,,,,,,,,,,,,,,,,,,,,,,,,,,,,,,,,,,,,,,,,,,,,,
,,67e45e2d59b1494f02e7f164,2026-03-17_16h58.26.150,kallum_motion_pilot_GIST_update_2,2026.1.1,Linux armv81,59.52380952,67e45e2d59b1494f02e7f164,69b95efdef24cd8a694e89ee,69b960bc3fa06a0a46d6f0b0,0.092,0.092,0,113,113,52,1,threeone,,,,,,,,,,,,,,,,,,,,,,,,,,,,,,,,,,,,,,,,,,,,,,,,,,,,,,,,,,,,,,,,,,,,,,,,,,,,,,,,,,,,,,,,,,,,,,,,,,,,,,,,,,,,,,,,,,,,,,,,,,,,,,,,,,,,,,,,,
,,67e45e2d59b1494f02e7f164,2026-03-17_16h58.26.150,kallum_motion_pilot_GIST_update_2,2026.1.1,Linux armv81,59.52380952,67e45e2d59b1494f02e7f164,69b95efdef24cd8a694e89ee,69b960bc3fa06a0a46d6f0b0,0.0923,0.0923,0,114,114,80,1,fivesix,,,,,,,,,,,,,,,,,,,,,,,,,,,,,,,,,,,,,,,,,,,,,,,,,,,,,,,,,,,,,,,,,,,,,,,,,,,,,,,,,,,,,,,,,,,,,,,,,,,,,,,,,,,,,,,,,,,,,,,,,,,,,,,,,,,,,,,,,
,,67e45e2d59b1494f02e7f164,2026-03-17_16h58.26.150,kallum_motion_pilot_GIST_update_2,2026.1.1,Linux armv81,59.52380952,67e45e2d59b1494f02e7f164,69b95efdef24cd8a694e89ee,69b960bc3fa06a0a46d6f0b0,0.0926,0.0926,0,115,115,61,1,threefour,,,,,,,,,,,,,,,,,,,,,,,,,,,,,,,,,,,,,,,,,,,,,,,,,,,,,,,,,,,,,,,,,,,,,,,,,,,,,,,,,,,,,,,,,,,,,,,,,,,,,,,,,,,,,,,,,,,,,,,,,,,,,,,,,,,,,,,,,
,,67e45e2d59b1494f02e7f164,2026-03-17_16h58.26.150,kallum_motion_pilot_GIST_update_2,2026.1.1,Linux armv81,59.52380952,67e45e2d59b1494f02e7f164,69b95efdef24cd8a694e89ee,69b960bc3fa06a0a46d6f0b0,0.0928,0.0929,0,116,116,86,1,eightsix,,,,,,,,,,,,,,,,,,,,,,,,,,,,,,,,,,,,,,,,,,,,,,,,,,,,,,,,,,,,,,,,,,,,,,,,,,,,,,,,,,,,,,,,,,,,,,,,,,,,,,,,,,,,,,,,,,,,,,,,,,,,,,,,,,,,,,,,,
,,67e45e2d59b1494f02e7f164,2026-03-17_16h58.26.150,kallum_motion_pilot_GIST_update_2,2026.1.1,Linux armv81,59.52380952,67e45e2d59b1494f02e7f164,69b95efdef24cd8a694e89ee,69b960bc3fa06a0a46d6f0b0,0.0932,0.0932,0,117,117,161,1,fiveseven,,,,,,,,,,,,,,,,,,,,,,,,,,,,,,,,,,,,,,,,,,,,,,,,,,,,,,,,,,,,,,,,,,,,,,,,,,,,,,,,,,,,,,,,,,,,,,,,,,,,,,,,,,,,,,,,,,,,,,,,,,,,,,,,,,,,,,,,,
,,67e45e2d59b1494f02e7f164,2026-03-17_16h58.26.150,kallum_motion_pilot_GIST_update_2,2026.1.1,Linux armv81,59.52380952,67e45e2d59b1494f02e7f164,69b95efdef24cd8a694e89ee,69b960bc3fa06a0a46d6f0b0,0.0935,0.0935,0,118,118,14,1,fourtwo,,,,,,,,,,,,,,,,,,,,,,,,,,,,,,,,,,,,,,,,,,,,,,,,,,,,,,,,,,,,,,,,,,,,,,,,,,,,,,,,,,,,,,,,,,,,,,,,,,,,,,,,,,,,,,,,,,,,,,,,,,,,,,,,,,,,,,,,,
,,67e45e2d59b1494f02e7f164,2026-03-17_16h58.26.150,kallum_motion_pilot_GIST_update_2,2026.1.1,Linux armv81,59.52380952,67e45e2d59b1494f02e7f164,69b95efdef24cd8a694e89ee,69b960bc3fa06a0a46d6f0b0,0.0938,0.0938,0,119,119,128,1,fivesix,,,,,,,,,,,,,,,,,,,,,,,,,,,,,,,,,,,,,,,,,,,,,,,,,,,,,,,,,,,,,,,,,,,,,,,,,,,,,,,,,,,,,,,,,,,,,,,,,,,,,,,,,,,,,,,,,,,,,,,,,,,,,,,,,,,,,,,,,
,,67e45e2d59b1494f02e7f164,2026-03-17_16h58.26.150,kallum_motion_pilot_GIST_update_2,2026.1.1,Linux armv81,59.52380952,67e45e2d59b1494f02e7f164,69b95efdef24cd8a694e89ee,69b960bc3fa06a0a46d6f0b0,0.0941,0.0941,0,120,120,26,1,twoone,,,,,,,,,,,,,,,,,,,,,,,,,,,,,,,,,,,,,,,,,,,,,,,,,,,,,,,,,,,,,,,,,,,,,,,,,,,,,,,,,,,,,,,,,,,,,,,,,,,,,,,,,,,,,,,,,,,,,,,,,,,,,,,,,,,,,,,,,
,,67e45e2d59b1494f02e7f164,2026-03-17_16h58.26.150,kallum_motion_pilot_GIST_update_2,2026.1.1,Linux armv81,59.52380952,67e45e2d59b1494f02e7f164,69b95efdef24cd8a694e89ee,69b960bc3fa06a0a46d6f0b0,0.0944,0.0944,0,121,121,159,1,eightseven,,,,,,,,,,,,,,,,,,,,,,,,,,,,,,,,,,,,,,,,,,,,,,,,,,,,,,,,,,,,,,,,,,,,,,,,,,,,,,,,,,,,,,,,,,,,,,,,,,,,,,,,,,,,,,,,,,,,,,,,,,,,,,,,,,,,,,,,,
,,67e45e2d59b1494f02e7f164,2026-03-17_16h58.26.150,kallum_motion_pilot_GIST_update_2,2026.1.1,Linux armv81,59.52380952,67e45e2d59b1494f02e7f164,69b95efdef24cd8a694e89ee,69b960bc3fa06a0a46d6f0b0,0.0949,0.0949,0,122,122,49,1,onethree,,,,,,,,,,,,,,,,,,,,,,,,,,,,,,,,,,,,,,,,,,,,,,,,,,,,,,,,,,,,,,,,,,,,,,,,,,,,,,,,,,,,,,,,,,,,,,,,,,,,,,,,,,,,,,,,,,,,,,,,,,,,,,,,,,,,,,,,,
,,67e45e2d59b1494f02e7f164,2026-03-17_16h58.26.150,kallum_motion_pilot_GIST_update_2,2026.1.1,Linux armv81,59.52380952,67e45e2d59b1494f02e7f164,69b95efdef24cd8a694e89ee,69b960bc3fa06a0a46d6f0b0,0.0953,0.0954,0,123,123,109,1,seveneight,,,,,,,,,,,,,,,,,,,,,,,,,,,,,,,,,,,,,,,,,,,,,,,,,,,,,,,,,,,,,,,,,,,,,,,,,,,,,,,,,,,,,,,,,,,,,,,,,,,,,,,,,,,,,,,,,,,,,,,,,,,,,,,,,,,,,,,,,
,,67e45e2d59b1494f02e7f164,2026-03-17_16h58.26.150,kallum_motion_pilot_GIST_update_2,2026.1.1,Linux armv81,59.52380952,67e45e2d59b1494f02e7f164,69b95efdef24cd8a694e89ee,69b960bc3fa06a0a46d6f0b0,0.0959,0.0959,0,124,124,141,1,seveneight,,,,,,,,,,,,,,,,,,,,,,,,,,,,,,,,,,,,,,,,,,,,,,,,,,,,,,,,,,,,,,,,,,,,,,,,,,,,,,,,,,,,,,,,,,,,,,,,,,,,,,,,,,,,,,,,,,,,,,,,,,,,,,,,,,,,,,,,,
,,67e45e2d59b1494f02e7f164,2026-03-17_16h58.26.150,kallum_motion_pilot_GIST_update_2,2026.1.1,Linux armv81,59.52380952,67e45e2d59b1494f02e7f164,69b95efdef24cd8a694e89ee,69b960bc3fa06a0a46d6f0b0,0.0964,0.0965,0,125,125,38,1,fourtwo,,,,,,,,,,,,,,,,,,,,,,,,,,,,,,,,,,,,,,,,,,,,,,,,,,,,,,,,,,,,,,,,,,,,,,,,,,,,,,,,,,,,,,,,,,,,,,,,,,,,,,,,,,,,,,,,,,,,,,,,,,,,,,,,,,,,,,,,,
,,67e45e2d59b1494f02e7f164,2026-03-17_16h58.26.150,kallum_motion_pilot_GIST_update_2,2026.1.1,Linux armv81,59.52380952,67e45e2d59b1494f02e7f164,69b95efdef24cd8a694e89ee,69b960bc3fa06a0a46d6f0b0,0.0968,0.0968,0,126,126,115,1,sixeight,,,,,,,,,,,,,,,,,,,,,,,,,,,,,,,,,,,,,,,,,,,,,,,,,,,,,,,,,,,,,,,,,,,,,,,,,,,,,,,,,,,,,,,,,,,,,,,,,,,,,,,,,,,,,,,,,,,,,,,,,,,,,,,,,,,,,,,,,
,,67e45e2d59b1494f02e7f164,2026-03-17_16h58.26.150,kallum_motion_pilot_GIST_update_2,2026.1.1,Linux armv81,59.52380952,67e45e2d59b1494f02e7f164,69b95efdef24cd8a694e89ee,69b960bc3fa06a0a46d6f0b0,0.0972,0.0972,0,127,127,157,1,seveneight,,,,,,,,,,,,,,,,,,,,,,,,,,,,,,,,,,,,,,,,,,,,,,,,,,,,,,,,,,,,,,,,,,,,,,,,,,,,,,,,,,,,,,,,,,,,,,,,,,,,,,,,,,,,,,,,,,,,,,,,,,,,,,,,,,,,,,,,,
,,67e45e2d59b1494f02e7f164,2026-03-17_16h58.26.150,kallum_motion_pilot_GIST_update_2,2026.1.1,Linux armv81,59.52380952,67e45e2d59b1494f02e7f164,69b95efdef24cd8a694e89ee,69b960bc3fa06a0a46d6f0b0,0.0975,0.0975,0,128,128,30,1,fourtwo,,,,,,,,,,,,,,,,,,,,,,,,,,,,,,,,,,,,,,,,,,,,,,,,,,,,,,,,,,,,,,,,,,,,,,,,,,,,,,,,,,,,,,,,,,,,,,,,,,,,,,,,,,,,,,,,,,,,,,,,,,,,,,,,,,,,,,,,,
,,67e45e2d59b1494f02e7f164,2026-03-17_16h58.26.150,kallum_motion_pilot_GIST_update_2,2026.1.1,Linux armv81,59.52380952,67e45e2d59b1494f02e7f164,69b95efdef24cd8a694e89ee,69b960bc3fa06a0a46d6f0b0,0.0978,0.0978,0,129,129,112,1,fivesix,,,,,,,,,,,,,,,,,,,,,,,,,,,,,,,,,,,,,,,,,,,,,,,,,,,,,,,,,,,,,,,,,,,,,,,,,,,,,,,,,,,,,,,,,,,,,,,,,,,,,,,,,,,,,,,,,,,,,,,,,,,,,,,,,,,,,,,,,
,,67e45e2d59b1494f02e7f164,2026-03-17_16h58.26.150,kallum_motion_pilot_GIST_update_2,2026.1.1,Linux armv81,59.52380952,67e45e2d59b1494f02e7f164,69b95efdef24cd8a694e89ee,69b960bc3fa06a0a46d6f0b0,0.0981,0.0981,0,130,130,15,1,fourthree,,,,,,,,,,,,,,,,,,,,,,,,,,,,,,,,,,,,,,,,,,,,,,,,,,,,,,,,,,,,,,,,,,,,,,,,,,,,,,,,,,,,,,,,,,,,,,,,,,,,,,,,,,,,,,,,,,,,,,,,,,,,,,,,,,,,,,,,,
,,67e45e2d59b1494f02e7f164,2026-03-17_16h58.26.150,kallum_motion_pilot_GIST_update_2,2026.1.1,Linux armv81,59.52380952,67e45e2d59b1494f02e7f164,69b95efdef24cd8a694e89ee,69b960bc3fa06a0a46d6f0b0,0.0984,0.0984,0,131,131,89,1,fiveseven,,,,,,,,,,,,,,,,,,,,,,,,,,,,,,,,,,,,,,,,,,,,,,,,,,,,,,,,,,,,,,,,,,,,,,,,,,,,,,,,,,,,,,,,,,,,,,,,,,,,,,,,,,,,,,,,,,,,,,,,,,,,,,,,,,,,,,,,,
,,67e45e2d59b1494f02e7f164,2026-03-17_16h58.26.150,kallum_motion_pilot_GIST_update_2,2026.1.1,Linux armv81,59.52380952,67e45e2d59b1494f02e7f164,69b95efdef24cd8a694e89ee,69b960bc3fa06a0a46d6f0b0,0.0987,0.0987,0,132,132,34,1,twoone,,,,,,,,,,,,,,,,,,,,,,,,,,,,,,,,,,,,,,,,,,,,,,,,,,,,,,,,,,,,,,,,,,,,,,,,,,,,,,,,,,,,,,,,,,,,,,,,,,,,,,,,,,,,,,,,,,,,,,,,,,,,,,,,,,,,,,,,,
,,67e45e2d59b1494f02e7f164,2026-03-17_16h58.26.150,kallum_motion_pilot_GIST_update_2,2026.1.1,Linux armv81,59.52380952,67e45e2d59b1494f02e7f164,69b95efdef24cd8a694e89ee,69b960bc3fa06a0a46d6f0b0,0.0989,0.0989,0,133,133,146,1,sixfive,,,,,,,,,,,,,,,,,,,,,,,,,,,,,,,,,,,,,,,,,,,,,,,,,,,,,,,,,,,,,,,,,,,,,,,,,,,,,,,,,,,,,,,,,,,,,,,,,,,,,,,,,,,,,,,,,,,,,,,,,,,,,,,,,,,,,,,,,
,,67e45e2d59b1494f02e7f164,2026-03-17_16h58.26.150,kallum_motion_pilot_GIST_update_2,2026.1.1,Linux armv81,59.52380952,67e45e2d59b1494f02e7f164,69b95efdef24cd8a694e89ee,69b960bc3fa06a0a46d6f0b0,0.0993,0.0993,0,134,134,12,1,threeone,,,,,,,,,,,,,,,,,,,,,,,,,,,,,,,,,,,,,,,,,,,,,,,,,,,,,,,,,,,,,,,,,,,,,,,,,,,,,,,,,,,,,,,,,,,,,,,,,,,,,,,,,,,,,,,,,,,,,,,,,,,,,,,,,,,,,,,,,
,,67e45e2d59b1494f02e7f164,2026-03-17_16h58.26.150,kallum_motion_pilot_GIST_update_2,2026.1.1,Linux armv81,59.52380952,67e45e2d59b1494f02e7f164,69b95efdef24cd8a694e89ee,69b960bc3fa06a0a46d6f0b0,0.0995,0.0995,0,135,135,143,1,eightseven,,,,,,,,,,,,,,,,,,,,,,,,,,,,,,,,,,,,,,,,,,,,,,,,,,,,,,,,,,,,,,,,,,,,,,,,,,,,,,,,,,,,,,,,,,,,,,,,,,,,,,,,,,,,,,,,,,,,,,,,,,,,,,,,,,,,,,,,,
,,67e45e2d59b1494f02e7f164,2026-03-17_16h58.26.150,kallum_motion_pilot_GIST_update_2,2026.1.1,Linux armv81,59.52380952,67e45e2d59b1494f02e7f164,69b95efdef24cd8a694e89ee,69b960bc3fa06a0a46d6f0b0,0.0999,0.0999,0,136,136,154,1,sixfive,,,,,,,,,,,,,,,,,,,,,,,,,,,,,,,,,,,,,,,,,,,,,,,,,,,,,,,,,,,,,,,,,,,,,,,,,,,,,,,,,,,,,,,,,,,,,,,,,,,,,,,,,,,,,,,,,,,,,,,,,,,,,,,,,,,,,,,,,
,,67e45e2d59b1494f02e7f164,2026-03-17_16h58.26.150,kallum_motion_pilot_GIST_update_2,2026.1.1,Linux armv81,59.52380952,67e45e2d59b1494f02e7f164,69b95efdef24cd8a694e89ee,69b960bc3fa06a0a46d6f0b0,0.1002,0.1002,0,137,137,131,1,sixeight,,,,,,,,,,,,,,,,,,,,,,,,,,,,,,,,,,,,,,,,,,,,,,,,,,,,,,,,,,,,,,,,,,,,,,,,,,,,,,,,,,,,,,,,,,,,,,,,,,,,,,,,,,,,,,,,,,,,,,,,,,,,,,,,,,,,,,,,,
,,67e45e2d59b1494f02e7f164,2026-03-17_16h58.26.150,kallum_motion_pilot_GIST_update_2,2026.1.1,Linux armv81,59.52380952,67e45e2d59b1494f02e7f164,69b95efdef24cd8a694e89ee,69b960bc3fa06a0a46d6f0b0,0.1006,0.1006,0,138,138,84,1,sevenfive,,,,,,,,,,,,,,,,,,,,,,,,,,,,,,,,,,,,,,,,,,,,,,,,,,,,,,,,,,,,,,,,,,,,,,,,,,,,,,,,,,,,,,,,,,,,,,,,,,,,,,,,,,,,,,,,,,,,,,,,,,,,,,,,,,,,,,,,,
,,67e45e2d59b1494f02e7f164,2026-03-17_16h58.26.150,kallum_motion_pilot_GIST_update_2,2026.1.1,Linux armv81,59.52380952,67e45e2d59b1494f02e7f164,69b95efdef24cd8a694e89ee,69b960bc3fa06a0a46d6f0b0,0.101,0.101,0,139,139,118,1,eightsix,,,,,,,,,,,,,,,,,,,,,,,,,,,,,,,,,,,,,,,,,,,,,,,,,,,,,,,,,,,,,,,,,,,,,,,,,,,,,,,,,,,,,,,,,,,,,,,,,,,,,,,,,,,,,,,,,,,,,,,,,,,,,,,,,,,,,,,,,
,,67e45e2d59b1494f02e7f164,2026-03-17_16h58.26.150,kallum_motion_pilot_GIST_update_2,2026.1.1,Linux armv81,59.52380952,67e45e2d59b1494f02e7f164,69b95efdef24cd8a694e89ee,69b960bc3fa06a0a46d6f0b0,0.1013,0.1013,0,140,140,127,1,eightseven,,,,,,,,,,,,,,,,,,,,,,,,,,,,,,,,,,,,,,,,,,,,,,,,,,,,,,,,,,,,,,,,,,,,,,,,,,,,,,,,,,,,,,,,,,,,,,,,,,,,,,,,,,,,,,,,,,,,,,,,,,,,,,,,,,,,,,,,,
,,67e45e2d59b1494f02e7f164,2026-03-17_16h58.26.150,kallum_motion_pilot_GIST_update_2,2026.1.1,Linux armv81,59.52380952,67e45e2d59b1494f02e7f164,69b95efdef24cd8a694e89ee,69b960bc3fa06a0a46d6f0b0,0.1016,0.1016,0,141,141,48,1,onetwo,,,,,,,,,,,,,,,,,,,,,,,,,,,,,,,,,,,,,,,,,,,,,,,,,,,,,,,,,,,,,,,,,,,,,,,,,,,,,,,,,,,,,,,,,,,,,,,,,,,,,,,,,,,,,,,,,,,,,,,,,,,,,,,,,,,,,,,,,
,,67e45e2d59b1494f02e7f164,2026-03-17_16h58.26.150,kallum_motion_pilot_GIST_update_2,2026.1.1,Linux armv81,59.52380952,67e45e2d59b1494f02e7f164,69b95efdef24cd8a694e89ee,69b960bc3fa06a0a46d6f0b0,0.1019,0.1019,0,142,142,60,1,threeone,,,,,,,,,,,,,,,,,,,,,,,,,,,,,,,,,,,,,,,,,,,,,,,,,,,,,,,,,,,,,,,,,,,,,,,,,,,,,,,,,,,,,,,,,,,,,,,,,,,,,,,,,,,,,,,,,,,,,,,,,,,,,,,,,,,,,,,,,
,,67e45e2d59b1494f02e7f164,2026-03-17_16h58.26.150,kallum_motion_pilot_GIST_update_2,2026.1.1,Linux armv81,59.52380952,67e45e2d59b1494f02e7f164,69b95efdef24cd8a694e89ee,69b960bc3fa06a0a46d6f0b0,0.1023,0.1023,0,143,143,0,1,onetwo,,,,,,,,,,,,,,,,,,,,,,,,,,,,,,,,,,,,,,,,,,,,,,,,,,,,,,,,,,,,,,,,,,,,,,,,,,,,,,,,,,,,,,,,,,,,,,,,,,,,,,,,,,,,,,,,,,,,,,,,,,,,,,,,,,,,,,,,,
,,67e45e2d59b1494f02e7f164,2026-03-17_16h58.26.150,kallum_motion_pilot_GIST_update_2,2026.1.1,Linux armv81,59.52380952,67e45e2d59b1494f02e7f164,69b95efdef24cd8a694e89ee,69b960bc3fa06a0a46d6f0b0,0.1026,0.1026,0,144,144,56,1,onetwo,,,,,,,,,,,,,,,,,,,,,,,,,,,,,,,,,,,,,,,,,,,,,,,,,,,,,,,,,,,,,,,,,,,,,,,,,,,,,,,,,,,,,,,,,,,,,,,,,,,,,,,,,,,,,,,,,,,,,,,,,,,,,,,,,,,,,,,,,
,,67e45e2d59b1494f02e7f164,2026-03-17_16h58.26.150,kallum_motion_pilot_GIST_update_2,2026.1.1,Linux armv81,59.52380952,67e45e2d59b1494f02e7f164,69b95efdef24cd8a694e89ee,69b960bc3fa06a0a46d6f0b0,0.1028,0.1028,0,145,145,29,1,threefour,,,,,,,,,,,,,,,,,,,,,,,,,,,,,,,,,,,,,,,,,,,,,,,,,,,,,,,,,,,,,,,,,,,,,,,,,,,,,,,,,,,,,,,,,,,,,,,,,,,,,,,,,,,,,,,,,,,,,,,,,,,,,,,,,,,,,,,,,
,,67e45e2d59b1494f02e7f164,2026-03-17_16h58.26.150,kallum_motion_pilot_GIST_update_2,2026.1.1,Linux armv81,59.52380952,67e45e2d59b1494f02e7f164,69b95efdef24cd8a694e89ee,69b960bc3fa06a0a46d6f0b0,0.1032,0.1032,0,146,146,9,1,onethree,,,,,,,,,,,,,,,,,,,,,,,,,,,,,,,,,,,,,,,,,,,,,,,,,,,,,,,,,,,,,,,,,,,,,,,,,,,,,,,,,,,,,,,,,,,,,,,,,,,,,,,,,,,,,,,,,,,,,,,,,,,,,,,,,,,,,,,,,
,,67e45e2d59b1494f02e7f164,2026-03-17_16h58.26.150,kallum_motion_pilot_GIST_update_2,2026.1.1,Linux armv81,59.52380952,67e45e2d59b1494f02e7f164,69b95efdef24cd8a694e89ee,69b960bc3fa06a0a46d6f0b0,0.1035,0.1035,0,147,147,136,1,fivesix,,,,,,,,,,,,,,,,,,,,,,,,,,,,,,,,,,,,,,,,,,,,,,,,,,,,,,,,,,,,,,,,,,,,,,,,,,,,,,,,,,,,,,,,,,,,,,,,,,,,,,,,,,,,,,,,,,,,,,,,,,,,,,,,,,,,,,,,,
,,67e45e2d59b1494f02e7f164,2026-03-17_16h58.26.150,kallum_motion_pilot_GIST_update_2,2026.1.1,Linux armv81,59.52380952,67e45e2d59b1494f02e7f164,69b95efdef24cd8a694e89ee,69b960bc3fa06a0a46d6f0b0,0.1038,0.1038,0,148,148,43,1,twofour,,,,,,,,,,,,,,,,,,,,,,,,,,,,,,,,,,,,,,,,,,,,,,,,,,,,,,,,,,,,,,,,,,,,,,,,,,,,,,,,,,,,,,,,,,,,,,,,,,,,,,,,,,,,,,,,,,,,,,,,,,,,,,,,,,,,,,,,,
,,67e45e2d59b1494f02e7f164,2026-03-17_16h58.26.150,kallum_motion_pilot_GIST_update_2,2026.1.1,Linux armv81,59.52380952,67e45e2d59b1494f02e7f164,69b95efdef24cd8a694e89ee,69b960bc3fa06a0a46d6f0b0,0.1041,0.1042,0,149,149,25,1,onethree,,,,,,,,,,,,,,,,,,,,,,,,,,,,,,,,,,,,,,,,,,,,,,,,,,,,,,,,,,,,,,,,,,,,,,,,,,,,,,,,,,,,,,,,,,,,,,,,,,,,,,,,,,,,,,,,,,,,,,,,,,,,,,,,,,,,,,,,,
,,67e45e2d59b1494f02e7f164,2026-03-17_16h58.26.150,kallum_motion_pilot_GIST_update_2,2026.1.1,Linux armv81,59.52380952,67e45e2d59b1494f02e7f164,69b95efdef24cd8a694e89ee,69b960bc3fa06a0a46d6f0b0,0.1045,0.1046,0,150,150,111,1,eightseven,,,,,,,,,,,,,,,,,,,,,,,,,,,,,,,,,,,,,,,,,,,,,,,,,,,,,,,,,,,,,,,,,,,,,,,,,,,,,,,,,,,,,,,,,,,,,,,,,,,,,,,,,,,,,,,,,,,,,,,,,,,,,,,,,,,,,,,,,
,,67e45e2d59b1494f02e7f164,2026-03-17_16h58.26.150,kallum_motion_pilot_GIST_update_2,2026.1.1,Linux armv81,59.52380952,67e45e2d59b1494f02e7f164,69b95efdef24cd8a694e89ee,69b960bc3fa06a0a46d6f0b0,0.1071,0.1071,0,151,151,126,1,eightsix,,,,,,,,,,,,,,,,,,,,,,,,,,,,,,,,,,,,,,,,,,,,,,,,,,,,,,,,,,,,,,,,,,,,,,,,,,,,,,,,,,,,,,,,,,,,,,,,,,,,,,,,,,,,,,,,,,,,,,,,,,,,,,,,,,,,,,,,,
,,67e45e2d59b1494f02e7f164,2026-03-17_16h58.26.150,kallum_motion_pilot_GIST_update_2,2026.1.1,Linux armv81,59.52380952,67e45e2d59b1494f02e7f164,69b95efdef24cd8a694e89ee,69b960bc3fa06a0a46d6f0b0,0.1076,0.1076,0,152,152,7,1,fourthree,,,,,,,,,,,,,,,,,,,,,,,,,,,,,,,,,,,,,,,,,,,,,,,,,,,,,,,,,,,,,,,,,,,,,,,,,,,,,,,,,,,,,,,,,,,,,,,,,,,,,,,,,,,,,,,,,,,,,,,,,,,,,,,,,,,,,,,,,
,,67e45e2d59b1494f02e7f164,2026-03-17_16h58.26.150,kallum_motion_pilot_GIST_update_2,2026.1.1,Linux armv81,59.52380952,67e45e2d59b1494f02e7f164,69b95efdef24cd8a694e89ee,69b960bc3fa06a0a46d6f0b0,0.1079,0.1079,0,153,153,122,1,sixfive,,,,,,,,,,,,,,,,,,,,,,,,,,,,,,,,,,,,,,,,,,,,,,,,,,,,,,,,,,,,,,,,,,,,,,,,,,,,,,,,,,,,,,,,,,,,,,,,,,,,,,,,,,,,,,,,,,,,,,,,,,,,,,,,,,,,,,,,,
,,67e45e2d59b1494f02e7f164,2026-03-17_16h58.26.150,kallum_motion_pilot_GIST_update_2,2026.1.1,Linux armv81,59.52380952,67e45e2d59b1494f02e7f164,69b95efdef24cd8a694e89ee,69b960bc3fa06a0a46d6f0b0,0.1081,0.1082,0,154,154,20,1,threeone,,,,,,,,,,,,,,,,,,,,,,,,,,,,,,,,,,,,,,,,,,,,,,,,,,,,,,,,,,,,,,,,,,,,,,,,,,,,,,,,,,,,,,,,,,,,,,,,,,,,,,,,,,,,,,,,,,,,,,,,,,,,,,,,,,,,,,,,,
,,67e45e2d59b1494f02e7f164,2026-03-17_16h58.26.150,kallum_motion_pilot_GIST_update_2,2026.1.1,Linux armv81,59.52380952,67e45e2d59b1494f02e7f164,69b95efdef24cd8a694e89ee,69b960bc3fa06a0a46d6f0b0,0.1085,0.1085,0,155,155,13,1,threefour,,,,,,,,,,,,,,,,,,,,,,,,,,,,,,,,,,,,,,,,,,,,,,,,,,,,,,,,,,,,,,,,,,,,,,,,,,,,,,,,,,,,,,,,,,,,,,,,,,,,,,,,,,,,,,,,,,,,,,,,,,,,,,,,,,,,,,,,,
,,67e45e2d59b1494f02e7f164,2026-03-17_16h58.26.150,kallum_motion_pilot_GIST_update_2,2026.1.1,Linux armv81,59.52380952,67e45e2d59b1494f02e7f164,69b95efdef24cd8a694e89ee,69b960bc3fa06a0a46d6f0b0,0.1088,0.1088,0,156,156,39,1,fourthree,,,,,,,,,,,,,,,,,,,,,,,,,,,,,,,,,,,,,,,,,,,,,,,,,,,,,,,,,,,,,,,,,,,,,,,,,,,,,,,,,,,,,,,,,,,,,,,,,,,,,,,,,,,,,,,,,,,,,,,,,,,,,,,,,,,,,,,,,
,,67e45e2d59b1494f02e7f164,2026-03-17_16h58.26.150,kallum_motion_pilot_GIST_update_2,2026.1.1,Linux armv81,59.52380952,67e45e2d59b1494f02e7f164,69b95efdef24cd8a694e89ee,69b960bc3fa06a0a46d6f0b0,0.1091,0.1091,0,157,157,18,1,twoone,,,,,,,,,,,,,,,,,,,,,,,,,,,,,,,,,,,,,,,,,,,,,,,,,,,,,,,,,,,,,,,,,,,,,,,,,,,,,,,,,,,,,,,,,,,,,,,,,,,,,,,,,,,,,,,,,,,,,,,,,,,,,,,,,,,,,,,,,
,,67e45e2d59b1494f02e7f164,2026-03-17_16h58.26.150,kallum_motion_pilot_GIST_update_2,2026.1.1,Linux armv81,59.52380952,67e45e2d59b1494f02e7f164,69b95efdef24cd8a694e89ee,69b960bc3fa06a0a46d6f0b0,0.1095,0.1095,0,158,158,53,1,threefour,,,,,,,,,,,,,,,,,,,,,,,,,,,,,,,,,,,,,,,,,,,,,,,,,,,,,,,,,,,,,,,,,,,,,,,,,,,,,,,,,,,,,,,,,,,,,,,,,,,,,,,,,,,,,,,,,,,,,,,,,,,,,,,,,,,,,,,,,
,,67e45e2d59b1494f02e7f164,2026-03-17_16h58.26.150,kallum_motion_pilot_GIST_update_2,2026.1.1,Linux armv81,59.52380952,67e45e2d59b1494f02e7f164,69b95efdef24cd8a694e89ee,69b960bc3fa06a0a46d6f0b0,0.1098,0.1098,0,159,159,156,1,sevenfive,,,,,,,,,,,,,,,,,,,,,,,,,,,,,,,,,,,,,,,,,,,,,,,,,,,,,,,,,,,,,,,,,,,,,,,,,,,,,,,,,,,,,,,,,,,,,,,,,,,,,,,,,,,,,,,,,,,,,,,,,,,,,,,,,,,,,,,,,
,,67e45e2d59b1494f02e7f164,2026-03-17_16h58.26.150,kallum_motion_pilot_GIST_update_2,2026.1.1,Linux armv81,59.52380952,67e45e2d59b1494f02e7f164,69b95efdef24cd8a694e89ee,69b960bc3fa06a0a46d6f0b0,0.1101,0.1101,0,160,160,77,1,threefour,,,,,,,,,,,,,,,,,,,,,,,,,,,,,,,,,,,,,,,,,,,,,,,,,,,,,,,,,,,,,,,,,,,,,,,,,,,,,,,,,,,,,,,,,,,,,,,,,,,,,,,,,,,,,,,,,,,,,,,,,,,,,,,,,,,,,,,,,
,,67e45e2d59b1494f02e7f164,2026-03-17_16h58.26.150,kallum_motion_pilot_GIST_update_2,2026.1.1,Linux armv81,59.52380952,67e45e2d59b1494f02e7f164,69b95efdef24cd8a694e89ee,69b960bc3fa06a0a46d6f0b0,0.1105,0.1105,0,161,161,123,1,sixeight,,,,,,,,,,,,,,,,,,,,,,,,,,,,,,,,,,,,,,,,,,,,,,,,,,,,,,,,,,,,,,,,,,,,,,,,,,,,,,,,,,,,,,,,,,,,,,,,,,,,,,,,,,,,,,,,,,,,,,,,,,,,,,,,,,,,,,,,,
,,67e45e2d59b1494f02e7f164,2026-03-17_16h58.26.150,kallum_motion_pilot_GIST_update_2,2026.1.1,Linux armv81,59.52380952,67e45e2d59b1494f02e7f164,69b95efdef24cd8a694e89ee,69b960bc3fa06a0a46d6f0b0,0.1107,0.1107,1,0,162,32,1,onetwo,,,,,,,,,,,,,,,,,,,,,,,,,,,,,,,,,,,,,,,,,,,,,,,,,,,,,,,,,,,,,,,,,,,,,,,,,,,,,,,,,,,,,,,,,,,,,,,,,,,,,,,,,,,,,,,,,,,,,,,,,,,,,,,,,,,,,,,,,
,,67e45e2d59b1494f02e7f164,2026-03-17_16h58.26.150,kallum_motion_pilot_GIST_update_2,2026.1.1,Linux armv81,59.52380952,67e45e2d59b1494f02e7f164,69b95efdef24cd8a694e89ee,69b960bc3fa06a0a46d6f0b0,0.111,0.111,1,1,163,74,1,twoone,,,,,,,,,,,,,,,,,,,,,,,,,,,,,,,,,,,,,,,,,,,,,,,,,,,,,,,,,,,,,,,,,,,,,,,,,,,,,,,,,,,,,,,,,,,,,,,,,,,,,,,,,,,,,,,,,,,,,,,,,,,,,,,,,,,,,,,,,
,,67e45e2d59b1494f02e7f164,2026-03-17_16h58.26.150,kallum_motion_pilot_GIST_update_2,2026.1.1,Linux armv81,59.52380952,67e45e2d59b1494f02e7f164,69b95efdef24cd8a694e89ee,69b960bc3fa06a0a46d6f0b0,0.1114,0.1114,1,2,164,14,1,fourtwo,,,,,,,,,,,,,,,,,,,,,,,,,,,,,,,,,,,,,,,,,,,,,,,,,,,,,,,,,,,,,,,,,,,,,,,,,,,,,,,,,,,,,,,,,,,,,,,,,,,,,,,,,,,,,,,,,,,,,,,,,,,,,,,,,,,,,,,,,
,,67e45e2d59b1494f02e7f164,2026-03-17_16h58.26.150,kallum_motion_pilot_GIST_update_2,2026.1.1,Linux armv81,59.52380952,67e45e2d59b1494f02e7f164,69b95efdef24cd8a694e89ee,69b960bc3fa06a0a46d6f0b0,0.1117,0.1117,1,3,165,139,1,sixeight,,,,,,,,,,,,,,,,,,,,,,,,,,,,,,,,,,,,,,,,,,,,,,,,,,,,,,,,,,,,,,,,,,,,,,,,,,,,,,,,,,,,,,,,,,,,,,,,,,,,,,,,,,,,,,,,,,,,,,,,,,,,,,,,,,,,,,,,,
,,67e45e2d59b1494f02e7f164,2026-03-17_16h58.26.150,kallum_motion_pilot_GIST_update_2,2026.1.1,Linux armv81,59.52380952,67e45e2d59b1494f02e7f164,69b95efdef24cd8a694e89ee,69b960bc3fa06a0a46d6f0b0,0.112,0.112,1,4,166,22,1,fourtwo,,,,,,,,,,,,,,,,,,,,,,,,,,,,,,,,,,,,,,,,,,,,,,,,,,,,,,,,,,,,,,,,,,,,,,,,,,,,,,,,,,,,,,,,,,,,,,,,,,,,,,,,,,,,,,,,,,,,,,,,,,,,,,,,,,,,,,,,,
,,67e45e2d59b1494f02e7f164,2026-03-17_16h58.26.150,kallum_motion_pilot_GIST_update_2,2026.1.1,Linux armv81,59.52380952,67e45e2d59b1494f02e7f164,69b95efdef24cd8a694e89ee,69b960bc3fa06a0a46d6f0b0,0.1122,0.1123,1,5,167,105,1,fiveseven,,,,,,,,,,,,,,,,,,,,,,,,,,,,,,,,,,,,,,,,,,,,,,,,,,,,,,,,,,,,,,,,,,,,,,,,,,,,,,,,,,,,,,,,,,,,,,,,,,,,,,,,,,,,,,,,,,,,,,,,,,,,,,,,,,,,,,,,,
,,67e45e2d59b1494f02e7f164,2026-03-17_16h58.26.150,kallum_motion_pilot_GIST_update_2,2026.1.1,Linux armv81,59.52380952,67e45e2d59b1494f02e7f164,69b95efdef24cd8a694e89ee,69b960bc3fa06a0a46d6f0b0,0.1126,0.1126,1,6,168,141,1,seveneight,,,,,,,,,,,,,,,,,,,,,,,,,,,,,,,,,,,,,,,,,,,,,,,,,,,,,,,,,,,,,,,,,,,,,,,,,,,,,,,,,,,,,,,,,,,,,,,,,,,,,,,,,,,,,,,,,,,,,,,,,,,,,,,,,,,,,,,,,
,,67e45e2d59b1494f02e7f164,2026-03-17_16h58.26.150,kallum_motion_pilot_GIST_update_2,2026.1.1,Linux armv81,59.52380952,67e45e2d59b1494f02e7f164,69b95efdef24cd8a694e89ee,69b960bc3fa06a0a46d6f0b0,0.1128,0.1128,1,7,169,83,1,sixeight,,,,,,,,,,,,,,,,,,,,,,,,,,,,,,,,,,,,,,,,,,,,,,,,,,,,,,,,,,,,,,,,,,,,,,,,,,,,,,,,,,,,,,,,,,,,,,,,,,,,,,,,,,,,,,,,,,,,,,,,,,,,,,,,,,,,,,,,,
,,67e45e2d59b1494f02e7f164,2026-03-17_16h58.26.150,kallum_motion_pilot_GIST_update_2,2026.1.1,Linux armv81,59.52380952,67e45e2d59b1494f02e7f164,69b95efdef24cd8a694e89ee,69b960bc3fa06a0a46d6f0b0,0.1132,0.1132,1,8,170,1,1,onethree,,,,,,,,,,,,,,,,,,,,,,,,,,,,,,,,,,,,,,,,,,,,,,,,,,,,,,,,,,,,,,,,,,,,,,,,,,,,,,,,,,,,,,,,,,,,,,,,,,,,,,,,,,,,,,,,,,,,,,,,,,,,,,,,,,,,,,,,,
,,67e45e2d59b1494f02e7f164,2026-03-17_16h58.26.150,kallum_motion_pilot_GIST_update_2,2026.1.1,Linux armv81,59.52380952,67e45e2d59b1494f02e7f164,69b95efdef24cd8a694e89ee,69b960bc3fa06a0a46d6f0b0,0.1135,0.1135,1,9,171,132,1,sevenfive,,,,,,,,,,,,,,,,,,,,,,,,,,,,,,,,,,,,,,,,,,,,,,,,,,,,,,,,,,,,,,,,,,,,,,,,,,,,,,,,,,,,,,,,,,,,,,,,,,,,,,,,,,,,,,,,,,,,,,,,,,,,,,,,,,,,,,,,,
,,67e45e2d59b1494f02e7f164,2026-03-17_16h58.26.150,kallum_motion_pilot_GIST_update_2,2026.1.1,Linux armv81,59.52380952,67e45e2d59b1494f02e7f164,69b95efdef24cd8a694e89ee,69b960bc3fa06a0a46d6f0b0,0.1138,0.1138,1,10,172,11,1,twofour,,,,,,,,,,,,,,,,,,,,,,,,,,,,,,,,,,,,,,,,,,,,,,,,,,,,,,,,,,,,,,,,,,,,,,,,,,,,,,,,,,,,,,,,,,,,,,,,,,,,,,,,,,,,,,,,,,,,,,,,,,,,,,,,,,,,,,,,,
,,67e45e2d59b1494f02e7f164,2026-03-17_16h58.26.150,kallum_motion_pilot_GIST_update_2,2026.1.1,Linux armv81,59.52380952,67e45e2d59b1494f02e7f164,69b95efdef24cd8a694e89ee,69b960bc3fa06a0a46d6f0b0,0.1142,0.1142,1,11,173,56,1,onetwo,,,,,,,,,,,,,,,,,,,,,,,,,,,,,,,,,,,,,,,,,,,,,,,,,,,,,,,,,,,,,,,,,,,,,,,,,,,,,,,,,,,,,,,,,,,,,,,,,,,,,,,,,,,,,,,,,,,,,,,,,,,,,,,,,,,,,,,,,
,,67e45e2d59b1494f02e7f164,2026-03-17_16h58.26.150,kallum_motion_pilot_GIST_update_2,2026.1.1,Linux armv81,59.52380952,67e45e2d59b1494f02e7f164,69b95efdef24cd8a694e89ee,69b960bc3fa06a0a46d6f0b0,0.1145,0.1145,1,12,174,3,1,twofour,,,,,,,,,,,,,,,,,,,,,,,,,,,,,,,,,,,,,,,,,,,,,,,,,,,,,,,,,,,,,,,,,,,,,,,,,,,,,,,,,,,,,,,,,,,,,,,,,,,,,,,,,,,,,,,,,,,,,,,,,,,,,,,,,,,,,,,,,
,,67e45e2d59b1494f02e7f164,2026-03-17_16h58.26.150,kallum_motion_pilot_GIST_update_2,2026.1.1,Linux armv81,59.52380952,67e45e2d59b1494f02e7f164,69b95efdef24cd8a694e89ee,69b960bc3fa06a0a46d6f0b0,0.1147,0.1147,1,13,175,109,1,seveneight,,,,,,,,,,,,,,,,,,,,,,,,,,,,,,,,,,,,,,,,,,,,,,,,,,,,,,,,,,,,,,,,,,,,,,,,,,,,,,,,,,,,,,,,,,,,,,,,,,,,,,,,,,,,,,,,,,,,,,,,,,,,,,,,,,,,,,,,,
,,67e45e2d59b1494f02e7f164,2026-03-17_16h58.26.150,kallum_motion_pilot_GIST_update_2,2026.1.1,Linux armv81,59.52380952,67e45e2d59b1494f02e7f164,69b95efdef24cd8a694e89ee,69b960bc3fa06a0a46d6f0b0,0.115,0.1151,1,14,176,75,1,twofour,,,,,,,,,,,,,,,,,,,,,,,,,,,,,,,,,,,,,,,,,,,,,,,,,,,,,,,,,,,,,,,,,,,,,,,,,,,,,,,,,,,,,,,,,,,,,,,,,,,,,,,,,,,,,,,,,,,,,,,,,,,,,,,,,,,,,,,,,
,,67e45e2d59b1494f02e7f164,2026-03-17_16h58.26.150,kallum_motion_pilot_GIST_update_2,2026.1.1,Linux armv81,59.52380952,67e45e2d59b1494f02e7f164,69b95efdef24cd8a694e89ee,69b960bc3fa06a0a46d6f0b0,0.1154,0.1154,1,15,177,95,1,eightseven,,,,,,,,,,,,,,,,,,,,,,,,,,,,,,,,,,,,,,,,,,,,,,,,,,,,,,,,,,,,,,,,,,,,,,,,,,,,,,,,,,,,,,,,,,,,,,,,,,,,,,,,,,,,,,,,,,,,,,,,,,,,,,,,,,,,,,,,,
,,67e45e2d59b1494f02e7f164,2026-03-17_16h58.26.150,kallum_motion_pilot_GIST_update_2,2026.1.1,Linux armv81,59.52380952,67e45e2d59b1494f02e7f164,69b95efdef24cd8a694e89ee,69b960bc3fa06a0a46d6f0b0,0.1157,0.1157,1,16,178,148,1,sevenfive,,,,,,,,,,,,,,,,,,,,,,,,,,,,,,,,,,,,,,,,,,,,,,,,,,,,,,,,,,,,,,,,,,,,,,,,,,,,,,,,,,,,,,,,,,,,,,,,,,,,,,,,,,,,,,,,,,,,,,,,,,,,,,,,,,,,,,,,,
,,67e45e2d59b1494f02e7f164,2026-03-17_16h58.26.150,kallum_motion_pilot_GIST_update_2,2026.1.1,Linux armv81,59.52380952,67e45e2d59b1494f02e7f164,69b95efdef24cd8a694e89ee,69b960bc3fa06a0a46d6f0b0,0.116,0.1161,1,17,179,42,1,twoone,,,,,,,,,,,,,,,,,,,,,,,,,,,,,,,,,,,,,,,,,,,,,,,,,,,,,,,,,,,,,,,,,,,,,,,,,,,,,,,,,,,,,,,,,,,,,,,,,,,,,,,,,,,,,,,,,,,,,,,,,,,,,,,,,,,,,,,,,
,,67e45e2d59b1494f02e7f164,2026-03-17_16h58.26.150,kallum_motion_pilot_GIST_update_2,2026.1.1,Linux armv81,59.52380952,67e45e2d59b1494f02e7f164,69b95efdef24cd8a694e89ee,69b960bc3fa06a0a46d6f0b0,0.1163,0.1163,1,18,180,110,1,eightsix,,,,,,,,,,,,,,,,,,,,,,,,,,,,,,,,,,,,,,,,,,,,,,,,,,,,,,,,,,,,,,,,,,,,,,,,,,,,,,,,,,,,,,,,,,,,,,,,,,,,,,,,,,,,,,,,,,,,,,,,,,,,,,,,,,,,,,,,,
,,67e45e2d59b1494f02e7f164,2026-03-17_16h58.26.150,kallum_motion_pilot_GIST_update_2,2026.1.1,Linux armv81,59.52380952,67e45e2d59b1494f02e7f164,69b95efdef24cd8a694e89ee,69b960bc3fa06a0a46d6f0b0,0.1167,0.1167,1,19,181,88,1,fivesix,,,,,,,,,,,,,,,,,,,,,,,,,,,,,,,,,,,,,,,,,,,,,,,,,,,,,,,,,,,,,,,,,,,,,,,,,,,,,,,,,,,,,,,,,,,,,,,,,,,,,,,,,,,,,,,,,,,,,,,,,,,,,,,,,,,,,,,,,
,,67e45e2d59b1494f02e7f164,2026-03-17_16h58.26.150,kallum_motion_pilot_GIST_update_2,2026.1.1,Linux armv81,59.52380952,67e45e2d59b1494f02e7f164,69b95efdef24cd8a694e89ee,69b960bc3fa06a0a46d6f0b0,0.117,0.117,1,20,182,87,1,eightseven,,,,,,,,,,,,,,,,,,,,,,,,,,,,,,,,,,,,,,,,,,,,,,,,,,,,,,,,,,,,,,,,,,,,,,,,,,,,,,,,,,,,,,,,,,,,,,,,,,,,,,,,,,,,,,,,,,,,,,,,,,,,,,,,,,,,,,,,,
,,67e45e2d59b1494f02e7f164,2026-03-17_16h58.26.150,kallum_motion_pilot_GIST_update_2,2026.1.1,Linux armv81,59.52380952,67e45e2d59b1494f02e7f164,69b95efdef24cd8a694e89ee,69b960bc3fa06a0a46d6f0b0,0.1173,0.1173,1,21,183,49,1,onethree,,,,,,,,,,,,,,,,,,,,,,,,,,,,,,,,,,,,,,,,,,,,,,,,,,,,,,,,,,,,,,,,,,,,,,,,,,,,,,,,,,,,,,,,,,,,,,,,,,,,,,,,,,,,,,,,,,,,,,,,,,,,,,,,,,,,,,,,,
,,67e45e2d59b1494f02e7f164,2026-03-17_16h58.26.150,kallum_motion_pilot_GIST_update_2,2026.1.1,Linux armv81,59.52380952,67e45e2d59b1494f02e7f164,69b95efdef24cd8a694e89ee,69b960bc3fa06a0a46d6f0b0,0.1177,0.1177,1,22,184,152,1,fivesix,,,,,,,,,,,,,,,,,,,,,,,,,,,,,,,,,,,,,,,,,,,,,,,,,,,,,,,,,,,,,,,,,,,,,,,,,,,,,,,,,,,,,,,,,,,,,,,,,,,,,,,,,,,,,,,,,,,,,,,,,,,,,,,,,,,,,,,,,
,,67e45e2d59b1494f02e7f164,2026-03-17_16h58.26.150,kallum_motion_pilot_GIST_update_2,2026.1.1,Linux armv81,59.52380952,67e45e2d59b1494f02e7f164,69b95efdef24cd8a694e89ee,69b960bc3fa06a0a46d6f0b0,0.1179,0.1179,1,23,185,0,1,onetwo,,,,,,,,,,,,,,,,,,,,,,,,,,,,,,,,,,,,,,,,,,,,,,,,,,,,,,,,,,,,,,,,,,,,,,,,,,,,,,,,,,,,,,,,,,,,,,,,,,,,,,,,,,,,,,,,,,,,,,,,,,,,,,,,,,,,,,,,,
,,67e45e2d59b1494f02e7f164,2026-03-17_16h58.26.150,kallum_motion_pilot_GIST_update_2,2026.1.1,Linux armv81,59.52380952,67e45e2d59b1494f02e7f164,69b95efdef24cd8a694e89ee,69b960bc3fa06a0a46d6f0b0,0.1183,0.1183,1,24,186,27,1,twofour,,,,,,,,,,,,,,,,,,,,,,,,,,,,,,,,,,,,,,,,,,,,,,,,,,,,,,,,,,,,,,,,,,,,,,,,,,,,,,,,,,,,,,,,,,,,,,,,,,,,,,,,,,,,,,,,,,,,,,,,,,,,,,,,,,,,,,,,,
,,67e45e2d59b1494f02e7f164,2026-03-17_16h58.26.150,kallum_motion_pilot_GIST_update_2,2026.1.1,Linux armv81,59.52380952,67e45e2d59b1494f02e7f164,69b95efdef24cd8a694e89ee,69b960bc3fa06a0a46d6f0b0,0.1185,0.1185,1,25,187,40,1,onetwo,,,,,,,,,,,,,,,,,,,,,,,,,,,,,,,,,,,,,,,,,,,,,,,,,,,,,,,,,,,,,,,,,,,,,,,,,,,,,,,,,,,,,,,,,,,,,,,,,,,,,,,,,,,,,,,,,,,,,,,,,,,,,,,,,,,,,,,,,
,,67e45e2d59b1494f02e7f164,2026-03-17_16h58.26.150,kallum_motion_pilot_GIST_update_2,2026.1.1,Linux armv81,59.52380952,67e45e2d59b1494f02e7f164,69b95efdef24cd8a694e89ee,69b960bc3fa06a0a46d6f0b0,0.1188,0.1188,1,26,188,47,1,fourthree,,,,,,,,,,,,,,,,,,,,,,,,,,,,,,,,,,,,,,,,,,,,,,,,,,,,,,,,,,,,,,,,,,,,,,,,,,,,,,,,,,,,,,,,,,,,,,,,,,,,,,,,,,,,,,,,,,,,,,,,,,,,,,,,,,,,,,,,,
,,67e45e2d59b1494f02e7f164,2026-03-17_16h58.26.150,kallum_motion_pilot_GIST_update_2,2026.1.1,Linux armv81,59.52380952,67e45e2d59b1494f02e7f164,69b95efdef24cd8a694e89ee,69b960bc3fa06a0a46d6f0b0,0.1192,0.1192,1,27,189,80,1,fivesix,,,,,,,,,,,,,,,,,,,,,,,,,,,,,,,,,,,,,,,,,,,,,,,,,,,,,,,,,,,,,,,,,,,,,,,,,,,,,,,,,,,,,,,,,,,,,,,,,,,,,,,,,,,,,,,,,,,,,,,,,,,,,,,,,,,,,,,,,
,,67e45e2d59b1494f02e7f164,2026-03-17_16h58.26.150,kallum_motion_pilot_GIST_update_2,2026.1.1,Linux armv81,59.52380952,67e45e2d59b1494f02e7f164,69b95efdef24cd8a694e89ee,69b960bc3fa06a0a46d6f0b0,0.1195,0.1195,1,28,190,130,1,sixfive,,,,,,,,,,,,,,,,,,,,,,,,,,,,,,,,,,,,,,,,,,,,,,,,,,,,,,,,,,,,,,,,,,,,,,,,,,,,,,,,,,,,,,,,,,,,,,,,,,,,,,,,,,,,,,,,,,,,,,,,,,,,,,,,,,,,,,,,,
,,67e45e2d59b1494f02e7f164,2026-03-17_16h58.26.150,kallum_motion_pilot_GIST_update_2,2026.1.1,Linux armv81,59.52380952,67e45e2d59b1494f02e7f164,69b95efdef24cd8a694e89ee,69b960bc3fa06a0a46d6f0b0,0.1198,0.1199,1,29,191,73,1,onethree,,,,,,,,,,,,,,,,,,,,,,,,,,,,,,,,,,,,,,,,,,,,,,,,,,,,,,,,,,,,,,,,,,,,,,,,,,,,,,,,,,,,,,,,,,,,,,,,,,,,,,,,,,,,,,,,,,,,,,,,,,,,,,,,,,,,,,,,,
,,67e45e2d59b1494f02e7f164,2026-03-17_16h58.26.150,kallum_motion_pilot_GIST_update_2,2026.1.1,Linux armv81,59.52380952,67e45e2d59b1494f02e7f164,69b95efdef24cd8a694e89ee,69b960bc3fa06a0a46d6f0b0,0.1201,0.1201,1,30,192,25,1,onethree,,,,,,,,,,,,,,,,,,,,,,,,,,,,,,,,,,,,,,,,,,,,,,,,,,,,,,,,,,,,,,,,,,,,,,,,,,,,,,,,,,,,,,,,,,,,,,,,,,,,,,,,,,,,,,,,,,,,,,,,,,,,,,,,,,,,,,,,,
,,67e45e2d59b1494f02e7f164,2026-03-17_16h58.26.150,kallum_motion_pilot_GIST_update_2,2026.1.1,Linux armv81,59.52380952,67e45e2d59b1494f02e7f164,69b95efdef24cd8a694e89ee,69b960bc3fa06a0a46d6f0b0,0.1204,0.1205,1,31,193,99,1,sixeight,,,,,,,,,,,,,,,,,,,,,,,,,,,,,,,,,,,,,,,,,,,,,,,,,,,,,,,,,,,,,,,,,,,,,,,,,,,,,,,,,,,,,,,,,,,,,,,,,,,,,,,,,,,,,,,,,,,,,,,,,,,,,,,,,,,,,,,,,
,,67e45e2d59b1494f02e7f164,2026-03-17_16h58.26.150,kallum_motion_pilot_GIST_update_2,2026.1.1,Linux armv81,59.52380952,67e45e2d59b1494f02e7f164,69b95efdef24cd8a694e89ee,69b960bc3fa06a0a46d6f0b0,0.1209,0.1209,1,32,194,72,1,onetwo,,,,,,,,,,,,,,,,,,,,,,,,,,,,,,,,,,,,,,,,,,,,,,,,,,,,,,,,,,,,,,,,,,,,,,,,,,,,,,,,,,,,,,,,,,,,,,,,,,,,,,,,,,,,,,,,,,,,,,,,,,,,,,,,,,,,,,,,,
,,67e45e2d59b1494f02e7f164,2026-03-17_16h58.26.150,kallum_motion_pilot_GIST_update_2,2026.1.1,Linux armv81,59.52380952,67e45e2d59b1494f02e7f164,69b95efdef24cd8a694e89ee,69b960bc3fa06a0a46d6f0b0,0.1214,0.1214,1,33,195,98,1,sixfive,,,,,,,,,,,,,,,,,,,,,,,,,,,,,,,,,,,,,,,,,,,,,,,,,,,,,,,,,,,,,,,,,,,,,,,,,,,,,,,,,,,,,,,,,,,,,,,,,,,,,,,,,,,,,,,,,,,,,,,,,,,,,,,,,,,,,,,,,
,,67e45e2d59b1494f02e7f164,2026-03-17_16h58.26.150,kallum_motion_pilot_GIST_update_2,2026.1.1,Linux armv81,59.52380952,67e45e2d59b1494f02e7f164,69b95efdef24cd8a694e89ee,69b960bc3fa06a0a46d6f0b0,0.1218,0.1218,1,34,196,103,1,eightseven,,,,,,,,,,,,,,,,,,,,,,,,,,,,,,,,,,,,,,,,,,,,,,,,,,,,,,,,,,,,,,,,,,,,,,,,,,,,,,,,,,,,,,,,,,,,,,,,,,,,,,,,,,,,,,,,,,,,,,,,,,,,,,,,,,,,,,,,,
,,67e45e2d59b1494f02e7f164,2026-03-17_16h58.26.150,kallum_motion_pilot_GIST_update_2,2026.1.1,Linux armv81,59.52380952,67e45e2d59b1494f02e7f164,69b95efdef24cd8a694e89ee,69b960bc3fa06a0a46d6f0b0,0.1221,0.1222,1,35,197,92,1,sevenfive,,,,,,,,,,,,,,,,,,,,,,,,,,,,,,,,,,,,,,,,,,,,,,,,,,,,,,,,,,,,,,,,,,,,,,,,,,,,,,,,,,,,,,,,,,,,,,,,,,,,,,,,,,,,,,,,,,,,,,,,,,,,,,,,,,,,,,,,,
,,67e45e2d59b1494f02e7f164,2026-03-17_16h58.26.150,kallum_motion_pilot_GIST_update_2,2026.1.1,Linux armv81,59.52380952,67e45e2d59b1494f02e7f164,69b95efdef24cd8a694e89ee,69b960bc3fa06a0a46d6f0b0,0.1224,0.1224,1,36,198,97,1,fiveseven,,,,,,,,,,,,,,,,,,,,,,,,,,,,,,,,,,,,,,,,,,,,,,,,,,,,,,,,,,,,,,,,,,,,,,,,,,,,,,,,,,,,,,,,,,,,,,,,,,,,,,,,,,,,,,,,,,,,,,,,,,,,,,,,,,,,,,,,,
,,67e45e2d59b1494f02e7f164,2026-03-17_16h58.26.150,kallum_motion_pilot_GIST_update_2,2026.1.1,Linux armv81,59.52380952,67e45e2d59b1494f02e7f164,69b95efdef24cd8a694e89ee,69b960bc3fa06a0a46d6f0b0,0.1228,0.1228,1,37,199,28,1,threeone,,,,,,,,,,,,,,,,,,,,,,,,,,,,,,,,,,,,,,,,,,,,,,,,,,,,,,,,,,,,,,,,,,,,,,,,,,,,,,,,,,,,,,,,,,,,,,,,,,,,,,,,,,,,,,,,,,,,,,,,,,,,,,,,,,,,,,,,,
,,67e45e2d59b1494f02e7f164,2026-03-17_16h58.26.150,kallum_motion_pilot_GIST_update_2,2026.1.1,Linux armv81,59.52380952,67e45e2d59b1494f02e7f164,69b95efdef24cd8a694e89ee,69b960bc3fa06a0a46d6f0b0,0.1231,0.1231,1,38,200,30,1,fourtwo,,,,,,,,,,,,,,,,,,,,,,,,,,,,,,,,,,,,,,,,,,,,,,,,,,,,,,,,,,,,,,,,,,,,,,,,,,,,,,,,,,,,,,,,,,,,,,,,,,,,,,,,,,,,,,,,,,,,,,,,,,,,,,,,,,,,,,,,,
,,67e45e2d59b1494f02e7f164,2026-03-17_16h58.26.150,kallum_motion_pilot_GIST_update_2,2026.1.1,Linux armv81,59.52380952,67e45e2d59b1494f02e7f164,69b95efdef24cd8a694e89ee,69b960bc3fa06a0a46d6f0b0,0.1234,0.1234,1,39,201,84,1,sevenfive,,,,,,,,,,,,,,,,,,,,,,,,,,,,,,,,,,,,,,,,,,,,,,,,,,,,,,,,,,,,,,,,,,,,,,,,,,,,,,,,,,,,,,,,,,,,,,,,,,,,,,,,,,,,,,,,,,,,,,,,,,,,,,,,,,,,,,,,,
,,67e45e2d59b1494f02e7f164,2026-03-17_16h58.26.150,kallum_motion_pilot_GIST_update_2,2026.1.1,Linux armv81,59.52380952,67e45e2d59b1494f02e7f164,69b95efdef24cd8a694e89ee,69b960bc3fa06a0a46d6f0b0,0.1237,0.1237,1,40,202,54,1,fourtwo,,,,,,,,,,,,,,,,,,,,,,,,,,,,,,,,,,,,,,,,,,,,,,,,,,,,,,,,,,,,,,,,,,,,,,,,,,,,,,,,,,,,,,,,,,,,,,,,,,,,,,,,,,,,,,,,,,,,,,,,,,,,,,,,,,,,,,,,,
,,67e45e2d59b1494f02e7f164,2026-03-17_16h58.26.150,kallum_motion_pilot_GIST_update_2,2026.1.1,Linux armv81,59.52380952,67e45e2d59b1494f02e7f164,69b95efdef24cd8a694e89ee,69b960bc3fa06a0a46d6f0b0,0.124,0.124,1,41,203,36,1,threeone,,,,,,,,,,,,,,,,,,,,,,,,,,,,,,,,,,,,,,,,,,,,,,,,,,,,,,,,,,,,,,,,,,,,,,,,,,,,,,,,,,,,,,,,,,,,,,,,,,,,,,,,,,,,,,,,,,,,,,,,,,,,,,,,,,,,,,,,,
,,67e45e2d59b1494f02e7f164,2026-03-17_16h58.26.150,kallum_motion_pilot_GIST_update_2,2026.1.1,Linux armv81,59.52380952,67e45e2d59b1494f02e7f164,69b95efdef24cd8a694e89ee,69b960bc3fa06a0a46d6f0b0,0.1243,0.1243,1,42,204,31,1,fourthree,,,,,,,,,,,,,,,,,,,,,,,,,,,,,,,,,,,,,,,,,,,,,,,,,,,,,,,,,,,,,,,,,,,,,,,,,,,,,,,,,,,,,,,,,,,,,,,,,,,,,,,,,,,,,,,,,,,,,,,,,,,,,,,,,,,,,,,,,
,,67e45e2d59b1494f02e7f164,2026-03-17_16h58.26.150,kallum_motion_pilot_GIST_update_2,2026.1.1,Linux armv81,59.52380952,67e45e2d59b1494f02e7f164,69b95efdef24cd8a694e89ee,69b960bc3fa06a0a46d6f0b0,0.1246,0.1247,1,43,205,60,1,threeone,,,,,,,,,,,,,,,,,,,,,,,,,,,,,,,,,,,,,,,,,,,,,,,,,,,,,,,,,,,,,,,,,,,,,,,,,,,,,,,,,,,,,,,,,,,,,,,,,,,,,,,,,,,,,,,,,,,,,,,,,,,,,,,,,,,,,,,,,
,,67e45e2d59b1494f02e7f164,2026-03-17_16h58.26.150,kallum_motion_pilot_GIST_update_2,2026.1.1,Linux armv81,59.52380952,67e45e2d59b1494f02e7f164,69b95efdef24cd8a694e89ee,69b960bc3fa06a0a46d6f0b0,0.125,0.1251,1,44,206,65,1,onethree,,,,,,,,,,,,,,,,,,,,,,,,,,,,,,,,,,,,,,,,,,,,,,,,,,,,,,,,,,,,,,,,,,,,,,,,,,,,,,,,,,,,,,,,,,,,,,,,,,,,,,,,,,,,,,,,,,,,,,,,,,,,,,,,,,,,,,,,,
,,67e45e2d59b1494f02e7f164,2026-03-17_16h58.26.150,kallum_motion_pilot_GIST_update_2,2026.1.1,Linux armv81,59.52380952,67e45e2d59b1494f02e7f164,69b95efdef24cd8a694e89ee,69b960bc3fa06a0a46d6f0b0,0.1254,0.1254,1,45,207,137,1,fiveseven,,,,,,,,,,,,,,,,,,,,,,,,,,,,,,,,,,,,,,,,,,,,,,,,,,,,,,,,,,,,,,,,,,,,,,,,,,,,,,,,,,,,,,,,,,,,,,,,,,,,,,,,,,,,,,,,,,,,,,,,,,,,,,,,,,,,,,,,,
,,67e45e2d59b1494f02e7f164,2026-03-17_16h58.26.150,kallum_motion_pilot_GIST_update_2,2026.1.1,Linux armv81,59.52380952,67e45e2d59b1494f02e7f164,69b95efdef24cd8a694e89ee,69b960bc3fa06a0a46d6f0b0,0.1257,0.1257,1,46,208,128,1,fivesix,,,,,,,,,,,,,,,,,,,,,,,,,,,,,,,,,,,,,,,,,,,,,,,,,,,,,,,,,,,,,,,,,,,,,,,,,,,,,,,,,,,,,,,,,,,,,,,,,,,,,,,,,,,,,,,,,,,,,,,,,,,,,,,,,,,,,,,,,
,,67e45e2d59b1494f02e7f164,2026-03-17_16h58.26.150,kallum_motion_pilot_GIST_update_2,2026.1.1,Linux armv81,59.52380952,67e45e2d59b1494f02e7f164,69b95efdef24cd8a694e89ee,69b960bc3fa06a0a46d6f0b0,0.1261,0.1261,1,47,209,155,1,sixeight,,,,,,,,,,,,,,,,,,,,,,,,,,,,,,,,,,,,,,,,,,,,,,,,,,,,,,,,,,,,,,,,,,,,,,,,,,,,,,,,,,,,,,,,,,,,,,,,,,,,,,,,,,,,,,,,,,,,,,,,,,,,,,,,,,,,,,,,,
,,67e45e2d59b1494f02e7f164,2026-03-17_16h58.26.150,kallum_motion_pilot_GIST_update_2,2026.1.1,Linux armv81,59.52380952,67e45e2d59b1494f02e7f164,69b95efdef24cd8a694e89ee,69b960bc3fa06a0a46d6f0b0,0.1264,0.1264,1,48,210,37,1,threefour,,,,,,,,,,,,,,,,,,,,,,,,,,,,,,,,,,,,,,,,,,,,,,,,,,,,,,,,,,,,,,,,,,,,,,,,,,,,,,,,,,,,,,,,,,,,,,,,,,,,,,,,,,,,,,,,,,,,,,,,,,,,,,,,,,,,,,,,,
,,67e45e2d59b1494f02e7f164,2026-03-17_16h58.26.150,kallum_motion_pilot_GIST_update_2,2026.1.1,Linux armv81,59.52380952,67e45e2d59b1494f02e7f164,69b95efdef24cd8a694e89ee,69b960bc3fa06a0a46d6f0b0,0.1268,0.1268,1,49,211,90,1,sixfive,,,,,,,,,,,,,,,,,,,,,,,,,,,,,,,,,,,,,,,,,,,,,,,,,,,,,,,,,,,,,,,,,,,,,,,,,,,,,,,,,,,,,,,,,,,,,,,,,,,,,,,,,,,,,,,,,,,,,,,,,,,,,,,,,,,,,,,,,
,,67e45e2d59b1494f02e7f164,2026-03-17_16h58.26.150,kallum_motion_pilot_GIST_update_2,2026.1.1,Linux armv81,59.52380952,67e45e2d59b1494f02e7f164,69b95efdef24cd8a694e89ee,69b960bc3fa06a0a46d6f0b0,0.1271,0.1272,1,50,212,89,1,fiveseven,,,,,,,,,,,,,,,,,,,,,,,,,,,,,,,,,,,,,,,,,,,,,,,,,,,,,,,,,,,,,,,,,,,,,,,,,,,,,,,,,,,,,,,,,,,,,,,,,,,,,,,,,,,,,,,,,,,,,,,,,,,,,,,,,,,,,,,,,
,,67e45e2d59b1494f02e7f164,2026-03-17_16h58.26.150,kallum_motion_pilot_GIST_update_2,2026.1.1,Linux armv81,59.52380952,67e45e2d59b1494f02e7f164,69b95efdef24cd8a694e89ee,69b960bc3fa06a0a46d6f0b0,0.1275,0.1275,1,51,213,113,1,fiveseven,,,,,,,,,,,,,,,,,,,,,,,,,,,,,,,,,,,,,,,,,,,,,,,,,,,,,,,,,,,,,,,,,,,,,,,,,,,,,,,,,,,,,,,,,,,,,,,,,,,,,,,,,,,,,,,,,,,,,,,,,,,,,,,,,,,,,,,,,
,,67e45e2d59b1494f02e7f164,2026-03-17_16h58.26.150,kallum_motion_pilot_GIST_update_2,2026.1.1,Linux armv81,59.52380952,67e45e2d59b1494f02e7f164,69b95efdef24cd8a694e89ee,69b960bc3fa06a0a46d6f0b0,0.1278,0.1278,1,52,214,146,1,sixfive,,,,,,,,,,,,,,,,,,,,,,,,,,,,,,,,,,,,,,,,,,,,,,,,,,,,,,,,,,,,,,,,,,,,,,,,,,,,,,,,,,,,,,,,,,,,,,,,,,,,,,,,,,,,,,,,,,,,,,,,,,,,,,,,,,,,,,,,,
,,67e45e2d59b1494f02e7f164,2026-03-17_16h58.26.150,kallum_motion_pilot_GIST_update_2,2026.1.1,Linux armv81,59.52380952,67e45e2d59b1494f02e7f164,69b95efdef24cd8a694e89ee,69b960bc3fa06a0a46d6f0b0,0.1281,0.1282,1,53,215,85,1,seveneight,,,,,,,,,,,,,,,,,,,,,,,,,,,,,,,,,,,,,,,,,,,,,,,,,,,,,,,,,,,,,,,,,,,,,,,,,,,,,,,,,,,,,,,,,,,,,,,,,,,,,,,,,,,,,,,,,,,,,,,,,,,,,,,,,,,,,,,,,
,,67e45e2d59b1494f02e7f164,2026-03-17_16h58.26.150,kallum_motion_pilot_GIST_update_2,2026.1.1,Linux armv81,59.52380952,67e45e2d59b1494f02e7f164,69b95efdef24cd8a694e89ee,69b960bc3fa06a0a46d6f0b0,0.1284,0.1284,1,54,216,23,1,fourthree,,,,,,,,,,,,,,,,,,,,,,,,,,,,,,,,,,,,,,,,,,,,,,,,,,,,,,,,,,,,,,,,,,,,,,,,,,,,,,,,,,,,,,,,,,,,,,,,,,,,,,,,,,,,,,,,,,,,,,,,,,,,,,,,,,,,,,,,,
,,67e45e2d59b1494f02e7f164,2026-03-17_16h58.26.150,kallum_motion_pilot_GIST_update_2,2026.1.1,Linux armv81,59.52380952,67e45e2d59b1494f02e7f164,69b95efdef24cd8a694e89ee,69b960bc3fa06a0a46d6f0b0,0.1287,0.1288,1,55,217,101,1,seveneight,,,,,,,,,,,,,,,,,,,,,,,,,,,,,,,,,,,,,,,,,,,,,,,,,,,,,,,,,,,,,,,,,,,,,,,,,,,,,,,,,,,,,,,,,,,,,,,,,,,,,,,,,,,,,,,,,,,,,,,,,,,,,,,,,,,,,,,,,
,,67e45e2d59b1494f02e7f164,2026-03-17_16h58.26.150,kallum_motion_pilot_GIST_update_2,2026.1.1,Linux armv81,59.52380952,67e45e2d59b1494f02e7f164,69b95efdef24cd8a694e89ee,69b960bc3fa06a0a46d6f0b0,0.1291,0.1291,1,56,218,71,1,fourthree,,,,,,,,,,,,,,,,,,,,,,,,,,,,,,,,,,,,,,,,,,,,,,,,,,,,,,,,,,,,,,,,,,,,,,,,,,,,,,,,,,,,,,,,,,,,,,,,,,,,,,,,,,,,,,,,,,,,,,,,,,,,,,,,,,,,,,,,,
,,67e45e2d59b1494f02e7f164,2026-03-17_16h58.26.150,kallum_motion_pilot_GIST_update_2,2026.1.1,Linux armv81,59.52380952,67e45e2d59b1494f02e7f164,69b95efdef24cd8a694e89ee,69b960bc3fa06a0a46d6f0b0,0.1295,0.1295,1,57,219,104,1,fivesix,,,,,,,,,,,,,,,,,,,,,,,,,,,,,,,,,,,,,,,,,,,,,,,,,,,,,,,,,,,,,,,,,,,,,,,,,,,,,,,,,,,,,,,,,,,,,,,,,,,,,,,,,,,,,,,,,,,,,,,,,,,,,,,,,,,,,,,,,
,,67e45e2d59b1494f02e7f164,2026-03-17_16h58.26.150,kallum_motion_pilot_GIST_update_2,2026.1.1,Linux armv81,59.52380952,67e45e2d59b1494f02e7f164,69b95efdef24cd8a694e89ee,69b960bc3fa06a0a46d6f0b0,0.1298,0.1298,1,58,220,119,1,eightseven,,,,,,,,,,,,,,,,,,,,,,,,,,,,,,,,,,,,,,,,,,,,,,,,,,,,,,,,,,,,,,,,,,,,,,,,,,,,,,,,,,,,,,,,,,,,,,,,,,,,,,,,,,,,,,,,,,,,,,,,,,,,,,,,,,,,,,,,,
,,67e45e2d59b1494f02e7f164,2026-03-17_16h58.26.150,kallum_motion_pilot_GIST_update_2,2026.1.1,Linux armv81,59.52380952,67e45e2d59b1494f02e7f164,69b95efdef24cd8a694e89ee,69b960bc3fa06a0a46d6f0b0,0.1301,0.1301,1,59,221,69,1,threefour,,,,,,,,,,,,,,,,,,,,,,,,,,,,,,,,,,,,,,,,,,,,,,,,,,,,,,,,,,,,,,,,,,,,,,,,,,,,,,,,,,,,,,,,,,,,,,,,,,,,,,,,,,,,,,,,,,,,,,,,,,,,,,,,,,,,,,,,,
,,67e45e2d59b1494f02e7f164,2026-03-17_16h58.26.150,kallum_motion_pilot_GIST_update_2,2026.1.1,Linux armv81,59.52380952,67e45e2d59b1494f02e7f164,69b95efdef24cd8a694e89ee,69b960bc3fa06a0a46d6f0b0,0.1305,0.1305,1,60,222,34,1,twoone,,,,,,,,,,,,,,,,,,,,,,,,,,,,,,,,,,,,,,,,,,,,,,,,,,,,,,,,,,,,,,,,,,,,,,,,,,,,,,,,,,,,,,,,,,,,,,,,,,,,,,,,,,,,,,,,,,,,,,,,,,,,,,,,,,,,,,,,,
,,67e45e2d59b1494f02e7f164,2026-03-17_16h58.26.150,kallum_motion_pilot_GIST_update_2,2026.1.1,Linux armv81,59.52380952,67e45e2d59b1494f02e7f164,69b95efdef24cd8a694e89ee,69b960bc3fa06a0a46d6f0b0,0.1308,0.1308,1,61,223,158,1,eightsix,,,,,,,,,,,,,,,,,,,,,,,,,,,,,,,,,,,,,,,,,,,,,,,,,,,,,,,,,,,,,,,,,,,,,,,,,,,,,,,,,,,,,,,,,,,,,,,,,,,,,,,,,,,,,,,,,,,,,,,,,,,,,,,,,,,,,,,,,
,,67e45e2d59b1494f02e7f164,2026-03-17_16h58.26.150,kallum_motion_pilot_GIST_update_2,2026.1.1,Linux armv81,59.52380952,67e45e2d59b1494f02e7f164,69b95efdef24cd8a694e89ee,69b960bc3fa06a0a46d6f0b0,0.1311,0.1312,1,62,224,46,1,fourtwo,,,,,,,,,,,,,,,,,,,,,,,,,,,,,,,,,,,,,,,,,,,,,,,,,,,,,,,,,,,,,,,,,,,,,,,,,,,,,,,,,,,,,,,,,,,,,,,,,,,,,,,,,,,,,,,,,,,,,,,,,,,,,,,,,,,,,,,,,
,,67e45e2d59b1494f02e7f164,2026-03-17_16h58.26.150,kallum_motion_pilot_GIST_update_2,2026.1.1,Linux armv81,59.52380952,67e45e2d59b1494f02e7f164,69b95efdef24cd8a694e89ee,69b960bc3fa06a0a46d6f0b0,0.1315,0.1315,1,63,225,125,1,seveneight,,,,,,,,,,,,,,,,,,,,,,,,,,,,,,,,,,,,,,,,,,,,,,,,,,,,,,,,,,,,,,,,,,,,,,,,,,,,,,,,,,,,,,,,,,,,,,,,,,,,,,,,,,,,,,,,,,,,,,,,,,,,,,,,,,,,,,,,,
,,67e45e2d59b1494f02e7f164,2026-03-17_16h58.26.150,kallum_motion_pilot_GIST_update_2,2026.1.1,Linux armv81,59.52380952,67e45e2d59b1494f02e7f164,69b95efdef24cd8a694e89ee,69b960bc3fa06a0a46d6f0b0,0.1319,0.1319,1,64,226,2,1,twoone,,,,,,,,,,,,,,,,,,,,,,,,,,,,,,,,,,,,,,,,,,,,,,,,,,,,,,,,,,,,,,,,,,,,,,,,,,,,,,,,,,,,,,,,,,,,,,,,,,,,,,,,,,,,,,,,,,,,,,,,,,,,,,,,,,,,,,,,,
,,67e45e2d59b1494f02e7f164,2026-03-17_16h58.26.150,kallum_motion_pilot_GIST_update_2,2026.1.1,Linux armv81,59.52380952,67e45e2d59b1494f02e7f164,69b95efdef24cd8a694e89ee,69b960bc3fa06a0a46d6f0b0,0.1322,0.1322,1,65,227,77,1,threefour,,,,,,,,,,,,,,,,,,,,,,,,,,,,,,,,,,,,,,,,,,,,,,,,,,,,,,,,,,,,,,,,,,,,,,,,,,,,,,,,,,,,,,,,,,,,,,,,,,,,,,,,,,,,,,,,,,,,,,,,,,,,,,,,,,,,,,,,,
,,67e45e2d59b1494f02e7f164,2026-03-17_16h58.26.150,kallum_motion_pilot_GIST_update_2,2026.1.1,Linux armv81,59.52380952,67e45e2d59b1494f02e7f164,69b95efdef24cd8a694e89ee,69b960bc3fa06a0a46d6f0b0,0.1327,0.1328,1,66,228,10,1,twoone,,,,,,,,,,,,,,,,,,,,,,,,,,,,,,,,,,,,,,,,,,,,,,,,,,,,,,,,,,,,,,,,,,,,,,,,,,,,,,,,,,,,,,,,,,,,,,,,,,,,,,,,,,,,,,,,,,,,,,,,,,,,,,,,,,,,,,,,,
,,67e45e2d59b1494f02e7f164,2026-03-17_16h58.26.150,kallum_motion_pilot_GIST_update_2,2026.1.1,Linux armv81,59.52380952,67e45e2d59b1494f02e7f164,69b95efdef24cd8a694e89ee,69b960bc3fa06a0a46d6f0b0,0.1332,0.1332,1,67,229,76,1,threeone,,,,,,,,,,,,,,,,,,,,,,,,,,,,,,,,,,,,,,,,,,,,,,,,,,,,,,,,,,,,,,,,,,,,,,,,,,,,,,,,,,,,,,,,,,,,,,,,,,,,,,,,,,,,,,,,,,,,,,,,,,,,,,,,,,,,,,,,,
,,67e45e2d59b1494f02e7f164,2026-03-17_16h58.26.150,kallum_motion_pilot_GIST_update_2,2026.1.1,Linux armv81,59.52380952,67e45e2d59b1494f02e7f164,69b95efdef24cd8a694e89ee,69b960bc3fa06a0a46d6f0b0,0.1336,0.1336,1,68,230,121,1,fiveseven,,,,,,,,,,,,,,,,,,,,,,,,,,,,,,,,,,,,,,,,,,,,,,,,,,,,,,,,,,,,,,,,,,,,,,,,,,,,,,,,,,,,,,,,,,,,,,,,,,,,,,,,,,,,,,,,,,,,,,,,,,,,,,,,,,,,,,,,,
,,67e45e2d59b1494f02e7f164,2026-03-17_16h58.26.150,kallum_motion_pilot_GIST_update_2,2026.1.1,Linux armv81,59.52380952,67e45e2d59b1494f02e7f164,69b95efdef24cd8a694e89ee,69b960bc3fa06a0a46d6f0b0,0.1338,0.1339,1,69,231,58,1,twoone,,,,,,,,,,,,,,,,,,,,,,,,,,,,,,,,,,,,,,,,,,,,,,,,,,,,,,,,,,,,,,,,,,,,,,,,,,,,,,,,,,,,,,,,,,,,,,,,,,,,,,,,,,,,,,,,,,,,,,,,,,,,,,,,,,,,,,,,,
,,67e45e2d59b1494f02e7f164,2026-03-17_16h58.26.150,kallum_motion_pilot_GIST_update_2,2026.1.1,Linux armv81,59.52380952,67e45e2d59b1494f02e7f164,69b95efdef24cd8a694e89ee,69b960bc3fa06a0a46d6f0b0,0.1342,0.1342,1,70,232,6,1,fourtwo,,,,,,,,,,,,,,,,,,,,,,,,,,,,,,,,,,,,,,,,,,,,,,,,,,,,,,,,,,,,,,,,,,,,,,,,,,,,,,,,,,,,,,,,,,,,,,,,,,,,,,,,,,,,,,,,,,,,,,,,,,,,,,,,,,,,,,,,,
,,67e45e2d59b1494f02e7f164,2026-03-17_16h58.26.150,kallum_motion_pilot_GIST_update_2,2026.1.1,Linux armv81,59.52380952,67e45e2d59b1494f02e7f164,69b95efdef24cd8a694e89ee,69b960bc3fa06a0a46d6f0b0,0.1346,0.1346,1,71,233,114,1,sixfive,,,,,,,,,,,,,,,,,,,,,,,,,,,,,,,,,,,,,,,,,,,,,,,,,,,,,,,,,,,,,,,,,,,,,,,,,,,,,,,,,,,,,,,,,,,,,,,,,,,,,,,,,,,,,,,,,,,,,,,,,,,,,,,,,,,,,,,,,
,,67e45e2d59b1494f02e7f164,2026-03-17_16h58.26.150,kallum_motion_pilot_GIST_update_2,2026.1.1,Linux armv81,59.52380952,67e45e2d59b1494f02e7f164,69b95efdef24cd8a694e89ee,69b960bc3fa06a0a46d6f0b0,0.1349,0.135,1,72,234,44,1,threeone,,,,,,,,,,,,,,,,,,,,,,,,,,,,,,,,,,,,,,,,,,,,,,,,,,,,,,,,,,,,,,,,,,,,,,,,,,,,,,,,,,,,,,,,,,,,,,,,,,,,,,,,,,,,,,,,,,,,,,,,,,,,,,,,,,,,,,,,,
,,67e45e2d59b1494f02e7f164,2026-03-17_16h58.26.150,kallum_motion_pilot_GIST_update_2,2026.1.1,Linux armv81,59.52380952,67e45e2d59b1494f02e7f164,69b95efdef24cd8a694e89ee,69b960bc3fa06a0a46d6f0b0,0.1354,0.1354,1,73,235,52,1,threeone,,,,,,,,,,,,,,,,,,,,,,,,,,,,,,,,,,,,,,,,,,,,,,,,,,,,,,,,,,,,,,,,,,,,,,,,,,,,,,,,,,,,,,,,,,,,,,,,,,,,,,,,,,,,,,,,,,,,,,,,,,,,,,,,,,,,,,,,,
,,67e45e2d59b1494f02e7f164,2026-03-17_16h58.26.150,kallum_motion_pilot_GIST_update_2,2026.1.1,Linux armv81,59.52380952,67e45e2d59b1494f02e7f164,69b95efdef24cd8a694e89ee,69b960bc3fa06a0a46d6f0b0,0.1356,0.1357,1,74,236,157,1,seveneight,,,,,,,,,,,,,,,,,,,,,,,,,,,,,,,,,,,,,,,,,,,,,,,,,,,,,,,,,,,,,,,,,,,,,,,,,,,,,,,,,,,,,,,,,,,,,,,,,,,,,,,,,,,,,,,,,,,,,,,,,,,,,,,,,,,,,,,,,
,,67e45e2d59b1494f02e7f164,2026-03-17_16h58.26.150,kallum_motion_pilot_GIST_update_2,2026.1.1,Linux armv81,59.52380952,67e45e2d59b1494f02e7f164,69b95efdef24cd8a694e89ee,69b960bc3fa06a0a46d6f0b0,0.136,0.136,1,75,237,144,1,fivesix,,,,,,,,,,,,,,,,,,,,,,,,,,,,,,,,,,,,,,,,,,,,,,,,,,,,,,,,,,,,,,,,,,,,,,,,,,,,,,,,,,,,,,,,,,,,,,,,,,,,,,,,,,,,,,,,,,,,,,,,,,,,,,,,,,,,,,,,,
,,67e45e2d59b1494f02e7f164,2026-03-17_16h58.26.150,kallum_motion_pilot_GIST_update_2,2026.1.1,Linux armv81,59.52380952,67e45e2d59b1494f02e7f164,69b95efdef24cd8a694e89ee,69b960bc3fa06a0a46d6f0b0,0.1363,0.1363,1,76,238,12,1,threeone,,,,,,,,,,,,,,,,,,,,,,,,,,,,,,,,,,,,,,,,,,,,,,,,,,,,,,,,,,,,,,,,,,,,,,,,,,,,,,,,,,,,,,,,,,,,,,,,,,,,,,,,,,,,,,,,,,,,,,,,,,,,,,,,,,,,,,,,,
,,67e45e2d59b1494f02e7f164,2026-03-17_16h58.26.150,kallum_motion_pilot_GIST_update_2,2026.1.1,Linux armv81,59.52380952,67e45e2d59b1494f02e7f164,69b95efdef24cd8a694e89ee,69b960bc3fa06a0a46d6f0b0,0.1366,0.1366,1,77,239,133,1,seveneight,,,,,,,,,,,,,,,,,,,,,,,,,,,,,,,,,,,,,,,,,,,,,,,,,,,,,,,,,,,,,,,,,,,,,,,,,,,,,,,,,,,,,,,,,,,,,,,,,,,,,,,,,,,,,,,,,,,,,,,,,,,,,,,,,,,,,,,,,
,,67e45e2d59b1494f02e7f164,2026-03-17_16h58.26.150,kallum_motion_pilot_GIST_update_2,2026.1.1,Linux armv81,59.52380952,67e45e2d59b1494f02e7f164,69b95efdef24cd8a694e89ee,69b960bc3fa06a0a46d6f0b0,0.137,0.137,1,78,240,126,1,eightsix,,,,,,,,,,,,,,,,,,,,,,,,,,,,,,,,,,,,,,,,,,,,,,,,,,,,,,,,,,,,,,,,,,,,,,,,,,,,,,,,,,,,,,,,,,,,,,,,,,,,,,,,,,,,,,,,,,,,,,,,,,,,,,,,,,,,,,,,,
,,67e45e2d59b1494f02e7f164,2026-03-17_16h58.26.150,kallum_motion_pilot_GIST_update_2,2026.1.1,Linux armv81,59.52380952,67e45e2d59b1494f02e7f164,69b95efdef24cd8a694e89ee,69b960bc3fa06a0a46d6f0b0,0.1374,0.1374,1,79,241,15,1,fourthree,,,,,,,,,,,,,,,,,,,,,,,,,,,,,,,,,,,,,,,,,,,,,,,,,,,,,,,,,,,,,,,,,,,,,,,,,,,,,,,,,,,,,,,,,,,,,,,,,,,,,,,,,,,,,,,,,,,,,,,,,,,,,,,,,,,,,,,,,
,,67e45e2d59b1494f02e7f164,2026-03-17_16h58.26.150,kallum_motion_pilot_GIST_update_2,2026.1.1,Linux armv81,59.52380952,67e45e2d59b1494f02e7f164,69b95efdef24cd8a694e89ee,69b960bc3fa06a0a46d6f0b0,0.1378,0.1379,1,80,242,7,1,fourthree,,,,,,,,,,,,,,,,,,,,,,,,,,,,,,,,,,,,,,,,,,,,,,,,,,,,,,,,,,,,,,,,,,,,,,,,,,,,,,,,,,,,,,,,,,,,,,,,,,,,,,,,,,,,,,,,,,,,,,,,,,,,,,,,,,,,,,,,,
,,67e45e2d59b1494f02e7f164,2026-03-17_16h58.26.150,kallum_motion_pilot_GIST_update_2,2026.1.1,Linux armv81,59.52380952,67e45e2d59b1494f02e7f164,69b95efdef24cd8a694e89ee,69b960bc3fa06a0a46d6f0b0,0.1382,0.1382,1,81,243,118,1,eightsix,,,,,,,,,,,,,,,,,,,,,,,,,,,,,,,,,,,,,,,,,,,,,,,,,,,,,,,,,,,,,,,,,,,,,,,,,,,,,,,,,,,,,,,,,,,,,,,,,,,,,,,,,,,,,,,,,,,,,,,,,,,,,,,,,,,,,,,,,
,,67e45e2d59b1494f02e7f164,2026-03-17_16h58.26.150,kallum_motion_pilot_GIST_update_2,2026.1.1,Linux armv81,59.52380952,67e45e2d59b1494f02e7f164,69b95efdef24cd8a694e89ee,69b960bc3fa06a0a46d6f0b0,0.1385,0.1386,1,82,244,43,1,twofour,,,,,,,,,,,,,,,,,,,,,,,,,,,,,,,,,,,,,,,,,,,,,,,,,,,,,,,,,,,,,,,,,,,,,,,,,,,,,,,,,,,,,,,,,,,,,,,,,,,,,,,,,,,,,,,,,,,,,,,,,,,,,,,,,,,,,,,,,
,,67e45e2d59b1494f02e7f164,2026-03-17_16h58.26.150,kallum_motion_pilot_GIST_update_2,2026.1.1,Linux armv81,59.52380952,67e45e2d59b1494f02e7f164,69b95efdef24cd8a694e89ee,69b960bc3fa06a0a46d6f0b0,0.1389,0.1389,1,83,245,145,1,fiveseven,,,,,,,,,,,,,,,,,,,,,,,,,,,,,,,,,,,,,,,,,,,,,,,,,,,,,,,,,,,,,,,,,,,,,,,,,,,,,,,,,,,,,,,,,,,,,,,,,,,,,,,,,,,,,,,,,,,,,,,,,,,,,,,,,,,,,,,,,
,,67e45e2d59b1494f02e7f164,2026-03-17_16h58.26.150,kallum_motion_pilot_GIST_update_2,2026.1.1,Linux armv81,59.52380952,67e45e2d59b1494f02e7f164,69b95efdef24cd8a694e89ee,69b960bc3fa06a0a46d6f0b0,0.1393,0.1393,1,84,246,112,1,fivesix,,,,,,,,,,,,,,,,,,,,,,,,,,,,,,,,,,,,,,,,,,,,,,,,,,,,,,,,,,,,,,,,,,,,,,,,,,,,,,,,,,,,,,,,,,,,,,,,,,,,,,,,,,,,,,,,,,,,,,,,,,,,,,,,,,,,,,,,,
,,67e45e2d59b1494f02e7f164,2026-03-17_16h58.26.150,kallum_motion_pilot_GIST_update_2,2026.1.1,Linux armv81,59.52380952,67e45e2d59b1494f02e7f164,69b95efdef24cd8a694e89ee,69b960bc3fa06a0a46d6f0b0,0.1395,0.1396,1,85,247,13,1,threefour,,,,,,,,,,,,,,,,,,,,,,,,,,,,,,,,,,,,,,,,,,,,,,,,,,,,,,,,,,,,,,,,,,,,,,,,,,,,,,,,,,,,,,,,,,,,,,,,,,,,,,,,,,,,,,,,,,,,,,,,,,,,,,,,,,,,,,,,,
,,67e45e2d59b1494f02e7f164,2026-03-17_16h58.26.150,kallum_motion_pilot_GIST_update_2,2026.1.1,Linux armv81,59.52380952,67e45e2d59b1494f02e7f164,69b95efdef24cd8a694e89ee,69b960bc3fa06a0a46d6f0b0,0.1399,0.1399,1,86,248,131,1,sixeight,,,,,,,,,,,,,,,,,,,,,,,,,,,,,,,,,,,,,,,,,,,,,,,,,,,,,,,,,,,,,,,,,,,,,,,,,,,,,,,,,,,,,,,,,,,,,,,,,,,,,,,,,,,,,,,,,,,,,,,,,,,,,,,,,,,,,,,,,
,,67e45e2d59b1494f02e7f164,2026-03-17_16h58.26.150,kallum_motion_pilot_GIST_update_2,2026.1.1,Linux armv81,59.52380952,67e45e2d59b1494f02e7f164,69b95efdef24cd8a694e89ee,69b960bc3fa06a0a46d6f0b0,0.1402,0.1402,1,87,249,86,1,eightsix,,,,,,,,,,,,,,,,,,,,,,,,,,,,,,,,,,,,,,,,,,,,,,,,,,,,,,,,,,,,,,,,,,,,,,,,,,,,,,,,,,,,,,,,,,,,,,,,,,,,,,,,,,,,,,,,,,,,,,,,,,,,,,,,,,,,,,,,,
,,67e45e2d59b1494f02e7f164,2026-03-17_16h58.26.150,kallum_motion_pilot_GIST_update_2,2026.1.1,Linux armv81,59.52380952,67e45e2d59b1494f02e7f164,69b95efdef24cd8a694e89ee,69b960bc3fa06a0a46d6f0b0,0.1406,0.1407,1,88,250,120,1,fivesix,,,,,,,,,,,,,,,,,,,,,,,,,,,,,,,,,,,,,,,,,,,,,,,,,,,,,,,,,,,,,,,,,,,,,,,,,,,,,,,,,,,,,,,,,,,,,,,,,,,,,,,,,,,,,,,,,,,,,,,,,,,,,,,,,,,,,,,,,
,,67e45e2d59b1494f02e7f164,2026-03-17_16h58.26.150,kallum_motion_pilot_GIST_update_2,2026.1.1,Linux armv81,59.52380952,67e45e2d59b1494f02e7f164,69b95efdef24cd8a694e89ee,69b960bc3fa06a0a46d6f0b0,0.1411,0.1411,1,89,251,154,1,sixfive,,,,,,,,,,,,,,,,,,,,,,,,,,,,,,,,,,,,,,,,,,,,,,,,,,,,,,,,,,,,,,,,,,,,,,,,,,,,,,,,,,,,,,,,,,,,,,,,,,,,,,,,,,,,,,,,,,,,,,,,,,,,,,,,,,,,,,,,,
,,67e45e2d59b1494f02e7f164,2026-03-17_16h58.26.150,kallum_motion_pilot_GIST_update_2,2026.1.1,Linux armv81,59.52380952,67e45e2d59b1494f02e7f164,69b95efdef24cd8a694e89ee,69b960bc3fa06a0a46d6f0b0,0.1415,0.1415,1,90,252,24,1,onetwo,,,,,,,,,,,,,,,,,,,,,,,,,,,,,,,,,,,,,,,,,,,,,,,,,,,,,,,,,,,,,,,,,,,,,,,,,,,,,,,,,,,,,,,,,,,,,,,,,,,,,,,,,,,,,,,,,,,,,,,,,,,,,,,,,,,,,,,,,
,,67e45e2d59b1494f02e7f164,2026-03-17_16h58.26.150,kallum_motion_pilot_GIST_update_2,2026.1.1,Linux armv81,59.52380952,67e45e2d59b1494f02e7f164,69b95efdef24cd8a694e89ee,69b960bc3fa06a0a46d6f0b0,0.1419,0.1419,1,91,253,4,1,threeone,,,,,,,,,,,,,,,,,,,,,,,,,,,,,,,,,,,,,,,,,,,,,,,,,,,,,,,,,,,,,,,,,,,,,,,,,,,,,,,,,,,,,,,,,,,,,,,,,,,,,,,,,,,,,,,,,,,,,,,,,,,,,,,,,,,,,,,,,
,,67e45e2d59b1494f02e7f164,2026-03-17_16h58.26.150,kallum_motion_pilot_GIST_update_2,2026.1.1,Linux armv81,59.52380952,67e45e2d59b1494f02e7f164,69b95efdef24cd8a694e89ee,69b960bc3fa06a0a46d6f0b0,0.1422,0.1422,1,92,254,61,1,threefour,,,,,,,,,,,,,,,,,,,,,,,,,,,,,,,,,,,,,,,,,,,,,,,,,,,,,,,,,,,,,,,,,,,,,,,,,,,,,,,,,,,,,,,,,,,,,,,,,,,,,,,,,,,,,,,,,,,,,,,,,,,,,,,,,,,,,,,,,
,,67e45e2d59b1494f02e7f164,2026-03-17_16h58.26.150,kallum_motion_pilot_GIST_update_2,2026.1.1,Linux armv81,59.52380952,67e45e2d59b1494f02e7f164,69b95efdef24cd8a694e89ee,69b960bc3fa06a0a46d6f0b0,0.1425,0.1425,1,93,255,138,1,sixfive,,,,,,,,,,,,,,,,,,,,,,,,,,,,,,,,,,,,,,,,,,,,,,,,,,,,,,,,,,,,,,,,,,,,,,,,,,,,,,,,,,,,,,,,,,,,,,,,,,,,,,,,,,,,,,,,,,,,,,,,,,,,,,,,,,,,,,,,,
,,67e45e2d59b1494f02e7f164,2026-03-17_16h58.26.150,kallum_motion_pilot_GIST_update_2,2026.1.1,Linux armv81,59.52380952,67e45e2d59b1494f02e7f164,69b95efdef24cd8a694e89ee,69b960bc3fa06a0a46d6f0b0,0.1429,0.1429,1,94,256,150,1,eightsix,,,,,,,,,,,,,,,,,,,,,,,,,,,,,,,,,,,,,,,,,,,,,,,,,,,,,,,,,,,,,,,,,,,,,,,,,,,,,,,,,,,,,,,,,,,,,,,,,,,,,,,,,,,,,,,,,,,,,,,,,,,,,,,,,,,,,,,,,
,,67e45e2d59b1494f02e7f164,2026-03-17_16h58.26.150,kallum_motion_pilot_GIST_update_2,2026.1.1,Linux armv81,59.52380952,67e45e2d59b1494f02e7f164,69b95efdef24cd8a694e89ee,69b960bc3fa06a0a46d6f0b0,0.1432,0.1432,1,95,257,59,1,twofour,,,,,,,,,,,,,,,,,,,,,,,,,,,,,,,,,,,,,,,,,,,,,,,,,,,,,,,,,,,,,,,,,,,,,,,,,,,,,,,,,,,,,,,,,,,,,,,,,,,,,,,,,,,,,,,,,,,,,,,,,,,,,,,,,,,,,,,,,
,,67e45e2d59b1494f02e7f164,2026-03-17_16h58.26.150,kallum_motion_pilot_GIST_update_2,2026.1.1,Linux armv81,59.52380952,67e45e2d59b1494f02e7f164,69b95efdef24cd8a694e89ee,69b960bc3fa06a0a46d6f0b0,0.1436,0.1436,1,96,258,81,1,fiveseven,,,,,,,,,,,,,,,,,,,,,,,,,,,,,,,,,,,,,,,,,,,,,,,,,,,,,,,,,,,,,,,,,,,,,,,,,,,,,,,,,,,,,,,,,,,,,,,,,,,,,,,,,,,,,,,,,,,,,,,,,,,,,,,,,,,,,,,,,
,,67e45e2d59b1494f02e7f164,2026-03-17_16h58.26.150,kallum_motion_pilot_GIST_update_2,2026.1.1,Linux armv81,59.52380952,67e45e2d59b1494f02e7f164,69b95efdef24cd8a694e89ee,69b960bc3fa06a0a46d6f0b0,0.1441,0.1441,1,97,259,159,1,eightseven,,,,,,,,,,,,,,,,,,,,,,,,,,,,,,,,,,,,,,,,,,,,,,,,,,,,,,,,,,,,,,,,,,,,,,,,,,,,,,,,,,,,,,,,,,,,,,,,,,,,,,,,,,,,,,,,,,,,,,,,,,,,,,,,,,,,,,,,,
,,67e45e2d59b1494f02e7f164,2026-03-17_16h58.26.150,kallum_motion_pilot_GIST_update_2,2026.1.1,Linux armv81,59.52380952,67e45e2d59b1494f02e7f164,69b95efdef24cd8a694e89ee,69b960bc3fa06a0a46d6f0b0,0.1445,0.1445,1,98,260,96,1,fivesix,,,,,,,,,,,,,,,,,,,,,,,,,,,,,,,,,,,,,,,,,,,,,,,,,,,,,,,,,,,,,,,,,,,,,,,,,,,,,,,,,,,,,,,,,,,,,,,,,,,,,,,,,,,,,,,,,,,,,,,,,,,,,,,,,,,,,,,,,
,,67e45e2d59b1494f02e7f164,2026-03-17_16h58.26.150,kallum_motion_pilot_GIST_update_2,2026.1.1,Linux armv81,59.52380952,67e45e2d59b1494f02e7f164,69b95efdef24cd8a694e89ee,69b960bc3fa06a0a46d6f0b0,0.1449,0.1449,1,99,261,55,1,fourthree,,,,,,,,,,,,,,,,,,,,,,,,,,,,,,,,,,,,,,,,,,,,,,,,,,,,,,,,,,,,,,,,,,,,,,,,,,,,,,,,,,,,,,,,,,,,,,,,,,,,,,,,,,,,,,,,,,,,,,,,,,,,,,,,,,,,,,,,,
