startup.started,startup.stopped,Prolific ID*,date,expName,psychopyVersion,OS,frameRate,participant,study_id,session,stimpositions.started,stimpositions.stopped,hardcoded_stimulus_positions.thisRepN,hardcoded_stimulus_positions.thisTrialN,hardcoded_stimulus_positions.thisN,hardcoded_stimulus_positions.thisIndex,hardcoded_stimulus_positions.ran,StimulusPos,stimorientation.started,stimorientation.stopped,prac_stimorientation_import_loop.thisRepN,prac_stimorientation_import_loop.thisTrialN,prac_stimorientation_import_loop.thisN,prac_stimorientation_import_loop.thisIndex,prac_stimorientation_import_loop.ran,Stimorientation,welcome_instr.started,welcome_instr.stopped,key_resp.keys,key_resp.rt,key_resp.duration,response_steppedout_1.started,response_steppedout_1.stopped,key_resp_20.keys,key_resp_20.rt,key_resp_20.duration,response_steppedout_2.started,response_steppedout_2.stopped,key_resp_19.keys,key_resp_19.rt,key_resp_19.duration,stim_response_instr.started,stim_response_instr.stopped,key_resp_15.keys,key_resp_15.rt,key_resp_15.duration,direction_instr_2.started,direction_instr_2.stopped,key_resp_9.keys,key_resp_9.rt,key_resp_9.duration,instr_prac.started,instr_prac.stopped,key_resp_10.keys,key_resp_10.rt,key_resp_10.duration,Stim1_display_prac.started,Stim1_display_prac.stopped,Ecc,Circle1_ori,Circle2_ori,response_prac.started,similarity,response_time,response_prac.stopped,mouse_5.x,mouse_5.y,mouse_5.leftButton,mouse_5.midButton,mouse_5.rightButton,mouse_5.clicked_name,responseprac_feedback.started,responseprac_feedback.stopped,summary2_prac.started,summary2_prac.stopped,mouse_6.x,mouse_6.y,mouse_6.leftButton,mouse_6.midButton,mouse_6.rightButton,mouse_6.clicked_name,duringprac.thisRepN,duringprac.thisTrialN,duringprac.thisN,duringprac.thisIndex,duringprac.ran,begin.started,begin.stopped,key_resp_22.keys,key_resp_22.rt,key_resp_22.duration,Stim1_display.started,Stim1_display.stopped,circle1_ori,circle2_ori,circle1_SF,circle2_SF,response.started,response.stopped,mouse.x,mouse.y,mouse.leftButton,mouse.midButton,mouse.rightButton,mouse.clicked_name,trialnumber,double_pass.thisRepN,double_pass.thisTrialN,double_pass.thisN,double_pass.thisIndex,double_pass.ran,double_pass.order,main_trial.thisRepN,main_trial.thisTrialN,main_trial.thisN,main_trial.thisIndex,main_trial.ran,main_trial.order,Trial_Counter,Catch,Frequencies,response_2.started,response_2.stopped,mouse_2.x,mouse_2.y,mouse_2.leftButton,mouse_2.midButton,mouse_2.rightButton,mouse_2.clicked_name,special_trial.started,special_trial.stopped,catch_1.started,catch_1.stopped,mouse_3.x,mouse_3.y,mouse_3.leftButton,mouse_3.midButton,mouse_3.rightButton,catchresponse,catchnumber,response_time_catch,response_sum.started,response_sum.stopped,mouse_11.x,mouse_11.y,mouse_11.leftButton,mouse_11.midButton,mouse_11.rightButton,flip_presentation_sequence_for_double_pass.started,flip_presentation_sequence_for_double_pass.stopped,goodbye.started,goodbye.stopped,key_resp_3.keys,key_resp_3.rt,key_resp_3.duration
0.0004,0.0005,67e54edf70d5a6b7026c95a2,2026-03-17_16h09.48.168,kallum_motion_pilot_GIST_update_2,2026.1.1,Win32,59.88023952,67e54edf70d5a6b7026c95a2,69b95efdef24cd8a694e89ee,69b960451f2ede6d61616b0a,,,,,,,,,,,,,,,,,,,,,,,,,,,,,,,,,,,,,,,,,,,,,,,,,,,,,,,,,,,,,,,,,,,,,,,,,,,,,,,,,,,,,,,,,,,,,,,,,,,,,,,,,,,,,,,,,,,,,,,,,,,,,,,,,,,,,,,,,,,,,,,,,
,,67e54edf70d5a6b7026c95a2,2026-03-17_16h09.48.168,kallum_motion_pilot_GIST_update_2,2026.1.1,Win32,59.88023952,67e54edf70d5a6b7026c95a2,69b95efdef24cd8a694e89ee,69b960451f2ede6d61616b0a,0.0225,0.0226,0,0,0,90,1,sixfive,,,,,,,,,,,,,,,,,,,,,,,,,,,,,,,,,,,,,,,,,,,,,,,,,,,,,,,,,,,,,,,,,,,,,,,,,,,,,,,,,,,,,,,,,,,,,,,,,,,,,,,,,,,,,,,,,,,,,,,,,,,,,,,,,,,,,,,,,
,,67e54edf70d5a6b7026c95a2,2026-03-17_16h09.48.168,kallum_motion_pilot_GIST_update_2,2026.1.1,Win32,59.88023952,67e54edf70d5a6b7026c95a2,69b95efdef24cd8a694e89ee,69b960451f2ede6d61616b0a,0.0229,0.023,0,1,1,94,1,eightsix,,,,,,,,,,,,,,,,,,,,,,,,,,,,,,,,,,,,,,,,,,,,,,,,,,,,,,,,,,,,,,,,,,,,,,,,,,,,,,,,,,,,,,,,,,,,,,,,,,,,,,,,,,,,,,,,,,,,,,,,,,,,,,,,,,,,,,,,,
,,67e54edf70d5a6b7026c95a2,2026-03-17_16h09.48.168,kallum_motion_pilot_GIST_update_2,2026.1.1,Win32,59.88023952,67e54edf70d5a6b7026c95a2,69b95efdef24cd8a694e89ee,69b960451f2ede6d61616b0a,0.0232,0.0232,0,2,2,91,1,sixeight,,,,,,,,,,,,,,,,,,,,,,,,,,,,,,,,,,,,,,,,,,,,,,,,,,,,,,,,,,,,,,,,,,,,,,,,,,,,,,,,,,,,,,,,,,,,,,,,,,,,,,,,,,,,,,,,,,,,,,,,,,,,,,,,,,,,,,,,,
,,67e54edf70d5a6b7026c95a2,2026-03-17_16h09.48.168,kallum_motion_pilot_GIST_update_2,2026.1.1,Win32,59.88023952,67e54edf70d5a6b7026c95a2,69b95efdef24cd8a694e89ee,69b960451f2ede6d61616b0a,0.0234,0.0234,0,3,3,161,1,fiveseven,,,,,,,,,,,,,,,,,,,,,,,,,,,,,,,,,,,,,,,,,,,,,,,,,,,,,,,,,,,,,,,,,,,,,,,,,,,,,,,,,,,,,,,,,,,,,,,,,,,,,,,,,,,,,,,,,,,,,,,,,,,,,,,,,,,,,,,,,
,,67e54edf70d5a6b7026c95a2,2026-03-17_16h09.48.168,kallum_motion_pilot_GIST_update_2,2026.1.1,Win32,59.88023952,67e54edf70d5a6b7026c95a2,69b95efdef24cd8a694e89ee,69b960451f2ede6d61616b0a,0.0236,0.0236,0,4,4,41,1,onethree,,,,,,,,,,,,,,,,,,,,,,,,,,,,,,,,,,,,,,,,,,,,,,,,,,,,,,,,,,,,,,,,,,,,,,,,,,,,,,,,,,,,,,,,,,,,,,,,,,,,,,,,,,,,,,,,,,,,,,,,,,,,,,,,,,,,,,,,,
,,67e54edf70d5a6b7026c95a2,2026-03-17_16h09.48.168,kallum_motion_pilot_GIST_update_2,2026.1.1,Win32,59.88023952,67e54edf70d5a6b7026c95a2,69b95efdef24cd8a694e89ee,69b960451f2ede6d61616b0a,0.0239,0.0239,0,5,5,9,1,onethree,,,,,,,,,,,,,,,,,,,,,,,,,,,,,,,,,,,,,,,,,,,,,,,,,,,,,,,,,,,,,,,,,,,,,,,,,,,,,,,,,,,,,,,,,,,,,,,,,,,,,,,,,,,,,,,,,,,,,,,,,,,,,,,,,,,,,,,,,
,,67e54edf70d5a6b7026c95a2,2026-03-17_16h09.48.168,kallum_motion_pilot_GIST_update_2,2026.1.1,Win32,59.88023952,67e54edf70d5a6b7026c95a2,69b95efdef24cd8a694e89ee,69b960451f2ede6d61616b0a,0.0241,0.0241,0,6,6,17,1,onethree,,,,,,,,,,,,,,,,,,,,,,,,,,,,,,,,,,,,,,,,,,,,,,,,,,,,,,,,,,,,,,,,,,,,,,,,,,,,,,,,,,,,,,,,,,,,,,,,,,,,,,,,,,,,,,,,,,,,,,,,,,,,,,,,,,,,,,,,,
,,67e54edf70d5a6b7026c95a2,2026-03-17_16h09.48.168,kallum_motion_pilot_GIST_update_2,2026.1.1,Win32,59.88023952,67e54edf70d5a6b7026c95a2,69b95efdef24cd8a694e89ee,69b960451f2ede6d61616b0a,0.0242,0.0242,0,7,7,66,1,twoone,,,,,,,,,,,,,,,,,,,,,,,,,,,,,,,,,,,,,,,,,,,,,,,,,,,,,,,,,,,,,,,,,,,,,,,,,,,,,,,,,,,,,,,,,,,,,,,,,,,,,,,,,,,,,,,,,,,,,,,,,,,,,,,,,,,,,,,,,
,,67e54edf70d5a6b7026c95a2,2026-03-17_16h09.48.168,kallum_motion_pilot_GIST_update_2,2026.1.1,Win32,59.88023952,67e54edf70d5a6b7026c95a2,69b95efdef24cd8a694e89ee,69b960451f2ede6d61616b0a,0.0245,0.0245,0,8,8,101,1,seveneight,,,,,,,,,,,,,,,,,,,,,,,,,,,,,,,,,,,,,,,,,,,,,,,,,,,,,,,,,,,,,,,,,,,,,,,,,,,,,,,,,,,,,,,,,,,,,,,,,,,,,,,,,,,,,,,,,,,,,,,,,,,,,,,,,,,,,,,,,
,,67e54edf70d5a6b7026c95a2,2026-03-17_16h09.48.168,kallum_motion_pilot_GIST_update_2,2026.1.1,Win32,59.88023952,67e54edf70d5a6b7026c95a2,69b95efdef24cd8a694e89ee,69b960451f2ede6d61616b0a,0.0247,0.0247,0,9,9,42,1,twoone,,,,,,,,,,,,,,,,,,,,,,,,,,,,,,,,,,,,,,,,,,,,,,,,,,,,,,,,,,,,,,,,,,,,,,,,,,,,,,,,,,,,,,,,,,,,,,,,,,,,,,,,,,,,,,,,,,,,,,,,,,,,,,,,,,,,,,,,,
,,67e54edf70d5a6b7026c95a2,2026-03-17_16h09.48.168,kallum_motion_pilot_GIST_update_2,2026.1.1,Win32,59.88023952,67e54edf70d5a6b7026c95a2,69b95efdef24cd8a694e89ee,69b960451f2ede6d61616b0a,0.0249,0.0249,0,10,10,63,1,fourthree,,,,,,,,,,,,,,,,,,,,,,,,,,,,,,,,,,,,,,,,,,,,,,,,,,,,,,,,,,,,,,,,,,,,,,,,,,,,,,,,,,,,,,,,,,,,,,,,,,,,,,,,,,,,,,,,,,,,,,,,,,,,,,,,,,,,,,,,,
,,67e54edf70d5a6b7026c95a2,2026-03-17_16h09.48.168,kallum_motion_pilot_GIST_update_2,2026.1.1,Win32,59.88023952,67e54edf70d5a6b7026c95a2,69b95efdef24cd8a694e89ee,69b960451f2ede6d61616b0a,0.025,0.025,0,11,11,122,1,sixfive,,,,,,,,,,,,,,,,,,,,,,,,,,,,,,,,,,,,,,,,,,,,,,,,,,,,,,,,,,,,,,,,,,,,,,,,,,,,,,,,,,,,,,,,,,,,,,,,,,,,,,,,,,,,,,,,,,,,,,,,,,,,,,,,,,,,,,,,,
,,67e54edf70d5a6b7026c95a2,2026-03-17_16h09.48.168,kallum_motion_pilot_GIST_update_2,2026.1.1,Win32,59.88023952,67e54edf70d5a6b7026c95a2,69b95efdef24cd8a694e89ee,69b960451f2ede6d61616b0a,0.0252,0.0252,0,12,12,114,1,sixfive,,,,,,,,,,,,,,,,,,,,,,,,,,,,,,,,,,,,,,,,,,,,,,,,,,,,,,,,,,,,,,,,,,,,,,,,,,,,,,,,,,,,,,,,,,,,,,,,,,,,,,,,,,,,,,,,,,,,,,,,,,,,,,,,,,,,,,,,,
,,67e54edf70d5a6b7026c95a2,2026-03-17_16h09.48.168,kallum_motion_pilot_GIST_update_2,2026.1.1,Win32,59.88023952,67e54edf70d5a6b7026c95a2,69b95efdef24cd8a694e89ee,69b960451f2ede6d61616b0a,0.0254,0.0254,0,13,13,141,1,seveneight,,,,,,,,,,,,,,,,,,,,,,,,,,,,,,,,,,,,,,,,,,,,,,,,,,,,,,,,,,,,,,,,,,,,,,,,,,,,,,,,,,,,,,,,,,,,,,,,,,,,,,,,,,,,,,,,,,,,,,,,,,,,,,,,,,,,,,,,,
,,67e54edf70d5a6b7026c95a2,2026-03-17_16h09.48.168,kallum_motion_pilot_GIST_update_2,2026.1.1,Win32,59.88023952,67e54edf70d5a6b7026c95a2,69b95efdef24cd8a694e89ee,69b960451f2ede6d61616b0a,0.0255,0.0255,0,14,14,143,1,eightseven,,,,,,,,,,,,,,,,,,,,,,,,,,,,,,,,,,,,,,,,,,,,,,,,,,,,,,,,,,,,,,,,,,,,,,,,,,,,,,,,,,,,,,,,,,,,,,,,,,,,,,,,,,,,,,,,,,,,,,,,,,,,,,,,,,,,,,,,,
,,67e54edf70d5a6b7026c95a2,2026-03-17_16h09.48.168,kallum_motion_pilot_GIST_update_2,2026.1.1,Win32,59.88023952,67e54edf70d5a6b7026c95a2,69b95efdef24cd8a694e89ee,69b960451f2ede6d61616b0a,0.0257,0.0257,0,15,15,27,1,twofour,,,,,,,,,,,,,,,,,,,,,,,,,,,,,,,,,,,,,,,,,,,,,,,,,,,,,,,,,,,,,,,,,,,,,,,,,,,,,,,,,,,,,,,,,,,,,,,,,,,,,,,,,,,,,,,,,,,,,,,,,,,,,,,,,,,,,,,,,
,,67e54edf70d5a6b7026c95a2,2026-03-17_16h09.48.168,kallum_motion_pilot_GIST_update_2,2026.1.1,Win32,59.88023952,67e54edf70d5a6b7026c95a2,69b95efdef24cd8a694e89ee,69b960451f2ede6d61616b0a,0.0259,0.0259,0,16,16,140,1,sevenfive,,,,,,,,,,,,,,,,,,,,,,,,,,,,,,,,,,,,,,,,,,,,,,,,,,,,,,,,,,,,,,,,,,,,,,,,,,,,,,,,,,,,,,,,,,,,,,,,,,,,,,,,,,,,,,,,,,,,,,,,,,,,,,,,,,,,,,,,,
,,67e54edf70d5a6b7026c95a2,2026-03-17_16h09.48.168,kallum_motion_pilot_GIST_update_2,2026.1.1,Win32,59.88023952,67e54edf70d5a6b7026c95a2,69b95efdef24cd8a694e89ee,69b960451f2ede6d61616b0a,0.026,0.0261,0,17,17,56,1,onetwo,,,,,,,,,,,,,,,,,,,,,,,,,,,,,,,,,,,,,,,,,,,,,,,,,,,,,,,,,,,,,,,,,,,,,,,,,,,,,,,,,,,,,,,,,,,,,,,,,,,,,,,,,,,,,,,,,,,,,,,,,,,,,,,,,,,,,,,,,
,,67e54edf70d5a6b7026c95a2,2026-03-17_16h09.48.168,kallum_motion_pilot_GIST_update_2,2026.1.1,Win32,59.88023952,67e54edf70d5a6b7026c95a2,69b95efdef24cd8a694e89ee,69b960451f2ede6d61616b0a,0.0262,0.0262,0,18,18,25,1,onethree,,,,,,,,,,,,,,,,,,,,,,,,,,,,,,,,,,,,,,,,,,,,,,,,,,,,,,,,,,,,,,,,,,,,,,,,,,,,,,,,,,,,,,,,,,,,,,,,,,,,,,,,,,,,,,,,,,,,,,,,,,,,,,,,,,,,,,,,,
,,67e54edf70d5a6b7026c95a2,2026-03-17_16h09.48.168,kallum_motion_pilot_GIST_update_2,2026.1.1,Win32,59.88023952,67e54edf70d5a6b7026c95a2,69b95efdef24cd8a694e89ee,69b960451f2ede6d61616b0a,0.0263,0.0263,0,19,19,160,1,fivesix,,,,,,,,,,,,,,,,,,,,,,,,,,,,,,,,,,,,,,,,,,,,,,,,,,,,,,,,,,,,,,,,,,,,,,,,,,,,,,,,,,,,,,,,,,,,,,,,,,,,,,,,,,,,,,,,,,,,,,,,,,,,,,,,,,,,,,,,,
,,67e54edf70d5a6b7026c95a2,2026-03-17_16h09.48.168,kallum_motion_pilot_GIST_update_2,2026.1.1,Win32,59.88023952,67e54edf70d5a6b7026c95a2,69b95efdef24cd8a694e89ee,69b960451f2ede6d61616b0a,0.0265,0.0265,0,20,20,81,1,fiveseven,,,,,,,,,,,,,,,,,,,,,,,,,,,,,,,,,,,,,,,,,,,,,,,,,,,,,,,,,,,,,,,,,,,,,,,,,,,,,,,,,,,,,,,,,,,,,,,,,,,,,,,,,,,,,,,,,,,,,,,,,,,,,,,,,,,,,,,,,
,,67e54edf70d5a6b7026c95a2,2026-03-17_16h09.48.168,kallum_motion_pilot_GIST_update_2,2026.1.1,Win32,59.88023952,67e54edf70d5a6b7026c95a2,69b95efdef24cd8a694e89ee,69b960451f2ede6d61616b0a,0.0266,0.0266,0,21,21,154,1,sixfive,,,,,,,,,,,,,,,,,,,,,,,,,,,,,,,,,,,,,,,,,,,,,,,,,,,,,,,,,,,,,,,,,,,,,,,,,,,,,,,,,,,,,,,,,,,,,,,,,,,,,,,,,,,,,,,,,,,,,,,,,,,,,,,,,,,,,,,,,
,,67e54edf70d5a6b7026c95a2,2026-03-17_16h09.48.168,kallum_motion_pilot_GIST_update_2,2026.1.1,Win32,59.88023952,67e54edf70d5a6b7026c95a2,69b95efdef24cd8a694e89ee,69b960451f2ede6d61616b0a,0.0268,0.0268,0,22,22,77,1,threefour,,,,,,,,,,,,,,,,,,,,,,,,,,,,,,,,,,,,,,,,,,,,,,,,,,,,,,,,,,,,,,,,,,,,,,,,,,,,,,,,,,,,,,,,,,,,,,,,,,,,,,,,,,,,,,,,,,,,,,,,,,,,,,,,,,,,,,,,,
,,67e54edf70d5a6b7026c95a2,2026-03-17_16h09.48.168,kallum_motion_pilot_GIST_update_2,2026.1.1,Win32,59.88023952,67e54edf70d5a6b7026c95a2,69b95efdef24cd8a694e89ee,69b960451f2ede6d61616b0a,0.0269,0.027,0,23,23,106,1,sixfive,,,,,,,,,,,,,,,,,,,,,,,,,,,,,,,,,,,,,,,,,,,,,,,,,,,,,,,,,,,,,,,,,,,,,,,,,,,,,,,,,,,,,,,,,,,,,,,,,,,,,,,,,,,,,,,,,,,,,,,,,,,,,,,,,,,,,,,,,
,,67e54edf70d5a6b7026c95a2,2026-03-17_16h09.48.168,kallum_motion_pilot_GIST_update_2,2026.1.1,Win32,59.88023952,67e54edf70d5a6b7026c95a2,69b95efdef24cd8a694e89ee,69b960451f2ede6d61616b0a,0.0272,0.0272,0,24,24,128,1,fivesix,,,,,,,,,,,,,,,,,,,,,,,,,,,,,,,,,,,,,,,,,,,,,,,,,,,,,,,,,,,,,,,,,,,,,,,,,,,,,,,,,,,,,,,,,,,,,,,,,,,,,,,,,,,,,,,,,,,,,,,,,,,,,,,,,,,,,,,,,
,,67e54edf70d5a6b7026c95a2,2026-03-17_16h09.48.168,kallum_motion_pilot_GIST_update_2,2026.1.1,Win32,59.88023952,67e54edf70d5a6b7026c95a2,69b95efdef24cd8a694e89ee,69b960451f2ede6d61616b0a,0.0273,0.0273,0,25,25,60,1,threeone,,,,,,,,,,,,,,,,,,,,,,,,,,,,,,,,,,,,,,,,,,,,,,,,,,,,,,,,,,,,,,,,,,,,,,,,,,,,,,,,,,,,,,,,,,,,,,,,,,,,,,,,,,,,,,,,,,,,,,,,,,,,,,,,,,,,,,,,,
,,67e54edf70d5a6b7026c95a2,2026-03-17_16h09.48.168,kallum_motion_pilot_GIST_update_2,2026.1.1,Win32,59.88023952,67e54edf70d5a6b7026c95a2,69b95efdef24cd8a694e89ee,69b960451f2ede6d61616b0a,0.0274,0.0274,0,26,26,67,1,twofour,,,,,,,,,,,,,,,,,,,,,,,,,,,,,,,,,,,,,,,,,,,,,,,,,,,,,,,,,,,,,,,,,,,,,,,,,,,,,,,,,,,,,,,,,,,,,,,,,,,,,,,,,,,,,,,,,,,,,,,,,,,,,,,,,,,,,,,,,
,,67e54edf70d5a6b7026c95a2,2026-03-17_16h09.48.168,kallum_motion_pilot_GIST_update_2,2026.1.1,Win32,59.88023952,67e54edf70d5a6b7026c95a2,69b95efdef24cd8a694e89ee,69b960451f2ede6d61616b0a,0.0275,0.0275,0,27,27,118,1,eightsix,,,,,,,,,,,,,,,,,,,,,,,,,,,,,,,,,,,,,,,,,,,,,,,,,,,,,,,,,,,,,,,,,,,,,,,,,,,,,,,,,,,,,,,,,,,,,,,,,,,,,,,,,,,,,,,,,,,,,,,,,,,,,,,,,,,,,,,,,
,,67e54edf70d5a6b7026c95a2,2026-03-17_16h09.48.168,kallum_motion_pilot_GIST_update_2,2026.1.1,Win32,59.88023952,67e54edf70d5a6b7026c95a2,69b95efdef24cd8a694e89ee,69b960451f2ede6d61616b0a,0.0276,0.0276,0,28,28,144,1,fivesix,,,,,,,,,,,,,,,,,,,,,,,,,,,,,,,,,,,,,,,,,,,,,,,,,,,,,,,,,,,,,,,,,,,,,,,,,,,,,,,,,,,,,,,,,,,,,,,,,,,,,,,,,,,,,,,,,,,,,,,,,,,,,,,,,,,,,,,,,
,,67e54edf70d5a6b7026c95a2,2026-03-17_16h09.48.168,kallum_motion_pilot_GIST_update_2,2026.1.1,Win32,59.88023952,67e54edf70d5a6b7026c95a2,69b95efdef24cd8a694e89ee,69b960451f2ede6d61616b0a,0.0277,0.0277,0,29,29,129,1,fiveseven,,,,,,,,,,,,,,,,,,,,,,,,,,,,,,,,,,,,,,,,,,,,,,,,,,,,,,,,,,,,,,,,,,,,,,,,,,,,,,,,,,,,,,,,,,,,,,,,,,,,,,,,,,,,,,,,,,,,,,,,,,,,,,,,,,,,,,,,,
,,67e54edf70d5a6b7026c95a2,2026-03-17_16h09.48.168,kallum_motion_pilot_GIST_update_2,2026.1.1,Win32,59.88023952,67e54edf70d5a6b7026c95a2,69b95efdef24cd8a694e89ee,69b960451f2ede6d61616b0a,0.0278,0.0278,0,30,30,47,1,fourthree,,,,,,,,,,,,,,,,,,,,,,,,,,,,,,,,,,,,,,,,,,,,,,,,,,,,,,,,,,,,,,,,,,,,,,,,,,,,,,,,,,,,,,,,,,,,,,,,,,,,,,,,,,,,,,,,,,,,,,,,,,,,,,,,,,,,,,,,,
,,67e54edf70d5a6b7026c95a2,2026-03-17_16h09.48.168,kallum_motion_pilot_GIST_update_2,2026.1.1,Win32,59.88023952,67e54edf70d5a6b7026c95a2,69b95efdef24cd8a694e89ee,69b960451f2ede6d61616b0a,0.028,0.028,0,31,31,0,1,onetwo,,,,,,,,,,,,,,,,,,,,,,,,,,,,,,,,,,,,,,,,,,,,,,,,,,,,,,,,,,,,,,,,,,,,,,,,,,,,,,,,,,,,,,,,,,,,,,,,,,,,,,,,,,,,,,,,,,,,,,,,,,,,,,,,,,,,,,,,,
,,67e54edf70d5a6b7026c95a2,2026-03-17_16h09.48.168,kallum_motion_pilot_GIST_update_2,2026.1.1,Win32,59.88023952,67e54edf70d5a6b7026c95a2,69b95efdef24cd8a694e89ee,69b960451f2ede6d61616b0a,0.0281,0.0281,0,32,32,38,1,fourtwo,,,,,,,,,,,,,,,,,,,,,,,,,,,,,,,,,,,,,,,,,,,,,,,,,,,,,,,,,,,,,,,,,,,,,,,,,,,,,,,,,,,,,,,,,,,,,,,,,,,,,,,,,,,,,,,,,,,,,,,,,,,,,,,,,,,,,,,,,
,,67e54edf70d5a6b7026c95a2,2026-03-17_16h09.48.168,kallum_motion_pilot_GIST_update_2,2026.1.1,Win32,59.88023952,67e54edf70d5a6b7026c95a2,69b95efdef24cd8a694e89ee,69b960451f2ede6d61616b0a,0.0282,0.0282,0,33,33,68,1,threeone,,,,,,,,,,,,,,,,,,,,,,,,,,,,,,,,,,,,,,,,,,,,,,,,,,,,,,,,,,,,,,,,,,,,,,,,,,,,,,,,,,,,,,,,,,,,,,,,,,,,,,,,,,,,,,,,,,,,,,,,,,,,,,,,,,,,,,,,,
,,67e54edf70d5a6b7026c95a2,2026-03-17_16h09.48.168,kallum_motion_pilot_GIST_update_2,2026.1.1,Win32,59.88023952,67e54edf70d5a6b7026c95a2,69b95efdef24cd8a694e89ee,69b960451f2ede6d61616b0a,0.0282,0.0283,0,34,34,134,1,eightsix,,,,,,,,,,,,,,,,,,,,,,,,,,,,,,,,,,,,,,,,,,,,,,,,,,,,,,,,,,,,,,,,,,,,,,,,,,,,,,,,,,,,,,,,,,,,,,,,,,,,,,,,,,,,,,,,,,,,,,,,,,,,,,,,,,,,,,,,,
,,67e54edf70d5a6b7026c95a2,2026-03-17_16h09.48.168,kallum_motion_pilot_GIST_update_2,2026.1.1,Win32,59.88023952,67e54edf70d5a6b7026c95a2,69b95efdef24cd8a694e89ee,69b960451f2ede6d61616b0a,0.0283,0.0284,0,35,35,155,1,sixeight,,,,,,,,,,,,,,,,,,,,,,,,,,,,,,,,,,,,,,,,,,,,,,,,,,,,,,,,,,,,,,,,,,,,,,,,,,,,,,,,,,,,,,,,,,,,,,,,,,,,,,,,,,,,,,,,,,,,,,,,,,,,,,,,,,,,,,,,,
,,67e54edf70d5a6b7026c95a2,2026-03-17_16h09.48.168,kallum_motion_pilot_GIST_update_2,2026.1.1,Win32,59.88023952,67e54edf70d5a6b7026c95a2,69b95efdef24cd8a694e89ee,69b960451f2ede6d61616b0a,0.0285,0.0285,0,36,36,85,1,seveneight,,,,,,,,,,,,,,,,,,,,,,,,,,,,,,,,,,,,,,,,,,,,,,,,,,,,,,,,,,,,,,,,,,,,,,,,,,,,,,,,,,,,,,,,,,,,,,,,,,,,,,,,,,,,,,,,,,,,,,,,,,,,,,,,,,,,,,,,,
,,67e54edf70d5a6b7026c95a2,2026-03-17_16h09.48.168,kallum_motion_pilot_GIST_update_2,2026.1.1,Win32,59.88023952,67e54edf70d5a6b7026c95a2,69b95efdef24cd8a694e89ee,69b960451f2ede6d61616b0a,0.0286,0.0286,0,37,37,12,1,threeone,,,,,,,,,,,,,,,,,,,,,,,,,,,,,,,,,,,,,,,,,,,,,,,,,,,,,,,,,,,,,,,,,,,,,,,,,,,,,,,,,,,,,,,,,,,,,,,,,,,,,,,,,,,,,,,,,,,,,,,,,,,,,,,,,,,,,,,,,
,,67e54edf70d5a6b7026c95a2,2026-03-17_16h09.48.168,kallum_motion_pilot_GIST_update_2,2026.1.1,Win32,59.88023952,67e54edf70d5a6b7026c95a2,69b95efdef24cd8a694e89ee,69b960451f2ede6d61616b0a,0.0286,0.0286,0,38,38,40,1,onetwo,,,,,,,,,,,,,,,,,,,,,,,,,,,,,,,,,,,,,,,,,,,,,,,,,,,,,,,,,,,,,,,,,,,,,,,,,,,,,,,,,,,,,,,,,,,,,,,,,,,,,,,,,,,,,,,,,,,,,,,,,,,,,,,,,,,,,,,,,
,,67e54edf70d5a6b7026c95a2,2026-03-17_16h09.48.168,kallum_motion_pilot_GIST_update_2,2026.1.1,Win32,59.88023952,67e54edf70d5a6b7026c95a2,69b95efdef24cd8a694e89ee,69b960451f2ede6d61616b0a,0.0288,0.0288,0,39,39,50,1,twoone,,,,,,,,,,,,,,,,,,,,,,,,,,,,,,,,,,,,,,,,,,,,,,,,,,,,,,,,,,,,,,,,,,,,,,,,,,,,,,,,,,,,,,,,,,,,,,,,,,,,,,,,,,,,,,,,,,,,,,,,,,,,,,,,,,,,,,,,,
,,67e54edf70d5a6b7026c95a2,2026-03-17_16h09.48.168,kallum_motion_pilot_GIST_update_2,2026.1.1,Win32,59.88023952,67e54edf70d5a6b7026c95a2,69b95efdef24cd8a694e89ee,69b960451f2ede6d61616b0a,0.0288,0.0288,0,40,40,20,1,threeone,,,,,,,,,,,,,,,,,,,,,,,,,,,,,,,,,,,,,,,,,,,,,,,,,,,,,,,,,,,,,,,,,,,,,,,,,,,,,,,,,,,,,,,,,,,,,,,,,,,,,,,,,,,,,,,,,,,,,,,,,,,,,,,,,,,,,,,,,
,,67e54edf70d5a6b7026c95a2,2026-03-17_16h09.48.168,kallum_motion_pilot_GIST_update_2,2026.1.1,Win32,59.88023952,67e54edf70d5a6b7026c95a2,69b95efdef24cd8a694e89ee,69b960451f2ede6d61616b0a,0.0289,0.0289,0,41,41,43,1,twofour,,,,,,,,,,,,,,,,,,,,,,,,,,,,,,,,,,,,,,,,,,,,,,,,,,,,,,,,,,,,,,,,,,,,,,,,,,,,,,,,,,,,,,,,,,,,,,,,,,,,,,,,,,,,,,,,,,,,,,,,,,,,,,,,,,,,,,,,,
,,67e54edf70d5a6b7026c95a2,2026-03-17_16h09.48.168,kallum_motion_pilot_GIST_update_2,2026.1.1,Win32,59.88023952,67e54edf70d5a6b7026c95a2,69b95efdef24cd8a694e89ee,69b960451f2ede6d61616b0a,0.0291,0.0291,0,42,42,19,1,twofour,,,,,,,,,,,,,,,,,,,,,,,,,,,,,,,,,,,,,,,,,,,,,,,,,,,,,,,,,,,,,,,,,,,,,,,,,,,,,,,,,,,,,,,,,,,,,,,,,,,,,,,,,,,,,,,,,,,,,,,,,,,,,,,,,,,,,,,,,
,,67e54edf70d5a6b7026c95a2,2026-03-17_16h09.48.168,kallum_motion_pilot_GIST_update_2,2026.1.1,Win32,59.88023952,67e54edf70d5a6b7026c95a2,69b95efdef24cd8a694e89ee,69b960451f2ede6d61616b0a,0.0292,0.0292,0,43,43,52,1,threeone,,,,,,,,,,,,,,,,,,,,,,,,,,,,,,,,,,,,,,,,,,,,,,,,,,,,,,,,,,,,,,,,,,,,,,,,,,,,,,,,,,,,,,,,,,,,,,,,,,,,,,,,,,,,,,,,,,,,,,,,,,,,,,,,,,,,,,,,,
,,67e54edf70d5a6b7026c95a2,2026-03-17_16h09.48.168,kallum_motion_pilot_GIST_update_2,2026.1.1,Win32,59.88023952,67e54edf70d5a6b7026c95a2,69b95efdef24cd8a694e89ee,69b960451f2ede6d61616b0a,0.0293,0.0293,0,44,44,64,1,onetwo,,,,,,,,,,,,,,,,,,,,,,,,,,,,,,,,,,,,,,,,,,,,,,,,,,,,,,,,,,,,,,,,,,,,,,,,,,,,,,,,,,,,,,,,,,,,,,,,,,,,,,,,,,,,,,,,,,,,,,,,,,,,,,,,,,,,,,,,,
,,67e54edf70d5a6b7026c95a2,2026-03-17_16h09.48.168,kallum_motion_pilot_GIST_update_2,2026.1.1,Win32,59.88023952,67e54edf70d5a6b7026c95a2,69b95efdef24cd8a694e89ee,69b960451f2ede6d61616b0a,0.0294,0.0294,0,45,45,2,1,twoone,,,,,,,,,,,,,,,,,,,,,,,,,,,,,,,,,,,,,,,,,,,,,,,,,,,,,,,,,,,,,,,,,,,,,,,,,,,,,,,,,,,,,,,,,,,,,,,,,,,,,,,,,,,,,,,,,,,,,,,,,,,,,,,,,,,,,,,,,
,,67e54edf70d5a6b7026c95a2,2026-03-17_16h09.48.168,kallum_motion_pilot_GIST_update_2,2026.1.1,Win32,59.88023952,67e54edf70d5a6b7026c95a2,69b95efdef24cd8a694e89ee,69b960451f2ede6d61616b0a,0.0295,0.0295,0,46,46,71,1,fourthree,,,,,,,,,,,,,,,,,,,,,,,,,,,,,,,,,,,,,,,,,,,,,,,,,,,,,,,,,,,,,,,,,,,,,,,,,,,,,,,,,,,,,,,,,,,,,,,,,,,,,,,,,,,,,,,,,,,,,,,,,,,,,,,,,,,,,,,,,
,,67e54edf70d5a6b7026c95a2,2026-03-17_16h09.48.168,kallum_motion_pilot_GIST_update_2,2026.1.1,Win32,59.88023952,67e54edf70d5a6b7026c95a2,69b95efdef24cd8a694e89ee,69b960451f2ede6d61616b0a,0.0296,0.0296,0,47,47,69,1,threefour,,,,,,,,,,,,,,,,,,,,,,,,,,,,,,,,,,,,,,,,,,,,,,,,,,,,,,,,,,,,,,,,,,,,,,,,,,,,,,,,,,,,,,,,,,,,,,,,,,,,,,,,,,,,,,,,,,,,,,,,,,,,,,,,,,,,,,,,,
,,67e54edf70d5a6b7026c95a2,2026-03-17_16h09.48.168,kallum_motion_pilot_GIST_update_2,2026.1.1,Win32,59.88023952,67e54edf70d5a6b7026c95a2,69b95efdef24cd8a694e89ee,69b960451f2ede6d61616b0a,0.0297,0.0297,0,48,48,82,1,sixfive,,,,,,,,,,,,,,,,,,,,,,,,,,,,,,,,,,,,,,,,,,,,,,,,,,,,,,,,,,,,,,,,,,,,,,,,,,,,,,,,,,,,,,,,,,,,,,,,,,,,,,,,,,,,,,,,,,,,,,,,,,,,,,,,,,,,,,,,,
,,67e54edf70d5a6b7026c95a2,2026-03-17_16h09.48.168,kallum_motion_pilot_GIST_update_2,2026.1.1,Win32,59.88023952,67e54edf70d5a6b7026c95a2,69b95efdef24cd8a694e89ee,69b960451f2ede6d61616b0a,0.0297,0.0298,0,49,49,99,1,sixeight,,,,,,,,,,,,,,,,,,,,,,,,,,,,,,,,,,,,,,,,,,,,,,,,,,,,,,,,,,,,,,,,,,,,,,,,,,,,,,,,,,,,,,,,,,,,,,,,,,,,,,,,,,,,,,,,,,,,,,,,,,,,,,,,,,,,,,,,,
,,67e54edf70d5a6b7026c95a2,2026-03-17_16h09.48.168,kallum_motion_pilot_GIST_update_2,2026.1.1,Win32,59.88023952,67e54edf70d5a6b7026c95a2,69b95efdef24cd8a694e89ee,69b960451f2ede6d61616b0a,0.0299,0.0299,0,50,50,23,1,fourthree,,,,,,,,,,,,,,,,,,,,,,,,,,,,,,,,,,,,,,,,,,,,,,,,,,,,,,,,,,,,,,,,,,,,,,,,,,,,,,,,,,,,,,,,,,,,,,,,,,,,,,,,,,,,,,,,,,,,,,,,,,,,,,,,,,,,,,,,,
,,67e54edf70d5a6b7026c95a2,2026-03-17_16h09.48.168,kallum_motion_pilot_GIST_update_2,2026.1.1,Win32,59.88023952,67e54edf70d5a6b7026c95a2,69b95efdef24cd8a694e89ee,69b960451f2ede6d61616b0a,0.03,0.03,0,51,51,74,1,twoone,,,,,,,,,,,,,,,,,,,,,,,,,,,,,,,,,,,,,,,,,,,,,,,,,,,,,,,,,,,,,,,,,,,,,,,,,,,,,,,,,,,,,,,,,,,,,,,,,,,,,,,,,,,,,,,,,,,,,,,,,,,,,,,,,,,,,,,,,
,,67e54edf70d5a6b7026c95a2,2026-03-17_16h09.48.168,kallum_motion_pilot_GIST_update_2,2026.1.1,Win32,59.88023952,67e54edf70d5a6b7026c95a2,69b95efdef24cd8a694e89ee,69b960451f2ede6d61616b0a,0.0301,0.0301,0,52,52,126,1,eightsix,,,,,,,,,,,,,,,,,,,,,,,,,,,,,,,,,,,,,,,,,,,,,,,,,,,,,,,,,,,,,,,,,,,,,,,,,,,,,,,,,,,,,,,,,,,,,,,,,,,,,,,,,,,,,,,,,,,,,,,,,,,,,,,,,,,,,,,,,
,,67e54edf70d5a6b7026c95a2,2026-03-17_16h09.48.168,kallum_motion_pilot_GIST_update_2,2026.1.1,Win32,59.88023952,67e54edf70d5a6b7026c95a2,69b95efdef24cd8a694e89ee,69b960451f2ede6d61616b0a,0.0302,0.0302,0,53,53,124,1,sevenfive,,,,,,,,,,,,,,,,,,,,,,,,,,,,,,,,,,,,,,,,,,,,,,,,,,,,,,,,,,,,,,,,,,,,,,,,,,,,,,,,,,,,,,,,,,,,,,,,,,,,,,,,,,,,,,,,,,,,,,,,,,,,,,,,,,,,,,,,,
,,67e54edf70d5a6b7026c95a2,2026-03-17_16h09.48.168,kallum_motion_pilot_GIST_update_2,2026.1.1,Win32,59.88023952,67e54edf70d5a6b7026c95a2,69b95efdef24cd8a694e89ee,69b960451f2ede6d61616b0a,0.0303,0.0303,0,54,54,70,1,fourtwo,,,,,,,,,,,,,,,,,,,,,,,,,,,,,,,,,,,,,,,,,,,,,,,,,,,,,,,,,,,,,,,,,,,,,,,,,,,,,,,,,,,,,,,,,,,,,,,,,,,,,,,,,,,,,,,,,,,,,,,,,,,,,,,,,,,,,,,,,
,,67e54edf70d5a6b7026c95a2,2026-03-17_16h09.48.168,kallum_motion_pilot_GIST_update_2,2026.1.1,Win32,59.88023952,67e54edf70d5a6b7026c95a2,69b95efdef24cd8a694e89ee,69b960451f2ede6d61616b0a,0.0304,0.0304,0,55,55,45,1,threefour,,,,,,,,,,,,,,,,,,,,,,,,,,,,,,,,,,,,,,,,,,,,,,,,,,,,,,,,,,,,,,,,,,,,,,,,,,,,,,,,,,,,,,,,,,,,,,,,,,,,,,,,,,,,,,,,,,,,,,,,,,,,,,,,,,,,,,,,,
,,67e54edf70d5a6b7026c95a2,2026-03-17_16h09.48.168,kallum_motion_pilot_GIST_update_2,2026.1.1,Win32,59.88023952,67e54edf70d5a6b7026c95a2,69b95efdef24cd8a694e89ee,69b960451f2ede6d61616b0a,0.0305,0.0305,0,56,56,150,1,eightsix,,,,,,,,,,,,,,,,,,,,,,,,,,,,,,,,,,,,,,,,,,,,,,,,,,,,,,,,,,,,,,,,,,,,,,,,,,,,,,,,,,,,,,,,,,,,,,,,,,,,,,,,,,,,,,,,,,,,,,,,,,,,,,,,,,,,,,,,,
,,67e54edf70d5a6b7026c95a2,2026-03-17_16h09.48.168,kallum_motion_pilot_GIST_update_2,2026.1.1,Win32,59.88023952,67e54edf70d5a6b7026c95a2,69b95efdef24cd8a694e89ee,69b960451f2ede6d61616b0a,0.0307,0.0307,0,57,57,96,1,fivesix,,,,,,,,,,,,,,,,,,,,,,,,,,,,,,,,,,,,,,,,,,,,,,,,,,,,,,,,,,,,,,,,,,,,,,,,,,,,,,,,,,,,,,,,,,,,,,,,,,,,,,,,,,,,,,,,,,,,,,,,,,,,,,,,,,,,,,,,,
,,67e54edf70d5a6b7026c95a2,2026-03-17_16h09.48.168,kallum_motion_pilot_GIST_update_2,2026.1.1,Win32,59.88023952,67e54edf70d5a6b7026c95a2,69b95efdef24cd8a694e89ee,69b960451f2ede6d61616b0a,0.0308,0.0308,0,58,58,135,1,eightseven,,,,,,,,,,,,,,,,,,,,,,,,,,,,,,,,,,,,,,,,,,,,,,,,,,,,,,,,,,,,,,,,,,,,,,,,,,,,,,,,,,,,,,,,,,,,,,,,,,,,,,,,,,,,,,,,,,,,,,,,,,,,,,,,,,,,,,,,,
,,67e54edf70d5a6b7026c95a2,2026-03-17_16h09.48.168,kallum_motion_pilot_GIST_update_2,2026.1.1,Win32,59.88023952,67e54edf70d5a6b7026c95a2,69b95efdef24cd8a694e89ee,69b960451f2ede6d61616b0a,0.0308,0.0308,0,59,59,35,1,twofour,,,,,,,,,,,,,,,,,,,,,,,,,,,,,,,,,,,,,,,,,,,,,,,,,,,,,,,,,,,,,,,,,,,,,,,,,,,,,,,,,,,,,,,,,,,,,,,,,,,,,,,,,,,,,,,,,,,,,,,,,,,,,,,,,,,,,,,,,
,,67e54edf70d5a6b7026c95a2,2026-03-17_16h09.48.168,kallum_motion_pilot_GIST_update_2,2026.1.1,Win32,59.88023952,67e54edf70d5a6b7026c95a2,69b95efdef24cd8a694e89ee,69b960451f2ede6d61616b0a,0.0309,0.0309,0,60,60,92,1,sevenfive,,,,,,,,,,,,,,,,,,,,,,,,,,,,,,,,,,,,,,,,,,,,,,,,,,,,,,,,,,,,,,,,,,,,,,,,,,,,,,,,,,,,,,,,,,,,,,,,,,,,,,,,,,,,,,,,,,,,,,,,,,,,,,,,,,,,,,,,,
,,67e54edf70d5a6b7026c95a2,2026-03-17_16h09.48.168,kallum_motion_pilot_GIST_update_2,2026.1.1,Win32,59.88023952,67e54edf70d5a6b7026c95a2,69b95efdef24cd8a694e89ee,69b960451f2ede6d61616b0a,0.0311,0.0311,0,61,61,146,1,sixfive,,,,,,,,,,,,,,,,,,,,,,,,,,,,,,,,,,,,,,,,,,,,,,,,,,,,,,,,,,,,,,,,,,,,,,,,,,,,,,,,,,,,,,,,,,,,,,,,,,,,,,,,,,,,,,,,,,,,,,,,,,,,,,,,,,,,,,,,,
,,67e54edf70d5a6b7026c95a2,2026-03-17_16h09.48.168,kallum_motion_pilot_GIST_update_2,2026.1.1,Win32,59.88023952,67e54edf70d5a6b7026c95a2,69b95efdef24cd8a694e89ee,69b960451f2ede6d61616b0a,0.0312,0.0312,0,62,62,137,1,fiveseven,,,,,,,,,,,,,,,,,,,,,,,,,,,,,,,,,,,,,,,,,,,,,,,,,,,,,,,,,,,,,,,,,,,,,,,,,,,,,,,,,,,,,,,,,,,,,,,,,,,,,,,,,,,,,,,,,,,,,,,,,,,,,,,,,,,,,,,,,
,,67e54edf70d5a6b7026c95a2,2026-03-17_16h09.48.168,kallum_motion_pilot_GIST_update_2,2026.1.1,Win32,59.88023952,67e54edf70d5a6b7026c95a2,69b95efdef24cd8a694e89ee,69b960451f2ede6d61616b0a,0.0314,0.0314,0,63,63,93,1,seveneight,,,,,,,,,,,,,,,,,,,,,,,,,,,,,,,,,,,,,,,,,,,,,,,,,,,,,,,,,,,,,,,,,,,,,,,,,,,,,,,,,,,,,,,,,,,,,,,,,,,,,,,,,,,,,,,,,,,,,,,,,,,,,,,,,,,,,,,,,
,,67e54edf70d5a6b7026c95a2,2026-03-17_16h09.48.168,kallum_motion_pilot_GIST_update_2,2026.1.1,Win32,59.88023952,67e54edf70d5a6b7026c95a2,69b95efdef24cd8a694e89ee,69b960451f2ede6d61616b0a,0.0315,0.0315,0,64,64,39,1,fourthree,,,,,,,,,,,,,,,,,,,,,,,,,,,,,,,,,,,,,,,,,,,,,,,,,,,,,,,,,,,,,,,,,,,,,,,,,,,,,,,,,,,,,,,,,,,,,,,,,,,,,,,,,,,,,,,,,,,,,,,,,,,,,,,,,,,,,,,,,
,,67e54edf70d5a6b7026c95a2,2026-03-17_16h09.48.168,kallum_motion_pilot_GIST_update_2,2026.1.1,Win32,59.88023952,67e54edf70d5a6b7026c95a2,69b95efdef24cd8a694e89ee,69b960451f2ede6d61616b0a,0.0316,0.0316,0,65,65,26,1,twoone,,,,,,,,,,,,,,,,,,,,,,,,,,,,,,,,,,,,,,,,,,,,,,,,,,,,,,,,,,,,,,,,,,,,,,,,,,,,,,,,,,,,,,,,,,,,,,,,,,,,,,,,,,,,,,,,,,,,,,,,,,,,,,,,,,,,,,,,,
,,67e54edf70d5a6b7026c95a2,2026-03-17_16h09.48.168,kallum_motion_pilot_GIST_update_2,2026.1.1,Win32,59.88023952,67e54edf70d5a6b7026c95a2,69b95efdef24cd8a694e89ee,69b960451f2ede6d61616b0a,0.0318,0.0318,0,66,66,110,1,eightsix,,,,,,,,,,,,,,,,,,,,,,,,,,,,,,,,,,,,,,,,,,,,,,,,,,,,,,,,,,,,,,,,,,,,,,,,,,,,,,,,,,,,,,,,,,,,,,,,,,,,,,,,,,,,,,,,,,,,,,,,,,,,,,,,,,,,,,,,,
,,67e54edf70d5a6b7026c95a2,2026-03-17_16h09.48.168,kallum_motion_pilot_GIST_update_2,2026.1.1,Win32,59.88023952,67e54edf70d5a6b7026c95a2,69b95efdef24cd8a694e89ee,69b960451f2ede6d61616b0a,0.032,0.032,0,67,67,34,1,twoone,,,,,,,,,,,,,,,,,,,,,,,,,,,,,,,,,,,,,,,,,,,,,,,,,,,,,,,,,,,,,,,,,,,,,,,,,,,,,,,,,,,,,,,,,,,,,,,,,,,,,,,,,,,,,,,,,,,,,,,,,,,,,,,,,,,,,,,,,
,,67e54edf70d5a6b7026c95a2,2026-03-17_16h09.48.168,kallum_motion_pilot_GIST_update_2,2026.1.1,Win32,59.88023952,67e54edf70d5a6b7026c95a2,69b95efdef24cd8a694e89ee,69b960451f2ede6d61616b0a,0.0322,0.0322,0,68,68,44,1,threeone,,,,,,,,,,,,,,,,,,,,,,,,,,,,,,,,,,,,,,,,,,,,,,,,,,,,,,,,,,,,,,,,,,,,,,,,,,,,,,,,,,,,,,,,,,,,,,,,,,,,,,,,,,,,,,,,,,,,,,,,,,,,,,,,,,,,,,,,,
,,67e54edf70d5a6b7026c95a2,2026-03-17_16h09.48.168,kallum_motion_pilot_GIST_update_2,2026.1.1,Win32,59.88023952,67e54edf70d5a6b7026c95a2,69b95efdef24cd8a694e89ee,69b960451f2ede6d61616b0a,0.0323,0.0324,0,69,69,113,1,fiveseven,,,,,,,,,,,,,,,,,,,,,,,,,,,,,,,,,,,,,,,,,,,,,,,,,,,,,,,,,,,,,,,,,,,,,,,,,,,,,,,,,,,,,,,,,,,,,,,,,,,,,,,,,,,,,,,,,,,,,,,,,,,,,,,,,,,,,,,,,
,,67e54edf70d5a6b7026c95a2,2026-03-17_16h09.48.168,kallum_motion_pilot_GIST_update_2,2026.1.1,Win32,59.88023952,67e54edf70d5a6b7026c95a2,69b95efdef24cd8a694e89ee,69b960451f2ede6d61616b0a,0.0325,0.0325,0,70,70,130,1,sixfive,,,,,,,,,,,,,,,,,,,,,,,,,,,,,,,,,,,,,,,,,,,,,,,,,,,,,,,,,,,,,,,,,,,,,,,,,,,,,,,,,,,,,,,,,,,,,,,,,,,,,,,,,,,,,,,,,,,,,,,,,,,,,,,,,,,,,,,,,
,,67e54edf70d5a6b7026c95a2,2026-03-17_16h09.48.168,kallum_motion_pilot_GIST_update_2,2026.1.1,Win32,59.88023952,67e54edf70d5a6b7026c95a2,69b95efdef24cd8a694e89ee,69b960451f2ede6d61616b0a,0.0327,0.0327,0,71,71,18,1,twoone,,,,,,,,,,,,,,,,,,,,,,,,,,,,,,,,,,,,,,,,,,,,,,,,,,,,,,,,,,,,,,,,,,,,,,,,,,,,,,,,,,,,,,,,,,,,,,,,,,,,,,,,,,,,,,,,,,,,,,,,,,,,,,,,,,,,,,,,,
,,67e54edf70d5a6b7026c95a2,2026-03-17_16h09.48.168,kallum_motion_pilot_GIST_update_2,2026.1.1,Win32,59.88023952,67e54edf70d5a6b7026c95a2,69b95efdef24cd8a694e89ee,69b960451f2ede6d61616b0a,0.0329,0.0329,0,72,72,149,1,seveneight,,,,,,,,,,,,,,,,,,,,,,,,,,,,,,,,,,,,,,,,,,,,,,,,,,,,,,,,,,,,,,,,,,,,,,,,,,,,,,,,,,,,,,,,,,,,,,,,,,,,,,,,,,,,,,,,,,,,,,,,,,,,,,,,,,,,,,,,,
,,67e54edf70d5a6b7026c95a2,2026-03-17_16h09.48.168,kallum_motion_pilot_GIST_update_2,2026.1.1,Win32,59.88023952,67e54edf70d5a6b7026c95a2,69b95efdef24cd8a694e89ee,69b960451f2ede6d61616b0a,0.0331,0.0331,0,73,73,55,1,fourthree,,,,,,,,,,,,,,,,,,,,,,,,,,,,,,,,,,,,,,,,,,,,,,,,,,,,,,,,,,,,,,,,,,,,,,,,,,,,,,,,,,,,,,,,,,,,,,,,,,,,,,,,,,,,,,,,,,,,,,,,,,,,,,,,,,,,,,,,,
,,67e54edf70d5a6b7026c95a2,2026-03-17_16h09.48.168,kallum_motion_pilot_GIST_update_2,2026.1.1,Win32,59.88023952,67e54edf70d5a6b7026c95a2,69b95efdef24cd8a694e89ee,69b960451f2ede6d61616b0a,0.0333,0.0333,0,74,74,11,1,twofour,,,,,,,,,,,,,,,,,,,,,,,,,,,,,,,,,,,,,,,,,,,,,,,,,,,,,,,,,,,,,,,,,,,,,,,,,,,,,,,,,,,,,,,,,,,,,,,,,,,,,,,,,,,,,,,,,,,,,,,,,,,,,,,,,,,,,,,,,
,,67e54edf70d5a6b7026c95a2,2026-03-17_16h09.48.168,kallum_motion_pilot_GIST_update_2,2026.1.1,Win32,59.88023952,67e54edf70d5a6b7026c95a2,69b95efdef24cd8a694e89ee,69b960451f2ede6d61616b0a,0.0333,0.0333,0,75,75,4,1,threeone,,,,,,,,,,,,,,,,,,,,,,,,,,,,,,,,,,,,,,,,,,,,,,,,,,,,,,,,,,,,,,,,,,,,,,,,,,,,,,,,,,,,,,,,,,,,,,,,,,,,,,,,,,,,,,,,,,,,,,,,,,,,,,,,,,,,,,,,,
,,67e54edf70d5a6b7026c95a2,2026-03-17_16h09.48.168,kallum_motion_pilot_GIST_update_2,2026.1.1,Win32,59.88023952,67e54edf70d5a6b7026c95a2,69b95efdef24cd8a694e89ee,69b960451f2ede6d61616b0a,0.0334,0.0334,0,76,76,8,1,onetwo,,,,,,,,,,,,,,,,,,,,,,,,,,,,,,,,,,,,,,,,,,,,,,,,,,,,,,,,,,,,,,,,,,,,,,,,,,,,,,,,,,,,,,,,,,,,,,,,,,,,,,,,,,,,,,,,,,,,,,,,,,,,,,,,,,,,,,,,,
,,67e54edf70d5a6b7026c95a2,2026-03-17_16h09.48.168,kallum_motion_pilot_GIST_update_2,2026.1.1,Win32,59.88023952,67e54edf70d5a6b7026c95a2,69b95efdef24cd8a694e89ee,69b960451f2ede6d61616b0a,0.0336,0.0336,0,77,77,111,1,eightseven,,,,,,,,,,,,,,,,,,,,,,,,,,,,,,,,,,,,,,,,,,,,,,,,,,,,,,,,,,,,,,,,,,,,,,,,,,,,,,,,,,,,,,,,,,,,,,,,,,,,,,,,,,,,,,,,,,,,,,,,,,,,,,,,,,,,,,,,,
,,67e54edf70d5a6b7026c95a2,2026-03-17_16h09.48.168,kallum_motion_pilot_GIST_update_2,2026.1.1,Win32,59.88023952,67e54edf70d5a6b7026c95a2,69b95efdef24cd8a694e89ee,69b960451f2ede6d61616b0a,0.0336,0.0336,0,78,78,100,1,sevenfive,,,,,,,,,,,,,,,,,,,,,,,,,,,,,,,,,,,,,,,,,,,,,,,,,,,,,,,,,,,,,,,,,,,,,,,,,,,,,,,,,,,,,,,,,,,,,,,,,,,,,,,,,,,,,,,,,,,,,,,,,,,,,,,,,,,,,,,,,
,,67e54edf70d5a6b7026c95a2,2026-03-17_16h09.48.168,kallum_motion_pilot_GIST_update_2,2026.1.1,Win32,59.88023952,67e54edf70d5a6b7026c95a2,69b95efdef24cd8a694e89ee,69b960451f2ede6d61616b0a,0.0337,0.0337,0,79,79,31,1,fourthree,,,,,,,,,,,,,,,,,,,,,,,,,,,,,,,,,,,,,,,,,,,,,,,,,,,,,,,,,,,,,,,,,,,,,,,,,,,,,,,,,,,,,,,,,,,,,,,,,,,,,,,,,,,,,,,,,,,,,,,,,,,,,,,,,,,,,,,,,
,,67e54edf70d5a6b7026c95a2,2026-03-17_16h09.48.168,kallum_motion_pilot_GIST_update_2,2026.1.1,Win32,59.88023952,67e54edf70d5a6b7026c95a2,69b95efdef24cd8a694e89ee,69b960451f2ede6d61616b0a,0.0339,0.0339,0,80,80,107,1,sixeight,,,,,,,,,,,,,,,,,,,,,,,,,,,,,,,,,,,,,,,,,,,,,,,,,,,,,,,,,,,,,,,,,,,,,,,,,,,,,,,,,,,,,,,,,,,,,,,,,,,,,,,,,,,,,,,,,,,,,,,,,,,,,,,,,,,,,,,,,
,,67e54edf70d5a6b7026c95a2,2026-03-17_16h09.48.168,kallum_motion_pilot_GIST_update_2,2026.1.1,Win32,59.88023952,67e54edf70d5a6b7026c95a2,69b95efdef24cd8a694e89ee,69b960451f2ede6d61616b0a,0.034,0.034,0,81,81,58,1,twoone,,,,,,,,,,,,,,,,,,,,,,,,,,,,,,,,,,,,,,,,,,,,,,,,,,,,,,,,,,,,,,,,,,,,,,,,,,,,,,,,,,,,,,,,,,,,,,,,,,,,,,,,,,,,,,,,,,,,,,,,,,,,,,,,,,,,,,,,,
,,67e54edf70d5a6b7026c95a2,2026-03-17_16h09.48.168,kallum_motion_pilot_GIST_update_2,2026.1.1,Win32,59.88023952,67e54edf70d5a6b7026c95a2,69b95efdef24cd8a694e89ee,69b960451f2ede6d61616b0a,0.0341,0.0341,0,82,82,142,1,eightsix,,,,,,,,,,,,,,,,,,,,,,,,,,,,,,,,,,,,,,,,,,,,,,,,,,,,,,,,,,,,,,,,,,,,,,,,,,,,,,,,,,,,,,,,,,,,,,,,,,,,,,,,,,,,,,,,,,,,,,,,,,,,,,,,,,,,,,,,,
,,67e54edf70d5a6b7026c95a2,2026-03-17_16h09.48.168,kallum_motion_pilot_GIST_update_2,2026.1.1,Win32,59.88023952,67e54edf70d5a6b7026c95a2,69b95efdef24cd8a694e89ee,69b960451f2ede6d61616b0a,0.0342,0.0342,0,83,83,32,1,onetwo,,,,,,,,,,,,,,,,,,,,,,,,,,,,,,,,,,,,,,,,,,,,,,,,,,,,,,,,,,,,,,,,,,,,,,,,,,,,,,,,,,,,,,,,,,,,,,,,,,,,,,,,,,,,,,,,,,,,,,,,,,,,,,,,,,,,,,,,,
,,67e54edf70d5a6b7026c95a2,2026-03-17_16h09.48.168,kallum_motion_pilot_GIST_update_2,2026.1.1,Win32,59.88023952,67e54edf70d5a6b7026c95a2,69b95efdef24cd8a694e89ee,69b960451f2ede6d61616b0a,0.0343,0.0343,0,84,84,97,1,fiveseven,,,,,,,,,,,,,,,,,,,,,,,,,,,,,,,,,,,,,,,,,,,,,,,,,,,,,,,,,,,,,,,,,,,,,,,,,,,,,,,,,,,,,,,,,,,,,,,,,,,,,,,,,,,,,,,,,,,,,,,,,,,,,,,,,,,,,,,,,
,,67e54edf70d5a6b7026c95a2,2026-03-17_16h09.48.168,kallum_motion_pilot_GIST_update_2,2026.1.1,Win32,59.88023952,67e54edf70d5a6b7026c95a2,69b95efdef24cd8a694e89ee,69b960451f2ede6d61616b0a,0.0344,0.0345,0,85,85,156,1,sevenfive,,,,,,,,,,,,,,,,,,,,,,,,,,,,,,,,,,,,,,,,,,,,,,,,,,,,,,,,,,,,,,,,,,,,,,,,,,,,,,,,,,,,,,,,,,,,,,,,,,,,,,,,,,,,,,,,,,,,,,,,,,,,,,,,,,,,,,,,,
,,67e54edf70d5a6b7026c95a2,2026-03-17_16h09.48.168,kallum_motion_pilot_GIST_update_2,2026.1.1,Win32,59.88023952,67e54edf70d5a6b7026c95a2,69b95efdef24cd8a694e89ee,69b960451f2ede6d61616b0a,0.0345,0.0345,0,86,86,133,1,seveneight,,,,,,,,,,,,,,,,,,,,,,,,,,,,,,,,,,,,,,,,,,,,,,,,,,,,,,,,,,,,,,,,,,,,,,,,,,,,,,,,,,,,,,,,,,,,,,,,,,,,,,,,,,,,,,,,,,,,,,,,,,,,,,,,,,,,,,,,,
,,67e54edf70d5a6b7026c95a2,2026-03-17_16h09.48.168,kallum_motion_pilot_GIST_update_2,2026.1.1,Win32,59.88023952,67e54edf70d5a6b7026c95a2,69b95efdef24cd8a694e89ee,69b960451f2ede6d61616b0a,0.0347,0.0347,0,87,87,28,1,threeone,,,,,,,,,,,,,,,,,,,,,,,,,,,,,,,,,,,,,,,,,,,,,,,,,,,,,,,,,,,,,,,,,,,,,,,,,,,,,,,,,,,,,,,,,,,,,,,,,,,,,,,,,,,,,,,,,,,,,,,,,,,,,,,,,,,,,,,,,
,,67e54edf70d5a6b7026c95a2,2026-03-17_16h09.48.168,kallum_motion_pilot_GIST_update_2,2026.1.1,Win32,59.88023952,67e54edf70d5a6b7026c95a2,69b95efdef24cd8a694e89ee,69b960451f2ede6d61616b0a,0.0348,0.0348,0,88,88,16,1,onetwo,,,,,,,,,,,,,,,,,,,,,,,,,,,,,,,,,,,,,,,,,,,,,,,,,,,,,,,,,,,,,,,,,,,,,,,,,,,,,,,,,,,,,,,,,,,,,,,,,,,,,,,,,,,,,,,,,,,,,,,,,,,,,,,,,,,,,,,,,
,,67e54edf70d5a6b7026c95a2,2026-03-17_16h09.48.168,kallum_motion_pilot_GIST_update_2,2026.1.1,Win32,59.88023952,67e54edf70d5a6b7026c95a2,69b95efdef24cd8a694e89ee,69b960451f2ede6d61616b0a,0.0349,0.0349,0,89,89,158,1,eightsix,,,,,,,,,,,,,,,,,,,,,,,,,,,,,,,,,,,,,,,,,,,,,,,,,,,,,,,,,,,,,,,,,,,,,,,,,,,,,,,,,,,,,,,,,,,,,,,,,,,,,,,,,,,,,,,,,,,,,,,,,,,,,,,,,,,,,,,,,
,,67e54edf70d5a6b7026c95a2,2026-03-17_16h09.48.168,kallum_motion_pilot_GIST_update_2,2026.1.1,Win32,59.88023952,67e54edf70d5a6b7026c95a2,69b95efdef24cd8a694e89ee,69b960451f2ede6d61616b0a,0.0349,0.0349,0,90,90,61,1,threefour,,,,,,,,,,,,,,,,,,,,,,,,,,,,,,,,,,,,,,,,,,,,,,,,,,,,,,,,,,,,,,,,,,,,,,,,,,,,,,,,,,,,,,,,,,,,,,,,,,,,,,,,,,,,,,,,,,,,,,,,,,,,,,,,,,,,,,,,,
,,67e54edf70d5a6b7026c95a2,2026-03-17_16h09.48.168,kallum_motion_pilot_GIST_update_2,2026.1.1,Win32,59.88023952,67e54edf70d5a6b7026c95a2,69b95efdef24cd8a694e89ee,69b960451f2ede6d61616b0a,0.0351,0.0351,0,91,91,62,1,fourtwo,,,,,,,,,,,,,,,,,,,,,,,,,,,,,,,,,,,,,,,,,,,,,,,,,,,,,,,,,,,,,,,,,,,,,,,,,,,,,,,,,,,,,,,,,,,,,,,,,,,,,,,,,,,,,,,,,,,,,,,,,,,,,,,,,,,,,,,,,
,,67e54edf70d5a6b7026c95a2,2026-03-17_16h09.48.168,kallum_motion_pilot_GIST_update_2,2026.1.1,Win32,59.88023952,67e54edf70d5a6b7026c95a2,69b95efdef24cd8a694e89ee,69b960451f2ede6d61616b0a,0.0352,0.0352,0,92,92,6,1,fourtwo,,,,,,,,,,,,,,,,,,,,,,,,,,,,,,,,,,,,,,,,,,,,,,,,,,,,,,,,,,,,,,,,,,,,,,,,,,,,,,,,,,,,,,,,,,,,,,,,,,,,,,,,,,,,,,,,,,,,,,,,,,,,,,,,,,,,,,,,,
,,67e54edf70d5a6b7026c95a2,2026-03-17_16h09.48.168,kallum_motion_pilot_GIST_update_2,2026.1.1,Win32,59.88023952,67e54edf70d5a6b7026c95a2,69b95efdef24cd8a694e89ee,69b960451f2ede6d61616b0a,0.0352,0.0352,0,93,93,83,1,sixeight,,,,,,,,,,,,,,,,,,,,,,,,,,,,,,,,,,,,,,,,,,,,,,,,,,,,,,,,,,,,,,,,,,,,,,,,,,,,,,,,,,,,,,,,,,,,,,,,,,,,,,,,,,,,,,,,,,,,,,,,,,,,,,,,,,,,,,,,,
,,67e54edf70d5a6b7026c95a2,2026-03-17_16h09.48.168,kallum_motion_pilot_GIST_update_2,2026.1.1,Win32,59.88023952,67e54edf70d5a6b7026c95a2,69b95efdef24cd8a694e89ee,69b960451f2ede6d61616b0a,0.0354,0.0354,0,94,94,112,1,fivesix,,,,,,,,,,,,,,,,,,,,,,,,,,,,,,,,,,,,,,,,,,,,,,,,,,,,,,,,,,,,,,,,,,,,,,,,,,,,,,,,,,,,,,,,,,,,,,,,,,,,,,,,,,,,,,,,,,,,,,,,,,,,,,,,,,,,,,,,,
,,67e54edf70d5a6b7026c95a2,2026-03-17_16h09.48.168,kallum_motion_pilot_GIST_update_2,2026.1.1,Win32,59.88023952,67e54edf70d5a6b7026c95a2,69b95efdef24cd8a694e89ee,69b960451f2ede6d61616b0a,0.0354,0.0354,0,95,95,3,1,twofour,,,,,,,,,,,,,,,,,,,,,,,,,,,,,,,,,,,,,,,,,,,,,,,,,,,,,,,,,,,,,,,,,,,,,,,,,,,,,,,,,,,,,,,,,,,,,,,,,,,,,,,,,,,,,,,,,,,,,,,,,,,,,,,,,,,,,,,,,
,,67e54edf70d5a6b7026c95a2,2026-03-17_16h09.48.168,kallum_motion_pilot_GIST_update_2,2026.1.1,Win32,59.88023952,67e54edf70d5a6b7026c95a2,69b95efdef24cd8a694e89ee,69b960451f2ede6d61616b0a,0.0356,0.0356,0,96,96,117,1,seveneight,,,,,,,,,,,,,,,,,,,,,,,,,,,,,,,,,,,,,,,,,,,,,,,,,,,,,,,,,,,,,,,,,,,,,,,,,,,,,,,,,,,,,,,,,,,,,,,,,,,,,,,,,,,,,,,,,,,,,,,,,,,,,,,,,,,,,,,,,
,,67e54edf70d5a6b7026c95a2,2026-03-17_16h09.48.168,kallum_motion_pilot_GIST_update_2,2026.1.1,Win32,59.88023952,67e54edf70d5a6b7026c95a2,69b95efdef24cd8a694e89ee,69b960451f2ede6d61616b0a,0.0356,0.0356,0,97,97,119,1,eightseven,,,,,,,,,,,,,,,,,,,,,,,,,,,,,,,,,,,,,,,,,,,,,,,,,,,,,,,,,,,,,,,,,,,,,,,,,,,,,,,,,,,,,,,,,,,,,,,,,,,,,,,,,,,,,,,,,,,,,,,,,,,,,,,,,,,,,,,,,
,,67e54edf70d5a6b7026c95a2,2026-03-17_16h09.48.168,kallum_motion_pilot_GIST_update_2,2026.1.1,Win32,59.88023952,67e54edf70d5a6b7026c95a2,69b95efdef24cd8a694e89ee,69b960451f2ede6d61616b0a,0.0357,0.0357,0,98,98,109,1,seveneight,,,,,,,,,,,,,,,,,,,,,,,,,,,,,,,,,,,,,,,,,,,,,,,,,,,,,,,,,,,,,,,,,,,,,,,,,,,,,,,,,,,,,,,,,,,,,,,,,,,,,,,,,,,,,,,,,,,,,,,,,,,,,,,,,,,,,,,,,
,,67e54edf70d5a6b7026c95a2,2026-03-17_16h09.48.168,kallum_motion_pilot_GIST_update_2,2026.1.1,Win32,59.88023952,67e54edf70d5a6b7026c95a2,69b95efdef24cd8a694e89ee,69b960451f2ede6d61616b0a,0.0359,0.0359,0,99,99,65,1,onethree,,,,,,,,,,,,,,,,,,,,,,,,,,,,,,,,,,,,,,,,,,,,,,,,,,,,,,,,,,,,,,,,,,,,,,,,,,,,,,,,,,,,,,,,,,,,,,,,,,,,,,,,,,,,,,,,,,,,,,,,,,,,,,,,,,,,,,,,,
,,67e54edf70d5a6b7026c95a2,2026-03-17_16h09.48.168,kallum_motion_pilot_GIST_update_2,2026.1.1,Win32,59.88023952,67e54edf70d5a6b7026c95a2,69b95efdef24cd8a694e89ee,69b960451f2ede6d61616b0a,0.036,0.036,0,100,100,13,1,threefour,,,,,,,,,,,,,,,,,,,,,,,,,,,,,,,,,,,,,,,,,,,,,,,,,,,,,,,,,,,,,,,,,,,,,,,,,,,,,,,,,,,,,,,,,,,,,,,,,,,,,,,,,,,,,,,,,,,,,,,,,,,,,,,,,,,,,,,,,
,,67e54edf70d5a6b7026c95a2,2026-03-17_16h09.48.168,kallum_motion_pilot_GIST_update_2,2026.1.1,Win32,59.88023952,67e54edf70d5a6b7026c95a2,69b95efdef24cd8a694e89ee,69b960451f2ede6d61616b0a,0.0361,0.0361,0,101,101,7,1,fourthree,,,,,,,,,,,,,,,,,,,,,,,,,,,,,,,,,,,,,,,,,,,,,,,,,,,,,,,,,,,,,,,,,,,,,,,,,,,,,,,,,,,,,,,,,,,,,,,,,,,,,,,,,,,,,,,,,,,,,,,,,,,,,,,,,,,,,,,,,
,,67e54edf70d5a6b7026c95a2,2026-03-17_16h09.48.168,kallum_motion_pilot_GIST_update_2,2026.1.1,Win32,59.88023952,67e54edf70d5a6b7026c95a2,69b95efdef24cd8a694e89ee,69b960451f2ede6d61616b0a,0.0362,0.0363,0,102,102,151,1,eightseven,,,,,,,,,,,,,,,,,,,,,,,,,,,,,,,,,,,,,,,,,,,,,,,,,,,,,,,,,,,,,,,,,,,,,,,,,,,,,,,,,,,,,,,,,,,,,,,,,,,,,,,,,,,,,,,,,,,,,,,,,,,,,,,,,,,,,,,,,
,,67e54edf70d5a6b7026c95a2,2026-03-17_16h09.48.168,kallum_motion_pilot_GIST_update_2,2026.1.1,Win32,59.88023952,67e54edf70d5a6b7026c95a2,69b95efdef24cd8a694e89ee,69b960451f2ede6d61616b0a,0.0363,0.0363,0,103,103,10,1,twoone,,,,,,,,,,,,,,,,,,,,,,,,,,,,,,,,,,,,,,,,,,,,,,,,,,,,,,,,,,,,,,,,,,,,,,,,,,,,,,,,,,,,,,,,,,,,,,,,,,,,,,,,,,,,,,,,,,,,,,,,,,,,,,,,,,,,,,,,,
,,67e54edf70d5a6b7026c95a2,2026-03-17_16h09.48.168,kallum_motion_pilot_GIST_update_2,2026.1.1,Win32,59.88023952,67e54edf70d5a6b7026c95a2,69b95efdef24cd8a694e89ee,69b960451f2ede6d61616b0a,0.0364,0.0364,0,104,104,115,1,sixeight,,,,,,,,,,,,,,,,,,,,,,,,,,,,,,,,,,,,,,,,,,,,,,,,,,,,,,,,,,,,,,,,,,,,,,,,,,,,,,,,,,,,,,,,,,,,,,,,,,,,,,,,,,,,,,,,,,,,,,,,,,,,,,,,,,,,,,,,,
,,67e54edf70d5a6b7026c95a2,2026-03-17_16h09.48.168,kallum_motion_pilot_GIST_update_2,2026.1.1,Win32,59.88023952,67e54edf70d5a6b7026c95a2,69b95efdef24cd8a694e89ee,69b960451f2ede6d61616b0a,0.0366,0.0366,0,105,105,80,1,fivesix,,,,,,,,,,,,,,,,,,,,,,,,,,,,,,,,,,,,,,,,,,,,,,,,,,,,,,,,,,,,,,,,,,,,,,,,,,,,,,,,,,,,,,,,,,,,,,,,,,,,,,,,,,,,,,,,,,,,,,,,,,,,,,,,,,,,,,,,,
,,67e54edf70d5a6b7026c95a2,2026-03-17_16h09.48.168,kallum_motion_pilot_GIST_update_2,2026.1.1,Win32,59.88023952,67e54edf70d5a6b7026c95a2,69b95efdef24cd8a694e89ee,69b960451f2ede6d61616b0a,0.0366,0.0367,0,106,106,121,1,fiveseven,,,,,,,,,,,,,,,,,,,,,,,,,,,,,,,,,,,,,,,,,,,,,,,,,,,,,,,,,,,,,,,,,,,,,,,,,,,,,,,,,,,,,,,,,,,,,,,,,,,,,,,,,,,,,,,,,,,,,,,,,,,,,,,,,,,,,,,,,
,,67e54edf70d5a6b7026c95a2,2026-03-17_16h09.48.168,kallum_motion_pilot_GIST_update_2,2026.1.1,Win32,59.88023952,67e54edf70d5a6b7026c95a2,69b95efdef24cd8a694e89ee,69b960451f2ede6d61616b0a,0.0368,0.0368,0,107,107,59,1,twofour,,,,,,,,,,,,,,,,,,,,,,,,,,,,,,,,,,,,,,,,,,,,,,,,,,,,,,,,,,,,,,,,,,,,,,,,,,,,,,,,,,,,,,,,,,,,,,,,,,,,,,,,,,,,,,,,,,,,,,,,,,,,,,,,,,,,,,,,,
,,67e54edf70d5a6b7026c95a2,2026-03-17_16h09.48.168,kallum_motion_pilot_GIST_update_2,2026.1.1,Win32,59.88023952,67e54edf70d5a6b7026c95a2,69b95efdef24cd8a694e89ee,69b960451f2ede6d61616b0a,0.0369,0.0369,0,108,108,152,1,fivesix,,,,,,,,,,,,,,,,,,,,,,,,,,,,,,,,,,,,,,,,,,,,,,,,,,,,,,,,,,,,,,,,,,,,,,,,,,,,,,,,,,,,,,,,,,,,,,,,,,,,,,,,,,,,,,,,,,,,,,,,,,,,,,,,,,,,,,,,,
,,67e54edf70d5a6b7026c95a2,2026-03-17_16h09.48.168,kallum_motion_pilot_GIST_update_2,2026.1.1,Win32,59.88023952,67e54edf70d5a6b7026c95a2,69b95efdef24cd8a694e89ee,69b960451f2ede6d61616b0a,0.0371,0.0371,0,109,109,73,1,onethree,,,,,,,,,,,,,,,,,,,,,,,,,,,,,,,,,,,,,,,,,,,,,,,,,,,,,,,,,,,,,,,,,,,,,,,,,,,,,,,,,,,,,,,,,,,,,,,,,,,,,,,,,,,,,,,,,,,,,,,,,,,,,,,,,,,,,,,,,
,,67e54edf70d5a6b7026c95a2,2026-03-17_16h09.48.168,kallum_motion_pilot_GIST_update_2,2026.1.1,Win32,59.88023952,67e54edf70d5a6b7026c95a2,69b95efdef24cd8a694e89ee,69b960451f2ede6d61616b0a,0.0373,0.0373,0,110,110,49,1,onethree,,,,,,,,,,,,,,,,,,,,,,,,,,,,,,,,,,,,,,,,,,,,,,,,,,,,,,,,,,,,,,,,,,,,,,,,,,,,,,,,,,,,,,,,,,,,,,,,,,,,,,,,,,,,,,,,,,,,,,,,,,,,,,,,,,,,,,,,,
,,67e54edf70d5a6b7026c95a2,2026-03-17_16h09.48.168,kallum_motion_pilot_GIST_update_2,2026.1.1,Win32,59.88023952,67e54edf70d5a6b7026c95a2,69b95efdef24cd8a694e89ee,69b960451f2ede6d61616b0a,0.0374,0.0374,0,111,111,76,1,threeone,,,,,,,,,,,,,,,,,,,,,,,,,,,,,,,,,,,,,,,,,,,,,,,,,,,,,,,,,,,,,,,,,,,,,,,,,,,,,,,,,,,,,,,,,,,,,,,,,,,,,,,,,,,,,,,,,,,,,,,,,,,,,,,,,,,,,,,,,
,,67e54edf70d5a6b7026c95a2,2026-03-17_16h09.48.168,kallum_motion_pilot_GIST_update_2,2026.1.1,Win32,59.88023952,67e54edf70d5a6b7026c95a2,69b95efdef24cd8a694e89ee,69b960451f2ede6d61616b0a,0.0375,0.0375,0,112,112,57,1,onethree,,,,,,,,,,,,,,,,,,,,,,,,,,,,,,,,,,,,,,,,,,,,,,,,,,,,,,,,,,,,,,,,,,,,,,,,,,,,,,,,,,,,,,,,,,,,,,,,,,,,,,,,,,,,,,,,,,,,,,,,,,,,,,,,,,,,,,,,,
,,67e54edf70d5a6b7026c95a2,2026-03-17_16h09.48.168,kallum_motion_pilot_GIST_update_2,2026.1.1,Win32,59.88023952,67e54edf70d5a6b7026c95a2,69b95efdef24cd8a694e89ee,69b960451f2ede6d61616b0a,0.0378,0.0378,0,113,113,95,1,eightseven,,,,,,,,,,,,,,,,,,,,,,,,,,,,,,,,,,,,,,,,,,,,,,,,,,,,,,,,,,,,,,,,,,,,,,,,,,,,,,,,,,,,,,,,,,,,,,,,,,,,,,,,,,,,,,,,,,,,,,,,,,,,,,,,,,,,,,,,,
,,67e54edf70d5a6b7026c95a2,2026-03-17_16h09.48.168,kallum_motion_pilot_GIST_update_2,2026.1.1,Win32,59.88023952,67e54edf70d5a6b7026c95a2,69b95efdef24cd8a694e89ee,69b960451f2ede6d61616b0a,0.0379,0.0379,0,114,114,98,1,sixfive,,,,,,,,,,,,,,,,,,,,,,,,,,,,,,,,,,,,,,,,,,,,,,,,,,,,,,,,,,,,,,,,,,,,,,,,,,,,,,,,,,,,,,,,,,,,,,,,,,,,,,,,,,,,,,,,,,,,,,,,,,,,,,,,,,,,,,,,,
,,67e54edf70d5a6b7026c95a2,2026-03-17_16h09.48.168,kallum_motion_pilot_GIST_update_2,2026.1.1,Win32,59.88023952,67e54edf70d5a6b7026c95a2,69b95efdef24cd8a694e89ee,69b960451f2ede6d61616b0a,0.038,0.038,0,115,115,102,1,eightsix,,,,,,,,,,,,,,,,,,,,,,,,,,,,,,,,,,,,,,,,,,,,,,,,,,,,,,,,,,,,,,,,,,,,,,,,,,,,,,,,,,,,,,,,,,,,,,,,,,,,,,,,,,,,,,,,,,,,,,,,,,,,,,,,,,,,,,,,,
,,67e54edf70d5a6b7026c95a2,2026-03-17_16h09.48.168,kallum_motion_pilot_GIST_update_2,2026.1.1,Win32,59.88023952,67e54edf70d5a6b7026c95a2,69b95efdef24cd8a694e89ee,69b960451f2ede6d61616b0a,0.0381,0.0381,0,116,116,1,1,onethree,,,,,,,,,,,,,,,,,,,,,,,,,,,,,,,,,,,,,,,,,,,,,,,,,,,,,,,,,,,,,,,,,,,,,,,,,,,,,,,,,,,,,,,,,,,,,,,,,,,,,,,,,,,,,,,,,,,,,,,,,,,,,,,,,,,,,,,,,
,,67e54edf70d5a6b7026c95a2,2026-03-17_16h09.48.168,kallum_motion_pilot_GIST_update_2,2026.1.1,Win32,59.88023952,67e54edf70d5a6b7026c95a2,69b95efdef24cd8a694e89ee,69b960451f2ede6d61616b0a,0.0383,0.0383,0,117,117,138,1,sixfive,,,,,,,,,,,,,,,,,,,,,,,,,,,,,,,,,,,,,,,,,,,,,,,,,,,,,,,,,,,,,,,,,,,,,,,,,,,,,,,,,,,,,,,,,,,,,,,,,,,,,,,,,,,,,,,,,,,,,,,,,,,,,,,,,,,,,,,,,
,,67e54edf70d5a6b7026c95a2,2026-03-17_16h09.48.168,kallum_motion_pilot_GIST_update_2,2026.1.1,Win32,59.88023952,67e54edf70d5a6b7026c95a2,69b95efdef24cd8a694e89ee,69b960451f2ede6d61616b0a,0.0385,0.0385,0,118,118,30,1,fourtwo,,,,,,,,,,,,,,,,,,,,,,,,,,,,,,,,,,,,,,,,,,,,,,,,,,,,,,,,,,,,,,,,,,,,,,,,,,,,,,,,,,,,,,,,,,,,,,,,,,,,,,,,,,,,,,,,,,,,,,,,,,,,,,,,,,,,,,,,,
,,67e54edf70d5a6b7026c95a2,2026-03-17_16h09.48.168,kallum_motion_pilot_GIST_update_2,2026.1.1,Win32,59.88023952,67e54edf70d5a6b7026c95a2,69b95efdef24cd8a694e89ee,69b960451f2ede6d61616b0a,0.0386,0.0386,0,119,119,72,1,onetwo,,,,,,,,,,,,,,,,,,,,,,,,,,,,,,,,,,,,,,,,,,,,,,,,,,,,,,,,,,,,,,,,,,,,,,,,,,,,,,,,,,,,,,,,,,,,,,,,,,,,,,,,,,,,,,,,,,,,,,,,,,,,,,,,,,,,,,,,,
,,67e54edf70d5a6b7026c95a2,2026-03-17_16h09.48.168,kallum_motion_pilot_GIST_update_2,2026.1.1,Win32,59.88023952,67e54edf70d5a6b7026c95a2,69b95efdef24cd8a694e89ee,69b960451f2ede6d61616b0a,0.0387,0.0387,0,120,120,87,1,eightseven,,,,,,,,,,,,,,,,,,,,,,,,,,,,,,,,,,,,,,,,,,,,,,,,,,,,,,,,,,,,,,,,,,,,,,,,,,,,,,,,,,,,,,,,,,,,,,,,,,,,,,,,,,,,,,,,,,,,,,,,,,,,,,,,,,,,,,,,,
,,67e54edf70d5a6b7026c95a2,2026-03-17_16h09.48.168,kallum_motion_pilot_GIST_update_2,2026.1.1,Win32,59.88023952,67e54edf70d5a6b7026c95a2,69b95efdef24cd8a694e89ee,69b960451f2ede6d61616b0a,0.0389,0.0389,0,121,121,48,1,onetwo,,,,,,,,,,,,,,,,,,,,,,,,,,,,,,,,,,,,,,,,,,,,,,,,,,,,,,,,,,,,,,,,,,,,,,,,,,,,,,,,,,,,,,,,,,,,,,,,,,,,,,,,,,,,,,,,,,,,,,,,,,,,,,,,,,,,,,,,,
,,67e54edf70d5a6b7026c95a2,2026-03-17_16h09.48.168,kallum_motion_pilot_GIST_update_2,2026.1.1,Win32,59.88023952,67e54edf70d5a6b7026c95a2,69b95efdef24cd8a694e89ee,69b960451f2ede6d61616b0a,0.039,0.039,0,122,122,15,1,fourthree,,,,,,,,,,,,,,,,,,,,,,,,,,,,,,,,,,,,,,,,,,,,,,,,,,,,,,,,,,,,,,,,,,,,,,,,,,,,,,,,,,,,,,,,,,,,,,,,,,,,,,,,,,,,,,,,,,,,,,,,,,,,,,,,,,,,,,,,,
,,67e54edf70d5a6b7026c95a2,2026-03-17_16h09.48.168,kallum_motion_pilot_GIST_update_2,2026.1.1,Win32,59.88023952,67e54edf70d5a6b7026c95a2,69b95efdef24cd8a694e89ee,69b960451f2ede6d61616b0a,0.0393,0.0393,0,123,123,46,1,fourtwo,,,,,,,,,,,,,,,,,,,,,,,,,,,,,,,,,,,,,,,,,,,,,,,,,,,,,,,,,,,,,,,,,,,,,,,,,,,,,,,,,,,,,,,,,,,,,,,,,,,,,,,,,,,,,,,,,,,,,,,,,,,,,,,,,,,,,,,,,
,,67e54edf70d5a6b7026c95a2,2026-03-17_16h09.48.168,kallum_motion_pilot_GIST_update_2,2026.1.1,Win32,59.88023952,67e54edf70d5a6b7026c95a2,69b95efdef24cd8a694e89ee,69b960451f2ede6d61616b0a,0.0396,0.0396,0,124,124,136,1,fivesix,,,,,,,,,,,,,,,,,,,,,,,,,,,,,,,,,,,,,,,,,,,,,,,,,,,,,,,,,,,,,,,,,,,,,,,,,,,,,,,,,,,,,,,,,,,,,,,,,,,,,,,,,,,,,,,,,,,,,,,,,,,,,,,,,,,,,,,,,
,,67e54edf70d5a6b7026c95a2,2026-03-17_16h09.48.168,kallum_motion_pilot_GIST_update_2,2026.1.1,Win32,59.88023952,67e54edf70d5a6b7026c95a2,69b95efdef24cd8a694e89ee,69b960451f2ede6d61616b0a,0.0398,0.0398,0,125,125,116,1,sevenfive,,,,,,,,,,,,,,,,,,,,,,,,,,,,,,,,,,,,,,,,,,,,,,,,,,,,,,,,,,,,,,,,,,,,,,,,,,,,,,,,,,,,,,,,,,,,,,,,,,,,,,,,,,,,,,,,,,,,,,,,,,,,,,,,,,,,,,,,,
,,67e54edf70d5a6b7026c95a2,2026-03-17_16h09.48.168,kallum_motion_pilot_GIST_update_2,2026.1.1,Win32,59.88023952,67e54edf70d5a6b7026c95a2,69b95efdef24cd8a694e89ee,69b960451f2ede6d61616b0a,0.0401,0.0401,0,126,126,147,1,sixeight,,,,,,,,,,,,,,,,,,,,,,,,,,,,,,,,,,,,,,,,,,,,,,,,,,,,,,,,,,,,,,,,,,,,,,,,,,,,,,,,,,,,,,,,,,,,,,,,,,,,,,,,,,,,,,,,,,,,,,,,,,,,,,,,,,,,,,,,,
,,67e54edf70d5a6b7026c95a2,2026-03-17_16h09.48.168,kallum_motion_pilot_GIST_update_2,2026.1.1,Win32,59.88023952,67e54edf70d5a6b7026c95a2,69b95efdef24cd8a694e89ee,69b960451f2ede6d61616b0a,0.0402,0.0403,0,127,127,145,1,fiveseven,,,,,,,,,,,,,,,,,,,,,,,,,,,,,,,,,,,,,,,,,,,,,,,,,,,,,,,,,,,,,,,,,,,,,,,,,,,,,,,,,,,,,,,,,,,,,,,,,,,,,,,,,,,,,,,,,,,,,,,,,,,,,,,,,,,,,,,,,
,,67e54edf70d5a6b7026c95a2,2026-03-17_16h09.48.168,kallum_motion_pilot_GIST_update_2,2026.1.1,Win32,59.88023952,67e54edf70d5a6b7026c95a2,69b95efdef24cd8a694e89ee,69b960451f2ede6d61616b0a,0.0404,0.0404,0,128,128,54,1,fourtwo,,,,,,,,,,,,,,,,,,,,,,,,,,,,,,,,,,,,,,,,,,,,,,,,,,,,,,,,,,,,,,,,,,,,,,,,,,,,,,,,,,,,,,,,,,,,,,,,,,,,,,,,,,,,,,,,,,,,,,,,,,,,,,,,,,,,,,,,,
,,67e54edf70d5a6b7026c95a2,2026-03-17_16h09.48.168,kallum_motion_pilot_GIST_update_2,2026.1.1,Win32,59.88023952,67e54edf70d5a6b7026c95a2,69b95efdef24cd8a694e89ee,69b960451f2ede6d61616b0a,0.0406,0.0406,0,129,129,132,1,sevenfive,,,,,,,,,,,,,,,,,,,,,,,,,,,,,,,,,,,,,,,,,,,,,,,,,,,,,,,,,,,,,,,,,,,,,,,,,,,,,,,,,,,,,,,,,,,,,,,,,,,,,,,,,,,,,,,,,,,,,,,,,,,,,,,,,,,,,,,,,
,,67e54edf70d5a6b7026c95a2,2026-03-17_16h09.48.168,kallum_motion_pilot_GIST_update_2,2026.1.1,Win32,59.88023952,67e54edf70d5a6b7026c95a2,69b95efdef24cd8a694e89ee,69b960451f2ede6d61616b0a,0.0407,0.0407,0,130,130,103,1,eightseven,,,,,,,,,,,,,,,,,,,,,,,,,,,,,,,,,,,,,,,,,,,,,,,,,,,,,,,,,,,,,,,,,,,,,,,,,,,,,,,,,,,,,,,,,,,,,,,,,,,,,,,,,,,,,,,,,,,,,,,,,,,,,,,,,,,,,,,,,
,,67e54edf70d5a6b7026c95a2,2026-03-17_16h09.48.168,kallum_motion_pilot_GIST_update_2,2026.1.1,Win32,59.88023952,67e54edf70d5a6b7026c95a2,69b95efdef24cd8a694e89ee,69b960451f2ede6d61616b0a,0.0408,0.0408,0,131,131,159,1,eightseven,,,,,,,,,,,,,,,,,,,,,,,,,,,,,,,,,,,,,,,,,,,,,,,,,,,,,,,,,,,,,,,,,,,,,,,,,,,,,,,,,,,,,,,,,,,,,,,,,,,,,,,,,,,,,,,,,,,,,,,,,,,,,,,,,,,,,,,,,
,,67e54edf70d5a6b7026c95a2,2026-03-17_16h09.48.168,kallum_motion_pilot_GIST_update_2,2026.1.1,Win32,59.88023952,67e54edf70d5a6b7026c95a2,69b95efdef24cd8a694e89ee,69b960451f2ede6d61616b0a,0.0409,0.041,0,132,132,131,1,sixeight,,,,,,,,,,,,,,,,,,,,,,,,,,,,,,,,,,,,,,,,,,,,,,,,,,,,,,,,,,,,,,,,,,,,,,,,,,,,,,,,,,,,,,,,,,,,,,,,,,,,,,,,,,,,,,,,,,,,,,,,,,,,,,,,,,,,,,,,,
,,67e54edf70d5a6b7026c95a2,2026-03-17_16h09.48.168,kallum_motion_pilot_GIST_update_2,2026.1.1,Win32,59.88023952,67e54edf70d5a6b7026c95a2,69b95efdef24cd8a694e89ee,69b960451f2ede6d61616b0a,0.0411,0.0411,0,133,133,36,1,threeone,,,,,,,,,,,,,,,,,,,,,,,,,,,,,,,,,,,,,,,,,,,,,,,,,,,,,,,,,,,,,,,,,,,,,,,,,,,,,,,,,,,,,,,,,,,,,,,,,,,,,,,,,,,,,,,,,,,,,,,,,,,,,,,,,,,,,,,,,
,,67e54edf70d5a6b7026c95a2,2026-03-17_16h09.48.168,kallum_motion_pilot_GIST_update_2,2026.1.1,Win32,59.88023952,67e54edf70d5a6b7026c95a2,69b95efdef24cd8a694e89ee,69b960451f2ede6d61616b0a,0.0413,0.0413,0,134,134,78,1,fourtwo,,,,,,,,,,,,,,,,,,,,,,,,,,,,,,,,,,,,,,,,,,,,,,,,,,,,,,,,,,,,,,,,,,,,,,,,,,,,,,,,,,,,,,,,,,,,,,,,,,,,,,,,,,,,,,,,,,,,,,,,,,,,,,,,,,,,,,,,,
,,67e54edf70d5a6b7026c95a2,2026-03-17_16h09.48.168,kallum_motion_pilot_GIST_update_2,2026.1.1,Win32,59.88023952,67e54edf70d5a6b7026c95a2,69b95efdef24cd8a694e89ee,69b960451f2ede6d61616b0a,0.0414,0.0414,0,135,135,53,1,threefour,,,,,,,,,,,,,,,,,,,,,,,,,,,,,,,,,,,,,,,,,,,,,,,,,,,,,,,,,,,,,,,,,,,,,,,,,,,,,,,,,,,,,,,,,,,,,,,,,,,,,,,,,,,,,,,,,,,,,,,,,,,,,,,,,,,,,,,,,
,,67e54edf70d5a6b7026c95a2,2026-03-17_16h09.48.168,kallum_motion_pilot_GIST_update_2,2026.1.1,Win32,59.88023952,67e54edf70d5a6b7026c95a2,69b95efdef24cd8a694e89ee,69b960451f2ede6d61616b0a,0.0416,0.0416,0,136,136,14,1,fourtwo,,,,,,,,,,,,,,,,,,,,,,,,,,,,,,,,,,,,,,,,,,,,,,,,,,,,,,,,,,,,,,,,,,,,,,,,,,,,,,,,,,,,,,,,,,,,,,,,,,,,,,,,,,,,,,,,,,,,,,,,,,,,,,,,,,,,,,,,,
,,67e54edf70d5a6b7026c95a2,2026-03-17_16h09.48.168,kallum_motion_pilot_GIST_update_2,2026.1.1,Win32,59.88023952,67e54edf70d5a6b7026c95a2,69b95efdef24cd8a694e89ee,69b960451f2ede6d61616b0a,0.0417,0.0418,0,137,137,108,1,sevenfive,,,,,,,,,,,,,,,,,,,,,,,,,,,,,,,,,,,,,,,,,,,,,,,,,,,,,,,,,,,,,,,,,,,,,,,,,,,,,,,,,,,,,,,,,,,,,,,,,,,,,,,,,,,,,,,,,,,,,,,,,,,,,,,,,,,,,,,,,
,,67e54edf70d5a6b7026c95a2,2026-03-17_16h09.48.168,kallum_motion_pilot_GIST_update_2,2026.1.1,Win32,59.88023952,67e54edf70d5a6b7026c95a2,69b95efdef24cd8a694e89ee,69b960451f2ede6d61616b0a,0.0419,0.0419,0,138,138,51,1,twofour,,,,,,,,,,,,,,,,,,,,,,,,,,,,,,,,,,,,,,,,,,,,,,,,,,,,,,,,,,,,,,,,,,,,,,,,,,,,,,,,,,,,,,,,,,,,,,,,,,,,,,,,,,,,,,,,,,,,,,,,,,,,,,,,,,,,,,,,,
,,67e54edf70d5a6b7026c95a2,2026-03-17_16h09.48.168,kallum_motion_pilot_GIST_update_2,2026.1.1,Win32,59.88023952,67e54edf70d5a6b7026c95a2,69b95efdef24cd8a694e89ee,69b960451f2ede6d61616b0a,0.0421,0.0421,0,139,139,153,1,fiveseven,,,,,,,,,,,,,,,,,,,,,,,,,,,,,,,,,,,,,,,,,,,,,,,,,,,,,,,,,,,,,,,,,,,,,,,,,,,,,,,,,,,,,,,,,,,,,,,,,,,,,,,,,,,,,,,,,,,,,,,,,,,,,,,,,,,,,,,,,
,,67e54edf70d5a6b7026c95a2,2026-03-17_16h09.48.168,kallum_motion_pilot_GIST_update_2,2026.1.1,Win32,59.88023952,67e54edf70d5a6b7026c95a2,69b95efdef24cd8a694e89ee,69b960451f2ede6d61616b0a,0.0422,0.0422,0,140,140,24,1,onetwo,,,,,,,,,,,,,,,,,,,,,,,,,,,,,,,,,,,,,,,,,,,,,,,,,,,,,,,,,,,,,,,,,,,,,,,,,,,,,,,,,,,,,,,,,,,,,,,,,,,,,,,,,,,,,,,,,,,,,,,,,,,,,,,,,,,,,,,,,
,,67e54edf70d5a6b7026c95a2,2026-03-17_16h09.48.168,kallum_motion_pilot_GIST_update_2,2026.1.1,Win32,59.88023952,67e54edf70d5a6b7026c95a2,69b95efdef24cd8a694e89ee,69b960451f2ede6d61616b0a,0.0424,0.0424,0,141,141,148,1,sevenfive,,,,,,,,,,,,,,,,,,,,,,,,,,,,,,,,,,,,,,,,,,,,,,,,,,,,,,,,,,,,,,,,,,,,,,,,,,,,,,,,,,,,,,,,,,,,,,,,,,,,,,,,,,,,,,,,,,,,,,,,,,,,,,,,,,,,,,,,,
,,67e54edf70d5a6b7026c95a2,2026-03-17_16h09.48.168,kallum_motion_pilot_GIST_update_2,2026.1.1,Win32,59.88023952,67e54edf70d5a6b7026c95a2,69b95efdef24cd8a694e89ee,69b960451f2ede6d61616b0a,0.0424,0.0424,0,142,142,88,1,fivesix,,,,,,,,,,,,,,,,,,,,,,,,,,,,,,,,,,,,,,,,,,,,,,,,,,,,,,,,,,,,,,,,,,,,,,,,,,,,,,,,,,,,,,,,,,,,,,,,,,,,,,,,,,,,,,,,,,,,,,,,,,,,,,,,,,,,,,,,,
,,67e54edf70d5a6b7026c95a2,2026-03-17_16h09.48.168,kallum_motion_pilot_GIST_update_2,2026.1.1,Win32,59.88023952,67e54edf70d5a6b7026c95a2,69b95efdef24cd8a694e89ee,69b960451f2ede6d61616b0a,0.0426,0.0426,0,143,143,33,1,onethree,,,,,,,,,,,,,,,,,,,,,,,,,,,,,,,,,,,,,,,,,,,,,,,,,,,,,,,,,,,,,,,,,,,,,,,,,,,,,,,,,,,,,,,,,,,,,,,,,,,,,,,,,,,,,,,,,,,,,,,,,,,,,,,,,,,,,,,,,
,,67e54edf70d5a6b7026c95a2,2026-03-17_16h09.48.168,kallum_motion_pilot_GIST_update_2,2026.1.1,Win32,59.88023952,67e54edf70d5a6b7026c95a2,69b95efdef24cd8a694e89ee,69b960451f2ede6d61616b0a,0.0428,0.0428,0,144,144,22,1,fourtwo,,,,,,,,,,,,,,,,,,,,,,,,,,,,,,,,,,,,,,,,,,,,,,,,,,,,,,,,,,,,,,,,,,,,,,,,,,,,,,,,,,,,,,,,,,,,,,,,,,,,,,,,,,,,,,,,,,,,,,,,,,,,,,,,,,,,,,,,,
,,67e54edf70d5a6b7026c95a2,2026-03-17_16h09.48.168,kallum_motion_pilot_GIST_update_2,2026.1.1,Win32,59.88023952,67e54edf70d5a6b7026c95a2,69b95efdef24cd8a694e89ee,69b960451f2ede6d61616b0a,0.0429,0.0429,0,145,145,5,1,threefour,,,,,,,,,,,,,,,,,,,,,,,,,,,,,,,,,,,,,,,,,,,,,,,,,,,,,,,,,,,,,,,,,,,,,,,,,,,,,,,,,,,,,,,,,,,,,,,,,,,,,,,,,,,,,,,,,,,,,,,,,,,,,,,,,,,,,,,,,
,,67e54edf70d5a6b7026c95a2,2026-03-17_16h09.48.168,kallum_motion_pilot_GIST_update_2,2026.1.1,Win32,59.88023952,67e54edf70d5a6b7026c95a2,69b95efdef24cd8a694e89ee,69b960451f2ede6d61616b0a,0.0429,0.0429,0,146,146,37,1,threefour,,,,,,,,,,,,,,,,,,,,,,,,,,,,,,,,,,,,,,,,,,,,,,,,,,,,,,,,,,,,,,,,,,,,,,,,,,,,,,,,,,,,,,,,,,,,,,,,,,,,,,,,,,,,,,,,,,,,,,,,,,,,,,,,,,,,,,,,,
,,67e54edf70d5a6b7026c95a2,2026-03-17_16h09.48.168,kallum_motion_pilot_GIST_update_2,2026.1.1,Win32,59.88023952,67e54edf70d5a6b7026c95a2,69b95efdef24cd8a694e89ee,69b960451f2ede6d61616b0a,0.0431,0.0431,0,147,147,75,1,twofour,,,,,,,,,,,,,,,,,,,,,,,,,,,,,,,,,,,,,,,,,,,,,,,,,,,,,,,,,,,,,,,,,,,,,,,,,,,,,,,,,,,,,,,,,,,,,,,,,,,,,,,,,,,,,,,,,,,,,,,,,,,,,,,,,,,,,,,,,
,,67e54edf70d5a6b7026c95a2,2026-03-17_16h09.48.168,kallum_motion_pilot_GIST_update_2,2026.1.1,Win32,59.88023952,67e54edf70d5a6b7026c95a2,69b95efdef24cd8a694e89ee,69b960451f2ede6d61616b0a,0.0433,0.0433,0,148,148,120,1,fivesix,,,,,,,,,,,,,,,,,,,,,,,,,,,,,,,,,,,,,,,,,,,,,,,,,,,,,,,,,,,,,,,,,,,,,,,,,,,,,,,,,,,,,,,,,,,,,,,,,,,,,,,,,,,,,,,,,,,,,,,,,,,,,,,,,,,,,,,,,
,,67e54edf70d5a6b7026c95a2,2026-03-17_16h09.48.168,kallum_motion_pilot_GIST_update_2,2026.1.1,Win32,59.88023952,67e54edf70d5a6b7026c95a2,69b95efdef24cd8a694e89ee,69b960451f2ede6d61616b0a,0.0434,0.0434,0,149,149,104,1,fivesix,,,,,,,,,,,,,,,,,,,,,,,,,,,,,,,,,,,,,,,,,,,,,,,,,,,,,,,,,,,,,,,,,,,,,,,,,,,,,,,,,,,,,,,,,,,,,,,,,,,,,,,,,,,,,,,,,,,,,,,,,,,,,,,,,,,,,,,,,
,,67e54edf70d5a6b7026c95a2,2026-03-17_16h09.48.168,kallum_motion_pilot_GIST_update_2,2026.1.1,Win32,59.88023952,67e54edf70d5a6b7026c95a2,69b95efdef24cd8a694e89ee,69b960451f2ede6d61616b0a,0.0435,0.0435,0,150,150,79,1,eightseven,,,,,,,,,,,,,,,,,,,,,,,,,,,,,,,,,,,,,,,,,,,,,,,,,,,,,,,,,,,,,,,,,,,,,,,,,,,,,,,,,,,,,,,,,,,,,,,,,,,,,,,,,,,,,,,,,,,,,,,,,,,,,,,,,,,,,,,,,
,,67e54edf70d5a6b7026c95a2,2026-03-17_16h09.48.168,kallum_motion_pilot_GIST_update_2,2026.1.1,Win32,59.88023952,67e54edf70d5a6b7026c95a2,69b95efdef24cd8a694e89ee,69b960451f2ede6d61616b0a,0.0437,0.0437,0,151,151,125,1,seveneight,,,,,,,,,,,,,,,,,,,,,,,,,,,,,,,,,,,,,,,,,,,,,,,,,,,,,,,,,,,,,,,,,,,,,,,,,,,,,,,,,,,,,,,,,,,,,,,,,,,,,,,,,,,,,,,,,,,,,,,,,,,,,,,,,,,,,,,,,
,,67e54edf70d5a6b7026c95a2,2026-03-17_16h09.48.168,kallum_motion_pilot_GIST_update_2,2026.1.1,Win32,59.88023952,67e54edf70d5a6b7026c95a2,69b95efdef24cd8a694e89ee,69b960451f2ede6d61616b0a,0.0438,0.0438,0,152,152,105,1,fiveseven,,,,,,,,,,,,,,,,,,,,,,,,,,,,,,,,,,,,,,,,,,,,,,,,,,,,,,,,,,,,,,,,,,,,,,,,,,,,,,,,,,,,,,,,,,,,,,,,,,,,,,,,,,,,,,,,,,,,,,,,,,,,,,,,,,,,,,,,,
,,67e54edf70d5a6b7026c95a2,2026-03-17_16h09.48.168,kallum_motion_pilot_GIST_update_2,2026.1.1,Win32,59.88023952,67e54edf70d5a6b7026c95a2,69b95efdef24cd8a694e89ee,69b960451f2ede6d61616b0a,0.044,0.044,0,153,153,157,1,seveneight,,,,,,,,,,,,,,,,,,,,,,,,,,,,,,,,,,,,,,,,,,,,,,,,,,,,,,,,,,,,,,,,,,,,,,,,,,,,,,,,,,,,,,,,,,,,,,,,,,,,,,,,,,,,,,,,,,,,,,,,,,,,,,,,,,,,,,,,,
,,67e54edf70d5a6b7026c95a2,2026-03-17_16h09.48.168,kallum_motion_pilot_GIST_update_2,2026.1.1,Win32,59.88023952,67e54edf70d5a6b7026c95a2,69b95efdef24cd8a694e89ee,69b960451f2ede6d61616b0a,0.0442,0.0442,0,154,154,21,1,threefour,,,,,,,,,,,,,,,,,,,,,,,,,,,,,,,,,,,,,,,,,,,,,,,,,,,,,,,,,,,,,,,,,,,,,,,,,,,,,,,,,,,,,,,,,,,,,,,,,,,,,,,,,,,,,,,,,,,,,,,,,,,,,,,,,,,,,,,,,
,,67e54edf70d5a6b7026c95a2,2026-03-17_16h09.48.168,kallum_motion_pilot_GIST_update_2,2026.1.1,Win32,59.88023952,67e54edf70d5a6b7026c95a2,69b95efdef24cd8a694e89ee,69b960451f2ede6d61616b0a,0.0443,0.0443,0,155,155,123,1,sixeight,,,,,,,,,,,,,,,,,,,,,,,,,,,,,,,,,,,,,,,,,,,,,,,,,,,,,,,,,,,,,,,,,,,,,,,,,,,,,,,,,,,,,,,,,,,,,,,,,,,,,,,,,,,,,,,,,,,,,,,,,,,,,,,,,,,,,,,,,
,,67e54edf70d5a6b7026c95a2,2026-03-17_16h09.48.168,kallum_motion_pilot_GIST_update_2,2026.1.1,Win32,59.88023952,67e54edf70d5a6b7026c95a2,69b95efdef24cd8a694e89ee,69b960451f2ede6d61616b0a,0.0443,0.0444,0,156,156,84,1,sevenfive,,,,,,,,,,,,,,,,,,,,,,,,,,,,,,,,,,,,,,,,,,,,,,,,,,,,,,,,,,,,,,,,,,,,,,,,,,,,,,,,,,,,,,,,,,,,,,,,,,,,,,,,,,,,,,,,,,,,,,,,,,,,,,,,,,,,,,,,,
,,67e54edf70d5a6b7026c95a2,2026-03-17_16h09.48.168,kallum_motion_pilot_GIST_update_2,2026.1.1,Win32,59.88023952,67e54edf70d5a6b7026c95a2,69b95efdef24cd8a694e89ee,69b960451f2ede6d61616b0a,0.0446,0.0446,0,157,157,89,1,fiveseven,,,,,,,,,,,,,,,,,,,,,,,,,,,,,,,,,,,,,,,,,,,,,,,,,,,,,,,,,,,,,,,,,,,,,,,,,,,,,,,,,,,,,,,,,,,,,,,,,,,,,,,,,,,,,,,,,,,,,,,,,,,,,,,,,,,,,,,,,
,,67e54edf70d5a6b7026c95a2,2026-03-17_16h09.48.168,kallum_motion_pilot_GIST_update_2,2026.1.1,Win32,59.88023952,67e54edf70d5a6b7026c95a2,69b95efdef24cd8a694e89ee,69b960451f2ede6d61616b0a,0.0447,0.0447,0,158,158,139,1,sixeight,,,,,,,,,,,,,,,,,,,,,,,,,,,,,,,,,,,,,,,,,,,,,,,,,,,,,,,,,,,,,,,,,,,,,,,,,,,,,,,,,,,,,,,,,,,,,,,,,,,,,,,,,,,,,,,,,,,,,,,,,,,,,,,,,,,,,,,,,
,,67e54edf70d5a6b7026c95a2,2026-03-17_16h09.48.168,kallum_motion_pilot_GIST_update_2,2026.1.1,Win32,59.88023952,67e54edf70d5a6b7026c95a2,69b95efdef24cd8a694e89ee,69b960451f2ede6d61616b0a,0.0449,0.0449,0,159,159,127,1,eightseven,,,,,,,,,,,,,,,,,,,,,,,,,,,,,,,,,,,,,,,,,,,,,,,,,,,,,,,,,,,,,,,,,,,,,,,,,,,,,,,,,,,,,,,,,,,,,,,,,,,,,,,,,,,,,,,,,,,,,,,,,,,,,,,,,,,,,,,,,
,,67e54edf70d5a6b7026c95a2,2026-03-17_16h09.48.168,kallum_motion_pilot_GIST_update_2,2026.1.1,Win32,59.88023952,67e54edf70d5a6b7026c95a2,69b95efdef24cd8a694e89ee,69b960451f2ede6d61616b0a,0.045,0.045,0,160,160,29,1,threefour,,,,,,,,,,,,,,,,,,,,,,,,,,,,,,,,,,,,,,,,,,,,,,,,,,,,,,,,,,,,,,,,,,,,,,,,,,,,,,,,,,,,,,,,,,,,,,,,,,,,,,,,,,,,,,,,,,,,,,,,,,,,,,,,,,,,,,,,,
,,67e54edf70d5a6b7026c95a2,2026-03-17_16h09.48.168,kallum_motion_pilot_GIST_update_2,2026.1.1,Win32,59.88023952,67e54edf70d5a6b7026c95a2,69b95efdef24cd8a694e89ee,69b960451f2ede6d61616b0a,0.0452,0.0452,0,161,161,86,1,eightsix,,,,,,,,,,,,,,,,,,,,,,,,,,,,,,,,,,,,,,,,,,,,,,,,,,,,,,,,,,,,,,,,,,,,,,,,,,,,,,,,,,,,,,,,,,,,,,,,,,,,,,,,,,,,,,,,,,,,,,,,,,,,,,,,,,,,,,,,,
,,67e54edf70d5a6b7026c95a2,2026-03-17_16h09.48.168,kallum_motion_pilot_GIST_update_2,2026.1.1,Win32,59.88023952,67e54edf70d5a6b7026c95a2,69b95efdef24cd8a694e89ee,69b960451f2ede6d61616b0a,0.0453,0.0453,1,0,162,7,1,fourthree,,,,,,,,,,,,,,,,,,,,,,,,,,,,,,,,,,,,,,,,,,,,,,,,,,,,,,,,,,,,,,,,,,,,,,,,,,,,,,,,,,,,,,,,,,,,,,,,,,,,,,,,,,,,,,,,,,,,,,,,,,,,,,,,,,,,,,,,,
,,67e54edf70d5a6b7026c95a2,2026-03-17_16h09.48.168,kallum_motion_pilot_GIST_update_2,2026.1.1,Win32,59.88023952,67e54edf70d5a6b7026c95a2,69b95efdef24cd8a694e89ee,69b960451f2ede6d61616b0a,0.0455,0.0455,1,1,163,140,1,sevenfive,,,,,,,,,,,,,,,,,,,,,,,,,,,,,,,,,,,,,,,,,,,,,,,,,,,,,,,,,,,,,,,,,,,,,,,,,,,,,,,,,,,,,,,,,,,,,,,,,,,,,,,,,,,,,,,,,,,,,,,,,,,,,,,,,,,,,,,,,
,,67e54edf70d5a6b7026c95a2,2026-03-17_16h09.48.168,kallum_motion_pilot_GIST_update_2,2026.1.1,Win32,59.88023952,67e54edf70d5a6b7026c95a2,69b95efdef24cd8a694e89ee,69b960451f2ede6d61616b0a,0.0456,0.0456,1,2,164,96,1,fivesix,,,,,,,,,,,,,,,,,,,,,,,,,,,,,,,,,,,,,,,,,,,,,,,,,,,,,,,,,,,,,,,,,,,,,,,,,,,,,,,,,,,,,,,,,,,,,,,,,,,,,,,,,,,,,,,,,,,,,,,,,,,,,,,,,,,,,,,,,
,,67e54edf70d5a6b7026c95a2,2026-03-17_16h09.48.168,kallum_motion_pilot_GIST_update_2,2026.1.1,Win32,59.88023952,67e54edf70d5a6b7026c95a2,69b95efdef24cd8a694e89ee,69b960451f2ede6d61616b0a,0.0459,0.0459,1,3,165,83,1,sixeight,,,,,,,,,,,,,,,,,,,,,,,,,,,,,,,,,,,,,,,,,,,,,,,,,,,,,,,,,,,,,,,,,,,,,,,,,,,,,,,,,,,,,,,,,,,,,,,,,,,,,,,,,,,,,,,,,,,,,,,,,,,,,,,,,,,,,,,,,
,,67e54edf70d5a6b7026c95a2,2026-03-17_16h09.48.168,kallum_motion_pilot_GIST_update_2,2026.1.1,Win32,59.88023952,67e54edf70d5a6b7026c95a2,69b95efdef24cd8a694e89ee,69b960451f2ede6d61616b0a,0.046,0.046,1,4,166,45,1,threefour,,,,,,,,,,,,,,,,,,,,,,,,,,,,,,,,,,,,,,,,,,,,,,,,,,,,,,,,,,,,,,,,,,,,,,,,,,,,,,,,,,,,,,,,,,,,,,,,,,,,,,,,,,,,,,,,,,,,,,,,,,,,,,,,,,,,,,,,,
,,67e54edf70d5a6b7026c95a2,2026-03-17_16h09.48.168,kallum_motion_pilot_GIST_update_2,2026.1.1,Win32,59.88023952,67e54edf70d5a6b7026c95a2,69b95efdef24cd8a694e89ee,69b960451f2ede6d61616b0a,0.0461,0.0461,1,5,167,107,1,sixeight,,,,,,,,,,,,,,,,,,,,,,,,,,,,,,,,,,,,,,,,,,,,,,,,,,,,,,,,,,,,,,,,,,,,,,,,,,,,,,,,,,,,,,,,,,,,,,,,,,,,,,,,,,,,,,,,,,,,,,,,,,,,,,,,,,,,,,,,,
,,67e54edf70d5a6b7026c95a2,2026-03-17_16h09.48.168,kallum_motion_pilot_GIST_update_2,2026.1.1,Win32,59.88023952,67e54edf70d5a6b7026c95a2,69b95efdef24cd8a694e89ee,69b960451f2ede6d61616b0a,0.0463,0.0463,1,6,168,72,1,onetwo,,,,,,,,,,,,,,,,,,,,,,,,,,,,,,,,,,,,,,,,,,,,,,,,,,,,,,,,,,,,,,,,,,,,,,,,,,,,,,,,,,,,,,,,,,,,,,,,,,,,,,,,,,,,,,,,,,,,,,,,,,,,,,,,,,,,,,,,,
,,67e54edf70d5a6b7026c95a2,2026-03-17_16h09.48.168,kallum_motion_pilot_GIST_update_2,2026.1.1,Win32,59.88023952,67e54edf70d5a6b7026c95a2,69b95efdef24cd8a694e89ee,69b960451f2ede6d61616b0a,0.0464,0.0464,1,7,169,157,1,seveneight,,,,,,,,,,,,,,,,,,,,,,,,,,,,,,,,,,,,,,,,,,,,,,,,,,,,,,,,,,,,,,,,,,,,,,,,,,,,,,,,,,,,,,,,,,,,,,,,,,,,,,,,,,,,,,,,,,,,,,,,,,,,,,,,,,,,,,,,,
,,67e54edf70d5a6b7026c95a2,2026-03-17_16h09.48.168,kallum_motion_pilot_GIST_update_2,2026.1.1,Win32,59.88023952,67e54edf70d5a6b7026c95a2,69b95efdef24cd8a694e89ee,69b960451f2ede6d61616b0a,0.0466,0.0466,1,8,170,87,1,eightseven,,,,,,,,,,,,,,,,,,,,,,,,,,,,,,,,,,,,,,,,,,,,,,,,,,,,,,,,,,,,,,,,,,,,,,,,,,,,,,,,,,,,,,,,,,,,,,,,,,,,,,,,,,,,,,,,,,,,,,,,,,,,,,,,,,,,,,,,,
,,67e54edf70d5a6b7026c95a2,2026-03-17_16h09.48.168,kallum_motion_pilot_GIST_update_2,2026.1.1,Win32,59.88023952,67e54edf70d5a6b7026c95a2,69b95efdef24cd8a694e89ee,69b960451f2ede6d61616b0a,0.0466,0.0466,1,9,171,59,1,twofour,,,,,,,,,,,,,,,,,,,,,,,,,,,,,,,,,,,,,,,,,,,,,,,,,,,,,,,,,,,,,,,,,,,,,,,,,,,,,,,,,,,,,,,,,,,,,,,,,,,,,,,,,,,,,,,,,,,,,,,,,,,,,,,,,,,,,,,,,
,,67e54edf70d5a6b7026c95a2,2026-03-17_16h09.48.168,kallum_motion_pilot_GIST_update_2,2026.1.1,Win32,59.88023952,67e54edf70d5a6b7026c95a2,69b95efdef24cd8a694e89ee,69b960451f2ede6d61616b0a,0.0469,0.0469,1,10,172,62,1,fourtwo,,,,,,,,,,,,,,,,,,,,,,,,,,,,,,,,,,,,,,,,,,,,,,,,,,,,,,,,,,,,,,,,,,,,,,,,,,,,,,,,,,,,,,,,,,,,,,,,,,,,,,,,,,,,,,,,,,,,,,,,,,,,,,,,,,,,,,,,,
,,67e54edf70d5a6b7026c95a2,2026-03-17_16h09.48.168,kallum_motion_pilot_GIST_update_2,2026.1.1,Win32,59.88023952,67e54edf70d5a6b7026c95a2,69b95efdef24cd8a694e89ee,69b960451f2ede6d61616b0a,0.0469,0.0469,1,11,173,154,1,sixfive,,,,,,,,,,,,,,,,,,,,,,,,,,,,,,,,,,,,,,,,,,,,,,,,,,,,,,,,,,,,,,,,,,,,,,,,,,,,,,,,,,,,,,,,,,,,,,,,,,,,,,,,,,,,,,,,,,,,,,,,,,,,,,,,,,,,,,,,,
,,67e54edf70d5a6b7026c95a2,2026-03-17_16h09.48.168,kallum_motion_pilot_GIST_update_2,2026.1.1,Win32,59.88023952,67e54edf70d5a6b7026c95a2,69b95efdef24cd8a694e89ee,69b960451f2ede6d61616b0a,0.0471,0.0472,1,12,174,38,1,fourtwo,,,,,,,,,,,,,,,,,,,,,,,,,,,,,,,,,,,,,,,,,,,,,,,,,,,,,,,,,,,,,,,,,,,,,,,,,,,,,,,,,,,,,,,,,,,,,,,,,,,,,,,,,,,,,,,,,,,,,,,,,,,,,,,,,,,,,,,,,
,,67e54edf70d5a6b7026c95a2,2026-03-17_16h09.48.168,kallum_motion_pilot_GIST_update_2,2026.1.1,Win32,59.88023952,67e54edf70d5a6b7026c95a2,69b95efdef24cd8a694e89ee,69b960451f2ede6d61616b0a,0.0473,0.0473,1,13,175,110,1,eightsix,,,,,,,,,,,,,,,,,,,,,,,,,,,,,,,,,,,,,,,,,,,,,,,,,,,,,,,,,,,,,,,,,,,,,,,,,,,,,,,,,,,,,,,,,,,,,,,,,,,,,,,,,,,,,,,,,,,,,,,,,,,,,,,,,,,,,,,,,
,,67e54edf70d5a6b7026c95a2,2026-03-17_16h09.48.168,kallum_motion_pilot_GIST_update_2,2026.1.1,Win32,59.88023952,67e54edf70d5a6b7026c95a2,69b95efdef24cd8a694e89ee,69b960451f2ede6d61616b0a,0.0474,0.0474,1,14,176,81,1,fiveseven,,,,,,,,,,,,,,,,,,,,,,,,,,,,,,,,,,,,,,,,,,,,,,,,,,,,,,,,,,,,,,,,,,,,,,,,,,,,,,,,,,,,,,,,,,,,,,,,,,,,,,,,,,,,,,,,,,,,,,,,,,,,,,,,,,,,,,,,,
,,67e54edf70d5a6b7026c95a2,2026-03-17_16h09.48.168,kallum_motion_pilot_GIST_update_2,2026.1.1,Win32,59.88023952,67e54edf70d5a6b7026c95a2,69b95efdef24cd8a694e89ee,69b960451f2ede6d61616b0a,0.0476,0.0476,1,15,177,25,1,onethree,,,,,,,,,,,,,,,,,,,,,,,,,,,,,,,,,,,,,,,,,,,,,,,,,,,,,,,,,,,,,,,,,,,,,,,,,,,,,,,,,,,,,,,,,,,,,,,,,,,,,,,,,,,,,,,,,,,,,,,,,,,,,,,,,,,,,,,,,
,,67e54edf70d5a6b7026c95a2,2026-03-17_16h09.48.168,kallum_motion_pilot_GIST_update_2,2026.1.1,Win32,59.88023952,67e54edf70d5a6b7026c95a2,69b95efdef24cd8a694e89ee,69b960451f2ede6d61616b0a,0.0476,0.0476,1,16,178,31,1,fourthree,,,,,,,,,,,,,,,,,,,,,,,,,,,,,,,,,,,,,,,,,,,,,,,,,,,,,,,,,,,,,,,,,,,,,,,,,,,,,,,,,,,,,,,,,,,,,,,,,,,,,,,,,,,,,,,,,,,,,,,,,,,,,,,,,,,,,,,,,
,,67e54edf70d5a6b7026c95a2,2026-03-17_16h09.48.168,kallum_motion_pilot_GIST_update_2,2026.1.1,Win32,59.88023952,67e54edf70d5a6b7026c95a2,69b95efdef24cd8a694e89ee,69b960451f2ede6d61616b0a,0.0479,0.0479,1,17,179,115,1,sixeight,,,,,,,,,,,,,,,,,,,,,,,,,,,,,,,,,,,,,,,,,,,,,,,,,,,,,,,,,,,,,,,,,,,,,,,,,,,,,,,,,,,,,,,,,,,,,,,,,,,,,,,,,,,,,,,,,,,,,,,,,,,,,,,,,,,,,,,,,
,,67e54edf70d5a6b7026c95a2,2026-03-17_16h09.48.168,kallum_motion_pilot_GIST_update_2,2026.1.1,Win32,59.88023952,67e54edf70d5a6b7026c95a2,69b95efdef24cd8a694e89ee,69b960451f2ede6d61616b0a,0.0479,0.0479,1,18,180,76,1,threeone,,,,,,,,,,,,,,,,,,,,,,,,,,,,,,,,,,,,,,,,,,,,,,,,,,,,,,,,,,,,,,,,,,,,,,,,,,,,,,,,,,,,,,,,,,,,,,,,,,,,,,,,,,,,,,,,,,,,,,,,,,,,,,,,,,,,,,,,,
,,67e54edf70d5a6b7026c95a2,2026-03-17_16h09.48.168,kallum_motion_pilot_GIST_update_2,2026.1.1,Win32,59.88023952,67e54edf70d5a6b7026c95a2,69b95efdef24cd8a694e89ee,69b960451f2ede6d61616b0a,0.0481,0.0481,1,19,181,145,1,fiveseven,,,,,,,,,,,,,,,,,,,,,,,,,,,,,,,,,,,,,,,,,,,,,,,,,,,,,,,,,,,,,,,,,,,,,,,,,,,,,,,,,,,,,,,,,,,,,,,,,,,,,,,,,,,,,,,,,,,,,,,,,,,,,,,,,,,,,,,,,
,,67e54edf70d5a6b7026c95a2,2026-03-17_16h09.48.168,kallum_motion_pilot_GIST_update_2,2026.1.1,Win32,59.88023952,67e54edf70d5a6b7026c95a2,69b95efdef24cd8a694e89ee,69b960451f2ede6d61616b0a,0.0483,0.0483,1,20,182,58,1,twoone,,,,,,,,,,,,,,,,,,,,,,,,,,,,,,,,,,,,,,,,,,,,,,,,,,,,,,,,,,,,,,,,,,,,,,,,,,,,,,,,,,,,,,,,,,,,,,,,,,,,,,,,,,,,,,,,,,,,,,,,,,,,,,,,,,,,,,,,,
,,67e54edf70d5a6b7026c95a2,2026-03-17_16h09.48.168,kallum_motion_pilot_GIST_update_2,2026.1.1,Win32,59.88023952,67e54edf70d5a6b7026c95a2,69b95efdef24cd8a694e89ee,69b960451f2ede6d61616b0a,0.0483,0.0483,1,21,183,5,1,threefour,,,,,,,,,,,,,,,,,,,,,,,,,,,,,,,,,,,,,,,,,,,,,,,,,,,,,,,,,,,,,,,,,,,,,,,,,,,,,,,,,,,,,,,,,,,,,,,,,,,,,,,,,,,,,,,,,,,,,,,,,,,,,,,,,,,,,,,,,
,,67e54edf70d5a6b7026c95a2,2026-03-17_16h09.48.168,kallum_motion_pilot_GIST_update_2,2026.1.1,Win32,59.88023952,67e54edf70d5a6b7026c95a2,69b95efdef24cd8a694e89ee,69b960451f2ede6d61616b0a,0.0485,0.0485,1,22,184,148,1,sevenfive,,,,,,,,,,,,,,,,,,,,,,,,,,,,,,,,,,,,,,,,,,,,,,,,,,,,,,,,,,,,,,,,,,,,,,,,,,,,,,,,,,,,,,,,,,,,,,,,,,,,,,,,,,,,,,,,,,,,,,,,,,,,,,,,,,,,,,,,,
,,67e54edf70d5a6b7026c95a2,2026-03-17_16h09.48.168,kallum_motion_pilot_GIST_update_2,2026.1.1,Win32,59.88023952,67e54edf70d5a6b7026c95a2,69b95efdef24cd8a694e89ee,69b960451f2ede6d61616b0a,0.0487,0.0487,1,23,185,133,1,seveneight,,,,,,,,,,,,,,,,,,,,,,,,,,,,,,,,,,,,,,,,,,,,,,,,,,,,,,,,,,,,,,,,,,,,,,,,,,,,,,,,,,,,,,,,,,,,,,,,,,,,,,,,,,,,,,,,,,,,,,,,,,,,,,,,,,,,,,,,,
,,67e54edf70d5a6b7026c95a2,2026-03-17_16h09.48.168,kallum_motion_pilot_GIST_update_2,2026.1.1,Win32,59.88023952,67e54edf70d5a6b7026c95a2,69b95efdef24cd8a694e89ee,69b960451f2ede6d61616b0a,0.0489,0.0489,1,24,186,158,1,eightsix,,,,,,,,,,,,,,,,,,,,,,,,,,,,,,,,,,,,,,,,,,,,,,,,,,,,,,,,,,,,,,,,,,,,,,,,,,,,,,,,,,,,,,,,,,,,,,,,,,,,,,,,,,,,,,,,,,,,,,,,,,,,,,,,,,,,,,,,,
,,67e54edf70d5a6b7026c95a2,2026-03-17_16h09.48.168,kallum_motion_pilot_GIST_update_2,2026.1.1,Win32,59.88023952,67e54edf70d5a6b7026c95a2,69b95efdef24cd8a694e89ee,69b960451f2ede6d61616b0a,0.0491,0.0491,1,25,187,77,1,threefour,,,,,,,,,,,,,,,,,,,,,,,,,,,,,,,,,,,,,,,,,,,,,,,,,,,,,,,,,,,,,,,,,,,,,,,,,,,,,,,,,,,,,,,,,,,,,,,,,,,,,,,,,,,,,,,,,,,,,,,,,,,,,,,,,,,,,,,,,
,,67e54edf70d5a6b7026c95a2,2026-03-17_16h09.48.168,kallum_motion_pilot_GIST_update_2,2026.1.1,Win32,59.88023952,67e54edf70d5a6b7026c95a2,69b95efdef24cd8a694e89ee,69b960451f2ede6d61616b0a,0.0494,0.0494,1,26,188,161,1,fiveseven,,,,,,,,,,,,,,,,,,,,,,,,,,,,,,,,,,,,,,,,,,,,,,,,,,,,,,,,,,,,,,,,,,,,,,,,,,,,,,,,,,,,,,,,,,,,,,,,,,,,,,,,,,,,,,,,,,,,,,,,,,,,,,,,,,,,,,,,,
,,67e54edf70d5a6b7026c95a2,2026-03-17_16h09.48.168,kallum_motion_pilot_GIST_update_2,2026.1.1,Win32,59.88023952,67e54edf70d5a6b7026c95a2,69b95efdef24cd8a694e89ee,69b960451f2ede6d61616b0a,0.0496,0.0496,1,27,189,90,1,sixfive,,,,,,,,,,,,,,,,,,,,,,,,,,,,,,,,,,,,,,,,,,,,,,,,,,,,,,,,,,,,,,,,,,,,,,,,,,,,,,,,,,,,,,,,,,,,,,,,,,,,,,,,,,,,,,,,,,,,,,,,,,,,,,,,,,,,,,,,,
,,67e54edf70d5a6b7026c95a2,2026-03-17_16h09.48.168,kallum_motion_pilot_GIST_update_2,2026.1.1,Win32,59.88023952,67e54edf70d5a6b7026c95a2,69b95efdef24cd8a694e89ee,69b960451f2ede6d61616b0a,0.0499,0.0499,1,28,190,138,1,sixfive,,,,,,,,,,,,,,,,,,,,,,,,,,,,,,,,,,,,,,,,,,,,,,,,,,,,,,,,,,,,,,,,,,,,,,,,,,,,,,,,,,,,,,,,,,,,,,,,,,,,,,,,,,,,,,,,,,,,,,,,,,,,,,,,,,,,,,,,,
,,67e54edf70d5a6b7026c95a2,2026-03-17_16h09.48.168,kallum_motion_pilot_GIST_update_2,2026.1.1,Win32,59.88023952,67e54edf70d5a6b7026c95a2,69b95efdef24cd8a694e89ee,69b960451f2ede6d61616b0a,0.05,0.05,1,29,191,95,1,eightseven,,,,,,,,,,,,,,,,,,,,,,,,,,,,,,,,,,,,,,,,,,,,,,,,,,,,,,,,,,,,,,,,,,,,,,,,,,,,,,,,,,,,,,,,,,,,,,,,,,,,,,,,,,,,,,,,,,,,,,,,,,,,,,,,,,,,,,,,,
,,67e54edf70d5a6b7026c95a2,2026-03-17_16h09.48.168,kallum_motion_pilot_GIST_update_2,2026.1.1,Win32,59.88023952,67e54edf70d5a6b7026c95a2,69b95efdef24cd8a694e89ee,69b960451f2ede6d61616b0a,0.0501,0.0501,1,30,192,143,1,eightseven,,,,,,,,,,,,,,,,,,,,,,,,,,,,,,,,,,,,,,,,,,,,,,,,,,,,,,,,,,,,,,,,,,,,,,,,,,,,,,,,,,,,,,,,,,,,,,,,,,,,,,,,,,,,,,,,,,,,,,,,,,,,,,,,,,,,,,,,,
,,67e54edf70d5a6b7026c95a2,2026-03-17_16h09.48.168,kallum_motion_pilot_GIST_update_2,2026.1.1,Win32,59.88023952,67e54edf70d5a6b7026c95a2,69b95efdef24cd8a694e89ee,69b960451f2ede6d61616b0a,0.0504,0.0504,1,31,193,89,1,fiveseven,,,,,,,,,,,,,,,,,,,,,,,,,,,,,,,,,,,,,,,,,,,,,,,,,,,,,,,,,,,,,,,,,,,,,,,,,,,,,,,,,,,,,,,,,,,,,,,,,,,,,,,,,,,,,,,,,,,,,,,,,,,,,,,,,,,,,,,,,
,,67e54edf70d5a6b7026c95a2,2026-03-17_16h09.48.168,kallum_motion_pilot_GIST_update_2,2026.1.1,Win32,59.88023952,67e54edf70d5a6b7026c95a2,69b95efdef24cd8a694e89ee,69b960451f2ede6d61616b0a,0.0506,0.0506,1,32,194,50,1,twoone,,,,,,,,,,,,,,,,,,,,,,,,,,,,,,,,,,,,,,,,,,,,,,,,,,,,,,,,,,,,,,,,,,,,,,,,,,,,,,,,,,,,,,,,,,,,,,,,,,,,,,,,,,,,,,,,,,,,,,,,,,,,,,,,,,,,,,,,,
,,67e54edf70d5a6b7026c95a2,2026-03-17_16h09.48.168,kallum_motion_pilot_GIST_update_2,2026.1.1,Win32,59.88023952,67e54edf70d5a6b7026c95a2,69b95efdef24cd8a694e89ee,69b960451f2ede6d61616b0a,0.0507,0.0507,1,33,195,52,1,threeone,,,,,,,,,,,,,,,,,,,,,,,,,,,,,,,,,,,,,,,,,,,,,,,,,,,,,,,,,,,,,,,,,,,,,,,,,,,,,,,,,,,,,,,,,,,,,,,,,,,,,,,,,,,,,,,,,,,,,,,,,,,,,,,,,,,,,,,,,
,,67e54edf70d5a6b7026c95a2,2026-03-17_16h09.48.168,kallum_motion_pilot_GIST_update_2,2026.1.1,Win32,59.88023952,67e54edf70d5a6b7026c95a2,69b95efdef24cd8a694e89ee,69b960451f2ede6d61616b0a,0.0508,0.0508,1,34,196,10,1,twoone,,,,,,,,,,,,,,,,,,,,,,,,,,,,,,,,,,,,,,,,,,,,,,,,,,,,,,,,,,,,,,,,,,,,,,,,,,,,,,,,,,,,,,,,,,,,,,,,,,,,,,,,,,,,,,,,,,,,,,,,,,,,,,,,,,,,,,,,,
,,67e54edf70d5a6b7026c95a2,2026-03-17_16h09.48.168,kallum_motion_pilot_GIST_update_2,2026.1.1,Win32,59.88023952,67e54edf70d5a6b7026c95a2,69b95efdef24cd8a694e89ee,69b960451f2ede6d61616b0a,0.051,0.051,1,35,197,88,1,fivesix,,,,,,,,,,,,,,,,,,,,,,,,,,,,,,,,,,,,,,,,,,,,,,,,,,,,,,,,,,,,,,,,,,,,,,,,,,,,,,,,,,,,,,,,,,,,,,,,,,,,,,,,,,,,,,,,,,,,,,,,,,,,,,,,,,,,,,,,,
,,67e54edf70d5a6b7026c95a2,2026-03-17_16h09.48.168,kallum_motion_pilot_GIST_update_2,2026.1.1,Win32,59.88023952,67e54edf70d5a6b7026c95a2,69b95efdef24cd8a694e89ee,69b960451f2ede6d61616b0a,0.0511,0.0512,1,36,198,22,1,fourtwo,,,,,,,,,,,,,,,,,,,,,,,,,,,,,,,,,,,,,,,,,,,,,,,,,,,,,,,,,,,,,,,,,,,,,,,,,,,,,,,,,,,,,,,,,,,,,,,,,,,,,,,,,,,,,,,,,,,,,,,,,,,,,,,,,,,,,,,,,
,,67e54edf70d5a6b7026c95a2,2026-03-17_16h09.48.168,kallum_motion_pilot_GIST_update_2,2026.1.1,Win32,59.88023952,67e54edf70d5a6b7026c95a2,69b95efdef24cd8a694e89ee,69b960451f2ede6d61616b0a,0.0514,0.0514,1,37,199,94,1,eightsix,,,,,,,,,,,,,,,,,,,,,,,,,,,,,,,,,,,,,,,,,,,,,,,,,,,,,,,,,,,,,,,,,,,,,,,,,,,,,,,,,,,,,,,,,,,,,,,,,,,,,,,,,,,,,,,,,,,,,,,,,,,,,,,,,,,,,,,,,
,,67e54edf70d5a6b7026c95a2,2026-03-17_16h09.48.168,kallum_motion_pilot_GIST_update_2,2026.1.1,Win32,59.88023952,67e54edf70d5a6b7026c95a2,69b95efdef24cd8a694e89ee,69b960451f2ede6d61616b0a,0.0515,0.0515,1,38,200,33,1,onethree,,,,,,,,,,,,,,,,,,,,,,,,,,,,,,,,,,,,,,,,,,,,,,,,,,,,,,,,,,,,,,,,,,,,,,,,,,,,,,,,,,,,,,,,,,,,,,,,,,,,,,,,,,,,,,,,,,,,,,,,,,,,,,,,,,,,,,,,,
,,67e54edf70d5a6b7026c95a2,2026-03-17_16h09.48.168,kallum_motion_pilot_GIST_update_2,2026.1.1,Win32,59.88023952,67e54edf70d5a6b7026c95a2,69b95efdef24cd8a694e89ee,69b960451f2ede6d61616b0a,0.0516,0.0516,1,39,201,65,1,onethree,,,,,,,,,,,,,,,,,,,,,,,,,,,,,,,,,,,,,,,,,,,,,,,,,,,,,,,,,,,,,,,,,,,,,,,,,,,,,,,,,,,,,,,,,,,,,,,,,,,,,,,,,,,,,,,,,,,,,,,,,,,,,,,,,,,,,,,,,
,,67e54edf70d5a6b7026c95a2,2026-03-17_16h09.48.168,kallum_motion_pilot_GIST_update_2,2026.1.1,Win32,59.88023952,67e54edf70d5a6b7026c95a2,69b95efdef24cd8a694e89ee,69b960451f2ede6d61616b0a,0.0518,0.0518,1,40,202,151,1,eightseven,,,,,,,,,,,,,,,,,,,,,,,,,,,,,,,,,,,,,,,,,,,,,,,,,,,,,,,,,,,,,,,,,,,,,,,,,,,,,,,,,,,,,,,,,,,,,,,,,,,,,,,,,,,,,,,,,,,,,,,,,,,,,,,,,,,,,,,,,
,,67e54edf70d5a6b7026c95a2,2026-03-17_16h09.48.168,kallum_motion_pilot_GIST_update_2,2026.1.1,Win32,59.88023952,67e54edf70d5a6b7026c95a2,69b95efdef24cd8a694e89ee,69b960451f2ede6d61616b0a,0.0519,0.0519,1,41,203,0,1,onetwo,,,,,,,,,,,,,,,,,,,,,,,,,,,,,,,,,,,,,,,,,,,,,,,,,,,,,,,,,,,,,,,,,,,,,,,,,,,,,,,,,,,,,,,,,,,,,,,,,,,,,,,,,,,,,,,,,,,,,,,,,,,,,,,,,,,,,,,,,
,,67e54edf70d5a6b7026c95a2,2026-03-17_16h09.48.168,kallum_motion_pilot_GIST_update_2,2026.1.1,Win32,59.88023952,67e54edf70d5a6b7026c95a2,69b95efdef24cd8a694e89ee,69b960451f2ede6d61616b0a,0.0521,0.0521,1,42,204,150,1,eightsix,,,,,,,,,,,,,,,,,,,,,,,,,,,,,,,,,,,,,,,,,,,,,,,,,,,,,,,,,,,,,,,,,,,,,,,,,,,,,,,,,,,,,,,,,,,,,,,,,,,,,,,,,,,,,,,,,,,,,,,,,,,,,,,,,,,,,,,,,
,,67e54edf70d5a6b7026c95a2,2026-03-17_16h09.48.168,kallum_motion_pilot_GIST_update_2,2026.1.1,Win32,59.88023952,67e54edf70d5a6b7026c95a2,69b95efdef24cd8a694e89ee,69b960451f2ede6d61616b0a,0.0523,0.0523,1,43,205,53,1,threefour,,,,,,,,,,,,,,,,,,,,,,,,,,,,,,,,,,,,,,,,,,,,,,,,,,,,,,,,,,,,,,,,,,,,,,,,,,,,,,,,,,,,,,,,,,,,,,,,,,,,,,,,,,,,,,,,,,,,,,,,,,,,,,,,,,,,,,,,,
,,67e54edf70d5a6b7026c95a2,2026-03-17_16h09.48.168,kallum_motion_pilot_GIST_update_2,2026.1.1,Win32,59.88023952,67e54edf70d5a6b7026c95a2,69b95efdef24cd8a694e89ee,69b960451f2ede6d61616b0a,0.0524,0.0524,1,44,206,16,1,onetwo,,,,,,,,,,,,,,,,,,,,,,,,,,,,,,,,,,,,,,,,,,,,,,,,,,,,,,,,,,,,,,,,,,,,,,,,,,,,,,,,,,,,,,,,,,,,,,,,,,,,,,,,,,,,,,,,,,,,,,,,,,,,,,,,,,,,,,,,,
,,67e54edf70d5a6b7026c95a2,2026-03-17_16h09.48.168,kallum_motion_pilot_GIST_update_2,2026.1.1,Win32,59.88023952,67e54edf70d5a6b7026c95a2,69b95efdef24cd8a694e89ee,69b960451f2ede6d61616b0a,0.0525,0.0525,1,45,207,23,1,fourthree,,,,,,,,,,,,,,,,,,,,,,,,,,,,,,,,,,,,,,,,,,,,,,,,,,,,,,,,,,,,,,,,,,,,,,,,,,,,,,,,,,,,,,,,,,,,,,,,,,,,,,,,,,,,,,,,,,,,,,,,,,,,,,,,,,,,,,,,,
,,67e54edf70d5a6b7026c95a2,2026-03-17_16h09.48.168,kallum_motion_pilot_GIST_update_2,2026.1.1,Win32,59.88023952,67e54edf70d5a6b7026c95a2,69b95efdef24cd8a694e89ee,69b960451f2ede6d61616b0a,0.0526,0.0526,1,46,208,30,1,fourtwo,,,,,,,,,,,,,,,,,,,,,,,,,,,,,,,,,,,,,,,,,,,,,,,,,,,,,,,,,,,,,,,,,,,,,,,,,,,,,,,,,,,,,,,,,,,,,,,,,,,,,,,,,,,,,,,,,,,,,,,,,,,,,,,,,,,,,,,,,
,,67e54edf70d5a6b7026c95a2,2026-03-17_16h09.48.168,kallum_motion_pilot_GIST_update_2,2026.1.1,Win32,59.88023952,67e54edf70d5a6b7026c95a2,69b95efdef24cd8a694e89ee,69b960451f2ede6d61616b0a,0.0528,0.0528,1,47,209,74,1,twoone,,,,,,,,,,,,,,,,,,,,,,,,,,,,,,,,,,,,,,,,,,,,,,,,,,,,,,,,,,,,,,,,,,,,,,,,,,,,,,,,,,,,,,,,,,,,,,,,,,,,,,,,,,,,,,,,,,,,,,,,,,,,,,,,,,,,,,,,,
,,67e54edf70d5a6b7026c95a2,2026-03-17_16h09.48.168,kallum_motion_pilot_GIST_update_2,2026.1.1,Win32,59.88023952,67e54edf70d5a6b7026c95a2,69b95efdef24cd8a694e89ee,69b960451f2ede6d61616b0a,0.053,0.053,1,48,210,135,1,eightseven,,,,,,,,,,,,,,,,,,,,,,,,,,,,,,,,,,,,,,,,,,,,,,,,,,,,,,,,,,,,,,,,,,,,,,,,,,,,,,,,,,,,,,,,,,,,,,,,,,,,,,,,,,,,,,,,,,,,,,,,,,,,,,,,,,,,,,,,,
,,67e54edf70d5a6b7026c95a2,2026-03-17_16h09.48.168,kallum_motion_pilot_GIST_update_2,2026.1.1,Win32,59.88023952,67e54edf70d5a6b7026c95a2,69b95efdef24cd8a694e89ee,69b960451f2ede6d61616b0a,0.0531,0.0531,1,49,211,75,1,twofour,,,,,,,,,,,,,,,,,,,,,,,,,,,,,,,,,,,,,,,,,,,,,,,,,,,,,,,,,,,,,,,,,,,,,,,,,,,,,,,,,,,,,,,,,,,,,,,,,,,,,,,,,,,,,,,,,,,,,,,,,,,,,,,,,,,,,,,,,
,,67e54edf70d5a6b7026c95a2,2026-03-17_16h09.48.168,kallum_motion_pilot_GIST_update_2,2026.1.1,Win32,59.88023952,67e54edf70d5a6b7026c95a2,69b95efdef24cd8a694e89ee,69b960451f2ede6d61616b0a,0.0534,0.0534,1,50,212,141,1,seveneight,,,,,,,,,,,,,,,,,,,,,,,,,,,,,,,,,,,,,,,,,,,,,,,,,,,,,,,,,,,,,,,,,,,,,,,,,,,,,,,,,,,,,,,,,,,,,,,,,,,,,,,,,,,,,,,,,,,,,,,,,,,,,,,,,,,,,,,,,
,,67e54edf70d5a6b7026c95a2,2026-03-17_16h09.48.168,kallum_motion_pilot_GIST_update_2,2026.1.1,Win32,59.88023952,67e54edf70d5a6b7026c95a2,69b95efdef24cd8a694e89ee,69b960451f2ede6d61616b0a,0.0534,0.0534,1,51,213,29,1,threefour,,,,,,,,,,,,,,,,,,,,,,,,,,,,,,,,,,,,,,,,,,,,,,,,,,,,,,,,,,,,,,,,,,,,,,,,,,,,,,,,,,,,,,,,,,,,,,,,,,,,,,,,,,,,,,,,,,,,,,,,,,,,,,,,,,,,,,,,,
,,67e54edf70d5a6b7026c95a2,2026-03-17_16h09.48.168,kallum_motion_pilot_GIST_update_2,2026.1.1,Win32,59.88023952,67e54edf70d5a6b7026c95a2,69b95efdef24cd8a694e89ee,69b960451f2ede6d61616b0a,0.0536,0.0536,1,52,214,126,1,eightsix,,,,,,,,,,,,,,,,,,,,,,,,,,,,,,,,,,,,,,,,,,,,,,,,,,,,,,,,,,,,,,,,,,,,,,,,,,,,,,,,,,,,,,,,,,,,,,,,,,,,,,,,,,,,,,,,,,,,,,,,,,,,,,,,,,,,,,,,,
,,67e54edf70d5a6b7026c95a2,2026-03-17_16h09.48.168,kallum_motion_pilot_GIST_update_2,2026.1.1,Win32,59.88023952,67e54edf70d5a6b7026c95a2,69b95efdef24cd8a694e89ee,69b960451f2ede6d61616b0a,0.0537,0.0537,1,53,215,122,1,sixfive,,,,,,,,,,,,,,,,,,,,,,,,,,,,,,,,,,,,,,,,,,,,,,,,,,,,,,,,,,,,,,,,,,,,,,,,,,,,,,,,,,,,,,,,,,,,,,,,,,,,,,,,,,,,,,,,,,,,,,,,,,,,,,,,,,,,,,,,,
,,67e54edf70d5a6b7026c95a2,2026-03-17_16h09.48.168,kallum_motion_pilot_GIST_update_2,2026.1.1,Win32,59.88023952,67e54edf70d5a6b7026c95a2,69b95efdef24cd8a694e89ee,69b960451f2ede6d61616b0a,0.0538,0.0538,1,54,216,3,1,twofour,,,,,,,,,,,,,,,,,,,,,,,,,,,,,,,,,,,,,,,,,,,,,,,,,,,,,,,,,,,,,,,,,,,,,,,,,,,,,,,,,,,,,,,,,,,,,,,,,,,,,,,,,,,,,,,,,,,,,,,,,,,,,,,,,,,,,,,,,
,,67e54edf70d5a6b7026c95a2,2026-03-17_16h09.48.168,kallum_motion_pilot_GIST_update_2,2026.1.1,Win32,59.88023952,67e54edf70d5a6b7026c95a2,69b95efdef24cd8a694e89ee,69b960451f2ede6d61616b0a,0.0541,0.0541,1,55,217,78,1,fourtwo,,,,,,,,,,,,,,,,,,,,,,,,,,,,,,,,,,,,,,,,,,,,,,,,,,,,,,,,,,,,,,,,,,,,,,,,,,,,,,,,,,,,,,,,,,,,,,,,,,,,,,,,,,,,,,,,,,,,,,,,,,,,,,,,,,,,,,,,,
,,67e54edf70d5a6b7026c95a2,2026-03-17_16h09.48.168,kallum_motion_pilot_GIST_update_2,2026.1.1,Win32,59.88023952,67e54edf70d5a6b7026c95a2,69b95efdef24cd8a694e89ee,69b960451f2ede6d61616b0a,0.0542,0.0542,1,56,218,82,1,sixfive,,,,,,,,,,,,,,,,,,,,,,,,,,,,,,,,,,,,,,,,,,,,,,,,,,,,,,,,,,,,,,,,,,,,,,,,,,,,,,,,,,,,,,,,,,,,,,,,,,,,,,,,,,,,,,,,,,,,,,,,,,,,,,,,,,,,,,,,,
,,67e54edf70d5a6b7026c95a2,2026-03-17_16h09.48.168,kallum_motion_pilot_GIST_update_2,2026.1.1,Win32,59.88023952,67e54edf70d5a6b7026c95a2,69b95efdef24cd8a694e89ee,69b960451f2ede6d61616b0a,0.0543,0.0543,1,57,219,85,1,seveneight,,,,,,,,,,,,,,,,,,,,,,,,,,,,,,,,,,,,,,,,,,,,,,,,,,,,,,,,,,,,,,,,,,,,,,,,,,,,,,,,,,,,,,,,,,,,,,,,,,,,,,,,,,,,,,,,,,,,,,,,,,,,,,,,,,,,,,,,,
,,67e54edf70d5a6b7026c95a2,2026-03-17_16h09.48.168,kallum_motion_pilot_GIST_update_2,2026.1.1,Win32,59.88023952,67e54edf70d5a6b7026c95a2,69b95efdef24cd8a694e89ee,69b960451f2ede6d61616b0a,0.0545,0.0545,1,58,220,34,1,twoone,,,,,,,,,,,,,,,,,,,,,,,,,,,,,,,,,,,,,,,,,,,,,,,,,,,,,,,,,,,,,,,,,,,,,,,,,,,,,,,,,,,,,,,,,,,,,,,,,,,,,,,,,,,,,,,,,,,,,,,,,,,,,,,,,,,,,,,,,
,,67e54edf70d5a6b7026c95a2,2026-03-17_16h09.48.168,kallum_motion_pilot_GIST_update_2,2026.1.1,Win32,59.88023952,67e54edf70d5a6b7026c95a2,69b95efdef24cd8a694e89ee,69b960451f2ede6d61616b0a,0.0546,0.0546,1,59,221,41,1,onethree,,,,,,,,,,,,,,,,,,,,,,,,,,,,,,,,,,,,,,,,,,,,,,,,,,,,,,,,,,,,,,,,,,,,,,,,,,,,,,,,,,,,,,,,,,,,,,,,,,,,,,,,,,,,,,,,,,,,,,,,,,,,,,,,,,,,,,,,,
,,67e54edf70d5a6b7026c95a2,2026-03-17_16h09.48.168,kallum_motion_pilot_GIST_update_2,2026.1.1,Win32,59.88023952,67e54edf70d5a6b7026c95a2,69b95efdef24cd8a694e89ee,69b960451f2ede6d61616b0a,0.0548,0.0548,1,60,222,137,1,fiveseven,,,,,,,,,,,,,,,,,,,,,,,,,,,,,,,,,,,,,,,,,,,,,,,,,,,,,,,,,,,,,,,,,,,,,,,,,,,,,,,,,,,,,,,,,,,,,,,,,,,,,,,,,,,,,,,,,,,,,,,,,,,,,,,,,,,,,,,,,
,,67e54edf70d5a6b7026c95a2,2026-03-17_16h09.48.168,kallum_motion_pilot_GIST_update_2,2026.1.1,Win32,59.88023952,67e54edf70d5a6b7026c95a2,69b95efdef24cd8a694e89ee,69b960451f2ede6d61616b0a,0.0549,0.0549,1,61,223,54,1,fourtwo,,,,,,,,,,,,,,,,,,,,,,,,,,,,,,,,,,,,,,,,,,,,,,,,,,,,,,,,,,,,,,,,,,,,,,,,,,,,,,,,,,,,,,,,,,,,,,,,,,,,,,,,,,,,,,,,,,,,,,,,,,,,,,,,,,,,,,,,,
,,67e54edf70d5a6b7026c95a2,2026-03-17_16h09.48.168,kallum_motion_pilot_GIST_update_2,2026.1.1,Win32,59.88023952,67e54edf70d5a6b7026c95a2,69b95efdef24cd8a694e89ee,69b960451f2ede6d61616b0a,0.0551,0.0551,1,62,224,70,1,fourtwo,,,,,,,,,,,,,,,,,,,,,,,,,,,,,,,,,,,,,,,,,,,,,,,,,,,,,,,,,,,,,,,,,,,,,,,,,,,,,,,,,,,,,,,,,,,,,,,,,,,,,,,,,,,,,,,,,,,,,,,,,,,,,,,,,,,,,,,,,
,,67e54edf70d5a6b7026c95a2,2026-03-17_16h09.48.168,kallum_motion_pilot_GIST_update_2,2026.1.1,Win32,59.88023952,67e54edf70d5a6b7026c95a2,69b95efdef24cd8a694e89ee,69b960451f2ede6d61616b0a,0.0552,0.0552,1,63,225,105,1,fiveseven,,,,,,,,,,,,,,,,,,,,,,,,,,,,,,,,,,,,,,,,,,,,,,,,,,,,,,,,,,,,,,,,,,,,,,,,,,,,,,,,,,,,,,,,,,,,,,,,,,,,,,,,,,,,,,,,,,,,,,,,,,,,,,,,,,,,,,,,,
,,67e54edf70d5a6b7026c95a2,2026-03-17_16h09.48.168,kallum_motion_pilot_GIST_update_2,2026.1.1,Win32,59.88023952,67e54edf70d5a6b7026c95a2,69b95efdef24cd8a694e89ee,69b960451f2ede6d61616b0a,0.0553,0.0553,1,64,226,114,1,sixfive,,,,,,,,,,,,,,,,,,,,,,,,,,,,,,,,,,,,,,,,,,,,,,,,,,,,,,,,,,,,,,,,,,,,,,,,,,,,,,,,,,,,,,,,,,,,,,,,,,,,,,,,,,,,,,,,,,,,,,,,,,,,,,,,,,,,,,,,,
,,67e54edf70d5a6b7026c95a2,2026-03-17_16h09.48.168,kallum_motion_pilot_GIST_update_2,2026.1.1,Win32,59.88023952,67e54edf70d5a6b7026c95a2,69b95efdef24cd8a694e89ee,69b960451f2ede6d61616b0a,0.0555,0.0555,1,65,227,35,1,twofour,,,,,,,,,,,,,,,,,,,,,,,,,,,,,,,,,,,,,,,,,,,,,,,,,,,,,,,,,,,,,,,,,,,,,,,,,,,,,,,,,,,,,,,,,,,,,,,,,,,,,,,,,,,,,,,,,,,,,,,,,,,,,,,,,,,,,,,,,
,,67e54edf70d5a6b7026c95a2,2026-03-17_16h09.48.168,kallum_motion_pilot_GIST_update_2,2026.1.1,Win32,59.88023952,67e54edf70d5a6b7026c95a2,69b95efdef24cd8a694e89ee,69b960451f2ede6d61616b0a,0.0556,0.0556,1,66,228,20,1,threeone,,,,,,,,,,,,,,,,,,,,,,,,,,,,,,,,,,,,,,,,,,,,,,,,,,,,,,,,,,,,,,,,,,,,,,,,,,,,,,,,,,,,,,,,,,,,,,,,,,,,,,,,,,,,,,,,,,,,,,,,,,,,,,,,,,,,,,,,,
,,67e54edf70d5a6b7026c95a2,2026-03-17_16h09.48.168,kallum_motion_pilot_GIST_update_2,2026.1.1,Win32,59.88023952,67e54edf70d5a6b7026c95a2,69b95efdef24cd8a694e89ee,69b960451f2ede6d61616b0a,0.0558,0.0558,1,67,229,48,1,onetwo,,,,,,,,,,,,,,,,,,,,,,,,,,,,,,,,,,,,,,,,,,,,,,,,,,,,,,,,,,,,,,,,,,,,,,,,,,,,,,,,,,,,,,,,,,,,,,,,,,,,,,,,,,,,,,,,,,,,,,,,,,,,,,,,,,,,,,,,,
,,67e54edf70d5a6b7026c95a2,2026-03-17_16h09.48.168,kallum_motion_pilot_GIST_update_2,2026.1.1,Win32,59.88023952,67e54edf70d5a6b7026c95a2,69b95efdef24cd8a694e89ee,69b960451f2ede6d61616b0a,0.0559,0.0559,1,68,230,123,1,sixeight,,,,,,,,,,,,,,,,,,,,,,,,,,,,,,,,,,,,,,,,,,,,,,,,,,,,,,,,,,,,,,,,,,,,,,,,,,,,,,,,,,,,,,,,,,,,,,,,,,,,,,,,,,,,,,,,,,,,,,,,,,,,,,,,,,,,,,,,,
,,67e54edf70d5a6b7026c95a2,2026-03-17_16h09.48.168,kallum_motion_pilot_GIST_update_2,2026.1.1,Win32,59.88023952,67e54edf70d5a6b7026c95a2,69b95efdef24cd8a694e89ee,69b960451f2ede6d61616b0a,0.0561,0.0561,1,69,231,111,1,eightseven,,,,,,,,,,,,,,,,,,,,,,,,,,,,,,,,,,,,,,,,,,,,,,,,,,,,,,,,,,,,,,,,,,,,,,,,,,,,,,,,,,,,,,,,,,,,,,,,,,,,,,,,,,,,,,,,,,,,,,,,,,,,,,,,,,,,,,,,,
,,67e54edf70d5a6b7026c95a2,2026-03-17_16h09.48.168,kallum_motion_pilot_GIST_update_2,2026.1.1,Win32,59.88023952,67e54edf70d5a6b7026c95a2,69b95efdef24cd8a694e89ee,69b960451f2ede6d61616b0a,0.0562,0.0562,1,70,232,116,1,sevenfive,,,,,,,,,,,,,,,,,,,,,,,,,,,,,,,,,,,,,,,,,,,,,,,,,,,,,,,,,,,,,,,,,,,,,,,,,,,,,,,,,,,,,,,,,,,,,,,,,,,,,,,,,,,,,,,,,,,,,,,,,,,,,,,,,,,,,,,,,
,,67e54edf70d5a6b7026c95a2,2026-03-17_16h09.48.168,kallum_motion_pilot_GIST_update_2,2026.1.1,Win32,59.88023952,67e54edf70d5a6b7026c95a2,69b95efdef24cd8a694e89ee,69b960451f2ede6d61616b0a,0.0563,0.0563,1,71,233,144,1,fivesix,,,,,,,,,,,,,,,,,,,,,,,,,,,,,,,,,,,,,,,,,,,,,,,,,,,,,,,,,,,,,,,,,,,,,,,,,,,,,,,,,,,,,,,,,,,,,,,,,,,,,,,,,,,,,,,,,,,,,,,,,,,,,,,,,,,,,,,,,
,,67e54edf70d5a6b7026c95a2,2026-03-17_16h09.48.168,kallum_motion_pilot_GIST_update_2,2026.1.1,Win32,59.88023952,67e54edf70d5a6b7026c95a2,69b95efdef24cd8a694e89ee,69b960451f2ede6d61616b0a,0.0565,0.0565,1,72,234,28,1,threeone,,,,,,,,,,,,,,,,,,,,,,,,,,,,,,,,,,,,,,,,,,,,,,,,,,,,,,,,,,,,,,,,,,,,,,,,,,,,,,,,,,,,,,,,,,,,,,,,,,,,,,,,,,,,,,,,,,,,,,,,,,,,,,,,,,,,,,,,,
,,67e54edf70d5a6b7026c95a2,2026-03-17_16h09.48.168,kallum_motion_pilot_GIST_update_2,2026.1.1,Win32,59.88023952,67e54edf70d5a6b7026c95a2,69b95efdef24cd8a694e89ee,69b960451f2ede6d61616b0a,0.0567,0.0567,1,73,235,119,1,eightseven,,,,,,,,,,,,,,,,,,,,,,,,,,,,,,,,,,,,,,,,,,,,,,,,,,,,,,,,,,,,,,,,,,,,,,,,,,,,,,,,,,,,,,,,,,,,,,,,,,,,,,,,,,,,,,,,,,,,,,,,,,,,,,,,,,,,,,,,,
,,67e54edf70d5a6b7026c95a2,2026-03-17_16h09.48.168,kallum_motion_pilot_GIST_update_2,2026.1.1,Win32,59.88023952,67e54edf70d5a6b7026c95a2,69b95efdef24cd8a694e89ee,69b960451f2ede6d61616b0a,0.0568,0.0568,1,74,236,14,1,fourtwo,,,,,,,,,,,,,,,,,,,,,,,,,,,,,,,,,,,,,,,,,,,,,,,,,,,,,,,,,,,,,,,,,,,,,,,,,,,,,,,,,,,,,,,,,,,,,,,,,,,,,,,,,,,,,,,,,,,,,,,,,,,,,,,,,,,,,,,,,
,,67e54edf70d5a6b7026c95a2,2026-03-17_16h09.48.168,kallum_motion_pilot_GIST_update_2,2026.1.1,Win32,59.88023952,67e54edf70d5a6b7026c95a2,69b95efdef24cd8a694e89ee,69b960451f2ede6d61616b0a,0.0569,0.0569,1,75,237,149,1,seveneight,,,,,,,,,,,,,,,,,,,,,,,,,,,,,,,,,,,,,,,,,,,,,,,,,,,,,,,,,,,,,,,,,,,,,,,,,,,,,,,,,,,,,,,,,,,,,,,,,,,,,,,,,,,,,,,,,,,,,,,,,,,,,,,,,,,,,,,,,
,,67e54edf70d5a6b7026c95a2,2026-03-17_16h09.48.168,kallum_motion_pilot_GIST_update_2,2026.1.1,Win32,59.88023952,67e54edf70d5a6b7026c95a2,69b95efdef24cd8a694e89ee,69b960451f2ede6d61616b0a,0.0571,0.0571,1,76,238,117,1,seveneight,,,,,,,,,,,,,,,,,,,,,,,,,,,,,,,,,,,,,,,,,,,,,,,,,,,,,,,,,,,,,,,,,,,,,,,,,,,,,,,,,,,,,,,,,,,,,,,,,,,,,,,,,,,,,,,,,,,,,,,,,,,,,,,,,,,,,,,,,
,,67e54edf70d5a6b7026c95a2,2026-03-17_16h09.48.168,kallum_motion_pilot_GIST_update_2,2026.1.1,Win32,59.88023952,67e54edf70d5a6b7026c95a2,69b95efdef24cd8a694e89ee,69b960451f2ede6d61616b0a,0.0573,0.0573,1,77,239,12,1,threeone,,,,,,,,,,,,,,,,,,,,,,,,,,,,,,,,,,,,,,,,,,,,,,,,,,,,,,,,,,,,,,,,,,,,,,,,,,,,,,,,,,,,,,,,,,,,,,,,,,,,,,,,,,,,,,,,,,,,,,,,,,,,,,,,,,,,,,,,,
,,67e54edf70d5a6b7026c95a2,2026-03-17_16h09.48.168,kallum_motion_pilot_GIST_update_2,2026.1.1,Win32,59.88023952,67e54edf70d5a6b7026c95a2,69b95efdef24cd8a694e89ee,69b960451f2ede6d61616b0a,0.0574,0.0575,1,78,240,91,1,sixeight,,,,,,,,,,,,,,,,,,,,,,,,,,,,,,,,,,,,,,,,,,,,,,,,,,,,,,,,,,,,,,,,,,,,,,,,,,,,,,,,,,,,,,,,,,,,,,,,,,,,,,,,,,,,,,,,,,,,,,,,,,,,,,,,,,,,,,,,,
,,67e54edf70d5a6b7026c95a2,2026-03-17_16h09.48.168,kallum_motion_pilot_GIST_update_2,2026.1.1,Win32,59.88023952,67e54edf70d5a6b7026c95a2,69b95efdef24cd8a694e89ee,69b960451f2ede6d61616b0a,0.0576,0.0576,1,79,241,152,1,fivesix,,,,,,,,,,,,,,,,,,,,,,,,,,,,,,,,,,,,,,,,,,,,,,,,,,,,,,,,,,,,,,,,,,,,,,,,,,,,,,,,,,,,,,,,,,,,,,,,,,,,,,,,,,,,,,,,,,,,,,,,,,,,,,,,,,,,,,,,,
,,67e54edf70d5a6b7026c95a2,2026-03-17_16h09.48.168,kallum_motion_pilot_GIST_update_2,2026.1.1,Win32,59.88023952,67e54edf70d5a6b7026c95a2,69b95efdef24cd8a694e89ee,69b960451f2ede6d61616b0a,0.0578,0.0578,1,80,242,66,1,twoone,,,,,,,,,,,,,,,,,,,,,,,,,,,,,,,,,,,,,,,,,,,,,,,,,,,,,,,,,,,,,,,,,,,,,,,,,,,,,,,,,,,,,,,,,,,,,,,,,,,,,,,,,,,,,,,,,,,,,,,,,,,,,,,,,,,,,,,,,
,,67e54edf70d5a6b7026c95a2,2026-03-17_16h09.48.168,kallum_motion_pilot_GIST_update_2,2026.1.1,Win32,59.88023952,67e54edf70d5a6b7026c95a2,69b95efdef24cd8a694e89ee,69b960451f2ede6d61616b0a,0.0579,0.0579,1,81,243,18,1,twoone,,,,,,,,,,,,,,,,,,,,,,,,,,,,,,,,,,,,,,,,,,,,,,,,,,,,,,,,,,,,,,,,,,,,,,,,,,,,,,,,,,,,,,,,,,,,,,,,,,,,,,,,,,,,,,,,,,,,,,,,,,,,,,,,,,,,,,,,,
,,67e54edf70d5a6b7026c95a2,2026-03-17_16h09.48.168,kallum_motion_pilot_GIST_update_2,2026.1.1,Win32,59.88023952,67e54edf70d5a6b7026c95a2,69b95efdef24cd8a694e89ee,69b960451f2ede6d61616b0a,0.0581,0.0581,1,82,244,80,1,fivesix,,,,,,,,,,,,,,,,,,,,,,,,,,,,,,,,,,,,,,,,,,,,,,,,,,,,,,,,,,,,,,,,,,,,,,,,,,,,,,,,,,,,,,,,,,,,,,,,,,,,,,,,,,,,,,,,,,,,,,,,,,,,,,,,,,,,,,,,,
,,67e54edf70d5a6b7026c95a2,2026-03-17_16h09.48.168,kallum_motion_pilot_GIST_update_2,2026.1.1,Win32,59.88023952,67e54edf70d5a6b7026c95a2,69b95efdef24cd8a694e89ee,69b960451f2ede6d61616b0a,0.0583,0.0583,1,83,245,103,1,eightseven,,,,,,,,,,,,,,,,,,,,,,,,,,,,,,,,,,,,,,,,,,,,,,,,,,,,,,,,,,,,,,,,,,,,,,,,,,,,,,,,,,,,,,,,,,,,,,,,,,,,,,,,,,,,,,,,,,,,,,,,,,,,,,,,,,,,,,,,,
,,67e54edf70d5a6b7026c95a2,2026-03-17_16h09.48.168,kallum_motion_pilot_GIST_update_2,2026.1.1,Win32,59.88023952,67e54edf70d5a6b7026c95a2,69b95efdef24cd8a694e89ee,69b960451f2ede6d61616b0a,0.0583,0.0584,1,84,246,51,1,twofour,,,,,,,,,,,,,,,,,,,,,,,,,,,,,,,,,,,,,,,,,,,,,,,,,,,,,,,,,,,,,,,,,,,,,,,,,,,,,,,,,,,,,,,,,,,,,,,,,,,,,,,,,,,,,,,,,,,,,,,,,,,,,,,,,,,,,,,,,
,,67e54edf70d5a6b7026c95a2,2026-03-17_16h09.48.168,kallum_motion_pilot_GIST_update_2,2026.1.1,Win32,59.88023952,67e54edf70d5a6b7026c95a2,69b95efdef24cd8a694e89ee,69b960451f2ede6d61616b0a,0.0585,0.0585,1,85,247,17,1,onethree,,,,,,,,,,,,,,,,,,,,,,,,,,,,,,,,,,,,,,,,,,,,,,,,,,,,,,,,,,,,,,,,,,,,,,,,,,,,,,,,,,,,,,,,,,,,,,,,,,,,,,,,,,,,,,,,,,,,,,,,,,,,,,,,,,,,,,,,,
,,67e54edf70d5a6b7026c95a2,2026-03-17_16h09.48.168,kallum_motion_pilot_GIST_update_2,2026.1.1,Win32,59.88023952,67e54edf70d5a6b7026c95a2,69b95efdef24cd8a694e89ee,69b960451f2ede6d61616b0a,0.0586,0.0586,1,86,248,98,1,sixfive,,,,,,,,,,,,,,,,,,,,,,,,,,,,,,,,,,,,,,,,,,,,,,,,,,,,,,,,,,,,,,,,,,,,,,,,,,,,,,,,,,,,,,,,,,,,,,,,,,,,,,,,,,,,,,,,,,,,,,,,,,,,,,,,,,,,,,,,,
,,67e54edf70d5a6b7026c95a2,2026-03-17_16h09.48.168,kallum_motion_pilot_GIST_update_2,2026.1.1,Win32,59.88023952,67e54edf70d5a6b7026c95a2,69b95efdef24cd8a694e89ee,69b960451f2ede6d61616b0a,0.0588,0.0588,1,87,249,39,1,fourthree,,,,,,,,,,,,,,,,,,,,,,,,,,,,,,,,,,,,,,,,,,,,,,,,,,,,,,,,,,,,,,,,,,,,,,,,,,,,,,,,,,,,,,,,,,,,,,,,,,,,,,,,,,,,,,,,,,,,,,,,,,,,,,,,,,,,,,,,,
,,67e54edf70d5a6b7026c95a2,2026-03-17_16h09.48.168,kallum_motion_pilot_GIST_update_2,2026.1.1,Win32,59.88023952,67e54edf70d5a6b7026c95a2,69b95efdef24cd8a694e89ee,69b960451f2ede6d61616b0a,0.059,0.059,1,88,250,129,1,fiveseven,,,,,,,,,,,,,,,,,,,,,,,,,,,,,,,,,,,,,,,,,,,,,,,,,,,,,,,,,,,,,,,,,,,,,,,,,,,,,,,,,,,,,,,,,,,,,,,,,,,,,,,,,,,,,,,,,,,,,,,,,,,,,,,,,,,,,,,,,
,,67e54edf70d5a6b7026c95a2,2026-03-17_16h09.48.168,kallum_motion_pilot_GIST_update_2,2026.1.1,Win32,59.88023952,67e54edf70d5a6b7026c95a2,69b95efdef24cd8a694e89ee,69b960451f2ede6d61616b0a,0.0591,0.0591,1,89,251,130,1,sixfive,,,,,,,,,,,,,,,,,,,,,,,,,,,,,,,,,,,,,,,,,,,,,,,,,,,,,,,,,,,,,,,,,,,,,,,,,,,,,,,,,,,,,,,,,,,,,,,,,,,,,,,,,,,,,,,,,,,,,,,,,,,,,,,,,,,,,,,,,
,,67e54edf70d5a6b7026c95a2,2026-03-17_16h09.48.168,kallum_motion_pilot_GIST_update_2,2026.1.1,Win32,59.88023952,67e54edf70d5a6b7026c95a2,69b95efdef24cd8a694e89ee,69b960451f2ede6d61616b0a,0.0593,0.0593,1,90,252,55,1,fourthree,,,,,,,,,,,,,,,,,,,,,,,,,,,,,,,,,,,,,,,,,,,,,,,,,,,,,,,,,,,,,,,,,,,,,,,,,,,,,,,,,,,,,,,,,,,,,,,,,,,,,,,,,,,,,,,,,,,,,,,,,,,,,,,,,,,,,,,,,
,,67e54edf70d5a6b7026c95a2,2026-03-17_16h09.48.168,kallum_motion_pilot_GIST_update_2,2026.1.1,Win32,59.88023952,67e54edf70d5a6b7026c95a2,69b95efdef24cd8a694e89ee,69b960451f2ede6d61616b0a,0.0594,0.0594,1,91,253,101,1,seveneight,,,,,,,,,,,,,,,,,,,,,,,,,,,,,,,,,,,,,,,,,,,,,,,,,,,,,,,,,,,,,,,,,,,,,,,,,,,,,,,,,,,,,,,,,,,,,,,,,,,,,,,,,,,,,,,,,,,,,,,,,,,,,,,,,,,,,,,,,
,,67e54edf70d5a6b7026c95a2,2026-03-17_16h09.48.168,kallum_motion_pilot_GIST_update_2,2026.1.1,Win32,59.88023952,67e54edf70d5a6b7026c95a2,69b95efdef24cd8a694e89ee,69b960451f2ede6d61616b0a,0.0596,0.0596,1,92,254,84,1,sevenfive,,,,,,,,,,,,,,,,,,,,,,,,,,,,,,,,,,,,,,,,,,,,,,,,,,,,,,,,,,,,,,,,,,,,,,,,,,,,,,,,,,,,,,,,,,,,,,,,,,,,,,,,,,,,,,,,,,,,,,,,,,,,,,,,,,,,,,,,,
,,67e54edf70d5a6b7026c95a2,2026-03-17_16h09.48.168,kallum_motion_pilot_GIST_update_2,2026.1.1,Win32,59.88023952,67e54edf70d5a6b7026c95a2,69b95efdef24cd8a694e89ee,69b960451f2ede6d61616b0a,0.0599,0.0599,1,93,255,43,1,twofour,,,,,,,,,,,,,,,,,,,,,,,,,,,,,,,,,,,,,,,,,,,,,,,,,,,,,,,,,,,,,,,,,,,,,,,,,,,,,,,,,,,,,,,,,,,,,,,,,,,,,,,,,,,,,,,,,,,,,,,,,,,,,,,,,,,,,,,,,
,,67e54edf70d5a6b7026c95a2,2026-03-17_16h09.48.168,kallum_motion_pilot_GIST_update_2,2026.1.1,Win32,59.88023952,67e54edf70d5a6b7026c95a2,69b95efdef24cd8a694e89ee,69b960451f2ede6d61616b0a,0.0601,0.0601,1,94,256,97,1,fiveseven,,,,,,,,,,,,,,,,,,,,,,,,,,,,,,,,,,,,,,,,,,,,,,,,,,,,,,,,,,,,,,,,,,,,,,,,,,,,,,,,,,,,,,,,,,,,,,,,,,,,,,,,,,,,,,,,,,,,,,,,,,,,,,,,,,,,,,,,,
,,67e54edf70d5a6b7026c95a2,2026-03-17_16h09.48.168,kallum_motion_pilot_GIST_update_2,2026.1.1,Win32,59.88023952,67e54edf70d5a6b7026c95a2,69b95efdef24cd8a694e89ee,69b960451f2ede6d61616b0a,0.0603,0.0603,1,95,257,63,1,fourthree,,,,,,,,,,,,,,,,,,,,,,,,,,,,,,,,,,,,,,,,,,,,,,,,,,,,,,,,,,,,,,,,,,,,,,,,,,,,,,,,,,,,,,,,,,,,,,,,,,,,,,,,,,,,,,,,,,,,,,,,,,,,,,,,,,,,,,,,,
,,67e54edf70d5a6b7026c95a2,2026-03-17_16h09.48.168,kallum_motion_pilot_GIST_update_2,2026.1.1,Win32,59.88023952,67e54edf70d5a6b7026c95a2,69b95efdef24cd8a694e89ee,69b960451f2ede6d61616b0a,0.0605,0.0605,1,96,258,26,1,twoone,,,,,,,,,,,,,,,,,,,,,,,,,,,,,,,,,,,,,,,,,,,,,,,,,,,,,,,,,,,,,,,,,,,,,,,,,,,,,,,,,,,,,,,,,,,,,,,,,,,,,,,,,,,,,,,,,,,,,,,,,,,,,,,,,,,,,,,,,
,,67e54edf70d5a6b7026c95a2,2026-03-17_16h09.48.168,kallum_motion_pilot_GIST_update_2,2026.1.1,Win32,59.88023952,67e54edf70d5a6b7026c95a2,69b95efdef24cd8a694e89ee,69b960451f2ede6d61616b0a,0.0607,0.0608,1,97,259,104,1,fivesix,,,,,,,,,,,,,,,,,,,,,,,,,,,,,,,,,,,,,,,,,,,,,,,,,,,,,,,,,,,,,,,,,,,,,,,,,,,,,,,,,,,,,,,,,,,,,,,,,,,,,,,,,,,,,,,,,,,,,,,,,,,,,,,,,,,,,,,,,
,,67e54edf70d5a6b7026c95a2,2026-03-17_16h09.48.168,kallum_motion_pilot_GIST_update_2,2026.1.1,Win32,59.88023952,67e54edf70d5a6b7026c95a2,69b95efdef24cd8a694e89ee,69b960451f2ede6d61616b0a,0.0609,0.0609,1,98,260,6,1,fourtwo,,,,,,,,,,,,,,,,,,,,,,,,,,,,,,,,,,,,,,,,,,,,,,,,,,,,,,,,,,,,,,,,,,,,,,,,,,,,,,,,,,,,,,,,,,,,,,,,,,,,,,,,,,,,,,,,,,,,,,,,,,,,,,,,,,,,,,,,,
,,67e54edf70d5a6b7026c95a2,2026-03-17_16h09.48.168,kallum_motion_pilot_GIST_update_2,2026.1.1,Win32,59.88023952,67e54edf70d5a6b7026c95a2,69b95efdef24cd8a694e89ee,69b960451f2ede6d61616b0a,0.0611,0.0611,1,99,261,71,1,fourthree,,,,,,,,,,,,,,,,,,,,,,,,,,,,,,,,,,,,,,,,,,,,,,,,,,,,,,,,,,,,,,,,,,,,,,,,,,,,,,,,,,,,,,,,,,,,,,,,,,,,,,,,,,,,,,,,,,,,,,,,,,,,,,,,,,,,,,,,,
,,67e54edf70d5a6b7026c95a2,2026-03-17_16h09.48.168,kallum_motion_pilot_GIST_update_2,2026.1.1,Win32,59.88023952,67e54edf70d5a6b7026c95a2,69b95efdef24cd8a694e89ee,69b960451f2ede6d61616b0a,0.0613,0.0613,1,100,262,69,1,threefour,,,,,,,,,,,,,,,,,,,,,,,,,,,,,,,,,,,,,,,,,,,,,,,,,,,,,,,,,,,,,,,,,,,,,,,,,,,,,,,,,,,,,,,,,,,,,,,,,,,,,,,,,,,,,,,,,,,,,,,,,,,,,,,,,,,,,,,,,
,,67e54edf70d5a6b7026c95a2,2026-03-17_16h09.48.168,kallum_motion_pilot_GIST_update_2,2026.1.1,Win32,59.88023952,67e54edf70d5a6b7026c95a2,69b95efdef24cd8a694e89ee,69b960451f2ede6d61616b0a,0.0615,0.0615,1,101,263,109,1,seveneight,,,,,,,,,,,,,,,,,,,,,,,,,,,,,,,,,,,,,,,,,,,,,,,,,,,,,,,,,,,,,,,,,,,,,,,,,,,,,,,,,,,,,,,,,,,,,,,,,,,,,,,,,,,,,,,,,,,,,,,,,,,,,,,,,,,,,,,,,
,,67e54edf70d5a6b7026c95a2,2026-03-17_16h09.48.168,kallum_motion_pilot_GIST_update_2,2026.1.1,Win32,59.88023952,67e54edf70d5a6b7026c95a2,69b95efdef24cd8a694e89ee,69b960451f2ede6d61616b0a,0.0617,0.0618,1,102,264,32,1,onetwo,,,,,,,,,,,,,,,,,,,,,,,,,,,,,,,,,,,,,,,,,,,,,,,,,,,,,,,,,,,,,,,,,,,,,,,,,,,,,,,,,,,,,,,,,,,,,,,,,,,,,,,,,,,,,,,,,,,,,,,,,,,,,,,,,,,,,,,,,
,,67e54edf70d5a6b7026c95a2,2026-03-17_16h09.48.168,kallum_motion_pilot_GIST_update_2,2026.1.1,Win32,59.88023952,67e54edf70d5a6b7026c95a2,69b95efdef24cd8a694e89ee,69b960451f2ede6d61616b0a,0.062,0.062,1,103,265,46,1,fourtwo,,,,,,,,,,,,,,,,,,,,,,,,,,,,,,,,,,,,,,,,,,,,,,,,,,,,,,,,,,,,,,,,,,,,,,,,,,,,,,,,,,,,,,,,,,,,,,,,,,,,,,,,,,,,,,,,,,,,,,,,,,,,,,,,,,,,,,,,,
,,67e54edf70d5a6b7026c95a2,2026-03-17_16h09.48.168,kallum_motion_pilot_GIST_update_2,2026.1.1,Win32,59.88023952,67e54edf70d5a6b7026c95a2,69b95efdef24cd8a694e89ee,69b960451f2ede6d61616b0a,0.0622,0.0622,1,104,266,24,1,onetwo,,,,,,,,,,,,,,,,,,,,,,,,,,,,,,,,,,,,,,,,,,,,,,,,,,,,,,,,,,,,,,,,,,,,,,,,,,,,,,,,,,,,,,,,,,,,,,,,,,,,,,,,,,,,,,,,,,,,,,,,,,,,,,,,,,,,,,,,,
