startup.started,startup.stopped,Prolific ID*,date,expName,psychopyVersion,OS,frameRate,participant,study_id,session,stimpositions.started,stimpositions.stopped,hardcoded_stimulus_positions.thisRepN,hardcoded_stimulus_positions.thisTrialN,hardcoded_stimulus_positions.thisN,hardcoded_stimulus_positions.thisIndex,hardcoded_stimulus_positions.ran,StimulusPos,stimorientation.started,stimorientation.stopped,prac_stimorientation_import_loop.thisRepN,prac_stimorientation_import_loop.thisTrialN,prac_stimorientation_import_loop.thisN,prac_stimorientation_import_loop.thisIndex,prac_stimorientation_import_loop.ran,Stimorientation,welcome_instr.started,welcome_instr.stopped,key_resp.keys,key_resp.rt,key_resp.duration,response_steppedout_1.started,response_steppedout_1.stopped,key_resp_20.keys,key_resp_20.rt,key_resp_20.duration,response_steppedout_2.started,response_steppedout_2.stopped,key_resp_19.keys,key_resp_19.rt,key_resp_19.duration,stim_response_instr.started,stim_response_instr.stopped,key_resp_15.keys,key_resp_15.rt,key_resp_15.duration,direction_instr_2.started,direction_instr_2.stopped,key_resp_9.keys,key_resp_9.rt,key_resp_9.duration,instr_prac.started,instr_prac.stopped,key_resp_10.keys,key_resp_10.rt,key_resp_10.duration,Stim1_display_prac.started,Stim1_display_prac.stopped,Ecc,Circle1_ori,Circle2_ori,response_prac.started,similarity,response_time,response_prac.stopped,mouse_5.x,mouse_5.y,mouse_5.leftButton,mouse_5.midButton,mouse_5.rightButton,mouse_5.clicked_name,responseprac_feedback.started,responseprac_feedback.stopped,summary2_prac.started,summary2_prac.stopped,mouse_6.x,mouse_6.y,mouse_6.leftButton,mouse_6.midButton,mouse_6.rightButton,mouse_6.clicked_name,duringprac.thisRepN,duringprac.thisTrialN,duringprac.thisN,duringprac.thisIndex,duringprac.ran,begin.started,begin.stopped,key_resp_22.keys,key_resp_22.rt,key_resp_22.duration,Stim1_display.started,Stim1_display.stopped,circle1_ori,circle2_ori,circle1_SF,circle2_SF,response.started,response.stopped,mouse.x,mouse.y,mouse.leftButton,mouse.midButton,mouse.rightButton,mouse.clicked_name,trialnumber,double_pass.thisRepN,double_pass.thisTrialN,double_pass.thisN,double_pass.thisIndex,double_pass.ran,double_pass.order,main_trial.thisRepN,main_trial.thisTrialN,main_trial.thisN,main_trial.thisIndex,main_trial.ran,main_trial.order,Trial_Counter,Catch,Frequencies,response_2.started,response_2.stopped,mouse_2.x,mouse_2.y,mouse_2.leftButton,mouse_2.midButton,mouse_2.rightButton,mouse_2.clicked_name,special_trial.started,special_trial.stopped,catch_1.started,catch_1.stopped,mouse_3.x,mouse_3.y,mouse_3.leftButton,mouse_3.midButton,mouse_3.rightButton,catchresponse,catchnumber,response_time_catch,response_sum.started,response_sum.stopped,mouse_11.x,mouse_11.y,mouse_11.leftButton,mouse_11.midButton,mouse_11.rightButton,flip_presentation_sequence_for_double_pass.started,flip_presentation_sequence_for_double_pass.stopped,goodbye.started,goodbye.stopped,key_resp_3.keys,key_resp_3.rt,key_resp_3.duration
0.0074,0.0077,67f6a640d2046b13fcf33328,2026-03-17_16h16.44.855,kallum_motion_pilot_GIST_update_2,2026.1.1,Win32,60.60606061,67f6a640d2046b13fcf33328,69b95efdef24cd8a694e89ee,69b96126b14d28c02ad21bc5,,,,,,,,,,,,,,,,,,,,,,,,,,,,,,,,,,,,,,,,,,,,,,,,,,,,,,,,,,,,,,,,,,,,,,,,,,,,,,,,,,,,,,,,,,,,,,,,,,,,,,,,,,,,,,,,,,,,,,,,,,,,,,,,,,,,,,,,,,,,,,,,,
,,67f6a640d2046b13fcf33328,2026-03-17_16h16.44.855,kallum_motion_pilot_GIST_update_2,2026.1.1,Win32,60.60606061,67f6a640d2046b13fcf33328,69b95efdef24cd8a694e89ee,69b96126b14d28c02ad21bc5,0.107,0.1073,0,0,0,147,1,sixeight,,,,,,,,,,,,,,,,,,,,,,,,,,,,,,,,,,,,,,,,,,,,,,,,,,,,,,,,,,,,,,,,,,,,,,,,,,,,,,,,,,,,,,,,,,,,,,,,,,,,,,,,,,,,,,,,,,,,,,,,,,,,,,,,,,,,,,,,,
,,67f6a640d2046b13fcf33328,2026-03-17_16h16.44.855,kallum_motion_pilot_GIST_update_2,2026.1.1,Win32,60.60606061,67f6a640d2046b13fcf33328,69b95efdef24cd8a694e89ee,69b96126b14d28c02ad21bc5,0.108,0.1081,0,1,1,119,1,eightseven,,,,,,,,,,,,,,,,,,,,,,,,,,,,,,,,,,,,,,,,,,,,,,,,,,,,,,,,,,,,,,,,,,,,,,,,,,,,,,,,,,,,,,,,,,,,,,,,,,,,,,,,,,,,,,,,,,,,,,,,,,,,,,,,,,,,,,,,,
,,67f6a640d2046b13fcf33328,2026-03-17_16h16.44.855,kallum_motion_pilot_GIST_update_2,2026.1.1,Win32,60.60606061,67f6a640d2046b13fcf33328,69b95efdef24cd8a694e89ee,69b96126b14d28c02ad21bc5,0.1085,0.1085,0,2,2,124,1,sevenfive,,,,,,,,,,,,,,,,,,,,,,,,,,,,,,,,,,,,,,,,,,,,,,,,,,,,,,,,,,,,,,,,,,,,,,,,,,,,,,,,,,,,,,,,,,,,,,,,,,,,,,,,,,,,,,,,,,,,,,,,,,,,,,,,,,,,,,,,,
,,67f6a640d2046b13fcf33328,2026-03-17_16h16.44.855,kallum_motion_pilot_GIST_update_2,2026.1.1,Win32,60.60606061,67f6a640d2046b13fcf33328,69b95efdef24cd8a694e89ee,69b96126b14d28c02ad21bc5,0.109,0.109,0,3,3,100,1,sevenfive,,,,,,,,,,,,,,,,,,,,,,,,,,,,,,,,,,,,,,,,,,,,,,,,,,,,,,,,,,,,,,,,,,,,,,,,,,,,,,,,,,,,,,,,,,,,,,,,,,,,,,,,,,,,,,,,,,,,,,,,,,,,,,,,,,,,,,,,,
,,67f6a640d2046b13fcf33328,2026-03-17_16h16.44.855,kallum_motion_pilot_GIST_update_2,2026.1.1,Win32,60.60606061,67f6a640d2046b13fcf33328,69b95efdef24cd8a694e89ee,69b96126b14d28c02ad21bc5,0.1094,0.1096,0,4,4,23,1,fourthree,,,,,,,,,,,,,,,,,,,,,,,,,,,,,,,,,,,,,,,,,,,,,,,,,,,,,,,,,,,,,,,,,,,,,,,,,,,,,,,,,,,,,,,,,,,,,,,,,,,,,,,,,,,,,,,,,,,,,,,,,,,,,,,,,,,,,,,,,
,,67f6a640d2046b13fcf33328,2026-03-17_16h16.44.855,kallum_motion_pilot_GIST_update_2,2026.1.1,Win32,60.60606061,67f6a640d2046b13fcf33328,69b95efdef24cd8a694e89ee,69b96126b14d28c02ad21bc5,0.1103,0.1103,0,5,5,15,1,fourthree,,,,,,,,,,,,,,,,,,,,,,,,,,,,,,,,,,,,,,,,,,,,,,,,,,,,,,,,,,,,,,,,,,,,,,,,,,,,,,,,,,,,,,,,,,,,,,,,,,,,,,,,,,,,,,,,,,,,,,,,,,,,,,,,,,,,,,,,,
,,67f6a640d2046b13fcf33328,2026-03-17_16h16.44.855,kallum_motion_pilot_GIST_update_2,2026.1.1,Win32,60.60606061,67f6a640d2046b13fcf33328,69b95efdef24cd8a694e89ee,69b96126b14d28c02ad21bc5,0.1113,0.1115,0,6,6,148,1,sevenfive,,,,,,,,,,,,,,,,,,,,,,,,,,,,,,,,,,,,,,,,,,,,,,,,,,,,,,,,,,,,,,,,,,,,,,,,,,,,,,,,,,,,,,,,,,,,,,,,,,,,,,,,,,,,,,,,,,,,,,,,,,,,,,,,,,,,,,,,,
,,67f6a640d2046b13fcf33328,2026-03-17_16h16.44.855,kallum_motion_pilot_GIST_update_2,2026.1.1,Win32,60.60606061,67f6a640d2046b13fcf33328,69b95efdef24cd8a694e89ee,69b96126b14d28c02ad21bc5,0.1121,0.1121,0,7,7,138,1,sixfive,,,,,,,,,,,,,,,,,,,,,,,,,,,,,,,,,,,,,,,,,,,,,,,,,,,,,,,,,,,,,,,,,,,,,,,,,,,,,,,,,,,,,,,,,,,,,,,,,,,,,,,,,,,,,,,,,,,,,,,,,,,,,,,,,,,,,,,,,
,,67f6a640d2046b13fcf33328,2026-03-17_16h16.44.855,kallum_motion_pilot_GIST_update_2,2026.1.1,Win32,60.60606061,67f6a640d2046b13fcf33328,69b95efdef24cd8a694e89ee,69b96126b14d28c02ad21bc5,0.1125,0.1125,0,8,8,95,1,eightseven,,,,,,,,,,,,,,,,,,,,,,,,,,,,,,,,,,,,,,,,,,,,,,,,,,,,,,,,,,,,,,,,,,,,,,,,,,,,,,,,,,,,,,,,,,,,,,,,,,,,,,,,,,,,,,,,,,,,,,,,,,,,,,,,,,,,,,,,,
,,67f6a640d2046b13fcf33328,2026-03-17_16h16.44.855,kallum_motion_pilot_GIST_update_2,2026.1.1,Win32,60.60606061,67f6a640d2046b13fcf33328,69b95efdef24cd8a694e89ee,69b96126b14d28c02ad21bc5,0.1127,0.1127,0,9,9,58,1,twoone,,,,,,,,,,,,,,,,,,,,,,,,,,,,,,,,,,,,,,,,,,,,,,,,,,,,,,,,,,,,,,,,,,,,,,,,,,,,,,,,,,,,,,,,,,,,,,,,,,,,,,,,,,,,,,,,,,,,,,,,,,,,,,,,,,,,,,,,,
,,67f6a640d2046b13fcf33328,2026-03-17_16h16.44.855,kallum_motion_pilot_GIST_update_2,2026.1.1,Win32,60.60606061,67f6a640d2046b13fcf33328,69b95efdef24cd8a694e89ee,69b96126b14d28c02ad21bc5,0.1128,0.1128,0,10,10,9,1,onethree,,,,,,,,,,,,,,,,,,,,,,,,,,,,,,,,,,,,,,,,,,,,,,,,,,,,,,,,,,,,,,,,,,,,,,,,,,,,,,,,,,,,,,,,,,,,,,,,,,,,,,,,,,,,,,,,,,,,,,,,,,,,,,,,,,,,,,,,,
,,67f6a640d2046b13fcf33328,2026-03-17_16h16.44.855,kallum_motion_pilot_GIST_update_2,2026.1.1,Win32,60.60606061,67f6a640d2046b13fcf33328,69b95efdef24cd8a694e89ee,69b96126b14d28c02ad21bc5,0.1132,0.1133,0,11,11,82,1,sixfive,,,,,,,,,,,,,,,,,,,,,,,,,,,,,,,,,,,,,,,,,,,,,,,,,,,,,,,,,,,,,,,,,,,,,,,,,,,,,,,,,,,,,,,,,,,,,,,,,,,,,,,,,,,,,,,,,,,,,,,,,,,,,,,,,,,,,,,,,
,,67f6a640d2046b13fcf33328,2026-03-17_16h16.44.855,kallum_motion_pilot_GIST_update_2,2026.1.1,Win32,60.60606061,67f6a640d2046b13fcf33328,69b95efdef24cd8a694e89ee,69b96126b14d28c02ad21bc5,0.1137,0.1137,0,12,12,41,1,onethree,,,,,,,,,,,,,,,,,,,,,,,,,,,,,,,,,,,,,,,,,,,,,,,,,,,,,,,,,,,,,,,,,,,,,,,,,,,,,,,,,,,,,,,,,,,,,,,,,,,,,,,,,,,,,,,,,,,,,,,,,,,,,,,,,,,,,,,,,
,,67f6a640d2046b13fcf33328,2026-03-17_16h16.44.855,kallum_motion_pilot_GIST_update_2,2026.1.1,Win32,60.60606061,67f6a640d2046b13fcf33328,69b95efdef24cd8a694e89ee,69b96126b14d28c02ad21bc5,0.114,0.114,0,13,13,14,1,fourtwo,,,,,,,,,,,,,,,,,,,,,,,,,,,,,,,,,,,,,,,,,,,,,,,,,,,,,,,,,,,,,,,,,,,,,,,,,,,,,,,,,,,,,,,,,,,,,,,,,,,,,,,,,,,,,,,,,,,,,,,,,,,,,,,,,,,,,,,,,
,,67f6a640d2046b13fcf33328,2026-03-17_16h16.44.855,kallum_motion_pilot_GIST_update_2,2026.1.1,Win32,60.60606061,67f6a640d2046b13fcf33328,69b95efdef24cd8a694e89ee,69b96126b14d28c02ad21bc5,0.1141,0.1141,0,14,14,93,1,seveneight,,,,,,,,,,,,,,,,,,,,,,,,,,,,,,,,,,,,,,,,,,,,,,,,,,,,,,,,,,,,,,,,,,,,,,,,,,,,,,,,,,,,,,,,,,,,,,,,,,,,,,,,,,,,,,,,,,,,,,,,,,,,,,,,,,,,,,,,,
,,67f6a640d2046b13fcf33328,2026-03-17_16h16.44.855,kallum_motion_pilot_GIST_update_2,2026.1.1,Win32,60.60606061,67f6a640d2046b13fcf33328,69b95efdef24cd8a694e89ee,69b96126b14d28c02ad21bc5,0.1142,0.1143,0,15,15,107,1,sixeight,,,,,,,,,,,,,,,,,,,,,,,,,,,,,,,,,,,,,,,,,,,,,,,,,,,,,,,,,,,,,,,,,,,,,,,,,,,,,,,,,,,,,,,,,,,,,,,,,,,,,,,,,,,,,,,,,,,,,,,,,,,,,,,,,,,,,,,,,
,,67f6a640d2046b13fcf33328,2026-03-17_16h16.44.855,kallum_motion_pilot_GIST_update_2,2026.1.1,Win32,60.60606061,67f6a640d2046b13fcf33328,69b95efdef24cd8a694e89ee,69b96126b14d28c02ad21bc5,0.1144,0.1144,0,16,16,99,1,sixeight,,,,,,,,,,,,,,,,,,,,,,,,,,,,,,,,,,,,,,,,,,,,,,,,,,,,,,,,,,,,,,,,,,,,,,,,,,,,,,,,,,,,,,,,,,,,,,,,,,,,,,,,,,,,,,,,,,,,,,,,,,,,,,,,,,,,,,,,,
,,67f6a640d2046b13fcf33328,2026-03-17_16h16.44.855,kallum_motion_pilot_GIST_update_2,2026.1.1,Win32,60.60606061,67f6a640d2046b13fcf33328,69b95efdef24cd8a694e89ee,69b96126b14d28c02ad21bc5,0.1145,0.1145,0,17,17,32,1,onetwo,,,,,,,,,,,,,,,,,,,,,,,,,,,,,,,,,,,,,,,,,,,,,,,,,,,,,,,,,,,,,,,,,,,,,,,,,,,,,,,,,,,,,,,,,,,,,,,,,,,,,,,,,,,,,,,,,,,,,,,,,,,,,,,,,,,,,,,,,
,,67f6a640d2046b13fcf33328,2026-03-17_16h16.44.855,kallum_motion_pilot_GIST_update_2,2026.1.1,Win32,60.60606061,67f6a640d2046b13fcf33328,69b95efdef24cd8a694e89ee,69b96126b14d28c02ad21bc5,0.1154,0.1154,0,18,18,59,1,twofour,,,,,,,,,,,,,,,,,,,,,,,,,,,,,,,,,,,,,,,,,,,,,,,,,,,,,,,,,,,,,,,,,,,,,,,,,,,,,,,,,,,,,,,,,,,,,,,,,,,,,,,,,,,,,,,,,,,,,,,,,,,,,,,,,,,,,,,,,
,,67f6a640d2046b13fcf33328,2026-03-17_16h16.44.855,kallum_motion_pilot_GIST_update_2,2026.1.1,Win32,60.60606061,67f6a640d2046b13fcf33328,69b95efdef24cd8a694e89ee,69b96126b14d28c02ad21bc5,0.1157,0.1158,0,19,19,57,1,onethree,,,,,,,,,,,,,,,,,,,,,,,,,,,,,,,,,,,,,,,,,,,,,,,,,,,,,,,,,,,,,,,,,,,,,,,,,,,,,,,,,,,,,,,,,,,,,,,,,,,,,,,,,,,,,,,,,,,,,,,,,,,,,,,,,,,,,,,,,
,,67f6a640d2046b13fcf33328,2026-03-17_16h16.44.855,kallum_motion_pilot_GIST_update_2,2026.1.1,Win32,60.60606061,67f6a640d2046b13fcf33328,69b95efdef24cd8a694e89ee,69b96126b14d28c02ad21bc5,0.1161,0.1163,0,20,20,55,1,fourthree,,,,,,,,,,,,,,,,,,,,,,,,,,,,,,,,,,,,,,,,,,,,,,,,,,,,,,,,,,,,,,,,,,,,,,,,,,,,,,,,,,,,,,,,,,,,,,,,,,,,,,,,,,,,,,,,,,,,,,,,,,,,,,,,,,,,,,,,,
,,67f6a640d2046b13fcf33328,2026-03-17_16h16.44.855,kallum_motion_pilot_GIST_update_2,2026.1.1,Win32,60.60606061,67f6a640d2046b13fcf33328,69b95efdef24cd8a694e89ee,69b96126b14d28c02ad21bc5,0.1172,0.1172,0,21,21,19,1,twofour,,,,,,,,,,,,,,,,,,,,,,,,,,,,,,,,,,,,,,,,,,,,,,,,,,,,,,,,,,,,,,,,,,,,,,,,,,,,,,,,,,,,,,,,,,,,,,,,,,,,,,,,,,,,,,,,,,,,,,,,,,,,,,,,,,,,,,,,,
,,67f6a640d2046b13fcf33328,2026-03-17_16h16.44.855,kallum_motion_pilot_GIST_update_2,2026.1.1,Win32,60.60606061,67f6a640d2046b13fcf33328,69b95efdef24cd8a694e89ee,69b96126b14d28c02ad21bc5,0.1178,0.1178,0,22,22,144,1,fivesix,,,,,,,,,,,,,,,,,,,,,,,,,,,,,,,,,,,,,,,,,,,,,,,,,,,,,,,,,,,,,,,,,,,,,,,,,,,,,,,,,,,,,,,,,,,,,,,,,,,,,,,,,,,,,,,,,,,,,,,,,,,,,,,,,,,,,,,,,
,,67f6a640d2046b13fcf33328,2026-03-17_16h16.44.855,kallum_motion_pilot_GIST_update_2,2026.1.1,Win32,60.60606061,67f6a640d2046b13fcf33328,69b95efdef24cd8a694e89ee,69b96126b14d28c02ad21bc5,0.1183,0.1183,0,23,23,28,1,threeone,,,,,,,,,,,,,,,,,,,,,,,,,,,,,,,,,,,,,,,,,,,,,,,,,,,,,,,,,,,,,,,,,,,,,,,,,,,,,,,,,,,,,,,,,,,,,,,,,,,,,,,,,,,,,,,,,,,,,,,,,,,,,,,,,,,,,,,,,
,,67f6a640d2046b13fcf33328,2026-03-17_16h16.44.855,kallum_motion_pilot_GIST_update_2,2026.1.1,Win32,60.60606061,67f6a640d2046b13fcf33328,69b95efdef24cd8a694e89ee,69b96126b14d28c02ad21bc5,0.1188,0.1188,0,24,24,6,1,fourtwo,,,,,,,,,,,,,,,,,,,,,,,,,,,,,,,,,,,,,,,,,,,,,,,,,,,,,,,,,,,,,,,,,,,,,,,,,,,,,,,,,,,,,,,,,,,,,,,,,,,,,,,,,,,,,,,,,,,,,,,,,,,,,,,,,,,,,,,,,
,,67f6a640d2046b13fcf33328,2026-03-17_16h16.44.855,kallum_motion_pilot_GIST_update_2,2026.1.1,Win32,60.60606061,67f6a640d2046b13fcf33328,69b95efdef24cd8a694e89ee,69b96126b14d28c02ad21bc5,0.1191,0.1191,0,25,25,26,1,twoone,,,,,,,,,,,,,,,,,,,,,,,,,,,,,,,,,,,,,,,,,,,,,,,,,,,,,,,,,,,,,,,,,,,,,,,,,,,,,,,,,,,,,,,,,,,,,,,,,,,,,,,,,,,,,,,,,,,,,,,,,,,,,,,,,,,,,,,,,
,,67f6a640d2046b13fcf33328,2026-03-17_16h16.44.855,kallum_motion_pilot_GIST_update_2,2026.1.1,Win32,60.60606061,67f6a640d2046b13fcf33328,69b95efdef24cd8a694e89ee,69b96126b14d28c02ad21bc5,0.1194,0.1194,0,26,26,96,1,fivesix,,,,,,,,,,,,,,,,,,,,,,,,,,,,,,,,,,,,,,,,,,,,,,,,,,,,,,,,,,,,,,,,,,,,,,,,,,,,,,,,,,,,,,,,,,,,,,,,,,,,,,,,,,,,,,,,,,,,,,,,,,,,,,,,,,,,,,,,,
,,67f6a640d2046b13fcf33328,2026-03-17_16h16.44.855,kallum_motion_pilot_GIST_update_2,2026.1.1,Win32,60.60606061,67f6a640d2046b13fcf33328,69b95efdef24cd8a694e89ee,69b96126b14d28c02ad21bc5,0.1198,0.1198,0,27,27,16,1,onetwo,,,,,,,,,,,,,,,,,,,,,,,,,,,,,,,,,,,,,,,,,,,,,,,,,,,,,,,,,,,,,,,,,,,,,,,,,,,,,,,,,,,,,,,,,,,,,,,,,,,,,,,,,,,,,,,,,,,,,,,,,,,,,,,,,,,,,,,,,
,,67f6a640d2046b13fcf33328,2026-03-17_16h16.44.855,kallum_motion_pilot_GIST_update_2,2026.1.1,Win32,60.60606061,67f6a640d2046b13fcf33328,69b95efdef24cd8a694e89ee,69b96126b14d28c02ad21bc5,0.12,0.12,0,28,28,30,1,fourtwo,,,,,,,,,,,,,,,,,,,,,,,,,,,,,,,,,,,,,,,,,,,,,,,,,,,,,,,,,,,,,,,,,,,,,,,,,,,,,,,,,,,,,,,,,,,,,,,,,,,,,,,,,,,,,,,,,,,,,,,,,,,,,,,,,,,,,,,,,
,,67f6a640d2046b13fcf33328,2026-03-17_16h16.44.855,kallum_motion_pilot_GIST_update_2,2026.1.1,Win32,60.60606061,67f6a640d2046b13fcf33328,69b95efdef24cd8a694e89ee,69b96126b14d28c02ad21bc5,0.12,0.12,0,29,29,13,1,threefour,,,,,,,,,,,,,,,,,,,,,,,,,,,,,,,,,,,,,,,,,,,,,,,,,,,,,,,,,,,,,,,,,,,,,,,,,,,,,,,,,,,,,,,,,,,,,,,,,,,,,,,,,,,,,,,,,,,,,,,,,,,,,,,,,,,,,,,,,
,,67f6a640d2046b13fcf33328,2026-03-17_16h16.44.855,kallum_motion_pilot_GIST_update_2,2026.1.1,Win32,60.60606061,67f6a640d2046b13fcf33328,69b95efdef24cd8a694e89ee,69b96126b14d28c02ad21bc5,0.1201,0.1201,0,30,30,62,1,fourtwo,,,,,,,,,,,,,,,,,,,,,,,,,,,,,,,,,,,,,,,,,,,,,,,,,,,,,,,,,,,,,,,,,,,,,,,,,,,,,,,,,,,,,,,,,,,,,,,,,,,,,,,,,,,,,,,,,,,,,,,,,,,,,,,,,,,,,,,,,
,,67f6a640d2046b13fcf33328,2026-03-17_16h16.44.855,kallum_motion_pilot_GIST_update_2,2026.1.1,Win32,60.60606061,67f6a640d2046b13fcf33328,69b95efdef24cd8a694e89ee,69b96126b14d28c02ad21bc5,0.1202,0.1202,0,31,31,34,1,twoone,,,,,,,,,,,,,,,,,,,,,,,,,,,,,,,,,,,,,,,,,,,,,,,,,,,,,,,,,,,,,,,,,,,,,,,,,,,,,,,,,,,,,,,,,,,,,,,,,,,,,,,,,,,,,,,,,,,,,,,,,,,,,,,,,,,,,,,,,
,,67f6a640d2046b13fcf33328,2026-03-17_16h16.44.855,kallum_motion_pilot_GIST_update_2,2026.1.1,Win32,60.60606061,67f6a640d2046b13fcf33328,69b95efdef24cd8a694e89ee,69b96126b14d28c02ad21bc5,0.1208,0.1208,0,32,32,81,1,fiveseven,,,,,,,,,,,,,,,,,,,,,,,,,,,,,,,,,,,,,,,,,,,,,,,,,,,,,,,,,,,,,,,,,,,,,,,,,,,,,,,,,,,,,,,,,,,,,,,,,,,,,,,,,,,,,,,,,,,,,,,,,,,,,,,,,,,,,,,,,
,,67f6a640d2046b13fcf33328,2026-03-17_16h16.44.855,kallum_motion_pilot_GIST_update_2,2026.1.1,Win32,60.60606061,67f6a640d2046b13fcf33328,69b95efdef24cd8a694e89ee,69b96126b14d28c02ad21bc5,0.1216,0.1216,0,33,33,126,1,eightsix,,,,,,,,,,,,,,,,,,,,,,,,,,,,,,,,,,,,,,,,,,,,,,,,,,,,,,,,,,,,,,,,,,,,,,,,,,,,,,,,,,,,,,,,,,,,,,,,,,,,,,,,,,,,,,,,,,,,,,,,,,,,,,,,,,,,,,,,,
,,67f6a640d2046b13fcf33328,2026-03-17_16h16.44.855,kallum_motion_pilot_GIST_update_2,2026.1.1,Win32,60.60606061,67f6a640d2046b13fcf33328,69b95efdef24cd8a694e89ee,69b96126b14d28c02ad21bc5,0.1221,0.1221,0,34,34,73,1,onethree,,,,,,,,,,,,,,,,,,,,,,,,,,,,,,,,,,,,,,,,,,,,,,,,,,,,,,,,,,,,,,,,,,,,,,,,,,,,,,,,,,,,,,,,,,,,,,,,,,,,,,,,,,,,,,,,,,,,,,,,,,,,,,,,,,,,,,,,,
,,67f6a640d2046b13fcf33328,2026-03-17_16h16.44.855,kallum_motion_pilot_GIST_update_2,2026.1.1,Win32,60.60606061,67f6a640d2046b13fcf33328,69b95efdef24cd8a694e89ee,69b96126b14d28c02ad21bc5,0.1226,0.1226,0,35,35,86,1,eightsix,,,,,,,,,,,,,,,,,,,,,,,,,,,,,,,,,,,,,,,,,,,,,,,,,,,,,,,,,,,,,,,,,,,,,,,,,,,,,,,,,,,,,,,,,,,,,,,,,,,,,,,,,,,,,,,,,,,,,,,,,,,,,,,,,,,,,,,,,
,,67f6a640d2046b13fcf33328,2026-03-17_16h16.44.855,kallum_motion_pilot_GIST_update_2,2026.1.1,Win32,60.60606061,67f6a640d2046b13fcf33328,69b95efdef24cd8a694e89ee,69b96126b14d28c02ad21bc5,0.123,0.123,0,36,36,118,1,eightsix,,,,,,,,,,,,,,,,,,,,,,,,,,,,,,,,,,,,,,,,,,,,,,,,,,,,,,,,,,,,,,,,,,,,,,,,,,,,,,,,,,,,,,,,,,,,,,,,,,,,,,,,,,,,,,,,,,,,,,,,,,,,,,,,,,,,,,,,,
,,67f6a640d2046b13fcf33328,2026-03-17_16h16.44.855,kallum_motion_pilot_GIST_update_2,2026.1.1,Win32,60.60606061,67f6a640d2046b13fcf33328,69b95efdef24cd8a694e89ee,69b96126b14d28c02ad21bc5,0.1234,0.1234,0,37,37,27,1,twofour,,,,,,,,,,,,,,,,,,,,,,,,,,,,,,,,,,,,,,,,,,,,,,,,,,,,,,,,,,,,,,,,,,,,,,,,,,,,,,,,,,,,,,,,,,,,,,,,,,,,,,,,,,,,,,,,,,,,,,,,,,,,,,,,,,,,,,,,,
,,67f6a640d2046b13fcf33328,2026-03-17_16h16.44.855,kallum_motion_pilot_GIST_update_2,2026.1.1,Win32,60.60606061,67f6a640d2046b13fcf33328,69b95efdef24cd8a694e89ee,69b96126b14d28c02ad21bc5,0.1256,0.1256,0,38,38,68,1,threeone,,,,,,,,,,,,,,,,,,,,,,,,,,,,,,,,,,,,,,,,,,,,,,,,,,,,,,,,,,,,,,,,,,,,,,,,,,,,,,,,,,,,,,,,,,,,,,,,,,,,,,,,,,,,,,,,,,,,,,,,,,,,,,,,,,,,,,,,,
,,67f6a640d2046b13fcf33328,2026-03-17_16h16.44.855,kallum_motion_pilot_GIST_update_2,2026.1.1,Win32,60.60606061,67f6a640d2046b13fcf33328,69b95efdef24cd8a694e89ee,69b96126b14d28c02ad21bc5,0.1272,0.1272,0,39,39,110,1,eightsix,,,,,,,,,,,,,,,,,,,,,,,,,,,,,,,,,,,,,,,,,,,,,,,,,,,,,,,,,,,,,,,,,,,,,,,,,,,,,,,,,,,,,,,,,,,,,,,,,,,,,,,,,,,,,,,,,,,,,,,,,,,,,,,,,,,,,,,,,
,,67f6a640d2046b13fcf33328,2026-03-17_16h16.44.855,kallum_motion_pilot_GIST_update_2,2026.1.1,Win32,60.60606061,67f6a640d2046b13fcf33328,69b95efdef24cd8a694e89ee,69b96126b14d28c02ad21bc5,0.1275,0.1275,0,40,40,103,1,eightseven,,,,,,,,,,,,,,,,,,,,,,,,,,,,,,,,,,,,,,,,,,,,,,,,,,,,,,,,,,,,,,,,,,,,,,,,,,,,,,,,,,,,,,,,,,,,,,,,,,,,,,,,,,,,,,,,,,,,,,,,,,,,,,,,,,,,,,,,,
,,67f6a640d2046b13fcf33328,2026-03-17_16h16.44.855,kallum_motion_pilot_GIST_update_2,2026.1.1,Win32,60.60606061,67f6a640d2046b13fcf33328,69b95efdef24cd8a694e89ee,69b96126b14d28c02ad21bc5,0.1276,0.1276,0,41,41,149,1,seveneight,,,,,,,,,,,,,,,,,,,,,,,,,,,,,,,,,,,,,,,,,,,,,,,,,,,,,,,,,,,,,,,,,,,,,,,,,,,,,,,,,,,,,,,,,,,,,,,,,,,,,,,,,,,,,,,,,,,,,,,,,,,,,,,,,,,,,,,,,
,,67f6a640d2046b13fcf33328,2026-03-17_16h16.44.855,kallum_motion_pilot_GIST_update_2,2026.1.1,Win32,60.60606061,67f6a640d2046b13fcf33328,69b95efdef24cd8a694e89ee,69b96126b14d28c02ad21bc5,0.1277,0.1277,0,42,42,12,1,threeone,,,,,,,,,,,,,,,,,,,,,,,,,,,,,,,,,,,,,,,,,,,,,,,,,,,,,,,,,,,,,,,,,,,,,,,,,,,,,,,,,,,,,,,,,,,,,,,,,,,,,,,,,,,,,,,,,,,,,,,,,,,,,,,,,,,,,,,,,
,,67f6a640d2046b13fcf33328,2026-03-17_16h16.44.855,kallum_motion_pilot_GIST_update_2,2026.1.1,Win32,60.60606061,67f6a640d2046b13fcf33328,69b95efdef24cd8a694e89ee,69b96126b14d28c02ad21bc5,0.1278,0.1279,0,43,43,115,1,sixeight,,,,,,,,,,,,,,,,,,,,,,,,,,,,,,,,,,,,,,,,,,,,,,,,,,,,,,,,,,,,,,,,,,,,,,,,,,,,,,,,,,,,,,,,,,,,,,,,,,,,,,,,,,,,,,,,,,,,,,,,,,,,,,,,,,,,,,,,,
,,67f6a640d2046b13fcf33328,2026-03-17_16h16.44.855,kallum_motion_pilot_GIST_update_2,2026.1.1,Win32,60.60606061,67f6a640d2046b13fcf33328,69b95efdef24cd8a694e89ee,69b96126b14d28c02ad21bc5,0.129,0.129,0,44,44,106,1,sixfive,,,,,,,,,,,,,,,,,,,,,,,,,,,,,,,,,,,,,,,,,,,,,,,,,,,,,,,,,,,,,,,,,,,,,,,,,,,,,,,,,,,,,,,,,,,,,,,,,,,,,,,,,,,,,,,,,,,,,,,,,,,,,,,,,,,,,,,,,
,,67f6a640d2046b13fcf33328,2026-03-17_16h16.44.855,kallum_motion_pilot_GIST_update_2,2026.1.1,Win32,60.60606061,67f6a640d2046b13fcf33328,69b95efdef24cd8a694e89ee,69b96126b14d28c02ad21bc5,0.1296,0.1296,0,45,45,75,1,twofour,,,,,,,,,,,,,,,,,,,,,,,,,,,,,,,,,,,,,,,,,,,,,,,,,,,,,,,,,,,,,,,,,,,,,,,,,,,,,,,,,,,,,,,,,,,,,,,,,,,,,,,,,,,,,,,,,,,,,,,,,,,,,,,,,,,,,,,,,
,,67f6a640d2046b13fcf33328,2026-03-17_16h16.44.855,kallum_motion_pilot_GIST_update_2,2026.1.1,Win32,60.60606061,67f6a640d2046b13fcf33328,69b95efdef24cd8a694e89ee,69b96126b14d28c02ad21bc5,0.13,0.13,0,46,46,67,1,twofour,,,,,,,,,,,,,,,,,,,,,,,,,,,,,,,,,,,,,,,,,,,,,,,,,,,,,,,,,,,,,,,,,,,,,,,,,,,,,,,,,,,,,,,,,,,,,,,,,,,,,,,,,,,,,,,,,,,,,,,,,,,,,,,,,,,,,,,,,
,,67f6a640d2046b13fcf33328,2026-03-17_16h16.44.855,kallum_motion_pilot_GIST_update_2,2026.1.1,Win32,60.60606061,67f6a640d2046b13fcf33328,69b95efdef24cd8a694e89ee,69b96126b14d28c02ad21bc5,0.1304,0.1304,0,47,47,69,1,threefour,,,,,,,,,,,,,,,,,,,,,,,,,,,,,,,,,,,,,,,,,,,,,,,,,,,,,,,,,,,,,,,,,,,,,,,,,,,,,,,,,,,,,,,,,,,,,,,,,,,,,,,,,,,,,,,,,,,,,,,,,,,,,,,,,,,,,,,,,
,,67f6a640d2046b13fcf33328,2026-03-17_16h16.44.855,kallum_motion_pilot_GIST_update_2,2026.1.1,Win32,60.60606061,67f6a640d2046b13fcf33328,69b95efdef24cd8a694e89ee,69b96126b14d28c02ad21bc5,0.1307,0.1308,0,48,48,155,1,sixeight,,,,,,,,,,,,,,,,,,,,,,,,,,,,,,,,,,,,,,,,,,,,,,,,,,,,,,,,,,,,,,,,,,,,,,,,,,,,,,,,,,,,,,,,,,,,,,,,,,,,,,,,,,,,,,,,,,,,,,,,,,,,,,,,,,,,,,,,,
,,67f6a640d2046b13fcf33328,2026-03-17_16h16.44.855,kallum_motion_pilot_GIST_update_2,2026.1.1,Win32,60.60606061,67f6a640d2046b13fcf33328,69b95efdef24cd8a694e89ee,69b96126b14d28c02ad21bc5,0.1311,0.1311,0,49,49,141,1,seveneight,,,,,,,,,,,,,,,,,,,,,,,,,,,,,,,,,,,,,,,,,,,,,,,,,,,,,,,,,,,,,,,,,,,,,,,,,,,,,,,,,,,,,,,,,,,,,,,,,,,,,,,,,,,,,,,,,,,,,,,,,,,,,,,,,,,,,,,,,
,,67f6a640d2046b13fcf33328,2026-03-17_16h16.44.855,kallum_motion_pilot_GIST_update_2,2026.1.1,Win32,60.60606061,67f6a640d2046b13fcf33328,69b95efdef24cd8a694e89ee,69b96126b14d28c02ad21bc5,0.1315,0.1315,0,50,50,42,1,twoone,,,,,,,,,,,,,,,,,,,,,,,,,,,,,,,,,,,,,,,,,,,,,,,,,,,,,,,,,,,,,,,,,,,,,,,,,,,,,,,,,,,,,,,,,,,,,,,,,,,,,,,,,,,,,,,,,,,,,,,,,,,,,,,,,,,,,,,,,
,,67f6a640d2046b13fcf33328,2026-03-17_16h16.44.855,kallum_motion_pilot_GIST_update_2,2026.1.1,Win32,60.60606061,67f6a640d2046b13fcf33328,69b95efdef24cd8a694e89ee,69b96126b14d28c02ad21bc5,0.1318,0.1319,0,51,51,3,1,twofour,,,,,,,,,,,,,,,,,,,,,,,,,,,,,,,,,,,,,,,,,,,,,,,,,,,,,,,,,,,,,,,,,,,,,,,,,,,,,,,,,,,,,,,,,,,,,,,,,,,,,,,,,,,,,,,,,,,,,,,,,,,,,,,,,,,,,,,,,
,,67f6a640d2046b13fcf33328,2026-03-17_16h16.44.855,kallum_motion_pilot_GIST_update_2,2026.1.1,Win32,60.60606061,67f6a640d2046b13fcf33328,69b95efdef24cd8a694e89ee,69b96126b14d28c02ad21bc5,0.1323,0.1323,0,52,52,121,1,fiveseven,,,,,,,,,,,,,,,,,,,,,,,,,,,,,,,,,,,,,,,,,,,,,,,,,,,,,,,,,,,,,,,,,,,,,,,,,,,,,,,,,,,,,,,,,,,,,,,,,,,,,,,,,,,,,,,,,,,,,,,,,,,,,,,,,,,,,,,,,
,,67f6a640d2046b13fcf33328,2026-03-17_16h16.44.855,kallum_motion_pilot_GIST_update_2,2026.1.1,Win32,60.60606061,67f6a640d2046b13fcf33328,69b95efdef24cd8a694e89ee,69b96126b14d28c02ad21bc5,0.1327,0.1328,0,53,53,4,1,threeone,,,,,,,,,,,,,,,,,,,,,,,,,,,,,,,,,,,,,,,,,,,,,,,,,,,,,,,,,,,,,,,,,,,,,,,,,,,,,,,,,,,,,,,,,,,,,,,,,,,,,,,,,,,,,,,,,,,,,,,,,,,,,,,,,,,,,,,,,
,,67f6a640d2046b13fcf33328,2026-03-17_16h16.44.855,kallum_motion_pilot_GIST_update_2,2026.1.1,Win32,60.60606061,67f6a640d2046b13fcf33328,69b95efdef24cd8a694e89ee,69b96126b14d28c02ad21bc5,0.1332,0.1332,0,54,54,10,1,twoone,,,,,,,,,,,,,,,,,,,,,,,,,,,,,,,,,,,,,,,,,,,,,,,,,,,,,,,,,,,,,,,,,,,,,,,,,,,,,,,,,,,,,,,,,,,,,,,,,,,,,,,,,,,,,,,,,,,,,,,,,,,,,,,,,,,,,,,,,
,,67f6a640d2046b13fcf33328,2026-03-17_16h16.44.855,kallum_motion_pilot_GIST_update_2,2026.1.1,Win32,60.60606061,67f6a640d2046b13fcf33328,69b95efdef24cd8a694e89ee,69b96126b14d28c02ad21bc5,0.1338,0.1338,0,55,55,40,1,onetwo,,,,,,,,,,,,,,,,,,,,,,,,,,,,,,,,,,,,,,,,,,,,,,,,,,,,,,,,,,,,,,,,,,,,,,,,,,,,,,,,,,,,,,,,,,,,,,,,,,,,,,,,,,,,,,,,,,,,,,,,,,,,,,,,,,,,,,,,,
,,67f6a640d2046b13fcf33328,2026-03-17_16h16.44.855,kallum_motion_pilot_GIST_update_2,2026.1.1,Win32,60.60606061,67f6a640d2046b13fcf33328,69b95efdef24cd8a694e89ee,69b96126b14d28c02ad21bc5,0.1344,0.1344,0,56,56,131,1,sixeight,,,,,,,,,,,,,,,,,,,,,,,,,,,,,,,,,,,,,,,,,,,,,,,,,,,,,,,,,,,,,,,,,,,,,,,,,,,,,,,,,,,,,,,,,,,,,,,,,,,,,,,,,,,,,,,,,,,,,,,,,,,,,,,,,,,,,,,,,
,,67f6a640d2046b13fcf33328,2026-03-17_16h16.44.855,kallum_motion_pilot_GIST_update_2,2026.1.1,Win32,60.60606061,67f6a640d2046b13fcf33328,69b95efdef24cd8a694e89ee,69b96126b14d28c02ad21bc5,0.1349,0.1349,0,57,57,146,1,sixfive,,,,,,,,,,,,,,,,,,,,,,,,,,,,,,,,,,,,,,,,,,,,,,,,,,,,,,,,,,,,,,,,,,,,,,,,,,,,,,,,,,,,,,,,,,,,,,,,,,,,,,,,,,,,,,,,,,,,,,,,,,,,,,,,,,,,,,,,,
,,67f6a640d2046b13fcf33328,2026-03-17_16h16.44.855,kallum_motion_pilot_GIST_update_2,2026.1.1,Win32,60.60606061,67f6a640d2046b13fcf33328,69b95efdef24cd8a694e89ee,69b96126b14d28c02ad21bc5,0.1353,0.1353,0,58,58,53,1,threefour,,,,,,,,,,,,,,,,,,,,,,,,,,,,,,,,,,,,,,,,,,,,,,,,,,,,,,,,,,,,,,,,,,,,,,,,,,,,,,,,,,,,,,,,,,,,,,,,,,,,,,,,,,,,,,,,,,,,,,,,,,,,,,,,,,,,,,,,,
,,67f6a640d2046b13fcf33328,2026-03-17_16h16.44.855,kallum_motion_pilot_GIST_update_2,2026.1.1,Win32,60.60606061,67f6a640d2046b13fcf33328,69b95efdef24cd8a694e89ee,69b96126b14d28c02ad21bc5,0.1357,0.1357,0,59,59,63,1,fourthree,,,,,,,,,,,,,,,,,,,,,,,,,,,,,,,,,,,,,,,,,,,,,,,,,,,,,,,,,,,,,,,,,,,,,,,,,,,,,,,,,,,,,,,,,,,,,,,,,,,,,,,,,,,,,,,,,,,,,,,,,,,,,,,,,,,,,,,,,
,,67f6a640d2046b13fcf33328,2026-03-17_16h16.44.855,kallum_motion_pilot_GIST_update_2,2026.1.1,Win32,60.60606061,67f6a640d2046b13fcf33328,69b95efdef24cd8a694e89ee,69b96126b14d28c02ad21bc5,0.136,0.136,0,60,60,94,1,eightsix,,,,,,,,,,,,,,,,,,,,,,,,,,,,,,,,,,,,,,,,,,,,,,,,,,,,,,,,,,,,,,,,,,,,,,,,,,,,,,,,,,,,,,,,,,,,,,,,,,,,,,,,,,,,,,,,,,,,,,,,,,,,,,,,,,,,,,,,,
,,67f6a640d2046b13fcf33328,2026-03-17_16h16.44.855,kallum_motion_pilot_GIST_update_2,2026.1.1,Win32,60.60606061,67f6a640d2046b13fcf33328,69b95efdef24cd8a694e89ee,69b96126b14d28c02ad21bc5,0.1367,0.1368,0,61,61,18,1,twoone,,,,,,,,,,,,,,,,,,,,,,,,,,,,,,,,,,,,,,,,,,,,,,,,,,,,,,,,,,,,,,,,,,,,,,,,,,,,,,,,,,,,,,,,,,,,,,,,,,,,,,,,,,,,,,,,,,,,,,,,,,,,,,,,,,,,,,,,,
,,67f6a640d2046b13fcf33328,2026-03-17_16h16.44.855,kallum_motion_pilot_GIST_update_2,2026.1.1,Win32,60.60606061,67f6a640d2046b13fcf33328,69b95efdef24cd8a694e89ee,69b96126b14d28c02ad21bc5,0.1374,0.1374,0,62,62,142,1,eightsix,,,,,,,,,,,,,,,,,,,,,,,,,,,,,,,,,,,,,,,,,,,,,,,,,,,,,,,,,,,,,,,,,,,,,,,,,,,,,,,,,,,,,,,,,,,,,,,,,,,,,,,,,,,,,,,,,,,,,,,,,,,,,,,,,,,,,,,,,
,,67f6a640d2046b13fcf33328,2026-03-17_16h16.44.855,kallum_motion_pilot_GIST_update_2,2026.1.1,Win32,60.60606061,67f6a640d2046b13fcf33328,69b95efdef24cd8a694e89ee,69b96126b14d28c02ad21bc5,0.1378,0.1378,0,63,63,25,1,onethree,,,,,,,,,,,,,,,,,,,,,,,,,,,,,,,,,,,,,,,,,,,,,,,,,,,,,,,,,,,,,,,,,,,,,,,,,,,,,,,,,,,,,,,,,,,,,,,,,,,,,,,,,,,,,,,,,,,,,,,,,,,,,,,,,,,,,,,,,
,,67f6a640d2046b13fcf33328,2026-03-17_16h16.44.855,kallum_motion_pilot_GIST_update_2,2026.1.1,Win32,60.60606061,67f6a640d2046b13fcf33328,69b95efdef24cd8a694e89ee,69b96126b14d28c02ad21bc5,0.1382,0.1383,0,64,64,101,1,seveneight,,,,,,,,,,,,,,,,,,,,,,,,,,,,,,,,,,,,,,,,,,,,,,,,,,,,,,,,,,,,,,,,,,,,,,,,,,,,,,,,,,,,,,,,,,,,,,,,,,,,,,,,,,,,,,,,,,,,,,,,,,,,,,,,,,,,,,,,,
,,67f6a640d2046b13fcf33328,2026-03-17_16h16.44.855,kallum_motion_pilot_GIST_update_2,2026.1.1,Win32,60.60606061,67f6a640d2046b13fcf33328,69b95efdef24cd8a694e89ee,69b96126b14d28c02ad21bc5,0.1387,0.1387,0,65,65,113,1,fiveseven,,,,,,,,,,,,,,,,,,,,,,,,,,,,,,,,,,,,,,,,,,,,,,,,,,,,,,,,,,,,,,,,,,,,,,,,,,,,,,,,,,,,,,,,,,,,,,,,,,,,,,,,,,,,,,,,,,,,,,,,,,,,,,,,,,,,,,,,,
,,67f6a640d2046b13fcf33328,2026-03-17_16h16.44.855,kallum_motion_pilot_GIST_update_2,2026.1.1,Win32,60.60606061,67f6a640d2046b13fcf33328,69b95efdef24cd8a694e89ee,69b96126b14d28c02ad21bc5,0.1392,0.1392,0,66,66,54,1,fourtwo,,,,,,,,,,,,,,,,,,,,,,,,,,,,,,,,,,,,,,,,,,,,,,,,,,,,,,,,,,,,,,,,,,,,,,,,,,,,,,,,,,,,,,,,,,,,,,,,,,,,,,,,,,,,,,,,,,,,,,,,,,,,,,,,,,,,,,,,,
,,67f6a640d2046b13fcf33328,2026-03-17_16h16.44.855,kallum_motion_pilot_GIST_update_2,2026.1.1,Win32,60.60606061,67f6a640d2046b13fcf33328,69b95efdef24cd8a694e89ee,69b96126b14d28c02ad21bc5,0.1398,0.1398,0,67,67,17,1,onethree,,,,,,,,,,,,,,,,,,,,,,,,,,,,,,,,,,,,,,,,,,,,,,,,,,,,,,,,,,,,,,,,,,,,,,,,,,,,,,,,,,,,,,,,,,,,,,,,,,,,,,,,,,,,,,,,,,,,,,,,,,,,,,,,,,,,,,,,,
,,67f6a640d2046b13fcf33328,2026-03-17_16h16.44.855,kallum_motion_pilot_GIST_update_2,2026.1.1,Win32,60.60606061,67f6a640d2046b13fcf33328,69b95efdef24cd8a694e89ee,69b96126b14d28c02ad21bc5,0.1403,0.1403,0,68,68,134,1,eightsix,,,,,,,,,,,,,,,,,,,,,,,,,,,,,,,,,,,,,,,,,,,,,,,,,,,,,,,,,,,,,,,,,,,,,,,,,,,,,,,,,,,,,,,,,,,,,,,,,,,,,,,,,,,,,,,,,,,,,,,,,,,,,,,,,,,,,,,,,
,,67f6a640d2046b13fcf33328,2026-03-17_16h16.44.855,kallum_motion_pilot_GIST_update_2,2026.1.1,Win32,60.60606061,67f6a640d2046b13fcf33328,69b95efdef24cd8a694e89ee,69b96126b14d28c02ad21bc5,0.1407,0.1407,0,69,69,45,1,threefour,,,,,,,,,,,,,,,,,,,,,,,,,,,,,,,,,,,,,,,,,,,,,,,,,,,,,,,,,,,,,,,,,,,,,,,,,,,,,,,,,,,,,,,,,,,,,,,,,,,,,,,,,,,,,,,,,,,,,,,,,,,,,,,,,,,,,,,,,
,,67f6a640d2046b13fcf33328,2026-03-17_16h16.44.855,kallum_motion_pilot_GIST_update_2,2026.1.1,Win32,60.60606061,67f6a640d2046b13fcf33328,69b95efdef24cd8a694e89ee,69b96126b14d28c02ad21bc5,0.1411,0.1411,0,70,70,48,1,onetwo,,,,,,,,,,,,,,,,,,,,,,,,,,,,,,,,,,,,,,,,,,,,,,,,,,,,,,,,,,,,,,,,,,,,,,,,,,,,,,,,,,,,,,,,,,,,,,,,,,,,,,,,,,,,,,,,,,,,,,,,,,,,,,,,,,,,,,,,,
,,67f6a640d2046b13fcf33328,2026-03-17_16h16.44.855,kallum_motion_pilot_GIST_update_2,2026.1.1,Win32,60.60606061,67f6a640d2046b13fcf33328,69b95efdef24cd8a694e89ee,69b96126b14d28c02ad21bc5,0.1415,0.1416,0,71,71,21,1,threefour,,,,,,,,,,,,,,,,,,,,,,,,,,,,,,,,,,,,,,,,,,,,,,,,,,,,,,,,,,,,,,,,,,,,,,,,,,,,,,,,,,,,,,,,,,,,,,,,,,,,,,,,,,,,,,,,,,,,,,,,,,,,,,,,,,,,,,,,,
,,67f6a640d2046b13fcf33328,2026-03-17_16h16.44.855,kallum_motion_pilot_GIST_update_2,2026.1.1,Win32,60.60606061,67f6a640d2046b13fcf33328,69b95efdef24cd8a694e89ee,69b96126b14d28c02ad21bc5,0.1419,0.1419,0,72,72,158,1,eightsix,,,,,,,,,,,,,,,,,,,,,,,,,,,,,,,,,,,,,,,,,,,,,,,,,,,,,,,,,,,,,,,,,,,,,,,,,,,,,,,,,,,,,,,,,,,,,,,,,,,,,,,,,,,,,,,,,,,,,,,,,,,,,,,,,,,,,,,,,
,,67f6a640d2046b13fcf33328,2026-03-17_16h16.44.855,kallum_motion_pilot_GIST_update_2,2026.1.1,Win32,60.60606061,67f6a640d2046b13fcf33328,69b95efdef24cd8a694e89ee,69b96126b14d28c02ad21bc5,0.142,0.142,0,73,73,102,1,eightsix,,,,,,,,,,,,,,,,,,,,,,,,,,,,,,,,,,,,,,,,,,,,,,,,,,,,,,,,,,,,,,,,,,,,,,,,,,,,,,,,,,,,,,,,,,,,,,,,,,,,,,,,,,,,,,,,,,,,,,,,,,,,,,,,,,,,,,,,,
,,67f6a640d2046b13fcf33328,2026-03-17_16h16.44.855,kallum_motion_pilot_GIST_update_2,2026.1.1,Win32,60.60606061,67f6a640d2046b13fcf33328,69b95efdef24cd8a694e89ee,69b96126b14d28c02ad21bc5,0.1421,0.1421,0,74,74,122,1,sixfive,,,,,,,,,,,,,,,,,,,,,,,,,,,,,,,,,,,,,,,,,,,,,,,,,,,,,,,,,,,,,,,,,,,,,,,,,,,,,,,,,,,,,,,,,,,,,,,,,,,,,,,,,,,,,,,,,,,,,,,,,,,,,,,,,,,,,,,,,
,,67f6a640d2046b13fcf33328,2026-03-17_16h16.44.855,kallum_motion_pilot_GIST_update_2,2026.1.1,Win32,60.60606061,67f6a640d2046b13fcf33328,69b95efdef24cd8a694e89ee,69b96126b14d28c02ad21bc5,0.1423,0.1423,0,75,75,52,1,threeone,,,,,,,,,,,,,,,,,,,,,,,,,,,,,,,,,,,,,,,,,,,,,,,,,,,,,,,,,,,,,,,,,,,,,,,,,,,,,,,,,,,,,,,,,,,,,,,,,,,,,,,,,,,,,,,,,,,,,,,,,,,,,,,,,,,,,,,,,
,,67f6a640d2046b13fcf33328,2026-03-17_16h16.44.855,kallum_motion_pilot_GIST_update_2,2026.1.1,Win32,60.60606061,67f6a640d2046b13fcf33328,69b95efdef24cd8a694e89ee,69b96126b14d28c02ad21bc5,0.1425,0.1428,0,76,76,8,1,onetwo,,,,,,,,,,,,,,,,,,,,,,,,,,,,,,,,,,,,,,,,,,,,,,,,,,,,,,,,,,,,,,,,,,,,,,,,,,,,,,,,,,,,,,,,,,,,,,,,,,,,,,,,,,,,,,,,,,,,,,,,,,,,,,,,,,,,,,,,,
,,67f6a640d2046b13fcf33328,2026-03-17_16h16.44.855,kallum_motion_pilot_GIST_update_2,2026.1.1,Win32,60.60606061,67f6a640d2046b13fcf33328,69b95efdef24cd8a694e89ee,69b96126b14d28c02ad21bc5,0.1432,0.1432,0,77,77,152,1,fivesix,,,,,,,,,,,,,,,,,,,,,,,,,,,,,,,,,,,,,,,,,,,,,,,,,,,,,,,,,,,,,,,,,,,,,,,,,,,,,,,,,,,,,,,,,,,,,,,,,,,,,,,,,,,,,,,,,,,,,,,,,,,,,,,,,,,,,,,,,
,,67f6a640d2046b13fcf33328,2026-03-17_16h16.44.855,kallum_motion_pilot_GIST_update_2,2026.1.1,Win32,60.60606061,67f6a640d2046b13fcf33328,69b95efdef24cd8a694e89ee,69b96126b14d28c02ad21bc5,0.1439,0.1439,0,78,78,140,1,sevenfive,,,,,,,,,,,,,,,,,,,,,,,,,,,,,,,,,,,,,,,,,,,,,,,,,,,,,,,,,,,,,,,,,,,,,,,,,,,,,,,,,,,,,,,,,,,,,,,,,,,,,,,,,,,,,,,,,,,,,,,,,,,,,,,,,,,,,,,,,
,,67f6a640d2046b13fcf33328,2026-03-17_16h16.44.855,kallum_motion_pilot_GIST_update_2,2026.1.1,Win32,60.60606061,67f6a640d2046b13fcf33328,69b95efdef24cd8a694e89ee,69b96126b14d28c02ad21bc5,0.1451,0.1451,0,79,79,139,1,sixeight,,,,,,,,,,,,,,,,,,,,,,,,,,,,,,,,,,,,,,,,,,,,,,,,,,,,,,,,,,,,,,,,,,,,,,,,,,,,,,,,,,,,,,,,,,,,,,,,,,,,,,,,,,,,,,,,,,,,,,,,,,,,,,,,,,,,,,,,,
,,67f6a640d2046b13fcf33328,2026-03-17_16h16.44.855,kallum_motion_pilot_GIST_update_2,2026.1.1,Win32,60.60606061,67f6a640d2046b13fcf33328,69b95efdef24cd8a694e89ee,69b96126b14d28c02ad21bc5,0.1456,0.1457,0,80,80,72,1,onetwo,,,,,,,,,,,,,,,,,,,,,,,,,,,,,,,,,,,,,,,,,,,,,,,,,,,,,,,,,,,,,,,,,,,,,,,,,,,,,,,,,,,,,,,,,,,,,,,,,,,,,,,,,,,,,,,,,,,,,,,,,,,,,,,,,,,,,,,,,
,,67f6a640d2046b13fcf33328,2026-03-17_16h16.44.855,kallum_motion_pilot_GIST_update_2,2026.1.1,Win32,60.60606061,67f6a640d2046b13fcf33328,69b95efdef24cd8a694e89ee,69b96126b14d28c02ad21bc5,0.1461,0.1461,0,81,81,104,1,fivesix,,,,,,,,,,,,,,,,,,,,,,,,,,,,,,,,,,,,,,,,,,,,,,,,,,,,,,,,,,,,,,,,,,,,,,,,,,,,,,,,,,,,,,,,,,,,,,,,,,,,,,,,,,,,,,,,,,,,,,,,,,,,,,,,,,,,,,,,,
,,67f6a640d2046b13fcf33328,2026-03-17_16h16.44.855,kallum_motion_pilot_GIST_update_2,2026.1.1,Win32,60.60606061,67f6a640d2046b13fcf33328,69b95efdef24cd8a694e89ee,69b96126b14d28c02ad21bc5,0.1471,0.1472,0,82,82,129,1,fiveseven,,,,,,,,,,,,,,,,,,,,,,,,,,,,,,,,,,,,,,,,,,,,,,,,,,,,,,,,,,,,,,,,,,,,,,,,,,,,,,,,,,,,,,,,,,,,,,,,,,,,,,,,,,,,,,,,,,,,,,,,,,,,,,,,,,,,,,,,,
,,67f6a640d2046b13fcf33328,2026-03-17_16h16.44.855,kallum_motion_pilot_GIST_update_2,2026.1.1,Win32,60.60606061,67f6a640d2046b13fcf33328,69b95efdef24cd8a694e89ee,69b96126b14d28c02ad21bc5,0.1477,0.1477,0,83,83,11,1,twofour,,,,,,,,,,,,,,,,,,,,,,,,,,,,,,,,,,,,,,,,,,,,,,,,,,,,,,,,,,,,,,,,,,,,,,,,,,,,,,,,,,,,,,,,,,,,,,,,,,,,,,,,,,,,,,,,,,,,,,,,,,,,,,,,,,,,,,,,,
,,67f6a640d2046b13fcf33328,2026-03-17_16h16.44.855,kallum_motion_pilot_GIST_update_2,2026.1.1,Win32,60.60606061,67f6a640d2046b13fcf33328,69b95efdef24cd8a694e89ee,69b96126b14d28c02ad21bc5,0.1483,0.1484,0,84,84,153,1,fiveseven,,,,,,,,,,,,,,,,,,,,,,,,,,,,,,,,,,,,,,,,,,,,,,,,,,,,,,,,,,,,,,,,,,,,,,,,,,,,,,,,,,,,,,,,,,,,,,,,,,,,,,,,,,,,,,,,,,,,,,,,,,,,,,,,,,,,,,,,,
,,67f6a640d2046b13fcf33328,2026-03-17_16h16.44.855,kallum_motion_pilot_GIST_update_2,2026.1.1,Win32,60.60606061,67f6a640d2046b13fcf33328,69b95efdef24cd8a694e89ee,69b96126b14d28c02ad21bc5,0.1488,0.1489,0,85,85,135,1,eightseven,,,,,,,,,,,,,,,,,,,,,,,,,,,,,,,,,,,,,,,,,,,,,,,,,,,,,,,,,,,,,,,,,,,,,,,,,,,,,,,,,,,,,,,,,,,,,,,,,,,,,,,,,,,,,,,,,,,,,,,,,,,,,,,,,,,,,,,,,
,,67f6a640d2046b13fcf33328,2026-03-17_16h16.44.855,kallum_motion_pilot_GIST_update_2,2026.1.1,Win32,60.60606061,67f6a640d2046b13fcf33328,69b95efdef24cd8a694e89ee,69b96126b14d28c02ad21bc5,0.1493,0.1494,0,86,86,89,1,fiveseven,,,,,,,,,,,,,,,,,,,,,,,,,,,,,,,,,,,,,,,,,,,,,,,,,,,,,,,,,,,,,,,,,,,,,,,,,,,,,,,,,,,,,,,,,,,,,,,,,,,,,,,,,,,,,,,,,,,,,,,,,,,,,,,,,,,,,,,,,
,,67f6a640d2046b13fcf33328,2026-03-17_16h16.44.855,kallum_motion_pilot_GIST_update_2,2026.1.1,Win32,60.60606061,67f6a640d2046b13fcf33328,69b95efdef24cd8a694e89ee,69b96126b14d28c02ad21bc5,0.1498,0.1498,0,87,87,143,1,eightseven,,,,,,,,,,,,,,,,,,,,,,,,,,,,,,,,,,,,,,,,,,,,,,,,,,,,,,,,,,,,,,,,,,,,,,,,,,,,,,,,,,,,,,,,,,,,,,,,,,,,,,,,,,,,,,,,,,,,,,,,,,,,,,,,,,,,,,,,,
,,67f6a640d2046b13fcf33328,2026-03-17_16h16.44.855,kallum_motion_pilot_GIST_update_2,2026.1.1,Win32,60.60606061,67f6a640d2046b13fcf33328,69b95efdef24cd8a694e89ee,69b96126b14d28c02ad21bc5,0.1504,0.1504,0,88,88,105,1,fiveseven,,,,,,,,,,,,,,,,,,,,,,,,,,,,,,,,,,,,,,,,,,,,,,,,,,,,,,,,,,,,,,,,,,,,,,,,,,,,,,,,,,,,,,,,,,,,,,,,,,,,,,,,,,,,,,,,,,,,,,,,,,,,,,,,,,,,,,,,,
,,67f6a640d2046b13fcf33328,2026-03-17_16h16.44.855,kallum_motion_pilot_GIST_update_2,2026.1.1,Win32,60.60606061,67f6a640d2046b13fcf33328,69b95efdef24cd8a694e89ee,69b96126b14d28c02ad21bc5,0.1509,0.1509,0,89,89,87,1,eightseven,,,,,,,,,,,,,,,,,,,,,,,,,,,,,,,,,,,,,,,,,,,,,,,,,,,,,,,,,,,,,,,,,,,,,,,,,,,,,,,,,,,,,,,,,,,,,,,,,,,,,,,,,,,,,,,,,,,,,,,,,,,,,,,,,,,,,,,,,
,,67f6a640d2046b13fcf33328,2026-03-17_16h16.44.855,kallum_motion_pilot_GIST_update_2,2026.1.1,Win32,60.60606061,67f6a640d2046b13fcf33328,69b95efdef24cd8a694e89ee,69b96126b14d28c02ad21bc5,0.1513,0.1513,0,90,90,64,1,onetwo,,,,,,,,,,,,,,,,,,,,,,,,,,,,,,,,,,,,,,,,,,,,,,,,,,,,,,,,,,,,,,,,,,,,,,,,,,,,,,,,,,,,,,,,,,,,,,,,,,,,,,,,,,,,,,,,,,,,,,,,,,,,,,,,,,,,,,,,,
,,67f6a640d2046b13fcf33328,2026-03-17_16h16.44.855,kallum_motion_pilot_GIST_update_2,2026.1.1,Win32,60.60606061,67f6a640d2046b13fcf33328,69b95efdef24cd8a694e89ee,69b96126b14d28c02ad21bc5,0.1518,0.1518,0,91,91,20,1,threeone,,,,,,,,,,,,,,,,,,,,,,,,,,,,,,,,,,,,,,,,,,,,,,,,,,,,,,,,,,,,,,,,,,,,,,,,,,,,,,,,,,,,,,,,,,,,,,,,,,,,,,,,,,,,,,,,,,,,,,,,,,,,,,,,,,,,,,,,,
,,67f6a640d2046b13fcf33328,2026-03-17_16h16.44.855,kallum_motion_pilot_GIST_update_2,2026.1.1,Win32,60.60606061,67f6a640d2046b13fcf33328,69b95efdef24cd8a694e89ee,69b96126b14d28c02ad21bc5,0.1523,0.1523,0,92,92,84,1,sevenfive,,,,,,,,,,,,,,,,,,,,,,,,,,,,,,,,,,,,,,,,,,,,,,,,,,,,,,,,,,,,,,,,,,,,,,,,,,,,,,,,,,,,,,,,,,,,,,,,,,,,,,,,,,,,,,,,,,,,,,,,,,,,,,,,,,,,,,,,,
,,67f6a640d2046b13fcf33328,2026-03-17_16h16.44.855,kallum_motion_pilot_GIST_update_2,2026.1.1,Win32,60.60606061,67f6a640d2046b13fcf33328,69b95efdef24cd8a694e89ee,69b96126b14d28c02ad21bc5,0.1529,0.1529,0,93,93,76,1,threeone,,,,,,,,,,,,,,,,,,,,,,,,,,,,,,,,,,,,,,,,,,,,,,,,,,,,,,,,,,,,,,,,,,,,,,,,,,,,,,,,,,,,,,,,,,,,,,,,,,,,,,,,,,,,,,,,,,,,,,,,,,,,,,,,,,,,,,,,,
,,67f6a640d2046b13fcf33328,2026-03-17_16h16.44.855,kallum_motion_pilot_GIST_update_2,2026.1.1,Win32,60.60606061,67f6a640d2046b13fcf33328,69b95efdef24cd8a694e89ee,69b96126b14d28c02ad21bc5,0.1533,0.1534,0,94,94,111,1,eightseven,,,,,,,,,,,,,,,,,,,,,,,,,,,,,,,,,,,,,,,,,,,,,,,,,,,,,,,,,,,,,,,,,,,,,,,,,,,,,,,,,,,,,,,,,,,,,,,,,,,,,,,,,,,,,,,,,,,,,,,,,,,,,,,,,,,,,,,,,
,,67f6a640d2046b13fcf33328,2026-03-17_16h16.44.855,kallum_motion_pilot_GIST_update_2,2026.1.1,Win32,60.60606061,67f6a640d2046b13fcf33328,69b95efdef24cd8a694e89ee,69b96126b14d28c02ad21bc5,0.1539,0.1539,0,95,95,74,1,twoone,,,,,,,,,,,,,,,,,,,,,,,,,,,,,,,,,,,,,,,,,,,,,,,,,,,,,,,,,,,,,,,,,,,,,,,,,,,,,,,,,,,,,,,,,,,,,,,,,,,,,,,,,,,,,,,,,,,,,,,,,,,,,,,,,,,,,,,,,
,,67f6a640d2046b13fcf33328,2026-03-17_16h16.44.855,kallum_motion_pilot_GIST_update_2,2026.1.1,Win32,60.60606061,67f6a640d2046b13fcf33328,69b95efdef24cd8a694e89ee,69b96126b14d28c02ad21bc5,0.1543,0.1543,0,96,96,31,1,fourthree,,,,,,,,,,,,,,,,,,,,,,,,,,,,,,,,,,,,,,,,,,,,,,,,,,,,,,,,,,,,,,,,,,,,,,,,,,,,,,,,,,,,,,,,,,,,,,,,,,,,,,,,,,,,,,,,,,,,,,,,,,,,,,,,,,,,,,,,,
,,67f6a640d2046b13fcf33328,2026-03-17_16h16.44.855,kallum_motion_pilot_GIST_update_2,2026.1.1,Win32,60.60606061,67f6a640d2046b13fcf33328,69b95efdef24cd8a694e89ee,69b96126b14d28c02ad21bc5,0.1549,0.1549,0,97,97,29,1,threefour,,,,,,,,,,,,,,,,,,,,,,,,,,,,,,,,,,,,,,,,,,,,,,,,,,,,,,,,,,,,,,,,,,,,,,,,,,,,,,,,,,,,,,,,,,,,,,,,,,,,,,,,,,,,,,,,,,,,,,,,,,,,,,,,,,,,,,,,,
,,67f6a640d2046b13fcf33328,2026-03-17_16h16.44.855,kallum_motion_pilot_GIST_update_2,2026.1.1,Win32,60.60606061,67f6a640d2046b13fcf33328,69b95efdef24cd8a694e89ee,69b96126b14d28c02ad21bc5,0.1554,0.1558,0,98,98,109,1,seveneight,,,,,,,,,,,,,,,,,,,,,,,,,,,,,,,,,,,,,,,,,,,,,,,,,,,,,,,,,,,,,,,,,,,,,,,,,,,,,,,,,,,,,,,,,,,,,,,,,,,,,,,,,,,,,,,,,,,,,,,,,,,,,,,,,,,,,,,,,
,,67f6a640d2046b13fcf33328,2026-03-17_16h16.44.855,kallum_motion_pilot_GIST_update_2,2026.1.1,Win32,60.60606061,67f6a640d2046b13fcf33328,69b95efdef24cd8a694e89ee,69b96126b14d28c02ad21bc5,0.1563,0.1563,0,99,99,79,1,eightseven,,,,,,,,,,,,,,,,,,,,,,,,,,,,,,,,,,,,,,,,,,,,,,,,,,,,,,,,,,,,,,,,,,,,,,,,,,,,,,,,,,,,,,,,,,,,,,,,,,,,,,,,,,,,,,,,,,,,,,,,,,,,,,,,,,,,,,,,,
,,67f6a640d2046b13fcf33328,2026-03-17_16h16.44.855,kallum_motion_pilot_GIST_update_2,2026.1.1,Win32,60.60606061,67f6a640d2046b13fcf33328,69b95efdef24cd8a694e89ee,69b96126b14d28c02ad21bc5,0.1573,0.1573,0,100,100,37,1,threefour,,,,,,,,,,,,,,,,,,,,,,,,,,,,,,,,,,,,,,,,,,,,,,,,,,,,,,,,,,,,,,,,,,,,,,,,,,,,,,,,,,,,,,,,,,,,,,,,,,,,,,,,,,,,,,,,,,,,,,,,,,,,,,,,,,,,,,,,,
,,67f6a640d2046b13fcf33328,2026-03-17_16h16.44.855,kallum_motion_pilot_GIST_update_2,2026.1.1,Win32,60.60606061,67f6a640d2046b13fcf33328,69b95efdef24cd8a694e89ee,69b96126b14d28c02ad21bc5,0.1579,0.1579,0,101,101,1,1,onethree,,,,,,,,,,,,,,,,,,,,,,,,,,,,,,,,,,,,,,,,,,,,,,,,,,,,,,,,,,,,,,,,,,,,,,,,,,,,,,,,,,,,,,,,,,,,,,,,,,,,,,,,,,,,,,,,,,,,,,,,,,,,,,,,,,,,,,,,,
,,67f6a640d2046b13fcf33328,2026-03-17_16h16.44.855,kallum_motion_pilot_GIST_update_2,2026.1.1,Win32,60.60606061,67f6a640d2046b13fcf33328,69b95efdef24cd8a694e89ee,69b96126b14d28c02ad21bc5,0.1583,0.1584,0,102,102,159,1,eightseven,,,,,,,,,,,,,,,,,,,,,,,,,,,,,,,,,,,,,,,,,,,,,,,,,,,,,,,,,,,,,,,,,,,,,,,,,,,,,,,,,,,,,,,,,,,,,,,,,,,,,,,,,,,,,,,,,,,,,,,,,,,,,,,,,,,,,,,,,
,,67f6a640d2046b13fcf33328,2026-03-17_16h16.44.855,kallum_motion_pilot_GIST_update_2,2026.1.1,Win32,60.60606061,67f6a640d2046b13fcf33328,69b95efdef24cd8a694e89ee,69b96126b14d28c02ad21bc5,0.1588,0.1588,0,103,103,47,1,fourthree,,,,,,,,,,,,,,,,,,,,,,,,,,,,,,,,,,,,,,,,,,,,,,,,,,,,,,,,,,,,,,,,,,,,,,,,,,,,,,,,,,,,,,,,,,,,,,,,,,,,,,,,,,,,,,,,,,,,,,,,,,,,,,,,,,,,,,,,,
,,67f6a640d2046b13fcf33328,2026-03-17_16h16.44.855,kallum_motion_pilot_GIST_update_2,2026.1.1,Win32,60.60606061,67f6a640d2046b13fcf33328,69b95efdef24cd8a694e89ee,69b96126b14d28c02ad21bc5,0.1593,0.1593,0,104,104,85,1,seveneight,,,,,,,,,,,,,,,,,,,,,,,,,,,,,,,,,,,,,,,,,,,,,,,,,,,,,,,,,,,,,,,,,,,,,,,,,,,,,,,,,,,,,,,,,,,,,,,,,,,,,,,,,,,,,,,,,,,,,,,,,,,,,,,,,,,,,,,,,
,,67f6a640d2046b13fcf33328,2026-03-17_16h16.44.855,kallum_motion_pilot_GIST_update_2,2026.1.1,Win32,60.60606061,67f6a640d2046b13fcf33328,69b95efdef24cd8a694e89ee,69b96126b14d28c02ad21bc5,0.1598,0.1598,0,105,105,90,1,sixfive,,,,,,,,,,,,,,,,,,,,,,,,,,,,,,,,,,,,,,,,,,,,,,,,,,,,,,,,,,,,,,,,,,,,,,,,,,,,,,,,,,,,,,,,,,,,,,,,,,,,,,,,,,,,,,,,,,,,,,,,,,,,,,,,,,,,,,,,,
,,67f6a640d2046b13fcf33328,2026-03-17_16h16.44.855,kallum_motion_pilot_GIST_update_2,2026.1.1,Win32,60.60606061,67f6a640d2046b13fcf33328,69b95efdef24cd8a694e89ee,69b96126b14d28c02ad21bc5,0.1602,0.1602,0,106,106,71,1,fourthree,,,,,,,,,,,,,,,,,,,,,,,,,,,,,,,,,,,,,,,,,,,,,,,,,,,,,,,,,,,,,,,,,,,,,,,,,,,,,,,,,,,,,,,,,,,,,,,,,,,,,,,,,,,,,,,,,,,,,,,,,,,,,,,,,,,,,,,,,
,,67f6a640d2046b13fcf33328,2026-03-17_16h16.44.855,kallum_motion_pilot_GIST_update_2,2026.1.1,Win32,60.60606061,67f6a640d2046b13fcf33328,69b95efdef24cd8a694e89ee,69b96126b14d28c02ad21bc5,0.1607,0.1607,0,107,107,46,1,fourtwo,,,,,,,,,,,,,,,,,,,,,,,,,,,,,,,,,,,,,,,,,,,,,,,,,,,,,,,,,,,,,,,,,,,,,,,,,,,,,,,,,,,,,,,,,,,,,,,,,,,,,,,,,,,,,,,,,,,,,,,,,,,,,,,,,,,,,,,,,
,,67f6a640d2046b13fcf33328,2026-03-17_16h16.44.855,kallum_motion_pilot_GIST_update_2,2026.1.1,Win32,60.60606061,67f6a640d2046b13fcf33328,69b95efdef24cd8a694e89ee,69b96126b14d28c02ad21bc5,0.1617,0.1618,0,108,108,154,1,sixfive,,,,,,,,,,,,,,,,,,,,,,,,,,,,,,,,,,,,,,,,,,,,,,,,,,,,,,,,,,,,,,,,,,,,,,,,,,,,,,,,,,,,,,,,,,,,,,,,,,,,,,,,,,,,,,,,,,,,,,,,,,,,,,,,,,,,,,,,,
,,67f6a640d2046b13fcf33328,2026-03-17_16h16.44.855,kallum_motion_pilot_GIST_update_2,2026.1.1,Win32,60.60606061,67f6a640d2046b13fcf33328,69b95efdef24cd8a694e89ee,69b96126b14d28c02ad21bc5,0.1622,0.1622,0,109,109,44,1,threeone,,,,,,,,,,,,,,,,,,,,,,,,,,,,,,,,,,,,,,,,,,,,,,,,,,,,,,,,,,,,,,,,,,,,,,,,,,,,,,,,,,,,,,,,,,,,,,,,,,,,,,,,,,,,,,,,,,,,,,,,,,,,,,,,,,,,,,,,,
,,67f6a640d2046b13fcf33328,2026-03-17_16h16.44.855,kallum_motion_pilot_GIST_update_2,2026.1.1,Win32,60.60606061,67f6a640d2046b13fcf33328,69b95efdef24cd8a694e89ee,69b96126b14d28c02ad21bc5,0.1626,0.1626,0,110,110,61,1,threefour,,,,,,,,,,,,,,,,,,,,,,,,,,,,,,,,,,,,,,,,,,,,,,,,,,,,,,,,,,,,,,,,,,,,,,,,,,,,,,,,,,,,,,,,,,,,,,,,,,,,,,,,,,,,,,,,,,,,,,,,,,,,,,,,,,,,,,,,,
,,67f6a640d2046b13fcf33328,2026-03-17_16h16.44.855,kallum_motion_pilot_GIST_update_2,2026.1.1,Win32,60.60606061,67f6a640d2046b13fcf33328,69b95efdef24cd8a694e89ee,69b96126b14d28c02ad21bc5,0.163,0.1631,0,111,111,36,1,threeone,,,,,,,,,,,,,,,,,,,,,,,,,,,,,,,,,,,,,,,,,,,,,,,,,,,,,,,,,,,,,,,,,,,,,,,,,,,,,,,,,,,,,,,,,,,,,,,,,,,,,,,,,,,,,,,,,,,,,,,,,,,,,,,,,,,,,,,,,
,,67f6a640d2046b13fcf33328,2026-03-17_16h16.44.855,kallum_motion_pilot_GIST_update_2,2026.1.1,Win32,60.60606061,67f6a640d2046b13fcf33328,69b95efdef24cd8a694e89ee,69b96126b14d28c02ad21bc5,0.1635,0.1635,0,112,112,0,1,onetwo,,,,,,,,,,,,,,,,,,,,,,,,,,,,,,,,,,,,,,,,,,,,,,,,,,,,,,,,,,,,,,,,,,,,,,,,,,,,,,,,,,,,,,,,,,,,,,,,,,,,,,,,,,,,,,,,,,,,,,,,,,,,,,,,,,,,,,,,,
,,67f6a640d2046b13fcf33328,2026-03-17_16h16.44.855,kallum_motion_pilot_GIST_update_2,2026.1.1,Win32,60.60606061,67f6a640d2046b13fcf33328,69b95efdef24cd8a694e89ee,69b96126b14d28c02ad21bc5,0.1639,0.1639,0,113,113,97,1,fiveseven,,,,,,,,,,,,,,,,,,,,,,,,,,,,,,,,,,,,,,,,,,,,,,,,,,,,,,,,,,,,,,,,,,,,,,,,,,,,,,,,,,,,,,,,,,,,,,,,,,,,,,,,,,,,,,,,,,,,,,,,,,,,,,,,,,,,,,,,,
,,67f6a640d2046b13fcf33328,2026-03-17_16h16.44.855,kallum_motion_pilot_GIST_update_2,2026.1.1,Win32,60.60606061,67f6a640d2046b13fcf33328,69b95efdef24cd8a694e89ee,69b96126b14d28c02ad21bc5,0.1643,0.1643,0,114,114,151,1,eightseven,,,,,,,,,,,,,,,,,,,,,,,,,,,,,,,,,,,,,,,,,,,,,,,,,,,,,,,,,,,,,,,,,,,,,,,,,,,,,,,,,,,,,,,,,,,,,,,,,,,,,,,,,,,,,,,,,,,,,,,,,,,,,,,,,,,,,,,,,
,,67f6a640d2046b13fcf33328,2026-03-17_16h16.44.855,kallum_motion_pilot_GIST_update_2,2026.1.1,Win32,60.60606061,67f6a640d2046b13fcf33328,69b95efdef24cd8a694e89ee,69b96126b14d28c02ad21bc5,0.1648,0.1648,0,115,115,108,1,sevenfive,,,,,,,,,,,,,,,,,,,,,,,,,,,,,,,,,,,,,,,,,,,,,,,,,,,,,,,,,,,,,,,,,,,,,,,,,,,,,,,,,,,,,,,,,,,,,,,,,,,,,,,,,,,,,,,,,,,,,,,,,,,,,,,,,,,,,,,,,
,,67f6a640d2046b13fcf33328,2026-03-17_16h16.44.855,kallum_motion_pilot_GIST_update_2,2026.1.1,Win32,60.60606061,67f6a640d2046b13fcf33328,69b95efdef24cd8a694e89ee,69b96126b14d28c02ad21bc5,0.1652,0.1653,0,116,116,116,1,sevenfive,,,,,,,,,,,,,,,,,,,,,,,,,,,,,,,,,,,,,,,,,,,,,,,,,,,,,,,,,,,,,,,,,,,,,,,,,,,,,,,,,,,,,,,,,,,,,,,,,,,,,,,,,,,,,,,,,,,,,,,,,,,,,,,,,,,,,,,,,
,,67f6a640d2046b13fcf33328,2026-03-17_16h16.44.855,kallum_motion_pilot_GIST_update_2,2026.1.1,Win32,60.60606061,67f6a640d2046b13fcf33328,69b95efdef24cd8a694e89ee,69b96126b14d28c02ad21bc5,0.1658,0.1658,0,117,117,5,1,threefour,,,,,,,,,,,,,,,,,,,,,,,,,,,,,,,,,,,,,,,,,,,,,,,,,,,,,,,,,,,,,,,,,,,,,,,,,,,,,,,,,,,,,,,,,,,,,,,,,,,,,,,,,,,,,,,,,,,,,,,,,,,,,,,,,,,,,,,,,
,,67f6a640d2046b13fcf33328,2026-03-17_16h16.44.855,kallum_motion_pilot_GIST_update_2,2026.1.1,Win32,60.60606061,67f6a640d2046b13fcf33328,69b95efdef24cd8a694e89ee,69b96126b14d28c02ad21bc5,0.1662,0.1662,0,118,118,50,1,twoone,,,,,,,,,,,,,,,,,,,,,,,,,,,,,,,,,,,,,,,,,,,,,,,,,,,,,,,,,,,,,,,,,,,,,,,,,,,,,,,,,,,,,,,,,,,,,,,,,,,,,,,,,,,,,,,,,,,,,,,,,,,,,,,,,,,,,,,,,
,,67f6a640d2046b13fcf33328,2026-03-17_16h16.44.855,kallum_motion_pilot_GIST_update_2,2026.1.1,Win32,60.60606061,67f6a640d2046b13fcf33328,69b95efdef24cd8a694e89ee,69b96126b14d28c02ad21bc5,0.1673,0.1673,0,119,119,49,1,onethree,,,,,,,,,,,,,,,,,,,,,,,,,,,,,,,,,,,,,,,,,,,,,,,,,,,,,,,,,,,,,,,,,,,,,,,,,,,,,,,,,,,,,,,,,,,,,,,,,,,,,,,,,,,,,,,,,,,,,,,,,,,,,,,,,,,,,,,,,
,,67f6a640d2046b13fcf33328,2026-03-17_16h16.44.855,kallum_motion_pilot_GIST_update_2,2026.1.1,Win32,60.60606061,67f6a640d2046b13fcf33328,69b95efdef24cd8a694e89ee,69b96126b14d28c02ad21bc5,0.1678,0.168,0,120,120,132,1,sevenfive,,,,,,,,,,,,,,,,,,,,,,,,,,,,,,,,,,,,,,,,,,,,,,,,,,,,,,,,,,,,,,,,,,,,,,,,,,,,,,,,,,,,,,,,,,,,,,,,,,,,,,,,,,,,,,,,,,,,,,,,,,,,,,,,,,,,,,,,,
,,67f6a640d2046b13fcf33328,2026-03-17_16h16.44.855,kallum_motion_pilot_GIST_update_2,2026.1.1,Win32,60.60606061,67f6a640d2046b13fcf33328,69b95efdef24cd8a694e89ee,69b96126b14d28c02ad21bc5,0.1689,0.1689,0,121,121,66,1,twoone,,,,,,,,,,,,,,,,,,,,,,,,,,,,,,,,,,,,,,,,,,,,,,,,,,,,,,,,,,,,,,,,,,,,,,,,,,,,,,,,,,,,,,,,,,,,,,,,,,,,,,,,,,,,,,,,,,,,,,,,,,,,,,,,,,,,,,,,,
,,67f6a640d2046b13fcf33328,2026-03-17_16h16.44.855,kallum_motion_pilot_GIST_update_2,2026.1.1,Win32,60.60606061,67f6a640d2046b13fcf33328,69b95efdef24cd8a694e89ee,69b96126b14d28c02ad21bc5,0.1694,0.1694,0,122,122,98,1,sixfive,,,,,,,,,,,,,,,,,,,,,,,,,,,,,,,,,,,,,,,,,,,,,,,,,,,,,,,,,,,,,,,,,,,,,,,,,,,,,,,,,,,,,,,,,,,,,,,,,,,,,,,,,,,,,,,,,,,,,,,,,,,,,,,,,,,,,,,,,
,,67f6a640d2046b13fcf33328,2026-03-17_16h16.44.855,kallum_motion_pilot_GIST_update_2,2026.1.1,Win32,60.60606061,67f6a640d2046b13fcf33328,69b95efdef24cd8a694e89ee,69b96126b14d28c02ad21bc5,0.17,0.17,0,123,123,43,1,twofour,,,,,,,,,,,,,,,,,,,,,,,,,,,,,,,,,,,,,,,,,,,,,,,,,,,,,,,,,,,,,,,,,,,,,,,,,,,,,,,,,,,,,,,,,,,,,,,,,,,,,,,,,,,,,,,,,,,,,,,,,,,,,,,,,,,,,,,,,
,,67f6a640d2046b13fcf33328,2026-03-17_16h16.44.855,kallum_motion_pilot_GIST_update_2,2026.1.1,Win32,60.60606061,67f6a640d2046b13fcf33328,69b95efdef24cd8a694e89ee,69b96126b14d28c02ad21bc5,0.1704,0.1704,0,124,124,60,1,threeone,,,,,,,,,,,,,,,,,,,,,,,,,,,,,,,,,,,,,,,,,,,,,,,,,,,,,,,,,,,,,,,,,,,,,,,,,,,,,,,,,,,,,,,,,,,,,,,,,,,,,,,,,,,,,,,,,,,,,,,,,,,,,,,,,,,,,,,,,
,,67f6a640d2046b13fcf33328,2026-03-17_16h16.44.855,kallum_motion_pilot_GIST_update_2,2026.1.1,Win32,60.60606061,67f6a640d2046b13fcf33328,69b95efdef24cd8a694e89ee,69b96126b14d28c02ad21bc5,0.1708,0.1708,0,125,125,92,1,sevenfive,,,,,,,,,,,,,,,,,,,,,,,,,,,,,,,,,,,,,,,,,,,,,,,,,,,,,,,,,,,,,,,,,,,,,,,,,,,,,,,,,,,,,,,,,,,,,,,,,,,,,,,,,,,,,,,,,,,,,,,,,,,,,,,,,,,,,,,,,
,,67f6a640d2046b13fcf33328,2026-03-17_16h16.44.855,kallum_motion_pilot_GIST_update_2,2026.1.1,Win32,60.60606061,67f6a640d2046b13fcf33328,69b95efdef24cd8a694e89ee,69b96126b14d28c02ad21bc5,0.1713,0.1713,0,126,126,127,1,eightseven,,,,,,,,,,,,,,,,,,,,,,,,,,,,,,,,,,,,,,,,,,,,,,,,,,,,,,,,,,,,,,,,,,,,,,,,,,,,,,,,,,,,,,,,,,,,,,,,,,,,,,,,,,,,,,,,,,,,,,,,,,,,,,,,,,,,,,,,,
,,67f6a640d2046b13fcf33328,2026-03-17_16h16.44.855,kallum_motion_pilot_GIST_update_2,2026.1.1,Win32,60.60606061,67f6a640d2046b13fcf33328,69b95efdef24cd8a694e89ee,69b96126b14d28c02ad21bc5,0.1717,0.1717,0,127,127,91,1,sixeight,,,,,,,,,,,,,,,,,,,,,,,,,,,,,,,,,,,,,,,,,,,,,,,,,,,,,,,,,,,,,,,,,,,,,,,,,,,,,,,,,,,,,,,,,,,,,,,,,,,,,,,,,,,,,,,,,,,,,,,,,,,,,,,,,,,,,,,,,
,,67f6a640d2046b13fcf33328,2026-03-17_16h16.44.855,kallum_motion_pilot_GIST_update_2,2026.1.1,Win32,60.60606061,67f6a640d2046b13fcf33328,69b95efdef24cd8a694e89ee,69b96126b14d28c02ad21bc5,0.1723,0.1723,0,128,128,38,1,fourtwo,,,,,,,,,,,,,,,,,,,,,,,,,,,,,,,,,,,,,,,,,,,,,,,,,,,,,,,,,,,,,,,,,,,,,,,,,,,,,,,,,,,,,,,,,,,,,,,,,,,,,,,,,,,,,,,,,,,,,,,,,,,,,,,,,,,,,,,,,
,,67f6a640d2046b13fcf33328,2026-03-17_16h16.44.855,kallum_motion_pilot_GIST_update_2,2026.1.1,Win32,60.60606061,67f6a640d2046b13fcf33328,69b95efdef24cd8a694e89ee,69b96126b14d28c02ad21bc5,0.1725,0.1725,0,129,129,2,1,twoone,,,,,,,,,,,,,,,,,,,,,,,,,,,,,,,,,,,,,,,,,,,,,,,,,,,,,,,,,,,,,,,,,,,,,,,,,,,,,,,,,,,,,,,,,,,,,,,,,,,,,,,,,,,,,,,,,,,,,,,,,,,,,,,,,,,,,,,,,
,,67f6a640d2046b13fcf33328,2026-03-17_16h16.44.855,kallum_motion_pilot_GIST_update_2,2026.1.1,Win32,60.60606061,67f6a640d2046b13fcf33328,69b95efdef24cd8a694e89ee,69b96126b14d28c02ad21bc5,0.1727,0.1728,0,130,130,156,1,sevenfive,,,,,,,,,,,,,,,,,,,,,,,,,,,,,,,,,,,,,,,,,,,,,,,,,,,,,,,,,,,,,,,,,,,,,,,,,,,,,,,,,,,,,,,,,,,,,,,,,,,,,,,,,,,,,,,,,,,,,,,,,,,,,,,,,,,,,,,,,
,,67f6a640d2046b13fcf33328,2026-03-17_16h16.44.855,kallum_motion_pilot_GIST_update_2,2026.1.1,Win32,60.60606061,67f6a640d2046b13fcf33328,69b95efdef24cd8a694e89ee,69b96126b14d28c02ad21bc5,0.1729,0.1729,0,131,131,117,1,seveneight,,,,,,,,,,,,,,,,,,,,,,,,,,,,,,,,,,,,,,,,,,,,,,,,,,,,,,,,,,,,,,,,,,,,,,,,,,,,,,,,,,,,,,,,,,,,,,,,,,,,,,,,,,,,,,,,,,,,,,,,,,,,,,,,,,,,,,,,,
,,67f6a640d2046b13fcf33328,2026-03-17_16h16.44.855,kallum_motion_pilot_GIST_update_2,2026.1.1,Win32,60.60606061,67f6a640d2046b13fcf33328,69b95efdef24cd8a694e89ee,69b96126b14d28c02ad21bc5,0.1731,0.1731,0,132,132,112,1,fivesix,,,,,,,,,,,,,,,,,,,,,,,,,,,,,,,,,,,,,,,,,,,,,,,,,,,,,,,,,,,,,,,,,,,,,,,,,,,,,,,,,,,,,,,,,,,,,,,,,,,,,,,,,,,,,,,,,,,,,,,,,,,,,,,,,,,,,,,,,
,,67f6a640d2046b13fcf33328,2026-03-17_16h16.44.855,kallum_motion_pilot_GIST_update_2,2026.1.1,Win32,60.60606061,67f6a640d2046b13fcf33328,69b95efdef24cd8a694e89ee,69b96126b14d28c02ad21bc5,0.1732,0.1732,0,133,133,120,1,fivesix,,,,,,,,,,,,,,,,,,,,,,,,,,,,,,,,,,,,,,,,,,,,,,,,,,,,,,,,,,,,,,,,,,,,,,,,,,,,,,,,,,,,,,,,,,,,,,,,,,,,,,,,,,,,,,,,,,,,,,,,,,,,,,,,,,,,,,,,,
,,67f6a640d2046b13fcf33328,2026-03-17_16h16.44.855,kallum_motion_pilot_GIST_update_2,2026.1.1,Win32,60.60606061,67f6a640d2046b13fcf33328,69b95efdef24cd8a694e89ee,69b96126b14d28c02ad21bc5,0.1734,0.1734,0,134,134,128,1,fivesix,,,,,,,,,,,,,,,,,,,,,,,,,,,,,,,,,,,,,,,,,,,,,,,,,,,,,,,,,,,,,,,,,,,,,,,,,,,,,,,,,,,,,,,,,,,,,,,,,,,,,,,,,,,,,,,,,,,,,,,,,,,,,,,,,,,,,,,,,
,,67f6a640d2046b13fcf33328,2026-03-17_16h16.44.855,kallum_motion_pilot_GIST_update_2,2026.1.1,Win32,60.60606061,67f6a640d2046b13fcf33328,69b95efdef24cd8a694e89ee,69b96126b14d28c02ad21bc5,0.1736,0.1736,0,135,135,133,1,seveneight,,,,,,,,,,,,,,,,,,,,,,,,,,,,,,,,,,,,,,,,,,,,,,,,,,,,,,,,,,,,,,,,,,,,,,,,,,,,,,,,,,,,,,,,,,,,,,,,,,,,,,,,,,,,,,,,,,,,,,,,,,,,,,,,,,,,,,,,,
,,67f6a640d2046b13fcf33328,2026-03-17_16h16.44.855,kallum_motion_pilot_GIST_update_2,2026.1.1,Win32,60.60606061,67f6a640d2046b13fcf33328,69b95efdef24cd8a694e89ee,69b96126b14d28c02ad21bc5,0.1738,0.1738,0,136,136,145,1,fiveseven,,,,,,,,,,,,,,,,,,,,,,,,,,,,,,,,,,,,,,,,,,,,,,,,,,,,,,,,,,,,,,,,,,,,,,,,,,,,,,,,,,,,,,,,,,,,,,,,,,,,,,,,,,,,,,,,,,,,,,,,,,,,,,,,,,,,,,,,,
,,67f6a640d2046b13fcf33328,2026-03-17_16h16.44.855,kallum_motion_pilot_GIST_update_2,2026.1.1,Win32,60.60606061,67f6a640d2046b13fcf33328,69b95efdef24cd8a694e89ee,69b96126b14d28c02ad21bc5,0.1739,0.1739,0,137,137,123,1,sixeight,,,,,,,,,,,,,,,,,,,,,,,,,,,,,,,,,,,,,,,,,,,,,,,,,,,,,,,,,,,,,,,,,,,,,,,,,,,,,,,,,,,,,,,,,,,,,,,,,,,,,,,,,,,,,,,,,,,,,,,,,,,,,,,,,,,,,,,,,
,,67f6a640d2046b13fcf33328,2026-03-17_16h16.44.855,kallum_motion_pilot_GIST_update_2,2026.1.1,Win32,60.60606061,67f6a640d2046b13fcf33328,69b95efdef24cd8a694e89ee,69b96126b14d28c02ad21bc5,0.1741,0.1741,0,138,138,51,1,twofour,,,,,,,,,,,,,,,,,,,,,,,,,,,,,,,,,,,,,,,,,,,,,,,,,,,,,,,,,,,,,,,,,,,,,,,,,,,,,,,,,,,,,,,,,,,,,,,,,,,,,,,,,,,,,,,,,,,,,,,,,,,,,,,,,,,,,,,,,
,,67f6a640d2046b13fcf33328,2026-03-17_16h16.44.855,kallum_motion_pilot_GIST_update_2,2026.1.1,Win32,60.60606061,67f6a640d2046b13fcf33328,69b95efdef24cd8a694e89ee,69b96126b14d28c02ad21bc5,0.1743,0.1743,0,139,139,65,1,onethree,,,,,,,,,,,,,,,,,,,,,,,,,,,,,,,,,,,,,,,,,,,,,,,,,,,,,,,,,,,,,,,,,,,,,,,,,,,,,,,,,,,,,,,,,,,,,,,,,,,,,,,,,,,,,,,,,,,,,,,,,,,,,,,,,,,,,,,,,
,,67f6a640d2046b13fcf33328,2026-03-17_16h16.44.855,kallum_motion_pilot_GIST_update_2,2026.1.1,Win32,60.60606061,67f6a640d2046b13fcf33328,69b95efdef24cd8a694e89ee,69b96126b14d28c02ad21bc5,0.1744,0.1744,0,140,140,137,1,fiveseven,,,,,,,,,,,,,,,,,,,,,,,,,,,,,,,,,,,,,,,,,,,,,,,,,,,,,,,,,,,,,,,,,,,,,,,,,,,,,,,,,,,,,,,,,,,,,,,,,,,,,,,,,,,,,,,,,,,,,,,,,,,,,,,,,,,,,,,,,
,,67f6a640d2046b13fcf33328,2026-03-17_16h16.44.855,kallum_motion_pilot_GIST_update_2,2026.1.1,Win32,60.60606061,67f6a640d2046b13fcf33328,69b95efdef24cd8a694e89ee,69b96126b14d28c02ad21bc5,0.1746,0.1746,0,141,141,56,1,onetwo,,,,,,,,,,,,,,,,,,,,,,,,,,,,,,,,,,,,,,,,,,,,,,,,,,,,,,,,,,,,,,,,,,,,,,,,,,,,,,,,,,,,,,,,,,,,,,,,,,,,,,,,,,,,,,,,,,,,,,,,,,,,,,,,,,,,,,,,,
,,67f6a640d2046b13fcf33328,2026-03-17_16h16.44.855,kallum_motion_pilot_GIST_update_2,2026.1.1,Win32,60.60606061,67f6a640d2046b13fcf33328,69b95efdef24cd8a694e89ee,69b96126b14d28c02ad21bc5,0.1748,0.1748,0,142,142,24,1,onetwo,,,,,,,,,,,,,,,,,,,,,,,,,,,,,,,,,,,,,,,,,,,,,,,,,,,,,,,,,,,,,,,,,,,,,,,,,,,,,,,,,,,,,,,,,,,,,,,,,,,,,,,,,,,,,,,,,,,,,,,,,,,,,,,,,,,,,,,,,
,,67f6a640d2046b13fcf33328,2026-03-17_16h16.44.855,kallum_motion_pilot_GIST_update_2,2026.1.1,Win32,60.60606061,67f6a640d2046b13fcf33328,69b95efdef24cd8a694e89ee,69b96126b14d28c02ad21bc5,0.1761,0.1762,0,143,143,80,1,fivesix,,,,,,,,,,,,,,,,,,,,,,,,,,,,,,,,,,,,,,,,,,,,,,,,,,,,,,,,,,,,,,,,,,,,,,,,,,,,,,,,,,,,,,,,,,,,,,,,,,,,,,,,,,,,,,,,,,,,,,,,,,,,,,,,,,,,,,,,,
,,67f6a640d2046b13fcf33328,2026-03-17_16h16.44.855,kallum_motion_pilot_GIST_update_2,2026.1.1,Win32,60.60606061,67f6a640d2046b13fcf33328,69b95efdef24cd8a694e89ee,69b96126b14d28c02ad21bc5,0.178,0.178,0,144,144,39,1,fourthree,,,,,,,,,,,,,,,,,,,,,,,,,,,,,,,,,,,,,,,,,,,,,,,,,,,,,,,,,,,,,,,,,,,,,,,,,,,,,,,,,,,,,,,,,,,,,,,,,,,,,,,,,,,,,,,,,,,,,,,,,,,,,,,,,,,,,,,,,
,,67f6a640d2046b13fcf33328,2026-03-17_16h16.44.855,kallum_motion_pilot_GIST_update_2,2026.1.1,Win32,60.60606061,67f6a640d2046b13fcf33328,69b95efdef24cd8a694e89ee,69b96126b14d28c02ad21bc5,0.1786,0.1786,0,145,145,125,1,seveneight,,,,,,,,,,,,,,,,,,,,,,,,,,,,,,,,,,,,,,,,,,,,,,,,,,,,,,,,,,,,,,,,,,,,,,,,,,,,,,,,,,,,,,,,,,,,,,,,,,,,,,,,,,,,,,,,,,,,,,,,,,,,,,,,,,,,,,,,,
,,67f6a640d2046b13fcf33328,2026-03-17_16h16.44.855,kallum_motion_pilot_GIST_update_2,2026.1.1,Win32,60.60606061,67f6a640d2046b13fcf33328,69b95efdef24cd8a694e89ee,69b96126b14d28c02ad21bc5,0.1791,0.1791,0,146,146,114,1,sixfive,,,,,,,,,,,,,,,,,,,,,,,,,,,,,,,,,,,,,,,,,,,,,,,,,,,,,,,,,,,,,,,,,,,,,,,,,,,,,,,,,,,,,,,,,,,,,,,,,,,,,,,,,,,,,,,,,,,,,,,,,,,,,,,,,,,,,,,,,
,,67f6a640d2046b13fcf33328,2026-03-17_16h16.44.855,kallum_motion_pilot_GIST_update_2,2026.1.1,Win32,60.60606061,67f6a640d2046b13fcf33328,69b95efdef24cd8a694e89ee,69b96126b14d28c02ad21bc5,0.1795,0.1795,0,147,147,161,1,fiveseven,,,,,,,,,,,,,,,,,,,,,,,,,,,,,,,,,,,,,,,,,,,,,,,,,,,,,,,,,,,,,,,,,,,,,,,,,,,,,,,,,,,,,,,,,,,,,,,,,,,,,,,,,,,,,,,,,,,,,,,,,,,,,,,,,,,,,,,,,
,,67f6a640d2046b13fcf33328,2026-03-17_16h16.44.855,kallum_motion_pilot_GIST_update_2,2026.1.1,Win32,60.60606061,67f6a640d2046b13fcf33328,69b95efdef24cd8a694e89ee,69b96126b14d28c02ad21bc5,0.1799,0.18,0,148,148,7,1,fourthree,,,,,,,,,,,,,,,,,,,,,,,,,,,,,,,,,,,,,,,,,,,,,,,,,,,,,,,,,,,,,,,,,,,,,,,,,,,,,,,,,,,,,,,,,,,,,,,,,,,,,,,,,,,,,,,,,,,,,,,,,,,,,,,,,,,,,,,,,
,,67f6a640d2046b13fcf33328,2026-03-17_16h16.44.855,kallum_motion_pilot_GIST_update_2,2026.1.1,Win32,60.60606061,67f6a640d2046b13fcf33328,69b95efdef24cd8a694e89ee,69b96126b14d28c02ad21bc5,0.1804,0.1804,0,149,149,130,1,sixfive,,,,,,,,,,,,,,,,,,,,,,,,,,,,,,,,,,,,,,,,,,,,,,,,,,,,,,,,,,,,,,,,,,,,,,,,,,,,,,,,,,,,,,,,,,,,,,,,,,,,,,,,,,,,,,,,,,,,,,,,,,,,,,,,,,,,,,,,,
,,67f6a640d2046b13fcf33328,2026-03-17_16h16.44.855,kallum_motion_pilot_GIST_update_2,2026.1.1,Win32,60.60606061,67f6a640d2046b13fcf33328,69b95efdef24cd8a694e89ee,69b96126b14d28c02ad21bc5,0.1808,0.1809,0,150,150,150,1,eightsix,,,,,,,,,,,,,,,,,,,,,,,,,,,,,,,,,,,,,,,,,,,,,,,,,,,,,,,,,,,,,,,,,,,,,,,,,,,,,,,,,,,,,,,,,,,,,,,,,,,,,,,,,,,,,,,,,,,,,,,,,,,,,,,,,,,,,,,,,
,,67f6a640d2046b13fcf33328,2026-03-17_16h16.44.855,kallum_motion_pilot_GIST_update_2,2026.1.1,Win32,60.60606061,67f6a640d2046b13fcf33328,69b95efdef24cd8a694e89ee,69b96126b14d28c02ad21bc5,0.1813,0.1813,0,151,151,83,1,sixeight,,,,,,,,,,,,,,,,,,,,,,,,,,,,,,,,,,,,,,,,,,,,,,,,,,,,,,,,,,,,,,,,,,,,,,,,,,,,,,,,,,,,,,,,,,,,,,,,,,,,,,,,,,,,,,,,,,,,,,,,,,,,,,,,,,,,,,,,,
,,67f6a640d2046b13fcf33328,2026-03-17_16h16.44.855,kallum_motion_pilot_GIST_update_2,2026.1.1,Win32,60.60606061,67f6a640d2046b13fcf33328,69b95efdef24cd8a694e89ee,69b96126b14d28c02ad21bc5,0.1818,0.1818,0,152,152,160,1,fivesix,,,,,,,,,,,,,,,,,,,,,,,,,,,,,,,,,,,,,,,,,,,,,,,,,,,,,,,,,,,,,,,,,,,,,,,,,,,,,,,,,,,,,,,,,,,,,,,,,,,,,,,,,,,,,,,,,,,,,,,,,,,,,,,,,,,,,,,,,
,,67f6a640d2046b13fcf33328,2026-03-17_16h16.44.855,kallum_motion_pilot_GIST_update_2,2026.1.1,Win32,60.60606061,67f6a640d2046b13fcf33328,69b95efdef24cd8a694e89ee,69b96126b14d28c02ad21bc5,0.1822,0.1823,0,153,153,136,1,fivesix,,,,,,,,,,,,,,,,,,,,,,,,,,,,,,,,,,,,,,,,,,,,,,,,,,,,,,,,,,,,,,,,,,,,,,,,,,,,,,,,,,,,,,,,,,,,,,,,,,,,,,,,,,,,,,,,,,,,,,,,,,,,,,,,,,,,,,,,,
,,67f6a640d2046b13fcf33328,2026-03-17_16h16.44.855,kallum_motion_pilot_GIST_update_2,2026.1.1,Win32,60.60606061,67f6a640d2046b13fcf33328,69b95efdef24cd8a694e89ee,69b96126b14d28c02ad21bc5,0.1826,0.1827,0,154,154,70,1,fourtwo,,,,,,,,,,,,,,,,,,,,,,,,,,,,,,,,,,,,,,,,,,,,,,,,,,,,,,,,,,,,,,,,,,,,,,,,,,,,,,,,,,,,,,,,,,,,,,,,,,,,,,,,,,,,,,,,,,,,,,,,,,,,,,,,,,,,,,,,,
,,67f6a640d2046b13fcf33328,2026-03-17_16h16.44.855,kallum_motion_pilot_GIST_update_2,2026.1.1,Win32,60.60606061,67f6a640d2046b13fcf33328,69b95efdef24cd8a694e89ee,69b96126b14d28c02ad21bc5,0.1831,0.1831,0,155,155,22,1,fourtwo,,,,,,,,,,,,,,,,,,,,,,,,,,,,,,,,,,,,,,,,,,,,,,,,,,,,,,,,,,,,,,,,,,,,,,,,,,,,,,,,,,,,,,,,,,,,,,,,,,,,,,,,,,,,,,,,,,,,,,,,,,,,,,,,,,,,,,,,,
,,67f6a640d2046b13fcf33328,2026-03-17_16h16.44.855,kallum_motion_pilot_GIST_update_2,2026.1.1,Win32,60.60606061,67f6a640d2046b13fcf33328,69b95efdef24cd8a694e89ee,69b96126b14d28c02ad21bc5,0.1835,0.1835,0,156,156,35,1,twofour,,,,,,,,,,,,,,,,,,,,,,,,,,,,,,,,,,,,,,,,,,,,,,,,,,,,,,,,,,,,,,,,,,,,,,,,,,,,,,,,,,,,,,,,,,,,,,,,,,,,,,,,,,,,,,,,,,,,,,,,,,,,,,,,,,,,,,,,,
,,67f6a640d2046b13fcf33328,2026-03-17_16h16.44.855,kallum_motion_pilot_GIST_update_2,2026.1.1,Win32,60.60606061,67f6a640d2046b13fcf33328,69b95efdef24cd8a694e89ee,69b96126b14d28c02ad21bc5,0.1841,0.1841,0,157,157,88,1,fivesix,,,,,,,,,,,,,,,,,,,,,,,,,,,,,,,,,,,,,,,,,,,,,,,,,,,,,,,,,,,,,,,,,,,,,,,,,,,,,,,,,,,,,,,,,,,,,,,,,,,,,,,,,,,,,,,,,,,,,,,,,,,,,,,,,,,,,,,,,
,,67f6a640d2046b13fcf33328,2026-03-17_16h16.44.855,kallum_motion_pilot_GIST_update_2,2026.1.1,Win32,60.60606061,67f6a640d2046b13fcf33328,69b95efdef24cd8a694e89ee,69b96126b14d28c02ad21bc5,0.1848,0.1848,0,158,158,78,1,fourtwo,,,,,,,,,,,,,,,,,,,,,,,,,,,,,,,,,,,,,,,,,,,,,,,,,,,,,,,,,,,,,,,,,,,,,,,,,,,,,,,,,,,,,,,,,,,,,,,,,,,,,,,,,,,,,,,,,,,,,,,,,,,,,,,,,,,,,,,,,
,,67f6a640d2046b13fcf33328,2026-03-17_16h16.44.855,kallum_motion_pilot_GIST_update_2,2026.1.1,Win32,60.60606061,67f6a640d2046b13fcf33328,69b95efdef24cd8a694e89ee,69b96126b14d28c02ad21bc5,0.1854,0.1854,0,159,159,33,1,onethree,,,,,,,,,,,,,,,,,,,,,,,,,,,,,,,,,,,,,,,,,,,,,,,,,,,,,,,,,,,,,,,,,,,,,,,,,,,,,,,,,,,,,,,,,,,,,,,,,,,,,,,,,,,,,,,,,,,,,,,,,,,,,,,,,,,,,,,,,
,,67f6a640d2046b13fcf33328,2026-03-17_16h16.44.855,kallum_motion_pilot_GIST_update_2,2026.1.1,Win32,60.60606061,67f6a640d2046b13fcf33328,69b95efdef24cd8a694e89ee,69b96126b14d28c02ad21bc5,0.1858,0.1859,0,160,160,157,1,seveneight,,,,,,,,,,,,,,,,,,,,,,,,,,,,,,,,,,,,,,,,,,,,,,,,,,,,,,,,,,,,,,,,,,,,,,,,,,,,,,,,,,,,,,,,,,,,,,,,,,,,,,,,,,,,,,,,,,,,,,,,,,,,,,,,,,,,,,,,,
,,67f6a640d2046b13fcf33328,2026-03-17_16h16.44.855,kallum_motion_pilot_GIST_update_2,2026.1.1,Win32,60.60606061,67f6a640d2046b13fcf33328,69b95efdef24cd8a694e89ee,69b96126b14d28c02ad21bc5,0.1863,0.1866,0,161,161,77,1,threefour,,,,,,,,,,,,,,,,,,,,,,,,,,,,,,,,,,,,,,,,,,,,,,,,,,,,,,,,,,,,,,,,,,,,,,,,,,,,,,,,,,,,,,,,,,,,,,,,,,,,,,,,,,,,,,,,,,,,,,,,,,,,,,,,,,,,,,,,,
,,67f6a640d2046b13fcf33328,2026-03-17_16h16.44.855,kallum_motion_pilot_GIST_update_2,2026.1.1,Win32,60.60606061,67f6a640d2046b13fcf33328,69b95efdef24cd8a694e89ee,69b96126b14d28c02ad21bc5,0.1873,0.1874,1,0,162,79,1,eightseven,,,,,,,,,,,,,,,,,,,,,,,,,,,,,,,,,,,,,,,,,,,,,,,,,,,,,,,,,,,,,,,,,,,,,,,,,,,,,,,,,,,,,,,,,,,,,,,,,,,,,,,,,,,,,,,,,,,,,,,,,,,,,,,,,,,,,,,,,
,,67f6a640d2046b13fcf33328,2026-03-17_16h16.44.855,kallum_motion_pilot_GIST_update_2,2026.1.1,Win32,60.60606061,67f6a640d2046b13fcf33328,69b95efdef24cd8a694e89ee,69b96126b14d28c02ad21bc5,0.1879,0.188,1,1,163,78,1,fourtwo,,,,,,,,,,,,,,,,,,,,,,,,,,,,,,,,,,,,,,,,,,,,,,,,,,,,,,,,,,,,,,,,,,,,,,,,,,,,,,,,,,,,,,,,,,,,,,,,,,,,,,,,,,,,,,,,,,,,,,,,,,,,,,,,,,,,,,,,,
,,67f6a640d2046b13fcf33328,2026-03-17_16h16.44.855,kallum_motion_pilot_GIST_update_2,2026.1.1,Win32,60.60606061,67f6a640d2046b13fcf33328,69b95efdef24cd8a694e89ee,69b96126b14d28c02ad21bc5,0.1886,0.1886,1,2,164,128,1,fivesix,,,,,,,,,,,,,,,,,,,,,,,,,,,,,,,,,,,,,,,,,,,,,,,,,,,,,,,,,,,,,,,,,,,,,,,,,,,,,,,,,,,,,,,,,,,,,,,,,,,,,,,,,,,,,,,,,,,,,,,,,,,,,,,,,,,,,,,,,
,,67f6a640d2046b13fcf33328,2026-03-17_16h16.44.855,kallum_motion_pilot_GIST_update_2,2026.1.1,Win32,60.60606061,67f6a640d2046b13fcf33328,69b95efdef24cd8a694e89ee,69b96126b14d28c02ad21bc5,0.1891,0.1891,1,3,165,156,1,sevenfive,,,,,,,,,,,,,,,,,,,,,,,,,,,,,,,,,,,,,,,,,,,,,,,,,,,,,,,,,,,,,,,,,,,,,,,,,,,,,,,,,,,,,,,,,,,,,,,,,,,,,,,,,,,,,,,,,,,,,,,,,,,,,,,,,,,,,,,,,
,,67f6a640d2046b13fcf33328,2026-03-17_16h16.44.855,kallum_motion_pilot_GIST_update_2,2026.1.1,Win32,60.60606061,67f6a640d2046b13fcf33328,69b95efdef24cd8a694e89ee,69b96126b14d28c02ad21bc5,0.1895,0.1895,1,4,166,86,1,eightsix,,,,,,,,,,,,,,,,,,,,,,,,,,,,,,,,,,,,,,,,,,,,,,,,,,,,,,,,,,,,,,,,,,,,,,,,,,,,,,,,,,,,,,,,,,,,,,,,,,,,,,,,,,,,,,,,,,,,,,,,,,,,,,,,,,,,,,,,,
,,67f6a640d2046b13fcf33328,2026-03-17_16h16.44.855,kallum_motion_pilot_GIST_update_2,2026.1.1,Win32,60.60606061,67f6a640d2046b13fcf33328,69b95efdef24cd8a694e89ee,69b96126b14d28c02ad21bc5,0.1899,0.19,1,5,167,15,1,fourthree,,,,,,,,,,,,,,,,,,,,,,,,,,,,,,,,,,,,,,,,,,,,,,,,,,,,,,,,,,,,,,,,,,,,,,,,,,,,,,,,,,,,,,,,,,,,,,,,,,,,,,,,,,,,,,,,,,,,,,,,,,,,,,,,,,,,,,,,,
,,67f6a640d2046b13fcf33328,2026-03-17_16h16.44.855,kallum_motion_pilot_GIST_update_2,2026.1.1,Win32,60.60606061,67f6a640d2046b13fcf33328,69b95efdef24cd8a694e89ee,69b96126b14d28c02ad21bc5,0.1904,0.1904,1,6,168,80,1,fivesix,,,,,,,,,,,,,,,,,,,,,,,,,,,,,,,,,,,,,,,,,,,,,,,,,,,,,,,,,,,,,,,,,,,,,,,,,,,,,,,,,,,,,,,,,,,,,,,,,,,,,,,,,,,,,,,,,,,,,,,,,,,,,,,,,,,,,,,,,
,,67f6a640d2046b13fcf33328,2026-03-17_16h16.44.855,kallum_motion_pilot_GIST_update_2,2026.1.1,Win32,60.60606061,67f6a640d2046b13fcf33328,69b95efdef24cd8a694e89ee,69b96126b14d28c02ad21bc5,0.191,0.191,1,7,169,90,1,sixfive,,,,,,,,,,,,,,,,,,,,,,,,,,,,,,,,,,,,,,,,,,,,,,,,,,,,,,,,,,,,,,,,,,,,,,,,,,,,,,,,,,,,,,,,,,,,,,,,,,,,,,,,,,,,,,,,,,,,,,,,,,,,,,,,,,,,,,,,,
,,67f6a640d2046b13fcf33328,2026-03-17_16h16.44.855,kallum_motion_pilot_GIST_update_2,2026.1.1,Win32,60.60606061,67f6a640d2046b13fcf33328,69b95efdef24cd8a694e89ee,69b96126b14d28c02ad21bc5,0.1914,0.1915,1,8,170,5,1,threefour,,,,,,,,,,,,,,,,,,,,,,,,,,,,,,,,,,,,,,,,,,,,,,,,,,,,,,,,,,,,,,,,,,,,,,,,,,,,,,,,,,,,,,,,,,,,,,,,,,,,,,,,,,,,,,,,,,,,,,,,,,,,,,,,,,,,,,,,,
,,67f6a640d2046b13fcf33328,2026-03-17_16h16.44.855,kallum_motion_pilot_GIST_update_2,2026.1.1,Win32,60.60606061,67f6a640d2046b13fcf33328,69b95efdef24cd8a694e89ee,69b96126b14d28c02ad21bc5,0.1919,0.1919,1,9,171,21,1,threefour,,,,,,,,,,,,,,,,,,,,,,,,,,,,,,,,,,,,,,,,,,,,,,,,,,,,,,,,,,,,,,,,,,,,,,,,,,,,,,,,,,,,,,,,,,,,,,,,,,,,,,,,,,,,,,,,,,,,,,,,,,,,,,,,,,,,,,,,,
,,67f6a640d2046b13fcf33328,2026-03-17_16h16.44.855,kallum_motion_pilot_GIST_update_2,2026.1.1,Win32,60.60606061,67f6a640d2046b13fcf33328,69b95efdef24cd8a694e89ee,69b96126b14d28c02ad21bc5,0.1923,0.1924,1,10,172,105,1,fiveseven,,,,,,,,,,,,,,,,,,,,,,,,,,,,,,,,,,,,,,,,,,,,,,,,,,,,,,,,,,,,,,,,,,,,,,,,,,,,,,,,,,,,,,,,,,,,,,,,,,,,,,,,,,,,,,,,,,,,,,,,,,,,,,,,,,,,,,,,,
,,67f6a640d2046b13fcf33328,2026-03-17_16h16.44.855,kallum_motion_pilot_GIST_update_2,2026.1.1,Win32,60.60606061,67f6a640d2046b13fcf33328,69b95efdef24cd8a694e89ee,69b96126b14d28c02ad21bc5,0.1938,0.1938,1,11,173,117,1,seveneight,,,,,,,,,,,,,,,,,,,,,,,,,,,,,,,,,,,,,,,,,,,,,,,,,,,,,,,,,,,,,,,,,,,,,,,,,,,,,,,,,,,,,,,,,,,,,,,,,,,,,,,,,,,,,,,,,,,,,,,,,,,,,,,,,,,,,,,,,
,,67f6a640d2046b13fcf33328,2026-03-17_16h16.44.855,kallum_motion_pilot_GIST_update_2,2026.1.1,Win32,60.60606061,67f6a640d2046b13fcf33328,69b95efdef24cd8a694e89ee,69b96126b14d28c02ad21bc5,0.195,0.195,1,12,174,34,1,twoone,,,,,,,,,,,,,,,,,,,,,,,,,,,,,,,,,,,,,,,,,,,,,,,,,,,,,,,,,,,,,,,,,,,,,,,,,,,,,,,,,,,,,,,,,,,,,,,,,,,,,,,,,,,,,,,,,,,,,,,,,,,,,,,,,,,,,,,,,
,,67f6a640d2046b13fcf33328,2026-03-17_16h16.44.855,kallum_motion_pilot_GIST_update_2,2026.1.1,Win32,60.60606061,67f6a640d2046b13fcf33328,69b95efdef24cd8a694e89ee,69b96126b14d28c02ad21bc5,0.1952,0.1953,1,13,175,131,1,sixeight,,,,,,,,,,,,,,,,,,,,,,,,,,,,,,,,,,,,,,,,,,,,,,,,,,,,,,,,,,,,,,,,,,,,,,,,,,,,,,,,,,,,,,,,,,,,,,,,,,,,,,,,,,,,,,,,,,,,,,,,,,,,,,,,,,,,,,,,,
,,67f6a640d2046b13fcf33328,2026-03-17_16h16.44.855,kallum_motion_pilot_GIST_update_2,2026.1.1,Win32,60.60606061,67f6a640d2046b13fcf33328,69b95efdef24cd8a694e89ee,69b96126b14d28c02ad21bc5,0.1958,0.1958,1,14,176,84,1,sevenfive,,,,,,,,,,,,,,,,,,,,,,,,,,,,,,,,,,,,,,,,,,,,,,,,,,,,,,,,,,,,,,,,,,,,,,,,,,,,,,,,,,,,,,,,,,,,,,,,,,,,,,,,,,,,,,,,,,,,,,,,,,,,,,,,,,,,,,,,,
,,67f6a640d2046b13fcf33328,2026-03-17_16h16.44.855,kallum_motion_pilot_GIST_update_2,2026.1.1,Win32,60.60606061,67f6a640d2046b13fcf33328,69b95efdef24cd8a694e89ee,69b96126b14d28c02ad21bc5,0.1965,0.1965,1,15,177,73,1,onethree,,,,,,,,,,,,,,,,,,,,,,,,,,,,,,,,,,,,,,,,,,,,,,,,,,,,,,,,,,,,,,,,,,,,,,,,,,,,,,,,,,,,,,,,,,,,,,,,,,,,,,,,,,,,,,,,,,,,,,,,,,,,,,,,,,,,,,,,,
,,67f6a640d2046b13fcf33328,2026-03-17_16h16.44.855,kallum_motion_pilot_GIST_update_2,2026.1.1,Win32,60.60606061,67f6a640d2046b13fcf33328,69b95efdef24cd8a694e89ee,69b96126b14d28c02ad21bc5,0.1972,0.1972,1,16,178,83,1,sixeight,,,,,,,,,,,,,,,,,,,,,,,,,,,,,,,,,,,,,,,,,,,,,,,,,,,,,,,,,,,,,,,,,,,,,,,,,,,,,,,,,,,,,,,,,,,,,,,,,,,,,,,,,,,,,,,,,,,,,,,,,,,,,,,,,,,,,,,,,
,,67f6a640d2046b13fcf33328,2026-03-17_16h16.44.855,kallum_motion_pilot_GIST_update_2,2026.1.1,Win32,60.60606061,67f6a640d2046b13fcf33328,69b95efdef24cd8a694e89ee,69b96126b14d28c02ad21bc5,0.1977,0.1977,1,17,179,102,1,eightsix,,,,,,,,,,,,,,,,,,,,,,,,,,,,,,,,,,,,,,,,,,,,,,,,,,,,,,,,,,,,,,,,,,,,,,,,,,,,,,,,,,,,,,,,,,,,,,,,,,,,,,,,,,,,,,,,,,,,,,,,,,,,,,,,,,,,,,,,,
,,67f6a640d2046b13fcf33328,2026-03-17_16h16.44.855,kallum_motion_pilot_GIST_update_2,2026.1.1,Win32,60.60606061,67f6a640d2046b13fcf33328,69b95efdef24cd8a694e89ee,69b96126b14d28c02ad21bc5,0.1981,0.1981,1,18,180,139,1,sixeight,,,,,,,,,,,,,,,,,,,,,,,,,,,,,,,,,,,,,,,,,,,,,,,,,,,,,,,,,,,,,,,,,,,,,,,,,,,,,,,,,,,,,,,,,,,,,,,,,,,,,,,,,,,,,,,,,,,,,,,,,,,,,,,,,,,,,,,,,
,,67f6a640d2046b13fcf33328,2026-03-17_16h16.44.855,kallum_motion_pilot_GIST_update_2,2026.1.1,Win32,60.60606061,67f6a640d2046b13fcf33328,69b95efdef24cd8a694e89ee,69b96126b14d28c02ad21bc5,0.1986,0.1986,1,19,181,94,1,eightsix,,,,,,,,,,,,,,,,,,,,,,,,,,,,,,,,,,,,,,,,,,,,,,,,,,,,,,,,,,,,,,,,,,,,,,,,,,,,,,,,,,,,,,,,,,,,,,,,,,,,,,,,,,,,,,,,,,,,,,,,,,,,,,,,,,,,,,,,,
,,67f6a640d2046b13fcf33328,2026-03-17_16h16.44.855,kallum_motion_pilot_GIST_update_2,2026.1.1,Win32,60.60606061,67f6a640d2046b13fcf33328,69b95efdef24cd8a694e89ee,69b96126b14d28c02ad21bc5,0.199,0.1991,1,20,182,39,1,fourthree,,,,,,,,,,,,,,,,,,,,,,,,,,,,,,,,,,,,,,,,,,,,,,,,,,,,,,,,,,,,,,,,,,,,,,,,,,,,,,,,,,,,,,,,,,,,,,,,,,,,,,,,,,,,,,,,,,,,,,,,,,,,,,,,,,,,,,,,,
,,67f6a640d2046b13fcf33328,2026-03-17_16h16.44.855,kallum_motion_pilot_GIST_update_2,2026.1.1,Win32,60.60606061,67f6a640d2046b13fcf33328,69b95efdef24cd8a694e89ee,69b96126b14d28c02ad21bc5,0.1994,0.1995,1,21,183,66,1,twoone,,,,,,,,,,,,,,,,,,,,,,,,,,,,,,,,,,,,,,,,,,,,,,,,,,,,,,,,,,,,,,,,,,,,,,,,,,,,,,,,,,,,,,,,,,,,,,,,,,,,,,,,,,,,,,,,,,,,,,,,,,,,,,,,,,,,,,,,,
,,67f6a640d2046b13fcf33328,2026-03-17_16h16.44.855,kallum_motion_pilot_GIST_update_2,2026.1.1,Win32,60.60606061,67f6a640d2046b13fcf33328,69b95efdef24cd8a694e89ee,69b96126b14d28c02ad21bc5,0.2,0.2,1,22,184,132,1,sevenfive,,,,,,,,,,,,,,,,,,,,,,,,,,,,,,,,,,,,,,,,,,,,,,,,,,,,,,,,,,,,,,,,,,,,,,,,,,,,,,,,,,,,,,,,,,,,,,,,,,,,,,,,,,,,,,,,,,,,,,,,,,,,,,,,,,,,,,,,,
,,67f6a640d2046b13fcf33328,2026-03-17_16h16.44.855,kallum_motion_pilot_GIST_update_2,2026.1.1,Win32,60.60606061,67f6a640d2046b13fcf33328,69b95efdef24cd8a694e89ee,69b96126b14d28c02ad21bc5,0.2004,0.2005,1,23,185,109,1,seveneight,,,,,,,,,,,,,,,,,,,,,,,,,,,,,,,,,,,,,,,,,,,,,,,,,,,,,,,,,,,,,,,,,,,,,,,,,,,,,,,,,,,,,,,,,,,,,,,,,,,,,,,,,,,,,,,,,,,,,,,,,,,,,,,,,,,,,,,,,
,,67f6a640d2046b13fcf33328,2026-03-17_16h16.44.855,kallum_motion_pilot_GIST_update_2,2026.1.1,Win32,60.60606061,67f6a640d2046b13fcf33328,69b95efdef24cd8a694e89ee,69b96126b14d28c02ad21bc5,0.2009,0.201,1,24,186,100,1,sevenfive,,,,,,,,,,,,,,,,,,,,,,,,,,,,,,,,,,,,,,,,,,,,,,,,,,,,,,,,,,,,,,,,,,,,,,,,,,,,,,,,,,,,,,,,,,,,,,,,,,,,,,,,,,,,,,,,,,,,,,,,,,,,,,,,,,,,,,,,,
,,67f6a640d2046b13fcf33328,2026-03-17_16h16.44.855,kallum_motion_pilot_GIST_update_2,2026.1.1,Win32,60.60606061,67f6a640d2046b13fcf33328,69b95efdef24cd8a694e89ee,69b96126b14d28c02ad21bc5,0.2019,0.2019,1,25,187,141,1,seveneight,,,,,,,,,,,,,,,,,,,,,,,,,,,,,,,,,,,,,,,,,,,,,,,,,,,,,,,,,,,,,,,,,,,,,,,,,,,,,,,,,,,,,,,,,,,,,,,,,,,,,,,,,,,,,,,,,,,,,,,,,,,,,,,,,,,,,,,,,
,,67f6a640d2046b13fcf33328,2026-03-17_16h16.44.855,kallum_motion_pilot_GIST_update_2,2026.1.1,Win32,60.60606061,67f6a640d2046b13fcf33328,69b95efdef24cd8a694e89ee,69b96126b14d28c02ad21bc5,0.2026,0.2026,1,26,188,20,1,threeone,,,,,,,,,,,,,,,,,,,,,,,,,,,,,,,,,,,,,,,,,,,,,,,,,,,,,,,,,,,,,,,,,,,,,,,,,,,,,,,,,,,,,,,,,,,,,,,,,,,,,,,,,,,,,,,,,,,,,,,,,,,,,,,,,,,,,,,,,
,,67f6a640d2046b13fcf33328,2026-03-17_16h16.44.855,kallum_motion_pilot_GIST_update_2,2026.1.1,Win32,60.60606061,67f6a640d2046b13fcf33328,69b95efdef24cd8a694e89ee,69b96126b14d28c02ad21bc5,0.2031,0.2031,1,27,189,19,1,twofour,,,,,,,,,,,,,,,,,,,,,,,,,,,,,,,,,,,,,,,,,,,,,,,,,,,,,,,,,,,,,,,,,,,,,,,,,,,,,,,,,,,,,,,,,,,,,,,,,,,,,,,,,,,,,,,,,,,,,,,,,,,,,,,,,,,,,,,,,
,,67f6a640d2046b13fcf33328,2026-03-17_16h16.44.855,kallum_motion_pilot_GIST_update_2,2026.1.1,Win32,60.60606061,67f6a640d2046b13fcf33328,69b95efdef24cd8a694e89ee,69b96126b14d28c02ad21bc5,0.2035,0.2036,1,28,190,61,1,threefour,,,,,,,,,,,,,,,,,,,,,,,,,,,,,,,,,,,,,,,,,,,,,,,,,,,,,,,,,,,,,,,,,,,,,,,,,,,,,,,,,,,,,,,,,,,,,,,,,,,,,,,,,,,,,,,,,,,,,,,,,,,,,,,,,,,,,,,,,
,,67f6a640d2046b13fcf33328,2026-03-17_16h16.44.855,kallum_motion_pilot_GIST_update_2,2026.1.1,Win32,60.60606061,67f6a640d2046b13fcf33328,69b95efdef24cd8a694e89ee,69b96126b14d28c02ad21bc5,0.2041,0.2041,1,29,191,36,1,threeone,,,,,,,,,,,,,,,,,,,,,,,,,,,,,,,,,,,,,,,,,,,,,,,,,,,,,,,,,,,,,,,,,,,,,,,,,,,,,,,,,,,,,,,,,,,,,,,,,,,,,,,,,,,,,,,,,,,,,,,,,,,,,,,,,,,,,,,,,
,,67f6a640d2046b13fcf33328,2026-03-17_16h16.44.855,kallum_motion_pilot_GIST_update_2,2026.1.1,Win32,60.60606061,67f6a640d2046b13fcf33328,69b95efdef24cd8a694e89ee,69b96126b14d28c02ad21bc5,0.2044,0.2045,1,30,192,53,1,threefour,,,,,,,,,,,,,,,,,,,,,,,,,,,,,,,,,,,,,,,,,,,,,,,,,,,,,,,,,,,,,,,,,,,,,,,,,,,,,,,,,,,,,,,,,,,,,,,,,,,,,,,,,,,,,,,,,,,,,,,,,,,,,,,,,,,,,,,,,
,,67f6a640d2046b13fcf33328,2026-03-17_16h16.44.855,kallum_motion_pilot_GIST_update_2,2026.1.1,Win32,60.60606061,67f6a640d2046b13fcf33328,69b95efdef24cd8a694e89ee,69b96126b14d28c02ad21bc5,0.205,0.205,1,31,193,47,1,fourthree,,,,,,,,,,,,,,,,,,,,,,,,,,,,,,,,,,,,,,,,,,,,,,,,,,,,,,,,,,,,,,,,,,,,,,,,,,,,,,,,,,,,,,,,,,,,,,,,,,,,,,,,,,,,,,,,,,,,,,,,,,,,,,,,,,,,,,,,,
,,67f6a640d2046b13fcf33328,2026-03-17_16h16.44.855,kallum_motion_pilot_GIST_update_2,2026.1.1,Win32,60.60606061,67f6a640d2046b13fcf33328,69b95efdef24cd8a694e89ee,69b96126b14d28c02ad21bc5,0.2059,0.2059,1,32,194,59,1,twofour,,,,,,,,,,,,,,,,,,,,,,,,,,,,,,,,,,,,,,,,,,,,,,,,,,,,,,,,,,,,,,,,,,,,,,,,,,,,,,,,,,,,,,,,,,,,,,,,,,,,,,,,,,,,,,,,,,,,,,,,,,,,,,,,,,,,,,,,,
,,67f6a640d2046b13fcf33328,2026-03-17_16h16.44.855,kallum_motion_pilot_GIST_update_2,2026.1.1,Win32,60.60606061,67f6a640d2046b13fcf33328,69b95efdef24cd8a694e89ee,69b96126b14d28c02ad21bc5,0.2065,0.2066,1,33,195,22,1,fourtwo,,,,,,,,,,,,,,,,,,,,,,,,,,,,,,,,,,,,,,,,,,,,,,,,,,,,,,,,,,,,,,,,,,,,,,,,,,,,,,,,,,,,,,,,,,,,,,,,,,,,,,,,,,,,,,,,,,,,,,,,,,,,,,,,,,,,,,,,,
,,67f6a640d2046b13fcf33328,2026-03-17_16h16.44.855,kallum_motion_pilot_GIST_update_2,2026.1.1,Win32,60.60606061,67f6a640d2046b13fcf33328,69b95efdef24cd8a694e89ee,69b96126b14d28c02ad21bc5,0.2072,0.2072,1,34,196,99,1,sixeight,,,,,,,,,,,,,,,,,,,,,,,,,,,,,,,,,,,,,,,,,,,,,,,,,,,,,,,,,,,,,,,,,,,,,,,,,,,,,,,,,,,,,,,,,,,,,,,,,,,,,,,,,,,,,,,,,,,,,,,,,,,,,,,,,,,,,,,,,
,,67f6a640d2046b13fcf33328,2026-03-17_16h16.44.855,kallum_motion_pilot_GIST_update_2,2026.1.1,Win32,60.60606061,67f6a640d2046b13fcf33328,69b95efdef24cd8a694e89ee,69b96126b14d28c02ad21bc5,0.2079,0.2079,1,35,197,115,1,sixeight,,,,,,,,,,,,,,,,,,,,,,,,,,,,,,,,,,,,,,,,,,,,,,,,,,,,,,,,,,,,,,,,,,,,,,,,,,,,,,,,,,,,,,,,,,,,,,,,,,,,,,,,,,,,,,,,,,,,,,,,,,,,,,,,,,,,,,,,,
,,67f6a640d2046b13fcf33328,2026-03-17_16h16.44.855,kallum_motion_pilot_GIST_update_2,2026.1.1,Win32,60.60606061,67f6a640d2046b13fcf33328,69b95efdef24cd8a694e89ee,69b96126b14d28c02ad21bc5,0.2092,0.2093,1,36,198,85,1,seveneight,,,,,,,,,,,,,,,,,,,,,,,,,,,,,,,,,,,,,,,,,,,,,,,,,,,,,,,,,,,,,,,,,,,,,,,,,,,,,,,,,,,,,,,,,,,,,,,,,,,,,,,,,,,,,,,,,,,,,,,,,,,,,,,,,,,,,,,,,
,,67f6a640d2046b13fcf33328,2026-03-17_16h16.44.855,kallum_motion_pilot_GIST_update_2,2026.1.1,Win32,60.60606061,67f6a640d2046b13fcf33328,69b95efdef24cd8a694e89ee,69b96126b14d28c02ad21bc5,0.2098,0.2098,1,37,199,151,1,eightseven,,,,,,,,,,,,,,,,,,,,,,,,,,,,,,,,,,,,,,,,,,,,,,,,,,,,,,,,,,,,,,,,,,,,,,,,,,,,,,,,,,,,,,,,,,,,,,,,,,,,,,,,,,,,,,,,,,,,,,,,,,,,,,,,,,,,,,,,,
,,67f6a640d2046b13fcf33328,2026-03-17_16h16.44.855,kallum_motion_pilot_GIST_update_2,2026.1.1,Win32,60.60606061,67f6a640d2046b13fcf33328,69b95efdef24cd8a694e89ee,69b96126b14d28c02ad21bc5,0.2104,0.2105,1,38,200,27,1,twofour,,,,,,,,,,,,,,,,,,,,,,,,,,,,,,,,,,,,,,,,,,,,,,,,,,,,,,,,,,,,,,,,,,,,,,,,,,,,,,,,,,,,,,,,,,,,,,,,,,,,,,,,,,,,,,,,,,,,,,,,,,,,,,,,,,,,,,,,,
,,67f6a640d2046b13fcf33328,2026-03-17_16h16.44.855,kallum_motion_pilot_GIST_update_2,2026.1.1,Win32,60.60606061,67f6a640d2046b13fcf33328,69b95efdef24cd8a694e89ee,69b96126b14d28c02ad21bc5,0.2115,0.2116,1,39,201,38,1,fourtwo,,,,,,,,,,,,,,,,,,,,,,,,,,,,,,,,,,,,,,,,,,,,,,,,,,,,,,,,,,,,,,,,,,,,,,,,,,,,,,,,,,,,,,,,,,,,,,,,,,,,,,,,,,,,,,,,,,,,,,,,,,,,,,,,,,,,,,,,,
,,67f6a640d2046b13fcf33328,2026-03-17_16h16.44.855,kallum_motion_pilot_GIST_update_2,2026.1.1,Win32,60.60606061,67f6a640d2046b13fcf33328,69b95efdef24cd8a694e89ee,69b96126b14d28c02ad21bc5,0.2121,0.2121,1,40,202,57,1,onethree,,,,,,,,,,,,,,,,,,,,,,,,,,,,,,,,,,,,,,,,,,,,,,,,,,,,,,,,,,,,,,,,,,,,,,,,,,,,,,,,,,,,,,,,,,,,,,,,,,,,,,,,,,,,,,,,,,,,,,,,,,,,,,,,,,,,,,,,,
,,67f6a640d2046b13fcf33328,2026-03-17_16h16.44.855,kallum_motion_pilot_GIST_update_2,2026.1.1,Win32,60.60606061,67f6a640d2046b13fcf33328,69b95efdef24cd8a694e89ee,69b96126b14d28c02ad21bc5,0.2126,0.2126,1,41,203,112,1,fivesix,,,,,,,,,,,,,,,,,,,,,,,,,,,,,,,,,,,,,,,,,,,,,,,,,,,,,,,,,,,,,,,,,,,,,,,,,,,,,,,,,,,,,,,,,,,,,,,,,,,,,,,,,,,,,,,,,,,,,,,,,,,,,,,,,,,,,,,,,
,,67f6a640d2046b13fcf33328,2026-03-17_16h16.44.855,kallum_motion_pilot_GIST_update_2,2026.1.1,Win32,60.60606061,67f6a640d2046b13fcf33328,69b95efdef24cd8a694e89ee,69b96126b14d28c02ad21bc5,0.213,0.2131,1,42,204,50,1,twoone,,,,,,,,,,,,,,,,,,,,,,,,,,,,,,,,,,,,,,,,,,,,,,,,,,,,,,,,,,,,,,,,,,,,,,,,,,,,,,,,,,,,,,,,,,,,,,,,,,,,,,,,,,,,,,,,,,,,,,,,,,,,,,,,,,,,,,,,,
,,67f6a640d2046b13fcf33328,2026-03-17_16h16.44.855,kallum_motion_pilot_GIST_update_2,2026.1.1,Win32,60.60606061,67f6a640d2046b13fcf33328,69b95efdef24cd8a694e89ee,69b96126b14d28c02ad21bc5,0.2137,0.2137,1,43,205,11,1,twofour,,,,,,,,,,,,,,,,,,,,,,,,,,,,,,,,,,,,,,,,,,,,,,,,,,,,,,,,,,,,,,,,,,,,,,,,,,,,,,,,,,,,,,,,,,,,,,,,,,,,,,,,,,,,,,,,,,,,,,,,,,,,,,,,,,,,,,,,,
,,67f6a640d2046b13fcf33328,2026-03-17_16h16.44.855,kallum_motion_pilot_GIST_update_2,2026.1.1,Win32,60.60606061,67f6a640d2046b13fcf33328,69b95efdef24cd8a694e89ee,69b96126b14d28c02ad21bc5,0.2143,0.2143,1,44,206,76,1,threeone,,,,,,,,,,,,,,,,,,,,,,,,,,,,,,,,,,,,,,,,,,,,,,,,,,,,,,,,,,,,,,,,,,,,,,,,,,,,,,,,,,,,,,,,,,,,,,,,,,,,,,,,,,,,,,,,,,,,,,,,,,,,,,,,,,,,,,,,,
,,67f6a640d2046b13fcf33328,2026-03-17_16h16.44.855,kallum_motion_pilot_GIST_update_2,2026.1.1,Win32,60.60606061,67f6a640d2046b13fcf33328,69b95efdef24cd8a694e89ee,69b96126b14d28c02ad21bc5,0.2147,0.2147,1,45,207,64,1,onetwo,,,,,,,,,,,,,,,,,,,,,,,,,,,,,,,,,,,,,,,,,,,,,,,,,,,,,,,,,,,,,,,,,,,,,,,,,,,,,,,,,,,,,,,,,,,,,,,,,,,,,,,,,,,,,,,,,,,,,,,,,,,,,,,,,,,,,,,,,
,,67f6a640d2046b13fcf33328,2026-03-17_16h16.44.855,kallum_motion_pilot_GIST_update_2,2026.1.1,Win32,60.60606061,67f6a640d2046b13fcf33328,69b95efdef24cd8a694e89ee,69b96126b14d28c02ad21bc5,0.2152,0.2152,1,46,208,54,1,fourtwo,,,,,,,,,,,,,,,,,,,,,,,,,,,,,,,,,,,,,,,,,,,,,,,,,,,,,,,,,,,,,,,,,,,,,,,,,,,,,,,,,,,,,,,,,,,,,,,,,,,,,,,,,,,,,,,,,,,,,,,,,,,,,,,,,,,,,,,,,
,,67f6a640d2046b13fcf33328,2026-03-17_16h16.44.855,kallum_motion_pilot_GIST_update_2,2026.1.1,Win32,60.60606061,67f6a640d2046b13fcf33328,69b95efdef24cd8a694e89ee,69b96126b14d28c02ad21bc5,0.2158,0.2158,1,47,209,51,1,twofour,,,,,,,,,,,,,,,,,,,,,,,,,,,,,,,,,,,,,,,,,,,,,,,,,,,,,,,,,,,,,,,,,,,,,,,,,,,,,,,,,,,,,,,,,,,,,,,,,,,,,,,,,,,,,,,,,,,,,,,,,,,,,,,,,,,,,,,,,
,,67f6a640d2046b13fcf33328,2026-03-17_16h16.44.855,kallum_motion_pilot_GIST_update_2,2026.1.1,Win32,60.60606061,67f6a640d2046b13fcf33328,69b95efdef24cd8a694e89ee,69b96126b14d28c02ad21bc5,0.2162,0.2162,1,48,210,3,1,twofour,,,,,,,,,,,,,,,,,,,,,,,,,,,,,,,,,,,,,,,,,,,,,,,,,,,,,,,,,,,,,,,,,,,,,,,,,,,,,,,,,,,,,,,,,,,,,,,,,,,,,,,,,,,,,,,,,,,,,,,,,,,,,,,,,,,,,,,,,
,,67f6a640d2046b13fcf33328,2026-03-17_16h16.44.855,kallum_motion_pilot_GIST_update_2,2026.1.1,Win32,60.60606061,67f6a640d2046b13fcf33328,69b95efdef24cd8a694e89ee,69b96126b14d28c02ad21bc5,0.2173,0.2173,1,49,211,75,1,twofour,,,,,,,,,,,,,,,,,,,,,,,,,,,,,,,,,,,,,,,,,,,,,,,,,,,,,,,,,,,,,,,,,,,,,,,,,,,,,,,,,,,,,,,,,,,,,,,,,,,,,,,,,,,,,,,,,,,,,,,,,,,,,,,,,,,,,,,,,
,,67f6a640d2046b13fcf33328,2026-03-17_16h16.44.855,kallum_motion_pilot_GIST_update_2,2026.1.1,Win32,60.60606061,67f6a640d2046b13fcf33328,69b95efdef24cd8a694e89ee,69b96126b14d28c02ad21bc5,0.2177,0.2177,1,50,212,107,1,sixeight,,,,,,,,,,,,,,,,,,,,,,,,,,,,,,,,,,,,,,,,,,,,,,,,,,,,,,,,,,,,,,,,,,,,,,,,,,,,,,,,,,,,,,,,,,,,,,,,,,,,,,,,,,,,,,,,,,,,,,,,,,,,,,,,,,,,,,,,,
,,67f6a640d2046b13fcf33328,2026-03-17_16h16.44.855,kallum_motion_pilot_GIST_update_2,2026.1.1,Win32,60.60606061,67f6a640d2046b13fcf33328,69b95efdef24cd8a694e89ee,69b96126b14d28c02ad21bc5,0.2179,0.2179,1,51,213,6,1,fourtwo,,,,,,,,,,,,,,,,,,,,,,,,,,,,,,,,,,,,,,,,,,,,,,,,,,,,,,,,,,,,,,,,,,,,,,,,,,,,,,,,,,,,,,,,,,,,,,,,,,,,,,,,,,,,,,,,,,,,,,,,,,,,,,,,,,,,,,,,,
,,67f6a640d2046b13fcf33328,2026-03-17_16h16.44.855,kallum_motion_pilot_GIST_update_2,2026.1.1,Win32,60.60606061,67f6a640d2046b13fcf33328,69b95efdef24cd8a694e89ee,69b96126b14d28c02ad21bc5,0.218,0.218,1,52,214,130,1,sixfive,,,,,,,,,,,,,,,,,,,,,,,,,,,,,,,,,,,,,,,,,,,,,,,,,,,,,,,,,,,,,,,,,,,,,,,,,,,,,,,,,,,,,,,,,,,,,,,,,,,,,,,,,,,,,,,,,,,,,,,,,,,,,,,,,,,,,,,,,
,,67f6a640d2046b13fcf33328,2026-03-17_16h16.44.855,kallum_motion_pilot_GIST_update_2,2026.1.1,Win32,60.60606061,67f6a640d2046b13fcf33328,69b95efdef24cd8a694e89ee,69b96126b14d28c02ad21bc5,0.2182,0.2182,1,53,215,110,1,eightsix,,,,,,,,,,,,,,,,,,,,,,,,,,,,,,,,,,,,,,,,,,,,,,,,,,,,,,,,,,,,,,,,,,,,,,,,,,,,,,,,,,,,,,,,,,,,,,,,,,,,,,,,,,,,,,,,,,,,,,,,,,,,,,,,,,,,,,,,,
,,67f6a640d2046b13fcf33328,2026-03-17_16h16.44.855,kallum_motion_pilot_GIST_update_2,2026.1.1,Win32,60.60606061,67f6a640d2046b13fcf33328,69b95efdef24cd8a694e89ee,69b96126b14d28c02ad21bc5,0.2183,0.2183,1,54,216,40,1,onetwo,,,,,,,,,,,,,,,,,,,,,,,,,,,,,,,,,,,,,,,,,,,,,,,,,,,,,,,,,,,,,,,,,,,,,,,,,,,,,,,,,,,,,,,,,,,,,,,,,,,,,,,,,,,,,,,,,,,,,,,,,,,,,,,,,,,,,,,,,
,,67f6a640d2046b13fcf33328,2026-03-17_16h16.44.855,kallum_motion_pilot_GIST_update_2,2026.1.1,Win32,60.60606061,67f6a640d2046b13fcf33328,69b95efdef24cd8a694e89ee,69b96126b14d28c02ad21bc5,0.2185,0.2185,1,55,217,24,1,onetwo,,,,,,,,,,,,,,,,,,,,,,,,,,,,,,,,,,,,,,,,,,,,,,,,,,,,,,,,,,,,,,,,,,,,,,,,,,,,,,,,,,,,,,,,,,,,,,,,,,,,,,,,,,,,,,,,,,,,,,,,,,,,,,,,,,,,,,,,,
,,67f6a640d2046b13fcf33328,2026-03-17_16h16.44.855,kallum_motion_pilot_GIST_update_2,2026.1.1,Win32,60.60606061,67f6a640d2046b13fcf33328,69b95efdef24cd8a694e89ee,69b96126b14d28c02ad21bc5,0.2186,0.2186,1,56,218,87,1,eightseven,,,,,,,,,,,,,,,,,,,,,,,,,,,,,,,,,,,,,,,,,,,,,,,,,,,,,,,,,,,,,,,,,,,,,,,,,,,,,,,,,,,,,,,,,,,,,,,,,,,,,,,,,,,,,,,,,,,,,,,,,,,,,,,,,,,,,,,,,
,,67f6a640d2046b13fcf33328,2026-03-17_16h16.44.855,kallum_motion_pilot_GIST_update_2,2026.1.1,Win32,60.60606061,67f6a640d2046b13fcf33328,69b95efdef24cd8a694e89ee,69b96126b14d28c02ad21bc5,0.2188,0.2188,1,57,219,98,1,sixfive,,,,,,,,,,,,,,,,,,,,,,,,,,,,,,,,,,,,,,,,,,,,,,,,,,,,,,,,,,,,,,,,,,,,,,,,,,,,,,,,,,,,,,,,,,,,,,,,,,,,,,,,,,,,,,,,,,,,,,,,,,,,,,,,,,,,,,,,,
,,67f6a640d2046b13fcf33328,2026-03-17_16h16.44.855,kallum_motion_pilot_GIST_update_2,2026.1.1,Win32,60.60606061,67f6a640d2046b13fcf33328,69b95efdef24cd8a694e89ee,69b96126b14d28c02ad21bc5,0.2188,0.2188,1,58,220,81,1,fiveseven,,,,,,,,,,,,,,,,,,,,,,,,,,,,,,,,,,,,,,,,,,,,,,,,,,,,,,,,,,,,,,,,,,,,,,,,,,,,,,,,,,,,,,,,,,,,,,,,,,,,,,,,,,,,,,,,,,,,,,,,,,,,,,,,,,,,,,,,,
,,67f6a640d2046b13fcf33328,2026-03-17_16h16.44.855,kallum_motion_pilot_GIST_update_2,2026.1.1,Win32,60.60606061,67f6a640d2046b13fcf33328,69b95efdef24cd8a694e89ee,69b96126b14d28c02ad21bc5,0.2191,0.2191,1,59,221,92,1,sevenfive,,,,,,,,,,,,,,,,,,,,,,,,,,,,,,,,,,,,,,,,,,,,,,,,,,,,,,,,,,,,,,,,,,,,,,,,,,,,,,,,,,,,,,,,,,,,,,,,,,,,,,,,,,,,,,,,,,,,,,,,,,,,,,,,,,,,,,,,,
,,67f6a640d2046b13fcf33328,2026-03-17_16h16.44.855,kallum_motion_pilot_GIST_update_2,2026.1.1,Win32,60.60606061,67f6a640d2046b13fcf33328,69b95efdef24cd8a694e89ee,69b96126b14d28c02ad21bc5,0.2205,0.2206,1,60,222,41,1,onethree,,,,,,,,,,,,,,,,,,,,,,,,,,,,,,,,,,,,,,,,,,,,,,,,,,,,,,,,,,,,,,,,,,,,,,,,,,,,,,,,,,,,,,,,,,,,,,,,,,,,,,,,,,,,,,,,,,,,,,,,,,,,,,,,,,,,,,,,,
,,67f6a640d2046b13fcf33328,2026-03-17_16h16.44.855,kallum_motion_pilot_GIST_update_2,2026.1.1,Win32,60.60606061,67f6a640d2046b13fcf33328,69b95efdef24cd8a694e89ee,69b96126b14d28c02ad21bc5,0.221,0.2211,1,61,223,7,1,fourthree,,,,,,,,,,,,,,,,,,,,,,,,,,,,,,,,,,,,,,,,,,,,,,,,,,,,,,,,,,,,,,,,,,,,,,,,,,,,,,,,,,,,,,,,,,,,,,,,,,,,,,,,,,,,,,,,,,,,,,,,,,,,,,,,,,,,,,,,,
,,67f6a640d2046b13fcf33328,2026-03-17_16h16.44.855,kallum_motion_pilot_GIST_update_2,2026.1.1,Win32,60.60606061,67f6a640d2046b13fcf33328,69b95efdef24cd8a694e89ee,69b96126b14d28c02ad21bc5,0.2216,0.2216,1,62,224,147,1,sixeight,,,,,,,,,,,,,,,,,,,,,,,,,,,,,,,,,,,,,,,,,,,,,,,,,,,,,,,,,,,,,,,,,,,,,,,,,,,,,,,,,,,,,,,,,,,,,,,,,,,,,,,,,,,,,,,,,,,,,,,,,,,,,,,,,,,,,,,,,
,,67f6a640d2046b13fcf33328,2026-03-17_16h16.44.855,kallum_motion_pilot_GIST_update_2,2026.1.1,Win32,60.60606061,67f6a640d2046b13fcf33328,69b95efdef24cd8a694e89ee,69b96126b14d28c02ad21bc5,0.2221,0.2222,1,63,225,133,1,seveneight,,,,,,,,,,,,,,,,,,,,,,,,,,,,,,,,,,,,,,,,,,,,,,,,,,,,,,,,,,,,,,,,,,,,,,,,,,,,,,,,,,,,,,,,,,,,,,,,,,,,,,,,,,,,,,,,,,,,,,,,,,,,,,,,,,,,,,,,,
,,67f6a640d2046b13fcf33328,2026-03-17_16h16.44.855,kallum_motion_pilot_GIST_update_2,2026.1.1,Win32,60.60606061,67f6a640d2046b13fcf33328,69b95efdef24cd8a694e89ee,69b96126b14d28c02ad21bc5,0.2225,0.2226,1,64,226,33,1,onethree,,,,,,,,,,,,,,,,,,,,,,,,,,,,,,,,,,,,,,,,,,,,,,,,,,,,,,,,,,,,,,,,,,,,,,,,,,,,,,,,,,,,,,,,,,,,,,,,,,,,,,,,,,,,,,,,,,,,,,,,,,,,,,,,,,,,,,,,,
,,67f6a640d2046b13fcf33328,2026-03-17_16h16.44.855,kallum_motion_pilot_GIST_update_2,2026.1.1,Win32,60.60606061,67f6a640d2046b13fcf33328,69b95efdef24cd8a694e89ee,69b96126b14d28c02ad21bc5,0.223,0.223,1,65,227,9,1,onethree,,,,,,,,,,,,,,,,,,,,,,,,,,,,,,,,,,,,,,,,,,,,,,,,,,,,,,,,,,,,,,,,,,,,,,,,,,,,,,,,,,,,,,,,,,,,,,,,,,,,,,,,,,,,,,,,,,,,,,,,,,,,,,,,,,,,,,,,,
,,67f6a640d2046b13fcf33328,2026-03-17_16h16.44.855,kallum_motion_pilot_GIST_update_2,2026.1.1,Win32,60.60606061,67f6a640d2046b13fcf33328,69b95efdef24cd8a694e89ee,69b96126b14d28c02ad21bc5,0.2236,0.2236,1,66,228,153,1,fiveseven,,,,,,,,,,,,,,,,,,,,,,,,,,,,,,,,,,,,,,,,,,,,,,,,,,,,,,,,,,,,,,,,,,,,,,,,,,,,,,,,,,,,,,,,,,,,,,,,,,,,,,,,,,,,,,,,,,,,,,,,,,,,,,,,,,,,,,,,,
,,67f6a640d2046b13fcf33328,2026-03-17_16h16.44.855,kallum_motion_pilot_GIST_update_2,2026.1.1,Win32,60.60606061,67f6a640d2046b13fcf33328,69b95efdef24cd8a694e89ee,69b96126b14d28c02ad21bc5,0.224,0.224,1,67,229,108,1,sevenfive,,,,,,,,,,,,,,,,,,,,,,,,,,,,,,,,,,,,,,,,,,,,,,,,,,,,,,,,,,,,,,,,,,,,,,,,,,,,,,,,,,,,,,,,,,,,,,,,,,,,,,,,,,,,,,,,,,,,,,,,,,,,,,,,,,,,,,,,,
,,67f6a640d2046b13fcf33328,2026-03-17_16h16.44.855,kallum_motion_pilot_GIST_update_2,2026.1.1,Win32,60.60606061,67f6a640d2046b13fcf33328,69b95efdef24cd8a694e89ee,69b96126b14d28c02ad21bc5,0.2246,0.2246,1,68,230,58,1,twoone,,,,,,,,,,,,,,,,,,,,,,,,,,,,,,,,,,,,,,,,,,,,,,,,,,,,,,,,,,,,,,,,,,,,,,,,,,,,,,,,,,,,,,,,,,,,,,,,,,,,,,,,,,,,,,,,,,,,,,,,,,,,,,,,,,,,,,,,,
,,67f6a640d2046b13fcf33328,2026-03-17_16h16.44.855,kallum_motion_pilot_GIST_update_2,2026.1.1,Win32,60.60606061,67f6a640d2046b13fcf33328,69b95efdef24cd8a694e89ee,69b96126b14d28c02ad21bc5,0.225,0.2251,1,69,231,127,1,eightseven,,,,,,,,,,,,,,,,,,,,,,,,,,,,,,,,,,,,,,,,,,,,,,,,,,,,,,,,,,,,,,,,,,,,,,,,,,,,,,,,,,,,,,,,,,,,,,,,,,,,,,,,,,,,,,,,,,,,,,,,,,,,,,,,,,,,,,,,,
,,67f6a640d2046b13fcf33328,2026-03-17_16h16.44.855,kallum_motion_pilot_GIST_update_2,2026.1.1,Win32,60.60606061,67f6a640d2046b13fcf33328,69b95efdef24cd8a694e89ee,69b96126b14d28c02ad21bc5,0.2255,0.2255,1,70,232,4,1,threeone,,,,,,,,,,,,,,,,,,,,,,,,,,,,,,,,,,,,,,,,,,,,,,,,,,,,,,,,,,,,,,,,,,,,,,,,,,,,,,,,,,,,,,,,,,,,,,,,,,,,,,,,,,,,,,,,,,,,,,,,,,,,,,,,,,,,,,,,,
,,67f6a640d2046b13fcf33328,2026-03-17_16h16.44.855,kallum_motion_pilot_GIST_update_2,2026.1.1,Win32,60.60606061,67f6a640d2046b13fcf33328,69b95efdef24cd8a694e89ee,69b96126b14d28c02ad21bc5,0.226,0.226,1,71,233,55,1,fourthree,,,,,,,,,,,,,,,,,,,,,,,,,,,,,,,,,,,,,,,,,,,,,,,,,,,,,,,,,,,,,,,,,,,,,,,,,,,,,,,,,,,,,,,,,,,,,,,,,,,,,,,,,,,,,,,,,,,,,,,,,,,,,,,,,,,,,,,,,
,,67f6a640d2046b13fcf33328,2026-03-17_16h16.44.855,kallum_motion_pilot_GIST_update_2,2026.1.1,Win32,60.60606061,67f6a640d2046b13fcf33328,69b95efdef24cd8a694e89ee,69b96126b14d28c02ad21bc5,0.227,0.2271,1,72,234,71,1,fourthree,,,,,,,,,,,,,,,,,,,,,,,,,,,,,,,,,,,,,,,,,,,,,,,,,,,,,,,,,,,,,,,,,,,,,,,,,,,,,,,,,,,,,,,,,,,,,,,,,,,,,,,,,,,,,,,,,,,,,,,,,,,,,,,,,,,,,,,,,
,,67f6a640d2046b13fcf33328,2026-03-17_16h16.44.855,kallum_motion_pilot_GIST_update_2,2026.1.1,Win32,60.60606061,67f6a640d2046b13fcf33328,69b95efdef24cd8a694e89ee,69b96126b14d28c02ad21bc5,0.2281,0.2282,1,73,235,104,1,fivesix,,,,,,,,,,,,,,,,,,,,,,,,,,,,,,,,,,,,,,,,,,,,,,,,,,,,,,,,,,,,,,,,,,,,,,,,,,,,,,,,,,,,,,,,,,,,,,,,,,,,,,,,,,,,,,,,,,,,,,,,,,,,,,,,,,,,,,,,,
,,67f6a640d2046b13fcf33328,2026-03-17_16h16.44.855,kallum_motion_pilot_GIST_update_2,2026.1.1,Win32,60.60606061,67f6a640d2046b13fcf33328,69b95efdef24cd8a694e89ee,69b96126b14d28c02ad21bc5,0.2287,0.2287,1,74,236,106,1,sixfive,,,,,,,,,,,,,,,,,,,,,,,,,,,,,,,,,,,,,,,,,,,,,,,,,,,,,,,,,,,,,,,,,,,,,,,,,,,,,,,,,,,,,,,,,,,,,,,,,,,,,,,,,,,,,,,,,,,,,,,,,,,,,,,,,,,,,,,,,
,,67f6a640d2046b13fcf33328,2026-03-17_16h16.44.855,kallum_motion_pilot_GIST_update_2,2026.1.1,Win32,60.60606061,67f6a640d2046b13fcf33328,69b95efdef24cd8a694e89ee,69b96126b14d28c02ad21bc5,0.2292,0.2292,1,75,237,116,1,sevenfive,,,,,,,,,,,,,,,,,,,,,,,,,,,,,,,,,,,,,,,,,,,,,,,,,,,,,,,,,,,,,,,,,,,,,,,,,,,,,,,,,,,,,,,,,,,,,,,,,,,,,,,,,,,,,,,,,,,,,,,,,,,,,,,,,,,,,,,,,
,,67f6a640d2046b13fcf33328,2026-03-17_16h16.44.855,kallum_motion_pilot_GIST_update_2,2026.1.1,Win32,60.60606061,67f6a640d2046b13fcf33328,69b95efdef24cd8a694e89ee,69b96126b14d28c02ad21bc5,0.2296,0.2297,1,76,238,37,1,threefour,,,,,,,,,,,,,,,,,,,,,,,,,,,,,,,,,,,,,,,,,,,,,,,,,,,,,,,,,,,,,,,,,,,,,,,,,,,,,,,,,,,,,,,,,,,,,,,,,,,,,,,,,,,,,,,,,,,,,,,,,,,,,,,,,,,,,,,,,
,,67f6a640d2046b13fcf33328,2026-03-17_16h16.44.855,kallum_motion_pilot_GIST_update_2,2026.1.1,Win32,60.60606061,67f6a640d2046b13fcf33328,69b95efdef24cd8a694e89ee,69b96126b14d28c02ad21bc5,0.2302,0.2303,1,77,239,91,1,sixeight,,,,,,,,,,,,,,,,,,,,,,,,,,,,,,,,,,,,,,,,,,,,,,,,,,,,,,,,,,,,,,,,,,,,,,,,,,,,,,,,,,,,,,,,,,,,,,,,,,,,,,,,,,,,,,,,,,,,,,,,,,,,,,,,,,,,,,,,,
,,67f6a640d2046b13fcf33328,2026-03-17_16h16.44.855,kallum_motion_pilot_GIST_update_2,2026.1.1,Win32,60.60606061,67f6a640d2046b13fcf33328,69b95efdef24cd8a694e89ee,69b96126b14d28c02ad21bc5,0.2307,0.2308,1,78,240,49,1,onethree,,,,,,,,,,,,,,,,,,,,,,,,,,,,,,,,,,,,,,,,,,,,,,,,,,,,,,,,,,,,,,,,,,,,,,,,,,,,,,,,,,,,,,,,,,,,,,,,,,,,,,,,,,,,,,,,,,,,,,,,,,,,,,,,,,,,,,,,,
,,67f6a640d2046b13fcf33328,2026-03-17_16h16.44.855,kallum_motion_pilot_GIST_update_2,2026.1.1,Win32,60.60606061,67f6a640d2046b13fcf33328,69b95efdef24cd8a694e89ee,69b96126b14d28c02ad21bc5,0.2312,0.2313,1,79,241,77,1,threefour,,,,,,,,,,,,,,,,,,,,,,,,,,,,,,,,,,,,,,,,,,,,,,,,,,,,,,,,,,,,,,,,,,,,,,,,,,,,,,,,,,,,,,,,,,,,,,,,,,,,,,,,,,,,,,,,,,,,,,,,,,,,,,,,,,,,,,,,,
,,67f6a640d2046b13fcf33328,2026-03-17_16h16.44.855,kallum_motion_pilot_GIST_update_2,2026.1.1,Win32,60.60606061,67f6a640d2046b13fcf33328,69b95efdef24cd8a694e89ee,69b96126b14d28c02ad21bc5,0.2317,0.2318,1,80,242,43,1,twofour,,,,,,,,,,,,,,,,,,,,,,,,,,,,,,,,,,,,,,,,,,,,,,,,,,,,,,,,,,,,,,,,,,,,,,,,,,,,,,,,,,,,,,,,,,,,,,,,,,,,,,,,,,,,,,,,,,,,,,,,,,,,,,,,,,,,,,,,,
,,67f6a640d2046b13fcf33328,2026-03-17_16h16.44.855,kallum_motion_pilot_GIST_update_2,2026.1.1,Win32,60.60606061,67f6a640d2046b13fcf33328,69b95efdef24cd8a694e89ee,69b96126b14d28c02ad21bc5,0.2322,0.2322,1,81,243,142,1,eightsix,,,,,,,,,,,,,,,,,,,,,,,,,,,,,,,,,,,,,,,,,,,,,,,,,,,,,,,,,,,,,,,,,,,,,,,,,,,,,,,,,,,,,,,,,,,,,,,,,,,,,,,,,,,,,,,,,,,,,,,,,,,,,,,,,,,,,,,,,
,,67f6a640d2046b13fcf33328,2026-03-17_16h16.44.855,kallum_motion_pilot_GIST_update_2,2026.1.1,Win32,60.60606061,67f6a640d2046b13fcf33328,69b95efdef24cd8a694e89ee,69b96126b14d28c02ad21bc5,0.2327,0.2327,1,82,244,70,1,fourtwo,,,,,,,,,,,,,,,,,,,,,,,,,,,,,,,,,,,,,,,,,,,,,,,,,,,,,,,,,,,,,,,,,,,,,,,,,,,,,,,,,,,,,,,,,,,,,,,,,,,,,,,,,,,,,,,,,,,,,,,,,,,,,,,,,,,,,,,,,
,,67f6a640d2046b13fcf33328,2026-03-17_16h16.44.855,kallum_motion_pilot_GIST_update_2,2026.1.1,Win32,60.60606061,67f6a640d2046b13fcf33328,69b95efdef24cd8a694e89ee,69b96126b14d28c02ad21bc5,0.2331,0.2331,1,83,245,114,1,sixfive,,,,,,,,,,,,,,,,,,,,,,,,,,,,,,,,,,,,,,,,,,,,,,,,,,,,,,,,,,,,,,,,,,,,,,,,,,,,,,,,,,,,,,,,,,,,,,,,,,,,,,,,,,,,,,,,,,,,,,,,,,,,,,,,,,,,,,,,,
,,67f6a640d2046b13fcf33328,2026-03-17_16h16.44.855,kallum_motion_pilot_GIST_update_2,2026.1.1,Win32,60.60606061,67f6a640d2046b13fcf33328,69b95efdef24cd8a694e89ee,69b96126b14d28c02ad21bc5,0.2336,0.2337,1,84,246,62,1,fourtwo,,,,,,,,,,,,,,,,,,,,,,,,,,,,,,,,,,,,,,,,,,,,,,,,,,,,,,,,,,,,,,,,,,,,,,,,,,,,,,,,,,,,,,,,,,,,,,,,,,,,,,,,,,,,,,,,,,,,,,,,,,,,,,,,,,,,,,,,,
,,67f6a640d2046b13fcf33328,2026-03-17_16h16.44.855,kallum_motion_pilot_GIST_update_2,2026.1.1,Win32,60.60606061,67f6a640d2046b13fcf33328,69b95efdef24cd8a694e89ee,69b96126b14d28c02ad21bc5,0.2341,0.2341,1,85,247,32,1,onetwo,,,,,,,,,,,,,,,,,,,,,,,,,,,,,,,,,,,,,,,,,,,,,,,,,,,,,,,,,,,,,,,,,,,,,,,,,,,,,,,,,,,,,,,,,,,,,,,,,,,,,,,,,,,,,,,,,,,,,,,,,,,,,,,,,,,,,,,,,
,,67f6a640d2046b13fcf33328,2026-03-17_16h16.44.855,kallum_motion_pilot_GIST_update_2,2026.1.1,Win32,60.60606061,67f6a640d2046b13fcf33328,69b95efdef24cd8a694e89ee,69b96126b14d28c02ad21bc5,0.2346,0.2346,1,86,248,126,1,eightsix,,,,,,,,,,,,,,,,,,,,,,,,,,,,,,,,,,,,,,,,,,,,,,,,,,,,,,,,,,,,,,,,,,,,,,,,,,,,,,,,,,,,,,,,,,,,,,,,,,,,,,,,,,,,,,,,,,,,,,,,,,,,,,,,,,,,,,,,,
,,67f6a640d2046b13fcf33328,2026-03-17_16h16.44.855,kallum_motion_pilot_GIST_update_2,2026.1.1,Win32,60.60606061,67f6a640d2046b13fcf33328,69b95efdef24cd8a694e89ee,69b96126b14d28c02ad21bc5,0.2351,0.2351,1,87,249,2,1,twoone,,,,,,,,,,,,,,,,,,,,,,,,,,,,,,,,,,,,,,,,,,,,,,,,,,,,,,,,,,,,,,,,,,,,,,,,,,,,,,,,,,,,,,,,,,,,,,,,,,,,,,,,,,,,,,,,,,,,,,,,,,,,,,,,,,,,,,,,,
,,67f6a640d2046b13fcf33328,2026-03-17_16h16.44.855,kallum_motion_pilot_GIST_update_2,2026.1.1,Win32,60.60606061,67f6a640d2046b13fcf33328,69b95efdef24cd8a694e89ee,69b96126b14d28c02ad21bc5,0.2356,0.2357,1,88,250,42,1,twoone,,,,,,,,,,,,,,,,,,,,,,,,,,,,,,,,,,,,,,,,,,,,,,,,,,,,,,,,,,,,,,,,,,,,,,,,,,,,,,,,,,,,,,,,,,,,,,,,,,,,,,,,,,,,,,,,,,,,,,,,,,,,,,,,,,,,,,,,,
,,67f6a640d2046b13fcf33328,2026-03-17_16h16.44.855,kallum_motion_pilot_GIST_update_2,2026.1.1,Win32,60.60606061,67f6a640d2046b13fcf33328,69b95efdef24cd8a694e89ee,69b96126b14d28c02ad21bc5,0.2361,0.2361,1,89,251,23,1,fourthree,,,,,,,,,,,,,,,,,,,,,,,,,,,,,,,,,,,,,,,,,,,,,,,,,,,,,,,,,,,,,,,,,,,,,,,,,,,,,,,,,,,,,,,,,,,,,,,,,,,,,,,,,,,,,,,,,,,,,,,,,,,,,,,,,,,,,,,,,
,,67f6a640d2046b13fcf33328,2026-03-17_16h16.44.855,kallum_motion_pilot_GIST_update_2,2026.1.1,Win32,60.60606061,67f6a640d2046b13fcf33328,69b95efdef24cd8a694e89ee,69b96126b14d28c02ad21bc5,0.2373,0.2373,1,90,252,121,1,fiveseven,,,,,,,,,,,,,,,,,,,,,,,,,,,,,,,,,,,,,,,,,,,,,,,,,,,,,,,,,,,,,,,,,,,,,,,,,,,,,,,,,,,,,,,,,,,,,,,,,,,,,,,,,,,,,,,,,,,,,,,,,,,,,,,,,,,,,,,,,
,,67f6a640d2046b13fcf33328,2026-03-17_16h16.44.855,kallum_motion_pilot_GIST_update_2,2026.1.1,Win32,60.60606061,67f6a640d2046b13fcf33328,69b95efdef24cd8a694e89ee,69b96126b14d28c02ad21bc5,0.2378,0.2378,1,91,253,150,1,eightsix,,,,,,,,,,,,,,,,,,,,,,,,,,,,,,,,,,,,,,,,,,,,,,,,,,,,,,,,,,,,,,,,,,,,,,,,,,,,,,,,,,,,,,,,,,,,,,,,,,,,,,,,,,,,,,,,,,,,,,,,,,,,,,,,,,,,,,,,,
,,67f6a640d2046b13fcf33328,2026-03-17_16h16.44.855,kallum_motion_pilot_GIST_update_2,2026.1.1,Win32,60.60606061,67f6a640d2046b13fcf33328,69b95efdef24cd8a694e89ee,69b96126b14d28c02ad21bc5,0.2386,0.2387,1,92,254,46,1,fourtwo,,,,,,,,,,,,,,,,,,,,,,,,,,,,,,,,,,,,,,,,,,,,,,,,,,,,,,,,,,,,,,,,,,,,,,,,,,,,,,,,,,,,,,,,,,,,,,,,,,,,,,,,,,,,,,,,,,,,,,,,,,,,,,,,,,,,,,,,,
,,67f6a640d2046b13fcf33328,2026-03-17_16h16.44.855,kallum_motion_pilot_GIST_update_2,2026.1.1,Win32,60.60606061,67f6a640d2046b13fcf33328,69b95efdef24cd8a694e89ee,69b96126b14d28c02ad21bc5,0.2394,0.2394,1,93,255,138,1,sixfive,,,,,,,,,,,,,,,,,,,,,,,,,,,,,,,,,,,,,,,,,,,,,,,,,,,,,,,,,,,,,,,,,,,,,,,,,,,,,,,,,,,,,,,,,,,,,,,,,,,,,,,,,,,,,,,,,,,,,,,,,,,,,,,,,,,,,,,,,
,,67f6a640d2046b13fcf33328,2026-03-17_16h16.44.855,kallum_motion_pilot_GIST_update_2,2026.1.1,Win32,60.60606061,67f6a640d2046b13fcf33328,69b95efdef24cd8a694e89ee,69b96126b14d28c02ad21bc5,0.24,0.24,1,94,256,16,1,onetwo,,,,,,,,,,,,,,,,,,,,,,,,,,,,,,,,,,,,,,,,,,,,,,,,,,,,,,,,,,,,,,,,,,,,,,,,,,,,,,,,,,,,,,,,,,,,,,,,,,,,,,,,,,,,,,,,,,,,,,,,,,,,,,,,,,,,,,,,,
,,67f6a640d2046b13fcf33328,2026-03-17_16h16.44.855,kallum_motion_pilot_GIST_update_2,2026.1.1,Win32,60.60606061,67f6a640d2046b13fcf33328,69b95efdef24cd8a694e89ee,69b96126b14d28c02ad21bc5,0.2405,0.2405,1,95,257,10,1,twoone,,,,,,,,,,,,,,,,,,,,,,,,,,,,,,,,,,,,,,,,,,,,,,,,,,,,,,,,,,,,,,,,,,,,,,,,,,,,,,,,,,,,,,,,,,,,,,,,,,,,,,,,,,,,,,,,,,,,,,,,,,,,,,,,,,,,,,,,,
,,67f6a640d2046b13fcf33328,2026-03-17_16h16.44.855,kallum_motion_pilot_GIST_update_2,2026.1.1,Win32,60.60606061,67f6a640d2046b13fcf33328,69b95efdef24cd8a694e89ee,69b96126b14d28c02ad21bc5,0.2409,0.241,1,96,258,65,1,onethree,,,,,,,,,,,,,,,,,,,,,,,,,,,,,,,,,,,,,,,,,,,,,,,,,,,,,,,,,,,,,,,,,,,,,,,,,,,,,,,,,,,,,,,,,,,,,,,,,,,,,,,,,,,,,,,,,,,,,,,,,,,,,,,,,,,,,,,,,
,,67f6a640d2046b13fcf33328,2026-03-17_16h16.44.855,kallum_motion_pilot_GIST_update_2,2026.1.1,Win32,60.60606061,67f6a640d2046b13fcf33328,69b95efdef24cd8a694e89ee,69b96126b14d28c02ad21bc5,0.2431,0.2431,1,97,259,13,1,threefour,,,,,,,,,,,,,,,,,,,,,,,,,,,,,,,,,,,,,,,,,,,,,,,,,,,,,,,,,,,,,,,,,,,,,,,,,,,,,,,,,,,,,,,,,,,,,,,,,,,,,,,,,,,,,,,,,,,,,,,,,,,,,,,,,,,,,,,,,
,,67f6a640d2046b13fcf33328,2026-03-17_16h16.44.855,kallum_motion_pilot_GIST_update_2,2026.1.1,Win32,60.60606061,67f6a640d2046b13fcf33328,69b95efdef24cd8a694e89ee,69b96126b14d28c02ad21bc5,0.2435,0.2435,1,98,260,154,1,sixfive,,,,,,,,,,,,,,,,,,,,,,,,,,,,,,,,,,,,,,,,,,,,,,,,,,,,,,,,,,,,,,,,,,,,,,,,,,,,,,,,,,,,,,,,,,,,,,,,,,,,,,,,,,,,,,,,,,,,,,,,,,,,,,,,,,,,,,,,,
,,67f6a640d2046b13fcf33328,2026-03-17_16h16.44.855,kallum_motion_pilot_GIST_update_2,2026.1.1,Win32,60.60606061,67f6a640d2046b13fcf33328,69b95efdef24cd8a694e89ee,69b96126b14d28c02ad21bc5,0.2441,0.2441,1,99,261,29,1,threefour,,,,,,,,,,,,,,,,,,,,,,,,,,,,,,,,,,,,,,,,,,,,,,,,,,,,,,,,,,,,,,,,,,,,,,,,,,,,,,,,,,,,,,,,,,,,,,,,,,,,,,,,,,,,,,,,,,,,,,,,,,,,,,,,,,,,,,,,,
,,67f6a640d2046b13fcf33328,2026-03-17_16h16.44.855,kallum_motion_pilot_GIST_update_2,2026.1.1,Win32,60.60606061,67f6a640d2046b13fcf33328,69b95efdef24cd8a694e89ee,69b96126b14d28c02ad21bc5,0.2451,0.2451,1,100,262,67,1,twofour,,,,,,,,,,,,,,,,,,,,,,,,,,,,,,,,,,,,,,,,,,,,,,,,,,,,,,,,,,,,,,,,,,,,,,,,,,,,,,,,,,,,,,,,,,,,,,,,,,,,,,,,,,,,,,,,,,,,,,,,,,,,,,,,,,,,,,,,,
,,67f6a640d2046b13fcf33328,2026-03-17_16h16.44.855,kallum_motion_pilot_GIST_update_2,2026.1.1,Win32,60.60606061,67f6a640d2046b13fcf33328,69b95efdef24cd8a694e89ee,69b96126b14d28c02ad21bc5,0.2456,0.2457,1,101,263,8,1,onetwo,,,,,,,,,,,,,,,,,,,,,,,,,,,,,,,,,,,,,,,,,,,,,,,,,,,,,,,,,,,,,,,,,,,,,,,,,,,,,,,,,,,,,,,,,,,,,,,,,,,,,,,,,,,,,,,,,,,,,,,,,,,,,,,,,,,,,,,,,
,,67f6a640d2046b13fcf33328,2026-03-17_16h16.44.855,kallum_motion_pilot_GIST_update_2,2026.1.1,Win32,60.60606061,67f6a640d2046b13fcf33328,69b95efdef24cd8a694e89ee,69b96126b14d28c02ad21bc5,0.2462,0.2463,1,102,264,25,1,onethree,,,,,,,,,,,,,,,,,,,,,,,,,,,,,,,,,,,,,,,,,,,,,,,,,,,,,,,,,,,,,,,,,,,,,,,,,,,,,,,,,,,,,,,,,,,,,,,,,,,,,,,,,,,,,,,,,,,,,,,,,,,,,,,,,,,,,,,,,
,,67f6a640d2046b13fcf33328,2026-03-17_16h16.44.855,kallum_motion_pilot_GIST_update_2,2026.1.1,Win32,60.60606061,67f6a640d2046b13fcf33328,69b95efdef24cd8a694e89ee,69b96126b14d28c02ad21bc5,0.2472,0.2473,1,103,265,120,1,fivesix,,,,,,,,,,,,,,,,,,,,,,,,,,,,,,,,,,,,,,,,,,,,,,,,,,,,,,,,,,,,,,,,,,,,,,,,,,,,,,,,,,,,,,,,,,,,,,,,,,,,,,,,,,,,,,,,,,,,,,,,,,,,,,,,,,,,,,,,,
,,67f6a640d2046b13fcf33328,2026-03-17_16h16.44.855,kallum_motion_pilot_GIST_update_2,2026.1.1,Win32,60.60606061,67f6a640d2046b13fcf33328,69b95efdef24cd8a694e89ee,69b96126b14d28c02ad21bc5,0.2477,0.2478,1,104,266,60,1,threeone,,,,,,,,,,,,,,,,,,,,,,,,,,,,,,,,,,,,,,,,,,,,,,,,,,,,,,,,,,,,,,,,,,,,,,,,,,,,,,,,,,,,,,,,,,,,,,,,,,,,,,,,,,,,,,,,,,,,,,,,,,,,,,,,,,,,,,,,,
