startup.started,startup.stopped,Prolific ID*,date,expName,psychopyVersion,OS,frameRate,participant,study_id,session,stimpositions.started,stimpositions.stopped,hardcoded_stimulus_positions.thisRepN,hardcoded_stimulus_positions.thisTrialN,hardcoded_stimulus_positions.thisN,hardcoded_stimulus_positions.thisIndex,hardcoded_stimulus_positions.ran,StimulusPos,stimorientation.started,stimorientation.stopped,prac_stimorientation_import_loop.thisRepN,prac_stimorientation_import_loop.thisTrialN,prac_stimorientation_import_loop.thisN,prac_stimorientation_import_loop.thisIndex,prac_stimorientation_import_loop.ran,Stimorientation,welcome_instr.started,welcome_instr.stopped,key_resp.keys,key_resp.rt,key_resp.duration,response_steppedout_1.started,response_steppedout_1.stopped,key_resp_20.keys,key_resp_20.rt,key_resp_20.duration,response_steppedout_2.started,response_steppedout_2.stopped,key_resp_19.keys,key_resp_19.rt,key_resp_19.duration,stim_response_instr.started,stim_response_instr.stopped,key_resp_15.keys,key_resp_15.rt,key_resp_15.duration,direction_instr_2.started,direction_instr_2.stopped,key_resp_9.keys,key_resp_9.rt,key_resp_9.duration,instr_prac.started,instr_prac.stopped,key_resp_10.keys,key_resp_10.rt,key_resp_10.duration,Stim1_display_prac.started,Stim1_display_prac.stopped,Ecc,Circle1_ori,Circle2_ori,response_prac.started,similarity,response_time,response_prac.stopped,mouse_5.x,mouse_5.y,mouse_5.leftButton,mouse_5.midButton,mouse_5.rightButton,mouse_5.clicked_name,responseprac_feedback.started,responseprac_feedback.stopped,summary2_prac.started,summary2_prac.stopped,mouse_6.x,mouse_6.y,mouse_6.leftButton,mouse_6.midButton,mouse_6.rightButton,mouse_6.clicked_name,duringprac.thisRepN,duringprac.thisTrialN,duringprac.thisN,duringprac.thisIndex,duringprac.ran,begin.started,begin.stopped,key_resp_22.keys,key_resp_22.rt,key_resp_22.duration,Stim1_display.started,Stim1_display.stopped,circle1_ori,circle2_ori,circle1_SF,circle2_SF,response.started,response.stopped,mouse.x,mouse.y,mouse.leftButton,mouse.midButton,mouse.rightButton,mouse.clicked_name,trialnumber,double_pass.thisRepN,double_pass.thisTrialN,double_pass.thisN,double_pass.thisIndex,double_pass.ran,double_pass.order,main_trial.thisRepN,main_trial.thisTrialN,main_trial.thisN,main_trial.thisIndex,main_trial.ran,main_trial.order,Trial_Counter,Catch,Frequencies,response_2.started,response_2.stopped,mouse_2.x,mouse_2.y,mouse_2.leftButton,mouse_2.midButton,mouse_2.rightButton,mouse_2.clicked_name,special_trial.started,special_trial.stopped,catch_1.started,catch_1.stopped,mouse_3.x,mouse_3.y,mouse_3.leftButton,mouse_3.midButton,mouse_3.rightButton,catchresponse,catchnumber,response_time_catch,response_sum.started,response_sum.stopped,mouse_11.x,mouse_11.y,mouse_11.leftButton,mouse_11.midButton,mouse_11.rightButton,flip_presentation_sequence_for_double_pass.started,flip_presentation_sequence_for_double_pass.stopped,goodbye.started,goodbye.stopped,key_resp_3.keys,key_resp_3.rt,key_resp_3.duration
0.0007,0.0008,67f789ca382e36a759a011af,2026-03-17_12h24.46.081,kallum_motion_pilot_GIST_update_2,2026.1.1,Win32,59.88023952,67f789ca382e36a759a011af,69b92ab4aef6dee357cd729a,69b92b4043e120cb7443760f,,,,,,,,,,,,,,,,,,,,,,,,,,,,,,,,,,,,,,,,,,,,,,,,,,,,,,,,,,,,,,,,,,,,,,,,,,,,,,,,,,,,,,,,,,,,,,,,,,,,,,,,,,,,,,,,,,,,,,,,,,,,,,,,,,,,,,,,,,,,,,,,,
,,67f789ca382e36a759a011af,2026-03-17_12h24.46.081,kallum_motion_pilot_GIST_update_2,2026.1.1,Win32,59.88023952,67f789ca382e36a759a011af,69b92ab4aef6dee357cd729a,69b92b4043e120cb7443760f,0.0246,0.0246,0,0,0,95,1,eightseven,,,,,,,,,,,,,,,,,,,,,,,,,,,,,,,,,,,,,,,,,,,,,,,,,,,,,,,,,,,,,,,,,,,,,,,,,,,,,,,,,,,,,,,,,,,,,,,,,,,,,,,,,,,,,,,,,,,,,,,,,,,,,,,,,,,,,,,,,
,,67f789ca382e36a759a011af,2026-03-17_12h24.46.081,kallum_motion_pilot_GIST_update_2,2026.1.1,Win32,59.88023952,67f789ca382e36a759a011af,69b92ab4aef6dee357cd729a,69b92b4043e120cb7443760f,0.0248,0.0248,0,1,1,76,1,threeone,,,,,,,,,,,,,,,,,,,,,,,,,,,,,,,,,,,,,,,,,,,,,,,,,,,,,,,,,,,,,,,,,,,,,,,,,,,,,,,,,,,,,,,,,,,,,,,,,,,,,,,,,,,,,,,,,,,,,,,,,,,,,,,,,,,,,,,,,
,,67f789ca382e36a759a011af,2026-03-17_12h24.46.081,kallum_motion_pilot_GIST_update_2,2026.1.1,Win32,59.88023952,67f789ca382e36a759a011af,69b92ab4aef6dee357cd729a,69b92b4043e120cb7443760f,0.025,0.025,0,2,2,112,1,fivesix,,,,,,,,,,,,,,,,,,,,,,,,,,,,,,,,,,,,,,,,,,,,,,,,,,,,,,,,,,,,,,,,,,,,,,,,,,,,,,,,,,,,,,,,,,,,,,,,,,,,,,,,,,,,,,,,,,,,,,,,,,,,,,,,,,,,,,,,,
,,67f789ca382e36a759a011af,2026-03-17_12h24.46.081,kallum_motion_pilot_GIST_update_2,2026.1.1,Win32,59.88023952,67f789ca382e36a759a011af,69b92ab4aef6dee357cd729a,69b92b4043e120cb7443760f,0.0251,0.0251,0,3,3,42,1,twoone,,,,,,,,,,,,,,,,,,,,,,,,,,,,,,,,,,,,,,,,,,,,,,,,,,,,,,,,,,,,,,,,,,,,,,,,,,,,,,,,,,,,,,,,,,,,,,,,,,,,,,,,,,,,,,,,,,,,,,,,,,,,,,,,,,,,,,,,,
,,67f789ca382e36a759a011af,2026-03-17_12h24.46.081,kallum_motion_pilot_GIST_update_2,2026.1.1,Win32,59.88023952,67f789ca382e36a759a011af,69b92ab4aef6dee357cd729a,69b92b4043e120cb7443760f,0.0252,0.0252,0,4,4,27,1,twofour,,,,,,,,,,,,,,,,,,,,,,,,,,,,,,,,,,,,,,,,,,,,,,,,,,,,,,,,,,,,,,,,,,,,,,,,,,,,,,,,,,,,,,,,,,,,,,,,,,,,,,,,,,,,,,,,,,,,,,,,,,,,,,,,,,,,,,,,,
,,67f789ca382e36a759a011af,2026-03-17_12h24.46.081,kallum_motion_pilot_GIST_update_2,2026.1.1,Win32,59.88023952,67f789ca382e36a759a011af,69b92ab4aef6dee357cd729a,69b92b4043e120cb7443760f,0.0254,0.0254,0,5,5,63,1,fourthree,,,,,,,,,,,,,,,,,,,,,,,,,,,,,,,,,,,,,,,,,,,,,,,,,,,,,,,,,,,,,,,,,,,,,,,,,,,,,,,,,,,,,,,,,,,,,,,,,,,,,,,,,,,,,,,,,,,,,,,,,,,,,,,,,,,,,,,,,
,,67f789ca382e36a759a011af,2026-03-17_12h24.46.081,kallum_motion_pilot_GIST_update_2,2026.1.1,Win32,59.88023952,67f789ca382e36a759a011af,69b92ab4aef6dee357cd729a,69b92b4043e120cb7443760f,0.0255,0.0255,0,6,6,72,1,onetwo,,,,,,,,,,,,,,,,,,,,,,,,,,,,,,,,,,,,,,,,,,,,,,,,,,,,,,,,,,,,,,,,,,,,,,,,,,,,,,,,,,,,,,,,,,,,,,,,,,,,,,,,,,,,,,,,,,,,,,,,,,,,,,,,,,,,,,,,,
,,67f789ca382e36a759a011af,2026-03-17_12h24.46.081,kallum_motion_pilot_GIST_update_2,2026.1.1,Win32,59.88023952,67f789ca382e36a759a011af,69b92ab4aef6dee357cd729a,69b92b4043e120cb7443760f,0.0256,0.0256,0,7,7,66,1,twoone,,,,,,,,,,,,,,,,,,,,,,,,,,,,,,,,,,,,,,,,,,,,,,,,,,,,,,,,,,,,,,,,,,,,,,,,,,,,,,,,,,,,,,,,,,,,,,,,,,,,,,,,,,,,,,,,,,,,,,,,,,,,,,,,,,,,,,,,,
,,67f789ca382e36a759a011af,2026-03-17_12h24.46.081,kallum_motion_pilot_GIST_update_2,2026.1.1,Win32,59.88023952,67f789ca382e36a759a011af,69b92ab4aef6dee357cd729a,69b92b4043e120cb7443760f,0.0257,0.0257,0,8,8,37,1,threefour,,,,,,,,,,,,,,,,,,,,,,,,,,,,,,,,,,,,,,,,,,,,,,,,,,,,,,,,,,,,,,,,,,,,,,,,,,,,,,,,,,,,,,,,,,,,,,,,,,,,,,,,,,,,,,,,,,,,,,,,,,,,,,,,,,,,,,,,,
,,67f789ca382e36a759a011af,2026-03-17_12h24.46.081,kallum_motion_pilot_GIST_update_2,2026.1.1,Win32,59.88023952,67f789ca382e36a759a011af,69b92ab4aef6dee357cd729a,69b92b4043e120cb7443760f,0.0259,0.0259,0,9,9,150,1,eightsix,,,,,,,,,,,,,,,,,,,,,,,,,,,,,,,,,,,,,,,,,,,,,,,,,,,,,,,,,,,,,,,,,,,,,,,,,,,,,,,,,,,,,,,,,,,,,,,,,,,,,,,,,,,,,,,,,,,,,,,,,,,,,,,,,,,,,,,,,
,,67f789ca382e36a759a011af,2026-03-17_12h24.46.081,kallum_motion_pilot_GIST_update_2,2026.1.1,Win32,59.88023952,67f789ca382e36a759a011af,69b92ab4aef6dee357cd729a,69b92b4043e120cb7443760f,0.026,0.026,0,10,10,56,1,onetwo,,,,,,,,,,,,,,,,,,,,,,,,,,,,,,,,,,,,,,,,,,,,,,,,,,,,,,,,,,,,,,,,,,,,,,,,,,,,,,,,,,,,,,,,,,,,,,,,,,,,,,,,,,,,,,,,,,,,,,,,,,,,,,,,,,,,,,,,,
,,67f789ca382e36a759a011af,2026-03-17_12h24.46.081,kallum_motion_pilot_GIST_update_2,2026.1.1,Win32,59.88023952,67f789ca382e36a759a011af,69b92ab4aef6dee357cd729a,69b92b4043e120cb7443760f,0.0261,0.0261,0,11,11,123,1,sixeight,,,,,,,,,,,,,,,,,,,,,,,,,,,,,,,,,,,,,,,,,,,,,,,,,,,,,,,,,,,,,,,,,,,,,,,,,,,,,,,,,,,,,,,,,,,,,,,,,,,,,,,,,,,,,,,,,,,,,,,,,,,,,,,,,,,,,,,,,
,,67f789ca382e36a759a011af,2026-03-17_12h24.46.081,kallum_motion_pilot_GIST_update_2,2026.1.1,Win32,59.88023952,67f789ca382e36a759a011af,69b92ab4aef6dee357cd729a,69b92b4043e120cb7443760f,0.0262,0.0262,0,12,12,104,1,fivesix,,,,,,,,,,,,,,,,,,,,,,,,,,,,,,,,,,,,,,,,,,,,,,,,,,,,,,,,,,,,,,,,,,,,,,,,,,,,,,,,,,,,,,,,,,,,,,,,,,,,,,,,,,,,,,,,,,,,,,,,,,,,,,,,,,,,,,,,,
,,67f789ca382e36a759a011af,2026-03-17_12h24.46.081,kallum_motion_pilot_GIST_update_2,2026.1.1,Win32,59.88023952,67f789ca382e36a759a011af,69b92ab4aef6dee357cd729a,69b92b4043e120cb7443760f,0.0263,0.0263,0,13,13,91,1,sixeight,,,,,,,,,,,,,,,,,,,,,,,,,,,,,,,,,,,,,,,,,,,,,,,,,,,,,,,,,,,,,,,,,,,,,,,,,,,,,,,,,,,,,,,,,,,,,,,,,,,,,,,,,,,,,,,,,,,,,,,,,,,,,,,,,,,,,,,,,
,,67f789ca382e36a759a011af,2026-03-17_12h24.46.081,kallum_motion_pilot_GIST_update_2,2026.1.1,Win32,59.88023952,67f789ca382e36a759a011af,69b92ab4aef6dee357cd729a,69b92b4043e120cb7443760f,0.0263,0.0264,0,14,14,131,1,sixeight,,,,,,,,,,,,,,,,,,,,,,,,,,,,,,,,,,,,,,,,,,,,,,,,,,,,,,,,,,,,,,,,,,,,,,,,,,,,,,,,,,,,,,,,,,,,,,,,,,,,,,,,,,,,,,,,,,,,,,,,,,,,,,,,,,,,,,,,,
,,67f789ca382e36a759a011af,2026-03-17_12h24.46.081,kallum_motion_pilot_GIST_update_2,2026.1.1,Win32,59.88023952,67f789ca382e36a759a011af,69b92ab4aef6dee357cd729a,69b92b4043e120cb7443760f,0.0265,0.0265,0,15,15,16,1,onetwo,,,,,,,,,,,,,,,,,,,,,,,,,,,,,,,,,,,,,,,,,,,,,,,,,,,,,,,,,,,,,,,,,,,,,,,,,,,,,,,,,,,,,,,,,,,,,,,,,,,,,,,,,,,,,,,,,,,,,,,,,,,,,,,,,,,,,,,,,
,,67f789ca382e36a759a011af,2026-03-17_12h24.46.081,kallum_motion_pilot_GIST_update_2,2026.1.1,Win32,59.88023952,67f789ca382e36a759a011af,69b92ab4aef6dee357cd729a,69b92b4043e120cb7443760f,0.0266,0.0266,0,16,16,100,1,sevenfive,,,,,,,,,,,,,,,,,,,,,,,,,,,,,,,,,,,,,,,,,,,,,,,,,,,,,,,,,,,,,,,,,,,,,,,,,,,,,,,,,,,,,,,,,,,,,,,,,,,,,,,,,,,,,,,,,,,,,,,,,,,,,,,,,,,,,,,,,
,,67f789ca382e36a759a011af,2026-03-17_12h24.46.081,kallum_motion_pilot_GIST_update_2,2026.1.1,Win32,59.88023952,67f789ca382e36a759a011af,69b92ab4aef6dee357cd729a,69b92b4043e120cb7443760f,0.0267,0.0267,0,17,17,40,1,onetwo,,,,,,,,,,,,,,,,,,,,,,,,,,,,,,,,,,,,,,,,,,,,,,,,,,,,,,,,,,,,,,,,,,,,,,,,,,,,,,,,,,,,,,,,,,,,,,,,,,,,,,,,,,,,,,,,,,,,,,,,,,,,,,,,,,,,,,,,,
,,67f789ca382e36a759a011af,2026-03-17_12h24.46.081,kallum_motion_pilot_GIST_update_2,2026.1.1,Win32,59.88023952,67f789ca382e36a759a011af,69b92ab4aef6dee357cd729a,69b92b4043e120cb7443760f,0.0267,0.0267,0,18,18,6,1,fourtwo,,,,,,,,,,,,,,,,,,,,,,,,,,,,,,,,,,,,,,,,,,,,,,,,,,,,,,,,,,,,,,,,,,,,,,,,,,,,,,,,,,,,,,,,,,,,,,,,,,,,,,,,,,,,,,,,,,,,,,,,,,,,,,,,,,,,,,,,,
,,67f789ca382e36a759a011af,2026-03-17_12h24.46.081,kallum_motion_pilot_GIST_update_2,2026.1.1,Win32,59.88023952,67f789ca382e36a759a011af,69b92ab4aef6dee357cd729a,69b92b4043e120cb7443760f,0.0269,0.0269,0,19,19,144,1,fivesix,,,,,,,,,,,,,,,,,,,,,,,,,,,,,,,,,,,,,,,,,,,,,,,,,,,,,,,,,,,,,,,,,,,,,,,,,,,,,,,,,,,,,,,,,,,,,,,,,,,,,,,,,,,,,,,,,,,,,,,,,,,,,,,,,,,,,,,,,
,,67f789ca382e36a759a011af,2026-03-17_12h24.46.081,kallum_motion_pilot_GIST_update_2,2026.1.1,Win32,59.88023952,67f789ca382e36a759a011af,69b92ab4aef6dee357cd729a,69b92b4043e120cb7443760f,0.0269,0.0269,0,20,20,79,1,eightseven,,,,,,,,,,,,,,,,,,,,,,,,,,,,,,,,,,,,,,,,,,,,,,,,,,,,,,,,,,,,,,,,,,,,,,,,,,,,,,,,,,,,,,,,,,,,,,,,,,,,,,,,,,,,,,,,,,,,,,,,,,,,,,,,,,,,,,,,,
,,67f789ca382e36a759a011af,2026-03-17_12h24.46.081,kallum_motion_pilot_GIST_update_2,2026.1.1,Win32,59.88023952,67f789ca382e36a759a011af,69b92ab4aef6dee357cd729a,69b92b4043e120cb7443760f,0.027,0.027,0,21,21,61,1,threefour,,,,,,,,,,,,,,,,,,,,,,,,,,,,,,,,,,,,,,,,,,,,,,,,,,,,,,,,,,,,,,,,,,,,,,,,,,,,,,,,,,,,,,,,,,,,,,,,,,,,,,,,,,,,,,,,,,,,,,,,,,,,,,,,,,,,,,,,,
,,67f789ca382e36a759a011af,2026-03-17_12h24.46.081,kallum_motion_pilot_GIST_update_2,2026.1.1,Win32,59.88023952,67f789ca382e36a759a011af,69b92ab4aef6dee357cd729a,69b92b4043e120cb7443760f,0.027,0.027,0,22,22,59,1,twofour,,,,,,,,,,,,,,,,,,,,,,,,,,,,,,,,,,,,,,,,,,,,,,,,,,,,,,,,,,,,,,,,,,,,,,,,,,,,,,,,,,,,,,,,,,,,,,,,,,,,,,,,,,,,,,,,,,,,,,,,,,,,,,,,,,,,,,,,,
,,67f789ca382e36a759a011af,2026-03-17_12h24.46.081,kallum_motion_pilot_GIST_update_2,2026.1.1,Win32,59.88023952,67f789ca382e36a759a011af,69b92ab4aef6dee357cd729a,69b92b4043e120cb7443760f,0.0272,0.0272,0,23,23,23,1,fourthree,,,,,,,,,,,,,,,,,,,,,,,,,,,,,,,,,,,,,,,,,,,,,,,,,,,,,,,,,,,,,,,,,,,,,,,,,,,,,,,,,,,,,,,,,,,,,,,,,,,,,,,,,,,,,,,,,,,,,,,,,,,,,,,,,,,,,,,,,
,,67f789ca382e36a759a011af,2026-03-17_12h24.46.081,kallum_motion_pilot_GIST_update_2,2026.1.1,Win32,59.88023952,67f789ca382e36a759a011af,69b92ab4aef6dee357cd729a,69b92b4043e120cb7443760f,0.0273,0.0273,0,24,24,13,1,threefour,,,,,,,,,,,,,,,,,,,,,,,,,,,,,,,,,,,,,,,,,,,,,,,,,,,,,,,,,,,,,,,,,,,,,,,,,,,,,,,,,,,,,,,,,,,,,,,,,,,,,,,,,,,,,,,,,,,,,,,,,,,,,,,,,,,,,,,,,
,,67f789ca382e36a759a011af,2026-03-17_12h24.46.081,kallum_motion_pilot_GIST_update_2,2026.1.1,Win32,59.88023952,67f789ca382e36a759a011af,69b92ab4aef6dee357cd729a,69b92b4043e120cb7443760f,0.0274,0.0274,0,25,25,47,1,fourthree,,,,,,,,,,,,,,,,,,,,,,,,,,,,,,,,,,,,,,,,,,,,,,,,,,,,,,,,,,,,,,,,,,,,,,,,,,,,,,,,,,,,,,,,,,,,,,,,,,,,,,,,,,,,,,,,,,,,,,,,,,,,,,,,,,,,,,,,,
,,67f789ca382e36a759a011af,2026-03-17_12h24.46.081,kallum_motion_pilot_GIST_update_2,2026.1.1,Win32,59.88023952,67f789ca382e36a759a011af,69b92ab4aef6dee357cd729a,69b92b4043e120cb7443760f,0.0275,0.0275,0,26,26,32,1,onetwo,,,,,,,,,,,,,,,,,,,,,,,,,,,,,,,,,,,,,,,,,,,,,,,,,,,,,,,,,,,,,,,,,,,,,,,,,,,,,,,,,,,,,,,,,,,,,,,,,,,,,,,,,,,,,,,,,,,,,,,,,,,,,,,,,,,,,,,,,
,,67f789ca382e36a759a011af,2026-03-17_12h24.46.081,kallum_motion_pilot_GIST_update_2,2026.1.1,Win32,59.88023952,67f789ca382e36a759a011af,69b92ab4aef6dee357cd729a,69b92b4043e120cb7443760f,0.0275,0.0275,0,27,27,149,1,seveneight,,,,,,,,,,,,,,,,,,,,,,,,,,,,,,,,,,,,,,,,,,,,,,,,,,,,,,,,,,,,,,,,,,,,,,,,,,,,,,,,,,,,,,,,,,,,,,,,,,,,,,,,,,,,,,,,,,,,,,,,,,,,,,,,,,,,,,,,,
,,67f789ca382e36a759a011af,2026-03-17_12h24.46.081,kallum_motion_pilot_GIST_update_2,2026.1.1,Win32,59.88023952,67f789ca382e36a759a011af,69b92ab4aef6dee357cd729a,69b92b4043e120cb7443760f,0.0276,0.0276,0,28,28,110,1,eightsix,,,,,,,,,,,,,,,,,,,,,,,,,,,,,,,,,,,,,,,,,,,,,,,,,,,,,,,,,,,,,,,,,,,,,,,,,,,,,,,,,,,,,,,,,,,,,,,,,,,,,,,,,,,,,,,,,,,,,,,,,,,,,,,,,,,,,,,,,
,,67f789ca382e36a759a011af,2026-03-17_12h24.46.081,kallum_motion_pilot_GIST_update_2,2026.1.1,Win32,59.88023952,67f789ca382e36a759a011af,69b92ab4aef6dee357cd729a,69b92b4043e120cb7443760f,0.0278,0.0278,0,29,29,14,1,fourtwo,,,,,,,,,,,,,,,,,,,,,,,,,,,,,,,,,,,,,,,,,,,,,,,,,,,,,,,,,,,,,,,,,,,,,,,,,,,,,,,,,,,,,,,,,,,,,,,,,,,,,,,,,,,,,,,,,,,,,,,,,,,,,,,,,,,,,,,,,
,,67f789ca382e36a759a011af,2026-03-17_12h24.46.081,kallum_motion_pilot_GIST_update_2,2026.1.1,Win32,59.88023952,67f789ca382e36a759a011af,69b92ab4aef6dee357cd729a,69b92b4043e120cb7443760f,0.0278,0.0278,0,30,30,51,1,twofour,,,,,,,,,,,,,,,,,,,,,,,,,,,,,,,,,,,,,,,,,,,,,,,,,,,,,,,,,,,,,,,,,,,,,,,,,,,,,,,,,,,,,,,,,,,,,,,,,,,,,,,,,,,,,,,,,,,,,,,,,,,,,,,,,,,,,,,,,
,,67f789ca382e36a759a011af,2026-03-17_12h24.46.081,kallum_motion_pilot_GIST_update_2,2026.1.1,Win32,59.88023952,67f789ca382e36a759a011af,69b92ab4aef6dee357cd729a,69b92b4043e120cb7443760f,0.0279,0.0279,0,31,31,62,1,fourtwo,,,,,,,,,,,,,,,,,,,,,,,,,,,,,,,,,,,,,,,,,,,,,,,,,,,,,,,,,,,,,,,,,,,,,,,,,,,,,,,,,,,,,,,,,,,,,,,,,,,,,,,,,,,,,,,,,,,,,,,,,,,,,,,,,,,,,,,,,
,,67f789ca382e36a759a011af,2026-03-17_12h24.46.081,kallum_motion_pilot_GIST_update_2,2026.1.1,Win32,59.88023952,67f789ca382e36a759a011af,69b92ab4aef6dee357cd729a,69b92b4043e120cb7443760f,0.028,0.0281,0,32,32,31,1,fourthree,,,,,,,,,,,,,,,,,,,,,,,,,,,,,,,,,,,,,,,,,,,,,,,,,,,,,,,,,,,,,,,,,,,,,,,,,,,,,,,,,,,,,,,,,,,,,,,,,,,,,,,,,,,,,,,,,,,,,,,,,,,,,,,,,,,,,,,,,
,,67f789ca382e36a759a011af,2026-03-17_12h24.46.081,kallum_motion_pilot_GIST_update_2,2026.1.1,Win32,59.88023952,67f789ca382e36a759a011af,69b92ab4aef6dee357cd729a,69b92b4043e120cb7443760f,0.0281,0.0281,0,33,33,74,1,twoone,,,,,,,,,,,,,,,,,,,,,,,,,,,,,,,,,,,,,,,,,,,,,,,,,,,,,,,,,,,,,,,,,,,,,,,,,,,,,,,,,,,,,,,,,,,,,,,,,,,,,,,,,,,,,,,,,,,,,,,,,,,,,,,,,,,,,,,,,
,,67f789ca382e36a759a011af,2026-03-17_12h24.46.081,kallum_motion_pilot_GIST_update_2,2026.1.1,Win32,59.88023952,67f789ca382e36a759a011af,69b92ab4aef6dee357cd729a,69b92b4043e120cb7443760f,0.0282,0.0282,0,34,34,106,1,sixfive,,,,,,,,,,,,,,,,,,,,,,,,,,,,,,,,,,,,,,,,,,,,,,,,,,,,,,,,,,,,,,,,,,,,,,,,,,,,,,,,,,,,,,,,,,,,,,,,,,,,,,,,,,,,,,,,,,,,,,,,,,,,,,,,,,,,,,,,,
,,67f789ca382e36a759a011af,2026-03-17_12h24.46.081,kallum_motion_pilot_GIST_update_2,2026.1.1,Win32,59.88023952,67f789ca382e36a759a011af,69b92ab4aef6dee357cd729a,69b92b4043e120cb7443760f,0.0283,0.0283,0,35,35,98,1,sixfive,,,,,,,,,,,,,,,,,,,,,,,,,,,,,,,,,,,,,,,,,,,,,,,,,,,,,,,,,,,,,,,,,,,,,,,,,,,,,,,,,,,,,,,,,,,,,,,,,,,,,,,,,,,,,,,,,,,,,,,,,,,,,,,,,,,,,,,,,
,,67f789ca382e36a759a011af,2026-03-17_12h24.46.081,kallum_motion_pilot_GIST_update_2,2026.1.1,Win32,59.88023952,67f789ca382e36a759a011af,69b92ab4aef6dee357cd729a,69b92b4043e120cb7443760f,0.0284,0.0284,0,36,36,159,1,eightseven,,,,,,,,,,,,,,,,,,,,,,,,,,,,,,,,,,,,,,,,,,,,,,,,,,,,,,,,,,,,,,,,,,,,,,,,,,,,,,,,,,,,,,,,,,,,,,,,,,,,,,,,,,,,,,,,,,,,,,,,,,,,,,,,,,,,,,,,,
,,67f789ca382e36a759a011af,2026-03-17_12h24.46.081,kallum_motion_pilot_GIST_update_2,2026.1.1,Win32,59.88023952,67f789ca382e36a759a011af,69b92ab4aef6dee357cd729a,69b92b4043e120cb7443760f,0.0284,0.0284,0,37,37,49,1,onethree,,,,,,,,,,,,,,,,,,,,,,,,,,,,,,,,,,,,,,,,,,,,,,,,,,,,,,,,,,,,,,,,,,,,,,,,,,,,,,,,,,,,,,,,,,,,,,,,,,,,,,,,,,,,,,,,,,,,,,,,,,,,,,,,,,,,,,,,,
,,67f789ca382e36a759a011af,2026-03-17_12h24.46.081,kallum_motion_pilot_GIST_update_2,2026.1.1,Win32,59.88023952,67f789ca382e36a759a011af,69b92ab4aef6dee357cd729a,69b92b4043e120cb7443760f,0.0285,0.0285,0,38,38,39,1,fourthree,,,,,,,,,,,,,,,,,,,,,,,,,,,,,,,,,,,,,,,,,,,,,,,,,,,,,,,,,,,,,,,,,,,,,,,,,,,,,,,,,,,,,,,,,,,,,,,,,,,,,,,,,,,,,,,,,,,,,,,,,,,,,,,,,,,,,,,,,
,,67f789ca382e36a759a011af,2026-03-17_12h24.46.081,kallum_motion_pilot_GIST_update_2,2026.1.1,Win32,59.88023952,67f789ca382e36a759a011af,69b92ab4aef6dee357cd729a,69b92b4043e120cb7443760f,0.0287,0.0287,0,39,39,58,1,twoone,,,,,,,,,,,,,,,,,,,,,,,,,,,,,,,,,,,,,,,,,,,,,,,,,,,,,,,,,,,,,,,,,,,,,,,,,,,,,,,,,,,,,,,,,,,,,,,,,,,,,,,,,,,,,,,,,,,,,,,,,,,,,,,,,,,,,,,,,
,,67f789ca382e36a759a011af,2026-03-17_12h24.46.081,kallum_motion_pilot_GIST_update_2,2026.1.1,Win32,59.88023952,67f789ca382e36a759a011af,69b92ab4aef6dee357cd729a,69b92b4043e120cb7443760f,0.0288,0.0288,0,40,40,160,1,fivesix,,,,,,,,,,,,,,,,,,,,,,,,,,,,,,,,,,,,,,,,,,,,,,,,,,,,,,,,,,,,,,,,,,,,,,,,,,,,,,,,,,,,,,,,,,,,,,,,,,,,,,,,,,,,,,,,,,,,,,,,,,,,,,,,,,,,,,,,,
,,67f789ca382e36a759a011af,2026-03-17_12h24.46.081,kallum_motion_pilot_GIST_update_2,2026.1.1,Win32,59.88023952,67f789ca382e36a759a011af,69b92ab4aef6dee357cd729a,69b92b4043e120cb7443760f,0.0289,0.0289,0,41,41,24,1,onetwo,,,,,,,,,,,,,,,,,,,,,,,,,,,,,,,,,,,,,,,,,,,,,,,,,,,,,,,,,,,,,,,,,,,,,,,,,,,,,,,,,,,,,,,,,,,,,,,,,,,,,,,,,,,,,,,,,,,,,,,,,,,,,,,,,,,,,,,,,
,,67f789ca382e36a759a011af,2026-03-17_12h24.46.081,kallum_motion_pilot_GIST_update_2,2026.1.1,Win32,59.88023952,67f789ca382e36a759a011af,69b92ab4aef6dee357cd729a,69b92b4043e120cb7443760f,0.029,0.029,0,42,42,93,1,seveneight,,,,,,,,,,,,,,,,,,,,,,,,,,,,,,,,,,,,,,,,,,,,,,,,,,,,,,,,,,,,,,,,,,,,,,,,,,,,,,,,,,,,,,,,,,,,,,,,,,,,,,,,,,,,,,,,,,,,,,,,,,,,,,,,,,,,,,,,,
,,67f789ca382e36a759a011af,2026-03-17_12h24.46.081,kallum_motion_pilot_GIST_update_2,2026.1.1,Win32,59.88023952,67f789ca382e36a759a011af,69b92ab4aef6dee357cd729a,69b92b4043e120cb7443760f,0.0291,0.0291,0,43,43,3,1,twofour,,,,,,,,,,,,,,,,,,,,,,,,,,,,,,,,,,,,,,,,,,,,,,,,,,,,,,,,,,,,,,,,,,,,,,,,,,,,,,,,,,,,,,,,,,,,,,,,,,,,,,,,,,,,,,,,,,,,,,,,,,,,,,,,,,,,,,,,,
,,67f789ca382e36a759a011af,2026-03-17_12h24.46.081,kallum_motion_pilot_GIST_update_2,2026.1.1,Win32,59.88023952,67f789ca382e36a759a011af,69b92ab4aef6dee357cd729a,69b92b4043e120cb7443760f,0.0292,0.0292,0,44,44,139,1,sixeight,,,,,,,,,,,,,,,,,,,,,,,,,,,,,,,,,,,,,,,,,,,,,,,,,,,,,,,,,,,,,,,,,,,,,,,,,,,,,,,,,,,,,,,,,,,,,,,,,,,,,,,,,,,,,,,,,,,,,,,,,,,,,,,,,,,,,,,,,
,,67f789ca382e36a759a011af,2026-03-17_12h24.46.081,kallum_motion_pilot_GIST_update_2,2026.1.1,Win32,59.88023952,67f789ca382e36a759a011af,69b92ab4aef6dee357cd729a,69b92b4043e120cb7443760f,0.0292,0.0292,0,45,45,122,1,sixfive,,,,,,,,,,,,,,,,,,,,,,,,,,,,,,,,,,,,,,,,,,,,,,,,,,,,,,,,,,,,,,,,,,,,,,,,,,,,,,,,,,,,,,,,,,,,,,,,,,,,,,,,,,,,,,,,,,,,,,,,,,,,,,,,,,,,,,,,,
,,67f789ca382e36a759a011af,2026-03-17_12h24.46.081,kallum_motion_pilot_GIST_update_2,2026.1.1,Win32,59.88023952,67f789ca382e36a759a011af,69b92ab4aef6dee357cd729a,69b92b4043e120cb7443760f,0.0294,0.0294,0,46,46,64,1,onetwo,,,,,,,,,,,,,,,,,,,,,,,,,,,,,,,,,,,,,,,,,,,,,,,,,,,,,,,,,,,,,,,,,,,,,,,,,,,,,,,,,,,,,,,,,,,,,,,,,,,,,,,,,,,,,,,,,,,,,,,,,,,,,,,,,,,,,,,,,
,,67f789ca382e36a759a011af,2026-03-17_12h24.46.081,kallum_motion_pilot_GIST_update_2,2026.1.1,Win32,59.88023952,67f789ca382e36a759a011af,69b92ab4aef6dee357cd729a,69b92b4043e120cb7443760f,0.0295,0.0295,0,47,47,25,1,onethree,,,,,,,,,,,,,,,,,,,,,,,,,,,,,,,,,,,,,,,,,,,,,,,,,,,,,,,,,,,,,,,,,,,,,,,,,,,,,,,,,,,,,,,,,,,,,,,,,,,,,,,,,,,,,,,,,,,,,,,,,,,,,,,,,,,,,,,,,
,,67f789ca382e36a759a011af,2026-03-17_12h24.46.081,kallum_motion_pilot_GIST_update_2,2026.1.1,Win32,59.88023952,67f789ca382e36a759a011af,69b92ab4aef6dee357cd729a,69b92b4043e120cb7443760f,0.0296,0.0296,0,48,48,124,1,sevenfive,,,,,,,,,,,,,,,,,,,,,,,,,,,,,,,,,,,,,,,,,,,,,,,,,,,,,,,,,,,,,,,,,,,,,,,,,,,,,,,,,,,,,,,,,,,,,,,,,,,,,,,,,,,,,,,,,,,,,,,,,,,,,,,,,,,,,,,,,
,,67f789ca382e36a759a011af,2026-03-17_12h24.46.081,kallum_motion_pilot_GIST_update_2,2026.1.1,Win32,59.88023952,67f789ca382e36a759a011af,69b92ab4aef6dee357cd729a,69b92b4043e120cb7443760f,0.0297,0.0297,0,49,49,111,1,eightseven,,,,,,,,,,,,,,,,,,,,,,,,,,,,,,,,,,,,,,,,,,,,,,,,,,,,,,,,,,,,,,,,,,,,,,,,,,,,,,,,,,,,,,,,,,,,,,,,,,,,,,,,,,,,,,,,,,,,,,,,,,,,,,,,,,,,,,,,,
,,67f789ca382e36a759a011af,2026-03-17_12h24.46.081,kallum_motion_pilot_GIST_update_2,2026.1.1,Win32,59.88023952,67f789ca382e36a759a011af,69b92ab4aef6dee357cd729a,69b92b4043e120cb7443760f,0.0298,0.0298,0,50,50,20,1,threeone,,,,,,,,,,,,,,,,,,,,,,,,,,,,,,,,,,,,,,,,,,,,,,,,,,,,,,,,,,,,,,,,,,,,,,,,,,,,,,,,,,,,,,,,,,,,,,,,,,,,,,,,,,,,,,,,,,,,,,,,,,,,,,,,,,,,,,,,,
,,67f789ca382e36a759a011af,2026-03-17_12h24.46.081,kallum_motion_pilot_GIST_update_2,2026.1.1,Win32,59.88023952,67f789ca382e36a759a011af,69b92ab4aef6dee357cd729a,69b92b4043e120cb7443760f,0.0298,0.0298,0,51,51,82,1,sixfive,,,,,,,,,,,,,,,,,,,,,,,,,,,,,,,,,,,,,,,,,,,,,,,,,,,,,,,,,,,,,,,,,,,,,,,,,,,,,,,,,,,,,,,,,,,,,,,,,,,,,,,,,,,,,,,,,,,,,,,,,,,,,,,,,,,,,,,,,
,,67f789ca382e36a759a011af,2026-03-17_12h24.46.081,kallum_motion_pilot_GIST_update_2,2026.1.1,Win32,59.88023952,67f789ca382e36a759a011af,69b92ab4aef6dee357cd729a,69b92b4043e120cb7443760f,0.0299,0.0299,0,52,52,36,1,threeone,,,,,,,,,,,,,,,,,,,,,,,,,,,,,,,,,,,,,,,,,,,,,,,,,,,,,,,,,,,,,,,,,,,,,,,,,,,,,,,,,,,,,,,,,,,,,,,,,,,,,,,,,,,,,,,,,,,,,,,,,,,,,,,,,,,,,,,,,
,,67f789ca382e36a759a011af,2026-03-17_12h24.46.081,kallum_motion_pilot_GIST_update_2,2026.1.1,Win32,59.88023952,67f789ca382e36a759a011af,69b92ab4aef6dee357cd729a,69b92b4043e120cb7443760f,0.03,0.03,0,53,53,94,1,eightsix,,,,,,,,,,,,,,,,,,,,,,,,,,,,,,,,,,,,,,,,,,,,,,,,,,,,,,,,,,,,,,,,,,,,,,,,,,,,,,,,,,,,,,,,,,,,,,,,,,,,,,,,,,,,,,,,,,,,,,,,,,,,,,,,,,,,,,,,,
,,67f789ca382e36a759a011af,2026-03-17_12h24.46.081,kallum_motion_pilot_GIST_update_2,2026.1.1,Win32,59.88023952,67f789ca382e36a759a011af,69b92ab4aef6dee357cd729a,69b92b4043e120cb7443760f,0.0302,0.0302,0,54,54,130,1,sixfive,,,,,,,,,,,,,,,,,,,,,,,,,,,,,,,,,,,,,,,,,,,,,,,,,,,,,,,,,,,,,,,,,,,,,,,,,,,,,,,,,,,,,,,,,,,,,,,,,,,,,,,,,,,,,,,,,,,,,,,,,,,,,,,,,,,,,,,,,
,,67f789ca382e36a759a011af,2026-03-17_12h24.46.081,kallum_motion_pilot_GIST_update_2,2026.1.1,Win32,59.88023952,67f789ca382e36a759a011af,69b92ab4aef6dee357cd729a,69b92b4043e120cb7443760f,0.0304,0.0304,0,55,55,117,1,seveneight,,,,,,,,,,,,,,,,,,,,,,,,,,,,,,,,,,,,,,,,,,,,,,,,,,,,,,,,,,,,,,,,,,,,,,,,,,,,,,,,,,,,,,,,,,,,,,,,,,,,,,,,,,,,,,,,,,,,,,,,,,,,,,,,,,,,,,,,,
,,67f789ca382e36a759a011af,2026-03-17_12h24.46.081,kallum_motion_pilot_GIST_update_2,2026.1.1,Win32,59.88023952,67f789ca382e36a759a011af,69b92ab4aef6dee357cd729a,69b92b4043e120cb7443760f,0.0306,0.0306,0,56,56,83,1,sixeight,,,,,,,,,,,,,,,,,,,,,,,,,,,,,,,,,,,,,,,,,,,,,,,,,,,,,,,,,,,,,,,,,,,,,,,,,,,,,,,,,,,,,,,,,,,,,,,,,,,,,,,,,,,,,,,,,,,,,,,,,,,,,,,,,,,,,,,,,
,,67f789ca382e36a759a011af,2026-03-17_12h24.46.081,kallum_motion_pilot_GIST_update_2,2026.1.1,Win32,59.88023952,67f789ca382e36a759a011af,69b92ab4aef6dee357cd729a,69b92b4043e120cb7443760f,0.0306,0.0306,0,57,57,78,1,fourtwo,,,,,,,,,,,,,,,,,,,,,,,,,,,,,,,,,,,,,,,,,,,,,,,,,,,,,,,,,,,,,,,,,,,,,,,,,,,,,,,,,,,,,,,,,,,,,,,,,,,,,,,,,,,,,,,,,,,,,,,,,,,,,,,,,,,,,,,,,
,,67f789ca382e36a759a011af,2026-03-17_12h24.46.081,kallum_motion_pilot_GIST_update_2,2026.1.1,Win32,59.88023952,67f789ca382e36a759a011af,69b92ab4aef6dee357cd729a,69b92b4043e120cb7443760f,0.0308,0.0308,0,58,58,154,1,sixfive,,,,,,,,,,,,,,,,,,,,,,,,,,,,,,,,,,,,,,,,,,,,,,,,,,,,,,,,,,,,,,,,,,,,,,,,,,,,,,,,,,,,,,,,,,,,,,,,,,,,,,,,,,,,,,,,,,,,,,,,,,,,,,,,,,,,,,,,,
,,67f789ca382e36a759a011af,2026-03-17_12h24.46.081,kallum_motion_pilot_GIST_update_2,2026.1.1,Win32,59.88023952,67f789ca382e36a759a011af,69b92ab4aef6dee357cd729a,69b92b4043e120cb7443760f,0.0309,0.0309,0,59,59,158,1,eightsix,,,,,,,,,,,,,,,,,,,,,,,,,,,,,,,,,,,,,,,,,,,,,,,,,,,,,,,,,,,,,,,,,,,,,,,,,,,,,,,,,,,,,,,,,,,,,,,,,,,,,,,,,,,,,,,,,,,,,,,,,,,,,,,,,,,,,,,,,
,,67f789ca382e36a759a011af,2026-03-17_12h24.46.081,kallum_motion_pilot_GIST_update_2,2026.1.1,Win32,59.88023952,67f789ca382e36a759a011af,69b92ab4aef6dee357cd729a,69b92b4043e120cb7443760f,0.031,0.031,0,60,60,52,1,threeone,,,,,,,,,,,,,,,,,,,,,,,,,,,,,,,,,,,,,,,,,,,,,,,,,,,,,,,,,,,,,,,,,,,,,,,,,,,,,,,,,,,,,,,,,,,,,,,,,,,,,,,,,,,,,,,,,,,,,,,,,,,,,,,,,,,,,,,,,
,,67f789ca382e36a759a011af,2026-03-17_12h24.46.081,kallum_motion_pilot_GIST_update_2,2026.1.1,Win32,59.88023952,67f789ca382e36a759a011af,69b92ab4aef6dee357cd729a,69b92b4043e120cb7443760f,0.0312,0.0312,0,61,61,60,1,threeone,,,,,,,,,,,,,,,,,,,,,,,,,,,,,,,,,,,,,,,,,,,,,,,,,,,,,,,,,,,,,,,,,,,,,,,,,,,,,,,,,,,,,,,,,,,,,,,,,,,,,,,,,,,,,,,,,,,,,,,,,,,,,,,,,,,,,,,,,
,,67f789ca382e36a759a011af,2026-03-17_12h24.46.081,kallum_motion_pilot_GIST_update_2,2026.1.1,Win32,59.88023952,67f789ca382e36a759a011af,69b92ab4aef6dee357cd729a,69b92b4043e120cb7443760f,0.0313,0.0313,0,62,62,11,1,twofour,,,,,,,,,,,,,,,,,,,,,,,,,,,,,,,,,,,,,,,,,,,,,,,,,,,,,,,,,,,,,,,,,,,,,,,,,,,,,,,,,,,,,,,,,,,,,,,,,,,,,,,,,,,,,,,,,,,,,,,,,,,,,,,,,,,,,,,,,
,,67f789ca382e36a759a011af,2026-03-17_12h24.46.081,kallum_motion_pilot_GIST_update_2,2026.1.1,Win32,59.88023952,67f789ca382e36a759a011af,69b92ab4aef6dee357cd729a,69b92b4043e120cb7443760f,0.0315,0.0315,0,63,63,87,1,eightseven,,,,,,,,,,,,,,,,,,,,,,,,,,,,,,,,,,,,,,,,,,,,,,,,,,,,,,,,,,,,,,,,,,,,,,,,,,,,,,,,,,,,,,,,,,,,,,,,,,,,,,,,,,,,,,,,,,,,,,,,,,,,,,,,,,,,,,,,,
,,67f789ca382e36a759a011af,2026-03-17_12h24.46.081,kallum_motion_pilot_GIST_update_2,2026.1.1,Win32,59.88023952,67f789ca382e36a759a011af,69b92ab4aef6dee357cd729a,69b92b4043e120cb7443760f,0.0315,0.0315,0,64,64,0,1,onetwo,,,,,,,,,,,,,,,,,,,,,,,,,,,,,,,,,,,,,,,,,,,,,,,,,,,,,,,,,,,,,,,,,,,,,,,,,,,,,,,,,,,,,,,,,,,,,,,,,,,,,,,,,,,,,,,,,,,,,,,,,,,,,,,,,,,,,,,,,
,,67f789ca382e36a759a011af,2026-03-17_12h24.46.081,kallum_motion_pilot_GIST_update_2,2026.1.1,Win32,59.88023952,67f789ca382e36a759a011af,69b92ab4aef6dee357cd729a,69b92b4043e120cb7443760f,0.0317,0.0317,0,65,65,85,1,seveneight,,,,,,,,,,,,,,,,,,,,,,,,,,,,,,,,,,,,,,,,,,,,,,,,,,,,,,,,,,,,,,,,,,,,,,,,,,,,,,,,,,,,,,,,,,,,,,,,,,,,,,,,,,,,,,,,,,,,,,,,,,,,,,,,,,,,,,,,,
,,67f789ca382e36a759a011af,2026-03-17_12h24.46.081,kallum_motion_pilot_GIST_update_2,2026.1.1,Win32,59.88023952,67f789ca382e36a759a011af,69b92ab4aef6dee357cd729a,69b92b4043e120cb7443760f,0.0319,0.0319,0,66,66,113,1,fiveseven,,,,,,,,,,,,,,,,,,,,,,,,,,,,,,,,,,,,,,,,,,,,,,,,,,,,,,,,,,,,,,,,,,,,,,,,,,,,,,,,,,,,,,,,,,,,,,,,,,,,,,,,,,,,,,,,,,,,,,,,,,,,,,,,,,,,,,,,,
,,67f789ca382e36a759a011af,2026-03-17_12h24.46.081,kallum_motion_pilot_GIST_update_2,2026.1.1,Win32,59.88023952,67f789ca382e36a759a011af,69b92ab4aef6dee357cd729a,69b92b4043e120cb7443760f,0.032,0.032,0,67,67,29,1,threefour,,,,,,,,,,,,,,,,,,,,,,,,,,,,,,,,,,,,,,,,,,,,,,,,,,,,,,,,,,,,,,,,,,,,,,,,,,,,,,,,,,,,,,,,,,,,,,,,,,,,,,,,,,,,,,,,,,,,,,,,,,,,,,,,,,,,,,,,,
,,67f789ca382e36a759a011af,2026-03-17_12h24.46.081,kallum_motion_pilot_GIST_update_2,2026.1.1,Win32,59.88023952,67f789ca382e36a759a011af,69b92ab4aef6dee357cd729a,69b92b4043e120cb7443760f,0.0322,0.0322,0,68,68,148,1,sevenfive,,,,,,,,,,,,,,,,,,,,,,,,,,,,,,,,,,,,,,,,,,,,,,,,,,,,,,,,,,,,,,,,,,,,,,,,,,,,,,,,,,,,,,,,,,,,,,,,,,,,,,,,,,,,,,,,,,,,,,,,,,,,,,,,,,,,,,,,,
,,67f789ca382e36a759a011af,2026-03-17_12h24.46.081,kallum_motion_pilot_GIST_update_2,2026.1.1,Win32,59.88023952,67f789ca382e36a759a011af,69b92ab4aef6dee357cd729a,69b92b4043e120cb7443760f,0.0323,0.0323,0,69,69,126,1,eightsix,,,,,,,,,,,,,,,,,,,,,,,,,,,,,,,,,,,,,,,,,,,,,,,,,,,,,,,,,,,,,,,,,,,,,,,,,,,,,,,,,,,,,,,,,,,,,,,,,,,,,,,,,,,,,,,,,,,,,,,,,,,,,,,,,,,,,,,,,
,,67f789ca382e36a759a011af,2026-03-17_12h24.46.081,kallum_motion_pilot_GIST_update_2,2026.1.1,Win32,59.88023952,67f789ca382e36a759a011af,69b92ab4aef6dee357cd729a,69b92b4043e120cb7443760f,0.0323,0.0323,0,70,70,34,1,twoone,,,,,,,,,,,,,,,,,,,,,,,,,,,,,,,,,,,,,,,,,,,,,,,,,,,,,,,,,,,,,,,,,,,,,,,,,,,,,,,,,,,,,,,,,,,,,,,,,,,,,,,,,,,,,,,,,,,,,,,,,,,,,,,,,,,,,,,,,
,,67f789ca382e36a759a011af,2026-03-17_12h24.46.081,kallum_motion_pilot_GIST_update_2,2026.1.1,Win32,59.88023952,67f789ca382e36a759a011af,69b92ab4aef6dee357cd729a,69b92b4043e120cb7443760f,0.0325,0.0325,0,71,71,80,1,fivesix,,,,,,,,,,,,,,,,,,,,,,,,,,,,,,,,,,,,,,,,,,,,,,,,,,,,,,,,,,,,,,,,,,,,,,,,,,,,,,,,,,,,,,,,,,,,,,,,,,,,,,,,,,,,,,,,,,,,,,,,,,,,,,,,,,,,,,,,,
,,67f789ca382e36a759a011af,2026-03-17_12h24.46.081,kallum_motion_pilot_GIST_update_2,2026.1.1,Win32,59.88023952,67f789ca382e36a759a011af,69b92ab4aef6dee357cd729a,69b92b4043e120cb7443760f,0.0326,0.0326,0,72,72,134,1,eightsix,,,,,,,,,,,,,,,,,,,,,,,,,,,,,,,,,,,,,,,,,,,,,,,,,,,,,,,,,,,,,,,,,,,,,,,,,,,,,,,,,,,,,,,,,,,,,,,,,,,,,,,,,,,,,,,,,,,,,,,,,,,,,,,,,,,,,,,,,
,,67f789ca382e36a759a011af,2026-03-17_12h24.46.081,kallum_motion_pilot_GIST_update_2,2026.1.1,Win32,59.88023952,67f789ca382e36a759a011af,69b92ab4aef6dee357cd729a,69b92b4043e120cb7443760f,0.0327,0.0327,0,73,73,137,1,fiveseven,,,,,,,,,,,,,,,,,,,,,,,,,,,,,,,,,,,,,,,,,,,,,,,,,,,,,,,,,,,,,,,,,,,,,,,,,,,,,,,,,,,,,,,,,,,,,,,,,,,,,,,,,,,,,,,,,,,,,,,,,,,,,,,,,,,,,,,,,
,,67f789ca382e36a759a011af,2026-03-17_12h24.46.081,kallum_motion_pilot_GIST_update_2,2026.1.1,Win32,59.88023952,67f789ca382e36a759a011af,69b92ab4aef6dee357cd729a,69b92b4043e120cb7443760f,0.0328,0.0328,0,74,74,18,1,twoone,,,,,,,,,,,,,,,,,,,,,,,,,,,,,,,,,,,,,,,,,,,,,,,,,,,,,,,,,,,,,,,,,,,,,,,,,,,,,,,,,,,,,,,,,,,,,,,,,,,,,,,,,,,,,,,,,,,,,,,,,,,,,,,,,,,,,,,,,
,,67f789ca382e36a759a011af,2026-03-17_12h24.46.081,kallum_motion_pilot_GIST_update_2,2026.1.1,Win32,59.88023952,67f789ca382e36a759a011af,69b92ab4aef6dee357cd729a,69b92b4043e120cb7443760f,0.0328,0.0328,0,75,75,136,1,fivesix,,,,,,,,,,,,,,,,,,,,,,,,,,,,,,,,,,,,,,,,,,,,,,,,,,,,,,,,,,,,,,,,,,,,,,,,,,,,,,,,,,,,,,,,,,,,,,,,,,,,,,,,,,,,,,,,,,,,,,,,,,,,,,,,,,,,,,,,,
,,67f789ca382e36a759a011af,2026-03-17_12h24.46.081,kallum_motion_pilot_GIST_update_2,2026.1.1,Win32,59.88023952,67f789ca382e36a759a011af,69b92ab4aef6dee357cd729a,69b92b4043e120cb7443760f,0.033,0.033,0,76,76,155,1,sixeight,,,,,,,,,,,,,,,,,,,,,,,,,,,,,,,,,,,,,,,,,,,,,,,,,,,,,,,,,,,,,,,,,,,,,,,,,,,,,,,,,,,,,,,,,,,,,,,,,,,,,,,,,,,,,,,,,,,,,,,,,,,,,,,,,,,,,,,,,
,,67f789ca382e36a759a011af,2026-03-17_12h24.46.081,kallum_motion_pilot_GIST_update_2,2026.1.1,Win32,59.88023952,67f789ca382e36a759a011af,69b92ab4aef6dee357cd729a,69b92b4043e120cb7443760f,0.033,0.033,0,77,77,26,1,twoone,,,,,,,,,,,,,,,,,,,,,,,,,,,,,,,,,,,,,,,,,,,,,,,,,,,,,,,,,,,,,,,,,,,,,,,,,,,,,,,,,,,,,,,,,,,,,,,,,,,,,,,,,,,,,,,,,,,,,,,,,,,,,,,,,,,,,,,,,
,,67f789ca382e36a759a011af,2026-03-17_12h24.46.081,kallum_motion_pilot_GIST_update_2,2026.1.1,Win32,59.88023952,67f789ca382e36a759a011af,69b92ab4aef6dee357cd729a,69b92b4043e120cb7443760f,0.0332,0.0332,0,78,78,4,1,threeone,,,,,,,,,,,,,,,,,,,,,,,,,,,,,,,,,,,,,,,,,,,,,,,,,,,,,,,,,,,,,,,,,,,,,,,,,,,,,,,,,,,,,,,,,,,,,,,,,,,,,,,,,,,,,,,,,,,,,,,,,,,,,,,,,,,,,,,,,
,,67f789ca382e36a759a011af,2026-03-17_12h24.46.081,kallum_motion_pilot_GIST_update_2,2026.1.1,Win32,59.88023952,67f789ca382e36a759a011af,69b92ab4aef6dee357cd729a,69b92b4043e120cb7443760f,0.0333,0.0333,0,79,79,138,1,sixfive,,,,,,,,,,,,,,,,,,,,,,,,,,,,,,,,,,,,,,,,,,,,,,,,,,,,,,,,,,,,,,,,,,,,,,,,,,,,,,,,,,,,,,,,,,,,,,,,,,,,,,,,,,,,,,,,,,,,,,,,,,,,,,,,,,,,,,,,,
,,67f789ca382e36a759a011af,2026-03-17_12h24.46.081,kallum_motion_pilot_GIST_update_2,2026.1.1,Win32,59.88023952,67f789ca382e36a759a011af,69b92ab4aef6dee357cd729a,69b92b4043e120cb7443760f,0.0334,0.0334,0,80,80,103,1,eightseven,,,,,,,,,,,,,,,,,,,,,,,,,,,,,,,,,,,,,,,,,,,,,,,,,,,,,,,,,,,,,,,,,,,,,,,,,,,,,,,,,,,,,,,,,,,,,,,,,,,,,,,,,,,,,,,,,,,,,,,,,,,,,,,,,,,,,,,,,
,,67f789ca382e36a759a011af,2026-03-17_12h24.46.081,kallum_motion_pilot_GIST_update_2,2026.1.1,Win32,59.88023952,67f789ca382e36a759a011af,69b92ab4aef6dee357cd729a,69b92b4043e120cb7443760f,0.0335,0.0335,0,81,81,133,1,seveneight,,,,,,,,,,,,,,,,,,,,,,,,,,,,,,,,,,,,,,,,,,,,,,,,,,,,,,,,,,,,,,,,,,,,,,,,,,,,,,,,,,,,,,,,,,,,,,,,,,,,,,,,,,,,,,,,,,,,,,,,,,,,,,,,,,,,,,,,,
,,67f789ca382e36a759a011af,2026-03-17_12h24.46.081,kallum_motion_pilot_GIST_update_2,2026.1.1,Win32,59.88023952,67f789ca382e36a759a011af,69b92ab4aef6dee357cd729a,69b92b4043e120cb7443760f,0.0335,0.0335,0,82,82,143,1,eightseven,,,,,,,,,,,,,,,,,,,,,,,,,,,,,,,,,,,,,,,,,,,,,,,,,,,,,,,,,,,,,,,,,,,,,,,,,,,,,,,,,,,,,,,,,,,,,,,,,,,,,,,,,,,,,,,,,,,,,,,,,,,,,,,,,,,,,,,,,
,,67f789ca382e36a759a011af,2026-03-17_12h24.46.081,kallum_motion_pilot_GIST_update_2,2026.1.1,Win32,59.88023952,67f789ca382e36a759a011af,69b92ab4aef6dee357cd729a,69b92b4043e120cb7443760f,0.0337,0.0337,0,83,83,19,1,twofour,,,,,,,,,,,,,,,,,,,,,,,,,,,,,,,,,,,,,,,,,,,,,,,,,,,,,,,,,,,,,,,,,,,,,,,,,,,,,,,,,,,,,,,,,,,,,,,,,,,,,,,,,,,,,,,,,,,,,,,,,,,,,,,,,,,,,,,,,
,,67f789ca382e36a759a011af,2026-03-17_12h24.46.081,kallum_motion_pilot_GIST_update_2,2026.1.1,Win32,59.88023952,67f789ca382e36a759a011af,69b92ab4aef6dee357cd729a,69b92b4043e120cb7443760f,0.0338,0.0338,0,84,84,54,1,fourtwo,,,,,,,,,,,,,,,,,,,,,,,,,,,,,,,,,,,,,,,,,,,,,,,,,,,,,,,,,,,,,,,,,,,,,,,,,,,,,,,,,,,,,,,,,,,,,,,,,,,,,,,,,,,,,,,,,,,,,,,,,,,,,,,,,,,,,,,,,
,,67f789ca382e36a759a011af,2026-03-17_12h24.46.081,kallum_motion_pilot_GIST_update_2,2026.1.1,Win32,59.88023952,67f789ca382e36a759a011af,69b92ab4aef6dee357cd729a,69b92b4043e120cb7443760f,0.0339,0.0339,0,85,85,67,1,twofour,,,,,,,,,,,,,,,,,,,,,,,,,,,,,,,,,,,,,,,,,,,,,,,,,,,,,,,,,,,,,,,,,,,,,,,,,,,,,,,,,,,,,,,,,,,,,,,,,,,,,,,,,,,,,,,,,,,,,,,,,,,,,,,,,,,,,,,,,
,,67f789ca382e36a759a011af,2026-03-17_12h24.46.081,kallum_motion_pilot_GIST_update_2,2026.1.1,Win32,59.88023952,67f789ca382e36a759a011af,69b92ab4aef6dee357cd729a,69b92b4043e120cb7443760f,0.034,0.034,0,86,86,21,1,threefour,,,,,,,,,,,,,,,,,,,,,,,,,,,,,,,,,,,,,,,,,,,,,,,,,,,,,,,,,,,,,,,,,,,,,,,,,,,,,,,,,,,,,,,,,,,,,,,,,,,,,,,,,,,,,,,,,,,,,,,,,,,,,,,,,,,,,,,,,
,,67f789ca382e36a759a011af,2026-03-17_12h24.46.081,kallum_motion_pilot_GIST_update_2,2026.1.1,Win32,59.88023952,67f789ca382e36a759a011af,69b92ab4aef6dee357cd729a,69b92b4043e120cb7443760f,0.0341,0.0341,0,87,87,88,1,fivesix,,,,,,,,,,,,,,,,,,,,,,,,,,,,,,,,,,,,,,,,,,,,,,,,,,,,,,,,,,,,,,,,,,,,,,,,,,,,,,,,,,,,,,,,,,,,,,,,,,,,,,,,,,,,,,,,,,,,,,,,,,,,,,,,,,,,,,,,,
,,67f789ca382e36a759a011af,2026-03-17_12h24.46.081,kallum_motion_pilot_GIST_update_2,2026.1.1,Win32,59.88023952,67f789ca382e36a759a011af,69b92ab4aef6dee357cd729a,69b92b4043e120cb7443760f,0.0342,0.0342,0,88,88,15,1,fourthree,,,,,,,,,,,,,,,,,,,,,,,,,,,,,,,,,,,,,,,,,,,,,,,,,,,,,,,,,,,,,,,,,,,,,,,,,,,,,,,,,,,,,,,,,,,,,,,,,,,,,,,,,,,,,,,,,,,,,,,,,,,,,,,,,,,,,,,,,
,,67f789ca382e36a759a011af,2026-03-17_12h24.46.081,kallum_motion_pilot_GIST_update_2,2026.1.1,Win32,59.88023952,67f789ca382e36a759a011af,69b92ab4aef6dee357cd729a,69b92b4043e120cb7443760f,0.0342,0.0342,0,89,89,77,1,threefour,,,,,,,,,,,,,,,,,,,,,,,,,,,,,,,,,,,,,,,,,,,,,,,,,,,,,,,,,,,,,,,,,,,,,,,,,,,,,,,,,,,,,,,,,,,,,,,,,,,,,,,,,,,,,,,,,,,,,,,,,,,,,,,,,,,,,,,,,
,,67f789ca382e36a759a011af,2026-03-17_12h24.46.081,kallum_motion_pilot_GIST_update_2,2026.1.1,Win32,59.88023952,67f789ca382e36a759a011af,69b92ab4aef6dee357cd729a,69b92b4043e120cb7443760f,0.0344,0.0344,0,90,90,75,1,twofour,,,,,,,,,,,,,,,,,,,,,,,,,,,,,,,,,,,,,,,,,,,,,,,,,,,,,,,,,,,,,,,,,,,,,,,,,,,,,,,,,,,,,,,,,,,,,,,,,,,,,,,,,,,,,,,,,,,,,,,,,,,,,,,,,,,,,,,,,
,,67f789ca382e36a759a011af,2026-03-17_12h24.46.081,kallum_motion_pilot_GIST_update_2,2026.1.1,Win32,59.88023952,67f789ca382e36a759a011af,69b92ab4aef6dee357cd729a,69b92b4043e120cb7443760f,0.0346,0.0346,0,91,91,132,1,sevenfive,,,,,,,,,,,,,,,,,,,,,,,,,,,,,,,,,,,,,,,,,,,,,,,,,,,,,,,,,,,,,,,,,,,,,,,,,,,,,,,,,,,,,,,,,,,,,,,,,,,,,,,,,,,,,,,,,,,,,,,,,,,,,,,,,,,,,,,,,
,,67f789ca382e36a759a011af,2026-03-17_12h24.46.081,kallum_motion_pilot_GIST_update_2,2026.1.1,Win32,59.88023952,67f789ca382e36a759a011af,69b92ab4aef6dee357cd729a,69b92b4043e120cb7443760f,0.0348,0.0348,0,92,92,7,1,fourthree,,,,,,,,,,,,,,,,,,,,,,,,,,,,,,,,,,,,,,,,,,,,,,,,,,,,,,,,,,,,,,,,,,,,,,,,,,,,,,,,,,,,,,,,,,,,,,,,,,,,,,,,,,,,,,,,,,,,,,,,,,,,,,,,,,,,,,,,,
,,67f789ca382e36a759a011af,2026-03-17_12h24.46.081,kallum_motion_pilot_GIST_update_2,2026.1.1,Win32,59.88023952,67f789ca382e36a759a011af,69b92ab4aef6dee357cd729a,69b92b4043e120cb7443760f,0.035,0.035,0,93,93,68,1,threeone,,,,,,,,,,,,,,,,,,,,,,,,,,,,,,,,,,,,,,,,,,,,,,,,,,,,,,,,,,,,,,,,,,,,,,,,,,,,,,,,,,,,,,,,,,,,,,,,,,,,,,,,,,,,,,,,,,,,,,,,,,,,,,,,,,,,,,,,,
,,67f789ca382e36a759a011af,2026-03-17_12h24.46.081,kallum_motion_pilot_GIST_update_2,2026.1.1,Win32,59.88023952,67f789ca382e36a759a011af,69b92ab4aef6dee357cd729a,69b92b4043e120cb7443760f,0.0352,0.0352,0,94,94,116,1,sevenfive,,,,,,,,,,,,,,,,,,,,,,,,,,,,,,,,,,,,,,,,,,,,,,,,,,,,,,,,,,,,,,,,,,,,,,,,,,,,,,,,,,,,,,,,,,,,,,,,,,,,,,,,,,,,,,,,,,,,,,,,,,,,,,,,,,,,,,,,,
,,67f789ca382e36a759a011af,2026-03-17_12h24.46.081,kallum_motion_pilot_GIST_update_2,2026.1.1,Win32,59.88023952,67f789ca382e36a759a011af,69b92ab4aef6dee357cd729a,69b92b4043e120cb7443760f,0.0352,0.0352,0,95,95,89,1,fiveseven,,,,,,,,,,,,,,,,,,,,,,,,,,,,,,,,,,,,,,,,,,,,,,,,,,,,,,,,,,,,,,,,,,,,,,,,,,,,,,,,,,,,,,,,,,,,,,,,,,,,,,,,,,,,,,,,,,,,,,,,,,,,,,,,,,,,,,,,,
,,67f789ca382e36a759a011af,2026-03-17_12h24.46.081,kallum_motion_pilot_GIST_update_2,2026.1.1,Win32,59.88023952,67f789ca382e36a759a011af,69b92ab4aef6dee357cd729a,69b92b4043e120cb7443760f,0.0354,0.0354,0,96,96,46,1,fourtwo,,,,,,,,,,,,,,,,,,,,,,,,,,,,,,,,,,,,,,,,,,,,,,,,,,,,,,,,,,,,,,,,,,,,,,,,,,,,,,,,,,,,,,,,,,,,,,,,,,,,,,,,,,,,,,,,,,,,,,,,,,,,,,,,,,,,,,,,,
,,67f789ca382e36a759a011af,2026-03-17_12h24.46.081,kallum_motion_pilot_GIST_update_2,2026.1.1,Win32,59.88023952,67f789ca382e36a759a011af,69b92ab4aef6dee357cd729a,69b92b4043e120cb7443760f,0.0356,0.0356,0,97,97,12,1,threeone,,,,,,,,,,,,,,,,,,,,,,,,,,,,,,,,,,,,,,,,,,,,,,,,,,,,,,,,,,,,,,,,,,,,,,,,,,,,,,,,,,,,,,,,,,,,,,,,,,,,,,,,,,,,,,,,,,,,,,,,,,,,,,,,,,,,,,,,,
,,67f789ca382e36a759a011af,2026-03-17_12h24.46.081,kallum_motion_pilot_GIST_update_2,2026.1.1,Win32,59.88023952,67f789ca382e36a759a011af,69b92ab4aef6dee357cd729a,69b92b4043e120cb7443760f,0.0358,0.0358,0,98,98,86,1,eightsix,,,,,,,,,,,,,,,,,,,,,,,,,,,,,,,,,,,,,,,,,,,,,,,,,,,,,,,,,,,,,,,,,,,,,,,,,,,,,,,,,,,,,,,,,,,,,,,,,,,,,,,,,,,,,,,,,,,,,,,,,,,,,,,,,,,,,,,,,
,,67f789ca382e36a759a011af,2026-03-17_12h24.46.081,kallum_motion_pilot_GIST_update_2,2026.1.1,Win32,59.88023952,67f789ca382e36a759a011af,69b92ab4aef6dee357cd729a,69b92b4043e120cb7443760f,0.0358,0.0358,0,99,99,69,1,threefour,,,,,,,,,,,,,,,,,,,,,,,,,,,,,,,,,,,,,,,,,,,,,,,,,,,,,,,,,,,,,,,,,,,,,,,,,,,,,,,,,,,,,,,,,,,,,,,,,,,,,,,,,,,,,,,,,,,,,,,,,,,,,,,,,,,,,,,,,
,,67f789ca382e36a759a011af,2026-03-17_12h24.46.081,kallum_motion_pilot_GIST_update_2,2026.1.1,Win32,59.88023952,67f789ca382e36a759a011af,69b92ab4aef6dee357cd729a,69b92b4043e120cb7443760f,0.0359,0.0359,0,100,100,96,1,fivesix,,,,,,,,,,,,,,,,,,,,,,,,,,,,,,,,,,,,,,,,,,,,,,,,,,,,,,,,,,,,,,,,,,,,,,,,,,,,,,,,,,,,,,,,,,,,,,,,,,,,,,,,,,,,,,,,,,,,,,,,,,,,,,,,,,,,,,,,,
,,67f789ca382e36a759a011af,2026-03-17_12h24.46.081,kallum_motion_pilot_GIST_update_2,2026.1.1,Win32,59.88023952,67f789ca382e36a759a011af,69b92ab4aef6dee357cd729a,69b92b4043e120cb7443760f,0.0361,0.0361,0,101,101,45,1,threefour,,,,,,,,,,,,,,,,,,,,,,,,,,,,,,,,,,,,,,,,,,,,,,,,,,,,,,,,,,,,,,,,,,,,,,,,,,,,,,,,,,,,,,,,,,,,,,,,,,,,,,,,,,,,,,,,,,,,,,,,,,,,,,,,,,,,,,,,,
,,67f789ca382e36a759a011af,2026-03-17_12h24.46.081,kallum_motion_pilot_GIST_update_2,2026.1.1,Win32,59.88023952,67f789ca382e36a759a011af,69b92ab4aef6dee357cd729a,69b92b4043e120cb7443760f,0.0362,0.0362,0,102,102,114,1,sixfive,,,,,,,,,,,,,,,,,,,,,,,,,,,,,,,,,,,,,,,,,,,,,,,,,,,,,,,,,,,,,,,,,,,,,,,,,,,,,,,,,,,,,,,,,,,,,,,,,,,,,,,,,,,,,,,,,,,,,,,,,,,,,,,,,,,,,,,,,
,,67f789ca382e36a759a011af,2026-03-17_12h24.46.081,kallum_motion_pilot_GIST_update_2,2026.1.1,Win32,59.88023952,67f789ca382e36a759a011af,69b92ab4aef6dee357cd729a,69b92b4043e120cb7443760f,0.0363,0.0363,0,103,103,107,1,sixeight,,,,,,,,,,,,,,,,,,,,,,,,,,,,,,,,,,,,,,,,,,,,,,,,,,,,,,,,,,,,,,,,,,,,,,,,,,,,,,,,,,,,,,,,,,,,,,,,,,,,,,,,,,,,,,,,,,,,,,,,,,,,,,,,,,,,,,,,,
,,67f789ca382e36a759a011af,2026-03-17_12h24.46.081,kallum_motion_pilot_GIST_update_2,2026.1.1,Win32,59.88023952,67f789ca382e36a759a011af,69b92ab4aef6dee357cd729a,69b92b4043e120cb7443760f,0.0364,0.0364,0,104,104,5,1,threefour,,,,,,,,,,,,,,,,,,,,,,,,,,,,,,,,,,,,,,,,,,,,,,,,,,,,,,,,,,,,,,,,,,,,,,,,,,,,,,,,,,,,,,,,,,,,,,,,,,,,,,,,,,,,,,,,,,,,,,,,,,,,,,,,,,,,,,,,,
,,67f789ca382e36a759a011af,2026-03-17_12h24.46.081,kallum_motion_pilot_GIST_update_2,2026.1.1,Win32,59.88023952,67f789ca382e36a759a011af,69b92ab4aef6dee357cd729a,69b92b4043e120cb7443760f,0.0365,0.0365,0,105,105,118,1,eightsix,,,,,,,,,,,,,,,,,,,,,,,,,,,,,,,,,,,,,,,,,,,,,,,,,,,,,,,,,,,,,,,,,,,,,,,,,,,,,,,,,,,,,,,,,,,,,,,,,,,,,,,,,,,,,,,,,,,,,,,,,,,,,,,,,,,,,,,,,
,,67f789ca382e36a759a011af,2026-03-17_12h24.46.081,kallum_motion_pilot_GIST_update_2,2026.1.1,Win32,59.88023952,67f789ca382e36a759a011af,69b92ab4aef6dee357cd729a,69b92b4043e120cb7443760f,0.0366,0.0366,0,106,106,127,1,eightseven,,,,,,,,,,,,,,,,,,,,,,,,,,,,,,,,,,,,,,,,,,,,,,,,,,,,,,,,,,,,,,,,,,,,,,,,,,,,,,,,,,,,,,,,,,,,,,,,,,,,,,,,,,,,,,,,,,,,,,,,,,,,,,,,,,,,,,,,,
,,67f789ca382e36a759a011af,2026-03-17_12h24.46.081,kallum_motion_pilot_GIST_update_2,2026.1.1,Win32,59.88023952,67f789ca382e36a759a011af,69b92ab4aef6dee357cd729a,69b92b4043e120cb7443760f,0.0367,0.0367,0,107,107,128,1,fivesix,,,,,,,,,,,,,,,,,,,,,,,,,,,,,,,,,,,,,,,,,,,,,,,,,,,,,,,,,,,,,,,,,,,,,,,,,,,,,,,,,,,,,,,,,,,,,,,,,,,,,,,,,,,,,,,,,,,,,,,,,,,,,,,,,,,,,,,,,
,,67f789ca382e36a759a011af,2026-03-17_12h24.46.081,kallum_motion_pilot_GIST_update_2,2026.1.1,Win32,59.88023952,67f789ca382e36a759a011af,69b92ab4aef6dee357cd729a,69b92b4043e120cb7443760f,0.0368,0.0368,0,108,108,142,1,eightsix,,,,,,,,,,,,,,,,,,,,,,,,,,,,,,,,,,,,,,,,,,,,,,,,,,,,,,,,,,,,,,,,,,,,,,,,,,,,,,,,,,,,,,,,,,,,,,,,,,,,,,,,,,,,,,,,,,,,,,,,,,,,,,,,,,,,,,,,,
,,67f789ca382e36a759a011af,2026-03-17_12h24.46.081,kallum_motion_pilot_GIST_update_2,2026.1.1,Win32,59.88023952,67f789ca382e36a759a011af,69b92ab4aef6dee357cd729a,69b92b4043e120cb7443760f,0.0369,0.0369,0,109,109,145,1,fiveseven,,,,,,,,,,,,,,,,,,,,,,,,,,,,,,,,,,,,,,,,,,,,,,,,,,,,,,,,,,,,,,,,,,,,,,,,,,,,,,,,,,,,,,,,,,,,,,,,,,,,,,,,,,,,,,,,,,,,,,,,,,,,,,,,,,,,,,,,,
,,67f789ca382e36a759a011af,2026-03-17_12h24.46.081,kallum_motion_pilot_GIST_update_2,2026.1.1,Win32,59.88023952,67f789ca382e36a759a011af,69b92ab4aef6dee357cd729a,69b92b4043e120cb7443760f,0.037,0.037,0,110,110,65,1,onethree,,,,,,,,,,,,,,,,,,,,,,,,,,,,,,,,,,,,,,,,,,,,,,,,,,,,,,,,,,,,,,,,,,,,,,,,,,,,,,,,,,,,,,,,,,,,,,,,,,,,,,,,,,,,,,,,,,,,,,,,,,,,,,,,,,,,,,,,,
,,67f789ca382e36a759a011af,2026-03-17_12h24.46.081,kallum_motion_pilot_GIST_update_2,2026.1.1,Win32,59.88023952,67f789ca382e36a759a011af,69b92ab4aef6dee357cd729a,69b92b4043e120cb7443760f,0.0371,0.0371,0,111,111,153,1,fiveseven,,,,,,,,,,,,,,,,,,,,,,,,,,,,,,,,,,,,,,,,,,,,,,,,,,,,,,,,,,,,,,,,,,,,,,,,,,,,,,,,,,,,,,,,,,,,,,,,,,,,,,,,,,,,,,,,,,,,,,,,,,,,,,,,,,,,,,,,,
,,67f789ca382e36a759a011af,2026-03-17_12h24.46.081,kallum_motion_pilot_GIST_update_2,2026.1.1,Win32,59.88023952,67f789ca382e36a759a011af,69b92ab4aef6dee357cd729a,69b92b4043e120cb7443760f,0.0372,0.0372,0,112,112,135,1,eightseven,,,,,,,,,,,,,,,,,,,,,,,,,,,,,,,,,,,,,,,,,,,,,,,,,,,,,,,,,,,,,,,,,,,,,,,,,,,,,,,,,,,,,,,,,,,,,,,,,,,,,,,,,,,,,,,,,,,,,,,,,,,,,,,,,,,,,,,,,
,,67f789ca382e36a759a011af,2026-03-17_12h24.46.081,kallum_motion_pilot_GIST_update_2,2026.1.1,Win32,59.88023952,67f789ca382e36a759a011af,69b92ab4aef6dee357cd729a,69b92b4043e120cb7443760f,0.0373,0.0373,0,113,113,157,1,seveneight,,,,,,,,,,,,,,,,,,,,,,,,,,,,,,,,,,,,,,,,,,,,,,,,,,,,,,,,,,,,,,,,,,,,,,,,,,,,,,,,,,,,,,,,,,,,,,,,,,,,,,,,,,,,,,,,,,,,,,,,,,,,,,,,,,,,,,,,,
,,67f789ca382e36a759a011af,2026-03-17_12h24.46.081,kallum_motion_pilot_GIST_update_2,2026.1.1,Win32,59.88023952,67f789ca382e36a759a011af,69b92ab4aef6dee357cd729a,69b92b4043e120cb7443760f,0.0375,0.0375,0,114,114,102,1,eightsix,,,,,,,,,,,,,,,,,,,,,,,,,,,,,,,,,,,,,,,,,,,,,,,,,,,,,,,,,,,,,,,,,,,,,,,,,,,,,,,,,,,,,,,,,,,,,,,,,,,,,,,,,,,,,,,,,,,,,,,,,,,,,,,,,,,,,,,,,
,,67f789ca382e36a759a011af,2026-03-17_12h24.46.081,kallum_motion_pilot_GIST_update_2,2026.1.1,Win32,59.88023952,67f789ca382e36a759a011af,69b92ab4aef6dee357cd729a,69b92b4043e120cb7443760f,0.0375,0.0375,0,115,115,10,1,twoone,,,,,,,,,,,,,,,,,,,,,,,,,,,,,,,,,,,,,,,,,,,,,,,,,,,,,,,,,,,,,,,,,,,,,,,,,,,,,,,,,,,,,,,,,,,,,,,,,,,,,,,,,,,,,,,,,,,,,,,,,,,,,,,,,,,,,,,,,
,,67f789ca382e36a759a011af,2026-03-17_12h24.46.081,kallum_motion_pilot_GIST_update_2,2026.1.1,Win32,59.88023952,67f789ca382e36a759a011af,69b92ab4aef6dee357cd729a,69b92b4043e120cb7443760f,0.0376,0.0377,0,116,116,108,1,sevenfive,,,,,,,,,,,,,,,,,,,,,,,,,,,,,,,,,,,,,,,,,,,,,,,,,,,,,,,,,,,,,,,,,,,,,,,,,,,,,,,,,,,,,,,,,,,,,,,,,,,,,,,,,,,,,,,,,,,,,,,,,,,,,,,,,,,,,,,,,
,,67f789ca382e36a759a011af,2026-03-17_12h24.46.081,kallum_motion_pilot_GIST_update_2,2026.1.1,Win32,59.88023952,67f789ca382e36a759a011af,69b92ab4aef6dee357cd729a,69b92b4043e120cb7443760f,0.0377,0.0377,0,117,117,1,1,onethree,,,,,,,,,,,,,,,,,,,,,,,,,,,,,,,,,,,,,,,,,,,,,,,,,,,,,,,,,,,,,,,,,,,,,,,,,,,,,,,,,,,,,,,,,,,,,,,,,,,,,,,,,,,,,,,,,,,,,,,,,,,,,,,,,,,,,,,,,
,,67f789ca382e36a759a011af,2026-03-17_12h24.46.081,kallum_motion_pilot_GIST_update_2,2026.1.1,Win32,59.88023952,67f789ca382e36a759a011af,69b92ab4aef6dee357cd729a,69b92b4043e120cb7443760f,0.0379,0.0379,0,118,118,43,1,twofour,,,,,,,,,,,,,,,,,,,,,,,,,,,,,,,,,,,,,,,,,,,,,,,,,,,,,,,,,,,,,,,,,,,,,,,,,,,,,,,,,,,,,,,,,,,,,,,,,,,,,,,,,,,,,,,,,,,,,,,,,,,,,,,,,,,,,,,,,
,,67f789ca382e36a759a011af,2026-03-17_12h24.46.081,kallum_motion_pilot_GIST_update_2,2026.1.1,Win32,59.88023952,67f789ca382e36a759a011af,69b92ab4aef6dee357cd729a,69b92b4043e120cb7443760f,0.0381,0.0381,0,119,119,28,1,threeone,,,,,,,,,,,,,,,,,,,,,,,,,,,,,,,,,,,,,,,,,,,,,,,,,,,,,,,,,,,,,,,,,,,,,,,,,,,,,,,,,,,,,,,,,,,,,,,,,,,,,,,,,,,,,,,,,,,,,,,,,,,,,,,,,,,,,,,,,
,,67f789ca382e36a759a011af,2026-03-17_12h24.46.081,kallum_motion_pilot_GIST_update_2,2026.1.1,Win32,59.88023952,67f789ca382e36a759a011af,69b92ab4aef6dee357cd729a,69b92b4043e120cb7443760f,0.0382,0.0382,0,120,120,115,1,sixeight,,,,,,,,,,,,,,,,,,,,,,,,,,,,,,,,,,,,,,,,,,,,,,,,,,,,,,,,,,,,,,,,,,,,,,,,,,,,,,,,,,,,,,,,,,,,,,,,,,,,,,,,,,,,,,,,,,,,,,,,,,,,,,,,,,,,,,,,,
,,67f789ca382e36a759a011af,2026-03-17_12h24.46.081,kallum_motion_pilot_GIST_update_2,2026.1.1,Win32,59.88023952,67f789ca382e36a759a011af,69b92ab4aef6dee357cd729a,69b92b4043e120cb7443760f,0.0383,0.0383,0,121,121,161,1,fiveseven,,,,,,,,,,,,,,,,,,,,,,,,,,,,,,,,,,,,,,,,,,,,,,,,,,,,,,,,,,,,,,,,,,,,,,,,,,,,,,,,,,,,,,,,,,,,,,,,,,,,,,,,,,,,,,,,,,,,,,,,,,,,,,,,,,,,,,,,,
,,67f789ca382e36a759a011af,2026-03-17_12h24.46.081,kallum_motion_pilot_GIST_update_2,2026.1.1,Win32,59.88023952,67f789ca382e36a759a011af,69b92ab4aef6dee357cd729a,69b92b4043e120cb7443760f,0.0384,0.0384,0,122,122,50,1,twoone,,,,,,,,,,,,,,,,,,,,,,,,,,,,,,,,,,,,,,,,,,,,,,,,,,,,,,,,,,,,,,,,,,,,,,,,,,,,,,,,,,,,,,,,,,,,,,,,,,,,,,,,,,,,,,,,,,,,,,,,,,,,,,,,,,,,,,,,,
,,67f789ca382e36a759a011af,2026-03-17_12h24.46.081,kallum_motion_pilot_GIST_update_2,2026.1.1,Win32,59.88023952,67f789ca382e36a759a011af,69b92ab4aef6dee357cd729a,69b92b4043e120cb7443760f,0.0385,0.0385,0,123,123,33,1,onethree,,,,,,,,,,,,,,,,,,,,,,,,,,,,,,,,,,,,,,,,,,,,,,,,,,,,,,,,,,,,,,,,,,,,,,,,,,,,,,,,,,,,,,,,,,,,,,,,,,,,,,,,,,,,,,,,,,,,,,,,,,,,,,,,,,,,,,,,,
,,67f789ca382e36a759a011af,2026-03-17_12h24.46.081,kallum_motion_pilot_GIST_update_2,2026.1.1,Win32,59.88023952,67f789ca382e36a759a011af,69b92ab4aef6dee357cd729a,69b92b4043e120cb7443760f,0.0386,0.0386,0,124,124,141,1,seveneight,,,,,,,,,,,,,,,,,,,,,,,,,,,,,,,,,,,,,,,,,,,,,,,,,,,,,,,,,,,,,,,,,,,,,,,,,,,,,,,,,,,,,,,,,,,,,,,,,,,,,,,,,,,,,,,,,,,,,,,,,,,,,,,,,,,,,,,,,
,,67f789ca382e36a759a011af,2026-03-17_12h24.46.081,kallum_motion_pilot_GIST_update_2,2026.1.1,Win32,59.88023952,67f789ca382e36a759a011af,69b92ab4aef6dee357cd729a,69b92b4043e120cb7443760f,0.0387,0.0388,0,125,125,8,1,onetwo,,,,,,,,,,,,,,,,,,,,,,,,,,,,,,,,,,,,,,,,,,,,,,,,,,,,,,,,,,,,,,,,,,,,,,,,,,,,,,,,,,,,,,,,,,,,,,,,,,,,,,,,,,,,,,,,,,,,,,,,,,,,,,,,,,,,,,,,,
,,67f789ca382e36a759a011af,2026-03-17_12h24.46.081,kallum_motion_pilot_GIST_update_2,2026.1.1,Win32,59.88023952,67f789ca382e36a759a011af,69b92ab4aef6dee357cd729a,69b92b4043e120cb7443760f,0.0389,0.0389,0,126,126,73,1,onethree,,,,,,,,,,,,,,,,,,,,,,,,,,,,,,,,,,,,,,,,,,,,,,,,,,,,,,,,,,,,,,,,,,,,,,,,,,,,,,,,,,,,,,,,,,,,,,,,,,,,,,,,,,,,,,,,,,,,,,,,,,,,,,,,,,,,,,,,,
,,67f789ca382e36a759a011af,2026-03-17_12h24.46.081,kallum_motion_pilot_GIST_update_2,2026.1.1,Win32,59.88023952,67f789ca382e36a759a011af,69b92ab4aef6dee357cd729a,69b92b4043e120cb7443760f,0.0389,0.0389,0,127,127,9,1,onethree,,,,,,,,,,,,,,,,,,,,,,,,,,,,,,,,,,,,,,,,,,,,,,,,,,,,,,,,,,,,,,,,,,,,,,,,,,,,,,,,,,,,,,,,,,,,,,,,,,,,,,,,,,,,,,,,,,,,,,,,,,,,,,,,,,,,,,,,,
,,67f789ca382e36a759a011af,2026-03-17_12h24.46.081,kallum_motion_pilot_GIST_update_2,2026.1.1,Win32,59.88023952,67f789ca382e36a759a011af,69b92ab4aef6dee357cd729a,69b92b4043e120cb7443760f,0.0391,0.0391,0,128,128,151,1,eightseven,,,,,,,,,,,,,,,,,,,,,,,,,,,,,,,,,,,,,,,,,,,,,,,,,,,,,,,,,,,,,,,,,,,,,,,,,,,,,,,,,,,,,,,,,,,,,,,,,,,,,,,,,,,,,,,,,,,,,,,,,,,,,,,,,,,,,,,,,
,,67f789ca382e36a759a011af,2026-03-17_12h24.46.081,kallum_motion_pilot_GIST_update_2,2026.1.1,Win32,59.88023952,67f789ca382e36a759a011af,69b92ab4aef6dee357cd729a,69b92b4043e120cb7443760f,0.0392,0.0392,0,129,129,92,1,sevenfive,,,,,,,,,,,,,,,,,,,,,,,,,,,,,,,,,,,,,,,,,,,,,,,,,,,,,,,,,,,,,,,,,,,,,,,,,,,,,,,,,,,,,,,,,,,,,,,,,,,,,,,,,,,,,,,,,,,,,,,,,,,,,,,,,,,,,,,,,
,,67f789ca382e36a759a011af,2026-03-17_12h24.46.081,kallum_motion_pilot_GIST_update_2,2026.1.1,Win32,59.88023952,67f789ca382e36a759a011af,69b92ab4aef6dee357cd729a,69b92b4043e120cb7443760f,0.0393,0.0393,0,130,130,146,1,sixfive,,,,,,,,,,,,,,,,,,,,,,,,,,,,,,,,,,,,,,,,,,,,,,,,,,,,,,,,,,,,,,,,,,,,,,,,,,,,,,,,,,,,,,,,,,,,,,,,,,,,,,,,,,,,,,,,,,,,,,,,,,,,,,,,,,,,,,,,,
,,67f789ca382e36a759a011af,2026-03-17_12h24.46.081,kallum_motion_pilot_GIST_update_2,2026.1.1,Win32,59.88023952,67f789ca382e36a759a011af,69b92ab4aef6dee357cd729a,69b92b4043e120cb7443760f,0.0394,0.0394,0,131,131,90,1,sixfive,,,,,,,,,,,,,,,,,,,,,,,,,,,,,,,,,,,,,,,,,,,,,,,,,,,,,,,,,,,,,,,,,,,,,,,,,,,,,,,,,,,,,,,,,,,,,,,,,,,,,,,,,,,,,,,,,,,,,,,,,,,,,,,,,,,,,,,,,
,,67f789ca382e36a759a011af,2026-03-17_12h24.46.081,kallum_motion_pilot_GIST_update_2,2026.1.1,Win32,59.88023952,67f789ca382e36a759a011af,69b92ab4aef6dee357cd729a,69b92b4043e120cb7443760f,0.0395,0.0395,0,132,132,129,1,fiveseven,,,,,,,,,,,,,,,,,,,,,,,,,,,,,,,,,,,,,,,,,,,,,,,,,,,,,,,,,,,,,,,,,,,,,,,,,,,,,,,,,,,,,,,,,,,,,,,,,,,,,,,,,,,,,,,,,,,,,,,,,,,,,,,,,,,,,,,,,
,,67f789ca382e36a759a011af,2026-03-17_12h24.46.081,kallum_motion_pilot_GIST_update_2,2026.1.1,Win32,59.88023952,67f789ca382e36a759a011af,69b92ab4aef6dee357cd729a,69b92b4043e120cb7443760f,0.0396,0.0396,0,133,133,120,1,fivesix,,,,,,,,,,,,,,,,,,,,,,,,,,,,,,,,,,,,,,,,,,,,,,,,,,,,,,,,,,,,,,,,,,,,,,,,,,,,,,,,,,,,,,,,,,,,,,,,,,,,,,,,,,,,,,,,,,,,,,,,,,,,,,,,,,,,,,,,,
,,67f789ca382e36a759a011af,2026-03-17_12h24.46.081,kallum_motion_pilot_GIST_update_2,2026.1.1,Win32,59.88023952,67f789ca382e36a759a011af,69b92ab4aef6dee357cd729a,69b92b4043e120cb7443760f,0.0397,0.0397,0,134,134,53,1,threefour,,,,,,,,,,,,,,,,,,,,,,,,,,,,,,,,,,,,,,,,,,,,,,,,,,,,,,,,,,,,,,,,,,,,,,,,,,,,,,,,,,,,,,,,,,,,,,,,,,,,,,,,,,,,,,,,,,,,,,,,,,,,,,,,,,,,,,,,,
,,67f789ca382e36a759a011af,2026-03-17_12h24.46.081,kallum_motion_pilot_GIST_update_2,2026.1.1,Win32,59.88023952,67f789ca382e36a759a011af,69b92ab4aef6dee357cd729a,69b92b4043e120cb7443760f,0.0398,0.0398,0,135,135,152,1,fivesix,,,,,,,,,,,,,,,,,,,,,,,,,,,,,,,,,,,,,,,,,,,,,,,,,,,,,,,,,,,,,,,,,,,,,,,,,,,,,,,,,,,,,,,,,,,,,,,,,,,,,,,,,,,,,,,,,,,,,,,,,,,,,,,,,,,,,,,,,
,,67f789ca382e36a759a011af,2026-03-17_12h24.46.081,kallum_motion_pilot_GIST_update_2,2026.1.1,Win32,59.88023952,67f789ca382e36a759a011af,69b92ab4aef6dee357cd729a,69b92b4043e120cb7443760f,0.0399,0.0399,0,136,136,30,1,fourtwo,,,,,,,,,,,,,,,,,,,,,,,,,,,,,,,,,,,,,,,,,,,,,,,,,,,,,,,,,,,,,,,,,,,,,,,,,,,,,,,,,,,,,,,,,,,,,,,,,,,,,,,,,,,,,,,,,,,,,,,,,,,,,,,,,,,,,,,,,
,,67f789ca382e36a759a011af,2026-03-17_12h24.46.081,kallum_motion_pilot_GIST_update_2,2026.1.1,Win32,59.88023952,67f789ca382e36a759a011af,69b92ab4aef6dee357cd729a,69b92b4043e120cb7443760f,0.04,0.04,0,137,137,2,1,twoone,,,,,,,,,,,,,,,,,,,,,,,,,,,,,,,,,,,,,,,,,,,,,,,,,,,,,,,,,,,,,,,,,,,,,,,,,,,,,,,,,,,,,,,,,,,,,,,,,,,,,,,,,,,,,,,,,,,,,,,,,,,,,,,,,,,,,,,,,
,,67f789ca382e36a759a011af,2026-03-17_12h24.46.081,kallum_motion_pilot_GIST_update_2,2026.1.1,Win32,59.88023952,67f789ca382e36a759a011af,69b92ab4aef6dee357cd729a,69b92b4043e120cb7443760f,0.0401,0.0401,0,138,138,109,1,seveneight,,,,,,,,,,,,,,,,,,,,,,,,,,,,,,,,,,,,,,,,,,,,,,,,,,,,,,,,,,,,,,,,,,,,,,,,,,,,,,,,,,,,,,,,,,,,,,,,,,,,,,,,,,,,,,,,,,,,,,,,,,,,,,,,,,,,,,,,,
,,67f789ca382e36a759a011af,2026-03-17_12h24.46.081,kallum_motion_pilot_GIST_update_2,2026.1.1,Win32,59.88023952,67f789ca382e36a759a011af,69b92ab4aef6dee357cd729a,69b92b4043e120cb7443760f,0.0402,0.0402,0,139,139,44,1,threeone,,,,,,,,,,,,,,,,,,,,,,,,,,,,,,,,,,,,,,,,,,,,,,,,,,,,,,,,,,,,,,,,,,,,,,,,,,,,,,,,,,,,,,,,,,,,,,,,,,,,,,,,,,,,,,,,,,,,,,,,,,,,,,,,,,,,,,,,,
,,67f789ca382e36a759a011af,2026-03-17_12h24.46.081,kallum_motion_pilot_GIST_update_2,2026.1.1,Win32,59.88023952,67f789ca382e36a759a011af,69b92ab4aef6dee357cd729a,69b92b4043e120cb7443760f,0.0404,0.0404,0,140,140,35,1,twofour,,,,,,,,,,,,,,,,,,,,,,,,,,,,,,,,,,,,,,,,,,,,,,,,,,,,,,,,,,,,,,,,,,,,,,,,,,,,,,,,,,,,,,,,,,,,,,,,,,,,,,,,,,,,,,,,,,,,,,,,,,,,,,,,,,,,,,,,,
,,67f789ca382e36a759a011af,2026-03-17_12h24.46.081,kallum_motion_pilot_GIST_update_2,2026.1.1,Win32,59.88023952,67f789ca382e36a759a011af,69b92ab4aef6dee357cd729a,69b92b4043e120cb7443760f,0.0405,0.0405,0,141,141,41,1,onethree,,,,,,,,,,,,,,,,,,,,,,,,,,,,,,,,,,,,,,,,,,,,,,,,,,,,,,,,,,,,,,,,,,,,,,,,,,,,,,,,,,,,,,,,,,,,,,,,,,,,,,,,,,,,,,,,,,,,,,,,,,,,,,,,,,,,,,,,,
,,67f789ca382e36a759a011af,2026-03-17_12h24.46.081,kallum_motion_pilot_GIST_update_2,2026.1.1,Win32,59.88023952,67f789ca382e36a759a011af,69b92ab4aef6dee357cd729a,69b92b4043e120cb7443760f,0.0406,0.0406,0,142,142,38,1,fourtwo,,,,,,,,,,,,,,,,,,,,,,,,,,,,,,,,,,,,,,,,,,,,,,,,,,,,,,,,,,,,,,,,,,,,,,,,,,,,,,,,,,,,,,,,,,,,,,,,,,,,,,,,,,,,,,,,,,,,,,,,,,,,,,,,,,,,,,,,,
,,67f789ca382e36a759a011af,2026-03-17_12h24.46.081,kallum_motion_pilot_GIST_update_2,2026.1.1,Win32,59.88023952,67f789ca382e36a759a011af,69b92ab4aef6dee357cd729a,69b92b4043e120cb7443760f,0.0407,0.0407,0,143,143,57,1,onethree,,,,,,,,,,,,,,,,,,,,,,,,,,,,,,,,,,,,,,,,,,,,,,,,,,,,,,,,,,,,,,,,,,,,,,,,,,,,,,,,,,,,,,,,,,,,,,,,,,,,,,,,,,,,,,,,,,,,,,,,,,,,,,,,,,,,,,,,,
,,67f789ca382e36a759a011af,2026-03-17_12h24.46.081,kallum_motion_pilot_GIST_update_2,2026.1.1,Win32,59.88023952,67f789ca382e36a759a011af,69b92ab4aef6dee357cd729a,69b92b4043e120cb7443760f,0.0408,0.0408,0,144,144,55,1,fourthree,,,,,,,,,,,,,,,,,,,,,,,,,,,,,,,,,,,,,,,,,,,,,,,,,,,,,,,,,,,,,,,,,,,,,,,,,,,,,,,,,,,,,,,,,,,,,,,,,,,,,,,,,,,,,,,,,,,,,,,,,,,,,,,,,,,,,,,,,
,,67f789ca382e36a759a011af,2026-03-17_12h24.46.081,kallum_motion_pilot_GIST_update_2,2026.1.1,Win32,59.88023952,67f789ca382e36a759a011af,69b92ab4aef6dee357cd729a,69b92b4043e120cb7443760f,0.0409,0.0409,0,145,145,71,1,fourthree,,,,,,,,,,,,,,,,,,,,,,,,,,,,,,,,,,,,,,,,,,,,,,,,,,,,,,,,,,,,,,,,,,,,,,,,,,,,,,,,,,,,,,,,,,,,,,,,,,,,,,,,,,,,,,,,,,,,,,,,,,,,,,,,,,,,,,,,,
,,67f789ca382e36a759a011af,2026-03-17_12h24.46.081,kallum_motion_pilot_GIST_update_2,2026.1.1,Win32,59.88023952,67f789ca382e36a759a011af,69b92ab4aef6dee357cd729a,69b92b4043e120cb7443760f,0.041,0.041,0,146,146,97,1,fiveseven,,,,,,,,,,,,,,,,,,,,,,,,,,,,,,,,,,,,,,,,,,,,,,,,,,,,,,,,,,,,,,,,,,,,,,,,,,,,,,,,,,,,,,,,,,,,,,,,,,,,,,,,,,,,,,,,,,,,,,,,,,,,,,,,,,,,,,,,,
,,67f789ca382e36a759a011af,2026-03-17_12h24.46.081,kallum_motion_pilot_GIST_update_2,2026.1.1,Win32,59.88023952,67f789ca382e36a759a011af,69b92ab4aef6dee357cd729a,69b92b4043e120cb7443760f,0.0411,0.0411,0,147,147,17,1,onethree,,,,,,,,,,,,,,,,,,,,,,,,,,,,,,,,,,,,,,,,,,,,,,,,,,,,,,,,,,,,,,,,,,,,,,,,,,,,,,,,,,,,,,,,,,,,,,,,,,,,,,,,,,,,,,,,,,,,,,,,,,,,,,,,,,,,,,,,,
,,67f789ca382e36a759a011af,2026-03-17_12h24.46.081,kallum_motion_pilot_GIST_update_2,2026.1.1,Win32,59.88023952,67f789ca382e36a759a011af,69b92ab4aef6dee357cd729a,69b92b4043e120cb7443760f,0.0412,0.0412,0,148,148,121,1,fiveseven,,,,,,,,,,,,,,,,,,,,,,,,,,,,,,,,,,,,,,,,,,,,,,,,,,,,,,,,,,,,,,,,,,,,,,,,,,,,,,,,,,,,,,,,,,,,,,,,,,,,,,,,,,,,,,,,,,,,,,,,,,,,,,,,,,,,,,,,,
,,67f789ca382e36a759a011af,2026-03-17_12h24.46.081,kallum_motion_pilot_GIST_update_2,2026.1.1,Win32,59.88023952,67f789ca382e36a759a011af,69b92ab4aef6dee357cd729a,69b92b4043e120cb7443760f,0.0414,0.0414,0,149,149,105,1,fiveseven,,,,,,,,,,,,,,,,,,,,,,,,,,,,,,,,,,,,,,,,,,,,,,,,,,,,,,,,,,,,,,,,,,,,,,,,,,,,,,,,,,,,,,,,,,,,,,,,,,,,,,,,,,,,,,,,,,,,,,,,,,,,,,,,,,,,,,,,,
,,67f789ca382e36a759a011af,2026-03-17_12h24.46.081,kallum_motion_pilot_GIST_update_2,2026.1.1,Win32,59.88023952,67f789ca382e36a759a011af,69b92ab4aef6dee357cd729a,69b92b4043e120cb7443760f,0.0415,0.0415,0,150,150,147,1,sixeight,,,,,,,,,,,,,,,,,,,,,,,,,,,,,,,,,,,,,,,,,,,,,,,,,,,,,,,,,,,,,,,,,,,,,,,,,,,,,,,,,,,,,,,,,,,,,,,,,,,,,,,,,,,,,,,,,,,,,,,,,,,,,,,,,,,,,,,,,
,,67f789ca382e36a759a011af,2026-03-17_12h24.46.081,kallum_motion_pilot_GIST_update_2,2026.1.1,Win32,59.88023952,67f789ca382e36a759a011af,69b92ab4aef6dee357cd729a,69b92b4043e120cb7443760f,0.0416,0.0416,0,151,151,125,1,seveneight,,,,,,,,,,,,,,,,,,,,,,,,,,,,,,,,,,,,,,,,,,,,,,,,,,,,,,,,,,,,,,,,,,,,,,,,,,,,,,,,,,,,,,,,,,,,,,,,,,,,,,,,,,,,,,,,,,,,,,,,,,,,,,,,,,,,,,,,,
,,67f789ca382e36a759a011af,2026-03-17_12h24.46.081,kallum_motion_pilot_GIST_update_2,2026.1.1,Win32,59.88023952,67f789ca382e36a759a011af,69b92ab4aef6dee357cd729a,69b92b4043e120cb7443760f,0.0417,0.0417,0,152,152,70,1,fourtwo,,,,,,,,,,,,,,,,,,,,,,,,,,,,,,,,,,,,,,,,,,,,,,,,,,,,,,,,,,,,,,,,,,,,,,,,,,,,,,,,,,,,,,,,,,,,,,,,,,,,,,,,,,,,,,,,,,,,,,,,,,,,,,,,,,,,,,,,,
,,67f789ca382e36a759a011af,2026-03-17_12h24.46.081,kallum_motion_pilot_GIST_update_2,2026.1.1,Win32,59.88023952,67f789ca382e36a759a011af,69b92ab4aef6dee357cd729a,69b92b4043e120cb7443760f,0.0418,0.0418,0,153,153,140,1,sevenfive,,,,,,,,,,,,,,,,,,,,,,,,,,,,,,,,,,,,,,,,,,,,,,,,,,,,,,,,,,,,,,,,,,,,,,,,,,,,,,,,,,,,,,,,,,,,,,,,,,,,,,,,,,,,,,,,,,,,,,,,,,,,,,,,,,,,,,,,,
,,67f789ca382e36a759a011af,2026-03-17_12h24.46.081,kallum_motion_pilot_GIST_update_2,2026.1.1,Win32,59.88023952,67f789ca382e36a759a011af,69b92ab4aef6dee357cd729a,69b92b4043e120cb7443760f,0.0419,0.0419,0,154,154,99,1,sixeight,,,,,,,,,,,,,,,,,,,,,,,,,,,,,,,,,,,,,,,,,,,,,,,,,,,,,,,,,,,,,,,,,,,,,,,,,,,,,,,,,,,,,,,,,,,,,,,,,,,,,,,,,,,,,,,,,,,,,,,,,,,,,,,,,,,,,,,,,
,,67f789ca382e36a759a011af,2026-03-17_12h24.46.081,kallum_motion_pilot_GIST_update_2,2026.1.1,Win32,59.88023952,67f789ca382e36a759a011af,69b92ab4aef6dee357cd729a,69b92b4043e120cb7443760f,0.042,0.042,0,155,155,101,1,seveneight,,,,,,,,,,,,,,,,,,,,,,,,,,,,,,,,,,,,,,,,,,,,,,,,,,,,,,,,,,,,,,,,,,,,,,,,,,,,,,,,,,,,,,,,,,,,,,,,,,,,,,,,,,,,,,,,,,,,,,,,,,,,,,,,,,,,,,,,,
,,67f789ca382e36a759a011af,2026-03-17_12h24.46.081,kallum_motion_pilot_GIST_update_2,2026.1.1,Win32,59.88023952,67f789ca382e36a759a011af,69b92ab4aef6dee357cd729a,69b92b4043e120cb7443760f,0.0422,0.0422,0,156,156,81,1,fiveseven,,,,,,,,,,,,,,,,,,,,,,,,,,,,,,,,,,,,,,,,,,,,,,,,,,,,,,,,,,,,,,,,,,,,,,,,,,,,,,,,,,,,,,,,,,,,,,,,,,,,,,,,,,,,,,,,,,,,,,,,,,,,,,,,,,,,,,,,,
,,67f789ca382e36a759a011af,2026-03-17_12h24.46.081,kallum_motion_pilot_GIST_update_2,2026.1.1,Win32,59.88023952,67f789ca382e36a759a011af,69b92ab4aef6dee357cd729a,69b92b4043e120cb7443760f,0.0422,0.0422,0,157,157,156,1,sevenfive,,,,,,,,,,,,,,,,,,,,,,,,,,,,,,,,,,,,,,,,,,,,,,,,,,,,,,,,,,,,,,,,,,,,,,,,,,,,,,,,,,,,,,,,,,,,,,,,,,,,,,,,,,,,,,,,,,,,,,,,,,,,,,,,,,,,,,,,,
,,67f789ca382e36a759a011af,2026-03-17_12h24.46.081,kallum_motion_pilot_GIST_update_2,2026.1.1,Win32,59.88023952,67f789ca382e36a759a011af,69b92ab4aef6dee357cd729a,69b92b4043e120cb7443760f,0.0424,0.0424,0,158,158,22,1,fourtwo,,,,,,,,,,,,,,,,,,,,,,,,,,,,,,,,,,,,,,,,,,,,,,,,,,,,,,,,,,,,,,,,,,,,,,,,,,,,,,,,,,,,,,,,,,,,,,,,,,,,,,,,,,,,,,,,,,,,,,,,,,,,,,,,,,,,,,,,,
,,67f789ca382e36a759a011af,2026-03-17_12h24.46.081,kallum_motion_pilot_GIST_update_2,2026.1.1,Win32,59.88023952,67f789ca382e36a759a011af,69b92ab4aef6dee357cd729a,69b92b4043e120cb7443760f,0.0424,0.0424,0,159,159,119,1,eightseven,,,,,,,,,,,,,,,,,,,,,,,,,,,,,,,,,,,,,,,,,,,,,,,,,,,,,,,,,,,,,,,,,,,,,,,,,,,,,,,,,,,,,,,,,,,,,,,,,,,,,,,,,,,,,,,,,,,,,,,,,,,,,,,,,,,,,,,,,
,,67f789ca382e36a759a011af,2026-03-17_12h24.46.081,kallum_motion_pilot_GIST_update_2,2026.1.1,Win32,59.88023952,67f789ca382e36a759a011af,69b92ab4aef6dee357cd729a,69b92b4043e120cb7443760f,0.0425,0.0425,0,160,160,48,1,onetwo,,,,,,,,,,,,,,,,,,,,,,,,,,,,,,,,,,,,,,,,,,,,,,,,,,,,,,,,,,,,,,,,,,,,,,,,,,,,,,,,,,,,,,,,,,,,,,,,,,,,,,,,,,,,,,,,,,,,,,,,,,,,,,,,,,,,,,,,,
,,67f789ca382e36a759a011af,2026-03-17_12h24.46.081,kallum_motion_pilot_GIST_update_2,2026.1.1,Win32,59.88023952,67f789ca382e36a759a011af,69b92ab4aef6dee357cd729a,69b92b4043e120cb7443760f,0.0427,0.0427,0,161,161,84,1,sevenfive,,,,,,,,,,,,,,,,,,,,,,,,,,,,,,,,,,,,,,,,,,,,,,,,,,,,,,,,,,,,,,,,,,,,,,,,,,,,,,,,,,,,,,,,,,,,,,,,,,,,,,,,,,,,,,,,,,,,,,,,,,,,,,,,,,,,,,,,,
,,67f789ca382e36a759a011af,2026-03-17_12h24.46.081,kallum_motion_pilot_GIST_update_2,2026.1.1,Win32,59.88023952,67f789ca382e36a759a011af,69b92ab4aef6dee357cd729a,69b92b4043e120cb7443760f,0.0428,0.0428,1,0,162,27,1,twofour,,,,,,,,,,,,,,,,,,,,,,,,,,,,,,,,,,,,,,,,,,,,,,,,,,,,,,,,,,,,,,,,,,,,,,,,,,,,,,,,,,,,,,,,,,,,,,,,,,,,,,,,,,,,,,,,,,,,,,,,,,,,,,,,,,,,,,,,,
,,67f789ca382e36a759a011af,2026-03-17_12h24.46.081,kallum_motion_pilot_GIST_update_2,2026.1.1,Win32,59.88023952,67f789ca382e36a759a011af,69b92ab4aef6dee357cd729a,69b92b4043e120cb7443760f,0.0428,0.0428,1,1,163,64,1,onetwo,,,,,,,,,,,,,,,,,,,,,,,,,,,,,,,,,,,,,,,,,,,,,,,,,,,,,,,,,,,,,,,,,,,,,,,,,,,,,,,,,,,,,,,,,,,,,,,,,,,,,,,,,,,,,,,,,,,,,,,,,,,,,,,,,,,,,,,,,
,,67f789ca382e36a759a011af,2026-03-17_12h24.46.081,kallum_motion_pilot_GIST_update_2,2026.1.1,Win32,59.88023952,67f789ca382e36a759a011af,69b92ab4aef6dee357cd729a,69b92b4043e120cb7443760f,0.043,0.043,1,2,164,95,1,eightseven,,,,,,,,,,,,,,,,,,,,,,,,,,,,,,,,,,,,,,,,,,,,,,,,,,,,,,,,,,,,,,,,,,,,,,,,,,,,,,,,,,,,,,,,,,,,,,,,,,,,,,,,,,,,,,,,,,,,,,,,,,,,,,,,,,,,,,,,,
,,67f789ca382e36a759a011af,2026-03-17_12h24.46.081,kallum_motion_pilot_GIST_update_2,2026.1.1,Win32,59.88023952,67f789ca382e36a759a011af,69b92ab4aef6dee357cd729a,69b92b4043e120cb7443760f,0.0432,0.0432,1,3,165,82,1,sixfive,,,,,,,,,,,,,,,,,,,,,,,,,,,,,,,,,,,,,,,,,,,,,,,,,,,,,,,,,,,,,,,,,,,,,,,,,,,,,,,,,,,,,,,,,,,,,,,,,,,,,,,,,,,,,,,,,,,,,,,,,,,,,,,,,,,,,,,,,
,,67f789ca382e36a759a011af,2026-03-17_12h24.46.081,kallum_motion_pilot_GIST_update_2,2026.1.1,Win32,59.88023952,67f789ca382e36a759a011af,69b92ab4aef6dee357cd729a,69b92b4043e120cb7443760f,0.0432,0.0432,1,4,166,122,1,sixfive,,,,,,,,,,,,,,,,,,,,,,,,,,,,,,,,,,,,,,,,,,,,,,,,,,,,,,,,,,,,,,,,,,,,,,,,,,,,,,,,,,,,,,,,,,,,,,,,,,,,,,,,,,,,,,,,,,,,,,,,,,,,,,,,,,,,,,,,,
,,67f789ca382e36a759a011af,2026-03-17_12h24.46.081,kallum_motion_pilot_GIST_update_2,2026.1.1,Win32,59.88023952,67f789ca382e36a759a011af,69b92ab4aef6dee357cd729a,69b92b4043e120cb7443760f,0.0433,0.0434,1,5,167,117,1,seveneight,,,,,,,,,,,,,,,,,,,,,,,,,,,,,,,,,,,,,,,,,,,,,,,,,,,,,,,,,,,,,,,,,,,,,,,,,,,,,,,,,,,,,,,,,,,,,,,,,,,,,,,,,,,,,,,,,,,,,,,,,,,,,,,,,,,,,,,,,
,,67f789ca382e36a759a011af,2026-03-17_12h24.46.081,kallum_motion_pilot_GIST_update_2,2026.1.1,Win32,59.88023952,67f789ca382e36a759a011af,69b92ab4aef6dee357cd729a,69b92b4043e120cb7443760f,0.0435,0.0435,1,6,168,32,1,onetwo,,,,,,,,,,,,,,,,,,,,,,,,,,,,,,,,,,,,,,,,,,,,,,,,,,,,,,,,,,,,,,,,,,,,,,,,,,,,,,,,,,,,,,,,,,,,,,,,,,,,,,,,,,,,,,,,,,,,,,,,,,,,,,,,,,,,,,,,,
,,67f789ca382e36a759a011af,2026-03-17_12h24.46.081,kallum_motion_pilot_GIST_update_2,2026.1.1,Win32,59.88023952,67f789ca382e36a759a011af,69b92ab4aef6dee357cd729a,69b92b4043e120cb7443760f,0.0436,0.0436,1,7,169,24,1,onetwo,,,,,,,,,,,,,,,,,,,,,,,,,,,,,,,,,,,,,,,,,,,,,,,,,,,,,,,,,,,,,,,,,,,,,,,,,,,,,,,,,,,,,,,,,,,,,,,,,,,,,,,,,,,,,,,,,,,,,,,,,,,,,,,,,,,,,,,,,
,,67f789ca382e36a759a011af,2026-03-17_12h24.46.081,kallum_motion_pilot_GIST_update_2,2026.1.1,Win32,59.88023952,67f789ca382e36a759a011af,69b92ab4aef6dee357cd729a,69b92b4043e120cb7443760f,0.0437,0.0437,1,8,170,10,1,twoone,,,,,,,,,,,,,,,,,,,,,,,,,,,,,,,,,,,,,,,,,,,,,,,,,,,,,,,,,,,,,,,,,,,,,,,,,,,,,,,,,,,,,,,,,,,,,,,,,,,,,,,,,,,,,,,,,,,,,,,,,,,,,,,,,,,,,,,,,
,,67f789ca382e36a759a011af,2026-03-17_12h24.46.081,kallum_motion_pilot_GIST_update_2,2026.1.1,Win32,59.88023952,67f789ca382e36a759a011af,69b92ab4aef6dee357cd729a,69b92b4043e120cb7443760f,0.0438,0.0438,1,9,171,130,1,sixfive,,,,,,,,,,,,,,,,,,,,,,,,,,,,,,,,,,,,,,,,,,,,,,,,,,,,,,,,,,,,,,,,,,,,,,,,,,,,,,,,,,,,,,,,,,,,,,,,,,,,,,,,,,,,,,,,,,,,,,,,,,,,,,,,,,,,,,,,,
,,67f789ca382e36a759a011af,2026-03-17_12h24.46.081,kallum_motion_pilot_GIST_update_2,2026.1.1,Win32,59.88023952,67f789ca382e36a759a011af,69b92ab4aef6dee357cd729a,69b92b4043e120cb7443760f,0.0439,0.0439,1,10,172,160,1,fivesix,,,,,,,,,,,,,,,,,,,,,,,,,,,,,,,,,,,,,,,,,,,,,,,,,,,,,,,,,,,,,,,,,,,,,,,,,,,,,,,,,,,,,,,,,,,,,,,,,,,,,,,,,,,,,,,,,,,,,,,,,,,,,,,,,,,,,,,,,
,,67f789ca382e36a759a011af,2026-03-17_12h24.46.081,kallum_motion_pilot_GIST_update_2,2026.1.1,Win32,59.88023952,67f789ca382e36a759a011af,69b92ab4aef6dee357cd729a,69b92b4043e120cb7443760f,0.044,0.044,1,11,173,23,1,fourthree,,,,,,,,,,,,,,,,,,,,,,,,,,,,,,,,,,,,,,,,,,,,,,,,,,,,,,,,,,,,,,,,,,,,,,,,,,,,,,,,,,,,,,,,,,,,,,,,,,,,,,,,,,,,,,,,,,,,,,,,,,,,,,,,,,,,,,,,,
,,67f789ca382e36a759a011af,2026-03-17_12h24.46.081,kallum_motion_pilot_GIST_update_2,2026.1.1,Win32,59.88023952,67f789ca382e36a759a011af,69b92ab4aef6dee357cd729a,69b92b4043e120cb7443760f,0.0442,0.0442,1,12,174,156,1,sevenfive,,,,,,,,,,,,,,,,,,,,,,,,,,,,,,,,,,,,,,,,,,,,,,,,,,,,,,,,,,,,,,,,,,,,,,,,,,,,,,,,,,,,,,,,,,,,,,,,,,,,,,,,,,,,,,,,,,,,,,,,,,,,,,,,,,,,,,,,,
,,67f789ca382e36a759a011af,2026-03-17_12h24.46.081,kallum_motion_pilot_GIST_update_2,2026.1.1,Win32,59.88023952,67f789ca382e36a759a011af,69b92ab4aef6dee357cd729a,69b92b4043e120cb7443760f,0.0442,0.0442,1,13,175,1,1,onethree,,,,,,,,,,,,,,,,,,,,,,,,,,,,,,,,,,,,,,,,,,,,,,,,,,,,,,,,,,,,,,,,,,,,,,,,,,,,,,,,,,,,,,,,,,,,,,,,,,,,,,,,,,,,,,,,,,,,,,,,,,,,,,,,,,,,,,,,,
,,67f789ca382e36a759a011af,2026-03-17_12h24.46.081,kallum_motion_pilot_GIST_update_2,2026.1.1,Win32,59.88023952,67f789ca382e36a759a011af,69b92ab4aef6dee357cd729a,69b92b4043e120cb7443760f,0.0443,0.0443,1,14,176,11,1,twofour,,,,,,,,,,,,,,,,,,,,,,,,,,,,,,,,,,,,,,,,,,,,,,,,,,,,,,,,,,,,,,,,,,,,,,,,,,,,,,,,,,,,,,,,,,,,,,,,,,,,,,,,,,,,,,,,,,,,,,,,,,,,,,,,,,,,,,,,,
,,67f789ca382e36a759a011af,2026-03-17_12h24.46.081,kallum_motion_pilot_GIST_update_2,2026.1.1,Win32,59.88023952,67f789ca382e36a759a011af,69b92ab4aef6dee357cd729a,69b92b4043e120cb7443760f,0.0445,0.0445,1,15,177,112,1,fivesix,,,,,,,,,,,,,,,,,,,,,,,,,,,,,,,,,,,,,,,,,,,,,,,,,,,,,,,,,,,,,,,,,,,,,,,,,,,,,,,,,,,,,,,,,,,,,,,,,,,,,,,,,,,,,,,,,,,,,,,,,,,,,,,,,,,,,,,,,
,,67f789ca382e36a759a011af,2026-03-17_12h24.46.081,kallum_motion_pilot_GIST_update_2,2026.1.1,Win32,59.88023952,67f789ca382e36a759a011af,69b92ab4aef6dee357cd729a,69b92b4043e120cb7443760f,0.0446,0.0446,1,16,178,109,1,seveneight,,,,,,,,,,,,,,,,,,,,,,,,,,,,,,,,,,,,,,,,,,,,,,,,,,,,,,,,,,,,,,,,,,,,,,,,,,,,,,,,,,,,,,,,,,,,,,,,,,,,,,,,,,,,,,,,,,,,,,,,,,,,,,,,,,,,,,,,,
,,67f789ca382e36a759a011af,2026-03-17_12h24.46.081,kallum_motion_pilot_GIST_update_2,2026.1.1,Win32,59.88023952,67f789ca382e36a759a011af,69b92ab4aef6dee357cd729a,69b92b4043e120cb7443760f,0.0447,0.0447,1,17,179,138,1,sixfive,,,,,,,,,,,,,,,,,,,,,,,,,,,,,,,,,,,,,,,,,,,,,,,,,,,,,,,,,,,,,,,,,,,,,,,,,,,,,,,,,,,,,,,,,,,,,,,,,,,,,,,,,,,,,,,,,,,,,,,,,,,,,,,,,,,,,,,,,
,,67f789ca382e36a759a011af,2026-03-17_12h24.46.081,kallum_motion_pilot_GIST_update_2,2026.1.1,Win32,59.88023952,67f789ca382e36a759a011af,69b92ab4aef6dee357cd729a,69b92b4043e120cb7443760f,0.0447,0.0447,1,18,180,5,1,threefour,,,,,,,,,,,,,,,,,,,,,,,,,,,,,,,,,,,,,,,,,,,,,,,,,,,,,,,,,,,,,,,,,,,,,,,,,,,,,,,,,,,,,,,,,,,,,,,,,,,,,,,,,,,,,,,,,,,,,,,,,,,,,,,,,,,,,,,,,
,,67f789ca382e36a759a011af,2026-03-17_12h24.46.081,kallum_motion_pilot_GIST_update_2,2026.1.1,Win32,59.88023952,67f789ca382e36a759a011af,69b92ab4aef6dee357cd729a,69b92b4043e120cb7443760f,0.0449,0.0449,1,19,181,84,1,sevenfive,,,,,,,,,,,,,,,,,,,,,,,,,,,,,,,,,,,,,,,,,,,,,,,,,,,,,,,,,,,,,,,,,,,,,,,,,,,,,,,,,,,,,,,,,,,,,,,,,,,,,,,,,,,,,,,,,,,,,,,,,,,,,,,,,,,,,,,,,
,,67f789ca382e36a759a011af,2026-03-17_12h24.46.081,kallum_motion_pilot_GIST_update_2,2026.1.1,Win32,59.88023952,67f789ca382e36a759a011af,69b92ab4aef6dee357cd729a,69b92b4043e120cb7443760f,0.045,0.045,1,20,182,88,1,fivesix,,,,,,,,,,,,,,,,,,,,,,,,,,,,,,,,,,,,,,,,,,,,,,,,,,,,,,,,,,,,,,,,,,,,,,,,,,,,,,,,,,,,,,,,,,,,,,,,,,,,,,,,,,,,,,,,,,,,,,,,,,,,,,,,,,,,,,,,,
,,67f789ca382e36a759a011af,2026-03-17_12h24.46.081,kallum_motion_pilot_GIST_update_2,2026.1.1,Win32,59.88023952,67f789ca382e36a759a011af,69b92ab4aef6dee357cd729a,69b92b4043e120cb7443760f,0.0451,0.0451,1,21,183,61,1,threefour,,,,,,,,,,,,,,,,,,,,,,,,,,,,,,,,,,,,,,,,,,,,,,,,,,,,,,,,,,,,,,,,,,,,,,,,,,,,,,,,,,,,,,,,,,,,,,,,,,,,,,,,,,,,,,,,,,,,,,,,,,,,,,,,,,,,,,,,,
,,67f789ca382e36a759a011af,2026-03-17_12h24.46.081,kallum_motion_pilot_GIST_update_2,2026.1.1,Win32,59.88023952,67f789ca382e36a759a011af,69b92ab4aef6dee357cd729a,69b92b4043e120cb7443760f,0.0452,0.0452,1,22,184,26,1,twoone,,,,,,,,,,,,,,,,,,,,,,,,,,,,,,,,,,,,,,,,,,,,,,,,,,,,,,,,,,,,,,,,,,,,,,,,,,,,,,,,,,,,,,,,,,,,,,,,,,,,,,,,,,,,,,,,,,,,,,,,,,,,,,,,,,,,,,,,,
,,67f789ca382e36a759a011af,2026-03-17_12h24.46.081,kallum_motion_pilot_GIST_update_2,2026.1.1,Win32,59.88023952,67f789ca382e36a759a011af,69b92ab4aef6dee357cd729a,69b92b4043e120cb7443760f,0.0453,0.0453,1,23,185,33,1,onethree,,,,,,,,,,,,,,,,,,,,,,,,,,,,,,,,,,,,,,,,,,,,,,,,,,,,,,,,,,,,,,,,,,,,,,,,,,,,,,,,,,,,,,,,,,,,,,,,,,,,,,,,,,,,,,,,,,,,,,,,,,,,,,,,,,,,,,,,,
,,67f789ca382e36a759a011af,2026-03-17_12h24.46.081,kallum_motion_pilot_GIST_update_2,2026.1.1,Win32,59.88023952,67f789ca382e36a759a011af,69b92ab4aef6dee357cd729a,69b92b4043e120cb7443760f,0.0454,0.0454,1,24,186,19,1,twofour,,,,,,,,,,,,,,,,,,,,,,,,,,,,,,,,,,,,,,,,,,,,,,,,,,,,,,,,,,,,,,,,,,,,,,,,,,,,,,,,,,,,,,,,,,,,,,,,,,,,,,,,,,,,,,,,,,,,,,,,,,,,,,,,,,,,,,,,,
,,67f789ca382e36a759a011af,2026-03-17_12h24.46.081,kallum_motion_pilot_GIST_update_2,2026.1.1,Win32,59.88023952,67f789ca382e36a759a011af,69b92ab4aef6dee357cd729a,69b92b4043e120cb7443760f,0.0456,0.0456,1,25,187,110,1,eightsix,,,,,,,,,,,,,,,,,,,,,,,,,,,,,,,,,,,,,,,,,,,,,,,,,,,,,,,,,,,,,,,,,,,,,,,,,,,,,,,,,,,,,,,,,,,,,,,,,,,,,,,,,,,,,,,,,,,,,,,,,,,,,,,,,,,,,,,,,
,,67f789ca382e36a759a011af,2026-03-17_12h24.46.081,kallum_motion_pilot_GIST_update_2,2026.1.1,Win32,59.88023952,67f789ca382e36a759a011af,69b92ab4aef6dee357cd729a,69b92b4043e120cb7443760f,0.0457,0.0457,1,26,188,125,1,seveneight,,,,,,,,,,,,,,,,,,,,,,,,,,,,,,,,,,,,,,,,,,,,,,,,,,,,,,,,,,,,,,,,,,,,,,,,,,,,,,,,,,,,,,,,,,,,,,,,,,,,,,,,,,,,,,,,,,,,,,,,,,,,,,,,,,,,,,,,,
,,67f789ca382e36a759a011af,2026-03-17_12h24.46.081,kallum_motion_pilot_GIST_update_2,2026.1.1,Win32,59.88023952,67f789ca382e36a759a011af,69b92ab4aef6dee357cd729a,69b92b4043e120cb7443760f,0.0459,0.0459,1,27,189,123,1,sixeight,,,,,,,,,,,,,,,,,,,,,,,,,,,,,,,,,,,,,,,,,,,,,,,,,,,,,,,,,,,,,,,,,,,,,,,,,,,,,,,,,,,,,,,,,,,,,,,,,,,,,,,,,,,,,,,,,,,,,,,,,,,,,,,,,,,,,,,,,
,,67f789ca382e36a759a011af,2026-03-17_12h24.46.081,kallum_motion_pilot_GIST_update_2,2026.1.1,Win32,59.88023952,67f789ca382e36a759a011af,69b92ab4aef6dee357cd729a,69b92b4043e120cb7443760f,0.0462,0.0462,1,28,190,124,1,sevenfive,,,,,,,,,,,,,,,,,,,,,,,,,,,,,,,,,,,,,,,,,,,,,,,,,,,,,,,,,,,,,,,,,,,,,,,,,,,,,,,,,,,,,,,,,,,,,,,,,,,,,,,,,,,,,,,,,,,,,,,,,,,,,,,,,,,,,,,,,
,,67f789ca382e36a759a011af,2026-03-17_12h24.46.081,kallum_motion_pilot_GIST_update_2,2026.1.1,Win32,59.88023952,67f789ca382e36a759a011af,69b92ab4aef6dee357cd729a,69b92b4043e120cb7443760f,0.0464,0.0464,1,29,191,67,1,twofour,,,,,,,,,,,,,,,,,,,,,,,,,,,,,,,,,,,,,,,,,,,,,,,,,,,,,,,,,,,,,,,,,,,,,,,,,,,,,,,,,,,,,,,,,,,,,,,,,,,,,,,,,,,,,,,,,,,,,,,,,,,,,,,,,,,,,,,,,
,,67f789ca382e36a759a011af,2026-03-17_12h24.46.081,kallum_motion_pilot_GIST_update_2,2026.1.1,Win32,59.88023952,67f789ca382e36a759a011af,69b92ab4aef6dee357cd729a,69b92b4043e120cb7443760f,0.0467,0.0467,1,30,192,17,1,onethree,,,,,,,,,,,,,,,,,,,,,,,,,,,,,,,,,,,,,,,,,,,,,,,,,,,,,,,,,,,,,,,,,,,,,,,,,,,,,,,,,,,,,,,,,,,,,,,,,,,,,,,,,,,,,,,,,,,,,,,,,,,,,,,,,,,,,,,,,
,,67f789ca382e36a759a011af,2026-03-17_12h24.46.081,kallum_motion_pilot_GIST_update_2,2026.1.1,Win32,59.88023952,67f789ca382e36a759a011af,69b92ab4aef6dee357cd729a,69b92b4043e120cb7443760f,0.0468,0.0468,1,31,193,0,1,onetwo,,,,,,,,,,,,,,,,,,,,,,,,,,,,,,,,,,,,,,,,,,,,,,,,,,,,,,,,,,,,,,,,,,,,,,,,,,,,,,,,,,,,,,,,,,,,,,,,,,,,,,,,,,,,,,,,,,,,,,,,,,,,,,,,,,,,,,,,,
,,67f789ca382e36a759a011af,2026-03-17_12h24.46.081,kallum_motion_pilot_GIST_update_2,2026.1.1,Win32,59.88023952,67f789ca382e36a759a011af,69b92ab4aef6dee357cd729a,69b92b4043e120cb7443760f,0.047,0.047,1,32,194,96,1,fivesix,,,,,,,,,,,,,,,,,,,,,,,,,,,,,,,,,,,,,,,,,,,,,,,,,,,,,,,,,,,,,,,,,,,,,,,,,,,,,,,,,,,,,,,,,,,,,,,,,,,,,,,,,,,,,,,,,,,,,,,,,,,,,,,,,,,,,,,,,
,,67f789ca382e36a759a011af,2026-03-17_12h24.46.081,kallum_motion_pilot_GIST_update_2,2026.1.1,Win32,59.88023952,67f789ca382e36a759a011af,69b92ab4aef6dee357cd729a,69b92b4043e120cb7443760f,0.0471,0.0471,1,33,195,135,1,eightseven,,,,,,,,,,,,,,,,,,,,,,,,,,,,,,,,,,,,,,,,,,,,,,,,,,,,,,,,,,,,,,,,,,,,,,,,,,,,,,,,,,,,,,,,,,,,,,,,,,,,,,,,,,,,,,,,,,,,,,,,,,,,,,,,,,,,,,,,,
,,67f789ca382e36a759a011af,2026-03-17_12h24.46.081,kallum_motion_pilot_GIST_update_2,2026.1.1,Win32,59.88023952,67f789ca382e36a759a011af,69b92ab4aef6dee357cd729a,69b92b4043e120cb7443760f,0.0474,0.0474,1,34,196,36,1,threeone,,,,,,,,,,,,,,,,,,,,,,,,,,,,,,,,,,,,,,,,,,,,,,,,,,,,,,,,,,,,,,,,,,,,,,,,,,,,,,,,,,,,,,,,,,,,,,,,,,,,,,,,,,,,,,,,,,,,,,,,,,,,,,,,,,,,,,,,,
,,67f789ca382e36a759a011af,2026-03-17_12h24.46.081,kallum_motion_pilot_GIST_update_2,2026.1.1,Win32,59.88023952,67f789ca382e36a759a011af,69b92ab4aef6dee357cd729a,69b92b4043e120cb7443760f,0.0475,0.0476,1,35,197,76,1,threeone,,,,,,,,,,,,,,,,,,,,,,,,,,,,,,,,,,,,,,,,,,,,,,,,,,,,,,,,,,,,,,,,,,,,,,,,,,,,,,,,,,,,,,,,,,,,,,,,,,,,,,,,,,,,,,,,,,,,,,,,,,,,,,,,,,,,,,,,,
,,67f789ca382e36a759a011af,2026-03-17_12h24.46.081,kallum_motion_pilot_GIST_update_2,2026.1.1,Win32,59.88023952,67f789ca382e36a759a011af,69b92ab4aef6dee357cd729a,69b92b4043e120cb7443760f,0.0478,0.0478,1,36,198,139,1,sixeight,,,,,,,,,,,,,,,,,,,,,,,,,,,,,,,,,,,,,,,,,,,,,,,,,,,,,,,,,,,,,,,,,,,,,,,,,,,,,,,,,,,,,,,,,,,,,,,,,,,,,,,,,,,,,,,,,,,,,,,,,,,,,,,,,,,,,,,,,
,,67f789ca382e36a759a011af,2026-03-17_12h24.46.081,kallum_motion_pilot_GIST_update_2,2026.1.1,Win32,59.88023952,67f789ca382e36a759a011af,69b92ab4aef6dee357cd729a,69b92b4043e120cb7443760f,0.048,0.048,1,37,199,134,1,eightsix,,,,,,,,,,,,,,,,,,,,,,,,,,,,,,,,,,,,,,,,,,,,,,,,,,,,,,,,,,,,,,,,,,,,,,,,,,,,,,,,,,,,,,,,,,,,,,,,,,,,,,,,,,,,,,,,,,,,,,,,,,,,,,,,,,,,,,,,,
,,67f789ca382e36a759a011af,2026-03-17_12h24.46.081,kallum_motion_pilot_GIST_update_2,2026.1.1,Win32,59.88023952,67f789ca382e36a759a011af,69b92ab4aef6dee357cd729a,69b92b4043e120cb7443760f,0.0481,0.0482,1,38,200,102,1,eightsix,,,,,,,,,,,,,,,,,,,,,,,,,,,,,,,,,,,,,,,,,,,,,,,,,,,,,,,,,,,,,,,,,,,,,,,,,,,,,,,,,,,,,,,,,,,,,,,,,,,,,,,,,,,,,,,,,,,,,,,,,,,,,,,,,,,,,,,,,
,,67f789ca382e36a759a011af,2026-03-17_12h24.46.081,kallum_motion_pilot_GIST_update_2,2026.1.1,Win32,59.88023952,67f789ca382e36a759a011af,69b92ab4aef6dee357cd729a,69b92b4043e120cb7443760f,0.0483,0.0483,1,39,201,63,1,fourthree,,,,,,,,,,,,,,,,,,,,,,,,,,,,,,,,,,,,,,,,,,,,,,,,,,,,,,,,,,,,,,,,,,,,,,,,,,,,,,,,,,,,,,,,,,,,,,,,,,,,,,,,,,,,,,,,,,,,,,,,,,,,,,,,,,,,,,,,,
,,67f789ca382e36a759a011af,2026-03-17_12h24.46.081,kallum_motion_pilot_GIST_update_2,2026.1.1,Win32,59.88023952,67f789ca382e36a759a011af,69b92ab4aef6dee357cd729a,69b92b4043e120cb7443760f,0.0484,0.0485,1,40,202,35,1,twofour,,,,,,,,,,,,,,,,,,,,,,,,,,,,,,,,,,,,,,,,,,,,,,,,,,,,,,,,,,,,,,,,,,,,,,,,,,,,,,,,,,,,,,,,,,,,,,,,,,,,,,,,,,,,,,,,,,,,,,,,,,,,,,,,,,,,,,,,,
,,67f789ca382e36a759a011af,2026-03-17_12h24.46.081,kallum_motion_pilot_GIST_update_2,2026.1.1,Win32,59.88023952,67f789ca382e36a759a011af,69b92ab4aef6dee357cd729a,69b92b4043e120cb7443760f,0.0486,0.0486,1,41,203,66,1,twoone,,,,,,,,,,,,,,,,,,,,,,,,,,,,,,,,,,,,,,,,,,,,,,,,,,,,,,,,,,,,,,,,,,,,,,,,,,,,,,,,,,,,,,,,,,,,,,,,,,,,,,,,,,,,,,,,,,,,,,,,,,,,,,,,,,,,,,,,,
,,67f789ca382e36a759a011af,2026-03-17_12h24.46.081,kallum_motion_pilot_GIST_update_2,2026.1.1,Win32,59.88023952,67f789ca382e36a759a011af,69b92ab4aef6dee357cd729a,69b92b4043e120cb7443760f,0.0486,0.0486,1,42,204,54,1,fourtwo,,,,,,,,,,,,,,,,,,,,,,,,,,,,,,,,,,,,,,,,,,,,,,,,,,,,,,,,,,,,,,,,,,,,,,,,,,,,,,,,,,,,,,,,,,,,,,,,,,,,,,,,,,,,,,,,,,,,,,,,,,,,,,,,,,,,,,,,,
,,67f789ca382e36a759a011af,2026-03-17_12h24.46.081,kallum_motion_pilot_GIST_update_2,2026.1.1,Win32,59.88023952,67f789ca382e36a759a011af,69b92ab4aef6dee357cd729a,69b92b4043e120cb7443760f,0.0488,0.0488,1,43,205,107,1,sixeight,,,,,,,,,,,,,,,,,,,,,,,,,,,,,,,,,,,,,,,,,,,,,,,,,,,,,,,,,,,,,,,,,,,,,,,,,,,,,,,,,,,,,,,,,,,,,,,,,,,,,,,,,,,,,,,,,,,,,,,,,,,,,,,,,,,,,,,,,
,,67f789ca382e36a759a011af,2026-03-17_12h24.46.081,kallum_motion_pilot_GIST_update_2,2026.1.1,Win32,59.88023952,67f789ca382e36a759a011af,69b92ab4aef6dee357cd729a,69b92b4043e120cb7443760f,0.0489,0.0489,1,44,206,152,1,fivesix,,,,,,,,,,,,,,,,,,,,,,,,,,,,,,,,,,,,,,,,,,,,,,,,,,,,,,,,,,,,,,,,,,,,,,,,,,,,,,,,,,,,,,,,,,,,,,,,,,,,,,,,,,,,,,,,,,,,,,,,,,,,,,,,,,,,,,,,,
,,67f789ca382e36a759a011af,2026-03-17_12h24.46.081,kallum_motion_pilot_GIST_update_2,2026.1.1,Win32,59.88023952,67f789ca382e36a759a011af,69b92ab4aef6dee357cd729a,69b92b4043e120cb7443760f,0.049,0.049,1,45,207,79,1,eightseven,,,,,,,,,,,,,,,,,,,,,,,,,,,,,,,,,,,,,,,,,,,,,,,,,,,,,,,,,,,,,,,,,,,,,,,,,,,,,,,,,,,,,,,,,,,,,,,,,,,,,,,,,,,,,,,,,,,,,,,,,,,,,,,,,,,,,,,,,
,,67f789ca382e36a759a011af,2026-03-17_12h24.46.081,kallum_motion_pilot_GIST_update_2,2026.1.1,Win32,59.88023952,67f789ca382e36a759a011af,69b92ab4aef6dee357cd729a,69b92b4043e120cb7443760f,0.0491,0.0491,1,46,208,22,1,fourtwo,,,,,,,,,,,,,,,,,,,,,,,,,,,,,,,,,,,,,,,,,,,,,,,,,,,,,,,,,,,,,,,,,,,,,,,,,,,,,,,,,,,,,,,,,,,,,,,,,,,,,,,,,,,,,,,,,,,,,,,,,,,,,,,,,,,,,,,,,
,,67f789ca382e36a759a011af,2026-03-17_12h24.46.081,kallum_motion_pilot_GIST_update_2,2026.1.1,Win32,59.88023952,67f789ca382e36a759a011af,69b92ab4aef6dee357cd729a,69b92b4043e120cb7443760f,0.0493,0.0493,1,47,209,13,1,threefour,,,,,,,,,,,,,,,,,,,,,,,,,,,,,,,,,,,,,,,,,,,,,,,,,,,,,,,,,,,,,,,,,,,,,,,,,,,,,,,,,,,,,,,,,,,,,,,,,,,,,,,,,,,,,,,,,,,,,,,,,,,,,,,,,,,,,,,,,
,,67f789ca382e36a759a011af,2026-03-17_12h24.46.081,kallum_motion_pilot_GIST_update_2,2026.1.1,Win32,59.88023952,67f789ca382e36a759a011af,69b92ab4aef6dee357cd729a,69b92b4043e120cb7443760f,0.0494,0.0494,1,48,210,97,1,fiveseven,,,,,,,,,,,,,,,,,,,,,,,,,,,,,,,,,,,,,,,,,,,,,,,,,,,,,,,,,,,,,,,,,,,,,,,,,,,,,,,,,,,,,,,,,,,,,,,,,,,,,,,,,,,,,,,,,,,,,,,,,,,,,,,,,,,,,,,,,
,,67f789ca382e36a759a011af,2026-03-17_12h24.46.081,kallum_motion_pilot_GIST_update_2,2026.1.1,Win32,59.88023952,67f789ca382e36a759a011af,69b92ab4aef6dee357cd729a,69b92b4043e120cb7443760f,0.0494,0.0494,1,49,211,30,1,fourtwo,,,,,,,,,,,,,,,,,,,,,,,,,,,,,,,,,,,,,,,,,,,,,,,,,,,,,,,,,,,,,,,,,,,,,,,,,,,,,,,,,,,,,,,,,,,,,,,,,,,,,,,,,,,,,,,,,,,,,,,,,,,,,,,,,,,,,,,,,
,,67f789ca382e36a759a011af,2026-03-17_12h24.46.081,kallum_motion_pilot_GIST_update_2,2026.1.1,Win32,59.88023952,67f789ca382e36a759a011af,69b92ab4aef6dee357cd729a,69b92b4043e120cb7443760f,0.0496,0.0496,1,50,212,149,1,seveneight,,,,,,,,,,,,,,,,,,,,,,,,,,,,,,,,,,,,,,,,,,,,,,,,,,,,,,,,,,,,,,,,,,,,,,,,,,,,,,,,,,,,,,,,,,,,,,,,,,,,,,,,,,,,,,,,,,,,,,,,,,,,,,,,,,,,,,,,,
,,67f789ca382e36a759a011af,2026-03-17_12h24.46.081,kallum_motion_pilot_GIST_update_2,2026.1.1,Win32,59.88023952,67f789ca382e36a759a011af,69b92ab4aef6dee357cd729a,69b92b4043e120cb7443760f,0.0497,0.0497,1,51,213,150,1,eightsix,,,,,,,,,,,,,,,,,,,,,,,,,,,,,,,,,,,,,,,,,,,,,,,,,,,,,,,,,,,,,,,,,,,,,,,,,,,,,,,,,,,,,,,,,,,,,,,,,,,,,,,,,,,,,,,,,,,,,,,,,,,,,,,,,,,,,,,,,
,,67f789ca382e36a759a011af,2026-03-17_12h24.46.081,kallum_motion_pilot_GIST_update_2,2026.1.1,Win32,59.88023952,67f789ca382e36a759a011af,69b92ab4aef6dee357cd729a,69b92b4043e120cb7443760f,0.0498,0.0498,1,52,214,116,1,sevenfive,,,,,,,,,,,,,,,,,,,,,,,,,,,,,,,,,,,,,,,,,,,,,,,,,,,,,,,,,,,,,,,,,,,,,,,,,,,,,,,,,,,,,,,,,,,,,,,,,,,,,,,,,,,,,,,,,,,,,,,,,,,,,,,,,,,,,,,,,
,,67f789ca382e36a759a011af,2026-03-17_12h24.46.081,kallum_motion_pilot_GIST_update_2,2026.1.1,Win32,59.88023952,67f789ca382e36a759a011af,69b92ab4aef6dee357cd729a,69b92b4043e120cb7443760f,0.05,0.05,1,53,215,106,1,sixfive,,,,,,,,,,,,,,,,,,,,,,,,,,,,,,,,,,,,,,,,,,,,,,,,,,,,,,,,,,,,,,,,,,,,,,,,,,,,,,,,,,,,,,,,,,,,,,,,,,,,,,,,,,,,,,,,,,,,,,,,,,,,,,,,,,,,,,,,,
,,67f789ca382e36a759a011af,2026-03-17_12h24.46.081,kallum_motion_pilot_GIST_update_2,2026.1.1,Win32,59.88023952,67f789ca382e36a759a011af,69b92ab4aef6dee357cd729a,69b92b4043e120cb7443760f,0.0501,0.0501,1,54,216,75,1,twofour,,,,,,,,,,,,,,,,,,,,,,,,,,,,,,,,,,,,,,,,,,,,,,,,,,,,,,,,,,,,,,,,,,,,,,,,,,,,,,,,,,,,,,,,,,,,,,,,,,,,,,,,,,,,,,,,,,,,,,,,,,,,,,,,,,,,,,,,,
,,67f789ca382e36a759a011af,2026-03-17_12h24.46.081,kallum_motion_pilot_GIST_update_2,2026.1.1,Win32,59.88023952,67f789ca382e36a759a011af,69b92ab4aef6dee357cd729a,69b92b4043e120cb7443760f,0.0502,0.0502,1,55,217,137,1,fiveseven,,,,,,,,,,,,,,,,,,,,,,,,,,,,,,,,,,,,,,,,,,,,,,,,,,,,,,,,,,,,,,,,,,,,,,,,,,,,,,,,,,,,,,,,,,,,,,,,,,,,,,,,,,,,,,,,,,,,,,,,,,,,,,,,,,,,,,,,,
,,67f789ca382e36a759a011af,2026-03-17_12h24.46.081,kallum_motion_pilot_GIST_update_2,2026.1.1,Win32,59.88023952,67f789ca382e36a759a011af,69b92ab4aef6dee357cd729a,69b92b4043e120cb7443760f,0.0503,0.0503,1,56,218,59,1,twofour,,,,,,,,,,,,,,,,,,,,,,,,,,,,,,,,,,,,,,,,,,,,,,,,,,,,,,,,,,,,,,,,,,,,,,,,,,,,,,,,,,,,,,,,,,,,,,,,,,,,,,,,,,,,,,,,,,,,,,,,,,,,,,,,,,,,,,,,,
,,67f789ca382e36a759a011af,2026-03-17_12h24.46.081,kallum_motion_pilot_GIST_update_2,2026.1.1,Win32,59.88023952,67f789ca382e36a759a011af,69b92ab4aef6dee357cd729a,69b92b4043e120cb7443760f,0.0504,0.0504,1,57,219,78,1,fourtwo,,,,,,,,,,,,,,,,,,,,,,,,,,,,,,,,,,,,,,,,,,,,,,,,,,,,,,,,,,,,,,,,,,,,,,,,,,,,,,,,,,,,,,,,,,,,,,,,,,,,,,,,,,,,,,,,,,,,,,,,,,,,,,,,,,,,,,,,,
,,67f789ca382e36a759a011af,2026-03-17_12h24.46.081,kallum_motion_pilot_GIST_update_2,2026.1.1,Win32,59.88023952,67f789ca382e36a759a011af,69b92ab4aef6dee357cd729a,69b92b4043e120cb7443760f,0.0506,0.0506,1,58,220,60,1,threeone,,,,,,,,,,,,,,,,,,,,,,,,,,,,,,,,,,,,,,,,,,,,,,,,,,,,,,,,,,,,,,,,,,,,,,,,,,,,,,,,,,,,,,,,,,,,,,,,,,,,,,,,,,,,,,,,,,,,,,,,,,,,,,,,,,,,,,,,,
,,67f789ca382e36a759a011af,2026-03-17_12h24.46.081,kallum_motion_pilot_GIST_update_2,2026.1.1,Win32,59.88023952,67f789ca382e36a759a011af,69b92ab4aef6dee357cd729a,69b92b4043e120cb7443760f,0.0507,0.0507,1,59,221,40,1,onetwo,,,,,,,,,,,,,,,,,,,,,,,,,,,,,,,,,,,,,,,,,,,,,,,,,,,,,,,,,,,,,,,,,,,,,,,,,,,,,,,,,,,,,,,,,,,,,,,,,,,,,,,,,,,,,,,,,,,,,,,,,,,,,,,,,,,,,,,,,
,,67f789ca382e36a759a011af,2026-03-17_12h24.46.081,kallum_motion_pilot_GIST_update_2,2026.1.1,Win32,59.88023952,67f789ca382e36a759a011af,69b92ab4aef6dee357cd729a,69b92b4043e120cb7443760f,0.0508,0.0508,1,60,222,72,1,onetwo,,,,,,,,,,,,,,,,,,,,,,,,,,,,,,,,,,,,,,,,,,,,,,,,,,,,,,,,,,,,,,,,,,,,,,,,,,,,,,,,,,,,,,,,,,,,,,,,,,,,,,,,,,,,,,,,,,,,,,,,,,,,,,,,,,,,,,,,,
,,67f789ca382e36a759a011af,2026-03-17_12h24.46.081,kallum_motion_pilot_GIST_update_2,2026.1.1,Win32,59.88023952,67f789ca382e36a759a011af,69b92ab4aef6dee357cd729a,69b92b4043e120cb7443760f,0.0508,0.0508,1,61,223,142,1,eightsix,,,,,,,,,,,,,,,,,,,,,,,,,,,,,,,,,,,,,,,,,,,,,,,,,,,,,,,,,,,,,,,,,,,,,,,,,,,,,,,,,,,,,,,,,,,,,,,,,,,,,,,,,,,,,,,,,,,,,,,,,,,,,,,,,,,,,,,,,
,,67f789ca382e36a759a011af,2026-03-17_12h24.46.081,kallum_motion_pilot_GIST_update_2,2026.1.1,Win32,59.88023952,67f789ca382e36a759a011af,69b92ab4aef6dee357cd729a,69b92b4043e120cb7443760f,0.051,0.051,1,62,224,46,1,fourtwo,,,,,,,,,,,,,,,,,,,,,,,,,,,,,,,,,,,,,,,,,,,,,,,,,,,,,,,,,,,,,,,,,,,,,,,,,,,,,,,,,,,,,,,,,,,,,,,,,,,,,,,,,,,,,,,,,,,,,,,,,,,,,,,,,,,,,,,,,
,,67f789ca382e36a759a011af,2026-03-17_12h24.46.081,kallum_motion_pilot_GIST_update_2,2026.1.1,Win32,59.88023952,67f789ca382e36a759a011af,69b92ab4aef6dee357cd729a,69b92b4043e120cb7443760f,0.0511,0.0511,1,63,225,154,1,sixfive,,,,,,,,,,,,,,,,,,,,,,,,,,,,,,,,,,,,,,,,,,,,,,,,,,,,,,,,,,,,,,,,,,,,,,,,,,,,,,,,,,,,,,,,,,,,,,,,,,,,,,,,,,,,,,,,,,,,,,,,,,,,,,,,,,,,,,,,,
,,67f789ca382e36a759a011af,2026-03-17_12h24.46.081,kallum_motion_pilot_GIST_update_2,2026.1.1,Win32,59.88023952,67f789ca382e36a759a011af,69b92ab4aef6dee357cd729a,69b92b4043e120cb7443760f,0.0512,0.0512,1,64,226,161,1,fiveseven,,,,,,,,,,,,,,,,,,,,,,,,,,,,,,,,,,,,,,,,,,,,,,,,,,,,,,,,,,,,,,,,,,,,,,,,,,,,,,,,,,,,,,,,,,,,,,,,,,,,,,,,,,,,,,,,,,,,,,,,,,,,,,,,,,,,,,,,,
,,67f789ca382e36a759a011af,2026-03-17_12h24.46.081,kallum_motion_pilot_GIST_update_2,2026.1.1,Win32,59.88023952,67f789ca382e36a759a011af,69b92ab4aef6dee357cd729a,69b92b4043e120cb7443760f,0.0513,0.0513,1,65,227,91,1,sixeight,,,,,,,,,,,,,,,,,,,,,,,,,,,,,,,,,,,,,,,,,,,,,,,,,,,,,,,,,,,,,,,,,,,,,,,,,,,,,,,,,,,,,,,,,,,,,,,,,,,,,,,,,,,,,,,,,,,,,,,,,,,,,,,,,,,,,,,,,
,,67f789ca382e36a759a011af,2026-03-17_12h24.46.081,kallum_motion_pilot_GIST_update_2,2026.1.1,Win32,59.88023952,67f789ca382e36a759a011af,69b92ab4aef6dee357cd729a,69b92b4043e120cb7443760f,0.0515,0.0515,1,66,228,93,1,seveneight,,,,,,,,,,,,,,,,,,,,,,,,,,,,,,,,,,,,,,,,,,,,,,,,,,,,,,,,,,,,,,,,,,,,,,,,,,,,,,,,,,,,,,,,,,,,,,,,,,,,,,,,,,,,,,,,,,,,,,,,,,,,,,,,,,,,,,,,,
,,67f789ca382e36a759a011af,2026-03-17_12h24.46.081,kallum_motion_pilot_GIST_update_2,2026.1.1,Win32,59.88023952,67f789ca382e36a759a011af,69b92ab4aef6dee357cd729a,69b92b4043e120cb7443760f,0.0516,0.0516,1,67,229,99,1,sixeight,,,,,,,,,,,,,,,,,,,,,,,,,,,,,,,,,,,,,,,,,,,,,,,,,,,,,,,,,,,,,,,,,,,,,,,,,,,,,,,,,,,,,,,,,,,,,,,,,,,,,,,,,,,,,,,,,,,,,,,,,,,,,,,,,,,,,,,,,
,,67f789ca382e36a759a011af,2026-03-17_12h24.46.081,kallum_motion_pilot_GIST_update_2,2026.1.1,Win32,59.88023952,67f789ca382e36a759a011af,69b92ab4aef6dee357cd729a,69b92b4043e120cb7443760f,0.0517,0.0517,1,68,230,6,1,fourtwo,,,,,,,,,,,,,,,,,,,,,,,,,,,,,,,,,,,,,,,,,,,,,,,,,,,,,,,,,,,,,,,,,,,,,,,,,,,,,,,,,,,,,,,,,,,,,,,,,,,,,,,,,,,,,,,,,,,,,,,,,,,,,,,,,,,,,,,,,
,,67f789ca382e36a759a011af,2026-03-17_12h24.46.081,kallum_motion_pilot_GIST_update_2,2026.1.1,Win32,59.88023952,67f789ca382e36a759a011af,69b92ab4aef6dee357cd729a,69b92b4043e120cb7443760f,0.0518,0.0518,1,69,231,21,1,threefour,,,,,,,,,,,,,,,,,,,,,,,,,,,,,,,,,,,,,,,,,,,,,,,,,,,,,,,,,,,,,,,,,,,,,,,,,,,,,,,,,,,,,,,,,,,,,,,,,,,,,,,,,,,,,,,,,,,,,,,,,,,,,,,,,,,,,,,,,
,,67f789ca382e36a759a011af,2026-03-17_12h24.46.081,kallum_motion_pilot_GIST_update_2,2026.1.1,Win32,59.88023952,67f789ca382e36a759a011af,69b92ab4aef6dee357cd729a,69b92b4043e120cb7443760f,0.0519,0.0519,1,70,232,74,1,twoone,,,,,,,,,,,,,,,,,,,,,,,,,,,,,,,,,,,,,,,,,,,,,,,,,,,,,,,,,,,,,,,,,,,,,,,,,,,,,,,,,,,,,,,,,,,,,,,,,,,,,,,,,,,,,,,,,,,,,,,,,,,,,,,,,,,,,,,,,
,,67f789ca382e36a759a011af,2026-03-17_12h24.46.081,kallum_motion_pilot_GIST_update_2,2026.1.1,Win32,59.88023952,67f789ca382e36a759a011af,69b92ab4aef6dee357cd729a,69b92b4043e120cb7443760f,0.0521,0.0521,1,71,233,115,1,sixeight,,,,,,,,,,,,,,,,,,,,,,,,,,,,,,,,,,,,,,,,,,,,,,,,,,,,,,,,,,,,,,,,,,,,,,,,,,,,,,,,,,,,,,,,,,,,,,,,,,,,,,,,,,,,,,,,,,,,,,,,,,,,,,,,,,,,,,,,,
,,67f789ca382e36a759a011af,2026-03-17_12h24.46.081,kallum_motion_pilot_GIST_update_2,2026.1.1,Win32,59.88023952,67f789ca382e36a759a011af,69b92ab4aef6dee357cd729a,69b92b4043e120cb7443760f,0.0522,0.0522,1,72,234,111,1,eightseven,,,,,,,,,,,,,,,,,,,,,,,,,,,,,,,,,,,,,,,,,,,,,,,,,,,,,,,,,,,,,,,,,,,,,,,,,,,,,,,,,,,,,,,,,,,,,,,,,,,,,,,,,,,,,,,,,,,,,,,,,,,,,,,,,,,,,,,,,
,,67f789ca382e36a759a011af,2026-03-17_12h24.46.081,kallum_motion_pilot_GIST_update_2,2026.1.1,Win32,59.88023952,67f789ca382e36a759a011af,69b92ab4aef6dee357cd729a,69b92b4043e120cb7443760f,0.0523,0.0523,1,73,235,89,1,fiveseven,,,,,,,,,,,,,,,,,,,,,,,,,,,,,,,,,,,,,,,,,,,,,,,,,,,,,,,,,,,,,,,,,,,,,,,,,,,,,,,,,,,,,,,,,,,,,,,,,,,,,,,,,,,,,,,,,,,,,,,,,,,,,,,,,,,,,,,,,
,,67f789ca382e36a759a011af,2026-03-17_12h24.46.081,kallum_motion_pilot_GIST_update_2,2026.1.1,Win32,59.88023952,67f789ca382e36a759a011af,69b92ab4aef6dee357cd729a,69b92b4043e120cb7443760f,0.0525,0.0525,1,74,236,42,1,twoone,,,,,,,,,,,,,,,,,,,,,,,,,,,,,,,,,,,,,,,,,,,,,,,,,,,,,,,,,,,,,,,,,,,,,,,,,,,,,,,,,,,,,,,,,,,,,,,,,,,,,,,,,,,,,,,,,,,,,,,,,,,,,,,,,,,,,,,,,
,,67f789ca382e36a759a011af,2026-03-17_12h24.46.081,kallum_motion_pilot_GIST_update_2,2026.1.1,Win32,59.88023952,67f789ca382e36a759a011af,69b92ab4aef6dee357cd729a,69b92b4043e120cb7443760f,0.0526,0.0526,1,75,237,90,1,sixfive,,,,,,,,,,,,,,,,,,,,,,,,,,,,,,,,,,,,,,,,,,,,,,,,,,,,,,,,,,,,,,,,,,,,,,,,,,,,,,,,,,,,,,,,,,,,,,,,,,,,,,,,,,,,,,,,,,,,,,,,,,,,,,,,,,,,,,,,,
,,67f789ca382e36a759a011af,2026-03-17_12h24.46.081,kallum_motion_pilot_GIST_update_2,2026.1.1,Win32,59.88023952,67f789ca382e36a759a011af,69b92ab4aef6dee357cd729a,69b92b4043e120cb7443760f,0.0526,0.0526,1,76,238,81,1,fiveseven,,,,,,,,,,,,,,,,,,,,,,,,,,,,,,,,,,,,,,,,,,,,,,,,,,,,,,,,,,,,,,,,,,,,,,,,,,,,,,,,,,,,,,,,,,,,,,,,,,,,,,,,,,,,,,,,,,,,,,,,,,,,,,,,,,,,,,,,,
,,67f789ca382e36a759a011af,2026-03-17_12h24.46.081,kallum_motion_pilot_GIST_update_2,2026.1.1,Win32,59.88023952,67f789ca382e36a759a011af,69b92ab4aef6dee357cd729a,69b92b4043e120cb7443760f,0.0528,0.0528,1,77,239,14,1,fourtwo,,,,,,,,,,,,,,,,,,,,,,,,,,,,,,,,,,,,,,,,,,,,,,,,,,,,,,,,,,,,,,,,,,,,,,,,,,,,,,,,,,,,,,,,,,,,,,,,,,,,,,,,,,,,,,,,,,,,,,,,,,,,,,,,,,,,,,,,,
,,67f789ca382e36a759a011af,2026-03-17_12h24.46.081,kallum_motion_pilot_GIST_update_2,2026.1.1,Win32,59.88023952,67f789ca382e36a759a011af,69b92ab4aef6dee357cd729a,69b92b4043e120cb7443760f,0.0529,0.0529,1,78,240,98,1,sixfive,,,,,,,,,,,,,,,,,,,,,,,,,,,,,,,,,,,,,,,,,,,,,,,,,,,,,,,,,,,,,,,,,,,,,,,,,,,,,,,,,,,,,,,,,,,,,,,,,,,,,,,,,,,,,,,,,,,,,,,,,,,,,,,,,,,,,,,,,
,,67f789ca382e36a759a011af,2026-03-17_12h24.46.081,kallum_motion_pilot_GIST_update_2,2026.1.1,Win32,59.88023952,67f789ca382e36a759a011af,69b92ab4aef6dee357cd729a,69b92b4043e120cb7443760f,0.0531,0.0531,1,79,241,3,1,twofour,,,,,,,,,,,,,,,,,,,,,,,,,,,,,,,,,,,,,,,,,,,,,,,,,,,,,,,,,,,,,,,,,,,,,,,,,,,,,,,,,,,,,,,,,,,,,,,,,,,,,,,,,,,,,,,,,,,,,,,,,,,,,,,,,,,,,,,,,
,,67f789ca382e36a759a011af,2026-03-17_12h24.46.081,kallum_motion_pilot_GIST_update_2,2026.1.1,Win32,59.88023952,67f789ca382e36a759a011af,69b92ab4aef6dee357cd729a,69b92b4043e120cb7443760f,0.0531,0.0531,1,80,242,49,1,onethree,,,,,,,,,,,,,,,,,,,,,,,,,,,,,,,,,,,,,,,,,,,,,,,,,,,,,,,,,,,,,,,,,,,,,,,,,,,,,,,,,,,,,,,,,,,,,,,,,,,,,,,,,,,,,,,,,,,,,,,,,,,,,,,,,,,,,,,,,
,,67f789ca382e36a759a011af,2026-03-17_12h24.46.081,kallum_motion_pilot_GIST_update_2,2026.1.1,Win32,59.88023952,67f789ca382e36a759a011af,69b92ab4aef6dee357cd729a,69b92b4043e120cb7443760f,0.0532,0.0532,1,81,243,92,1,sevenfive,,,,,,,,,,,,,,,,,,,,,,,,,,,,,,,,,,,,,,,,,,,,,,,,,,,,,,,,,,,,,,,,,,,,,,,,,,,,,,,,,,,,,,,,,,,,,,,,,,,,,,,,,,,,,,,,,,,,,,,,,,,,,,,,,,,,,,,,,
,,67f789ca382e36a759a011af,2026-03-17_12h24.46.081,kallum_motion_pilot_GIST_update_2,2026.1.1,Win32,59.88023952,67f789ca382e36a759a011af,69b92ab4aef6dee357cd729a,69b92b4043e120cb7443760f,0.0534,0.0534,1,82,244,4,1,threeone,,,,,,,,,,,,,,,,,,,,,,,,,,,,,,,,,,,,,,,,,,,,,,,,,,,,,,,,,,,,,,,,,,,,,,,,,,,,,,,,,,,,,,,,,,,,,,,,,,,,,,,,,,,,,,,,,,,,,,,,,,,,,,,,,,,,,,,,,
,,67f789ca382e36a759a011af,2026-03-17_12h24.46.081,kallum_motion_pilot_GIST_update_2,2026.1.1,Win32,59.88023952,67f789ca382e36a759a011af,69b92ab4aef6dee357cd729a,69b92b4043e120cb7443760f,0.0535,0.0535,1,83,245,56,1,onetwo,,,,,,,,,,,,,,,,,,,,,,,,,,,,,,,,,,,,,,,,,,,,,,,,,,,,,,,,,,,,,,,,,,,,,,,,,,,,,,,,,,,,,,,,,,,,,,,,,,,,,,,,,,,,,,,,,,,,,,,,,,,,,,,,,,,,,,,,,
,,67f789ca382e36a759a011af,2026-03-17_12h24.46.081,kallum_motion_pilot_GIST_update_2,2026.1.1,Win32,59.88023952,67f789ca382e36a759a011af,69b92ab4aef6dee357cd729a,69b92b4043e120cb7443760f,0.0536,0.0536,1,84,246,77,1,threefour,,,,,,,,,,,,,,,,,,,,,,,,,,,,,,,,,,,,,,,,,,,,,,,,,,,,,,,,,,,,,,,,,,,,,,,,,,,,,,,,,,,,,,,,,,,,,,,,,,,,,,,,,,,,,,,,,,,,,,,,,,,,,,,,,,,,,,,,,
,,67f789ca382e36a759a011af,2026-03-17_12h24.46.081,kallum_motion_pilot_GIST_update_2,2026.1.1,Win32,59.88023952,67f789ca382e36a759a011af,69b92ab4aef6dee357cd729a,69b92b4043e120cb7443760f,0.0537,0.0537,1,85,247,18,1,twoone,,,,,,,,,,,,,,,,,,,,,,,,,,,,,,,,,,,,,,,,,,,,,,,,,,,,,,,,,,,,,,,,,,,,,,,,,,,,,,,,,,,,,,,,,,,,,,,,,,,,,,,,,,,,,,,,,,,,,,,,,,,,,,,,,,,,,,,,,
,,67f789ca382e36a759a011af,2026-03-17_12h24.46.081,kallum_motion_pilot_GIST_update_2,2026.1.1,Win32,59.88023952,67f789ca382e36a759a011af,69b92ab4aef6dee357cd729a,69b92b4043e120cb7443760f,0.0538,0.0538,1,86,248,146,1,sixfive,,,,,,,,,,,,,,,,,,,,,,,,,,,,,,,,,,,,,,,,,,,,,,,,,,,,,,,,,,,,,,,,,,,,,,,,,,,,,,,,,,,,,,,,,,,,,,,,,,,,,,,,,,,,,,,,,,,,,,,,,,,,,,,,,,,,,,,,,
,,67f789ca382e36a759a011af,2026-03-17_12h24.46.081,kallum_motion_pilot_GIST_update_2,2026.1.1,Win32,59.88023952,67f789ca382e36a759a011af,69b92ab4aef6dee357cd729a,69b92b4043e120cb7443760f,0.054,0.054,1,87,249,7,1,fourthree,,,,,,,,,,,,,,,,,,,,,,,,,,,,,,,,,,,,,,,,,,,,,,,,,,,,,,,,,,,,,,,,,,,,,,,,,,,,,,,,,,,,,,,,,,,,,,,,,,,,,,,,,,,,,,,,,,,,,,,,,,,,,,,,,,,,,,,,,
,,67f789ca382e36a759a011af,2026-03-17_12h24.46.081,kallum_motion_pilot_GIST_update_2,2026.1.1,Win32,59.88023952,67f789ca382e36a759a011af,69b92ab4aef6dee357cd729a,69b92b4043e120cb7443760f,0.0541,0.0541,1,88,250,55,1,fourthree,,,,,,,,,,,,,,,,,,,,,,,,,,,,,,,,,,,,,,,,,,,,,,,,,,,,,,,,,,,,,,,,,,,,,,,,,,,,,,,,,,,,,,,,,,,,,,,,,,,,,,,,,,,,,,,,,,,,,,,,,,,,,,,,,,,,,,,,,
,,67f789ca382e36a759a011af,2026-03-17_12h24.46.081,kallum_motion_pilot_GIST_update_2,2026.1.1,Win32,59.88023952,67f789ca382e36a759a011af,69b92ab4aef6dee357cd729a,69b92b4043e120cb7443760f,0.0542,0.0542,1,89,251,85,1,seveneight,,,,,,,,,,,,,,,,,,,,,,,,,,,,,,,,,,,,,,,,,,,,,,,,,,,,,,,,,,,,,,,,,,,,,,,,,,,,,,,,,,,,,,,,,,,,,,,,,,,,,,,,,,,,,,,,,,,,,,,,,,,,,,,,,,,,,,,,,
,,67f789ca382e36a759a011af,2026-03-17_12h24.46.081,kallum_motion_pilot_GIST_update_2,2026.1.1,Win32,59.88023952,67f789ca382e36a759a011af,69b92ab4aef6dee357cd729a,69b92b4043e120cb7443760f,0.0543,0.0543,1,90,252,121,1,fiveseven,,,,,,,,,,,,,,,,,,,,,,,,,,,,,,,,,,,,,,,,,,,,,,,,,,,,,,,,,,,,,,,,,,,,,,,,,,,,,,,,,,,,,,,,,,,,,,,,,,,,,,,,,,,,,,,,,,,,,,,,,,,,,,,,,,,,,,,,,
,,67f789ca382e36a759a011af,2026-03-17_12h24.46.081,kallum_motion_pilot_GIST_update_2,2026.1.1,Win32,59.88023952,67f789ca382e36a759a011af,69b92ab4aef6dee357cd729a,69b92b4043e120cb7443760f,0.0545,0.0545,1,91,253,47,1,fourthree,,,,,,,,,,,,,,,,,,,,,,,,,,,,,,,,,,,,,,,,,,,,,,,,,,,,,,,,,,,,,,,,,,,,,,,,,,,,,,,,,,,,,,,,,,,,,,,,,,,,,,,,,,,,,,,,,,,,,,,,,,,,,,,,,,,,,,,,,
,,67f789ca382e36a759a011af,2026-03-17_12h24.46.081,kallum_motion_pilot_GIST_update_2,2026.1.1,Win32,59.88023952,67f789ca382e36a759a011af,69b92ab4aef6dee357cd729a,69b92b4043e120cb7443760f,0.0546,0.0546,1,92,254,31,1,fourthree,,,,,,,,,,,,,,,,,,,,,,,,,,,,,,,,,,,,,,,,,,,,,,,,,,,,,,,,,,,,,,,,,,,,,,,,,,,,,,,,,,,,,,,,,,,,,,,,,,,,,,,,,,,,,,,,,,,,,,,,,,,,,,,,,,,,,,,,,
,,67f789ca382e36a759a011af,2026-03-17_12h24.46.081,kallum_motion_pilot_GIST_update_2,2026.1.1,Win32,59.88023952,67f789ca382e36a759a011af,69b92ab4aef6dee357cd729a,69b92b4043e120cb7443760f,0.0547,0.0547,1,93,255,118,1,eightsix,,,,,,,,,,,,,,,,,,,,,,,,,,,,,,,,,,,,,,,,,,,,,,,,,,,,,,,,,,,,,,,,,,,,,,,,,,,,,,,,,,,,,,,,,,,,,,,,,,,,,,,,,,,,,,,,,,,,,,,,,,,,,,,,,,,,,,,,,
,,67f789ca382e36a759a011af,2026-03-17_12h24.46.081,kallum_motion_pilot_GIST_update_2,2026.1.1,Win32,59.88023952,67f789ca382e36a759a011af,69b92ab4aef6dee357cd729a,69b92b4043e120cb7443760f,0.0548,0.0548,1,94,256,113,1,fiveseven,,,,,,,,,,,,,,,,,,,,,,,,,,,,,,,,,,,,,,,,,,,,,,,,,,,,,,,,,,,,,,,,,,,,,,,,,,,,,,,,,,,,,,,,,,,,,,,,,,,,,,,,,,,,,,,,,,,,,,,,,,,,,,,,,,,,,,,,,
,,67f789ca382e36a759a011af,2026-03-17_12h24.46.081,kallum_motion_pilot_GIST_update_2,2026.1.1,Win32,59.88023952,67f789ca382e36a759a011af,69b92ab4aef6dee357cd729a,69b92b4043e120cb7443760f,0.055,0.055,1,95,257,68,1,threeone,,,,,,,,,,,,,,,,,,,,,,,,,,,,,,,,,,,,,,,,,,,,,,,,,,,,,,,,,,,,,,,,,,,,,,,,,,,,,,,,,,,,,,,,,,,,,,,,,,,,,,,,,,,,,,,,,,,,,,,,,,,,,,,,,,,,,,,,,
,,67f789ca382e36a759a011af,2026-03-17_12h24.46.081,kallum_motion_pilot_GIST_update_2,2026.1.1,Win32,59.88023952,67f789ca382e36a759a011af,69b92ab4aef6dee357cd729a,69b92b4043e120cb7443760f,0.0551,0.0551,1,96,258,25,1,onethree,,,,,,,,,,,,,,,,,,,,,,,,,,,,,,,,,,,,,,,,,,,,,,,,,,,,,,,,,,,,,,,,,,,,,,,,,,,,,,,,,,,,,,,,,,,,,,,,,,,,,,,,,,,,,,,,,,,,,,,,,,,,,,,,,,,,,,,,,
,,67f789ca382e36a759a011af,2026-03-17_12h24.46.081,kallum_motion_pilot_GIST_update_2,2026.1.1,Win32,59.88023952,67f789ca382e36a759a011af,69b92ab4aef6dee357cd729a,69b92b4043e120cb7443760f,0.0553,0.0553,1,97,259,57,1,onethree,,,,,,,,,,,,,,,,,,,,,,,,,,,,,,,,,,,,,,,,,,,,,,,,,,,,,,,,,,,,,,,,,,,,,,,,,,,,,,,,,,,,,,,,,,,,,,,,,,,,,,,,,,,,,,,,,,,,,,,,,,,,,,,,,,,,,,,,,
,,67f789ca382e36a759a011af,2026-03-17_12h24.46.081,kallum_motion_pilot_GIST_update_2,2026.1.1,Win32,59.88023952,67f789ca382e36a759a011af,69b92ab4aef6dee357cd729a,69b92b4043e120cb7443760f,0.0553,0.0553,1,98,260,141,1,seveneight,,,,,,,,,,,,,,,,,,,,,,,,,,,,,,,,,,,,,,,,,,,,,,,,,,,,,,,,,,,,,,,,,,,,,,,,,,,,,,,,,,,,,,,,,,,,,,,,,,,,,,,,,,,,,,,,,,,,,,,,,,,,,,,,,,,,,,,,,
,,67f789ca382e36a759a011af,2026-03-17_12h24.46.081,kallum_motion_pilot_GIST_update_2,2026.1.1,Win32,59.88023952,67f789ca382e36a759a011af,69b92ab4aef6dee357cd729a,69b92b4043e120cb7443760f,0.0555,0.0555,1,99,261,105,1,fiveseven,,,,,,,,,,,,,,,,,,,,,,,,,,,,,,,,,,,,,,,,,,,,,,,,,,,,,,,,,,,,,,,,,,,,,,,,,,,,,,,,,,,,,,,,,,,,,,,,,,,,,,,,,,,,,,,,,,,,,,,,,,,,,,,,,,,,,,,,,
,,67f789ca382e36a759a011af,2026-03-17_12h24.46.081,kallum_motion_pilot_GIST_update_2,2026.1.1,Win32,59.88023952,67f789ca382e36a759a011af,69b92ab4aef6dee357cd729a,69b92b4043e120cb7443760f,0.0555,0.0556,1,100,262,43,1,twofour,,,,,,,,,,,,,,,,,,,,,,,,,,,,,,,,,,,,,,,,,,,,,,,,,,,,,,,,,,,,,,,,,,,,,,,,,,,,,,,,,,,,,,,,,,,,,,,,,,,,,,,,,,,,,,,,,,,,,,,,,,,,,,,,,,,,,,,,,
,,67f789ca382e36a759a011af,2026-03-17_12h24.46.081,kallum_motion_pilot_GIST_update_2,2026.1.1,Win32,59.88023952,67f789ca382e36a759a011af,69b92ab4aef6dee357cd729a,69b92b4043e120cb7443760f,0.0557,0.0557,1,101,263,44,1,threeone,,,,,,,,,,,,,,,,,,,,,,,,,,,,,,,,,,,,,,,,,,,,,,,,,,,,,,,,,,,,,,,,,,,,,,,,,,,,,,,,,,,,,,,,,,,,,,,,,,,,,,,,,,,,,,,,,,,,,,,,,,,,,,,,,,,,,,,,,
,,67f789ca382e36a759a011af,2026-03-17_12h24.46.081,kallum_motion_pilot_GIST_update_2,2026.1.1,Win32,59.88023952,67f789ca382e36a759a011af,69b92ab4aef6dee357cd729a,69b92b4043e120cb7443760f,0.0558,0.0558,1,102,264,143,1,eightseven,,,,,,,,,,,,,,,,,,,,,,,,,,,,,,,,,,,,,,,,,,,,,,,,,,,,,,,,,,,,,,,,,,,,,,,,,,,,,,,,,,,,,,,,,,,,,,,,,,,,,,,,,,,,,,,,,,,,,,,,,,,,,,,,,,,,,,,,,
,,67f789ca382e36a759a011af,2026-03-17_12h24.46.081,kallum_motion_pilot_GIST_update_2,2026.1.1,Win32,59.88023952,67f789ca382e36a759a011af,69b92ab4aef6dee357cd729a,69b92b4043e120cb7443760f,0.056,0.056,1,103,265,104,1,fivesix,,,,,,,,,,,,,,,,,,,,,,,,,,,,,,,,,,,,,,,,,,,,,,,,,,,,,,,,,,,,,,,,,,,,,,,,,,,,,,,,,,,,,,,,,,,,,,,,,,,,,,,,,,,,,,,,,,,,,,,,,,,,,,,,,,,,,,,,,
,,67f789ca382e36a759a011af,2026-03-17_12h24.46.081,kallum_motion_pilot_GIST_update_2,2026.1.1,Win32,59.88023952,67f789ca382e36a759a011af,69b92ab4aef6dee357cd729a,69b92b4043e120cb7443760f,0.0561,0.0561,1,104,266,87,1,eightseven,,,,,,,,,,,,,,,,,,,,,,,,,,,,,,,,,,,,,,,,,,,,,,,,,,,,,,,,,,,,,,,,,,,,,,,,,,,,,,,,,,,,,,,,,,,,,,,,,,,,,,,,,,,,,,,,,,,,,,,,,,,,,,,,,,,,,,,,,
