startup.started,startup.stopped,Prolific ID*,date,expName,psychopyVersion,OS,frameRate,participant,study_id,session,stimpositions.started,stimpositions.stopped,hardcoded_stimulus_positions.thisRepN,hardcoded_stimulus_positions.thisTrialN,hardcoded_stimulus_positions.thisN,hardcoded_stimulus_positions.thisIndex,hardcoded_stimulus_positions.ran,StimulusPos,stimorientation.started,stimorientation.stopped,prac_stimorientation_import_loop.thisRepN,prac_stimorientation_import_loop.thisTrialN,prac_stimorientation_import_loop.thisN,prac_stimorientation_import_loop.thisIndex,prac_stimorientation_import_loop.ran,Stimorientation,welcome_instr.started,welcome_instr.stopped,key_resp.keys,key_resp.rt,key_resp.duration,response_steppedout_1.started,response_steppedout_1.stopped,key_resp_20.keys,key_resp_20.rt,key_resp_20.duration,response_steppedout_2.started,response_steppedout_2.stopped,key_resp_19.keys,key_resp_19.rt,key_resp_19.duration,stim_response_instr.started,stim_response_instr.stopped,key_resp_15.keys,key_resp_15.rt,key_resp_15.duration,direction_instr_2.started,direction_instr_2.stopped,key_resp_9.keys,key_resp_9.rt,key_resp_9.duration,instr_prac.started,instr_prac.stopped,key_resp_10.keys,key_resp_10.rt,key_resp_10.duration,Stim1_display_prac.started,Stim1_display_prac.stopped,Ecc,Circle1_ori,Circle2_ori,response_prac.started,similarity,response_time,response_prac.stopped,mouse_5.x,mouse_5.y,mouse_5.leftButton,mouse_5.midButton,mouse_5.rightButton,mouse_5.clicked_name,responseprac_feedback.started,responseprac_feedback.stopped,summary2_prac.started,summary2_prac.stopped,mouse_6.x,mouse_6.y,mouse_6.leftButton,mouse_6.midButton,mouse_6.rightButton,mouse_6.clicked_name,duringprac.thisRepN,duringprac.thisTrialN,duringprac.thisN,duringprac.thisIndex,duringprac.ran,begin.started,begin.stopped,key_resp_22.keys,key_resp_22.rt,key_resp_22.duration,Stim1_display.started,Stim1_display.stopped,circle1_ori,circle2_ori,circle1_SF,circle2_SF,response.started,response.stopped,mouse.x,mouse.y,mouse.leftButton,mouse.midButton,mouse.rightButton,mouse.clicked_name,trialnumber,double_pass.thisRepN,double_pass.thisTrialN,double_pass.thisN,double_pass.thisIndex,double_pass.ran,double_pass.order,main_trial.thisRepN,main_trial.thisTrialN,main_trial.thisN,main_trial.thisIndex,main_trial.ran,main_trial.order,Trial_Counter,Catch,Frequencies,response_2.started,response_2.stopped,mouse_2.x,mouse_2.y,mouse_2.leftButton,mouse_2.midButton,mouse_2.rightButton,mouse_2.clicked_name,special_trial.started,special_trial.stopped,catch_1.started,catch_1.stopped,mouse_3.x,mouse_3.y,mouse_3.leftButton,mouse_3.midButton,mouse_3.rightButton,catchresponse,catchnumber,response_time_catch,response_sum.started,response_sum.stopped,mouse_11.x,mouse_11.y,mouse_11.leftButton,mouse_11.midButton,mouse_11.rightButton,flip_presentation_sequence_for_double_pass.started,flip_presentation_sequence_for_double_pass.stopped,goodbye.started,goodbye.stopped,key_resp_3.keys,key_resp_3.rt,key_resp_3.duration
0.0058,0.0059,68346da60e4abaae6a369c02,2026-03-17_16h37.09.355,kallum_motion_pilot_GIST_update_2,2026.1.1,Win32,60.24096386,68346da60e4abaae6a369c02,69b95efdef24cd8a694e89ee,69b961ae4324d911e93ae281,,,,,,,,,,,,,,,,,,,,,,,,,,,,,,,,,,,,,,,,,,,,,,,,,,,,,,,,,,,,,,,,,,,,,,,,,,,,,,,,,,,,,,,,,,,,,,,,,,,,,,,,,,,,,,,,,,,,,,,,,,,,,,,,,,,,,,,,,,,,,,,,,
,,68346da60e4abaae6a369c02,2026-03-17_16h37.09.355,kallum_motion_pilot_GIST_update_2,2026.1.1,Win32,60.24096386,68346da60e4abaae6a369c02,69b95efdef24cd8a694e89ee,69b961ae4324d911e93ae281,0.039,0.0391,0,0,0,23,1,fourthree,,,,,,,,,,,,,,,,,,,,,,,,,,,,,,,,,,,,,,,,,,,,,,,,,,,,,,,,,,,,,,,,,,,,,,,,,,,,,,,,,,,,,,,,,,,,,,,,,,,,,,,,,,,,,,,,,,,,,,,,,,,,,,,,,,,,,,,,,
,,68346da60e4abaae6a369c02,2026-03-17_16h37.09.355,kallum_motion_pilot_GIST_update_2,2026.1.1,Win32,60.24096386,68346da60e4abaae6a369c02,69b95efdef24cd8a694e89ee,69b961ae4324d911e93ae281,0.0396,0.0396,0,1,1,147,1,sixeight,,,,,,,,,,,,,,,,,,,,,,,,,,,,,,,,,,,,,,,,,,,,,,,,,,,,,,,,,,,,,,,,,,,,,,,,,,,,,,,,,,,,,,,,,,,,,,,,,,,,,,,,,,,,,,,,,,,,,,,,,,,,,,,,,,,,,,,,,
,,68346da60e4abaae6a369c02,2026-03-17_16h37.09.355,kallum_motion_pilot_GIST_update_2,2026.1.1,Win32,60.24096386,68346da60e4abaae6a369c02,69b95efdef24cd8a694e89ee,69b961ae4324d911e93ae281,0.0398,0.0398,0,2,2,70,1,fourtwo,,,,,,,,,,,,,,,,,,,,,,,,,,,,,,,,,,,,,,,,,,,,,,,,,,,,,,,,,,,,,,,,,,,,,,,,,,,,,,,,,,,,,,,,,,,,,,,,,,,,,,,,,,,,,,,,,,,,,,,,,,,,,,,,,,,,,,,,,
,,68346da60e4abaae6a369c02,2026-03-17_16h37.09.355,kallum_motion_pilot_GIST_update_2,2026.1.1,Win32,60.24096386,68346da60e4abaae6a369c02,69b95efdef24cd8a694e89ee,69b961ae4324d911e93ae281,0.04,0.04,0,3,3,156,1,sevenfive,,,,,,,,,,,,,,,,,,,,,,,,,,,,,,,,,,,,,,,,,,,,,,,,,,,,,,,,,,,,,,,,,,,,,,,,,,,,,,,,,,,,,,,,,,,,,,,,,,,,,,,,,,,,,,,,,,,,,,,,,,,,,,,,,,,,,,,,,
,,68346da60e4abaae6a369c02,2026-03-17_16h37.09.355,kallum_motion_pilot_GIST_update_2,2026.1.1,Win32,60.24096386,68346da60e4abaae6a369c02,69b95efdef24cd8a694e89ee,69b961ae4324d911e93ae281,0.0403,0.0403,0,4,4,126,1,eightsix,,,,,,,,,,,,,,,,,,,,,,,,,,,,,,,,,,,,,,,,,,,,,,,,,,,,,,,,,,,,,,,,,,,,,,,,,,,,,,,,,,,,,,,,,,,,,,,,,,,,,,,,,,,,,,,,,,,,,,,,,,,,,,,,,,,,,,,,,
,,68346da60e4abaae6a369c02,2026-03-17_16h37.09.355,kallum_motion_pilot_GIST_update_2,2026.1.1,Win32,60.24096386,68346da60e4abaae6a369c02,69b95efdef24cd8a694e89ee,69b961ae4324d911e93ae281,0.0405,0.0405,0,5,5,29,1,threefour,,,,,,,,,,,,,,,,,,,,,,,,,,,,,,,,,,,,,,,,,,,,,,,,,,,,,,,,,,,,,,,,,,,,,,,,,,,,,,,,,,,,,,,,,,,,,,,,,,,,,,,,,,,,,,,,,,,,,,,,,,,,,,,,,,,,,,,,,
,,68346da60e4abaae6a369c02,2026-03-17_16h37.09.355,kallum_motion_pilot_GIST_update_2,2026.1.1,Win32,60.24096386,68346da60e4abaae6a369c02,69b95efdef24cd8a694e89ee,69b961ae4324d911e93ae281,0.0408,0.0408,0,6,6,48,1,onetwo,,,,,,,,,,,,,,,,,,,,,,,,,,,,,,,,,,,,,,,,,,,,,,,,,,,,,,,,,,,,,,,,,,,,,,,,,,,,,,,,,,,,,,,,,,,,,,,,,,,,,,,,,,,,,,,,,,,,,,,,,,,,,,,,,,,,,,,,,
,,68346da60e4abaae6a369c02,2026-03-17_16h37.09.355,kallum_motion_pilot_GIST_update_2,2026.1.1,Win32,60.24096386,68346da60e4abaae6a369c02,69b95efdef24cd8a694e89ee,69b961ae4324d911e93ae281,0.041,0.041,0,7,7,149,1,seveneight,,,,,,,,,,,,,,,,,,,,,,,,,,,,,,,,,,,,,,,,,,,,,,,,,,,,,,,,,,,,,,,,,,,,,,,,,,,,,,,,,,,,,,,,,,,,,,,,,,,,,,,,,,,,,,,,,,,,,,,,,,,,,,,,,,,,,,,,,
,,68346da60e4abaae6a369c02,2026-03-17_16h37.09.355,kallum_motion_pilot_GIST_update_2,2026.1.1,Win32,60.24096386,68346da60e4abaae6a369c02,69b95efdef24cd8a694e89ee,69b961ae4324d911e93ae281,0.0414,0.0415,0,8,8,80,1,fivesix,,,,,,,,,,,,,,,,,,,,,,,,,,,,,,,,,,,,,,,,,,,,,,,,,,,,,,,,,,,,,,,,,,,,,,,,,,,,,,,,,,,,,,,,,,,,,,,,,,,,,,,,,,,,,,,,,,,,,,,,,,,,,,,,,,,,,,,,,
,,68346da60e4abaae6a369c02,2026-03-17_16h37.09.355,kallum_motion_pilot_GIST_update_2,2026.1.1,Win32,60.24096386,68346da60e4abaae6a369c02,69b95efdef24cd8a694e89ee,69b961ae4324d911e93ae281,0.0417,0.0417,0,9,9,146,1,sixfive,,,,,,,,,,,,,,,,,,,,,,,,,,,,,,,,,,,,,,,,,,,,,,,,,,,,,,,,,,,,,,,,,,,,,,,,,,,,,,,,,,,,,,,,,,,,,,,,,,,,,,,,,,,,,,,,,,,,,,,,,,,,,,,,,,,,,,,,,
,,68346da60e4abaae6a369c02,2026-03-17_16h37.09.355,kallum_motion_pilot_GIST_update_2,2026.1.1,Win32,60.24096386,68346da60e4abaae6a369c02,69b95efdef24cd8a694e89ee,69b961ae4324d911e93ae281,0.0421,0.0421,0,10,10,78,1,fourtwo,,,,,,,,,,,,,,,,,,,,,,,,,,,,,,,,,,,,,,,,,,,,,,,,,,,,,,,,,,,,,,,,,,,,,,,,,,,,,,,,,,,,,,,,,,,,,,,,,,,,,,,,,,,,,,,,,,,,,,,,,,,,,,,,,,,,,,,,,
,,68346da60e4abaae6a369c02,2026-03-17_16h37.09.355,kallum_motion_pilot_GIST_update_2,2026.1.1,Win32,60.24096386,68346da60e4abaae6a369c02,69b95efdef24cd8a694e89ee,69b961ae4324d911e93ae281,0.0422,0.0423,0,11,11,21,1,threefour,,,,,,,,,,,,,,,,,,,,,,,,,,,,,,,,,,,,,,,,,,,,,,,,,,,,,,,,,,,,,,,,,,,,,,,,,,,,,,,,,,,,,,,,,,,,,,,,,,,,,,,,,,,,,,,,,,,,,,,,,,,,,,,,,,,,,,,,,
,,68346da60e4abaae6a369c02,2026-03-17_16h37.09.355,kallum_motion_pilot_GIST_update_2,2026.1.1,Win32,60.24096386,68346da60e4abaae6a369c02,69b95efdef24cd8a694e89ee,69b961ae4324d911e93ae281,0.0423,0.0424,0,12,12,124,1,sevenfive,,,,,,,,,,,,,,,,,,,,,,,,,,,,,,,,,,,,,,,,,,,,,,,,,,,,,,,,,,,,,,,,,,,,,,,,,,,,,,,,,,,,,,,,,,,,,,,,,,,,,,,,,,,,,,,,,,,,,,,,,,,,,,,,,,,,,,,,,
,,68346da60e4abaae6a369c02,2026-03-17_16h37.09.355,kallum_motion_pilot_GIST_update_2,2026.1.1,Win32,60.24096386,68346da60e4abaae6a369c02,69b95efdef24cd8a694e89ee,69b961ae4324d911e93ae281,0.0426,0.0426,0,13,13,115,1,sixeight,,,,,,,,,,,,,,,,,,,,,,,,,,,,,,,,,,,,,,,,,,,,,,,,,,,,,,,,,,,,,,,,,,,,,,,,,,,,,,,,,,,,,,,,,,,,,,,,,,,,,,,,,,,,,,,,,,,,,,,,,,,,,,,,,,,,,,,,,
,,68346da60e4abaae6a369c02,2026-03-17_16h37.09.355,kallum_motion_pilot_GIST_update_2,2026.1.1,Win32,60.24096386,68346da60e4abaae6a369c02,69b95efdef24cd8a694e89ee,69b961ae4324d911e93ae281,0.0428,0.0428,0,14,14,110,1,eightsix,,,,,,,,,,,,,,,,,,,,,,,,,,,,,,,,,,,,,,,,,,,,,,,,,,,,,,,,,,,,,,,,,,,,,,,,,,,,,,,,,,,,,,,,,,,,,,,,,,,,,,,,,,,,,,,,,,,,,,,,,,,,,,,,,,,,,,,,,
,,68346da60e4abaae6a369c02,2026-03-17_16h37.09.355,kallum_motion_pilot_GIST_update_2,2026.1.1,Win32,60.24096386,68346da60e4abaae6a369c02,69b95efdef24cd8a694e89ee,69b961ae4324d911e93ae281,0.043,0.043,0,15,15,157,1,seveneight,,,,,,,,,,,,,,,,,,,,,,,,,,,,,,,,,,,,,,,,,,,,,,,,,,,,,,,,,,,,,,,,,,,,,,,,,,,,,,,,,,,,,,,,,,,,,,,,,,,,,,,,,,,,,,,,,,,,,,,,,,,,,,,,,,,,,,,,,
,,68346da60e4abaae6a369c02,2026-03-17_16h37.09.355,kallum_motion_pilot_GIST_update_2,2026.1.1,Win32,60.24096386,68346da60e4abaae6a369c02,69b95efdef24cd8a694e89ee,69b961ae4324d911e93ae281,0.044,0.044,0,16,16,153,1,fiveseven,,,,,,,,,,,,,,,,,,,,,,,,,,,,,,,,,,,,,,,,,,,,,,,,,,,,,,,,,,,,,,,,,,,,,,,,,,,,,,,,,,,,,,,,,,,,,,,,,,,,,,,,,,,,,,,,,,,,,,,,,,,,,,,,,,,,,,,,,
,,68346da60e4abaae6a369c02,2026-03-17_16h37.09.355,kallum_motion_pilot_GIST_update_2,2026.1.1,Win32,60.24096386,68346da60e4abaae6a369c02,69b95efdef24cd8a694e89ee,69b961ae4324d911e93ae281,0.0443,0.0443,0,17,17,103,1,eightseven,,,,,,,,,,,,,,,,,,,,,,,,,,,,,,,,,,,,,,,,,,,,,,,,,,,,,,,,,,,,,,,,,,,,,,,,,,,,,,,,,,,,,,,,,,,,,,,,,,,,,,,,,,,,,,,,,,,,,,,,,,,,,,,,,,,,,,,,,
,,68346da60e4abaae6a369c02,2026-03-17_16h37.09.355,kallum_motion_pilot_GIST_update_2,2026.1.1,Win32,60.24096386,68346da60e4abaae6a369c02,69b95efdef24cd8a694e89ee,69b961ae4324d911e93ae281,0.0444,0.0444,0,18,18,61,1,threefour,,,,,,,,,,,,,,,,,,,,,,,,,,,,,,,,,,,,,,,,,,,,,,,,,,,,,,,,,,,,,,,,,,,,,,,,,,,,,,,,,,,,,,,,,,,,,,,,,,,,,,,,,,,,,,,,,,,,,,,,,,,,,,,,,,,,,,,,,
,,68346da60e4abaae6a369c02,2026-03-17_16h37.09.355,kallum_motion_pilot_GIST_update_2,2026.1.1,Win32,60.24096386,68346da60e4abaae6a369c02,69b95efdef24cd8a694e89ee,69b961ae4324d911e93ae281,0.0446,0.0446,0,19,19,107,1,sixeight,,,,,,,,,,,,,,,,,,,,,,,,,,,,,,,,,,,,,,,,,,,,,,,,,,,,,,,,,,,,,,,,,,,,,,,,,,,,,,,,,,,,,,,,,,,,,,,,,,,,,,,,,,,,,,,,,,,,,,,,,,,,,,,,,,,,,,,,,
,,68346da60e4abaae6a369c02,2026-03-17_16h37.09.355,kallum_motion_pilot_GIST_update_2,2026.1.1,Win32,60.24096386,68346da60e4abaae6a369c02,69b95efdef24cd8a694e89ee,69b961ae4324d911e93ae281,0.0448,0.0448,0,20,20,127,1,eightseven,,,,,,,,,,,,,,,,,,,,,,,,,,,,,,,,,,,,,,,,,,,,,,,,,,,,,,,,,,,,,,,,,,,,,,,,,,,,,,,,,,,,,,,,,,,,,,,,,,,,,,,,,,,,,,,,,,,,,,,,,,,,,,,,,,,,,,,,,
,,68346da60e4abaae6a369c02,2026-03-17_16h37.09.355,kallum_motion_pilot_GIST_update_2,2026.1.1,Win32,60.24096386,68346da60e4abaae6a369c02,69b95efdef24cd8a694e89ee,69b961ae4324d911e93ae281,0.045,0.045,0,21,21,131,1,sixeight,,,,,,,,,,,,,,,,,,,,,,,,,,,,,,,,,,,,,,,,,,,,,,,,,,,,,,,,,,,,,,,,,,,,,,,,,,,,,,,,,,,,,,,,,,,,,,,,,,,,,,,,,,,,,,,,,,,,,,,,,,,,,,,,,,,,,,,,,
,,68346da60e4abaae6a369c02,2026-03-17_16h37.09.355,kallum_motion_pilot_GIST_update_2,2026.1.1,Win32,60.24096386,68346da60e4abaae6a369c02,69b95efdef24cd8a694e89ee,69b961ae4324d911e93ae281,0.0455,0.0455,0,22,22,92,1,sevenfive,,,,,,,,,,,,,,,,,,,,,,,,,,,,,,,,,,,,,,,,,,,,,,,,,,,,,,,,,,,,,,,,,,,,,,,,,,,,,,,,,,,,,,,,,,,,,,,,,,,,,,,,,,,,,,,,,,,,,,,,,,,,,,,,,,,,,,,,,
,,68346da60e4abaae6a369c02,2026-03-17_16h37.09.355,kallum_motion_pilot_GIST_update_2,2026.1.1,Win32,60.24096386,68346da60e4abaae6a369c02,69b95efdef24cd8a694e89ee,69b961ae4324d911e93ae281,0.0458,0.0458,0,23,23,58,1,twoone,,,,,,,,,,,,,,,,,,,,,,,,,,,,,,,,,,,,,,,,,,,,,,,,,,,,,,,,,,,,,,,,,,,,,,,,,,,,,,,,,,,,,,,,,,,,,,,,,,,,,,,,,,,,,,,,,,,,,,,,,,,,,,,,,,,,,,,,,
,,68346da60e4abaae6a369c02,2026-03-17_16h37.09.355,kallum_motion_pilot_GIST_update_2,2026.1.1,Win32,60.24096386,68346da60e4abaae6a369c02,69b95efdef24cd8a694e89ee,69b961ae4324d911e93ae281,0.0461,0.0461,0,24,24,128,1,fivesix,,,,,,,,,,,,,,,,,,,,,,,,,,,,,,,,,,,,,,,,,,,,,,,,,,,,,,,,,,,,,,,,,,,,,,,,,,,,,,,,,,,,,,,,,,,,,,,,,,,,,,,,,,,,,,,,,,,,,,,,,,,,,,,,,,,,,,,,,
,,68346da60e4abaae6a369c02,2026-03-17_16h37.09.355,kallum_motion_pilot_GIST_update_2,2026.1.1,Win32,60.24096386,68346da60e4abaae6a369c02,69b95efdef24cd8a694e89ee,69b961ae4324d911e93ae281,0.0465,0.0466,0,25,25,27,1,twofour,,,,,,,,,,,,,,,,,,,,,,,,,,,,,,,,,,,,,,,,,,,,,,,,,,,,,,,,,,,,,,,,,,,,,,,,,,,,,,,,,,,,,,,,,,,,,,,,,,,,,,,,,,,,,,,,,,,,,,,,,,,,,,,,,,,,,,,,,
,,68346da60e4abaae6a369c02,2026-03-17_16h37.09.355,kallum_motion_pilot_GIST_update_2,2026.1.1,Win32,60.24096386,68346da60e4abaae6a369c02,69b95efdef24cd8a694e89ee,69b961ae4324d911e93ae281,0.0468,0.0469,0,26,26,141,1,seveneight,,,,,,,,,,,,,,,,,,,,,,,,,,,,,,,,,,,,,,,,,,,,,,,,,,,,,,,,,,,,,,,,,,,,,,,,,,,,,,,,,,,,,,,,,,,,,,,,,,,,,,,,,,,,,,,,,,,,,,,,,,,,,,,,,,,,,,,,,
,,68346da60e4abaae6a369c02,2026-03-17_16h37.09.355,kallum_motion_pilot_GIST_update_2,2026.1.1,Win32,60.24096386,68346da60e4abaae6a369c02,69b95efdef24cd8a694e89ee,69b961ae4324d911e93ae281,0.0473,0.0473,0,27,27,137,1,fiveseven,,,,,,,,,,,,,,,,,,,,,,,,,,,,,,,,,,,,,,,,,,,,,,,,,,,,,,,,,,,,,,,,,,,,,,,,,,,,,,,,,,,,,,,,,,,,,,,,,,,,,,,,,,,,,,,,,,,,,,,,,,,,,,,,,,,,,,,,,
,,68346da60e4abaae6a369c02,2026-03-17_16h37.09.355,kallum_motion_pilot_GIST_update_2,2026.1.1,Win32,60.24096386,68346da60e4abaae6a369c02,69b95efdef24cd8a694e89ee,69b961ae4324d911e93ae281,0.0475,0.0475,0,28,28,64,1,onetwo,,,,,,,,,,,,,,,,,,,,,,,,,,,,,,,,,,,,,,,,,,,,,,,,,,,,,,,,,,,,,,,,,,,,,,,,,,,,,,,,,,,,,,,,,,,,,,,,,,,,,,,,,,,,,,,,,,,,,,,,,,,,,,,,,,,,,,,,,
,,68346da60e4abaae6a369c02,2026-03-17_16h37.09.355,kallum_motion_pilot_GIST_update_2,2026.1.1,Win32,60.24096386,68346da60e4abaae6a369c02,69b95efdef24cd8a694e89ee,69b961ae4324d911e93ae281,0.0478,0.0478,0,29,29,87,1,eightseven,,,,,,,,,,,,,,,,,,,,,,,,,,,,,,,,,,,,,,,,,,,,,,,,,,,,,,,,,,,,,,,,,,,,,,,,,,,,,,,,,,,,,,,,,,,,,,,,,,,,,,,,,,,,,,,,,,,,,,,,,,,,,,,,,,,,,,,,,
,,68346da60e4abaae6a369c02,2026-03-17_16h37.09.355,kallum_motion_pilot_GIST_update_2,2026.1.1,Win32,60.24096386,68346da60e4abaae6a369c02,69b95efdef24cd8a694e89ee,69b961ae4324d911e93ae281,0.048,0.048,0,30,30,17,1,onethree,,,,,,,,,,,,,,,,,,,,,,,,,,,,,,,,,,,,,,,,,,,,,,,,,,,,,,,,,,,,,,,,,,,,,,,,,,,,,,,,,,,,,,,,,,,,,,,,,,,,,,,,,,,,,,,,,,,,,,,,,,,,,,,,,,,,,,,,,
,,68346da60e4abaae6a369c02,2026-03-17_16h37.09.355,kallum_motion_pilot_GIST_update_2,2026.1.1,Win32,60.24096386,68346da60e4abaae6a369c02,69b95efdef24cd8a694e89ee,69b961ae4324d911e93ae281,0.0482,0.0482,0,31,31,76,1,threeone,,,,,,,,,,,,,,,,,,,,,,,,,,,,,,,,,,,,,,,,,,,,,,,,,,,,,,,,,,,,,,,,,,,,,,,,,,,,,,,,,,,,,,,,,,,,,,,,,,,,,,,,,,,,,,,,,,,,,,,,,,,,,,,,,,,,,,,,,
,,68346da60e4abaae6a369c02,2026-03-17_16h37.09.355,kallum_motion_pilot_GIST_update_2,2026.1.1,Win32,60.24096386,68346da60e4abaae6a369c02,69b95efdef24cd8a694e89ee,69b961ae4324d911e93ae281,0.0484,0.0484,0,32,32,100,1,sevenfive,,,,,,,,,,,,,,,,,,,,,,,,,,,,,,,,,,,,,,,,,,,,,,,,,,,,,,,,,,,,,,,,,,,,,,,,,,,,,,,,,,,,,,,,,,,,,,,,,,,,,,,,,,,,,,,,,,,,,,,,,,,,,,,,,,,,,,,,,
,,68346da60e4abaae6a369c02,2026-03-17_16h37.09.355,kallum_motion_pilot_GIST_update_2,2026.1.1,Win32,60.24096386,68346da60e4abaae6a369c02,69b95efdef24cd8a694e89ee,69b961ae4324d911e93ae281,0.0487,0.0488,0,33,33,24,1,onetwo,,,,,,,,,,,,,,,,,,,,,,,,,,,,,,,,,,,,,,,,,,,,,,,,,,,,,,,,,,,,,,,,,,,,,,,,,,,,,,,,,,,,,,,,,,,,,,,,,,,,,,,,,,,,,,,,,,,,,,,,,,,,,,,,,,,,,,,,,
,,68346da60e4abaae6a369c02,2026-03-17_16h37.09.355,kallum_motion_pilot_GIST_update_2,2026.1.1,Win32,60.24096386,68346da60e4abaae6a369c02,69b95efdef24cd8a694e89ee,69b961ae4324d911e93ae281,0.0489,0.0489,0,34,34,22,1,fourtwo,,,,,,,,,,,,,,,,,,,,,,,,,,,,,,,,,,,,,,,,,,,,,,,,,,,,,,,,,,,,,,,,,,,,,,,,,,,,,,,,,,,,,,,,,,,,,,,,,,,,,,,,,,,,,,,,,,,,,,,,,,,,,,,,,,,,,,,,,
,,68346da60e4abaae6a369c02,2026-03-17_16h37.09.355,kallum_motion_pilot_GIST_update_2,2026.1.1,Win32,60.24096386,68346da60e4abaae6a369c02,69b95efdef24cd8a694e89ee,69b961ae4324d911e93ae281,0.0491,0.0491,0,35,35,154,1,sixfive,,,,,,,,,,,,,,,,,,,,,,,,,,,,,,,,,,,,,,,,,,,,,,,,,,,,,,,,,,,,,,,,,,,,,,,,,,,,,,,,,,,,,,,,,,,,,,,,,,,,,,,,,,,,,,,,,,,,,,,,,,,,,,,,,,,,,,,,,
,,68346da60e4abaae6a369c02,2026-03-17_16h37.09.355,kallum_motion_pilot_GIST_update_2,2026.1.1,Win32,60.24096386,68346da60e4abaae6a369c02,69b95efdef24cd8a694e89ee,69b961ae4324d911e93ae281,0.0494,0.0494,0,36,36,143,1,eightseven,,,,,,,,,,,,,,,,,,,,,,,,,,,,,,,,,,,,,,,,,,,,,,,,,,,,,,,,,,,,,,,,,,,,,,,,,,,,,,,,,,,,,,,,,,,,,,,,,,,,,,,,,,,,,,,,,,,,,,,,,,,,,,,,,,,,,,,,,
,,68346da60e4abaae6a369c02,2026-03-17_16h37.09.355,kallum_motion_pilot_GIST_update_2,2026.1.1,Win32,60.24096386,68346da60e4abaae6a369c02,69b95efdef24cd8a694e89ee,69b961ae4324d911e93ae281,0.0496,0.0496,0,37,37,94,1,eightsix,,,,,,,,,,,,,,,,,,,,,,,,,,,,,,,,,,,,,,,,,,,,,,,,,,,,,,,,,,,,,,,,,,,,,,,,,,,,,,,,,,,,,,,,,,,,,,,,,,,,,,,,,,,,,,,,,,,,,,,,,,,,,,,,,,,,,,,,,
,,68346da60e4abaae6a369c02,2026-03-17_16h37.09.355,kallum_motion_pilot_GIST_update_2,2026.1.1,Win32,60.24096386,68346da60e4abaae6a369c02,69b95efdef24cd8a694e89ee,69b961ae4324d911e93ae281,0.0497,0.0497,0,38,38,4,1,threeone,,,,,,,,,,,,,,,,,,,,,,,,,,,,,,,,,,,,,,,,,,,,,,,,,,,,,,,,,,,,,,,,,,,,,,,,,,,,,,,,,,,,,,,,,,,,,,,,,,,,,,,,,,,,,,,,,,,,,,,,,,,,,,,,,,,,,,,,,
,,68346da60e4abaae6a369c02,2026-03-17_16h37.09.355,kallum_motion_pilot_GIST_update_2,2026.1.1,Win32,60.24096386,68346da60e4abaae6a369c02,69b95efdef24cd8a694e89ee,69b961ae4324d911e93ae281,0.05,0.05,0,39,39,43,1,twofour,,,,,,,,,,,,,,,,,,,,,,,,,,,,,,,,,,,,,,,,,,,,,,,,,,,,,,,,,,,,,,,,,,,,,,,,,,,,,,,,,,,,,,,,,,,,,,,,,,,,,,,,,,,,,,,,,,,,,,,,,,,,,,,,,,,,,,,,,
,,68346da60e4abaae6a369c02,2026-03-17_16h37.09.355,kallum_motion_pilot_GIST_update_2,2026.1.1,Win32,60.24096386,68346da60e4abaae6a369c02,69b95efdef24cd8a694e89ee,69b961ae4324d911e93ae281,0.0502,0.0502,0,40,40,101,1,seveneight,,,,,,,,,,,,,,,,,,,,,,,,,,,,,,,,,,,,,,,,,,,,,,,,,,,,,,,,,,,,,,,,,,,,,,,,,,,,,,,,,,,,,,,,,,,,,,,,,,,,,,,,,,,,,,,,,,,,,,,,,,,,,,,,,,,,,,,,,
,,68346da60e4abaae6a369c02,2026-03-17_16h37.09.355,kallum_motion_pilot_GIST_update_2,2026.1.1,Win32,60.24096386,68346da60e4abaae6a369c02,69b95efdef24cd8a694e89ee,69b961ae4324d911e93ae281,0.0504,0.0504,0,41,41,106,1,sixfive,,,,,,,,,,,,,,,,,,,,,,,,,,,,,,,,,,,,,,,,,,,,,,,,,,,,,,,,,,,,,,,,,,,,,,,,,,,,,,,,,,,,,,,,,,,,,,,,,,,,,,,,,,,,,,,,,,,,,,,,,,,,,,,,,,,,,,,,,
,,68346da60e4abaae6a369c02,2026-03-17_16h37.09.355,kallum_motion_pilot_GIST_update_2,2026.1.1,Win32,60.24096386,68346da60e4abaae6a369c02,69b95efdef24cd8a694e89ee,69b961ae4324d911e93ae281,0.0506,0.0506,0,42,42,53,1,threefour,,,,,,,,,,,,,,,,,,,,,,,,,,,,,,,,,,,,,,,,,,,,,,,,,,,,,,,,,,,,,,,,,,,,,,,,,,,,,,,,,,,,,,,,,,,,,,,,,,,,,,,,,,,,,,,,,,,,,,,,,,,,,,,,,,,,,,,,,
,,68346da60e4abaae6a369c02,2026-03-17_16h37.09.355,kallum_motion_pilot_GIST_update_2,2026.1.1,Win32,60.24096386,68346da60e4abaae6a369c02,69b95efdef24cd8a694e89ee,69b961ae4324d911e93ae281,0.0508,0.0508,0,43,43,104,1,fivesix,,,,,,,,,,,,,,,,,,,,,,,,,,,,,,,,,,,,,,,,,,,,,,,,,,,,,,,,,,,,,,,,,,,,,,,,,,,,,,,,,,,,,,,,,,,,,,,,,,,,,,,,,,,,,,,,,,,,,,,,,,,,,,,,,,,,,,,,,
,,68346da60e4abaae6a369c02,2026-03-17_16h37.09.355,kallum_motion_pilot_GIST_update_2,2026.1.1,Win32,60.24096386,68346da60e4abaae6a369c02,69b95efdef24cd8a694e89ee,69b961ae4324d911e93ae281,0.0509,0.0509,0,44,44,50,1,twoone,,,,,,,,,,,,,,,,,,,,,,,,,,,,,,,,,,,,,,,,,,,,,,,,,,,,,,,,,,,,,,,,,,,,,,,,,,,,,,,,,,,,,,,,,,,,,,,,,,,,,,,,,,,,,,,,,,,,,,,,,,,,,,,,,,,,,,,,,
,,68346da60e4abaae6a369c02,2026-03-17_16h37.09.355,kallum_motion_pilot_GIST_update_2,2026.1.1,Win32,60.24096386,68346da60e4abaae6a369c02,69b95efdef24cd8a694e89ee,69b961ae4324d911e93ae281,0.0512,0.0512,0,45,45,69,1,threefour,,,,,,,,,,,,,,,,,,,,,,,,,,,,,,,,,,,,,,,,,,,,,,,,,,,,,,,,,,,,,,,,,,,,,,,,,,,,,,,,,,,,,,,,,,,,,,,,,,,,,,,,,,,,,,,,,,,,,,,,,,,,,,,,,,,,,,,,,
,,68346da60e4abaae6a369c02,2026-03-17_16h37.09.355,kallum_motion_pilot_GIST_update_2,2026.1.1,Win32,60.24096386,68346da60e4abaae6a369c02,69b95efdef24cd8a694e89ee,69b961ae4324d911e93ae281,0.0513,0.0513,0,46,46,111,1,eightseven,,,,,,,,,,,,,,,,,,,,,,,,,,,,,,,,,,,,,,,,,,,,,,,,,,,,,,,,,,,,,,,,,,,,,,,,,,,,,,,,,,,,,,,,,,,,,,,,,,,,,,,,,,,,,,,,,,,,,,,,,,,,,,,,,,,,,,,,,
,,68346da60e4abaae6a369c02,2026-03-17_16h37.09.355,kallum_motion_pilot_GIST_update_2,2026.1.1,Win32,60.24096386,68346da60e4abaae6a369c02,69b95efdef24cd8a694e89ee,69b961ae4324d911e93ae281,0.0516,0.0516,0,47,47,88,1,fivesix,,,,,,,,,,,,,,,,,,,,,,,,,,,,,,,,,,,,,,,,,,,,,,,,,,,,,,,,,,,,,,,,,,,,,,,,,,,,,,,,,,,,,,,,,,,,,,,,,,,,,,,,,,,,,,,,,,,,,,,,,,,,,,,,,,,,,,,,,
,,68346da60e4abaae6a369c02,2026-03-17_16h37.09.355,kallum_motion_pilot_GIST_update_2,2026.1.1,Win32,60.24096386,68346da60e4abaae6a369c02,69b95efdef24cd8a694e89ee,69b961ae4324d911e93ae281,0.0518,0.0518,0,48,48,151,1,eightseven,,,,,,,,,,,,,,,,,,,,,,,,,,,,,,,,,,,,,,,,,,,,,,,,,,,,,,,,,,,,,,,,,,,,,,,,,,,,,,,,,,,,,,,,,,,,,,,,,,,,,,,,,,,,,,,,,,,,,,,,,,,,,,,,,,,,,,,,,
,,68346da60e4abaae6a369c02,2026-03-17_16h37.09.355,kallum_motion_pilot_GIST_update_2,2026.1.1,Win32,60.24096386,68346da60e4abaae6a369c02,69b95efdef24cd8a694e89ee,69b961ae4324d911e93ae281,0.0521,0.0521,0,49,49,52,1,threeone,,,,,,,,,,,,,,,,,,,,,,,,,,,,,,,,,,,,,,,,,,,,,,,,,,,,,,,,,,,,,,,,,,,,,,,,,,,,,,,,,,,,,,,,,,,,,,,,,,,,,,,,,,,,,,,,,,,,,,,,,,,,,,,,,,,,,,,,,
,,68346da60e4abaae6a369c02,2026-03-17_16h37.09.355,kallum_motion_pilot_GIST_update_2,2026.1.1,Win32,60.24096386,68346da60e4abaae6a369c02,69b95efdef24cd8a694e89ee,69b961ae4324d911e93ae281,0.0523,0.0524,0,50,50,8,1,onetwo,,,,,,,,,,,,,,,,,,,,,,,,,,,,,,,,,,,,,,,,,,,,,,,,,,,,,,,,,,,,,,,,,,,,,,,,,,,,,,,,,,,,,,,,,,,,,,,,,,,,,,,,,,,,,,,,,,,,,,,,,,,,,,,,,,,,,,,,,
,,68346da60e4abaae6a369c02,2026-03-17_16h37.09.355,kallum_motion_pilot_GIST_update_2,2026.1.1,Win32,60.24096386,68346da60e4abaae6a369c02,69b95efdef24cd8a694e89ee,69b961ae4324d911e93ae281,0.053,0.053,0,51,51,34,1,twoone,,,,,,,,,,,,,,,,,,,,,,,,,,,,,,,,,,,,,,,,,,,,,,,,,,,,,,,,,,,,,,,,,,,,,,,,,,,,,,,,,,,,,,,,,,,,,,,,,,,,,,,,,,,,,,,,,,,,,,,,,,,,,,,,,,,,,,,,,
,,68346da60e4abaae6a369c02,2026-03-17_16h37.09.355,kallum_motion_pilot_GIST_update_2,2026.1.1,Win32,60.24096386,68346da60e4abaae6a369c02,69b95efdef24cd8a694e89ee,69b961ae4324d911e93ae281,0.0532,0.0532,0,52,52,10,1,twoone,,,,,,,,,,,,,,,,,,,,,,,,,,,,,,,,,,,,,,,,,,,,,,,,,,,,,,,,,,,,,,,,,,,,,,,,,,,,,,,,,,,,,,,,,,,,,,,,,,,,,,,,,,,,,,,,,,,,,,,,,,,,,,,,,,,,,,,,,
,,68346da60e4abaae6a369c02,2026-03-17_16h37.09.355,kallum_motion_pilot_GIST_update_2,2026.1.1,Win32,60.24096386,68346da60e4abaae6a369c02,69b95efdef24cd8a694e89ee,69b961ae4324d911e93ae281,0.0534,0.0534,0,53,53,112,1,fivesix,,,,,,,,,,,,,,,,,,,,,,,,,,,,,,,,,,,,,,,,,,,,,,,,,,,,,,,,,,,,,,,,,,,,,,,,,,,,,,,,,,,,,,,,,,,,,,,,,,,,,,,,,,,,,,,,,,,,,,,,,,,,,,,,,,,,,,,,,
,,68346da60e4abaae6a369c02,2026-03-17_16h37.09.355,kallum_motion_pilot_GIST_update_2,2026.1.1,Win32,60.24096386,68346da60e4abaae6a369c02,69b95efdef24cd8a694e89ee,69b961ae4324d911e93ae281,0.0536,0.0536,0,54,54,90,1,sixfive,,,,,,,,,,,,,,,,,,,,,,,,,,,,,,,,,,,,,,,,,,,,,,,,,,,,,,,,,,,,,,,,,,,,,,,,,,,,,,,,,,,,,,,,,,,,,,,,,,,,,,,,,,,,,,,,,,,,,,,,,,,,,,,,,,,,,,,,,
,,68346da60e4abaae6a369c02,2026-03-17_16h37.09.355,kallum_motion_pilot_GIST_update_2,2026.1.1,Win32,60.24096386,68346da60e4abaae6a369c02,69b95efdef24cd8a694e89ee,69b961ae4324d911e93ae281,0.0538,0.0538,0,55,55,59,1,twofour,,,,,,,,,,,,,,,,,,,,,,,,,,,,,,,,,,,,,,,,,,,,,,,,,,,,,,,,,,,,,,,,,,,,,,,,,,,,,,,,,,,,,,,,,,,,,,,,,,,,,,,,,,,,,,,,,,,,,,,,,,,,,,,,,,,,,,,,,
,,68346da60e4abaae6a369c02,2026-03-17_16h37.09.355,kallum_motion_pilot_GIST_update_2,2026.1.1,Win32,60.24096386,68346da60e4abaae6a369c02,69b95efdef24cd8a694e89ee,69b961ae4324d911e93ae281,0.054,0.0541,0,56,56,81,1,fiveseven,,,,,,,,,,,,,,,,,,,,,,,,,,,,,,,,,,,,,,,,,,,,,,,,,,,,,,,,,,,,,,,,,,,,,,,,,,,,,,,,,,,,,,,,,,,,,,,,,,,,,,,,,,,,,,,,,,,,,,,,,,,,,,,,,,,,,,,,,
,,68346da60e4abaae6a369c02,2026-03-17_16h37.09.355,kallum_motion_pilot_GIST_update_2,2026.1.1,Win32,60.24096386,68346da60e4abaae6a369c02,69b95efdef24cd8a694e89ee,69b961ae4324d911e93ae281,0.0546,0.0546,0,57,57,44,1,threeone,,,,,,,,,,,,,,,,,,,,,,,,,,,,,,,,,,,,,,,,,,,,,,,,,,,,,,,,,,,,,,,,,,,,,,,,,,,,,,,,,,,,,,,,,,,,,,,,,,,,,,,,,,,,,,,,,,,,,,,,,,,,,,,,,,,,,,,,,
,,68346da60e4abaae6a369c02,2026-03-17_16h37.09.355,kallum_motion_pilot_GIST_update_2,2026.1.1,Win32,60.24096386,68346da60e4abaae6a369c02,69b95efdef24cd8a694e89ee,69b961ae4324d911e93ae281,0.0549,0.055,0,58,58,77,1,threefour,,,,,,,,,,,,,,,,,,,,,,,,,,,,,,,,,,,,,,,,,,,,,,,,,,,,,,,,,,,,,,,,,,,,,,,,,,,,,,,,,,,,,,,,,,,,,,,,,,,,,,,,,,,,,,,,,,,,,,,,,,,,,,,,,,,,,,,,,
,,68346da60e4abaae6a369c02,2026-03-17_16h37.09.355,kallum_motion_pilot_GIST_update_2,2026.1.1,Win32,60.24096386,68346da60e4abaae6a369c02,69b95efdef24cd8a694e89ee,69b961ae4324d911e93ae281,0.0552,0.0552,0,59,59,160,1,fivesix,,,,,,,,,,,,,,,,,,,,,,,,,,,,,,,,,,,,,,,,,,,,,,,,,,,,,,,,,,,,,,,,,,,,,,,,,,,,,,,,,,,,,,,,,,,,,,,,,,,,,,,,,,,,,,,,,,,,,,,,,,,,,,,,,,,,,,,,,
,,68346da60e4abaae6a369c02,2026-03-17_16h37.09.355,kallum_motion_pilot_GIST_update_2,2026.1.1,Win32,60.24096386,68346da60e4abaae6a369c02,69b95efdef24cd8a694e89ee,69b961ae4324d911e93ae281,0.0554,0.0554,0,60,60,134,1,eightsix,,,,,,,,,,,,,,,,,,,,,,,,,,,,,,,,,,,,,,,,,,,,,,,,,,,,,,,,,,,,,,,,,,,,,,,,,,,,,,,,,,,,,,,,,,,,,,,,,,,,,,,,,,,,,,,,,,,,,,,,,,,,,,,,,,,,,,,,,
,,68346da60e4abaae6a369c02,2026-03-17_16h37.09.355,kallum_motion_pilot_GIST_update_2,2026.1.1,Win32,60.24096386,68346da60e4abaae6a369c02,69b95efdef24cd8a694e89ee,69b961ae4324d911e93ae281,0.0556,0.0556,0,61,61,14,1,fourtwo,,,,,,,,,,,,,,,,,,,,,,,,,,,,,,,,,,,,,,,,,,,,,,,,,,,,,,,,,,,,,,,,,,,,,,,,,,,,,,,,,,,,,,,,,,,,,,,,,,,,,,,,,,,,,,,,,,,,,,,,,,,,,,,,,,,,,,,,,
,,68346da60e4abaae6a369c02,2026-03-17_16h37.09.355,kallum_motion_pilot_GIST_update_2,2026.1.1,Win32,60.24096386,68346da60e4abaae6a369c02,69b95efdef24cd8a694e89ee,69b961ae4324d911e93ae281,0.0559,0.0559,0,62,62,26,1,twoone,,,,,,,,,,,,,,,,,,,,,,,,,,,,,,,,,,,,,,,,,,,,,,,,,,,,,,,,,,,,,,,,,,,,,,,,,,,,,,,,,,,,,,,,,,,,,,,,,,,,,,,,,,,,,,,,,,,,,,,,,,,,,,,,,,,,,,,,,
,,68346da60e4abaae6a369c02,2026-03-17_16h37.09.355,kallum_motion_pilot_GIST_update_2,2026.1.1,Win32,60.24096386,68346da60e4abaae6a369c02,69b95efdef24cd8a694e89ee,69b961ae4324d911e93ae281,0.0561,0.0561,0,63,63,125,1,seveneight,,,,,,,,,,,,,,,,,,,,,,,,,,,,,,,,,,,,,,,,,,,,,,,,,,,,,,,,,,,,,,,,,,,,,,,,,,,,,,,,,,,,,,,,,,,,,,,,,,,,,,,,,,,,,,,,,,,,,,,,,,,,,,,,,,,,,,,,,
,,68346da60e4abaae6a369c02,2026-03-17_16h37.09.355,kallum_motion_pilot_GIST_update_2,2026.1.1,Win32,60.24096386,68346da60e4abaae6a369c02,69b95efdef24cd8a694e89ee,69b961ae4324d911e93ae281,0.0567,0.0567,0,64,64,158,1,eightsix,,,,,,,,,,,,,,,,,,,,,,,,,,,,,,,,,,,,,,,,,,,,,,,,,,,,,,,,,,,,,,,,,,,,,,,,,,,,,,,,,,,,,,,,,,,,,,,,,,,,,,,,,,,,,,,,,,,,,,,,,,,,,,,,,,,,,,,,,
,,68346da60e4abaae6a369c02,2026-03-17_16h37.09.355,kallum_motion_pilot_GIST_update_2,2026.1.1,Win32,60.24096386,68346da60e4abaae6a369c02,69b95efdef24cd8a694e89ee,69b961ae4324d911e93ae281,0.0569,0.057,0,65,65,96,1,fivesix,,,,,,,,,,,,,,,,,,,,,,,,,,,,,,,,,,,,,,,,,,,,,,,,,,,,,,,,,,,,,,,,,,,,,,,,,,,,,,,,,,,,,,,,,,,,,,,,,,,,,,,,,,,,,,,,,,,,,,,,,,,,,,,,,,,,,,,,,
,,68346da60e4abaae6a369c02,2026-03-17_16h37.09.355,kallum_motion_pilot_GIST_update_2,2026.1.1,Win32,60.24096386,68346da60e4abaae6a369c02,69b95efdef24cd8a694e89ee,69b961ae4324d911e93ae281,0.0574,0.0576,0,66,66,102,1,eightsix,,,,,,,,,,,,,,,,,,,,,,,,,,,,,,,,,,,,,,,,,,,,,,,,,,,,,,,,,,,,,,,,,,,,,,,,,,,,,,,,,,,,,,,,,,,,,,,,,,,,,,,,,,,,,,,,,,,,,,,,,,,,,,,,,,,,,,,,,
,,68346da60e4abaae6a369c02,2026-03-17_16h37.09.355,kallum_motion_pilot_GIST_update_2,2026.1.1,Win32,60.24096386,68346da60e4abaae6a369c02,69b95efdef24cd8a694e89ee,69b961ae4324d911e93ae281,0.0581,0.0581,0,67,67,33,1,onethree,,,,,,,,,,,,,,,,,,,,,,,,,,,,,,,,,,,,,,,,,,,,,,,,,,,,,,,,,,,,,,,,,,,,,,,,,,,,,,,,,,,,,,,,,,,,,,,,,,,,,,,,,,,,,,,,,,,,,,,,,,,,,,,,,,,,,,,,,
,,68346da60e4abaae6a369c02,2026-03-17_16h37.09.355,kallum_motion_pilot_GIST_update_2,2026.1.1,Win32,60.24096386,68346da60e4abaae6a369c02,69b95efdef24cd8a694e89ee,69b961ae4324d911e93ae281,0.0583,0.0583,0,68,68,54,1,fourtwo,,,,,,,,,,,,,,,,,,,,,,,,,,,,,,,,,,,,,,,,,,,,,,,,,,,,,,,,,,,,,,,,,,,,,,,,,,,,,,,,,,,,,,,,,,,,,,,,,,,,,,,,,,,,,,,,,,,,,,,,,,,,,,,,,,,,,,,,,
,,68346da60e4abaae6a369c02,2026-03-17_16h37.09.355,kallum_motion_pilot_GIST_update_2,2026.1.1,Win32,60.24096386,68346da60e4abaae6a369c02,69b95efdef24cd8a694e89ee,69b961ae4324d911e93ae281,0.0586,0.0586,0,69,69,9,1,onethree,,,,,,,,,,,,,,,,,,,,,,,,,,,,,,,,,,,,,,,,,,,,,,,,,,,,,,,,,,,,,,,,,,,,,,,,,,,,,,,,,,,,,,,,,,,,,,,,,,,,,,,,,,,,,,,,,,,,,,,,,,,,,,,,,,,,,,,,,
,,68346da60e4abaae6a369c02,2026-03-17_16h37.09.355,kallum_motion_pilot_GIST_update_2,2026.1.1,Win32,60.24096386,68346da60e4abaae6a369c02,69b95efdef24cd8a694e89ee,69b961ae4324d911e93ae281,0.0589,0.0589,0,70,70,86,1,eightsix,,,,,,,,,,,,,,,,,,,,,,,,,,,,,,,,,,,,,,,,,,,,,,,,,,,,,,,,,,,,,,,,,,,,,,,,,,,,,,,,,,,,,,,,,,,,,,,,,,,,,,,,,,,,,,,,,,,,,,,,,,,,,,,,,,,,,,,,,
,,68346da60e4abaae6a369c02,2026-03-17_16h37.09.355,kallum_motion_pilot_GIST_update_2,2026.1.1,Win32,60.24096386,68346da60e4abaae6a369c02,69b95efdef24cd8a694e89ee,69b961ae4324d911e93ae281,0.0591,0.0591,0,71,71,31,1,fourthree,,,,,,,,,,,,,,,,,,,,,,,,,,,,,,,,,,,,,,,,,,,,,,,,,,,,,,,,,,,,,,,,,,,,,,,,,,,,,,,,,,,,,,,,,,,,,,,,,,,,,,,,,,,,,,,,,,,,,,,,,,,,,,,,,,,,,,,,,
,,68346da60e4abaae6a369c02,2026-03-17_16h37.09.355,kallum_motion_pilot_GIST_update_2,2026.1.1,Win32,60.24096386,68346da60e4abaae6a369c02,69b95efdef24cd8a694e89ee,69b961ae4324d911e93ae281,0.0593,0.0595,0,72,72,15,1,fourthree,,,,,,,,,,,,,,,,,,,,,,,,,,,,,,,,,,,,,,,,,,,,,,,,,,,,,,,,,,,,,,,,,,,,,,,,,,,,,,,,,,,,,,,,,,,,,,,,,,,,,,,,,,,,,,,,,,,,,,,,,,,,,,,,,,,,,,,,,
,,68346da60e4abaae6a369c02,2026-03-17_16h37.09.355,kallum_motion_pilot_GIST_update_2,2026.1.1,Win32,60.24096386,68346da60e4abaae6a369c02,69b95efdef24cd8a694e89ee,69b961ae4324d911e93ae281,0.06,0.06,0,73,73,122,1,sixfive,,,,,,,,,,,,,,,,,,,,,,,,,,,,,,,,,,,,,,,,,,,,,,,,,,,,,,,,,,,,,,,,,,,,,,,,,,,,,,,,,,,,,,,,,,,,,,,,,,,,,,,,,,,,,,,,,,,,,,,,,,,,,,,,,,,,,,,,,
,,68346da60e4abaae6a369c02,2026-03-17_16h37.09.355,kallum_motion_pilot_GIST_update_2,2026.1.1,Win32,60.24096386,68346da60e4abaae6a369c02,69b95efdef24cd8a694e89ee,69b961ae4324d911e93ae281,0.0603,0.0603,0,74,74,63,1,fourthree,,,,,,,,,,,,,,,,,,,,,,,,,,,,,,,,,,,,,,,,,,,,,,,,,,,,,,,,,,,,,,,,,,,,,,,,,,,,,,,,,,,,,,,,,,,,,,,,,,,,,,,,,,,,,,,,,,,,,,,,,,,,,,,,,,,,,,,,,
,,68346da60e4abaae6a369c02,2026-03-17_16h37.09.355,kallum_motion_pilot_GIST_update_2,2026.1.1,Win32,60.24096386,68346da60e4abaae6a369c02,69b95efdef24cd8a694e89ee,69b961ae4324d911e93ae281,0.0604,0.0604,0,75,75,113,1,fiveseven,,,,,,,,,,,,,,,,,,,,,,,,,,,,,,,,,,,,,,,,,,,,,,,,,,,,,,,,,,,,,,,,,,,,,,,,,,,,,,,,,,,,,,,,,,,,,,,,,,,,,,,,,,,,,,,,,,,,,,,,,,,,,,,,,,,,,,,,,
,,68346da60e4abaae6a369c02,2026-03-17_16h37.09.355,kallum_motion_pilot_GIST_update_2,2026.1.1,Win32,60.24096386,68346da60e4abaae6a369c02,69b95efdef24cd8a694e89ee,69b961ae4324d911e93ae281,0.0607,0.0607,0,76,76,35,1,twofour,,,,,,,,,,,,,,,,,,,,,,,,,,,,,,,,,,,,,,,,,,,,,,,,,,,,,,,,,,,,,,,,,,,,,,,,,,,,,,,,,,,,,,,,,,,,,,,,,,,,,,,,,,,,,,,,,,,,,,,,,,,,,,,,,,,,,,,,,
,,68346da60e4abaae6a369c02,2026-03-17_16h37.09.355,kallum_motion_pilot_GIST_update_2,2026.1.1,Win32,60.24096386,68346da60e4abaae6a369c02,69b95efdef24cd8a694e89ee,69b961ae4324d911e93ae281,0.0609,0.0609,0,77,77,7,1,fourthree,,,,,,,,,,,,,,,,,,,,,,,,,,,,,,,,,,,,,,,,,,,,,,,,,,,,,,,,,,,,,,,,,,,,,,,,,,,,,,,,,,,,,,,,,,,,,,,,,,,,,,,,,,,,,,,,,,,,,,,,,,,,,,,,,,,,,,,,,
,,68346da60e4abaae6a369c02,2026-03-17_16h37.09.355,kallum_motion_pilot_GIST_update_2,2026.1.1,Win32,60.24096386,68346da60e4abaae6a369c02,69b95efdef24cd8a694e89ee,69b961ae4324d911e93ae281,0.0611,0.0611,0,78,78,32,1,onetwo,,,,,,,,,,,,,,,,,,,,,,,,,,,,,,,,,,,,,,,,,,,,,,,,,,,,,,,,,,,,,,,,,,,,,,,,,,,,,,,,,,,,,,,,,,,,,,,,,,,,,,,,,,,,,,,,,,,,,,,,,,,,,,,,,,,,,,,,,
,,68346da60e4abaae6a369c02,2026-03-17_16h37.09.355,kallum_motion_pilot_GIST_update_2,2026.1.1,Win32,60.24096386,68346da60e4abaae6a369c02,69b95efdef24cd8a694e89ee,69b961ae4324d911e93ae281,0.0614,0.0614,0,79,79,28,1,threeone,,,,,,,,,,,,,,,,,,,,,,,,,,,,,,,,,,,,,,,,,,,,,,,,,,,,,,,,,,,,,,,,,,,,,,,,,,,,,,,,,,,,,,,,,,,,,,,,,,,,,,,,,,,,,,,,,,,,,,,,,,,,,,,,,,,,,,,,,
,,68346da60e4abaae6a369c02,2026-03-17_16h37.09.355,kallum_motion_pilot_GIST_update_2,2026.1.1,Win32,60.24096386,68346da60e4abaae6a369c02,69b95efdef24cd8a694e89ee,69b961ae4324d911e93ae281,0.0616,0.0616,0,80,80,136,1,fivesix,,,,,,,,,,,,,,,,,,,,,,,,,,,,,,,,,,,,,,,,,,,,,,,,,,,,,,,,,,,,,,,,,,,,,,,,,,,,,,,,,,,,,,,,,,,,,,,,,,,,,,,,,,,,,,,,,,,,,,,,,,,,,,,,,,,,,,,,,
,,68346da60e4abaae6a369c02,2026-03-17_16h37.09.355,kallum_motion_pilot_GIST_update_2,2026.1.1,Win32,60.24096386,68346da60e4abaae6a369c02,69b95efdef24cd8a694e89ee,69b961ae4324d911e93ae281,0.0617,0.0618,0,81,81,148,1,sevenfive,,,,,,,,,,,,,,,,,,,,,,,,,,,,,,,,,,,,,,,,,,,,,,,,,,,,,,,,,,,,,,,,,,,,,,,,,,,,,,,,,,,,,,,,,,,,,,,,,,,,,,,,,,,,,,,,,,,,,,,,,,,,,,,,,,,,,,,,,
,,68346da60e4abaae6a369c02,2026-03-17_16h37.09.355,kallum_motion_pilot_GIST_update_2,2026.1.1,Win32,60.24096386,68346da60e4abaae6a369c02,69b95efdef24cd8a694e89ee,69b961ae4324d911e93ae281,0.062,0.062,0,82,82,60,1,threeone,,,,,,,,,,,,,,,,,,,,,,,,,,,,,,,,,,,,,,,,,,,,,,,,,,,,,,,,,,,,,,,,,,,,,,,,,,,,,,,,,,,,,,,,,,,,,,,,,,,,,,,,,,,,,,,,,,,,,,,,,,,,,,,,,,,,,,,,,
,,68346da60e4abaae6a369c02,2026-03-17_16h37.09.355,kallum_motion_pilot_GIST_update_2,2026.1.1,Win32,60.24096386,68346da60e4abaae6a369c02,69b95efdef24cd8a694e89ee,69b961ae4324d911e93ae281,0.0623,0.0623,0,83,83,62,1,fourtwo,,,,,,,,,,,,,,,,,,,,,,,,,,,,,,,,,,,,,,,,,,,,,,,,,,,,,,,,,,,,,,,,,,,,,,,,,,,,,,,,,,,,,,,,,,,,,,,,,,,,,,,,,,,,,,,,,,,,,,,,,,,,,,,,,,,,,,,,,
,,68346da60e4abaae6a369c02,2026-03-17_16h37.09.355,kallum_motion_pilot_GIST_update_2,2026.1.1,Win32,60.24096386,68346da60e4abaae6a369c02,69b95efdef24cd8a694e89ee,69b961ae4324d911e93ae281,0.0625,0.0625,0,84,84,114,1,sixfive,,,,,,,,,,,,,,,,,,,,,,,,,,,,,,,,,,,,,,,,,,,,,,,,,,,,,,,,,,,,,,,,,,,,,,,,,,,,,,,,,,,,,,,,,,,,,,,,,,,,,,,,,,,,,,,,,,,,,,,,,,,,,,,,,,,,,,,,,
,,68346da60e4abaae6a369c02,2026-03-17_16h37.09.355,kallum_motion_pilot_GIST_update_2,2026.1.1,Win32,60.24096386,68346da60e4abaae6a369c02,69b95efdef24cd8a694e89ee,69b961ae4324d911e93ae281,0.0628,0.0628,0,85,85,161,1,fiveseven,,,,,,,,,,,,,,,,,,,,,,,,,,,,,,,,,,,,,,,,,,,,,,,,,,,,,,,,,,,,,,,,,,,,,,,,,,,,,,,,,,,,,,,,,,,,,,,,,,,,,,,,,,,,,,,,,,,,,,,,,,,,,,,,,,,,,,,,,
,,68346da60e4abaae6a369c02,2026-03-17_16h37.09.355,kallum_motion_pilot_GIST_update_2,2026.1.1,Win32,60.24096386,68346da60e4abaae6a369c02,69b95efdef24cd8a694e89ee,69b961ae4324d911e93ae281,0.0629,0.0629,0,86,86,93,1,seveneight,,,,,,,,,,,,,,,,,,,,,,,,,,,,,,,,,,,,,,,,,,,,,,,,,,,,,,,,,,,,,,,,,,,,,,,,,,,,,,,,,,,,,,,,,,,,,,,,,,,,,,,,,,,,,,,,,,,,,,,,,,,,,,,,,,,,,,,,,
,,68346da60e4abaae6a369c02,2026-03-17_16h37.09.355,kallum_motion_pilot_GIST_update_2,2026.1.1,Win32,60.24096386,68346da60e4abaae6a369c02,69b95efdef24cd8a694e89ee,69b961ae4324d911e93ae281,0.0632,0.0632,0,87,87,118,1,eightsix,,,,,,,,,,,,,,,,,,,,,,,,,,,,,,,,,,,,,,,,,,,,,,,,,,,,,,,,,,,,,,,,,,,,,,,,,,,,,,,,,,,,,,,,,,,,,,,,,,,,,,,,,,,,,,,,,,,,,,,,,,,,,,,,,,,,,,,,,
,,68346da60e4abaae6a369c02,2026-03-17_16h37.09.355,kallum_motion_pilot_GIST_update_2,2026.1.1,Win32,60.24096386,68346da60e4abaae6a369c02,69b95efdef24cd8a694e89ee,69b961ae4324d911e93ae281,0.0634,0.0634,0,88,88,82,1,sixfive,,,,,,,,,,,,,,,,,,,,,,,,,,,,,,,,,,,,,,,,,,,,,,,,,,,,,,,,,,,,,,,,,,,,,,,,,,,,,,,,,,,,,,,,,,,,,,,,,,,,,,,,,,,,,,,,,,,,,,,,,,,,,,,,,,,,,,,,,
,,68346da60e4abaae6a369c02,2026-03-17_16h37.09.355,kallum_motion_pilot_GIST_update_2,2026.1.1,Win32,60.24096386,68346da60e4abaae6a369c02,69b95efdef24cd8a694e89ee,69b961ae4324d911e93ae281,0.0638,0.0638,0,89,89,38,1,fourtwo,,,,,,,,,,,,,,,,,,,,,,,,,,,,,,,,,,,,,,,,,,,,,,,,,,,,,,,,,,,,,,,,,,,,,,,,,,,,,,,,,,,,,,,,,,,,,,,,,,,,,,,,,,,,,,,,,,,,,,,,,,,,,,,,,,,,,,,,,
,,68346da60e4abaae6a369c02,2026-03-17_16h37.09.355,kallum_motion_pilot_GIST_update_2,2026.1.1,Win32,60.24096386,68346da60e4abaae6a369c02,69b95efdef24cd8a694e89ee,69b961ae4324d911e93ae281,0.0639,0.064,0,90,90,41,1,onethree,,,,,,,,,,,,,,,,,,,,,,,,,,,,,,,,,,,,,,,,,,,,,,,,,,,,,,,,,,,,,,,,,,,,,,,,,,,,,,,,,,,,,,,,,,,,,,,,,,,,,,,,,,,,,,,,,,,,,,,,,,,,,,,,,,,,,,,,,
,,68346da60e4abaae6a369c02,2026-03-17_16h37.09.355,kallum_motion_pilot_GIST_update_2,2026.1.1,Win32,60.24096386,68346da60e4abaae6a369c02,69b95efdef24cd8a694e89ee,69b961ae4324d911e93ae281,0.0641,0.0641,0,91,91,18,1,twoone,,,,,,,,,,,,,,,,,,,,,,,,,,,,,,,,,,,,,,,,,,,,,,,,,,,,,,,,,,,,,,,,,,,,,,,,,,,,,,,,,,,,,,,,,,,,,,,,,,,,,,,,,,,,,,,,,,,,,,,,,,,,,,,,,,,,,,,,,
,,68346da60e4abaae6a369c02,2026-03-17_16h37.09.355,kallum_motion_pilot_GIST_update_2,2026.1.1,Win32,60.24096386,68346da60e4abaae6a369c02,69b95efdef24cd8a694e89ee,69b961ae4324d911e93ae281,0.0643,0.0643,0,92,92,1,1,onethree,,,,,,,,,,,,,,,,,,,,,,,,,,,,,,,,,,,,,,,,,,,,,,,,,,,,,,,,,,,,,,,,,,,,,,,,,,,,,,,,,,,,,,,,,,,,,,,,,,,,,,,,,,,,,,,,,,,,,,,,,,,,,,,,,,,,,,,,,
,,68346da60e4abaae6a369c02,2026-03-17_16h37.09.355,kallum_motion_pilot_GIST_update_2,2026.1.1,Win32,60.24096386,68346da60e4abaae6a369c02,69b95efdef24cd8a694e89ee,69b961ae4324d911e93ae281,0.0646,0.0646,0,93,93,47,1,fourthree,,,,,,,,,,,,,,,,,,,,,,,,,,,,,,,,,,,,,,,,,,,,,,,,,,,,,,,,,,,,,,,,,,,,,,,,,,,,,,,,,,,,,,,,,,,,,,,,,,,,,,,,,,,,,,,,,,,,,,,,,,,,,,,,,,,,,,,,,
,,68346da60e4abaae6a369c02,2026-03-17_16h37.09.355,kallum_motion_pilot_GIST_update_2,2026.1.1,Win32,60.24096386,68346da60e4abaae6a369c02,69b95efdef24cd8a694e89ee,69b961ae4324d911e93ae281,0.0647,0.0647,0,94,94,12,1,threeone,,,,,,,,,,,,,,,,,,,,,,,,,,,,,,,,,,,,,,,,,,,,,,,,,,,,,,,,,,,,,,,,,,,,,,,,,,,,,,,,,,,,,,,,,,,,,,,,,,,,,,,,,,,,,,,,,,,,,,,,,,,,,,,,,,,,,,,,,
,,68346da60e4abaae6a369c02,2026-03-17_16h37.09.355,kallum_motion_pilot_GIST_update_2,2026.1.1,Win32,60.24096386,68346da60e4abaae6a369c02,69b95efdef24cd8a694e89ee,69b961ae4324d911e93ae281,0.0649,0.0649,0,95,95,120,1,fivesix,,,,,,,,,,,,,,,,,,,,,,,,,,,,,,,,,,,,,,,,,,,,,,,,,,,,,,,,,,,,,,,,,,,,,,,,,,,,,,,,,,,,,,,,,,,,,,,,,,,,,,,,,,,,,,,,,,,,,,,,,,,,,,,,,,,,,,,,,
,,68346da60e4abaae6a369c02,2026-03-17_16h37.09.355,kallum_motion_pilot_GIST_update_2,2026.1.1,Win32,60.24096386,68346da60e4abaae6a369c02,69b95efdef24cd8a694e89ee,69b961ae4324d911e93ae281,0.0652,0.0652,0,96,96,97,1,fiveseven,,,,,,,,,,,,,,,,,,,,,,,,,,,,,,,,,,,,,,,,,,,,,,,,,,,,,,,,,,,,,,,,,,,,,,,,,,,,,,,,,,,,,,,,,,,,,,,,,,,,,,,,,,,,,,,,,,,,,,,,,,,,,,,,,,,,,,,,,
,,68346da60e4abaae6a369c02,2026-03-17_16h37.09.355,kallum_motion_pilot_GIST_update_2,2026.1.1,Win32,60.24096386,68346da60e4abaae6a369c02,69b95efdef24cd8a694e89ee,69b961ae4324d911e93ae281,0.0654,0.0654,0,97,97,91,1,sixeight,,,,,,,,,,,,,,,,,,,,,,,,,,,,,,,,,,,,,,,,,,,,,,,,,,,,,,,,,,,,,,,,,,,,,,,,,,,,,,,,,,,,,,,,,,,,,,,,,,,,,,,,,,,,,,,,,,,,,,,,,,,,,,,,,,,,,,,,,
,,68346da60e4abaae6a369c02,2026-03-17_16h37.09.355,kallum_motion_pilot_GIST_update_2,2026.1.1,Win32,60.24096386,68346da60e4abaae6a369c02,69b95efdef24cd8a694e89ee,69b961ae4324d911e93ae281,0.0656,0.0656,0,98,98,36,1,threeone,,,,,,,,,,,,,,,,,,,,,,,,,,,,,,,,,,,,,,,,,,,,,,,,,,,,,,,,,,,,,,,,,,,,,,,,,,,,,,,,,,,,,,,,,,,,,,,,,,,,,,,,,,,,,,,,,,,,,,,,,,,,,,,,,,,,,,,,,
,,68346da60e4abaae6a369c02,2026-03-17_16h37.09.355,kallum_motion_pilot_GIST_update_2,2026.1.1,Win32,60.24096386,68346da60e4abaae6a369c02,69b95efdef24cd8a694e89ee,69b961ae4324d911e93ae281,0.0659,0.0659,0,99,99,55,1,fourthree,,,,,,,,,,,,,,,,,,,,,,,,,,,,,,,,,,,,,,,,,,,,,,,,,,,,,,,,,,,,,,,,,,,,,,,,,,,,,,,,,,,,,,,,,,,,,,,,,,,,,,,,,,,,,,,,,,,,,,,,,,,,,,,,,,,,,,,,,
,,68346da60e4abaae6a369c02,2026-03-17_16h37.09.355,kallum_motion_pilot_GIST_update_2,2026.1.1,Win32,60.24096386,68346da60e4abaae6a369c02,69b95efdef24cd8a694e89ee,69b961ae4324d911e93ae281,0.0662,0.0662,0,100,100,49,1,onethree,,,,,,,,,,,,,,,,,,,,,,,,,,,,,,,,,,,,,,,,,,,,,,,,,,,,,,,,,,,,,,,,,,,,,,,,,,,,,,,,,,,,,,,,,,,,,,,,,,,,,,,,,,,,,,,,,,,,,,,,,,,,,,,,,,,,,,,,,
,,68346da60e4abaae6a369c02,2026-03-17_16h37.09.355,kallum_motion_pilot_GIST_update_2,2026.1.1,Win32,60.24096386,68346da60e4abaae6a369c02,69b95efdef24cd8a694e89ee,69b961ae4324d911e93ae281,0.0669,0.0669,0,101,101,6,1,fourtwo,,,,,,,,,,,,,,,,,,,,,,,,,,,,,,,,,,,,,,,,,,,,,,,,,,,,,,,,,,,,,,,,,,,,,,,,,,,,,,,,,,,,,,,,,,,,,,,,,,,,,,,,,,,,,,,,,,,,,,,,,,,,,,,,,,,,,,,,,
,,68346da60e4abaae6a369c02,2026-03-17_16h37.09.355,kallum_motion_pilot_GIST_update_2,2026.1.1,Win32,60.24096386,68346da60e4abaae6a369c02,69b95efdef24cd8a694e89ee,69b961ae4324d911e93ae281,0.0674,0.0674,0,102,102,11,1,twofour,,,,,,,,,,,,,,,,,,,,,,,,,,,,,,,,,,,,,,,,,,,,,,,,,,,,,,,,,,,,,,,,,,,,,,,,,,,,,,,,,,,,,,,,,,,,,,,,,,,,,,,,,,,,,,,,,,,,,,,,,,,,,,,,,,,,,,,,,
,,68346da60e4abaae6a369c02,2026-03-17_16h37.09.355,kallum_motion_pilot_GIST_update_2,2026.1.1,Win32,60.24096386,68346da60e4abaae6a369c02,69b95efdef24cd8a694e89ee,69b961ae4324d911e93ae281,0.0677,0.0677,0,103,103,30,1,fourtwo,,,,,,,,,,,,,,,,,,,,,,,,,,,,,,,,,,,,,,,,,,,,,,,,,,,,,,,,,,,,,,,,,,,,,,,,,,,,,,,,,,,,,,,,,,,,,,,,,,,,,,,,,,,,,,,,,,,,,,,,,,,,,,,,,,,,,,,,,
,,68346da60e4abaae6a369c02,2026-03-17_16h37.09.355,kallum_motion_pilot_GIST_update_2,2026.1.1,Win32,60.24096386,68346da60e4abaae6a369c02,69b95efdef24cd8a694e89ee,69b961ae4324d911e93ae281,0.068,0.068,0,104,104,135,1,eightseven,,,,,,,,,,,,,,,,,,,,,,,,,,,,,,,,,,,,,,,,,,,,,,,,,,,,,,,,,,,,,,,,,,,,,,,,,,,,,,,,,,,,,,,,,,,,,,,,,,,,,,,,,,,,,,,,,,,,,,,,,,,,,,,,,,,,,,,,,
,,68346da60e4abaae6a369c02,2026-03-17_16h37.09.355,kallum_motion_pilot_GIST_update_2,2026.1.1,Win32,60.24096386,68346da60e4abaae6a369c02,69b95efdef24cd8a694e89ee,69b961ae4324d911e93ae281,0.0683,0.0683,0,105,105,89,1,fiveseven,,,,,,,,,,,,,,,,,,,,,,,,,,,,,,,,,,,,,,,,,,,,,,,,,,,,,,,,,,,,,,,,,,,,,,,,,,,,,,,,,,,,,,,,,,,,,,,,,,,,,,,,,,,,,,,,,,,,,,,,,,,,,,,,,,,,,,,,,
,,68346da60e4abaae6a369c02,2026-03-17_16h37.09.355,kallum_motion_pilot_GIST_update_2,2026.1.1,Win32,60.24096386,68346da60e4abaae6a369c02,69b95efdef24cd8a694e89ee,69b961ae4324d911e93ae281,0.0687,0.0688,0,106,106,142,1,eightsix,,,,,,,,,,,,,,,,,,,,,,,,,,,,,,,,,,,,,,,,,,,,,,,,,,,,,,,,,,,,,,,,,,,,,,,,,,,,,,,,,,,,,,,,,,,,,,,,,,,,,,,,,,,,,,,,,,,,,,,,,,,,,,,,,,,,,,,,,
,,68346da60e4abaae6a369c02,2026-03-17_16h37.09.355,kallum_motion_pilot_GIST_update_2,2026.1.1,Win32,60.24096386,68346da60e4abaae6a369c02,69b95efdef24cd8a694e89ee,69b961ae4324d911e93ae281,0.0693,0.0694,0,107,107,71,1,fourthree,,,,,,,,,,,,,,,,,,,,,,,,,,,,,,,,,,,,,,,,,,,,,,,,,,,,,,,,,,,,,,,,,,,,,,,,,,,,,,,,,,,,,,,,,,,,,,,,,,,,,,,,,,,,,,,,,,,,,,,,,,,,,,,,,,,,,,,,,
,,68346da60e4abaae6a369c02,2026-03-17_16h37.09.355,kallum_motion_pilot_GIST_update_2,2026.1.1,Win32,60.24096386,68346da60e4abaae6a369c02,69b95efdef24cd8a694e89ee,69b961ae4324d911e93ae281,0.0697,0.0697,0,108,108,75,1,twofour,,,,,,,,,,,,,,,,,,,,,,,,,,,,,,,,,,,,,,,,,,,,,,,,,,,,,,,,,,,,,,,,,,,,,,,,,,,,,,,,,,,,,,,,,,,,,,,,,,,,,,,,,,,,,,,,,,,,,,,,,,,,,,,,,,,,,,,,,
,,68346da60e4abaae6a369c02,2026-03-17_16h37.09.355,kallum_motion_pilot_GIST_update_2,2026.1.1,Win32,60.24096386,68346da60e4abaae6a369c02,69b95efdef24cd8a694e89ee,69b961ae4324d911e93ae281,0.0701,0.0701,0,109,109,39,1,fourthree,,,,,,,,,,,,,,,,,,,,,,,,,,,,,,,,,,,,,,,,,,,,,,,,,,,,,,,,,,,,,,,,,,,,,,,,,,,,,,,,,,,,,,,,,,,,,,,,,,,,,,,,,,,,,,,,,,,,,,,,,,,,,,,,,,,,,,,,,
,,68346da60e4abaae6a369c02,2026-03-17_16h37.09.355,kallum_motion_pilot_GIST_update_2,2026.1.1,Win32,60.24096386,68346da60e4abaae6a369c02,69b95efdef24cd8a694e89ee,69b961ae4324d911e93ae281,0.0702,0.0702,0,110,110,72,1,onetwo,,,,,,,,,,,,,,,,,,,,,,,,,,,,,,,,,,,,,,,,,,,,,,,,,,,,,,,,,,,,,,,,,,,,,,,,,,,,,,,,,,,,,,,,,,,,,,,,,,,,,,,,,,,,,,,,,,,,,,,,,,,,,,,,,,,,,,,,,
,,68346da60e4abaae6a369c02,2026-03-17_16h37.09.355,kallum_motion_pilot_GIST_update_2,2026.1.1,Win32,60.24096386,68346da60e4abaae6a369c02,69b95efdef24cd8a694e89ee,69b961ae4324d911e93ae281,0.071,0.0711,0,111,111,108,1,sevenfive,,,,,,,,,,,,,,,,,,,,,,,,,,,,,,,,,,,,,,,,,,,,,,,,,,,,,,,,,,,,,,,,,,,,,,,,,,,,,,,,,,,,,,,,,,,,,,,,,,,,,,,,,,,,,,,,,,,,,,,,,,,,,,,,,,,,,,,,,
,,68346da60e4abaae6a369c02,2026-03-17_16h37.09.355,kallum_motion_pilot_GIST_update_2,2026.1.1,Win32,60.24096386,68346da60e4abaae6a369c02,69b95efdef24cd8a694e89ee,69b961ae4324d911e93ae281,0.0714,0.0714,0,112,112,99,1,sixeight,,,,,,,,,,,,,,,,,,,,,,,,,,,,,,,,,,,,,,,,,,,,,,,,,,,,,,,,,,,,,,,,,,,,,,,,,,,,,,,,,,,,,,,,,,,,,,,,,,,,,,,,,,,,,,,,,,,,,,,,,,,,,,,,,,,,,,,,,
,,68346da60e4abaae6a369c02,2026-03-17_16h37.09.355,kallum_motion_pilot_GIST_update_2,2026.1.1,Win32,60.24096386,68346da60e4abaae6a369c02,69b95efdef24cd8a694e89ee,69b961ae4324d911e93ae281,0.0717,0.0717,0,113,113,57,1,onethree,,,,,,,,,,,,,,,,,,,,,,,,,,,,,,,,,,,,,,,,,,,,,,,,,,,,,,,,,,,,,,,,,,,,,,,,,,,,,,,,,,,,,,,,,,,,,,,,,,,,,,,,,,,,,,,,,,,,,,,,,,,,,,,,,,,,,,,,,
,,68346da60e4abaae6a369c02,2026-03-17_16h37.09.355,kallum_motion_pilot_GIST_update_2,2026.1.1,Win32,60.24096386,68346da60e4abaae6a369c02,69b95efdef24cd8a694e89ee,69b961ae4324d911e93ae281,0.0719,0.0719,0,114,114,16,1,onetwo,,,,,,,,,,,,,,,,,,,,,,,,,,,,,,,,,,,,,,,,,,,,,,,,,,,,,,,,,,,,,,,,,,,,,,,,,,,,,,,,,,,,,,,,,,,,,,,,,,,,,,,,,,,,,,,,,,,,,,,,,,,,,,,,,,,,,,,,,
,,68346da60e4abaae6a369c02,2026-03-17_16h37.09.355,kallum_motion_pilot_GIST_update_2,2026.1.1,Win32,60.24096386,68346da60e4abaae6a369c02,69b95efdef24cd8a694e89ee,69b961ae4324d911e93ae281,0.0722,0.0723,0,115,115,132,1,sevenfive,,,,,,,,,,,,,,,,,,,,,,,,,,,,,,,,,,,,,,,,,,,,,,,,,,,,,,,,,,,,,,,,,,,,,,,,,,,,,,,,,,,,,,,,,,,,,,,,,,,,,,,,,,,,,,,,,,,,,,,,,,,,,,,,,,,,,,,,,
,,68346da60e4abaae6a369c02,2026-03-17_16h37.09.355,kallum_motion_pilot_GIST_update_2,2026.1.1,Win32,60.24096386,68346da60e4abaae6a369c02,69b95efdef24cd8a694e89ee,69b961ae4324d911e93ae281,0.0725,0.0725,0,116,116,20,1,threeone,,,,,,,,,,,,,,,,,,,,,,,,,,,,,,,,,,,,,,,,,,,,,,,,,,,,,,,,,,,,,,,,,,,,,,,,,,,,,,,,,,,,,,,,,,,,,,,,,,,,,,,,,,,,,,,,,,,,,,,,,,,,,,,,,,,,,,,,,
,,68346da60e4abaae6a369c02,2026-03-17_16h37.09.355,kallum_motion_pilot_GIST_update_2,2026.1.1,Win32,60.24096386,68346da60e4abaae6a369c02,69b95efdef24cd8a694e89ee,69b961ae4324d911e93ae281,0.0729,0.0729,0,117,117,25,1,onethree,,,,,,,,,,,,,,,,,,,,,,,,,,,,,,,,,,,,,,,,,,,,,,,,,,,,,,,,,,,,,,,,,,,,,,,,,,,,,,,,,,,,,,,,,,,,,,,,,,,,,,,,,,,,,,,,,,,,,,,,,,,,,,,,,,,,,,,,,
,,68346da60e4abaae6a369c02,2026-03-17_16h37.09.355,kallum_motion_pilot_GIST_update_2,2026.1.1,Win32,60.24096386,68346da60e4abaae6a369c02,69b95efdef24cd8a694e89ee,69b961ae4324d911e93ae281,0.0736,0.0736,0,118,118,42,1,twoone,,,,,,,,,,,,,,,,,,,,,,,,,,,,,,,,,,,,,,,,,,,,,,,,,,,,,,,,,,,,,,,,,,,,,,,,,,,,,,,,,,,,,,,,,,,,,,,,,,,,,,,,,,,,,,,,,,,,,,,,,,,,,,,,,,,,,,,,,
,,68346da60e4abaae6a369c02,2026-03-17_16h37.09.355,kallum_motion_pilot_GIST_update_2,2026.1.1,Win32,60.24096386,68346da60e4abaae6a369c02,69b95efdef24cd8a694e89ee,69b961ae4324d911e93ae281,0.0739,0.0739,0,119,119,133,1,seveneight,,,,,,,,,,,,,,,,,,,,,,,,,,,,,,,,,,,,,,,,,,,,,,,,,,,,,,,,,,,,,,,,,,,,,,,,,,,,,,,,,,,,,,,,,,,,,,,,,,,,,,,,,,,,,,,,,,,,,,,,,,,,,,,,,,,,,,,,,
,,68346da60e4abaae6a369c02,2026-03-17_16h37.09.355,kallum_motion_pilot_GIST_update_2,2026.1.1,Win32,60.24096386,68346da60e4abaae6a369c02,69b95efdef24cd8a694e89ee,69b961ae4324d911e93ae281,0.0742,0.0742,0,120,120,67,1,twofour,,,,,,,,,,,,,,,,,,,,,,,,,,,,,,,,,,,,,,,,,,,,,,,,,,,,,,,,,,,,,,,,,,,,,,,,,,,,,,,,,,,,,,,,,,,,,,,,,,,,,,,,,,,,,,,,,,,,,,,,,,,,,,,,,,,,,,,,,
,,68346da60e4abaae6a369c02,2026-03-17_16h37.09.355,kallum_motion_pilot_GIST_update_2,2026.1.1,Win32,60.24096386,68346da60e4abaae6a369c02,69b95efdef24cd8a694e89ee,69b961ae4324d911e93ae281,0.0745,0.0745,0,121,121,119,1,eightseven,,,,,,,,,,,,,,,,,,,,,,,,,,,,,,,,,,,,,,,,,,,,,,,,,,,,,,,,,,,,,,,,,,,,,,,,,,,,,,,,,,,,,,,,,,,,,,,,,,,,,,,,,,,,,,,,,,,,,,,,,,,,,,,,,,,,,,,,,
,,68346da60e4abaae6a369c02,2026-03-17_16h37.09.355,kallum_motion_pilot_GIST_update_2,2026.1.1,Win32,60.24096386,68346da60e4abaae6a369c02,69b95efdef24cd8a694e89ee,69b961ae4324d911e93ae281,0.0748,0.0748,0,122,122,2,1,twoone,,,,,,,,,,,,,,,,,,,,,,,,,,,,,,,,,,,,,,,,,,,,,,,,,,,,,,,,,,,,,,,,,,,,,,,,,,,,,,,,,,,,,,,,,,,,,,,,,,,,,,,,,,,,,,,,,,,,,,,,,,,,,,,,,,,,,,,,,
,,68346da60e4abaae6a369c02,2026-03-17_16h37.09.355,kallum_motion_pilot_GIST_update_2,2026.1.1,Win32,60.24096386,68346da60e4abaae6a369c02,69b95efdef24cd8a694e89ee,69b961ae4324d911e93ae281,0.0751,0.0751,0,123,123,73,1,onethree,,,,,,,,,,,,,,,,,,,,,,,,,,,,,,,,,,,,,,,,,,,,,,,,,,,,,,,,,,,,,,,,,,,,,,,,,,,,,,,,,,,,,,,,,,,,,,,,,,,,,,,,,,,,,,,,,,,,,,,,,,,,,,,,,,,,,,,,,
,,68346da60e4abaae6a369c02,2026-03-17_16h37.09.355,kallum_motion_pilot_GIST_update_2,2026.1.1,Win32,60.24096386,68346da60e4abaae6a369c02,69b95efdef24cd8a694e89ee,69b961ae4324d911e93ae281,0.0754,0.0754,0,124,124,117,1,seveneight,,,,,,,,,,,,,,,,,,,,,,,,,,,,,,,,,,,,,,,,,,,,,,,,,,,,,,,,,,,,,,,,,,,,,,,,,,,,,,,,,,,,,,,,,,,,,,,,,,,,,,,,,,,,,,,,,,,,,,,,,,,,,,,,,,,,,,,,,
,,68346da60e4abaae6a369c02,2026-03-17_16h37.09.355,kallum_motion_pilot_GIST_update_2,2026.1.1,Win32,60.24096386,68346da60e4abaae6a369c02,69b95efdef24cd8a694e89ee,69b961ae4324d911e93ae281,0.0758,0.0758,0,125,125,95,1,eightseven,,,,,,,,,,,,,,,,,,,,,,,,,,,,,,,,,,,,,,,,,,,,,,,,,,,,,,,,,,,,,,,,,,,,,,,,,,,,,,,,,,,,,,,,,,,,,,,,,,,,,,,,,,,,,,,,,,,,,,,,,,,,,,,,,,,,,,,,,
,,68346da60e4abaae6a369c02,2026-03-17_16h37.09.355,kallum_motion_pilot_GIST_update_2,2026.1.1,Win32,60.24096386,68346da60e4abaae6a369c02,69b95efdef24cd8a694e89ee,69b961ae4324d911e93ae281,0.0761,0.0761,0,126,126,130,1,sixfive,,,,,,,,,,,,,,,,,,,,,,,,,,,,,,,,,,,,,,,,,,,,,,,,,,,,,,,,,,,,,,,,,,,,,,,,,,,,,,,,,,,,,,,,,,,,,,,,,,,,,,,,,,,,,,,,,,,,,,,,,,,,,,,,,,,,,,,,,
,,68346da60e4abaae6a369c02,2026-03-17_16h37.09.355,kallum_motion_pilot_GIST_update_2,2026.1.1,Win32,60.24096386,68346da60e4abaae6a369c02,69b95efdef24cd8a694e89ee,69b961ae4324d911e93ae281,0.0765,0.0766,0,127,127,150,1,eightsix,,,,,,,,,,,,,,,,,,,,,,,,,,,,,,,,,,,,,,,,,,,,,,,,,,,,,,,,,,,,,,,,,,,,,,,,,,,,,,,,,,,,,,,,,,,,,,,,,,,,,,,,,,,,,,,,,,,,,,,,,,,,,,,,,,,,,,,,,
,,68346da60e4abaae6a369c02,2026-03-17_16h37.09.355,kallum_motion_pilot_GIST_update_2,2026.1.1,Win32,60.24096386,68346da60e4abaae6a369c02,69b95efdef24cd8a694e89ee,69b961ae4324d911e93ae281,0.0769,0.0769,0,128,128,145,1,fiveseven,,,,,,,,,,,,,,,,,,,,,,,,,,,,,,,,,,,,,,,,,,,,,,,,,,,,,,,,,,,,,,,,,,,,,,,,,,,,,,,,,,,,,,,,,,,,,,,,,,,,,,,,,,,,,,,,,,,,,,,,,,,,,,,,,,,,,,,,,
,,68346da60e4abaae6a369c02,2026-03-17_16h37.09.355,kallum_motion_pilot_GIST_update_2,2026.1.1,Win32,60.24096386,68346da60e4abaae6a369c02,69b95efdef24cd8a694e89ee,69b961ae4324d911e93ae281,0.0773,0.0773,0,129,129,66,1,twoone,,,,,,,,,,,,,,,,,,,,,,,,,,,,,,,,,,,,,,,,,,,,,,,,,,,,,,,,,,,,,,,,,,,,,,,,,,,,,,,,,,,,,,,,,,,,,,,,,,,,,,,,,,,,,,,,,,,,,,,,,,,,,,,,,,,,,,,,,
,,68346da60e4abaae6a369c02,2026-03-17_16h37.09.355,kallum_motion_pilot_GIST_update_2,2026.1.1,Win32,60.24096386,68346da60e4abaae6a369c02,69b95efdef24cd8a694e89ee,69b961ae4324d911e93ae281,0.0779,0.0779,0,130,130,138,1,sixfive,,,,,,,,,,,,,,,,,,,,,,,,,,,,,,,,,,,,,,,,,,,,,,,,,,,,,,,,,,,,,,,,,,,,,,,,,,,,,,,,,,,,,,,,,,,,,,,,,,,,,,,,,,,,,,,,,,,,,,,,,,,,,,,,,,,,,,,,,
,,68346da60e4abaae6a369c02,2026-03-17_16h37.09.355,kallum_motion_pilot_GIST_update_2,2026.1.1,Win32,60.24096386,68346da60e4abaae6a369c02,69b95efdef24cd8a694e89ee,69b961ae4324d911e93ae281,0.0782,0.0782,0,131,131,123,1,sixeight,,,,,,,,,,,,,,,,,,,,,,,,,,,,,,,,,,,,,,,,,,,,,,,,,,,,,,,,,,,,,,,,,,,,,,,,,,,,,,,,,,,,,,,,,,,,,,,,,,,,,,,,,,,,,,,,,,,,,,,,,,,,,,,,,,,,,,,,,
,,68346da60e4abaae6a369c02,2026-03-17_16h37.09.355,kallum_motion_pilot_GIST_update_2,2026.1.1,Win32,60.24096386,68346da60e4abaae6a369c02,69b95efdef24cd8a694e89ee,69b961ae4324d911e93ae281,0.0785,0.0786,0,132,132,68,1,threeone,,,,,,,,,,,,,,,,,,,,,,,,,,,,,,,,,,,,,,,,,,,,,,,,,,,,,,,,,,,,,,,,,,,,,,,,,,,,,,,,,,,,,,,,,,,,,,,,,,,,,,,,,,,,,,,,,,,,,,,,,,,,,,,,,,,,,,,,,
,,68346da60e4abaae6a369c02,2026-03-17_16h37.09.355,kallum_motion_pilot_GIST_update_2,2026.1.1,Win32,60.24096386,68346da60e4abaae6a369c02,69b95efdef24cd8a694e89ee,69b961ae4324d911e93ae281,0.0788,0.0788,0,133,133,40,1,onetwo,,,,,,,,,,,,,,,,,,,,,,,,,,,,,,,,,,,,,,,,,,,,,,,,,,,,,,,,,,,,,,,,,,,,,,,,,,,,,,,,,,,,,,,,,,,,,,,,,,,,,,,,,,,,,,,,,,,,,,,,,,,,,,,,,,,,,,,,,
,,68346da60e4abaae6a369c02,2026-03-17_16h37.09.355,kallum_motion_pilot_GIST_update_2,2026.1.1,Win32,60.24096386,68346da60e4abaae6a369c02,69b95efdef24cd8a694e89ee,69b961ae4324d911e93ae281,0.0791,0.0791,0,134,134,51,1,twofour,,,,,,,,,,,,,,,,,,,,,,,,,,,,,,,,,,,,,,,,,,,,,,,,,,,,,,,,,,,,,,,,,,,,,,,,,,,,,,,,,,,,,,,,,,,,,,,,,,,,,,,,,,,,,,,,,,,,,,,,,,,,,,,,,,,,,,,,,
,,68346da60e4abaae6a369c02,2026-03-17_16h37.09.355,kallum_motion_pilot_GIST_update_2,2026.1.1,Win32,60.24096386,68346da60e4abaae6a369c02,69b95efdef24cd8a694e89ee,69b961ae4324d911e93ae281,0.0793,0.0793,0,135,135,45,1,threefour,,,,,,,,,,,,,,,,,,,,,,,,,,,,,,,,,,,,,,,,,,,,,,,,,,,,,,,,,,,,,,,,,,,,,,,,,,,,,,,,,,,,,,,,,,,,,,,,,,,,,,,,,,,,,,,,,,,,,,,,,,,,,,,,,,,,,,,,,
,,68346da60e4abaae6a369c02,2026-03-17_16h37.09.355,kallum_motion_pilot_GIST_update_2,2026.1.1,Win32,60.24096386,68346da60e4abaae6a369c02,69b95efdef24cd8a694e89ee,69b961ae4324d911e93ae281,0.0796,0.0796,0,136,136,139,1,sixeight,,,,,,,,,,,,,,,,,,,,,,,,,,,,,,,,,,,,,,,,,,,,,,,,,,,,,,,,,,,,,,,,,,,,,,,,,,,,,,,,,,,,,,,,,,,,,,,,,,,,,,,,,,,,,,,,,,,,,,,,,,,,,,,,,,,,,,,,,
,,68346da60e4abaae6a369c02,2026-03-17_16h37.09.355,kallum_motion_pilot_GIST_update_2,2026.1.1,Win32,60.24096386,68346da60e4abaae6a369c02,69b95efdef24cd8a694e89ee,69b961ae4324d911e93ae281,0.0799,0.0799,0,137,137,85,1,seveneight,,,,,,,,,,,,,,,,,,,,,,,,,,,,,,,,,,,,,,,,,,,,,,,,,,,,,,,,,,,,,,,,,,,,,,,,,,,,,,,,,,,,,,,,,,,,,,,,,,,,,,,,,,,,,,,,,,,,,,,,,,,,,,,,,,,,,,,,,
,,68346da60e4abaae6a369c02,2026-03-17_16h37.09.355,kallum_motion_pilot_GIST_update_2,2026.1.1,Win32,60.24096386,68346da60e4abaae6a369c02,69b95efdef24cd8a694e89ee,69b961ae4324d911e93ae281,0.0801,0.0801,0,138,138,3,1,twofour,,,,,,,,,,,,,,,,,,,,,,,,,,,,,,,,,,,,,,,,,,,,,,,,,,,,,,,,,,,,,,,,,,,,,,,,,,,,,,,,,,,,,,,,,,,,,,,,,,,,,,,,,,,,,,,,,,,,,,,,,,,,,,,,,,,,,,,,,
,,68346da60e4abaae6a369c02,2026-03-17_16h37.09.355,kallum_motion_pilot_GIST_update_2,2026.1.1,Win32,60.24096386,68346da60e4abaae6a369c02,69b95efdef24cd8a694e89ee,69b961ae4324d911e93ae281,0.0804,0.0804,0,139,139,140,1,sevenfive,,,,,,,,,,,,,,,,,,,,,,,,,,,,,,,,,,,,,,,,,,,,,,,,,,,,,,,,,,,,,,,,,,,,,,,,,,,,,,,,,,,,,,,,,,,,,,,,,,,,,,,,,,,,,,,,,,,,,,,,,,,,,,,,,,,,,,,,,
,,68346da60e4abaae6a369c02,2026-03-17_16h37.09.355,kallum_motion_pilot_GIST_update_2,2026.1.1,Win32,60.24096386,68346da60e4abaae6a369c02,69b95efdef24cd8a694e89ee,69b961ae4324d911e93ae281,0.0807,0.0807,0,140,140,65,1,onethree,,,,,,,,,,,,,,,,,,,,,,,,,,,,,,,,,,,,,,,,,,,,,,,,,,,,,,,,,,,,,,,,,,,,,,,,,,,,,,,,,,,,,,,,,,,,,,,,,,,,,,,,,,,,,,,,,,,,,,,,,,,,,,,,,,,,,,,,,
,,68346da60e4abaae6a369c02,2026-03-17_16h37.09.355,kallum_motion_pilot_GIST_update_2,2026.1.1,Win32,60.24096386,68346da60e4abaae6a369c02,69b95efdef24cd8a694e89ee,69b961ae4324d911e93ae281,0.0809,0.081,0,141,141,121,1,fiveseven,,,,,,,,,,,,,,,,,,,,,,,,,,,,,,,,,,,,,,,,,,,,,,,,,,,,,,,,,,,,,,,,,,,,,,,,,,,,,,,,,,,,,,,,,,,,,,,,,,,,,,,,,,,,,,,,,,,,,,,,,,,,,,,,,,,,,,,,,
,,68346da60e4abaae6a369c02,2026-03-17_16h37.09.355,kallum_motion_pilot_GIST_update_2,2026.1.1,Win32,60.24096386,68346da60e4abaae6a369c02,69b95efdef24cd8a694e89ee,69b961ae4324d911e93ae281,0.0812,0.0812,0,142,142,105,1,fiveseven,,,,,,,,,,,,,,,,,,,,,,,,,,,,,,,,,,,,,,,,,,,,,,,,,,,,,,,,,,,,,,,,,,,,,,,,,,,,,,,,,,,,,,,,,,,,,,,,,,,,,,,,,,,,,,,,,,,,,,,,,,,,,,,,,,,,,,,,,
,,68346da60e4abaae6a369c02,2026-03-17_16h37.09.355,kallum_motion_pilot_GIST_update_2,2026.1.1,Win32,60.24096386,68346da60e4abaae6a369c02,69b95efdef24cd8a694e89ee,69b961ae4324d911e93ae281,0.0815,0.0815,0,143,143,5,1,threefour,,,,,,,,,,,,,,,,,,,,,,,,,,,,,,,,,,,,,,,,,,,,,,,,,,,,,,,,,,,,,,,,,,,,,,,,,,,,,,,,,,,,,,,,,,,,,,,,,,,,,,,,,,,,,,,,,,,,,,,,,,,,,,,,,,,,,,,,,
,,68346da60e4abaae6a369c02,2026-03-17_16h37.09.355,kallum_motion_pilot_GIST_update_2,2026.1.1,Win32,60.24096386,68346da60e4abaae6a369c02,69b95efdef24cd8a694e89ee,69b961ae4324d911e93ae281,0.0818,0.0818,0,144,144,46,1,fourtwo,,,,,,,,,,,,,,,,,,,,,,,,,,,,,,,,,,,,,,,,,,,,,,,,,,,,,,,,,,,,,,,,,,,,,,,,,,,,,,,,,,,,,,,,,,,,,,,,,,,,,,,,,,,,,,,,,,,,,,,,,,,,,,,,,,,,,,,,,
,,68346da60e4abaae6a369c02,2026-03-17_16h37.09.355,kallum_motion_pilot_GIST_update_2,2026.1.1,Win32,60.24096386,68346da60e4abaae6a369c02,69b95efdef24cd8a694e89ee,69b961ae4324d911e93ae281,0.082,0.082,0,145,145,13,1,threefour,,,,,,,,,,,,,,,,,,,,,,,,,,,,,,,,,,,,,,,,,,,,,,,,,,,,,,,,,,,,,,,,,,,,,,,,,,,,,,,,,,,,,,,,,,,,,,,,,,,,,,,,,,,,,,,,,,,,,,,,,,,,,,,,,,,,,,,,,
,,68346da60e4abaae6a369c02,2026-03-17_16h37.09.355,kallum_motion_pilot_GIST_update_2,2026.1.1,Win32,60.24096386,68346da60e4abaae6a369c02,69b95efdef24cd8a694e89ee,69b961ae4324d911e93ae281,0.0823,0.0823,0,146,146,56,1,onetwo,,,,,,,,,,,,,,,,,,,,,,,,,,,,,,,,,,,,,,,,,,,,,,,,,,,,,,,,,,,,,,,,,,,,,,,,,,,,,,,,,,,,,,,,,,,,,,,,,,,,,,,,,,,,,,,,,,,,,,,,,,,,,,,,,,,,,,,,,
,,68346da60e4abaae6a369c02,2026-03-17_16h37.09.355,kallum_motion_pilot_GIST_update_2,2026.1.1,Win32,60.24096386,68346da60e4abaae6a369c02,69b95efdef24cd8a694e89ee,69b961ae4324d911e93ae281,0.0826,0.0826,0,147,147,144,1,fivesix,,,,,,,,,,,,,,,,,,,,,,,,,,,,,,,,,,,,,,,,,,,,,,,,,,,,,,,,,,,,,,,,,,,,,,,,,,,,,,,,,,,,,,,,,,,,,,,,,,,,,,,,,,,,,,,,,,,,,,,,,,,,,,,,,,,,,,,,,
,,68346da60e4abaae6a369c02,2026-03-17_16h37.09.355,kallum_motion_pilot_GIST_update_2,2026.1.1,Win32,60.24096386,68346da60e4abaae6a369c02,69b95efdef24cd8a694e89ee,69b961ae4324d911e93ae281,0.0828,0.0828,0,148,148,98,1,sixfive,,,,,,,,,,,,,,,,,,,,,,,,,,,,,,,,,,,,,,,,,,,,,,,,,,,,,,,,,,,,,,,,,,,,,,,,,,,,,,,,,,,,,,,,,,,,,,,,,,,,,,,,,,,,,,,,,,,,,,,,,,,,,,,,,,,,,,,,,
,,68346da60e4abaae6a369c02,2026-03-17_16h37.09.355,kallum_motion_pilot_GIST_update_2,2026.1.1,Win32,60.24096386,68346da60e4abaae6a369c02,69b95efdef24cd8a694e89ee,69b961ae4324d911e93ae281,0.083,0.0831,0,149,149,37,1,threefour,,,,,,,,,,,,,,,,,,,,,,,,,,,,,,,,,,,,,,,,,,,,,,,,,,,,,,,,,,,,,,,,,,,,,,,,,,,,,,,,,,,,,,,,,,,,,,,,,,,,,,,,,,,,,,,,,,,,,,,,,,,,,,,,,,,,,,,,,
,,68346da60e4abaae6a369c02,2026-03-17_16h37.09.355,kallum_motion_pilot_GIST_update_2,2026.1.1,Win32,60.24096386,68346da60e4abaae6a369c02,69b95efdef24cd8a694e89ee,69b961ae4324d911e93ae281,0.0833,0.0834,0,150,150,79,1,eightseven,,,,,,,,,,,,,,,,,,,,,,,,,,,,,,,,,,,,,,,,,,,,,,,,,,,,,,,,,,,,,,,,,,,,,,,,,,,,,,,,,,,,,,,,,,,,,,,,,,,,,,,,,,,,,,,,,,,,,,,,,,,,,,,,,,,,,,,,,
,,68346da60e4abaae6a369c02,2026-03-17_16h37.09.355,kallum_motion_pilot_GIST_update_2,2026.1.1,Win32,60.24096386,68346da60e4abaae6a369c02,69b95efdef24cd8a694e89ee,69b961ae4324d911e93ae281,0.0836,0.0836,0,151,151,159,1,eightseven,,,,,,,,,,,,,,,,,,,,,,,,,,,,,,,,,,,,,,,,,,,,,,,,,,,,,,,,,,,,,,,,,,,,,,,,,,,,,,,,,,,,,,,,,,,,,,,,,,,,,,,,,,,,,,,,,,,,,,,,,,,,,,,,,,,,,,,,,
,,68346da60e4abaae6a369c02,2026-03-17_16h37.09.355,kallum_motion_pilot_GIST_update_2,2026.1.1,Win32,60.24096386,68346da60e4abaae6a369c02,69b95efdef24cd8a694e89ee,69b961ae4324d911e93ae281,0.0839,0.0839,0,152,152,0,1,onetwo,,,,,,,,,,,,,,,,,,,,,,,,,,,,,,,,,,,,,,,,,,,,,,,,,,,,,,,,,,,,,,,,,,,,,,,,,,,,,,,,,,,,,,,,,,,,,,,,,,,,,,,,,,,,,,,,,,,,,,,,,,,,,,,,,,,,,,,,,
,,68346da60e4abaae6a369c02,2026-03-17_16h37.09.355,kallum_motion_pilot_GIST_update_2,2026.1.1,Win32,60.24096386,68346da60e4abaae6a369c02,69b95efdef24cd8a694e89ee,69b961ae4324d911e93ae281,0.0841,0.0841,0,153,153,84,1,sevenfive,,,,,,,,,,,,,,,,,,,,,,,,,,,,,,,,,,,,,,,,,,,,,,,,,,,,,,,,,,,,,,,,,,,,,,,,,,,,,,,,,,,,,,,,,,,,,,,,,,,,,,,,,,,,,,,,,,,,,,,,,,,,,,,,,,,,,,,,,
,,68346da60e4abaae6a369c02,2026-03-17_16h37.09.355,kallum_motion_pilot_GIST_update_2,2026.1.1,Win32,60.24096386,68346da60e4abaae6a369c02,69b95efdef24cd8a694e89ee,69b961ae4324d911e93ae281,0.0849,0.0849,0,154,154,129,1,fiveseven,,,,,,,,,,,,,,,,,,,,,,,,,,,,,,,,,,,,,,,,,,,,,,,,,,,,,,,,,,,,,,,,,,,,,,,,,,,,,,,,,,,,,,,,,,,,,,,,,,,,,,,,,,,,,,,,,,,,,,,,,,,,,,,,,,,,,,,,,
,,68346da60e4abaae6a369c02,2026-03-17_16h37.09.355,kallum_motion_pilot_GIST_update_2,2026.1.1,Win32,60.24096386,68346da60e4abaae6a369c02,69b95efdef24cd8a694e89ee,69b961ae4324d911e93ae281,0.0855,0.0855,0,155,155,109,1,seveneight,,,,,,,,,,,,,,,,,,,,,,,,,,,,,,,,,,,,,,,,,,,,,,,,,,,,,,,,,,,,,,,,,,,,,,,,,,,,,,,,,,,,,,,,,,,,,,,,,,,,,,,,,,,,,,,,,,,,,,,,,,,,,,,,,,,,,,,,,
,,68346da60e4abaae6a369c02,2026-03-17_16h37.09.355,kallum_motion_pilot_GIST_update_2,2026.1.1,Win32,60.24096386,68346da60e4abaae6a369c02,69b95efdef24cd8a694e89ee,69b961ae4324d911e93ae281,0.086,0.086,0,156,156,155,1,sixeight,,,,,,,,,,,,,,,,,,,,,,,,,,,,,,,,,,,,,,,,,,,,,,,,,,,,,,,,,,,,,,,,,,,,,,,,,,,,,,,,,,,,,,,,,,,,,,,,,,,,,,,,,,,,,,,,,,,,,,,,,,,,,,,,,,,,,,,,,
,,68346da60e4abaae6a369c02,2026-03-17_16h37.09.355,kallum_motion_pilot_GIST_update_2,2026.1.1,Win32,60.24096386,68346da60e4abaae6a369c02,69b95efdef24cd8a694e89ee,69b961ae4324d911e93ae281,0.0866,0.0866,0,157,157,116,1,sevenfive,,,,,,,,,,,,,,,,,,,,,,,,,,,,,,,,,,,,,,,,,,,,,,,,,,,,,,,,,,,,,,,,,,,,,,,,,,,,,,,,,,,,,,,,,,,,,,,,,,,,,,,,,,,,,,,,,,,,,,,,,,,,,,,,,,,,,,,,,
,,68346da60e4abaae6a369c02,2026-03-17_16h37.09.355,kallum_motion_pilot_GIST_update_2,2026.1.1,Win32,60.24096386,68346da60e4abaae6a369c02,69b95efdef24cd8a694e89ee,69b961ae4324d911e93ae281,0.0873,0.0874,0,158,158,152,1,fivesix,,,,,,,,,,,,,,,,,,,,,,,,,,,,,,,,,,,,,,,,,,,,,,,,,,,,,,,,,,,,,,,,,,,,,,,,,,,,,,,,,,,,,,,,,,,,,,,,,,,,,,,,,,,,,,,,,,,,,,,,,,,,,,,,,,,,,,,,,
,,68346da60e4abaae6a369c02,2026-03-17_16h37.09.355,kallum_motion_pilot_GIST_update_2,2026.1.1,Win32,60.24096386,68346da60e4abaae6a369c02,69b95efdef24cd8a694e89ee,69b961ae4324d911e93ae281,0.0879,0.088,0,159,159,19,1,twofour,,,,,,,,,,,,,,,,,,,,,,,,,,,,,,,,,,,,,,,,,,,,,,,,,,,,,,,,,,,,,,,,,,,,,,,,,,,,,,,,,,,,,,,,,,,,,,,,,,,,,,,,,,,,,,,,,,,,,,,,,,,,,,,,,,,,,,,,,
,,68346da60e4abaae6a369c02,2026-03-17_16h37.09.355,kallum_motion_pilot_GIST_update_2,2026.1.1,Win32,60.24096386,68346da60e4abaae6a369c02,69b95efdef24cd8a694e89ee,69b961ae4324d911e93ae281,0.0883,0.0883,0,160,160,83,1,sixeight,,,,,,,,,,,,,,,,,,,,,,,,,,,,,,,,,,,,,,,,,,,,,,,,,,,,,,,,,,,,,,,,,,,,,,,,,,,,,,,,,,,,,,,,,,,,,,,,,,,,,,,,,,,,,,,,,,,,,,,,,,,,,,,,,,,,,,,,,
,,68346da60e4abaae6a369c02,2026-03-17_16h37.09.355,kallum_motion_pilot_GIST_update_2,2026.1.1,Win32,60.24096386,68346da60e4abaae6a369c02,69b95efdef24cd8a694e89ee,69b961ae4324d911e93ae281,0.0887,0.0889,0,161,161,74,1,twoone,,,,,,,,,,,,,,,,,,,,,,,,,,,,,,,,,,,,,,,,,,,,,,,,,,,,,,,,,,,,,,,,,,,,,,,,,,,,,,,,,,,,,,,,,,,,,,,,,,,,,,,,,,,,,,,,,,,,,,,,,,,,,,,,,,,,,,,,,
,,68346da60e4abaae6a369c02,2026-03-17_16h37.09.355,kallum_motion_pilot_GIST_update_2,2026.1.1,Win32,60.24096386,68346da60e4abaae6a369c02,69b95efdef24cd8a694e89ee,69b961ae4324d911e93ae281,0.0895,0.0895,1,0,162,93,1,seveneight,,,,,,,,,,,,,,,,,,,,,,,,,,,,,,,,,,,,,,,,,,,,,,,,,,,,,,,,,,,,,,,,,,,,,,,,,,,,,,,,,,,,,,,,,,,,,,,,,,,,,,,,,,,,,,,,,,,,,,,,,,,,,,,,,,,,,,,,,
,,68346da60e4abaae6a369c02,2026-03-17_16h37.09.355,kallum_motion_pilot_GIST_update_2,2026.1.1,Win32,60.24096386,68346da60e4abaae6a369c02,69b95efdef24cd8a694e89ee,69b961ae4324d911e93ae281,0.0899,0.0899,1,1,163,130,1,sixfive,,,,,,,,,,,,,,,,,,,,,,,,,,,,,,,,,,,,,,,,,,,,,,,,,,,,,,,,,,,,,,,,,,,,,,,,,,,,,,,,,,,,,,,,,,,,,,,,,,,,,,,,,,,,,,,,,,,,,,,,,,,,,,,,,,,,,,,,,
,,68346da60e4abaae6a369c02,2026-03-17_16h37.09.355,kallum_motion_pilot_GIST_update_2,2026.1.1,Win32,60.24096386,68346da60e4abaae6a369c02,69b95efdef24cd8a694e89ee,69b961ae4324d911e93ae281,0.0905,0.0905,1,2,164,35,1,twofour,,,,,,,,,,,,,,,,,,,,,,,,,,,,,,,,,,,,,,,,,,,,,,,,,,,,,,,,,,,,,,,,,,,,,,,,,,,,,,,,,,,,,,,,,,,,,,,,,,,,,,,,,,,,,,,,,,,,,,,,,,,,,,,,,,,,,,,,,
,,68346da60e4abaae6a369c02,2026-03-17_16h37.09.355,kallum_motion_pilot_GIST_update_2,2026.1.1,Win32,60.24096386,68346da60e4abaae6a369c02,69b95efdef24cd8a694e89ee,69b961ae4324d911e93ae281,0.0908,0.0909,1,3,165,91,1,sixeight,,,,,,,,,,,,,,,,,,,,,,,,,,,,,,,,,,,,,,,,,,,,,,,,,,,,,,,,,,,,,,,,,,,,,,,,,,,,,,,,,,,,,,,,,,,,,,,,,,,,,,,,,,,,,,,,,,,,,,,,,,,,,,,,,,,,,,,,,
,,68346da60e4abaae6a369c02,2026-03-17_16h37.09.355,kallum_motion_pilot_GIST_update_2,2026.1.1,Win32,60.24096386,68346da60e4abaae6a369c02,69b95efdef24cd8a694e89ee,69b961ae4324d911e93ae281,0.0911,0.0911,1,4,166,157,1,seveneight,,,,,,,,,,,,,,,,,,,,,,,,,,,,,,,,,,,,,,,,,,,,,,,,,,,,,,,,,,,,,,,,,,,,,,,,,,,,,,,,,,,,,,,,,,,,,,,,,,,,,,,,,,,,,,,,,,,,,,,,,,,,,,,,,,,,,,,,,
,,68346da60e4abaae6a369c02,2026-03-17_16h37.09.355,kallum_motion_pilot_GIST_update_2,2026.1.1,Win32,60.24096386,68346da60e4abaae6a369c02,69b95efdef24cd8a694e89ee,69b961ae4324d911e93ae281,0.0914,0.0914,1,5,167,0,1,onetwo,,,,,,,,,,,,,,,,,,,,,,,,,,,,,,,,,,,,,,,,,,,,,,,,,,,,,,,,,,,,,,,,,,,,,,,,,,,,,,,,,,,,,,,,,,,,,,,,,,,,,,,,,,,,,,,,,,,,,,,,,,,,,,,,,,,,,,,,,
,,68346da60e4abaae6a369c02,2026-03-17_16h37.09.355,kallum_motion_pilot_GIST_update_2,2026.1.1,Win32,60.24096386,68346da60e4abaae6a369c02,69b95efdef24cd8a694e89ee,69b961ae4324d911e93ae281,0.0916,0.0916,1,6,168,155,1,sixeight,,,,,,,,,,,,,,,,,,,,,,,,,,,,,,,,,,,,,,,,,,,,,,,,,,,,,,,,,,,,,,,,,,,,,,,,,,,,,,,,,,,,,,,,,,,,,,,,,,,,,,,,,,,,,,,,,,,,,,,,,,,,,,,,,,,,,,,,,
,,68346da60e4abaae6a369c02,2026-03-17_16h37.09.355,kallum_motion_pilot_GIST_update_2,2026.1.1,Win32,60.24096386,68346da60e4abaae6a369c02,69b95efdef24cd8a694e89ee,69b961ae4324d911e93ae281,0.0919,0.0919,1,7,169,3,1,twofour,,,,,,,,,,,,,,,,,,,,,,,,,,,,,,,,,,,,,,,,,,,,,,,,,,,,,,,,,,,,,,,,,,,,,,,,,,,,,,,,,,,,,,,,,,,,,,,,,,,,,,,,,,,,,,,,,,,,,,,,,,,,,,,,,,,,,,,,,
,,68346da60e4abaae6a369c02,2026-03-17_16h37.09.355,kallum_motion_pilot_GIST_update_2,2026.1.1,Win32,60.24096386,68346da60e4abaae6a369c02,69b95efdef24cd8a694e89ee,69b961ae4324d911e93ae281,0.0923,0.0923,1,8,170,10,1,twoone,,,,,,,,,,,,,,,,,,,,,,,,,,,,,,,,,,,,,,,,,,,,,,,,,,,,,,,,,,,,,,,,,,,,,,,,,,,,,,,,,,,,,,,,,,,,,,,,,,,,,,,,,,,,,,,,,,,,,,,,,,,,,,,,,,,,,,,,,
,,68346da60e4abaae6a369c02,2026-03-17_16h37.09.355,kallum_motion_pilot_GIST_update_2,2026.1.1,Win32,60.24096386,68346da60e4abaae6a369c02,69b95efdef24cd8a694e89ee,69b961ae4324d911e93ae281,0.0926,0.0926,1,9,171,85,1,seveneight,,,,,,,,,,,,,,,,,,,,,,,,,,,,,,,,,,,,,,,,,,,,,,,,,,,,,,,,,,,,,,,,,,,,,,,,,,,,,,,,,,,,,,,,,,,,,,,,,,,,,,,,,,,,,,,,,,,,,,,,,,,,,,,,,,,,,,,,,
,,68346da60e4abaae6a369c02,2026-03-17_16h37.09.355,kallum_motion_pilot_GIST_update_2,2026.1.1,Win32,60.24096386,68346da60e4abaae6a369c02,69b95efdef24cd8a694e89ee,69b961ae4324d911e93ae281,0.0947,0.0947,1,10,172,22,1,fourtwo,,,,,,,,,,,,,,,,,,,,,,,,,,,,,,,,,,,,,,,,,,,,,,,,,,,,,,,,,,,,,,,,,,,,,,,,,,,,,,,,,,,,,,,,,,,,,,,,,,,,,,,,,,,,,,,,,,,,,,,,,,,,,,,,,,,,,,,,,
,,68346da60e4abaae6a369c02,2026-03-17_16h37.09.355,kallum_motion_pilot_GIST_update_2,2026.1.1,Win32,60.24096386,68346da60e4abaae6a369c02,69b95efdef24cd8a694e89ee,69b961ae4324d911e93ae281,0.0949,0.0949,1,11,173,18,1,twoone,,,,,,,,,,,,,,,,,,,,,,,,,,,,,,,,,,,,,,,,,,,,,,,,,,,,,,,,,,,,,,,,,,,,,,,,,,,,,,,,,,,,,,,,,,,,,,,,,,,,,,,,,,,,,,,,,,,,,,,,,,,,,,,,,,,,,,,,,
,,68346da60e4abaae6a369c02,2026-03-17_16h37.09.355,kallum_motion_pilot_GIST_update_2,2026.1.1,Win32,60.24096386,68346da60e4abaae6a369c02,69b95efdef24cd8a694e89ee,69b961ae4324d911e93ae281,0.0952,0.0952,1,12,174,47,1,fourthree,,,,,,,,,,,,,,,,,,,,,,,,,,,,,,,,,,,,,,,,,,,,,,,,,,,,,,,,,,,,,,,,,,,,,,,,,,,,,,,,,,,,,,,,,,,,,,,,,,,,,,,,,,,,,,,,,,,,,,,,,,,,,,,,,,,,,,,,,
,,68346da60e4abaae6a369c02,2026-03-17_16h37.09.355,kallum_motion_pilot_GIST_update_2,2026.1.1,Win32,60.24096386,68346da60e4abaae6a369c02,69b95efdef24cd8a694e89ee,69b961ae4324d911e93ae281,0.0954,0.0954,1,13,175,133,1,seveneight,,,,,,,,,,,,,,,,,,,,,,,,,,,,,,,,,,,,,,,,,,,,,,,,,,,,,,,,,,,,,,,,,,,,,,,,,,,,,,,,,,,,,,,,,,,,,,,,,,,,,,,,,,,,,,,,,,,,,,,,,,,,,,,,,,,,,,,,,
,,68346da60e4abaae6a369c02,2026-03-17_16h37.09.355,kallum_motion_pilot_GIST_update_2,2026.1.1,Win32,60.24096386,68346da60e4abaae6a369c02,69b95efdef24cd8a694e89ee,69b961ae4324d911e93ae281,0.0958,0.0958,1,14,176,19,1,twofour,,,,,,,,,,,,,,,,,,,,,,,,,,,,,,,,,,,,,,,,,,,,,,,,,,,,,,,,,,,,,,,,,,,,,,,,,,,,,,,,,,,,,,,,,,,,,,,,,,,,,,,,,,,,,,,,,,,,,,,,,,,,,,,,,,,,,,,,,
,,68346da60e4abaae6a369c02,2026-03-17_16h37.09.355,kallum_motion_pilot_GIST_update_2,2026.1.1,Win32,60.24096386,68346da60e4abaae6a369c02,69b95efdef24cd8a694e89ee,69b961ae4324d911e93ae281,0.0961,0.0961,1,15,177,148,1,sevenfive,,,,,,,,,,,,,,,,,,,,,,,,,,,,,,,,,,,,,,,,,,,,,,,,,,,,,,,,,,,,,,,,,,,,,,,,,,,,,,,,,,,,,,,,,,,,,,,,,,,,,,,,,,,,,,,,,,,,,,,,,,,,,,,,,,,,,,,,,
,,68346da60e4abaae6a369c02,2026-03-17_16h37.09.355,kallum_motion_pilot_GIST_update_2,2026.1.1,Win32,60.24096386,68346da60e4abaae6a369c02,69b95efdef24cd8a694e89ee,69b961ae4324d911e93ae281,0.0965,0.0965,1,16,178,72,1,onetwo,,,,,,,,,,,,,,,,,,,,,,,,,,,,,,,,,,,,,,,,,,,,,,,,,,,,,,,,,,,,,,,,,,,,,,,,,,,,,,,,,,,,,,,,,,,,,,,,,,,,,,,,,,,,,,,,,,,,,,,,,,,,,,,,,,,,,,,,,
,,68346da60e4abaae6a369c02,2026-03-17_16h37.09.355,kallum_motion_pilot_GIST_update_2,2026.1.1,Win32,60.24096386,68346da60e4abaae6a369c02,69b95efdef24cd8a694e89ee,69b961ae4324d911e93ae281,0.0967,0.0967,1,17,179,32,1,onetwo,,,,,,,,,,,,,,,,,,,,,,,,,,,,,,,,,,,,,,,,,,,,,,,,,,,,,,,,,,,,,,,,,,,,,,,,,,,,,,,,,,,,,,,,,,,,,,,,,,,,,,,,,,,,,,,,,,,,,,,,,,,,,,,,,,,,,,,,,
,,68346da60e4abaae6a369c02,2026-03-17_16h37.09.355,kallum_motion_pilot_GIST_update_2,2026.1.1,Win32,60.24096386,68346da60e4abaae6a369c02,69b95efdef24cd8a694e89ee,69b961ae4324d911e93ae281,0.097,0.0971,1,18,180,34,1,twoone,,,,,,,,,,,,,,,,,,,,,,,,,,,,,,,,,,,,,,,,,,,,,,,,,,,,,,,,,,,,,,,,,,,,,,,,,,,,,,,,,,,,,,,,,,,,,,,,,,,,,,,,,,,,,,,,,,,,,,,,,,,,,,,,,,,,,,,,,
,,68346da60e4abaae6a369c02,2026-03-17_16h37.09.355,kallum_motion_pilot_GIST_update_2,2026.1.1,Win32,60.24096386,68346da60e4abaae6a369c02,69b95efdef24cd8a694e89ee,69b961ae4324d911e93ae281,0.0977,0.0978,1,19,181,106,1,sixfive,,,,,,,,,,,,,,,,,,,,,,,,,,,,,,,,,,,,,,,,,,,,,,,,,,,,,,,,,,,,,,,,,,,,,,,,,,,,,,,,,,,,,,,,,,,,,,,,,,,,,,,,,,,,,,,,,,,,,,,,,,,,,,,,,,,,,,,,,
,,68346da60e4abaae6a369c02,2026-03-17_16h37.09.355,kallum_motion_pilot_GIST_update_2,2026.1.1,Win32,60.24096386,68346da60e4abaae6a369c02,69b95efdef24cd8a694e89ee,69b961ae4324d911e93ae281,0.0981,0.0981,1,20,182,14,1,fourtwo,,,,,,,,,,,,,,,,,,,,,,,,,,,,,,,,,,,,,,,,,,,,,,,,,,,,,,,,,,,,,,,,,,,,,,,,,,,,,,,,,,,,,,,,,,,,,,,,,,,,,,,,,,,,,,,,,,,,,,,,,,,,,,,,,,,,,,,,,
,,68346da60e4abaae6a369c02,2026-03-17_16h37.09.355,kallum_motion_pilot_GIST_update_2,2026.1.1,Win32,60.24096386,68346da60e4abaae6a369c02,69b95efdef24cd8a694e89ee,69b961ae4324d911e93ae281,0.0983,0.0984,1,21,183,101,1,seveneight,,,,,,,,,,,,,,,,,,,,,,,,,,,,,,,,,,,,,,,,,,,,,,,,,,,,,,,,,,,,,,,,,,,,,,,,,,,,,,,,,,,,,,,,,,,,,,,,,,,,,,,,,,,,,,,,,,,,,,,,,,,,,,,,,,,,,,,,,
,,68346da60e4abaae6a369c02,2026-03-17_16h37.09.355,kallum_motion_pilot_GIST_update_2,2026.1.1,Win32,60.24096386,68346da60e4abaae6a369c02,69b95efdef24cd8a694e89ee,69b961ae4324d911e93ae281,0.0986,0.0986,1,22,184,40,1,onetwo,,,,,,,,,,,,,,,,,,,,,,,,,,,,,,,,,,,,,,,,,,,,,,,,,,,,,,,,,,,,,,,,,,,,,,,,,,,,,,,,,,,,,,,,,,,,,,,,,,,,,,,,,,,,,,,,,,,,,,,,,,,,,,,,,,,,,,,,,
,,68346da60e4abaae6a369c02,2026-03-17_16h37.09.355,kallum_motion_pilot_GIST_update_2,2026.1.1,Win32,60.24096386,68346da60e4abaae6a369c02,69b95efdef24cd8a694e89ee,69b961ae4324d911e93ae281,0.0989,0.0989,1,23,185,125,1,seveneight,,,,,,,,,,,,,,,,,,,,,,,,,,,,,,,,,,,,,,,,,,,,,,,,,,,,,,,,,,,,,,,,,,,,,,,,,,,,,,,,,,,,,,,,,,,,,,,,,,,,,,,,,,,,,,,,,,,,,,,,,,,,,,,,,,,,,,,,,
,,68346da60e4abaae6a369c02,2026-03-17_16h37.09.355,kallum_motion_pilot_GIST_update_2,2026.1.1,Win32,60.24096386,68346da60e4abaae6a369c02,69b95efdef24cd8a694e89ee,69b961ae4324d911e93ae281,0.0991,0.0991,1,24,186,69,1,threefour,,,,,,,,,,,,,,,,,,,,,,,,,,,,,,,,,,,,,,,,,,,,,,,,,,,,,,,,,,,,,,,,,,,,,,,,,,,,,,,,,,,,,,,,,,,,,,,,,,,,,,,,,,,,,,,,,,,,,,,,,,,,,,,,,,,,,,,,,
,,68346da60e4abaae6a369c02,2026-03-17_16h37.09.355,kallum_motion_pilot_GIST_update_2,2026.1.1,Win32,60.24096386,68346da60e4abaae6a369c02,69b95efdef24cd8a694e89ee,69b961ae4324d911e93ae281,0.0996,0.0996,1,25,187,111,1,eightseven,,,,,,,,,,,,,,,,,,,,,,,,,,,,,,,,,,,,,,,,,,,,,,,,,,,,,,,,,,,,,,,,,,,,,,,,,,,,,,,,,,,,,,,,,,,,,,,,,,,,,,,,,,,,,,,,,,,,,,,,,,,,,,,,,,,,,,,,,
,,68346da60e4abaae6a369c02,2026-03-17_16h37.09.355,kallum_motion_pilot_GIST_update_2,2026.1.1,Win32,60.24096386,68346da60e4abaae6a369c02,69b95efdef24cd8a694e89ee,69b961ae4324d911e93ae281,0.1,0.1001,1,26,188,11,1,twofour,,,,,,,,,,,,,,,,,,,,,,,,,,,,,,,,,,,,,,,,,,,,,,,,,,,,,,,,,,,,,,,,,,,,,,,,,,,,,,,,,,,,,,,,,,,,,,,,,,,,,,,,,,,,,,,,,,,,,,,,,,,,,,,,,,,,,,,,,
,,68346da60e4abaae6a369c02,2026-03-17_16h37.09.355,kallum_motion_pilot_GIST_update_2,2026.1.1,Win32,60.24096386,68346da60e4abaae6a369c02,69b95efdef24cd8a694e89ee,69b961ae4324d911e93ae281,0.1004,0.1004,1,27,189,134,1,eightsix,,,,,,,,,,,,,,,,,,,,,,,,,,,,,,,,,,,,,,,,,,,,,,,,,,,,,,,,,,,,,,,,,,,,,,,,,,,,,,,,,,,,,,,,,,,,,,,,,,,,,,,,,,,,,,,,,,,,,,,,,,,,,,,,,,,,,,,,,
,,68346da60e4abaae6a369c02,2026-03-17_16h37.09.355,kallum_motion_pilot_GIST_update_2,2026.1.1,Win32,60.24096386,68346da60e4abaae6a369c02,69b95efdef24cd8a694e89ee,69b961ae4324d911e93ae281,0.1009,0.1009,1,28,190,135,1,eightseven,,,,,,,,,,,,,,,,,,,,,,,,,,,,,,,,,,,,,,,,,,,,,,,,,,,,,,,,,,,,,,,,,,,,,,,,,,,,,,,,,,,,,,,,,,,,,,,,,,,,,,,,,,,,,,,,,,,,,,,,,,,,,,,,,,,,,,,,,
,,68346da60e4abaae6a369c02,2026-03-17_16h37.09.355,kallum_motion_pilot_GIST_update_2,2026.1.1,Win32,60.24096386,68346da60e4abaae6a369c02,69b95efdef24cd8a694e89ee,69b961ae4324d911e93ae281,0.1012,0.1012,1,29,191,63,1,fourthree,,,,,,,,,,,,,,,,,,,,,,,,,,,,,,,,,,,,,,,,,,,,,,,,,,,,,,,,,,,,,,,,,,,,,,,,,,,,,,,,,,,,,,,,,,,,,,,,,,,,,,,,,,,,,,,,,,,,,,,,,,,,,,,,,,,,,,,,,
,,68346da60e4abaae6a369c02,2026-03-17_16h37.09.355,kallum_motion_pilot_GIST_update_2,2026.1.1,Win32,60.24096386,68346da60e4abaae6a369c02,69b95efdef24cd8a694e89ee,69b961ae4324d911e93ae281,0.1014,0.1015,1,30,192,109,1,seveneight,,,,,,,,,,,,,,,,,,,,,,,,,,,,,,,,,,,,,,,,,,,,,,,,,,,,,,,,,,,,,,,,,,,,,,,,,,,,,,,,,,,,,,,,,,,,,,,,,,,,,,,,,,,,,,,,,,,,,,,,,,,,,,,,,,,,,,,,,
,,68346da60e4abaae6a369c02,2026-03-17_16h37.09.355,kallum_motion_pilot_GIST_update_2,2026.1.1,Win32,60.24096386,68346da60e4abaae6a369c02,69b95efdef24cd8a694e89ee,69b961ae4324d911e93ae281,0.1017,0.1017,1,31,193,120,1,fivesix,,,,,,,,,,,,,,,,,,,,,,,,,,,,,,,,,,,,,,,,,,,,,,,,,,,,,,,,,,,,,,,,,,,,,,,,,,,,,,,,,,,,,,,,,,,,,,,,,,,,,,,,,,,,,,,,,,,,,,,,,,,,,,,,,,,,,,,,,
,,68346da60e4abaae6a369c02,2026-03-17_16h37.09.355,kallum_motion_pilot_GIST_update_2,2026.1.1,Win32,60.24096386,68346da60e4abaae6a369c02,69b95efdef24cd8a694e89ee,69b961ae4324d911e93ae281,0.102,0.102,1,32,194,116,1,sevenfive,,,,,,,,,,,,,,,,,,,,,,,,,,,,,,,,,,,,,,,,,,,,,,,,,,,,,,,,,,,,,,,,,,,,,,,,,,,,,,,,,,,,,,,,,,,,,,,,,,,,,,,,,,,,,,,,,,,,,,,,,,,,,,,,,,,,,,,,,
,,68346da60e4abaae6a369c02,2026-03-17_16h37.09.355,kallum_motion_pilot_GIST_update_2,2026.1.1,Win32,60.24096386,68346da60e4abaae6a369c02,69b95efdef24cd8a694e89ee,69b961ae4324d911e93ae281,0.1025,0.1025,1,33,195,75,1,twofour,,,,,,,,,,,,,,,,,,,,,,,,,,,,,,,,,,,,,,,,,,,,,,,,,,,,,,,,,,,,,,,,,,,,,,,,,,,,,,,,,,,,,,,,,,,,,,,,,,,,,,,,,,,,,,,,,,,,,,,,,,,,,,,,,,,,,,,,,
,,68346da60e4abaae6a369c02,2026-03-17_16h37.09.355,kallum_motion_pilot_GIST_update_2,2026.1.1,Win32,60.24096386,68346da60e4abaae6a369c02,69b95efdef24cd8a694e89ee,69b961ae4324d911e93ae281,0.1028,0.1028,1,34,196,74,1,twoone,,,,,,,,,,,,,,,,,,,,,,,,,,,,,,,,,,,,,,,,,,,,,,,,,,,,,,,,,,,,,,,,,,,,,,,,,,,,,,,,,,,,,,,,,,,,,,,,,,,,,,,,,,,,,,,,,,,,,,,,,,,,,,,,,,,,,,,,,
,,68346da60e4abaae6a369c02,2026-03-17_16h37.09.355,kallum_motion_pilot_GIST_update_2,2026.1.1,Win32,60.24096386,68346da60e4abaae6a369c02,69b95efdef24cd8a694e89ee,69b961ae4324d911e93ae281,0.1031,0.1031,1,35,197,114,1,sixfive,,,,,,,,,,,,,,,,,,,,,,,,,,,,,,,,,,,,,,,,,,,,,,,,,,,,,,,,,,,,,,,,,,,,,,,,,,,,,,,,,,,,,,,,,,,,,,,,,,,,,,,,,,,,,,,,,,,,,,,,,,,,,,,,,,,,,,,,,
,,68346da60e4abaae6a369c02,2026-03-17_16h37.09.355,kallum_motion_pilot_GIST_update_2,2026.1.1,Win32,60.24096386,68346da60e4abaae6a369c02,69b95efdef24cd8a694e89ee,69b961ae4324d911e93ae281,0.1034,0.1035,1,36,198,97,1,fiveseven,,,,,,,,,,,,,,,,,,,,,,,,,,,,,,,,,,,,,,,,,,,,,,,,,,,,,,,,,,,,,,,,,,,,,,,,,,,,,,,,,,,,,,,,,,,,,,,,,,,,,,,,,,,,,,,,,,,,,,,,,,,,,,,,,,,,,,,,,
,,68346da60e4abaae6a369c02,2026-03-17_16h37.09.355,kallum_motion_pilot_GIST_update_2,2026.1.1,Win32,60.24096386,68346da60e4abaae6a369c02,69b95efdef24cd8a694e89ee,69b961ae4324d911e93ae281,0.1037,0.1037,1,37,199,81,1,fiveseven,,,,,,,,,,,,,,,,,,,,,,,,,,,,,,,,,,,,,,,,,,,,,,,,,,,,,,,,,,,,,,,,,,,,,,,,,,,,,,,,,,,,,,,,,,,,,,,,,,,,,,,,,,,,,,,,,,,,,,,,,,,,,,,,,,,,,,,,,
,,68346da60e4abaae6a369c02,2026-03-17_16h37.09.355,kallum_motion_pilot_GIST_update_2,2026.1.1,Win32,60.24096386,68346da60e4abaae6a369c02,69b95efdef24cd8a694e89ee,69b961ae4324d911e93ae281,0.1042,0.1043,1,38,200,123,1,sixeight,,,,,,,,,,,,,,,,,,,,,,,,,,,,,,,,,,,,,,,,,,,,,,,,,,,,,,,,,,,,,,,,,,,,,,,,,,,,,,,,,,,,,,,,,,,,,,,,,,,,,,,,,,,,,,,,,,,,,,,,,,,,,,,,,,,,,,,,,
,,68346da60e4abaae6a369c02,2026-03-17_16h37.09.355,kallum_motion_pilot_GIST_update_2,2026.1.1,Win32,60.24096386,68346da60e4abaae6a369c02,69b95efdef24cd8a694e89ee,69b961ae4324d911e93ae281,0.1046,0.1046,1,39,201,143,1,eightseven,,,,,,,,,,,,,,,,,,,,,,,,,,,,,,,,,,,,,,,,,,,,,,,,,,,,,,,,,,,,,,,,,,,,,,,,,,,,,,,,,,,,,,,,,,,,,,,,,,,,,,,,,,,,,,,,,,,,,,,,,,,,,,,,,,,,,,,,,
,,68346da60e4abaae6a369c02,2026-03-17_16h37.09.355,kallum_motion_pilot_GIST_update_2,2026.1.1,Win32,60.24096386,68346da60e4abaae6a369c02,69b95efdef24cd8a694e89ee,69b961ae4324d911e93ae281,0.1049,0.1049,1,40,202,83,1,sixeight,,,,,,,,,,,,,,,,,,,,,,,,,,,,,,,,,,,,,,,,,,,,,,,,,,,,,,,,,,,,,,,,,,,,,,,,,,,,,,,,,,,,,,,,,,,,,,,,,,,,,,,,,,,,,,,,,,,,,,,,,,,,,,,,,,,,,,,,,
,,68346da60e4abaae6a369c02,2026-03-17_16h37.09.355,kallum_motion_pilot_GIST_update_2,2026.1.1,Win32,60.24096386,68346da60e4abaae6a369c02,69b95efdef24cd8a694e89ee,69b961ae4324d911e93ae281,0.1052,0.1052,1,41,203,16,1,onetwo,,,,,,,,,,,,,,,,,,,,,,,,,,,,,,,,,,,,,,,,,,,,,,,,,,,,,,,,,,,,,,,,,,,,,,,,,,,,,,,,,,,,,,,,,,,,,,,,,,,,,,,,,,,,,,,,,,,,,,,,,,,,,,,,,,,,,,,,,
,,68346da60e4abaae6a369c02,2026-03-17_16h37.09.355,kallum_motion_pilot_GIST_update_2,2026.1.1,Win32,60.24096386,68346da60e4abaae6a369c02,69b95efdef24cd8a694e89ee,69b961ae4324d911e93ae281,0.1054,0.1054,1,42,204,150,1,eightsix,,,,,,,,,,,,,,,,,,,,,,,,,,,,,,,,,,,,,,,,,,,,,,,,,,,,,,,,,,,,,,,,,,,,,,,,,,,,,,,,,,,,,,,,,,,,,,,,,,,,,,,,,,,,,,,,,,,,,,,,,,,,,,,,,,,,,,,,,
,,68346da60e4abaae6a369c02,2026-03-17_16h37.09.355,kallum_motion_pilot_GIST_update_2,2026.1.1,Win32,60.24096386,68346da60e4abaae6a369c02,69b95efdef24cd8a694e89ee,69b961ae4324d911e93ae281,0.1056,0.1056,1,43,205,160,1,fivesix,,,,,,,,,,,,,,,,,,,,,,,,,,,,,,,,,,,,,,,,,,,,,,,,,,,,,,,,,,,,,,,,,,,,,,,,,,,,,,,,,,,,,,,,,,,,,,,,,,,,,,,,,,,,,,,,,,,,,,,,,,,,,,,,,,,,,,,,,
,,68346da60e4abaae6a369c02,2026-03-17_16h37.09.355,kallum_motion_pilot_GIST_update_2,2026.1.1,Win32,60.24096386,68346da60e4abaae6a369c02,69b95efdef24cd8a694e89ee,69b961ae4324d911e93ae281,0.1058,0.1058,1,44,206,33,1,onethree,,,,,,,,,,,,,,,,,,,,,,,,,,,,,,,,,,,,,,,,,,,,,,,,,,,,,,,,,,,,,,,,,,,,,,,,,,,,,,,,,,,,,,,,,,,,,,,,,,,,,,,,,,,,,,,,,,,,,,,,,,,,,,,,,,,,,,,,,
,,68346da60e4abaae6a369c02,2026-03-17_16h37.09.355,kallum_motion_pilot_GIST_update_2,2026.1.1,Win32,60.24096386,68346da60e4abaae6a369c02,69b95efdef24cd8a694e89ee,69b961ae4324d911e93ae281,0.1061,0.1061,1,45,207,50,1,twoone,,,,,,,,,,,,,,,,,,,,,,,,,,,,,,,,,,,,,,,,,,,,,,,,,,,,,,,,,,,,,,,,,,,,,,,,,,,,,,,,,,,,,,,,,,,,,,,,,,,,,,,,,,,,,,,,,,,,,,,,,,,,,,,,,,,,,,,,,
,,68346da60e4abaae6a369c02,2026-03-17_16h37.09.355,kallum_motion_pilot_GIST_update_2,2026.1.1,Win32,60.24096386,68346da60e4abaae6a369c02,69b95efdef24cd8a694e89ee,69b961ae4324d911e93ae281,0.1064,0.1064,1,46,208,59,1,twofour,,,,,,,,,,,,,,,,,,,,,,,,,,,,,,,,,,,,,,,,,,,,,,,,,,,,,,,,,,,,,,,,,,,,,,,,,,,,,,,,,,,,,,,,,,,,,,,,,,,,,,,,,,,,,,,,,,,,,,,,,,,,,,,,,,,,,,,,,
,,68346da60e4abaae6a369c02,2026-03-17_16h37.09.355,kallum_motion_pilot_GIST_update_2,2026.1.1,Win32,60.24096386,68346da60e4abaae6a369c02,69b95efdef24cd8a694e89ee,69b961ae4324d911e93ae281,0.1067,0.1067,1,47,209,62,1,fourtwo,,,,,,,,,,,,,,,,,,,,,,,,,,,,,,,,,,,,,,,,,,,,,,,,,,,,,,,,,,,,,,,,,,,,,,,,,,,,,,,,,,,,,,,,,,,,,,,,,,,,,,,,,,,,,,,,,,,,,,,,,,,,,,,,,,,,,,,,,
,,68346da60e4abaae6a369c02,2026-03-17_16h37.09.355,kallum_motion_pilot_GIST_update_2,2026.1.1,Win32,60.24096386,68346da60e4abaae6a369c02,69b95efdef24cd8a694e89ee,69b961ae4324d911e93ae281,0.1073,0.1073,1,48,210,48,1,onetwo,,,,,,,,,,,,,,,,,,,,,,,,,,,,,,,,,,,,,,,,,,,,,,,,,,,,,,,,,,,,,,,,,,,,,,,,,,,,,,,,,,,,,,,,,,,,,,,,,,,,,,,,,,,,,,,,,,,,,,,,,,,,,,,,,,,,,,,,,
,,68346da60e4abaae6a369c02,2026-03-17_16h37.09.355,kallum_motion_pilot_GIST_update_2,2026.1.1,Win32,60.24096386,68346da60e4abaae6a369c02,69b95efdef24cd8a694e89ee,69b961ae4324d911e93ae281,0.1077,0.1077,1,49,211,17,1,onethree,,,,,,,,,,,,,,,,,,,,,,,,,,,,,,,,,,,,,,,,,,,,,,,,,,,,,,,,,,,,,,,,,,,,,,,,,,,,,,,,,,,,,,,,,,,,,,,,,,,,,,,,,,,,,,,,,,,,,,,,,,,,,,,,,,,,,,,,,
,,68346da60e4abaae6a369c02,2026-03-17_16h37.09.355,kallum_motion_pilot_GIST_update_2,2026.1.1,Win32,60.24096386,68346da60e4abaae6a369c02,69b95efdef24cd8a694e89ee,69b961ae4324d911e93ae281,0.1079,0.1079,1,50,212,149,1,seveneight,,,,,,,,,,,,,,,,,,,,,,,,,,,,,,,,,,,,,,,,,,,,,,,,,,,,,,,,,,,,,,,,,,,,,,,,,,,,,,,,,,,,,,,,,,,,,,,,,,,,,,,,,,,,,,,,,,,,,,,,,,,,,,,,,,,,,,,,,
,,68346da60e4abaae6a369c02,2026-03-17_16h37.09.355,kallum_motion_pilot_GIST_update_2,2026.1.1,Win32,60.24096386,68346da60e4abaae6a369c02,69b95efdef24cd8a694e89ee,69b961ae4324d911e93ae281,0.1083,0.1083,1,51,213,132,1,sevenfive,,,,,,,,,,,,,,,,,,,,,,,,,,,,,,,,,,,,,,,,,,,,,,,,,,,,,,,,,,,,,,,,,,,,,,,,,,,,,,,,,,,,,,,,,,,,,,,,,,,,,,,,,,,,,,,,,,,,,,,,,,,,,,,,,,,,,,,,,
,,68346da60e4abaae6a369c02,2026-03-17_16h37.09.355,kallum_motion_pilot_GIST_update_2,2026.1.1,Win32,60.24096386,68346da60e4abaae6a369c02,69b95efdef24cd8a694e89ee,69b961ae4324d911e93ae281,0.1085,0.1085,1,52,214,131,1,sixeight,,,,,,,,,,,,,,,,,,,,,,,,,,,,,,,,,,,,,,,,,,,,,,,,,,,,,,,,,,,,,,,,,,,,,,,,,,,,,,,,,,,,,,,,,,,,,,,,,,,,,,,,,,,,,,,,,,,,,,,,,,,,,,,,,,,,,,,,,
,,68346da60e4abaae6a369c02,2026-03-17_16h37.09.355,kallum_motion_pilot_GIST_update_2,2026.1.1,Win32,60.24096386,68346da60e4abaae6a369c02,69b95efdef24cd8a694e89ee,69b961ae4324d911e93ae281,0.1089,0.1089,1,53,215,5,1,threefour,,,,,,,,,,,,,,,,,,,,,,,,,,,,,,,,,,,,,,,,,,,,,,,,,,,,,,,,,,,,,,,,,,,,,,,,,,,,,,,,,,,,,,,,,,,,,,,,,,,,,,,,,,,,,,,,,,,,,,,,,,,,,,,,,,,,,,,,,
,,68346da60e4abaae6a369c02,2026-03-17_16h37.09.355,kallum_motion_pilot_GIST_update_2,2026.1.1,Win32,60.24096386,68346da60e4abaae6a369c02,69b95efdef24cd8a694e89ee,69b961ae4324d911e93ae281,0.1093,0.1093,1,54,216,61,1,threefour,,,,,,,,,,,,,,,,,,,,,,,,,,,,,,,,,,,,,,,,,,,,,,,,,,,,,,,,,,,,,,,,,,,,,,,,,,,,,,,,,,,,,,,,,,,,,,,,,,,,,,,,,,,,,,,,,,,,,,,,,,,,,,,,,,,,,,,,,
,,68346da60e4abaae6a369c02,2026-03-17_16h37.09.355,kallum_motion_pilot_GIST_update_2,2026.1.1,Win32,60.24096386,68346da60e4abaae6a369c02,69b95efdef24cd8a694e89ee,69b961ae4324d911e93ae281,0.1096,0.1096,1,55,217,65,1,onethree,,,,,,,,,,,,,,,,,,,,,,,,,,,,,,,,,,,,,,,,,,,,,,,,,,,,,,,,,,,,,,,,,,,,,,,,,,,,,,,,,,,,,,,,,,,,,,,,,,,,,,,,,,,,,,,,,,,,,,,,,,,,,,,,,,,,,,,,,
,,68346da60e4abaae6a369c02,2026-03-17_16h37.09.355,kallum_motion_pilot_GIST_update_2,2026.1.1,Win32,60.24096386,68346da60e4abaae6a369c02,69b95efdef24cd8a694e89ee,69b961ae4324d911e93ae281,0.1099,0.1099,1,56,218,161,1,fiveseven,,,,,,,,,,,,,,,,,,,,,,,,,,,,,,,,,,,,,,,,,,,,,,,,,,,,,,,,,,,,,,,,,,,,,,,,,,,,,,,,,,,,,,,,,,,,,,,,,,,,,,,,,,,,,,,,,,,,,,,,,,,,,,,,,,,,,,,,,
,,68346da60e4abaae6a369c02,2026-03-17_16h37.09.355,kallum_motion_pilot_GIST_update_2,2026.1.1,Win32,60.24096386,68346da60e4abaae6a369c02,69b95efdef24cd8a694e89ee,69b961ae4324d911e93ae281,0.1102,0.1102,1,57,219,138,1,sixfive,,,,,,,,,,,,,,,,,,,,,,,,,,,,,,,,,,,,,,,,,,,,,,,,,,,,,,,,,,,,,,,,,,,,,,,,,,,,,,,,,,,,,,,,,,,,,,,,,,,,,,,,,,,,,,,,,,,,,,,,,,,,,,,,,,,,,,,,,
,,68346da60e4abaae6a369c02,2026-03-17_16h37.09.355,kallum_motion_pilot_GIST_update_2,2026.1.1,Win32,60.24096386,68346da60e4abaae6a369c02,69b95efdef24cd8a694e89ee,69b961ae4324d911e93ae281,0.1105,0.1105,1,58,220,129,1,fiveseven,,,,,,,,,,,,,,,,,,,,,,,,,,,,,,,,,,,,,,,,,,,,,,,,,,,,,,,,,,,,,,,,,,,,,,,,,,,,,,,,,,,,,,,,,,,,,,,,,,,,,,,,,,,,,,,,,,,,,,,,,,,,,,,,,,,,,,,,,
,,68346da60e4abaae6a369c02,2026-03-17_16h37.09.355,kallum_motion_pilot_GIST_update_2,2026.1.1,Win32,60.24096386,68346da60e4abaae6a369c02,69b95efdef24cd8a694e89ee,69b961ae4324d911e93ae281,0.1108,0.1108,1,59,221,158,1,eightsix,,,,,,,,,,,,,,,,,,,,,,,,,,,,,,,,,,,,,,,,,,,,,,,,,,,,,,,,,,,,,,,,,,,,,,,,,,,,,,,,,,,,,,,,,,,,,,,,,,,,,,,,,,,,,,,,,,,,,,,,,,,,,,,,,,,,,,,,,
,,68346da60e4abaae6a369c02,2026-03-17_16h37.09.355,kallum_motion_pilot_GIST_update_2,2026.1.1,Win32,60.24096386,68346da60e4abaae6a369c02,69b95efdef24cd8a694e89ee,69b961ae4324d911e93ae281,0.1111,0.1111,1,60,222,92,1,sevenfive,,,,,,,,,,,,,,,,,,,,,,,,,,,,,,,,,,,,,,,,,,,,,,,,,,,,,,,,,,,,,,,,,,,,,,,,,,,,,,,,,,,,,,,,,,,,,,,,,,,,,,,,,,,,,,,,,,,,,,,,,,,,,,,,,,,,,,,,,
,,68346da60e4abaae6a369c02,2026-03-17_16h37.09.355,kallum_motion_pilot_GIST_update_2,2026.1.1,Win32,60.24096386,68346da60e4abaae6a369c02,69b95efdef24cd8a694e89ee,69b961ae4324d911e93ae281,0.1114,0.1114,1,61,223,102,1,eightsix,,,,,,,,,,,,,,,,,,,,,,,,,,,,,,,,,,,,,,,,,,,,,,,,,,,,,,,,,,,,,,,,,,,,,,,,,,,,,,,,,,,,,,,,,,,,,,,,,,,,,,,,,,,,,,,,,,,,,,,,,,,,,,,,,,,,,,,,,
,,68346da60e4abaae6a369c02,2026-03-17_16h37.09.355,kallum_motion_pilot_GIST_update_2,2026.1.1,Win32,60.24096386,68346da60e4abaae6a369c02,69b95efdef24cd8a694e89ee,69b961ae4324d911e93ae281,0.1117,0.1117,1,62,224,159,1,eightseven,,,,,,,,,,,,,,,,,,,,,,,,,,,,,,,,,,,,,,,,,,,,,,,,,,,,,,,,,,,,,,,,,,,,,,,,,,,,,,,,,,,,,,,,,,,,,,,,,,,,,,,,,,,,,,,,,,,,,,,,,,,,,,,,,,,,,,,,,
,,68346da60e4abaae6a369c02,2026-03-17_16h37.09.355,kallum_motion_pilot_GIST_update_2,2026.1.1,Win32,60.24096386,68346da60e4abaae6a369c02,69b95efdef24cd8a694e89ee,69b961ae4324d911e93ae281,0.1119,0.1119,1,63,225,141,1,seveneight,,,,,,,,,,,,,,,,,,,,,,,,,,,,,,,,,,,,,,,,,,,,,,,,,,,,,,,,,,,,,,,,,,,,,,,,,,,,,,,,,,,,,,,,,,,,,,,,,,,,,,,,,,,,,,,,,,,,,,,,,,,,,,,,,,,,,,,,,
,,68346da60e4abaae6a369c02,2026-03-17_16h37.09.355,kallum_motion_pilot_GIST_update_2,2026.1.1,Win32,60.24096386,68346da60e4abaae6a369c02,69b95efdef24cd8a694e89ee,69b961ae4324d911e93ae281,0.1122,0.1122,1,64,226,29,1,threefour,,,,,,,,,,,,,,,,,,,,,,,,,,,,,,,,,,,,,,,,,,,,,,,,,,,,,,,,,,,,,,,,,,,,,,,,,,,,,,,,,,,,,,,,,,,,,,,,,,,,,,,,,,,,,,,,,,,,,,,,,,,,,,,,,,,,,,,,,
,,68346da60e4abaae6a369c02,2026-03-17_16h37.09.355,kallum_motion_pilot_GIST_update_2,2026.1.1,Win32,60.24096386,68346da60e4abaae6a369c02,69b95efdef24cd8a694e89ee,69b961ae4324d911e93ae281,0.1125,0.1125,1,65,227,99,1,sixeight,,,,,,,,,,,,,,,,,,,,,,,,,,,,,,,,,,,,,,,,,,,,,,,,,,,,,,,,,,,,,,,,,,,,,,,,,,,,,,,,,,,,,,,,,,,,,,,,,,,,,,,,,,,,,,,,,,,,,,,,,,,,,,,,,,,,,,,,,
,,68346da60e4abaae6a369c02,2026-03-17_16h37.09.355,kallum_motion_pilot_GIST_update_2,2026.1.1,Win32,60.24096386,68346da60e4abaae6a369c02,69b95efdef24cd8a694e89ee,69b961ae4324d911e93ae281,0.1128,0.1128,1,66,228,41,1,onethree,,,,,,,,,,,,,,,,,,,,,,,,,,,,,,,,,,,,,,,,,,,,,,,,,,,,,,,,,,,,,,,,,,,,,,,,,,,,,,,,,,,,,,,,,,,,,,,,,,,,,,,,,,,,,,,,,,,,,,,,,,,,,,,,,,,,,,,,,
,,68346da60e4abaae6a369c02,2026-03-17_16h37.09.355,kallum_motion_pilot_GIST_update_2,2026.1.1,Win32,60.24096386,68346da60e4abaae6a369c02,69b95efdef24cd8a694e89ee,69b961ae4324d911e93ae281,0.1131,0.1131,1,67,229,144,1,fivesix,,,,,,,,,,,,,,,,,,,,,,,,,,,,,,,,,,,,,,,,,,,,,,,,,,,,,,,,,,,,,,,,,,,,,,,,,,,,,,,,,,,,,,,,,,,,,,,,,,,,,,,,,,,,,,,,,,,,,,,,,,,,,,,,,,,,,,,,,
,,68346da60e4abaae6a369c02,2026-03-17_16h37.09.355,kallum_motion_pilot_GIST_update_2,2026.1.1,Win32,60.24096386,68346da60e4abaae6a369c02,69b95efdef24cd8a694e89ee,69b961ae4324d911e93ae281,0.1134,0.1135,1,68,230,46,1,fourtwo,,,,,,,,,,,,,,,,,,,,,,,,,,,,,,,,,,,,,,,,,,,,,,,,,,,,,,,,,,,,,,,,,,,,,,,,,,,,,,,,,,,,,,,,,,,,,,,,,,,,,,,,,,,,,,,,,,,,,,,,,,,,,,,,,,,,,,,,,
,,68346da60e4abaae6a369c02,2026-03-17_16h37.09.355,kallum_motion_pilot_GIST_update_2,2026.1.1,Win32,60.24096386,68346da60e4abaae6a369c02,69b95efdef24cd8a694e89ee,69b961ae4324d911e93ae281,0.1137,0.1137,1,69,231,30,1,fourtwo,,,,,,,,,,,,,,,,,,,,,,,,,,,,,,,,,,,,,,,,,,,,,,,,,,,,,,,,,,,,,,,,,,,,,,,,,,,,,,,,,,,,,,,,,,,,,,,,,,,,,,,,,,,,,,,,,,,,,,,,,,,,,,,,,,,,,,,,,
,,68346da60e4abaae6a369c02,2026-03-17_16h37.09.355,kallum_motion_pilot_GIST_update_2,2026.1.1,Win32,60.24096386,68346da60e4abaae6a369c02,69b95efdef24cd8a694e89ee,69b961ae4324d911e93ae281,0.1141,0.1141,1,70,232,95,1,eightseven,,,,,,,,,,,,,,,,,,,,,,,,,,,,,,,,,,,,,,,,,,,,,,,,,,,,,,,,,,,,,,,,,,,,,,,,,,,,,,,,,,,,,,,,,,,,,,,,,,,,,,,,,,,,,,,,,,,,,,,,,,,,,,,,,,,,,,,,,
,,68346da60e4abaae6a369c02,2026-03-17_16h37.09.355,kallum_motion_pilot_GIST_update_2,2026.1.1,Win32,60.24096386,68346da60e4abaae6a369c02,69b95efdef24cd8a694e89ee,69b961ae4324d911e93ae281,0.1143,0.1143,1,71,233,7,1,fourthree,,,,,,,,,,,,,,,,,,,,,,,,,,,,,,,,,,,,,,,,,,,,,,,,,,,,,,,,,,,,,,,,,,,,,,,,,,,,,,,,,,,,,,,,,,,,,,,,,,,,,,,,,,,,,,,,,,,,,,,,,,,,,,,,,,,,,,,,,
,,68346da60e4abaae6a369c02,2026-03-17_16h37.09.355,kallum_motion_pilot_GIST_update_2,2026.1.1,Win32,60.24096386,68346da60e4abaae6a369c02,69b95efdef24cd8a694e89ee,69b961ae4324d911e93ae281,0.1146,0.1146,1,72,234,20,1,threeone,,,,,,,,,,,,,,,,,,,,,,,,,,,,,,,,,,,,,,,,,,,,,,,,,,,,,,,,,,,,,,,,,,,,,,,,,,,,,,,,,,,,,,,,,,,,,,,,,,,,,,,,,,,,,,,,,,,,,,,,,,,,,,,,,,,,,,,,,
,,68346da60e4abaae6a369c02,2026-03-17_16h37.09.355,kallum_motion_pilot_GIST_update_2,2026.1.1,Win32,60.24096386,68346da60e4abaae6a369c02,69b95efdef24cd8a694e89ee,69b961ae4324d911e93ae281,0.1149,0.1149,1,73,235,31,1,fourthree,,,,,,,,,,,,,,,,,,,,,,,,,,,,,,,,,,,,,,,,,,,,,,,,,,,,,,,,,,,,,,,,,,,,,,,,,,,,,,,,,,,,,,,,,,,,,,,,,,,,,,,,,,,,,,,,,,,,,,,,,,,,,,,,,,,,,,,,,
,,68346da60e4abaae6a369c02,2026-03-17_16h37.09.355,kallum_motion_pilot_GIST_update_2,2026.1.1,Win32,60.24096386,68346da60e4abaae6a369c02,69b95efdef24cd8a694e89ee,69b961ae4324d911e93ae281,0.1152,0.1152,1,74,236,9,1,onethree,,,,,,,,,,,,,,,,,,,,,,,,,,,,,,,,,,,,,,,,,,,,,,,,,,,,,,,,,,,,,,,,,,,,,,,,,,,,,,,,,,,,,,,,,,,,,,,,,,,,,,,,,,,,,,,,,,,,,,,,,,,,,,,,,,,,,,,,,
,,68346da60e4abaae6a369c02,2026-03-17_16h37.09.355,kallum_motion_pilot_GIST_update_2,2026.1.1,Win32,60.24096386,68346da60e4abaae6a369c02,69b95efdef24cd8a694e89ee,69b961ae4324d911e93ae281,0.1155,0.1155,1,75,237,8,1,onetwo,,,,,,,,,,,,,,,,,,,,,,,,,,,,,,,,,,,,,,,,,,,,,,,,,,,,,,,,,,,,,,,,,,,,,,,,,,,,,,,,,,,,,,,,,,,,,,,,,,,,,,,,,,,,,,,,,,,,,,,,,,,,,,,,,,,,,,,,,
,,68346da60e4abaae6a369c02,2026-03-17_16h37.09.355,kallum_motion_pilot_GIST_update_2,2026.1.1,Win32,60.24096386,68346da60e4abaae6a369c02,69b95efdef24cd8a694e89ee,69b961ae4324d911e93ae281,0.1157,0.1157,1,76,238,147,1,sixeight,,,,,,,,,,,,,,,,,,,,,,,,,,,,,,,,,,,,,,,,,,,,,,,,,,,,,,,,,,,,,,,,,,,,,,,,,,,,,,,,,,,,,,,,,,,,,,,,,,,,,,,,,,,,,,,,,,,,,,,,,,,,,,,,,,,,,,,,,
,,68346da60e4abaae6a369c02,2026-03-17_16h37.09.355,kallum_motion_pilot_GIST_update_2,2026.1.1,Win32,60.24096386,68346da60e4abaae6a369c02,69b95efdef24cd8a694e89ee,69b961ae4324d911e93ae281,0.116,0.116,1,77,239,6,1,fourtwo,,,,,,,,,,,,,,,,,,,,,,,,,,,,,,,,,,,,,,,,,,,,,,,,,,,,,,,,,,,,,,,,,,,,,,,,,,,,,,,,,,,,,,,,,,,,,,,,,,,,,,,,,,,,,,,,,,,,,,,,,,,,,,,,,,,,,,,,,
,,68346da60e4abaae6a369c02,2026-03-17_16h37.09.355,kallum_motion_pilot_GIST_update_2,2026.1.1,Win32,60.24096386,68346da60e4abaae6a369c02,69b95efdef24cd8a694e89ee,69b961ae4324d911e93ae281,0.1163,0.1163,1,78,240,73,1,onethree,,,,,,,,,,,,,,,,,,,,,,,,,,,,,,,,,,,,,,,,,,,,,,,,,,,,,,,,,,,,,,,,,,,,,,,,,,,,,,,,,,,,,,,,,,,,,,,,,,,,,,,,,,,,,,,,,,,,,,,,,,,,,,,,,,,,,,,,,
,,68346da60e4abaae6a369c02,2026-03-17_16h37.09.355,kallum_motion_pilot_GIST_update_2,2026.1.1,Win32,60.24096386,68346da60e4abaae6a369c02,69b95efdef24cd8a694e89ee,69b961ae4324d911e93ae281,0.1166,0.1167,1,79,241,107,1,sixeight,,,,,,,,,,,,,,,,,,,,,,,,,,,,,,,,,,,,,,,,,,,,,,,,,,,,,,,,,,,,,,,,,,,,,,,,,,,,,,,,,,,,,,,,,,,,,,,,,,,,,,,,,,,,,,,,,,,,,,,,,,,,,,,,,,,,,,,,,
,,68346da60e4abaae6a369c02,2026-03-17_16h37.09.355,kallum_motion_pilot_GIST_update_2,2026.1.1,Win32,60.24096386,68346da60e4abaae6a369c02,69b95efdef24cd8a694e89ee,69b961ae4324d911e93ae281,0.1171,0.1171,1,80,242,140,1,sevenfive,,,,,,,,,,,,,,,,,,,,,,,,,,,,,,,,,,,,,,,,,,,,,,,,,,,,,,,,,,,,,,,,,,,,,,,,,,,,,,,,,,,,,,,,,,,,,,,,,,,,,,,,,,,,,,,,,,,,,,,,,,,,,,,,,,,,,,,,,
,,68346da60e4abaae6a369c02,2026-03-17_16h37.09.355,kallum_motion_pilot_GIST_update_2,2026.1.1,Win32,60.24096386,68346da60e4abaae6a369c02,69b95efdef24cd8a694e89ee,69b961ae4324d911e93ae281,0.1175,0.1176,1,81,243,87,1,eightseven,,,,,,,,,,,,,,,,,,,,,,,,,,,,,,,,,,,,,,,,,,,,,,,,,,,,,,,,,,,,,,,,,,,,,,,,,,,,,,,,,,,,,,,,,,,,,,,,,,,,,,,,,,,,,,,,,,,,,,,,,,,,,,,,,,,,,,,,,
,,68346da60e4abaae6a369c02,2026-03-17_16h37.09.355,kallum_motion_pilot_GIST_update_2,2026.1.1,Win32,60.24096386,68346da60e4abaae6a369c02,69b95efdef24cd8a694e89ee,69b961ae4324d911e93ae281,0.1181,0.1181,1,82,244,67,1,twofour,,,,,,,,,,,,,,,,,,,,,,,,,,,,,,,,,,,,,,,,,,,,,,,,,,,,,,,,,,,,,,,,,,,,,,,,,,,,,,,,,,,,,,,,,,,,,,,,,,,,,,,,,,,,,,,,,,,,,,,,,,,,,,,,,,,,,,,,,
,,68346da60e4abaae6a369c02,2026-03-17_16h37.09.355,kallum_motion_pilot_GIST_update_2,2026.1.1,Win32,60.24096386,68346da60e4abaae6a369c02,69b95efdef24cd8a694e89ee,69b961ae4324d911e93ae281,0.1184,0.1185,1,83,245,49,1,onethree,,,,,,,,,,,,,,,,,,,,,,,,,,,,,,,,,,,,,,,,,,,,,,,,,,,,,,,,,,,,,,,,,,,,,,,,,,,,,,,,,,,,,,,,,,,,,,,,,,,,,,,,,,,,,,,,,,,,,,,,,,,,,,,,,,,,,,,,,
,,68346da60e4abaae6a369c02,2026-03-17_16h37.09.355,kallum_motion_pilot_GIST_update_2,2026.1.1,Win32,60.24096386,68346da60e4abaae6a369c02,69b95efdef24cd8a694e89ee,69b961ae4324d911e93ae281,0.1187,0.1187,1,84,246,80,1,fivesix,,,,,,,,,,,,,,,,,,,,,,,,,,,,,,,,,,,,,,,,,,,,,,,,,,,,,,,,,,,,,,,,,,,,,,,,,,,,,,,,,,,,,,,,,,,,,,,,,,,,,,,,,,,,,,,,,,,,,,,,,,,,,,,,,,,,,,,,,
,,68346da60e4abaae6a369c02,2026-03-17_16h37.09.355,kallum_motion_pilot_GIST_update_2,2026.1.1,Win32,60.24096386,68346da60e4abaae6a369c02,69b95efdef24cd8a694e89ee,69b961ae4324d911e93ae281,0.119,0.119,1,85,247,44,1,threeone,,,,,,,,,,,,,,,,,,,,,,,,,,,,,,,,,,,,,,,,,,,,,,,,,,,,,,,,,,,,,,,,,,,,,,,,,,,,,,,,,,,,,,,,,,,,,,,,,,,,,,,,,,,,,,,,,,,,,,,,,,,,,,,,,,,,,,,,,
,,68346da60e4abaae6a369c02,2026-03-17_16h37.09.355,kallum_motion_pilot_GIST_update_2,2026.1.1,Win32,60.24096386,68346da60e4abaae6a369c02,69b95efdef24cd8a694e89ee,69b961ae4324d911e93ae281,0.1193,0.1193,1,86,248,51,1,twofour,,,,,,,,,,,,,,,,,,,,,,,,,,,,,,,,,,,,,,,,,,,,,,,,,,,,,,,,,,,,,,,,,,,,,,,,,,,,,,,,,,,,,,,,,,,,,,,,,,,,,,,,,,,,,,,,,,,,,,,,,,,,,,,,,,,,,,,,,
,,68346da60e4abaae6a369c02,2026-03-17_16h37.09.355,kallum_motion_pilot_GIST_update_2,2026.1.1,Win32,60.24096386,68346da60e4abaae6a369c02,69b95efdef24cd8a694e89ee,69b961ae4324d911e93ae281,0.1196,0.1196,1,87,249,142,1,eightsix,,,,,,,,,,,,,,,,,,,,,,,,,,,,,,,,,,,,,,,,,,,,,,,,,,,,,,,,,,,,,,,,,,,,,,,,,,,,,,,,,,,,,,,,,,,,,,,,,,,,,,,,,,,,,,,,,,,,,,,,,,,,,,,,,,,,,,,,,
,,68346da60e4abaae6a369c02,2026-03-17_16h37.09.355,kallum_motion_pilot_GIST_update_2,2026.1.1,Win32,60.24096386,68346da60e4abaae6a369c02,69b95efdef24cd8a694e89ee,69b961ae4324d911e93ae281,0.1199,0.1199,1,88,250,118,1,eightsix,,,,,,,,,,,,,,,,,,,,,,,,,,,,,,,,,,,,,,,,,,,,,,,,,,,,,,,,,,,,,,,,,,,,,,,,,,,,,,,,,,,,,,,,,,,,,,,,,,,,,,,,,,,,,,,,,,,,,,,,,,,,,,,,,,,,,,,,,
,,68346da60e4abaae6a369c02,2026-03-17_16h37.09.355,kallum_motion_pilot_GIST_update_2,2026.1.1,Win32,60.24096386,68346da60e4abaae6a369c02,69b95efdef24cd8a694e89ee,69b961ae4324d911e93ae281,0.1202,0.1202,1,89,251,127,1,eightseven,,,,,,,,,,,,,,,,,,,,,,,,,,,,,,,,,,,,,,,,,,,,,,,,,,,,,,,,,,,,,,,,,,,,,,,,,,,,,,,,,,,,,,,,,,,,,,,,,,,,,,,,,,,,,,,,,,,,,,,,,,,,,,,,,,,,,,,,,
,,68346da60e4abaae6a369c02,2026-03-17_16h37.09.355,kallum_motion_pilot_GIST_update_2,2026.1.1,Win32,60.24096386,68346da60e4abaae6a369c02,69b95efdef24cd8a694e89ee,69b961ae4324d911e93ae281,0.1204,0.1204,1,90,252,70,1,fourtwo,,,,,,,,,,,,,,,,,,,,,,,,,,,,,,,,,,,,,,,,,,,,,,,,,,,,,,,,,,,,,,,,,,,,,,,,,,,,,,,,,,,,,,,,,,,,,,,,,,,,,,,,,,,,,,,,,,,,,,,,,,,,,,,,,,,,,,,,,
,,68346da60e4abaae6a369c02,2026-03-17_16h37.09.355,kallum_motion_pilot_GIST_update_2,2026.1.1,Win32,60.24096386,68346da60e4abaae6a369c02,69b95efdef24cd8a694e89ee,69b961ae4324d911e93ae281,0.121,0.1211,1,91,253,24,1,onetwo,,,,,,,,,,,,,,,,,,,,,,,,,,,,,,,,,,,,,,,,,,,,,,,,,,,,,,,,,,,,,,,,,,,,,,,,,,,,,,,,,,,,,,,,,,,,,,,,,,,,,,,,,,,,,,,,,,,,,,,,,,,,,,,,,,,,,,,,,
,,68346da60e4abaae6a369c02,2026-03-17_16h37.09.355,kallum_motion_pilot_GIST_update_2,2026.1.1,Win32,60.24096386,68346da60e4abaae6a369c02,69b95efdef24cd8a694e89ee,69b961ae4324d911e93ae281,0.1215,0.1215,1,92,254,71,1,fourthree,,,,,,,,,,,,,,,,,,,,,,,,,,,,,,,,,,,,,,,,,,,,,,,,,,,,,,,,,,,,,,,,,,,,,,,,,,,,,,,,,,,,,,,,,,,,,,,,,,,,,,,,,,,,,,,,,,,,,,,,,,,,,,,,,,,,,,,,,
,,68346da60e4abaae6a369c02,2026-03-17_16h37.09.355,kallum_motion_pilot_GIST_update_2,2026.1.1,Win32,60.24096386,68346da60e4abaae6a369c02,69b95efdef24cd8a694e89ee,69b961ae4324d911e93ae281,0.122,0.122,1,93,255,94,1,eightsix,,,,,,,,,,,,,,,,,,,,,,,,,,,,,,,,,,,,,,,,,,,,,,,,,,,,,,,,,,,,,,,,,,,,,,,,,,,,,,,,,,,,,,,,,,,,,,,,,,,,,,,,,,,,,,,,,,,,,,,,,,,,,,,,,,,,,,,,,
,,68346da60e4abaae6a369c02,2026-03-17_16h37.09.355,kallum_motion_pilot_GIST_update_2,2026.1.1,Win32,60.24096386,68346da60e4abaae6a369c02,69b95efdef24cd8a694e89ee,69b961ae4324d911e93ae281,0.1224,0.1224,1,94,256,137,1,fiveseven,,,,,,,,,,,,,,,,,,,,,,,,,,,,,,,,,,,,,,,,,,,,,,,,,,,,,,,,,,,,,,,,,,,,,,,,,,,,,,,,,,,,,,,,,,,,,,,,,,,,,,,,,,,,,,,,,,,,,,,,,,,,,,,,,,,,,,,,,
,,68346da60e4abaae6a369c02,2026-03-17_16h37.09.355,kallum_motion_pilot_GIST_update_2,2026.1.1,Win32,60.24096386,68346da60e4abaae6a369c02,69b95efdef24cd8a694e89ee,69b961ae4324d911e93ae281,0.1228,0.1228,1,95,257,56,1,onetwo,,,,,,,,,,,,,,,,,,,,,,,,,,,,,,,,,,,,,,,,,,,,,,,,,,,,,,,,,,,,,,,,,,,,,,,,,,,,,,,,,,,,,,,,,,,,,,,,,,,,,,,,,,,,,,,,,,,,,,,,,,,,,,,,,,,,,,,,,
,,68346da60e4abaae6a369c02,2026-03-17_16h37.09.355,kallum_motion_pilot_GIST_update_2,2026.1.1,Win32,60.24096386,68346da60e4abaae6a369c02,69b95efdef24cd8a694e89ee,69b961ae4324d911e93ae281,0.1231,0.1231,1,96,258,23,1,fourthree,,,,,,,,,,,,,,,,,,,,,,,,,,,,,,,,,,,,,,,,,,,,,,,,,,,,,,,,,,,,,,,,,,,,,,,,,,,,,,,,,,,,,,,,,,,,,,,,,,,,,,,,,,,,,,,,,,,,,,,,,,,,,,,,,,,,,,,,,
,,68346da60e4abaae6a369c02,2026-03-17_16h37.09.355,kallum_motion_pilot_GIST_update_2,2026.1.1,Win32,60.24096386,68346da60e4abaae6a369c02,69b95efdef24cd8a694e89ee,69b961ae4324d911e93ae281,0.1234,0.1234,1,97,259,84,1,sevenfive,,,,,,,,,,,,,,,,,,,,,,,,,,,,,,,,,,,,,,,,,,,,,,,,,,,,,,,,,,,,,,,,,,,,,,,,,,,,,,,,,,,,,,,,,,,,,,,,,,,,,,,,,,,,,,,,,,,,,,,,,,,,,,,,,,,,,,,,,
,,68346da60e4abaae6a369c02,2026-03-17_16h37.09.355,kallum_motion_pilot_GIST_update_2,2026.1.1,Win32,60.24096386,68346da60e4abaae6a369c02,69b95efdef24cd8a694e89ee,69b961ae4324d911e93ae281,0.1237,0.1237,1,98,260,117,1,seveneight,,,,,,,,,,,,,,,,,,,,,,,,,,,,,,,,,,,,,,,,,,,,,,,,,,,,,,,,,,,,,,,,,,,,,,,,,,,,,,,,,,,,,,,,,,,,,,,,,,,,,,,,,,,,,,,,,,,,,,,,,,,,,,,,,,,,,,,,,
,,68346da60e4abaae6a369c02,2026-03-17_16h37.09.355,kallum_motion_pilot_GIST_update_2,2026.1.1,Win32,60.24096386,68346da60e4abaae6a369c02,69b95efdef24cd8a694e89ee,69b961ae4324d911e93ae281,0.124,0.124,1,99,261,88,1,fivesix,,,,,,,,,,,,,,,,,,,,,,,,,,,,,,,,,,,,,,,,,,,,,,,,,,,,,,,,,,,,,,,,,,,,,,,,,,,,,,,,,,,,,,,,,,,,,,,,,,,,,,,,,,,,,,,,,,,,,,,,,,,,,,,,,,,,,,,,,
,,68346da60e4abaae6a369c02,2026-03-17_16h37.09.355,kallum_motion_pilot_GIST_update_2,2026.1.1,Win32,60.24096386,68346da60e4abaae6a369c02,69b95efdef24cd8a694e89ee,69b961ae4324d911e93ae281,0.1243,0.1243,1,100,262,52,1,threeone,,,,,,,,,,,,,,,,,,,,,,,,,,,,,,,,,,,,,,,,,,,,,,,,,,,,,,,,,,,,,,,,,,,,,,,,,,,,,,,,,,,,,,,,,,,,,,,,,,,,,,,,,,,,,,,,,,,,,,,,,,,,,,,,,,,,,,,,,
,,68346da60e4abaae6a369c02,2026-03-17_16h37.09.355,kallum_motion_pilot_GIST_update_2,2026.1.1,Win32,60.24096386,68346da60e4abaae6a369c02,69b95efdef24cd8a694e89ee,69b961ae4324d911e93ae281,0.1246,0.1246,1,101,263,90,1,sixfive,,,,,,,,,,,,,,,,,,,,,,,,,,,,,,,,,,,,,,,,,,,,,,,,,,,,,,,,,,,,,,,,,,,,,,,,,,,,,,,,,,,,,,,,,,,,,,,,,,,,,,,,,,,,,,,,,,,,,,,,,,,,,,,,,,,,,,,,,
,,68346da60e4abaae6a369c02,2026-03-17_16h37.09.355,kallum_motion_pilot_GIST_update_2,2026.1.1,Win32,60.24096386,68346da60e4abaae6a369c02,69b95efdef24cd8a694e89ee,69b961ae4324d911e93ae281,0.1251,0.1251,1,102,264,27,1,twofour,,,,,,,,,,,,,,,,,,,,,,,,,,,,,,,,,,,,,,,,,,,,,,,,,,,,,,,,,,,,,,,,,,,,,,,,,,,,,,,,,,,,,,,,,,,,,,,,,,,,,,,,,,,,,,,,,,,,,,,,,,,,,,,,,,,,,,,,,
,,68346da60e4abaae6a369c02,2026-03-17_16h37.09.355,kallum_motion_pilot_GIST_update_2,2026.1.1,Win32,60.24096386,68346da60e4abaae6a369c02,69b95efdef24cd8a694e89ee,69b961ae4324d911e93ae281,0.1255,0.1255,1,103,265,78,1,fourtwo,,,,,,,,,,,,,,,,,,,,,,,,,,,,,,,,,,,,,,,,,,,,,,,,,,,,,,,,,,,,,,,,,,,,,,,,,,,,,,,,,,,,,,,,,,,,,,,,,,,,,,,,,,,,,,,,,,,,,,,,,,,,,,,,,,,,,,,,,
,,68346da60e4abaae6a369c02,2026-03-17_16h37.09.355,kallum_motion_pilot_GIST_update_2,2026.1.1,Win32,60.24096386,68346da60e4abaae6a369c02,69b95efdef24cd8a694e89ee,69b961ae4324d911e93ae281,0.1259,0.126,1,104,266,104,1,fivesix,,,,,,,,,,,,,,,,,,,,,,,,,,,,,,,,,,,,,,,,,,,,,,,,,,,,,,,,,,,,,,,,,,,,,,,,,,,,,,,,,,,,,,,,,,,,,,,,,,,,,,,,,,,,,,,,,,,,,,,,,,,,,,,,,,,,,,,,,
