startup.started,startup.stopped,Prolific ID*,date,expName,psychopyVersion,OS,frameRate,participant,study_id,session,stimpositions.started,stimpositions.stopped,hardcoded_stimulus_positions.thisRepN,hardcoded_stimulus_positions.thisTrialN,hardcoded_stimulus_positions.thisN,hardcoded_stimulus_positions.thisIndex,hardcoded_stimulus_positions.ran,StimulusPos,stimorientation.started,stimorientation.stopped,prac_stimorientation_import_loop.thisRepN,prac_stimorientation_import_loop.thisTrialN,prac_stimorientation_import_loop.thisN,prac_stimorientation_import_loop.thisIndex,prac_stimorientation_import_loop.ran,Stimorientation,welcome_instr.started,welcome_instr.stopped,key_resp.keys,key_resp.rt,key_resp.duration,response_steppedout_1.started,response_steppedout_1.stopped,key_resp_20.keys,key_resp_20.rt,key_resp_20.duration,response_steppedout_2.started,response_steppedout_2.stopped,key_resp_19.keys,key_resp_19.rt,key_resp_19.duration,stim_response_instr.started,stim_response_instr.stopped,key_resp_15.keys,key_resp_15.rt,key_resp_15.duration,direction_instr_2.started,direction_instr_2.stopped,key_resp_9.keys,key_resp_9.rt,key_resp_9.duration,instr_prac.started,instr_prac.stopped,key_resp_10.keys,key_resp_10.rt,key_resp_10.duration,Stim1_display_prac.started,Stim1_display_prac.stopped,Ecc,Circle1_ori,Circle2_ori,response_prac.started,similarity,response_time,response_prac.stopped,mouse_5.x,mouse_5.y,mouse_5.leftButton,mouse_5.midButton,mouse_5.rightButton,mouse_5.clicked_name,responseprac_feedback.started,responseprac_feedback.stopped,summary2_prac.started,summary2_prac.stopped,mouse_6.x,mouse_6.y,mouse_6.leftButton,mouse_6.midButton,mouse_6.rightButton,mouse_6.clicked_name,duringprac.thisRepN,duringprac.thisTrialN,duringprac.thisN,duringprac.thisIndex,duringprac.ran,begin.started,begin.stopped,key_resp_22.keys,key_resp_22.rt,key_resp_22.duration,Stim1_display.started,Stim1_display.stopped,circle1_ori,circle2_ori,circle1_SF,circle2_SF,response.started,response.stopped,mouse.x,mouse.y,mouse.leftButton,mouse.midButton,mouse.rightButton,mouse.clicked_name,trialnumber,double_pass.thisRepN,double_pass.thisTrialN,double_pass.thisN,double_pass.thisIndex,double_pass.ran,double_pass.order,main_trial.thisRepN,main_trial.thisTrialN,main_trial.thisN,main_trial.thisIndex,main_trial.ran,main_trial.order,Trial_Counter,Catch,Frequencies,response_2.started,response_2.stopped,mouse_2.x,mouse_2.y,mouse_2.leftButton,mouse_2.midButton,mouse_2.rightButton,mouse_2.clicked_name,special_trial.started,special_trial.stopped,catch_1.started,catch_1.stopped,mouse_3.x,mouse_3.y,mouse_3.leftButton,mouse_3.midButton,mouse_3.rightButton,catchresponse,catchnumber,response_time_catch,response_sum.started,response_sum.stopped,mouse_11.x,mouse_11.y,mouse_11.leftButton,mouse_11.midButton,mouse_11.rightButton,flip_presentation_sequence_for_double_pass.started,flip_presentation_sequence_for_double_pass.stopped,goodbye.started,goodbye.stopped,key_resp_3.keys,key_resp_3.rt,key_resp_3.duration
0.0001,0.0002,68e5424f31cdcdd73278cc50,2026-03-17_15h51.50.710,kallum_motion_pilot_GIST_update_2,2026.1.1,Win32,147.0588235,68e5424f31cdcdd73278cc50,69b92ab4aef6dee357cd729a,69b92ad410ff5539006033a7,,,,,,,,,,,,,,,,,,,,,,,,,,,,,,,,,,,,,,,,,,,,,,,,,,,,,,,,,,,,,,,,,,,,,,,,,,,,,,,,,,,,,,,,,,,,,,,,,,,,,,,,,,,,,,,,,,,,,,,,,,,,,,,,,,,,,,,,,,,,,,,,,
,,68e5424f31cdcdd73278cc50,2026-03-17_15h51.50.710,kallum_motion_pilot_GIST_update_2,2026.1.1,Win32,147.0588235,68e5424f31cdcdd73278cc50,69b92ab4aef6dee357cd729a,69b92ad410ff5539006033a7,0.0135,0.0135,0,0,0,52,1,threeone,,,,,,,,,,,,,,,,,,,,,,,,,,,,,,,,,,,,,,,,,,,,,,,,,,,,,,,,,,,,,,,,,,,,,,,,,,,,,,,,,,,,,,,,,,,,,,,,,,,,,,,,,,,,,,,,,,,,,,,,,,,,,,,,,,,,,,,,,
,,68e5424f31cdcdd73278cc50,2026-03-17_15h51.50.710,kallum_motion_pilot_GIST_update_2,2026.1.1,Win32,147.0588235,68e5424f31cdcdd73278cc50,69b92ab4aef6dee357cd729a,69b92ad410ff5539006033a7,0.0137,0.0137,0,1,1,83,1,sixeight,,,,,,,,,,,,,,,,,,,,,,,,,,,,,,,,,,,,,,,,,,,,,,,,,,,,,,,,,,,,,,,,,,,,,,,,,,,,,,,,,,,,,,,,,,,,,,,,,,,,,,,,,,,,,,,,,,,,,,,,,,,,,,,,,,,,,,,,,
,,68e5424f31cdcdd73278cc50,2026-03-17_15h51.50.710,kallum_motion_pilot_GIST_update_2,2026.1.1,Win32,147.0588235,68e5424f31cdcdd73278cc50,69b92ab4aef6dee357cd729a,69b92ad410ff5539006033a7,0.0138,0.0138,0,2,2,24,1,onetwo,,,,,,,,,,,,,,,,,,,,,,,,,,,,,,,,,,,,,,,,,,,,,,,,,,,,,,,,,,,,,,,,,,,,,,,,,,,,,,,,,,,,,,,,,,,,,,,,,,,,,,,,,,,,,,,,,,,,,,,,,,,,,,,,,,,,,,,,,
,,68e5424f31cdcdd73278cc50,2026-03-17_15h51.50.710,kallum_motion_pilot_GIST_update_2,2026.1.1,Win32,147.0588235,68e5424f31cdcdd73278cc50,69b92ab4aef6dee357cd729a,69b92ad410ff5539006033a7,0.014,0.014,0,3,3,60,1,threeone,,,,,,,,,,,,,,,,,,,,,,,,,,,,,,,,,,,,,,,,,,,,,,,,,,,,,,,,,,,,,,,,,,,,,,,,,,,,,,,,,,,,,,,,,,,,,,,,,,,,,,,,,,,,,,,,,,,,,,,,,,,,,,,,,,,,,,,,,
,,68e5424f31cdcdd73278cc50,2026-03-17_15h51.50.710,kallum_motion_pilot_GIST_update_2,2026.1.1,Win32,147.0588235,68e5424f31cdcdd73278cc50,69b92ab4aef6dee357cd729a,69b92ad410ff5539006033a7,0.014,0.014,0,4,4,98,1,sixfive,,,,,,,,,,,,,,,,,,,,,,,,,,,,,,,,,,,,,,,,,,,,,,,,,,,,,,,,,,,,,,,,,,,,,,,,,,,,,,,,,,,,,,,,,,,,,,,,,,,,,,,,,,,,,,,,,,,,,,,,,,,,,,,,,,,,,,,,,
,,68e5424f31cdcdd73278cc50,2026-03-17_15h51.50.710,kallum_motion_pilot_GIST_update_2,2026.1.1,Win32,147.0588235,68e5424f31cdcdd73278cc50,69b92ab4aef6dee357cd729a,69b92ad410ff5539006033a7,0.0141,0.0141,0,5,5,53,1,threefour,,,,,,,,,,,,,,,,,,,,,,,,,,,,,,,,,,,,,,,,,,,,,,,,,,,,,,,,,,,,,,,,,,,,,,,,,,,,,,,,,,,,,,,,,,,,,,,,,,,,,,,,,,,,,,,,,,,,,,,,,,,,,,,,,,,,,,,,,
,,68e5424f31cdcdd73278cc50,2026-03-17_15h51.50.710,kallum_motion_pilot_GIST_update_2,2026.1.1,Win32,147.0588235,68e5424f31cdcdd73278cc50,69b92ab4aef6dee357cd729a,69b92ad410ff5539006033a7,0.0142,0.0142,0,6,6,136,1,fivesix,,,,,,,,,,,,,,,,,,,,,,,,,,,,,,,,,,,,,,,,,,,,,,,,,,,,,,,,,,,,,,,,,,,,,,,,,,,,,,,,,,,,,,,,,,,,,,,,,,,,,,,,,,,,,,,,,,,,,,,,,,,,,,,,,,,,,,,,,
,,68e5424f31cdcdd73278cc50,2026-03-17_15h51.50.710,kallum_motion_pilot_GIST_update_2,2026.1.1,Win32,147.0588235,68e5424f31cdcdd73278cc50,69b92ab4aef6dee357cd729a,69b92ad410ff5539006033a7,0.0142,0.0142,0,7,7,128,1,fivesix,,,,,,,,,,,,,,,,,,,,,,,,,,,,,,,,,,,,,,,,,,,,,,,,,,,,,,,,,,,,,,,,,,,,,,,,,,,,,,,,,,,,,,,,,,,,,,,,,,,,,,,,,,,,,,,,,,,,,,,,,,,,,,,,,,,,,,,,,
,,68e5424f31cdcdd73278cc50,2026-03-17_15h51.50.710,kallum_motion_pilot_GIST_update_2,2026.1.1,Win32,147.0588235,68e5424f31cdcdd73278cc50,69b92ab4aef6dee357cd729a,69b92ad410ff5539006033a7,0.0143,0.0143,0,8,8,68,1,threeone,,,,,,,,,,,,,,,,,,,,,,,,,,,,,,,,,,,,,,,,,,,,,,,,,,,,,,,,,,,,,,,,,,,,,,,,,,,,,,,,,,,,,,,,,,,,,,,,,,,,,,,,,,,,,,,,,,,,,,,,,,,,,,,,,,,,,,,,,
,,68e5424f31cdcdd73278cc50,2026-03-17_15h51.50.710,kallum_motion_pilot_GIST_update_2,2026.1.1,Win32,147.0588235,68e5424f31cdcdd73278cc50,69b92ab4aef6dee357cd729a,69b92ad410ff5539006033a7,0.0144,0.0144,0,9,9,88,1,fivesix,,,,,,,,,,,,,,,,,,,,,,,,,,,,,,,,,,,,,,,,,,,,,,,,,,,,,,,,,,,,,,,,,,,,,,,,,,,,,,,,,,,,,,,,,,,,,,,,,,,,,,,,,,,,,,,,,,,,,,,,,,,,,,,,,,,,,,,,,
,,68e5424f31cdcdd73278cc50,2026-03-17_15h51.50.710,kallum_motion_pilot_GIST_update_2,2026.1.1,Win32,147.0588235,68e5424f31cdcdd73278cc50,69b92ab4aef6dee357cd729a,69b92ad410ff5539006033a7,0.0145,0.0145,0,10,10,18,1,twoone,,,,,,,,,,,,,,,,,,,,,,,,,,,,,,,,,,,,,,,,,,,,,,,,,,,,,,,,,,,,,,,,,,,,,,,,,,,,,,,,,,,,,,,,,,,,,,,,,,,,,,,,,,,,,,,,,,,,,,,,,,,,,,,,,,,,,,,,,
,,68e5424f31cdcdd73278cc50,2026-03-17_15h51.50.710,kallum_motion_pilot_GIST_update_2,2026.1.1,Win32,147.0588235,68e5424f31cdcdd73278cc50,69b92ab4aef6dee357cd729a,69b92ad410ff5539006033a7,0.0146,0.0146,0,11,11,85,1,seveneight,,,,,,,,,,,,,,,,,,,,,,,,,,,,,,,,,,,,,,,,,,,,,,,,,,,,,,,,,,,,,,,,,,,,,,,,,,,,,,,,,,,,,,,,,,,,,,,,,,,,,,,,,,,,,,,,,,,,,,,,,,,,,,,,,,,,,,,,,
,,68e5424f31cdcdd73278cc50,2026-03-17_15h51.50.710,kallum_motion_pilot_GIST_update_2,2026.1.1,Win32,147.0588235,68e5424f31cdcdd73278cc50,69b92ab4aef6dee357cd729a,69b92ad410ff5539006033a7,0.0147,0.0147,0,12,12,57,1,onethree,,,,,,,,,,,,,,,,,,,,,,,,,,,,,,,,,,,,,,,,,,,,,,,,,,,,,,,,,,,,,,,,,,,,,,,,,,,,,,,,,,,,,,,,,,,,,,,,,,,,,,,,,,,,,,,,,,,,,,,,,,,,,,,,,,,,,,,,,
,,68e5424f31cdcdd73278cc50,2026-03-17_15h51.50.710,kallum_motion_pilot_GIST_update_2,2026.1.1,Win32,147.0588235,68e5424f31cdcdd73278cc50,69b92ab4aef6dee357cd729a,69b92ad410ff5539006033a7,0.0147,0.0147,0,13,13,142,1,eightsix,,,,,,,,,,,,,,,,,,,,,,,,,,,,,,,,,,,,,,,,,,,,,,,,,,,,,,,,,,,,,,,,,,,,,,,,,,,,,,,,,,,,,,,,,,,,,,,,,,,,,,,,,,,,,,,,,,,,,,,,,,,,,,,,,,,,,,,,,
,,68e5424f31cdcdd73278cc50,2026-03-17_15h51.50.710,kallum_motion_pilot_GIST_update_2,2026.1.1,Win32,147.0588235,68e5424f31cdcdd73278cc50,69b92ab4aef6dee357cd729a,69b92ad410ff5539006033a7,0.0148,0.0148,0,14,14,20,1,threeone,,,,,,,,,,,,,,,,,,,,,,,,,,,,,,,,,,,,,,,,,,,,,,,,,,,,,,,,,,,,,,,,,,,,,,,,,,,,,,,,,,,,,,,,,,,,,,,,,,,,,,,,,,,,,,,,,,,,,,,,,,,,,,,,,,,,,,,,,
,,68e5424f31cdcdd73278cc50,2026-03-17_15h51.50.710,kallum_motion_pilot_GIST_update_2,2026.1.1,Win32,147.0588235,68e5424f31cdcdd73278cc50,69b92ab4aef6dee357cd729a,69b92ad410ff5539006033a7,0.0148,0.0148,0,15,15,134,1,eightsix,,,,,,,,,,,,,,,,,,,,,,,,,,,,,,,,,,,,,,,,,,,,,,,,,,,,,,,,,,,,,,,,,,,,,,,,,,,,,,,,,,,,,,,,,,,,,,,,,,,,,,,,,,,,,,,,,,,,,,,,,,,,,,,,,,,,,,,,,
,,68e5424f31cdcdd73278cc50,2026-03-17_15h51.50.710,kallum_motion_pilot_GIST_update_2,2026.1.1,Win32,147.0588235,68e5424f31cdcdd73278cc50,69b92ab4aef6dee357cd729a,69b92ad410ff5539006033a7,0.0149,0.0149,0,16,16,40,1,onetwo,,,,,,,,,,,,,,,,,,,,,,,,,,,,,,,,,,,,,,,,,,,,,,,,,,,,,,,,,,,,,,,,,,,,,,,,,,,,,,,,,,,,,,,,,,,,,,,,,,,,,,,,,,,,,,,,,,,,,,,,,,,,,,,,,,,,,,,,,
,,68e5424f31cdcdd73278cc50,2026-03-17_15h51.50.710,kallum_motion_pilot_GIST_update_2,2026.1.1,Win32,147.0588235,68e5424f31cdcdd73278cc50,69b92ab4aef6dee357cd729a,69b92ad410ff5539006033a7,0.0149,0.0149,0,17,17,155,1,sixeight,,,,,,,,,,,,,,,,,,,,,,,,,,,,,,,,,,,,,,,,,,,,,,,,,,,,,,,,,,,,,,,,,,,,,,,,,,,,,,,,,,,,,,,,,,,,,,,,,,,,,,,,,,,,,,,,,,,,,,,,,,,,,,,,,,,,,,,,,
,,68e5424f31cdcdd73278cc50,2026-03-17_15h51.50.710,kallum_motion_pilot_GIST_update_2,2026.1.1,Win32,147.0588235,68e5424f31cdcdd73278cc50,69b92ab4aef6dee357cd729a,69b92ad410ff5539006033a7,0.0149,0.015,0,18,18,101,1,seveneight,,,,,,,,,,,,,,,,,,,,,,,,,,,,,,,,,,,,,,,,,,,,,,,,,,,,,,,,,,,,,,,,,,,,,,,,,,,,,,,,,,,,,,,,,,,,,,,,,,,,,,,,,,,,,,,,,,,,,,,,,,,,,,,,,,,,,,,,,
,,68e5424f31cdcdd73278cc50,2026-03-17_15h51.50.710,kallum_motion_pilot_GIST_update_2,2026.1.1,Win32,147.0588235,68e5424f31cdcdd73278cc50,69b92ab4aef6dee357cd729a,69b92ad410ff5539006033a7,0.0151,0.0151,0,19,19,108,1,sevenfive,,,,,,,,,,,,,,,,,,,,,,,,,,,,,,,,,,,,,,,,,,,,,,,,,,,,,,,,,,,,,,,,,,,,,,,,,,,,,,,,,,,,,,,,,,,,,,,,,,,,,,,,,,,,,,,,,,,,,,,,,,,,,,,,,,,,,,,,,
,,68e5424f31cdcdd73278cc50,2026-03-17_15h51.50.710,kallum_motion_pilot_GIST_update_2,2026.1.1,Win32,147.0588235,68e5424f31cdcdd73278cc50,69b92ab4aef6dee357cd729a,69b92ad410ff5539006033a7,0.0151,0.0151,0,20,20,50,1,twoone,,,,,,,,,,,,,,,,,,,,,,,,,,,,,,,,,,,,,,,,,,,,,,,,,,,,,,,,,,,,,,,,,,,,,,,,,,,,,,,,,,,,,,,,,,,,,,,,,,,,,,,,,,,,,,,,,,,,,,,,,,,,,,,,,,,,,,,,,
,,68e5424f31cdcdd73278cc50,2026-03-17_15h51.50.710,kallum_motion_pilot_GIST_update_2,2026.1.1,Win32,147.0588235,68e5424f31cdcdd73278cc50,69b92ab4aef6dee357cd729a,69b92ad410ff5539006033a7,0.0152,0.0152,0,21,21,12,1,threeone,,,,,,,,,,,,,,,,,,,,,,,,,,,,,,,,,,,,,,,,,,,,,,,,,,,,,,,,,,,,,,,,,,,,,,,,,,,,,,,,,,,,,,,,,,,,,,,,,,,,,,,,,,,,,,,,,,,,,,,,,,,,,,,,,,,,,,,,,
,,68e5424f31cdcdd73278cc50,2026-03-17_15h51.50.710,kallum_motion_pilot_GIST_update_2,2026.1.1,Win32,147.0588235,68e5424f31cdcdd73278cc50,69b92ab4aef6dee357cd729a,69b92ad410ff5539006033a7,0.0152,0.0152,0,22,22,160,1,fivesix,,,,,,,,,,,,,,,,,,,,,,,,,,,,,,,,,,,,,,,,,,,,,,,,,,,,,,,,,,,,,,,,,,,,,,,,,,,,,,,,,,,,,,,,,,,,,,,,,,,,,,,,,,,,,,,,,,,,,,,,,,,,,,,,,,,,,,,,,
,,68e5424f31cdcdd73278cc50,2026-03-17_15h51.50.710,kallum_motion_pilot_GIST_update_2,2026.1.1,Win32,147.0588235,68e5424f31cdcdd73278cc50,69b92ab4aef6dee357cd729a,69b92ad410ff5539006033a7,0.0153,0.0153,0,23,23,137,1,fiveseven,,,,,,,,,,,,,,,,,,,,,,,,,,,,,,,,,,,,,,,,,,,,,,,,,,,,,,,,,,,,,,,,,,,,,,,,,,,,,,,,,,,,,,,,,,,,,,,,,,,,,,,,,,,,,,,,,,,,,,,,,,,,,,,,,,,,,,,,,
,,68e5424f31cdcdd73278cc50,2026-03-17_15h51.50.710,kallum_motion_pilot_GIST_update_2,2026.1.1,Win32,147.0588235,68e5424f31cdcdd73278cc50,69b92ab4aef6dee357cd729a,69b92ad410ff5539006033a7,0.0154,0.0154,0,24,24,58,1,twoone,,,,,,,,,,,,,,,,,,,,,,,,,,,,,,,,,,,,,,,,,,,,,,,,,,,,,,,,,,,,,,,,,,,,,,,,,,,,,,,,,,,,,,,,,,,,,,,,,,,,,,,,,,,,,,,,,,,,,,,,,,,,,,,,,,,,,,,,,
,,68e5424f31cdcdd73278cc50,2026-03-17_15h51.50.710,kallum_motion_pilot_GIST_update_2,2026.1.1,Win32,147.0588235,68e5424f31cdcdd73278cc50,69b92ab4aef6dee357cd729a,69b92ad410ff5539006033a7,0.0154,0.0154,0,25,25,149,1,seveneight,,,,,,,,,,,,,,,,,,,,,,,,,,,,,,,,,,,,,,,,,,,,,,,,,,,,,,,,,,,,,,,,,,,,,,,,,,,,,,,,,,,,,,,,,,,,,,,,,,,,,,,,,,,,,,,,,,,,,,,,,,,,,,,,,,,,,,,,,
,,68e5424f31cdcdd73278cc50,2026-03-17_15h51.50.710,kallum_motion_pilot_GIST_update_2,2026.1.1,Win32,147.0588235,68e5424f31cdcdd73278cc50,69b92ab4aef6dee357cd729a,69b92ad410ff5539006033a7,0.0155,0.0155,0,26,26,82,1,sixfive,,,,,,,,,,,,,,,,,,,,,,,,,,,,,,,,,,,,,,,,,,,,,,,,,,,,,,,,,,,,,,,,,,,,,,,,,,,,,,,,,,,,,,,,,,,,,,,,,,,,,,,,,,,,,,,,,,,,,,,,,,,,,,,,,,,,,,,,,
,,68e5424f31cdcdd73278cc50,2026-03-17_15h51.50.710,kallum_motion_pilot_GIST_update_2,2026.1.1,Win32,147.0588235,68e5424f31cdcdd73278cc50,69b92ab4aef6dee357cd729a,69b92ad410ff5539006033a7,0.0155,0.0155,0,27,27,48,1,onetwo,,,,,,,,,,,,,,,,,,,,,,,,,,,,,,,,,,,,,,,,,,,,,,,,,,,,,,,,,,,,,,,,,,,,,,,,,,,,,,,,,,,,,,,,,,,,,,,,,,,,,,,,,,,,,,,,,,,,,,,,,,,,,,,,,,,,,,,,,
,,68e5424f31cdcdd73278cc50,2026-03-17_15h51.50.710,kallum_motion_pilot_GIST_update_2,2026.1.1,Win32,147.0588235,68e5424f31cdcdd73278cc50,69b92ab4aef6dee357cd729a,69b92ad410ff5539006033a7,0.0156,0.0156,0,28,28,69,1,threefour,,,,,,,,,,,,,,,,,,,,,,,,,,,,,,,,,,,,,,,,,,,,,,,,,,,,,,,,,,,,,,,,,,,,,,,,,,,,,,,,,,,,,,,,,,,,,,,,,,,,,,,,,,,,,,,,,,,,,,,,,,,,,,,,,,,,,,,,,
,,68e5424f31cdcdd73278cc50,2026-03-17_15h51.50.710,kallum_motion_pilot_GIST_update_2,2026.1.1,Win32,147.0588235,68e5424f31cdcdd73278cc50,69b92ab4aef6dee357cd729a,69b92ad410ff5539006033a7,0.0157,0.0157,0,29,29,118,1,eightsix,,,,,,,,,,,,,,,,,,,,,,,,,,,,,,,,,,,,,,,,,,,,,,,,,,,,,,,,,,,,,,,,,,,,,,,,,,,,,,,,,,,,,,,,,,,,,,,,,,,,,,,,,,,,,,,,,,,,,,,,,,,,,,,,,,,,,,,,,
,,68e5424f31cdcdd73278cc50,2026-03-17_15h51.50.710,kallum_motion_pilot_GIST_update_2,2026.1.1,Win32,147.0588235,68e5424f31cdcdd73278cc50,69b92ab4aef6dee357cd729a,69b92ad410ff5539006033a7,0.0157,0.0157,0,30,30,25,1,onethree,,,,,,,,,,,,,,,,,,,,,,,,,,,,,,,,,,,,,,,,,,,,,,,,,,,,,,,,,,,,,,,,,,,,,,,,,,,,,,,,,,,,,,,,,,,,,,,,,,,,,,,,,,,,,,,,,,,,,,,,,,,,,,,,,,,,,,,,,
,,68e5424f31cdcdd73278cc50,2026-03-17_15h51.50.710,kallum_motion_pilot_GIST_update_2,2026.1.1,Win32,147.0588235,68e5424f31cdcdd73278cc50,69b92ab4aef6dee357cd729a,69b92ad410ff5539006033a7,0.0158,0.0158,0,31,31,103,1,eightseven,,,,,,,,,,,,,,,,,,,,,,,,,,,,,,,,,,,,,,,,,,,,,,,,,,,,,,,,,,,,,,,,,,,,,,,,,,,,,,,,,,,,,,,,,,,,,,,,,,,,,,,,,,,,,,,,,,,,,,,,,,,,,,,,,,,,,,,,,
,,68e5424f31cdcdd73278cc50,2026-03-17_15h51.50.710,kallum_motion_pilot_GIST_update_2,2026.1.1,Win32,147.0588235,68e5424f31cdcdd73278cc50,69b92ab4aef6dee357cd729a,69b92ad410ff5539006033a7,0.0158,0.0158,0,32,32,70,1,fourtwo,,,,,,,,,,,,,,,,,,,,,,,,,,,,,,,,,,,,,,,,,,,,,,,,,,,,,,,,,,,,,,,,,,,,,,,,,,,,,,,,,,,,,,,,,,,,,,,,,,,,,,,,,,,,,,,,,,,,,,,,,,,,,,,,,,,,,,,,,
,,68e5424f31cdcdd73278cc50,2026-03-17_15h51.50.710,kallum_motion_pilot_GIST_update_2,2026.1.1,Win32,147.0588235,68e5424f31cdcdd73278cc50,69b92ab4aef6dee357cd729a,69b92ad410ff5539006033a7,0.0159,0.0159,0,33,33,113,1,fiveseven,,,,,,,,,,,,,,,,,,,,,,,,,,,,,,,,,,,,,,,,,,,,,,,,,,,,,,,,,,,,,,,,,,,,,,,,,,,,,,,,,,,,,,,,,,,,,,,,,,,,,,,,,,,,,,,,,,,,,,,,,,,,,,,,,,,,,,,,,
,,68e5424f31cdcdd73278cc50,2026-03-17_15h51.50.710,kallum_motion_pilot_GIST_update_2,2026.1.1,Win32,147.0588235,68e5424f31cdcdd73278cc50,69b92ab4aef6dee357cd729a,69b92ad410ff5539006033a7,0.016,0.016,0,34,34,109,1,seveneight,,,,,,,,,,,,,,,,,,,,,,,,,,,,,,,,,,,,,,,,,,,,,,,,,,,,,,,,,,,,,,,,,,,,,,,,,,,,,,,,,,,,,,,,,,,,,,,,,,,,,,,,,,,,,,,,,,,,,,,,,,,,,,,,,,,,,,,,,
,,68e5424f31cdcdd73278cc50,2026-03-17_15h51.50.710,kallum_motion_pilot_GIST_update_2,2026.1.1,Win32,147.0588235,68e5424f31cdcdd73278cc50,69b92ab4aef6dee357cd729a,69b92ad410ff5539006033a7,0.016,0.016,0,35,35,99,1,sixeight,,,,,,,,,,,,,,,,,,,,,,,,,,,,,,,,,,,,,,,,,,,,,,,,,,,,,,,,,,,,,,,,,,,,,,,,,,,,,,,,,,,,,,,,,,,,,,,,,,,,,,,,,,,,,,,,,,,,,,,,,,,,,,,,,,,,,,,,,
,,68e5424f31cdcdd73278cc50,2026-03-17_15h51.50.710,kallum_motion_pilot_GIST_update_2,2026.1.1,Win32,147.0588235,68e5424f31cdcdd73278cc50,69b92ab4aef6dee357cd729a,69b92ad410ff5539006033a7,0.0161,0.0161,0,36,36,9,1,onethree,,,,,,,,,,,,,,,,,,,,,,,,,,,,,,,,,,,,,,,,,,,,,,,,,,,,,,,,,,,,,,,,,,,,,,,,,,,,,,,,,,,,,,,,,,,,,,,,,,,,,,,,,,,,,,,,,,,,,,,,,,,,,,,,,,,,,,,,,
,,68e5424f31cdcdd73278cc50,2026-03-17_15h51.50.710,kallum_motion_pilot_GIST_update_2,2026.1.1,Win32,147.0588235,68e5424f31cdcdd73278cc50,69b92ab4aef6dee357cd729a,69b92ad410ff5539006033a7,0.0162,0.0162,0,37,37,31,1,fourthree,,,,,,,,,,,,,,,,,,,,,,,,,,,,,,,,,,,,,,,,,,,,,,,,,,,,,,,,,,,,,,,,,,,,,,,,,,,,,,,,,,,,,,,,,,,,,,,,,,,,,,,,,,,,,,,,,,,,,,,,,,,,,,,,,,,,,,,,,
,,68e5424f31cdcdd73278cc50,2026-03-17_15h51.50.710,kallum_motion_pilot_GIST_update_2,2026.1.1,Win32,147.0588235,68e5424f31cdcdd73278cc50,69b92ab4aef6dee357cd729a,69b92ad410ff5539006033a7,0.0163,0.0163,0,38,38,67,1,twofour,,,,,,,,,,,,,,,,,,,,,,,,,,,,,,,,,,,,,,,,,,,,,,,,,,,,,,,,,,,,,,,,,,,,,,,,,,,,,,,,,,,,,,,,,,,,,,,,,,,,,,,,,,,,,,,,,,,,,,,,,,,,,,,,,,,,,,,,,
,,68e5424f31cdcdd73278cc50,2026-03-17_15h51.50.710,kallum_motion_pilot_GIST_update_2,2026.1.1,Win32,147.0588235,68e5424f31cdcdd73278cc50,69b92ab4aef6dee357cd729a,69b92ad410ff5539006033a7,0.0163,0.0163,0,39,39,130,1,sixfive,,,,,,,,,,,,,,,,,,,,,,,,,,,,,,,,,,,,,,,,,,,,,,,,,,,,,,,,,,,,,,,,,,,,,,,,,,,,,,,,,,,,,,,,,,,,,,,,,,,,,,,,,,,,,,,,,,,,,,,,,,,,,,,,,,,,,,,,,
,,68e5424f31cdcdd73278cc50,2026-03-17_15h51.50.710,kallum_motion_pilot_GIST_update_2,2026.1.1,Win32,147.0588235,68e5424f31cdcdd73278cc50,69b92ab4aef6dee357cd729a,69b92ad410ff5539006033a7,0.0165,0.0165,0,40,40,34,1,twoone,,,,,,,,,,,,,,,,,,,,,,,,,,,,,,,,,,,,,,,,,,,,,,,,,,,,,,,,,,,,,,,,,,,,,,,,,,,,,,,,,,,,,,,,,,,,,,,,,,,,,,,,,,,,,,,,,,,,,,,,,,,,,,,,,,,,,,,,,
,,68e5424f31cdcdd73278cc50,2026-03-17_15h51.50.710,kallum_motion_pilot_GIST_update_2,2026.1.1,Win32,147.0588235,68e5424f31cdcdd73278cc50,69b92ab4aef6dee357cd729a,69b92ad410ff5539006033a7,0.0165,0.0165,0,41,41,62,1,fourtwo,,,,,,,,,,,,,,,,,,,,,,,,,,,,,,,,,,,,,,,,,,,,,,,,,,,,,,,,,,,,,,,,,,,,,,,,,,,,,,,,,,,,,,,,,,,,,,,,,,,,,,,,,,,,,,,,,,,,,,,,,,,,,,,,,,,,,,,,,
,,68e5424f31cdcdd73278cc50,2026-03-17_15h51.50.710,kallum_motion_pilot_GIST_update_2,2026.1.1,Win32,147.0588235,68e5424f31cdcdd73278cc50,69b92ab4aef6dee357cd729a,69b92ad410ff5539006033a7,0.0166,0.0166,0,42,42,161,1,fiveseven,,,,,,,,,,,,,,,,,,,,,,,,,,,,,,,,,,,,,,,,,,,,,,,,,,,,,,,,,,,,,,,,,,,,,,,,,,,,,,,,,,,,,,,,,,,,,,,,,,,,,,,,,,,,,,,,,,,,,,,,,,,,,,,,,,,,,,,,,
,,68e5424f31cdcdd73278cc50,2026-03-17_15h51.50.710,kallum_motion_pilot_GIST_update_2,2026.1.1,Win32,147.0588235,68e5424f31cdcdd73278cc50,69b92ab4aef6dee357cd729a,69b92ad410ff5539006033a7,0.0166,0.0166,0,43,43,86,1,eightsix,,,,,,,,,,,,,,,,,,,,,,,,,,,,,,,,,,,,,,,,,,,,,,,,,,,,,,,,,,,,,,,,,,,,,,,,,,,,,,,,,,,,,,,,,,,,,,,,,,,,,,,,,,,,,,,,,,,,,,,,,,,,,,,,,,,,,,,,,
,,68e5424f31cdcdd73278cc50,2026-03-17_15h51.50.710,kallum_motion_pilot_GIST_update_2,2026.1.1,Win32,147.0588235,68e5424f31cdcdd73278cc50,69b92ab4aef6dee357cd729a,69b92ad410ff5539006033a7,0.0166,0.0167,0,44,44,139,1,sixeight,,,,,,,,,,,,,,,,,,,,,,,,,,,,,,,,,,,,,,,,,,,,,,,,,,,,,,,,,,,,,,,,,,,,,,,,,,,,,,,,,,,,,,,,,,,,,,,,,,,,,,,,,,,,,,,,,,,,,,,,,,,,,,,,,,,,,,,,,
,,68e5424f31cdcdd73278cc50,2026-03-17_15h51.50.710,kallum_motion_pilot_GIST_update_2,2026.1.1,Win32,147.0588235,68e5424f31cdcdd73278cc50,69b92ab4aef6dee357cd729a,69b92ad410ff5539006033a7,0.0168,0.0168,0,45,45,35,1,twofour,,,,,,,,,,,,,,,,,,,,,,,,,,,,,,,,,,,,,,,,,,,,,,,,,,,,,,,,,,,,,,,,,,,,,,,,,,,,,,,,,,,,,,,,,,,,,,,,,,,,,,,,,,,,,,,,,,,,,,,,,,,,,,,,,,,,,,,,,
,,68e5424f31cdcdd73278cc50,2026-03-17_15h51.50.710,kallum_motion_pilot_GIST_update_2,2026.1.1,Win32,147.0588235,68e5424f31cdcdd73278cc50,69b92ab4aef6dee357cd729a,69b92ad410ff5539006033a7,0.0169,0.0169,0,46,46,6,1,fourtwo,,,,,,,,,,,,,,,,,,,,,,,,,,,,,,,,,,,,,,,,,,,,,,,,,,,,,,,,,,,,,,,,,,,,,,,,,,,,,,,,,,,,,,,,,,,,,,,,,,,,,,,,,,,,,,,,,,,,,,,,,,,,,,,,,,,,,,,,,
,,68e5424f31cdcdd73278cc50,2026-03-17_15h51.50.710,kallum_motion_pilot_GIST_update_2,2026.1.1,Win32,147.0588235,68e5424f31cdcdd73278cc50,69b92ab4aef6dee357cd729a,69b92ad410ff5539006033a7,0.017,0.017,0,47,47,54,1,fourtwo,,,,,,,,,,,,,,,,,,,,,,,,,,,,,,,,,,,,,,,,,,,,,,,,,,,,,,,,,,,,,,,,,,,,,,,,,,,,,,,,,,,,,,,,,,,,,,,,,,,,,,,,,,,,,,,,,,,,,,,,,,,,,,,,,,,,,,,,,
,,68e5424f31cdcdd73278cc50,2026-03-17_15h51.50.710,kallum_motion_pilot_GIST_update_2,2026.1.1,Win32,147.0588235,68e5424f31cdcdd73278cc50,69b92ab4aef6dee357cd729a,69b92ad410ff5539006033a7,0.0171,0.0171,0,48,48,37,1,threefour,,,,,,,,,,,,,,,,,,,,,,,,,,,,,,,,,,,,,,,,,,,,,,,,,,,,,,,,,,,,,,,,,,,,,,,,,,,,,,,,,,,,,,,,,,,,,,,,,,,,,,,,,,,,,,,,,,,,,,,,,,,,,,,,,,,,,,,,,
,,68e5424f31cdcdd73278cc50,2026-03-17_15h51.50.710,kallum_motion_pilot_GIST_update_2,2026.1.1,Win32,147.0588235,68e5424f31cdcdd73278cc50,69b92ab4aef6dee357cd729a,69b92ad410ff5539006033a7,0.0172,0.0172,0,49,49,112,1,fivesix,,,,,,,,,,,,,,,,,,,,,,,,,,,,,,,,,,,,,,,,,,,,,,,,,,,,,,,,,,,,,,,,,,,,,,,,,,,,,,,,,,,,,,,,,,,,,,,,,,,,,,,,,,,,,,,,,,,,,,,,,,,,,,,,,,,,,,,,,
,,68e5424f31cdcdd73278cc50,2026-03-17_15h51.50.710,kallum_motion_pilot_GIST_update_2,2026.1.1,Win32,147.0588235,68e5424f31cdcdd73278cc50,69b92ab4aef6dee357cd729a,69b92ad410ff5539006033a7,0.0173,0.0173,0,50,50,96,1,fivesix,,,,,,,,,,,,,,,,,,,,,,,,,,,,,,,,,,,,,,,,,,,,,,,,,,,,,,,,,,,,,,,,,,,,,,,,,,,,,,,,,,,,,,,,,,,,,,,,,,,,,,,,,,,,,,,,,,,,,,,,,,,,,,,,,,,,,,,,,
,,68e5424f31cdcdd73278cc50,2026-03-17_15h51.50.710,kallum_motion_pilot_GIST_update_2,2026.1.1,Win32,147.0588235,68e5424f31cdcdd73278cc50,69b92ab4aef6dee357cd729a,69b92ad410ff5539006033a7,0.0174,0.0174,0,51,51,93,1,seveneight,,,,,,,,,,,,,,,,,,,,,,,,,,,,,,,,,,,,,,,,,,,,,,,,,,,,,,,,,,,,,,,,,,,,,,,,,,,,,,,,,,,,,,,,,,,,,,,,,,,,,,,,,,,,,,,,,,,,,,,,,,,,,,,,,,,,,,,,,
,,68e5424f31cdcdd73278cc50,2026-03-17_15h51.50.710,kallum_motion_pilot_GIST_update_2,2026.1.1,Win32,147.0588235,68e5424f31cdcdd73278cc50,69b92ab4aef6dee357cd729a,69b92ad410ff5539006033a7,0.0175,0.0175,0,52,52,132,1,sevenfive,,,,,,,,,,,,,,,,,,,,,,,,,,,,,,,,,,,,,,,,,,,,,,,,,,,,,,,,,,,,,,,,,,,,,,,,,,,,,,,,,,,,,,,,,,,,,,,,,,,,,,,,,,,,,,,,,,,,,,,,,,,,,,,,,,,,,,,,,
,,68e5424f31cdcdd73278cc50,2026-03-17_15h51.50.710,kallum_motion_pilot_GIST_update_2,2026.1.1,Win32,147.0588235,68e5424f31cdcdd73278cc50,69b92ab4aef6dee357cd729a,69b92ad410ff5539006033a7,0.0175,0.0175,0,53,53,152,1,fivesix,,,,,,,,,,,,,,,,,,,,,,,,,,,,,,,,,,,,,,,,,,,,,,,,,,,,,,,,,,,,,,,,,,,,,,,,,,,,,,,,,,,,,,,,,,,,,,,,,,,,,,,,,,,,,,,,,,,,,,,,,,,,,,,,,,,,,,,,,
,,68e5424f31cdcdd73278cc50,2026-03-17_15h51.50.710,kallum_motion_pilot_GIST_update_2,2026.1.1,Win32,147.0588235,68e5424f31cdcdd73278cc50,69b92ab4aef6dee357cd729a,69b92ad410ff5539006033a7,0.0175,0.0175,0,54,54,59,1,twofour,,,,,,,,,,,,,,,,,,,,,,,,,,,,,,,,,,,,,,,,,,,,,,,,,,,,,,,,,,,,,,,,,,,,,,,,,,,,,,,,,,,,,,,,,,,,,,,,,,,,,,,,,,,,,,,,,,,,,,,,,,,,,,,,,,,,,,,,,
,,68e5424f31cdcdd73278cc50,2026-03-17_15h51.50.710,kallum_motion_pilot_GIST_update_2,2026.1.1,Win32,147.0588235,68e5424f31cdcdd73278cc50,69b92ab4aef6dee357cd729a,69b92ad410ff5539006033a7,0.0177,0.0177,0,55,55,151,1,eightseven,,,,,,,,,,,,,,,,,,,,,,,,,,,,,,,,,,,,,,,,,,,,,,,,,,,,,,,,,,,,,,,,,,,,,,,,,,,,,,,,,,,,,,,,,,,,,,,,,,,,,,,,,,,,,,,,,,,,,,,,,,,,,,,,,,,,,,,,,
,,68e5424f31cdcdd73278cc50,2026-03-17_15h51.50.710,kallum_motion_pilot_GIST_update_2,2026.1.1,Win32,147.0588235,68e5424f31cdcdd73278cc50,69b92ab4aef6dee357cd729a,69b92ad410ff5539006033a7,0.0178,0.0178,0,56,56,10,1,twoone,,,,,,,,,,,,,,,,,,,,,,,,,,,,,,,,,,,,,,,,,,,,,,,,,,,,,,,,,,,,,,,,,,,,,,,,,,,,,,,,,,,,,,,,,,,,,,,,,,,,,,,,,,,,,,,,,,,,,,,,,,,,,,,,,,,,,,,,,
,,68e5424f31cdcdd73278cc50,2026-03-17_15h51.50.710,kallum_motion_pilot_GIST_update_2,2026.1.1,Win32,147.0588235,68e5424f31cdcdd73278cc50,69b92ab4aef6dee357cd729a,69b92ad410ff5539006033a7,0.0178,0.0178,0,57,57,105,1,fiveseven,,,,,,,,,,,,,,,,,,,,,,,,,,,,,,,,,,,,,,,,,,,,,,,,,,,,,,,,,,,,,,,,,,,,,,,,,,,,,,,,,,,,,,,,,,,,,,,,,,,,,,,,,,,,,,,,,,,,,,,,,,,,,,,,,,,,,,,,,
,,68e5424f31cdcdd73278cc50,2026-03-17_15h51.50.710,kallum_motion_pilot_GIST_update_2,2026.1.1,Win32,147.0588235,68e5424f31cdcdd73278cc50,69b92ab4aef6dee357cd729a,69b92ad410ff5539006033a7,0.0179,0.0179,0,58,58,49,1,onethree,,,,,,,,,,,,,,,,,,,,,,,,,,,,,,,,,,,,,,,,,,,,,,,,,,,,,,,,,,,,,,,,,,,,,,,,,,,,,,,,,,,,,,,,,,,,,,,,,,,,,,,,,,,,,,,,,,,,,,,,,,,,,,,,,,,,,,,,,
,,68e5424f31cdcdd73278cc50,2026-03-17_15h51.50.710,kallum_motion_pilot_GIST_update_2,2026.1.1,Win32,147.0588235,68e5424f31cdcdd73278cc50,69b92ab4aef6dee357cd729a,69b92ad410ff5539006033a7,0.0179,0.0179,0,59,59,150,1,eightsix,,,,,,,,,,,,,,,,,,,,,,,,,,,,,,,,,,,,,,,,,,,,,,,,,,,,,,,,,,,,,,,,,,,,,,,,,,,,,,,,,,,,,,,,,,,,,,,,,,,,,,,,,,,,,,,,,,,,,,,,,,,,,,,,,,,,,,,,,
,,68e5424f31cdcdd73278cc50,2026-03-17_15h51.50.710,kallum_motion_pilot_GIST_update_2,2026.1.1,Win32,147.0588235,68e5424f31cdcdd73278cc50,69b92ab4aef6dee357cd729a,69b92ad410ff5539006033a7,0.018,0.018,0,60,60,4,1,threeone,,,,,,,,,,,,,,,,,,,,,,,,,,,,,,,,,,,,,,,,,,,,,,,,,,,,,,,,,,,,,,,,,,,,,,,,,,,,,,,,,,,,,,,,,,,,,,,,,,,,,,,,,,,,,,,,,,,,,,,,,,,,,,,,,,,,,,,,,
,,68e5424f31cdcdd73278cc50,2026-03-17_15h51.50.710,kallum_motion_pilot_GIST_update_2,2026.1.1,Win32,147.0588235,68e5424f31cdcdd73278cc50,69b92ab4aef6dee357cd729a,69b92ad410ff5539006033a7,0.0181,0.0181,0,61,61,111,1,eightseven,,,,,,,,,,,,,,,,,,,,,,,,,,,,,,,,,,,,,,,,,,,,,,,,,,,,,,,,,,,,,,,,,,,,,,,,,,,,,,,,,,,,,,,,,,,,,,,,,,,,,,,,,,,,,,,,,,,,,,,,,,,,,,,,,,,,,,,,,
,,68e5424f31cdcdd73278cc50,2026-03-17_15h51.50.710,kallum_motion_pilot_GIST_update_2,2026.1.1,Win32,147.0588235,68e5424f31cdcdd73278cc50,69b92ab4aef6dee357cd729a,69b92ad410ff5539006033a7,0.0181,0.0181,0,62,62,39,1,fourthree,,,,,,,,,,,,,,,,,,,,,,,,,,,,,,,,,,,,,,,,,,,,,,,,,,,,,,,,,,,,,,,,,,,,,,,,,,,,,,,,,,,,,,,,,,,,,,,,,,,,,,,,,,,,,,,,,,,,,,,,,,,,,,,,,,,,,,,,,
,,68e5424f31cdcdd73278cc50,2026-03-17_15h51.50.710,kallum_motion_pilot_GIST_update_2,2026.1.1,Win32,147.0588235,68e5424f31cdcdd73278cc50,69b92ab4aef6dee357cd729a,69b92ad410ff5539006033a7,0.0182,0.0182,0,63,63,147,1,sixeight,,,,,,,,,,,,,,,,,,,,,,,,,,,,,,,,,,,,,,,,,,,,,,,,,,,,,,,,,,,,,,,,,,,,,,,,,,,,,,,,,,,,,,,,,,,,,,,,,,,,,,,,,,,,,,,,,,,,,,,,,,,,,,,,,,,,,,,,,
,,68e5424f31cdcdd73278cc50,2026-03-17_15h51.50.710,kallum_motion_pilot_GIST_update_2,2026.1.1,Win32,147.0588235,68e5424f31cdcdd73278cc50,69b92ab4aef6dee357cd729a,69b92ad410ff5539006033a7,0.0183,0.0183,0,64,64,8,1,onetwo,,,,,,,,,,,,,,,,,,,,,,,,,,,,,,,,,,,,,,,,,,,,,,,,,,,,,,,,,,,,,,,,,,,,,,,,,,,,,,,,,,,,,,,,,,,,,,,,,,,,,,,,,,,,,,,,,,,,,,,,,,,,,,,,,,,,,,,,,
,,68e5424f31cdcdd73278cc50,2026-03-17_15h51.50.710,kallum_motion_pilot_GIST_update_2,2026.1.1,Win32,147.0588235,68e5424f31cdcdd73278cc50,69b92ab4aef6dee357cd729a,69b92ad410ff5539006033a7,0.0184,0.0184,0,65,65,123,1,sixeight,,,,,,,,,,,,,,,,,,,,,,,,,,,,,,,,,,,,,,,,,,,,,,,,,,,,,,,,,,,,,,,,,,,,,,,,,,,,,,,,,,,,,,,,,,,,,,,,,,,,,,,,,,,,,,,,,,,,,,,,,,,,,,,,,,,,,,,,,
,,68e5424f31cdcdd73278cc50,2026-03-17_15h51.50.710,kallum_motion_pilot_GIST_update_2,2026.1.1,Win32,147.0588235,68e5424f31cdcdd73278cc50,69b92ab4aef6dee357cd729a,69b92ad410ff5539006033a7,0.0185,0.0185,0,66,66,15,1,fourthree,,,,,,,,,,,,,,,,,,,,,,,,,,,,,,,,,,,,,,,,,,,,,,,,,,,,,,,,,,,,,,,,,,,,,,,,,,,,,,,,,,,,,,,,,,,,,,,,,,,,,,,,,,,,,,,,,,,,,,,,,,,,,,,,,,,,,,,,,
,,68e5424f31cdcdd73278cc50,2026-03-17_15h51.50.710,kallum_motion_pilot_GIST_update_2,2026.1.1,Win32,147.0588235,68e5424f31cdcdd73278cc50,69b92ab4aef6dee357cd729a,69b92ad410ff5539006033a7,0.0185,0.0185,0,67,67,97,1,fiveseven,,,,,,,,,,,,,,,,,,,,,,,,,,,,,,,,,,,,,,,,,,,,,,,,,,,,,,,,,,,,,,,,,,,,,,,,,,,,,,,,,,,,,,,,,,,,,,,,,,,,,,,,,,,,,,,,,,,,,,,,,,,,,,,,,,,,,,,,,
,,68e5424f31cdcdd73278cc50,2026-03-17_15h51.50.710,kallum_motion_pilot_GIST_update_2,2026.1.1,Win32,147.0588235,68e5424f31cdcdd73278cc50,69b92ab4aef6dee357cd729a,69b92ad410ff5539006033a7,0.0186,0.0186,0,68,68,114,1,sixfive,,,,,,,,,,,,,,,,,,,,,,,,,,,,,,,,,,,,,,,,,,,,,,,,,,,,,,,,,,,,,,,,,,,,,,,,,,,,,,,,,,,,,,,,,,,,,,,,,,,,,,,,,,,,,,,,,,,,,,,,,,,,,,,,,,,,,,,,,
,,68e5424f31cdcdd73278cc50,2026-03-17_15h51.50.710,kallum_motion_pilot_GIST_update_2,2026.1.1,Win32,147.0588235,68e5424f31cdcdd73278cc50,69b92ab4aef6dee357cd729a,69b92ad410ff5539006033a7,0.0187,0.0188,0,69,69,119,1,eightseven,,,,,,,,,,,,,,,,,,,,,,,,,,,,,,,,,,,,,,,,,,,,,,,,,,,,,,,,,,,,,,,,,,,,,,,,,,,,,,,,,,,,,,,,,,,,,,,,,,,,,,,,,,,,,,,,,,,,,,,,,,,,,,,,,,,,,,,,,
,,68e5424f31cdcdd73278cc50,2026-03-17_15h51.50.710,kallum_motion_pilot_GIST_update_2,2026.1.1,Win32,147.0588235,68e5424f31cdcdd73278cc50,69b92ab4aef6dee357cd729a,69b92ad410ff5539006033a7,0.0188,0.0188,0,70,70,79,1,eightseven,,,,,,,,,,,,,,,,,,,,,,,,,,,,,,,,,,,,,,,,,,,,,,,,,,,,,,,,,,,,,,,,,,,,,,,,,,,,,,,,,,,,,,,,,,,,,,,,,,,,,,,,,,,,,,,,,,,,,,,,,,,,,,,,,,,,,,,,,
,,68e5424f31cdcdd73278cc50,2026-03-17_15h51.50.710,kallum_motion_pilot_GIST_update_2,2026.1.1,Win32,147.0588235,68e5424f31cdcdd73278cc50,69b92ab4aef6dee357cd729a,69b92ad410ff5539006033a7,0.0189,0.0189,0,71,71,94,1,eightsix,,,,,,,,,,,,,,,,,,,,,,,,,,,,,,,,,,,,,,,,,,,,,,,,,,,,,,,,,,,,,,,,,,,,,,,,,,,,,,,,,,,,,,,,,,,,,,,,,,,,,,,,,,,,,,,,,,,,,,,,,,,,,,,,,,,,,,,,,
,,68e5424f31cdcdd73278cc50,2026-03-17_15h51.50.710,kallum_motion_pilot_GIST_update_2,2026.1.1,Win32,147.0588235,68e5424f31cdcdd73278cc50,69b92ab4aef6dee357cd729a,69b92ad410ff5539006033a7,0.0189,0.0189,0,72,72,11,1,twofour,,,,,,,,,,,,,,,,,,,,,,,,,,,,,,,,,,,,,,,,,,,,,,,,,,,,,,,,,,,,,,,,,,,,,,,,,,,,,,,,,,,,,,,,,,,,,,,,,,,,,,,,,,,,,,,,,,,,,,,,,,,,,,,,,,,,,,,,,
,,68e5424f31cdcdd73278cc50,2026-03-17_15h51.50.710,kallum_motion_pilot_GIST_update_2,2026.1.1,Win32,147.0588235,68e5424f31cdcdd73278cc50,69b92ab4aef6dee357cd729a,69b92ad410ff5539006033a7,0.0189,0.019,0,73,73,47,1,fourthree,,,,,,,,,,,,,,,,,,,,,,,,,,,,,,,,,,,,,,,,,,,,,,,,,,,,,,,,,,,,,,,,,,,,,,,,,,,,,,,,,,,,,,,,,,,,,,,,,,,,,,,,,,,,,,,,,,,,,,,,,,,,,,,,,,,,,,,,,
,,68e5424f31cdcdd73278cc50,2026-03-17_15h51.50.710,kallum_motion_pilot_GIST_update_2,2026.1.1,Win32,147.0588235,68e5424f31cdcdd73278cc50,69b92ab4aef6dee357cd729a,69b92ad410ff5539006033a7,0.0191,0.0191,0,74,74,81,1,fiveseven,,,,,,,,,,,,,,,,,,,,,,,,,,,,,,,,,,,,,,,,,,,,,,,,,,,,,,,,,,,,,,,,,,,,,,,,,,,,,,,,,,,,,,,,,,,,,,,,,,,,,,,,,,,,,,,,,,,,,,,,,,,,,,,,,,,,,,,,,
,,68e5424f31cdcdd73278cc50,2026-03-17_15h51.50.710,kallum_motion_pilot_GIST_update_2,2026.1.1,Win32,147.0588235,68e5424f31cdcdd73278cc50,69b92ab4aef6dee357cd729a,69b92ad410ff5539006033a7,0.0191,0.0191,0,75,75,122,1,sixfive,,,,,,,,,,,,,,,,,,,,,,,,,,,,,,,,,,,,,,,,,,,,,,,,,,,,,,,,,,,,,,,,,,,,,,,,,,,,,,,,,,,,,,,,,,,,,,,,,,,,,,,,,,,,,,,,,,,,,,,,,,,,,,,,,,,,,,,,,
,,68e5424f31cdcdd73278cc50,2026-03-17_15h51.50.710,kallum_motion_pilot_GIST_update_2,2026.1.1,Win32,147.0588235,68e5424f31cdcdd73278cc50,69b92ab4aef6dee357cd729a,69b92ad410ff5539006033a7,0.0192,0.0192,0,76,76,44,1,threeone,,,,,,,,,,,,,,,,,,,,,,,,,,,,,,,,,,,,,,,,,,,,,,,,,,,,,,,,,,,,,,,,,,,,,,,,,,,,,,,,,,,,,,,,,,,,,,,,,,,,,,,,,,,,,,,,,,,,,,,,,,,,,,,,,,,,,,,,,
,,68e5424f31cdcdd73278cc50,2026-03-17_15h51.50.710,kallum_motion_pilot_GIST_update_2,2026.1.1,Win32,147.0588235,68e5424f31cdcdd73278cc50,69b92ab4aef6dee357cd729a,69b92ad410ff5539006033a7,0.0192,0.0192,0,77,77,66,1,twoone,,,,,,,,,,,,,,,,,,,,,,,,,,,,,,,,,,,,,,,,,,,,,,,,,,,,,,,,,,,,,,,,,,,,,,,,,,,,,,,,,,,,,,,,,,,,,,,,,,,,,,,,,,,,,,,,,,,,,,,,,,,,,,,,,,,,,,,,,
,,68e5424f31cdcdd73278cc50,2026-03-17_15h51.50.710,kallum_motion_pilot_GIST_update_2,2026.1.1,Win32,147.0588235,68e5424f31cdcdd73278cc50,69b92ab4aef6dee357cd729a,69b92ad410ff5539006033a7,0.0193,0.0193,0,78,78,2,1,twoone,,,,,,,,,,,,,,,,,,,,,,,,,,,,,,,,,,,,,,,,,,,,,,,,,,,,,,,,,,,,,,,,,,,,,,,,,,,,,,,,,,,,,,,,,,,,,,,,,,,,,,,,,,,,,,,,,,,,,,,,,,,,,,,,,,,,,,,,,
,,68e5424f31cdcdd73278cc50,2026-03-17_15h51.50.710,kallum_motion_pilot_GIST_update_2,2026.1.1,Win32,147.0588235,68e5424f31cdcdd73278cc50,69b92ab4aef6dee357cd729a,69b92ad410ff5539006033a7,0.0194,0.0195,0,79,79,65,1,onethree,,,,,,,,,,,,,,,,,,,,,,,,,,,,,,,,,,,,,,,,,,,,,,,,,,,,,,,,,,,,,,,,,,,,,,,,,,,,,,,,,,,,,,,,,,,,,,,,,,,,,,,,,,,,,,,,,,,,,,,,,,,,,,,,,,,,,,,,,
,,68e5424f31cdcdd73278cc50,2026-03-17_15h51.50.710,kallum_motion_pilot_GIST_update_2,2026.1.1,Win32,147.0588235,68e5424f31cdcdd73278cc50,69b92ab4aef6dee357cd729a,69b92ad410ff5539006033a7,0.0195,0.0195,0,80,80,74,1,twoone,,,,,,,,,,,,,,,,,,,,,,,,,,,,,,,,,,,,,,,,,,,,,,,,,,,,,,,,,,,,,,,,,,,,,,,,,,,,,,,,,,,,,,,,,,,,,,,,,,,,,,,,,,,,,,,,,,,,,,,,,,,,,,,,,,,,,,,,,
,,68e5424f31cdcdd73278cc50,2026-03-17_15h51.50.710,kallum_motion_pilot_GIST_update_2,2026.1.1,Win32,147.0588235,68e5424f31cdcdd73278cc50,69b92ab4aef6dee357cd729a,69b92ad410ff5539006033a7,0.0196,0.0196,0,81,81,32,1,onetwo,,,,,,,,,,,,,,,,,,,,,,,,,,,,,,,,,,,,,,,,,,,,,,,,,,,,,,,,,,,,,,,,,,,,,,,,,,,,,,,,,,,,,,,,,,,,,,,,,,,,,,,,,,,,,,,,,,,,,,,,,,,,,,,,,,,,,,,,,
,,68e5424f31cdcdd73278cc50,2026-03-17_15h51.50.710,kallum_motion_pilot_GIST_update_2,2026.1.1,Win32,147.0588235,68e5424f31cdcdd73278cc50,69b92ab4aef6dee357cd729a,69b92ad410ff5539006033a7,0.0196,0.0196,0,82,82,117,1,seveneight,,,,,,,,,,,,,,,,,,,,,,,,,,,,,,,,,,,,,,,,,,,,,,,,,,,,,,,,,,,,,,,,,,,,,,,,,,,,,,,,,,,,,,,,,,,,,,,,,,,,,,,,,,,,,,,,,,,,,,,,,,,,,,,,,,,,,,,,,
,,68e5424f31cdcdd73278cc50,2026-03-17_15h51.50.710,kallum_motion_pilot_GIST_update_2,2026.1.1,Win32,147.0588235,68e5424f31cdcdd73278cc50,69b92ab4aef6dee357cd729a,69b92ad410ff5539006033a7,0.0197,0.0197,0,83,83,29,1,threefour,,,,,,,,,,,,,,,,,,,,,,,,,,,,,,,,,,,,,,,,,,,,,,,,,,,,,,,,,,,,,,,,,,,,,,,,,,,,,,,,,,,,,,,,,,,,,,,,,,,,,,,,,,,,,,,,,,,,,,,,,,,,,,,,,,,,,,,,,
,,68e5424f31cdcdd73278cc50,2026-03-17_15h51.50.710,kallum_motion_pilot_GIST_update_2,2026.1.1,Win32,147.0588235,68e5424f31cdcdd73278cc50,69b92ab4aef6dee357cd729a,69b92ad410ff5539006033a7,0.0197,0.0197,0,84,84,55,1,fourthree,,,,,,,,,,,,,,,,,,,,,,,,,,,,,,,,,,,,,,,,,,,,,,,,,,,,,,,,,,,,,,,,,,,,,,,,,,,,,,,,,,,,,,,,,,,,,,,,,,,,,,,,,,,,,,,,,,,,,,,,,,,,,,,,,,,,,,,,,
,,68e5424f31cdcdd73278cc50,2026-03-17_15h51.50.710,kallum_motion_pilot_GIST_update_2,2026.1.1,Win32,147.0588235,68e5424f31cdcdd73278cc50,69b92ab4aef6dee357cd729a,69b92ad410ff5539006033a7,0.0198,0.0199,0,85,85,110,1,eightsix,,,,,,,,,,,,,,,,,,,,,,,,,,,,,,,,,,,,,,,,,,,,,,,,,,,,,,,,,,,,,,,,,,,,,,,,,,,,,,,,,,,,,,,,,,,,,,,,,,,,,,,,,,,,,,,,,,,,,,,,,,,,,,,,,,,,,,,,,
,,68e5424f31cdcdd73278cc50,2026-03-17_15h51.50.710,kallum_motion_pilot_GIST_update_2,2026.1.1,Win32,147.0588235,68e5424f31cdcdd73278cc50,69b92ab4aef6dee357cd729a,69b92ad410ff5539006033a7,0.0199,0.0199,0,86,86,76,1,threeone,,,,,,,,,,,,,,,,,,,,,,,,,,,,,,,,,,,,,,,,,,,,,,,,,,,,,,,,,,,,,,,,,,,,,,,,,,,,,,,,,,,,,,,,,,,,,,,,,,,,,,,,,,,,,,,,,,,,,,,,,,,,,,,,,,,,,,,,,
,,68e5424f31cdcdd73278cc50,2026-03-17_15h51.50.710,kallum_motion_pilot_GIST_update_2,2026.1.1,Win32,147.0588235,68e5424f31cdcdd73278cc50,69b92ab4aef6dee357cd729a,69b92ad410ff5539006033a7,0.02,0.02,0,87,87,28,1,threeone,,,,,,,,,,,,,,,,,,,,,,,,,,,,,,,,,,,,,,,,,,,,,,,,,,,,,,,,,,,,,,,,,,,,,,,,,,,,,,,,,,,,,,,,,,,,,,,,,,,,,,,,,,,,,,,,,,,,,,,,,,,,,,,,,,,,,,,,,
,,68e5424f31cdcdd73278cc50,2026-03-17_15h51.50.710,kallum_motion_pilot_GIST_update_2,2026.1.1,Win32,147.0588235,68e5424f31cdcdd73278cc50,69b92ab4aef6dee357cd729a,69b92ad410ff5539006033a7,0.02,0.02,0,88,88,141,1,seveneight,,,,,,,,,,,,,,,,,,,,,,,,,,,,,,,,,,,,,,,,,,,,,,,,,,,,,,,,,,,,,,,,,,,,,,,,,,,,,,,,,,,,,,,,,,,,,,,,,,,,,,,,,,,,,,,,,,,,,,,,,,,,,,,,,,,,,,,,,
,,68e5424f31cdcdd73278cc50,2026-03-17_15h51.50.710,kallum_motion_pilot_GIST_update_2,2026.1.1,Win32,147.0588235,68e5424f31cdcdd73278cc50,69b92ab4aef6dee357cd729a,69b92ad410ff5539006033a7,0.0201,0.0201,0,89,89,30,1,fourtwo,,,,,,,,,,,,,,,,,,,,,,,,,,,,,,,,,,,,,,,,,,,,,,,,,,,,,,,,,,,,,,,,,,,,,,,,,,,,,,,,,,,,,,,,,,,,,,,,,,,,,,,,,,,,,,,,,,,,,,,,,,,,,,,,,,,,,,,,,
,,68e5424f31cdcdd73278cc50,2026-03-17_15h51.50.710,kallum_motion_pilot_GIST_update_2,2026.1.1,Win32,147.0588235,68e5424f31cdcdd73278cc50,69b92ab4aef6dee357cd729a,69b92ad410ff5539006033a7,0.0202,0.0202,0,90,90,23,1,fourthree,,,,,,,,,,,,,,,,,,,,,,,,,,,,,,,,,,,,,,,,,,,,,,,,,,,,,,,,,,,,,,,,,,,,,,,,,,,,,,,,,,,,,,,,,,,,,,,,,,,,,,,,,,,,,,,,,,,,,,,,,,,,,,,,,,,,,,,,,
,,68e5424f31cdcdd73278cc50,2026-03-17_15h51.50.710,kallum_motion_pilot_GIST_update_2,2026.1.1,Win32,147.0588235,68e5424f31cdcdd73278cc50,69b92ab4aef6dee357cd729a,69b92ad410ff5539006033a7,0.0202,0.0202,0,91,91,157,1,seveneight,,,,,,,,,,,,,,,,,,,,,,,,,,,,,,,,,,,,,,,,,,,,,,,,,,,,,,,,,,,,,,,,,,,,,,,,,,,,,,,,,,,,,,,,,,,,,,,,,,,,,,,,,,,,,,,,,,,,,,,,,,,,,,,,,,,,,,,,,
,,68e5424f31cdcdd73278cc50,2026-03-17_15h51.50.710,kallum_motion_pilot_GIST_update_2,2026.1.1,Win32,147.0588235,68e5424f31cdcdd73278cc50,69b92ab4aef6dee357cd729a,69b92ad410ff5539006033a7,0.0203,0.0203,0,92,92,42,1,twoone,,,,,,,,,,,,,,,,,,,,,,,,,,,,,,,,,,,,,,,,,,,,,,,,,,,,,,,,,,,,,,,,,,,,,,,,,,,,,,,,,,,,,,,,,,,,,,,,,,,,,,,,,,,,,,,,,,,,,,,,,,,,,,,,,,,,,,,,,
,,68e5424f31cdcdd73278cc50,2026-03-17_15h51.50.710,kallum_motion_pilot_GIST_update_2,2026.1.1,Win32,147.0588235,68e5424f31cdcdd73278cc50,69b92ab4aef6dee357cd729a,69b92ad410ff5539006033a7,0.0204,0.0204,0,93,93,3,1,twofour,,,,,,,,,,,,,,,,,,,,,,,,,,,,,,,,,,,,,,,,,,,,,,,,,,,,,,,,,,,,,,,,,,,,,,,,,,,,,,,,,,,,,,,,,,,,,,,,,,,,,,,,,,,,,,,,,,,,,,,,,,,,,,,,,,,,,,,,,
,,68e5424f31cdcdd73278cc50,2026-03-17_15h51.50.710,kallum_motion_pilot_GIST_update_2,2026.1.1,Win32,147.0588235,68e5424f31cdcdd73278cc50,69b92ab4aef6dee357cd729a,69b92ad410ff5539006033a7,0.0204,0.0204,0,94,94,0,1,onetwo,,,,,,,,,,,,,,,,,,,,,,,,,,,,,,,,,,,,,,,,,,,,,,,,,,,,,,,,,,,,,,,,,,,,,,,,,,,,,,,,,,,,,,,,,,,,,,,,,,,,,,,,,,,,,,,,,,,,,,,,,,,,,,,,,,,,,,,,,
,,68e5424f31cdcdd73278cc50,2026-03-17_15h51.50.710,kallum_motion_pilot_GIST_update_2,2026.1.1,Win32,147.0588235,68e5424f31cdcdd73278cc50,69b92ab4aef6dee357cd729a,69b92ad410ff5539006033a7,0.0205,0.0205,0,95,95,125,1,seveneight,,,,,,,,,,,,,,,,,,,,,,,,,,,,,,,,,,,,,,,,,,,,,,,,,,,,,,,,,,,,,,,,,,,,,,,,,,,,,,,,,,,,,,,,,,,,,,,,,,,,,,,,,,,,,,,,,,,,,,,,,,,,,,,,,,,,,,,,,
,,68e5424f31cdcdd73278cc50,2026-03-17_15h51.50.710,kallum_motion_pilot_GIST_update_2,2026.1.1,Win32,147.0588235,68e5424f31cdcdd73278cc50,69b92ab4aef6dee357cd729a,69b92ad410ff5539006033a7,0.0206,0.0206,0,96,96,16,1,onetwo,,,,,,,,,,,,,,,,,,,,,,,,,,,,,,,,,,,,,,,,,,,,,,,,,,,,,,,,,,,,,,,,,,,,,,,,,,,,,,,,,,,,,,,,,,,,,,,,,,,,,,,,,,,,,,,,,,,,,,,,,,,,,,,,,,,,,,,,,
,,68e5424f31cdcdd73278cc50,2026-03-17_15h51.50.710,kallum_motion_pilot_GIST_update_2,2026.1.1,Win32,147.0588235,68e5424f31cdcdd73278cc50,69b92ab4aef6dee357cd729a,69b92ad410ff5539006033a7,0.0207,0.0207,0,97,97,56,1,onetwo,,,,,,,,,,,,,,,,,,,,,,,,,,,,,,,,,,,,,,,,,,,,,,,,,,,,,,,,,,,,,,,,,,,,,,,,,,,,,,,,,,,,,,,,,,,,,,,,,,,,,,,,,,,,,,,,,,,,,,,,,,,,,,,,,,,,,,,,,
,,68e5424f31cdcdd73278cc50,2026-03-17_15h51.50.710,kallum_motion_pilot_GIST_update_2,2026.1.1,Win32,147.0588235,68e5424f31cdcdd73278cc50,69b92ab4aef6dee357cd729a,69b92ad410ff5539006033a7,0.0207,0.0207,0,98,98,116,1,sevenfive,,,,,,,,,,,,,,,,,,,,,,,,,,,,,,,,,,,,,,,,,,,,,,,,,,,,,,,,,,,,,,,,,,,,,,,,,,,,,,,,,,,,,,,,,,,,,,,,,,,,,,,,,,,,,,,,,,,,,,,,,,,,,,,,,,,,,,,,,
,,68e5424f31cdcdd73278cc50,2026-03-17_15h51.50.710,kallum_motion_pilot_GIST_update_2,2026.1.1,Win32,147.0588235,68e5424f31cdcdd73278cc50,69b92ab4aef6dee357cd729a,69b92ad410ff5539006033a7,0.0208,0.0208,0,99,99,144,1,fivesix,,,,,,,,,,,,,,,,,,,,,,,,,,,,,,,,,,,,,,,,,,,,,,,,,,,,,,,,,,,,,,,,,,,,,,,,,,,,,,,,,,,,,,,,,,,,,,,,,,,,,,,,,,,,,,,,,,,,,,,,,,,,,,,,,,,,,,,,,
,,68e5424f31cdcdd73278cc50,2026-03-17_15h51.50.710,kallum_motion_pilot_GIST_update_2,2026.1.1,Win32,147.0588235,68e5424f31cdcdd73278cc50,69b92ab4aef6dee357cd729a,69b92ad410ff5539006033a7,0.0208,0.0208,0,100,100,26,1,twoone,,,,,,,,,,,,,,,,,,,,,,,,,,,,,,,,,,,,,,,,,,,,,,,,,,,,,,,,,,,,,,,,,,,,,,,,,,,,,,,,,,,,,,,,,,,,,,,,,,,,,,,,,,,,,,,,,,,,,,,,,,,,,,,,,,,,,,,,,
,,68e5424f31cdcdd73278cc50,2026-03-17_15h51.50.710,kallum_motion_pilot_GIST_update_2,2026.1.1,Win32,147.0588235,68e5424f31cdcdd73278cc50,69b92ab4aef6dee357cd729a,69b92ad410ff5539006033a7,0.0209,0.0209,0,101,101,80,1,fivesix,,,,,,,,,,,,,,,,,,,,,,,,,,,,,,,,,,,,,,,,,,,,,,,,,,,,,,,,,,,,,,,,,,,,,,,,,,,,,,,,,,,,,,,,,,,,,,,,,,,,,,,,,,,,,,,,,,,,,,,,,,,,,,,,,,,,,,,,,
,,68e5424f31cdcdd73278cc50,2026-03-17_15h51.50.710,kallum_motion_pilot_GIST_update_2,2026.1.1,Win32,147.0588235,68e5424f31cdcdd73278cc50,69b92ab4aef6dee357cd729a,69b92ad410ff5539006033a7,0.021,0.021,0,102,102,95,1,eightseven,,,,,,,,,,,,,,,,,,,,,,,,,,,,,,,,,,,,,,,,,,,,,,,,,,,,,,,,,,,,,,,,,,,,,,,,,,,,,,,,,,,,,,,,,,,,,,,,,,,,,,,,,,,,,,,,,,,,,,,,,,,,,,,,,,,,,,,,,
,,68e5424f31cdcdd73278cc50,2026-03-17_15h51.50.710,kallum_motion_pilot_GIST_update_2,2026.1.1,Win32,147.0588235,68e5424f31cdcdd73278cc50,69b92ab4aef6dee357cd729a,69b92ad410ff5539006033a7,0.0211,0.0211,0,103,103,61,1,threefour,,,,,,,,,,,,,,,,,,,,,,,,,,,,,,,,,,,,,,,,,,,,,,,,,,,,,,,,,,,,,,,,,,,,,,,,,,,,,,,,,,,,,,,,,,,,,,,,,,,,,,,,,,,,,,,,,,,,,,,,,,,,,,,,,,,,,,,,,
,,68e5424f31cdcdd73278cc50,2026-03-17_15h51.50.710,kallum_motion_pilot_GIST_update_2,2026.1.1,Win32,147.0588235,68e5424f31cdcdd73278cc50,69b92ab4aef6dee357cd729a,69b92ad410ff5539006033a7,0.0212,0.0212,0,104,104,84,1,sevenfive,,,,,,,,,,,,,,,,,,,,,,,,,,,,,,,,,,,,,,,,,,,,,,,,,,,,,,,,,,,,,,,,,,,,,,,,,,,,,,,,,,,,,,,,,,,,,,,,,,,,,,,,,,,,,,,,,,,,,,,,,,,,,,,,,,,,,,,,,
,,68e5424f31cdcdd73278cc50,2026-03-17_15h51.50.710,kallum_motion_pilot_GIST_update_2,2026.1.1,Win32,147.0588235,68e5424f31cdcdd73278cc50,69b92ab4aef6dee357cd729a,69b92ad410ff5539006033a7,0.0212,0.0212,0,105,105,100,1,sevenfive,,,,,,,,,,,,,,,,,,,,,,,,,,,,,,,,,,,,,,,,,,,,,,,,,,,,,,,,,,,,,,,,,,,,,,,,,,,,,,,,,,,,,,,,,,,,,,,,,,,,,,,,,,,,,,,,,,,,,,,,,,,,,,,,,,,,,,,,,
,,68e5424f31cdcdd73278cc50,2026-03-17_15h51.50.710,kallum_motion_pilot_GIST_update_2,2026.1.1,Win32,147.0588235,68e5424f31cdcdd73278cc50,69b92ab4aef6dee357cd729a,69b92ad410ff5539006033a7,0.0213,0.0213,0,106,106,87,1,eightseven,,,,,,,,,,,,,,,,,,,,,,,,,,,,,,,,,,,,,,,,,,,,,,,,,,,,,,,,,,,,,,,,,,,,,,,,,,,,,,,,,,,,,,,,,,,,,,,,,,,,,,,,,,,,,,,,,,,,,,,,,,,,,,,,,,,,,,,,,
,,68e5424f31cdcdd73278cc50,2026-03-17_15h51.50.710,kallum_motion_pilot_GIST_update_2,2026.1.1,Win32,147.0588235,68e5424f31cdcdd73278cc50,69b92ab4aef6dee357cd729a,69b92ad410ff5539006033a7,0.0214,0.0214,0,107,107,106,1,sixfive,,,,,,,,,,,,,,,,,,,,,,,,,,,,,,,,,,,,,,,,,,,,,,,,,,,,,,,,,,,,,,,,,,,,,,,,,,,,,,,,,,,,,,,,,,,,,,,,,,,,,,,,,,,,,,,,,,,,,,,,,,,,,,,,,,,,,,,,,
,,68e5424f31cdcdd73278cc50,2026-03-17_15h51.50.710,kallum_motion_pilot_GIST_update_2,2026.1.1,Win32,147.0588235,68e5424f31cdcdd73278cc50,69b92ab4aef6dee357cd729a,69b92ad410ff5539006033a7,0.0215,0.0215,0,108,108,75,1,twofour,,,,,,,,,,,,,,,,,,,,,,,,,,,,,,,,,,,,,,,,,,,,,,,,,,,,,,,,,,,,,,,,,,,,,,,,,,,,,,,,,,,,,,,,,,,,,,,,,,,,,,,,,,,,,,,,,,,,,,,,,,,,,,,,,,,,,,,,,
,,68e5424f31cdcdd73278cc50,2026-03-17_15h51.50.710,kallum_motion_pilot_GIST_update_2,2026.1.1,Win32,147.0588235,68e5424f31cdcdd73278cc50,69b92ab4aef6dee357cd729a,69b92ad410ff5539006033a7,0.0215,0.0215,0,109,109,102,1,eightsix,,,,,,,,,,,,,,,,,,,,,,,,,,,,,,,,,,,,,,,,,,,,,,,,,,,,,,,,,,,,,,,,,,,,,,,,,,,,,,,,,,,,,,,,,,,,,,,,,,,,,,,,,,,,,,,,,,,,,,,,,,,,,,,,,,,,,,,,,
,,68e5424f31cdcdd73278cc50,2026-03-17_15h51.50.710,kallum_motion_pilot_GIST_update_2,2026.1.1,Win32,147.0588235,68e5424f31cdcdd73278cc50,69b92ab4aef6dee357cd729a,69b92ad410ff5539006033a7,0.0216,0.0216,0,110,110,158,1,eightsix,,,,,,,,,,,,,,,,,,,,,,,,,,,,,,,,,,,,,,,,,,,,,,,,,,,,,,,,,,,,,,,,,,,,,,,,,,,,,,,,,,,,,,,,,,,,,,,,,,,,,,,,,,,,,,,,,,,,,,,,,,,,,,,,,,,,,,,,,
,,68e5424f31cdcdd73278cc50,2026-03-17_15h51.50.710,kallum_motion_pilot_GIST_update_2,2026.1.1,Win32,147.0588235,68e5424f31cdcdd73278cc50,69b92ab4aef6dee357cd729a,69b92ad410ff5539006033a7,0.0217,0.0217,0,111,111,148,1,sevenfive,,,,,,,,,,,,,,,,,,,,,,,,,,,,,,,,,,,,,,,,,,,,,,,,,,,,,,,,,,,,,,,,,,,,,,,,,,,,,,,,,,,,,,,,,,,,,,,,,,,,,,,,,,,,,,,,,,,,,,,,,,,,,,,,,,,,,,,,,
,,68e5424f31cdcdd73278cc50,2026-03-17_15h51.50.710,kallum_motion_pilot_GIST_update_2,2026.1.1,Win32,147.0588235,68e5424f31cdcdd73278cc50,69b92ab4aef6dee357cd729a,69b92ad410ff5539006033a7,0.0217,0.0217,0,112,112,36,1,threeone,,,,,,,,,,,,,,,,,,,,,,,,,,,,,,,,,,,,,,,,,,,,,,,,,,,,,,,,,,,,,,,,,,,,,,,,,,,,,,,,,,,,,,,,,,,,,,,,,,,,,,,,,,,,,,,,,,,,,,,,,,,,,,,,,,,,,,,,,
,,68e5424f31cdcdd73278cc50,2026-03-17_15h51.50.710,kallum_motion_pilot_GIST_update_2,2026.1.1,Win32,147.0588235,68e5424f31cdcdd73278cc50,69b92ab4aef6dee357cd729a,69b92ad410ff5539006033a7,0.0218,0.0218,0,113,113,7,1,fourthree,,,,,,,,,,,,,,,,,,,,,,,,,,,,,,,,,,,,,,,,,,,,,,,,,,,,,,,,,,,,,,,,,,,,,,,,,,,,,,,,,,,,,,,,,,,,,,,,,,,,,,,,,,,,,,,,,,,,,,,,,,,,,,,,,,,,,,,,,
,,68e5424f31cdcdd73278cc50,2026-03-17_15h51.50.710,kallum_motion_pilot_GIST_update_2,2026.1.1,Win32,147.0588235,68e5424f31cdcdd73278cc50,69b92ab4aef6dee357cd729a,69b92ad410ff5539006033a7,0.0219,0.0219,0,114,114,77,1,threefour,,,,,,,,,,,,,,,,,,,,,,,,,,,,,,,,,,,,,,,,,,,,,,,,,,,,,,,,,,,,,,,,,,,,,,,,,,,,,,,,,,,,,,,,,,,,,,,,,,,,,,,,,,,,,,,,,,,,,,,,,,,,,,,,,,,,,,,,,
,,68e5424f31cdcdd73278cc50,2026-03-17_15h51.50.710,kallum_motion_pilot_GIST_update_2,2026.1.1,Win32,147.0588235,68e5424f31cdcdd73278cc50,69b92ab4aef6dee357cd729a,69b92ad410ff5539006033a7,0.0219,0.0219,0,115,115,143,1,eightseven,,,,,,,,,,,,,,,,,,,,,,,,,,,,,,,,,,,,,,,,,,,,,,,,,,,,,,,,,,,,,,,,,,,,,,,,,,,,,,,,,,,,,,,,,,,,,,,,,,,,,,,,,,,,,,,,,,,,,,,,,,,,,,,,,,,,,,,,,
,,68e5424f31cdcdd73278cc50,2026-03-17_15h51.50.710,kallum_motion_pilot_GIST_update_2,2026.1.1,Win32,147.0588235,68e5424f31cdcdd73278cc50,69b92ab4aef6dee357cd729a,69b92ad410ff5539006033a7,0.022,0.022,0,116,116,22,1,fourtwo,,,,,,,,,,,,,,,,,,,,,,,,,,,,,,,,,,,,,,,,,,,,,,,,,,,,,,,,,,,,,,,,,,,,,,,,,,,,,,,,,,,,,,,,,,,,,,,,,,,,,,,,,,,,,,,,,,,,,,,,,,,,,,,,,,,,,,,,,
,,68e5424f31cdcdd73278cc50,2026-03-17_15h51.50.710,kallum_motion_pilot_GIST_update_2,2026.1.1,Win32,147.0588235,68e5424f31cdcdd73278cc50,69b92ab4aef6dee357cd729a,69b92ad410ff5539006033a7,0.022,0.022,0,117,117,38,1,fourtwo,,,,,,,,,,,,,,,,,,,,,,,,,,,,,,,,,,,,,,,,,,,,,,,,,,,,,,,,,,,,,,,,,,,,,,,,,,,,,,,,,,,,,,,,,,,,,,,,,,,,,,,,,,,,,,,,,,,,,,,,,,,,,,,,,,,,,,,,,
,,68e5424f31cdcdd73278cc50,2026-03-17_15h51.50.710,kallum_motion_pilot_GIST_update_2,2026.1.1,Win32,147.0588235,68e5424f31cdcdd73278cc50,69b92ab4aef6dee357cd729a,69b92ad410ff5539006033a7,0.0222,0.0222,0,118,118,14,1,fourtwo,,,,,,,,,,,,,,,,,,,,,,,,,,,,,,,,,,,,,,,,,,,,,,,,,,,,,,,,,,,,,,,,,,,,,,,,,,,,,,,,,,,,,,,,,,,,,,,,,,,,,,,,,,,,,,,,,,,,,,,,,,,,,,,,,,,,,,,,,
,,68e5424f31cdcdd73278cc50,2026-03-17_15h51.50.710,kallum_motion_pilot_GIST_update_2,2026.1.1,Win32,147.0588235,68e5424f31cdcdd73278cc50,69b92ab4aef6dee357cd729a,69b92ad410ff5539006033a7,0.0222,0.0222,0,119,119,115,1,sixeight,,,,,,,,,,,,,,,,,,,,,,,,,,,,,,,,,,,,,,,,,,,,,,,,,,,,,,,,,,,,,,,,,,,,,,,,,,,,,,,,,,,,,,,,,,,,,,,,,,,,,,,,,,,,,,,,,,,,,,,,,,,,,,,,,,,,,,,,,
,,68e5424f31cdcdd73278cc50,2026-03-17_15h51.50.710,kallum_motion_pilot_GIST_update_2,2026.1.1,Win32,147.0588235,68e5424f31cdcdd73278cc50,69b92ab4aef6dee357cd729a,69b92ad410ff5539006033a7,0.0223,0.0223,0,120,120,72,1,onetwo,,,,,,,,,,,,,,,,,,,,,,,,,,,,,,,,,,,,,,,,,,,,,,,,,,,,,,,,,,,,,,,,,,,,,,,,,,,,,,,,,,,,,,,,,,,,,,,,,,,,,,,,,,,,,,,,,,,,,,,,,,,,,,,,,,,,,,,,,
,,68e5424f31cdcdd73278cc50,2026-03-17_15h51.50.710,kallum_motion_pilot_GIST_update_2,2026.1.1,Win32,147.0588235,68e5424f31cdcdd73278cc50,69b92ab4aef6dee357cd729a,69b92ad410ff5539006033a7,0.0224,0.0224,0,121,121,71,1,fourthree,,,,,,,,,,,,,,,,,,,,,,,,,,,,,,,,,,,,,,,,,,,,,,,,,,,,,,,,,,,,,,,,,,,,,,,,,,,,,,,,,,,,,,,,,,,,,,,,,,,,,,,,,,,,,,,,,,,,,,,,,,,,,,,,,,,,,,,,,
,,68e5424f31cdcdd73278cc50,2026-03-17_15h51.50.710,kallum_motion_pilot_GIST_update_2,2026.1.1,Win32,147.0588235,68e5424f31cdcdd73278cc50,69b92ab4aef6dee357cd729a,69b92ad410ff5539006033a7,0.0224,0.0224,0,122,122,126,1,eightsix,,,,,,,,,,,,,,,,,,,,,,,,,,,,,,,,,,,,,,,,,,,,,,,,,,,,,,,,,,,,,,,,,,,,,,,,,,,,,,,,,,,,,,,,,,,,,,,,,,,,,,,,,,,,,,,,,,,,,,,,,,,,,,,,,,,,,,,,,
,,68e5424f31cdcdd73278cc50,2026-03-17_15h51.50.710,kallum_motion_pilot_GIST_update_2,2026.1.1,Win32,147.0588235,68e5424f31cdcdd73278cc50,69b92ab4aef6dee357cd729a,69b92ad410ff5539006033a7,0.0225,0.0225,0,123,123,41,1,onethree,,,,,,,,,,,,,,,,,,,,,,,,,,,,,,,,,,,,,,,,,,,,,,,,,,,,,,,,,,,,,,,,,,,,,,,,,,,,,,,,,,,,,,,,,,,,,,,,,,,,,,,,,,,,,,,,,,,,,,,,,,,,,,,,,,,,,,,,,
,,68e5424f31cdcdd73278cc50,2026-03-17_15h51.50.710,kallum_motion_pilot_GIST_update_2,2026.1.1,Win32,147.0588235,68e5424f31cdcdd73278cc50,69b92ab4aef6dee357cd729a,69b92ad410ff5539006033a7,0.0226,0.0226,0,124,124,131,1,sixeight,,,,,,,,,,,,,,,,,,,,,,,,,,,,,,,,,,,,,,,,,,,,,,,,,,,,,,,,,,,,,,,,,,,,,,,,,,,,,,,,,,,,,,,,,,,,,,,,,,,,,,,,,,,,,,,,,,,,,,,,,,,,,,,,,,,,,,,,,
,,68e5424f31cdcdd73278cc50,2026-03-17_15h51.50.710,kallum_motion_pilot_GIST_update_2,2026.1.1,Win32,147.0588235,68e5424f31cdcdd73278cc50,69b92ab4aef6dee357cd729a,69b92ad410ff5539006033a7,0.0226,0.0226,0,125,125,146,1,sixfive,,,,,,,,,,,,,,,,,,,,,,,,,,,,,,,,,,,,,,,,,,,,,,,,,,,,,,,,,,,,,,,,,,,,,,,,,,,,,,,,,,,,,,,,,,,,,,,,,,,,,,,,,,,,,,,,,,,,,,,,,,,,,,,,,,,,,,,,,
,,68e5424f31cdcdd73278cc50,2026-03-17_15h51.50.710,kallum_motion_pilot_GIST_update_2,2026.1.1,Win32,147.0588235,68e5424f31cdcdd73278cc50,69b92ab4aef6dee357cd729a,69b92ad410ff5539006033a7,0.0227,0.0227,0,126,126,120,1,fivesix,,,,,,,,,,,,,,,,,,,,,,,,,,,,,,,,,,,,,,,,,,,,,,,,,,,,,,,,,,,,,,,,,,,,,,,,,,,,,,,,,,,,,,,,,,,,,,,,,,,,,,,,,,,,,,,,,,,,,,,,,,,,,,,,,,,,,,,,,
,,68e5424f31cdcdd73278cc50,2026-03-17_15h51.50.710,kallum_motion_pilot_GIST_update_2,2026.1.1,Win32,147.0588235,68e5424f31cdcdd73278cc50,69b92ab4aef6dee357cd729a,69b92ad410ff5539006033a7,0.0228,0.0228,0,127,127,154,1,sixfive,,,,,,,,,,,,,,,,,,,,,,,,,,,,,,,,,,,,,,,,,,,,,,,,,,,,,,,,,,,,,,,,,,,,,,,,,,,,,,,,,,,,,,,,,,,,,,,,,,,,,,,,,,,,,,,,,,,,,,,,,,,,,,,,,,,,,,,,,
,,68e5424f31cdcdd73278cc50,2026-03-17_15h51.50.710,kallum_motion_pilot_GIST_update_2,2026.1.1,Win32,147.0588235,68e5424f31cdcdd73278cc50,69b92ab4aef6dee357cd729a,69b92ad410ff5539006033a7,0.0229,0.0229,0,128,128,107,1,sixeight,,,,,,,,,,,,,,,,,,,,,,,,,,,,,,,,,,,,,,,,,,,,,,,,,,,,,,,,,,,,,,,,,,,,,,,,,,,,,,,,,,,,,,,,,,,,,,,,,,,,,,,,,,,,,,,,,,,,,,,,,,,,,,,,,,,,,,,,,
,,68e5424f31cdcdd73278cc50,2026-03-17_15h51.50.710,kallum_motion_pilot_GIST_update_2,2026.1.1,Win32,147.0588235,68e5424f31cdcdd73278cc50,69b92ab4aef6dee357cd729a,69b92ad410ff5539006033a7,0.023,0.023,0,129,129,45,1,threefour,,,,,,,,,,,,,,,,,,,,,,,,,,,,,,,,,,,,,,,,,,,,,,,,,,,,,,,,,,,,,,,,,,,,,,,,,,,,,,,,,,,,,,,,,,,,,,,,,,,,,,,,,,,,,,,,,,,,,,,,,,,,,,,,,,,,,,,,,
,,68e5424f31cdcdd73278cc50,2026-03-17_15h51.50.710,kallum_motion_pilot_GIST_update_2,2026.1.1,Win32,147.0588235,68e5424f31cdcdd73278cc50,69b92ab4aef6dee357cd729a,69b92ad410ff5539006033a7,0.0231,0.0231,0,130,130,21,1,threefour,,,,,,,,,,,,,,,,,,,,,,,,,,,,,,,,,,,,,,,,,,,,,,,,,,,,,,,,,,,,,,,,,,,,,,,,,,,,,,,,,,,,,,,,,,,,,,,,,,,,,,,,,,,,,,,,,,,,,,,,,,,,,,,,,,,,,,,,,
,,68e5424f31cdcdd73278cc50,2026-03-17_15h51.50.710,kallum_motion_pilot_GIST_update_2,2026.1.1,Win32,147.0588235,68e5424f31cdcdd73278cc50,69b92ab4aef6dee357cd729a,69b92ad410ff5539006033a7,0.0231,0.0231,0,131,131,5,1,threefour,,,,,,,,,,,,,,,,,,,,,,,,,,,,,,,,,,,,,,,,,,,,,,,,,,,,,,,,,,,,,,,,,,,,,,,,,,,,,,,,,,,,,,,,,,,,,,,,,,,,,,,,,,,,,,,,,,,,,,,,,,,,,,,,,,,,,,,,,
,,68e5424f31cdcdd73278cc50,2026-03-17_15h51.50.710,kallum_motion_pilot_GIST_update_2,2026.1.1,Win32,147.0588235,68e5424f31cdcdd73278cc50,69b92ab4aef6dee357cd729a,69b92ad410ff5539006033a7,0.0232,0.0232,0,132,132,19,1,twofour,,,,,,,,,,,,,,,,,,,,,,,,,,,,,,,,,,,,,,,,,,,,,,,,,,,,,,,,,,,,,,,,,,,,,,,,,,,,,,,,,,,,,,,,,,,,,,,,,,,,,,,,,,,,,,,,,,,,,,,,,,,,,,,,,,,,,,,,,
,,68e5424f31cdcdd73278cc50,2026-03-17_15h51.50.710,kallum_motion_pilot_GIST_update_2,2026.1.1,Win32,147.0588235,68e5424f31cdcdd73278cc50,69b92ab4aef6dee357cd729a,69b92ad410ff5539006033a7,0.0232,0.0232,0,133,133,73,1,onethree,,,,,,,,,,,,,,,,,,,,,,,,,,,,,,,,,,,,,,,,,,,,,,,,,,,,,,,,,,,,,,,,,,,,,,,,,,,,,,,,,,,,,,,,,,,,,,,,,,,,,,,,,,,,,,,,,,,,,,,,,,,,,,,,,,,,,,,,,
,,68e5424f31cdcdd73278cc50,2026-03-17_15h51.50.710,kallum_motion_pilot_GIST_update_2,2026.1.1,Win32,147.0588235,68e5424f31cdcdd73278cc50,69b92ab4aef6dee357cd729a,69b92ad410ff5539006033a7,0.0233,0.0233,0,134,134,27,1,twofour,,,,,,,,,,,,,,,,,,,,,,,,,,,,,,,,,,,,,,,,,,,,,,,,,,,,,,,,,,,,,,,,,,,,,,,,,,,,,,,,,,,,,,,,,,,,,,,,,,,,,,,,,,,,,,,,,,,,,,,,,,,,,,,,,,,,,,,,,
,,68e5424f31cdcdd73278cc50,2026-03-17_15h51.50.710,kallum_motion_pilot_GIST_update_2,2026.1.1,Win32,147.0588235,68e5424f31cdcdd73278cc50,69b92ab4aef6dee357cd729a,69b92ad410ff5539006033a7,0.0234,0.0234,0,135,135,92,1,sevenfive,,,,,,,,,,,,,,,,,,,,,,,,,,,,,,,,,,,,,,,,,,,,,,,,,,,,,,,,,,,,,,,,,,,,,,,,,,,,,,,,,,,,,,,,,,,,,,,,,,,,,,,,,,,,,,,,,,,,,,,,,,,,,,,,,,,,,,,,,
,,68e5424f31cdcdd73278cc50,2026-03-17_15h51.50.710,kallum_motion_pilot_GIST_update_2,2026.1.1,Win32,147.0588235,68e5424f31cdcdd73278cc50,69b92ab4aef6dee357cd729a,69b92ad410ff5539006033a7,0.0235,0.0235,0,136,136,138,1,sixfive,,,,,,,,,,,,,,,,,,,,,,,,,,,,,,,,,,,,,,,,,,,,,,,,,,,,,,,,,,,,,,,,,,,,,,,,,,,,,,,,,,,,,,,,,,,,,,,,,,,,,,,,,,,,,,,,,,,,,,,,,,,,,,,,,,,,,,,,,
,,68e5424f31cdcdd73278cc50,2026-03-17_15h51.50.710,kallum_motion_pilot_GIST_update_2,2026.1.1,Win32,147.0588235,68e5424f31cdcdd73278cc50,69b92ab4aef6dee357cd729a,69b92ad410ff5539006033a7,0.0236,0.0236,0,137,137,46,1,fourtwo,,,,,,,,,,,,,,,,,,,,,,,,,,,,,,,,,,,,,,,,,,,,,,,,,,,,,,,,,,,,,,,,,,,,,,,,,,,,,,,,,,,,,,,,,,,,,,,,,,,,,,,,,,,,,,,,,,,,,,,,,,,,,,,,,,,,,,,,,
,,68e5424f31cdcdd73278cc50,2026-03-17_15h51.50.710,kallum_motion_pilot_GIST_update_2,2026.1.1,Win32,147.0588235,68e5424f31cdcdd73278cc50,69b92ab4aef6dee357cd729a,69b92ad410ff5539006033a7,0.0236,0.0236,0,138,138,153,1,fiveseven,,,,,,,,,,,,,,,,,,,,,,,,,,,,,,,,,,,,,,,,,,,,,,,,,,,,,,,,,,,,,,,,,,,,,,,,,,,,,,,,,,,,,,,,,,,,,,,,,,,,,,,,,,,,,,,,,,,,,,,,,,,,,,,,,,,,,,,,,
,,68e5424f31cdcdd73278cc50,2026-03-17_15h51.50.710,kallum_motion_pilot_GIST_update_2,2026.1.1,Win32,147.0588235,68e5424f31cdcdd73278cc50,69b92ab4aef6dee357cd729a,69b92ad410ff5539006033a7,0.0238,0.0238,0,139,139,135,1,eightseven,,,,,,,,,,,,,,,,,,,,,,,,,,,,,,,,,,,,,,,,,,,,,,,,,,,,,,,,,,,,,,,,,,,,,,,,,,,,,,,,,,,,,,,,,,,,,,,,,,,,,,,,,,,,,,,,,,,,,,,,,,,,,,,,,,,,,,,,,
,,68e5424f31cdcdd73278cc50,2026-03-17_15h51.50.710,kallum_motion_pilot_GIST_update_2,2026.1.1,Win32,147.0588235,68e5424f31cdcdd73278cc50,69b92ab4aef6dee357cd729a,69b92ad410ff5539006033a7,0.0238,0.0238,0,140,140,140,1,sevenfive,,,,,,,,,,,,,,,,,,,,,,,,,,,,,,,,,,,,,,,,,,,,,,,,,,,,,,,,,,,,,,,,,,,,,,,,,,,,,,,,,,,,,,,,,,,,,,,,,,,,,,,,,,,,,,,,,,,,,,,,,,,,,,,,,,,,,,,,,
,,68e5424f31cdcdd73278cc50,2026-03-17_15h51.50.710,kallum_motion_pilot_GIST_update_2,2026.1.1,Win32,147.0588235,68e5424f31cdcdd73278cc50,69b92ab4aef6dee357cd729a,69b92ad410ff5539006033a7,0.0239,0.0239,0,141,141,64,1,onetwo,,,,,,,,,,,,,,,,,,,,,,,,,,,,,,,,,,,,,,,,,,,,,,,,,,,,,,,,,,,,,,,,,,,,,,,,,,,,,,,,,,,,,,,,,,,,,,,,,,,,,,,,,,,,,,,,,,,,,,,,,,,,,,,,,,,,,,,,,
,,68e5424f31cdcdd73278cc50,2026-03-17_15h51.50.710,kallum_motion_pilot_GIST_update_2,2026.1.1,Win32,147.0588235,68e5424f31cdcdd73278cc50,69b92ab4aef6dee357cd729a,69b92ad410ff5539006033a7,0.024,0.024,0,142,142,89,1,fiveseven,,,,,,,,,,,,,,,,,,,,,,,,,,,,,,,,,,,,,,,,,,,,,,,,,,,,,,,,,,,,,,,,,,,,,,,,,,,,,,,,,,,,,,,,,,,,,,,,,,,,,,,,,,,,,,,,,,,,,,,,,,,,,,,,,,,,,,,,,
,,68e5424f31cdcdd73278cc50,2026-03-17_15h51.50.710,kallum_motion_pilot_GIST_update_2,2026.1.1,Win32,147.0588235,68e5424f31cdcdd73278cc50,69b92ab4aef6dee357cd729a,69b92ad410ff5539006033a7,0.0241,0.0241,0,143,143,17,1,onethree,,,,,,,,,,,,,,,,,,,,,,,,,,,,,,,,,,,,,,,,,,,,,,,,,,,,,,,,,,,,,,,,,,,,,,,,,,,,,,,,,,,,,,,,,,,,,,,,,,,,,,,,,,,,,,,,,,,,,,,,,,,,,,,,,,,,,,,,,
,,68e5424f31cdcdd73278cc50,2026-03-17_15h51.50.710,kallum_motion_pilot_GIST_update_2,2026.1.1,Win32,147.0588235,68e5424f31cdcdd73278cc50,69b92ab4aef6dee357cd729a,69b92ad410ff5539006033a7,0.0242,0.0242,0,144,144,104,1,fivesix,,,,,,,,,,,,,,,,,,,,,,,,,,,,,,,,,,,,,,,,,,,,,,,,,,,,,,,,,,,,,,,,,,,,,,,,,,,,,,,,,,,,,,,,,,,,,,,,,,,,,,,,,,,,,,,,,,,,,,,,,,,,,,,,,,,,,,,,,
,,68e5424f31cdcdd73278cc50,2026-03-17_15h51.50.710,kallum_motion_pilot_GIST_update_2,2026.1.1,Win32,147.0588235,68e5424f31cdcdd73278cc50,69b92ab4aef6dee357cd729a,69b92ad410ff5539006033a7,0.0242,0.0242,0,145,145,127,1,eightseven,,,,,,,,,,,,,,,,,,,,,,,,,,,,,,,,,,,,,,,,,,,,,,,,,,,,,,,,,,,,,,,,,,,,,,,,,,,,,,,,,,,,,,,,,,,,,,,,,,,,,,,,,,,,,,,,,,,,,,,,,,,,,,,,,,,,,,,,,
,,68e5424f31cdcdd73278cc50,2026-03-17_15h51.50.710,kallum_motion_pilot_GIST_update_2,2026.1.1,Win32,147.0588235,68e5424f31cdcdd73278cc50,69b92ab4aef6dee357cd729a,69b92ad410ff5539006033a7,0.0243,0.0243,0,146,146,145,1,fiveseven,,,,,,,,,,,,,,,,,,,,,,,,,,,,,,,,,,,,,,,,,,,,,,,,,,,,,,,,,,,,,,,,,,,,,,,,,,,,,,,,,,,,,,,,,,,,,,,,,,,,,,,,,,,,,,,,,,,,,,,,,,,,,,,,,,,,,,,,,
,,68e5424f31cdcdd73278cc50,2026-03-17_15h51.50.710,kallum_motion_pilot_GIST_update_2,2026.1.1,Win32,147.0588235,68e5424f31cdcdd73278cc50,69b92ab4aef6dee357cd729a,69b92ad410ff5539006033a7,0.0244,0.0244,0,147,147,13,1,threefour,,,,,,,,,,,,,,,,,,,,,,,,,,,,,,,,,,,,,,,,,,,,,,,,,,,,,,,,,,,,,,,,,,,,,,,,,,,,,,,,,,,,,,,,,,,,,,,,,,,,,,,,,,,,,,,,,,,,,,,,,,,,,,,,,,,,,,,,,
,,68e5424f31cdcdd73278cc50,2026-03-17_15h51.50.710,kallum_motion_pilot_GIST_update_2,2026.1.1,Win32,147.0588235,68e5424f31cdcdd73278cc50,69b92ab4aef6dee357cd729a,69b92ad410ff5539006033a7,0.0245,0.0245,0,148,148,133,1,seveneight,,,,,,,,,,,,,,,,,,,,,,,,,,,,,,,,,,,,,,,,,,,,,,,,,,,,,,,,,,,,,,,,,,,,,,,,,,,,,,,,,,,,,,,,,,,,,,,,,,,,,,,,,,,,,,,,,,,,,,,,,,,,,,,,,,,,,,,,,
,,68e5424f31cdcdd73278cc50,2026-03-17_15h51.50.710,kallum_motion_pilot_GIST_update_2,2026.1.1,Win32,147.0588235,68e5424f31cdcdd73278cc50,69b92ab4aef6dee357cd729a,69b92ad410ff5539006033a7,0.0246,0.0246,0,149,149,156,1,sevenfive,,,,,,,,,,,,,,,,,,,,,,,,,,,,,,,,,,,,,,,,,,,,,,,,,,,,,,,,,,,,,,,,,,,,,,,,,,,,,,,,,,,,,,,,,,,,,,,,,,,,,,,,,,,,,,,,,,,,,,,,,,,,,,,,,,,,,,,,,
,,68e5424f31cdcdd73278cc50,2026-03-17_15h51.50.710,kallum_motion_pilot_GIST_update_2,2026.1.1,Win32,147.0588235,68e5424f31cdcdd73278cc50,69b92ab4aef6dee357cd729a,69b92ad410ff5539006033a7,0.0247,0.0247,0,150,150,124,1,sevenfive,,,,,,,,,,,,,,,,,,,,,,,,,,,,,,,,,,,,,,,,,,,,,,,,,,,,,,,,,,,,,,,,,,,,,,,,,,,,,,,,,,,,,,,,,,,,,,,,,,,,,,,,,,,,,,,,,,,,,,,,,,,,,,,,,,,,,,,,,
,,68e5424f31cdcdd73278cc50,2026-03-17_15h51.50.710,kallum_motion_pilot_GIST_update_2,2026.1.1,Win32,147.0588235,68e5424f31cdcdd73278cc50,69b92ab4aef6dee357cd729a,69b92ad410ff5539006033a7,0.0248,0.0248,0,151,151,51,1,twofour,,,,,,,,,,,,,,,,,,,,,,,,,,,,,,,,,,,,,,,,,,,,,,,,,,,,,,,,,,,,,,,,,,,,,,,,,,,,,,,,,,,,,,,,,,,,,,,,,,,,,,,,,,,,,,,,,,,,,,,,,,,,,,,,,,,,,,,,,
,,68e5424f31cdcdd73278cc50,2026-03-17_15h51.50.710,kallum_motion_pilot_GIST_update_2,2026.1.1,Win32,147.0588235,68e5424f31cdcdd73278cc50,69b92ab4aef6dee357cd729a,69b92ad410ff5539006033a7,0.0248,0.0248,0,152,152,121,1,fiveseven,,,,,,,,,,,,,,,,,,,,,,,,,,,,,,,,,,,,,,,,,,,,,,,,,,,,,,,,,,,,,,,,,,,,,,,,,,,,,,,,,,,,,,,,,,,,,,,,,,,,,,,,,,,,,,,,,,,,,,,,,,,,,,,,,,,,,,,,,
,,68e5424f31cdcdd73278cc50,2026-03-17_15h51.50.710,kallum_motion_pilot_GIST_update_2,2026.1.1,Win32,147.0588235,68e5424f31cdcdd73278cc50,69b92ab4aef6dee357cd729a,69b92ad410ff5539006033a7,0.0249,0.0249,0,153,153,43,1,twofour,,,,,,,,,,,,,,,,,,,,,,,,,,,,,,,,,,,,,,,,,,,,,,,,,,,,,,,,,,,,,,,,,,,,,,,,,,,,,,,,,,,,,,,,,,,,,,,,,,,,,,,,,,,,,,,,,,,,,,,,,,,,,,,,,,,,,,,,,
,,68e5424f31cdcdd73278cc50,2026-03-17_15h51.50.710,kallum_motion_pilot_GIST_update_2,2026.1.1,Win32,147.0588235,68e5424f31cdcdd73278cc50,69b92ab4aef6dee357cd729a,69b92ad410ff5539006033a7,0.025,0.025,0,154,154,63,1,fourthree,,,,,,,,,,,,,,,,,,,,,,,,,,,,,,,,,,,,,,,,,,,,,,,,,,,,,,,,,,,,,,,,,,,,,,,,,,,,,,,,,,,,,,,,,,,,,,,,,,,,,,,,,,,,,,,,,,,,,,,,,,,,,,,,,,,,,,,,,
,,68e5424f31cdcdd73278cc50,2026-03-17_15h51.50.710,kallum_motion_pilot_GIST_update_2,2026.1.1,Win32,147.0588235,68e5424f31cdcdd73278cc50,69b92ab4aef6dee357cd729a,69b92ad410ff5539006033a7,0.025,0.025,0,155,155,78,1,fourtwo,,,,,,,,,,,,,,,,,,,,,,,,,,,,,,,,,,,,,,,,,,,,,,,,,,,,,,,,,,,,,,,,,,,,,,,,,,,,,,,,,,,,,,,,,,,,,,,,,,,,,,,,,,,,,,,,,,,,,,,,,,,,,,,,,,,,,,,,,
,,68e5424f31cdcdd73278cc50,2026-03-17_15h51.50.710,kallum_motion_pilot_GIST_update_2,2026.1.1,Win32,147.0588235,68e5424f31cdcdd73278cc50,69b92ab4aef6dee357cd729a,69b92ad410ff5539006033a7,0.0251,0.0251,0,156,156,159,1,eightseven,,,,,,,,,,,,,,,,,,,,,,,,,,,,,,,,,,,,,,,,,,,,,,,,,,,,,,,,,,,,,,,,,,,,,,,,,,,,,,,,,,,,,,,,,,,,,,,,,,,,,,,,,,,,,,,,,,,,,,,,,,,,,,,,,,,,,,,,,
,,68e5424f31cdcdd73278cc50,2026-03-17_15h51.50.710,kallum_motion_pilot_GIST_update_2,2026.1.1,Win32,147.0588235,68e5424f31cdcdd73278cc50,69b92ab4aef6dee357cd729a,69b92ad410ff5539006033a7,0.0252,0.0252,0,157,157,91,1,sixeight,,,,,,,,,,,,,,,,,,,,,,,,,,,,,,,,,,,,,,,,,,,,,,,,,,,,,,,,,,,,,,,,,,,,,,,,,,,,,,,,,,,,,,,,,,,,,,,,,,,,,,,,,,,,,,,,,,,,,,,,,,,,,,,,,,,,,,,,,
,,68e5424f31cdcdd73278cc50,2026-03-17_15h51.50.710,kallum_motion_pilot_GIST_update_2,2026.1.1,Win32,147.0588235,68e5424f31cdcdd73278cc50,69b92ab4aef6dee357cd729a,69b92ad410ff5539006033a7,0.0253,0.0253,0,158,158,90,1,sixfive,,,,,,,,,,,,,,,,,,,,,,,,,,,,,,,,,,,,,,,,,,,,,,,,,,,,,,,,,,,,,,,,,,,,,,,,,,,,,,,,,,,,,,,,,,,,,,,,,,,,,,,,,,,,,,,,,,,,,,,,,,,,,,,,,,,,,,,,,
,,68e5424f31cdcdd73278cc50,2026-03-17_15h51.50.710,kallum_motion_pilot_GIST_update_2,2026.1.1,Win32,147.0588235,68e5424f31cdcdd73278cc50,69b92ab4aef6dee357cd729a,69b92ad410ff5539006033a7,0.0254,0.0254,0,159,159,129,1,fiveseven,,,,,,,,,,,,,,,,,,,,,,,,,,,,,,,,,,,,,,,,,,,,,,,,,,,,,,,,,,,,,,,,,,,,,,,,,,,,,,,,,,,,,,,,,,,,,,,,,,,,,,,,,,,,,,,,,,,,,,,,,,,,,,,,,,,,,,,,,
,,68e5424f31cdcdd73278cc50,2026-03-17_15h51.50.710,kallum_motion_pilot_GIST_update_2,2026.1.1,Win32,147.0588235,68e5424f31cdcdd73278cc50,69b92ab4aef6dee357cd729a,69b92ad410ff5539006033a7,0.0255,0.0255,0,160,160,33,1,onethree,,,,,,,,,,,,,,,,,,,,,,,,,,,,,,,,,,,,,,,,,,,,,,,,,,,,,,,,,,,,,,,,,,,,,,,,,,,,,,,,,,,,,,,,,,,,,,,,,,,,,,,,,,,,,,,,,,,,,,,,,,,,,,,,,,,,,,,,,
,,68e5424f31cdcdd73278cc50,2026-03-17_15h51.50.710,kallum_motion_pilot_GIST_update_2,2026.1.1,Win32,147.0588235,68e5424f31cdcdd73278cc50,69b92ab4aef6dee357cd729a,69b92ad410ff5539006033a7,0.0255,0.0255,0,161,161,1,1,onethree,,,,,,,,,,,,,,,,,,,,,,,,,,,,,,,,,,,,,,,,,,,,,,,,,,,,,,,,,,,,,,,,,,,,,,,,,,,,,,,,,,,,,,,,,,,,,,,,,,,,,,,,,,,,,,,,,,,,,,,,,,,,,,,,,,,,,,,,,
,,68e5424f31cdcdd73278cc50,2026-03-17_15h51.50.710,kallum_motion_pilot_GIST_update_2,2026.1.1,Win32,147.0588235,68e5424f31cdcdd73278cc50,69b92ab4aef6dee357cd729a,69b92ad410ff5539006033a7,0.0256,0.0256,1,0,162,93,1,seveneight,,,,,,,,,,,,,,,,,,,,,,,,,,,,,,,,,,,,,,,,,,,,,,,,,,,,,,,,,,,,,,,,,,,,,,,,,,,,,,,,,,,,,,,,,,,,,,,,,,,,,,,,,,,,,,,,,,,,,,,,,,,,,,,,,,,,,,,,,
,,68e5424f31cdcdd73278cc50,2026-03-17_15h51.50.710,kallum_motion_pilot_GIST_update_2,2026.1.1,Win32,147.0588235,68e5424f31cdcdd73278cc50,69b92ab4aef6dee357cd729a,69b92ad410ff5539006033a7,0.0257,0.0257,1,1,163,35,1,twofour,,,,,,,,,,,,,,,,,,,,,,,,,,,,,,,,,,,,,,,,,,,,,,,,,,,,,,,,,,,,,,,,,,,,,,,,,,,,,,,,,,,,,,,,,,,,,,,,,,,,,,,,,,,,,,,,,,,,,,,,,,,,,,,,,,,,,,,,,
,,68e5424f31cdcdd73278cc50,2026-03-17_15h51.50.710,kallum_motion_pilot_GIST_update_2,2026.1.1,Win32,147.0588235,68e5424f31cdcdd73278cc50,69b92ab4aef6dee357cd729a,69b92ad410ff5539006033a7,0.0258,0.0258,1,2,164,6,1,fourtwo,,,,,,,,,,,,,,,,,,,,,,,,,,,,,,,,,,,,,,,,,,,,,,,,,,,,,,,,,,,,,,,,,,,,,,,,,,,,,,,,,,,,,,,,,,,,,,,,,,,,,,,,,,,,,,,,,,,,,,,,,,,,,,,,,,,,,,,,,
,,68e5424f31cdcdd73278cc50,2026-03-17_15h51.50.710,kallum_motion_pilot_GIST_update_2,2026.1.1,Win32,147.0588235,68e5424f31cdcdd73278cc50,69b92ab4aef6dee357cd729a,69b92ad410ff5539006033a7,0.0259,0.0259,1,3,165,101,1,seveneight,,,,,,,,,,,,,,,,,,,,,,,,,,,,,,,,,,,,,,,,,,,,,,,,,,,,,,,,,,,,,,,,,,,,,,,,,,,,,,,,,,,,,,,,,,,,,,,,,,,,,,,,,,,,,,,,,,,,,,,,,,,,,,,,,,,,,,,,,
,,68e5424f31cdcdd73278cc50,2026-03-17_15h51.50.710,kallum_motion_pilot_GIST_update_2,2026.1.1,Win32,147.0588235,68e5424f31cdcdd73278cc50,69b92ab4aef6dee357cd729a,69b92ad410ff5539006033a7,0.026,0.026,1,4,166,156,1,sevenfive,,,,,,,,,,,,,,,,,,,,,,,,,,,,,,,,,,,,,,,,,,,,,,,,,,,,,,,,,,,,,,,,,,,,,,,,,,,,,,,,,,,,,,,,,,,,,,,,,,,,,,,,,,,,,,,,,,,,,,,,,,,,,,,,,,,,,,,,,
,,68e5424f31cdcdd73278cc50,2026-03-17_15h51.50.710,kallum_motion_pilot_GIST_update_2,2026.1.1,Win32,147.0588235,68e5424f31cdcdd73278cc50,69b92ab4aef6dee357cd729a,69b92ad410ff5539006033a7,0.026,0.026,1,5,167,71,1,fourthree,,,,,,,,,,,,,,,,,,,,,,,,,,,,,,,,,,,,,,,,,,,,,,,,,,,,,,,,,,,,,,,,,,,,,,,,,,,,,,,,,,,,,,,,,,,,,,,,,,,,,,,,,,,,,,,,,,,,,,,,,,,,,,,,,,,,,,,,,
,,68e5424f31cdcdd73278cc50,2026-03-17_15h51.50.710,kallum_motion_pilot_GIST_update_2,2026.1.1,Win32,147.0588235,68e5424f31cdcdd73278cc50,69b92ab4aef6dee357cd729a,69b92ad410ff5539006033a7,0.026,0.026,1,6,168,85,1,seveneight,,,,,,,,,,,,,,,,,,,,,,,,,,,,,,,,,,,,,,,,,,,,,,,,,,,,,,,,,,,,,,,,,,,,,,,,,,,,,,,,,,,,,,,,,,,,,,,,,,,,,,,,,,,,,,,,,,,,,,,,,,,,,,,,,,,,,,,,,
,,68e5424f31cdcdd73278cc50,2026-03-17_15h51.50.710,kallum_motion_pilot_GIST_update_2,2026.1.1,Win32,147.0588235,68e5424f31cdcdd73278cc50,69b92ab4aef6dee357cd729a,69b92ad410ff5539006033a7,0.0261,0.0261,1,7,169,34,1,twoone,,,,,,,,,,,,,,,,,,,,,,,,,,,,,,,,,,,,,,,,,,,,,,,,,,,,,,,,,,,,,,,,,,,,,,,,,,,,,,,,,,,,,,,,,,,,,,,,,,,,,,,,,,,,,,,,,,,,,,,,,,,,,,,,,,,,,,,,,
,,68e5424f31cdcdd73278cc50,2026-03-17_15h51.50.710,kallum_motion_pilot_GIST_update_2,2026.1.1,Win32,147.0588235,68e5424f31cdcdd73278cc50,69b92ab4aef6dee357cd729a,69b92ad410ff5539006033a7,0.0263,0.0263,1,8,170,102,1,eightsix,,,,,,,,,,,,,,,,,,,,,,,,,,,,,,,,,,,,,,,,,,,,,,,,,,,,,,,,,,,,,,,,,,,,,,,,,,,,,,,,,,,,,,,,,,,,,,,,,,,,,,,,,,,,,,,,,,,,,,,,,,,,,,,,,,,,,,,,,
,,68e5424f31cdcdd73278cc50,2026-03-17_15h51.50.710,kallum_motion_pilot_GIST_update_2,2026.1.1,Win32,147.0588235,68e5424f31cdcdd73278cc50,69b92ab4aef6dee357cd729a,69b92ad410ff5539006033a7,0.0263,0.0263,1,9,171,33,1,onethree,,,,,,,,,,,,,,,,,,,,,,,,,,,,,,,,,,,,,,,,,,,,,,,,,,,,,,,,,,,,,,,,,,,,,,,,,,,,,,,,,,,,,,,,,,,,,,,,,,,,,,,,,,,,,,,,,,,,,,,,,,,,,,,,,,,,,,,,,
,,68e5424f31cdcdd73278cc50,2026-03-17_15h51.50.710,kallum_motion_pilot_GIST_update_2,2026.1.1,Win32,147.0588235,68e5424f31cdcdd73278cc50,69b92ab4aef6dee357cd729a,69b92ad410ff5539006033a7,0.0264,0.0264,1,10,172,65,1,onethree,,,,,,,,,,,,,,,,,,,,,,,,,,,,,,,,,,,,,,,,,,,,,,,,,,,,,,,,,,,,,,,,,,,,,,,,,,,,,,,,,,,,,,,,,,,,,,,,,,,,,,,,,,,,,,,,,,,,,,,,,,,,,,,,,,,,,,,,,
,,68e5424f31cdcdd73278cc50,2026-03-17_15h51.50.710,kallum_motion_pilot_GIST_update_2,2026.1.1,Win32,147.0588235,68e5424f31cdcdd73278cc50,69b92ab4aef6dee357cd729a,69b92ad410ff5539006033a7,0.0265,0.0265,1,11,173,148,1,sevenfive,,,,,,,,,,,,,,,,,,,,,,,,,,,,,,,,,,,,,,,,,,,,,,,,,,,,,,,,,,,,,,,,,,,,,,,,,,,,,,,,,,,,,,,,,,,,,,,,,,,,,,,,,,,,,,,,,,,,,,,,,,,,,,,,,,,,,,,,,
,,68e5424f31cdcdd73278cc50,2026-03-17_15h51.50.710,kallum_motion_pilot_GIST_update_2,2026.1.1,Win32,147.0588235,68e5424f31cdcdd73278cc50,69b92ab4aef6dee357cd729a,69b92ad410ff5539006033a7,0.0265,0.0265,1,12,174,94,1,eightsix,,,,,,,,,,,,,,,,,,,,,,,,,,,,,,,,,,,,,,,,,,,,,,,,,,,,,,,,,,,,,,,,,,,,,,,,,,,,,,,,,,,,,,,,,,,,,,,,,,,,,,,,,,,,,,,,,,,,,,,,,,,,,,,,,,,,,,,,,
,,68e5424f31cdcdd73278cc50,2026-03-17_15h51.50.710,kallum_motion_pilot_GIST_update_2,2026.1.1,Win32,147.0588235,68e5424f31cdcdd73278cc50,69b92ab4aef6dee357cd729a,69b92ad410ff5539006033a7,0.0266,0.0266,1,13,175,8,1,onetwo,,,,,,,,,,,,,,,,,,,,,,,,,,,,,,,,,,,,,,,,,,,,,,,,,,,,,,,,,,,,,,,,,,,,,,,,,,,,,,,,,,,,,,,,,,,,,,,,,,,,,,,,,,,,,,,,,,,,,,,,,,,,,,,,,,,,,,,,,
,,68e5424f31cdcdd73278cc50,2026-03-17_15h51.50.710,kallum_motion_pilot_GIST_update_2,2026.1.1,Win32,147.0588235,68e5424f31cdcdd73278cc50,69b92ab4aef6dee357cd729a,69b92ad410ff5539006033a7,0.0268,0.0268,1,14,176,54,1,fourtwo,,,,,,,,,,,,,,,,,,,,,,,,,,,,,,,,,,,,,,,,,,,,,,,,,,,,,,,,,,,,,,,,,,,,,,,,,,,,,,,,,,,,,,,,,,,,,,,,,,,,,,,,,,,,,,,,,,,,,,,,,,,,,,,,,,,,,,,,,
,,68e5424f31cdcdd73278cc50,2026-03-17_15h51.50.710,kallum_motion_pilot_GIST_update_2,2026.1.1,Win32,147.0588235,68e5424f31cdcdd73278cc50,69b92ab4aef6dee357cd729a,69b92ad410ff5539006033a7,0.0268,0.0269,1,15,177,31,1,fourthree,,,,,,,,,,,,,,,,,,,,,,,,,,,,,,,,,,,,,,,,,,,,,,,,,,,,,,,,,,,,,,,,,,,,,,,,,,,,,,,,,,,,,,,,,,,,,,,,,,,,,,,,,,,,,,,,,,,,,,,,,,,,,,,,,,,,,,,,,
,,68e5424f31cdcdd73278cc50,2026-03-17_15h51.50.710,kallum_motion_pilot_GIST_update_2,2026.1.1,Win32,147.0588235,68e5424f31cdcdd73278cc50,69b92ab4aef6dee357cd729a,69b92ad410ff5539006033a7,0.027,0.027,1,16,178,154,1,sixfive,,,,,,,,,,,,,,,,,,,,,,,,,,,,,,,,,,,,,,,,,,,,,,,,,,,,,,,,,,,,,,,,,,,,,,,,,,,,,,,,,,,,,,,,,,,,,,,,,,,,,,,,,,,,,,,,,,,,,,,,,,,,,,,,,,,,,,,,,
,,68e5424f31cdcdd73278cc50,2026-03-17_15h51.50.710,kallum_motion_pilot_GIST_update_2,2026.1.1,Win32,147.0588235,68e5424f31cdcdd73278cc50,69b92ab4aef6dee357cd729a,69b92ad410ff5539006033a7,0.027,0.027,1,17,179,25,1,onethree,,,,,,,,,,,,,,,,,,,,,,,,,,,,,,,,,,,,,,,,,,,,,,,,,,,,,,,,,,,,,,,,,,,,,,,,,,,,,,,,,,,,,,,,,,,,,,,,,,,,,,,,,,,,,,,,,,,,,,,,,,,,,,,,,,,,,,,,,
,,68e5424f31cdcdd73278cc50,2026-03-17_15h51.50.710,kallum_motion_pilot_GIST_update_2,2026.1.1,Win32,147.0588235,68e5424f31cdcdd73278cc50,69b92ab4aef6dee357cd729a,69b92ad410ff5539006033a7,0.0271,0.0271,1,18,180,137,1,fiveseven,,,,,,,,,,,,,,,,,,,,,,,,,,,,,,,,,,,,,,,,,,,,,,,,,,,,,,,,,,,,,,,,,,,,,,,,,,,,,,,,,,,,,,,,,,,,,,,,,,,,,,,,,,,,,,,,,,,,,,,,,,,,,,,,,,,,,,,,,
,,68e5424f31cdcdd73278cc50,2026-03-17_15h51.50.710,kallum_motion_pilot_GIST_update_2,2026.1.1,Win32,147.0588235,68e5424f31cdcdd73278cc50,69b92ab4aef6dee357cd729a,69b92ad410ff5539006033a7,0.0271,0.0271,1,19,181,64,1,onetwo,,,,,,,,,,,,,,,,,,,,,,,,,,,,,,,,,,,,,,,,,,,,,,,,,,,,,,,,,,,,,,,,,,,,,,,,,,,,,,,,,,,,,,,,,,,,,,,,,,,,,,,,,,,,,,,,,,,,,,,,,,,,,,,,,,,,,,,,,
,,68e5424f31cdcdd73278cc50,2026-03-17_15h51.50.710,kallum_motion_pilot_GIST_update_2,2026.1.1,Win32,147.0588235,68e5424f31cdcdd73278cc50,69b92ab4aef6dee357cd729a,69b92ad410ff5539006033a7,0.0272,0.0272,1,20,182,38,1,fourtwo,,,,,,,,,,,,,,,,,,,,,,,,,,,,,,,,,,,,,,,,,,,,,,,,,,,,,,,,,,,,,,,,,,,,,,,,,,,,,,,,,,,,,,,,,,,,,,,,,,,,,,,,,,,,,,,,,,,,,,,,,,,,,,,,,,,,,,,,,
,,68e5424f31cdcdd73278cc50,2026-03-17_15h51.50.710,kallum_motion_pilot_GIST_update_2,2026.1.1,Win32,147.0588235,68e5424f31cdcdd73278cc50,69b92ab4aef6dee357cd729a,69b92ad410ff5539006033a7,0.0274,0.0274,1,21,183,100,1,sevenfive,,,,,,,,,,,,,,,,,,,,,,,,,,,,,,,,,,,,,,,,,,,,,,,,,,,,,,,,,,,,,,,,,,,,,,,,,,,,,,,,,,,,,,,,,,,,,,,,,,,,,,,,,,,,,,,,,,,,,,,,,,,,,,,,,,,,,,,,,
,,68e5424f31cdcdd73278cc50,2026-03-17_15h51.50.710,kallum_motion_pilot_GIST_update_2,2026.1.1,Win32,147.0588235,68e5424f31cdcdd73278cc50,69b92ab4aef6dee357cd729a,69b92ad410ff5539006033a7,0.0275,0.0275,1,22,184,36,1,threeone,,,,,,,,,,,,,,,,,,,,,,,,,,,,,,,,,,,,,,,,,,,,,,,,,,,,,,,,,,,,,,,,,,,,,,,,,,,,,,,,,,,,,,,,,,,,,,,,,,,,,,,,,,,,,,,,,,,,,,,,,,,,,,,,,,,,,,,,,
,,68e5424f31cdcdd73278cc50,2026-03-17_15h51.50.710,kallum_motion_pilot_GIST_update_2,2026.1.1,Win32,147.0588235,68e5424f31cdcdd73278cc50,69b92ab4aef6dee357cd729a,69b92ad410ff5539006033a7,0.0276,0.0276,1,23,185,68,1,threeone,,,,,,,,,,,,,,,,,,,,,,,,,,,,,,,,,,,,,,,,,,,,,,,,,,,,,,,,,,,,,,,,,,,,,,,,,,,,,,,,,,,,,,,,,,,,,,,,,,,,,,,,,,,,,,,,,,,,,,,,,,,,,,,,,,,,,,,,,
,,68e5424f31cdcdd73278cc50,2026-03-17_15h51.50.710,kallum_motion_pilot_GIST_update_2,2026.1.1,Win32,147.0588235,68e5424f31cdcdd73278cc50,69b92ab4aef6dee357cd729a,69b92ad410ff5539006033a7,0.0277,0.0277,1,24,186,112,1,fivesix,,,,,,,,,,,,,,,,,,,,,,,,,,,,,,,,,,,,,,,,,,,,,,,,,,,,,,,,,,,,,,,,,,,,,,,,,,,,,,,,,,,,,,,,,,,,,,,,,,,,,,,,,,,,,,,,,,,,,,,,,,,,,,,,,,,,,,,,,
,,68e5424f31cdcdd73278cc50,2026-03-17_15h51.50.710,kallum_motion_pilot_GIST_update_2,2026.1.1,Win32,147.0588235,68e5424f31cdcdd73278cc50,69b92ab4aef6dee357cd729a,69b92ad410ff5539006033a7,0.0278,0.0278,1,25,187,51,1,twofour,,,,,,,,,,,,,,,,,,,,,,,,,,,,,,,,,,,,,,,,,,,,,,,,,,,,,,,,,,,,,,,,,,,,,,,,,,,,,,,,,,,,,,,,,,,,,,,,,,,,,,,,,,,,,,,,,,,,,,,,,,,,,,,,,,,,,,,,,
,,68e5424f31cdcdd73278cc50,2026-03-17_15h51.50.710,kallum_motion_pilot_GIST_update_2,2026.1.1,Win32,147.0588235,68e5424f31cdcdd73278cc50,69b92ab4aef6dee357cd729a,69b92ad410ff5539006033a7,0.0278,0.0278,1,26,188,77,1,threefour,,,,,,,,,,,,,,,,,,,,,,,,,,,,,,,,,,,,,,,,,,,,,,,,,,,,,,,,,,,,,,,,,,,,,,,,,,,,,,,,,,,,,,,,,,,,,,,,,,,,,,,,,,,,,,,,,,,,,,,,,,,,,,,,,,,,,,,,,
,,68e5424f31cdcdd73278cc50,2026-03-17_15h51.50.710,kallum_motion_pilot_GIST_update_2,2026.1.1,Win32,147.0588235,68e5424f31cdcdd73278cc50,69b92ab4aef6dee357cd729a,69b92ad410ff5539006033a7,0.028,0.028,1,27,189,113,1,fiveseven,,,,,,,,,,,,,,,,,,,,,,,,,,,,,,,,,,,,,,,,,,,,,,,,,,,,,,,,,,,,,,,,,,,,,,,,,,,,,,,,,,,,,,,,,,,,,,,,,,,,,,,,,,,,,,,,,,,,,,,,,,,,,,,,,,,,,,,,,
,,68e5424f31cdcdd73278cc50,2026-03-17_15h51.50.710,kallum_motion_pilot_GIST_update_2,2026.1.1,Win32,147.0588235,68e5424f31cdcdd73278cc50,69b92ab4aef6dee357cd729a,69b92ad410ff5539006033a7,0.0281,0.0281,1,28,190,83,1,sixeight,,,,,,,,,,,,,,,,,,,,,,,,,,,,,,,,,,,,,,,,,,,,,,,,,,,,,,,,,,,,,,,,,,,,,,,,,,,,,,,,,,,,,,,,,,,,,,,,,,,,,,,,,,,,,,,,,,,,,,,,,,,,,,,,,,,,,,,,,
,,68e5424f31cdcdd73278cc50,2026-03-17_15h51.50.710,kallum_motion_pilot_GIST_update_2,2026.1.1,Win32,147.0588235,68e5424f31cdcdd73278cc50,69b92ab4aef6dee357cd729a,69b92ad410ff5539006033a7,0.0281,0.0281,1,29,191,132,1,sevenfive,,,,,,,,,,,,,,,,,,,,,,,,,,,,,,,,,,,,,,,,,,,,,,,,,,,,,,,,,,,,,,,,,,,,,,,,,,,,,,,,,,,,,,,,,,,,,,,,,,,,,,,,,,,,,,,,,,,,,,,,,,,,,,,,,,,,,,,,,
,,68e5424f31cdcdd73278cc50,2026-03-17_15h51.50.710,kallum_motion_pilot_GIST_update_2,2026.1.1,Win32,147.0588235,68e5424f31cdcdd73278cc50,69b92ab4aef6dee357cd729a,69b92ad410ff5539006033a7,0.0282,0.0282,1,30,192,139,1,sixeight,,,,,,,,,,,,,,,,,,,,,,,,,,,,,,,,,,,,,,,,,,,,,,,,,,,,,,,,,,,,,,,,,,,,,,,,,,,,,,,,,,,,,,,,,,,,,,,,,,,,,,,,,,,,,,,,,,,,,,,,,,,,,,,,,,,,,,,,,
,,68e5424f31cdcdd73278cc50,2026-03-17_15h51.50.710,kallum_motion_pilot_GIST_update_2,2026.1.1,Win32,147.0588235,68e5424f31cdcdd73278cc50,69b92ab4aef6dee357cd729a,69b92ad410ff5539006033a7,0.0283,0.0283,1,31,193,90,1,sixfive,,,,,,,,,,,,,,,,,,,,,,,,,,,,,,,,,,,,,,,,,,,,,,,,,,,,,,,,,,,,,,,,,,,,,,,,,,,,,,,,,,,,,,,,,,,,,,,,,,,,,,,,,,,,,,,,,,,,,,,,,,,,,,,,,,,,,,,,,
,,68e5424f31cdcdd73278cc50,2026-03-17_15h51.50.710,kallum_motion_pilot_GIST_update_2,2026.1.1,Win32,147.0588235,68e5424f31cdcdd73278cc50,69b92ab4aef6dee357cd729a,69b92ad410ff5539006033a7,0.0284,0.0284,1,32,194,121,1,fiveseven,,,,,,,,,,,,,,,,,,,,,,,,,,,,,,,,,,,,,,,,,,,,,,,,,,,,,,,,,,,,,,,,,,,,,,,,,,,,,,,,,,,,,,,,,,,,,,,,,,,,,,,,,,,,,,,,,,,,,,,,,,,,,,,,,,,,,,,,,
,,68e5424f31cdcdd73278cc50,2026-03-17_15h51.50.710,kallum_motion_pilot_GIST_update_2,2026.1.1,Win32,147.0588235,68e5424f31cdcdd73278cc50,69b92ab4aef6dee357cd729a,69b92ad410ff5539006033a7,0.0285,0.0285,1,33,195,86,1,eightsix,,,,,,,,,,,,,,,,,,,,,,,,,,,,,,,,,,,,,,,,,,,,,,,,,,,,,,,,,,,,,,,,,,,,,,,,,,,,,,,,,,,,,,,,,,,,,,,,,,,,,,,,,,,,,,,,,,,,,,,,,,,,,,,,,,,,,,,,,
,,68e5424f31cdcdd73278cc50,2026-03-17_15h51.50.710,kallum_motion_pilot_GIST_update_2,2026.1.1,Win32,147.0588235,68e5424f31cdcdd73278cc50,69b92ab4aef6dee357cd729a,69b92ad410ff5539006033a7,0.0286,0.0286,1,34,196,15,1,fourthree,,,,,,,,,,,,,,,,,,,,,,,,,,,,,,,,,,,,,,,,,,,,,,,,,,,,,,,,,,,,,,,,,,,,,,,,,,,,,,,,,,,,,,,,,,,,,,,,,,,,,,,,,,,,,,,,,,,,,,,,,,,,,,,,,,,,,,,,,
,,68e5424f31cdcdd73278cc50,2026-03-17_15h51.50.710,kallum_motion_pilot_GIST_update_2,2026.1.1,Win32,147.0588235,68e5424f31cdcdd73278cc50,69b92ab4aef6dee357cd729a,69b92ad410ff5539006033a7,0.0287,0.0287,1,35,197,45,1,threefour,,,,,,,,,,,,,,,,,,,,,,,,,,,,,,,,,,,,,,,,,,,,,,,,,,,,,,,,,,,,,,,,,,,,,,,,,,,,,,,,,,,,,,,,,,,,,,,,,,,,,,,,,,,,,,,,,,,,,,,,,,,,,,,,,,,,,,,,,
,,68e5424f31cdcdd73278cc50,2026-03-17_15h51.50.710,kallum_motion_pilot_GIST_update_2,2026.1.1,Win32,147.0588235,68e5424f31cdcdd73278cc50,69b92ab4aef6dee357cd729a,69b92ad410ff5539006033a7,0.0287,0.0287,1,36,198,84,1,sevenfive,,,,,,,,,,,,,,,,,,,,,,,,,,,,,,,,,,,,,,,,,,,,,,,,,,,,,,,,,,,,,,,,,,,,,,,,,,,,,,,,,,,,,,,,,,,,,,,,,,,,,,,,,,,,,,,,,,,,,,,,,,,,,,,,,,,,,,,,,
,,68e5424f31cdcdd73278cc50,2026-03-17_15h51.50.710,kallum_motion_pilot_GIST_update_2,2026.1.1,Win32,147.0588235,68e5424f31cdcdd73278cc50,69b92ab4aef6dee357cd729a,69b92ad410ff5539006033a7,0.0289,0.0289,1,37,199,57,1,onethree,,,,,,,,,,,,,,,,,,,,,,,,,,,,,,,,,,,,,,,,,,,,,,,,,,,,,,,,,,,,,,,,,,,,,,,,,,,,,,,,,,,,,,,,,,,,,,,,,,,,,,,,,,,,,,,,,,,,,,,,,,,,,,,,,,,,,,,,,
,,68e5424f31cdcdd73278cc50,2026-03-17_15h51.50.710,kallum_motion_pilot_GIST_update_2,2026.1.1,Win32,147.0588235,68e5424f31cdcdd73278cc50,69b92ab4aef6dee357cd729a,69b92ad410ff5539006033a7,0.029,0.029,1,38,200,109,1,seveneight,,,,,,,,,,,,,,,,,,,,,,,,,,,,,,,,,,,,,,,,,,,,,,,,,,,,,,,,,,,,,,,,,,,,,,,,,,,,,,,,,,,,,,,,,,,,,,,,,,,,,,,,,,,,,,,,,,,,,,,,,,,,,,,,,,,,,,,,,
,,68e5424f31cdcdd73278cc50,2026-03-17_15h51.50.710,kallum_motion_pilot_GIST_update_2,2026.1.1,Win32,147.0588235,68e5424f31cdcdd73278cc50,69b92ab4aef6dee357cd729a,69b92ad410ff5539006033a7,0.029,0.029,1,39,201,133,1,seveneight,,,,,,,,,,,,,,,,,,,,,,,,,,,,,,,,,,,,,,,,,,,,,,,,,,,,,,,,,,,,,,,,,,,,,,,,,,,,,,,,,,,,,,,,,,,,,,,,,,,,,,,,,,,,,,,,,,,,,,,,,,,,,,,,,,,,,,,,,
,,68e5424f31cdcdd73278cc50,2026-03-17_15h51.50.710,kallum_motion_pilot_GIST_update_2,2026.1.1,Win32,147.0588235,68e5424f31cdcdd73278cc50,69b92ab4aef6dee357cd729a,69b92ad410ff5539006033a7,0.0291,0.0291,1,40,202,80,1,fivesix,,,,,,,,,,,,,,,,,,,,,,,,,,,,,,,,,,,,,,,,,,,,,,,,,,,,,,,,,,,,,,,,,,,,,,,,,,,,,,,,,,,,,,,,,,,,,,,,,,,,,,,,,,,,,,,,,,,,,,,,,,,,,,,,,,,,,,,,,
,,68e5424f31cdcdd73278cc50,2026-03-17_15h51.50.710,kallum_motion_pilot_GIST_update_2,2026.1.1,Win32,147.0588235,68e5424f31cdcdd73278cc50,69b92ab4aef6dee357cd729a,69b92ad410ff5539006033a7,0.0292,0.0292,1,41,203,96,1,fivesix,,,,,,,,,,,,,,,,,,,,,,,,,,,,,,,,,,,,,,,,,,,,,,,,,,,,,,,,,,,,,,,,,,,,,,,,,,,,,,,,,,,,,,,,,,,,,,,,,,,,,,,,,,,,,,,,,,,,,,,,,,,,,,,,,,,,,,,,,
,,68e5424f31cdcdd73278cc50,2026-03-17_15h51.50.710,kallum_motion_pilot_GIST_update_2,2026.1.1,Win32,147.0588235,68e5424f31cdcdd73278cc50,69b92ab4aef6dee357cd729a,69b92ad410ff5539006033a7,0.0293,0.0293,1,42,204,59,1,twofour,,,,,,,,,,,,,,,,,,,,,,,,,,,,,,,,,,,,,,,,,,,,,,,,,,,,,,,,,,,,,,,,,,,,,,,,,,,,,,,,,,,,,,,,,,,,,,,,,,,,,,,,,,,,,,,,,,,,,,,,,,,,,,,,,,,,,,,,,
,,68e5424f31cdcdd73278cc50,2026-03-17_15h51.50.710,kallum_motion_pilot_GIST_update_2,2026.1.1,Win32,147.0588235,68e5424f31cdcdd73278cc50,69b92ab4aef6dee357cd729a,69b92ad410ff5539006033a7,0.0294,0.0294,1,43,205,158,1,eightsix,,,,,,,,,,,,,,,,,,,,,,,,,,,,,,,,,,,,,,,,,,,,,,,,,,,,,,,,,,,,,,,,,,,,,,,,,,,,,,,,,,,,,,,,,,,,,,,,,,,,,,,,,,,,,,,,,,,,,,,,,,,,,,,,,,,,,,,,,
,,68e5424f31cdcdd73278cc50,2026-03-17_15h51.50.710,kallum_motion_pilot_GIST_update_2,2026.1.1,Win32,147.0588235,68e5424f31cdcdd73278cc50,69b92ab4aef6dee357cd729a,69b92ad410ff5539006033a7,0.0294,0.0294,1,44,206,30,1,fourtwo,,,,,,,,,,,,,,,,,,,,,,,,,,,,,,,,,,,,,,,,,,,,,,,,,,,,,,,,,,,,,,,,,,,,,,,,,,,,,,,,,,,,,,,,,,,,,,,,,,,,,,,,,,,,,,,,,,,,,,,,,,,,,,,,,,,,,,,,,
,,68e5424f31cdcdd73278cc50,2026-03-17_15h51.50.710,kallum_motion_pilot_GIST_update_2,2026.1.1,Win32,147.0588235,68e5424f31cdcdd73278cc50,69b92ab4aef6dee357cd729a,69b92ad410ff5539006033a7,0.0296,0.0296,1,45,207,40,1,onetwo,,,,,,,,,,,,,,,,,,,,,,,,,,,,,,,,,,,,,,,,,,,,,,,,,,,,,,,,,,,,,,,,,,,,,,,,,,,,,,,,,,,,,,,,,,,,,,,,,,,,,,,,,,,,,,,,,,,,,,,,,,,,,,,,,,,,,,,,,
,,68e5424f31cdcdd73278cc50,2026-03-17_15h51.50.710,kallum_motion_pilot_GIST_update_2,2026.1.1,Win32,147.0588235,68e5424f31cdcdd73278cc50,69b92ab4aef6dee357cd729a,69b92ad410ff5539006033a7,0.0296,0.0296,1,46,208,66,1,twoone,,,,,,,,,,,,,,,,,,,,,,,,,,,,,,,,,,,,,,,,,,,,,,,,,,,,,,,,,,,,,,,,,,,,,,,,,,,,,,,,,,,,,,,,,,,,,,,,,,,,,,,,,,,,,,,,,,,,,,,,,,,,,,,,,,,,,,,,,
,,68e5424f31cdcdd73278cc50,2026-03-17_15h51.50.710,kallum_motion_pilot_GIST_update_2,2026.1.1,Win32,147.0588235,68e5424f31cdcdd73278cc50,69b92ab4aef6dee357cd729a,69b92ad410ff5539006033a7,0.0298,0.0298,1,47,209,110,1,eightsix,,,,,,,,,,,,,,,,,,,,,,,,,,,,,,,,,,,,,,,,,,,,,,,,,,,,,,,,,,,,,,,,,,,,,,,,,,,,,,,,,,,,,,,,,,,,,,,,,,,,,,,,,,,,,,,,,,,,,,,,,,,,,,,,,,,,,,,,,
,,68e5424f31cdcdd73278cc50,2026-03-17_15h51.50.710,kallum_motion_pilot_GIST_update_2,2026.1.1,Win32,147.0588235,68e5424f31cdcdd73278cc50,69b92ab4aef6dee357cd729a,69b92ad410ff5539006033a7,0.0298,0.0298,1,48,210,91,1,sixeight,,,,,,,,,,,,,,,,,,,,,,,,,,,,,,,,,,,,,,,,,,,,,,,,,,,,,,,,,,,,,,,,,,,,,,,,,,,,,,,,,,,,,,,,,,,,,,,,,,,,,,,,,,,,,,,,,,,,,,,,,,,,,,,,,,,,,,,,,
,,68e5424f31cdcdd73278cc50,2026-03-17_15h51.50.710,kallum_motion_pilot_GIST_update_2,2026.1.1,Win32,147.0588235,68e5424f31cdcdd73278cc50,69b92ab4aef6dee357cd729a,69b92ad410ff5539006033a7,0.0299,0.0299,1,49,211,27,1,twofour,,,,,,,,,,,,,,,,,,,,,,,,,,,,,,,,,,,,,,,,,,,,,,,,,,,,,,,,,,,,,,,,,,,,,,,,,,,,,,,,,,,,,,,,,,,,,,,,,,,,,,,,,,,,,,,,,,,,,,,,,,,,,,,,,,,,,,,,,
,,68e5424f31cdcdd73278cc50,2026-03-17_15h51.50.710,kallum_motion_pilot_GIST_update_2,2026.1.1,Win32,147.0588235,68e5424f31cdcdd73278cc50,69b92ab4aef6dee357cd729a,69b92ad410ff5539006033a7,0.03,0.03,1,50,212,43,1,twofour,,,,,,,,,,,,,,,,,,,,,,,,,,,,,,,,,,,,,,,,,,,,,,,,,,,,,,,,,,,,,,,,,,,,,,,,,,,,,,,,,,,,,,,,,,,,,,,,,,,,,,,,,,,,,,,,,,,,,,,,,,,,,,,,,,,,,,,,,
,,68e5424f31cdcdd73278cc50,2026-03-17_15h51.50.710,kallum_motion_pilot_GIST_update_2,2026.1.1,Win32,147.0588235,68e5424f31cdcdd73278cc50,69b92ab4aef6dee357cd729a,69b92ad410ff5539006033a7,0.0301,0.0301,1,51,213,67,1,twofour,,,,,,,,,,,,,,,,,,,,,,,,,,,,,,,,,,,,,,,,,,,,,,,,,,,,,,,,,,,,,,,,,,,,,,,,,,,,,,,,,,,,,,,,,,,,,,,,,,,,,,,,,,,,,,,,,,,,,,,,,,,,,,,,,,,,,,,,,
,,68e5424f31cdcdd73278cc50,2026-03-17_15h51.50.710,kallum_motion_pilot_GIST_update_2,2026.1.1,Win32,147.0588235,68e5424f31cdcdd73278cc50,69b92ab4aef6dee357cd729a,69b92ad410ff5539006033a7,0.0301,0.0301,1,52,214,150,1,eightsix,,,,,,,,,,,,,,,,,,,,,,,,,,,,,,,,,,,,,,,,,,,,,,,,,,,,,,,,,,,,,,,,,,,,,,,,,,,,,,,,,,,,,,,,,,,,,,,,,,,,,,,,,,,,,,,,,,,,,,,,,,,,,,,,,,,,,,,,,
,,68e5424f31cdcdd73278cc50,2026-03-17_15h51.50.710,kallum_motion_pilot_GIST_update_2,2026.1.1,Win32,147.0588235,68e5424f31cdcdd73278cc50,69b92ab4aef6dee357cd729a,69b92ad410ff5539006033a7,0.0303,0.0303,1,53,215,22,1,fourtwo,,,,,,,,,,,,,,,,,,,,,,,,,,,,,,,,,,,,,,,,,,,,,,,,,,,,,,,,,,,,,,,,,,,,,,,,,,,,,,,,,,,,,,,,,,,,,,,,,,,,,,,,,,,,,,,,,,,,,,,,,,,,,,,,,,,,,,,,,
,,68e5424f31cdcdd73278cc50,2026-03-17_15h51.50.710,kallum_motion_pilot_GIST_update_2,2026.1.1,Win32,147.0588235,68e5424f31cdcdd73278cc50,69b92ab4aef6dee357cd729a,69b92ad410ff5539006033a7,0.0304,0.0304,1,54,216,60,1,threeone,,,,,,,,,,,,,,,,,,,,,,,,,,,,,,,,,,,,,,,,,,,,,,,,,,,,,,,,,,,,,,,,,,,,,,,,,,,,,,,,,,,,,,,,,,,,,,,,,,,,,,,,,,,,,,,,,,,,,,,,,,,,,,,,,,,,,,,,,
,,68e5424f31cdcdd73278cc50,2026-03-17_15h51.50.710,kallum_motion_pilot_GIST_update_2,2026.1.1,Win32,147.0588235,68e5424f31cdcdd73278cc50,69b92ab4aef6dee357cd729a,69b92ad410ff5539006033a7,0.0304,0.0304,1,55,217,118,1,eightsix,,,,,,,,,,,,,,,,,,,,,,,,,,,,,,,,,,,,,,,,,,,,,,,,,,,,,,,,,,,,,,,,,,,,,,,,,,,,,,,,,,,,,,,,,,,,,,,,,,,,,,,,,,,,,,,,,,,,,,,,,,,,,,,,,,,,,,,,,
,,68e5424f31cdcdd73278cc50,2026-03-17_15h51.50.710,kallum_motion_pilot_GIST_update_2,2026.1.1,Win32,147.0588235,68e5424f31cdcdd73278cc50,69b92ab4aef6dee357cd729a,69b92ad410ff5539006033a7,0.0305,0.0305,1,56,218,97,1,fiveseven,,,,,,,,,,,,,,,,,,,,,,,,,,,,,,,,,,,,,,,,,,,,,,,,,,,,,,,,,,,,,,,,,,,,,,,,,,,,,,,,,,,,,,,,,,,,,,,,,,,,,,,,,,,,,,,,,,,,,,,,,,,,,,,,,,,,,,,,,
,,68e5424f31cdcdd73278cc50,2026-03-17_15h51.50.710,kallum_motion_pilot_GIST_update_2,2026.1.1,Win32,147.0588235,68e5424f31cdcdd73278cc50,69b92ab4aef6dee357cd729a,69b92ad410ff5539006033a7,0.0306,0.0306,1,57,219,17,1,onethree,,,,,,,,,,,,,,,,,,,,,,,,,,,,,,,,,,,,,,,,,,,,,,,,,,,,,,,,,,,,,,,,,,,,,,,,,,,,,,,,,,,,,,,,,,,,,,,,,,,,,,,,,,,,,,,,,,,,,,,,,,,,,,,,,,,,,,,,,
,,68e5424f31cdcdd73278cc50,2026-03-17_15h51.50.710,kallum_motion_pilot_GIST_update_2,2026.1.1,Win32,147.0588235,68e5424f31cdcdd73278cc50,69b92ab4aef6dee357cd729a,69b92ad410ff5539006033a7,0.0307,0.0307,1,58,220,76,1,threeone,,,,,,,,,,,,,,,,,,,,,,,,,,,,,,,,,,,,,,,,,,,,,,,,,,,,,,,,,,,,,,,,,,,,,,,,,,,,,,,,,,,,,,,,,,,,,,,,,,,,,,,,,,,,,,,,,,,,,,,,,,,,,,,,,,,,,,,,,
,,68e5424f31cdcdd73278cc50,2026-03-17_15h51.50.710,kallum_motion_pilot_GIST_update_2,2026.1.1,Win32,147.0588235,68e5424f31cdcdd73278cc50,69b92ab4aef6dee357cd729a,69b92ad410ff5539006033a7,0.0308,0.0308,1,59,221,149,1,seveneight,,,,,,,,,,,,,,,,,,,,,,,,,,,,,,,,,,,,,,,,,,,,,,,,,,,,,,,,,,,,,,,,,,,,,,,,,,,,,,,,,,,,,,,,,,,,,,,,,,,,,,,,,,,,,,,,,,,,,,,,,,,,,,,,,,,,,,,,,
,,68e5424f31cdcdd73278cc50,2026-03-17_15h51.50.710,kallum_motion_pilot_GIST_update_2,2026.1.1,Win32,147.0588235,68e5424f31cdcdd73278cc50,69b92ab4aef6dee357cd729a,69b92ad410ff5539006033a7,0.0309,0.0309,1,60,222,144,1,fivesix,,,,,,,,,,,,,,,,,,,,,,,,,,,,,,,,,,,,,,,,,,,,,,,,,,,,,,,,,,,,,,,,,,,,,,,,,,,,,,,,,,,,,,,,,,,,,,,,,,,,,,,,,,,,,,,,,,,,,,,,,,,,,,,,,,,,,,,,,
,,68e5424f31cdcdd73278cc50,2026-03-17_15h51.50.710,kallum_motion_pilot_GIST_update_2,2026.1.1,Win32,147.0588235,68e5424f31cdcdd73278cc50,69b92ab4aef6dee357cd729a,69b92ad410ff5539006033a7,0.0309,0.031,1,61,223,73,1,onethree,,,,,,,,,,,,,,,,,,,,,,,,,,,,,,,,,,,,,,,,,,,,,,,,,,,,,,,,,,,,,,,,,,,,,,,,,,,,,,,,,,,,,,,,,,,,,,,,,,,,,,,,,,,,,,,,,,,,,,,,,,,,,,,,,,,,,,,,,
,,68e5424f31cdcdd73278cc50,2026-03-17_15h51.50.710,kallum_motion_pilot_GIST_update_2,2026.1.1,Win32,147.0588235,68e5424f31cdcdd73278cc50,69b92ab4aef6dee357cd729a,69b92ad410ff5539006033a7,0.031,0.031,1,62,224,117,1,seveneight,,,,,,,,,,,,,,,,,,,,,,,,,,,,,,,,,,,,,,,,,,,,,,,,,,,,,,,,,,,,,,,,,,,,,,,,,,,,,,,,,,,,,,,,,,,,,,,,,,,,,,,,,,,,,,,,,,,,,,,,,,,,,,,,,,,,,,,,,
,,68e5424f31cdcdd73278cc50,2026-03-17_15h51.50.710,kallum_motion_pilot_GIST_update_2,2026.1.1,Win32,147.0588235,68e5424f31cdcdd73278cc50,69b92ab4aef6dee357cd729a,69b92ad410ff5539006033a7,0.0311,0.0311,1,63,225,95,1,eightseven,,,,,,,,,,,,,,,,,,,,,,,,,,,,,,,,,,,,,,,,,,,,,,,,,,,,,,,,,,,,,,,,,,,,,,,,,,,,,,,,,,,,,,,,,,,,,,,,,,,,,,,,,,,,,,,,,,,,,,,,,,,,,,,,,,,,,,,,,
,,68e5424f31cdcdd73278cc50,2026-03-17_15h51.50.710,kallum_motion_pilot_GIST_update_2,2026.1.1,Win32,147.0588235,68e5424f31cdcdd73278cc50,69b92ab4aef6dee357cd729a,69b92ad410ff5539006033a7,0.0312,0.0312,1,64,226,141,1,seveneight,,,,,,,,,,,,,,,,,,,,,,,,,,,,,,,,,,,,,,,,,,,,,,,,,,,,,,,,,,,,,,,,,,,,,,,,,,,,,,,,,,,,,,,,,,,,,,,,,,,,,,,,,,,,,,,,,,,,,,,,,,,,,,,,,,,,,,,,,
,,68e5424f31cdcdd73278cc50,2026-03-17_15h51.50.710,kallum_motion_pilot_GIST_update_2,2026.1.1,Win32,147.0588235,68e5424f31cdcdd73278cc50,69b92ab4aef6dee357cd729a,69b92ad410ff5539006033a7,0.0313,0.0313,1,65,227,129,1,fiveseven,,,,,,,,,,,,,,,,,,,,,,,,,,,,,,,,,,,,,,,,,,,,,,,,,,,,,,,,,,,,,,,,,,,,,,,,,,,,,,,,,,,,,,,,,,,,,,,,,,,,,,,,,,,,,,,,,,,,,,,,,,,,,,,,,,,,,,,,,
,,68e5424f31cdcdd73278cc50,2026-03-17_15h51.50.710,kallum_motion_pilot_GIST_update_2,2026.1.1,Win32,147.0588235,68e5424f31cdcdd73278cc50,69b92ab4aef6dee357cd729a,69b92ad410ff5539006033a7,0.0314,0.0314,1,66,228,29,1,threefour,,,,,,,,,,,,,,,,,,,,,,,,,,,,,,,,,,,,,,,,,,,,,,,,,,,,,,,,,,,,,,,,,,,,,,,,,,,,,,,,,,,,,,,,,,,,,,,,,,,,,,,,,,,,,,,,,,,,,,,,,,,,,,,,,,,,,,,,,
,,68e5424f31cdcdd73278cc50,2026-03-17_15h51.50.710,kallum_motion_pilot_GIST_update_2,2026.1.1,Win32,147.0588235,68e5424f31cdcdd73278cc50,69b92ab4aef6dee357cd729a,69b92ad410ff5539006033a7,0.0315,0.0315,1,67,229,63,1,fourthree,,,,,,,,,,,,,,,,,,,,,,,,,,,,,,,,,,,,,,,,,,,,,,,,,,,,,,,,,,,,,,,,,,,,,,,,,,,,,,,,,,,,,,,,,,,,,,,,,,,,,,,,,,,,,,,,,,,,,,,,,,,,,,,,,,,,,,,,,
,,68e5424f31cdcdd73278cc50,2026-03-17_15h51.50.710,kallum_motion_pilot_GIST_update_2,2026.1.1,Win32,147.0588235,68e5424f31cdcdd73278cc50,69b92ab4aef6dee357cd729a,69b92ad410ff5539006033a7,0.0315,0.0315,1,68,230,53,1,threefour,,,,,,,,,,,,,,,,,,,,,,,,,,,,,,,,,,,,,,,,,,,,,,,,,,,,,,,,,,,,,,,,,,,,,,,,,,,,,,,,,,,,,,,,,,,,,,,,,,,,,,,,,,,,,,,,,,,,,,,,,,,,,,,,,,,,,,,,,
,,68e5424f31cdcdd73278cc50,2026-03-17_15h51.50.710,kallum_motion_pilot_GIST_update_2,2026.1.1,Win32,147.0588235,68e5424f31cdcdd73278cc50,69b92ab4aef6dee357cd729a,69b92ad410ff5539006033a7,0.0317,0.0317,1,69,231,151,1,eightseven,,,,,,,,,,,,,,,,,,,,,,,,,,,,,,,,,,,,,,,,,,,,,,,,,,,,,,,,,,,,,,,,,,,,,,,,,,,,,,,,,,,,,,,,,,,,,,,,,,,,,,,,,,,,,,,,,,,,,,,,,,,,,,,,,,,,,,,,,
,,68e5424f31cdcdd73278cc50,2026-03-17_15h51.50.710,kallum_motion_pilot_GIST_update_2,2026.1.1,Win32,147.0588235,68e5424f31cdcdd73278cc50,69b92ab4aef6dee357cd729a,69b92ad410ff5539006033a7,0.0318,0.0318,1,70,232,115,1,sixeight,,,,,,,,,,,,,,,,,,,,,,,,,,,,,,,,,,,,,,,,,,,,,,,,,,,,,,,,,,,,,,,,,,,,,,,,,,,,,,,,,,,,,,,,,,,,,,,,,,,,,,,,,,,,,,,,,,,,,,,,,,,,,,,,,,,,,,,,,
,,68e5424f31cdcdd73278cc50,2026-03-17_15h51.50.710,kallum_motion_pilot_GIST_update_2,2026.1.1,Win32,147.0588235,68e5424f31cdcdd73278cc50,69b92ab4aef6dee357cd729a,69b92ad410ff5539006033a7,0.0318,0.0318,1,71,233,70,1,fourtwo,,,,,,,,,,,,,,,,,,,,,,,,,,,,,,,,,,,,,,,,,,,,,,,,,,,,,,,,,,,,,,,,,,,,,,,,,,,,,,,,,,,,,,,,,,,,,,,,,,,,,,,,,,,,,,,,,,,,,,,,,,,,,,,,,,,,,,,,,
,,68e5424f31cdcdd73278cc50,2026-03-17_15h51.50.710,kallum_motion_pilot_GIST_update_2,2026.1.1,Win32,147.0588235,68e5424f31cdcdd73278cc50,69b92ab4aef6dee357cd729a,69b92ad410ff5539006033a7,0.0319,0.0319,1,72,234,4,1,threeone,,,,,,,,,,,,,,,,,,,,,,,,,,,,,,,,,,,,,,,,,,,,,,,,,,,,,,,,,,,,,,,,,,,,,,,,,,,,,,,,,,,,,,,,,,,,,,,,,,,,,,,,,,,,,,,,,,,,,,,,,,,,,,,,,,,,,,,,,
,,68e5424f31cdcdd73278cc50,2026-03-17_15h51.50.710,kallum_motion_pilot_GIST_update_2,2026.1.1,Win32,147.0588235,68e5424f31cdcdd73278cc50,69b92ab4aef6dee357cd729a,69b92ad410ff5539006033a7,0.032,0.032,1,73,235,48,1,onetwo,,,,,,,,,,,,,,,,,,,,,,,,,,,,,,,,,,,,,,,,,,,,,,,,,,,,,,,,,,,,,,,,,,,,,,,,,,,,,,,,,,,,,,,,,,,,,,,,,,,,,,,,,,,,,,,,,,,,,,,,,,,,,,,,,,,,,,,,,
,,68e5424f31cdcdd73278cc50,2026-03-17_15h51.50.710,kallum_motion_pilot_GIST_update_2,2026.1.1,Win32,147.0588235,68e5424f31cdcdd73278cc50,69b92ab4aef6dee357cd729a,69b92ad410ff5539006033a7,0.0321,0.0321,1,74,236,136,1,fivesix,,,,,,,,,,,,,,,,,,,,,,,,,,,,,,,,,,,,,,,,,,,,,,,,,,,,,,,,,,,,,,,,,,,,,,,,,,,,,,,,,,,,,,,,,,,,,,,,,,,,,,,,,,,,,,,,,,,,,,,,,,,,,,,,,,,,,,,,,
,,68e5424f31cdcdd73278cc50,2026-03-17_15h51.50.710,kallum_motion_pilot_GIST_update_2,2026.1.1,Win32,147.0588235,68e5424f31cdcdd73278cc50,69b92ab4aef6dee357cd729a,69b92ad410ff5539006033a7,0.0321,0.0321,1,75,237,13,1,threefour,,,,,,,,,,,,,,,,,,,,,,,,,,,,,,,,,,,,,,,,,,,,,,,,,,,,,,,,,,,,,,,,,,,,,,,,,,,,,,,,,,,,,,,,,,,,,,,,,,,,,,,,,,,,,,,,,,,,,,,,,,,,,,,,,,,,,,,,,
,,68e5424f31cdcdd73278cc50,2026-03-17_15h51.50.710,kallum_motion_pilot_GIST_update_2,2026.1.1,Win32,147.0588235,68e5424f31cdcdd73278cc50,69b92ab4aef6dee357cd729a,69b92ad410ff5539006033a7,0.0323,0.0323,1,76,238,119,1,eightseven,,,,,,,,,,,,,,,,,,,,,,,,,,,,,,,,,,,,,,,,,,,,,,,,,,,,,,,,,,,,,,,,,,,,,,,,,,,,,,,,,,,,,,,,,,,,,,,,,,,,,,,,,,,,,,,,,,,,,,,,,,,,,,,,,,,,,,,,,
,,68e5424f31cdcdd73278cc50,2026-03-17_15h51.50.710,kallum_motion_pilot_GIST_update_2,2026.1.1,Win32,147.0588235,68e5424f31cdcdd73278cc50,69b92ab4aef6dee357cd729a,69b92ad410ff5539006033a7,0.0323,0.0323,1,77,239,138,1,sixfive,,,,,,,,,,,,,,,,,,,,,,,,,,,,,,,,,,,,,,,,,,,,,,,,,,,,,,,,,,,,,,,,,,,,,,,,,,,,,,,,,,,,,,,,,,,,,,,,,,,,,,,,,,,,,,,,,,,,,,,,,,,,,,,,,,,,,,,,,
,,68e5424f31cdcdd73278cc50,2026-03-17_15h51.50.710,kallum_motion_pilot_GIST_update_2,2026.1.1,Win32,147.0588235,68e5424f31cdcdd73278cc50,69b92ab4aef6dee357cd729a,69b92ad410ff5539006033a7,0.0324,0.0324,1,78,240,143,1,eightseven,,,,,,,,,,,,,,,,,,,,,,,,,,,,,,,,,,,,,,,,,,,,,,,,,,,,,,,,,,,,,,,,,,,,,,,,,,,,,,,,,,,,,,,,,,,,,,,,,,,,,,,,,,,,,,,,,,,,,,,,,,,,,,,,,,,,,,,,,
,,68e5424f31cdcdd73278cc50,2026-03-17_15h51.50.710,kallum_motion_pilot_GIST_update_2,2026.1.1,Win32,147.0588235,68e5424f31cdcdd73278cc50,69b92ab4aef6dee357cd729a,69b92ad410ff5539006033a7,0.0325,0.0325,1,79,241,130,1,sixfive,,,,,,,,,,,,,,,,,,,,,,,,,,,,,,,,,,,,,,,,,,,,,,,,,,,,,,,,,,,,,,,,,,,,,,,,,,,,,,,,,,,,,,,,,,,,,,,,,,,,,,,,,,,,,,,,,,,,,,,,,,,,,,,,,,,,,,,,,
,,68e5424f31cdcdd73278cc50,2026-03-17_15h51.50.710,kallum_motion_pilot_GIST_update_2,2026.1.1,Win32,147.0588235,68e5424f31cdcdd73278cc50,69b92ab4aef6dee357cd729a,69b92ad410ff5539006033a7,0.0325,0.0325,1,80,242,122,1,sixfive,,,,,,,,,,,,,,,,,,,,,,,,,,,,,,,,,,,,,,,,,,,,,,,,,,,,,,,,,,,,,,,,,,,,,,,,,,,,,,,,,,,,,,,,,,,,,,,,,,,,,,,,,,,,,,,,,,,,,,,,,,,,,,,,,,,,,,,,,
,,68e5424f31cdcdd73278cc50,2026-03-17_15h51.50.710,kallum_motion_pilot_GIST_update_2,2026.1.1,Win32,147.0588235,68e5424f31cdcdd73278cc50,69b92ab4aef6dee357cd729a,69b92ad410ff5539006033a7,0.0327,0.0327,1,81,243,56,1,onetwo,,,,,,,,,,,,,,,,,,,,,,,,,,,,,,,,,,,,,,,,,,,,,,,,,,,,,,,,,,,,,,,,,,,,,,,,,,,,,,,,,,,,,,,,,,,,,,,,,,,,,,,,,,,,,,,,,,,,,,,,,,,,,,,,,,,,,,,,,
,,68e5424f31cdcdd73278cc50,2026-03-17_15h51.50.710,kallum_motion_pilot_GIST_update_2,2026.1.1,Win32,147.0588235,68e5424f31cdcdd73278cc50,69b92ab4aef6dee357cd729a,69b92ad410ff5539006033a7,0.0327,0.0327,1,82,244,10,1,twoone,,,,,,,,,,,,,,,,,,,,,,,,,,,,,,,,,,,,,,,,,,,,,,,,,,,,,,,,,,,,,,,,,,,,,,,,,,,,,,,,,,,,,,,,,,,,,,,,,,,,,,,,,,,,,,,,,,,,,,,,,,,,,,,,,,,,,,,,,
,,68e5424f31cdcdd73278cc50,2026-03-17_15h51.50.710,kallum_motion_pilot_GIST_update_2,2026.1.1,Win32,147.0588235,68e5424f31cdcdd73278cc50,69b92ab4aef6dee357cd729a,69b92ad410ff5539006033a7,0.0328,0.0328,1,83,245,153,1,fiveseven,,,,,,,,,,,,,,,,,,,,,,,,,,,,,,,,,,,,,,,,,,,,,,,,,,,,,,,,,,,,,,,,,,,,,,,,,,,,,,,,,,,,,,,,,,,,,,,,,,,,,,,,,,,,,,,,,,,,,,,,,,,,,,,,,,,,,,,,,
,,68e5424f31cdcdd73278cc50,2026-03-17_15h51.50.710,kallum_motion_pilot_GIST_update_2,2026.1.1,Win32,147.0588235,68e5424f31cdcdd73278cc50,69b92ab4aef6dee357cd729a,69b92ad410ff5539006033a7,0.033,0.033,1,84,246,62,1,fourtwo,,,,,,,,,,,,,,,,,,,,,,,,,,,,,,,,,,,,,,,,,,,,,,,,,,,,,,,,,,,,,,,,,,,,,,,,,,,,,,,,,,,,,,,,,,,,,,,,,,,,,,,,,,,,,,,,,,,,,,,,,,,,,,,,,,,,,,,,,
,,68e5424f31cdcdd73278cc50,2026-03-17_15h51.50.710,kallum_motion_pilot_GIST_update_2,2026.1.1,Win32,147.0588235,68e5424f31cdcdd73278cc50,69b92ab4aef6dee357cd729a,69b92ad410ff5539006033a7,0.033,0.033,1,85,247,9,1,onethree,,,,,,,,,,,,,,,,,,,,,,,,,,,,,,,,,,,,,,,,,,,,,,,,,,,,,,,,,,,,,,,,,,,,,,,,,,,,,,,,,,,,,,,,,,,,,,,,,,,,,,,,,,,,,,,,,,,,,,,,,,,,,,,,,,,,,,,,,
,,68e5424f31cdcdd73278cc50,2026-03-17_15h51.50.710,kallum_motion_pilot_GIST_update_2,2026.1.1,Win32,147.0588235,68e5424f31cdcdd73278cc50,69b92ab4aef6dee357cd729a,69b92ad410ff5539006033a7,0.0331,0.0331,1,86,248,146,1,sixfive,,,,,,,,,,,,,,,,,,,,,,,,,,,,,,,,,,,,,,,,,,,,,,,,,,,,,,,,,,,,,,,,,,,,,,,,,,,,,,,,,,,,,,,,,,,,,,,,,,,,,,,,,,,,,,,,,,,,,,,,,,,,,,,,,,,,,,,,,
,,68e5424f31cdcdd73278cc50,2026-03-17_15h51.50.710,kallum_motion_pilot_GIST_update_2,2026.1.1,Win32,147.0588235,68e5424f31cdcdd73278cc50,69b92ab4aef6dee357cd729a,69b92ad410ff5539006033a7,0.0331,0.0331,1,87,249,134,1,eightsix,,,,,,,,,,,,,,,,,,,,,,,,,,,,,,,,,,,,,,,,,,,,,,,,,,,,,,,,,,,,,,,,,,,,,,,,,,,,,,,,,,,,,,,,,,,,,,,,,,,,,,,,,,,,,,,,,,,,,,,,,,,,,,,,,,,,,,,,,
,,68e5424f31cdcdd73278cc50,2026-03-17_15h51.50.710,kallum_motion_pilot_GIST_update_2,2026.1.1,Win32,147.0588235,68e5424f31cdcdd73278cc50,69b92ab4aef6dee357cd729a,69b92ad410ff5539006033a7,0.0332,0.0332,1,88,250,1,1,onethree,,,,,,,,,,,,,,,,,,,,,,,,,,,,,,,,,,,,,,,,,,,,,,,,,,,,,,,,,,,,,,,,,,,,,,,,,,,,,,,,,,,,,,,,,,,,,,,,,,,,,,,,,,,,,,,,,,,,,,,,,,,,,,,,,,,,,,,,,
,,68e5424f31cdcdd73278cc50,2026-03-17_15h51.50.710,kallum_motion_pilot_GIST_update_2,2026.1.1,Win32,147.0588235,68e5424f31cdcdd73278cc50,69b92ab4aef6dee357cd729a,69b92ad410ff5539006033a7,0.0333,0.0333,1,89,251,128,1,fivesix,,,,,,,,,,,,,,,,,,,,,,,,,,,,,,,,,,,,,,,,,,,,,,,,,,,,,,,,,,,,,,,,,,,,,,,,,,,,,,,,,,,,,,,,,,,,,,,,,,,,,,,,,,,,,,,,,,,,,,,,,,,,,,,,,,,,,,,,,
,,68e5424f31cdcdd73278cc50,2026-03-17_15h51.50.710,kallum_motion_pilot_GIST_update_2,2026.1.1,Win32,147.0588235,68e5424f31cdcdd73278cc50,69b92ab4aef6dee357cd729a,69b92ad410ff5539006033a7,0.0335,0.0335,1,90,252,50,1,twoone,,,,,,,,,,,,,,,,,,,,,,,,,,,,,,,,,,,,,,,,,,,,,,,,,,,,,,,,,,,,,,,,,,,,,,,,,,,,,,,,,,,,,,,,,,,,,,,,,,,,,,,,,,,,,,,,,,,,,,,,,,,,,,,,,,,,,,,,,
,,68e5424f31cdcdd73278cc50,2026-03-17_15h51.50.710,kallum_motion_pilot_GIST_update_2,2026.1.1,Win32,147.0588235,68e5424f31cdcdd73278cc50,69b92ab4aef6dee357cd729a,69b92ad410ff5539006033a7,0.0336,0.0336,1,91,253,46,1,fourtwo,,,,,,,,,,,,,,,,,,,,,,,,,,,,,,,,,,,,,,,,,,,,,,,,,,,,,,,,,,,,,,,,,,,,,,,,,,,,,,,,,,,,,,,,,,,,,,,,,,,,,,,,,,,,,,,,,,,,,,,,,,,,,,,,,,,,,,,,,
,,68e5424f31cdcdd73278cc50,2026-03-17_15h51.50.710,kallum_motion_pilot_GIST_update_2,2026.1.1,Win32,147.0588235,68e5424f31cdcdd73278cc50,69b92ab4aef6dee357cd729a,69b92ad410ff5539006033a7,0.0336,0.0336,1,92,254,3,1,twofour,,,,,,,,,,,,,,,,,,,,,,,,,,,,,,,,,,,,,,,,,,,,,,,,,,,,,,,,,,,,,,,,,,,,,,,,,,,,,,,,,,,,,,,,,,,,,,,,,,,,,,,,,,,,,,,,,,,,,,,,,,,,,,,,,,,,,,,,,
,,68e5424f31cdcdd73278cc50,2026-03-17_15h51.50.710,kallum_motion_pilot_GIST_update_2,2026.1.1,Win32,147.0588235,68e5424f31cdcdd73278cc50,69b92ab4aef6dee357cd729a,69b92ad410ff5539006033a7,0.0337,0.0337,1,93,255,105,1,fiveseven,,,,,,,,,,,,,,,,,,,,,,,,,,,,,,,,,,,,,,,,,,,,,,,,,,,,,,,,,,,,,,,,,,,,,,,,,,,,,,,,,,,,,,,,,,,,,,,,,,,,,,,,,,,,,,,,,,,,,,,,,,,,,,,,,,,,,,,,,
,,68e5424f31cdcdd73278cc50,2026-03-17_15h51.50.710,kallum_motion_pilot_GIST_update_2,2026.1.1,Win32,147.0588235,68e5424f31cdcdd73278cc50,69b92ab4aef6dee357cd729a,69b92ad410ff5539006033a7,0.0339,0.0339,1,94,256,58,1,twoone,,,,,,,,,,,,,,,,,,,,,,,,,,,,,,,,,,,,,,,,,,,,,,,,,,,,,,,,,,,,,,,,,,,,,,,,,,,,,,,,,,,,,,,,,,,,,,,,,,,,,,,,,,,,,,,,,,,,,,,,,,,,,,,,,,,,,,,,,
,,68e5424f31cdcdd73278cc50,2026-03-17_15h51.50.710,kallum_motion_pilot_GIST_update_2,2026.1.1,Win32,147.0588235,68e5424f31cdcdd73278cc50,69b92ab4aef6dee357cd729a,69b92ad410ff5539006033a7,0.0339,0.0339,1,95,257,125,1,seveneight,,,,,,,,,,,,,,,,,,,,,,,,,,,,,,,,,,,,,,,,,,,,,,,,,,,,,,,,,,,,,,,,,,,,,,,,,,,,,,,,,,,,,,,,,,,,,,,,,,,,,,,,,,,,,,,,,,,,,,,,,,,,,,,,,,,,,,,,,
,,68e5424f31cdcdd73278cc50,2026-03-17_15h51.50.710,kallum_motion_pilot_GIST_update_2,2026.1.1,Win32,147.0588235,68e5424f31cdcdd73278cc50,69b92ab4aef6dee357cd729a,69b92ad410ff5539006033a7,0.034,0.034,1,96,258,160,1,fivesix,,,,,,,,,,,,,,,,,,,,,,,,,,,,,,,,,,,,,,,,,,,,,,,,,,,,,,,,,,,,,,,,,,,,,,,,,,,,,,,,,,,,,,,,,,,,,,,,,,,,,,,,,,,,,,,,,,,,,,,,,,,,,,,,,,,,,,,,,
,,68e5424f31cdcdd73278cc50,2026-03-17_15h51.50.710,kallum_motion_pilot_GIST_update_2,2026.1.1,Win32,147.0588235,68e5424f31cdcdd73278cc50,69b92ab4aef6dee357cd729a,69b92ad410ff5539006033a7,0.0341,0.0341,1,97,259,106,1,sixfive,,,,,,,,,,,,,,,,,,,,,,,,,,,,,,,,,,,,,,,,,,,,,,,,,,,,,,,,,,,,,,,,,,,,,,,,,,,,,,,,,,,,,,,,,,,,,,,,,,,,,,,,,,,,,,,,,,,,,,,,,,,,,,,,,,,,,,,,,
,,68e5424f31cdcdd73278cc50,2026-03-17_15h51.50.710,kallum_motion_pilot_GIST_update_2,2026.1.1,Win32,147.0588235,68e5424f31cdcdd73278cc50,69b92ab4aef6dee357cd729a,69b92ad410ff5539006033a7,0.0343,0.0343,1,98,260,142,1,eightsix,,,,,,,,,,,,,,,,,,,,,,,,,,,,,,,,,,,,,,,,,,,,,,,,,,,,,,,,,,,,,,,,,,,,,,,,,,,,,,,,,,,,,,,,,,,,,,,,,,,,,,,,,,,,,,,,,,,,,,,,,,,,,,,,,,,,,,,,,
,,68e5424f31cdcdd73278cc50,2026-03-17_15h51.50.710,kallum_motion_pilot_GIST_update_2,2026.1.1,Win32,147.0588235,68e5424f31cdcdd73278cc50,69b92ab4aef6dee357cd729a,69b92ad410ff5539006033a7,0.0343,0.0343,1,99,261,161,1,fiveseven,,,,,,,,,,,,,,,,,,,,,,,,,,,,,,,,,,,,,,,,,,,,,,,,,,,,,,,,,,,,,,,,,,,,,,,,,,,,,,,,,,,,,,,,,,,,,,,,,,,,,,,,,,,,,,,,,,,,,,,,,,,,,,,,,,,,,,,,,
,,68e5424f31cdcdd73278cc50,2026-03-17_15h51.50.710,kallum_motion_pilot_GIST_update_2,2026.1.1,Win32,147.0588235,68e5424f31cdcdd73278cc50,69b92ab4aef6dee357cd729a,69b92ad410ff5539006033a7,0.0344,0.0344,1,100,262,69,1,threefour,,,,,,,,,,,,,,,,,,,,,,,,,,,,,,,,,,,,,,,,,,,,,,,,,,,,,,,,,,,,,,,,,,,,,,,,,,,,,,,,,,,,,,,,,,,,,,,,,,,,,,,,,,,,,,,,,,,,,,,,,,,,,,,,,,,,,,,,,
,,68e5424f31cdcdd73278cc50,2026-03-17_15h51.50.710,kallum_motion_pilot_GIST_update_2,2026.1.1,Win32,147.0588235,68e5424f31cdcdd73278cc50,69b92ab4aef6dee357cd729a,69b92ad410ff5539006033a7,0.0345,0.0345,1,101,263,89,1,fiveseven,,,,,,,,,,,,,,,,,,,,,,,,,,,,,,,,,,,,,,,,,,,,,,,,,,,,,,,,,,,,,,,,,,,,,,,,,,,,,,,,,,,,,,,,,,,,,,,,,,,,,,,,,,,,,,,,,,,,,,,,,,,,,,,,,,,,,,,,,
,,68e5424f31cdcdd73278cc50,2026-03-17_15h51.50.710,kallum_motion_pilot_GIST_update_2,2026.1.1,Win32,147.0588235,68e5424f31cdcdd73278cc50,69b92ab4aef6dee357cd729a,69b92ad410ff5539006033a7,0.0347,0.0347,1,102,264,19,1,twofour,,,,,,,,,,,,,,,,,,,,,,,,,,,,,,,,,,,,,,,,,,,,,,,,,,,,,,,,,,,,,,,,,,,,,,,,,,,,,,,,,,,,,,,,,,,,,,,,,,,,,,,,,,,,,,,,,,,,,,,,,,,,,,,,,,,,,,,,,
,,68e5424f31cdcdd73278cc50,2026-03-17_15h51.50.710,kallum_motion_pilot_GIST_update_2,2026.1.1,Win32,147.0588235,68e5424f31cdcdd73278cc50,69b92ab4aef6dee357cd729a,69b92ad410ff5539006033a7,0.0348,0.0348,1,103,265,157,1,seveneight,,,,,,,,,,,,,,,,,,,,,,,,,,,,,,,,,,,,,,,,,,,,,,,,,,,,,,,,,,,,,,,,,,,,,,,,,,,,,,,,,,,,,,,,,,,,,,,,,,,,,,,,,,,,,,,,,,,,,,,,,,,,,,,,,,,,,,,,,
,,68e5424f31cdcdd73278cc50,2026-03-17_15h51.50.710,kallum_motion_pilot_GIST_update_2,2026.1.1,Win32,147.0588235,68e5424f31cdcdd73278cc50,69b92ab4aef6dee357cd729a,69b92ad410ff5539006033a7,0.035,0.035,1,104,266,98,1,sixfive,,,,,,,,,,,,,,,,,,,,,,,,,,,,,,,,,,,,,,,,,,,,,,,,,,,,,,,,,,,,,,,,,,,,,,,,,,,,,,,,,,,,,,,,,,,,,,,,,,,,,,,,,,,,,,,,,,,,,,,,,,,,,,,,,,,,,,,,,
