startup.started,startup.stopped,Prolific ID*,date,expName,psychopyVersion,OS,frameRate,participant,study_id,session,stimpositions.started,stimpositions.stopped,hardcoded_stimulus_positions.thisRepN,hardcoded_stimulus_positions.thisTrialN,hardcoded_stimulus_positions.thisN,hardcoded_stimulus_positions.thisIndex,hardcoded_stimulus_positions.ran,StimulusPos,stimorientation.started,stimorientation.stopped,prac_stimorientation_import_loop.thisRepN,prac_stimorientation_import_loop.thisTrialN,prac_stimorientation_import_loop.thisN,prac_stimorientation_import_loop.thisIndex,prac_stimorientation_import_loop.ran,Stimorientation,welcome_instr.started,welcome_instr.stopped,key_resp.keys,key_resp.rt,key_resp.duration,response_steppedout_1.started,response_steppedout_1.stopped,key_resp_20.keys,key_resp_20.rt,key_resp_20.duration,response_steppedout_2.started,response_steppedout_2.stopped,key_resp_19.keys,key_resp_19.rt,key_resp_19.duration,stim_response_instr.started,stim_response_instr.stopped,key_resp_15.keys,key_resp_15.rt,key_resp_15.duration,direction_instr_2.started,direction_instr_2.stopped,key_resp_9.keys,key_resp_9.rt,key_resp_9.duration,instr_prac.started,instr_prac.stopped,key_resp_10.keys,key_resp_10.rt,key_resp_10.duration,Stim1_display_prac.started,Stim1_display_prac.stopped,Ecc,Circle1_ori,Circle2_ori,response_prac.started,similarity,response_time,response_prac.stopped,mouse_5.x,mouse_5.y,mouse_5.leftButton,mouse_5.midButton,mouse_5.rightButton,mouse_5.clicked_name,responseprac_feedback.started,responseprac_feedback.stopped,summary2_prac.started,summary2_prac.stopped,mouse_6.x,mouse_6.y,mouse_6.leftButton,mouse_6.midButton,mouse_6.rightButton,mouse_6.clicked_name,duringprac.thisRepN,duringprac.thisTrialN,duringprac.thisN,duringprac.thisIndex,duringprac.ran,begin.started,begin.stopped,key_resp_22.keys,key_resp_22.rt,key_resp_22.duration,Stim1_display.started,Stim1_display.stopped,circle1_ori,circle2_ori,circle1_SF,circle2_SF,response.started,response.stopped,mouse.x,mouse.y,mouse.leftButton,mouse.midButton,mouse.rightButton,mouse.clicked_name,trialnumber,double_pass.thisRepN,double_pass.thisTrialN,double_pass.thisN,double_pass.thisIndex,double_pass.ran,double_pass.order,main_trial.thisRepN,main_trial.thisTrialN,main_trial.thisN,main_trial.thisIndex,main_trial.ran,main_trial.order,Trial_Counter,Catch,Frequencies,response_2.started,response_2.stopped,mouse_2.x,mouse_2.y,mouse_2.leftButton,mouse_2.midButton,mouse_2.rightButton,mouse_2.clicked_name,special_trial.started,special_trial.stopped,catch_1.started,catch_1.stopped,mouse_3.x,mouse_3.y,mouse_3.leftButton,mouse_3.midButton,mouse_3.rightButton,catchresponse,catchnumber,response_time_catch,response_sum.started,response_sum.stopped,mouse_11.x,mouse_11.y,mouse_11.leftButton,mouse_11.midButton,mouse_11.rightButton,flip_presentation_sequence_for_double_pass.started,flip_presentation_sequence_for_double_pass.stopped,goodbye.started,goodbye.stopped,key_resp_3.keys,key_resp_3.rt,key_resp_3.duration
0.0005,0.0007,6928a6394052fbe76783ed32,2026-03-17_11h22.46.049,kallum_motion_pilot_GIST_update_2,2026.1.1,Win32,59.88023952,6928a6394052fbe76783ed32,69b92ab4aef6dee357cd729a,69b92b4e6b0bfd8f62719ebd,,,,,,,,,,,,,,,,,,,,,,,,,,,,,,,,,,,,,,,,,,,,,,,,,,,,,,,,,,,,,,,,,,,,,,,,,,,,,,,,,,,,,,,,,,,,,,,,,,,,,,,,,,,,,,,,,,,,,,,,,,,,,,,,,,,,,,,,,,,,,,,,,
,,6928a6394052fbe76783ed32,2026-03-17_11h22.46.049,kallum_motion_pilot_GIST_update_2,2026.1.1,Win32,59.88023952,6928a6394052fbe76783ed32,69b92ab4aef6dee357cd729a,69b92b4e6b0bfd8f62719ebd,0.0358,0.036,0,0,0,22,1,fourtwo,,,,,,,,,,,,,,,,,,,,,,,,,,,,,,,,,,,,,,,,,,,,,,,,,,,,,,,,,,,,,,,,,,,,,,,,,,,,,,,,,,,,,,,,,,,,,,,,,,,,,,,,,,,,,,,,,,,,,,,,,,,,,,,,,,,,,,,,,
,,6928a6394052fbe76783ed32,2026-03-17_11h22.46.049,kallum_motion_pilot_GIST_update_2,2026.1.1,Win32,59.88023952,6928a6394052fbe76783ed32,69b92ab4aef6dee357cd729a,69b92b4e6b0bfd8f62719ebd,0.0364,0.0364,0,1,1,86,1,eightsix,,,,,,,,,,,,,,,,,,,,,,,,,,,,,,,,,,,,,,,,,,,,,,,,,,,,,,,,,,,,,,,,,,,,,,,,,,,,,,,,,,,,,,,,,,,,,,,,,,,,,,,,,,,,,,,,,,,,,,,,,,,,,,,,,,,,,,,,,
,,6928a6394052fbe76783ed32,2026-03-17_11h22.46.049,kallum_motion_pilot_GIST_update_2,2026.1.1,Win32,59.88023952,6928a6394052fbe76783ed32,69b92ab4aef6dee357cd729a,69b92b4e6b0bfd8f62719ebd,0.0366,0.0366,0,2,2,138,1,sixfive,,,,,,,,,,,,,,,,,,,,,,,,,,,,,,,,,,,,,,,,,,,,,,,,,,,,,,,,,,,,,,,,,,,,,,,,,,,,,,,,,,,,,,,,,,,,,,,,,,,,,,,,,,,,,,,,,,,,,,,,,,,,,,,,,,,,,,,,,
,,6928a6394052fbe76783ed32,2026-03-17_11h22.46.049,kallum_motion_pilot_GIST_update_2,2026.1.1,Win32,59.88023952,6928a6394052fbe76783ed32,69b92ab4aef6dee357cd729a,69b92b4e6b0bfd8f62719ebd,0.0367,0.0368,0,3,3,148,1,sevenfive,,,,,,,,,,,,,,,,,,,,,,,,,,,,,,,,,,,,,,,,,,,,,,,,,,,,,,,,,,,,,,,,,,,,,,,,,,,,,,,,,,,,,,,,,,,,,,,,,,,,,,,,,,,,,,,,,,,,,,,,,,,,,,,,,,,,,,,,,
,,6928a6394052fbe76783ed32,2026-03-17_11h22.46.049,kallum_motion_pilot_GIST_update_2,2026.1.1,Win32,59.88023952,6928a6394052fbe76783ed32,69b92ab4aef6dee357cd729a,69b92b4e6b0bfd8f62719ebd,0.037,0.037,0,4,4,43,1,twofour,,,,,,,,,,,,,,,,,,,,,,,,,,,,,,,,,,,,,,,,,,,,,,,,,,,,,,,,,,,,,,,,,,,,,,,,,,,,,,,,,,,,,,,,,,,,,,,,,,,,,,,,,,,,,,,,,,,,,,,,,,,,,,,,,,,,,,,,,
,,6928a6394052fbe76783ed32,2026-03-17_11h22.46.049,kallum_motion_pilot_GIST_update_2,2026.1.1,Win32,59.88023952,6928a6394052fbe76783ed32,69b92ab4aef6dee357cd729a,69b92b4e6b0bfd8f62719ebd,0.0372,0.0372,0,5,5,81,1,fiveseven,,,,,,,,,,,,,,,,,,,,,,,,,,,,,,,,,,,,,,,,,,,,,,,,,,,,,,,,,,,,,,,,,,,,,,,,,,,,,,,,,,,,,,,,,,,,,,,,,,,,,,,,,,,,,,,,,,,,,,,,,,,,,,,,,,,,,,,,,
,,6928a6394052fbe76783ed32,2026-03-17_11h22.46.049,kallum_motion_pilot_GIST_update_2,2026.1.1,Win32,59.88023952,6928a6394052fbe76783ed32,69b92ab4aef6dee357cd729a,69b92b4e6b0bfd8f62719ebd,0.0373,0.0373,0,6,6,135,1,eightseven,,,,,,,,,,,,,,,,,,,,,,,,,,,,,,,,,,,,,,,,,,,,,,,,,,,,,,,,,,,,,,,,,,,,,,,,,,,,,,,,,,,,,,,,,,,,,,,,,,,,,,,,,,,,,,,,,,,,,,,,,,,,,,,,,,,,,,,,,
,,6928a6394052fbe76783ed32,2026-03-17_11h22.46.049,kallum_motion_pilot_GIST_update_2,2026.1.1,Win32,59.88023952,6928a6394052fbe76783ed32,69b92ab4aef6dee357cd729a,69b92b4e6b0bfd8f62719ebd,0.0375,0.0375,0,7,7,13,1,threefour,,,,,,,,,,,,,,,,,,,,,,,,,,,,,,,,,,,,,,,,,,,,,,,,,,,,,,,,,,,,,,,,,,,,,,,,,,,,,,,,,,,,,,,,,,,,,,,,,,,,,,,,,,,,,,,,,,,,,,,,,,,,,,,,,,,,,,,,,
,,6928a6394052fbe76783ed32,2026-03-17_11h22.46.049,kallum_motion_pilot_GIST_update_2,2026.1.1,Win32,59.88023952,6928a6394052fbe76783ed32,69b92ab4aef6dee357cd729a,69b92b4e6b0bfd8f62719ebd,0.0377,0.0377,0,8,8,24,1,onetwo,,,,,,,,,,,,,,,,,,,,,,,,,,,,,,,,,,,,,,,,,,,,,,,,,,,,,,,,,,,,,,,,,,,,,,,,,,,,,,,,,,,,,,,,,,,,,,,,,,,,,,,,,,,,,,,,,,,,,,,,,,,,,,,,,,,,,,,,,
,,6928a6394052fbe76783ed32,2026-03-17_11h22.46.049,kallum_motion_pilot_GIST_update_2,2026.1.1,Win32,59.88023952,6928a6394052fbe76783ed32,69b92ab4aef6dee357cd729a,69b92b4e6b0bfd8f62719ebd,0.0379,0.0379,0,9,9,87,1,eightseven,,,,,,,,,,,,,,,,,,,,,,,,,,,,,,,,,,,,,,,,,,,,,,,,,,,,,,,,,,,,,,,,,,,,,,,,,,,,,,,,,,,,,,,,,,,,,,,,,,,,,,,,,,,,,,,,,,,,,,,,,,,,,,,,,,,,,,,,,
,,6928a6394052fbe76783ed32,2026-03-17_11h22.46.049,kallum_motion_pilot_GIST_update_2,2026.1.1,Win32,59.88023952,6928a6394052fbe76783ed32,69b92ab4aef6dee357cd729a,69b92b4e6b0bfd8f62719ebd,0.0381,0.0381,0,10,10,44,1,threeone,,,,,,,,,,,,,,,,,,,,,,,,,,,,,,,,,,,,,,,,,,,,,,,,,,,,,,,,,,,,,,,,,,,,,,,,,,,,,,,,,,,,,,,,,,,,,,,,,,,,,,,,,,,,,,,,,,,,,,,,,,,,,,,,,,,,,,,,,
,,6928a6394052fbe76783ed32,2026-03-17_11h22.46.049,kallum_motion_pilot_GIST_update_2,2026.1.1,Win32,59.88023952,6928a6394052fbe76783ed32,69b92ab4aef6dee357cd729a,69b92b4e6b0bfd8f62719ebd,0.0382,0.0382,0,11,11,33,1,onethree,,,,,,,,,,,,,,,,,,,,,,,,,,,,,,,,,,,,,,,,,,,,,,,,,,,,,,,,,,,,,,,,,,,,,,,,,,,,,,,,,,,,,,,,,,,,,,,,,,,,,,,,,,,,,,,,,,,,,,,,,,,,,,,,,,,,,,,,,
,,6928a6394052fbe76783ed32,2026-03-17_11h22.46.049,kallum_motion_pilot_GIST_update_2,2026.1.1,Win32,59.88023952,6928a6394052fbe76783ed32,69b92ab4aef6dee357cd729a,69b92b4e6b0bfd8f62719ebd,0.0383,0.0383,0,12,12,124,1,sevenfive,,,,,,,,,,,,,,,,,,,,,,,,,,,,,,,,,,,,,,,,,,,,,,,,,,,,,,,,,,,,,,,,,,,,,,,,,,,,,,,,,,,,,,,,,,,,,,,,,,,,,,,,,,,,,,,,,,,,,,,,,,,,,,,,,,,,,,,,,
,,6928a6394052fbe76783ed32,2026-03-17_11h22.46.049,kallum_motion_pilot_GIST_update_2,2026.1.1,Win32,59.88023952,6928a6394052fbe76783ed32,69b92ab4aef6dee357cd729a,69b92b4e6b0bfd8f62719ebd,0.0385,0.0385,0,13,13,155,1,sixeight,,,,,,,,,,,,,,,,,,,,,,,,,,,,,,,,,,,,,,,,,,,,,,,,,,,,,,,,,,,,,,,,,,,,,,,,,,,,,,,,,,,,,,,,,,,,,,,,,,,,,,,,,,,,,,,,,,,,,,,,,,,,,,,,,,,,,,,,,
,,6928a6394052fbe76783ed32,2026-03-17_11h22.46.049,kallum_motion_pilot_GIST_update_2,2026.1.1,Win32,59.88023952,6928a6394052fbe76783ed32,69b92ab4aef6dee357cd729a,69b92b4e6b0bfd8f62719ebd,0.0386,0.0386,0,14,14,63,1,fourthree,,,,,,,,,,,,,,,,,,,,,,,,,,,,,,,,,,,,,,,,,,,,,,,,,,,,,,,,,,,,,,,,,,,,,,,,,,,,,,,,,,,,,,,,,,,,,,,,,,,,,,,,,,,,,,,,,,,,,,,,,,,,,,,,,,,,,,,,,
,,6928a6394052fbe76783ed32,2026-03-17_11h22.46.049,kallum_motion_pilot_GIST_update_2,2026.1.1,Win32,59.88023952,6928a6394052fbe76783ed32,69b92ab4aef6dee357cd729a,69b92b4e6b0bfd8f62719ebd,0.0388,0.0388,0,15,15,96,1,fivesix,,,,,,,,,,,,,,,,,,,,,,,,,,,,,,,,,,,,,,,,,,,,,,,,,,,,,,,,,,,,,,,,,,,,,,,,,,,,,,,,,,,,,,,,,,,,,,,,,,,,,,,,,,,,,,,,,,,,,,,,,,,,,,,,,,,,,,,,,
,,6928a6394052fbe76783ed32,2026-03-17_11h22.46.049,kallum_motion_pilot_GIST_update_2,2026.1.1,Win32,59.88023952,6928a6394052fbe76783ed32,69b92ab4aef6dee357cd729a,69b92b4e6b0bfd8f62719ebd,0.0389,0.0389,0,16,16,68,1,threeone,,,,,,,,,,,,,,,,,,,,,,,,,,,,,,,,,,,,,,,,,,,,,,,,,,,,,,,,,,,,,,,,,,,,,,,,,,,,,,,,,,,,,,,,,,,,,,,,,,,,,,,,,,,,,,,,,,,,,,,,,,,,,,,,,,,,,,,,,
,,6928a6394052fbe76783ed32,2026-03-17_11h22.46.049,kallum_motion_pilot_GIST_update_2,2026.1.1,Win32,59.88023952,6928a6394052fbe76783ed32,69b92ab4aef6dee357cd729a,69b92b4e6b0bfd8f62719ebd,0.039,0.039,0,17,17,103,1,eightseven,,,,,,,,,,,,,,,,,,,,,,,,,,,,,,,,,,,,,,,,,,,,,,,,,,,,,,,,,,,,,,,,,,,,,,,,,,,,,,,,,,,,,,,,,,,,,,,,,,,,,,,,,,,,,,,,,,,,,,,,,,,,,,,,,,,,,,,,,
,,6928a6394052fbe76783ed32,2026-03-17_11h22.46.049,kallum_motion_pilot_GIST_update_2,2026.1.1,Win32,59.88023952,6928a6394052fbe76783ed32,69b92ab4aef6dee357cd729a,69b92b4e6b0bfd8f62719ebd,0.0392,0.0392,0,18,18,82,1,sixfive,,,,,,,,,,,,,,,,,,,,,,,,,,,,,,,,,,,,,,,,,,,,,,,,,,,,,,,,,,,,,,,,,,,,,,,,,,,,,,,,,,,,,,,,,,,,,,,,,,,,,,,,,,,,,,,,,,,,,,,,,,,,,,,,,,,,,,,,,
,,6928a6394052fbe76783ed32,2026-03-17_11h22.46.049,kallum_motion_pilot_GIST_update_2,2026.1.1,Win32,59.88023952,6928a6394052fbe76783ed32,69b92ab4aef6dee357cd729a,69b92b4e6b0bfd8f62719ebd,0.0393,0.0393,0,19,19,90,1,sixfive,,,,,,,,,,,,,,,,,,,,,,,,,,,,,,,,,,,,,,,,,,,,,,,,,,,,,,,,,,,,,,,,,,,,,,,,,,,,,,,,,,,,,,,,,,,,,,,,,,,,,,,,,,,,,,,,,,,,,,,,,,,,,,,,,,,,,,,,,
,,6928a6394052fbe76783ed32,2026-03-17_11h22.46.049,kallum_motion_pilot_GIST_update_2,2026.1.1,Win32,59.88023952,6928a6394052fbe76783ed32,69b92ab4aef6dee357cd729a,69b92b4e6b0bfd8f62719ebd,0.0395,0.0395,0,20,20,129,1,fiveseven,,,,,,,,,,,,,,,,,,,,,,,,,,,,,,,,,,,,,,,,,,,,,,,,,,,,,,,,,,,,,,,,,,,,,,,,,,,,,,,,,,,,,,,,,,,,,,,,,,,,,,,,,,,,,,,,,,,,,,,,,,,,,,,,,,,,,,,,,
,,6928a6394052fbe76783ed32,2026-03-17_11h22.46.049,kallum_motion_pilot_GIST_update_2,2026.1.1,Win32,59.88023952,6928a6394052fbe76783ed32,69b92ab4aef6dee357cd729a,69b92b4e6b0bfd8f62719ebd,0.0396,0.0396,0,21,21,78,1,fourtwo,,,,,,,,,,,,,,,,,,,,,,,,,,,,,,,,,,,,,,,,,,,,,,,,,,,,,,,,,,,,,,,,,,,,,,,,,,,,,,,,,,,,,,,,,,,,,,,,,,,,,,,,,,,,,,,,,,,,,,,,,,,,,,,,,,,,,,,,,
,,6928a6394052fbe76783ed32,2026-03-17_11h22.46.049,kallum_motion_pilot_GIST_update_2,2026.1.1,Win32,59.88023952,6928a6394052fbe76783ed32,69b92ab4aef6dee357cd729a,69b92b4e6b0bfd8f62719ebd,0.0398,0.0398,0,22,22,39,1,fourthree,,,,,,,,,,,,,,,,,,,,,,,,,,,,,,,,,,,,,,,,,,,,,,,,,,,,,,,,,,,,,,,,,,,,,,,,,,,,,,,,,,,,,,,,,,,,,,,,,,,,,,,,,,,,,,,,,,,,,,,,,,,,,,,,,,,,,,,,,
,,6928a6394052fbe76783ed32,2026-03-17_11h22.46.049,kallum_motion_pilot_GIST_update_2,2026.1.1,Win32,59.88023952,6928a6394052fbe76783ed32,69b92ab4aef6dee357cd729a,69b92b4e6b0bfd8f62719ebd,0.04,0.04,0,23,23,69,1,threefour,,,,,,,,,,,,,,,,,,,,,,,,,,,,,,,,,,,,,,,,,,,,,,,,,,,,,,,,,,,,,,,,,,,,,,,,,,,,,,,,,,,,,,,,,,,,,,,,,,,,,,,,,,,,,,,,,,,,,,,,,,,,,,,,,,,,,,,,,
,,6928a6394052fbe76783ed32,2026-03-17_11h22.46.049,kallum_motion_pilot_GIST_update_2,2026.1.1,Win32,59.88023952,6928a6394052fbe76783ed32,69b92ab4aef6dee357cd729a,69b92b4e6b0bfd8f62719ebd,0.0401,0.0401,0,24,24,120,1,fivesix,,,,,,,,,,,,,,,,,,,,,,,,,,,,,,,,,,,,,,,,,,,,,,,,,,,,,,,,,,,,,,,,,,,,,,,,,,,,,,,,,,,,,,,,,,,,,,,,,,,,,,,,,,,,,,,,,,,,,,,,,,,,,,,,,,,,,,,,,
,,6928a6394052fbe76783ed32,2026-03-17_11h22.46.049,kallum_motion_pilot_GIST_update_2,2026.1.1,Win32,59.88023952,6928a6394052fbe76783ed32,69b92ab4aef6dee357cd729a,69b92b4e6b0bfd8f62719ebd,0.0402,0.0402,0,25,25,15,1,fourthree,,,,,,,,,,,,,,,,,,,,,,,,,,,,,,,,,,,,,,,,,,,,,,,,,,,,,,,,,,,,,,,,,,,,,,,,,,,,,,,,,,,,,,,,,,,,,,,,,,,,,,,,,,,,,,,,,,,,,,,,,,,,,,,,,,,,,,,,,
,,6928a6394052fbe76783ed32,2026-03-17_11h22.46.049,kallum_motion_pilot_GIST_update_2,2026.1.1,Win32,59.88023952,6928a6394052fbe76783ed32,69b92ab4aef6dee357cd729a,69b92b4e6b0bfd8f62719ebd,0.0404,0.0404,0,26,26,19,1,twofour,,,,,,,,,,,,,,,,,,,,,,,,,,,,,,,,,,,,,,,,,,,,,,,,,,,,,,,,,,,,,,,,,,,,,,,,,,,,,,,,,,,,,,,,,,,,,,,,,,,,,,,,,,,,,,,,,,,,,,,,,,,,,,,,,,,,,,,,,
,,6928a6394052fbe76783ed32,2026-03-17_11h22.46.049,kallum_motion_pilot_GIST_update_2,2026.1.1,Win32,59.88023952,6928a6394052fbe76783ed32,69b92ab4aef6dee357cd729a,69b92b4e6b0bfd8f62719ebd,0.0405,0.0405,0,27,27,25,1,onethree,,,,,,,,,,,,,,,,,,,,,,,,,,,,,,,,,,,,,,,,,,,,,,,,,,,,,,,,,,,,,,,,,,,,,,,,,,,,,,,,,,,,,,,,,,,,,,,,,,,,,,,,,,,,,,,,,,,,,,,,,,,,,,,,,,,,,,,,,
,,6928a6394052fbe76783ed32,2026-03-17_11h22.46.049,kallum_motion_pilot_GIST_update_2,2026.1.1,Win32,59.88023952,6928a6394052fbe76783ed32,69b92ab4aef6dee357cd729a,69b92b4e6b0bfd8f62719ebd,0.0407,0.0407,0,28,28,133,1,seveneight,,,,,,,,,,,,,,,,,,,,,,,,,,,,,,,,,,,,,,,,,,,,,,,,,,,,,,,,,,,,,,,,,,,,,,,,,,,,,,,,,,,,,,,,,,,,,,,,,,,,,,,,,,,,,,,,,,,,,,,,,,,,,,,,,,,,,,,,,
,,6928a6394052fbe76783ed32,2026-03-17_11h22.46.049,kallum_motion_pilot_GIST_update_2,2026.1.1,Win32,59.88023952,6928a6394052fbe76783ed32,69b92ab4aef6dee357cd729a,69b92b4e6b0bfd8f62719ebd,0.0408,0.0408,0,29,29,157,1,seveneight,,,,,,,,,,,,,,,,,,,,,,,,,,,,,,,,,,,,,,,,,,,,,,,,,,,,,,,,,,,,,,,,,,,,,,,,,,,,,,,,,,,,,,,,,,,,,,,,,,,,,,,,,,,,,,,,,,,,,,,,,,,,,,,,,,,,,,,,,
,,6928a6394052fbe76783ed32,2026-03-17_11h22.46.049,kallum_motion_pilot_GIST_update_2,2026.1.1,Win32,59.88023952,6928a6394052fbe76783ed32,69b92ab4aef6dee357cd729a,69b92b4e6b0bfd8f62719ebd,0.0409,0.0409,0,30,30,20,1,threeone,,,,,,,,,,,,,,,,,,,,,,,,,,,,,,,,,,,,,,,,,,,,,,,,,,,,,,,,,,,,,,,,,,,,,,,,,,,,,,,,,,,,,,,,,,,,,,,,,,,,,,,,,,,,,,,,,,,,,,,,,,,,,,,,,,,,,,,,,
,,6928a6394052fbe76783ed32,2026-03-17_11h22.46.049,kallum_motion_pilot_GIST_update_2,2026.1.1,Win32,59.88023952,6928a6394052fbe76783ed32,69b92ab4aef6dee357cd729a,69b92b4e6b0bfd8f62719ebd,0.0411,0.0412,0,31,31,112,1,fivesix,,,,,,,,,,,,,,,,,,,,,,,,,,,,,,,,,,,,,,,,,,,,,,,,,,,,,,,,,,,,,,,,,,,,,,,,,,,,,,,,,,,,,,,,,,,,,,,,,,,,,,,,,,,,,,,,,,,,,,,,,,,,,,,,,,,,,,,,,
,,6928a6394052fbe76783ed32,2026-03-17_11h22.46.049,kallum_motion_pilot_GIST_update_2,2026.1.1,Win32,59.88023952,6928a6394052fbe76783ed32,69b92ab4aef6dee357cd729a,69b92b4e6b0bfd8f62719ebd,0.0412,0.0412,0,32,32,153,1,fiveseven,,,,,,,,,,,,,,,,,,,,,,,,,,,,,,,,,,,,,,,,,,,,,,,,,,,,,,,,,,,,,,,,,,,,,,,,,,,,,,,,,,,,,,,,,,,,,,,,,,,,,,,,,,,,,,,,,,,,,,,,,,,,,,,,,,,,,,,,,
,,6928a6394052fbe76783ed32,2026-03-17_11h22.46.049,kallum_motion_pilot_GIST_update_2,2026.1.1,Win32,59.88023952,6928a6394052fbe76783ed32,69b92ab4aef6dee357cd729a,69b92b4e6b0bfd8f62719ebd,0.0414,0.0414,0,33,33,31,1,fourthree,,,,,,,,,,,,,,,,,,,,,,,,,,,,,,,,,,,,,,,,,,,,,,,,,,,,,,,,,,,,,,,,,,,,,,,,,,,,,,,,,,,,,,,,,,,,,,,,,,,,,,,,,,,,,,,,,,,,,,,,,,,,,,,,,,,,,,,,,
,,6928a6394052fbe76783ed32,2026-03-17_11h22.46.049,kallum_motion_pilot_GIST_update_2,2026.1.1,Win32,59.88023952,6928a6394052fbe76783ed32,69b92ab4aef6dee357cd729a,69b92b4e6b0bfd8f62719ebd,0.0415,0.0415,0,34,34,98,1,sixfive,,,,,,,,,,,,,,,,,,,,,,,,,,,,,,,,,,,,,,,,,,,,,,,,,,,,,,,,,,,,,,,,,,,,,,,,,,,,,,,,,,,,,,,,,,,,,,,,,,,,,,,,,,,,,,,,,,,,,,,,,,,,,,,,,,,,,,,,,
,,6928a6394052fbe76783ed32,2026-03-17_11h22.46.049,kallum_motion_pilot_GIST_update_2,2026.1.1,Win32,59.88023952,6928a6394052fbe76783ed32,69b92ab4aef6dee357cd729a,69b92b4e6b0bfd8f62719ebd,0.0417,0.0417,0,35,35,23,1,fourthree,,,,,,,,,,,,,,,,,,,,,,,,,,,,,,,,,,,,,,,,,,,,,,,,,,,,,,,,,,,,,,,,,,,,,,,,,,,,,,,,,,,,,,,,,,,,,,,,,,,,,,,,,,,,,,,,,,,,,,,,,,,,,,,,,,,,,,,,,
,,6928a6394052fbe76783ed32,2026-03-17_11h22.46.049,kallum_motion_pilot_GIST_update_2,2026.1.1,Win32,59.88023952,6928a6394052fbe76783ed32,69b92ab4aef6dee357cd729a,69b92b4e6b0bfd8f62719ebd,0.0418,0.0418,0,36,36,144,1,fivesix,,,,,,,,,,,,,,,,,,,,,,,,,,,,,,,,,,,,,,,,,,,,,,,,,,,,,,,,,,,,,,,,,,,,,,,,,,,,,,,,,,,,,,,,,,,,,,,,,,,,,,,,,,,,,,,,,,,,,,,,,,,,,,,,,,,,,,,,,
,,6928a6394052fbe76783ed32,2026-03-17_11h22.46.049,kallum_motion_pilot_GIST_update_2,2026.1.1,Win32,59.88023952,6928a6394052fbe76783ed32,69b92ab4aef6dee357cd729a,69b92b4e6b0bfd8f62719ebd,0.042,0.042,0,37,37,143,1,eightseven,,,,,,,,,,,,,,,,,,,,,,,,,,,,,,,,,,,,,,,,,,,,,,,,,,,,,,,,,,,,,,,,,,,,,,,,,,,,,,,,,,,,,,,,,,,,,,,,,,,,,,,,,,,,,,,,,,,,,,,,,,,,,,,,,,,,,,,,,
,,6928a6394052fbe76783ed32,2026-03-17_11h22.46.049,kallum_motion_pilot_GIST_update_2,2026.1.1,Win32,59.88023952,6928a6394052fbe76783ed32,69b92ab4aef6dee357cd729a,69b92b4e6b0bfd8f62719ebd,0.0421,0.0421,0,38,38,110,1,eightsix,,,,,,,,,,,,,,,,,,,,,,,,,,,,,,,,,,,,,,,,,,,,,,,,,,,,,,,,,,,,,,,,,,,,,,,,,,,,,,,,,,,,,,,,,,,,,,,,,,,,,,,,,,,,,,,,,,,,,,,,,,,,,,,,,,,,,,,,,
,,6928a6394052fbe76783ed32,2026-03-17_11h22.46.049,kallum_motion_pilot_GIST_update_2,2026.1.1,Win32,59.88023952,6928a6394052fbe76783ed32,69b92ab4aef6dee357cd729a,69b92b4e6b0bfd8f62719ebd,0.0422,0.0422,0,39,39,47,1,fourthree,,,,,,,,,,,,,,,,,,,,,,,,,,,,,,,,,,,,,,,,,,,,,,,,,,,,,,,,,,,,,,,,,,,,,,,,,,,,,,,,,,,,,,,,,,,,,,,,,,,,,,,,,,,,,,,,,,,,,,,,,,,,,,,,,,,,,,,,,
,,6928a6394052fbe76783ed32,2026-03-17_11h22.46.049,kallum_motion_pilot_GIST_update_2,2026.1.1,Win32,59.88023952,6928a6394052fbe76783ed32,69b92ab4aef6dee357cd729a,69b92b4e6b0bfd8f62719ebd,0.0424,0.0424,0,40,40,107,1,sixeight,,,,,,,,,,,,,,,,,,,,,,,,,,,,,,,,,,,,,,,,,,,,,,,,,,,,,,,,,,,,,,,,,,,,,,,,,,,,,,,,,,,,,,,,,,,,,,,,,,,,,,,,,,,,,,,,,,,,,,,,,,,,,,,,,,,,,,,,,
,,6928a6394052fbe76783ed32,2026-03-17_11h22.46.049,kallum_motion_pilot_GIST_update_2,2026.1.1,Win32,59.88023952,6928a6394052fbe76783ed32,69b92ab4aef6dee357cd729a,69b92b4e6b0bfd8f62719ebd,0.0424,0.0424,0,41,41,74,1,twoone,,,,,,,,,,,,,,,,,,,,,,,,,,,,,,,,,,,,,,,,,,,,,,,,,,,,,,,,,,,,,,,,,,,,,,,,,,,,,,,,,,,,,,,,,,,,,,,,,,,,,,,,,,,,,,,,,,,,,,,,,,,,,,,,,,,,,,,,,
,,6928a6394052fbe76783ed32,2026-03-17_11h22.46.049,kallum_motion_pilot_GIST_update_2,2026.1.1,Win32,59.88023952,6928a6394052fbe76783ed32,69b92ab4aef6dee357cd729a,69b92b4e6b0bfd8f62719ebd,0.0426,0.0426,0,42,42,95,1,eightseven,,,,,,,,,,,,,,,,,,,,,,,,,,,,,,,,,,,,,,,,,,,,,,,,,,,,,,,,,,,,,,,,,,,,,,,,,,,,,,,,,,,,,,,,,,,,,,,,,,,,,,,,,,,,,,,,,,,,,,,,,,,,,,,,,,,,,,,,,
,,6928a6394052fbe76783ed32,2026-03-17_11h22.46.049,kallum_motion_pilot_GIST_update_2,2026.1.1,Win32,59.88023952,6928a6394052fbe76783ed32,69b92ab4aef6dee357cd729a,69b92b4e6b0bfd8f62719ebd,0.0427,0.0427,0,43,43,77,1,threefour,,,,,,,,,,,,,,,,,,,,,,,,,,,,,,,,,,,,,,,,,,,,,,,,,,,,,,,,,,,,,,,,,,,,,,,,,,,,,,,,,,,,,,,,,,,,,,,,,,,,,,,,,,,,,,,,,,,,,,,,,,,,,,,,,,,,,,,,,
,,6928a6394052fbe76783ed32,2026-03-17_11h22.46.049,kallum_motion_pilot_GIST_update_2,2026.1.1,Win32,59.88023952,6928a6394052fbe76783ed32,69b92ab4aef6dee357cd729a,69b92b4e6b0bfd8f62719ebd,0.0429,0.0429,0,44,44,118,1,eightsix,,,,,,,,,,,,,,,,,,,,,,,,,,,,,,,,,,,,,,,,,,,,,,,,,,,,,,,,,,,,,,,,,,,,,,,,,,,,,,,,,,,,,,,,,,,,,,,,,,,,,,,,,,,,,,,,,,,,,,,,,,,,,,,,,,,,,,,,,
,,6928a6394052fbe76783ed32,2026-03-17_11h22.46.049,kallum_motion_pilot_GIST_update_2,2026.1.1,Win32,59.88023952,6928a6394052fbe76783ed32,69b92ab4aef6dee357cd729a,69b92b4e6b0bfd8f62719ebd,0.043,0.043,0,45,45,134,1,eightsix,,,,,,,,,,,,,,,,,,,,,,,,,,,,,,,,,,,,,,,,,,,,,,,,,,,,,,,,,,,,,,,,,,,,,,,,,,,,,,,,,,,,,,,,,,,,,,,,,,,,,,,,,,,,,,,,,,,,,,,,,,,,,,,,,,,,,,,,,
,,6928a6394052fbe76783ed32,2026-03-17_11h22.46.049,kallum_motion_pilot_GIST_update_2,2026.1.1,Win32,59.88023952,6928a6394052fbe76783ed32,69b92ab4aef6dee357cd729a,69b92b4e6b0bfd8f62719ebd,0.0432,0.0432,0,46,46,26,1,twoone,,,,,,,,,,,,,,,,,,,,,,,,,,,,,,,,,,,,,,,,,,,,,,,,,,,,,,,,,,,,,,,,,,,,,,,,,,,,,,,,,,,,,,,,,,,,,,,,,,,,,,,,,,,,,,,,,,,,,,,,,,,,,,,,,,,,,,,,,
,,6928a6394052fbe76783ed32,2026-03-17_11h22.46.049,kallum_motion_pilot_GIST_update_2,2026.1.1,Win32,59.88023952,6928a6394052fbe76783ed32,69b92ab4aef6dee357cd729a,69b92b4e6b0bfd8f62719ebd,0.0432,0.0432,0,47,47,4,1,threeone,,,,,,,,,,,,,,,,,,,,,,,,,,,,,,,,,,,,,,,,,,,,,,,,,,,,,,,,,,,,,,,,,,,,,,,,,,,,,,,,,,,,,,,,,,,,,,,,,,,,,,,,,,,,,,,,,,,,,,,,,,,,,,,,,,,,,,,,,
,,6928a6394052fbe76783ed32,2026-03-17_11h22.46.049,kallum_motion_pilot_GIST_update_2,2026.1.1,Win32,59.88023952,6928a6394052fbe76783ed32,69b92ab4aef6dee357cd729a,69b92b4e6b0bfd8f62719ebd,0.0434,0.0434,0,48,48,27,1,twofour,,,,,,,,,,,,,,,,,,,,,,,,,,,,,,,,,,,,,,,,,,,,,,,,,,,,,,,,,,,,,,,,,,,,,,,,,,,,,,,,,,,,,,,,,,,,,,,,,,,,,,,,,,,,,,,,,,,,,,,,,,,,,,,,,,,,,,,,,
,,6928a6394052fbe76783ed32,2026-03-17_11h22.46.049,kallum_motion_pilot_GIST_update_2,2026.1.1,Win32,59.88023952,6928a6394052fbe76783ed32,69b92ab4aef6dee357cd729a,69b92b4e6b0bfd8f62719ebd,0.0435,0.0435,0,49,49,53,1,threefour,,,,,,,,,,,,,,,,,,,,,,,,,,,,,,,,,,,,,,,,,,,,,,,,,,,,,,,,,,,,,,,,,,,,,,,,,,,,,,,,,,,,,,,,,,,,,,,,,,,,,,,,,,,,,,,,,,,,,,,,,,,,,,,,,,,,,,,,,
,,6928a6394052fbe76783ed32,2026-03-17_11h22.46.049,kallum_motion_pilot_GIST_update_2,2026.1.1,Win32,59.88023952,6928a6394052fbe76783ed32,69b92ab4aef6dee357cd729a,69b92b4e6b0bfd8f62719ebd,0.0436,0.0436,0,50,50,139,1,sixeight,,,,,,,,,,,,,,,,,,,,,,,,,,,,,,,,,,,,,,,,,,,,,,,,,,,,,,,,,,,,,,,,,,,,,,,,,,,,,,,,,,,,,,,,,,,,,,,,,,,,,,,,,,,,,,,,,,,,,,,,,,,,,,,,,,,,,,,,,
,,6928a6394052fbe76783ed32,2026-03-17_11h22.46.049,kallum_motion_pilot_GIST_update_2,2026.1.1,Win32,59.88023952,6928a6394052fbe76783ed32,69b92ab4aef6dee357cd729a,69b92b4e6b0bfd8f62719ebd,0.0438,0.0438,0,51,51,152,1,fivesix,,,,,,,,,,,,,,,,,,,,,,,,,,,,,,,,,,,,,,,,,,,,,,,,,,,,,,,,,,,,,,,,,,,,,,,,,,,,,,,,,,,,,,,,,,,,,,,,,,,,,,,,,,,,,,,,,,,,,,,,,,,,,,,,,,,,,,,,,
,,6928a6394052fbe76783ed32,2026-03-17_11h22.46.049,kallum_motion_pilot_GIST_update_2,2026.1.1,Win32,59.88023952,6928a6394052fbe76783ed32,69b92ab4aef6dee357cd729a,69b92b4e6b0bfd8f62719ebd,0.0439,0.0439,0,52,52,79,1,eightseven,,,,,,,,,,,,,,,,,,,,,,,,,,,,,,,,,,,,,,,,,,,,,,,,,,,,,,,,,,,,,,,,,,,,,,,,,,,,,,,,,,,,,,,,,,,,,,,,,,,,,,,,,,,,,,,,,,,,,,,,,,,,,,,,,,,,,,,,,
,,6928a6394052fbe76783ed32,2026-03-17_11h22.46.049,kallum_motion_pilot_GIST_update_2,2026.1.1,Win32,59.88023952,6928a6394052fbe76783ed32,69b92ab4aef6dee357cd729a,69b92b4e6b0bfd8f62719ebd,0.044,0.044,0,53,53,100,1,sevenfive,,,,,,,,,,,,,,,,,,,,,,,,,,,,,,,,,,,,,,,,,,,,,,,,,,,,,,,,,,,,,,,,,,,,,,,,,,,,,,,,,,,,,,,,,,,,,,,,,,,,,,,,,,,,,,,,,,,,,,,,,,,,,,,,,,,,,,,,,
,,6928a6394052fbe76783ed32,2026-03-17_11h22.46.049,kallum_motion_pilot_GIST_update_2,2026.1.1,Win32,59.88023952,6928a6394052fbe76783ed32,69b92ab4aef6dee357cd729a,69b92b4e6b0bfd8f62719ebd,0.0442,0.0442,0,54,54,113,1,fiveseven,,,,,,,,,,,,,,,,,,,,,,,,,,,,,,,,,,,,,,,,,,,,,,,,,,,,,,,,,,,,,,,,,,,,,,,,,,,,,,,,,,,,,,,,,,,,,,,,,,,,,,,,,,,,,,,,,,,,,,,,,,,,,,,,,,,,,,,,,
,,6928a6394052fbe76783ed32,2026-03-17_11h22.46.049,kallum_motion_pilot_GIST_update_2,2026.1.1,Win32,59.88023952,6928a6394052fbe76783ed32,69b92ab4aef6dee357cd729a,69b92b4e6b0bfd8f62719ebd,0.0443,0.0443,0,55,55,111,1,eightseven,,,,,,,,,,,,,,,,,,,,,,,,,,,,,,,,,,,,,,,,,,,,,,,,,,,,,,,,,,,,,,,,,,,,,,,,,,,,,,,,,,,,,,,,,,,,,,,,,,,,,,,,,,,,,,,,,,,,,,,,,,,,,,,,,,,,,,,,,
,,6928a6394052fbe76783ed32,2026-03-17_11h22.46.049,kallum_motion_pilot_GIST_update_2,2026.1.1,Win32,59.88023952,6928a6394052fbe76783ed32,69b92ab4aef6dee357cd729a,69b92b4e6b0bfd8f62719ebd,0.0444,0.0444,0,56,56,89,1,fiveseven,,,,,,,,,,,,,,,,,,,,,,,,,,,,,,,,,,,,,,,,,,,,,,,,,,,,,,,,,,,,,,,,,,,,,,,,,,,,,,,,,,,,,,,,,,,,,,,,,,,,,,,,,,,,,,,,,,,,,,,,,,,,,,,,,,,,,,,,,
,,6928a6394052fbe76783ed32,2026-03-17_11h22.46.049,kallum_motion_pilot_GIST_update_2,2026.1.1,Win32,59.88023952,6928a6394052fbe76783ed32,69b92ab4aef6dee357cd729a,69b92b4e6b0bfd8f62719ebd,0.0445,0.0445,0,57,57,127,1,eightseven,,,,,,,,,,,,,,,,,,,,,,,,,,,,,,,,,,,,,,,,,,,,,,,,,,,,,,,,,,,,,,,,,,,,,,,,,,,,,,,,,,,,,,,,,,,,,,,,,,,,,,,,,,,,,,,,,,,,,,,,,,,,,,,,,,,,,,,,,
,,6928a6394052fbe76783ed32,2026-03-17_11h22.46.049,kallum_motion_pilot_GIST_update_2,2026.1.1,Win32,59.88023952,6928a6394052fbe76783ed32,69b92ab4aef6dee357cd729a,69b92b4e6b0bfd8f62719ebd,0.0447,0.0447,0,58,58,126,1,eightsix,,,,,,,,,,,,,,,,,,,,,,,,,,,,,,,,,,,,,,,,,,,,,,,,,,,,,,,,,,,,,,,,,,,,,,,,,,,,,,,,,,,,,,,,,,,,,,,,,,,,,,,,,,,,,,,,,,,,,,,,,,,,,,,,,,,,,,,,,
,,6928a6394052fbe76783ed32,2026-03-17_11h22.46.049,kallum_motion_pilot_GIST_update_2,2026.1.1,Win32,59.88023952,6928a6394052fbe76783ed32,69b92ab4aef6dee357cd729a,69b92b4e6b0bfd8f62719ebd,0.0448,0.0448,0,59,59,58,1,twoone,,,,,,,,,,,,,,,,,,,,,,,,,,,,,,,,,,,,,,,,,,,,,,,,,,,,,,,,,,,,,,,,,,,,,,,,,,,,,,,,,,,,,,,,,,,,,,,,,,,,,,,,,,,,,,,,,,,,,,,,,,,,,,,,,,,,,,,,,
,,6928a6394052fbe76783ed32,2026-03-17_11h22.46.049,kallum_motion_pilot_GIST_update_2,2026.1.1,Win32,59.88023952,6928a6394052fbe76783ed32,69b92ab4aef6dee357cd729a,69b92b4e6b0bfd8f62719ebd,0.045,0.045,0,60,60,48,1,onetwo,,,,,,,,,,,,,,,,,,,,,,,,,,,,,,,,,,,,,,,,,,,,,,,,,,,,,,,,,,,,,,,,,,,,,,,,,,,,,,,,,,,,,,,,,,,,,,,,,,,,,,,,,,,,,,,,,,,,,,,,,,,,,,,,,,,,,,,,,
,,6928a6394052fbe76783ed32,2026-03-17_11h22.46.049,kallum_motion_pilot_GIST_update_2,2026.1.1,Win32,59.88023952,6928a6394052fbe76783ed32,69b92ab4aef6dee357cd729a,69b92b4e6b0bfd8f62719ebd,0.045,0.045,0,61,61,14,1,fourtwo,,,,,,,,,,,,,,,,,,,,,,,,,,,,,,,,,,,,,,,,,,,,,,,,,,,,,,,,,,,,,,,,,,,,,,,,,,,,,,,,,,,,,,,,,,,,,,,,,,,,,,,,,,,,,,,,,,,,,,,,,,,,,,,,,,,,,,,,,
,,6928a6394052fbe76783ed32,2026-03-17_11h22.46.049,kallum_motion_pilot_GIST_update_2,2026.1.1,Win32,59.88023952,6928a6394052fbe76783ed32,69b92ab4aef6dee357cd729a,69b92b4e6b0bfd8f62719ebd,0.0452,0.0452,0,62,62,101,1,seveneight,,,,,,,,,,,,,,,,,,,,,,,,,,,,,,,,,,,,,,,,,,,,,,,,,,,,,,,,,,,,,,,,,,,,,,,,,,,,,,,,,,,,,,,,,,,,,,,,,,,,,,,,,,,,,,,,,,,,,,,,,,,,,,,,,,,,,,,,,
,,6928a6394052fbe76783ed32,2026-03-17_11h22.46.049,kallum_motion_pilot_GIST_update_2,2026.1.1,Win32,59.88023952,6928a6394052fbe76783ed32,69b92ab4aef6dee357cd729a,69b92b4e6b0bfd8f62719ebd,0.0453,0.0453,0,63,63,80,1,fivesix,,,,,,,,,,,,,,,,,,,,,,,,,,,,,,,,,,,,,,,,,,,,,,,,,,,,,,,,,,,,,,,,,,,,,,,,,,,,,,,,,,,,,,,,,,,,,,,,,,,,,,,,,,,,,,,,,,,,,,,,,,,,,,,,,,,,,,,,,
,,6928a6394052fbe76783ed32,2026-03-17_11h22.46.049,kallum_motion_pilot_GIST_update_2,2026.1.1,Win32,59.88023952,6928a6394052fbe76783ed32,69b92ab4aef6dee357cd729a,69b92b4e6b0bfd8f62719ebd,0.0455,0.0455,0,64,64,8,1,onetwo,,,,,,,,,,,,,,,,,,,,,,,,,,,,,,,,,,,,,,,,,,,,,,,,,,,,,,,,,,,,,,,,,,,,,,,,,,,,,,,,,,,,,,,,,,,,,,,,,,,,,,,,,,,,,,,,,,,,,,,,,,,,,,,,,,,,,,,,,
,,6928a6394052fbe76783ed32,2026-03-17_11h22.46.049,kallum_motion_pilot_GIST_update_2,2026.1.1,Win32,59.88023952,6928a6394052fbe76783ed32,69b92ab4aef6dee357cd729a,69b92b4e6b0bfd8f62719ebd,0.0456,0.0456,0,65,65,136,1,fivesix,,,,,,,,,,,,,,,,,,,,,,,,,,,,,,,,,,,,,,,,,,,,,,,,,,,,,,,,,,,,,,,,,,,,,,,,,,,,,,,,,,,,,,,,,,,,,,,,,,,,,,,,,,,,,,,,,,,,,,,,,,,,,,,,,,,,,,,,,
,,6928a6394052fbe76783ed32,2026-03-17_11h22.46.049,kallum_motion_pilot_GIST_update_2,2026.1.1,Win32,59.88023952,6928a6394052fbe76783ed32,69b92ab4aef6dee357cd729a,69b92b4e6b0bfd8f62719ebd,0.0457,0.0457,0,66,66,150,1,eightsix,,,,,,,,,,,,,,,,,,,,,,,,,,,,,,,,,,,,,,,,,,,,,,,,,,,,,,,,,,,,,,,,,,,,,,,,,,,,,,,,,,,,,,,,,,,,,,,,,,,,,,,,,,,,,,,,,,,,,,,,,,,,,,,,,,,,,,,,,
,,6928a6394052fbe76783ed32,2026-03-17_11h22.46.049,kallum_motion_pilot_GIST_update_2,2026.1.1,Win32,59.88023952,6928a6394052fbe76783ed32,69b92ab4aef6dee357cd729a,69b92b4e6b0bfd8f62719ebd,0.0458,0.0458,0,67,67,10,1,twoone,,,,,,,,,,,,,,,,,,,,,,,,,,,,,,,,,,,,,,,,,,,,,,,,,,,,,,,,,,,,,,,,,,,,,,,,,,,,,,,,,,,,,,,,,,,,,,,,,,,,,,,,,,,,,,,,,,,,,,,,,,,,,,,,,,,,,,,,,
,,6928a6394052fbe76783ed32,2026-03-17_11h22.46.049,kallum_motion_pilot_GIST_update_2,2026.1.1,Win32,59.88023952,6928a6394052fbe76783ed32,69b92ab4aef6dee357cd729a,69b92b4e6b0bfd8f62719ebd,0.046,0.046,0,68,68,147,1,sixeight,,,,,,,,,,,,,,,,,,,,,,,,,,,,,,,,,,,,,,,,,,,,,,,,,,,,,,,,,,,,,,,,,,,,,,,,,,,,,,,,,,,,,,,,,,,,,,,,,,,,,,,,,,,,,,,,,,,,,,,,,,,,,,,,,,,,,,,,,
,,6928a6394052fbe76783ed32,2026-03-17_11h22.46.049,kallum_motion_pilot_GIST_update_2,2026.1.1,Win32,59.88023952,6928a6394052fbe76783ed32,69b92ab4aef6dee357cd729a,69b92b4e6b0bfd8f62719ebd,0.0461,0.0462,0,69,69,102,1,eightsix,,,,,,,,,,,,,,,,,,,,,,,,,,,,,,,,,,,,,,,,,,,,,,,,,,,,,,,,,,,,,,,,,,,,,,,,,,,,,,,,,,,,,,,,,,,,,,,,,,,,,,,,,,,,,,,,,,,,,,,,,,,,,,,,,,,,,,,,,
,,6928a6394052fbe76783ed32,2026-03-17_11h22.46.049,kallum_motion_pilot_GIST_update_2,2026.1.1,Win32,59.88023952,6928a6394052fbe76783ed32,69b92ab4aef6dee357cd729a,69b92b4e6b0bfd8f62719ebd,0.0463,0.0463,0,70,70,93,1,seveneight,,,,,,,,,,,,,,,,,,,,,,,,,,,,,,,,,,,,,,,,,,,,,,,,,,,,,,,,,,,,,,,,,,,,,,,,,,,,,,,,,,,,,,,,,,,,,,,,,,,,,,,,,,,,,,,,,,,,,,,,,,,,,,,,,,,,,,,,,
,,6928a6394052fbe76783ed32,2026-03-17_11h22.46.049,kallum_motion_pilot_GIST_update_2,2026.1.1,Win32,59.88023952,6928a6394052fbe76783ed32,69b92ab4aef6dee357cd729a,69b92b4e6b0bfd8f62719ebd,0.0464,0.0465,0,71,71,141,1,seveneight,,,,,,,,,,,,,,,,,,,,,,,,,,,,,,,,,,,,,,,,,,,,,,,,,,,,,,,,,,,,,,,,,,,,,,,,,,,,,,,,,,,,,,,,,,,,,,,,,,,,,,,,,,,,,,,,,,,,,,,,,,,,,,,,,,,,,,,,,
,,6928a6394052fbe76783ed32,2026-03-17_11h22.46.049,kallum_motion_pilot_GIST_update_2,2026.1.1,Win32,59.88023952,6928a6394052fbe76783ed32,69b92ab4aef6dee357cd729a,69b92b4e6b0bfd8f62719ebd,0.0466,0.0466,0,72,72,35,1,twofour,,,,,,,,,,,,,,,,,,,,,,,,,,,,,,,,,,,,,,,,,,,,,,,,,,,,,,,,,,,,,,,,,,,,,,,,,,,,,,,,,,,,,,,,,,,,,,,,,,,,,,,,,,,,,,,,,,,,,,,,,,,,,,,,,,,,,,,,,
,,6928a6394052fbe76783ed32,2026-03-17_11h22.46.049,kallum_motion_pilot_GIST_update_2,2026.1.1,Win32,59.88023952,6928a6394052fbe76783ed32,69b92ab4aef6dee357cd729a,69b92b4e6b0bfd8f62719ebd,0.0468,0.0468,0,73,73,6,1,fourtwo,,,,,,,,,,,,,,,,,,,,,,,,,,,,,,,,,,,,,,,,,,,,,,,,,,,,,,,,,,,,,,,,,,,,,,,,,,,,,,,,,,,,,,,,,,,,,,,,,,,,,,,,,,,,,,,,,,,,,,,,,,,,,,,,,,,,,,,,,
,,6928a6394052fbe76783ed32,2026-03-17_11h22.46.049,kallum_motion_pilot_GIST_update_2,2026.1.1,Win32,59.88023952,6928a6394052fbe76783ed32,69b92ab4aef6dee357cd729a,69b92b4e6b0bfd8f62719ebd,0.0469,0.0469,0,74,74,38,1,fourtwo,,,,,,,,,,,,,,,,,,,,,,,,,,,,,,,,,,,,,,,,,,,,,,,,,,,,,,,,,,,,,,,,,,,,,,,,,,,,,,,,,,,,,,,,,,,,,,,,,,,,,,,,,,,,,,,,,,,,,,,,,,,,,,,,,,,,,,,,,
,,6928a6394052fbe76783ed32,2026-03-17_11h22.46.049,kallum_motion_pilot_GIST_update_2,2026.1.1,Win32,59.88023952,6928a6394052fbe76783ed32,69b92ab4aef6dee357cd729a,69b92b4e6b0bfd8f62719ebd,0.047,0.047,0,75,75,88,1,fivesix,,,,,,,,,,,,,,,,,,,,,,,,,,,,,,,,,,,,,,,,,,,,,,,,,,,,,,,,,,,,,,,,,,,,,,,,,,,,,,,,,,,,,,,,,,,,,,,,,,,,,,,,,,,,,,,,,,,,,,,,,,,,,,,,,,,,,,,,,
,,6928a6394052fbe76783ed32,2026-03-17_11h22.46.049,kallum_motion_pilot_GIST_update_2,2026.1.1,Win32,59.88023952,6928a6394052fbe76783ed32,69b92ab4aef6dee357cd729a,69b92b4e6b0bfd8f62719ebd,0.0471,0.0471,0,76,76,104,1,fivesix,,,,,,,,,,,,,,,,,,,,,,,,,,,,,,,,,,,,,,,,,,,,,,,,,,,,,,,,,,,,,,,,,,,,,,,,,,,,,,,,,,,,,,,,,,,,,,,,,,,,,,,,,,,,,,,,,,,,,,,,,,,,,,,,,,,,,,,,,
,,6928a6394052fbe76783ed32,2026-03-17_11h22.46.049,kallum_motion_pilot_GIST_update_2,2026.1.1,Win32,59.88023952,6928a6394052fbe76783ed32,69b92ab4aef6dee357cd729a,69b92b4e6b0bfd8f62719ebd,0.0473,0.0473,0,77,77,156,1,sevenfive,,,,,,,,,,,,,,,,,,,,,,,,,,,,,,,,,,,,,,,,,,,,,,,,,,,,,,,,,,,,,,,,,,,,,,,,,,,,,,,,,,,,,,,,,,,,,,,,,,,,,,,,,,,,,,,,,,,,,,,,,,,,,,,,,,,,,,,,,
,,6928a6394052fbe76783ed32,2026-03-17_11h22.46.049,kallum_motion_pilot_GIST_update_2,2026.1.1,Win32,59.88023952,6928a6394052fbe76783ed32,69b92ab4aef6dee357cd729a,69b92b4e6b0bfd8f62719ebd,0.0474,0.0474,0,78,78,36,1,threeone,,,,,,,,,,,,,,,,,,,,,,,,,,,,,,,,,,,,,,,,,,,,,,,,,,,,,,,,,,,,,,,,,,,,,,,,,,,,,,,,,,,,,,,,,,,,,,,,,,,,,,,,,,,,,,,,,,,,,,,,,,,,,,,,,,,,,,,,,
,,6928a6394052fbe76783ed32,2026-03-17_11h22.46.049,kallum_motion_pilot_GIST_update_2,2026.1.1,Win32,59.88023952,6928a6394052fbe76783ed32,69b92ab4aef6dee357cd729a,69b92b4e6b0bfd8f62719ebd,0.0475,0.0475,0,79,79,12,1,threeone,,,,,,,,,,,,,,,,,,,,,,,,,,,,,,,,,,,,,,,,,,,,,,,,,,,,,,,,,,,,,,,,,,,,,,,,,,,,,,,,,,,,,,,,,,,,,,,,,,,,,,,,,,,,,,,,,,,,,,,,,,,,,,,,,,,,,,,,,
,,6928a6394052fbe76783ed32,2026-03-17_11h22.46.049,kallum_motion_pilot_GIST_update_2,2026.1.1,Win32,59.88023952,6928a6394052fbe76783ed32,69b92ab4aef6dee357cd729a,69b92b4e6b0bfd8f62719ebd,0.0477,0.0477,0,80,80,85,1,seveneight,,,,,,,,,,,,,,,,,,,,,,,,,,,,,,,,,,,,,,,,,,,,,,,,,,,,,,,,,,,,,,,,,,,,,,,,,,,,,,,,,,,,,,,,,,,,,,,,,,,,,,,,,,,,,,,,,,,,,,,,,,,,,,,,,,,,,,,,,
,,6928a6394052fbe76783ed32,2026-03-17_11h22.46.049,kallum_motion_pilot_GIST_update_2,2026.1.1,Win32,59.88023952,6928a6394052fbe76783ed32,69b92ab4aef6dee357cd729a,69b92b4e6b0bfd8f62719ebd,0.0478,0.0478,0,81,81,72,1,onetwo,,,,,,,,,,,,,,,,,,,,,,,,,,,,,,,,,,,,,,,,,,,,,,,,,,,,,,,,,,,,,,,,,,,,,,,,,,,,,,,,,,,,,,,,,,,,,,,,,,,,,,,,,,,,,,,,,,,,,,,,,,,,,,,,,,,,,,,,,
,,6928a6394052fbe76783ed32,2026-03-17_11h22.46.049,kallum_motion_pilot_GIST_update_2,2026.1.1,Win32,59.88023952,6928a6394052fbe76783ed32,69b92ab4aef6dee357cd729a,69b92b4e6b0bfd8f62719ebd,0.0479,0.0479,0,82,82,106,1,sixfive,,,,,,,,,,,,,,,,,,,,,,,,,,,,,,,,,,,,,,,,,,,,,,,,,,,,,,,,,,,,,,,,,,,,,,,,,,,,,,,,,,,,,,,,,,,,,,,,,,,,,,,,,,,,,,,,,,,,,,,,,,,,,,,,,,,,,,,,,
,,6928a6394052fbe76783ed32,2026-03-17_11h22.46.049,kallum_motion_pilot_GIST_update_2,2026.1.1,Win32,59.88023952,6928a6394052fbe76783ed32,69b92ab4aef6dee357cd729a,69b92b4e6b0bfd8f62719ebd,0.0481,0.0481,0,83,83,42,1,twoone,,,,,,,,,,,,,,,,,,,,,,,,,,,,,,,,,,,,,,,,,,,,,,,,,,,,,,,,,,,,,,,,,,,,,,,,,,,,,,,,,,,,,,,,,,,,,,,,,,,,,,,,,,,,,,,,,,,,,,,,,,,,,,,,,,,,,,,,,
,,6928a6394052fbe76783ed32,2026-03-17_11h22.46.049,kallum_motion_pilot_GIST_update_2,2026.1.1,Win32,59.88023952,6928a6394052fbe76783ed32,69b92ab4aef6dee357cd729a,69b92b4e6b0bfd8f62719ebd,0.0483,0.0483,0,84,84,61,1,threefour,,,,,,,,,,,,,,,,,,,,,,,,,,,,,,,,,,,,,,,,,,,,,,,,,,,,,,,,,,,,,,,,,,,,,,,,,,,,,,,,,,,,,,,,,,,,,,,,,,,,,,,,,,,,,,,,,,,,,,,,,,,,,,,,,,,,,,,,,
,,6928a6394052fbe76783ed32,2026-03-17_11h22.46.049,kallum_motion_pilot_GIST_update_2,2026.1.1,Win32,59.88023952,6928a6394052fbe76783ed32,69b92ab4aef6dee357cd729a,69b92b4e6b0bfd8f62719ebd,0.0484,0.0484,0,85,85,64,1,onetwo,,,,,,,,,,,,,,,,,,,,,,,,,,,,,,,,,,,,,,,,,,,,,,,,,,,,,,,,,,,,,,,,,,,,,,,,,,,,,,,,,,,,,,,,,,,,,,,,,,,,,,,,,,,,,,,,,,,,,,,,,,,,,,,,,,,,,,,,,
,,6928a6394052fbe76783ed32,2026-03-17_11h22.46.049,kallum_motion_pilot_GIST_update_2,2026.1.1,Win32,59.88023952,6928a6394052fbe76783ed32,69b92ab4aef6dee357cd729a,69b92b4e6b0bfd8f62719ebd,0.0486,0.0486,0,86,86,99,1,sixeight,,,,,,,,,,,,,,,,,,,,,,,,,,,,,,,,,,,,,,,,,,,,,,,,,,,,,,,,,,,,,,,,,,,,,,,,,,,,,,,,,,,,,,,,,,,,,,,,,,,,,,,,,,,,,,,,,,,,,,,,,,,,,,,,,,,,,,,,,
,,6928a6394052fbe76783ed32,2026-03-17_11h22.46.049,kallum_motion_pilot_GIST_update_2,2026.1.1,Win32,59.88023952,6928a6394052fbe76783ed32,69b92ab4aef6dee357cd729a,69b92b4e6b0bfd8f62719ebd,0.0487,0.0487,0,87,87,122,1,sixfive,,,,,,,,,,,,,,,,,,,,,,,,,,,,,,,,,,,,,,,,,,,,,,,,,,,,,,,,,,,,,,,,,,,,,,,,,,,,,,,,,,,,,,,,,,,,,,,,,,,,,,,,,,,,,,,,,,,,,,,,,,,,,,,,,,,,,,,,,
,,6928a6394052fbe76783ed32,2026-03-17_11h22.46.049,kallum_motion_pilot_GIST_update_2,2026.1.1,Win32,59.88023952,6928a6394052fbe76783ed32,69b92ab4aef6dee357cd729a,69b92b4e6b0bfd8f62719ebd,0.0488,0.0488,0,88,88,116,1,sevenfive,,,,,,,,,,,,,,,,,,,,,,,,,,,,,,,,,,,,,,,,,,,,,,,,,,,,,,,,,,,,,,,,,,,,,,,,,,,,,,,,,,,,,,,,,,,,,,,,,,,,,,,,,,,,,,,,,,,,,,,,,,,,,,,,,,,,,,,,,
,,6928a6394052fbe76783ed32,2026-03-17_11h22.46.049,kallum_motion_pilot_GIST_update_2,2026.1.1,Win32,59.88023952,6928a6394052fbe76783ed32,69b92ab4aef6dee357cd729a,69b92b4e6b0bfd8f62719ebd,0.049,0.049,0,89,89,161,1,fiveseven,,,,,,,,,,,,,,,,,,,,,,,,,,,,,,,,,,,,,,,,,,,,,,,,,,,,,,,,,,,,,,,,,,,,,,,,,,,,,,,,,,,,,,,,,,,,,,,,,,,,,,,,,,,,,,,,,,,,,,,,,,,,,,,,,,,,,,,,,
,,6928a6394052fbe76783ed32,2026-03-17_11h22.46.049,kallum_motion_pilot_GIST_update_2,2026.1.1,Win32,59.88023952,6928a6394052fbe76783ed32,69b92ab4aef6dee357cd729a,69b92b4e6b0bfd8f62719ebd,0.0491,0.0491,0,90,90,51,1,twofour,,,,,,,,,,,,,,,,,,,,,,,,,,,,,,,,,,,,,,,,,,,,,,,,,,,,,,,,,,,,,,,,,,,,,,,,,,,,,,,,,,,,,,,,,,,,,,,,,,,,,,,,,,,,,,,,,,,,,,,,,,,,,,,,,,,,,,,,,
,,6928a6394052fbe76783ed32,2026-03-17_11h22.46.049,kallum_motion_pilot_GIST_update_2,2026.1.1,Win32,59.88023952,6928a6394052fbe76783ed32,69b92ab4aef6dee357cd729a,69b92b4e6b0bfd8f62719ebd,0.0492,0.0492,0,91,91,151,1,eightseven,,,,,,,,,,,,,,,,,,,,,,,,,,,,,,,,,,,,,,,,,,,,,,,,,,,,,,,,,,,,,,,,,,,,,,,,,,,,,,,,,,,,,,,,,,,,,,,,,,,,,,,,,,,,,,,,,,,,,,,,,,,,,,,,,,,,,,,,,
,,6928a6394052fbe76783ed32,2026-03-17_11h22.46.049,kallum_motion_pilot_GIST_update_2,2026.1.1,Win32,59.88023952,6928a6394052fbe76783ed32,69b92ab4aef6dee357cd729a,69b92b4e6b0bfd8f62719ebd,0.0493,0.0493,0,92,92,34,1,twoone,,,,,,,,,,,,,,,,,,,,,,,,,,,,,,,,,,,,,,,,,,,,,,,,,,,,,,,,,,,,,,,,,,,,,,,,,,,,,,,,,,,,,,,,,,,,,,,,,,,,,,,,,,,,,,,,,,,,,,,,,,,,,,,,,,,,,,,,,
,,6928a6394052fbe76783ed32,2026-03-17_11h22.46.049,kallum_motion_pilot_GIST_update_2,2026.1.1,Win32,59.88023952,6928a6394052fbe76783ed32,69b92ab4aef6dee357cd729a,69b92b4e6b0bfd8f62719ebd,0.0495,0.0495,0,93,93,149,1,seveneight,,,,,,,,,,,,,,,,,,,,,,,,,,,,,,,,,,,,,,,,,,,,,,,,,,,,,,,,,,,,,,,,,,,,,,,,,,,,,,,,,,,,,,,,,,,,,,,,,,,,,,,,,,,,,,,,,,,,,,,,,,,,,,,,,,,,,,,,,
,,6928a6394052fbe76783ed32,2026-03-17_11h22.46.049,kallum_motion_pilot_GIST_update_2,2026.1.1,Win32,59.88023952,6928a6394052fbe76783ed32,69b92ab4aef6dee357cd729a,69b92b4e6b0bfd8f62719ebd,0.0497,0.0497,0,94,94,65,1,onethree,,,,,,,,,,,,,,,,,,,,,,,,,,,,,,,,,,,,,,,,,,,,,,,,,,,,,,,,,,,,,,,,,,,,,,,,,,,,,,,,,,,,,,,,,,,,,,,,,,,,,,,,,,,,,,,,,,,,,,,,,,,,,,,,,,,,,,,,,
,,6928a6394052fbe76783ed32,2026-03-17_11h22.46.049,kallum_motion_pilot_GIST_update_2,2026.1.1,Win32,59.88023952,6928a6394052fbe76783ed32,69b92ab4aef6dee357cd729a,69b92b4e6b0bfd8f62719ebd,0.0498,0.0498,0,95,95,0,1,onetwo,,,,,,,,,,,,,,,,,,,,,,,,,,,,,,,,,,,,,,,,,,,,,,,,,,,,,,,,,,,,,,,,,,,,,,,,,,,,,,,,,,,,,,,,,,,,,,,,,,,,,,,,,,,,,,,,,,,,,,,,,,,,,,,,,,,,,,,,,
,,6928a6394052fbe76783ed32,2026-03-17_11h22.46.049,kallum_motion_pilot_GIST_update_2,2026.1.1,Win32,59.88023952,6928a6394052fbe76783ed32,69b92ab4aef6dee357cd729a,69b92b4e6b0bfd8f62719ebd,0.0499,0.0499,0,96,96,146,1,sixfive,,,,,,,,,,,,,,,,,,,,,,,,,,,,,,,,,,,,,,,,,,,,,,,,,,,,,,,,,,,,,,,,,,,,,,,,,,,,,,,,,,,,,,,,,,,,,,,,,,,,,,,,,,,,,,,,,,,,,,,,,,,,,,,,,,,,,,,,,
,,6928a6394052fbe76783ed32,2026-03-17_11h22.46.049,kallum_motion_pilot_GIST_update_2,2026.1.1,Win32,59.88023952,6928a6394052fbe76783ed32,69b92ab4aef6dee357cd729a,69b92b4e6b0bfd8f62719ebd,0.0501,0.0501,0,97,97,30,1,fourtwo,,,,,,,,,,,,,,,,,,,,,,,,,,,,,,,,,,,,,,,,,,,,,,,,,,,,,,,,,,,,,,,,,,,,,,,,,,,,,,,,,,,,,,,,,,,,,,,,,,,,,,,,,,,,,,,,,,,,,,,,,,,,,,,,,,,,,,,,,
,,6928a6394052fbe76783ed32,2026-03-17_11h22.46.049,kallum_motion_pilot_GIST_update_2,2026.1.1,Win32,59.88023952,6928a6394052fbe76783ed32,69b92ab4aef6dee357cd729a,69b92b4e6b0bfd8f62719ebd,0.0502,0.0502,0,98,98,62,1,fourtwo,,,,,,,,,,,,,,,,,,,,,,,,,,,,,,,,,,,,,,,,,,,,,,,,,,,,,,,,,,,,,,,,,,,,,,,,,,,,,,,,,,,,,,,,,,,,,,,,,,,,,,,,,,,,,,,,,,,,,,,,,,,,,,,,,,,,,,,,,
,,6928a6394052fbe76783ed32,2026-03-17_11h22.46.049,kallum_motion_pilot_GIST_update_2,2026.1.1,Win32,59.88023952,6928a6394052fbe76783ed32,69b92ab4aef6dee357cd729a,69b92b4e6b0bfd8f62719ebd,0.0504,0.0504,0,99,99,21,1,threefour,,,,,,,,,,,,,,,,,,,,,,,,,,,,,,,,,,,,,,,,,,,,,,,,,,,,,,,,,,,,,,,,,,,,,,,,,,,,,,,,,,,,,,,,,,,,,,,,,,,,,,,,,,,,,,,,,,,,,,,,,,,,,,,,,,,,,,,,,
,,6928a6394052fbe76783ed32,2026-03-17_11h22.46.049,kallum_motion_pilot_GIST_update_2,2026.1.1,Win32,59.88023952,6928a6394052fbe76783ed32,69b92ab4aef6dee357cd729a,69b92b4e6b0bfd8f62719ebd,0.0505,0.0505,0,100,100,117,1,seveneight,,,,,,,,,,,,,,,,,,,,,,,,,,,,,,,,,,,,,,,,,,,,,,,,,,,,,,,,,,,,,,,,,,,,,,,,,,,,,,,,,,,,,,,,,,,,,,,,,,,,,,,,,,,,,,,,,,,,,,,,,,,,,,,,,,,,,,,,,
,,6928a6394052fbe76783ed32,2026-03-17_11h22.46.049,kallum_motion_pilot_GIST_update_2,2026.1.1,Win32,59.88023952,6928a6394052fbe76783ed32,69b92ab4aef6dee357cd729a,69b92b4e6b0bfd8f62719ebd,0.0507,0.0507,0,101,101,66,1,twoone,,,,,,,,,,,,,,,,,,,,,,,,,,,,,,,,,,,,,,,,,,,,,,,,,,,,,,,,,,,,,,,,,,,,,,,,,,,,,,,,,,,,,,,,,,,,,,,,,,,,,,,,,,,,,,,,,,,,,,,,,,,,,,,,,,,,,,,,,
,,6928a6394052fbe76783ed32,2026-03-17_11h22.46.049,kallum_motion_pilot_GIST_update_2,2026.1.1,Win32,59.88023952,6928a6394052fbe76783ed32,69b92ab4aef6dee357cd729a,69b92b4e6b0bfd8f62719ebd,0.0509,0.0509,0,102,102,137,1,fiveseven,,,,,,,,,,,,,,,,,,,,,,,,,,,,,,,,,,,,,,,,,,,,,,,,,,,,,,,,,,,,,,,,,,,,,,,,,,,,,,,,,,,,,,,,,,,,,,,,,,,,,,,,,,,,,,,,,,,,,,,,,,,,,,,,,,,,,,,,,
,,6928a6394052fbe76783ed32,2026-03-17_11h22.46.049,kallum_motion_pilot_GIST_update_2,2026.1.1,Win32,59.88023952,6928a6394052fbe76783ed32,69b92ab4aef6dee357cd729a,69b92b4e6b0bfd8f62719ebd,0.051,0.051,0,103,103,76,1,threeone,,,,,,,,,,,,,,,,,,,,,,,,,,,,,,,,,,,,,,,,,,,,,,,,,,,,,,,,,,,,,,,,,,,,,,,,,,,,,,,,,,,,,,,,,,,,,,,,,,,,,,,,,,,,,,,,,,,,,,,,,,,,,,,,,,,,,,,,,
,,6928a6394052fbe76783ed32,2026-03-17_11h22.46.049,kallum_motion_pilot_GIST_update_2,2026.1.1,Win32,59.88023952,6928a6394052fbe76783ed32,69b92ab4aef6dee357cd729a,69b92b4e6b0bfd8f62719ebd,0.0512,0.0512,0,104,104,70,1,fourtwo,,,,,,,,,,,,,,,,,,,,,,,,,,,,,,,,,,,,,,,,,,,,,,,,,,,,,,,,,,,,,,,,,,,,,,,,,,,,,,,,,,,,,,,,,,,,,,,,,,,,,,,,,,,,,,,,,,,,,,,,,,,,,,,,,,,,,,,,,
,,6928a6394052fbe76783ed32,2026-03-17_11h22.46.049,kallum_motion_pilot_GIST_update_2,2026.1.1,Win32,59.88023952,6928a6394052fbe76783ed32,69b92ab4aef6dee357cd729a,69b92b4e6b0bfd8f62719ebd,0.0513,0.0513,0,105,105,67,1,twofour,,,,,,,,,,,,,,,,,,,,,,,,,,,,,,,,,,,,,,,,,,,,,,,,,,,,,,,,,,,,,,,,,,,,,,,,,,,,,,,,,,,,,,,,,,,,,,,,,,,,,,,,,,,,,,,,,,,,,,,,,,,,,,,,,,,,,,,,,
,,6928a6394052fbe76783ed32,2026-03-17_11h22.46.049,kallum_motion_pilot_GIST_update_2,2026.1.1,Win32,59.88023952,6928a6394052fbe76783ed32,69b92ab4aef6dee357cd729a,69b92b4e6b0bfd8f62719ebd,0.0514,0.0514,0,106,106,132,1,sevenfive,,,,,,,,,,,,,,,,,,,,,,,,,,,,,,,,,,,,,,,,,,,,,,,,,,,,,,,,,,,,,,,,,,,,,,,,,,,,,,,,,,,,,,,,,,,,,,,,,,,,,,,,,,,,,,,,,,,,,,,,,,,,,,,,,,,,,,,,,
,,6928a6394052fbe76783ed32,2026-03-17_11h22.46.049,kallum_motion_pilot_GIST_update_2,2026.1.1,Win32,59.88023952,6928a6394052fbe76783ed32,69b92ab4aef6dee357cd729a,69b92b4e6b0bfd8f62719ebd,0.0515,0.0515,0,107,107,119,1,eightseven,,,,,,,,,,,,,,,,,,,,,,,,,,,,,,,,,,,,,,,,,,,,,,,,,,,,,,,,,,,,,,,,,,,,,,,,,,,,,,,,,,,,,,,,,,,,,,,,,,,,,,,,,,,,,,,,,,,,,,,,,,,,,,,,,,,,,,,,,
,,6928a6394052fbe76783ed32,2026-03-17_11h22.46.049,kallum_motion_pilot_GIST_update_2,2026.1.1,Win32,59.88023952,6928a6394052fbe76783ed32,69b92ab4aef6dee357cd729a,69b92b4e6b0bfd8f62719ebd,0.0517,0.0517,0,108,108,71,1,fourthree,,,,,,,,,,,,,,,,,,,,,,,,,,,,,,,,,,,,,,,,,,,,,,,,,,,,,,,,,,,,,,,,,,,,,,,,,,,,,,,,,,,,,,,,,,,,,,,,,,,,,,,,,,,,,,,,,,,,,,,,,,,,,,,,,,,,,,,,,
,,6928a6394052fbe76783ed32,2026-03-17_11h22.46.049,kallum_motion_pilot_GIST_update_2,2026.1.1,Win32,59.88023952,6928a6394052fbe76783ed32,69b92ab4aef6dee357cd729a,69b92b4e6b0bfd8f62719ebd,0.0519,0.0519,0,109,109,154,1,sixfive,,,,,,,,,,,,,,,,,,,,,,,,,,,,,,,,,,,,,,,,,,,,,,,,,,,,,,,,,,,,,,,,,,,,,,,,,,,,,,,,,,,,,,,,,,,,,,,,,,,,,,,,,,,,,,,,,,,,,,,,,,,,,,,,,,,,,,,,,
,,6928a6394052fbe76783ed32,2026-03-17_11h22.46.049,kallum_motion_pilot_GIST_update_2,2026.1.1,Win32,59.88023952,6928a6394052fbe76783ed32,69b92ab4aef6dee357cd729a,69b92b4e6b0bfd8f62719ebd,0.052,0.0521,0,110,110,145,1,fiveseven,,,,,,,,,,,,,,,,,,,,,,,,,,,,,,,,,,,,,,,,,,,,,,,,,,,,,,,,,,,,,,,,,,,,,,,,,,,,,,,,,,,,,,,,,,,,,,,,,,,,,,,,,,,,,,,,,,,,,,,,,,,,,,,,,,,,,,,,,
,,6928a6394052fbe76783ed32,2026-03-17_11h22.46.049,kallum_motion_pilot_GIST_update_2,2026.1.1,Win32,59.88023952,6928a6394052fbe76783ed32,69b92ab4aef6dee357cd729a,69b92b4e6b0bfd8f62719ebd,0.0522,0.0522,0,111,111,75,1,twofour,,,,,,,,,,,,,,,,,,,,,,,,,,,,,,,,,,,,,,,,,,,,,,,,,,,,,,,,,,,,,,,,,,,,,,,,,,,,,,,,,,,,,,,,,,,,,,,,,,,,,,,,,,,,,,,,,,,,,,,,,,,,,,,,,,,,,,,,,
,,6928a6394052fbe76783ed32,2026-03-17_11h22.46.049,kallum_motion_pilot_GIST_update_2,2026.1.1,Win32,59.88023952,6928a6394052fbe76783ed32,69b92ab4aef6dee357cd729a,69b92b4e6b0bfd8f62719ebd,0.0523,0.0523,0,112,112,60,1,threeone,,,,,,,,,,,,,,,,,,,,,,,,,,,,,,,,,,,,,,,,,,,,,,,,,,,,,,,,,,,,,,,,,,,,,,,,,,,,,,,,,,,,,,,,,,,,,,,,,,,,,,,,,,,,,,,,,,,,,,,,,,,,,,,,,,,,,,,,,
,,6928a6394052fbe76783ed32,2026-03-17_11h22.46.049,kallum_motion_pilot_GIST_update_2,2026.1.1,Win32,59.88023952,6928a6394052fbe76783ed32,69b92ab4aef6dee357cd729a,69b92b4e6b0bfd8f62719ebd,0.0525,0.0525,0,113,113,92,1,sevenfive,,,,,,,,,,,,,,,,,,,,,,,,,,,,,,,,,,,,,,,,,,,,,,,,,,,,,,,,,,,,,,,,,,,,,,,,,,,,,,,,,,,,,,,,,,,,,,,,,,,,,,,,,,,,,,,,,,,,,,,,,,,,,,,,,,,,,,,,,
,,6928a6394052fbe76783ed32,2026-03-17_11h22.46.049,kallum_motion_pilot_GIST_update_2,2026.1.1,Win32,59.88023952,6928a6394052fbe76783ed32,69b92ab4aef6dee357cd729a,69b92b4e6b0bfd8f62719ebd,0.0526,0.0526,0,114,114,37,1,threefour,,,,,,,,,,,,,,,,,,,,,,,,,,,,,,,,,,,,,,,,,,,,,,,,,,,,,,,,,,,,,,,,,,,,,,,,,,,,,,,,,,,,,,,,,,,,,,,,,,,,,,,,,,,,,,,,,,,,,,,,,,,,,,,,,,,,,,,,,
,,6928a6394052fbe76783ed32,2026-03-17_11h22.46.049,kallum_motion_pilot_GIST_update_2,2026.1.1,Win32,59.88023952,6928a6394052fbe76783ed32,69b92ab4aef6dee357cd729a,69b92b4e6b0bfd8f62719ebd,0.0527,0.0527,0,115,115,9,1,onethree,,,,,,,,,,,,,,,,,,,,,,,,,,,,,,,,,,,,,,,,,,,,,,,,,,,,,,,,,,,,,,,,,,,,,,,,,,,,,,,,,,,,,,,,,,,,,,,,,,,,,,,,,,,,,,,,,,,,,,,,,,,,,,,,,,,,,,,,,
,,6928a6394052fbe76783ed32,2026-03-17_11h22.46.049,kallum_motion_pilot_GIST_update_2,2026.1.1,Win32,59.88023952,6928a6394052fbe76783ed32,69b92ab4aef6dee357cd729a,69b92b4e6b0bfd8f62719ebd,0.0529,0.0529,0,116,116,57,1,onethree,,,,,,,,,,,,,,,,,,,,,,,,,,,,,,,,,,,,,,,,,,,,,,,,,,,,,,,,,,,,,,,,,,,,,,,,,,,,,,,,,,,,,,,,,,,,,,,,,,,,,,,,,,,,,,,,,,,,,,,,,,,,,,,,,,,,,,,,,
,,6928a6394052fbe76783ed32,2026-03-17_11h22.46.049,kallum_motion_pilot_GIST_update_2,2026.1.1,Win32,59.88023952,6928a6394052fbe76783ed32,69b92ab4aef6dee357cd729a,69b92b4e6b0bfd8f62719ebd,0.053,0.053,0,117,117,131,1,sixeight,,,,,,,,,,,,,,,,,,,,,,,,,,,,,,,,,,,,,,,,,,,,,,,,,,,,,,,,,,,,,,,,,,,,,,,,,,,,,,,,,,,,,,,,,,,,,,,,,,,,,,,,,,,,,,,,,,,,,,,,,,,,,,,,,,,,,,,,,
,,6928a6394052fbe76783ed32,2026-03-17_11h22.46.049,kallum_motion_pilot_GIST_update_2,2026.1.1,Win32,59.88023952,6928a6394052fbe76783ed32,69b92ab4aef6dee357cd729a,69b92b4e6b0bfd8f62719ebd,0.0531,0.0531,0,118,118,52,1,threeone,,,,,,,,,,,,,,,,,,,,,,,,,,,,,,,,,,,,,,,,,,,,,,,,,,,,,,,,,,,,,,,,,,,,,,,,,,,,,,,,,,,,,,,,,,,,,,,,,,,,,,,,,,,,,,,,,,,,,,,,,,,,,,,,,,,,,,,,,
,,6928a6394052fbe76783ed32,2026-03-17_11h22.46.049,kallum_motion_pilot_GIST_update_2,2026.1.1,Win32,59.88023952,6928a6394052fbe76783ed32,69b92ab4aef6dee357cd729a,69b92b4e6b0bfd8f62719ebd,0.0533,0.0533,0,119,119,28,1,threeone,,,,,,,,,,,,,,,,,,,,,,,,,,,,,,,,,,,,,,,,,,,,,,,,,,,,,,,,,,,,,,,,,,,,,,,,,,,,,,,,,,,,,,,,,,,,,,,,,,,,,,,,,,,,,,,,,,,,,,,,,,,,,,,,,,,,,,,,,
,,6928a6394052fbe76783ed32,2026-03-17_11h22.46.049,kallum_motion_pilot_GIST_update_2,2026.1.1,Win32,59.88023952,6928a6394052fbe76783ed32,69b92ab4aef6dee357cd729a,69b92b4e6b0bfd8f62719ebd,0.0534,0.0534,0,120,120,46,1,fourtwo,,,,,,,,,,,,,,,,,,,,,,,,,,,,,,,,,,,,,,,,,,,,,,,,,,,,,,,,,,,,,,,,,,,,,,,,,,,,,,,,,,,,,,,,,,,,,,,,,,,,,,,,,,,,,,,,,,,,,,,,,,,,,,,,,,,,,,,,,
,,6928a6394052fbe76783ed32,2026-03-17_11h22.46.049,kallum_motion_pilot_GIST_update_2,2026.1.1,Win32,59.88023952,6928a6394052fbe76783ed32,69b92ab4aef6dee357cd729a,69b92b4e6b0bfd8f62719ebd,0.0536,0.0536,0,121,121,159,1,eightseven,,,,,,,,,,,,,,,,,,,,,,,,,,,,,,,,,,,,,,,,,,,,,,,,,,,,,,,,,,,,,,,,,,,,,,,,,,,,,,,,,,,,,,,,,,,,,,,,,,,,,,,,,,,,,,,,,,,,,,,,,,,,,,,,,,,,,,,,,
,,6928a6394052fbe76783ed32,2026-03-17_11h22.46.049,kallum_motion_pilot_GIST_update_2,2026.1.1,Win32,59.88023952,6928a6394052fbe76783ed32,69b92ab4aef6dee357cd729a,69b92b4e6b0bfd8f62719ebd,0.0537,0.0537,0,122,122,160,1,fivesix,,,,,,,,,,,,,,,,,,,,,,,,,,,,,,,,,,,,,,,,,,,,,,,,,,,,,,,,,,,,,,,,,,,,,,,,,,,,,,,,,,,,,,,,,,,,,,,,,,,,,,,,,,,,,,,,,,,,,,,,,,,,,,,,,,,,,,,,,
,,6928a6394052fbe76783ed32,2026-03-17_11h22.46.049,kallum_motion_pilot_GIST_update_2,2026.1.1,Win32,59.88023952,6928a6394052fbe76783ed32,69b92ab4aef6dee357cd729a,69b92b4e6b0bfd8f62719ebd,0.0539,0.0539,0,123,123,59,1,twofour,,,,,,,,,,,,,,,,,,,,,,,,,,,,,,,,,,,,,,,,,,,,,,,,,,,,,,,,,,,,,,,,,,,,,,,,,,,,,,,,,,,,,,,,,,,,,,,,,,,,,,,,,,,,,,,,,,,,,,,,,,,,,,,,,,,,,,,,,
,,6928a6394052fbe76783ed32,2026-03-17_11h22.46.049,kallum_motion_pilot_GIST_update_2,2026.1.1,Win32,59.88023952,6928a6394052fbe76783ed32,69b92ab4aef6dee357cd729a,69b92b4e6b0bfd8f62719ebd,0.0541,0.0541,0,124,124,17,1,onethree,,,,,,,,,,,,,,,,,,,,,,,,,,,,,,,,,,,,,,,,,,,,,,,,,,,,,,,,,,,,,,,,,,,,,,,,,,,,,,,,,,,,,,,,,,,,,,,,,,,,,,,,,,,,,,,,,,,,,,,,,,,,,,,,,,,,,,,,,
,,6928a6394052fbe76783ed32,2026-03-17_11h22.46.049,kallum_motion_pilot_GIST_update_2,2026.1.1,Win32,59.88023952,6928a6394052fbe76783ed32,69b92ab4aef6dee357cd729a,69b92b4e6b0bfd8f62719ebd,0.0542,0.0542,0,125,125,18,1,twoone,,,,,,,,,,,,,,,,,,,,,,,,,,,,,,,,,,,,,,,,,,,,,,,,,,,,,,,,,,,,,,,,,,,,,,,,,,,,,,,,,,,,,,,,,,,,,,,,,,,,,,,,,,,,,,,,,,,,,,,,,,,,,,,,,,,,,,,,,
,,6928a6394052fbe76783ed32,2026-03-17_11h22.46.049,kallum_motion_pilot_GIST_update_2,2026.1.1,Win32,59.88023952,6928a6394052fbe76783ed32,69b92ab4aef6dee357cd729a,69b92b4e6b0bfd8f62719ebd,0.0544,0.0544,0,126,126,108,1,sevenfive,,,,,,,,,,,,,,,,,,,,,,,,,,,,,,,,,,,,,,,,,,,,,,,,,,,,,,,,,,,,,,,,,,,,,,,,,,,,,,,,,,,,,,,,,,,,,,,,,,,,,,,,,,,,,,,,,,,,,,,,,,,,,,,,,,,,,,,,,
,,6928a6394052fbe76783ed32,2026-03-17_11h22.46.049,kallum_motion_pilot_GIST_update_2,2026.1.1,Win32,59.88023952,6928a6394052fbe76783ed32,69b92ab4aef6dee357cd729a,69b92b4e6b0bfd8f62719ebd,0.0545,0.0546,0,127,127,109,1,seveneight,,,,,,,,,,,,,,,,,,,,,,,,,,,,,,,,,,,,,,,,,,,,,,,,,,,,,,,,,,,,,,,,,,,,,,,,,,,,,,,,,,,,,,,,,,,,,,,,,,,,,,,,,,,,,,,,,,,,,,,,,,,,,,,,,,,,,,,,,
,,6928a6394052fbe76783ed32,2026-03-17_11h22.46.049,kallum_motion_pilot_GIST_update_2,2026.1.1,Win32,59.88023952,6928a6394052fbe76783ed32,69b92ab4aef6dee357cd729a,69b92b4e6b0bfd8f62719ebd,0.0547,0.0547,0,128,128,7,1,fourthree,,,,,,,,,,,,,,,,,,,,,,,,,,,,,,,,,,,,,,,,,,,,,,,,,,,,,,,,,,,,,,,,,,,,,,,,,,,,,,,,,,,,,,,,,,,,,,,,,,,,,,,,,,,,,,,,,,,,,,,,,,,,,,,,,,,,,,,,,
,,6928a6394052fbe76783ed32,2026-03-17_11h22.46.049,kallum_motion_pilot_GIST_update_2,2026.1.1,Win32,59.88023952,6928a6394052fbe76783ed32,69b92ab4aef6dee357cd729a,69b92b4e6b0bfd8f62719ebd,0.0548,0.0548,0,129,129,158,1,eightsix,,,,,,,,,,,,,,,,,,,,,,,,,,,,,,,,,,,,,,,,,,,,,,,,,,,,,,,,,,,,,,,,,,,,,,,,,,,,,,,,,,,,,,,,,,,,,,,,,,,,,,,,,,,,,,,,,,,,,,,,,,,,,,,,,,,,,,,,,
,,6928a6394052fbe76783ed32,2026-03-17_11h22.46.049,kallum_motion_pilot_GIST_update_2,2026.1.1,Win32,59.88023952,6928a6394052fbe76783ed32,69b92ab4aef6dee357cd729a,69b92b4e6b0bfd8f62719ebd,0.055,0.055,0,130,130,49,1,onethree,,,,,,,,,,,,,,,,,,,,,,,,,,,,,,,,,,,,,,,,,,,,,,,,,,,,,,,,,,,,,,,,,,,,,,,,,,,,,,,,,,,,,,,,,,,,,,,,,,,,,,,,,,,,,,,,,,,,,,,,,,,,,,,,,,,,,,,,,
,,6928a6394052fbe76783ed32,2026-03-17_11h22.46.049,kallum_motion_pilot_GIST_update_2,2026.1.1,Win32,59.88023952,6928a6394052fbe76783ed32,69b92ab4aef6dee357cd729a,69b92b4e6b0bfd8f62719ebd,0.0552,0.0552,0,131,131,40,1,onetwo,,,,,,,,,,,,,,,,,,,,,,,,,,,,,,,,,,,,,,,,,,,,,,,,,,,,,,,,,,,,,,,,,,,,,,,,,,,,,,,,,,,,,,,,,,,,,,,,,,,,,,,,,,,,,,,,,,,,,,,,,,,,,,,,,,,,,,,,,
,,6928a6394052fbe76783ed32,2026-03-17_11h22.46.049,kallum_motion_pilot_GIST_update_2,2026.1.1,Win32,59.88023952,6928a6394052fbe76783ed32,69b92ab4aef6dee357cd729a,69b92b4e6b0bfd8f62719ebd,0.0554,0.0554,0,132,132,2,1,twoone,,,,,,,,,,,,,,,,,,,,,,,,,,,,,,,,,,,,,,,,,,,,,,,,,,,,,,,,,,,,,,,,,,,,,,,,,,,,,,,,,,,,,,,,,,,,,,,,,,,,,,,,,,,,,,,,,,,,,,,,,,,,,,,,,,,,,,,,,
,,6928a6394052fbe76783ed32,2026-03-17_11h22.46.049,kallum_motion_pilot_GIST_update_2,2026.1.1,Win32,59.88023952,6928a6394052fbe76783ed32,69b92ab4aef6dee357cd729a,69b92b4e6b0bfd8f62719ebd,0.0555,0.0555,0,133,133,45,1,threefour,,,,,,,,,,,,,,,,,,,,,,,,,,,,,,,,,,,,,,,,,,,,,,,,,,,,,,,,,,,,,,,,,,,,,,,,,,,,,,,,,,,,,,,,,,,,,,,,,,,,,,,,,,,,,,,,,,,,,,,,,,,,,,,,,,,,,,,,,
,,6928a6394052fbe76783ed32,2026-03-17_11h22.46.049,kallum_motion_pilot_GIST_update_2,2026.1.1,Win32,59.88023952,6928a6394052fbe76783ed32,69b92ab4aef6dee357cd729a,69b92b4e6b0bfd8f62719ebd,0.0556,0.0557,0,134,134,11,1,twofour,,,,,,,,,,,,,,,,,,,,,,,,,,,,,,,,,,,,,,,,,,,,,,,,,,,,,,,,,,,,,,,,,,,,,,,,,,,,,,,,,,,,,,,,,,,,,,,,,,,,,,,,,,,,,,,,,,,,,,,,,,,,,,,,,,,,,,,,,
,,6928a6394052fbe76783ed32,2026-03-17_11h22.46.049,kallum_motion_pilot_GIST_update_2,2026.1.1,Win32,59.88023952,6928a6394052fbe76783ed32,69b92ab4aef6dee357cd729a,69b92b4e6b0bfd8f62719ebd,0.0558,0.0558,0,135,135,123,1,sixeight,,,,,,,,,,,,,,,,,,,,,,,,,,,,,,,,,,,,,,,,,,,,,,,,,,,,,,,,,,,,,,,,,,,,,,,,,,,,,,,,,,,,,,,,,,,,,,,,,,,,,,,,,,,,,,,,,,,,,,,,,,,,,,,,,,,,,,,,,
,,6928a6394052fbe76783ed32,2026-03-17_11h22.46.049,kallum_motion_pilot_GIST_update_2,2026.1.1,Win32,59.88023952,6928a6394052fbe76783ed32,69b92ab4aef6dee357cd729a,69b92b4e6b0bfd8f62719ebd,0.0559,0.0559,0,136,136,94,1,eightsix,,,,,,,,,,,,,,,,,,,,,,,,,,,,,,,,,,,,,,,,,,,,,,,,,,,,,,,,,,,,,,,,,,,,,,,,,,,,,,,,,,,,,,,,,,,,,,,,,,,,,,,,,,,,,,,,,,,,,,,,,,,,,,,,,,,,,,,,,
,,6928a6394052fbe76783ed32,2026-03-17_11h22.46.049,kallum_motion_pilot_GIST_update_2,2026.1.1,Win32,59.88023952,6928a6394052fbe76783ed32,69b92ab4aef6dee357cd729a,69b92b4e6b0bfd8f62719ebd,0.056,0.056,0,137,137,128,1,fivesix,,,,,,,,,,,,,,,,,,,,,,,,,,,,,,,,,,,,,,,,,,,,,,,,,,,,,,,,,,,,,,,,,,,,,,,,,,,,,,,,,,,,,,,,,,,,,,,,,,,,,,,,,,,,,,,,,,,,,,,,,,,,,,,,,,,,,,,,,
,,6928a6394052fbe76783ed32,2026-03-17_11h22.46.049,kallum_motion_pilot_GIST_update_2,2026.1.1,Win32,59.88023952,6928a6394052fbe76783ed32,69b92ab4aef6dee357cd729a,69b92b4e6b0bfd8f62719ebd,0.0563,0.0563,0,138,138,16,1,onetwo,,,,,,,,,,,,,,,,,,,,,,,,,,,,,,,,,,,,,,,,,,,,,,,,,,,,,,,,,,,,,,,,,,,,,,,,,,,,,,,,,,,,,,,,,,,,,,,,,,,,,,,,,,,,,,,,,,,,,,,,,,,,,,,,,,,,,,,,,
,,6928a6394052fbe76783ed32,2026-03-17_11h22.46.049,kallum_motion_pilot_GIST_update_2,2026.1.1,Win32,59.88023952,6928a6394052fbe76783ed32,69b92ab4aef6dee357cd729a,69b92b4e6b0bfd8f62719ebd,0.0564,0.0564,0,139,139,3,1,twofour,,,,,,,,,,,,,,,,,,,,,,,,,,,,,,,,,,,,,,,,,,,,,,,,,,,,,,,,,,,,,,,,,,,,,,,,,,,,,,,,,,,,,,,,,,,,,,,,,,,,,,,,,,,,,,,,,,,,,,,,,,,,,,,,,,,,,,,,,
,,6928a6394052fbe76783ed32,2026-03-17_11h22.46.049,kallum_motion_pilot_GIST_update_2,2026.1.1,Win32,59.88023952,6928a6394052fbe76783ed32,69b92ab4aef6dee357cd729a,69b92b4e6b0bfd8f62719ebd,0.0565,0.0565,0,140,140,32,1,onetwo,,,,,,,,,,,,,,,,,,,,,,,,,,,,,,,,,,,,,,,,,,,,,,,,,,,,,,,,,,,,,,,,,,,,,,,,,,,,,,,,,,,,,,,,,,,,,,,,,,,,,,,,,,,,,,,,,,,,,,,,,,,,,,,,,,,,,,,,,
,,6928a6394052fbe76783ed32,2026-03-17_11h22.46.049,kallum_motion_pilot_GIST_update_2,2026.1.1,Win32,59.88023952,6928a6394052fbe76783ed32,69b92ab4aef6dee357cd729a,69b92b4e6b0bfd8f62719ebd,0.0567,0.0567,0,141,141,56,1,onetwo,,,,,,,,,,,,,,,,,,,,,,,,,,,,,,,,,,,,,,,,,,,,,,,,,,,,,,,,,,,,,,,,,,,,,,,,,,,,,,,,,,,,,,,,,,,,,,,,,,,,,,,,,,,,,,,,,,,,,,,,,,,,,,,,,,,,,,,,,
,,6928a6394052fbe76783ed32,2026-03-17_11h22.46.049,kallum_motion_pilot_GIST_update_2,2026.1.1,Win32,59.88023952,6928a6394052fbe76783ed32,69b92ab4aef6dee357cd729a,69b92b4e6b0bfd8f62719ebd,0.0568,0.0568,0,142,142,121,1,fiveseven,,,,,,,,,,,,,,,,,,,,,,,,,,,,,,,,,,,,,,,,,,,,,,,,,,,,,,,,,,,,,,,,,,,,,,,,,,,,,,,,,,,,,,,,,,,,,,,,,,,,,,,,,,,,,,,,,,,,,,,,,,,,,,,,,,,,,,,,,
,,6928a6394052fbe76783ed32,2026-03-17_11h22.46.049,kallum_motion_pilot_GIST_update_2,2026.1.1,Win32,59.88023952,6928a6394052fbe76783ed32,69b92ab4aef6dee357cd729a,69b92b4e6b0bfd8f62719ebd,0.0571,0.0571,0,143,143,114,1,sixfive,,,,,,,,,,,,,,,,,,,,,,,,,,,,,,,,,,,,,,,,,,,,,,,,,,,,,,,,,,,,,,,,,,,,,,,,,,,,,,,,,,,,,,,,,,,,,,,,,,,,,,,,,,,,,,,,,,,,,,,,,,,,,,,,,,,,,,,,,
,,6928a6394052fbe76783ed32,2026-03-17_11h22.46.049,kallum_motion_pilot_GIST_update_2,2026.1.1,Win32,59.88023952,6928a6394052fbe76783ed32,69b92ab4aef6dee357cd729a,69b92b4e6b0bfd8f62719ebd,0.0571,0.0571,0,144,144,91,1,sixeight,,,,,,,,,,,,,,,,,,,,,,,,,,,,,,,,,,,,,,,,,,,,,,,,,,,,,,,,,,,,,,,,,,,,,,,,,,,,,,,,,,,,,,,,,,,,,,,,,,,,,,,,,,,,,,,,,,,,,,,,,,,,,,,,,,,,,,,,,
,,6928a6394052fbe76783ed32,2026-03-17_11h22.46.049,kallum_motion_pilot_GIST_update_2,2026.1.1,Win32,59.88023952,6928a6394052fbe76783ed32,69b92ab4aef6dee357cd729a,69b92b4e6b0bfd8f62719ebd,0.0573,0.0573,0,145,145,73,1,onethree,,,,,,,,,,,,,,,,,,,,,,,,,,,,,,,,,,,,,,,,,,,,,,,,,,,,,,,,,,,,,,,,,,,,,,,,,,,,,,,,,,,,,,,,,,,,,,,,,,,,,,,,,,,,,,,,,,,,,,,,,,,,,,,,,,,,,,,,,
,,6928a6394052fbe76783ed32,2026-03-17_11h22.46.049,kallum_motion_pilot_GIST_update_2,2026.1.1,Win32,59.88023952,6928a6394052fbe76783ed32,69b92ab4aef6dee357cd729a,69b92b4e6b0bfd8f62719ebd,0.0575,0.0575,0,146,146,115,1,sixeight,,,,,,,,,,,,,,,,,,,,,,,,,,,,,,,,,,,,,,,,,,,,,,,,,,,,,,,,,,,,,,,,,,,,,,,,,,,,,,,,,,,,,,,,,,,,,,,,,,,,,,,,,,,,,,,,,,,,,,,,,,,,,,,,,,,,,,,,,
,,6928a6394052fbe76783ed32,2026-03-17_11h22.46.049,kallum_motion_pilot_GIST_update_2,2026.1.1,Win32,59.88023952,6928a6394052fbe76783ed32,69b92ab4aef6dee357cd729a,69b92b4e6b0bfd8f62719ebd,0.0577,0.0577,0,147,147,55,1,fourthree,,,,,,,,,,,,,,,,,,,,,,,,,,,,,,,,,,,,,,,,,,,,,,,,,,,,,,,,,,,,,,,,,,,,,,,,,,,,,,,,,,,,,,,,,,,,,,,,,,,,,,,,,,,,,,,,,,,,,,,,,,,,,,,,,,,,,,,,,
,,6928a6394052fbe76783ed32,2026-03-17_11h22.46.049,kallum_motion_pilot_GIST_update_2,2026.1.1,Win32,59.88023952,6928a6394052fbe76783ed32,69b92ab4aef6dee357cd729a,69b92b4e6b0bfd8f62719ebd,0.0578,0.0578,0,148,148,84,1,sevenfive,,,,,,,,,,,,,,,,,,,,,,,,,,,,,,,,,,,,,,,,,,,,,,,,,,,,,,,,,,,,,,,,,,,,,,,,,,,,,,,,,,,,,,,,,,,,,,,,,,,,,,,,,,,,,,,,,,,,,,,,,,,,,,,,,,,,,,,,,
,,6928a6394052fbe76783ed32,2026-03-17_11h22.46.049,kallum_motion_pilot_GIST_update_2,2026.1.1,Win32,59.88023952,6928a6394052fbe76783ed32,69b92ab4aef6dee357cd729a,69b92b4e6b0bfd8f62719ebd,0.0579,0.0579,0,149,149,50,1,twoone,,,,,,,,,,,,,,,,,,,,,,,,,,,,,,,,,,,,,,,,,,,,,,,,,,,,,,,,,,,,,,,,,,,,,,,,,,,,,,,,,,,,,,,,,,,,,,,,,,,,,,,,,,,,,,,,,,,,,,,,,,,,,,,,,,,,,,,,,
,,6928a6394052fbe76783ed32,2026-03-17_11h22.46.049,kallum_motion_pilot_GIST_update_2,2026.1.1,Win32,59.88023952,6928a6394052fbe76783ed32,69b92ab4aef6dee357cd729a,69b92b4e6b0bfd8f62719ebd,0.0581,0.0581,0,150,150,130,1,sixfive,,,,,,,,,,,,,,,,,,,,,,,,,,,,,,,,,,,,,,,,,,,,,,,,,,,,,,,,,,,,,,,,,,,,,,,,,,,,,,,,,,,,,,,,,,,,,,,,,,,,,,,,,,,,,,,,,,,,,,,,,,,,,,,,,,,,,,,,,
,,6928a6394052fbe76783ed32,2026-03-17_11h22.46.049,kallum_motion_pilot_GIST_update_2,2026.1.1,Win32,59.88023952,6928a6394052fbe76783ed32,69b92ab4aef6dee357cd729a,69b92b4e6b0bfd8f62719ebd,0.0583,0.0583,0,151,151,29,1,threefour,,,,,,,,,,,,,,,,,,,,,,,,,,,,,,,,,,,,,,,,,,,,,,,,,,,,,,,,,,,,,,,,,,,,,,,,,,,,,,,,,,,,,,,,,,,,,,,,,,,,,,,,,,,,,,,,,,,,,,,,,,,,,,,,,,,,,,,,,
,,6928a6394052fbe76783ed32,2026-03-17_11h22.46.049,kallum_motion_pilot_GIST_update_2,2026.1.1,Win32,59.88023952,6928a6394052fbe76783ed32,69b92ab4aef6dee357cd729a,69b92b4e6b0bfd8f62719ebd,0.0584,0.0584,0,152,152,5,1,threefour,,,,,,,,,,,,,,,,,,,,,,,,,,,,,,,,,,,,,,,,,,,,,,,,,,,,,,,,,,,,,,,,,,,,,,,,,,,,,,,,,,,,,,,,,,,,,,,,,,,,,,,,,,,,,,,,,,,,,,,,,,,,,,,,,,,,,,,,,
,,6928a6394052fbe76783ed32,2026-03-17_11h22.46.049,kallum_motion_pilot_GIST_update_2,2026.1.1,Win32,59.88023952,6928a6394052fbe76783ed32,69b92ab4aef6dee357cd729a,69b92b4e6b0bfd8f62719ebd,0.0586,0.0586,0,153,153,54,1,fourtwo,,,,,,,,,,,,,,,,,,,,,,,,,,,,,,,,,,,,,,,,,,,,,,,,,,,,,,,,,,,,,,,,,,,,,,,,,,,,,,,,,,,,,,,,,,,,,,,,,,,,,,,,,,,,,,,,,,,,,,,,,,,,,,,,,,,,,,,,,
,,6928a6394052fbe76783ed32,2026-03-17_11h22.46.049,kallum_motion_pilot_GIST_update_2,2026.1.1,Win32,59.88023952,6928a6394052fbe76783ed32,69b92ab4aef6dee357cd729a,69b92b4e6b0bfd8f62719ebd,0.0587,0.0587,0,154,154,140,1,sevenfive,,,,,,,,,,,,,,,,,,,,,,,,,,,,,,,,,,,,,,,,,,,,,,,,,,,,,,,,,,,,,,,,,,,,,,,,,,,,,,,,,,,,,,,,,,,,,,,,,,,,,,,,,,,,,,,,,,,,,,,,,,,,,,,,,,,,,,,,,
,,6928a6394052fbe76783ed32,2026-03-17_11h22.46.049,kallum_motion_pilot_GIST_update_2,2026.1.1,Win32,59.88023952,6928a6394052fbe76783ed32,69b92ab4aef6dee357cd729a,69b92b4e6b0bfd8f62719ebd,0.0588,0.0588,0,155,155,125,1,seveneight,,,,,,,,,,,,,,,,,,,,,,,,,,,,,,,,,,,,,,,,,,,,,,,,,,,,,,,,,,,,,,,,,,,,,,,,,,,,,,,,,,,,,,,,,,,,,,,,,,,,,,,,,,,,,,,,,,,,,,,,,,,,,,,,,,,,,,,,,
,,6928a6394052fbe76783ed32,2026-03-17_11h22.46.049,kallum_motion_pilot_GIST_update_2,2026.1.1,Win32,59.88023952,6928a6394052fbe76783ed32,69b92ab4aef6dee357cd729a,69b92b4e6b0bfd8f62719ebd,0.059,0.059,0,156,156,83,1,sixeight,,,,,,,,,,,,,,,,,,,,,,,,,,,,,,,,,,,,,,,,,,,,,,,,,,,,,,,,,,,,,,,,,,,,,,,,,,,,,,,,,,,,,,,,,,,,,,,,,,,,,,,,,,,,,,,,,,,,,,,,,,,,,,,,,,,,,,,,,
,,6928a6394052fbe76783ed32,2026-03-17_11h22.46.049,kallum_motion_pilot_GIST_update_2,2026.1.1,Win32,59.88023952,6928a6394052fbe76783ed32,69b92ab4aef6dee357cd729a,69b92b4e6b0bfd8f62719ebd,0.0592,0.0592,0,157,157,41,1,onethree,,,,,,,,,,,,,,,,,,,,,,,,,,,,,,,,,,,,,,,,,,,,,,,,,,,,,,,,,,,,,,,,,,,,,,,,,,,,,,,,,,,,,,,,,,,,,,,,,,,,,,,,,,,,,,,,,,,,,,,,,,,,,,,,,,,,,,,,,
,,6928a6394052fbe76783ed32,2026-03-17_11h22.46.049,kallum_motion_pilot_GIST_update_2,2026.1.1,Win32,59.88023952,6928a6394052fbe76783ed32,69b92ab4aef6dee357cd729a,69b92b4e6b0bfd8f62719ebd,0.0594,0.0594,0,158,158,1,1,onethree,,,,,,,,,,,,,,,,,,,,,,,,,,,,,,,,,,,,,,,,,,,,,,,,,,,,,,,,,,,,,,,,,,,,,,,,,,,,,,,,,,,,,,,,,,,,,,,,,,,,,,,,,,,,,,,,,,,,,,,,,,,,,,,,,,,,,,,,,
,,6928a6394052fbe76783ed32,2026-03-17_11h22.46.049,kallum_motion_pilot_GIST_update_2,2026.1.1,Win32,59.88023952,6928a6394052fbe76783ed32,69b92ab4aef6dee357cd729a,69b92b4e6b0bfd8f62719ebd,0.0595,0.0595,0,159,159,142,1,eightsix,,,,,,,,,,,,,,,,,,,,,,,,,,,,,,,,,,,,,,,,,,,,,,,,,,,,,,,,,,,,,,,,,,,,,,,,,,,,,,,,,,,,,,,,,,,,,,,,,,,,,,,,,,,,,,,,,,,,,,,,,,,,,,,,,,,,,,,,,
,,6928a6394052fbe76783ed32,2026-03-17_11h22.46.049,kallum_motion_pilot_GIST_update_2,2026.1.1,Win32,59.88023952,6928a6394052fbe76783ed32,69b92ab4aef6dee357cd729a,69b92b4e6b0bfd8f62719ebd,0.0617,0.0617,0,160,160,97,1,fiveseven,,,,,,,,,,,,,,,,,,,,,,,,,,,,,,,,,,,,,,,,,,,,,,,,,,,,,,,,,,,,,,,,,,,,,,,,,,,,,,,,,,,,,,,,,,,,,,,,,,,,,,,,,,,,,,,,,,,,,,,,,,,,,,,,,,,,,,,,,
,,6928a6394052fbe76783ed32,2026-03-17_11h22.46.049,kallum_motion_pilot_GIST_update_2,2026.1.1,Win32,59.88023952,6928a6394052fbe76783ed32,69b92ab4aef6dee357cd729a,69b92b4e6b0bfd8f62719ebd,0.062,0.062,0,161,161,105,1,fiveseven,,,,,,,,,,,,,,,,,,,,,,,,,,,,,,,,,,,,,,,,,,,,,,,,,,,,,,,,,,,,,,,,,,,,,,,,,,,,,,,,,,,,,,,,,,,,,,,,,,,,,,,,,,,,,,,,,,,,,,,,,,,,,,,,,,,,,,,,,
,,6928a6394052fbe76783ed32,2026-03-17_11h22.46.049,kallum_motion_pilot_GIST_update_2,2026.1.1,Win32,59.88023952,6928a6394052fbe76783ed32,69b92ab4aef6dee357cd729a,69b92b4e6b0bfd8f62719ebd,0.0622,0.0622,1,0,162,62,1,fourtwo,,,,,,,,,,,,,,,,,,,,,,,,,,,,,,,,,,,,,,,,,,,,,,,,,,,,,,,,,,,,,,,,,,,,,,,,,,,,,,,,,,,,,,,,,,,,,,,,,,,,,,,,,,,,,,,,,,,,,,,,,,,,,,,,,,,,,,,,,
,,6928a6394052fbe76783ed32,2026-03-17_11h22.46.049,kallum_motion_pilot_GIST_update_2,2026.1.1,Win32,59.88023952,6928a6394052fbe76783ed32,69b92ab4aef6dee357cd729a,69b92b4e6b0bfd8f62719ebd,0.0623,0.0623,1,1,163,25,1,onethree,,,,,,,,,,,,,,,,,,,,,,,,,,,,,,,,,,,,,,,,,,,,,,,,,,,,,,,,,,,,,,,,,,,,,,,,,,,,,,,,,,,,,,,,,,,,,,,,,,,,,,,,,,,,,,,,,,,,,,,,,,,,,,,,,,,,,,,,,
,,6928a6394052fbe76783ed32,2026-03-17_11h22.46.049,kallum_motion_pilot_GIST_update_2,2026.1.1,Win32,59.88023952,6928a6394052fbe76783ed32,69b92ab4aef6dee357cd729a,69b92b4e6b0bfd8f62719ebd,0.0625,0.0626,1,2,164,93,1,seveneight,,,,,,,,,,,,,,,,,,,,,,,,,,,,,,,,,,,,,,,,,,,,,,,,,,,,,,,,,,,,,,,,,,,,,,,,,,,,,,,,,,,,,,,,,,,,,,,,,,,,,,,,,,,,,,,,,,,,,,,,,,,,,,,,,,,,,,,,,
,,6928a6394052fbe76783ed32,2026-03-17_11h22.46.049,kallum_motion_pilot_GIST_update_2,2026.1.1,Win32,59.88023952,6928a6394052fbe76783ed32,69b92ab4aef6dee357cd729a,69b92b4e6b0bfd8f62719ebd,0.0627,0.0627,1,3,165,60,1,threeone,,,,,,,,,,,,,,,,,,,,,,,,,,,,,,,,,,,,,,,,,,,,,,,,,,,,,,,,,,,,,,,,,,,,,,,,,,,,,,,,,,,,,,,,,,,,,,,,,,,,,,,,,,,,,,,,,,,,,,,,,,,,,,,,,,,,,,,,,
,,6928a6394052fbe76783ed32,2026-03-17_11h22.46.049,kallum_motion_pilot_GIST_update_2,2026.1.1,Win32,59.88023952,6928a6394052fbe76783ed32,69b92ab4aef6dee357cd729a,69b92b4e6b0bfd8f62719ebd,0.0629,0.0629,1,4,166,160,1,fivesix,,,,,,,,,,,,,,,,,,,,,,,,,,,,,,,,,,,,,,,,,,,,,,,,,,,,,,,,,,,,,,,,,,,,,,,,,,,,,,,,,,,,,,,,,,,,,,,,,,,,,,,,,,,,,,,,,,,,,,,,,,,,,,,,,,,,,,,,,
,,6928a6394052fbe76783ed32,2026-03-17_11h22.46.049,kallum_motion_pilot_GIST_update_2,2026.1.1,Win32,59.88023952,6928a6394052fbe76783ed32,69b92ab4aef6dee357cd729a,69b92b4e6b0bfd8f62719ebd,0.063,0.063,1,5,167,31,1,fourthree,,,,,,,,,,,,,,,,,,,,,,,,,,,,,,,,,,,,,,,,,,,,,,,,,,,,,,,,,,,,,,,,,,,,,,,,,,,,,,,,,,,,,,,,,,,,,,,,,,,,,,,,,,,,,,,,,,,,,,,,,,,,,,,,,,,,,,,,,
,,6928a6394052fbe76783ed32,2026-03-17_11h22.46.049,kallum_motion_pilot_GIST_update_2,2026.1.1,Win32,59.88023952,6928a6394052fbe76783ed32,69b92ab4aef6dee357cd729a,69b92b4e6b0bfd8f62719ebd,0.0632,0.0632,1,6,168,71,1,fourthree,,,,,,,,,,,,,,,,,,,,,,,,,,,,,,,,,,,,,,,,,,,,,,,,,,,,,,,,,,,,,,,,,,,,,,,,,,,,,,,,,,,,,,,,,,,,,,,,,,,,,,,,,,,,,,,,,,,,,,,,,,,,,,,,,,,,,,,,,
,,6928a6394052fbe76783ed32,2026-03-17_11h22.46.049,kallum_motion_pilot_GIST_update_2,2026.1.1,Win32,59.88023952,6928a6394052fbe76783ed32,69b92ab4aef6dee357cd729a,69b92b4e6b0bfd8f62719ebd,0.0633,0.0633,1,7,169,76,1,threeone,,,,,,,,,,,,,,,,,,,,,,,,,,,,,,,,,,,,,,,,,,,,,,,,,,,,,,,,,,,,,,,,,,,,,,,,,,,,,,,,,,,,,,,,,,,,,,,,,,,,,,,,,,,,,,,,,,,,,,,,,,,,,,,,,,,,,,,,,
,,6928a6394052fbe76783ed32,2026-03-17_11h22.46.049,kallum_motion_pilot_GIST_update_2,2026.1.1,Win32,59.88023952,6928a6394052fbe76783ed32,69b92ab4aef6dee357cd729a,69b92b4e6b0bfd8f62719ebd,0.0635,0.0635,1,8,170,49,1,onethree,,,,,,,,,,,,,,,,,,,,,,,,,,,,,,,,,,,,,,,,,,,,,,,,,,,,,,,,,,,,,,,,,,,,,,,,,,,,,,,,,,,,,,,,,,,,,,,,,,,,,,,,,,,,,,,,,,,,,,,,,,,,,,,,,,,,,,,,,
,,6928a6394052fbe76783ed32,2026-03-17_11h22.46.049,kallum_motion_pilot_GIST_update_2,2026.1.1,Win32,59.88023952,6928a6394052fbe76783ed32,69b92ab4aef6dee357cd729a,69b92b4e6b0bfd8f62719ebd,0.0636,0.0636,1,9,171,82,1,sixfive,,,,,,,,,,,,,,,,,,,,,,,,,,,,,,,,,,,,,,,,,,,,,,,,,,,,,,,,,,,,,,,,,,,,,,,,,,,,,,,,,,,,,,,,,,,,,,,,,,,,,,,,,,,,,,,,,,,,,,,,,,,,,,,,,,,,,,,,,
,,6928a6394052fbe76783ed32,2026-03-17_11h22.46.049,kallum_motion_pilot_GIST_update_2,2026.1.1,Win32,59.88023952,6928a6394052fbe76783ed32,69b92ab4aef6dee357cd729a,69b92b4e6b0bfd8f62719ebd,0.0638,0.0638,1,10,172,75,1,twofour,,,,,,,,,,,,,,,,,,,,,,,,,,,,,,,,,,,,,,,,,,,,,,,,,,,,,,,,,,,,,,,,,,,,,,,,,,,,,,,,,,,,,,,,,,,,,,,,,,,,,,,,,,,,,,,,,,,,,,,,,,,,,,,,,,,,,,,,,
,,6928a6394052fbe76783ed32,2026-03-17_11h22.46.049,kallum_motion_pilot_GIST_update_2,2026.1.1,Win32,59.88023952,6928a6394052fbe76783ed32,69b92ab4aef6dee357cd729a,69b92b4e6b0bfd8f62719ebd,0.064,0.064,1,11,173,106,1,sixfive,,,,,,,,,,,,,,,,,,,,,,,,,,,,,,,,,,,,,,,,,,,,,,,,,,,,,,,,,,,,,,,,,,,,,,,,,,,,,,,,,,,,,,,,,,,,,,,,,,,,,,,,,,,,,,,,,,,,,,,,,,,,,,,,,,,,,,,,,
,,6928a6394052fbe76783ed32,2026-03-17_11h22.46.049,kallum_motion_pilot_GIST_update_2,2026.1.1,Win32,59.88023952,6928a6394052fbe76783ed32,69b92ab4aef6dee357cd729a,69b92b4e6b0bfd8f62719ebd,0.0641,0.0641,1,12,174,129,1,fiveseven,,,,,,,,,,,,,,,,,,,,,,,,,,,,,,,,,,,,,,,,,,,,,,,,,,,,,,,,,,,,,,,,,,,,,,,,,,,,,,,,,,,,,,,,,,,,,,,,,,,,,,,,,,,,,,,,,,,,,,,,,,,,,,,,,,,,,,,,,
,,6928a6394052fbe76783ed32,2026-03-17_11h22.46.049,kallum_motion_pilot_GIST_update_2,2026.1.1,Win32,59.88023952,6928a6394052fbe76783ed32,69b92ab4aef6dee357cd729a,69b92b4e6b0bfd8f62719ebd,0.0643,0.0643,1,13,175,153,1,fiveseven,,,,,,,,,,,,,,,,,,,,,,,,,,,,,,,,,,,,,,,,,,,,,,,,,,,,,,,,,,,,,,,,,,,,,,,,,,,,,,,,,,,,,,,,,,,,,,,,,,,,,,,,,,,,,,,,,,,,,,,,,,,,,,,,,,,,,,,,,
,,6928a6394052fbe76783ed32,2026-03-17_11h22.46.049,kallum_motion_pilot_GIST_update_2,2026.1.1,Win32,59.88023952,6928a6394052fbe76783ed32,69b92ab4aef6dee357cd729a,69b92b4e6b0bfd8f62719ebd,0.0645,0.0645,1,14,176,41,1,onethree,,,,,,,,,,,,,,,,,,,,,,,,,,,,,,,,,,,,,,,,,,,,,,,,,,,,,,,,,,,,,,,,,,,,,,,,,,,,,,,,,,,,,,,,,,,,,,,,,,,,,,,,,,,,,,,,,,,,,,,,,,,,,,,,,,,,,,,,,
,,6928a6394052fbe76783ed32,2026-03-17_11h22.46.049,kallum_motion_pilot_GIST_update_2,2026.1.1,Win32,59.88023952,6928a6394052fbe76783ed32,69b92ab4aef6dee357cd729a,69b92b4e6b0bfd8f62719ebd,0.0646,0.0646,1,15,177,143,1,eightseven,,,,,,,,,,,,,,,,,,,,,,,,,,,,,,,,,,,,,,,,,,,,,,,,,,,,,,,,,,,,,,,,,,,,,,,,,,,,,,,,,,,,,,,,,,,,,,,,,,,,,,,,,,,,,,,,,,,,,,,,,,,,,,,,,,,,,,,,,
,,6928a6394052fbe76783ed32,2026-03-17_11h22.46.049,kallum_motion_pilot_GIST_update_2,2026.1.1,Win32,59.88023952,6928a6394052fbe76783ed32,69b92ab4aef6dee357cd729a,69b92b4e6b0bfd8f62719ebd,0.0647,0.0647,1,16,178,9,1,onethree,,,,,,,,,,,,,,,,,,,,,,,,,,,,,,,,,,,,,,,,,,,,,,,,,,,,,,,,,,,,,,,,,,,,,,,,,,,,,,,,,,,,,,,,,,,,,,,,,,,,,,,,,,,,,,,,,,,,,,,,,,,,,,,,,,,,,,,,,
,,6928a6394052fbe76783ed32,2026-03-17_11h22.46.049,kallum_motion_pilot_GIST_update_2,2026.1.1,Win32,59.88023952,6928a6394052fbe76783ed32,69b92ab4aef6dee357cd729a,69b92b4e6b0bfd8f62719ebd,0.065,0.065,1,17,179,158,1,eightsix,,,,,,,,,,,,,,,,,,,,,,,,,,,,,,,,,,,,,,,,,,,,,,,,,,,,,,,,,,,,,,,,,,,,,,,,,,,,,,,,,,,,,,,,,,,,,,,,,,,,,,,,,,,,,,,,,,,,,,,,,,,,,,,,,,,,,,,,,
,,6928a6394052fbe76783ed32,2026-03-17_11h22.46.049,kallum_motion_pilot_GIST_update_2,2026.1.1,Win32,59.88023952,6928a6394052fbe76783ed32,69b92ab4aef6dee357cd729a,69b92b4e6b0bfd8f62719ebd,0.065,0.065,1,18,180,34,1,twoone,,,,,,,,,,,,,,,,,,,,,,,,,,,,,,,,,,,,,,,,,,,,,,,,,,,,,,,,,,,,,,,,,,,,,,,,,,,,,,,,,,,,,,,,,,,,,,,,,,,,,,,,,,,,,,,,,,,,,,,,,,,,,,,,,,,,,,,,,
,,6928a6394052fbe76783ed32,2026-03-17_11h22.46.049,kallum_motion_pilot_GIST_update_2,2026.1.1,Win32,59.88023952,6928a6394052fbe76783ed32,69b92ab4aef6dee357cd729a,69b92b4e6b0bfd8f62719ebd,0.0652,0.0652,1,19,181,104,1,fivesix,,,,,,,,,,,,,,,,,,,,,,,,,,,,,,,,,,,,,,,,,,,,,,,,,,,,,,,,,,,,,,,,,,,,,,,,,,,,,,,,,,,,,,,,,,,,,,,,,,,,,,,,,,,,,,,,,,,,,,,,,,,,,,,,,,,,,,,,,
,,6928a6394052fbe76783ed32,2026-03-17_11h22.46.049,kallum_motion_pilot_GIST_update_2,2026.1.1,Win32,59.88023952,6928a6394052fbe76783ed32,69b92ab4aef6dee357cd729a,69b92b4e6b0bfd8f62719ebd,0.0654,0.0654,1,20,182,136,1,fivesix,,,,,,,,,,,,,,,,,,,,,,,,,,,,,,,,,,,,,,,,,,,,,,,,,,,,,,,,,,,,,,,,,,,,,,,,,,,,,,,,,,,,,,,,,,,,,,,,,,,,,,,,,,,,,,,,,,,,,,,,,,,,,,,,,,,,,,,,,
,,6928a6394052fbe76783ed32,2026-03-17_11h22.46.049,kallum_motion_pilot_GIST_update_2,2026.1.1,Win32,59.88023952,6928a6394052fbe76783ed32,69b92ab4aef6dee357cd729a,69b92b4e6b0bfd8f62719ebd,0.0655,0.0655,1,21,183,3,1,twofour,,,,,,,,,,,,,,,,,,,,,,,,,,,,,,,,,,,,,,,,,,,,,,,,,,,,,,,,,,,,,,,,,,,,,,,,,,,,,,,,,,,,,,,,,,,,,,,,,,,,,,,,,,,,,,,,,,,,,,,,,,,,,,,,,,,,,,,,,
,,6928a6394052fbe76783ed32,2026-03-17_11h22.46.049,kallum_motion_pilot_GIST_update_2,2026.1.1,Win32,59.88023952,6928a6394052fbe76783ed32,69b92ab4aef6dee357cd729a,69b92b4e6b0bfd8f62719ebd,0.0657,0.0657,1,22,184,27,1,twofour,,,,,,,,,,,,,,,,,,,,,,,,,,,,,,,,,,,,,,,,,,,,,,,,,,,,,,,,,,,,,,,,,,,,,,,,,,,,,,,,,,,,,,,,,,,,,,,,,,,,,,,,,,,,,,,,,,,,,,,,,,,,,,,,,,,,,,,,,
,,6928a6394052fbe76783ed32,2026-03-17_11h22.46.049,kallum_motion_pilot_GIST_update_2,2026.1.1,Win32,59.88023952,6928a6394052fbe76783ed32,69b92ab4aef6dee357cd729a,69b92b4e6b0bfd8f62719ebd,0.0659,0.0659,1,23,185,5,1,threefour,,,,,,,,,,,,,,,,,,,,,,,,,,,,,,,,,,,,,,,,,,,,,,,,,,,,,,,,,,,,,,,,,,,,,,,,,,,,,,,,,,,,,,,,,,,,,,,,,,,,,,,,,,,,,,,,,,,,,,,,,,,,,,,,,,,,,,,,,
,,6928a6394052fbe76783ed32,2026-03-17_11h22.46.049,kallum_motion_pilot_GIST_update_2,2026.1.1,Win32,59.88023952,6928a6394052fbe76783ed32,69b92ab4aef6dee357cd729a,69b92b4e6b0bfd8f62719ebd,0.0661,0.0661,1,24,186,18,1,twoone,,,,,,,,,,,,,,,,,,,,,,,,,,,,,,,,,,,,,,,,,,,,,,,,,,,,,,,,,,,,,,,,,,,,,,,,,,,,,,,,,,,,,,,,,,,,,,,,,,,,,,,,,,,,,,,,,,,,,,,,,,,,,,,,,,,,,,,,,
,,6928a6394052fbe76783ed32,2026-03-17_11h22.46.049,kallum_motion_pilot_GIST_update_2,2026.1.1,Win32,59.88023952,6928a6394052fbe76783ed32,69b92ab4aef6dee357cd729a,69b92b4e6b0bfd8f62719ebd,0.0663,0.0663,1,25,187,59,1,twofour,,,,,,,,,,,,,,,,,,,,,,,,,,,,,,,,,,,,,,,,,,,,,,,,,,,,,,,,,,,,,,,,,,,,,,,,,,,,,,,,,,,,,,,,,,,,,,,,,,,,,,,,,,,,,,,,,,,,,,,,,,,,,,,,,,,,,,,,,
,,6928a6394052fbe76783ed32,2026-03-17_11h22.46.049,kallum_motion_pilot_GIST_update_2,2026.1.1,Win32,59.88023952,6928a6394052fbe76783ed32,69b92ab4aef6dee357cd729a,69b92b4e6b0bfd8f62719ebd,0.0664,0.0664,1,26,188,119,1,eightseven,,,,,,,,,,,,,,,,,,,,,,,,,,,,,,,,,,,,,,,,,,,,,,,,,,,,,,,,,,,,,,,,,,,,,,,,,,,,,,,,,,,,,,,,,,,,,,,,,,,,,,,,,,,,,,,,,,,,,,,,,,,,,,,,,,,,,,,,,
,,6928a6394052fbe76783ed32,2026-03-17_11h22.46.049,kallum_motion_pilot_GIST_update_2,2026.1.1,Win32,59.88023952,6928a6394052fbe76783ed32,69b92ab4aef6dee357cd729a,69b92b4e6b0bfd8f62719ebd,0.0665,0.0665,1,27,189,13,1,threefour,,,,,,,,,,,,,,,,,,,,,,,,,,,,,,,,,,,,,,,,,,,,,,,,,,,,,,,,,,,,,,,,,,,,,,,,,,,,,,,,,,,,,,,,,,,,,,,,,,,,,,,,,,,,,,,,,,,,,,,,,,,,,,,,,,,,,,,,,
,,6928a6394052fbe76783ed32,2026-03-17_11h22.46.049,kallum_motion_pilot_GIST_update_2,2026.1.1,Win32,59.88023952,6928a6394052fbe76783ed32,69b92ab4aef6dee357cd729a,69b92b4e6b0bfd8f62719ebd,0.0668,0.0668,1,28,190,69,1,threefour,,,,,,,,,,,,,,,,,,,,,,,,,,,,,,,,,,,,,,,,,,,,,,,,,,,,,,,,,,,,,,,,,,,,,,,,,,,,,,,,,,,,,,,,,,,,,,,,,,,,,,,,,,,,,,,,,,,,,,,,,,,,,,,,,,,,,,,,,
,,6928a6394052fbe76783ed32,2026-03-17_11h22.46.049,kallum_motion_pilot_GIST_update_2,2026.1.1,Win32,59.88023952,6928a6394052fbe76783ed32,69b92ab4aef6dee357cd729a,69b92b4e6b0bfd8f62719ebd,0.0669,0.0669,1,29,191,33,1,onethree,,,,,,,,,,,,,,,,,,,,,,,,,,,,,,,,,,,,,,,,,,,,,,,,,,,,,,,,,,,,,,,,,,,,,,,,,,,,,,,,,,,,,,,,,,,,,,,,,,,,,,,,,,,,,,,,,,,,,,,,,,,,,,,,,,,,,,,,,
,,6928a6394052fbe76783ed32,2026-03-17_11h22.46.049,kallum_motion_pilot_GIST_update_2,2026.1.1,Win32,59.88023952,6928a6394052fbe76783ed32,69b92ab4aef6dee357cd729a,69b92b4e6b0bfd8f62719ebd,0.067,0.067,1,30,192,157,1,seveneight,,,,,,,,,,,,,,,,,,,,,,,,,,,,,,,,,,,,,,,,,,,,,,,,,,,,,,,,,,,,,,,,,,,,,,,,,,,,,,,,,,,,,,,,,,,,,,,,,,,,,,,,,,,,,,,,,,,,,,,,,,,,,,,,,,,,,,,,,
,,6928a6394052fbe76783ed32,2026-03-17_11h22.46.049,kallum_motion_pilot_GIST_update_2,2026.1.1,Win32,59.88023952,6928a6394052fbe76783ed32,69b92ab4aef6dee357cd729a,69b92b4e6b0bfd8f62719ebd,0.0672,0.0672,1,31,193,115,1,sixeight,,,,,,,,,,,,,,,,,,,,,,,,,,,,,,,,,,,,,,,,,,,,,,,,,,,,,,,,,,,,,,,,,,,,,,,,,,,,,,,,,,,,,,,,,,,,,,,,,,,,,,,,,,,,,,,,,,,,,,,,,,,,,,,,,,,,,,,,,
,,6928a6394052fbe76783ed32,2026-03-17_11h22.46.049,kallum_motion_pilot_GIST_update_2,2026.1.1,Win32,59.88023952,6928a6394052fbe76783ed32,69b92ab4aef6dee357cd729a,69b92b4e6b0bfd8f62719ebd,0.0674,0.0674,1,32,194,108,1,sevenfive,,,,,,,,,,,,,,,,,,,,,,,,,,,,,,,,,,,,,,,,,,,,,,,,,,,,,,,,,,,,,,,,,,,,,,,,,,,,,,,,,,,,,,,,,,,,,,,,,,,,,,,,,,,,,,,,,,,,,,,,,,,,,,,,,,,,,,,,,
,,6928a6394052fbe76783ed32,2026-03-17_11h22.46.049,kallum_motion_pilot_GIST_update_2,2026.1.1,Win32,59.88023952,6928a6394052fbe76783ed32,69b92ab4aef6dee357cd729a,69b92b4e6b0bfd8f62719ebd,0.0675,0.0675,1,33,195,56,1,onetwo,,,,,,,,,,,,,,,,,,,,,,,,,,,,,,,,,,,,,,,,,,,,,,,,,,,,,,,,,,,,,,,,,,,,,,,,,,,,,,,,,,,,,,,,,,,,,,,,,,,,,,,,,,,,,,,,,,,,,,,,,,,,,,,,,,,,,,,,,
,,6928a6394052fbe76783ed32,2026-03-17_11h22.46.049,kallum_motion_pilot_GIST_update_2,2026.1.1,Win32,59.88023952,6928a6394052fbe76783ed32,69b92ab4aef6dee357cd729a,69b92b4e6b0bfd8f62719ebd,0.0677,0.0677,1,34,196,51,1,twofour,,,,,,,,,,,,,,,,,,,,,,,,,,,,,,,,,,,,,,,,,,,,,,,,,,,,,,,,,,,,,,,,,,,,,,,,,,,,,,,,,,,,,,,,,,,,,,,,,,,,,,,,,,,,,,,,,,,,,,,,,,,,,,,,,,,,,,,,,
,,6928a6394052fbe76783ed32,2026-03-17_11h22.46.049,kallum_motion_pilot_GIST_update_2,2026.1.1,Win32,59.88023952,6928a6394052fbe76783ed32,69b92ab4aef6dee357cd729a,69b92b4e6b0bfd8f62719ebd,0.068,0.068,1,35,197,2,1,twoone,,,,,,,,,,,,,,,,,,,,,,,,,,,,,,,,,,,,,,,,,,,,,,,,,,,,,,,,,,,,,,,,,,,,,,,,,,,,,,,,,,,,,,,,,,,,,,,,,,,,,,,,,,,,,,,,,,,,,,,,,,,,,,,,,,,,,,,,,
,,6928a6394052fbe76783ed32,2026-03-17_11h22.46.049,kallum_motion_pilot_GIST_update_2,2026.1.1,Win32,59.88023952,6928a6394052fbe76783ed32,69b92ab4aef6dee357cd729a,69b92b4e6b0bfd8f62719ebd,0.0681,0.0681,1,36,198,145,1,fiveseven,,,,,,,,,,,,,,,,,,,,,,,,,,,,,,,,,,,,,,,,,,,,,,,,,,,,,,,,,,,,,,,,,,,,,,,,,,,,,,,,,,,,,,,,,,,,,,,,,,,,,,,,,,,,,,,,,,,,,,,,,,,,,,,,,,,,,,,,,
,,6928a6394052fbe76783ed32,2026-03-17_11h22.46.049,kallum_motion_pilot_GIST_update_2,2026.1.1,Win32,59.88023952,6928a6394052fbe76783ed32,69b92ab4aef6dee357cd729a,69b92b4e6b0bfd8f62719ebd,0.0683,0.0683,1,37,199,50,1,twoone,,,,,,,,,,,,,,,,,,,,,,,,,,,,,,,,,,,,,,,,,,,,,,,,,,,,,,,,,,,,,,,,,,,,,,,,,,,,,,,,,,,,,,,,,,,,,,,,,,,,,,,,,,,,,,,,,,,,,,,,,,,,,,,,,,,,,,,,,
,,6928a6394052fbe76783ed32,2026-03-17_11h22.46.049,kallum_motion_pilot_GIST_update_2,2026.1.1,Win32,59.88023952,6928a6394052fbe76783ed32,69b92ab4aef6dee357cd729a,69b92b4e6b0bfd8f62719ebd,0.0684,0.0684,1,38,200,44,1,threeone,,,,,,,,,,,,,,,,,,,,,,,,,,,,,,,,,,,,,,,,,,,,,,,,,,,,,,,,,,,,,,,,,,,,,,,,,,,,,,,,,,,,,,,,,,,,,,,,,,,,,,,,,,,,,,,,,,,,,,,,,,,,,,,,,,,,,,,,,
,,6928a6394052fbe76783ed32,2026-03-17_11h22.46.049,kallum_motion_pilot_GIST_update_2,2026.1.1,Win32,59.88023952,6928a6394052fbe76783ed32,69b92ab4aef6dee357cd729a,69b92b4e6b0bfd8f62719ebd,0.0686,0.0686,1,39,201,87,1,eightseven,,,,,,,,,,,,,,,,,,,,,,,,,,,,,,,,,,,,,,,,,,,,,,,,,,,,,,,,,,,,,,,,,,,,,,,,,,,,,,,,,,,,,,,,,,,,,,,,,,,,,,,,,,,,,,,,,,,,,,,,,,,,,,,,,,,,,,,,,
,,6928a6394052fbe76783ed32,2026-03-17_11h22.46.049,kallum_motion_pilot_GIST_update_2,2026.1.1,Win32,59.88023952,6928a6394052fbe76783ed32,69b92ab4aef6dee357cd729a,69b92b4e6b0bfd8f62719ebd,0.0688,0.0688,1,40,202,63,1,fourthree,,,,,,,,,,,,,,,,,,,,,,,,,,,,,,,,,,,,,,,,,,,,,,,,,,,,,,,,,,,,,,,,,,,,,,,,,,,,,,,,,,,,,,,,,,,,,,,,,,,,,,,,,,,,,,,,,,,,,,,,,,,,,,,,,,,,,,,,,
,,6928a6394052fbe76783ed32,2026-03-17_11h22.46.049,kallum_motion_pilot_GIST_update_2,2026.1.1,Win32,59.88023952,6928a6394052fbe76783ed32,69b92ab4aef6dee357cd729a,69b92b4e6b0bfd8f62719ebd,0.0689,0.0689,1,41,203,132,1,sevenfive,,,,,,,,,,,,,,,,,,,,,,,,,,,,,,,,,,,,,,,,,,,,,,,,,,,,,,,,,,,,,,,,,,,,,,,,,,,,,,,,,,,,,,,,,,,,,,,,,,,,,,,,,,,,,,,,,,,,,,,,,,,,,,,,,,,,,,,,,
,,6928a6394052fbe76783ed32,2026-03-17_11h22.46.049,kallum_motion_pilot_GIST_update_2,2026.1.1,Win32,59.88023952,6928a6394052fbe76783ed32,69b92ab4aef6dee357cd729a,69b92b4e6b0bfd8f62719ebd,0.0691,0.0691,1,42,204,122,1,sixfive,,,,,,,,,,,,,,,,,,,,,,,,,,,,,,,,,,,,,,,,,,,,,,,,,,,,,,,,,,,,,,,,,,,,,,,,,,,,,,,,,,,,,,,,,,,,,,,,,,,,,,,,,,,,,,,,,,,,,,,,,,,,,,,,,,,,,,,,,
,,6928a6394052fbe76783ed32,2026-03-17_11h22.46.049,kallum_motion_pilot_GIST_update_2,2026.1.1,Win32,59.88023952,6928a6394052fbe76783ed32,69b92ab4aef6dee357cd729a,69b92b4e6b0bfd8f62719ebd,0.0693,0.0693,1,43,205,16,1,onetwo,,,,,,,,,,,,,,,,,,,,,,,,,,,,,,,,,,,,,,,,,,,,,,,,,,,,,,,,,,,,,,,,,,,,,,,,,,,,,,,,,,,,,,,,,,,,,,,,,,,,,,,,,,,,,,,,,,,,,,,,,,,,,,,,,,,,,,,,,
,,6928a6394052fbe76783ed32,2026-03-17_11h22.46.049,kallum_motion_pilot_GIST_update_2,2026.1.1,Win32,59.88023952,6928a6394052fbe76783ed32,69b92ab4aef6dee357cd729a,69b92b4e6b0bfd8f62719ebd,0.0694,0.0694,1,44,206,127,1,eightseven,,,,,,,,,,,,,,,,,,,,,,,,,,,,,,,,,,,,,,,,,,,,,,,,,,,,,,,,,,,,,,,,,,,,,,,,,,,,,,,,,,,,,,,,,,,,,,,,,,,,,,,,,,,,,,,,,,,,,,,,,,,,,,,,,,,,,,,,,
,,6928a6394052fbe76783ed32,2026-03-17_11h22.46.049,kallum_motion_pilot_GIST_update_2,2026.1.1,Win32,59.88023952,6928a6394052fbe76783ed32,69b92ab4aef6dee357cd729a,69b92b4e6b0bfd8f62719ebd,0.0696,0.0697,1,45,207,114,1,sixfive,,,,,,,,,,,,,,,,,,,,,,,,,,,,,,,,,,,,,,,,,,,,,,,,,,,,,,,,,,,,,,,,,,,,,,,,,,,,,,,,,,,,,,,,,,,,,,,,,,,,,,,,,,,,,,,,,,,,,,,,,,,,,,,,,,,,,,,,,
,,6928a6394052fbe76783ed32,2026-03-17_11h22.46.049,kallum_motion_pilot_GIST_update_2,2026.1.1,Win32,59.88023952,6928a6394052fbe76783ed32,69b92ab4aef6dee357cd729a,69b92b4e6b0bfd8f62719ebd,0.0698,0.0698,1,46,208,4,1,threeone,,,,,,,,,,,,,,,,,,,,,,,,,,,,,,,,,,,,,,,,,,,,,,,,,,,,,,,,,,,,,,,,,,,,,,,,,,,,,,,,,,,,,,,,,,,,,,,,,,,,,,,,,,,,,,,,,,,,,,,,,,,,,,,,,,,,,,,,,
,,6928a6394052fbe76783ed32,2026-03-17_11h22.46.049,kallum_motion_pilot_GIST_update_2,2026.1.1,Win32,59.88023952,6928a6394052fbe76783ed32,69b92ab4aef6dee357cd729a,69b92b4e6b0bfd8f62719ebd,0.0699,0.0699,1,47,209,6,1,fourtwo,,,,,,,,,,,,,,,,,,,,,,,,,,,,,,,,,,,,,,,,,,,,,,,,,,,,,,,,,,,,,,,,,,,,,,,,,,,,,,,,,,,,,,,,,,,,,,,,,,,,,,,,,,,,,,,,,,,,,,,,,,,,,,,,,,,,,,,,,
,,6928a6394052fbe76783ed32,2026-03-17_11h22.46.049,kallum_motion_pilot_GIST_update_2,2026.1.1,Win32,59.88023952,6928a6394052fbe76783ed32,69b92ab4aef6dee357cd729a,69b92b4e6b0bfd8f62719ebd,0.0701,0.0701,1,48,210,26,1,twoone,,,,,,,,,,,,,,,,,,,,,,,,,,,,,,,,,,,,,,,,,,,,,,,,,,,,,,,,,,,,,,,,,,,,,,,,,,,,,,,,,,,,,,,,,,,,,,,,,,,,,,,,,,,,,,,,,,,,,,,,,,,,,,,,,,,,,,,,,
,,6928a6394052fbe76783ed32,2026-03-17_11h22.46.049,kallum_motion_pilot_GIST_update_2,2026.1.1,Win32,59.88023952,6928a6394052fbe76783ed32,69b92ab4aef6dee357cd729a,69b92b4e6b0bfd8f62719ebd,0.0703,0.0703,1,49,211,67,1,twofour,,,,,,,,,,,,,,,,,,,,,,,,,,,,,,,,,,,,,,,,,,,,,,,,,,,,,,,,,,,,,,,,,,,,,,,,,,,,,,,,,,,,,,,,,,,,,,,,,,,,,,,,,,,,,,,,,,,,,,,,,,,,,,,,,,,,,,,,,
,,6928a6394052fbe76783ed32,2026-03-17_11h22.46.049,kallum_motion_pilot_GIST_update_2,2026.1.1,Win32,59.88023952,6928a6394052fbe76783ed32,69b92ab4aef6dee357cd729a,69b92b4e6b0bfd8f62719ebd,0.0704,0.0704,1,50,212,117,1,seveneight,,,,,,,,,,,,,,,,,,,,,,,,,,,,,,,,,,,,,,,,,,,,,,,,,,,,,,,,,,,,,,,,,,,,,,,,,,,,,,,,,,,,,,,,,,,,,,,,,,,,,,,,,,,,,,,,,,,,,,,,,,,,,,,,,,,,,,,,,
,,6928a6394052fbe76783ed32,2026-03-17_11h22.46.049,kallum_motion_pilot_GIST_update_2,2026.1.1,Win32,59.88023952,6928a6394052fbe76783ed32,69b92ab4aef6dee357cd729a,69b92b4e6b0bfd8f62719ebd,0.0706,0.0706,1,51,213,19,1,twofour,,,,,,,,,,,,,,,,,,,,,,,,,,,,,,,,,,,,,,,,,,,,,,,,,,,,,,,,,,,,,,,,,,,,,,,,,,,,,,,,,,,,,,,,,,,,,,,,,,,,,,,,,,,,,,,,,,,,,,,,,,,,,,,,,,,,,,,,,
,,6928a6394052fbe76783ed32,2026-03-17_11h22.46.049,kallum_motion_pilot_GIST_update_2,2026.1.1,Win32,59.88023952,6928a6394052fbe76783ed32,69b92ab4aef6dee357cd729a,69b92b4e6b0bfd8f62719ebd,0.0708,0.0708,1,52,214,32,1,onetwo,,,,,,,,,,,,,,,,,,,,,,,,,,,,,,,,,,,,,,,,,,,,,,,,,,,,,,,,,,,,,,,,,,,,,,,,,,,,,,,,,,,,,,,,,,,,,,,,,,,,,,,,,,,,,,,,,,,,,,,,,,,,,,,,,,,,,,,,,
,,6928a6394052fbe76783ed32,2026-03-17_11h22.46.049,kallum_motion_pilot_GIST_update_2,2026.1.1,Win32,59.88023952,6928a6394052fbe76783ed32,69b92ab4aef6dee357cd729a,69b92b4e6b0bfd8f62719ebd,0.0709,0.0709,1,53,215,14,1,fourtwo,,,,,,,,,,,,,,,,,,,,,,,,,,,,,,,,,,,,,,,,,,,,,,,,,,,,,,,,,,,,,,,,,,,,,,,,,,,,,,,,,,,,,,,,,,,,,,,,,,,,,,,,,,,,,,,,,,,,,,,,,,,,,,,,,,,,,,,,,
,,6928a6394052fbe76783ed32,2026-03-17_11h22.46.049,kallum_motion_pilot_GIST_update_2,2026.1.1,Win32,59.88023952,6928a6394052fbe76783ed32,69b92ab4aef6dee357cd729a,69b92b4e6b0bfd8f62719ebd,0.0711,0.0711,1,54,216,61,1,threefour,,,,,,,,,,,,,,,,,,,,,,,,,,,,,,,,,,,,,,,,,,,,,,,,,,,,,,,,,,,,,,,,,,,,,,,,,,,,,,,,,,,,,,,,,,,,,,,,,,,,,,,,,,,,,,,,,,,,,,,,,,,,,,,,,,,,,,,,,
,,6928a6394052fbe76783ed32,2026-03-17_11h22.46.049,kallum_motion_pilot_GIST_update_2,2026.1.1,Win32,59.88023952,6928a6394052fbe76783ed32,69b92ab4aef6dee357cd729a,69b92b4e6b0bfd8f62719ebd,0.0713,0.0713,1,55,217,48,1,onetwo,,,,,,,,,,,,,,,,,,,,,,,,,,,,,,,,,,,,,,,,,,,,,,,,,,,,,,,,,,,,,,,,,,,,,,,,,,,,,,,,,,,,,,,,,,,,,,,,,,,,,,,,,,,,,,,,,,,,,,,,,,,,,,,,,,,,,,,,,
,,6928a6394052fbe76783ed32,2026-03-17_11h22.46.049,kallum_motion_pilot_GIST_update_2,2026.1.1,Win32,59.88023952,6928a6394052fbe76783ed32,69b92ab4aef6dee357cd729a,69b92b4e6b0bfd8f62719ebd,0.0714,0.0714,1,56,218,97,1,fiveseven,,,,,,,,,,,,,,,,,,,,,,,,,,,,,,,,,,,,,,,,,,,,,,,,,,,,,,,,,,,,,,,,,,,,,,,,,,,,,,,,,,,,,,,,,,,,,,,,,,,,,,,,,,,,,,,,,,,,,,,,,,,,,,,,,,,,,,,,,
,,6928a6394052fbe76783ed32,2026-03-17_11h22.46.049,kallum_motion_pilot_GIST_update_2,2026.1.1,Win32,59.88023952,6928a6394052fbe76783ed32,69b92ab4aef6dee357cd729a,69b92b4e6b0bfd8f62719ebd,0.0716,0.0716,1,57,219,94,1,eightsix,,,,,,,,,,,,,,,,,,,,,,,,,,,,,,,,,,,,,,,,,,,,,,,,,,,,,,,,,,,,,,,,,,,,,,,,,,,,,,,,,,,,,,,,,,,,,,,,,,,,,,,,,,,,,,,,,,,,,,,,,,,,,,,,,,,,,,,,,
,,6928a6394052fbe76783ed32,2026-03-17_11h22.46.049,kallum_motion_pilot_GIST_update_2,2026.1.1,Win32,59.88023952,6928a6394052fbe76783ed32,69b92ab4aef6dee357cd729a,69b92b4e6b0bfd8f62719ebd,0.0717,0.0717,1,58,220,155,1,sixeight,,,,,,,,,,,,,,,,,,,,,,,,,,,,,,,,,,,,,,,,,,,,,,,,,,,,,,,,,,,,,,,,,,,,,,,,,,,,,,,,,,,,,,,,,,,,,,,,,,,,,,,,,,,,,,,,,,,,,,,,,,,,,,,,,,,,,,,,,
,,6928a6394052fbe76783ed32,2026-03-17_11h22.46.049,kallum_motion_pilot_GIST_update_2,2026.1.1,Win32,59.88023952,6928a6394052fbe76783ed32,69b92ab4aef6dee357cd729a,69b92b4e6b0bfd8f62719ebd,0.072,0.072,1,59,221,83,1,sixeight,,,,,,,,,,,,,,,,,,,,,,,,,,,,,,,,,,,,,,,,,,,,,,,,,,,,,,,,,,,,,,,,,,,,,,,,,,,,,,,,,,,,,,,,,,,,,,,,,,,,,,,,,,,,,,,,,,,,,,,,,,,,,,,,,,,,,,,,,
,,6928a6394052fbe76783ed32,2026-03-17_11h22.46.049,kallum_motion_pilot_GIST_update_2,2026.1.1,Win32,59.88023952,6928a6394052fbe76783ed32,69b92ab4aef6dee357cd729a,69b92b4e6b0bfd8f62719ebd,0.0721,0.0721,1,60,222,134,1,eightsix,,,,,,,,,,,,,,,,,,,,,,,,,,,,,,,,,,,,,,,,,,,,,,,,,,,,,,,,,,,,,,,,,,,,,,,,,,,,,,,,,,,,,,,,,,,,,,,,,,,,,,,,,,,,,,,,,,,,,,,,,,,,,,,,,,,,,,,,,
,,6928a6394052fbe76783ed32,2026-03-17_11h22.46.049,kallum_motion_pilot_GIST_update_2,2026.1.1,Win32,59.88023952,6928a6394052fbe76783ed32,69b92ab4aef6dee357cd729a,69b92b4e6b0bfd8f62719ebd,0.0722,0.0723,1,61,223,91,1,sixeight,,,,,,,,,,,,,,,,,,,,,,,,,,,,,,,,,,,,,,,,,,,,,,,,,,,,,,,,,,,,,,,,,,,,,,,,,,,,,,,,,,,,,,,,,,,,,,,,,,,,,,,,,,,,,,,,,,,,,,,,,,,,,,,,,,,,,,,,,
,,6928a6394052fbe76783ed32,2026-03-17_11h22.46.049,kallum_motion_pilot_GIST_update_2,2026.1.1,Win32,59.88023952,6928a6394052fbe76783ed32,69b92ab4aef6dee357cd729a,69b92b4e6b0bfd8f62719ebd,0.0724,0.0725,1,62,224,141,1,seveneight,,,,,,,,,,,,,,,,,,,,,,,,,,,,,,,,,,,,,,,,,,,,,,,,,,,,,,,,,,,,,,,,,,,,,,,,,,,,,,,,,,,,,,,,,,,,,,,,,,,,,,,,,,,,,,,,,,,,,,,,,,,,,,,,,,,,,,,,,
,,6928a6394052fbe76783ed32,2026-03-17_11h22.46.049,kallum_motion_pilot_GIST_update_2,2026.1.1,Win32,59.88023952,6928a6394052fbe76783ed32,69b92ab4aef6dee357cd729a,69b92b4e6b0bfd8f62719ebd,0.0726,0.0726,1,63,225,22,1,fourtwo,,,,,,,,,,,,,,,,,,,,,,,,,,,,,,,,,,,,,,,,,,,,,,,,,,,,,,,,,,,,,,,,,,,,,,,,,,,,,,,,,,,,,,,,,,,,,,,,,,,,,,,,,,,,,,,,,,,,,,,,,,,,,,,,,,,,,,,,,
,,6928a6394052fbe76783ed32,2026-03-17_11h22.46.049,kallum_motion_pilot_GIST_update_2,2026.1.1,Win32,59.88023952,6928a6394052fbe76783ed32,69b92ab4aef6dee357cd729a,69b92b4e6b0bfd8f62719ebd,0.0728,0.0728,1,64,226,110,1,eightsix,,,,,,,,,,,,,,,,,,,,,,,,,,,,,,,,,,,,,,,,,,,,,,,,,,,,,,,,,,,,,,,,,,,,,,,,,,,,,,,,,,,,,,,,,,,,,,,,,,,,,,,,,,,,,,,,,,,,,,,,,,,,,,,,,,,,,,,,,
,,6928a6394052fbe76783ed32,2026-03-17_11h22.46.049,kallum_motion_pilot_GIST_update_2,2026.1.1,Win32,59.88023952,6928a6394052fbe76783ed32,69b92ab4aef6dee357cd729a,69b92b4e6b0bfd8f62719ebd,0.0729,0.073,1,65,227,70,1,fourtwo,,,,,,,,,,,,,,,,,,,,,,,,,,,,,,,,,,,,,,,,,,,,,,,,,,,,,,,,,,,,,,,,,,,,,,,,,,,,,,,,,,,,,,,,,,,,,,,,,,,,,,,,,,,,,,,,,,,,,,,,,,,,,,,,,,,,,,,,,
,,6928a6394052fbe76783ed32,2026-03-17_11h22.46.049,kallum_motion_pilot_GIST_update_2,2026.1.1,Win32,59.88023952,6928a6394052fbe76783ed32,69b92ab4aef6dee357cd729a,69b92b4e6b0bfd8f62719ebd,0.0731,0.0731,1,66,228,138,1,sixfive,,,,,,,,,,,,,,,,,,,,,,,,,,,,,,,,,,,,,,,,,,,,,,,,,,,,,,,,,,,,,,,,,,,,,,,,,,,,,,,,,,,,,,,,,,,,,,,,,,,,,,,,,,,,,,,,,,,,,,,,,,,,,,,,,,,,,,,,,
,,6928a6394052fbe76783ed32,2026-03-17_11h22.46.049,kallum_motion_pilot_GIST_update_2,2026.1.1,Win32,59.88023952,6928a6394052fbe76783ed32,69b92ab4aef6dee357cd729a,69b92b4e6b0bfd8f62719ebd,0.0733,0.0733,1,67,229,10,1,twoone,,,,,,,,,,,,,,,,,,,,,,,,,,,,,,,,,,,,,,,,,,,,,,,,,,,,,,,,,,,,,,,,,,,,,,,,,,,,,,,,,,,,,,,,,,,,,,,,,,,,,,,,,,,,,,,,,,,,,,,,,,,,,,,,,,,,,,,,,
,,6928a6394052fbe76783ed32,2026-03-17_11h22.46.049,kallum_motion_pilot_GIST_update_2,2026.1.1,Win32,59.88023952,6928a6394052fbe76783ed32,69b92ab4aef6dee357cd729a,69b92b4e6b0bfd8f62719ebd,0.0735,0.0735,1,68,230,105,1,fiveseven,,,,,,,,,,,,,,,,,,,,,,,,,,,,,,,,,,,,,,,,,,,,,,,,,,,,,,,,,,,,,,,,,,,,,,,,,,,,,,,,,,,,,,,,,,,,,,,,,,,,,,,,,,,,,,,,,,,,,,,,,,,,,,,,,,,,,,,,,
,,6928a6394052fbe76783ed32,2026-03-17_11h22.46.049,kallum_motion_pilot_GIST_update_2,2026.1.1,Win32,59.88023952,6928a6394052fbe76783ed32,69b92ab4aef6dee357cd729a,69b92b4e6b0bfd8f62719ebd,0.0736,0.0737,1,69,231,45,1,threefour,,,,,,,,,,,,,,,,,,,,,,,,,,,,,,,,,,,,,,,,,,,,,,,,,,,,,,,,,,,,,,,,,,,,,,,,,,,,,,,,,,,,,,,,,,,,,,,,,,,,,,,,,,,,,,,,,,,,,,,,,,,,,,,,,,,,,,,,,
,,6928a6394052fbe76783ed32,2026-03-17_11h22.46.049,kallum_motion_pilot_GIST_update_2,2026.1.1,Win32,59.88023952,6928a6394052fbe76783ed32,69b92ab4aef6dee357cd729a,69b92b4e6b0bfd8f62719ebd,0.0738,0.0738,1,70,232,124,1,sevenfive,,,,,,,,,,,,,,,,,,,,,,,,,,,,,,,,,,,,,,,,,,,,,,,,,,,,,,,,,,,,,,,,,,,,,,,,,,,,,,,,,,,,,,,,,,,,,,,,,,,,,,,,,,,,,,,,,,,,,,,,,,,,,,,,,,,,,,,,,
,,6928a6394052fbe76783ed32,2026-03-17_11h22.46.049,kallum_motion_pilot_GIST_update_2,2026.1.1,Win32,59.88023952,6928a6394052fbe76783ed32,69b92ab4aef6dee357cd729a,69b92b4e6b0bfd8f62719ebd,0.074,0.074,1,71,233,90,1,sixfive,,,,,,,,,,,,,,,,,,,,,,,,,,,,,,,,,,,,,,,,,,,,,,,,,,,,,,,,,,,,,,,,,,,,,,,,,,,,,,,,,,,,,,,,,,,,,,,,,,,,,,,,,,,,,,,,,,,,,,,,,,,,,,,,,,,,,,,,,
,,6928a6394052fbe76783ed32,2026-03-17_11h22.46.049,kallum_motion_pilot_GIST_update_2,2026.1.1,Win32,59.88023952,6928a6394052fbe76783ed32,69b92ab4aef6dee357cd729a,69b92b4e6b0bfd8f62719ebd,0.0742,0.0742,1,72,234,101,1,seveneight,,,,,,,,,,,,,,,,,,,,,,,,,,,,,,,,,,,,,,,,,,,,,,,,,,,,,,,,,,,,,,,,,,,,,,,,,,,,,,,,,,,,,,,,,,,,,,,,,,,,,,,,,,,,,,,,,,,,,,,,,,,,,,,,,,,,,,,,,
,,6928a6394052fbe76783ed32,2026-03-17_11h22.46.049,kallum_motion_pilot_GIST_update_2,2026.1.1,Win32,59.88023952,6928a6394052fbe76783ed32,69b92ab4aef6dee357cd729a,69b92b4e6b0bfd8f62719ebd,0.0743,0.0743,1,73,235,118,1,eightsix,,,,,,,,,,,,,,,,,,,,,,,,,,,,,,,,,,,,,,,,,,,,,,,,,,,,,,,,,,,,,,,,,,,,,,,,,,,,,,,,,,,,,,,,,,,,,,,,,,,,,,,,,,,,,,,,,,,,,,,,,,,,,,,,,,,,,,,,,
,,6928a6394052fbe76783ed32,2026-03-17_11h22.46.049,kallum_motion_pilot_GIST_update_2,2026.1.1,Win32,59.88023952,6928a6394052fbe76783ed32,69b92ab4aef6dee357cd729a,69b92b4e6b0bfd8f62719ebd,0.0745,0.0745,1,74,236,148,1,sevenfive,,,,,,,,,,,,,,,,,,,,,,,,,,,,,,,,,,,,,,,,,,,,,,,,,,,,,,,,,,,,,,,,,,,,,,,,,,,,,,,,,,,,,,,,,,,,,,,,,,,,,,,,,,,,,,,,,,,,,,,,,,,,,,,,,,,,,,,,,
,,6928a6394052fbe76783ed32,2026-03-17_11h22.46.049,kallum_motion_pilot_GIST_update_2,2026.1.1,Win32,59.88023952,6928a6394052fbe76783ed32,69b92ab4aef6dee357cd729a,69b92b4e6b0bfd8f62719ebd,0.0746,0.0746,1,75,237,79,1,eightseven,,,,,,,,,,,,,,,,,,,,,,,,,,,,,,,,,,,,,,,,,,,,,,,,,,,,,,,,,,,,,,,,,,,,,,,,,,,,,,,,,,,,,,,,,,,,,,,,,,,,,,,,,,,,,,,,,,,,,,,,,,,,,,,,,,,,,,,,,
,,6928a6394052fbe76783ed32,2026-03-17_11h22.46.049,kallum_motion_pilot_GIST_update_2,2026.1.1,Win32,59.88023952,6928a6394052fbe76783ed32,69b92ab4aef6dee357cd729a,69b92b4e6b0bfd8f62719ebd,0.0748,0.0748,1,76,238,109,1,seveneight,,,,,,,,,,,,,,,,,,,,,,,,,,,,,,,,,,,,,,,,,,,,,,,,,,,,,,,,,,,,,,,,,,,,,,,,,,,,,,,,,,,,,,,,,,,,,,,,,,,,,,,,,,,,,,,,,,,,,,,,,,,,,,,,,,,,,,,,,
,,6928a6394052fbe76783ed32,2026-03-17_11h22.46.049,kallum_motion_pilot_GIST_update_2,2026.1.1,Win32,59.88023952,6928a6394052fbe76783ed32,69b92ab4aef6dee357cd729a,69b92b4e6b0bfd8f62719ebd,0.075,0.075,1,77,239,0,1,onetwo,,,,,,,,,,,,,,,,,,,,,,,,,,,,,,,,,,,,,,,,,,,,,,,,,,,,,,,,,,,,,,,,,,,,,,,,,,,,,,,,,,,,,,,,,,,,,,,,,,,,,,,,,,,,,,,,,,,,,,,,,,,,,,,,,,,,,,,,,
,,6928a6394052fbe76783ed32,2026-03-17_11h22.46.049,kallum_motion_pilot_GIST_update_2,2026.1.1,Win32,59.88023952,6928a6394052fbe76783ed32,69b92ab4aef6dee357cd729a,69b92b4e6b0bfd8f62719ebd,0.0752,0.0752,1,78,240,12,1,threeone,,,,,,,,,,,,,,,,,,,,,,,,,,,,,,,,,,,,,,,,,,,,,,,,,,,,,,,,,,,,,,,,,,,,,,,,,,,,,,,,,,,,,,,,,,,,,,,,,,,,,,,,,,,,,,,,,,,,,,,,,,,,,,,,,,,,,,,,,
,,6928a6394052fbe76783ed32,2026-03-17_11h22.46.049,kallum_motion_pilot_GIST_update_2,2026.1.1,Win32,59.88023952,6928a6394052fbe76783ed32,69b92ab4aef6dee357cd729a,69b92b4e6b0bfd8f62719ebd,0.0753,0.0753,1,79,241,128,1,fivesix,,,,,,,,,,,,,,,,,,,,,,,,,,,,,,,,,,,,,,,,,,,,,,,,,,,,,,,,,,,,,,,,,,,,,,,,,,,,,,,,,,,,,,,,,,,,,,,,,,,,,,,,,,,,,,,,,,,,,,,,,,,,,,,,,,,,,,,,,
,,6928a6394052fbe76783ed32,2026-03-17_11h22.46.049,kallum_motion_pilot_GIST_update_2,2026.1.1,Win32,59.88023952,6928a6394052fbe76783ed32,69b92ab4aef6dee357cd729a,69b92b4e6b0bfd8f62719ebd,0.0755,0.0755,1,80,242,99,1,sixeight,,,,,,,,,,,,,,,,,,,,,,,,,,,,,,,,,,,,,,,,,,,,,,,,,,,,,,,,,,,,,,,,,,,,,,,,,,,,,,,,,,,,,,,,,,,,,,,,,,,,,,,,,,,,,,,,,,,,,,,,,,,,,,,,,,,,,,,,,
,,6928a6394052fbe76783ed32,2026-03-17_11h22.46.049,kallum_motion_pilot_GIST_update_2,2026.1.1,Win32,59.88023952,6928a6394052fbe76783ed32,69b92ab4aef6dee357cd729a,69b92b4e6b0bfd8f62719ebd,0.0757,0.0757,1,81,243,24,1,onetwo,,,,,,,,,,,,,,,,,,,,,,,,,,,,,,,,,,,,,,,,,,,,,,,,,,,,,,,,,,,,,,,,,,,,,,,,,,,,,,,,,,,,,,,,,,,,,,,,,,,,,,,,,,,,,,,,,,,,,,,,,,,,,,,,,,,,,,,,,
,,6928a6394052fbe76783ed32,2026-03-17_11h22.46.049,kallum_motion_pilot_GIST_update_2,2026.1.1,Win32,59.88023952,6928a6394052fbe76783ed32,69b92ab4aef6dee357cd729a,69b92b4e6b0bfd8f62719ebd,0.0759,0.0759,1,82,244,47,1,fourthree,,,,,,,,,,,,,,,,,,,,,,,,,,,,,,,,,,,,,,,,,,,,,,,,,,,,,,,,,,,,,,,,,,,,,,,,,,,,,,,,,,,,,,,,,,,,,,,,,,,,,,,,,,,,,,,,,,,,,,,,,,,,,,,,,,,,,,,,,
,,6928a6394052fbe76783ed32,2026-03-17_11h22.46.049,kallum_motion_pilot_GIST_update_2,2026.1.1,Win32,59.88023952,6928a6394052fbe76783ed32,69b92ab4aef6dee357cd729a,69b92b4e6b0bfd8f62719ebd,0.0761,0.0761,1,83,245,37,1,threefour,,,,,,,,,,,,,,,,,,,,,,,,,,,,,,,,,,,,,,,,,,,,,,,,,,,,,,,,,,,,,,,,,,,,,,,,,,,,,,,,,,,,,,,,,,,,,,,,,,,,,,,,,,,,,,,,,,,,,,,,,,,,,,,,,,,,,,,,,
,,6928a6394052fbe76783ed32,2026-03-17_11h22.46.049,kallum_motion_pilot_GIST_update_2,2026.1.1,Win32,59.88023952,6928a6394052fbe76783ed32,69b92ab4aef6dee357cd729a,69b92b4e6b0bfd8f62719ebd,0.0762,0.0763,1,84,246,68,1,threeone,,,,,,,,,,,,,,,,,,,,,,,,,,,,,,,,,,,,,,,,,,,,,,,,,,,,,,,,,,,,,,,,,,,,,,,,,,,,,,,,,,,,,,,,,,,,,,,,,,,,,,,,,,,,,,,,,,,,,,,,,,,,,,,,,,,,,,,,,
,,6928a6394052fbe76783ed32,2026-03-17_11h22.46.049,kallum_motion_pilot_GIST_update_2,2026.1.1,Win32,59.88023952,6928a6394052fbe76783ed32,69b92ab4aef6dee357cd729a,69b92b4e6b0bfd8f62719ebd,0.0764,0.0764,1,85,247,64,1,onetwo,,,,,,,,,,,,,,,,,,,,,,,,,,,,,,,,,,,,,,,,,,,,,,,,,,,,,,,,,,,,,,,,,,,,,,,,,,,,,,,,,,,,,,,,,,,,,,,,,,,,,,,,,,,,,,,,,,,,,,,,,,,,,,,,,,,,,,,,,
,,6928a6394052fbe76783ed32,2026-03-17_11h22.46.049,kallum_motion_pilot_GIST_update_2,2026.1.1,Win32,59.88023952,6928a6394052fbe76783ed32,69b92ab4aef6dee357cd729a,69b92b4e6b0bfd8f62719ebd,0.0766,0.0766,1,86,248,121,1,fiveseven,,,,,,,,,,,,,,,,,,,,,,,,,,,,,,,,,,,,,,,,,,,,,,,,,,,,,,,,,,,,,,,,,,,,,,,,,,,,,,,,,,,,,,,,,,,,,,,,,,,,,,,,,,,,,,,,,,,,,,,,,,,,,,,,,,,,,,,,,
,,6928a6394052fbe76783ed32,2026-03-17_11h22.46.049,kallum_motion_pilot_GIST_update_2,2026.1.1,Win32,59.88023952,6928a6394052fbe76783ed32,69b92ab4aef6dee357cd729a,69b92b4e6b0bfd8f62719ebd,0.0768,0.0768,1,87,249,58,1,twoone,,,,,,,,,,,,,,,,,,,,,,,,,,,,,,,,,,,,,,,,,,,,,,,,,,,,,,,,,,,,,,,,,,,,,,,,,,,,,,,,,,,,,,,,,,,,,,,,,,,,,,,,,,,,,,,,,,,,,,,,,,,,,,,,,,,,,,,,,
,,6928a6394052fbe76783ed32,2026-03-17_11h22.46.049,kallum_motion_pilot_GIST_update_2,2026.1.1,Win32,59.88023952,6928a6394052fbe76783ed32,69b92ab4aef6dee357cd729a,69b92b4e6b0bfd8f62719ebd,0.077,0.077,1,88,250,123,1,sixeight,,,,,,,,,,,,,,,,,,,,,,,,,,,,,,,,,,,,,,,,,,,,,,,,,,,,,,,,,,,,,,,,,,,,,,,,,,,,,,,,,,,,,,,,,,,,,,,,,,,,,,,,,,,,,,,,,,,,,,,,,,,,,,,,,,,,,,,,,
,,6928a6394052fbe76783ed32,2026-03-17_11h22.46.049,kallum_motion_pilot_GIST_update_2,2026.1.1,Win32,59.88023952,6928a6394052fbe76783ed32,69b92ab4aef6dee357cd729a,69b92b4e6b0bfd8f62719ebd,0.0771,0.0771,1,89,251,80,1,fivesix,,,,,,,,,,,,,,,,,,,,,,,,,,,,,,,,,,,,,,,,,,,,,,,,,,,,,,,,,,,,,,,,,,,,,,,,,,,,,,,,,,,,,,,,,,,,,,,,,,,,,,,,,,,,,,,,,,,,,,,,,,,,,,,,,,,,,,,,,
,,6928a6394052fbe76783ed32,2026-03-17_11h22.46.049,kallum_motion_pilot_GIST_update_2,2026.1.1,Win32,59.88023952,6928a6394052fbe76783ed32,69b92ab4aef6dee357cd729a,69b92b4e6b0bfd8f62719ebd,0.0772,0.0772,1,90,252,66,1,twoone,,,,,,,,,,,,,,,,,,,,,,,,,,,,,,,,,,,,,,,,,,,,,,,,,,,,,,,,,,,,,,,,,,,,,,,,,,,,,,,,,,,,,,,,,,,,,,,,,,,,,,,,,,,,,,,,,,,,,,,,,,,,,,,,,,,,,,,,,
,,6928a6394052fbe76783ed32,2026-03-17_11h22.46.049,kallum_motion_pilot_GIST_update_2,2026.1.1,Win32,59.88023952,6928a6394052fbe76783ed32,69b92ab4aef6dee357cd729a,69b92b4e6b0bfd8f62719ebd,0.0775,0.0775,1,91,253,149,1,seveneight,,,,,,,,,,,,,,,,,,,,,,,,,,,,,,,,,,,,,,,,,,,,,,,,,,,,,,,,,,,,,,,,,,,,,,,,,,,,,,,,,,,,,,,,,,,,,,,,,,,,,,,,,,,,,,,,,,,,,,,,,,,,,,,,,,,,,,,,,
,,6928a6394052fbe76783ed32,2026-03-17_11h22.46.049,kallum_motion_pilot_GIST_update_2,2026.1.1,Win32,59.88023952,6928a6394052fbe76783ed32,69b92ab4aef6dee357cd729a,69b92b4e6b0bfd8f62719ebd,0.0776,0.0776,1,92,254,152,1,fivesix,,,,,,,,,,,,,,,,,,,,,,,,,,,,,,,,,,,,,,,,,,,,,,,,,,,,,,,,,,,,,,,,,,,,,,,,,,,,,,,,,,,,,,,,,,,,,,,,,,,,,,,,,,,,,,,,,,,,,,,,,,,,,,,,,,,,,,,,,
,,6928a6394052fbe76783ed32,2026-03-17_11h22.46.049,kallum_motion_pilot_GIST_update_2,2026.1.1,Win32,59.88023952,6928a6394052fbe76783ed32,69b92ab4aef6dee357cd729a,69b92b4e6b0bfd8f62719ebd,0.0779,0.0779,1,93,255,111,1,eightseven,,,,,,,,,,,,,,,,,,,,,,,,,,,,,,,,,,,,,,,,,,,,,,,,,,,,,,,,,,,,,,,,,,,,,,,,,,,,,,,,,,,,,,,,,,,,,,,,,,,,,,,,,,,,,,,,,,,,,,,,,,,,,,,,,,,,,,,,,
,,6928a6394052fbe76783ed32,2026-03-17_11h22.46.049,kallum_motion_pilot_GIST_update_2,2026.1.1,Win32,59.88023952,6928a6394052fbe76783ed32,69b92ab4aef6dee357cd729a,69b92b4e6b0bfd8f62719ebd,0.078,0.078,1,94,256,20,1,threeone,,,,,,,,,,,,,,,,,,,,,,,,,,,,,,,,,,,,,,,,,,,,,,,,,,,,,,,,,,,,,,,,,,,,,,,,,,,,,,,,,,,,,,,,,,,,,,,,,,,,,,,,,,,,,,,,,,,,,,,,,,,,,,,,,,,,,,,,,
,,6928a6394052fbe76783ed32,2026-03-17_11h22.46.049,kallum_motion_pilot_GIST_update_2,2026.1.1,Win32,59.88023952,6928a6394052fbe76783ed32,69b92ab4aef6dee357cd729a,69b92b4e6b0bfd8f62719ebd,0.0782,0.0782,1,95,257,116,1,sevenfive,,,,,,,,,,,,,,,,,,,,,,,,,,,,,,,,,,,,,,,,,,,,,,,,,,,,,,,,,,,,,,,,,,,,,,,,,,,,,,,,,,,,,,,,,,,,,,,,,,,,,,,,,,,,,,,,,,,,,,,,,,,,,,,,,,,,,,,,,
,,6928a6394052fbe76783ed32,2026-03-17_11h22.46.049,kallum_motion_pilot_GIST_update_2,2026.1.1,Win32,59.88023952,6928a6394052fbe76783ed32,69b92ab4aef6dee357cd729a,69b92b4e6b0bfd8f62719ebd,0.0784,0.0784,1,96,258,113,1,fiveseven,,,,,,,,,,,,,,,,,,,,,,,,,,,,,,,,,,,,,,,,,,,,,,,,,,,,,,,,,,,,,,,,,,,,,,,,,,,,,,,,,,,,,,,,,,,,,,,,,,,,,,,,,,,,,,,,,,,,,,,,,,,,,,,,,,,,,,,,,
,,6928a6394052fbe76783ed32,2026-03-17_11h22.46.049,kallum_motion_pilot_GIST_update_2,2026.1.1,Win32,59.88023952,6928a6394052fbe76783ed32,69b92ab4aef6dee357cd729a,69b92b4e6b0bfd8f62719ebd,0.0786,0.0786,1,97,259,77,1,threefour,,,,,,,,,,,,,,,,,,,,,,,,,,,,,,,,,,,,,,,,,,,,,,,,,,,,,,,,,,,,,,,,,,,,,,,,,,,,,,,,,,,,,,,,,,,,,,,,,,,,,,,,,,,,,,,,,,,,,,,,,,,,,,,,,,,,,,,,,
,,6928a6394052fbe76783ed32,2026-03-17_11h22.46.049,kallum_motion_pilot_GIST_update_2,2026.1.1,Win32,59.88023952,6928a6394052fbe76783ed32,69b92ab4aef6dee357cd729a,69b92b4e6b0bfd8f62719ebd,0.0787,0.0787,1,98,260,38,1,fourtwo,,,,,,,,,,,,,,,,,,,,,,,,,,,,,,,,,,,,,,,,,,,,,,,,,,,,,,,,,,,,,,,,,,,,,,,,,,,,,,,,,,,,,,,,,,,,,,,,,,,,,,,,,,,,,,,,,,,,,,,,,,,,,,,,,,,,,,,,,
,,6928a6394052fbe76783ed32,2026-03-17_11h22.46.049,kallum_motion_pilot_GIST_update_2,2026.1.1,Win32,59.88023952,6928a6394052fbe76783ed32,69b92ab4aef6dee357cd729a,69b92b4e6b0bfd8f62719ebd,0.0789,0.0789,1,99,261,42,1,twoone,,,,,,,,,,,,,,,,,,,,,,,,,,,,,,,,,,,,,,,,,,,,,,,,,,,,,,,,,,,,,,,,,,,,,,,,,,,,,,,,,,,,,,,,,,,,,,,,,,,,,,,,,,,,,,,,,,,,,,,,,,,,,,,,,,,,,,,,,
,,6928a6394052fbe76783ed32,2026-03-17_11h22.46.049,kallum_motion_pilot_GIST_update_2,2026.1.1,Win32,59.88023952,6928a6394052fbe76783ed32,69b92ab4aef6dee357cd729a,69b92b4e6b0bfd8f62719ebd,0.0791,0.0791,1,100,262,135,1,eightseven,,,,,,,,,,,,,,,,,,,,,,,,,,,,,,,,,,,,,,,,,,,,,,,,,,,,,,,,,,,,,,,,,,,,,,,,,,,,,,,,,,,,,,,,,,,,,,,,,,,,,,,,,,,,,,,,,,,,,,,,,,,,,,,,,,,,,,,,,
,,6928a6394052fbe76783ed32,2026-03-17_11h22.46.049,kallum_motion_pilot_GIST_update_2,2026.1.1,Win32,59.88023952,6928a6394052fbe76783ed32,69b92ab4aef6dee357cd729a,69b92b4e6b0bfd8f62719ebd,0.0793,0.0793,1,101,263,147,1,sixeight,,,,,,,,,,,,,,,,,,,,,,,,,,,,,,,,,,,,,,,,,,,,,,,,,,,,,,,,,,,,,,,,,,,,,,,,,,,,,,,,,,,,,,,,,,,,,,,,,,,,,,,,,,,,,,,,,,,,,,,,,,,,,,,,,,,,,,,,,
,,6928a6394052fbe76783ed32,2026-03-17_11h22.46.049,kallum_motion_pilot_GIST_update_2,2026.1.1,Win32,59.88023952,6928a6394052fbe76783ed32,69b92ab4aef6dee357cd729a,69b92b4e6b0bfd8f62719ebd,0.0795,0.0795,1,102,264,89,1,fiveseven,,,,,,,,,,,,,,,,,,,,,,,,,,,,,,,,,,,,,,,,,,,,,,,,,,,,,,,,,,,,,,,,,,,,,,,,,,,,,,,,,,,,,,,,,,,,,,,,,,,,,,,,,,,,,,,,,,,,,,,,,,,,,,,,,,,,,,,,,
,,6928a6394052fbe76783ed32,2026-03-17_11h22.46.049,kallum_motion_pilot_GIST_update_2,2026.1.1,Win32,59.88023952,6928a6394052fbe76783ed32,69b92ab4aef6dee357cd729a,69b92b4e6b0bfd8f62719ebd,0.0797,0.0797,1,103,265,72,1,onetwo,,,,,,,,,,,,,,,,,,,,,,,,,,,,,,,,,,,,,,,,,,,,,,,,,,,,,,,,,,,,,,,,,,,,,,,,,,,,,,,,,,,,,,,,,,,,,,,,,,,,,,,,,,,,,,,,,,,,,,,,,,,,,,,,,,,,,,,,,
,,6928a6394052fbe76783ed32,2026-03-17_11h22.46.049,kallum_motion_pilot_GIST_update_2,2026.1.1,Win32,59.88023952,6928a6394052fbe76783ed32,69b92ab4aef6dee357cd729a,69b92b4e6b0bfd8f62719ebd,0.0799,0.0799,1,104,266,84,1,sevenfive,,,,,,,,,,,,,,,,,,,,,,,,,,,,,,,,,,,,,,,,,,,,,,,,,,,,,,,,,,,,,,,,,,,,,,,,,,,,,,,,,,,,,,,,,,,,,,,,,,,,,,,,,,,,,,,,,,,,,,,,,,,,,,,,,,,,,,,,,
