startup.started,startup.stopped,Prolific ID*,date,expName,psychopyVersion,OS,frameRate,participant,study_id,session,stimpositions.started,stimpositions.stopped,hardcoded_stimulus_positions.thisRepN,hardcoded_stimulus_positions.thisTrialN,hardcoded_stimulus_positions.thisN,hardcoded_stimulus_positions.thisIndex,hardcoded_stimulus_positions.ran,StimulusPos,stimorientation.started,stimorientation.stopped,prac_stimorientation_import_loop.thisRepN,prac_stimorientation_import_loop.thisTrialN,prac_stimorientation_import_loop.thisN,prac_stimorientation_import_loop.thisIndex,prac_stimorientation_import_loop.ran,Stimorientation,welcome_instr.started,welcome_instr.stopped,key_resp.keys,key_resp.rt,key_resp.duration,response_steppedout_1.started,response_steppedout_1.stopped,key_resp_20.keys,key_resp_20.rt,key_resp_20.duration,response_steppedout_2.started,response_steppedout_2.stopped,key_resp_19.keys,key_resp_19.rt,key_resp_19.duration,stim_response_instr.started,stim_response_instr.stopped,key_resp_15.keys,key_resp_15.rt,key_resp_15.duration,direction_instr_2.started,direction_instr_2.stopped,key_resp_9.keys,key_resp_9.rt,key_resp_9.duration,instr_prac.started,instr_prac.stopped,key_resp_10.keys,key_resp_10.rt,key_resp_10.duration,Stim1_display_prac.started,Stim1_display_prac.stopped,Ecc,Circle1_ori,Circle2_ori,response_prac.started,similarity,response_time,response_prac.stopped,mouse_5.x,mouse_5.y,mouse_5.leftButton,mouse_5.midButton,mouse_5.rightButton,mouse_5.clicked_name,responseprac_feedback.started,responseprac_feedback.stopped,summary2_prac.started,summary2_prac.stopped,mouse_6.x,mouse_6.y,mouse_6.leftButton,mouse_6.midButton,mouse_6.rightButton,mouse_6.clicked_name,duringprac.thisRepN,duringprac.thisTrialN,duringprac.thisN,duringprac.thisIndex,duringprac.ran,begin.started,begin.stopped,key_resp_22.keys,key_resp_22.rt,key_resp_22.duration,Stim1_display.started,Stim1_display.stopped,circle1_ori,circle2_ori,circle1_SF,circle2_SF,response.started,response.stopped,mouse.x,mouse.y,mouse.leftButton,mouse.midButton,mouse.rightButton,mouse.clicked_name,trialnumber,double_pass.thisRepN,double_pass.thisTrialN,double_pass.thisN,double_pass.thisIndex,double_pass.ran,double_pass.order,main_trial.thisRepN,main_trial.thisTrialN,main_trial.thisN,main_trial.thisIndex,main_trial.ran,main_trial.order,Trial_Counter,Catch,Frequencies,response_2.started,response_2.stopped,mouse_2.x,mouse_2.y,mouse_2.leftButton,mouse_2.midButton,mouse_2.rightButton,mouse_2.clicked_name,special_trial.started,special_trial.stopped,catch_1.started,catch_1.stopped,mouse_3.x,mouse_3.y,mouse_3.leftButton,mouse_3.midButton,mouse_3.rightButton,catchresponse,catchnumber,response_time_catch,response_sum.started,response_sum.stopped,mouse_11.x,mouse_11.y,mouse_11.leftButton,mouse_11.midButton,mouse_11.rightButton,flip_presentation_sequence_for_double_pass.started,flip_presentation_sequence_for_double_pass.stopped,goodbye.started,goodbye.stopped,key_resp_3.keys,key_resp_3.rt,key_resp_3.duration
0.0001,0.0003,693288d74d0b087449ff136e,2026-03-17_11h25.15.904,kallum_motion_pilot_GIST_update_2,2026.1.1,Win32,60.60606061,693288d74d0b087449ff136e,69b92ab4aef6dee357cd729a,69b92b4b524a1b82cb82930f,,,,,,,,,,,,,,,,,,,,,,,,,,,,,,,,,,,,,,,,,,,,,,,,,,,,,,,,,,,,,,,,,,,,,,,,,,,,,,,,,,,,,,,,,,,,,,,,,,,,,,,,,,,,,,,,,,,,,,,,,,,,,,,,,,,,,,,,,,,,,,,,,
,,693288d74d0b087449ff136e,2026-03-17_11h25.15.904,kallum_motion_pilot_GIST_update_2,2026.1.1,Win32,60.60606061,693288d74d0b087449ff136e,69b92ab4aef6dee357cd729a,69b92b4b524a1b82cb82930f,0.0162,0.0162,0,0,0,83,1,sixeight,,,,,,,,,,,,,,,,,,,,,,,,,,,,,,,,,,,,,,,,,,,,,,,,,,,,,,,,,,,,,,,,,,,,,,,,,,,,,,,,,,,,,,,,,,,,,,,,,,,,,,,,,,,,,,,,,,,,,,,,,,,,,,,,,,,,,,,,,
,,693288d74d0b087449ff136e,2026-03-17_11h25.15.904,kallum_motion_pilot_GIST_update_2,2026.1.1,Win32,60.60606061,693288d74d0b087449ff136e,69b92ab4aef6dee357cd729a,69b92b4b524a1b82cb82930f,0.0165,0.0165,0,1,1,148,1,sevenfive,,,,,,,,,,,,,,,,,,,,,,,,,,,,,,,,,,,,,,,,,,,,,,,,,,,,,,,,,,,,,,,,,,,,,,,,,,,,,,,,,,,,,,,,,,,,,,,,,,,,,,,,,,,,,,,,,,,,,,,,,,,,,,,,,,,,,,,,,
,,693288d74d0b087449ff136e,2026-03-17_11h25.15.904,kallum_motion_pilot_GIST_update_2,2026.1.1,Win32,60.60606061,693288d74d0b087449ff136e,69b92ab4aef6dee357cd729a,69b92b4b524a1b82cb82930f,0.0165,0.0165,0,2,2,112,1,fivesix,,,,,,,,,,,,,,,,,,,,,,,,,,,,,,,,,,,,,,,,,,,,,,,,,,,,,,,,,,,,,,,,,,,,,,,,,,,,,,,,,,,,,,,,,,,,,,,,,,,,,,,,,,,,,,,,,,,,,,,,,,,,,,,,,,,,,,,,,
,,693288d74d0b087449ff136e,2026-03-17_11h25.15.904,kallum_motion_pilot_GIST_update_2,2026.1.1,Win32,60.60606061,693288d74d0b087449ff136e,69b92ab4aef6dee357cd729a,69b92b4b524a1b82cb82930f,0.0166,0.0166,0,3,3,40,1,onetwo,,,,,,,,,,,,,,,,,,,,,,,,,,,,,,,,,,,,,,,,,,,,,,,,,,,,,,,,,,,,,,,,,,,,,,,,,,,,,,,,,,,,,,,,,,,,,,,,,,,,,,,,,,,,,,,,,,,,,,,,,,,,,,,,,,,,,,,,,
,,693288d74d0b087449ff136e,2026-03-17_11h25.15.904,kallum_motion_pilot_GIST_update_2,2026.1.1,Win32,60.60606061,693288d74d0b087449ff136e,69b92ab4aef6dee357cd729a,69b92b4b524a1b82cb82930f,0.0168,0.0168,0,4,4,23,1,fourthree,,,,,,,,,,,,,,,,,,,,,,,,,,,,,,,,,,,,,,,,,,,,,,,,,,,,,,,,,,,,,,,,,,,,,,,,,,,,,,,,,,,,,,,,,,,,,,,,,,,,,,,,,,,,,,,,,,,,,,,,,,,,,,,,,,,,,,,,,
,,693288d74d0b087449ff136e,2026-03-17_11h25.15.904,kallum_motion_pilot_GIST_update_2,2026.1.1,Win32,60.60606061,693288d74d0b087449ff136e,69b92ab4aef6dee357cd729a,69b92b4b524a1b82cb82930f,0.0168,0.0168,0,5,5,98,1,sixfive,,,,,,,,,,,,,,,,,,,,,,,,,,,,,,,,,,,,,,,,,,,,,,,,,,,,,,,,,,,,,,,,,,,,,,,,,,,,,,,,,,,,,,,,,,,,,,,,,,,,,,,,,,,,,,,,,,,,,,,,,,,,,,,,,,,,,,,,,
,,693288d74d0b087449ff136e,2026-03-17_11h25.15.904,kallum_motion_pilot_GIST_update_2,2026.1.1,Win32,60.60606061,693288d74d0b087449ff136e,69b92ab4aef6dee357cd729a,69b92b4b524a1b82cb82930f,0.0169,0.0169,0,6,6,139,1,sixeight,,,,,,,,,,,,,,,,,,,,,,,,,,,,,,,,,,,,,,,,,,,,,,,,,,,,,,,,,,,,,,,,,,,,,,,,,,,,,,,,,,,,,,,,,,,,,,,,,,,,,,,,,,,,,,,,,,,,,,,,,,,,,,,,,,,,,,,,,
,,693288d74d0b087449ff136e,2026-03-17_11h25.15.904,kallum_motion_pilot_GIST_update_2,2026.1.1,Win32,60.60606061,693288d74d0b087449ff136e,69b92ab4aef6dee357cd729a,69b92b4b524a1b82cb82930f,0.0169,0.017,0,7,7,22,1,fourtwo,,,,,,,,,,,,,,,,,,,,,,,,,,,,,,,,,,,,,,,,,,,,,,,,,,,,,,,,,,,,,,,,,,,,,,,,,,,,,,,,,,,,,,,,,,,,,,,,,,,,,,,,,,,,,,,,,,,,,,,,,,,,,,,,,,,,,,,,,
,,693288d74d0b087449ff136e,2026-03-17_11h25.15.904,kallum_motion_pilot_GIST_update_2,2026.1.1,Win32,60.60606061,693288d74d0b087449ff136e,69b92ab4aef6dee357cd729a,69b92b4b524a1b82cb82930f,0.0171,0.0171,0,8,8,65,1,onethree,,,,,,,,,,,,,,,,,,,,,,,,,,,,,,,,,,,,,,,,,,,,,,,,,,,,,,,,,,,,,,,,,,,,,,,,,,,,,,,,,,,,,,,,,,,,,,,,,,,,,,,,,,,,,,,,,,,,,,,,,,,,,,,,,,,,,,,,,
,,693288d74d0b087449ff136e,2026-03-17_11h25.15.904,kallum_motion_pilot_GIST_update_2,2026.1.1,Win32,60.60606061,693288d74d0b087449ff136e,69b92ab4aef6dee357cd729a,69b92b4b524a1b82cb82930f,0.0172,0.0172,0,9,9,11,1,twofour,,,,,,,,,,,,,,,,,,,,,,,,,,,,,,,,,,,,,,,,,,,,,,,,,,,,,,,,,,,,,,,,,,,,,,,,,,,,,,,,,,,,,,,,,,,,,,,,,,,,,,,,,,,,,,,,,,,,,,,,,,,,,,,,,,,,,,,,,
,,693288d74d0b087449ff136e,2026-03-17_11h25.15.904,kallum_motion_pilot_GIST_update_2,2026.1.1,Win32,60.60606061,693288d74d0b087449ff136e,69b92ab4aef6dee357cd729a,69b92b4b524a1b82cb82930f,0.0173,0.0173,0,10,10,155,1,sixeight,,,,,,,,,,,,,,,,,,,,,,,,,,,,,,,,,,,,,,,,,,,,,,,,,,,,,,,,,,,,,,,,,,,,,,,,,,,,,,,,,,,,,,,,,,,,,,,,,,,,,,,,,,,,,,,,,,,,,,,,,,,,,,,,,,,,,,,,,
,,693288d74d0b087449ff136e,2026-03-17_11h25.15.904,kallum_motion_pilot_GIST_update_2,2026.1.1,Win32,60.60606061,693288d74d0b087449ff136e,69b92ab4aef6dee357cd729a,69b92b4b524a1b82cb82930f,0.0174,0.0174,0,11,11,90,1,sixfive,,,,,,,,,,,,,,,,,,,,,,,,,,,,,,,,,,,,,,,,,,,,,,,,,,,,,,,,,,,,,,,,,,,,,,,,,,,,,,,,,,,,,,,,,,,,,,,,,,,,,,,,,,,,,,,,,,,,,,,,,,,,,,,,,,,,,,,,,
,,693288d74d0b087449ff136e,2026-03-17_11h25.15.904,kallum_motion_pilot_GIST_update_2,2026.1.1,Win32,60.60606061,693288d74d0b087449ff136e,69b92ab4aef6dee357cd729a,69b92b4b524a1b82cb82930f,0.0174,0.0174,0,12,12,49,1,onethree,,,,,,,,,,,,,,,,,,,,,,,,,,,,,,,,,,,,,,,,,,,,,,,,,,,,,,,,,,,,,,,,,,,,,,,,,,,,,,,,,,,,,,,,,,,,,,,,,,,,,,,,,,,,,,,,,,,,,,,,,,,,,,,,,,,,,,,,,
,,693288d74d0b087449ff136e,2026-03-17_11h25.15.904,kallum_motion_pilot_GIST_update_2,2026.1.1,Win32,60.60606061,693288d74d0b087449ff136e,69b92ab4aef6dee357cd729a,69b92b4b524a1b82cb82930f,0.0175,0.0175,0,13,13,43,1,twofour,,,,,,,,,,,,,,,,,,,,,,,,,,,,,,,,,,,,,,,,,,,,,,,,,,,,,,,,,,,,,,,,,,,,,,,,,,,,,,,,,,,,,,,,,,,,,,,,,,,,,,,,,,,,,,,,,,,,,,,,,,,,,,,,,,,,,,,,,
,,693288d74d0b087449ff136e,2026-03-17_11h25.15.904,kallum_motion_pilot_GIST_update_2,2026.1.1,Win32,60.60606061,693288d74d0b087449ff136e,69b92ab4aef6dee357cd729a,69b92b4b524a1b82cb82930f,0.0176,0.0176,0,14,14,41,1,onethree,,,,,,,,,,,,,,,,,,,,,,,,,,,,,,,,,,,,,,,,,,,,,,,,,,,,,,,,,,,,,,,,,,,,,,,,,,,,,,,,,,,,,,,,,,,,,,,,,,,,,,,,,,,,,,,,,,,,,,,,,,,,,,,,,,,,,,,,,
,,693288d74d0b087449ff136e,2026-03-17_11h25.15.904,kallum_motion_pilot_GIST_update_2,2026.1.1,Win32,60.60606061,693288d74d0b087449ff136e,69b92ab4aef6dee357cd729a,69b92b4b524a1b82cb82930f,0.0176,0.0176,0,15,15,60,1,threeone,,,,,,,,,,,,,,,,,,,,,,,,,,,,,,,,,,,,,,,,,,,,,,,,,,,,,,,,,,,,,,,,,,,,,,,,,,,,,,,,,,,,,,,,,,,,,,,,,,,,,,,,,,,,,,,,,,,,,,,,,,,,,,,,,,,,,,,,,
,,693288d74d0b087449ff136e,2026-03-17_11h25.15.904,kallum_motion_pilot_GIST_update_2,2026.1.1,Win32,60.60606061,693288d74d0b087449ff136e,69b92ab4aef6dee357cd729a,69b92b4b524a1b82cb82930f,0.0176,0.0177,0,16,16,88,1,fivesix,,,,,,,,,,,,,,,,,,,,,,,,,,,,,,,,,,,,,,,,,,,,,,,,,,,,,,,,,,,,,,,,,,,,,,,,,,,,,,,,,,,,,,,,,,,,,,,,,,,,,,,,,,,,,,,,,,,,,,,,,,,,,,,,,,,,,,,,,
,,693288d74d0b087449ff136e,2026-03-17_11h25.15.904,kallum_motion_pilot_GIST_update_2,2026.1.1,Win32,60.60606061,693288d74d0b087449ff136e,69b92ab4aef6dee357cd729a,69b92b4b524a1b82cb82930f,0.0178,0.0178,0,17,17,128,1,fivesix,,,,,,,,,,,,,,,,,,,,,,,,,,,,,,,,,,,,,,,,,,,,,,,,,,,,,,,,,,,,,,,,,,,,,,,,,,,,,,,,,,,,,,,,,,,,,,,,,,,,,,,,,,,,,,,,,,,,,,,,,,,,,,,,,,,,,,,,,
,,693288d74d0b087449ff136e,2026-03-17_11h25.15.904,kallum_motion_pilot_GIST_update_2,2026.1.1,Win32,60.60606061,693288d74d0b087449ff136e,69b92ab4aef6dee357cd729a,69b92b4b524a1b82cb82930f,0.0178,0.0178,0,18,18,141,1,seveneight,,,,,,,,,,,,,,,,,,,,,,,,,,,,,,,,,,,,,,,,,,,,,,,,,,,,,,,,,,,,,,,,,,,,,,,,,,,,,,,,,,,,,,,,,,,,,,,,,,,,,,,,,,,,,,,,,,,,,,,,,,,,,,,,,,,,,,,,,
,,693288d74d0b087449ff136e,2026-03-17_11h25.15.904,kallum_motion_pilot_GIST_update_2,2026.1.1,Win32,60.60606061,693288d74d0b087449ff136e,69b92ab4aef6dee357cd729a,69b92b4b524a1b82cb82930f,0.0185,0.0185,0,19,19,133,1,seveneight,,,,,,,,,,,,,,,,,,,,,,,,,,,,,,,,,,,,,,,,,,,,,,,,,,,,,,,,,,,,,,,,,,,,,,,,,,,,,,,,,,,,,,,,,,,,,,,,,,,,,,,,,,,,,,,,,,,,,,,,,,,,,,,,,,,,,,,,,
,,693288d74d0b087449ff136e,2026-03-17_11h25.15.904,kallum_motion_pilot_GIST_update_2,2026.1.1,Win32,60.60606061,693288d74d0b087449ff136e,69b92ab4aef6dee357cd729a,69b92b4b524a1b82cb82930f,0.0186,0.0186,0,20,20,78,1,fourtwo,,,,,,,,,,,,,,,,,,,,,,,,,,,,,,,,,,,,,,,,,,,,,,,,,,,,,,,,,,,,,,,,,,,,,,,,,,,,,,,,,,,,,,,,,,,,,,,,,,,,,,,,,,,,,,,,,,,,,,,,,,,,,,,,,,,,,,,,,
,,693288d74d0b087449ff136e,2026-03-17_11h25.15.904,kallum_motion_pilot_GIST_update_2,2026.1.1,Win32,60.60606061,693288d74d0b087449ff136e,69b92ab4aef6dee357cd729a,69b92b4b524a1b82cb82930f,0.0187,0.0187,0,21,21,12,1,threeone,,,,,,,,,,,,,,,,,,,,,,,,,,,,,,,,,,,,,,,,,,,,,,,,,,,,,,,,,,,,,,,,,,,,,,,,,,,,,,,,,,,,,,,,,,,,,,,,,,,,,,,,,,,,,,,,,,,,,,,,,,,,,,,,,,,,,,,,,
,,693288d74d0b087449ff136e,2026-03-17_11h25.15.904,kallum_motion_pilot_GIST_update_2,2026.1.1,Win32,60.60606061,693288d74d0b087449ff136e,69b92ab4aef6dee357cd729a,69b92b4b524a1b82cb82930f,0.0188,0.0188,0,22,22,121,1,fiveseven,,,,,,,,,,,,,,,,,,,,,,,,,,,,,,,,,,,,,,,,,,,,,,,,,,,,,,,,,,,,,,,,,,,,,,,,,,,,,,,,,,,,,,,,,,,,,,,,,,,,,,,,,,,,,,,,,,,,,,,,,,,,,,,,,,,,,,,,,
,,693288d74d0b087449ff136e,2026-03-17_11h25.15.904,kallum_motion_pilot_GIST_update_2,2026.1.1,Win32,60.60606061,693288d74d0b087449ff136e,69b92ab4aef6dee357cd729a,69b92b4b524a1b82cb82930f,0.0188,0.0188,0,23,23,30,1,fourtwo,,,,,,,,,,,,,,,,,,,,,,,,,,,,,,,,,,,,,,,,,,,,,,,,,,,,,,,,,,,,,,,,,,,,,,,,,,,,,,,,,,,,,,,,,,,,,,,,,,,,,,,,,,,,,,,,,,,,,,,,,,,,,,,,,,,,,,,,,
,,693288d74d0b087449ff136e,2026-03-17_11h25.15.904,kallum_motion_pilot_GIST_update_2,2026.1.1,Win32,60.60606061,693288d74d0b087449ff136e,69b92ab4aef6dee357cd729a,69b92b4b524a1b82cb82930f,0.0189,0.0189,0,24,24,58,1,twoone,,,,,,,,,,,,,,,,,,,,,,,,,,,,,,,,,,,,,,,,,,,,,,,,,,,,,,,,,,,,,,,,,,,,,,,,,,,,,,,,,,,,,,,,,,,,,,,,,,,,,,,,,,,,,,,,,,,,,,,,,,,,,,,,,,,,,,,,,
,,693288d74d0b087449ff136e,2026-03-17_11h25.15.904,kallum_motion_pilot_GIST_update_2,2026.1.1,Win32,60.60606061,693288d74d0b087449ff136e,69b92ab4aef6dee357cd729a,69b92b4b524a1b82cb82930f,0.0189,0.0189,0,25,25,156,1,sevenfive,,,,,,,,,,,,,,,,,,,,,,,,,,,,,,,,,,,,,,,,,,,,,,,,,,,,,,,,,,,,,,,,,,,,,,,,,,,,,,,,,,,,,,,,,,,,,,,,,,,,,,,,,,,,,,,,,,,,,,,,,,,,,,,,,,,,,,,,,
,,693288d74d0b087449ff136e,2026-03-17_11h25.15.904,kallum_motion_pilot_GIST_update_2,2026.1.1,Win32,60.60606061,693288d74d0b087449ff136e,69b92ab4aef6dee357cd729a,69b92b4b524a1b82cb82930f,0.019,0.019,0,26,26,110,1,eightsix,,,,,,,,,,,,,,,,,,,,,,,,,,,,,,,,,,,,,,,,,,,,,,,,,,,,,,,,,,,,,,,,,,,,,,,,,,,,,,,,,,,,,,,,,,,,,,,,,,,,,,,,,,,,,,,,,,,,,,,,,,,,,,,,,,,,,,,,,
,,693288d74d0b087449ff136e,2026-03-17_11h25.15.904,kallum_motion_pilot_GIST_update_2,2026.1.1,Win32,60.60606061,693288d74d0b087449ff136e,69b92ab4aef6dee357cd729a,69b92b4b524a1b82cb82930f,0.019,0.019,0,27,27,114,1,sixfive,,,,,,,,,,,,,,,,,,,,,,,,,,,,,,,,,,,,,,,,,,,,,,,,,,,,,,,,,,,,,,,,,,,,,,,,,,,,,,,,,,,,,,,,,,,,,,,,,,,,,,,,,,,,,,,,,,,,,,,,,,,,,,,,,,,,,,,,,
,,693288d74d0b087449ff136e,2026-03-17_11h25.15.904,kallum_motion_pilot_GIST_update_2,2026.1.1,Win32,60.60606061,693288d74d0b087449ff136e,69b92ab4aef6dee357cd729a,69b92b4b524a1b82cb82930f,0.0191,0.0192,0,28,28,85,1,seveneight,,,,,,,,,,,,,,,,,,,,,,,,,,,,,,,,,,,,,,,,,,,,,,,,,,,,,,,,,,,,,,,,,,,,,,,,,,,,,,,,,,,,,,,,,,,,,,,,,,,,,,,,,,,,,,,,,,,,,,,,,,,,,,,,,,,,,,,,,
,,693288d74d0b087449ff136e,2026-03-17_11h25.15.904,kallum_motion_pilot_GIST_update_2,2026.1.1,Win32,60.60606061,693288d74d0b087449ff136e,69b92ab4aef6dee357cd729a,69b92b4b524a1b82cb82930f,0.0192,0.0192,0,29,29,7,1,fourthree,,,,,,,,,,,,,,,,,,,,,,,,,,,,,,,,,,,,,,,,,,,,,,,,,,,,,,,,,,,,,,,,,,,,,,,,,,,,,,,,,,,,,,,,,,,,,,,,,,,,,,,,,,,,,,,,,,,,,,,,,,,,,,,,,,,,,,,,,
,,693288d74d0b087449ff136e,2026-03-17_11h25.15.904,kallum_motion_pilot_GIST_update_2,2026.1.1,Win32,60.60606061,693288d74d0b087449ff136e,69b92ab4aef6dee357cd729a,69b92b4b524a1b82cb82930f,0.0193,0.0193,0,30,30,66,1,twoone,,,,,,,,,,,,,,,,,,,,,,,,,,,,,,,,,,,,,,,,,,,,,,,,,,,,,,,,,,,,,,,,,,,,,,,,,,,,,,,,,,,,,,,,,,,,,,,,,,,,,,,,,,,,,,,,,,,,,,,,,,,,,,,,,,,,,,,,,
,,693288d74d0b087449ff136e,2026-03-17_11h25.15.904,kallum_motion_pilot_GIST_update_2,2026.1.1,Win32,60.60606061,693288d74d0b087449ff136e,69b92ab4aef6dee357cd729a,69b92b4b524a1b82cb82930f,0.0194,0.0194,0,31,31,140,1,sevenfive,,,,,,,,,,,,,,,,,,,,,,,,,,,,,,,,,,,,,,,,,,,,,,,,,,,,,,,,,,,,,,,,,,,,,,,,,,,,,,,,,,,,,,,,,,,,,,,,,,,,,,,,,,,,,,,,,,,,,,,,,,,,,,,,,,,,,,,,,
,,693288d74d0b087449ff136e,2026-03-17_11h25.15.904,kallum_motion_pilot_GIST_update_2,2026.1.1,Win32,60.60606061,693288d74d0b087449ff136e,69b92ab4aef6dee357cd729a,69b92b4b524a1b82cb82930f,0.0194,0.0194,0,32,32,71,1,fourthree,,,,,,,,,,,,,,,,,,,,,,,,,,,,,,,,,,,,,,,,,,,,,,,,,,,,,,,,,,,,,,,,,,,,,,,,,,,,,,,,,,,,,,,,,,,,,,,,,,,,,,,,,,,,,,,,,,,,,,,,,,,,,,,,,,,,,,,,,
,,693288d74d0b087449ff136e,2026-03-17_11h25.15.904,kallum_motion_pilot_GIST_update_2,2026.1.1,Win32,60.60606061,693288d74d0b087449ff136e,69b92ab4aef6dee357cd729a,69b92b4b524a1b82cb82930f,0.0195,0.0195,0,33,33,74,1,twoone,,,,,,,,,,,,,,,,,,,,,,,,,,,,,,,,,,,,,,,,,,,,,,,,,,,,,,,,,,,,,,,,,,,,,,,,,,,,,,,,,,,,,,,,,,,,,,,,,,,,,,,,,,,,,,,,,,,,,,,,,,,,,,,,,,,,,,,,,
,,693288d74d0b087449ff136e,2026-03-17_11h25.15.904,kallum_motion_pilot_GIST_update_2,2026.1.1,Win32,60.60606061,693288d74d0b087449ff136e,69b92ab4aef6dee357cd729a,69b92b4b524a1b82cb82930f,0.0196,0.0196,0,34,34,34,1,twoone,,,,,,,,,,,,,,,,,,,,,,,,,,,,,,,,,,,,,,,,,,,,,,,,,,,,,,,,,,,,,,,,,,,,,,,,,,,,,,,,,,,,,,,,,,,,,,,,,,,,,,,,,,,,,,,,,,,,,,,,,,,,,,,,,,,,,,,,,
,,693288d74d0b087449ff136e,2026-03-17_11h25.15.904,kallum_motion_pilot_GIST_update_2,2026.1.1,Win32,60.60606061,693288d74d0b087449ff136e,69b92ab4aef6dee357cd729a,69b92b4b524a1b82cb82930f,0.0196,0.0196,0,35,35,75,1,twofour,,,,,,,,,,,,,,,,,,,,,,,,,,,,,,,,,,,,,,,,,,,,,,,,,,,,,,,,,,,,,,,,,,,,,,,,,,,,,,,,,,,,,,,,,,,,,,,,,,,,,,,,,,,,,,,,,,,,,,,,,,,,,,,,,,,,,,,,,
,,693288d74d0b087449ff136e,2026-03-17_11h25.15.904,kallum_motion_pilot_GIST_update_2,2026.1.1,Win32,60.60606061,693288d74d0b087449ff136e,69b92ab4aef6dee357cd729a,69b92b4b524a1b82cb82930f,0.0197,0.0197,0,36,36,158,1,eightsix,,,,,,,,,,,,,,,,,,,,,,,,,,,,,,,,,,,,,,,,,,,,,,,,,,,,,,,,,,,,,,,,,,,,,,,,,,,,,,,,,,,,,,,,,,,,,,,,,,,,,,,,,,,,,,,,,,,,,,,,,,,,,,,,,,,,,,,,,
,,693288d74d0b087449ff136e,2026-03-17_11h25.15.904,kallum_motion_pilot_GIST_update_2,2026.1.1,Win32,60.60606061,693288d74d0b087449ff136e,69b92ab4aef6dee357cd729a,69b92b4b524a1b82cb82930f,0.0197,0.0197,0,37,37,122,1,sixfive,,,,,,,,,,,,,,,,,,,,,,,,,,,,,,,,,,,,,,,,,,,,,,,,,,,,,,,,,,,,,,,,,,,,,,,,,,,,,,,,,,,,,,,,,,,,,,,,,,,,,,,,,,,,,,,,,,,,,,,,,,,,,,,,,,,,,,,,,
,,693288d74d0b087449ff136e,2026-03-17_11h25.15.904,kallum_motion_pilot_GIST_update_2,2026.1.1,Win32,60.60606061,693288d74d0b087449ff136e,69b92ab4aef6dee357cd729a,69b92b4b524a1b82cb82930f,0.0198,0.0198,0,38,38,117,1,seveneight,,,,,,,,,,,,,,,,,,,,,,,,,,,,,,,,,,,,,,,,,,,,,,,,,,,,,,,,,,,,,,,,,,,,,,,,,,,,,,,,,,,,,,,,,,,,,,,,,,,,,,,,,,,,,,,,,,,,,,,,,,,,,,,,,,,,,,,,,
,,693288d74d0b087449ff136e,2026-03-17_11h25.15.904,kallum_motion_pilot_GIST_update_2,2026.1.1,Win32,60.60606061,693288d74d0b087449ff136e,69b92ab4aef6dee357cd729a,69b92b4b524a1b82cb82930f,0.0199,0.0199,0,39,39,118,1,eightsix,,,,,,,,,,,,,,,,,,,,,,,,,,,,,,,,,,,,,,,,,,,,,,,,,,,,,,,,,,,,,,,,,,,,,,,,,,,,,,,,,,,,,,,,,,,,,,,,,,,,,,,,,,,,,,,,,,,,,,,,,,,,,,,,,,,,,,,,,
,,693288d74d0b087449ff136e,2026-03-17_11h25.15.904,kallum_motion_pilot_GIST_update_2,2026.1.1,Win32,60.60606061,693288d74d0b087449ff136e,69b92ab4aef6dee357cd729a,69b92b4b524a1b82cb82930f,0.0199,0.0199,0,40,40,124,1,sevenfive,,,,,,,,,,,,,,,,,,,,,,,,,,,,,,,,,,,,,,,,,,,,,,,,,,,,,,,,,,,,,,,,,,,,,,,,,,,,,,,,,,,,,,,,,,,,,,,,,,,,,,,,,,,,,,,,,,,,,,,,,,,,,,,,,,,,,,,,,
,,693288d74d0b087449ff136e,2026-03-17_11h25.15.904,kallum_motion_pilot_GIST_update_2,2026.1.1,Win32,60.60606061,693288d74d0b087449ff136e,69b92ab4aef6dee357cd729a,69b92b4b524a1b82cb82930f,0.02,0.02,0,41,41,111,1,eightseven,,,,,,,,,,,,,,,,,,,,,,,,,,,,,,,,,,,,,,,,,,,,,,,,,,,,,,,,,,,,,,,,,,,,,,,,,,,,,,,,,,,,,,,,,,,,,,,,,,,,,,,,,,,,,,,,,,,,,,,,,,,,,,,,,,,,,,,,,
,,693288d74d0b087449ff136e,2026-03-17_11h25.15.904,kallum_motion_pilot_GIST_update_2,2026.1.1,Win32,60.60606061,693288d74d0b087449ff136e,69b92ab4aef6dee357cd729a,69b92b4b524a1b82cb82930f,0.0201,0.0201,0,42,42,149,1,seveneight,,,,,,,,,,,,,,,,,,,,,,,,,,,,,,,,,,,,,,,,,,,,,,,,,,,,,,,,,,,,,,,,,,,,,,,,,,,,,,,,,,,,,,,,,,,,,,,,,,,,,,,,,,,,,,,,,,,,,,,,,,,,,,,,,,,,,,,,,
,,693288d74d0b087449ff136e,2026-03-17_11h25.15.904,kallum_motion_pilot_GIST_update_2,2026.1.1,Win32,60.60606061,693288d74d0b087449ff136e,69b92ab4aef6dee357cd729a,69b92b4b524a1b82cb82930f,0.0202,0.0202,0,43,43,142,1,eightsix,,,,,,,,,,,,,,,,,,,,,,,,,,,,,,,,,,,,,,,,,,,,,,,,,,,,,,,,,,,,,,,,,,,,,,,,,,,,,,,,,,,,,,,,,,,,,,,,,,,,,,,,,,,,,,,,,,,,,,,,,,,,,,,,,,,,,,,,,
,,693288d74d0b087449ff136e,2026-03-17_11h25.15.904,kallum_motion_pilot_GIST_update_2,2026.1.1,Win32,60.60606061,693288d74d0b087449ff136e,69b92ab4aef6dee357cd729a,69b92b4b524a1b82cb82930f,0.0202,0.0202,0,44,44,107,1,sixeight,,,,,,,,,,,,,,,,,,,,,,,,,,,,,,,,,,,,,,,,,,,,,,,,,,,,,,,,,,,,,,,,,,,,,,,,,,,,,,,,,,,,,,,,,,,,,,,,,,,,,,,,,,,,,,,,,,,,,,,,,,,,,,,,,,,,,,,,,
,,693288d74d0b087449ff136e,2026-03-17_11h25.15.904,kallum_motion_pilot_GIST_update_2,2026.1.1,Win32,60.60606061,693288d74d0b087449ff136e,69b92ab4aef6dee357cd729a,69b92b4b524a1b82cb82930f,0.0203,0.0203,0,45,45,146,1,sixfive,,,,,,,,,,,,,,,,,,,,,,,,,,,,,,,,,,,,,,,,,,,,,,,,,,,,,,,,,,,,,,,,,,,,,,,,,,,,,,,,,,,,,,,,,,,,,,,,,,,,,,,,,,,,,,,,,,,,,,,,,,,,,,,,,,,,,,,,,
,,693288d74d0b087449ff136e,2026-03-17_11h25.15.904,kallum_motion_pilot_GIST_update_2,2026.1.1,Win32,60.60606061,693288d74d0b087449ff136e,69b92ab4aef6dee357cd729a,69b92b4b524a1b82cb82930f,0.0204,0.0204,0,46,46,32,1,onetwo,,,,,,,,,,,,,,,,,,,,,,,,,,,,,,,,,,,,,,,,,,,,,,,,,,,,,,,,,,,,,,,,,,,,,,,,,,,,,,,,,,,,,,,,,,,,,,,,,,,,,,,,,,,,,,,,,,,,,,,,,,,,,,,,,,,,,,,,,
,,693288d74d0b087449ff136e,2026-03-17_11h25.15.904,kallum_motion_pilot_GIST_update_2,2026.1.1,Win32,60.60606061,693288d74d0b087449ff136e,69b92ab4aef6dee357cd729a,69b92b4b524a1b82cb82930f,0.0205,0.0205,0,47,47,52,1,threeone,,,,,,,,,,,,,,,,,,,,,,,,,,,,,,,,,,,,,,,,,,,,,,,,,,,,,,,,,,,,,,,,,,,,,,,,,,,,,,,,,,,,,,,,,,,,,,,,,,,,,,,,,,,,,,,,,,,,,,,,,,,,,,,,,,,,,,,,,
,,693288d74d0b087449ff136e,2026-03-17_11h25.15.904,kallum_motion_pilot_GIST_update_2,2026.1.1,Win32,60.60606061,693288d74d0b087449ff136e,69b92ab4aef6dee357cd729a,69b92b4b524a1b82cb82930f,0.0206,0.0206,0,48,48,95,1,eightseven,,,,,,,,,,,,,,,,,,,,,,,,,,,,,,,,,,,,,,,,,,,,,,,,,,,,,,,,,,,,,,,,,,,,,,,,,,,,,,,,,,,,,,,,,,,,,,,,,,,,,,,,,,,,,,,,,,,,,,,,,,,,,,,,,,,,,,,,,
,,693288d74d0b087449ff136e,2026-03-17_11h25.15.904,kallum_motion_pilot_GIST_update_2,2026.1.1,Win32,60.60606061,693288d74d0b087449ff136e,69b92ab4aef6dee357cd729a,69b92b4b524a1b82cb82930f,0.0206,0.0206,0,49,49,135,1,eightseven,,,,,,,,,,,,,,,,,,,,,,,,,,,,,,,,,,,,,,,,,,,,,,,,,,,,,,,,,,,,,,,,,,,,,,,,,,,,,,,,,,,,,,,,,,,,,,,,,,,,,,,,,,,,,,,,,,,,,,,,,,,,,,,,,,,,,,,,,
,,693288d74d0b087449ff136e,2026-03-17_11h25.15.904,kallum_motion_pilot_GIST_update_2,2026.1.1,Win32,60.60606061,693288d74d0b087449ff136e,69b92ab4aef6dee357cd729a,69b92b4b524a1b82cb82930f,0.0206,0.0206,0,50,50,94,1,eightsix,,,,,,,,,,,,,,,,,,,,,,,,,,,,,,,,,,,,,,,,,,,,,,,,,,,,,,,,,,,,,,,,,,,,,,,,,,,,,,,,,,,,,,,,,,,,,,,,,,,,,,,,,,,,,,,,,,,,,,,,,,,,,,,,,,,,,,,,,
,,693288d74d0b087449ff136e,2026-03-17_11h25.15.904,kallum_motion_pilot_GIST_update_2,2026.1.1,Win32,60.60606061,693288d74d0b087449ff136e,69b92ab4aef6dee357cd729a,69b92b4b524a1b82cb82930f,0.0208,0.0208,0,51,51,93,1,seveneight,,,,,,,,,,,,,,,,,,,,,,,,,,,,,,,,,,,,,,,,,,,,,,,,,,,,,,,,,,,,,,,,,,,,,,,,,,,,,,,,,,,,,,,,,,,,,,,,,,,,,,,,,,,,,,,,,,,,,,,,,,,,,,,,,,,,,,,,,
,,693288d74d0b087449ff136e,2026-03-17_11h25.15.904,kallum_motion_pilot_GIST_update_2,2026.1.1,Win32,60.60606061,693288d74d0b087449ff136e,69b92ab4aef6dee357cd729a,69b92b4b524a1b82cb82930f,0.0208,0.0209,0,52,52,137,1,fiveseven,,,,,,,,,,,,,,,,,,,,,,,,,,,,,,,,,,,,,,,,,,,,,,,,,,,,,,,,,,,,,,,,,,,,,,,,,,,,,,,,,,,,,,,,,,,,,,,,,,,,,,,,,,,,,,,,,,,,,,,,,,,,,,,,,,,,,,,,,
,,693288d74d0b087449ff136e,2026-03-17_11h25.15.904,kallum_motion_pilot_GIST_update_2,2026.1.1,Win32,60.60606061,693288d74d0b087449ff136e,69b92ab4aef6dee357cd729a,69b92b4b524a1b82cb82930f,0.0209,0.0209,0,53,53,151,1,eightseven,,,,,,,,,,,,,,,,,,,,,,,,,,,,,,,,,,,,,,,,,,,,,,,,,,,,,,,,,,,,,,,,,,,,,,,,,,,,,,,,,,,,,,,,,,,,,,,,,,,,,,,,,,,,,,,,,,,,,,,,,,,,,,,,,,,,,,,,,
,,693288d74d0b087449ff136e,2026-03-17_11h25.15.904,kallum_motion_pilot_GIST_update_2,2026.1.1,Win32,60.60606061,693288d74d0b087449ff136e,69b92ab4aef6dee357cd729a,69b92b4b524a1b82cb82930f,0.0211,0.0211,0,54,54,106,1,sixfive,,,,,,,,,,,,,,,,,,,,,,,,,,,,,,,,,,,,,,,,,,,,,,,,,,,,,,,,,,,,,,,,,,,,,,,,,,,,,,,,,,,,,,,,,,,,,,,,,,,,,,,,,,,,,,,,,,,,,,,,,,,,,,,,,,,,,,,,,
,,693288d74d0b087449ff136e,2026-03-17_11h25.15.904,kallum_motion_pilot_GIST_update_2,2026.1.1,Win32,60.60606061,693288d74d0b087449ff136e,69b92ab4aef6dee357cd729a,69b92b4b524a1b82cb82930f,0.0211,0.0211,0,55,55,21,1,threefour,,,,,,,,,,,,,,,,,,,,,,,,,,,,,,,,,,,,,,,,,,,,,,,,,,,,,,,,,,,,,,,,,,,,,,,,,,,,,,,,,,,,,,,,,,,,,,,,,,,,,,,,,,,,,,,,,,,,,,,,,,,,,,,,,,,,,,,,,
,,693288d74d0b087449ff136e,2026-03-17_11h25.15.904,kallum_motion_pilot_GIST_update_2,2026.1.1,Win32,60.60606061,693288d74d0b087449ff136e,69b92ab4aef6dee357cd729a,69b92b4b524a1b82cb82930f,0.0212,0.0212,0,56,56,9,1,onethree,,,,,,,,,,,,,,,,,,,,,,,,,,,,,,,,,,,,,,,,,,,,,,,,,,,,,,,,,,,,,,,,,,,,,,,,,,,,,,,,,,,,,,,,,,,,,,,,,,,,,,,,,,,,,,,,,,,,,,,,,,,,,,,,,,,,,,,,,
,,693288d74d0b087449ff136e,2026-03-17_11h25.15.904,kallum_motion_pilot_GIST_update_2,2026.1.1,Win32,60.60606061,693288d74d0b087449ff136e,69b92ab4aef6dee357cd729a,69b92b4b524a1b82cb82930f,0.0213,0.0213,0,57,57,6,1,fourtwo,,,,,,,,,,,,,,,,,,,,,,,,,,,,,,,,,,,,,,,,,,,,,,,,,,,,,,,,,,,,,,,,,,,,,,,,,,,,,,,,,,,,,,,,,,,,,,,,,,,,,,,,,,,,,,,,,,,,,,,,,,,,,,,,,,,,,,,,,
,,693288d74d0b087449ff136e,2026-03-17_11h25.15.904,kallum_motion_pilot_GIST_update_2,2026.1.1,Win32,60.60606061,693288d74d0b087449ff136e,69b92ab4aef6dee357cd729a,69b92b4b524a1b82cb82930f,0.0213,0.0213,0,58,58,67,1,twofour,,,,,,,,,,,,,,,,,,,,,,,,,,,,,,,,,,,,,,,,,,,,,,,,,,,,,,,,,,,,,,,,,,,,,,,,,,,,,,,,,,,,,,,,,,,,,,,,,,,,,,,,,,,,,,,,,,,,,,,,,,,,,,,,,,,,,,,,,
,,693288d74d0b087449ff136e,2026-03-17_11h25.15.904,kallum_motion_pilot_GIST_update_2,2026.1.1,Win32,60.60606061,693288d74d0b087449ff136e,69b92ab4aef6dee357cd729a,69b92b4b524a1b82cb82930f,0.0214,0.0214,0,59,59,87,1,eightseven,,,,,,,,,,,,,,,,,,,,,,,,,,,,,,,,,,,,,,,,,,,,,,,,,,,,,,,,,,,,,,,,,,,,,,,,,,,,,,,,,,,,,,,,,,,,,,,,,,,,,,,,,,,,,,,,,,,,,,,,,,,,,,,,,,,,,,,,,
,,693288d74d0b087449ff136e,2026-03-17_11h25.15.904,kallum_motion_pilot_GIST_update_2,2026.1.1,Win32,60.60606061,693288d74d0b087449ff136e,69b92ab4aef6dee357cd729a,69b92b4b524a1b82cb82930f,0.0215,0.0215,0,60,60,69,1,threefour,,,,,,,,,,,,,,,,,,,,,,,,,,,,,,,,,,,,,,,,,,,,,,,,,,,,,,,,,,,,,,,,,,,,,,,,,,,,,,,,,,,,,,,,,,,,,,,,,,,,,,,,,,,,,,,,,,,,,,,,,,,,,,,,,,,,,,,,,
,,693288d74d0b087449ff136e,2026-03-17_11h25.15.904,kallum_motion_pilot_GIST_update_2,2026.1.1,Win32,60.60606061,693288d74d0b087449ff136e,69b92ab4aef6dee357cd729a,69b92b4b524a1b82cb82930f,0.0216,0.0216,0,61,61,76,1,threeone,,,,,,,,,,,,,,,,,,,,,,,,,,,,,,,,,,,,,,,,,,,,,,,,,,,,,,,,,,,,,,,,,,,,,,,,,,,,,,,,,,,,,,,,,,,,,,,,,,,,,,,,,,,,,,,,,,,,,,,,,,,,,,,,,,,,,,,,,
,,693288d74d0b087449ff136e,2026-03-17_11h25.15.904,kallum_motion_pilot_GIST_update_2,2026.1.1,Win32,60.60606061,693288d74d0b087449ff136e,69b92ab4aef6dee357cd729a,69b92b4b524a1b82cb82930f,0.0216,0.0216,0,62,62,51,1,twofour,,,,,,,,,,,,,,,,,,,,,,,,,,,,,,,,,,,,,,,,,,,,,,,,,,,,,,,,,,,,,,,,,,,,,,,,,,,,,,,,,,,,,,,,,,,,,,,,,,,,,,,,,,,,,,,,,,,,,,,,,,,,,,,,,,,,,,,,,
,,693288d74d0b087449ff136e,2026-03-17_11h25.15.904,kallum_motion_pilot_GIST_update_2,2026.1.1,Win32,60.60606061,693288d74d0b087449ff136e,69b92ab4aef6dee357cd729a,69b92b4b524a1b82cb82930f,0.0217,0.0217,0,63,63,126,1,eightsix,,,,,,,,,,,,,,,,,,,,,,,,,,,,,,,,,,,,,,,,,,,,,,,,,,,,,,,,,,,,,,,,,,,,,,,,,,,,,,,,,,,,,,,,,,,,,,,,,,,,,,,,,,,,,,,,,,,,,,,,,,,,,,,,,,,,,,,,,
,,693288d74d0b087449ff136e,2026-03-17_11h25.15.904,kallum_motion_pilot_GIST_update_2,2026.1.1,Win32,60.60606061,693288d74d0b087449ff136e,69b92ab4aef6dee357cd729a,69b92b4b524a1b82cb82930f,0.0218,0.0218,0,64,64,0,1,onetwo,,,,,,,,,,,,,,,,,,,,,,,,,,,,,,,,,,,,,,,,,,,,,,,,,,,,,,,,,,,,,,,,,,,,,,,,,,,,,,,,,,,,,,,,,,,,,,,,,,,,,,,,,,,,,,,,,,,,,,,,,,,,,,,,,,,,,,,,,
,,693288d74d0b087449ff136e,2026-03-17_11h25.15.904,kallum_motion_pilot_GIST_update_2,2026.1.1,Win32,60.60606061,693288d74d0b087449ff136e,69b92ab4aef6dee357cd729a,69b92b4b524a1b82cb82930f,0.0219,0.0219,0,65,65,113,1,fiveseven,,,,,,,,,,,,,,,,,,,,,,,,,,,,,,,,,,,,,,,,,,,,,,,,,,,,,,,,,,,,,,,,,,,,,,,,,,,,,,,,,,,,,,,,,,,,,,,,,,,,,,,,,,,,,,,,,,,,,,,,,,,,,,,,,,,,,,,,,
,,693288d74d0b087449ff136e,2026-03-17_11h25.15.904,kallum_motion_pilot_GIST_update_2,2026.1.1,Win32,60.60606061,693288d74d0b087449ff136e,69b92ab4aef6dee357cd729a,69b92b4b524a1b82cb82930f,0.022,0.022,0,66,66,160,1,fivesix,,,,,,,,,,,,,,,,,,,,,,,,,,,,,,,,,,,,,,,,,,,,,,,,,,,,,,,,,,,,,,,,,,,,,,,,,,,,,,,,,,,,,,,,,,,,,,,,,,,,,,,,,,,,,,,,,,,,,,,,,,,,,,,,,,,,,,,,,
,,693288d74d0b087449ff136e,2026-03-17_11h25.15.904,kallum_motion_pilot_GIST_update_2,2026.1.1,Win32,60.60606061,693288d74d0b087449ff136e,69b92ab4aef6dee357cd729a,69b92b4b524a1b82cb82930f,0.0221,0.0221,0,67,67,96,1,fivesix,,,,,,,,,,,,,,,,,,,,,,,,,,,,,,,,,,,,,,,,,,,,,,,,,,,,,,,,,,,,,,,,,,,,,,,,,,,,,,,,,,,,,,,,,,,,,,,,,,,,,,,,,,,,,,,,,,,,,,,,,,,,,,,,,,,,,,,,,
,,693288d74d0b087449ff136e,2026-03-17_11h25.15.904,kallum_motion_pilot_GIST_update_2,2026.1.1,Win32,60.60606061,693288d74d0b087449ff136e,69b92ab4aef6dee357cd729a,69b92b4b524a1b82cb82930f,0.0221,0.0221,0,68,68,48,1,onetwo,,,,,,,,,,,,,,,,,,,,,,,,,,,,,,,,,,,,,,,,,,,,,,,,,,,,,,,,,,,,,,,,,,,,,,,,,,,,,,,,,,,,,,,,,,,,,,,,,,,,,,,,,,,,,,,,,,,,,,,,,,,,,,,,,,,,,,,,,
,,693288d74d0b087449ff136e,2026-03-17_11h25.15.904,kallum_motion_pilot_GIST_update_2,2026.1.1,Win32,60.60606061,693288d74d0b087449ff136e,69b92ab4aef6dee357cd729a,69b92b4b524a1b82cb82930f,0.0221,0.0221,0,69,69,105,1,fiveseven,,,,,,,,,,,,,,,,,,,,,,,,,,,,,,,,,,,,,,,,,,,,,,,,,,,,,,,,,,,,,,,,,,,,,,,,,,,,,,,,,,,,,,,,,,,,,,,,,,,,,,,,,,,,,,,,,,,,,,,,,,,,,,,,,,,,,,,,,
,,693288d74d0b087449ff136e,2026-03-17_11h25.15.904,kallum_motion_pilot_GIST_update_2,2026.1.1,Win32,60.60606061,693288d74d0b087449ff136e,69b92ab4aef6dee357cd729a,69b92b4b524a1b82cb82930f,0.0223,0.0223,0,70,70,86,1,eightsix,,,,,,,,,,,,,,,,,,,,,,,,,,,,,,,,,,,,,,,,,,,,,,,,,,,,,,,,,,,,,,,,,,,,,,,,,,,,,,,,,,,,,,,,,,,,,,,,,,,,,,,,,,,,,,,,,,,,,,,,,,,,,,,,,,,,,,,,,
,,693288d74d0b087449ff136e,2026-03-17_11h25.15.904,kallum_motion_pilot_GIST_update_2,2026.1.1,Win32,60.60606061,693288d74d0b087449ff136e,69b92ab4aef6dee357cd729a,69b92b4b524a1b82cb82930f,0.0224,0.0224,0,71,71,16,1,onetwo,,,,,,,,,,,,,,,,,,,,,,,,,,,,,,,,,,,,,,,,,,,,,,,,,,,,,,,,,,,,,,,,,,,,,,,,,,,,,,,,,,,,,,,,,,,,,,,,,,,,,,,,,,,,,,,,,,,,,,,,,,,,,,,,,,,,,,,,,
,,693288d74d0b087449ff136e,2026-03-17_11h25.15.904,kallum_motion_pilot_GIST_update_2,2026.1.1,Win32,60.60606061,693288d74d0b087449ff136e,69b92ab4aef6dee357cd729a,69b92b4b524a1b82cb82930f,0.0224,0.0224,0,72,72,138,1,sixfive,,,,,,,,,,,,,,,,,,,,,,,,,,,,,,,,,,,,,,,,,,,,,,,,,,,,,,,,,,,,,,,,,,,,,,,,,,,,,,,,,,,,,,,,,,,,,,,,,,,,,,,,,,,,,,,,,,,,,,,,,,,,,,,,,,,,,,,,,
,,693288d74d0b087449ff136e,2026-03-17_11h25.15.904,kallum_motion_pilot_GIST_update_2,2026.1.1,Win32,60.60606061,693288d74d0b087449ff136e,69b92ab4aef6dee357cd729a,69b92b4b524a1b82cb82930f,0.0225,0.0225,0,73,73,104,1,fivesix,,,,,,,,,,,,,,,,,,,,,,,,,,,,,,,,,,,,,,,,,,,,,,,,,,,,,,,,,,,,,,,,,,,,,,,,,,,,,,,,,,,,,,,,,,,,,,,,,,,,,,,,,,,,,,,,,,,,,,,,,,,,,,,,,,,,,,,,,
,,693288d74d0b087449ff136e,2026-03-17_11h25.15.904,kallum_motion_pilot_GIST_update_2,2026.1.1,Win32,60.60606061,693288d74d0b087449ff136e,69b92ab4aef6dee357cd729a,69b92b4b524a1b82cb82930f,0.0226,0.0226,0,74,74,116,1,sevenfive,,,,,,,,,,,,,,,,,,,,,,,,,,,,,,,,,,,,,,,,,,,,,,,,,,,,,,,,,,,,,,,,,,,,,,,,,,,,,,,,,,,,,,,,,,,,,,,,,,,,,,,,,,,,,,,,,,,,,,,,,,,,,,,,,,,,,,,,,
,,693288d74d0b087449ff136e,2026-03-17_11h25.15.904,kallum_motion_pilot_GIST_update_2,2026.1.1,Win32,60.60606061,693288d74d0b087449ff136e,69b92ab4aef6dee357cd729a,69b92b4b524a1b82cb82930f,0.0227,0.0227,0,75,75,56,1,onetwo,,,,,,,,,,,,,,,,,,,,,,,,,,,,,,,,,,,,,,,,,,,,,,,,,,,,,,,,,,,,,,,,,,,,,,,,,,,,,,,,,,,,,,,,,,,,,,,,,,,,,,,,,,,,,,,,,,,,,,,,,,,,,,,,,,,,,,,,,
,,693288d74d0b087449ff136e,2026-03-17_11h25.15.904,kallum_motion_pilot_GIST_update_2,2026.1.1,Win32,60.60606061,693288d74d0b087449ff136e,69b92ab4aef6dee357cd729a,69b92b4b524a1b82cb82930f,0.0227,0.0227,0,76,76,1,1,onethree,,,,,,,,,,,,,,,,,,,,,,,,,,,,,,,,,,,,,,,,,,,,,,,,,,,,,,,,,,,,,,,,,,,,,,,,,,,,,,,,,,,,,,,,,,,,,,,,,,,,,,,,,,,,,,,,,,,,,,,,,,,,,,,,,,,,,,,,,
,,693288d74d0b087449ff136e,2026-03-17_11h25.15.904,kallum_motion_pilot_GIST_update_2,2026.1.1,Win32,60.60606061,693288d74d0b087449ff136e,69b92ab4aef6dee357cd729a,69b92b4b524a1b82cb82930f,0.0229,0.0229,0,77,77,150,1,eightsix,,,,,,,,,,,,,,,,,,,,,,,,,,,,,,,,,,,,,,,,,,,,,,,,,,,,,,,,,,,,,,,,,,,,,,,,,,,,,,,,,,,,,,,,,,,,,,,,,,,,,,,,,,,,,,,,,,,,,,,,,,,,,,,,,,,,,,,,,
,,693288d74d0b087449ff136e,2026-03-17_11h25.15.904,kallum_motion_pilot_GIST_update_2,2026.1.1,Win32,60.60606061,693288d74d0b087449ff136e,69b92ab4aef6dee357cd729a,69b92b4b524a1b82cb82930f,0.023,0.023,0,78,78,33,1,onethree,,,,,,,,,,,,,,,,,,,,,,,,,,,,,,,,,,,,,,,,,,,,,,,,,,,,,,,,,,,,,,,,,,,,,,,,,,,,,,,,,,,,,,,,,,,,,,,,,,,,,,,,,,,,,,,,,,,,,,,,,,,,,,,,,,,,,,,,,
,,693288d74d0b087449ff136e,2026-03-17_11h25.15.904,kallum_motion_pilot_GIST_update_2,2026.1.1,Win32,60.60606061,693288d74d0b087449ff136e,69b92ab4aef6dee357cd729a,69b92b4b524a1b82cb82930f,0.0231,0.0231,0,79,79,8,1,onetwo,,,,,,,,,,,,,,,,,,,,,,,,,,,,,,,,,,,,,,,,,,,,,,,,,,,,,,,,,,,,,,,,,,,,,,,,,,,,,,,,,,,,,,,,,,,,,,,,,,,,,,,,,,,,,,,,,,,,,,,,,,,,,,,,,,,,,,,,,
,,693288d74d0b087449ff136e,2026-03-17_11h25.15.904,kallum_motion_pilot_GIST_update_2,2026.1.1,Win32,60.60606061,693288d74d0b087449ff136e,69b92ab4aef6dee357cd729a,69b92b4b524a1b82cb82930f,0.0231,0.0231,0,80,80,61,1,threefour,,,,,,,,,,,,,,,,,,,,,,,,,,,,,,,,,,,,,,,,,,,,,,,,,,,,,,,,,,,,,,,,,,,,,,,,,,,,,,,,,,,,,,,,,,,,,,,,,,,,,,,,,,,,,,,,,,,,,,,,,,,,,,,,,,,,,,,,,
,,693288d74d0b087449ff136e,2026-03-17_11h25.15.904,kallum_motion_pilot_GIST_update_2,2026.1.1,Win32,60.60606061,693288d74d0b087449ff136e,69b92ab4aef6dee357cd729a,69b92b4b524a1b82cb82930f,0.0232,0.0232,0,81,81,35,1,twofour,,,,,,,,,,,,,,,,,,,,,,,,,,,,,,,,,,,,,,,,,,,,,,,,,,,,,,,,,,,,,,,,,,,,,,,,,,,,,,,,,,,,,,,,,,,,,,,,,,,,,,,,,,,,,,,,,,,,,,,,,,,,,,,,,,,,,,,,,
,,693288d74d0b087449ff136e,2026-03-17_11h25.15.904,kallum_motion_pilot_GIST_update_2,2026.1.1,Win32,60.60606061,693288d74d0b087449ff136e,69b92ab4aef6dee357cd729a,69b92b4b524a1b82cb82930f,0.0232,0.0232,0,82,82,132,1,sevenfive,,,,,,,,,,,,,,,,,,,,,,,,,,,,,,,,,,,,,,,,,,,,,,,,,,,,,,,,,,,,,,,,,,,,,,,,,,,,,,,,,,,,,,,,,,,,,,,,,,,,,,,,,,,,,,,,,,,,,,,,,,,,,,,,,,,,,,,,,
,,693288d74d0b087449ff136e,2026-03-17_11h25.15.904,kallum_motion_pilot_GIST_update_2,2026.1.1,Win32,60.60606061,693288d74d0b087449ff136e,69b92ab4aef6dee357cd729a,69b92b4b524a1b82cb82930f,0.0234,0.0234,0,83,83,82,1,sixfive,,,,,,,,,,,,,,,,,,,,,,,,,,,,,,,,,,,,,,,,,,,,,,,,,,,,,,,,,,,,,,,,,,,,,,,,,,,,,,,,,,,,,,,,,,,,,,,,,,,,,,,,,,,,,,,,,,,,,,,,,,,,,,,,,,,,,,,,,
,,693288d74d0b087449ff136e,2026-03-17_11h25.15.904,kallum_motion_pilot_GIST_update_2,2026.1.1,Win32,60.60606061,693288d74d0b087449ff136e,69b92ab4aef6dee357cd729a,69b92b4b524a1b82cb82930f,0.0235,0.0235,0,84,84,20,1,threeone,,,,,,,,,,,,,,,,,,,,,,,,,,,,,,,,,,,,,,,,,,,,,,,,,,,,,,,,,,,,,,,,,,,,,,,,,,,,,,,,,,,,,,,,,,,,,,,,,,,,,,,,,,,,,,,,,,,,,,,,,,,,,,,,,,,,,,,,,
,,693288d74d0b087449ff136e,2026-03-17_11h25.15.904,kallum_motion_pilot_GIST_update_2,2026.1.1,Win32,60.60606061,693288d74d0b087449ff136e,69b92ab4aef6dee357cd729a,69b92b4b524a1b82cb82930f,0.0235,0.0235,0,85,85,147,1,sixeight,,,,,,,,,,,,,,,,,,,,,,,,,,,,,,,,,,,,,,,,,,,,,,,,,,,,,,,,,,,,,,,,,,,,,,,,,,,,,,,,,,,,,,,,,,,,,,,,,,,,,,,,,,,,,,,,,,,,,,,,,,,,,,,,,,,,,,,,,
,,693288d74d0b087449ff136e,2026-03-17_11h25.15.904,kallum_motion_pilot_GIST_update_2,2026.1.1,Win32,60.60606061,693288d74d0b087449ff136e,69b92ab4aef6dee357cd729a,69b92b4b524a1b82cb82930f,0.0236,0.0236,0,86,86,161,1,fiveseven,,,,,,,,,,,,,,,,,,,,,,,,,,,,,,,,,,,,,,,,,,,,,,,,,,,,,,,,,,,,,,,,,,,,,,,,,,,,,,,,,,,,,,,,,,,,,,,,,,,,,,,,,,,,,,,,,,,,,,,,,,,,,,,,,,,,,,,,,
,,693288d74d0b087449ff136e,2026-03-17_11h25.15.904,kallum_motion_pilot_GIST_update_2,2026.1.1,Win32,60.60606061,693288d74d0b087449ff136e,69b92ab4aef6dee357cd729a,69b92b4b524a1b82cb82930f,0.0236,0.0236,0,87,87,99,1,sixeight,,,,,,,,,,,,,,,,,,,,,,,,,,,,,,,,,,,,,,,,,,,,,,,,,,,,,,,,,,,,,,,,,,,,,,,,,,,,,,,,,,,,,,,,,,,,,,,,,,,,,,,,,,,,,,,,,,,,,,,,,,,,,,,,,,,,,,,,,
,,693288d74d0b087449ff136e,2026-03-17_11h25.15.904,kallum_motion_pilot_GIST_update_2,2026.1.1,Win32,60.60606061,693288d74d0b087449ff136e,69b92ab4aef6dee357cd729a,69b92b4b524a1b82cb82930f,0.0237,0.0237,0,88,88,92,1,sevenfive,,,,,,,,,,,,,,,,,,,,,,,,,,,,,,,,,,,,,,,,,,,,,,,,,,,,,,,,,,,,,,,,,,,,,,,,,,,,,,,,,,,,,,,,,,,,,,,,,,,,,,,,,,,,,,,,,,,,,,,,,,,,,,,,,,,,,,,,,
,,693288d74d0b087449ff136e,2026-03-17_11h25.15.904,kallum_motion_pilot_GIST_update_2,2026.1.1,Win32,60.60606061,693288d74d0b087449ff136e,69b92ab4aef6dee357cd729a,69b92b4b524a1b82cb82930f,0.0239,0.0239,0,89,89,53,1,threefour,,,,,,,,,,,,,,,,,,,,,,,,,,,,,,,,,,,,,,,,,,,,,,,,,,,,,,,,,,,,,,,,,,,,,,,,,,,,,,,,,,,,,,,,,,,,,,,,,,,,,,,,,,,,,,,,,,,,,,,,,,,,,,,,,,,,,,,,,
,,693288d74d0b087449ff136e,2026-03-17_11h25.15.904,kallum_motion_pilot_GIST_update_2,2026.1.1,Win32,60.60606061,693288d74d0b087449ff136e,69b92ab4aef6dee357cd729a,69b92b4b524a1b82cb82930f,0.024,0.024,0,90,90,28,1,threeone,,,,,,,,,,,,,,,,,,,,,,,,,,,,,,,,,,,,,,,,,,,,,,,,,,,,,,,,,,,,,,,,,,,,,,,,,,,,,,,,,,,,,,,,,,,,,,,,,,,,,,,,,,,,,,,,,,,,,,,,,,,,,,,,,,,,,,,,,
,,693288d74d0b087449ff136e,2026-03-17_11h25.15.904,kallum_motion_pilot_GIST_update_2,2026.1.1,Win32,60.60606061,693288d74d0b087449ff136e,69b92ab4aef6dee357cd729a,69b92b4b524a1b82cb82930f,0.024,0.024,0,91,91,15,1,fourthree,,,,,,,,,,,,,,,,,,,,,,,,,,,,,,,,,,,,,,,,,,,,,,,,,,,,,,,,,,,,,,,,,,,,,,,,,,,,,,,,,,,,,,,,,,,,,,,,,,,,,,,,,,,,,,,,,,,,,,,,,,,,,,,,,,,,,,,,,
,,693288d74d0b087449ff136e,2026-03-17_11h25.15.904,kallum_motion_pilot_GIST_update_2,2026.1.1,Win32,60.60606061,693288d74d0b087449ff136e,69b92ab4aef6dee357cd729a,69b92b4b524a1b82cb82930f,0.0242,0.0242,0,92,92,3,1,twofour,,,,,,,,,,,,,,,,,,,,,,,,,,,,,,,,,,,,,,,,,,,,,,,,,,,,,,,,,,,,,,,,,,,,,,,,,,,,,,,,,,,,,,,,,,,,,,,,,,,,,,,,,,,,,,,,,,,,,,,,,,,,,,,,,,,,,,,,,
,,693288d74d0b087449ff136e,2026-03-17_11h25.15.904,kallum_motion_pilot_GIST_update_2,2026.1.1,Win32,60.60606061,693288d74d0b087449ff136e,69b92ab4aef6dee357cd729a,69b92b4b524a1b82cb82930f,0.0243,0.0243,0,93,93,36,1,threeone,,,,,,,,,,,,,,,,,,,,,,,,,,,,,,,,,,,,,,,,,,,,,,,,,,,,,,,,,,,,,,,,,,,,,,,,,,,,,,,,,,,,,,,,,,,,,,,,,,,,,,,,,,,,,,,,,,,,,,,,,,,,,,,,,,,,,,,,,
,,693288d74d0b087449ff136e,2026-03-17_11h25.15.904,kallum_motion_pilot_GIST_update_2,2026.1.1,Win32,60.60606061,693288d74d0b087449ff136e,69b92ab4aef6dee357cd729a,69b92b4b524a1b82cb82930f,0.0244,0.0244,0,94,94,89,1,fiveseven,,,,,,,,,,,,,,,,,,,,,,,,,,,,,,,,,,,,,,,,,,,,,,,,,,,,,,,,,,,,,,,,,,,,,,,,,,,,,,,,,,,,,,,,,,,,,,,,,,,,,,,,,,,,,,,,,,,,,,,,,,,,,,,,,,,,,,,,,
,,693288d74d0b087449ff136e,2026-03-17_11h25.15.904,kallum_motion_pilot_GIST_update_2,2026.1.1,Win32,60.60606061,693288d74d0b087449ff136e,69b92ab4aef6dee357cd729a,69b92b4b524a1b82cb82930f,0.0245,0.0245,0,95,95,13,1,threefour,,,,,,,,,,,,,,,,,,,,,,,,,,,,,,,,,,,,,,,,,,,,,,,,,,,,,,,,,,,,,,,,,,,,,,,,,,,,,,,,,,,,,,,,,,,,,,,,,,,,,,,,,,,,,,,,,,,,,,,,,,,,,,,,,,,,,,,,,
,,693288d74d0b087449ff136e,2026-03-17_11h25.15.904,kallum_motion_pilot_GIST_update_2,2026.1.1,Win32,60.60606061,693288d74d0b087449ff136e,69b92ab4aef6dee357cd729a,69b92b4b524a1b82cb82930f,0.0246,0.0246,0,96,96,50,1,twoone,,,,,,,,,,,,,,,,,,,,,,,,,,,,,,,,,,,,,,,,,,,,,,,,,,,,,,,,,,,,,,,,,,,,,,,,,,,,,,,,,,,,,,,,,,,,,,,,,,,,,,,,,,,,,,,,,,,,,,,,,,,,,,,,,,,,,,,,,
,,693288d74d0b087449ff136e,2026-03-17_11h25.15.904,kallum_motion_pilot_GIST_update_2,2026.1.1,Win32,60.60606061,693288d74d0b087449ff136e,69b92ab4aef6dee357cd729a,69b92b4b524a1b82cb82930f,0.0246,0.0246,0,97,97,37,1,threefour,,,,,,,,,,,,,,,,,,,,,,,,,,,,,,,,,,,,,,,,,,,,,,,,,,,,,,,,,,,,,,,,,,,,,,,,,,,,,,,,,,,,,,,,,,,,,,,,,,,,,,,,,,,,,,,,,,,,,,,,,,,,,,,,,,,,,,,,,
,,693288d74d0b087449ff136e,2026-03-17_11h25.15.904,kallum_motion_pilot_GIST_update_2,2026.1.1,Win32,60.60606061,693288d74d0b087449ff136e,69b92ab4aef6dee357cd729a,69b92b4b524a1b82cb82930f,0.0247,0.0248,0,98,98,59,1,twofour,,,,,,,,,,,,,,,,,,,,,,,,,,,,,,,,,,,,,,,,,,,,,,,,,,,,,,,,,,,,,,,,,,,,,,,,,,,,,,,,,,,,,,,,,,,,,,,,,,,,,,,,,,,,,,,,,,,,,,,,,,,,,,,,,,,,,,,,,
,,693288d74d0b087449ff136e,2026-03-17_11h25.15.904,kallum_motion_pilot_GIST_update_2,2026.1.1,Win32,60.60606061,693288d74d0b087449ff136e,69b92ab4aef6dee357cd729a,69b92b4b524a1b82cb82930f,0.0248,0.0248,0,99,99,73,1,onethree,,,,,,,,,,,,,,,,,,,,,,,,,,,,,,,,,,,,,,,,,,,,,,,,,,,,,,,,,,,,,,,,,,,,,,,,,,,,,,,,,,,,,,,,,,,,,,,,,,,,,,,,,,,,,,,,,,,,,,,,,,,,,,,,,,,,,,,,,
,,693288d74d0b087449ff136e,2026-03-17_11h25.15.904,kallum_motion_pilot_GIST_update_2,2026.1.1,Win32,60.60606061,693288d74d0b087449ff136e,69b92ab4aef6dee357cd729a,69b92b4b524a1b82cb82930f,0.0249,0.0249,0,100,100,103,1,eightseven,,,,,,,,,,,,,,,,,,,,,,,,,,,,,,,,,,,,,,,,,,,,,,,,,,,,,,,,,,,,,,,,,,,,,,,,,,,,,,,,,,,,,,,,,,,,,,,,,,,,,,,,,,,,,,,,,,,,,,,,,,,,,,,,,,,,,,,,,
,,693288d74d0b087449ff136e,2026-03-17_11h25.15.904,kallum_motion_pilot_GIST_update_2,2026.1.1,Win32,60.60606061,693288d74d0b087449ff136e,69b92ab4aef6dee357cd729a,69b92b4b524a1b82cb82930f,0.025,0.025,0,101,101,120,1,fivesix,,,,,,,,,,,,,,,,,,,,,,,,,,,,,,,,,,,,,,,,,,,,,,,,,,,,,,,,,,,,,,,,,,,,,,,,,,,,,,,,,,,,,,,,,,,,,,,,,,,,,,,,,,,,,,,,,,,,,,,,,,,,,,,,,,,,,,,,,
,,693288d74d0b087449ff136e,2026-03-17_11h25.15.904,kallum_motion_pilot_GIST_update_2,2026.1.1,Win32,60.60606061,693288d74d0b087449ff136e,69b92ab4aef6dee357cd729a,69b92b4b524a1b82cb82930f,0.025,0.025,0,102,102,131,1,sixeight,,,,,,,,,,,,,,,,,,,,,,,,,,,,,,,,,,,,,,,,,,,,,,,,,,,,,,,,,,,,,,,,,,,,,,,,,,,,,,,,,,,,,,,,,,,,,,,,,,,,,,,,,,,,,,,,,,,,,,,,,,,,,,,,,,,,,,,,,
,,693288d74d0b087449ff136e,2026-03-17_11h25.15.904,kallum_motion_pilot_GIST_update_2,2026.1.1,Win32,60.60606061,693288d74d0b087449ff136e,69b92ab4aef6dee357cd729a,69b92b4b524a1b82cb82930f,0.0252,0.0252,0,103,103,119,1,eightseven,,,,,,,,,,,,,,,,,,,,,,,,,,,,,,,,,,,,,,,,,,,,,,,,,,,,,,,,,,,,,,,,,,,,,,,,,,,,,,,,,,,,,,,,,,,,,,,,,,,,,,,,,,,,,,,,,,,,,,,,,,,,,,,,,,,,,,,,,
,,693288d74d0b087449ff136e,2026-03-17_11h25.15.904,kallum_motion_pilot_GIST_update_2,2026.1.1,Win32,60.60606061,693288d74d0b087449ff136e,69b92ab4aef6dee357cd729a,69b92b4b524a1b82cb82930f,0.0252,0.0252,0,104,104,57,1,onethree,,,,,,,,,,,,,,,,,,,,,,,,,,,,,,,,,,,,,,,,,,,,,,,,,,,,,,,,,,,,,,,,,,,,,,,,,,,,,,,,,,,,,,,,,,,,,,,,,,,,,,,,,,,,,,,,,,,,,,,,,,,,,,,,,,,,,,,,,
,,693288d74d0b087449ff136e,2026-03-17_11h25.15.904,kallum_motion_pilot_GIST_update_2,2026.1.1,Win32,60.60606061,693288d74d0b087449ff136e,69b92ab4aef6dee357cd729a,69b92b4b524a1b82cb82930f,0.0253,0.0253,0,105,105,17,1,onethree,,,,,,,,,,,,,,,,,,,,,,,,,,,,,,,,,,,,,,,,,,,,,,,,,,,,,,,,,,,,,,,,,,,,,,,,,,,,,,,,,,,,,,,,,,,,,,,,,,,,,,,,,,,,,,,,,,,,,,,,,,,,,,,,,,,,,,,,,
,,693288d74d0b087449ff136e,2026-03-17_11h25.15.904,kallum_motion_pilot_GIST_update_2,2026.1.1,Win32,60.60606061,693288d74d0b087449ff136e,69b92ab4aef6dee357cd729a,69b92b4b524a1b82cb82930f,0.0254,0.0254,0,106,106,18,1,twoone,,,,,,,,,,,,,,,,,,,,,,,,,,,,,,,,,,,,,,,,,,,,,,,,,,,,,,,,,,,,,,,,,,,,,,,,,,,,,,,,,,,,,,,,,,,,,,,,,,,,,,,,,,,,,,,,,,,,,,,,,,,,,,,,,,,,,,,,,
,,693288d74d0b087449ff136e,2026-03-17_11h25.15.904,kallum_motion_pilot_GIST_update_2,2026.1.1,Win32,60.60606061,693288d74d0b087449ff136e,69b92ab4aef6dee357cd729a,69b92b4b524a1b82cb82930f,0.0255,0.0255,0,107,107,81,1,fiveseven,,,,,,,,,,,,,,,,,,,,,,,,,,,,,,,,,,,,,,,,,,,,,,,,,,,,,,,,,,,,,,,,,,,,,,,,,,,,,,,,,,,,,,,,,,,,,,,,,,,,,,,,,,,,,,,,,,,,,,,,,,,,,,,,,,,,,,,,,
,,693288d74d0b087449ff136e,2026-03-17_11h25.15.904,kallum_motion_pilot_GIST_update_2,2026.1.1,Win32,60.60606061,693288d74d0b087449ff136e,69b92ab4aef6dee357cd729a,69b92b4b524a1b82cb82930f,0.0256,0.0256,0,108,108,47,1,fourthree,,,,,,,,,,,,,,,,,,,,,,,,,,,,,,,,,,,,,,,,,,,,,,,,,,,,,,,,,,,,,,,,,,,,,,,,,,,,,,,,,,,,,,,,,,,,,,,,,,,,,,,,,,,,,,,,,,,,,,,,,,,,,,,,,,,,,,,,,
,,693288d74d0b087449ff136e,2026-03-17_11h25.15.904,kallum_motion_pilot_GIST_update_2,2026.1.1,Win32,60.60606061,693288d74d0b087449ff136e,69b92ab4aef6dee357cd729a,69b92b4b524a1b82cb82930f,0.0256,0.0256,0,109,109,72,1,onetwo,,,,,,,,,,,,,,,,,,,,,,,,,,,,,,,,,,,,,,,,,,,,,,,,,,,,,,,,,,,,,,,,,,,,,,,,,,,,,,,,,,,,,,,,,,,,,,,,,,,,,,,,,,,,,,,,,,,,,,,,,,,,,,,,,,,,,,,,,
,,693288d74d0b087449ff136e,2026-03-17_11h25.15.904,kallum_motion_pilot_GIST_update_2,2026.1.1,Win32,60.60606061,693288d74d0b087449ff136e,69b92ab4aef6dee357cd729a,69b92b4b524a1b82cb82930f,0.0257,0.0257,0,110,110,55,1,fourthree,,,,,,,,,,,,,,,,,,,,,,,,,,,,,,,,,,,,,,,,,,,,,,,,,,,,,,,,,,,,,,,,,,,,,,,,,,,,,,,,,,,,,,,,,,,,,,,,,,,,,,,,,,,,,,,,,,,,,,,,,,,,,,,,,,,,,,,,,
,,693288d74d0b087449ff136e,2026-03-17_11h25.15.904,kallum_motion_pilot_GIST_update_2,2026.1.1,Win32,60.60606061,693288d74d0b087449ff136e,69b92ab4aef6dee357cd729a,69b92b4b524a1b82cb82930f,0.0258,0.0258,0,111,111,152,1,fivesix,,,,,,,,,,,,,,,,,,,,,,,,,,,,,,,,,,,,,,,,,,,,,,,,,,,,,,,,,,,,,,,,,,,,,,,,,,,,,,,,,,,,,,,,,,,,,,,,,,,,,,,,,,,,,,,,,,,,,,,,,,,,,,,,,,,,,,,,,
,,693288d74d0b087449ff136e,2026-03-17_11h25.15.904,kallum_motion_pilot_GIST_update_2,2026.1.1,Win32,60.60606061,693288d74d0b087449ff136e,69b92ab4aef6dee357cd729a,69b92b4b524a1b82cb82930f,0.0259,0.0259,0,112,112,134,1,eightsix,,,,,,,,,,,,,,,,,,,,,,,,,,,,,,,,,,,,,,,,,,,,,,,,,,,,,,,,,,,,,,,,,,,,,,,,,,,,,,,,,,,,,,,,,,,,,,,,,,,,,,,,,,,,,,,,,,,,,,,,,,,,,,,,,,,,,,,,,
,,693288d74d0b087449ff136e,2026-03-17_11h25.15.904,kallum_motion_pilot_GIST_update_2,2026.1.1,Win32,60.60606061,693288d74d0b087449ff136e,69b92ab4aef6dee357cd729a,69b92b4b524a1b82cb82930f,0.026,0.026,0,113,113,31,1,fourthree,,,,,,,,,,,,,,,,,,,,,,,,,,,,,,,,,,,,,,,,,,,,,,,,,,,,,,,,,,,,,,,,,,,,,,,,,,,,,,,,,,,,,,,,,,,,,,,,,,,,,,,,,,,,,,,,,,,,,,,,,,,,,,,,,,,,,,,,,
,,693288d74d0b087449ff136e,2026-03-17_11h25.15.904,kallum_motion_pilot_GIST_update_2,2026.1.1,Win32,60.60606061,693288d74d0b087449ff136e,69b92ab4aef6dee357cd729a,69b92b4b524a1b82cb82930f,0.026,0.026,0,114,114,54,1,fourtwo,,,,,,,,,,,,,,,,,,,,,,,,,,,,,,,,,,,,,,,,,,,,,,,,,,,,,,,,,,,,,,,,,,,,,,,,,,,,,,,,,,,,,,,,,,,,,,,,,,,,,,,,,,,,,,,,,,,,,,,,,,,,,,,,,,,,,,,,,
,,693288d74d0b087449ff136e,2026-03-17_11h25.15.904,kallum_motion_pilot_GIST_update_2,2026.1.1,Win32,60.60606061,693288d74d0b087449ff136e,69b92ab4aef6dee357cd729a,69b92b4b524a1b82cb82930f,0.0262,0.0262,0,115,115,145,1,fiveseven,,,,,,,,,,,,,,,,,,,,,,,,,,,,,,,,,,,,,,,,,,,,,,,,,,,,,,,,,,,,,,,,,,,,,,,,,,,,,,,,,,,,,,,,,,,,,,,,,,,,,,,,,,,,,,,,,,,,,,,,,,,,,,,,,,,,,,,,,
,,693288d74d0b087449ff136e,2026-03-17_11h25.15.904,kallum_motion_pilot_GIST_update_2,2026.1.1,Win32,60.60606061,693288d74d0b087449ff136e,69b92ab4aef6dee357cd729a,69b92b4b524a1b82cb82930f,0.0262,0.0262,0,116,116,101,1,seveneight,,,,,,,,,,,,,,,,,,,,,,,,,,,,,,,,,,,,,,,,,,,,,,,,,,,,,,,,,,,,,,,,,,,,,,,,,,,,,,,,,,,,,,,,,,,,,,,,,,,,,,,,,,,,,,,,,,,,,,,,,,,,,,,,,,,,,,,,,
,,693288d74d0b087449ff136e,2026-03-17_11h25.15.904,kallum_motion_pilot_GIST_update_2,2026.1.1,Win32,60.60606061,693288d74d0b087449ff136e,69b92ab4aef6dee357cd729a,69b92b4b524a1b82cb82930f,0.0263,0.0263,0,117,117,127,1,eightseven,,,,,,,,,,,,,,,,,,,,,,,,,,,,,,,,,,,,,,,,,,,,,,,,,,,,,,,,,,,,,,,,,,,,,,,,,,,,,,,,,,,,,,,,,,,,,,,,,,,,,,,,,,,,,,,,,,,,,,,,,,,,,,,,,,,,,,,,,
,,693288d74d0b087449ff136e,2026-03-17_11h25.15.904,kallum_motion_pilot_GIST_update_2,2026.1.1,Win32,60.60606061,693288d74d0b087449ff136e,69b92ab4aef6dee357cd729a,69b92b4b524a1b82cb82930f,0.0264,0.0264,0,118,118,100,1,sevenfive,,,,,,,,,,,,,,,,,,,,,,,,,,,,,,,,,,,,,,,,,,,,,,,,,,,,,,,,,,,,,,,,,,,,,,,,,,,,,,,,,,,,,,,,,,,,,,,,,,,,,,,,,,,,,,,,,,,,,,,,,,,,,,,,,,,,,,,,,
,,693288d74d0b087449ff136e,2026-03-17_11h25.15.904,kallum_motion_pilot_GIST_update_2,2026.1.1,Win32,60.60606061,693288d74d0b087449ff136e,69b92ab4aef6dee357cd729a,69b92b4b524a1b82cb82930f,0.0265,0.0265,0,119,119,123,1,sixeight,,,,,,,,,,,,,,,,,,,,,,,,,,,,,,,,,,,,,,,,,,,,,,,,,,,,,,,,,,,,,,,,,,,,,,,,,,,,,,,,,,,,,,,,,,,,,,,,,,,,,,,,,,,,,,,,,,,,,,,,,,,,,,,,,,,,,,,,,
,,693288d74d0b087449ff136e,2026-03-17_11h25.15.904,kallum_motion_pilot_GIST_update_2,2026.1.1,Win32,60.60606061,693288d74d0b087449ff136e,69b92ab4aef6dee357cd729a,69b92b4b524a1b82cb82930f,0.0265,0.0265,0,120,120,130,1,sixfive,,,,,,,,,,,,,,,,,,,,,,,,,,,,,,,,,,,,,,,,,,,,,,,,,,,,,,,,,,,,,,,,,,,,,,,,,,,,,,,,,,,,,,,,,,,,,,,,,,,,,,,,,,,,,,,,,,,,,,,,,,,,,,,,,,,,,,,,,
,,693288d74d0b087449ff136e,2026-03-17_11h25.15.904,kallum_motion_pilot_GIST_update_2,2026.1.1,Win32,60.60606061,693288d74d0b087449ff136e,69b92ab4aef6dee357cd729a,69b92b4b524a1b82cb82930f,0.0266,0.0266,0,121,121,115,1,sixeight,,,,,,,,,,,,,,,,,,,,,,,,,,,,,,,,,,,,,,,,,,,,,,,,,,,,,,,,,,,,,,,,,,,,,,,,,,,,,,,,,,,,,,,,,,,,,,,,,,,,,,,,,,,,,,,,,,,,,,,,,,,,,,,,,,,,,,,,,
,,693288d74d0b087449ff136e,2026-03-17_11h25.15.904,kallum_motion_pilot_GIST_update_2,2026.1.1,Win32,60.60606061,693288d74d0b087449ff136e,69b92ab4aef6dee357cd729a,69b92b4b524a1b82cb82930f,0.0267,0.0267,0,122,122,79,1,eightseven,,,,,,,,,,,,,,,,,,,,,,,,,,,,,,,,,,,,,,,,,,,,,,,,,,,,,,,,,,,,,,,,,,,,,,,,,,,,,,,,,,,,,,,,,,,,,,,,,,,,,,,,,,,,,,,,,,,,,,,,,,,,,,,,,,,,,,,,,
,,693288d74d0b087449ff136e,2026-03-17_11h25.15.904,kallum_motion_pilot_GIST_update_2,2026.1.1,Win32,60.60606061,693288d74d0b087449ff136e,69b92ab4aef6dee357cd729a,69b92b4b524a1b82cb82930f,0.0267,0.0267,0,123,123,153,1,fiveseven,,,,,,,,,,,,,,,,,,,,,,,,,,,,,,,,,,,,,,,,,,,,,,,,,,,,,,,,,,,,,,,,,,,,,,,,,,,,,,,,,,,,,,,,,,,,,,,,,,,,,,,,,,,,,,,,,,,,,,,,,,,,,,,,,,,,,,,,,
,,693288d74d0b087449ff136e,2026-03-17_11h25.15.904,kallum_motion_pilot_GIST_update_2,2026.1.1,Win32,60.60606061,693288d74d0b087449ff136e,69b92ab4aef6dee357cd729a,69b92b4b524a1b82cb82930f,0.0269,0.0269,0,124,124,63,1,fourthree,,,,,,,,,,,,,,,,,,,,,,,,,,,,,,,,,,,,,,,,,,,,,,,,,,,,,,,,,,,,,,,,,,,,,,,,,,,,,,,,,,,,,,,,,,,,,,,,,,,,,,,,,,,,,,,,,,,,,,,,,,,,,,,,,,,,,,,,,
,,693288d74d0b087449ff136e,2026-03-17_11h25.15.904,kallum_motion_pilot_GIST_update_2,2026.1.1,Win32,60.60606061,693288d74d0b087449ff136e,69b92ab4aef6dee357cd729a,69b92b4b524a1b82cb82930f,0.027,0.027,0,125,125,26,1,twoone,,,,,,,,,,,,,,,,,,,,,,,,,,,,,,,,,,,,,,,,,,,,,,,,,,,,,,,,,,,,,,,,,,,,,,,,,,,,,,,,,,,,,,,,,,,,,,,,,,,,,,,,,,,,,,,,,,,,,,,,,,,,,,,,,,,,,,,,,
,,693288d74d0b087449ff136e,2026-03-17_11h25.15.904,kallum_motion_pilot_GIST_update_2,2026.1.1,Win32,60.60606061,693288d74d0b087449ff136e,69b92ab4aef6dee357cd729a,69b92b4b524a1b82cb82930f,0.027,0.027,0,126,126,125,1,seveneight,,,,,,,,,,,,,,,,,,,,,,,,,,,,,,,,,,,,,,,,,,,,,,,,,,,,,,,,,,,,,,,,,,,,,,,,,,,,,,,,,,,,,,,,,,,,,,,,,,,,,,,,,,,,,,,,,,,,,,,,,,,,,,,,,,,,,,,,,
,,693288d74d0b087449ff136e,2026-03-17_11h25.15.904,kallum_motion_pilot_GIST_update_2,2026.1.1,Win32,60.60606061,693288d74d0b087449ff136e,69b92ab4aef6dee357cd729a,69b92b4b524a1b82cb82930f,0.0272,0.0272,0,127,127,19,1,twofour,,,,,,,,,,,,,,,,,,,,,,,,,,,,,,,,,,,,,,,,,,,,,,,,,,,,,,,,,,,,,,,,,,,,,,,,,,,,,,,,,,,,,,,,,,,,,,,,,,,,,,,,,,,,,,,,,,,,,,,,,,,,,,,,,,,,,,,,,
,,693288d74d0b087449ff136e,2026-03-17_11h25.15.904,kallum_motion_pilot_GIST_update_2,2026.1.1,Win32,60.60606061,693288d74d0b087449ff136e,69b92ab4aef6dee357cd729a,69b92b4b524a1b82cb82930f,0.0272,0.0272,0,128,128,29,1,threefour,,,,,,,,,,,,,,,,,,,,,,,,,,,,,,,,,,,,,,,,,,,,,,,,,,,,,,,,,,,,,,,,,,,,,,,,,,,,,,,,,,,,,,,,,,,,,,,,,,,,,,,,,,,,,,,,,,,,,,,,,,,,,,,,,,,,,,,,,
,,693288d74d0b087449ff136e,2026-03-17_11h25.15.904,kallum_motion_pilot_GIST_update_2,2026.1.1,Win32,60.60606061,693288d74d0b087449ff136e,69b92ab4aef6dee357cd729a,69b92b4b524a1b82cb82930f,0.0273,0.0273,0,129,129,4,1,threeone,,,,,,,,,,,,,,,,,,,,,,,,,,,,,,,,,,,,,,,,,,,,,,,,,,,,,,,,,,,,,,,,,,,,,,,,,,,,,,,,,,,,,,,,,,,,,,,,,,,,,,,,,,,,,,,,,,,,,,,,,,,,,,,,,,,,,,,,,
,,693288d74d0b087449ff136e,2026-03-17_11h25.15.904,kallum_motion_pilot_GIST_update_2,2026.1.1,Win32,60.60606061,693288d74d0b087449ff136e,69b92ab4aef6dee357cd729a,69b92b4b524a1b82cb82930f,0.0274,0.0274,0,130,130,154,1,sixfive,,,,,,,,,,,,,,,,,,,,,,,,,,,,,,,,,,,,,,,,,,,,,,,,,,,,,,,,,,,,,,,,,,,,,,,,,,,,,,,,,,,,,,,,,,,,,,,,,,,,,,,,,,,,,,,,,,,,,,,,,,,,,,,,,,,,,,,,,
,,693288d74d0b087449ff136e,2026-03-17_11h25.15.904,kallum_motion_pilot_GIST_update_2,2026.1.1,Win32,60.60606061,693288d74d0b087449ff136e,69b92ab4aef6dee357cd729a,69b92b4b524a1b82cb82930f,0.0275,0.0275,0,131,131,10,1,twoone,,,,,,,,,,,,,,,,,,,,,,,,,,,,,,,,,,,,,,,,,,,,,,,,,,,,,,,,,,,,,,,,,,,,,,,,,,,,,,,,,,,,,,,,,,,,,,,,,,,,,,,,,,,,,,,,,,,,,,,,,,,,,,,,,,,,,,,,,
,,693288d74d0b087449ff136e,2026-03-17_11h25.15.904,kallum_motion_pilot_GIST_update_2,2026.1.1,Win32,60.60606061,693288d74d0b087449ff136e,69b92ab4aef6dee357cd729a,69b92b4b524a1b82cb82930f,0.0275,0.0275,0,132,132,2,1,twoone,,,,,,,,,,,,,,,,,,,,,,,,,,,,,,,,,,,,,,,,,,,,,,,,,,,,,,,,,,,,,,,,,,,,,,,,,,,,,,,,,,,,,,,,,,,,,,,,,,,,,,,,,,,,,,,,,,,,,,,,,,,,,,,,,,,,,,,,,
,,693288d74d0b087449ff136e,2026-03-17_11h25.15.904,kallum_motion_pilot_GIST_update_2,2026.1.1,Win32,60.60606061,693288d74d0b087449ff136e,69b92ab4aef6dee357cd729a,69b92b4b524a1b82cb82930f,0.0276,0.0276,0,133,133,84,1,sevenfive,,,,,,,,,,,,,,,,,,,,,,,,,,,,,,,,,,,,,,,,,,,,,,,,,,,,,,,,,,,,,,,,,,,,,,,,,,,,,,,,,,,,,,,,,,,,,,,,,,,,,,,,,,,,,,,,,,,,,,,,,,,,,,,,,,,,,,,,,
,,693288d74d0b087449ff136e,2026-03-17_11h25.15.904,kallum_motion_pilot_GIST_update_2,2026.1.1,Win32,60.60606061,693288d74d0b087449ff136e,69b92ab4aef6dee357cd729a,69b92b4b524a1b82cb82930f,0.0277,0.0277,0,134,134,97,1,fiveseven,,,,,,,,,,,,,,,,,,,,,,,,,,,,,,,,,,,,,,,,,,,,,,,,,,,,,,,,,,,,,,,,,,,,,,,,,,,,,,,,,,,,,,,,,,,,,,,,,,,,,,,,,,,,,,,,,,,,,,,,,,,,,,,,,,,,,,,,,
,,693288d74d0b087449ff136e,2026-03-17_11h25.15.904,kallum_motion_pilot_GIST_update_2,2026.1.1,Win32,60.60606061,693288d74d0b087449ff136e,69b92ab4aef6dee357cd729a,69b92b4b524a1b82cb82930f,0.0278,0.0278,0,135,135,42,1,twoone,,,,,,,,,,,,,,,,,,,,,,,,,,,,,,,,,,,,,,,,,,,,,,,,,,,,,,,,,,,,,,,,,,,,,,,,,,,,,,,,,,,,,,,,,,,,,,,,,,,,,,,,,,,,,,,,,,,,,,,,,,,,,,,,,,,,,,,,,
,,693288d74d0b087449ff136e,2026-03-17_11h25.15.904,kallum_motion_pilot_GIST_update_2,2026.1.1,Win32,60.60606061,693288d74d0b087449ff136e,69b92ab4aef6dee357cd729a,69b92b4b524a1b82cb82930f,0.0279,0.0279,0,136,136,25,1,onethree,,,,,,,,,,,,,,,,,,,,,,,,,,,,,,,,,,,,,,,,,,,,,,,,,,,,,,,,,,,,,,,,,,,,,,,,,,,,,,,,,,,,,,,,,,,,,,,,,,,,,,,,,,,,,,,,,,,,,,,,,,,,,,,,,,,,,,,,,
,,693288d74d0b087449ff136e,2026-03-17_11h25.15.904,kallum_motion_pilot_GIST_update_2,2026.1.1,Win32,60.60606061,693288d74d0b087449ff136e,69b92ab4aef6dee357cd729a,69b92b4b524a1b82cb82930f,0.028,0.028,0,137,137,46,1,fourtwo,,,,,,,,,,,,,,,,,,,,,,,,,,,,,,,,,,,,,,,,,,,,,,,,,,,,,,,,,,,,,,,,,,,,,,,,,,,,,,,,,,,,,,,,,,,,,,,,,,,,,,,,,,,,,,,,,,,,,,,,,,,,,,,,,,,,,,,,,
,,693288d74d0b087449ff136e,2026-03-17_11h25.15.904,kallum_motion_pilot_GIST_update_2,2026.1.1,Win32,60.60606061,693288d74d0b087449ff136e,69b92ab4aef6dee357cd729a,69b92b4b524a1b82cb82930f,0.0281,0.0281,0,138,138,77,1,threefour,,,,,,,,,,,,,,,,,,,,,,,,,,,,,,,,,,,,,,,,,,,,,,,,,,,,,,,,,,,,,,,,,,,,,,,,,,,,,,,,,,,,,,,,,,,,,,,,,,,,,,,,,,,,,,,,,,,,,,,,,,,,,,,,,,,,,,,,,
,,693288d74d0b087449ff136e,2026-03-17_11h25.15.904,kallum_motion_pilot_GIST_update_2,2026.1.1,Win32,60.60606061,693288d74d0b087449ff136e,69b92ab4aef6dee357cd729a,69b92b4b524a1b82cb82930f,0.0282,0.0282,0,139,139,159,1,eightseven,,,,,,,,,,,,,,,,,,,,,,,,,,,,,,,,,,,,,,,,,,,,,,,,,,,,,,,,,,,,,,,,,,,,,,,,,,,,,,,,,,,,,,,,,,,,,,,,,,,,,,,,,,,,,,,,,,,,,,,,,,,,,,,,,,,,,,,,,
,,693288d74d0b087449ff136e,2026-03-17_11h25.15.904,kallum_motion_pilot_GIST_update_2,2026.1.1,Win32,60.60606061,693288d74d0b087449ff136e,69b92ab4aef6dee357cd729a,69b92b4b524a1b82cb82930f,0.0283,0.0283,0,140,140,157,1,seveneight,,,,,,,,,,,,,,,,,,,,,,,,,,,,,,,,,,,,,,,,,,,,,,,,,,,,,,,,,,,,,,,,,,,,,,,,,,,,,,,,,,,,,,,,,,,,,,,,,,,,,,,,,,,,,,,,,,,,,,,,,,,,,,,,,,,,,,,,,
,,693288d74d0b087449ff136e,2026-03-17_11h25.15.904,kallum_motion_pilot_GIST_update_2,2026.1.1,Win32,60.60606061,693288d74d0b087449ff136e,69b92ab4aef6dee357cd729a,69b92b4b524a1b82cb82930f,0.0283,0.0283,0,141,141,70,1,fourtwo,,,,,,,,,,,,,,,,,,,,,,,,,,,,,,,,,,,,,,,,,,,,,,,,,,,,,,,,,,,,,,,,,,,,,,,,,,,,,,,,,,,,,,,,,,,,,,,,,,,,,,,,,,,,,,,,,,,,,,,,,,,,,,,,,,,,,,,,,
,,693288d74d0b087449ff136e,2026-03-17_11h25.15.904,kallum_motion_pilot_GIST_update_2,2026.1.1,Win32,60.60606061,693288d74d0b087449ff136e,69b92ab4aef6dee357cd729a,69b92b4b524a1b82cb82930f,0.0284,0.0284,0,142,142,143,1,eightseven,,,,,,,,,,,,,,,,,,,,,,,,,,,,,,,,,,,,,,,,,,,,,,,,,,,,,,,,,,,,,,,,,,,,,,,,,,,,,,,,,,,,,,,,,,,,,,,,,,,,,,,,,,,,,,,,,,,,,,,,,,,,,,,,,,,,,,,,,
,,693288d74d0b087449ff136e,2026-03-17_11h25.15.904,kallum_motion_pilot_GIST_update_2,2026.1.1,Win32,60.60606061,693288d74d0b087449ff136e,69b92ab4aef6dee357cd729a,69b92b4b524a1b82cb82930f,0.0285,0.0285,0,143,143,24,1,onetwo,,,,,,,,,,,,,,,,,,,,,,,,,,,,,,,,,,,,,,,,,,,,,,,,,,,,,,,,,,,,,,,,,,,,,,,,,,,,,,,,,,,,,,,,,,,,,,,,,,,,,,,,,,,,,,,,,,,,,,,,,,,,,,,,,,,,,,,,,
,,693288d74d0b087449ff136e,2026-03-17_11h25.15.904,kallum_motion_pilot_GIST_update_2,2026.1.1,Win32,60.60606061,693288d74d0b087449ff136e,69b92ab4aef6dee357cd729a,69b92b4b524a1b82cb82930f,0.0285,0.0285,0,144,144,62,1,fourtwo,,,,,,,,,,,,,,,,,,,,,,,,,,,,,,,,,,,,,,,,,,,,,,,,,,,,,,,,,,,,,,,,,,,,,,,,,,,,,,,,,,,,,,,,,,,,,,,,,,,,,,,,,,,,,,,,,,,,,,,,,,,,,,,,,,,,,,,,,
,,693288d74d0b087449ff136e,2026-03-17_11h25.15.904,kallum_motion_pilot_GIST_update_2,2026.1.1,Win32,60.60606061,693288d74d0b087449ff136e,69b92ab4aef6dee357cd729a,69b92b4b524a1b82cb82930f,0.0286,0.0286,0,145,145,102,1,eightsix,,,,,,,,,,,,,,,,,,,,,,,,,,,,,,,,,,,,,,,,,,,,,,,,,,,,,,,,,,,,,,,,,,,,,,,,,,,,,,,,,,,,,,,,,,,,,,,,,,,,,,,,,,,,,,,,,,,,,,,,,,,,,,,,,,,,,,,,,
,,693288d74d0b087449ff136e,2026-03-17_11h25.15.904,kallum_motion_pilot_GIST_update_2,2026.1.1,Win32,60.60606061,693288d74d0b087449ff136e,69b92ab4aef6dee357cd729a,69b92b4b524a1b82cb82930f,0.0288,0.0288,0,146,146,44,1,threeone,,,,,,,,,,,,,,,,,,,,,,,,,,,,,,,,,,,,,,,,,,,,,,,,,,,,,,,,,,,,,,,,,,,,,,,,,,,,,,,,,,,,,,,,,,,,,,,,,,,,,,,,,,,,,,,,,,,,,,,,,,,,,,,,,,,,,,,,,
,,693288d74d0b087449ff136e,2026-03-17_11h25.15.904,kallum_motion_pilot_GIST_update_2,2026.1.1,Win32,60.60606061,693288d74d0b087449ff136e,69b92ab4aef6dee357cd729a,69b92b4b524a1b82cb82930f,0.0288,0.0288,0,147,147,80,1,fivesix,,,,,,,,,,,,,,,,,,,,,,,,,,,,,,,,,,,,,,,,,,,,,,,,,,,,,,,,,,,,,,,,,,,,,,,,,,,,,,,,,,,,,,,,,,,,,,,,,,,,,,,,,,,,,,,,,,,,,,,,,,,,,,,,,,,,,,,,,
,,693288d74d0b087449ff136e,2026-03-17_11h25.15.904,kallum_motion_pilot_GIST_update_2,2026.1.1,Win32,60.60606061,693288d74d0b087449ff136e,69b92ab4aef6dee357cd729a,69b92b4b524a1b82cb82930f,0.0289,0.0289,0,148,148,39,1,fourthree,,,,,,,,,,,,,,,,,,,,,,,,,,,,,,,,,,,,,,,,,,,,,,,,,,,,,,,,,,,,,,,,,,,,,,,,,,,,,,,,,,,,,,,,,,,,,,,,,,,,,,,,,,,,,,,,,,,,,,,,,,,,,,,,,,,,,,,,,
,,693288d74d0b087449ff136e,2026-03-17_11h25.15.904,kallum_motion_pilot_GIST_update_2,2026.1.1,Win32,60.60606061,693288d74d0b087449ff136e,69b92ab4aef6dee357cd729a,69b92b4b524a1b82cb82930f,0.029,0.029,0,149,149,64,1,onetwo,,,,,,,,,,,,,,,,,,,,,,,,,,,,,,,,,,,,,,,,,,,,,,,,,,,,,,,,,,,,,,,,,,,,,,,,,,,,,,,,,,,,,,,,,,,,,,,,,,,,,,,,,,,,,,,,,,,,,,,,,,,,,,,,,,,,,,,,,
,,693288d74d0b087449ff136e,2026-03-17_11h25.15.904,kallum_motion_pilot_GIST_update_2,2026.1.1,Win32,60.60606061,693288d74d0b087449ff136e,69b92ab4aef6dee357cd729a,69b92b4b524a1b82cb82930f,0.0291,0.0291,0,150,150,109,1,seveneight,,,,,,,,,,,,,,,,,,,,,,,,,,,,,,,,,,,,,,,,,,,,,,,,,,,,,,,,,,,,,,,,,,,,,,,,,,,,,,,,,,,,,,,,,,,,,,,,,,,,,,,,,,,,,,,,,,,,,,,,,,,,,,,,,,,,,,,,,
,,693288d74d0b087449ff136e,2026-03-17_11h25.15.904,kallum_motion_pilot_GIST_update_2,2026.1.1,Win32,60.60606061,693288d74d0b087449ff136e,69b92ab4aef6dee357cd729a,69b92b4b524a1b82cb82930f,0.0291,0.0291,0,151,151,108,1,sevenfive,,,,,,,,,,,,,,,,,,,,,,,,,,,,,,,,,,,,,,,,,,,,,,,,,,,,,,,,,,,,,,,,,,,,,,,,,,,,,,,,,,,,,,,,,,,,,,,,,,,,,,,,,,,,,,,,,,,,,,,,,,,,,,,,,,,,,,,,,
,,693288d74d0b087449ff136e,2026-03-17_11h25.15.904,kallum_motion_pilot_GIST_update_2,2026.1.1,Win32,60.60606061,693288d74d0b087449ff136e,69b92ab4aef6dee357cd729a,69b92b4b524a1b82cb82930f,0.0292,0.0292,0,152,152,136,1,fivesix,,,,,,,,,,,,,,,,,,,,,,,,,,,,,,,,,,,,,,,,,,,,,,,,,,,,,,,,,,,,,,,,,,,,,,,,,,,,,,,,,,,,,,,,,,,,,,,,,,,,,,,,,,,,,,,,,,,,,,,,,,,,,,,,,,,,,,,,,
,,693288d74d0b087449ff136e,2026-03-17_11h25.15.904,kallum_motion_pilot_GIST_update_2,2026.1.1,Win32,60.60606061,693288d74d0b087449ff136e,69b92ab4aef6dee357cd729a,69b92b4b524a1b82cb82930f,0.0293,0.0293,0,153,153,38,1,fourtwo,,,,,,,,,,,,,,,,,,,,,,,,,,,,,,,,,,,,,,,,,,,,,,,,,,,,,,,,,,,,,,,,,,,,,,,,,,,,,,,,,,,,,,,,,,,,,,,,,,,,,,,,,,,,,,,,,,,,,,,,,,,,,,,,,,,,,,,,,
,,693288d74d0b087449ff136e,2026-03-17_11h25.15.904,kallum_motion_pilot_GIST_update_2,2026.1.1,Win32,60.60606061,693288d74d0b087449ff136e,69b92ab4aef6dee357cd729a,69b92b4b524a1b82cb82930f,0.0294,0.0294,0,154,154,45,1,threefour,,,,,,,,,,,,,,,,,,,,,,,,,,,,,,,,,,,,,,,,,,,,,,,,,,,,,,,,,,,,,,,,,,,,,,,,,,,,,,,,,,,,,,,,,,,,,,,,,,,,,,,,,,,,,,,,,,,,,,,,,,,,,,,,,,,,,,,,,
,,693288d74d0b087449ff136e,2026-03-17_11h25.15.904,kallum_motion_pilot_GIST_update_2,2026.1.1,Win32,60.60606061,693288d74d0b087449ff136e,69b92ab4aef6dee357cd729a,69b92b4b524a1b82cb82930f,0.0295,0.0295,0,155,155,14,1,fourtwo,,,,,,,,,,,,,,,,,,,,,,,,,,,,,,,,,,,,,,,,,,,,,,,,,,,,,,,,,,,,,,,,,,,,,,,,,,,,,,,,,,,,,,,,,,,,,,,,,,,,,,,,,,,,,,,,,,,,,,,,,,,,,,,,,,,,,,,,,
,,693288d74d0b087449ff136e,2026-03-17_11h25.15.904,kallum_motion_pilot_GIST_update_2,2026.1.1,Win32,60.60606061,693288d74d0b087449ff136e,69b92ab4aef6dee357cd729a,69b92b4b524a1b82cb82930f,0.0296,0.0296,0,156,156,144,1,fivesix,,,,,,,,,,,,,,,,,,,,,,,,,,,,,,,,,,,,,,,,,,,,,,,,,,,,,,,,,,,,,,,,,,,,,,,,,,,,,,,,,,,,,,,,,,,,,,,,,,,,,,,,,,,,,,,,,,,,,,,,,,,,,,,,,,,,,,,,,
,,693288d74d0b087449ff136e,2026-03-17_11h25.15.904,kallum_motion_pilot_GIST_update_2,2026.1.1,Win32,60.60606061,693288d74d0b087449ff136e,69b92ab4aef6dee357cd729a,69b92b4b524a1b82cb82930f,0.0297,0.0297,0,157,157,91,1,sixeight,,,,,,,,,,,,,,,,,,,,,,,,,,,,,,,,,,,,,,,,,,,,,,,,,,,,,,,,,,,,,,,,,,,,,,,,,,,,,,,,,,,,,,,,,,,,,,,,,,,,,,,,,,,,,,,,,,,,,,,,,,,,,,,,,,,,,,,,,
,,693288d74d0b087449ff136e,2026-03-17_11h25.15.904,kallum_motion_pilot_GIST_update_2,2026.1.1,Win32,60.60606061,693288d74d0b087449ff136e,69b92ab4aef6dee357cd729a,69b92b4b524a1b82cb82930f,0.0298,0.0298,0,158,158,27,1,twofour,,,,,,,,,,,,,,,,,,,,,,,,,,,,,,,,,,,,,,,,,,,,,,,,,,,,,,,,,,,,,,,,,,,,,,,,,,,,,,,,,,,,,,,,,,,,,,,,,,,,,,,,,,,,,,,,,,,,,,,,,,,,,,,,,,,,,,,,,
,,693288d74d0b087449ff136e,2026-03-17_11h25.15.904,kallum_motion_pilot_GIST_update_2,2026.1.1,Win32,60.60606061,693288d74d0b087449ff136e,69b92ab4aef6dee357cd729a,69b92b4b524a1b82cb82930f,0.0298,0.0298,0,159,159,129,1,fiveseven,,,,,,,,,,,,,,,,,,,,,,,,,,,,,,,,,,,,,,,,,,,,,,,,,,,,,,,,,,,,,,,,,,,,,,,,,,,,,,,,,,,,,,,,,,,,,,,,,,,,,,,,,,,,,,,,,,,,,,,,,,,,,,,,,,,,,,,,,
,,693288d74d0b087449ff136e,2026-03-17_11h25.15.904,kallum_motion_pilot_GIST_update_2,2026.1.1,Win32,60.60606061,693288d74d0b087449ff136e,69b92ab4aef6dee357cd729a,69b92b4b524a1b82cb82930f,0.03,0.03,0,160,160,68,1,threeone,,,,,,,,,,,,,,,,,,,,,,,,,,,,,,,,,,,,,,,,,,,,,,,,,,,,,,,,,,,,,,,,,,,,,,,,,,,,,,,,,,,,,,,,,,,,,,,,,,,,,,,,,,,,,,,,,,,,,,,,,,,,,,,,,,,,,,,,,
,,693288d74d0b087449ff136e,2026-03-17_11h25.15.904,kallum_motion_pilot_GIST_update_2,2026.1.1,Win32,60.60606061,693288d74d0b087449ff136e,69b92ab4aef6dee357cd729a,69b92b4b524a1b82cb82930f,0.03,0.03,0,161,161,5,1,threefour,,,,,,,,,,,,,,,,,,,,,,,,,,,,,,,,,,,,,,,,,,,,,,,,,,,,,,,,,,,,,,,,,,,,,,,,,,,,,,,,,,,,,,,,,,,,,,,,,,,,,,,,,,,,,,,,,,,,,,,,,,,,,,,,,,,,,,,,,
,,693288d74d0b087449ff136e,2026-03-17_11h25.15.904,kallum_motion_pilot_GIST_update_2,2026.1.1,Win32,60.60606061,693288d74d0b087449ff136e,69b92ab4aef6dee357cd729a,69b92b4b524a1b82cb82930f,0.0301,0.0301,1,0,162,156,1,sevenfive,,,,,,,,,,,,,,,,,,,,,,,,,,,,,,,,,,,,,,,,,,,,,,,,,,,,,,,,,,,,,,,,,,,,,,,,,,,,,,,,,,,,,,,,,,,,,,,,,,,,,,,,,,,,,,,,,,,,,,,,,,,,,,,,,,,,,,,,,
,,693288d74d0b087449ff136e,2026-03-17_11h25.15.904,kallum_motion_pilot_GIST_update_2,2026.1.1,Win32,60.60606061,693288d74d0b087449ff136e,69b92ab4aef6dee357cd729a,69b92b4b524a1b82cb82930f,0.0302,0.0302,1,1,163,40,1,onetwo,,,,,,,,,,,,,,,,,,,,,,,,,,,,,,,,,,,,,,,,,,,,,,,,,,,,,,,,,,,,,,,,,,,,,,,,,,,,,,,,,,,,,,,,,,,,,,,,,,,,,,,,,,,,,,,,,,,,,,,,,,,,,,,,,,,,,,,,,
,,693288d74d0b087449ff136e,2026-03-17_11h25.15.904,kallum_motion_pilot_GIST_update_2,2026.1.1,Win32,60.60606061,693288d74d0b087449ff136e,69b92ab4aef6dee357cd729a,69b92b4b524a1b82cb82930f,0.0303,0.0303,1,2,164,122,1,sixfive,,,,,,,,,,,,,,,,,,,,,,,,,,,,,,,,,,,,,,,,,,,,,,,,,,,,,,,,,,,,,,,,,,,,,,,,,,,,,,,,,,,,,,,,,,,,,,,,,,,,,,,,,,,,,,,,,,,,,,,,,,,,,,,,,,,,,,,,,
,,693288d74d0b087449ff136e,2026-03-17_11h25.15.904,kallum_motion_pilot_GIST_update_2,2026.1.1,Win32,60.60606061,693288d74d0b087449ff136e,69b92ab4aef6dee357cd729a,69b92b4b524a1b82cb82930f,0.0304,0.0304,1,3,165,64,1,onetwo,,,,,,,,,,,,,,,,,,,,,,,,,,,,,,,,,,,,,,,,,,,,,,,,,,,,,,,,,,,,,,,,,,,,,,,,,,,,,,,,,,,,,,,,,,,,,,,,,,,,,,,,,,,,,,,,,,,,,,,,,,,,,,,,,,,,,,,,,
,,693288d74d0b087449ff136e,2026-03-17_11h25.15.904,kallum_motion_pilot_GIST_update_2,2026.1.1,Win32,60.60606061,693288d74d0b087449ff136e,69b92ab4aef6dee357cd729a,69b92b4b524a1b82cb82930f,0.0304,0.0304,1,4,166,149,1,seveneight,,,,,,,,,,,,,,,,,,,,,,,,,,,,,,,,,,,,,,,,,,,,,,,,,,,,,,,,,,,,,,,,,,,,,,,,,,,,,,,,,,,,,,,,,,,,,,,,,,,,,,,,,,,,,,,,,,,,,,,,,,,,,,,,,,,,,,,,,
,,693288d74d0b087449ff136e,2026-03-17_11h25.15.904,kallum_motion_pilot_GIST_update_2,2026.1.1,Win32,60.60606061,693288d74d0b087449ff136e,69b92ab4aef6dee357cd729a,69b92b4b524a1b82cb82930f,0.0306,0.0306,1,5,167,160,1,fivesix,,,,,,,,,,,,,,,,,,,,,,,,,,,,,,,,,,,,,,,,,,,,,,,,,,,,,,,,,,,,,,,,,,,,,,,,,,,,,,,,,,,,,,,,,,,,,,,,,,,,,,,,,,,,,,,,,,,,,,,,,,,,,,,,,,,,,,,,,
,,693288d74d0b087449ff136e,2026-03-17_11h25.15.904,kallum_motion_pilot_GIST_update_2,2026.1.1,Win32,60.60606061,693288d74d0b087449ff136e,69b92ab4aef6dee357cd729a,69b92b4b524a1b82cb82930f,0.0306,0.0306,1,6,168,96,1,fivesix,,,,,,,,,,,,,,,,,,,,,,,,,,,,,,,,,,,,,,,,,,,,,,,,,,,,,,,,,,,,,,,,,,,,,,,,,,,,,,,,,,,,,,,,,,,,,,,,,,,,,,,,,,,,,,,,,,,,,,,,,,,,,,,,,,,,,,,,,
,,693288d74d0b087449ff136e,2026-03-17_11h25.15.904,kallum_motion_pilot_GIST_update_2,2026.1.1,Win32,60.60606061,693288d74d0b087449ff136e,69b92ab4aef6dee357cd729a,69b92b4b524a1b82cb82930f,0.0307,0.0307,1,7,169,7,1,fourthree,,,,,,,,,,,,,,,,,,,,,,,,,,,,,,,,,,,,,,,,,,,,,,,,,,,,,,,,,,,,,,,,,,,,,,,,,,,,,,,,,,,,,,,,,,,,,,,,,,,,,,,,,,,,,,,,,,,,,,,,,,,,,,,,,,,,,,,,,
,,693288d74d0b087449ff136e,2026-03-17_11h25.15.904,kallum_motion_pilot_GIST_update_2,2026.1.1,Win32,60.60606061,693288d74d0b087449ff136e,69b92ab4aef6dee357cd729a,69b92b4b524a1b82cb82930f,0.0308,0.0308,1,8,170,79,1,eightseven,,,,,,,,,,,,,,,,,,,,,,,,,,,,,,,,,,,,,,,,,,,,,,,,,,,,,,,,,,,,,,,,,,,,,,,,,,,,,,,,,,,,,,,,,,,,,,,,,,,,,,,,,,,,,,,,,,,,,,,,,,,,,,,,,,,,,,,,,
,,693288d74d0b087449ff136e,2026-03-17_11h25.15.904,kallum_motion_pilot_GIST_update_2,2026.1.1,Win32,60.60606061,693288d74d0b087449ff136e,69b92ab4aef6dee357cd729a,69b92b4b524a1b82cb82930f,0.0309,0.0309,1,9,171,145,1,fiveseven,,,,,,,,,,,,,,,,,,,,,,,,,,,,,,,,,,,,,,,,,,,,,,,,,,,,,,,,,,,,,,,,,,,,,,,,,,,,,,,,,,,,,,,,,,,,,,,,,,,,,,,,,,,,,,,,,,,,,,,,,,,,,,,,,,,,,,,,,
,,693288d74d0b087449ff136e,2026-03-17_11h25.15.904,kallum_motion_pilot_GIST_update_2,2026.1.1,Win32,60.60606061,693288d74d0b087449ff136e,69b92ab4aef6dee357cd729a,69b92b4b524a1b82cb82930f,0.031,0.031,1,10,172,28,1,threeone,,,,,,,,,,,,,,,,,,,,,,,,,,,,,,,,,,,,,,,,,,,,,,,,,,,,,,,,,,,,,,,,,,,,,,,,,,,,,,,,,,,,,,,,,,,,,,,,,,,,,,,,,,,,,,,,,,,,,,,,,,,,,,,,,,,,,,,,,
,,693288d74d0b087449ff136e,2026-03-17_11h25.15.904,kallum_motion_pilot_GIST_update_2,2026.1.1,Win32,60.60606061,693288d74d0b087449ff136e,69b92ab4aef6dee357cd729a,69b92b4b524a1b82cb82930f,0.0311,0.0311,1,11,173,94,1,eightsix,,,,,,,,,,,,,,,,,,,,,,,,,,,,,,,,,,,,,,,,,,,,,,,,,,,,,,,,,,,,,,,,,,,,,,,,,,,,,,,,,,,,,,,,,,,,,,,,,,,,,,,,,,,,,,,,,,,,,,,,,,,,,,,,,,,,,,,,,
,,693288d74d0b087449ff136e,2026-03-17_11h25.15.904,kallum_motion_pilot_GIST_update_2,2026.1.1,Win32,60.60606061,693288d74d0b087449ff136e,69b92ab4aef6dee357cd729a,69b92b4b524a1b82cb82930f,0.0311,0.0311,1,12,174,146,1,sixfive,,,,,,,,,,,,,,,,,,,,,,,,,,,,,,,,,,,,,,,,,,,,,,,,,,,,,,,,,,,,,,,,,,,,,,,,,,,,,,,,,,,,,,,,,,,,,,,,,,,,,,,,,,,,,,,,,,,,,,,,,,,,,,,,,,,,,,,,,
,,693288d74d0b087449ff136e,2026-03-17_11h25.15.904,kallum_motion_pilot_GIST_update_2,2026.1.1,Win32,60.60606061,693288d74d0b087449ff136e,69b92ab4aef6dee357cd729a,69b92b4b524a1b82cb82930f,0.0313,0.0313,1,13,175,53,1,threefour,,,,,,,,,,,,,,,,,,,,,,,,,,,,,,,,,,,,,,,,,,,,,,,,,,,,,,,,,,,,,,,,,,,,,,,,,,,,,,,,,,,,,,,,,,,,,,,,,,,,,,,,,,,,,,,,,,,,,,,,,,,,,,,,,,,,,,,,,
,,693288d74d0b087449ff136e,2026-03-17_11h25.15.904,kallum_motion_pilot_GIST_update_2,2026.1.1,Win32,60.60606061,693288d74d0b087449ff136e,69b92ab4aef6dee357cd729a,69b92b4b524a1b82cb82930f,0.0313,0.0313,1,14,176,49,1,onethree,,,,,,,,,,,,,,,,,,,,,,,,,,,,,,,,,,,,,,,,,,,,,,,,,,,,,,,,,,,,,,,,,,,,,,,,,,,,,,,,,,,,,,,,,,,,,,,,,,,,,,,,,,,,,,,,,,,,,,,,,,,,,,,,,,,,,,,,,
,,693288d74d0b087449ff136e,2026-03-17_11h25.15.904,kallum_motion_pilot_GIST_update_2,2026.1.1,Win32,60.60606061,693288d74d0b087449ff136e,69b92ab4aef6dee357cd729a,69b92b4b524a1b82cb82930f,0.0314,0.0314,1,15,177,51,1,twofour,,,,,,,,,,,,,,,,,,,,,,,,,,,,,,,,,,,,,,,,,,,,,,,,,,,,,,,,,,,,,,,,,,,,,,,,,,,,,,,,,,,,,,,,,,,,,,,,,,,,,,,,,,,,,,,,,,,,,,,,,,,,,,,,,,,,,,,,,
,,693288d74d0b087449ff136e,2026-03-17_11h25.15.904,kallum_motion_pilot_GIST_update_2,2026.1.1,Win32,60.60606061,693288d74d0b087449ff136e,69b92ab4aef6dee357cd729a,69b92b4b524a1b82cb82930f,0.0315,0.0315,1,16,178,48,1,onetwo,,,,,,,,,,,,,,,,,,,,,,,,,,,,,,,,,,,,,,,,,,,,,,,,,,,,,,,,,,,,,,,,,,,,,,,,,,,,,,,,,,,,,,,,,,,,,,,,,,,,,,,,,,,,,,,,,,,,,,,,,,,,,,,,,,,,,,,,,
,,693288d74d0b087449ff136e,2026-03-17_11h25.15.904,kallum_motion_pilot_GIST_update_2,2026.1.1,Win32,60.60606061,693288d74d0b087449ff136e,69b92ab4aef6dee357cd729a,69b92b4b524a1b82cb82930f,0.0317,0.0317,1,17,179,25,1,onethree,,,,,,,,,,,,,,,,,,,,,,,,,,,,,,,,,,,,,,,,,,,,,,,,,,,,,,,,,,,,,,,,,,,,,,,,,,,,,,,,,,,,,,,,,,,,,,,,,,,,,,,,,,,,,,,,,,,,,,,,,,,,,,,,,,,,,,,,,
,,693288d74d0b087449ff136e,2026-03-17_11h25.15.904,kallum_motion_pilot_GIST_update_2,2026.1.1,Win32,60.60606061,693288d74d0b087449ff136e,69b92ab4aef6dee357cd729a,69b92b4b524a1b82cb82930f,0.0318,0.0318,1,18,180,132,1,sevenfive,,,,,,,,,,,,,,,,,,,,,,,,,,,,,,,,,,,,,,,,,,,,,,,,,,,,,,,,,,,,,,,,,,,,,,,,,,,,,,,,,,,,,,,,,,,,,,,,,,,,,,,,,,,,,,,,,,,,,,,,,,,,,,,,,,,,,,,,,
,,693288d74d0b087449ff136e,2026-03-17_11h25.15.904,kallum_motion_pilot_GIST_update_2,2026.1.1,Win32,60.60606061,693288d74d0b087449ff136e,69b92ab4aef6dee357cd729a,69b92b4b524a1b82cb82930f,0.0319,0.0319,1,19,181,97,1,fiveseven,,,,,,,,,,,,,,,,,,,,,,,,,,,,,,,,,,,,,,,,,,,,,,,,,,,,,,,,,,,,,,,,,,,,,,,,,,,,,,,,,,,,,,,,,,,,,,,,,,,,,,,,,,,,,,,,,,,,,,,,,,,,,,,,,,,,,,,,,
,,693288d74d0b087449ff136e,2026-03-17_11h25.15.904,kallum_motion_pilot_GIST_update_2,2026.1.1,Win32,60.60606061,693288d74d0b087449ff136e,69b92ab4aef6dee357cd729a,69b92b4b524a1b82cb82930f,0.032,0.032,1,20,182,31,1,fourthree,,,,,,,,,,,,,,,,,,,,,,,,,,,,,,,,,,,,,,,,,,,,,,,,,,,,,,,,,,,,,,,,,,,,,,,,,,,,,,,,,,,,,,,,,,,,,,,,,,,,,,,,,,,,,,,,,,,,,,,,,,,,,,,,,,,,,,,,,
,,693288d74d0b087449ff136e,2026-03-17_11h25.15.904,kallum_motion_pilot_GIST_update_2,2026.1.1,Win32,60.60606061,693288d74d0b087449ff136e,69b92ab4aef6dee357cd729a,69b92b4b524a1b82cb82930f,0.0321,0.0321,1,21,183,27,1,twofour,,,,,,,,,,,,,,,,,,,,,,,,,,,,,,,,,,,,,,,,,,,,,,,,,,,,,,,,,,,,,,,,,,,,,,,,,,,,,,,,,,,,,,,,,,,,,,,,,,,,,,,,,,,,,,,,,,,,,,,,,,,,,,,,,,,,,,,,,
,,693288d74d0b087449ff136e,2026-03-17_11h25.15.904,kallum_motion_pilot_GIST_update_2,2026.1.1,Win32,60.60606061,693288d74d0b087449ff136e,69b92ab4aef6dee357cd729a,69b92b4b524a1b82cb82930f,0.0322,0.0322,1,22,184,144,1,fivesix,,,,,,,,,,,,,,,,,,,,,,,,,,,,,,,,,,,,,,,,,,,,,,,,,,,,,,,,,,,,,,,,,,,,,,,,,,,,,,,,,,,,,,,,,,,,,,,,,,,,,,,,,,,,,,,,,,,,,,,,,,,,,,,,,,,,,,,,,
,,693288d74d0b087449ff136e,2026-03-17_11h25.15.904,kallum_motion_pilot_GIST_update_2,2026.1.1,Win32,60.60606061,693288d74d0b087449ff136e,69b92ab4aef6dee357cd729a,69b92b4b524a1b82cb82930f,0.0323,0.0323,1,23,185,125,1,seveneight,,,,,,,,,,,,,,,,,,,,,,,,,,,,,,,,,,,,,,,,,,,,,,,,,,,,,,,,,,,,,,,,,,,,,,,,,,,,,,,,,,,,,,,,,,,,,,,,,,,,,,,,,,,,,,,,,,,,,,,,,,,,,,,,,,,,,,,,,
,,693288d74d0b087449ff136e,2026-03-17_11h25.15.904,kallum_motion_pilot_GIST_update_2,2026.1.1,Win32,60.60606061,693288d74d0b087449ff136e,69b92ab4aef6dee357cd729a,69b92b4b524a1b82cb82930f,0.0324,0.0324,1,24,186,82,1,sixfive,,,,,,,,,,,,,,,,,,,,,,,,,,,,,,,,,,,,,,,,,,,,,,,,,,,,,,,,,,,,,,,,,,,,,,,,,,,,,,,,,,,,,,,,,,,,,,,,,,,,,,,,,,,,,,,,,,,,,,,,,,,,,,,,,,,,,,,,,
,,693288d74d0b087449ff136e,2026-03-17_11h25.15.904,kallum_motion_pilot_GIST_update_2,2026.1.1,Win32,60.60606061,693288d74d0b087449ff136e,69b92ab4aef6dee357cd729a,69b92b4b524a1b82cb82930f,0.0324,0.0324,1,25,187,15,1,fourthree,,,,,,,,,,,,,,,,,,,,,,,,,,,,,,,,,,,,,,,,,,,,,,,,,,,,,,,,,,,,,,,,,,,,,,,,,,,,,,,,,,,,,,,,,,,,,,,,,,,,,,,,,,,,,,,,,,,,,,,,,,,,,,,,,,,,,,,,,
,,693288d74d0b087449ff136e,2026-03-17_11h25.15.904,kallum_motion_pilot_GIST_update_2,2026.1.1,Win32,60.60606061,693288d74d0b087449ff136e,69b92ab4aef6dee357cd729a,69b92b4b524a1b82cb82930f,0.0326,0.0326,1,26,188,133,1,seveneight,,,,,,,,,,,,,,,,,,,,,,,,,,,,,,,,,,,,,,,,,,,,,,,,,,,,,,,,,,,,,,,,,,,,,,,,,,,,,,,,,,,,,,,,,,,,,,,,,,,,,,,,,,,,,,,,,,,,,,,,,,,,,,,,,,,,,,,,,
,,693288d74d0b087449ff136e,2026-03-17_11h25.15.904,kallum_motion_pilot_GIST_update_2,2026.1.1,Win32,60.60606061,693288d74d0b087449ff136e,69b92ab4aef6dee357cd729a,69b92b4b524a1b82cb82930f,0.0327,0.0327,1,27,189,95,1,eightseven,,,,,,,,,,,,,,,,,,,,,,,,,,,,,,,,,,,,,,,,,,,,,,,,,,,,,,,,,,,,,,,,,,,,,,,,,,,,,,,,,,,,,,,,,,,,,,,,,,,,,,,,,,,,,,,,,,,,,,,,,,,,,,,,,,,,,,,,,
,,693288d74d0b087449ff136e,2026-03-17_11h25.15.904,kallum_motion_pilot_GIST_update_2,2026.1.1,Win32,60.60606061,693288d74d0b087449ff136e,69b92ab4aef6dee357cd729a,69b92b4b524a1b82cb82930f,0.0328,0.0328,1,28,190,118,1,eightsix,,,,,,,,,,,,,,,,,,,,,,,,,,,,,,,,,,,,,,,,,,,,,,,,,,,,,,,,,,,,,,,,,,,,,,,,,,,,,,,,,,,,,,,,,,,,,,,,,,,,,,,,,,,,,,,,,,,,,,,,,,,,,,,,,,,,,,,,,
,,693288d74d0b087449ff136e,2026-03-17_11h25.15.904,kallum_motion_pilot_GIST_update_2,2026.1.1,Win32,60.60606061,693288d74d0b087449ff136e,69b92ab4aef6dee357cd729a,69b92b4b524a1b82cb82930f,0.0329,0.0329,1,29,191,153,1,fiveseven,,,,,,,,,,,,,,,,,,,,,,,,,,,,,,,,,,,,,,,,,,,,,,,,,,,,,,,,,,,,,,,,,,,,,,,,,,,,,,,,,,,,,,,,,,,,,,,,,,,,,,,,,,,,,,,,,,,,,,,,,,,,,,,,,,,,,,,,,
,,693288d74d0b087449ff136e,2026-03-17_11h25.15.904,kallum_motion_pilot_GIST_update_2,2026.1.1,Win32,60.60606061,693288d74d0b087449ff136e,69b92ab4aef6dee357cd729a,69b92b4b524a1b82cb82930f,0.033,0.033,1,30,192,110,1,eightsix,,,,,,,,,,,,,,,,,,,,,,,,,,,,,,,,,,,,,,,,,,,,,,,,,,,,,,,,,,,,,,,,,,,,,,,,,,,,,,,,,,,,,,,,,,,,,,,,,,,,,,,,,,,,,,,,,,,,,,,,,,,,,,,,,,,,,,,,,
,,693288d74d0b087449ff136e,2026-03-17_11h25.15.904,kallum_motion_pilot_GIST_update_2,2026.1.1,Win32,60.60606061,693288d74d0b087449ff136e,69b92ab4aef6dee357cd729a,69b92b4b524a1b82cb82930f,0.033,0.033,1,31,193,87,1,eightseven,,,,,,,,,,,,,,,,,,,,,,,,,,,,,,,,,,,,,,,,,,,,,,,,,,,,,,,,,,,,,,,,,,,,,,,,,,,,,,,,,,,,,,,,,,,,,,,,,,,,,,,,,,,,,,,,,,,,,,,,,,,,,,,,,,,,,,,,,
,,693288d74d0b087449ff136e,2026-03-17_11h25.15.904,kallum_motion_pilot_GIST_update_2,2026.1.1,Win32,60.60606061,693288d74d0b087449ff136e,69b92ab4aef6dee357cd729a,69b92b4b524a1b82cb82930f,0.0332,0.0332,1,32,194,88,1,fivesix,,,,,,,,,,,,,,,,,,,,,,,,,,,,,,,,,,,,,,,,,,,,,,,,,,,,,,,,,,,,,,,,,,,,,,,,,,,,,,,,,,,,,,,,,,,,,,,,,,,,,,,,,,,,,,,,,,,,,,,,,,,,,,,,,,,,,,,,,
,,693288d74d0b087449ff136e,2026-03-17_11h25.15.904,kallum_motion_pilot_GIST_update_2,2026.1.1,Win32,60.60606061,693288d74d0b087449ff136e,69b92ab4aef6dee357cd729a,69b92b4b524a1b82cb82930f,0.0333,0.0333,1,33,195,35,1,twofour,,,,,,,,,,,,,,,,,,,,,,,,,,,,,,,,,,,,,,,,,,,,,,,,,,,,,,,,,,,,,,,,,,,,,,,,,,,,,,,,,,,,,,,,,,,,,,,,,,,,,,,,,,,,,,,,,,,,,,,,,,,,,,,,,,,,,,,,,
,,693288d74d0b087449ff136e,2026-03-17_11h25.15.904,kallum_motion_pilot_GIST_update_2,2026.1.1,Win32,60.60606061,693288d74d0b087449ff136e,69b92ab4aef6dee357cd729a,69b92b4b524a1b82cb82930f,0.0333,0.0333,1,34,196,29,1,threefour,,,,,,,,,,,,,,,,,,,,,,,,,,,,,,,,,,,,,,,,,,,,,,,,,,,,,,,,,,,,,,,,,,,,,,,,,,,,,,,,,,,,,,,,,,,,,,,,,,,,,,,,,,,,,,,,,,,,,,,,,,,,,,,,,,,,,,,,,
,,693288d74d0b087449ff136e,2026-03-17_11h25.15.904,kallum_motion_pilot_GIST_update_2,2026.1.1,Win32,60.60606061,693288d74d0b087449ff136e,69b92ab4aef6dee357cd729a,69b92b4b524a1b82cb82930f,0.0334,0.0334,1,35,197,70,1,fourtwo,,,,,,,,,,,,,,,,,,,,,,,,,,,,,,,,,,,,,,,,,,,,,,,,,,,,,,,,,,,,,,,,,,,,,,,,,,,,,,,,,,,,,,,,,,,,,,,,,,,,,,,,,,,,,,,,,,,,,,,,,,,,,,,,,,,,,,,,,
,,693288d74d0b087449ff136e,2026-03-17_11h25.15.904,kallum_motion_pilot_GIST_update_2,2026.1.1,Win32,60.60606061,693288d74d0b087449ff136e,69b92ab4aef6dee357cd729a,69b92b4b524a1b82cb82930f,0.0336,0.0336,1,36,198,47,1,fourthree,,,,,,,,,,,,,,,,,,,,,,,,,,,,,,,,,,,,,,,,,,,,,,,,,,,,,,,,,,,,,,,,,,,,,,,,,,,,,,,,,,,,,,,,,,,,,,,,,,,,,,,,,,,,,,,,,,,,,,,,,,,,,,,,,,,,,,,,,
,,693288d74d0b087449ff136e,2026-03-17_11h25.15.904,kallum_motion_pilot_GIST_update_2,2026.1.1,Win32,60.60606061,693288d74d0b087449ff136e,69b92ab4aef6dee357cd729a,69b92b4b524a1b82cb82930f,0.0337,0.0337,1,37,199,99,1,sixeight,,,,,,,,,,,,,,,,,,,,,,,,,,,,,,,,,,,,,,,,,,,,,,,,,,,,,,,,,,,,,,,,,,,,,,,,,,,,,,,,,,,,,,,,,,,,,,,,,,,,,,,,,,,,,,,,,,,,,,,,,,,,,,,,,,,,,,,,,
,,693288d74d0b087449ff136e,2026-03-17_11h25.15.904,kallum_motion_pilot_GIST_update_2,2026.1.1,Win32,60.60606061,693288d74d0b087449ff136e,69b92ab4aef6dee357cd729a,69b92b4b524a1b82cb82930f,0.0338,0.0338,1,38,200,46,1,fourtwo,,,,,,,,,,,,,,,,,,,,,,,,,,,,,,,,,,,,,,,,,,,,,,,,,,,,,,,,,,,,,,,,,,,,,,,,,,,,,,,,,,,,,,,,,,,,,,,,,,,,,,,,,,,,,,,,,,,,,,,,,,,,,,,,,,,,,,,,,
,,693288d74d0b087449ff136e,2026-03-17_11h25.15.904,kallum_motion_pilot_GIST_update_2,2026.1.1,Win32,60.60606061,693288d74d0b087449ff136e,69b92ab4aef6dee357cd729a,69b92b4b524a1b82cb82930f,0.0339,0.0339,1,39,201,8,1,onetwo,,,,,,,,,,,,,,,,,,,,,,,,,,,,,,,,,,,,,,,,,,,,,,,,,,,,,,,,,,,,,,,,,,,,,,,,,,,,,,,,,,,,,,,,,,,,,,,,,,,,,,,,,,,,,,,,,,,,,,,,,,,,,,,,,,,,,,,,,
,,693288d74d0b087449ff136e,2026-03-17_11h25.15.904,kallum_motion_pilot_GIST_update_2,2026.1.1,Win32,60.60606061,693288d74d0b087449ff136e,69b92ab4aef6dee357cd729a,69b92b4b524a1b82cb82930f,0.034,0.034,1,40,202,102,1,eightsix,,,,,,,,,,,,,,,,,,,,,,,,,,,,,,,,,,,,,,,,,,,,,,,,,,,,,,,,,,,,,,,,,,,,,,,,,,,,,,,,,,,,,,,,,,,,,,,,,,,,,,,,,,,,,,,,,,,,,,,,,,,,,,,,,,,,,,,,,
,,693288d74d0b087449ff136e,2026-03-17_11h25.15.904,kallum_motion_pilot_GIST_update_2,2026.1.1,Win32,60.60606061,693288d74d0b087449ff136e,69b92ab4aef6dee357cd729a,69b92b4b524a1b82cb82930f,0.0341,0.0341,1,41,203,58,1,twoone,,,,,,,,,,,,,,,,,,,,,,,,,,,,,,,,,,,,,,,,,,,,,,,,,,,,,,,,,,,,,,,,,,,,,,,,,,,,,,,,,,,,,,,,,,,,,,,,,,,,,,,,,,,,,,,,,,,,,,,,,,,,,,,,,,,,,,,,,
,,693288d74d0b087449ff136e,2026-03-17_11h25.15.904,kallum_motion_pilot_GIST_update_2,2026.1.1,Win32,60.60606061,693288d74d0b087449ff136e,69b92ab4aef6dee357cd729a,69b92b4b524a1b82cb82930f,0.0342,0.0342,1,42,204,130,1,sixfive,,,,,,,,,,,,,,,,,,,,,,,,,,,,,,,,,,,,,,,,,,,,,,,,,,,,,,,,,,,,,,,,,,,,,,,,,,,,,,,,,,,,,,,,,,,,,,,,,,,,,,,,,,,,,,,,,,,,,,,,,,,,,,,,,,,,,,,,,
,,693288d74d0b087449ff136e,2026-03-17_11h25.15.904,kallum_motion_pilot_GIST_update_2,2026.1.1,Win32,60.60606061,693288d74d0b087449ff136e,69b92ab4aef6dee357cd729a,69b92b4b524a1b82cb82930f,0.0342,0.0342,1,43,205,1,1,onethree,,,,,,,,,,,,,,,,,,,,,,,,,,,,,,,,,,,,,,,,,,,,,,,,,,,,,,,,,,,,,,,,,,,,,,,,,,,,,,,,,,,,,,,,,,,,,,,,,,,,,,,,,,,,,,,,,,,,,,,,,,,,,,,,,,,,,,,,,
,,693288d74d0b087449ff136e,2026-03-17_11h25.15.904,kallum_motion_pilot_GIST_update_2,2026.1.1,Win32,60.60606061,693288d74d0b087449ff136e,69b92ab4aef6dee357cd729a,69b92b4b524a1b82cb82930f,0.0344,0.0344,1,44,206,3,1,twofour,,,,,,,,,,,,,,,,,,,,,,,,,,,,,,,,,,,,,,,,,,,,,,,,,,,,,,,,,,,,,,,,,,,,,,,,,,,,,,,,,,,,,,,,,,,,,,,,,,,,,,,,,,,,,,,,,,,,,,,,,,,,,,,,,,,,,,,,,
,,693288d74d0b087449ff136e,2026-03-17_11h25.15.904,kallum_motion_pilot_GIST_update_2,2026.1.1,Win32,60.60606061,693288d74d0b087449ff136e,69b92ab4aef6dee357cd729a,69b92b4b524a1b82cb82930f,0.0344,0.0344,1,45,207,134,1,eightsix,,,,,,,,,,,,,,,,,,,,,,,,,,,,,,,,,,,,,,,,,,,,,,,,,,,,,,,,,,,,,,,,,,,,,,,,,,,,,,,,,,,,,,,,,,,,,,,,,,,,,,,,,,,,,,,,,,,,,,,,,,,,,,,,,,,,,,,,,
,,693288d74d0b087449ff136e,2026-03-17_11h25.15.904,kallum_motion_pilot_GIST_update_2,2026.1.1,Win32,60.60606061,693288d74d0b087449ff136e,69b92ab4aef6dee357cd729a,69b92b4b524a1b82cb82930f,0.0346,0.0346,1,46,208,114,1,sixfive,,,,,,,,,,,,,,,,,,,,,,,,,,,,,,,,,,,,,,,,,,,,,,,,,,,,,,,,,,,,,,,,,,,,,,,,,,,,,,,,,,,,,,,,,,,,,,,,,,,,,,,,,,,,,,,,,,,,,,,,,,,,,,,,,,,,,,,,,
,,693288d74d0b087449ff136e,2026-03-17_11h25.15.904,kallum_motion_pilot_GIST_update_2,2026.1.1,Win32,60.60606061,693288d74d0b087449ff136e,69b92ab4aef6dee357cd729a,69b92b4b524a1b82cb82930f,0.0347,0.0347,1,47,209,34,1,twoone,,,,,,,,,,,,,,,,,,,,,,,,,,,,,,,,,,,,,,,,,,,,,,,,,,,,,,,,,,,,,,,,,,,,,,,,,,,,,,,,,,,,,,,,,,,,,,,,,,,,,,,,,,,,,,,,,,,,,,,,,,,,,,,,,,,,,,,,,
,,693288d74d0b087449ff136e,2026-03-17_11h25.15.904,kallum_motion_pilot_GIST_update_2,2026.1.1,Win32,60.60606061,693288d74d0b087449ff136e,69b92ab4aef6dee357cd729a,69b92b4b524a1b82cb82930f,0.0347,0.0347,1,48,210,117,1,seveneight,,,,,,,,,,,,,,,,,,,,,,,,,,,,,,,,,,,,,,,,,,,,,,,,,,,,,,,,,,,,,,,,,,,,,,,,,,,,,,,,,,,,,,,,,,,,,,,,,,,,,,,,,,,,,,,,,,,,,,,,,,,,,,,,,,,,,,,,,
,,693288d74d0b087449ff136e,2026-03-17_11h25.15.904,kallum_motion_pilot_GIST_update_2,2026.1.1,Win32,60.60606061,693288d74d0b087449ff136e,69b92ab4aef6dee357cd729a,69b92b4b524a1b82cb82930f,0.0349,0.0349,1,49,211,21,1,threefour,,,,,,,,,,,,,,,,,,,,,,,,,,,,,,,,,,,,,,,,,,,,,,,,,,,,,,,,,,,,,,,,,,,,,,,,,,,,,,,,,,,,,,,,,,,,,,,,,,,,,,,,,,,,,,,,,,,,,,,,,,,,,,,,,,,,,,,,,
,,693288d74d0b087449ff136e,2026-03-17_11h25.15.904,kallum_motion_pilot_GIST_update_2,2026.1.1,Win32,60.60606061,693288d74d0b087449ff136e,69b92ab4aef6dee357cd729a,69b92b4b524a1b82cb82930f,0.0349,0.0349,1,50,212,136,1,fivesix,,,,,,,,,,,,,,,,,,,,,,,,,,,,,,,,,,,,,,,,,,,,,,,,,,,,,,,,,,,,,,,,,,,,,,,,,,,,,,,,,,,,,,,,,,,,,,,,,,,,,,,,,,,,,,,,,,,,,,,,,,,,,,,,,,,,,,,,,
,,693288d74d0b087449ff136e,2026-03-17_11h25.15.904,kallum_motion_pilot_GIST_update_2,2026.1.1,Win32,60.60606061,693288d74d0b087449ff136e,69b92ab4aef6dee357cd729a,69b92b4b524a1b82cb82930f,0.0351,0.0351,1,51,213,80,1,fivesix,,,,,,,,,,,,,,,,,,,,,,,,,,,,,,,,,,,,,,,,,,,,,,,,,,,,,,,,,,,,,,,,,,,,,,,,,,,,,,,,,,,,,,,,,,,,,,,,,,,,,,,,,,,,,,,,,,,,,,,,,,,,,,,,,,,,,,,,,
,,693288d74d0b087449ff136e,2026-03-17_11h25.15.904,kallum_motion_pilot_GIST_update_2,2026.1.1,Win32,60.60606061,693288d74d0b087449ff136e,69b92ab4aef6dee357cd729a,69b92b4b524a1b82cb82930f,0.0352,0.0352,1,52,214,42,1,twoone,,,,,,,,,,,,,,,,,,,,,,,,,,,,,,,,,,,,,,,,,,,,,,,,,,,,,,,,,,,,,,,,,,,,,,,,,,,,,,,,,,,,,,,,,,,,,,,,,,,,,,,,,,,,,,,,,,,,,,,,,,,,,,,,,,,,,,,,,
,,693288d74d0b087449ff136e,2026-03-17_11h25.15.904,kallum_motion_pilot_GIST_update_2,2026.1.1,Win32,60.60606061,693288d74d0b087449ff136e,69b92ab4aef6dee357cd729a,69b92b4b524a1b82cb82930f,0.0353,0.0353,1,53,215,83,1,sixeight,,,,,,,,,,,,,,,,,,,,,,,,,,,,,,,,,,,,,,,,,,,,,,,,,,,,,,,,,,,,,,,,,,,,,,,,,,,,,,,,,,,,,,,,,,,,,,,,,,,,,,,,,,,,,,,,,,,,,,,,,,,,,,,,,,,,,,,,,
,,693288d74d0b087449ff136e,2026-03-17_11h25.15.904,kallum_motion_pilot_GIST_update_2,2026.1.1,Win32,60.60606061,693288d74d0b087449ff136e,69b92ab4aef6dee357cd729a,69b92b4b524a1b82cb82930f,0.0353,0.0353,1,54,216,26,1,twoone,,,,,,,,,,,,,,,,,,,,,,,,,,,,,,,,,,,,,,,,,,,,,,,,,,,,,,,,,,,,,,,,,,,,,,,,,,,,,,,,,,,,,,,,,,,,,,,,,,,,,,,,,,,,,,,,,,,,,,,,,,,,,,,,,,,,,,,,,
,,693288d74d0b087449ff136e,2026-03-17_11h25.15.904,kallum_motion_pilot_GIST_update_2,2026.1.1,Win32,60.60606061,693288d74d0b087449ff136e,69b92ab4aef6dee357cd729a,69b92b4b524a1b82cb82930f,0.0354,0.0354,1,55,217,155,1,sixeight,,,,,,,,,,,,,,,,,,,,,,,,,,,,,,,,,,,,,,,,,,,,,,,,,,,,,,,,,,,,,,,,,,,,,,,,,,,,,,,,,,,,,,,,,,,,,,,,,,,,,,,,,,,,,,,,,,,,,,,,,,,,,,,,,,,,,,,,,
,,693288d74d0b087449ff136e,2026-03-17_11h25.15.904,kallum_motion_pilot_GIST_update_2,2026.1.1,Win32,60.60606061,693288d74d0b087449ff136e,69b92ab4aef6dee357cd729a,69b92b4b524a1b82cb82930f,0.0356,0.0356,1,56,218,139,1,sixeight,,,,,,,,,,,,,,,,,,,,,,,,,,,,,,,,,,,,,,,,,,,,,,,,,,,,,,,,,,,,,,,,,,,,,,,,,,,,,,,,,,,,,,,,,,,,,,,,,,,,,,,,,,,,,,,,,,,,,,,,,,,,,,,,,,,,,,,,,
,,693288d74d0b087449ff136e,2026-03-17_11h25.15.904,kallum_motion_pilot_GIST_update_2,2026.1.1,Win32,60.60606061,693288d74d0b087449ff136e,69b92ab4aef6dee357cd729a,69b92b4b524a1b82cb82930f,0.0357,0.0357,1,57,219,12,1,threeone,,,,,,,,,,,,,,,,,,,,,,,,,,,,,,,,,,,,,,,,,,,,,,,,,,,,,,,,,,,,,,,,,,,,,,,,,,,,,,,,,,,,,,,,,,,,,,,,,,,,,,,,,,,,,,,,,,,,,,,,,,,,,,,,,,,,,,,,,
,,693288d74d0b087449ff136e,2026-03-17_11h25.15.904,kallum_motion_pilot_GIST_update_2,2026.1.1,Win32,60.60606061,693288d74d0b087449ff136e,69b92ab4aef6dee357cd729a,69b92b4b524a1b82cb82930f,0.0357,0.0357,1,58,220,138,1,sixfive,,,,,,,,,,,,,,,,,,,,,,,,,,,,,,,,,,,,,,,,,,,,,,,,,,,,,,,,,,,,,,,,,,,,,,,,,,,,,,,,,,,,,,,,,,,,,,,,,,,,,,,,,,,,,,,,,,,,,,,,,,,,,,,,,,,,,,,,,
,,693288d74d0b087449ff136e,2026-03-17_11h25.15.904,kallum_motion_pilot_GIST_update_2,2026.1.1,Win32,60.60606061,693288d74d0b087449ff136e,69b92ab4aef6dee357cd729a,69b92b4b524a1b82cb82930f,0.0359,0.0359,1,59,221,5,1,threefour,,,,,,,,,,,,,,,,,,,,,,,,,,,,,,,,,,,,,,,,,,,,,,,,,,,,,,,,,,,,,,,,,,,,,,,,,,,,,,,,,,,,,,,,,,,,,,,,,,,,,,,,,,,,,,,,,,,,,,,,,,,,,,,,,,,,,,,,,
,,693288d74d0b087449ff136e,2026-03-17_11h25.15.904,kallum_motion_pilot_GIST_update_2,2026.1.1,Win32,60.60606061,693288d74d0b087449ff136e,69b92ab4aef6dee357cd729a,69b92b4b524a1b82cb82930f,0.0359,0.0359,1,60,222,75,1,twofour,,,,,,,,,,,,,,,,,,,,,,,,,,,,,,,,,,,,,,,,,,,,,,,,,,,,,,,,,,,,,,,,,,,,,,,,,,,,,,,,,,,,,,,,,,,,,,,,,,,,,,,,,,,,,,,,,,,,,,,,,,,,,,,,,,,,,,,,,
,,693288d74d0b087449ff136e,2026-03-17_11h25.15.904,kallum_motion_pilot_GIST_update_2,2026.1.1,Win32,60.60606061,693288d74d0b087449ff136e,69b92ab4aef6dee357cd729a,69b92b4b524a1b82cb82930f,0.036,0.036,1,61,223,10,1,twoone,,,,,,,,,,,,,,,,,,,,,,,,,,,,,,,,,,,,,,,,,,,,,,,,,,,,,,,,,,,,,,,,,,,,,,,,,,,,,,,,,,,,,,,,,,,,,,,,,,,,,,,,,,,,,,,,,,,,,,,,,,,,,,,,,,,,,,,,,
,,693288d74d0b087449ff136e,2026-03-17_11h25.15.904,kallum_motion_pilot_GIST_update_2,2026.1.1,Win32,60.60606061,693288d74d0b087449ff136e,69b92ab4aef6dee357cd729a,69b92b4b524a1b82cb82930f,0.0361,0.0361,1,62,224,68,1,threeone,,,,,,,,,,,,,,,,,,,,,,,,,,,,,,,,,,,,,,,,,,,,,,,,,,,,,,,,,,,,,,,,,,,,,,,,,,,,,,,,,,,,,,,,,,,,,,,,,,,,,,,,,,,,,,,,,,,,,,,,,,,,,,,,,,,,,,,,,
,,693288d74d0b087449ff136e,2026-03-17_11h25.15.904,kallum_motion_pilot_GIST_update_2,2026.1.1,Win32,60.60606061,693288d74d0b087449ff136e,69b92ab4aef6dee357cd729a,69b92b4b524a1b82cb82930f,0.0362,0.0362,1,63,225,84,1,sevenfive,,,,,,,,,,,,,,,,,,,,,,,,,,,,,,,,,,,,,,,,,,,,,,,,,,,,,,,,,,,,,,,,,,,,,,,,,,,,,,,,,,,,,,,,,,,,,,,,,,,,,,,,,,,,,,,,,,,,,,,,,,,,,,,,,,,,,,,,,
,,693288d74d0b087449ff136e,2026-03-17_11h25.15.904,kallum_motion_pilot_GIST_update_2,2026.1.1,Win32,60.60606061,693288d74d0b087449ff136e,69b92ab4aef6dee357cd729a,69b92b4b524a1b82cb82930f,0.0363,0.0363,1,64,226,127,1,eightseven,,,,,,,,,,,,,,,,,,,,,,,,,,,,,,,,,,,,,,,,,,,,,,,,,,,,,,,,,,,,,,,,,,,,,,,,,,,,,,,,,,,,,,,,,,,,,,,,,,,,,,,,,,,,,,,,,,,,,,,,,,,,,,,,,,,,,,,,,
,,693288d74d0b087449ff136e,2026-03-17_11h25.15.904,kallum_motion_pilot_GIST_update_2,2026.1.1,Win32,60.60606061,693288d74d0b087449ff136e,69b92ab4aef6dee357cd729a,69b92b4b524a1b82cb82930f,0.0364,0.0364,1,65,227,69,1,threefour,,,,,,,,,,,,,,,,,,,,,,,,,,,,,,,,,,,,,,,,,,,,,,,,,,,,,,,,,,,,,,,,,,,,,,,,,,,,,,,,,,,,,,,,,,,,,,,,,,,,,,,,,,,,,,,,,,,,,,,,,,,,,,,,,,,,,,,,,
,,693288d74d0b087449ff136e,2026-03-17_11h25.15.904,kallum_motion_pilot_GIST_update_2,2026.1.1,Win32,60.60606061,693288d74d0b087449ff136e,69b92ab4aef6dee357cd729a,69b92b4b524a1b82cb82930f,0.0365,0.0365,1,66,228,98,1,sixfive,,,,,,,,,,,,,,,,,,,,,,,,,,,,,,,,,,,,,,,,,,,,,,,,,,,,,,,,,,,,,,,,,,,,,,,,,,,,,,,,,,,,,,,,,,,,,,,,,,,,,,,,,,,,,,,,,,,,,,,,,,,,,,,,,,,,,,,,,
,,693288d74d0b087449ff136e,2026-03-17_11h25.15.904,kallum_motion_pilot_GIST_update_2,2026.1.1,Win32,60.60606061,693288d74d0b087449ff136e,69b92ab4aef6dee357cd729a,69b92b4b524a1b82cb82930f,0.0366,0.0366,1,67,229,2,1,twoone,,,,,,,,,,,,,,,,,,,,,,,,,,,,,,,,,,,,,,,,,,,,,,,,,,,,,,,,,,,,,,,,,,,,,,,,,,,,,,,,,,,,,,,,,,,,,,,,,,,,,,,,,,,,,,,,,,,,,,,,,,,,,,,,,,,,,,,,,
,,693288d74d0b087449ff136e,2026-03-17_11h25.15.904,kallum_motion_pilot_GIST_update_2,2026.1.1,Win32,60.60606061,693288d74d0b087449ff136e,69b92ab4aef6dee357cd729a,69b92b4b524a1b82cb82930f,0.0367,0.0367,1,68,230,154,1,sixfive,,,,,,,,,,,,,,,,,,,,,,,,,,,,,,,,,,,,,,,,,,,,,,,,,,,,,,,,,,,,,,,,,,,,,,,,,,,,,,,,,,,,,,,,,,,,,,,,,,,,,,,,,,,,,,,,,,,,,,,,,,,,,,,,,,,,,,,,,
,,693288d74d0b087449ff136e,2026-03-17_11h25.15.904,kallum_motion_pilot_GIST_update_2,2026.1.1,Win32,60.60606061,693288d74d0b087449ff136e,69b92ab4aef6dee357cd729a,69b92b4b524a1b82cb82930f,0.0368,0.0368,1,69,231,72,1,onetwo,,,,,,,,,,,,,,,,,,,,,,,,,,,,,,,,,,,,,,,,,,,,,,,,,,,,,,,,,,,,,,,,,,,,,,,,,,,,,,,,,,,,,,,,,,,,,,,,,,,,,,,,,,,,,,,,,,,,,,,,,,,,,,,,,,,,,,,,,
,,693288d74d0b087449ff136e,2026-03-17_11h25.15.904,kallum_motion_pilot_GIST_update_2,2026.1.1,Win32,60.60606061,693288d74d0b087449ff136e,69b92ab4aef6dee357cd729a,69b92b4b524a1b82cb82930f,0.0368,0.0368,1,70,232,124,1,sevenfive,,,,,,,,,,,,,,,,,,,,,,,,,,,,,,,,,,,,,,,,,,,,,,,,,,,,,,,,,,,,,,,,,,,,,,,,,,,,,,,,,,,,,,,,,,,,,,,,,,,,,,,,,,,,,,,,,,,,,,,,,,,,,,,,,,,,,,,,,
,,693288d74d0b087449ff136e,2026-03-17_11h25.15.904,kallum_motion_pilot_GIST_update_2,2026.1.1,Win32,60.60606061,693288d74d0b087449ff136e,69b92ab4aef6dee357cd729a,69b92b4b524a1b82cb82930f,0.037,0.037,1,71,233,86,1,eightsix,,,,,,,,,,,,,,,,,,,,,,,,,,,,,,,,,,,,,,,,,,,,,,,,,,,,,,,,,,,,,,,,,,,,,,,,,,,,,,,,,,,,,,,,,,,,,,,,,,,,,,,,,,,,,,,,,,,,,,,,,,,,,,,,,,,,,,,,,
,,693288d74d0b087449ff136e,2026-03-17_11h25.15.904,kallum_motion_pilot_GIST_update_2,2026.1.1,Win32,60.60606061,693288d74d0b087449ff136e,69b92ab4aef6dee357cd729a,69b92b4b524a1b82cb82930f,0.0371,0.0371,1,72,234,59,1,twofour,,,,,,,,,,,,,,,,,,,,,,,,,,,,,,,,,,,,,,,,,,,,,,,,,,,,,,,,,,,,,,,,,,,,,,,,,,,,,,,,,,,,,,,,,,,,,,,,,,,,,,,,,,,,,,,,,,,,,,,,,,,,,,,,,,,,,,,,,
,,693288d74d0b087449ff136e,2026-03-17_11h25.15.904,kallum_motion_pilot_GIST_update_2,2026.1.1,Win32,60.60606061,693288d74d0b087449ff136e,69b92ab4aef6dee357cd729a,69b92b4b524a1b82cb82930f,0.0372,0.0372,1,73,235,161,1,fiveseven,,,,,,,,,,,,,,,,,,,,,,,,,,,,,,,,,,,,,,,,,,,,,,,,,,,,,,,,,,,,,,,,,,,,,,,,,,,,,,,,,,,,,,,,,,,,,,,,,,,,,,,,,,,,,,,,,,,,,,,,,,,,,,,,,,,,,,,,,
,,693288d74d0b087449ff136e,2026-03-17_11h25.15.904,kallum_motion_pilot_GIST_update_2,2026.1.1,Win32,60.60606061,693288d74d0b087449ff136e,69b92ab4aef6dee357cd729a,69b92b4b524a1b82cb82930f,0.0372,0.0372,1,74,236,90,1,sixfive,,,,,,,,,,,,,,,,,,,,,,,,,,,,,,,,,,,,,,,,,,,,,,,,,,,,,,,,,,,,,,,,,,,,,,,,,,,,,,,,,,,,,,,,,,,,,,,,,,,,,,,,,,,,,,,,,,,,,,,,,,,,,,,,,,,,,,,,,
,,693288d74d0b087449ff136e,2026-03-17_11h25.15.904,kallum_motion_pilot_GIST_update_2,2026.1.1,Win32,60.60606061,693288d74d0b087449ff136e,69b92ab4aef6dee357cd729a,69b92b4b524a1b82cb82930f,0.0373,0.0373,1,75,237,129,1,fiveseven,,,,,,,,,,,,,,,,,,,,,,,,,,,,,,,,,,,,,,,,,,,,,,,,,,,,,,,,,,,,,,,,,,,,,,,,,,,,,,,,,,,,,,,,,,,,,,,,,,,,,,,,,,,,,,,,,,,,,,,,,,,,,,,,,,,,,,,,,
,,693288d74d0b087449ff136e,2026-03-17_11h25.15.904,kallum_motion_pilot_GIST_update_2,2026.1.1,Win32,60.60606061,693288d74d0b087449ff136e,69b92ab4aef6dee357cd729a,69b92b4b524a1b82cb82930f,0.0375,0.0375,1,76,238,11,1,twofour,,,,,,,,,,,,,,,,,,,,,,,,,,,,,,,,,,,,,,,,,,,,,,,,,,,,,,,,,,,,,,,,,,,,,,,,,,,,,,,,,,,,,,,,,,,,,,,,,,,,,,,,,,,,,,,,,,,,,,,,,,,,,,,,,,,,,,,,,
,,693288d74d0b087449ff136e,2026-03-17_11h25.15.904,kallum_motion_pilot_GIST_update_2,2026.1.1,Win32,60.60606061,693288d74d0b087449ff136e,69b92ab4aef6dee357cd729a,69b92b4b524a1b82cb82930f,0.0376,0.0376,1,77,239,123,1,sixeight,,,,,,,,,,,,,,,,,,,,,,,,,,,,,,,,,,,,,,,,,,,,,,,,,,,,,,,,,,,,,,,,,,,,,,,,,,,,,,,,,,,,,,,,,,,,,,,,,,,,,,,,,,,,,,,,,,,,,,,,,,,,,,,,,,,,,,,,,
,,693288d74d0b087449ff136e,2026-03-17_11h25.15.904,kallum_motion_pilot_GIST_update_2,2026.1.1,Win32,60.60606061,693288d74d0b087449ff136e,69b92ab4aef6dee357cd729a,69b92b4b524a1b82cb82930f,0.0377,0.0377,1,78,240,121,1,fiveseven,,,,,,,,,,,,,,,,,,,,,,,,,,,,,,,,,,,,,,,,,,,,,,,,,,,,,,,,,,,,,,,,,,,,,,,,,,,,,,,,,,,,,,,,,,,,,,,,,,,,,,,,,,,,,,,,,,,,,,,,,,,,,,,,,,,,,,,,,
,,693288d74d0b087449ff136e,2026-03-17_11h25.15.904,kallum_motion_pilot_GIST_update_2,2026.1.1,Win32,60.60606061,693288d74d0b087449ff136e,69b92ab4aef6dee357cd729a,69b92b4b524a1b82cb82930f,0.0377,0.0377,1,79,241,45,1,threefour,,,,,,,,,,,,,,,,,,,,,,,,,,,,,,,,,,,,,,,,,,,,,,,,,,,,,,,,,,,,,,,,,,,,,,,,,,,,,,,,,,,,,,,,,,,,,,,,,,,,,,,,,,,,,,,,,,,,,,,,,,,,,,,,,,,,,,,,,
,,693288d74d0b087449ff136e,2026-03-17_11h25.15.904,kallum_motion_pilot_GIST_update_2,2026.1.1,Win32,60.60606061,693288d74d0b087449ff136e,69b92ab4aef6dee357cd729a,69b92b4b524a1b82cb82930f,0.0379,0.0379,1,80,242,66,1,twoone,,,,,,,,,,,,,,,,,,,,,,,,,,,,,,,,,,,,,,,,,,,,,,,,,,,,,,,,,,,,,,,,,,,,,,,,,,,,,,,,,,,,,,,,,,,,,,,,,,,,,,,,,,,,,,,,,,,,,,,,,,,,,,,,,,,,,,,,,
,,693288d74d0b087449ff136e,2026-03-17_11h25.15.904,kallum_motion_pilot_GIST_update_2,2026.1.1,Win32,60.60606061,693288d74d0b087449ff136e,69b92ab4aef6dee357cd729a,69b92b4b524a1b82cb82930f,0.038,0.038,1,81,243,113,1,fiveseven,,,,,,,,,,,,,,,,,,,,,,,,,,,,,,,,,,,,,,,,,,,,,,,,,,,,,,,,,,,,,,,,,,,,,,,,,,,,,,,,,,,,,,,,,,,,,,,,,,,,,,,,,,,,,,,,,,,,,,,,,,,,,,,,,,,,,,,,,
,,693288d74d0b087449ff136e,2026-03-17_11h25.15.904,kallum_motion_pilot_GIST_update_2,2026.1.1,Win32,60.60606061,693288d74d0b087449ff136e,69b92ab4aef6dee357cd729a,69b92b4b524a1b82cb82930f,0.038,0.038,1,82,244,55,1,fourthree,,,,,,,,,,,,,,,,,,,,,,,,,,,,,,,,,,,,,,,,,,,,,,,,,,,,,,,,,,,,,,,,,,,,,,,,,,,,,,,,,,,,,,,,,,,,,,,,,,,,,,,,,,,,,,,,,,,,,,,,,,,,,,,,,,,,,,,,,
,,693288d74d0b087449ff136e,2026-03-17_11h25.15.904,kallum_motion_pilot_GIST_update_2,2026.1.1,Win32,60.60606061,693288d74d0b087449ff136e,69b92ab4aef6dee357cd729a,69b92b4b524a1b82cb82930f,0.0381,0.0381,1,83,245,73,1,onethree,,,,,,,,,,,,,,,,,,,,,,,,,,,,,,,,,,,,,,,,,,,,,,,,,,,,,,,,,,,,,,,,,,,,,,,,,,,,,,,,,,,,,,,,,,,,,,,,,,,,,,,,,,,,,,,,,,,,,,,,,,,,,,,,,,,,,,,,,
,,693288d74d0b087449ff136e,2026-03-17_11h25.15.904,kallum_motion_pilot_GIST_update_2,2026.1.1,Win32,60.60606061,693288d74d0b087449ff136e,69b92ab4aef6dee357cd729a,69b92b4b524a1b82cb82930f,0.0382,0.0382,1,84,246,61,1,threefour,,,,,,,,,,,,,,,,,,,,,,,,,,,,,,,,,,,,,,,,,,,,,,,,,,,,,,,,,,,,,,,,,,,,,,,,,,,,,,,,,,,,,,,,,,,,,,,,,,,,,,,,,,,,,,,,,,,,,,,,,,,,,,,,,,,,,,,,,
,,693288d74d0b087449ff136e,2026-03-17_11h25.15.904,kallum_motion_pilot_GIST_update_2,2026.1.1,Win32,60.60606061,693288d74d0b087449ff136e,69b92ab4aef6dee357cd729a,69b92b4b524a1b82cb82930f,0.0383,0.0383,1,85,247,141,1,seveneight,,,,,,,,,,,,,,,,,,,,,,,,,,,,,,,,,,,,,,,,,,,,,,,,,,,,,,,,,,,,,,,,,,,,,,,,,,,,,,,,,,,,,,,,,,,,,,,,,,,,,,,,,,,,,,,,,,,,,,,,,,,,,,,,,,,,,,,,,
,,693288d74d0b087449ff136e,2026-03-17_11h25.15.904,kallum_motion_pilot_GIST_update_2,2026.1.1,Win32,60.60606061,693288d74d0b087449ff136e,69b92ab4aef6dee357cd729a,69b92b4b524a1b82cb82930f,0.0384,0.0384,1,86,248,137,1,fiveseven,,,,,,,,,,,,,,,,,,,,,,,,,,,,,,,,,,,,,,,,,,,,,,,,,,,,,,,,,,,,,,,,,,,,,,,,,,,,,,,,,,,,,,,,,,,,,,,,,,,,,,,,,,,,,,,,,,,,,,,,,,,,,,,,,,,,,,,,,
,,693288d74d0b087449ff136e,2026-03-17_11h25.15.904,kallum_motion_pilot_GIST_update_2,2026.1.1,Win32,60.60606061,693288d74d0b087449ff136e,69b92ab4aef6dee357cd729a,69b92b4b524a1b82cb82930f,0.0385,0.0385,1,87,249,57,1,onethree,,,,,,,,,,,,,,,,,,,,,,,,,,,,,,,,,,,,,,,,,,,,,,,,,,,,,,,,,,,,,,,,,,,,,,,,,,,,,,,,,,,,,,,,,,,,,,,,,,,,,,,,,,,,,,,,,,,,,,,,,,,,,,,,,,,,,,,,,
,,693288d74d0b087449ff136e,2026-03-17_11h25.15.904,kallum_motion_pilot_GIST_update_2,2026.1.1,Win32,60.60606061,693288d74d0b087449ff136e,69b92ab4aef6dee357cd729a,69b92b4b524a1b82cb82930f,0.0387,0.0387,1,88,250,105,1,fiveseven,,,,,,,,,,,,,,,,,,,,,,,,,,,,,,,,,,,,,,,,,,,,,,,,,,,,,,,,,,,,,,,,,,,,,,,,,,,,,,,,,,,,,,,,,,,,,,,,,,,,,,,,,,,,,,,,,,,,,,,,,,,,,,,,,,,,,,,,,
,,693288d74d0b087449ff136e,2026-03-17_11h25.15.904,kallum_motion_pilot_GIST_update_2,2026.1.1,Win32,60.60606061,693288d74d0b087449ff136e,69b92ab4aef6dee357cd729a,69b92b4b524a1b82cb82930f,0.0387,0.0387,1,89,251,81,1,fiveseven,,,,,,,,,,,,,,,,,,,,,,,,,,,,,,,,,,,,,,,,,,,,,,,,,,,,,,,,,,,,,,,,,,,,,,,,,,,,,,,,,,,,,,,,,,,,,,,,,,,,,,,,,,,,,,,,,,,,,,,,,,,,,,,,,,,,,,,,,
,,693288d74d0b087449ff136e,2026-03-17_11h25.15.904,kallum_motion_pilot_GIST_update_2,2026.1.1,Win32,60.60606061,693288d74d0b087449ff136e,69b92ab4aef6dee357cd729a,69b92b4b524a1b82cb82930f,0.0388,0.0388,1,90,252,37,1,threefour,,,,,,,,,,,,,,,,,,,,,,,,,,,,,,,,,,,,,,,,,,,,,,,,,,,,,,,,,,,,,,,,,,,,,,,,,,,,,,,,,,,,,,,,,,,,,,,,,,,,,,,,,,,,,,,,,,,,,,,,,,,,,,,,,,,,,,,,,
,,693288d74d0b087449ff136e,2026-03-17_11h25.15.904,kallum_motion_pilot_GIST_update_2,2026.1.1,Win32,60.60606061,693288d74d0b087449ff136e,69b92ab4aef6dee357cd729a,69b92b4b524a1b82cb82930f,0.039,0.039,1,91,253,109,1,seveneight,,,,,,,,,,,,,,,,,,,,,,,,,,,,,,,,,,,,,,,,,,,,,,,,,,,,,,,,,,,,,,,,,,,,,,,,,,,,,,,,,,,,,,,,,,,,,,,,,,,,,,,,,,,,,,,,,,,,,,,,,,,,,,,,,,,,,,,,,
,,693288d74d0b087449ff136e,2026-03-17_11h25.15.904,kallum_motion_pilot_GIST_update_2,2026.1.1,Win32,60.60606061,693288d74d0b087449ff136e,69b92ab4aef6dee357cd729a,69b92b4b524a1b82cb82930f,0.0391,0.0391,1,92,254,142,1,eightsix,,,,,,,,,,,,,,,,,,,,,,,,,,,,,,,,,,,,,,,,,,,,,,,,,,,,,,,,,,,,,,,,,,,,,,,,,,,,,,,,,,,,,,,,,,,,,,,,,,,,,,,,,,,,,,,,,,,,,,,,,,,,,,,,,,,,,,,,,
,,693288d74d0b087449ff136e,2026-03-17_11h25.15.904,kallum_motion_pilot_GIST_update_2,2026.1.1,Win32,60.60606061,693288d74d0b087449ff136e,69b92ab4aef6dee357cd729a,69b92b4b524a1b82cb82930f,0.0392,0.0392,1,93,255,6,1,fourtwo,,,,,,,,,,,,,,,,,,,,,,,,,,,,,,,,,,,,,,,,,,,,,,,,,,,,,,,,,,,,,,,,,,,,,,,,,,,,,,,,,,,,,,,,,,,,,,,,,,,,,,,,,,,,,,,,,,,,,,,,,,,,,,,,,,,,,,,,,
,,693288d74d0b087449ff136e,2026-03-17_11h25.15.904,kallum_motion_pilot_GIST_update_2,2026.1.1,Win32,60.60606061,693288d74d0b087449ff136e,69b92ab4aef6dee357cd729a,69b92b4b524a1b82cb82930f,0.0393,0.0393,1,94,256,77,1,threefour,,,,,,,,,,,,,,,,,,,,,,,,,,,,,,,,,,,,,,,,,,,,,,,,,,,,,,,,,,,,,,,,,,,,,,,,,,,,,,,,,,,,,,,,,,,,,,,,,,,,,,,,,,,,,,,,,,,,,,,,,,,,,,,,,,,,,,,,,
,,693288d74d0b087449ff136e,2026-03-17_11h25.15.904,kallum_motion_pilot_GIST_update_2,2026.1.1,Win32,60.60606061,693288d74d0b087449ff136e,69b92ab4aef6dee357cd729a,69b92b4b524a1b82cb82930f,0.0394,0.0394,1,95,257,126,1,eightsix,,,,,,,,,,,,,,,,,,,,,,,,,,,,,,,,,,,,,,,,,,,,,,,,,,,,,,,,,,,,,,,,,,,,,,,,,,,,,,,,,,,,,,,,,,,,,,,,,,,,,,,,,,,,,,,,,,,,,,,,,,,,,,,,,,,,,,,,,
,,693288d74d0b087449ff136e,2026-03-17_11h25.15.904,kallum_motion_pilot_GIST_update_2,2026.1.1,Win32,60.60606061,693288d74d0b087449ff136e,69b92ab4aef6dee357cd729a,69b92b4b524a1b82cb82930f,0.0395,0.0395,1,96,258,54,1,fourtwo,,,,,,,,,,,,,,,,,,,,,,,,,,,,,,,,,,,,,,,,,,,,,,,,,,,,,,,,,,,,,,,,,,,,,,,,,,,,,,,,,,,,,,,,,,,,,,,,,,,,,,,,,,,,,,,,,,,,,,,,,,,,,,,,,,,,,,,,,
,,693288d74d0b087449ff136e,2026-03-17_11h25.15.904,kallum_motion_pilot_GIST_update_2,2026.1.1,Win32,60.60606061,693288d74d0b087449ff136e,69b92ab4aef6dee357cd729a,69b92b4b524a1b82cb82930f,0.0396,0.0396,1,97,259,111,1,eightseven,,,,,,,,,,,,,,,,,,,,,,,,,,,,,,,,,,,,,,,,,,,,,,,,,,,,,,,,,,,,,,,,,,,,,,,,,,,,,,,,,,,,,,,,,,,,,,,,,,,,,,,,,,,,,,,,,,,,,,,,,,,,,,,,,,,,,,,,,
,,693288d74d0b087449ff136e,2026-03-17_11h25.15.904,kallum_motion_pilot_GIST_update_2,2026.1.1,Win32,60.60606061,693288d74d0b087449ff136e,69b92ab4aef6dee357cd729a,69b92b4b524a1b82cb82930f,0.0397,0.0397,1,98,260,106,1,sixfive,,,,,,,,,,,,,,,,,,,,,,,,,,,,,,,,,,,,,,,,,,,,,,,,,,,,,,,,,,,,,,,,,,,,,,,,,,,,,,,,,,,,,,,,,,,,,,,,,,,,,,,,,,,,,,,,,,,,,,,,,,,,,,,,,,,,,,,,,
,,693288d74d0b087449ff136e,2026-03-17_11h25.15.904,kallum_motion_pilot_GIST_update_2,2026.1.1,Win32,60.60606061,693288d74d0b087449ff136e,69b92ab4aef6dee357cd729a,69b92b4b524a1b82cb82930f,0.0398,0.0398,1,99,261,17,1,onethree,,,,,,,,,,,,,,,,,,,,,,,,,,,,,,,,,,,,,,,,,,,,,,,,,,,,,,,,,,,,,,,,,,,,,,,,,,,,,,,,,,,,,,,,,,,,,,,,,,,,,,,,,,,,,,,,,,,,,,,,,,,,,,,,,,,,,,,,,
,,693288d74d0b087449ff136e,2026-03-17_11h25.15.904,kallum_motion_pilot_GIST_update_2,2026.1.1,Win32,60.60606061,693288d74d0b087449ff136e,69b92ab4aef6dee357cd729a,69b92b4b524a1b82cb82930f,0.0399,0.0399,1,100,262,71,1,fourthree,,,,,,,,,,,,,,,,,,,,,,,,,,,,,,,,,,,,,,,,,,,,,,,,,,,,,,,,,,,,,,,,,,,,,,,,,,,,,,,,,,,,,,,,,,,,,,,,,,,,,,,,,,,,,,,,,,,,,,,,,,,,,,,,,,,,,,,,,
,,693288d74d0b087449ff136e,2026-03-17_11h25.15.904,kallum_motion_pilot_GIST_update_2,2026.1.1,Win32,60.60606061,693288d74d0b087449ff136e,69b92ab4aef6dee357cd729a,69b92b4b524a1b82cb82930f,0.04,0.04,1,101,263,104,1,fivesix,,,,,,,,,,,,,,,,,,,,,,,,,,,,,,,,,,,,,,,,,,,,,,,,,,,,,,,,,,,,,,,,,,,,,,,,,,,,,,,,,,,,,,,,,,,,,,,,,,,,,,,,,,,,,,,,,,,,,,,,,,,,,,,,,,,,,,,,,
,,693288d74d0b087449ff136e,2026-03-17_11h25.15.904,kallum_motion_pilot_GIST_update_2,2026.1.1,Win32,60.60606061,693288d74d0b087449ff136e,69b92ab4aef6dee357cd729a,69b92b4b524a1b82cb82930f,0.0402,0.0402,1,102,264,115,1,sixeight,,,,,,,,,,,,,,,,,,,,,,,,,,,,,,,,,,,,,,,,,,,,,,,,,,,,,,,,,,,,,,,,,,,,,,,,,,,,,,,,,,,,,,,,,,,,,,,,,,,,,,,,,,,,,,,,,,,,,,,,,,,,,,,,,,,,,,,,,
,,693288d74d0b087449ff136e,2026-03-17_11h25.15.904,kallum_motion_pilot_GIST_update_2,2026.1.1,Win32,60.60606061,693288d74d0b087449ff136e,69b92ab4aef6dee357cd729a,69b92b4b524a1b82cb82930f,0.0404,0.0404,1,103,265,152,1,fivesix,,,,,,,,,,,,,,,,,,,,,,,,,,,,,,,,,,,,,,,,,,,,,,,,,,,,,,,,,,,,,,,,,,,,,,,,,,,,,,,,,,,,,,,,,,,,,,,,,,,,,,,,,,,,,,,,,,,,,,,,,,,,,,,,,,,,,,,,,
,,693288d74d0b087449ff136e,2026-03-17_11h25.15.904,kallum_motion_pilot_GIST_update_2,2026.1.1,Win32,60.60606061,693288d74d0b087449ff136e,69b92ab4aef6dee357cd729a,69b92b4b524a1b82cb82930f,0.0405,0.0405,1,104,266,56,1,onetwo,,,,,,,,,,,,,,,,,,,,,,,,,,,,,,,,,,,,,,,,,,,,,,,,,,,,,,,,,,,,,,,,,,,,,,,,,,,,,,,,,,,,,,,,,,,,,,,,,,,,,,,,,,,,,,,,,,,,,,,,,,,,,,,,,,,,,,,,,
