startup.started,startup.stopped,Prolific ID*,date,expName,psychopyVersion,OS,frameRate,participant,study_id,session,stimpositions.started,stimpositions.stopped,hardcoded_stimulus_positions.thisRepN,hardcoded_stimulus_positions.thisTrialN,hardcoded_stimulus_positions.thisN,hardcoded_stimulus_positions.thisIndex,hardcoded_stimulus_positions.ran,StimulusPos,stimorientation.started,stimorientation.stopped,prac_stimorientation_import_loop.thisRepN,prac_stimorientation_import_loop.thisTrialN,prac_stimorientation_import_loop.thisN,prac_stimorientation_import_loop.thisIndex,prac_stimorientation_import_loop.ran,Stimorientation,welcome_instr.started,welcome_instr.stopped,key_resp.keys,key_resp.rt,key_resp.duration,response_steppedout_1.started,response_steppedout_1.stopped,key_resp_20.keys,key_resp_20.rt,key_resp_20.duration,response_steppedout_2.started,response_steppedout_2.stopped,key_resp_19.keys,key_resp_19.rt,key_resp_19.duration,stim_response_instr.started,stim_response_instr.stopped,key_resp_15.keys,key_resp_15.rt,key_resp_15.duration,direction_instr_2.started,direction_instr_2.stopped,key_resp_9.keys,key_resp_9.rt,key_resp_9.duration,instr_prac.started,instr_prac.stopped,key_resp_10.keys,key_resp_10.rt,key_resp_10.duration,Stim1_display_prac.started,Stim1_display_prac.stopped,Ecc,Circle1_ori,Circle2_ori,response_prac.started,similarity,response_time,response_prac.stopped,mouse_5.x,mouse_5.y,mouse_5.leftButton,mouse_5.midButton,mouse_5.rightButton,mouse_5.clicked_name,responseprac_feedback.started,responseprac_feedback.stopped,summary2_prac.started,summary2_prac.stopped,mouse_6.x,mouse_6.y,mouse_6.leftButton,mouse_6.midButton,mouse_6.rightButton,mouse_6.clicked_name,duringprac.thisRepN,duringprac.thisTrialN,duringprac.thisN,duringprac.thisIndex,duringprac.ran,begin.started,begin.stopped,key_resp_22.keys,key_resp_22.rt,key_resp_22.duration,Stim1_display.started,Stim1_display.stopped,circle1_ori,circle2_ori,circle1_SF,circle2_SF,response.started,response.stopped,mouse.x,mouse.y,mouse.leftButton,mouse.midButton,mouse.rightButton,mouse.clicked_name,trialnumber,double_pass.thisRepN,double_pass.thisTrialN,double_pass.thisN,double_pass.thisIndex,double_pass.ran,double_pass.order,main_trial.thisRepN,main_trial.thisTrialN,main_trial.thisN,main_trial.thisIndex,main_trial.ran,main_trial.order,Trial_Counter,Catch,Frequencies,response_2.started,response_2.stopped,mouse_2.x,mouse_2.y,mouse_2.leftButton,mouse_2.midButton,mouse_2.rightButton,mouse_2.clicked_name,special_trial.started,special_trial.stopped,catch_1.started,catch_1.stopped,mouse_3.x,mouse_3.y,mouse_3.leftButton,mouse_3.midButton,mouse_3.rightButton,catchresponse,catchnumber,response_time_catch,response_sum.started,response_sum.stopped,mouse_11.x,mouse_11.y,mouse_11.leftButton,mouse_11.midButton,mouse_11.rightButton,flip_presentation_sequence_for_double_pass.started,flip_presentation_sequence_for_double_pass.stopped,goodbye.started,goodbye.stopped,key_resp_3.keys,key_resp_3.rt,key_resp_3.duration
0.0002,0.0002,695d6323922e5b6f33345f2b,2026-03-17_11h24.55.855,kallum_motion_pilot_GIST_update_2,2026.1.1,Win32,58.82352941,695d6323922e5b6f33345f2b,69b92ab4aef6dee357cd729a,69b92af7bbaf9f77b0ba99f2,,,,,,,,,,,,,,,,,,,,,,,,,,,,,,,,,,,,,,,,,,,,,,,,,,,,,,,,,,,,,,,,,,,,,,,,,,,,,,,,,,,,,,,,,,,,,,,,,,,,,,,,,,,,,,,,,,,,,,,,,,,,,,,,,,,,,,,,,,,,,,,,,
,,695d6323922e5b6f33345f2b,2026-03-17_11h24.55.855,kallum_motion_pilot_GIST_update_2,2026.1.1,Win32,58.82352941,695d6323922e5b6f33345f2b,69b92ab4aef6dee357cd729a,69b92af7bbaf9f77b0ba99f2,0.0099,0.01,0,0,0,39,1,fourthree,,,,,,,,,,,,,,,,,,,,,,,,,,,,,,,,,,,,,,,,,,,,,,,,,,,,,,,,,,,,,,,,,,,,,,,,,,,,,,,,,,,,,,,,,,,,,,,,,,,,,,,,,,,,,,,,,,,,,,,,,,,,,,,,,,,,,,,,,
,,695d6323922e5b6f33345f2b,2026-03-17_11h24.55.855,kallum_motion_pilot_GIST_update_2,2026.1.1,Win32,58.82352941,695d6323922e5b6f33345f2b,69b92ab4aef6dee357cd729a,69b92af7bbaf9f77b0ba99f2,0.0101,0.0101,0,1,1,9,1,onethree,,,,,,,,,,,,,,,,,,,,,,,,,,,,,,,,,,,,,,,,,,,,,,,,,,,,,,,,,,,,,,,,,,,,,,,,,,,,,,,,,,,,,,,,,,,,,,,,,,,,,,,,,,,,,,,,,,,,,,,,,,,,,,,,,,,,,,,,,
,,695d6323922e5b6f33345f2b,2026-03-17_11h24.55.855,kallum_motion_pilot_GIST_update_2,2026.1.1,Win32,58.82352941,695d6323922e5b6f33345f2b,69b92ab4aef6dee357cd729a,69b92af7bbaf9f77b0ba99f2,0.0101,0.0101,0,2,2,110,1,eightsix,,,,,,,,,,,,,,,,,,,,,,,,,,,,,,,,,,,,,,,,,,,,,,,,,,,,,,,,,,,,,,,,,,,,,,,,,,,,,,,,,,,,,,,,,,,,,,,,,,,,,,,,,,,,,,,,,,,,,,,,,,,,,,,,,,,,,,,,,
,,695d6323922e5b6f33345f2b,2026-03-17_11h24.55.855,kallum_motion_pilot_GIST_update_2,2026.1.1,Win32,58.82352941,695d6323922e5b6f33345f2b,69b92ab4aef6dee357cd729a,69b92af7bbaf9f77b0ba99f2,0.0102,0.0102,0,3,3,117,1,seveneight,,,,,,,,,,,,,,,,,,,,,,,,,,,,,,,,,,,,,,,,,,,,,,,,,,,,,,,,,,,,,,,,,,,,,,,,,,,,,,,,,,,,,,,,,,,,,,,,,,,,,,,,,,,,,,,,,,,,,,,,,,,,,,,,,,,,,,,,,
,,695d6323922e5b6f33345f2b,2026-03-17_11h24.55.855,kallum_motion_pilot_GIST_update_2,2026.1.1,Win32,58.82352941,695d6323922e5b6f33345f2b,69b92ab4aef6dee357cd729a,69b92af7bbaf9f77b0ba99f2,0.0102,0.0102,0,4,4,14,1,fourtwo,,,,,,,,,,,,,,,,,,,,,,,,,,,,,,,,,,,,,,,,,,,,,,,,,,,,,,,,,,,,,,,,,,,,,,,,,,,,,,,,,,,,,,,,,,,,,,,,,,,,,,,,,,,,,,,,,,,,,,,,,,,,,,,,,,,,,,,,,
,,695d6323922e5b6f33345f2b,2026-03-17_11h24.55.855,kallum_motion_pilot_GIST_update_2,2026.1.1,Win32,58.82352941,695d6323922e5b6f33345f2b,69b92ab4aef6dee357cd729a,69b92af7bbaf9f77b0ba99f2,0.0103,0.0103,0,5,5,90,1,sixfive,,,,,,,,,,,,,,,,,,,,,,,,,,,,,,,,,,,,,,,,,,,,,,,,,,,,,,,,,,,,,,,,,,,,,,,,,,,,,,,,,,,,,,,,,,,,,,,,,,,,,,,,,,,,,,,,,,,,,,,,,,,,,,,,,,,,,,,,,
,,695d6323922e5b6f33345f2b,2026-03-17_11h24.55.855,kallum_motion_pilot_GIST_update_2,2026.1.1,Win32,58.82352941,695d6323922e5b6f33345f2b,69b92ab4aef6dee357cd729a,69b92af7bbaf9f77b0ba99f2,0.0103,0.0103,0,6,6,72,1,onetwo,,,,,,,,,,,,,,,,,,,,,,,,,,,,,,,,,,,,,,,,,,,,,,,,,,,,,,,,,,,,,,,,,,,,,,,,,,,,,,,,,,,,,,,,,,,,,,,,,,,,,,,,,,,,,,,,,,,,,,,,,,,,,,,,,,,,,,,,,
,,695d6323922e5b6f33345f2b,2026-03-17_11h24.55.855,kallum_motion_pilot_GIST_update_2,2026.1.1,Win32,58.82352941,695d6323922e5b6f33345f2b,69b92ab4aef6dee357cd729a,69b92af7bbaf9f77b0ba99f2,0.0104,0.0104,0,7,7,52,1,threeone,,,,,,,,,,,,,,,,,,,,,,,,,,,,,,,,,,,,,,,,,,,,,,,,,,,,,,,,,,,,,,,,,,,,,,,,,,,,,,,,,,,,,,,,,,,,,,,,,,,,,,,,,,,,,,,,,,,,,,,,,,,,,,,,,,,,,,,,,
,,695d6323922e5b6f33345f2b,2026-03-17_11h24.55.855,kallum_motion_pilot_GIST_update_2,2026.1.1,Win32,58.82352941,695d6323922e5b6f33345f2b,69b92ab4aef6dee357cd729a,69b92af7bbaf9f77b0ba99f2,0.0104,0.0104,0,8,8,126,1,eightsix,,,,,,,,,,,,,,,,,,,,,,,,,,,,,,,,,,,,,,,,,,,,,,,,,,,,,,,,,,,,,,,,,,,,,,,,,,,,,,,,,,,,,,,,,,,,,,,,,,,,,,,,,,,,,,,,,,,,,,,,,,,,,,,,,,,,,,,,,
,,695d6323922e5b6f33345f2b,2026-03-17_11h24.55.855,kallum_motion_pilot_GIST_update_2,2026.1.1,Win32,58.82352941,695d6323922e5b6f33345f2b,69b92ab4aef6dee357cd729a,69b92af7bbaf9f77b0ba99f2,0.0105,0.0105,0,9,9,111,1,eightseven,,,,,,,,,,,,,,,,,,,,,,,,,,,,,,,,,,,,,,,,,,,,,,,,,,,,,,,,,,,,,,,,,,,,,,,,,,,,,,,,,,,,,,,,,,,,,,,,,,,,,,,,,,,,,,,,,,,,,,,,,,,,,,,,,,,,,,,,,
,,695d6323922e5b6f33345f2b,2026-03-17_11h24.55.855,kallum_motion_pilot_GIST_update_2,2026.1.1,Win32,58.82352941,695d6323922e5b6f33345f2b,69b92ab4aef6dee357cd729a,69b92af7bbaf9f77b0ba99f2,0.0105,0.0105,0,10,10,124,1,sevenfive,,,,,,,,,,,,,,,,,,,,,,,,,,,,,,,,,,,,,,,,,,,,,,,,,,,,,,,,,,,,,,,,,,,,,,,,,,,,,,,,,,,,,,,,,,,,,,,,,,,,,,,,,,,,,,,,,,,,,,,,,,,,,,,,,,,,,,,,,
,,695d6323922e5b6f33345f2b,2026-03-17_11h24.55.855,kallum_motion_pilot_GIST_update_2,2026.1.1,Win32,58.82352941,695d6323922e5b6f33345f2b,69b92ab4aef6dee357cd729a,69b92af7bbaf9f77b0ba99f2,0.0106,0.0106,0,11,11,15,1,fourthree,,,,,,,,,,,,,,,,,,,,,,,,,,,,,,,,,,,,,,,,,,,,,,,,,,,,,,,,,,,,,,,,,,,,,,,,,,,,,,,,,,,,,,,,,,,,,,,,,,,,,,,,,,,,,,,,,,,,,,,,,,,,,,,,,,,,,,,,,
,,695d6323922e5b6f33345f2b,2026-03-17_11h24.55.855,kallum_motion_pilot_GIST_update_2,2026.1.1,Win32,58.82352941,695d6323922e5b6f33345f2b,69b92ab4aef6dee357cd729a,69b92af7bbaf9f77b0ba99f2,0.0106,0.0106,0,12,12,83,1,sixeight,,,,,,,,,,,,,,,,,,,,,,,,,,,,,,,,,,,,,,,,,,,,,,,,,,,,,,,,,,,,,,,,,,,,,,,,,,,,,,,,,,,,,,,,,,,,,,,,,,,,,,,,,,,,,,,,,,,,,,,,,,,,,,,,,,,,,,,,,
,,695d6323922e5b6f33345f2b,2026-03-17_11h24.55.855,kallum_motion_pilot_GIST_update_2,2026.1.1,Win32,58.82352941,695d6323922e5b6f33345f2b,69b92ab4aef6dee357cd729a,69b92af7bbaf9f77b0ba99f2,0.0106,0.0106,0,13,13,1,1,onethree,,,,,,,,,,,,,,,,,,,,,,,,,,,,,,,,,,,,,,,,,,,,,,,,,,,,,,,,,,,,,,,,,,,,,,,,,,,,,,,,,,,,,,,,,,,,,,,,,,,,,,,,,,,,,,,,,,,,,,,,,,,,,,,,,,,,,,,,,
,,695d6323922e5b6f33345f2b,2026-03-17_11h24.55.855,kallum_motion_pilot_GIST_update_2,2026.1.1,Win32,58.82352941,695d6323922e5b6f33345f2b,69b92ab4aef6dee357cd729a,69b92af7bbaf9f77b0ba99f2,0.0106,0.0106,0,14,14,125,1,seveneight,,,,,,,,,,,,,,,,,,,,,,,,,,,,,,,,,,,,,,,,,,,,,,,,,,,,,,,,,,,,,,,,,,,,,,,,,,,,,,,,,,,,,,,,,,,,,,,,,,,,,,,,,,,,,,,,,,,,,,,,,,,,,,,,,,,,,,,,,
,,695d6323922e5b6f33345f2b,2026-03-17_11h24.55.855,kallum_motion_pilot_GIST_update_2,2026.1.1,Win32,58.82352941,695d6323922e5b6f33345f2b,69b92ab4aef6dee357cd729a,69b92af7bbaf9f77b0ba99f2,0.0107,0.0107,0,15,15,85,1,seveneight,,,,,,,,,,,,,,,,,,,,,,,,,,,,,,,,,,,,,,,,,,,,,,,,,,,,,,,,,,,,,,,,,,,,,,,,,,,,,,,,,,,,,,,,,,,,,,,,,,,,,,,,,,,,,,,,,,,,,,,,,,,,,,,,,,,,,,,,,
,,695d6323922e5b6f33345f2b,2026-03-17_11h24.55.855,kallum_motion_pilot_GIST_update_2,2026.1.1,Win32,58.82352941,695d6323922e5b6f33345f2b,69b92ab4aef6dee357cd729a,69b92af7bbaf9f77b0ba99f2,0.0108,0.0108,0,16,16,65,1,onethree,,,,,,,,,,,,,,,,,,,,,,,,,,,,,,,,,,,,,,,,,,,,,,,,,,,,,,,,,,,,,,,,,,,,,,,,,,,,,,,,,,,,,,,,,,,,,,,,,,,,,,,,,,,,,,,,,,,,,,,,,,,,,,,,,,,,,,,,,
,,695d6323922e5b6f33345f2b,2026-03-17_11h24.55.855,kallum_motion_pilot_GIST_update_2,2026.1.1,Win32,58.82352941,695d6323922e5b6f33345f2b,69b92ab4aef6dee357cd729a,69b92af7bbaf9f77b0ba99f2,0.0108,0.0108,0,17,17,23,1,fourthree,,,,,,,,,,,,,,,,,,,,,,,,,,,,,,,,,,,,,,,,,,,,,,,,,,,,,,,,,,,,,,,,,,,,,,,,,,,,,,,,,,,,,,,,,,,,,,,,,,,,,,,,,,,,,,,,,,,,,,,,,,,,,,,,,,,,,,,,,
,,695d6323922e5b6f33345f2b,2026-03-17_11h24.55.855,kallum_motion_pilot_GIST_update_2,2026.1.1,Win32,58.82352941,695d6323922e5b6f33345f2b,69b92ab4aef6dee357cd729a,69b92af7bbaf9f77b0ba99f2,0.0108,0.0108,0,18,18,98,1,sixfive,,,,,,,,,,,,,,,,,,,,,,,,,,,,,,,,,,,,,,,,,,,,,,,,,,,,,,,,,,,,,,,,,,,,,,,,,,,,,,,,,,,,,,,,,,,,,,,,,,,,,,,,,,,,,,,,,,,,,,,,,,,,,,,,,,,,,,,,,
,,695d6323922e5b6f33345f2b,2026-03-17_11h24.55.855,kallum_motion_pilot_GIST_update_2,2026.1.1,Win32,58.82352941,695d6323922e5b6f33345f2b,69b92ab4aef6dee357cd729a,69b92af7bbaf9f77b0ba99f2,0.0109,0.0109,0,19,19,81,1,fiveseven,,,,,,,,,,,,,,,,,,,,,,,,,,,,,,,,,,,,,,,,,,,,,,,,,,,,,,,,,,,,,,,,,,,,,,,,,,,,,,,,,,,,,,,,,,,,,,,,,,,,,,,,,,,,,,,,,,,,,,,,,,,,,,,,,,,,,,,,,
,,695d6323922e5b6f33345f2b,2026-03-17_11h24.55.855,kallum_motion_pilot_GIST_update_2,2026.1.1,Win32,58.82352941,695d6323922e5b6f33345f2b,69b92ab4aef6dee357cd729a,69b92af7bbaf9f77b0ba99f2,0.0109,0.0109,0,20,20,137,1,fiveseven,,,,,,,,,,,,,,,,,,,,,,,,,,,,,,,,,,,,,,,,,,,,,,,,,,,,,,,,,,,,,,,,,,,,,,,,,,,,,,,,,,,,,,,,,,,,,,,,,,,,,,,,,,,,,,,,,,,,,,,,,,,,,,,,,,,,,,,,,
,,695d6323922e5b6f33345f2b,2026-03-17_11h24.55.855,kallum_motion_pilot_GIST_update_2,2026.1.1,Win32,58.82352941,695d6323922e5b6f33345f2b,69b92ab4aef6dee357cd729a,69b92af7bbaf9f77b0ba99f2,0.0109,0.0109,0,21,21,49,1,onethree,,,,,,,,,,,,,,,,,,,,,,,,,,,,,,,,,,,,,,,,,,,,,,,,,,,,,,,,,,,,,,,,,,,,,,,,,,,,,,,,,,,,,,,,,,,,,,,,,,,,,,,,,,,,,,,,,,,,,,,,,,,,,,,,,,,,,,,,,
,,695d6323922e5b6f33345f2b,2026-03-17_11h24.55.855,kallum_motion_pilot_GIST_update_2,2026.1.1,Win32,58.82352941,695d6323922e5b6f33345f2b,69b92ab4aef6dee357cd729a,69b92af7bbaf9f77b0ba99f2,0.0109,0.0109,0,22,22,122,1,sixfive,,,,,,,,,,,,,,,,,,,,,,,,,,,,,,,,,,,,,,,,,,,,,,,,,,,,,,,,,,,,,,,,,,,,,,,,,,,,,,,,,,,,,,,,,,,,,,,,,,,,,,,,,,,,,,,,,,,,,,,,,,,,,,,,,,,,,,,,,
,,695d6323922e5b6f33345f2b,2026-03-17_11h24.55.855,kallum_motion_pilot_GIST_update_2,2026.1.1,Win32,58.82352941,695d6323922e5b6f33345f2b,69b92ab4aef6dee357cd729a,69b92af7bbaf9f77b0ba99f2,0.0109,0.0109,0,23,23,79,1,eightseven,,,,,,,,,,,,,,,,,,,,,,,,,,,,,,,,,,,,,,,,,,,,,,,,,,,,,,,,,,,,,,,,,,,,,,,,,,,,,,,,,,,,,,,,,,,,,,,,,,,,,,,,,,,,,,,,,,,,,,,,,,,,,,,,,,,,,,,,,
,,695d6323922e5b6f33345f2b,2026-03-17_11h24.55.855,kallum_motion_pilot_GIST_update_2,2026.1.1,Win32,58.82352941,695d6323922e5b6f33345f2b,69b92ab4aef6dee357cd729a,69b92af7bbaf9f77b0ba99f2,0.011,0.011,0,24,24,73,1,onethree,,,,,,,,,,,,,,,,,,,,,,,,,,,,,,,,,,,,,,,,,,,,,,,,,,,,,,,,,,,,,,,,,,,,,,,,,,,,,,,,,,,,,,,,,,,,,,,,,,,,,,,,,,,,,,,,,,,,,,,,,,,,,,,,,,,,,,,,,
,,695d6323922e5b6f33345f2b,2026-03-17_11h24.55.855,kallum_motion_pilot_GIST_update_2,2026.1.1,Win32,58.82352941,695d6323922e5b6f33345f2b,69b92ab4aef6dee357cd729a,69b92af7bbaf9f77b0ba99f2,0.011,0.011,0,25,25,141,1,seveneight,,,,,,,,,,,,,,,,,,,,,,,,,,,,,,,,,,,,,,,,,,,,,,,,,,,,,,,,,,,,,,,,,,,,,,,,,,,,,,,,,,,,,,,,,,,,,,,,,,,,,,,,,,,,,,,,,,,,,,,,,,,,,,,,,,,,,,,,,
,,695d6323922e5b6f33345f2b,2026-03-17_11h24.55.855,kallum_motion_pilot_GIST_update_2,2026.1.1,Win32,58.82352941,695d6323922e5b6f33345f2b,69b92ab4aef6dee357cd729a,69b92af7bbaf9f77b0ba99f2,0.0111,0.0111,0,26,26,109,1,seveneight,,,,,,,,,,,,,,,,,,,,,,,,,,,,,,,,,,,,,,,,,,,,,,,,,,,,,,,,,,,,,,,,,,,,,,,,,,,,,,,,,,,,,,,,,,,,,,,,,,,,,,,,,,,,,,,,,,,,,,,,,,,,,,,,,,,,,,,,,
,,695d6323922e5b6f33345f2b,2026-03-17_11h24.55.855,kallum_motion_pilot_GIST_update_2,2026.1.1,Win32,58.82352941,695d6323922e5b6f33345f2b,69b92ab4aef6dee357cd729a,69b92af7bbaf9f77b0ba99f2,0.0111,0.0111,0,27,27,92,1,sevenfive,,,,,,,,,,,,,,,,,,,,,,,,,,,,,,,,,,,,,,,,,,,,,,,,,,,,,,,,,,,,,,,,,,,,,,,,,,,,,,,,,,,,,,,,,,,,,,,,,,,,,,,,,,,,,,,,,,,,,,,,,,,,,,,,,,,,,,,,,
,,695d6323922e5b6f33345f2b,2026-03-17_11h24.55.855,kallum_motion_pilot_GIST_update_2,2026.1.1,Win32,58.82352941,695d6323922e5b6f33345f2b,69b92ab4aef6dee357cd729a,69b92af7bbaf9f77b0ba99f2,0.0111,0.0111,0,28,28,153,1,fiveseven,,,,,,,,,,,,,,,,,,,,,,,,,,,,,,,,,,,,,,,,,,,,,,,,,,,,,,,,,,,,,,,,,,,,,,,,,,,,,,,,,,,,,,,,,,,,,,,,,,,,,,,,,,,,,,,,,,,,,,,,,,,,,,,,,,,,,,,,,
,,695d6323922e5b6f33345f2b,2026-03-17_11h24.55.855,kallum_motion_pilot_GIST_update_2,2026.1.1,Win32,58.82352941,695d6323922e5b6f33345f2b,69b92ab4aef6dee357cd729a,69b92af7bbaf9f77b0ba99f2,0.0111,0.0111,0,29,29,159,1,eightseven,,,,,,,,,,,,,,,,,,,,,,,,,,,,,,,,,,,,,,,,,,,,,,,,,,,,,,,,,,,,,,,,,,,,,,,,,,,,,,,,,,,,,,,,,,,,,,,,,,,,,,,,,,,,,,,,,,,,,,,,,,,,,,,,,,,,,,,,,
,,695d6323922e5b6f33345f2b,2026-03-17_11h24.55.855,kallum_motion_pilot_GIST_update_2,2026.1.1,Win32,58.82352941,695d6323922e5b6f33345f2b,69b92ab4aef6dee357cd729a,69b92af7bbaf9f77b0ba99f2,0.0112,0.0112,0,30,30,46,1,fourtwo,,,,,,,,,,,,,,,,,,,,,,,,,,,,,,,,,,,,,,,,,,,,,,,,,,,,,,,,,,,,,,,,,,,,,,,,,,,,,,,,,,,,,,,,,,,,,,,,,,,,,,,,,,,,,,,,,,,,,,,,,,,,,,,,,,,,,,,,,
,,695d6323922e5b6f33345f2b,2026-03-17_11h24.55.855,kallum_motion_pilot_GIST_update_2,2026.1.1,Win32,58.82352941,695d6323922e5b6f33345f2b,69b92ab4aef6dee357cd729a,69b92af7bbaf9f77b0ba99f2,0.0112,0.0112,0,31,31,8,1,onetwo,,,,,,,,,,,,,,,,,,,,,,,,,,,,,,,,,,,,,,,,,,,,,,,,,,,,,,,,,,,,,,,,,,,,,,,,,,,,,,,,,,,,,,,,,,,,,,,,,,,,,,,,,,,,,,,,,,,,,,,,,,,,,,,,,,,,,,,,,
,,695d6323922e5b6f33345f2b,2026-03-17_11h24.55.855,kallum_motion_pilot_GIST_update_2,2026.1.1,Win32,58.82352941,695d6323922e5b6f33345f2b,69b92ab4aef6dee357cd729a,69b92af7bbaf9f77b0ba99f2,0.0113,0.0113,0,32,32,32,1,onetwo,,,,,,,,,,,,,,,,,,,,,,,,,,,,,,,,,,,,,,,,,,,,,,,,,,,,,,,,,,,,,,,,,,,,,,,,,,,,,,,,,,,,,,,,,,,,,,,,,,,,,,,,,,,,,,,,,,,,,,,,,,,,,,,,,,,,,,,,,
,,695d6323922e5b6f33345f2b,2026-03-17_11h24.55.855,kallum_motion_pilot_GIST_update_2,2026.1.1,Win32,58.82352941,695d6323922e5b6f33345f2b,69b92ab4aef6dee357cd729a,69b92af7bbaf9f77b0ba99f2,0.0113,0.0113,0,33,33,106,1,sixfive,,,,,,,,,,,,,,,,,,,,,,,,,,,,,,,,,,,,,,,,,,,,,,,,,,,,,,,,,,,,,,,,,,,,,,,,,,,,,,,,,,,,,,,,,,,,,,,,,,,,,,,,,,,,,,,,,,,,,,,,,,,,,,,,,,,,,,,,,
,,695d6323922e5b6f33345f2b,2026-03-17_11h24.55.855,kallum_motion_pilot_GIST_update_2,2026.1.1,Win32,58.82352941,695d6323922e5b6f33345f2b,69b92ab4aef6dee357cd729a,69b92af7bbaf9f77b0ba99f2,0.0113,0.0113,0,34,34,58,1,twoone,,,,,,,,,,,,,,,,,,,,,,,,,,,,,,,,,,,,,,,,,,,,,,,,,,,,,,,,,,,,,,,,,,,,,,,,,,,,,,,,,,,,,,,,,,,,,,,,,,,,,,,,,,,,,,,,,,,,,,,,,,,,,,,,,,,,,,,,,
,,695d6323922e5b6f33345f2b,2026-03-17_11h24.55.855,kallum_motion_pilot_GIST_update_2,2026.1.1,Win32,58.82352941,695d6323922e5b6f33345f2b,69b92ab4aef6dee357cd729a,69b92af7bbaf9f77b0ba99f2,0.0114,0.0114,0,35,35,134,1,eightsix,,,,,,,,,,,,,,,,,,,,,,,,,,,,,,,,,,,,,,,,,,,,,,,,,,,,,,,,,,,,,,,,,,,,,,,,,,,,,,,,,,,,,,,,,,,,,,,,,,,,,,,,,,,,,,,,,,,,,,,,,,,,,,,,,,,,,,,,,
,,695d6323922e5b6f33345f2b,2026-03-17_11h24.55.855,kallum_motion_pilot_GIST_update_2,2026.1.1,Win32,58.82352941,695d6323922e5b6f33345f2b,69b92ab4aef6dee357cd729a,69b92af7bbaf9f77b0ba99f2,0.0114,0.0114,0,36,36,10,1,twoone,,,,,,,,,,,,,,,,,,,,,,,,,,,,,,,,,,,,,,,,,,,,,,,,,,,,,,,,,,,,,,,,,,,,,,,,,,,,,,,,,,,,,,,,,,,,,,,,,,,,,,,,,,,,,,,,,,,,,,,,,,,,,,,,,,,,,,,,,
,,695d6323922e5b6f33345f2b,2026-03-17_11h24.55.855,kallum_motion_pilot_GIST_update_2,2026.1.1,Win32,58.82352941,695d6323922e5b6f33345f2b,69b92ab4aef6dee357cd729a,69b92af7bbaf9f77b0ba99f2,0.0115,0.0115,0,37,37,89,1,fiveseven,,,,,,,,,,,,,,,,,,,,,,,,,,,,,,,,,,,,,,,,,,,,,,,,,,,,,,,,,,,,,,,,,,,,,,,,,,,,,,,,,,,,,,,,,,,,,,,,,,,,,,,,,,,,,,,,,,,,,,,,,,,,,,,,,,,,,,,,,
,,695d6323922e5b6f33345f2b,2026-03-17_11h24.55.855,kallum_motion_pilot_GIST_update_2,2026.1.1,Win32,58.82352941,695d6323922e5b6f33345f2b,69b92ab4aef6dee357cd729a,69b92af7bbaf9f77b0ba99f2,0.0115,0.0115,0,38,38,20,1,threeone,,,,,,,,,,,,,,,,,,,,,,,,,,,,,,,,,,,,,,,,,,,,,,,,,,,,,,,,,,,,,,,,,,,,,,,,,,,,,,,,,,,,,,,,,,,,,,,,,,,,,,,,,,,,,,,,,,,,,,,,,,,,,,,,,,,,,,,,,
,,695d6323922e5b6f33345f2b,2026-03-17_11h24.55.855,kallum_motion_pilot_GIST_update_2,2026.1.1,Win32,58.82352941,695d6323922e5b6f33345f2b,69b92ab4aef6dee357cd729a,69b92af7bbaf9f77b0ba99f2,0.0115,0.0115,0,39,39,34,1,twoone,,,,,,,,,,,,,,,,,,,,,,,,,,,,,,,,,,,,,,,,,,,,,,,,,,,,,,,,,,,,,,,,,,,,,,,,,,,,,,,,,,,,,,,,,,,,,,,,,,,,,,,,,,,,,,,,,,,,,,,,,,,,,,,,,,,,,,,,,
,,695d6323922e5b6f33345f2b,2026-03-17_11h24.55.855,kallum_motion_pilot_GIST_update_2,2026.1.1,Win32,58.82352941,695d6323922e5b6f33345f2b,69b92ab4aef6dee357cd729a,69b92af7bbaf9f77b0ba99f2,0.0115,0.0115,0,40,40,147,1,sixeight,,,,,,,,,,,,,,,,,,,,,,,,,,,,,,,,,,,,,,,,,,,,,,,,,,,,,,,,,,,,,,,,,,,,,,,,,,,,,,,,,,,,,,,,,,,,,,,,,,,,,,,,,,,,,,,,,,,,,,,,,,,,,,,,,,,,,,,,,
,,695d6323922e5b6f33345f2b,2026-03-17_11h24.55.855,kallum_motion_pilot_GIST_update_2,2026.1.1,Win32,58.82352941,695d6323922e5b6f33345f2b,69b92ab4aef6dee357cd729a,69b92af7bbaf9f77b0ba99f2,0.0116,0.0116,0,41,41,87,1,eightseven,,,,,,,,,,,,,,,,,,,,,,,,,,,,,,,,,,,,,,,,,,,,,,,,,,,,,,,,,,,,,,,,,,,,,,,,,,,,,,,,,,,,,,,,,,,,,,,,,,,,,,,,,,,,,,,,,,,,,,,,,,,,,,,,,,,,,,,,,
,,695d6323922e5b6f33345f2b,2026-03-17_11h24.55.855,kallum_motion_pilot_GIST_update_2,2026.1.1,Win32,58.82352941,695d6323922e5b6f33345f2b,69b92ab4aef6dee357cd729a,69b92af7bbaf9f77b0ba99f2,0.0116,0.0116,0,42,42,54,1,fourtwo,,,,,,,,,,,,,,,,,,,,,,,,,,,,,,,,,,,,,,,,,,,,,,,,,,,,,,,,,,,,,,,,,,,,,,,,,,,,,,,,,,,,,,,,,,,,,,,,,,,,,,,,,,,,,,,,,,,,,,,,,,,,,,,,,,,,,,,,,
,,695d6323922e5b6f33345f2b,2026-03-17_11h24.55.855,kallum_motion_pilot_GIST_update_2,2026.1.1,Win32,58.82352941,695d6323922e5b6f33345f2b,69b92ab4aef6dee357cd729a,69b92af7bbaf9f77b0ba99f2,0.0116,0.0116,0,43,43,156,1,sevenfive,,,,,,,,,,,,,,,,,,,,,,,,,,,,,,,,,,,,,,,,,,,,,,,,,,,,,,,,,,,,,,,,,,,,,,,,,,,,,,,,,,,,,,,,,,,,,,,,,,,,,,,,,,,,,,,,,,,,,,,,,,,,,,,,,,,,,,,,,
,,695d6323922e5b6f33345f2b,2026-03-17_11h24.55.855,kallum_motion_pilot_GIST_update_2,2026.1.1,Win32,58.82352941,695d6323922e5b6f33345f2b,69b92ab4aef6dee357cd729a,69b92af7bbaf9f77b0ba99f2,0.0121,0.0121,0,44,44,63,1,fourthree,,,,,,,,,,,,,,,,,,,,,,,,,,,,,,,,,,,,,,,,,,,,,,,,,,,,,,,,,,,,,,,,,,,,,,,,,,,,,,,,,,,,,,,,,,,,,,,,,,,,,,,,,,,,,,,,,,,,,,,,,,,,,,,,,,,,,,,,,
,,695d6323922e5b6f33345f2b,2026-03-17_11h24.55.855,kallum_motion_pilot_GIST_update_2,2026.1.1,Win32,58.82352941,695d6323922e5b6f33345f2b,69b92ab4aef6dee357cd729a,69b92af7bbaf9f77b0ba99f2,0.0121,0.0122,0,45,45,29,1,threefour,,,,,,,,,,,,,,,,,,,,,,,,,,,,,,,,,,,,,,,,,,,,,,,,,,,,,,,,,,,,,,,,,,,,,,,,,,,,,,,,,,,,,,,,,,,,,,,,,,,,,,,,,,,,,,,,,,,,,,,,,,,,,,,,,,,,,,,,,
,,695d6323922e5b6f33345f2b,2026-03-17_11h24.55.855,kallum_motion_pilot_GIST_update_2,2026.1.1,Win32,58.82352941,695d6323922e5b6f33345f2b,69b92ab4aef6dee357cd729a,69b92af7bbaf9f77b0ba99f2,0.0123,0.0123,0,46,46,56,1,onetwo,,,,,,,,,,,,,,,,,,,,,,,,,,,,,,,,,,,,,,,,,,,,,,,,,,,,,,,,,,,,,,,,,,,,,,,,,,,,,,,,,,,,,,,,,,,,,,,,,,,,,,,,,,,,,,,,,,,,,,,,,,,,,,,,,,,,,,,,,
,,695d6323922e5b6f33345f2b,2026-03-17_11h24.55.855,kallum_motion_pilot_GIST_update_2,2026.1.1,Win32,58.82352941,695d6323922e5b6f33345f2b,69b92ab4aef6dee357cd729a,69b92af7bbaf9f77b0ba99f2,0.0123,0.0123,0,47,47,33,1,onethree,,,,,,,,,,,,,,,,,,,,,,,,,,,,,,,,,,,,,,,,,,,,,,,,,,,,,,,,,,,,,,,,,,,,,,,,,,,,,,,,,,,,,,,,,,,,,,,,,,,,,,,,,,,,,,,,,,,,,,,,,,,,,,,,,,,,,,,,,
,,695d6323922e5b6f33345f2b,2026-03-17_11h24.55.855,kallum_motion_pilot_GIST_update_2,2026.1.1,Win32,58.82352941,695d6323922e5b6f33345f2b,69b92ab4aef6dee357cd729a,69b92af7bbaf9f77b0ba99f2,0.0123,0.0123,0,48,48,135,1,eightseven,,,,,,,,,,,,,,,,,,,,,,,,,,,,,,,,,,,,,,,,,,,,,,,,,,,,,,,,,,,,,,,,,,,,,,,,,,,,,,,,,,,,,,,,,,,,,,,,,,,,,,,,,,,,,,,,,,,,,,,,,,,,,,,,,,,,,,,,,
,,695d6323922e5b6f33345f2b,2026-03-17_11h24.55.855,kallum_motion_pilot_GIST_update_2,2026.1.1,Win32,58.82352941,695d6323922e5b6f33345f2b,69b92ab4aef6dee357cd729a,69b92af7bbaf9f77b0ba99f2,0.0124,0.0124,0,49,49,99,1,sixeight,,,,,,,,,,,,,,,,,,,,,,,,,,,,,,,,,,,,,,,,,,,,,,,,,,,,,,,,,,,,,,,,,,,,,,,,,,,,,,,,,,,,,,,,,,,,,,,,,,,,,,,,,,,,,,,,,,,,,,,,,,,,,,,,,,,,,,,,,
,,695d6323922e5b6f33345f2b,2026-03-17_11h24.55.855,kallum_motion_pilot_GIST_update_2,2026.1.1,Win32,58.82352941,695d6323922e5b6f33345f2b,69b92ab4aef6dee357cd729a,69b92af7bbaf9f77b0ba99f2,0.0124,0.0124,0,50,50,149,1,seveneight,,,,,,,,,,,,,,,,,,,,,,,,,,,,,,,,,,,,,,,,,,,,,,,,,,,,,,,,,,,,,,,,,,,,,,,,,,,,,,,,,,,,,,,,,,,,,,,,,,,,,,,,,,,,,,,,,,,,,,,,,,,,,,,,,,,,,,,,,
,,695d6323922e5b6f33345f2b,2026-03-17_11h24.55.855,kallum_motion_pilot_GIST_update_2,2026.1.1,Win32,58.82352941,695d6323922e5b6f33345f2b,69b92ab4aef6dee357cd729a,69b92af7bbaf9f77b0ba99f2,0.0125,0.0125,0,51,51,144,1,fivesix,,,,,,,,,,,,,,,,,,,,,,,,,,,,,,,,,,,,,,,,,,,,,,,,,,,,,,,,,,,,,,,,,,,,,,,,,,,,,,,,,,,,,,,,,,,,,,,,,,,,,,,,,,,,,,,,,,,,,,,,,,,,,,,,,,,,,,,,,
,,695d6323922e5b6f33345f2b,2026-03-17_11h24.55.855,kallum_motion_pilot_GIST_update_2,2026.1.1,Win32,58.82352941,695d6323922e5b6f33345f2b,69b92ab4aef6dee357cd729a,69b92af7bbaf9f77b0ba99f2,0.0125,0.0125,0,52,52,51,1,twofour,,,,,,,,,,,,,,,,,,,,,,,,,,,,,,,,,,,,,,,,,,,,,,,,,,,,,,,,,,,,,,,,,,,,,,,,,,,,,,,,,,,,,,,,,,,,,,,,,,,,,,,,,,,,,,,,,,,,,,,,,,,,,,,,,,,,,,,,,
,,695d6323922e5b6f33345f2b,2026-03-17_11h24.55.855,kallum_motion_pilot_GIST_update_2,2026.1.1,Win32,58.82352941,695d6323922e5b6f33345f2b,69b92ab4aef6dee357cd729a,69b92af7bbaf9f77b0ba99f2,0.0125,0.0125,0,53,53,121,1,fiveseven,,,,,,,,,,,,,,,,,,,,,,,,,,,,,,,,,,,,,,,,,,,,,,,,,,,,,,,,,,,,,,,,,,,,,,,,,,,,,,,,,,,,,,,,,,,,,,,,,,,,,,,,,,,,,,,,,,,,,,,,,,,,,,,,,,,,,,,,,
,,695d6323922e5b6f33345f2b,2026-03-17_11h24.55.855,kallum_motion_pilot_GIST_update_2,2026.1.1,Win32,58.82352941,695d6323922e5b6f33345f2b,69b92ab4aef6dee357cd729a,69b92af7bbaf9f77b0ba99f2,0.0125,0.0125,0,54,54,4,1,threeone,,,,,,,,,,,,,,,,,,,,,,,,,,,,,,,,,,,,,,,,,,,,,,,,,,,,,,,,,,,,,,,,,,,,,,,,,,,,,,,,,,,,,,,,,,,,,,,,,,,,,,,,,,,,,,,,,,,,,,,,,,,,,,,,,,,,,,,,,
,,695d6323922e5b6f33345f2b,2026-03-17_11h24.55.855,kallum_motion_pilot_GIST_update_2,2026.1.1,Win32,58.82352941,695d6323922e5b6f33345f2b,69b92ab4aef6dee357cd729a,69b92af7bbaf9f77b0ba99f2,0.0126,0.0126,0,55,55,91,1,sixeight,,,,,,,,,,,,,,,,,,,,,,,,,,,,,,,,,,,,,,,,,,,,,,,,,,,,,,,,,,,,,,,,,,,,,,,,,,,,,,,,,,,,,,,,,,,,,,,,,,,,,,,,,,,,,,,,,,,,,,,,,,,,,,,,,,,,,,,,,
,,695d6323922e5b6f33345f2b,2026-03-17_11h24.55.855,kallum_motion_pilot_GIST_update_2,2026.1.1,Win32,58.82352941,695d6323922e5b6f33345f2b,69b92ab4aef6dee357cd729a,69b92af7bbaf9f77b0ba99f2,0.0126,0.0126,0,56,56,145,1,fiveseven,,,,,,,,,,,,,,,,,,,,,,,,,,,,,,,,,,,,,,,,,,,,,,,,,,,,,,,,,,,,,,,,,,,,,,,,,,,,,,,,,,,,,,,,,,,,,,,,,,,,,,,,,,,,,,,,,,,,,,,,,,,,,,,,,,,,,,,,,
,,695d6323922e5b6f33345f2b,2026-03-17_11h24.55.855,kallum_motion_pilot_GIST_update_2,2026.1.1,Win32,58.82352941,695d6323922e5b6f33345f2b,69b92ab4aef6dee357cd729a,69b92af7bbaf9f77b0ba99f2,0.0127,0.0127,0,57,57,78,1,fourtwo,,,,,,,,,,,,,,,,,,,,,,,,,,,,,,,,,,,,,,,,,,,,,,,,,,,,,,,,,,,,,,,,,,,,,,,,,,,,,,,,,,,,,,,,,,,,,,,,,,,,,,,,,,,,,,,,,,,,,,,,,,,,,,,,,,,,,,,,,
,,695d6323922e5b6f33345f2b,2026-03-17_11h24.55.855,kallum_motion_pilot_GIST_update_2,2026.1.1,Win32,58.82352941,695d6323922e5b6f33345f2b,69b92ab4aef6dee357cd729a,69b92af7bbaf9f77b0ba99f2,0.0127,0.0127,0,58,58,55,1,fourthree,,,,,,,,,,,,,,,,,,,,,,,,,,,,,,,,,,,,,,,,,,,,,,,,,,,,,,,,,,,,,,,,,,,,,,,,,,,,,,,,,,,,,,,,,,,,,,,,,,,,,,,,,,,,,,,,,,,,,,,,,,,,,,,,,,,,,,,,,
,,695d6323922e5b6f33345f2b,2026-03-17_11h24.55.855,kallum_motion_pilot_GIST_update_2,2026.1.1,Win32,58.82352941,695d6323922e5b6f33345f2b,69b92ab4aef6dee357cd729a,69b92af7bbaf9f77b0ba99f2,0.0127,0.0127,0,59,59,161,1,fiveseven,,,,,,,,,,,,,,,,,,,,,,,,,,,,,,,,,,,,,,,,,,,,,,,,,,,,,,,,,,,,,,,,,,,,,,,,,,,,,,,,,,,,,,,,,,,,,,,,,,,,,,,,,,,,,,,,,,,,,,,,,,,,,,,,,,,,,,,,,
,,695d6323922e5b6f33345f2b,2026-03-17_11h24.55.855,kallum_motion_pilot_GIST_update_2,2026.1.1,Win32,58.82352941,695d6323922e5b6f33345f2b,69b92ab4aef6dee357cd729a,69b92af7bbaf9f77b0ba99f2,0.0127,0.0127,0,60,60,142,1,eightsix,,,,,,,,,,,,,,,,,,,,,,,,,,,,,,,,,,,,,,,,,,,,,,,,,,,,,,,,,,,,,,,,,,,,,,,,,,,,,,,,,,,,,,,,,,,,,,,,,,,,,,,,,,,,,,,,,,,,,,,,,,,,,,,,,,,,,,,,,
,,695d6323922e5b6f33345f2b,2026-03-17_11h24.55.855,kallum_motion_pilot_GIST_update_2,2026.1.1,Win32,58.82352941,695d6323922e5b6f33345f2b,69b92ab4aef6dee357cd729a,69b92af7bbaf9f77b0ba99f2,0.0128,0.0128,0,61,61,77,1,threefour,,,,,,,,,,,,,,,,,,,,,,,,,,,,,,,,,,,,,,,,,,,,,,,,,,,,,,,,,,,,,,,,,,,,,,,,,,,,,,,,,,,,,,,,,,,,,,,,,,,,,,,,,,,,,,,,,,,,,,,,,,,,,,,,,,,,,,,,,
,,695d6323922e5b6f33345f2b,2026-03-17_11h24.55.855,kallum_motion_pilot_GIST_update_2,2026.1.1,Win32,58.82352941,695d6323922e5b6f33345f2b,69b92ab4aef6dee357cd729a,69b92af7bbaf9f77b0ba99f2,0.0128,0.0128,0,62,62,47,1,fourthree,,,,,,,,,,,,,,,,,,,,,,,,,,,,,,,,,,,,,,,,,,,,,,,,,,,,,,,,,,,,,,,,,,,,,,,,,,,,,,,,,,,,,,,,,,,,,,,,,,,,,,,,,,,,,,,,,,,,,,,,,,,,,,,,,,,,,,,,,
,,695d6323922e5b6f33345f2b,2026-03-17_11h24.55.855,kallum_motion_pilot_GIST_update_2,2026.1.1,Win32,58.82352941,695d6323922e5b6f33345f2b,69b92ab4aef6dee357cd729a,69b92af7bbaf9f77b0ba99f2,0.0128,0.0128,0,63,63,11,1,twofour,,,,,,,,,,,,,,,,,,,,,,,,,,,,,,,,,,,,,,,,,,,,,,,,,,,,,,,,,,,,,,,,,,,,,,,,,,,,,,,,,,,,,,,,,,,,,,,,,,,,,,,,,,,,,,,,,,,,,,,,,,,,,,,,,,,,,,,,,
,,695d6323922e5b6f33345f2b,2026-03-17_11h24.55.855,kallum_motion_pilot_GIST_update_2,2026.1.1,Win32,58.82352941,695d6323922e5b6f33345f2b,69b92ab4aef6dee357cd729a,69b92af7bbaf9f77b0ba99f2,0.0129,0.0129,0,64,64,19,1,twofour,,,,,,,,,,,,,,,,,,,,,,,,,,,,,,,,,,,,,,,,,,,,,,,,,,,,,,,,,,,,,,,,,,,,,,,,,,,,,,,,,,,,,,,,,,,,,,,,,,,,,,,,,,,,,,,,,,,,,,,,,,,,,,,,,,,,,,,,,
,,695d6323922e5b6f33345f2b,2026-03-17_11h24.55.855,kallum_motion_pilot_GIST_update_2,2026.1.1,Win32,58.82352941,695d6323922e5b6f33345f2b,69b92ab4aef6dee357cd729a,69b92af7bbaf9f77b0ba99f2,0.0129,0.0129,0,65,65,112,1,fivesix,,,,,,,,,,,,,,,,,,,,,,,,,,,,,,,,,,,,,,,,,,,,,,,,,,,,,,,,,,,,,,,,,,,,,,,,,,,,,,,,,,,,,,,,,,,,,,,,,,,,,,,,,,,,,,,,,,,,,,,,,,,,,,,,,,,,,,,,,
,,695d6323922e5b6f33345f2b,2026-03-17_11h24.55.855,kallum_motion_pilot_GIST_update_2,2026.1.1,Win32,58.82352941,695d6323922e5b6f33345f2b,69b92ab4aef6dee357cd729a,69b92af7bbaf9f77b0ba99f2,0.013,0.013,0,66,66,7,1,fourthree,,,,,,,,,,,,,,,,,,,,,,,,,,,,,,,,,,,,,,,,,,,,,,,,,,,,,,,,,,,,,,,,,,,,,,,,,,,,,,,,,,,,,,,,,,,,,,,,,,,,,,,,,,,,,,,,,,,,,,,,,,,,,,,,,,,,,,,,,
,,695d6323922e5b6f33345f2b,2026-03-17_11h24.55.855,kallum_motion_pilot_GIST_update_2,2026.1.1,Win32,58.82352941,695d6323922e5b6f33345f2b,69b92ab4aef6dee357cd729a,69b92af7bbaf9f77b0ba99f2,0.013,0.013,0,67,67,131,1,sixeight,,,,,,,,,,,,,,,,,,,,,,,,,,,,,,,,,,,,,,,,,,,,,,,,,,,,,,,,,,,,,,,,,,,,,,,,,,,,,,,,,,,,,,,,,,,,,,,,,,,,,,,,,,,,,,,,,,,,,,,,,,,,,,,,,,,,,,,,,
,,695d6323922e5b6f33345f2b,2026-03-17_11h24.55.855,kallum_motion_pilot_GIST_update_2,2026.1.1,Win32,58.82352941,695d6323922e5b6f33345f2b,69b92ab4aef6dee357cd729a,69b92af7bbaf9f77b0ba99f2,0.0131,0.0131,0,68,68,67,1,twofour,,,,,,,,,,,,,,,,,,,,,,,,,,,,,,,,,,,,,,,,,,,,,,,,,,,,,,,,,,,,,,,,,,,,,,,,,,,,,,,,,,,,,,,,,,,,,,,,,,,,,,,,,,,,,,,,,,,,,,,,,,,,,,,,,,,,,,,,,
,,695d6323922e5b6f33345f2b,2026-03-17_11h24.55.855,kallum_motion_pilot_GIST_update_2,2026.1.1,Win32,58.82352941,695d6323922e5b6f33345f2b,69b92ab4aef6dee357cd729a,69b92af7bbaf9f77b0ba99f2,0.0131,0.0132,0,69,69,158,1,eightsix,,,,,,,,,,,,,,,,,,,,,,,,,,,,,,,,,,,,,,,,,,,,,,,,,,,,,,,,,,,,,,,,,,,,,,,,,,,,,,,,,,,,,,,,,,,,,,,,,,,,,,,,,,,,,,,,,,,,,,,,,,,,,,,,,,,,,,,,,
,,695d6323922e5b6f33345f2b,2026-03-17_11h24.55.855,kallum_motion_pilot_GIST_update_2,2026.1.1,Win32,58.82352941,695d6323922e5b6f33345f2b,69b92ab4aef6dee357cd729a,69b92af7bbaf9f77b0ba99f2,0.0132,0.0132,0,70,70,157,1,seveneight,,,,,,,,,,,,,,,,,,,,,,,,,,,,,,,,,,,,,,,,,,,,,,,,,,,,,,,,,,,,,,,,,,,,,,,,,,,,,,,,,,,,,,,,,,,,,,,,,,,,,,,,,,,,,,,,,,,,,,,,,,,,,,,,,,,,,,,,,
,,695d6323922e5b6f33345f2b,2026-03-17_11h24.55.855,kallum_motion_pilot_GIST_update_2,2026.1.1,Win32,58.82352941,695d6323922e5b6f33345f2b,69b92ab4aef6dee357cd729a,69b92af7bbaf9f77b0ba99f2,0.0132,0.0132,0,71,71,28,1,threeone,,,,,,,,,,,,,,,,,,,,,,,,,,,,,,,,,,,,,,,,,,,,,,,,,,,,,,,,,,,,,,,,,,,,,,,,,,,,,,,,,,,,,,,,,,,,,,,,,,,,,,,,,,,,,,,,,,,,,,,,,,,,,,,,,,,,,,,,,
,,695d6323922e5b6f33345f2b,2026-03-17_11h24.55.855,kallum_motion_pilot_GIST_update_2,2026.1.1,Win32,58.82352941,695d6323922e5b6f33345f2b,69b92ab4aef6dee357cd729a,69b92af7bbaf9f77b0ba99f2,0.0133,0.0133,0,72,72,25,1,onethree,,,,,,,,,,,,,,,,,,,,,,,,,,,,,,,,,,,,,,,,,,,,,,,,,,,,,,,,,,,,,,,,,,,,,,,,,,,,,,,,,,,,,,,,,,,,,,,,,,,,,,,,,,,,,,,,,,,,,,,,,,,,,,,,,,,,,,,,,
,,695d6323922e5b6f33345f2b,2026-03-17_11h24.55.855,kallum_motion_pilot_GIST_update_2,2026.1.1,Win32,58.82352941,695d6323922e5b6f33345f2b,69b92ab4aef6dee357cd729a,69b92af7bbaf9f77b0ba99f2,0.0133,0.0133,0,73,73,37,1,threefour,,,,,,,,,,,,,,,,,,,,,,,,,,,,,,,,,,,,,,,,,,,,,,,,,,,,,,,,,,,,,,,,,,,,,,,,,,,,,,,,,,,,,,,,,,,,,,,,,,,,,,,,,,,,,,,,,,,,,,,,,,,,,,,,,,,,,,,,,
,,695d6323922e5b6f33345f2b,2026-03-17_11h24.55.855,kallum_motion_pilot_GIST_update_2,2026.1.1,Win32,58.82352941,695d6323922e5b6f33345f2b,69b92ab4aef6dee357cd729a,69b92af7bbaf9f77b0ba99f2,0.0133,0.0133,0,74,74,143,1,eightseven,,,,,,,,,,,,,,,,,,,,,,,,,,,,,,,,,,,,,,,,,,,,,,,,,,,,,,,,,,,,,,,,,,,,,,,,,,,,,,,,,,,,,,,,,,,,,,,,,,,,,,,,,,,,,,,,,,,,,,,,,,,,,,,,,,,,,,,,,
,,695d6323922e5b6f33345f2b,2026-03-17_11h24.55.855,kallum_motion_pilot_GIST_update_2,2026.1.1,Win32,58.82352941,695d6323922e5b6f33345f2b,69b92ab4aef6dee357cd729a,69b92af7bbaf9f77b0ba99f2,0.0134,0.0134,0,75,75,103,1,eightseven,,,,,,,,,,,,,,,,,,,,,,,,,,,,,,,,,,,,,,,,,,,,,,,,,,,,,,,,,,,,,,,,,,,,,,,,,,,,,,,,,,,,,,,,,,,,,,,,,,,,,,,,,,,,,,,,,,,,,,,,,,,,,,,,,,,,,,,,,
,,695d6323922e5b6f33345f2b,2026-03-17_11h24.55.855,kallum_motion_pilot_GIST_update_2,2026.1.1,Win32,58.82352941,695d6323922e5b6f33345f2b,69b92ab4aef6dee357cd729a,69b92af7bbaf9f77b0ba99f2,0.0134,0.0134,0,76,76,114,1,sixfive,,,,,,,,,,,,,,,,,,,,,,,,,,,,,,,,,,,,,,,,,,,,,,,,,,,,,,,,,,,,,,,,,,,,,,,,,,,,,,,,,,,,,,,,,,,,,,,,,,,,,,,,,,,,,,,,,,,,,,,,,,,,,,,,,,,,,,,,,
,,695d6323922e5b6f33345f2b,2026-03-17_11h24.55.855,kallum_motion_pilot_GIST_update_2,2026.1.1,Win32,58.82352941,695d6323922e5b6f33345f2b,69b92ab4aef6dee357cd729a,69b92af7bbaf9f77b0ba99f2,0.0135,0.0135,0,77,77,123,1,sixeight,,,,,,,,,,,,,,,,,,,,,,,,,,,,,,,,,,,,,,,,,,,,,,,,,,,,,,,,,,,,,,,,,,,,,,,,,,,,,,,,,,,,,,,,,,,,,,,,,,,,,,,,,,,,,,,,,,,,,,,,,,,,,,,,,,,,,,,,,
,,695d6323922e5b6f33345f2b,2026-03-17_11h24.55.855,kallum_motion_pilot_GIST_update_2,2026.1.1,Win32,58.82352941,695d6323922e5b6f33345f2b,69b92ab4aef6dee357cd729a,69b92af7bbaf9f77b0ba99f2,0.0135,0.0135,0,78,78,6,1,fourtwo,,,,,,,,,,,,,,,,,,,,,,,,,,,,,,,,,,,,,,,,,,,,,,,,,,,,,,,,,,,,,,,,,,,,,,,,,,,,,,,,,,,,,,,,,,,,,,,,,,,,,,,,,,,,,,,,,,,,,,,,,,,,,,,,,,,,,,,,,
,,695d6323922e5b6f33345f2b,2026-03-17_11h24.55.855,kallum_motion_pilot_GIST_update_2,2026.1.1,Win32,58.82352941,695d6323922e5b6f33345f2b,69b92ab4aef6dee357cd729a,69b92af7bbaf9f77b0ba99f2,0.0135,0.0135,0,79,79,38,1,fourtwo,,,,,,,,,,,,,,,,,,,,,,,,,,,,,,,,,,,,,,,,,,,,,,,,,,,,,,,,,,,,,,,,,,,,,,,,,,,,,,,,,,,,,,,,,,,,,,,,,,,,,,,,,,,,,,,,,,,,,,,,,,,,,,,,,,,,,,,,,
,,695d6323922e5b6f33345f2b,2026-03-17_11h24.55.855,kallum_motion_pilot_GIST_update_2,2026.1.1,Win32,58.82352941,695d6323922e5b6f33345f2b,69b92ab4aef6dee357cd729a,69b92af7bbaf9f77b0ba99f2,0.0136,0.0136,0,80,80,2,1,twoone,,,,,,,,,,,,,,,,,,,,,,,,,,,,,,,,,,,,,,,,,,,,,,,,,,,,,,,,,,,,,,,,,,,,,,,,,,,,,,,,,,,,,,,,,,,,,,,,,,,,,,,,,,,,,,,,,,,,,,,,,,,,,,,,,,,,,,,,,
,,695d6323922e5b6f33345f2b,2026-03-17_11h24.55.855,kallum_motion_pilot_GIST_update_2,2026.1.1,Win32,58.82352941,695d6323922e5b6f33345f2b,69b92ab4aef6dee357cd729a,69b92af7bbaf9f77b0ba99f2,0.0136,0.0136,0,81,81,152,1,fivesix,,,,,,,,,,,,,,,,,,,,,,,,,,,,,,,,,,,,,,,,,,,,,,,,,,,,,,,,,,,,,,,,,,,,,,,,,,,,,,,,,,,,,,,,,,,,,,,,,,,,,,,,,,,,,,,,,,,,,,,,,,,,,,,,,,,,,,,,,
,,695d6323922e5b6f33345f2b,2026-03-17_11h24.55.855,kallum_motion_pilot_GIST_update_2,2026.1.1,Win32,58.82352941,695d6323922e5b6f33345f2b,69b92ab4aef6dee357cd729a,69b92af7bbaf9f77b0ba99f2,0.0136,0.0136,0,82,82,24,1,onetwo,,,,,,,,,,,,,,,,,,,,,,,,,,,,,,,,,,,,,,,,,,,,,,,,,,,,,,,,,,,,,,,,,,,,,,,,,,,,,,,,,,,,,,,,,,,,,,,,,,,,,,,,,,,,,,,,,,,,,,,,,,,,,,,,,,,,,,,,,
,,695d6323922e5b6f33345f2b,2026-03-17_11h24.55.855,kallum_motion_pilot_GIST_update_2,2026.1.1,Win32,58.82352941,695d6323922e5b6f33345f2b,69b92ab4aef6dee357cd729a,69b92af7bbaf9f77b0ba99f2,0.0137,0.0137,0,83,83,148,1,sevenfive,,,,,,,,,,,,,,,,,,,,,,,,,,,,,,,,,,,,,,,,,,,,,,,,,,,,,,,,,,,,,,,,,,,,,,,,,,,,,,,,,,,,,,,,,,,,,,,,,,,,,,,,,,,,,,,,,,,,,,,,,,,,,,,,,,,,,,,,,
,,695d6323922e5b6f33345f2b,2026-03-17_11h24.55.855,kallum_motion_pilot_GIST_update_2,2026.1.1,Win32,58.82352941,695d6323922e5b6f33345f2b,69b92ab4aef6dee357cd729a,69b92af7bbaf9f77b0ba99f2,0.0137,0.0137,0,84,84,154,1,sixfive,,,,,,,,,,,,,,,,,,,,,,,,,,,,,,,,,,,,,,,,,,,,,,,,,,,,,,,,,,,,,,,,,,,,,,,,,,,,,,,,,,,,,,,,,,,,,,,,,,,,,,,,,,,,,,,,,,,,,,,,,,,,,,,,,,,,,,,,,
,,695d6323922e5b6f33345f2b,2026-03-17_11h24.55.855,kallum_motion_pilot_GIST_update_2,2026.1.1,Win32,58.82352941,695d6323922e5b6f33345f2b,69b92ab4aef6dee357cd729a,69b92af7bbaf9f77b0ba99f2,0.0138,0.0138,0,85,85,74,1,twoone,,,,,,,,,,,,,,,,,,,,,,,,,,,,,,,,,,,,,,,,,,,,,,,,,,,,,,,,,,,,,,,,,,,,,,,,,,,,,,,,,,,,,,,,,,,,,,,,,,,,,,,,,,,,,,,,,,,,,,,,,,,,,,,,,,,,,,,,,
,,695d6323922e5b6f33345f2b,2026-03-17_11h24.55.855,kallum_motion_pilot_GIST_update_2,2026.1.1,Win32,58.82352941,695d6323922e5b6f33345f2b,69b92ab4aef6dee357cd729a,69b92af7bbaf9f77b0ba99f2,0.0138,0.0138,0,86,86,62,1,fourtwo,,,,,,,,,,,,,,,,,,,,,,,,,,,,,,,,,,,,,,,,,,,,,,,,,,,,,,,,,,,,,,,,,,,,,,,,,,,,,,,,,,,,,,,,,,,,,,,,,,,,,,,,,,,,,,,,,,,,,,,,,,,,,,,,,,,,,,,,,
,,695d6323922e5b6f33345f2b,2026-03-17_11h24.55.855,kallum_motion_pilot_GIST_update_2,2026.1.1,Win32,58.82352941,695d6323922e5b6f33345f2b,69b92ab4aef6dee357cd729a,69b92af7bbaf9f77b0ba99f2,0.0139,0.0139,0,87,87,12,1,threeone,,,,,,,,,,,,,,,,,,,,,,,,,,,,,,,,,,,,,,,,,,,,,,,,,,,,,,,,,,,,,,,,,,,,,,,,,,,,,,,,,,,,,,,,,,,,,,,,,,,,,,,,,,,,,,,,,,,,,,,,,,,,,,,,,,,,,,,,,
,,695d6323922e5b6f33345f2b,2026-03-17_11h24.55.855,kallum_motion_pilot_GIST_update_2,2026.1.1,Win32,58.82352941,695d6323922e5b6f33345f2b,69b92ab4aef6dee357cd729a,69b92af7bbaf9f77b0ba99f2,0.0139,0.0139,0,88,88,95,1,eightseven,,,,,,,,,,,,,,,,,,,,,,,,,,,,,,,,,,,,,,,,,,,,,,,,,,,,,,,,,,,,,,,,,,,,,,,,,,,,,,,,,,,,,,,,,,,,,,,,,,,,,,,,,,,,,,,,,,,,,,,,,,,,,,,,,,,,,,,,,
,,695d6323922e5b6f33345f2b,2026-03-17_11h24.55.855,kallum_motion_pilot_GIST_update_2,2026.1.1,Win32,58.82352941,695d6323922e5b6f33345f2b,69b92ab4aef6dee357cd729a,69b92af7bbaf9f77b0ba99f2,0.0139,0.0139,0,89,89,45,1,threefour,,,,,,,,,,,,,,,,,,,,,,,,,,,,,,,,,,,,,,,,,,,,,,,,,,,,,,,,,,,,,,,,,,,,,,,,,,,,,,,,,,,,,,,,,,,,,,,,,,,,,,,,,,,,,,,,,,,,,,,,,,,,,,,,,,,,,,,,,
,,695d6323922e5b6f33345f2b,2026-03-17_11h24.55.855,kallum_motion_pilot_GIST_update_2,2026.1.1,Win32,58.82352941,695d6323922e5b6f33345f2b,69b92ab4aef6dee357cd729a,69b92af7bbaf9f77b0ba99f2,0.014,0.014,0,90,90,120,1,fivesix,,,,,,,,,,,,,,,,,,,,,,,,,,,,,,,,,,,,,,,,,,,,,,,,,,,,,,,,,,,,,,,,,,,,,,,,,,,,,,,,,,,,,,,,,,,,,,,,,,,,,,,,,,,,,,,,,,,,,,,,,,,,,,,,,,,,,,,,,
,,695d6323922e5b6f33345f2b,2026-03-17_11h24.55.855,kallum_motion_pilot_GIST_update_2,2026.1.1,Win32,58.82352941,695d6323922e5b6f33345f2b,69b92ab4aef6dee357cd729a,69b92af7bbaf9f77b0ba99f2,0.014,0.014,0,91,91,66,1,twoone,,,,,,,,,,,,,,,,,,,,,,,,,,,,,,,,,,,,,,,,,,,,,,,,,,,,,,,,,,,,,,,,,,,,,,,,,,,,,,,,,,,,,,,,,,,,,,,,,,,,,,,,,,,,,,,,,,,,,,,,,,,,,,,,,,,,,,,,,
,,695d6323922e5b6f33345f2b,2026-03-17_11h24.55.855,kallum_motion_pilot_GIST_update_2,2026.1.1,Win32,58.82352941,695d6323922e5b6f33345f2b,69b92ab4aef6dee357cd729a,69b92af7bbaf9f77b0ba99f2,0.0141,0.0141,0,92,92,41,1,onethree,,,,,,,,,,,,,,,,,,,,,,,,,,,,,,,,,,,,,,,,,,,,,,,,,,,,,,,,,,,,,,,,,,,,,,,,,,,,,,,,,,,,,,,,,,,,,,,,,,,,,,,,,,,,,,,,,,,,,,,,,,,,,,,,,,,,,,,,,
,,695d6323922e5b6f33345f2b,2026-03-17_11h24.55.855,kallum_motion_pilot_GIST_update_2,2026.1.1,Win32,58.82352941,695d6323922e5b6f33345f2b,69b92ab4aef6dee357cd729a,69b92af7bbaf9f77b0ba99f2,0.0141,0.0141,0,93,93,59,1,twofour,,,,,,,,,,,,,,,,,,,,,,,,,,,,,,,,,,,,,,,,,,,,,,,,,,,,,,,,,,,,,,,,,,,,,,,,,,,,,,,,,,,,,,,,,,,,,,,,,,,,,,,,,,,,,,,,,,,,,,,,,,,,,,,,,,,,,,,,,
,,695d6323922e5b6f33345f2b,2026-03-17_11h24.55.855,kallum_motion_pilot_GIST_update_2,2026.1.1,Win32,58.82352941,695d6323922e5b6f33345f2b,69b92ab4aef6dee357cd729a,69b92af7bbaf9f77b0ba99f2,0.0141,0.0141,0,94,94,118,1,eightsix,,,,,,,,,,,,,,,,,,,,,,,,,,,,,,,,,,,,,,,,,,,,,,,,,,,,,,,,,,,,,,,,,,,,,,,,,,,,,,,,,,,,,,,,,,,,,,,,,,,,,,,,,,,,,,,,,,,,,,,,,,,,,,,,,,,,,,,,,
,,695d6323922e5b6f33345f2b,2026-03-17_11h24.55.855,kallum_motion_pilot_GIST_update_2,2026.1.1,Win32,58.82352941,695d6323922e5b6f33345f2b,69b92ab4aef6dee357cd729a,69b92af7bbaf9f77b0ba99f2,0.0142,0.0142,0,95,95,107,1,sixeight,,,,,,,,,,,,,,,,,,,,,,,,,,,,,,,,,,,,,,,,,,,,,,,,,,,,,,,,,,,,,,,,,,,,,,,,,,,,,,,,,,,,,,,,,,,,,,,,,,,,,,,,,,,,,,,,,,,,,,,,,,,,,,,,,,,,,,,,,
,,695d6323922e5b6f33345f2b,2026-03-17_11h24.55.855,kallum_motion_pilot_GIST_update_2,2026.1.1,Win32,58.82352941,695d6323922e5b6f33345f2b,69b92ab4aef6dee357cd729a,69b92af7bbaf9f77b0ba99f2,0.0142,0.0142,0,96,96,0,1,onetwo,,,,,,,,,,,,,,,,,,,,,,,,,,,,,,,,,,,,,,,,,,,,,,,,,,,,,,,,,,,,,,,,,,,,,,,,,,,,,,,,,,,,,,,,,,,,,,,,,,,,,,,,,,,,,,,,,,,,,,,,,,,,,,,,,,,,,,,,,
,,695d6323922e5b6f33345f2b,2026-03-17_11h24.55.855,kallum_motion_pilot_GIST_update_2,2026.1.1,Win32,58.82352941,695d6323922e5b6f33345f2b,69b92ab4aef6dee357cd729a,69b92af7bbaf9f77b0ba99f2,0.0142,0.0142,0,97,97,82,1,sixfive,,,,,,,,,,,,,,,,,,,,,,,,,,,,,,,,,,,,,,,,,,,,,,,,,,,,,,,,,,,,,,,,,,,,,,,,,,,,,,,,,,,,,,,,,,,,,,,,,,,,,,,,,,,,,,,,,,,,,,,,,,,,,,,,,,,,,,,,,
,,695d6323922e5b6f33345f2b,2026-03-17_11h24.55.855,kallum_motion_pilot_GIST_update_2,2026.1.1,Win32,58.82352941,695d6323922e5b6f33345f2b,69b92ab4aef6dee357cd729a,69b92af7bbaf9f77b0ba99f2,0.0143,0.0143,0,98,98,94,1,eightsix,,,,,,,,,,,,,,,,,,,,,,,,,,,,,,,,,,,,,,,,,,,,,,,,,,,,,,,,,,,,,,,,,,,,,,,,,,,,,,,,,,,,,,,,,,,,,,,,,,,,,,,,,,,,,,,,,,,,,,,,,,,,,,,,,,,,,,,,,
,,695d6323922e5b6f33345f2b,2026-03-17_11h24.55.855,kallum_motion_pilot_GIST_update_2,2026.1.1,Win32,58.82352941,695d6323922e5b6f33345f2b,69b92ab4aef6dee357cd729a,69b92af7bbaf9f77b0ba99f2,0.0144,0.0144,0,99,99,16,1,onetwo,,,,,,,,,,,,,,,,,,,,,,,,,,,,,,,,,,,,,,,,,,,,,,,,,,,,,,,,,,,,,,,,,,,,,,,,,,,,,,,,,,,,,,,,,,,,,,,,,,,,,,,,,,,,,,,,,,,,,,,,,,,,,,,,,,,,,,,,,
,,695d6323922e5b6f33345f2b,2026-03-17_11h24.55.855,kallum_motion_pilot_GIST_update_2,2026.1.1,Win32,58.82352941,695d6323922e5b6f33345f2b,69b92ab4aef6dee357cd729a,69b92af7bbaf9f77b0ba99f2,0.0144,0.0144,0,100,100,102,1,eightsix,,,,,,,,,,,,,,,,,,,,,,,,,,,,,,,,,,,,,,,,,,,,,,,,,,,,,,,,,,,,,,,,,,,,,,,,,,,,,,,,,,,,,,,,,,,,,,,,,,,,,,,,,,,,,,,,,,,,,,,,,,,,,,,,,,,,,,,,,
,,695d6323922e5b6f33345f2b,2026-03-17_11h24.55.855,kallum_motion_pilot_GIST_update_2,2026.1.1,Win32,58.82352941,695d6323922e5b6f33345f2b,69b92ab4aef6dee357cd729a,69b92af7bbaf9f77b0ba99f2,0.0144,0.0144,0,101,101,70,1,fourtwo,,,,,,,,,,,,,,,,,,,,,,,,,,,,,,,,,,,,,,,,,,,,,,,,,,,,,,,,,,,,,,,,,,,,,,,,,,,,,,,,,,,,,,,,,,,,,,,,,,,,,,,,,,,,,,,,,,,,,,,,,,,,,,,,,,,,,,,,,
,,695d6323922e5b6f33345f2b,2026-03-17_11h24.55.855,kallum_motion_pilot_GIST_update_2,2026.1.1,Win32,58.82352941,695d6323922e5b6f33345f2b,69b92ab4aef6dee357cd729a,69b92af7bbaf9f77b0ba99f2,0.0145,0.0145,0,102,102,128,1,fivesix,,,,,,,,,,,,,,,,,,,,,,,,,,,,,,,,,,,,,,,,,,,,,,,,,,,,,,,,,,,,,,,,,,,,,,,,,,,,,,,,,,,,,,,,,,,,,,,,,,,,,,,,,,,,,,,,,,,,,,,,,,,,,,,,,,,,,,,,,
,,695d6323922e5b6f33345f2b,2026-03-17_11h24.55.855,kallum_motion_pilot_GIST_update_2,2026.1.1,Win32,58.82352941,695d6323922e5b6f33345f2b,69b92ab4aef6dee357cd729a,69b92af7bbaf9f77b0ba99f2,0.0145,0.0145,0,103,103,151,1,eightseven,,,,,,,,,,,,,,,,,,,,,,,,,,,,,,,,,,,,,,,,,,,,,,,,,,,,,,,,,,,,,,,,,,,,,,,,,,,,,,,,,,,,,,,,,,,,,,,,,,,,,,,,,,,,,,,,,,,,,,,,,,,,,,,,,,,,,,,,,
,,695d6323922e5b6f33345f2b,2026-03-17_11h24.55.855,kallum_motion_pilot_GIST_update_2,2026.1.1,Win32,58.82352941,695d6323922e5b6f33345f2b,69b92ab4aef6dee357cd729a,69b92af7bbaf9f77b0ba99f2,0.0146,0.0146,0,104,104,35,1,twofour,,,,,,,,,,,,,,,,,,,,,,,,,,,,,,,,,,,,,,,,,,,,,,,,,,,,,,,,,,,,,,,,,,,,,,,,,,,,,,,,,,,,,,,,,,,,,,,,,,,,,,,,,,,,,,,,,,,,,,,,,,,,,,,,,,,,,,,,,
,,695d6323922e5b6f33345f2b,2026-03-17_11h24.55.855,kallum_motion_pilot_GIST_update_2,2026.1.1,Win32,58.82352941,695d6323922e5b6f33345f2b,69b92ab4aef6dee357cd729a,69b92af7bbaf9f77b0ba99f2,0.0146,0.0146,0,105,105,69,1,threefour,,,,,,,,,,,,,,,,,,,,,,,,,,,,,,,,,,,,,,,,,,,,,,,,,,,,,,,,,,,,,,,,,,,,,,,,,,,,,,,,,,,,,,,,,,,,,,,,,,,,,,,,,,,,,,,,,,,,,,,,,,,,,,,,,,,,,,,,,
,,695d6323922e5b6f33345f2b,2026-03-17_11h24.55.855,kallum_motion_pilot_GIST_update_2,2026.1.1,Win32,58.82352941,695d6323922e5b6f33345f2b,69b92ab4aef6dee357cd729a,69b92af7bbaf9f77b0ba99f2,0.0146,0.0146,0,106,106,42,1,twoone,,,,,,,,,,,,,,,,,,,,,,,,,,,,,,,,,,,,,,,,,,,,,,,,,,,,,,,,,,,,,,,,,,,,,,,,,,,,,,,,,,,,,,,,,,,,,,,,,,,,,,,,,,,,,,,,,,,,,,,,,,,,,,,,,,,,,,,,,
,,695d6323922e5b6f33345f2b,2026-03-17_11h24.55.855,kallum_motion_pilot_GIST_update_2,2026.1.1,Win32,58.82352941,695d6323922e5b6f33345f2b,69b92ab4aef6dee357cd729a,69b92af7bbaf9f77b0ba99f2,0.0147,0.0147,0,107,107,160,1,fivesix,,,,,,,,,,,,,,,,,,,,,,,,,,,,,,,,,,,,,,,,,,,,,,,,,,,,,,,,,,,,,,,,,,,,,,,,,,,,,,,,,,,,,,,,,,,,,,,,,,,,,,,,,,,,,,,,,,,,,,,,,,,,,,,,,,,,,,,,,
,,695d6323922e5b6f33345f2b,2026-03-17_11h24.55.855,kallum_motion_pilot_GIST_update_2,2026.1.1,Win32,58.82352941,695d6323922e5b6f33345f2b,69b92ab4aef6dee357cd729a,69b92af7bbaf9f77b0ba99f2,0.0147,0.0147,0,108,108,53,1,threefour,,,,,,,,,,,,,,,,,,,,,,,,,,,,,,,,,,,,,,,,,,,,,,,,,,,,,,,,,,,,,,,,,,,,,,,,,,,,,,,,,,,,,,,,,,,,,,,,,,,,,,,,,,,,,,,,,,,,,,,,,,,,,,,,,,,,,,,,,
,,695d6323922e5b6f33345f2b,2026-03-17_11h24.55.855,kallum_motion_pilot_GIST_update_2,2026.1.1,Win32,58.82352941,695d6323922e5b6f33345f2b,69b92ab4aef6dee357cd729a,69b92af7bbaf9f77b0ba99f2,0.0147,0.0147,0,109,109,132,1,sevenfive,,,,,,,,,,,,,,,,,,,,,,,,,,,,,,,,,,,,,,,,,,,,,,,,,,,,,,,,,,,,,,,,,,,,,,,,,,,,,,,,,,,,,,,,,,,,,,,,,,,,,,,,,,,,,,,,,,,,,,,,,,,,,,,,,,,,,,,,,
,,695d6323922e5b6f33345f2b,2026-03-17_11h24.55.855,kallum_motion_pilot_GIST_update_2,2026.1.1,Win32,58.82352941,695d6323922e5b6f33345f2b,69b92ab4aef6dee357cd729a,69b92af7bbaf9f77b0ba99f2,0.0148,0.0148,0,110,110,84,1,sevenfive,,,,,,,,,,,,,,,,,,,,,,,,,,,,,,,,,,,,,,,,,,,,,,,,,,,,,,,,,,,,,,,,,,,,,,,,,,,,,,,,,,,,,,,,,,,,,,,,,,,,,,,,,,,,,,,,,,,,,,,,,,,,,,,,,,,,,,,,,
,,695d6323922e5b6f33345f2b,2026-03-17_11h24.55.855,kallum_motion_pilot_GIST_update_2,2026.1.1,Win32,58.82352941,695d6323922e5b6f33345f2b,69b92ab4aef6dee357cd729a,69b92af7bbaf9f77b0ba99f2,0.0148,0.0148,0,111,111,116,1,sevenfive,,,,,,,,,,,,,,,,,,,,,,,,,,,,,,,,,,,,,,,,,,,,,,,,,,,,,,,,,,,,,,,,,,,,,,,,,,,,,,,,,,,,,,,,,,,,,,,,,,,,,,,,,,,,,,,,,,,,,,,,,,,,,,,,,,,,,,,,,
,,695d6323922e5b6f33345f2b,2026-03-17_11h24.55.855,kallum_motion_pilot_GIST_update_2,2026.1.1,Win32,58.82352941,695d6323922e5b6f33345f2b,69b92ab4aef6dee357cd729a,69b92af7bbaf9f77b0ba99f2,0.0149,0.0149,0,112,112,155,1,sixeight,,,,,,,,,,,,,,,,,,,,,,,,,,,,,,,,,,,,,,,,,,,,,,,,,,,,,,,,,,,,,,,,,,,,,,,,,,,,,,,,,,,,,,,,,,,,,,,,,,,,,,,,,,,,,,,,,,,,,,,,,,,,,,,,,,,,,,,,,
,,695d6323922e5b6f33345f2b,2026-03-17_11h24.55.855,kallum_motion_pilot_GIST_update_2,2026.1.1,Win32,58.82352941,695d6323922e5b6f33345f2b,69b92ab4aef6dee357cd729a,69b92af7bbaf9f77b0ba99f2,0.0149,0.0149,0,113,113,138,1,sixfive,,,,,,,,,,,,,,,,,,,,,,,,,,,,,,,,,,,,,,,,,,,,,,,,,,,,,,,,,,,,,,,,,,,,,,,,,,,,,,,,,,,,,,,,,,,,,,,,,,,,,,,,,,,,,,,,,,,,,,,,,,,,,,,,,,,,,,,,,
,,695d6323922e5b6f33345f2b,2026-03-17_11h24.55.855,kallum_motion_pilot_GIST_update_2,2026.1.1,Win32,58.82352941,695d6323922e5b6f33345f2b,69b92ab4aef6dee357cd729a,69b92af7bbaf9f77b0ba99f2,0.015,0.015,0,114,114,18,1,twoone,,,,,,,,,,,,,,,,,,,,,,,,,,,,,,,,,,,,,,,,,,,,,,,,,,,,,,,,,,,,,,,,,,,,,,,,,,,,,,,,,,,,,,,,,,,,,,,,,,,,,,,,,,,,,,,,,,,,,,,,,,,,,,,,,,,,,,,,,
,,695d6323922e5b6f33345f2b,2026-03-17_11h24.55.855,kallum_motion_pilot_GIST_update_2,2026.1.1,Win32,58.82352941,695d6323922e5b6f33345f2b,69b92ab4aef6dee357cd729a,69b92af7bbaf9f77b0ba99f2,0.015,0.015,0,115,115,96,1,fivesix,,,,,,,,,,,,,,,,,,,,,,,,,,,,,,,,,,,,,,,,,,,,,,,,,,,,,,,,,,,,,,,,,,,,,,,,,,,,,,,,,,,,,,,,,,,,,,,,,,,,,,,,,,,,,,,,,,,,,,,,,,,,,,,,,,,,,,,,,
,,695d6323922e5b6f33345f2b,2026-03-17_11h24.55.855,kallum_motion_pilot_GIST_update_2,2026.1.1,Win32,58.82352941,695d6323922e5b6f33345f2b,69b92ab4aef6dee357cd729a,69b92af7bbaf9f77b0ba99f2,0.015,0.015,0,116,116,113,1,fiveseven,,,,,,,,,,,,,,,,,,,,,,,,,,,,,,,,,,,,,,,,,,,,,,,,,,,,,,,,,,,,,,,,,,,,,,,,,,,,,,,,,,,,,,,,,,,,,,,,,,,,,,,,,,,,,,,,,,,,,,,,,,,,,,,,,,,,,,,,,
,,695d6323922e5b6f33345f2b,2026-03-17_11h24.55.855,kallum_motion_pilot_GIST_update_2,2026.1.1,Win32,58.82352941,695d6323922e5b6f33345f2b,69b92ab4aef6dee357cd729a,69b92af7bbaf9f77b0ba99f2,0.0151,0.0151,0,117,117,146,1,sixfive,,,,,,,,,,,,,,,,,,,,,,,,,,,,,,,,,,,,,,,,,,,,,,,,,,,,,,,,,,,,,,,,,,,,,,,,,,,,,,,,,,,,,,,,,,,,,,,,,,,,,,,,,,,,,,,,,,,,,,,,,,,,,,,,,,,,,,,,,
,,695d6323922e5b6f33345f2b,2026-03-17_11h24.55.855,kallum_motion_pilot_GIST_update_2,2026.1.1,Win32,58.82352941,695d6323922e5b6f33345f2b,69b92ab4aef6dee357cd729a,69b92af7bbaf9f77b0ba99f2,0.0151,0.0151,0,118,118,57,1,onethree,,,,,,,,,,,,,,,,,,,,,,,,,,,,,,,,,,,,,,,,,,,,,,,,,,,,,,,,,,,,,,,,,,,,,,,,,,,,,,,,,,,,,,,,,,,,,,,,,,,,,,,,,,,,,,,,,,,,,,,,,,,,,,,,,,,,,,,,,
,,695d6323922e5b6f33345f2b,2026-03-17_11h24.55.855,kallum_motion_pilot_GIST_update_2,2026.1.1,Win32,58.82352941,695d6323922e5b6f33345f2b,69b92ab4aef6dee357cd729a,69b92af7bbaf9f77b0ba99f2,0.0151,0.0151,0,119,119,130,1,sixfive,,,,,,,,,,,,,,,,,,,,,,,,,,,,,,,,,,,,,,,,,,,,,,,,,,,,,,,,,,,,,,,,,,,,,,,,,,,,,,,,,,,,,,,,,,,,,,,,,,,,,,,,,,,,,,,,,,,,,,,,,,,,,,,,,,,,,,,,,
,,695d6323922e5b6f33345f2b,2026-03-17_11h24.55.855,kallum_motion_pilot_GIST_update_2,2026.1.1,Win32,58.82352941,695d6323922e5b6f33345f2b,69b92ab4aef6dee357cd729a,69b92af7bbaf9f77b0ba99f2,0.0152,0.0152,0,120,120,21,1,threefour,,,,,,,,,,,,,,,,,,,,,,,,,,,,,,,,,,,,,,,,,,,,,,,,,,,,,,,,,,,,,,,,,,,,,,,,,,,,,,,,,,,,,,,,,,,,,,,,,,,,,,,,,,,,,,,,,,,,,,,,,,,,,,,,,,,,,,,,,
,,695d6323922e5b6f33345f2b,2026-03-17_11h24.55.855,kallum_motion_pilot_GIST_update_2,2026.1.1,Win32,58.82352941,695d6323922e5b6f33345f2b,69b92ab4aef6dee357cd729a,69b92af7bbaf9f77b0ba99f2,0.0153,0.0153,0,121,121,80,1,fivesix,,,,,,,,,,,,,,,,,,,,,,,,,,,,,,,,,,,,,,,,,,,,,,,,,,,,,,,,,,,,,,,,,,,,,,,,,,,,,,,,,,,,,,,,,,,,,,,,,,,,,,,,,,,,,,,,,,,,,,,,,,,,,,,,,,,,,,,,,
,,695d6323922e5b6f33345f2b,2026-03-17_11h24.55.855,kallum_motion_pilot_GIST_update_2,2026.1.1,Win32,58.82352941,695d6323922e5b6f33345f2b,69b92ab4aef6dee357cd729a,69b92af7bbaf9f77b0ba99f2,0.0153,0.0153,0,122,122,127,1,eightseven,,,,,,,,,,,,,,,,,,,,,,,,,,,,,,,,,,,,,,,,,,,,,,,,,,,,,,,,,,,,,,,,,,,,,,,,,,,,,,,,,,,,,,,,,,,,,,,,,,,,,,,,,,,,,,,,,,,,,,,,,,,,,,,,,,,,,,,,,
,,695d6323922e5b6f33345f2b,2026-03-17_11h24.55.855,kallum_motion_pilot_GIST_update_2,2026.1.1,Win32,58.82352941,695d6323922e5b6f33345f2b,69b92ab4aef6dee357cd729a,69b92af7bbaf9f77b0ba99f2,0.0153,0.0153,0,123,123,61,1,threefour,,,,,,,,,,,,,,,,,,,,,,,,,,,,,,,,,,,,,,,,,,,,,,,,,,,,,,,,,,,,,,,,,,,,,,,,,,,,,,,,,,,,,,,,,,,,,,,,,,,,,,,,,,,,,,,,,,,,,,,,,,,,,,,,,,,,,,,,,
,,695d6323922e5b6f33345f2b,2026-03-17_11h24.55.855,kallum_motion_pilot_GIST_update_2,2026.1.1,Win32,58.82352941,695d6323922e5b6f33345f2b,69b92ab4aef6dee357cd729a,69b92af7bbaf9f77b0ba99f2,0.0154,0.0154,0,124,124,97,1,fiveseven,,,,,,,,,,,,,,,,,,,,,,,,,,,,,,,,,,,,,,,,,,,,,,,,,,,,,,,,,,,,,,,,,,,,,,,,,,,,,,,,,,,,,,,,,,,,,,,,,,,,,,,,,,,,,,,,,,,,,,,,,,,,,,,,,,,,,,,,,
,,695d6323922e5b6f33345f2b,2026-03-17_11h24.55.855,kallum_motion_pilot_GIST_update_2,2026.1.1,Win32,58.82352941,695d6323922e5b6f33345f2b,69b92ab4aef6dee357cd729a,69b92af7bbaf9f77b0ba99f2,0.0154,0.0154,0,125,125,22,1,fourtwo,,,,,,,,,,,,,,,,,,,,,,,,,,,,,,,,,,,,,,,,,,,,,,,,,,,,,,,,,,,,,,,,,,,,,,,,,,,,,,,,,,,,,,,,,,,,,,,,,,,,,,,,,,,,,,,,,,,,,,,,,,,,,,,,,,,,,,,,,
,,695d6323922e5b6f33345f2b,2026-03-17_11h24.55.855,kallum_motion_pilot_GIST_update_2,2026.1.1,Win32,58.82352941,695d6323922e5b6f33345f2b,69b92ab4aef6dee357cd729a,69b92af7bbaf9f77b0ba99f2,0.0155,0.0155,0,126,126,64,1,onetwo,,,,,,,,,,,,,,,,,,,,,,,,,,,,,,,,,,,,,,,,,,,,,,,,,,,,,,,,,,,,,,,,,,,,,,,,,,,,,,,,,,,,,,,,,,,,,,,,,,,,,,,,,,,,,,,,,,,,,,,,,,,,,,,,,,,,,,,,,
,,695d6323922e5b6f33345f2b,2026-03-17_11h24.55.855,kallum_motion_pilot_GIST_update_2,2026.1.1,Win32,58.82352941,695d6323922e5b6f33345f2b,69b92ab4aef6dee357cd729a,69b92af7bbaf9f77b0ba99f2,0.0155,0.0155,0,127,127,105,1,fiveseven,,,,,,,,,,,,,,,,,,,,,,,,,,,,,,,,,,,,,,,,,,,,,,,,,,,,,,,,,,,,,,,,,,,,,,,,,,,,,,,,,,,,,,,,,,,,,,,,,,,,,,,,,,,,,,,,,,,,,,,,,,,,,,,,,,,,,,,,,
,,695d6323922e5b6f33345f2b,2026-03-17_11h24.55.855,kallum_motion_pilot_GIST_update_2,2026.1.1,Win32,58.82352941,695d6323922e5b6f33345f2b,69b92ab4aef6dee357cd729a,69b92af7bbaf9f77b0ba99f2,0.0156,0.0156,0,128,128,50,1,twoone,,,,,,,,,,,,,,,,,,,,,,,,,,,,,,,,,,,,,,,,,,,,,,,,,,,,,,,,,,,,,,,,,,,,,,,,,,,,,,,,,,,,,,,,,,,,,,,,,,,,,,,,,,,,,,,,,,,,,,,,,,,,,,,,,,,,,,,,,
,,695d6323922e5b6f33345f2b,2026-03-17_11h24.55.855,kallum_motion_pilot_GIST_update_2,2026.1.1,Win32,58.82352941,695d6323922e5b6f33345f2b,69b92ab4aef6dee357cd729a,69b92af7bbaf9f77b0ba99f2,0.0156,0.0156,0,129,129,129,1,fiveseven,,,,,,,,,,,,,,,,,,,,,,,,,,,,,,,,,,,,,,,,,,,,,,,,,,,,,,,,,,,,,,,,,,,,,,,,,,,,,,,,,,,,,,,,,,,,,,,,,,,,,,,,,,,,,,,,,,,,,,,,,,,,,,,,,,,,,,,,,
,,695d6323922e5b6f33345f2b,2026-03-17_11h24.55.855,kallum_motion_pilot_GIST_update_2,2026.1.1,Win32,58.82352941,695d6323922e5b6f33345f2b,69b92ab4aef6dee357cd729a,69b92af7bbaf9f77b0ba99f2,0.0157,0.0157,0,130,130,27,1,twofour,,,,,,,,,,,,,,,,,,,,,,,,,,,,,,,,,,,,,,,,,,,,,,,,,,,,,,,,,,,,,,,,,,,,,,,,,,,,,,,,,,,,,,,,,,,,,,,,,,,,,,,,,,,,,,,,,,,,,,,,,,,,,,,,,,,,,,,,,
,,695d6323922e5b6f33345f2b,2026-03-17_11h24.55.855,kallum_motion_pilot_GIST_update_2,2026.1.1,Win32,58.82352941,695d6323922e5b6f33345f2b,69b92ab4aef6dee357cd729a,69b92af7bbaf9f77b0ba99f2,0.0157,0.0157,0,131,131,140,1,sevenfive,,,,,,,,,,,,,,,,,,,,,,,,,,,,,,,,,,,,,,,,,,,,,,,,,,,,,,,,,,,,,,,,,,,,,,,,,,,,,,,,,,,,,,,,,,,,,,,,,,,,,,,,,,,,,,,,,,,,,,,,,,,,,,,,,,,,,,,,,
,,695d6323922e5b6f33345f2b,2026-03-17_11h24.55.855,kallum_motion_pilot_GIST_update_2,2026.1.1,Win32,58.82352941,695d6323922e5b6f33345f2b,69b92ab4aef6dee357cd729a,69b92af7bbaf9f77b0ba99f2,0.0157,0.0157,0,132,132,133,1,seveneight,,,,,,,,,,,,,,,,,,,,,,,,,,,,,,,,,,,,,,,,,,,,,,,,,,,,,,,,,,,,,,,,,,,,,,,,,,,,,,,,,,,,,,,,,,,,,,,,,,,,,,,,,,,,,,,,,,,,,,,,,,,,,,,,,,,,,,,,,
,,695d6323922e5b6f33345f2b,2026-03-17_11h24.55.855,kallum_motion_pilot_GIST_update_2,2026.1.1,Win32,58.82352941,695d6323922e5b6f33345f2b,69b92ab4aef6dee357cd729a,69b92af7bbaf9f77b0ba99f2,0.0157,0.0157,0,133,133,119,1,eightseven,,,,,,,,,,,,,,,,,,,,,,,,,,,,,,,,,,,,,,,,,,,,,,,,,,,,,,,,,,,,,,,,,,,,,,,,,,,,,,,,,,,,,,,,,,,,,,,,,,,,,,,,,,,,,,,,,,,,,,,,,,,,,,,,,,,,,,,,,
,,695d6323922e5b6f33345f2b,2026-03-17_11h24.55.855,kallum_motion_pilot_GIST_update_2,2026.1.1,Win32,58.82352941,695d6323922e5b6f33345f2b,69b92ab4aef6dee357cd729a,69b92af7bbaf9f77b0ba99f2,0.0158,0.0158,0,134,134,86,1,eightsix,,,,,,,,,,,,,,,,,,,,,,,,,,,,,,,,,,,,,,,,,,,,,,,,,,,,,,,,,,,,,,,,,,,,,,,,,,,,,,,,,,,,,,,,,,,,,,,,,,,,,,,,,,,,,,,,,,,,,,,,,,,,,,,,,,,,,,,,,
,,695d6323922e5b6f33345f2b,2026-03-17_11h24.55.855,kallum_motion_pilot_GIST_update_2,2026.1.1,Win32,58.82352941,695d6323922e5b6f33345f2b,69b92ab4aef6dee357cd729a,69b92af7bbaf9f77b0ba99f2,0.0159,0.0159,0,135,135,31,1,fourthree,,,,,,,,,,,,,,,,,,,,,,,,,,,,,,,,,,,,,,,,,,,,,,,,,,,,,,,,,,,,,,,,,,,,,,,,,,,,,,,,,,,,,,,,,,,,,,,,,,,,,,,,,,,,,,,,,,,,,,,,,,,,,,,,,,,,,,,,,
,,695d6323922e5b6f33345f2b,2026-03-17_11h24.55.855,kallum_motion_pilot_GIST_update_2,2026.1.1,Win32,58.82352941,695d6323922e5b6f33345f2b,69b92ab4aef6dee357cd729a,69b92af7bbaf9f77b0ba99f2,0.0159,0.0159,0,136,136,150,1,eightsix,,,,,,,,,,,,,,,,,,,,,,,,,,,,,,,,,,,,,,,,,,,,,,,,,,,,,,,,,,,,,,,,,,,,,,,,,,,,,,,,,,,,,,,,,,,,,,,,,,,,,,,,,,,,,,,,,,,,,,,,,,,,,,,,,,,,,,,,,
,,695d6323922e5b6f33345f2b,2026-03-17_11h24.55.855,kallum_motion_pilot_GIST_update_2,2026.1.1,Win32,58.82352941,695d6323922e5b6f33345f2b,69b92ab4aef6dee357cd729a,69b92af7bbaf9f77b0ba99f2,0.0159,0.0159,0,137,137,40,1,onetwo,,,,,,,,,,,,,,,,,,,,,,,,,,,,,,,,,,,,,,,,,,,,,,,,,,,,,,,,,,,,,,,,,,,,,,,,,,,,,,,,,,,,,,,,,,,,,,,,,,,,,,,,,,,,,,,,,,,,,,,,,,,,,,,,,,,,,,,,,
,,695d6323922e5b6f33345f2b,2026-03-17_11h24.55.855,kallum_motion_pilot_GIST_update_2,2026.1.1,Win32,58.82352941,695d6323922e5b6f33345f2b,69b92ab4aef6dee357cd729a,69b92af7bbaf9f77b0ba99f2,0.016,0.016,0,138,138,139,1,sixeight,,,,,,,,,,,,,,,,,,,,,,,,,,,,,,,,,,,,,,,,,,,,,,,,,,,,,,,,,,,,,,,,,,,,,,,,,,,,,,,,,,,,,,,,,,,,,,,,,,,,,,,,,,,,,,,,,,,,,,,,,,,,,,,,,,,,,,,,,
,,695d6323922e5b6f33345f2b,2026-03-17_11h24.55.855,kallum_motion_pilot_GIST_update_2,2026.1.1,Win32,58.82352941,695d6323922e5b6f33345f2b,69b92ab4aef6dee357cd729a,69b92af7bbaf9f77b0ba99f2,0.0161,0.0161,0,139,139,136,1,fivesix,,,,,,,,,,,,,,,,,,,,,,,,,,,,,,,,,,,,,,,,,,,,,,,,,,,,,,,,,,,,,,,,,,,,,,,,,,,,,,,,,,,,,,,,,,,,,,,,,,,,,,,,,,,,,,,,,,,,,,,,,,,,,,,,,,,,,,,,,
,,695d6323922e5b6f33345f2b,2026-03-17_11h24.55.855,kallum_motion_pilot_GIST_update_2,2026.1.1,Win32,58.82352941,695d6323922e5b6f33345f2b,69b92ab4aef6dee357cd729a,69b92af7bbaf9f77b0ba99f2,0.0161,0.0161,0,140,140,68,1,threeone,,,,,,,,,,,,,,,,,,,,,,,,,,,,,,,,,,,,,,,,,,,,,,,,,,,,,,,,,,,,,,,,,,,,,,,,,,,,,,,,,,,,,,,,,,,,,,,,,,,,,,,,,,,,,,,,,,,,,,,,,,,,,,,,,,,,,,,,,
,,695d6323922e5b6f33345f2b,2026-03-17_11h24.55.855,kallum_motion_pilot_GIST_update_2,2026.1.1,Win32,58.82352941,695d6323922e5b6f33345f2b,69b92ab4aef6dee357cd729a,69b92af7bbaf9f77b0ba99f2,0.0161,0.0161,0,141,141,100,1,sevenfive,,,,,,,,,,,,,,,,,,,,,,,,,,,,,,,,,,,,,,,,,,,,,,,,,,,,,,,,,,,,,,,,,,,,,,,,,,,,,,,,,,,,,,,,,,,,,,,,,,,,,,,,,,,,,,,,,,,,,,,,,,,,,,,,,,,,,,,,,
,,695d6323922e5b6f33345f2b,2026-03-17_11h24.55.855,kallum_motion_pilot_GIST_update_2,2026.1.1,Win32,58.82352941,695d6323922e5b6f33345f2b,69b92ab4aef6dee357cd729a,69b92af7bbaf9f77b0ba99f2,0.0162,0.0162,0,142,142,13,1,threefour,,,,,,,,,,,,,,,,,,,,,,,,,,,,,,,,,,,,,,,,,,,,,,,,,,,,,,,,,,,,,,,,,,,,,,,,,,,,,,,,,,,,,,,,,,,,,,,,,,,,,,,,,,,,,,,,,,,,,,,,,,,,,,,,,,,,,,,,,
,,695d6323922e5b6f33345f2b,2026-03-17_11h24.55.855,kallum_motion_pilot_GIST_update_2,2026.1.1,Win32,58.82352941,695d6323922e5b6f33345f2b,69b92ab4aef6dee357cd729a,69b92af7bbaf9f77b0ba99f2,0.0162,0.0162,0,143,143,44,1,threeone,,,,,,,,,,,,,,,,,,,,,,,,,,,,,,,,,,,,,,,,,,,,,,,,,,,,,,,,,,,,,,,,,,,,,,,,,,,,,,,,,,,,,,,,,,,,,,,,,,,,,,,,,,,,,,,,,,,,,,,,,,,,,,,,,,,,,,,,,
,,695d6323922e5b6f33345f2b,2026-03-17_11h24.55.855,kallum_motion_pilot_GIST_update_2,2026.1.1,Win32,58.82352941,695d6323922e5b6f33345f2b,69b92ab4aef6dee357cd729a,69b92af7bbaf9f77b0ba99f2,0.0162,0.0162,0,144,144,36,1,threeone,,,,,,,,,,,,,,,,,,,,,,,,,,,,,,,,,,,,,,,,,,,,,,,,,,,,,,,,,,,,,,,,,,,,,,,,,,,,,,,,,,,,,,,,,,,,,,,,,,,,,,,,,,,,,,,,,,,,,,,,,,,,,,,,,,,,,,,,,
,,695d6323922e5b6f33345f2b,2026-03-17_11h24.55.855,kallum_motion_pilot_GIST_update_2,2026.1.1,Win32,58.82352941,695d6323922e5b6f33345f2b,69b92ab4aef6dee357cd729a,69b92af7bbaf9f77b0ba99f2,0.0163,0.0163,0,145,145,26,1,twoone,,,,,,,,,,,,,,,,,,,,,,,,,,,,,,,,,,,,,,,,,,,,,,,,,,,,,,,,,,,,,,,,,,,,,,,,,,,,,,,,,,,,,,,,,,,,,,,,,,,,,,,,,,,,,,,,,,,,,,,,,,,,,,,,,,,,,,,,,
,,695d6323922e5b6f33345f2b,2026-03-17_11h24.55.855,kallum_motion_pilot_GIST_update_2,2026.1.1,Win32,58.82352941,695d6323922e5b6f33345f2b,69b92ab4aef6dee357cd729a,69b92af7bbaf9f77b0ba99f2,0.0164,0.0164,0,146,146,30,1,fourtwo,,,,,,,,,,,,,,,,,,,,,,,,,,,,,,,,,,,,,,,,,,,,,,,,,,,,,,,,,,,,,,,,,,,,,,,,,,,,,,,,,,,,,,,,,,,,,,,,,,,,,,,,,,,,,,,,,,,,,,,,,,,,,,,,,,,,,,,,,
,,695d6323922e5b6f33345f2b,2026-03-17_11h24.55.855,kallum_motion_pilot_GIST_update_2,2026.1.1,Win32,58.82352941,695d6323922e5b6f33345f2b,69b92ab4aef6dee357cd729a,69b92af7bbaf9f77b0ba99f2,0.0164,0.0164,0,147,147,101,1,seveneight,,,,,,,,,,,,,,,,,,,,,,,,,,,,,,,,,,,,,,,,,,,,,,,,,,,,,,,,,,,,,,,,,,,,,,,,,,,,,,,,,,,,,,,,,,,,,,,,,,,,,,,,,,,,,,,,,,,,,,,,,,,,,,,,,,,,,,,,,
,,695d6323922e5b6f33345f2b,2026-03-17_11h24.55.855,kallum_motion_pilot_GIST_update_2,2026.1.1,Win32,58.82352941,695d6323922e5b6f33345f2b,69b92ab4aef6dee357cd729a,69b92af7bbaf9f77b0ba99f2,0.0164,0.0164,0,148,148,108,1,sevenfive,,,,,,,,,,,,,,,,,,,,,,,,,,,,,,,,,,,,,,,,,,,,,,,,,,,,,,,,,,,,,,,,,,,,,,,,,,,,,,,,,,,,,,,,,,,,,,,,,,,,,,,,,,,,,,,,,,,,,,,,,,,,,,,,,,,,,,,,,
,,695d6323922e5b6f33345f2b,2026-03-17_11h24.55.855,kallum_motion_pilot_GIST_update_2,2026.1.1,Win32,58.82352941,695d6323922e5b6f33345f2b,69b92ab4aef6dee357cd729a,69b92af7bbaf9f77b0ba99f2,0.0165,0.0165,0,149,149,93,1,seveneight,,,,,,,,,,,,,,,,,,,,,,,,,,,,,,,,,,,,,,,,,,,,,,,,,,,,,,,,,,,,,,,,,,,,,,,,,,,,,,,,,,,,,,,,,,,,,,,,,,,,,,,,,,,,,,,,,,,,,,,,,,,,,,,,,,,,,,,,,
,,695d6323922e5b6f33345f2b,2026-03-17_11h24.55.855,kallum_motion_pilot_GIST_update_2,2026.1.1,Win32,58.82352941,695d6323922e5b6f33345f2b,69b92ab4aef6dee357cd729a,69b92af7bbaf9f77b0ba99f2,0.0165,0.0165,0,150,150,75,1,twofour,,,,,,,,,,,,,,,,,,,,,,,,,,,,,,,,,,,,,,,,,,,,,,,,,,,,,,,,,,,,,,,,,,,,,,,,,,,,,,,,,,,,,,,,,,,,,,,,,,,,,,,,,,,,,,,,,,,,,,,,,,,,,,,,,,,,,,,,,
,,695d6323922e5b6f33345f2b,2026-03-17_11h24.55.855,kallum_motion_pilot_GIST_update_2,2026.1.1,Win32,58.82352941,695d6323922e5b6f33345f2b,69b92ab4aef6dee357cd729a,69b92af7bbaf9f77b0ba99f2,0.0165,0.0165,0,151,151,104,1,fivesix,,,,,,,,,,,,,,,,,,,,,,,,,,,,,,,,,,,,,,,,,,,,,,,,,,,,,,,,,,,,,,,,,,,,,,,,,,,,,,,,,,,,,,,,,,,,,,,,,,,,,,,,,,,,,,,,,,,,,,,,,,,,,,,,,,,,,,,,,
,,695d6323922e5b6f33345f2b,2026-03-17_11h24.55.855,kallum_motion_pilot_GIST_update_2,2026.1.1,Win32,58.82352941,695d6323922e5b6f33345f2b,69b92ab4aef6dee357cd729a,69b92af7bbaf9f77b0ba99f2,0.0166,0.0166,0,152,152,5,1,threefour,,,,,,,,,,,,,,,,,,,,,,,,,,,,,,,,,,,,,,,,,,,,,,,,,,,,,,,,,,,,,,,,,,,,,,,,,,,,,,,,,,,,,,,,,,,,,,,,,,,,,,,,,,,,,,,,,,,,,,,,,,,,,,,,,,,,,,,,,
,,695d6323922e5b6f33345f2b,2026-03-17_11h24.55.855,kallum_motion_pilot_GIST_update_2,2026.1.1,Win32,58.82352941,695d6323922e5b6f33345f2b,69b92ab4aef6dee357cd729a,69b92af7bbaf9f77b0ba99f2,0.0166,0.0166,0,153,153,60,1,threeone,,,,,,,,,,,,,,,,,,,,,,,,,,,,,,,,,,,,,,,,,,,,,,,,,,,,,,,,,,,,,,,,,,,,,,,,,,,,,,,,,,,,,,,,,,,,,,,,,,,,,,,,,,,,,,,,,,,,,,,,,,,,,,,,,,,,,,,,,
,,695d6323922e5b6f33345f2b,2026-03-17_11h24.55.855,kallum_motion_pilot_GIST_update_2,2026.1.1,Win32,58.82352941,695d6323922e5b6f33345f2b,69b92ab4aef6dee357cd729a,69b92af7bbaf9f77b0ba99f2,0.0166,0.0166,0,154,154,115,1,sixeight,,,,,,,,,,,,,,,,,,,,,,,,,,,,,,,,,,,,,,,,,,,,,,,,,,,,,,,,,,,,,,,,,,,,,,,,,,,,,,,,,,,,,,,,,,,,,,,,,,,,,,,,,,,,,,,,,,,,,,,,,,,,,,,,,,,,,,,,,
,,695d6323922e5b6f33345f2b,2026-03-17_11h24.55.855,kallum_motion_pilot_GIST_update_2,2026.1.1,Win32,58.82352941,695d6323922e5b6f33345f2b,69b92ab4aef6dee357cd729a,69b92af7bbaf9f77b0ba99f2,0.0167,0.0167,0,155,155,3,1,twofour,,,,,,,,,,,,,,,,,,,,,,,,,,,,,,,,,,,,,,,,,,,,,,,,,,,,,,,,,,,,,,,,,,,,,,,,,,,,,,,,,,,,,,,,,,,,,,,,,,,,,,,,,,,,,,,,,,,,,,,,,,,,,,,,,,,,,,,,,
,,695d6323922e5b6f33345f2b,2026-03-17_11h24.55.855,kallum_motion_pilot_GIST_update_2,2026.1.1,Win32,58.82352941,695d6323922e5b6f33345f2b,69b92ab4aef6dee357cd729a,69b92af7bbaf9f77b0ba99f2,0.0167,0.0167,0,156,156,48,1,onetwo,,,,,,,,,,,,,,,,,,,,,,,,,,,,,,,,,,,,,,,,,,,,,,,,,,,,,,,,,,,,,,,,,,,,,,,,,,,,,,,,,,,,,,,,,,,,,,,,,,,,,,,,,,,,,,,,,,,,,,,,,,,,,,,,,,,,,,,,,
,,695d6323922e5b6f33345f2b,2026-03-17_11h24.55.855,kallum_motion_pilot_GIST_update_2,2026.1.1,Win32,58.82352941,695d6323922e5b6f33345f2b,69b92ab4aef6dee357cd729a,69b92af7bbaf9f77b0ba99f2,0.0168,0.0168,0,157,157,88,1,fivesix,,,,,,,,,,,,,,,,,,,,,,,,,,,,,,,,,,,,,,,,,,,,,,,,,,,,,,,,,,,,,,,,,,,,,,,,,,,,,,,,,,,,,,,,,,,,,,,,,,,,,,,,,,,,,,,,,,,,,,,,,,,,,,,,,,,,,,,,,
,,695d6323922e5b6f33345f2b,2026-03-17_11h24.55.855,kallum_motion_pilot_GIST_update_2,2026.1.1,Win32,58.82352941,695d6323922e5b6f33345f2b,69b92ab4aef6dee357cd729a,69b92af7bbaf9f77b0ba99f2,0.0168,0.0168,0,158,158,43,1,twofour,,,,,,,,,,,,,,,,,,,,,,,,,,,,,,,,,,,,,,,,,,,,,,,,,,,,,,,,,,,,,,,,,,,,,,,,,,,,,,,,,,,,,,,,,,,,,,,,,,,,,,,,,,,,,,,,,,,,,,,,,,,,,,,,,,,,,,,,,
,,695d6323922e5b6f33345f2b,2026-03-17_11h24.55.855,kallum_motion_pilot_GIST_update_2,2026.1.1,Win32,58.82352941,695d6323922e5b6f33345f2b,69b92ab4aef6dee357cd729a,69b92af7bbaf9f77b0ba99f2,0.0169,0.0169,0,159,159,17,1,onethree,,,,,,,,,,,,,,,,,,,,,,,,,,,,,,,,,,,,,,,,,,,,,,,,,,,,,,,,,,,,,,,,,,,,,,,,,,,,,,,,,,,,,,,,,,,,,,,,,,,,,,,,,,,,,,,,,,,,,,,,,,,,,,,,,,,,,,,,,
,,695d6323922e5b6f33345f2b,2026-03-17_11h24.55.855,kallum_motion_pilot_GIST_update_2,2026.1.1,Win32,58.82352941,695d6323922e5b6f33345f2b,69b92ab4aef6dee357cd729a,69b92af7bbaf9f77b0ba99f2,0.0169,0.0169,0,160,160,71,1,fourthree,,,,,,,,,,,,,,,,,,,,,,,,,,,,,,,,,,,,,,,,,,,,,,,,,,,,,,,,,,,,,,,,,,,,,,,,,,,,,,,,,,,,,,,,,,,,,,,,,,,,,,,,,,,,,,,,,,,,,,,,,,,,,,,,,,,,,,,,,
,,695d6323922e5b6f33345f2b,2026-03-17_11h24.55.855,kallum_motion_pilot_GIST_update_2,2026.1.1,Win32,58.82352941,695d6323922e5b6f33345f2b,69b92ab4aef6dee357cd729a,69b92af7bbaf9f77b0ba99f2,0.017,0.017,0,161,161,76,1,threeone,,,,,,,,,,,,,,,,,,,,,,,,,,,,,,,,,,,,,,,,,,,,,,,,,,,,,,,,,,,,,,,,,,,,,,,,,,,,,,,,,,,,,,,,,,,,,,,,,,,,,,,,,,,,,,,,,,,,,,,,,,,,,,,,,,,,,,,,,
,,695d6323922e5b6f33345f2b,2026-03-17_11h24.55.855,kallum_motion_pilot_GIST_update_2,2026.1.1,Win32,58.82352941,695d6323922e5b6f33345f2b,69b92ab4aef6dee357cd729a,69b92af7bbaf9f77b0ba99f2,0.0171,0.0171,1,0,162,27,1,twofour,,,,,,,,,,,,,,,,,,,,,,,,,,,,,,,,,,,,,,,,,,,,,,,,,,,,,,,,,,,,,,,,,,,,,,,,,,,,,,,,,,,,,,,,,,,,,,,,,,,,,,,,,,,,,,,,,,,,,,,,,,,,,,,,,,,,,,,,,
,,695d6323922e5b6f33345f2b,2026-03-17_11h24.55.855,kallum_motion_pilot_GIST_update_2,2026.1.1,Win32,58.82352941,695d6323922e5b6f33345f2b,69b92ab4aef6dee357cd729a,69b92af7bbaf9f77b0ba99f2,0.0171,0.0171,1,1,163,142,1,eightsix,,,,,,,,,,,,,,,,,,,,,,,,,,,,,,,,,,,,,,,,,,,,,,,,,,,,,,,,,,,,,,,,,,,,,,,,,,,,,,,,,,,,,,,,,,,,,,,,,,,,,,,,,,,,,,,,,,,,,,,,,,,,,,,,,,,,,,,,,
,,695d6323922e5b6f33345f2b,2026-03-17_11h24.55.855,kallum_motion_pilot_GIST_update_2,2026.1.1,Win32,58.82352941,695d6323922e5b6f33345f2b,69b92ab4aef6dee357cd729a,69b92af7bbaf9f77b0ba99f2,0.0171,0.0171,1,2,164,30,1,fourtwo,,,,,,,,,,,,,,,,,,,,,,,,,,,,,,,,,,,,,,,,,,,,,,,,,,,,,,,,,,,,,,,,,,,,,,,,,,,,,,,,,,,,,,,,,,,,,,,,,,,,,,,,,,,,,,,,,,,,,,,,,,,,,,,,,,,,,,,,,
,,695d6323922e5b6f33345f2b,2026-03-17_11h24.55.855,kallum_motion_pilot_GIST_update_2,2026.1.1,Win32,58.82352941,695d6323922e5b6f33345f2b,69b92ab4aef6dee357cd729a,69b92af7bbaf9f77b0ba99f2,0.0172,0.0172,1,3,165,16,1,onetwo,,,,,,,,,,,,,,,,,,,,,,,,,,,,,,,,,,,,,,,,,,,,,,,,,,,,,,,,,,,,,,,,,,,,,,,,,,,,,,,,,,,,,,,,,,,,,,,,,,,,,,,,,,,,,,,,,,,,,,,,,,,,,,,,,,,,,,,,,
,,695d6323922e5b6f33345f2b,2026-03-17_11h24.55.855,kallum_motion_pilot_GIST_update_2,2026.1.1,Win32,58.82352941,695d6323922e5b6f33345f2b,69b92ab4aef6dee357cd729a,69b92af7bbaf9f77b0ba99f2,0.0172,0.0172,1,4,166,136,1,fivesix,,,,,,,,,,,,,,,,,,,,,,,,,,,,,,,,,,,,,,,,,,,,,,,,,,,,,,,,,,,,,,,,,,,,,,,,,,,,,,,,,,,,,,,,,,,,,,,,,,,,,,,,,,,,,,,,,,,,,,,,,,,,,,,,,,,,,,,,,
,,695d6323922e5b6f33345f2b,2026-03-17_11h24.55.855,kallum_motion_pilot_GIST_update_2,2026.1.1,Win32,58.82352941,695d6323922e5b6f33345f2b,69b92ab4aef6dee357cd729a,69b92af7bbaf9f77b0ba99f2,0.0173,0.0173,1,5,167,36,1,threeone,,,,,,,,,,,,,,,,,,,,,,,,,,,,,,,,,,,,,,,,,,,,,,,,,,,,,,,,,,,,,,,,,,,,,,,,,,,,,,,,,,,,,,,,,,,,,,,,,,,,,,,,,,,,,,,,,,,,,,,,,,,,,,,,,,,,,,,,,
,,695d6323922e5b6f33345f2b,2026-03-17_11h24.55.855,kallum_motion_pilot_GIST_update_2,2026.1.1,Win32,58.82352941,695d6323922e5b6f33345f2b,69b92ab4aef6dee357cd729a,69b92af7bbaf9f77b0ba99f2,0.0174,0.0174,1,6,168,40,1,onetwo,,,,,,,,,,,,,,,,,,,,,,,,,,,,,,,,,,,,,,,,,,,,,,,,,,,,,,,,,,,,,,,,,,,,,,,,,,,,,,,,,,,,,,,,,,,,,,,,,,,,,,,,,,,,,,,,,,,,,,,,,,,,,,,,,,,,,,,,,
,,695d6323922e5b6f33345f2b,2026-03-17_11h24.55.855,kallum_motion_pilot_GIST_update_2,2026.1.1,Win32,58.82352941,695d6323922e5b6f33345f2b,69b92ab4aef6dee357cd729a,69b92af7bbaf9f77b0ba99f2,0.0174,0.0174,1,7,169,42,1,twoone,,,,,,,,,,,,,,,,,,,,,,,,,,,,,,,,,,,,,,,,,,,,,,,,,,,,,,,,,,,,,,,,,,,,,,,,,,,,,,,,,,,,,,,,,,,,,,,,,,,,,,,,,,,,,,,,,,,,,,,,,,,,,,,,,,,,,,,,,
,,695d6323922e5b6f33345f2b,2026-03-17_11h24.55.855,kallum_motion_pilot_GIST_update_2,2026.1.1,Win32,58.82352941,695d6323922e5b6f33345f2b,69b92ab4aef6dee357cd729a,69b92af7bbaf9f77b0ba99f2,0.0174,0.0174,1,8,170,131,1,sixeight,,,,,,,,,,,,,,,,,,,,,,,,,,,,,,,,,,,,,,,,,,,,,,,,,,,,,,,,,,,,,,,,,,,,,,,,,,,,,,,,,,,,,,,,,,,,,,,,,,,,,,,,,,,,,,,,,,,,,,,,,,,,,,,,,,,,,,,,,
,,695d6323922e5b6f33345f2b,2026-03-17_11h24.55.855,kallum_motion_pilot_GIST_update_2,2026.1.1,Win32,58.82352941,695d6323922e5b6f33345f2b,69b92ab4aef6dee357cd729a,69b92af7bbaf9f77b0ba99f2,0.0175,0.0175,1,9,171,4,1,threeone,,,,,,,,,,,,,,,,,,,,,,,,,,,,,,,,,,,,,,,,,,,,,,,,,,,,,,,,,,,,,,,,,,,,,,,,,,,,,,,,,,,,,,,,,,,,,,,,,,,,,,,,,,,,,,,,,,,,,,,,,,,,,,,,,,,,,,,,,
,,695d6323922e5b6f33345f2b,2026-03-17_11h24.55.855,kallum_motion_pilot_GIST_update_2,2026.1.1,Win32,58.82352941,695d6323922e5b6f33345f2b,69b92ab4aef6dee357cd729a,69b92af7bbaf9f77b0ba99f2,0.0175,0.0175,1,10,172,46,1,fourtwo,,,,,,,,,,,,,,,,,,,,,,,,,,,,,,,,,,,,,,,,,,,,,,,,,,,,,,,,,,,,,,,,,,,,,,,,,,,,,,,,,,,,,,,,,,,,,,,,,,,,,,,,,,,,,,,,,,,,,,,,,,,,,,,,,,,,,,,,,
,,695d6323922e5b6f33345f2b,2026-03-17_11h24.55.855,kallum_motion_pilot_GIST_update_2,2026.1.1,Win32,58.82352941,695d6323922e5b6f33345f2b,69b92ab4aef6dee357cd729a,69b92af7bbaf9f77b0ba99f2,0.0175,0.0175,1,11,173,49,1,onethree,,,,,,,,,,,,,,,,,,,,,,,,,,,,,,,,,,,,,,,,,,,,,,,,,,,,,,,,,,,,,,,,,,,,,,,,,,,,,,,,,,,,,,,,,,,,,,,,,,,,,,,,,,,,,,,,,,,,,,,,,,,,,,,,,,,,,,,,,
,,695d6323922e5b6f33345f2b,2026-03-17_11h24.55.855,kallum_motion_pilot_GIST_update_2,2026.1.1,Win32,58.82352941,695d6323922e5b6f33345f2b,69b92ab4aef6dee357cd729a,69b92af7bbaf9f77b0ba99f2,0.0176,0.0176,1,12,174,9,1,onethree,,,,,,,,,,,,,,,,,,,,,,,,,,,,,,,,,,,,,,,,,,,,,,,,,,,,,,,,,,,,,,,,,,,,,,,,,,,,,,,,,,,,,,,,,,,,,,,,,,,,,,,,,,,,,,,,,,,,,,,,,,,,,,,,,,,,,,,,,
,,695d6323922e5b6f33345f2b,2026-03-17_11h24.55.855,kallum_motion_pilot_GIST_update_2,2026.1.1,Win32,58.82352941,695d6323922e5b6f33345f2b,69b92ab4aef6dee357cd729a,69b92af7bbaf9f77b0ba99f2,0.0176,0.0176,1,13,175,10,1,twoone,,,,,,,,,,,,,,,,,,,,,,,,,,,,,,,,,,,,,,,,,,,,,,,,,,,,,,,,,,,,,,,,,,,,,,,,,,,,,,,,,,,,,,,,,,,,,,,,,,,,,,,,,,,,,,,,,,,,,,,,,,,,,,,,,,,,,,,,,
,,695d6323922e5b6f33345f2b,2026-03-17_11h24.55.855,kallum_motion_pilot_GIST_update_2,2026.1.1,Win32,58.82352941,695d6323922e5b6f33345f2b,69b92ab4aef6dee357cd729a,69b92af7bbaf9f77b0ba99f2,0.0177,0.0177,1,14,176,59,1,twofour,,,,,,,,,,,,,,,,,,,,,,,,,,,,,,,,,,,,,,,,,,,,,,,,,,,,,,,,,,,,,,,,,,,,,,,,,,,,,,,,,,,,,,,,,,,,,,,,,,,,,,,,,,,,,,,,,,,,,,,,,,,,,,,,,,,,,,,,,
,,695d6323922e5b6f33345f2b,2026-03-17_11h24.55.855,kallum_motion_pilot_GIST_update_2,2026.1.1,Win32,58.82352941,695d6323922e5b6f33345f2b,69b92ab4aef6dee357cd729a,69b92af7bbaf9f77b0ba99f2,0.0177,0.0177,1,15,177,39,1,fourthree,,,,,,,,,,,,,,,,,,,,,,,,,,,,,,,,,,,,,,,,,,,,,,,,,,,,,,,,,,,,,,,,,,,,,,,,,,,,,,,,,,,,,,,,,,,,,,,,,,,,,,,,,,,,,,,,,,,,,,,,,,,,,,,,,,,,,,,,,
,,695d6323922e5b6f33345f2b,2026-03-17_11h24.55.855,kallum_motion_pilot_GIST_update_2,2026.1.1,Win32,58.82352941,695d6323922e5b6f33345f2b,69b92ab4aef6dee357cd729a,69b92af7bbaf9f77b0ba99f2,0.0178,0.0178,1,16,178,101,1,seveneight,,,,,,,,,,,,,,,,,,,,,,,,,,,,,,,,,,,,,,,,,,,,,,,,,,,,,,,,,,,,,,,,,,,,,,,,,,,,,,,,,,,,,,,,,,,,,,,,,,,,,,,,,,,,,,,,,,,,,,,,,,,,,,,,,,,,,,,,,
,,695d6323922e5b6f33345f2b,2026-03-17_11h24.55.855,kallum_motion_pilot_GIST_update_2,2026.1.1,Win32,58.82352941,695d6323922e5b6f33345f2b,69b92ab4aef6dee357cd729a,69b92af7bbaf9f77b0ba99f2,0.0178,0.0178,1,17,179,135,1,eightseven,,,,,,,,,,,,,,,,,,,,,,,,,,,,,,,,,,,,,,,,,,,,,,,,,,,,,,,,,,,,,,,,,,,,,,,,,,,,,,,,,,,,,,,,,,,,,,,,,,,,,,,,,,,,,,,,,,,,,,,,,,,,,,,,,,,,,,,,,
,,695d6323922e5b6f33345f2b,2026-03-17_11h24.55.855,kallum_motion_pilot_GIST_update_2,2026.1.1,Win32,58.82352941,695d6323922e5b6f33345f2b,69b92ab4aef6dee357cd729a,69b92af7bbaf9f77b0ba99f2,0.0179,0.0179,1,18,180,106,1,sixfive,,,,,,,,,,,,,,,,,,,,,,,,,,,,,,,,,,,,,,,,,,,,,,,,,,,,,,,,,,,,,,,,,,,,,,,,,,,,,,,,,,,,,,,,,,,,,,,,,,,,,,,,,,,,,,,,,,,,,,,,,,,,,,,,,,,,,,,,,
,,695d6323922e5b6f33345f2b,2026-03-17_11h24.55.855,kallum_motion_pilot_GIST_update_2,2026.1.1,Win32,58.82352941,695d6323922e5b6f33345f2b,69b92ab4aef6dee357cd729a,69b92af7bbaf9f77b0ba99f2,0.0179,0.0179,1,19,181,72,1,onetwo,,,,,,,,,,,,,,,,,,,,,,,,,,,,,,,,,,,,,,,,,,,,,,,,,,,,,,,,,,,,,,,,,,,,,,,,,,,,,,,,,,,,,,,,,,,,,,,,,,,,,,,,,,,,,,,,,,,,,,,,,,,,,,,,,,,,,,,,,
,,695d6323922e5b6f33345f2b,2026-03-17_11h24.55.855,kallum_motion_pilot_GIST_update_2,2026.1.1,Win32,58.82352941,695d6323922e5b6f33345f2b,69b92ab4aef6dee357cd729a,69b92af7bbaf9f77b0ba99f2,0.018,0.018,1,20,182,57,1,onethree,,,,,,,,,,,,,,,,,,,,,,,,,,,,,,,,,,,,,,,,,,,,,,,,,,,,,,,,,,,,,,,,,,,,,,,,,,,,,,,,,,,,,,,,,,,,,,,,,,,,,,,,,,,,,,,,,,,,,,,,,,,,,,,,,,,,,,,,,
,,695d6323922e5b6f33345f2b,2026-03-17_11h24.55.855,kallum_motion_pilot_GIST_update_2,2026.1.1,Win32,58.82352941,695d6323922e5b6f33345f2b,69b92ab4aef6dee357cd729a,69b92af7bbaf9f77b0ba99f2,0.018,0.018,1,21,183,64,1,onetwo,,,,,,,,,,,,,,,,,,,,,,,,,,,,,,,,,,,,,,,,,,,,,,,,,,,,,,,,,,,,,,,,,,,,,,,,,,,,,,,,,,,,,,,,,,,,,,,,,,,,,,,,,,,,,,,,,,,,,,,,,,,,,,,,,,,,,,,,,
,,695d6323922e5b6f33345f2b,2026-03-17_11h24.55.855,kallum_motion_pilot_GIST_update_2,2026.1.1,Win32,58.82352941,695d6323922e5b6f33345f2b,69b92ab4aef6dee357cd729a,69b92af7bbaf9f77b0ba99f2,0.018,0.018,1,22,184,127,1,eightseven,,,,,,,,,,,,,,,,,,,,,,,,,,,,,,,,,,,,,,,,,,,,,,,,,,,,,,,,,,,,,,,,,,,,,,,,,,,,,,,,,,,,,,,,,,,,,,,,,,,,,,,,,,,,,,,,,,,,,,,,,,,,,,,,,,,,,,,,,
,,695d6323922e5b6f33345f2b,2026-03-17_11h24.55.855,kallum_motion_pilot_GIST_update_2,2026.1.1,Win32,58.82352941,695d6323922e5b6f33345f2b,69b92ab4aef6dee357cd729a,69b92af7bbaf9f77b0ba99f2,0.0181,0.0181,1,23,185,138,1,sixfive,,,,,,,,,,,,,,,,,,,,,,,,,,,,,,,,,,,,,,,,,,,,,,,,,,,,,,,,,,,,,,,,,,,,,,,,,,,,,,,,,,,,,,,,,,,,,,,,,,,,,,,,,,,,,,,,,,,,,,,,,,,,,,,,,,,,,,,,,
,,695d6323922e5b6f33345f2b,2026-03-17_11h24.55.855,kallum_motion_pilot_GIST_update_2,2026.1.1,Win32,58.82352941,695d6323922e5b6f33345f2b,69b92ab4aef6dee357cd729a,69b92af7bbaf9f77b0ba99f2,0.0182,0.0182,1,24,186,18,1,twoone,,,,,,,,,,,,,,,,,,,,,,,,,,,,,,,,,,,,,,,,,,,,,,,,,,,,,,,,,,,,,,,,,,,,,,,,,,,,,,,,,,,,,,,,,,,,,,,,,,,,,,,,,,,,,,,,,,,,,,,,,,,,,,,,,,,,,,,,,
,,695d6323922e5b6f33345f2b,2026-03-17_11h24.55.855,kallum_motion_pilot_GIST_update_2,2026.1.1,Win32,58.82352941,695d6323922e5b6f33345f2b,69b92ab4aef6dee357cd729a,69b92af7bbaf9f77b0ba99f2,0.0182,0.0182,1,25,187,85,1,seveneight,,,,,,,,,,,,,,,,,,,,,,,,,,,,,,,,,,,,,,,,,,,,,,,,,,,,,,,,,,,,,,,,,,,,,,,,,,,,,,,,,,,,,,,,,,,,,,,,,,,,,,,,,,,,,,,,,,,,,,,,,,,,,,,,,,,,,,,,,
,,695d6323922e5b6f33345f2b,2026-03-17_11h24.55.855,kallum_motion_pilot_GIST_update_2,2026.1.1,Win32,58.82352941,695d6323922e5b6f33345f2b,69b92ab4aef6dee357cd729a,69b92af7bbaf9f77b0ba99f2,0.0183,0.0183,1,26,188,34,1,twoone,,,,,,,,,,,,,,,,,,,,,,,,,,,,,,,,,,,,,,,,,,,,,,,,,,,,,,,,,,,,,,,,,,,,,,,,,,,,,,,,,,,,,,,,,,,,,,,,,,,,,,,,,,,,,,,,,,,,,,,,,,,,,,,,,,,,,,,,,
,,695d6323922e5b6f33345f2b,2026-03-17_11h24.55.855,kallum_motion_pilot_GIST_update_2,2026.1.1,Win32,58.82352941,695d6323922e5b6f33345f2b,69b92ab4aef6dee357cd729a,69b92af7bbaf9f77b0ba99f2,0.0183,0.0183,1,27,189,122,1,sixfive,,,,,,,,,,,,,,,,,,,,,,,,,,,,,,,,,,,,,,,,,,,,,,,,,,,,,,,,,,,,,,,,,,,,,,,,,,,,,,,,,,,,,,,,,,,,,,,,,,,,,,,,,,,,,,,,,,,,,,,,,,,,,,,,,,,,,,,,,
,,695d6323922e5b6f33345f2b,2026-03-17_11h24.55.855,kallum_motion_pilot_GIST_update_2,2026.1.1,Win32,58.82352941,695d6323922e5b6f33345f2b,69b92ab4aef6dee357cd729a,69b92af7bbaf9f77b0ba99f2,0.0184,0.0184,1,28,190,75,1,twofour,,,,,,,,,,,,,,,,,,,,,,,,,,,,,,,,,,,,,,,,,,,,,,,,,,,,,,,,,,,,,,,,,,,,,,,,,,,,,,,,,,,,,,,,,,,,,,,,,,,,,,,,,,,,,,,,,,,,,,,,,,,,,,,,,,,,,,,,,
,,695d6323922e5b6f33345f2b,2026-03-17_11h24.55.855,kallum_motion_pilot_GIST_update_2,2026.1.1,Win32,58.82352941,695d6323922e5b6f33345f2b,69b92ab4aef6dee357cd729a,69b92af7bbaf9f77b0ba99f2,0.0184,0.0184,1,29,191,110,1,eightsix,,,,,,,,,,,,,,,,,,,,,,,,,,,,,,,,,,,,,,,,,,,,,,,,,,,,,,,,,,,,,,,,,,,,,,,,,,,,,,,,,,,,,,,,,,,,,,,,,,,,,,,,,,,,,,,,,,,,,,,,,,,,,,,,,,,,,,,,,
,,695d6323922e5b6f33345f2b,2026-03-17_11h24.55.855,kallum_motion_pilot_GIST_update_2,2026.1.1,Win32,58.82352941,695d6323922e5b6f33345f2b,69b92ab4aef6dee357cd729a,69b92af7bbaf9f77b0ba99f2,0.0185,0.0185,1,30,192,111,1,eightseven,,,,,,,,,,,,,,,,,,,,,,,,,,,,,,,,,,,,,,,,,,,,,,,,,,,,,,,,,,,,,,,,,,,,,,,,,,,,,,,,,,,,,,,,,,,,,,,,,,,,,,,,,,,,,,,,,,,,,,,,,,,,,,,,,,,,,,,,,
,,695d6323922e5b6f33345f2b,2026-03-17_11h24.55.855,kallum_motion_pilot_GIST_update_2,2026.1.1,Win32,58.82352941,695d6323922e5b6f33345f2b,69b92ab4aef6dee357cd729a,69b92af7bbaf9f77b0ba99f2,0.0185,0.0185,1,31,193,62,1,fourtwo,,,,,,,,,,,,,,,,,,,,,,,,,,,,,,,,,,,,,,,,,,,,,,,,,,,,,,,,,,,,,,,,,,,,,,,,,,,,,,,,,,,,,,,,,,,,,,,,,,,,,,,,,,,,,,,,,,,,,,,,,,,,,,,,,,,,,,,,,
,,695d6323922e5b6f33345f2b,2026-03-17_11h24.55.855,kallum_motion_pilot_GIST_update_2,2026.1.1,Win32,58.82352941,695d6323922e5b6f33345f2b,69b92ab4aef6dee357cd729a,69b92af7bbaf9f77b0ba99f2,0.0186,0.0186,1,32,194,25,1,onethree,,,,,,,,,,,,,,,,,,,,,,,,,,,,,,,,,,,,,,,,,,,,,,,,,,,,,,,,,,,,,,,,,,,,,,,,,,,,,,,,,,,,,,,,,,,,,,,,,,,,,,,,,,,,,,,,,,,,,,,,,,,,,,,,,,,,,,,,,
,,695d6323922e5b6f33345f2b,2026-03-17_11h24.55.855,kallum_motion_pilot_GIST_update_2,2026.1.1,Win32,58.82352941,695d6323922e5b6f33345f2b,69b92ab4aef6dee357cd729a,69b92af7bbaf9f77b0ba99f2,0.0186,0.0186,1,33,195,69,1,threefour,,,,,,,,,,,,,,,,,,,,,,,,,,,,,,,,,,,,,,,,,,,,,,,,,,,,,,,,,,,,,,,,,,,,,,,,,,,,,,,,,,,,,,,,,,,,,,,,,,,,,,,,,,,,,,,,,,,,,,,,,,,,,,,,,,,,,,,,,
,,695d6323922e5b6f33345f2b,2026-03-17_11h24.55.855,kallum_motion_pilot_GIST_update_2,2026.1.1,Win32,58.82352941,695d6323922e5b6f33345f2b,69b92ab4aef6dee357cd729a,69b92af7bbaf9f77b0ba99f2,0.0187,0.0187,1,34,196,117,1,seveneight,,,,,,,,,,,,,,,,,,,,,,,,,,,,,,,,,,,,,,,,,,,,,,,,,,,,,,,,,,,,,,,,,,,,,,,,,,,,,,,,,,,,,,,,,,,,,,,,,,,,,,,,,,,,,,,,,,,,,,,,,,,,,,,,,,,,,,,,,
,,695d6323922e5b6f33345f2b,2026-03-17_11h24.55.855,kallum_motion_pilot_GIST_update_2,2026.1.1,Win32,58.82352941,695d6323922e5b6f33345f2b,69b92ab4aef6dee357cd729a,69b92af7bbaf9f77b0ba99f2,0.0188,0.0188,1,35,197,90,1,sixfive,,,,,,,,,,,,,,,,,,,,,,,,,,,,,,,,,,,,,,,,,,,,,,,,,,,,,,,,,,,,,,,,,,,,,,,,,,,,,,,,,,,,,,,,,,,,,,,,,,,,,,,,,,,,,,,,,,,,,,,,,,,,,,,,,,,,,,,,,
,,695d6323922e5b6f33345f2b,2026-03-17_11h24.55.855,kallum_motion_pilot_GIST_update_2,2026.1.1,Win32,58.82352941,695d6323922e5b6f33345f2b,69b92ab4aef6dee357cd729a,69b92af7bbaf9f77b0ba99f2,0.0188,0.0188,1,36,198,86,1,eightsix,,,,,,,,,,,,,,,,,,,,,,,,,,,,,,,,,,,,,,,,,,,,,,,,,,,,,,,,,,,,,,,,,,,,,,,,,,,,,,,,,,,,,,,,,,,,,,,,,,,,,,,,,,,,,,,,,,,,,,,,,,,,,,,,,,,,,,,,,
,,695d6323922e5b6f33345f2b,2026-03-17_11h24.55.855,kallum_motion_pilot_GIST_update_2,2026.1.1,Win32,58.82352941,695d6323922e5b6f33345f2b,69b92ab4aef6dee357cd729a,69b92af7bbaf9f77b0ba99f2,0.0188,0.0189,1,37,199,12,1,threeone,,,,,,,,,,,,,,,,,,,,,,,,,,,,,,,,,,,,,,,,,,,,,,,,,,,,,,,,,,,,,,,,,,,,,,,,,,,,,,,,,,,,,,,,,,,,,,,,,,,,,,,,,,,,,,,,,,,,,,,,,,,,,,,,,,,,,,,,,
,,695d6323922e5b6f33345f2b,2026-03-17_11h24.55.855,kallum_motion_pilot_GIST_update_2,2026.1.1,Win32,58.82352941,695d6323922e5b6f33345f2b,69b92ab4aef6dee357cd729a,69b92af7bbaf9f77b0ba99f2,0.0189,0.0189,1,38,200,129,1,fiveseven,,,,,,,,,,,,,,,,,,,,,,,,,,,,,,,,,,,,,,,,,,,,,,,,,,,,,,,,,,,,,,,,,,,,,,,,,,,,,,,,,,,,,,,,,,,,,,,,,,,,,,,,,,,,,,,,,,,,,,,,,,,,,,,,,,,,,,,,,
,,695d6323922e5b6f33345f2b,2026-03-17_11h24.55.855,kallum_motion_pilot_GIST_update_2,2026.1.1,Win32,58.82352941,695d6323922e5b6f33345f2b,69b92ab4aef6dee357cd729a,69b92af7bbaf9f77b0ba99f2,0.0189,0.0189,1,39,201,66,1,twoone,,,,,,,,,,,,,,,,,,,,,,,,,,,,,,,,,,,,,,,,,,,,,,,,,,,,,,,,,,,,,,,,,,,,,,,,,,,,,,,,,,,,,,,,,,,,,,,,,,,,,,,,,,,,,,,,,,,,,,,,,,,,,,,,,,,,,,,,,
,,695d6323922e5b6f33345f2b,2026-03-17_11h24.55.855,kallum_motion_pilot_GIST_update_2,2026.1.1,Win32,58.82352941,695d6323922e5b6f33345f2b,69b92ab4aef6dee357cd729a,69b92af7bbaf9f77b0ba99f2,0.019,0.019,1,40,202,38,1,fourtwo,,,,,,,,,,,,,,,,,,,,,,,,,,,,,,,,,,,,,,,,,,,,,,,,,,,,,,,,,,,,,,,,,,,,,,,,,,,,,,,,,,,,,,,,,,,,,,,,,,,,,,,,,,,,,,,,,,,,,,,,,,,,,,,,,,,,,,,,,
,,695d6323922e5b6f33345f2b,2026-03-17_11h24.55.855,kallum_motion_pilot_GIST_update_2,2026.1.1,Win32,58.82352941,695d6323922e5b6f33345f2b,69b92ab4aef6dee357cd729a,69b92af7bbaf9f77b0ba99f2,0.019,0.019,1,41,203,83,1,sixeight,,,,,,,,,,,,,,,,,,,,,,,,,,,,,,,,,,,,,,,,,,,,,,,,,,,,,,,,,,,,,,,,,,,,,,,,,,,,,,,,,,,,,,,,,,,,,,,,,,,,,,,,,,,,,,,,,,,,,,,,,,,,,,,,,,,,,,,,,
,,695d6323922e5b6f33345f2b,2026-03-17_11h24.55.855,kallum_motion_pilot_GIST_update_2,2026.1.1,Win32,58.82352941,695d6323922e5b6f33345f2b,69b92ab4aef6dee357cd729a,69b92af7bbaf9f77b0ba99f2,0.019,0.019,1,42,204,80,1,fivesix,,,,,,,,,,,,,,,,,,,,,,,,,,,,,,,,,,,,,,,,,,,,,,,,,,,,,,,,,,,,,,,,,,,,,,,,,,,,,,,,,,,,,,,,,,,,,,,,,,,,,,,,,,,,,,,,,,,,,,,,,,,,,,,,,,,,,,,,,
,,695d6323922e5b6f33345f2b,2026-03-17_11h24.55.855,kallum_motion_pilot_GIST_update_2,2026.1.1,Win32,58.82352941,695d6323922e5b6f33345f2b,69b92ab4aef6dee357cd729a,69b92af7bbaf9f77b0ba99f2,0.0191,0.0191,1,43,205,13,1,threefour,,,,,,,,,,,,,,,,,,,,,,,,,,,,,,,,,,,,,,,,,,,,,,,,,,,,,,,,,,,,,,,,,,,,,,,,,,,,,,,,,,,,,,,,,,,,,,,,,,,,,,,,,,,,,,,,,,,,,,,,,,,,,,,,,,,,,,,,,
,,695d6323922e5b6f33345f2b,2026-03-17_11h24.55.855,kallum_motion_pilot_GIST_update_2,2026.1.1,Win32,58.82352941,695d6323922e5b6f33345f2b,69b92ab4aef6dee357cd729a,69b92af7bbaf9f77b0ba99f2,0.0191,0.0191,1,44,206,41,1,onethree,,,,,,,,,,,,,,,,,,,,,,,,,,,,,,,,,,,,,,,,,,,,,,,,,,,,,,,,,,,,,,,,,,,,,,,,,,,,,,,,,,,,,,,,,,,,,,,,,,,,,,,,,,,,,,,,,,,,,,,,,,,,,,,,,,,,,,,,,
,,695d6323922e5b6f33345f2b,2026-03-17_11h24.55.855,kallum_motion_pilot_GIST_update_2,2026.1.1,Win32,58.82352941,695d6323922e5b6f33345f2b,69b92ab4aef6dee357cd729a,69b92af7bbaf9f77b0ba99f2,0.0192,0.0192,1,45,207,68,1,threeone,,,,,,,,,,,,,,,,,,,,,,,,,,,,,,,,,,,,,,,,,,,,,,,,,,,,,,,,,,,,,,,,,,,,,,,,,,,,,,,,,,,,,,,,,,,,,,,,,,,,,,,,,,,,,,,,,,,,,,,,,,,,,,,,,,,,,,,,,
,,695d6323922e5b6f33345f2b,2026-03-17_11h24.55.855,kallum_motion_pilot_GIST_update_2,2026.1.1,Win32,58.82352941,695d6323922e5b6f33345f2b,69b92ab4aef6dee357cd729a,69b92af7bbaf9f77b0ba99f2,0.0192,0.0192,1,46,208,0,1,onetwo,,,,,,,,,,,,,,,,,,,,,,,,,,,,,,,,,,,,,,,,,,,,,,,,,,,,,,,,,,,,,,,,,,,,,,,,,,,,,,,,,,,,,,,,,,,,,,,,,,,,,,,,,,,,,,,,,,,,,,,,,,,,,,,,,,,,,,,,,
,,695d6323922e5b6f33345f2b,2026-03-17_11h24.55.855,kallum_motion_pilot_GIST_update_2,2026.1.1,Win32,58.82352941,695d6323922e5b6f33345f2b,69b92ab4aef6dee357cd729a,69b92af7bbaf9f77b0ba99f2,0.0193,0.0193,1,47,209,133,1,seveneight,,,,,,,,,,,,,,,,,,,,,,,,,,,,,,,,,,,,,,,,,,,,,,,,,,,,,,,,,,,,,,,,,,,,,,,,,,,,,,,,,,,,,,,,,,,,,,,,,,,,,,,,,,,,,,,,,,,,,,,,,,,,,,,,,,,,,,,,,
,,695d6323922e5b6f33345f2b,2026-03-17_11h24.55.855,kallum_motion_pilot_GIST_update_2,2026.1.1,Win32,58.82352941,695d6323922e5b6f33345f2b,69b92ab4aef6dee357cd729a,69b92af7bbaf9f77b0ba99f2,0.0193,0.0193,1,48,210,123,1,sixeight,,,,,,,,,,,,,,,,,,,,,,,,,,,,,,,,,,,,,,,,,,,,,,,,,,,,,,,,,,,,,,,,,,,,,,,,,,,,,,,,,,,,,,,,,,,,,,,,,,,,,,,,,,,,,,,,,,,,,,,,,,,,,,,,,,,,,,,,,
,,695d6323922e5b6f33345f2b,2026-03-17_11h24.55.855,kallum_motion_pilot_GIST_update_2,2026.1.1,Win32,58.82352941,695d6323922e5b6f33345f2b,69b92ab4aef6dee357cd729a,69b92af7bbaf9f77b0ba99f2,0.0194,0.0194,1,49,211,118,1,eightsix,,,,,,,,,,,,,,,,,,,,,,,,,,,,,,,,,,,,,,,,,,,,,,,,,,,,,,,,,,,,,,,,,,,,,,,,,,,,,,,,,,,,,,,,,,,,,,,,,,,,,,,,,,,,,,,,,,,,,,,,,,,,,,,,,,,,,,,,,
,,695d6323922e5b6f33345f2b,2026-03-17_11h24.55.855,kallum_motion_pilot_GIST_update_2,2026.1.1,Win32,58.82352941,695d6323922e5b6f33345f2b,69b92ab4aef6dee357cd729a,69b92af7bbaf9f77b0ba99f2,0.0195,0.0195,1,50,212,121,1,fiveseven,,,,,,,,,,,,,,,,,,,,,,,,,,,,,,,,,,,,,,,,,,,,,,,,,,,,,,,,,,,,,,,,,,,,,,,,,,,,,,,,,,,,,,,,,,,,,,,,,,,,,,,,,,,,,,,,,,,,,,,,,,,,,,,,,,,,,,,,,
,,695d6323922e5b6f33345f2b,2026-03-17_11h24.55.855,kallum_motion_pilot_GIST_update_2,2026.1.1,Win32,58.82352941,695d6323922e5b6f33345f2b,69b92ab4aef6dee357cd729a,69b92af7bbaf9f77b0ba99f2,0.0195,0.0195,1,51,213,160,1,fivesix,,,,,,,,,,,,,,,,,,,,,,,,,,,,,,,,,,,,,,,,,,,,,,,,,,,,,,,,,,,,,,,,,,,,,,,,,,,,,,,,,,,,,,,,,,,,,,,,,,,,,,,,,,,,,,,,,,,,,,,,,,,,,,,,,,,,,,,,,
,,695d6323922e5b6f33345f2b,2026-03-17_11h24.55.855,kallum_motion_pilot_GIST_update_2,2026.1.1,Win32,58.82352941,695d6323922e5b6f33345f2b,69b92ab4aef6dee357cd729a,69b92af7bbaf9f77b0ba99f2,0.0195,0.0195,1,52,214,97,1,fiveseven,,,,,,,,,,,,,,,,,,,,,,,,,,,,,,,,,,,,,,,,,,,,,,,,,,,,,,,,,,,,,,,,,,,,,,,,,,,,,,,,,,,,,,,,,,,,,,,,,,,,,,,,,,,,,,,,,,,,,,,,,,,,,,,,,,,,,,,,,
,,695d6323922e5b6f33345f2b,2026-03-17_11h24.55.855,kallum_motion_pilot_GIST_update_2,2026.1.1,Win32,58.82352941,695d6323922e5b6f33345f2b,69b92ab4aef6dee357cd729a,69b92af7bbaf9f77b0ba99f2,0.0196,0.0196,1,53,215,21,1,threefour,,,,,,,,,,,,,,,,,,,,,,,,,,,,,,,,,,,,,,,,,,,,,,,,,,,,,,,,,,,,,,,,,,,,,,,,,,,,,,,,,,,,,,,,,,,,,,,,,,,,,,,,,,,,,,,,,,,,,,,,,,,,,,,,,,,,,,,,,
,,695d6323922e5b6f33345f2b,2026-03-17_11h24.55.855,kallum_motion_pilot_GIST_update_2,2026.1.1,Win32,58.82352941,695d6323922e5b6f33345f2b,69b92ab4aef6dee357cd729a,69b92af7bbaf9f77b0ba99f2,0.0196,0.0196,1,54,216,152,1,fivesix,,,,,,,,,,,,,,,,,,,,,,,,,,,,,,,,,,,,,,,,,,,,,,,,,,,,,,,,,,,,,,,,,,,,,,,,,,,,,,,,,,,,,,,,,,,,,,,,,,,,,,,,,,,,,,,,,,,,,,,,,,,,,,,,,,,,,,,,,
,,695d6323922e5b6f33345f2b,2026-03-17_11h24.55.855,kallum_motion_pilot_GIST_update_2,2026.1.1,Win32,58.82352941,695d6323922e5b6f33345f2b,69b92ab4aef6dee357cd729a,69b92af7bbaf9f77b0ba99f2,0.0197,0.0197,1,55,217,114,1,sixfive,,,,,,,,,,,,,,,,,,,,,,,,,,,,,,,,,,,,,,,,,,,,,,,,,,,,,,,,,,,,,,,,,,,,,,,,,,,,,,,,,,,,,,,,,,,,,,,,,,,,,,,,,,,,,,,,,,,,,,,,,,,,,,,,,,,,,,,,,
,,695d6323922e5b6f33345f2b,2026-03-17_11h24.55.855,kallum_motion_pilot_GIST_update_2,2026.1.1,Win32,58.82352941,695d6323922e5b6f33345f2b,69b92ab4aef6dee357cd729a,69b92af7bbaf9f77b0ba99f2,0.0198,0.0198,1,56,218,154,1,sixfive,,,,,,,,,,,,,,,,,,,,,,,,,,,,,,,,,,,,,,,,,,,,,,,,,,,,,,,,,,,,,,,,,,,,,,,,,,,,,,,,,,,,,,,,,,,,,,,,,,,,,,,,,,,,,,,,,,,,,,,,,,,,,,,,,,,,,,,,,
,,695d6323922e5b6f33345f2b,2026-03-17_11h24.55.855,kallum_motion_pilot_GIST_update_2,2026.1.1,Win32,58.82352941,695d6323922e5b6f33345f2b,69b92ab4aef6dee357cd729a,69b92af7bbaf9f77b0ba99f2,0.0198,0.0198,1,57,219,45,1,threefour,,,,,,,,,,,,,,,,,,,,,,,,,,,,,,,,,,,,,,,,,,,,,,,,,,,,,,,,,,,,,,,,,,,,,,,,,,,,,,,,,,,,,,,,,,,,,,,,,,,,,,,,,,,,,,,,,,,,,,,,,,,,,,,,,,,,,,,,,
,,695d6323922e5b6f33345f2b,2026-03-17_11h24.55.855,kallum_motion_pilot_GIST_update_2,2026.1.1,Win32,58.82352941,695d6323922e5b6f33345f2b,69b92ab4aef6dee357cd729a,69b92af7bbaf9f77b0ba99f2,0.0198,0.0198,1,58,220,22,1,fourtwo,,,,,,,,,,,,,,,,,,,,,,,,,,,,,,,,,,,,,,,,,,,,,,,,,,,,,,,,,,,,,,,,,,,,,,,,,,,,,,,,,,,,,,,,,,,,,,,,,,,,,,,,,,,,,,,,,,,,,,,,,,,,,,,,,,,,,,,,,
,,695d6323922e5b6f33345f2b,2026-03-17_11h24.55.855,kallum_motion_pilot_GIST_update_2,2026.1.1,Win32,58.82352941,695d6323922e5b6f33345f2b,69b92ab4aef6dee357cd729a,69b92af7bbaf9f77b0ba99f2,0.0199,0.0199,1,59,221,112,1,fivesix,,,,,,,,,,,,,,,,,,,,,,,,,,,,,,,,,,,,,,,,,,,,,,,,,,,,,,,,,,,,,,,,,,,,,,,,,,,,,,,,,,,,,,,,,,,,,,,,,,,,,,,,,,,,,,,,,,,,,,,,,,,,,,,,,,,,,,,,,
,,695d6323922e5b6f33345f2b,2026-03-17_11h24.55.855,kallum_motion_pilot_GIST_update_2,2026.1.1,Win32,58.82352941,695d6323922e5b6f33345f2b,69b92ab4aef6dee357cd729a,69b92af7bbaf9f77b0ba99f2,0.02,0.02,1,60,222,157,1,seveneight,,,,,,,,,,,,,,,,,,,,,,,,,,,,,,,,,,,,,,,,,,,,,,,,,,,,,,,,,,,,,,,,,,,,,,,,,,,,,,,,,,,,,,,,,,,,,,,,,,,,,,,,,,,,,,,,,,,,,,,,,,,,,,,,,,,,,,,,,
,,695d6323922e5b6f33345f2b,2026-03-17_11h24.55.855,kallum_motion_pilot_GIST_update_2,2026.1.1,Win32,58.82352941,695d6323922e5b6f33345f2b,69b92ab4aef6dee357cd729a,69b92af7bbaf9f77b0ba99f2,0.02,0.02,1,61,223,54,1,fourtwo,,,,,,,,,,,,,,,,,,,,,,,,,,,,,,,,,,,,,,,,,,,,,,,,,,,,,,,,,,,,,,,,,,,,,,,,,,,,,,,,,,,,,,,,,,,,,,,,,,,,,,,,,,,,,,,,,,,,,,,,,,,,,,,,,,,,,,,,,
,,695d6323922e5b6f33345f2b,2026-03-17_11h24.55.855,kallum_motion_pilot_GIST_update_2,2026.1.1,Win32,58.82352941,695d6323922e5b6f33345f2b,69b92ab4aef6dee357cd729a,69b92af7bbaf9f77b0ba99f2,0.02,0.02,1,62,224,161,1,fiveseven,,,,,,,,,,,,,,,,,,,,,,,,,,,,,,,,,,,,,,,,,,,,,,,,,,,,,,,,,,,,,,,,,,,,,,,,,,,,,,,,,,,,,,,,,,,,,,,,,,,,,,,,,,,,,,,,,,,,,,,,,,,,,,,,,,,,,,,,,
,,695d6323922e5b6f33345f2b,2026-03-17_11h24.55.855,kallum_motion_pilot_GIST_update_2,2026.1.1,Win32,58.82352941,695d6323922e5b6f33345f2b,69b92ab4aef6dee357cd729a,69b92af7bbaf9f77b0ba99f2,0.0201,0.0201,1,63,225,100,1,sevenfive,,,,,,,,,,,,,,,,,,,,,,,,,,,,,,,,,,,,,,,,,,,,,,,,,,,,,,,,,,,,,,,,,,,,,,,,,,,,,,,,,,,,,,,,,,,,,,,,,,,,,,,,,,,,,,,,,,,,,,,,,,,,,,,,,,,,,,,,,
,,695d6323922e5b6f33345f2b,2026-03-17_11h24.55.855,kallum_motion_pilot_GIST_update_2,2026.1.1,Win32,58.82352941,695d6323922e5b6f33345f2b,69b92ab4aef6dee357cd729a,69b92af7bbaf9f77b0ba99f2,0.0202,0.0202,1,64,226,109,1,seveneight,,,,,,,,,,,,,,,,,,,,,,,,,,,,,,,,,,,,,,,,,,,,,,,,,,,,,,,,,,,,,,,,,,,,,,,,,,,,,,,,,,,,,,,,,,,,,,,,,,,,,,,,,,,,,,,,,,,,,,,,,,,,,,,,,,,,,,,,,
,,695d6323922e5b6f33345f2b,2026-03-17_11h24.55.855,kallum_motion_pilot_GIST_update_2,2026.1.1,Win32,58.82352941,695d6323922e5b6f33345f2b,69b92ab4aef6dee357cd729a,69b92af7bbaf9f77b0ba99f2,0.0202,0.0202,1,65,227,35,1,twofour,,,,,,,,,,,,,,,,,,,,,,,,,,,,,,,,,,,,,,,,,,,,,,,,,,,,,,,,,,,,,,,,,,,,,,,,,,,,,,,,,,,,,,,,,,,,,,,,,,,,,,,,,,,,,,,,,,,,,,,,,,,,,,,,,,,,,,,,,
,,695d6323922e5b6f33345f2b,2026-03-17_11h24.55.855,kallum_motion_pilot_GIST_update_2,2026.1.1,Win32,58.82352941,695d6323922e5b6f33345f2b,69b92ab4aef6dee357cd729a,69b92af7bbaf9f77b0ba99f2,0.0203,0.0203,1,66,228,126,1,eightsix,,,,,,,,,,,,,,,,,,,,,,,,,,,,,,,,,,,,,,,,,,,,,,,,,,,,,,,,,,,,,,,,,,,,,,,,,,,,,,,,,,,,,,,,,,,,,,,,,,,,,,,,,,,,,,,,,,,,,,,,,,,,,,,,,,,,,,,,,
,,695d6323922e5b6f33345f2b,2026-03-17_11h24.55.855,kallum_motion_pilot_GIST_update_2,2026.1.1,Win32,58.82352941,695d6323922e5b6f33345f2b,69b92ab4aef6dee357cd729a,69b92af7bbaf9f77b0ba99f2,0.0203,0.0203,1,67,229,61,1,threefour,,,,,,,,,,,,,,,,,,,,,,,,,,,,,,,,,,,,,,,,,,,,,,,,,,,,,,,,,,,,,,,,,,,,,,,,,,,,,,,,,,,,,,,,,,,,,,,,,,,,,,,,,,,,,,,,,,,,,,,,,,,,,,,,,,,,,,,,,
,,695d6323922e5b6f33345f2b,2026-03-17_11h24.55.855,kallum_motion_pilot_GIST_update_2,2026.1.1,Win32,58.82352941,695d6323922e5b6f33345f2b,69b92ab4aef6dee357cd729a,69b92af7bbaf9f77b0ba99f2,0.0204,0.0204,1,68,230,94,1,eightsix,,,,,,,,,,,,,,,,,,,,,,,,,,,,,,,,,,,,,,,,,,,,,,,,,,,,,,,,,,,,,,,,,,,,,,,,,,,,,,,,,,,,,,,,,,,,,,,,,,,,,,,,,,,,,,,,,,,,,,,,,,,,,,,,,,,,,,,,,
,,695d6323922e5b6f33345f2b,2026-03-17_11h24.55.855,kallum_motion_pilot_GIST_update_2,2026.1.1,Win32,58.82352941,695d6323922e5b6f33345f2b,69b92ab4aef6dee357cd729a,69b92af7bbaf9f77b0ba99f2,0.0205,0.0205,1,69,231,147,1,sixeight,,,,,,,,,,,,,,,,,,,,,,,,,,,,,,,,,,,,,,,,,,,,,,,,,,,,,,,,,,,,,,,,,,,,,,,,,,,,,,,,,,,,,,,,,,,,,,,,,,,,,,,,,,,,,,,,,,,,,,,,,,,,,,,,,,,,,,,,,
,,695d6323922e5b6f33345f2b,2026-03-17_11h24.55.855,kallum_motion_pilot_GIST_update_2,2026.1.1,Win32,58.82352941,695d6323922e5b6f33345f2b,69b92ab4aef6dee357cd729a,69b92af7bbaf9f77b0ba99f2,0.0205,0.0205,1,70,232,1,1,onethree,,,,,,,,,,,,,,,,,,,,,,,,,,,,,,,,,,,,,,,,,,,,,,,,,,,,,,,,,,,,,,,,,,,,,,,,,,,,,,,,,,,,,,,,,,,,,,,,,,,,,,,,,,,,,,,,,,,,,,,,,,,,,,,,,,,,,,,,,
,,695d6323922e5b6f33345f2b,2026-03-17_11h24.55.855,kallum_motion_pilot_GIST_update_2,2026.1.1,Win32,58.82352941,695d6323922e5b6f33345f2b,69b92ab4aef6dee357cd729a,69b92af7bbaf9f77b0ba99f2,0.0205,0.0205,1,71,233,107,1,sixeight,,,,,,,,,,,,,,,,,,,,,,,,,,,,,,,,,,,,,,,,,,,,,,,,,,,,,,,,,,,,,,,,,,,,,,,,,,,,,,,,,,,,,,,,,,,,,,,,,,,,,,,,,,,,,,,,,,,,,,,,,,,,,,,,,,,,,,,,,
,,695d6323922e5b6f33345f2b,2026-03-17_11h24.55.855,kallum_motion_pilot_GIST_update_2,2026.1.1,Win32,58.82352941,695d6323922e5b6f33345f2b,69b92ab4aef6dee357cd729a,69b92af7bbaf9f77b0ba99f2,0.0206,0.0206,1,72,234,104,1,fivesix,,,,,,,,,,,,,,,,,,,,,,,,,,,,,,,,,,,,,,,,,,,,,,,,,,,,,,,,,,,,,,,,,,,,,,,,,,,,,,,,,,,,,,,,,,,,,,,,,,,,,,,,,,,,,,,,,,,,,,,,,,,,,,,,,,,,,,,,,
,,695d6323922e5b6f33345f2b,2026-03-17_11h24.55.855,kallum_motion_pilot_GIST_update_2,2026.1.1,Win32,58.82352941,695d6323922e5b6f33345f2b,69b92ab4aef6dee357cd729a,69b92af7bbaf9f77b0ba99f2,0.0206,0.0206,1,73,235,26,1,twoone,,,,,,,,,,,,,,,,,,,,,,,,,,,,,,,,,,,,,,,,,,,,,,,,,,,,,,,,,,,,,,,,,,,,,,,,,,,,,,,,,,,,,,,,,,,,,,,,,,,,,,,,,,,,,,,,,,,,,,,,,,,,,,,,,,,,,,,,,
,,695d6323922e5b6f33345f2b,2026-03-17_11h24.55.855,kallum_motion_pilot_GIST_update_2,2026.1.1,Win32,58.82352941,695d6323922e5b6f33345f2b,69b92ab4aef6dee357cd729a,69b92af7bbaf9f77b0ba99f2,0.0207,0.0207,1,74,236,89,1,fiveseven,,,,,,,,,,,,,,,,,,,,,,,,,,,,,,,,,,,,,,,,,,,,,,,,,,,,,,,,,,,,,,,,,,,,,,,,,,,,,,,,,,,,,,,,,,,,,,,,,,,,,,,,,,,,,,,,,,,,,,,,,,,,,,,,,,,,,,,,,
,,695d6323922e5b6f33345f2b,2026-03-17_11h24.55.855,kallum_motion_pilot_GIST_update_2,2026.1.1,Win32,58.82352941,695d6323922e5b6f33345f2b,69b92ab4aef6dee357cd729a,69b92af7bbaf9f77b0ba99f2,0.0207,0.0207,1,75,237,146,1,sixfive,,,,,,,,,,,,,,,,,,,,,,,,,,,,,,,,,,,,,,,,,,,,,,,,,,,,,,,,,,,,,,,,,,,,,,,,,,,,,,,,,,,,,,,,,,,,,,,,,,,,,,,,,,,,,,,,,,,,,,,,,,,,,,,,,,,,,,,,,
,,695d6323922e5b6f33345f2b,2026-03-17_11h24.55.855,kallum_motion_pilot_GIST_update_2,2026.1.1,Win32,58.82352941,695d6323922e5b6f33345f2b,69b92ab4aef6dee357cd729a,69b92af7bbaf9f77b0ba99f2,0.0208,0.0208,1,76,238,24,1,onetwo,,,,,,,,,,,,,,,,,,,,,,,,,,,,,,,,,,,,,,,,,,,,,,,,,,,,,,,,,,,,,,,,,,,,,,,,,,,,,,,,,,,,,,,,,,,,,,,,,,,,,,,,,,,,,,,,,,,,,,,,,,,,,,,,,,,,,,,,,
,,695d6323922e5b6f33345f2b,2026-03-17_11h24.55.855,kallum_motion_pilot_GIST_update_2,2026.1.1,Win32,58.82352941,695d6323922e5b6f33345f2b,69b92ab4aef6dee357cd729a,69b92af7bbaf9f77b0ba99f2,0.0208,0.0208,1,77,239,43,1,twofour,,,,,,,,,,,,,,,,,,,,,,,,,,,,,,,,,,,,,,,,,,,,,,,,,,,,,,,,,,,,,,,,,,,,,,,,,,,,,,,,,,,,,,,,,,,,,,,,,,,,,,,,,,,,,,,,,,,,,,,,,,,,,,,,,,,,,,,,,
,,695d6323922e5b6f33345f2b,2026-03-17_11h24.55.855,kallum_motion_pilot_GIST_update_2,2026.1.1,Win32,58.82352941,695d6323922e5b6f33345f2b,69b92ab4aef6dee357cd729a,69b92af7bbaf9f77b0ba99f2,0.0209,0.0209,1,78,240,134,1,eightsix,,,,,,,,,,,,,,,,,,,,,,,,,,,,,,,,,,,,,,,,,,,,,,,,,,,,,,,,,,,,,,,,,,,,,,,,,,,,,,,,,,,,,,,,,,,,,,,,,,,,,,,,,,,,,,,,,,,,,,,,,,,,,,,,,,,,,,,,,
,,695d6323922e5b6f33345f2b,2026-03-17_11h24.55.855,kallum_motion_pilot_GIST_update_2,2026.1.1,Win32,58.82352941,695d6323922e5b6f33345f2b,69b92ab4aef6dee357cd729a,69b92af7bbaf9f77b0ba99f2,0.021,0.021,1,79,241,48,1,onetwo,,,,,,,,,,,,,,,,,,,,,,,,,,,,,,,,,,,,,,,,,,,,,,,,,,,,,,,,,,,,,,,,,,,,,,,,,,,,,,,,,,,,,,,,,,,,,,,,,,,,,,,,,,,,,,,,,,,,,,,,,,,,,,,,,,,,,,,,,
,,695d6323922e5b6f33345f2b,2026-03-17_11h24.55.855,kallum_motion_pilot_GIST_update_2,2026.1.1,Win32,58.82352941,695d6323922e5b6f33345f2b,69b92ab4aef6dee357cd729a,69b92af7bbaf9f77b0ba99f2,0.021,0.021,1,80,242,158,1,eightsix,,,,,,,,,,,,,,,,,,,,,,,,,,,,,,,,,,,,,,,,,,,,,,,,,,,,,,,,,,,,,,,,,,,,,,,,,,,,,,,,,,,,,,,,,,,,,,,,,,,,,,,,,,,,,,,,,,,,,,,,,,,,,,,,,,,,,,,,,
,,695d6323922e5b6f33345f2b,2026-03-17_11h24.55.855,kallum_motion_pilot_GIST_update_2,2026.1.1,Win32,58.82352941,695d6323922e5b6f33345f2b,69b92ab4aef6dee357cd729a,69b92af7bbaf9f77b0ba99f2,0.021,0.0211,1,81,243,87,1,eightseven,,,,,,,,,,,,,,,,,,,,,,,,,,,,,,,,,,,,,,,,,,,,,,,,,,,,,,,,,,,,,,,,,,,,,,,,,,,,,,,,,,,,,,,,,,,,,,,,,,,,,,,,,,,,,,,,,,,,,,,,,,,,,,,,,,,,,,,,,
,,695d6323922e5b6f33345f2b,2026-03-17_11h24.55.855,kallum_motion_pilot_GIST_update_2,2026.1.1,Win32,58.82352941,695d6323922e5b6f33345f2b,69b92ab4aef6dee357cd729a,69b92af7bbaf9f77b0ba99f2,0.0211,0.0211,1,82,244,153,1,fiveseven,,,,,,,,,,,,,,,,,,,,,,,,,,,,,,,,,,,,,,,,,,,,,,,,,,,,,,,,,,,,,,,,,,,,,,,,,,,,,,,,,,,,,,,,,,,,,,,,,,,,,,,,,,,,,,,,,,,,,,,,,,,,,,,,,,,,,,,,,
,,695d6323922e5b6f33345f2b,2026-03-17_11h24.55.855,kallum_motion_pilot_GIST_update_2,2026.1.1,Win32,58.82352941,695d6323922e5b6f33345f2b,69b92ab4aef6dee357cd729a,69b92af7bbaf9f77b0ba99f2,0.0212,0.0212,1,83,245,8,1,onetwo,,,,,,,,,,,,,,,,,,,,,,,,,,,,,,,,,,,,,,,,,,,,,,,,,,,,,,,,,,,,,,,,,,,,,,,,,,,,,,,,,,,,,,,,,,,,,,,,,,,,,,,,,,,,,,,,,,,,,,,,,,,,,,,,,,,,,,,,,
,,695d6323922e5b6f33345f2b,2026-03-17_11h24.55.855,kallum_motion_pilot_GIST_update_2,2026.1.1,Win32,58.82352941,695d6323922e5b6f33345f2b,69b92ab4aef6dee357cd729a,69b92af7bbaf9f77b0ba99f2,0.0212,0.0212,1,84,246,15,1,fourthree,,,,,,,,,,,,,,,,,,,,,,,,,,,,,,,,,,,,,,,,,,,,,,,,,,,,,,,,,,,,,,,,,,,,,,,,,,,,,,,,,,,,,,,,,,,,,,,,,,,,,,,,,,,,,,,,,,,,,,,,,,,,,,,,,,,,,,,,,
,,695d6323922e5b6f33345f2b,2026-03-17_11h24.55.855,kallum_motion_pilot_GIST_update_2,2026.1.1,Win32,58.82352941,695d6323922e5b6f33345f2b,69b92ab4aef6dee357cd729a,69b92af7bbaf9f77b0ba99f2,0.0212,0.0212,1,85,247,130,1,sixfive,,,,,,,,,,,,,,,,,,,,,,,,,,,,,,,,,,,,,,,,,,,,,,,,,,,,,,,,,,,,,,,,,,,,,,,,,,,,,,,,,,,,,,,,,,,,,,,,,,,,,,,,,,,,,,,,,,,,,,,,,,,,,,,,,,,,,,,,,
,,695d6323922e5b6f33345f2b,2026-03-17_11h24.55.855,kallum_motion_pilot_GIST_update_2,2026.1.1,Win32,58.82352941,695d6323922e5b6f33345f2b,69b92ab4aef6dee357cd729a,69b92af7bbaf9f77b0ba99f2,0.0213,0.0213,1,86,248,155,1,sixeight,,,,,,,,,,,,,,,,,,,,,,,,,,,,,,,,,,,,,,,,,,,,,,,,,,,,,,,,,,,,,,,,,,,,,,,,,,,,,,,,,,,,,,,,,,,,,,,,,,,,,,,,,,,,,,,,,,,,,,,,,,,,,,,,,,,,,,,,,
,,695d6323922e5b6f33345f2b,2026-03-17_11h24.55.855,kallum_motion_pilot_GIST_update_2,2026.1.1,Win32,58.82352941,695d6323922e5b6f33345f2b,69b92ab4aef6dee357cd729a,69b92af7bbaf9f77b0ba99f2,0.0214,0.0214,1,87,249,132,1,sevenfive,,,,,,,,,,,,,,,,,,,,,,,,,,,,,,,,,,,,,,,,,,,,,,,,,,,,,,,,,,,,,,,,,,,,,,,,,,,,,,,,,,,,,,,,,,,,,,,,,,,,,,,,,,,,,,,,,,,,,,,,,,,,,,,,,,,,,,,,,
,,695d6323922e5b6f33345f2b,2026-03-17_11h24.55.855,kallum_motion_pilot_GIST_update_2,2026.1.1,Win32,58.82352941,695d6323922e5b6f33345f2b,69b92ab4aef6dee357cd729a,69b92af7bbaf9f77b0ba99f2,0.0214,0.0215,1,88,250,93,1,seveneight,,,,,,,,,,,,,,,,,,,,,,,,,,,,,,,,,,,,,,,,,,,,,,,,,,,,,,,,,,,,,,,,,,,,,,,,,,,,,,,,,,,,,,,,,,,,,,,,,,,,,,,,,,,,,,,,,,,,,,,,,,,,,,,,,,,,,,,,,
,,695d6323922e5b6f33345f2b,2026-03-17_11h24.55.855,kallum_motion_pilot_GIST_update_2,2026.1.1,Win32,58.82352941,695d6323922e5b6f33345f2b,69b92ab4aef6dee357cd729a,69b92af7bbaf9f77b0ba99f2,0.0215,0.0215,1,89,251,137,1,fiveseven,,,,,,,,,,,,,,,,,,,,,,,,,,,,,,,,,,,,,,,,,,,,,,,,,,,,,,,,,,,,,,,,,,,,,,,,,,,,,,,,,,,,,,,,,,,,,,,,,,,,,,,,,,,,,,,,,,,,,,,,,,,,,,,,,,,,,,,,,
,,695d6323922e5b6f33345f2b,2026-03-17_11h24.55.855,kallum_motion_pilot_GIST_update_2,2026.1.1,Win32,58.82352941,695d6323922e5b6f33345f2b,69b92ab4aef6dee357cd729a,69b92af7bbaf9f77b0ba99f2,0.0216,0.0216,1,90,252,108,1,sevenfive,,,,,,,,,,,,,,,,,,,,,,,,,,,,,,,,,,,,,,,,,,,,,,,,,,,,,,,,,,,,,,,,,,,,,,,,,,,,,,,,,,,,,,,,,,,,,,,,,,,,,,,,,,,,,,,,,,,,,,,,,,,,,,,,,,,,,,,,,
,,695d6323922e5b6f33345f2b,2026-03-17_11h24.55.855,kallum_motion_pilot_GIST_update_2,2026.1.1,Win32,58.82352941,695d6323922e5b6f33345f2b,69b92ab4aef6dee357cd729a,69b92af7bbaf9f77b0ba99f2,0.0216,0.0216,1,91,253,28,1,threeone,,,,,,,,,,,,,,,,,,,,,,,,,,,,,,,,,,,,,,,,,,,,,,,,,,,,,,,,,,,,,,,,,,,,,,,,,,,,,,,,,,,,,,,,,,,,,,,,,,,,,,,,,,,,,,,,,,,,,,,,,,,,,,,,,,,,,,,,,
,,695d6323922e5b6f33345f2b,2026-03-17_11h24.55.855,kallum_motion_pilot_GIST_update_2,2026.1.1,Win32,58.82352941,695d6323922e5b6f33345f2b,69b92ab4aef6dee357cd729a,69b92af7bbaf9f77b0ba99f2,0.0216,0.0216,1,92,254,14,1,fourtwo,,,,,,,,,,,,,,,,,,,,,,,,,,,,,,,,,,,,,,,,,,,,,,,,,,,,,,,,,,,,,,,,,,,,,,,,,,,,,,,,,,,,,,,,,,,,,,,,,,,,,,,,,,,,,,,,,,,,,,,,,,,,,,,,,,,,,,,,,
,,695d6323922e5b6f33345f2b,2026-03-17_11h24.55.855,kallum_motion_pilot_GIST_update_2,2026.1.1,Win32,58.82352941,695d6323922e5b6f33345f2b,69b92ab4aef6dee357cd729a,69b92af7bbaf9f77b0ba99f2,0.0217,0.0217,1,93,255,143,1,eightseven,,,,,,,,,,,,,,,,,,,,,,,,,,,,,,,,,,,,,,,,,,,,,,,,,,,,,,,,,,,,,,,,,,,,,,,,,,,,,,,,,,,,,,,,,,,,,,,,,,,,,,,,,,,,,,,,,,,,,,,,,,,,,,,,,,,,,,,,,
,,695d6323922e5b6f33345f2b,2026-03-17_11h24.55.855,kallum_motion_pilot_GIST_update_2,2026.1.1,Win32,58.82352941,695d6323922e5b6f33345f2b,69b92ab4aef6dee357cd729a,69b92af7bbaf9f77b0ba99f2,0.0218,0.0218,1,94,256,5,1,threefour,,,,,,,,,,,,,,,,,,,,,,,,,,,,,,,,,,,,,,,,,,,,,,,,,,,,,,,,,,,,,,,,,,,,,,,,,,,,,,,,,,,,,,,,,,,,,,,,,,,,,,,,,,,,,,,,,,,,,,,,,,,,,,,,,,,,,,,,,
,,695d6323922e5b6f33345f2b,2026-03-17_11h24.55.855,kallum_motion_pilot_GIST_update_2,2026.1.1,Win32,58.82352941,695d6323922e5b6f33345f2b,69b92ab4aef6dee357cd729a,69b92af7bbaf9f77b0ba99f2,0.0218,0.0218,1,95,257,7,1,fourthree,,,,,,,,,,,,,,,,,,,,,,,,,,,,,,,,,,,,,,,,,,,,,,,,,,,,,,,,,,,,,,,,,,,,,,,,,,,,,,,,,,,,,,,,,,,,,,,,,,,,,,,,,,,,,,,,,,,,,,,,,,,,,,,,,,,,,,,,,
,,695d6323922e5b6f33345f2b,2026-03-17_11h24.55.855,kallum_motion_pilot_GIST_update_2,2026.1.1,Win32,58.82352941,695d6323922e5b6f33345f2b,69b92ab4aef6dee357cd729a,69b92af7bbaf9f77b0ba99f2,0.0219,0.0219,1,96,258,51,1,twofour,,,,,,,,,,,,,,,,,,,,,,,,,,,,,,,,,,,,,,,,,,,,,,,,,,,,,,,,,,,,,,,,,,,,,,,,,,,,,,,,,,,,,,,,,,,,,,,,,,,,,,,,,,,,,,,,,,,,,,,,,,,,,,,,,,,,,,,,,
,,695d6323922e5b6f33345f2b,2026-03-17_11h24.55.855,kallum_motion_pilot_GIST_update_2,2026.1.1,Win32,58.82352941,695d6323922e5b6f33345f2b,69b92ab4aef6dee357cd729a,69b92af7bbaf9f77b0ba99f2,0.0219,0.0219,1,97,259,55,1,fourthree,,,,,,,,,,,,,,,,,,,,,,,,,,,,,,,,,,,,,,,,,,,,,,,,,,,,,,,,,,,,,,,,,,,,,,,,,,,,,,,,,,,,,,,,,,,,,,,,,,,,,,,,,,,,,,,,,,,,,,,,,,,,,,,,,,,,,,,,,
,,695d6323922e5b6f33345f2b,2026-03-17_11h24.55.855,kallum_motion_pilot_GIST_update_2,2026.1.1,Win32,58.82352941,695d6323922e5b6f33345f2b,69b92ab4aef6dee357cd729a,69b92af7bbaf9f77b0ba99f2,0.022,0.022,1,98,260,67,1,twofour,,,,,,,,,,,,,,,,,,,,,,,,,,,,,,,,,,,,,,,,,,,,,,,,,,,,,,,,,,,,,,,,,,,,,,,,,,,,,,,,,,,,,,,,,,,,,,,,,,,,,,,,,,,,,,,,,,,,,,,,,,,,,,,,,,,,,,,,,
,,695d6323922e5b6f33345f2b,2026-03-17_11h24.55.855,kallum_motion_pilot_GIST_update_2,2026.1.1,Win32,58.82352941,695d6323922e5b6f33345f2b,69b92ab4aef6dee357cd729a,69b92af7bbaf9f77b0ba99f2,0.0221,0.0221,1,99,261,149,1,seveneight,,,,,,,,,,,,,,,,,,,,,,,,,,,,,,,,,,,,,,,,,,,,,,,,,,,,,,,,,,,,,,,,,,,,,,,,,,,,,,,,,,,,,,,,,,,,,,,,,,,,,,,,,,,,,,,,,,,,,,,,,,,,,,,,,,,,,,,,,
,,695d6323922e5b6f33345f2b,2026-03-17_11h24.55.855,kallum_motion_pilot_GIST_update_2,2026.1.1,Win32,58.82352941,695d6323922e5b6f33345f2b,69b92ab4aef6dee357cd729a,69b92af7bbaf9f77b0ba99f2,0.0221,0.0221,1,100,262,156,1,sevenfive,,,,,,,,,,,,,,,,,,,,,,,,,,,,,,,,,,,,,,,,,,,,,,,,,,,,,,,,,,,,,,,,,,,,,,,,,,,,,,,,,,,,,,,,,,,,,,,,,,,,,,,,,,,,,,,,,,,,,,,,,,,,,,,,,,,,,,,,,
,,695d6323922e5b6f33345f2b,2026-03-17_11h24.55.855,kallum_motion_pilot_GIST_update_2,2026.1.1,Win32,58.82352941,695d6323922e5b6f33345f2b,69b92ab4aef6dee357cd729a,69b92af7bbaf9f77b0ba99f2,0.0221,0.0221,1,101,263,141,1,seveneight,,,,,,,,,,,,,,,,,,,,,,,,,,,,,,,,,,,,,,,,,,,,,,,,,,,,,,,,,,,,,,,,,,,,,,,,,,,,,,,,,,,,,,,,,,,,,,,,,,,,,,,,,,,,,,,,,,,,,,,,,,,,,,,,,,,,,,,,,
,,695d6323922e5b6f33345f2b,2026-03-17_11h24.55.855,kallum_motion_pilot_GIST_update_2,2026.1.1,Win32,58.82352941,695d6323922e5b6f33345f2b,69b92ab4aef6dee357cd729a,69b92af7bbaf9f77b0ba99f2,0.0223,0.0223,1,102,264,60,1,threeone,,,,,,,,,,,,,,,,,,,,,,,,,,,,,,,,,,,,,,,,,,,,,,,,,,,,,,,,,,,,,,,,,,,,,,,,,,,,,,,,,,,,,,,,,,,,,,,,,,,,,,,,,,,,,,,,,,,,,,,,,,,,,,,,,,,,,,,,,
,,695d6323922e5b6f33345f2b,2026-03-17_11h24.55.855,kallum_motion_pilot_GIST_update_2,2026.1.1,Win32,58.82352941,695d6323922e5b6f33345f2b,69b92ab4aef6dee357cd729a,69b92af7bbaf9f77b0ba99f2,0.0223,0.0223,1,103,265,52,1,threeone,,,,,,,,,,,,,,,,,,,,,,,,,,,,,,,,,,,,,,,,,,,,,,,,,,,,,,,,,,,,,,,,,,,,,,,,,,,,,,,,,,,,,,,,,,,,,,,,,,,,,,,,,,,,,,,,,,,,,,,,,,,,,,,,,,,,,,,,,
,,695d6323922e5b6f33345f2b,2026-03-17_11h24.55.855,kallum_motion_pilot_GIST_update_2,2026.1.1,Win32,58.82352941,695d6323922e5b6f33345f2b,69b92ab4aef6dee357cd729a,69b92af7bbaf9f77b0ba99f2,0.0224,0.0224,1,104,266,50,1,twoone,,,,,,,,,,,,,,,,,,,,,,,,,,,,,,,,,,,,,,,,,,,,,,,,,,,,,,,,,,,,,,,,,,,,,,,,,,,,,,,,,,,,,,,,,,,,,,,,,,,,,,,,,,,,,,,,,,,,,,,,,,,,,,,,,,,,,,,,,
