startup.started,startup.stopped,Prolific ID*,date,expName,psychopyVersion,OS,frameRate,participant,study_id,session,stimpositions.started,stimpositions.stopped,hardcoded_stimulus_positions.thisRepN,hardcoded_stimulus_positions.thisTrialN,hardcoded_stimulus_positions.thisN,hardcoded_stimulus_positions.thisIndex,hardcoded_stimulus_positions.ran,StimulusPos,stimorientation.started,stimorientation.stopped,prac_stimorientation_import_loop.thisRepN,prac_stimorientation_import_loop.thisTrialN,prac_stimorientation_import_loop.thisN,prac_stimorientation_import_loop.thisIndex,prac_stimorientation_import_loop.ran,Stimorientation,welcome_instr.started,welcome_instr.stopped,key_resp.keys,key_resp.rt,key_resp.duration,response_steppedout_1.started,response_steppedout_1.stopped,key_resp_20.keys,key_resp_20.rt,key_resp_20.duration,response_steppedout_2.started,response_steppedout_2.stopped,key_resp_19.keys,key_resp_19.rt,key_resp_19.duration,stim_response_instr.started,stim_response_instr.stopped,key_resp_15.keys,key_resp_15.rt,key_resp_15.duration,direction_instr_2.started,direction_instr_2.stopped,key_resp_9.keys,key_resp_9.rt,key_resp_9.duration,instr_prac.started,instr_prac.stopped,key_resp_10.keys,key_resp_10.rt,key_resp_10.duration,Stim1_display_prac.started,Stim1_display_prac.stopped,Ecc,Circle1_ori,Circle2_ori,response_prac.started,similarity,response_time,response_prac.stopped,mouse_5.x,mouse_5.y,mouse_5.leftButton,mouse_5.midButton,mouse_5.rightButton,mouse_5.clicked_name,responseprac_feedback.started,responseprac_feedback.stopped,summary2_prac.started,summary2_prac.stopped,mouse_6.x,mouse_6.y,mouse_6.leftButton,mouse_6.midButton,mouse_6.rightButton,mouse_6.clicked_name,duringprac.thisRepN,duringprac.thisTrialN,duringprac.thisN,duringprac.thisIndex,duringprac.ran,begin.started,begin.stopped,key_resp_22.keys,key_resp_22.rt,key_resp_22.duration,Stim1_display.started,Stim1_display.stopped,circle1_ori,circle2_ori,circle1_SF,circle2_SF,response.started,response.stopped,mouse.x,mouse.y,mouse.leftButton,mouse.midButton,mouse.rightButton,mouse.clicked_name,trialnumber,double_pass.thisRepN,double_pass.thisTrialN,double_pass.thisN,double_pass.thisIndex,double_pass.ran,double_pass.order,main_trial.thisRepN,main_trial.thisTrialN,main_trial.thisN,main_trial.thisIndex,main_trial.ran,main_trial.order,Trial_Counter,Catch,Frequencies,response_2.started,response_2.stopped,mouse_2.x,mouse_2.y,mouse_2.leftButton,mouse_2.midButton,mouse_2.rightButton,mouse_2.clicked_name,special_trial.started,special_trial.stopped,catch_1.started,catch_1.stopped,mouse_3.x,mouse_3.y,mouse_3.leftButton,mouse_3.midButton,mouse_3.rightButton,catchresponse,catchnumber,response_time_catch,response_sum.started,response_sum.stopped,mouse_11.x,mouse_11.y,mouse_11.leftButton,mouse_11.midButton,mouse_11.rightButton,flip_presentation_sequence_for_double_pass.started,flip_presentation_sequence_for_double_pass.stopped,goodbye.started,goodbye.stopped,key_resp_3.keys,key_resp_3.rt,key_resp_3.duration
0.0007,0.001,697a6b7b9aabee3f87764438,2026-03-17_07h22.03.079,kallum_motion_pilot_GIST_update_2,2026.1.1,Win32,74.62686567,697a6b7b9aabee3f87764438,69b92ab4aef6dee357cd729a,69b92b54bd44ad5b54366fcd,,,,,,,,,,,,,,,,,,,,,,,,,,,,,,,,,,,,,,,,,,,,,,,,,,,,,,,,,,,,,,,,,,,,,,,,,,,,,,,,,,,,,,,,,,,,,,,,,,,,,,,,,,,,,,,,,,,,,,,,,,,,,,,,,,,,,,,,,,,,,,,,,
,,697a6b7b9aabee3f87764438,2026-03-17_07h22.03.079,kallum_motion_pilot_GIST_update_2,2026.1.1,Win32,74.62686567,697a6b7b9aabee3f87764438,69b92ab4aef6dee357cd729a,69b92b54bd44ad5b54366fcd,0.0524,0.0525,0,0,0,54,1,fourtwo,,,,,,,,,,,,,,,,,,,,,,,,,,,,,,,,,,,,,,,,,,,,,,,,,,,,,,,,,,,,,,,,,,,,,,,,,,,,,,,,,,,,,,,,,,,,,,,,,,,,,,,,,,,,,,,,,,,,,,,,,,,,,,,,,,,,,,,,,
,,697a6b7b9aabee3f87764438,2026-03-17_07h22.03.079,kallum_motion_pilot_GIST_update_2,2026.1.1,Win32,74.62686567,697a6b7b9aabee3f87764438,69b92ab4aef6dee357cd729a,69b92b54bd44ad5b54366fcd,0.0531,0.0532,0,1,1,82,1,sixfive,,,,,,,,,,,,,,,,,,,,,,,,,,,,,,,,,,,,,,,,,,,,,,,,,,,,,,,,,,,,,,,,,,,,,,,,,,,,,,,,,,,,,,,,,,,,,,,,,,,,,,,,,,,,,,,,,,,,,,,,,,,,,,,,,,,,,,,,,
,,697a6b7b9aabee3f87764438,2026-03-17_07h22.03.079,kallum_motion_pilot_GIST_update_2,2026.1.1,Win32,74.62686567,697a6b7b9aabee3f87764438,69b92ab4aef6dee357cd729a,69b92b54bd44ad5b54366fcd,0.0534,0.0534,0,2,2,47,1,fourthree,,,,,,,,,,,,,,,,,,,,,,,,,,,,,,,,,,,,,,,,,,,,,,,,,,,,,,,,,,,,,,,,,,,,,,,,,,,,,,,,,,,,,,,,,,,,,,,,,,,,,,,,,,,,,,,,,,,,,,,,,,,,,,,,,,,,,,,,,
,,697a6b7b9aabee3f87764438,2026-03-17_07h22.03.079,kallum_motion_pilot_GIST_update_2,2026.1.1,Win32,74.62686567,697a6b7b9aabee3f87764438,69b92ab4aef6dee357cd729a,69b92b54bd44ad5b54366fcd,0.0538,0.0538,0,3,3,96,1,fivesix,,,,,,,,,,,,,,,,,,,,,,,,,,,,,,,,,,,,,,,,,,,,,,,,,,,,,,,,,,,,,,,,,,,,,,,,,,,,,,,,,,,,,,,,,,,,,,,,,,,,,,,,,,,,,,,,,,,,,,,,,,,,,,,,,,,,,,,,,
,,697a6b7b9aabee3f87764438,2026-03-17_07h22.03.079,kallum_motion_pilot_GIST_update_2,2026.1.1,Win32,74.62686567,697a6b7b9aabee3f87764438,69b92ab4aef6dee357cd729a,69b92b54bd44ad5b54366fcd,0.0541,0.0541,0,4,4,38,1,fourtwo,,,,,,,,,,,,,,,,,,,,,,,,,,,,,,,,,,,,,,,,,,,,,,,,,,,,,,,,,,,,,,,,,,,,,,,,,,,,,,,,,,,,,,,,,,,,,,,,,,,,,,,,,,,,,,,,,,,,,,,,,,,,,,,,,,,,,,,,,
,,697a6b7b9aabee3f87764438,2026-03-17_07h22.03.079,kallum_motion_pilot_GIST_update_2,2026.1.1,Win32,74.62686567,697a6b7b9aabee3f87764438,69b92ab4aef6dee357cd729a,69b92b54bd44ad5b54366fcd,0.0544,0.0544,0,5,5,128,1,fivesix,,,,,,,,,,,,,,,,,,,,,,,,,,,,,,,,,,,,,,,,,,,,,,,,,,,,,,,,,,,,,,,,,,,,,,,,,,,,,,,,,,,,,,,,,,,,,,,,,,,,,,,,,,,,,,,,,,,,,,,,,,,,,,,,,,,,,,,,,
,,697a6b7b9aabee3f87764438,2026-03-17_07h22.03.079,kallum_motion_pilot_GIST_update_2,2026.1.1,Win32,74.62686567,697a6b7b9aabee3f87764438,69b92ab4aef6dee357cd729a,69b92b54bd44ad5b54366fcd,0.0548,0.0549,0,6,6,59,1,twofour,,,,,,,,,,,,,,,,,,,,,,,,,,,,,,,,,,,,,,,,,,,,,,,,,,,,,,,,,,,,,,,,,,,,,,,,,,,,,,,,,,,,,,,,,,,,,,,,,,,,,,,,,,,,,,,,,,,,,,,,,,,,,,,,,,,,,,,,,
,,697a6b7b9aabee3f87764438,2026-03-17_07h22.03.079,kallum_motion_pilot_GIST_update_2,2026.1.1,Win32,74.62686567,697a6b7b9aabee3f87764438,69b92ab4aef6dee357cd729a,69b92b54bd44ad5b54366fcd,0.0552,0.0552,0,7,7,1,1,onethree,,,,,,,,,,,,,,,,,,,,,,,,,,,,,,,,,,,,,,,,,,,,,,,,,,,,,,,,,,,,,,,,,,,,,,,,,,,,,,,,,,,,,,,,,,,,,,,,,,,,,,,,,,,,,,,,,,,,,,,,,,,,,,,,,,,,,,,,,
,,697a6b7b9aabee3f87764438,2026-03-17_07h22.03.079,kallum_motion_pilot_GIST_update_2,2026.1.1,Win32,74.62686567,697a6b7b9aabee3f87764438,69b92ab4aef6dee357cd729a,69b92b54bd44ad5b54366fcd,0.0565,0.0566,0,8,8,55,1,fourthree,,,,,,,,,,,,,,,,,,,,,,,,,,,,,,,,,,,,,,,,,,,,,,,,,,,,,,,,,,,,,,,,,,,,,,,,,,,,,,,,,,,,,,,,,,,,,,,,,,,,,,,,,,,,,,,,,,,,,,,,,,,,,,,,,,,,,,,,,
,,697a6b7b9aabee3f87764438,2026-03-17_07h22.03.079,kallum_motion_pilot_GIST_update_2,2026.1.1,Win32,74.62686567,697a6b7b9aabee3f87764438,69b92ab4aef6dee357cd729a,69b92b54bd44ad5b54366fcd,0.057,0.057,0,9,9,29,1,threefour,,,,,,,,,,,,,,,,,,,,,,,,,,,,,,,,,,,,,,,,,,,,,,,,,,,,,,,,,,,,,,,,,,,,,,,,,,,,,,,,,,,,,,,,,,,,,,,,,,,,,,,,,,,,,,,,,,,,,,,,,,,,,,,,,,,,,,,,,
,,697a6b7b9aabee3f87764438,2026-03-17_07h22.03.079,kallum_motion_pilot_GIST_update_2,2026.1.1,Win32,74.62686567,697a6b7b9aabee3f87764438,69b92ab4aef6dee357cd729a,69b92b54bd44ad5b54366fcd,0.0573,0.0573,0,10,10,106,1,sixfive,,,,,,,,,,,,,,,,,,,,,,,,,,,,,,,,,,,,,,,,,,,,,,,,,,,,,,,,,,,,,,,,,,,,,,,,,,,,,,,,,,,,,,,,,,,,,,,,,,,,,,,,,,,,,,,,,,,,,,,,,,,,,,,,,,,,,,,,,
,,697a6b7b9aabee3f87764438,2026-03-17_07h22.03.079,kallum_motion_pilot_GIST_update_2,2026.1.1,Win32,74.62686567,697a6b7b9aabee3f87764438,69b92ab4aef6dee357cd729a,69b92b54bd44ad5b54366fcd,0.0576,0.0576,0,11,11,153,1,fiveseven,,,,,,,,,,,,,,,,,,,,,,,,,,,,,,,,,,,,,,,,,,,,,,,,,,,,,,,,,,,,,,,,,,,,,,,,,,,,,,,,,,,,,,,,,,,,,,,,,,,,,,,,,,,,,,,,,,,,,,,,,,,,,,,,,,,,,,,,,
,,697a6b7b9aabee3f87764438,2026-03-17_07h22.03.079,kallum_motion_pilot_GIST_update_2,2026.1.1,Win32,74.62686567,697a6b7b9aabee3f87764438,69b92ab4aef6dee357cd729a,69b92b54bd44ad5b54366fcd,0.0579,0.0579,0,12,12,37,1,threefour,,,,,,,,,,,,,,,,,,,,,,,,,,,,,,,,,,,,,,,,,,,,,,,,,,,,,,,,,,,,,,,,,,,,,,,,,,,,,,,,,,,,,,,,,,,,,,,,,,,,,,,,,,,,,,,,,,,,,,,,,,,,,,,,,,,,,,,,,
,,697a6b7b9aabee3f87764438,2026-03-17_07h22.03.079,kallum_motion_pilot_GIST_update_2,2026.1.1,Win32,74.62686567,697a6b7b9aabee3f87764438,69b92ab4aef6dee357cd729a,69b92b54bd44ad5b54366fcd,0.0581,0.0582,0,13,13,99,1,sixeight,,,,,,,,,,,,,,,,,,,,,,,,,,,,,,,,,,,,,,,,,,,,,,,,,,,,,,,,,,,,,,,,,,,,,,,,,,,,,,,,,,,,,,,,,,,,,,,,,,,,,,,,,,,,,,,,,,,,,,,,,,,,,,,,,,,,,,,,,
,,697a6b7b9aabee3f87764438,2026-03-17_07h22.03.079,kallum_motion_pilot_GIST_update_2,2026.1.1,Win32,74.62686567,697a6b7b9aabee3f87764438,69b92ab4aef6dee357cd729a,69b92b54bd44ad5b54366fcd,0.0584,0.0584,0,14,14,97,1,fiveseven,,,,,,,,,,,,,,,,,,,,,,,,,,,,,,,,,,,,,,,,,,,,,,,,,,,,,,,,,,,,,,,,,,,,,,,,,,,,,,,,,,,,,,,,,,,,,,,,,,,,,,,,,,,,,,,,,,,,,,,,,,,,,,,,,,,,,,,,,
,,697a6b7b9aabee3f87764438,2026-03-17_07h22.03.079,kallum_motion_pilot_GIST_update_2,2026.1.1,Win32,74.62686567,697a6b7b9aabee3f87764438,69b92ab4aef6dee357cd729a,69b92b54bd44ad5b54366fcd,0.0588,0.0588,0,15,15,98,1,sixfive,,,,,,,,,,,,,,,,,,,,,,,,,,,,,,,,,,,,,,,,,,,,,,,,,,,,,,,,,,,,,,,,,,,,,,,,,,,,,,,,,,,,,,,,,,,,,,,,,,,,,,,,,,,,,,,,,,,,,,,,,,,,,,,,,,,,,,,,,
,,697a6b7b9aabee3f87764438,2026-03-17_07h22.03.079,kallum_motion_pilot_GIST_update_2,2026.1.1,Win32,74.62686567,697a6b7b9aabee3f87764438,69b92ab4aef6dee357cd729a,69b92b54bd44ad5b54366fcd,0.0591,0.0591,0,16,16,62,1,fourtwo,,,,,,,,,,,,,,,,,,,,,,,,,,,,,,,,,,,,,,,,,,,,,,,,,,,,,,,,,,,,,,,,,,,,,,,,,,,,,,,,,,,,,,,,,,,,,,,,,,,,,,,,,,,,,,,,,,,,,,,,,,,,,,,,,,,,,,,,,
,,697a6b7b9aabee3f87764438,2026-03-17_07h22.03.079,kallum_motion_pilot_GIST_update_2,2026.1.1,Win32,74.62686567,697a6b7b9aabee3f87764438,69b92ab4aef6dee357cd729a,69b92b54bd44ad5b54366fcd,0.0594,0.0594,0,17,17,145,1,fiveseven,,,,,,,,,,,,,,,,,,,,,,,,,,,,,,,,,,,,,,,,,,,,,,,,,,,,,,,,,,,,,,,,,,,,,,,,,,,,,,,,,,,,,,,,,,,,,,,,,,,,,,,,,,,,,,,,,,,,,,,,,,,,,,,,,,,,,,,,,
,,697a6b7b9aabee3f87764438,2026-03-17_07h22.03.079,kallum_motion_pilot_GIST_update_2,2026.1.1,Win32,74.62686567,697a6b7b9aabee3f87764438,69b92ab4aef6dee357cd729a,69b92b54bd44ad5b54366fcd,0.0597,0.0597,0,18,18,60,1,threeone,,,,,,,,,,,,,,,,,,,,,,,,,,,,,,,,,,,,,,,,,,,,,,,,,,,,,,,,,,,,,,,,,,,,,,,,,,,,,,,,,,,,,,,,,,,,,,,,,,,,,,,,,,,,,,,,,,,,,,,,,,,,,,,,,,,,,,,,,
,,697a6b7b9aabee3f87764438,2026-03-17_07h22.03.079,kallum_motion_pilot_GIST_update_2,2026.1.1,Win32,74.62686567,697a6b7b9aabee3f87764438,69b92ab4aef6dee357cd729a,69b92b54bd44ad5b54366fcd,0.06,0.0601,0,19,19,26,1,twoone,,,,,,,,,,,,,,,,,,,,,,,,,,,,,,,,,,,,,,,,,,,,,,,,,,,,,,,,,,,,,,,,,,,,,,,,,,,,,,,,,,,,,,,,,,,,,,,,,,,,,,,,,,,,,,,,,,,,,,,,,,,,,,,,,,,,,,,,,
,,697a6b7b9aabee3f87764438,2026-03-17_07h22.03.079,kallum_motion_pilot_GIST_update_2,2026.1.1,Win32,74.62686567,697a6b7b9aabee3f87764438,69b92ab4aef6dee357cd729a,69b92b54bd44ad5b54366fcd,0.0603,0.0603,0,20,20,138,1,sixfive,,,,,,,,,,,,,,,,,,,,,,,,,,,,,,,,,,,,,,,,,,,,,,,,,,,,,,,,,,,,,,,,,,,,,,,,,,,,,,,,,,,,,,,,,,,,,,,,,,,,,,,,,,,,,,,,,,,,,,,,,,,,,,,,,,,,,,,,,
,,697a6b7b9aabee3f87764438,2026-03-17_07h22.03.079,kallum_motion_pilot_GIST_update_2,2026.1.1,Win32,74.62686567,697a6b7b9aabee3f87764438,69b92ab4aef6dee357cd729a,69b92b54bd44ad5b54366fcd,0.0605,0.0605,0,21,21,84,1,sevenfive,,,,,,,,,,,,,,,,,,,,,,,,,,,,,,,,,,,,,,,,,,,,,,,,,,,,,,,,,,,,,,,,,,,,,,,,,,,,,,,,,,,,,,,,,,,,,,,,,,,,,,,,,,,,,,,,,,,,,,,,,,,,,,,,,,,,,,,,,
,,697a6b7b9aabee3f87764438,2026-03-17_07h22.03.079,kallum_motion_pilot_GIST_update_2,2026.1.1,Win32,74.62686567,697a6b7b9aabee3f87764438,69b92ab4aef6dee357cd729a,69b92b54bd44ad5b54366fcd,0.0607,0.0607,0,22,22,56,1,onetwo,,,,,,,,,,,,,,,,,,,,,,,,,,,,,,,,,,,,,,,,,,,,,,,,,,,,,,,,,,,,,,,,,,,,,,,,,,,,,,,,,,,,,,,,,,,,,,,,,,,,,,,,,,,,,,,,,,,,,,,,,,,,,,,,,,,,,,,,,
,,697a6b7b9aabee3f87764438,2026-03-17_07h22.03.079,kallum_motion_pilot_GIST_update_2,2026.1.1,Win32,74.62686567,697a6b7b9aabee3f87764438,69b92ab4aef6dee357cd729a,69b92b54bd44ad5b54366fcd,0.0609,0.061,0,23,23,109,1,seveneight,,,,,,,,,,,,,,,,,,,,,,,,,,,,,,,,,,,,,,,,,,,,,,,,,,,,,,,,,,,,,,,,,,,,,,,,,,,,,,,,,,,,,,,,,,,,,,,,,,,,,,,,,,,,,,,,,,,,,,,,,,,,,,,,,,,,,,,,,
,,697a6b7b9aabee3f87764438,2026-03-17_07h22.03.079,kallum_motion_pilot_GIST_update_2,2026.1.1,Win32,74.62686567,697a6b7b9aabee3f87764438,69b92ab4aef6dee357cd729a,69b92b54bd44ad5b54366fcd,0.0612,0.0612,0,24,24,136,1,fivesix,,,,,,,,,,,,,,,,,,,,,,,,,,,,,,,,,,,,,,,,,,,,,,,,,,,,,,,,,,,,,,,,,,,,,,,,,,,,,,,,,,,,,,,,,,,,,,,,,,,,,,,,,,,,,,,,,,,,,,,,,,,,,,,,,,,,,,,,,
,,697a6b7b9aabee3f87764438,2026-03-17_07h22.03.079,kallum_motion_pilot_GIST_update_2,2026.1.1,Win32,74.62686567,697a6b7b9aabee3f87764438,69b92ab4aef6dee357cd729a,69b92b54bd44ad5b54366fcd,0.0614,0.0614,0,25,25,143,1,eightseven,,,,,,,,,,,,,,,,,,,,,,,,,,,,,,,,,,,,,,,,,,,,,,,,,,,,,,,,,,,,,,,,,,,,,,,,,,,,,,,,,,,,,,,,,,,,,,,,,,,,,,,,,,,,,,,,,,,,,,,,,,,,,,,,,,,,,,,,,
,,697a6b7b9aabee3f87764438,2026-03-17_07h22.03.079,kallum_motion_pilot_GIST_update_2,2026.1.1,Win32,74.62686567,697a6b7b9aabee3f87764438,69b92ab4aef6dee357cd729a,69b92b54bd44ad5b54366fcd,0.0617,0.0617,0,26,26,46,1,fourtwo,,,,,,,,,,,,,,,,,,,,,,,,,,,,,,,,,,,,,,,,,,,,,,,,,,,,,,,,,,,,,,,,,,,,,,,,,,,,,,,,,,,,,,,,,,,,,,,,,,,,,,,,,,,,,,,,,,,,,,,,,,,,,,,,,,,,,,,,,
,,697a6b7b9aabee3f87764438,2026-03-17_07h22.03.079,kallum_motion_pilot_GIST_update_2,2026.1.1,Win32,74.62686567,697a6b7b9aabee3f87764438,69b92ab4aef6dee357cd729a,69b92b54bd44ad5b54366fcd,0.0619,0.0619,0,27,27,127,1,eightseven,,,,,,,,,,,,,,,,,,,,,,,,,,,,,,,,,,,,,,,,,,,,,,,,,,,,,,,,,,,,,,,,,,,,,,,,,,,,,,,,,,,,,,,,,,,,,,,,,,,,,,,,,,,,,,,,,,,,,,,,,,,,,,,,,,,,,,,,,
,,697a6b7b9aabee3f87764438,2026-03-17_07h22.03.079,kallum_motion_pilot_GIST_update_2,2026.1.1,Win32,74.62686567,697a6b7b9aabee3f87764438,69b92ab4aef6dee357cd729a,69b92b54bd44ad5b54366fcd,0.0622,0.0622,0,28,28,58,1,twoone,,,,,,,,,,,,,,,,,,,,,,,,,,,,,,,,,,,,,,,,,,,,,,,,,,,,,,,,,,,,,,,,,,,,,,,,,,,,,,,,,,,,,,,,,,,,,,,,,,,,,,,,,,,,,,,,,,,,,,,,,,,,,,,,,,,,,,,,,
,,697a6b7b9aabee3f87764438,2026-03-17_07h22.03.079,kallum_motion_pilot_GIST_update_2,2026.1.1,Win32,74.62686567,697a6b7b9aabee3f87764438,69b92ab4aef6dee357cd729a,69b92b54bd44ad5b54366fcd,0.0624,0.0625,0,29,29,140,1,sevenfive,,,,,,,,,,,,,,,,,,,,,,,,,,,,,,,,,,,,,,,,,,,,,,,,,,,,,,,,,,,,,,,,,,,,,,,,,,,,,,,,,,,,,,,,,,,,,,,,,,,,,,,,,,,,,,,,,,,,,,,,,,,,,,,,,,,,,,,,,
,,697a6b7b9aabee3f87764438,2026-03-17_07h22.03.079,kallum_motion_pilot_GIST_update_2,2026.1.1,Win32,74.62686567,697a6b7b9aabee3f87764438,69b92ab4aef6dee357cd729a,69b92b54bd44ad5b54366fcd,0.0627,0.0627,0,30,30,142,1,eightsix,,,,,,,,,,,,,,,,,,,,,,,,,,,,,,,,,,,,,,,,,,,,,,,,,,,,,,,,,,,,,,,,,,,,,,,,,,,,,,,,,,,,,,,,,,,,,,,,,,,,,,,,,,,,,,,,,,,,,,,,,,,,,,,,,,,,,,,,,
,,697a6b7b9aabee3f87764438,2026-03-17_07h22.03.079,kallum_motion_pilot_GIST_update_2,2026.1.1,Win32,74.62686567,697a6b7b9aabee3f87764438,69b92ab4aef6dee357cd729a,69b92b54bd44ad5b54366fcd,0.063,0.063,0,31,31,9,1,onethree,,,,,,,,,,,,,,,,,,,,,,,,,,,,,,,,,,,,,,,,,,,,,,,,,,,,,,,,,,,,,,,,,,,,,,,,,,,,,,,,,,,,,,,,,,,,,,,,,,,,,,,,,,,,,,,,,,,,,,,,,,,,,,,,,,,,,,,,,
,,697a6b7b9aabee3f87764438,2026-03-17_07h22.03.079,kallum_motion_pilot_GIST_update_2,2026.1.1,Win32,74.62686567,697a6b7b9aabee3f87764438,69b92ab4aef6dee357cd729a,69b92b54bd44ad5b54366fcd,0.0632,0.0632,0,32,32,151,1,eightseven,,,,,,,,,,,,,,,,,,,,,,,,,,,,,,,,,,,,,,,,,,,,,,,,,,,,,,,,,,,,,,,,,,,,,,,,,,,,,,,,,,,,,,,,,,,,,,,,,,,,,,,,,,,,,,,,,,,,,,,,,,,,,,,,,,,,,,,,,
,,697a6b7b9aabee3f87764438,2026-03-17_07h22.03.079,kallum_motion_pilot_GIST_update_2,2026.1.1,Win32,74.62686567,697a6b7b9aabee3f87764438,69b92ab4aef6dee357cd729a,69b92b54bd44ad5b54366fcd,0.0633,0.0633,0,33,33,27,1,twofour,,,,,,,,,,,,,,,,,,,,,,,,,,,,,,,,,,,,,,,,,,,,,,,,,,,,,,,,,,,,,,,,,,,,,,,,,,,,,,,,,,,,,,,,,,,,,,,,,,,,,,,,,,,,,,,,,,,,,,,,,,,,,,,,,,,,,,,,,
,,697a6b7b9aabee3f87764438,2026-03-17_07h22.03.079,kallum_motion_pilot_GIST_update_2,2026.1.1,Win32,74.62686567,697a6b7b9aabee3f87764438,69b92ab4aef6dee357cd729a,69b92b54bd44ad5b54366fcd,0.0635,0.0635,0,34,34,104,1,fivesix,,,,,,,,,,,,,,,,,,,,,,,,,,,,,,,,,,,,,,,,,,,,,,,,,,,,,,,,,,,,,,,,,,,,,,,,,,,,,,,,,,,,,,,,,,,,,,,,,,,,,,,,,,,,,,,,,,,,,,,,,,,,,,,,,,,,,,,,,
,,697a6b7b9aabee3f87764438,2026-03-17_07h22.03.079,kallum_motion_pilot_GIST_update_2,2026.1.1,Win32,74.62686567,697a6b7b9aabee3f87764438,69b92ab4aef6dee357cd729a,69b92b54bd44ad5b54366fcd,0.0638,0.0638,0,35,35,120,1,fivesix,,,,,,,,,,,,,,,,,,,,,,,,,,,,,,,,,,,,,,,,,,,,,,,,,,,,,,,,,,,,,,,,,,,,,,,,,,,,,,,,,,,,,,,,,,,,,,,,,,,,,,,,,,,,,,,,,,,,,,,,,,,,,,,,,,,,,,,,,
,,697a6b7b9aabee3f87764438,2026-03-17_07h22.03.079,kallum_motion_pilot_GIST_update_2,2026.1.1,Win32,74.62686567,697a6b7b9aabee3f87764438,69b92ab4aef6dee357cd729a,69b92b54bd44ad5b54366fcd,0.0641,0.0641,0,36,36,65,1,onethree,,,,,,,,,,,,,,,,,,,,,,,,,,,,,,,,,,,,,,,,,,,,,,,,,,,,,,,,,,,,,,,,,,,,,,,,,,,,,,,,,,,,,,,,,,,,,,,,,,,,,,,,,,,,,,,,,,,,,,,,,,,,,,,,,,,,,,,,,
,,697a6b7b9aabee3f87764438,2026-03-17_07h22.03.079,kallum_motion_pilot_GIST_update_2,2026.1.1,Win32,74.62686567,697a6b7b9aabee3f87764438,69b92ab4aef6dee357cd729a,69b92b54bd44ad5b54366fcd,0.0643,0.0643,0,37,37,126,1,eightsix,,,,,,,,,,,,,,,,,,,,,,,,,,,,,,,,,,,,,,,,,,,,,,,,,,,,,,,,,,,,,,,,,,,,,,,,,,,,,,,,,,,,,,,,,,,,,,,,,,,,,,,,,,,,,,,,,,,,,,,,,,,,,,,,,,,,,,,,,
,,697a6b7b9aabee3f87764438,2026-03-17_07h22.03.079,kallum_motion_pilot_GIST_update_2,2026.1.1,Win32,74.62686567,697a6b7b9aabee3f87764438,69b92ab4aef6dee357cd729a,69b92b54bd44ad5b54366fcd,0.0645,0.0646,0,38,38,42,1,twoone,,,,,,,,,,,,,,,,,,,,,,,,,,,,,,,,,,,,,,,,,,,,,,,,,,,,,,,,,,,,,,,,,,,,,,,,,,,,,,,,,,,,,,,,,,,,,,,,,,,,,,,,,,,,,,,,,,,,,,,,,,,,,,,,,,,,,,,,,
,,697a6b7b9aabee3f87764438,2026-03-17_07h22.03.079,kallum_motion_pilot_GIST_update_2,2026.1.1,Win32,74.62686567,697a6b7b9aabee3f87764438,69b92ab4aef6dee357cd729a,69b92b54bd44ad5b54366fcd,0.0647,0.0647,0,39,39,5,1,threefour,,,,,,,,,,,,,,,,,,,,,,,,,,,,,,,,,,,,,,,,,,,,,,,,,,,,,,,,,,,,,,,,,,,,,,,,,,,,,,,,,,,,,,,,,,,,,,,,,,,,,,,,,,,,,,,,,,,,,,,,,,,,,,,,,,,,,,,,,
,,697a6b7b9aabee3f87764438,2026-03-17_07h22.03.079,kallum_motion_pilot_GIST_update_2,2026.1.1,Win32,74.62686567,697a6b7b9aabee3f87764438,69b92ab4aef6dee357cd729a,69b92b54bd44ad5b54366fcd,0.065,0.065,0,40,40,130,1,sixfive,,,,,,,,,,,,,,,,,,,,,,,,,,,,,,,,,,,,,,,,,,,,,,,,,,,,,,,,,,,,,,,,,,,,,,,,,,,,,,,,,,,,,,,,,,,,,,,,,,,,,,,,,,,,,,,,,,,,,,,,,,,,,,,,,,,,,,,,,
,,697a6b7b9aabee3f87764438,2026-03-17_07h22.03.079,kallum_motion_pilot_GIST_update_2,2026.1.1,Win32,74.62686567,697a6b7b9aabee3f87764438,69b92ab4aef6dee357cd729a,69b92b54bd44ad5b54366fcd,0.0652,0.0653,0,41,41,118,1,eightsix,,,,,,,,,,,,,,,,,,,,,,,,,,,,,,,,,,,,,,,,,,,,,,,,,,,,,,,,,,,,,,,,,,,,,,,,,,,,,,,,,,,,,,,,,,,,,,,,,,,,,,,,,,,,,,,,,,,,,,,,,,,,,,,,,,,,,,,,,
,,697a6b7b9aabee3f87764438,2026-03-17_07h22.03.079,kallum_motion_pilot_GIST_update_2,2026.1.1,Win32,74.62686567,697a6b7b9aabee3f87764438,69b92ab4aef6dee357cd729a,69b92b54bd44ad5b54366fcd,0.0655,0.0656,0,42,42,85,1,seveneight,,,,,,,,,,,,,,,,,,,,,,,,,,,,,,,,,,,,,,,,,,,,,,,,,,,,,,,,,,,,,,,,,,,,,,,,,,,,,,,,,,,,,,,,,,,,,,,,,,,,,,,,,,,,,,,,,,,,,,,,,,,,,,,,,,,,,,,,,
,,697a6b7b9aabee3f87764438,2026-03-17_07h22.03.079,kallum_motion_pilot_GIST_update_2,2026.1.1,Win32,74.62686567,697a6b7b9aabee3f87764438,69b92ab4aef6dee357cd729a,69b92b54bd44ad5b54366fcd,0.0658,0.0658,0,43,43,124,1,sevenfive,,,,,,,,,,,,,,,,,,,,,,,,,,,,,,,,,,,,,,,,,,,,,,,,,,,,,,,,,,,,,,,,,,,,,,,,,,,,,,,,,,,,,,,,,,,,,,,,,,,,,,,,,,,,,,,,,,,,,,,,,,,,,,,,,,,,,,,,,
,,697a6b7b9aabee3f87764438,2026-03-17_07h22.03.079,kallum_motion_pilot_GIST_update_2,2026.1.1,Win32,74.62686567,697a6b7b9aabee3f87764438,69b92ab4aef6dee357cd729a,69b92b54bd44ad5b54366fcd,0.066,0.066,0,44,44,74,1,twoone,,,,,,,,,,,,,,,,,,,,,,,,,,,,,,,,,,,,,,,,,,,,,,,,,,,,,,,,,,,,,,,,,,,,,,,,,,,,,,,,,,,,,,,,,,,,,,,,,,,,,,,,,,,,,,,,,,,,,,,,,,,,,,,,,,,,,,,,,
,,697a6b7b9aabee3f87764438,2026-03-17_07h22.03.079,kallum_motion_pilot_GIST_update_2,2026.1.1,Win32,74.62686567,697a6b7b9aabee3f87764438,69b92ab4aef6dee357cd729a,69b92b54bd44ad5b54366fcd,0.0662,0.0662,0,45,45,150,1,eightsix,,,,,,,,,,,,,,,,,,,,,,,,,,,,,,,,,,,,,,,,,,,,,,,,,,,,,,,,,,,,,,,,,,,,,,,,,,,,,,,,,,,,,,,,,,,,,,,,,,,,,,,,,,,,,,,,,,,,,,,,,,,,,,,,,,,,,,,,,
,,697a6b7b9aabee3f87764438,2026-03-17_07h22.03.079,kallum_motion_pilot_GIST_update_2,2026.1.1,Win32,74.62686567,697a6b7b9aabee3f87764438,69b92ab4aef6dee357cd729a,69b92b54bd44ad5b54366fcd,0.0664,0.0664,0,46,46,134,1,eightsix,,,,,,,,,,,,,,,,,,,,,,,,,,,,,,,,,,,,,,,,,,,,,,,,,,,,,,,,,,,,,,,,,,,,,,,,,,,,,,,,,,,,,,,,,,,,,,,,,,,,,,,,,,,,,,,,,,,,,,,,,,,,,,,,,,,,,,,,,
,,697a6b7b9aabee3f87764438,2026-03-17_07h22.03.079,kallum_motion_pilot_GIST_update_2,2026.1.1,Win32,74.62686567,697a6b7b9aabee3f87764438,69b92ab4aef6dee357cd729a,69b92b54bd44ad5b54366fcd,0.0666,0.0666,0,47,47,22,1,fourtwo,,,,,,,,,,,,,,,,,,,,,,,,,,,,,,,,,,,,,,,,,,,,,,,,,,,,,,,,,,,,,,,,,,,,,,,,,,,,,,,,,,,,,,,,,,,,,,,,,,,,,,,,,,,,,,,,,,,,,,,,,,,,,,,,,,,,,,,,,
,,697a6b7b9aabee3f87764438,2026-03-17_07h22.03.079,kallum_motion_pilot_GIST_update_2,2026.1.1,Win32,74.62686567,697a6b7b9aabee3f87764438,69b92ab4aef6dee357cd729a,69b92b54bd44ad5b54366fcd,0.0669,0.0669,0,48,48,50,1,twoone,,,,,,,,,,,,,,,,,,,,,,,,,,,,,,,,,,,,,,,,,,,,,,,,,,,,,,,,,,,,,,,,,,,,,,,,,,,,,,,,,,,,,,,,,,,,,,,,,,,,,,,,,,,,,,,,,,,,,,,,,,,,,,,,,,,,,,,,,
,,697a6b7b9aabee3f87764438,2026-03-17_07h22.03.079,kallum_motion_pilot_GIST_update_2,2026.1.1,Win32,74.62686567,697a6b7b9aabee3f87764438,69b92ab4aef6dee357cd729a,69b92b54bd44ad5b54366fcd,0.0671,0.0671,0,49,49,41,1,onethree,,,,,,,,,,,,,,,,,,,,,,,,,,,,,,,,,,,,,,,,,,,,,,,,,,,,,,,,,,,,,,,,,,,,,,,,,,,,,,,,,,,,,,,,,,,,,,,,,,,,,,,,,,,,,,,,,,,,,,,,,,,,,,,,,,,,,,,,,
,,697a6b7b9aabee3f87764438,2026-03-17_07h22.03.079,kallum_motion_pilot_GIST_update_2,2026.1.1,Win32,74.62686567,697a6b7b9aabee3f87764438,69b92ab4aef6dee357cd729a,69b92b54bd44ad5b54366fcd,0.0673,0.0673,0,50,50,72,1,onetwo,,,,,,,,,,,,,,,,,,,,,,,,,,,,,,,,,,,,,,,,,,,,,,,,,,,,,,,,,,,,,,,,,,,,,,,,,,,,,,,,,,,,,,,,,,,,,,,,,,,,,,,,,,,,,,,,,,,,,,,,,,,,,,,,,,,,,,,,,
,,697a6b7b9aabee3f87764438,2026-03-17_07h22.03.079,kallum_motion_pilot_GIST_update_2,2026.1.1,Win32,74.62686567,697a6b7b9aabee3f87764438,69b92ab4aef6dee357cd729a,69b92b54bd44ad5b54366fcd,0.0676,0.0676,0,51,51,53,1,threefour,,,,,,,,,,,,,,,,,,,,,,,,,,,,,,,,,,,,,,,,,,,,,,,,,,,,,,,,,,,,,,,,,,,,,,,,,,,,,,,,,,,,,,,,,,,,,,,,,,,,,,,,,,,,,,,,,,,,,,,,,,,,,,,,,,,,,,,,,
,,697a6b7b9aabee3f87764438,2026-03-17_07h22.03.079,kallum_motion_pilot_GIST_update_2,2026.1.1,Win32,74.62686567,697a6b7b9aabee3f87764438,69b92ab4aef6dee357cd729a,69b92b54bd44ad5b54366fcd,0.0679,0.0679,0,52,52,129,1,fiveseven,,,,,,,,,,,,,,,,,,,,,,,,,,,,,,,,,,,,,,,,,,,,,,,,,,,,,,,,,,,,,,,,,,,,,,,,,,,,,,,,,,,,,,,,,,,,,,,,,,,,,,,,,,,,,,,,,,,,,,,,,,,,,,,,,,,,,,,,,
,,697a6b7b9aabee3f87764438,2026-03-17_07h22.03.079,kallum_motion_pilot_GIST_update_2,2026.1.1,Win32,74.62686567,697a6b7b9aabee3f87764438,69b92ab4aef6dee357cd729a,69b92b54bd44ad5b54366fcd,0.0687,0.0687,0,53,53,2,1,twoone,,,,,,,,,,,,,,,,,,,,,,,,,,,,,,,,,,,,,,,,,,,,,,,,,,,,,,,,,,,,,,,,,,,,,,,,,,,,,,,,,,,,,,,,,,,,,,,,,,,,,,,,,,,,,,,,,,,,,,,,,,,,,,,,,,,,,,,,,
,,697a6b7b9aabee3f87764438,2026-03-17_07h22.03.079,kallum_motion_pilot_GIST_update_2,2026.1.1,Win32,74.62686567,697a6b7b9aabee3f87764438,69b92ab4aef6dee357cd729a,69b92b54bd44ad5b54366fcd,0.0694,0.0694,0,54,54,100,1,sevenfive,,,,,,,,,,,,,,,,,,,,,,,,,,,,,,,,,,,,,,,,,,,,,,,,,,,,,,,,,,,,,,,,,,,,,,,,,,,,,,,,,,,,,,,,,,,,,,,,,,,,,,,,,,,,,,,,,,,,,,,,,,,,,,,,,,,,,,,,,
,,697a6b7b9aabee3f87764438,2026-03-17_07h22.03.079,kallum_motion_pilot_GIST_update_2,2026.1.1,Win32,74.62686567,697a6b7b9aabee3f87764438,69b92ab4aef6dee357cd729a,69b92b54bd44ad5b54366fcd,0.07,0.07,0,55,55,48,1,onetwo,,,,,,,,,,,,,,,,,,,,,,,,,,,,,,,,,,,,,,,,,,,,,,,,,,,,,,,,,,,,,,,,,,,,,,,,,,,,,,,,,,,,,,,,,,,,,,,,,,,,,,,,,,,,,,,,,,,,,,,,,,,,,,,,,,,,,,,,,
,,697a6b7b9aabee3f87764438,2026-03-17_07h22.03.079,kallum_motion_pilot_GIST_update_2,2026.1.1,Win32,74.62686567,697a6b7b9aabee3f87764438,69b92ab4aef6dee357cd729a,69b92b54bd44ad5b54366fcd,0.0703,0.0703,0,56,56,30,1,fourtwo,,,,,,,,,,,,,,,,,,,,,,,,,,,,,,,,,,,,,,,,,,,,,,,,,,,,,,,,,,,,,,,,,,,,,,,,,,,,,,,,,,,,,,,,,,,,,,,,,,,,,,,,,,,,,,,,,,,,,,,,,,,,,,,,,,,,,,,,,
,,697a6b7b9aabee3f87764438,2026-03-17_07h22.03.079,kallum_motion_pilot_GIST_update_2,2026.1.1,Win32,74.62686567,697a6b7b9aabee3f87764438,69b92ab4aef6dee357cd729a,69b92b54bd44ad5b54366fcd,0.0706,0.0707,0,57,57,115,1,sixeight,,,,,,,,,,,,,,,,,,,,,,,,,,,,,,,,,,,,,,,,,,,,,,,,,,,,,,,,,,,,,,,,,,,,,,,,,,,,,,,,,,,,,,,,,,,,,,,,,,,,,,,,,,,,,,,,,,,,,,,,,,,,,,,,,,,,,,,,,
,,697a6b7b9aabee3f87764438,2026-03-17_07h22.03.079,kallum_motion_pilot_GIST_update_2,2026.1.1,Win32,74.62686567,697a6b7b9aabee3f87764438,69b92ab4aef6dee357cd729a,69b92b54bd44ad5b54366fcd,0.0709,0.071,0,58,58,19,1,twofour,,,,,,,,,,,,,,,,,,,,,,,,,,,,,,,,,,,,,,,,,,,,,,,,,,,,,,,,,,,,,,,,,,,,,,,,,,,,,,,,,,,,,,,,,,,,,,,,,,,,,,,,,,,,,,,,,,,,,,,,,,,,,,,,,,,,,,,,,
,,697a6b7b9aabee3f87764438,2026-03-17_07h22.03.079,kallum_motion_pilot_GIST_update_2,2026.1.1,Win32,74.62686567,697a6b7b9aabee3f87764438,69b92ab4aef6dee357cd729a,69b92b54bd44ad5b54366fcd,0.0714,0.0714,0,59,59,131,1,sixeight,,,,,,,,,,,,,,,,,,,,,,,,,,,,,,,,,,,,,,,,,,,,,,,,,,,,,,,,,,,,,,,,,,,,,,,,,,,,,,,,,,,,,,,,,,,,,,,,,,,,,,,,,,,,,,,,,,,,,,,,,,,,,,,,,,,,,,,,,
,,697a6b7b9aabee3f87764438,2026-03-17_07h22.03.079,kallum_motion_pilot_GIST_update_2,2026.1.1,Win32,74.62686567,697a6b7b9aabee3f87764438,69b92ab4aef6dee357cd729a,69b92b54bd44ad5b54366fcd,0.0717,0.0717,0,60,60,144,1,fivesix,,,,,,,,,,,,,,,,,,,,,,,,,,,,,,,,,,,,,,,,,,,,,,,,,,,,,,,,,,,,,,,,,,,,,,,,,,,,,,,,,,,,,,,,,,,,,,,,,,,,,,,,,,,,,,,,,,,,,,,,,,,,,,,,,,,,,,,,,
,,697a6b7b9aabee3f87764438,2026-03-17_07h22.03.079,kallum_motion_pilot_GIST_update_2,2026.1.1,Win32,74.62686567,697a6b7b9aabee3f87764438,69b92ab4aef6dee357cd729a,69b92b54bd44ad5b54366fcd,0.0719,0.072,0,61,61,88,1,fivesix,,,,,,,,,,,,,,,,,,,,,,,,,,,,,,,,,,,,,,,,,,,,,,,,,,,,,,,,,,,,,,,,,,,,,,,,,,,,,,,,,,,,,,,,,,,,,,,,,,,,,,,,,,,,,,,,,,,,,,,,,,,,,,,,,,,,,,,,,
,,697a6b7b9aabee3f87764438,2026-03-17_07h22.03.079,kallum_motion_pilot_GIST_update_2,2026.1.1,Win32,74.62686567,697a6b7b9aabee3f87764438,69b92ab4aef6dee357cd729a,69b92b54bd44ad5b54366fcd,0.0723,0.0724,0,62,62,154,1,sixfive,,,,,,,,,,,,,,,,,,,,,,,,,,,,,,,,,,,,,,,,,,,,,,,,,,,,,,,,,,,,,,,,,,,,,,,,,,,,,,,,,,,,,,,,,,,,,,,,,,,,,,,,,,,,,,,,,,,,,,,,,,,,,,,,,,,,,,,,,
,,697a6b7b9aabee3f87764438,2026-03-17_07h22.03.079,kallum_motion_pilot_GIST_update_2,2026.1.1,Win32,74.62686567,697a6b7b9aabee3f87764438,69b92ab4aef6dee357cd729a,69b92b54bd44ad5b54366fcd,0.0727,0.0727,0,63,63,31,1,fourthree,,,,,,,,,,,,,,,,,,,,,,,,,,,,,,,,,,,,,,,,,,,,,,,,,,,,,,,,,,,,,,,,,,,,,,,,,,,,,,,,,,,,,,,,,,,,,,,,,,,,,,,,,,,,,,,,,,,,,,,,,,,,,,,,,,,,,,,,,
,,697a6b7b9aabee3f87764438,2026-03-17_07h22.03.079,kallum_motion_pilot_GIST_update_2,2026.1.1,Win32,74.62686567,697a6b7b9aabee3f87764438,69b92ab4aef6dee357cd729a,69b92b54bd44ad5b54366fcd,0.0731,0.0731,0,64,64,77,1,threefour,,,,,,,,,,,,,,,,,,,,,,,,,,,,,,,,,,,,,,,,,,,,,,,,,,,,,,,,,,,,,,,,,,,,,,,,,,,,,,,,,,,,,,,,,,,,,,,,,,,,,,,,,,,,,,,,,,,,,,,,,,,,,,,,,,,,,,,,,
,,697a6b7b9aabee3f87764438,2026-03-17_07h22.03.079,kallum_motion_pilot_GIST_update_2,2026.1.1,Win32,74.62686567,697a6b7b9aabee3f87764438,69b92ab4aef6dee357cd729a,69b92b54bd44ad5b54366fcd,0.0734,0.0734,0,65,65,15,1,fourthree,,,,,,,,,,,,,,,,,,,,,,,,,,,,,,,,,,,,,,,,,,,,,,,,,,,,,,,,,,,,,,,,,,,,,,,,,,,,,,,,,,,,,,,,,,,,,,,,,,,,,,,,,,,,,,,,,,,,,,,,,,,,,,,,,,,,,,,,,
,,697a6b7b9aabee3f87764438,2026-03-17_07h22.03.079,kallum_motion_pilot_GIST_update_2,2026.1.1,Win32,74.62686567,697a6b7b9aabee3f87764438,69b92ab4aef6dee357cd729a,69b92b54bd44ad5b54366fcd,0.0738,0.0738,0,66,66,117,1,seveneight,,,,,,,,,,,,,,,,,,,,,,,,,,,,,,,,,,,,,,,,,,,,,,,,,,,,,,,,,,,,,,,,,,,,,,,,,,,,,,,,,,,,,,,,,,,,,,,,,,,,,,,,,,,,,,,,,,,,,,,,,,,,,,,,,,,,,,,,,
,,697a6b7b9aabee3f87764438,2026-03-17_07h22.03.079,kallum_motion_pilot_GIST_update_2,2026.1.1,Win32,74.62686567,697a6b7b9aabee3f87764438,69b92ab4aef6dee357cd729a,69b92b54bd44ad5b54366fcd,0.0741,0.0742,0,67,67,32,1,onetwo,,,,,,,,,,,,,,,,,,,,,,,,,,,,,,,,,,,,,,,,,,,,,,,,,,,,,,,,,,,,,,,,,,,,,,,,,,,,,,,,,,,,,,,,,,,,,,,,,,,,,,,,,,,,,,,,,,,,,,,,,,,,,,,,,,,,,,,,,
,,697a6b7b9aabee3f87764438,2026-03-17_07h22.03.079,kallum_motion_pilot_GIST_update_2,2026.1.1,Win32,74.62686567,697a6b7b9aabee3f87764438,69b92ab4aef6dee357cd729a,69b92b54bd44ad5b54366fcd,0.0745,0.0745,0,68,68,156,1,sevenfive,,,,,,,,,,,,,,,,,,,,,,,,,,,,,,,,,,,,,,,,,,,,,,,,,,,,,,,,,,,,,,,,,,,,,,,,,,,,,,,,,,,,,,,,,,,,,,,,,,,,,,,,,,,,,,,,,,,,,,,,,,,,,,,,,,,,,,,,,
,,697a6b7b9aabee3f87764438,2026-03-17_07h22.03.079,kallum_motion_pilot_GIST_update_2,2026.1.1,Win32,74.62686567,697a6b7b9aabee3f87764438,69b92ab4aef6dee357cd729a,69b92b54bd44ad5b54366fcd,0.0747,0.0747,0,69,69,36,1,threeone,,,,,,,,,,,,,,,,,,,,,,,,,,,,,,,,,,,,,,,,,,,,,,,,,,,,,,,,,,,,,,,,,,,,,,,,,,,,,,,,,,,,,,,,,,,,,,,,,,,,,,,,,,,,,,,,,,,,,,,,,,,,,,,,,,,,,,,,,
,,697a6b7b9aabee3f87764438,2026-03-17_07h22.03.079,kallum_motion_pilot_GIST_update_2,2026.1.1,Win32,74.62686567,697a6b7b9aabee3f87764438,69b92ab4aef6dee357cd729a,69b92b54bd44ad5b54366fcd,0.075,0.075,0,70,70,158,1,eightsix,,,,,,,,,,,,,,,,,,,,,,,,,,,,,,,,,,,,,,,,,,,,,,,,,,,,,,,,,,,,,,,,,,,,,,,,,,,,,,,,,,,,,,,,,,,,,,,,,,,,,,,,,,,,,,,,,,,,,,,,,,,,,,,,,,,,,,,,,
,,697a6b7b9aabee3f87764438,2026-03-17_07h22.03.079,kallum_motion_pilot_GIST_update_2,2026.1.1,Win32,74.62686567,697a6b7b9aabee3f87764438,69b92ab4aef6dee357cd729a,69b92b54bd44ad5b54366fcd,0.0753,0.0753,0,71,71,121,1,fiveseven,,,,,,,,,,,,,,,,,,,,,,,,,,,,,,,,,,,,,,,,,,,,,,,,,,,,,,,,,,,,,,,,,,,,,,,,,,,,,,,,,,,,,,,,,,,,,,,,,,,,,,,,,,,,,,,,,,,,,,,,,,,,,,,,,,,,,,,,,
,,697a6b7b9aabee3f87764438,2026-03-17_07h22.03.079,kallum_motion_pilot_GIST_update_2,2026.1.1,Win32,74.62686567,697a6b7b9aabee3f87764438,69b92ab4aef6dee357cd729a,69b92b54bd44ad5b54366fcd,0.0755,0.0756,0,72,72,108,1,sevenfive,,,,,,,,,,,,,,,,,,,,,,,,,,,,,,,,,,,,,,,,,,,,,,,,,,,,,,,,,,,,,,,,,,,,,,,,,,,,,,,,,,,,,,,,,,,,,,,,,,,,,,,,,,,,,,,,,,,,,,,,,,,,,,,,,,,,,,,,,
,,697a6b7b9aabee3f87764438,2026-03-17_07h22.03.079,kallum_motion_pilot_GIST_update_2,2026.1.1,Win32,74.62686567,697a6b7b9aabee3f87764438,69b92ab4aef6dee357cd729a,69b92b54bd44ad5b54366fcd,0.0759,0.0759,0,73,73,89,1,fiveseven,,,,,,,,,,,,,,,,,,,,,,,,,,,,,,,,,,,,,,,,,,,,,,,,,,,,,,,,,,,,,,,,,,,,,,,,,,,,,,,,,,,,,,,,,,,,,,,,,,,,,,,,,,,,,,,,,,,,,,,,,,,,,,,,,,,,,,,,,
,,697a6b7b9aabee3f87764438,2026-03-17_07h22.03.079,kallum_motion_pilot_GIST_update_2,2026.1.1,Win32,74.62686567,697a6b7b9aabee3f87764438,69b92ab4aef6dee357cd729a,69b92b54bd44ad5b54366fcd,0.0761,0.0761,0,74,74,39,1,fourthree,,,,,,,,,,,,,,,,,,,,,,,,,,,,,,,,,,,,,,,,,,,,,,,,,,,,,,,,,,,,,,,,,,,,,,,,,,,,,,,,,,,,,,,,,,,,,,,,,,,,,,,,,,,,,,,,,,,,,,,,,,,,,,,,,,,,,,,,,
,,697a6b7b9aabee3f87764438,2026-03-17_07h22.03.079,kallum_motion_pilot_GIST_update_2,2026.1.1,Win32,74.62686567,697a6b7b9aabee3f87764438,69b92ab4aef6dee357cd729a,69b92b54bd44ad5b54366fcd,0.0764,0.0764,0,75,75,112,1,fivesix,,,,,,,,,,,,,,,,,,,,,,,,,,,,,,,,,,,,,,,,,,,,,,,,,,,,,,,,,,,,,,,,,,,,,,,,,,,,,,,,,,,,,,,,,,,,,,,,,,,,,,,,,,,,,,,,,,,,,,,,,,,,,,,,,,,,,,,,,
,,697a6b7b9aabee3f87764438,2026-03-17_07h22.03.079,kallum_motion_pilot_GIST_update_2,2026.1.1,Win32,74.62686567,697a6b7b9aabee3f87764438,69b92ab4aef6dee357cd729a,69b92b54bd44ad5b54366fcd,0.0766,0.0766,0,76,76,11,1,twofour,,,,,,,,,,,,,,,,,,,,,,,,,,,,,,,,,,,,,,,,,,,,,,,,,,,,,,,,,,,,,,,,,,,,,,,,,,,,,,,,,,,,,,,,,,,,,,,,,,,,,,,,,,,,,,,,,,,,,,,,,,,,,,,,,,,,,,,,,
,,697a6b7b9aabee3f87764438,2026-03-17_07h22.03.079,kallum_motion_pilot_GIST_update_2,2026.1.1,Win32,74.62686567,697a6b7b9aabee3f87764438,69b92ab4aef6dee357cd729a,69b92b54bd44ad5b54366fcd,0.0768,0.0768,0,77,77,34,1,twoone,,,,,,,,,,,,,,,,,,,,,,,,,,,,,,,,,,,,,,,,,,,,,,,,,,,,,,,,,,,,,,,,,,,,,,,,,,,,,,,,,,,,,,,,,,,,,,,,,,,,,,,,,,,,,,,,,,,,,,,,,,,,,,,,,,,,,,,,,
,,697a6b7b9aabee3f87764438,2026-03-17_07h22.03.079,kallum_motion_pilot_GIST_update_2,2026.1.1,Win32,74.62686567,697a6b7b9aabee3f87764438,69b92ab4aef6dee357cd729a,69b92b54bd44ad5b54366fcd,0.077,0.077,0,78,78,103,1,eightseven,,,,,,,,,,,,,,,,,,,,,,,,,,,,,,,,,,,,,,,,,,,,,,,,,,,,,,,,,,,,,,,,,,,,,,,,,,,,,,,,,,,,,,,,,,,,,,,,,,,,,,,,,,,,,,,,,,,,,,,,,,,,,,,,,,,,,,,,,
,,697a6b7b9aabee3f87764438,2026-03-17_07h22.03.079,kallum_motion_pilot_GIST_update_2,2026.1.1,Win32,74.62686567,697a6b7b9aabee3f87764438,69b92ab4aef6dee357cd729a,69b92b54bd44ad5b54366fcd,0.0772,0.0772,0,79,79,35,1,twofour,,,,,,,,,,,,,,,,,,,,,,,,,,,,,,,,,,,,,,,,,,,,,,,,,,,,,,,,,,,,,,,,,,,,,,,,,,,,,,,,,,,,,,,,,,,,,,,,,,,,,,,,,,,,,,,,,,,,,,,,,,,,,,,,,,,,,,,,,
,,697a6b7b9aabee3f87764438,2026-03-17_07h22.03.079,kallum_motion_pilot_GIST_update_2,2026.1.1,Win32,74.62686567,697a6b7b9aabee3f87764438,69b92ab4aef6dee357cd729a,69b92b54bd44ad5b54366fcd,0.0775,0.0775,0,80,80,102,1,eightsix,,,,,,,,,,,,,,,,,,,,,,,,,,,,,,,,,,,,,,,,,,,,,,,,,,,,,,,,,,,,,,,,,,,,,,,,,,,,,,,,,,,,,,,,,,,,,,,,,,,,,,,,,,,,,,,,,,,,,,,,,,,,,,,,,,,,,,,,,
,,697a6b7b9aabee3f87764438,2026-03-17_07h22.03.079,kallum_motion_pilot_GIST_update_2,2026.1.1,Win32,74.62686567,697a6b7b9aabee3f87764438,69b92ab4aef6dee357cd729a,69b92b54bd44ad5b54366fcd,0.0776,0.0777,0,81,81,83,1,sixeight,,,,,,,,,,,,,,,,,,,,,,,,,,,,,,,,,,,,,,,,,,,,,,,,,,,,,,,,,,,,,,,,,,,,,,,,,,,,,,,,,,,,,,,,,,,,,,,,,,,,,,,,,,,,,,,,,,,,,,,,,,,,,,,,,,,,,,,,,
,,697a6b7b9aabee3f87764438,2026-03-17_07h22.03.079,kallum_motion_pilot_GIST_update_2,2026.1.1,Win32,74.62686567,697a6b7b9aabee3f87764438,69b92ab4aef6dee357cd729a,69b92b54bd44ad5b54366fcd,0.078,0.078,0,82,82,45,1,threefour,,,,,,,,,,,,,,,,,,,,,,,,,,,,,,,,,,,,,,,,,,,,,,,,,,,,,,,,,,,,,,,,,,,,,,,,,,,,,,,,,,,,,,,,,,,,,,,,,,,,,,,,,,,,,,,,,,,,,,,,,,,,,,,,,,,,,,,,,
,,697a6b7b9aabee3f87764438,2026-03-17_07h22.03.079,kallum_motion_pilot_GIST_update_2,2026.1.1,Win32,74.62686567,697a6b7b9aabee3f87764438,69b92ab4aef6dee357cd729a,69b92b54bd44ad5b54366fcd,0.0783,0.0783,0,83,83,75,1,twofour,,,,,,,,,,,,,,,,,,,,,,,,,,,,,,,,,,,,,,,,,,,,,,,,,,,,,,,,,,,,,,,,,,,,,,,,,,,,,,,,,,,,,,,,,,,,,,,,,,,,,,,,,,,,,,,,,,,,,,,,,,,,,,,,,,,,,,,,,
,,697a6b7b9aabee3f87764438,2026-03-17_07h22.03.079,kallum_motion_pilot_GIST_update_2,2026.1.1,Win32,74.62686567,697a6b7b9aabee3f87764438,69b92ab4aef6dee357cd729a,69b92b54bd44ad5b54366fcd,0.0785,0.0785,0,84,84,49,1,onethree,,,,,,,,,,,,,,,,,,,,,,,,,,,,,,,,,,,,,,,,,,,,,,,,,,,,,,,,,,,,,,,,,,,,,,,,,,,,,,,,,,,,,,,,,,,,,,,,,,,,,,,,,,,,,,,,,,,,,,,,,,,,,,,,,,,,,,,,,
,,697a6b7b9aabee3f87764438,2026-03-17_07h22.03.079,kallum_motion_pilot_GIST_update_2,2026.1.1,Win32,74.62686567,697a6b7b9aabee3f87764438,69b92ab4aef6dee357cd729a,69b92b54bd44ad5b54366fcd,0.0787,0.0787,0,85,85,24,1,onetwo,,,,,,,,,,,,,,,,,,,,,,,,,,,,,,,,,,,,,,,,,,,,,,,,,,,,,,,,,,,,,,,,,,,,,,,,,,,,,,,,,,,,,,,,,,,,,,,,,,,,,,,,,,,,,,,,,,,,,,,,,,,,,,,,,,,,,,,,,
,,697a6b7b9aabee3f87764438,2026-03-17_07h22.03.079,kallum_motion_pilot_GIST_update_2,2026.1.1,Win32,74.62686567,697a6b7b9aabee3f87764438,69b92ab4aef6dee357cd729a,69b92b54bd44ad5b54366fcd,0.0789,0.079,0,86,86,4,1,threeone,,,,,,,,,,,,,,,,,,,,,,,,,,,,,,,,,,,,,,,,,,,,,,,,,,,,,,,,,,,,,,,,,,,,,,,,,,,,,,,,,,,,,,,,,,,,,,,,,,,,,,,,,,,,,,,,,,,,,,,,,,,,,,,,,,,,,,,,,
,,697a6b7b9aabee3f87764438,2026-03-17_07h22.03.079,kallum_motion_pilot_GIST_update_2,2026.1.1,Win32,74.62686567,697a6b7b9aabee3f87764438,69b92ab4aef6dee357cd729a,69b92b54bd44ad5b54366fcd,0.0793,0.0793,0,87,87,113,1,fiveseven,,,,,,,,,,,,,,,,,,,,,,,,,,,,,,,,,,,,,,,,,,,,,,,,,,,,,,,,,,,,,,,,,,,,,,,,,,,,,,,,,,,,,,,,,,,,,,,,,,,,,,,,,,,,,,,,,,,,,,,,,,,,,,,,,,,,,,,,,
,,697a6b7b9aabee3f87764438,2026-03-17_07h22.03.079,kallum_motion_pilot_GIST_update_2,2026.1.1,Win32,74.62686567,697a6b7b9aabee3f87764438,69b92ab4aef6dee357cd729a,69b92b54bd44ad5b54366fcd,0.0795,0.0795,0,88,88,8,1,onetwo,,,,,,,,,,,,,,,,,,,,,,,,,,,,,,,,,,,,,,,,,,,,,,,,,,,,,,,,,,,,,,,,,,,,,,,,,,,,,,,,,,,,,,,,,,,,,,,,,,,,,,,,,,,,,,,,,,,,,,,,,,,,,,,,,,,,,,,,,
,,697a6b7b9aabee3f87764438,2026-03-17_07h22.03.079,kallum_motion_pilot_GIST_update_2,2026.1.1,Win32,74.62686567,697a6b7b9aabee3f87764438,69b92ab4aef6dee357cd729a,69b92b54bd44ad5b54366fcd,0.0797,0.0798,0,89,89,87,1,eightseven,,,,,,,,,,,,,,,,,,,,,,,,,,,,,,,,,,,,,,,,,,,,,,,,,,,,,,,,,,,,,,,,,,,,,,,,,,,,,,,,,,,,,,,,,,,,,,,,,,,,,,,,,,,,,,,,,,,,,,,,,,,,,,,,,,,,,,,,,
,,697a6b7b9aabee3f87764438,2026-03-17_07h22.03.079,kallum_motion_pilot_GIST_update_2,2026.1.1,Win32,74.62686567,697a6b7b9aabee3f87764438,69b92ab4aef6dee357cd729a,69b92b54bd44ad5b54366fcd,0.0801,0.0801,0,90,90,44,1,threeone,,,,,,,,,,,,,,,,,,,,,,,,,,,,,,,,,,,,,,,,,,,,,,,,,,,,,,,,,,,,,,,,,,,,,,,,,,,,,,,,,,,,,,,,,,,,,,,,,,,,,,,,,,,,,,,,,,,,,,,,,,,,,,,,,,,,,,,,,
,,697a6b7b9aabee3f87764438,2026-03-17_07h22.03.079,kallum_motion_pilot_GIST_update_2,2026.1.1,Win32,74.62686567,697a6b7b9aabee3f87764438,69b92ab4aef6dee357cd729a,69b92b54bd44ad5b54366fcd,0.0804,0.0804,0,91,91,81,1,fiveseven,,,,,,,,,,,,,,,,,,,,,,,,,,,,,,,,,,,,,,,,,,,,,,,,,,,,,,,,,,,,,,,,,,,,,,,,,,,,,,,,,,,,,,,,,,,,,,,,,,,,,,,,,,,,,,,,,,,,,,,,,,,,,,,,,,,,,,,,,
,,697a6b7b9aabee3f87764438,2026-03-17_07h22.03.079,kallum_motion_pilot_GIST_update_2,2026.1.1,Win32,74.62686567,697a6b7b9aabee3f87764438,69b92ab4aef6dee357cd729a,69b92b54bd44ad5b54366fcd,0.0806,0.0806,0,92,92,52,1,threeone,,,,,,,,,,,,,,,,,,,,,,,,,,,,,,,,,,,,,,,,,,,,,,,,,,,,,,,,,,,,,,,,,,,,,,,,,,,,,,,,,,,,,,,,,,,,,,,,,,,,,,,,,,,,,,,,,,,,,,,,,,,,,,,,,,,,,,,,,
,,697a6b7b9aabee3f87764438,2026-03-17_07h22.03.079,kallum_motion_pilot_GIST_update_2,2026.1.1,Win32,74.62686567,697a6b7b9aabee3f87764438,69b92ab4aef6dee357cd729a,69b92b54bd44ad5b54366fcd,0.0808,0.0808,0,93,93,94,1,eightsix,,,,,,,,,,,,,,,,,,,,,,,,,,,,,,,,,,,,,,,,,,,,,,,,,,,,,,,,,,,,,,,,,,,,,,,,,,,,,,,,,,,,,,,,,,,,,,,,,,,,,,,,,,,,,,,,,,,,,,,,,,,,,,,,,,,,,,,,,
,,697a6b7b9aabee3f87764438,2026-03-17_07h22.03.079,kallum_motion_pilot_GIST_update_2,2026.1.1,Win32,74.62686567,697a6b7b9aabee3f87764438,69b92ab4aef6dee357cd729a,69b92b54bd44ad5b54366fcd,0.081,0.0811,0,94,94,139,1,sixeight,,,,,,,,,,,,,,,,,,,,,,,,,,,,,,,,,,,,,,,,,,,,,,,,,,,,,,,,,,,,,,,,,,,,,,,,,,,,,,,,,,,,,,,,,,,,,,,,,,,,,,,,,,,,,,,,,,,,,,,,,,,,,,,,,,,,,,,,,
,,697a6b7b9aabee3f87764438,2026-03-17_07h22.03.079,kallum_motion_pilot_GIST_update_2,2026.1.1,Win32,74.62686567,697a6b7b9aabee3f87764438,69b92ab4aef6dee357cd729a,69b92b54bd44ad5b54366fcd,0.0814,0.0814,0,95,95,152,1,fivesix,,,,,,,,,,,,,,,,,,,,,,,,,,,,,,,,,,,,,,,,,,,,,,,,,,,,,,,,,,,,,,,,,,,,,,,,,,,,,,,,,,,,,,,,,,,,,,,,,,,,,,,,,,,,,,,,,,,,,,,,,,,,,,,,,,,,,,,,,
,,697a6b7b9aabee3f87764438,2026-03-17_07h22.03.079,kallum_motion_pilot_GIST_update_2,2026.1.1,Win32,74.62686567,697a6b7b9aabee3f87764438,69b92ab4aef6dee357cd729a,69b92b54bd44ad5b54366fcd,0.0819,0.0819,0,96,96,147,1,sixeight,,,,,,,,,,,,,,,,,,,,,,,,,,,,,,,,,,,,,,,,,,,,,,,,,,,,,,,,,,,,,,,,,,,,,,,,,,,,,,,,,,,,,,,,,,,,,,,,,,,,,,,,,,,,,,,,,,,,,,,,,,,,,,,,,,,,,,,,,
,,697a6b7b9aabee3f87764438,2026-03-17_07h22.03.079,kallum_motion_pilot_GIST_update_2,2026.1.1,Win32,74.62686567,697a6b7b9aabee3f87764438,69b92ab4aef6dee357cd729a,69b92b54bd44ad5b54366fcd,0.0828,0.0829,0,97,97,13,1,threefour,,,,,,,,,,,,,,,,,,,,,,,,,,,,,,,,,,,,,,,,,,,,,,,,,,,,,,,,,,,,,,,,,,,,,,,,,,,,,,,,,,,,,,,,,,,,,,,,,,,,,,,,,,,,,,,,,,,,,,,,,,,,,,,,,,,,,,,,,
,,697a6b7b9aabee3f87764438,2026-03-17_07h22.03.079,kallum_motion_pilot_GIST_update_2,2026.1.1,Win32,74.62686567,697a6b7b9aabee3f87764438,69b92ab4aef6dee357cd729a,69b92b54bd44ad5b54366fcd,0.0836,0.0836,0,98,98,63,1,fourthree,,,,,,,,,,,,,,,,,,,,,,,,,,,,,,,,,,,,,,,,,,,,,,,,,,,,,,,,,,,,,,,,,,,,,,,,,,,,,,,,,,,,,,,,,,,,,,,,,,,,,,,,,,,,,,,,,,,,,,,,,,,,,,,,,,,,,,,,,
,,697a6b7b9aabee3f87764438,2026-03-17_07h22.03.079,kallum_motion_pilot_GIST_update_2,2026.1.1,Win32,74.62686567,697a6b7b9aabee3f87764438,69b92ab4aef6dee357cd729a,69b92b54bd44ad5b54366fcd,0.084,0.084,0,99,99,79,1,eightseven,,,,,,,,,,,,,,,,,,,,,,,,,,,,,,,,,,,,,,,,,,,,,,,,,,,,,,,,,,,,,,,,,,,,,,,,,,,,,,,,,,,,,,,,,,,,,,,,,,,,,,,,,,,,,,,,,,,,,,,,,,,,,,,,,,,,,,,,,
,,697a6b7b9aabee3f87764438,2026-03-17_07h22.03.079,kallum_motion_pilot_GIST_update_2,2026.1.1,Win32,74.62686567,697a6b7b9aabee3f87764438,69b92ab4aef6dee357cd729a,69b92b54bd44ad5b54366fcd,0.0843,0.0844,0,100,100,91,1,sixeight,,,,,,,,,,,,,,,,,,,,,,,,,,,,,,,,,,,,,,,,,,,,,,,,,,,,,,,,,,,,,,,,,,,,,,,,,,,,,,,,,,,,,,,,,,,,,,,,,,,,,,,,,,,,,,,,,,,,,,,,,,,,,,,,,,,,,,,,,
,,697a6b7b9aabee3f87764438,2026-03-17_07h22.03.079,kallum_motion_pilot_GIST_update_2,2026.1.1,Win32,74.62686567,697a6b7b9aabee3f87764438,69b92ab4aef6dee357cd729a,69b92b54bd44ad5b54366fcd,0.0847,0.0847,0,101,101,116,1,sevenfive,,,,,,,,,,,,,,,,,,,,,,,,,,,,,,,,,,,,,,,,,,,,,,,,,,,,,,,,,,,,,,,,,,,,,,,,,,,,,,,,,,,,,,,,,,,,,,,,,,,,,,,,,,,,,,,,,,,,,,,,,,,,,,,,,,,,,,,,,
,,697a6b7b9aabee3f87764438,2026-03-17_07h22.03.079,kallum_motion_pilot_GIST_update_2,2026.1.1,Win32,74.62686567,697a6b7b9aabee3f87764438,69b92ab4aef6dee357cd729a,69b92b54bd44ad5b54366fcd,0.0852,0.0852,0,102,102,18,1,twoone,,,,,,,,,,,,,,,,,,,,,,,,,,,,,,,,,,,,,,,,,,,,,,,,,,,,,,,,,,,,,,,,,,,,,,,,,,,,,,,,,,,,,,,,,,,,,,,,,,,,,,,,,,,,,,,,,,,,,,,,,,,,,,,,,,,,,,,,,
,,697a6b7b9aabee3f87764438,2026-03-17_07h22.03.079,kallum_motion_pilot_GIST_update_2,2026.1.1,Win32,74.62686567,697a6b7b9aabee3f87764438,69b92ab4aef6dee357cd729a,69b92b54bd44ad5b54366fcd,0.0855,0.0855,0,103,103,71,1,fourthree,,,,,,,,,,,,,,,,,,,,,,,,,,,,,,,,,,,,,,,,,,,,,,,,,,,,,,,,,,,,,,,,,,,,,,,,,,,,,,,,,,,,,,,,,,,,,,,,,,,,,,,,,,,,,,,,,,,,,,,,,,,,,,,,,,,,,,,,,
,,697a6b7b9aabee3f87764438,2026-03-17_07h22.03.079,kallum_motion_pilot_GIST_update_2,2026.1.1,Win32,74.62686567,697a6b7b9aabee3f87764438,69b92ab4aef6dee357cd729a,69b92b54bd44ad5b54366fcd,0.0859,0.0859,0,104,104,21,1,threefour,,,,,,,,,,,,,,,,,,,,,,,,,,,,,,,,,,,,,,,,,,,,,,,,,,,,,,,,,,,,,,,,,,,,,,,,,,,,,,,,,,,,,,,,,,,,,,,,,,,,,,,,,,,,,,,,,,,,,,,,,,,,,,,,,,,,,,,,,
,,697a6b7b9aabee3f87764438,2026-03-17_07h22.03.079,kallum_motion_pilot_GIST_update_2,2026.1.1,Win32,74.62686567,697a6b7b9aabee3f87764438,69b92ab4aef6dee357cd729a,69b92b54bd44ad5b54366fcd,0.0862,0.0863,0,105,105,23,1,fourthree,,,,,,,,,,,,,,,,,,,,,,,,,,,,,,,,,,,,,,,,,,,,,,,,,,,,,,,,,,,,,,,,,,,,,,,,,,,,,,,,,,,,,,,,,,,,,,,,,,,,,,,,,,,,,,,,,,,,,,,,,,,,,,,,,,,,,,,,,
,,697a6b7b9aabee3f87764438,2026-03-17_07h22.03.079,kallum_motion_pilot_GIST_update_2,2026.1.1,Win32,74.62686567,697a6b7b9aabee3f87764438,69b92ab4aef6dee357cd729a,69b92b54bd44ad5b54366fcd,0.0866,0.0866,0,106,106,105,1,fiveseven,,,,,,,,,,,,,,,,,,,,,,,,,,,,,,,,,,,,,,,,,,,,,,,,,,,,,,,,,,,,,,,,,,,,,,,,,,,,,,,,,,,,,,,,,,,,,,,,,,,,,,,,,,,,,,,,,,,,,,,,,,,,,,,,,,,,,,,,,
,,697a6b7b9aabee3f87764438,2026-03-17_07h22.03.079,kallum_motion_pilot_GIST_update_2,2026.1.1,Win32,74.62686567,697a6b7b9aabee3f87764438,69b92ab4aef6dee357cd729a,69b92b54bd44ad5b54366fcd,0.087,0.087,0,107,107,0,1,onetwo,,,,,,,,,,,,,,,,,,,,,,,,,,,,,,,,,,,,,,,,,,,,,,,,,,,,,,,,,,,,,,,,,,,,,,,,,,,,,,,,,,,,,,,,,,,,,,,,,,,,,,,,,,,,,,,,,,,,,,,,,,,,,,,,,,,,,,,,,
,,697a6b7b9aabee3f87764438,2026-03-17_07h22.03.079,kallum_motion_pilot_GIST_update_2,2026.1.1,Win32,74.62686567,697a6b7b9aabee3f87764438,69b92ab4aef6dee357cd729a,69b92b54bd44ad5b54366fcd,0.0874,0.0874,0,108,108,16,1,onetwo,,,,,,,,,,,,,,,,,,,,,,,,,,,,,,,,,,,,,,,,,,,,,,,,,,,,,,,,,,,,,,,,,,,,,,,,,,,,,,,,,,,,,,,,,,,,,,,,,,,,,,,,,,,,,,,,,,,,,,,,,,,,,,,,,,,,,,,,,
,,697a6b7b9aabee3f87764438,2026-03-17_07h22.03.079,kallum_motion_pilot_GIST_update_2,2026.1.1,Win32,74.62686567,697a6b7b9aabee3f87764438,69b92ab4aef6dee357cd729a,69b92b54bd44ad5b54366fcd,0.0878,0.0878,0,109,109,95,1,eightseven,,,,,,,,,,,,,,,,,,,,,,,,,,,,,,,,,,,,,,,,,,,,,,,,,,,,,,,,,,,,,,,,,,,,,,,,,,,,,,,,,,,,,,,,,,,,,,,,,,,,,,,,,,,,,,,,,,,,,,,,,,,,,,,,,,,,,,,,,
,,697a6b7b9aabee3f87764438,2026-03-17_07h22.03.079,kallum_motion_pilot_GIST_update_2,2026.1.1,Win32,74.62686567,697a6b7b9aabee3f87764438,69b92ab4aef6dee357cd729a,69b92b54bd44ad5b54366fcd,0.0882,0.0882,0,110,110,14,1,fourtwo,,,,,,,,,,,,,,,,,,,,,,,,,,,,,,,,,,,,,,,,,,,,,,,,,,,,,,,,,,,,,,,,,,,,,,,,,,,,,,,,,,,,,,,,,,,,,,,,,,,,,,,,,,,,,,,,,,,,,,,,,,,,,,,,,,,,,,,,,
,,697a6b7b9aabee3f87764438,2026-03-17_07h22.03.079,kallum_motion_pilot_GIST_update_2,2026.1.1,Win32,74.62686567,697a6b7b9aabee3f87764438,69b92ab4aef6dee357cd729a,69b92b54bd44ad5b54366fcd,0.0885,0.0885,0,111,111,10,1,twoone,,,,,,,,,,,,,,,,,,,,,,,,,,,,,,,,,,,,,,,,,,,,,,,,,,,,,,,,,,,,,,,,,,,,,,,,,,,,,,,,,,,,,,,,,,,,,,,,,,,,,,,,,,,,,,,,,,,,,,,,,,,,,,,,,,,,,,,,,
,,697a6b7b9aabee3f87764438,2026-03-17_07h22.03.079,kallum_motion_pilot_GIST_update_2,2026.1.1,Win32,74.62686567,697a6b7b9aabee3f87764438,69b92ab4aef6dee357cd729a,69b92b54bd44ad5b54366fcd,0.0888,0.0888,0,112,112,61,1,threefour,,,,,,,,,,,,,,,,,,,,,,,,,,,,,,,,,,,,,,,,,,,,,,,,,,,,,,,,,,,,,,,,,,,,,,,,,,,,,,,,,,,,,,,,,,,,,,,,,,,,,,,,,,,,,,,,,,,,,,,,,,,,,,,,,,,,,,,,,
,,697a6b7b9aabee3f87764438,2026-03-17_07h22.03.079,kallum_motion_pilot_GIST_update_2,2026.1.1,Win32,74.62686567,697a6b7b9aabee3f87764438,69b92ab4aef6dee357cd729a,69b92b54bd44ad5b54366fcd,0.0891,0.0891,0,113,113,90,1,sixfive,,,,,,,,,,,,,,,,,,,,,,,,,,,,,,,,,,,,,,,,,,,,,,,,,,,,,,,,,,,,,,,,,,,,,,,,,,,,,,,,,,,,,,,,,,,,,,,,,,,,,,,,,,,,,,,,,,,,,,,,,,,,,,,,,,,,,,,,,
,,697a6b7b9aabee3f87764438,2026-03-17_07h22.03.079,kallum_motion_pilot_GIST_update_2,2026.1.1,Win32,74.62686567,697a6b7b9aabee3f87764438,69b92ab4aef6dee357cd729a,69b92b54bd44ad5b54366fcd,0.0893,0.0894,0,114,114,70,1,fourtwo,,,,,,,,,,,,,,,,,,,,,,,,,,,,,,,,,,,,,,,,,,,,,,,,,,,,,,,,,,,,,,,,,,,,,,,,,,,,,,,,,,,,,,,,,,,,,,,,,,,,,,,,,,,,,,,,,,,,,,,,,,,,,,,,,,,,,,,,,
,,697a6b7b9aabee3f87764438,2026-03-17_07h22.03.079,kallum_motion_pilot_GIST_update_2,2026.1.1,Win32,74.62686567,697a6b7b9aabee3f87764438,69b92ab4aef6dee357cd729a,69b92b54bd44ad5b54366fcd,0.0897,0.0897,0,115,115,114,1,sixfive,,,,,,,,,,,,,,,,,,,,,,,,,,,,,,,,,,,,,,,,,,,,,,,,,,,,,,,,,,,,,,,,,,,,,,,,,,,,,,,,,,,,,,,,,,,,,,,,,,,,,,,,,,,,,,,,,,,,,,,,,,,,,,,,,,,,,,,,,
,,697a6b7b9aabee3f87764438,2026-03-17_07h22.03.079,kallum_motion_pilot_GIST_update_2,2026.1.1,Win32,74.62686567,697a6b7b9aabee3f87764438,69b92ab4aef6dee357cd729a,69b92b54bd44ad5b54366fcd,0.0899,0.0899,0,116,116,6,1,fourtwo,,,,,,,,,,,,,,,,,,,,,,,,,,,,,,,,,,,,,,,,,,,,,,,,,,,,,,,,,,,,,,,,,,,,,,,,,,,,,,,,,,,,,,,,,,,,,,,,,,,,,,,,,,,,,,,,,,,,,,,,,,,,,,,,,,,,,,,,,
,,697a6b7b9aabee3f87764438,2026-03-17_07h22.03.079,kallum_motion_pilot_GIST_update_2,2026.1.1,Win32,74.62686567,697a6b7b9aabee3f87764438,69b92ab4aef6dee357cd729a,69b92b54bd44ad5b54366fcd,0.0902,0.0902,0,117,117,137,1,fiveseven,,,,,,,,,,,,,,,,,,,,,,,,,,,,,,,,,,,,,,,,,,,,,,,,,,,,,,,,,,,,,,,,,,,,,,,,,,,,,,,,,,,,,,,,,,,,,,,,,,,,,,,,,,,,,,,,,,,,,,,,,,,,,,,,,,,,,,,,,
,,697a6b7b9aabee3f87764438,2026-03-17_07h22.03.079,kallum_motion_pilot_GIST_update_2,2026.1.1,Win32,74.62686567,697a6b7b9aabee3f87764438,69b92ab4aef6dee357cd729a,69b92b54bd44ad5b54366fcd,0.0904,0.0904,0,118,118,157,1,seveneight,,,,,,,,,,,,,,,,,,,,,,,,,,,,,,,,,,,,,,,,,,,,,,,,,,,,,,,,,,,,,,,,,,,,,,,,,,,,,,,,,,,,,,,,,,,,,,,,,,,,,,,,,,,,,,,,,,,,,,,,,,,,,,,,,,,,,,,,,
,,697a6b7b9aabee3f87764438,2026-03-17_07h22.03.079,kallum_motion_pilot_GIST_update_2,2026.1.1,Win32,74.62686567,697a6b7b9aabee3f87764438,69b92ab4aef6dee357cd729a,69b92b54bd44ad5b54366fcd,0.0906,0.0906,0,119,119,125,1,seveneight,,,,,,,,,,,,,,,,,,,,,,,,,,,,,,,,,,,,,,,,,,,,,,,,,,,,,,,,,,,,,,,,,,,,,,,,,,,,,,,,,,,,,,,,,,,,,,,,,,,,,,,,,,,,,,,,,,,,,,,,,,,,,,,,,,,,,,,,,
,,697a6b7b9aabee3f87764438,2026-03-17_07h22.03.079,kallum_motion_pilot_GIST_update_2,2026.1.1,Win32,74.62686567,697a6b7b9aabee3f87764438,69b92ab4aef6dee357cd729a,69b92b54bd44ad5b54366fcd,0.0908,0.0908,0,120,120,122,1,sixfive,,,,,,,,,,,,,,,,,,,,,,,,,,,,,,,,,,,,,,,,,,,,,,,,,,,,,,,,,,,,,,,,,,,,,,,,,,,,,,,,,,,,,,,,,,,,,,,,,,,,,,,,,,,,,,,,,,,,,,,,,,,,,,,,,,,,,,,,,
,,697a6b7b9aabee3f87764438,2026-03-17_07h22.03.079,kallum_motion_pilot_GIST_update_2,2026.1.1,Win32,74.62686567,697a6b7b9aabee3f87764438,69b92ab4aef6dee357cd729a,69b92b54bd44ad5b54366fcd,0.0911,0.0911,0,121,121,33,1,onethree,,,,,,,,,,,,,,,,,,,,,,,,,,,,,,,,,,,,,,,,,,,,,,,,,,,,,,,,,,,,,,,,,,,,,,,,,,,,,,,,,,,,,,,,,,,,,,,,,,,,,,,,,,,,,,,,,,,,,,,,,,,,,,,,,,,,,,,,,
,,697a6b7b9aabee3f87764438,2026-03-17_07h22.03.079,kallum_motion_pilot_GIST_update_2,2026.1.1,Win32,74.62686567,697a6b7b9aabee3f87764438,69b92ab4aef6dee357cd729a,69b92b54bd44ad5b54366fcd,0.0914,0.0914,0,122,122,40,1,onetwo,,,,,,,,,,,,,,,,,,,,,,,,,,,,,,,,,,,,,,,,,,,,,,,,,,,,,,,,,,,,,,,,,,,,,,,,,,,,,,,,,,,,,,,,,,,,,,,,,,,,,,,,,,,,,,,,,,,,,,,,,,,,,,,,,,,,,,,,,
,,697a6b7b9aabee3f87764438,2026-03-17_07h22.03.079,kallum_motion_pilot_GIST_update_2,2026.1.1,Win32,74.62686567,697a6b7b9aabee3f87764438,69b92ab4aef6dee357cd729a,69b92b54bd44ad5b54366fcd,0.0916,0.0916,0,123,123,86,1,eightsix,,,,,,,,,,,,,,,,,,,,,,,,,,,,,,,,,,,,,,,,,,,,,,,,,,,,,,,,,,,,,,,,,,,,,,,,,,,,,,,,,,,,,,,,,,,,,,,,,,,,,,,,,,,,,,,,,,,,,,,,,,,,,,,,,,,,,,,,,
,,697a6b7b9aabee3f87764438,2026-03-17_07h22.03.079,kallum_motion_pilot_GIST_update_2,2026.1.1,Win32,74.62686567,697a6b7b9aabee3f87764438,69b92ab4aef6dee357cd729a,69b92b54bd44ad5b54366fcd,0.0937,0.0937,0,124,124,7,1,fourthree,,,,,,,,,,,,,,,,,,,,,,,,,,,,,,,,,,,,,,,,,,,,,,,,,,,,,,,,,,,,,,,,,,,,,,,,,,,,,,,,,,,,,,,,,,,,,,,,,,,,,,,,,,,,,,,,,,,,,,,,,,,,,,,,,,,,,,,,,
,,697a6b7b9aabee3f87764438,2026-03-17_07h22.03.079,kallum_motion_pilot_GIST_update_2,2026.1.1,Win32,74.62686567,697a6b7b9aabee3f87764438,69b92ab4aef6dee357cd729a,69b92b54bd44ad5b54366fcd,0.0942,0.0943,0,125,125,25,1,onethree,,,,,,,,,,,,,,,,,,,,,,,,,,,,,,,,,,,,,,,,,,,,,,,,,,,,,,,,,,,,,,,,,,,,,,,,,,,,,,,,,,,,,,,,,,,,,,,,,,,,,,,,,,,,,,,,,,,,,,,,,,,,,,,,,,,,,,,,,
,,697a6b7b9aabee3f87764438,2026-03-17_07h22.03.079,kallum_motion_pilot_GIST_update_2,2026.1.1,Win32,74.62686567,697a6b7b9aabee3f87764438,69b92ab4aef6dee357cd729a,69b92b54bd44ad5b54366fcd,0.0946,0.0947,0,126,126,133,1,seveneight,,,,,,,,,,,,,,,,,,,,,,,,,,,,,,,,,,,,,,,,,,,,,,,,,,,,,,,,,,,,,,,,,,,,,,,,,,,,,,,,,,,,,,,,,,,,,,,,,,,,,,,,,,,,,,,,,,,,,,,,,,,,,,,,,,,,,,,,,
,,697a6b7b9aabee3f87764438,2026-03-17_07h22.03.079,kallum_motion_pilot_GIST_update_2,2026.1.1,Win32,74.62686567,697a6b7b9aabee3f87764438,69b92ab4aef6dee357cd729a,69b92b54bd44ad5b54366fcd,0.0951,0.0952,0,127,127,135,1,eightseven,,,,,,,,,,,,,,,,,,,,,,,,,,,,,,,,,,,,,,,,,,,,,,,,,,,,,,,,,,,,,,,,,,,,,,,,,,,,,,,,,,,,,,,,,,,,,,,,,,,,,,,,,,,,,,,,,,,,,,,,,,,,,,,,,,,,,,,,,
,,697a6b7b9aabee3f87764438,2026-03-17_07h22.03.079,kallum_motion_pilot_GIST_update_2,2026.1.1,Win32,74.62686567,697a6b7b9aabee3f87764438,69b92ab4aef6dee357cd729a,69b92b54bd44ad5b54366fcd,0.0958,0.0958,0,128,128,67,1,twofour,,,,,,,,,,,,,,,,,,,,,,,,,,,,,,,,,,,,,,,,,,,,,,,,,,,,,,,,,,,,,,,,,,,,,,,,,,,,,,,,,,,,,,,,,,,,,,,,,,,,,,,,,,,,,,,,,,,,,,,,,,,,,,,,,,,,,,,,,
,,697a6b7b9aabee3f87764438,2026-03-17_07h22.03.079,kallum_motion_pilot_GIST_update_2,2026.1.1,Win32,74.62686567,697a6b7b9aabee3f87764438,69b92ab4aef6dee357cd729a,69b92b54bd44ad5b54366fcd,0.0967,0.0968,0,129,129,159,1,eightseven,,,,,,,,,,,,,,,,,,,,,,,,,,,,,,,,,,,,,,,,,,,,,,,,,,,,,,,,,,,,,,,,,,,,,,,,,,,,,,,,,,,,,,,,,,,,,,,,,,,,,,,,,,,,,,,,,,,,,,,,,,,,,,,,,,,,,,,,,
,,697a6b7b9aabee3f87764438,2026-03-17_07h22.03.079,kallum_motion_pilot_GIST_update_2,2026.1.1,Win32,74.62686567,697a6b7b9aabee3f87764438,69b92ab4aef6dee357cd729a,69b92b54bd44ad5b54366fcd,0.0973,0.0973,0,130,130,148,1,sevenfive,,,,,,,,,,,,,,,,,,,,,,,,,,,,,,,,,,,,,,,,,,,,,,,,,,,,,,,,,,,,,,,,,,,,,,,,,,,,,,,,,,,,,,,,,,,,,,,,,,,,,,,,,,,,,,,,,,,,,,,,,,,,,,,,,,,,,,,,,
,,697a6b7b9aabee3f87764438,2026-03-17_07h22.03.079,kallum_motion_pilot_GIST_update_2,2026.1.1,Win32,74.62686567,697a6b7b9aabee3f87764438,69b92ab4aef6dee357cd729a,69b92b54bd44ad5b54366fcd,0.0976,0.0976,0,131,131,141,1,seveneight,,,,,,,,,,,,,,,,,,,,,,,,,,,,,,,,,,,,,,,,,,,,,,,,,,,,,,,,,,,,,,,,,,,,,,,,,,,,,,,,,,,,,,,,,,,,,,,,,,,,,,,,,,,,,,,,,,,,,,,,,,,,,,,,,,,,,,,,,
,,697a6b7b9aabee3f87764438,2026-03-17_07h22.03.079,kallum_motion_pilot_GIST_update_2,2026.1.1,Win32,74.62686567,697a6b7b9aabee3f87764438,69b92ab4aef6dee357cd729a,69b92b54bd44ad5b54366fcd,0.098,0.0981,0,132,132,149,1,seveneight,,,,,,,,,,,,,,,,,,,,,,,,,,,,,,,,,,,,,,,,,,,,,,,,,,,,,,,,,,,,,,,,,,,,,,,,,,,,,,,,,,,,,,,,,,,,,,,,,,,,,,,,,,,,,,,,,,,,,,,,,,,,,,,,,,,,,,,,,
,,697a6b7b9aabee3f87764438,2026-03-17_07h22.03.079,kallum_motion_pilot_GIST_update_2,2026.1.1,Win32,74.62686567,697a6b7b9aabee3f87764438,69b92ab4aef6dee357cd729a,69b92b54bd44ad5b54366fcd,0.0984,0.0984,0,133,133,68,1,threeone,,,,,,,,,,,,,,,,,,,,,,,,,,,,,,,,,,,,,,,,,,,,,,,,,,,,,,,,,,,,,,,,,,,,,,,,,,,,,,,,,,,,,,,,,,,,,,,,,,,,,,,,,,,,,,,,,,,,,,,,,,,,,,,,,,,,,,,,,
,,697a6b7b9aabee3f87764438,2026-03-17_07h22.03.079,kallum_motion_pilot_GIST_update_2,2026.1.1,Win32,74.62686567,697a6b7b9aabee3f87764438,69b92ab4aef6dee357cd729a,69b92b54bd44ad5b54366fcd,0.0988,0.0988,0,134,134,78,1,fourtwo,,,,,,,,,,,,,,,,,,,,,,,,,,,,,,,,,,,,,,,,,,,,,,,,,,,,,,,,,,,,,,,,,,,,,,,,,,,,,,,,,,,,,,,,,,,,,,,,,,,,,,,,,,,,,,,,,,,,,,,,,,,,,,,,,,,,,,,,,
,,697a6b7b9aabee3f87764438,2026-03-17_07h22.03.079,kallum_motion_pilot_GIST_update_2,2026.1.1,Win32,74.62686567,697a6b7b9aabee3f87764438,69b92ab4aef6dee357cd729a,69b92b54bd44ad5b54366fcd,0.0992,0.0992,0,135,135,110,1,eightsix,,,,,,,,,,,,,,,,,,,,,,,,,,,,,,,,,,,,,,,,,,,,,,,,,,,,,,,,,,,,,,,,,,,,,,,,,,,,,,,,,,,,,,,,,,,,,,,,,,,,,,,,,,,,,,,,,,,,,,,,,,,,,,,,,,,,,,,,,
,,697a6b7b9aabee3f87764438,2026-03-17_07h22.03.079,kallum_motion_pilot_GIST_update_2,2026.1.1,Win32,74.62686567,697a6b7b9aabee3f87764438,69b92ab4aef6dee357cd729a,69b92b54bd44ad5b54366fcd,0.0996,0.0996,0,136,136,20,1,threeone,,,,,,,,,,,,,,,,,,,,,,,,,,,,,,,,,,,,,,,,,,,,,,,,,,,,,,,,,,,,,,,,,,,,,,,,,,,,,,,,,,,,,,,,,,,,,,,,,,,,,,,,,,,,,,,,,,,,,,,,,,,,,,,,,,,,,,,,,
,,697a6b7b9aabee3f87764438,2026-03-17_07h22.03.079,kallum_motion_pilot_GIST_update_2,2026.1.1,Win32,74.62686567,697a6b7b9aabee3f87764438,69b92ab4aef6dee357cd729a,69b92b54bd44ad5b54366fcd,0.1,0.1,0,137,137,17,1,onethree,,,,,,,,,,,,,,,,,,,,,,,,,,,,,,,,,,,,,,,,,,,,,,,,,,,,,,,,,,,,,,,,,,,,,,,,,,,,,,,,,,,,,,,,,,,,,,,,,,,,,,,,,,,,,,,,,,,,,,,,,,,,,,,,,,,,,,,,,
,,697a6b7b9aabee3f87764438,2026-03-17_07h22.03.079,kallum_motion_pilot_GIST_update_2,2026.1.1,Win32,74.62686567,697a6b7b9aabee3f87764438,69b92ab4aef6dee357cd729a,69b92b54bd44ad5b54366fcd,0.1004,0.1004,0,138,138,3,1,twofour,,,,,,,,,,,,,,,,,,,,,,,,,,,,,,,,,,,,,,,,,,,,,,,,,,,,,,,,,,,,,,,,,,,,,,,,,,,,,,,,,,,,,,,,,,,,,,,,,,,,,,,,,,,,,,,,,,,,,,,,,,,,,,,,,,,,,,,,,
,,697a6b7b9aabee3f87764438,2026-03-17_07h22.03.079,kallum_motion_pilot_GIST_update_2,2026.1.1,Win32,74.62686567,697a6b7b9aabee3f87764438,69b92ab4aef6dee357cd729a,69b92b54bd44ad5b54366fcd,0.1008,0.1009,0,139,139,119,1,eightseven,,,,,,,,,,,,,,,,,,,,,,,,,,,,,,,,,,,,,,,,,,,,,,,,,,,,,,,,,,,,,,,,,,,,,,,,,,,,,,,,,,,,,,,,,,,,,,,,,,,,,,,,,,,,,,,,,,,,,,,,,,,,,,,,,,,,,,,,,
,,697a6b7b9aabee3f87764438,2026-03-17_07h22.03.079,kallum_motion_pilot_GIST_update_2,2026.1.1,Win32,74.62686567,697a6b7b9aabee3f87764438,69b92ab4aef6dee357cd729a,69b92b54bd44ad5b54366fcd,0.1013,0.1013,0,140,140,111,1,eightseven,,,,,,,,,,,,,,,,,,,,,,,,,,,,,,,,,,,,,,,,,,,,,,,,,,,,,,,,,,,,,,,,,,,,,,,,,,,,,,,,,,,,,,,,,,,,,,,,,,,,,,,,,,,,,,,,,,,,,,,,,,,,,,,,,,,,,,,,,
,,697a6b7b9aabee3f87764438,2026-03-17_07h22.03.079,kallum_motion_pilot_GIST_update_2,2026.1.1,Win32,74.62686567,697a6b7b9aabee3f87764438,69b92ab4aef6dee357cd729a,69b92b54bd44ad5b54366fcd,0.1017,0.1017,0,141,141,57,1,onethree,,,,,,,,,,,,,,,,,,,,,,,,,,,,,,,,,,,,,,,,,,,,,,,,,,,,,,,,,,,,,,,,,,,,,,,,,,,,,,,,,,,,,,,,,,,,,,,,,,,,,,,,,,,,,,,,,,,,,,,,,,,,,,,,,,,,,,,,,
,,697a6b7b9aabee3f87764438,2026-03-17_07h22.03.079,kallum_motion_pilot_GIST_update_2,2026.1.1,Win32,74.62686567,697a6b7b9aabee3f87764438,69b92ab4aef6dee357cd729a,69b92b54bd44ad5b54366fcd,0.1021,0.1021,0,142,142,146,1,sixfive,,,,,,,,,,,,,,,,,,,,,,,,,,,,,,,,,,,,,,,,,,,,,,,,,,,,,,,,,,,,,,,,,,,,,,,,,,,,,,,,,,,,,,,,,,,,,,,,,,,,,,,,,,,,,,,,,,,,,,,,,,,,,,,,,,,,,,,,,
,,697a6b7b9aabee3f87764438,2026-03-17_07h22.03.079,kallum_motion_pilot_GIST_update_2,2026.1.1,Win32,74.62686567,697a6b7b9aabee3f87764438,69b92ab4aef6dee357cd729a,69b92b54bd44ad5b54366fcd,0.1025,0.1025,0,143,143,28,1,threeone,,,,,,,,,,,,,,,,,,,,,,,,,,,,,,,,,,,,,,,,,,,,,,,,,,,,,,,,,,,,,,,,,,,,,,,,,,,,,,,,,,,,,,,,,,,,,,,,,,,,,,,,,,,,,,,,,,,,,,,,,,,,,,,,,,,,,,,,,
,,697a6b7b9aabee3f87764438,2026-03-17_07h22.03.079,kallum_motion_pilot_GIST_update_2,2026.1.1,Win32,74.62686567,697a6b7b9aabee3f87764438,69b92ab4aef6dee357cd729a,69b92b54bd44ad5b54366fcd,0.1028,0.1029,0,144,144,92,1,sevenfive,,,,,,,,,,,,,,,,,,,,,,,,,,,,,,,,,,,,,,,,,,,,,,,,,,,,,,,,,,,,,,,,,,,,,,,,,,,,,,,,,,,,,,,,,,,,,,,,,,,,,,,,,,,,,,,,,,,,,,,,,,,,,,,,,,,,,,,,,
,,697a6b7b9aabee3f87764438,2026-03-17_07h22.03.079,kallum_motion_pilot_GIST_update_2,2026.1.1,Win32,74.62686567,697a6b7b9aabee3f87764438,69b92ab4aef6dee357cd729a,69b92b54bd44ad5b54366fcd,0.1032,0.1032,0,145,145,123,1,sixeight,,,,,,,,,,,,,,,,,,,,,,,,,,,,,,,,,,,,,,,,,,,,,,,,,,,,,,,,,,,,,,,,,,,,,,,,,,,,,,,,,,,,,,,,,,,,,,,,,,,,,,,,,,,,,,,,,,,,,,,,,,,,,,,,,,,,,,,,,
,,697a6b7b9aabee3f87764438,2026-03-17_07h22.03.079,kallum_motion_pilot_GIST_update_2,2026.1.1,Win32,74.62686567,697a6b7b9aabee3f87764438,69b92ab4aef6dee357cd729a,69b92b54bd44ad5b54366fcd,0.1037,0.1037,0,146,146,160,1,fivesix,,,,,,,,,,,,,,,,,,,,,,,,,,,,,,,,,,,,,,,,,,,,,,,,,,,,,,,,,,,,,,,,,,,,,,,,,,,,,,,,,,,,,,,,,,,,,,,,,,,,,,,,,,,,,,,,,,,,,,,,,,,,,,,,,,,,,,,,,
,,697a6b7b9aabee3f87764438,2026-03-17_07h22.03.079,kallum_motion_pilot_GIST_update_2,2026.1.1,Win32,74.62686567,697a6b7b9aabee3f87764438,69b92ab4aef6dee357cd729a,69b92b54bd44ad5b54366fcd,0.1041,0.1041,0,147,147,69,1,threefour,,,,,,,,,,,,,,,,,,,,,,,,,,,,,,,,,,,,,,,,,,,,,,,,,,,,,,,,,,,,,,,,,,,,,,,,,,,,,,,,,,,,,,,,,,,,,,,,,,,,,,,,,,,,,,,,,,,,,,,,,,,,,,,,,,,,,,,,,
,,697a6b7b9aabee3f87764438,2026-03-17_07h22.03.079,kallum_motion_pilot_GIST_update_2,2026.1.1,Win32,74.62686567,697a6b7b9aabee3f87764438,69b92ab4aef6dee357cd729a,69b92b54bd44ad5b54366fcd,0.1043,0.1044,0,148,148,80,1,fivesix,,,,,,,,,,,,,,,,,,,,,,,,,,,,,,,,,,,,,,,,,,,,,,,,,,,,,,,,,,,,,,,,,,,,,,,,,,,,,,,,,,,,,,,,,,,,,,,,,,,,,,,,,,,,,,,,,,,,,,,,,,,,,,,,,,,,,,,,,
,,697a6b7b9aabee3f87764438,2026-03-17_07h22.03.079,kallum_motion_pilot_GIST_update_2,2026.1.1,Win32,74.62686567,697a6b7b9aabee3f87764438,69b92ab4aef6dee357cd729a,69b92b54bd44ad5b54366fcd,0.1046,0.1046,0,149,149,64,1,onetwo,,,,,,,,,,,,,,,,,,,,,,,,,,,,,,,,,,,,,,,,,,,,,,,,,,,,,,,,,,,,,,,,,,,,,,,,,,,,,,,,,,,,,,,,,,,,,,,,,,,,,,,,,,,,,,,,,,,,,,,,,,,,,,,,,,,,,,,,,
,,697a6b7b9aabee3f87764438,2026-03-17_07h22.03.079,kallum_motion_pilot_GIST_update_2,2026.1.1,Win32,74.62686567,697a6b7b9aabee3f87764438,69b92ab4aef6dee357cd729a,69b92b54bd44ad5b54366fcd,0.1048,0.1049,0,150,150,155,1,sixeight,,,,,,,,,,,,,,,,,,,,,,,,,,,,,,,,,,,,,,,,,,,,,,,,,,,,,,,,,,,,,,,,,,,,,,,,,,,,,,,,,,,,,,,,,,,,,,,,,,,,,,,,,,,,,,,,,,,,,,,,,,,,,,,,,,,,,,,,,
,,697a6b7b9aabee3f87764438,2026-03-17_07h22.03.079,kallum_motion_pilot_GIST_update_2,2026.1.1,Win32,74.62686567,697a6b7b9aabee3f87764438,69b92ab4aef6dee357cd729a,69b92b54bd44ad5b54366fcd,0.1052,0.1052,0,151,151,93,1,seveneight,,,,,,,,,,,,,,,,,,,,,,,,,,,,,,,,,,,,,,,,,,,,,,,,,,,,,,,,,,,,,,,,,,,,,,,,,,,,,,,,,,,,,,,,,,,,,,,,,,,,,,,,,,,,,,,,,,,,,,,,,,,,,,,,,,,,,,,,,
,,697a6b7b9aabee3f87764438,2026-03-17_07h22.03.079,kallum_motion_pilot_GIST_update_2,2026.1.1,Win32,74.62686567,697a6b7b9aabee3f87764438,69b92ab4aef6dee357cd729a,69b92b54bd44ad5b54366fcd,0.1054,0.1054,0,152,152,76,1,threeone,,,,,,,,,,,,,,,,,,,,,,,,,,,,,,,,,,,,,,,,,,,,,,,,,,,,,,,,,,,,,,,,,,,,,,,,,,,,,,,,,,,,,,,,,,,,,,,,,,,,,,,,,,,,,,,,,,,,,,,,,,,,,,,,,,,,,,,,,
,,697a6b7b9aabee3f87764438,2026-03-17_07h22.03.079,kallum_motion_pilot_GIST_update_2,2026.1.1,Win32,74.62686567,697a6b7b9aabee3f87764438,69b92ab4aef6dee357cd729a,69b92b54bd44ad5b54366fcd,0.1056,0.1057,0,153,153,51,1,twofour,,,,,,,,,,,,,,,,,,,,,,,,,,,,,,,,,,,,,,,,,,,,,,,,,,,,,,,,,,,,,,,,,,,,,,,,,,,,,,,,,,,,,,,,,,,,,,,,,,,,,,,,,,,,,,,,,,,,,,,,,,,,,,,,,,,,,,,,,
,,697a6b7b9aabee3f87764438,2026-03-17_07h22.03.079,kallum_motion_pilot_GIST_update_2,2026.1.1,Win32,74.62686567,697a6b7b9aabee3f87764438,69b92ab4aef6dee357cd729a,69b92b54bd44ad5b54366fcd,0.1059,0.1059,0,154,154,101,1,seveneight,,,,,,,,,,,,,,,,,,,,,,,,,,,,,,,,,,,,,,,,,,,,,,,,,,,,,,,,,,,,,,,,,,,,,,,,,,,,,,,,,,,,,,,,,,,,,,,,,,,,,,,,,,,,,,,,,,,,,,,,,,,,,,,,,,,,,,,,,
,,697a6b7b9aabee3f87764438,2026-03-17_07h22.03.079,kallum_motion_pilot_GIST_update_2,2026.1.1,Win32,74.62686567,697a6b7b9aabee3f87764438,69b92ab4aef6dee357cd729a,69b92b54bd44ad5b54366fcd,0.1062,0.1062,0,155,155,107,1,sixeight,,,,,,,,,,,,,,,,,,,,,,,,,,,,,,,,,,,,,,,,,,,,,,,,,,,,,,,,,,,,,,,,,,,,,,,,,,,,,,,,,,,,,,,,,,,,,,,,,,,,,,,,,,,,,,,,,,,,,,,,,,,,,,,,,,,,,,,,,
,,697a6b7b9aabee3f87764438,2026-03-17_07h22.03.079,kallum_motion_pilot_GIST_update_2,2026.1.1,Win32,74.62686567,697a6b7b9aabee3f87764438,69b92ab4aef6dee357cd729a,69b92b54bd44ad5b54366fcd,0.1064,0.1064,0,156,156,73,1,onethree,,,,,,,,,,,,,,,,,,,,,,,,,,,,,,,,,,,,,,,,,,,,,,,,,,,,,,,,,,,,,,,,,,,,,,,,,,,,,,,,,,,,,,,,,,,,,,,,,,,,,,,,,,,,,,,,,,,,,,,,,,,,,,,,,,,,,,,,,
,,697a6b7b9aabee3f87764438,2026-03-17_07h22.03.079,kallum_motion_pilot_GIST_update_2,2026.1.1,Win32,74.62686567,697a6b7b9aabee3f87764438,69b92ab4aef6dee357cd729a,69b92b54bd44ad5b54366fcd,0.1066,0.1066,0,157,157,132,1,sevenfive,,,,,,,,,,,,,,,,,,,,,,,,,,,,,,,,,,,,,,,,,,,,,,,,,,,,,,,,,,,,,,,,,,,,,,,,,,,,,,,,,,,,,,,,,,,,,,,,,,,,,,,,,,,,,,,,,,,,,,,,,,,,,,,,,,,,,,,,,
,,697a6b7b9aabee3f87764438,2026-03-17_07h22.03.079,kallum_motion_pilot_GIST_update_2,2026.1.1,Win32,74.62686567,697a6b7b9aabee3f87764438,69b92ab4aef6dee357cd729a,69b92b54bd44ad5b54366fcd,0.1068,0.1068,0,158,158,43,1,twofour,,,,,,,,,,,,,,,,,,,,,,,,,,,,,,,,,,,,,,,,,,,,,,,,,,,,,,,,,,,,,,,,,,,,,,,,,,,,,,,,,,,,,,,,,,,,,,,,,,,,,,,,,,,,,,,,,,,,,,,,,,,,,,,,,,,,,,,,,
,,697a6b7b9aabee3f87764438,2026-03-17_07h22.03.079,kallum_motion_pilot_GIST_update_2,2026.1.1,Win32,74.62686567,697a6b7b9aabee3f87764438,69b92ab4aef6dee357cd729a,69b92b54bd44ad5b54366fcd,0.1071,0.1071,0,159,159,12,1,threeone,,,,,,,,,,,,,,,,,,,,,,,,,,,,,,,,,,,,,,,,,,,,,,,,,,,,,,,,,,,,,,,,,,,,,,,,,,,,,,,,,,,,,,,,,,,,,,,,,,,,,,,,,,,,,,,,,,,,,,,,,,,,,,,,,,,,,,,,,
,,697a6b7b9aabee3f87764438,2026-03-17_07h22.03.079,kallum_motion_pilot_GIST_update_2,2026.1.1,Win32,74.62686567,697a6b7b9aabee3f87764438,69b92ab4aef6dee357cd729a,69b92b54bd44ad5b54366fcd,0.1073,0.1073,0,160,160,66,1,twoone,,,,,,,,,,,,,,,,,,,,,,,,,,,,,,,,,,,,,,,,,,,,,,,,,,,,,,,,,,,,,,,,,,,,,,,,,,,,,,,,,,,,,,,,,,,,,,,,,,,,,,,,,,,,,,,,,,,,,,,,,,,,,,,,,,,,,,,,,
,,697a6b7b9aabee3f87764438,2026-03-17_07h22.03.079,kallum_motion_pilot_GIST_update_2,2026.1.1,Win32,74.62686567,697a6b7b9aabee3f87764438,69b92ab4aef6dee357cd729a,69b92b54bd44ad5b54366fcd,0.1075,0.1076,0,161,161,161,1,fiveseven,,,,,,,,,,,,,,,,,,,,,,,,,,,,,,,,,,,,,,,,,,,,,,,,,,,,,,,,,,,,,,,,,,,,,,,,,,,,,,,,,,,,,,,,,,,,,,,,,,,,,,,,,,,,,,,,,,,,,,,,,,,,,,,,,,,,,,,,,
,,697a6b7b9aabee3f87764438,2026-03-17_07h22.03.079,kallum_motion_pilot_GIST_update_2,2026.1.1,Win32,74.62686567,697a6b7b9aabee3f87764438,69b92ab4aef6dee357cd729a,69b92b54bd44ad5b54366fcd,0.1079,0.1079,1,0,162,119,1,eightseven,,,,,,,,,,,,,,,,,,,,,,,,,,,,,,,,,,,,,,,,,,,,,,,,,,,,,,,,,,,,,,,,,,,,,,,,,,,,,,,,,,,,,,,,,,,,,,,,,,,,,,,,,,,,,,,,,,,,,,,,,,,,,,,,,,,,,,,,,
,,697a6b7b9aabee3f87764438,2026-03-17_07h22.03.079,kallum_motion_pilot_GIST_update_2,2026.1.1,Win32,74.62686567,697a6b7b9aabee3f87764438,69b92ab4aef6dee357cd729a,69b92b54bd44ad5b54366fcd,0.1082,0.1082,1,1,163,152,1,fivesix,,,,,,,,,,,,,,,,,,,,,,,,,,,,,,,,,,,,,,,,,,,,,,,,,,,,,,,,,,,,,,,,,,,,,,,,,,,,,,,,,,,,,,,,,,,,,,,,,,,,,,,,,,,,,,,,,,,,,,,,,,,,,,,,,,,,,,,,,
,,697a6b7b9aabee3f87764438,2026-03-17_07h22.03.079,kallum_motion_pilot_GIST_update_2,2026.1.1,Win32,74.62686567,697a6b7b9aabee3f87764438,69b92ab4aef6dee357cd729a,69b92b54bd44ad5b54366fcd,0.1086,0.1086,1,2,164,136,1,fivesix,,,,,,,,,,,,,,,,,,,,,,,,,,,,,,,,,,,,,,,,,,,,,,,,,,,,,,,,,,,,,,,,,,,,,,,,,,,,,,,,,,,,,,,,,,,,,,,,,,,,,,,,,,,,,,,,,,,,,,,,,,,,,,,,,,,,,,,,,
,,697a6b7b9aabee3f87764438,2026-03-17_07h22.03.079,kallum_motion_pilot_GIST_update_2,2026.1.1,Win32,74.62686567,697a6b7b9aabee3f87764438,69b92ab4aef6dee357cd729a,69b92b54bd44ad5b54366fcd,0.1089,0.109,1,3,165,151,1,eightseven,,,,,,,,,,,,,,,,,,,,,,,,,,,,,,,,,,,,,,,,,,,,,,,,,,,,,,,,,,,,,,,,,,,,,,,,,,,,,,,,,,,,,,,,,,,,,,,,,,,,,,,,,,,,,,,,,,,,,,,,,,,,,,,,,,,,,,,,,
,,697a6b7b9aabee3f87764438,2026-03-17_07h22.03.079,kallum_motion_pilot_GIST_update_2,2026.1.1,Win32,74.62686567,697a6b7b9aabee3f87764438,69b92ab4aef6dee357cd729a,69b92b54bd44ad5b54366fcd,0.1095,0.1096,1,4,166,146,1,sixfive,,,,,,,,,,,,,,,,,,,,,,,,,,,,,,,,,,,,,,,,,,,,,,,,,,,,,,,,,,,,,,,,,,,,,,,,,,,,,,,,,,,,,,,,,,,,,,,,,,,,,,,,,,,,,,,,,,,,,,,,,,,,,,,,,,,,,,,,,
,,697a6b7b9aabee3f87764438,2026-03-17_07h22.03.079,kallum_motion_pilot_GIST_update_2,2026.1.1,Win32,74.62686567,697a6b7b9aabee3f87764438,69b92ab4aef6dee357cd729a,69b92b54bd44ad5b54366fcd,0.11,0.11,1,5,167,89,1,fiveseven,,,,,,,,,,,,,,,,,,,,,,,,,,,,,,,,,,,,,,,,,,,,,,,,,,,,,,,,,,,,,,,,,,,,,,,,,,,,,,,,,,,,,,,,,,,,,,,,,,,,,,,,,,,,,,,,,,,,,,,,,,,,,,,,,,,,,,,,,
,,697a6b7b9aabee3f87764438,2026-03-17_07h22.03.079,kallum_motion_pilot_GIST_update_2,2026.1.1,Win32,74.62686567,697a6b7b9aabee3f87764438,69b92ab4aef6dee357cd729a,69b92b54bd44ad5b54366fcd,0.1104,0.1105,1,6,168,83,1,sixeight,,,,,,,,,,,,,,,,,,,,,,,,,,,,,,,,,,,,,,,,,,,,,,,,,,,,,,,,,,,,,,,,,,,,,,,,,,,,,,,,,,,,,,,,,,,,,,,,,,,,,,,,,,,,,,,,,,,,,,,,,,,,,,,,,,,,,,,,,
,,697a6b7b9aabee3f87764438,2026-03-17_07h22.03.079,kallum_motion_pilot_GIST_update_2,2026.1.1,Win32,74.62686567,697a6b7b9aabee3f87764438,69b92ab4aef6dee357cd729a,69b92b54bd44ad5b54366fcd,0.1109,0.1109,1,7,169,90,1,sixfive,,,,,,,,,,,,,,,,,,,,,,,,,,,,,,,,,,,,,,,,,,,,,,,,,,,,,,,,,,,,,,,,,,,,,,,,,,,,,,,,,,,,,,,,,,,,,,,,,,,,,,,,,,,,,,,,,,,,,,,,,,,,,,,,,,,,,,,,,
,,697a6b7b9aabee3f87764438,2026-03-17_07h22.03.079,kallum_motion_pilot_GIST_update_2,2026.1.1,Win32,74.62686567,697a6b7b9aabee3f87764438,69b92ab4aef6dee357cd729a,69b92b54bd44ad5b54366fcd,0.1113,0.1113,1,8,170,145,1,fiveseven,,,,,,,,,,,,,,,,,,,,,,,,,,,,,,,,,,,,,,,,,,,,,,,,,,,,,,,,,,,,,,,,,,,,,,,,,,,,,,,,,,,,,,,,,,,,,,,,,,,,,,,,,,,,,,,,,,,,,,,,,,,,,,,,,,,,,,,,,
,,697a6b7b9aabee3f87764438,2026-03-17_07h22.03.079,kallum_motion_pilot_GIST_update_2,2026.1.1,Win32,74.62686567,697a6b7b9aabee3f87764438,69b92ab4aef6dee357cd729a,69b92b54bd44ad5b54366fcd,0.1117,0.1117,1,9,171,106,1,sixfive,,,,,,,,,,,,,,,,,,,,,,,,,,,,,,,,,,,,,,,,,,,,,,,,,,,,,,,,,,,,,,,,,,,,,,,,,,,,,,,,,,,,,,,,,,,,,,,,,,,,,,,,,,,,,,,,,,,,,,,,,,,,,,,,,,,,,,,,,
,,697a6b7b9aabee3f87764438,2026-03-17_07h22.03.079,kallum_motion_pilot_GIST_update_2,2026.1.1,Win32,74.62686567,697a6b7b9aabee3f87764438,69b92ab4aef6dee357cd729a,69b92b54bd44ad5b54366fcd,0.1121,0.1121,1,10,172,39,1,fourthree,,,,,,,,,,,,,,,,,,,,,,,,,,,,,,,,,,,,,,,,,,,,,,,,,,,,,,,,,,,,,,,,,,,,,,,,,,,,,,,,,,,,,,,,,,,,,,,,,,,,,,,,,,,,,,,,,,,,,,,,,,,,,,,,,,,,,,,,,
,,697a6b7b9aabee3f87764438,2026-03-17_07h22.03.079,kallum_motion_pilot_GIST_update_2,2026.1.1,Win32,74.62686567,697a6b7b9aabee3f87764438,69b92ab4aef6dee357cd729a,69b92b54bd44ad5b54366fcd,0.1125,0.1125,1,11,173,31,1,fourthree,,,,,,,,,,,,,,,,,,,,,,,,,,,,,,,,,,,,,,,,,,,,,,,,,,,,,,,,,,,,,,,,,,,,,,,,,,,,,,,,,,,,,,,,,,,,,,,,,,,,,,,,,,,,,,,,,,,,,,,,,,,,,,,,,,,,,,,,,
,,697a6b7b9aabee3f87764438,2026-03-17_07h22.03.079,kallum_motion_pilot_GIST_update_2,2026.1.1,Win32,74.62686567,697a6b7b9aabee3f87764438,69b92ab4aef6dee357cd729a,69b92b54bd44ad5b54366fcd,0.1129,0.1129,1,12,174,15,1,fourthree,,,,,,,,,,,,,,,,,,,,,,,,,,,,,,,,,,,,,,,,,,,,,,,,,,,,,,,,,,,,,,,,,,,,,,,,,,,,,,,,,,,,,,,,,,,,,,,,,,,,,,,,,,,,,,,,,,,,,,,,,,,,,,,,,,,,,,,,,
,,697a6b7b9aabee3f87764438,2026-03-17_07h22.03.079,kallum_motion_pilot_GIST_update_2,2026.1.1,Win32,74.62686567,697a6b7b9aabee3f87764438,69b92ab4aef6dee357cd729a,69b92b54bd44ad5b54366fcd,0.1132,0.1132,1,13,175,124,1,sevenfive,,,,,,,,,,,,,,,,,,,,,,,,,,,,,,,,,,,,,,,,,,,,,,,,,,,,,,,,,,,,,,,,,,,,,,,,,,,,,,,,,,,,,,,,,,,,,,,,,,,,,,,,,,,,,,,,,,,,,,,,,,,,,,,,,,,,,,,,,
,,697a6b7b9aabee3f87764438,2026-03-17_07h22.03.079,kallum_motion_pilot_GIST_update_2,2026.1.1,Win32,74.62686567,697a6b7b9aabee3f87764438,69b92ab4aef6dee357cd729a,69b92b54bd44ad5b54366fcd,0.1136,0.1136,1,14,176,65,1,onethree,,,,,,,,,,,,,,,,,,,,,,,,,,,,,,,,,,,,,,,,,,,,,,,,,,,,,,,,,,,,,,,,,,,,,,,,,,,,,,,,,,,,,,,,,,,,,,,,,,,,,,,,,,,,,,,,,,,,,,,,,,,,,,,,,,,,,,,,,
,,697a6b7b9aabee3f87764438,2026-03-17_07h22.03.079,kallum_motion_pilot_GIST_update_2,2026.1.1,Win32,74.62686567,697a6b7b9aabee3f87764438,69b92ab4aef6dee357cd729a,69b92b54bd44ad5b54366fcd,0.114,0.114,1,15,177,114,1,sixfive,,,,,,,,,,,,,,,,,,,,,,,,,,,,,,,,,,,,,,,,,,,,,,,,,,,,,,,,,,,,,,,,,,,,,,,,,,,,,,,,,,,,,,,,,,,,,,,,,,,,,,,,,,,,,,,,,,,,,,,,,,,,,,,,,,,,,,,,,
,,697a6b7b9aabee3f87764438,2026-03-17_07h22.03.079,kallum_motion_pilot_GIST_update_2,2026.1.1,Win32,74.62686567,697a6b7b9aabee3f87764438,69b92ab4aef6dee357cd729a,69b92b54bd44ad5b54366fcd,0.1144,0.1144,1,16,178,67,1,twofour,,,,,,,,,,,,,,,,,,,,,,,,,,,,,,,,,,,,,,,,,,,,,,,,,,,,,,,,,,,,,,,,,,,,,,,,,,,,,,,,,,,,,,,,,,,,,,,,,,,,,,,,,,,,,,,,,,,,,,,,,,,,,,,,,,,,,,,,,
,,697a6b7b9aabee3f87764438,2026-03-17_07h22.03.079,kallum_motion_pilot_GIST_update_2,2026.1.1,Win32,74.62686567,697a6b7b9aabee3f87764438,69b92ab4aef6dee357cd729a,69b92b54bd44ad5b54366fcd,0.1148,0.1148,1,17,179,32,1,onetwo,,,,,,,,,,,,,,,,,,,,,,,,,,,,,,,,,,,,,,,,,,,,,,,,,,,,,,,,,,,,,,,,,,,,,,,,,,,,,,,,,,,,,,,,,,,,,,,,,,,,,,,,,,,,,,,,,,,,,,,,,,,,,,,,,,,,,,,,,
,,697a6b7b9aabee3f87764438,2026-03-17_07h22.03.079,kallum_motion_pilot_GIST_update_2,2026.1.1,Win32,74.62686567,697a6b7b9aabee3f87764438,69b92ab4aef6dee357cd729a,69b92b54bd44ad5b54366fcd,0.1151,0.1151,1,18,180,60,1,threeone,,,,,,,,,,,,,,,,,,,,,,,,,,,,,,,,,,,,,,,,,,,,,,,,,,,,,,,,,,,,,,,,,,,,,,,,,,,,,,,,,,,,,,,,,,,,,,,,,,,,,,,,,,,,,,,,,,,,,,,,,,,,,,,,,,,,,,,,,
,,697a6b7b9aabee3f87764438,2026-03-17_07h22.03.079,kallum_motion_pilot_GIST_update_2,2026.1.1,Win32,74.62686567,697a6b7b9aabee3f87764438,69b92ab4aef6dee357cd729a,69b92b54bd44ad5b54366fcd,0.1156,0.1156,1,19,181,47,1,fourthree,,,,,,,,,,,,,,,,,,,,,,,,,,,,,,,,,,,,,,,,,,,,,,,,,,,,,,,,,,,,,,,,,,,,,,,,,,,,,,,,,,,,,,,,,,,,,,,,,,,,,,,,,,,,,,,,,,,,,,,,,,,,,,,,,,,,,,,,,
,,697a6b7b9aabee3f87764438,2026-03-17_07h22.03.079,kallum_motion_pilot_GIST_update_2,2026.1.1,Win32,74.62686567,697a6b7b9aabee3f87764438,69b92ab4aef6dee357cd729a,69b92b54bd44ad5b54366fcd,0.1158,0.1158,1,20,182,41,1,onethree,,,,,,,,,,,,,,,,,,,,,,,,,,,,,,,,,,,,,,,,,,,,,,,,,,,,,,,,,,,,,,,,,,,,,,,,,,,,,,,,,,,,,,,,,,,,,,,,,,,,,,,,,,,,,,,,,,,,,,,,,,,,,,,,,,,,,,,,,
,,697a6b7b9aabee3f87764438,2026-03-17_07h22.03.079,kallum_motion_pilot_GIST_update_2,2026.1.1,Win32,74.62686567,697a6b7b9aabee3f87764438,69b92ab4aef6dee357cd729a,69b92b54bd44ad5b54366fcd,0.1162,0.1162,1,21,183,14,1,fourtwo,,,,,,,,,,,,,,,,,,,,,,,,,,,,,,,,,,,,,,,,,,,,,,,,,,,,,,,,,,,,,,,,,,,,,,,,,,,,,,,,,,,,,,,,,,,,,,,,,,,,,,,,,,,,,,,,,,,,,,,,,,,,,,,,,,,,,,,,,
,,697a6b7b9aabee3f87764438,2026-03-17_07h22.03.079,kallum_motion_pilot_GIST_update_2,2026.1.1,Win32,74.62686567,697a6b7b9aabee3f87764438,69b92ab4aef6dee357cd729a,69b92b54bd44ad5b54366fcd,0.1167,0.1167,1,22,184,37,1,threefour,,,,,,,,,,,,,,,,,,,,,,,,,,,,,,,,,,,,,,,,,,,,,,,,,,,,,,,,,,,,,,,,,,,,,,,,,,,,,,,,,,,,,,,,,,,,,,,,,,,,,,,,,,,,,,,,,,,,,,,,,,,,,,,,,,,,,,,,,
,,697a6b7b9aabee3f87764438,2026-03-17_07h22.03.079,kallum_motion_pilot_GIST_update_2,2026.1.1,Win32,74.62686567,697a6b7b9aabee3f87764438,69b92ab4aef6dee357cd729a,69b92b54bd44ad5b54366fcd,0.1172,0.1172,1,23,185,161,1,fiveseven,,,,,,,,,,,,,,,,,,,,,,,,,,,,,,,,,,,,,,,,,,,,,,,,,,,,,,,,,,,,,,,,,,,,,,,,,,,,,,,,,,,,,,,,,,,,,,,,,,,,,,,,,,,,,,,,,,,,,,,,,,,,,,,,,,,,,,,,,
,,697a6b7b9aabee3f87764438,2026-03-17_07h22.03.079,kallum_motion_pilot_GIST_update_2,2026.1.1,Win32,74.62686567,697a6b7b9aabee3f87764438,69b92ab4aef6dee357cd729a,69b92b54bd44ad5b54366fcd,0.1176,0.1176,1,24,186,133,1,seveneight,,,,,,,,,,,,,,,,,,,,,,,,,,,,,,,,,,,,,,,,,,,,,,,,,,,,,,,,,,,,,,,,,,,,,,,,,,,,,,,,,,,,,,,,,,,,,,,,,,,,,,,,,,,,,,,,,,,,,,,,,,,,,,,,,,,,,,,,,
,,697a6b7b9aabee3f87764438,2026-03-17_07h22.03.079,kallum_motion_pilot_GIST_update_2,2026.1.1,Win32,74.62686567,697a6b7b9aabee3f87764438,69b92ab4aef6dee357cd729a,69b92b54bd44ad5b54366fcd,0.1181,0.1181,1,25,187,73,1,onethree,,,,,,,,,,,,,,,,,,,,,,,,,,,,,,,,,,,,,,,,,,,,,,,,,,,,,,,,,,,,,,,,,,,,,,,,,,,,,,,,,,,,,,,,,,,,,,,,,,,,,,,,,,,,,,,,,,,,,,,,,,,,,,,,,,,,,,,,,
,,697a6b7b9aabee3f87764438,2026-03-17_07h22.03.079,kallum_motion_pilot_GIST_update_2,2026.1.1,Win32,74.62686567,697a6b7b9aabee3f87764438,69b92ab4aef6dee357cd729a,69b92b54bd44ad5b54366fcd,0.1185,0.1185,1,26,188,126,1,eightsix,,,,,,,,,,,,,,,,,,,,,,,,,,,,,,,,,,,,,,,,,,,,,,,,,,,,,,,,,,,,,,,,,,,,,,,,,,,,,,,,,,,,,,,,,,,,,,,,,,,,,,,,,,,,,,,,,,,,,,,,,,,,,,,,,,,,,,,,,
,,697a6b7b9aabee3f87764438,2026-03-17_07h22.03.079,kallum_motion_pilot_GIST_update_2,2026.1.1,Win32,74.62686567,697a6b7b9aabee3f87764438,69b92ab4aef6dee357cd729a,69b92b54bd44ad5b54366fcd,0.1189,0.1189,1,27,189,101,1,seveneight,,,,,,,,,,,,,,,,,,,,,,,,,,,,,,,,,,,,,,,,,,,,,,,,,,,,,,,,,,,,,,,,,,,,,,,,,,,,,,,,,,,,,,,,,,,,,,,,,,,,,,,,,,,,,,,,,,,,,,,,,,,,,,,,,,,,,,,,,
,,697a6b7b9aabee3f87764438,2026-03-17_07h22.03.079,kallum_motion_pilot_GIST_update_2,2026.1.1,Win32,74.62686567,697a6b7b9aabee3f87764438,69b92ab4aef6dee357cd729a,69b92b54bd44ad5b54366fcd,0.1194,0.1194,1,28,190,43,1,twofour,,,,,,,,,,,,,,,,,,,,,,,,,,,,,,,,,,,,,,,,,,,,,,,,,,,,,,,,,,,,,,,,,,,,,,,,,,,,,,,,,,,,,,,,,,,,,,,,,,,,,,,,,,,,,,,,,,,,,,,,,,,,,,,,,,,,,,,,,
,,697a6b7b9aabee3f87764438,2026-03-17_07h22.03.079,kallum_motion_pilot_GIST_update_2,2026.1.1,Win32,74.62686567,697a6b7b9aabee3f87764438,69b92ab4aef6dee357cd729a,69b92b54bd44ad5b54366fcd,0.1198,0.1198,1,29,191,116,1,sevenfive,,,,,,,,,,,,,,,,,,,,,,,,,,,,,,,,,,,,,,,,,,,,,,,,,,,,,,,,,,,,,,,,,,,,,,,,,,,,,,,,,,,,,,,,,,,,,,,,,,,,,,,,,,,,,,,,,,,,,,,,,,,,,,,,,,,,,,,,,
,,697a6b7b9aabee3f87764438,2026-03-17_07h22.03.079,kallum_motion_pilot_GIST_update_2,2026.1.1,Win32,74.62686567,697a6b7b9aabee3f87764438,69b92ab4aef6dee357cd729a,69b92b54bd44ad5b54366fcd,0.1202,0.1202,1,30,192,96,1,fivesix,,,,,,,,,,,,,,,,,,,,,,,,,,,,,,,,,,,,,,,,,,,,,,,,,,,,,,,,,,,,,,,,,,,,,,,,,,,,,,,,,,,,,,,,,,,,,,,,,,,,,,,,,,,,,,,,,,,,,,,,,,,,,,,,,,,,,,,,,
,,697a6b7b9aabee3f87764438,2026-03-17_07h22.03.079,kallum_motion_pilot_GIST_update_2,2026.1.1,Win32,74.62686567,697a6b7b9aabee3f87764438,69b92ab4aef6dee357cd729a,69b92b54bd44ad5b54366fcd,0.1205,0.1205,1,31,193,159,1,eightseven,,,,,,,,,,,,,,,,,,,,,,,,,,,,,,,,,,,,,,,,,,,,,,,,,,,,,,,,,,,,,,,,,,,,,,,,,,,,,,,,,,,,,,,,,,,,,,,,,,,,,,,,,,,,,,,,,,,,,,,,,,,,,,,,,,,,,,,,,
,,697a6b7b9aabee3f87764438,2026-03-17_07h22.03.079,kallum_motion_pilot_GIST_update_2,2026.1.1,Win32,74.62686567,697a6b7b9aabee3f87764438,69b92ab4aef6dee357cd729a,69b92b54bd44ad5b54366fcd,0.121,0.121,1,32,194,3,1,twofour,,,,,,,,,,,,,,,,,,,,,,,,,,,,,,,,,,,,,,,,,,,,,,,,,,,,,,,,,,,,,,,,,,,,,,,,,,,,,,,,,,,,,,,,,,,,,,,,,,,,,,,,,,,,,,,,,,,,,,,,,,,,,,,,,,,,,,,,,
,,697a6b7b9aabee3f87764438,2026-03-17_07h22.03.079,kallum_motion_pilot_GIST_update_2,2026.1.1,Win32,74.62686567,697a6b7b9aabee3f87764438,69b92ab4aef6dee357cd729a,69b92b54bd44ad5b54366fcd,0.1213,0.1213,1,33,195,36,1,threeone,,,,,,,,,,,,,,,,,,,,,,,,,,,,,,,,,,,,,,,,,,,,,,,,,,,,,,,,,,,,,,,,,,,,,,,,,,,,,,,,,,,,,,,,,,,,,,,,,,,,,,,,,,,,,,,,,,,,,,,,,,,,,,,,,,,,,,,,,
,,697a6b7b9aabee3f87764438,2026-03-17_07h22.03.079,kallum_motion_pilot_GIST_update_2,2026.1.1,Win32,74.62686567,697a6b7b9aabee3f87764438,69b92ab4aef6dee357cd729a,69b92b54bd44ad5b54366fcd,0.1217,0.1217,1,34,196,129,1,fiveseven,,,,,,,,,,,,,,,,,,,,,,,,,,,,,,,,,,,,,,,,,,,,,,,,,,,,,,,,,,,,,,,,,,,,,,,,,,,,,,,,,,,,,,,,,,,,,,,,,,,,,,,,,,,,,,,,,,,,,,,,,,,,,,,,,,,,,,,,,
,,697a6b7b9aabee3f87764438,2026-03-17_07h22.03.079,kallum_motion_pilot_GIST_update_2,2026.1.1,Win32,74.62686567,697a6b7b9aabee3f87764438,69b92ab4aef6dee357cd729a,69b92b54bd44ad5b54366fcd,0.1221,0.1221,1,35,197,125,1,seveneight,,,,,,,,,,,,,,,,,,,,,,,,,,,,,,,,,,,,,,,,,,,,,,,,,,,,,,,,,,,,,,,,,,,,,,,,,,,,,,,,,,,,,,,,,,,,,,,,,,,,,,,,,,,,,,,,,,,,,,,,,,,,,,,,,,,,,,,,,
,,697a6b7b9aabee3f87764438,2026-03-17_07h22.03.079,kallum_motion_pilot_GIST_update_2,2026.1.1,Win32,74.62686567,697a6b7b9aabee3f87764438,69b92ab4aef6dee357cd729a,69b92b54bd44ad5b54366fcd,0.1227,0.1227,1,36,198,7,1,fourthree,,,,,,,,,,,,,,,,,,,,,,,,,,,,,,,,,,,,,,,,,,,,,,,,,,,,,,,,,,,,,,,,,,,,,,,,,,,,,,,,,,,,,,,,,,,,,,,,,,,,,,,,,,,,,,,,,,,,,,,,,,,,,,,,,,,,,,,,,
,,697a6b7b9aabee3f87764438,2026-03-17_07h22.03.079,kallum_motion_pilot_GIST_update_2,2026.1.1,Win32,74.62686567,697a6b7b9aabee3f87764438,69b92ab4aef6dee357cd729a,69b92b54bd44ad5b54366fcd,0.1233,0.1233,1,37,199,135,1,eightseven,,,,,,,,,,,,,,,,,,,,,,,,,,,,,,,,,,,,,,,,,,,,,,,,,,,,,,,,,,,,,,,,,,,,,,,,,,,,,,,,,,,,,,,,,,,,,,,,,,,,,,,,,,,,,,,,,,,,,,,,,,,,,,,,,,,,,,,,,
,,697a6b7b9aabee3f87764438,2026-03-17_07h22.03.079,kallum_motion_pilot_GIST_update_2,2026.1.1,Win32,74.62686567,697a6b7b9aabee3f87764438,69b92ab4aef6dee357cd729a,69b92b54bd44ad5b54366fcd,0.1236,0.1236,1,38,200,91,1,sixeight,,,,,,,,,,,,,,,,,,,,,,,,,,,,,,,,,,,,,,,,,,,,,,,,,,,,,,,,,,,,,,,,,,,,,,,,,,,,,,,,,,,,,,,,,,,,,,,,,,,,,,,,,,,,,,,,,,,,,,,,,,,,,,,,,,,,,,,,,
,,697a6b7b9aabee3f87764438,2026-03-17_07h22.03.079,kallum_motion_pilot_GIST_update_2,2026.1.1,Win32,74.62686567,697a6b7b9aabee3f87764438,69b92ab4aef6dee357cd729a,69b92b54bd44ad5b54366fcd,0.1239,0.1239,1,39,201,103,1,eightseven,,,,,,,,,,,,,,,,,,,,,,,,,,,,,,,,,,,,,,,,,,,,,,,,,,,,,,,,,,,,,,,,,,,,,,,,,,,,,,,,,,,,,,,,,,,,,,,,,,,,,,,,,,,,,,,,,,,,,,,,,,,,,,,,,,,,,,,,,
,,697a6b7b9aabee3f87764438,2026-03-17_07h22.03.079,kallum_motion_pilot_GIST_update_2,2026.1.1,Win32,74.62686567,697a6b7b9aabee3f87764438,69b92ab4aef6dee357cd729a,69b92b54bd44ad5b54366fcd,0.1242,0.1242,1,40,202,44,1,threeone,,,,,,,,,,,,,,,,,,,,,,,,,,,,,,,,,,,,,,,,,,,,,,,,,,,,,,,,,,,,,,,,,,,,,,,,,,,,,,,,,,,,,,,,,,,,,,,,,,,,,,,,,,,,,,,,,,,,,,,,,,,,,,,,,,,,,,,,,
,,697a6b7b9aabee3f87764438,2026-03-17_07h22.03.079,kallum_motion_pilot_GIST_update_2,2026.1.1,Win32,74.62686567,697a6b7b9aabee3f87764438,69b92ab4aef6dee357cd729a,69b92b54bd44ad5b54366fcd,0.1244,0.1244,1,41,203,40,1,onetwo,,,,,,,,,,,,,,,,,,,,,,,,,,,,,,,,,,,,,,,,,,,,,,,,,,,,,,,,,,,,,,,,,,,,,,,,,,,,,,,,,,,,,,,,,,,,,,,,,,,,,,,,,,,,,,,,,,,,,,,,,,,,,,,,,,,,,,,,,
,,697a6b7b9aabee3f87764438,2026-03-17_07h22.03.079,kallum_motion_pilot_GIST_update_2,2026.1.1,Win32,74.62686567,697a6b7b9aabee3f87764438,69b92ab4aef6dee357cd729a,69b92b54bd44ad5b54366fcd,0.1248,0.1248,1,42,204,155,1,sixeight,,,,,,,,,,,,,,,,,,,,,,,,,,,,,,,,,,,,,,,,,,,,,,,,,,,,,,,,,,,,,,,,,,,,,,,,,,,,,,,,,,,,,,,,,,,,,,,,,,,,,,,,,,,,,,,,,,,,,,,,,,,,,,,,,,,,,,,,,
,,697a6b7b9aabee3f87764438,2026-03-17_07h22.03.079,kallum_motion_pilot_GIST_update_2,2026.1.1,Win32,74.62686567,697a6b7b9aabee3f87764438,69b92ab4aef6dee357cd729a,69b92b54bd44ad5b54366fcd,0.125,0.125,1,43,205,33,1,onethree,,,,,,,,,,,,,,,,,,,,,,,,,,,,,,,,,,,,,,,,,,,,,,,,,,,,,,,,,,,,,,,,,,,,,,,,,,,,,,,,,,,,,,,,,,,,,,,,,,,,,,,,,,,,,,,,,,,,,,,,,,,,,,,,,,,,,,,,,
,,697a6b7b9aabee3f87764438,2026-03-17_07h22.03.079,kallum_motion_pilot_GIST_update_2,2026.1.1,Win32,74.62686567,697a6b7b9aabee3f87764438,69b92ab4aef6dee357cd729a,69b92b54bd44ad5b54366fcd,0.1253,0.1253,1,44,206,24,1,onetwo,,,,,,,,,,,,,,,,,,,,,,,,,,,,,,,,,,,,,,,,,,,,,,,,,,,,,,,,,,,,,,,,,,,,,,,,,,,,,,,,,,,,,,,,,,,,,,,,,,,,,,,,,,,,,,,,,,,,,,,,,,,,,,,,,,,,,,,,,
,,697a6b7b9aabee3f87764438,2026-03-17_07h22.03.079,kallum_motion_pilot_GIST_update_2,2026.1.1,Win32,74.62686567,697a6b7b9aabee3f87764438,69b92ab4aef6dee357cd729a,69b92b54bd44ad5b54366fcd,0.1256,0.1256,1,45,207,62,1,fourtwo,,,,,,,,,,,,,,,,,,,,,,,,,,,,,,,,,,,,,,,,,,,,,,,,,,,,,,,,,,,,,,,,,,,,,,,,,,,,,,,,,,,,,,,,,,,,,,,,,,,,,,,,,,,,,,,,,,,,,,,,,,,,,,,,,,,,,,,,,
,,697a6b7b9aabee3f87764438,2026-03-17_07h22.03.079,kallum_motion_pilot_GIST_update_2,2026.1.1,Win32,74.62686567,697a6b7b9aabee3f87764438,69b92ab4aef6dee357cd729a,69b92b54bd44ad5b54366fcd,0.1259,0.1259,1,46,208,17,1,onethree,,,,,,,,,,,,,,,,,,,,,,,,,,,,,,,,,,,,,,,,,,,,,,,,,,,,,,,,,,,,,,,,,,,,,,,,,,,,,,,,,,,,,,,,,,,,,,,,,,,,,,,,,,,,,,,,,,,,,,,,,,,,,,,,,,,,,,,,,
,,697a6b7b9aabee3f87764438,2026-03-17_07h22.03.079,kallum_motion_pilot_GIST_update_2,2026.1.1,Win32,74.62686567,697a6b7b9aabee3f87764438,69b92ab4aef6dee357cd729a,69b92b54bd44ad5b54366fcd,0.1263,0.1263,1,47,209,68,1,threeone,,,,,,,,,,,,,,,,,,,,,,,,,,,,,,,,,,,,,,,,,,,,,,,,,,,,,,,,,,,,,,,,,,,,,,,,,,,,,,,,,,,,,,,,,,,,,,,,,,,,,,,,,,,,,,,,,,,,,,,,,,,,,,,,,,,,,,,,,
,,697a6b7b9aabee3f87764438,2026-03-17_07h22.03.079,kallum_motion_pilot_GIST_update_2,2026.1.1,Win32,74.62686567,697a6b7b9aabee3f87764438,69b92ab4aef6dee357cd729a,69b92b54bd44ad5b54366fcd,0.1265,0.1266,1,48,210,12,1,threeone,,,,,,,,,,,,,,,,,,,,,,,,,,,,,,,,,,,,,,,,,,,,,,,,,,,,,,,,,,,,,,,,,,,,,,,,,,,,,,,,,,,,,,,,,,,,,,,,,,,,,,,,,,,,,,,,,,,,,,,,,,,,,,,,,,,,,,,,,
,,697a6b7b9aabee3f87764438,2026-03-17_07h22.03.079,kallum_motion_pilot_GIST_update_2,2026.1.1,Win32,74.62686567,697a6b7b9aabee3f87764438,69b92ab4aef6dee357cd729a,69b92b54bd44ad5b54366fcd,0.1269,0.1269,1,49,211,105,1,fiveseven,,,,,,,,,,,,,,,,,,,,,,,,,,,,,,,,,,,,,,,,,,,,,,,,,,,,,,,,,,,,,,,,,,,,,,,,,,,,,,,,,,,,,,,,,,,,,,,,,,,,,,,,,,,,,,,,,,,,,,,,,,,,,,,,,,,,,,,,,
,,697a6b7b9aabee3f87764438,2026-03-17_07h22.03.079,kallum_motion_pilot_GIST_update_2,2026.1.1,Win32,74.62686567,697a6b7b9aabee3f87764438,69b92ab4aef6dee357cd729a,69b92b54bd44ad5b54366fcd,0.1273,0.1273,1,50,212,112,1,fivesix,,,,,,,,,,,,,,,,,,,,,,,,,,,,,,,,,,,,,,,,,,,,,,,,,,,,,,,,,,,,,,,,,,,,,,,,,,,,,,,,,,,,,,,,,,,,,,,,,,,,,,,,,,,,,,,,,,,,,,,,,,,,,,,,,,,,,,,,,
,,697a6b7b9aabee3f87764438,2026-03-17_07h22.03.079,kallum_motion_pilot_GIST_update_2,2026.1.1,Win32,74.62686567,697a6b7b9aabee3f87764438,69b92ab4aef6dee357cd729a,69b92b54bd44ad5b54366fcd,0.1276,0.1276,1,51,213,63,1,fourthree,,,,,,,,,,,,,,,,,,,,,,,,,,,,,,,,,,,,,,,,,,,,,,,,,,,,,,,,,,,,,,,,,,,,,,,,,,,,,,,,,,,,,,,,,,,,,,,,,,,,,,,,,,,,,,,,,,,,,,,,,,,,,,,,,,,,,,,,,
,,697a6b7b9aabee3f87764438,2026-03-17_07h22.03.079,kallum_motion_pilot_GIST_update_2,2026.1.1,Win32,74.62686567,697a6b7b9aabee3f87764438,69b92ab4aef6dee357cd729a,69b92b54bd44ad5b54366fcd,0.1281,0.1281,1,52,214,27,1,twofour,,,,,,,,,,,,,,,,,,,,,,,,,,,,,,,,,,,,,,,,,,,,,,,,,,,,,,,,,,,,,,,,,,,,,,,,,,,,,,,,,,,,,,,,,,,,,,,,,,,,,,,,,,,,,,,,,,,,,,,,,,,,,,,,,,,,,,,,,
,,697a6b7b9aabee3f87764438,2026-03-17_07h22.03.079,kallum_motion_pilot_GIST_update_2,2026.1.1,Win32,74.62686567,697a6b7b9aabee3f87764438,69b92ab4aef6dee357cd729a,69b92b54bd44ad5b54366fcd,0.1285,0.1285,1,53,215,79,1,eightseven,,,,,,,,,,,,,,,,,,,,,,,,,,,,,,,,,,,,,,,,,,,,,,,,,,,,,,,,,,,,,,,,,,,,,,,,,,,,,,,,,,,,,,,,,,,,,,,,,,,,,,,,,,,,,,,,,,,,,,,,,,,,,,,,,,,,,,,,,
,,697a6b7b9aabee3f87764438,2026-03-17_07h22.03.079,kallum_motion_pilot_GIST_update_2,2026.1.1,Win32,74.62686567,697a6b7b9aabee3f87764438,69b92ab4aef6dee357cd729a,69b92b54bd44ad5b54366fcd,0.1289,0.1289,1,54,216,99,1,sixeight,,,,,,,,,,,,,,,,,,,,,,,,,,,,,,,,,,,,,,,,,,,,,,,,,,,,,,,,,,,,,,,,,,,,,,,,,,,,,,,,,,,,,,,,,,,,,,,,,,,,,,,,,,,,,,,,,,,,,,,,,,,,,,,,,,,,,,,,,
,,697a6b7b9aabee3f87764438,2026-03-17_07h22.03.079,kallum_motion_pilot_GIST_update_2,2026.1.1,Win32,74.62686567,697a6b7b9aabee3f87764438,69b92ab4aef6dee357cd729a,69b92b54bd44ad5b54366fcd,0.1292,0.1293,1,55,217,35,1,twofour,,,,,,,,,,,,,,,,,,,,,,,,,,,,,,,,,,,,,,,,,,,,,,,,,,,,,,,,,,,,,,,,,,,,,,,,,,,,,,,,,,,,,,,,,,,,,,,,,,,,,,,,,,,,,,,,,,,,,,,,,,,,,,,,,,,,,,,,,
,,697a6b7b9aabee3f87764438,2026-03-17_07h22.03.079,kallum_motion_pilot_GIST_update_2,2026.1.1,Win32,74.62686567,697a6b7b9aabee3f87764438,69b92ab4aef6dee357cd729a,69b92b54bd44ad5b54366fcd,0.1297,0.1297,1,56,218,82,1,sixfive,,,,,,,,,,,,,,,,,,,,,,,,,,,,,,,,,,,,,,,,,,,,,,,,,,,,,,,,,,,,,,,,,,,,,,,,,,,,,,,,,,,,,,,,,,,,,,,,,,,,,,,,,,,,,,,,,,,,,,,,,,,,,,,,,,,,,,,,,
,,697a6b7b9aabee3f87764438,2026-03-17_07h22.03.079,kallum_motion_pilot_GIST_update_2,2026.1.1,Win32,74.62686567,697a6b7b9aabee3f87764438,69b92ab4aef6dee357cd729a,69b92b54bd44ad5b54366fcd,0.1302,0.1302,1,57,219,148,1,sevenfive,,,,,,,,,,,,,,,,,,,,,,,,,,,,,,,,,,,,,,,,,,,,,,,,,,,,,,,,,,,,,,,,,,,,,,,,,,,,,,,,,,,,,,,,,,,,,,,,,,,,,,,,,,,,,,,,,,,,,,,,,,,,,,,,,,,,,,,,,
,,697a6b7b9aabee3f87764438,2026-03-17_07h22.03.079,kallum_motion_pilot_GIST_update_2,2026.1.1,Win32,74.62686567,697a6b7b9aabee3f87764438,69b92ab4aef6dee357cd729a,69b92b54bd44ad5b54366fcd,0.1305,0.1305,1,58,220,94,1,eightsix,,,,,,,,,,,,,,,,,,,,,,,,,,,,,,,,,,,,,,,,,,,,,,,,,,,,,,,,,,,,,,,,,,,,,,,,,,,,,,,,,,,,,,,,,,,,,,,,,,,,,,,,,,,,,,,,,,,,,,,,,,,,,,,,,,,,,,,,,
,,697a6b7b9aabee3f87764438,2026-03-17_07h22.03.079,kallum_motion_pilot_GIST_update_2,2026.1.1,Win32,74.62686567,697a6b7b9aabee3f87764438,69b92ab4aef6dee357cd729a,69b92b54bd44ad5b54366fcd,0.1308,0.1309,1,59,221,160,1,fivesix,,,,,,,,,,,,,,,,,,,,,,,,,,,,,,,,,,,,,,,,,,,,,,,,,,,,,,,,,,,,,,,,,,,,,,,,,,,,,,,,,,,,,,,,,,,,,,,,,,,,,,,,,,,,,,,,,,,,,,,,,,,,,,,,,,,,,,,,,
,,697a6b7b9aabee3f87764438,2026-03-17_07h22.03.079,kallum_motion_pilot_GIST_update_2,2026.1.1,Win32,74.62686567,697a6b7b9aabee3f87764438,69b92ab4aef6dee357cd729a,69b92b54bd44ad5b54366fcd,0.1313,0.1313,1,60,222,56,1,onetwo,,,,,,,,,,,,,,,,,,,,,,,,,,,,,,,,,,,,,,,,,,,,,,,,,,,,,,,,,,,,,,,,,,,,,,,,,,,,,,,,,,,,,,,,,,,,,,,,,,,,,,,,,,,,,,,,,,,,,,,,,,,,,,,,,,,,,,,,,
,,697a6b7b9aabee3f87764438,2026-03-17_07h22.03.079,kallum_motion_pilot_GIST_update_2,2026.1.1,Win32,74.62686567,697a6b7b9aabee3f87764438,69b92ab4aef6dee357cd729a,69b92b54bd44ad5b54366fcd,0.1317,0.1317,1,61,223,21,1,threefour,,,,,,,,,,,,,,,,,,,,,,,,,,,,,,,,,,,,,,,,,,,,,,,,,,,,,,,,,,,,,,,,,,,,,,,,,,,,,,,,,,,,,,,,,,,,,,,,,,,,,,,,,,,,,,,,,,,,,,,,,,,,,,,,,,,,,,,,,
,,697a6b7b9aabee3f87764438,2026-03-17_07h22.03.079,kallum_motion_pilot_GIST_update_2,2026.1.1,Win32,74.62686567,697a6b7b9aabee3f87764438,69b92ab4aef6dee357cd729a,69b92b54bd44ad5b54366fcd,0.1321,0.1322,1,62,224,42,1,twoone,,,,,,,,,,,,,,,,,,,,,,,,,,,,,,,,,,,,,,,,,,,,,,,,,,,,,,,,,,,,,,,,,,,,,,,,,,,,,,,,,,,,,,,,,,,,,,,,,,,,,,,,,,,,,,,,,,,,,,,,,,,,,,,,,,,,,,,,,
,,697a6b7b9aabee3f87764438,2026-03-17_07h22.03.079,kallum_motion_pilot_GIST_update_2,2026.1.1,Win32,74.62686567,697a6b7b9aabee3f87764438,69b92ab4aef6dee357cd729a,69b92b54bd44ad5b54366fcd,0.1326,0.1326,1,63,225,34,1,twoone,,,,,,,,,,,,,,,,,,,,,,,,,,,,,,,,,,,,,,,,,,,,,,,,,,,,,,,,,,,,,,,,,,,,,,,,,,,,,,,,,,,,,,,,,,,,,,,,,,,,,,,,,,,,,,,,,,,,,,,,,,,,,,,,,,,,,,,,,
,,697a6b7b9aabee3f87764438,2026-03-17_07h22.03.079,kallum_motion_pilot_GIST_update_2,2026.1.1,Win32,74.62686567,697a6b7b9aabee3f87764438,69b92ab4aef6dee357cd729a,69b92b54bd44ad5b54366fcd,0.1329,0.133,1,64,226,139,1,sixeight,,,,,,,,,,,,,,,,,,,,,,,,,,,,,,,,,,,,,,,,,,,,,,,,,,,,,,,,,,,,,,,,,,,,,,,,,,,,,,,,,,,,,,,,,,,,,,,,,,,,,,,,,,,,,,,,,,,,,,,,,,,,,,,,,,,,,,,,,
,,697a6b7b9aabee3f87764438,2026-03-17_07h22.03.079,kallum_motion_pilot_GIST_update_2,2026.1.1,Win32,74.62686567,697a6b7b9aabee3f87764438,69b92ab4aef6dee357cd729a,69b92b54bd44ad5b54366fcd,0.1333,0.1333,1,65,227,150,1,eightsix,,,,,,,,,,,,,,,,,,,,,,,,,,,,,,,,,,,,,,,,,,,,,,,,,,,,,,,,,,,,,,,,,,,,,,,,,,,,,,,,,,,,,,,,,,,,,,,,,,,,,,,,,,,,,,,,,,,,,,,,,,,,,,,,,,,,,,,,,
,,697a6b7b9aabee3f87764438,2026-03-17_07h22.03.079,kallum_motion_pilot_GIST_update_2,2026.1.1,Win32,74.62686567,697a6b7b9aabee3f87764438,69b92ab4aef6dee357cd729a,69b92b54bd44ad5b54366fcd,0.1337,0.1337,1,66,228,115,1,sixeight,,,,,,,,,,,,,,,,,,,,,,,,,,,,,,,,,,,,,,,,,,,,,,,,,,,,,,,,,,,,,,,,,,,,,,,,,,,,,,,,,,,,,,,,,,,,,,,,,,,,,,,,,,,,,,,,,,,,,,,,,,,,,,,,,,,,,,,,,
,,697a6b7b9aabee3f87764438,2026-03-17_07h22.03.079,kallum_motion_pilot_GIST_update_2,2026.1.1,Win32,74.62686567,697a6b7b9aabee3f87764438,69b92ab4aef6dee357cd729a,69b92b54bd44ad5b54366fcd,0.1341,0.1341,1,67,229,22,1,fourtwo,,,,,,,,,,,,,,,,,,,,,,,,,,,,,,,,,,,,,,,,,,,,,,,,,,,,,,,,,,,,,,,,,,,,,,,,,,,,,,,,,,,,,,,,,,,,,,,,,,,,,,,,,,,,,,,,,,,,,,,,,,,,,,,,,,,,,,,,,
,,697a6b7b9aabee3f87764438,2026-03-17_07h22.03.079,kallum_motion_pilot_GIST_update_2,2026.1.1,Win32,74.62686567,697a6b7b9aabee3f87764438,69b92ab4aef6dee357cd729a,69b92b54bd44ad5b54366fcd,0.1345,0.1345,1,68,230,0,1,onetwo,,,,,,,,,,,,,,,,,,,,,,,,,,,,,,,,,,,,,,,,,,,,,,,,,,,,,,,,,,,,,,,,,,,,,,,,,,,,,,,,,,,,,,,,,,,,,,,,,,,,,,,,,,,,,,,,,,,,,,,,,,,,,,,,,,,,,,,,,
,,697a6b7b9aabee3f87764438,2026-03-17_07h22.03.079,kallum_motion_pilot_GIST_update_2,2026.1.1,Win32,74.62686567,697a6b7b9aabee3f87764438,69b92ab4aef6dee357cd729a,69b92b54bd44ad5b54366fcd,0.1349,0.1349,1,69,231,92,1,sevenfive,,,,,,,,,,,,,,,,,,,,,,,,,,,,,,,,,,,,,,,,,,,,,,,,,,,,,,,,,,,,,,,,,,,,,,,,,,,,,,,,,,,,,,,,,,,,,,,,,,,,,,,,,,,,,,,,,,,,,,,,,,,,,,,,,,,,,,,,,
,,697a6b7b9aabee3f87764438,2026-03-17_07h22.03.079,kallum_motion_pilot_GIST_update_2,2026.1.1,Win32,74.62686567,697a6b7b9aabee3f87764438,69b92ab4aef6dee357cd729a,69b92b54bd44ad5b54366fcd,0.1353,0.1353,1,70,232,88,1,fivesix,,,,,,,,,,,,,,,,,,,,,,,,,,,,,,,,,,,,,,,,,,,,,,,,,,,,,,,,,,,,,,,,,,,,,,,,,,,,,,,,,,,,,,,,,,,,,,,,,,,,,,,,,,,,,,,,,,,,,,,,,,,,,,,,,,,,,,,,,
,,697a6b7b9aabee3f87764438,2026-03-17_07h22.03.079,kallum_motion_pilot_GIST_update_2,2026.1.1,Win32,74.62686567,697a6b7b9aabee3f87764438,69b92ab4aef6dee357cd729a,69b92b54bd44ad5b54366fcd,0.1361,0.1361,1,71,233,109,1,seveneight,,,,,,,,,,,,,,,,,,,,,,,,,,,,,,,,,,,,,,,,,,,,,,,,,,,,,,,,,,,,,,,,,,,,,,,,,,,,,,,,,,,,,,,,,,,,,,,,,,,,,,,,,,,,,,,,,,,,,,,,,,,,,,,,,,,,,,,,,
,,697a6b7b9aabee3f87764438,2026-03-17_07h22.03.079,kallum_motion_pilot_GIST_update_2,2026.1.1,Win32,74.62686567,697a6b7b9aabee3f87764438,69b92ab4aef6dee357cd729a,69b92b54bd44ad5b54366fcd,0.137,0.137,1,72,234,127,1,eightseven,,,,,,,,,,,,,,,,,,,,,,,,,,,,,,,,,,,,,,,,,,,,,,,,,,,,,,,,,,,,,,,,,,,,,,,,,,,,,,,,,,,,,,,,,,,,,,,,,,,,,,,,,,,,,,,,,,,,,,,,,,,,,,,,,,,,,,,,,
,,697a6b7b9aabee3f87764438,2026-03-17_07h22.03.079,kallum_motion_pilot_GIST_update_2,2026.1.1,Win32,74.62686567,697a6b7b9aabee3f87764438,69b92ab4aef6dee357cd729a,69b92b54bd44ad5b54366fcd,0.1375,0.1375,1,73,235,4,1,threeone,,,,,,,,,,,,,,,,,,,,,,,,,,,,,,,,,,,,,,,,,,,,,,,,,,,,,,,,,,,,,,,,,,,,,,,,,,,,,,,,,,,,,,,,,,,,,,,,,,,,,,,,,,,,,,,,,,,,,,,,,,,,,,,,,,,,,,,,,
,,697a6b7b9aabee3f87764438,2026-03-17_07h22.03.079,kallum_motion_pilot_GIST_update_2,2026.1.1,Win32,74.62686567,697a6b7b9aabee3f87764438,69b92ab4aef6dee357cd729a,69b92b54bd44ad5b54366fcd,0.1379,0.1379,1,74,236,51,1,twofour,,,,,,,,,,,,,,,,,,,,,,,,,,,,,,,,,,,,,,,,,,,,,,,,,,,,,,,,,,,,,,,,,,,,,,,,,,,,,,,,,,,,,,,,,,,,,,,,,,,,,,,,,,,,,,,,,,,,,,,,,,,,,,,,,,,,,,,,,
,,697a6b7b9aabee3f87764438,2026-03-17_07h22.03.079,kallum_motion_pilot_GIST_update_2,2026.1.1,Win32,74.62686567,697a6b7b9aabee3f87764438,69b92ab4aef6dee357cd729a,69b92b54bd44ad5b54366fcd,0.1383,0.1384,1,75,237,156,1,sevenfive,,,,,,,,,,,,,,,,,,,,,,,,,,,,,,,,,,,,,,,,,,,,,,,,,,,,,,,,,,,,,,,,,,,,,,,,,,,,,,,,,,,,,,,,,,,,,,,,,,,,,,,,,,,,,,,,,,,,,,,,,,,,,,,,,,,,,,,,,
,,697a6b7b9aabee3f87764438,2026-03-17_07h22.03.079,kallum_motion_pilot_GIST_update_2,2026.1.1,Win32,74.62686567,697a6b7b9aabee3f87764438,69b92ab4aef6dee357cd729a,69b92b54bd44ad5b54366fcd,0.1388,0.1388,1,76,238,123,1,sixeight,,,,,,,,,,,,,,,,,,,,,,,,,,,,,,,,,,,,,,,,,,,,,,,,,,,,,,,,,,,,,,,,,,,,,,,,,,,,,,,,,,,,,,,,,,,,,,,,,,,,,,,,,,,,,,,,,,,,,,,,,,,,,,,,,,,,,,,,,
,,697a6b7b9aabee3f87764438,2026-03-17_07h22.03.079,kallum_motion_pilot_GIST_update_2,2026.1.1,Win32,74.62686567,697a6b7b9aabee3f87764438,69b92ab4aef6dee357cd729a,69b92b54bd44ad5b54366fcd,0.1392,0.1393,1,77,239,26,1,twoone,,,,,,,,,,,,,,,,,,,,,,,,,,,,,,,,,,,,,,,,,,,,,,,,,,,,,,,,,,,,,,,,,,,,,,,,,,,,,,,,,,,,,,,,,,,,,,,,,,,,,,,,,,,,,,,,,,,,,,,,,,,,,,,,,,,,,,,,,
,,697a6b7b9aabee3f87764438,2026-03-17_07h22.03.079,kallum_motion_pilot_GIST_update_2,2026.1.1,Win32,74.62686567,697a6b7b9aabee3f87764438,69b92ab4aef6dee357cd729a,69b92b54bd44ad5b54366fcd,0.1397,0.1398,1,78,240,20,1,threeone,,,,,,,,,,,,,,,,,,,,,,,,,,,,,,,,,,,,,,,,,,,,,,,,,,,,,,,,,,,,,,,,,,,,,,,,,,,,,,,,,,,,,,,,,,,,,,,,,,,,,,,,,,,,,,,,,,,,,,,,,,,,,,,,,,,,,,,,,
,,697a6b7b9aabee3f87764438,2026-03-17_07h22.03.079,kallum_motion_pilot_GIST_update_2,2026.1.1,Win32,74.62686567,697a6b7b9aabee3f87764438,69b92ab4aef6dee357cd729a,69b92b54bd44ad5b54366fcd,0.1401,0.1401,1,79,241,72,1,onetwo,,,,,,,,,,,,,,,,,,,,,,,,,,,,,,,,,,,,,,,,,,,,,,,,,,,,,,,,,,,,,,,,,,,,,,,,,,,,,,,,,,,,,,,,,,,,,,,,,,,,,,,,,,,,,,,,,,,,,,,,,,,,,,,,,,,,,,,,,
,,697a6b7b9aabee3f87764438,2026-03-17_07h22.03.079,kallum_motion_pilot_GIST_update_2,2026.1.1,Win32,74.62686567,697a6b7b9aabee3f87764438,69b92ab4aef6dee357cd729a,69b92b54bd44ad5b54366fcd,0.1407,0.1408,1,80,242,59,1,twofour,,,,,,,,,,,,,,,,,,,,,,,,,,,,,,,,,,,,,,,,,,,,,,,,,,,,,,,,,,,,,,,,,,,,,,,,,,,,,,,,,,,,,,,,,,,,,,,,,,,,,,,,,,,,,,,,,,,,,,,,,,,,,,,,,,,,,,,,,
,,697a6b7b9aabee3f87764438,2026-03-17_07h22.03.079,kallum_motion_pilot_GIST_update_2,2026.1.1,Win32,74.62686567,697a6b7b9aabee3f87764438,69b92ab4aef6dee357cd729a,69b92b54bd44ad5b54366fcd,0.1412,0.1412,1,81,243,29,1,threefour,,,,,,,,,,,,,,,,,,,,,,,,,,,,,,,,,,,,,,,,,,,,,,,,,,,,,,,,,,,,,,,,,,,,,,,,,,,,,,,,,,,,,,,,,,,,,,,,,,,,,,,,,,,,,,,,,,,,,,,,,,,,,,,,,,,,,,,,,
,,697a6b7b9aabee3f87764438,2026-03-17_07h22.03.079,kallum_motion_pilot_GIST_update_2,2026.1.1,Win32,74.62686567,697a6b7b9aabee3f87764438,69b92ab4aef6dee357cd729a,69b92b54bd44ad5b54366fcd,0.1416,0.1417,1,82,244,143,1,eightseven,,,,,,,,,,,,,,,,,,,,,,,,,,,,,,,,,,,,,,,,,,,,,,,,,,,,,,,,,,,,,,,,,,,,,,,,,,,,,,,,,,,,,,,,,,,,,,,,,,,,,,,,,,,,,,,,,,,,,,,,,,,,,,,,,,,,,,,,,
,,697a6b7b9aabee3f87764438,2026-03-17_07h22.03.079,kallum_motion_pilot_GIST_update_2,2026.1.1,Win32,74.62686567,697a6b7b9aabee3f87764438,69b92ab4aef6dee357cd729a,69b92b54bd44ad5b54366fcd,0.1423,0.1423,1,83,245,144,1,fivesix,,,,,,,,,,,,,,,,,,,,,,,,,,,,,,,,,,,,,,,,,,,,,,,,,,,,,,,,,,,,,,,,,,,,,,,,,,,,,,,,,,,,,,,,,,,,,,,,,,,,,,,,,,,,,,,,,,,,,,,,,,,,,,,,,,,,,,,,,
,,697a6b7b9aabee3f87764438,2026-03-17_07h22.03.079,kallum_motion_pilot_GIST_update_2,2026.1.1,Win32,74.62686567,697a6b7b9aabee3f87764438,69b92ab4aef6dee357cd729a,69b92b54bd44ad5b54366fcd,0.1428,0.1429,1,84,246,97,1,fiveseven,,,,,,,,,,,,,,,,,,,,,,,,,,,,,,,,,,,,,,,,,,,,,,,,,,,,,,,,,,,,,,,,,,,,,,,,,,,,,,,,,,,,,,,,,,,,,,,,,,,,,,,,,,,,,,,,,,,,,,,,,,,,,,,,,,,,,,,,,
,,697a6b7b9aabee3f87764438,2026-03-17_07h22.03.079,kallum_motion_pilot_GIST_update_2,2026.1.1,Win32,74.62686567,697a6b7b9aabee3f87764438,69b92ab4aef6dee357cd729a,69b92b54bd44ad5b54366fcd,0.1433,0.1433,1,85,247,71,1,fourthree,,,,,,,,,,,,,,,,,,,,,,,,,,,,,,,,,,,,,,,,,,,,,,,,,,,,,,,,,,,,,,,,,,,,,,,,,,,,,,,,,,,,,,,,,,,,,,,,,,,,,,,,,,,,,,,,,,,,,,,,,,,,,,,,,,,,,,,,,
,,697a6b7b9aabee3f87764438,2026-03-17_07h22.03.079,kallum_motion_pilot_GIST_update_2,2026.1.1,Win32,74.62686567,697a6b7b9aabee3f87764438,69b92ab4aef6dee357cd729a,69b92b54bd44ad5b54366fcd,0.1439,0.144,1,86,248,25,1,onethree,,,,,,,,,,,,,,,,,,,,,,,,,,,,,,,,,,,,,,,,,,,,,,,,,,,,,,,,,,,,,,,,,,,,,,,,,,,,,,,,,,,,,,,,,,,,,,,,,,,,,,,,,,,,,,,,,,,,,,,,,,,,,,,,,,,,,,,,,
,,697a6b7b9aabee3f87764438,2026-03-17_07h22.03.079,kallum_motion_pilot_GIST_update_2,2026.1.1,Win32,74.62686567,697a6b7b9aabee3f87764438,69b92ab4aef6dee357cd729a,69b92b54bd44ad5b54366fcd,0.1444,0.1444,1,87,249,45,1,threefour,,,,,,,,,,,,,,,,,,,,,,,,,,,,,,,,,,,,,,,,,,,,,,,,,,,,,,,,,,,,,,,,,,,,,,,,,,,,,,,,,,,,,,,,,,,,,,,,,,,,,,,,,,,,,,,,,,,,,,,,,,,,,,,,,,,,,,,,,
,,697a6b7b9aabee3f87764438,2026-03-17_07h22.03.079,kallum_motion_pilot_GIST_update_2,2026.1.1,Win32,74.62686567,697a6b7b9aabee3f87764438,69b92ab4aef6dee357cd729a,69b92b54bd44ad5b54366fcd,0.1449,0.1449,1,88,250,61,1,threefour,,,,,,,,,,,,,,,,,,,,,,,,,,,,,,,,,,,,,,,,,,,,,,,,,,,,,,,,,,,,,,,,,,,,,,,,,,,,,,,,,,,,,,,,,,,,,,,,,,,,,,,,,,,,,,,,,,,,,,,,,,,,,,,,,,,,,,,,,
,,697a6b7b9aabee3f87764438,2026-03-17_07h22.03.079,kallum_motion_pilot_GIST_update_2,2026.1.1,Win32,74.62686567,697a6b7b9aabee3f87764438,69b92ab4aef6dee357cd729a,69b92b54bd44ad5b54366fcd,0.1452,0.1452,1,89,251,130,1,sixfive,,,,,,,,,,,,,,,,,,,,,,,,,,,,,,,,,,,,,,,,,,,,,,,,,,,,,,,,,,,,,,,,,,,,,,,,,,,,,,,,,,,,,,,,,,,,,,,,,,,,,,,,,,,,,,,,,,,,,,,,,,,,,,,,,,,,,,,,,
,,697a6b7b9aabee3f87764438,2026-03-17_07h22.03.079,kallum_motion_pilot_GIST_update_2,2026.1.1,Win32,74.62686567,697a6b7b9aabee3f87764438,69b92ab4aef6dee357cd729a,69b92b54bd44ad5b54366fcd,0.1455,0.1455,1,90,252,48,1,onetwo,,,,,,,,,,,,,,,,,,,,,,,,,,,,,,,,,,,,,,,,,,,,,,,,,,,,,,,,,,,,,,,,,,,,,,,,,,,,,,,,,,,,,,,,,,,,,,,,,,,,,,,,,,,,,,,,,,,,,,,,,,,,,,,,,,,,,,,,,
,,697a6b7b9aabee3f87764438,2026-03-17_07h22.03.079,kallum_motion_pilot_GIST_update_2,2026.1.1,Win32,74.62686567,697a6b7b9aabee3f87764438,69b92ab4aef6dee357cd729a,69b92b54bd44ad5b54366fcd,0.1458,0.1459,1,91,253,28,1,threeone,,,,,,,,,,,,,,,,,,,,,,,,,,,,,,,,,,,,,,,,,,,,,,,,,,,,,,,,,,,,,,,,,,,,,,,,,,,,,,,,,,,,,,,,,,,,,,,,,,,,,,,,,,,,,,,,,,,,,,,,,,,,,,,,,,,,,,,,,
,,697a6b7b9aabee3f87764438,2026-03-17_07h22.03.079,kallum_motion_pilot_GIST_update_2,2026.1.1,Win32,74.62686567,697a6b7b9aabee3f87764438,69b92ab4aef6dee357cd729a,69b92b54bd44ad5b54366fcd,0.1462,0.1463,1,92,254,120,1,fivesix,,,,,,,,,,,,,,,,,,,,,,,,,,,,,,,,,,,,,,,,,,,,,,,,,,,,,,,,,,,,,,,,,,,,,,,,,,,,,,,,,,,,,,,,,,,,,,,,,,,,,,,,,,,,,,,,,,,,,,,,,,,,,,,,,,,,,,,,,
,,697a6b7b9aabee3f87764438,2026-03-17_07h22.03.079,kallum_motion_pilot_GIST_update_2,2026.1.1,Win32,74.62686567,697a6b7b9aabee3f87764438,69b92ab4aef6dee357cd729a,69b92b54bd44ad5b54366fcd,0.1467,0.1467,1,93,255,2,1,twoone,,,,,,,,,,,,,,,,,,,,,,,,,,,,,,,,,,,,,,,,,,,,,,,,,,,,,,,,,,,,,,,,,,,,,,,,,,,,,,,,,,,,,,,,,,,,,,,,,,,,,,,,,,,,,,,,,,,,,,,,,,,,,,,,,,,,,,,,,
,,697a6b7b9aabee3f87764438,2026-03-17_07h22.03.079,kallum_motion_pilot_GIST_update_2,2026.1.1,Win32,74.62686567,697a6b7b9aabee3f87764438,69b92ab4aef6dee357cd729a,69b92b54bd44ad5b54366fcd,0.1469,0.1469,1,94,256,138,1,sixfive,,,,,,,,,,,,,,,,,,,,,,,,,,,,,,,,,,,,,,,,,,,,,,,,,,,,,,,,,,,,,,,,,,,,,,,,,,,,,,,,,,,,,,,,,,,,,,,,,,,,,,,,,,,,,,,,,,,,,,,,,,,,,,,,,,,,,,,,,
,,697a6b7b9aabee3f87764438,2026-03-17_07h22.03.079,kallum_motion_pilot_GIST_update_2,2026.1.1,Win32,74.62686567,697a6b7b9aabee3f87764438,69b92ab4aef6dee357cd729a,69b92b54bd44ad5b54366fcd,0.1472,0.1472,1,95,257,104,1,fivesix,,,,,,,,,,,,,,,,,,,,,,,,,,,,,,,,,,,,,,,,,,,,,,,,,,,,,,,,,,,,,,,,,,,,,,,,,,,,,,,,,,,,,,,,,,,,,,,,,,,,,,,,,,,,,,,,,,,,,,,,,,,,,,,,,,,,,,,,,
,,697a6b7b9aabee3f87764438,2026-03-17_07h22.03.079,kallum_motion_pilot_GIST_update_2,2026.1.1,Win32,74.62686567,697a6b7b9aabee3f87764438,69b92ab4aef6dee357cd729a,69b92b54bd44ad5b54366fcd,0.1475,0.1475,1,96,258,74,1,twoone,,,,,,,,,,,,,,,,,,,,,,,,,,,,,,,,,,,,,,,,,,,,,,,,,,,,,,,,,,,,,,,,,,,,,,,,,,,,,,,,,,,,,,,,,,,,,,,,,,,,,,,,,,,,,,,,,,,,,,,,,,,,,,,,,,,,,,,,,
,,697a6b7b9aabee3f87764438,2026-03-17_07h22.03.079,kallum_motion_pilot_GIST_update_2,2026.1.1,Win32,74.62686567,697a6b7b9aabee3f87764438,69b92ab4aef6dee357cd729a,69b92b54bd44ad5b54366fcd,0.1478,0.1478,1,97,259,140,1,sevenfive,,,,,,,,,,,,,,,,,,,,,,,,,,,,,,,,,,,,,,,,,,,,,,,,,,,,,,,,,,,,,,,,,,,,,,,,,,,,,,,,,,,,,,,,,,,,,,,,,,,,,,,,,,,,,,,,,,,,,,,,,,,,,,,,,,,,,,,,,
,,697a6b7b9aabee3f87764438,2026-03-17_07h22.03.079,kallum_motion_pilot_GIST_update_2,2026.1.1,Win32,74.62686567,697a6b7b9aabee3f87764438,69b92ab4aef6dee357cd729a,69b92b54bd44ad5b54366fcd,0.1483,0.1484,1,98,260,132,1,sevenfive,,,,,,,,,,,,,,,,,,,,,,,,,,,,,,,,,,,,,,,,,,,,,,,,,,,,,,,,,,,,,,,,,,,,,,,,,,,,,,,,,,,,,,,,,,,,,,,,,,,,,,,,,,,,,,,,,,,,,,,,,,,,,,,,,,,,,,,,,
,,697a6b7b9aabee3f87764438,2026-03-17_07h22.03.079,kallum_motion_pilot_GIST_update_2,2026.1.1,Win32,74.62686567,697a6b7b9aabee3f87764438,69b92ab4aef6dee357cd729a,69b92b54bd44ad5b54366fcd,0.1489,0.149,1,99,261,13,1,threefour,,,,,,,,,,,,,,,,,,,,,,,,,,,,,,,,,,,,,,,,,,,,,,,,,,,,,,,,,,,,,,,,,,,,,,,,,,,,,,,,,,,,,,,,,,,,,,,,,,,,,,,,,,,,,,,,,,,,,,,,,,,,,,,,,,,,,,,,,
,,697a6b7b9aabee3f87764438,2026-03-17_07h22.03.079,kallum_motion_pilot_GIST_update_2,2026.1.1,Win32,74.62686567,697a6b7b9aabee3f87764438,69b92ab4aef6dee357cd729a,69b92b54bd44ad5b54366fcd,0.1498,0.1498,1,100,262,9,1,onethree,,,,,,,,,,,,,,,,,,,,,,,,,,,,,,,,,,,,,,,,,,,,,,,,,,,,,,,,,,,,,,,,,,,,,,,,,,,,,,,,,,,,,,,,,,,,,,,,,,,,,,,,,,,,,,,,,,,,,,,,,,,,,,,,,,,,,,,,,
,,697a6b7b9aabee3f87764438,2026-03-17_07h22.03.079,kallum_motion_pilot_GIST_update_2,2026.1.1,Win32,74.62686567,697a6b7b9aabee3f87764438,69b92ab4aef6dee357cd729a,69b92b54bd44ad5b54366fcd,0.1503,0.1503,1,101,263,86,1,eightsix,,,,,,,,,,,,,,,,,,,,,,,,,,,,,,,,,,,,,,,,,,,,,,,,,,,,,,,,,,,,,,,,,,,,,,,,,,,,,,,,,,,,,,,,,,,,,,,,,,,,,,,,,,,,,,,,,,,,,,,,,,,,,,,,,,,,,,,,,
,,697a6b7b9aabee3f87764438,2026-03-17_07h22.03.079,kallum_motion_pilot_GIST_update_2,2026.1.1,Win32,74.62686567,697a6b7b9aabee3f87764438,69b92ab4aef6dee357cd729a,69b92b54bd44ad5b54366fcd,0.1509,0.1509,1,102,264,55,1,fourthree,,,,,,,,,,,,,,,,,,,,,,,,,,,,,,,,,,,,,,,,,,,,,,,,,,,,,,,,,,,,,,,,,,,,,,,,,,,,,,,,,,,,,,,,,,,,,,,,,,,,,,,,,,,,,,,,,,,,,,,,,,,,,,,,,,,,,,,,,
,,697a6b7b9aabee3f87764438,2026-03-17_07h22.03.079,kallum_motion_pilot_GIST_update_2,2026.1.1,Win32,74.62686567,697a6b7b9aabee3f87764438,69b92ab4aef6dee357cd729a,69b92b54bd44ad5b54366fcd,0.1514,0.1514,1,103,265,98,1,sixfive,,,,,,,,,,,,,,,,,,,,,,,,,,,,,,,,,,,,,,,,,,,,,,,,,,,,,,,,,,,,,,,,,,,,,,,,,,,,,,,,,,,,,,,,,,,,,,,,,,,,,,,,,,,,,,,,,,,,,,,,,,,,,,,,,,,,,,,,,
,,697a6b7b9aabee3f87764438,2026-03-17_07h22.03.079,kallum_motion_pilot_GIST_update_2,2026.1.1,Win32,74.62686567,697a6b7b9aabee3f87764438,69b92ab4aef6dee357cd729a,69b92b54bd44ad5b54366fcd,0.1518,0.1518,1,104,266,102,1,eightsix,,,,,,,,,,,,,,,,,,,,,,,,,,,,,,,,,,,,,,,,,,,,,,,,,,,,,,,,,,,,,,,,,,,,,,,,,,,,,,,,,,,,,,,,,,,,,,,,,,,,,,,,,,,,,,,,,,,,,,,,,,,,,,,,,,,,,,,,,
