startup.started,startup.stopped,Prolific ID*,date,expName,psychopyVersion,OS,frameRate,participant,study_id,session,stimpositions.started,stimpositions.stopped,hardcoded_stimulus_positions.thisRepN,hardcoded_stimulus_positions.thisTrialN,hardcoded_stimulus_positions.thisN,hardcoded_stimulus_positions.thisIndex,hardcoded_stimulus_positions.ran,StimulusPos,stimorientation.started,stimorientation.stopped,prac_stimorientation_import_loop.thisRepN,prac_stimorientation_import_loop.thisTrialN,prac_stimorientation_import_loop.thisN,prac_stimorientation_import_loop.thisIndex,prac_stimorientation_import_loop.ran,Stimorientation,welcome_instr.started,welcome_instr.stopped,key_resp.keys,key_resp.rt,key_resp.duration,response_steppedout_1.started,response_steppedout_1.stopped,key_resp_20.keys,key_resp_20.rt,key_resp_20.duration,response_steppedout_2.started,response_steppedout_2.stopped,key_resp_19.keys,key_resp_19.rt,key_resp_19.duration,stim_response_instr.started,stim_response_instr.stopped,key_resp_15.keys,key_resp_15.rt,key_resp_15.duration,direction_instr_2.started,direction_instr_2.stopped,key_resp_9.keys,key_resp_9.rt,key_resp_9.duration,instr_prac.started,instr_prac.stopped,key_resp_10.keys,key_resp_10.rt,key_resp_10.duration,Stim1_display_prac.started,Stim1_display_prac.stopped,Ecc,Circle1_ori,Circle2_ori,response_prac.started,similarity,response_time,response_prac.stopped,mouse_5.x,mouse_5.y,mouse_5.leftButton,mouse_5.midButton,mouse_5.rightButton,mouse_5.clicked_name,responseprac_feedback.started,responseprac_feedback.stopped,summary2_prac.started,summary2_prac.stopped,mouse_6.x,mouse_6.y,mouse_6.leftButton,mouse_6.midButton,mouse_6.rightButton,mouse_6.clicked_name,duringprac.thisRepN,duringprac.thisTrialN,duringprac.thisN,duringprac.thisIndex,duringprac.ran,begin.started,begin.stopped,key_resp_22.keys,key_resp_22.rt,key_resp_22.duration,Stim1_display.started,Stim1_display.stopped,circle1_ori,circle2_ori,circle1_SF,circle2_SF,response.started,response.stopped,mouse.x,mouse.y,mouse.leftButton,mouse.midButton,mouse.rightButton,mouse.clicked_name,trialnumber,double_pass.thisRepN,double_pass.thisTrialN,double_pass.thisN,double_pass.thisIndex,double_pass.ran,double_pass.order,main_trial.thisRepN,main_trial.thisTrialN,main_trial.thisN,main_trial.thisIndex,main_trial.ran,main_trial.order,Trial_Counter,Catch,Frequencies,response_2.started,response_2.stopped,mouse_2.x,mouse_2.y,mouse_2.leftButton,mouse_2.midButton,mouse_2.rightButton,mouse_2.clicked_name,special_trial.started,special_trial.stopped,catch_1.started,catch_1.stopped,mouse_3.x,mouse_3.y,mouse_3.leftButton,mouse_3.midButton,mouse_3.rightButton,catchresponse,catchnumber,response_time_catch,response_sum.started,response_sum.stopped,mouse_11.x,mouse_11.y,mouse_11.leftButton,mouse_11.midButton,mouse_11.rightButton,flip_presentation_sequence_for_double_pass.started,flip_presentation_sequence_for_double_pass.stopped,goodbye.started,goodbye.stopped,key_resp_3.keys,key_resp_3.rt,key_resp_3.duration
0.0008,0.0012,697a4a348348ac9e3727411f,2026-03-17_12h29.35.561,kallum_motion_pilot_GIST_update_2,2026.1.1,Win32,60.24096386,697a4a348348ac9e3727411f,69b92ab4aef6dee357cd729a,69b92bd1a4f5023e73b61106,,,,,,,,,,,,,,,,,,,,,,,,,,,,,,,,,,,,,,,,,,,,,,,,,,,,,,,,,,,,,,,,,,,,,,,,,,,,,,,,,,,,,,,,,,,,,,,,,,,,,,,,,,,,,,,,,,,,,,,,,,,,,,,,,,,,,,,,,,,,,,,,,
,,697a4a348348ac9e3727411f,2026-03-17_12h29.35.561,kallum_motion_pilot_GIST_update_2,2026.1.1,Win32,60.24096386,697a4a348348ac9e3727411f,69b92ab4aef6dee357cd729a,69b92bd1a4f5023e73b61106,0.1023,0.1029,0,0,0,106,1,sixfive,,,,,,,,,,,,,,,,,,,,,,,,,,,,,,,,,,,,,,,,,,,,,,,,,,,,,,,,,,,,,,,,,,,,,,,,,,,,,,,,,,,,,,,,,,,,,,,,,,,,,,,,,,,,,,,,,,,,,,,,,,,,,,,,,,,,,,,,,
,,697a4a348348ac9e3727411f,2026-03-17_12h29.35.561,kallum_motion_pilot_GIST_update_2,2026.1.1,Win32,60.24096386,697a4a348348ac9e3727411f,69b92ab4aef6dee357cd729a,69b92bd1a4f5023e73b61106,0.1043,0.1044,0,1,1,149,1,seveneight,,,,,,,,,,,,,,,,,,,,,,,,,,,,,,,,,,,,,,,,,,,,,,,,,,,,,,,,,,,,,,,,,,,,,,,,,,,,,,,,,,,,,,,,,,,,,,,,,,,,,,,,,,,,,,,,,,,,,,,,,,,,,,,,,,,,,,,,,
,,697a4a348348ac9e3727411f,2026-03-17_12h29.35.561,kallum_motion_pilot_GIST_update_2,2026.1.1,Win32,60.24096386,697a4a348348ac9e3727411f,69b92ab4aef6dee357cd729a,69b92bd1a4f5023e73b61106,0.1052,0.1053,0,2,2,97,1,fiveseven,,,,,,,,,,,,,,,,,,,,,,,,,,,,,,,,,,,,,,,,,,,,,,,,,,,,,,,,,,,,,,,,,,,,,,,,,,,,,,,,,,,,,,,,,,,,,,,,,,,,,,,,,,,,,,,,,,,,,,,,,,,,,,,,,,,,,,,,,
,,697a4a348348ac9e3727411f,2026-03-17_12h29.35.561,kallum_motion_pilot_GIST_update_2,2026.1.1,Win32,60.24096386,697a4a348348ac9e3727411f,69b92ab4aef6dee357cd729a,69b92bd1a4f5023e73b61106,0.1061,0.1062,0,3,3,132,1,sevenfive,,,,,,,,,,,,,,,,,,,,,,,,,,,,,,,,,,,,,,,,,,,,,,,,,,,,,,,,,,,,,,,,,,,,,,,,,,,,,,,,,,,,,,,,,,,,,,,,,,,,,,,,,,,,,,,,,,,,,,,,,,,,,,,,,,,,,,,,,
,,697a4a348348ac9e3727411f,2026-03-17_12h29.35.561,kallum_motion_pilot_GIST_update_2,2026.1.1,Win32,60.24096386,697a4a348348ac9e3727411f,69b92ab4aef6dee357cd729a,69b92bd1a4f5023e73b61106,0.1083,0.1083,0,4,4,147,1,sixeight,,,,,,,,,,,,,,,,,,,,,,,,,,,,,,,,,,,,,,,,,,,,,,,,,,,,,,,,,,,,,,,,,,,,,,,,,,,,,,,,,,,,,,,,,,,,,,,,,,,,,,,,,,,,,,,,,,,,,,,,,,,,,,,,,,,,,,,,,
,,697a4a348348ac9e3727411f,2026-03-17_12h29.35.561,kallum_motion_pilot_GIST_update_2,2026.1.1,Win32,60.24096386,697a4a348348ac9e3727411f,69b92ab4aef6dee357cd729a,69b92bd1a4f5023e73b61106,0.11,0.1122,0,5,5,40,1,onetwo,,,,,,,,,,,,,,,,,,,,,,,,,,,,,,,,,,,,,,,,,,,,,,,,,,,,,,,,,,,,,,,,,,,,,,,,,,,,,,,,,,,,,,,,,,,,,,,,,,,,,,,,,,,,,,,,,,,,,,,,,,,,,,,,,,,,,,,,,
,,697a4a348348ac9e3727411f,2026-03-17_12h29.35.561,kallum_motion_pilot_GIST_update_2,2026.1.1,Win32,60.24096386,697a4a348348ac9e3727411f,69b92ab4aef6dee357cd729a,69b92bd1a4f5023e73b61106,0.1133,0.1135,0,6,6,136,1,fivesix,,,,,,,,,,,,,,,,,,,,,,,,,,,,,,,,,,,,,,,,,,,,,,,,,,,,,,,,,,,,,,,,,,,,,,,,,,,,,,,,,,,,,,,,,,,,,,,,,,,,,,,,,,,,,,,,,,,,,,,,,,,,,,,,,,,,,,,,,
,,697a4a348348ac9e3727411f,2026-03-17_12h29.35.561,kallum_motion_pilot_GIST_update_2,2026.1.1,Win32,60.24096386,697a4a348348ac9e3727411f,69b92ab4aef6dee357cd729a,69b92bd1a4f5023e73b61106,0.1142,0.1142,0,7,7,129,1,fiveseven,,,,,,,,,,,,,,,,,,,,,,,,,,,,,,,,,,,,,,,,,,,,,,,,,,,,,,,,,,,,,,,,,,,,,,,,,,,,,,,,,,,,,,,,,,,,,,,,,,,,,,,,,,,,,,,,,,,,,,,,,,,,,,,,,,,,,,,,,
,,697a4a348348ac9e3727411f,2026-03-17_12h29.35.561,kallum_motion_pilot_GIST_update_2,2026.1.1,Win32,60.24096386,697a4a348348ac9e3727411f,69b92ab4aef6dee357cd729a,69b92bd1a4f5023e73b61106,0.1149,0.1151,0,8,8,81,1,fiveseven,,,,,,,,,,,,,,,,,,,,,,,,,,,,,,,,,,,,,,,,,,,,,,,,,,,,,,,,,,,,,,,,,,,,,,,,,,,,,,,,,,,,,,,,,,,,,,,,,,,,,,,,,,,,,,,,,,,,,,,,,,,,,,,,,,,,,,,,,
,,697a4a348348ac9e3727411f,2026-03-17_12h29.35.561,kallum_motion_pilot_GIST_update_2,2026.1.1,Win32,60.24096386,697a4a348348ac9e3727411f,69b92ab4aef6dee357cd729a,69b92bd1a4f5023e73b61106,0.1158,0.116,0,9,9,141,1,seveneight,,,,,,,,,,,,,,,,,,,,,,,,,,,,,,,,,,,,,,,,,,,,,,,,,,,,,,,,,,,,,,,,,,,,,,,,,,,,,,,,,,,,,,,,,,,,,,,,,,,,,,,,,,,,,,,,,,,,,,,,,,,,,,,,,,,,,,,,,
,,697a4a348348ac9e3727411f,2026-03-17_12h29.35.561,kallum_motion_pilot_GIST_update_2,2026.1.1,Win32,60.24096386,697a4a348348ac9e3727411f,69b92ab4aef6dee357cd729a,69b92bd1a4f5023e73b61106,0.1166,0.1168,0,10,10,8,1,onetwo,,,,,,,,,,,,,,,,,,,,,,,,,,,,,,,,,,,,,,,,,,,,,,,,,,,,,,,,,,,,,,,,,,,,,,,,,,,,,,,,,,,,,,,,,,,,,,,,,,,,,,,,,,,,,,,,,,,,,,,,,,,,,,,,,,,,,,,,,
,,697a4a348348ac9e3727411f,2026-03-17_12h29.35.561,kallum_motion_pilot_GIST_update_2,2026.1.1,Win32,60.24096386,697a4a348348ac9e3727411f,69b92ab4aef6dee357cd729a,69b92bd1a4f5023e73b61106,0.1179,0.118,0,11,11,18,1,twoone,,,,,,,,,,,,,,,,,,,,,,,,,,,,,,,,,,,,,,,,,,,,,,,,,,,,,,,,,,,,,,,,,,,,,,,,,,,,,,,,,,,,,,,,,,,,,,,,,,,,,,,,,,,,,,,,,,,,,,,,,,,,,,,,,,,,,,,,,
,,697a4a348348ac9e3727411f,2026-03-17_12h29.35.561,kallum_motion_pilot_GIST_update_2,2026.1.1,Win32,60.24096386,697a4a348348ac9e3727411f,69b92ab4aef6dee357cd729a,69b92bd1a4f5023e73b61106,0.1186,0.1187,0,12,12,69,1,threefour,,,,,,,,,,,,,,,,,,,,,,,,,,,,,,,,,,,,,,,,,,,,,,,,,,,,,,,,,,,,,,,,,,,,,,,,,,,,,,,,,,,,,,,,,,,,,,,,,,,,,,,,,,,,,,,,,,,,,,,,,,,,,,,,,,,,,,,,,
,,697a4a348348ac9e3727411f,2026-03-17_12h29.35.561,kallum_motion_pilot_GIST_update_2,2026.1.1,Win32,60.24096386,697a4a348348ac9e3727411f,69b92ab4aef6dee357cd729a,69b92bd1a4f5023e73b61106,0.12,0.12,0,13,13,131,1,sixeight,,,,,,,,,,,,,,,,,,,,,,,,,,,,,,,,,,,,,,,,,,,,,,,,,,,,,,,,,,,,,,,,,,,,,,,,,,,,,,,,,,,,,,,,,,,,,,,,,,,,,,,,,,,,,,,,,,,,,,,,,,,,,,,,,,,,,,,,,
,,697a4a348348ac9e3727411f,2026-03-17_12h29.35.561,kallum_motion_pilot_GIST_update_2,2026.1.1,Win32,60.24096386,697a4a348348ac9e3727411f,69b92ab4aef6dee357cd729a,69b92bd1a4f5023e73b61106,0.1213,0.1213,0,14,14,105,1,fiveseven,,,,,,,,,,,,,,,,,,,,,,,,,,,,,,,,,,,,,,,,,,,,,,,,,,,,,,,,,,,,,,,,,,,,,,,,,,,,,,,,,,,,,,,,,,,,,,,,,,,,,,,,,,,,,,,,,,,,,,,,,,,,,,,,,,,,,,,,,
,,697a4a348348ac9e3727411f,2026-03-17_12h29.35.561,kallum_motion_pilot_GIST_update_2,2026.1.1,Win32,60.24096386,697a4a348348ac9e3727411f,69b92ab4aef6dee357cd729a,69b92bd1a4f5023e73b61106,0.122,0.1223,0,15,15,25,1,onethree,,,,,,,,,,,,,,,,,,,,,,,,,,,,,,,,,,,,,,,,,,,,,,,,,,,,,,,,,,,,,,,,,,,,,,,,,,,,,,,,,,,,,,,,,,,,,,,,,,,,,,,,,,,,,,,,,,,,,,,,,,,,,,,,,,,,,,,,,
,,697a4a348348ac9e3727411f,2026-03-17_12h29.35.561,kallum_motion_pilot_GIST_update_2,2026.1.1,Win32,60.24096386,697a4a348348ac9e3727411f,69b92ab4aef6dee357cd729a,69b92bd1a4f5023e73b61106,0.1231,0.1232,0,16,16,126,1,eightsix,,,,,,,,,,,,,,,,,,,,,,,,,,,,,,,,,,,,,,,,,,,,,,,,,,,,,,,,,,,,,,,,,,,,,,,,,,,,,,,,,,,,,,,,,,,,,,,,,,,,,,,,,,,,,,,,,,,,,,,,,,,,,,,,,,,,,,,,,
,,697a4a348348ac9e3727411f,2026-03-17_12h29.35.561,kallum_motion_pilot_GIST_update_2,2026.1.1,Win32,60.24096386,697a4a348348ac9e3727411f,69b92ab4aef6dee357cd729a,69b92bd1a4f5023e73b61106,0.1249,0.1249,0,17,17,148,1,sevenfive,,,,,,,,,,,,,,,,,,,,,,,,,,,,,,,,,,,,,,,,,,,,,,,,,,,,,,,,,,,,,,,,,,,,,,,,,,,,,,,,,,,,,,,,,,,,,,,,,,,,,,,,,,,,,,,,,,,,,,,,,,,,,,,,,,,,,,,,,
,,697a4a348348ac9e3727411f,2026-03-17_12h29.35.561,kallum_motion_pilot_GIST_update_2,2026.1.1,Win32,60.24096386,697a4a348348ac9e3727411f,69b92ab4aef6dee357cd729a,69b92bd1a4f5023e73b61106,0.1258,0.1259,0,18,18,145,1,fiveseven,,,,,,,,,,,,,,,,,,,,,,,,,,,,,,,,,,,,,,,,,,,,,,,,,,,,,,,,,,,,,,,,,,,,,,,,,,,,,,,,,,,,,,,,,,,,,,,,,,,,,,,,,,,,,,,,,,,,,,,,,,,,,,,,,,,,,,,,,
,,697a4a348348ac9e3727411f,2026-03-17_12h29.35.561,kallum_motion_pilot_GIST_update_2,2026.1.1,Win32,60.24096386,697a4a348348ac9e3727411f,69b92ab4aef6dee357cd729a,69b92bd1a4f5023e73b61106,0.1265,0.1265,0,19,19,101,1,seveneight,,,,,,,,,,,,,,,,,,,,,,,,,,,,,,,,,,,,,,,,,,,,,,,,,,,,,,,,,,,,,,,,,,,,,,,,,,,,,,,,,,,,,,,,,,,,,,,,,,,,,,,,,,,,,,,,,,,,,,,,,,,,,,,,,,,,,,,,,
,,697a4a348348ac9e3727411f,2026-03-17_12h29.35.561,kallum_motion_pilot_GIST_update_2,2026.1.1,Win32,60.24096386,697a4a348348ac9e3727411f,69b92ab4aef6dee357cd729a,69b92bd1a4f5023e73b61106,0.1273,0.1273,0,20,20,139,1,sixeight,,,,,,,,,,,,,,,,,,,,,,,,,,,,,,,,,,,,,,,,,,,,,,,,,,,,,,,,,,,,,,,,,,,,,,,,,,,,,,,,,,,,,,,,,,,,,,,,,,,,,,,,,,,,,,,,,,,,,,,,,,,,,,,,,,,,,,,,,
,,697a4a348348ac9e3727411f,2026-03-17_12h29.35.561,kallum_motion_pilot_GIST_update_2,2026.1.1,Win32,60.24096386,697a4a348348ac9e3727411f,69b92ab4aef6dee357cd729a,69b92bd1a4f5023e73b61106,0.1282,0.1282,0,21,21,109,1,seveneight,,,,,,,,,,,,,,,,,,,,,,,,,,,,,,,,,,,,,,,,,,,,,,,,,,,,,,,,,,,,,,,,,,,,,,,,,,,,,,,,,,,,,,,,,,,,,,,,,,,,,,,,,,,,,,,,,,,,,,,,,,,,,,,,,,,,,,,,,
,,697a4a348348ac9e3727411f,2026-03-17_12h29.35.561,kallum_motion_pilot_GIST_update_2,2026.1.1,Win32,60.24096386,697a4a348348ac9e3727411f,69b92ab4aef6dee357cd729a,69b92bd1a4f5023e73b61106,0.1289,0.1293,0,22,22,26,1,twoone,,,,,,,,,,,,,,,,,,,,,,,,,,,,,,,,,,,,,,,,,,,,,,,,,,,,,,,,,,,,,,,,,,,,,,,,,,,,,,,,,,,,,,,,,,,,,,,,,,,,,,,,,,,,,,,,,,,,,,,,,,,,,,,,,,,,,,,,,
,,697a4a348348ac9e3727411f,2026-03-17_12h29.35.561,kallum_motion_pilot_GIST_update_2,2026.1.1,Win32,60.24096386,697a4a348348ac9e3727411f,69b92ab4aef6dee357cd729a,69b92bd1a4f5023e73b61106,0.1304,0.1304,0,23,23,43,1,twofour,,,,,,,,,,,,,,,,,,,,,,,,,,,,,,,,,,,,,,,,,,,,,,,,,,,,,,,,,,,,,,,,,,,,,,,,,,,,,,,,,,,,,,,,,,,,,,,,,,,,,,,,,,,,,,,,,,,,,,,,,,,,,,,,,,,,,,,,,
,,697a4a348348ac9e3727411f,2026-03-17_12h29.35.561,kallum_motion_pilot_GIST_update_2,2026.1.1,Win32,60.24096386,697a4a348348ac9e3727411f,69b92ab4aef6dee357cd729a,69b92bd1a4f5023e73b61106,0.1311,0.1311,0,24,24,128,1,fivesix,,,,,,,,,,,,,,,,,,,,,,,,,,,,,,,,,,,,,,,,,,,,,,,,,,,,,,,,,,,,,,,,,,,,,,,,,,,,,,,,,,,,,,,,,,,,,,,,,,,,,,,,,,,,,,,,,,,,,,,,,,,,,,,,,,,,,,,,,
,,697a4a348348ac9e3727411f,2026-03-17_12h29.35.561,kallum_motion_pilot_GIST_update_2,2026.1.1,Win32,60.24096386,697a4a348348ac9e3727411f,69b92ab4aef6dee357cd729a,69b92bd1a4f5023e73b61106,0.1315,0.1315,0,25,25,111,1,eightseven,,,,,,,,,,,,,,,,,,,,,,,,,,,,,,,,,,,,,,,,,,,,,,,,,,,,,,,,,,,,,,,,,,,,,,,,,,,,,,,,,,,,,,,,,,,,,,,,,,,,,,,,,,,,,,,,,,,,,,,,,,,,,,,,,,,,,,,,,
,,697a4a348348ac9e3727411f,2026-03-17_12h29.35.561,kallum_motion_pilot_GIST_update_2,2026.1.1,Win32,60.24096386,697a4a348348ac9e3727411f,69b92ab4aef6dee357cd729a,69b92bd1a4f5023e73b61106,0.1323,0.1324,0,26,26,23,1,fourthree,,,,,,,,,,,,,,,,,,,,,,,,,,,,,,,,,,,,,,,,,,,,,,,,,,,,,,,,,,,,,,,,,,,,,,,,,,,,,,,,,,,,,,,,,,,,,,,,,,,,,,,,,,,,,,,,,,,,,,,,,,,,,,,,,,,,,,,,,
,,697a4a348348ac9e3727411f,2026-03-17_12h29.35.561,kallum_motion_pilot_GIST_update_2,2026.1.1,Win32,60.24096386,697a4a348348ac9e3727411f,69b92ab4aef6dee357cd729a,69b92bd1a4f5023e73b61106,0.1336,0.1337,0,27,27,134,1,eightsix,,,,,,,,,,,,,,,,,,,,,,,,,,,,,,,,,,,,,,,,,,,,,,,,,,,,,,,,,,,,,,,,,,,,,,,,,,,,,,,,,,,,,,,,,,,,,,,,,,,,,,,,,,,,,,,,,,,,,,,,,,,,,,,,,,,,,,,,,
,,697a4a348348ac9e3727411f,2026-03-17_12h29.35.561,kallum_motion_pilot_GIST_update_2,2026.1.1,Win32,60.24096386,697a4a348348ac9e3727411f,69b92ab4aef6dee357cd729a,69b92bd1a4f5023e73b61106,0.1353,0.1354,0,28,28,135,1,eightseven,,,,,,,,,,,,,,,,,,,,,,,,,,,,,,,,,,,,,,,,,,,,,,,,,,,,,,,,,,,,,,,,,,,,,,,,,,,,,,,,,,,,,,,,,,,,,,,,,,,,,,,,,,,,,,,,,,,,,,,,,,,,,,,,,,,,,,,,,
,,697a4a348348ac9e3727411f,2026-03-17_12h29.35.561,kallum_motion_pilot_GIST_update_2,2026.1.1,Win32,60.24096386,697a4a348348ac9e3727411f,69b92ab4aef6dee357cd729a,69b92bd1a4f5023e73b61106,0.1364,0.1364,0,29,29,116,1,sevenfive,,,,,,,,,,,,,,,,,,,,,,,,,,,,,,,,,,,,,,,,,,,,,,,,,,,,,,,,,,,,,,,,,,,,,,,,,,,,,,,,,,,,,,,,,,,,,,,,,,,,,,,,,,,,,,,,,,,,,,,,,,,,,,,,,,,,,,,,,
,,697a4a348348ac9e3727411f,2026-03-17_12h29.35.561,kallum_motion_pilot_GIST_update_2,2026.1.1,Win32,60.24096386,697a4a348348ac9e3727411f,69b92ab4aef6dee357cd729a,69b92bd1a4f5023e73b61106,0.1372,0.1373,0,30,30,55,1,fourthree,,,,,,,,,,,,,,,,,,,,,,,,,,,,,,,,,,,,,,,,,,,,,,,,,,,,,,,,,,,,,,,,,,,,,,,,,,,,,,,,,,,,,,,,,,,,,,,,,,,,,,,,,,,,,,,,,,,,,,,,,,,,,,,,,,,,,,,,,
,,697a4a348348ac9e3727411f,2026-03-17_12h29.35.561,kallum_motion_pilot_GIST_update_2,2026.1.1,Win32,60.24096386,697a4a348348ac9e3727411f,69b92ab4aef6dee357cd729a,69b92bd1a4f5023e73b61106,0.1606,0.1606,0,31,31,142,1,eightsix,,,,,,,,,,,,,,,,,,,,,,,,,,,,,,,,,,,,,,,,,,,,,,,,,,,,,,,,,,,,,,,,,,,,,,,,,,,,,,,,,,,,,,,,,,,,,,,,,,,,,,,,,,,,,,,,,,,,,,,,,,,,,,,,,,,,,,,,,
,,697a4a348348ac9e3727411f,2026-03-17_12h29.35.561,kallum_motion_pilot_GIST_update_2,2026.1.1,Win32,60.24096386,697a4a348348ac9e3727411f,69b92ab4aef6dee357cd729a,69b92bd1a4f5023e73b61106,0.1613,0.1613,0,32,32,75,1,twofour,,,,,,,,,,,,,,,,,,,,,,,,,,,,,,,,,,,,,,,,,,,,,,,,,,,,,,,,,,,,,,,,,,,,,,,,,,,,,,,,,,,,,,,,,,,,,,,,,,,,,,,,,,,,,,,,,,,,,,,,,,,,,,,,,,,,,,,,,
,,697a4a348348ac9e3727411f,2026-03-17_12h29.35.561,kallum_motion_pilot_GIST_update_2,2026.1.1,Win32,60.24096386,697a4a348348ac9e3727411f,69b92ab4aef6dee357cd729a,69b92bd1a4f5023e73b61106,0.1617,0.1617,0,33,33,3,1,twofour,,,,,,,,,,,,,,,,,,,,,,,,,,,,,,,,,,,,,,,,,,,,,,,,,,,,,,,,,,,,,,,,,,,,,,,,,,,,,,,,,,,,,,,,,,,,,,,,,,,,,,,,,,,,,,,,,,,,,,,,,,,,,,,,,,,,,,,,,
,,697a4a348348ac9e3727411f,2026-03-17_12h29.35.561,kallum_motion_pilot_GIST_update_2,2026.1.1,Win32,60.24096386,697a4a348348ac9e3727411f,69b92ab4aef6dee357cd729a,69b92bd1a4f5023e73b61106,0.1629,0.1629,0,34,34,61,1,threefour,,,,,,,,,,,,,,,,,,,,,,,,,,,,,,,,,,,,,,,,,,,,,,,,,,,,,,,,,,,,,,,,,,,,,,,,,,,,,,,,,,,,,,,,,,,,,,,,,,,,,,,,,,,,,,,,,,,,,,,,,,,,,,,,,,,,,,,,,
,,697a4a348348ac9e3727411f,2026-03-17_12h29.35.561,kallum_motion_pilot_GIST_update_2,2026.1.1,Win32,60.24096386,697a4a348348ac9e3727411f,69b92ab4aef6dee357cd729a,69b92bd1a4f5023e73b61106,0.1637,0.1638,0,35,35,19,1,twofour,,,,,,,,,,,,,,,,,,,,,,,,,,,,,,,,,,,,,,,,,,,,,,,,,,,,,,,,,,,,,,,,,,,,,,,,,,,,,,,,,,,,,,,,,,,,,,,,,,,,,,,,,,,,,,,,,,,,,,,,,,,,,,,,,,,,,,,,,
,,697a4a348348ac9e3727411f,2026-03-17_12h29.35.561,kallum_motion_pilot_GIST_update_2,2026.1.1,Win32,60.24096386,697a4a348348ac9e3727411f,69b92ab4aef6dee357cd729a,69b92bd1a4f5023e73b61106,0.1644,0.1646,0,36,36,156,1,sevenfive,,,,,,,,,,,,,,,,,,,,,,,,,,,,,,,,,,,,,,,,,,,,,,,,,,,,,,,,,,,,,,,,,,,,,,,,,,,,,,,,,,,,,,,,,,,,,,,,,,,,,,,,,,,,,,,,,,,,,,,,,,,,,,,,,,,,,,,,,
,,697a4a348348ac9e3727411f,2026-03-17_12h29.35.561,kallum_motion_pilot_GIST_update_2,2026.1.1,Win32,60.24096386,697a4a348348ac9e3727411f,69b92ab4aef6dee357cd729a,69b92bd1a4f5023e73b61106,0.1652,0.1653,0,37,37,108,1,sevenfive,,,,,,,,,,,,,,,,,,,,,,,,,,,,,,,,,,,,,,,,,,,,,,,,,,,,,,,,,,,,,,,,,,,,,,,,,,,,,,,,,,,,,,,,,,,,,,,,,,,,,,,,,,,,,,,,,,,,,,,,,,,,,,,,,,,,,,,,,
,,697a4a348348ac9e3727411f,2026-03-17_12h29.35.561,kallum_motion_pilot_GIST_update_2,2026.1.1,Win32,60.24096386,697a4a348348ac9e3727411f,69b92ab4aef6dee357cd729a,69b92bd1a4f5023e73b61106,0.1658,0.1659,0,38,38,95,1,eightseven,,,,,,,,,,,,,,,,,,,,,,,,,,,,,,,,,,,,,,,,,,,,,,,,,,,,,,,,,,,,,,,,,,,,,,,,,,,,,,,,,,,,,,,,,,,,,,,,,,,,,,,,,,,,,,,,,,,,,,,,,,,,,,,,,,,,,,,,,
,,697a4a348348ac9e3727411f,2026-03-17_12h29.35.561,kallum_motion_pilot_GIST_update_2,2026.1.1,Win32,60.24096386,697a4a348348ac9e3727411f,69b92ab4aef6dee357cd729a,69b92bd1a4f5023e73b61106,0.1669,0.167,0,39,39,58,1,twoone,,,,,,,,,,,,,,,,,,,,,,,,,,,,,,,,,,,,,,,,,,,,,,,,,,,,,,,,,,,,,,,,,,,,,,,,,,,,,,,,,,,,,,,,,,,,,,,,,,,,,,,,,,,,,,,,,,,,,,,,,,,,,,,,,,,,,,,,,
,,697a4a348348ac9e3727411f,2026-03-17_12h29.35.561,kallum_motion_pilot_GIST_update_2,2026.1.1,Win32,60.24096386,697a4a348348ac9e3727411f,69b92ab4aef6dee357cd729a,69b92bd1a4f5023e73b61106,0.1676,0.1676,0,40,40,34,1,twoone,,,,,,,,,,,,,,,,,,,,,,,,,,,,,,,,,,,,,,,,,,,,,,,,,,,,,,,,,,,,,,,,,,,,,,,,,,,,,,,,,,,,,,,,,,,,,,,,,,,,,,,,,,,,,,,,,,,,,,,,,,,,,,,,,,,,,,,,,
,,697a4a348348ac9e3727411f,2026-03-17_12h29.35.561,kallum_motion_pilot_GIST_update_2,2026.1.1,Win32,60.24096386,697a4a348348ac9e3727411f,69b92ab4aef6dee357cd729a,69b92bd1a4f5023e73b61106,0.1691,0.1692,0,41,41,45,1,threefour,,,,,,,,,,,,,,,,,,,,,,,,,,,,,,,,,,,,,,,,,,,,,,,,,,,,,,,,,,,,,,,,,,,,,,,,,,,,,,,,,,,,,,,,,,,,,,,,,,,,,,,,,,,,,,,,,,,,,,,,,,,,,,,,,,,,,,,,,
,,697a4a348348ac9e3727411f,2026-03-17_12h29.35.561,kallum_motion_pilot_GIST_update_2,2026.1.1,Win32,60.24096386,697a4a348348ac9e3727411f,69b92ab4aef6dee357cd729a,69b92bd1a4f5023e73b61106,0.1703,0.1704,0,42,42,6,1,fourtwo,,,,,,,,,,,,,,,,,,,,,,,,,,,,,,,,,,,,,,,,,,,,,,,,,,,,,,,,,,,,,,,,,,,,,,,,,,,,,,,,,,,,,,,,,,,,,,,,,,,,,,,,,,,,,,,,,,,,,,,,,,,,,,,,,,,,,,,,,
,,697a4a348348ac9e3727411f,2026-03-17_12h29.35.561,kallum_motion_pilot_GIST_update_2,2026.1.1,Win32,60.24096386,697a4a348348ac9e3727411f,69b92ab4aef6dee357cd729a,69b92bd1a4f5023e73b61106,0.171,0.171,0,43,43,38,1,fourtwo,,,,,,,,,,,,,,,,,,,,,,,,,,,,,,,,,,,,,,,,,,,,,,,,,,,,,,,,,,,,,,,,,,,,,,,,,,,,,,,,,,,,,,,,,,,,,,,,,,,,,,,,,,,,,,,,,,,,,,,,,,,,,,,,,,,,,,,,,
,,697a4a348348ac9e3727411f,2026-03-17_12h29.35.561,kallum_motion_pilot_GIST_update_2,2026.1.1,Win32,60.24096386,697a4a348348ac9e3727411f,69b92ab4aef6dee357cd729a,69b92bd1a4f5023e73b61106,0.1715,0.1715,0,44,44,127,1,eightseven,,,,,,,,,,,,,,,,,,,,,,,,,,,,,,,,,,,,,,,,,,,,,,,,,,,,,,,,,,,,,,,,,,,,,,,,,,,,,,,,,,,,,,,,,,,,,,,,,,,,,,,,,,,,,,,,,,,,,,,,,,,,,,,,,,,,,,,,,
,,697a4a348348ac9e3727411f,2026-03-17_12h29.35.561,kallum_motion_pilot_GIST_update_2,2026.1.1,Win32,60.24096386,697a4a348348ac9e3727411f,69b92ab4aef6dee357cd729a,69b92bd1a4f5023e73b61106,0.1721,0.1721,0,45,45,60,1,threeone,,,,,,,,,,,,,,,,,,,,,,,,,,,,,,,,,,,,,,,,,,,,,,,,,,,,,,,,,,,,,,,,,,,,,,,,,,,,,,,,,,,,,,,,,,,,,,,,,,,,,,,,,,,,,,,,,,,,,,,,,,,,,,,,,,,,,,,,,
,,697a4a348348ac9e3727411f,2026-03-17_12h29.35.561,kallum_motion_pilot_GIST_update_2,2026.1.1,Win32,60.24096386,697a4a348348ac9e3727411f,69b92ab4aef6dee357cd729a,69b92bd1a4f5023e73b61106,0.1728,0.1728,0,46,46,137,1,fiveseven,,,,,,,,,,,,,,,,,,,,,,,,,,,,,,,,,,,,,,,,,,,,,,,,,,,,,,,,,,,,,,,,,,,,,,,,,,,,,,,,,,,,,,,,,,,,,,,,,,,,,,,,,,,,,,,,,,,,,,,,,,,,,,,,,,,,,,,,,
,,697a4a348348ac9e3727411f,2026-03-17_12h29.35.561,kallum_motion_pilot_GIST_update_2,2026.1.1,Win32,60.24096386,697a4a348348ac9e3727411f,69b92ab4aef6dee357cd729a,69b92bd1a4f5023e73b61106,0.1748,0.1748,0,47,47,48,1,onetwo,,,,,,,,,,,,,,,,,,,,,,,,,,,,,,,,,,,,,,,,,,,,,,,,,,,,,,,,,,,,,,,,,,,,,,,,,,,,,,,,,,,,,,,,,,,,,,,,,,,,,,,,,,,,,,,,,,,,,,,,,,,,,,,,,,,,,,,,,
,,697a4a348348ac9e3727411f,2026-03-17_12h29.35.561,kallum_motion_pilot_GIST_update_2,2026.1.1,Win32,60.24096386,697a4a348348ac9e3727411f,69b92ab4aef6dee357cd729a,69b92bd1a4f5023e73b61106,0.1756,0.1757,0,48,48,10,1,twoone,,,,,,,,,,,,,,,,,,,,,,,,,,,,,,,,,,,,,,,,,,,,,,,,,,,,,,,,,,,,,,,,,,,,,,,,,,,,,,,,,,,,,,,,,,,,,,,,,,,,,,,,,,,,,,,,,,,,,,,,,,,,,,,,,,,,,,,,,
,,697a4a348348ac9e3727411f,2026-03-17_12h29.35.561,kallum_motion_pilot_GIST_update_2,2026.1.1,Win32,60.24096386,697a4a348348ac9e3727411f,69b92ab4aef6dee357cd729a,69b92bd1a4f5023e73b61106,0.1763,0.1763,0,49,49,83,1,sixeight,,,,,,,,,,,,,,,,,,,,,,,,,,,,,,,,,,,,,,,,,,,,,,,,,,,,,,,,,,,,,,,,,,,,,,,,,,,,,,,,,,,,,,,,,,,,,,,,,,,,,,,,,,,,,,,,,,,,,,,,,,,,,,,,,,,,,,,,,
,,697a4a348348ac9e3727411f,2026-03-17_12h29.35.561,kallum_motion_pilot_GIST_update_2,2026.1.1,Win32,60.24096386,697a4a348348ac9e3727411f,69b92ab4aef6dee357cd729a,69b92bd1a4f5023e73b61106,0.1771,0.1772,0,50,50,133,1,seveneight,,,,,,,,,,,,,,,,,,,,,,,,,,,,,,,,,,,,,,,,,,,,,,,,,,,,,,,,,,,,,,,,,,,,,,,,,,,,,,,,,,,,,,,,,,,,,,,,,,,,,,,,,,,,,,,,,,,,,,,,,,,,,,,,,,,,,,,,,
,,697a4a348348ac9e3727411f,2026-03-17_12h29.35.561,kallum_motion_pilot_GIST_update_2,2026.1.1,Win32,60.24096386,697a4a348348ac9e3727411f,69b92ab4aef6dee357cd729a,69b92bd1a4f5023e73b61106,0.1801,0.1802,0,51,51,153,1,fiveseven,,,,,,,,,,,,,,,,,,,,,,,,,,,,,,,,,,,,,,,,,,,,,,,,,,,,,,,,,,,,,,,,,,,,,,,,,,,,,,,,,,,,,,,,,,,,,,,,,,,,,,,,,,,,,,,,,,,,,,,,,,,,,,,,,,,,,,,,,
,,697a4a348348ac9e3727411f,2026-03-17_12h29.35.561,kallum_motion_pilot_GIST_update_2,2026.1.1,Win32,60.24096386,697a4a348348ac9e3727411f,69b92ab4aef6dee357cd729a,69b92bd1a4f5023e73b61106,0.1811,0.1811,0,52,52,80,1,fivesix,,,,,,,,,,,,,,,,,,,,,,,,,,,,,,,,,,,,,,,,,,,,,,,,,,,,,,,,,,,,,,,,,,,,,,,,,,,,,,,,,,,,,,,,,,,,,,,,,,,,,,,,,,,,,,,,,,,,,,,,,,,,,,,,,,,,,,,,,
,,697a4a348348ac9e3727411f,2026-03-17_12h29.35.561,kallum_motion_pilot_GIST_update_2,2026.1.1,Win32,60.24096386,697a4a348348ac9e3727411f,69b92ab4aef6dee357cd729a,69b92bd1a4f5023e73b61106,0.1815,0.1816,0,53,53,138,1,sixfive,,,,,,,,,,,,,,,,,,,,,,,,,,,,,,,,,,,,,,,,,,,,,,,,,,,,,,,,,,,,,,,,,,,,,,,,,,,,,,,,,,,,,,,,,,,,,,,,,,,,,,,,,,,,,,,,,,,,,,,,,,,,,,,,,,,,,,,,,
,,697a4a348348ac9e3727411f,2026-03-17_12h29.35.561,kallum_motion_pilot_GIST_update_2,2026.1.1,Win32,60.24096386,697a4a348348ac9e3727411f,69b92ab4aef6dee357cd729a,69b92bd1a4f5023e73b61106,0.1822,0.1822,0,54,54,20,1,threeone,,,,,,,,,,,,,,,,,,,,,,,,,,,,,,,,,,,,,,,,,,,,,,,,,,,,,,,,,,,,,,,,,,,,,,,,,,,,,,,,,,,,,,,,,,,,,,,,,,,,,,,,,,,,,,,,,,,,,,,,,,,,,,,,,,,,,,,,,
,,697a4a348348ac9e3727411f,2026-03-17_12h29.35.561,kallum_motion_pilot_GIST_update_2,2026.1.1,Win32,60.24096386,697a4a348348ac9e3727411f,69b92ab4aef6dee357cd729a,69b92bd1a4f5023e73b61106,0.1832,0.1832,0,55,55,123,1,sixeight,,,,,,,,,,,,,,,,,,,,,,,,,,,,,,,,,,,,,,,,,,,,,,,,,,,,,,,,,,,,,,,,,,,,,,,,,,,,,,,,,,,,,,,,,,,,,,,,,,,,,,,,,,,,,,,,,,,,,,,,,,,,,,,,,,,,,,,,,
,,697a4a348348ac9e3727411f,2026-03-17_12h29.35.561,kallum_motion_pilot_GIST_update_2,2026.1.1,Win32,60.24096386,697a4a348348ac9e3727411f,69b92ab4aef6dee357cd729a,69b92bd1a4f5023e73b61106,0.184,0.1841,0,56,56,71,1,fourthree,,,,,,,,,,,,,,,,,,,,,,,,,,,,,,,,,,,,,,,,,,,,,,,,,,,,,,,,,,,,,,,,,,,,,,,,,,,,,,,,,,,,,,,,,,,,,,,,,,,,,,,,,,,,,,,,,,,,,,,,,,,,,,,,,,,,,,,,,
,,697a4a348348ac9e3727411f,2026-03-17_12h29.35.561,kallum_motion_pilot_GIST_update_2,2026.1.1,Win32,60.24096386,697a4a348348ac9e3727411f,69b92ab4aef6dee357cd729a,69b92bd1a4f5023e73b61106,0.185,0.185,0,57,57,161,1,fiveseven,,,,,,,,,,,,,,,,,,,,,,,,,,,,,,,,,,,,,,,,,,,,,,,,,,,,,,,,,,,,,,,,,,,,,,,,,,,,,,,,,,,,,,,,,,,,,,,,,,,,,,,,,,,,,,,,,,,,,,,,,,,,,,,,,,,,,,,,,
,,697a4a348348ac9e3727411f,2026-03-17_12h29.35.561,kallum_motion_pilot_GIST_update_2,2026.1.1,Win32,60.24096386,697a4a348348ac9e3727411f,69b92ab4aef6dee357cd729a,69b92bd1a4f5023e73b61106,0.1858,0.1858,0,58,58,62,1,fourtwo,,,,,,,,,,,,,,,,,,,,,,,,,,,,,,,,,,,,,,,,,,,,,,,,,,,,,,,,,,,,,,,,,,,,,,,,,,,,,,,,,,,,,,,,,,,,,,,,,,,,,,,,,,,,,,,,,,,,,,,,,,,,,,,,,,,,,,,,,
,,697a4a348348ac9e3727411f,2026-03-17_12h29.35.561,kallum_motion_pilot_GIST_update_2,2026.1.1,Win32,60.24096386,697a4a348348ac9e3727411f,69b92ab4aef6dee357cd729a,69b92bd1a4f5023e73b61106,0.1867,0.1867,0,59,59,94,1,eightsix,,,,,,,,,,,,,,,,,,,,,,,,,,,,,,,,,,,,,,,,,,,,,,,,,,,,,,,,,,,,,,,,,,,,,,,,,,,,,,,,,,,,,,,,,,,,,,,,,,,,,,,,,,,,,,,,,,,,,,,,,,,,,,,,,,,,,,,,,
,,697a4a348348ac9e3727411f,2026-03-17_12h29.35.561,kallum_motion_pilot_GIST_update_2,2026.1.1,Win32,60.24096386,697a4a348348ac9e3727411f,69b92ab4aef6dee357cd729a,69b92bd1a4f5023e73b61106,0.1888,0.1896,0,60,60,56,1,onetwo,,,,,,,,,,,,,,,,,,,,,,,,,,,,,,,,,,,,,,,,,,,,,,,,,,,,,,,,,,,,,,,,,,,,,,,,,,,,,,,,,,,,,,,,,,,,,,,,,,,,,,,,,,,,,,,,,,,,,,,,,,,,,,,,,,,,,,,,,
,,697a4a348348ac9e3727411f,2026-03-17_12h29.35.561,kallum_motion_pilot_GIST_update_2,2026.1.1,Win32,60.24096386,697a4a348348ac9e3727411f,69b92ab4aef6dee357cd729a,69b92bd1a4f5023e73b61106,0.1928,0.1928,0,61,61,89,1,fiveseven,,,,,,,,,,,,,,,,,,,,,,,,,,,,,,,,,,,,,,,,,,,,,,,,,,,,,,,,,,,,,,,,,,,,,,,,,,,,,,,,,,,,,,,,,,,,,,,,,,,,,,,,,,,,,,,,,,,,,,,,,,,,,,,,,,,,,,,,,
,,697a4a348348ac9e3727411f,2026-03-17_12h29.35.561,kallum_motion_pilot_GIST_update_2,2026.1.1,Win32,60.24096386,697a4a348348ac9e3727411f,69b92ab4aef6dee357cd729a,69b92bd1a4f5023e73b61106,0.1936,0.1937,0,62,62,1,1,onethree,,,,,,,,,,,,,,,,,,,,,,,,,,,,,,,,,,,,,,,,,,,,,,,,,,,,,,,,,,,,,,,,,,,,,,,,,,,,,,,,,,,,,,,,,,,,,,,,,,,,,,,,,,,,,,,,,,,,,,,,,,,,,,,,,,,,,,,,,
,,697a4a348348ac9e3727411f,2026-03-17_12h29.35.561,kallum_motion_pilot_GIST_update_2,2026.1.1,Win32,60.24096386,697a4a348348ac9e3727411f,69b92ab4aef6dee357cd729a,69b92bd1a4f5023e73b61106,0.1946,0.1946,0,63,63,30,1,fourtwo,,,,,,,,,,,,,,,,,,,,,,,,,,,,,,,,,,,,,,,,,,,,,,,,,,,,,,,,,,,,,,,,,,,,,,,,,,,,,,,,,,,,,,,,,,,,,,,,,,,,,,,,,,,,,,,,,,,,,,,,,,,,,,,,,,,,,,,,,
,,697a4a348348ac9e3727411f,2026-03-17_12h29.35.561,kallum_motion_pilot_GIST_update_2,2026.1.1,Win32,60.24096386,697a4a348348ac9e3727411f,69b92ab4aef6dee357cd729a,69b92bd1a4f5023e73b61106,0.1954,0.1955,0,64,64,32,1,onetwo,,,,,,,,,,,,,,,,,,,,,,,,,,,,,,,,,,,,,,,,,,,,,,,,,,,,,,,,,,,,,,,,,,,,,,,,,,,,,,,,,,,,,,,,,,,,,,,,,,,,,,,,,,,,,,,,,,,,,,,,,,,,,,,,,,,,,,,,,
,,697a4a348348ac9e3727411f,2026-03-17_12h29.35.561,kallum_motion_pilot_GIST_update_2,2026.1.1,Win32,60.24096386,697a4a348348ac9e3727411f,69b92ab4aef6dee357cd729a,69b92bd1a4f5023e73b61106,0.1967,0.1968,0,65,65,53,1,threefour,,,,,,,,,,,,,,,,,,,,,,,,,,,,,,,,,,,,,,,,,,,,,,,,,,,,,,,,,,,,,,,,,,,,,,,,,,,,,,,,,,,,,,,,,,,,,,,,,,,,,,,,,,,,,,,,,,,,,,,,,,,,,,,,,,,,,,,,,
,,697a4a348348ac9e3727411f,2026-03-17_12h29.35.561,kallum_motion_pilot_GIST_update_2,2026.1.1,Win32,60.24096386,697a4a348348ac9e3727411f,69b92ab4aef6dee357cd729a,69b92bd1a4f5023e73b61106,0.1997,0.1998,0,66,66,17,1,onethree,,,,,,,,,,,,,,,,,,,,,,,,,,,,,,,,,,,,,,,,,,,,,,,,,,,,,,,,,,,,,,,,,,,,,,,,,,,,,,,,,,,,,,,,,,,,,,,,,,,,,,,,,,,,,,,,,,,,,,,,,,,,,,,,,,,,,,,,,
,,697a4a348348ac9e3727411f,2026-03-17_12h29.35.561,kallum_motion_pilot_GIST_update_2,2026.1.1,Win32,60.24096386,697a4a348348ac9e3727411f,69b92ab4aef6dee357cd729a,69b92bd1a4f5023e73b61106,0.2007,0.2007,0,67,67,100,1,sevenfive,,,,,,,,,,,,,,,,,,,,,,,,,,,,,,,,,,,,,,,,,,,,,,,,,,,,,,,,,,,,,,,,,,,,,,,,,,,,,,,,,,,,,,,,,,,,,,,,,,,,,,,,,,,,,,,,,,,,,,,,,,,,,,,,,,,,,,,,,
,,697a4a348348ac9e3727411f,2026-03-17_12h29.35.561,kallum_motion_pilot_GIST_update_2,2026.1.1,Win32,60.24096386,697a4a348348ac9e3727411f,69b92ab4aef6dee357cd729a,69b92bd1a4f5023e73b61106,0.2011,0.2011,0,68,68,151,1,eightseven,,,,,,,,,,,,,,,,,,,,,,,,,,,,,,,,,,,,,,,,,,,,,,,,,,,,,,,,,,,,,,,,,,,,,,,,,,,,,,,,,,,,,,,,,,,,,,,,,,,,,,,,,,,,,,,,,,,,,,,,,,,,,,,,,,,,,,,,,
,,697a4a348348ac9e3727411f,2026-03-17_12h29.35.561,kallum_motion_pilot_GIST_update_2,2026.1.1,Win32,60.24096386,697a4a348348ac9e3727411f,69b92ab4aef6dee357cd729a,69b92bd1a4f5023e73b61106,0.2016,0.2016,0,69,69,150,1,eightsix,,,,,,,,,,,,,,,,,,,,,,,,,,,,,,,,,,,,,,,,,,,,,,,,,,,,,,,,,,,,,,,,,,,,,,,,,,,,,,,,,,,,,,,,,,,,,,,,,,,,,,,,,,,,,,,,,,,,,,,,,,,,,,,,,,,,,,,,,
,,697a4a348348ac9e3727411f,2026-03-17_12h29.35.561,kallum_motion_pilot_GIST_update_2,2026.1.1,Win32,60.24096386,697a4a348348ac9e3727411f,69b92ab4aef6dee357cd729a,69b92bd1a4f5023e73b61106,0.2022,0.2022,0,70,70,110,1,eightsix,,,,,,,,,,,,,,,,,,,,,,,,,,,,,,,,,,,,,,,,,,,,,,,,,,,,,,,,,,,,,,,,,,,,,,,,,,,,,,,,,,,,,,,,,,,,,,,,,,,,,,,,,,,,,,,,,,,,,,,,,,,,,,,,,,,,,,,,,
,,697a4a348348ac9e3727411f,2026-03-17_12h29.35.561,kallum_motion_pilot_GIST_update_2,2026.1.1,Win32,60.24096386,697a4a348348ac9e3727411f,69b92ab4aef6dee357cd729a,69b92bd1a4f5023e73b61106,0.2032,0.2032,0,71,71,159,1,eightseven,,,,,,,,,,,,,,,,,,,,,,,,,,,,,,,,,,,,,,,,,,,,,,,,,,,,,,,,,,,,,,,,,,,,,,,,,,,,,,,,,,,,,,,,,,,,,,,,,,,,,,,,,,,,,,,,,,,,,,,,,,,,,,,,,,,,,,,,,
,,697a4a348348ac9e3727411f,2026-03-17_12h29.35.561,kallum_motion_pilot_GIST_update_2,2026.1.1,Win32,60.24096386,697a4a348348ac9e3727411f,69b92ab4aef6dee357cd729a,69b92bd1a4f5023e73b61106,0.2054,0.2054,0,72,72,15,1,fourthree,,,,,,,,,,,,,,,,,,,,,,,,,,,,,,,,,,,,,,,,,,,,,,,,,,,,,,,,,,,,,,,,,,,,,,,,,,,,,,,,,,,,,,,,,,,,,,,,,,,,,,,,,,,,,,,,,,,,,,,,,,,,,,,,,,,,,,,,,
,,697a4a348348ac9e3727411f,2026-03-17_12h29.35.561,kallum_motion_pilot_GIST_update_2,2026.1.1,Win32,60.24096386,697a4a348348ac9e3727411f,69b92ab4aef6dee357cd729a,69b92bd1a4f5023e73b61106,0.2059,0.206,0,73,73,120,1,fivesix,,,,,,,,,,,,,,,,,,,,,,,,,,,,,,,,,,,,,,,,,,,,,,,,,,,,,,,,,,,,,,,,,,,,,,,,,,,,,,,,,,,,,,,,,,,,,,,,,,,,,,,,,,,,,,,,,,,,,,,,,,,,,,,,,,,,,,,,,
,,697a4a348348ac9e3727411f,2026-03-17_12h29.35.561,kallum_motion_pilot_GIST_update_2,2026.1.1,Win32,60.24096386,697a4a348348ac9e3727411f,69b92ab4aef6dee357cd729a,69b92bd1a4f5023e73b61106,0.2082,0.2083,0,74,74,124,1,sevenfive,,,,,,,,,,,,,,,,,,,,,,,,,,,,,,,,,,,,,,,,,,,,,,,,,,,,,,,,,,,,,,,,,,,,,,,,,,,,,,,,,,,,,,,,,,,,,,,,,,,,,,,,,,,,,,,,,,,,,,,,,,,,,,,,,,,,,,,,,
,,697a4a348348ac9e3727411f,2026-03-17_12h29.35.561,kallum_motion_pilot_GIST_update_2,2026.1.1,Win32,60.24096386,697a4a348348ac9e3727411f,69b92ab4aef6dee357cd729a,69b92bd1a4f5023e73b61106,0.209,0.2091,0,75,75,49,1,onethree,,,,,,,,,,,,,,,,,,,,,,,,,,,,,,,,,,,,,,,,,,,,,,,,,,,,,,,,,,,,,,,,,,,,,,,,,,,,,,,,,,,,,,,,,,,,,,,,,,,,,,,,,,,,,,,,,,,,,,,,,,,,,,,,,,,,,,,,,
,,697a4a348348ac9e3727411f,2026-03-17_12h29.35.561,kallum_motion_pilot_GIST_update_2,2026.1.1,Win32,60.24096386,697a4a348348ac9e3727411f,69b92ab4aef6dee357cd729a,69b92bd1a4f5023e73b61106,0.2095,0.2095,0,76,76,44,1,threeone,,,,,,,,,,,,,,,,,,,,,,,,,,,,,,,,,,,,,,,,,,,,,,,,,,,,,,,,,,,,,,,,,,,,,,,,,,,,,,,,,,,,,,,,,,,,,,,,,,,,,,,,,,,,,,,,,,,,,,,,,,,,,,,,,,,,,,,,,
,,697a4a348348ac9e3727411f,2026-03-17_12h29.35.561,kallum_motion_pilot_GIST_update_2,2026.1.1,Win32,60.24096386,697a4a348348ac9e3727411f,69b92ab4aef6dee357cd729a,69b92bd1a4f5023e73b61106,0.2105,0.2106,0,77,77,92,1,sevenfive,,,,,,,,,,,,,,,,,,,,,,,,,,,,,,,,,,,,,,,,,,,,,,,,,,,,,,,,,,,,,,,,,,,,,,,,,,,,,,,,,,,,,,,,,,,,,,,,,,,,,,,,,,,,,,,,,,,,,,,,,,,,,,,,,,,,,,,,,
,,697a4a348348ac9e3727411f,2026-03-17_12h29.35.561,kallum_motion_pilot_GIST_update_2,2026.1.1,Win32,60.24096386,697a4a348348ac9e3727411f,69b92ab4aef6dee357cd729a,69b92bd1a4f5023e73b61106,0.2112,0.2112,0,78,78,146,1,sixfive,,,,,,,,,,,,,,,,,,,,,,,,,,,,,,,,,,,,,,,,,,,,,,,,,,,,,,,,,,,,,,,,,,,,,,,,,,,,,,,,,,,,,,,,,,,,,,,,,,,,,,,,,,,,,,,,,,,,,,,,,,,,,,,,,,,,,,,,,
,,697a4a348348ac9e3727411f,2026-03-17_12h29.35.561,kallum_motion_pilot_GIST_update_2,2026.1.1,Win32,60.24096386,697a4a348348ac9e3727411f,69b92ab4aef6dee357cd729a,69b92bd1a4f5023e73b61106,0.2117,0.2117,0,79,79,63,1,fourthree,,,,,,,,,,,,,,,,,,,,,,,,,,,,,,,,,,,,,,,,,,,,,,,,,,,,,,,,,,,,,,,,,,,,,,,,,,,,,,,,,,,,,,,,,,,,,,,,,,,,,,,,,,,,,,,,,,,,,,,,,,,,,,,,,,,,,,,,,
,,697a4a348348ac9e3727411f,2026-03-17_12h29.35.561,kallum_motion_pilot_GIST_update_2,2026.1.1,Win32,60.24096386,697a4a348348ac9e3727411f,69b92ab4aef6dee357cd729a,69b92bd1a4f5023e73b61106,0.2123,0.2124,0,80,80,85,1,seveneight,,,,,,,,,,,,,,,,,,,,,,,,,,,,,,,,,,,,,,,,,,,,,,,,,,,,,,,,,,,,,,,,,,,,,,,,,,,,,,,,,,,,,,,,,,,,,,,,,,,,,,,,,,,,,,,,,,,,,,,,,,,,,,,,,,,,,,,,,
,,697a4a348348ac9e3727411f,2026-03-17_12h29.35.561,kallum_motion_pilot_GIST_update_2,2026.1.1,Win32,60.24096386,697a4a348348ac9e3727411f,69b92ab4aef6dee357cd729a,69b92bd1a4f5023e73b61106,0.2144,0.2146,0,81,81,36,1,threeone,,,,,,,,,,,,,,,,,,,,,,,,,,,,,,,,,,,,,,,,,,,,,,,,,,,,,,,,,,,,,,,,,,,,,,,,,,,,,,,,,,,,,,,,,,,,,,,,,,,,,,,,,,,,,,,,,,,,,,,,,,,,,,,,,,,,,,,,,
,,697a4a348348ac9e3727411f,2026-03-17_12h29.35.561,kallum_motion_pilot_GIST_update_2,2026.1.1,Win32,60.24096386,697a4a348348ac9e3727411f,69b92ab4aef6dee357cd729a,69b92bd1a4f5023e73b61106,0.2158,0.2159,0,82,82,118,1,eightsix,,,,,,,,,,,,,,,,,,,,,,,,,,,,,,,,,,,,,,,,,,,,,,,,,,,,,,,,,,,,,,,,,,,,,,,,,,,,,,,,,,,,,,,,,,,,,,,,,,,,,,,,,,,,,,,,,,,,,,,,,,,,,,,,,,,,,,,,,
,,697a4a348348ac9e3727411f,2026-03-17_12h29.35.561,kallum_motion_pilot_GIST_update_2,2026.1.1,Win32,60.24096386,697a4a348348ac9e3727411f,69b92ab4aef6dee357cd729a,69b92bd1a4f5023e73b61106,0.2167,0.2167,0,83,83,51,1,twofour,,,,,,,,,,,,,,,,,,,,,,,,,,,,,,,,,,,,,,,,,,,,,,,,,,,,,,,,,,,,,,,,,,,,,,,,,,,,,,,,,,,,,,,,,,,,,,,,,,,,,,,,,,,,,,,,,,,,,,,,,,,,,,,,,,,,,,,,,
,,697a4a348348ac9e3727411f,2026-03-17_12h29.35.561,kallum_motion_pilot_GIST_update_2,2026.1.1,Win32,60.24096386,697a4a348348ac9e3727411f,69b92ab4aef6dee357cd729a,69b92bd1a4f5023e73b61106,0.2196,0.2197,0,84,84,87,1,eightseven,,,,,,,,,,,,,,,,,,,,,,,,,,,,,,,,,,,,,,,,,,,,,,,,,,,,,,,,,,,,,,,,,,,,,,,,,,,,,,,,,,,,,,,,,,,,,,,,,,,,,,,,,,,,,,,,,,,,,,,,,,,,,,,,,,,,,,,,,
,,697a4a348348ac9e3727411f,2026-03-17_12h29.35.561,kallum_motion_pilot_GIST_update_2,2026.1.1,Win32,60.24096386,697a4a348348ac9e3727411f,69b92ab4aef6dee357cd729a,69b92bd1a4f5023e73b61106,0.2205,0.2206,0,85,85,86,1,eightsix,,,,,,,,,,,,,,,,,,,,,,,,,,,,,,,,,,,,,,,,,,,,,,,,,,,,,,,,,,,,,,,,,,,,,,,,,,,,,,,,,,,,,,,,,,,,,,,,,,,,,,,,,,,,,,,,,,,,,,,,,,,,,,,,,,,,,,,,,
,,697a4a348348ac9e3727411f,2026-03-17_12h29.35.561,kallum_motion_pilot_GIST_update_2,2026.1.1,Win32,60.24096386,697a4a348348ac9e3727411f,69b92ab4aef6dee357cd729a,69b92bd1a4f5023e73b61106,0.221,0.2212,0,86,86,9,1,onethree,,,,,,,,,,,,,,,,,,,,,,,,,,,,,,,,,,,,,,,,,,,,,,,,,,,,,,,,,,,,,,,,,,,,,,,,,,,,,,,,,,,,,,,,,,,,,,,,,,,,,,,,,,,,,,,,,,,,,,,,,,,,,,,,,,,,,,,,,
,,697a4a348348ac9e3727411f,2026-03-17_12h29.35.561,kallum_motion_pilot_GIST_update_2,2026.1.1,Win32,60.24096386,697a4a348348ac9e3727411f,69b92ab4aef6dee357cd729a,69b92bd1a4f5023e73b61106,0.2219,0.2219,0,87,87,27,1,twofour,,,,,,,,,,,,,,,,,,,,,,,,,,,,,,,,,,,,,,,,,,,,,,,,,,,,,,,,,,,,,,,,,,,,,,,,,,,,,,,,,,,,,,,,,,,,,,,,,,,,,,,,,,,,,,,,,,,,,,,,,,,,,,,,,,,,,,,,,
,,697a4a348348ac9e3727411f,2026-03-17_12h29.35.561,kallum_motion_pilot_GIST_update_2,2026.1.1,Win32,60.24096386,697a4a348348ac9e3727411f,69b92ab4aef6dee357cd729a,69b92bd1a4f5023e73b61106,0.2237,0.2239,0,88,88,98,1,sixfive,,,,,,,,,,,,,,,,,,,,,,,,,,,,,,,,,,,,,,,,,,,,,,,,,,,,,,,,,,,,,,,,,,,,,,,,,,,,,,,,,,,,,,,,,,,,,,,,,,,,,,,,,,,,,,,,,,,,,,,,,,,,,,,,,,,,,,,,,
,,697a4a348348ac9e3727411f,2026-03-17_12h29.35.561,kallum_motion_pilot_GIST_update_2,2026.1.1,Win32,60.24096386,697a4a348348ac9e3727411f,69b92ab4aef6dee357cd729a,69b92bd1a4f5023e73b61106,0.2258,0.2258,0,89,89,24,1,onetwo,,,,,,,,,,,,,,,,,,,,,,,,,,,,,,,,,,,,,,,,,,,,,,,,,,,,,,,,,,,,,,,,,,,,,,,,,,,,,,,,,,,,,,,,,,,,,,,,,,,,,,,,,,,,,,,,,,,,,,,,,,,,,,,,,,,,,,,,,
,,697a4a348348ac9e3727411f,2026-03-17_12h29.35.561,kallum_motion_pilot_GIST_update_2,2026.1.1,Win32,60.24096386,697a4a348348ac9e3727411f,69b92ab4aef6dee357cd729a,69b92bd1a4f5023e73b61106,0.2266,0.2267,0,90,90,4,1,threeone,,,,,,,,,,,,,,,,,,,,,,,,,,,,,,,,,,,,,,,,,,,,,,,,,,,,,,,,,,,,,,,,,,,,,,,,,,,,,,,,,,,,,,,,,,,,,,,,,,,,,,,,,,,,,,,,,,,,,,,,,,,,,,,,,,,,,,,,,
,,697a4a348348ac9e3727411f,2026-03-17_12h29.35.561,kallum_motion_pilot_GIST_update_2,2026.1.1,Win32,60.24096386,697a4a348348ac9e3727411f,69b92ab4aef6dee357cd729a,69b92bd1a4f5023e73b61106,0.2298,0.2298,0,91,91,112,1,fivesix,,,,,,,,,,,,,,,,,,,,,,,,,,,,,,,,,,,,,,,,,,,,,,,,,,,,,,,,,,,,,,,,,,,,,,,,,,,,,,,,,,,,,,,,,,,,,,,,,,,,,,,,,,,,,,,,,,,,,,,,,,,,,,,,,,,,,,,,,
,,697a4a348348ac9e3727411f,2026-03-17_12h29.35.561,kallum_motion_pilot_GIST_update_2,2026.1.1,Win32,60.24096386,697a4a348348ac9e3727411f,69b92ab4aef6dee357cd729a,69b92bd1a4f5023e73b61106,0.2307,0.2307,0,92,92,88,1,fivesix,,,,,,,,,,,,,,,,,,,,,,,,,,,,,,,,,,,,,,,,,,,,,,,,,,,,,,,,,,,,,,,,,,,,,,,,,,,,,,,,,,,,,,,,,,,,,,,,,,,,,,,,,,,,,,,,,,,,,,,,,,,,,,,,,,,,,,,,,
,,697a4a348348ac9e3727411f,2026-03-17_12h29.35.561,kallum_motion_pilot_GIST_update_2,2026.1.1,Win32,60.24096386,697a4a348348ac9e3727411f,69b92ab4aef6dee357cd729a,69b92bd1a4f5023e73b61106,0.2322,0.2323,0,93,93,77,1,threefour,,,,,,,,,,,,,,,,,,,,,,,,,,,,,,,,,,,,,,,,,,,,,,,,,,,,,,,,,,,,,,,,,,,,,,,,,,,,,,,,,,,,,,,,,,,,,,,,,,,,,,,,,,,,,,,,,,,,,,,,,,,,,,,,,,,,,,,,,
,,697a4a348348ac9e3727411f,2026-03-17_12h29.35.561,kallum_motion_pilot_GIST_update_2,2026.1.1,Win32,60.24096386,697a4a348348ac9e3727411f,69b92ab4aef6dee357cd729a,69b92bd1a4f5023e73b61106,0.2334,0.2335,0,94,94,103,1,eightseven,,,,,,,,,,,,,,,,,,,,,,,,,,,,,,,,,,,,,,,,,,,,,,,,,,,,,,,,,,,,,,,,,,,,,,,,,,,,,,,,,,,,,,,,,,,,,,,,,,,,,,,,,,,,,,,,,,,,,,,,,,,,,,,,,,,,,,,,,
,,697a4a348348ac9e3727411f,2026-03-17_12h29.35.561,kallum_motion_pilot_GIST_update_2,2026.1.1,Win32,60.24096386,697a4a348348ac9e3727411f,69b92ab4aef6dee357cd729a,69b92bd1a4f5023e73b61106,0.2343,0.2343,0,95,95,0,1,onetwo,,,,,,,,,,,,,,,,,,,,,,,,,,,,,,,,,,,,,,,,,,,,,,,,,,,,,,,,,,,,,,,,,,,,,,,,,,,,,,,,,,,,,,,,,,,,,,,,,,,,,,,,,,,,,,,,,,,,,,,,,,,,,,,,,,,,,,,,,
,,697a4a348348ac9e3727411f,2026-03-17_12h29.35.561,kallum_motion_pilot_GIST_update_2,2026.1.1,Win32,60.24096386,697a4a348348ac9e3727411f,69b92ab4aef6dee357cd729a,69b92bd1a4f5023e73b61106,0.2354,0.2354,0,96,96,160,1,fivesix,,,,,,,,,,,,,,,,,,,,,,,,,,,,,,,,,,,,,,,,,,,,,,,,,,,,,,,,,,,,,,,,,,,,,,,,,,,,,,,,,,,,,,,,,,,,,,,,,,,,,,,,,,,,,,,,,,,,,,,,,,,,,,,,,,,,,,,,,
,,697a4a348348ac9e3727411f,2026-03-17_12h29.35.561,kallum_motion_pilot_GIST_update_2,2026.1.1,Win32,60.24096386,697a4a348348ac9e3727411f,69b92ab4aef6dee357cd729a,69b92bd1a4f5023e73b61106,0.2362,0.2362,0,97,97,57,1,onethree,,,,,,,,,,,,,,,,,,,,,,,,,,,,,,,,,,,,,,,,,,,,,,,,,,,,,,,,,,,,,,,,,,,,,,,,,,,,,,,,,,,,,,,,,,,,,,,,,,,,,,,,,,,,,,,,,,,,,,,,,,,,,,,,,,,,,,,,,
,,697a4a348348ac9e3727411f,2026-03-17_12h29.35.561,kallum_motion_pilot_GIST_update_2,2026.1.1,Win32,60.24096386,697a4a348348ac9e3727411f,69b92ab4aef6dee357cd729a,69b92bd1a4f5023e73b61106,0.2393,0.2393,0,98,98,104,1,fivesix,,,,,,,,,,,,,,,,,,,,,,,,,,,,,,,,,,,,,,,,,,,,,,,,,,,,,,,,,,,,,,,,,,,,,,,,,,,,,,,,,,,,,,,,,,,,,,,,,,,,,,,,,,,,,,,,,,,,,,,,,,,,,,,,,,,,,,,,,
,,697a4a348348ac9e3727411f,2026-03-17_12h29.35.561,kallum_motion_pilot_GIST_update_2,2026.1.1,Win32,60.24096386,697a4a348348ac9e3727411f,69b92ab4aef6dee357cd729a,69b92bd1a4f5023e73b61106,0.2419,0.2419,0,99,99,52,1,threeone,,,,,,,,,,,,,,,,,,,,,,,,,,,,,,,,,,,,,,,,,,,,,,,,,,,,,,,,,,,,,,,,,,,,,,,,,,,,,,,,,,,,,,,,,,,,,,,,,,,,,,,,,,,,,,,,,,,,,,,,,,,,,,,,,,,,,,,,,
,,697a4a348348ac9e3727411f,2026-03-17_12h29.35.561,kallum_motion_pilot_GIST_update_2,2026.1.1,Win32,60.24096386,697a4a348348ac9e3727411f,69b92ab4aef6dee357cd729a,69b92bd1a4f5023e73b61106,0.2429,0.243,0,100,100,157,1,seveneight,,,,,,,,,,,,,,,,,,,,,,,,,,,,,,,,,,,,,,,,,,,,,,,,,,,,,,,,,,,,,,,,,,,,,,,,,,,,,,,,,,,,,,,,,,,,,,,,,,,,,,,,,,,,,,,,,,,,,,,,,,,,,,,,,,,,,,,,,
,,697a4a348348ac9e3727411f,2026-03-17_12h29.35.561,kallum_motion_pilot_GIST_update_2,2026.1.1,Win32,60.24096386,697a4a348348ac9e3727411f,69b92ab4aef6dee357cd729a,69b92bd1a4f5023e73b61106,0.2438,0.2439,0,101,101,50,1,twoone,,,,,,,,,,,,,,,,,,,,,,,,,,,,,,,,,,,,,,,,,,,,,,,,,,,,,,,,,,,,,,,,,,,,,,,,,,,,,,,,,,,,,,,,,,,,,,,,,,,,,,,,,,,,,,,,,,,,,,,,,,,,,,,,,,,,,,,,,
,,697a4a348348ac9e3727411f,2026-03-17_12h29.35.561,kallum_motion_pilot_GIST_update_2,2026.1.1,Win32,60.24096386,697a4a348348ac9e3727411f,69b92ab4aef6dee357cd729a,69b92bd1a4f5023e73b61106,0.2449,0.245,0,102,102,74,1,twoone,,,,,,,,,,,,,,,,,,,,,,,,,,,,,,,,,,,,,,,,,,,,,,,,,,,,,,,,,,,,,,,,,,,,,,,,,,,,,,,,,,,,,,,,,,,,,,,,,,,,,,,,,,,,,,,,,,,,,,,,,,,,,,,,,,,,,,,,,
,,697a4a348348ac9e3727411f,2026-03-17_12h29.35.561,kallum_motion_pilot_GIST_update_2,2026.1.1,Win32,60.24096386,697a4a348348ac9e3727411f,69b92ab4aef6dee357cd729a,69b92bd1a4f5023e73b61106,0.2458,0.2459,0,103,103,46,1,fourtwo,,,,,,,,,,,,,,,,,,,,,,,,,,,,,,,,,,,,,,,,,,,,,,,,,,,,,,,,,,,,,,,,,,,,,,,,,,,,,,,,,,,,,,,,,,,,,,,,,,,,,,,,,,,,,,,,,,,,,,,,,,,,,,,,,,,,,,,,,
,,697a4a348348ac9e3727411f,2026-03-17_12h29.35.561,kallum_motion_pilot_GIST_update_2,2026.1.1,Win32,60.24096386,697a4a348348ac9e3727411f,69b92ab4aef6dee357cd729a,69b92bd1a4f5023e73b61106,0.2464,0.2466,0,104,104,13,1,threefour,,,,,,,,,,,,,,,,,,,,,,,,,,,,,,,,,,,,,,,,,,,,,,,,,,,,,,,,,,,,,,,,,,,,,,,,,,,,,,,,,,,,,,,,,,,,,,,,,,,,,,,,,,,,,,,,,,,,,,,,,,,,,,,,,,,,,,,,,
,,697a4a348348ac9e3727411f,2026-03-17_12h29.35.561,kallum_motion_pilot_GIST_update_2,2026.1.1,Win32,60.24096386,697a4a348348ac9e3727411f,69b92ab4aef6dee357cd729a,69b92bd1a4f5023e73b61106,0.248,0.248,0,105,105,154,1,sixfive,,,,,,,,,,,,,,,,,,,,,,,,,,,,,,,,,,,,,,,,,,,,,,,,,,,,,,,,,,,,,,,,,,,,,,,,,,,,,,,,,,,,,,,,,,,,,,,,,,,,,,,,,,,,,,,,,,,,,,,,,,,,,,,,,,,,,,,,,
,,697a4a348348ac9e3727411f,2026-03-17_12h29.35.561,kallum_motion_pilot_GIST_update_2,2026.1.1,Win32,60.24096386,697a4a348348ac9e3727411f,69b92ab4aef6dee357cd729a,69b92bd1a4f5023e73b61106,0.249,0.2491,0,106,106,99,1,sixeight,,,,,,,,,,,,,,,,,,,,,,,,,,,,,,,,,,,,,,,,,,,,,,,,,,,,,,,,,,,,,,,,,,,,,,,,,,,,,,,,,,,,,,,,,,,,,,,,,,,,,,,,,,,,,,,,,,,,,,,,,,,,,,,,,,,,,,,,,
,,697a4a348348ac9e3727411f,2026-03-17_12h29.35.561,kallum_motion_pilot_GIST_update_2,2026.1.1,Win32,60.24096386,697a4a348348ac9e3727411f,69b92ab4aef6dee357cd729a,69b92bd1a4f5023e73b61106,0.25,0.2501,0,107,107,144,1,fivesix,,,,,,,,,,,,,,,,,,,,,,,,,,,,,,,,,,,,,,,,,,,,,,,,,,,,,,,,,,,,,,,,,,,,,,,,,,,,,,,,,,,,,,,,,,,,,,,,,,,,,,,,,,,,,,,,,,,,,,,,,,,,,,,,,,,,,,,,,
,,697a4a348348ac9e3727411f,2026-03-17_12h29.35.561,kallum_motion_pilot_GIST_update_2,2026.1.1,Win32,60.24096386,697a4a348348ac9e3727411f,69b92ab4aef6dee357cd729a,69b92bd1a4f5023e73b61106,0.2509,0.2509,0,108,108,22,1,fourtwo,,,,,,,,,,,,,,,,,,,,,,,,,,,,,,,,,,,,,,,,,,,,,,,,,,,,,,,,,,,,,,,,,,,,,,,,,,,,,,,,,,,,,,,,,,,,,,,,,,,,,,,,,,,,,,,,,,,,,,,,,,,,,,,,,,,,,,,,,
,,697a4a348348ac9e3727411f,2026-03-17_12h29.35.561,kallum_motion_pilot_GIST_update_2,2026.1.1,Win32,60.24096386,697a4a348348ac9e3727411f,69b92ab4aef6dee357cd729a,69b92bd1a4f5023e73b61106,0.2514,0.2514,0,109,109,117,1,seveneight,,,,,,,,,,,,,,,,,,,,,,,,,,,,,,,,,,,,,,,,,,,,,,,,,,,,,,,,,,,,,,,,,,,,,,,,,,,,,,,,,,,,,,,,,,,,,,,,,,,,,,,,,,,,,,,,,,,,,,,,,,,,,,,,,,,,,,,,,
,,697a4a348348ac9e3727411f,2026-03-17_12h29.35.561,kallum_motion_pilot_GIST_update_2,2026.1.1,Win32,60.24096386,697a4a348348ac9e3727411f,69b92ab4aef6dee357cd729a,69b92bd1a4f5023e73b61106,0.2521,0.2521,0,110,110,73,1,onethree,,,,,,,,,,,,,,,,,,,,,,,,,,,,,,,,,,,,,,,,,,,,,,,,,,,,,,,,,,,,,,,,,,,,,,,,,,,,,,,,,,,,,,,,,,,,,,,,,,,,,,,,,,,,,,,,,,,,,,,,,,,,,,,,,,,,,,,,,
,,697a4a348348ac9e3727411f,2026-03-17_12h29.35.561,kallum_motion_pilot_GIST_update_2,2026.1.1,Win32,60.24096386,697a4a348348ac9e3727411f,69b92ab4aef6dee357cd729a,69b92bd1a4f5023e73b61106,0.2534,0.2534,0,111,111,91,1,sixeight,,,,,,,,,,,,,,,,,,,,,,,,,,,,,,,,,,,,,,,,,,,,,,,,,,,,,,,,,,,,,,,,,,,,,,,,,,,,,,,,,,,,,,,,,,,,,,,,,,,,,,,,,,,,,,,,,,,,,,,,,,,,,,,,,,,,,,,,,
,,697a4a348348ac9e3727411f,2026-03-17_12h29.35.561,kallum_motion_pilot_GIST_update_2,2026.1.1,Win32,60.24096386,697a4a348348ac9e3727411f,69b92ab4aef6dee357cd729a,69b92bd1a4f5023e73b61106,0.2542,0.2543,0,112,112,90,1,sixfive,,,,,,,,,,,,,,,,,,,,,,,,,,,,,,,,,,,,,,,,,,,,,,,,,,,,,,,,,,,,,,,,,,,,,,,,,,,,,,,,,,,,,,,,,,,,,,,,,,,,,,,,,,,,,,,,,,,,,,,,,,,,,,,,,,,,,,,,,
,,697a4a348348ac9e3727411f,2026-03-17_12h29.35.561,kallum_motion_pilot_GIST_update_2,2026.1.1,Win32,60.24096386,697a4a348348ac9e3727411f,69b92ab4aef6dee357cd729a,69b92bd1a4f5023e73b61106,0.2555,0.2556,0,113,113,113,1,fiveseven,,,,,,,,,,,,,,,,,,,,,,,,,,,,,,,,,,,,,,,,,,,,,,,,,,,,,,,,,,,,,,,,,,,,,,,,,,,,,,,,,,,,,,,,,,,,,,,,,,,,,,,,,,,,,,,,,,,,,,,,,,,,,,,,,,,,,,,,,
,,697a4a348348ac9e3727411f,2026-03-17_12h29.35.561,kallum_motion_pilot_GIST_update_2,2026.1.1,Win32,60.24096386,697a4a348348ac9e3727411f,69b92ab4aef6dee357cd729a,69b92bd1a4f5023e73b61106,0.2563,0.2591,0,114,114,39,1,fourthree,,,,,,,,,,,,,,,,,,,,,,,,,,,,,,,,,,,,,,,,,,,,,,,,,,,,,,,,,,,,,,,,,,,,,,,,,,,,,,,,,,,,,,,,,,,,,,,,,,,,,,,,,,,,,,,,,,,,,,,,,,,,,,,,,,,,,,,,,
,,697a4a348348ac9e3727411f,2026-03-17_12h29.35.561,kallum_motion_pilot_GIST_update_2,2026.1.1,Win32,60.24096386,697a4a348348ac9e3727411f,69b92ab4aef6dee357cd729a,69b92bd1a4f5023e73b61106,0.26,0.2601,0,115,115,21,1,threefour,,,,,,,,,,,,,,,,,,,,,,,,,,,,,,,,,,,,,,,,,,,,,,,,,,,,,,,,,,,,,,,,,,,,,,,,,,,,,,,,,,,,,,,,,,,,,,,,,,,,,,,,,,,,,,,,,,,,,,,,,,,,,,,,,,,,,,,,,
,,697a4a348348ac9e3727411f,2026-03-17_12h29.35.561,kallum_motion_pilot_GIST_update_2,2026.1.1,Win32,60.24096386,697a4a348348ac9e3727411f,69b92ab4aef6dee357cd729a,69b92bd1a4f5023e73b61106,0.2615,0.2615,0,116,116,143,1,eightseven,,,,,,,,,,,,,,,,,,,,,,,,,,,,,,,,,,,,,,,,,,,,,,,,,,,,,,,,,,,,,,,,,,,,,,,,,,,,,,,,,,,,,,,,,,,,,,,,,,,,,,,,,,,,,,,,,,,,,,,,,,,,,,,,,,,,,,,,,
,,697a4a348348ac9e3727411f,2026-03-17_12h29.35.561,kallum_motion_pilot_GIST_update_2,2026.1.1,Win32,60.24096386,697a4a348348ac9e3727411f,69b92ab4aef6dee357cd729a,69b92bd1a4f5023e73b61106,0.2626,0.2626,0,117,117,96,1,fivesix,,,,,,,,,,,,,,,,,,,,,,,,,,,,,,,,,,,,,,,,,,,,,,,,,,,,,,,,,,,,,,,,,,,,,,,,,,,,,,,,,,,,,,,,,,,,,,,,,,,,,,,,,,,,,,,,,,,,,,,,,,,,,,,,,,,,,,,,,
,,697a4a348348ac9e3727411f,2026-03-17_12h29.35.561,kallum_motion_pilot_GIST_update_2,2026.1.1,Win32,60.24096386,697a4a348348ac9e3727411f,69b92ab4aef6dee357cd729a,69b92bd1a4f5023e73b61106,0.2634,0.2635,0,118,118,54,1,fourtwo,,,,,,,,,,,,,,,,,,,,,,,,,,,,,,,,,,,,,,,,,,,,,,,,,,,,,,,,,,,,,,,,,,,,,,,,,,,,,,,,,,,,,,,,,,,,,,,,,,,,,,,,,,,,,,,,,,,,,,,,,,,,,,,,,,,,,,,,,
,,697a4a348348ac9e3727411f,2026-03-17_12h29.35.561,kallum_motion_pilot_GIST_update_2,2026.1.1,Win32,60.24096386,697a4a348348ac9e3727411f,69b92ab4aef6dee357cd729a,69b92bd1a4f5023e73b61106,0.2646,0.2647,0,119,119,79,1,eightseven,,,,,,,,,,,,,,,,,,,,,,,,,,,,,,,,,,,,,,,,,,,,,,,,,,,,,,,,,,,,,,,,,,,,,,,,,,,,,,,,,,,,,,,,,,,,,,,,,,,,,,,,,,,,,,,,,,,,,,,,,,,,,,,,,,,,,,,,,
,,697a4a348348ac9e3727411f,2026-03-17_12h29.35.561,kallum_motion_pilot_GIST_update_2,2026.1.1,Win32,60.24096386,697a4a348348ac9e3727411f,69b92ab4aef6dee357cd729a,69b92bd1a4f5023e73b61106,0.2655,0.2656,0,120,120,84,1,sevenfive,,,,,,,,,,,,,,,,,,,,,,,,,,,,,,,,,,,,,,,,,,,,,,,,,,,,,,,,,,,,,,,,,,,,,,,,,,,,,,,,,,,,,,,,,,,,,,,,,,,,,,,,,,,,,,,,,,,,,,,,,,,,,,,,,,,,,,,,,
,,697a4a348348ac9e3727411f,2026-03-17_12h29.35.561,kallum_motion_pilot_GIST_update_2,2026.1.1,Win32,60.24096386,697a4a348348ac9e3727411f,69b92ab4aef6dee357cd729a,69b92bd1a4f5023e73b61106,0.268,0.2681,0,121,121,66,1,twoone,,,,,,,,,,,,,,,,,,,,,,,,,,,,,,,,,,,,,,,,,,,,,,,,,,,,,,,,,,,,,,,,,,,,,,,,,,,,,,,,,,,,,,,,,,,,,,,,,,,,,,,,,,,,,,,,,,,,,,,,,,,,,,,,,,,,,,,,,
,,697a4a348348ac9e3727411f,2026-03-17_12h29.35.561,kallum_motion_pilot_GIST_update_2,2026.1.1,Win32,60.24096386,697a4a348348ac9e3727411f,69b92ab4aef6dee357cd729a,69b92bd1a4f5023e73b61106,0.2692,0.2694,0,122,122,42,1,twoone,,,,,,,,,,,,,,,,,,,,,,,,,,,,,,,,,,,,,,,,,,,,,,,,,,,,,,,,,,,,,,,,,,,,,,,,,,,,,,,,,,,,,,,,,,,,,,,,,,,,,,,,,,,,,,,,,,,,,,,,,,,,,,,,,,,,,,,,,
,,697a4a348348ac9e3727411f,2026-03-17_12h29.35.561,kallum_motion_pilot_GIST_update_2,2026.1.1,Win32,60.24096386,697a4a348348ac9e3727411f,69b92ab4aef6dee357cd729a,69b92bd1a4f5023e73b61106,0.27,0.2704,0,123,123,102,1,eightsix,,,,,,,,,,,,,,,,,,,,,,,,,,,,,,,,,,,,,,,,,,,,,,,,,,,,,,,,,,,,,,,,,,,,,,,,,,,,,,,,,,,,,,,,,,,,,,,,,,,,,,,,,,,,,,,,,,,,,,,,,,,,,,,,,,,,,,,,,
,,697a4a348348ac9e3727411f,2026-03-17_12h29.35.561,kallum_motion_pilot_GIST_update_2,2026.1.1,Win32,60.24096386,697a4a348348ac9e3727411f,69b92ab4aef6dee357cd729a,69b92bd1a4f5023e73b61106,0.2712,0.2712,0,124,124,82,1,sixfive,,,,,,,,,,,,,,,,,,,,,,,,,,,,,,,,,,,,,,,,,,,,,,,,,,,,,,,,,,,,,,,,,,,,,,,,,,,,,,,,,,,,,,,,,,,,,,,,,,,,,,,,,,,,,,,,,,,,,,,,,,,,,,,,,,,,,,,,,
,,697a4a348348ac9e3727411f,2026-03-17_12h29.35.561,kallum_motion_pilot_GIST_update_2,2026.1.1,Win32,60.24096386,697a4a348348ac9e3727411f,69b92ab4aef6dee357cd729a,69b92bd1a4f5023e73b61106,0.272,0.2724,0,125,125,35,1,twofour,,,,,,,,,,,,,,,,,,,,,,,,,,,,,,,,,,,,,,,,,,,,,,,,,,,,,,,,,,,,,,,,,,,,,,,,,,,,,,,,,,,,,,,,,,,,,,,,,,,,,,,,,,,,,,,,,,,,,,,,,,,,,,,,,,,,,,,,,
,,697a4a348348ac9e3727411f,2026-03-17_12h29.35.561,kallum_motion_pilot_GIST_update_2,2026.1.1,Win32,60.24096386,697a4a348348ac9e3727411f,69b92ab4aef6dee357cd729a,69b92bd1a4f5023e73b61106,0.274,0.2741,0,126,126,158,1,eightsix,,,,,,,,,,,,,,,,,,,,,,,,,,,,,,,,,,,,,,,,,,,,,,,,,,,,,,,,,,,,,,,,,,,,,,,,,,,,,,,,,,,,,,,,,,,,,,,,,,,,,,,,,,,,,,,,,,,,,,,,,,,,,,,,,,,,,,,,,
,,697a4a348348ac9e3727411f,2026-03-17_12h29.35.561,kallum_motion_pilot_GIST_update_2,2026.1.1,Win32,60.24096386,697a4a348348ac9e3727411f,69b92ab4aef6dee357cd729a,69b92bd1a4f5023e73b61106,0.2749,0.275,0,127,127,65,1,onethree,,,,,,,,,,,,,,,,,,,,,,,,,,,,,,,,,,,,,,,,,,,,,,,,,,,,,,,,,,,,,,,,,,,,,,,,,,,,,,,,,,,,,,,,,,,,,,,,,,,,,,,,,,,,,,,,,,,,,,,,,,,,,,,,,,,,,,,,,
,,697a4a348348ac9e3727411f,2026-03-17_12h29.35.561,kallum_motion_pilot_GIST_update_2,2026.1.1,Win32,60.24096386,697a4a348348ac9e3727411f,69b92ab4aef6dee357cd729a,69b92bd1a4f5023e73b61106,0.278,0.2781,0,128,128,125,1,seveneight,,,,,,,,,,,,,,,,,,,,,,,,,,,,,,,,,,,,,,,,,,,,,,,,,,,,,,,,,,,,,,,,,,,,,,,,,,,,,,,,,,,,,,,,,,,,,,,,,,,,,,,,,,,,,,,,,,,,,,,,,,,,,,,,,,,,,,,,,
,,697a4a348348ac9e3727411f,2026-03-17_12h29.35.561,kallum_motion_pilot_GIST_update_2,2026.1.1,Win32,60.24096386,697a4a348348ac9e3727411f,69b92ab4aef6dee357cd729a,69b92bd1a4f5023e73b61106,0.2793,0.2794,0,129,129,14,1,fourtwo,,,,,,,,,,,,,,,,,,,,,,,,,,,,,,,,,,,,,,,,,,,,,,,,,,,,,,,,,,,,,,,,,,,,,,,,,,,,,,,,,,,,,,,,,,,,,,,,,,,,,,,,,,,,,,,,,,,,,,,,,,,,,,,,,,,,,,,,,
,,697a4a348348ac9e3727411f,2026-03-17_12h29.35.561,kallum_motion_pilot_GIST_update_2,2026.1.1,Win32,60.24096386,697a4a348348ac9e3727411f,69b92ab4aef6dee357cd729a,69b92bd1a4f5023e73b61106,0.2803,0.2804,0,130,130,33,1,onethree,,,,,,,,,,,,,,,,,,,,,,,,,,,,,,,,,,,,,,,,,,,,,,,,,,,,,,,,,,,,,,,,,,,,,,,,,,,,,,,,,,,,,,,,,,,,,,,,,,,,,,,,,,,,,,,,,,,,,,,,,,,,,,,,,,,,,,,,,
,,697a4a348348ac9e3727411f,2026-03-17_12h29.35.561,kallum_motion_pilot_GIST_update_2,2026.1.1,Win32,60.24096386,697a4a348348ac9e3727411f,69b92ab4aef6dee357cd729a,69b92bd1a4f5023e73b61106,0.2811,0.2811,0,131,131,7,1,fourthree,,,,,,,,,,,,,,,,,,,,,,,,,,,,,,,,,,,,,,,,,,,,,,,,,,,,,,,,,,,,,,,,,,,,,,,,,,,,,,,,,,,,,,,,,,,,,,,,,,,,,,,,,,,,,,,,,,,,,,,,,,,,,,,,,,,,,,,,,
,,697a4a348348ac9e3727411f,2026-03-17_12h29.35.561,kallum_motion_pilot_GIST_update_2,2026.1.1,Win32,60.24096386,697a4a348348ac9e3727411f,69b92ab4aef6dee357cd729a,69b92bd1a4f5023e73b61106,0.2815,0.2816,0,132,132,41,1,onethree,,,,,,,,,,,,,,,,,,,,,,,,,,,,,,,,,,,,,,,,,,,,,,,,,,,,,,,,,,,,,,,,,,,,,,,,,,,,,,,,,,,,,,,,,,,,,,,,,,,,,,,,,,,,,,,,,,,,,,,,,,,,,,,,,,,,,,,,,
,,697a4a348348ac9e3727411f,2026-03-17_12h29.35.561,kallum_motion_pilot_GIST_update_2,2026.1.1,Win32,60.24096386,697a4a348348ac9e3727411f,69b92ab4aef6dee357cd729a,69b92bd1a4f5023e73b61106,0.2826,0.283,0,133,133,68,1,threeone,,,,,,,,,,,,,,,,,,,,,,,,,,,,,,,,,,,,,,,,,,,,,,,,,,,,,,,,,,,,,,,,,,,,,,,,,,,,,,,,,,,,,,,,,,,,,,,,,,,,,,,,,,,,,,,,,,,,,,,,,,,,,,,,,,,,,,,,,
,,697a4a348348ac9e3727411f,2026-03-17_12h29.35.561,kallum_motion_pilot_GIST_update_2,2026.1.1,Win32,60.24096386,697a4a348348ac9e3727411f,69b92ab4aef6dee357cd729a,69b92bd1a4f5023e73b61106,0.2843,0.2845,0,134,134,59,1,twofour,,,,,,,,,,,,,,,,,,,,,,,,,,,,,,,,,,,,,,,,,,,,,,,,,,,,,,,,,,,,,,,,,,,,,,,,,,,,,,,,,,,,,,,,,,,,,,,,,,,,,,,,,,,,,,,,,,,,,,,,,,,,,,,,,,,,,,,,,
,,697a4a348348ac9e3727411f,2026-03-17_12h29.35.561,kallum_motion_pilot_GIST_update_2,2026.1.1,Win32,60.24096386,697a4a348348ac9e3727411f,69b92ab4aef6dee357cd729a,69b92bd1a4f5023e73b61106,0.2852,0.2853,0,135,135,93,1,seveneight,,,,,,,,,,,,,,,,,,,,,,,,,,,,,,,,,,,,,,,,,,,,,,,,,,,,,,,,,,,,,,,,,,,,,,,,,,,,,,,,,,,,,,,,,,,,,,,,,,,,,,,,,,,,,,,,,,,,,,,,,,,,,,,,,,,,,,,,,
,,697a4a348348ac9e3727411f,2026-03-17_12h29.35.561,kallum_motion_pilot_GIST_update_2,2026.1.1,Win32,60.24096386,697a4a348348ac9e3727411f,69b92ab4aef6dee357cd729a,69b92bd1a4f5023e73b61106,0.2881,0.2882,0,136,136,2,1,twoone,,,,,,,,,,,,,,,,,,,,,,,,,,,,,,,,,,,,,,,,,,,,,,,,,,,,,,,,,,,,,,,,,,,,,,,,,,,,,,,,,,,,,,,,,,,,,,,,,,,,,,,,,,,,,,,,,,,,,,,,,,,,,,,,,,,,,,,,,
,,697a4a348348ac9e3727411f,2026-03-17_12h29.35.561,kallum_motion_pilot_GIST_update_2,2026.1.1,Win32,60.24096386,697a4a348348ac9e3727411f,69b92ab4aef6dee357cd729a,69b92bd1a4f5023e73b61106,0.2891,0.2892,0,137,137,155,1,sixeight,,,,,,,,,,,,,,,,,,,,,,,,,,,,,,,,,,,,,,,,,,,,,,,,,,,,,,,,,,,,,,,,,,,,,,,,,,,,,,,,,,,,,,,,,,,,,,,,,,,,,,,,,,,,,,,,,,,,,,,,,,,,,,,,,,,,,,,,,
,,697a4a348348ac9e3727411f,2026-03-17_12h29.35.561,kallum_motion_pilot_GIST_update_2,2026.1.1,Win32,60.24096386,697a4a348348ac9e3727411f,69b92ab4aef6dee357cd729a,69b92bd1a4f5023e73b61106,0.2921,0.2921,0,138,138,121,1,fiveseven,,,,,,,,,,,,,,,,,,,,,,,,,,,,,,,,,,,,,,,,,,,,,,,,,,,,,,,,,,,,,,,,,,,,,,,,,,,,,,,,,,,,,,,,,,,,,,,,,,,,,,,,,,,,,,,,,,,,,,,,,,,,,,,,,,,,,,,,,
,,697a4a348348ac9e3727411f,2026-03-17_12h29.35.561,kallum_motion_pilot_GIST_update_2,2026.1.1,Win32,60.24096386,697a4a348348ac9e3727411f,69b92ab4aef6dee357cd729a,69b92bd1a4f5023e73b61106,0.2932,0.2933,0,139,139,31,1,fourthree,,,,,,,,,,,,,,,,,,,,,,,,,,,,,,,,,,,,,,,,,,,,,,,,,,,,,,,,,,,,,,,,,,,,,,,,,,,,,,,,,,,,,,,,,,,,,,,,,,,,,,,,,,,,,,,,,,,,,,,,,,,,,,,,,,,,,,,,,
,,697a4a348348ac9e3727411f,2026-03-17_12h29.35.561,kallum_motion_pilot_GIST_update_2,2026.1.1,Win32,60.24096386,697a4a348348ac9e3727411f,69b92ab4aef6dee357cd729a,69b92bd1a4f5023e73b61106,0.2945,0.2945,0,140,140,122,1,sixfive,,,,,,,,,,,,,,,,,,,,,,,,,,,,,,,,,,,,,,,,,,,,,,,,,,,,,,,,,,,,,,,,,,,,,,,,,,,,,,,,,,,,,,,,,,,,,,,,,,,,,,,,,,,,,,,,,,,,,,,,,,,,,,,,,,,,,,,,,
,,697a4a348348ac9e3727411f,2026-03-17_12h29.35.561,kallum_motion_pilot_GIST_update_2,2026.1.1,Win32,60.24096386,697a4a348348ac9e3727411f,69b92ab4aef6dee357cd729a,69b92bd1a4f5023e73b61106,0.2953,0.2954,0,141,141,12,1,threeone,,,,,,,,,,,,,,,,,,,,,,,,,,,,,,,,,,,,,,,,,,,,,,,,,,,,,,,,,,,,,,,,,,,,,,,,,,,,,,,,,,,,,,,,,,,,,,,,,,,,,,,,,,,,,,,,,,,,,,,,,,,,,,,,,,,,,,,,,
,,697a4a348348ac9e3727411f,2026-03-17_12h29.35.561,kallum_motion_pilot_GIST_update_2,2026.1.1,Win32,60.24096386,697a4a348348ac9e3727411f,69b92ab4aef6dee357cd729a,69b92bd1a4f5023e73b61106,0.2983,0.2983,0,142,142,72,1,onetwo,,,,,,,,,,,,,,,,,,,,,,,,,,,,,,,,,,,,,,,,,,,,,,,,,,,,,,,,,,,,,,,,,,,,,,,,,,,,,,,,,,,,,,,,,,,,,,,,,,,,,,,,,,,,,,,,,,,,,,,,,,,,,,,,,,,,,,,,,
,,697a4a348348ac9e3727411f,2026-03-17_12h29.35.561,kallum_motion_pilot_GIST_update_2,2026.1.1,Win32,60.24096386,697a4a348348ac9e3727411f,69b92ab4aef6dee357cd729a,69b92bd1a4f5023e73b61106,0.2993,0.2994,0,143,143,152,1,fivesix,,,,,,,,,,,,,,,,,,,,,,,,,,,,,,,,,,,,,,,,,,,,,,,,,,,,,,,,,,,,,,,,,,,,,,,,,,,,,,,,,,,,,,,,,,,,,,,,,,,,,,,,,,,,,,,,,,,,,,,,,,,,,,,,,,,,,,,,,
,,697a4a348348ac9e3727411f,2026-03-17_12h29.35.561,kallum_motion_pilot_GIST_update_2,2026.1.1,Win32,60.24096386,697a4a348348ac9e3727411f,69b92ab4aef6dee357cd729a,69b92bd1a4f5023e73b61106,0.3001,0.3002,0,144,144,140,1,sevenfive,,,,,,,,,,,,,,,,,,,,,,,,,,,,,,,,,,,,,,,,,,,,,,,,,,,,,,,,,,,,,,,,,,,,,,,,,,,,,,,,,,,,,,,,,,,,,,,,,,,,,,,,,,,,,,,,,,,,,,,,,,,,,,,,,,,,,,,,,
,,697a4a348348ac9e3727411f,2026-03-17_12h29.35.561,kallum_motion_pilot_GIST_update_2,2026.1.1,Win32,60.24096386,697a4a348348ac9e3727411f,69b92ab4aef6dee357cd729a,69b92bd1a4f5023e73b61106,0.302,0.3022,0,145,145,115,1,sixeight,,,,,,,,,,,,,,,,,,,,,,,,,,,,,,,,,,,,,,,,,,,,,,,,,,,,,,,,,,,,,,,,,,,,,,,,,,,,,,,,,,,,,,,,,,,,,,,,,,,,,,,,,,,,,,,,,,,,,,,,,,,,,,,,,,,,,,,,,
,,697a4a348348ac9e3727411f,2026-03-17_12h29.35.561,kallum_motion_pilot_GIST_update_2,2026.1.1,Win32,60.24096386,697a4a348348ac9e3727411f,69b92ab4aef6dee357cd729a,69b92bd1a4f5023e73b61106,0.3031,0.3032,0,146,146,11,1,twofour,,,,,,,,,,,,,,,,,,,,,,,,,,,,,,,,,,,,,,,,,,,,,,,,,,,,,,,,,,,,,,,,,,,,,,,,,,,,,,,,,,,,,,,,,,,,,,,,,,,,,,,,,,,,,,,,,,,,,,,,,,,,,,,,,,,,,,,,,
,,697a4a348348ac9e3727411f,2026-03-17_12h29.35.561,kallum_motion_pilot_GIST_update_2,2026.1.1,Win32,60.24096386,697a4a348348ac9e3727411f,69b92ab4aef6dee357cd729a,69b92bd1a4f5023e73b61106,0.304,0.304,0,147,147,119,1,eightseven,,,,,,,,,,,,,,,,,,,,,,,,,,,,,,,,,,,,,,,,,,,,,,,,,,,,,,,,,,,,,,,,,,,,,,,,,,,,,,,,,,,,,,,,,,,,,,,,,,,,,,,,,,,,,,,,,,,,,,,,,,,,,,,,,,,,,,,,,
,,697a4a348348ac9e3727411f,2026-03-17_12h29.35.561,kallum_motion_pilot_GIST_update_2,2026.1.1,Win32,60.24096386,697a4a348348ac9e3727411f,69b92ab4aef6dee357cd729a,69b92bd1a4f5023e73b61106,0.3047,0.3049,0,148,148,16,1,onetwo,,,,,,,,,,,,,,,,,,,,,,,,,,,,,,,,,,,,,,,,,,,,,,,,,,,,,,,,,,,,,,,,,,,,,,,,,,,,,,,,,,,,,,,,,,,,,,,,,,,,,,,,,,,,,,,,,,,,,,,,,,,,,,,,,,,,,,,,,
,,697a4a348348ac9e3727411f,2026-03-17_12h29.35.561,kallum_motion_pilot_GIST_update_2,2026.1.1,Win32,60.24096386,697a4a348348ac9e3727411f,69b92ab4aef6dee357cd729a,69b92bd1a4f5023e73b61106,0.3087,0.3088,0,149,149,107,1,sixeight,,,,,,,,,,,,,,,,,,,,,,,,,,,,,,,,,,,,,,,,,,,,,,,,,,,,,,,,,,,,,,,,,,,,,,,,,,,,,,,,,,,,,,,,,,,,,,,,,,,,,,,,,,,,,,,,,,,,,,,,,,,,,,,,,,,,,,,,,
,,697a4a348348ac9e3727411f,2026-03-17_12h29.35.561,kallum_motion_pilot_GIST_update_2,2026.1.1,Win32,60.24096386,697a4a348348ac9e3727411f,69b92ab4aef6dee357cd729a,69b92bd1a4f5023e73b61106,0.31,0.31,0,150,150,47,1,fourthree,,,,,,,,,,,,,,,,,,,,,,,,,,,,,,,,,,,,,,,,,,,,,,,,,,,,,,,,,,,,,,,,,,,,,,,,,,,,,,,,,,,,,,,,,,,,,,,,,,,,,,,,,,,,,,,,,,,,,,,,,,,,,,,,,,,,,,,,,
,,697a4a348348ac9e3727411f,2026-03-17_12h29.35.561,kallum_motion_pilot_GIST_update_2,2026.1.1,Win32,60.24096386,697a4a348348ac9e3727411f,69b92ab4aef6dee357cd729a,69b92bd1a4f5023e73b61106,0.3114,0.3115,0,151,151,29,1,threefour,,,,,,,,,,,,,,,,,,,,,,,,,,,,,,,,,,,,,,,,,,,,,,,,,,,,,,,,,,,,,,,,,,,,,,,,,,,,,,,,,,,,,,,,,,,,,,,,,,,,,,,,,,,,,,,,,,,,,,,,,,,,,,,,,,,,,,,,,
,,697a4a348348ac9e3727411f,2026-03-17_12h29.35.561,kallum_motion_pilot_GIST_update_2,2026.1.1,Win32,60.24096386,697a4a348348ac9e3727411f,69b92ab4aef6dee357cd729a,69b92bd1a4f5023e73b61106,0.3124,0.3125,0,152,152,114,1,sixfive,,,,,,,,,,,,,,,,,,,,,,,,,,,,,,,,,,,,,,,,,,,,,,,,,,,,,,,,,,,,,,,,,,,,,,,,,,,,,,,,,,,,,,,,,,,,,,,,,,,,,,,,,,,,,,,,,,,,,,,,,,,,,,,,,,,,,,,,,
,,697a4a348348ac9e3727411f,2026-03-17_12h29.35.561,kallum_motion_pilot_GIST_update_2,2026.1.1,Win32,60.24096386,697a4a348348ac9e3727411f,69b92ab4aef6dee357cd729a,69b92bd1a4f5023e73b61106,0.3132,0.3136,0,153,153,76,1,threeone,,,,,,,,,,,,,,,,,,,,,,,,,,,,,,,,,,,,,,,,,,,,,,,,,,,,,,,,,,,,,,,,,,,,,,,,,,,,,,,,,,,,,,,,,,,,,,,,,,,,,,,,,,,,,,,,,,,,,,,,,,,,,,,,,,,,,,,,,
,,697a4a348348ac9e3727411f,2026-03-17_12h29.35.561,kallum_motion_pilot_GIST_update_2,2026.1.1,Win32,60.24096386,697a4a348348ac9e3727411f,69b92ab4aef6dee357cd729a,69b92bd1a4f5023e73b61106,0.3143,0.3145,0,154,154,130,1,sixfive,,,,,,,,,,,,,,,,,,,,,,,,,,,,,,,,,,,,,,,,,,,,,,,,,,,,,,,,,,,,,,,,,,,,,,,,,,,,,,,,,,,,,,,,,,,,,,,,,,,,,,,,,,,,,,,,,,,,,,,,,,,,,,,,,,,,,,,,,
,,697a4a348348ac9e3727411f,2026-03-17_12h29.35.561,kallum_motion_pilot_GIST_update_2,2026.1.1,Win32,60.24096386,697a4a348348ac9e3727411f,69b92ab4aef6dee357cd729a,69b92bd1a4f5023e73b61106,0.3152,0.317,0,155,155,67,1,twofour,,,,,,,,,,,,,,,,,,,,,,,,,,,,,,,,,,,,,,,,,,,,,,,,,,,,,,,,,,,,,,,,,,,,,,,,,,,,,,,,,,,,,,,,,,,,,,,,,,,,,,,,,,,,,,,,,,,,,,,,,,,,,,,,,,,,,,,,,
,,697a4a348348ac9e3727411f,2026-03-17_12h29.35.561,kallum_motion_pilot_GIST_update_2,2026.1.1,Win32,60.24096386,697a4a348348ac9e3727411f,69b92ab4aef6dee357cd729a,69b92bd1a4f5023e73b61106,0.3184,0.3184,0,156,156,37,1,threefour,,,,,,,,,,,,,,,,,,,,,,,,,,,,,,,,,,,,,,,,,,,,,,,,,,,,,,,,,,,,,,,,,,,,,,,,,,,,,,,,,,,,,,,,,,,,,,,,,,,,,,,,,,,,,,,,,,,,,,,,,,,,,,,,,,,,,,,,,
,,697a4a348348ac9e3727411f,2026-03-17_12h29.35.561,kallum_motion_pilot_GIST_update_2,2026.1.1,Win32,60.24096386,697a4a348348ac9e3727411f,69b92ab4aef6dee357cd729a,69b92bd1a4f5023e73b61106,0.3192,0.3196,0,157,157,28,1,threeone,,,,,,,,,,,,,,,,,,,,,,,,,,,,,,,,,,,,,,,,,,,,,,,,,,,,,,,,,,,,,,,,,,,,,,,,,,,,,,,,,,,,,,,,,,,,,,,,,,,,,,,,,,,,,,,,,,,,,,,,,,,,,,,,,,,,,,,,,
,,697a4a348348ac9e3727411f,2026-03-17_12h29.35.561,kallum_motion_pilot_GIST_update_2,2026.1.1,Win32,60.24096386,697a4a348348ac9e3727411f,69b92ab4aef6dee357cd729a,69b92bd1a4f5023e73b61106,0.3212,0.3213,0,158,158,5,1,threefour,,,,,,,,,,,,,,,,,,,,,,,,,,,,,,,,,,,,,,,,,,,,,,,,,,,,,,,,,,,,,,,,,,,,,,,,,,,,,,,,,,,,,,,,,,,,,,,,,,,,,,,,,,,,,,,,,,,,,,,,,,,,,,,,,,,,,,,,,
,,697a4a348348ac9e3727411f,2026-03-17_12h29.35.561,kallum_motion_pilot_GIST_update_2,2026.1.1,Win32,60.24096386,697a4a348348ac9e3727411f,69b92ab4aef6dee357cd729a,69b92bd1a4f5023e73b61106,0.3238,0.324,0,159,159,78,1,fourtwo,,,,,,,,,,,,,,,,,,,,,,,,,,,,,,,,,,,,,,,,,,,,,,,,,,,,,,,,,,,,,,,,,,,,,,,,,,,,,,,,,,,,,,,,,,,,,,,,,,,,,,,,,,,,,,,,,,,,,,,,,,,,,,,,,,,,,,,,,
,,697a4a348348ac9e3727411f,2026-03-17_12h29.35.561,kallum_motion_pilot_GIST_update_2,2026.1.1,Win32,60.24096386,697a4a348348ac9e3727411f,69b92ab4aef6dee357cd729a,69b92bd1a4f5023e73b61106,0.3256,0.3269,0,160,160,70,1,fourtwo,,,,,,,,,,,,,,,,,,,,,,,,,,,,,,,,,,,,,,,,,,,,,,,,,,,,,,,,,,,,,,,,,,,,,,,,,,,,,,,,,,,,,,,,,,,,,,,,,,,,,,,,,,,,,,,,,,,,,,,,,,,,,,,,,,,,,,,,,
,,697a4a348348ac9e3727411f,2026-03-17_12h29.35.561,kallum_motion_pilot_GIST_update_2,2026.1.1,Win32,60.24096386,697a4a348348ac9e3727411f,69b92ab4aef6dee357cd729a,69b92bd1a4f5023e73b61106,0.3283,0.3283,0,161,161,64,1,onetwo,,,,,,,,,,,,,,,,,,,,,,,,,,,,,,,,,,,,,,,,,,,,,,,,,,,,,,,,,,,,,,,,,,,,,,,,,,,,,,,,,,,,,,,,,,,,,,,,,,,,,,,,,,,,,,,,,,,,,,,,,,,,,,,,,,,,,,,,,
,,697a4a348348ac9e3727411f,2026-03-17_12h29.35.561,kallum_motion_pilot_GIST_update_2,2026.1.1,Win32,60.24096386,697a4a348348ac9e3727411f,69b92ab4aef6dee357cd729a,69b92bd1a4f5023e73b61106,0.3291,0.3291,1,0,162,6,1,fourtwo,,,,,,,,,,,,,,,,,,,,,,,,,,,,,,,,,,,,,,,,,,,,,,,,,,,,,,,,,,,,,,,,,,,,,,,,,,,,,,,,,,,,,,,,,,,,,,,,,,,,,,,,,,,,,,,,,,,,,,,,,,,,,,,,,,,,,,,,,
,,697a4a348348ac9e3727411f,2026-03-17_12h29.35.561,kallum_motion_pilot_GIST_update_2,2026.1.1,Win32,60.24096386,697a4a348348ac9e3727411f,69b92ab4aef6dee357cd729a,69b92bd1a4f5023e73b61106,0.3301,0.3302,1,1,163,83,1,sixeight,,,,,,,,,,,,,,,,,,,,,,,,,,,,,,,,,,,,,,,,,,,,,,,,,,,,,,,,,,,,,,,,,,,,,,,,,,,,,,,,,,,,,,,,,,,,,,,,,,,,,,,,,,,,,,,,,,,,,,,,,,,,,,,,,,,,,,,,,
,,697a4a348348ac9e3727411f,2026-03-17_12h29.35.561,kallum_motion_pilot_GIST_update_2,2026.1.1,Win32,60.24096386,697a4a348348ac9e3727411f,69b92ab4aef6dee357cd729a,69b92bd1a4f5023e73b61106,0.3321,0.3322,1,2,164,79,1,eightseven,,,,,,,,,,,,,,,,,,,,,,,,,,,,,,,,,,,,,,,,,,,,,,,,,,,,,,,,,,,,,,,,,,,,,,,,,,,,,,,,,,,,,,,,,,,,,,,,,,,,,,,,,,,,,,,,,,,,,,,,,,,,,,,,,,,,,,,,,
,,697a4a348348ac9e3727411f,2026-03-17_12h29.35.561,kallum_motion_pilot_GIST_update_2,2026.1.1,Win32,60.24096386,697a4a348348ac9e3727411f,69b92ab4aef6dee357cd729a,69b92bd1a4f5023e73b61106,0.3336,0.3336,1,3,165,139,1,sixeight,,,,,,,,,,,,,,,,,,,,,,,,,,,,,,,,,,,,,,,,,,,,,,,,,,,,,,,,,,,,,,,,,,,,,,,,,,,,,,,,,,,,,,,,,,,,,,,,,,,,,,,,,,,,,,,,,,,,,,,,,,,,,,,,,,,,,,,,,
,,697a4a348348ac9e3727411f,2026-03-17_12h29.35.561,kallum_motion_pilot_GIST_update_2,2026.1.1,Win32,60.24096386,697a4a348348ac9e3727411f,69b92ab4aef6dee357cd729a,69b92bd1a4f5023e73b61106,0.3345,0.3346,1,4,166,29,1,threefour,,,,,,,,,,,,,,,,,,,,,,,,,,,,,,,,,,,,,,,,,,,,,,,,,,,,,,,,,,,,,,,,,,,,,,,,,,,,,,,,,,,,,,,,,,,,,,,,,,,,,,,,,,,,,,,,,,,,,,,,,,,,,,,,,,,,,,,,,
,,697a4a348348ac9e3727411f,2026-03-17_12h29.35.561,kallum_motion_pilot_GIST_update_2,2026.1.1,Win32,60.24096386,697a4a348348ac9e3727411f,69b92ab4aef6dee357cd729a,69b92bd1a4f5023e73b61106,0.3376,0.3377,1,5,167,33,1,onethree,,,,,,,,,,,,,,,,,,,,,,,,,,,,,,,,,,,,,,,,,,,,,,,,,,,,,,,,,,,,,,,,,,,,,,,,,,,,,,,,,,,,,,,,,,,,,,,,,,,,,,,,,,,,,,,,,,,,,,,,,,,,,,,,,,,,,,,,,
,,697a4a348348ac9e3727411f,2026-03-17_12h29.35.561,kallum_motion_pilot_GIST_update_2,2026.1.1,Win32,60.24096386,697a4a348348ac9e3727411f,69b92ab4aef6dee357cd729a,69b92bd1a4f5023e73b61106,0.3385,0.3387,1,6,168,131,1,sixeight,,,,,,,,,,,,,,,,,,,,,,,,,,,,,,,,,,,,,,,,,,,,,,,,,,,,,,,,,,,,,,,,,,,,,,,,,,,,,,,,,,,,,,,,,,,,,,,,,,,,,,,,,,,,,,,,,,,,,,,,,,,,,,,,,,,,,,,,,
,,697a4a348348ac9e3727411f,2026-03-17_12h29.35.561,kallum_motion_pilot_GIST_update_2,2026.1.1,Win32,60.24096386,697a4a348348ac9e3727411f,69b92ab4aef6dee357cd729a,69b92bd1a4f5023e73b61106,0.3418,0.3419,1,7,169,61,1,threefour,,,,,,,,,,,,,,,,,,,,,,,,,,,,,,,,,,,,,,,,,,,,,,,,,,,,,,,,,,,,,,,,,,,,,,,,,,,,,,,,,,,,,,,,,,,,,,,,,,,,,,,,,,,,,,,,,,,,,,,,,,,,,,,,,,,,,,,,,
,,697a4a348348ac9e3727411f,2026-03-17_12h29.35.561,kallum_motion_pilot_GIST_update_2,2026.1.1,Win32,60.24096386,697a4a348348ac9e3727411f,69b92ab4aef6dee357cd729a,69b92bd1a4f5023e73b61106,0.343,0.343,1,8,170,47,1,fourthree,,,,,,,,,,,,,,,,,,,,,,,,,,,,,,,,,,,,,,,,,,,,,,,,,,,,,,,,,,,,,,,,,,,,,,,,,,,,,,,,,,,,,,,,,,,,,,,,,,,,,,,,,,,,,,,,,,,,,,,,,,,,,,,,,,,,,,,,,
,,697a4a348348ac9e3727411f,2026-03-17_12h29.35.561,kallum_motion_pilot_GIST_update_2,2026.1.1,Win32,60.24096386,697a4a348348ac9e3727411f,69b92ab4aef6dee357cd729a,69b92bd1a4f5023e73b61106,0.3437,0.3438,1,9,171,2,1,twoone,,,,,,,,,,,,,,,,,,,,,,,,,,,,,,,,,,,,,,,,,,,,,,,,,,,,,,,,,,,,,,,,,,,,,,,,,,,,,,,,,,,,,,,,,,,,,,,,,,,,,,,,,,,,,,,,,,,,,,,,,,,,,,,,,,,,,,,,,
,,697a4a348348ac9e3727411f,2026-03-17_12h29.35.561,kallum_motion_pilot_GIST_update_2,2026.1.1,Win32,60.24096386,697a4a348348ac9e3727411f,69b92ab4aef6dee357cd729a,69b92bd1a4f5023e73b61106,0.3445,0.3447,1,10,172,14,1,fourtwo,,,,,,,,,,,,,,,,,,,,,,,,,,,,,,,,,,,,,,,,,,,,,,,,,,,,,,,,,,,,,,,,,,,,,,,,,,,,,,,,,,,,,,,,,,,,,,,,,,,,,,,,,,,,,,,,,,,,,,,,,,,,,,,,,,,,,,,,,
,,697a4a348348ac9e3727411f,2026-03-17_12h29.35.561,kallum_motion_pilot_GIST_update_2,2026.1.1,Win32,60.24096386,697a4a348348ac9e3727411f,69b92ab4aef6dee357cd729a,69b92bd1a4f5023e73b61106,0.3471,0.3472,1,11,173,161,1,fiveseven,,,,,,,,,,,,,,,,,,,,,,,,,,,,,,,,,,,,,,,,,,,,,,,,,,,,,,,,,,,,,,,,,,,,,,,,,,,,,,,,,,,,,,,,,,,,,,,,,,,,,,,,,,,,,,,,,,,,,,,,,,,,,,,,,,,,,,,,,
,,697a4a348348ac9e3727411f,2026-03-17_12h29.35.561,kallum_motion_pilot_GIST_update_2,2026.1.1,Win32,60.24096386,697a4a348348ac9e3727411f,69b92ab4aef6dee357cd729a,69b92bd1a4f5023e73b61106,0.3481,0.3482,1,12,174,44,1,threeone,,,,,,,,,,,,,,,,,,,,,,,,,,,,,,,,,,,,,,,,,,,,,,,,,,,,,,,,,,,,,,,,,,,,,,,,,,,,,,,,,,,,,,,,,,,,,,,,,,,,,,,,,,,,,,,,,,,,,,,,,,,,,,,,,,,,,,,,,
,,697a4a348348ac9e3727411f,2026-03-17_12h29.35.561,kallum_motion_pilot_GIST_update_2,2026.1.1,Win32,60.24096386,697a4a348348ac9e3727411f,69b92ab4aef6dee357cd729a,69b92bd1a4f5023e73b61106,0.3491,0.3491,1,13,175,147,1,sixeight,,,,,,,,,,,,,,,,,,,,,,,,,,,,,,,,,,,,,,,,,,,,,,,,,,,,,,,,,,,,,,,,,,,,,,,,,,,,,,,,,,,,,,,,,,,,,,,,,,,,,,,,,,,,,,,,,,,,,,,,,,,,,,,,,,,,,,,,,
,,697a4a348348ac9e3727411f,2026-03-17_12h29.35.561,kallum_motion_pilot_GIST_update_2,2026.1.1,Win32,60.24096386,697a4a348348ac9e3727411f,69b92ab4aef6dee357cd729a,69b92bd1a4f5023e73b61106,0.3503,0.3503,1,14,176,46,1,fourtwo,,,,,,,,,,,,,,,,,,,,,,,,,,,,,,,,,,,,,,,,,,,,,,,,,,,,,,,,,,,,,,,,,,,,,,,,,,,,,,,,,,,,,,,,,,,,,,,,,,,,,,,,,,,,,,,,,,,,,,,,,,,,,,,,,,,,,,,,,
,,697a4a348348ac9e3727411f,2026-03-17_12h29.35.561,kallum_motion_pilot_GIST_update_2,2026.1.1,Win32,60.24096386,697a4a348348ac9e3727411f,69b92ab4aef6dee357cd729a,69b92bd1a4f5023e73b61106,0.3521,0.3522,1,15,177,124,1,sevenfive,,,,,,,,,,,,,,,,,,,,,,,,,,,,,,,,,,,,,,,,,,,,,,,,,,,,,,,,,,,,,,,,,,,,,,,,,,,,,,,,,,,,,,,,,,,,,,,,,,,,,,,,,,,,,,,,,,,,,,,,,,,,,,,,,,,,,,,,,
,,697a4a348348ac9e3727411f,2026-03-17_12h29.35.561,kallum_motion_pilot_GIST_update_2,2026.1.1,Win32,60.24096386,697a4a348348ac9e3727411f,69b92ab4aef6dee357cd729a,69b92bd1a4f5023e73b61106,0.3531,0.3532,1,16,178,138,1,sixfive,,,,,,,,,,,,,,,,,,,,,,,,,,,,,,,,,,,,,,,,,,,,,,,,,,,,,,,,,,,,,,,,,,,,,,,,,,,,,,,,,,,,,,,,,,,,,,,,,,,,,,,,,,,,,,,,,,,,,,,,,,,,,,,,,,,,,,,,,
,,697a4a348348ac9e3727411f,2026-03-17_12h29.35.561,kallum_motion_pilot_GIST_update_2,2026.1.1,Win32,60.24096386,697a4a348348ac9e3727411f,69b92ab4aef6dee357cd729a,69b92bd1a4f5023e73b61106,0.3539,0.354,1,17,179,0,1,onetwo,,,,,,,,,,,,,,,,,,,,,,,,,,,,,,,,,,,,,,,,,,,,,,,,,,,,,,,,,,,,,,,,,,,,,,,,,,,,,,,,,,,,,,,,,,,,,,,,,,,,,,,,,,,,,,,,,,,,,,,,,,,,,,,,,,,,,,,,,
,,697a4a348348ac9e3727411f,2026-03-17_12h29.35.561,kallum_motion_pilot_GIST_update_2,2026.1.1,Win32,60.24096386,697a4a348348ac9e3727411f,69b92ab4aef6dee357cd729a,69b92bd1a4f5023e73b61106,0.3623,0.3628,1,18,180,130,1,sixfive,,,,,,,,,,,,,,,,,,,,,,,,,,,,,,,,,,,,,,,,,,,,,,,,,,,,,,,,,,,,,,,,,,,,,,,,,,,,,,,,,,,,,,,,,,,,,,,,,,,,,,,,,,,,,,,,,,,,,,,,,,,,,,,,,,,,,,,,,
,,697a4a348348ac9e3727411f,2026-03-17_12h29.35.561,kallum_motion_pilot_GIST_update_2,2026.1.1,Win32,60.24096386,697a4a348348ac9e3727411f,69b92ab4aef6dee357cd729a,69b92bd1a4f5023e73b61106,0.3635,0.3637,1,19,181,122,1,sixfive,,,,,,,,,,,,,,,,,,,,,,,,,,,,,,,,,,,,,,,,,,,,,,,,,,,,,,,,,,,,,,,,,,,,,,,,,,,,,,,,,,,,,,,,,,,,,,,,,,,,,,,,,,,,,,,,,,,,,,,,,,,,,,,,,,,,,,,,,
,,697a4a348348ac9e3727411f,2026-03-17_12h29.35.561,kallum_motion_pilot_GIST_update_2,2026.1.1,Win32,60.24096386,697a4a348348ac9e3727411f,69b92ab4aef6dee357cd729a,69b92bd1a4f5023e73b61106,0.3662,0.3663,1,20,182,105,1,fiveseven,,,,,,,,,,,,,,,,,,,,,,,,,,,,,,,,,,,,,,,,,,,,,,,,,,,,,,,,,,,,,,,,,,,,,,,,,,,,,,,,,,,,,,,,,,,,,,,,,,,,,,,,,,,,,,,,,,,,,,,,,,,,,,,,,,,,,,,,,
,,697a4a348348ac9e3727411f,2026-03-17_12h29.35.561,kallum_motion_pilot_GIST_update_2,2026.1.1,Win32,60.24096386,697a4a348348ac9e3727411f,69b92ab4aef6dee357cd729a,69b92bd1a4f5023e73b61106,0.3673,0.3675,1,21,183,159,1,eightseven,,,,,,,,,,,,,,,,,,,,,,,,,,,,,,,,,,,,,,,,,,,,,,,,,,,,,,,,,,,,,,,,,,,,,,,,,,,,,,,,,,,,,,,,,,,,,,,,,,,,,,,,,,,,,,,,,,,,,,,,,,,,,,,,,,,,,,,,,
,,697a4a348348ac9e3727411f,2026-03-17_12h29.35.561,kallum_motion_pilot_GIST_update_2,2026.1.1,Win32,60.24096386,697a4a348348ac9e3727411f,69b92ab4aef6dee357cd729a,69b92bd1a4f5023e73b61106,0.3682,0.3683,1,22,184,116,1,sevenfive,,,,,,,,,,,,,,,,,,,,,,,,,,,,,,,,,,,,,,,,,,,,,,,,,,,,,,,,,,,,,,,,,,,,,,,,,,,,,,,,,,,,,,,,,,,,,,,,,,,,,,,,,,,,,,,,,,,,,,,,,,,,,,,,,,,,,,,,,
,,697a4a348348ac9e3727411f,2026-03-17_12h29.35.561,kallum_motion_pilot_GIST_update_2,2026.1.1,Win32,60.24096386,697a4a348348ac9e3727411f,69b92ab4aef6dee357cd729a,69b92bd1a4f5023e73b61106,0.3695,0.3695,1,23,185,42,1,twoone,,,,,,,,,,,,,,,,,,,,,,,,,,,,,,,,,,,,,,,,,,,,,,,,,,,,,,,,,,,,,,,,,,,,,,,,,,,,,,,,,,,,,,,,,,,,,,,,,,,,,,,,,,,,,,,,,,,,,,,,,,,,,,,,,,,,,,,,,
,,697a4a348348ac9e3727411f,2026-03-17_12h29.35.561,kallum_motion_pilot_GIST_update_2,2026.1.1,Win32,60.24096386,697a4a348348ac9e3727411f,69b92ab4aef6dee357cd729a,69b92bd1a4f5023e73b61106,0.3702,0.3707,1,24,186,12,1,threeone,,,,,,,,,,,,,,,,,,,,,,,,,,,,,,,,,,,,,,,,,,,,,,,,,,,,,,,,,,,,,,,,,,,,,,,,,,,,,,,,,,,,,,,,,,,,,,,,,,,,,,,,,,,,,,,,,,,,,,,,,,,,,,,,,,,,,,,,,
,,697a4a348348ac9e3727411f,2026-03-17_12h29.35.561,kallum_motion_pilot_GIST_update_2,2026.1.1,Win32,60.24096386,697a4a348348ac9e3727411f,69b92ab4aef6dee357cd729a,69b92bd1a4f5023e73b61106,0.3716,0.3716,1,25,187,128,1,fivesix,,,,,,,,,,,,,,,,,,,,,,,,,,,,,,,,,,,,,,,,,,,,,,,,,,,,,,,,,,,,,,,,,,,,,,,,,,,,,,,,,,,,,,,,,,,,,,,,,,,,,,,,,,,,,,,,,,,,,,,,,,,,,,,,,,,,,,,,,
,,697a4a348348ac9e3727411f,2026-03-17_12h29.35.561,kallum_motion_pilot_GIST_update_2,2026.1.1,Win32,60.24096386,697a4a348348ac9e3727411f,69b92ab4aef6dee357cd729a,69b92bd1a4f5023e73b61106,0.3757,0.3758,1,26,188,133,1,seveneight,,,,,,,,,,,,,,,,,,,,,,,,,,,,,,,,,,,,,,,,,,,,,,,,,,,,,,,,,,,,,,,,,,,,,,,,,,,,,,,,,,,,,,,,,,,,,,,,,,,,,,,,,,,,,,,,,,,,,,,,,,,,,,,,,,,,,,,,,
,,697a4a348348ac9e3727411f,2026-03-17_12h29.35.561,kallum_motion_pilot_GIST_update_2,2026.1.1,Win32,60.24096386,697a4a348348ac9e3727411f,69b92ab4aef6dee357cd729a,69b92bd1a4f5023e73b61106,0.3769,0.377,1,27,189,155,1,sixeight,,,,,,,,,,,,,,,,,,,,,,,,,,,,,,,,,,,,,,,,,,,,,,,,,,,,,,,,,,,,,,,,,,,,,,,,,,,,,,,,,,,,,,,,,,,,,,,,,,,,,,,,,,,,,,,,,,,,,,,,,,,,,,,,,,,,,,,,,
,,697a4a348348ac9e3727411f,2026-03-17_12h29.35.561,kallum_motion_pilot_GIST_update_2,2026.1.1,Win32,60.24096386,697a4a348348ac9e3727411f,69b92ab4aef6dee357cd729a,69b92bd1a4f5023e73b61106,0.378,0.3781,1,28,190,70,1,fourtwo,,,,,,,,,,,,,,,,,,,,,,,,,,,,,,,,,,,,,,,,,,,,,,,,,,,,,,,,,,,,,,,,,,,,,,,,,,,,,,,,,,,,,,,,,,,,,,,,,,,,,,,,,,,,,,,,,,,,,,,,,,,,,,,,,,,,,,,,,
,,697a4a348348ac9e3727411f,2026-03-17_12h29.35.561,kallum_motion_pilot_GIST_update_2,2026.1.1,Win32,60.24096386,697a4a348348ac9e3727411f,69b92ab4aef6dee357cd729a,69b92bd1a4f5023e73b61106,0.379,0.3791,1,29,191,49,1,onethree,,,,,,,,,,,,,,,,,,,,,,,,,,,,,,,,,,,,,,,,,,,,,,,,,,,,,,,,,,,,,,,,,,,,,,,,,,,,,,,,,,,,,,,,,,,,,,,,,,,,,,,,,,,,,,,,,,,,,,,,,,,,,,,,,,,,,,,,,
,,697a4a348348ac9e3727411f,2026-03-17_12h29.35.561,kallum_motion_pilot_GIST_update_2,2026.1.1,Win32,60.24096386,697a4a348348ac9e3727411f,69b92ab4aef6dee357cd729a,69b92bd1a4f5023e73b61106,0.38,0.3801,1,30,192,120,1,fivesix,,,,,,,,,,,,,,,,,,,,,,,,,,,,,,,,,,,,,,,,,,,,,,,,,,,,,,,,,,,,,,,,,,,,,,,,,,,,,,,,,,,,,,,,,,,,,,,,,,,,,,,,,,,,,,,,,,,,,,,,,,,,,,,,,,,,,,,,,
,,697a4a348348ac9e3727411f,2026-03-17_12h29.35.561,kallum_motion_pilot_GIST_update_2,2026.1.1,Win32,60.24096386,697a4a348348ac9e3727411f,69b92ab4aef6dee357cd729a,69b92bd1a4f5023e73b61106,0.3808,0.3808,1,31,193,13,1,threefour,,,,,,,,,,,,,,,,,,,,,,,,,,,,,,,,,,,,,,,,,,,,,,,,,,,,,,,,,,,,,,,,,,,,,,,,,,,,,,,,,,,,,,,,,,,,,,,,,,,,,,,,,,,,,,,,,,,,,,,,,,,,,,,,,,,,,,,,,
,,697a4a348348ac9e3727411f,2026-03-17_12h29.35.561,kallum_motion_pilot_GIST_update_2,2026.1.1,Win32,60.24096386,697a4a348348ac9e3727411f,69b92ab4aef6dee357cd729a,69b92bd1a4f5023e73b61106,0.3813,0.3814,1,32,194,40,1,onetwo,,,,,,,,,,,,,,,,,,,,,,,,,,,,,,,,,,,,,,,,,,,,,,,,,,,,,,,,,,,,,,,,,,,,,,,,,,,,,,,,,,,,,,,,,,,,,,,,,,,,,,,,,,,,,,,,,,,,,,,,,,,,,,,,,,,,,,,,,
,,697a4a348348ac9e3727411f,2026-03-17_12h29.35.561,kallum_motion_pilot_GIST_update_2,2026.1.1,Win32,60.24096386,697a4a348348ac9e3727411f,69b92ab4aef6dee357cd729a,69b92bd1a4f5023e73b61106,0.3819,0.3819,1,33,195,27,1,twofour,,,,,,,,,,,,,,,,,,,,,,,,,,,,,,,,,,,,,,,,,,,,,,,,,,,,,,,,,,,,,,,,,,,,,,,,,,,,,,,,,,,,,,,,,,,,,,,,,,,,,,,,,,,,,,,,,,,,,,,,,,,,,,,,,,,,,,,,,
,,697a4a348348ac9e3727411f,2026-03-17_12h29.35.561,kallum_motion_pilot_GIST_update_2,2026.1.1,Win32,60.24096386,697a4a348348ac9e3727411f,69b92ab4aef6dee357cd729a,69b92bd1a4f5023e73b61106,0.3834,0.3834,1,34,196,8,1,onetwo,,,,,,,,,,,,,,,,,,,,,,,,,,,,,,,,,,,,,,,,,,,,,,,,,,,,,,,,,,,,,,,,,,,,,,,,,,,,,,,,,,,,,,,,,,,,,,,,,,,,,,,,,,,,,,,,,,,,,,,,,,,,,,,,,,,,,,,,,
,,697a4a348348ac9e3727411f,2026-03-17_12h29.35.561,kallum_motion_pilot_GIST_update_2,2026.1.1,Win32,60.24096386,697a4a348348ac9e3727411f,69b92ab4aef6dee357cd729a,69b92bd1a4f5023e73b61106,0.3861,0.3862,1,35,197,80,1,fivesix,,,,,,,,,,,,,,,,,,,,,,,,,,,,,,,,,,,,,,,,,,,,,,,,,,,,,,,,,,,,,,,,,,,,,,,,,,,,,,,,,,,,,,,,,,,,,,,,,,,,,,,,,,,,,,,,,,,,,,,,,,,,,,,,,,,,,,,,,
,,697a4a348348ac9e3727411f,2026-03-17_12h29.35.561,kallum_motion_pilot_GIST_update_2,2026.1.1,Win32,60.24096386,697a4a348348ac9e3727411f,69b92ab4aef6dee357cd729a,69b92bd1a4f5023e73b61106,0.3871,0.3871,1,36,198,41,1,onethree,,,,,,,,,,,,,,,,,,,,,,,,,,,,,,,,,,,,,,,,,,,,,,,,,,,,,,,,,,,,,,,,,,,,,,,,,,,,,,,,,,,,,,,,,,,,,,,,,,,,,,,,,,,,,,,,,,,,,,,,,,,,,,,,,,,,,,,,,
,,697a4a348348ac9e3727411f,2026-03-17_12h29.35.561,kallum_motion_pilot_GIST_update_2,2026.1.1,Win32,60.24096386,697a4a348348ac9e3727411f,69b92ab4aef6dee357cd729a,69b92bd1a4f5023e73b61106,0.3883,0.3884,1,37,199,153,1,fiveseven,,,,,,,,,,,,,,,,,,,,,,,,,,,,,,,,,,,,,,,,,,,,,,,,,,,,,,,,,,,,,,,,,,,,,,,,,,,,,,,,,,,,,,,,,,,,,,,,,,,,,,,,,,,,,,,,,,,,,,,,,,,,,,,,,,,,,,,,,
,,697a4a348348ac9e3727411f,2026-03-17_12h29.35.561,kallum_motion_pilot_GIST_update_2,2026.1.1,Win32,60.24096386,697a4a348348ac9e3727411f,69b92ab4aef6dee357cd729a,69b92bd1a4f5023e73b61106,0.3904,0.3904,1,38,200,152,1,fivesix,,,,,,,,,,,,,,,,,,,,,,,,,,,,,,,,,,,,,,,,,,,,,,,,,,,,,,,,,,,,,,,,,,,,,,,,,,,,,,,,,,,,,,,,,,,,,,,,,,,,,,,,,,,,,,,,,,,,,,,,,,,,,,,,,,,,,,,,,
,,697a4a348348ac9e3727411f,2026-03-17_12h29.35.561,kallum_motion_pilot_GIST_update_2,2026.1.1,Win32,60.24096386,697a4a348348ac9e3727411f,69b92ab4aef6dee357cd729a,69b92bd1a4f5023e73b61106,0.3912,0.3912,1,39,201,78,1,fourtwo,,,,,,,,,,,,,,,,,,,,,,,,,,,,,,,,,,,,,,,,,,,,,,,,,,,,,,,,,,,,,,,,,,,,,,,,,,,,,,,,,,,,,,,,,,,,,,,,,,,,,,,,,,,,,,,,,,,,,,,,,,,,,,,,,,,,,,,,,
,,697a4a348348ac9e3727411f,2026-03-17_12h29.35.561,kallum_motion_pilot_GIST_update_2,2026.1.1,Win32,60.24096386,697a4a348348ac9e3727411f,69b92ab4aef6dee357cd729a,69b92bd1a4f5023e73b61106,0.393,0.3931,1,40,202,94,1,eightsix,,,,,,,,,,,,,,,,,,,,,,,,,,,,,,,,,,,,,,,,,,,,,,,,,,,,,,,,,,,,,,,,,,,,,,,,,,,,,,,,,,,,,,,,,,,,,,,,,,,,,,,,,,,,,,,,,,,,,,,,,,,,,,,,,,,,,,,,,
,,697a4a348348ac9e3727411f,2026-03-17_12h29.35.561,kallum_motion_pilot_GIST_update_2,2026.1.1,Win32,60.24096386,697a4a348348ac9e3727411f,69b92ab4aef6dee357cd729a,69b92bd1a4f5023e73b61106,0.3957,0.3958,1,41,203,96,1,fivesix,,,,,,,,,,,,,,,,,,,,,,,,,,,,,,,,,,,,,,,,,,,,,,,,,,,,,,,,,,,,,,,,,,,,,,,,,,,,,,,,,,,,,,,,,,,,,,,,,,,,,,,,,,,,,,,,,,,,,,,,,,,,,,,,,,,,,,,,,
,,697a4a348348ac9e3727411f,2026-03-17_12h29.35.561,kallum_motion_pilot_GIST_update_2,2026.1.1,Win32,60.24096386,697a4a348348ac9e3727411f,69b92ab4aef6dee357cd729a,69b92bd1a4f5023e73b61106,0.3969,0.3971,1,42,204,50,1,twoone,,,,,,,,,,,,,,,,,,,,,,,,,,,,,,,,,,,,,,,,,,,,,,,,,,,,,,,,,,,,,,,,,,,,,,,,,,,,,,,,,,,,,,,,,,,,,,,,,,,,,,,,,,,,,,,,,,,,,,,,,,,,,,,,,,,,,,,,,
,,697a4a348348ac9e3727411f,2026-03-17_12h29.35.561,kallum_motion_pilot_GIST_update_2,2026.1.1,Win32,60.24096386,697a4a348348ac9e3727411f,69b92ab4aef6dee357cd729a,69b92bd1a4f5023e73b61106,0.3981,0.3982,1,43,205,99,1,sixeight,,,,,,,,,,,,,,,,,,,,,,,,,,,,,,,,,,,,,,,,,,,,,,,,,,,,,,,,,,,,,,,,,,,,,,,,,,,,,,,,,,,,,,,,,,,,,,,,,,,,,,,,,,,,,,,,,,,,,,,,,,,,,,,,,,,,,,,,,
,,697a4a348348ac9e3727411f,2026-03-17_12h29.35.561,kallum_motion_pilot_GIST_update_2,2026.1.1,Win32,60.24096386,697a4a348348ac9e3727411f,69b92ab4aef6dee357cd729a,69b92bd1a4f5023e73b61106,0.399,0.3991,1,44,206,107,1,sixeight,,,,,,,,,,,,,,,,,,,,,,,,,,,,,,,,,,,,,,,,,,,,,,,,,,,,,,,,,,,,,,,,,,,,,,,,,,,,,,,,,,,,,,,,,,,,,,,,,,,,,,,,,,,,,,,,,,,,,,,,,,,,,,,,,,,,,,,,,
,,697a4a348348ac9e3727411f,2026-03-17_12h29.35.561,kallum_motion_pilot_GIST_update_2,2026.1.1,Win32,60.24096386,697a4a348348ac9e3727411f,69b92ab4aef6dee357cd729a,69b92bd1a4f5023e73b61106,0.3999,0.4,1,45,207,156,1,sevenfive,,,,,,,,,,,,,,,,,,,,,,,,,,,,,,,,,,,,,,,,,,,,,,,,,,,,,,,,,,,,,,,,,,,,,,,,,,,,,,,,,,,,,,,,,,,,,,,,,,,,,,,,,,,,,,,,,,,,,,,,,,,,,,,,,,,,,,,,,
,,697a4a348348ac9e3727411f,2026-03-17_12h29.35.561,kallum_motion_pilot_GIST_update_2,2026.1.1,Win32,60.24096386,697a4a348348ac9e3727411f,69b92ab4aef6dee357cd729a,69b92bd1a4f5023e73b61106,0.4006,0.4006,1,46,208,123,1,sixeight,,,,,,,,,,,,,,,,,,,,,,,,,,,,,,,,,,,,,,,,,,,,,,,,,,,,,,,,,,,,,,,,,,,,,,,,,,,,,,,,,,,,,,,,,,,,,,,,,,,,,,,,,,,,,,,,,,,,,,,,,,,,,,,,,,,,,,,,,
,,697a4a348348ac9e3727411f,2026-03-17_12h29.35.561,kallum_motion_pilot_GIST_update_2,2026.1.1,Win32,60.24096386,697a4a348348ac9e3727411f,69b92ab4aef6dee357cd729a,69b92bd1a4f5023e73b61106,0.4031,0.4031,1,47,209,151,1,eightseven,,,,,,,,,,,,,,,,,,,,,,,,,,,,,,,,,,,,,,,,,,,,,,,,,,,,,,,,,,,,,,,,,,,,,,,,,,,,,,,,,,,,,,,,,,,,,,,,,,,,,,,,,,,,,,,,,,,,,,,,,,,,,,,,,,,,,,,,,
,,697a4a348348ac9e3727411f,2026-03-17_12h29.35.561,kallum_motion_pilot_GIST_update_2,2026.1.1,Win32,60.24096386,697a4a348348ac9e3727411f,69b92ab4aef6dee357cd729a,69b92bd1a4f5023e73b61106,0.4068,0.4069,1,48,210,63,1,fourthree,,,,,,,,,,,,,,,,,,,,,,,,,,,,,,,,,,,,,,,,,,,,,,,,,,,,,,,,,,,,,,,,,,,,,,,,,,,,,,,,,,,,,,,,,,,,,,,,,,,,,,,,,,,,,,,,,,,,,,,,,,,,,,,,,,,,,,,,,
,,697a4a348348ac9e3727411f,2026-03-17_12h29.35.561,kallum_motion_pilot_GIST_update_2,2026.1.1,Win32,60.24096386,697a4a348348ac9e3727411f,69b92ab4aef6dee357cd729a,69b92bd1a4f5023e73b61106,0.4081,0.4082,1,49,211,109,1,seveneight,,,,,,,,,,,,,,,,,,,,,,,,,,,,,,,,,,,,,,,,,,,,,,,,,,,,,,,,,,,,,,,,,,,,,,,,,,,,,,,,,,,,,,,,,,,,,,,,,,,,,,,,,,,,,,,,,,,,,,,,,,,,,,,,,,,,,,,,,
,,697a4a348348ac9e3727411f,2026-03-17_12h29.35.561,kallum_motion_pilot_GIST_update_2,2026.1.1,Win32,60.24096386,697a4a348348ac9e3727411f,69b92ab4aef6dee357cd729a,69b92bd1a4f5023e73b61106,0.4092,0.4093,1,50,212,157,1,seveneight,,,,,,,,,,,,,,,,,,,,,,,,,,,,,,,,,,,,,,,,,,,,,,,,,,,,,,,,,,,,,,,,,,,,,,,,,,,,,,,,,,,,,,,,,,,,,,,,,,,,,,,,,,,,,,,,,,,,,,,,,,,,,,,,,,,,,,,,,
,,697a4a348348ac9e3727411f,2026-03-17_12h29.35.561,kallum_motion_pilot_GIST_update_2,2026.1.1,Win32,60.24096386,697a4a348348ac9e3727411f,69b92ab4aef6dee357cd729a,69b92bd1a4f5023e73b61106,0.4106,0.4107,1,51,213,87,1,eightseven,,,,,,,,,,,,,,,,,,,,,,,,,,,,,,,,,,,,,,,,,,,,,,,,,,,,,,,,,,,,,,,,,,,,,,,,,,,,,,,,,,,,,,,,,,,,,,,,,,,,,,,,,,,,,,,,,,,,,,,,,,,,,,,,,,,,,,,,,
,,697a4a348348ac9e3727411f,2026-03-17_12h29.35.561,kallum_motion_pilot_GIST_update_2,2026.1.1,Win32,60.24096386,697a4a348348ac9e3727411f,69b92ab4aef6dee357cd729a,69b92bd1a4f5023e73b61106,0.4125,0.4125,1,52,214,88,1,fivesix,,,,,,,,,,,,,,,,,,,,,,,,,,,,,,,,,,,,,,,,,,,,,,,,,,,,,,,,,,,,,,,,,,,,,,,,,,,,,,,,,,,,,,,,,,,,,,,,,,,,,,,,,,,,,,,,,,,,,,,,,,,,,,,,,,,,,,,,,
,,697a4a348348ac9e3727411f,2026-03-17_12h29.35.561,kallum_motion_pilot_GIST_update_2,2026.1.1,Win32,60.24096386,697a4a348348ac9e3727411f,69b92ab4aef6dee357cd729a,69b92bd1a4f5023e73b61106,0.4157,0.4158,1,53,215,113,1,fiveseven,,,,,,,,,,,,,,,,,,,,,,,,,,,,,,,,,,,,,,,,,,,,,,,,,,,,,,,,,,,,,,,,,,,,,,,,,,,,,,,,,,,,,,,,,,,,,,,,,,,,,,,,,,,,,,,,,,,,,,,,,,,,,,,,,,,,,,,,,
,,697a4a348348ac9e3727411f,2026-03-17_12h29.35.561,kallum_motion_pilot_GIST_update_2,2026.1.1,Win32,60.24096386,697a4a348348ac9e3727411f,69b92ab4aef6dee357cd729a,69b92bd1a4f5023e73b61106,0.4167,0.4167,1,54,216,149,1,seveneight,,,,,,,,,,,,,,,,,,,,,,,,,,,,,,,,,,,,,,,,,,,,,,,,,,,,,,,,,,,,,,,,,,,,,,,,,,,,,,,,,,,,,,,,,,,,,,,,,,,,,,,,,,,,,,,,,,,,,,,,,,,,,,,,,,,,,,,,,
,,697a4a348348ac9e3727411f,2026-03-17_12h29.35.561,kallum_motion_pilot_GIST_update_2,2026.1.1,Win32,60.24096386,697a4a348348ac9e3727411f,69b92ab4aef6dee357cd729a,69b92bd1a4f5023e73b61106,0.4177,0.4178,1,55,217,141,1,seveneight,,,,,,,,,,,,,,,,,,,,,,,,,,,,,,,,,,,,,,,,,,,,,,,,,,,,,,,,,,,,,,,,,,,,,,,,,,,,,,,,,,,,,,,,,,,,,,,,,,,,,,,,,,,,,,,,,,,,,,,,,,,,,,,,,,,,,,,,,
,,697a4a348348ac9e3727411f,2026-03-17_12h29.35.561,kallum_motion_pilot_GIST_update_2,2026.1.1,Win32,60.24096386,697a4a348348ac9e3727411f,69b92ab4aef6dee357cd729a,69b92bd1a4f5023e73b61106,0.4186,0.4187,1,56,218,134,1,eightsix,,,,,,,,,,,,,,,,,,,,,,,,,,,,,,,,,,,,,,,,,,,,,,,,,,,,,,,,,,,,,,,,,,,,,,,,,,,,,,,,,,,,,,,,,,,,,,,,,,,,,,,,,,,,,,,,,,,,,,,,,,,,,,,,,,,,,,,,,
,,697a4a348348ac9e3727411f,2026-03-17_12h29.35.561,kallum_motion_pilot_GIST_update_2,2026.1.1,Win32,60.24096386,697a4a348348ac9e3727411f,69b92ab4aef6dee357cd729a,69b92bd1a4f5023e73b61106,0.4196,0.4196,1,57,219,59,1,twofour,,,,,,,,,,,,,,,,,,,,,,,,,,,,,,,,,,,,,,,,,,,,,,,,,,,,,,,,,,,,,,,,,,,,,,,,,,,,,,,,,,,,,,,,,,,,,,,,,,,,,,,,,,,,,,,,,,,,,,,,,,,,,,,,,,,,,,,,,
,,697a4a348348ac9e3727411f,2026-03-17_12h29.35.561,kallum_motion_pilot_GIST_update_2,2026.1.1,Win32,60.24096386,697a4a348348ac9e3727411f,69b92ab4aef6dee357cd729a,69b92bd1a4f5023e73b61106,0.4219,0.422,1,58,220,16,1,onetwo,,,,,,,,,,,,,,,,,,,,,,,,,,,,,,,,,,,,,,,,,,,,,,,,,,,,,,,,,,,,,,,,,,,,,,,,,,,,,,,,,,,,,,,,,,,,,,,,,,,,,,,,,,,,,,,,,,,,,,,,,,,,,,,,,,,,,,,,,
,,697a4a348348ac9e3727411f,2026-03-17_12h29.35.561,kallum_motion_pilot_GIST_update_2,2026.1.1,Win32,60.24096386,697a4a348348ac9e3727411f,69b92ab4aef6dee357cd729a,69b92bd1a4f5023e73b61106,0.4257,0.4259,1,59,221,100,1,sevenfive,,,,,,,,,,,,,,,,,,,,,,,,,,,,,,,,,,,,,,,,,,,,,,,,,,,,,,,,,,,,,,,,,,,,,,,,,,,,,,,,,,,,,,,,,,,,,,,,,,,,,,,,,,,,,,,,,,,,,,,,,,,,,,,,,,,,,,,,,
,,697a4a348348ac9e3727411f,2026-03-17_12h29.35.561,kallum_motion_pilot_GIST_update_2,2026.1.1,Win32,60.24096386,697a4a348348ac9e3727411f,69b92ab4aef6dee357cd729a,69b92bd1a4f5023e73b61106,0.4268,0.4269,1,60,222,148,1,sevenfive,,,,,,,,,,,,,,,,,,,,,,,,,,,,,,,,,,,,,,,,,,,,,,,,,,,,,,,,,,,,,,,,,,,,,,,,,,,,,,,,,,,,,,,,,,,,,,,,,,,,,,,,,,,,,,,,,,,,,,,,,,,,,,,,,,,,,,,,,
,,697a4a348348ac9e3727411f,2026-03-17_12h29.35.561,kallum_motion_pilot_GIST_update_2,2026.1.1,Win32,60.24096386,697a4a348348ac9e3727411f,69b92ab4aef6dee357cd729a,69b92bd1a4f5023e73b61106,0.428,0.428,1,61,223,97,1,fiveseven,,,,,,,,,,,,,,,,,,,,,,,,,,,,,,,,,,,,,,,,,,,,,,,,,,,,,,,,,,,,,,,,,,,,,,,,,,,,,,,,,,,,,,,,,,,,,,,,,,,,,,,,,,,,,,,,,,,,,,,,,,,,,,,,,,,,,,,,,
,,697a4a348348ac9e3727411f,2026-03-17_12h29.35.561,kallum_motion_pilot_GIST_update_2,2026.1.1,Win32,60.24096386,697a4a348348ac9e3727411f,69b92ab4aef6dee357cd729a,69b92bd1a4f5023e73b61106,0.4289,0.4291,1,62,224,150,1,eightsix,,,,,,,,,,,,,,,,,,,,,,,,,,,,,,,,,,,,,,,,,,,,,,,,,,,,,,,,,,,,,,,,,,,,,,,,,,,,,,,,,,,,,,,,,,,,,,,,,,,,,,,,,,,,,,,,,,,,,,,,,,,,,,,,,,,,,,,,,
,,697a4a348348ac9e3727411f,2026-03-17_12h29.35.561,kallum_motion_pilot_GIST_update_2,2026.1.1,Win32,60.24096386,697a4a348348ac9e3727411f,69b92ab4aef6dee357cd729a,69b92bd1a4f5023e73b61106,0.4308,0.4309,1,63,225,132,1,sevenfive,,,,,,,,,,,,,,,,,,,,,,,,,,,,,,,,,,,,,,,,,,,,,,,,,,,,,,,,,,,,,,,,,,,,,,,,,,,,,,,,,,,,,,,,,,,,,,,,,,,,,,,,,,,,,,,,,,,,,,,,,,,,,,,,,,,,,,,,,
,,697a4a348348ac9e3727411f,2026-03-17_12h29.35.561,kallum_motion_pilot_GIST_update_2,2026.1.1,Win32,60.24096386,697a4a348348ac9e3727411f,69b92ab4aef6dee357cd729a,69b92bd1a4f5023e73b61106,0.4325,0.4326,1,64,226,86,1,eightsix,,,,,,,,,,,,,,,,,,,,,,,,,,,,,,,,,,,,,,,,,,,,,,,,,,,,,,,,,,,,,,,,,,,,,,,,,,,,,,,,,,,,,,,,,,,,,,,,,,,,,,,,,,,,,,,,,,,,,,,,,,,,,,,,,,,,,,,,,
,,697a4a348348ac9e3727411f,2026-03-17_12h29.35.561,kallum_motion_pilot_GIST_update_2,2026.1.1,Win32,60.24096386,697a4a348348ac9e3727411f,69b92ab4aef6dee357cd729a,69b92bd1a4f5023e73b61106,0.4353,0.4355,1,65,227,75,1,twofour,,,,,,,,,,,,,,,,,,,,,,,,,,,,,,,,,,,,,,,,,,,,,,,,,,,,,,,,,,,,,,,,,,,,,,,,,,,,,,,,,,,,,,,,,,,,,,,,,,,,,,,,,,,,,,,,,,,,,,,,,,,,,,,,,,,,,,,,,
,,697a4a348348ac9e3727411f,2026-03-17_12h29.35.561,kallum_motion_pilot_GIST_update_2,2026.1.1,Win32,60.24096386,697a4a348348ac9e3727411f,69b92ab4aef6dee357cd729a,69b92bd1a4f5023e73b61106,0.4364,0.4365,1,66,228,84,1,sevenfive,,,,,,,,,,,,,,,,,,,,,,,,,,,,,,,,,,,,,,,,,,,,,,,,,,,,,,,,,,,,,,,,,,,,,,,,,,,,,,,,,,,,,,,,,,,,,,,,,,,,,,,,,,,,,,,,,,,,,,,,,,,,,,,,,,,,,,,,,
,,697a4a348348ac9e3727411f,2026-03-17_12h29.35.561,kallum_motion_pilot_GIST_update_2,2026.1.1,Win32,60.24096386,697a4a348348ac9e3727411f,69b92ab4aef6dee357cd729a,69b92bd1a4f5023e73b61106,0.4375,0.4376,1,67,229,43,1,twofour,,,,,,,,,,,,,,,,,,,,,,,,,,,,,,,,,,,,,,,,,,,,,,,,,,,,,,,,,,,,,,,,,,,,,,,,,,,,,,,,,,,,,,,,,,,,,,,,,,,,,,,,,,,,,,,,,,,,,,,,,,,,,,,,,,,,,,,,,
,,697a4a348348ac9e3727411f,2026-03-17_12h29.35.561,kallum_motion_pilot_GIST_update_2,2026.1.1,Win32,60.24096386,697a4a348348ac9e3727411f,69b92ab4aef6dee357cd729a,69b92bd1a4f5023e73b61106,0.4384,0.4385,1,68,230,142,1,eightsix,,,,,,,,,,,,,,,,,,,,,,,,,,,,,,,,,,,,,,,,,,,,,,,,,,,,,,,,,,,,,,,,,,,,,,,,,,,,,,,,,,,,,,,,,,,,,,,,,,,,,,,,,,,,,,,,,,,,,,,,,,,,,,,,,,,,,,,,,
,,697a4a348348ac9e3727411f,2026-03-17_12h29.35.561,kallum_motion_pilot_GIST_update_2,2026.1.1,Win32,60.24096386,697a4a348348ac9e3727411f,69b92ab4aef6dee357cd729a,69b92bd1a4f5023e73b61106,0.4415,0.4416,1,69,231,93,1,seveneight,,,,,,,,,,,,,,,,,,,,,,,,,,,,,,,,,,,,,,,,,,,,,,,,,,,,,,,,,,,,,,,,,,,,,,,,,,,,,,,,,,,,,,,,,,,,,,,,,,,,,,,,,,,,,,,,,,,,,,,,,,,,,,,,,,,,,,,,,
,,697a4a348348ac9e3727411f,2026-03-17_12h29.35.561,kallum_motion_pilot_GIST_update_2,2026.1.1,Win32,60.24096386,697a4a348348ac9e3727411f,69b92ab4aef6dee357cd729a,69b92bd1a4f5023e73b61106,0.4427,0.4427,1,70,232,18,1,twoone,,,,,,,,,,,,,,,,,,,,,,,,,,,,,,,,,,,,,,,,,,,,,,,,,,,,,,,,,,,,,,,,,,,,,,,,,,,,,,,,,,,,,,,,,,,,,,,,,,,,,,,,,,,,,,,,,,,,,,,,,,,,,,,,,,,,,,,,,
,,697a4a348348ac9e3727411f,2026-03-17_12h29.35.561,kallum_motion_pilot_GIST_update_2,2026.1.1,Win32,60.24096386,697a4a348348ac9e3727411f,69b92ab4aef6dee357cd729a,69b92bd1a4f5023e73b61106,0.4447,0.4447,1,71,233,10,1,twoone,,,,,,,,,,,,,,,,,,,,,,,,,,,,,,,,,,,,,,,,,,,,,,,,,,,,,,,,,,,,,,,,,,,,,,,,,,,,,,,,,,,,,,,,,,,,,,,,,,,,,,,,,,,,,,,,,,,,,,,,,,,,,,,,,,,,,,,,,
,,697a4a348348ac9e3727411f,2026-03-17_12h29.35.561,kallum_motion_pilot_GIST_update_2,2026.1.1,Win32,60.24096386,697a4a348348ac9e3727411f,69b92ab4aef6dee357cd729a,69b92bd1a4f5023e73b61106,0.4456,0.4457,1,72,234,11,1,twofour,,,,,,,,,,,,,,,,,,,,,,,,,,,,,,,,,,,,,,,,,,,,,,,,,,,,,,,,,,,,,,,,,,,,,,,,,,,,,,,,,,,,,,,,,,,,,,,,,,,,,,,,,,,,,,,,,,,,,,,,,,,,,,,,,,,,,,,,,
,,697a4a348348ac9e3727411f,2026-03-17_12h29.35.561,kallum_motion_pilot_GIST_update_2,2026.1.1,Win32,60.24096386,697a4a348348ac9e3727411f,69b92ab4aef6dee357cd729a,69b92bd1a4f5023e73b61106,0.4465,0.4467,1,73,235,57,1,onethree,,,,,,,,,,,,,,,,,,,,,,,,,,,,,,,,,,,,,,,,,,,,,,,,,,,,,,,,,,,,,,,,,,,,,,,,,,,,,,,,,,,,,,,,,,,,,,,,,,,,,,,,,,,,,,,,,,,,,,,,,,,,,,,,,,,,,,,,,
,,697a4a348348ac9e3727411f,2026-03-17_12h29.35.561,kallum_motion_pilot_GIST_update_2,2026.1.1,Win32,60.24096386,697a4a348348ac9e3727411f,69b92ab4aef6dee357cd729a,69b92bd1a4f5023e73b61106,0.4477,0.4478,1,74,236,101,1,seveneight,,,,,,,,,,,,,,,,,,,,,,,,,,,,,,,,,,,,,,,,,,,,,,,,,,,,,,,,,,,,,,,,,,,,,,,,,,,,,,,,,,,,,,,,,,,,,,,,,,,,,,,,,,,,,,,,,,,,,,,,,,,,,,,,,,,,,,,,,
,,697a4a348348ac9e3727411f,2026-03-17_12h29.35.561,kallum_motion_pilot_GIST_update_2,2026.1.1,Win32,60.24096386,697a4a348348ac9e3727411f,69b92ab4aef6dee357cd729a,69b92bd1a4f5023e73b61106,0.4487,0.4488,1,75,237,60,1,threeone,,,,,,,,,,,,,,,,,,,,,,,,,,,,,,,,,,,,,,,,,,,,,,,,,,,,,,,,,,,,,,,,,,,,,,,,,,,,,,,,,,,,,,,,,,,,,,,,,,,,,,,,,,,,,,,,,,,,,,,,,,,,,,,,,,,,,,,,,
,,697a4a348348ac9e3727411f,2026-03-17_12h29.35.561,kallum_motion_pilot_GIST_update_2,2026.1.1,Win32,60.24096386,697a4a348348ac9e3727411f,69b92ab4aef6dee357cd729a,69b92bd1a4f5023e73b61106,0.4499,0.45,1,76,238,25,1,onethree,,,,,,,,,,,,,,,,,,,,,,,,,,,,,,,,,,,,,,,,,,,,,,,,,,,,,,,,,,,,,,,,,,,,,,,,,,,,,,,,,,,,,,,,,,,,,,,,,,,,,,,,,,,,,,,,,,,,,,,,,,,,,,,,,,,,,,,,,
,,697a4a348348ac9e3727411f,2026-03-17_12h29.35.561,kallum_motion_pilot_GIST_update_2,2026.1.1,Win32,60.24096386,697a4a348348ac9e3727411f,69b92ab4aef6dee357cd729a,69b92bd1a4f5023e73b61106,0.4519,0.4519,1,77,239,17,1,onethree,,,,,,,,,,,,,,,,,,,,,,,,,,,,,,,,,,,,,,,,,,,,,,,,,,,,,,,,,,,,,,,,,,,,,,,,,,,,,,,,,,,,,,,,,,,,,,,,,,,,,,,,,,,,,,,,,,,,,,,,,,,,,,,,,,,,,,,,,
,,697a4a348348ac9e3727411f,2026-03-17_12h29.35.561,kallum_motion_pilot_GIST_update_2,2026.1.1,Win32,60.24096386,697a4a348348ac9e3727411f,69b92ab4aef6dee357cd729a,69b92bd1a4f5023e73b61106,0.4549,0.4551,1,78,240,21,1,threefour,,,,,,,,,,,,,,,,,,,,,,,,,,,,,,,,,,,,,,,,,,,,,,,,,,,,,,,,,,,,,,,,,,,,,,,,,,,,,,,,,,,,,,,,,,,,,,,,,,,,,,,,,,,,,,,,,,,,,,,,,,,,,,,,,,,,,,,,,
,,697a4a348348ac9e3727411f,2026-03-17_12h29.35.561,kallum_motion_pilot_GIST_update_2,2026.1.1,Win32,60.24096386,697a4a348348ac9e3727411f,69b92ab4aef6dee357cd729a,69b92bd1a4f5023e73b61106,0.4574,0.4574,1,79,241,90,1,sixfive,,,,,,,,,,,,,,,,,,,,,,,,,,,,,,,,,,,,,,,,,,,,,,,,,,,,,,,,,,,,,,,,,,,,,,,,,,,,,,,,,,,,,,,,,,,,,,,,,,,,,,,,,,,,,,,,,,,,,,,,,,,,,,,,,,,,,,,,,
,,697a4a348348ac9e3727411f,2026-03-17_12h29.35.561,kallum_motion_pilot_GIST_update_2,2026.1.1,Win32,60.24096386,697a4a348348ac9e3727411f,69b92ab4aef6dee357cd729a,69b92bd1a4f5023e73b61106,0.4582,0.4582,1,80,242,125,1,seveneight,,,,,,,,,,,,,,,,,,,,,,,,,,,,,,,,,,,,,,,,,,,,,,,,,,,,,,,,,,,,,,,,,,,,,,,,,,,,,,,,,,,,,,,,,,,,,,,,,,,,,,,,,,,,,,,,,,,,,,,,,,,,,,,,,,,,,,,,,
,,697a4a348348ac9e3727411f,2026-03-17_12h29.35.561,kallum_motion_pilot_GIST_update_2,2026.1.1,Win32,60.24096386,697a4a348348ac9e3727411f,69b92ab4aef6dee357cd729a,69b92bd1a4f5023e73b61106,0.4592,0.4593,1,81,243,102,1,eightsix,,,,,,,,,,,,,,,,,,,,,,,,,,,,,,,,,,,,,,,,,,,,,,,,,,,,,,,,,,,,,,,,,,,,,,,,,,,,,,,,,,,,,,,,,,,,,,,,,,,,,,,,,,,,,,,,,,,,,,,,,,,,,,,,,,,,,,,,,
,,697a4a348348ac9e3727411f,2026-03-17_12h29.35.561,kallum_motion_pilot_GIST_update_2,2026.1.1,Win32,60.24096386,697a4a348348ac9e3727411f,69b92ab4aef6dee357cd729a,69b92bd1a4f5023e73b61106,0.4601,0.4602,1,82,244,110,1,eightsix,,,,,,,,,,,,,,,,,,,,,,,,,,,,,,,,,,,,,,,,,,,,,,,,,,,,,,,,,,,,,,,,,,,,,,,,,,,,,,,,,,,,,,,,,,,,,,,,,,,,,,,,,,,,,,,,,,,,,,,,,,,,,,,,,,,,,,,,,
,,697a4a348348ac9e3727411f,2026-03-17_12h29.35.561,kallum_motion_pilot_GIST_update_2,2026.1.1,Win32,60.24096386,697a4a348348ac9e3727411f,69b92ab4aef6dee357cd729a,69b92bd1a4f5023e73b61106,0.4623,0.4624,1,83,245,26,1,twoone,,,,,,,,,,,,,,,,,,,,,,,,,,,,,,,,,,,,,,,,,,,,,,,,,,,,,,,,,,,,,,,,,,,,,,,,,,,,,,,,,,,,,,,,,,,,,,,,,,,,,,,,,,,,,,,,,,,,,,,,,,,,,,,,,,,,,,,,,
,,697a4a348348ac9e3727411f,2026-03-17_12h29.35.561,kallum_motion_pilot_GIST_update_2,2026.1.1,Win32,60.24096386,697a4a348348ac9e3727411f,69b92ab4aef6dee357cd729a,69b92bd1a4f5023e73b61106,0.4649,0.465,1,84,246,39,1,fourthree,,,,,,,,,,,,,,,,,,,,,,,,,,,,,,,,,,,,,,,,,,,,,,,,,,,,,,,,,,,,,,,,,,,,,,,,,,,,,,,,,,,,,,,,,,,,,,,,,,,,,,,,,,,,,,,,,,,,,,,,,,,,,,,,,,,,,,,,,
,,697a4a348348ac9e3727411f,2026-03-17_12h29.35.561,kallum_motion_pilot_GIST_update_2,2026.1.1,Win32,60.24096386,697a4a348348ac9e3727411f,69b92ab4aef6dee357cd729a,69b92bd1a4f5023e73b61106,0.4659,0.466,1,85,247,7,1,fourthree,,,,,,,,,,,,,,,,,,,,,,,,,,,,,,,,,,,,,,,,,,,,,,,,,,,,,,,,,,,,,,,,,,,,,,,,,,,,,,,,,,,,,,,,,,,,,,,,,,,,,,,,,,,,,,,,,,,,,,,,,,,,,,,,,,,,,,,,,
,,697a4a348348ac9e3727411f,2026-03-17_12h29.35.561,kallum_motion_pilot_GIST_update_2,2026.1.1,Win32,60.24096386,697a4a348348ac9e3727411f,69b92ab4aef6dee357cd729a,69b92bd1a4f5023e73b61106,0.467,0.467,1,86,248,3,1,twofour,,,,,,,,,,,,,,,,,,,,,,,,,,,,,,,,,,,,,,,,,,,,,,,,,,,,,,,,,,,,,,,,,,,,,,,,,,,,,,,,,,,,,,,,,,,,,,,,,,,,,,,,,,,,,,,,,,,,,,,,,,,,,,,,,,,,,,,,,
,,697a4a348348ac9e3727411f,2026-03-17_12h29.35.561,kallum_motion_pilot_GIST_update_2,2026.1.1,Win32,60.24096386,697a4a348348ac9e3727411f,69b92ab4aef6dee357cd729a,69b92bd1a4f5023e73b61106,0.468,0.4681,1,87,249,62,1,fourtwo,,,,,,,,,,,,,,,,,,,,,,,,,,,,,,,,,,,,,,,,,,,,,,,,,,,,,,,,,,,,,,,,,,,,,,,,,,,,,,,,,,,,,,,,,,,,,,,,,,,,,,,,,,,,,,,,,,,,,,,,,,,,,,,,,,,,,,,,,
,,697a4a348348ac9e3727411f,2026-03-17_12h29.35.561,kallum_motion_pilot_GIST_update_2,2026.1.1,Win32,60.24096386,697a4a348348ac9e3727411f,69b92ab4aef6dee357cd729a,69b92bd1a4f5023e73b61106,0.469,0.469,1,88,250,106,1,sixfive,,,,,,,,,,,,,,,,,,,,,,,,,,,,,,,,,,,,,,,,,,,,,,,,,,,,,,,,,,,,,,,,,,,,,,,,,,,,,,,,,,,,,,,,,,,,,,,,,,,,,,,,,,,,,,,,,,,,,,,,,,,,,,,,,,,,,,,,,
,,697a4a348348ac9e3727411f,2026-03-17_12h29.35.561,kallum_motion_pilot_GIST_update_2,2026.1.1,Win32,60.24096386,697a4a348348ac9e3727411f,69b92ab4aef6dee357cd729a,69b92bd1a4f5023e73b61106,0.4708,0.4708,1,89,251,51,1,twofour,,,,,,,,,,,,,,,,,,,,,,,,,,,,,,,,,,,,,,,,,,,,,,,,,,,,,,,,,,,,,,,,,,,,,,,,,,,,,,,,,,,,,,,,,,,,,,,,,,,,,,,,,,,,,,,,,,,,,,,,,,,,,,,,,,,,,,,,,
,,697a4a348348ac9e3727411f,2026-03-17_12h29.35.561,kallum_motion_pilot_GIST_update_2,2026.1.1,Win32,60.24096386,697a4a348348ac9e3727411f,69b92ab4aef6dee357cd729a,69b92bd1a4f5023e73b61106,0.4747,0.4749,1,90,252,1,1,onethree,,,,,,,,,,,,,,,,,,,,,,,,,,,,,,,,,,,,,,,,,,,,,,,,,,,,,,,,,,,,,,,,,,,,,,,,,,,,,,,,,,,,,,,,,,,,,,,,,,,,,,,,,,,,,,,,,,,,,,,,,,,,,,,,,,,,,,,,,
,,697a4a348348ac9e3727411f,2026-03-17_12h29.35.561,kallum_motion_pilot_GIST_update_2,2026.1.1,Win32,60.24096386,697a4a348348ac9e3727411f,69b92ab4aef6dee357cd729a,69b92bd1a4f5023e73b61106,0.4759,0.476,1,91,253,118,1,eightsix,,,,,,,,,,,,,,,,,,,,,,,,,,,,,,,,,,,,,,,,,,,,,,,,,,,,,,,,,,,,,,,,,,,,,,,,,,,,,,,,,,,,,,,,,,,,,,,,,,,,,,,,,,,,,,,,,,,,,,,,,,,,,,,,,,,,,,,,,
,,697a4a348348ac9e3727411f,2026-03-17_12h29.35.561,kallum_motion_pilot_GIST_update_2,2026.1.1,Win32,60.24096386,697a4a348348ac9e3727411f,69b92ab4aef6dee357cd729a,69b92bd1a4f5023e73b61106,0.4772,0.4772,1,92,254,121,1,fiveseven,,,,,,,,,,,,,,,,,,,,,,,,,,,,,,,,,,,,,,,,,,,,,,,,,,,,,,,,,,,,,,,,,,,,,,,,,,,,,,,,,,,,,,,,,,,,,,,,,,,,,,,,,,,,,,,,,,,,,,,,,,,,,,,,,,,,,,,,,
,,697a4a348348ac9e3727411f,2026-03-17_12h29.35.561,kallum_motion_pilot_GIST_update_2,2026.1.1,Win32,60.24096386,697a4a348348ac9e3727411f,69b92ab4aef6dee357cd729a,69b92bd1a4f5023e73b61106,0.48,0.4801,1,93,255,4,1,threeone,,,,,,,,,,,,,,,,,,,,,,,,,,,,,,,,,,,,,,,,,,,,,,,,,,,,,,,,,,,,,,,,,,,,,,,,,,,,,,,,,,,,,,,,,,,,,,,,,,,,,,,,,,,,,,,,,,,,,,,,,,,,,,,,,,,,,,,,,
,,697a4a348348ac9e3727411f,2026-03-17_12h29.35.561,kallum_motion_pilot_GIST_update_2,2026.1.1,Win32,60.24096386,697a4a348348ac9e3727411f,69b92ab4aef6dee357cd729a,69b92bd1a4f5023e73b61106,0.4838,0.4838,1,94,256,143,1,eightseven,,,,,,,,,,,,,,,,,,,,,,,,,,,,,,,,,,,,,,,,,,,,,,,,,,,,,,,,,,,,,,,,,,,,,,,,,,,,,,,,,,,,,,,,,,,,,,,,,,,,,,,,,,,,,,,,,,,,,,,,,,,,,,,,,,,,,,,,,
,,697a4a348348ac9e3727411f,2026-03-17_12h29.35.561,kallum_motion_pilot_GIST_update_2,2026.1.1,Win32,60.24096386,697a4a348348ac9e3727411f,69b92ab4aef6dee357cd729a,69b92bd1a4f5023e73b61106,0.4847,0.4848,1,95,257,19,1,twofour,,,,,,,,,,,,,,,,,,,,,,,,,,,,,,,,,,,,,,,,,,,,,,,,,,,,,,,,,,,,,,,,,,,,,,,,,,,,,,,,,,,,,,,,,,,,,,,,,,,,,,,,,,,,,,,,,,,,,,,,,,,,,,,,,,,,,,,,,
,,697a4a348348ac9e3727411f,2026-03-17_12h29.35.561,kallum_motion_pilot_GIST_update_2,2026.1.1,Win32,60.24096386,697a4a348348ac9e3727411f,69b92ab4aef6dee357cd729a,69b92bd1a4f5023e73b61106,0.4857,0.4857,1,96,258,9,1,onethree,,,,,,,,,,,,,,,,,,,,,,,,,,,,,,,,,,,,,,,,,,,,,,,,,,,,,,,,,,,,,,,,,,,,,,,,,,,,,,,,,,,,,,,,,,,,,,,,,,,,,,,,,,,,,,,,,,,,,,,,,,,,,,,,,,,,,,,,,
,,697a4a348348ac9e3727411f,2026-03-17_12h29.35.561,kallum_motion_pilot_GIST_update_2,2026.1.1,Win32,60.24096386,697a4a348348ac9e3727411f,69b92ab4aef6dee357cd729a,69b92bd1a4f5023e73b61106,0.4867,0.4869,1,97,259,65,1,onethree,,,,,,,,,,,,,,,,,,,,,,,,,,,,,,,,,,,,,,,,,,,,,,,,,,,,,,,,,,,,,,,,,,,,,,,,,,,,,,,,,,,,,,,,,,,,,,,,,,,,,,,,,,,,,,,,,,,,,,,,,,,,,,,,,,,,,,,,,
,,697a4a348348ac9e3727411f,2026-03-17_12h29.35.561,kallum_motion_pilot_GIST_update_2,2026.1.1,Win32,60.24096386,697a4a348348ac9e3727411f,69b92ab4aef6dee357cd729a,69b92bd1a4f5023e73b61106,0.4878,0.4878,1,98,260,23,1,fourthree,,,,,,,,,,,,,,,,,,,,,,,,,,,,,,,,,,,,,,,,,,,,,,,,,,,,,,,,,,,,,,,,,,,,,,,,,,,,,,,,,,,,,,,,,,,,,,,,,,,,,,,,,,,,,,,,,,,,,,,,,,,,,,,,,,,,,,,,,
,,697a4a348348ac9e3727411f,2026-03-17_12h29.35.561,kallum_motion_pilot_GIST_update_2,2026.1.1,Win32,60.24096386,697a4a348348ac9e3727411f,69b92ab4aef6dee357cd729a,69b92bd1a4f5023e73b61106,0.4913,0.4914,1,99,261,115,1,sixeight,,,,,,,,,,,,,,,,,,,,,,,,,,,,,,,,,,,,,,,,,,,,,,,,,,,,,,,,,,,,,,,,,,,,,,,,,,,,,,,,,,,,,,,,,,,,,,,,,,,,,,,,,,,,,,,,,,,,,,,,,,,,,,,,,,,,,,,,,
,,697a4a348348ac9e3727411f,2026-03-17_12h29.35.561,kallum_motion_pilot_GIST_update_2,2026.1.1,Win32,60.24096386,697a4a348348ac9e3727411f,69b92ab4aef6dee357cd729a,69b92bd1a4f5023e73b61106,0.4946,0.4947,1,100,262,54,1,fourtwo,,,,,,,,,,,,,,,,,,,,,,,,,,,,,,,,,,,,,,,,,,,,,,,,,,,,,,,,,,,,,,,,,,,,,,,,,,,,,,,,,,,,,,,,,,,,,,,,,,,,,,,,,,,,,,,,,,,,,,,,,,,,,,,,,,,,,,,,,
,,697a4a348348ac9e3727411f,2026-03-17_12h29.35.561,kallum_motion_pilot_GIST_update_2,2026.1.1,Win32,60.24096386,697a4a348348ac9e3727411f,69b92ab4aef6dee357cd729a,69b92bd1a4f5023e73b61106,0.4957,0.4958,1,101,263,117,1,seveneight,,,,,,,,,,,,,,,,,,,,,,,,,,,,,,,,,,,,,,,,,,,,,,,,,,,,,,,,,,,,,,,,,,,,,,,,,,,,,,,,,,,,,,,,,,,,,,,,,,,,,,,,,,,,,,,,,,,,,,,,,,,,,,,,,,,,,,,,,
,,697a4a348348ac9e3727411f,2026-03-17_12h29.35.561,kallum_motion_pilot_GIST_update_2,2026.1.1,Win32,60.24096386,697a4a348348ac9e3727411f,69b92ab4aef6dee357cd729a,69b92bd1a4f5023e73b61106,0.4976,0.4977,1,102,264,22,1,fourtwo,,,,,,,,,,,,,,,,,,,,,,,,,,,,,,,,,,,,,,,,,,,,,,,,,,,,,,,,,,,,,,,,,,,,,,,,,,,,,,,,,,,,,,,,,,,,,,,,,,,,,,,,,,,,,,,,,,,,,,,,,,,,,,,,,,,,,,,,,
,,697a4a348348ac9e3727411f,2026-03-17_12h29.35.561,kallum_motion_pilot_GIST_update_2,2026.1.1,Win32,60.24096386,697a4a348348ac9e3727411f,69b92ab4aef6dee357cd729a,69b92bd1a4f5023e73b61106,0.4987,0.4987,1,103,265,71,1,fourthree,,,,,,,,,,,,,,,,,,,,,,,,,,,,,,,,,,,,,,,,,,,,,,,,,,,,,,,,,,,,,,,,,,,,,,,,,,,,,,,,,,,,,,,,,,,,,,,,,,,,,,,,,,,,,,,,,,,,,,,,,,,,,,,,,,,,,,,,,
,,697a4a348348ac9e3727411f,2026-03-17_12h29.35.561,kallum_motion_pilot_GIST_update_2,2026.1.1,Win32,60.24096386,697a4a348348ac9e3727411f,69b92ab4aef6dee357cd729a,69b92bd1a4f5023e73b61106,0.4998,0.4998,1,104,266,108,1,sevenfive,,,,,,,,,,,,,,,,,,,,,,,,,,,,,,,,,,,,,,,,,,,,,,,,,,,,,,,,,,,,,,,,,,,,,,,,,,,,,,,,,,,,,,,,,,,,,,,,,,,,,,,,,,,,,,,,,,,,,,,,,,,,,,,,,,,,,,,,,
