startup.started,startup.stopped,Prolific ID*,date,expName,psychopyVersion,OS,frameRate,participant,study_id,session,stimpositions.started,stimpositions.stopped,hardcoded_stimulus_positions.thisRepN,hardcoded_stimulus_positions.thisTrialN,hardcoded_stimulus_positions.thisN,hardcoded_stimulus_positions.thisIndex,hardcoded_stimulus_positions.ran,StimulusPos,stimorientation.started,stimorientation.stopped,prac_stimorientation_import_loop.thisRepN,prac_stimorientation_import_loop.thisTrialN,prac_stimorientation_import_loop.thisN,prac_stimorientation_import_loop.thisIndex,prac_stimorientation_import_loop.ran,Stimorientation,welcome_instr.started,welcome_instr.stopped,key_resp.keys,key_resp.rt,key_resp.duration,response_steppedout_1.started,response_steppedout_1.stopped,key_resp_20.keys,key_resp_20.rt,key_resp_20.duration,response_steppedout_2.started,response_steppedout_2.stopped,key_resp_19.keys,key_resp_19.rt,key_resp_19.duration,stim_response_instr.started,stim_response_instr.stopped,key_resp_15.keys,key_resp_15.rt,key_resp_15.duration,direction_instr_2.started,direction_instr_2.stopped,key_resp_9.keys,key_resp_9.rt,key_resp_9.duration,instr_prac.started,instr_prac.stopped,key_resp_10.keys,key_resp_10.rt,key_resp_10.duration,Stim1_display_prac.started,Stim1_display_prac.stopped,Ecc,Circle1_ori,Circle2_ori,response_prac.started,similarity,response_time,response_prac.stopped,mouse_5.x,mouse_5.y,mouse_5.leftButton,mouse_5.midButton,mouse_5.rightButton,mouse_5.clicked_name,responseprac_feedback.started,responseprac_feedback.stopped,summary2_prac.started,summary2_prac.stopped,mouse_6.x,mouse_6.y,mouse_6.leftButton,mouse_6.midButton,mouse_6.rightButton,mouse_6.clicked_name,duringprac.thisRepN,duringprac.thisTrialN,duringprac.thisN,duringprac.thisIndex,duringprac.ran,begin.started,begin.stopped,key_resp_22.keys,key_resp_22.rt,key_resp_22.duration,Stim1_display.started,Stim1_display.stopped,circle1_ori,circle2_ori,circle1_SF,circle2_SF,response.started,response.stopped,mouse.x,mouse.y,mouse.leftButton,mouse.midButton,mouse.rightButton,mouse.clicked_name,trialnumber,double_pass.thisRepN,double_pass.thisTrialN,double_pass.thisN,double_pass.thisIndex,double_pass.ran,double_pass.order,main_trial.thisRepN,main_trial.thisTrialN,main_trial.thisN,main_trial.thisIndex,main_trial.ran,main_trial.order,Trial_Counter,Catch,Frequencies,response_2.started,response_2.stopped,mouse_2.x,mouse_2.y,mouse_2.leftButton,mouse_2.midButton,mouse_2.rightButton,mouse_2.clicked_name,special_trial.started,special_trial.stopped,catch_1.started,catch_1.stopped,mouse_3.x,mouse_3.y,mouse_3.leftButton,mouse_3.midButton,mouse_3.rightButton,catchresponse,catchnumber,response_time_catch,response_sum.started,response_sum.stopped,mouse_11.x,mouse_11.y,mouse_11.leftButton,mouse_11.midButton,mouse_11.rightButton,flip_presentation_sequence_for_double_pass.started,flip_presentation_sequence_for_double_pass.stopped,goodbye.started,goodbye.stopped,key_resp_3.keys,key_resp_3.rt,key_resp_3.duration
0.1144,0.1147,697b669444c70e3276dcd49e,2026-03-17_16h18.11.641,kallum_motion_pilot_GIST_update_2,2026.1.1,Win32,60.24096386,697b669444c70e3276dcd49e,69b95efdef24cd8a694e89ee,69b960bde3625aacf89f3c3c,,,,,,,,,,,,,,,,,,,,,,,,,,,,,,,,,,,,,,,,,,,,,,,,,,,,,,,,,,,,,,,,,,,,,,,,,,,,,,,,,,,,,,,,,,,,,,,,,,,,,,,,,,,,,,,,,,,,,,,,,,,,,,,,,,,,,,,,,,,,,,,,,
,,697b669444c70e3276dcd49e,2026-03-17_16h18.11.641,kallum_motion_pilot_GIST_update_2,2026.1.1,Win32,60.24096386,697b669444c70e3276dcd49e,69b95efdef24cd8a694e89ee,69b960bde3625aacf89f3c3c,0.6317,0.6321,0,0,0,100,1,sevenfive,,,,,,,,,,,,,,,,,,,,,,,,,,,,,,,,,,,,,,,,,,,,,,,,,,,,,,,,,,,,,,,,,,,,,,,,,,,,,,,,,,,,,,,,,,,,,,,,,,,,,,,,,,,,,,,,,,,,,,,,,,,,,,,,,,,,,,,,,
,,697b669444c70e3276dcd49e,2026-03-17_16h18.11.641,kallum_motion_pilot_GIST_update_2,2026.1.1,Win32,60.24096386,697b669444c70e3276dcd49e,69b95efdef24cd8a694e89ee,69b960bde3625aacf89f3c3c,0.6327,0.6327,0,1,1,148,1,sevenfive,,,,,,,,,,,,,,,,,,,,,,,,,,,,,,,,,,,,,,,,,,,,,,,,,,,,,,,,,,,,,,,,,,,,,,,,,,,,,,,,,,,,,,,,,,,,,,,,,,,,,,,,,,,,,,,,,,,,,,,,,,,,,,,,,,,,,,,,,
,,697b669444c70e3276dcd49e,2026-03-17_16h18.11.641,kallum_motion_pilot_GIST_update_2,2026.1.1,Win32,60.24096386,697b669444c70e3276dcd49e,69b95efdef24cd8a694e89ee,69b960bde3625aacf89f3c3c,0.6332,0.6333,0,2,2,89,1,fiveseven,,,,,,,,,,,,,,,,,,,,,,,,,,,,,,,,,,,,,,,,,,,,,,,,,,,,,,,,,,,,,,,,,,,,,,,,,,,,,,,,,,,,,,,,,,,,,,,,,,,,,,,,,,,,,,,,,,,,,,,,,,,,,,,,,,,,,,,,,
,,697b669444c70e3276dcd49e,2026-03-17_16h18.11.641,kallum_motion_pilot_GIST_update_2,2026.1.1,Win32,60.24096386,697b669444c70e3276dcd49e,69b95efdef24cd8a694e89ee,69b960bde3625aacf89f3c3c,0.6339,0.6339,0,3,3,55,1,fourthree,,,,,,,,,,,,,,,,,,,,,,,,,,,,,,,,,,,,,,,,,,,,,,,,,,,,,,,,,,,,,,,,,,,,,,,,,,,,,,,,,,,,,,,,,,,,,,,,,,,,,,,,,,,,,,,,,,,,,,,,,,,,,,,,,,,,,,,,,
,,697b669444c70e3276dcd49e,2026-03-17_16h18.11.641,kallum_motion_pilot_GIST_update_2,2026.1.1,Win32,60.24096386,697b669444c70e3276dcd49e,69b95efdef24cd8a694e89ee,69b960bde3625aacf89f3c3c,0.6348,0.6348,0,4,4,146,1,sixfive,,,,,,,,,,,,,,,,,,,,,,,,,,,,,,,,,,,,,,,,,,,,,,,,,,,,,,,,,,,,,,,,,,,,,,,,,,,,,,,,,,,,,,,,,,,,,,,,,,,,,,,,,,,,,,,,,,,,,,,,,,,,,,,,,,,,,,,,,
,,697b669444c70e3276dcd49e,2026-03-17_16h18.11.641,kallum_motion_pilot_GIST_update_2,2026.1.1,Win32,60.24096386,697b669444c70e3276dcd49e,69b95efdef24cd8a694e89ee,69b960bde3625aacf89f3c3c,0.6365,0.6366,0,5,5,2,1,twoone,,,,,,,,,,,,,,,,,,,,,,,,,,,,,,,,,,,,,,,,,,,,,,,,,,,,,,,,,,,,,,,,,,,,,,,,,,,,,,,,,,,,,,,,,,,,,,,,,,,,,,,,,,,,,,,,,,,,,,,,,,,,,,,,,,,,,,,,,
,,697b669444c70e3276dcd49e,2026-03-17_16h18.11.641,kallum_motion_pilot_GIST_update_2,2026.1.1,Win32,60.24096386,697b669444c70e3276dcd49e,69b95efdef24cd8a694e89ee,69b960bde3625aacf89f3c3c,0.6372,0.6372,0,6,6,138,1,sixfive,,,,,,,,,,,,,,,,,,,,,,,,,,,,,,,,,,,,,,,,,,,,,,,,,,,,,,,,,,,,,,,,,,,,,,,,,,,,,,,,,,,,,,,,,,,,,,,,,,,,,,,,,,,,,,,,,,,,,,,,,,,,,,,,,,,,,,,,,
,,697b669444c70e3276dcd49e,2026-03-17_16h18.11.641,kallum_motion_pilot_GIST_update_2,2026.1.1,Win32,60.24096386,697b669444c70e3276dcd49e,69b95efdef24cd8a694e89ee,69b960bde3625aacf89f3c3c,0.6378,0.6378,0,7,7,134,1,eightsix,,,,,,,,,,,,,,,,,,,,,,,,,,,,,,,,,,,,,,,,,,,,,,,,,,,,,,,,,,,,,,,,,,,,,,,,,,,,,,,,,,,,,,,,,,,,,,,,,,,,,,,,,,,,,,,,,,,,,,,,,,,,,,,,,,,,,,,,,
,,697b669444c70e3276dcd49e,2026-03-17_16h18.11.641,kallum_motion_pilot_GIST_update_2,2026.1.1,Win32,60.24096386,697b669444c70e3276dcd49e,69b95efdef24cd8a694e89ee,69b960bde3625aacf89f3c3c,0.6385,0.6386,0,8,8,105,1,fiveseven,,,,,,,,,,,,,,,,,,,,,,,,,,,,,,,,,,,,,,,,,,,,,,,,,,,,,,,,,,,,,,,,,,,,,,,,,,,,,,,,,,,,,,,,,,,,,,,,,,,,,,,,,,,,,,,,,,,,,,,,,,,,,,,,,,,,,,,,,
,,697b669444c70e3276dcd49e,2026-03-17_16h18.11.641,kallum_motion_pilot_GIST_update_2,2026.1.1,Win32,60.24096386,697b669444c70e3276dcd49e,69b95efdef24cd8a694e89ee,69b960bde3625aacf89f3c3c,0.6392,0.6392,0,9,9,15,1,fourthree,,,,,,,,,,,,,,,,,,,,,,,,,,,,,,,,,,,,,,,,,,,,,,,,,,,,,,,,,,,,,,,,,,,,,,,,,,,,,,,,,,,,,,,,,,,,,,,,,,,,,,,,,,,,,,,,,,,,,,,,,,,,,,,,,,,,,,,,,
,,697b669444c70e3276dcd49e,2026-03-17_16h18.11.641,kallum_motion_pilot_GIST_update_2,2026.1.1,Win32,60.24096386,697b669444c70e3276dcd49e,69b95efdef24cd8a694e89ee,69b960bde3625aacf89f3c3c,0.6398,0.6398,0,10,10,60,1,threeone,,,,,,,,,,,,,,,,,,,,,,,,,,,,,,,,,,,,,,,,,,,,,,,,,,,,,,,,,,,,,,,,,,,,,,,,,,,,,,,,,,,,,,,,,,,,,,,,,,,,,,,,,,,,,,,,,,,,,,,,,,,,,,,,,,,,,,,,,
,,697b669444c70e3276dcd49e,2026-03-17_16h18.11.641,kallum_motion_pilot_GIST_update_2,2026.1.1,Win32,60.24096386,697b669444c70e3276dcd49e,69b95efdef24cd8a694e89ee,69b960bde3625aacf89f3c3c,0.6403,0.6404,0,11,11,39,1,fourthree,,,,,,,,,,,,,,,,,,,,,,,,,,,,,,,,,,,,,,,,,,,,,,,,,,,,,,,,,,,,,,,,,,,,,,,,,,,,,,,,,,,,,,,,,,,,,,,,,,,,,,,,,,,,,,,,,,,,,,,,,,,,,,,,,,,,,,,,,
,,697b669444c70e3276dcd49e,2026-03-17_16h18.11.641,kallum_motion_pilot_GIST_update_2,2026.1.1,Win32,60.24096386,697b669444c70e3276dcd49e,69b95efdef24cd8a694e89ee,69b960bde3625aacf89f3c3c,0.641,0.641,0,12,12,118,1,eightsix,,,,,,,,,,,,,,,,,,,,,,,,,,,,,,,,,,,,,,,,,,,,,,,,,,,,,,,,,,,,,,,,,,,,,,,,,,,,,,,,,,,,,,,,,,,,,,,,,,,,,,,,,,,,,,,,,,,,,,,,,,,,,,,,,,,,,,,,,
,,697b669444c70e3276dcd49e,2026-03-17_16h18.11.641,kallum_motion_pilot_GIST_update_2,2026.1.1,Win32,60.24096386,697b669444c70e3276dcd49e,69b95efdef24cd8a694e89ee,69b960bde3625aacf89f3c3c,0.6414,0.6415,0,13,13,128,1,fivesix,,,,,,,,,,,,,,,,,,,,,,,,,,,,,,,,,,,,,,,,,,,,,,,,,,,,,,,,,,,,,,,,,,,,,,,,,,,,,,,,,,,,,,,,,,,,,,,,,,,,,,,,,,,,,,,,,,,,,,,,,,,,,,,,,,,,,,,,,
,,697b669444c70e3276dcd49e,2026-03-17_16h18.11.641,kallum_motion_pilot_GIST_update_2,2026.1.1,Win32,60.24096386,697b669444c70e3276dcd49e,69b95efdef24cd8a694e89ee,69b960bde3625aacf89f3c3c,0.642,0.642,0,14,14,43,1,twofour,,,,,,,,,,,,,,,,,,,,,,,,,,,,,,,,,,,,,,,,,,,,,,,,,,,,,,,,,,,,,,,,,,,,,,,,,,,,,,,,,,,,,,,,,,,,,,,,,,,,,,,,,,,,,,,,,,,,,,,,,,,,,,,,,,,,,,,,,
,,697b669444c70e3276dcd49e,2026-03-17_16h18.11.641,kallum_motion_pilot_GIST_update_2,2026.1.1,Win32,60.24096386,697b669444c70e3276dcd49e,69b95efdef24cd8a694e89ee,69b960bde3625aacf89f3c3c,0.6425,0.6426,0,15,15,78,1,fourtwo,,,,,,,,,,,,,,,,,,,,,,,,,,,,,,,,,,,,,,,,,,,,,,,,,,,,,,,,,,,,,,,,,,,,,,,,,,,,,,,,,,,,,,,,,,,,,,,,,,,,,,,,,,,,,,,,,,,,,,,,,,,,,,,,,,,,,,,,,
,,697b669444c70e3276dcd49e,2026-03-17_16h18.11.641,kallum_motion_pilot_GIST_update_2,2026.1.1,Win32,60.24096386,697b669444c70e3276dcd49e,69b95efdef24cd8a694e89ee,69b960bde3625aacf89f3c3c,0.6432,0.6432,0,16,16,101,1,seveneight,,,,,,,,,,,,,,,,,,,,,,,,,,,,,,,,,,,,,,,,,,,,,,,,,,,,,,,,,,,,,,,,,,,,,,,,,,,,,,,,,,,,,,,,,,,,,,,,,,,,,,,,,,,,,,,,,,,,,,,,,,,,,,,,,,,,,,,,,
,,697b669444c70e3276dcd49e,2026-03-17_16h18.11.641,kallum_motion_pilot_GIST_update_2,2026.1.1,Win32,60.24096386,697b669444c70e3276dcd49e,69b95efdef24cd8a694e89ee,69b960bde3625aacf89f3c3c,0.6437,0.6437,0,17,17,61,1,threefour,,,,,,,,,,,,,,,,,,,,,,,,,,,,,,,,,,,,,,,,,,,,,,,,,,,,,,,,,,,,,,,,,,,,,,,,,,,,,,,,,,,,,,,,,,,,,,,,,,,,,,,,,,,,,,,,,,,,,,,,,,,,,,,,,,,,,,,,,
,,697b669444c70e3276dcd49e,2026-03-17_16h18.11.641,kallum_motion_pilot_GIST_update_2,2026.1.1,Win32,60.24096386,697b669444c70e3276dcd49e,69b95efdef24cd8a694e89ee,69b960bde3625aacf89f3c3c,0.6442,0.6442,0,18,18,25,1,onethree,,,,,,,,,,,,,,,,,,,,,,,,,,,,,,,,,,,,,,,,,,,,,,,,,,,,,,,,,,,,,,,,,,,,,,,,,,,,,,,,,,,,,,,,,,,,,,,,,,,,,,,,,,,,,,,,,,,,,,,,,,,,,,,,,,,,,,,,,
,,697b669444c70e3276dcd49e,2026-03-17_16h18.11.641,kallum_motion_pilot_GIST_update_2,2026.1.1,Win32,60.24096386,697b669444c70e3276dcd49e,69b95efdef24cd8a694e89ee,69b960bde3625aacf89f3c3c,0.6448,0.6448,0,19,19,88,1,fivesix,,,,,,,,,,,,,,,,,,,,,,,,,,,,,,,,,,,,,,,,,,,,,,,,,,,,,,,,,,,,,,,,,,,,,,,,,,,,,,,,,,,,,,,,,,,,,,,,,,,,,,,,,,,,,,,,,,,,,,,,,,,,,,,,,,,,,,,,,
,,697b669444c70e3276dcd49e,2026-03-17_16h18.11.641,kallum_motion_pilot_GIST_update_2,2026.1.1,Win32,60.24096386,697b669444c70e3276dcd49e,69b95efdef24cd8a694e89ee,69b960bde3625aacf89f3c3c,0.6453,0.6453,0,20,20,125,1,seveneight,,,,,,,,,,,,,,,,,,,,,,,,,,,,,,,,,,,,,,,,,,,,,,,,,,,,,,,,,,,,,,,,,,,,,,,,,,,,,,,,,,,,,,,,,,,,,,,,,,,,,,,,,,,,,,,,,,,,,,,,,,,,,,,,,,,,,,,,,
,,697b669444c70e3276dcd49e,2026-03-17_16h18.11.641,kallum_motion_pilot_GIST_update_2,2026.1.1,Win32,60.24096386,697b669444c70e3276dcd49e,69b95efdef24cd8a694e89ee,69b960bde3625aacf89f3c3c,0.9313,0.9313,0,21,21,113,1,fiveseven,,,,,,,,,,,,,,,,,,,,,,,,,,,,,,,,,,,,,,,,,,,,,,,,,,,,,,,,,,,,,,,,,,,,,,,,,,,,,,,,,,,,,,,,,,,,,,,,,,,,,,,,,,,,,,,,,,,,,,,,,,,,,,,,,,,,,,,,,
,,697b669444c70e3276dcd49e,2026-03-17_16h18.11.641,kallum_motion_pilot_GIST_update_2,2026.1.1,Win32,60.24096386,697b669444c70e3276dcd49e,69b95efdef24cd8a694e89ee,69b960bde3625aacf89f3c3c,0.9324,0.9324,0,22,22,85,1,seveneight,,,,,,,,,,,,,,,,,,,,,,,,,,,,,,,,,,,,,,,,,,,,,,,,,,,,,,,,,,,,,,,,,,,,,,,,,,,,,,,,,,,,,,,,,,,,,,,,,,,,,,,,,,,,,,,,,,,,,,,,,,,,,,,,,,,,,,,,,
,,697b669444c70e3276dcd49e,2026-03-17_16h18.11.641,kallum_motion_pilot_GIST_update_2,2026.1.1,Win32,60.24096386,697b669444c70e3276dcd49e,69b95efdef24cd8a694e89ee,69b960bde3625aacf89f3c3c,0.9333,0.9334,0,23,23,90,1,sixfive,,,,,,,,,,,,,,,,,,,,,,,,,,,,,,,,,,,,,,,,,,,,,,,,,,,,,,,,,,,,,,,,,,,,,,,,,,,,,,,,,,,,,,,,,,,,,,,,,,,,,,,,,,,,,,,,,,,,,,,,,,,,,,,,,,,,,,,,,
,,697b669444c70e3276dcd49e,2026-03-17_16h18.11.641,kallum_motion_pilot_GIST_update_2,2026.1.1,Win32,60.24096386,697b669444c70e3276dcd49e,69b95efdef24cd8a694e89ee,69b960bde3625aacf89f3c3c,0.9386,0.9386,0,24,24,80,1,fivesix,,,,,,,,,,,,,,,,,,,,,,,,,,,,,,,,,,,,,,,,,,,,,,,,,,,,,,,,,,,,,,,,,,,,,,,,,,,,,,,,,,,,,,,,,,,,,,,,,,,,,,,,,,,,,,,,,,,,,,,,,,,,,,,,,,,,,,,,,
,,697b669444c70e3276dcd49e,2026-03-17_16h18.11.641,kallum_motion_pilot_GIST_update_2,2026.1.1,Win32,60.24096386,697b669444c70e3276dcd49e,69b95efdef24cd8a694e89ee,69b960bde3625aacf89f3c3c,0.9403,0.9403,0,25,25,62,1,fourtwo,,,,,,,,,,,,,,,,,,,,,,,,,,,,,,,,,,,,,,,,,,,,,,,,,,,,,,,,,,,,,,,,,,,,,,,,,,,,,,,,,,,,,,,,,,,,,,,,,,,,,,,,,,,,,,,,,,,,,,,,,,,,,,,,,,,,,,,,,
,,697b669444c70e3276dcd49e,2026-03-17_16h18.11.641,kallum_motion_pilot_GIST_update_2,2026.1.1,Win32,60.24096386,697b669444c70e3276dcd49e,69b95efdef24cd8a694e89ee,69b960bde3625aacf89f3c3c,0.9419,0.942,0,26,26,50,1,twoone,,,,,,,,,,,,,,,,,,,,,,,,,,,,,,,,,,,,,,,,,,,,,,,,,,,,,,,,,,,,,,,,,,,,,,,,,,,,,,,,,,,,,,,,,,,,,,,,,,,,,,,,,,,,,,,,,,,,,,,,,,,,,,,,,,,,,,,,,
,,697b669444c70e3276dcd49e,2026-03-17_16h18.11.641,kallum_motion_pilot_GIST_update_2,2026.1.1,Win32,60.24096386,697b669444c70e3276dcd49e,69b95efdef24cd8a694e89ee,69b960bde3625aacf89f3c3c,0.9431,0.9432,0,27,27,156,1,sevenfive,,,,,,,,,,,,,,,,,,,,,,,,,,,,,,,,,,,,,,,,,,,,,,,,,,,,,,,,,,,,,,,,,,,,,,,,,,,,,,,,,,,,,,,,,,,,,,,,,,,,,,,,,,,,,,,,,,,,,,,,,,,,,,,,,,,,,,,,,
,,697b669444c70e3276dcd49e,2026-03-17_16h18.11.641,kallum_motion_pilot_GIST_update_2,2026.1.1,Win32,60.24096386,697b669444c70e3276dcd49e,69b95efdef24cd8a694e89ee,69b960bde3625aacf89f3c3c,0.9441,0.9441,0,28,28,143,1,eightseven,,,,,,,,,,,,,,,,,,,,,,,,,,,,,,,,,,,,,,,,,,,,,,,,,,,,,,,,,,,,,,,,,,,,,,,,,,,,,,,,,,,,,,,,,,,,,,,,,,,,,,,,,,,,,,,,,,,,,,,,,,,,,,,,,,,,,,,,,
,,697b669444c70e3276dcd49e,2026-03-17_16h18.11.641,kallum_motion_pilot_GIST_update_2,2026.1.1,Win32,60.24096386,697b669444c70e3276dcd49e,69b95efdef24cd8a694e89ee,69b960bde3625aacf89f3c3c,0.9465,0.9465,0,29,29,121,1,fiveseven,,,,,,,,,,,,,,,,,,,,,,,,,,,,,,,,,,,,,,,,,,,,,,,,,,,,,,,,,,,,,,,,,,,,,,,,,,,,,,,,,,,,,,,,,,,,,,,,,,,,,,,,,,,,,,,,,,,,,,,,,,,,,,,,,,,,,,,,,
,,697b669444c70e3276dcd49e,2026-03-17_16h18.11.641,kallum_motion_pilot_GIST_update_2,2026.1.1,Win32,60.24096386,697b669444c70e3276dcd49e,69b95efdef24cd8a694e89ee,69b960bde3625aacf89f3c3c,0.9476,0.9476,0,30,30,5,1,threefour,,,,,,,,,,,,,,,,,,,,,,,,,,,,,,,,,,,,,,,,,,,,,,,,,,,,,,,,,,,,,,,,,,,,,,,,,,,,,,,,,,,,,,,,,,,,,,,,,,,,,,,,,,,,,,,,,,,,,,,,,,,,,,,,,,,,,,,,,
,,697b669444c70e3276dcd49e,2026-03-17_16h18.11.641,kallum_motion_pilot_GIST_update_2,2026.1.1,Win32,60.24096386,697b669444c70e3276dcd49e,69b95efdef24cd8a694e89ee,69b960bde3625aacf89f3c3c,0.9484,0.9484,0,31,31,106,1,sixfive,,,,,,,,,,,,,,,,,,,,,,,,,,,,,,,,,,,,,,,,,,,,,,,,,,,,,,,,,,,,,,,,,,,,,,,,,,,,,,,,,,,,,,,,,,,,,,,,,,,,,,,,,,,,,,,,,,,,,,,,,,,,,,,,,,,,,,,,,
,,697b669444c70e3276dcd49e,2026-03-17_16h18.11.641,kallum_motion_pilot_GIST_update_2,2026.1.1,Win32,60.24096386,697b669444c70e3276dcd49e,69b95efdef24cd8a694e89ee,69b960bde3625aacf89f3c3c,0.9489,0.9489,0,32,32,116,1,sevenfive,,,,,,,,,,,,,,,,,,,,,,,,,,,,,,,,,,,,,,,,,,,,,,,,,,,,,,,,,,,,,,,,,,,,,,,,,,,,,,,,,,,,,,,,,,,,,,,,,,,,,,,,,,,,,,,,,,,,,,,,,,,,,,,,,,,,,,,,,
,,697b669444c70e3276dcd49e,2026-03-17_16h18.11.641,kallum_motion_pilot_GIST_update_2,2026.1.1,Win32,60.24096386,697b669444c70e3276dcd49e,69b95efdef24cd8a694e89ee,69b960bde3625aacf89f3c3c,0.9493,0.9493,0,33,33,42,1,twoone,,,,,,,,,,,,,,,,,,,,,,,,,,,,,,,,,,,,,,,,,,,,,,,,,,,,,,,,,,,,,,,,,,,,,,,,,,,,,,,,,,,,,,,,,,,,,,,,,,,,,,,,,,,,,,,,,,,,,,,,,,,,,,,,,,,,,,,,,
,,697b669444c70e3276dcd49e,2026-03-17_16h18.11.641,kallum_motion_pilot_GIST_update_2,2026.1.1,Win32,60.24096386,697b669444c70e3276dcd49e,69b95efdef24cd8a694e89ee,69b960bde3625aacf89f3c3c,0.9499,0.9499,0,34,34,31,1,fourthree,,,,,,,,,,,,,,,,,,,,,,,,,,,,,,,,,,,,,,,,,,,,,,,,,,,,,,,,,,,,,,,,,,,,,,,,,,,,,,,,,,,,,,,,,,,,,,,,,,,,,,,,,,,,,,,,,,,,,,,,,,,,,,,,,,,,,,,,,
,,697b669444c70e3276dcd49e,2026-03-17_16h18.11.641,kallum_motion_pilot_GIST_update_2,2026.1.1,Win32,60.24096386,697b669444c70e3276dcd49e,69b95efdef24cd8a694e89ee,69b960bde3625aacf89f3c3c,0.951,0.9512,0,35,35,65,1,onethree,,,,,,,,,,,,,,,,,,,,,,,,,,,,,,,,,,,,,,,,,,,,,,,,,,,,,,,,,,,,,,,,,,,,,,,,,,,,,,,,,,,,,,,,,,,,,,,,,,,,,,,,,,,,,,,,,,,,,,,,,,,,,,,,,,,,,,,,,
,,697b669444c70e3276dcd49e,2026-03-17_16h18.11.641,kallum_motion_pilot_GIST_update_2,2026.1.1,Win32,60.24096386,697b669444c70e3276dcd49e,69b95efdef24cd8a694e89ee,69b960bde3625aacf89f3c3c,0.9549,0.9573,0,36,36,32,1,onetwo,,,,,,,,,,,,,,,,,,,,,,,,,,,,,,,,,,,,,,,,,,,,,,,,,,,,,,,,,,,,,,,,,,,,,,,,,,,,,,,,,,,,,,,,,,,,,,,,,,,,,,,,,,,,,,,,,,,,,,,,,,,,,,,,,,,,,,,,,
,,697b669444c70e3276dcd49e,2026-03-17_16h18.11.641,kallum_motion_pilot_GIST_update_2,2026.1.1,Win32,60.24096386,697b669444c70e3276dcd49e,69b95efdef24cd8a694e89ee,69b960bde3625aacf89f3c3c,0.9589,0.959,0,37,37,132,1,sevenfive,,,,,,,,,,,,,,,,,,,,,,,,,,,,,,,,,,,,,,,,,,,,,,,,,,,,,,,,,,,,,,,,,,,,,,,,,,,,,,,,,,,,,,,,,,,,,,,,,,,,,,,,,,,,,,,,,,,,,,,,,,,,,,,,,,,,,,,,,
,,697b669444c70e3276dcd49e,2026-03-17_16h18.11.641,kallum_motion_pilot_GIST_update_2,2026.1.1,Win32,60.24096386,697b669444c70e3276dcd49e,69b95efdef24cd8a694e89ee,69b960bde3625aacf89f3c3c,0.9597,0.9597,0,38,38,154,1,sixfive,,,,,,,,,,,,,,,,,,,,,,,,,,,,,,,,,,,,,,,,,,,,,,,,,,,,,,,,,,,,,,,,,,,,,,,,,,,,,,,,,,,,,,,,,,,,,,,,,,,,,,,,,,,,,,,,,,,,,,,,,,,,,,,,,,,,,,,,,
,,697b669444c70e3276dcd49e,2026-03-17_16h18.11.641,kallum_motion_pilot_GIST_update_2,2026.1.1,Win32,60.24096386,697b669444c70e3276dcd49e,69b95efdef24cd8a694e89ee,69b960bde3625aacf89f3c3c,0.9606,0.9606,0,39,39,59,1,twofour,,,,,,,,,,,,,,,,,,,,,,,,,,,,,,,,,,,,,,,,,,,,,,,,,,,,,,,,,,,,,,,,,,,,,,,,,,,,,,,,,,,,,,,,,,,,,,,,,,,,,,,,,,,,,,,,,,,,,,,,,,,,,,,,,,,,,,,,,
,,697b669444c70e3276dcd49e,2026-03-17_16h18.11.641,kallum_motion_pilot_GIST_update_2,2026.1.1,Win32,60.24096386,697b669444c70e3276dcd49e,69b95efdef24cd8a694e89ee,69b960bde3625aacf89f3c3c,0.9614,0.9614,0,40,40,24,1,onetwo,,,,,,,,,,,,,,,,,,,,,,,,,,,,,,,,,,,,,,,,,,,,,,,,,,,,,,,,,,,,,,,,,,,,,,,,,,,,,,,,,,,,,,,,,,,,,,,,,,,,,,,,,,,,,,,,,,,,,,,,,,,,,,,,,,,,,,,,,
,,697b669444c70e3276dcd49e,2026-03-17_16h18.11.641,kallum_motion_pilot_GIST_update_2,2026.1.1,Win32,60.24096386,697b669444c70e3276dcd49e,69b95efdef24cd8a694e89ee,69b960bde3625aacf89f3c3c,0.9621,0.9622,0,41,41,74,1,twoone,,,,,,,,,,,,,,,,,,,,,,,,,,,,,,,,,,,,,,,,,,,,,,,,,,,,,,,,,,,,,,,,,,,,,,,,,,,,,,,,,,,,,,,,,,,,,,,,,,,,,,,,,,,,,,,,,,,,,,,,,,,,,,,,,,,,,,,,,
,,697b669444c70e3276dcd49e,2026-03-17_16h18.11.641,kallum_motion_pilot_GIST_update_2,2026.1.1,Win32,60.24096386,697b669444c70e3276dcd49e,69b95efdef24cd8a694e89ee,69b960bde3625aacf89f3c3c,0.9628,0.9629,0,42,42,37,1,threefour,,,,,,,,,,,,,,,,,,,,,,,,,,,,,,,,,,,,,,,,,,,,,,,,,,,,,,,,,,,,,,,,,,,,,,,,,,,,,,,,,,,,,,,,,,,,,,,,,,,,,,,,,,,,,,,,,,,,,,,,,,,,,,,,,,,,,,,,,
,,697b669444c70e3276dcd49e,2026-03-17_16h18.11.641,kallum_motion_pilot_GIST_update_2,2026.1.1,Win32,60.24096386,697b669444c70e3276dcd49e,69b95efdef24cd8a694e89ee,69b960bde3625aacf89f3c3c,0.9637,0.9637,0,43,43,83,1,sixeight,,,,,,,,,,,,,,,,,,,,,,,,,,,,,,,,,,,,,,,,,,,,,,,,,,,,,,,,,,,,,,,,,,,,,,,,,,,,,,,,,,,,,,,,,,,,,,,,,,,,,,,,,,,,,,,,,,,,,,,,,,,,,,,,,,,,,,,,,
,,697b669444c70e3276dcd49e,2026-03-17_16h18.11.641,kallum_motion_pilot_GIST_update_2,2026.1.1,Win32,60.24096386,697b669444c70e3276dcd49e,69b95efdef24cd8a694e89ee,69b960bde3625aacf89f3c3c,0.9645,0.9649,0,44,44,69,1,threefour,,,,,,,,,,,,,,,,,,,,,,,,,,,,,,,,,,,,,,,,,,,,,,,,,,,,,,,,,,,,,,,,,,,,,,,,,,,,,,,,,,,,,,,,,,,,,,,,,,,,,,,,,,,,,,,,,,,,,,,,,,,,,,,,,,,,,,,,,
,,697b669444c70e3276dcd49e,2026-03-17_16h18.11.641,kallum_motion_pilot_GIST_update_2,2026.1.1,Win32,60.24096386,697b669444c70e3276dcd49e,69b95efdef24cd8a694e89ee,69b960bde3625aacf89f3c3c,0.9663,0.9663,0,45,45,102,1,eightsix,,,,,,,,,,,,,,,,,,,,,,,,,,,,,,,,,,,,,,,,,,,,,,,,,,,,,,,,,,,,,,,,,,,,,,,,,,,,,,,,,,,,,,,,,,,,,,,,,,,,,,,,,,,,,,,,,,,,,,,,,,,,,,,,,,,,,,,,,
,,697b669444c70e3276dcd49e,2026-03-17_16h18.11.641,kallum_motion_pilot_GIST_update_2,2026.1.1,Win32,60.24096386,697b669444c70e3276dcd49e,69b95efdef24cd8a694e89ee,69b960bde3625aacf89f3c3c,0.967,0.967,0,46,46,91,1,sixeight,,,,,,,,,,,,,,,,,,,,,,,,,,,,,,,,,,,,,,,,,,,,,,,,,,,,,,,,,,,,,,,,,,,,,,,,,,,,,,,,,,,,,,,,,,,,,,,,,,,,,,,,,,,,,,,,,,,,,,,,,,,,,,,,,,,,,,,,,
,,697b669444c70e3276dcd49e,2026-03-17_16h18.11.641,kallum_motion_pilot_GIST_update_2,2026.1.1,Win32,60.24096386,697b669444c70e3276dcd49e,69b95efdef24cd8a694e89ee,69b960bde3625aacf89f3c3c,0.9677,0.9678,0,47,47,51,1,twofour,,,,,,,,,,,,,,,,,,,,,,,,,,,,,,,,,,,,,,,,,,,,,,,,,,,,,,,,,,,,,,,,,,,,,,,,,,,,,,,,,,,,,,,,,,,,,,,,,,,,,,,,,,,,,,,,,,,,,,,,,,,,,,,,,,,,,,,,,
,,697b669444c70e3276dcd49e,2026-03-17_16h18.11.641,kallum_motion_pilot_GIST_update_2,2026.1.1,Win32,60.24096386,697b669444c70e3276dcd49e,69b95efdef24cd8a694e89ee,69b960bde3625aacf89f3c3c,0.9686,0.9686,0,48,48,97,1,fiveseven,,,,,,,,,,,,,,,,,,,,,,,,,,,,,,,,,,,,,,,,,,,,,,,,,,,,,,,,,,,,,,,,,,,,,,,,,,,,,,,,,,,,,,,,,,,,,,,,,,,,,,,,,,,,,,,,,,,,,,,,,,,,,,,,,,,,,,,,,
,,697b669444c70e3276dcd49e,2026-03-17_16h18.11.641,kallum_motion_pilot_GIST_update_2,2026.1.1,Win32,60.24096386,697b669444c70e3276dcd49e,69b95efdef24cd8a694e89ee,69b960bde3625aacf89f3c3c,0.9702,0.9702,0,49,49,119,1,eightseven,,,,,,,,,,,,,,,,,,,,,,,,,,,,,,,,,,,,,,,,,,,,,,,,,,,,,,,,,,,,,,,,,,,,,,,,,,,,,,,,,,,,,,,,,,,,,,,,,,,,,,,,,,,,,,,,,,,,,,,,,,,,,,,,,,,,,,,,,
,,697b669444c70e3276dcd49e,2026-03-17_16h18.11.641,kallum_motion_pilot_GIST_update_2,2026.1.1,Win32,60.24096386,697b669444c70e3276dcd49e,69b95efdef24cd8a694e89ee,69b960bde3625aacf89f3c3c,0.9709,0.9709,0,50,50,11,1,twofour,,,,,,,,,,,,,,,,,,,,,,,,,,,,,,,,,,,,,,,,,,,,,,,,,,,,,,,,,,,,,,,,,,,,,,,,,,,,,,,,,,,,,,,,,,,,,,,,,,,,,,,,,,,,,,,,,,,,,,,,,,,,,,,,,,,,,,,,,
,,697b669444c70e3276dcd49e,2026-03-17_16h18.11.641,kallum_motion_pilot_GIST_update_2,2026.1.1,Win32,60.24096386,697b669444c70e3276dcd49e,69b95efdef24cd8a694e89ee,69b960bde3625aacf89f3c3c,0.9717,0.9717,0,51,51,35,1,twofour,,,,,,,,,,,,,,,,,,,,,,,,,,,,,,,,,,,,,,,,,,,,,,,,,,,,,,,,,,,,,,,,,,,,,,,,,,,,,,,,,,,,,,,,,,,,,,,,,,,,,,,,,,,,,,,,,,,,,,,,,,,,,,,,,,,,,,,,,
,,697b669444c70e3276dcd49e,2026-03-17_16h18.11.641,kallum_motion_pilot_GIST_update_2,2026.1.1,Win32,60.24096386,697b669444c70e3276dcd49e,69b95efdef24cd8a694e89ee,69b960bde3625aacf89f3c3c,0.9725,0.9725,0,52,52,77,1,threefour,,,,,,,,,,,,,,,,,,,,,,,,,,,,,,,,,,,,,,,,,,,,,,,,,,,,,,,,,,,,,,,,,,,,,,,,,,,,,,,,,,,,,,,,,,,,,,,,,,,,,,,,,,,,,,,,,,,,,,,,,,,,,,,,,,,,,,,,,
,,697b669444c70e3276dcd49e,2026-03-17_16h18.11.641,kallum_motion_pilot_GIST_update_2,2026.1.1,Win32,60.24096386,697b669444c70e3276dcd49e,69b95efdef24cd8a694e89ee,69b960bde3625aacf89f3c3c,0.9733,0.9733,0,53,53,151,1,eightseven,,,,,,,,,,,,,,,,,,,,,,,,,,,,,,,,,,,,,,,,,,,,,,,,,,,,,,,,,,,,,,,,,,,,,,,,,,,,,,,,,,,,,,,,,,,,,,,,,,,,,,,,,,,,,,,,,,,,,,,,,,,,,,,,,,,,,,,,,
,,697b669444c70e3276dcd49e,2026-03-17_16h18.11.641,kallum_motion_pilot_GIST_update_2,2026.1.1,Win32,60.24096386,697b669444c70e3276dcd49e,69b95efdef24cd8a694e89ee,69b960bde3625aacf89f3c3c,0.974,0.974,0,54,54,19,1,twofour,,,,,,,,,,,,,,,,,,,,,,,,,,,,,,,,,,,,,,,,,,,,,,,,,,,,,,,,,,,,,,,,,,,,,,,,,,,,,,,,,,,,,,,,,,,,,,,,,,,,,,,,,,,,,,,,,,,,,,,,,,,,,,,,,,,,,,,,,
,,697b669444c70e3276dcd49e,2026-03-17_16h18.11.641,kallum_motion_pilot_GIST_update_2,2026.1.1,Win32,60.24096386,697b669444c70e3276dcd49e,69b95efdef24cd8a694e89ee,69b960bde3625aacf89f3c3c,0.9754,0.9754,0,55,55,157,1,seveneight,,,,,,,,,,,,,,,,,,,,,,,,,,,,,,,,,,,,,,,,,,,,,,,,,,,,,,,,,,,,,,,,,,,,,,,,,,,,,,,,,,,,,,,,,,,,,,,,,,,,,,,,,,,,,,,,,,,,,,,,,,,,,,,,,,,,,,,,,
,,697b669444c70e3276dcd49e,2026-03-17_16h18.11.641,kallum_motion_pilot_GIST_update_2,2026.1.1,Win32,60.24096386,697b669444c70e3276dcd49e,69b95efdef24cd8a694e89ee,69b960bde3625aacf89f3c3c,0.9762,0.9762,0,56,56,110,1,eightsix,,,,,,,,,,,,,,,,,,,,,,,,,,,,,,,,,,,,,,,,,,,,,,,,,,,,,,,,,,,,,,,,,,,,,,,,,,,,,,,,,,,,,,,,,,,,,,,,,,,,,,,,,,,,,,,,,,,,,,,,,,,,,,,,,,,,,,,,,
,,697b669444c70e3276dcd49e,2026-03-17_16h18.11.641,kallum_motion_pilot_GIST_update_2,2026.1.1,Win32,60.24096386,697b669444c70e3276dcd49e,69b95efdef24cd8a694e89ee,69b960bde3625aacf89f3c3c,0.9769,0.977,0,57,57,122,1,sixfive,,,,,,,,,,,,,,,,,,,,,,,,,,,,,,,,,,,,,,,,,,,,,,,,,,,,,,,,,,,,,,,,,,,,,,,,,,,,,,,,,,,,,,,,,,,,,,,,,,,,,,,,,,,,,,,,,,,,,,,,,,,,,,,,,,,,,,,,,
,,697b669444c70e3276dcd49e,2026-03-17_16h18.11.641,kallum_motion_pilot_GIST_update_2,2026.1.1,Win32,60.24096386,697b669444c70e3276dcd49e,69b95efdef24cd8a694e89ee,69b960bde3625aacf89f3c3c,0.9779,0.9779,0,58,58,87,1,eightseven,,,,,,,,,,,,,,,,,,,,,,,,,,,,,,,,,,,,,,,,,,,,,,,,,,,,,,,,,,,,,,,,,,,,,,,,,,,,,,,,,,,,,,,,,,,,,,,,,,,,,,,,,,,,,,,,,,,,,,,,,,,,,,,,,,,,,,,,,
,,697b669444c70e3276dcd49e,2026-03-17_16h18.11.641,kallum_motion_pilot_GIST_update_2,2026.1.1,Win32,60.24096386,697b669444c70e3276dcd49e,69b95efdef24cd8a694e89ee,69b960bde3625aacf89f3c3c,0.9828,0.9828,0,59,59,64,1,onetwo,,,,,,,,,,,,,,,,,,,,,,,,,,,,,,,,,,,,,,,,,,,,,,,,,,,,,,,,,,,,,,,,,,,,,,,,,,,,,,,,,,,,,,,,,,,,,,,,,,,,,,,,,,,,,,,,,,,,,,,,,,,,,,,,,,,,,,,,,
,,697b669444c70e3276dcd49e,2026-03-17_16h18.11.641,kallum_motion_pilot_GIST_update_2,2026.1.1,Win32,60.24096386,697b669444c70e3276dcd49e,69b95efdef24cd8a694e89ee,69b960bde3625aacf89f3c3c,0.9839,0.9839,0,60,60,161,1,fiveseven,,,,,,,,,,,,,,,,,,,,,,,,,,,,,,,,,,,,,,,,,,,,,,,,,,,,,,,,,,,,,,,,,,,,,,,,,,,,,,,,,,,,,,,,,,,,,,,,,,,,,,,,,,,,,,,,,,,,,,,,,,,,,,,,,,,,,,,,,
,,697b669444c70e3276dcd49e,2026-03-17_16h18.11.641,kallum_motion_pilot_GIST_update_2,2026.1.1,Win32,60.24096386,697b669444c70e3276dcd49e,69b95efdef24cd8a694e89ee,69b960bde3625aacf89f3c3c,0.9868,0.9868,0,61,61,149,1,seveneight,,,,,,,,,,,,,,,,,,,,,,,,,,,,,,,,,,,,,,,,,,,,,,,,,,,,,,,,,,,,,,,,,,,,,,,,,,,,,,,,,,,,,,,,,,,,,,,,,,,,,,,,,,,,,,,,,,,,,,,,,,,,,,,,,,,,,,,,,
,,697b669444c70e3276dcd49e,2026-03-17_16h18.11.641,kallum_motion_pilot_GIST_update_2,2026.1.1,Win32,60.24096386,697b669444c70e3276dcd49e,69b95efdef24cd8a694e89ee,69b960bde3625aacf89f3c3c,0.9877,0.9877,0,62,62,7,1,fourthree,,,,,,,,,,,,,,,,,,,,,,,,,,,,,,,,,,,,,,,,,,,,,,,,,,,,,,,,,,,,,,,,,,,,,,,,,,,,,,,,,,,,,,,,,,,,,,,,,,,,,,,,,,,,,,,,,,,,,,,,,,,,,,,,,,,,,,,,,
,,697b669444c70e3276dcd49e,2026-03-17_16h18.11.641,kallum_motion_pilot_GIST_update_2,2026.1.1,Win32,60.24096386,697b669444c70e3276dcd49e,69b95efdef24cd8a694e89ee,69b960bde3625aacf89f3c3c,0.9885,0.9885,0,63,63,127,1,eightseven,,,,,,,,,,,,,,,,,,,,,,,,,,,,,,,,,,,,,,,,,,,,,,,,,,,,,,,,,,,,,,,,,,,,,,,,,,,,,,,,,,,,,,,,,,,,,,,,,,,,,,,,,,,,,,,,,,,,,,,,,,,,,,,,,,,,,,,,,
,,697b669444c70e3276dcd49e,2026-03-17_16h18.11.641,kallum_motion_pilot_GIST_update_2,2026.1.1,Win32,60.24096386,697b669444c70e3276dcd49e,69b95efdef24cd8a694e89ee,69b960bde3625aacf89f3c3c,0.9889,0.9889,0,64,64,108,1,sevenfive,,,,,,,,,,,,,,,,,,,,,,,,,,,,,,,,,,,,,,,,,,,,,,,,,,,,,,,,,,,,,,,,,,,,,,,,,,,,,,,,,,,,,,,,,,,,,,,,,,,,,,,,,,,,,,,,,,,,,,,,,,,,,,,,,,,,,,,,,
,,697b669444c70e3276dcd49e,2026-03-17_16h18.11.641,kallum_motion_pilot_GIST_update_2,2026.1.1,Win32,60.24096386,697b669444c70e3276dcd49e,69b95efdef24cd8a694e89ee,69b960bde3625aacf89f3c3c,0.9893,0.9894,0,65,65,17,1,onethree,,,,,,,,,,,,,,,,,,,,,,,,,,,,,,,,,,,,,,,,,,,,,,,,,,,,,,,,,,,,,,,,,,,,,,,,,,,,,,,,,,,,,,,,,,,,,,,,,,,,,,,,,,,,,,,,,,,,,,,,,,,,,,,,,,,,,,,,,
,,697b669444c70e3276dcd49e,2026-03-17_16h18.11.641,kallum_motion_pilot_GIST_update_2,2026.1.1,Win32,60.24096386,697b669444c70e3276dcd49e,69b95efdef24cd8a694e89ee,69b960bde3625aacf89f3c3c,0.9896,0.9897,0,66,66,95,1,eightseven,,,,,,,,,,,,,,,,,,,,,,,,,,,,,,,,,,,,,,,,,,,,,,,,,,,,,,,,,,,,,,,,,,,,,,,,,,,,,,,,,,,,,,,,,,,,,,,,,,,,,,,,,,,,,,,,,,,,,,,,,,,,,,,,,,,,,,,,,
,,697b669444c70e3276dcd49e,2026-03-17_16h18.11.641,kallum_motion_pilot_GIST_update_2,2026.1.1,Win32,60.24096386,697b669444c70e3276dcd49e,69b95efdef24cd8a694e89ee,69b960bde3625aacf89f3c3c,0.9921,0.9921,0,67,67,115,1,sixeight,,,,,,,,,,,,,,,,,,,,,,,,,,,,,,,,,,,,,,,,,,,,,,,,,,,,,,,,,,,,,,,,,,,,,,,,,,,,,,,,,,,,,,,,,,,,,,,,,,,,,,,,,,,,,,,,,,,,,,,,,,,,,,,,,,,,,,,,,
,,697b669444c70e3276dcd49e,2026-03-17_16h18.11.641,kallum_motion_pilot_GIST_update_2,2026.1.1,Win32,60.24096386,697b669444c70e3276dcd49e,69b95efdef24cd8a694e89ee,69b960bde3625aacf89f3c3c,0.9928,0.9929,0,68,68,150,1,eightsix,,,,,,,,,,,,,,,,,,,,,,,,,,,,,,,,,,,,,,,,,,,,,,,,,,,,,,,,,,,,,,,,,,,,,,,,,,,,,,,,,,,,,,,,,,,,,,,,,,,,,,,,,,,,,,,,,,,,,,,,,,,,,,,,,,,,,,,,,
,,697b669444c70e3276dcd49e,2026-03-17_16h18.11.641,kallum_motion_pilot_GIST_update_2,2026.1.1,Win32,60.24096386,697b669444c70e3276dcd49e,69b95efdef24cd8a694e89ee,69b960bde3625aacf89f3c3c,0.9937,0.9937,0,69,69,103,1,eightseven,,,,,,,,,,,,,,,,,,,,,,,,,,,,,,,,,,,,,,,,,,,,,,,,,,,,,,,,,,,,,,,,,,,,,,,,,,,,,,,,,,,,,,,,,,,,,,,,,,,,,,,,,,,,,,,,,,,,,,,,,,,,,,,,,,,,,,,,,
,,697b669444c70e3276dcd49e,2026-03-17_16h18.11.641,kallum_motion_pilot_GIST_update_2,2026.1.1,Win32,60.24096386,697b669444c70e3276dcd49e,69b95efdef24cd8a694e89ee,69b960bde3625aacf89f3c3c,0.9951,0.9952,0,70,70,139,1,sixeight,,,,,,,,,,,,,,,,,,,,,,,,,,,,,,,,,,,,,,,,,,,,,,,,,,,,,,,,,,,,,,,,,,,,,,,,,,,,,,,,,,,,,,,,,,,,,,,,,,,,,,,,,,,,,,,,,,,,,,,,,,,,,,,,,,,,,,,,,
,,697b669444c70e3276dcd49e,2026-03-17_16h18.11.641,kallum_motion_pilot_GIST_update_2,2026.1.1,Win32,60.24096386,697b669444c70e3276dcd49e,69b95efdef24cd8a694e89ee,69b960bde3625aacf89f3c3c,0.9961,0.9961,0,71,71,82,1,sixfive,,,,,,,,,,,,,,,,,,,,,,,,,,,,,,,,,,,,,,,,,,,,,,,,,,,,,,,,,,,,,,,,,,,,,,,,,,,,,,,,,,,,,,,,,,,,,,,,,,,,,,,,,,,,,,,,,,,,,,,,,,,,,,,,,,,,,,,,,
,,697b669444c70e3276dcd49e,2026-03-17_16h18.11.641,kallum_motion_pilot_GIST_update_2,2026.1.1,Win32,60.24096386,697b669444c70e3276dcd49e,69b95efdef24cd8a694e89ee,69b960bde3625aacf89f3c3c,0.997,0.9972,0,72,72,124,1,sevenfive,,,,,,,,,,,,,,,,,,,,,,,,,,,,,,,,,,,,,,,,,,,,,,,,,,,,,,,,,,,,,,,,,,,,,,,,,,,,,,,,,,,,,,,,,,,,,,,,,,,,,,,,,,,,,,,,,,,,,,,,,,,,,,,,,,,,,,,,,
,,697b669444c70e3276dcd49e,2026-03-17_16h18.11.641,kallum_motion_pilot_GIST_update_2,2026.1.1,Win32,60.24096386,697b669444c70e3276dcd49e,69b95efdef24cd8a694e89ee,69b960bde3625aacf89f3c3c,0.9981,0.9981,0,73,73,112,1,fivesix,,,,,,,,,,,,,,,,,,,,,,,,,,,,,,,,,,,,,,,,,,,,,,,,,,,,,,,,,,,,,,,,,,,,,,,,,,,,,,,,,,,,,,,,,,,,,,,,,,,,,,,,,,,,,,,,,,,,,,,,,,,,,,,,,,,,,,,,,
,,697b669444c70e3276dcd49e,2026-03-17_16h18.11.641,kallum_motion_pilot_GIST_update_2,2026.1.1,Win32,60.24096386,697b669444c70e3276dcd49e,69b95efdef24cd8a694e89ee,69b960bde3625aacf89f3c3c,0.999,0.999,0,74,74,48,1,onetwo,,,,,,,,,,,,,,,,,,,,,,,,,,,,,,,,,,,,,,,,,,,,,,,,,,,,,,,,,,,,,,,,,,,,,,,,,,,,,,,,,,,,,,,,,,,,,,,,,,,,,,,,,,,,,,,,,,,,,,,,,,,,,,,,,,,,,,,,,
,,697b669444c70e3276dcd49e,2026-03-17_16h18.11.641,kallum_motion_pilot_GIST_update_2,2026.1.1,Win32,60.24096386,697b669444c70e3276dcd49e,69b95efdef24cd8a694e89ee,69b960bde3625aacf89f3c3c,1,1,0,75,75,36,1,threeone,,,,,,,,,,,,,,,,,,,,,,,,,,,,,,,,,,,,,,,,,,,,,,,,,,,,,,,,,,,,,,,,,,,,,,,,,,,,,,,,,,,,,,,,,,,,,,,,,,,,,,,,,,,,,,,,,,,,,,,,,,,,,,,,,,,,,,,,,
,,697b669444c70e3276dcd49e,2026-03-17_16h18.11.641,kallum_motion_pilot_GIST_update_2,2026.1.1,Win32,60.24096386,697b669444c70e3276dcd49e,69b95efdef24cd8a694e89ee,69b960bde3625aacf89f3c3c,1.001,1.0011,0,76,76,56,1,onetwo,,,,,,,,,,,,,,,,,,,,,,,,,,,,,,,,,,,,,,,,,,,,,,,,,,,,,,,,,,,,,,,,,,,,,,,,,,,,,,,,,,,,,,,,,,,,,,,,,,,,,,,,,,,,,,,,,,,,,,,,,,,,,,,,,,,,,,,,,
,,697b669444c70e3276dcd49e,2026-03-17_16h18.11.641,kallum_motion_pilot_GIST_update_2,2026.1.1,Win32,60.24096386,697b669444c70e3276dcd49e,69b95efdef24cd8a694e89ee,69b960bde3625aacf89f3c3c,1.0027,1.0035,0,77,77,79,1,eightseven,,,,,,,,,,,,,,,,,,,,,,,,,,,,,,,,,,,,,,,,,,,,,,,,,,,,,,,,,,,,,,,,,,,,,,,,,,,,,,,,,,,,,,,,,,,,,,,,,,,,,,,,,,,,,,,,,,,,,,,,,,,,,,,,,,,,,,,,,
,,697b669444c70e3276dcd49e,2026-03-17_16h18.11.641,kallum_motion_pilot_GIST_update_2,2026.1.1,Win32,60.24096386,697b669444c70e3276dcd49e,69b95efdef24cd8a694e89ee,69b960bde3625aacf89f3c3c,1.0053,1.0054,0,78,78,45,1,threefour,,,,,,,,,,,,,,,,,,,,,,,,,,,,,,,,,,,,,,,,,,,,,,,,,,,,,,,,,,,,,,,,,,,,,,,,,,,,,,,,,,,,,,,,,,,,,,,,,,,,,,,,,,,,,,,,,,,,,,,,,,,,,,,,,,,,,,,,,
,,697b669444c70e3276dcd49e,2026-03-17_16h18.11.641,kallum_motion_pilot_GIST_update_2,2026.1.1,Win32,60.24096386,697b669444c70e3276dcd49e,69b95efdef24cd8a694e89ee,69b960bde3625aacf89f3c3c,1.0064,1.0064,0,79,79,155,1,sixeight,,,,,,,,,,,,,,,,,,,,,,,,,,,,,,,,,,,,,,,,,,,,,,,,,,,,,,,,,,,,,,,,,,,,,,,,,,,,,,,,,,,,,,,,,,,,,,,,,,,,,,,,,,,,,,,,,,,,,,,,,,,,,,,,,,,,,,,,,
,,697b669444c70e3276dcd49e,2026-03-17_16h18.11.641,kallum_motion_pilot_GIST_update_2,2026.1.1,Win32,60.24096386,697b669444c70e3276dcd49e,69b95efdef24cd8a694e89ee,69b960bde3625aacf89f3c3c,1.0073,1.0075,0,80,80,123,1,sixeight,,,,,,,,,,,,,,,,,,,,,,,,,,,,,,,,,,,,,,,,,,,,,,,,,,,,,,,,,,,,,,,,,,,,,,,,,,,,,,,,,,,,,,,,,,,,,,,,,,,,,,,,,,,,,,,,,,,,,,,,,,,,,,,,,,,,,,,,,
,,697b669444c70e3276dcd49e,2026-03-17_16h18.11.641,kallum_motion_pilot_GIST_update_2,2026.1.1,Win32,60.24096386,697b669444c70e3276dcd49e,69b95efdef24cd8a694e89ee,69b960bde3625aacf89f3c3c,1.0084,1.0085,0,81,81,0,1,onetwo,,,,,,,,,,,,,,,,,,,,,,,,,,,,,,,,,,,,,,,,,,,,,,,,,,,,,,,,,,,,,,,,,,,,,,,,,,,,,,,,,,,,,,,,,,,,,,,,,,,,,,,,,,,,,,,,,,,,,,,,,,,,,,,,,,,,,,,,,
,,697b669444c70e3276dcd49e,2026-03-17_16h18.11.641,kallum_motion_pilot_GIST_update_2,2026.1.1,Win32,60.24096386,697b669444c70e3276dcd49e,69b95efdef24cd8a694e89ee,69b960bde3625aacf89f3c3c,1.0095,1.0096,0,82,82,6,1,fourtwo,,,,,,,,,,,,,,,,,,,,,,,,,,,,,,,,,,,,,,,,,,,,,,,,,,,,,,,,,,,,,,,,,,,,,,,,,,,,,,,,,,,,,,,,,,,,,,,,,,,,,,,,,,,,,,,,,,,,,,,,,,,,,,,,,,,,,,,,,
,,697b669444c70e3276dcd49e,2026-03-17_16h18.11.641,kallum_motion_pilot_GIST_update_2,2026.1.1,Win32,60.24096386,697b669444c70e3276dcd49e,69b95efdef24cd8a694e89ee,69b960bde3625aacf89f3c3c,1.0104,1.0105,0,83,83,142,1,eightsix,,,,,,,,,,,,,,,,,,,,,,,,,,,,,,,,,,,,,,,,,,,,,,,,,,,,,,,,,,,,,,,,,,,,,,,,,,,,,,,,,,,,,,,,,,,,,,,,,,,,,,,,,,,,,,,,,,,,,,,,,,,,,,,,,,,,,,,,,
,,697b669444c70e3276dcd49e,2026-03-17_16h18.11.641,kallum_motion_pilot_GIST_update_2,2026.1.1,Win32,60.24096386,697b669444c70e3276dcd49e,69b95efdef24cd8a694e89ee,69b960bde3625aacf89f3c3c,1.0115,1.0116,0,84,84,33,1,onethree,,,,,,,,,,,,,,,,,,,,,,,,,,,,,,,,,,,,,,,,,,,,,,,,,,,,,,,,,,,,,,,,,,,,,,,,,,,,,,,,,,,,,,,,,,,,,,,,,,,,,,,,,,,,,,,,,,,,,,,,,,,,,,,,,,,,,,,,,
,,697b669444c70e3276dcd49e,2026-03-17_16h18.11.641,kallum_motion_pilot_GIST_update_2,2026.1.1,Win32,60.24096386,697b669444c70e3276dcd49e,69b95efdef24cd8a694e89ee,69b960bde3625aacf89f3c3c,1.0125,1.0125,0,85,85,111,1,eightseven,,,,,,,,,,,,,,,,,,,,,,,,,,,,,,,,,,,,,,,,,,,,,,,,,,,,,,,,,,,,,,,,,,,,,,,,,,,,,,,,,,,,,,,,,,,,,,,,,,,,,,,,,,,,,,,,,,,,,,,,,,,,,,,,,,,,,,,,,
,,697b669444c70e3276dcd49e,2026-03-17_16h18.11.641,kallum_motion_pilot_GIST_update_2,2026.1.1,Win32,60.24096386,697b669444c70e3276dcd49e,69b95efdef24cd8a694e89ee,69b960bde3625aacf89f3c3c,1.0136,1.0137,0,86,86,147,1,sixeight,,,,,,,,,,,,,,,,,,,,,,,,,,,,,,,,,,,,,,,,,,,,,,,,,,,,,,,,,,,,,,,,,,,,,,,,,,,,,,,,,,,,,,,,,,,,,,,,,,,,,,,,,,,,,,,,,,,,,,,,,,,,,,,,,,,,,,,,,
,,697b669444c70e3276dcd49e,2026-03-17_16h18.11.641,kallum_motion_pilot_GIST_update_2,2026.1.1,Win32,60.24096386,697b669444c70e3276dcd49e,69b95efdef24cd8a694e89ee,69b960bde3625aacf89f3c3c,1.0148,1.0151,0,87,87,20,1,threeone,,,,,,,,,,,,,,,,,,,,,,,,,,,,,,,,,,,,,,,,,,,,,,,,,,,,,,,,,,,,,,,,,,,,,,,,,,,,,,,,,,,,,,,,,,,,,,,,,,,,,,,,,,,,,,,,,,,,,,,,,,,,,,,,,,,,,,,,,
,,697b669444c70e3276dcd49e,2026-03-17_16h18.11.641,kallum_motion_pilot_GIST_update_2,2026.1.1,Win32,60.24096386,697b669444c70e3276dcd49e,69b95efdef24cd8a694e89ee,69b960bde3625aacf89f3c3c,1.0161,1.0161,0,88,88,28,1,threeone,,,,,,,,,,,,,,,,,,,,,,,,,,,,,,,,,,,,,,,,,,,,,,,,,,,,,,,,,,,,,,,,,,,,,,,,,,,,,,,,,,,,,,,,,,,,,,,,,,,,,,,,,,,,,,,,,,,,,,,,,,,,,,,,,,,,,,,,,
,,697b669444c70e3276dcd49e,2026-03-17_16h18.11.641,kallum_motion_pilot_GIST_update_2,2026.1.1,Win32,60.24096386,697b669444c70e3276dcd49e,69b95efdef24cd8a694e89ee,69b960bde3625aacf89f3c3c,1.0171,1.0173,0,89,89,152,1,fivesix,,,,,,,,,,,,,,,,,,,,,,,,,,,,,,,,,,,,,,,,,,,,,,,,,,,,,,,,,,,,,,,,,,,,,,,,,,,,,,,,,,,,,,,,,,,,,,,,,,,,,,,,,,,,,,,,,,,,,,,,,,,,,,,,,,,,,,,,,
,,697b669444c70e3276dcd49e,2026-03-17_16h18.11.641,kallum_motion_pilot_GIST_update_2,2026.1.1,Win32,60.24096386,697b669444c70e3276dcd49e,69b95efdef24cd8a694e89ee,69b960bde3625aacf89f3c3c,1.0182,1.0182,0,90,90,92,1,sevenfive,,,,,,,,,,,,,,,,,,,,,,,,,,,,,,,,,,,,,,,,,,,,,,,,,,,,,,,,,,,,,,,,,,,,,,,,,,,,,,,,,,,,,,,,,,,,,,,,,,,,,,,,,,,,,,,,,,,,,,,,,,,,,,,,,,,,,,,,,
,,697b669444c70e3276dcd49e,2026-03-17_16h18.11.641,kallum_motion_pilot_GIST_update_2,2026.1.1,Win32,60.24096386,697b669444c70e3276dcd49e,69b95efdef24cd8a694e89ee,69b960bde3625aacf89f3c3c,1.0202,1.0203,0,91,91,68,1,threeone,,,,,,,,,,,,,,,,,,,,,,,,,,,,,,,,,,,,,,,,,,,,,,,,,,,,,,,,,,,,,,,,,,,,,,,,,,,,,,,,,,,,,,,,,,,,,,,,,,,,,,,,,,,,,,,,,,,,,,,,,,,,,,,,,,,,,,,,,
,,697b669444c70e3276dcd49e,2026-03-17_16h18.11.641,kallum_motion_pilot_GIST_update_2,2026.1.1,Win32,60.24096386,697b669444c70e3276dcd49e,69b95efdef24cd8a694e89ee,69b960bde3625aacf89f3c3c,1.0206,1.0207,0,92,92,53,1,threefour,,,,,,,,,,,,,,,,,,,,,,,,,,,,,,,,,,,,,,,,,,,,,,,,,,,,,,,,,,,,,,,,,,,,,,,,,,,,,,,,,,,,,,,,,,,,,,,,,,,,,,,,,,,,,,,,,,,,,,,,,,,,,,,,,,,,,,,,,
,,697b669444c70e3276dcd49e,2026-03-17_16h18.11.641,kallum_motion_pilot_GIST_update_2,2026.1.1,Win32,60.24096386,697b669444c70e3276dcd49e,69b95efdef24cd8a694e89ee,69b960bde3625aacf89f3c3c,1.0211,1.0211,0,93,93,13,1,threefour,,,,,,,,,,,,,,,,,,,,,,,,,,,,,,,,,,,,,,,,,,,,,,,,,,,,,,,,,,,,,,,,,,,,,,,,,,,,,,,,,,,,,,,,,,,,,,,,,,,,,,,,,,,,,,,,,,,,,,,,,,,,,,,,,,,,,,,,,
,,697b669444c70e3276dcd49e,2026-03-17_16h18.11.641,kallum_motion_pilot_GIST_update_2,2026.1.1,Win32,60.24096386,697b669444c70e3276dcd49e,69b95efdef24cd8a694e89ee,69b960bde3625aacf89f3c3c,1.0224,1.0224,0,94,94,117,1,seveneight,,,,,,,,,,,,,,,,,,,,,,,,,,,,,,,,,,,,,,,,,,,,,,,,,,,,,,,,,,,,,,,,,,,,,,,,,,,,,,,,,,,,,,,,,,,,,,,,,,,,,,,,,,,,,,,,,,,,,,,,,,,,,,,,,,,,,,,,,
,,697b669444c70e3276dcd49e,2026-03-17_16h18.11.641,kallum_motion_pilot_GIST_update_2,2026.1.1,Win32,60.24096386,697b669444c70e3276dcd49e,69b95efdef24cd8a694e89ee,69b960bde3625aacf89f3c3c,1.0233,1.0233,0,95,95,98,1,sixfive,,,,,,,,,,,,,,,,,,,,,,,,,,,,,,,,,,,,,,,,,,,,,,,,,,,,,,,,,,,,,,,,,,,,,,,,,,,,,,,,,,,,,,,,,,,,,,,,,,,,,,,,,,,,,,,,,,,,,,,,,,,,,,,,,,,,,,,,,
,,697b669444c70e3276dcd49e,2026-03-17_16h18.11.641,kallum_motion_pilot_GIST_update_2,2026.1.1,Win32,60.24096386,697b669444c70e3276dcd49e,69b95efdef24cd8a694e89ee,69b960bde3625aacf89f3c3c,1.025,1.0252,0,96,96,58,1,twoone,,,,,,,,,,,,,,,,,,,,,,,,,,,,,,,,,,,,,,,,,,,,,,,,,,,,,,,,,,,,,,,,,,,,,,,,,,,,,,,,,,,,,,,,,,,,,,,,,,,,,,,,,,,,,,,,,,,,,,,,,,,,,,,,,,,,,,,,,
,,697b669444c70e3276dcd49e,2026-03-17_16h18.11.641,kallum_motion_pilot_GIST_update_2,2026.1.1,Win32,60.24096386,697b669444c70e3276dcd49e,69b95efdef24cd8a694e89ee,69b960bde3625aacf89f3c3c,1.0261,1.0261,0,97,97,46,1,fourtwo,,,,,,,,,,,,,,,,,,,,,,,,,,,,,,,,,,,,,,,,,,,,,,,,,,,,,,,,,,,,,,,,,,,,,,,,,,,,,,,,,,,,,,,,,,,,,,,,,,,,,,,,,,,,,,,,,,,,,,,,,,,,,,,,,,,,,,,,,
,,697b669444c70e3276dcd49e,2026-03-17_16h18.11.641,kallum_motion_pilot_GIST_update_2,2026.1.1,Win32,60.24096386,697b669444c70e3276dcd49e,69b95efdef24cd8a694e89ee,69b960bde3625aacf89f3c3c,1.0271,1.0273,0,98,98,109,1,seveneight,,,,,,,,,,,,,,,,,,,,,,,,,,,,,,,,,,,,,,,,,,,,,,,,,,,,,,,,,,,,,,,,,,,,,,,,,,,,,,,,,,,,,,,,,,,,,,,,,,,,,,,,,,,,,,,,,,,,,,,,,,,,,,,,,,,,,,,,,
,,697b669444c70e3276dcd49e,2026-03-17_16h18.11.641,kallum_motion_pilot_GIST_update_2,2026.1.1,Win32,60.24096386,697b669444c70e3276dcd49e,69b95efdef24cd8a694e89ee,69b960bde3625aacf89f3c3c,1.0281,1.0282,0,99,99,84,1,sevenfive,,,,,,,,,,,,,,,,,,,,,,,,,,,,,,,,,,,,,,,,,,,,,,,,,,,,,,,,,,,,,,,,,,,,,,,,,,,,,,,,,,,,,,,,,,,,,,,,,,,,,,,,,,,,,,,,,,,,,,,,,,,,,,,,,,,,,,,,,
,,697b669444c70e3276dcd49e,2026-03-17_16h18.11.641,kallum_motion_pilot_GIST_update_2,2026.1.1,Win32,60.24096386,697b669444c70e3276dcd49e,69b95efdef24cd8a694e89ee,69b960bde3625aacf89f3c3c,1.0292,1.0293,0,100,100,94,1,eightsix,,,,,,,,,,,,,,,,,,,,,,,,,,,,,,,,,,,,,,,,,,,,,,,,,,,,,,,,,,,,,,,,,,,,,,,,,,,,,,,,,,,,,,,,,,,,,,,,,,,,,,,,,,,,,,,,,,,,,,,,,,,,,,,,,,,,,,,,,
,,697b669444c70e3276dcd49e,2026-03-17_16h18.11.641,kallum_motion_pilot_GIST_update_2,2026.1.1,Win32,60.24096386,697b669444c70e3276dcd49e,69b95efdef24cd8a694e89ee,69b960bde3625aacf89f3c3c,1.0303,1.0303,0,101,101,131,1,sixeight,,,,,,,,,,,,,,,,,,,,,,,,,,,,,,,,,,,,,,,,,,,,,,,,,,,,,,,,,,,,,,,,,,,,,,,,,,,,,,,,,,,,,,,,,,,,,,,,,,,,,,,,,,,,,,,,,,,,,,,,,,,,,,,,,,,,,,,,,
,,697b669444c70e3276dcd49e,2026-03-17_16h18.11.641,kallum_motion_pilot_GIST_update_2,2026.1.1,Win32,60.24096386,697b669444c70e3276dcd49e,69b95efdef24cd8a694e89ee,69b960bde3625aacf89f3c3c,1.0313,1.0313,0,102,102,99,1,sixeight,,,,,,,,,,,,,,,,,,,,,,,,,,,,,,,,,,,,,,,,,,,,,,,,,,,,,,,,,,,,,,,,,,,,,,,,,,,,,,,,,,,,,,,,,,,,,,,,,,,,,,,,,,,,,,,,,,,,,,,,,,,,,,,,,,,,,,,,,
,,697b669444c70e3276dcd49e,2026-03-17_16h18.11.641,kallum_motion_pilot_GIST_update_2,2026.1.1,Win32,60.24096386,697b669444c70e3276dcd49e,69b95efdef24cd8a694e89ee,69b960bde3625aacf89f3c3c,1.0324,1.0324,0,103,103,34,1,twoone,,,,,,,,,,,,,,,,,,,,,,,,,,,,,,,,,,,,,,,,,,,,,,,,,,,,,,,,,,,,,,,,,,,,,,,,,,,,,,,,,,,,,,,,,,,,,,,,,,,,,,,,,,,,,,,,,,,,,,,,,,,,,,,,,,,,,,,,,
,,697b669444c70e3276dcd49e,2026-03-17_16h18.11.641,kallum_motion_pilot_GIST_update_2,2026.1.1,Win32,60.24096386,697b669444c70e3276dcd49e,69b95efdef24cd8a694e89ee,69b960bde3625aacf89f3c3c,1.0328,1.0329,0,104,104,71,1,fourthree,,,,,,,,,,,,,,,,,,,,,,,,,,,,,,,,,,,,,,,,,,,,,,,,,,,,,,,,,,,,,,,,,,,,,,,,,,,,,,,,,,,,,,,,,,,,,,,,,,,,,,,,,,,,,,,,,,,,,,,,,,,,,,,,,,,,,,,,,
,,697b669444c70e3276dcd49e,2026-03-17_16h18.11.641,kallum_motion_pilot_GIST_update_2,2026.1.1,Win32,60.24096386,697b669444c70e3276dcd49e,69b95efdef24cd8a694e89ee,69b960bde3625aacf89f3c3c,1.0332,1.0332,0,105,105,40,1,onetwo,,,,,,,,,,,,,,,,,,,,,,,,,,,,,,,,,,,,,,,,,,,,,,,,,,,,,,,,,,,,,,,,,,,,,,,,,,,,,,,,,,,,,,,,,,,,,,,,,,,,,,,,,,,,,,,,,,,,,,,,,,,,,,,,,,,,,,,,,
,,697b669444c70e3276dcd49e,2026-03-17_16h18.11.641,kallum_motion_pilot_GIST_update_2,2026.1.1,Win32,60.24096386,697b669444c70e3276dcd49e,69b95efdef24cd8a694e89ee,69b960bde3625aacf89f3c3c,1.0339,1.034,0,106,106,159,1,eightseven,,,,,,,,,,,,,,,,,,,,,,,,,,,,,,,,,,,,,,,,,,,,,,,,,,,,,,,,,,,,,,,,,,,,,,,,,,,,,,,,,,,,,,,,,,,,,,,,,,,,,,,,,,,,,,,,,,,,,,,,,,,,,,,,,,,,,,,,,
,,697b669444c70e3276dcd49e,2026-03-17_16h18.11.641,kallum_motion_pilot_GIST_update_2,2026.1.1,Win32,60.24096386,697b669444c70e3276dcd49e,69b95efdef24cd8a694e89ee,69b960bde3625aacf89f3c3c,1.0369,1.0369,0,107,107,4,1,threeone,,,,,,,,,,,,,,,,,,,,,,,,,,,,,,,,,,,,,,,,,,,,,,,,,,,,,,,,,,,,,,,,,,,,,,,,,,,,,,,,,,,,,,,,,,,,,,,,,,,,,,,,,,,,,,,,,,,,,,,,,,,,,,,,,,,,,,,,,
,,697b669444c70e3276dcd49e,2026-03-17_16h18.11.641,kallum_motion_pilot_GIST_update_2,2026.1.1,Win32,60.24096386,697b669444c70e3276dcd49e,69b95efdef24cd8a694e89ee,69b960bde3625aacf89f3c3c,1.0382,1.0383,0,108,108,153,1,fiveseven,,,,,,,,,,,,,,,,,,,,,,,,,,,,,,,,,,,,,,,,,,,,,,,,,,,,,,,,,,,,,,,,,,,,,,,,,,,,,,,,,,,,,,,,,,,,,,,,,,,,,,,,,,,,,,,,,,,,,,,,,,,,,,,,,,,,,,,,,
,,697b669444c70e3276dcd49e,2026-03-17_16h18.11.641,kallum_motion_pilot_GIST_update_2,2026.1.1,Win32,60.24096386,697b669444c70e3276dcd49e,69b95efdef24cd8a694e89ee,69b960bde3625aacf89f3c3c,1.0404,1.0404,0,109,109,30,1,fourtwo,,,,,,,,,,,,,,,,,,,,,,,,,,,,,,,,,,,,,,,,,,,,,,,,,,,,,,,,,,,,,,,,,,,,,,,,,,,,,,,,,,,,,,,,,,,,,,,,,,,,,,,,,,,,,,,,,,,,,,,,,,,,,,,,,,,,,,,,,
,,697b669444c70e3276dcd49e,2026-03-17_16h18.11.641,kallum_motion_pilot_GIST_update_2,2026.1.1,Win32,60.24096386,697b669444c70e3276dcd49e,69b95efdef24cd8a694e89ee,69b960bde3625aacf89f3c3c,1.0416,1.0416,0,110,110,47,1,fourthree,,,,,,,,,,,,,,,,,,,,,,,,,,,,,,,,,,,,,,,,,,,,,,,,,,,,,,,,,,,,,,,,,,,,,,,,,,,,,,,,,,,,,,,,,,,,,,,,,,,,,,,,,,,,,,,,,,,,,,,,,,,,,,,,,,,,,,,,,
,,697b669444c70e3276dcd49e,2026-03-17_16h18.11.641,kallum_motion_pilot_GIST_update_2,2026.1.1,Win32,60.24096386,697b669444c70e3276dcd49e,69b95efdef24cd8a694e89ee,69b960bde3625aacf89f3c3c,1.0427,1.0429,0,111,111,23,1,fourthree,,,,,,,,,,,,,,,,,,,,,,,,,,,,,,,,,,,,,,,,,,,,,,,,,,,,,,,,,,,,,,,,,,,,,,,,,,,,,,,,,,,,,,,,,,,,,,,,,,,,,,,,,,,,,,,,,,,,,,,,,,,,,,,,,,,,,,,,,
,,697b669444c70e3276dcd49e,2026-03-17_16h18.11.641,kallum_motion_pilot_GIST_update_2,2026.1.1,Win32,60.24096386,697b669444c70e3276dcd49e,69b95efdef24cd8a694e89ee,69b960bde3625aacf89f3c3c,1.0437,1.0437,0,112,112,120,1,fivesix,,,,,,,,,,,,,,,,,,,,,,,,,,,,,,,,,,,,,,,,,,,,,,,,,,,,,,,,,,,,,,,,,,,,,,,,,,,,,,,,,,,,,,,,,,,,,,,,,,,,,,,,,,,,,,,,,,,,,,,,,,,,,,,,,,,,,,,,,
,,697b669444c70e3276dcd49e,2026-03-17_16h18.11.641,kallum_motion_pilot_GIST_update_2,2026.1.1,Win32,60.24096386,697b669444c70e3276dcd49e,69b95efdef24cd8a694e89ee,69b960bde3625aacf89f3c3c,1.0451,1.0451,0,113,113,38,1,fourtwo,,,,,,,,,,,,,,,,,,,,,,,,,,,,,,,,,,,,,,,,,,,,,,,,,,,,,,,,,,,,,,,,,,,,,,,,,,,,,,,,,,,,,,,,,,,,,,,,,,,,,,,,,,,,,,,,,,,,,,,,,,,,,,,,,,,,,,,,,
,,697b669444c70e3276dcd49e,2026-03-17_16h18.11.641,kallum_motion_pilot_GIST_update_2,2026.1.1,Win32,60.24096386,697b669444c70e3276dcd49e,69b95efdef24cd8a694e89ee,69b960bde3625aacf89f3c3c,1.046,1.046,0,114,114,140,1,sevenfive,,,,,,,,,,,,,,,,,,,,,,,,,,,,,,,,,,,,,,,,,,,,,,,,,,,,,,,,,,,,,,,,,,,,,,,,,,,,,,,,,,,,,,,,,,,,,,,,,,,,,,,,,,,,,,,,,,,,,,,,,,,,,,,,,,,,,,,,,
,,697b669444c70e3276dcd49e,2026-03-17_16h18.11.641,kallum_motion_pilot_GIST_update_2,2026.1.1,Win32,60.24096386,697b669444c70e3276dcd49e,69b95efdef24cd8a694e89ee,69b960bde3625aacf89f3c3c,1.0471,1.0471,0,115,115,126,1,eightsix,,,,,,,,,,,,,,,,,,,,,,,,,,,,,,,,,,,,,,,,,,,,,,,,,,,,,,,,,,,,,,,,,,,,,,,,,,,,,,,,,,,,,,,,,,,,,,,,,,,,,,,,,,,,,,,,,,,,,,,,,,,,,,,,,,,,,,,,,
,,697b669444c70e3276dcd49e,2026-03-17_16h18.11.641,kallum_motion_pilot_GIST_update_2,2026.1.1,Win32,60.24096386,697b669444c70e3276dcd49e,69b95efdef24cd8a694e89ee,69b960bde3625aacf89f3c3c,1.0479,1.0479,0,116,116,76,1,threeone,,,,,,,,,,,,,,,,,,,,,,,,,,,,,,,,,,,,,,,,,,,,,,,,,,,,,,,,,,,,,,,,,,,,,,,,,,,,,,,,,,,,,,,,,,,,,,,,,,,,,,,,,,,,,,,,,,,,,,,,,,,,,,,,,,,,,,,,,
,,697b669444c70e3276dcd49e,2026-03-17_16h18.11.641,kallum_motion_pilot_GIST_update_2,2026.1.1,Win32,60.24096386,697b669444c70e3276dcd49e,69b95efdef24cd8a694e89ee,69b960bde3625aacf89f3c3c,1.0487,1.0487,0,117,117,130,1,sixfive,,,,,,,,,,,,,,,,,,,,,,,,,,,,,,,,,,,,,,,,,,,,,,,,,,,,,,,,,,,,,,,,,,,,,,,,,,,,,,,,,,,,,,,,,,,,,,,,,,,,,,,,,,,,,,,,,,,,,,,,,,,,,,,,,,,,,,,,,
,,697b669444c70e3276dcd49e,2026-03-17_16h18.11.641,kallum_motion_pilot_GIST_update_2,2026.1.1,Win32,60.24096386,697b669444c70e3276dcd49e,69b95efdef24cd8a694e89ee,69b960bde3625aacf89f3c3c,1.0496,1.0497,0,118,118,70,1,fourtwo,,,,,,,,,,,,,,,,,,,,,,,,,,,,,,,,,,,,,,,,,,,,,,,,,,,,,,,,,,,,,,,,,,,,,,,,,,,,,,,,,,,,,,,,,,,,,,,,,,,,,,,,,,,,,,,,,,,,,,,,,,,,,,,,,,,,,,,,,
,,697b669444c70e3276dcd49e,2026-03-17_16h18.11.641,kallum_motion_pilot_GIST_update_2,2026.1.1,Win32,60.24096386,697b669444c70e3276dcd49e,69b95efdef24cd8a694e89ee,69b960bde3625aacf89f3c3c,1.0505,1.0507,0,119,119,10,1,twoone,,,,,,,,,,,,,,,,,,,,,,,,,,,,,,,,,,,,,,,,,,,,,,,,,,,,,,,,,,,,,,,,,,,,,,,,,,,,,,,,,,,,,,,,,,,,,,,,,,,,,,,,,,,,,,,,,,,,,,,,,,,,,,,,,,,,,,,,,
,,697b669444c70e3276dcd49e,2026-03-17_16h18.11.641,kallum_motion_pilot_GIST_update_2,2026.1.1,Win32,60.24096386,697b669444c70e3276dcd49e,69b95efdef24cd8a694e89ee,69b960bde3625aacf89f3c3c,1.0515,1.0516,0,120,120,73,1,onethree,,,,,,,,,,,,,,,,,,,,,,,,,,,,,,,,,,,,,,,,,,,,,,,,,,,,,,,,,,,,,,,,,,,,,,,,,,,,,,,,,,,,,,,,,,,,,,,,,,,,,,,,,,,,,,,,,,,,,,,,,,,,,,,,,,,,,,,,,
,,697b669444c70e3276dcd49e,2026-03-17_16h18.11.641,kallum_motion_pilot_GIST_update_2,2026.1.1,Win32,60.24096386,697b669444c70e3276dcd49e,69b95efdef24cd8a694e89ee,69b960bde3625aacf89f3c3c,1.0534,1.0535,0,121,121,52,1,threeone,,,,,,,,,,,,,,,,,,,,,,,,,,,,,,,,,,,,,,,,,,,,,,,,,,,,,,,,,,,,,,,,,,,,,,,,,,,,,,,,,,,,,,,,,,,,,,,,,,,,,,,,,,,,,,,,,,,,,,,,,,,,,,,,,,,,,,,,,
,,697b669444c70e3276dcd49e,2026-03-17_16h18.11.641,kallum_motion_pilot_GIST_update_2,2026.1.1,Win32,60.24096386,697b669444c70e3276dcd49e,69b95efdef24cd8a694e89ee,69b960bde3625aacf89f3c3c,1.054,1.0541,0,122,122,66,1,twoone,,,,,,,,,,,,,,,,,,,,,,,,,,,,,,,,,,,,,,,,,,,,,,,,,,,,,,,,,,,,,,,,,,,,,,,,,,,,,,,,,,,,,,,,,,,,,,,,,,,,,,,,,,,,,,,,,,,,,,,,,,,,,,,,,,,,,,,,,
,,697b669444c70e3276dcd49e,2026-03-17_16h18.11.641,kallum_motion_pilot_GIST_update_2,2026.1.1,Win32,60.24096386,697b669444c70e3276dcd49e,69b95efdef24cd8a694e89ee,69b960bde3625aacf89f3c3c,1.0558,1.0558,0,123,123,96,1,fivesix,,,,,,,,,,,,,,,,,,,,,,,,,,,,,,,,,,,,,,,,,,,,,,,,,,,,,,,,,,,,,,,,,,,,,,,,,,,,,,,,,,,,,,,,,,,,,,,,,,,,,,,,,,,,,,,,,,,,,,,,,,,,,,,,,,,,,,,,,
,,697b669444c70e3276dcd49e,2026-03-17_16h18.11.641,kallum_motion_pilot_GIST_update_2,2026.1.1,Win32,60.24096386,697b669444c70e3276dcd49e,69b95efdef24cd8a694e89ee,69b960bde3625aacf89f3c3c,1.057,1.0571,0,124,124,3,1,twofour,,,,,,,,,,,,,,,,,,,,,,,,,,,,,,,,,,,,,,,,,,,,,,,,,,,,,,,,,,,,,,,,,,,,,,,,,,,,,,,,,,,,,,,,,,,,,,,,,,,,,,,,,,,,,,,,,,,,,,,,,,,,,,,,,,,,,,,,,
,,697b669444c70e3276dcd49e,2026-03-17_16h18.11.641,kallum_motion_pilot_GIST_update_2,2026.1.1,Win32,60.24096386,697b669444c70e3276dcd49e,69b95efdef24cd8a694e89ee,69b960bde3625aacf89f3c3c,1.0579,1.058,0,125,125,81,1,fiveseven,,,,,,,,,,,,,,,,,,,,,,,,,,,,,,,,,,,,,,,,,,,,,,,,,,,,,,,,,,,,,,,,,,,,,,,,,,,,,,,,,,,,,,,,,,,,,,,,,,,,,,,,,,,,,,,,,,,,,,,,,,,,,,,,,,,,,,,,,
,,697b669444c70e3276dcd49e,2026-03-17_16h18.11.641,kallum_motion_pilot_GIST_update_2,2026.1.1,Win32,60.24096386,697b669444c70e3276dcd49e,69b95efdef24cd8a694e89ee,69b960bde3625aacf89f3c3c,1.0587,1.0587,0,126,126,67,1,twofour,,,,,,,,,,,,,,,,,,,,,,,,,,,,,,,,,,,,,,,,,,,,,,,,,,,,,,,,,,,,,,,,,,,,,,,,,,,,,,,,,,,,,,,,,,,,,,,,,,,,,,,,,,,,,,,,,,,,,,,,,,,,,,,,,,,,,,,,,
,,697b669444c70e3276dcd49e,2026-03-17_16h18.11.641,kallum_motion_pilot_GIST_update_2,2026.1.1,Win32,60.24096386,697b669444c70e3276dcd49e,69b95efdef24cd8a694e89ee,69b960bde3625aacf89f3c3c,1.0594,1.0597,0,127,127,14,1,fourtwo,,,,,,,,,,,,,,,,,,,,,,,,,,,,,,,,,,,,,,,,,,,,,,,,,,,,,,,,,,,,,,,,,,,,,,,,,,,,,,,,,,,,,,,,,,,,,,,,,,,,,,,,,,,,,,,,,,,,,,,,,,,,,,,,,,,,,,,,,
,,697b669444c70e3276dcd49e,2026-03-17_16h18.11.641,kallum_motion_pilot_GIST_update_2,2026.1.1,Win32,60.24096386,697b669444c70e3276dcd49e,69b95efdef24cd8a694e89ee,69b960bde3625aacf89f3c3c,1.0604,1.0604,0,128,128,86,1,eightsix,,,,,,,,,,,,,,,,,,,,,,,,,,,,,,,,,,,,,,,,,,,,,,,,,,,,,,,,,,,,,,,,,,,,,,,,,,,,,,,,,,,,,,,,,,,,,,,,,,,,,,,,,,,,,,,,,,,,,,,,,,,,,,,,,,,,,,,,,
,,697b669444c70e3276dcd49e,2026-03-17_16h18.11.641,kallum_motion_pilot_GIST_update_2,2026.1.1,Win32,60.24096386,697b669444c70e3276dcd49e,69b95efdef24cd8a694e89ee,69b960bde3625aacf89f3c3c,1.0614,1.0614,0,129,129,63,1,fourthree,,,,,,,,,,,,,,,,,,,,,,,,,,,,,,,,,,,,,,,,,,,,,,,,,,,,,,,,,,,,,,,,,,,,,,,,,,,,,,,,,,,,,,,,,,,,,,,,,,,,,,,,,,,,,,,,,,,,,,,,,,,,,,,,,,,,,,,,,
,,697b669444c70e3276dcd49e,2026-03-17_16h18.11.641,kallum_motion_pilot_GIST_update_2,2026.1.1,Win32,60.24096386,697b669444c70e3276dcd49e,69b95efdef24cd8a694e89ee,69b960bde3625aacf89f3c3c,1.0623,1.0623,0,130,130,16,1,onetwo,,,,,,,,,,,,,,,,,,,,,,,,,,,,,,,,,,,,,,,,,,,,,,,,,,,,,,,,,,,,,,,,,,,,,,,,,,,,,,,,,,,,,,,,,,,,,,,,,,,,,,,,,,,,,,,,,,,,,,,,,,,,,,,,,,,,,,,,,
,,697b669444c70e3276dcd49e,2026-03-17_16h18.11.641,kallum_motion_pilot_GIST_update_2,2026.1.1,Win32,60.24096386,697b669444c70e3276dcd49e,69b95efdef24cd8a694e89ee,69b960bde3625aacf89f3c3c,1.0637,1.0637,0,131,131,49,1,onethree,,,,,,,,,,,,,,,,,,,,,,,,,,,,,,,,,,,,,,,,,,,,,,,,,,,,,,,,,,,,,,,,,,,,,,,,,,,,,,,,,,,,,,,,,,,,,,,,,,,,,,,,,,,,,,,,,,,,,,,,,,,,,,,,,,,,,,,,,
,,697b669444c70e3276dcd49e,2026-03-17_16h18.11.641,kallum_motion_pilot_GIST_update_2,2026.1.1,Win32,60.24096386,697b669444c70e3276dcd49e,69b95efdef24cd8a694e89ee,69b960bde3625aacf89f3c3c,1.0641,1.0641,0,132,132,136,1,fivesix,,,,,,,,,,,,,,,,,,,,,,,,,,,,,,,,,,,,,,,,,,,,,,,,,,,,,,,,,,,,,,,,,,,,,,,,,,,,,,,,,,,,,,,,,,,,,,,,,,,,,,,,,,,,,,,,,,,,,,,,,,,,,,,,,,,,,,,,,
,,697b669444c70e3276dcd49e,2026-03-17_16h18.11.641,kallum_motion_pilot_GIST_update_2,2026.1.1,Win32,60.24096386,697b669444c70e3276dcd49e,69b95efdef24cd8a694e89ee,69b960bde3625aacf89f3c3c,1.0658,1.0659,0,133,133,18,1,twoone,,,,,,,,,,,,,,,,,,,,,,,,,,,,,,,,,,,,,,,,,,,,,,,,,,,,,,,,,,,,,,,,,,,,,,,,,,,,,,,,,,,,,,,,,,,,,,,,,,,,,,,,,,,,,,,,,,,,,,,,,,,,,,,,,,,,,,,,,
,,697b669444c70e3276dcd49e,2026-03-17_16h18.11.641,kallum_motion_pilot_GIST_update_2,2026.1.1,Win32,60.24096386,697b669444c70e3276dcd49e,69b95efdef24cd8a694e89ee,69b960bde3625aacf89f3c3c,1.0671,1.0672,0,134,134,137,1,fiveseven,,,,,,,,,,,,,,,,,,,,,,,,,,,,,,,,,,,,,,,,,,,,,,,,,,,,,,,,,,,,,,,,,,,,,,,,,,,,,,,,,,,,,,,,,,,,,,,,,,,,,,,,,,,,,,,,,,,,,,,,,,,,,,,,,,,,,,,,,
,,697b669444c70e3276dcd49e,2026-03-17_16h18.11.641,kallum_motion_pilot_GIST_update_2,2026.1.1,Win32,60.24096386,697b669444c70e3276dcd49e,69b95efdef24cd8a694e89ee,69b960bde3625aacf89f3c3c,1.068,1.068,0,135,135,29,1,threefour,,,,,,,,,,,,,,,,,,,,,,,,,,,,,,,,,,,,,,,,,,,,,,,,,,,,,,,,,,,,,,,,,,,,,,,,,,,,,,,,,,,,,,,,,,,,,,,,,,,,,,,,,,,,,,,,,,,,,,,,,,,,,,,,,,,,,,,,,
,,697b669444c70e3276dcd49e,2026-03-17_16h18.11.641,kallum_motion_pilot_GIST_update_2,2026.1.1,Win32,60.24096386,697b669444c70e3276dcd49e,69b95efdef24cd8a694e89ee,69b960bde3625aacf89f3c3c,1.0697,1.0698,0,136,136,93,1,seveneight,,,,,,,,,,,,,,,,,,,,,,,,,,,,,,,,,,,,,,,,,,,,,,,,,,,,,,,,,,,,,,,,,,,,,,,,,,,,,,,,,,,,,,,,,,,,,,,,,,,,,,,,,,,,,,,,,,,,,,,,,,,,,,,,,,,,,,,,,
,,697b669444c70e3276dcd49e,2026-03-17_16h18.11.641,kallum_motion_pilot_GIST_update_2,2026.1.1,Win32,60.24096386,697b669444c70e3276dcd49e,69b95efdef24cd8a694e89ee,69b960bde3625aacf89f3c3c,1.0709,1.071,0,137,137,141,1,seveneight,,,,,,,,,,,,,,,,,,,,,,,,,,,,,,,,,,,,,,,,,,,,,,,,,,,,,,,,,,,,,,,,,,,,,,,,,,,,,,,,,,,,,,,,,,,,,,,,,,,,,,,,,,,,,,,,,,,,,,,,,,,,,,,,,,,,,,,,,
,,697b669444c70e3276dcd49e,2026-03-17_16h18.11.641,kallum_motion_pilot_GIST_update_2,2026.1.1,Win32,60.24096386,697b669444c70e3276dcd49e,69b95efdef24cd8a694e89ee,69b960bde3625aacf89f3c3c,1.0719,1.0719,0,138,138,57,1,onethree,,,,,,,,,,,,,,,,,,,,,,,,,,,,,,,,,,,,,,,,,,,,,,,,,,,,,,,,,,,,,,,,,,,,,,,,,,,,,,,,,,,,,,,,,,,,,,,,,,,,,,,,,,,,,,,,,,,,,,,,,,,,,,,,,,,,,,,,,
,,697b669444c70e3276dcd49e,2026-03-17_16h18.11.641,kallum_motion_pilot_GIST_update_2,2026.1.1,Win32,60.24096386,697b669444c70e3276dcd49e,69b95efdef24cd8a694e89ee,69b960bde3625aacf89f3c3c,1.073,1.0731,0,139,139,133,1,seveneight,,,,,,,,,,,,,,,,,,,,,,,,,,,,,,,,,,,,,,,,,,,,,,,,,,,,,,,,,,,,,,,,,,,,,,,,,,,,,,,,,,,,,,,,,,,,,,,,,,,,,,,,,,,,,,,,,,,,,,,,,,,,,,,,,,,,,,,,,
,,697b669444c70e3276dcd49e,2026-03-17_16h18.11.641,kallum_motion_pilot_GIST_update_2,2026.1.1,Win32,60.24096386,697b669444c70e3276dcd49e,69b95efdef24cd8a694e89ee,69b960bde3625aacf89f3c3c,1.0741,1.0742,0,140,140,135,1,eightseven,,,,,,,,,,,,,,,,,,,,,,,,,,,,,,,,,,,,,,,,,,,,,,,,,,,,,,,,,,,,,,,,,,,,,,,,,,,,,,,,,,,,,,,,,,,,,,,,,,,,,,,,,,,,,,,,,,,,,,,,,,,,,,,,,,,,,,,,,
,,697b669444c70e3276dcd49e,2026-03-17_16h18.11.641,kallum_motion_pilot_GIST_update_2,2026.1.1,Win32,60.24096386,697b669444c70e3276dcd49e,69b95efdef24cd8a694e89ee,69b960bde3625aacf89f3c3c,1.0763,1.0763,0,141,141,158,1,eightsix,,,,,,,,,,,,,,,,,,,,,,,,,,,,,,,,,,,,,,,,,,,,,,,,,,,,,,,,,,,,,,,,,,,,,,,,,,,,,,,,,,,,,,,,,,,,,,,,,,,,,,,,,,,,,,,,,,,,,,,,,,,,,,,,,,,,,,,,,
,,697b669444c70e3276dcd49e,2026-03-17_16h18.11.641,kallum_motion_pilot_GIST_update_2,2026.1.1,Win32,60.24096386,697b669444c70e3276dcd49e,69b95efdef24cd8a694e89ee,69b960bde3625aacf89f3c3c,1.0767,1.0767,0,142,142,8,1,onetwo,,,,,,,,,,,,,,,,,,,,,,,,,,,,,,,,,,,,,,,,,,,,,,,,,,,,,,,,,,,,,,,,,,,,,,,,,,,,,,,,,,,,,,,,,,,,,,,,,,,,,,,,,,,,,,,,,,,,,,,,,,,,,,,,,,,,,,,,,
,,697b669444c70e3276dcd49e,2026-03-17_16h18.11.641,kallum_motion_pilot_GIST_update_2,2026.1.1,Win32,60.24096386,697b669444c70e3276dcd49e,69b95efdef24cd8a694e89ee,69b960bde3625aacf89f3c3c,1.0769,1.0769,0,143,143,44,1,threeone,,,,,,,,,,,,,,,,,,,,,,,,,,,,,,,,,,,,,,,,,,,,,,,,,,,,,,,,,,,,,,,,,,,,,,,,,,,,,,,,,,,,,,,,,,,,,,,,,,,,,,,,,,,,,,,,,,,,,,,,,,,,,,,,,,,,,,,,,
,,697b669444c70e3276dcd49e,2026-03-17_16h18.11.641,kallum_motion_pilot_GIST_update_2,2026.1.1,Win32,60.24096386,697b669444c70e3276dcd49e,69b95efdef24cd8a694e89ee,69b960bde3625aacf89f3c3c,1.0772,1.0772,0,144,144,129,1,fiveseven,,,,,,,,,,,,,,,,,,,,,,,,,,,,,,,,,,,,,,,,,,,,,,,,,,,,,,,,,,,,,,,,,,,,,,,,,,,,,,,,,,,,,,,,,,,,,,,,,,,,,,,,,,,,,,,,,,,,,,,,,,,,,,,,,,,,,,,,,
,,697b669444c70e3276dcd49e,2026-03-17_16h18.11.641,kallum_motion_pilot_GIST_update_2,2026.1.1,Win32,60.24096386,697b669444c70e3276dcd49e,69b95efdef24cd8a694e89ee,69b960bde3625aacf89f3c3c,1.0776,1.0776,0,145,145,26,1,twoone,,,,,,,,,,,,,,,,,,,,,,,,,,,,,,,,,,,,,,,,,,,,,,,,,,,,,,,,,,,,,,,,,,,,,,,,,,,,,,,,,,,,,,,,,,,,,,,,,,,,,,,,,,,,,,,,,,,,,,,,,,,,,,,,,,,,,,,,,
,,697b669444c70e3276dcd49e,2026-03-17_16h18.11.641,kallum_motion_pilot_GIST_update_2,2026.1.1,Win32,60.24096386,697b669444c70e3276dcd49e,69b95efdef24cd8a694e89ee,69b960bde3625aacf89f3c3c,1.0788,1.079,0,146,146,21,1,threefour,,,,,,,,,,,,,,,,,,,,,,,,,,,,,,,,,,,,,,,,,,,,,,,,,,,,,,,,,,,,,,,,,,,,,,,,,,,,,,,,,,,,,,,,,,,,,,,,,,,,,,,,,,,,,,,,,,,,,,,,,,,,,,,,,,,,,,,,,
,,697b669444c70e3276dcd49e,2026-03-17_16h18.11.641,kallum_motion_pilot_GIST_update_2,2026.1.1,Win32,60.24096386,697b669444c70e3276dcd49e,69b95efdef24cd8a694e89ee,69b960bde3625aacf89f3c3c,1.0798,1.0799,0,147,147,1,1,onethree,,,,,,,,,,,,,,,,,,,,,,,,,,,,,,,,,,,,,,,,,,,,,,,,,,,,,,,,,,,,,,,,,,,,,,,,,,,,,,,,,,,,,,,,,,,,,,,,,,,,,,,,,,,,,,,,,,,,,,,,,,,,,,,,,,,,,,,,,
,,697b669444c70e3276dcd49e,2026-03-17_16h18.11.641,kallum_motion_pilot_GIST_update_2,2026.1.1,Win32,60.24096386,697b669444c70e3276dcd49e,69b95efdef24cd8a694e89ee,69b960bde3625aacf89f3c3c,1.0808,1.0808,0,148,148,75,1,twofour,,,,,,,,,,,,,,,,,,,,,,,,,,,,,,,,,,,,,,,,,,,,,,,,,,,,,,,,,,,,,,,,,,,,,,,,,,,,,,,,,,,,,,,,,,,,,,,,,,,,,,,,,,,,,,,,,,,,,,,,,,,,,,,,,,,,,,,,,
,,697b669444c70e3276dcd49e,2026-03-17_16h18.11.641,kallum_motion_pilot_GIST_update_2,2026.1.1,Win32,60.24096386,697b669444c70e3276dcd49e,69b95efdef24cd8a694e89ee,69b960bde3625aacf89f3c3c,1.0819,1.082,0,149,149,22,1,fourtwo,,,,,,,,,,,,,,,,,,,,,,,,,,,,,,,,,,,,,,,,,,,,,,,,,,,,,,,,,,,,,,,,,,,,,,,,,,,,,,,,,,,,,,,,,,,,,,,,,,,,,,,,,,,,,,,,,,,,,,,,,,,,,,,,,,,,,,,,,
,,697b669444c70e3276dcd49e,2026-03-17_16h18.11.641,kallum_motion_pilot_GIST_update_2,2026.1.1,Win32,60.24096386,697b669444c70e3276dcd49e,69b95efdef24cd8a694e89ee,69b960bde3625aacf89f3c3c,1.0829,1.0829,0,150,150,145,1,fiveseven,,,,,,,,,,,,,,,,,,,,,,,,,,,,,,,,,,,,,,,,,,,,,,,,,,,,,,,,,,,,,,,,,,,,,,,,,,,,,,,,,,,,,,,,,,,,,,,,,,,,,,,,,,,,,,,,,,,,,,,,,,,,,,,,,,,,,,,,,
,,697b669444c70e3276dcd49e,2026-03-17_16h18.11.641,kallum_motion_pilot_GIST_update_2,2026.1.1,Win32,60.24096386,697b669444c70e3276dcd49e,69b95efdef24cd8a694e89ee,69b960bde3625aacf89f3c3c,1.0839,1.084,0,151,151,107,1,sixeight,,,,,,,,,,,,,,,,,,,,,,,,,,,,,,,,,,,,,,,,,,,,,,,,,,,,,,,,,,,,,,,,,,,,,,,,,,,,,,,,,,,,,,,,,,,,,,,,,,,,,,,,,,,,,,,,,,,,,,,,,,,,,,,,,,,,,,,,,
,,697b669444c70e3276dcd49e,2026-03-17_16h18.11.641,kallum_motion_pilot_GIST_update_2,2026.1.1,Win32,60.24096386,697b669444c70e3276dcd49e,69b95efdef24cd8a694e89ee,69b960bde3625aacf89f3c3c,1.0875,1.0876,0,152,152,27,1,twofour,,,,,,,,,,,,,,,,,,,,,,,,,,,,,,,,,,,,,,,,,,,,,,,,,,,,,,,,,,,,,,,,,,,,,,,,,,,,,,,,,,,,,,,,,,,,,,,,,,,,,,,,,,,,,,,,,,,,,,,,,,,,,,,,,,,,,,,,,
,,697b669444c70e3276dcd49e,2026-03-17_16h18.11.641,kallum_motion_pilot_GIST_update_2,2026.1.1,Win32,60.24096386,697b669444c70e3276dcd49e,69b95efdef24cd8a694e89ee,69b960bde3625aacf89f3c3c,1.0883,1.0883,0,153,153,104,1,fivesix,,,,,,,,,,,,,,,,,,,,,,,,,,,,,,,,,,,,,,,,,,,,,,,,,,,,,,,,,,,,,,,,,,,,,,,,,,,,,,,,,,,,,,,,,,,,,,,,,,,,,,,,,,,,,,,,,,,,,,,,,,,,,,,,,,,,,,,,,
,,697b669444c70e3276dcd49e,2026-03-17_16h18.11.641,kallum_motion_pilot_GIST_update_2,2026.1.1,Win32,60.24096386,697b669444c70e3276dcd49e,69b95efdef24cd8a694e89ee,69b960bde3625aacf89f3c3c,1.089,1.089,0,154,154,41,1,onethree,,,,,,,,,,,,,,,,,,,,,,,,,,,,,,,,,,,,,,,,,,,,,,,,,,,,,,,,,,,,,,,,,,,,,,,,,,,,,,,,,,,,,,,,,,,,,,,,,,,,,,,,,,,,,,,,,,,,,,,,,,,,,,,,,,,,,,,,,
,,697b669444c70e3276dcd49e,2026-03-17_16h18.11.641,kallum_motion_pilot_GIST_update_2,2026.1.1,Win32,60.24096386,697b669444c70e3276dcd49e,69b95efdef24cd8a694e89ee,69b960bde3625aacf89f3c3c,1.0899,1.0899,0,155,155,160,1,fivesix,,,,,,,,,,,,,,,,,,,,,,,,,,,,,,,,,,,,,,,,,,,,,,,,,,,,,,,,,,,,,,,,,,,,,,,,,,,,,,,,,,,,,,,,,,,,,,,,,,,,,,,,,,,,,,,,,,,,,,,,,,,,,,,,,,,,,,,,,
,,697b669444c70e3276dcd49e,2026-03-17_16h18.11.641,kallum_motion_pilot_GIST_update_2,2026.1.1,Win32,60.24096386,697b669444c70e3276dcd49e,69b95efdef24cd8a694e89ee,69b960bde3625aacf89f3c3c,1.0908,1.0909,0,156,156,12,1,threeone,,,,,,,,,,,,,,,,,,,,,,,,,,,,,,,,,,,,,,,,,,,,,,,,,,,,,,,,,,,,,,,,,,,,,,,,,,,,,,,,,,,,,,,,,,,,,,,,,,,,,,,,,,,,,,,,,,,,,,,,,,,,,,,,,,,,,,,,,
,,697b669444c70e3276dcd49e,2026-03-17_16h18.11.641,kallum_motion_pilot_GIST_update_2,2026.1.1,Win32,60.24096386,697b669444c70e3276dcd49e,69b95efdef24cd8a694e89ee,69b960bde3625aacf89f3c3c,1.0919,1.0919,0,157,157,144,1,fivesix,,,,,,,,,,,,,,,,,,,,,,,,,,,,,,,,,,,,,,,,,,,,,,,,,,,,,,,,,,,,,,,,,,,,,,,,,,,,,,,,,,,,,,,,,,,,,,,,,,,,,,,,,,,,,,,,,,,,,,,,,,,,,,,,,,,,,,,,,
,,697b669444c70e3276dcd49e,2026-03-17_16h18.11.641,kallum_motion_pilot_GIST_update_2,2026.1.1,Win32,60.24096386,697b669444c70e3276dcd49e,69b95efdef24cd8a694e89ee,69b960bde3625aacf89f3c3c,1.0929,1.093,0,158,158,54,1,fourtwo,,,,,,,,,,,,,,,,,,,,,,,,,,,,,,,,,,,,,,,,,,,,,,,,,,,,,,,,,,,,,,,,,,,,,,,,,,,,,,,,,,,,,,,,,,,,,,,,,,,,,,,,,,,,,,,,,,,,,,,,,,,,,,,,,,,,,,,,,
,,697b669444c70e3276dcd49e,2026-03-17_16h18.11.641,kallum_motion_pilot_GIST_update_2,2026.1.1,Win32,60.24096386,697b669444c70e3276dcd49e,69b95efdef24cd8a694e89ee,69b960bde3625aacf89f3c3c,1.0938,1.0939,0,159,159,9,1,onethree,,,,,,,,,,,,,,,,,,,,,,,,,,,,,,,,,,,,,,,,,,,,,,,,,,,,,,,,,,,,,,,,,,,,,,,,,,,,,,,,,,,,,,,,,,,,,,,,,,,,,,,,,,,,,,,,,,,,,,,,,,,,,,,,,,,,,,,,,
,,697b669444c70e3276dcd49e,2026-03-17_16h18.11.641,kallum_motion_pilot_GIST_update_2,2026.1.1,Win32,60.24096386,697b669444c70e3276dcd49e,69b95efdef24cd8a694e89ee,69b960bde3625aacf89f3c3c,1.095,1.0951,0,160,160,72,1,onetwo,,,,,,,,,,,,,,,,,,,,,,,,,,,,,,,,,,,,,,,,,,,,,,,,,,,,,,,,,,,,,,,,,,,,,,,,,,,,,,,,,,,,,,,,,,,,,,,,,,,,,,,,,,,,,,,,,,,,,,,,,,,,,,,,,,,,,,,,,
,,697b669444c70e3276dcd49e,2026-03-17_16h18.11.641,kallum_motion_pilot_GIST_update_2,2026.1.1,Win32,60.24096386,697b669444c70e3276dcd49e,69b95efdef24cd8a694e89ee,69b960bde3625aacf89f3c3c,1.0962,1.0964,0,161,161,114,1,sixfive,,,,,,,,,,,,,,,,,,,,,,,,,,,,,,,,,,,,,,,,,,,,,,,,,,,,,,,,,,,,,,,,,,,,,,,,,,,,,,,,,,,,,,,,,,,,,,,,,,,,,,,,,,,,,,,,,,,,,,,,,,,,,,,,,,,,,,,,,
,,697b669444c70e3276dcd49e,2026-03-17_16h18.11.641,kallum_motion_pilot_GIST_update_2,2026.1.1,Win32,60.24096386,697b669444c70e3276dcd49e,69b95efdef24cd8a694e89ee,69b960bde3625aacf89f3c3c,1.0973,1.0974,1,0,162,14,1,fourtwo,,,,,,,,,,,,,,,,,,,,,,,,,,,,,,,,,,,,,,,,,,,,,,,,,,,,,,,,,,,,,,,,,,,,,,,,,,,,,,,,,,,,,,,,,,,,,,,,,,,,,,,,,,,,,,,,,,,,,,,,,,,,,,,,,,,,,,,,,
,,697b669444c70e3276dcd49e,2026-03-17_16h18.11.641,kallum_motion_pilot_GIST_update_2,2026.1.1,Win32,60.24096386,697b669444c70e3276dcd49e,69b95efdef24cd8a694e89ee,69b960bde3625aacf89f3c3c,1.0981,1.0982,1,1,163,134,1,eightsix,,,,,,,,,,,,,,,,,,,,,,,,,,,,,,,,,,,,,,,,,,,,,,,,,,,,,,,,,,,,,,,,,,,,,,,,,,,,,,,,,,,,,,,,,,,,,,,,,,,,,,,,,,,,,,,,,,,,,,,,,,,,,,,,,,,,,,,,,
,,697b669444c70e3276dcd49e,2026-03-17_16h18.11.641,kallum_motion_pilot_GIST_update_2,2026.1.1,Win32,60.24096386,697b669444c70e3276dcd49e,69b95efdef24cd8a694e89ee,69b960bde3625aacf89f3c3c,1.099,1.099,1,2,164,126,1,eightsix,,,,,,,,,,,,,,,,,,,,,,,,,,,,,,,,,,,,,,,,,,,,,,,,,,,,,,,,,,,,,,,,,,,,,,,,,,,,,,,,,,,,,,,,,,,,,,,,,,,,,,,,,,,,,,,,,,,,,,,,,,,,,,,,,,,,,,,,,
,,697b669444c70e3276dcd49e,2026-03-17_16h18.11.641,kallum_motion_pilot_GIST_update_2,2026.1.1,Win32,60.24096386,697b669444c70e3276dcd49e,69b95efdef24cd8a694e89ee,69b960bde3625aacf89f3c3c,1.0998,1.0999,1,3,165,55,1,fourthree,,,,,,,,,,,,,,,,,,,,,,,,,,,,,,,,,,,,,,,,,,,,,,,,,,,,,,,,,,,,,,,,,,,,,,,,,,,,,,,,,,,,,,,,,,,,,,,,,,,,,,,,,,,,,,,,,,,,,,,,,,,,,,,,,,,,,,,,,
,,697b669444c70e3276dcd49e,2026-03-17_16h18.11.641,kallum_motion_pilot_GIST_update_2,2026.1.1,Win32,60.24096386,697b669444c70e3276dcd49e,69b95efdef24cd8a694e89ee,69b960bde3625aacf89f3c3c,1.1009,1.101,1,4,166,132,1,sevenfive,,,,,,,,,,,,,,,,,,,,,,,,,,,,,,,,,,,,,,,,,,,,,,,,,,,,,,,,,,,,,,,,,,,,,,,,,,,,,,,,,,,,,,,,,,,,,,,,,,,,,,,,,,,,,,,,,,,,,,,,,,,,,,,,,,,,,,,,,
,,697b669444c70e3276dcd49e,2026-03-17_16h18.11.641,kallum_motion_pilot_GIST_update_2,2026.1.1,Win32,60.24096386,697b669444c70e3276dcd49e,69b95efdef24cd8a694e89ee,69b960bde3625aacf89f3c3c,1.1028,1.1031,1,5,167,65,1,onethree,,,,,,,,,,,,,,,,,,,,,,,,,,,,,,,,,,,,,,,,,,,,,,,,,,,,,,,,,,,,,,,,,,,,,,,,,,,,,,,,,,,,,,,,,,,,,,,,,,,,,,,,,,,,,,,,,,,,,,,,,,,,,,,,,,,,,,,,,
,,697b669444c70e3276dcd49e,2026-03-17_16h18.11.641,kallum_motion_pilot_GIST_update_2,2026.1.1,Win32,60.24096386,697b669444c70e3276dcd49e,69b95efdef24cd8a694e89ee,69b960bde3625aacf89f3c3c,1.1043,1.1043,1,6,168,31,1,fourthree,,,,,,,,,,,,,,,,,,,,,,,,,,,,,,,,,,,,,,,,,,,,,,,,,,,,,,,,,,,,,,,,,,,,,,,,,,,,,,,,,,,,,,,,,,,,,,,,,,,,,,,,,,,,,,,,,,,,,,,,,,,,,,,,,,,,,,,,,
,,697b669444c70e3276dcd49e,2026-03-17_16h18.11.641,kallum_motion_pilot_GIST_update_2,2026.1.1,Win32,60.24096386,697b669444c70e3276dcd49e,69b95efdef24cd8a694e89ee,69b960bde3625aacf89f3c3c,1.1057,1.1057,1,7,169,46,1,fourtwo,,,,,,,,,,,,,,,,,,,,,,,,,,,,,,,,,,,,,,,,,,,,,,,,,,,,,,,,,,,,,,,,,,,,,,,,,,,,,,,,,,,,,,,,,,,,,,,,,,,,,,,,,,,,,,,,,,,,,,,,,,,,,,,,,,,,,,,,,
,,697b669444c70e3276dcd49e,2026-03-17_16h18.11.641,kallum_motion_pilot_GIST_update_2,2026.1.1,Win32,60.24096386,697b669444c70e3276dcd49e,69b95efdef24cd8a694e89ee,69b960bde3625aacf89f3c3c,1.1068,1.1068,1,8,170,125,1,seveneight,,,,,,,,,,,,,,,,,,,,,,,,,,,,,,,,,,,,,,,,,,,,,,,,,,,,,,,,,,,,,,,,,,,,,,,,,,,,,,,,,,,,,,,,,,,,,,,,,,,,,,,,,,,,,,,,,,,,,,,,,,,,,,,,,,,,,,,,,
,,697b669444c70e3276dcd49e,2026-03-17_16h18.11.641,kallum_motion_pilot_GIST_update_2,2026.1.1,Win32,60.24096386,697b669444c70e3276dcd49e,69b95efdef24cd8a694e89ee,69b960bde3625aacf89f3c3c,1.1078,1.1079,1,9,171,147,1,sixeight,,,,,,,,,,,,,,,,,,,,,,,,,,,,,,,,,,,,,,,,,,,,,,,,,,,,,,,,,,,,,,,,,,,,,,,,,,,,,,,,,,,,,,,,,,,,,,,,,,,,,,,,,,,,,,,,,,,,,,,,,,,,,,,,,,,,,,,,,
,,697b669444c70e3276dcd49e,2026-03-17_16h18.11.641,kallum_motion_pilot_GIST_update_2,2026.1.1,Win32,60.24096386,697b669444c70e3276dcd49e,69b95efdef24cd8a694e89ee,69b960bde3625aacf89f3c3c,1.1087,1.1087,1,10,172,98,1,sixfive,,,,,,,,,,,,,,,,,,,,,,,,,,,,,,,,,,,,,,,,,,,,,,,,,,,,,,,,,,,,,,,,,,,,,,,,,,,,,,,,,,,,,,,,,,,,,,,,,,,,,,,,,,,,,,,,,,,,,,,,,,,,,,,,,,,,,,,,,
,,697b669444c70e3276dcd49e,2026-03-17_16h18.11.641,kallum_motion_pilot_GIST_update_2,2026.1.1,Win32,60.24096386,697b669444c70e3276dcd49e,69b95efdef24cd8a694e89ee,69b960bde3625aacf89f3c3c,1.1094,1.1094,1,11,173,13,1,threefour,,,,,,,,,,,,,,,,,,,,,,,,,,,,,,,,,,,,,,,,,,,,,,,,,,,,,,,,,,,,,,,,,,,,,,,,,,,,,,,,,,,,,,,,,,,,,,,,,,,,,,,,,,,,,,,,,,,,,,,,,,,,,,,,,,,,,,,,,
,,697b669444c70e3276dcd49e,2026-03-17_16h18.11.641,kallum_motion_pilot_GIST_update_2,2026.1.1,Win32,60.24096386,697b669444c70e3276dcd49e,69b95efdef24cd8a694e89ee,69b960bde3625aacf89f3c3c,1.1104,1.1104,1,12,174,40,1,onetwo,,,,,,,,,,,,,,,,,,,,,,,,,,,,,,,,,,,,,,,,,,,,,,,,,,,,,,,,,,,,,,,,,,,,,,,,,,,,,,,,,,,,,,,,,,,,,,,,,,,,,,,,,,,,,,,,,,,,,,,,,,,,,,,,,,,,,,,,,
,,697b669444c70e3276dcd49e,2026-03-17_16h18.11.641,kallum_motion_pilot_GIST_update_2,2026.1.1,Win32,60.24096386,697b669444c70e3276dcd49e,69b95efdef24cd8a694e89ee,69b960bde3625aacf89f3c3c,1.1114,1.1116,1,13,175,26,1,twoone,,,,,,,,,,,,,,,,,,,,,,,,,,,,,,,,,,,,,,,,,,,,,,,,,,,,,,,,,,,,,,,,,,,,,,,,,,,,,,,,,,,,,,,,,,,,,,,,,,,,,,,,,,,,,,,,,,,,,,,,,,,,,,,,,,,,,,,,,
,,697b669444c70e3276dcd49e,2026-03-17_16h18.11.641,kallum_motion_pilot_GIST_update_2,2026.1.1,Win32,60.24096386,697b669444c70e3276dcd49e,69b95efdef24cd8a694e89ee,69b960bde3625aacf89f3c3c,1.1124,1.1124,1,14,176,16,1,onetwo,,,,,,,,,,,,,,,,,,,,,,,,,,,,,,,,,,,,,,,,,,,,,,,,,,,,,,,,,,,,,,,,,,,,,,,,,,,,,,,,,,,,,,,,,,,,,,,,,,,,,,,,,,,,,,,,,,,,,,,,,,,,,,,,,,,,,,,,,
,,697b669444c70e3276dcd49e,2026-03-17_16h18.11.641,kallum_motion_pilot_GIST_update_2,2026.1.1,Win32,60.24096386,697b669444c70e3276dcd49e,69b95efdef24cd8a694e89ee,69b960bde3625aacf89f3c3c,1.1136,1.1137,1,15,177,158,1,eightsix,,,,,,,,,,,,,,,,,,,,,,,,,,,,,,,,,,,,,,,,,,,,,,,,,,,,,,,,,,,,,,,,,,,,,,,,,,,,,,,,,,,,,,,,,,,,,,,,,,,,,,,,,,,,,,,,,,,,,,,,,,,,,,,,,,,,,,,,,
,,697b669444c70e3276dcd49e,2026-03-17_16h18.11.641,kallum_motion_pilot_GIST_update_2,2026.1.1,Win32,60.24096386,697b669444c70e3276dcd49e,69b95efdef24cd8a694e89ee,69b960bde3625aacf89f3c3c,1.115,1.1152,1,16,178,91,1,sixeight,,,,,,,,,,,,,,,,,,,,,,,,,,,,,,,,,,,,,,,,,,,,,,,,,,,,,,,,,,,,,,,,,,,,,,,,,,,,,,,,,,,,,,,,,,,,,,,,,,,,,,,,,,,,,,,,,,,,,,,,,,,,,,,,,,,,,,,,,
,,697b669444c70e3276dcd49e,2026-03-17_16h18.11.641,kallum_motion_pilot_GIST_update_2,2026.1.1,Win32,60.24096386,697b669444c70e3276dcd49e,69b95efdef24cd8a694e89ee,69b960bde3625aacf89f3c3c,1.116,1.116,1,17,179,142,1,eightsix,,,,,,,,,,,,,,,,,,,,,,,,,,,,,,,,,,,,,,,,,,,,,,,,,,,,,,,,,,,,,,,,,,,,,,,,,,,,,,,,,,,,,,,,,,,,,,,,,,,,,,,,,,,,,,,,,,,,,,,,,,,,,,,,,,,,,,,,,
,,697b669444c70e3276dcd49e,2026-03-17_16h18.11.641,kallum_motion_pilot_GIST_update_2,2026.1.1,Win32,60.24096386,697b669444c70e3276dcd49e,69b95efdef24cd8a694e89ee,69b960bde3625aacf89f3c3c,1.1173,1.1173,1,18,180,78,1,fourtwo,,,,,,,,,,,,,,,,,,,,,,,,,,,,,,,,,,,,,,,,,,,,,,,,,,,,,,,,,,,,,,,,,,,,,,,,,,,,,,,,,,,,,,,,,,,,,,,,,,,,,,,,,,,,,,,,,,,,,,,,,,,,,,,,,,,,,,,,,
,,697b669444c70e3276dcd49e,2026-03-17_16h18.11.641,kallum_motion_pilot_GIST_update_2,2026.1.1,Win32,60.24096386,697b669444c70e3276dcd49e,69b95efdef24cd8a694e89ee,69b960bde3625aacf89f3c3c,1.1197,1.1197,1,19,181,53,1,threefour,,,,,,,,,,,,,,,,,,,,,,,,,,,,,,,,,,,,,,,,,,,,,,,,,,,,,,,,,,,,,,,,,,,,,,,,,,,,,,,,,,,,,,,,,,,,,,,,,,,,,,,,,,,,,,,,,,,,,,,,,,,,,,,,,,,,,,,,,
,,697b669444c70e3276dcd49e,2026-03-17_16h18.11.641,kallum_motion_pilot_GIST_update_2,2026.1.1,Win32,60.24096386,697b669444c70e3276dcd49e,69b95efdef24cd8a694e89ee,69b960bde3625aacf89f3c3c,1.1207,1.1207,1,20,182,137,1,fiveseven,,,,,,,,,,,,,,,,,,,,,,,,,,,,,,,,,,,,,,,,,,,,,,,,,,,,,,,,,,,,,,,,,,,,,,,,,,,,,,,,,,,,,,,,,,,,,,,,,,,,,,,,,,,,,,,,,,,,,,,,,,,,,,,,,,,,,,,,,
,,697b669444c70e3276dcd49e,2026-03-17_16h18.11.641,kallum_motion_pilot_GIST_update_2,2026.1.1,Win32,60.24096386,697b669444c70e3276dcd49e,69b95efdef24cd8a694e89ee,69b960bde3625aacf89f3c3c,1.1218,1.1219,1,21,183,4,1,threeone,,,,,,,,,,,,,,,,,,,,,,,,,,,,,,,,,,,,,,,,,,,,,,,,,,,,,,,,,,,,,,,,,,,,,,,,,,,,,,,,,,,,,,,,,,,,,,,,,,,,,,,,,,,,,,,,,,,,,,,,,,,,,,,,,,,,,,,,,
,,697b669444c70e3276dcd49e,2026-03-17_16h18.11.641,kallum_motion_pilot_GIST_update_2,2026.1.1,Win32,60.24096386,697b669444c70e3276dcd49e,69b95efdef24cd8a694e89ee,69b960bde3625aacf89f3c3c,1.1227,1.1229,1,22,184,7,1,fourthree,,,,,,,,,,,,,,,,,,,,,,,,,,,,,,,,,,,,,,,,,,,,,,,,,,,,,,,,,,,,,,,,,,,,,,,,,,,,,,,,,,,,,,,,,,,,,,,,,,,,,,,,,,,,,,,,,,,,,,,,,,,,,,,,,,,,,,,,,
,,697b669444c70e3276dcd49e,2026-03-17_16h18.11.641,kallum_motion_pilot_GIST_update_2,2026.1.1,Win32,60.24096386,697b669444c70e3276dcd49e,69b95efdef24cd8a694e89ee,69b960bde3625aacf89f3c3c,1.124,1.1241,1,23,185,144,1,fivesix,,,,,,,,,,,,,,,,,,,,,,,,,,,,,,,,,,,,,,,,,,,,,,,,,,,,,,,,,,,,,,,,,,,,,,,,,,,,,,,,,,,,,,,,,,,,,,,,,,,,,,,,,,,,,,,,,,,,,,,,,,,,,,,,,,,,,,,,,
,,697b669444c70e3276dcd49e,2026-03-17_16h18.11.641,kallum_motion_pilot_GIST_update_2,2026.1.1,Win32,60.24096386,697b669444c70e3276dcd49e,69b95efdef24cd8a694e89ee,69b960bde3625aacf89f3c3c,1.1262,1.1264,1,24,186,75,1,twofour,,,,,,,,,,,,,,,,,,,,,,,,,,,,,,,,,,,,,,,,,,,,,,,,,,,,,,,,,,,,,,,,,,,,,,,,,,,,,,,,,,,,,,,,,,,,,,,,,,,,,,,,,,,,,,,,,,,,,,,,,,,,,,,,,,,,,,,,,
,,697b669444c70e3276dcd49e,2026-03-17_16h18.11.641,kallum_motion_pilot_GIST_update_2,2026.1.1,Win32,60.24096386,697b669444c70e3276dcd49e,69b95efdef24cd8a694e89ee,69b960bde3625aacf89f3c3c,1.1272,1.1272,1,25,187,151,1,eightseven,,,,,,,,,,,,,,,,,,,,,,,,,,,,,,,,,,,,,,,,,,,,,,,,,,,,,,,,,,,,,,,,,,,,,,,,,,,,,,,,,,,,,,,,,,,,,,,,,,,,,,,,,,,,,,,,,,,,,,,,,,,,,,,,,,,,,,,,,
,,697b669444c70e3276dcd49e,2026-03-17_16h18.11.641,kallum_motion_pilot_GIST_update_2,2026.1.1,Win32,60.24096386,697b669444c70e3276dcd49e,69b95efdef24cd8a694e89ee,69b960bde3625aacf89f3c3c,1.1276,1.1276,1,26,188,118,1,eightsix,,,,,,,,,,,,,,,,,,,,,,,,,,,,,,,,,,,,,,,,,,,,,,,,,,,,,,,,,,,,,,,,,,,,,,,,,,,,,,,,,,,,,,,,,,,,,,,,,,,,,,,,,,,,,,,,,,,,,,,,,,,,,,,,,,,,,,,,,
,,697b669444c70e3276dcd49e,2026-03-17_16h18.11.641,kallum_motion_pilot_GIST_update_2,2026.1.1,Win32,60.24096386,697b669444c70e3276dcd49e,69b95efdef24cd8a694e89ee,69b960bde3625aacf89f3c3c,1.1284,1.1284,1,27,189,139,1,sixeight,,,,,,,,,,,,,,,,,,,,,,,,,,,,,,,,,,,,,,,,,,,,,,,,,,,,,,,,,,,,,,,,,,,,,,,,,,,,,,,,,,,,,,,,,,,,,,,,,,,,,,,,,,,,,,,,,,,,,,,,,,,,,,,,,,,,,,,,,
,,697b669444c70e3276dcd49e,2026-03-17_16h18.11.641,kallum_motion_pilot_GIST_update_2,2026.1.1,Win32,60.24096386,697b669444c70e3276dcd49e,69b95efdef24cd8a694e89ee,69b960bde3625aacf89f3c3c,1.1291,1.1291,1,28,190,153,1,fiveseven,,,,,,,,,,,,,,,,,,,,,,,,,,,,,,,,,,,,,,,,,,,,,,,,,,,,,,,,,,,,,,,,,,,,,,,,,,,,,,,,,,,,,,,,,,,,,,,,,,,,,,,,,,,,,,,,,,,,,,,,,,,,,,,,,,,,,,,,,
,,697b669444c70e3276dcd49e,2026-03-17_16h18.11.641,kallum_motion_pilot_GIST_update_2,2026.1.1,Win32,60.24096386,697b669444c70e3276dcd49e,69b95efdef24cd8a694e89ee,69b960bde3625aacf89f3c3c,1.1299,1.1299,1,29,191,115,1,sixeight,,,,,,,,,,,,,,,,,,,,,,,,,,,,,,,,,,,,,,,,,,,,,,,,,,,,,,,,,,,,,,,,,,,,,,,,,,,,,,,,,,,,,,,,,,,,,,,,,,,,,,,,,,,,,,,,,,,,,,,,,,,,,,,,,,,,,,,,,
,,697b669444c70e3276dcd49e,2026-03-17_16h18.11.641,kallum_motion_pilot_GIST_update_2,2026.1.1,Win32,60.24096386,697b669444c70e3276dcd49e,69b95efdef24cd8a694e89ee,69b960bde3625aacf89f3c3c,1.1307,1.1308,1,30,192,39,1,fourthree,,,,,,,,,,,,,,,,,,,,,,,,,,,,,,,,,,,,,,,,,,,,,,,,,,,,,,,,,,,,,,,,,,,,,,,,,,,,,,,,,,,,,,,,,,,,,,,,,,,,,,,,,,,,,,,,,,,,,,,,,,,,,,,,,,,,,,,,,
,,697b669444c70e3276dcd49e,2026-03-17_16h18.11.641,kallum_motion_pilot_GIST_update_2,2026.1.1,Win32,60.24096386,697b669444c70e3276dcd49e,69b95efdef24cd8a694e89ee,69b960bde3625aacf89f3c3c,1.1313,1.1313,1,31,193,143,1,eightseven,,,,,,,,,,,,,,,,,,,,,,,,,,,,,,,,,,,,,,,,,,,,,,,,,,,,,,,,,,,,,,,,,,,,,,,,,,,,,,,,,,,,,,,,,,,,,,,,,,,,,,,,,,,,,,,,,,,,,,,,,,,,,,,,,,,,,,,,,
,,697b669444c70e3276dcd49e,2026-03-17_16h18.11.641,kallum_motion_pilot_GIST_update_2,2026.1.1,Win32,60.24096386,697b669444c70e3276dcd49e,69b95efdef24cd8a694e89ee,69b960bde3625aacf89f3c3c,1.1329,1.133,1,32,194,83,1,sixeight,,,,,,,,,,,,,,,,,,,,,,,,,,,,,,,,,,,,,,,,,,,,,,,,,,,,,,,,,,,,,,,,,,,,,,,,,,,,,,,,,,,,,,,,,,,,,,,,,,,,,,,,,,,,,,,,,,,,,,,,,,,,,,,,,,,,,,,,,
,,697b669444c70e3276dcd49e,2026-03-17_16h18.11.641,kallum_motion_pilot_GIST_update_2,2026.1.1,Win32,60.24096386,697b669444c70e3276dcd49e,69b95efdef24cd8a694e89ee,69b960bde3625aacf89f3c3c,1.1341,1.1341,1,33,195,148,1,sevenfive,,,,,,,,,,,,,,,,,,,,,,,,,,,,,,,,,,,,,,,,,,,,,,,,,,,,,,,,,,,,,,,,,,,,,,,,,,,,,,,,,,,,,,,,,,,,,,,,,,,,,,,,,,,,,,,,,,,,,,,,,,,,,,,,,,,,,,,,,
,,697b669444c70e3276dcd49e,2026-03-17_16h18.11.641,kallum_motion_pilot_GIST_update_2,2026.1.1,Win32,60.24096386,697b669444c70e3276dcd49e,69b95efdef24cd8a694e89ee,69b960bde3625aacf89f3c3c,1.1378,1.1379,1,34,196,42,1,twoone,,,,,,,,,,,,,,,,,,,,,,,,,,,,,,,,,,,,,,,,,,,,,,,,,,,,,,,,,,,,,,,,,,,,,,,,,,,,,,,,,,,,,,,,,,,,,,,,,,,,,,,,,,,,,,,,,,,,,,,,,,,,,,,,,,,,,,,,,
,,697b669444c70e3276dcd49e,2026-03-17_16h18.11.641,kallum_motion_pilot_GIST_update_2,2026.1.1,Win32,60.24096386,697b669444c70e3276dcd49e,69b95efdef24cd8a694e89ee,69b960bde3625aacf89f3c3c,1.139,1.1391,1,35,197,111,1,eightseven,,,,,,,,,,,,,,,,,,,,,,,,,,,,,,,,,,,,,,,,,,,,,,,,,,,,,,,,,,,,,,,,,,,,,,,,,,,,,,,,,,,,,,,,,,,,,,,,,,,,,,,,,,,,,,,,,,,,,,,,,,,,,,,,,,,,,,,,,
,,697b669444c70e3276dcd49e,2026-03-17_16h18.11.641,kallum_motion_pilot_GIST_update_2,2026.1.1,Win32,60.24096386,697b669444c70e3276dcd49e,69b95efdef24cd8a694e89ee,69b960bde3625aacf89f3c3c,1.1399,1.14,1,36,198,160,1,fivesix,,,,,,,,,,,,,,,,,,,,,,,,,,,,,,,,,,,,,,,,,,,,,,,,,,,,,,,,,,,,,,,,,,,,,,,,,,,,,,,,,,,,,,,,,,,,,,,,,,,,,,,,,,,,,,,,,,,,,,,,,,,,,,,,,,,,,,,,,
,,697b669444c70e3276dcd49e,2026-03-17_16h18.11.641,kallum_motion_pilot_GIST_update_2,2026.1.1,Win32,60.24096386,697b669444c70e3276dcd49e,69b95efdef24cd8a694e89ee,69b960bde3625aacf89f3c3c,1.1409,1.1411,1,37,199,114,1,sixfive,,,,,,,,,,,,,,,,,,,,,,,,,,,,,,,,,,,,,,,,,,,,,,,,,,,,,,,,,,,,,,,,,,,,,,,,,,,,,,,,,,,,,,,,,,,,,,,,,,,,,,,,,,,,,,,,,,,,,,,,,,,,,,,,,,,,,,,,,
,,697b669444c70e3276dcd49e,2026-03-17_16h18.11.641,kallum_motion_pilot_GIST_update_2,2026.1.1,Win32,60.24096386,697b669444c70e3276dcd49e,69b95efdef24cd8a694e89ee,69b960bde3625aacf89f3c3c,1.1422,1.1423,1,38,200,32,1,onetwo,,,,,,,,,,,,,,,,,,,,,,,,,,,,,,,,,,,,,,,,,,,,,,,,,,,,,,,,,,,,,,,,,,,,,,,,,,,,,,,,,,,,,,,,,,,,,,,,,,,,,,,,,,,,,,,,,,,,,,,,,,,,,,,,,,,,,,,,,
,,697b669444c70e3276dcd49e,2026-03-17_16h18.11.641,kallum_motion_pilot_GIST_update_2,2026.1.1,Win32,60.24096386,697b669444c70e3276dcd49e,69b95efdef24cd8a694e89ee,69b960bde3625aacf89f3c3c,1.1432,1.1434,1,39,201,59,1,twofour,,,,,,,,,,,,,,,,,,,,,,,,,,,,,,,,,,,,,,,,,,,,,,,,,,,,,,,,,,,,,,,,,,,,,,,,,,,,,,,,,,,,,,,,,,,,,,,,,,,,,,,,,,,,,,,,,,,,,,,,,,,,,,,,,,,,,,,,,
,,697b669444c70e3276dcd49e,2026-03-17_16h18.11.641,kallum_motion_pilot_GIST_update_2,2026.1.1,Win32,60.24096386,697b669444c70e3276dcd49e,69b95efdef24cd8a694e89ee,69b960bde3625aacf89f3c3c,1.1452,1.1453,1,40,202,41,1,onethree,,,,,,,,,,,,,,,,,,,,,,,,,,,,,,,,,,,,,,,,,,,,,,,,,,,,,,,,,,,,,,,,,,,,,,,,,,,,,,,,,,,,,,,,,,,,,,,,,,,,,,,,,,,,,,,,,,,,,,,,,,,,,,,,,,,,,,,,,
,,697b669444c70e3276dcd49e,2026-03-17_16h18.11.641,kallum_motion_pilot_GIST_update_2,2026.1.1,Win32,60.24096386,697b669444c70e3276dcd49e,69b95efdef24cd8a694e89ee,69b960bde3625aacf89f3c3c,1.146,1.146,1,41,203,84,1,sevenfive,,,,,,,,,,,,,,,,,,,,,,,,,,,,,,,,,,,,,,,,,,,,,,,,,,,,,,,,,,,,,,,,,,,,,,,,,,,,,,,,,,,,,,,,,,,,,,,,,,,,,,,,,,,,,,,,,,,,,,,,,,,,,,,,,,,,,,,,,
,,697b669444c70e3276dcd49e,2026-03-17_16h18.11.641,kallum_motion_pilot_GIST_update_2,2026.1.1,Win32,60.24096386,697b669444c70e3276dcd49e,69b95efdef24cd8a694e89ee,69b960bde3625aacf89f3c3c,1.147,1.1472,1,42,204,141,1,seveneight,,,,,,,,,,,,,,,,,,,,,,,,,,,,,,,,,,,,,,,,,,,,,,,,,,,,,,,,,,,,,,,,,,,,,,,,,,,,,,,,,,,,,,,,,,,,,,,,,,,,,,,,,,,,,,,,,,,,,,,,,,,,,,,,,,,,,,,,,
,,697b669444c70e3276dcd49e,2026-03-17_16h18.11.641,kallum_motion_pilot_GIST_update_2,2026.1.1,Win32,60.24096386,697b669444c70e3276dcd49e,69b95efdef24cd8a694e89ee,69b960bde3625aacf89f3c3c,1.1481,1.1483,1,43,205,92,1,sevenfive,,,,,,,,,,,,,,,,,,,,,,,,,,,,,,,,,,,,,,,,,,,,,,,,,,,,,,,,,,,,,,,,,,,,,,,,,,,,,,,,,,,,,,,,,,,,,,,,,,,,,,,,,,,,,,,,,,,,,,,,,,,,,,,,,,,,,,,,,
,,697b669444c70e3276dcd49e,2026-03-17_16h18.11.641,kallum_motion_pilot_GIST_update_2,2026.1.1,Win32,60.24096386,697b669444c70e3276dcd49e,69b95efdef24cd8a694e89ee,69b960bde3625aacf89f3c3c,1.1492,1.1492,1,44,206,63,1,fourthree,,,,,,,,,,,,,,,,,,,,,,,,,,,,,,,,,,,,,,,,,,,,,,,,,,,,,,,,,,,,,,,,,,,,,,,,,,,,,,,,,,,,,,,,,,,,,,,,,,,,,,,,,,,,,,,,,,,,,,,,,,,,,,,,,,,,,,,,,
,,697b669444c70e3276dcd49e,2026-03-17_16h18.11.641,kallum_motion_pilot_GIST_update_2,2026.1.1,Win32,60.24096386,697b669444c70e3276dcd49e,69b95efdef24cd8a694e89ee,69b960bde3625aacf89f3c3c,1.1503,1.1503,1,45,207,29,1,threefour,,,,,,,,,,,,,,,,,,,,,,,,,,,,,,,,,,,,,,,,,,,,,,,,,,,,,,,,,,,,,,,,,,,,,,,,,,,,,,,,,,,,,,,,,,,,,,,,,,,,,,,,,,,,,,,,,,,,,,,,,,,,,,,,,,,,,,,,,
,,697b669444c70e3276dcd49e,2026-03-17_16h18.11.641,kallum_motion_pilot_GIST_update_2,2026.1.1,Win32,60.24096386,697b669444c70e3276dcd49e,69b95efdef24cd8a694e89ee,69b960bde3625aacf89f3c3c,1.1515,1.1516,1,46,208,77,1,threefour,,,,,,,,,,,,,,,,,,,,,,,,,,,,,,,,,,,,,,,,,,,,,,,,,,,,,,,,,,,,,,,,,,,,,,,,,,,,,,,,,,,,,,,,,,,,,,,,,,,,,,,,,,,,,,,,,,,,,,,,,,,,,,,,,,,,,,,,,
,,697b669444c70e3276dcd49e,2026-03-17_16h18.11.641,kallum_motion_pilot_GIST_update_2,2026.1.1,Win32,60.24096386,697b669444c70e3276dcd49e,69b95efdef24cd8a694e89ee,69b960bde3625aacf89f3c3c,1.1537,1.1537,1,47,209,64,1,onetwo,,,,,,,,,,,,,,,,,,,,,,,,,,,,,,,,,,,,,,,,,,,,,,,,,,,,,,,,,,,,,,,,,,,,,,,,,,,,,,,,,,,,,,,,,,,,,,,,,,,,,,,,,,,,,,,,,,,,,,,,,,,,,,,,,,,,,,,,,
,,697b669444c70e3276dcd49e,2026-03-17_16h18.11.641,kallum_motion_pilot_GIST_update_2,2026.1.1,Win32,60.24096386,697b669444c70e3276dcd49e,69b95efdef24cd8a694e89ee,69b960bde3625aacf89f3c3c,1.1564,1.1564,1,48,210,101,1,seveneight,,,,,,,,,,,,,,,,,,,,,,,,,,,,,,,,,,,,,,,,,,,,,,,,,,,,,,,,,,,,,,,,,,,,,,,,,,,,,,,,,,,,,,,,,,,,,,,,,,,,,,,,,,,,,,,,,,,,,,,,,,,,,,,,,,,,,,,,,
,,697b669444c70e3276dcd49e,2026-03-17_16h18.11.641,kallum_motion_pilot_GIST_update_2,2026.1.1,Win32,60.24096386,697b669444c70e3276dcd49e,69b95efdef24cd8a694e89ee,69b960bde3625aacf89f3c3c,1.1584,1.1584,1,49,211,109,1,seveneight,,,,,,,,,,,,,,,,,,,,,,,,,,,,,,,,,,,,,,,,,,,,,,,,,,,,,,,,,,,,,,,,,,,,,,,,,,,,,,,,,,,,,,,,,,,,,,,,,,,,,,,,,,,,,,,,,,,,,,,,,,,,,,,,,,,,,,,,,
,,697b669444c70e3276dcd49e,2026-03-17_16h18.11.641,kallum_motion_pilot_GIST_update_2,2026.1.1,Win32,60.24096386,697b669444c70e3276dcd49e,69b95efdef24cd8a694e89ee,69b960bde3625aacf89f3c3c,1.1592,1.1593,1,50,212,107,1,sixeight,,,,,,,,,,,,,,,,,,,,,,,,,,,,,,,,,,,,,,,,,,,,,,,,,,,,,,,,,,,,,,,,,,,,,,,,,,,,,,,,,,,,,,,,,,,,,,,,,,,,,,,,,,,,,,,,,,,,,,,,,,,,,,,,,,,,,,,,,
,,697b669444c70e3276dcd49e,2026-03-17_16h18.11.641,kallum_motion_pilot_GIST_update_2,2026.1.1,Win32,60.24096386,697b669444c70e3276dcd49e,69b95efdef24cd8a694e89ee,69b960bde3625aacf89f3c3c,1.16,1.1601,1,51,213,44,1,threeone,,,,,,,,,,,,,,,,,,,,,,,,,,,,,,,,,,,,,,,,,,,,,,,,,,,,,,,,,,,,,,,,,,,,,,,,,,,,,,,,,,,,,,,,,,,,,,,,,,,,,,,,,,,,,,,,,,,,,,,,,,,,,,,,,,,,,,,,,
,,697b669444c70e3276dcd49e,2026-03-17_16h18.11.641,kallum_motion_pilot_GIST_update_2,2026.1.1,Win32,60.24096386,697b669444c70e3276dcd49e,69b95efdef24cd8a694e89ee,69b960bde3625aacf89f3c3c,1.1608,1.161,1,52,214,82,1,sixfive,,,,,,,,,,,,,,,,,,,,,,,,,,,,,,,,,,,,,,,,,,,,,,,,,,,,,,,,,,,,,,,,,,,,,,,,,,,,,,,,,,,,,,,,,,,,,,,,,,,,,,,,,,,,,,,,,,,,,,,,,,,,,,,,,,,,,,,,,
,,697b669444c70e3276dcd49e,2026-03-17_16h18.11.641,kallum_motion_pilot_GIST_update_2,2026.1.1,Win32,60.24096386,697b669444c70e3276dcd49e,69b95efdef24cd8a694e89ee,69b960bde3625aacf89f3c3c,1.1621,1.1622,1,53,215,102,1,eightsix,,,,,,,,,,,,,,,,,,,,,,,,,,,,,,,,,,,,,,,,,,,,,,,,,,,,,,,,,,,,,,,,,,,,,,,,,,,,,,,,,,,,,,,,,,,,,,,,,,,,,,,,,,,,,,,,,,,,,,,,,,,,,,,,,,,,,,,,,
,,697b669444c70e3276dcd49e,2026-03-17_16h18.11.641,kallum_motion_pilot_GIST_update_2,2026.1.1,Win32,60.24096386,697b669444c70e3276dcd49e,69b95efdef24cd8a694e89ee,69b960bde3625aacf89f3c3c,1.1632,1.1632,1,54,216,19,1,twofour,,,,,,,,,,,,,,,,,,,,,,,,,,,,,,,,,,,,,,,,,,,,,,,,,,,,,,,,,,,,,,,,,,,,,,,,,,,,,,,,,,,,,,,,,,,,,,,,,,,,,,,,,,,,,,,,,,,,,,,,,,,,,,,,,,,,,,,,,
,,697b669444c70e3276dcd49e,2026-03-17_16h18.11.641,kallum_motion_pilot_GIST_update_2,2026.1.1,Win32,60.24096386,697b669444c70e3276dcd49e,69b95efdef24cd8a694e89ee,69b960bde3625aacf89f3c3c,1.1656,1.1656,1,55,217,58,1,twoone,,,,,,,,,,,,,,,,,,,,,,,,,,,,,,,,,,,,,,,,,,,,,,,,,,,,,,,,,,,,,,,,,,,,,,,,,,,,,,,,,,,,,,,,,,,,,,,,,,,,,,,,,,,,,,,,,,,,,,,,,,,,,,,,,,,,,,,,,
,,697b669444c70e3276dcd49e,2026-03-17_16h18.11.641,kallum_motion_pilot_GIST_update_2,2026.1.1,Win32,60.24096386,697b669444c70e3276dcd49e,69b95efdef24cd8a694e89ee,69b960bde3625aacf89f3c3c,1.167,1.1671,1,56,218,49,1,onethree,,,,,,,,,,,,,,,,,,,,,,,,,,,,,,,,,,,,,,,,,,,,,,,,,,,,,,,,,,,,,,,,,,,,,,,,,,,,,,,,,,,,,,,,,,,,,,,,,,,,,,,,,,,,,,,,,,,,,,,,,,,,,,,,,,,,,,,,,
,,697b669444c70e3276dcd49e,2026-03-17_16h18.11.641,kallum_motion_pilot_GIST_update_2,2026.1.1,Win32,60.24096386,697b669444c70e3276dcd49e,69b95efdef24cd8a694e89ee,69b960bde3625aacf89f3c3c,1.1692,1.1695,1,57,219,94,1,eightsix,,,,,,,,,,,,,,,,,,,,,,,,,,,,,,,,,,,,,,,,,,,,,,,,,,,,,,,,,,,,,,,,,,,,,,,,,,,,,,,,,,,,,,,,,,,,,,,,,,,,,,,,,,,,,,,,,,,,,,,,,,,,,,,,,,,,,,,,,
,,697b669444c70e3276dcd49e,2026-03-17_16h18.11.641,kallum_motion_pilot_GIST_update_2,2026.1.1,Win32,60.24096386,697b669444c70e3276dcd49e,69b95efdef24cd8a694e89ee,69b960bde3625aacf89f3c3c,1.1702,1.1703,1,58,220,5,1,threefour,,,,,,,,,,,,,,,,,,,,,,,,,,,,,,,,,,,,,,,,,,,,,,,,,,,,,,,,,,,,,,,,,,,,,,,,,,,,,,,,,,,,,,,,,,,,,,,,,,,,,,,,,,,,,,,,,,,,,,,,,,,,,,,,,,,,,,,,,
,,697b669444c70e3276dcd49e,2026-03-17_16h18.11.641,kallum_motion_pilot_GIST_update_2,2026.1.1,Win32,60.24096386,697b669444c70e3276dcd49e,69b95efdef24cd8a694e89ee,69b960bde3625aacf89f3c3c,1.1711,1.1711,1,59,221,106,1,sixfive,,,,,,,,,,,,,,,,,,,,,,,,,,,,,,,,,,,,,,,,,,,,,,,,,,,,,,,,,,,,,,,,,,,,,,,,,,,,,,,,,,,,,,,,,,,,,,,,,,,,,,,,,,,,,,,,,,,,,,,,,,,,,,,,,,,,,,,,,
,,697b669444c70e3276dcd49e,2026-03-17_16h18.11.641,kallum_motion_pilot_GIST_update_2,2026.1.1,Win32,60.24096386,697b669444c70e3276dcd49e,69b95efdef24cd8a694e89ee,69b960bde3625aacf89f3c3c,1.1721,1.1721,1,60,222,48,1,onetwo,,,,,,,,,,,,,,,,,,,,,,,,,,,,,,,,,,,,,,,,,,,,,,,,,,,,,,,,,,,,,,,,,,,,,,,,,,,,,,,,,,,,,,,,,,,,,,,,,,,,,,,,,,,,,,,,,,,,,,,,,,,,,,,,,,,,,,,,,
,,697b669444c70e3276dcd49e,2026-03-17_16h18.11.641,kallum_motion_pilot_GIST_update_2,2026.1.1,Win32,60.24096386,697b669444c70e3276dcd49e,69b95efdef24cd8a694e89ee,69b960bde3625aacf89f3c3c,1.1731,1.1733,1,61,223,30,1,fourtwo,,,,,,,,,,,,,,,,,,,,,,,,,,,,,,,,,,,,,,,,,,,,,,,,,,,,,,,,,,,,,,,,,,,,,,,,,,,,,,,,,,,,,,,,,,,,,,,,,,,,,,,,,,,,,,,,,,,,,,,,,,,,,,,,,,,,,,,,,
,,697b669444c70e3276dcd49e,2026-03-17_16h18.11.641,kallum_motion_pilot_GIST_update_2,2026.1.1,Win32,60.24096386,697b669444c70e3276dcd49e,69b95efdef24cd8a694e89ee,69b960bde3625aacf89f3c3c,1.1758,1.1758,1,62,224,116,1,sevenfive,,,,,,,,,,,,,,,,,,,,,,,,,,,,,,,,,,,,,,,,,,,,,,,,,,,,,,,,,,,,,,,,,,,,,,,,,,,,,,,,,,,,,,,,,,,,,,,,,,,,,,,,,,,,,,,,,,,,,,,,,,,,,,,,,,,,,,,,,
,,697b669444c70e3276dcd49e,2026-03-17_16h18.11.641,kallum_motion_pilot_GIST_update_2,2026.1.1,Win32,60.24096386,697b669444c70e3276dcd49e,69b95efdef24cd8a694e89ee,69b960bde3625aacf89f3c3c,1.1768,1.1769,1,63,225,67,1,twofour,,,,,,,,,,,,,,,,,,,,,,,,,,,,,,,,,,,,,,,,,,,,,,,,,,,,,,,,,,,,,,,,,,,,,,,,,,,,,,,,,,,,,,,,,,,,,,,,,,,,,,,,,,,,,,,,,,,,,,,,,,,,,,,,,,,,,,,,,
,,697b669444c70e3276dcd49e,2026-03-17_16h18.11.641,kallum_motion_pilot_GIST_update_2,2026.1.1,Win32,60.24096386,697b669444c70e3276dcd49e,69b95efdef24cd8a694e89ee,69b960bde3625aacf89f3c3c,1.1779,1.1779,1,64,226,155,1,sixeight,,,,,,,,,,,,,,,,,,,,,,,,,,,,,,,,,,,,,,,,,,,,,,,,,,,,,,,,,,,,,,,,,,,,,,,,,,,,,,,,,,,,,,,,,,,,,,,,,,,,,,,,,,,,,,,,,,,,,,,,,,,,,,,,,,,,,,,,,
,,697b669444c70e3276dcd49e,2026-03-17_16h18.11.641,kallum_motion_pilot_GIST_update_2,2026.1.1,Win32,60.24096386,697b669444c70e3276dcd49e,69b95efdef24cd8a694e89ee,69b960bde3625aacf89f3c3c,1.179,1.179,1,65,227,66,1,twoone,,,,,,,,,,,,,,,,,,,,,,,,,,,,,,,,,,,,,,,,,,,,,,,,,,,,,,,,,,,,,,,,,,,,,,,,,,,,,,,,,,,,,,,,,,,,,,,,,,,,,,,,,,,,,,,,,,,,,,,,,,,,,,,,,,,,,,,,,
,,697b669444c70e3276dcd49e,2026-03-17_16h18.11.641,kallum_motion_pilot_GIST_update_2,2026.1.1,Win32,60.24096386,697b669444c70e3276dcd49e,69b95efdef24cd8a694e89ee,69b960bde3625aacf89f3c3c,1.1799,1.1799,1,66,228,95,1,eightseven,,,,,,,,,,,,,,,,,,,,,,,,,,,,,,,,,,,,,,,,,,,,,,,,,,,,,,,,,,,,,,,,,,,,,,,,,,,,,,,,,,,,,,,,,,,,,,,,,,,,,,,,,,,,,,,,,,,,,,,,,,,,,,,,,,,,,,,,,
,,697b669444c70e3276dcd49e,2026-03-17_16h18.11.641,kallum_motion_pilot_GIST_update_2,2026.1.1,Win32,60.24096386,697b669444c70e3276dcd49e,69b95efdef24cd8a694e89ee,69b960bde3625aacf89f3c3c,1.1806,1.1807,1,67,229,123,1,sixeight,,,,,,,,,,,,,,,,,,,,,,,,,,,,,,,,,,,,,,,,,,,,,,,,,,,,,,,,,,,,,,,,,,,,,,,,,,,,,,,,,,,,,,,,,,,,,,,,,,,,,,,,,,,,,,,,,,,,,,,,,,,,,,,,,,,,,,,,,
,,697b669444c70e3276dcd49e,2026-03-17_16h18.11.641,kallum_motion_pilot_GIST_update_2,2026.1.1,Win32,60.24096386,697b669444c70e3276dcd49e,69b95efdef24cd8a694e89ee,69b960bde3625aacf89f3c3c,1.1815,1.1815,1,68,230,93,1,seveneight,,,,,,,,,,,,,,,,,,,,,,,,,,,,,,,,,,,,,,,,,,,,,,,,,,,,,,,,,,,,,,,,,,,,,,,,,,,,,,,,,,,,,,,,,,,,,,,,,,,,,,,,,,,,,,,,,,,,,,,,,,,,,,,,,,,,,,,,,
,,697b669444c70e3276dcd49e,2026-03-17_16h18.11.641,kallum_motion_pilot_GIST_update_2,2026.1.1,Win32,60.24096386,697b669444c70e3276dcd49e,69b95efdef24cd8a694e89ee,69b960bde3625aacf89f3c3c,1.1824,1.1826,1,69,231,108,1,sevenfive,,,,,,,,,,,,,,,,,,,,,,,,,,,,,,,,,,,,,,,,,,,,,,,,,,,,,,,,,,,,,,,,,,,,,,,,,,,,,,,,,,,,,,,,,,,,,,,,,,,,,,,,,,,,,,,,,,,,,,,,,,,,,,,,,,,,,,,,,
,,697b669444c70e3276dcd49e,2026-03-17_16h18.11.641,kallum_motion_pilot_GIST_update_2,2026.1.1,Win32,60.24096386,697b669444c70e3276dcd49e,69b95efdef24cd8a694e89ee,69b960bde3625aacf89f3c3c,1.1837,1.1837,1,70,232,69,1,threefour,,,,,,,,,,,,,,,,,,,,,,,,,,,,,,,,,,,,,,,,,,,,,,,,,,,,,,,,,,,,,,,,,,,,,,,,,,,,,,,,,,,,,,,,,,,,,,,,,,,,,,,,,,,,,,,,,,,,,,,,,,,,,,,,,,,,,,,,,
,,697b669444c70e3276dcd49e,2026-03-17_16h18.11.641,kallum_motion_pilot_GIST_update_2,2026.1.1,Win32,60.24096386,697b669444c70e3276dcd49e,69b95efdef24cd8a694e89ee,69b960bde3625aacf89f3c3c,1.1877,1.1878,1,71,233,140,1,sevenfive,,,,,,,,,,,,,,,,,,,,,,,,,,,,,,,,,,,,,,,,,,,,,,,,,,,,,,,,,,,,,,,,,,,,,,,,,,,,,,,,,,,,,,,,,,,,,,,,,,,,,,,,,,,,,,,,,,,,,,,,,,,,,,,,,,,,,,,,,
,,697b669444c70e3276dcd49e,2026-03-17_16h18.11.641,kallum_motion_pilot_GIST_update_2,2026.1.1,Win32,60.24096386,697b669444c70e3276dcd49e,69b95efdef24cd8a694e89ee,69b960bde3625aacf89f3c3c,1.1888,1.1889,1,72,234,68,1,threeone,,,,,,,,,,,,,,,,,,,,,,,,,,,,,,,,,,,,,,,,,,,,,,,,,,,,,,,,,,,,,,,,,,,,,,,,,,,,,,,,,,,,,,,,,,,,,,,,,,,,,,,,,,,,,,,,,,,,,,,,,,,,,,,,,,,,,,,,,
,,697b669444c70e3276dcd49e,2026-03-17_16h18.11.641,kallum_motion_pilot_GIST_update_2,2026.1.1,Win32,60.24096386,697b669444c70e3276dcd49e,69b95efdef24cd8a694e89ee,69b960bde3625aacf89f3c3c,1.1899,1.1899,1,73,235,157,1,seveneight,,,,,,,,,,,,,,,,,,,,,,,,,,,,,,,,,,,,,,,,,,,,,,,,,,,,,,,,,,,,,,,,,,,,,,,,,,,,,,,,,,,,,,,,,,,,,,,,,,,,,,,,,,,,,,,,,,,,,,,,,,,,,,,,,,,,,,,,,
,,697b669444c70e3276dcd49e,2026-03-17_16h18.11.641,kallum_motion_pilot_GIST_update_2,2026.1.1,Win32,60.24096386,697b669444c70e3276dcd49e,69b95efdef24cd8a694e89ee,69b960bde3625aacf89f3c3c,1.1906,1.1907,1,74,236,11,1,twofour,,,,,,,,,,,,,,,,,,,,,,,,,,,,,,,,,,,,,,,,,,,,,,,,,,,,,,,,,,,,,,,,,,,,,,,,,,,,,,,,,,,,,,,,,,,,,,,,,,,,,,,,,,,,,,,,,,,,,,,,,,,,,,,,,,,,,,,,,
,,697b669444c70e3276dcd49e,2026-03-17_16h18.11.641,kallum_motion_pilot_GIST_update_2,2026.1.1,Win32,60.24096386,697b669444c70e3276dcd49e,69b95efdef24cd8a694e89ee,69b960bde3625aacf89f3c3c,1.1914,1.1915,1,75,237,85,1,seveneight,,,,,,,,,,,,,,,,,,,,,,,,,,,,,,,,,,,,,,,,,,,,,,,,,,,,,,,,,,,,,,,,,,,,,,,,,,,,,,,,,,,,,,,,,,,,,,,,,,,,,,,,,,,,,,,,,,,,,,,,,,,,,,,,,,,,,,,,,
,,697b669444c70e3276dcd49e,2026-03-17_16h18.11.641,kallum_motion_pilot_GIST_update_2,2026.1.1,Win32,60.24096386,697b669444c70e3276dcd49e,69b95efdef24cd8a694e89ee,69b960bde3625aacf89f3c3c,1.1924,1.1925,1,76,238,25,1,onethree,,,,,,,,,,,,,,,,,,,,,,,,,,,,,,,,,,,,,,,,,,,,,,,,,,,,,,,,,,,,,,,,,,,,,,,,,,,,,,,,,,,,,,,,,,,,,,,,,,,,,,,,,,,,,,,,,,,,,,,,,,,,,,,,,,,,,,,,,
,,697b669444c70e3276dcd49e,2026-03-17_16h18.11.641,kallum_motion_pilot_GIST_update_2,2026.1.1,Win32,60.24096386,697b669444c70e3276dcd49e,69b95efdef24cd8a694e89ee,69b960bde3625aacf89f3c3c,1.1936,1.1937,1,77,239,117,1,seveneight,,,,,,,,,,,,,,,,,,,,,,,,,,,,,,,,,,,,,,,,,,,,,,,,,,,,,,,,,,,,,,,,,,,,,,,,,,,,,,,,,,,,,,,,,,,,,,,,,,,,,,,,,,,,,,,,,,,,,,,,,,,,,,,,,,,,,,,,,
,,697b669444c70e3276dcd49e,2026-03-17_16h18.11.641,kallum_motion_pilot_GIST_update_2,2026.1.1,Win32,60.24096386,697b669444c70e3276dcd49e,69b95efdef24cd8a694e89ee,69b960bde3625aacf89f3c3c,1.1959,1.196,1,78,240,104,1,fivesix,,,,,,,,,,,,,,,,,,,,,,,,,,,,,,,,,,,,,,,,,,,,,,,,,,,,,,,,,,,,,,,,,,,,,,,,,,,,,,,,,,,,,,,,,,,,,,,,,,,,,,,,,,,,,,,,,,,,,,,,,,,,,,,,,,,,,,,,,
,,697b669444c70e3276dcd49e,2026-03-17_16h18.11.641,kallum_motion_pilot_GIST_update_2,2026.1.1,Win32,60.24096386,697b669444c70e3276dcd49e,69b95efdef24cd8a694e89ee,69b960bde3625aacf89f3c3c,1.1969,1.1971,1,79,241,56,1,onetwo,,,,,,,,,,,,,,,,,,,,,,,,,,,,,,,,,,,,,,,,,,,,,,,,,,,,,,,,,,,,,,,,,,,,,,,,,,,,,,,,,,,,,,,,,,,,,,,,,,,,,,,,,,,,,,,,,,,,,,,,,,,,,,,,,,,,,,,,,
,,697b669444c70e3276dcd49e,2026-03-17_16h18.11.641,kallum_motion_pilot_GIST_update_2,2026.1.1,Win32,60.24096386,697b669444c70e3276dcd49e,69b95efdef24cd8a694e89ee,69b960bde3625aacf89f3c3c,1.1982,1.1983,1,80,242,15,1,fourthree,,,,,,,,,,,,,,,,,,,,,,,,,,,,,,,,,,,,,,,,,,,,,,,,,,,,,,,,,,,,,,,,,,,,,,,,,,,,,,,,,,,,,,,,,,,,,,,,,,,,,,,,,,,,,,,,,,,,,,,,,,,,,,,,,,,,,,,,,
,,697b669444c70e3276dcd49e,2026-03-17_16h18.11.641,kallum_motion_pilot_GIST_update_2,2026.1.1,Win32,60.24096386,697b669444c70e3276dcd49e,69b95efdef24cd8a694e89ee,69b960bde3625aacf89f3c3c,1.1992,1.1994,1,81,243,33,1,onethree,,,,,,,,,,,,,,,,,,,,,,,,,,,,,,,,,,,,,,,,,,,,,,,,,,,,,,,,,,,,,,,,,,,,,,,,,,,,,,,,,,,,,,,,,,,,,,,,,,,,,,,,,,,,,,,,,,,,,,,,,,,,,,,,,,,,,,,,,
,,697b669444c70e3276dcd49e,2026-03-17_16h18.11.641,kallum_motion_pilot_GIST_update_2,2026.1.1,Win32,60.24096386,697b669444c70e3276dcd49e,69b95efdef24cd8a694e89ee,69b960bde3625aacf89f3c3c,1.2003,1.2004,1,82,244,27,1,twofour,,,,,,,,,,,,,,,,,,,,,,,,,,,,,,,,,,,,,,,,,,,,,,,,,,,,,,,,,,,,,,,,,,,,,,,,,,,,,,,,,,,,,,,,,,,,,,,,,,,,,,,,,,,,,,,,,,,,,,,,,,,,,,,,,,,,,,,,,
,,697b669444c70e3276dcd49e,2026-03-17_16h18.11.641,kallum_motion_pilot_GIST_update_2,2026.1.1,Win32,60.24096386,697b669444c70e3276dcd49e,69b95efdef24cd8a694e89ee,69b960bde3625aacf89f3c3c,1.2012,1.2013,1,83,245,135,1,eightseven,,,,,,,,,,,,,,,,,,,,,,,,,,,,,,,,,,,,,,,,,,,,,,,,,,,,,,,,,,,,,,,,,,,,,,,,,,,,,,,,,,,,,,,,,,,,,,,,,,,,,,,,,,,,,,,,,,,,,,,,,,,,,,,,,,,,,,,,,
,,697b669444c70e3276dcd49e,2026-03-17_16h18.11.641,kallum_motion_pilot_GIST_update_2,2026.1.1,Win32,60.24096386,697b669444c70e3276dcd49e,69b95efdef24cd8a694e89ee,69b960bde3625aacf89f3c3c,1.203,1.2031,1,84,246,79,1,eightseven,,,,,,,,,,,,,,,,,,,,,,,,,,,,,,,,,,,,,,,,,,,,,,,,,,,,,,,,,,,,,,,,,,,,,,,,,,,,,,,,,,,,,,,,,,,,,,,,,,,,,,,,,,,,,,,,,,,,,,,,,,,,,,,,,,,,,,,,,
,,697b669444c70e3276dcd49e,2026-03-17_16h18.11.641,kallum_motion_pilot_GIST_update_2,2026.1.1,Win32,60.24096386,697b669444c70e3276dcd49e,69b95efdef24cd8a694e89ee,69b960bde3625aacf89f3c3c,1.2054,1.2054,1,85,247,89,1,fiveseven,,,,,,,,,,,,,,,,,,,,,,,,,,,,,,,,,,,,,,,,,,,,,,,,,,,,,,,,,,,,,,,,,,,,,,,,,,,,,,,,,,,,,,,,,,,,,,,,,,,,,,,,,,,,,,,,,,,,,,,,,,,,,,,,,,,,,,,,,
,,697b669444c70e3276dcd49e,2026-03-17_16h18.11.641,kallum_motion_pilot_GIST_update_2,2026.1.1,Win32,60.24096386,697b669444c70e3276dcd49e,69b95efdef24cd8a694e89ee,69b960bde3625aacf89f3c3c,1.2064,1.2066,1,86,248,122,1,sixfive,,,,,,,,,,,,,,,,,,,,,,,,,,,,,,,,,,,,,,,,,,,,,,,,,,,,,,,,,,,,,,,,,,,,,,,,,,,,,,,,,,,,,,,,,,,,,,,,,,,,,,,,,,,,,,,,,,,,,,,,,,,,,,,,,,,,,,,,,
,,697b669444c70e3276dcd49e,2026-03-17_16h18.11.641,kallum_motion_pilot_GIST_update_2,2026.1.1,Win32,60.24096386,697b669444c70e3276dcd49e,69b95efdef24cd8a694e89ee,69b960bde3625aacf89f3c3c,1.2076,1.2077,1,87,249,38,1,fourtwo,,,,,,,,,,,,,,,,,,,,,,,,,,,,,,,,,,,,,,,,,,,,,,,,,,,,,,,,,,,,,,,,,,,,,,,,,,,,,,,,,,,,,,,,,,,,,,,,,,,,,,,,,,,,,,,,,,,,,,,,,,,,,,,,,,,,,,,,,
,,697b669444c70e3276dcd49e,2026-03-17_16h18.11.641,kallum_motion_pilot_GIST_update_2,2026.1.1,Win32,60.24096386,697b669444c70e3276dcd49e,69b95efdef24cd8a694e89ee,69b960bde3625aacf89f3c3c,1.2089,1.2089,1,88,250,161,1,fiveseven,,,,,,,,,,,,,,,,,,,,,,,,,,,,,,,,,,,,,,,,,,,,,,,,,,,,,,,,,,,,,,,,,,,,,,,,,,,,,,,,,,,,,,,,,,,,,,,,,,,,,,,,,,,,,,,,,,,,,,,,,,,,,,,,,,,,,,,,,
,,697b669444c70e3276dcd49e,2026-03-17_16h18.11.641,kallum_motion_pilot_GIST_update_2,2026.1.1,Win32,60.24096386,697b669444c70e3276dcd49e,69b95efdef24cd8a694e89ee,69b960bde3625aacf89f3c3c,1.2098,1.21,1,89,251,57,1,onethree,,,,,,,,,,,,,,,,,,,,,,,,,,,,,,,,,,,,,,,,,,,,,,,,,,,,,,,,,,,,,,,,,,,,,,,,,,,,,,,,,,,,,,,,,,,,,,,,,,,,,,,,,,,,,,,,,,,,,,,,,,,,,,,,,,,,,,,,,
,,697b669444c70e3276dcd49e,2026-03-17_16h18.11.641,kallum_motion_pilot_GIST_update_2,2026.1.1,Win32,60.24096386,697b669444c70e3276dcd49e,69b95efdef24cd8a694e89ee,69b960bde3625aacf89f3c3c,1.2109,1.2109,1,90,252,52,1,threeone,,,,,,,,,,,,,,,,,,,,,,,,,,,,,,,,,,,,,,,,,,,,,,,,,,,,,,,,,,,,,,,,,,,,,,,,,,,,,,,,,,,,,,,,,,,,,,,,,,,,,,,,,,,,,,,,,,,,,,,,,,,,,,,,,,,,,,,,,
,,697b669444c70e3276dcd49e,2026-03-17_16h18.11.641,kallum_motion_pilot_GIST_update_2,2026.1.1,Win32,60.24096386,697b669444c70e3276dcd49e,69b95efdef24cd8a694e89ee,69b960bde3625aacf89f3c3c,1.2117,1.2117,1,91,253,24,1,onetwo,,,,,,,,,,,,,,,,,,,,,,,,,,,,,,,,,,,,,,,,,,,,,,,,,,,,,,,,,,,,,,,,,,,,,,,,,,,,,,,,,,,,,,,,,,,,,,,,,,,,,,,,,,,,,,,,,,,,,,,,,,,,,,,,,,,,,,,,,
,,697b669444c70e3276dcd49e,2026-03-17_16h18.11.641,kallum_motion_pilot_GIST_update_2,2026.1.1,Win32,60.24096386,697b669444c70e3276dcd49e,69b95efdef24cd8a694e89ee,69b960bde3625aacf89f3c3c,1.2134,1.2134,1,92,254,47,1,fourthree,,,,,,,,,,,,,,,,,,,,,,,,,,,,,,,,,,,,,,,,,,,,,,,,,,,,,,,,,,,,,,,,,,,,,,,,,,,,,,,,,,,,,,,,,,,,,,,,,,,,,,,,,,,,,,,,,,,,,,,,,,,,,,,,,,,,,,,,,
,,697b669444c70e3276dcd49e,2026-03-17_16h18.11.641,kallum_motion_pilot_GIST_update_2,2026.1.1,Win32,60.24096386,697b669444c70e3276dcd49e,69b95efdef24cd8a694e89ee,69b960bde3625aacf89f3c3c,1.2156,1.2157,1,93,255,154,1,sixfive,,,,,,,,,,,,,,,,,,,,,,,,,,,,,,,,,,,,,,,,,,,,,,,,,,,,,,,,,,,,,,,,,,,,,,,,,,,,,,,,,,,,,,,,,,,,,,,,,,,,,,,,,,,,,,,,,,,,,,,,,,,,,,,,,,,,,,,,,
,,697b669444c70e3276dcd49e,2026-03-17_16h18.11.641,kallum_motion_pilot_GIST_update_2,2026.1.1,Win32,60.24096386,697b669444c70e3276dcd49e,69b95efdef24cd8a694e89ee,69b960bde3625aacf89f3c3c,1.2167,1.2167,1,94,256,87,1,eightseven,,,,,,,,,,,,,,,,,,,,,,,,,,,,,,,,,,,,,,,,,,,,,,,,,,,,,,,,,,,,,,,,,,,,,,,,,,,,,,,,,,,,,,,,,,,,,,,,,,,,,,,,,,,,,,,,,,,,,,,,,,,,,,,,,,,,,,,,,
,,697b669444c70e3276dcd49e,2026-03-17_16h18.11.641,kallum_motion_pilot_GIST_update_2,2026.1.1,Win32,60.24096386,697b669444c70e3276dcd49e,69b95efdef24cd8a694e89ee,69b960bde3625aacf89f3c3c,1.2184,1.2184,1,95,257,54,1,fourtwo,,,,,,,,,,,,,,,,,,,,,,,,,,,,,,,,,,,,,,,,,,,,,,,,,,,,,,,,,,,,,,,,,,,,,,,,,,,,,,,,,,,,,,,,,,,,,,,,,,,,,,,,,,,,,,,,,,,,,,,,,,,,,,,,,,,,,,,,,
,,697b669444c70e3276dcd49e,2026-03-17_16h18.11.641,kallum_motion_pilot_GIST_update_2,2026.1.1,Win32,60.24096386,697b669444c70e3276dcd49e,69b95efdef24cd8a694e89ee,69b960bde3625aacf89f3c3c,1.2205,1.2205,1,96,258,74,1,twoone,,,,,,,,,,,,,,,,,,,,,,,,,,,,,,,,,,,,,,,,,,,,,,,,,,,,,,,,,,,,,,,,,,,,,,,,,,,,,,,,,,,,,,,,,,,,,,,,,,,,,,,,,,,,,,,,,,,,,,,,,,,,,,,,,,,,,,,,,
,,697b669444c70e3276dcd49e,2026-03-17_16h18.11.641,kallum_motion_pilot_GIST_update_2,2026.1.1,Win32,60.24096386,697b669444c70e3276dcd49e,69b95efdef24cd8a694e89ee,69b960bde3625aacf89f3c3c,1.2213,1.2213,1,97,259,145,1,fiveseven,,,,,,,,,,,,,,,,,,,,,,,,,,,,,,,,,,,,,,,,,,,,,,,,,,,,,,,,,,,,,,,,,,,,,,,,,,,,,,,,,,,,,,,,,,,,,,,,,,,,,,,,,,,,,,,,,,,,,,,,,,,,,,,,,,,,,,,,,
,,697b669444c70e3276dcd49e,2026-03-17_16h18.11.641,kallum_motion_pilot_GIST_update_2,2026.1.1,Win32,60.24096386,697b669444c70e3276dcd49e,69b95efdef24cd8a694e89ee,69b960bde3625aacf89f3c3c,1.2221,1.2222,1,98,260,112,1,fivesix,,,,,,,,,,,,,,,,,,,,,,,,,,,,,,,,,,,,,,,,,,,,,,,,,,,,,,,,,,,,,,,,,,,,,,,,,,,,,,,,,,,,,,,,,,,,,,,,,,,,,,,,,,,,,,,,,,,,,,,,,,,,,,,,,,,,,,,,,
,,697b669444c70e3276dcd49e,2026-03-17_16h18.11.641,kallum_motion_pilot_GIST_update_2,2026.1.1,Win32,60.24096386,697b669444c70e3276dcd49e,69b95efdef24cd8a694e89ee,69b960bde3625aacf89f3c3c,1.2235,1.2235,1,99,261,72,1,onetwo,,,,,,,,,,,,,,,,,,,,,,,,,,,,,,,,,,,,,,,,,,,,,,,,,,,,,,,,,,,,,,,,,,,,,,,,,,,,,,,,,,,,,,,,,,,,,,,,,,,,,,,,,,,,,,,,,,,,,,,,,,,,,,,,,,,,,,,,,
,,697b669444c70e3276dcd49e,2026-03-17_16h18.11.641,kallum_motion_pilot_GIST_update_2,2026.1.1,Win32,60.24096386,697b669444c70e3276dcd49e,69b95efdef24cd8a694e89ee,69b960bde3625aacf89f3c3c,1.2262,1.2262,1,100,262,12,1,threeone,,,,,,,,,,,,,,,,,,,,,,,,,,,,,,,,,,,,,,,,,,,,,,,,,,,,,,,,,,,,,,,,,,,,,,,,,,,,,,,,,,,,,,,,,,,,,,,,,,,,,,,,,,,,,,,,,,,,,,,,,,,,,,,,,,,,,,,,,
,,697b669444c70e3276dcd49e,2026-03-17_16h18.11.641,kallum_motion_pilot_GIST_update_2,2026.1.1,Win32,60.24096386,697b669444c70e3276dcd49e,69b95efdef24cd8a694e89ee,69b960bde3625aacf89f3c3c,1.2271,1.2272,1,101,263,150,1,eightsix,,,,,,,,,,,,,,,,,,,,,,,,,,,,,,,,,,,,,,,,,,,,,,,,,,,,,,,,,,,,,,,,,,,,,,,,,,,,,,,,,,,,,,,,,,,,,,,,,,,,,,,,,,,,,,,,,,,,,,,,,,,,,,,,,,,,,,,,,
,,697b669444c70e3276dcd49e,2026-03-17_16h18.11.641,kallum_motion_pilot_GIST_update_2,2026.1.1,Win32,60.24096386,697b669444c70e3276dcd49e,69b95efdef24cd8a694e89ee,69b960bde3625aacf89f3c3c,1.2288,1.2288,1,102,264,28,1,threeone,,,,,,,,,,,,,,,,,,,,,,,,,,,,,,,,,,,,,,,,,,,,,,,,,,,,,,,,,,,,,,,,,,,,,,,,,,,,,,,,,,,,,,,,,,,,,,,,,,,,,,,,,,,,,,,,,,,,,,,,,,,,,,,,,,,,,,,,,
,,697b669444c70e3276dcd49e,2026-03-17_16h18.11.641,kallum_motion_pilot_GIST_update_2,2026.1.1,Win32,60.24096386,697b669444c70e3276dcd49e,69b95efdef24cd8a694e89ee,69b960bde3625aacf89f3c3c,1.2299,1.2299,1,103,265,130,1,sixfive,,,,,,,,,,,,,,,,,,,,,,,,,,,,,,,,,,,,,,,,,,,,,,,,,,,,,,,,,,,,,,,,,,,,,,,,,,,,,,,,,,,,,,,,,,,,,,,,,,,,,,,,,,,,,,,,,,,,,,,,,,,,,,,,,,,,,,,,,
,,697b669444c70e3276dcd49e,2026-03-17_16h18.11.641,kallum_motion_pilot_GIST_update_2,2026.1.1,Win32,60.24096386,697b669444c70e3276dcd49e,69b95efdef24cd8a694e89ee,69b960bde3625aacf89f3c3c,1.2308,1.2309,1,104,266,103,1,eightseven,,,,,,,,,,,,,,,,,,,,,,,,,,,,,,,,,,,,,,,,,,,,,,,,,,,,,,,,,,,,,,,,,,,,,,,,,,,,,,,,,,,,,,,,,,,,,,,,,,,,,,,,,,,,,,,,,,,,,,,,,,,,,,,,,,,,,,,,,
