startup.started,startup.stopped,Prolific ID*,date,expName,psychopyVersion,OS,frameRate,participant,study_id,session,stimpositions.started,stimpositions.stopped,hardcoded_stimulus_positions.thisRepN,hardcoded_stimulus_positions.thisTrialN,hardcoded_stimulus_positions.thisN,hardcoded_stimulus_positions.thisIndex,hardcoded_stimulus_positions.ran,StimulusPos,stimorientation.started,stimorientation.stopped,prac_stimorientation_import_loop.thisRepN,prac_stimorientation_import_loop.thisTrialN,prac_stimorientation_import_loop.thisN,prac_stimorientation_import_loop.thisIndex,prac_stimorientation_import_loop.ran,Stimorientation,welcome_instr.started,welcome_instr.stopped,key_resp.keys,key_resp.rt,key_resp.duration,response_steppedout_1.started,response_steppedout_1.stopped,key_resp_20.keys,key_resp_20.rt,key_resp_20.duration,response_steppedout_2.started,response_steppedout_2.stopped,key_resp_19.keys,key_resp_19.rt,key_resp_19.duration,stim_response_instr.started,stim_response_instr.stopped,key_resp_15.keys,key_resp_15.rt,key_resp_15.duration,direction_instr_2.started,direction_instr_2.stopped,key_resp_9.keys,key_resp_9.rt,key_resp_9.duration,instr_prac.started,instr_prac.stopped,key_resp_10.keys,key_resp_10.rt,key_resp_10.duration,Stim1_display_prac.started,Stim1_display_prac.stopped,Ecc,Circle1_ori,Circle2_ori,response_prac.started,similarity,response_time,response_prac.stopped,mouse_5.x,mouse_5.y,mouse_5.leftButton,mouse_5.midButton,mouse_5.rightButton,mouse_5.clicked_name,responseprac_feedback.started,responseprac_feedback.stopped,summary2_prac.started,summary2_prac.stopped,mouse_6.x,mouse_6.y,mouse_6.leftButton,mouse_6.midButton,mouse_6.rightButton,mouse_6.clicked_name,duringprac.thisRepN,duringprac.thisTrialN,duringprac.thisN,duringprac.thisIndex,duringprac.ran,begin.started,begin.stopped,key_resp_22.keys,key_resp_22.rt,key_resp_22.duration,Stim1_display.started,Stim1_display.stopped,circle1_ori,circle2_ori,circle1_SF,circle2_SF,response.started,response.stopped,mouse.x,mouse.y,mouse.leftButton,mouse.midButton,mouse.rightButton,mouse.clicked_name,trialnumber,double_pass.thisRepN,double_pass.thisTrialN,double_pass.thisN,double_pass.thisIndex,double_pass.ran,double_pass.order,main_trial.thisRepN,main_trial.thisTrialN,main_trial.thisN,main_trial.thisIndex,main_trial.ran,main_trial.order,Trial_Counter,Catch,Frequencies,response_2.started,response_2.stopped,mouse_2.x,mouse_2.y,mouse_2.leftButton,mouse_2.midButton,mouse_2.rightButton,mouse_2.clicked_name,special_trial.started,special_trial.stopped,catch_1.started,catch_1.stopped,mouse_3.x,mouse_3.y,mouse_3.leftButton,mouse_3.midButton,mouse_3.rightButton,catchresponse,catchnumber,response_time_catch,response_sum.started,response_sum.stopped,mouse_11.x,mouse_11.y,mouse_11.leftButton,mouse_11.midButton,mouse_11.rightButton,flip_presentation_sequence_for_double_pass.started,flip_presentation_sequence_for_double_pass.stopped,goodbye.started,goodbye.stopped,key_resp_3.keys,key_resp_3.rt,key_resp_3.duration
0.0002,0.0003,697bcf84091fa31a4228774c,2026-03-17_12h03.10.648,kallum_motion_pilot_GIST_update_2,2026.1.1,Win32,60.24096386,697bcf84091fa31a4228774c,69b95efdef24cd8a694e89ee,69b96c21124aeb52c0000699,,,,,,,,,,,,,,,,,,,,,,,,,,,,,,,,,,,,,,,,,,,,,,,,,,,,,,,,,,,,,,,,,,,,,,,,,,,,,,,,,,,,,,,,,,,,,,,,,,,,,,,,,,,,,,,,,,,,,,,,,,,,,,,,,,,,,,,,,,,,,,,,,
,,697bcf84091fa31a4228774c,2026-03-17_12h03.10.648,kallum_motion_pilot_GIST_update_2,2026.1.1,Win32,60.24096386,697bcf84091fa31a4228774c,69b95efdef24cd8a694e89ee,69b96c21124aeb52c0000699,0.0113,0.0114,0,0,0,121,1,fiveseven,,,,,,,,,,,,,,,,,,,,,,,,,,,,,,,,,,,,,,,,,,,,,,,,,,,,,,,,,,,,,,,,,,,,,,,,,,,,,,,,,,,,,,,,,,,,,,,,,,,,,,,,,,,,,,,,,,,,,,,,,,,,,,,,,,,,,,,,,
,,697bcf84091fa31a4228774c,2026-03-17_12h03.10.648,kallum_motion_pilot_GIST_update_2,2026.1.1,Win32,60.24096386,697bcf84091fa31a4228774c,69b95efdef24cd8a694e89ee,69b96c21124aeb52c0000699,0.0115,0.0115,0,1,1,123,1,sixeight,,,,,,,,,,,,,,,,,,,,,,,,,,,,,,,,,,,,,,,,,,,,,,,,,,,,,,,,,,,,,,,,,,,,,,,,,,,,,,,,,,,,,,,,,,,,,,,,,,,,,,,,,,,,,,,,,,,,,,,,,,,,,,,,,,,,,,,,,
,,697bcf84091fa31a4228774c,2026-03-17_12h03.10.648,kallum_motion_pilot_GIST_update_2,2026.1.1,Win32,60.24096386,697bcf84091fa31a4228774c,69b95efdef24cd8a694e89ee,69b96c21124aeb52c0000699,0.0116,0.0116,0,2,2,131,1,sixeight,,,,,,,,,,,,,,,,,,,,,,,,,,,,,,,,,,,,,,,,,,,,,,,,,,,,,,,,,,,,,,,,,,,,,,,,,,,,,,,,,,,,,,,,,,,,,,,,,,,,,,,,,,,,,,,,,,,,,,,,,,,,,,,,,,,,,,,,,
,,697bcf84091fa31a4228774c,2026-03-17_12h03.10.648,kallum_motion_pilot_GIST_update_2,2026.1.1,Win32,60.24096386,697bcf84091fa31a4228774c,69b95efdef24cd8a694e89ee,69b96c21124aeb52c0000699,0.0117,0.0117,0,3,3,110,1,eightsix,,,,,,,,,,,,,,,,,,,,,,,,,,,,,,,,,,,,,,,,,,,,,,,,,,,,,,,,,,,,,,,,,,,,,,,,,,,,,,,,,,,,,,,,,,,,,,,,,,,,,,,,,,,,,,,,,,,,,,,,,,,,,,,,,,,,,,,,,
,,697bcf84091fa31a4228774c,2026-03-17_12h03.10.648,kallum_motion_pilot_GIST_update_2,2026.1.1,Win32,60.24096386,697bcf84091fa31a4228774c,69b95efdef24cd8a694e89ee,69b96c21124aeb52c0000699,0.0118,0.0118,0,4,4,23,1,fourthree,,,,,,,,,,,,,,,,,,,,,,,,,,,,,,,,,,,,,,,,,,,,,,,,,,,,,,,,,,,,,,,,,,,,,,,,,,,,,,,,,,,,,,,,,,,,,,,,,,,,,,,,,,,,,,,,,,,,,,,,,,,,,,,,,,,,,,,,,
,,697bcf84091fa31a4228774c,2026-03-17_12h03.10.648,kallum_motion_pilot_GIST_update_2,2026.1.1,Win32,60.24096386,697bcf84091fa31a4228774c,69b95efdef24cd8a694e89ee,69b96c21124aeb52c0000699,0.0118,0.0118,0,5,5,143,1,eightseven,,,,,,,,,,,,,,,,,,,,,,,,,,,,,,,,,,,,,,,,,,,,,,,,,,,,,,,,,,,,,,,,,,,,,,,,,,,,,,,,,,,,,,,,,,,,,,,,,,,,,,,,,,,,,,,,,,,,,,,,,,,,,,,,,,,,,,,,,
,,697bcf84091fa31a4228774c,2026-03-17_12h03.10.648,kallum_motion_pilot_GIST_update_2,2026.1.1,Win32,60.24096386,697bcf84091fa31a4228774c,69b95efdef24cd8a694e89ee,69b96c21124aeb52c0000699,0.0119,0.0119,0,6,6,85,1,seveneight,,,,,,,,,,,,,,,,,,,,,,,,,,,,,,,,,,,,,,,,,,,,,,,,,,,,,,,,,,,,,,,,,,,,,,,,,,,,,,,,,,,,,,,,,,,,,,,,,,,,,,,,,,,,,,,,,,,,,,,,,,,,,,,,,,,,,,,,,
,,697bcf84091fa31a4228774c,2026-03-17_12h03.10.648,kallum_motion_pilot_GIST_update_2,2026.1.1,Win32,60.24096386,697bcf84091fa31a4228774c,69b95efdef24cd8a694e89ee,69b96c21124aeb52c0000699,0.012,0.012,0,7,7,108,1,sevenfive,,,,,,,,,,,,,,,,,,,,,,,,,,,,,,,,,,,,,,,,,,,,,,,,,,,,,,,,,,,,,,,,,,,,,,,,,,,,,,,,,,,,,,,,,,,,,,,,,,,,,,,,,,,,,,,,,,,,,,,,,,,,,,,,,,,,,,,,,
,,697bcf84091fa31a4228774c,2026-03-17_12h03.10.648,kallum_motion_pilot_GIST_update_2,2026.1.1,Win32,60.24096386,697bcf84091fa31a4228774c,69b95efdef24cd8a694e89ee,69b96c21124aeb52c0000699,0.012,0.012,0,8,8,81,1,fiveseven,,,,,,,,,,,,,,,,,,,,,,,,,,,,,,,,,,,,,,,,,,,,,,,,,,,,,,,,,,,,,,,,,,,,,,,,,,,,,,,,,,,,,,,,,,,,,,,,,,,,,,,,,,,,,,,,,,,,,,,,,,,,,,,,,,,,,,,,,
,,697bcf84091fa31a4228774c,2026-03-17_12h03.10.648,kallum_motion_pilot_GIST_update_2,2026.1.1,Win32,60.24096386,697bcf84091fa31a4228774c,69b95efdef24cd8a694e89ee,69b96c21124aeb52c0000699,0.0121,0.0121,0,9,9,25,1,onethree,,,,,,,,,,,,,,,,,,,,,,,,,,,,,,,,,,,,,,,,,,,,,,,,,,,,,,,,,,,,,,,,,,,,,,,,,,,,,,,,,,,,,,,,,,,,,,,,,,,,,,,,,,,,,,,,,,,,,,,,,,,,,,,,,,,,,,,,,
,,697bcf84091fa31a4228774c,2026-03-17_12h03.10.648,kallum_motion_pilot_GIST_update_2,2026.1.1,Win32,60.24096386,697bcf84091fa31a4228774c,69b95efdef24cd8a694e89ee,69b96c21124aeb52c0000699,0.0121,0.0121,0,10,10,134,1,eightsix,,,,,,,,,,,,,,,,,,,,,,,,,,,,,,,,,,,,,,,,,,,,,,,,,,,,,,,,,,,,,,,,,,,,,,,,,,,,,,,,,,,,,,,,,,,,,,,,,,,,,,,,,,,,,,,,,,,,,,,,,,,,,,,,,,,,,,,,,
,,697bcf84091fa31a4228774c,2026-03-17_12h03.10.648,kallum_motion_pilot_GIST_update_2,2026.1.1,Win32,60.24096386,697bcf84091fa31a4228774c,69b95efdef24cd8a694e89ee,69b96c21124aeb52c0000699,0.0122,0.0122,0,11,11,56,1,onetwo,,,,,,,,,,,,,,,,,,,,,,,,,,,,,,,,,,,,,,,,,,,,,,,,,,,,,,,,,,,,,,,,,,,,,,,,,,,,,,,,,,,,,,,,,,,,,,,,,,,,,,,,,,,,,,,,,,,,,,,,,,,,,,,,,,,,,,,,,
,,697bcf84091fa31a4228774c,2026-03-17_12h03.10.648,kallum_motion_pilot_GIST_update_2,2026.1.1,Win32,60.24096386,697bcf84091fa31a4228774c,69b95efdef24cd8a694e89ee,69b96c21124aeb52c0000699,0.0122,0.0122,0,12,12,18,1,twoone,,,,,,,,,,,,,,,,,,,,,,,,,,,,,,,,,,,,,,,,,,,,,,,,,,,,,,,,,,,,,,,,,,,,,,,,,,,,,,,,,,,,,,,,,,,,,,,,,,,,,,,,,,,,,,,,,,,,,,,,,,,,,,,,,,,,,,,,,
,,697bcf84091fa31a4228774c,2026-03-17_12h03.10.648,kallum_motion_pilot_GIST_update_2,2026.1.1,Win32,60.24096386,697bcf84091fa31a4228774c,69b95efdef24cd8a694e89ee,69b96c21124aeb52c0000699,0.0123,0.0123,0,13,13,44,1,threeone,,,,,,,,,,,,,,,,,,,,,,,,,,,,,,,,,,,,,,,,,,,,,,,,,,,,,,,,,,,,,,,,,,,,,,,,,,,,,,,,,,,,,,,,,,,,,,,,,,,,,,,,,,,,,,,,,,,,,,,,,,,,,,,,,,,,,,,,,
,,697bcf84091fa31a4228774c,2026-03-17_12h03.10.648,kallum_motion_pilot_GIST_update_2,2026.1.1,Win32,60.24096386,697bcf84091fa31a4228774c,69b95efdef24cd8a694e89ee,69b96c21124aeb52c0000699,0.0124,0.0124,0,14,14,39,1,fourthree,,,,,,,,,,,,,,,,,,,,,,,,,,,,,,,,,,,,,,,,,,,,,,,,,,,,,,,,,,,,,,,,,,,,,,,,,,,,,,,,,,,,,,,,,,,,,,,,,,,,,,,,,,,,,,,,,,,,,,,,,,,,,,,,,,,,,,,,,
,,697bcf84091fa31a4228774c,2026-03-17_12h03.10.648,kallum_motion_pilot_GIST_update_2,2026.1.1,Win32,60.24096386,697bcf84091fa31a4228774c,69b95efdef24cd8a694e89ee,69b96c21124aeb52c0000699,0.0125,0.0125,0,15,15,136,1,fivesix,,,,,,,,,,,,,,,,,,,,,,,,,,,,,,,,,,,,,,,,,,,,,,,,,,,,,,,,,,,,,,,,,,,,,,,,,,,,,,,,,,,,,,,,,,,,,,,,,,,,,,,,,,,,,,,,,,,,,,,,,,,,,,,,,,,,,,,,,
,,697bcf84091fa31a4228774c,2026-03-17_12h03.10.648,kallum_motion_pilot_GIST_update_2,2026.1.1,Win32,60.24096386,697bcf84091fa31a4228774c,69b95efdef24cd8a694e89ee,69b96c21124aeb52c0000699,0.0125,0.0125,0,16,16,17,1,onethree,,,,,,,,,,,,,,,,,,,,,,,,,,,,,,,,,,,,,,,,,,,,,,,,,,,,,,,,,,,,,,,,,,,,,,,,,,,,,,,,,,,,,,,,,,,,,,,,,,,,,,,,,,,,,,,,,,,,,,,,,,,,,,,,,,,,,,,,,
,,697bcf84091fa31a4228774c,2026-03-17_12h03.10.648,kallum_motion_pilot_GIST_update_2,2026.1.1,Win32,60.24096386,697bcf84091fa31a4228774c,69b95efdef24cd8a694e89ee,69b96c21124aeb52c0000699,0.0125,0.0125,0,17,17,65,1,onethree,,,,,,,,,,,,,,,,,,,,,,,,,,,,,,,,,,,,,,,,,,,,,,,,,,,,,,,,,,,,,,,,,,,,,,,,,,,,,,,,,,,,,,,,,,,,,,,,,,,,,,,,,,,,,,,,,,,,,,,,,,,,,,,,,,,,,,,,,
,,697bcf84091fa31a4228774c,2026-03-17_12h03.10.648,kallum_motion_pilot_GIST_update_2,2026.1.1,Win32,60.24096386,697bcf84091fa31a4228774c,69b95efdef24cd8a694e89ee,69b96c21124aeb52c0000699,0.0126,0.0126,0,18,18,64,1,onetwo,,,,,,,,,,,,,,,,,,,,,,,,,,,,,,,,,,,,,,,,,,,,,,,,,,,,,,,,,,,,,,,,,,,,,,,,,,,,,,,,,,,,,,,,,,,,,,,,,,,,,,,,,,,,,,,,,,,,,,,,,,,,,,,,,,,,,,,,,
,,697bcf84091fa31a4228774c,2026-03-17_12h03.10.648,kallum_motion_pilot_GIST_update_2,2026.1.1,Win32,60.24096386,697bcf84091fa31a4228774c,69b95efdef24cd8a694e89ee,69b96c21124aeb52c0000699,0.0127,0.0127,0,19,19,160,1,fivesix,,,,,,,,,,,,,,,,,,,,,,,,,,,,,,,,,,,,,,,,,,,,,,,,,,,,,,,,,,,,,,,,,,,,,,,,,,,,,,,,,,,,,,,,,,,,,,,,,,,,,,,,,,,,,,,,,,,,,,,,,,,,,,,,,,,,,,,,,
,,697bcf84091fa31a4228774c,2026-03-17_12h03.10.648,kallum_motion_pilot_GIST_update_2,2026.1.1,Win32,60.24096386,697bcf84091fa31a4228774c,69b95efdef24cd8a694e89ee,69b96c21124aeb52c0000699,0.0127,0.0127,0,20,20,72,1,onetwo,,,,,,,,,,,,,,,,,,,,,,,,,,,,,,,,,,,,,,,,,,,,,,,,,,,,,,,,,,,,,,,,,,,,,,,,,,,,,,,,,,,,,,,,,,,,,,,,,,,,,,,,,,,,,,,,,,,,,,,,,,,,,,,,,,,,,,,,,
,,697bcf84091fa31a4228774c,2026-03-17_12h03.10.648,kallum_motion_pilot_GIST_update_2,2026.1.1,Win32,60.24096386,697bcf84091fa31a4228774c,69b95efdef24cd8a694e89ee,69b96c21124aeb52c0000699,0.0127,0.0127,0,21,21,95,1,eightseven,,,,,,,,,,,,,,,,,,,,,,,,,,,,,,,,,,,,,,,,,,,,,,,,,,,,,,,,,,,,,,,,,,,,,,,,,,,,,,,,,,,,,,,,,,,,,,,,,,,,,,,,,,,,,,,,,,,,,,,,,,,,,,,,,,,,,,,,,
,,697bcf84091fa31a4228774c,2026-03-17_12h03.10.648,kallum_motion_pilot_GIST_update_2,2026.1.1,Win32,60.24096386,697bcf84091fa31a4228774c,69b95efdef24cd8a694e89ee,69b96c21124aeb52c0000699,0.0128,0.0128,0,22,22,31,1,fourthree,,,,,,,,,,,,,,,,,,,,,,,,,,,,,,,,,,,,,,,,,,,,,,,,,,,,,,,,,,,,,,,,,,,,,,,,,,,,,,,,,,,,,,,,,,,,,,,,,,,,,,,,,,,,,,,,,,,,,,,,,,,,,,,,,,,,,,,,,
,,697bcf84091fa31a4228774c,2026-03-17_12h03.10.648,kallum_motion_pilot_GIST_update_2,2026.1.1,Win32,60.24096386,697bcf84091fa31a4228774c,69b95efdef24cd8a694e89ee,69b96c21124aeb52c0000699,0.0128,0.0128,0,23,23,161,1,fiveseven,,,,,,,,,,,,,,,,,,,,,,,,,,,,,,,,,,,,,,,,,,,,,,,,,,,,,,,,,,,,,,,,,,,,,,,,,,,,,,,,,,,,,,,,,,,,,,,,,,,,,,,,,,,,,,,,,,,,,,,,,,,,,,,,,,,,,,,,,
,,697bcf84091fa31a4228774c,2026-03-17_12h03.10.648,kallum_motion_pilot_GIST_update_2,2026.1.1,Win32,60.24096386,697bcf84091fa31a4228774c,69b95efdef24cd8a694e89ee,69b96c21124aeb52c0000699,0.0129,0.0129,0,24,24,106,1,sixfive,,,,,,,,,,,,,,,,,,,,,,,,,,,,,,,,,,,,,,,,,,,,,,,,,,,,,,,,,,,,,,,,,,,,,,,,,,,,,,,,,,,,,,,,,,,,,,,,,,,,,,,,,,,,,,,,,,,,,,,,,,,,,,,,,,,,,,,,,
,,697bcf84091fa31a4228774c,2026-03-17_12h03.10.648,kallum_motion_pilot_GIST_update_2,2026.1.1,Win32,60.24096386,697bcf84091fa31a4228774c,69b95efdef24cd8a694e89ee,69b96c21124aeb52c0000699,0.013,0.013,0,25,25,34,1,twoone,,,,,,,,,,,,,,,,,,,,,,,,,,,,,,,,,,,,,,,,,,,,,,,,,,,,,,,,,,,,,,,,,,,,,,,,,,,,,,,,,,,,,,,,,,,,,,,,,,,,,,,,,,,,,,,,,,,,,,,,,,,,,,,,,,,,,,,,,
,,697bcf84091fa31a4228774c,2026-03-17_12h03.10.648,kallum_motion_pilot_GIST_update_2,2026.1.1,Win32,60.24096386,697bcf84091fa31a4228774c,69b95efdef24cd8a694e89ee,69b96c21124aeb52c0000699,0.013,0.013,0,26,26,150,1,eightsix,,,,,,,,,,,,,,,,,,,,,,,,,,,,,,,,,,,,,,,,,,,,,,,,,,,,,,,,,,,,,,,,,,,,,,,,,,,,,,,,,,,,,,,,,,,,,,,,,,,,,,,,,,,,,,,,,,,,,,,,,,,,,,,,,,,,,,,,,
,,697bcf84091fa31a4228774c,2026-03-17_12h03.10.648,kallum_motion_pilot_GIST_update_2,2026.1.1,Win32,60.24096386,697bcf84091fa31a4228774c,69b95efdef24cd8a694e89ee,69b96c21124aeb52c0000699,0.013,0.0131,0,27,27,146,1,sixfive,,,,,,,,,,,,,,,,,,,,,,,,,,,,,,,,,,,,,,,,,,,,,,,,,,,,,,,,,,,,,,,,,,,,,,,,,,,,,,,,,,,,,,,,,,,,,,,,,,,,,,,,,,,,,,,,,,,,,,,,,,,,,,,,,,,,,,,,,
,,697bcf84091fa31a4228774c,2026-03-17_12h03.10.648,kallum_motion_pilot_GIST_update_2,2026.1.1,Win32,60.24096386,697bcf84091fa31a4228774c,69b95efdef24cd8a694e89ee,69b96c21124aeb52c0000699,0.0131,0.0131,0,28,28,43,1,twofour,,,,,,,,,,,,,,,,,,,,,,,,,,,,,,,,,,,,,,,,,,,,,,,,,,,,,,,,,,,,,,,,,,,,,,,,,,,,,,,,,,,,,,,,,,,,,,,,,,,,,,,,,,,,,,,,,,,,,,,,,,,,,,,,,,,,,,,,,
,,697bcf84091fa31a4228774c,2026-03-17_12h03.10.648,kallum_motion_pilot_GIST_update_2,2026.1.1,Win32,60.24096386,697bcf84091fa31a4228774c,69b95efdef24cd8a694e89ee,69b96c21124aeb52c0000699,0.0131,0.0132,0,29,29,54,1,fourtwo,,,,,,,,,,,,,,,,,,,,,,,,,,,,,,,,,,,,,,,,,,,,,,,,,,,,,,,,,,,,,,,,,,,,,,,,,,,,,,,,,,,,,,,,,,,,,,,,,,,,,,,,,,,,,,,,,,,,,,,,,,,,,,,,,,,,,,,,,
,,697bcf84091fa31a4228774c,2026-03-17_12h03.10.648,kallum_motion_pilot_GIST_update_2,2026.1.1,Win32,60.24096386,697bcf84091fa31a4228774c,69b95efdef24cd8a694e89ee,69b96c21124aeb52c0000699,0.0132,0.0132,0,30,30,76,1,threeone,,,,,,,,,,,,,,,,,,,,,,,,,,,,,,,,,,,,,,,,,,,,,,,,,,,,,,,,,,,,,,,,,,,,,,,,,,,,,,,,,,,,,,,,,,,,,,,,,,,,,,,,,,,,,,,,,,,,,,,,,,,,,,,,,,,,,,,,,
,,697bcf84091fa31a4228774c,2026-03-17_12h03.10.648,kallum_motion_pilot_GIST_update_2,2026.1.1,Win32,60.24096386,697bcf84091fa31a4228774c,69b95efdef24cd8a694e89ee,69b96c21124aeb52c0000699,0.0134,0.0134,0,31,31,145,1,fiveseven,,,,,,,,,,,,,,,,,,,,,,,,,,,,,,,,,,,,,,,,,,,,,,,,,,,,,,,,,,,,,,,,,,,,,,,,,,,,,,,,,,,,,,,,,,,,,,,,,,,,,,,,,,,,,,,,,,,,,,,,,,,,,,,,,,,,,,,,,
,,697bcf84091fa31a4228774c,2026-03-17_12h03.10.648,kallum_motion_pilot_GIST_update_2,2026.1.1,Win32,60.24096386,697bcf84091fa31a4228774c,69b95efdef24cd8a694e89ee,69b96c21124aeb52c0000699,0.0134,0.0134,0,32,32,5,1,threefour,,,,,,,,,,,,,,,,,,,,,,,,,,,,,,,,,,,,,,,,,,,,,,,,,,,,,,,,,,,,,,,,,,,,,,,,,,,,,,,,,,,,,,,,,,,,,,,,,,,,,,,,,,,,,,,,,,,,,,,,,,,,,,,,,,,,,,,,,
,,697bcf84091fa31a4228774c,2026-03-17_12h03.10.648,kallum_motion_pilot_GIST_update_2,2026.1.1,Win32,60.24096386,697bcf84091fa31a4228774c,69b95efdef24cd8a694e89ee,69b96c21124aeb52c0000699,0.0135,0.0135,0,33,33,147,1,sixeight,,,,,,,,,,,,,,,,,,,,,,,,,,,,,,,,,,,,,,,,,,,,,,,,,,,,,,,,,,,,,,,,,,,,,,,,,,,,,,,,,,,,,,,,,,,,,,,,,,,,,,,,,,,,,,,,,,,,,,,,,,,,,,,,,,,,,,,,,
,,697bcf84091fa31a4228774c,2026-03-17_12h03.10.648,kallum_motion_pilot_GIST_update_2,2026.1.1,Win32,60.24096386,697bcf84091fa31a4228774c,69b95efdef24cd8a694e89ee,69b96c21124aeb52c0000699,0.0135,0.0135,0,34,34,137,1,fiveseven,,,,,,,,,,,,,,,,,,,,,,,,,,,,,,,,,,,,,,,,,,,,,,,,,,,,,,,,,,,,,,,,,,,,,,,,,,,,,,,,,,,,,,,,,,,,,,,,,,,,,,,,,,,,,,,,,,,,,,,,,,,,,,,,,,,,,,,,,
,,697bcf84091fa31a4228774c,2026-03-17_12h03.10.648,kallum_motion_pilot_GIST_update_2,2026.1.1,Win32,60.24096386,697bcf84091fa31a4228774c,69b95efdef24cd8a694e89ee,69b96c21124aeb52c0000699,0.0136,0.0136,0,35,35,151,1,eightseven,,,,,,,,,,,,,,,,,,,,,,,,,,,,,,,,,,,,,,,,,,,,,,,,,,,,,,,,,,,,,,,,,,,,,,,,,,,,,,,,,,,,,,,,,,,,,,,,,,,,,,,,,,,,,,,,,,,,,,,,,,,,,,,,,,,,,,,,,
,,697bcf84091fa31a4228774c,2026-03-17_12h03.10.648,kallum_motion_pilot_GIST_update_2,2026.1.1,Win32,60.24096386,697bcf84091fa31a4228774c,69b95efdef24cd8a694e89ee,69b96c21124aeb52c0000699,0.0136,0.0136,0,36,36,119,1,eightseven,,,,,,,,,,,,,,,,,,,,,,,,,,,,,,,,,,,,,,,,,,,,,,,,,,,,,,,,,,,,,,,,,,,,,,,,,,,,,,,,,,,,,,,,,,,,,,,,,,,,,,,,,,,,,,,,,,,,,,,,,,,,,,,,,,,,,,,,,
,,697bcf84091fa31a4228774c,2026-03-17_12h03.10.648,kallum_motion_pilot_GIST_update_2,2026.1.1,Win32,60.24096386,697bcf84091fa31a4228774c,69b95efdef24cd8a694e89ee,69b96c21124aeb52c0000699,0.0137,0.0137,0,37,37,155,1,sixeight,,,,,,,,,,,,,,,,,,,,,,,,,,,,,,,,,,,,,,,,,,,,,,,,,,,,,,,,,,,,,,,,,,,,,,,,,,,,,,,,,,,,,,,,,,,,,,,,,,,,,,,,,,,,,,,,,,,,,,,,,,,,,,,,,,,,,,,,,
,,697bcf84091fa31a4228774c,2026-03-17_12h03.10.648,kallum_motion_pilot_GIST_update_2,2026.1.1,Win32,60.24096386,697bcf84091fa31a4228774c,69b95efdef24cd8a694e89ee,69b96c21124aeb52c0000699,0.0137,0.0137,0,38,38,2,1,twoone,,,,,,,,,,,,,,,,,,,,,,,,,,,,,,,,,,,,,,,,,,,,,,,,,,,,,,,,,,,,,,,,,,,,,,,,,,,,,,,,,,,,,,,,,,,,,,,,,,,,,,,,,,,,,,,,,,,,,,,,,,,,,,,,,,,,,,,,,
,,697bcf84091fa31a4228774c,2026-03-17_12h03.10.648,kallum_motion_pilot_GIST_update_2,2026.1.1,Win32,60.24096386,697bcf84091fa31a4228774c,69b95efdef24cd8a694e89ee,69b96c21124aeb52c0000699,0.0137,0.0137,0,39,39,75,1,twofour,,,,,,,,,,,,,,,,,,,,,,,,,,,,,,,,,,,,,,,,,,,,,,,,,,,,,,,,,,,,,,,,,,,,,,,,,,,,,,,,,,,,,,,,,,,,,,,,,,,,,,,,,,,,,,,,,,,,,,,,,,,,,,,,,,,,,,,,,
,,697bcf84091fa31a4228774c,2026-03-17_12h03.10.648,kallum_motion_pilot_GIST_update_2,2026.1.1,Win32,60.24096386,697bcf84091fa31a4228774c,69b95efdef24cd8a694e89ee,69b96c21124aeb52c0000699,0.0139,0.0139,0,40,40,149,1,seveneight,,,,,,,,,,,,,,,,,,,,,,,,,,,,,,,,,,,,,,,,,,,,,,,,,,,,,,,,,,,,,,,,,,,,,,,,,,,,,,,,,,,,,,,,,,,,,,,,,,,,,,,,,,,,,,,,,,,,,,,,,,,,,,,,,,,,,,,,,
,,697bcf84091fa31a4228774c,2026-03-17_12h03.10.648,kallum_motion_pilot_GIST_update_2,2026.1.1,Win32,60.24096386,697bcf84091fa31a4228774c,69b95efdef24cd8a694e89ee,69b96c21124aeb52c0000699,0.0139,0.0139,0,41,41,152,1,fivesix,,,,,,,,,,,,,,,,,,,,,,,,,,,,,,,,,,,,,,,,,,,,,,,,,,,,,,,,,,,,,,,,,,,,,,,,,,,,,,,,,,,,,,,,,,,,,,,,,,,,,,,,,,,,,,,,,,,,,,,,,,,,,,,,,,,,,,,,,
,,697bcf84091fa31a4228774c,2026-03-17_12h03.10.648,kallum_motion_pilot_GIST_update_2,2026.1.1,Win32,60.24096386,697bcf84091fa31a4228774c,69b95efdef24cd8a694e89ee,69b96c21124aeb52c0000699,0.014,0.014,0,42,42,80,1,fivesix,,,,,,,,,,,,,,,,,,,,,,,,,,,,,,,,,,,,,,,,,,,,,,,,,,,,,,,,,,,,,,,,,,,,,,,,,,,,,,,,,,,,,,,,,,,,,,,,,,,,,,,,,,,,,,,,,,,,,,,,,,,,,,,,,,,,,,,,,
,,697bcf84091fa31a4228774c,2026-03-17_12h03.10.648,kallum_motion_pilot_GIST_update_2,2026.1.1,Win32,60.24096386,697bcf84091fa31a4228774c,69b95efdef24cd8a694e89ee,69b96c21124aeb52c0000699,0.014,0.014,0,43,43,67,1,twofour,,,,,,,,,,,,,,,,,,,,,,,,,,,,,,,,,,,,,,,,,,,,,,,,,,,,,,,,,,,,,,,,,,,,,,,,,,,,,,,,,,,,,,,,,,,,,,,,,,,,,,,,,,,,,,,,,,,,,,,,,,,,,,,,,,,,,,,,,
,,697bcf84091fa31a4228774c,2026-03-17_12h03.10.648,kallum_motion_pilot_GIST_update_2,2026.1.1,Win32,60.24096386,697bcf84091fa31a4228774c,69b95efdef24cd8a694e89ee,69b96c21124aeb52c0000699,0.014,0.014,0,44,44,132,1,sevenfive,,,,,,,,,,,,,,,,,,,,,,,,,,,,,,,,,,,,,,,,,,,,,,,,,,,,,,,,,,,,,,,,,,,,,,,,,,,,,,,,,,,,,,,,,,,,,,,,,,,,,,,,,,,,,,,,,,,,,,,,,,,,,,,,,,,,,,,,,
,,697bcf84091fa31a4228774c,2026-03-17_12h03.10.648,kallum_motion_pilot_GIST_update_2,2026.1.1,Win32,60.24096386,697bcf84091fa31a4228774c,69b95efdef24cd8a694e89ee,69b96c21124aeb52c0000699,0.0141,0.0141,0,45,45,124,1,sevenfive,,,,,,,,,,,,,,,,,,,,,,,,,,,,,,,,,,,,,,,,,,,,,,,,,,,,,,,,,,,,,,,,,,,,,,,,,,,,,,,,,,,,,,,,,,,,,,,,,,,,,,,,,,,,,,,,,,,,,,,,,,,,,,,,,,,,,,,,,
,,697bcf84091fa31a4228774c,2026-03-17_12h03.10.648,kallum_motion_pilot_GIST_update_2,2026.1.1,Win32,60.24096386,697bcf84091fa31a4228774c,69b95efdef24cd8a694e89ee,69b96c21124aeb52c0000699,0.0141,0.0141,0,46,46,49,1,onethree,,,,,,,,,,,,,,,,,,,,,,,,,,,,,,,,,,,,,,,,,,,,,,,,,,,,,,,,,,,,,,,,,,,,,,,,,,,,,,,,,,,,,,,,,,,,,,,,,,,,,,,,,,,,,,,,,,,,,,,,,,,,,,,,,,,,,,,,,
,,697bcf84091fa31a4228774c,2026-03-17_12h03.10.648,kallum_motion_pilot_GIST_update_2,2026.1.1,Win32,60.24096386,697bcf84091fa31a4228774c,69b95efdef24cd8a694e89ee,69b96c21124aeb52c0000699,0.0142,0.0143,0,47,47,38,1,fourtwo,,,,,,,,,,,,,,,,,,,,,,,,,,,,,,,,,,,,,,,,,,,,,,,,,,,,,,,,,,,,,,,,,,,,,,,,,,,,,,,,,,,,,,,,,,,,,,,,,,,,,,,,,,,,,,,,,,,,,,,,,,,,,,,,,,,,,,,,,
,,697bcf84091fa31a4228774c,2026-03-17_12h03.10.648,kallum_motion_pilot_GIST_update_2,2026.1.1,Win32,60.24096386,697bcf84091fa31a4228774c,69b95efdef24cd8a694e89ee,69b96c21124aeb52c0000699,0.0143,0.0143,0,48,48,90,1,sixfive,,,,,,,,,,,,,,,,,,,,,,,,,,,,,,,,,,,,,,,,,,,,,,,,,,,,,,,,,,,,,,,,,,,,,,,,,,,,,,,,,,,,,,,,,,,,,,,,,,,,,,,,,,,,,,,,,,,,,,,,,,,,,,,,,,,,,,,,,
,,697bcf84091fa31a4228774c,2026-03-17_12h03.10.648,kallum_motion_pilot_GIST_update_2,2026.1.1,Win32,60.24096386,697bcf84091fa31a4228774c,69b95efdef24cd8a694e89ee,69b96c21124aeb52c0000699,0.0143,0.0143,0,49,49,130,1,sixfive,,,,,,,,,,,,,,,,,,,,,,,,,,,,,,,,,,,,,,,,,,,,,,,,,,,,,,,,,,,,,,,,,,,,,,,,,,,,,,,,,,,,,,,,,,,,,,,,,,,,,,,,,,,,,,,,,,,,,,,,,,,,,,,,,,,,,,,,,
,,697bcf84091fa31a4228774c,2026-03-17_12h03.10.648,kallum_motion_pilot_GIST_update_2,2026.1.1,Win32,60.24096386,697bcf84091fa31a4228774c,69b95efdef24cd8a694e89ee,69b96c21124aeb52c0000699,0.0144,0.0144,0,50,50,135,1,eightseven,,,,,,,,,,,,,,,,,,,,,,,,,,,,,,,,,,,,,,,,,,,,,,,,,,,,,,,,,,,,,,,,,,,,,,,,,,,,,,,,,,,,,,,,,,,,,,,,,,,,,,,,,,,,,,,,,,,,,,,,,,,,,,,,,,,,,,,,,
,,697bcf84091fa31a4228774c,2026-03-17_12h03.10.648,kallum_motion_pilot_GIST_update_2,2026.1.1,Win32,60.24096386,697bcf84091fa31a4228774c,69b95efdef24cd8a694e89ee,69b96c21124aeb52c0000699,0.0144,0.0144,0,51,51,82,1,sixfive,,,,,,,,,,,,,,,,,,,,,,,,,,,,,,,,,,,,,,,,,,,,,,,,,,,,,,,,,,,,,,,,,,,,,,,,,,,,,,,,,,,,,,,,,,,,,,,,,,,,,,,,,,,,,,,,,,,,,,,,,,,,,,,,,,,,,,,,,
,,697bcf84091fa31a4228774c,2026-03-17_12h03.10.648,kallum_motion_pilot_GIST_update_2,2026.1.1,Win32,60.24096386,697bcf84091fa31a4228774c,69b95efdef24cd8a694e89ee,69b96c21124aeb52c0000699,0.0145,0.0145,0,52,52,40,1,onetwo,,,,,,,,,,,,,,,,,,,,,,,,,,,,,,,,,,,,,,,,,,,,,,,,,,,,,,,,,,,,,,,,,,,,,,,,,,,,,,,,,,,,,,,,,,,,,,,,,,,,,,,,,,,,,,,,,,,,,,,,,,,,,,,,,,,,,,,,,
,,697bcf84091fa31a4228774c,2026-03-17_12h03.10.648,kallum_motion_pilot_GIST_update_2,2026.1.1,Win32,60.24096386,697bcf84091fa31a4228774c,69b95efdef24cd8a694e89ee,69b96c21124aeb52c0000699,0.0145,0.0145,0,53,53,14,1,fourtwo,,,,,,,,,,,,,,,,,,,,,,,,,,,,,,,,,,,,,,,,,,,,,,,,,,,,,,,,,,,,,,,,,,,,,,,,,,,,,,,,,,,,,,,,,,,,,,,,,,,,,,,,,,,,,,,,,,,,,,,,,,,,,,,,,,,,,,,,,
,,697bcf84091fa31a4228774c,2026-03-17_12h03.10.648,kallum_motion_pilot_GIST_update_2,2026.1.1,Win32,60.24096386,697bcf84091fa31a4228774c,69b95efdef24cd8a694e89ee,69b96c21124aeb52c0000699,0.0146,0.0146,0,54,54,107,1,sixeight,,,,,,,,,,,,,,,,,,,,,,,,,,,,,,,,,,,,,,,,,,,,,,,,,,,,,,,,,,,,,,,,,,,,,,,,,,,,,,,,,,,,,,,,,,,,,,,,,,,,,,,,,,,,,,,,,,,,,,,,,,,,,,,,,,,,,,,,,
,,697bcf84091fa31a4228774c,2026-03-17_12h03.10.648,kallum_motion_pilot_GIST_update_2,2026.1.1,Win32,60.24096386,697bcf84091fa31a4228774c,69b95efdef24cd8a694e89ee,69b96c21124aeb52c0000699,0.0146,0.0146,0,55,55,58,1,twoone,,,,,,,,,,,,,,,,,,,,,,,,,,,,,,,,,,,,,,,,,,,,,,,,,,,,,,,,,,,,,,,,,,,,,,,,,,,,,,,,,,,,,,,,,,,,,,,,,,,,,,,,,,,,,,,,,,,,,,,,,,,,,,,,,,,,,,,,,
,,697bcf84091fa31a4228774c,2026-03-17_12h03.10.648,kallum_motion_pilot_GIST_update_2,2026.1.1,Win32,60.24096386,697bcf84091fa31a4228774c,69b95efdef24cd8a694e89ee,69b96c21124aeb52c0000699,0.0147,0.0147,0,56,56,94,1,eightsix,,,,,,,,,,,,,,,,,,,,,,,,,,,,,,,,,,,,,,,,,,,,,,,,,,,,,,,,,,,,,,,,,,,,,,,,,,,,,,,,,,,,,,,,,,,,,,,,,,,,,,,,,,,,,,,,,,,,,,,,,,,,,,,,,,,,,,,,,
,,697bcf84091fa31a4228774c,2026-03-17_12h03.10.648,kallum_motion_pilot_GIST_update_2,2026.1.1,Win32,60.24096386,697bcf84091fa31a4228774c,69b95efdef24cd8a694e89ee,69b96c21124aeb52c0000699,0.0148,0.0148,0,57,57,60,1,threeone,,,,,,,,,,,,,,,,,,,,,,,,,,,,,,,,,,,,,,,,,,,,,,,,,,,,,,,,,,,,,,,,,,,,,,,,,,,,,,,,,,,,,,,,,,,,,,,,,,,,,,,,,,,,,,,,,,,,,,,,,,,,,,,,,,,,,,,,,
,,697bcf84091fa31a4228774c,2026-03-17_12h03.10.648,kallum_motion_pilot_GIST_update_2,2026.1.1,Win32,60.24096386,697bcf84091fa31a4228774c,69b95efdef24cd8a694e89ee,69b96c21124aeb52c0000699,0.0148,0.0148,0,58,58,98,1,sixfive,,,,,,,,,,,,,,,,,,,,,,,,,,,,,,,,,,,,,,,,,,,,,,,,,,,,,,,,,,,,,,,,,,,,,,,,,,,,,,,,,,,,,,,,,,,,,,,,,,,,,,,,,,,,,,,,,,,,,,,,,,,,,,,,,,,,,,,,,
,,697bcf84091fa31a4228774c,2026-03-17_12h03.10.648,kallum_motion_pilot_GIST_update_2,2026.1.1,Win32,60.24096386,697bcf84091fa31a4228774c,69b95efdef24cd8a694e89ee,69b96c21124aeb52c0000699,0.0149,0.0149,0,59,59,142,1,eightsix,,,,,,,,,,,,,,,,,,,,,,,,,,,,,,,,,,,,,,,,,,,,,,,,,,,,,,,,,,,,,,,,,,,,,,,,,,,,,,,,,,,,,,,,,,,,,,,,,,,,,,,,,,,,,,,,,,,,,,,,,,,,,,,,,,,,,,,,,
,,697bcf84091fa31a4228774c,2026-03-17_12h03.10.648,kallum_motion_pilot_GIST_update_2,2026.1.1,Win32,60.24096386,697bcf84091fa31a4228774c,69b95efdef24cd8a694e89ee,69b96c21124aeb52c0000699,0.0149,0.015,0,60,60,6,1,fourtwo,,,,,,,,,,,,,,,,,,,,,,,,,,,,,,,,,,,,,,,,,,,,,,,,,,,,,,,,,,,,,,,,,,,,,,,,,,,,,,,,,,,,,,,,,,,,,,,,,,,,,,,,,,,,,,,,,,,,,,,,,,,,,,,,,,,,,,,,,
,,697bcf84091fa31a4228774c,2026-03-17_12h03.10.648,kallum_motion_pilot_GIST_update_2,2026.1.1,Win32,60.24096386,697bcf84091fa31a4228774c,69b95efdef24cd8a694e89ee,69b96c21124aeb52c0000699,0.015,0.015,0,61,61,154,1,sixfive,,,,,,,,,,,,,,,,,,,,,,,,,,,,,,,,,,,,,,,,,,,,,,,,,,,,,,,,,,,,,,,,,,,,,,,,,,,,,,,,,,,,,,,,,,,,,,,,,,,,,,,,,,,,,,,,,,,,,,,,,,,,,,,,,,,,,,,,,
,,697bcf84091fa31a4228774c,2026-03-17_12h03.10.648,kallum_motion_pilot_GIST_update_2,2026.1.1,Win32,60.24096386,697bcf84091fa31a4228774c,69b95efdef24cd8a694e89ee,69b96c21124aeb52c0000699,0.0151,0.0151,0,62,62,104,1,fivesix,,,,,,,,,,,,,,,,,,,,,,,,,,,,,,,,,,,,,,,,,,,,,,,,,,,,,,,,,,,,,,,,,,,,,,,,,,,,,,,,,,,,,,,,,,,,,,,,,,,,,,,,,,,,,,,,,,,,,,,,,,,,,,,,,,,,,,,,,
,,697bcf84091fa31a4228774c,2026-03-17_12h03.10.648,kallum_motion_pilot_GIST_update_2,2026.1.1,Win32,60.24096386,697bcf84091fa31a4228774c,69b95efdef24cd8a694e89ee,69b96c21124aeb52c0000699,0.0151,0.0151,0,63,63,109,1,seveneight,,,,,,,,,,,,,,,,,,,,,,,,,,,,,,,,,,,,,,,,,,,,,,,,,,,,,,,,,,,,,,,,,,,,,,,,,,,,,,,,,,,,,,,,,,,,,,,,,,,,,,,,,,,,,,,,,,,,,,,,,,,,,,,,,,,,,,,,,
,,697bcf84091fa31a4228774c,2026-03-17_12h03.10.648,kallum_motion_pilot_GIST_update_2,2026.1.1,Win32,60.24096386,697bcf84091fa31a4228774c,69b95efdef24cd8a694e89ee,69b96c21124aeb52c0000699,0.0152,0.0152,0,64,64,59,1,twofour,,,,,,,,,,,,,,,,,,,,,,,,,,,,,,,,,,,,,,,,,,,,,,,,,,,,,,,,,,,,,,,,,,,,,,,,,,,,,,,,,,,,,,,,,,,,,,,,,,,,,,,,,,,,,,,,,,,,,,,,,,,,,,,,,,,,,,,,,
,,697bcf84091fa31a4228774c,2026-03-17_12h03.10.648,kallum_motion_pilot_GIST_update_2,2026.1.1,Win32,60.24096386,697bcf84091fa31a4228774c,69b95efdef24cd8a694e89ee,69b96c21124aeb52c0000699,0.0152,0.0152,0,65,65,9,1,onethree,,,,,,,,,,,,,,,,,,,,,,,,,,,,,,,,,,,,,,,,,,,,,,,,,,,,,,,,,,,,,,,,,,,,,,,,,,,,,,,,,,,,,,,,,,,,,,,,,,,,,,,,,,,,,,,,,,,,,,,,,,,,,,,,,,,,,,,,,
,,697bcf84091fa31a4228774c,2026-03-17_12h03.10.648,kallum_motion_pilot_GIST_update_2,2026.1.1,Win32,60.24096386,697bcf84091fa31a4228774c,69b95efdef24cd8a694e89ee,69b96c21124aeb52c0000699,0.0153,0.0153,0,66,66,35,1,twofour,,,,,,,,,,,,,,,,,,,,,,,,,,,,,,,,,,,,,,,,,,,,,,,,,,,,,,,,,,,,,,,,,,,,,,,,,,,,,,,,,,,,,,,,,,,,,,,,,,,,,,,,,,,,,,,,,,,,,,,,,,,,,,,,,,,,,,,,,
,,697bcf84091fa31a4228774c,2026-03-17_12h03.10.648,kallum_motion_pilot_GIST_update_2,2026.1.1,Win32,60.24096386,697bcf84091fa31a4228774c,69b95efdef24cd8a694e89ee,69b96c21124aeb52c0000699,0.0153,0.0153,0,67,67,100,1,sevenfive,,,,,,,,,,,,,,,,,,,,,,,,,,,,,,,,,,,,,,,,,,,,,,,,,,,,,,,,,,,,,,,,,,,,,,,,,,,,,,,,,,,,,,,,,,,,,,,,,,,,,,,,,,,,,,,,,,,,,,,,,,,,,,,,,,,,,,,,,
,,697bcf84091fa31a4228774c,2026-03-17_12h03.10.648,kallum_motion_pilot_GIST_update_2,2026.1.1,Win32,60.24096386,697bcf84091fa31a4228774c,69b95efdef24cd8a694e89ee,69b96c21124aeb52c0000699,0.0154,0.0154,0,68,68,138,1,sixfive,,,,,,,,,,,,,,,,,,,,,,,,,,,,,,,,,,,,,,,,,,,,,,,,,,,,,,,,,,,,,,,,,,,,,,,,,,,,,,,,,,,,,,,,,,,,,,,,,,,,,,,,,,,,,,,,,,,,,,,,,,,,,,,,,,,,,,,,,
,,697bcf84091fa31a4228774c,2026-03-17_12h03.10.648,kallum_motion_pilot_GIST_update_2,2026.1.1,Win32,60.24096386,697bcf84091fa31a4228774c,69b95efdef24cd8a694e89ee,69b96c21124aeb52c0000699,0.0155,0.0155,0,69,69,89,1,fiveseven,,,,,,,,,,,,,,,,,,,,,,,,,,,,,,,,,,,,,,,,,,,,,,,,,,,,,,,,,,,,,,,,,,,,,,,,,,,,,,,,,,,,,,,,,,,,,,,,,,,,,,,,,,,,,,,,,,,,,,,,,,,,,,,,,,,,,,,,,
,,697bcf84091fa31a4228774c,2026-03-17_12h03.10.648,kallum_motion_pilot_GIST_update_2,2026.1.1,Win32,60.24096386,697bcf84091fa31a4228774c,69b95efdef24cd8a694e89ee,69b96c21124aeb52c0000699,0.0155,0.0155,0,70,70,41,1,onethree,,,,,,,,,,,,,,,,,,,,,,,,,,,,,,,,,,,,,,,,,,,,,,,,,,,,,,,,,,,,,,,,,,,,,,,,,,,,,,,,,,,,,,,,,,,,,,,,,,,,,,,,,,,,,,,,,,,,,,,,,,,,,,,,,,,,,,,,,
,,697bcf84091fa31a4228774c,2026-03-17_12h03.10.648,kallum_motion_pilot_GIST_update_2,2026.1.1,Win32,60.24096386,697bcf84091fa31a4228774c,69b95efdef24cd8a694e89ee,69b96c21124aeb52c0000699,0.0156,0.0156,0,71,71,116,1,sevenfive,,,,,,,,,,,,,,,,,,,,,,,,,,,,,,,,,,,,,,,,,,,,,,,,,,,,,,,,,,,,,,,,,,,,,,,,,,,,,,,,,,,,,,,,,,,,,,,,,,,,,,,,,,,,,,,,,,,,,,,,,,,,,,,,,,,,,,,,,
,,697bcf84091fa31a4228774c,2026-03-17_12h03.10.648,kallum_motion_pilot_GIST_update_2,2026.1.1,Win32,60.24096386,697bcf84091fa31a4228774c,69b95efdef24cd8a694e89ee,69b96c21124aeb52c0000699,0.0156,0.0156,0,72,72,86,1,eightsix,,,,,,,,,,,,,,,,,,,,,,,,,,,,,,,,,,,,,,,,,,,,,,,,,,,,,,,,,,,,,,,,,,,,,,,,,,,,,,,,,,,,,,,,,,,,,,,,,,,,,,,,,,,,,,,,,,,,,,,,,,,,,,,,,,,,,,,,,
,,697bcf84091fa31a4228774c,2026-03-17_12h03.10.648,kallum_motion_pilot_GIST_update_2,2026.1.1,Win32,60.24096386,697bcf84091fa31a4228774c,69b95efdef24cd8a694e89ee,69b96c21124aeb52c0000699,0.0157,0.0157,0,73,73,128,1,fivesix,,,,,,,,,,,,,,,,,,,,,,,,,,,,,,,,,,,,,,,,,,,,,,,,,,,,,,,,,,,,,,,,,,,,,,,,,,,,,,,,,,,,,,,,,,,,,,,,,,,,,,,,,,,,,,,,,,,,,,,,,,,,,,,,,,,,,,,,,
,,697bcf84091fa31a4228774c,2026-03-17_12h03.10.648,kallum_motion_pilot_GIST_update_2,2026.1.1,Win32,60.24096386,697bcf84091fa31a4228774c,69b95efdef24cd8a694e89ee,69b96c21124aeb52c0000699,0.0158,0.0158,0,74,74,36,1,threeone,,,,,,,,,,,,,,,,,,,,,,,,,,,,,,,,,,,,,,,,,,,,,,,,,,,,,,,,,,,,,,,,,,,,,,,,,,,,,,,,,,,,,,,,,,,,,,,,,,,,,,,,,,,,,,,,,,,,,,,,,,,,,,,,,,,,,,,,,
,,697bcf84091fa31a4228774c,2026-03-17_12h03.10.648,kallum_motion_pilot_GIST_update_2,2026.1.1,Win32,60.24096386,697bcf84091fa31a4228774c,69b95efdef24cd8a694e89ee,69b96c21124aeb52c0000699,0.0159,0.0159,0,75,75,157,1,seveneight,,,,,,,,,,,,,,,,,,,,,,,,,,,,,,,,,,,,,,,,,,,,,,,,,,,,,,,,,,,,,,,,,,,,,,,,,,,,,,,,,,,,,,,,,,,,,,,,,,,,,,,,,,,,,,,,,,,,,,,,,,,,,,,,,,,,,,,,,
,,697bcf84091fa31a4228774c,2026-03-17_12h03.10.648,kallum_motion_pilot_GIST_update_2,2026.1.1,Win32,60.24096386,697bcf84091fa31a4228774c,69b95efdef24cd8a694e89ee,69b96c21124aeb52c0000699,0.0159,0.0159,0,76,76,78,1,fourtwo,,,,,,,,,,,,,,,,,,,,,,,,,,,,,,,,,,,,,,,,,,,,,,,,,,,,,,,,,,,,,,,,,,,,,,,,,,,,,,,,,,,,,,,,,,,,,,,,,,,,,,,,,,,,,,,,,,,,,,,,,,,,,,,,,,,,,,,,,
,,697bcf84091fa31a4228774c,2026-03-17_12h03.10.648,kallum_motion_pilot_GIST_update_2,2026.1.1,Win32,60.24096386,697bcf84091fa31a4228774c,69b95efdef24cd8a694e89ee,69b96c21124aeb52c0000699,0.0159,0.0159,0,77,77,115,1,sixeight,,,,,,,,,,,,,,,,,,,,,,,,,,,,,,,,,,,,,,,,,,,,,,,,,,,,,,,,,,,,,,,,,,,,,,,,,,,,,,,,,,,,,,,,,,,,,,,,,,,,,,,,,,,,,,,,,,,,,,,,,,,,,,,,,,,,,,,,,
,,697bcf84091fa31a4228774c,2026-03-17_12h03.10.648,kallum_motion_pilot_GIST_update_2,2026.1.1,Win32,60.24096386,697bcf84091fa31a4228774c,69b95efdef24cd8a694e89ee,69b96c21124aeb52c0000699,0.016,0.016,0,78,78,0,1,onetwo,,,,,,,,,,,,,,,,,,,,,,,,,,,,,,,,,,,,,,,,,,,,,,,,,,,,,,,,,,,,,,,,,,,,,,,,,,,,,,,,,,,,,,,,,,,,,,,,,,,,,,,,,,,,,,,,,,,,,,,,,,,,,,,,,,,,,,,,,
,,697bcf84091fa31a4228774c,2026-03-17_12h03.10.648,kallum_motion_pilot_GIST_update_2,2026.1.1,Win32,60.24096386,697bcf84091fa31a4228774c,69b95efdef24cd8a694e89ee,69b96c21124aeb52c0000699,0.0161,0.0161,0,79,79,47,1,fourthree,,,,,,,,,,,,,,,,,,,,,,,,,,,,,,,,,,,,,,,,,,,,,,,,,,,,,,,,,,,,,,,,,,,,,,,,,,,,,,,,,,,,,,,,,,,,,,,,,,,,,,,,,,,,,,,,,,,,,,,,,,,,,,,,,,,,,,,,,
,,697bcf84091fa31a4228774c,2026-03-17_12h03.10.648,kallum_motion_pilot_GIST_update_2,2026.1.1,Win32,60.24096386,697bcf84091fa31a4228774c,69b95efdef24cd8a694e89ee,69b96c21124aeb52c0000699,0.0162,0.0162,0,80,80,105,1,fiveseven,,,,,,,,,,,,,,,,,,,,,,,,,,,,,,,,,,,,,,,,,,,,,,,,,,,,,,,,,,,,,,,,,,,,,,,,,,,,,,,,,,,,,,,,,,,,,,,,,,,,,,,,,,,,,,,,,,,,,,,,,,,,,,,,,,,,,,,,,
,,697bcf84091fa31a4228774c,2026-03-17_12h03.10.648,kallum_motion_pilot_GIST_update_2,2026.1.1,Win32,60.24096386,697bcf84091fa31a4228774c,69b95efdef24cd8a694e89ee,69b96c21124aeb52c0000699,0.0162,0.0162,0,81,81,96,1,fivesix,,,,,,,,,,,,,,,,,,,,,,,,,,,,,,,,,,,,,,,,,,,,,,,,,,,,,,,,,,,,,,,,,,,,,,,,,,,,,,,,,,,,,,,,,,,,,,,,,,,,,,,,,,,,,,,,,,,,,,,,,,,,,,,,,,,,,,,,,
,,697bcf84091fa31a4228774c,2026-03-17_12h03.10.648,kallum_motion_pilot_GIST_update_2,2026.1.1,Win32,60.24096386,697bcf84091fa31a4228774c,69b95efdef24cd8a694e89ee,69b96c21124aeb52c0000699,0.0162,0.0162,0,82,82,97,1,fiveseven,,,,,,,,,,,,,,,,,,,,,,,,,,,,,,,,,,,,,,,,,,,,,,,,,,,,,,,,,,,,,,,,,,,,,,,,,,,,,,,,,,,,,,,,,,,,,,,,,,,,,,,,,,,,,,,,,,,,,,,,,,,,,,,,,,,,,,,,,
,,697bcf84091fa31a4228774c,2026-03-17_12h03.10.648,kallum_motion_pilot_GIST_update_2,2026.1.1,Win32,60.24096386,697bcf84091fa31a4228774c,69b95efdef24cd8a694e89ee,69b96c21124aeb52c0000699,0.0163,0.0163,0,83,83,91,1,sixeight,,,,,,,,,,,,,,,,,,,,,,,,,,,,,,,,,,,,,,,,,,,,,,,,,,,,,,,,,,,,,,,,,,,,,,,,,,,,,,,,,,,,,,,,,,,,,,,,,,,,,,,,,,,,,,,,,,,,,,,,,,,,,,,,,,,,,,,,,
,,697bcf84091fa31a4228774c,2026-03-17_12h03.10.648,kallum_motion_pilot_GIST_update_2,2026.1.1,Win32,60.24096386,697bcf84091fa31a4228774c,69b95efdef24cd8a694e89ee,69b96c21124aeb52c0000699,0.0164,0.0164,0,84,84,127,1,eightseven,,,,,,,,,,,,,,,,,,,,,,,,,,,,,,,,,,,,,,,,,,,,,,,,,,,,,,,,,,,,,,,,,,,,,,,,,,,,,,,,,,,,,,,,,,,,,,,,,,,,,,,,,,,,,,,,,,,,,,,,,,,,,,,,,,,,,,,,,
,,697bcf84091fa31a4228774c,2026-03-17_12h03.10.648,kallum_motion_pilot_GIST_update_2,2026.1.1,Win32,60.24096386,697bcf84091fa31a4228774c,69b95efdef24cd8a694e89ee,69b96c21124aeb52c0000699,0.0165,0.0165,0,85,85,57,1,onethree,,,,,,,,,,,,,,,,,,,,,,,,,,,,,,,,,,,,,,,,,,,,,,,,,,,,,,,,,,,,,,,,,,,,,,,,,,,,,,,,,,,,,,,,,,,,,,,,,,,,,,,,,,,,,,,,,,,,,,,,,,,,,,,,,,,,,,,,,
,,697bcf84091fa31a4228774c,2026-03-17_12h03.10.648,kallum_motion_pilot_GIST_update_2,2026.1.1,Win32,60.24096386,697bcf84091fa31a4228774c,69b95efdef24cd8a694e89ee,69b96c21124aeb52c0000699,0.0165,0.0165,0,86,86,4,1,threeone,,,,,,,,,,,,,,,,,,,,,,,,,,,,,,,,,,,,,,,,,,,,,,,,,,,,,,,,,,,,,,,,,,,,,,,,,,,,,,,,,,,,,,,,,,,,,,,,,,,,,,,,,,,,,,,,,,,,,,,,,,,,,,,,,,,,,,,,,
,,697bcf84091fa31a4228774c,2026-03-17_12h03.10.648,kallum_motion_pilot_GIST_update_2,2026.1.1,Win32,60.24096386,697bcf84091fa31a4228774c,69b95efdef24cd8a694e89ee,69b96c21124aeb52c0000699,0.0166,0.0166,0,87,87,83,1,sixeight,,,,,,,,,,,,,,,,,,,,,,,,,,,,,,,,,,,,,,,,,,,,,,,,,,,,,,,,,,,,,,,,,,,,,,,,,,,,,,,,,,,,,,,,,,,,,,,,,,,,,,,,,,,,,,,,,,,,,,,,,,,,,,,,,,,,,,,,,
,,697bcf84091fa31a4228774c,2026-03-17_12h03.10.648,kallum_motion_pilot_GIST_update_2,2026.1.1,Win32,60.24096386,697bcf84091fa31a4228774c,69b95efdef24cd8a694e89ee,69b96c21124aeb52c0000699,0.0166,0.0166,0,88,88,120,1,fivesix,,,,,,,,,,,,,,,,,,,,,,,,,,,,,,,,,,,,,,,,,,,,,,,,,,,,,,,,,,,,,,,,,,,,,,,,,,,,,,,,,,,,,,,,,,,,,,,,,,,,,,,,,,,,,,,,,,,,,,,,,,,,,,,,,,,,,,,,,
,,697bcf84091fa31a4228774c,2026-03-17_12h03.10.648,kallum_motion_pilot_GIST_update_2,2026.1.1,Win32,60.24096386,697bcf84091fa31a4228774c,69b95efdef24cd8a694e89ee,69b96c21124aeb52c0000699,0.0167,0.0167,0,89,89,30,1,fourtwo,,,,,,,,,,,,,,,,,,,,,,,,,,,,,,,,,,,,,,,,,,,,,,,,,,,,,,,,,,,,,,,,,,,,,,,,,,,,,,,,,,,,,,,,,,,,,,,,,,,,,,,,,,,,,,,,,,,,,,,,,,,,,,,,,,,,,,,,,
,,697bcf84091fa31a4228774c,2026-03-17_12h03.10.648,kallum_motion_pilot_GIST_update_2,2026.1.1,Win32,60.24096386,697bcf84091fa31a4228774c,69b95efdef24cd8a694e89ee,69b96c21124aeb52c0000699,0.0168,0.0168,0,90,90,50,1,twoone,,,,,,,,,,,,,,,,,,,,,,,,,,,,,,,,,,,,,,,,,,,,,,,,,,,,,,,,,,,,,,,,,,,,,,,,,,,,,,,,,,,,,,,,,,,,,,,,,,,,,,,,,,,,,,,,,,,,,,,,,,,,,,,,,,,,,,,,,
,,697bcf84091fa31a4228774c,2026-03-17_12h03.10.648,kallum_motion_pilot_GIST_update_2,2026.1.1,Win32,60.24096386,697bcf84091fa31a4228774c,69b95efdef24cd8a694e89ee,69b96c21124aeb52c0000699,0.0169,0.0169,0,91,91,144,1,fivesix,,,,,,,,,,,,,,,,,,,,,,,,,,,,,,,,,,,,,,,,,,,,,,,,,,,,,,,,,,,,,,,,,,,,,,,,,,,,,,,,,,,,,,,,,,,,,,,,,,,,,,,,,,,,,,,,,,,,,,,,,,,,,,,,,,,,,,,,,
,,697bcf84091fa31a4228774c,2026-03-17_12h03.10.648,kallum_motion_pilot_GIST_update_2,2026.1.1,Win32,60.24096386,697bcf84091fa31a4228774c,69b95efdef24cd8a694e89ee,69b96c21124aeb52c0000699,0.0169,0.0169,0,92,92,87,1,eightseven,,,,,,,,,,,,,,,,,,,,,,,,,,,,,,,,,,,,,,,,,,,,,,,,,,,,,,,,,,,,,,,,,,,,,,,,,,,,,,,,,,,,,,,,,,,,,,,,,,,,,,,,,,,,,,,,,,,,,,,,,,,,,,,,,,,,,,,,,
,,697bcf84091fa31a4228774c,2026-03-17_12h03.10.648,kallum_motion_pilot_GIST_update_2,2026.1.1,Win32,60.24096386,697bcf84091fa31a4228774c,69b95efdef24cd8a694e89ee,69b96c21124aeb52c0000699,0.0169,0.0169,0,93,93,129,1,fiveseven,,,,,,,,,,,,,,,,,,,,,,,,,,,,,,,,,,,,,,,,,,,,,,,,,,,,,,,,,,,,,,,,,,,,,,,,,,,,,,,,,,,,,,,,,,,,,,,,,,,,,,,,,,,,,,,,,,,,,,,,,,,,,,,,,,,,,,,,,
,,697bcf84091fa31a4228774c,2026-03-17_12h03.10.648,kallum_motion_pilot_GIST_update_2,2026.1.1,Win32,60.24096386,697bcf84091fa31a4228774c,69b95efdef24cd8a694e89ee,69b96c21124aeb52c0000699,0.017,0.017,0,94,94,68,1,threeone,,,,,,,,,,,,,,,,,,,,,,,,,,,,,,,,,,,,,,,,,,,,,,,,,,,,,,,,,,,,,,,,,,,,,,,,,,,,,,,,,,,,,,,,,,,,,,,,,,,,,,,,,,,,,,,,,,,,,,,,,,,,,,,,,,,,,,,,,
,,697bcf84091fa31a4228774c,2026-03-17_12h03.10.648,kallum_motion_pilot_GIST_update_2,2026.1.1,Win32,60.24096386,697bcf84091fa31a4228774c,69b95efdef24cd8a694e89ee,69b96c21124aeb52c0000699,0.0171,0.0171,0,95,95,33,1,onethree,,,,,,,,,,,,,,,,,,,,,,,,,,,,,,,,,,,,,,,,,,,,,,,,,,,,,,,,,,,,,,,,,,,,,,,,,,,,,,,,,,,,,,,,,,,,,,,,,,,,,,,,,,,,,,,,,,,,,,,,,,,,,,,,,,,,,,,,,
,,697bcf84091fa31a4228774c,2026-03-17_12h03.10.648,kallum_motion_pilot_GIST_update_2,2026.1.1,Win32,60.24096386,697bcf84091fa31a4228774c,69b95efdef24cd8a694e89ee,69b96c21124aeb52c0000699,0.0172,0.0172,0,96,96,112,1,fivesix,,,,,,,,,,,,,,,,,,,,,,,,,,,,,,,,,,,,,,,,,,,,,,,,,,,,,,,,,,,,,,,,,,,,,,,,,,,,,,,,,,,,,,,,,,,,,,,,,,,,,,,,,,,,,,,,,,,,,,,,,,,,,,,,,,,,,,,,,
,,697bcf84091fa31a4228774c,2026-03-17_12h03.10.648,kallum_motion_pilot_GIST_update_2,2026.1.1,Win32,60.24096386,697bcf84091fa31a4228774c,69b95efdef24cd8a694e89ee,69b96c21124aeb52c0000699,0.0172,0.0172,0,97,97,70,1,fourtwo,,,,,,,,,,,,,,,,,,,,,,,,,,,,,,,,,,,,,,,,,,,,,,,,,,,,,,,,,,,,,,,,,,,,,,,,,,,,,,,,,,,,,,,,,,,,,,,,,,,,,,,,,,,,,,,,,,,,,,,,,,,,,,,,,,,,,,,,,
,,697bcf84091fa31a4228774c,2026-03-17_12h03.10.648,kallum_motion_pilot_GIST_update_2,2026.1.1,Win32,60.24096386,697bcf84091fa31a4228774c,69b95efdef24cd8a694e89ee,69b96c21124aeb52c0000699,0.0172,0.0172,0,98,98,27,1,twofour,,,,,,,,,,,,,,,,,,,,,,,,,,,,,,,,,,,,,,,,,,,,,,,,,,,,,,,,,,,,,,,,,,,,,,,,,,,,,,,,,,,,,,,,,,,,,,,,,,,,,,,,,,,,,,,,,,,,,,,,,,,,,,,,,,,,,,,,,
,,697bcf84091fa31a4228774c,2026-03-17_12h03.10.648,kallum_motion_pilot_GIST_update_2,2026.1.1,Win32,60.24096386,697bcf84091fa31a4228774c,69b95efdef24cd8a694e89ee,69b96c21124aeb52c0000699,0.0173,0.0173,0,99,99,102,1,eightsix,,,,,,,,,,,,,,,,,,,,,,,,,,,,,,,,,,,,,,,,,,,,,,,,,,,,,,,,,,,,,,,,,,,,,,,,,,,,,,,,,,,,,,,,,,,,,,,,,,,,,,,,,,,,,,,,,,,,,,,,,,,,,,,,,,,,,,,,,
,,697bcf84091fa31a4228774c,2026-03-17_12h03.10.648,kallum_motion_pilot_GIST_update_2,2026.1.1,Win32,60.24096386,697bcf84091fa31a4228774c,69b95efdef24cd8a694e89ee,69b96c21124aeb52c0000699,0.0174,0.0174,0,100,100,51,1,twofour,,,,,,,,,,,,,,,,,,,,,,,,,,,,,,,,,,,,,,,,,,,,,,,,,,,,,,,,,,,,,,,,,,,,,,,,,,,,,,,,,,,,,,,,,,,,,,,,,,,,,,,,,,,,,,,,,,,,,,,,,,,,,,,,,,,,,,,,,
,,697bcf84091fa31a4228774c,2026-03-17_12h03.10.648,kallum_motion_pilot_GIST_update_2,2026.1.1,Win32,60.24096386,697bcf84091fa31a4228774c,69b95efdef24cd8a694e89ee,69b96c21124aeb52c0000699,0.0175,0.0175,0,101,101,133,1,seveneight,,,,,,,,,,,,,,,,,,,,,,,,,,,,,,,,,,,,,,,,,,,,,,,,,,,,,,,,,,,,,,,,,,,,,,,,,,,,,,,,,,,,,,,,,,,,,,,,,,,,,,,,,,,,,,,,,,,,,,,,,,,,,,,,,,,,,,,,,
,,697bcf84091fa31a4228774c,2026-03-17_12h03.10.648,kallum_motion_pilot_GIST_update_2,2026.1.1,Win32,60.24096386,697bcf84091fa31a4228774c,69b95efdef24cd8a694e89ee,69b96c21124aeb52c0000699,0.0176,0.0176,0,102,102,13,1,threefour,,,,,,,,,,,,,,,,,,,,,,,,,,,,,,,,,,,,,,,,,,,,,,,,,,,,,,,,,,,,,,,,,,,,,,,,,,,,,,,,,,,,,,,,,,,,,,,,,,,,,,,,,,,,,,,,,,,,,,,,,,,,,,,,,,,,,,,,,
,,697bcf84091fa31a4228774c,2026-03-17_12h03.10.648,kallum_motion_pilot_GIST_update_2,2026.1.1,Win32,60.24096386,697bcf84091fa31a4228774c,69b95efdef24cd8a694e89ee,69b96c21124aeb52c0000699,0.0176,0.0176,0,103,103,7,1,fourthree,,,,,,,,,,,,,,,,,,,,,,,,,,,,,,,,,,,,,,,,,,,,,,,,,,,,,,,,,,,,,,,,,,,,,,,,,,,,,,,,,,,,,,,,,,,,,,,,,,,,,,,,,,,,,,,,,,,,,,,,,,,,,,,,,,,,,,,,,
,,697bcf84091fa31a4228774c,2026-03-17_12h03.10.648,kallum_motion_pilot_GIST_update_2,2026.1.1,Win32,60.24096386,697bcf84091fa31a4228774c,69b95efdef24cd8a694e89ee,69b96c21124aeb52c0000699,0.0176,0.0176,0,104,104,61,1,threefour,,,,,,,,,,,,,,,,,,,,,,,,,,,,,,,,,,,,,,,,,,,,,,,,,,,,,,,,,,,,,,,,,,,,,,,,,,,,,,,,,,,,,,,,,,,,,,,,,,,,,,,,,,,,,,,,,,,,,,,,,,,,,,,,,,,,,,,,,
,,697bcf84091fa31a4228774c,2026-03-17_12h03.10.648,kallum_motion_pilot_GIST_update_2,2026.1.1,Win32,60.24096386,697bcf84091fa31a4228774c,69b95efdef24cd8a694e89ee,69b96c21124aeb52c0000699,0.0177,0.0177,0,105,105,20,1,threeone,,,,,,,,,,,,,,,,,,,,,,,,,,,,,,,,,,,,,,,,,,,,,,,,,,,,,,,,,,,,,,,,,,,,,,,,,,,,,,,,,,,,,,,,,,,,,,,,,,,,,,,,,,,,,,,,,,,,,,,,,,,,,,,,,,,,,,,,,
,,697bcf84091fa31a4228774c,2026-03-17_12h03.10.648,kallum_motion_pilot_GIST_update_2,2026.1.1,Win32,60.24096386,697bcf84091fa31a4228774c,69b95efdef24cd8a694e89ee,69b96c21124aeb52c0000699,0.0178,0.0178,0,106,106,62,1,fourtwo,,,,,,,,,,,,,,,,,,,,,,,,,,,,,,,,,,,,,,,,,,,,,,,,,,,,,,,,,,,,,,,,,,,,,,,,,,,,,,,,,,,,,,,,,,,,,,,,,,,,,,,,,,,,,,,,,,,,,,,,,,,,,,,,,,,,,,,,,
,,697bcf84091fa31a4228774c,2026-03-17_12h03.10.648,kallum_motion_pilot_GIST_update_2,2026.1.1,Win32,60.24096386,697bcf84091fa31a4228774c,69b95efdef24cd8a694e89ee,69b96c21124aeb52c0000699,0.0178,0.0178,0,107,107,79,1,eightseven,,,,,,,,,,,,,,,,,,,,,,,,,,,,,,,,,,,,,,,,,,,,,,,,,,,,,,,,,,,,,,,,,,,,,,,,,,,,,,,,,,,,,,,,,,,,,,,,,,,,,,,,,,,,,,,,,,,,,,,,,,,,,,,,,,,,,,,,,
,,697bcf84091fa31a4228774c,2026-03-17_12h03.10.648,kallum_motion_pilot_GIST_update_2,2026.1.1,Win32,60.24096386,697bcf84091fa31a4228774c,69b95efdef24cd8a694e89ee,69b96c21124aeb52c0000699,0.018,0.018,0,108,108,19,1,twofour,,,,,,,,,,,,,,,,,,,,,,,,,,,,,,,,,,,,,,,,,,,,,,,,,,,,,,,,,,,,,,,,,,,,,,,,,,,,,,,,,,,,,,,,,,,,,,,,,,,,,,,,,,,,,,,,,,,,,,,,,,,,,,,,,,,,,,,,,
,,697bcf84091fa31a4228774c,2026-03-17_12h03.10.648,kallum_motion_pilot_GIST_update_2,2026.1.1,Win32,60.24096386,697bcf84091fa31a4228774c,69b95efdef24cd8a694e89ee,69b96c21124aeb52c0000699,0.018,0.018,0,109,109,63,1,fourthree,,,,,,,,,,,,,,,,,,,,,,,,,,,,,,,,,,,,,,,,,,,,,,,,,,,,,,,,,,,,,,,,,,,,,,,,,,,,,,,,,,,,,,,,,,,,,,,,,,,,,,,,,,,,,,,,,,,,,,,,,,,,,,,,,,,,,,,,,
,,697bcf84091fa31a4228774c,2026-03-17_12h03.10.648,kallum_motion_pilot_GIST_update_2,2026.1.1,Win32,60.24096386,697bcf84091fa31a4228774c,69b95efdef24cd8a694e89ee,69b96c21124aeb52c0000699,0.018,0.018,0,110,110,153,1,fiveseven,,,,,,,,,,,,,,,,,,,,,,,,,,,,,,,,,,,,,,,,,,,,,,,,,,,,,,,,,,,,,,,,,,,,,,,,,,,,,,,,,,,,,,,,,,,,,,,,,,,,,,,,,,,,,,,,,,,,,,,,,,,,,,,,,,,,,,,,,
,,697bcf84091fa31a4228774c,2026-03-17_12h03.10.648,kallum_motion_pilot_GIST_update_2,2026.1.1,Win32,60.24096386,697bcf84091fa31a4228774c,69b95efdef24cd8a694e89ee,69b96c21124aeb52c0000699,0.0181,0.0181,0,111,111,3,1,twofour,,,,,,,,,,,,,,,,,,,,,,,,,,,,,,,,,,,,,,,,,,,,,,,,,,,,,,,,,,,,,,,,,,,,,,,,,,,,,,,,,,,,,,,,,,,,,,,,,,,,,,,,,,,,,,,,,,,,,,,,,,,,,,,,,,,,,,,,,
,,697bcf84091fa31a4228774c,2026-03-17_12h03.10.648,kallum_motion_pilot_GIST_update_2,2026.1.1,Win32,60.24096386,697bcf84091fa31a4228774c,69b95efdef24cd8a694e89ee,69b96c21124aeb52c0000699,0.0182,0.0182,0,112,112,45,1,threefour,,,,,,,,,,,,,,,,,,,,,,,,,,,,,,,,,,,,,,,,,,,,,,,,,,,,,,,,,,,,,,,,,,,,,,,,,,,,,,,,,,,,,,,,,,,,,,,,,,,,,,,,,,,,,,,,,,,,,,,,,,,,,,,,,,,,,,,,,
,,697bcf84091fa31a4228774c,2026-03-17_12h03.10.648,kallum_motion_pilot_GIST_update_2,2026.1.1,Win32,60.24096386,697bcf84091fa31a4228774c,69b95efdef24cd8a694e89ee,69b96c21124aeb52c0000699,0.0182,0.0182,0,113,113,37,1,threefour,,,,,,,,,,,,,,,,,,,,,,,,,,,,,,,,,,,,,,,,,,,,,,,,,,,,,,,,,,,,,,,,,,,,,,,,,,,,,,,,,,,,,,,,,,,,,,,,,,,,,,,,,,,,,,,,,,,,,,,,,,,,,,,,,,,,,,,,,
,,697bcf84091fa31a4228774c,2026-03-17_12h03.10.648,kallum_motion_pilot_GIST_update_2,2026.1.1,Win32,60.24096386,697bcf84091fa31a4228774c,69b95efdef24cd8a694e89ee,69b96c21124aeb52c0000699,0.0183,0.0183,0,114,114,117,1,seveneight,,,,,,,,,,,,,,,,,,,,,,,,,,,,,,,,,,,,,,,,,,,,,,,,,,,,,,,,,,,,,,,,,,,,,,,,,,,,,,,,,,,,,,,,,,,,,,,,,,,,,,,,,,,,,,,,,,,,,,,,,,,,,,,,,,,,,,,,,
,,697bcf84091fa31a4228774c,2026-03-17_12h03.10.648,kallum_motion_pilot_GIST_update_2,2026.1.1,Win32,60.24096386,697bcf84091fa31a4228774c,69b95efdef24cd8a694e89ee,69b96c21124aeb52c0000699,0.0184,0.0184,0,115,115,92,1,sevenfive,,,,,,,,,,,,,,,,,,,,,,,,,,,,,,,,,,,,,,,,,,,,,,,,,,,,,,,,,,,,,,,,,,,,,,,,,,,,,,,,,,,,,,,,,,,,,,,,,,,,,,,,,,,,,,,,,,,,,,,,,,,,,,,,,,,,,,,,,
,,697bcf84091fa31a4228774c,2026-03-17_12h03.10.648,kallum_motion_pilot_GIST_update_2,2026.1.1,Win32,60.24096386,697bcf84091fa31a4228774c,69b95efdef24cd8a694e89ee,69b96c21124aeb52c0000699,0.0184,0.0184,0,116,116,118,1,eightsix,,,,,,,,,,,,,,,,,,,,,,,,,,,,,,,,,,,,,,,,,,,,,,,,,,,,,,,,,,,,,,,,,,,,,,,,,,,,,,,,,,,,,,,,,,,,,,,,,,,,,,,,,,,,,,,,,,,,,,,,,,,,,,,,,,,,,,,,,
,,697bcf84091fa31a4228774c,2026-03-17_12h03.10.648,kallum_motion_pilot_GIST_update_2,2026.1.1,Win32,60.24096386,697bcf84091fa31a4228774c,69b95efdef24cd8a694e89ee,69b96c21124aeb52c0000699,0.0185,0.0185,0,117,117,158,1,eightsix,,,,,,,,,,,,,,,,,,,,,,,,,,,,,,,,,,,,,,,,,,,,,,,,,,,,,,,,,,,,,,,,,,,,,,,,,,,,,,,,,,,,,,,,,,,,,,,,,,,,,,,,,,,,,,,,,,,,,,,,,,,,,,,,,,,,,,,,,
,,697bcf84091fa31a4228774c,2026-03-17_12h03.10.648,kallum_motion_pilot_GIST_update_2,2026.1.1,Win32,60.24096386,697bcf84091fa31a4228774c,69b95efdef24cd8a694e89ee,69b96c21124aeb52c0000699,0.0185,0.0185,0,118,118,73,1,onethree,,,,,,,,,,,,,,,,,,,,,,,,,,,,,,,,,,,,,,,,,,,,,,,,,,,,,,,,,,,,,,,,,,,,,,,,,,,,,,,,,,,,,,,,,,,,,,,,,,,,,,,,,,,,,,,,,,,,,,,,,,,,,,,,,,,,,,,,,
,,697bcf84091fa31a4228774c,2026-03-17_12h03.10.648,kallum_motion_pilot_GIST_update_2,2026.1.1,Win32,60.24096386,697bcf84091fa31a4228774c,69b95efdef24cd8a694e89ee,69b96c21124aeb52c0000699,0.0186,0.0186,0,119,119,16,1,onetwo,,,,,,,,,,,,,,,,,,,,,,,,,,,,,,,,,,,,,,,,,,,,,,,,,,,,,,,,,,,,,,,,,,,,,,,,,,,,,,,,,,,,,,,,,,,,,,,,,,,,,,,,,,,,,,,,,,,,,,,,,,,,,,,,,,,,,,,,,
,,697bcf84091fa31a4228774c,2026-03-17_12h03.10.648,kallum_motion_pilot_GIST_update_2,2026.1.1,Win32,60.24096386,697bcf84091fa31a4228774c,69b95efdef24cd8a694e89ee,69b96c21124aeb52c0000699,0.0187,0.0187,0,120,120,126,1,eightsix,,,,,,,,,,,,,,,,,,,,,,,,,,,,,,,,,,,,,,,,,,,,,,,,,,,,,,,,,,,,,,,,,,,,,,,,,,,,,,,,,,,,,,,,,,,,,,,,,,,,,,,,,,,,,,,,,,,,,,,,,,,,,,,,,,,,,,,,,
,,697bcf84091fa31a4228774c,2026-03-17_12h03.10.648,kallum_motion_pilot_GIST_update_2,2026.1.1,Win32,60.24096386,697bcf84091fa31a4228774c,69b95efdef24cd8a694e89ee,69b96c21124aeb52c0000699,0.0187,0.0187,0,121,121,32,1,onetwo,,,,,,,,,,,,,,,,,,,,,,,,,,,,,,,,,,,,,,,,,,,,,,,,,,,,,,,,,,,,,,,,,,,,,,,,,,,,,,,,,,,,,,,,,,,,,,,,,,,,,,,,,,,,,,,,,,,,,,,,,,,,,,,,,,,,,,,,,
,,697bcf84091fa31a4228774c,2026-03-17_12h03.10.648,kallum_motion_pilot_GIST_update_2,2026.1.1,Win32,60.24096386,697bcf84091fa31a4228774c,69b95efdef24cd8a694e89ee,69b96c21124aeb52c0000699,0.0188,0.0188,0,122,122,42,1,twoone,,,,,,,,,,,,,,,,,,,,,,,,,,,,,,,,,,,,,,,,,,,,,,,,,,,,,,,,,,,,,,,,,,,,,,,,,,,,,,,,,,,,,,,,,,,,,,,,,,,,,,,,,,,,,,,,,,,,,,,,,,,,,,,,,,,,,,,,,
,,697bcf84091fa31a4228774c,2026-03-17_12h03.10.648,kallum_motion_pilot_GIST_update_2,2026.1.1,Win32,60.24096386,697bcf84091fa31a4228774c,69b95efdef24cd8a694e89ee,69b96c21124aeb52c0000699,0.0189,0.0189,0,123,123,111,1,eightseven,,,,,,,,,,,,,,,,,,,,,,,,,,,,,,,,,,,,,,,,,,,,,,,,,,,,,,,,,,,,,,,,,,,,,,,,,,,,,,,,,,,,,,,,,,,,,,,,,,,,,,,,,,,,,,,,,,,,,,,,,,,,,,,,,,,,,,,,,
,,697bcf84091fa31a4228774c,2026-03-17_12h03.10.648,kallum_motion_pilot_GIST_update_2,2026.1.1,Win32,60.24096386,697bcf84091fa31a4228774c,69b95efdef24cd8a694e89ee,69b96c21124aeb52c0000699,0.019,0.019,0,124,124,71,1,fourthree,,,,,,,,,,,,,,,,,,,,,,,,,,,,,,,,,,,,,,,,,,,,,,,,,,,,,,,,,,,,,,,,,,,,,,,,,,,,,,,,,,,,,,,,,,,,,,,,,,,,,,,,,,,,,,,,,,,,,,,,,,,,,,,,,,,,,,,,,
,,697bcf84091fa31a4228774c,2026-03-17_12h03.10.648,kallum_motion_pilot_GIST_update_2,2026.1.1,Win32,60.24096386,697bcf84091fa31a4228774c,69b95efdef24cd8a694e89ee,69b96c21124aeb52c0000699,0.019,0.019,0,125,125,156,1,sevenfive,,,,,,,,,,,,,,,,,,,,,,,,,,,,,,,,,,,,,,,,,,,,,,,,,,,,,,,,,,,,,,,,,,,,,,,,,,,,,,,,,,,,,,,,,,,,,,,,,,,,,,,,,,,,,,,,,,,,,,,,,,,,,,,,,,,,,,,,,
,,697bcf84091fa31a4228774c,2026-03-17_12h03.10.648,kallum_motion_pilot_GIST_update_2,2026.1.1,Win32,60.24096386,697bcf84091fa31a4228774c,69b95efdef24cd8a694e89ee,69b96c21124aeb52c0000699,0.0191,0.0191,0,126,126,21,1,threefour,,,,,,,,,,,,,,,,,,,,,,,,,,,,,,,,,,,,,,,,,,,,,,,,,,,,,,,,,,,,,,,,,,,,,,,,,,,,,,,,,,,,,,,,,,,,,,,,,,,,,,,,,,,,,,,,,,,,,,,,,,,,,,,,,,,,,,,,,
,,697bcf84091fa31a4228774c,2026-03-17_12h03.10.648,kallum_motion_pilot_GIST_update_2,2026.1.1,Win32,60.24096386,697bcf84091fa31a4228774c,69b95efdef24cd8a694e89ee,69b96c21124aeb52c0000699,0.0191,0.0191,0,127,127,55,1,fourthree,,,,,,,,,,,,,,,,,,,,,,,,,,,,,,,,,,,,,,,,,,,,,,,,,,,,,,,,,,,,,,,,,,,,,,,,,,,,,,,,,,,,,,,,,,,,,,,,,,,,,,,,,,,,,,,,,,,,,,,,,,,,,,,,,,,,,,,,,
,,697bcf84091fa31a4228774c,2026-03-17_12h03.10.648,kallum_motion_pilot_GIST_update_2,2026.1.1,Win32,60.24096386,697bcf84091fa31a4228774c,69b95efdef24cd8a694e89ee,69b96c21124aeb52c0000699,0.0192,0.0192,0,128,128,11,1,twofour,,,,,,,,,,,,,,,,,,,,,,,,,,,,,,,,,,,,,,,,,,,,,,,,,,,,,,,,,,,,,,,,,,,,,,,,,,,,,,,,,,,,,,,,,,,,,,,,,,,,,,,,,,,,,,,,,,,,,,,,,,,,,,,,,,,,,,,,,
,,697bcf84091fa31a4228774c,2026-03-17_12h03.10.648,kallum_motion_pilot_GIST_update_2,2026.1.1,Win32,60.24096386,697bcf84091fa31a4228774c,69b95efdef24cd8a694e89ee,69b96c21124aeb52c0000699,0.0193,0.0193,0,129,129,113,1,fiveseven,,,,,,,,,,,,,,,,,,,,,,,,,,,,,,,,,,,,,,,,,,,,,,,,,,,,,,,,,,,,,,,,,,,,,,,,,,,,,,,,,,,,,,,,,,,,,,,,,,,,,,,,,,,,,,,,,,,,,,,,,,,,,,,,,,,,,,,,,
,,697bcf84091fa31a4228774c,2026-03-17_12h03.10.648,kallum_motion_pilot_GIST_update_2,2026.1.1,Win32,60.24096386,697bcf84091fa31a4228774c,69b95efdef24cd8a694e89ee,69b96c21124aeb52c0000699,0.0193,0.0193,0,130,130,29,1,threefour,,,,,,,,,,,,,,,,,,,,,,,,,,,,,,,,,,,,,,,,,,,,,,,,,,,,,,,,,,,,,,,,,,,,,,,,,,,,,,,,,,,,,,,,,,,,,,,,,,,,,,,,,,,,,,,,,,,,,,,,,,,,,,,,,,,,,,,,,
,,697bcf84091fa31a4228774c,2026-03-17_12h03.10.648,kallum_motion_pilot_GIST_update_2,2026.1.1,Win32,60.24096386,697bcf84091fa31a4228774c,69b95efdef24cd8a694e89ee,69b96c21124aeb52c0000699,0.0194,0.0194,0,131,131,8,1,onetwo,,,,,,,,,,,,,,,,,,,,,,,,,,,,,,,,,,,,,,,,,,,,,,,,,,,,,,,,,,,,,,,,,,,,,,,,,,,,,,,,,,,,,,,,,,,,,,,,,,,,,,,,,,,,,,,,,,,,,,,,,,,,,,,,,,,,,,,,,
,,697bcf84091fa31a4228774c,2026-03-17_12h03.10.648,kallum_motion_pilot_GIST_update_2,2026.1.1,Win32,60.24096386,697bcf84091fa31a4228774c,69b95efdef24cd8a694e89ee,69b96c21124aeb52c0000699,0.0195,0.0195,0,132,132,93,1,seveneight,,,,,,,,,,,,,,,,,,,,,,,,,,,,,,,,,,,,,,,,,,,,,,,,,,,,,,,,,,,,,,,,,,,,,,,,,,,,,,,,,,,,,,,,,,,,,,,,,,,,,,,,,,,,,,,,,,,,,,,,,,,,,,,,,,,,,,,,,
,,697bcf84091fa31a4228774c,2026-03-17_12h03.10.648,kallum_motion_pilot_GIST_update_2,2026.1.1,Win32,60.24096386,697bcf84091fa31a4228774c,69b95efdef24cd8a694e89ee,69b96c21124aeb52c0000699,0.0196,0.0196,0,133,133,66,1,twoone,,,,,,,,,,,,,,,,,,,,,,,,,,,,,,,,,,,,,,,,,,,,,,,,,,,,,,,,,,,,,,,,,,,,,,,,,,,,,,,,,,,,,,,,,,,,,,,,,,,,,,,,,,,,,,,,,,,,,,,,,,,,,,,,,,,,,,,,,
,,697bcf84091fa31a4228774c,2026-03-17_12h03.10.648,kallum_motion_pilot_GIST_update_2,2026.1.1,Win32,60.24096386,697bcf84091fa31a4228774c,69b95efdef24cd8a694e89ee,69b96c21124aeb52c0000699,0.0196,0.0196,0,134,134,159,1,eightseven,,,,,,,,,,,,,,,,,,,,,,,,,,,,,,,,,,,,,,,,,,,,,,,,,,,,,,,,,,,,,,,,,,,,,,,,,,,,,,,,,,,,,,,,,,,,,,,,,,,,,,,,,,,,,,,,,,,,,,,,,,,,,,,,,,,,,,,,,
,,697bcf84091fa31a4228774c,2026-03-17_12h03.10.648,kallum_motion_pilot_GIST_update_2,2026.1.1,Win32,60.24096386,697bcf84091fa31a4228774c,69b95efdef24cd8a694e89ee,69b96c21124aeb52c0000699,0.0196,0.0196,0,135,135,15,1,fourthree,,,,,,,,,,,,,,,,,,,,,,,,,,,,,,,,,,,,,,,,,,,,,,,,,,,,,,,,,,,,,,,,,,,,,,,,,,,,,,,,,,,,,,,,,,,,,,,,,,,,,,,,,,,,,,,,,,,,,,,,,,,,,,,,,,,,,,,,,
,,697bcf84091fa31a4228774c,2026-03-17_12h03.10.648,kallum_motion_pilot_GIST_update_2,2026.1.1,Win32,60.24096386,697bcf84091fa31a4228774c,69b95efdef24cd8a694e89ee,69b96c21124aeb52c0000699,0.0198,0.0198,0,136,136,125,1,seveneight,,,,,,,,,,,,,,,,,,,,,,,,,,,,,,,,,,,,,,,,,,,,,,,,,,,,,,,,,,,,,,,,,,,,,,,,,,,,,,,,,,,,,,,,,,,,,,,,,,,,,,,,,,,,,,,,,,,,,,,,,,,,,,,,,,,,,,,,,
,,697bcf84091fa31a4228774c,2026-03-17_12h03.10.648,kallum_motion_pilot_GIST_update_2,2026.1.1,Win32,60.24096386,697bcf84091fa31a4228774c,69b95efdef24cd8a694e89ee,69b96c21124aeb52c0000699,0.0198,0.0198,0,137,137,77,1,threefour,,,,,,,,,,,,,,,,,,,,,,,,,,,,,,,,,,,,,,,,,,,,,,,,,,,,,,,,,,,,,,,,,,,,,,,,,,,,,,,,,,,,,,,,,,,,,,,,,,,,,,,,,,,,,,,,,,,,,,,,,,,,,,,,,,,,,,,,,
,,697bcf84091fa31a4228774c,2026-03-17_12h03.10.648,kallum_motion_pilot_GIST_update_2,2026.1.1,Win32,60.24096386,697bcf84091fa31a4228774c,69b95efdef24cd8a694e89ee,69b96c21124aeb52c0000699,0.0199,0.0199,0,138,138,22,1,fourtwo,,,,,,,,,,,,,,,,,,,,,,,,,,,,,,,,,,,,,,,,,,,,,,,,,,,,,,,,,,,,,,,,,,,,,,,,,,,,,,,,,,,,,,,,,,,,,,,,,,,,,,,,,,,,,,,,,,,,,,,,,,,,,,,,,,,,,,,,,
,,697bcf84091fa31a4228774c,2026-03-17_12h03.10.648,kallum_motion_pilot_GIST_update_2,2026.1.1,Win32,60.24096386,697bcf84091fa31a4228774c,69b95efdef24cd8a694e89ee,69b96c21124aeb52c0000699,0.0199,0.0199,0,139,139,26,1,twoone,,,,,,,,,,,,,,,,,,,,,,,,,,,,,,,,,,,,,,,,,,,,,,,,,,,,,,,,,,,,,,,,,,,,,,,,,,,,,,,,,,,,,,,,,,,,,,,,,,,,,,,,,,,,,,,,,,,,,,,,,,,,,,,,,,,,,,,,,
,,697bcf84091fa31a4228774c,2026-03-17_12h03.10.648,kallum_motion_pilot_GIST_update_2,2026.1.1,Win32,60.24096386,697bcf84091fa31a4228774c,69b95efdef24cd8a694e89ee,69b96c21124aeb52c0000699,0.02,0.02,0,140,140,52,1,threeone,,,,,,,,,,,,,,,,,,,,,,,,,,,,,,,,,,,,,,,,,,,,,,,,,,,,,,,,,,,,,,,,,,,,,,,,,,,,,,,,,,,,,,,,,,,,,,,,,,,,,,,,,,,,,,,,,,,,,,,,,,,,,,,,,,,,,,,,,
,,697bcf84091fa31a4228774c,2026-03-17_12h03.10.648,kallum_motion_pilot_GIST_update_2,2026.1.1,Win32,60.24096386,697bcf84091fa31a4228774c,69b95efdef24cd8a694e89ee,69b96c21124aeb52c0000699,0.0201,0.0201,0,141,141,84,1,sevenfive,,,,,,,,,,,,,,,,,,,,,,,,,,,,,,,,,,,,,,,,,,,,,,,,,,,,,,,,,,,,,,,,,,,,,,,,,,,,,,,,,,,,,,,,,,,,,,,,,,,,,,,,,,,,,,,,,,,,,,,,,,,,,,,,,,,,,,,,,
,,697bcf84091fa31a4228774c,2026-03-17_12h03.10.648,kallum_motion_pilot_GIST_update_2,2026.1.1,Win32,60.24096386,697bcf84091fa31a4228774c,69b95efdef24cd8a694e89ee,69b96c21124aeb52c0000699,0.0201,0.0201,0,142,142,103,1,eightseven,,,,,,,,,,,,,,,,,,,,,,,,,,,,,,,,,,,,,,,,,,,,,,,,,,,,,,,,,,,,,,,,,,,,,,,,,,,,,,,,,,,,,,,,,,,,,,,,,,,,,,,,,,,,,,,,,,,,,,,,,,,,,,,,,,,,,,,,,
,,697bcf84091fa31a4228774c,2026-03-17_12h03.10.648,kallum_motion_pilot_GIST_update_2,2026.1.1,Win32,60.24096386,697bcf84091fa31a4228774c,69b95efdef24cd8a694e89ee,69b96c21124aeb52c0000699,0.0202,0.0203,0,143,143,28,1,threeone,,,,,,,,,,,,,,,,,,,,,,,,,,,,,,,,,,,,,,,,,,,,,,,,,,,,,,,,,,,,,,,,,,,,,,,,,,,,,,,,,,,,,,,,,,,,,,,,,,,,,,,,,,,,,,,,,,,,,,,,,,,,,,,,,,,,,,,,,
,,697bcf84091fa31a4228774c,2026-03-17_12h03.10.648,kallum_motion_pilot_GIST_update_2,2026.1.1,Win32,60.24096386,697bcf84091fa31a4228774c,69b95efdef24cd8a694e89ee,69b96c21124aeb52c0000699,0.0203,0.0203,0,144,144,53,1,threefour,,,,,,,,,,,,,,,,,,,,,,,,,,,,,,,,,,,,,,,,,,,,,,,,,,,,,,,,,,,,,,,,,,,,,,,,,,,,,,,,,,,,,,,,,,,,,,,,,,,,,,,,,,,,,,,,,,,,,,,,,,,,,,,,,,,,,,,,,
,,697bcf84091fa31a4228774c,2026-03-17_12h03.10.648,kallum_motion_pilot_GIST_update_2,2026.1.1,Win32,60.24096386,697bcf84091fa31a4228774c,69b95efdef24cd8a694e89ee,69b96c21124aeb52c0000699,0.0204,0.0204,0,145,145,1,1,onethree,,,,,,,,,,,,,,,,,,,,,,,,,,,,,,,,,,,,,,,,,,,,,,,,,,,,,,,,,,,,,,,,,,,,,,,,,,,,,,,,,,,,,,,,,,,,,,,,,,,,,,,,,,,,,,,,,,,,,,,,,,,,,,,,,,,,,,,,,
,,697bcf84091fa31a4228774c,2026-03-17_12h03.10.648,kallum_motion_pilot_GIST_update_2,2026.1.1,Win32,60.24096386,697bcf84091fa31a4228774c,69b95efdef24cd8a694e89ee,69b96c21124aeb52c0000699,0.0204,0.0204,0,146,146,101,1,seveneight,,,,,,,,,,,,,,,,,,,,,,,,,,,,,,,,,,,,,,,,,,,,,,,,,,,,,,,,,,,,,,,,,,,,,,,,,,,,,,,,,,,,,,,,,,,,,,,,,,,,,,,,,,,,,,,,,,,,,,,,,,,,,,,,,,,,,,,,,
,,697bcf84091fa31a4228774c,2026-03-17_12h03.10.648,kallum_motion_pilot_GIST_update_2,2026.1.1,Win32,60.24096386,697bcf84091fa31a4228774c,69b95efdef24cd8a694e89ee,69b96c21124aeb52c0000699,0.0205,0.0205,0,147,147,46,1,fourtwo,,,,,,,,,,,,,,,,,,,,,,,,,,,,,,,,,,,,,,,,,,,,,,,,,,,,,,,,,,,,,,,,,,,,,,,,,,,,,,,,,,,,,,,,,,,,,,,,,,,,,,,,,,,,,,,,,,,,,,,,,,,,,,,,,,,,,,,,,
,,697bcf84091fa31a4228774c,2026-03-17_12h03.10.648,kallum_motion_pilot_GIST_update_2,2026.1.1,Win32,60.24096386,697bcf84091fa31a4228774c,69b95efdef24cd8a694e89ee,69b96c21124aeb52c0000699,0.0207,0.0207,0,148,148,140,1,sevenfive,,,,,,,,,,,,,,,,,,,,,,,,,,,,,,,,,,,,,,,,,,,,,,,,,,,,,,,,,,,,,,,,,,,,,,,,,,,,,,,,,,,,,,,,,,,,,,,,,,,,,,,,,,,,,,,,,,,,,,,,,,,,,,,,,,,,,,,,,
,,697bcf84091fa31a4228774c,2026-03-17_12h03.10.648,kallum_motion_pilot_GIST_update_2,2026.1.1,Win32,60.24096386,697bcf84091fa31a4228774c,69b95efdef24cd8a694e89ee,69b96c21124aeb52c0000699,0.0207,0.0207,0,149,149,48,1,onetwo,,,,,,,,,,,,,,,,,,,,,,,,,,,,,,,,,,,,,,,,,,,,,,,,,,,,,,,,,,,,,,,,,,,,,,,,,,,,,,,,,,,,,,,,,,,,,,,,,,,,,,,,,,,,,,,,,,,,,,,,,,,,,,,,,,,,,,,,,
,,697bcf84091fa31a4228774c,2026-03-17_12h03.10.648,kallum_motion_pilot_GIST_update_2,2026.1.1,Win32,60.24096386,697bcf84091fa31a4228774c,69b95efdef24cd8a694e89ee,69b96c21124aeb52c0000699,0.0207,0.0207,0,150,150,148,1,sevenfive,,,,,,,,,,,,,,,,,,,,,,,,,,,,,,,,,,,,,,,,,,,,,,,,,,,,,,,,,,,,,,,,,,,,,,,,,,,,,,,,,,,,,,,,,,,,,,,,,,,,,,,,,,,,,,,,,,,,,,,,,,,,,,,,,,,,,,,,,
,,697bcf84091fa31a4228774c,2026-03-17_12h03.10.648,kallum_motion_pilot_GIST_update_2,2026.1.1,Win32,60.24096386,697bcf84091fa31a4228774c,69b95efdef24cd8a694e89ee,69b96c21124aeb52c0000699,0.0208,0.0208,0,151,151,122,1,sixfive,,,,,,,,,,,,,,,,,,,,,,,,,,,,,,,,,,,,,,,,,,,,,,,,,,,,,,,,,,,,,,,,,,,,,,,,,,,,,,,,,,,,,,,,,,,,,,,,,,,,,,,,,,,,,,,,,,,,,,,,,,,,,,,,,,,,,,,,,
,,697bcf84091fa31a4228774c,2026-03-17_12h03.10.648,kallum_motion_pilot_GIST_update_2,2026.1.1,Win32,60.24096386,697bcf84091fa31a4228774c,69b95efdef24cd8a694e89ee,69b96c21124aeb52c0000699,0.0209,0.0209,0,152,152,88,1,fivesix,,,,,,,,,,,,,,,,,,,,,,,,,,,,,,,,,,,,,,,,,,,,,,,,,,,,,,,,,,,,,,,,,,,,,,,,,,,,,,,,,,,,,,,,,,,,,,,,,,,,,,,,,,,,,,,,,,,,,,,,,,,,,,,,,,,,,,,,,
,,697bcf84091fa31a4228774c,2026-03-17_12h03.10.648,kallum_motion_pilot_GIST_update_2,2026.1.1,Win32,60.24096386,697bcf84091fa31a4228774c,69b95efdef24cd8a694e89ee,69b96c21124aeb52c0000699,0.021,0.021,0,153,153,69,1,threefour,,,,,,,,,,,,,,,,,,,,,,,,,,,,,,,,,,,,,,,,,,,,,,,,,,,,,,,,,,,,,,,,,,,,,,,,,,,,,,,,,,,,,,,,,,,,,,,,,,,,,,,,,,,,,,,,,,,,,,,,,,,,,,,,,,,,,,,,,
,,697bcf84091fa31a4228774c,2026-03-17_12h03.10.648,kallum_motion_pilot_GIST_update_2,2026.1.1,Win32,60.24096386,697bcf84091fa31a4228774c,69b95efdef24cd8a694e89ee,69b96c21124aeb52c0000699,0.0211,0.0211,0,154,154,74,1,twoone,,,,,,,,,,,,,,,,,,,,,,,,,,,,,,,,,,,,,,,,,,,,,,,,,,,,,,,,,,,,,,,,,,,,,,,,,,,,,,,,,,,,,,,,,,,,,,,,,,,,,,,,,,,,,,,,,,,,,,,,,,,,,,,,,,,,,,,,,
,,697bcf84091fa31a4228774c,2026-03-17_12h03.10.648,kallum_motion_pilot_GIST_update_2,2026.1.1,Win32,60.24096386,697bcf84091fa31a4228774c,69b95efdef24cd8a694e89ee,69b96c21124aeb52c0000699,0.0212,0.0212,0,155,155,114,1,sixfive,,,,,,,,,,,,,,,,,,,,,,,,,,,,,,,,,,,,,,,,,,,,,,,,,,,,,,,,,,,,,,,,,,,,,,,,,,,,,,,,,,,,,,,,,,,,,,,,,,,,,,,,,,,,,,,,,,,,,,,,,,,,,,,,,,,,,,,,,
,,697bcf84091fa31a4228774c,2026-03-17_12h03.10.648,kallum_motion_pilot_GIST_update_2,2026.1.1,Win32,60.24096386,697bcf84091fa31a4228774c,69b95efdef24cd8a694e89ee,69b96c21124aeb52c0000699,0.0212,0.0212,0,156,156,24,1,onetwo,,,,,,,,,,,,,,,,,,,,,,,,,,,,,,,,,,,,,,,,,,,,,,,,,,,,,,,,,,,,,,,,,,,,,,,,,,,,,,,,,,,,,,,,,,,,,,,,,,,,,,,,,,,,,,,,,,,,,,,,,,,,,,,,,,,,,,,,,
,,697bcf84091fa31a4228774c,2026-03-17_12h03.10.648,kallum_motion_pilot_GIST_update_2,2026.1.1,Win32,60.24096386,697bcf84091fa31a4228774c,69b95efdef24cd8a694e89ee,69b96c21124aeb52c0000699,0.0212,0.0212,0,157,157,99,1,sixeight,,,,,,,,,,,,,,,,,,,,,,,,,,,,,,,,,,,,,,,,,,,,,,,,,,,,,,,,,,,,,,,,,,,,,,,,,,,,,,,,,,,,,,,,,,,,,,,,,,,,,,,,,,,,,,,,,,,,,,,,,,,,,,,,,,,,,,,,,
,,697bcf84091fa31a4228774c,2026-03-17_12h03.10.648,kallum_motion_pilot_GIST_update_2,2026.1.1,Win32,60.24096386,697bcf84091fa31a4228774c,69b95efdef24cd8a694e89ee,69b96c21124aeb52c0000699,0.0214,0.0214,0,158,158,141,1,seveneight,,,,,,,,,,,,,,,,,,,,,,,,,,,,,,,,,,,,,,,,,,,,,,,,,,,,,,,,,,,,,,,,,,,,,,,,,,,,,,,,,,,,,,,,,,,,,,,,,,,,,,,,,,,,,,,,,,,,,,,,,,,,,,,,,,,,,,,,,
,,697bcf84091fa31a4228774c,2026-03-17_12h03.10.648,kallum_motion_pilot_GIST_update_2,2026.1.1,Win32,60.24096386,697bcf84091fa31a4228774c,69b95efdef24cd8a694e89ee,69b96c21124aeb52c0000699,0.0214,0.0214,0,159,159,12,1,threeone,,,,,,,,,,,,,,,,,,,,,,,,,,,,,,,,,,,,,,,,,,,,,,,,,,,,,,,,,,,,,,,,,,,,,,,,,,,,,,,,,,,,,,,,,,,,,,,,,,,,,,,,,,,,,,,,,,,,,,,,,,,,,,,,,,,,,,,,,
,,697bcf84091fa31a4228774c,2026-03-17_12h03.10.648,kallum_motion_pilot_GIST_update_2,2026.1.1,Win32,60.24096386,697bcf84091fa31a4228774c,69b95efdef24cd8a694e89ee,69b96c21124aeb52c0000699,0.0215,0.0215,0,160,160,139,1,sixeight,,,,,,,,,,,,,,,,,,,,,,,,,,,,,,,,,,,,,,,,,,,,,,,,,,,,,,,,,,,,,,,,,,,,,,,,,,,,,,,,,,,,,,,,,,,,,,,,,,,,,,,,,,,,,,,,,,,,,,,,,,,,,,,,,,,,,,,,,
,,697bcf84091fa31a4228774c,2026-03-17_12h03.10.648,kallum_motion_pilot_GIST_update_2,2026.1.1,Win32,60.24096386,697bcf84091fa31a4228774c,69b95efdef24cd8a694e89ee,69b96c21124aeb52c0000699,0.0216,0.0216,0,161,161,10,1,twoone,,,,,,,,,,,,,,,,,,,,,,,,,,,,,,,,,,,,,,,,,,,,,,,,,,,,,,,,,,,,,,,,,,,,,,,,,,,,,,,,,,,,,,,,,,,,,,,,,,,,,,,,,,,,,,,,,,,,,,,,,,,,,,,,,,,,,,,,,
,,697bcf84091fa31a4228774c,2026-03-17_12h03.10.648,kallum_motion_pilot_GIST_update_2,2026.1.1,Win32,60.24096386,697bcf84091fa31a4228774c,69b95efdef24cd8a694e89ee,69b96c21124aeb52c0000699,0.0216,0.0216,1,0,162,46,1,fourtwo,,,,,,,,,,,,,,,,,,,,,,,,,,,,,,,,,,,,,,,,,,,,,,,,,,,,,,,,,,,,,,,,,,,,,,,,,,,,,,,,,,,,,,,,,,,,,,,,,,,,,,,,,,,,,,,,,,,,,,,,,,,,,,,,,,,,,,,,,
,,697bcf84091fa31a4228774c,2026-03-17_12h03.10.648,kallum_motion_pilot_GIST_update_2,2026.1.1,Win32,60.24096386,697bcf84091fa31a4228774c,69b95efdef24cd8a694e89ee,69b96c21124aeb52c0000699,0.0217,0.0217,1,1,163,29,1,threefour,,,,,,,,,,,,,,,,,,,,,,,,,,,,,,,,,,,,,,,,,,,,,,,,,,,,,,,,,,,,,,,,,,,,,,,,,,,,,,,,,,,,,,,,,,,,,,,,,,,,,,,,,,,,,,,,,,,,,,,,,,,,,,,,,,,,,,,,,
,,697bcf84091fa31a4228774c,2026-03-17_12h03.10.648,kallum_motion_pilot_GIST_update_2,2026.1.1,Win32,60.24096386,697bcf84091fa31a4228774c,69b95efdef24cd8a694e89ee,69b96c21124aeb52c0000699,0.0218,0.0218,1,2,164,158,1,eightsix,,,,,,,,,,,,,,,,,,,,,,,,,,,,,,,,,,,,,,,,,,,,,,,,,,,,,,,,,,,,,,,,,,,,,,,,,,,,,,,,,,,,,,,,,,,,,,,,,,,,,,,,,,,,,,,,,,,,,,,,,,,,,,,,,,,,,,,,,
,,697bcf84091fa31a4228774c,2026-03-17_12h03.10.648,kallum_motion_pilot_GIST_update_2,2026.1.1,Win32,60.24096386,697bcf84091fa31a4228774c,69b95efdef24cd8a694e89ee,69b96c21124aeb52c0000699,0.0218,0.0219,1,3,165,64,1,onetwo,,,,,,,,,,,,,,,,,,,,,,,,,,,,,,,,,,,,,,,,,,,,,,,,,,,,,,,,,,,,,,,,,,,,,,,,,,,,,,,,,,,,,,,,,,,,,,,,,,,,,,,,,,,,,,,,,,,,,,,,,,,,,,,,,,,,,,,,,
,,697bcf84091fa31a4228774c,2026-03-17_12h03.10.648,kallum_motion_pilot_GIST_update_2,2026.1.1,Win32,60.24096386,697bcf84091fa31a4228774c,69b95efdef24cd8a694e89ee,69b96c21124aeb52c0000699,0.0219,0.0219,1,4,166,66,1,twoone,,,,,,,,,,,,,,,,,,,,,,,,,,,,,,,,,,,,,,,,,,,,,,,,,,,,,,,,,,,,,,,,,,,,,,,,,,,,,,,,,,,,,,,,,,,,,,,,,,,,,,,,,,,,,,,,,,,,,,,,,,,,,,,,,,,,,,,,,
,,697bcf84091fa31a4228774c,2026-03-17_12h03.10.648,kallum_motion_pilot_GIST_update_2,2026.1.1,Win32,60.24096386,697bcf84091fa31a4228774c,69b95efdef24cd8a694e89ee,69b96c21124aeb52c0000699,0.022,0.022,1,5,167,144,1,fivesix,,,,,,,,,,,,,,,,,,,,,,,,,,,,,,,,,,,,,,,,,,,,,,,,,,,,,,,,,,,,,,,,,,,,,,,,,,,,,,,,,,,,,,,,,,,,,,,,,,,,,,,,,,,,,,,,,,,,,,,,,,,,,,,,,,,,,,,,,
,,697bcf84091fa31a4228774c,2026-03-17_12h03.10.648,kallum_motion_pilot_GIST_update_2,2026.1.1,Win32,60.24096386,697bcf84091fa31a4228774c,69b95efdef24cd8a694e89ee,69b96c21124aeb52c0000699,0.022,0.022,1,6,168,95,1,eightseven,,,,,,,,,,,,,,,,,,,,,,,,,,,,,,,,,,,,,,,,,,,,,,,,,,,,,,,,,,,,,,,,,,,,,,,,,,,,,,,,,,,,,,,,,,,,,,,,,,,,,,,,,,,,,,,,,,,,,,,,,,,,,,,,,,,,,,,,,
,,697bcf84091fa31a4228774c,2026-03-17_12h03.10.648,kallum_motion_pilot_GIST_update_2,2026.1.1,Win32,60.24096386,697bcf84091fa31a4228774c,69b95efdef24cd8a694e89ee,69b96c21124aeb52c0000699,0.0221,0.0221,1,7,169,92,1,sevenfive,,,,,,,,,,,,,,,,,,,,,,,,,,,,,,,,,,,,,,,,,,,,,,,,,,,,,,,,,,,,,,,,,,,,,,,,,,,,,,,,,,,,,,,,,,,,,,,,,,,,,,,,,,,,,,,,,,,,,,,,,,,,,,,,,,,,,,,,,
,,697bcf84091fa31a4228774c,2026-03-17_12h03.10.648,kallum_motion_pilot_GIST_update_2,2026.1.1,Win32,60.24096386,697bcf84091fa31a4228774c,69b95efdef24cd8a694e89ee,69b96c21124aeb52c0000699,0.0222,0.0222,1,8,170,32,1,onetwo,,,,,,,,,,,,,,,,,,,,,,,,,,,,,,,,,,,,,,,,,,,,,,,,,,,,,,,,,,,,,,,,,,,,,,,,,,,,,,,,,,,,,,,,,,,,,,,,,,,,,,,,,,,,,,,,,,,,,,,,,,,,,,,,,,,,,,,,,
,,697bcf84091fa31a4228774c,2026-03-17_12h03.10.648,kallum_motion_pilot_GIST_update_2,2026.1.1,Win32,60.24096386,697bcf84091fa31a4228774c,69b95efdef24cd8a694e89ee,69b96c21124aeb52c0000699,0.0223,0.0223,1,9,171,90,1,sixfive,,,,,,,,,,,,,,,,,,,,,,,,,,,,,,,,,,,,,,,,,,,,,,,,,,,,,,,,,,,,,,,,,,,,,,,,,,,,,,,,,,,,,,,,,,,,,,,,,,,,,,,,,,,,,,,,,,,,,,,,,,,,,,,,,,,,,,,,,
,,697bcf84091fa31a4228774c,2026-03-17_12h03.10.648,kallum_motion_pilot_GIST_update_2,2026.1.1,Win32,60.24096386,697bcf84091fa31a4228774c,69b95efdef24cd8a694e89ee,69b96c21124aeb52c0000699,0.0223,0.0223,1,10,172,28,1,threeone,,,,,,,,,,,,,,,,,,,,,,,,,,,,,,,,,,,,,,,,,,,,,,,,,,,,,,,,,,,,,,,,,,,,,,,,,,,,,,,,,,,,,,,,,,,,,,,,,,,,,,,,,,,,,,,,,,,,,,,,,,,,,,,,,,,,,,,,,
,,697bcf84091fa31a4228774c,2026-03-17_12h03.10.648,kallum_motion_pilot_GIST_update_2,2026.1.1,Win32,60.24096386,697bcf84091fa31a4228774c,69b95efdef24cd8a694e89ee,69b96c21124aeb52c0000699,0.0225,0.0225,1,11,173,94,1,eightsix,,,,,,,,,,,,,,,,,,,,,,,,,,,,,,,,,,,,,,,,,,,,,,,,,,,,,,,,,,,,,,,,,,,,,,,,,,,,,,,,,,,,,,,,,,,,,,,,,,,,,,,,,,,,,,,,,,,,,,,,,,,,,,,,,,,,,,,,,
,,697bcf84091fa31a4228774c,2026-03-17_12h03.10.648,kallum_motion_pilot_GIST_update_2,2026.1.1,Win32,60.24096386,697bcf84091fa31a4228774c,69b95efdef24cd8a694e89ee,69b96c21124aeb52c0000699,0.0225,0.0225,1,12,174,135,1,eightseven,,,,,,,,,,,,,,,,,,,,,,,,,,,,,,,,,,,,,,,,,,,,,,,,,,,,,,,,,,,,,,,,,,,,,,,,,,,,,,,,,,,,,,,,,,,,,,,,,,,,,,,,,,,,,,,,,,,,,,,,,,,,,,,,,,,,,,,,,
,,697bcf84091fa31a4228774c,2026-03-17_12h03.10.648,kallum_motion_pilot_GIST_update_2,2026.1.1,Win32,60.24096386,697bcf84091fa31a4228774c,69b95efdef24cd8a694e89ee,69b96c21124aeb52c0000699,0.0225,0.0225,1,13,175,128,1,fivesix,,,,,,,,,,,,,,,,,,,,,,,,,,,,,,,,,,,,,,,,,,,,,,,,,,,,,,,,,,,,,,,,,,,,,,,,,,,,,,,,,,,,,,,,,,,,,,,,,,,,,,,,,,,,,,,,,,,,,,,,,,,,,,,,,,,,,,,,,
,,697bcf84091fa31a4228774c,2026-03-17_12h03.10.648,kallum_motion_pilot_GIST_update_2,2026.1.1,Win32,60.24096386,697bcf84091fa31a4228774c,69b95efdef24cd8a694e89ee,69b96c21124aeb52c0000699,0.0226,0.0226,1,14,176,74,1,twoone,,,,,,,,,,,,,,,,,,,,,,,,,,,,,,,,,,,,,,,,,,,,,,,,,,,,,,,,,,,,,,,,,,,,,,,,,,,,,,,,,,,,,,,,,,,,,,,,,,,,,,,,,,,,,,,,,,,,,,,,,,,,,,,,,,,,,,,,,
,,697bcf84091fa31a4228774c,2026-03-17_12h03.10.648,kallum_motion_pilot_GIST_update_2,2026.1.1,Win32,60.24096386,697bcf84091fa31a4228774c,69b95efdef24cd8a694e89ee,69b96c21124aeb52c0000699,0.0227,0.0227,1,15,177,9,1,onethree,,,,,,,,,,,,,,,,,,,,,,,,,,,,,,,,,,,,,,,,,,,,,,,,,,,,,,,,,,,,,,,,,,,,,,,,,,,,,,,,,,,,,,,,,,,,,,,,,,,,,,,,,,,,,,,,,,,,,,,,,,,,,,,,,,,,,,,,,
,,697bcf84091fa31a4228774c,2026-03-17_12h03.10.648,kallum_motion_pilot_GIST_update_2,2026.1.1,Win32,60.24096386,697bcf84091fa31a4228774c,69b95efdef24cd8a694e89ee,69b96c21124aeb52c0000699,0.0228,0.0228,1,16,178,56,1,onetwo,,,,,,,,,,,,,,,,,,,,,,,,,,,,,,,,,,,,,,,,,,,,,,,,,,,,,,,,,,,,,,,,,,,,,,,,,,,,,,,,,,,,,,,,,,,,,,,,,,,,,,,,,,,,,,,,,,,,,,,,,,,,,,,,,,,,,,,,,
,,697bcf84091fa31a4228774c,2026-03-17_12h03.10.648,kallum_motion_pilot_GIST_update_2,2026.1.1,Win32,60.24096386,697bcf84091fa31a4228774c,69b95efdef24cd8a694e89ee,69b96c21124aeb52c0000699,0.0229,0.0229,1,17,179,40,1,onetwo,,,,,,,,,,,,,,,,,,,,,,,,,,,,,,,,,,,,,,,,,,,,,,,,,,,,,,,,,,,,,,,,,,,,,,,,,,,,,,,,,,,,,,,,,,,,,,,,,,,,,,,,,,,,,,,,,,,,,,,,,,,,,,,,,,,,,,,,,
,,697bcf84091fa31a4228774c,2026-03-17_12h03.10.648,kallum_motion_pilot_GIST_update_2,2026.1.1,Win32,60.24096386,697bcf84091fa31a4228774c,69b95efdef24cd8a694e89ee,69b96c21124aeb52c0000699,0.0229,0.023,1,18,180,5,1,threefour,,,,,,,,,,,,,,,,,,,,,,,,,,,,,,,,,,,,,,,,,,,,,,,,,,,,,,,,,,,,,,,,,,,,,,,,,,,,,,,,,,,,,,,,,,,,,,,,,,,,,,,,,,,,,,,,,,,,,,,,,,,,,,,,,,,,,,,,,
,,697bcf84091fa31a4228774c,2026-03-17_12h03.10.648,kallum_motion_pilot_GIST_update_2,2026.1.1,Win32,60.24096386,697bcf84091fa31a4228774c,69b95efdef24cd8a694e89ee,69b96c21124aeb52c0000699,0.023,0.023,1,19,181,150,1,eightsix,,,,,,,,,,,,,,,,,,,,,,,,,,,,,,,,,,,,,,,,,,,,,,,,,,,,,,,,,,,,,,,,,,,,,,,,,,,,,,,,,,,,,,,,,,,,,,,,,,,,,,,,,,,,,,,,,,,,,,,,,,,,,,,,,,,,,,,,,
,,697bcf84091fa31a4228774c,2026-03-17_12h03.10.648,kallum_motion_pilot_GIST_update_2,2026.1.1,Win32,60.24096386,697bcf84091fa31a4228774c,69b95efdef24cd8a694e89ee,69b96c21124aeb52c0000699,0.0231,0.0231,1,20,182,133,1,seveneight,,,,,,,,,,,,,,,,,,,,,,,,,,,,,,,,,,,,,,,,,,,,,,,,,,,,,,,,,,,,,,,,,,,,,,,,,,,,,,,,,,,,,,,,,,,,,,,,,,,,,,,,,,,,,,,,,,,,,,,,,,,,,,,,,,,,,,,,,
,,697bcf84091fa31a4228774c,2026-03-17_12h03.10.648,kallum_motion_pilot_GIST_update_2,2026.1.1,Win32,60.24096386,697bcf84091fa31a4228774c,69b95efdef24cd8a694e89ee,69b96c21124aeb52c0000699,0.0231,0.0231,1,21,183,22,1,fourtwo,,,,,,,,,,,,,,,,,,,,,,,,,,,,,,,,,,,,,,,,,,,,,,,,,,,,,,,,,,,,,,,,,,,,,,,,,,,,,,,,,,,,,,,,,,,,,,,,,,,,,,,,,,,,,,,,,,,,,,,,,,,,,,,,,,,,,,,,,
,,697bcf84091fa31a4228774c,2026-03-17_12h03.10.648,kallum_motion_pilot_GIST_update_2,2026.1.1,Win32,60.24096386,697bcf84091fa31a4228774c,69b95efdef24cd8a694e89ee,69b96c21124aeb52c0000699,0.0232,0.0232,1,22,184,127,1,eightseven,,,,,,,,,,,,,,,,,,,,,,,,,,,,,,,,,,,,,,,,,,,,,,,,,,,,,,,,,,,,,,,,,,,,,,,,,,,,,,,,,,,,,,,,,,,,,,,,,,,,,,,,,,,,,,,,,,,,,,,,,,,,,,,,,,,,,,,,,
,,697bcf84091fa31a4228774c,2026-03-17_12h03.10.648,kallum_motion_pilot_GIST_update_2,2026.1.1,Win32,60.24096386,697bcf84091fa31a4228774c,69b95efdef24cd8a694e89ee,69b96c21124aeb52c0000699,0.0233,0.0233,1,23,185,115,1,sixeight,,,,,,,,,,,,,,,,,,,,,,,,,,,,,,,,,,,,,,,,,,,,,,,,,,,,,,,,,,,,,,,,,,,,,,,,,,,,,,,,,,,,,,,,,,,,,,,,,,,,,,,,,,,,,,,,,,,,,,,,,,,,,,,,,,,,,,,,,
,,697bcf84091fa31a4228774c,2026-03-17_12h03.10.648,kallum_motion_pilot_GIST_update_2,2026.1.1,Win32,60.24096386,697bcf84091fa31a4228774c,69b95efdef24cd8a694e89ee,69b96c21124aeb52c0000699,0.0234,0.0234,1,24,186,10,1,twoone,,,,,,,,,,,,,,,,,,,,,,,,,,,,,,,,,,,,,,,,,,,,,,,,,,,,,,,,,,,,,,,,,,,,,,,,,,,,,,,,,,,,,,,,,,,,,,,,,,,,,,,,,,,,,,,,,,,,,,,,,,,,,,,,,,,,,,,,,
,,697bcf84091fa31a4228774c,2026-03-17_12h03.10.648,kallum_motion_pilot_GIST_update_2,2026.1.1,Win32,60.24096386,697bcf84091fa31a4228774c,69b95efdef24cd8a694e89ee,69b96c21124aeb52c0000699,0.0235,0.0235,1,25,187,48,1,onetwo,,,,,,,,,,,,,,,,,,,,,,,,,,,,,,,,,,,,,,,,,,,,,,,,,,,,,,,,,,,,,,,,,,,,,,,,,,,,,,,,,,,,,,,,,,,,,,,,,,,,,,,,,,,,,,,,,,,,,,,,,,,,,,,,,,,,,,,,,
,,697bcf84091fa31a4228774c,2026-03-17_12h03.10.648,kallum_motion_pilot_GIST_update_2,2026.1.1,Win32,60.24096386,697bcf84091fa31a4228774c,69b95efdef24cd8a694e89ee,69b96c21124aeb52c0000699,0.0236,0.0236,1,26,188,145,1,fiveseven,,,,,,,,,,,,,,,,,,,,,,,,,,,,,,,,,,,,,,,,,,,,,,,,,,,,,,,,,,,,,,,,,,,,,,,,,,,,,,,,,,,,,,,,,,,,,,,,,,,,,,,,,,,,,,,,,,,,,,,,,,,,,,,,,,,,,,,,,
,,697bcf84091fa31a4228774c,2026-03-17_12h03.10.648,kallum_motion_pilot_GIST_update_2,2026.1.1,Win32,60.24096386,697bcf84091fa31a4228774c,69b95efdef24cd8a694e89ee,69b96c21124aeb52c0000699,0.0236,0.0236,1,27,189,36,1,threeone,,,,,,,,,,,,,,,,,,,,,,,,,,,,,,,,,,,,,,,,,,,,,,,,,,,,,,,,,,,,,,,,,,,,,,,,,,,,,,,,,,,,,,,,,,,,,,,,,,,,,,,,,,,,,,,,,,,,,,,,,,,,,,,,,,,,,,,,,
,,697bcf84091fa31a4228774c,2026-03-17_12h03.10.648,kallum_motion_pilot_GIST_update_2,2026.1.1,Win32,60.24096386,697bcf84091fa31a4228774c,69b95efdef24cd8a694e89ee,69b96c21124aeb52c0000699,0.0236,0.0236,1,28,190,55,1,fourthree,,,,,,,,,,,,,,,,,,,,,,,,,,,,,,,,,,,,,,,,,,,,,,,,,,,,,,,,,,,,,,,,,,,,,,,,,,,,,,,,,,,,,,,,,,,,,,,,,,,,,,,,,,,,,,,,,,,,,,,,,,,,,,,,,,,,,,,,,
,,697bcf84091fa31a4228774c,2026-03-17_12h03.10.648,kallum_motion_pilot_GIST_update_2,2026.1.1,Win32,60.24096386,697bcf84091fa31a4228774c,69b95efdef24cd8a694e89ee,69b96c21124aeb52c0000699,0.0237,0.0237,1,29,191,112,1,fivesix,,,,,,,,,,,,,,,,,,,,,,,,,,,,,,,,,,,,,,,,,,,,,,,,,,,,,,,,,,,,,,,,,,,,,,,,,,,,,,,,,,,,,,,,,,,,,,,,,,,,,,,,,,,,,,,,,,,,,,,,,,,,,,,,,,,,,,,,,
,,697bcf84091fa31a4228774c,2026-03-17_12h03.10.648,kallum_motion_pilot_GIST_update_2,2026.1.1,Win32,60.24096386,697bcf84091fa31a4228774c,69b95efdef24cd8a694e89ee,69b96c21124aeb52c0000699,0.0238,0.0238,1,30,192,17,1,onethree,,,,,,,,,,,,,,,,,,,,,,,,,,,,,,,,,,,,,,,,,,,,,,,,,,,,,,,,,,,,,,,,,,,,,,,,,,,,,,,,,,,,,,,,,,,,,,,,,,,,,,,,,,,,,,,,,,,,,,,,,,,,,,,,,,,,,,,,,
,,697bcf84091fa31a4228774c,2026-03-17_12h03.10.648,kallum_motion_pilot_GIST_update_2,2026.1.1,Win32,60.24096386,697bcf84091fa31a4228774c,69b95efdef24cd8a694e89ee,69b96c21124aeb52c0000699,0.0239,0.0239,1,31,193,21,1,threefour,,,,,,,,,,,,,,,,,,,,,,,,,,,,,,,,,,,,,,,,,,,,,,,,,,,,,,,,,,,,,,,,,,,,,,,,,,,,,,,,,,,,,,,,,,,,,,,,,,,,,,,,,,,,,,,,,,,,,,,,,,,,,,,,,,,,,,,,,
,,697bcf84091fa31a4228774c,2026-03-17_12h03.10.648,kallum_motion_pilot_GIST_update_2,2026.1.1,Win32,60.24096386,697bcf84091fa31a4228774c,69b95efdef24cd8a694e89ee,69b96c21124aeb52c0000699,0.0239,0.0239,1,32,194,61,1,threefour,,,,,,,,,,,,,,,,,,,,,,,,,,,,,,,,,,,,,,,,,,,,,,,,,,,,,,,,,,,,,,,,,,,,,,,,,,,,,,,,,,,,,,,,,,,,,,,,,,,,,,,,,,,,,,,,,,,,,,,,,,,,,,,,,,,,,,,,,
,,697bcf84091fa31a4228774c,2026-03-17_12h03.10.648,kallum_motion_pilot_GIST_update_2,2026.1.1,Win32,60.24096386,697bcf84091fa31a4228774c,69b95efdef24cd8a694e89ee,69b96c21124aeb52c0000699,0.0241,0.0241,1,33,195,11,1,twofour,,,,,,,,,,,,,,,,,,,,,,,,,,,,,,,,,,,,,,,,,,,,,,,,,,,,,,,,,,,,,,,,,,,,,,,,,,,,,,,,,,,,,,,,,,,,,,,,,,,,,,,,,,,,,,,,,,,,,,,,,,,,,,,,,,,,,,,,,
,,697bcf84091fa31a4228774c,2026-03-17_12h03.10.648,kallum_motion_pilot_GIST_update_2,2026.1.1,Win32,60.24096386,697bcf84091fa31a4228774c,69b95efdef24cd8a694e89ee,69b96c21124aeb52c0000699,0.0242,0.0242,1,34,196,37,1,threefour,,,,,,,,,,,,,,,,,,,,,,,,,,,,,,,,,,,,,,,,,,,,,,,,,,,,,,,,,,,,,,,,,,,,,,,,,,,,,,,,,,,,,,,,,,,,,,,,,,,,,,,,,,,,,,,,,,,,,,,,,,,,,,,,,,,,,,,,,
,,697bcf84091fa31a4228774c,2026-03-17_12h03.10.648,kallum_motion_pilot_GIST_update_2,2026.1.1,Win32,60.24096386,697bcf84091fa31a4228774c,69b95efdef24cd8a694e89ee,69b96c21124aeb52c0000699,0.0242,0.0242,1,35,197,153,1,fiveseven,,,,,,,,,,,,,,,,,,,,,,,,,,,,,,,,,,,,,,,,,,,,,,,,,,,,,,,,,,,,,,,,,,,,,,,,,,,,,,,,,,,,,,,,,,,,,,,,,,,,,,,,,,,,,,,,,,,,,,,,,,,,,,,,,,,,,,,,,
,,697bcf84091fa31a4228774c,2026-03-17_12h03.10.648,kallum_motion_pilot_GIST_update_2,2026.1.1,Win32,60.24096386,697bcf84091fa31a4228774c,69b95efdef24cd8a694e89ee,69b96c21124aeb52c0000699,0.0242,0.0242,1,36,198,8,1,onetwo,,,,,,,,,,,,,,,,,,,,,,,,,,,,,,,,,,,,,,,,,,,,,,,,,,,,,,,,,,,,,,,,,,,,,,,,,,,,,,,,,,,,,,,,,,,,,,,,,,,,,,,,,,,,,,,,,,,,,,,,,,,,,,,,,,,,,,,,,
,,697bcf84091fa31a4228774c,2026-03-17_12h03.10.648,kallum_motion_pilot_GIST_update_2,2026.1.1,Win32,60.24096386,697bcf84091fa31a4228774c,69b95efdef24cd8a694e89ee,69b96c21124aeb52c0000699,0.0243,0.0243,1,37,199,81,1,fiveseven,,,,,,,,,,,,,,,,,,,,,,,,,,,,,,,,,,,,,,,,,,,,,,,,,,,,,,,,,,,,,,,,,,,,,,,,,,,,,,,,,,,,,,,,,,,,,,,,,,,,,,,,,,,,,,,,,,,,,,,,,,,,,,,,,,,,,,,,,
,,697bcf84091fa31a4228774c,2026-03-17_12h03.10.648,kallum_motion_pilot_GIST_update_2,2026.1.1,Win32,60.24096386,697bcf84091fa31a4228774c,69b95efdef24cd8a694e89ee,69b96c21124aeb52c0000699,0.0245,0.0245,1,38,200,129,1,fiveseven,,,,,,,,,,,,,,,,,,,,,,,,,,,,,,,,,,,,,,,,,,,,,,,,,,,,,,,,,,,,,,,,,,,,,,,,,,,,,,,,,,,,,,,,,,,,,,,,,,,,,,,,,,,,,,,,,,,,,,,,,,,,,,,,,,,,,,,,,
,,697bcf84091fa31a4228774c,2026-03-17_12h03.10.648,kallum_motion_pilot_GIST_update_2,2026.1.1,Win32,60.24096386,697bcf84091fa31a4228774c,69b95efdef24cd8a694e89ee,69b96c21124aeb52c0000699,0.0245,0.0246,1,39,201,7,1,fourthree,,,,,,,,,,,,,,,,,,,,,,,,,,,,,,,,,,,,,,,,,,,,,,,,,,,,,,,,,,,,,,,,,,,,,,,,,,,,,,,,,,,,,,,,,,,,,,,,,,,,,,,,,,,,,,,,,,,,,,,,,,,,,,,,,,,,,,,,,
,,697bcf84091fa31a4228774c,2026-03-17_12h03.10.648,kallum_motion_pilot_GIST_update_2,2026.1.1,Win32,60.24096386,697bcf84091fa31a4228774c,69b95efdef24cd8a694e89ee,69b96c21124aeb52c0000699,0.0246,0.0246,1,40,202,103,1,eightseven,,,,,,,,,,,,,,,,,,,,,,,,,,,,,,,,,,,,,,,,,,,,,,,,,,,,,,,,,,,,,,,,,,,,,,,,,,,,,,,,,,,,,,,,,,,,,,,,,,,,,,,,,,,,,,,,,,,,,,,,,,,,,,,,,,,,,,,,,
,,697bcf84091fa31a4228774c,2026-03-17_12h03.10.648,kallum_motion_pilot_GIST_update_2,2026.1.1,Win32,60.24096386,697bcf84091fa31a4228774c,69b95efdef24cd8a694e89ee,69b96c21124aeb52c0000699,0.0247,0.0247,1,41,203,155,1,sixeight,,,,,,,,,,,,,,,,,,,,,,,,,,,,,,,,,,,,,,,,,,,,,,,,,,,,,,,,,,,,,,,,,,,,,,,,,,,,,,,,,,,,,,,,,,,,,,,,,,,,,,,,,,,,,,,,,,,,,,,,,,,,,,,,,,,,,,,,,
,,697bcf84091fa31a4228774c,2026-03-17_12h03.10.648,kallum_motion_pilot_GIST_update_2,2026.1.1,Win32,60.24096386,697bcf84091fa31a4228774c,69b95efdef24cd8a694e89ee,69b96c21124aeb52c0000699,0.0248,0.0248,1,42,204,122,1,sixfive,,,,,,,,,,,,,,,,,,,,,,,,,,,,,,,,,,,,,,,,,,,,,,,,,,,,,,,,,,,,,,,,,,,,,,,,,,,,,,,,,,,,,,,,,,,,,,,,,,,,,,,,,,,,,,,,,,,,,,,,,,,,,,,,,,,,,,,,,
,,697bcf84091fa31a4228774c,2026-03-17_12h03.10.648,kallum_motion_pilot_GIST_update_2,2026.1.1,Win32,60.24096386,697bcf84091fa31a4228774c,69b95efdef24cd8a694e89ee,69b96c21124aeb52c0000699,0.0248,0.0248,1,43,205,33,1,onethree,,,,,,,,,,,,,,,,,,,,,,,,,,,,,,,,,,,,,,,,,,,,,,,,,,,,,,,,,,,,,,,,,,,,,,,,,,,,,,,,,,,,,,,,,,,,,,,,,,,,,,,,,,,,,,,,,,,,,,,,,,,,,,,,,,,,,,,,,
,,697bcf84091fa31a4228774c,2026-03-17_12h03.10.648,kallum_motion_pilot_GIST_update_2,2026.1.1,Win32,60.24096386,697bcf84091fa31a4228774c,69b95efdef24cd8a694e89ee,69b96c21124aeb52c0000699,0.0249,0.0249,1,44,206,78,1,fourtwo,,,,,,,,,,,,,,,,,,,,,,,,,,,,,,,,,,,,,,,,,,,,,,,,,,,,,,,,,,,,,,,,,,,,,,,,,,,,,,,,,,,,,,,,,,,,,,,,,,,,,,,,,,,,,,,,,,,,,,,,,,,,,,,,,,,,,,,,,
,,697bcf84091fa31a4228774c,2026-03-17_12h03.10.648,kallum_motion_pilot_GIST_update_2,2026.1.1,Win32,60.24096386,697bcf84091fa31a4228774c,69b95efdef24cd8a694e89ee,69b96c21124aeb52c0000699,0.025,0.025,1,45,207,140,1,sevenfive,,,,,,,,,,,,,,,,,,,,,,,,,,,,,,,,,,,,,,,,,,,,,,,,,,,,,,,,,,,,,,,,,,,,,,,,,,,,,,,,,,,,,,,,,,,,,,,,,,,,,,,,,,,,,,,,,,,,,,,,,,,,,,,,,,,,,,,,,
,,697bcf84091fa31a4228774c,2026-03-17_12h03.10.648,kallum_motion_pilot_GIST_update_2,2026.1.1,Win32,60.24096386,697bcf84091fa31a4228774c,69b95efdef24cd8a694e89ee,69b96c21124aeb52c0000699,0.025,0.025,1,46,208,98,1,sixfive,,,,,,,,,,,,,,,,,,,,,,,,,,,,,,,,,,,,,,,,,,,,,,,,,,,,,,,,,,,,,,,,,,,,,,,,,,,,,,,,,,,,,,,,,,,,,,,,,,,,,,,,,,,,,,,,,,,,,,,,,,,,,,,,,,,,,,,,,
,,697bcf84091fa31a4228774c,2026-03-17_12h03.10.648,kallum_motion_pilot_GIST_update_2,2026.1.1,Win32,60.24096386,697bcf84091fa31a4228774c,69b95efdef24cd8a694e89ee,69b96c21124aeb52c0000699,0.0251,0.0251,1,47,209,70,1,fourtwo,,,,,,,,,,,,,,,,,,,,,,,,,,,,,,,,,,,,,,,,,,,,,,,,,,,,,,,,,,,,,,,,,,,,,,,,,,,,,,,,,,,,,,,,,,,,,,,,,,,,,,,,,,,,,,,,,,,,,,,,,,,,,,,,,,,,,,,,,
,,697bcf84091fa31a4228774c,2026-03-17_12h03.10.648,kallum_motion_pilot_GIST_update_2,2026.1.1,Win32,60.24096386,697bcf84091fa31a4228774c,69b95efdef24cd8a694e89ee,69b96c21124aeb52c0000699,0.0251,0.0251,1,48,210,91,1,sixeight,,,,,,,,,,,,,,,,,,,,,,,,,,,,,,,,,,,,,,,,,,,,,,,,,,,,,,,,,,,,,,,,,,,,,,,,,,,,,,,,,,,,,,,,,,,,,,,,,,,,,,,,,,,,,,,,,,,,,,,,,,,,,,,,,,,,,,,,,
,,697bcf84091fa31a4228774c,2026-03-17_12h03.10.648,kallum_motion_pilot_GIST_update_2,2026.1.1,Win32,60.24096386,697bcf84091fa31a4228774c,69b95efdef24cd8a694e89ee,69b96c21124aeb52c0000699,0.0252,0.0252,1,49,211,137,1,fiveseven,,,,,,,,,,,,,,,,,,,,,,,,,,,,,,,,,,,,,,,,,,,,,,,,,,,,,,,,,,,,,,,,,,,,,,,,,,,,,,,,,,,,,,,,,,,,,,,,,,,,,,,,,,,,,,,,,,,,,,,,,,,,,,,,,,,,,,,,,
,,697bcf84091fa31a4228774c,2026-03-17_12h03.10.648,kallum_motion_pilot_GIST_update_2,2026.1.1,Win32,60.24096386,697bcf84091fa31a4228774c,69b95efdef24cd8a694e89ee,69b96c21124aeb52c0000699,0.0254,0.0254,1,50,212,160,1,fivesix,,,,,,,,,,,,,,,,,,,,,,,,,,,,,,,,,,,,,,,,,,,,,,,,,,,,,,,,,,,,,,,,,,,,,,,,,,,,,,,,,,,,,,,,,,,,,,,,,,,,,,,,,,,,,,,,,,,,,,,,,,,,,,,,,,,,,,,,,
,,697bcf84091fa31a4228774c,2026-03-17_12h03.10.648,kallum_motion_pilot_GIST_update_2,2026.1.1,Win32,60.24096386,697bcf84091fa31a4228774c,69b95efdef24cd8a694e89ee,69b96c21124aeb52c0000699,0.0254,0.0254,1,51,213,101,1,seveneight,,,,,,,,,,,,,,,,,,,,,,,,,,,,,,,,,,,,,,,,,,,,,,,,,,,,,,,,,,,,,,,,,,,,,,,,,,,,,,,,,,,,,,,,,,,,,,,,,,,,,,,,,,,,,,,,,,,,,,,,,,,,,,,,,,,,,,,,,
,,697bcf84091fa31a4228774c,2026-03-17_12h03.10.648,kallum_motion_pilot_GIST_update_2,2026.1.1,Win32,60.24096386,697bcf84091fa31a4228774c,69b95efdef24cd8a694e89ee,69b96c21124aeb52c0000699,0.0255,0.0255,1,52,214,63,1,fourthree,,,,,,,,,,,,,,,,,,,,,,,,,,,,,,,,,,,,,,,,,,,,,,,,,,,,,,,,,,,,,,,,,,,,,,,,,,,,,,,,,,,,,,,,,,,,,,,,,,,,,,,,,,,,,,,,,,,,,,,,,,,,,,,,,,,,,,,,,
,,697bcf84091fa31a4228774c,2026-03-17_12h03.10.648,kallum_motion_pilot_GIST_update_2,2026.1.1,Win32,60.24096386,697bcf84091fa31a4228774c,69b95efdef24cd8a694e89ee,69b96c21124aeb52c0000699,0.0256,0.0256,1,53,215,41,1,onethree,,,,,,,,,,,,,,,,,,,,,,,,,,,,,,,,,,,,,,,,,,,,,,,,,,,,,,,,,,,,,,,,,,,,,,,,,,,,,,,,,,,,,,,,,,,,,,,,,,,,,,,,,,,,,,,,,,,,,,,,,,,,,,,,,,,,,,,,,
,,697bcf84091fa31a4228774c,2026-03-17_12h03.10.648,kallum_motion_pilot_GIST_update_2,2026.1.1,Win32,60.24096386,697bcf84091fa31a4228774c,69b95efdef24cd8a694e89ee,69b96c21124aeb52c0000699,0.0256,0.0256,1,54,216,31,1,fourthree,,,,,,,,,,,,,,,,,,,,,,,,,,,,,,,,,,,,,,,,,,,,,,,,,,,,,,,,,,,,,,,,,,,,,,,,,,,,,,,,,,,,,,,,,,,,,,,,,,,,,,,,,,,,,,,,,,,,,,,,,,,,,,,,,,,,,,,,,
,,697bcf84091fa31a4228774c,2026-03-17_12h03.10.648,kallum_motion_pilot_GIST_update_2,2026.1.1,Win32,60.24096386,697bcf84091fa31a4228774c,69b95efdef24cd8a694e89ee,69b96c21124aeb52c0000699,0.0257,0.0257,1,55,217,62,1,fourtwo,,,,,,,,,,,,,,,,,,,,,,,,,,,,,,,,,,,,,,,,,,,,,,,,,,,,,,,,,,,,,,,,,,,,,,,,,,,,,,,,,,,,,,,,,,,,,,,,,,,,,,,,,,,,,,,,,,,,,,,,,,,,,,,,,,,,,,,,,
,,697bcf84091fa31a4228774c,2026-03-17_12h03.10.648,kallum_motion_pilot_GIST_update_2,2026.1.1,Win32,60.24096386,697bcf84091fa31a4228774c,69b95efdef24cd8a694e89ee,69b96c21124aeb52c0000699,0.0257,0.0257,1,56,218,54,1,fourtwo,,,,,,,,,,,,,,,,,,,,,,,,,,,,,,,,,,,,,,,,,,,,,,,,,,,,,,,,,,,,,,,,,,,,,,,,,,,,,,,,,,,,,,,,,,,,,,,,,,,,,,,,,,,,,,,,,,,,,,,,,,,,,,,,,,,,,,,,,
,,697bcf84091fa31a4228774c,2026-03-17_12h03.10.648,kallum_motion_pilot_GIST_update_2,2026.1.1,Win32,60.24096386,697bcf84091fa31a4228774c,69b95efdef24cd8a694e89ee,69b96c21124aeb52c0000699,0.0259,0.0259,1,57,219,44,1,threeone,,,,,,,,,,,,,,,,,,,,,,,,,,,,,,,,,,,,,,,,,,,,,,,,,,,,,,,,,,,,,,,,,,,,,,,,,,,,,,,,,,,,,,,,,,,,,,,,,,,,,,,,,,,,,,,,,,,,,,,,,,,,,,,,,,,,,,,,,
,,697bcf84091fa31a4228774c,2026-03-17_12h03.10.648,kallum_motion_pilot_GIST_update_2,2026.1.1,Win32,60.24096386,697bcf84091fa31a4228774c,69b95efdef24cd8a694e89ee,69b96c21124aeb52c0000699,0.0259,0.0259,1,58,220,130,1,sixfive,,,,,,,,,,,,,,,,,,,,,,,,,,,,,,,,,,,,,,,,,,,,,,,,,,,,,,,,,,,,,,,,,,,,,,,,,,,,,,,,,,,,,,,,,,,,,,,,,,,,,,,,,,,,,,,,,,,,,,,,,,,,,,,,,,,,,,,,,
,,697bcf84091fa31a4228774c,2026-03-17_12h03.10.648,kallum_motion_pilot_GIST_update_2,2026.1.1,Win32,60.24096386,697bcf84091fa31a4228774c,69b95efdef24cd8a694e89ee,69b96c21124aeb52c0000699,0.026,0.026,1,59,221,104,1,fivesix,,,,,,,,,,,,,,,,,,,,,,,,,,,,,,,,,,,,,,,,,,,,,,,,,,,,,,,,,,,,,,,,,,,,,,,,,,,,,,,,,,,,,,,,,,,,,,,,,,,,,,,,,,,,,,,,,,,,,,,,,,,,,,,,,,,,,,,,,
,,697bcf84091fa31a4228774c,2026-03-17_12h03.10.648,kallum_motion_pilot_GIST_update_2,2026.1.1,Win32,60.24096386,697bcf84091fa31a4228774c,69b95efdef24cd8a694e89ee,69b96c21124aeb52c0000699,0.0261,0.0261,1,60,222,123,1,sixeight,,,,,,,,,,,,,,,,,,,,,,,,,,,,,,,,,,,,,,,,,,,,,,,,,,,,,,,,,,,,,,,,,,,,,,,,,,,,,,,,,,,,,,,,,,,,,,,,,,,,,,,,,,,,,,,,,,,,,,,,,,,,,,,,,,,,,,,,,
,,697bcf84091fa31a4228774c,2026-03-17_12h03.10.648,kallum_motion_pilot_GIST_update_2,2026.1.1,Win32,60.24096386,697bcf84091fa31a4228774c,69b95efdef24cd8a694e89ee,69b96c21124aeb52c0000699,0.0261,0.0261,1,61,223,111,1,eightseven,,,,,,,,,,,,,,,,,,,,,,,,,,,,,,,,,,,,,,,,,,,,,,,,,,,,,,,,,,,,,,,,,,,,,,,,,,,,,,,,,,,,,,,,,,,,,,,,,,,,,,,,,,,,,,,,,,,,,,,,,,,,,,,,,,,,,,,,,
,,697bcf84091fa31a4228774c,2026-03-17_12h03.10.648,kallum_motion_pilot_GIST_update_2,2026.1.1,Win32,60.24096386,697bcf84091fa31a4228774c,69b95efdef24cd8a694e89ee,69b96c21124aeb52c0000699,0.0262,0.0262,1,62,224,134,1,eightsix,,,,,,,,,,,,,,,,,,,,,,,,,,,,,,,,,,,,,,,,,,,,,,,,,,,,,,,,,,,,,,,,,,,,,,,,,,,,,,,,,,,,,,,,,,,,,,,,,,,,,,,,,,,,,,,,,,,,,,,,,,,,,,,,,,,,,,,,,
,,697bcf84091fa31a4228774c,2026-03-17_12h03.10.648,kallum_motion_pilot_GIST_update_2,2026.1.1,Win32,60.24096386,697bcf84091fa31a4228774c,69b95efdef24cd8a694e89ee,69b96c21124aeb52c0000699,0.0263,0.0263,1,63,225,126,1,eightsix,,,,,,,,,,,,,,,,,,,,,,,,,,,,,,,,,,,,,,,,,,,,,,,,,,,,,,,,,,,,,,,,,,,,,,,,,,,,,,,,,,,,,,,,,,,,,,,,,,,,,,,,,,,,,,,,,,,,,,,,,,,,,,,,,,,,,,,,,
,,697bcf84091fa31a4228774c,2026-03-17_12h03.10.648,kallum_motion_pilot_GIST_update_2,2026.1.1,Win32,60.24096386,697bcf84091fa31a4228774c,69b95efdef24cd8a694e89ee,69b96c21124aeb52c0000699,0.0264,0.0264,1,64,226,110,1,eightsix,,,,,,,,,,,,,,,,,,,,,,,,,,,,,,,,,,,,,,,,,,,,,,,,,,,,,,,,,,,,,,,,,,,,,,,,,,,,,,,,,,,,,,,,,,,,,,,,,,,,,,,,,,,,,,,,,,,,,,,,,,,,,,,,,,,,,,,,,
,,697bcf84091fa31a4228774c,2026-03-17_12h03.10.648,kallum_motion_pilot_GIST_update_2,2026.1.1,Win32,60.24096386,697bcf84091fa31a4228774c,69b95efdef24cd8a694e89ee,69b96c21124aeb52c0000699,0.0265,0.0265,1,65,227,159,1,eightseven,,,,,,,,,,,,,,,,,,,,,,,,,,,,,,,,,,,,,,,,,,,,,,,,,,,,,,,,,,,,,,,,,,,,,,,,,,,,,,,,,,,,,,,,,,,,,,,,,,,,,,,,,,,,,,,,,,,,,,,,,,,,,,,,,,,,,,,,,
,,697bcf84091fa31a4228774c,2026-03-17_12h03.10.648,kallum_motion_pilot_GIST_update_2,2026.1.1,Win32,60.24096386,697bcf84091fa31a4228774c,69b95efdef24cd8a694e89ee,69b96c21124aeb52c0000699,0.0265,0.0265,1,66,228,161,1,fiveseven,,,,,,,,,,,,,,,,,,,,,,,,,,,,,,,,,,,,,,,,,,,,,,,,,,,,,,,,,,,,,,,,,,,,,,,,,,,,,,,,,,,,,,,,,,,,,,,,,,,,,,,,,,,,,,,,,,,,,,,,,,,,,,,,,,,,,,,,,
,,697bcf84091fa31a4228774c,2026-03-17_12h03.10.648,kallum_motion_pilot_GIST_update_2,2026.1.1,Win32,60.24096386,697bcf84091fa31a4228774c,69b95efdef24cd8a694e89ee,69b96c21124aeb52c0000699,0.0266,0.0266,1,67,229,120,1,fivesix,,,,,,,,,,,,,,,,,,,,,,,,,,,,,,,,,,,,,,,,,,,,,,,,,,,,,,,,,,,,,,,,,,,,,,,,,,,,,,,,,,,,,,,,,,,,,,,,,,,,,,,,,,,,,,,,,,,,,,,,,,,,,,,,,,,,,,,,,
,,697bcf84091fa31a4228774c,2026-03-17_12h03.10.648,kallum_motion_pilot_GIST_update_2,2026.1.1,Win32,60.24096386,697bcf84091fa31a4228774c,69b95efdef24cd8a694e89ee,69b96c21124aeb52c0000699,0.0266,0.0266,1,68,230,77,1,threefour,,,,,,,,,,,,,,,,,,,,,,,,,,,,,,,,,,,,,,,,,,,,,,,,,,,,,,,,,,,,,,,,,,,,,,,,,,,,,,,,,,,,,,,,,,,,,,,,,,,,,,,,,,,,,,,,,,,,,,,,,,,,,,,,,,,,,,,,,
,,697bcf84091fa31a4228774c,2026-03-17_12h03.10.648,kallum_motion_pilot_GIST_update_2,2026.1.1,Win32,60.24096386,697bcf84091fa31a4228774c,69b95efdef24cd8a694e89ee,69b96c21124aeb52c0000699,0.0267,0.0267,1,69,231,49,1,onethree,,,,,,,,,,,,,,,,,,,,,,,,,,,,,,,,,,,,,,,,,,,,,,,,,,,,,,,,,,,,,,,,,,,,,,,,,,,,,,,,,,,,,,,,,,,,,,,,,,,,,,,,,,,,,,,,,,,,,,,,,,,,,,,,,,,,,,,,,
,,697bcf84091fa31a4228774c,2026-03-17_12h03.10.648,kallum_motion_pilot_GIST_update_2,2026.1.1,Win32,60.24096386,697bcf84091fa31a4228774c,69b95efdef24cd8a694e89ee,69b96c21124aeb52c0000699,0.0268,0.0268,1,70,232,23,1,fourthree,,,,,,,,,,,,,,,,,,,,,,,,,,,,,,,,,,,,,,,,,,,,,,,,,,,,,,,,,,,,,,,,,,,,,,,,,,,,,,,,,,,,,,,,,,,,,,,,,,,,,,,,,,,,,,,,,,,,,,,,,,,,,,,,,,,,,,,,,
,,697bcf84091fa31a4228774c,2026-03-17_12h03.10.648,kallum_motion_pilot_GIST_update_2,2026.1.1,Win32,60.24096386,697bcf84091fa31a4228774c,69b95efdef24cd8a694e89ee,69b96c21124aeb52c0000699,0.0268,0.0269,1,71,233,93,1,seveneight,,,,,,,,,,,,,,,,,,,,,,,,,,,,,,,,,,,,,,,,,,,,,,,,,,,,,,,,,,,,,,,,,,,,,,,,,,,,,,,,,,,,,,,,,,,,,,,,,,,,,,,,,,,,,,,,,,,,,,,,,,,,,,,,,,,,,,,,,
,,697bcf84091fa31a4228774c,2026-03-17_12h03.10.648,kallum_motion_pilot_GIST_update_2,2026.1.1,Win32,60.24096386,697bcf84091fa31a4228774c,69b95efdef24cd8a694e89ee,69b96c21124aeb52c0000699,0.0269,0.0269,1,72,234,57,1,onethree,,,,,,,,,,,,,,,,,,,,,,,,,,,,,,,,,,,,,,,,,,,,,,,,,,,,,,,,,,,,,,,,,,,,,,,,,,,,,,,,,,,,,,,,,,,,,,,,,,,,,,,,,,,,,,,,,,,,,,,,,,,,,,,,,,,,,,,,,
,,697bcf84091fa31a4228774c,2026-03-17_12h03.10.648,kallum_motion_pilot_GIST_update_2,2026.1.1,Win32,60.24096386,697bcf84091fa31a4228774c,69b95efdef24cd8a694e89ee,69b96c21124aeb52c0000699,0.0271,0.0271,1,73,235,24,1,onetwo,,,,,,,,,,,,,,,,,,,,,,,,,,,,,,,,,,,,,,,,,,,,,,,,,,,,,,,,,,,,,,,,,,,,,,,,,,,,,,,,,,,,,,,,,,,,,,,,,,,,,,,,,,,,,,,,,,,,,,,,,,,,,,,,,,,,,,,,,
,,697bcf84091fa31a4228774c,2026-03-17_12h03.10.648,kallum_motion_pilot_GIST_update_2,2026.1.1,Win32,60.24096386,697bcf84091fa31a4228774c,69b95efdef24cd8a694e89ee,69b96c21124aeb52c0000699,0.0271,0.0271,1,74,236,100,1,sevenfive,,,,,,,,,,,,,,,,,,,,,,,,,,,,,,,,,,,,,,,,,,,,,,,,,,,,,,,,,,,,,,,,,,,,,,,,,,,,,,,,,,,,,,,,,,,,,,,,,,,,,,,,,,,,,,,,,,,,,,,,,,,,,,,,,,,,,,,,,
,,697bcf84091fa31a4228774c,2026-03-17_12h03.10.648,kallum_motion_pilot_GIST_update_2,2026.1.1,Win32,60.24096386,697bcf84091fa31a4228774c,69b95efdef24cd8a694e89ee,69b96c21124aeb52c0000699,0.0272,0.0272,1,75,237,136,1,fivesix,,,,,,,,,,,,,,,,,,,,,,,,,,,,,,,,,,,,,,,,,,,,,,,,,,,,,,,,,,,,,,,,,,,,,,,,,,,,,,,,,,,,,,,,,,,,,,,,,,,,,,,,,,,,,,,,,,,,,,,,,,,,,,,,,,,,,,,,,
,,697bcf84091fa31a4228774c,2026-03-17_12h03.10.648,kallum_motion_pilot_GIST_update_2,2026.1.1,Win32,60.24096386,697bcf84091fa31a4228774c,69b95efdef24cd8a694e89ee,69b96c21124aeb52c0000699,0.0272,0.0272,1,76,238,156,1,sevenfive,,,,,,,,,,,,,,,,,,,,,,,,,,,,,,,,,,,,,,,,,,,,,,,,,,,,,,,,,,,,,,,,,,,,,,,,,,,,,,,,,,,,,,,,,,,,,,,,,,,,,,,,,,,,,,,,,,,,,,,,,,,,,,,,,,,,,,,,,
,,697bcf84091fa31a4228774c,2026-03-17_12h03.10.648,kallum_motion_pilot_GIST_update_2,2026.1.1,Win32,60.24096386,697bcf84091fa31a4228774c,69b95efdef24cd8a694e89ee,69b96c21124aeb52c0000699,0.0273,0.0273,1,77,239,65,1,onethree,,,,,,,,,,,,,,,,,,,,,,,,,,,,,,,,,,,,,,,,,,,,,,,,,,,,,,,,,,,,,,,,,,,,,,,,,,,,,,,,,,,,,,,,,,,,,,,,,,,,,,,,,,,,,,,,,,,,,,,,,,,,,,,,,,,,,,,,,
,,697bcf84091fa31a4228774c,2026-03-17_12h03.10.648,kallum_motion_pilot_GIST_update_2,2026.1.1,Win32,60.24096386,697bcf84091fa31a4228774c,69b95efdef24cd8a694e89ee,69b96c21124aeb52c0000699,0.0274,0.0274,1,78,240,152,1,fivesix,,,,,,,,,,,,,,,,,,,,,,,,,,,,,,,,,,,,,,,,,,,,,,,,,,,,,,,,,,,,,,,,,,,,,,,,,,,,,,,,,,,,,,,,,,,,,,,,,,,,,,,,,,,,,,,,,,,,,,,,,,,,,,,,,,,,,,,,,
,,697bcf84091fa31a4228774c,2026-03-17_12h03.10.648,kallum_motion_pilot_GIST_update_2,2026.1.1,Win32,60.24096386,697bcf84091fa31a4228774c,69b95efdef24cd8a694e89ee,69b96c21124aeb52c0000699,0.0275,0.0275,1,79,241,82,1,sixfive,,,,,,,,,,,,,,,,,,,,,,,,,,,,,,,,,,,,,,,,,,,,,,,,,,,,,,,,,,,,,,,,,,,,,,,,,,,,,,,,,,,,,,,,,,,,,,,,,,,,,,,,,,,,,,,,,,,,,,,,,,,,,,,,,,,,,,,,,
,,697bcf84091fa31a4228774c,2026-03-17_12h03.10.648,kallum_motion_pilot_GIST_update_2,2026.1.1,Win32,60.24096386,697bcf84091fa31a4228774c,69b95efdef24cd8a694e89ee,69b96c21124aeb52c0000699,0.0275,0.0275,1,80,242,71,1,fourthree,,,,,,,,,,,,,,,,,,,,,,,,,,,,,,,,,,,,,,,,,,,,,,,,,,,,,,,,,,,,,,,,,,,,,,,,,,,,,,,,,,,,,,,,,,,,,,,,,,,,,,,,,,,,,,,,,,,,,,,,,,,,,,,,,,,,,,,,,
,,697bcf84091fa31a4228774c,2026-03-17_12h03.10.648,kallum_motion_pilot_GIST_update_2,2026.1.1,Win32,60.24096386,697bcf84091fa31a4228774c,69b95efdef24cd8a694e89ee,69b96c21124aeb52c0000699,0.0276,0.0276,1,81,243,117,1,seveneight,,,,,,,,,,,,,,,,,,,,,,,,,,,,,,,,,,,,,,,,,,,,,,,,,,,,,,,,,,,,,,,,,,,,,,,,,,,,,,,,,,,,,,,,,,,,,,,,,,,,,,,,,,,,,,,,,,,,,,,,,,,,,,,,,,,,,,,,,
,,697bcf84091fa31a4228774c,2026-03-17_12h03.10.648,kallum_motion_pilot_GIST_update_2,2026.1.1,Win32,60.24096386,697bcf84091fa31a4228774c,69b95efdef24cd8a694e89ee,69b96c21124aeb52c0000699,0.0278,0.0278,1,82,244,25,1,onethree,,,,,,,,,,,,,,,,,,,,,,,,,,,,,,,,,,,,,,,,,,,,,,,,,,,,,,,,,,,,,,,,,,,,,,,,,,,,,,,,,,,,,,,,,,,,,,,,,,,,,,,,,,,,,,,,,,,,,,,,,,,,,,,,,,,,,,,,,
,,697bcf84091fa31a4228774c,2026-03-17_12h03.10.648,kallum_motion_pilot_GIST_update_2,2026.1.1,Win32,60.24096386,697bcf84091fa31a4228774c,69b95efdef24cd8a694e89ee,69b96c21124aeb52c0000699,0.0278,0.0278,1,83,245,69,1,threefour,,,,,,,,,,,,,,,,,,,,,,,,,,,,,,,,,,,,,,,,,,,,,,,,,,,,,,,,,,,,,,,,,,,,,,,,,,,,,,,,,,,,,,,,,,,,,,,,,,,,,,,,,,,,,,,,,,,,,,,,,,,,,,,,,,,,,,,,,
,,697bcf84091fa31a4228774c,2026-03-17_12h03.10.648,kallum_motion_pilot_GIST_update_2,2026.1.1,Win32,60.24096386,697bcf84091fa31a4228774c,69b95efdef24cd8a694e89ee,69b96c21124aeb52c0000699,0.0279,0.0279,1,84,246,88,1,fivesix,,,,,,,,,,,,,,,,,,,,,,,,,,,,,,,,,,,,,,,,,,,,,,,,,,,,,,,,,,,,,,,,,,,,,,,,,,,,,,,,,,,,,,,,,,,,,,,,,,,,,,,,,,,,,,,,,,,,,,,,,,,,,,,,,,,,,,,,,
,,697bcf84091fa31a4228774c,2026-03-17_12h03.10.648,kallum_motion_pilot_GIST_update_2,2026.1.1,Win32,60.24096386,697bcf84091fa31a4228774c,69b95efdef24cd8a694e89ee,69b96c21124aeb52c0000699,0.028,0.028,1,85,247,45,1,threefour,,,,,,,,,,,,,,,,,,,,,,,,,,,,,,,,,,,,,,,,,,,,,,,,,,,,,,,,,,,,,,,,,,,,,,,,,,,,,,,,,,,,,,,,,,,,,,,,,,,,,,,,,,,,,,,,,,,,,,,,,,,,,,,,,,,,,,,,,
,,697bcf84091fa31a4228774c,2026-03-17_12h03.10.648,kallum_motion_pilot_GIST_update_2,2026.1.1,Win32,60.24096386,697bcf84091fa31a4228774c,69b95efdef24cd8a694e89ee,69b96c21124aeb52c0000699,0.0281,0.0281,1,86,248,51,1,twofour,,,,,,,,,,,,,,,,,,,,,,,,,,,,,,,,,,,,,,,,,,,,,,,,,,,,,,,,,,,,,,,,,,,,,,,,,,,,,,,,,,,,,,,,,,,,,,,,,,,,,,,,,,,,,,,,,,,,,,,,,,,,,,,,,,,,,,,,,
,,697bcf84091fa31a4228774c,2026-03-17_12h03.10.648,kallum_motion_pilot_GIST_update_2,2026.1.1,Win32,60.24096386,697bcf84091fa31a4228774c,69b95efdef24cd8a694e89ee,69b96c21124aeb52c0000699,0.0281,0.0281,1,87,249,157,1,seveneight,,,,,,,,,,,,,,,,,,,,,,,,,,,,,,,,,,,,,,,,,,,,,,,,,,,,,,,,,,,,,,,,,,,,,,,,,,,,,,,,,,,,,,,,,,,,,,,,,,,,,,,,,,,,,,,,,,,,,,,,,,,,,,,,,,,,,,,,,
,,697bcf84091fa31a4228774c,2026-03-17_12h03.10.648,kallum_motion_pilot_GIST_update_2,2026.1.1,Win32,60.24096386,697bcf84091fa31a4228774c,69b95efdef24cd8a694e89ee,69b96c21124aeb52c0000699,0.0282,0.0282,1,88,250,20,1,threeone,,,,,,,,,,,,,,,,,,,,,,,,,,,,,,,,,,,,,,,,,,,,,,,,,,,,,,,,,,,,,,,,,,,,,,,,,,,,,,,,,,,,,,,,,,,,,,,,,,,,,,,,,,,,,,,,,,,,,,,,,,,,,,,,,,,,,,,,,
,,697bcf84091fa31a4228774c,2026-03-17_12h03.10.648,kallum_motion_pilot_GIST_update_2,2026.1.1,Win32,60.24096386,697bcf84091fa31a4228774c,69b95efdef24cd8a694e89ee,69b96c21124aeb52c0000699,0.0283,0.0283,1,89,251,102,1,eightsix,,,,,,,,,,,,,,,,,,,,,,,,,,,,,,,,,,,,,,,,,,,,,,,,,,,,,,,,,,,,,,,,,,,,,,,,,,,,,,,,,,,,,,,,,,,,,,,,,,,,,,,,,,,,,,,,,,,,,,,,,,,,,,,,,,,,,,,,,
,,697bcf84091fa31a4228774c,2026-03-17_12h03.10.648,kallum_motion_pilot_GIST_update_2,2026.1.1,Win32,60.24096386,697bcf84091fa31a4228774c,69b95efdef24cd8a694e89ee,69b96c21124aeb52c0000699,0.0283,0.0283,1,90,252,35,1,twofour,,,,,,,,,,,,,,,,,,,,,,,,,,,,,,,,,,,,,,,,,,,,,,,,,,,,,,,,,,,,,,,,,,,,,,,,,,,,,,,,,,,,,,,,,,,,,,,,,,,,,,,,,,,,,,,,,,,,,,,,,,,,,,,,,,,,,,,,,
,,697bcf84091fa31a4228774c,2026-03-17_12h03.10.648,kallum_motion_pilot_GIST_update_2,2026.1.1,Win32,60.24096386,697bcf84091fa31a4228774c,69b95efdef24cd8a694e89ee,69b96c21124aeb52c0000699,0.0284,0.0284,1,91,253,113,1,fiveseven,,,,,,,,,,,,,,,,,,,,,,,,,,,,,,,,,,,,,,,,,,,,,,,,,,,,,,,,,,,,,,,,,,,,,,,,,,,,,,,,,,,,,,,,,,,,,,,,,,,,,,,,,,,,,,,,,,,,,,,,,,,,,,,,,,,,,,,,,
,,697bcf84091fa31a4228774c,2026-03-17_12h03.10.648,kallum_motion_pilot_GIST_update_2,2026.1.1,Win32,60.24096386,697bcf84091fa31a4228774c,69b95efdef24cd8a694e89ee,69b96c21124aeb52c0000699,0.0286,0.0286,1,92,254,14,1,fourtwo,,,,,,,,,,,,,,,,,,,,,,,,,,,,,,,,,,,,,,,,,,,,,,,,,,,,,,,,,,,,,,,,,,,,,,,,,,,,,,,,,,,,,,,,,,,,,,,,,,,,,,,,,,,,,,,,,,,,,,,,,,,,,,,,,,,,,,,,,
,,697bcf84091fa31a4228774c,2026-03-17_12h03.10.648,kallum_motion_pilot_GIST_update_2,2026.1.1,Win32,60.24096386,697bcf84091fa31a4228774c,69b95efdef24cd8a694e89ee,69b96c21124aeb52c0000699,0.0287,0.0287,1,93,255,60,1,threeone,,,,,,,,,,,,,,,,,,,,,,,,,,,,,,,,,,,,,,,,,,,,,,,,,,,,,,,,,,,,,,,,,,,,,,,,,,,,,,,,,,,,,,,,,,,,,,,,,,,,,,,,,,,,,,,,,,,,,,,,,,,,,,,,,,,,,,,,,
,,697bcf84091fa31a4228774c,2026-03-17_12h03.10.648,kallum_motion_pilot_GIST_update_2,2026.1.1,Win32,60.24096386,697bcf84091fa31a4228774c,69b95efdef24cd8a694e89ee,69b96c21124aeb52c0000699,0.0288,0.0288,1,94,256,131,1,sixeight,,,,,,,,,,,,,,,,,,,,,,,,,,,,,,,,,,,,,,,,,,,,,,,,,,,,,,,,,,,,,,,,,,,,,,,,,,,,,,,,,,,,,,,,,,,,,,,,,,,,,,,,,,,,,,,,,,,,,,,,,,,,,,,,,,,,,,,,,
,,697bcf84091fa31a4228774c,2026-03-17_12h03.10.648,kallum_motion_pilot_GIST_update_2,2026.1.1,Win32,60.24096386,697bcf84091fa31a4228774c,69b95efdef24cd8a694e89ee,69b96c21124aeb52c0000699,0.0289,0.0289,1,95,257,2,1,twoone,,,,,,,,,,,,,,,,,,,,,,,,,,,,,,,,,,,,,,,,,,,,,,,,,,,,,,,,,,,,,,,,,,,,,,,,,,,,,,,,,,,,,,,,,,,,,,,,,,,,,,,,,,,,,,,,,,,,,,,,,,,,,,,,,,,,,,,,,
,,697bcf84091fa31a4228774c,2026-03-17_12h03.10.648,kallum_motion_pilot_GIST_update_2,2026.1.1,Win32,60.24096386,697bcf84091fa31a4228774c,69b95efdef24cd8a694e89ee,69b96c21124aeb52c0000699,0.0289,0.0289,1,96,258,124,1,sevenfive,,,,,,,,,,,,,,,,,,,,,,,,,,,,,,,,,,,,,,,,,,,,,,,,,,,,,,,,,,,,,,,,,,,,,,,,,,,,,,,,,,,,,,,,,,,,,,,,,,,,,,,,,,,,,,,,,,,,,,,,,,,,,,,,,,,,,,,,,
,,697bcf84091fa31a4228774c,2026-03-17_12h03.10.648,kallum_motion_pilot_GIST_update_2,2026.1.1,Win32,60.24096386,697bcf84091fa31a4228774c,69b95efdef24cd8a694e89ee,69b96c21124aeb52c0000699,0.029,0.029,1,97,259,15,1,fourthree,,,,,,,,,,,,,,,,,,,,,,,,,,,,,,,,,,,,,,,,,,,,,,,,,,,,,,,,,,,,,,,,,,,,,,,,,,,,,,,,,,,,,,,,,,,,,,,,,,,,,,,,,,,,,,,,,,,,,,,,,,,,,,,,,,,,,,,,,
,,697bcf84091fa31a4228774c,2026-03-17_12h03.10.648,kallum_motion_pilot_GIST_update_2,2026.1.1,Win32,60.24096386,697bcf84091fa31a4228774c,69b95efdef24cd8a694e89ee,69b96c21124aeb52c0000699,0.0291,0.0291,1,98,260,75,1,twofour,,,,,,,,,,,,,,,,,,,,,,,,,,,,,,,,,,,,,,,,,,,,,,,,,,,,,,,,,,,,,,,,,,,,,,,,,,,,,,,,,,,,,,,,,,,,,,,,,,,,,,,,,,,,,,,,,,,,,,,,,,,,,,,,,,,,,,,,,
,,697bcf84091fa31a4228774c,2026-03-17_12h03.10.648,kallum_motion_pilot_GIST_update_2,2026.1.1,Win32,60.24096386,697bcf84091fa31a4228774c,69b95efdef24cd8a694e89ee,69b96c21124aeb52c0000699,0.0291,0.0291,1,99,261,4,1,threeone,,,,,,,,,,,,,,,,,,,,,,,,,,,,,,,,,,,,,,,,,,,,,,,,,,,,,,,,,,,,,,,,,,,,,,,,,,,,,,,,,,,,,,,,,,,,,,,,,,,,,,,,,,,,,,,,,,,,,,,,,,,,,,,,,,,,,,,,,
,,697bcf84091fa31a4228774c,2026-03-17_12h03.10.648,kallum_motion_pilot_GIST_update_2,2026.1.1,Win32,60.24096386,697bcf84091fa31a4228774c,69b95efdef24cd8a694e89ee,69b96c21124aeb52c0000699,0.0292,0.0292,1,100,262,30,1,fourtwo,,,,,,,,,,,,,,,,,,,,,,,,,,,,,,,,,,,,,,,,,,,,,,,,,,,,,,,,,,,,,,,,,,,,,,,,,,,,,,,,,,,,,,,,,,,,,,,,,,,,,,,,,,,,,,,,,,,,,,,,,,,,,,,,,,,,,,,,,
,,697bcf84091fa31a4228774c,2026-03-17_12h03.10.648,kallum_motion_pilot_GIST_update_2,2026.1.1,Win32,60.24096386,697bcf84091fa31a4228774c,69b95efdef24cd8a694e89ee,69b96c21124aeb52c0000699,0.0293,0.0294,1,101,263,151,1,eightseven,,,,,,,,,,,,,,,,,,,,,,,,,,,,,,,,,,,,,,,,,,,,,,,,,,,,,,,,,,,,,,,,,,,,,,,,,,,,,,,,,,,,,,,,,,,,,,,,,,,,,,,,,,,,,,,,,,,,,,,,,,,,,,,,,,,,,,,,,
,,697bcf84091fa31a4228774c,2026-03-17_12h03.10.648,kallum_motion_pilot_GIST_update_2,2026.1.1,Win32,60.24096386,697bcf84091fa31a4228774c,69b95efdef24cd8a694e89ee,69b96c21124aeb52c0000699,0.0294,0.0294,1,102,264,148,1,sevenfive,,,,,,,,,,,,,,,,,,,,,,,,,,,,,,,,,,,,,,,,,,,,,,,,,,,,,,,,,,,,,,,,,,,,,,,,,,,,,,,,,,,,,,,,,,,,,,,,,,,,,,,,,,,,,,,,,,,,,,,,,,,,,,,,,,,,,,,,,
,,697bcf84091fa31a4228774c,2026-03-17_12h03.10.648,kallum_motion_pilot_GIST_update_2,2026.1.1,Win32,60.24096386,697bcf84091fa31a4228774c,69b95efdef24cd8a694e89ee,69b96c21124aeb52c0000699,0.0295,0.0295,1,103,265,143,1,eightseven,,,,,,,,,,,,,,,,,,,,,,,,,,,,,,,,,,,,,,,,,,,,,,,,,,,,,,,,,,,,,,,,,,,,,,,,,,,,,,,,,,,,,,,,,,,,,,,,,,,,,,,,,,,,,,,,,,,,,,,,,,,,,,,,,,,,,,,,,
,,697bcf84091fa31a4228774c,2026-03-17_12h03.10.648,kallum_motion_pilot_GIST_update_2,2026.1.1,Win32,60.24096386,697bcf84091fa31a4228774c,69b95efdef24cd8a694e89ee,69b96c21124aeb52c0000699,0.0296,0.0296,1,104,266,132,1,sevenfive,,,,,,,,,,,,,,,,,,,,,,,,,,,,,,,,,,,,,,,,,,,,,,,,,,,,,,,,,,,,,,,,,,,,,,,,,,,,,,,,,,,,,,,,,,,,,,,,,,,,,,,,,,,,,,,,,,,,,,,,,,,,,,,,,,,,,,,,,
