startup.started,startup.stopped,Prolific ID*,date,expName,psychopyVersion,OS,frameRate,participant,study_id,session,stimpositions.started,stimpositions.stopped,hardcoded_stimulus_positions.thisRepN,hardcoded_stimulus_positions.thisTrialN,hardcoded_stimulus_positions.thisN,hardcoded_stimulus_positions.thisIndex,hardcoded_stimulus_positions.ran,StimulusPos,stimorientation.started,stimorientation.stopped,prac_stimorientation_import_loop.thisRepN,prac_stimorientation_import_loop.thisTrialN,prac_stimorientation_import_loop.thisN,prac_stimorientation_import_loop.thisIndex,prac_stimorientation_import_loop.ran,Stimorientation,welcome_instr.started,welcome_instr.stopped,key_resp.keys,key_resp.rt,key_resp.duration,response_steppedout_1.started,response_steppedout_1.stopped,key_resp_20.keys,key_resp_20.rt,key_resp_20.duration,response_steppedout_2.started,response_steppedout_2.stopped,key_resp_19.keys,key_resp_19.rt,key_resp_19.duration,stim_response_instr.started,stim_response_instr.stopped,key_resp_15.keys,key_resp_15.rt,key_resp_15.duration,direction_instr_2.started,direction_instr_2.stopped,key_resp_9.keys,key_resp_9.rt,key_resp_9.duration,instr_prac.started,instr_prac.stopped,key_resp_10.keys,key_resp_10.rt,key_resp_10.duration,Stim1_display_prac.started,Stim1_display_prac.stopped,Ecc,Circle1_ori,Circle2_ori,response_prac.started,similarity,response_time,response_prac.stopped,mouse_5.x,mouse_5.y,mouse_5.leftButton,mouse_5.midButton,mouse_5.rightButton,mouse_5.clicked_name,responseprac_feedback.started,responseprac_feedback.stopped,summary2_prac.started,summary2_prac.stopped,mouse_6.x,mouse_6.y,mouse_6.leftButton,mouse_6.midButton,mouse_6.rightButton,mouse_6.clicked_name,duringprac.thisRepN,duringprac.thisTrialN,duringprac.thisN,duringprac.thisIndex,duringprac.ran,begin.started,begin.stopped,key_resp_22.keys,key_resp_22.rt,key_resp_22.duration,Stim1_display.started,Stim1_display.stopped,circle1_ori,circle2_ori,circle1_SF,circle2_SF,response.started,response.stopped,mouse.x,mouse.y,mouse.leftButton,mouse.midButton,mouse.rightButton,mouse.clicked_name,trialnumber,double_pass.thisRepN,double_pass.thisTrialN,double_pass.thisN,double_pass.thisIndex,double_pass.ran,double_pass.order,main_trial.thisRepN,main_trial.thisTrialN,main_trial.thisN,main_trial.thisIndex,main_trial.ran,main_trial.order,Trial_Counter,Catch,Frequencies,response_2.started,response_2.stopped,mouse_2.x,mouse_2.y,mouse_2.leftButton,mouse_2.midButton,mouse_2.rightButton,mouse_2.clicked_name,special_trial.started,special_trial.stopped,catch_1.started,catch_1.stopped,mouse_3.x,mouse_3.y,mouse_3.leftButton,mouse_3.midButton,mouse_3.rightButton,catchresponse,catchnumber,response_time_catch,response_sum.started,response_sum.stopped,mouse_11.x,mouse_11.y,mouse_11.leftButton,mouse_11.midButton,mouse_11.rightButton,flip_presentation_sequence_for_double_pass.started,flip_presentation_sequence_for_double_pass.stopped,goodbye.started,goodbye.stopped,key_resp_3.keys,key_resp_3.rt,key_resp_3.duration
0.0004,0.0005,697dce14b3e39fbdcbb7d889,2026-03-17_16h00.05.944,kallum_motion_pilot_GIST_update_2,2026.1.1,Win32,60.24096386,697dce14b3e39fbdcbb7d889,69b92ab4aef6dee357cd729a,69b92cf896dd62050d8eb1af,,,,,,,,,,,,,,,,,,,,,,,,,,,,,,,,,,,,,,,,,,,,,,,,,,,,,,,,,,,,,,,,,,,,,,,,,,,,,,,,,,,,,,,,,,,,,,,,,,,,,,,,,,,,,,,,,,,,,,,,,,,,,,,,,,,,,,,,,,,,,,,,,
,,697dce14b3e39fbdcbb7d889,2026-03-17_16h00.05.944,kallum_motion_pilot_GIST_update_2,2026.1.1,Win32,60.24096386,697dce14b3e39fbdcbb7d889,69b92ab4aef6dee357cd729a,69b92cf896dd62050d8eb1af,0.0276,0.0277,0,0,0,142,1,eightsix,,,,,,,,,,,,,,,,,,,,,,,,,,,,,,,,,,,,,,,,,,,,,,,,,,,,,,,,,,,,,,,,,,,,,,,,,,,,,,,,,,,,,,,,,,,,,,,,,,,,,,,,,,,,,,,,,,,,,,,,,,,,,,,,,,,,,,,,,
,,697dce14b3e39fbdcbb7d889,2026-03-17_16h00.05.944,kallum_motion_pilot_GIST_update_2,2026.1.1,Win32,60.24096386,697dce14b3e39fbdcbb7d889,69b92ab4aef6dee357cd729a,69b92cf896dd62050d8eb1af,0.028,0.028,0,1,1,24,1,onetwo,,,,,,,,,,,,,,,,,,,,,,,,,,,,,,,,,,,,,,,,,,,,,,,,,,,,,,,,,,,,,,,,,,,,,,,,,,,,,,,,,,,,,,,,,,,,,,,,,,,,,,,,,,,,,,,,,,,,,,,,,,,,,,,,,,,,,,,,,
,,697dce14b3e39fbdcbb7d889,2026-03-17_16h00.05.944,kallum_motion_pilot_GIST_update_2,2026.1.1,Win32,60.24096386,697dce14b3e39fbdcbb7d889,69b92ab4aef6dee357cd729a,69b92cf896dd62050d8eb1af,0.0283,0.0283,0,2,2,86,1,eightsix,,,,,,,,,,,,,,,,,,,,,,,,,,,,,,,,,,,,,,,,,,,,,,,,,,,,,,,,,,,,,,,,,,,,,,,,,,,,,,,,,,,,,,,,,,,,,,,,,,,,,,,,,,,,,,,,,,,,,,,,,,,,,,,,,,,,,,,,,
,,697dce14b3e39fbdcbb7d889,2026-03-17_16h00.05.944,kallum_motion_pilot_GIST_update_2,2026.1.1,Win32,60.24096386,697dce14b3e39fbdcbb7d889,69b92ab4aef6dee357cd729a,69b92cf896dd62050d8eb1af,0.0284,0.0284,0,3,3,79,1,eightseven,,,,,,,,,,,,,,,,,,,,,,,,,,,,,,,,,,,,,,,,,,,,,,,,,,,,,,,,,,,,,,,,,,,,,,,,,,,,,,,,,,,,,,,,,,,,,,,,,,,,,,,,,,,,,,,,,,,,,,,,,,,,,,,,,,,,,,,,,
,,697dce14b3e39fbdcbb7d889,2026-03-17_16h00.05.944,kallum_motion_pilot_GIST_update_2,2026.1.1,Win32,60.24096386,697dce14b3e39fbdcbb7d889,69b92ab4aef6dee357cd729a,69b92cf896dd62050d8eb1af,0.0287,0.0287,0,4,4,2,1,twoone,,,,,,,,,,,,,,,,,,,,,,,,,,,,,,,,,,,,,,,,,,,,,,,,,,,,,,,,,,,,,,,,,,,,,,,,,,,,,,,,,,,,,,,,,,,,,,,,,,,,,,,,,,,,,,,,,,,,,,,,,,,,,,,,,,,,,,,,,
,,697dce14b3e39fbdcbb7d889,2026-03-17_16h00.05.944,kallum_motion_pilot_GIST_update_2,2026.1.1,Win32,60.24096386,697dce14b3e39fbdcbb7d889,69b92ab4aef6dee357cd729a,69b92cf896dd62050d8eb1af,0.0288,0.0288,0,5,5,27,1,twofour,,,,,,,,,,,,,,,,,,,,,,,,,,,,,,,,,,,,,,,,,,,,,,,,,,,,,,,,,,,,,,,,,,,,,,,,,,,,,,,,,,,,,,,,,,,,,,,,,,,,,,,,,,,,,,,,,,,,,,,,,,,,,,,,,,,,,,,,,
,,697dce14b3e39fbdcbb7d889,2026-03-17_16h00.05.944,kallum_motion_pilot_GIST_update_2,2026.1.1,Win32,60.24096386,697dce14b3e39fbdcbb7d889,69b92ab4aef6dee357cd729a,69b92cf896dd62050d8eb1af,0.029,0.029,0,6,6,96,1,fivesix,,,,,,,,,,,,,,,,,,,,,,,,,,,,,,,,,,,,,,,,,,,,,,,,,,,,,,,,,,,,,,,,,,,,,,,,,,,,,,,,,,,,,,,,,,,,,,,,,,,,,,,,,,,,,,,,,,,,,,,,,,,,,,,,,,,,,,,,,
,,697dce14b3e39fbdcbb7d889,2026-03-17_16h00.05.944,kallum_motion_pilot_GIST_update_2,2026.1.1,Win32,60.24096386,697dce14b3e39fbdcbb7d889,69b92ab4aef6dee357cd729a,69b92cf896dd62050d8eb1af,0.0291,0.0291,0,7,7,161,1,fiveseven,,,,,,,,,,,,,,,,,,,,,,,,,,,,,,,,,,,,,,,,,,,,,,,,,,,,,,,,,,,,,,,,,,,,,,,,,,,,,,,,,,,,,,,,,,,,,,,,,,,,,,,,,,,,,,,,,,,,,,,,,,,,,,,,,,,,,,,,,
,,697dce14b3e39fbdcbb7d889,2026-03-17_16h00.05.944,kallum_motion_pilot_GIST_update_2,2026.1.1,Win32,60.24096386,697dce14b3e39fbdcbb7d889,69b92ab4aef6dee357cd729a,69b92cf896dd62050d8eb1af,0.0293,0.0294,0,8,8,63,1,fourthree,,,,,,,,,,,,,,,,,,,,,,,,,,,,,,,,,,,,,,,,,,,,,,,,,,,,,,,,,,,,,,,,,,,,,,,,,,,,,,,,,,,,,,,,,,,,,,,,,,,,,,,,,,,,,,,,,,,,,,,,,,,,,,,,,,,,,,,,,
,,697dce14b3e39fbdcbb7d889,2026-03-17_16h00.05.944,kallum_motion_pilot_GIST_update_2,2026.1.1,Win32,60.24096386,697dce14b3e39fbdcbb7d889,69b92ab4aef6dee357cd729a,69b92cf896dd62050d8eb1af,0.0295,0.0295,0,9,9,130,1,sixfive,,,,,,,,,,,,,,,,,,,,,,,,,,,,,,,,,,,,,,,,,,,,,,,,,,,,,,,,,,,,,,,,,,,,,,,,,,,,,,,,,,,,,,,,,,,,,,,,,,,,,,,,,,,,,,,,,,,,,,,,,,,,,,,,,,,,,,,,,
,,697dce14b3e39fbdcbb7d889,2026-03-17_16h00.05.944,kallum_motion_pilot_GIST_update_2,2026.1.1,Win32,60.24096386,697dce14b3e39fbdcbb7d889,69b92ab4aef6dee357cd729a,69b92cf896dd62050d8eb1af,0.0297,0.0297,0,10,10,81,1,fiveseven,,,,,,,,,,,,,,,,,,,,,,,,,,,,,,,,,,,,,,,,,,,,,,,,,,,,,,,,,,,,,,,,,,,,,,,,,,,,,,,,,,,,,,,,,,,,,,,,,,,,,,,,,,,,,,,,,,,,,,,,,,,,,,,,,,,,,,,,,
,,697dce14b3e39fbdcbb7d889,2026-03-17_16h00.05.944,kallum_motion_pilot_GIST_update_2,2026.1.1,Win32,60.24096386,697dce14b3e39fbdcbb7d889,69b92ab4aef6dee357cd729a,69b92cf896dd62050d8eb1af,0.0298,0.0299,0,11,11,151,1,eightseven,,,,,,,,,,,,,,,,,,,,,,,,,,,,,,,,,,,,,,,,,,,,,,,,,,,,,,,,,,,,,,,,,,,,,,,,,,,,,,,,,,,,,,,,,,,,,,,,,,,,,,,,,,,,,,,,,,,,,,,,,,,,,,,,,,,,,,,,,
,,697dce14b3e39fbdcbb7d889,2026-03-17_16h00.05.944,kallum_motion_pilot_GIST_update_2,2026.1.1,Win32,60.24096386,697dce14b3e39fbdcbb7d889,69b92ab4aef6dee357cd729a,69b92cf896dd62050d8eb1af,0.0299,0.0299,0,12,12,48,1,onetwo,,,,,,,,,,,,,,,,,,,,,,,,,,,,,,,,,,,,,,,,,,,,,,,,,,,,,,,,,,,,,,,,,,,,,,,,,,,,,,,,,,,,,,,,,,,,,,,,,,,,,,,,,,,,,,,,,,,,,,,,,,,,,,,,,,,,,,,,,
,,697dce14b3e39fbdcbb7d889,2026-03-17_16h00.05.944,kallum_motion_pilot_GIST_update_2,2026.1.1,Win32,60.24096386,697dce14b3e39fbdcbb7d889,69b92ab4aef6dee357cd729a,69b92cf896dd62050d8eb1af,0.0301,0.0301,0,13,13,22,1,fourtwo,,,,,,,,,,,,,,,,,,,,,,,,,,,,,,,,,,,,,,,,,,,,,,,,,,,,,,,,,,,,,,,,,,,,,,,,,,,,,,,,,,,,,,,,,,,,,,,,,,,,,,,,,,,,,,,,,,,,,,,,,,,,,,,,,,,,,,,,,
,,697dce14b3e39fbdcbb7d889,2026-03-17_16h00.05.944,kallum_motion_pilot_GIST_update_2,2026.1.1,Win32,60.24096386,697dce14b3e39fbdcbb7d889,69b92ab4aef6dee357cd729a,69b92cf896dd62050d8eb1af,0.0302,0.0303,0,14,14,110,1,eightsix,,,,,,,,,,,,,,,,,,,,,,,,,,,,,,,,,,,,,,,,,,,,,,,,,,,,,,,,,,,,,,,,,,,,,,,,,,,,,,,,,,,,,,,,,,,,,,,,,,,,,,,,,,,,,,,,,,,,,,,,,,,,,,,,,,,,,,,,,
,,697dce14b3e39fbdcbb7d889,2026-03-17_16h00.05.944,kallum_motion_pilot_GIST_update_2,2026.1.1,Win32,60.24096386,697dce14b3e39fbdcbb7d889,69b92ab4aef6dee357cd729a,69b92cf896dd62050d8eb1af,0.0304,0.0304,0,15,15,109,1,seveneight,,,,,,,,,,,,,,,,,,,,,,,,,,,,,,,,,,,,,,,,,,,,,,,,,,,,,,,,,,,,,,,,,,,,,,,,,,,,,,,,,,,,,,,,,,,,,,,,,,,,,,,,,,,,,,,,,,,,,,,,,,,,,,,,,,,,,,,,,
,,697dce14b3e39fbdcbb7d889,2026-03-17_16h00.05.944,kallum_motion_pilot_GIST_update_2,2026.1.1,Win32,60.24096386,697dce14b3e39fbdcbb7d889,69b92ab4aef6dee357cd729a,69b92cf896dd62050d8eb1af,0.0305,0.0305,0,16,16,12,1,threeone,,,,,,,,,,,,,,,,,,,,,,,,,,,,,,,,,,,,,,,,,,,,,,,,,,,,,,,,,,,,,,,,,,,,,,,,,,,,,,,,,,,,,,,,,,,,,,,,,,,,,,,,,,,,,,,,,,,,,,,,,,,,,,,,,,,,,,,,,
,,697dce14b3e39fbdcbb7d889,2026-03-17_16h00.05.944,kallum_motion_pilot_GIST_update_2,2026.1.1,Win32,60.24096386,697dce14b3e39fbdcbb7d889,69b92ab4aef6dee357cd729a,69b92cf896dd62050d8eb1af,0.0307,0.0307,0,17,17,116,1,sevenfive,,,,,,,,,,,,,,,,,,,,,,,,,,,,,,,,,,,,,,,,,,,,,,,,,,,,,,,,,,,,,,,,,,,,,,,,,,,,,,,,,,,,,,,,,,,,,,,,,,,,,,,,,,,,,,,,,,,,,,,,,,,,,,,,,,,,,,,,,
,,697dce14b3e39fbdcbb7d889,2026-03-17_16h00.05.944,kallum_motion_pilot_GIST_update_2,2026.1.1,Win32,60.24096386,697dce14b3e39fbdcbb7d889,69b92ab4aef6dee357cd729a,69b92cf896dd62050d8eb1af,0.0308,0.0308,0,18,18,120,1,fivesix,,,,,,,,,,,,,,,,,,,,,,,,,,,,,,,,,,,,,,,,,,,,,,,,,,,,,,,,,,,,,,,,,,,,,,,,,,,,,,,,,,,,,,,,,,,,,,,,,,,,,,,,,,,,,,,,,,,,,,,,,,,,,,,,,,,,,,,,,
,,697dce14b3e39fbdcbb7d889,2026-03-17_16h00.05.944,kallum_motion_pilot_GIST_update_2,2026.1.1,Win32,60.24096386,697dce14b3e39fbdcbb7d889,69b92ab4aef6dee357cd729a,69b92cf896dd62050d8eb1af,0.0308,0.0308,0,19,19,158,1,eightsix,,,,,,,,,,,,,,,,,,,,,,,,,,,,,,,,,,,,,,,,,,,,,,,,,,,,,,,,,,,,,,,,,,,,,,,,,,,,,,,,,,,,,,,,,,,,,,,,,,,,,,,,,,,,,,,,,,,,,,,,,,,,,,,,,,,,,,,,,
,,697dce14b3e39fbdcbb7d889,2026-03-17_16h00.05.944,kallum_motion_pilot_GIST_update_2,2026.1.1,Win32,60.24096386,697dce14b3e39fbdcbb7d889,69b92ab4aef6dee357cd729a,69b92cf896dd62050d8eb1af,0.031,0.031,0,20,20,4,1,threeone,,,,,,,,,,,,,,,,,,,,,,,,,,,,,,,,,,,,,,,,,,,,,,,,,,,,,,,,,,,,,,,,,,,,,,,,,,,,,,,,,,,,,,,,,,,,,,,,,,,,,,,,,,,,,,,,,,,,,,,,,,,,,,,,,,,,,,,,,
,,697dce14b3e39fbdcbb7d889,2026-03-17_16h00.05.944,kallum_motion_pilot_GIST_update_2,2026.1.1,Win32,60.24096386,697dce14b3e39fbdcbb7d889,69b92ab4aef6dee357cd729a,69b92cf896dd62050d8eb1af,0.0311,0.0311,0,21,21,160,1,fivesix,,,,,,,,,,,,,,,,,,,,,,,,,,,,,,,,,,,,,,,,,,,,,,,,,,,,,,,,,,,,,,,,,,,,,,,,,,,,,,,,,,,,,,,,,,,,,,,,,,,,,,,,,,,,,,,,,,,,,,,,,,,,,,,,,,,,,,,,,
,,697dce14b3e39fbdcbb7d889,2026-03-17_16h00.05.944,kallum_motion_pilot_GIST_update_2,2026.1.1,Win32,60.24096386,697dce14b3e39fbdcbb7d889,69b92ab4aef6dee357cd729a,69b92cf896dd62050d8eb1af,0.0313,0.0313,0,22,22,53,1,threefour,,,,,,,,,,,,,,,,,,,,,,,,,,,,,,,,,,,,,,,,,,,,,,,,,,,,,,,,,,,,,,,,,,,,,,,,,,,,,,,,,,,,,,,,,,,,,,,,,,,,,,,,,,,,,,,,,,,,,,,,,,,,,,,,,,,,,,,,,
,,697dce14b3e39fbdcbb7d889,2026-03-17_16h00.05.944,kallum_motion_pilot_GIST_update_2,2026.1.1,Win32,60.24096386,697dce14b3e39fbdcbb7d889,69b92ab4aef6dee357cd729a,69b92cf896dd62050d8eb1af,0.0313,0.0314,0,23,23,89,1,fiveseven,,,,,,,,,,,,,,,,,,,,,,,,,,,,,,,,,,,,,,,,,,,,,,,,,,,,,,,,,,,,,,,,,,,,,,,,,,,,,,,,,,,,,,,,,,,,,,,,,,,,,,,,,,,,,,,,,,,,,,,,,,,,,,,,,,,,,,,,,
,,697dce14b3e39fbdcbb7d889,2026-03-17_16h00.05.944,kallum_motion_pilot_GIST_update_2,2026.1.1,Win32,60.24096386,697dce14b3e39fbdcbb7d889,69b92ab4aef6dee357cd729a,69b92cf896dd62050d8eb1af,0.0315,0.0315,0,24,24,55,1,fourthree,,,,,,,,,,,,,,,,,,,,,,,,,,,,,,,,,,,,,,,,,,,,,,,,,,,,,,,,,,,,,,,,,,,,,,,,,,,,,,,,,,,,,,,,,,,,,,,,,,,,,,,,,,,,,,,,,,,,,,,,,,,,,,,,,,,,,,,,,
,,697dce14b3e39fbdcbb7d889,2026-03-17_16h00.05.944,kallum_motion_pilot_GIST_update_2,2026.1.1,Win32,60.24096386,697dce14b3e39fbdcbb7d889,69b92ab4aef6dee357cd729a,69b92cf896dd62050d8eb1af,0.0317,0.0317,0,25,25,113,1,fiveseven,,,,,,,,,,,,,,,,,,,,,,,,,,,,,,,,,,,,,,,,,,,,,,,,,,,,,,,,,,,,,,,,,,,,,,,,,,,,,,,,,,,,,,,,,,,,,,,,,,,,,,,,,,,,,,,,,,,,,,,,,,,,,,,,,,,,,,,,,
,,697dce14b3e39fbdcbb7d889,2026-03-17_16h00.05.944,kallum_motion_pilot_GIST_update_2,2026.1.1,Win32,60.24096386,697dce14b3e39fbdcbb7d889,69b92ab4aef6dee357cd729a,69b92cf896dd62050d8eb1af,0.0317,0.0317,0,26,26,77,1,threefour,,,,,,,,,,,,,,,,,,,,,,,,,,,,,,,,,,,,,,,,,,,,,,,,,,,,,,,,,,,,,,,,,,,,,,,,,,,,,,,,,,,,,,,,,,,,,,,,,,,,,,,,,,,,,,,,,,,,,,,,,,,,,,,,,,,,,,,,,
,,697dce14b3e39fbdcbb7d889,2026-03-17_16h00.05.944,kallum_motion_pilot_GIST_update_2,2026.1.1,Win32,60.24096386,697dce14b3e39fbdcbb7d889,69b92ab4aef6dee357cd729a,69b92cf896dd62050d8eb1af,0.0319,0.0319,0,27,27,34,1,twoone,,,,,,,,,,,,,,,,,,,,,,,,,,,,,,,,,,,,,,,,,,,,,,,,,,,,,,,,,,,,,,,,,,,,,,,,,,,,,,,,,,,,,,,,,,,,,,,,,,,,,,,,,,,,,,,,,,,,,,,,,,,,,,,,,,,,,,,,,
,,697dce14b3e39fbdcbb7d889,2026-03-17_16h00.05.944,kallum_motion_pilot_GIST_update_2,2026.1.1,Win32,60.24096386,697dce14b3e39fbdcbb7d889,69b92ab4aef6dee357cd729a,69b92cf896dd62050d8eb1af,0.032,0.032,0,28,28,124,1,sevenfive,,,,,,,,,,,,,,,,,,,,,,,,,,,,,,,,,,,,,,,,,,,,,,,,,,,,,,,,,,,,,,,,,,,,,,,,,,,,,,,,,,,,,,,,,,,,,,,,,,,,,,,,,,,,,,,,,,,,,,,,,,,,,,,,,,,,,,,,,
,,697dce14b3e39fbdcbb7d889,2026-03-17_16h00.05.944,kallum_motion_pilot_GIST_update_2,2026.1.1,Win32,60.24096386,697dce14b3e39fbdcbb7d889,69b92ab4aef6dee357cd729a,69b92cf896dd62050d8eb1af,0.0321,0.0322,0,29,29,111,1,eightseven,,,,,,,,,,,,,,,,,,,,,,,,,,,,,,,,,,,,,,,,,,,,,,,,,,,,,,,,,,,,,,,,,,,,,,,,,,,,,,,,,,,,,,,,,,,,,,,,,,,,,,,,,,,,,,,,,,,,,,,,,,,,,,,,,,,,,,,,,
,,697dce14b3e39fbdcbb7d889,2026-03-17_16h00.05.944,kallum_motion_pilot_GIST_update_2,2026.1.1,Win32,60.24096386,697dce14b3e39fbdcbb7d889,69b92ab4aef6dee357cd729a,69b92cf896dd62050d8eb1af,0.0322,0.0322,0,30,30,19,1,twofour,,,,,,,,,,,,,,,,,,,,,,,,,,,,,,,,,,,,,,,,,,,,,,,,,,,,,,,,,,,,,,,,,,,,,,,,,,,,,,,,,,,,,,,,,,,,,,,,,,,,,,,,,,,,,,,,,,,,,,,,,,,,,,,,,,,,,,,,,
,,697dce14b3e39fbdcbb7d889,2026-03-17_16h00.05.944,kallum_motion_pilot_GIST_update_2,2026.1.1,Win32,60.24096386,697dce14b3e39fbdcbb7d889,69b92ab4aef6dee357cd729a,69b92cf896dd62050d8eb1af,0.0324,0.0324,0,31,31,18,1,twoone,,,,,,,,,,,,,,,,,,,,,,,,,,,,,,,,,,,,,,,,,,,,,,,,,,,,,,,,,,,,,,,,,,,,,,,,,,,,,,,,,,,,,,,,,,,,,,,,,,,,,,,,,,,,,,,,,,,,,,,,,,,,,,,,,,,,,,,,,
,,697dce14b3e39fbdcbb7d889,2026-03-17_16h00.05.944,kallum_motion_pilot_GIST_update_2,2026.1.1,Win32,60.24096386,697dce14b3e39fbdcbb7d889,69b92ab4aef6dee357cd729a,69b92cf896dd62050d8eb1af,0.0324,0.0324,0,32,32,1,1,onethree,,,,,,,,,,,,,,,,,,,,,,,,,,,,,,,,,,,,,,,,,,,,,,,,,,,,,,,,,,,,,,,,,,,,,,,,,,,,,,,,,,,,,,,,,,,,,,,,,,,,,,,,,,,,,,,,,,,,,,,,,,,,,,,,,,,,,,,,,
,,697dce14b3e39fbdcbb7d889,2026-03-17_16h00.05.944,kallum_motion_pilot_GIST_update_2,2026.1.1,Win32,60.24096386,697dce14b3e39fbdcbb7d889,69b92ab4aef6dee357cd729a,69b92cf896dd62050d8eb1af,0.0326,0.0326,0,33,33,8,1,onetwo,,,,,,,,,,,,,,,,,,,,,,,,,,,,,,,,,,,,,,,,,,,,,,,,,,,,,,,,,,,,,,,,,,,,,,,,,,,,,,,,,,,,,,,,,,,,,,,,,,,,,,,,,,,,,,,,,,,,,,,,,,,,,,,,,,,,,,,,,
,,697dce14b3e39fbdcbb7d889,2026-03-17_16h00.05.944,kallum_motion_pilot_GIST_update_2,2026.1.1,Win32,60.24096386,697dce14b3e39fbdcbb7d889,69b92ab4aef6dee357cd729a,69b92cf896dd62050d8eb1af,0.0327,0.0327,0,34,34,135,1,eightseven,,,,,,,,,,,,,,,,,,,,,,,,,,,,,,,,,,,,,,,,,,,,,,,,,,,,,,,,,,,,,,,,,,,,,,,,,,,,,,,,,,,,,,,,,,,,,,,,,,,,,,,,,,,,,,,,,,,,,,,,,,,,,,,,,,,,,,,,,
,,697dce14b3e39fbdcbb7d889,2026-03-17_16h00.05.944,kallum_motion_pilot_GIST_update_2,2026.1.1,Win32,60.24096386,697dce14b3e39fbdcbb7d889,69b92ab4aef6dee357cd729a,69b92cf896dd62050d8eb1af,0.0328,0.0328,0,35,35,152,1,fivesix,,,,,,,,,,,,,,,,,,,,,,,,,,,,,,,,,,,,,,,,,,,,,,,,,,,,,,,,,,,,,,,,,,,,,,,,,,,,,,,,,,,,,,,,,,,,,,,,,,,,,,,,,,,,,,,,,,,,,,,,,,,,,,,,,,,,,,,,,
,,697dce14b3e39fbdcbb7d889,2026-03-17_16h00.05.944,kallum_motion_pilot_GIST_update_2,2026.1.1,Win32,60.24096386,697dce14b3e39fbdcbb7d889,69b92ab4aef6dee357cd729a,69b92cf896dd62050d8eb1af,0.0329,0.0329,0,36,36,33,1,onethree,,,,,,,,,,,,,,,,,,,,,,,,,,,,,,,,,,,,,,,,,,,,,,,,,,,,,,,,,,,,,,,,,,,,,,,,,,,,,,,,,,,,,,,,,,,,,,,,,,,,,,,,,,,,,,,,,,,,,,,,,,,,,,,,,,,,,,,,,
,,697dce14b3e39fbdcbb7d889,2026-03-17_16h00.05.944,kallum_motion_pilot_GIST_update_2,2026.1.1,Win32,60.24096386,697dce14b3e39fbdcbb7d889,69b92ab4aef6dee357cd729a,69b92cf896dd62050d8eb1af,0.0331,0.0331,0,37,37,39,1,fourthree,,,,,,,,,,,,,,,,,,,,,,,,,,,,,,,,,,,,,,,,,,,,,,,,,,,,,,,,,,,,,,,,,,,,,,,,,,,,,,,,,,,,,,,,,,,,,,,,,,,,,,,,,,,,,,,,,,,,,,,,,,,,,,,,,,,,,,,,,
,,697dce14b3e39fbdcbb7d889,2026-03-17_16h00.05.944,kallum_motion_pilot_GIST_update_2,2026.1.1,Win32,60.24096386,697dce14b3e39fbdcbb7d889,69b92ab4aef6dee357cd729a,69b92cf896dd62050d8eb1af,0.0332,0.0332,0,38,38,125,1,seveneight,,,,,,,,,,,,,,,,,,,,,,,,,,,,,,,,,,,,,,,,,,,,,,,,,,,,,,,,,,,,,,,,,,,,,,,,,,,,,,,,,,,,,,,,,,,,,,,,,,,,,,,,,,,,,,,,,,,,,,,,,,,,,,,,,,,,,,,,,
,,697dce14b3e39fbdcbb7d889,2026-03-17_16h00.05.944,kallum_motion_pilot_GIST_update_2,2026.1.1,Win32,60.24096386,697dce14b3e39fbdcbb7d889,69b92ab4aef6dee357cd729a,69b92cf896dd62050d8eb1af,0.0333,0.0333,0,39,39,112,1,fivesix,,,,,,,,,,,,,,,,,,,,,,,,,,,,,,,,,,,,,,,,,,,,,,,,,,,,,,,,,,,,,,,,,,,,,,,,,,,,,,,,,,,,,,,,,,,,,,,,,,,,,,,,,,,,,,,,,,,,,,,,,,,,,,,,,,,,,,,,,
,,697dce14b3e39fbdcbb7d889,2026-03-17_16h00.05.944,kallum_motion_pilot_GIST_update_2,2026.1.1,Win32,60.24096386,697dce14b3e39fbdcbb7d889,69b92ab4aef6dee357cd729a,69b92cf896dd62050d8eb1af,0.0334,0.0334,0,40,40,72,1,onetwo,,,,,,,,,,,,,,,,,,,,,,,,,,,,,,,,,,,,,,,,,,,,,,,,,,,,,,,,,,,,,,,,,,,,,,,,,,,,,,,,,,,,,,,,,,,,,,,,,,,,,,,,,,,,,,,,,,,,,,,,,,,,,,,,,,,,,,,,,
,,697dce14b3e39fbdcbb7d889,2026-03-17_16h00.05.944,kallum_motion_pilot_GIST_update_2,2026.1.1,Win32,60.24096386,697dce14b3e39fbdcbb7d889,69b92ab4aef6dee357cd729a,69b92cf896dd62050d8eb1af,0.0335,0.0335,0,41,41,93,1,seveneight,,,,,,,,,,,,,,,,,,,,,,,,,,,,,,,,,,,,,,,,,,,,,,,,,,,,,,,,,,,,,,,,,,,,,,,,,,,,,,,,,,,,,,,,,,,,,,,,,,,,,,,,,,,,,,,,,,,,,,,,,,,,,,,,,,,,,,,,,
,,697dce14b3e39fbdcbb7d889,2026-03-17_16h00.05.944,kallum_motion_pilot_GIST_update_2,2026.1.1,Win32,60.24096386,697dce14b3e39fbdcbb7d889,69b92ab4aef6dee357cd729a,69b92cf896dd62050d8eb1af,0.0336,0.0337,0,42,42,78,1,fourtwo,,,,,,,,,,,,,,,,,,,,,,,,,,,,,,,,,,,,,,,,,,,,,,,,,,,,,,,,,,,,,,,,,,,,,,,,,,,,,,,,,,,,,,,,,,,,,,,,,,,,,,,,,,,,,,,,,,,,,,,,,,,,,,,,,,,,,,,,,
,,697dce14b3e39fbdcbb7d889,2026-03-17_16h00.05.944,kallum_motion_pilot_GIST_update_2,2026.1.1,Win32,60.24096386,697dce14b3e39fbdcbb7d889,69b92ab4aef6dee357cd729a,69b92cf896dd62050d8eb1af,0.0337,0.0338,0,43,43,134,1,eightsix,,,,,,,,,,,,,,,,,,,,,,,,,,,,,,,,,,,,,,,,,,,,,,,,,,,,,,,,,,,,,,,,,,,,,,,,,,,,,,,,,,,,,,,,,,,,,,,,,,,,,,,,,,,,,,,,,,,,,,,,,,,,,,,,,,,,,,,,,
,,697dce14b3e39fbdcbb7d889,2026-03-17_16h00.05.944,kallum_motion_pilot_GIST_update_2,2026.1.1,Win32,60.24096386,697dce14b3e39fbdcbb7d889,69b92ab4aef6dee357cd729a,69b92cf896dd62050d8eb1af,0.0339,0.0339,0,44,44,37,1,threefour,,,,,,,,,,,,,,,,,,,,,,,,,,,,,,,,,,,,,,,,,,,,,,,,,,,,,,,,,,,,,,,,,,,,,,,,,,,,,,,,,,,,,,,,,,,,,,,,,,,,,,,,,,,,,,,,,,,,,,,,,,,,,,,,,,,,,,,,,
,,697dce14b3e39fbdcbb7d889,2026-03-17_16h00.05.944,kallum_motion_pilot_GIST_update_2,2026.1.1,Win32,60.24096386,697dce14b3e39fbdcbb7d889,69b92ab4aef6dee357cd729a,69b92cf896dd62050d8eb1af,0.0341,0.0341,0,45,45,10,1,twoone,,,,,,,,,,,,,,,,,,,,,,,,,,,,,,,,,,,,,,,,,,,,,,,,,,,,,,,,,,,,,,,,,,,,,,,,,,,,,,,,,,,,,,,,,,,,,,,,,,,,,,,,,,,,,,,,,,,,,,,,,,,,,,,,,,,,,,,,,
,,697dce14b3e39fbdcbb7d889,2026-03-17_16h00.05.944,kallum_motion_pilot_GIST_update_2,2026.1.1,Win32,60.24096386,697dce14b3e39fbdcbb7d889,69b92ab4aef6dee357cd729a,69b92cf896dd62050d8eb1af,0.0341,0.0341,0,46,46,119,1,eightseven,,,,,,,,,,,,,,,,,,,,,,,,,,,,,,,,,,,,,,,,,,,,,,,,,,,,,,,,,,,,,,,,,,,,,,,,,,,,,,,,,,,,,,,,,,,,,,,,,,,,,,,,,,,,,,,,,,,,,,,,,,,,,,,,,,,,,,,,,
,,697dce14b3e39fbdcbb7d889,2026-03-17_16h00.05.944,kallum_motion_pilot_GIST_update_2,2026.1.1,Win32,60.24096386,697dce14b3e39fbdcbb7d889,69b92ab4aef6dee357cd729a,69b92cf896dd62050d8eb1af,0.0344,0.0344,0,47,47,13,1,threefour,,,,,,,,,,,,,,,,,,,,,,,,,,,,,,,,,,,,,,,,,,,,,,,,,,,,,,,,,,,,,,,,,,,,,,,,,,,,,,,,,,,,,,,,,,,,,,,,,,,,,,,,,,,,,,,,,,,,,,,,,,,,,,,,,,,,,,,,,
,,697dce14b3e39fbdcbb7d889,2026-03-17_16h00.05.944,kallum_motion_pilot_GIST_update_2,2026.1.1,Win32,60.24096386,697dce14b3e39fbdcbb7d889,69b92ab4aef6dee357cd729a,69b92cf896dd62050d8eb1af,0.0345,0.0345,0,48,48,40,1,onetwo,,,,,,,,,,,,,,,,,,,,,,,,,,,,,,,,,,,,,,,,,,,,,,,,,,,,,,,,,,,,,,,,,,,,,,,,,,,,,,,,,,,,,,,,,,,,,,,,,,,,,,,,,,,,,,,,,,,,,,,,,,,,,,,,,,,,,,,,,
,,697dce14b3e39fbdcbb7d889,2026-03-17_16h00.05.944,kallum_motion_pilot_GIST_update_2,2026.1.1,Win32,60.24096386,697dce14b3e39fbdcbb7d889,69b92ab4aef6dee357cd729a,69b92cf896dd62050d8eb1af,0.0345,0.0345,0,49,49,67,1,twofour,,,,,,,,,,,,,,,,,,,,,,,,,,,,,,,,,,,,,,,,,,,,,,,,,,,,,,,,,,,,,,,,,,,,,,,,,,,,,,,,,,,,,,,,,,,,,,,,,,,,,,,,,,,,,,,,,,,,,,,,,,,,,,,,,,,,,,,,,
,,697dce14b3e39fbdcbb7d889,2026-03-17_16h00.05.944,kallum_motion_pilot_GIST_update_2,2026.1.1,Win32,60.24096386,697dce14b3e39fbdcbb7d889,69b92ab4aef6dee357cd729a,69b92cf896dd62050d8eb1af,0.0347,0.0347,0,50,50,52,1,threeone,,,,,,,,,,,,,,,,,,,,,,,,,,,,,,,,,,,,,,,,,,,,,,,,,,,,,,,,,,,,,,,,,,,,,,,,,,,,,,,,,,,,,,,,,,,,,,,,,,,,,,,,,,,,,,,,,,,,,,,,,,,,,,,,,,,,,,,,,
,,697dce14b3e39fbdcbb7d889,2026-03-17_16h00.05.944,kallum_motion_pilot_GIST_update_2,2026.1.1,Win32,60.24096386,697dce14b3e39fbdcbb7d889,69b92ab4aef6dee357cd729a,69b92cf896dd62050d8eb1af,0.0348,0.0348,0,51,51,0,1,onetwo,,,,,,,,,,,,,,,,,,,,,,,,,,,,,,,,,,,,,,,,,,,,,,,,,,,,,,,,,,,,,,,,,,,,,,,,,,,,,,,,,,,,,,,,,,,,,,,,,,,,,,,,,,,,,,,,,,,,,,,,,,,,,,,,,,,,,,,,,
,,697dce14b3e39fbdcbb7d889,2026-03-17_16h00.05.944,kallum_motion_pilot_GIST_update_2,2026.1.1,Win32,60.24096386,697dce14b3e39fbdcbb7d889,69b92ab4aef6dee357cd729a,69b92cf896dd62050d8eb1af,0.035,0.035,0,52,52,102,1,eightsix,,,,,,,,,,,,,,,,,,,,,,,,,,,,,,,,,,,,,,,,,,,,,,,,,,,,,,,,,,,,,,,,,,,,,,,,,,,,,,,,,,,,,,,,,,,,,,,,,,,,,,,,,,,,,,,,,,,,,,,,,,,,,,,,,,,,,,,,,
,,697dce14b3e39fbdcbb7d889,2026-03-17_16h00.05.944,kallum_motion_pilot_GIST_update_2,2026.1.1,Win32,60.24096386,697dce14b3e39fbdcbb7d889,69b92ab4aef6dee357cd729a,69b92cf896dd62050d8eb1af,0.0351,0.0351,0,53,53,28,1,threeone,,,,,,,,,,,,,,,,,,,,,,,,,,,,,,,,,,,,,,,,,,,,,,,,,,,,,,,,,,,,,,,,,,,,,,,,,,,,,,,,,,,,,,,,,,,,,,,,,,,,,,,,,,,,,,,,,,,,,,,,,,,,,,,,,,,,,,,,,
,,697dce14b3e39fbdcbb7d889,2026-03-17_16h00.05.944,kallum_motion_pilot_GIST_update_2,2026.1.1,Win32,60.24096386,697dce14b3e39fbdcbb7d889,69b92ab4aef6dee357cd729a,69b92cf896dd62050d8eb1af,0.0352,0.0352,0,54,54,153,1,fiveseven,,,,,,,,,,,,,,,,,,,,,,,,,,,,,,,,,,,,,,,,,,,,,,,,,,,,,,,,,,,,,,,,,,,,,,,,,,,,,,,,,,,,,,,,,,,,,,,,,,,,,,,,,,,,,,,,,,,,,,,,,,,,,,,,,,,,,,,,,
,,697dce14b3e39fbdcbb7d889,2026-03-17_16h00.05.944,kallum_motion_pilot_GIST_update_2,2026.1.1,Win32,60.24096386,697dce14b3e39fbdcbb7d889,69b92ab4aef6dee357cd729a,69b92cf896dd62050d8eb1af,0.0354,0.0354,0,55,55,148,1,sevenfive,,,,,,,,,,,,,,,,,,,,,,,,,,,,,,,,,,,,,,,,,,,,,,,,,,,,,,,,,,,,,,,,,,,,,,,,,,,,,,,,,,,,,,,,,,,,,,,,,,,,,,,,,,,,,,,,,,,,,,,,,,,,,,,,,,,,,,,,,
,,697dce14b3e39fbdcbb7d889,2026-03-17_16h00.05.944,kallum_motion_pilot_GIST_update_2,2026.1.1,Win32,60.24096386,697dce14b3e39fbdcbb7d889,69b92ab4aef6dee357cd729a,69b92cf896dd62050d8eb1af,0.0355,0.0355,0,56,56,66,1,twoone,,,,,,,,,,,,,,,,,,,,,,,,,,,,,,,,,,,,,,,,,,,,,,,,,,,,,,,,,,,,,,,,,,,,,,,,,,,,,,,,,,,,,,,,,,,,,,,,,,,,,,,,,,,,,,,,,,,,,,,,,,,,,,,,,,,,,,,,,
,,697dce14b3e39fbdcbb7d889,2026-03-17_16h00.05.944,kallum_motion_pilot_GIST_update_2,2026.1.1,Win32,60.24096386,697dce14b3e39fbdcbb7d889,69b92ab4aef6dee357cd729a,69b92cf896dd62050d8eb1af,0.0357,0.0357,0,57,57,97,1,fiveseven,,,,,,,,,,,,,,,,,,,,,,,,,,,,,,,,,,,,,,,,,,,,,,,,,,,,,,,,,,,,,,,,,,,,,,,,,,,,,,,,,,,,,,,,,,,,,,,,,,,,,,,,,,,,,,,,,,,,,,,,,,,,,,,,,,,,,,,,,
,,697dce14b3e39fbdcbb7d889,2026-03-17_16h00.05.944,kallum_motion_pilot_GIST_update_2,2026.1.1,Win32,60.24096386,697dce14b3e39fbdcbb7d889,69b92ab4aef6dee357cd729a,69b92cf896dd62050d8eb1af,0.0358,0.0358,0,58,58,92,1,sevenfive,,,,,,,,,,,,,,,,,,,,,,,,,,,,,,,,,,,,,,,,,,,,,,,,,,,,,,,,,,,,,,,,,,,,,,,,,,,,,,,,,,,,,,,,,,,,,,,,,,,,,,,,,,,,,,,,,,,,,,,,,,,,,,,,,,,,,,,,,
,,697dce14b3e39fbdcbb7d889,2026-03-17_16h00.05.944,kallum_motion_pilot_GIST_update_2,2026.1.1,Win32,60.24096386,697dce14b3e39fbdcbb7d889,69b92ab4aef6dee357cd729a,69b92cf896dd62050d8eb1af,0.0359,0.0359,0,59,59,146,1,sixfive,,,,,,,,,,,,,,,,,,,,,,,,,,,,,,,,,,,,,,,,,,,,,,,,,,,,,,,,,,,,,,,,,,,,,,,,,,,,,,,,,,,,,,,,,,,,,,,,,,,,,,,,,,,,,,,,,,,,,,,,,,,,,,,,,,,,,,,,,
,,697dce14b3e39fbdcbb7d889,2026-03-17_16h00.05.944,kallum_motion_pilot_GIST_update_2,2026.1.1,Win32,60.24096386,697dce14b3e39fbdcbb7d889,69b92ab4aef6dee357cd729a,69b92cf896dd62050d8eb1af,0.0361,0.0361,0,60,60,83,1,sixeight,,,,,,,,,,,,,,,,,,,,,,,,,,,,,,,,,,,,,,,,,,,,,,,,,,,,,,,,,,,,,,,,,,,,,,,,,,,,,,,,,,,,,,,,,,,,,,,,,,,,,,,,,,,,,,,,,,,,,,,,,,,,,,,,,,,,,,,,,
,,697dce14b3e39fbdcbb7d889,2026-03-17_16h00.05.944,kallum_motion_pilot_GIST_update_2,2026.1.1,Win32,60.24096386,697dce14b3e39fbdcbb7d889,69b92ab4aef6dee357cd729a,69b92cf896dd62050d8eb1af,0.0362,0.0362,0,61,61,21,1,threefour,,,,,,,,,,,,,,,,,,,,,,,,,,,,,,,,,,,,,,,,,,,,,,,,,,,,,,,,,,,,,,,,,,,,,,,,,,,,,,,,,,,,,,,,,,,,,,,,,,,,,,,,,,,,,,,,,,,,,,,,,,,,,,,,,,,,,,,,,
,,697dce14b3e39fbdcbb7d889,2026-03-17_16h00.05.944,kallum_motion_pilot_GIST_update_2,2026.1.1,Win32,60.24096386,697dce14b3e39fbdcbb7d889,69b92ab4aef6dee357cd729a,69b92cf896dd62050d8eb1af,0.0363,0.0363,0,62,62,29,1,threefour,,,,,,,,,,,,,,,,,,,,,,,,,,,,,,,,,,,,,,,,,,,,,,,,,,,,,,,,,,,,,,,,,,,,,,,,,,,,,,,,,,,,,,,,,,,,,,,,,,,,,,,,,,,,,,,,,,,,,,,,,,,,,,,,,,,,,,,,,
,,697dce14b3e39fbdcbb7d889,2026-03-17_16h00.05.944,kallum_motion_pilot_GIST_update_2,2026.1.1,Win32,60.24096386,697dce14b3e39fbdcbb7d889,69b92ab4aef6dee357cd729a,69b92cf896dd62050d8eb1af,0.0365,0.0365,0,63,63,58,1,twoone,,,,,,,,,,,,,,,,,,,,,,,,,,,,,,,,,,,,,,,,,,,,,,,,,,,,,,,,,,,,,,,,,,,,,,,,,,,,,,,,,,,,,,,,,,,,,,,,,,,,,,,,,,,,,,,,,,,,,,,,,,,,,,,,,,,,,,,,,
,,697dce14b3e39fbdcbb7d889,2026-03-17_16h00.05.944,kallum_motion_pilot_GIST_update_2,2026.1.1,Win32,60.24096386,697dce14b3e39fbdcbb7d889,69b92ab4aef6dee357cd729a,69b92cf896dd62050d8eb1af,0.0366,0.0366,0,64,64,156,1,sevenfive,,,,,,,,,,,,,,,,,,,,,,,,,,,,,,,,,,,,,,,,,,,,,,,,,,,,,,,,,,,,,,,,,,,,,,,,,,,,,,,,,,,,,,,,,,,,,,,,,,,,,,,,,,,,,,,,,,,,,,,,,,,,,,,,,,,,,,,,,
,,697dce14b3e39fbdcbb7d889,2026-03-17_16h00.05.944,kallum_motion_pilot_GIST_update_2,2026.1.1,Win32,60.24096386,697dce14b3e39fbdcbb7d889,69b92ab4aef6dee357cd729a,69b92cf896dd62050d8eb1af,0.0367,0.0367,0,65,65,76,1,threeone,,,,,,,,,,,,,,,,,,,,,,,,,,,,,,,,,,,,,,,,,,,,,,,,,,,,,,,,,,,,,,,,,,,,,,,,,,,,,,,,,,,,,,,,,,,,,,,,,,,,,,,,,,,,,,,,,,,,,,,,,,,,,,,,,,,,,,,,,
,,697dce14b3e39fbdcbb7d889,2026-03-17_16h00.05.944,kallum_motion_pilot_GIST_update_2,2026.1.1,Win32,60.24096386,697dce14b3e39fbdcbb7d889,69b92ab4aef6dee357cd729a,69b92cf896dd62050d8eb1af,0.0368,0.0368,0,66,66,74,1,twoone,,,,,,,,,,,,,,,,,,,,,,,,,,,,,,,,,,,,,,,,,,,,,,,,,,,,,,,,,,,,,,,,,,,,,,,,,,,,,,,,,,,,,,,,,,,,,,,,,,,,,,,,,,,,,,,,,,,,,,,,,,,,,,,,,,,,,,,,,
,,697dce14b3e39fbdcbb7d889,2026-03-17_16h00.05.944,kallum_motion_pilot_GIST_update_2,2026.1.1,Win32,60.24096386,697dce14b3e39fbdcbb7d889,69b92ab4aef6dee357cd729a,69b92cf896dd62050d8eb1af,0.037,0.037,0,67,67,123,1,sixeight,,,,,,,,,,,,,,,,,,,,,,,,,,,,,,,,,,,,,,,,,,,,,,,,,,,,,,,,,,,,,,,,,,,,,,,,,,,,,,,,,,,,,,,,,,,,,,,,,,,,,,,,,,,,,,,,,,,,,,,,,,,,,,,,,,,,,,,,,
,,697dce14b3e39fbdcbb7d889,2026-03-17_16h00.05.944,kallum_motion_pilot_GIST_update_2,2026.1.1,Win32,60.24096386,697dce14b3e39fbdcbb7d889,69b92ab4aef6dee357cd729a,69b92cf896dd62050d8eb1af,0.0371,0.0371,0,68,68,6,1,fourtwo,,,,,,,,,,,,,,,,,,,,,,,,,,,,,,,,,,,,,,,,,,,,,,,,,,,,,,,,,,,,,,,,,,,,,,,,,,,,,,,,,,,,,,,,,,,,,,,,,,,,,,,,,,,,,,,,,,,,,,,,,,,,,,,,,,,,,,,,,
,,697dce14b3e39fbdcbb7d889,2026-03-17_16h00.05.944,kallum_motion_pilot_GIST_update_2,2026.1.1,Win32,60.24096386,697dce14b3e39fbdcbb7d889,69b92ab4aef6dee357cd729a,69b92cf896dd62050d8eb1af,0.0372,0.0372,0,69,69,107,1,sixeight,,,,,,,,,,,,,,,,,,,,,,,,,,,,,,,,,,,,,,,,,,,,,,,,,,,,,,,,,,,,,,,,,,,,,,,,,,,,,,,,,,,,,,,,,,,,,,,,,,,,,,,,,,,,,,,,,,,,,,,,,,,,,,,,,,,,,,,,,
,,697dce14b3e39fbdcbb7d889,2026-03-17_16h00.05.944,kallum_motion_pilot_GIST_update_2,2026.1.1,Win32,60.24096386,697dce14b3e39fbdcbb7d889,69b92ab4aef6dee357cd729a,69b92cf896dd62050d8eb1af,0.0374,0.0375,0,70,70,115,1,sixeight,,,,,,,,,,,,,,,,,,,,,,,,,,,,,,,,,,,,,,,,,,,,,,,,,,,,,,,,,,,,,,,,,,,,,,,,,,,,,,,,,,,,,,,,,,,,,,,,,,,,,,,,,,,,,,,,,,,,,,,,,,,,,,,,,,,,,,,,,
,,697dce14b3e39fbdcbb7d889,2026-03-17_16h00.05.944,kallum_motion_pilot_GIST_update_2,2026.1.1,Win32,60.24096386,697dce14b3e39fbdcbb7d889,69b92ab4aef6dee357cd729a,69b92cf896dd62050d8eb1af,0.0375,0.0376,0,71,71,91,1,sixeight,,,,,,,,,,,,,,,,,,,,,,,,,,,,,,,,,,,,,,,,,,,,,,,,,,,,,,,,,,,,,,,,,,,,,,,,,,,,,,,,,,,,,,,,,,,,,,,,,,,,,,,,,,,,,,,,,,,,,,,,,,,,,,,,,,,,,,,,,
,,697dce14b3e39fbdcbb7d889,2026-03-17_16h00.05.944,kallum_motion_pilot_GIST_update_2,2026.1.1,Win32,60.24096386,697dce14b3e39fbdcbb7d889,69b92ab4aef6dee357cd729a,69b92cf896dd62050d8eb1af,0.0377,0.0377,0,72,72,56,1,onetwo,,,,,,,,,,,,,,,,,,,,,,,,,,,,,,,,,,,,,,,,,,,,,,,,,,,,,,,,,,,,,,,,,,,,,,,,,,,,,,,,,,,,,,,,,,,,,,,,,,,,,,,,,,,,,,,,,,,,,,,,,,,,,,,,,,,,,,,,,
,,697dce14b3e39fbdcbb7d889,2026-03-17_16h00.05.944,kallum_motion_pilot_GIST_update_2,2026.1.1,Win32,60.24096386,697dce14b3e39fbdcbb7d889,69b92ab4aef6dee357cd729a,69b92cf896dd62050d8eb1af,0.0378,0.0378,0,73,73,98,1,sixfive,,,,,,,,,,,,,,,,,,,,,,,,,,,,,,,,,,,,,,,,,,,,,,,,,,,,,,,,,,,,,,,,,,,,,,,,,,,,,,,,,,,,,,,,,,,,,,,,,,,,,,,,,,,,,,,,,,,,,,,,,,,,,,,,,,,,,,,,,
,,697dce14b3e39fbdcbb7d889,2026-03-17_16h00.05.944,kallum_motion_pilot_GIST_update_2,2026.1.1,Win32,60.24096386,697dce14b3e39fbdcbb7d889,69b92ab4aef6dee357cd729a,69b92cf896dd62050d8eb1af,0.038,0.038,0,74,74,117,1,seveneight,,,,,,,,,,,,,,,,,,,,,,,,,,,,,,,,,,,,,,,,,,,,,,,,,,,,,,,,,,,,,,,,,,,,,,,,,,,,,,,,,,,,,,,,,,,,,,,,,,,,,,,,,,,,,,,,,,,,,,,,,,,,,,,,,,,,,,,,,
,,697dce14b3e39fbdcbb7d889,2026-03-17_16h00.05.944,kallum_motion_pilot_GIST_update_2,2026.1.1,Win32,60.24096386,697dce14b3e39fbdcbb7d889,69b92ab4aef6dee357cd729a,69b92cf896dd62050d8eb1af,0.0381,0.0381,0,75,75,131,1,sixeight,,,,,,,,,,,,,,,,,,,,,,,,,,,,,,,,,,,,,,,,,,,,,,,,,,,,,,,,,,,,,,,,,,,,,,,,,,,,,,,,,,,,,,,,,,,,,,,,,,,,,,,,,,,,,,,,,,,,,,,,,,,,,,,,,,,,,,,,,
,,697dce14b3e39fbdcbb7d889,2026-03-17_16h00.05.944,kallum_motion_pilot_GIST_update_2,2026.1.1,Win32,60.24096386,697dce14b3e39fbdcbb7d889,69b92ab4aef6dee357cd729a,69b92cf896dd62050d8eb1af,0.0382,0.0382,0,76,76,80,1,fivesix,,,,,,,,,,,,,,,,,,,,,,,,,,,,,,,,,,,,,,,,,,,,,,,,,,,,,,,,,,,,,,,,,,,,,,,,,,,,,,,,,,,,,,,,,,,,,,,,,,,,,,,,,,,,,,,,,,,,,,,,,,,,,,,,,,,,,,,,,
,,697dce14b3e39fbdcbb7d889,2026-03-17_16h00.05.944,kallum_motion_pilot_GIST_update_2,2026.1.1,Win32,60.24096386,697dce14b3e39fbdcbb7d889,69b92ab4aef6dee357cd729a,69b92cf896dd62050d8eb1af,0.0384,0.0384,0,77,77,144,1,fivesix,,,,,,,,,,,,,,,,,,,,,,,,,,,,,,,,,,,,,,,,,,,,,,,,,,,,,,,,,,,,,,,,,,,,,,,,,,,,,,,,,,,,,,,,,,,,,,,,,,,,,,,,,,,,,,,,,,,,,,,,,,,,,,,,,,,,,,,,,
,,697dce14b3e39fbdcbb7d889,2026-03-17_16h00.05.944,kallum_motion_pilot_GIST_update_2,2026.1.1,Win32,60.24096386,697dce14b3e39fbdcbb7d889,69b92ab4aef6dee357cd729a,69b92cf896dd62050d8eb1af,0.0385,0.0385,0,78,78,101,1,seveneight,,,,,,,,,,,,,,,,,,,,,,,,,,,,,,,,,,,,,,,,,,,,,,,,,,,,,,,,,,,,,,,,,,,,,,,,,,,,,,,,,,,,,,,,,,,,,,,,,,,,,,,,,,,,,,,,,,,,,,,,,,,,,,,,,,,,,,,,,
,,697dce14b3e39fbdcbb7d889,2026-03-17_16h00.05.944,kallum_motion_pilot_GIST_update_2,2026.1.1,Win32,60.24096386,697dce14b3e39fbdcbb7d889,69b92ab4aef6dee357cd729a,69b92cf896dd62050d8eb1af,0.0387,0.0387,0,79,79,136,1,fivesix,,,,,,,,,,,,,,,,,,,,,,,,,,,,,,,,,,,,,,,,,,,,,,,,,,,,,,,,,,,,,,,,,,,,,,,,,,,,,,,,,,,,,,,,,,,,,,,,,,,,,,,,,,,,,,,,,,,,,,,,,,,,,,,,,,,,,,,,,
,,697dce14b3e39fbdcbb7d889,2026-03-17_16h00.05.944,kallum_motion_pilot_GIST_update_2,2026.1.1,Win32,60.24096386,697dce14b3e39fbdcbb7d889,69b92ab4aef6dee357cd729a,69b92cf896dd62050d8eb1af,0.0388,0.0388,0,80,80,15,1,fourthree,,,,,,,,,,,,,,,,,,,,,,,,,,,,,,,,,,,,,,,,,,,,,,,,,,,,,,,,,,,,,,,,,,,,,,,,,,,,,,,,,,,,,,,,,,,,,,,,,,,,,,,,,,,,,,,,,,,,,,,,,,,,,,,,,,,,,,,,,
,,697dce14b3e39fbdcbb7d889,2026-03-17_16h00.05.944,kallum_motion_pilot_GIST_update_2,2026.1.1,Win32,60.24096386,697dce14b3e39fbdcbb7d889,69b92ab4aef6dee357cd729a,69b92cf896dd62050d8eb1af,0.0389,0.0389,0,81,81,59,1,twofour,,,,,,,,,,,,,,,,,,,,,,,,,,,,,,,,,,,,,,,,,,,,,,,,,,,,,,,,,,,,,,,,,,,,,,,,,,,,,,,,,,,,,,,,,,,,,,,,,,,,,,,,,,,,,,,,,,,,,,,,,,,,,,,,,,,,,,,,,
,,697dce14b3e39fbdcbb7d889,2026-03-17_16h00.05.944,kallum_motion_pilot_GIST_update_2,2026.1.1,Win32,60.24096386,697dce14b3e39fbdcbb7d889,69b92ab4aef6dee357cd729a,69b92cf896dd62050d8eb1af,0.0391,0.0391,0,82,82,85,1,seveneight,,,,,,,,,,,,,,,,,,,,,,,,,,,,,,,,,,,,,,,,,,,,,,,,,,,,,,,,,,,,,,,,,,,,,,,,,,,,,,,,,,,,,,,,,,,,,,,,,,,,,,,,,,,,,,,,,,,,,,,,,,,,,,,,,,,,,,,,,
,,697dce14b3e39fbdcbb7d889,2026-03-17_16h00.05.944,kallum_motion_pilot_GIST_update_2,2026.1.1,Win32,60.24096386,697dce14b3e39fbdcbb7d889,69b92ab4aef6dee357cd729a,69b92cf896dd62050d8eb1af,0.0392,0.0392,0,83,83,133,1,seveneight,,,,,,,,,,,,,,,,,,,,,,,,,,,,,,,,,,,,,,,,,,,,,,,,,,,,,,,,,,,,,,,,,,,,,,,,,,,,,,,,,,,,,,,,,,,,,,,,,,,,,,,,,,,,,,,,,,,,,,,,,,,,,,,,,,,,,,,,,
,,697dce14b3e39fbdcbb7d889,2026-03-17_16h00.05.944,kallum_motion_pilot_GIST_update_2,2026.1.1,Win32,60.24096386,697dce14b3e39fbdcbb7d889,69b92ab4aef6dee357cd729a,69b92cf896dd62050d8eb1af,0.0394,0.0394,0,84,84,126,1,eightsix,,,,,,,,,,,,,,,,,,,,,,,,,,,,,,,,,,,,,,,,,,,,,,,,,,,,,,,,,,,,,,,,,,,,,,,,,,,,,,,,,,,,,,,,,,,,,,,,,,,,,,,,,,,,,,,,,,,,,,,,,,,,,,,,,,,,,,,,,
,,697dce14b3e39fbdcbb7d889,2026-03-17_16h00.05.944,kallum_motion_pilot_GIST_update_2,2026.1.1,Win32,60.24096386,697dce14b3e39fbdcbb7d889,69b92ab4aef6dee357cd729a,69b92cf896dd62050d8eb1af,0.0395,0.0395,0,85,85,44,1,threeone,,,,,,,,,,,,,,,,,,,,,,,,,,,,,,,,,,,,,,,,,,,,,,,,,,,,,,,,,,,,,,,,,,,,,,,,,,,,,,,,,,,,,,,,,,,,,,,,,,,,,,,,,,,,,,,,,,,,,,,,,,,,,,,,,,,,,,,,,
,,697dce14b3e39fbdcbb7d889,2026-03-17_16h00.05.944,kallum_motion_pilot_GIST_update_2,2026.1.1,Win32,60.24096386,697dce14b3e39fbdcbb7d889,69b92ab4aef6dee357cd729a,69b92cf896dd62050d8eb1af,0.0397,0.0397,0,86,86,70,1,fourtwo,,,,,,,,,,,,,,,,,,,,,,,,,,,,,,,,,,,,,,,,,,,,,,,,,,,,,,,,,,,,,,,,,,,,,,,,,,,,,,,,,,,,,,,,,,,,,,,,,,,,,,,,,,,,,,,,,,,,,,,,,,,,,,,,,,,,,,,,,
,,697dce14b3e39fbdcbb7d889,2026-03-17_16h00.05.944,kallum_motion_pilot_GIST_update_2,2026.1.1,Win32,60.24096386,697dce14b3e39fbdcbb7d889,69b92ab4aef6dee357cd729a,69b92cf896dd62050d8eb1af,0.0398,0.0398,0,87,87,145,1,fiveseven,,,,,,,,,,,,,,,,,,,,,,,,,,,,,,,,,,,,,,,,,,,,,,,,,,,,,,,,,,,,,,,,,,,,,,,,,,,,,,,,,,,,,,,,,,,,,,,,,,,,,,,,,,,,,,,,,,,,,,,,,,,,,,,,,,,,,,,,,
,,697dce14b3e39fbdcbb7d889,2026-03-17_16h00.05.944,kallum_motion_pilot_GIST_update_2,2026.1.1,Win32,60.24096386,697dce14b3e39fbdcbb7d889,69b92ab4aef6dee357cd729a,69b92cf896dd62050d8eb1af,0.0399,0.0399,0,88,88,105,1,fiveseven,,,,,,,,,,,,,,,,,,,,,,,,,,,,,,,,,,,,,,,,,,,,,,,,,,,,,,,,,,,,,,,,,,,,,,,,,,,,,,,,,,,,,,,,,,,,,,,,,,,,,,,,,,,,,,,,,,,,,,,,,,,,,,,,,,,,,,,,,
,,697dce14b3e39fbdcbb7d889,2026-03-17_16h00.05.944,kallum_motion_pilot_GIST_update_2,2026.1.1,Win32,60.24096386,697dce14b3e39fbdcbb7d889,69b92ab4aef6dee357cd729a,69b92cf896dd62050d8eb1af,0.04,0.04,0,89,89,129,1,fiveseven,,,,,,,,,,,,,,,,,,,,,,,,,,,,,,,,,,,,,,,,,,,,,,,,,,,,,,,,,,,,,,,,,,,,,,,,,,,,,,,,,,,,,,,,,,,,,,,,,,,,,,,,,,,,,,,,,,,,,,,,,,,,,,,,,,,,,,,,,
,,697dce14b3e39fbdcbb7d889,2026-03-17_16h00.05.944,kallum_motion_pilot_GIST_update_2,2026.1.1,Win32,60.24096386,697dce14b3e39fbdcbb7d889,69b92ab4aef6dee357cd729a,69b92cf896dd62050d8eb1af,0.0402,0.0402,0,90,90,35,1,twofour,,,,,,,,,,,,,,,,,,,,,,,,,,,,,,,,,,,,,,,,,,,,,,,,,,,,,,,,,,,,,,,,,,,,,,,,,,,,,,,,,,,,,,,,,,,,,,,,,,,,,,,,,,,,,,,,,,,,,,,,,,,,,,,,,,,,,,,,,
,,697dce14b3e39fbdcbb7d889,2026-03-17_16h00.05.944,kallum_motion_pilot_GIST_update_2,2026.1.1,Win32,60.24096386,697dce14b3e39fbdcbb7d889,69b92ab4aef6dee357cd729a,69b92cf896dd62050d8eb1af,0.0404,0.0404,0,91,91,84,1,sevenfive,,,,,,,,,,,,,,,,,,,,,,,,,,,,,,,,,,,,,,,,,,,,,,,,,,,,,,,,,,,,,,,,,,,,,,,,,,,,,,,,,,,,,,,,,,,,,,,,,,,,,,,,,,,,,,,,,,,,,,,,,,,,,,,,,,,,,,,,,
,,697dce14b3e39fbdcbb7d889,2026-03-17_16h00.05.944,kallum_motion_pilot_GIST_update_2,2026.1.1,Win32,60.24096386,697dce14b3e39fbdcbb7d889,69b92ab4aef6dee357cd729a,69b92cf896dd62050d8eb1af,0.0405,0.0405,0,92,92,88,1,fivesix,,,,,,,,,,,,,,,,,,,,,,,,,,,,,,,,,,,,,,,,,,,,,,,,,,,,,,,,,,,,,,,,,,,,,,,,,,,,,,,,,,,,,,,,,,,,,,,,,,,,,,,,,,,,,,,,,,,,,,,,,,,,,,,,,,,,,,,,,
,,697dce14b3e39fbdcbb7d889,2026-03-17_16h00.05.944,kallum_motion_pilot_GIST_update_2,2026.1.1,Win32,60.24096386,697dce14b3e39fbdcbb7d889,69b92ab4aef6dee357cd729a,69b92cf896dd62050d8eb1af,0.0407,0.0407,0,93,93,16,1,onetwo,,,,,,,,,,,,,,,,,,,,,,,,,,,,,,,,,,,,,,,,,,,,,,,,,,,,,,,,,,,,,,,,,,,,,,,,,,,,,,,,,,,,,,,,,,,,,,,,,,,,,,,,,,,,,,,,,,,,,,,,,,,,,,,,,,,,,,,,,
,,697dce14b3e39fbdcbb7d889,2026-03-17_16h00.05.944,kallum_motion_pilot_GIST_update_2,2026.1.1,Win32,60.24096386,697dce14b3e39fbdcbb7d889,69b92ab4aef6dee357cd729a,69b92cf896dd62050d8eb1af,0.0408,0.0408,0,94,94,51,1,twofour,,,,,,,,,,,,,,,,,,,,,,,,,,,,,,,,,,,,,,,,,,,,,,,,,,,,,,,,,,,,,,,,,,,,,,,,,,,,,,,,,,,,,,,,,,,,,,,,,,,,,,,,,,,,,,,,,,,,,,,,,,,,,,,,,,,,,,,,,
,,697dce14b3e39fbdcbb7d889,2026-03-17_16h00.05.944,kallum_motion_pilot_GIST_update_2,2026.1.1,Win32,60.24096386,697dce14b3e39fbdcbb7d889,69b92ab4aef6dee357cd729a,69b92cf896dd62050d8eb1af,0.0409,0.0409,0,95,95,9,1,onethree,,,,,,,,,,,,,,,,,,,,,,,,,,,,,,,,,,,,,,,,,,,,,,,,,,,,,,,,,,,,,,,,,,,,,,,,,,,,,,,,,,,,,,,,,,,,,,,,,,,,,,,,,,,,,,,,,,,,,,,,,,,,,,,,,,,,,,,,,
,,697dce14b3e39fbdcbb7d889,2026-03-17_16h00.05.944,kallum_motion_pilot_GIST_update_2,2026.1.1,Win32,60.24096386,697dce14b3e39fbdcbb7d889,69b92ab4aef6dee357cd729a,69b92cf896dd62050d8eb1af,0.041,0.041,0,96,96,150,1,eightsix,,,,,,,,,,,,,,,,,,,,,,,,,,,,,,,,,,,,,,,,,,,,,,,,,,,,,,,,,,,,,,,,,,,,,,,,,,,,,,,,,,,,,,,,,,,,,,,,,,,,,,,,,,,,,,,,,,,,,,,,,,,,,,,,,,,,,,,,,
,,697dce14b3e39fbdcbb7d889,2026-03-17_16h00.05.944,kallum_motion_pilot_GIST_update_2,2026.1.1,Win32,60.24096386,697dce14b3e39fbdcbb7d889,69b92ab4aef6dee357cd729a,69b92cf896dd62050d8eb1af,0.0412,0.0412,0,97,97,20,1,threeone,,,,,,,,,,,,,,,,,,,,,,,,,,,,,,,,,,,,,,,,,,,,,,,,,,,,,,,,,,,,,,,,,,,,,,,,,,,,,,,,,,,,,,,,,,,,,,,,,,,,,,,,,,,,,,,,,,,,,,,,,,,,,,,,,,,,,,,,,
,,697dce14b3e39fbdcbb7d889,2026-03-17_16h00.05.944,kallum_motion_pilot_GIST_update_2,2026.1.1,Win32,60.24096386,697dce14b3e39fbdcbb7d889,69b92ab4aef6dee357cd729a,69b92cf896dd62050d8eb1af,0.0413,0.0413,0,98,98,49,1,onethree,,,,,,,,,,,,,,,,,,,,,,,,,,,,,,,,,,,,,,,,,,,,,,,,,,,,,,,,,,,,,,,,,,,,,,,,,,,,,,,,,,,,,,,,,,,,,,,,,,,,,,,,,,,,,,,,,,,,,,,,,,,,,,,,,,,,,,,,,
,,697dce14b3e39fbdcbb7d889,2026-03-17_16h00.05.944,kallum_motion_pilot_GIST_update_2,2026.1.1,Win32,60.24096386,697dce14b3e39fbdcbb7d889,69b92ab4aef6dee357cd729a,69b92cf896dd62050d8eb1af,0.0415,0.0415,0,99,99,5,1,threefour,,,,,,,,,,,,,,,,,,,,,,,,,,,,,,,,,,,,,,,,,,,,,,,,,,,,,,,,,,,,,,,,,,,,,,,,,,,,,,,,,,,,,,,,,,,,,,,,,,,,,,,,,,,,,,,,,,,,,,,,,,,,,,,,,,,,,,,,,
,,697dce14b3e39fbdcbb7d889,2026-03-17_16h00.05.944,kallum_motion_pilot_GIST_update_2,2026.1.1,Win32,60.24096386,697dce14b3e39fbdcbb7d889,69b92ab4aef6dee357cd729a,69b92cf896dd62050d8eb1af,0.0416,0.0416,0,100,100,82,1,sixfive,,,,,,,,,,,,,,,,,,,,,,,,,,,,,,,,,,,,,,,,,,,,,,,,,,,,,,,,,,,,,,,,,,,,,,,,,,,,,,,,,,,,,,,,,,,,,,,,,,,,,,,,,,,,,,,,,,,,,,,,,,,,,,,,,,,,,,,,,
,,697dce14b3e39fbdcbb7d889,2026-03-17_16h00.05.944,kallum_motion_pilot_GIST_update_2,2026.1.1,Win32,60.24096386,697dce14b3e39fbdcbb7d889,69b92ab4aef6dee357cd729a,69b92cf896dd62050d8eb1af,0.0418,0.0418,0,101,101,75,1,twofour,,,,,,,,,,,,,,,,,,,,,,,,,,,,,,,,,,,,,,,,,,,,,,,,,,,,,,,,,,,,,,,,,,,,,,,,,,,,,,,,,,,,,,,,,,,,,,,,,,,,,,,,,,,,,,,,,,,,,,,,,,,,,,,,,,,,,,,,,
,,697dce14b3e39fbdcbb7d889,2026-03-17_16h00.05.944,kallum_motion_pilot_GIST_update_2,2026.1.1,Win32,60.24096386,697dce14b3e39fbdcbb7d889,69b92ab4aef6dee357cd729a,69b92cf896dd62050d8eb1af,0.0419,0.0419,0,102,102,118,1,eightsix,,,,,,,,,,,,,,,,,,,,,,,,,,,,,,,,,,,,,,,,,,,,,,,,,,,,,,,,,,,,,,,,,,,,,,,,,,,,,,,,,,,,,,,,,,,,,,,,,,,,,,,,,,,,,,,,,,,,,,,,,,,,,,,,,,,,,,,,,
,,697dce14b3e39fbdcbb7d889,2026-03-17_16h00.05.944,kallum_motion_pilot_GIST_update_2,2026.1.1,Win32,60.24096386,697dce14b3e39fbdcbb7d889,69b92ab4aef6dee357cd729a,69b92cf896dd62050d8eb1af,0.0421,0.0421,0,103,103,140,1,sevenfive,,,,,,,,,,,,,,,,,,,,,,,,,,,,,,,,,,,,,,,,,,,,,,,,,,,,,,,,,,,,,,,,,,,,,,,,,,,,,,,,,,,,,,,,,,,,,,,,,,,,,,,,,,,,,,,,,,,,,,,,,,,,,,,,,,,,,,,,,
,,697dce14b3e39fbdcbb7d889,2026-03-17_16h00.05.944,kallum_motion_pilot_GIST_update_2,2026.1.1,Win32,60.24096386,697dce14b3e39fbdcbb7d889,69b92ab4aef6dee357cd729a,69b92cf896dd62050d8eb1af,0.0422,0.0422,0,104,104,23,1,fourthree,,,,,,,,,,,,,,,,,,,,,,,,,,,,,,,,,,,,,,,,,,,,,,,,,,,,,,,,,,,,,,,,,,,,,,,,,,,,,,,,,,,,,,,,,,,,,,,,,,,,,,,,,,,,,,,,,,,,,,,,,,,,,,,,,,,,,,,,,
,,697dce14b3e39fbdcbb7d889,2026-03-17_16h00.05.944,kallum_motion_pilot_GIST_update_2,2026.1.1,Win32,60.24096386,697dce14b3e39fbdcbb7d889,69b92ab4aef6dee357cd729a,69b92cf896dd62050d8eb1af,0.0423,0.0423,0,105,105,3,1,twofour,,,,,,,,,,,,,,,,,,,,,,,,,,,,,,,,,,,,,,,,,,,,,,,,,,,,,,,,,,,,,,,,,,,,,,,,,,,,,,,,,,,,,,,,,,,,,,,,,,,,,,,,,,,,,,,,,,,,,,,,,,,,,,,,,,,,,,,,,
,,697dce14b3e39fbdcbb7d889,2026-03-17_16h00.05.944,kallum_motion_pilot_GIST_update_2,2026.1.1,Win32,60.24096386,697dce14b3e39fbdcbb7d889,69b92ab4aef6dee357cd729a,69b92cf896dd62050d8eb1af,0.0425,0.0425,0,106,106,71,1,fourthree,,,,,,,,,,,,,,,,,,,,,,,,,,,,,,,,,,,,,,,,,,,,,,,,,,,,,,,,,,,,,,,,,,,,,,,,,,,,,,,,,,,,,,,,,,,,,,,,,,,,,,,,,,,,,,,,,,,,,,,,,,,,,,,,,,,,,,,,,
,,697dce14b3e39fbdcbb7d889,2026-03-17_16h00.05.944,kallum_motion_pilot_GIST_update_2,2026.1.1,Win32,60.24096386,697dce14b3e39fbdcbb7d889,69b92ab4aef6dee357cd729a,69b92cf896dd62050d8eb1af,0.0426,0.0426,0,107,107,138,1,sixfive,,,,,,,,,,,,,,,,,,,,,,,,,,,,,,,,,,,,,,,,,,,,,,,,,,,,,,,,,,,,,,,,,,,,,,,,,,,,,,,,,,,,,,,,,,,,,,,,,,,,,,,,,,,,,,,,,,,,,,,,,,,,,,,,,,,,,,,,,
,,697dce14b3e39fbdcbb7d889,2026-03-17_16h00.05.944,kallum_motion_pilot_GIST_update_2,2026.1.1,Win32,60.24096386,697dce14b3e39fbdcbb7d889,69b92ab4aef6dee357cd729a,69b92cf896dd62050d8eb1af,0.0428,0.0429,0,108,108,57,1,onethree,,,,,,,,,,,,,,,,,,,,,,,,,,,,,,,,,,,,,,,,,,,,,,,,,,,,,,,,,,,,,,,,,,,,,,,,,,,,,,,,,,,,,,,,,,,,,,,,,,,,,,,,,,,,,,,,,,,,,,,,,,,,,,,,,,,,,,,,,
,,697dce14b3e39fbdcbb7d889,2026-03-17_16h00.05.944,kallum_motion_pilot_GIST_update_2,2026.1.1,Win32,60.24096386,697dce14b3e39fbdcbb7d889,69b92ab4aef6dee357cd729a,69b92cf896dd62050d8eb1af,0.043,0.0431,0,109,109,127,1,eightseven,,,,,,,,,,,,,,,,,,,,,,,,,,,,,,,,,,,,,,,,,,,,,,,,,,,,,,,,,,,,,,,,,,,,,,,,,,,,,,,,,,,,,,,,,,,,,,,,,,,,,,,,,,,,,,,,,,,,,,,,,,,,,,,,,,,,,,,,,
,,697dce14b3e39fbdcbb7d889,2026-03-17_16h00.05.944,kallum_motion_pilot_GIST_update_2,2026.1.1,Win32,60.24096386,697dce14b3e39fbdcbb7d889,69b92ab4aef6dee357cd729a,69b92cf896dd62050d8eb1af,0.0433,0.0433,0,110,110,46,1,fourtwo,,,,,,,,,,,,,,,,,,,,,,,,,,,,,,,,,,,,,,,,,,,,,,,,,,,,,,,,,,,,,,,,,,,,,,,,,,,,,,,,,,,,,,,,,,,,,,,,,,,,,,,,,,,,,,,,,,,,,,,,,,,,,,,,,,,,,,,,,
,,697dce14b3e39fbdcbb7d889,2026-03-17_16h00.05.944,kallum_motion_pilot_GIST_update_2,2026.1.1,Win32,60.24096386,697dce14b3e39fbdcbb7d889,69b92ab4aef6dee357cd729a,69b92cf896dd62050d8eb1af,0.0434,0.0434,0,111,111,137,1,fiveseven,,,,,,,,,,,,,,,,,,,,,,,,,,,,,,,,,,,,,,,,,,,,,,,,,,,,,,,,,,,,,,,,,,,,,,,,,,,,,,,,,,,,,,,,,,,,,,,,,,,,,,,,,,,,,,,,,,,,,,,,,,,,,,,,,,,,,,,,,
,,697dce14b3e39fbdcbb7d889,2026-03-17_16h00.05.944,kallum_motion_pilot_GIST_update_2,2026.1.1,Win32,60.24096386,697dce14b3e39fbdcbb7d889,69b92ab4aef6dee357cd729a,69b92cf896dd62050d8eb1af,0.0436,0.0436,0,112,112,32,1,onetwo,,,,,,,,,,,,,,,,,,,,,,,,,,,,,,,,,,,,,,,,,,,,,,,,,,,,,,,,,,,,,,,,,,,,,,,,,,,,,,,,,,,,,,,,,,,,,,,,,,,,,,,,,,,,,,,,,,,,,,,,,,,,,,,,,,,,,,,,,
,,697dce14b3e39fbdcbb7d889,2026-03-17_16h00.05.944,kallum_motion_pilot_GIST_update_2,2026.1.1,Win32,60.24096386,697dce14b3e39fbdcbb7d889,69b92ab4aef6dee357cd729a,69b92cf896dd62050d8eb1af,0.0438,0.0438,0,113,113,157,1,seveneight,,,,,,,,,,,,,,,,,,,,,,,,,,,,,,,,,,,,,,,,,,,,,,,,,,,,,,,,,,,,,,,,,,,,,,,,,,,,,,,,,,,,,,,,,,,,,,,,,,,,,,,,,,,,,,,,,,,,,,,,,,,,,,,,,,,,,,,,,
,,697dce14b3e39fbdcbb7d889,2026-03-17_16h00.05.944,kallum_motion_pilot_GIST_update_2,2026.1.1,Win32,60.24096386,697dce14b3e39fbdcbb7d889,69b92ab4aef6dee357cd729a,69b92cf896dd62050d8eb1af,0.0439,0.0439,0,114,114,25,1,onethree,,,,,,,,,,,,,,,,,,,,,,,,,,,,,,,,,,,,,,,,,,,,,,,,,,,,,,,,,,,,,,,,,,,,,,,,,,,,,,,,,,,,,,,,,,,,,,,,,,,,,,,,,,,,,,,,,,,,,,,,,,,,,,,,,,,,,,,,,
,,697dce14b3e39fbdcbb7d889,2026-03-17_16h00.05.944,kallum_motion_pilot_GIST_update_2,2026.1.1,Win32,60.24096386,697dce14b3e39fbdcbb7d889,69b92ab4aef6dee357cd729a,69b92cf896dd62050d8eb1af,0.0441,0.0441,0,115,115,95,1,eightseven,,,,,,,,,,,,,,,,,,,,,,,,,,,,,,,,,,,,,,,,,,,,,,,,,,,,,,,,,,,,,,,,,,,,,,,,,,,,,,,,,,,,,,,,,,,,,,,,,,,,,,,,,,,,,,,,,,,,,,,,,,,,,,,,,,,,,,,,,
,,697dce14b3e39fbdcbb7d889,2026-03-17_16h00.05.944,kallum_motion_pilot_GIST_update_2,2026.1.1,Win32,60.24096386,697dce14b3e39fbdcbb7d889,69b92ab4aef6dee357cd729a,69b92cf896dd62050d8eb1af,0.0443,0.0443,0,116,116,7,1,fourthree,,,,,,,,,,,,,,,,,,,,,,,,,,,,,,,,,,,,,,,,,,,,,,,,,,,,,,,,,,,,,,,,,,,,,,,,,,,,,,,,,,,,,,,,,,,,,,,,,,,,,,,,,,,,,,,,,,,,,,,,,,,,,,,,,,,,,,,,,
,,697dce14b3e39fbdcbb7d889,2026-03-17_16h00.05.944,kallum_motion_pilot_GIST_update_2,2026.1.1,Win32,60.24096386,697dce14b3e39fbdcbb7d889,69b92ab4aef6dee357cd729a,69b92cf896dd62050d8eb1af,0.0443,0.0443,0,117,117,155,1,sixeight,,,,,,,,,,,,,,,,,,,,,,,,,,,,,,,,,,,,,,,,,,,,,,,,,,,,,,,,,,,,,,,,,,,,,,,,,,,,,,,,,,,,,,,,,,,,,,,,,,,,,,,,,,,,,,,,,,,,,,,,,,,,,,,,,,,,,,,,,
,,697dce14b3e39fbdcbb7d889,2026-03-17_16h00.05.944,kallum_motion_pilot_GIST_update_2,2026.1.1,Win32,60.24096386,697dce14b3e39fbdcbb7d889,69b92ab4aef6dee357cd729a,69b92cf896dd62050d8eb1af,0.0445,0.0445,0,118,118,62,1,fourtwo,,,,,,,,,,,,,,,,,,,,,,,,,,,,,,,,,,,,,,,,,,,,,,,,,,,,,,,,,,,,,,,,,,,,,,,,,,,,,,,,,,,,,,,,,,,,,,,,,,,,,,,,,,,,,,,,,,,,,,,,,,,,,,,,,,,,,,,,,
,,697dce14b3e39fbdcbb7d889,2026-03-17_16h00.05.944,kallum_motion_pilot_GIST_update_2,2026.1.1,Win32,60.24096386,697dce14b3e39fbdcbb7d889,69b92ab4aef6dee357cd729a,69b92cf896dd62050d8eb1af,0.0446,0.0446,0,119,119,42,1,twoone,,,,,,,,,,,,,,,,,,,,,,,,,,,,,,,,,,,,,,,,,,,,,,,,,,,,,,,,,,,,,,,,,,,,,,,,,,,,,,,,,,,,,,,,,,,,,,,,,,,,,,,,,,,,,,,,,,,,,,,,,,,,,,,,,,,,,,,,,
,,697dce14b3e39fbdcbb7d889,2026-03-17_16h00.05.944,kallum_motion_pilot_GIST_update_2,2026.1.1,Win32,60.24096386,697dce14b3e39fbdcbb7d889,69b92ab4aef6dee357cd729a,69b92cf896dd62050d8eb1af,0.0448,0.0448,0,120,120,54,1,fourtwo,,,,,,,,,,,,,,,,,,,,,,,,,,,,,,,,,,,,,,,,,,,,,,,,,,,,,,,,,,,,,,,,,,,,,,,,,,,,,,,,,,,,,,,,,,,,,,,,,,,,,,,,,,,,,,,,,,,,,,,,,,,,,,,,,,,,,,,,,
,,697dce14b3e39fbdcbb7d889,2026-03-17_16h00.05.944,kallum_motion_pilot_GIST_update_2,2026.1.1,Win32,60.24096386,697dce14b3e39fbdcbb7d889,69b92ab4aef6dee357cd729a,69b92cf896dd62050d8eb1af,0.045,0.045,0,121,121,122,1,sixfive,,,,,,,,,,,,,,,,,,,,,,,,,,,,,,,,,,,,,,,,,,,,,,,,,,,,,,,,,,,,,,,,,,,,,,,,,,,,,,,,,,,,,,,,,,,,,,,,,,,,,,,,,,,,,,,,,,,,,,,,,,,,,,,,,,,,,,,,,
,,697dce14b3e39fbdcbb7d889,2026-03-17_16h00.05.944,kallum_motion_pilot_GIST_update_2,2026.1.1,Win32,60.24096386,697dce14b3e39fbdcbb7d889,69b92ab4aef6dee357cd729a,69b92cf896dd62050d8eb1af,0.0451,0.0451,0,122,122,141,1,seveneight,,,,,,,,,,,,,,,,,,,,,,,,,,,,,,,,,,,,,,,,,,,,,,,,,,,,,,,,,,,,,,,,,,,,,,,,,,,,,,,,,,,,,,,,,,,,,,,,,,,,,,,,,,,,,,,,,,,,,,,,,,,,,,,,,,,,,,,,,
,,697dce14b3e39fbdcbb7d889,2026-03-17_16h00.05.944,kallum_motion_pilot_GIST_update_2,2026.1.1,Win32,60.24096386,697dce14b3e39fbdcbb7d889,69b92ab4aef6dee357cd729a,69b92cf896dd62050d8eb1af,0.0452,0.0452,0,123,123,108,1,sevenfive,,,,,,,,,,,,,,,,,,,,,,,,,,,,,,,,,,,,,,,,,,,,,,,,,,,,,,,,,,,,,,,,,,,,,,,,,,,,,,,,,,,,,,,,,,,,,,,,,,,,,,,,,,,,,,,,,,,,,,,,,,,,,,,,,,,,,,,,,
,,697dce14b3e39fbdcbb7d889,2026-03-17_16h00.05.944,kallum_motion_pilot_GIST_update_2,2026.1.1,Win32,60.24096386,697dce14b3e39fbdcbb7d889,69b92ab4aef6dee357cd729a,69b92cf896dd62050d8eb1af,0.0454,0.0454,0,124,124,45,1,threefour,,,,,,,,,,,,,,,,,,,,,,,,,,,,,,,,,,,,,,,,,,,,,,,,,,,,,,,,,,,,,,,,,,,,,,,,,,,,,,,,,,,,,,,,,,,,,,,,,,,,,,,,,,,,,,,,,,,,,,,,,,,,,,,,,,,,,,,,,
,,697dce14b3e39fbdcbb7d889,2026-03-17_16h00.05.944,kallum_motion_pilot_GIST_update_2,2026.1.1,Win32,60.24096386,697dce14b3e39fbdcbb7d889,69b92ab4aef6dee357cd729a,69b92cf896dd62050d8eb1af,0.0456,0.0456,0,125,125,60,1,threeone,,,,,,,,,,,,,,,,,,,,,,,,,,,,,,,,,,,,,,,,,,,,,,,,,,,,,,,,,,,,,,,,,,,,,,,,,,,,,,,,,,,,,,,,,,,,,,,,,,,,,,,,,,,,,,,,,,,,,,,,,,,,,,,,,,,,,,,,,
,,697dce14b3e39fbdcbb7d889,2026-03-17_16h00.05.944,kallum_motion_pilot_GIST_update_2,2026.1.1,Win32,60.24096386,697dce14b3e39fbdcbb7d889,69b92ab4aef6dee357cd729a,69b92cf896dd62050d8eb1af,0.0459,0.0459,0,126,126,99,1,sixeight,,,,,,,,,,,,,,,,,,,,,,,,,,,,,,,,,,,,,,,,,,,,,,,,,,,,,,,,,,,,,,,,,,,,,,,,,,,,,,,,,,,,,,,,,,,,,,,,,,,,,,,,,,,,,,,,,,,,,,,,,,,,,,,,,,,,,,,,,
,,697dce14b3e39fbdcbb7d889,2026-03-17_16h00.05.944,kallum_motion_pilot_GIST_update_2,2026.1.1,Win32,60.24096386,697dce14b3e39fbdcbb7d889,69b92ab4aef6dee357cd729a,69b92cf896dd62050d8eb1af,0.0461,0.0461,0,127,127,17,1,onethree,,,,,,,,,,,,,,,,,,,,,,,,,,,,,,,,,,,,,,,,,,,,,,,,,,,,,,,,,,,,,,,,,,,,,,,,,,,,,,,,,,,,,,,,,,,,,,,,,,,,,,,,,,,,,,,,,,,,,,,,,,,,,,,,,,,,,,,,,
,,697dce14b3e39fbdcbb7d889,2026-03-17_16h00.05.944,kallum_motion_pilot_GIST_update_2,2026.1.1,Win32,60.24096386,697dce14b3e39fbdcbb7d889,69b92ab4aef6dee357cd729a,69b92cf896dd62050d8eb1af,0.0462,0.0462,0,128,128,87,1,eightseven,,,,,,,,,,,,,,,,,,,,,,,,,,,,,,,,,,,,,,,,,,,,,,,,,,,,,,,,,,,,,,,,,,,,,,,,,,,,,,,,,,,,,,,,,,,,,,,,,,,,,,,,,,,,,,,,,,,,,,,,,,,,,,,,,,,,,,,,,
,,697dce14b3e39fbdcbb7d889,2026-03-17_16h00.05.944,kallum_motion_pilot_GIST_update_2,2026.1.1,Win32,60.24096386,697dce14b3e39fbdcbb7d889,69b92ab4aef6dee357cd729a,69b92cf896dd62050d8eb1af,0.0464,0.0464,0,129,129,61,1,threefour,,,,,,,,,,,,,,,,,,,,,,,,,,,,,,,,,,,,,,,,,,,,,,,,,,,,,,,,,,,,,,,,,,,,,,,,,,,,,,,,,,,,,,,,,,,,,,,,,,,,,,,,,,,,,,,,,,,,,,,,,,,,,,,,,,,,,,,,,
,,697dce14b3e39fbdcbb7d889,2026-03-17_16h00.05.944,kallum_motion_pilot_GIST_update_2,2026.1.1,Win32,60.24096386,697dce14b3e39fbdcbb7d889,69b92ab4aef6dee357cd729a,69b92cf896dd62050d8eb1af,0.0465,0.0465,0,130,130,30,1,fourtwo,,,,,,,,,,,,,,,,,,,,,,,,,,,,,,,,,,,,,,,,,,,,,,,,,,,,,,,,,,,,,,,,,,,,,,,,,,,,,,,,,,,,,,,,,,,,,,,,,,,,,,,,,,,,,,,,,,,,,,,,,,,,,,,,,,,,,,,,,
,,697dce14b3e39fbdcbb7d889,2026-03-17_16h00.05.944,kallum_motion_pilot_GIST_update_2,2026.1.1,Win32,60.24096386,697dce14b3e39fbdcbb7d889,69b92ab4aef6dee357cd729a,69b92cf896dd62050d8eb1af,0.0467,0.0467,0,131,131,31,1,fourthree,,,,,,,,,,,,,,,,,,,,,,,,,,,,,,,,,,,,,,,,,,,,,,,,,,,,,,,,,,,,,,,,,,,,,,,,,,,,,,,,,,,,,,,,,,,,,,,,,,,,,,,,,,,,,,,,,,,,,,,,,,,,,,,,,,,,,,,,,
,,697dce14b3e39fbdcbb7d889,2026-03-17_16h00.05.944,kallum_motion_pilot_GIST_update_2,2026.1.1,Win32,60.24096386,697dce14b3e39fbdcbb7d889,69b92ab4aef6dee357cd729a,69b92cf896dd62050d8eb1af,0.0468,0.0468,0,132,132,132,1,sevenfive,,,,,,,,,,,,,,,,,,,,,,,,,,,,,,,,,,,,,,,,,,,,,,,,,,,,,,,,,,,,,,,,,,,,,,,,,,,,,,,,,,,,,,,,,,,,,,,,,,,,,,,,,,,,,,,,,,,,,,,,,,,,,,,,,,,,,,,,,
,,697dce14b3e39fbdcbb7d889,2026-03-17_16h00.05.944,kallum_motion_pilot_GIST_update_2,2026.1.1,Win32,60.24096386,697dce14b3e39fbdcbb7d889,69b92ab4aef6dee357cd729a,69b92cf896dd62050d8eb1af,0.047,0.047,0,133,133,69,1,threefour,,,,,,,,,,,,,,,,,,,,,,,,,,,,,,,,,,,,,,,,,,,,,,,,,,,,,,,,,,,,,,,,,,,,,,,,,,,,,,,,,,,,,,,,,,,,,,,,,,,,,,,,,,,,,,,,,,,,,,,,,,,,,,,,,,,,,,,,,
,,697dce14b3e39fbdcbb7d889,2026-03-17_16h00.05.944,kallum_motion_pilot_GIST_update_2,2026.1.1,Win32,60.24096386,697dce14b3e39fbdcbb7d889,69b92ab4aef6dee357cd729a,69b92cf896dd62050d8eb1af,0.047,0.047,0,134,134,114,1,sixfive,,,,,,,,,,,,,,,,,,,,,,,,,,,,,,,,,,,,,,,,,,,,,,,,,,,,,,,,,,,,,,,,,,,,,,,,,,,,,,,,,,,,,,,,,,,,,,,,,,,,,,,,,,,,,,,,,,,,,,,,,,,,,,,,,,,,,,,,,
,,697dce14b3e39fbdcbb7d889,2026-03-17_16h00.05.944,kallum_motion_pilot_GIST_update_2,2026.1.1,Win32,60.24096386,697dce14b3e39fbdcbb7d889,69b92ab4aef6dee357cd729a,69b92cf896dd62050d8eb1af,0.0472,0.0472,0,135,135,41,1,onethree,,,,,,,,,,,,,,,,,,,,,,,,,,,,,,,,,,,,,,,,,,,,,,,,,,,,,,,,,,,,,,,,,,,,,,,,,,,,,,,,,,,,,,,,,,,,,,,,,,,,,,,,,,,,,,,,,,,,,,,,,,,,,,,,,,,,,,,,,
,,697dce14b3e39fbdcbb7d889,2026-03-17_16h00.05.944,kallum_motion_pilot_GIST_update_2,2026.1.1,Win32,60.24096386,697dce14b3e39fbdcbb7d889,69b92ab4aef6dee357cd729a,69b92cf896dd62050d8eb1af,0.0474,0.0474,0,136,136,149,1,seveneight,,,,,,,,,,,,,,,,,,,,,,,,,,,,,,,,,,,,,,,,,,,,,,,,,,,,,,,,,,,,,,,,,,,,,,,,,,,,,,,,,,,,,,,,,,,,,,,,,,,,,,,,,,,,,,,,,,,,,,,,,,,,,,,,,,,,,,,,,
,,697dce14b3e39fbdcbb7d889,2026-03-17_16h00.05.944,kallum_motion_pilot_GIST_update_2,2026.1.1,Win32,60.24096386,697dce14b3e39fbdcbb7d889,69b92ab4aef6dee357cd729a,69b92cf896dd62050d8eb1af,0.0475,0.0475,0,137,137,50,1,twoone,,,,,,,,,,,,,,,,,,,,,,,,,,,,,,,,,,,,,,,,,,,,,,,,,,,,,,,,,,,,,,,,,,,,,,,,,,,,,,,,,,,,,,,,,,,,,,,,,,,,,,,,,,,,,,,,,,,,,,,,,,,,,,,,,,,,,,,,,
,,697dce14b3e39fbdcbb7d889,2026-03-17_16h00.05.944,kallum_motion_pilot_GIST_update_2,2026.1.1,Win32,60.24096386,697dce14b3e39fbdcbb7d889,69b92ab4aef6dee357cd729a,69b92cf896dd62050d8eb1af,0.0486,0.0486,0,138,138,128,1,fivesix,,,,,,,,,,,,,,,,,,,,,,,,,,,,,,,,,,,,,,,,,,,,,,,,,,,,,,,,,,,,,,,,,,,,,,,,,,,,,,,,,,,,,,,,,,,,,,,,,,,,,,,,,,,,,,,,,,,,,,,,,,,,,,,,,,,,,,,,,
,,697dce14b3e39fbdcbb7d889,2026-03-17_16h00.05.944,kallum_motion_pilot_GIST_update_2,2026.1.1,Win32,60.24096386,697dce14b3e39fbdcbb7d889,69b92ab4aef6dee357cd729a,69b92cf896dd62050d8eb1af,0.0488,0.0488,0,139,139,43,1,twofour,,,,,,,,,,,,,,,,,,,,,,,,,,,,,,,,,,,,,,,,,,,,,,,,,,,,,,,,,,,,,,,,,,,,,,,,,,,,,,,,,,,,,,,,,,,,,,,,,,,,,,,,,,,,,,,,,,,,,,,,,,,,,,,,,,,,,,,,,
,,697dce14b3e39fbdcbb7d889,2026-03-17_16h00.05.944,kallum_motion_pilot_GIST_update_2,2026.1.1,Win32,60.24096386,697dce14b3e39fbdcbb7d889,69b92ab4aef6dee357cd729a,69b92cf896dd62050d8eb1af,0.0489,0.0489,0,140,140,47,1,fourthree,,,,,,,,,,,,,,,,,,,,,,,,,,,,,,,,,,,,,,,,,,,,,,,,,,,,,,,,,,,,,,,,,,,,,,,,,,,,,,,,,,,,,,,,,,,,,,,,,,,,,,,,,,,,,,,,,,,,,,,,,,,,,,,,,,,,,,,,,
,,697dce14b3e39fbdcbb7d889,2026-03-17_16h00.05.944,kallum_motion_pilot_GIST_update_2,2026.1.1,Win32,60.24096386,697dce14b3e39fbdcbb7d889,69b92ab4aef6dee357cd729a,69b92cf896dd62050d8eb1af,0.0491,0.0491,0,141,141,26,1,twoone,,,,,,,,,,,,,,,,,,,,,,,,,,,,,,,,,,,,,,,,,,,,,,,,,,,,,,,,,,,,,,,,,,,,,,,,,,,,,,,,,,,,,,,,,,,,,,,,,,,,,,,,,,,,,,,,,,,,,,,,,,,,,,,,,,,,,,,,,
,,697dce14b3e39fbdcbb7d889,2026-03-17_16h00.05.944,kallum_motion_pilot_GIST_update_2,2026.1.1,Win32,60.24096386,697dce14b3e39fbdcbb7d889,69b92ab4aef6dee357cd729a,69b92cf896dd62050d8eb1af,0.0493,0.0493,0,142,142,73,1,onethree,,,,,,,,,,,,,,,,,,,,,,,,,,,,,,,,,,,,,,,,,,,,,,,,,,,,,,,,,,,,,,,,,,,,,,,,,,,,,,,,,,,,,,,,,,,,,,,,,,,,,,,,,,,,,,,,,,,,,,,,,,,,,,,,,,,,,,,,,
,,697dce14b3e39fbdcbb7d889,2026-03-17_16h00.05.944,kallum_motion_pilot_GIST_update_2,2026.1.1,Win32,60.24096386,697dce14b3e39fbdcbb7d889,69b92ab4aef6dee357cd729a,69b92cf896dd62050d8eb1af,0.0494,0.0494,0,143,143,100,1,sevenfive,,,,,,,,,,,,,,,,,,,,,,,,,,,,,,,,,,,,,,,,,,,,,,,,,,,,,,,,,,,,,,,,,,,,,,,,,,,,,,,,,,,,,,,,,,,,,,,,,,,,,,,,,,,,,,,,,,,,,,,,,,,,,,,,,,,,,,,,,
,,697dce14b3e39fbdcbb7d889,2026-03-17_16h00.05.944,kallum_motion_pilot_GIST_update_2,2026.1.1,Win32,60.24096386,697dce14b3e39fbdcbb7d889,69b92ab4aef6dee357cd729a,69b92cf896dd62050d8eb1af,0.0495,0.0495,0,144,144,104,1,fivesix,,,,,,,,,,,,,,,,,,,,,,,,,,,,,,,,,,,,,,,,,,,,,,,,,,,,,,,,,,,,,,,,,,,,,,,,,,,,,,,,,,,,,,,,,,,,,,,,,,,,,,,,,,,,,,,,,,,,,,,,,,,,,,,,,,,,,,,,,
,,697dce14b3e39fbdcbb7d889,2026-03-17_16h00.05.944,kallum_motion_pilot_GIST_update_2,2026.1.1,Win32,60.24096386,697dce14b3e39fbdcbb7d889,69b92ab4aef6dee357cd729a,69b92cf896dd62050d8eb1af,0.0497,0.0497,0,145,145,106,1,sixfive,,,,,,,,,,,,,,,,,,,,,,,,,,,,,,,,,,,,,,,,,,,,,,,,,,,,,,,,,,,,,,,,,,,,,,,,,,,,,,,,,,,,,,,,,,,,,,,,,,,,,,,,,,,,,,,,,,,,,,,,,,,,,,,,,,,,,,,,,
,,697dce14b3e39fbdcbb7d889,2026-03-17_16h00.05.944,kallum_motion_pilot_GIST_update_2,2026.1.1,Win32,60.24096386,697dce14b3e39fbdcbb7d889,69b92ab4aef6dee357cd729a,69b92cf896dd62050d8eb1af,0.0499,0.0499,0,146,146,14,1,fourtwo,,,,,,,,,,,,,,,,,,,,,,,,,,,,,,,,,,,,,,,,,,,,,,,,,,,,,,,,,,,,,,,,,,,,,,,,,,,,,,,,,,,,,,,,,,,,,,,,,,,,,,,,,,,,,,,,,,,,,,,,,,,,,,,,,,,,,,,,,
,,697dce14b3e39fbdcbb7d889,2026-03-17_16h00.05.944,kallum_motion_pilot_GIST_update_2,2026.1.1,Win32,60.24096386,697dce14b3e39fbdcbb7d889,69b92ab4aef6dee357cd729a,69b92cf896dd62050d8eb1af,0.05,0.05,0,147,147,90,1,sixfive,,,,,,,,,,,,,,,,,,,,,,,,,,,,,,,,,,,,,,,,,,,,,,,,,,,,,,,,,,,,,,,,,,,,,,,,,,,,,,,,,,,,,,,,,,,,,,,,,,,,,,,,,,,,,,,,,,,,,,,,,,,,,,,,,,,,,,,,,
,,697dce14b3e39fbdcbb7d889,2026-03-17_16h00.05.944,kallum_motion_pilot_GIST_update_2,2026.1.1,Win32,60.24096386,697dce14b3e39fbdcbb7d889,69b92ab4aef6dee357cd729a,69b92cf896dd62050d8eb1af,0.0502,0.0502,0,148,148,68,1,threeone,,,,,,,,,,,,,,,,,,,,,,,,,,,,,,,,,,,,,,,,,,,,,,,,,,,,,,,,,,,,,,,,,,,,,,,,,,,,,,,,,,,,,,,,,,,,,,,,,,,,,,,,,,,,,,,,,,,,,,,,,,,,,,,,,,,,,,,,,
,,697dce14b3e39fbdcbb7d889,2026-03-17_16h00.05.944,kallum_motion_pilot_GIST_update_2,2026.1.1,Win32,60.24096386,697dce14b3e39fbdcbb7d889,69b92ab4aef6dee357cd729a,69b92cf896dd62050d8eb1af,0.0503,0.0503,0,149,149,139,1,sixeight,,,,,,,,,,,,,,,,,,,,,,,,,,,,,,,,,,,,,,,,,,,,,,,,,,,,,,,,,,,,,,,,,,,,,,,,,,,,,,,,,,,,,,,,,,,,,,,,,,,,,,,,,,,,,,,,,,,,,,,,,,,,,,,,,,,,,,,,,
,,697dce14b3e39fbdcbb7d889,2026-03-17_16h00.05.944,kallum_motion_pilot_GIST_update_2,2026.1.1,Win32,60.24096386,697dce14b3e39fbdcbb7d889,69b92ab4aef6dee357cd729a,69b92cf896dd62050d8eb1af,0.0505,0.0505,0,150,150,121,1,fiveseven,,,,,,,,,,,,,,,,,,,,,,,,,,,,,,,,,,,,,,,,,,,,,,,,,,,,,,,,,,,,,,,,,,,,,,,,,,,,,,,,,,,,,,,,,,,,,,,,,,,,,,,,,,,,,,,,,,,,,,,,,,,,,,,,,,,,,,,,,
,,697dce14b3e39fbdcbb7d889,2026-03-17_16h00.05.944,kallum_motion_pilot_GIST_update_2,2026.1.1,Win32,60.24096386,697dce14b3e39fbdcbb7d889,69b92ab4aef6dee357cd729a,69b92cf896dd62050d8eb1af,0.0507,0.0507,0,151,151,38,1,fourtwo,,,,,,,,,,,,,,,,,,,,,,,,,,,,,,,,,,,,,,,,,,,,,,,,,,,,,,,,,,,,,,,,,,,,,,,,,,,,,,,,,,,,,,,,,,,,,,,,,,,,,,,,,,,,,,,,,,,,,,,,,,,,,,,,,,,,,,,,,
,,697dce14b3e39fbdcbb7d889,2026-03-17_16h00.05.944,kallum_motion_pilot_GIST_update_2,2026.1.1,Win32,60.24096386,697dce14b3e39fbdcbb7d889,69b92ab4aef6dee357cd729a,69b92cf896dd62050d8eb1af,0.0508,0.0508,0,152,152,11,1,twofour,,,,,,,,,,,,,,,,,,,,,,,,,,,,,,,,,,,,,,,,,,,,,,,,,,,,,,,,,,,,,,,,,,,,,,,,,,,,,,,,,,,,,,,,,,,,,,,,,,,,,,,,,,,,,,,,,,,,,,,,,,,,,,,,,,,,,,,,,
,,697dce14b3e39fbdcbb7d889,2026-03-17_16h00.05.944,kallum_motion_pilot_GIST_update_2,2026.1.1,Win32,60.24096386,697dce14b3e39fbdcbb7d889,69b92ab4aef6dee357cd729a,69b92cf896dd62050d8eb1af,0.0509,0.0509,0,153,153,65,1,onethree,,,,,,,,,,,,,,,,,,,,,,,,,,,,,,,,,,,,,,,,,,,,,,,,,,,,,,,,,,,,,,,,,,,,,,,,,,,,,,,,,,,,,,,,,,,,,,,,,,,,,,,,,,,,,,,,,,,,,,,,,,,,,,,,,,,,,,,,,
,,697dce14b3e39fbdcbb7d889,2026-03-17_16h00.05.944,kallum_motion_pilot_GIST_update_2,2026.1.1,Win32,60.24096386,697dce14b3e39fbdcbb7d889,69b92ab4aef6dee357cd729a,69b92cf896dd62050d8eb1af,0.0511,0.0511,0,154,154,143,1,eightseven,,,,,,,,,,,,,,,,,,,,,,,,,,,,,,,,,,,,,,,,,,,,,,,,,,,,,,,,,,,,,,,,,,,,,,,,,,,,,,,,,,,,,,,,,,,,,,,,,,,,,,,,,,,,,,,,,,,,,,,,,,,,,,,,,,,,,,,,,
,,697dce14b3e39fbdcbb7d889,2026-03-17_16h00.05.944,kallum_motion_pilot_GIST_update_2,2026.1.1,Win32,60.24096386,697dce14b3e39fbdcbb7d889,69b92ab4aef6dee357cd729a,69b92cf896dd62050d8eb1af,0.0513,0.0513,0,155,155,36,1,threeone,,,,,,,,,,,,,,,,,,,,,,,,,,,,,,,,,,,,,,,,,,,,,,,,,,,,,,,,,,,,,,,,,,,,,,,,,,,,,,,,,,,,,,,,,,,,,,,,,,,,,,,,,,,,,,,,,,,,,,,,,,,,,,,,,,,,,,,,,
,,697dce14b3e39fbdcbb7d889,2026-03-17_16h00.05.944,kallum_motion_pilot_GIST_update_2,2026.1.1,Win32,60.24096386,697dce14b3e39fbdcbb7d889,69b92ab4aef6dee357cd729a,69b92cf896dd62050d8eb1af,0.0514,0.0514,0,156,156,94,1,eightsix,,,,,,,,,,,,,,,,,,,,,,,,,,,,,,,,,,,,,,,,,,,,,,,,,,,,,,,,,,,,,,,,,,,,,,,,,,,,,,,,,,,,,,,,,,,,,,,,,,,,,,,,,,,,,,,,,,,,,,,,,,,,,,,,,,,,,,,,,
,,697dce14b3e39fbdcbb7d889,2026-03-17_16h00.05.944,kallum_motion_pilot_GIST_update_2,2026.1.1,Win32,60.24096386,697dce14b3e39fbdcbb7d889,69b92ab4aef6dee357cd729a,69b92cf896dd62050d8eb1af,0.0515,0.0515,0,157,157,159,1,eightseven,,,,,,,,,,,,,,,,,,,,,,,,,,,,,,,,,,,,,,,,,,,,,,,,,,,,,,,,,,,,,,,,,,,,,,,,,,,,,,,,,,,,,,,,,,,,,,,,,,,,,,,,,,,,,,,,,,,,,,,,,,,,,,,,,,,,,,,,,
,,697dce14b3e39fbdcbb7d889,2026-03-17_16h00.05.944,kallum_motion_pilot_GIST_update_2,2026.1.1,Win32,60.24096386,697dce14b3e39fbdcbb7d889,69b92ab4aef6dee357cd729a,69b92cf896dd62050d8eb1af,0.0517,0.0517,0,158,158,103,1,eightseven,,,,,,,,,,,,,,,,,,,,,,,,,,,,,,,,,,,,,,,,,,,,,,,,,,,,,,,,,,,,,,,,,,,,,,,,,,,,,,,,,,,,,,,,,,,,,,,,,,,,,,,,,,,,,,,,,,,,,,,,,,,,,,,,,,,,,,,,,
,,697dce14b3e39fbdcbb7d889,2026-03-17_16h00.05.944,kallum_motion_pilot_GIST_update_2,2026.1.1,Win32,60.24096386,697dce14b3e39fbdcbb7d889,69b92ab4aef6dee357cd729a,69b92cf896dd62050d8eb1af,0.0518,0.0518,0,159,159,64,1,onetwo,,,,,,,,,,,,,,,,,,,,,,,,,,,,,,,,,,,,,,,,,,,,,,,,,,,,,,,,,,,,,,,,,,,,,,,,,,,,,,,,,,,,,,,,,,,,,,,,,,,,,,,,,,,,,,,,,,,,,,,,,,,,,,,,,,,,,,,,,
,,697dce14b3e39fbdcbb7d889,2026-03-17_16h00.05.944,kallum_motion_pilot_GIST_update_2,2026.1.1,Win32,60.24096386,697dce14b3e39fbdcbb7d889,69b92ab4aef6dee357cd729a,69b92cf896dd62050d8eb1af,0.0519,0.0519,0,160,160,147,1,sixeight,,,,,,,,,,,,,,,,,,,,,,,,,,,,,,,,,,,,,,,,,,,,,,,,,,,,,,,,,,,,,,,,,,,,,,,,,,,,,,,,,,,,,,,,,,,,,,,,,,,,,,,,,,,,,,,,,,,,,,,,,,,,,,,,,,,,,,,,,
,,697dce14b3e39fbdcbb7d889,2026-03-17_16h00.05.944,kallum_motion_pilot_GIST_update_2,2026.1.1,Win32,60.24096386,697dce14b3e39fbdcbb7d889,69b92ab4aef6dee357cd729a,69b92cf896dd62050d8eb1af,0.0521,0.0521,0,161,161,154,1,sixfive,,,,,,,,,,,,,,,,,,,,,,,,,,,,,,,,,,,,,,,,,,,,,,,,,,,,,,,,,,,,,,,,,,,,,,,,,,,,,,,,,,,,,,,,,,,,,,,,,,,,,,,,,,,,,,,,,,,,,,,,,,,,,,,,,,,,,,,,,
,,697dce14b3e39fbdcbb7d889,2026-03-17_16h00.05.944,kallum_motion_pilot_GIST_update_2,2026.1.1,Win32,60.24096386,697dce14b3e39fbdcbb7d889,69b92ab4aef6dee357cd729a,69b92cf896dd62050d8eb1af,0.0523,0.0523,1,0,162,158,1,eightsix,,,,,,,,,,,,,,,,,,,,,,,,,,,,,,,,,,,,,,,,,,,,,,,,,,,,,,,,,,,,,,,,,,,,,,,,,,,,,,,,,,,,,,,,,,,,,,,,,,,,,,,,,,,,,,,,,,,,,,,,,,,,,,,,,,,,,,,,,
,,697dce14b3e39fbdcbb7d889,2026-03-17_16h00.05.944,kallum_motion_pilot_GIST_update_2,2026.1.1,Win32,60.24096386,697dce14b3e39fbdcbb7d889,69b92ab4aef6dee357cd729a,69b92cf896dd62050d8eb1af,0.0525,0.0525,1,1,163,13,1,threefour,,,,,,,,,,,,,,,,,,,,,,,,,,,,,,,,,,,,,,,,,,,,,,,,,,,,,,,,,,,,,,,,,,,,,,,,,,,,,,,,,,,,,,,,,,,,,,,,,,,,,,,,,,,,,,,,,,,,,,,,,,,,,,,,,,,,,,,,,
,,697dce14b3e39fbdcbb7d889,2026-03-17_16h00.05.944,kallum_motion_pilot_GIST_update_2,2026.1.1,Win32,60.24096386,697dce14b3e39fbdcbb7d889,69b92ab4aef6dee357cd729a,69b92cf896dd62050d8eb1af,0.0526,0.0526,1,2,164,60,1,threeone,,,,,,,,,,,,,,,,,,,,,,,,,,,,,,,,,,,,,,,,,,,,,,,,,,,,,,,,,,,,,,,,,,,,,,,,,,,,,,,,,,,,,,,,,,,,,,,,,,,,,,,,,,,,,,,,,,,,,,,,,,,,,,,,,,,,,,,,,
,,697dce14b3e39fbdcbb7d889,2026-03-17_16h00.05.944,kallum_motion_pilot_GIST_update_2,2026.1.1,Win32,60.24096386,697dce14b3e39fbdcbb7d889,69b92ab4aef6dee357cd729a,69b92cf896dd62050d8eb1af,0.0527,0.0527,1,3,165,91,1,sixeight,,,,,,,,,,,,,,,,,,,,,,,,,,,,,,,,,,,,,,,,,,,,,,,,,,,,,,,,,,,,,,,,,,,,,,,,,,,,,,,,,,,,,,,,,,,,,,,,,,,,,,,,,,,,,,,,,,,,,,,,,,,,,,,,,,,,,,,,,
,,697dce14b3e39fbdcbb7d889,2026-03-17_16h00.05.944,kallum_motion_pilot_GIST_update_2,2026.1.1,Win32,60.24096386,697dce14b3e39fbdcbb7d889,69b92ab4aef6dee357cd729a,69b92cf896dd62050d8eb1af,0.0528,0.0529,1,4,166,4,1,threeone,,,,,,,,,,,,,,,,,,,,,,,,,,,,,,,,,,,,,,,,,,,,,,,,,,,,,,,,,,,,,,,,,,,,,,,,,,,,,,,,,,,,,,,,,,,,,,,,,,,,,,,,,,,,,,,,,,,,,,,,,,,,,,,,,,,,,,,,,
,,697dce14b3e39fbdcbb7d889,2026-03-17_16h00.05.944,kallum_motion_pilot_GIST_update_2,2026.1.1,Win32,60.24096386,697dce14b3e39fbdcbb7d889,69b92ab4aef6dee357cd729a,69b92cf896dd62050d8eb1af,0.0531,0.0531,1,5,167,67,1,twofour,,,,,,,,,,,,,,,,,,,,,,,,,,,,,,,,,,,,,,,,,,,,,,,,,,,,,,,,,,,,,,,,,,,,,,,,,,,,,,,,,,,,,,,,,,,,,,,,,,,,,,,,,,,,,,,,,,,,,,,,,,,,,,,,,,,,,,,,,
,,697dce14b3e39fbdcbb7d889,2026-03-17_16h00.05.944,kallum_motion_pilot_GIST_update_2,2026.1.1,Win32,60.24096386,697dce14b3e39fbdcbb7d889,69b92ab4aef6dee357cd729a,69b92cf896dd62050d8eb1af,0.0532,0.0532,1,6,168,90,1,sixfive,,,,,,,,,,,,,,,,,,,,,,,,,,,,,,,,,,,,,,,,,,,,,,,,,,,,,,,,,,,,,,,,,,,,,,,,,,,,,,,,,,,,,,,,,,,,,,,,,,,,,,,,,,,,,,,,,,,,,,,,,,,,,,,,,,,,,,,,,
,,697dce14b3e39fbdcbb7d889,2026-03-17_16h00.05.944,kallum_motion_pilot_GIST_update_2,2026.1.1,Win32,60.24096386,697dce14b3e39fbdcbb7d889,69b92ab4aef6dee357cd729a,69b92cf896dd62050d8eb1af,0.0533,0.0533,1,7,169,72,1,onetwo,,,,,,,,,,,,,,,,,,,,,,,,,,,,,,,,,,,,,,,,,,,,,,,,,,,,,,,,,,,,,,,,,,,,,,,,,,,,,,,,,,,,,,,,,,,,,,,,,,,,,,,,,,,,,,,,,,,,,,,,,,,,,,,,,,,,,,,,,
,,697dce14b3e39fbdcbb7d889,2026-03-17_16h00.05.944,kallum_motion_pilot_GIST_update_2,2026.1.1,Win32,60.24096386,697dce14b3e39fbdcbb7d889,69b92ab4aef6dee357cd729a,69b92cf896dd62050d8eb1af,0.0534,0.0534,1,8,170,20,1,threeone,,,,,,,,,,,,,,,,,,,,,,,,,,,,,,,,,,,,,,,,,,,,,,,,,,,,,,,,,,,,,,,,,,,,,,,,,,,,,,,,,,,,,,,,,,,,,,,,,,,,,,,,,,,,,,,,,,,,,,,,,,,,,,,,,,,,,,,,,
,,697dce14b3e39fbdcbb7d889,2026-03-17_16h00.05.944,kallum_motion_pilot_GIST_update_2,2026.1.1,Win32,60.24096386,697dce14b3e39fbdcbb7d889,69b92ab4aef6dee357cd729a,69b92cf896dd62050d8eb1af,0.0536,0.0536,1,9,171,131,1,sixeight,,,,,,,,,,,,,,,,,,,,,,,,,,,,,,,,,,,,,,,,,,,,,,,,,,,,,,,,,,,,,,,,,,,,,,,,,,,,,,,,,,,,,,,,,,,,,,,,,,,,,,,,,,,,,,,,,,,,,,,,,,,,,,,,,,,,,,,,,
,,697dce14b3e39fbdcbb7d889,2026-03-17_16h00.05.944,kallum_motion_pilot_GIST_update_2,2026.1.1,Win32,60.24096386,697dce14b3e39fbdcbb7d889,69b92ab4aef6dee357cd729a,69b92cf896dd62050d8eb1af,0.0538,0.0538,1,10,172,7,1,fourthree,,,,,,,,,,,,,,,,,,,,,,,,,,,,,,,,,,,,,,,,,,,,,,,,,,,,,,,,,,,,,,,,,,,,,,,,,,,,,,,,,,,,,,,,,,,,,,,,,,,,,,,,,,,,,,,,,,,,,,,,,,,,,,,,,,,,,,,,,
,,697dce14b3e39fbdcbb7d889,2026-03-17_16h00.05.944,kallum_motion_pilot_GIST_update_2,2026.1.1,Win32,60.24096386,697dce14b3e39fbdcbb7d889,69b92ab4aef6dee357cd729a,69b92cf896dd62050d8eb1af,0.054,0.054,1,11,173,160,1,fivesix,,,,,,,,,,,,,,,,,,,,,,,,,,,,,,,,,,,,,,,,,,,,,,,,,,,,,,,,,,,,,,,,,,,,,,,,,,,,,,,,,,,,,,,,,,,,,,,,,,,,,,,,,,,,,,,,,,,,,,,,,,,,,,,,,,,,,,,,,
,,697dce14b3e39fbdcbb7d889,2026-03-17_16h00.05.944,kallum_motion_pilot_GIST_update_2,2026.1.1,Win32,60.24096386,697dce14b3e39fbdcbb7d889,69b92ab4aef6dee357cd729a,69b92cf896dd62050d8eb1af,0.0541,0.0542,1,12,174,17,1,onethree,,,,,,,,,,,,,,,,,,,,,,,,,,,,,,,,,,,,,,,,,,,,,,,,,,,,,,,,,,,,,,,,,,,,,,,,,,,,,,,,,,,,,,,,,,,,,,,,,,,,,,,,,,,,,,,,,,,,,,,,,,,,,,,,,,,,,,,,,
,,697dce14b3e39fbdcbb7d889,2026-03-17_16h00.05.944,kallum_motion_pilot_GIST_update_2,2026.1.1,Win32,60.24096386,697dce14b3e39fbdcbb7d889,69b92ab4aef6dee357cd729a,69b92cf896dd62050d8eb1af,0.0543,0.0543,1,13,175,49,1,onethree,,,,,,,,,,,,,,,,,,,,,,,,,,,,,,,,,,,,,,,,,,,,,,,,,,,,,,,,,,,,,,,,,,,,,,,,,,,,,,,,,,,,,,,,,,,,,,,,,,,,,,,,,,,,,,,,,,,,,,,,,,,,,,,,,,,,,,,,,
,,697dce14b3e39fbdcbb7d889,2026-03-17_16h00.05.944,kallum_motion_pilot_GIST_update_2,2026.1.1,Win32,60.24096386,697dce14b3e39fbdcbb7d889,69b92ab4aef6dee357cd729a,69b92cf896dd62050d8eb1af,0.0544,0.0544,1,14,176,52,1,threeone,,,,,,,,,,,,,,,,,,,,,,,,,,,,,,,,,,,,,,,,,,,,,,,,,,,,,,,,,,,,,,,,,,,,,,,,,,,,,,,,,,,,,,,,,,,,,,,,,,,,,,,,,,,,,,,,,,,,,,,,,,,,,,,,,,,,,,,,,
,,697dce14b3e39fbdcbb7d889,2026-03-17_16h00.05.944,kallum_motion_pilot_GIST_update_2,2026.1.1,Win32,60.24096386,697dce14b3e39fbdcbb7d889,69b92ab4aef6dee357cd729a,69b92cf896dd62050d8eb1af,0.0545,0.0545,1,15,177,106,1,sixfive,,,,,,,,,,,,,,,,,,,,,,,,,,,,,,,,,,,,,,,,,,,,,,,,,,,,,,,,,,,,,,,,,,,,,,,,,,,,,,,,,,,,,,,,,,,,,,,,,,,,,,,,,,,,,,,,,,,,,,,,,,,,,,,,,,,,,,,,,
,,697dce14b3e39fbdcbb7d889,2026-03-17_16h00.05.944,kallum_motion_pilot_GIST_update_2,2026.1.1,Win32,60.24096386,697dce14b3e39fbdcbb7d889,69b92ab4aef6dee357cd729a,69b92cf896dd62050d8eb1af,0.0547,0.0547,1,16,178,132,1,sevenfive,,,,,,,,,,,,,,,,,,,,,,,,,,,,,,,,,,,,,,,,,,,,,,,,,,,,,,,,,,,,,,,,,,,,,,,,,,,,,,,,,,,,,,,,,,,,,,,,,,,,,,,,,,,,,,,,,,,,,,,,,,,,,,,,,,,,,,,,,
,,697dce14b3e39fbdcbb7d889,2026-03-17_16h00.05.944,kallum_motion_pilot_GIST_update_2,2026.1.1,Win32,60.24096386,697dce14b3e39fbdcbb7d889,69b92ab4aef6dee357cd729a,69b92cf896dd62050d8eb1af,0.0549,0.0549,1,17,179,144,1,fivesix,,,,,,,,,,,,,,,,,,,,,,,,,,,,,,,,,,,,,,,,,,,,,,,,,,,,,,,,,,,,,,,,,,,,,,,,,,,,,,,,,,,,,,,,,,,,,,,,,,,,,,,,,,,,,,,,,,,,,,,,,,,,,,,,,,,,,,,,,
,,697dce14b3e39fbdcbb7d889,2026-03-17_16h00.05.944,kallum_motion_pilot_GIST_update_2,2026.1.1,Win32,60.24096386,697dce14b3e39fbdcbb7d889,69b92ab4aef6dee357cd729a,69b92cf896dd62050d8eb1af,0.0551,0.0551,1,18,180,1,1,onethree,,,,,,,,,,,,,,,,,,,,,,,,,,,,,,,,,,,,,,,,,,,,,,,,,,,,,,,,,,,,,,,,,,,,,,,,,,,,,,,,,,,,,,,,,,,,,,,,,,,,,,,,,,,,,,,,,,,,,,,,,,,,,,,,,,,,,,,,,
,,697dce14b3e39fbdcbb7d889,2026-03-17_16h00.05.944,kallum_motion_pilot_GIST_update_2,2026.1.1,Win32,60.24096386,697dce14b3e39fbdcbb7d889,69b92ab4aef6dee357cd729a,69b92cf896dd62050d8eb1af,0.0552,0.0552,1,19,181,5,1,threefour,,,,,,,,,,,,,,,,,,,,,,,,,,,,,,,,,,,,,,,,,,,,,,,,,,,,,,,,,,,,,,,,,,,,,,,,,,,,,,,,,,,,,,,,,,,,,,,,,,,,,,,,,,,,,,,,,,,,,,,,,,,,,,,,,,,,,,,,,
,,697dce14b3e39fbdcbb7d889,2026-03-17_16h00.05.944,kallum_motion_pilot_GIST_update_2,2026.1.1,Win32,60.24096386,697dce14b3e39fbdcbb7d889,69b92ab4aef6dee357cd729a,69b92cf896dd62050d8eb1af,0.0553,0.0553,1,20,182,82,1,sixfive,,,,,,,,,,,,,,,,,,,,,,,,,,,,,,,,,,,,,,,,,,,,,,,,,,,,,,,,,,,,,,,,,,,,,,,,,,,,,,,,,,,,,,,,,,,,,,,,,,,,,,,,,,,,,,,,,,,,,,,,,,,,,,,,,,,,,,,,,
,,697dce14b3e39fbdcbb7d889,2026-03-17_16h00.05.944,kallum_motion_pilot_GIST_update_2,2026.1.1,Win32,60.24096386,697dce14b3e39fbdcbb7d889,69b92ab4aef6dee357cd729a,69b92cf896dd62050d8eb1af,0.0554,0.0554,1,21,183,149,1,seveneight,,,,,,,,,,,,,,,,,,,,,,,,,,,,,,,,,,,,,,,,,,,,,,,,,,,,,,,,,,,,,,,,,,,,,,,,,,,,,,,,,,,,,,,,,,,,,,,,,,,,,,,,,,,,,,,,,,,,,,,,,,,,,,,,,,,,,,,,,
,,697dce14b3e39fbdcbb7d889,2026-03-17_16h00.05.944,kallum_motion_pilot_GIST_update_2,2026.1.1,Win32,60.24096386,697dce14b3e39fbdcbb7d889,69b92ab4aef6dee357cd729a,69b92cf896dd62050d8eb1af,0.0556,0.0556,1,22,184,8,1,onetwo,,,,,,,,,,,,,,,,,,,,,,,,,,,,,,,,,,,,,,,,,,,,,,,,,,,,,,,,,,,,,,,,,,,,,,,,,,,,,,,,,,,,,,,,,,,,,,,,,,,,,,,,,,,,,,,,,,,,,,,,,,,,,,,,,,,,,,,,,
,,697dce14b3e39fbdcbb7d889,2026-03-17_16h00.05.944,kallum_motion_pilot_GIST_update_2,2026.1.1,Win32,60.24096386,697dce14b3e39fbdcbb7d889,69b92ab4aef6dee357cd729a,69b92cf896dd62050d8eb1af,0.0558,0.0558,1,23,185,157,1,seveneight,,,,,,,,,,,,,,,,,,,,,,,,,,,,,,,,,,,,,,,,,,,,,,,,,,,,,,,,,,,,,,,,,,,,,,,,,,,,,,,,,,,,,,,,,,,,,,,,,,,,,,,,,,,,,,,,,,,,,,,,,,,,,,,,,,,,,,,,,
,,697dce14b3e39fbdcbb7d889,2026-03-17_16h00.05.944,kallum_motion_pilot_GIST_update_2,2026.1.1,Win32,60.24096386,697dce14b3e39fbdcbb7d889,69b92ab4aef6dee357cd729a,69b92cf896dd62050d8eb1af,0.056,0.056,1,24,186,97,1,fiveseven,,,,,,,,,,,,,,,,,,,,,,,,,,,,,,,,,,,,,,,,,,,,,,,,,,,,,,,,,,,,,,,,,,,,,,,,,,,,,,,,,,,,,,,,,,,,,,,,,,,,,,,,,,,,,,,,,,,,,,,,,,,,,,,,,,,,,,,,,
,,697dce14b3e39fbdcbb7d889,2026-03-17_16h00.05.944,kallum_motion_pilot_GIST_update_2,2026.1.1,Win32,60.24096386,697dce14b3e39fbdcbb7d889,69b92ab4aef6dee357cd729a,69b92cf896dd62050d8eb1af,0.0561,0.0561,1,25,187,69,1,threefour,,,,,,,,,,,,,,,,,,,,,,,,,,,,,,,,,,,,,,,,,,,,,,,,,,,,,,,,,,,,,,,,,,,,,,,,,,,,,,,,,,,,,,,,,,,,,,,,,,,,,,,,,,,,,,,,,,,,,,,,,,,,,,,,,,,,,,,,,
,,697dce14b3e39fbdcbb7d889,2026-03-17_16h00.05.944,kallum_motion_pilot_GIST_update_2,2026.1.1,Win32,60.24096386,697dce14b3e39fbdcbb7d889,69b92ab4aef6dee357cd729a,69b92cf896dd62050d8eb1af,0.0563,0.0563,1,26,188,121,1,fiveseven,,,,,,,,,,,,,,,,,,,,,,,,,,,,,,,,,,,,,,,,,,,,,,,,,,,,,,,,,,,,,,,,,,,,,,,,,,,,,,,,,,,,,,,,,,,,,,,,,,,,,,,,,,,,,,,,,,,,,,,,,,,,,,,,,,,,,,,,,
,,697dce14b3e39fbdcbb7d889,2026-03-17_16h00.05.944,kallum_motion_pilot_GIST_update_2,2026.1.1,Win32,60.24096386,697dce14b3e39fbdcbb7d889,69b92ab4aef6dee357cd729a,69b92cf896dd62050d8eb1af,0.0565,0.0565,1,27,189,9,1,onethree,,,,,,,,,,,,,,,,,,,,,,,,,,,,,,,,,,,,,,,,,,,,,,,,,,,,,,,,,,,,,,,,,,,,,,,,,,,,,,,,,,,,,,,,,,,,,,,,,,,,,,,,,,,,,,,,,,,,,,,,,,,,,,,,,,,,,,,,,
,,697dce14b3e39fbdcbb7d889,2026-03-17_16h00.05.944,kallum_motion_pilot_GIST_update_2,2026.1.1,Win32,60.24096386,697dce14b3e39fbdcbb7d889,69b92ab4aef6dee357cd729a,69b92cf896dd62050d8eb1af,0.0567,0.0567,1,28,190,18,1,twoone,,,,,,,,,,,,,,,,,,,,,,,,,,,,,,,,,,,,,,,,,,,,,,,,,,,,,,,,,,,,,,,,,,,,,,,,,,,,,,,,,,,,,,,,,,,,,,,,,,,,,,,,,,,,,,,,,,,,,,,,,,,,,,,,,,,,,,,,,
,,697dce14b3e39fbdcbb7d889,2026-03-17_16h00.05.944,kallum_motion_pilot_GIST_update_2,2026.1.1,Win32,60.24096386,697dce14b3e39fbdcbb7d889,69b92ab4aef6dee357cd729a,69b92cf896dd62050d8eb1af,0.0569,0.0569,1,29,191,40,1,onetwo,,,,,,,,,,,,,,,,,,,,,,,,,,,,,,,,,,,,,,,,,,,,,,,,,,,,,,,,,,,,,,,,,,,,,,,,,,,,,,,,,,,,,,,,,,,,,,,,,,,,,,,,,,,,,,,,,,,,,,,,,,,,,,,,,,,,,,,,,
,,697dce14b3e39fbdcbb7d889,2026-03-17_16h00.05.944,kallum_motion_pilot_GIST_update_2,2026.1.1,Win32,60.24096386,697dce14b3e39fbdcbb7d889,69b92ab4aef6dee357cd729a,69b92cf896dd62050d8eb1af,0.0571,0.0571,1,30,192,25,1,onethree,,,,,,,,,,,,,,,,,,,,,,,,,,,,,,,,,,,,,,,,,,,,,,,,,,,,,,,,,,,,,,,,,,,,,,,,,,,,,,,,,,,,,,,,,,,,,,,,,,,,,,,,,,,,,,,,,,,,,,,,,,,,,,,,,,,,,,,,,
,,697dce14b3e39fbdcbb7d889,2026-03-17_16h00.05.944,kallum_motion_pilot_GIST_update_2,2026.1.1,Win32,60.24096386,697dce14b3e39fbdcbb7d889,69b92ab4aef6dee357cd729a,69b92cf896dd62050d8eb1af,0.0572,0.0572,1,31,193,141,1,seveneight,,,,,,,,,,,,,,,,,,,,,,,,,,,,,,,,,,,,,,,,,,,,,,,,,,,,,,,,,,,,,,,,,,,,,,,,,,,,,,,,,,,,,,,,,,,,,,,,,,,,,,,,,,,,,,,,,,,,,,,,,,,,,,,,,,,,,,,,,
,,697dce14b3e39fbdcbb7d889,2026-03-17_16h00.05.944,kallum_motion_pilot_GIST_update_2,2026.1.1,Win32,60.24096386,697dce14b3e39fbdcbb7d889,69b92ab4aef6dee357cd729a,69b92cf896dd62050d8eb1af,0.0573,0.0573,1,32,194,155,1,sixeight,,,,,,,,,,,,,,,,,,,,,,,,,,,,,,,,,,,,,,,,,,,,,,,,,,,,,,,,,,,,,,,,,,,,,,,,,,,,,,,,,,,,,,,,,,,,,,,,,,,,,,,,,,,,,,,,,,,,,,,,,,,,,,,,,,,,,,,,,
,,697dce14b3e39fbdcbb7d889,2026-03-17_16h00.05.944,kallum_motion_pilot_GIST_update_2,2026.1.1,Win32,60.24096386,697dce14b3e39fbdcbb7d889,69b92ab4aef6dee357cd729a,69b92cf896dd62050d8eb1af,0.0576,0.0576,1,33,195,14,1,fourtwo,,,,,,,,,,,,,,,,,,,,,,,,,,,,,,,,,,,,,,,,,,,,,,,,,,,,,,,,,,,,,,,,,,,,,,,,,,,,,,,,,,,,,,,,,,,,,,,,,,,,,,,,,,,,,,,,,,,,,,,,,,,,,,,,,,,,,,,,,
,,697dce14b3e39fbdcbb7d889,2026-03-17_16h00.05.944,kallum_motion_pilot_GIST_update_2,2026.1.1,Win32,60.24096386,697dce14b3e39fbdcbb7d889,69b92ab4aef6dee357cd729a,69b92cf896dd62050d8eb1af,0.0576,0.0577,1,34,196,145,1,fiveseven,,,,,,,,,,,,,,,,,,,,,,,,,,,,,,,,,,,,,,,,,,,,,,,,,,,,,,,,,,,,,,,,,,,,,,,,,,,,,,,,,,,,,,,,,,,,,,,,,,,,,,,,,,,,,,,,,,,,,,,,,,,,,,,,,,,,,,,,,
,,697dce14b3e39fbdcbb7d889,2026-03-17_16h00.05.944,kallum_motion_pilot_GIST_update_2,2026.1.1,Win32,60.24096386,697dce14b3e39fbdcbb7d889,69b92ab4aef6dee357cd729a,69b92cf896dd62050d8eb1af,0.0579,0.0579,1,35,197,86,1,eightsix,,,,,,,,,,,,,,,,,,,,,,,,,,,,,,,,,,,,,,,,,,,,,,,,,,,,,,,,,,,,,,,,,,,,,,,,,,,,,,,,,,,,,,,,,,,,,,,,,,,,,,,,,,,,,,,,,,,,,,,,,,,,,,,,,,,,,,,,,
,,697dce14b3e39fbdcbb7d889,2026-03-17_16h00.05.944,kallum_motion_pilot_GIST_update_2,2026.1.1,Win32,60.24096386,697dce14b3e39fbdcbb7d889,69b92ab4aef6dee357cd729a,69b92cf896dd62050d8eb1af,0.0581,0.0581,1,36,198,74,1,twoone,,,,,,,,,,,,,,,,,,,,,,,,,,,,,,,,,,,,,,,,,,,,,,,,,,,,,,,,,,,,,,,,,,,,,,,,,,,,,,,,,,,,,,,,,,,,,,,,,,,,,,,,,,,,,,,,,,,,,,,,,,,,,,,,,,,,,,,,,
,,697dce14b3e39fbdcbb7d889,2026-03-17_16h00.05.944,kallum_motion_pilot_GIST_update_2,2026.1.1,Win32,60.24096386,697dce14b3e39fbdcbb7d889,69b92ab4aef6dee357cd729a,69b92cf896dd62050d8eb1af,0.0583,0.0583,1,37,199,143,1,eightseven,,,,,,,,,,,,,,,,,,,,,,,,,,,,,,,,,,,,,,,,,,,,,,,,,,,,,,,,,,,,,,,,,,,,,,,,,,,,,,,,,,,,,,,,,,,,,,,,,,,,,,,,,,,,,,,,,,,,,,,,,,,,,,,,,,,,,,,,,
,,697dce14b3e39fbdcbb7d889,2026-03-17_16h00.05.944,kallum_motion_pilot_GIST_update_2,2026.1.1,Win32,60.24096386,697dce14b3e39fbdcbb7d889,69b92ab4aef6dee357cd729a,69b92cf896dd62050d8eb1af,0.0584,0.0584,1,38,200,94,1,eightsix,,,,,,,,,,,,,,,,,,,,,,,,,,,,,,,,,,,,,,,,,,,,,,,,,,,,,,,,,,,,,,,,,,,,,,,,,,,,,,,,,,,,,,,,,,,,,,,,,,,,,,,,,,,,,,,,,,,,,,,,,,,,,,,,,,,,,,,,,
,,697dce14b3e39fbdcbb7d889,2026-03-17_16h00.05.944,kallum_motion_pilot_GIST_update_2,2026.1.1,Win32,60.24096386,697dce14b3e39fbdcbb7d889,69b92ab4aef6dee357cd729a,69b92cf896dd62050d8eb1af,0.0586,0.0586,1,39,201,39,1,fourthree,,,,,,,,,,,,,,,,,,,,,,,,,,,,,,,,,,,,,,,,,,,,,,,,,,,,,,,,,,,,,,,,,,,,,,,,,,,,,,,,,,,,,,,,,,,,,,,,,,,,,,,,,,,,,,,,,,,,,,,,,,,,,,,,,,,,,,,,,
,,697dce14b3e39fbdcbb7d889,2026-03-17_16h00.05.944,kallum_motion_pilot_GIST_update_2,2026.1.1,Win32,60.24096386,697dce14b3e39fbdcbb7d889,69b92ab4aef6dee357cd729a,69b92cf896dd62050d8eb1af,0.0588,0.0588,1,40,202,35,1,twofour,,,,,,,,,,,,,,,,,,,,,,,,,,,,,,,,,,,,,,,,,,,,,,,,,,,,,,,,,,,,,,,,,,,,,,,,,,,,,,,,,,,,,,,,,,,,,,,,,,,,,,,,,,,,,,,,,,,,,,,,,,,,,,,,,,,,,,,,,
,,697dce14b3e39fbdcbb7d889,2026-03-17_16h00.05.944,kallum_motion_pilot_GIST_update_2,2026.1.1,Win32,60.24096386,697dce14b3e39fbdcbb7d889,69b92ab4aef6dee357cd729a,69b92cf896dd62050d8eb1af,0.059,0.059,1,41,203,125,1,seveneight,,,,,,,,,,,,,,,,,,,,,,,,,,,,,,,,,,,,,,,,,,,,,,,,,,,,,,,,,,,,,,,,,,,,,,,,,,,,,,,,,,,,,,,,,,,,,,,,,,,,,,,,,,,,,,,,,,,,,,,,,,,,,,,,,,,,,,,,,
,,697dce14b3e39fbdcbb7d889,2026-03-17_16h00.05.944,kallum_motion_pilot_GIST_update_2,2026.1.1,Win32,60.24096386,697dce14b3e39fbdcbb7d889,69b92ab4aef6dee357cd729a,69b92cf896dd62050d8eb1af,0.0591,0.0591,1,42,204,99,1,sixeight,,,,,,,,,,,,,,,,,,,,,,,,,,,,,,,,,,,,,,,,,,,,,,,,,,,,,,,,,,,,,,,,,,,,,,,,,,,,,,,,,,,,,,,,,,,,,,,,,,,,,,,,,,,,,,,,,,,,,,,,,,,,,,,,,,,,,,,,,
,,697dce14b3e39fbdcbb7d889,2026-03-17_16h00.05.944,kallum_motion_pilot_GIST_update_2,2026.1.1,Win32,60.24096386,697dce14b3e39fbdcbb7d889,69b92ab4aef6dee357cd729a,69b92cf896dd62050d8eb1af,0.0592,0.0592,1,43,205,116,1,sevenfive,,,,,,,,,,,,,,,,,,,,,,,,,,,,,,,,,,,,,,,,,,,,,,,,,,,,,,,,,,,,,,,,,,,,,,,,,,,,,,,,,,,,,,,,,,,,,,,,,,,,,,,,,,,,,,,,,,,,,,,,,,,,,,,,,,,,,,,,,
,,697dce14b3e39fbdcbb7d889,2026-03-17_16h00.05.944,kallum_motion_pilot_GIST_update_2,2026.1.1,Win32,60.24096386,697dce14b3e39fbdcbb7d889,69b92ab4aef6dee357cd729a,69b92cf896dd62050d8eb1af,0.0594,0.0594,1,44,206,34,1,twoone,,,,,,,,,,,,,,,,,,,,,,,,,,,,,,,,,,,,,,,,,,,,,,,,,,,,,,,,,,,,,,,,,,,,,,,,,,,,,,,,,,,,,,,,,,,,,,,,,,,,,,,,,,,,,,,,,,,,,,,,,,,,,,,,,,,,,,,,,
,,697dce14b3e39fbdcbb7d889,2026-03-17_16h00.05.944,kallum_motion_pilot_GIST_update_2,2026.1.1,Win32,60.24096386,697dce14b3e39fbdcbb7d889,69b92ab4aef6dee357cd729a,69b92cf896dd62050d8eb1af,0.0596,0.0596,1,45,207,70,1,fourtwo,,,,,,,,,,,,,,,,,,,,,,,,,,,,,,,,,,,,,,,,,,,,,,,,,,,,,,,,,,,,,,,,,,,,,,,,,,,,,,,,,,,,,,,,,,,,,,,,,,,,,,,,,,,,,,,,,,,,,,,,,,,,,,,,,,,,,,,,,
,,697dce14b3e39fbdcbb7d889,2026-03-17_16h00.05.944,kallum_motion_pilot_GIST_update_2,2026.1.1,Win32,60.24096386,697dce14b3e39fbdcbb7d889,69b92ab4aef6dee357cd729a,69b92cf896dd62050d8eb1af,0.0597,0.0597,1,46,208,37,1,threefour,,,,,,,,,,,,,,,,,,,,,,,,,,,,,,,,,,,,,,,,,,,,,,,,,,,,,,,,,,,,,,,,,,,,,,,,,,,,,,,,,,,,,,,,,,,,,,,,,,,,,,,,,,,,,,,,,,,,,,,,,,,,,,,,,,,,,,,,,
,,697dce14b3e39fbdcbb7d889,2026-03-17_16h00.05.944,kallum_motion_pilot_GIST_update_2,2026.1.1,Win32,60.24096386,697dce14b3e39fbdcbb7d889,69b92ab4aef6dee357cd729a,69b92cf896dd62050d8eb1af,0.0598,0.0598,1,47,209,109,1,seveneight,,,,,,,,,,,,,,,,,,,,,,,,,,,,,,,,,,,,,,,,,,,,,,,,,,,,,,,,,,,,,,,,,,,,,,,,,,,,,,,,,,,,,,,,,,,,,,,,,,,,,,,,,,,,,,,,,,,,,,,,,,,,,,,,,,,,,,,,,
,,697dce14b3e39fbdcbb7d889,2026-03-17_16h00.05.944,kallum_motion_pilot_GIST_update_2,2026.1.1,Win32,60.24096386,697dce14b3e39fbdcbb7d889,69b92ab4aef6dee357cd729a,69b92cf896dd62050d8eb1af,0.06,0.06,1,48,210,51,1,twofour,,,,,,,,,,,,,,,,,,,,,,,,,,,,,,,,,,,,,,,,,,,,,,,,,,,,,,,,,,,,,,,,,,,,,,,,,,,,,,,,,,,,,,,,,,,,,,,,,,,,,,,,,,,,,,,,,,,,,,,,,,,,,,,,,,,,,,,,,
,,697dce14b3e39fbdcbb7d889,2026-03-17_16h00.05.944,kallum_motion_pilot_GIST_update_2,2026.1.1,Win32,60.24096386,697dce14b3e39fbdcbb7d889,69b92ab4aef6dee357cd729a,69b92cf896dd62050d8eb1af,0.0602,0.0602,1,49,211,42,1,twoone,,,,,,,,,,,,,,,,,,,,,,,,,,,,,,,,,,,,,,,,,,,,,,,,,,,,,,,,,,,,,,,,,,,,,,,,,,,,,,,,,,,,,,,,,,,,,,,,,,,,,,,,,,,,,,,,,,,,,,,,,,,,,,,,,,,,,,,,,
,,697dce14b3e39fbdcbb7d889,2026-03-17_16h00.05.944,kallum_motion_pilot_GIST_update_2,2026.1.1,Win32,60.24096386,697dce14b3e39fbdcbb7d889,69b92ab4aef6dee357cd729a,69b92cf896dd62050d8eb1af,0.0604,0.0604,1,50,212,87,1,eightseven,,,,,,,,,,,,,,,,,,,,,,,,,,,,,,,,,,,,,,,,,,,,,,,,,,,,,,,,,,,,,,,,,,,,,,,,,,,,,,,,,,,,,,,,,,,,,,,,,,,,,,,,,,,,,,,,,,,,,,,,,,,,,,,,,,,,,,,,,
,,697dce14b3e39fbdcbb7d889,2026-03-17_16h00.05.944,kallum_motion_pilot_GIST_update_2,2026.1.1,Win32,60.24096386,697dce14b3e39fbdcbb7d889,69b92ab4aef6dee357cd729a,69b92cf896dd62050d8eb1af,0.0605,0.0605,1,51,213,85,1,seveneight,,,,,,,,,,,,,,,,,,,,,,,,,,,,,,,,,,,,,,,,,,,,,,,,,,,,,,,,,,,,,,,,,,,,,,,,,,,,,,,,,,,,,,,,,,,,,,,,,,,,,,,,,,,,,,,,,,,,,,,,,,,,,,,,,,,,,,,,,
,,697dce14b3e39fbdcbb7d889,2026-03-17_16h00.05.944,kallum_motion_pilot_GIST_update_2,2026.1.1,Win32,60.24096386,697dce14b3e39fbdcbb7d889,69b92ab4aef6dee357cd729a,69b92cf896dd62050d8eb1af,0.0608,0.0608,1,52,214,113,1,fiveseven,,,,,,,,,,,,,,,,,,,,,,,,,,,,,,,,,,,,,,,,,,,,,,,,,,,,,,,,,,,,,,,,,,,,,,,,,,,,,,,,,,,,,,,,,,,,,,,,,,,,,,,,,,,,,,,,,,,,,,,,,,,,,,,,,,,,,,,,,
,,697dce14b3e39fbdcbb7d889,2026-03-17_16h00.05.944,kallum_motion_pilot_GIST_update_2,2026.1.1,Win32,60.24096386,697dce14b3e39fbdcbb7d889,69b92ab4aef6dee357cd729a,69b92cf896dd62050d8eb1af,0.0609,0.061,1,53,215,71,1,fourthree,,,,,,,,,,,,,,,,,,,,,,,,,,,,,,,,,,,,,,,,,,,,,,,,,,,,,,,,,,,,,,,,,,,,,,,,,,,,,,,,,,,,,,,,,,,,,,,,,,,,,,,,,,,,,,,,,,,,,,,,,,,,,,,,,,,,,,,,,
,,697dce14b3e39fbdcbb7d889,2026-03-17_16h00.05.944,kallum_motion_pilot_GIST_update_2,2026.1.1,Win32,60.24096386,697dce14b3e39fbdcbb7d889,69b92ab4aef6dee357cd729a,69b92cf896dd62050d8eb1af,0.0611,0.0611,1,54,216,48,1,onetwo,,,,,,,,,,,,,,,,,,,,,,,,,,,,,,,,,,,,,,,,,,,,,,,,,,,,,,,,,,,,,,,,,,,,,,,,,,,,,,,,,,,,,,,,,,,,,,,,,,,,,,,,,,,,,,,,,,,,,,,,,,,,,,,,,,,,,,,,,
,,697dce14b3e39fbdcbb7d889,2026-03-17_16h00.05.944,kallum_motion_pilot_GIST_update_2,2026.1.1,Win32,60.24096386,697dce14b3e39fbdcbb7d889,69b92ab4aef6dee357cd729a,69b92cf896dd62050d8eb1af,0.0612,0.0612,1,55,217,137,1,fiveseven,,,,,,,,,,,,,,,,,,,,,,,,,,,,,,,,,,,,,,,,,,,,,,,,,,,,,,,,,,,,,,,,,,,,,,,,,,,,,,,,,,,,,,,,,,,,,,,,,,,,,,,,,,,,,,,,,,,,,,,,,,,,,,,,,,,,,,,,,
,,697dce14b3e39fbdcbb7d889,2026-03-17_16h00.05.944,kallum_motion_pilot_GIST_update_2,2026.1.1,Win32,60.24096386,697dce14b3e39fbdcbb7d889,69b92ab4aef6dee357cd729a,69b92cf896dd62050d8eb1af,0.0614,0.0614,1,56,218,55,1,fourthree,,,,,,,,,,,,,,,,,,,,,,,,,,,,,,,,,,,,,,,,,,,,,,,,,,,,,,,,,,,,,,,,,,,,,,,,,,,,,,,,,,,,,,,,,,,,,,,,,,,,,,,,,,,,,,,,,,,,,,,,,,,,,,,,,,,,,,,,,
,,697dce14b3e39fbdcbb7d889,2026-03-17_16h00.05.944,kallum_motion_pilot_GIST_update_2,2026.1.1,Win32,60.24096386,697dce14b3e39fbdcbb7d889,69b92ab4aef6dee357cd729a,69b92cf896dd62050d8eb1af,0.0615,0.0615,1,57,219,148,1,sevenfive,,,,,,,,,,,,,,,,,,,,,,,,,,,,,,,,,,,,,,,,,,,,,,,,,,,,,,,,,,,,,,,,,,,,,,,,,,,,,,,,,,,,,,,,,,,,,,,,,,,,,,,,,,,,,,,,,,,,,,,,,,,,,,,,,,,,,,,,,
,,697dce14b3e39fbdcbb7d889,2026-03-17_16h00.05.944,kallum_motion_pilot_GIST_update_2,2026.1.1,Win32,60.24096386,697dce14b3e39fbdcbb7d889,69b92ab4aef6dee357cd729a,69b92cf896dd62050d8eb1af,0.0617,0.0617,1,58,220,43,1,twofour,,,,,,,,,,,,,,,,,,,,,,,,,,,,,,,,,,,,,,,,,,,,,,,,,,,,,,,,,,,,,,,,,,,,,,,,,,,,,,,,,,,,,,,,,,,,,,,,,,,,,,,,,,,,,,,,,,,,,,,,,,,,,,,,,,,,,,,,,
,,697dce14b3e39fbdcbb7d889,2026-03-17_16h00.05.944,kallum_motion_pilot_GIST_update_2,2026.1.1,Win32,60.24096386,697dce14b3e39fbdcbb7d889,69b92ab4aef6dee357cd729a,69b92cf896dd62050d8eb1af,0.0619,0.0619,1,59,221,11,1,twofour,,,,,,,,,,,,,,,,,,,,,,,,,,,,,,,,,,,,,,,,,,,,,,,,,,,,,,,,,,,,,,,,,,,,,,,,,,,,,,,,,,,,,,,,,,,,,,,,,,,,,,,,,,,,,,,,,,,,,,,,,,,,,,,,,,,,,,,,,
,,697dce14b3e39fbdcbb7d889,2026-03-17_16h00.05.944,kallum_motion_pilot_GIST_update_2,2026.1.1,Win32,60.24096386,697dce14b3e39fbdcbb7d889,69b92ab4aef6dee357cd729a,69b92cf896dd62050d8eb1af,0.062,0.062,1,60,222,122,1,sixfive,,,,,,,,,,,,,,,,,,,,,,,,,,,,,,,,,,,,,,,,,,,,,,,,,,,,,,,,,,,,,,,,,,,,,,,,,,,,,,,,,,,,,,,,,,,,,,,,,,,,,,,,,,,,,,,,,,,,,,,,,,,,,,,,,,,,,,,,,
,,697dce14b3e39fbdcbb7d889,2026-03-17_16h00.05.944,kallum_motion_pilot_GIST_update_2,2026.1.1,Win32,60.24096386,697dce14b3e39fbdcbb7d889,69b92ab4aef6dee357cd729a,69b92cf896dd62050d8eb1af,0.0622,0.0622,1,61,223,33,1,onethree,,,,,,,,,,,,,,,,,,,,,,,,,,,,,,,,,,,,,,,,,,,,,,,,,,,,,,,,,,,,,,,,,,,,,,,,,,,,,,,,,,,,,,,,,,,,,,,,,,,,,,,,,,,,,,,,,,,,,,,,,,,,,,,,,,,,,,,,,
,,697dce14b3e39fbdcbb7d889,2026-03-17_16h00.05.944,kallum_motion_pilot_GIST_update_2,2026.1.1,Win32,60.24096386,697dce14b3e39fbdcbb7d889,69b92ab4aef6dee357cd729a,69b92cf896dd62050d8eb1af,0.0623,0.0623,1,62,224,103,1,eightseven,,,,,,,,,,,,,,,,,,,,,,,,,,,,,,,,,,,,,,,,,,,,,,,,,,,,,,,,,,,,,,,,,,,,,,,,,,,,,,,,,,,,,,,,,,,,,,,,,,,,,,,,,,,,,,,,,,,,,,,,,,,,,,,,,,,,,,,,,
,,697dce14b3e39fbdcbb7d889,2026-03-17_16h00.05.944,kallum_motion_pilot_GIST_update_2,2026.1.1,Win32,60.24096386,697dce14b3e39fbdcbb7d889,69b92ab4aef6dee357cd729a,69b92cf896dd62050d8eb1af,0.0624,0.0625,1,63,225,136,1,fivesix,,,,,,,,,,,,,,,,,,,,,,,,,,,,,,,,,,,,,,,,,,,,,,,,,,,,,,,,,,,,,,,,,,,,,,,,,,,,,,,,,,,,,,,,,,,,,,,,,,,,,,,,,,,,,,,,,,,,,,,,,,,,,,,,,,,,,,,,,
,,697dce14b3e39fbdcbb7d889,2026-03-17_16h00.05.944,kallum_motion_pilot_GIST_update_2,2026.1.1,Win32,60.24096386,697dce14b3e39fbdcbb7d889,69b92ab4aef6dee357cd729a,69b92cf896dd62050d8eb1af,0.0626,0.0627,1,64,226,98,1,sixfive,,,,,,,,,,,,,,,,,,,,,,,,,,,,,,,,,,,,,,,,,,,,,,,,,,,,,,,,,,,,,,,,,,,,,,,,,,,,,,,,,,,,,,,,,,,,,,,,,,,,,,,,,,,,,,,,,,,,,,,,,,,,,,,,,,,,,,,,,
,,697dce14b3e39fbdcbb7d889,2026-03-17_16h00.05.944,kallum_motion_pilot_GIST_update_2,2026.1.1,Win32,60.24096386,697dce14b3e39fbdcbb7d889,69b92ab4aef6dee357cd729a,69b92cf896dd62050d8eb1af,0.0628,0.0628,1,65,227,134,1,eightsix,,,,,,,,,,,,,,,,,,,,,,,,,,,,,,,,,,,,,,,,,,,,,,,,,,,,,,,,,,,,,,,,,,,,,,,,,,,,,,,,,,,,,,,,,,,,,,,,,,,,,,,,,,,,,,,,,,,,,,,,,,,,,,,,,,,,,,,,,
,,697dce14b3e39fbdcbb7d889,2026-03-17_16h00.05.944,kallum_motion_pilot_GIST_update_2,2026.1.1,Win32,60.24096386,697dce14b3e39fbdcbb7d889,69b92ab4aef6dee357cd729a,69b92cf896dd62050d8eb1af,0.063,0.063,1,66,228,29,1,threefour,,,,,,,,,,,,,,,,,,,,,,,,,,,,,,,,,,,,,,,,,,,,,,,,,,,,,,,,,,,,,,,,,,,,,,,,,,,,,,,,,,,,,,,,,,,,,,,,,,,,,,,,,,,,,,,,,,,,,,,,,,,,,,,,,,,,,,,,,
,,697dce14b3e39fbdcbb7d889,2026-03-17_16h00.05.944,kallum_motion_pilot_GIST_update_2,2026.1.1,Win32,60.24096386,697dce14b3e39fbdcbb7d889,69b92ab4aef6dee357cd729a,69b92cf896dd62050d8eb1af,0.0631,0.0631,1,67,229,19,1,twofour,,,,,,,,,,,,,,,,,,,,,,,,,,,,,,,,,,,,,,,,,,,,,,,,,,,,,,,,,,,,,,,,,,,,,,,,,,,,,,,,,,,,,,,,,,,,,,,,,,,,,,,,,,,,,,,,,,,,,,,,,,,,,,,,,,,,,,,,,
,,697dce14b3e39fbdcbb7d889,2026-03-17_16h00.05.944,kallum_motion_pilot_GIST_update_2,2026.1.1,Win32,60.24096386,697dce14b3e39fbdcbb7d889,69b92ab4aef6dee357cd729a,69b92cf896dd62050d8eb1af,0.0633,0.0633,1,68,230,27,1,twofour,,,,,,,,,,,,,,,,,,,,,,,,,,,,,,,,,,,,,,,,,,,,,,,,,,,,,,,,,,,,,,,,,,,,,,,,,,,,,,,,,,,,,,,,,,,,,,,,,,,,,,,,,,,,,,,,,,,,,,,,,,,,,,,,,,,,,,,,,
,,697dce14b3e39fbdcbb7d889,2026-03-17_16h00.05.944,kallum_motion_pilot_GIST_update_2,2026.1.1,Win32,60.24096386,697dce14b3e39fbdcbb7d889,69b92ab4aef6dee357cd729a,69b92cf896dd62050d8eb1af,0.0634,0.0634,1,69,231,68,1,threeone,,,,,,,,,,,,,,,,,,,,,,,,,,,,,,,,,,,,,,,,,,,,,,,,,,,,,,,,,,,,,,,,,,,,,,,,,,,,,,,,,,,,,,,,,,,,,,,,,,,,,,,,,,,,,,,,,,,,,,,,,,,,,,,,,,,,,,,,,
,,697dce14b3e39fbdcbb7d889,2026-03-17_16h00.05.944,kallum_motion_pilot_GIST_update_2,2026.1.1,Win32,60.24096386,697dce14b3e39fbdcbb7d889,69b92ab4aef6dee357cd729a,69b92cf896dd62050d8eb1af,0.0636,0.0636,1,70,232,79,1,eightseven,,,,,,,,,,,,,,,,,,,,,,,,,,,,,,,,,,,,,,,,,,,,,,,,,,,,,,,,,,,,,,,,,,,,,,,,,,,,,,,,,,,,,,,,,,,,,,,,,,,,,,,,,,,,,,,,,,,,,,,,,,,,,,,,,,,,,,,,,
,,697dce14b3e39fbdcbb7d889,2026-03-17_16h00.05.944,kallum_motion_pilot_GIST_update_2,2026.1.1,Win32,60.24096386,697dce14b3e39fbdcbb7d889,69b92ab4aef6dee357cd729a,69b92cf896dd62050d8eb1af,0.0638,0.0638,1,71,233,56,1,onetwo,,,,,,,,,,,,,,,,,,,,,,,,,,,,,,,,,,,,,,,,,,,,,,,,,,,,,,,,,,,,,,,,,,,,,,,,,,,,,,,,,,,,,,,,,,,,,,,,,,,,,,,,,,,,,,,,,,,,,,,,,,,,,,,,,,,,,,,,,
,,697dce14b3e39fbdcbb7d889,2026-03-17_16h00.05.944,kallum_motion_pilot_GIST_update_2,2026.1.1,Win32,60.24096386,697dce14b3e39fbdcbb7d889,69b92ab4aef6dee357cd729a,69b92cf896dd62050d8eb1af,0.0638,0.0638,1,72,234,16,1,onetwo,,,,,,,,,,,,,,,,,,,,,,,,,,,,,,,,,,,,,,,,,,,,,,,,,,,,,,,,,,,,,,,,,,,,,,,,,,,,,,,,,,,,,,,,,,,,,,,,,,,,,,,,,,,,,,,,,,,,,,,,,,,,,,,,,,,,,,,,,
,,697dce14b3e39fbdcbb7d889,2026-03-17_16h00.05.944,kallum_motion_pilot_GIST_update_2,2026.1.1,Win32,60.24096386,697dce14b3e39fbdcbb7d889,69b92ab4aef6dee357cd729a,69b92cf896dd62050d8eb1af,0.064,0.064,1,73,235,59,1,twofour,,,,,,,,,,,,,,,,,,,,,,,,,,,,,,,,,,,,,,,,,,,,,,,,,,,,,,,,,,,,,,,,,,,,,,,,,,,,,,,,,,,,,,,,,,,,,,,,,,,,,,,,,,,,,,,,,,,,,,,,,,,,,,,,,,,,,,,,,
,,697dce14b3e39fbdcbb7d889,2026-03-17_16h00.05.944,kallum_motion_pilot_GIST_update_2,2026.1.1,Win32,60.24096386,697dce14b3e39fbdcbb7d889,69b92ab4aef6dee357cd729a,69b92cf896dd62050d8eb1af,0.0642,0.0642,1,74,236,161,1,fiveseven,,,,,,,,,,,,,,,,,,,,,,,,,,,,,,,,,,,,,,,,,,,,,,,,,,,,,,,,,,,,,,,,,,,,,,,,,,,,,,,,,,,,,,,,,,,,,,,,,,,,,,,,,,,,,,,,,,,,,,,,,,,,,,,,,,,,,,,,,
,,697dce14b3e39fbdcbb7d889,2026-03-17_16h00.05.944,kallum_motion_pilot_GIST_update_2,2026.1.1,Win32,60.24096386,697dce14b3e39fbdcbb7d889,69b92ab4aef6dee357cd729a,69b92cf896dd62050d8eb1af,0.0644,0.0644,1,75,237,151,1,eightseven,,,,,,,,,,,,,,,,,,,,,,,,,,,,,,,,,,,,,,,,,,,,,,,,,,,,,,,,,,,,,,,,,,,,,,,,,,,,,,,,,,,,,,,,,,,,,,,,,,,,,,,,,,,,,,,,,,,,,,,,,,,,,,,,,,,,,,,,,
,,697dce14b3e39fbdcbb7d889,2026-03-17_16h00.05.944,kallum_motion_pilot_GIST_update_2,2026.1.1,Win32,60.24096386,697dce14b3e39fbdcbb7d889,69b92ab4aef6dee357cd729a,69b92cf896dd62050d8eb1af,0.0646,0.0646,1,76,238,41,1,onethree,,,,,,,,,,,,,,,,,,,,,,,,,,,,,,,,,,,,,,,,,,,,,,,,,,,,,,,,,,,,,,,,,,,,,,,,,,,,,,,,,,,,,,,,,,,,,,,,,,,,,,,,,,,,,,,,,,,,,,,,,,,,,,,,,,,,,,,,,
,,697dce14b3e39fbdcbb7d889,2026-03-17_16h00.05.944,kallum_motion_pilot_GIST_update_2,2026.1.1,Win32,60.24096386,697dce14b3e39fbdcbb7d889,69b92ab4aef6dee357cd729a,69b92cf896dd62050d8eb1af,0.0647,0.0647,1,77,239,3,1,twofour,,,,,,,,,,,,,,,,,,,,,,,,,,,,,,,,,,,,,,,,,,,,,,,,,,,,,,,,,,,,,,,,,,,,,,,,,,,,,,,,,,,,,,,,,,,,,,,,,,,,,,,,,,,,,,,,,,,,,,,,,,,,,,,,,,,,,,,,,
,,697dce14b3e39fbdcbb7d889,2026-03-17_16h00.05.944,kallum_motion_pilot_GIST_update_2,2026.1.1,Win32,60.24096386,697dce14b3e39fbdcbb7d889,69b92ab4aef6dee357cd729a,69b92cf896dd62050d8eb1af,0.0649,0.0649,1,78,240,83,1,sixeight,,,,,,,,,,,,,,,,,,,,,,,,,,,,,,,,,,,,,,,,,,,,,,,,,,,,,,,,,,,,,,,,,,,,,,,,,,,,,,,,,,,,,,,,,,,,,,,,,,,,,,,,,,,,,,,,,,,,,,,,,,,,,,,,,,,,,,,,,
,,697dce14b3e39fbdcbb7d889,2026-03-17_16h00.05.944,kallum_motion_pilot_GIST_update_2,2026.1.1,Win32,60.24096386,697dce14b3e39fbdcbb7d889,69b92ab4aef6dee357cd729a,69b92cf896dd62050d8eb1af,0.065,0.065,1,79,241,127,1,eightseven,,,,,,,,,,,,,,,,,,,,,,,,,,,,,,,,,,,,,,,,,,,,,,,,,,,,,,,,,,,,,,,,,,,,,,,,,,,,,,,,,,,,,,,,,,,,,,,,,,,,,,,,,,,,,,,,,,,,,,,,,,,,,,,,,,,,,,,,,
,,697dce14b3e39fbdcbb7d889,2026-03-17_16h00.05.944,kallum_motion_pilot_GIST_update_2,2026.1.1,Win32,60.24096386,697dce14b3e39fbdcbb7d889,69b92ab4aef6dee357cd729a,69b92cf896dd62050d8eb1af,0.0652,0.0652,1,80,242,24,1,onetwo,,,,,,,,,,,,,,,,,,,,,,,,,,,,,,,,,,,,,,,,,,,,,,,,,,,,,,,,,,,,,,,,,,,,,,,,,,,,,,,,,,,,,,,,,,,,,,,,,,,,,,,,,,,,,,,,,,,,,,,,,,,,,,,,,,,,,,,,,
,,697dce14b3e39fbdcbb7d889,2026-03-17_16h00.05.944,kallum_motion_pilot_GIST_update_2,2026.1.1,Win32,60.24096386,697dce14b3e39fbdcbb7d889,69b92ab4aef6dee357cd729a,69b92cf896dd62050d8eb1af,0.0654,0.0654,1,81,243,128,1,fivesix,,,,,,,,,,,,,,,,,,,,,,,,,,,,,,,,,,,,,,,,,,,,,,,,,,,,,,,,,,,,,,,,,,,,,,,,,,,,,,,,,,,,,,,,,,,,,,,,,,,,,,,,,,,,,,,,,,,,,,,,,,,,,,,,,,,,,,,,,
,,697dce14b3e39fbdcbb7d889,2026-03-17_16h00.05.944,kallum_motion_pilot_GIST_update_2,2026.1.1,Win32,60.24096386,697dce14b3e39fbdcbb7d889,69b92ab4aef6dee357cd729a,69b92cf896dd62050d8eb1af,0.0655,0.0655,1,82,244,118,1,eightsix,,,,,,,,,,,,,,,,,,,,,,,,,,,,,,,,,,,,,,,,,,,,,,,,,,,,,,,,,,,,,,,,,,,,,,,,,,,,,,,,,,,,,,,,,,,,,,,,,,,,,,,,,,,,,,,,,,,,,,,,,,,,,,,,,,,,,,,,,
,,697dce14b3e39fbdcbb7d889,2026-03-17_16h00.05.944,kallum_motion_pilot_GIST_update_2,2026.1.1,Win32,60.24096386,697dce14b3e39fbdcbb7d889,69b92ab4aef6dee357cd729a,69b92cf896dd62050d8eb1af,0.0657,0.0657,1,83,245,58,1,twoone,,,,,,,,,,,,,,,,,,,,,,,,,,,,,,,,,,,,,,,,,,,,,,,,,,,,,,,,,,,,,,,,,,,,,,,,,,,,,,,,,,,,,,,,,,,,,,,,,,,,,,,,,,,,,,,,,,,,,,,,,,,,,,,,,,,,,,,,,
,,697dce14b3e39fbdcbb7d889,2026-03-17_16h00.05.944,kallum_motion_pilot_GIST_update_2,2026.1.1,Win32,60.24096386,697dce14b3e39fbdcbb7d889,69b92ab4aef6dee357cd729a,69b92cf896dd62050d8eb1af,0.0659,0.0659,1,84,246,22,1,fourtwo,,,,,,,,,,,,,,,,,,,,,,,,,,,,,,,,,,,,,,,,,,,,,,,,,,,,,,,,,,,,,,,,,,,,,,,,,,,,,,,,,,,,,,,,,,,,,,,,,,,,,,,,,,,,,,,,,,,,,,,,,,,,,,,,,,,,,,,,,
,,697dce14b3e39fbdcbb7d889,2026-03-17_16h00.05.944,kallum_motion_pilot_GIST_update_2,2026.1.1,Win32,60.24096386,697dce14b3e39fbdcbb7d889,69b92ab4aef6dee357cd729a,69b92cf896dd62050d8eb1af,0.066,0.066,1,85,247,32,1,onetwo,,,,,,,,,,,,,,,,,,,,,,,,,,,,,,,,,,,,,,,,,,,,,,,,,,,,,,,,,,,,,,,,,,,,,,,,,,,,,,,,,,,,,,,,,,,,,,,,,,,,,,,,,,,,,,,,,,,,,,,,,,,,,,,,,,,,,,,,,
,,697dce14b3e39fbdcbb7d889,2026-03-17_16h00.05.944,kallum_motion_pilot_GIST_update_2,2026.1.1,Win32,60.24096386,697dce14b3e39fbdcbb7d889,69b92ab4aef6dee357cd729a,69b92cf896dd62050d8eb1af,0.0662,0.0662,1,86,248,142,1,eightsix,,,,,,,,,,,,,,,,,,,,,,,,,,,,,,,,,,,,,,,,,,,,,,,,,,,,,,,,,,,,,,,,,,,,,,,,,,,,,,,,,,,,,,,,,,,,,,,,,,,,,,,,,,,,,,,,,,,,,,,,,,,,,,,,,,,,,,,,,
,,697dce14b3e39fbdcbb7d889,2026-03-17_16h00.05.944,kallum_motion_pilot_GIST_update_2,2026.1.1,Win32,60.24096386,697dce14b3e39fbdcbb7d889,69b92ab4aef6dee357cd729a,69b92cf896dd62050d8eb1af,0.0664,0.0664,1,87,249,64,1,onetwo,,,,,,,,,,,,,,,,,,,,,,,,,,,,,,,,,,,,,,,,,,,,,,,,,,,,,,,,,,,,,,,,,,,,,,,,,,,,,,,,,,,,,,,,,,,,,,,,,,,,,,,,,,,,,,,,,,,,,,,,,,,,,,,,,,,,,,,,,
,,697dce14b3e39fbdcbb7d889,2026-03-17_16h00.05.944,kallum_motion_pilot_GIST_update_2,2026.1.1,Win32,60.24096386,697dce14b3e39fbdcbb7d889,69b92ab4aef6dee357cd729a,69b92cf896dd62050d8eb1af,0.0666,0.0666,1,88,250,114,1,sixfive,,,,,,,,,,,,,,,,,,,,,,,,,,,,,,,,,,,,,,,,,,,,,,,,,,,,,,,,,,,,,,,,,,,,,,,,,,,,,,,,,,,,,,,,,,,,,,,,,,,,,,,,,,,,,,,,,,,,,,,,,,,,,,,,,,,,,,,,,
,,697dce14b3e39fbdcbb7d889,2026-03-17_16h00.05.944,kallum_motion_pilot_GIST_update_2,2026.1.1,Win32,60.24096386,697dce14b3e39fbdcbb7d889,69b92ab4aef6dee357cd729a,69b92cf896dd62050d8eb1af,0.0667,0.0667,1,89,251,107,1,sixeight,,,,,,,,,,,,,,,,,,,,,,,,,,,,,,,,,,,,,,,,,,,,,,,,,,,,,,,,,,,,,,,,,,,,,,,,,,,,,,,,,,,,,,,,,,,,,,,,,,,,,,,,,,,,,,,,,,,,,,,,,,,,,,,,,,,,,,,,,
,,697dce14b3e39fbdcbb7d889,2026-03-17_16h00.05.944,kallum_motion_pilot_GIST_update_2,2026.1.1,Win32,60.24096386,697dce14b3e39fbdcbb7d889,69b92ab4aef6dee357cd729a,69b92cf896dd62050d8eb1af,0.0668,0.0668,1,90,252,117,1,seveneight,,,,,,,,,,,,,,,,,,,,,,,,,,,,,,,,,,,,,,,,,,,,,,,,,,,,,,,,,,,,,,,,,,,,,,,,,,,,,,,,,,,,,,,,,,,,,,,,,,,,,,,,,,,,,,,,,,,,,,,,,,,,,,,,,,,,,,,,,
,,697dce14b3e39fbdcbb7d889,2026-03-17_16h00.05.944,kallum_motion_pilot_GIST_update_2,2026.1.1,Win32,60.24096386,697dce14b3e39fbdcbb7d889,69b92ab4aef6dee357cd729a,69b92cf896dd62050d8eb1af,0.067,0.067,1,91,253,81,1,fiveseven,,,,,,,,,,,,,,,,,,,,,,,,,,,,,,,,,,,,,,,,,,,,,,,,,,,,,,,,,,,,,,,,,,,,,,,,,,,,,,,,,,,,,,,,,,,,,,,,,,,,,,,,,,,,,,,,,,,,,,,,,,,,,,,,,,,,,,,,,
,,697dce14b3e39fbdcbb7d889,2026-03-17_16h00.05.944,kallum_motion_pilot_GIST_update_2,2026.1.1,Win32,60.24096386,697dce14b3e39fbdcbb7d889,69b92ab4aef6dee357cd729a,69b92cf896dd62050d8eb1af,0.0672,0.0673,1,92,254,23,1,fourthree,,,,,,,,,,,,,,,,,,,,,,,,,,,,,,,,,,,,,,,,,,,,,,,,,,,,,,,,,,,,,,,,,,,,,,,,,,,,,,,,,,,,,,,,,,,,,,,,,,,,,,,,,,,,,,,,,,,,,,,,,,,,,,,,,,,,,,,,,
,,697dce14b3e39fbdcbb7d889,2026-03-17_16h00.05.944,kallum_motion_pilot_GIST_update_2,2026.1.1,Win32,60.24096386,697dce14b3e39fbdcbb7d889,69b92ab4aef6dee357cd729a,69b92cf896dd62050d8eb1af,0.0675,0.0675,1,93,255,2,1,twoone,,,,,,,,,,,,,,,,,,,,,,,,,,,,,,,,,,,,,,,,,,,,,,,,,,,,,,,,,,,,,,,,,,,,,,,,,,,,,,,,,,,,,,,,,,,,,,,,,,,,,,,,,,,,,,,,,,,,,,,,,,,,,,,,,,,,,,,,,
,,697dce14b3e39fbdcbb7d889,2026-03-17_16h00.05.944,kallum_motion_pilot_GIST_update_2,2026.1.1,Win32,60.24096386,697dce14b3e39fbdcbb7d889,69b92ab4aef6dee357cd729a,69b92cf896dd62050d8eb1af,0.0677,0.0677,1,94,256,75,1,twofour,,,,,,,,,,,,,,,,,,,,,,,,,,,,,,,,,,,,,,,,,,,,,,,,,,,,,,,,,,,,,,,,,,,,,,,,,,,,,,,,,,,,,,,,,,,,,,,,,,,,,,,,,,,,,,,,,,,,,,,,,,,,,,,,,,,,,,,,,
,,697dce14b3e39fbdcbb7d889,2026-03-17_16h00.05.944,kallum_motion_pilot_GIST_update_2,2026.1.1,Win32,60.24096386,697dce14b3e39fbdcbb7d889,69b92ab4aef6dee357cd729a,69b92cf896dd62050d8eb1af,0.0678,0.0678,1,95,257,139,1,sixeight,,,,,,,,,,,,,,,,,,,,,,,,,,,,,,,,,,,,,,,,,,,,,,,,,,,,,,,,,,,,,,,,,,,,,,,,,,,,,,,,,,,,,,,,,,,,,,,,,,,,,,,,,,,,,,,,,,,,,,,,,,,,,,,,,,,,,,,,,
,,697dce14b3e39fbdcbb7d889,2026-03-17_16h00.05.944,kallum_motion_pilot_GIST_update_2,2026.1.1,Win32,60.24096386,697dce14b3e39fbdcbb7d889,69b92ab4aef6dee357cd729a,69b92cf896dd62050d8eb1af,0.0679,0.0679,1,96,258,65,1,onethree,,,,,,,,,,,,,,,,,,,,,,,,,,,,,,,,,,,,,,,,,,,,,,,,,,,,,,,,,,,,,,,,,,,,,,,,,,,,,,,,,,,,,,,,,,,,,,,,,,,,,,,,,,,,,,,,,,,,,,,,,,,,,,,,,,,,,,,,,
,,697dce14b3e39fbdcbb7d889,2026-03-17_16h00.05.944,kallum_motion_pilot_GIST_update_2,2026.1.1,Win32,60.24096386,697dce14b3e39fbdcbb7d889,69b92ab4aef6dee357cd729a,69b92cf896dd62050d8eb1af,0.0681,0.0682,1,97,259,46,1,fourtwo,,,,,,,,,,,,,,,,,,,,,,,,,,,,,,,,,,,,,,,,,,,,,,,,,,,,,,,,,,,,,,,,,,,,,,,,,,,,,,,,,,,,,,,,,,,,,,,,,,,,,,,,,,,,,,,,,,,,,,,,,,,,,,,,,,,,,,,,,
,,697dce14b3e39fbdcbb7d889,2026-03-17_16h00.05.944,kallum_motion_pilot_GIST_update_2,2026.1.1,Win32,60.24096386,697dce14b3e39fbdcbb7d889,69b92ab4aef6dee357cd729a,69b92cf896dd62050d8eb1af,0.0683,0.0683,1,98,260,133,1,seveneight,,,,,,,,,,,,,,,,,,,,,,,,,,,,,,,,,,,,,,,,,,,,,,,,,,,,,,,,,,,,,,,,,,,,,,,,,,,,,,,,,,,,,,,,,,,,,,,,,,,,,,,,,,,,,,,,,,,,,,,,,,,,,,,,,,,,,,,,,
,,697dce14b3e39fbdcbb7d889,2026-03-17_16h00.05.944,kallum_motion_pilot_GIST_update_2,2026.1.1,Win32,60.24096386,697dce14b3e39fbdcbb7d889,69b92ab4aef6dee357cd729a,69b92cf896dd62050d8eb1af,0.0685,0.0685,1,99,261,0,1,onetwo,,,,,,,,,,,,,,,,,,,,,,,,,,,,,,,,,,,,,,,,,,,,,,,,,,,,,,,,,,,,,,,,,,,,,,,,,,,,,,,,,,,,,,,,,,,,,,,,,,,,,,,,,,,,,,,,,,,,,,,,,,,,,,,,,,,,,,,,,
,,697dce14b3e39fbdcbb7d889,2026-03-17_16h00.05.944,kallum_motion_pilot_GIST_update_2,2026.1.1,Win32,60.24096386,697dce14b3e39fbdcbb7d889,69b92ab4aef6dee357cd729a,69b92cf896dd62050d8eb1af,0.0687,0.0687,1,100,262,140,1,sevenfive,,,,,,,,,,,,,,,,,,,,,,,,,,,,,,,,,,,,,,,,,,,,,,,,,,,,,,,,,,,,,,,,,,,,,,,,,,,,,,,,,,,,,,,,,,,,,,,,,,,,,,,,,,,,,,,,,,,,,,,,,,,,,,,,,,,,,,,,,
,,697dce14b3e39fbdcbb7d889,2026-03-17_16h00.05.944,kallum_motion_pilot_GIST_update_2,2026.1.1,Win32,60.24096386,697dce14b3e39fbdcbb7d889,69b92ab4aef6dee357cd729a,69b92cf896dd62050d8eb1af,0.0688,0.0689,1,101,263,61,1,threefour,,,,,,,,,,,,,,,,,,,,,,,,,,,,,,,,,,,,,,,,,,,,,,,,,,,,,,,,,,,,,,,,,,,,,,,,,,,,,,,,,,,,,,,,,,,,,,,,,,,,,,,,,,,,,,,,,,,,,,,,,,,,,,,,,,,,,,,,,
,,697dce14b3e39fbdcbb7d889,2026-03-17_16h00.05.944,kallum_motion_pilot_GIST_update_2,2026.1.1,Win32,60.24096386,697dce14b3e39fbdcbb7d889,69b92ab4aef6dee357cd729a,69b92cf896dd62050d8eb1af,0.069,0.069,1,102,264,45,1,threefour,,,,,,,,,,,,,,,,,,,,,,,,,,,,,,,,,,,,,,,,,,,,,,,,,,,,,,,,,,,,,,,,,,,,,,,,,,,,,,,,,,,,,,,,,,,,,,,,,,,,,,,,,,,,,,,,,,,,,,,,,,,,,,,,,,,,,,,,,
,,697dce14b3e39fbdcbb7d889,2026-03-17_16h00.05.944,kallum_motion_pilot_GIST_update_2,2026.1.1,Win32,60.24096386,697dce14b3e39fbdcbb7d889,69b92ab4aef6dee357cd729a,69b92cf896dd62050d8eb1af,0.0693,0.0693,1,103,265,80,1,fivesix,,,,,,,,,,,,,,,,,,,,,,,,,,,,,,,,,,,,,,,,,,,,,,,,,,,,,,,,,,,,,,,,,,,,,,,,,,,,,,,,,,,,,,,,,,,,,,,,,,,,,,,,,,,,,,,,,,,,,,,,,,,,,,,,,,,,,,,,,
,,697dce14b3e39fbdcbb7d889,2026-03-17_16h00.05.944,kallum_motion_pilot_GIST_update_2,2026.1.1,Win32,60.24096386,697dce14b3e39fbdcbb7d889,69b92ab4aef6dee357cd729a,69b92cf896dd62050d8eb1af,0.0694,0.0694,1,104,266,92,1,sevenfive,,,,,,,,,,,,,,,,,,,,,,,,,,,,,,,,,,,,,,,,,,,,,,,,,,,,,,,,,,,,,,,,,,,,,,,,,,,,,,,,,,,,,,,,,,,,,,,,,,,,,,,,,,,,,,,,,,,,,,,,,,,,,,,,,,,,,,,,,
