startup.started,startup.stopped,Prolific ID*,date,expName,psychopyVersion,OS,frameRate,participant,study_id,session,stimpositions.started,stimpositions.stopped,hardcoded_stimulus_positions.thisRepN,hardcoded_stimulus_positions.thisTrialN,hardcoded_stimulus_positions.thisN,hardcoded_stimulus_positions.thisIndex,hardcoded_stimulus_positions.ran,StimulusPos,stimorientation.started,stimorientation.stopped,prac_stimorientation_import_loop.thisRepN,prac_stimorientation_import_loop.thisTrialN,prac_stimorientation_import_loop.thisN,prac_stimorientation_import_loop.thisIndex,prac_stimorientation_import_loop.ran,Stimorientation,welcome_instr.started,welcome_instr.stopped,key_resp.keys,key_resp.rt,key_resp.duration,response_steppedout_1.started,response_steppedout_1.stopped,key_resp_20.keys,key_resp_20.rt,key_resp_20.duration,response_steppedout_2.started,response_steppedout_2.stopped,key_resp_19.keys,key_resp_19.rt,key_resp_19.duration,stim_response_instr.started,stim_response_instr.stopped,key_resp_15.keys,key_resp_15.rt,key_resp_15.duration,direction_instr_2.started,direction_instr_2.stopped,key_resp_9.keys,key_resp_9.rt,key_resp_9.duration,instr_prac.started,instr_prac.stopped,key_resp_10.keys,key_resp_10.rt,key_resp_10.duration,Stim1_display_prac.started,Stim1_display_prac.stopped,Ecc,Circle1_ori,Circle2_ori,response_prac.started,similarity,response_time,response_prac.stopped,mouse_5.x,mouse_5.y,mouse_5.leftButton,mouse_5.midButton,mouse_5.rightButton,mouse_5.clicked_name,responseprac_feedback.started,responseprac_feedback.stopped,summary2_prac.started,summary2_prac.stopped,mouse_6.x,mouse_6.y,mouse_6.leftButton,mouse_6.midButton,mouse_6.rightButton,mouse_6.clicked_name,duringprac.thisRepN,duringprac.thisTrialN,duringprac.thisN,duringprac.thisIndex,duringprac.ran,begin.started,begin.stopped,key_resp_22.keys,key_resp_22.rt,key_resp_22.duration,Stim1_display.started,Stim1_display.stopped,circle1_ori,circle2_ori,circle1_SF,circle2_SF,response.started,response.stopped,mouse.x,mouse.y,mouse.leftButton,mouse.midButton,mouse.rightButton,mouse.clicked_name,trialnumber,double_pass.thisRepN,double_pass.thisTrialN,double_pass.thisN,double_pass.thisIndex,double_pass.ran,double_pass.order,main_trial.thisRepN,main_trial.thisTrialN,main_trial.thisN,main_trial.thisIndex,main_trial.ran,main_trial.order,Trial_Counter,Catch,Frequencies,response_2.started,response_2.stopped,mouse_2.x,mouse_2.y,mouse_2.leftButton,mouse_2.midButton,mouse_2.rightButton,mouse_2.clicked_name,special_trial.started,special_trial.stopped,catch_1.started,catch_1.stopped,mouse_3.x,mouse_3.y,mouse_3.leftButton,mouse_3.midButton,mouse_3.rightButton,catchresponse,catchnumber,response_time_catch,response_sum.started,response_sum.stopped,mouse_11.x,mouse_11.y,mouse_11.leftButton,mouse_11.midButton,mouse_11.rightButton,flip_presentation_sequence_for_double_pass.started,flip_presentation_sequence_for_double_pass.stopped,goodbye.started,goodbye.stopped,key_resp_3.keys,key_resp_3.rt,key_resp_3.duration
0.0003,0.0004,698252c00e9b378ca4680643,2026-03-17_17h08.08.423,kallum_motion_pilot_GIST_update_2,2026.1.1,Win32,60.24096386,698252c00e9b378ca4680643,69b95efdef24cd8a694e89ee,69b96008ea0c9e1a42b61f17,,,,,,,,,,,,,,,,,,,,,,,,,,,,,,,,,,,,,,,,,,,,,,,,,,,,,,,,,,,,,,,,,,,,,,,,,,,,,,,,,,,,,,,,,,,,,,,,,,,,,,,,,,,,,,,,,,,,,,,,,,,,,,,,,,,,,,,,,,,,,,,,,
,,698252c00e9b378ca4680643,2026-03-17_17h08.08.423,kallum_motion_pilot_GIST_update_2,2026.1.1,Win32,60.24096386,698252c00e9b378ca4680643,69b95efdef24cd8a694e89ee,69b96008ea0c9e1a42b61f17,0.0238,0.0239,0,0,0,156,1,sevenfive,,,,,,,,,,,,,,,,,,,,,,,,,,,,,,,,,,,,,,,,,,,,,,,,,,,,,,,,,,,,,,,,,,,,,,,,,,,,,,,,,,,,,,,,,,,,,,,,,,,,,,,,,,,,,,,,,,,,,,,,,,,,,,,,,,,,,,,,,
,,698252c00e9b378ca4680643,2026-03-17_17h08.08.423,kallum_motion_pilot_GIST_update_2,2026.1.1,Win32,60.24096386,698252c00e9b378ca4680643,69b95efdef24cd8a694e89ee,69b96008ea0c9e1a42b61f17,0.0242,0.0242,0,1,1,48,1,onetwo,,,,,,,,,,,,,,,,,,,,,,,,,,,,,,,,,,,,,,,,,,,,,,,,,,,,,,,,,,,,,,,,,,,,,,,,,,,,,,,,,,,,,,,,,,,,,,,,,,,,,,,,,,,,,,,,,,,,,,,,,,,,,,,,,,,,,,,,,
,,698252c00e9b378ca4680643,2026-03-17_17h08.08.423,kallum_motion_pilot_GIST_update_2,2026.1.1,Win32,60.24096386,698252c00e9b378ca4680643,69b95efdef24cd8a694e89ee,69b96008ea0c9e1a42b61f17,0.0243,0.0243,0,2,2,61,1,threefour,,,,,,,,,,,,,,,,,,,,,,,,,,,,,,,,,,,,,,,,,,,,,,,,,,,,,,,,,,,,,,,,,,,,,,,,,,,,,,,,,,,,,,,,,,,,,,,,,,,,,,,,,,,,,,,,,,,,,,,,,,,,,,,,,,,,,,,,,
,,698252c00e9b378ca4680643,2026-03-17_17h08.08.423,kallum_motion_pilot_GIST_update_2,2026.1.1,Win32,60.24096386,698252c00e9b378ca4680643,69b95efdef24cd8a694e89ee,69b96008ea0c9e1a42b61f17,0.0246,0.0246,0,3,3,161,1,fiveseven,,,,,,,,,,,,,,,,,,,,,,,,,,,,,,,,,,,,,,,,,,,,,,,,,,,,,,,,,,,,,,,,,,,,,,,,,,,,,,,,,,,,,,,,,,,,,,,,,,,,,,,,,,,,,,,,,,,,,,,,,,,,,,,,,,,,,,,,,
,,698252c00e9b378ca4680643,2026-03-17_17h08.08.423,kallum_motion_pilot_GIST_update_2,2026.1.1,Win32,60.24096386,698252c00e9b378ca4680643,69b95efdef24cd8a694e89ee,69b96008ea0c9e1a42b61f17,0.0247,0.0247,0,4,4,102,1,eightsix,,,,,,,,,,,,,,,,,,,,,,,,,,,,,,,,,,,,,,,,,,,,,,,,,,,,,,,,,,,,,,,,,,,,,,,,,,,,,,,,,,,,,,,,,,,,,,,,,,,,,,,,,,,,,,,,,,,,,,,,,,,,,,,,,,,,,,,,,
,,698252c00e9b378ca4680643,2026-03-17_17h08.08.423,kallum_motion_pilot_GIST_update_2,2026.1.1,Win32,60.24096386,698252c00e9b378ca4680643,69b95efdef24cd8a694e89ee,69b96008ea0c9e1a42b61f17,0.025,0.025,0,5,5,36,1,threeone,,,,,,,,,,,,,,,,,,,,,,,,,,,,,,,,,,,,,,,,,,,,,,,,,,,,,,,,,,,,,,,,,,,,,,,,,,,,,,,,,,,,,,,,,,,,,,,,,,,,,,,,,,,,,,,,,,,,,,,,,,,,,,,,,,,,,,,,,
,,698252c00e9b378ca4680643,2026-03-17_17h08.08.423,kallum_motion_pilot_GIST_update_2,2026.1.1,Win32,60.24096386,698252c00e9b378ca4680643,69b95efdef24cd8a694e89ee,69b96008ea0c9e1a42b61f17,0.0251,0.0251,0,6,6,128,1,fivesix,,,,,,,,,,,,,,,,,,,,,,,,,,,,,,,,,,,,,,,,,,,,,,,,,,,,,,,,,,,,,,,,,,,,,,,,,,,,,,,,,,,,,,,,,,,,,,,,,,,,,,,,,,,,,,,,,,,,,,,,,,,,,,,,,,,,,,,,,
,,698252c00e9b378ca4680643,2026-03-17_17h08.08.423,kallum_motion_pilot_GIST_update_2,2026.1.1,Win32,60.24096386,698252c00e9b378ca4680643,69b95efdef24cd8a694e89ee,69b96008ea0c9e1a42b61f17,0.0252,0.0252,0,7,7,124,1,sevenfive,,,,,,,,,,,,,,,,,,,,,,,,,,,,,,,,,,,,,,,,,,,,,,,,,,,,,,,,,,,,,,,,,,,,,,,,,,,,,,,,,,,,,,,,,,,,,,,,,,,,,,,,,,,,,,,,,,,,,,,,,,,,,,,,,,,,,,,,,
,,698252c00e9b378ca4680643,2026-03-17_17h08.08.423,kallum_motion_pilot_GIST_update_2,2026.1.1,Win32,60.24096386,698252c00e9b378ca4680643,69b95efdef24cd8a694e89ee,69b96008ea0c9e1a42b61f17,0.0255,0.0255,0,8,8,115,1,sixeight,,,,,,,,,,,,,,,,,,,,,,,,,,,,,,,,,,,,,,,,,,,,,,,,,,,,,,,,,,,,,,,,,,,,,,,,,,,,,,,,,,,,,,,,,,,,,,,,,,,,,,,,,,,,,,,,,,,,,,,,,,,,,,,,,,,,,,,,,
,,698252c00e9b378ca4680643,2026-03-17_17h08.08.423,kallum_motion_pilot_GIST_update_2,2026.1.1,Win32,60.24096386,698252c00e9b378ca4680643,69b95efdef24cd8a694e89ee,69b96008ea0c9e1a42b61f17,0.0258,0.0259,0,9,9,86,1,eightsix,,,,,,,,,,,,,,,,,,,,,,,,,,,,,,,,,,,,,,,,,,,,,,,,,,,,,,,,,,,,,,,,,,,,,,,,,,,,,,,,,,,,,,,,,,,,,,,,,,,,,,,,,,,,,,,,,,,,,,,,,,,,,,,,,,,,,,,,,
,,698252c00e9b378ca4680643,2026-03-17_17h08.08.423,kallum_motion_pilot_GIST_update_2,2026.1.1,Win32,60.24096386,698252c00e9b378ca4680643,69b95efdef24cd8a694e89ee,69b96008ea0c9e1a42b61f17,0.0261,0.0261,0,10,10,77,1,threefour,,,,,,,,,,,,,,,,,,,,,,,,,,,,,,,,,,,,,,,,,,,,,,,,,,,,,,,,,,,,,,,,,,,,,,,,,,,,,,,,,,,,,,,,,,,,,,,,,,,,,,,,,,,,,,,,,,,,,,,,,,,,,,,,,,,,,,,,,
,,698252c00e9b378ca4680643,2026-03-17_17h08.08.423,kallum_motion_pilot_GIST_update_2,2026.1.1,Win32,60.24096386,698252c00e9b378ca4680643,69b95efdef24cd8a694e89ee,69b96008ea0c9e1a42b61f17,0.0262,0.0262,0,11,11,29,1,threefour,,,,,,,,,,,,,,,,,,,,,,,,,,,,,,,,,,,,,,,,,,,,,,,,,,,,,,,,,,,,,,,,,,,,,,,,,,,,,,,,,,,,,,,,,,,,,,,,,,,,,,,,,,,,,,,,,,,,,,,,,,,,,,,,,,,,,,,,,
,,698252c00e9b378ca4680643,2026-03-17_17h08.08.423,kallum_motion_pilot_GIST_update_2,2026.1.1,Win32,60.24096386,698252c00e9b378ca4680643,69b95efdef24cd8a694e89ee,69b96008ea0c9e1a42b61f17,0.0265,0.0265,0,12,12,130,1,sixfive,,,,,,,,,,,,,,,,,,,,,,,,,,,,,,,,,,,,,,,,,,,,,,,,,,,,,,,,,,,,,,,,,,,,,,,,,,,,,,,,,,,,,,,,,,,,,,,,,,,,,,,,,,,,,,,,,,,,,,,,,,,,,,,,,,,,,,,,,
,,698252c00e9b378ca4680643,2026-03-17_17h08.08.423,kallum_motion_pilot_GIST_update_2,2026.1.1,Win32,60.24096386,698252c00e9b378ca4680643,69b95efdef24cd8a694e89ee,69b96008ea0c9e1a42b61f17,0.0267,0.0267,0,13,13,2,1,twoone,,,,,,,,,,,,,,,,,,,,,,,,,,,,,,,,,,,,,,,,,,,,,,,,,,,,,,,,,,,,,,,,,,,,,,,,,,,,,,,,,,,,,,,,,,,,,,,,,,,,,,,,,,,,,,,,,,,,,,,,,,,,,,,,,,,,,,,,,
,,698252c00e9b378ca4680643,2026-03-17_17h08.08.423,kallum_motion_pilot_GIST_update_2,2026.1.1,Win32,60.24096386,698252c00e9b378ca4680643,69b95efdef24cd8a694e89ee,69b96008ea0c9e1a42b61f17,0.0269,0.0269,0,14,14,3,1,twofour,,,,,,,,,,,,,,,,,,,,,,,,,,,,,,,,,,,,,,,,,,,,,,,,,,,,,,,,,,,,,,,,,,,,,,,,,,,,,,,,,,,,,,,,,,,,,,,,,,,,,,,,,,,,,,,,,,,,,,,,,,,,,,,,,,,,,,,,,
,,698252c00e9b378ca4680643,2026-03-17_17h08.08.423,kallum_motion_pilot_GIST_update_2,2026.1.1,Win32,60.24096386,698252c00e9b378ca4680643,69b95efdef24cd8a694e89ee,69b96008ea0c9e1a42b61f17,0.0269,0.0269,0,15,15,101,1,seveneight,,,,,,,,,,,,,,,,,,,,,,,,,,,,,,,,,,,,,,,,,,,,,,,,,,,,,,,,,,,,,,,,,,,,,,,,,,,,,,,,,,,,,,,,,,,,,,,,,,,,,,,,,,,,,,,,,,,,,,,,,,,,,,,,,,,,,,,,,
,,698252c00e9b378ca4680643,2026-03-17_17h08.08.423,kallum_motion_pilot_GIST_update_2,2026.1.1,Win32,60.24096386,698252c00e9b378ca4680643,69b95efdef24cd8a694e89ee,69b96008ea0c9e1a42b61f17,0.0272,0.0272,0,16,16,20,1,threeone,,,,,,,,,,,,,,,,,,,,,,,,,,,,,,,,,,,,,,,,,,,,,,,,,,,,,,,,,,,,,,,,,,,,,,,,,,,,,,,,,,,,,,,,,,,,,,,,,,,,,,,,,,,,,,,,,,,,,,,,,,,,,,,,,,,,,,,,,
,,698252c00e9b378ca4680643,2026-03-17_17h08.08.423,kallum_motion_pilot_GIST_update_2,2026.1.1,Win32,60.24096386,698252c00e9b378ca4680643,69b95efdef24cd8a694e89ee,69b96008ea0c9e1a42b61f17,0.0273,0.0273,0,17,17,142,1,eightsix,,,,,,,,,,,,,,,,,,,,,,,,,,,,,,,,,,,,,,,,,,,,,,,,,,,,,,,,,,,,,,,,,,,,,,,,,,,,,,,,,,,,,,,,,,,,,,,,,,,,,,,,,,,,,,,,,,,,,,,,,,,,,,,,,,,,,,,,,
,,698252c00e9b378ca4680643,2026-03-17_17h08.08.423,kallum_motion_pilot_GIST_update_2,2026.1.1,Win32,60.24096386,698252c00e9b378ca4680643,69b95efdef24cd8a694e89ee,69b96008ea0c9e1a42b61f17,0.0273,0.0273,0,18,18,16,1,onetwo,,,,,,,,,,,,,,,,,,,,,,,,,,,,,,,,,,,,,,,,,,,,,,,,,,,,,,,,,,,,,,,,,,,,,,,,,,,,,,,,,,,,,,,,,,,,,,,,,,,,,,,,,,,,,,,,,,,,,,,,,,,,,,,,,,,,,,,,,
,,698252c00e9b378ca4680643,2026-03-17_17h08.08.423,kallum_motion_pilot_GIST_update_2,2026.1.1,Win32,60.24096386,698252c00e9b378ca4680643,69b95efdef24cd8a694e89ee,69b96008ea0c9e1a42b61f17,0.0275,0.0275,0,19,19,131,1,sixeight,,,,,,,,,,,,,,,,,,,,,,,,,,,,,,,,,,,,,,,,,,,,,,,,,,,,,,,,,,,,,,,,,,,,,,,,,,,,,,,,,,,,,,,,,,,,,,,,,,,,,,,,,,,,,,,,,,,,,,,,,,,,,,,,,,,,,,,,,
,,698252c00e9b378ca4680643,2026-03-17_17h08.08.423,kallum_motion_pilot_GIST_update_2,2026.1.1,Win32,60.24096386,698252c00e9b378ca4680643,69b95efdef24cd8a694e89ee,69b96008ea0c9e1a42b61f17,0.0277,0.0277,0,20,20,74,1,twoone,,,,,,,,,,,,,,,,,,,,,,,,,,,,,,,,,,,,,,,,,,,,,,,,,,,,,,,,,,,,,,,,,,,,,,,,,,,,,,,,,,,,,,,,,,,,,,,,,,,,,,,,,,,,,,,,,,,,,,,,,,,,,,,,,,,,,,,,,
,,698252c00e9b378ca4680643,2026-03-17_17h08.08.423,kallum_motion_pilot_GIST_update_2,2026.1.1,Win32,60.24096386,698252c00e9b378ca4680643,69b95efdef24cd8a694e89ee,69b96008ea0c9e1a42b61f17,0.0277,0.0277,0,21,21,53,1,threefour,,,,,,,,,,,,,,,,,,,,,,,,,,,,,,,,,,,,,,,,,,,,,,,,,,,,,,,,,,,,,,,,,,,,,,,,,,,,,,,,,,,,,,,,,,,,,,,,,,,,,,,,,,,,,,,,,,,,,,,,,,,,,,,,,,,,,,,,,
,,698252c00e9b378ca4680643,2026-03-17_17h08.08.423,kallum_motion_pilot_GIST_update_2,2026.1.1,Win32,60.24096386,698252c00e9b378ca4680643,69b95efdef24cd8a694e89ee,69b96008ea0c9e1a42b61f17,0.0278,0.0278,0,22,22,7,1,fourthree,,,,,,,,,,,,,,,,,,,,,,,,,,,,,,,,,,,,,,,,,,,,,,,,,,,,,,,,,,,,,,,,,,,,,,,,,,,,,,,,,,,,,,,,,,,,,,,,,,,,,,,,,,,,,,,,,,,,,,,,,,,,,,,,,,,,,,,,,
,,698252c00e9b378ca4680643,2026-03-17_17h08.08.423,kallum_motion_pilot_GIST_update_2,2026.1.1,Win32,60.24096386,698252c00e9b378ca4680643,69b95efdef24cd8a694e89ee,69b96008ea0c9e1a42b61f17,0.0279,0.0279,0,23,23,68,1,threeone,,,,,,,,,,,,,,,,,,,,,,,,,,,,,,,,,,,,,,,,,,,,,,,,,,,,,,,,,,,,,,,,,,,,,,,,,,,,,,,,,,,,,,,,,,,,,,,,,,,,,,,,,,,,,,,,,,,,,,,,,,,,,,,,,,,,,,,,,
,,698252c00e9b378ca4680643,2026-03-17_17h08.08.423,kallum_motion_pilot_GIST_update_2,2026.1.1,Win32,60.24096386,698252c00e9b378ca4680643,69b95efdef24cd8a694e89ee,69b96008ea0c9e1a42b61f17,0.0282,0.0282,0,24,24,9,1,onethree,,,,,,,,,,,,,,,,,,,,,,,,,,,,,,,,,,,,,,,,,,,,,,,,,,,,,,,,,,,,,,,,,,,,,,,,,,,,,,,,,,,,,,,,,,,,,,,,,,,,,,,,,,,,,,,,,,,,,,,,,,,,,,,,,,,,,,,,,
,,698252c00e9b378ca4680643,2026-03-17_17h08.08.423,kallum_motion_pilot_GIST_update_2,2026.1.1,Win32,60.24096386,698252c00e9b378ca4680643,69b95efdef24cd8a694e89ee,69b96008ea0c9e1a42b61f17,0.0283,0.0284,0,25,25,6,1,fourtwo,,,,,,,,,,,,,,,,,,,,,,,,,,,,,,,,,,,,,,,,,,,,,,,,,,,,,,,,,,,,,,,,,,,,,,,,,,,,,,,,,,,,,,,,,,,,,,,,,,,,,,,,,,,,,,,,,,,,,,,,,,,,,,,,,,,,,,,,,
,,698252c00e9b378ca4680643,2026-03-17_17h08.08.423,kallum_motion_pilot_GIST_update_2,2026.1.1,Win32,60.24096386,698252c00e9b378ca4680643,69b95efdef24cd8a694e89ee,69b96008ea0c9e1a42b61f17,0.0285,0.0285,0,26,26,96,1,fivesix,,,,,,,,,,,,,,,,,,,,,,,,,,,,,,,,,,,,,,,,,,,,,,,,,,,,,,,,,,,,,,,,,,,,,,,,,,,,,,,,,,,,,,,,,,,,,,,,,,,,,,,,,,,,,,,,,,,,,,,,,,,,,,,,,,,,,,,,,
,,698252c00e9b378ca4680643,2026-03-17_17h08.08.423,kallum_motion_pilot_GIST_update_2,2026.1.1,Win32,60.24096386,698252c00e9b378ca4680643,69b95efdef24cd8a694e89ee,69b96008ea0c9e1a42b61f17,0.0287,0.0287,0,27,27,0,1,onetwo,,,,,,,,,,,,,,,,,,,,,,,,,,,,,,,,,,,,,,,,,,,,,,,,,,,,,,,,,,,,,,,,,,,,,,,,,,,,,,,,,,,,,,,,,,,,,,,,,,,,,,,,,,,,,,,,,,,,,,,,,,,,,,,,,,,,,,,,,
,,698252c00e9b378ca4680643,2026-03-17_17h08.08.423,kallum_motion_pilot_GIST_update_2,2026.1.1,Win32,60.24096386,698252c00e9b378ca4680643,69b95efdef24cd8a694e89ee,69b96008ea0c9e1a42b61f17,0.0288,0.0288,0,28,28,66,1,twoone,,,,,,,,,,,,,,,,,,,,,,,,,,,,,,,,,,,,,,,,,,,,,,,,,,,,,,,,,,,,,,,,,,,,,,,,,,,,,,,,,,,,,,,,,,,,,,,,,,,,,,,,,,,,,,,,,,,,,,,,,,,,,,,,,,,,,,,,,
,,698252c00e9b378ca4680643,2026-03-17_17h08.08.423,kallum_motion_pilot_GIST_update_2,2026.1.1,Win32,60.24096386,698252c00e9b378ca4680643,69b95efdef24cd8a694e89ee,69b96008ea0c9e1a42b61f17,0.0289,0.0289,0,29,29,33,1,onethree,,,,,,,,,,,,,,,,,,,,,,,,,,,,,,,,,,,,,,,,,,,,,,,,,,,,,,,,,,,,,,,,,,,,,,,,,,,,,,,,,,,,,,,,,,,,,,,,,,,,,,,,,,,,,,,,,,,,,,,,,,,,,,,,,,,,,,,,,
,,698252c00e9b378ca4680643,2026-03-17_17h08.08.423,kallum_motion_pilot_GIST_update_2,2026.1.1,Win32,60.24096386,698252c00e9b378ca4680643,69b95efdef24cd8a694e89ee,69b96008ea0c9e1a42b61f17,0.029,0.029,0,30,30,26,1,twoone,,,,,,,,,,,,,,,,,,,,,,,,,,,,,,,,,,,,,,,,,,,,,,,,,,,,,,,,,,,,,,,,,,,,,,,,,,,,,,,,,,,,,,,,,,,,,,,,,,,,,,,,,,,,,,,,,,,,,,,,,,,,,,,,,,,,,,,,,
,,698252c00e9b378ca4680643,2026-03-17_17h08.08.423,kallum_motion_pilot_GIST_update_2,2026.1.1,Win32,60.24096386,698252c00e9b378ca4680643,69b95efdef24cd8a694e89ee,69b96008ea0c9e1a42b61f17,0.0292,0.0292,0,31,31,103,1,eightseven,,,,,,,,,,,,,,,,,,,,,,,,,,,,,,,,,,,,,,,,,,,,,,,,,,,,,,,,,,,,,,,,,,,,,,,,,,,,,,,,,,,,,,,,,,,,,,,,,,,,,,,,,,,,,,,,,,,,,,,,,,,,,,,,,,,,,,,,,
,,698252c00e9b378ca4680643,2026-03-17_17h08.08.423,kallum_motion_pilot_GIST_update_2,2026.1.1,Win32,60.24096386,698252c00e9b378ca4680643,69b95efdef24cd8a694e89ee,69b96008ea0c9e1a42b61f17,0.0293,0.0293,0,32,32,21,1,threefour,,,,,,,,,,,,,,,,,,,,,,,,,,,,,,,,,,,,,,,,,,,,,,,,,,,,,,,,,,,,,,,,,,,,,,,,,,,,,,,,,,,,,,,,,,,,,,,,,,,,,,,,,,,,,,,,,,,,,,,,,,,,,,,,,,,,,,,,,
,,698252c00e9b378ca4680643,2026-03-17_17h08.08.423,kallum_motion_pilot_GIST_update_2,2026.1.1,Win32,60.24096386,698252c00e9b378ca4680643,69b95efdef24cd8a694e89ee,69b96008ea0c9e1a42b61f17,0.0294,0.0294,0,33,33,5,1,threefour,,,,,,,,,,,,,,,,,,,,,,,,,,,,,,,,,,,,,,,,,,,,,,,,,,,,,,,,,,,,,,,,,,,,,,,,,,,,,,,,,,,,,,,,,,,,,,,,,,,,,,,,,,,,,,,,,,,,,,,,,,,,,,,,,,,,,,,,,
,,698252c00e9b378ca4680643,2026-03-17_17h08.08.423,kallum_motion_pilot_GIST_update_2,2026.1.1,Win32,60.24096386,698252c00e9b378ca4680643,69b95efdef24cd8a694e89ee,69b96008ea0c9e1a42b61f17,0.0295,0.0295,0,34,34,45,1,threefour,,,,,,,,,,,,,,,,,,,,,,,,,,,,,,,,,,,,,,,,,,,,,,,,,,,,,,,,,,,,,,,,,,,,,,,,,,,,,,,,,,,,,,,,,,,,,,,,,,,,,,,,,,,,,,,,,,,,,,,,,,,,,,,,,,,,,,,,,
,,698252c00e9b378ca4680643,2026-03-17_17h08.08.423,kallum_motion_pilot_GIST_update_2,2026.1.1,Win32,60.24096386,698252c00e9b378ca4680643,69b95efdef24cd8a694e89ee,69b96008ea0c9e1a42b61f17,0.0296,0.0297,0,35,35,71,1,fourthree,,,,,,,,,,,,,,,,,,,,,,,,,,,,,,,,,,,,,,,,,,,,,,,,,,,,,,,,,,,,,,,,,,,,,,,,,,,,,,,,,,,,,,,,,,,,,,,,,,,,,,,,,,,,,,,,,,,,,,,,,,,,,,,,,,,,,,,,,
,,698252c00e9b378ca4680643,2026-03-17_17h08.08.423,kallum_motion_pilot_GIST_update_2,2026.1.1,Win32,60.24096386,698252c00e9b378ca4680643,69b95efdef24cd8a694e89ee,69b96008ea0c9e1a42b61f17,0.0297,0.0297,0,36,36,125,1,seveneight,,,,,,,,,,,,,,,,,,,,,,,,,,,,,,,,,,,,,,,,,,,,,,,,,,,,,,,,,,,,,,,,,,,,,,,,,,,,,,,,,,,,,,,,,,,,,,,,,,,,,,,,,,,,,,,,,,,,,,,,,,,,,,,,,,,,,,,,,
,,698252c00e9b378ca4680643,2026-03-17_17h08.08.423,kallum_motion_pilot_GIST_update_2,2026.1.1,Win32,60.24096386,698252c00e9b378ca4680643,69b95efdef24cd8a694e89ee,69b96008ea0c9e1a42b61f17,0.0299,0.0299,0,37,37,11,1,twofour,,,,,,,,,,,,,,,,,,,,,,,,,,,,,,,,,,,,,,,,,,,,,,,,,,,,,,,,,,,,,,,,,,,,,,,,,,,,,,,,,,,,,,,,,,,,,,,,,,,,,,,,,,,,,,,,,,,,,,,,,,,,,,,,,,,,,,,,,
,,698252c00e9b378ca4680643,2026-03-17_17h08.08.423,kallum_motion_pilot_GIST_update_2,2026.1.1,Win32,60.24096386,698252c00e9b378ca4680643,69b95efdef24cd8a694e89ee,69b96008ea0c9e1a42b61f17,0.03,0.03,0,38,38,152,1,fivesix,,,,,,,,,,,,,,,,,,,,,,,,,,,,,,,,,,,,,,,,,,,,,,,,,,,,,,,,,,,,,,,,,,,,,,,,,,,,,,,,,,,,,,,,,,,,,,,,,,,,,,,,,,,,,,,,,,,,,,,,,,,,,,,,,,,,,,,,,
,,698252c00e9b378ca4680643,2026-03-17_17h08.08.423,kallum_motion_pilot_GIST_update_2,2026.1.1,Win32,60.24096386,698252c00e9b378ca4680643,69b95efdef24cd8a694e89ee,69b96008ea0c9e1a42b61f17,0.0301,0.0301,0,39,39,17,1,onethree,,,,,,,,,,,,,,,,,,,,,,,,,,,,,,,,,,,,,,,,,,,,,,,,,,,,,,,,,,,,,,,,,,,,,,,,,,,,,,,,,,,,,,,,,,,,,,,,,,,,,,,,,,,,,,,,,,,,,,,,,,,,,,,,,,,,,,,,,
,,698252c00e9b378ca4680643,2026-03-17_17h08.08.423,kallum_motion_pilot_GIST_update_2,2026.1.1,Win32,60.24096386,698252c00e9b378ca4680643,69b95efdef24cd8a694e89ee,69b96008ea0c9e1a42b61f17,0.0302,0.0302,0,40,40,85,1,seveneight,,,,,,,,,,,,,,,,,,,,,,,,,,,,,,,,,,,,,,,,,,,,,,,,,,,,,,,,,,,,,,,,,,,,,,,,,,,,,,,,,,,,,,,,,,,,,,,,,,,,,,,,,,,,,,,,,,,,,,,,,,,,,,,,,,,,,,,,,
,,698252c00e9b378ca4680643,2026-03-17_17h08.08.423,kallum_motion_pilot_GIST_update_2,2026.1.1,Win32,60.24096386,698252c00e9b378ca4680643,69b95efdef24cd8a694e89ee,69b96008ea0c9e1a42b61f17,0.0304,0.0304,0,41,41,55,1,fourthree,,,,,,,,,,,,,,,,,,,,,,,,,,,,,,,,,,,,,,,,,,,,,,,,,,,,,,,,,,,,,,,,,,,,,,,,,,,,,,,,,,,,,,,,,,,,,,,,,,,,,,,,,,,,,,,,,,,,,,,,,,,,,,,,,,,,,,,,,
,,698252c00e9b378ca4680643,2026-03-17_17h08.08.423,kallum_motion_pilot_GIST_update_2,2026.1.1,Win32,60.24096386,698252c00e9b378ca4680643,69b95efdef24cd8a694e89ee,69b96008ea0c9e1a42b61f17,0.0306,0.0306,0,42,42,18,1,twoone,,,,,,,,,,,,,,,,,,,,,,,,,,,,,,,,,,,,,,,,,,,,,,,,,,,,,,,,,,,,,,,,,,,,,,,,,,,,,,,,,,,,,,,,,,,,,,,,,,,,,,,,,,,,,,,,,,,,,,,,,,,,,,,,,,,,,,,,,
,,698252c00e9b378ca4680643,2026-03-17_17h08.08.423,kallum_motion_pilot_GIST_update_2,2026.1.1,Win32,60.24096386,698252c00e9b378ca4680643,69b95efdef24cd8a694e89ee,69b96008ea0c9e1a42b61f17,0.0306,0.0306,0,43,43,114,1,sixfive,,,,,,,,,,,,,,,,,,,,,,,,,,,,,,,,,,,,,,,,,,,,,,,,,,,,,,,,,,,,,,,,,,,,,,,,,,,,,,,,,,,,,,,,,,,,,,,,,,,,,,,,,,,,,,,,,,,,,,,,,,,,,,,,,,,,,,,,,
,,698252c00e9b378ca4680643,2026-03-17_17h08.08.423,kallum_motion_pilot_GIST_update_2,2026.1.1,Win32,60.24096386,698252c00e9b378ca4680643,69b95efdef24cd8a694e89ee,69b96008ea0c9e1a42b61f17,0.0308,0.0308,0,44,44,150,1,eightsix,,,,,,,,,,,,,,,,,,,,,,,,,,,,,,,,,,,,,,,,,,,,,,,,,,,,,,,,,,,,,,,,,,,,,,,,,,,,,,,,,,,,,,,,,,,,,,,,,,,,,,,,,,,,,,,,,,,,,,,,,,,,,,,,,,,,,,,,,
,,698252c00e9b378ca4680643,2026-03-17_17h08.08.423,kallum_motion_pilot_GIST_update_2,2026.1.1,Win32,60.24096386,698252c00e9b378ca4680643,69b95efdef24cd8a694e89ee,69b96008ea0c9e1a42b61f17,0.0309,0.0309,0,45,45,49,1,onethree,,,,,,,,,,,,,,,,,,,,,,,,,,,,,,,,,,,,,,,,,,,,,,,,,,,,,,,,,,,,,,,,,,,,,,,,,,,,,,,,,,,,,,,,,,,,,,,,,,,,,,,,,,,,,,,,,,,,,,,,,,,,,,,,,,,,,,,,,
,,698252c00e9b378ca4680643,2026-03-17_17h08.08.423,kallum_motion_pilot_GIST_update_2,2026.1.1,Win32,60.24096386,698252c00e9b378ca4680643,69b95efdef24cd8a694e89ee,69b96008ea0c9e1a42b61f17,0.0311,0.0311,0,46,46,47,1,fourthree,,,,,,,,,,,,,,,,,,,,,,,,,,,,,,,,,,,,,,,,,,,,,,,,,,,,,,,,,,,,,,,,,,,,,,,,,,,,,,,,,,,,,,,,,,,,,,,,,,,,,,,,,,,,,,,,,,,,,,,,,,,,,,,,,,,,,,,,,
,,698252c00e9b378ca4680643,2026-03-17_17h08.08.423,kallum_motion_pilot_GIST_update_2,2026.1.1,Win32,60.24096386,698252c00e9b378ca4680643,69b95efdef24cd8a694e89ee,69b96008ea0c9e1a42b61f17,0.0312,0.0312,0,47,47,70,1,fourtwo,,,,,,,,,,,,,,,,,,,,,,,,,,,,,,,,,,,,,,,,,,,,,,,,,,,,,,,,,,,,,,,,,,,,,,,,,,,,,,,,,,,,,,,,,,,,,,,,,,,,,,,,,,,,,,,,,,,,,,,,,,,,,,,,,,,,,,,,,
,,698252c00e9b378ca4680643,2026-03-17_17h08.08.423,kallum_motion_pilot_GIST_update_2,2026.1.1,Win32,60.24096386,698252c00e9b378ca4680643,69b95efdef24cd8a694e89ee,69b96008ea0c9e1a42b61f17,0.0314,0.0314,0,48,48,123,1,sixeight,,,,,,,,,,,,,,,,,,,,,,,,,,,,,,,,,,,,,,,,,,,,,,,,,,,,,,,,,,,,,,,,,,,,,,,,,,,,,,,,,,,,,,,,,,,,,,,,,,,,,,,,,,,,,,,,,,,,,,,,,,,,,,,,,,,,,,,,,
,,698252c00e9b378ca4680643,2026-03-17_17h08.08.423,kallum_motion_pilot_GIST_update_2,2026.1.1,Win32,60.24096386,698252c00e9b378ca4680643,69b95efdef24cd8a694e89ee,69b96008ea0c9e1a42b61f17,0.0315,0.0315,0,49,49,15,1,fourthree,,,,,,,,,,,,,,,,,,,,,,,,,,,,,,,,,,,,,,,,,,,,,,,,,,,,,,,,,,,,,,,,,,,,,,,,,,,,,,,,,,,,,,,,,,,,,,,,,,,,,,,,,,,,,,,,,,,,,,,,,,,,,,,,,,,,,,,,,
,,698252c00e9b378ca4680643,2026-03-17_17h08.08.423,kallum_motion_pilot_GIST_update_2,2026.1.1,Win32,60.24096386,698252c00e9b378ca4680643,69b95efdef24cd8a694e89ee,69b96008ea0c9e1a42b61f17,0.0316,0.0316,0,50,50,138,1,sixfive,,,,,,,,,,,,,,,,,,,,,,,,,,,,,,,,,,,,,,,,,,,,,,,,,,,,,,,,,,,,,,,,,,,,,,,,,,,,,,,,,,,,,,,,,,,,,,,,,,,,,,,,,,,,,,,,,,,,,,,,,,,,,,,,,,,,,,,,,
,,698252c00e9b378ca4680643,2026-03-17_17h08.08.423,kallum_motion_pilot_GIST_update_2,2026.1.1,Win32,60.24096386,698252c00e9b378ca4680643,69b95efdef24cd8a694e89ee,69b96008ea0c9e1a42b61f17,0.0319,0.0319,0,51,51,100,1,sevenfive,,,,,,,,,,,,,,,,,,,,,,,,,,,,,,,,,,,,,,,,,,,,,,,,,,,,,,,,,,,,,,,,,,,,,,,,,,,,,,,,,,,,,,,,,,,,,,,,,,,,,,,,,,,,,,,,,,,,,,,,,,,,,,,,,,,,,,,,,
,,698252c00e9b378ca4680643,2026-03-17_17h08.08.423,kallum_motion_pilot_GIST_update_2,2026.1.1,Win32,60.24096386,698252c00e9b378ca4680643,69b95efdef24cd8a694e89ee,69b96008ea0c9e1a42b61f17,0.032,0.032,0,52,52,137,1,fiveseven,,,,,,,,,,,,,,,,,,,,,,,,,,,,,,,,,,,,,,,,,,,,,,,,,,,,,,,,,,,,,,,,,,,,,,,,,,,,,,,,,,,,,,,,,,,,,,,,,,,,,,,,,,,,,,,,,,,,,,,,,,,,,,,,,,,,,,,,,
,,698252c00e9b378ca4680643,2026-03-17_17h08.08.423,kallum_motion_pilot_GIST_update_2,2026.1.1,Win32,60.24096386,698252c00e9b378ca4680643,69b95efdef24cd8a694e89ee,69b96008ea0c9e1a42b61f17,0.0322,0.0322,0,53,53,104,1,fivesix,,,,,,,,,,,,,,,,,,,,,,,,,,,,,,,,,,,,,,,,,,,,,,,,,,,,,,,,,,,,,,,,,,,,,,,,,,,,,,,,,,,,,,,,,,,,,,,,,,,,,,,,,,,,,,,,,,,,,,,,,,,,,,,,,,,,,,,,,
,,698252c00e9b378ca4680643,2026-03-17_17h08.08.423,kallum_motion_pilot_GIST_update_2,2026.1.1,Win32,60.24096386,698252c00e9b378ca4680643,69b95efdef24cd8a694e89ee,69b96008ea0c9e1a42b61f17,0.0323,0.0323,0,54,54,52,1,threeone,,,,,,,,,,,,,,,,,,,,,,,,,,,,,,,,,,,,,,,,,,,,,,,,,,,,,,,,,,,,,,,,,,,,,,,,,,,,,,,,,,,,,,,,,,,,,,,,,,,,,,,,,,,,,,,,,,,,,,,,,,,,,,,,,,,,,,,,,
,,698252c00e9b378ca4680643,2026-03-17_17h08.08.423,kallum_motion_pilot_GIST_update_2,2026.1.1,Win32,60.24096386,698252c00e9b378ca4680643,69b95efdef24cd8a694e89ee,69b96008ea0c9e1a42b61f17,0.0324,0.0324,0,55,55,22,1,fourtwo,,,,,,,,,,,,,,,,,,,,,,,,,,,,,,,,,,,,,,,,,,,,,,,,,,,,,,,,,,,,,,,,,,,,,,,,,,,,,,,,,,,,,,,,,,,,,,,,,,,,,,,,,,,,,,,,,,,,,,,,,,,,,,,,,,,,,,,,,
,,698252c00e9b378ca4680643,2026-03-17_17h08.08.423,kallum_motion_pilot_GIST_update_2,2026.1.1,Win32,60.24096386,698252c00e9b378ca4680643,69b95efdef24cd8a694e89ee,69b96008ea0c9e1a42b61f17,0.0325,0.0326,0,56,56,44,1,threeone,,,,,,,,,,,,,,,,,,,,,,,,,,,,,,,,,,,,,,,,,,,,,,,,,,,,,,,,,,,,,,,,,,,,,,,,,,,,,,,,,,,,,,,,,,,,,,,,,,,,,,,,,,,,,,,,,,,,,,,,,,,,,,,,,,,,,,,,,
,,698252c00e9b378ca4680643,2026-03-17_17h08.08.423,kallum_motion_pilot_GIST_update_2,2026.1.1,Win32,60.24096386,698252c00e9b378ca4680643,69b95efdef24cd8a694e89ee,69b96008ea0c9e1a42b61f17,0.0327,0.0327,0,57,57,141,1,seveneight,,,,,,,,,,,,,,,,,,,,,,,,,,,,,,,,,,,,,,,,,,,,,,,,,,,,,,,,,,,,,,,,,,,,,,,,,,,,,,,,,,,,,,,,,,,,,,,,,,,,,,,,,,,,,,,,,,,,,,,,,,,,,,,,,,,,,,,,,
,,698252c00e9b378ca4680643,2026-03-17_17h08.08.423,kallum_motion_pilot_GIST_update_2,2026.1.1,Win32,60.24096386,698252c00e9b378ca4680643,69b95efdef24cd8a694e89ee,69b96008ea0c9e1a42b61f17,0.0328,0.0328,0,58,58,78,1,fourtwo,,,,,,,,,,,,,,,,,,,,,,,,,,,,,,,,,,,,,,,,,,,,,,,,,,,,,,,,,,,,,,,,,,,,,,,,,,,,,,,,,,,,,,,,,,,,,,,,,,,,,,,,,,,,,,,,,,,,,,,,,,,,,,,,,,,,,,,,,
,,698252c00e9b378ca4680643,2026-03-17_17h08.08.423,kallum_motion_pilot_GIST_update_2,2026.1.1,Win32,60.24096386,698252c00e9b378ca4680643,69b95efdef24cd8a694e89ee,69b96008ea0c9e1a42b61f17,0.0329,0.0329,0,59,59,72,1,onetwo,,,,,,,,,,,,,,,,,,,,,,,,,,,,,,,,,,,,,,,,,,,,,,,,,,,,,,,,,,,,,,,,,,,,,,,,,,,,,,,,,,,,,,,,,,,,,,,,,,,,,,,,,,,,,,,,,,,,,,,,,,,,,,,,,,,,,,,,,
,,698252c00e9b378ca4680643,2026-03-17_17h08.08.423,kallum_motion_pilot_GIST_update_2,2026.1.1,Win32,60.24096386,698252c00e9b378ca4680643,69b95efdef24cd8a694e89ee,69b96008ea0c9e1a42b61f17,0.033,0.033,0,60,60,105,1,fiveseven,,,,,,,,,,,,,,,,,,,,,,,,,,,,,,,,,,,,,,,,,,,,,,,,,,,,,,,,,,,,,,,,,,,,,,,,,,,,,,,,,,,,,,,,,,,,,,,,,,,,,,,,,,,,,,,,,,,,,,,,,,,,,,,,,,,,,,,,,
,,698252c00e9b378ca4680643,2026-03-17_17h08.08.423,kallum_motion_pilot_GIST_update_2,2026.1.1,Win32,60.24096386,698252c00e9b378ca4680643,69b95efdef24cd8a694e89ee,69b96008ea0c9e1a42b61f17,0.0331,0.0331,0,61,61,63,1,fourthree,,,,,,,,,,,,,,,,,,,,,,,,,,,,,,,,,,,,,,,,,,,,,,,,,,,,,,,,,,,,,,,,,,,,,,,,,,,,,,,,,,,,,,,,,,,,,,,,,,,,,,,,,,,,,,,,,,,,,,,,,,,,,,,,,,,,,,,,,
,,698252c00e9b378ca4680643,2026-03-17_17h08.08.423,kallum_motion_pilot_GIST_update_2,2026.1.1,Win32,60.24096386,698252c00e9b378ca4680643,69b95efdef24cd8a694e89ee,69b96008ea0c9e1a42b61f17,0.0333,0.0333,0,62,62,57,1,onethree,,,,,,,,,,,,,,,,,,,,,,,,,,,,,,,,,,,,,,,,,,,,,,,,,,,,,,,,,,,,,,,,,,,,,,,,,,,,,,,,,,,,,,,,,,,,,,,,,,,,,,,,,,,,,,,,,,,,,,,,,,,,,,,,,,,,,,,,,
,,698252c00e9b378ca4680643,2026-03-17_17h08.08.423,kallum_motion_pilot_GIST_update_2,2026.1.1,Win32,60.24096386,698252c00e9b378ca4680643,69b95efdef24cd8a694e89ee,69b96008ea0c9e1a42b61f17,0.0335,0.0335,0,63,63,155,1,sixeight,,,,,,,,,,,,,,,,,,,,,,,,,,,,,,,,,,,,,,,,,,,,,,,,,,,,,,,,,,,,,,,,,,,,,,,,,,,,,,,,,,,,,,,,,,,,,,,,,,,,,,,,,,,,,,,,,,,,,,,,,,,,,,,,,,,,,,,,,
,,698252c00e9b378ca4680643,2026-03-17_17h08.08.423,kallum_motion_pilot_GIST_update_2,2026.1.1,Win32,60.24096386,698252c00e9b378ca4680643,69b95efdef24cd8a694e89ee,69b96008ea0c9e1a42b61f17,0.0337,0.0337,0,64,64,151,1,eightseven,,,,,,,,,,,,,,,,,,,,,,,,,,,,,,,,,,,,,,,,,,,,,,,,,,,,,,,,,,,,,,,,,,,,,,,,,,,,,,,,,,,,,,,,,,,,,,,,,,,,,,,,,,,,,,,,,,,,,,,,,,,,,,,,,,,,,,,,,
,,698252c00e9b378ca4680643,2026-03-17_17h08.08.423,kallum_motion_pilot_GIST_update_2,2026.1.1,Win32,60.24096386,698252c00e9b378ca4680643,69b95efdef24cd8a694e89ee,69b96008ea0c9e1a42b61f17,0.0339,0.0339,0,65,65,54,1,fourtwo,,,,,,,,,,,,,,,,,,,,,,,,,,,,,,,,,,,,,,,,,,,,,,,,,,,,,,,,,,,,,,,,,,,,,,,,,,,,,,,,,,,,,,,,,,,,,,,,,,,,,,,,,,,,,,,,,,,,,,,,,,,,,,,,,,,,,,,,,
,,698252c00e9b378ca4680643,2026-03-17_17h08.08.423,kallum_motion_pilot_GIST_update_2,2026.1.1,Win32,60.24096386,698252c00e9b378ca4680643,69b95efdef24cd8a694e89ee,69b96008ea0c9e1a42b61f17,0.0342,0.0342,0,66,66,13,1,threefour,,,,,,,,,,,,,,,,,,,,,,,,,,,,,,,,,,,,,,,,,,,,,,,,,,,,,,,,,,,,,,,,,,,,,,,,,,,,,,,,,,,,,,,,,,,,,,,,,,,,,,,,,,,,,,,,,,,,,,,,,,,,,,,,,,,,,,,,,
,,698252c00e9b378ca4680643,2026-03-17_17h08.08.423,kallum_motion_pilot_GIST_update_2,2026.1.1,Win32,60.24096386,698252c00e9b378ca4680643,69b95efdef24cd8a694e89ee,69b96008ea0c9e1a42b61f17,0.0344,0.0344,0,67,67,62,1,fourtwo,,,,,,,,,,,,,,,,,,,,,,,,,,,,,,,,,,,,,,,,,,,,,,,,,,,,,,,,,,,,,,,,,,,,,,,,,,,,,,,,,,,,,,,,,,,,,,,,,,,,,,,,,,,,,,,,,,,,,,,,,,,,,,,,,,,,,,,,,
,,698252c00e9b378ca4680643,2026-03-17_17h08.08.423,kallum_motion_pilot_GIST_update_2,2026.1.1,Win32,60.24096386,698252c00e9b378ca4680643,69b95efdef24cd8a694e89ee,69b96008ea0c9e1a42b61f17,0.0346,0.0346,0,68,68,94,1,eightsix,,,,,,,,,,,,,,,,,,,,,,,,,,,,,,,,,,,,,,,,,,,,,,,,,,,,,,,,,,,,,,,,,,,,,,,,,,,,,,,,,,,,,,,,,,,,,,,,,,,,,,,,,,,,,,,,,,,,,,,,,,,,,,,,,,,,,,,,,
,,698252c00e9b378ca4680643,2026-03-17_17h08.08.423,kallum_motion_pilot_GIST_update_2,2026.1.1,Win32,60.24096386,698252c00e9b378ca4680643,69b95efdef24cd8a694e89ee,69b96008ea0c9e1a42b61f17,0.0347,0.0347,0,69,69,118,1,eightsix,,,,,,,,,,,,,,,,,,,,,,,,,,,,,,,,,,,,,,,,,,,,,,,,,,,,,,,,,,,,,,,,,,,,,,,,,,,,,,,,,,,,,,,,,,,,,,,,,,,,,,,,,,,,,,,,,,,,,,,,,,,,,,,,,,,,,,,,,
,,698252c00e9b378ca4680643,2026-03-17_17h08.08.423,kallum_motion_pilot_GIST_update_2,2026.1.1,Win32,60.24096386,698252c00e9b378ca4680643,69b95efdef24cd8a694e89ee,69b96008ea0c9e1a42b61f17,0.0348,0.0348,0,70,70,23,1,fourthree,,,,,,,,,,,,,,,,,,,,,,,,,,,,,,,,,,,,,,,,,,,,,,,,,,,,,,,,,,,,,,,,,,,,,,,,,,,,,,,,,,,,,,,,,,,,,,,,,,,,,,,,,,,,,,,,,,,,,,,,,,,,,,,,,,,,,,,,,
,,698252c00e9b378ca4680643,2026-03-17_17h08.08.423,kallum_motion_pilot_GIST_update_2,2026.1.1,Win32,60.24096386,698252c00e9b378ca4680643,69b95efdef24cd8a694e89ee,69b96008ea0c9e1a42b61f17,0.0349,0.0349,0,71,71,111,1,eightseven,,,,,,,,,,,,,,,,,,,,,,,,,,,,,,,,,,,,,,,,,,,,,,,,,,,,,,,,,,,,,,,,,,,,,,,,,,,,,,,,,,,,,,,,,,,,,,,,,,,,,,,,,,,,,,,,,,,,,,,,,,,,,,,,,,,,,,,,,
,,698252c00e9b378ca4680643,2026-03-17_17h08.08.423,kallum_motion_pilot_GIST_update_2,2026.1.1,Win32,60.24096386,698252c00e9b378ca4680643,69b95efdef24cd8a694e89ee,69b96008ea0c9e1a42b61f17,0.0351,0.0351,0,72,72,84,1,sevenfive,,,,,,,,,,,,,,,,,,,,,,,,,,,,,,,,,,,,,,,,,,,,,,,,,,,,,,,,,,,,,,,,,,,,,,,,,,,,,,,,,,,,,,,,,,,,,,,,,,,,,,,,,,,,,,,,,,,,,,,,,,,,,,,,,,,,,,,,,
,,698252c00e9b378ca4680643,2026-03-17_17h08.08.423,kallum_motion_pilot_GIST_update_2,2026.1.1,Win32,60.24096386,698252c00e9b378ca4680643,69b95efdef24cd8a694e89ee,69b96008ea0c9e1a42b61f17,0.0353,0.0353,0,73,73,24,1,onetwo,,,,,,,,,,,,,,,,,,,,,,,,,,,,,,,,,,,,,,,,,,,,,,,,,,,,,,,,,,,,,,,,,,,,,,,,,,,,,,,,,,,,,,,,,,,,,,,,,,,,,,,,,,,,,,,,,,,,,,,,,,,,,,,,,,,,,,,,,
,,698252c00e9b378ca4680643,2026-03-17_17h08.08.423,kallum_motion_pilot_GIST_update_2,2026.1.1,Win32,60.24096386,698252c00e9b378ca4680643,69b95efdef24cd8a694e89ee,69b96008ea0c9e1a42b61f17,0.0355,0.0355,0,74,74,64,1,onetwo,,,,,,,,,,,,,,,,,,,,,,,,,,,,,,,,,,,,,,,,,,,,,,,,,,,,,,,,,,,,,,,,,,,,,,,,,,,,,,,,,,,,,,,,,,,,,,,,,,,,,,,,,,,,,,,,,,,,,,,,,,,,,,,,,,,,,,,,,
,,698252c00e9b378ca4680643,2026-03-17_17h08.08.423,kallum_motion_pilot_GIST_update_2,2026.1.1,Win32,60.24096386,698252c00e9b378ca4680643,69b95efdef24cd8a694e89ee,69b96008ea0c9e1a42b61f17,0.0357,0.0357,0,75,75,143,1,eightseven,,,,,,,,,,,,,,,,,,,,,,,,,,,,,,,,,,,,,,,,,,,,,,,,,,,,,,,,,,,,,,,,,,,,,,,,,,,,,,,,,,,,,,,,,,,,,,,,,,,,,,,,,,,,,,,,,,,,,,,,,,,,,,,,,,,,,,,,,
,,698252c00e9b378ca4680643,2026-03-17_17h08.08.423,kallum_motion_pilot_GIST_update_2,2026.1.1,Win32,60.24096386,698252c00e9b378ca4680643,69b95efdef24cd8a694e89ee,69b96008ea0c9e1a42b61f17,0.036,0.036,0,76,76,116,1,sevenfive,,,,,,,,,,,,,,,,,,,,,,,,,,,,,,,,,,,,,,,,,,,,,,,,,,,,,,,,,,,,,,,,,,,,,,,,,,,,,,,,,,,,,,,,,,,,,,,,,,,,,,,,,,,,,,,,,,,,,,,,,,,,,,,,,,,,,,,,,
,,698252c00e9b378ca4680643,2026-03-17_17h08.08.423,kallum_motion_pilot_GIST_update_2,2026.1.1,Win32,60.24096386,698252c00e9b378ca4680643,69b95efdef24cd8a694e89ee,69b96008ea0c9e1a42b61f17,0.0361,0.0361,0,77,77,99,1,sixeight,,,,,,,,,,,,,,,,,,,,,,,,,,,,,,,,,,,,,,,,,,,,,,,,,,,,,,,,,,,,,,,,,,,,,,,,,,,,,,,,,,,,,,,,,,,,,,,,,,,,,,,,,,,,,,,,,,,,,,,,,,,,,,,,,,,,,,,,,
,,698252c00e9b378ca4680643,2026-03-17_17h08.08.423,kallum_motion_pilot_GIST_update_2,2026.1.1,Win32,60.24096386,698252c00e9b378ca4680643,69b95efdef24cd8a694e89ee,69b96008ea0c9e1a42b61f17,0.0363,0.0363,0,78,78,73,1,onethree,,,,,,,,,,,,,,,,,,,,,,,,,,,,,,,,,,,,,,,,,,,,,,,,,,,,,,,,,,,,,,,,,,,,,,,,,,,,,,,,,,,,,,,,,,,,,,,,,,,,,,,,,,,,,,,,,,,,,,,,,,,,,,,,,,,,,,,,,
,,698252c00e9b378ca4680643,2026-03-17_17h08.08.423,kallum_motion_pilot_GIST_update_2,2026.1.1,Win32,60.24096386,698252c00e9b378ca4680643,69b95efdef24cd8a694e89ee,69b96008ea0c9e1a42b61f17,0.0365,0.0365,0,79,79,147,1,sixeight,,,,,,,,,,,,,,,,,,,,,,,,,,,,,,,,,,,,,,,,,,,,,,,,,,,,,,,,,,,,,,,,,,,,,,,,,,,,,,,,,,,,,,,,,,,,,,,,,,,,,,,,,,,,,,,,,,,,,,,,,,,,,,,,,,,,,,,,,
,,698252c00e9b378ca4680643,2026-03-17_17h08.08.423,kallum_motion_pilot_GIST_update_2,2026.1.1,Win32,60.24096386,698252c00e9b378ca4680643,69b95efdef24cd8a694e89ee,69b96008ea0c9e1a42b61f17,0.0366,0.0366,0,80,80,27,1,twofour,,,,,,,,,,,,,,,,,,,,,,,,,,,,,,,,,,,,,,,,,,,,,,,,,,,,,,,,,,,,,,,,,,,,,,,,,,,,,,,,,,,,,,,,,,,,,,,,,,,,,,,,,,,,,,,,,,,,,,,,,,,,,,,,,,,,,,,,,
,,698252c00e9b378ca4680643,2026-03-17_17h08.08.423,kallum_motion_pilot_GIST_update_2,2026.1.1,Win32,60.24096386,698252c00e9b378ca4680643,69b95efdef24cd8a694e89ee,69b96008ea0c9e1a42b61f17,0.0368,0.0368,0,81,81,120,1,fivesix,,,,,,,,,,,,,,,,,,,,,,,,,,,,,,,,,,,,,,,,,,,,,,,,,,,,,,,,,,,,,,,,,,,,,,,,,,,,,,,,,,,,,,,,,,,,,,,,,,,,,,,,,,,,,,,,,,,,,,,,,,,,,,,,,,,,,,,,,
,,698252c00e9b378ca4680643,2026-03-17_17h08.08.423,kallum_motion_pilot_GIST_update_2,2026.1.1,Win32,60.24096386,698252c00e9b378ca4680643,69b95efdef24cd8a694e89ee,69b96008ea0c9e1a42b61f17,0.0369,0.0369,0,82,82,135,1,eightseven,,,,,,,,,,,,,,,,,,,,,,,,,,,,,,,,,,,,,,,,,,,,,,,,,,,,,,,,,,,,,,,,,,,,,,,,,,,,,,,,,,,,,,,,,,,,,,,,,,,,,,,,,,,,,,,,,,,,,,,,,,,,,,,,,,,,,,,,,
,,698252c00e9b378ca4680643,2026-03-17_17h08.08.423,kallum_motion_pilot_GIST_update_2,2026.1.1,Win32,60.24096386,698252c00e9b378ca4680643,69b95efdef24cd8a694e89ee,69b96008ea0c9e1a42b61f17,0.037,0.037,0,83,83,37,1,threefour,,,,,,,,,,,,,,,,,,,,,,,,,,,,,,,,,,,,,,,,,,,,,,,,,,,,,,,,,,,,,,,,,,,,,,,,,,,,,,,,,,,,,,,,,,,,,,,,,,,,,,,,,,,,,,,,,,,,,,,,,,,,,,,,,,,,,,,,,
,,698252c00e9b378ca4680643,2026-03-17_17h08.08.423,kallum_motion_pilot_GIST_update_2,2026.1.1,Win32,60.24096386,698252c00e9b378ca4680643,69b95efdef24cd8a694e89ee,69b96008ea0c9e1a42b61f17,0.0373,0.0373,0,84,84,108,1,sevenfive,,,,,,,,,,,,,,,,,,,,,,,,,,,,,,,,,,,,,,,,,,,,,,,,,,,,,,,,,,,,,,,,,,,,,,,,,,,,,,,,,,,,,,,,,,,,,,,,,,,,,,,,,,,,,,,,,,,,,,,,,,,,,,,,,,,,,,,,,
,,698252c00e9b378ca4680643,2026-03-17_17h08.08.423,kallum_motion_pilot_GIST_update_2,2026.1.1,Win32,60.24096386,698252c00e9b378ca4680643,69b95efdef24cd8a694e89ee,69b96008ea0c9e1a42b61f17,0.0374,0.0374,0,85,85,40,1,onetwo,,,,,,,,,,,,,,,,,,,,,,,,,,,,,,,,,,,,,,,,,,,,,,,,,,,,,,,,,,,,,,,,,,,,,,,,,,,,,,,,,,,,,,,,,,,,,,,,,,,,,,,,,,,,,,,,,,,,,,,,,,,,,,,,,,,,,,,,,
,,698252c00e9b378ca4680643,2026-03-17_17h08.08.423,kallum_motion_pilot_GIST_update_2,2026.1.1,Win32,60.24096386,698252c00e9b378ca4680643,69b95efdef24cd8a694e89ee,69b96008ea0c9e1a42b61f17,0.0376,0.0376,0,86,86,69,1,threefour,,,,,,,,,,,,,,,,,,,,,,,,,,,,,,,,,,,,,,,,,,,,,,,,,,,,,,,,,,,,,,,,,,,,,,,,,,,,,,,,,,,,,,,,,,,,,,,,,,,,,,,,,,,,,,,,,,,,,,,,,,,,,,,,,,,,,,,,,
,,698252c00e9b378ca4680643,2026-03-17_17h08.08.423,kallum_motion_pilot_GIST_update_2,2026.1.1,Win32,60.24096386,698252c00e9b378ca4680643,69b95efdef24cd8a694e89ee,69b96008ea0c9e1a42b61f17,0.0377,0.0377,0,87,87,41,1,onethree,,,,,,,,,,,,,,,,,,,,,,,,,,,,,,,,,,,,,,,,,,,,,,,,,,,,,,,,,,,,,,,,,,,,,,,,,,,,,,,,,,,,,,,,,,,,,,,,,,,,,,,,,,,,,,,,,,,,,,,,,,,,,,,,,,,,,,,,,
,,698252c00e9b378ca4680643,2026-03-17_17h08.08.423,kallum_motion_pilot_GIST_update_2,2026.1.1,Win32,60.24096386,698252c00e9b378ca4680643,69b95efdef24cd8a694e89ee,69b96008ea0c9e1a42b61f17,0.0379,0.0379,0,88,88,140,1,sevenfive,,,,,,,,,,,,,,,,,,,,,,,,,,,,,,,,,,,,,,,,,,,,,,,,,,,,,,,,,,,,,,,,,,,,,,,,,,,,,,,,,,,,,,,,,,,,,,,,,,,,,,,,,,,,,,,,,,,,,,,,,,,,,,,,,,,,,,,,,
,,698252c00e9b378ca4680643,2026-03-17_17h08.08.423,kallum_motion_pilot_GIST_update_2,2026.1.1,Win32,60.24096386,698252c00e9b378ca4680643,69b95efdef24cd8a694e89ee,69b96008ea0c9e1a42b61f17,0.038,0.038,0,89,89,145,1,fiveseven,,,,,,,,,,,,,,,,,,,,,,,,,,,,,,,,,,,,,,,,,,,,,,,,,,,,,,,,,,,,,,,,,,,,,,,,,,,,,,,,,,,,,,,,,,,,,,,,,,,,,,,,,,,,,,,,,,,,,,,,,,,,,,,,,,,,,,,,,
,,698252c00e9b378ca4680643,2026-03-17_17h08.08.423,kallum_motion_pilot_GIST_update_2,2026.1.1,Win32,60.24096386,698252c00e9b378ca4680643,69b95efdef24cd8a694e89ee,69b96008ea0c9e1a42b61f17,0.0381,0.0381,0,90,90,43,1,twofour,,,,,,,,,,,,,,,,,,,,,,,,,,,,,,,,,,,,,,,,,,,,,,,,,,,,,,,,,,,,,,,,,,,,,,,,,,,,,,,,,,,,,,,,,,,,,,,,,,,,,,,,,,,,,,,,,,,,,,,,,,,,,,,,,,,,,,,,,
,,698252c00e9b378ca4680643,2026-03-17_17h08.08.423,kallum_motion_pilot_GIST_update_2,2026.1.1,Win32,60.24096386,698252c00e9b378ca4680643,69b95efdef24cd8a694e89ee,69b96008ea0c9e1a42b61f17,0.0382,0.0382,0,91,91,30,1,fourtwo,,,,,,,,,,,,,,,,,,,,,,,,,,,,,,,,,,,,,,,,,,,,,,,,,,,,,,,,,,,,,,,,,,,,,,,,,,,,,,,,,,,,,,,,,,,,,,,,,,,,,,,,,,,,,,,,,,,,,,,,,,,,,,,,,,,,,,,,,
,,698252c00e9b378ca4680643,2026-03-17_17h08.08.423,kallum_motion_pilot_GIST_update_2,2026.1.1,Win32,60.24096386,698252c00e9b378ca4680643,69b95efdef24cd8a694e89ee,69b96008ea0c9e1a42b61f17,0.0384,0.0384,0,92,92,60,1,threeone,,,,,,,,,,,,,,,,,,,,,,,,,,,,,,,,,,,,,,,,,,,,,,,,,,,,,,,,,,,,,,,,,,,,,,,,,,,,,,,,,,,,,,,,,,,,,,,,,,,,,,,,,,,,,,,,,,,,,,,,,,,,,,,,,,,,,,,,,
,,698252c00e9b378ca4680643,2026-03-17_17h08.08.423,kallum_motion_pilot_GIST_update_2,2026.1.1,Win32,60.24096386,698252c00e9b378ca4680643,69b95efdef24cd8a694e89ee,69b96008ea0c9e1a42b61f17,0.0385,0.0385,0,93,93,107,1,sixeight,,,,,,,,,,,,,,,,,,,,,,,,,,,,,,,,,,,,,,,,,,,,,,,,,,,,,,,,,,,,,,,,,,,,,,,,,,,,,,,,,,,,,,,,,,,,,,,,,,,,,,,,,,,,,,,,,,,,,,,,,,,,,,,,,,,,,,,,,
,,698252c00e9b378ca4680643,2026-03-17_17h08.08.423,kallum_motion_pilot_GIST_update_2,2026.1.1,Win32,60.24096386,698252c00e9b378ca4680643,69b95efdef24cd8a694e89ee,69b96008ea0c9e1a42b61f17,0.0386,0.0386,0,94,94,38,1,fourtwo,,,,,,,,,,,,,,,,,,,,,,,,,,,,,,,,,,,,,,,,,,,,,,,,,,,,,,,,,,,,,,,,,,,,,,,,,,,,,,,,,,,,,,,,,,,,,,,,,,,,,,,,,,,,,,,,,,,,,,,,,,,,,,,,,,,,,,,,,
,,698252c00e9b378ca4680643,2026-03-17_17h08.08.423,kallum_motion_pilot_GIST_update_2,2026.1.1,Win32,60.24096386,698252c00e9b378ca4680643,69b95efdef24cd8a694e89ee,69b96008ea0c9e1a42b61f17,0.0388,0.0388,0,95,95,136,1,fivesix,,,,,,,,,,,,,,,,,,,,,,,,,,,,,,,,,,,,,,,,,,,,,,,,,,,,,,,,,,,,,,,,,,,,,,,,,,,,,,,,,,,,,,,,,,,,,,,,,,,,,,,,,,,,,,,,,,,,,,,,,,,,,,,,,,,,,,,,,
,,698252c00e9b378ca4680643,2026-03-17_17h08.08.423,kallum_motion_pilot_GIST_update_2,2026.1.1,Win32,60.24096386,698252c00e9b378ca4680643,69b95efdef24cd8a694e89ee,69b96008ea0c9e1a42b61f17,0.0388,0.0388,0,96,96,65,1,onethree,,,,,,,,,,,,,,,,,,,,,,,,,,,,,,,,,,,,,,,,,,,,,,,,,,,,,,,,,,,,,,,,,,,,,,,,,,,,,,,,,,,,,,,,,,,,,,,,,,,,,,,,,,,,,,,,,,,,,,,,,,,,,,,,,,,,,,,,,
,,698252c00e9b378ca4680643,2026-03-17_17h08.08.423,kallum_motion_pilot_GIST_update_2,2026.1.1,Win32,60.24096386,698252c00e9b378ca4680643,69b95efdef24cd8a694e89ee,69b96008ea0c9e1a42b61f17,0.0391,0.0391,0,97,97,95,1,eightseven,,,,,,,,,,,,,,,,,,,,,,,,,,,,,,,,,,,,,,,,,,,,,,,,,,,,,,,,,,,,,,,,,,,,,,,,,,,,,,,,,,,,,,,,,,,,,,,,,,,,,,,,,,,,,,,,,,,,,,,,,,,,,,,,,,,,,,,,,
,,698252c00e9b378ca4680643,2026-03-17_17h08.08.423,kallum_motion_pilot_GIST_update_2,2026.1.1,Win32,60.24096386,698252c00e9b378ca4680643,69b95efdef24cd8a694e89ee,69b96008ea0c9e1a42b61f17,0.0392,0.0392,0,98,98,4,1,threeone,,,,,,,,,,,,,,,,,,,,,,,,,,,,,,,,,,,,,,,,,,,,,,,,,,,,,,,,,,,,,,,,,,,,,,,,,,,,,,,,,,,,,,,,,,,,,,,,,,,,,,,,,,,,,,,,,,,,,,,,,,,,,,,,,,,,,,,,,
,,698252c00e9b378ca4680643,2026-03-17_17h08.08.423,kallum_motion_pilot_GIST_update_2,2026.1.1,Win32,60.24096386,698252c00e9b378ca4680643,69b95efdef24cd8a694e89ee,69b96008ea0c9e1a42b61f17,0.0393,0.0394,0,99,99,92,1,sevenfive,,,,,,,,,,,,,,,,,,,,,,,,,,,,,,,,,,,,,,,,,,,,,,,,,,,,,,,,,,,,,,,,,,,,,,,,,,,,,,,,,,,,,,,,,,,,,,,,,,,,,,,,,,,,,,,,,,,,,,,,,,,,,,,,,,,,,,,,,
,,698252c00e9b378ca4680643,2026-03-17_17h08.08.423,kallum_motion_pilot_GIST_update_2,2026.1.1,Win32,60.24096386,698252c00e9b378ca4680643,69b95efdef24cd8a694e89ee,69b96008ea0c9e1a42b61f17,0.0396,0.0396,0,100,100,154,1,sixfive,,,,,,,,,,,,,,,,,,,,,,,,,,,,,,,,,,,,,,,,,,,,,,,,,,,,,,,,,,,,,,,,,,,,,,,,,,,,,,,,,,,,,,,,,,,,,,,,,,,,,,,,,,,,,,,,,,,,,,,,,,,,,,,,,,,,,,,,,
,,698252c00e9b378ca4680643,2026-03-17_17h08.08.423,kallum_motion_pilot_GIST_update_2,2026.1.1,Win32,60.24096386,698252c00e9b378ca4680643,69b95efdef24cd8a694e89ee,69b96008ea0c9e1a42b61f17,0.0397,0.0397,0,101,101,129,1,fiveseven,,,,,,,,,,,,,,,,,,,,,,,,,,,,,,,,,,,,,,,,,,,,,,,,,,,,,,,,,,,,,,,,,,,,,,,,,,,,,,,,,,,,,,,,,,,,,,,,,,,,,,,,,,,,,,,,,,,,,,,,,,,,,,,,,,,,,,,,,
,,698252c00e9b378ca4680643,2026-03-17_17h08.08.423,kallum_motion_pilot_GIST_update_2,2026.1.1,Win32,60.24096386,698252c00e9b378ca4680643,69b95efdef24cd8a694e89ee,69b96008ea0c9e1a42b61f17,0.0398,0.0399,0,102,102,122,1,sixfive,,,,,,,,,,,,,,,,,,,,,,,,,,,,,,,,,,,,,,,,,,,,,,,,,,,,,,,,,,,,,,,,,,,,,,,,,,,,,,,,,,,,,,,,,,,,,,,,,,,,,,,,,,,,,,,,,,,,,,,,,,,,,,,,,,,,,,,,,
,,698252c00e9b378ca4680643,2026-03-17_17h08.08.423,kallum_motion_pilot_GIST_update_2,2026.1.1,Win32,60.24096386,698252c00e9b378ca4680643,69b95efdef24cd8a694e89ee,69b96008ea0c9e1a42b61f17,0.0399,0.0399,0,103,103,59,1,twofour,,,,,,,,,,,,,,,,,,,,,,,,,,,,,,,,,,,,,,,,,,,,,,,,,,,,,,,,,,,,,,,,,,,,,,,,,,,,,,,,,,,,,,,,,,,,,,,,,,,,,,,,,,,,,,,,,,,,,,,,,,,,,,,,,,,,,,,,,
,,698252c00e9b378ca4680643,2026-03-17_17h08.08.423,kallum_motion_pilot_GIST_update_2,2026.1.1,Win32,60.24096386,698252c00e9b378ca4680643,69b95efdef24cd8a694e89ee,69b96008ea0c9e1a42b61f17,0.0401,0.0401,0,104,104,149,1,seveneight,,,,,,,,,,,,,,,,,,,,,,,,,,,,,,,,,,,,,,,,,,,,,,,,,,,,,,,,,,,,,,,,,,,,,,,,,,,,,,,,,,,,,,,,,,,,,,,,,,,,,,,,,,,,,,,,,,,,,,,,,,,,,,,,,,,,,,,,,
,,698252c00e9b378ca4680643,2026-03-17_17h08.08.423,kallum_motion_pilot_GIST_update_2,2026.1.1,Win32,60.24096386,698252c00e9b378ca4680643,69b95efdef24cd8a694e89ee,69b96008ea0c9e1a42b61f17,0.0403,0.0403,0,105,105,93,1,seveneight,,,,,,,,,,,,,,,,,,,,,,,,,,,,,,,,,,,,,,,,,,,,,,,,,,,,,,,,,,,,,,,,,,,,,,,,,,,,,,,,,,,,,,,,,,,,,,,,,,,,,,,,,,,,,,,,,,,,,,,,,,,,,,,,,,,,,,,,,
,,698252c00e9b378ca4680643,2026-03-17_17h08.08.423,kallum_motion_pilot_GIST_update_2,2026.1.1,Win32,60.24096386,698252c00e9b378ca4680643,69b95efdef24cd8a694e89ee,69b96008ea0c9e1a42b61f17,0.0404,0.0404,0,106,106,132,1,sevenfive,,,,,,,,,,,,,,,,,,,,,,,,,,,,,,,,,,,,,,,,,,,,,,,,,,,,,,,,,,,,,,,,,,,,,,,,,,,,,,,,,,,,,,,,,,,,,,,,,,,,,,,,,,,,,,,,,,,,,,,,,,,,,,,,,,,,,,,,,
,,698252c00e9b378ca4680643,2026-03-17_17h08.08.423,kallum_motion_pilot_GIST_update_2,2026.1.1,Win32,60.24096386,698252c00e9b378ca4680643,69b95efdef24cd8a694e89ee,69b96008ea0c9e1a42b61f17,0.0405,0.0405,0,107,107,97,1,fiveseven,,,,,,,,,,,,,,,,,,,,,,,,,,,,,,,,,,,,,,,,,,,,,,,,,,,,,,,,,,,,,,,,,,,,,,,,,,,,,,,,,,,,,,,,,,,,,,,,,,,,,,,,,,,,,,,,,,,,,,,,,,,,,,,,,,,,,,,,,
,,698252c00e9b378ca4680643,2026-03-17_17h08.08.423,kallum_motion_pilot_GIST_update_2,2026.1.1,Win32,60.24096386,698252c00e9b378ca4680643,69b95efdef24cd8a694e89ee,69b96008ea0c9e1a42b61f17,0.0406,0.0406,0,108,108,110,1,eightsix,,,,,,,,,,,,,,,,,,,,,,,,,,,,,,,,,,,,,,,,,,,,,,,,,,,,,,,,,,,,,,,,,,,,,,,,,,,,,,,,,,,,,,,,,,,,,,,,,,,,,,,,,,,,,,,,,,,,,,,,,,,,,,,,,,,,,,,,,
,,698252c00e9b378ca4680643,2026-03-17_17h08.08.423,kallum_motion_pilot_GIST_update_2,2026.1.1,Win32,60.24096386,698252c00e9b378ca4680643,69b95efdef24cd8a694e89ee,69b96008ea0c9e1a42b61f17,0.0408,0.0408,0,109,109,89,1,fiveseven,,,,,,,,,,,,,,,,,,,,,,,,,,,,,,,,,,,,,,,,,,,,,,,,,,,,,,,,,,,,,,,,,,,,,,,,,,,,,,,,,,,,,,,,,,,,,,,,,,,,,,,,,,,,,,,,,,,,,,,,,,,,,,,,,,,,,,,,,
,,698252c00e9b378ca4680643,2026-03-17_17h08.08.423,kallum_motion_pilot_GIST_update_2,2026.1.1,Win32,60.24096386,698252c00e9b378ca4680643,69b95efdef24cd8a694e89ee,69b96008ea0c9e1a42b61f17,0.0409,0.041,0,110,110,14,1,fourtwo,,,,,,,,,,,,,,,,,,,,,,,,,,,,,,,,,,,,,,,,,,,,,,,,,,,,,,,,,,,,,,,,,,,,,,,,,,,,,,,,,,,,,,,,,,,,,,,,,,,,,,,,,,,,,,,,,,,,,,,,,,,,,,,,,,,,,,,,,
,,698252c00e9b378ca4680643,2026-03-17_17h08.08.423,kallum_motion_pilot_GIST_update_2,2026.1.1,Win32,60.24096386,698252c00e9b378ca4680643,69b95efdef24cd8a694e89ee,69b96008ea0c9e1a42b61f17,0.0412,0.0412,0,111,111,12,1,threeone,,,,,,,,,,,,,,,,,,,,,,,,,,,,,,,,,,,,,,,,,,,,,,,,,,,,,,,,,,,,,,,,,,,,,,,,,,,,,,,,,,,,,,,,,,,,,,,,,,,,,,,,,,,,,,,,,,,,,,,,,,,,,,,,,,,,,,,,,
,,698252c00e9b378ca4680643,2026-03-17_17h08.08.423,kallum_motion_pilot_GIST_update_2,2026.1.1,Win32,60.24096386,698252c00e9b378ca4680643,69b95efdef24cd8a694e89ee,69b96008ea0c9e1a42b61f17,0.0413,0.0413,0,112,112,76,1,threeone,,,,,,,,,,,,,,,,,,,,,,,,,,,,,,,,,,,,,,,,,,,,,,,,,,,,,,,,,,,,,,,,,,,,,,,,,,,,,,,,,,,,,,,,,,,,,,,,,,,,,,,,,,,,,,,,,,,,,,,,,,,,,,,,,,,,,,,,,
,,698252c00e9b378ca4680643,2026-03-17_17h08.08.423,kallum_motion_pilot_GIST_update_2,2026.1.1,Win32,60.24096386,698252c00e9b378ca4680643,69b95efdef24cd8a694e89ee,69b96008ea0c9e1a42b61f17,0.0415,0.0415,0,113,113,32,1,onetwo,,,,,,,,,,,,,,,,,,,,,,,,,,,,,,,,,,,,,,,,,,,,,,,,,,,,,,,,,,,,,,,,,,,,,,,,,,,,,,,,,,,,,,,,,,,,,,,,,,,,,,,,,,,,,,,,,,,,,,,,,,,,,,,,,,,,,,,,,
,,698252c00e9b378ca4680643,2026-03-17_17h08.08.423,kallum_motion_pilot_GIST_update_2,2026.1.1,Win32,60.24096386,698252c00e9b378ca4680643,69b95efdef24cd8a694e89ee,69b96008ea0c9e1a42b61f17,0.0416,0.0416,0,114,114,35,1,twofour,,,,,,,,,,,,,,,,,,,,,,,,,,,,,,,,,,,,,,,,,,,,,,,,,,,,,,,,,,,,,,,,,,,,,,,,,,,,,,,,,,,,,,,,,,,,,,,,,,,,,,,,,,,,,,,,,,,,,,,,,,,,,,,,,,,,,,,,,
,,698252c00e9b378ca4680643,2026-03-17_17h08.08.423,kallum_motion_pilot_GIST_update_2,2026.1.1,Win32,60.24096386,698252c00e9b378ca4680643,69b95efdef24cd8a694e89ee,69b96008ea0c9e1a42b61f17,0.0417,0.0417,0,115,115,83,1,sixeight,,,,,,,,,,,,,,,,,,,,,,,,,,,,,,,,,,,,,,,,,,,,,,,,,,,,,,,,,,,,,,,,,,,,,,,,,,,,,,,,,,,,,,,,,,,,,,,,,,,,,,,,,,,,,,,,,,,,,,,,,,,,,,,,,,,,,,,,,
,,698252c00e9b378ca4680643,2026-03-17_17h08.08.423,kallum_motion_pilot_GIST_update_2,2026.1.1,Win32,60.24096386,698252c00e9b378ca4680643,69b95efdef24cd8a694e89ee,69b96008ea0c9e1a42b61f17,0.0418,0.0418,0,116,116,157,1,seveneight,,,,,,,,,,,,,,,,,,,,,,,,,,,,,,,,,,,,,,,,,,,,,,,,,,,,,,,,,,,,,,,,,,,,,,,,,,,,,,,,,,,,,,,,,,,,,,,,,,,,,,,,,,,,,,,,,,,,,,,,,,,,,,,,,,,,,,,,,
,,698252c00e9b378ca4680643,2026-03-17_17h08.08.423,kallum_motion_pilot_GIST_update_2,2026.1.1,Win32,60.24096386,698252c00e9b378ca4680643,69b95efdef24cd8a694e89ee,69b96008ea0c9e1a42b61f17,0.0419,0.0419,0,117,117,25,1,onethree,,,,,,,,,,,,,,,,,,,,,,,,,,,,,,,,,,,,,,,,,,,,,,,,,,,,,,,,,,,,,,,,,,,,,,,,,,,,,,,,,,,,,,,,,,,,,,,,,,,,,,,,,,,,,,,,,,,,,,,,,,,,,,,,,,,,,,,,,
,,698252c00e9b378ca4680643,2026-03-17_17h08.08.423,kallum_motion_pilot_GIST_update_2,2026.1.1,Win32,60.24096386,698252c00e9b378ca4680643,69b95efdef24cd8a694e89ee,69b96008ea0c9e1a42b61f17,0.0421,0.0421,0,118,118,127,1,eightseven,,,,,,,,,,,,,,,,,,,,,,,,,,,,,,,,,,,,,,,,,,,,,,,,,,,,,,,,,,,,,,,,,,,,,,,,,,,,,,,,,,,,,,,,,,,,,,,,,,,,,,,,,,,,,,,,,,,,,,,,,,,,,,,,,,,,,,,,,
,,698252c00e9b378ca4680643,2026-03-17_17h08.08.423,kallum_motion_pilot_GIST_update_2,2026.1.1,Win32,60.24096386,698252c00e9b378ca4680643,69b95efdef24cd8a694e89ee,69b96008ea0c9e1a42b61f17,0.0422,0.0422,0,119,119,56,1,onetwo,,,,,,,,,,,,,,,,,,,,,,,,,,,,,,,,,,,,,,,,,,,,,,,,,,,,,,,,,,,,,,,,,,,,,,,,,,,,,,,,,,,,,,,,,,,,,,,,,,,,,,,,,,,,,,,,,,,,,,,,,,,,,,,,,,,,,,,,,
,,698252c00e9b378ca4680643,2026-03-17_17h08.08.423,kallum_motion_pilot_GIST_update_2,2026.1.1,Win32,60.24096386,698252c00e9b378ca4680643,69b95efdef24cd8a694e89ee,69b96008ea0c9e1a42b61f17,0.0424,0.0424,0,120,120,31,1,fourthree,,,,,,,,,,,,,,,,,,,,,,,,,,,,,,,,,,,,,,,,,,,,,,,,,,,,,,,,,,,,,,,,,,,,,,,,,,,,,,,,,,,,,,,,,,,,,,,,,,,,,,,,,,,,,,,,,,,,,,,,,,,,,,,,,,,,,,,,,
,,698252c00e9b378ca4680643,2026-03-17_17h08.08.423,kallum_motion_pilot_GIST_update_2,2026.1.1,Win32,60.24096386,698252c00e9b378ca4680643,69b95efdef24cd8a694e89ee,69b96008ea0c9e1a42b61f17,0.0426,0.0426,0,121,121,87,1,eightseven,,,,,,,,,,,,,,,,,,,,,,,,,,,,,,,,,,,,,,,,,,,,,,,,,,,,,,,,,,,,,,,,,,,,,,,,,,,,,,,,,,,,,,,,,,,,,,,,,,,,,,,,,,,,,,,,,,,,,,,,,,,,,,,,,,,,,,,,,
,,698252c00e9b378ca4680643,2026-03-17_17h08.08.423,kallum_motion_pilot_GIST_update_2,2026.1.1,Win32,60.24096386,698252c00e9b378ca4680643,69b95efdef24cd8a694e89ee,69b96008ea0c9e1a42b61f17,0.0428,0.0428,0,122,122,146,1,sixfive,,,,,,,,,,,,,,,,,,,,,,,,,,,,,,,,,,,,,,,,,,,,,,,,,,,,,,,,,,,,,,,,,,,,,,,,,,,,,,,,,,,,,,,,,,,,,,,,,,,,,,,,,,,,,,,,,,,,,,,,,,,,,,,,,,,,,,,,,
,,698252c00e9b378ca4680643,2026-03-17_17h08.08.423,kallum_motion_pilot_GIST_update_2,2026.1.1,Win32,60.24096386,698252c00e9b378ca4680643,69b95efdef24cd8a694e89ee,69b96008ea0c9e1a42b61f17,0.043,0.043,0,123,123,119,1,eightseven,,,,,,,,,,,,,,,,,,,,,,,,,,,,,,,,,,,,,,,,,,,,,,,,,,,,,,,,,,,,,,,,,,,,,,,,,,,,,,,,,,,,,,,,,,,,,,,,,,,,,,,,,,,,,,,,,,,,,,,,,,,,,,,,,,,,,,,,,
,,698252c00e9b378ca4680643,2026-03-17_17h08.08.423,kallum_motion_pilot_GIST_update_2,2026.1.1,Win32,60.24096386,698252c00e9b378ca4680643,69b95efdef24cd8a694e89ee,69b96008ea0c9e1a42b61f17,0.0432,0.0432,0,124,124,134,1,eightsix,,,,,,,,,,,,,,,,,,,,,,,,,,,,,,,,,,,,,,,,,,,,,,,,,,,,,,,,,,,,,,,,,,,,,,,,,,,,,,,,,,,,,,,,,,,,,,,,,,,,,,,,,,,,,,,,,,,,,,,,,,,,,,,,,,,,,,,,,
,,698252c00e9b378ca4680643,2026-03-17_17h08.08.423,kallum_motion_pilot_GIST_update_2,2026.1.1,Win32,60.24096386,698252c00e9b378ca4680643,69b95efdef24cd8a694e89ee,69b96008ea0c9e1a42b61f17,0.0434,0.0434,0,125,125,8,1,onetwo,,,,,,,,,,,,,,,,,,,,,,,,,,,,,,,,,,,,,,,,,,,,,,,,,,,,,,,,,,,,,,,,,,,,,,,,,,,,,,,,,,,,,,,,,,,,,,,,,,,,,,,,,,,,,,,,,,,,,,,,,,,,,,,,,,,,,,,,,
,,698252c00e9b378ca4680643,2026-03-17_17h08.08.423,kallum_motion_pilot_GIST_update_2,2026.1.1,Win32,60.24096386,698252c00e9b378ca4680643,69b95efdef24cd8a694e89ee,69b96008ea0c9e1a42b61f17,0.0436,0.0436,0,126,126,91,1,sixeight,,,,,,,,,,,,,,,,,,,,,,,,,,,,,,,,,,,,,,,,,,,,,,,,,,,,,,,,,,,,,,,,,,,,,,,,,,,,,,,,,,,,,,,,,,,,,,,,,,,,,,,,,,,,,,,,,,,,,,,,,,,,,,,,,,,,,,,,,
,,698252c00e9b378ca4680643,2026-03-17_17h08.08.423,kallum_motion_pilot_GIST_update_2,2026.1.1,Win32,60.24096386,698252c00e9b378ca4680643,69b95efdef24cd8a694e89ee,69b96008ea0c9e1a42b61f17,0.0438,0.0438,0,127,127,113,1,fiveseven,,,,,,,,,,,,,,,,,,,,,,,,,,,,,,,,,,,,,,,,,,,,,,,,,,,,,,,,,,,,,,,,,,,,,,,,,,,,,,,,,,,,,,,,,,,,,,,,,,,,,,,,,,,,,,,,,,,,,,,,,,,,,,,,,,,,,,,,,
,,698252c00e9b378ca4680643,2026-03-17_17h08.08.423,kallum_motion_pilot_GIST_update_2,2026.1.1,Win32,60.24096386,698252c00e9b378ca4680643,69b95efdef24cd8a694e89ee,69b96008ea0c9e1a42b61f17,0.0439,0.0439,0,128,128,98,1,sixfive,,,,,,,,,,,,,,,,,,,,,,,,,,,,,,,,,,,,,,,,,,,,,,,,,,,,,,,,,,,,,,,,,,,,,,,,,,,,,,,,,,,,,,,,,,,,,,,,,,,,,,,,,,,,,,,,,,,,,,,,,,,,,,,,,,,,,,,,,
,,698252c00e9b378ca4680643,2026-03-17_17h08.08.423,kallum_motion_pilot_GIST_update_2,2026.1.1,Win32,60.24096386,698252c00e9b378ca4680643,69b95efdef24cd8a694e89ee,69b96008ea0c9e1a42b61f17,0.0441,0.0441,0,129,129,81,1,fiveseven,,,,,,,,,,,,,,,,,,,,,,,,,,,,,,,,,,,,,,,,,,,,,,,,,,,,,,,,,,,,,,,,,,,,,,,,,,,,,,,,,,,,,,,,,,,,,,,,,,,,,,,,,,,,,,,,,,,,,,,,,,,,,,,,,,,,,,,,,
,,698252c00e9b378ca4680643,2026-03-17_17h08.08.423,kallum_motion_pilot_GIST_update_2,2026.1.1,Win32,60.24096386,698252c00e9b378ca4680643,69b95efdef24cd8a694e89ee,69b96008ea0c9e1a42b61f17,0.0442,0.0442,0,130,130,159,1,eightseven,,,,,,,,,,,,,,,,,,,,,,,,,,,,,,,,,,,,,,,,,,,,,,,,,,,,,,,,,,,,,,,,,,,,,,,,,,,,,,,,,,,,,,,,,,,,,,,,,,,,,,,,,,,,,,,,,,,,,,,,,,,,,,,,,,,,,,,,,
,,698252c00e9b378ca4680643,2026-03-17_17h08.08.423,kallum_motion_pilot_GIST_update_2,2026.1.1,Win32,60.24096386,698252c00e9b378ca4680643,69b95efdef24cd8a694e89ee,69b96008ea0c9e1a42b61f17,0.0443,0.0443,0,131,131,46,1,fourtwo,,,,,,,,,,,,,,,,,,,,,,,,,,,,,,,,,,,,,,,,,,,,,,,,,,,,,,,,,,,,,,,,,,,,,,,,,,,,,,,,,,,,,,,,,,,,,,,,,,,,,,,,,,,,,,,,,,,,,,,,,,,,,,,,,,,,,,,,,
,,698252c00e9b378ca4680643,2026-03-17_17h08.08.423,kallum_motion_pilot_GIST_update_2,2026.1.1,Win32,60.24096386,698252c00e9b378ca4680643,69b95efdef24cd8a694e89ee,69b96008ea0c9e1a42b61f17,0.0445,0.0445,0,132,132,117,1,seveneight,,,,,,,,,,,,,,,,,,,,,,,,,,,,,,,,,,,,,,,,,,,,,,,,,,,,,,,,,,,,,,,,,,,,,,,,,,,,,,,,,,,,,,,,,,,,,,,,,,,,,,,,,,,,,,,,,,,,,,,,,,,,,,,,,,,,,,,,,
,,698252c00e9b378ca4680643,2026-03-17_17h08.08.423,kallum_motion_pilot_GIST_update_2,2026.1.1,Win32,60.24096386,698252c00e9b378ca4680643,69b95efdef24cd8a694e89ee,69b96008ea0c9e1a42b61f17,0.0447,0.0447,0,133,133,112,1,fivesix,,,,,,,,,,,,,,,,,,,,,,,,,,,,,,,,,,,,,,,,,,,,,,,,,,,,,,,,,,,,,,,,,,,,,,,,,,,,,,,,,,,,,,,,,,,,,,,,,,,,,,,,,,,,,,,,,,,,,,,,,,,,,,,,,,,,,,,,,
,,698252c00e9b378ca4680643,2026-03-17_17h08.08.423,kallum_motion_pilot_GIST_update_2,2026.1.1,Win32,60.24096386,698252c00e9b378ca4680643,69b95efdef24cd8a694e89ee,69b96008ea0c9e1a42b61f17,0.0449,0.0449,0,134,134,1,1,onethree,,,,,,,,,,,,,,,,,,,,,,,,,,,,,,,,,,,,,,,,,,,,,,,,,,,,,,,,,,,,,,,,,,,,,,,,,,,,,,,,,,,,,,,,,,,,,,,,,,,,,,,,,,,,,,,,,,,,,,,,,,,,,,,,,,,,,,,,,
,,698252c00e9b378ca4680643,2026-03-17_17h08.08.423,kallum_motion_pilot_GIST_update_2,2026.1.1,Win32,60.24096386,698252c00e9b378ca4680643,69b95efdef24cd8a694e89ee,69b96008ea0c9e1a42b61f17,0.0451,0.0451,0,135,135,160,1,fivesix,,,,,,,,,,,,,,,,,,,,,,,,,,,,,,,,,,,,,,,,,,,,,,,,,,,,,,,,,,,,,,,,,,,,,,,,,,,,,,,,,,,,,,,,,,,,,,,,,,,,,,,,,,,,,,,,,,,,,,,,,,,,,,,,,,,,,,,,,
,,698252c00e9b378ca4680643,2026-03-17_17h08.08.423,kallum_motion_pilot_GIST_update_2,2026.1.1,Win32,60.24096386,698252c00e9b378ca4680643,69b95efdef24cd8a694e89ee,69b96008ea0c9e1a42b61f17,0.0452,0.0452,0,136,136,50,1,twoone,,,,,,,,,,,,,,,,,,,,,,,,,,,,,,,,,,,,,,,,,,,,,,,,,,,,,,,,,,,,,,,,,,,,,,,,,,,,,,,,,,,,,,,,,,,,,,,,,,,,,,,,,,,,,,,,,,,,,,,,,,,,,,,,,,,,,,,,,
,,698252c00e9b378ca4680643,2026-03-17_17h08.08.423,kallum_motion_pilot_GIST_update_2,2026.1.1,Win32,60.24096386,698252c00e9b378ca4680643,69b95efdef24cd8a694e89ee,69b96008ea0c9e1a42b61f17,0.0455,0.0455,0,137,137,10,1,twoone,,,,,,,,,,,,,,,,,,,,,,,,,,,,,,,,,,,,,,,,,,,,,,,,,,,,,,,,,,,,,,,,,,,,,,,,,,,,,,,,,,,,,,,,,,,,,,,,,,,,,,,,,,,,,,,,,,,,,,,,,,,,,,,,,,,,,,,,,
,,698252c00e9b378ca4680643,2026-03-17_17h08.08.423,kallum_motion_pilot_GIST_update_2,2026.1.1,Win32,60.24096386,698252c00e9b378ca4680643,69b95efdef24cd8a694e89ee,69b96008ea0c9e1a42b61f17,0.0456,0.0456,0,138,138,58,1,twoone,,,,,,,,,,,,,,,,,,,,,,,,,,,,,,,,,,,,,,,,,,,,,,,,,,,,,,,,,,,,,,,,,,,,,,,,,,,,,,,,,,,,,,,,,,,,,,,,,,,,,,,,,,,,,,,,,,,,,,,,,,,,,,,,,,,,,,,,,
,,698252c00e9b378ca4680643,2026-03-17_17h08.08.423,kallum_motion_pilot_GIST_update_2,2026.1.1,Win32,60.24096386,698252c00e9b378ca4680643,69b95efdef24cd8a694e89ee,69b96008ea0c9e1a42b61f17,0.0459,0.0459,0,139,139,90,1,sixfive,,,,,,,,,,,,,,,,,,,,,,,,,,,,,,,,,,,,,,,,,,,,,,,,,,,,,,,,,,,,,,,,,,,,,,,,,,,,,,,,,,,,,,,,,,,,,,,,,,,,,,,,,,,,,,,,,,,,,,,,,,,,,,,,,,,,,,,,,
,,698252c00e9b378ca4680643,2026-03-17_17h08.08.423,kallum_motion_pilot_GIST_update_2,2026.1.1,Win32,60.24096386,698252c00e9b378ca4680643,69b95efdef24cd8a694e89ee,69b96008ea0c9e1a42b61f17,0.0461,0.0461,0,140,140,42,1,twoone,,,,,,,,,,,,,,,,,,,,,,,,,,,,,,,,,,,,,,,,,,,,,,,,,,,,,,,,,,,,,,,,,,,,,,,,,,,,,,,,,,,,,,,,,,,,,,,,,,,,,,,,,,,,,,,,,,,,,,,,,,,,,,,,,,,,,,,,,
,,698252c00e9b378ca4680643,2026-03-17_17h08.08.423,kallum_motion_pilot_GIST_update_2,2026.1.1,Win32,60.24096386,698252c00e9b378ca4680643,69b95efdef24cd8a694e89ee,69b96008ea0c9e1a42b61f17,0.0462,0.0462,0,141,141,39,1,fourthree,,,,,,,,,,,,,,,,,,,,,,,,,,,,,,,,,,,,,,,,,,,,,,,,,,,,,,,,,,,,,,,,,,,,,,,,,,,,,,,,,,,,,,,,,,,,,,,,,,,,,,,,,,,,,,,,,,,,,,,,,,,,,,,,,,,,,,,,,
,,698252c00e9b378ca4680643,2026-03-17_17h08.08.423,kallum_motion_pilot_GIST_update_2,2026.1.1,Win32,60.24096386,698252c00e9b378ca4680643,69b95efdef24cd8a694e89ee,69b96008ea0c9e1a42b61f17,0.0464,0.0464,0,142,142,67,1,twofour,,,,,,,,,,,,,,,,,,,,,,,,,,,,,,,,,,,,,,,,,,,,,,,,,,,,,,,,,,,,,,,,,,,,,,,,,,,,,,,,,,,,,,,,,,,,,,,,,,,,,,,,,,,,,,,,,,,,,,,,,,,,,,,,,,,,,,,,,
,,698252c00e9b378ca4680643,2026-03-17_17h08.08.423,kallum_motion_pilot_GIST_update_2,2026.1.1,Win32,60.24096386,698252c00e9b378ca4680643,69b95efdef24cd8a694e89ee,69b96008ea0c9e1a42b61f17,0.0465,0.0465,0,143,143,106,1,sixfive,,,,,,,,,,,,,,,,,,,,,,,,,,,,,,,,,,,,,,,,,,,,,,,,,,,,,,,,,,,,,,,,,,,,,,,,,,,,,,,,,,,,,,,,,,,,,,,,,,,,,,,,,,,,,,,,,,,,,,,,,,,,,,,,,,,,,,,,,
,,698252c00e9b378ca4680643,2026-03-17_17h08.08.423,kallum_motion_pilot_GIST_update_2,2026.1.1,Win32,60.24096386,698252c00e9b378ca4680643,69b95efdef24cd8a694e89ee,69b96008ea0c9e1a42b61f17,0.0476,0.0476,0,144,144,144,1,fivesix,,,,,,,,,,,,,,,,,,,,,,,,,,,,,,,,,,,,,,,,,,,,,,,,,,,,,,,,,,,,,,,,,,,,,,,,,,,,,,,,,,,,,,,,,,,,,,,,,,,,,,,,,,,,,,,,,,,,,,,,,,,,,,,,,,,,,,,,,
,,698252c00e9b378ca4680643,2026-03-17_17h08.08.423,kallum_motion_pilot_GIST_update_2,2026.1.1,Win32,60.24096386,698252c00e9b378ca4680643,69b95efdef24cd8a694e89ee,69b96008ea0c9e1a42b61f17,0.0478,0.0478,0,145,145,158,1,eightsix,,,,,,,,,,,,,,,,,,,,,,,,,,,,,,,,,,,,,,,,,,,,,,,,,,,,,,,,,,,,,,,,,,,,,,,,,,,,,,,,,,,,,,,,,,,,,,,,,,,,,,,,,,,,,,,,,,,,,,,,,,,,,,,,,,,,,,,,,
,,698252c00e9b378ca4680643,2026-03-17_17h08.08.423,kallum_motion_pilot_GIST_update_2,2026.1.1,Win32,60.24096386,698252c00e9b378ca4680643,69b95efdef24cd8a694e89ee,69b96008ea0c9e1a42b61f17,0.048,0.048,0,146,146,34,1,twoone,,,,,,,,,,,,,,,,,,,,,,,,,,,,,,,,,,,,,,,,,,,,,,,,,,,,,,,,,,,,,,,,,,,,,,,,,,,,,,,,,,,,,,,,,,,,,,,,,,,,,,,,,,,,,,,,,,,,,,,,,,,,,,,,,,,,,,,,,
,,698252c00e9b378ca4680643,2026-03-17_17h08.08.423,kallum_motion_pilot_GIST_update_2,2026.1.1,Win32,60.24096386,698252c00e9b378ca4680643,69b95efdef24cd8a694e89ee,69b96008ea0c9e1a42b61f17,0.0482,0.0482,0,147,147,79,1,eightseven,,,,,,,,,,,,,,,,,,,,,,,,,,,,,,,,,,,,,,,,,,,,,,,,,,,,,,,,,,,,,,,,,,,,,,,,,,,,,,,,,,,,,,,,,,,,,,,,,,,,,,,,,,,,,,,,,,,,,,,,,,,,,,,,,,,,,,,,,
,,698252c00e9b378ca4680643,2026-03-17_17h08.08.423,kallum_motion_pilot_GIST_update_2,2026.1.1,Win32,60.24096386,698252c00e9b378ca4680643,69b95efdef24cd8a694e89ee,69b96008ea0c9e1a42b61f17,0.0482,0.0482,0,148,148,82,1,sixfive,,,,,,,,,,,,,,,,,,,,,,,,,,,,,,,,,,,,,,,,,,,,,,,,,,,,,,,,,,,,,,,,,,,,,,,,,,,,,,,,,,,,,,,,,,,,,,,,,,,,,,,,,,,,,,,,,,,,,,,,,,,,,,,,,,,,,,,,,
,,698252c00e9b378ca4680643,2026-03-17_17h08.08.423,kallum_motion_pilot_GIST_update_2,2026.1.1,Win32,60.24096386,698252c00e9b378ca4680643,69b95efdef24cd8a694e89ee,69b96008ea0c9e1a42b61f17,0.0484,0.0484,0,149,149,121,1,fiveseven,,,,,,,,,,,,,,,,,,,,,,,,,,,,,,,,,,,,,,,,,,,,,,,,,,,,,,,,,,,,,,,,,,,,,,,,,,,,,,,,,,,,,,,,,,,,,,,,,,,,,,,,,,,,,,,,,,,,,,,,,,,,,,,,,,,,,,,,,
,,698252c00e9b378ca4680643,2026-03-17_17h08.08.423,kallum_motion_pilot_GIST_update_2,2026.1.1,Win32,60.24096386,698252c00e9b378ca4680643,69b95efdef24cd8a694e89ee,69b96008ea0c9e1a42b61f17,0.0486,0.0486,0,150,150,109,1,seveneight,,,,,,,,,,,,,,,,,,,,,,,,,,,,,,,,,,,,,,,,,,,,,,,,,,,,,,,,,,,,,,,,,,,,,,,,,,,,,,,,,,,,,,,,,,,,,,,,,,,,,,,,,,,,,,,,,,,,,,,,,,,,,,,,,,,,,,,,,
,,698252c00e9b378ca4680643,2026-03-17_17h08.08.423,kallum_motion_pilot_GIST_update_2,2026.1.1,Win32,60.24096386,698252c00e9b378ca4680643,69b95efdef24cd8a694e89ee,69b96008ea0c9e1a42b61f17,0.0488,0.0488,0,151,151,148,1,sevenfive,,,,,,,,,,,,,,,,,,,,,,,,,,,,,,,,,,,,,,,,,,,,,,,,,,,,,,,,,,,,,,,,,,,,,,,,,,,,,,,,,,,,,,,,,,,,,,,,,,,,,,,,,,,,,,,,,,,,,,,,,,,,,,,,,,,,,,,,,
,,698252c00e9b378ca4680643,2026-03-17_17h08.08.423,kallum_motion_pilot_GIST_update_2,2026.1.1,Win32,60.24096386,698252c00e9b378ca4680643,69b95efdef24cd8a694e89ee,69b96008ea0c9e1a42b61f17,0.0489,0.0489,0,152,152,88,1,fivesix,,,,,,,,,,,,,,,,,,,,,,,,,,,,,,,,,,,,,,,,,,,,,,,,,,,,,,,,,,,,,,,,,,,,,,,,,,,,,,,,,,,,,,,,,,,,,,,,,,,,,,,,,,,,,,,,,,,,,,,,,,,,,,,,,,,,,,,,,
,,698252c00e9b378ca4680643,2026-03-17_17h08.08.423,kallum_motion_pilot_GIST_update_2,2026.1.1,Win32,60.24096386,698252c00e9b378ca4680643,69b95efdef24cd8a694e89ee,69b96008ea0c9e1a42b61f17,0.049,0.049,0,153,153,75,1,twofour,,,,,,,,,,,,,,,,,,,,,,,,,,,,,,,,,,,,,,,,,,,,,,,,,,,,,,,,,,,,,,,,,,,,,,,,,,,,,,,,,,,,,,,,,,,,,,,,,,,,,,,,,,,,,,,,,,,,,,,,,,,,,,,,,,,,,,,,,
,,698252c00e9b378ca4680643,2026-03-17_17h08.08.423,kallum_motion_pilot_GIST_update_2,2026.1.1,Win32,60.24096386,698252c00e9b378ca4680643,69b95efdef24cd8a694e89ee,69b96008ea0c9e1a42b61f17,0.0492,0.0492,0,154,154,80,1,fivesix,,,,,,,,,,,,,,,,,,,,,,,,,,,,,,,,,,,,,,,,,,,,,,,,,,,,,,,,,,,,,,,,,,,,,,,,,,,,,,,,,,,,,,,,,,,,,,,,,,,,,,,,,,,,,,,,,,,,,,,,,,,,,,,,,,,,,,,,,
,,698252c00e9b378ca4680643,2026-03-17_17h08.08.423,kallum_motion_pilot_GIST_update_2,2026.1.1,Win32,60.24096386,698252c00e9b378ca4680643,69b95efdef24cd8a694e89ee,69b96008ea0c9e1a42b61f17,0.0492,0.0492,0,155,155,133,1,seveneight,,,,,,,,,,,,,,,,,,,,,,,,,,,,,,,,,,,,,,,,,,,,,,,,,,,,,,,,,,,,,,,,,,,,,,,,,,,,,,,,,,,,,,,,,,,,,,,,,,,,,,,,,,,,,,,,,,,,,,,,,,,,,,,,,,,,,,,,,
,,698252c00e9b378ca4680643,2026-03-17_17h08.08.423,kallum_motion_pilot_GIST_update_2,2026.1.1,Win32,60.24096386,698252c00e9b378ca4680643,69b95efdef24cd8a694e89ee,69b96008ea0c9e1a42b61f17,0.0495,0.0495,0,156,156,153,1,fiveseven,,,,,,,,,,,,,,,,,,,,,,,,,,,,,,,,,,,,,,,,,,,,,,,,,,,,,,,,,,,,,,,,,,,,,,,,,,,,,,,,,,,,,,,,,,,,,,,,,,,,,,,,,,,,,,,,,,,,,,,,,,,,,,,,,,,,,,,,,
,,698252c00e9b378ca4680643,2026-03-17_17h08.08.423,kallum_motion_pilot_GIST_update_2,2026.1.1,Win32,60.24096386,698252c00e9b378ca4680643,69b95efdef24cd8a694e89ee,69b96008ea0c9e1a42b61f17,0.0496,0.0496,0,157,157,126,1,eightsix,,,,,,,,,,,,,,,,,,,,,,,,,,,,,,,,,,,,,,,,,,,,,,,,,,,,,,,,,,,,,,,,,,,,,,,,,,,,,,,,,,,,,,,,,,,,,,,,,,,,,,,,,,,,,,,,,,,,,,,,,,,,,,,,,,,,,,,,,
,,698252c00e9b378ca4680643,2026-03-17_17h08.08.423,kallum_motion_pilot_GIST_update_2,2026.1.1,Win32,60.24096386,698252c00e9b378ca4680643,69b95efdef24cd8a694e89ee,69b96008ea0c9e1a42b61f17,0.0497,0.0497,0,158,158,51,1,twofour,,,,,,,,,,,,,,,,,,,,,,,,,,,,,,,,,,,,,,,,,,,,,,,,,,,,,,,,,,,,,,,,,,,,,,,,,,,,,,,,,,,,,,,,,,,,,,,,,,,,,,,,,,,,,,,,,,,,,,,,,,,,,,,,,,,,,,,,,
,,698252c00e9b378ca4680643,2026-03-17_17h08.08.423,kallum_motion_pilot_GIST_update_2,2026.1.1,Win32,60.24096386,698252c00e9b378ca4680643,69b95efdef24cd8a694e89ee,69b96008ea0c9e1a42b61f17,0.0499,0.0499,0,159,159,139,1,sixeight,,,,,,,,,,,,,,,,,,,,,,,,,,,,,,,,,,,,,,,,,,,,,,,,,,,,,,,,,,,,,,,,,,,,,,,,,,,,,,,,,,,,,,,,,,,,,,,,,,,,,,,,,,,,,,,,,,,,,,,,,,,,,,,,,,,,,,,,,
,,698252c00e9b378ca4680643,2026-03-17_17h08.08.423,kallum_motion_pilot_GIST_update_2,2026.1.1,Win32,60.24096386,698252c00e9b378ca4680643,69b95efdef24cd8a694e89ee,69b96008ea0c9e1a42b61f17,0.05,0.05,0,160,160,19,1,twofour,,,,,,,,,,,,,,,,,,,,,,,,,,,,,,,,,,,,,,,,,,,,,,,,,,,,,,,,,,,,,,,,,,,,,,,,,,,,,,,,,,,,,,,,,,,,,,,,,,,,,,,,,,,,,,,,,,,,,,,,,,,,,,,,,,,,,,,,,
,,698252c00e9b378ca4680643,2026-03-17_17h08.08.423,kallum_motion_pilot_GIST_update_2,2026.1.1,Win32,60.24096386,698252c00e9b378ca4680643,69b95efdef24cd8a694e89ee,69b96008ea0c9e1a42b61f17,0.0502,0.0502,0,161,161,28,1,threeone,,,,,,,,,,,,,,,,,,,,,,,,,,,,,,,,,,,,,,,,,,,,,,,,,,,,,,,,,,,,,,,,,,,,,,,,,,,,,,,,,,,,,,,,,,,,,,,,,,,,,,,,,,,,,,,,,,,,,,,,,,,,,,,,,,,,,,,,,
,,698252c00e9b378ca4680643,2026-03-17_17h08.08.423,kallum_motion_pilot_GIST_update_2,2026.1.1,Win32,60.24096386,698252c00e9b378ca4680643,69b95efdef24cd8a694e89ee,69b96008ea0c9e1a42b61f17,0.0503,0.0503,1,0,162,139,1,sixeight,,,,,,,,,,,,,,,,,,,,,,,,,,,,,,,,,,,,,,,,,,,,,,,,,,,,,,,,,,,,,,,,,,,,,,,,,,,,,,,,,,,,,,,,,,,,,,,,,,,,,,,,,,,,,,,,,,,,,,,,,,,,,,,,,,,,,,,,,
,,698252c00e9b378ca4680643,2026-03-17_17h08.08.423,kallum_motion_pilot_GIST_update_2,2026.1.1,Win32,60.24096386,698252c00e9b378ca4680643,69b95efdef24cd8a694e89ee,69b96008ea0c9e1a42b61f17,0.0505,0.0505,1,1,163,33,1,onethree,,,,,,,,,,,,,,,,,,,,,,,,,,,,,,,,,,,,,,,,,,,,,,,,,,,,,,,,,,,,,,,,,,,,,,,,,,,,,,,,,,,,,,,,,,,,,,,,,,,,,,,,,,,,,,,,,,,,,,,,,,,,,,,,,,,,,,,,,
,,698252c00e9b378ca4680643,2026-03-17_17h08.08.423,kallum_motion_pilot_GIST_update_2,2026.1.1,Win32,60.24096386,698252c00e9b378ca4680643,69b95efdef24cd8a694e89ee,69b96008ea0c9e1a42b61f17,0.0507,0.0507,1,2,164,91,1,sixeight,,,,,,,,,,,,,,,,,,,,,,,,,,,,,,,,,,,,,,,,,,,,,,,,,,,,,,,,,,,,,,,,,,,,,,,,,,,,,,,,,,,,,,,,,,,,,,,,,,,,,,,,,,,,,,,,,,,,,,,,,,,,,,,,,,,,,,,,,
,,698252c00e9b378ca4680643,2026-03-17_17h08.08.423,kallum_motion_pilot_GIST_update_2,2026.1.1,Win32,60.24096386,698252c00e9b378ca4680643,69b95efdef24cd8a694e89ee,69b96008ea0c9e1a42b61f17,0.0508,0.0508,1,3,165,102,1,eightsix,,,,,,,,,,,,,,,,,,,,,,,,,,,,,,,,,,,,,,,,,,,,,,,,,,,,,,,,,,,,,,,,,,,,,,,,,,,,,,,,,,,,,,,,,,,,,,,,,,,,,,,,,,,,,,,,,,,,,,,,,,,,,,,,,,,,,,,,,
,,698252c00e9b378ca4680643,2026-03-17_17h08.08.423,kallum_motion_pilot_GIST_update_2,2026.1.1,Win32,60.24096386,698252c00e9b378ca4680643,69b95efdef24cd8a694e89ee,69b96008ea0c9e1a42b61f17,0.051,0.051,1,4,166,52,1,threeone,,,,,,,,,,,,,,,,,,,,,,,,,,,,,,,,,,,,,,,,,,,,,,,,,,,,,,,,,,,,,,,,,,,,,,,,,,,,,,,,,,,,,,,,,,,,,,,,,,,,,,,,,,,,,,,,,,,,,,,,,,,,,,,,,,,,,,,,,
,,698252c00e9b378ca4680643,2026-03-17_17h08.08.423,kallum_motion_pilot_GIST_update_2,2026.1.1,Win32,60.24096386,698252c00e9b378ca4680643,69b95efdef24cd8a694e89ee,69b96008ea0c9e1a42b61f17,0.0512,0.0512,1,5,167,4,1,threeone,,,,,,,,,,,,,,,,,,,,,,,,,,,,,,,,,,,,,,,,,,,,,,,,,,,,,,,,,,,,,,,,,,,,,,,,,,,,,,,,,,,,,,,,,,,,,,,,,,,,,,,,,,,,,,,,,,,,,,,,,,,,,,,,,,,,,,,,,
,,698252c00e9b378ca4680643,2026-03-17_17h08.08.423,kallum_motion_pilot_GIST_update_2,2026.1.1,Win32,60.24096386,698252c00e9b378ca4680643,69b95efdef24cd8a694e89ee,69b96008ea0c9e1a42b61f17,0.0512,0.0512,1,6,168,44,1,threeone,,,,,,,,,,,,,,,,,,,,,,,,,,,,,,,,,,,,,,,,,,,,,,,,,,,,,,,,,,,,,,,,,,,,,,,,,,,,,,,,,,,,,,,,,,,,,,,,,,,,,,,,,,,,,,,,,,,,,,,,,,,,,,,,,,,,,,,,,
,,698252c00e9b378ca4680643,2026-03-17_17h08.08.423,kallum_motion_pilot_GIST_update_2,2026.1.1,Win32,60.24096386,698252c00e9b378ca4680643,69b95efdef24cd8a694e89ee,69b96008ea0c9e1a42b61f17,0.0514,0.0514,1,7,169,66,1,twoone,,,,,,,,,,,,,,,,,,,,,,,,,,,,,,,,,,,,,,,,,,,,,,,,,,,,,,,,,,,,,,,,,,,,,,,,,,,,,,,,,,,,,,,,,,,,,,,,,,,,,,,,,,,,,,,,,,,,,,,,,,,,,,,,,,,,,,,,,
,,698252c00e9b378ca4680643,2026-03-17_17h08.08.423,kallum_motion_pilot_GIST_update_2,2026.1.1,Win32,60.24096386,698252c00e9b378ca4680643,69b95efdef24cd8a694e89ee,69b96008ea0c9e1a42b61f17,0.0515,0.0515,1,8,170,98,1,sixfive,,,,,,,,,,,,,,,,,,,,,,,,,,,,,,,,,,,,,,,,,,,,,,,,,,,,,,,,,,,,,,,,,,,,,,,,,,,,,,,,,,,,,,,,,,,,,,,,,,,,,,,,,,,,,,,,,,,,,,,,,,,,,,,,,,,,,,,,,
,,698252c00e9b378ca4680643,2026-03-17_17h08.08.423,kallum_motion_pilot_GIST_update_2,2026.1.1,Win32,60.24096386,698252c00e9b378ca4680643,69b95efdef24cd8a694e89ee,69b96008ea0c9e1a42b61f17,0.0517,0.0517,1,9,171,115,1,sixeight,,,,,,,,,,,,,,,,,,,,,,,,,,,,,,,,,,,,,,,,,,,,,,,,,,,,,,,,,,,,,,,,,,,,,,,,,,,,,,,,,,,,,,,,,,,,,,,,,,,,,,,,,,,,,,,,,,,,,,,,,,,,,,,,,,,,,,,,,
,,698252c00e9b378ca4680643,2026-03-17_17h08.08.423,kallum_motion_pilot_GIST_update_2,2026.1.1,Win32,60.24096386,698252c00e9b378ca4680643,69b95efdef24cd8a694e89ee,69b96008ea0c9e1a42b61f17,0.0518,0.0518,1,10,172,40,1,onetwo,,,,,,,,,,,,,,,,,,,,,,,,,,,,,,,,,,,,,,,,,,,,,,,,,,,,,,,,,,,,,,,,,,,,,,,,,,,,,,,,,,,,,,,,,,,,,,,,,,,,,,,,,,,,,,,,,,,,,,,,,,,,,,,,,,,,,,,,,
,,698252c00e9b378ca4680643,2026-03-17_17h08.08.423,kallum_motion_pilot_GIST_update_2,2026.1.1,Win32,60.24096386,698252c00e9b378ca4680643,69b95efdef24cd8a694e89ee,69b96008ea0c9e1a42b61f17,0.0519,0.052,1,11,173,21,1,threefour,,,,,,,,,,,,,,,,,,,,,,,,,,,,,,,,,,,,,,,,,,,,,,,,,,,,,,,,,,,,,,,,,,,,,,,,,,,,,,,,,,,,,,,,,,,,,,,,,,,,,,,,,,,,,,,,,,,,,,,,,,,,,,,,,,,,,,,,,
,,698252c00e9b378ca4680643,2026-03-17_17h08.08.423,kallum_motion_pilot_GIST_update_2,2026.1.1,Win32,60.24096386,698252c00e9b378ca4680643,69b95efdef24cd8a694e89ee,69b96008ea0c9e1a42b61f17,0.0521,0.0521,1,12,174,121,1,fiveseven,,,,,,,,,,,,,,,,,,,,,,,,,,,,,,,,,,,,,,,,,,,,,,,,,,,,,,,,,,,,,,,,,,,,,,,,,,,,,,,,,,,,,,,,,,,,,,,,,,,,,,,,,,,,,,,,,,,,,,,,,,,,,,,,,,,,,,,,,
,,698252c00e9b378ca4680643,2026-03-17_17h08.08.423,kallum_motion_pilot_GIST_update_2,2026.1.1,Win32,60.24096386,698252c00e9b378ca4680643,69b95efdef24cd8a694e89ee,69b96008ea0c9e1a42b61f17,0.0522,0.0522,1,13,175,133,1,seveneight,,,,,,,,,,,,,,,,,,,,,,,,,,,,,,,,,,,,,,,,,,,,,,,,,,,,,,,,,,,,,,,,,,,,,,,,,,,,,,,,,,,,,,,,,,,,,,,,,,,,,,,,,,,,,,,,,,,,,,,,,,,,,,,,,,,,,,,,,
,,698252c00e9b378ca4680643,2026-03-17_17h08.08.423,kallum_motion_pilot_GIST_update_2,2026.1.1,Win32,60.24096386,698252c00e9b378ca4680643,69b95efdef24cd8a694e89ee,69b96008ea0c9e1a42b61f17,0.0524,0.0524,1,14,176,138,1,sixfive,,,,,,,,,,,,,,,,,,,,,,,,,,,,,,,,,,,,,,,,,,,,,,,,,,,,,,,,,,,,,,,,,,,,,,,,,,,,,,,,,,,,,,,,,,,,,,,,,,,,,,,,,,,,,,,,,,,,,,,,,,,,,,,,,,,,,,,,,
,,698252c00e9b378ca4680643,2026-03-17_17h08.08.423,kallum_motion_pilot_GIST_update_2,2026.1.1,Win32,60.24096386,698252c00e9b378ca4680643,69b95efdef24cd8a694e89ee,69b96008ea0c9e1a42b61f17,0.0525,0.0525,1,15,177,81,1,fiveseven,,,,,,,,,,,,,,,,,,,,,,,,,,,,,,,,,,,,,,,,,,,,,,,,,,,,,,,,,,,,,,,,,,,,,,,,,,,,,,,,,,,,,,,,,,,,,,,,,,,,,,,,,,,,,,,,,,,,,,,,,,,,,,,,,,,,,,,,,
,,698252c00e9b378ca4680643,2026-03-17_17h08.08.423,kallum_motion_pilot_GIST_update_2,2026.1.1,Win32,60.24096386,698252c00e9b378ca4680643,69b95efdef24cd8a694e89ee,69b96008ea0c9e1a42b61f17,0.0526,0.0526,1,16,178,5,1,threefour,,,,,,,,,,,,,,,,,,,,,,,,,,,,,,,,,,,,,,,,,,,,,,,,,,,,,,,,,,,,,,,,,,,,,,,,,,,,,,,,,,,,,,,,,,,,,,,,,,,,,,,,,,,,,,,,,,,,,,,,,,,,,,,,,,,,,,,,,
,,698252c00e9b378ca4680643,2026-03-17_17h08.08.423,kallum_motion_pilot_GIST_update_2,2026.1.1,Win32,60.24096386,698252c00e9b378ca4680643,69b95efdef24cd8a694e89ee,69b96008ea0c9e1a42b61f17,0.0528,0.0528,1,17,179,77,1,threefour,,,,,,,,,,,,,,,,,,,,,,,,,,,,,,,,,,,,,,,,,,,,,,,,,,,,,,,,,,,,,,,,,,,,,,,,,,,,,,,,,,,,,,,,,,,,,,,,,,,,,,,,,,,,,,,,,,,,,,,,,,,,,,,,,,,,,,,,,
,,698252c00e9b378ca4680643,2026-03-17_17h08.08.423,kallum_motion_pilot_GIST_update_2,2026.1.1,Win32,60.24096386,698252c00e9b378ca4680643,69b95efdef24cd8a694e89ee,69b96008ea0c9e1a42b61f17,0.0529,0.0529,1,18,180,29,1,threefour,,,,,,,,,,,,,,,,,,,,,,,,,,,,,,,,,,,,,,,,,,,,,,,,,,,,,,,,,,,,,,,,,,,,,,,,,,,,,,,,,,,,,,,,,,,,,,,,,,,,,,,,,,,,,,,,,,,,,,,,,,,,,,,,,,,,,,,,,
,,698252c00e9b378ca4680643,2026-03-17_17h08.08.423,kallum_motion_pilot_GIST_update_2,2026.1.1,Win32,60.24096386,698252c00e9b378ca4680643,69b95efdef24cd8a694e89ee,69b96008ea0c9e1a42b61f17,0.053,0.053,1,19,181,146,1,sixfive,,,,,,,,,,,,,,,,,,,,,,,,,,,,,,,,,,,,,,,,,,,,,,,,,,,,,,,,,,,,,,,,,,,,,,,,,,,,,,,,,,,,,,,,,,,,,,,,,,,,,,,,,,,,,,,,,,,,,,,,,,,,,,,,,,,,,,,,,
,,698252c00e9b378ca4680643,2026-03-17_17h08.08.423,kallum_motion_pilot_GIST_update_2,2026.1.1,Win32,60.24096386,698252c00e9b378ca4680643,69b95efdef24cd8a694e89ee,69b96008ea0c9e1a42b61f17,0.0532,0.0532,1,20,182,136,1,fivesix,,,,,,,,,,,,,,,,,,,,,,,,,,,,,,,,,,,,,,,,,,,,,,,,,,,,,,,,,,,,,,,,,,,,,,,,,,,,,,,,,,,,,,,,,,,,,,,,,,,,,,,,,,,,,,,,,,,,,,,,,,,,,,,,,,,,,,,,,
,,698252c00e9b378ca4680643,2026-03-17_17h08.08.423,kallum_motion_pilot_GIST_update_2,2026.1.1,Win32,60.24096386,698252c00e9b378ca4680643,69b95efdef24cd8a694e89ee,69b96008ea0c9e1a42b61f17,0.0533,0.0533,1,21,183,157,1,seveneight,,,,,,,,,,,,,,,,,,,,,,,,,,,,,,,,,,,,,,,,,,,,,,,,,,,,,,,,,,,,,,,,,,,,,,,,,,,,,,,,,,,,,,,,,,,,,,,,,,,,,,,,,,,,,,,,,,,,,,,,,,,,,,,,,,,,,,,,,
,,698252c00e9b378ca4680643,2026-03-17_17h08.08.423,kallum_motion_pilot_GIST_update_2,2026.1.1,Win32,60.24096386,698252c00e9b378ca4680643,69b95efdef24cd8a694e89ee,69b96008ea0c9e1a42b61f17,0.0535,0.0535,1,22,184,41,1,onethree,,,,,,,,,,,,,,,,,,,,,,,,,,,,,,,,,,,,,,,,,,,,,,,,,,,,,,,,,,,,,,,,,,,,,,,,,,,,,,,,,,,,,,,,,,,,,,,,,,,,,,,,,,,,,,,,,,,,,,,,,,,,,,,,,,,,,,,,,
,,698252c00e9b378ca4680643,2026-03-17_17h08.08.423,kallum_motion_pilot_GIST_update_2,2026.1.1,Win32,60.24096386,698252c00e9b378ca4680643,69b95efdef24cd8a694e89ee,69b96008ea0c9e1a42b61f17,0.0536,0.0536,1,23,185,75,1,twofour,,,,,,,,,,,,,,,,,,,,,,,,,,,,,,,,,,,,,,,,,,,,,,,,,,,,,,,,,,,,,,,,,,,,,,,,,,,,,,,,,,,,,,,,,,,,,,,,,,,,,,,,,,,,,,,,,,,,,,,,,,,,,,,,,,,,,,,,,
,,698252c00e9b378ca4680643,2026-03-17_17h08.08.423,kallum_motion_pilot_GIST_update_2,2026.1.1,Win32,60.24096386,698252c00e9b378ca4680643,69b95efdef24cd8a694e89ee,69b96008ea0c9e1a42b61f17,0.0537,0.0537,1,24,186,109,1,seveneight,,,,,,,,,,,,,,,,,,,,,,,,,,,,,,,,,,,,,,,,,,,,,,,,,,,,,,,,,,,,,,,,,,,,,,,,,,,,,,,,,,,,,,,,,,,,,,,,,,,,,,,,,,,,,,,,,,,,,,,,,,,,,,,,,,,,,,,,,
,,698252c00e9b378ca4680643,2026-03-17_17h08.08.423,kallum_motion_pilot_GIST_update_2,2026.1.1,Win32,60.24096386,698252c00e9b378ca4680643,69b95efdef24cd8a694e89ee,69b96008ea0c9e1a42b61f17,0.0539,0.0539,1,25,187,101,1,seveneight,,,,,,,,,,,,,,,,,,,,,,,,,,,,,,,,,,,,,,,,,,,,,,,,,,,,,,,,,,,,,,,,,,,,,,,,,,,,,,,,,,,,,,,,,,,,,,,,,,,,,,,,,,,,,,,,,,,,,,,,,,,,,,,,,,,,,,,,,
,,698252c00e9b378ca4680643,2026-03-17_17h08.08.423,kallum_motion_pilot_GIST_update_2,2026.1.1,Win32,60.24096386,698252c00e9b378ca4680643,69b95efdef24cd8a694e89ee,69b96008ea0c9e1a42b61f17,0.0541,0.0541,1,26,188,67,1,twofour,,,,,,,,,,,,,,,,,,,,,,,,,,,,,,,,,,,,,,,,,,,,,,,,,,,,,,,,,,,,,,,,,,,,,,,,,,,,,,,,,,,,,,,,,,,,,,,,,,,,,,,,,,,,,,,,,,,,,,,,,,,,,,,,,,,,,,,,,
,,698252c00e9b378ca4680643,2026-03-17_17h08.08.423,kallum_motion_pilot_GIST_update_2,2026.1.1,Win32,60.24096386,698252c00e9b378ca4680643,69b95efdef24cd8a694e89ee,69b96008ea0c9e1a42b61f17,0.0544,0.0544,1,27,189,1,1,onethree,,,,,,,,,,,,,,,,,,,,,,,,,,,,,,,,,,,,,,,,,,,,,,,,,,,,,,,,,,,,,,,,,,,,,,,,,,,,,,,,,,,,,,,,,,,,,,,,,,,,,,,,,,,,,,,,,,,,,,,,,,,,,,,,,,,,,,,,,
,,698252c00e9b378ca4680643,2026-03-17_17h08.08.423,kallum_motion_pilot_GIST_update_2,2026.1.1,Win32,60.24096386,698252c00e9b378ca4680643,69b95efdef24cd8a694e89ee,69b96008ea0c9e1a42b61f17,0.0547,0.0547,1,28,190,155,1,sixeight,,,,,,,,,,,,,,,,,,,,,,,,,,,,,,,,,,,,,,,,,,,,,,,,,,,,,,,,,,,,,,,,,,,,,,,,,,,,,,,,,,,,,,,,,,,,,,,,,,,,,,,,,,,,,,,,,,,,,,,,,,,,,,,,,,,,,,,,,
,,698252c00e9b378ca4680643,2026-03-17_17h08.08.423,kallum_motion_pilot_GIST_update_2,2026.1.1,Win32,60.24096386,698252c00e9b378ca4680643,69b95efdef24cd8a694e89ee,69b96008ea0c9e1a42b61f17,0.0548,0.0548,1,29,191,49,1,onethree,,,,,,,,,,,,,,,,,,,,,,,,,,,,,,,,,,,,,,,,,,,,,,,,,,,,,,,,,,,,,,,,,,,,,,,,,,,,,,,,,,,,,,,,,,,,,,,,,,,,,,,,,,,,,,,,,,,,,,,,,,,,,,,,,,,,,,,,,
,,698252c00e9b378ca4680643,2026-03-17_17h08.08.423,kallum_motion_pilot_GIST_update_2,2026.1.1,Win32,60.24096386,698252c00e9b378ca4680643,69b95efdef24cd8a694e89ee,69b96008ea0c9e1a42b61f17,0.055,0.055,1,30,192,46,1,fourtwo,,,,,,,,,,,,,,,,,,,,,,,,,,,,,,,,,,,,,,,,,,,,,,,,,,,,,,,,,,,,,,,,,,,,,,,,,,,,,,,,,,,,,,,,,,,,,,,,,,,,,,,,,,,,,,,,,,,,,,,,,,,,,,,,,,,,,,,,,
,,698252c00e9b378ca4680643,2026-03-17_17h08.08.423,kallum_motion_pilot_GIST_update_2,2026.1.1,Win32,60.24096386,698252c00e9b378ca4680643,69b95efdef24cd8a694e89ee,69b96008ea0c9e1a42b61f17,0.0552,0.0552,1,31,193,149,1,seveneight,,,,,,,,,,,,,,,,,,,,,,,,,,,,,,,,,,,,,,,,,,,,,,,,,,,,,,,,,,,,,,,,,,,,,,,,,,,,,,,,,,,,,,,,,,,,,,,,,,,,,,,,,,,,,,,,,,,,,,,,,,,,,,,,,,,,,,,,,
,,698252c00e9b378ca4680643,2026-03-17_17h08.08.423,kallum_motion_pilot_GIST_update_2,2026.1.1,Win32,60.24096386,698252c00e9b378ca4680643,69b95efdef24cd8a694e89ee,69b96008ea0c9e1a42b61f17,0.0555,0.0555,1,32,194,64,1,onetwo,,,,,,,,,,,,,,,,,,,,,,,,,,,,,,,,,,,,,,,,,,,,,,,,,,,,,,,,,,,,,,,,,,,,,,,,,,,,,,,,,,,,,,,,,,,,,,,,,,,,,,,,,,,,,,,,,,,,,,,,,,,,,,,,,,,,,,,,,
,,698252c00e9b378ca4680643,2026-03-17_17h08.08.423,kallum_motion_pilot_GIST_update_2,2026.1.1,Win32,60.24096386,698252c00e9b378ca4680643,69b95efdef24cd8a694e89ee,69b96008ea0c9e1a42b61f17,0.0557,0.0557,1,33,195,62,1,fourtwo,,,,,,,,,,,,,,,,,,,,,,,,,,,,,,,,,,,,,,,,,,,,,,,,,,,,,,,,,,,,,,,,,,,,,,,,,,,,,,,,,,,,,,,,,,,,,,,,,,,,,,,,,,,,,,,,,,,,,,,,,,,,,,,,,,,,,,,,,
,,698252c00e9b378ca4680643,2026-03-17_17h08.08.423,kallum_motion_pilot_GIST_update_2,2026.1.1,Win32,60.24096386,698252c00e9b378ca4680643,69b95efdef24cd8a694e89ee,69b96008ea0c9e1a42b61f17,0.0558,0.0558,1,34,196,86,1,eightsix,,,,,,,,,,,,,,,,,,,,,,,,,,,,,,,,,,,,,,,,,,,,,,,,,,,,,,,,,,,,,,,,,,,,,,,,,,,,,,,,,,,,,,,,,,,,,,,,,,,,,,,,,,,,,,,,,,,,,,,,,,,,,,,,,,,,,,,,,
,,698252c00e9b378ca4680643,2026-03-17_17h08.08.423,kallum_motion_pilot_GIST_update_2,2026.1.1,Win32,60.24096386,698252c00e9b378ca4680643,69b95efdef24cd8a694e89ee,69b96008ea0c9e1a42b61f17,0.0561,0.0561,1,35,197,10,1,twoone,,,,,,,,,,,,,,,,,,,,,,,,,,,,,,,,,,,,,,,,,,,,,,,,,,,,,,,,,,,,,,,,,,,,,,,,,,,,,,,,,,,,,,,,,,,,,,,,,,,,,,,,,,,,,,,,,,,,,,,,,,,,,,,,,,,,,,,,,
,,698252c00e9b378ca4680643,2026-03-17_17h08.08.423,kallum_motion_pilot_GIST_update_2,2026.1.1,Win32,60.24096386,698252c00e9b378ca4680643,69b95efdef24cd8a694e89ee,69b96008ea0c9e1a42b61f17,0.0562,0.0562,1,36,198,114,1,sixfive,,,,,,,,,,,,,,,,,,,,,,,,,,,,,,,,,,,,,,,,,,,,,,,,,,,,,,,,,,,,,,,,,,,,,,,,,,,,,,,,,,,,,,,,,,,,,,,,,,,,,,,,,,,,,,,,,,,,,,,,,,,,,,,,,,,,,,,,,
,,698252c00e9b378ca4680643,2026-03-17_17h08.08.423,kallum_motion_pilot_GIST_update_2,2026.1.1,Win32,60.24096386,698252c00e9b378ca4680643,69b95efdef24cd8a694e89ee,69b96008ea0c9e1a42b61f17,0.0564,0.0564,1,37,199,26,1,twoone,,,,,,,,,,,,,,,,,,,,,,,,,,,,,,,,,,,,,,,,,,,,,,,,,,,,,,,,,,,,,,,,,,,,,,,,,,,,,,,,,,,,,,,,,,,,,,,,,,,,,,,,,,,,,,,,,,,,,,,,,,,,,,,,,,,,,,,,,
,,698252c00e9b378ca4680643,2026-03-17_17h08.08.423,kallum_motion_pilot_GIST_update_2,2026.1.1,Win32,60.24096386,698252c00e9b378ca4680643,69b95efdef24cd8a694e89ee,69b96008ea0c9e1a42b61f17,0.0566,0.0566,1,38,200,142,1,eightsix,,,,,,,,,,,,,,,,,,,,,,,,,,,,,,,,,,,,,,,,,,,,,,,,,,,,,,,,,,,,,,,,,,,,,,,,,,,,,,,,,,,,,,,,,,,,,,,,,,,,,,,,,,,,,,,,,,,,,,,,,,,,,,,,,,,,,,,,,
,,698252c00e9b378ca4680643,2026-03-17_17h08.08.423,kallum_motion_pilot_GIST_update_2,2026.1.1,Win32,60.24096386,698252c00e9b378ca4680643,69b95efdef24cd8a694e89ee,69b96008ea0c9e1a42b61f17,0.0567,0.0567,1,39,201,12,1,threeone,,,,,,,,,,,,,,,,,,,,,,,,,,,,,,,,,,,,,,,,,,,,,,,,,,,,,,,,,,,,,,,,,,,,,,,,,,,,,,,,,,,,,,,,,,,,,,,,,,,,,,,,,,,,,,,,,,,,,,,,,,,,,,,,,,,,,,,,,
,,698252c00e9b378ca4680643,2026-03-17_17h08.08.423,kallum_motion_pilot_GIST_update_2,2026.1.1,Win32,60.24096386,698252c00e9b378ca4680643,69b95efdef24cd8a694e89ee,69b96008ea0c9e1a42b61f17,0.0568,0.0568,1,40,202,36,1,threeone,,,,,,,,,,,,,,,,,,,,,,,,,,,,,,,,,,,,,,,,,,,,,,,,,,,,,,,,,,,,,,,,,,,,,,,,,,,,,,,,,,,,,,,,,,,,,,,,,,,,,,,,,,,,,,,,,,,,,,,,,,,,,,,,,,,,,,,,,
,,698252c00e9b378ca4680643,2026-03-17_17h08.08.423,kallum_motion_pilot_GIST_update_2,2026.1.1,Win32,60.24096386,698252c00e9b378ca4680643,69b95efdef24cd8a694e89ee,69b96008ea0c9e1a42b61f17,0.057,0.057,1,41,203,153,1,fiveseven,,,,,,,,,,,,,,,,,,,,,,,,,,,,,,,,,,,,,,,,,,,,,,,,,,,,,,,,,,,,,,,,,,,,,,,,,,,,,,,,,,,,,,,,,,,,,,,,,,,,,,,,,,,,,,,,,,,,,,,,,,,,,,,,,,,,,,,,,
,,698252c00e9b378ca4680643,2026-03-17_17h08.08.423,kallum_motion_pilot_GIST_update_2,2026.1.1,Win32,60.24096386,698252c00e9b378ca4680643,69b95efdef24cd8a694e89ee,69b96008ea0c9e1a42b61f17,0.057,0.057,1,42,204,152,1,fivesix,,,,,,,,,,,,,,,,,,,,,,,,,,,,,,,,,,,,,,,,,,,,,,,,,,,,,,,,,,,,,,,,,,,,,,,,,,,,,,,,,,,,,,,,,,,,,,,,,,,,,,,,,,,,,,,,,,,,,,,,,,,,,,,,,,,,,,,,,
,,698252c00e9b378ca4680643,2026-03-17_17h08.08.423,kallum_motion_pilot_GIST_update_2,2026.1.1,Win32,60.24096386,698252c00e9b378ca4680643,69b95efdef24cd8a694e89ee,69b96008ea0c9e1a42b61f17,0.0572,0.0572,1,43,205,105,1,fiveseven,,,,,,,,,,,,,,,,,,,,,,,,,,,,,,,,,,,,,,,,,,,,,,,,,,,,,,,,,,,,,,,,,,,,,,,,,,,,,,,,,,,,,,,,,,,,,,,,,,,,,,,,,,,,,,,,,,,,,,,,,,,,,,,,,,,,,,,,,
,,698252c00e9b378ca4680643,2026-03-17_17h08.08.423,kallum_motion_pilot_GIST_update_2,2026.1.1,Win32,60.24096386,698252c00e9b378ca4680643,69b95efdef24cd8a694e89ee,69b96008ea0c9e1a42b61f17,0.0574,0.0574,1,44,206,54,1,fourtwo,,,,,,,,,,,,,,,,,,,,,,,,,,,,,,,,,,,,,,,,,,,,,,,,,,,,,,,,,,,,,,,,,,,,,,,,,,,,,,,,,,,,,,,,,,,,,,,,,,,,,,,,,,,,,,,,,,,,,,,,,,,,,,,,,,,,,,,,,
,,698252c00e9b378ca4680643,2026-03-17_17h08.08.423,kallum_motion_pilot_GIST_update_2,2026.1.1,Win32,60.24096386,698252c00e9b378ca4680643,69b95efdef24cd8a694e89ee,69b96008ea0c9e1a42b61f17,0.0575,0.0575,1,45,207,127,1,eightseven,,,,,,,,,,,,,,,,,,,,,,,,,,,,,,,,,,,,,,,,,,,,,,,,,,,,,,,,,,,,,,,,,,,,,,,,,,,,,,,,,,,,,,,,,,,,,,,,,,,,,,,,,,,,,,,,,,,,,,,,,,,,,,,,,,,,,,,,,
,,698252c00e9b378ca4680643,2026-03-17_17h08.08.423,kallum_motion_pilot_GIST_update_2,2026.1.1,Win32,60.24096386,698252c00e9b378ca4680643,69b95efdef24cd8a694e89ee,69b96008ea0c9e1a42b61f17,0.0576,0.0576,1,46,208,124,1,sevenfive,,,,,,,,,,,,,,,,,,,,,,,,,,,,,,,,,,,,,,,,,,,,,,,,,,,,,,,,,,,,,,,,,,,,,,,,,,,,,,,,,,,,,,,,,,,,,,,,,,,,,,,,,,,,,,,,,,,,,,,,,,,,,,,,,,,,,,,,,
,,698252c00e9b378ca4680643,2026-03-17_17h08.08.423,kallum_motion_pilot_GIST_update_2,2026.1.1,Win32,60.24096386,698252c00e9b378ca4680643,69b95efdef24cd8a694e89ee,69b96008ea0c9e1a42b61f17,0.0578,0.0578,1,47,209,160,1,fivesix,,,,,,,,,,,,,,,,,,,,,,,,,,,,,,,,,,,,,,,,,,,,,,,,,,,,,,,,,,,,,,,,,,,,,,,,,,,,,,,,,,,,,,,,,,,,,,,,,,,,,,,,,,,,,,,,,,,,,,,,,,,,,,,,,,,,,,,,,
,,698252c00e9b378ca4680643,2026-03-17_17h08.08.423,kallum_motion_pilot_GIST_update_2,2026.1.1,Win32,60.24096386,698252c00e9b378ca4680643,69b95efdef24cd8a694e89ee,69b96008ea0c9e1a42b61f17,0.0579,0.0579,1,48,210,14,1,fourtwo,,,,,,,,,,,,,,,,,,,,,,,,,,,,,,,,,,,,,,,,,,,,,,,,,,,,,,,,,,,,,,,,,,,,,,,,,,,,,,,,,,,,,,,,,,,,,,,,,,,,,,,,,,,,,,,,,,,,,,,,,,,,,,,,,,,,,,,,,
,,698252c00e9b378ca4680643,2026-03-17_17h08.08.423,kallum_motion_pilot_GIST_update_2,2026.1.1,Win32,60.24096386,698252c00e9b378ca4680643,69b95efdef24cd8a694e89ee,69b96008ea0c9e1a42b61f17,0.0581,0.0581,1,49,211,148,1,sevenfive,,,,,,,,,,,,,,,,,,,,,,,,,,,,,,,,,,,,,,,,,,,,,,,,,,,,,,,,,,,,,,,,,,,,,,,,,,,,,,,,,,,,,,,,,,,,,,,,,,,,,,,,,,,,,,,,,,,,,,,,,,,,,,,,,,,,,,,,,
,,698252c00e9b378ca4680643,2026-03-17_17h08.08.423,kallum_motion_pilot_GIST_update_2,2026.1.1,Win32,60.24096386,698252c00e9b378ca4680643,69b95efdef24cd8a694e89ee,69b96008ea0c9e1a42b61f17,0.0582,0.0582,1,50,212,134,1,eightsix,,,,,,,,,,,,,,,,,,,,,,,,,,,,,,,,,,,,,,,,,,,,,,,,,,,,,,,,,,,,,,,,,,,,,,,,,,,,,,,,,,,,,,,,,,,,,,,,,,,,,,,,,,,,,,,,,,,,,,,,,,,,,,,,,,,,,,,,,
,,698252c00e9b378ca4680643,2026-03-17_17h08.08.423,kallum_motion_pilot_GIST_update_2,2026.1.1,Win32,60.24096386,698252c00e9b378ca4680643,69b95efdef24cd8a694e89ee,69b96008ea0c9e1a42b61f17,0.0584,0.0584,1,51,213,147,1,sixeight,,,,,,,,,,,,,,,,,,,,,,,,,,,,,,,,,,,,,,,,,,,,,,,,,,,,,,,,,,,,,,,,,,,,,,,,,,,,,,,,,,,,,,,,,,,,,,,,,,,,,,,,,,,,,,,,,,,,,,,,,,,,,,,,,,,,,,,,,
,,698252c00e9b378ca4680643,2026-03-17_17h08.08.423,kallum_motion_pilot_GIST_update_2,2026.1.1,Win32,60.24096386,698252c00e9b378ca4680643,69b95efdef24cd8a694e89ee,69b96008ea0c9e1a42b61f17,0.0584,0.0584,1,52,214,34,1,twoone,,,,,,,,,,,,,,,,,,,,,,,,,,,,,,,,,,,,,,,,,,,,,,,,,,,,,,,,,,,,,,,,,,,,,,,,,,,,,,,,,,,,,,,,,,,,,,,,,,,,,,,,,,,,,,,,,,,,,,,,,,,,,,,,,,,,,,,,,
,,698252c00e9b378ca4680643,2026-03-17_17h08.08.423,kallum_motion_pilot_GIST_update_2,2026.1.1,Win32,60.24096386,698252c00e9b378ca4680643,69b95efdef24cd8a694e89ee,69b96008ea0c9e1a42b61f17,0.0587,0.0587,1,53,215,73,1,onethree,,,,,,,,,,,,,,,,,,,,,,,,,,,,,,,,,,,,,,,,,,,,,,,,,,,,,,,,,,,,,,,,,,,,,,,,,,,,,,,,,,,,,,,,,,,,,,,,,,,,,,,,,,,,,,,,,,,,,,,,,,,,,,,,,,,,,,,,,
,,698252c00e9b378ca4680643,2026-03-17_17h08.08.423,kallum_motion_pilot_GIST_update_2,2026.1.1,Win32,60.24096386,698252c00e9b378ca4680643,69b95efdef24cd8a694e89ee,69b96008ea0c9e1a42b61f17,0.0587,0.0587,1,54,216,130,1,sixfive,,,,,,,,,,,,,,,,,,,,,,,,,,,,,,,,,,,,,,,,,,,,,,,,,,,,,,,,,,,,,,,,,,,,,,,,,,,,,,,,,,,,,,,,,,,,,,,,,,,,,,,,,,,,,,,,,,,,,,,,,,,,,,,,,,,,,,,,,
,,698252c00e9b378ca4680643,2026-03-17_17h08.08.423,kallum_motion_pilot_GIST_update_2,2026.1.1,Win32,60.24096386,698252c00e9b378ca4680643,69b95efdef24cd8a694e89ee,69b96008ea0c9e1a42b61f17,0.059,0.059,1,55,217,85,1,seveneight,,,,,,,,,,,,,,,,,,,,,,,,,,,,,,,,,,,,,,,,,,,,,,,,,,,,,,,,,,,,,,,,,,,,,,,,,,,,,,,,,,,,,,,,,,,,,,,,,,,,,,,,,,,,,,,,,,,,,,,,,,,,,,,,,,,,,,,,,
,,698252c00e9b378ca4680643,2026-03-17_17h08.08.423,kallum_motion_pilot_GIST_update_2,2026.1.1,Win32,60.24096386,698252c00e9b378ca4680643,69b95efdef24cd8a694e89ee,69b96008ea0c9e1a42b61f17,0.059,0.059,1,56,218,154,1,sixfive,,,,,,,,,,,,,,,,,,,,,,,,,,,,,,,,,,,,,,,,,,,,,,,,,,,,,,,,,,,,,,,,,,,,,,,,,,,,,,,,,,,,,,,,,,,,,,,,,,,,,,,,,,,,,,,,,,,,,,,,,,,,,,,,,,,,,,,,,
,,698252c00e9b378ca4680643,2026-03-17_17h08.08.423,kallum_motion_pilot_GIST_update_2,2026.1.1,Win32,60.24096386,698252c00e9b378ca4680643,69b95efdef24cd8a694e89ee,69b96008ea0c9e1a42b61f17,0.0591,0.0591,1,57,219,125,1,seveneight,,,,,,,,,,,,,,,,,,,,,,,,,,,,,,,,,,,,,,,,,,,,,,,,,,,,,,,,,,,,,,,,,,,,,,,,,,,,,,,,,,,,,,,,,,,,,,,,,,,,,,,,,,,,,,,,,,,,,,,,,,,,,,,,,,,,,,,,,
,,698252c00e9b378ca4680643,2026-03-17_17h08.08.423,kallum_motion_pilot_GIST_update_2,2026.1.1,Win32,60.24096386,698252c00e9b378ca4680643,69b95efdef24cd8a694e89ee,69b96008ea0c9e1a42b61f17,0.0594,0.0594,1,58,220,47,1,fourthree,,,,,,,,,,,,,,,,,,,,,,,,,,,,,,,,,,,,,,,,,,,,,,,,,,,,,,,,,,,,,,,,,,,,,,,,,,,,,,,,,,,,,,,,,,,,,,,,,,,,,,,,,,,,,,,,,,,,,,,,,,,,,,,,,,,,,,,,,
,,698252c00e9b378ca4680643,2026-03-17_17h08.08.423,kallum_motion_pilot_GIST_update_2,2026.1.1,Win32,60.24096386,698252c00e9b378ca4680643,69b95efdef24cd8a694e89ee,69b96008ea0c9e1a42b61f17,0.0595,0.0595,1,59,221,140,1,sevenfive,,,,,,,,,,,,,,,,,,,,,,,,,,,,,,,,,,,,,,,,,,,,,,,,,,,,,,,,,,,,,,,,,,,,,,,,,,,,,,,,,,,,,,,,,,,,,,,,,,,,,,,,,,,,,,,,,,,,,,,,,,,,,,,,,,,,,,,,,
,,698252c00e9b378ca4680643,2026-03-17_17h08.08.423,kallum_motion_pilot_GIST_update_2,2026.1.1,Win32,60.24096386,698252c00e9b378ca4680643,69b95efdef24cd8a694e89ee,69b96008ea0c9e1a42b61f17,0.0596,0.0596,1,60,222,99,1,sixeight,,,,,,,,,,,,,,,,,,,,,,,,,,,,,,,,,,,,,,,,,,,,,,,,,,,,,,,,,,,,,,,,,,,,,,,,,,,,,,,,,,,,,,,,,,,,,,,,,,,,,,,,,,,,,,,,,,,,,,,,,,,,,,,,,,,,,,,,,
,,698252c00e9b378ca4680643,2026-03-17_17h08.08.423,kallum_motion_pilot_GIST_update_2,2026.1.1,Win32,60.24096386,698252c00e9b378ca4680643,69b95efdef24cd8a694e89ee,69b96008ea0c9e1a42b61f17,0.0598,0.0598,1,61,223,3,1,twofour,,,,,,,,,,,,,,,,,,,,,,,,,,,,,,,,,,,,,,,,,,,,,,,,,,,,,,,,,,,,,,,,,,,,,,,,,,,,,,,,,,,,,,,,,,,,,,,,,,,,,,,,,,,,,,,,,,,,,,,,,,,,,,,,,,,,,,,,,
,,698252c00e9b378ca4680643,2026-03-17_17h08.08.423,kallum_motion_pilot_GIST_update_2,2026.1.1,Win32,60.24096386,698252c00e9b378ca4680643,69b95efdef24cd8a694e89ee,69b96008ea0c9e1a42b61f17,0.0599,0.0599,1,62,224,150,1,eightsix,,,,,,,,,,,,,,,,,,,,,,,,,,,,,,,,,,,,,,,,,,,,,,,,,,,,,,,,,,,,,,,,,,,,,,,,,,,,,,,,,,,,,,,,,,,,,,,,,,,,,,,,,,,,,,,,,,,,,,,,,,,,,,,,,,,,,,,,,
,,698252c00e9b378ca4680643,2026-03-17_17h08.08.423,kallum_motion_pilot_GIST_update_2,2026.1.1,Win32,60.24096386,698252c00e9b378ca4680643,69b95efdef24cd8a694e89ee,69b96008ea0c9e1a42b61f17,0.06,0.06,1,63,225,122,1,sixfive,,,,,,,,,,,,,,,,,,,,,,,,,,,,,,,,,,,,,,,,,,,,,,,,,,,,,,,,,,,,,,,,,,,,,,,,,,,,,,,,,,,,,,,,,,,,,,,,,,,,,,,,,,,,,,,,,,,,,,,,,,,,,,,,,,,,,,,,,
,,698252c00e9b378ca4680643,2026-03-17_17h08.08.423,kallum_motion_pilot_GIST_update_2,2026.1.1,Win32,60.24096386,698252c00e9b378ca4680643,69b95efdef24cd8a694e89ee,69b96008ea0c9e1a42b61f17,0.0601,0.0601,1,64,226,65,1,onethree,,,,,,,,,,,,,,,,,,,,,,,,,,,,,,,,,,,,,,,,,,,,,,,,,,,,,,,,,,,,,,,,,,,,,,,,,,,,,,,,,,,,,,,,,,,,,,,,,,,,,,,,,,,,,,,,,,,,,,,,,,,,,,,,,,,,,,,,,
,,698252c00e9b378ca4680643,2026-03-17_17h08.08.423,kallum_motion_pilot_GIST_update_2,2026.1.1,Win32,60.24096386,698252c00e9b378ca4680643,69b95efdef24cd8a694e89ee,69b96008ea0c9e1a42b61f17,0.0603,0.0603,1,65,227,82,1,sixfive,,,,,,,,,,,,,,,,,,,,,,,,,,,,,,,,,,,,,,,,,,,,,,,,,,,,,,,,,,,,,,,,,,,,,,,,,,,,,,,,,,,,,,,,,,,,,,,,,,,,,,,,,,,,,,,,,,,,,,,,,,,,,,,,,,,,,,,,,
,,698252c00e9b378ca4680643,2026-03-17_17h08.08.423,kallum_motion_pilot_GIST_update_2,2026.1.1,Win32,60.24096386,698252c00e9b378ca4680643,69b95efdef24cd8a694e89ee,69b96008ea0c9e1a42b61f17,0.0605,0.0605,1,66,228,120,1,fivesix,,,,,,,,,,,,,,,,,,,,,,,,,,,,,,,,,,,,,,,,,,,,,,,,,,,,,,,,,,,,,,,,,,,,,,,,,,,,,,,,,,,,,,,,,,,,,,,,,,,,,,,,,,,,,,,,,,,,,,,,,,,,,,,,,,,,,,,,,
,,698252c00e9b378ca4680643,2026-03-17_17h08.08.423,kallum_motion_pilot_GIST_update_2,2026.1.1,Win32,60.24096386,698252c00e9b378ca4680643,69b95efdef24cd8a694e89ee,69b96008ea0c9e1a42b61f17,0.0606,0.0606,1,67,229,55,1,fourthree,,,,,,,,,,,,,,,,,,,,,,,,,,,,,,,,,,,,,,,,,,,,,,,,,,,,,,,,,,,,,,,,,,,,,,,,,,,,,,,,,,,,,,,,,,,,,,,,,,,,,,,,,,,,,,,,,,,,,,,,,,,,,,,,,,,,,,,,,
,,698252c00e9b378ca4680643,2026-03-17_17h08.08.423,kallum_motion_pilot_GIST_update_2,2026.1.1,Win32,60.24096386,698252c00e9b378ca4680643,69b95efdef24cd8a694e89ee,69b96008ea0c9e1a42b61f17,0.0607,0.0607,1,68,230,137,1,fiveseven,,,,,,,,,,,,,,,,,,,,,,,,,,,,,,,,,,,,,,,,,,,,,,,,,,,,,,,,,,,,,,,,,,,,,,,,,,,,,,,,,,,,,,,,,,,,,,,,,,,,,,,,,,,,,,,,,,,,,,,,,,,,,,,,,,,,,,,,,
,,698252c00e9b378ca4680643,2026-03-17_17h08.08.423,kallum_motion_pilot_GIST_update_2,2026.1.1,Win32,60.24096386,698252c00e9b378ca4680643,69b95efdef24cd8a694e89ee,69b96008ea0c9e1a42b61f17,0.0609,0.0609,1,69,231,111,1,eightseven,,,,,,,,,,,,,,,,,,,,,,,,,,,,,,,,,,,,,,,,,,,,,,,,,,,,,,,,,,,,,,,,,,,,,,,,,,,,,,,,,,,,,,,,,,,,,,,,,,,,,,,,,,,,,,,,,,,,,,,,,,,,,,,,,,,,,,,,,
,,698252c00e9b378ca4680643,2026-03-17_17h08.08.423,kallum_motion_pilot_GIST_update_2,2026.1.1,Win32,60.24096386,698252c00e9b378ca4680643,69b95efdef24cd8a694e89ee,69b96008ea0c9e1a42b61f17,0.061,0.061,1,70,232,112,1,fivesix,,,,,,,,,,,,,,,,,,,,,,,,,,,,,,,,,,,,,,,,,,,,,,,,,,,,,,,,,,,,,,,,,,,,,,,,,,,,,,,,,,,,,,,,,,,,,,,,,,,,,,,,,,,,,,,,,,,,,,,,,,,,,,,,,,,,,,,,,
,,698252c00e9b378ca4680643,2026-03-17_17h08.08.423,kallum_motion_pilot_GIST_update_2,2026.1.1,Win32,60.24096386,698252c00e9b378ca4680643,69b95efdef24cd8a694e89ee,69b96008ea0c9e1a42b61f17,0.0611,0.0611,1,71,233,17,1,onethree,,,,,,,,,,,,,,,,,,,,,,,,,,,,,,,,,,,,,,,,,,,,,,,,,,,,,,,,,,,,,,,,,,,,,,,,,,,,,,,,,,,,,,,,,,,,,,,,,,,,,,,,,,,,,,,,,,,,,,,,,,,,,,,,,,,,,,,,,
,,698252c00e9b378ca4680643,2026-03-17_17h08.08.423,kallum_motion_pilot_GIST_update_2,2026.1.1,Win32,60.24096386,698252c00e9b378ca4680643,69b95efdef24cd8a694e89ee,69b96008ea0c9e1a42b61f17,0.0614,0.0614,1,72,234,141,1,seveneight,,,,,,,,,,,,,,,,,,,,,,,,,,,,,,,,,,,,,,,,,,,,,,,,,,,,,,,,,,,,,,,,,,,,,,,,,,,,,,,,,,,,,,,,,,,,,,,,,,,,,,,,,,,,,,,,,,,,,,,,,,,,,,,,,,,,,,,,,
,,698252c00e9b378ca4680643,2026-03-17_17h08.08.423,kallum_motion_pilot_GIST_update_2,2026.1.1,Win32,60.24096386,698252c00e9b378ca4680643,69b95efdef24cd8a694e89ee,69b96008ea0c9e1a42b61f17,0.0615,0.0615,1,73,235,143,1,eightseven,,,,,,,,,,,,,,,,,,,,,,,,,,,,,,,,,,,,,,,,,,,,,,,,,,,,,,,,,,,,,,,,,,,,,,,,,,,,,,,,,,,,,,,,,,,,,,,,,,,,,,,,,,,,,,,,,,,,,,,,,,,,,,,,,,,,,,,,,
,,698252c00e9b378ca4680643,2026-03-17_17h08.08.423,kallum_motion_pilot_GIST_update_2,2026.1.1,Win32,60.24096386,698252c00e9b378ca4680643,69b95efdef24cd8a694e89ee,69b96008ea0c9e1a42b61f17,0.0616,0.0616,1,74,236,25,1,onethree,,,,,,,,,,,,,,,,,,,,,,,,,,,,,,,,,,,,,,,,,,,,,,,,,,,,,,,,,,,,,,,,,,,,,,,,,,,,,,,,,,,,,,,,,,,,,,,,,,,,,,,,,,,,,,,,,,,,,,,,,,,,,,,,,,,,,,,,,
,,698252c00e9b378ca4680643,2026-03-17_17h08.08.423,kallum_motion_pilot_GIST_update_2,2026.1.1,Win32,60.24096386,698252c00e9b378ca4680643,69b95efdef24cd8a694e89ee,69b96008ea0c9e1a42b61f17,0.0618,0.0618,1,75,237,51,1,twofour,,,,,,,,,,,,,,,,,,,,,,,,,,,,,,,,,,,,,,,,,,,,,,,,,,,,,,,,,,,,,,,,,,,,,,,,,,,,,,,,,,,,,,,,,,,,,,,,,,,,,,,,,,,,,,,,,,,,,,,,,,,,,,,,,,,,,,,,,
,,698252c00e9b378ca4680643,2026-03-17_17h08.08.423,kallum_motion_pilot_GIST_update_2,2026.1.1,Win32,60.24096386,698252c00e9b378ca4680643,69b95efdef24cd8a694e89ee,69b96008ea0c9e1a42b61f17,0.0619,0.0619,1,76,238,100,1,sevenfive,,,,,,,,,,,,,,,,,,,,,,,,,,,,,,,,,,,,,,,,,,,,,,,,,,,,,,,,,,,,,,,,,,,,,,,,,,,,,,,,,,,,,,,,,,,,,,,,,,,,,,,,,,,,,,,,,,,,,,,,,,,,,,,,,,,,,,,,,
,,698252c00e9b378ca4680643,2026-03-17_17h08.08.423,kallum_motion_pilot_GIST_update_2,2026.1.1,Win32,60.24096386,698252c00e9b378ca4680643,69b95efdef24cd8a694e89ee,69b96008ea0c9e1a42b61f17,0.062,0.062,1,77,239,0,1,onetwo,,,,,,,,,,,,,,,,,,,,,,,,,,,,,,,,,,,,,,,,,,,,,,,,,,,,,,,,,,,,,,,,,,,,,,,,,,,,,,,,,,,,,,,,,,,,,,,,,,,,,,,,,,,,,,,,,,,,,,,,,,,,,,,,,,,,,,,,,
,,698252c00e9b378ca4680643,2026-03-17_17h08.08.423,kallum_motion_pilot_GIST_update_2,2026.1.1,Win32,60.24096386,698252c00e9b378ca4680643,69b95efdef24cd8a694e89ee,69b96008ea0c9e1a42b61f17,0.0621,0.0621,1,78,240,32,1,onetwo,,,,,,,,,,,,,,,,,,,,,,,,,,,,,,,,,,,,,,,,,,,,,,,,,,,,,,,,,,,,,,,,,,,,,,,,,,,,,,,,,,,,,,,,,,,,,,,,,,,,,,,,,,,,,,,,,,,,,,,,,,,,,,,,,,,,,,,,,
,,698252c00e9b378ca4680643,2026-03-17_17h08.08.423,kallum_motion_pilot_GIST_update_2,2026.1.1,Win32,60.24096386,698252c00e9b378ca4680643,69b95efdef24cd8a694e89ee,69b96008ea0c9e1a42b61f17,0.0623,0.0623,1,79,241,9,1,onethree,,,,,,,,,,,,,,,,,,,,,,,,,,,,,,,,,,,,,,,,,,,,,,,,,,,,,,,,,,,,,,,,,,,,,,,,,,,,,,,,,,,,,,,,,,,,,,,,,,,,,,,,,,,,,,,,,,,,,,,,,,,,,,,,,,,,,,,,,
,,698252c00e9b378ca4680643,2026-03-17_17h08.08.423,kallum_motion_pilot_GIST_update_2,2026.1.1,Win32,60.24096386,698252c00e9b378ca4680643,69b95efdef24cd8a694e89ee,69b96008ea0c9e1a42b61f17,0.0625,0.0625,1,80,242,118,1,eightsix,,,,,,,,,,,,,,,,,,,,,,,,,,,,,,,,,,,,,,,,,,,,,,,,,,,,,,,,,,,,,,,,,,,,,,,,,,,,,,,,,,,,,,,,,,,,,,,,,,,,,,,,,,,,,,,,,,,,,,,,,,,,,,,,,,,,,,,,,
,,698252c00e9b378ca4680643,2026-03-17_17h08.08.423,kallum_motion_pilot_GIST_update_2,2026.1.1,Win32,60.24096386,698252c00e9b378ca4680643,69b95efdef24cd8a694e89ee,69b96008ea0c9e1a42b61f17,0.0626,0.0626,1,81,243,103,1,eightseven,,,,,,,,,,,,,,,,,,,,,,,,,,,,,,,,,,,,,,,,,,,,,,,,,,,,,,,,,,,,,,,,,,,,,,,,,,,,,,,,,,,,,,,,,,,,,,,,,,,,,,,,,,,,,,,,,,,,,,,,,,,,,,,,,,,,,,,,,
,,698252c00e9b378ca4680643,2026-03-17_17h08.08.423,kallum_motion_pilot_GIST_update_2,2026.1.1,Win32,60.24096386,698252c00e9b378ca4680643,69b95efdef24cd8a694e89ee,69b96008ea0c9e1a42b61f17,0.0627,0.0628,1,82,244,96,1,fivesix,,,,,,,,,,,,,,,,,,,,,,,,,,,,,,,,,,,,,,,,,,,,,,,,,,,,,,,,,,,,,,,,,,,,,,,,,,,,,,,,,,,,,,,,,,,,,,,,,,,,,,,,,,,,,,,,,,,,,,,,,,,,,,,,,,,,,,,,,
,,698252c00e9b378ca4680643,2026-03-17_17h08.08.423,kallum_motion_pilot_GIST_update_2,2026.1.1,Win32,60.24096386,698252c00e9b378ca4680643,69b95efdef24cd8a694e89ee,69b96008ea0c9e1a42b61f17,0.0629,0.0629,1,83,245,132,1,sevenfive,,,,,,,,,,,,,,,,,,,,,,,,,,,,,,,,,,,,,,,,,,,,,,,,,,,,,,,,,,,,,,,,,,,,,,,,,,,,,,,,,,,,,,,,,,,,,,,,,,,,,,,,,,,,,,,,,,,,,,,,,,,,,,,,,,,,,,,,,
,,698252c00e9b378ca4680643,2026-03-17_17h08.08.423,kallum_motion_pilot_GIST_update_2,2026.1.1,Win32,60.24096386,698252c00e9b378ca4680643,69b95efdef24cd8a694e89ee,69b96008ea0c9e1a42b61f17,0.063,0.063,1,84,246,7,1,fourthree,,,,,,,,,,,,,,,,,,,,,,,,,,,,,,,,,,,,,,,,,,,,,,,,,,,,,,,,,,,,,,,,,,,,,,,,,,,,,,,,,,,,,,,,,,,,,,,,,,,,,,,,,,,,,,,,,,,,,,,,,,,,,,,,,,,,,,,,,
,,698252c00e9b378ca4680643,2026-03-17_17h08.08.423,kallum_motion_pilot_GIST_update_2,2026.1.1,Win32,60.24096386,698252c00e9b378ca4680643,69b95efdef24cd8a694e89ee,69b96008ea0c9e1a42b61f17,0.0631,0.0631,1,85,247,159,1,eightseven,,,,,,,,,,,,,,,,,,,,,,,,,,,,,,,,,,,,,,,,,,,,,,,,,,,,,,,,,,,,,,,,,,,,,,,,,,,,,,,,,,,,,,,,,,,,,,,,,,,,,,,,,,,,,,,,,,,,,,,,,,,,,,,,,,,,,,,,,
,,698252c00e9b378ca4680643,2026-03-17_17h08.08.423,kallum_motion_pilot_GIST_update_2,2026.1.1,Win32,60.24096386,698252c00e9b378ca4680643,69b95efdef24cd8a694e89ee,69b96008ea0c9e1a42b61f17,0.0632,0.0632,1,86,248,76,1,threeone,,,,,,,,,,,,,,,,,,,,,,,,,,,,,,,,,,,,,,,,,,,,,,,,,,,,,,,,,,,,,,,,,,,,,,,,,,,,,,,,,,,,,,,,,,,,,,,,,,,,,,,,,,,,,,,,,,,,,,,,,,,,,,,,,,,,,,,,,
,,698252c00e9b378ca4680643,2026-03-17_17h08.08.423,kallum_motion_pilot_GIST_update_2,2026.1.1,Win32,60.24096386,698252c00e9b378ca4680643,69b95efdef24cd8a694e89ee,69b96008ea0c9e1a42b61f17,0.0635,0.0635,1,87,249,11,1,twofour,,,,,,,,,,,,,,,,,,,,,,,,,,,,,,,,,,,,,,,,,,,,,,,,,,,,,,,,,,,,,,,,,,,,,,,,,,,,,,,,,,,,,,,,,,,,,,,,,,,,,,,,,,,,,,,,,,,,,,,,,,,,,,,,,,,,,,,,,
,,698252c00e9b378ca4680643,2026-03-17_17h08.08.423,kallum_motion_pilot_GIST_update_2,2026.1.1,Win32,60.24096386,698252c00e9b378ca4680643,69b95efdef24cd8a694e89ee,69b96008ea0c9e1a42b61f17,0.0636,0.0636,1,88,250,38,1,fourtwo,,,,,,,,,,,,,,,,,,,,,,,,,,,,,,,,,,,,,,,,,,,,,,,,,,,,,,,,,,,,,,,,,,,,,,,,,,,,,,,,,,,,,,,,,,,,,,,,,,,,,,,,,,,,,,,,,,,,,,,,,,,,,,,,,,,,,,,,,
,,698252c00e9b378ca4680643,2026-03-17_17h08.08.423,kallum_motion_pilot_GIST_update_2,2026.1.1,Win32,60.24096386,698252c00e9b378ca4680643,69b95efdef24cd8a694e89ee,69b96008ea0c9e1a42b61f17,0.0639,0.0639,1,89,251,48,1,onetwo,,,,,,,,,,,,,,,,,,,,,,,,,,,,,,,,,,,,,,,,,,,,,,,,,,,,,,,,,,,,,,,,,,,,,,,,,,,,,,,,,,,,,,,,,,,,,,,,,,,,,,,,,,,,,,,,,,,,,,,,,,,,,,,,,,,,,,,,,
,,698252c00e9b378ca4680643,2026-03-17_17h08.08.423,kallum_motion_pilot_GIST_update_2,2026.1.1,Win32,60.24096386,698252c00e9b378ca4680643,69b95efdef24cd8a694e89ee,69b96008ea0c9e1a42b61f17,0.064,0.064,1,90,252,68,1,threeone,,,,,,,,,,,,,,,,,,,,,,,,,,,,,,,,,,,,,,,,,,,,,,,,,,,,,,,,,,,,,,,,,,,,,,,,,,,,,,,,,,,,,,,,,,,,,,,,,,,,,,,,,,,,,,,,,,,,,,,,,,,,,,,,,,,,,,,,,
,,698252c00e9b378ca4680643,2026-03-17_17h08.08.423,kallum_motion_pilot_GIST_update_2,2026.1.1,Win32,60.24096386,698252c00e9b378ca4680643,69b95efdef24cd8a694e89ee,69b96008ea0c9e1a42b61f17,0.0641,0.0641,1,91,253,93,1,seveneight,,,,,,,,,,,,,,,,,,,,,,,,,,,,,,,,,,,,,,,,,,,,,,,,,,,,,,,,,,,,,,,,,,,,,,,,,,,,,,,,,,,,,,,,,,,,,,,,,,,,,,,,,,,,,,,,,,,,,,,,,,,,,,,,,,,,,,,,,
,,698252c00e9b378ca4680643,2026-03-17_17h08.08.423,kallum_motion_pilot_GIST_update_2,2026.1.1,Win32,60.24096386,698252c00e9b378ca4680643,69b95efdef24cd8a694e89ee,69b96008ea0c9e1a42b61f17,0.0644,0.0644,1,92,254,128,1,fivesix,,,,,,,,,,,,,,,,,,,,,,,,,,,,,,,,,,,,,,,,,,,,,,,,,,,,,,,,,,,,,,,,,,,,,,,,,,,,,,,,,,,,,,,,,,,,,,,,,,,,,,,,,,,,,,,,,,,,,,,,,,,,,,,,,,,,,,,,,
,,698252c00e9b378ca4680643,2026-03-17_17h08.08.423,kallum_motion_pilot_GIST_update_2,2026.1.1,Win32,60.24096386,698252c00e9b378ca4680643,69b95efdef24cd8a694e89ee,69b96008ea0c9e1a42b61f17,0.0647,0.0647,1,93,255,37,1,threefour,,,,,,,,,,,,,,,,,,,,,,,,,,,,,,,,,,,,,,,,,,,,,,,,,,,,,,,,,,,,,,,,,,,,,,,,,,,,,,,,,,,,,,,,,,,,,,,,,,,,,,,,,,,,,,,,,,,,,,,,,,,,,,,,,,,,,,,,,
,,698252c00e9b378ca4680643,2026-03-17_17h08.08.423,kallum_motion_pilot_GIST_update_2,2026.1.1,Win32,60.24096386,698252c00e9b378ca4680643,69b95efdef24cd8a694e89ee,69b96008ea0c9e1a42b61f17,0.0649,0.0649,1,94,256,89,1,fiveseven,,,,,,,,,,,,,,,,,,,,,,,,,,,,,,,,,,,,,,,,,,,,,,,,,,,,,,,,,,,,,,,,,,,,,,,,,,,,,,,,,,,,,,,,,,,,,,,,,,,,,,,,,,,,,,,,,,,,,,,,,,,,,,,,,,,,,,,,,
,,698252c00e9b378ca4680643,2026-03-17_17h08.08.423,kallum_motion_pilot_GIST_update_2,2026.1.1,Win32,60.24096386,698252c00e9b378ca4680643,69b95efdef24cd8a694e89ee,69b96008ea0c9e1a42b61f17,0.0651,0.0651,1,95,257,63,1,fourthree,,,,,,,,,,,,,,,,,,,,,,,,,,,,,,,,,,,,,,,,,,,,,,,,,,,,,,,,,,,,,,,,,,,,,,,,,,,,,,,,,,,,,,,,,,,,,,,,,,,,,,,,,,,,,,,,,,,,,,,,,,,,,,,,,,,,,,,,,
,,698252c00e9b378ca4680643,2026-03-17_17h08.08.423,kallum_motion_pilot_GIST_update_2,2026.1.1,Win32,60.24096386,698252c00e9b378ca4680643,69b95efdef24cd8a694e89ee,69b96008ea0c9e1a42b61f17,0.0653,0.0653,1,96,258,69,1,threefour,,,,,,,,,,,,,,,,,,,,,,,,,,,,,,,,,,,,,,,,,,,,,,,,,,,,,,,,,,,,,,,,,,,,,,,,,,,,,,,,,,,,,,,,,,,,,,,,,,,,,,,,,,,,,,,,,,,,,,,,,,,,,,,,,,,,,,,,,
,,698252c00e9b378ca4680643,2026-03-17_17h08.08.423,kallum_motion_pilot_GIST_update_2,2026.1.1,Win32,60.24096386,698252c00e9b378ca4680643,69b95efdef24cd8a694e89ee,69b96008ea0c9e1a42b61f17,0.0655,0.0655,1,97,259,107,1,sixeight,,,,,,,,,,,,,,,,,,,,,,,,,,,,,,,,,,,,,,,,,,,,,,,,,,,,,,,,,,,,,,,,,,,,,,,,,,,,,,,,,,,,,,,,,,,,,,,,,,,,,,,,,,,,,,,,,,,,,,,,,,,,,,,,,,,,,,,,,
,,698252c00e9b378ca4680643,2026-03-17_17h08.08.423,kallum_motion_pilot_GIST_update_2,2026.1.1,Win32,60.24096386,698252c00e9b378ca4680643,69b95efdef24cd8a694e89ee,69b96008ea0c9e1a42b61f17,0.0657,0.0657,1,98,260,83,1,sixeight,,,,,,,,,,,,,,,,,,,,,,,,,,,,,,,,,,,,,,,,,,,,,,,,,,,,,,,,,,,,,,,,,,,,,,,,,,,,,,,,,,,,,,,,,,,,,,,,,,,,,,,,,,,,,,,,,,,,,,,,,,,,,,,,,,,,,,,,,
,,698252c00e9b378ca4680643,2026-03-17_17h08.08.423,kallum_motion_pilot_GIST_update_2,2026.1.1,Win32,60.24096386,698252c00e9b378ca4680643,69b95efdef24cd8a694e89ee,69b96008ea0c9e1a42b61f17,0.0659,0.0659,1,99,261,126,1,eightsix,,,,,,,,,,,,,,,,,,,,,,,,,,,,,,,,,,,,,,,,,,,,,,,,,,,,,,,,,,,,,,,,,,,,,,,,,,,,,,,,,,,,,,,,,,,,,,,,,,,,,,,,,,,,,,,,,,,,,,,,,,,,,,,,,,,,,,,,,
,,698252c00e9b378ca4680643,2026-03-17_17h08.08.423,kallum_motion_pilot_GIST_update_2,2026.1.1,Win32,60.24096386,698252c00e9b378ca4680643,69b95efdef24cd8a694e89ee,69b96008ea0c9e1a42b61f17,0.066,0.066,1,100,262,57,1,onethree,,,,,,,,,,,,,,,,,,,,,,,,,,,,,,,,,,,,,,,,,,,,,,,,,,,,,,,,,,,,,,,,,,,,,,,,,,,,,,,,,,,,,,,,,,,,,,,,,,,,,,,,,,,,,,,,,,,,,,,,,,,,,,,,,,,,,,,,,
,,698252c00e9b378ca4680643,2026-03-17_17h08.08.423,kallum_motion_pilot_GIST_update_2,2026.1.1,Win32,60.24096386,698252c00e9b378ca4680643,69b95efdef24cd8a694e89ee,69b96008ea0c9e1a42b61f17,0.0662,0.0662,1,101,263,18,1,twoone,,,,,,,,,,,,,,,,,,,,,,,,,,,,,,,,,,,,,,,,,,,,,,,,,,,,,,,,,,,,,,,,,,,,,,,,,,,,,,,,,,,,,,,,,,,,,,,,,,,,,,,,,,,,,,,,,,,,,,,,,,,,,,,,,,,,,,,,,
,,698252c00e9b378ca4680643,2026-03-17_17h08.08.423,kallum_motion_pilot_GIST_update_2,2026.1.1,Win32,60.24096386,698252c00e9b378ca4680643,69b95efdef24cd8a694e89ee,69b96008ea0c9e1a42b61f17,0.0666,0.0666,1,102,264,94,1,eightsix,,,,,,,,,,,,,,,,,,,,,,,,,,,,,,,,,,,,,,,,,,,,,,,,,,,,,,,,,,,,,,,,,,,,,,,,,,,,,,,,,,,,,,,,,,,,,,,,,,,,,,,,,,,,,,,,,,,,,,,,,,,,,,,,,,,,,,,,,
,,698252c00e9b378ca4680643,2026-03-17_17h08.08.423,kallum_motion_pilot_GIST_update_2,2026.1.1,Win32,60.24096386,698252c00e9b378ca4680643,69b95efdef24cd8a694e89ee,69b96008ea0c9e1a42b61f17,0.0667,0.0667,1,103,265,97,1,fiveseven,,,,,,,,,,,,,,,,,,,,,,,,,,,,,,,,,,,,,,,,,,,,,,,,,,,,,,,,,,,,,,,,,,,,,,,,,,,,,,,,,,,,,,,,,,,,,,,,,,,,,,,,,,,,,,,,,,,,,,,,,,,,,,,,,,,,,,,,,
,,698252c00e9b378ca4680643,2026-03-17_17h08.08.423,kallum_motion_pilot_GIST_update_2,2026.1.1,Win32,60.24096386,698252c00e9b378ca4680643,69b95efdef24cd8a694e89ee,69b96008ea0c9e1a42b61f17,0.0669,0.0669,1,104,266,23,1,fourthree,,,,,,,,,,,,,,,,,,,,,,,,,,,,,,,,,,,,,,,,,,,,,,,,,,,,,,,,,,,,,,,,,,,,,,,,,,,,,,,,,,,,,,,,,,,,,,,,,,,,,,,,,,,,,,,,,,,,,,,,,,,,,,,,,,,,,,,,,
