startup.started,startup.stopped,Prolific ID*,date,expName,psychopyVersion,OS,frameRate,participant,study_id,session,stimpositions.started,stimpositions.stopped,hardcoded_stimulus_positions.thisRepN,hardcoded_stimulus_positions.thisTrialN,hardcoded_stimulus_positions.thisN,hardcoded_stimulus_positions.thisIndex,hardcoded_stimulus_positions.ran,StimulusPos,stimorientation.started,stimorientation.stopped,prac_stimorientation_import_loop.thisRepN,prac_stimorientation_import_loop.thisTrialN,prac_stimorientation_import_loop.thisN,prac_stimorientation_import_loop.thisIndex,prac_stimorientation_import_loop.ran,Stimorientation,welcome_instr.started,welcome_instr.stopped,key_resp.keys,key_resp.rt,key_resp.duration,response_steppedout_1.started,response_steppedout_1.stopped,key_resp_20.keys,key_resp_20.rt,key_resp_20.duration,response_steppedout_2.started,response_steppedout_2.stopped,key_resp_19.keys,key_resp_19.rt,key_resp_19.duration,stim_response_instr.started,stim_response_instr.stopped,key_resp_15.keys,key_resp_15.rt,key_resp_15.duration,direction_instr_2.started,direction_instr_2.stopped,key_resp_9.keys,key_resp_9.rt,key_resp_9.duration,instr_prac.started,instr_prac.stopped,key_resp_10.keys,key_resp_10.rt,key_resp_10.duration,Stim1_display_prac.started,Stim1_display_prac.stopped,Ecc,Circle1_ori,Circle2_ori,response_prac.started,similarity,response_time,response_prac.stopped,mouse_5.x,mouse_5.y,mouse_5.leftButton,mouse_5.midButton,mouse_5.rightButton,mouse_5.clicked_name,responseprac_feedback.started,responseprac_feedback.stopped,summary2_prac.started,summary2_prac.stopped,mouse_6.x,mouse_6.y,mouse_6.leftButton,mouse_6.midButton,mouse_6.rightButton,mouse_6.clicked_name,duringprac.thisRepN,duringprac.thisTrialN,duringprac.thisN,duringprac.thisIndex,duringprac.ran,begin.started,begin.stopped,key_resp_22.keys,key_resp_22.rt,key_resp_22.duration,Stim1_display.started,Stim1_display.stopped,circle1_ori,circle2_ori,circle1_SF,circle2_SF,response.started,response.stopped,mouse.x,mouse.y,mouse.leftButton,mouse.midButton,mouse.rightButton,mouse.clicked_name,trialnumber,double_pass.thisRepN,double_pass.thisTrialN,double_pass.thisN,double_pass.thisIndex,double_pass.ran,double_pass.order,main_trial.thisRepN,main_trial.thisTrialN,main_trial.thisN,main_trial.thisIndex,main_trial.ran,main_trial.order,Trial_Counter,Catch,Frequencies,response_2.started,response_2.stopped,mouse_2.x,mouse_2.y,mouse_2.leftButton,mouse_2.midButton,mouse_2.rightButton,mouse_2.clicked_name,special_trial.started,special_trial.stopped,catch_1.started,catch_1.stopped,mouse_3.x,mouse_3.y,mouse_3.leftButton,mouse_3.midButton,mouse_3.rightButton,catchresponse,catchnumber,response_time_catch,response_sum.started,response_sum.stopped,mouse_11.x,mouse_11.y,mouse_11.leftButton,mouse_11.midButton,mouse_11.rightButton,flip_presentation_sequence_for_double_pass.started,flip_presentation_sequence_for_double_pass.stopped,goodbye.started,goodbye.stopped,key_resp_3.keys,key_resp_3.rt,key_resp_3.duration
0.0004,0.0005,698250f02c81242e57185b4f,2026-03-17_17h15.42.625,kallum_motion_pilot_GIST_update_2,2026.1.1,Win32,60.24096386,698250f02c81242e57185b4f,69b95efdef24cd8a694e89ee,69b9600d60f20d7fab57f71b,,,,,,,,,,,,,,,,,,,,,,,,,,,,,,,,,,,,,,,,,,,,,,,,,,,,,,,,,,,,,,,,,,,,,,,,,,,,,,,,,,,,,,,,,,,,,,,,,,,,,,,,,,,,,,,,,,,,,,,,,,,,,,,,,,,,,,,,,,,,,,,,,
,,698250f02c81242e57185b4f,2026-03-17_17h15.42.625,kallum_motion_pilot_GIST_update_2,2026.1.1,Win32,60.24096386,698250f02c81242e57185b4f,69b95efdef24cd8a694e89ee,69b9600d60f20d7fab57f71b,0.0328,0.033,0,0,0,114,1,sixfive,,,,,,,,,,,,,,,,,,,,,,,,,,,,,,,,,,,,,,,,,,,,,,,,,,,,,,,,,,,,,,,,,,,,,,,,,,,,,,,,,,,,,,,,,,,,,,,,,,,,,,,,,,,,,,,,,,,,,,,,,,,,,,,,,,,,,,,,,
,,698250f02c81242e57185b4f,2026-03-17_17h15.42.625,kallum_motion_pilot_GIST_update_2,2026.1.1,Win32,60.24096386,698250f02c81242e57185b4f,69b95efdef24cd8a694e89ee,69b9600d60f20d7fab57f71b,0.0335,0.0335,0,1,1,33,1,onethree,,,,,,,,,,,,,,,,,,,,,,,,,,,,,,,,,,,,,,,,,,,,,,,,,,,,,,,,,,,,,,,,,,,,,,,,,,,,,,,,,,,,,,,,,,,,,,,,,,,,,,,,,,,,,,,,,,,,,,,,,,,,,,,,,,,,,,,,,
,,698250f02c81242e57185b4f,2026-03-17_17h15.42.625,kallum_motion_pilot_GIST_update_2,2026.1.1,Win32,60.24096386,698250f02c81242e57185b4f,69b95efdef24cd8a694e89ee,69b9600d60f20d7fab57f71b,0.0337,0.0337,0,2,2,125,1,seveneight,,,,,,,,,,,,,,,,,,,,,,,,,,,,,,,,,,,,,,,,,,,,,,,,,,,,,,,,,,,,,,,,,,,,,,,,,,,,,,,,,,,,,,,,,,,,,,,,,,,,,,,,,,,,,,,,,,,,,,,,,,,,,,,,,,,,,,,,,
,,698250f02c81242e57185b4f,2026-03-17_17h15.42.625,kallum_motion_pilot_GIST_update_2,2026.1.1,Win32,60.24096386,698250f02c81242e57185b4f,69b95efdef24cd8a694e89ee,69b9600d60f20d7fab57f71b,0.034,0.034,0,3,3,10,1,twoone,,,,,,,,,,,,,,,,,,,,,,,,,,,,,,,,,,,,,,,,,,,,,,,,,,,,,,,,,,,,,,,,,,,,,,,,,,,,,,,,,,,,,,,,,,,,,,,,,,,,,,,,,,,,,,,,,,,,,,,,,,,,,,,,,,,,,,,,,
,,698250f02c81242e57185b4f,2026-03-17_17h15.42.625,kallum_motion_pilot_GIST_update_2,2026.1.1,Win32,60.24096386,698250f02c81242e57185b4f,69b95efdef24cd8a694e89ee,69b9600d60f20d7fab57f71b,0.0343,0.0343,0,4,4,36,1,threeone,,,,,,,,,,,,,,,,,,,,,,,,,,,,,,,,,,,,,,,,,,,,,,,,,,,,,,,,,,,,,,,,,,,,,,,,,,,,,,,,,,,,,,,,,,,,,,,,,,,,,,,,,,,,,,,,,,,,,,,,,,,,,,,,,,,,,,,,,
,,698250f02c81242e57185b4f,2026-03-17_17h15.42.625,kallum_motion_pilot_GIST_update_2,2026.1.1,Win32,60.24096386,698250f02c81242e57185b4f,69b95efdef24cd8a694e89ee,69b9600d60f20d7fab57f71b,0.0347,0.0348,0,5,5,5,1,threefour,,,,,,,,,,,,,,,,,,,,,,,,,,,,,,,,,,,,,,,,,,,,,,,,,,,,,,,,,,,,,,,,,,,,,,,,,,,,,,,,,,,,,,,,,,,,,,,,,,,,,,,,,,,,,,,,,,,,,,,,,,,,,,,,,,,,,,,,,
,,698250f02c81242e57185b4f,2026-03-17_17h15.42.625,kallum_motion_pilot_GIST_update_2,2026.1.1,Win32,60.24096386,698250f02c81242e57185b4f,69b95efdef24cd8a694e89ee,69b9600d60f20d7fab57f71b,0.035,0.035,0,6,6,153,1,fiveseven,,,,,,,,,,,,,,,,,,,,,,,,,,,,,,,,,,,,,,,,,,,,,,,,,,,,,,,,,,,,,,,,,,,,,,,,,,,,,,,,,,,,,,,,,,,,,,,,,,,,,,,,,,,,,,,,,,,,,,,,,,,,,,,,,,,,,,,,,
,,698250f02c81242e57185b4f,2026-03-17_17h15.42.625,kallum_motion_pilot_GIST_update_2,2026.1.1,Win32,60.24096386,698250f02c81242e57185b4f,69b95efdef24cd8a694e89ee,69b9600d60f20d7fab57f71b,0.0352,0.0352,0,7,7,113,1,fiveseven,,,,,,,,,,,,,,,,,,,,,,,,,,,,,,,,,,,,,,,,,,,,,,,,,,,,,,,,,,,,,,,,,,,,,,,,,,,,,,,,,,,,,,,,,,,,,,,,,,,,,,,,,,,,,,,,,,,,,,,,,,,,,,,,,,,,,,,,,
,,698250f02c81242e57185b4f,2026-03-17_17h15.42.625,kallum_motion_pilot_GIST_update_2,2026.1.1,Win32,60.24096386,698250f02c81242e57185b4f,69b95efdef24cd8a694e89ee,69b9600d60f20d7fab57f71b,0.0356,0.0356,0,8,8,152,1,fivesix,,,,,,,,,,,,,,,,,,,,,,,,,,,,,,,,,,,,,,,,,,,,,,,,,,,,,,,,,,,,,,,,,,,,,,,,,,,,,,,,,,,,,,,,,,,,,,,,,,,,,,,,,,,,,,,,,,,,,,,,,,,,,,,,,,,,,,,,,
,,698250f02c81242e57185b4f,2026-03-17_17h15.42.625,kallum_motion_pilot_GIST_update_2,2026.1.1,Win32,60.24096386,698250f02c81242e57185b4f,69b95efdef24cd8a694e89ee,69b9600d60f20d7fab57f71b,0.0358,0.0359,0,9,9,127,1,eightseven,,,,,,,,,,,,,,,,,,,,,,,,,,,,,,,,,,,,,,,,,,,,,,,,,,,,,,,,,,,,,,,,,,,,,,,,,,,,,,,,,,,,,,,,,,,,,,,,,,,,,,,,,,,,,,,,,,,,,,,,,,,,,,,,,,,,,,,,,
,,698250f02c81242e57185b4f,2026-03-17_17h15.42.625,kallum_motion_pilot_GIST_update_2,2026.1.1,Win32,60.24096386,698250f02c81242e57185b4f,69b95efdef24cd8a694e89ee,69b9600d60f20d7fab57f71b,0.0361,0.0361,0,10,10,29,1,threefour,,,,,,,,,,,,,,,,,,,,,,,,,,,,,,,,,,,,,,,,,,,,,,,,,,,,,,,,,,,,,,,,,,,,,,,,,,,,,,,,,,,,,,,,,,,,,,,,,,,,,,,,,,,,,,,,,,,,,,,,,,,,,,,,,,,,,,,,,
,,698250f02c81242e57185b4f,2026-03-17_17h15.42.625,kallum_motion_pilot_GIST_update_2,2026.1.1,Win32,60.24096386,698250f02c81242e57185b4f,69b95efdef24cd8a694e89ee,69b9600d60f20d7fab57f71b,0.0363,0.0363,0,11,11,145,1,fiveseven,,,,,,,,,,,,,,,,,,,,,,,,,,,,,,,,,,,,,,,,,,,,,,,,,,,,,,,,,,,,,,,,,,,,,,,,,,,,,,,,,,,,,,,,,,,,,,,,,,,,,,,,,,,,,,,,,,,,,,,,,,,,,,,,,,,,,,,,,
,,698250f02c81242e57185b4f,2026-03-17_17h15.42.625,kallum_motion_pilot_GIST_update_2,2026.1.1,Win32,60.24096386,698250f02c81242e57185b4f,69b95efdef24cd8a694e89ee,69b9600d60f20d7fab57f71b,0.0365,0.0365,0,12,12,9,1,onethree,,,,,,,,,,,,,,,,,,,,,,,,,,,,,,,,,,,,,,,,,,,,,,,,,,,,,,,,,,,,,,,,,,,,,,,,,,,,,,,,,,,,,,,,,,,,,,,,,,,,,,,,,,,,,,,,,,,,,,,,,,,,,,,,,,,,,,,,,
,,698250f02c81242e57185b4f,2026-03-17_17h15.42.625,kallum_motion_pilot_GIST_update_2,2026.1.1,Win32,60.24096386,698250f02c81242e57185b4f,69b95efdef24cd8a694e89ee,69b9600d60f20d7fab57f71b,0.0368,0.0368,0,13,13,135,1,eightseven,,,,,,,,,,,,,,,,,,,,,,,,,,,,,,,,,,,,,,,,,,,,,,,,,,,,,,,,,,,,,,,,,,,,,,,,,,,,,,,,,,,,,,,,,,,,,,,,,,,,,,,,,,,,,,,,,,,,,,,,,,,,,,,,,,,,,,,,,
,,698250f02c81242e57185b4f,2026-03-17_17h15.42.625,kallum_motion_pilot_GIST_update_2,2026.1.1,Win32,60.24096386,698250f02c81242e57185b4f,69b95efdef24cd8a694e89ee,69b9600d60f20d7fab57f71b,0.037,0.037,0,14,14,146,1,sixfive,,,,,,,,,,,,,,,,,,,,,,,,,,,,,,,,,,,,,,,,,,,,,,,,,,,,,,,,,,,,,,,,,,,,,,,,,,,,,,,,,,,,,,,,,,,,,,,,,,,,,,,,,,,,,,,,,,,,,,,,,,,,,,,,,,,,,,,,,
,,698250f02c81242e57185b4f,2026-03-17_17h15.42.625,kallum_motion_pilot_GIST_update_2,2026.1.1,Win32,60.24096386,698250f02c81242e57185b4f,69b95efdef24cd8a694e89ee,69b9600d60f20d7fab57f71b,0.0371,0.0371,0,15,15,97,1,fiveseven,,,,,,,,,,,,,,,,,,,,,,,,,,,,,,,,,,,,,,,,,,,,,,,,,,,,,,,,,,,,,,,,,,,,,,,,,,,,,,,,,,,,,,,,,,,,,,,,,,,,,,,,,,,,,,,,,,,,,,,,,,,,,,,,,,,,,,,,,
,,698250f02c81242e57185b4f,2026-03-17_17h15.42.625,kallum_motion_pilot_GIST_update_2,2026.1.1,Win32,60.24096386,698250f02c81242e57185b4f,69b95efdef24cd8a694e89ee,69b9600d60f20d7fab57f71b,0.0372,0.0373,0,16,16,155,1,sixeight,,,,,,,,,,,,,,,,,,,,,,,,,,,,,,,,,,,,,,,,,,,,,,,,,,,,,,,,,,,,,,,,,,,,,,,,,,,,,,,,,,,,,,,,,,,,,,,,,,,,,,,,,,,,,,,,,,,,,,,,,,,,,,,,,,,,,,,,,
,,698250f02c81242e57185b4f,2026-03-17_17h15.42.625,kallum_motion_pilot_GIST_update_2,2026.1.1,Win32,60.24096386,698250f02c81242e57185b4f,69b95efdef24cd8a694e89ee,69b9600d60f20d7fab57f71b,0.0375,0.0375,0,17,17,14,1,fourtwo,,,,,,,,,,,,,,,,,,,,,,,,,,,,,,,,,,,,,,,,,,,,,,,,,,,,,,,,,,,,,,,,,,,,,,,,,,,,,,,,,,,,,,,,,,,,,,,,,,,,,,,,,,,,,,,,,,,,,,,,,,,,,,,,,,,,,,,,,
,,698250f02c81242e57185b4f,2026-03-17_17h15.42.625,kallum_motion_pilot_GIST_update_2,2026.1.1,Win32,60.24096386,698250f02c81242e57185b4f,69b95efdef24cd8a694e89ee,69b9600d60f20d7fab57f71b,0.0377,0.0377,0,18,18,82,1,sixfive,,,,,,,,,,,,,,,,,,,,,,,,,,,,,,,,,,,,,,,,,,,,,,,,,,,,,,,,,,,,,,,,,,,,,,,,,,,,,,,,,,,,,,,,,,,,,,,,,,,,,,,,,,,,,,,,,,,,,,,,,,,,,,,,,,,,,,,,,
,,698250f02c81242e57185b4f,2026-03-17_17h15.42.625,kallum_motion_pilot_GIST_update_2,2026.1.1,Win32,60.24096386,698250f02c81242e57185b4f,69b95efdef24cd8a694e89ee,69b9600d60f20d7fab57f71b,0.0378,0.0378,0,19,19,151,1,eightseven,,,,,,,,,,,,,,,,,,,,,,,,,,,,,,,,,,,,,,,,,,,,,,,,,,,,,,,,,,,,,,,,,,,,,,,,,,,,,,,,,,,,,,,,,,,,,,,,,,,,,,,,,,,,,,,,,,,,,,,,,,,,,,,,,,,,,,,,,
,,698250f02c81242e57185b4f,2026-03-17_17h15.42.625,kallum_motion_pilot_GIST_update_2,2026.1.1,Win32,60.24096386,698250f02c81242e57185b4f,69b95efdef24cd8a694e89ee,69b9600d60f20d7fab57f71b,0.038,0.038,0,20,20,133,1,seveneight,,,,,,,,,,,,,,,,,,,,,,,,,,,,,,,,,,,,,,,,,,,,,,,,,,,,,,,,,,,,,,,,,,,,,,,,,,,,,,,,,,,,,,,,,,,,,,,,,,,,,,,,,,,,,,,,,,,,,,,,,,,,,,,,,,,,,,,,,
,,698250f02c81242e57185b4f,2026-03-17_17h15.42.625,kallum_motion_pilot_GIST_update_2,2026.1.1,Win32,60.24096386,698250f02c81242e57185b4f,69b95efdef24cd8a694e89ee,69b9600d60f20d7fab57f71b,0.0382,0.0382,0,21,21,124,1,sevenfive,,,,,,,,,,,,,,,,,,,,,,,,,,,,,,,,,,,,,,,,,,,,,,,,,,,,,,,,,,,,,,,,,,,,,,,,,,,,,,,,,,,,,,,,,,,,,,,,,,,,,,,,,,,,,,,,,,,,,,,,,,,,,,,,,,,,,,,,,
,,698250f02c81242e57185b4f,2026-03-17_17h15.42.625,kallum_motion_pilot_GIST_update_2,2026.1.1,Win32,60.24096386,698250f02c81242e57185b4f,69b95efdef24cd8a694e89ee,69b9600d60f20d7fab57f71b,0.0384,0.0384,0,22,22,123,1,sixeight,,,,,,,,,,,,,,,,,,,,,,,,,,,,,,,,,,,,,,,,,,,,,,,,,,,,,,,,,,,,,,,,,,,,,,,,,,,,,,,,,,,,,,,,,,,,,,,,,,,,,,,,,,,,,,,,,,,,,,,,,,,,,,,,,,,,,,,,,
,,698250f02c81242e57185b4f,2026-03-17_17h15.42.625,kallum_motion_pilot_GIST_update_2,2026.1.1,Win32,60.24096386,698250f02c81242e57185b4f,69b95efdef24cd8a694e89ee,69b9600d60f20d7fab57f71b,0.0387,0.0387,0,23,23,126,1,eightsix,,,,,,,,,,,,,,,,,,,,,,,,,,,,,,,,,,,,,,,,,,,,,,,,,,,,,,,,,,,,,,,,,,,,,,,,,,,,,,,,,,,,,,,,,,,,,,,,,,,,,,,,,,,,,,,,,,,,,,,,,,,,,,,,,,,,,,,,,
,,698250f02c81242e57185b4f,2026-03-17_17h15.42.625,kallum_motion_pilot_GIST_update_2,2026.1.1,Win32,60.24096386,698250f02c81242e57185b4f,69b95efdef24cd8a694e89ee,69b9600d60f20d7fab57f71b,0.039,0.039,0,24,24,3,1,twofour,,,,,,,,,,,,,,,,,,,,,,,,,,,,,,,,,,,,,,,,,,,,,,,,,,,,,,,,,,,,,,,,,,,,,,,,,,,,,,,,,,,,,,,,,,,,,,,,,,,,,,,,,,,,,,,,,,,,,,,,,,,,,,,,,,,,,,,,,
,,698250f02c81242e57185b4f,2026-03-17_17h15.42.625,kallum_motion_pilot_GIST_update_2,2026.1.1,Win32,60.24096386,698250f02c81242e57185b4f,69b95efdef24cd8a694e89ee,69b9600d60f20d7fab57f71b,0.0391,0.0392,0,25,25,87,1,eightseven,,,,,,,,,,,,,,,,,,,,,,,,,,,,,,,,,,,,,,,,,,,,,,,,,,,,,,,,,,,,,,,,,,,,,,,,,,,,,,,,,,,,,,,,,,,,,,,,,,,,,,,,,,,,,,,,,,,,,,,,,,,,,,,,,,,,,,,,,
,,698250f02c81242e57185b4f,2026-03-17_17h15.42.625,kallum_motion_pilot_GIST_update_2,2026.1.1,Win32,60.24096386,698250f02c81242e57185b4f,69b95efdef24cd8a694e89ee,69b9600d60f20d7fab57f71b,0.0393,0.0394,0,26,26,70,1,fourtwo,,,,,,,,,,,,,,,,,,,,,,,,,,,,,,,,,,,,,,,,,,,,,,,,,,,,,,,,,,,,,,,,,,,,,,,,,,,,,,,,,,,,,,,,,,,,,,,,,,,,,,,,,,,,,,,,,,,,,,,,,,,,,,,,,,,,,,,,,
,,698250f02c81242e57185b4f,2026-03-17_17h15.42.625,kallum_motion_pilot_GIST_update_2,2026.1.1,Win32,60.24096386,698250f02c81242e57185b4f,69b95efdef24cd8a694e89ee,69b9600d60f20d7fab57f71b,0.0396,0.0396,0,27,27,32,1,onetwo,,,,,,,,,,,,,,,,,,,,,,,,,,,,,,,,,,,,,,,,,,,,,,,,,,,,,,,,,,,,,,,,,,,,,,,,,,,,,,,,,,,,,,,,,,,,,,,,,,,,,,,,,,,,,,,,,,,,,,,,,,,,,,,,,,,,,,,,,
,,698250f02c81242e57185b4f,2026-03-17_17h15.42.625,kallum_motion_pilot_GIST_update_2,2026.1.1,Win32,60.24096386,698250f02c81242e57185b4f,69b95efdef24cd8a694e89ee,69b9600d60f20d7fab57f71b,0.0398,0.0399,0,28,28,51,1,twofour,,,,,,,,,,,,,,,,,,,,,,,,,,,,,,,,,,,,,,,,,,,,,,,,,,,,,,,,,,,,,,,,,,,,,,,,,,,,,,,,,,,,,,,,,,,,,,,,,,,,,,,,,,,,,,,,,,,,,,,,,,,,,,,,,,,,,,,,,
,,698250f02c81242e57185b4f,2026-03-17_17h15.42.625,kallum_motion_pilot_GIST_update_2,2026.1.1,Win32,60.24096386,698250f02c81242e57185b4f,69b95efdef24cd8a694e89ee,69b9600d60f20d7fab57f71b,0.0401,0.0401,0,29,29,26,1,twoone,,,,,,,,,,,,,,,,,,,,,,,,,,,,,,,,,,,,,,,,,,,,,,,,,,,,,,,,,,,,,,,,,,,,,,,,,,,,,,,,,,,,,,,,,,,,,,,,,,,,,,,,,,,,,,,,,,,,,,,,,,,,,,,,,,,,,,,,,
,,698250f02c81242e57185b4f,2026-03-17_17h15.42.625,kallum_motion_pilot_GIST_update_2,2026.1.1,Win32,60.24096386,698250f02c81242e57185b4f,69b95efdef24cd8a694e89ee,69b9600d60f20d7fab57f71b,0.0404,0.0404,0,30,30,73,1,onethree,,,,,,,,,,,,,,,,,,,,,,,,,,,,,,,,,,,,,,,,,,,,,,,,,,,,,,,,,,,,,,,,,,,,,,,,,,,,,,,,,,,,,,,,,,,,,,,,,,,,,,,,,,,,,,,,,,,,,,,,,,,,,,,,,,,,,,,,,
,,698250f02c81242e57185b4f,2026-03-17_17h15.42.625,kallum_motion_pilot_GIST_update_2,2026.1.1,Win32,60.24096386,698250f02c81242e57185b4f,69b95efdef24cd8a694e89ee,69b9600d60f20d7fab57f71b,0.0405,0.0405,0,31,31,98,1,sixfive,,,,,,,,,,,,,,,,,,,,,,,,,,,,,,,,,,,,,,,,,,,,,,,,,,,,,,,,,,,,,,,,,,,,,,,,,,,,,,,,,,,,,,,,,,,,,,,,,,,,,,,,,,,,,,,,,,,,,,,,,,,,,,,,,,,,,,,,,
,,698250f02c81242e57185b4f,2026-03-17_17h15.42.625,kallum_motion_pilot_GIST_update_2,2026.1.1,Win32,60.24096386,698250f02c81242e57185b4f,69b95efdef24cd8a694e89ee,69b9600d60f20d7fab57f71b,0.0407,0.0407,0,32,32,99,1,sixeight,,,,,,,,,,,,,,,,,,,,,,,,,,,,,,,,,,,,,,,,,,,,,,,,,,,,,,,,,,,,,,,,,,,,,,,,,,,,,,,,,,,,,,,,,,,,,,,,,,,,,,,,,,,,,,,,,,,,,,,,,,,,,,,,,,,,,,,,,
,,698250f02c81242e57185b4f,2026-03-17_17h15.42.625,kallum_motion_pilot_GIST_update_2,2026.1.1,Win32,60.24096386,698250f02c81242e57185b4f,69b95efdef24cd8a694e89ee,69b9600d60f20d7fab57f71b,0.0409,0.0409,0,33,33,156,1,sevenfive,,,,,,,,,,,,,,,,,,,,,,,,,,,,,,,,,,,,,,,,,,,,,,,,,,,,,,,,,,,,,,,,,,,,,,,,,,,,,,,,,,,,,,,,,,,,,,,,,,,,,,,,,,,,,,,,,,,,,,,,,,,,,,,,,,,,,,,,,
,,698250f02c81242e57185b4f,2026-03-17_17h15.42.625,kallum_motion_pilot_GIST_update_2,2026.1.1,Win32,60.24096386,698250f02c81242e57185b4f,69b95efdef24cd8a694e89ee,69b9600d60f20d7fab57f71b,0.0411,0.0411,0,34,34,13,1,threefour,,,,,,,,,,,,,,,,,,,,,,,,,,,,,,,,,,,,,,,,,,,,,,,,,,,,,,,,,,,,,,,,,,,,,,,,,,,,,,,,,,,,,,,,,,,,,,,,,,,,,,,,,,,,,,,,,,,,,,,,,,,,,,,,,,,,,,,,,
,,698250f02c81242e57185b4f,2026-03-17_17h15.42.625,kallum_motion_pilot_GIST_update_2,2026.1.1,Win32,60.24096386,698250f02c81242e57185b4f,69b95efdef24cd8a694e89ee,69b9600d60f20d7fab57f71b,0.0413,0.0413,0,35,35,144,1,fivesix,,,,,,,,,,,,,,,,,,,,,,,,,,,,,,,,,,,,,,,,,,,,,,,,,,,,,,,,,,,,,,,,,,,,,,,,,,,,,,,,,,,,,,,,,,,,,,,,,,,,,,,,,,,,,,,,,,,,,,,,,,,,,,,,,,,,,,,,,
,,698250f02c81242e57185b4f,2026-03-17_17h15.42.625,kallum_motion_pilot_GIST_update_2,2026.1.1,Win32,60.24096386,698250f02c81242e57185b4f,69b95efdef24cd8a694e89ee,69b9600d60f20d7fab57f71b,0.0415,0.0415,0,36,36,91,1,sixeight,,,,,,,,,,,,,,,,,,,,,,,,,,,,,,,,,,,,,,,,,,,,,,,,,,,,,,,,,,,,,,,,,,,,,,,,,,,,,,,,,,,,,,,,,,,,,,,,,,,,,,,,,,,,,,,,,,,,,,,,,,,,,,,,,,,,,,,,,
,,698250f02c81242e57185b4f,2026-03-17_17h15.42.625,kallum_motion_pilot_GIST_update_2,2026.1.1,Win32,60.24096386,698250f02c81242e57185b4f,69b95efdef24cd8a694e89ee,69b9600d60f20d7fab57f71b,0.0417,0.0417,0,37,37,28,1,threeone,,,,,,,,,,,,,,,,,,,,,,,,,,,,,,,,,,,,,,,,,,,,,,,,,,,,,,,,,,,,,,,,,,,,,,,,,,,,,,,,,,,,,,,,,,,,,,,,,,,,,,,,,,,,,,,,,,,,,,,,,,,,,,,,,,,,,,,,,
,,698250f02c81242e57185b4f,2026-03-17_17h15.42.625,kallum_motion_pilot_GIST_update_2,2026.1.1,Win32,60.24096386,698250f02c81242e57185b4f,69b95efdef24cd8a694e89ee,69b9600d60f20d7fab57f71b,0.0418,0.0419,0,38,38,96,1,fivesix,,,,,,,,,,,,,,,,,,,,,,,,,,,,,,,,,,,,,,,,,,,,,,,,,,,,,,,,,,,,,,,,,,,,,,,,,,,,,,,,,,,,,,,,,,,,,,,,,,,,,,,,,,,,,,,,,,,,,,,,,,,,,,,,,,,,,,,,,
,,698250f02c81242e57185b4f,2026-03-17_17h15.42.625,kallum_motion_pilot_GIST_update_2,2026.1.1,Win32,60.24096386,698250f02c81242e57185b4f,69b95efdef24cd8a694e89ee,69b9600d60f20d7fab57f71b,0.042,0.042,0,39,39,72,1,onetwo,,,,,,,,,,,,,,,,,,,,,,,,,,,,,,,,,,,,,,,,,,,,,,,,,,,,,,,,,,,,,,,,,,,,,,,,,,,,,,,,,,,,,,,,,,,,,,,,,,,,,,,,,,,,,,,,,,,,,,,,,,,,,,,,,,,,,,,,,
,,698250f02c81242e57185b4f,2026-03-17_17h15.42.625,kallum_motion_pilot_GIST_update_2,2026.1.1,Win32,60.24096386,698250f02c81242e57185b4f,69b95efdef24cd8a694e89ee,69b9600d60f20d7fab57f71b,0.0423,0.0423,0,40,40,6,1,fourtwo,,,,,,,,,,,,,,,,,,,,,,,,,,,,,,,,,,,,,,,,,,,,,,,,,,,,,,,,,,,,,,,,,,,,,,,,,,,,,,,,,,,,,,,,,,,,,,,,,,,,,,,,,,,,,,,,,,,,,,,,,,,,,,,,,,,,,,,,,
,,698250f02c81242e57185b4f,2026-03-17_17h15.42.625,kallum_motion_pilot_GIST_update_2,2026.1.1,Win32,60.24096386,698250f02c81242e57185b4f,69b95efdef24cd8a694e89ee,69b9600d60f20d7fab57f71b,0.0424,0.0424,0,41,41,40,1,onetwo,,,,,,,,,,,,,,,,,,,,,,,,,,,,,,,,,,,,,,,,,,,,,,,,,,,,,,,,,,,,,,,,,,,,,,,,,,,,,,,,,,,,,,,,,,,,,,,,,,,,,,,,,,,,,,,,,,,,,,,,,,,,,,,,,,,,,,,,,
,,698250f02c81242e57185b4f,2026-03-17_17h15.42.625,kallum_motion_pilot_GIST_update_2,2026.1.1,Win32,60.24096386,698250f02c81242e57185b4f,69b95efdef24cd8a694e89ee,69b9600d60f20d7fab57f71b,0.0425,0.0425,0,42,42,11,1,twofour,,,,,,,,,,,,,,,,,,,,,,,,,,,,,,,,,,,,,,,,,,,,,,,,,,,,,,,,,,,,,,,,,,,,,,,,,,,,,,,,,,,,,,,,,,,,,,,,,,,,,,,,,,,,,,,,,,,,,,,,,,,,,,,,,,,,,,,,,
,,698250f02c81242e57185b4f,2026-03-17_17h15.42.625,kallum_motion_pilot_GIST_update_2,2026.1.1,Win32,60.24096386,698250f02c81242e57185b4f,69b95efdef24cd8a694e89ee,69b9600d60f20d7fab57f71b,0.0428,0.0428,0,43,43,8,1,onetwo,,,,,,,,,,,,,,,,,,,,,,,,,,,,,,,,,,,,,,,,,,,,,,,,,,,,,,,,,,,,,,,,,,,,,,,,,,,,,,,,,,,,,,,,,,,,,,,,,,,,,,,,,,,,,,,,,,,,,,,,,,,,,,,,,,,,,,,,,
,,698250f02c81242e57185b4f,2026-03-17_17h15.42.625,kallum_motion_pilot_GIST_update_2,2026.1.1,Win32,60.24096386,698250f02c81242e57185b4f,69b95efdef24cd8a694e89ee,69b9600d60f20d7fab57f71b,0.043,0.043,0,44,44,131,1,sixeight,,,,,,,,,,,,,,,,,,,,,,,,,,,,,,,,,,,,,,,,,,,,,,,,,,,,,,,,,,,,,,,,,,,,,,,,,,,,,,,,,,,,,,,,,,,,,,,,,,,,,,,,,,,,,,,,,,,,,,,,,,,,,,,,,,,,,,,,,
,,698250f02c81242e57185b4f,2026-03-17_17h15.42.625,kallum_motion_pilot_GIST_update_2,2026.1.1,Win32,60.24096386,698250f02c81242e57185b4f,69b95efdef24cd8a694e89ee,69b9600d60f20d7fab57f71b,0.0431,0.0431,0,45,45,154,1,sixfive,,,,,,,,,,,,,,,,,,,,,,,,,,,,,,,,,,,,,,,,,,,,,,,,,,,,,,,,,,,,,,,,,,,,,,,,,,,,,,,,,,,,,,,,,,,,,,,,,,,,,,,,,,,,,,,,,,,,,,,,,,,,,,,,,,,,,,,,,
,,698250f02c81242e57185b4f,2026-03-17_17h15.42.625,kallum_motion_pilot_GIST_update_2,2026.1.1,Win32,60.24096386,698250f02c81242e57185b4f,69b95efdef24cd8a694e89ee,69b9600d60f20d7fab57f71b,0.0433,0.0433,0,46,46,21,1,threefour,,,,,,,,,,,,,,,,,,,,,,,,,,,,,,,,,,,,,,,,,,,,,,,,,,,,,,,,,,,,,,,,,,,,,,,,,,,,,,,,,,,,,,,,,,,,,,,,,,,,,,,,,,,,,,,,,,,,,,,,,,,,,,,,,,,,,,,,,
,,698250f02c81242e57185b4f,2026-03-17_17h15.42.625,kallum_motion_pilot_GIST_update_2,2026.1.1,Win32,60.24096386,698250f02c81242e57185b4f,69b95efdef24cd8a694e89ee,69b9600d60f20d7fab57f71b,0.0435,0.0435,0,47,47,76,1,threeone,,,,,,,,,,,,,,,,,,,,,,,,,,,,,,,,,,,,,,,,,,,,,,,,,,,,,,,,,,,,,,,,,,,,,,,,,,,,,,,,,,,,,,,,,,,,,,,,,,,,,,,,,,,,,,,,,,,,,,,,,,,,,,,,,,,,,,,,,
,,698250f02c81242e57185b4f,2026-03-17_17h15.42.625,kallum_motion_pilot_GIST_update_2,2026.1.1,Win32,60.24096386,698250f02c81242e57185b4f,69b95efdef24cd8a694e89ee,69b9600d60f20d7fab57f71b,0.0436,0.0436,0,48,48,53,1,threefour,,,,,,,,,,,,,,,,,,,,,,,,,,,,,,,,,,,,,,,,,,,,,,,,,,,,,,,,,,,,,,,,,,,,,,,,,,,,,,,,,,,,,,,,,,,,,,,,,,,,,,,,,,,,,,,,,,,,,,,,,,,,,,,,,,,,,,,,,
,,698250f02c81242e57185b4f,2026-03-17_17h15.42.625,kallum_motion_pilot_GIST_update_2,2026.1.1,Win32,60.24096386,698250f02c81242e57185b4f,69b95efdef24cd8a694e89ee,69b9600d60f20d7fab57f71b,0.0439,0.0439,0,49,49,39,1,fourthree,,,,,,,,,,,,,,,,,,,,,,,,,,,,,,,,,,,,,,,,,,,,,,,,,,,,,,,,,,,,,,,,,,,,,,,,,,,,,,,,,,,,,,,,,,,,,,,,,,,,,,,,,,,,,,,,,,,,,,,,,,,,,,,,,,,,,,,,,
,,698250f02c81242e57185b4f,2026-03-17_17h15.42.625,kallum_motion_pilot_GIST_update_2,2026.1.1,Win32,60.24096386,698250f02c81242e57185b4f,69b95efdef24cd8a694e89ee,69b9600d60f20d7fab57f71b,0.0442,0.0442,0,50,50,65,1,onethree,,,,,,,,,,,,,,,,,,,,,,,,,,,,,,,,,,,,,,,,,,,,,,,,,,,,,,,,,,,,,,,,,,,,,,,,,,,,,,,,,,,,,,,,,,,,,,,,,,,,,,,,,,,,,,,,,,,,,,,,,,,,,,,,,,,,,,,,,
,,698250f02c81242e57185b4f,2026-03-17_17h15.42.625,kallum_motion_pilot_GIST_update_2,2026.1.1,Win32,60.24096386,698250f02c81242e57185b4f,69b95efdef24cd8a694e89ee,69b9600d60f20d7fab57f71b,0.0442,0.0443,0,51,51,157,1,seveneight,,,,,,,,,,,,,,,,,,,,,,,,,,,,,,,,,,,,,,,,,,,,,,,,,,,,,,,,,,,,,,,,,,,,,,,,,,,,,,,,,,,,,,,,,,,,,,,,,,,,,,,,,,,,,,,,,,,,,,,,,,,,,,,,,,,,,,,,,
,,698250f02c81242e57185b4f,2026-03-17_17h15.42.625,kallum_motion_pilot_GIST_update_2,2026.1.1,Win32,60.24096386,698250f02c81242e57185b4f,69b95efdef24cd8a694e89ee,69b9600d60f20d7fab57f71b,0.0444,0.0445,0,52,52,27,1,twofour,,,,,,,,,,,,,,,,,,,,,,,,,,,,,,,,,,,,,,,,,,,,,,,,,,,,,,,,,,,,,,,,,,,,,,,,,,,,,,,,,,,,,,,,,,,,,,,,,,,,,,,,,,,,,,,,,,,,,,,,,,,,,,,,,,,,,,,,,
,,698250f02c81242e57185b4f,2026-03-17_17h15.42.625,kallum_motion_pilot_GIST_update_2,2026.1.1,Win32,60.24096386,698250f02c81242e57185b4f,69b95efdef24cd8a694e89ee,69b9600d60f20d7fab57f71b,0.0447,0.0447,0,53,53,69,1,threefour,,,,,,,,,,,,,,,,,,,,,,,,,,,,,,,,,,,,,,,,,,,,,,,,,,,,,,,,,,,,,,,,,,,,,,,,,,,,,,,,,,,,,,,,,,,,,,,,,,,,,,,,,,,,,,,,,,,,,,,,,,,,,,,,,,,,,,,,,
,,698250f02c81242e57185b4f,2026-03-17_17h15.42.625,kallum_motion_pilot_GIST_update_2,2026.1.1,Win32,60.24096386,698250f02c81242e57185b4f,69b95efdef24cd8a694e89ee,69b9600d60f20d7fab57f71b,0.045,0.045,0,54,54,86,1,eightsix,,,,,,,,,,,,,,,,,,,,,,,,,,,,,,,,,,,,,,,,,,,,,,,,,,,,,,,,,,,,,,,,,,,,,,,,,,,,,,,,,,,,,,,,,,,,,,,,,,,,,,,,,,,,,,,,,,,,,,,,,,,,,,,,,,,,,,,,,
,,698250f02c81242e57185b4f,2026-03-17_17h15.42.625,kallum_motion_pilot_GIST_update_2,2026.1.1,Win32,60.24096386,698250f02c81242e57185b4f,69b95efdef24cd8a694e89ee,69b9600d60f20d7fab57f71b,0.0453,0.0453,0,55,55,118,1,eightsix,,,,,,,,,,,,,,,,,,,,,,,,,,,,,,,,,,,,,,,,,,,,,,,,,,,,,,,,,,,,,,,,,,,,,,,,,,,,,,,,,,,,,,,,,,,,,,,,,,,,,,,,,,,,,,,,,,,,,,,,,,,,,,,,,,,,,,,,,
,,698250f02c81242e57185b4f,2026-03-17_17h15.42.625,kallum_motion_pilot_GIST_update_2,2026.1.1,Win32,60.24096386,698250f02c81242e57185b4f,69b95efdef24cd8a694e89ee,69b9600d60f20d7fab57f71b,0.0455,0.0455,0,56,56,88,1,fivesix,,,,,,,,,,,,,,,,,,,,,,,,,,,,,,,,,,,,,,,,,,,,,,,,,,,,,,,,,,,,,,,,,,,,,,,,,,,,,,,,,,,,,,,,,,,,,,,,,,,,,,,,,,,,,,,,,,,,,,,,,,,,,,,,,,,,,,,,,
,,698250f02c81242e57185b4f,2026-03-17_17h15.42.625,kallum_motion_pilot_GIST_update_2,2026.1.1,Win32,60.24096386,698250f02c81242e57185b4f,69b95efdef24cd8a694e89ee,69b9600d60f20d7fab57f71b,0.0456,0.0456,0,57,57,19,1,twofour,,,,,,,,,,,,,,,,,,,,,,,,,,,,,,,,,,,,,,,,,,,,,,,,,,,,,,,,,,,,,,,,,,,,,,,,,,,,,,,,,,,,,,,,,,,,,,,,,,,,,,,,,,,,,,,,,,,,,,,,,,,,,,,,,,,,,,,,,
,,698250f02c81242e57185b4f,2026-03-17_17h15.42.625,kallum_motion_pilot_GIST_update_2,2026.1.1,Win32,60.24096386,698250f02c81242e57185b4f,69b95efdef24cd8a694e89ee,69b9600d60f20d7fab57f71b,0.0459,0.0459,0,58,58,37,1,threefour,,,,,,,,,,,,,,,,,,,,,,,,,,,,,,,,,,,,,,,,,,,,,,,,,,,,,,,,,,,,,,,,,,,,,,,,,,,,,,,,,,,,,,,,,,,,,,,,,,,,,,,,,,,,,,,,,,,,,,,,,,,,,,,,,,,,,,,,,
,,698250f02c81242e57185b4f,2026-03-17_17h15.42.625,kallum_motion_pilot_GIST_update_2,2026.1.1,Win32,60.24096386,698250f02c81242e57185b4f,69b95efdef24cd8a694e89ee,69b9600d60f20d7fab57f71b,0.046,0.046,0,59,59,42,1,twoone,,,,,,,,,,,,,,,,,,,,,,,,,,,,,,,,,,,,,,,,,,,,,,,,,,,,,,,,,,,,,,,,,,,,,,,,,,,,,,,,,,,,,,,,,,,,,,,,,,,,,,,,,,,,,,,,,,,,,,,,,,,,,,,,,,,,,,,,,
,,698250f02c81242e57185b4f,2026-03-17_17h15.42.625,kallum_motion_pilot_GIST_update_2,2026.1.1,Win32,60.24096386,698250f02c81242e57185b4f,69b95efdef24cd8a694e89ee,69b9600d60f20d7fab57f71b,0.0462,0.0463,0,60,60,100,1,sevenfive,,,,,,,,,,,,,,,,,,,,,,,,,,,,,,,,,,,,,,,,,,,,,,,,,,,,,,,,,,,,,,,,,,,,,,,,,,,,,,,,,,,,,,,,,,,,,,,,,,,,,,,,,,,,,,,,,,,,,,,,,,,,,,,,,,,,,,,,,
,,698250f02c81242e57185b4f,2026-03-17_17h15.42.625,kallum_motion_pilot_GIST_update_2,2026.1.1,Win32,60.24096386,698250f02c81242e57185b4f,69b95efdef24cd8a694e89ee,69b9600d60f20d7fab57f71b,0.0464,0.0464,0,61,61,31,1,fourthree,,,,,,,,,,,,,,,,,,,,,,,,,,,,,,,,,,,,,,,,,,,,,,,,,,,,,,,,,,,,,,,,,,,,,,,,,,,,,,,,,,,,,,,,,,,,,,,,,,,,,,,,,,,,,,,,,,,,,,,,,,,,,,,,,,,,,,,,,
,,698250f02c81242e57185b4f,2026-03-17_17h15.42.625,kallum_motion_pilot_GIST_update_2,2026.1.1,Win32,60.24096386,698250f02c81242e57185b4f,69b95efdef24cd8a694e89ee,69b9600d60f20d7fab57f71b,0.0466,0.0466,0,62,62,60,1,threeone,,,,,,,,,,,,,,,,,,,,,,,,,,,,,,,,,,,,,,,,,,,,,,,,,,,,,,,,,,,,,,,,,,,,,,,,,,,,,,,,,,,,,,,,,,,,,,,,,,,,,,,,,,,,,,,,,,,,,,,,,,,,,,,,,,,,,,,,,
,,698250f02c81242e57185b4f,2026-03-17_17h15.42.625,kallum_motion_pilot_GIST_update_2,2026.1.1,Win32,60.24096386,698250f02c81242e57185b4f,69b95efdef24cd8a694e89ee,69b9600d60f20d7fab57f71b,0.0469,0.0469,0,63,63,121,1,fiveseven,,,,,,,,,,,,,,,,,,,,,,,,,,,,,,,,,,,,,,,,,,,,,,,,,,,,,,,,,,,,,,,,,,,,,,,,,,,,,,,,,,,,,,,,,,,,,,,,,,,,,,,,,,,,,,,,,,,,,,,,,,,,,,,,,,,,,,,,,
,,698250f02c81242e57185b4f,2026-03-17_17h15.42.625,kallum_motion_pilot_GIST_update_2,2026.1.1,Win32,60.24096386,698250f02c81242e57185b4f,69b95efdef24cd8a694e89ee,69b9600d60f20d7fab57f71b,0.0472,0.0472,0,64,64,48,1,onetwo,,,,,,,,,,,,,,,,,,,,,,,,,,,,,,,,,,,,,,,,,,,,,,,,,,,,,,,,,,,,,,,,,,,,,,,,,,,,,,,,,,,,,,,,,,,,,,,,,,,,,,,,,,,,,,,,,,,,,,,,,,,,,,,,,,,,,,,,,
,,698250f02c81242e57185b4f,2026-03-17_17h15.42.625,kallum_motion_pilot_GIST_update_2,2026.1.1,Win32,60.24096386,698250f02c81242e57185b4f,69b95efdef24cd8a694e89ee,69b9600d60f20d7fab57f71b,0.0474,0.0474,0,65,65,111,1,eightseven,,,,,,,,,,,,,,,,,,,,,,,,,,,,,,,,,,,,,,,,,,,,,,,,,,,,,,,,,,,,,,,,,,,,,,,,,,,,,,,,,,,,,,,,,,,,,,,,,,,,,,,,,,,,,,,,,,,,,,,,,,,,,,,,,,,,,,,,,
,,698250f02c81242e57185b4f,2026-03-17_17h15.42.625,kallum_motion_pilot_GIST_update_2,2026.1.1,Win32,60.24096386,698250f02c81242e57185b4f,69b95efdef24cd8a694e89ee,69b9600d60f20d7fab57f71b,0.0477,0.0477,0,66,66,80,1,fivesix,,,,,,,,,,,,,,,,,,,,,,,,,,,,,,,,,,,,,,,,,,,,,,,,,,,,,,,,,,,,,,,,,,,,,,,,,,,,,,,,,,,,,,,,,,,,,,,,,,,,,,,,,,,,,,,,,,,,,,,,,,,,,,,,,,,,,,,,,
,,698250f02c81242e57185b4f,2026-03-17_17h15.42.625,kallum_motion_pilot_GIST_update_2,2026.1.1,Win32,60.24096386,698250f02c81242e57185b4f,69b95efdef24cd8a694e89ee,69b9600d60f20d7fab57f71b,0.048,0.048,0,67,67,22,1,fourtwo,,,,,,,,,,,,,,,,,,,,,,,,,,,,,,,,,,,,,,,,,,,,,,,,,,,,,,,,,,,,,,,,,,,,,,,,,,,,,,,,,,,,,,,,,,,,,,,,,,,,,,,,,,,,,,,,,,,,,,,,,,,,,,,,,,,,,,,,,
,,698250f02c81242e57185b4f,2026-03-17_17h15.42.625,kallum_motion_pilot_GIST_update_2,2026.1.1,Win32,60.24096386,698250f02c81242e57185b4f,69b95efdef24cd8a694e89ee,69b9600d60f20d7fab57f71b,0.0483,0.0483,0,68,68,57,1,onethree,,,,,,,,,,,,,,,,,,,,,,,,,,,,,,,,,,,,,,,,,,,,,,,,,,,,,,,,,,,,,,,,,,,,,,,,,,,,,,,,,,,,,,,,,,,,,,,,,,,,,,,,,,,,,,,,,,,,,,,,,,,,,,,,,,,,,,,,,
,,698250f02c81242e57185b4f,2026-03-17_17h15.42.625,kallum_motion_pilot_GIST_update_2,2026.1.1,Win32,60.24096386,698250f02c81242e57185b4f,69b95efdef24cd8a694e89ee,69b9600d60f20d7fab57f71b,0.0486,0.0486,0,69,69,74,1,twoone,,,,,,,,,,,,,,,,,,,,,,,,,,,,,,,,,,,,,,,,,,,,,,,,,,,,,,,,,,,,,,,,,,,,,,,,,,,,,,,,,,,,,,,,,,,,,,,,,,,,,,,,,,,,,,,,,,,,,,,,,,,,,,,,,,,,,,,,,
,,698250f02c81242e57185b4f,2026-03-17_17h15.42.625,kallum_motion_pilot_GIST_update_2,2026.1.1,Win32,60.24096386,698250f02c81242e57185b4f,69b95efdef24cd8a694e89ee,69b9600d60f20d7fab57f71b,0.0488,0.0488,0,70,70,35,1,twofour,,,,,,,,,,,,,,,,,,,,,,,,,,,,,,,,,,,,,,,,,,,,,,,,,,,,,,,,,,,,,,,,,,,,,,,,,,,,,,,,,,,,,,,,,,,,,,,,,,,,,,,,,,,,,,,,,,,,,,,,,,,,,,,,,,,,,,,,,
,,698250f02c81242e57185b4f,2026-03-17_17h15.42.625,kallum_motion_pilot_GIST_update_2,2026.1.1,Win32,60.24096386,698250f02c81242e57185b4f,69b95efdef24cd8a694e89ee,69b9600d60f20d7fab57f71b,0.049,0.049,0,71,71,1,1,onethree,,,,,,,,,,,,,,,,,,,,,,,,,,,,,,,,,,,,,,,,,,,,,,,,,,,,,,,,,,,,,,,,,,,,,,,,,,,,,,,,,,,,,,,,,,,,,,,,,,,,,,,,,,,,,,,,,,,,,,,,,,,,,,,,,,,,,,,,,
,,698250f02c81242e57185b4f,2026-03-17_17h15.42.625,kallum_motion_pilot_GIST_update_2,2026.1.1,Win32,60.24096386,698250f02c81242e57185b4f,69b95efdef24cd8a694e89ee,69b9600d60f20d7fab57f71b,0.0492,0.0493,0,72,72,46,1,fourtwo,,,,,,,,,,,,,,,,,,,,,,,,,,,,,,,,,,,,,,,,,,,,,,,,,,,,,,,,,,,,,,,,,,,,,,,,,,,,,,,,,,,,,,,,,,,,,,,,,,,,,,,,,,,,,,,,,,,,,,,,,,,,,,,,,,,,,,,,,
,,698250f02c81242e57185b4f,2026-03-17_17h15.42.625,kallum_motion_pilot_GIST_update_2,2026.1.1,Win32,60.24096386,698250f02c81242e57185b4f,69b95efdef24cd8a694e89ee,69b9600d60f20d7fab57f71b,0.0496,0.0496,0,73,73,90,1,sixfive,,,,,,,,,,,,,,,,,,,,,,,,,,,,,,,,,,,,,,,,,,,,,,,,,,,,,,,,,,,,,,,,,,,,,,,,,,,,,,,,,,,,,,,,,,,,,,,,,,,,,,,,,,,,,,,,,,,,,,,,,,,,,,,,,,,,,,,,,
,,698250f02c81242e57185b4f,2026-03-17_17h15.42.625,kallum_motion_pilot_GIST_update_2,2026.1.1,Win32,60.24096386,698250f02c81242e57185b4f,69b95efdef24cd8a694e89ee,69b9600d60f20d7fab57f71b,0.0499,0.0499,0,74,74,104,1,fivesix,,,,,,,,,,,,,,,,,,,,,,,,,,,,,,,,,,,,,,,,,,,,,,,,,,,,,,,,,,,,,,,,,,,,,,,,,,,,,,,,,,,,,,,,,,,,,,,,,,,,,,,,,,,,,,,,,,,,,,,,,,,,,,,,,,,,,,,,,
,,698250f02c81242e57185b4f,2026-03-17_17h15.42.625,kallum_motion_pilot_GIST_update_2,2026.1.1,Win32,60.24096386,698250f02c81242e57185b4f,69b95efdef24cd8a694e89ee,69b9600d60f20d7fab57f71b,0.0513,0.0513,0,75,75,105,1,fiveseven,,,,,,,,,,,,,,,,,,,,,,,,,,,,,,,,,,,,,,,,,,,,,,,,,,,,,,,,,,,,,,,,,,,,,,,,,,,,,,,,,,,,,,,,,,,,,,,,,,,,,,,,,,,,,,,,,,,,,,,,,,,,,,,,,,,,,,,,,
,,698250f02c81242e57185b4f,2026-03-17_17h15.42.625,kallum_motion_pilot_GIST_update_2,2026.1.1,Win32,60.24096386,698250f02c81242e57185b4f,69b95efdef24cd8a694e89ee,69b9600d60f20d7fab57f71b,0.0516,0.0516,0,76,76,85,1,seveneight,,,,,,,,,,,,,,,,,,,,,,,,,,,,,,,,,,,,,,,,,,,,,,,,,,,,,,,,,,,,,,,,,,,,,,,,,,,,,,,,,,,,,,,,,,,,,,,,,,,,,,,,,,,,,,,,,,,,,,,,,,,,,,,,,,,,,,,,,
,,698250f02c81242e57185b4f,2026-03-17_17h15.42.625,kallum_motion_pilot_GIST_update_2,2026.1.1,Win32,60.24096386,698250f02c81242e57185b4f,69b95efdef24cd8a694e89ee,69b9600d60f20d7fab57f71b,0.0517,0.0518,0,77,77,16,1,onetwo,,,,,,,,,,,,,,,,,,,,,,,,,,,,,,,,,,,,,,,,,,,,,,,,,,,,,,,,,,,,,,,,,,,,,,,,,,,,,,,,,,,,,,,,,,,,,,,,,,,,,,,,,,,,,,,,,,,,,,,,,,,,,,,,,,,,,,,,,
,,698250f02c81242e57185b4f,2026-03-17_17h15.42.625,kallum_motion_pilot_GIST_update_2,2026.1.1,Win32,60.24096386,698250f02c81242e57185b4f,69b95efdef24cd8a694e89ee,69b9600d60f20d7fab57f71b,0.052,0.052,0,78,78,59,1,twofour,,,,,,,,,,,,,,,,,,,,,,,,,,,,,,,,,,,,,,,,,,,,,,,,,,,,,,,,,,,,,,,,,,,,,,,,,,,,,,,,,,,,,,,,,,,,,,,,,,,,,,,,,,,,,,,,,,,,,,,,,,,,,,,,,,,,,,,,,
,,698250f02c81242e57185b4f,2026-03-17_17h15.42.625,kallum_motion_pilot_GIST_update_2,2026.1.1,Win32,60.24096386,698250f02c81242e57185b4f,69b95efdef24cd8a694e89ee,69b9600d60f20d7fab57f71b,0.0522,0.0522,0,79,79,84,1,sevenfive,,,,,,,,,,,,,,,,,,,,,,,,,,,,,,,,,,,,,,,,,,,,,,,,,,,,,,,,,,,,,,,,,,,,,,,,,,,,,,,,,,,,,,,,,,,,,,,,,,,,,,,,,,,,,,,,,,,,,,,,,,,,,,,,,,,,,,,,,
,,698250f02c81242e57185b4f,2026-03-17_17h15.42.625,kallum_motion_pilot_GIST_update_2,2026.1.1,Win32,60.24096386,698250f02c81242e57185b4f,69b95efdef24cd8a694e89ee,69b9600d60f20d7fab57f71b,0.0524,0.0524,0,80,80,95,1,eightseven,,,,,,,,,,,,,,,,,,,,,,,,,,,,,,,,,,,,,,,,,,,,,,,,,,,,,,,,,,,,,,,,,,,,,,,,,,,,,,,,,,,,,,,,,,,,,,,,,,,,,,,,,,,,,,,,,,,,,,,,,,,,,,,,,,,,,,,,,
,,698250f02c81242e57185b4f,2026-03-17_17h15.42.625,kallum_motion_pilot_GIST_update_2,2026.1.1,Win32,60.24096386,698250f02c81242e57185b4f,69b95efdef24cd8a694e89ee,69b9600d60f20d7fab57f71b,0.0526,0.0526,0,81,81,140,1,sevenfive,,,,,,,,,,,,,,,,,,,,,,,,,,,,,,,,,,,,,,,,,,,,,,,,,,,,,,,,,,,,,,,,,,,,,,,,,,,,,,,,,,,,,,,,,,,,,,,,,,,,,,,,,,,,,,,,,,,,,,,,,,,,,,,,,,,,,,,,,
,,698250f02c81242e57185b4f,2026-03-17_17h15.42.625,kallum_motion_pilot_GIST_update_2,2026.1.1,Win32,60.24096386,698250f02c81242e57185b4f,69b95efdef24cd8a694e89ee,69b9600d60f20d7fab57f71b,0.0528,0.0528,0,82,82,142,1,eightsix,,,,,,,,,,,,,,,,,,,,,,,,,,,,,,,,,,,,,,,,,,,,,,,,,,,,,,,,,,,,,,,,,,,,,,,,,,,,,,,,,,,,,,,,,,,,,,,,,,,,,,,,,,,,,,,,,,,,,,,,,,,,,,,,,,,,,,,,,
,,698250f02c81242e57185b4f,2026-03-17_17h15.42.625,kallum_motion_pilot_GIST_update_2,2026.1.1,Win32,60.24096386,698250f02c81242e57185b4f,69b95efdef24cd8a694e89ee,69b9600d60f20d7fab57f71b,0.053,0.053,0,83,83,103,1,eightseven,,,,,,,,,,,,,,,,,,,,,,,,,,,,,,,,,,,,,,,,,,,,,,,,,,,,,,,,,,,,,,,,,,,,,,,,,,,,,,,,,,,,,,,,,,,,,,,,,,,,,,,,,,,,,,,,,,,,,,,,,,,,,,,,,,,,,,,,,
,,698250f02c81242e57185b4f,2026-03-17_17h15.42.625,kallum_motion_pilot_GIST_update_2,2026.1.1,Win32,60.24096386,698250f02c81242e57185b4f,69b95efdef24cd8a694e89ee,69b9600d60f20d7fab57f71b,0.0532,0.0532,0,84,84,141,1,seveneight,,,,,,,,,,,,,,,,,,,,,,,,,,,,,,,,,,,,,,,,,,,,,,,,,,,,,,,,,,,,,,,,,,,,,,,,,,,,,,,,,,,,,,,,,,,,,,,,,,,,,,,,,,,,,,,,,,,,,,,,,,,,,,,,,,,,,,,,,
,,698250f02c81242e57185b4f,2026-03-17_17h15.42.625,kallum_motion_pilot_GIST_update_2,2026.1.1,Win32,60.24096386,698250f02c81242e57185b4f,69b95efdef24cd8a694e89ee,69b9600d60f20d7fab57f71b,0.0534,0.0534,0,85,85,137,1,fiveseven,,,,,,,,,,,,,,,,,,,,,,,,,,,,,,,,,,,,,,,,,,,,,,,,,,,,,,,,,,,,,,,,,,,,,,,,,,,,,,,,,,,,,,,,,,,,,,,,,,,,,,,,,,,,,,,,,,,,,,,,,,,,,,,,,,,,,,,,,
,,698250f02c81242e57185b4f,2026-03-17_17h15.42.625,kallum_motion_pilot_GIST_update_2,2026.1.1,Win32,60.24096386,698250f02c81242e57185b4f,69b95efdef24cd8a694e89ee,69b9600d60f20d7fab57f71b,0.0537,0.0537,0,86,86,58,1,twoone,,,,,,,,,,,,,,,,,,,,,,,,,,,,,,,,,,,,,,,,,,,,,,,,,,,,,,,,,,,,,,,,,,,,,,,,,,,,,,,,,,,,,,,,,,,,,,,,,,,,,,,,,,,,,,,,,,,,,,,,,,,,,,,,,,,,,,,,,
,,698250f02c81242e57185b4f,2026-03-17_17h15.42.625,kallum_motion_pilot_GIST_update_2,2026.1.1,Win32,60.24096386,698250f02c81242e57185b4f,69b95efdef24cd8a694e89ee,69b9600d60f20d7fab57f71b,0.0538,0.0538,0,87,87,54,1,fourtwo,,,,,,,,,,,,,,,,,,,,,,,,,,,,,,,,,,,,,,,,,,,,,,,,,,,,,,,,,,,,,,,,,,,,,,,,,,,,,,,,,,,,,,,,,,,,,,,,,,,,,,,,,,,,,,,,,,,,,,,,,,,,,,,,,,,,,,,,,
,,698250f02c81242e57185b4f,2026-03-17_17h15.42.625,kallum_motion_pilot_GIST_update_2,2026.1.1,Win32,60.24096386,698250f02c81242e57185b4f,69b95efdef24cd8a694e89ee,69b9600d60f20d7fab57f71b,0.054,0.054,0,88,88,89,1,fiveseven,,,,,,,,,,,,,,,,,,,,,,,,,,,,,,,,,,,,,,,,,,,,,,,,,,,,,,,,,,,,,,,,,,,,,,,,,,,,,,,,,,,,,,,,,,,,,,,,,,,,,,,,,,,,,,,,,,,,,,,,,,,,,,,,,,,,,,,,,
,,698250f02c81242e57185b4f,2026-03-17_17h15.42.625,kallum_motion_pilot_GIST_update_2,2026.1.1,Win32,60.24096386,698250f02c81242e57185b4f,69b95efdef24cd8a694e89ee,69b9600d60f20d7fab57f71b,0.0542,0.0542,0,89,89,77,1,threefour,,,,,,,,,,,,,,,,,,,,,,,,,,,,,,,,,,,,,,,,,,,,,,,,,,,,,,,,,,,,,,,,,,,,,,,,,,,,,,,,,,,,,,,,,,,,,,,,,,,,,,,,,,,,,,,,,,,,,,,,,,,,,,,,,,,,,,,,,
,,698250f02c81242e57185b4f,2026-03-17_17h15.42.625,kallum_motion_pilot_GIST_update_2,2026.1.1,Win32,60.24096386,698250f02c81242e57185b4f,69b95efdef24cd8a694e89ee,69b9600d60f20d7fab57f71b,0.0544,0.0544,0,90,90,4,1,threeone,,,,,,,,,,,,,,,,,,,,,,,,,,,,,,,,,,,,,,,,,,,,,,,,,,,,,,,,,,,,,,,,,,,,,,,,,,,,,,,,,,,,,,,,,,,,,,,,,,,,,,,,,,,,,,,,,,,,,,,,,,,,,,,,,,,,,,,,,
,,698250f02c81242e57185b4f,2026-03-17_17h15.42.625,kallum_motion_pilot_GIST_update_2,2026.1.1,Win32,60.24096386,698250f02c81242e57185b4f,69b95efdef24cd8a694e89ee,69b9600d60f20d7fab57f71b,0.0545,0.0546,0,91,91,122,1,sixfive,,,,,,,,,,,,,,,,,,,,,,,,,,,,,,,,,,,,,,,,,,,,,,,,,,,,,,,,,,,,,,,,,,,,,,,,,,,,,,,,,,,,,,,,,,,,,,,,,,,,,,,,,,,,,,,,,,,,,,,,,,,,,,,,,,,,,,,,,
,,698250f02c81242e57185b4f,2026-03-17_17h15.42.625,kallum_motion_pilot_GIST_update_2,2026.1.1,Win32,60.24096386,698250f02c81242e57185b4f,69b95efdef24cd8a694e89ee,69b9600d60f20d7fab57f71b,0.0548,0.0548,0,92,92,63,1,fourthree,,,,,,,,,,,,,,,,,,,,,,,,,,,,,,,,,,,,,,,,,,,,,,,,,,,,,,,,,,,,,,,,,,,,,,,,,,,,,,,,,,,,,,,,,,,,,,,,,,,,,,,,,,,,,,,,,,,,,,,,,,,,,,,,,,,,,,,,,
,,698250f02c81242e57185b4f,2026-03-17_17h15.42.625,kallum_motion_pilot_GIST_update_2,2026.1.1,Win32,60.24096386,698250f02c81242e57185b4f,69b95efdef24cd8a694e89ee,69b9600d60f20d7fab57f71b,0.0551,0.0551,0,93,93,41,1,onethree,,,,,,,,,,,,,,,,,,,,,,,,,,,,,,,,,,,,,,,,,,,,,,,,,,,,,,,,,,,,,,,,,,,,,,,,,,,,,,,,,,,,,,,,,,,,,,,,,,,,,,,,,,,,,,,,,,,,,,,,,,,,,,,,,,,,,,,,,
,,698250f02c81242e57185b4f,2026-03-17_17h15.42.625,kallum_motion_pilot_GIST_update_2,2026.1.1,Win32,60.24096386,698250f02c81242e57185b4f,69b95efdef24cd8a694e89ee,69b9600d60f20d7fab57f71b,0.0553,0.0553,0,94,94,101,1,seveneight,,,,,,,,,,,,,,,,,,,,,,,,,,,,,,,,,,,,,,,,,,,,,,,,,,,,,,,,,,,,,,,,,,,,,,,,,,,,,,,,,,,,,,,,,,,,,,,,,,,,,,,,,,,,,,,,,,,,,,,,,,,,,,,,,,,,,,,,,
,,698250f02c81242e57185b4f,2026-03-17_17h15.42.625,kallum_motion_pilot_GIST_update_2,2026.1.1,Win32,60.24096386,698250f02c81242e57185b4f,69b95efdef24cd8a694e89ee,69b9600d60f20d7fab57f71b,0.0555,0.0555,0,95,95,52,1,threeone,,,,,,,,,,,,,,,,,,,,,,,,,,,,,,,,,,,,,,,,,,,,,,,,,,,,,,,,,,,,,,,,,,,,,,,,,,,,,,,,,,,,,,,,,,,,,,,,,,,,,,,,,,,,,,,,,,,,,,,,,,,,,,,,,,,,,,,,,
,,698250f02c81242e57185b4f,2026-03-17_17h15.42.625,kallum_motion_pilot_GIST_update_2,2026.1.1,Win32,60.24096386,698250f02c81242e57185b4f,69b95efdef24cd8a694e89ee,69b9600d60f20d7fab57f71b,0.0558,0.0558,0,96,96,132,1,sevenfive,,,,,,,,,,,,,,,,,,,,,,,,,,,,,,,,,,,,,,,,,,,,,,,,,,,,,,,,,,,,,,,,,,,,,,,,,,,,,,,,,,,,,,,,,,,,,,,,,,,,,,,,,,,,,,,,,,,,,,,,,,,,,,,,,,,,,,,,,
,,698250f02c81242e57185b4f,2026-03-17_17h15.42.625,kallum_motion_pilot_GIST_update_2,2026.1.1,Win32,60.24096386,698250f02c81242e57185b4f,69b95efdef24cd8a694e89ee,69b9600d60f20d7fab57f71b,0.0559,0.0559,0,97,97,134,1,eightsix,,,,,,,,,,,,,,,,,,,,,,,,,,,,,,,,,,,,,,,,,,,,,,,,,,,,,,,,,,,,,,,,,,,,,,,,,,,,,,,,,,,,,,,,,,,,,,,,,,,,,,,,,,,,,,,,,,,,,,,,,,,,,,,,,,,,,,,,,
,,698250f02c81242e57185b4f,2026-03-17_17h15.42.625,kallum_motion_pilot_GIST_update_2,2026.1.1,Win32,60.24096386,698250f02c81242e57185b4f,69b95efdef24cd8a694e89ee,69b9600d60f20d7fab57f71b,0.0561,0.0561,0,98,98,107,1,sixeight,,,,,,,,,,,,,,,,,,,,,,,,,,,,,,,,,,,,,,,,,,,,,,,,,,,,,,,,,,,,,,,,,,,,,,,,,,,,,,,,,,,,,,,,,,,,,,,,,,,,,,,,,,,,,,,,,,,,,,,,,,,,,,,,,,,,,,,,,
,,698250f02c81242e57185b4f,2026-03-17_17h15.42.625,kallum_motion_pilot_GIST_update_2,2026.1.1,Win32,60.24096386,698250f02c81242e57185b4f,69b95efdef24cd8a694e89ee,69b9600d60f20d7fab57f71b,0.0563,0.0563,0,99,99,83,1,sixeight,,,,,,,,,,,,,,,,,,,,,,,,,,,,,,,,,,,,,,,,,,,,,,,,,,,,,,,,,,,,,,,,,,,,,,,,,,,,,,,,,,,,,,,,,,,,,,,,,,,,,,,,,,,,,,,,,,,,,,,,,,,,,,,,,,,,,,,,,
,,698250f02c81242e57185b4f,2026-03-17_17h15.42.625,kallum_motion_pilot_GIST_update_2,2026.1.1,Win32,60.24096386,698250f02c81242e57185b4f,69b95efdef24cd8a694e89ee,69b9600d60f20d7fab57f71b,0.0565,0.0565,0,100,100,64,1,onetwo,,,,,,,,,,,,,,,,,,,,,,,,,,,,,,,,,,,,,,,,,,,,,,,,,,,,,,,,,,,,,,,,,,,,,,,,,,,,,,,,,,,,,,,,,,,,,,,,,,,,,,,,,,,,,,,,,,,,,,,,,,,,,,,,,,,,,,,,,
,,698250f02c81242e57185b4f,2026-03-17_17h15.42.625,kallum_motion_pilot_GIST_update_2,2026.1.1,Win32,60.24096386,698250f02c81242e57185b4f,69b95efdef24cd8a694e89ee,69b9600d60f20d7fab57f71b,0.0567,0.0567,0,101,101,34,1,twoone,,,,,,,,,,,,,,,,,,,,,,,,,,,,,,,,,,,,,,,,,,,,,,,,,,,,,,,,,,,,,,,,,,,,,,,,,,,,,,,,,,,,,,,,,,,,,,,,,,,,,,,,,,,,,,,,,,,,,,,,,,,,,,,,,,,,,,,,,
,,698250f02c81242e57185b4f,2026-03-17_17h15.42.625,kallum_motion_pilot_GIST_update_2,2026.1.1,Win32,60.24096386,698250f02c81242e57185b4f,69b95efdef24cd8a694e89ee,69b9600d60f20d7fab57f71b,0.0569,0.0569,0,102,102,55,1,fourthree,,,,,,,,,,,,,,,,,,,,,,,,,,,,,,,,,,,,,,,,,,,,,,,,,,,,,,,,,,,,,,,,,,,,,,,,,,,,,,,,,,,,,,,,,,,,,,,,,,,,,,,,,,,,,,,,,,,,,,,,,,,,,,,,,,,,,,,,,
,,698250f02c81242e57185b4f,2026-03-17_17h15.42.625,kallum_motion_pilot_GIST_update_2,2026.1.1,Win32,60.24096386,698250f02c81242e57185b4f,69b95efdef24cd8a694e89ee,69b9600d60f20d7fab57f71b,0.0571,0.0571,0,103,103,150,1,eightsix,,,,,,,,,,,,,,,,,,,,,,,,,,,,,,,,,,,,,,,,,,,,,,,,,,,,,,,,,,,,,,,,,,,,,,,,,,,,,,,,,,,,,,,,,,,,,,,,,,,,,,,,,,,,,,,,,,,,,,,,,,,,,,,,,,,,,,,,,
,,698250f02c81242e57185b4f,2026-03-17_17h15.42.625,kallum_motion_pilot_GIST_update_2,2026.1.1,Win32,60.24096386,698250f02c81242e57185b4f,69b95efdef24cd8a694e89ee,69b9600d60f20d7fab57f71b,0.0573,0.0573,0,104,104,143,1,eightseven,,,,,,,,,,,,,,,,,,,,,,,,,,,,,,,,,,,,,,,,,,,,,,,,,,,,,,,,,,,,,,,,,,,,,,,,,,,,,,,,,,,,,,,,,,,,,,,,,,,,,,,,,,,,,,,,,,,,,,,,,,,,,,,,,,,,,,,,,
,,698250f02c81242e57185b4f,2026-03-17_17h15.42.625,kallum_motion_pilot_GIST_update_2,2026.1.1,Win32,60.24096386,698250f02c81242e57185b4f,69b95efdef24cd8a694e89ee,69b9600d60f20d7fab57f71b,0.0574,0.0574,0,105,105,50,1,twoone,,,,,,,,,,,,,,,,,,,,,,,,,,,,,,,,,,,,,,,,,,,,,,,,,,,,,,,,,,,,,,,,,,,,,,,,,,,,,,,,,,,,,,,,,,,,,,,,,,,,,,,,,,,,,,,,,,,,,,,,,,,,,,,,,,,,,,,,,
,,698250f02c81242e57185b4f,2026-03-17_17h15.42.625,kallum_motion_pilot_GIST_update_2,2026.1.1,Win32,60.24096386,698250f02c81242e57185b4f,69b95efdef24cd8a694e89ee,69b9600d60f20d7fab57f71b,0.0577,0.0577,0,106,106,43,1,twofour,,,,,,,,,,,,,,,,,,,,,,,,,,,,,,,,,,,,,,,,,,,,,,,,,,,,,,,,,,,,,,,,,,,,,,,,,,,,,,,,,,,,,,,,,,,,,,,,,,,,,,,,,,,,,,,,,,,,,,,,,,,,,,,,,,,,,,,,,
,,698250f02c81242e57185b4f,2026-03-17_17h15.42.625,kallum_motion_pilot_GIST_update_2,2026.1.1,Win32,60.24096386,698250f02c81242e57185b4f,69b95efdef24cd8a694e89ee,69b9600d60f20d7fab57f71b,0.0579,0.0579,0,107,107,102,1,eightsix,,,,,,,,,,,,,,,,,,,,,,,,,,,,,,,,,,,,,,,,,,,,,,,,,,,,,,,,,,,,,,,,,,,,,,,,,,,,,,,,,,,,,,,,,,,,,,,,,,,,,,,,,,,,,,,,,,,,,,,,,,,,,,,,,,,,,,,,,
,,698250f02c81242e57185b4f,2026-03-17_17h15.42.625,kallum_motion_pilot_GIST_update_2,2026.1.1,Win32,60.24096386,698250f02c81242e57185b4f,69b95efdef24cd8a694e89ee,69b9600d60f20d7fab57f71b,0.0581,0.0581,0,108,108,12,1,threeone,,,,,,,,,,,,,,,,,,,,,,,,,,,,,,,,,,,,,,,,,,,,,,,,,,,,,,,,,,,,,,,,,,,,,,,,,,,,,,,,,,,,,,,,,,,,,,,,,,,,,,,,,,,,,,,,,,,,,,,,,,,,,,,,,,,,,,,,,
,,698250f02c81242e57185b4f,2026-03-17_17h15.42.625,kallum_motion_pilot_GIST_update_2,2026.1.1,Win32,60.24096386,698250f02c81242e57185b4f,69b95efdef24cd8a694e89ee,69b9600d60f20d7fab57f71b,0.0582,0.0583,0,109,109,115,1,sixeight,,,,,,,,,,,,,,,,,,,,,,,,,,,,,,,,,,,,,,,,,,,,,,,,,,,,,,,,,,,,,,,,,,,,,,,,,,,,,,,,,,,,,,,,,,,,,,,,,,,,,,,,,,,,,,,,,,,,,,,,,,,,,,,,,,,,,,,,,
,,698250f02c81242e57185b4f,2026-03-17_17h15.42.625,kallum_motion_pilot_GIST_update_2,2026.1.1,Win32,60.24096386,698250f02c81242e57185b4f,69b95efdef24cd8a694e89ee,69b9600d60f20d7fab57f71b,0.0585,0.0585,0,110,110,25,1,onethree,,,,,,,,,,,,,,,,,,,,,,,,,,,,,,,,,,,,,,,,,,,,,,,,,,,,,,,,,,,,,,,,,,,,,,,,,,,,,,,,,,,,,,,,,,,,,,,,,,,,,,,,,,,,,,,,,,,,,,,,,,,,,,,,,,,,,,,,,
,,698250f02c81242e57185b4f,2026-03-17_17h15.42.625,kallum_motion_pilot_GIST_update_2,2026.1.1,Win32,60.24096386,698250f02c81242e57185b4f,69b95efdef24cd8a694e89ee,69b9600d60f20d7fab57f71b,0.0587,0.0587,0,111,111,66,1,twoone,,,,,,,,,,,,,,,,,,,,,,,,,,,,,,,,,,,,,,,,,,,,,,,,,,,,,,,,,,,,,,,,,,,,,,,,,,,,,,,,,,,,,,,,,,,,,,,,,,,,,,,,,,,,,,,,,,,,,,,,,,,,,,,,,,,,,,,,,
,,698250f02c81242e57185b4f,2026-03-17_17h15.42.625,kallum_motion_pilot_GIST_update_2,2026.1.1,Win32,60.24096386,698250f02c81242e57185b4f,69b95efdef24cd8a694e89ee,69b9600d60f20d7fab57f71b,0.0589,0.0589,0,112,112,120,1,fivesix,,,,,,,,,,,,,,,,,,,,,,,,,,,,,,,,,,,,,,,,,,,,,,,,,,,,,,,,,,,,,,,,,,,,,,,,,,,,,,,,,,,,,,,,,,,,,,,,,,,,,,,,,,,,,,,,,,,,,,,,,,,,,,,,,,,,,,,,,
,,698250f02c81242e57185b4f,2026-03-17_17h15.42.625,kallum_motion_pilot_GIST_update_2,2026.1.1,Win32,60.24096386,698250f02c81242e57185b4f,69b95efdef24cd8a694e89ee,69b9600d60f20d7fab57f71b,0.0591,0.0591,0,113,113,159,1,eightseven,,,,,,,,,,,,,,,,,,,,,,,,,,,,,,,,,,,,,,,,,,,,,,,,,,,,,,,,,,,,,,,,,,,,,,,,,,,,,,,,,,,,,,,,,,,,,,,,,,,,,,,,,,,,,,,,,,,,,,,,,,,,,,,,,,,,,,,,,
,,698250f02c81242e57185b4f,2026-03-17_17h15.42.625,kallum_motion_pilot_GIST_update_2,2026.1.1,Win32,60.24096386,698250f02c81242e57185b4f,69b95efdef24cd8a694e89ee,69b9600d60f20d7fab57f71b,0.0593,0.0593,0,114,114,49,1,onethree,,,,,,,,,,,,,,,,,,,,,,,,,,,,,,,,,,,,,,,,,,,,,,,,,,,,,,,,,,,,,,,,,,,,,,,,,,,,,,,,,,,,,,,,,,,,,,,,,,,,,,,,,,,,,,,,,,,,,,,,,,,,,,,,,,,,,,,,,
,,698250f02c81242e57185b4f,2026-03-17_17h15.42.625,kallum_motion_pilot_GIST_update_2,2026.1.1,Win32,60.24096386,698250f02c81242e57185b4f,69b95efdef24cd8a694e89ee,69b9600d60f20d7fab57f71b,0.0596,0.0596,0,115,115,0,1,onetwo,,,,,,,,,,,,,,,,,,,,,,,,,,,,,,,,,,,,,,,,,,,,,,,,,,,,,,,,,,,,,,,,,,,,,,,,,,,,,,,,,,,,,,,,,,,,,,,,,,,,,,,,,,,,,,,,,,,,,,,,,,,,,,,,,,,,,,,,,
,,698250f02c81242e57185b4f,2026-03-17_17h15.42.625,kallum_motion_pilot_GIST_update_2,2026.1.1,Win32,60.24096386,698250f02c81242e57185b4f,69b95efdef24cd8a694e89ee,69b9600d60f20d7fab57f71b,0.0598,0.0598,0,116,116,24,1,onetwo,,,,,,,,,,,,,,,,,,,,,,,,,,,,,,,,,,,,,,,,,,,,,,,,,,,,,,,,,,,,,,,,,,,,,,,,,,,,,,,,,,,,,,,,,,,,,,,,,,,,,,,,,,,,,,,,,,,,,,,,,,,,,,,,,,,,,,,,,
,,698250f02c81242e57185b4f,2026-03-17_17h15.42.625,kallum_motion_pilot_GIST_update_2,2026.1.1,Win32,60.24096386,698250f02c81242e57185b4f,69b95efdef24cd8a694e89ee,69b9600d60f20d7fab57f71b,0.0601,0.0601,0,117,117,71,1,fourthree,,,,,,,,,,,,,,,,,,,,,,,,,,,,,,,,,,,,,,,,,,,,,,,,,,,,,,,,,,,,,,,,,,,,,,,,,,,,,,,,,,,,,,,,,,,,,,,,,,,,,,,,,,,,,,,,,,,,,,,,,,,,,,,,,,,,,,,,,
,,698250f02c81242e57185b4f,2026-03-17_17h15.42.625,kallum_motion_pilot_GIST_update_2,2026.1.1,Win32,60.24096386,698250f02c81242e57185b4f,69b95efdef24cd8a694e89ee,69b9600d60f20d7fab57f71b,0.0602,0.0602,0,118,118,61,1,threefour,,,,,,,,,,,,,,,,,,,,,,,,,,,,,,,,,,,,,,,,,,,,,,,,,,,,,,,,,,,,,,,,,,,,,,,,,,,,,,,,,,,,,,,,,,,,,,,,,,,,,,,,,,,,,,,,,,,,,,,,,,,,,,,,,,,,,,,,,
,,698250f02c81242e57185b4f,2026-03-17_17h15.42.625,kallum_motion_pilot_GIST_update_2,2026.1.1,Win32,60.24096386,698250f02c81242e57185b4f,69b95efdef24cd8a694e89ee,69b9600d60f20d7fab57f71b,0.0605,0.0605,0,119,119,112,1,fivesix,,,,,,,,,,,,,,,,,,,,,,,,,,,,,,,,,,,,,,,,,,,,,,,,,,,,,,,,,,,,,,,,,,,,,,,,,,,,,,,,,,,,,,,,,,,,,,,,,,,,,,,,,,,,,,,,,,,,,,,,,,,,,,,,,,,,,,,,,
,,698250f02c81242e57185b4f,2026-03-17_17h15.42.625,kallum_motion_pilot_GIST_update_2,2026.1.1,Win32,60.24096386,698250f02c81242e57185b4f,69b95efdef24cd8a694e89ee,69b9600d60f20d7fab57f71b,0.0607,0.0607,0,120,120,109,1,seveneight,,,,,,,,,,,,,,,,,,,,,,,,,,,,,,,,,,,,,,,,,,,,,,,,,,,,,,,,,,,,,,,,,,,,,,,,,,,,,,,,,,,,,,,,,,,,,,,,,,,,,,,,,,,,,,,,,,,,,,,,,,,,,,,,,,,,,,,,,
,,698250f02c81242e57185b4f,2026-03-17_17h15.42.625,kallum_motion_pilot_GIST_update_2,2026.1.1,Win32,60.24096386,698250f02c81242e57185b4f,69b95efdef24cd8a694e89ee,69b9600d60f20d7fab57f71b,0.061,0.061,0,121,121,81,1,fiveseven,,,,,,,,,,,,,,,,,,,,,,,,,,,,,,,,,,,,,,,,,,,,,,,,,,,,,,,,,,,,,,,,,,,,,,,,,,,,,,,,,,,,,,,,,,,,,,,,,,,,,,,,,,,,,,,,,,,,,,,,,,,,,,,,,,,,,,,,,
,,698250f02c81242e57185b4f,2026-03-17_17h15.42.625,kallum_motion_pilot_GIST_update_2,2026.1.1,Win32,60.24096386,698250f02c81242e57185b4f,69b95efdef24cd8a694e89ee,69b9600d60f20d7fab57f71b,0.0613,0.0613,0,122,122,7,1,fourthree,,,,,,,,,,,,,,,,,,,,,,,,,,,,,,,,,,,,,,,,,,,,,,,,,,,,,,,,,,,,,,,,,,,,,,,,,,,,,,,,,,,,,,,,,,,,,,,,,,,,,,,,,,,,,,,,,,,,,,,,,,,,,,,,,,,,,,,,,
,,698250f02c81242e57185b4f,2026-03-17_17h15.42.625,kallum_motion_pilot_GIST_update_2,2026.1.1,Win32,60.24096386,698250f02c81242e57185b4f,69b95efdef24cd8a694e89ee,69b9600d60f20d7fab57f71b,0.0617,0.0617,0,123,123,18,1,twoone,,,,,,,,,,,,,,,,,,,,,,,,,,,,,,,,,,,,,,,,,,,,,,,,,,,,,,,,,,,,,,,,,,,,,,,,,,,,,,,,,,,,,,,,,,,,,,,,,,,,,,,,,,,,,,,,,,,,,,,,,,,,,,,,,,,,,,,,,
,,698250f02c81242e57185b4f,2026-03-17_17h15.42.625,kallum_motion_pilot_GIST_update_2,2026.1.1,Win32,60.24096386,698250f02c81242e57185b4f,69b95efdef24cd8a694e89ee,69b9600d60f20d7fab57f71b,0.0619,0.062,0,124,124,68,1,threeone,,,,,,,,,,,,,,,,,,,,,,,,,,,,,,,,,,,,,,,,,,,,,,,,,,,,,,,,,,,,,,,,,,,,,,,,,,,,,,,,,,,,,,,,,,,,,,,,,,,,,,,,,,,,,,,,,,,,,,,,,,,,,,,,,,,,,,,,,
,,698250f02c81242e57185b4f,2026-03-17_17h15.42.625,kallum_motion_pilot_GIST_update_2,2026.1.1,Win32,60.24096386,698250f02c81242e57185b4f,69b95efdef24cd8a694e89ee,69b9600d60f20d7fab57f71b,0.0621,0.0622,0,125,125,149,1,seveneight,,,,,,,,,,,,,,,,,,,,,,,,,,,,,,,,,,,,,,,,,,,,,,,,,,,,,,,,,,,,,,,,,,,,,,,,,,,,,,,,,,,,,,,,,,,,,,,,,,,,,,,,,,,,,,,,,,,,,,,,,,,,,,,,,,,,,,,,,
,,698250f02c81242e57185b4f,2026-03-17_17h15.42.625,kallum_motion_pilot_GIST_update_2,2026.1.1,Win32,60.24096386,698250f02c81242e57185b4f,69b95efdef24cd8a694e89ee,69b9600d60f20d7fab57f71b,0.0625,0.0625,0,126,126,161,1,fiveseven,,,,,,,,,,,,,,,,,,,,,,,,,,,,,,,,,,,,,,,,,,,,,,,,,,,,,,,,,,,,,,,,,,,,,,,,,,,,,,,,,,,,,,,,,,,,,,,,,,,,,,,,,,,,,,,,,,,,,,,,,,,,,,,,,,,,,,,,,
,,698250f02c81242e57185b4f,2026-03-17_17h15.42.625,kallum_motion_pilot_GIST_update_2,2026.1.1,Win32,60.24096386,698250f02c81242e57185b4f,69b95efdef24cd8a694e89ee,69b9600d60f20d7fab57f71b,0.0627,0.0627,0,127,127,15,1,fourthree,,,,,,,,,,,,,,,,,,,,,,,,,,,,,,,,,,,,,,,,,,,,,,,,,,,,,,,,,,,,,,,,,,,,,,,,,,,,,,,,,,,,,,,,,,,,,,,,,,,,,,,,,,,,,,,,,,,,,,,,,,,,,,,,,,,,,,,,,
,,698250f02c81242e57185b4f,2026-03-17_17h15.42.625,kallum_motion_pilot_GIST_update_2,2026.1.1,Win32,60.24096386,698250f02c81242e57185b4f,69b95efdef24cd8a694e89ee,69b9600d60f20d7fab57f71b,0.0629,0.0629,0,128,128,30,1,fourtwo,,,,,,,,,,,,,,,,,,,,,,,,,,,,,,,,,,,,,,,,,,,,,,,,,,,,,,,,,,,,,,,,,,,,,,,,,,,,,,,,,,,,,,,,,,,,,,,,,,,,,,,,,,,,,,,,,,,,,,,,,,,,,,,,,,,,,,,,,
,,698250f02c81242e57185b4f,2026-03-17_17h15.42.625,kallum_motion_pilot_GIST_update_2,2026.1.1,Win32,60.24096386,698250f02c81242e57185b4f,69b95efdef24cd8a694e89ee,69b9600d60f20d7fab57f71b,0.0631,0.0631,0,129,129,136,1,fivesix,,,,,,,,,,,,,,,,,,,,,,,,,,,,,,,,,,,,,,,,,,,,,,,,,,,,,,,,,,,,,,,,,,,,,,,,,,,,,,,,,,,,,,,,,,,,,,,,,,,,,,,,,,,,,,,,,,,,,,,,,,,,,,,,,,,,,,,,,
,,698250f02c81242e57185b4f,2026-03-17_17h15.42.625,kallum_motion_pilot_GIST_update_2,2026.1.1,Win32,60.24096386,698250f02c81242e57185b4f,69b95efdef24cd8a694e89ee,69b9600d60f20d7fab57f71b,0.0633,0.0633,0,130,130,160,1,fivesix,,,,,,,,,,,,,,,,,,,,,,,,,,,,,,,,,,,,,,,,,,,,,,,,,,,,,,,,,,,,,,,,,,,,,,,,,,,,,,,,,,,,,,,,,,,,,,,,,,,,,,,,,,,,,,,,,,,,,,,,,,,,,,,,,,,,,,,,,
,,698250f02c81242e57185b4f,2026-03-17_17h15.42.625,kallum_motion_pilot_GIST_update_2,2026.1.1,Win32,60.24096386,698250f02c81242e57185b4f,69b95efdef24cd8a694e89ee,69b9600d60f20d7fab57f71b,0.0635,0.0635,0,131,131,47,1,fourthree,,,,,,,,,,,,,,,,,,,,,,,,,,,,,,,,,,,,,,,,,,,,,,,,,,,,,,,,,,,,,,,,,,,,,,,,,,,,,,,,,,,,,,,,,,,,,,,,,,,,,,,,,,,,,,,,,,,,,,,,,,,,,,,,,,,,,,,,,
,,698250f02c81242e57185b4f,2026-03-17_17h15.42.625,kallum_motion_pilot_GIST_update_2,2026.1.1,Win32,60.24096386,698250f02c81242e57185b4f,69b95efdef24cd8a694e89ee,69b9600d60f20d7fab57f71b,0.0637,0.0637,0,132,132,130,1,sixfive,,,,,,,,,,,,,,,,,,,,,,,,,,,,,,,,,,,,,,,,,,,,,,,,,,,,,,,,,,,,,,,,,,,,,,,,,,,,,,,,,,,,,,,,,,,,,,,,,,,,,,,,,,,,,,,,,,,,,,,,,,,,,,,,,,,,,,,,,
,,698250f02c81242e57185b4f,2026-03-17_17h15.42.625,kallum_motion_pilot_GIST_update_2,2026.1.1,Win32,60.24096386,698250f02c81242e57185b4f,69b95efdef24cd8a694e89ee,69b9600d60f20d7fab57f71b,0.0639,0.0639,0,133,133,148,1,sevenfive,,,,,,,,,,,,,,,,,,,,,,,,,,,,,,,,,,,,,,,,,,,,,,,,,,,,,,,,,,,,,,,,,,,,,,,,,,,,,,,,,,,,,,,,,,,,,,,,,,,,,,,,,,,,,,,,,,,,,,,,,,,,,,,,,,,,,,,,,
,,698250f02c81242e57185b4f,2026-03-17_17h15.42.625,kallum_motion_pilot_GIST_update_2,2026.1.1,Win32,60.24096386,698250f02c81242e57185b4f,69b95efdef24cd8a694e89ee,69b9600d60f20d7fab57f71b,0.0641,0.0641,0,134,134,110,1,eightsix,,,,,,,,,,,,,,,,,,,,,,,,,,,,,,,,,,,,,,,,,,,,,,,,,,,,,,,,,,,,,,,,,,,,,,,,,,,,,,,,,,,,,,,,,,,,,,,,,,,,,,,,,,,,,,,,,,,,,,,,,,,,,,,,,,,,,,,,,
,,698250f02c81242e57185b4f,2026-03-17_17h15.42.625,kallum_motion_pilot_GIST_update_2,2026.1.1,Win32,60.24096386,698250f02c81242e57185b4f,69b95efdef24cd8a694e89ee,69b9600d60f20d7fab57f71b,0.0643,0.0643,0,135,135,38,1,fourtwo,,,,,,,,,,,,,,,,,,,,,,,,,,,,,,,,,,,,,,,,,,,,,,,,,,,,,,,,,,,,,,,,,,,,,,,,,,,,,,,,,,,,,,,,,,,,,,,,,,,,,,,,,,,,,,,,,,,,,,,,,,,,,,,,,,,,,,,,,
,,698250f02c81242e57185b4f,2026-03-17_17h15.42.625,kallum_motion_pilot_GIST_update_2,2026.1.1,Win32,60.24096386,698250f02c81242e57185b4f,69b95efdef24cd8a694e89ee,69b9600d60f20d7fab57f71b,0.0645,0.0645,0,136,136,138,1,sixfive,,,,,,,,,,,,,,,,,,,,,,,,,,,,,,,,,,,,,,,,,,,,,,,,,,,,,,,,,,,,,,,,,,,,,,,,,,,,,,,,,,,,,,,,,,,,,,,,,,,,,,,,,,,,,,,,,,,,,,,,,,,,,,,,,,,,,,,,,
,,698250f02c81242e57185b4f,2026-03-17_17h15.42.625,kallum_motion_pilot_GIST_update_2,2026.1.1,Win32,60.24096386,698250f02c81242e57185b4f,69b95efdef24cd8a694e89ee,69b9600d60f20d7fab57f71b,0.0647,0.0647,0,137,137,116,1,sevenfive,,,,,,,,,,,,,,,,,,,,,,,,,,,,,,,,,,,,,,,,,,,,,,,,,,,,,,,,,,,,,,,,,,,,,,,,,,,,,,,,,,,,,,,,,,,,,,,,,,,,,,,,,,,,,,,,,,,,,,,,,,,,,,,,,,,,,,,,,
,,698250f02c81242e57185b4f,2026-03-17_17h15.42.625,kallum_motion_pilot_GIST_update_2,2026.1.1,Win32,60.24096386,698250f02c81242e57185b4f,69b95efdef24cd8a694e89ee,69b9600d60f20d7fab57f71b,0.0651,0.0651,0,138,138,20,1,threeone,,,,,,,,,,,,,,,,,,,,,,,,,,,,,,,,,,,,,,,,,,,,,,,,,,,,,,,,,,,,,,,,,,,,,,,,,,,,,,,,,,,,,,,,,,,,,,,,,,,,,,,,,,,,,,,,,,,,,,,,,,,,,,,,,,,,,,,,,
,,698250f02c81242e57185b4f,2026-03-17_17h15.42.625,kallum_motion_pilot_GIST_update_2,2026.1.1,Win32,60.24096386,698250f02c81242e57185b4f,69b95efdef24cd8a694e89ee,69b9600d60f20d7fab57f71b,0.0654,0.0654,0,139,139,128,1,fivesix,,,,,,,,,,,,,,,,,,,,,,,,,,,,,,,,,,,,,,,,,,,,,,,,,,,,,,,,,,,,,,,,,,,,,,,,,,,,,,,,,,,,,,,,,,,,,,,,,,,,,,,,,,,,,,,,,,,,,,,,,,,,,,,,,,,,,,,,,
,,698250f02c81242e57185b4f,2026-03-17_17h15.42.625,kallum_motion_pilot_GIST_update_2,2026.1.1,Win32,60.24096386,698250f02c81242e57185b4f,69b95efdef24cd8a694e89ee,69b9600d60f20d7fab57f71b,0.0655,0.0656,0,140,140,117,1,seveneight,,,,,,,,,,,,,,,,,,,,,,,,,,,,,,,,,,,,,,,,,,,,,,,,,,,,,,,,,,,,,,,,,,,,,,,,,,,,,,,,,,,,,,,,,,,,,,,,,,,,,,,,,,,,,,,,,,,,,,,,,,,,,,,,,,,,,,,,,
,,698250f02c81242e57185b4f,2026-03-17_17h15.42.625,kallum_motion_pilot_GIST_update_2,2026.1.1,Win32,60.24096386,698250f02c81242e57185b4f,69b95efdef24cd8a694e89ee,69b9600d60f20d7fab57f71b,0.0658,0.0659,0,141,141,2,1,twoone,,,,,,,,,,,,,,,,,,,,,,,,,,,,,,,,,,,,,,,,,,,,,,,,,,,,,,,,,,,,,,,,,,,,,,,,,,,,,,,,,,,,,,,,,,,,,,,,,,,,,,,,,,,,,,,,,,,,,,,,,,,,,,,,,,,,,,,,,
,,698250f02c81242e57185b4f,2026-03-17_17h15.42.625,kallum_motion_pilot_GIST_update_2,2026.1.1,Win32,60.24096386,698250f02c81242e57185b4f,69b95efdef24cd8a694e89ee,69b9600d60f20d7fab57f71b,0.0662,0.0662,0,142,142,129,1,fiveseven,,,,,,,,,,,,,,,,,,,,,,,,,,,,,,,,,,,,,,,,,,,,,,,,,,,,,,,,,,,,,,,,,,,,,,,,,,,,,,,,,,,,,,,,,,,,,,,,,,,,,,,,,,,,,,,,,,,,,,,,,,,,,,,,,,,,,,,,,
,,698250f02c81242e57185b4f,2026-03-17_17h15.42.625,kallum_motion_pilot_GIST_update_2,2026.1.1,Win32,60.24096386,698250f02c81242e57185b4f,69b95efdef24cd8a694e89ee,69b9600d60f20d7fab57f71b,0.0664,0.0664,0,143,143,158,1,eightsix,,,,,,,,,,,,,,,,,,,,,,,,,,,,,,,,,,,,,,,,,,,,,,,,,,,,,,,,,,,,,,,,,,,,,,,,,,,,,,,,,,,,,,,,,,,,,,,,,,,,,,,,,,,,,,,,,,,,,,,,,,,,,,,,,,,,,,,,,
,,698250f02c81242e57185b4f,2026-03-17_17h15.42.625,kallum_motion_pilot_GIST_update_2,2026.1.1,Win32,60.24096386,698250f02c81242e57185b4f,69b95efdef24cd8a694e89ee,69b9600d60f20d7fab57f71b,0.0666,0.0666,0,144,144,119,1,eightseven,,,,,,,,,,,,,,,,,,,,,,,,,,,,,,,,,,,,,,,,,,,,,,,,,,,,,,,,,,,,,,,,,,,,,,,,,,,,,,,,,,,,,,,,,,,,,,,,,,,,,,,,,,,,,,,,,,,,,,,,,,,,,,,,,,,,,,,,,
,,698250f02c81242e57185b4f,2026-03-17_17h15.42.625,kallum_motion_pilot_GIST_update_2,2026.1.1,Win32,60.24096386,698250f02c81242e57185b4f,69b95efdef24cd8a694e89ee,69b9600d60f20d7fab57f71b,0.0668,0.0668,0,145,145,62,1,fourtwo,,,,,,,,,,,,,,,,,,,,,,,,,,,,,,,,,,,,,,,,,,,,,,,,,,,,,,,,,,,,,,,,,,,,,,,,,,,,,,,,,,,,,,,,,,,,,,,,,,,,,,,,,,,,,,,,,,,,,,,,,,,,,,,,,,,,,,,,,
,,698250f02c81242e57185b4f,2026-03-17_17h15.42.625,kallum_motion_pilot_GIST_update_2,2026.1.1,Win32,60.24096386,698250f02c81242e57185b4f,69b95efdef24cd8a694e89ee,69b9600d60f20d7fab57f71b,0.0671,0.0671,0,146,146,78,1,fourtwo,,,,,,,,,,,,,,,,,,,,,,,,,,,,,,,,,,,,,,,,,,,,,,,,,,,,,,,,,,,,,,,,,,,,,,,,,,,,,,,,,,,,,,,,,,,,,,,,,,,,,,,,,,,,,,,,,,,,,,,,,,,,,,,,,,,,,,,,,
,,698250f02c81242e57185b4f,2026-03-17_17h15.42.625,kallum_motion_pilot_GIST_update_2,2026.1.1,Win32,60.24096386,698250f02c81242e57185b4f,69b95efdef24cd8a694e89ee,69b9600d60f20d7fab57f71b,0.0672,0.0672,0,147,147,56,1,onetwo,,,,,,,,,,,,,,,,,,,,,,,,,,,,,,,,,,,,,,,,,,,,,,,,,,,,,,,,,,,,,,,,,,,,,,,,,,,,,,,,,,,,,,,,,,,,,,,,,,,,,,,,,,,,,,,,,,,,,,,,,,,,,,,,,,,,,,,,,
,,698250f02c81242e57185b4f,2026-03-17_17h15.42.625,kallum_motion_pilot_GIST_update_2,2026.1.1,Win32,60.24096386,698250f02c81242e57185b4f,69b95efdef24cd8a694e89ee,69b9600d60f20d7fab57f71b,0.0675,0.0675,0,148,148,44,1,threeone,,,,,,,,,,,,,,,,,,,,,,,,,,,,,,,,,,,,,,,,,,,,,,,,,,,,,,,,,,,,,,,,,,,,,,,,,,,,,,,,,,,,,,,,,,,,,,,,,,,,,,,,,,,,,,,,,,,,,,,,,,,,,,,,,,,,,,,,,
,,698250f02c81242e57185b4f,2026-03-17_17h15.42.625,kallum_motion_pilot_GIST_update_2,2026.1.1,Win32,60.24096386,698250f02c81242e57185b4f,69b95efdef24cd8a694e89ee,69b9600d60f20d7fab57f71b,0.0677,0.0677,0,149,149,108,1,sevenfive,,,,,,,,,,,,,,,,,,,,,,,,,,,,,,,,,,,,,,,,,,,,,,,,,,,,,,,,,,,,,,,,,,,,,,,,,,,,,,,,,,,,,,,,,,,,,,,,,,,,,,,,,,,,,,,,,,,,,,,,,,,,,,,,,,,,,,,,,
,,698250f02c81242e57185b4f,2026-03-17_17h15.42.625,kallum_motion_pilot_GIST_update_2,2026.1.1,Win32,60.24096386,698250f02c81242e57185b4f,69b95efdef24cd8a694e89ee,69b9600d60f20d7fab57f71b,0.0678,0.0678,0,150,150,75,1,twofour,,,,,,,,,,,,,,,,,,,,,,,,,,,,,,,,,,,,,,,,,,,,,,,,,,,,,,,,,,,,,,,,,,,,,,,,,,,,,,,,,,,,,,,,,,,,,,,,,,,,,,,,,,,,,,,,,,,,,,,,,,,,,,,,,,,,,,,,,
,,698250f02c81242e57185b4f,2026-03-17_17h15.42.625,kallum_motion_pilot_GIST_update_2,2026.1.1,Win32,60.24096386,698250f02c81242e57185b4f,69b95efdef24cd8a694e89ee,69b9600d60f20d7fab57f71b,0.0681,0.0681,0,151,151,67,1,twofour,,,,,,,,,,,,,,,,,,,,,,,,,,,,,,,,,,,,,,,,,,,,,,,,,,,,,,,,,,,,,,,,,,,,,,,,,,,,,,,,,,,,,,,,,,,,,,,,,,,,,,,,,,,,,,,,,,,,,,,,,,,,,,,,,,,,,,,,,
,,698250f02c81242e57185b4f,2026-03-17_17h15.42.625,kallum_motion_pilot_GIST_update_2,2026.1.1,Win32,60.24096386,698250f02c81242e57185b4f,69b95efdef24cd8a694e89ee,69b9600d60f20d7fab57f71b,0.0682,0.0682,0,152,152,94,1,eightsix,,,,,,,,,,,,,,,,,,,,,,,,,,,,,,,,,,,,,,,,,,,,,,,,,,,,,,,,,,,,,,,,,,,,,,,,,,,,,,,,,,,,,,,,,,,,,,,,,,,,,,,,,,,,,,,,,,,,,,,,,,,,,,,,,,,,,,,,,
,,698250f02c81242e57185b4f,2026-03-17_17h15.42.625,kallum_motion_pilot_GIST_update_2,2026.1.1,Win32,60.24096386,698250f02c81242e57185b4f,69b95efdef24cd8a694e89ee,69b9600d60f20d7fab57f71b,0.0684,0.0684,0,153,153,92,1,sevenfive,,,,,,,,,,,,,,,,,,,,,,,,,,,,,,,,,,,,,,,,,,,,,,,,,,,,,,,,,,,,,,,,,,,,,,,,,,,,,,,,,,,,,,,,,,,,,,,,,,,,,,,,,,,,,,,,,,,,,,,,,,,,,,,,,,,,,,,,,
,,698250f02c81242e57185b4f,2026-03-17_17h15.42.625,kallum_motion_pilot_GIST_update_2,2026.1.1,Win32,60.24096386,698250f02c81242e57185b4f,69b95efdef24cd8a694e89ee,69b9600d60f20d7fab57f71b,0.0687,0.0687,0,154,154,23,1,fourthree,,,,,,,,,,,,,,,,,,,,,,,,,,,,,,,,,,,,,,,,,,,,,,,,,,,,,,,,,,,,,,,,,,,,,,,,,,,,,,,,,,,,,,,,,,,,,,,,,,,,,,,,,,,,,,,,,,,,,,,,,,,,,,,,,,,,,,,,,
,,698250f02c81242e57185b4f,2026-03-17_17h15.42.625,kallum_motion_pilot_GIST_update_2,2026.1.1,Win32,60.24096386,698250f02c81242e57185b4f,69b95efdef24cd8a694e89ee,69b9600d60f20d7fab57f71b,0.069,0.069,0,155,155,45,1,threefour,,,,,,,,,,,,,,,,,,,,,,,,,,,,,,,,,,,,,,,,,,,,,,,,,,,,,,,,,,,,,,,,,,,,,,,,,,,,,,,,,,,,,,,,,,,,,,,,,,,,,,,,,,,,,,,,,,,,,,,,,,,,,,,,,,,,,,,,,
,,698250f02c81242e57185b4f,2026-03-17_17h15.42.625,kallum_motion_pilot_GIST_update_2,2026.1.1,Win32,60.24096386,698250f02c81242e57185b4f,69b95efdef24cd8a694e89ee,69b9600d60f20d7fab57f71b,0.0693,0.0693,0,156,156,147,1,sixeight,,,,,,,,,,,,,,,,,,,,,,,,,,,,,,,,,,,,,,,,,,,,,,,,,,,,,,,,,,,,,,,,,,,,,,,,,,,,,,,,,,,,,,,,,,,,,,,,,,,,,,,,,,,,,,,,,,,,,,,,,,,,,,,,,,,,,,,,,
,,698250f02c81242e57185b4f,2026-03-17_17h15.42.625,kallum_motion_pilot_GIST_update_2,2026.1.1,Win32,60.24096386,698250f02c81242e57185b4f,69b95efdef24cd8a694e89ee,69b9600d60f20d7fab57f71b,0.0695,0.0695,0,157,157,93,1,seveneight,,,,,,,,,,,,,,,,,,,,,,,,,,,,,,,,,,,,,,,,,,,,,,,,,,,,,,,,,,,,,,,,,,,,,,,,,,,,,,,,,,,,,,,,,,,,,,,,,,,,,,,,,,,,,,,,,,,,,,,,,,,,,,,,,,,,,,,,,
,,698250f02c81242e57185b4f,2026-03-17_17h15.42.625,kallum_motion_pilot_GIST_update_2,2026.1.1,Win32,60.24096386,698250f02c81242e57185b4f,69b95efdef24cd8a694e89ee,69b9600d60f20d7fab57f71b,0.0698,0.0698,0,158,158,17,1,onethree,,,,,,,,,,,,,,,,,,,,,,,,,,,,,,,,,,,,,,,,,,,,,,,,,,,,,,,,,,,,,,,,,,,,,,,,,,,,,,,,,,,,,,,,,,,,,,,,,,,,,,,,,,,,,,,,,,,,,,,,,,,,,,,,,,,,,,,,,
,,698250f02c81242e57185b4f,2026-03-17_17h15.42.625,kallum_motion_pilot_GIST_update_2,2026.1.1,Win32,60.24096386,698250f02c81242e57185b4f,69b95efdef24cd8a694e89ee,69b9600d60f20d7fab57f71b,0.07,0.07,0,159,159,79,1,eightseven,,,,,,,,,,,,,,,,,,,,,,,,,,,,,,,,,,,,,,,,,,,,,,,,,,,,,,,,,,,,,,,,,,,,,,,,,,,,,,,,,,,,,,,,,,,,,,,,,,,,,,,,,,,,,,,,,,,,,,,,,,,,,,,,,,,,,,,,,
,,698250f02c81242e57185b4f,2026-03-17_17h15.42.625,kallum_motion_pilot_GIST_update_2,2026.1.1,Win32,60.24096386,698250f02c81242e57185b4f,69b95efdef24cd8a694e89ee,69b9600d60f20d7fab57f71b,0.0702,0.0702,0,160,160,106,1,sixfive,,,,,,,,,,,,,,,,,,,,,,,,,,,,,,,,,,,,,,,,,,,,,,,,,,,,,,,,,,,,,,,,,,,,,,,,,,,,,,,,,,,,,,,,,,,,,,,,,,,,,,,,,,,,,,,,,,,,,,,,,,,,,,,,,,,,,,,,,
,,698250f02c81242e57185b4f,2026-03-17_17h15.42.625,kallum_motion_pilot_GIST_update_2,2026.1.1,Win32,60.24096386,698250f02c81242e57185b4f,69b95efdef24cd8a694e89ee,69b9600d60f20d7fab57f71b,0.0704,0.0704,0,161,161,139,1,sixeight,,,,,,,,,,,,,,,,,,,,,,,,,,,,,,,,,,,,,,,,,,,,,,,,,,,,,,,,,,,,,,,,,,,,,,,,,,,,,,,,,,,,,,,,,,,,,,,,,,,,,,,,,,,,,,,,,,,,,,,,,,,,,,,,,,,,,,,,,
,,698250f02c81242e57185b4f,2026-03-17_17h15.42.625,kallum_motion_pilot_GIST_update_2,2026.1.1,Win32,60.24096386,698250f02c81242e57185b4f,69b95efdef24cd8a694e89ee,69b9600d60f20d7fab57f71b,0.0707,0.0707,1,0,162,15,1,fourthree,,,,,,,,,,,,,,,,,,,,,,,,,,,,,,,,,,,,,,,,,,,,,,,,,,,,,,,,,,,,,,,,,,,,,,,,,,,,,,,,,,,,,,,,,,,,,,,,,,,,,,,,,,,,,,,,,,,,,,,,,,,,,,,,,,,,,,,,,
,,698250f02c81242e57185b4f,2026-03-17_17h15.42.625,kallum_motion_pilot_GIST_update_2,2026.1.1,Win32,60.24096386,698250f02c81242e57185b4f,69b95efdef24cd8a694e89ee,69b9600d60f20d7fab57f71b,0.0709,0.0709,1,1,163,16,1,onetwo,,,,,,,,,,,,,,,,,,,,,,,,,,,,,,,,,,,,,,,,,,,,,,,,,,,,,,,,,,,,,,,,,,,,,,,,,,,,,,,,,,,,,,,,,,,,,,,,,,,,,,,,,,,,,,,,,,,,,,,,,,,,,,,,,,,,,,,,,
,,698250f02c81242e57185b4f,2026-03-17_17h15.42.625,kallum_motion_pilot_GIST_update_2,2026.1.1,Win32,60.24096386,698250f02c81242e57185b4f,69b95efdef24cd8a694e89ee,69b9600d60f20d7fab57f71b,0.0711,0.0711,1,2,164,74,1,twoone,,,,,,,,,,,,,,,,,,,,,,,,,,,,,,,,,,,,,,,,,,,,,,,,,,,,,,,,,,,,,,,,,,,,,,,,,,,,,,,,,,,,,,,,,,,,,,,,,,,,,,,,,,,,,,,,,,,,,,,,,,,,,,,,,,,,,,,,,
,,698250f02c81242e57185b4f,2026-03-17_17h15.42.625,kallum_motion_pilot_GIST_update_2,2026.1.1,Win32,60.24096386,698250f02c81242e57185b4f,69b95efdef24cd8a694e89ee,69b9600d60f20d7fab57f71b,0.0714,0.0714,1,3,165,83,1,sixeight,,,,,,,,,,,,,,,,,,,,,,,,,,,,,,,,,,,,,,,,,,,,,,,,,,,,,,,,,,,,,,,,,,,,,,,,,,,,,,,,,,,,,,,,,,,,,,,,,,,,,,,,,,,,,,,,,,,,,,,,,,,,,,,,,,,,,,,,,
,,698250f02c81242e57185b4f,2026-03-17_17h15.42.625,kallum_motion_pilot_GIST_update_2,2026.1.1,Win32,60.24096386,698250f02c81242e57185b4f,69b95efdef24cd8a694e89ee,69b9600d60f20d7fab57f71b,0.0716,0.0716,1,4,166,1,1,onethree,,,,,,,,,,,,,,,,,,,,,,,,,,,,,,,,,,,,,,,,,,,,,,,,,,,,,,,,,,,,,,,,,,,,,,,,,,,,,,,,,,,,,,,,,,,,,,,,,,,,,,,,,,,,,,,,,,,,,,,,,,,,,,,,,,,,,,,,,
,,698250f02c81242e57185b4f,2026-03-17_17h15.42.625,kallum_motion_pilot_GIST_update_2,2026.1.1,Win32,60.24096386,698250f02c81242e57185b4f,69b95efdef24cd8a694e89ee,69b9600d60f20d7fab57f71b,0.0718,0.0718,1,5,167,43,1,twofour,,,,,,,,,,,,,,,,,,,,,,,,,,,,,,,,,,,,,,,,,,,,,,,,,,,,,,,,,,,,,,,,,,,,,,,,,,,,,,,,,,,,,,,,,,,,,,,,,,,,,,,,,,,,,,,,,,,,,,,,,,,,,,,,,,,,,,,,,
,,698250f02c81242e57185b4f,2026-03-17_17h15.42.625,kallum_motion_pilot_GIST_update_2,2026.1.1,Win32,60.24096386,698250f02c81242e57185b4f,69b95efdef24cd8a694e89ee,69b9600d60f20d7fab57f71b,0.072,0.072,1,6,168,57,1,onethree,,,,,,,,,,,,,,,,,,,,,,,,,,,,,,,,,,,,,,,,,,,,,,,,,,,,,,,,,,,,,,,,,,,,,,,,,,,,,,,,,,,,,,,,,,,,,,,,,,,,,,,,,,,,,,,,,,,,,,,,,,,,,,,,,,,,,,,,,
,,698250f02c81242e57185b4f,2026-03-17_17h15.42.625,kallum_motion_pilot_GIST_update_2,2026.1.1,Win32,60.24096386,698250f02c81242e57185b4f,69b95efdef24cd8a694e89ee,69b9600d60f20d7fab57f71b,0.0722,0.0722,1,7,169,86,1,eightsix,,,,,,,,,,,,,,,,,,,,,,,,,,,,,,,,,,,,,,,,,,,,,,,,,,,,,,,,,,,,,,,,,,,,,,,,,,,,,,,,,,,,,,,,,,,,,,,,,,,,,,,,,,,,,,,,,,,,,,,,,,,,,,,,,,,,,,,,,
,,698250f02c81242e57185b4f,2026-03-17_17h15.42.625,kallum_motion_pilot_GIST_update_2,2026.1.1,Win32,60.24096386,698250f02c81242e57185b4f,69b95efdef24cd8a694e89ee,69b9600d60f20d7fab57f71b,0.0725,0.0725,1,8,170,148,1,sevenfive,,,,,,,,,,,,,,,,,,,,,,,,,,,,,,,,,,,,,,,,,,,,,,,,,,,,,,,,,,,,,,,,,,,,,,,,,,,,,,,,,,,,,,,,,,,,,,,,,,,,,,,,,,,,,,,,,,,,,,,,,,,,,,,,,,,,,,,,,
,,698250f02c81242e57185b4f,2026-03-17_17h15.42.625,kallum_motion_pilot_GIST_update_2,2026.1.1,Win32,60.24096386,698250f02c81242e57185b4f,69b95efdef24cd8a694e89ee,69b9600d60f20d7fab57f71b,0.0726,0.0726,1,9,171,72,1,onetwo,,,,,,,,,,,,,,,,,,,,,,,,,,,,,,,,,,,,,,,,,,,,,,,,,,,,,,,,,,,,,,,,,,,,,,,,,,,,,,,,,,,,,,,,,,,,,,,,,,,,,,,,,,,,,,,,,,,,,,,,,,,,,,,,,,,,,,,,,
,,698250f02c81242e57185b4f,2026-03-17_17h15.42.625,kallum_motion_pilot_GIST_update_2,2026.1.1,Win32,60.24096386,698250f02c81242e57185b4f,69b95efdef24cd8a694e89ee,69b9600d60f20d7fab57f71b,0.0729,0.0729,1,10,172,143,1,eightseven,,,,,,,,,,,,,,,,,,,,,,,,,,,,,,,,,,,,,,,,,,,,,,,,,,,,,,,,,,,,,,,,,,,,,,,,,,,,,,,,,,,,,,,,,,,,,,,,,,,,,,,,,,,,,,,,,,,,,,,,,,,,,,,,,,,,,,,,,
,,698250f02c81242e57185b4f,2026-03-17_17h15.42.625,kallum_motion_pilot_GIST_update_2,2026.1.1,Win32,60.24096386,698250f02c81242e57185b4f,69b95efdef24cd8a694e89ee,69b9600d60f20d7fab57f71b,0.073,0.073,1,11,173,152,1,fivesix,,,,,,,,,,,,,,,,,,,,,,,,,,,,,,,,,,,,,,,,,,,,,,,,,,,,,,,,,,,,,,,,,,,,,,,,,,,,,,,,,,,,,,,,,,,,,,,,,,,,,,,,,,,,,,,,,,,,,,,,,,,,,,,,,,,,,,,,,
,,698250f02c81242e57185b4f,2026-03-17_17h15.42.625,kallum_motion_pilot_GIST_update_2,2026.1.1,Win32,60.24096386,698250f02c81242e57185b4f,69b95efdef24cd8a694e89ee,69b9600d60f20d7fab57f71b,0.0732,0.0733,1,12,174,14,1,fourtwo,,,,,,,,,,,,,,,,,,,,,,,,,,,,,,,,,,,,,,,,,,,,,,,,,,,,,,,,,,,,,,,,,,,,,,,,,,,,,,,,,,,,,,,,,,,,,,,,,,,,,,,,,,,,,,,,,,,,,,,,,,,,,,,,,,,,,,,,,
,,698250f02c81242e57185b4f,2026-03-17_17h15.42.625,kallum_motion_pilot_GIST_update_2,2026.1.1,Win32,60.24096386,698250f02c81242e57185b4f,69b95efdef24cd8a694e89ee,69b9600d60f20d7fab57f71b,0.0735,0.0735,1,13,175,76,1,threeone,,,,,,,,,,,,,,,,,,,,,,,,,,,,,,,,,,,,,,,,,,,,,,,,,,,,,,,,,,,,,,,,,,,,,,,,,,,,,,,,,,,,,,,,,,,,,,,,,,,,,,,,,,,,,,,,,,,,,,,,,,,,,,,,,,,,,,,,,
,,698250f02c81242e57185b4f,2026-03-17_17h15.42.625,kallum_motion_pilot_GIST_update_2,2026.1.1,Win32,60.24096386,698250f02c81242e57185b4f,69b95efdef24cd8a694e89ee,69b9600d60f20d7fab57f71b,0.0736,0.0736,1,14,176,64,1,onetwo,,,,,,,,,,,,,,,,,,,,,,,,,,,,,,,,,,,,,,,,,,,,,,,,,,,,,,,,,,,,,,,,,,,,,,,,,,,,,,,,,,,,,,,,,,,,,,,,,,,,,,,,,,,,,,,,,,,,,,,,,,,,,,,,,,,,,,,,,
,,698250f02c81242e57185b4f,2026-03-17_17h15.42.625,kallum_motion_pilot_GIST_update_2,2026.1.1,Win32,60.24096386,698250f02c81242e57185b4f,69b95efdef24cd8a694e89ee,69b9600d60f20d7fab57f71b,0.0738,0.0738,1,15,177,151,1,eightseven,,,,,,,,,,,,,,,,,,,,,,,,,,,,,,,,,,,,,,,,,,,,,,,,,,,,,,,,,,,,,,,,,,,,,,,,,,,,,,,,,,,,,,,,,,,,,,,,,,,,,,,,,,,,,,,,,,,,,,,,,,,,,,,,,,,,,,,,,
,,698250f02c81242e57185b4f,2026-03-17_17h15.42.625,kallum_motion_pilot_GIST_update_2,2026.1.1,Win32,60.24096386,698250f02c81242e57185b4f,69b95efdef24cd8a694e89ee,69b9600d60f20d7fab57f71b,0.0741,0.0741,1,16,178,51,1,twofour,,,,,,,,,,,,,,,,,,,,,,,,,,,,,,,,,,,,,,,,,,,,,,,,,,,,,,,,,,,,,,,,,,,,,,,,,,,,,,,,,,,,,,,,,,,,,,,,,,,,,,,,,,,,,,,,,,,,,,,,,,,,,,,,,,,,,,,,,
,,698250f02c81242e57185b4f,2026-03-17_17h15.42.625,kallum_motion_pilot_GIST_update_2,2026.1.1,Win32,60.24096386,698250f02c81242e57185b4f,69b95efdef24cd8a694e89ee,69b9600d60f20d7fab57f71b,0.0743,0.0743,1,17,179,60,1,threeone,,,,,,,,,,,,,,,,,,,,,,,,,,,,,,,,,,,,,,,,,,,,,,,,,,,,,,,,,,,,,,,,,,,,,,,,,,,,,,,,,,,,,,,,,,,,,,,,,,,,,,,,,,,,,,,,,,,,,,,,,,,,,,,,,,,,,,,,,
,,698250f02c81242e57185b4f,2026-03-17_17h15.42.625,kallum_motion_pilot_GIST_update_2,2026.1.1,Win32,60.24096386,698250f02c81242e57185b4f,69b95efdef24cd8a694e89ee,69b9600d60f20d7fab57f71b,0.0745,0.0745,1,18,180,26,1,twoone,,,,,,,,,,,,,,,,,,,,,,,,,,,,,,,,,,,,,,,,,,,,,,,,,,,,,,,,,,,,,,,,,,,,,,,,,,,,,,,,,,,,,,,,,,,,,,,,,,,,,,,,,,,,,,,,,,,,,,,,,,,,,,,,,,,,,,,,,
,,698250f02c81242e57185b4f,2026-03-17_17h15.42.625,kallum_motion_pilot_GIST_update_2,2026.1.1,Win32,60.24096386,698250f02c81242e57185b4f,69b95efdef24cd8a694e89ee,69b9600d60f20d7fab57f71b,0.0747,0.0747,1,19,181,34,1,twoone,,,,,,,,,,,,,,,,,,,,,,,,,,,,,,,,,,,,,,,,,,,,,,,,,,,,,,,,,,,,,,,,,,,,,,,,,,,,,,,,,,,,,,,,,,,,,,,,,,,,,,,,,,,,,,,,,,,,,,,,,,,,,,,,,,,,,,,,,
,,698250f02c81242e57185b4f,2026-03-17_17h15.42.625,kallum_motion_pilot_GIST_update_2,2026.1.1,Win32,60.24096386,698250f02c81242e57185b4f,69b95efdef24cd8a694e89ee,69b9600d60f20d7fab57f71b,0.075,0.075,1,20,182,48,1,onetwo,,,,,,,,,,,,,,,,,,,,,,,,,,,,,,,,,,,,,,,,,,,,,,,,,,,,,,,,,,,,,,,,,,,,,,,,,,,,,,,,,,,,,,,,,,,,,,,,,,,,,,,,,,,,,,,,,,,,,,,,,,,,,,,,,,,,,,,,,
,,698250f02c81242e57185b4f,2026-03-17_17h15.42.625,kallum_motion_pilot_GIST_update_2,2026.1.1,Win32,60.24096386,698250f02c81242e57185b4f,69b95efdef24cd8a694e89ee,69b9600d60f20d7fab57f71b,0.0753,0.0753,1,21,183,150,1,eightsix,,,,,,,,,,,,,,,,,,,,,,,,,,,,,,,,,,,,,,,,,,,,,,,,,,,,,,,,,,,,,,,,,,,,,,,,,,,,,,,,,,,,,,,,,,,,,,,,,,,,,,,,,,,,,,,,,,,,,,,,,,,,,,,,,,,,,,,,,
,,698250f02c81242e57185b4f,2026-03-17_17h15.42.625,kallum_motion_pilot_GIST_update_2,2026.1.1,Win32,60.24096386,698250f02c81242e57185b4f,69b95efdef24cd8a694e89ee,69b9600d60f20d7fab57f71b,0.0755,0.0756,1,22,184,101,1,seveneight,,,,,,,,,,,,,,,,,,,,,,,,,,,,,,,,,,,,,,,,,,,,,,,,,,,,,,,,,,,,,,,,,,,,,,,,,,,,,,,,,,,,,,,,,,,,,,,,,,,,,,,,,,,,,,,,,,,,,,,,,,,,,,,,,,,,,,,,,
,,698250f02c81242e57185b4f,2026-03-17_17h15.42.625,kallum_motion_pilot_GIST_update_2,2026.1.1,Win32,60.24096386,698250f02c81242e57185b4f,69b95efdef24cd8a694e89ee,69b9600d60f20d7fab57f71b,0.0758,0.0758,1,23,185,78,1,fourtwo,,,,,,,,,,,,,,,,,,,,,,,,,,,,,,,,,,,,,,,,,,,,,,,,,,,,,,,,,,,,,,,,,,,,,,,,,,,,,,,,,,,,,,,,,,,,,,,,,,,,,,,,,,,,,,,,,,,,,,,,,,,,,,,,,,,,,,,,,
,,698250f02c81242e57185b4f,2026-03-17_17h15.42.625,kallum_motion_pilot_GIST_update_2,2026.1.1,Win32,60.24096386,698250f02c81242e57185b4f,69b95efdef24cd8a694e89ee,69b9600d60f20d7fab57f71b,0.0759,0.0759,1,24,186,99,1,sixeight,,,,,,,,,,,,,,,,,,,,,,,,,,,,,,,,,,,,,,,,,,,,,,,,,,,,,,,,,,,,,,,,,,,,,,,,,,,,,,,,,,,,,,,,,,,,,,,,,,,,,,,,,,,,,,,,,,,,,,,,,,,,,,,,,,,,,,,,,
,,698250f02c81242e57185b4f,2026-03-17_17h15.42.625,kallum_motion_pilot_GIST_update_2,2026.1.1,Win32,60.24096386,698250f02c81242e57185b4f,69b95efdef24cd8a694e89ee,69b9600d60f20d7fab57f71b,0.0763,0.0763,1,25,187,84,1,sevenfive,,,,,,,,,,,,,,,,,,,,,,,,,,,,,,,,,,,,,,,,,,,,,,,,,,,,,,,,,,,,,,,,,,,,,,,,,,,,,,,,,,,,,,,,,,,,,,,,,,,,,,,,,,,,,,,,,,,,,,,,,,,,,,,,,,,,,,,,,
,,698250f02c81242e57185b4f,2026-03-17_17h15.42.625,kallum_motion_pilot_GIST_update_2,2026.1.1,Win32,60.24096386,698250f02c81242e57185b4f,69b95efdef24cd8a694e89ee,69b9600d60f20d7fab57f71b,0.0766,0.0766,1,26,188,0,1,onetwo,,,,,,,,,,,,,,,,,,,,,,,,,,,,,,,,,,,,,,,,,,,,,,,,,,,,,,,,,,,,,,,,,,,,,,,,,,,,,,,,,,,,,,,,,,,,,,,,,,,,,,,,,,,,,,,,,,,,,,,,,,,,,,,,,,,,,,,,,
,,698250f02c81242e57185b4f,2026-03-17_17h15.42.625,kallum_motion_pilot_GIST_update_2,2026.1.1,Win32,60.24096386,698250f02c81242e57185b4f,69b95efdef24cd8a694e89ee,69b9600d60f20d7fab57f71b,0.0769,0.077,1,27,189,25,1,onethree,,,,,,,,,,,,,,,,,,,,,,,,,,,,,,,,,,,,,,,,,,,,,,,,,,,,,,,,,,,,,,,,,,,,,,,,,,,,,,,,,,,,,,,,,,,,,,,,,,,,,,,,,,,,,,,,,,,,,,,,,,,,,,,,,,,,,,,,,
,,698250f02c81242e57185b4f,2026-03-17_17h15.42.625,kallum_motion_pilot_GIST_update_2,2026.1.1,Win32,60.24096386,698250f02c81242e57185b4f,69b95efdef24cd8a694e89ee,69b9600d60f20d7fab57f71b,0.0772,0.0772,1,28,190,4,1,threeone,,,,,,,,,,,,,,,,,,,,,,,,,,,,,,,,,,,,,,,,,,,,,,,,,,,,,,,,,,,,,,,,,,,,,,,,,,,,,,,,,,,,,,,,,,,,,,,,,,,,,,,,,,,,,,,,,,,,,,,,,,,,,,,,,,,,,,,,,
,,698250f02c81242e57185b4f,2026-03-17_17h15.42.625,kallum_motion_pilot_GIST_update_2,2026.1.1,Win32,60.24096386,698250f02c81242e57185b4f,69b95efdef24cd8a694e89ee,69b9600d60f20d7fab57f71b,0.0775,0.0775,1,29,191,21,1,threefour,,,,,,,,,,,,,,,,,,,,,,,,,,,,,,,,,,,,,,,,,,,,,,,,,,,,,,,,,,,,,,,,,,,,,,,,,,,,,,,,,,,,,,,,,,,,,,,,,,,,,,,,,,,,,,,,,,,,,,,,,,,,,,,,,,,,,,,,,
,,698250f02c81242e57185b4f,2026-03-17_17h15.42.625,kallum_motion_pilot_GIST_update_2,2026.1.1,Win32,60.24096386,698250f02c81242e57185b4f,69b95efdef24cd8a694e89ee,69b9600d60f20d7fab57f71b,0.0777,0.0777,1,30,192,126,1,eightsix,,,,,,,,,,,,,,,,,,,,,,,,,,,,,,,,,,,,,,,,,,,,,,,,,,,,,,,,,,,,,,,,,,,,,,,,,,,,,,,,,,,,,,,,,,,,,,,,,,,,,,,,,,,,,,,,,,,,,,,,,,,,,,,,,,,,,,,,,
,,698250f02c81242e57185b4f,2026-03-17_17h15.42.625,kallum_motion_pilot_GIST_update_2,2026.1.1,Win32,60.24096386,698250f02c81242e57185b4f,69b95efdef24cd8a694e89ee,69b9600d60f20d7fab57f71b,0.0779,0.0779,1,31,193,149,1,seveneight,,,,,,,,,,,,,,,,,,,,,,,,,,,,,,,,,,,,,,,,,,,,,,,,,,,,,,,,,,,,,,,,,,,,,,,,,,,,,,,,,,,,,,,,,,,,,,,,,,,,,,,,,,,,,,,,,,,,,,,,,,,,,,,,,,,,,,,,,
,,698250f02c81242e57185b4f,2026-03-17_17h15.42.625,kallum_motion_pilot_GIST_update_2,2026.1.1,Win32,60.24096386,698250f02c81242e57185b4f,69b95efdef24cd8a694e89ee,69b9600d60f20d7fab57f71b,0.0783,0.0783,1,32,194,88,1,fivesix,,,,,,,,,,,,,,,,,,,,,,,,,,,,,,,,,,,,,,,,,,,,,,,,,,,,,,,,,,,,,,,,,,,,,,,,,,,,,,,,,,,,,,,,,,,,,,,,,,,,,,,,,,,,,,,,,,,,,,,,,,,,,,,,,,,,,,,,,
,,698250f02c81242e57185b4f,2026-03-17_17h15.42.625,kallum_motion_pilot_GIST_update_2,2026.1.1,Win32,60.24096386,698250f02c81242e57185b4f,69b95efdef24cd8a694e89ee,69b9600d60f20d7fab57f71b,0.0786,0.0786,1,33,195,73,1,onethree,,,,,,,,,,,,,,,,,,,,,,,,,,,,,,,,,,,,,,,,,,,,,,,,,,,,,,,,,,,,,,,,,,,,,,,,,,,,,,,,,,,,,,,,,,,,,,,,,,,,,,,,,,,,,,,,,,,,,,,,,,,,,,,,,,,,,,,,,
,,698250f02c81242e57185b4f,2026-03-17_17h15.42.625,kallum_motion_pilot_GIST_update_2,2026.1.1,Win32,60.24096386,698250f02c81242e57185b4f,69b95efdef24cd8a694e89ee,69b9600d60f20d7fab57f71b,0.079,0.079,1,34,196,58,1,twoone,,,,,,,,,,,,,,,,,,,,,,,,,,,,,,,,,,,,,,,,,,,,,,,,,,,,,,,,,,,,,,,,,,,,,,,,,,,,,,,,,,,,,,,,,,,,,,,,,,,,,,,,,,,,,,,,,,,,,,,,,,,,,,,,,,,,,,,,,
,,698250f02c81242e57185b4f,2026-03-17_17h15.42.625,kallum_motion_pilot_GIST_update_2,2026.1.1,Win32,60.24096386,698250f02c81242e57185b4f,69b95efdef24cd8a694e89ee,69b9600d60f20d7fab57f71b,0.0791,0.0791,1,35,197,19,1,twofour,,,,,,,,,,,,,,,,,,,,,,,,,,,,,,,,,,,,,,,,,,,,,,,,,,,,,,,,,,,,,,,,,,,,,,,,,,,,,,,,,,,,,,,,,,,,,,,,,,,,,,,,,,,,,,,,,,,,,,,,,,,,,,,,,,,,,,,,,
,,698250f02c81242e57185b4f,2026-03-17_17h15.42.625,kallum_motion_pilot_GIST_update_2,2026.1.1,Win32,60.24096386,698250f02c81242e57185b4f,69b95efdef24cd8a694e89ee,69b9600d60f20d7fab57f71b,0.0794,0.0794,1,36,198,102,1,eightsix,,,,,,,,,,,,,,,,,,,,,,,,,,,,,,,,,,,,,,,,,,,,,,,,,,,,,,,,,,,,,,,,,,,,,,,,,,,,,,,,,,,,,,,,,,,,,,,,,,,,,,,,,,,,,,,,,,,,,,,,,,,,,,,,,,,,,,,,,
,,698250f02c81242e57185b4f,2026-03-17_17h15.42.625,kallum_motion_pilot_GIST_update_2,2026.1.1,Win32,60.24096386,698250f02c81242e57185b4f,69b95efdef24cd8a694e89ee,69b9600d60f20d7fab57f71b,0.0797,0.0797,1,37,199,131,1,sixeight,,,,,,,,,,,,,,,,,,,,,,,,,,,,,,,,,,,,,,,,,,,,,,,,,,,,,,,,,,,,,,,,,,,,,,,,,,,,,,,,,,,,,,,,,,,,,,,,,,,,,,,,,,,,,,,,,,,,,,,,,,,,,,,,,,,,,,,,,
,,698250f02c81242e57185b4f,2026-03-17_17h15.42.625,kallum_motion_pilot_GIST_update_2,2026.1.1,Win32,60.24096386,698250f02c81242e57185b4f,69b95efdef24cd8a694e89ee,69b9600d60f20d7fab57f71b,0.0799,0.0799,1,38,200,45,1,threefour,,,,,,,,,,,,,,,,,,,,,,,,,,,,,,,,,,,,,,,,,,,,,,,,,,,,,,,,,,,,,,,,,,,,,,,,,,,,,,,,,,,,,,,,,,,,,,,,,,,,,,,,,,,,,,,,,,,,,,,,,,,,,,,,,,,,,,,,,
,,698250f02c81242e57185b4f,2026-03-17_17h15.42.625,kallum_motion_pilot_GIST_update_2,2026.1.1,Win32,60.24096386,698250f02c81242e57185b4f,69b95efdef24cd8a694e89ee,69b9600d60f20d7fab57f71b,0.0801,0.0802,1,39,201,161,1,fiveseven,,,,,,,,,,,,,,,,,,,,,,,,,,,,,,,,,,,,,,,,,,,,,,,,,,,,,,,,,,,,,,,,,,,,,,,,,,,,,,,,,,,,,,,,,,,,,,,,,,,,,,,,,,,,,,,,,,,,,,,,,,,,,,,,,,,,,,,,,
,,698250f02c81242e57185b4f,2026-03-17_17h15.42.625,kallum_motion_pilot_GIST_update_2,2026.1.1,Win32,60.24096386,698250f02c81242e57185b4f,69b95efdef24cd8a694e89ee,69b9600d60f20d7fab57f71b,0.0804,0.0804,1,40,202,20,1,threeone,,,,,,,,,,,,,,,,,,,,,,,,,,,,,,,,,,,,,,,,,,,,,,,,,,,,,,,,,,,,,,,,,,,,,,,,,,,,,,,,,,,,,,,,,,,,,,,,,,,,,,,,,,,,,,,,,,,,,,,,,,,,,,,,,,,,,,,,,
,,698250f02c81242e57185b4f,2026-03-17_17h15.42.625,kallum_motion_pilot_GIST_update_2,2026.1.1,Win32,60.24096386,698250f02c81242e57185b4f,69b95efdef24cd8a694e89ee,69b9600d60f20d7fab57f71b,0.0806,0.0806,1,41,203,113,1,fiveseven,,,,,,,,,,,,,,,,,,,,,,,,,,,,,,,,,,,,,,,,,,,,,,,,,,,,,,,,,,,,,,,,,,,,,,,,,,,,,,,,,,,,,,,,,,,,,,,,,,,,,,,,,,,,,,,,,,,,,,,,,,,,,,,,,,,,,,,,,
,,698250f02c81242e57185b4f,2026-03-17_17h15.42.625,kallum_motion_pilot_GIST_update_2,2026.1.1,Win32,60.24096386,698250f02c81242e57185b4f,69b95efdef24cd8a694e89ee,69b9600d60f20d7fab57f71b,0.0808,0.0808,1,42,204,125,1,seveneight,,,,,,,,,,,,,,,,,,,,,,,,,,,,,,,,,,,,,,,,,,,,,,,,,,,,,,,,,,,,,,,,,,,,,,,,,,,,,,,,,,,,,,,,,,,,,,,,,,,,,,,,,,,,,,,,,,,,,,,,,,,,,,,,,,,,,,,,,
,,698250f02c81242e57185b4f,2026-03-17_17h15.42.625,kallum_motion_pilot_GIST_update_2,2026.1.1,Win32,60.24096386,698250f02c81242e57185b4f,69b95efdef24cd8a694e89ee,69b9600d60f20d7fab57f71b,0.0811,0.0811,1,43,205,7,1,fourthree,,,,,,,,,,,,,,,,,,,,,,,,,,,,,,,,,,,,,,,,,,,,,,,,,,,,,,,,,,,,,,,,,,,,,,,,,,,,,,,,,,,,,,,,,,,,,,,,,,,,,,,,,,,,,,,,,,,,,,,,,,,,,,,,,,,,,,,,,
,,698250f02c81242e57185b4f,2026-03-17_17h15.42.625,kallum_motion_pilot_GIST_update_2,2026.1.1,Win32,60.24096386,698250f02c81242e57185b4f,69b95efdef24cd8a694e89ee,69b9600d60f20d7fab57f71b,0.0813,0.0813,1,44,206,129,1,fiveseven,,,,,,,,,,,,,,,,,,,,,,,,,,,,,,,,,,,,,,,,,,,,,,,,,,,,,,,,,,,,,,,,,,,,,,,,,,,,,,,,,,,,,,,,,,,,,,,,,,,,,,,,,,,,,,,,,,,,,,,,,,,,,,,,,,,,,,,,,
,,698250f02c81242e57185b4f,2026-03-17_17h15.42.625,kallum_motion_pilot_GIST_update_2,2026.1.1,Win32,60.24096386,698250f02c81242e57185b4f,69b95efdef24cd8a694e89ee,69b9600d60f20d7fab57f71b,0.0815,0.0815,1,45,207,142,1,eightsix,,,,,,,,,,,,,,,,,,,,,,,,,,,,,,,,,,,,,,,,,,,,,,,,,,,,,,,,,,,,,,,,,,,,,,,,,,,,,,,,,,,,,,,,,,,,,,,,,,,,,,,,,,,,,,,,,,,,,,,,,,,,,,,,,,,,,,,,,
,,698250f02c81242e57185b4f,2026-03-17_17h15.42.625,kallum_motion_pilot_GIST_update_2,2026.1.1,Win32,60.24096386,698250f02c81242e57185b4f,69b95efdef24cd8a694e89ee,69b9600d60f20d7fab57f71b,0.0817,0.0817,1,46,208,136,1,fivesix,,,,,,,,,,,,,,,,,,,,,,,,,,,,,,,,,,,,,,,,,,,,,,,,,,,,,,,,,,,,,,,,,,,,,,,,,,,,,,,,,,,,,,,,,,,,,,,,,,,,,,,,,,,,,,,,,,,,,,,,,,,,,,,,,,,,,,,,,
,,698250f02c81242e57185b4f,2026-03-17_17h15.42.625,kallum_motion_pilot_GIST_update_2,2026.1.1,Win32,60.24096386,698250f02c81242e57185b4f,69b95efdef24cd8a694e89ee,69b9600d60f20d7fab57f71b,0.082,0.082,1,47,209,158,1,eightsix,,,,,,,,,,,,,,,,,,,,,,,,,,,,,,,,,,,,,,,,,,,,,,,,,,,,,,,,,,,,,,,,,,,,,,,,,,,,,,,,,,,,,,,,,,,,,,,,,,,,,,,,,,,,,,,,,,,,,,,,,,,,,,,,,,,,,,,,,
,,698250f02c81242e57185b4f,2026-03-17_17h15.42.625,kallum_motion_pilot_GIST_update_2,2026.1.1,Win32,60.24096386,698250f02c81242e57185b4f,69b95efdef24cd8a694e89ee,69b9600d60f20d7fab57f71b,0.0823,0.0823,1,48,210,94,1,eightsix,,,,,,,,,,,,,,,,,,,,,,,,,,,,,,,,,,,,,,,,,,,,,,,,,,,,,,,,,,,,,,,,,,,,,,,,,,,,,,,,,,,,,,,,,,,,,,,,,,,,,,,,,,,,,,,,,,,,,,,,,,,,,,,,,,,,,,,,,
,,698250f02c81242e57185b4f,2026-03-17_17h15.42.625,kallum_motion_pilot_GIST_update_2,2026.1.1,Win32,60.24096386,698250f02c81242e57185b4f,69b95efdef24cd8a694e89ee,69b9600d60f20d7fab57f71b,0.0824,0.0824,1,49,211,90,1,sixfive,,,,,,,,,,,,,,,,,,,,,,,,,,,,,,,,,,,,,,,,,,,,,,,,,,,,,,,,,,,,,,,,,,,,,,,,,,,,,,,,,,,,,,,,,,,,,,,,,,,,,,,,,,,,,,,,,,,,,,,,,,,,,,,,,,,,,,,,,
,,698250f02c81242e57185b4f,2026-03-17_17h15.42.625,kallum_motion_pilot_GIST_update_2,2026.1.1,Win32,60.24096386,698250f02c81242e57185b4f,69b95efdef24cd8a694e89ee,69b9600d60f20d7fab57f71b,0.0828,0.0828,1,50,212,112,1,fivesix,,,,,,,,,,,,,,,,,,,,,,,,,,,,,,,,,,,,,,,,,,,,,,,,,,,,,,,,,,,,,,,,,,,,,,,,,,,,,,,,,,,,,,,,,,,,,,,,,,,,,,,,,,,,,,,,,,,,,,,,,,,,,,,,,,,,,,,,,
,,698250f02c81242e57185b4f,2026-03-17_17h15.42.625,kallum_motion_pilot_GIST_update_2,2026.1.1,Win32,60.24096386,698250f02c81242e57185b4f,69b95efdef24cd8a694e89ee,69b9600d60f20d7fab57f71b,0.0831,0.0831,1,51,213,59,1,twofour,,,,,,,,,,,,,,,,,,,,,,,,,,,,,,,,,,,,,,,,,,,,,,,,,,,,,,,,,,,,,,,,,,,,,,,,,,,,,,,,,,,,,,,,,,,,,,,,,,,,,,,,,,,,,,,,,,,,,,,,,,,,,,,,,,,,,,,,,
,,698250f02c81242e57185b4f,2026-03-17_17h15.42.625,kallum_motion_pilot_GIST_update_2,2026.1.1,Win32,60.24096386,698250f02c81242e57185b4f,69b95efdef24cd8a694e89ee,69b9600d60f20d7fab57f71b,0.0833,0.0833,1,52,214,118,1,eightsix,,,,,,,,,,,,,,,,,,,,,,,,,,,,,,,,,,,,,,,,,,,,,,,,,,,,,,,,,,,,,,,,,,,,,,,,,,,,,,,,,,,,,,,,,,,,,,,,,,,,,,,,,,,,,,,,,,,,,,,,,,,,,,,,,,,,,,,,,
,,698250f02c81242e57185b4f,2026-03-17_17h15.42.625,kallum_motion_pilot_GIST_update_2,2026.1.1,Win32,60.24096386,698250f02c81242e57185b4f,69b95efdef24cd8a694e89ee,69b9600d60f20d7fab57f71b,0.0836,0.0836,1,53,215,35,1,twofour,,,,,,,,,,,,,,,,,,,,,,,,,,,,,,,,,,,,,,,,,,,,,,,,,,,,,,,,,,,,,,,,,,,,,,,,,,,,,,,,,,,,,,,,,,,,,,,,,,,,,,,,,,,,,,,,,,,,,,,,,,,,,,,,,,,,,,,,,
,,698250f02c81242e57185b4f,2026-03-17_17h15.42.625,kallum_motion_pilot_GIST_update_2,2026.1.1,Win32,60.24096386,698250f02c81242e57185b4f,69b95efdef24cd8a694e89ee,69b9600d60f20d7fab57f71b,0.0838,0.0838,1,54,216,44,1,threeone,,,,,,,,,,,,,,,,,,,,,,,,,,,,,,,,,,,,,,,,,,,,,,,,,,,,,,,,,,,,,,,,,,,,,,,,,,,,,,,,,,,,,,,,,,,,,,,,,,,,,,,,,,,,,,,,,,,,,,,,,,,,,,,,,,,,,,,,,
,,698250f02c81242e57185b4f,2026-03-17_17h15.42.625,kallum_motion_pilot_GIST_update_2,2026.1.1,Win32,60.24096386,698250f02c81242e57185b4f,69b95efdef24cd8a694e89ee,69b9600d60f20d7fab57f71b,0.084,0.084,1,55,217,122,1,sixfive,,,,,,,,,,,,,,,,,,,,,,,,,,,,,,,,,,,,,,,,,,,,,,,,,,,,,,,,,,,,,,,,,,,,,,,,,,,,,,,,,,,,,,,,,,,,,,,,,,,,,,,,,,,,,,,,,,,,,,,,,,,,,,,,,,,,,,,,,
,,698250f02c81242e57185b4f,2026-03-17_17h15.42.625,kallum_motion_pilot_GIST_update_2,2026.1.1,Win32,60.24096386,698250f02c81242e57185b4f,69b95efdef24cd8a694e89ee,69b9600d60f20d7fab57f71b,0.0843,0.0843,1,56,218,93,1,seveneight,,,,,,,,,,,,,,,,,,,,,,,,,,,,,,,,,,,,,,,,,,,,,,,,,,,,,,,,,,,,,,,,,,,,,,,,,,,,,,,,,,,,,,,,,,,,,,,,,,,,,,,,,,,,,,,,,,,,,,,,,,,,,,,,,,,,,,,,,
,,698250f02c81242e57185b4f,2026-03-17_17h15.42.625,kallum_motion_pilot_GIST_update_2,2026.1.1,Win32,60.24096386,698250f02c81242e57185b4f,69b95efdef24cd8a694e89ee,69b9600d60f20d7fab57f71b,0.0845,0.0845,1,57,219,3,1,twofour,,,,,,,,,,,,,,,,,,,,,,,,,,,,,,,,,,,,,,,,,,,,,,,,,,,,,,,,,,,,,,,,,,,,,,,,,,,,,,,,,,,,,,,,,,,,,,,,,,,,,,,,,,,,,,,,,,,,,,,,,,,,,,,,,,,,,,,,,
,,698250f02c81242e57185b4f,2026-03-17_17h15.42.625,kallum_motion_pilot_GIST_update_2,2026.1.1,Win32,60.24096386,698250f02c81242e57185b4f,69b95efdef24cd8a694e89ee,69b9600d60f20d7fab57f71b,0.0848,0.0848,1,58,220,56,1,onetwo,,,,,,,,,,,,,,,,,,,,,,,,,,,,,,,,,,,,,,,,,,,,,,,,,,,,,,,,,,,,,,,,,,,,,,,,,,,,,,,,,,,,,,,,,,,,,,,,,,,,,,,,,,,,,,,,,,,,,,,,,,,,,,,,,,,,,,,,,
,,698250f02c81242e57185b4f,2026-03-17_17h15.42.625,kallum_motion_pilot_GIST_update_2,2026.1.1,Win32,60.24096386,698250f02c81242e57185b4f,69b95efdef24cd8a694e89ee,69b9600d60f20d7fab57f71b,0.085,0.0851,1,59,221,81,1,fiveseven,,,,,,,,,,,,,,,,,,,,,,,,,,,,,,,,,,,,,,,,,,,,,,,,,,,,,,,,,,,,,,,,,,,,,,,,,,,,,,,,,,,,,,,,,,,,,,,,,,,,,,,,,,,,,,,,,,,,,,,,,,,,,,,,,,,,,,,,,
,,698250f02c81242e57185b4f,2026-03-17_17h15.42.625,kallum_motion_pilot_GIST_update_2,2026.1.1,Win32,60.24096386,698250f02c81242e57185b4f,69b95efdef24cd8a694e89ee,69b9600d60f20d7fab57f71b,0.0854,0.0854,1,60,222,28,1,threeone,,,,,,,,,,,,,,,,,,,,,,,,,,,,,,,,,,,,,,,,,,,,,,,,,,,,,,,,,,,,,,,,,,,,,,,,,,,,,,,,,,,,,,,,,,,,,,,,,,,,,,,,,,,,,,,,,,,,,,,,,,,,,,,,,,,,,,,,,
,,698250f02c81242e57185b4f,2026-03-17_17h15.42.625,kallum_motion_pilot_GIST_update_2,2026.1.1,Win32,60.24096386,698250f02c81242e57185b4f,69b95efdef24cd8a694e89ee,69b9600d60f20d7fab57f71b,0.0855,0.0856,1,61,223,104,1,fivesix,,,,,,,,,,,,,,,,,,,,,,,,,,,,,,,,,,,,,,,,,,,,,,,,,,,,,,,,,,,,,,,,,,,,,,,,,,,,,,,,,,,,,,,,,,,,,,,,,,,,,,,,,,,,,,,,,,,,,,,,,,,,,,,,,,,,,,,,,
,,698250f02c81242e57185b4f,2026-03-17_17h15.42.625,kallum_motion_pilot_GIST_update_2,2026.1.1,Win32,60.24096386,698250f02c81242e57185b4f,69b95efdef24cd8a694e89ee,69b9600d60f20d7fab57f71b,0.0858,0.0858,1,62,224,141,1,seveneight,,,,,,,,,,,,,,,,,,,,,,,,,,,,,,,,,,,,,,,,,,,,,,,,,,,,,,,,,,,,,,,,,,,,,,,,,,,,,,,,,,,,,,,,,,,,,,,,,,,,,,,,,,,,,,,,,,,,,,,,,,,,,,,,,,,,,,,,,
,,698250f02c81242e57185b4f,2026-03-17_17h15.42.625,kallum_motion_pilot_GIST_update_2,2026.1.1,Win32,60.24096386,698250f02c81242e57185b4f,69b95efdef24cd8a694e89ee,69b9600d60f20d7fab57f71b,0.0861,0.0861,1,63,225,70,1,fourtwo,,,,,,,,,,,,,,,,,,,,,,,,,,,,,,,,,,,,,,,,,,,,,,,,,,,,,,,,,,,,,,,,,,,,,,,,,,,,,,,,,,,,,,,,,,,,,,,,,,,,,,,,,,,,,,,,,,,,,,,,,,,,,,,,,,,,,,,,,
,,698250f02c81242e57185b4f,2026-03-17_17h15.42.625,kallum_motion_pilot_GIST_update_2,2026.1.1,Win32,60.24096386,698250f02c81242e57185b4f,69b95efdef24cd8a694e89ee,69b9600d60f20d7fab57f71b,0.0862,0.0863,1,64,226,17,1,onethree,,,,,,,,,,,,,,,,,,,,,,,,,,,,,,,,,,,,,,,,,,,,,,,,,,,,,,,,,,,,,,,,,,,,,,,,,,,,,,,,,,,,,,,,,,,,,,,,,,,,,,,,,,,,,,,,,,,,,,,,,,,,,,,,,,,,,,,,,
,,698250f02c81242e57185b4f,2026-03-17_17h15.42.625,kallum_motion_pilot_GIST_update_2,2026.1.1,Win32,60.24096386,698250f02c81242e57185b4f,69b95efdef24cd8a694e89ee,69b9600d60f20d7fab57f71b,0.0865,0.0865,1,65,227,103,1,eightseven,,,,,,,,,,,,,,,,,,,,,,,,,,,,,,,,,,,,,,,,,,,,,,,,,,,,,,,,,,,,,,,,,,,,,,,,,,,,,,,,,,,,,,,,,,,,,,,,,,,,,,,,,,,,,,,,,,,,,,,,,,,,,,,,,,,,,,,,,
,,698250f02c81242e57185b4f,2026-03-17_17h15.42.625,kallum_motion_pilot_GIST_update_2,2026.1.1,Win32,60.24096386,698250f02c81242e57185b4f,69b95efdef24cd8a694e89ee,69b9600d60f20d7fab57f71b,0.0868,0.0868,1,66,228,120,1,fivesix,,,,,,,,,,,,,,,,,,,,,,,,,,,,,,,,,,,,,,,,,,,,,,,,,,,,,,,,,,,,,,,,,,,,,,,,,,,,,,,,,,,,,,,,,,,,,,,,,,,,,,,,,,,,,,,,,,,,,,,,,,,,,,,,,,,,,,,,,
,,698250f02c81242e57185b4f,2026-03-17_17h15.42.625,kallum_motion_pilot_GIST_update_2,2026.1.1,Win32,60.24096386,698250f02c81242e57185b4f,69b95efdef24cd8a694e89ee,69b9600d60f20d7fab57f71b,0.087,0.087,1,67,229,6,1,fourtwo,,,,,,,,,,,,,,,,,,,,,,,,,,,,,,,,,,,,,,,,,,,,,,,,,,,,,,,,,,,,,,,,,,,,,,,,,,,,,,,,,,,,,,,,,,,,,,,,,,,,,,,,,,,,,,,,,,,,,,,,,,,,,,,,,,,,,,,,,
,,698250f02c81242e57185b4f,2026-03-17_17h15.42.625,kallum_motion_pilot_GIST_update_2,2026.1.1,Win32,60.24096386,698250f02c81242e57185b4f,69b95efdef24cd8a694e89ee,69b9600d60f20d7fab57f71b,0.0872,0.0872,1,68,230,132,1,sevenfive,,,,,,,,,,,,,,,,,,,,,,,,,,,,,,,,,,,,,,,,,,,,,,,,,,,,,,,,,,,,,,,,,,,,,,,,,,,,,,,,,,,,,,,,,,,,,,,,,,,,,,,,,,,,,,,,,,,,,,,,,,,,,,,,,,,,,,,,,
,,698250f02c81242e57185b4f,2026-03-17_17h15.42.625,kallum_motion_pilot_GIST_update_2,2026.1.1,Win32,60.24096386,698250f02c81242e57185b4f,69b95efdef24cd8a694e89ee,69b9600d60f20d7fab57f71b,0.0874,0.0874,1,69,231,160,1,fivesix,,,,,,,,,,,,,,,,,,,,,,,,,,,,,,,,,,,,,,,,,,,,,,,,,,,,,,,,,,,,,,,,,,,,,,,,,,,,,,,,,,,,,,,,,,,,,,,,,,,,,,,,,,,,,,,,,,,,,,,,,,,,,,,,,,,,,,,,,
,,698250f02c81242e57185b4f,2026-03-17_17h15.42.625,kallum_motion_pilot_GIST_update_2,2026.1.1,Win32,60.24096386,698250f02c81242e57185b4f,69b95efdef24cd8a694e89ee,69b9600d60f20d7fab57f71b,0.0877,0.0877,1,70,232,2,1,twoone,,,,,,,,,,,,,,,,,,,,,,,,,,,,,,,,,,,,,,,,,,,,,,,,,,,,,,,,,,,,,,,,,,,,,,,,,,,,,,,,,,,,,,,,,,,,,,,,,,,,,,,,,,,,,,,,,,,,,,,,,,,,,,,,,,,,,,,,,
,,698250f02c81242e57185b4f,2026-03-17_17h15.42.625,kallum_motion_pilot_GIST_update_2,2026.1.1,Win32,60.24096386,698250f02c81242e57185b4f,69b95efdef24cd8a694e89ee,69b9600d60f20d7fab57f71b,0.0879,0.0879,1,71,233,87,1,eightseven,,,,,,,,,,,,,,,,,,,,,,,,,,,,,,,,,,,,,,,,,,,,,,,,,,,,,,,,,,,,,,,,,,,,,,,,,,,,,,,,,,,,,,,,,,,,,,,,,,,,,,,,,,,,,,,,,,,,,,,,,,,,,,,,,,,,,,,,,
,,698250f02c81242e57185b4f,2026-03-17_17h15.42.625,kallum_motion_pilot_GIST_update_2,2026.1.1,Win32,60.24096386,698250f02c81242e57185b4f,69b95efdef24cd8a694e89ee,69b9600d60f20d7fab57f71b,0.0882,0.0882,1,72,234,27,1,twofour,,,,,,,,,,,,,,,,,,,,,,,,,,,,,,,,,,,,,,,,,,,,,,,,,,,,,,,,,,,,,,,,,,,,,,,,,,,,,,,,,,,,,,,,,,,,,,,,,,,,,,,,,,,,,,,,,,,,,,,,,,,,,,,,,,,,,,,,,
,,698250f02c81242e57185b4f,2026-03-17_17h15.42.625,kallum_motion_pilot_GIST_update_2,2026.1.1,Win32,60.24096386,698250f02c81242e57185b4f,69b95efdef24cd8a694e89ee,69b9600d60f20d7fab57f71b,0.0884,0.0884,1,73,235,157,1,seveneight,,,,,,,,,,,,,,,,,,,,,,,,,,,,,,,,,,,,,,,,,,,,,,,,,,,,,,,,,,,,,,,,,,,,,,,,,,,,,,,,,,,,,,,,,,,,,,,,,,,,,,,,,,,,,,,,,,,,,,,,,,,,,,,,,,,,,,,,,
,,698250f02c81242e57185b4f,2026-03-17_17h15.42.625,kallum_motion_pilot_GIST_update_2,2026.1.1,Win32,60.24096386,698250f02c81242e57185b4f,69b95efdef24cd8a694e89ee,69b9600d60f20d7fab57f71b,0.0886,0.0886,1,74,236,109,1,seveneight,,,,,,,,,,,,,,,,,,,,,,,,,,,,,,,,,,,,,,,,,,,,,,,,,,,,,,,,,,,,,,,,,,,,,,,,,,,,,,,,,,,,,,,,,,,,,,,,,,,,,,,,,,,,,,,,,,,,,,,,,,,,,,,,,,,,,,,,,
,,698250f02c81242e57185b4f,2026-03-17_17h15.42.625,kallum_motion_pilot_GIST_update_2,2026.1.1,Win32,60.24096386,698250f02c81242e57185b4f,69b95efdef24cd8a694e89ee,69b9600d60f20d7fab57f71b,0.0888,0.0888,1,75,237,49,1,onethree,,,,,,,,,,,,,,,,,,,,,,,,,,,,,,,,,,,,,,,,,,,,,,,,,,,,,,,,,,,,,,,,,,,,,,,,,,,,,,,,,,,,,,,,,,,,,,,,,,,,,,,,,,,,,,,,,,,,,,,,,,,,,,,,,,,,,,,,,
,,698250f02c81242e57185b4f,2026-03-17_17h15.42.625,kallum_motion_pilot_GIST_update_2,2026.1.1,Win32,60.24096386,698250f02c81242e57185b4f,69b95efdef24cd8a694e89ee,69b9600d60f20d7fab57f71b,0.089,0.089,1,76,238,39,1,fourthree,,,,,,,,,,,,,,,,,,,,,,,,,,,,,,,,,,,,,,,,,,,,,,,,,,,,,,,,,,,,,,,,,,,,,,,,,,,,,,,,,,,,,,,,,,,,,,,,,,,,,,,,,,,,,,,,,,,,,,,,,,,,,,,,,,,,,,,,,
,,698250f02c81242e57185b4f,2026-03-17_17h15.42.625,kallum_motion_pilot_GIST_update_2,2026.1.1,Win32,60.24096386,698250f02c81242e57185b4f,69b95efdef24cd8a694e89ee,69b9600d60f20d7fab57f71b,0.0892,0.0893,1,77,239,89,1,fiveseven,,,,,,,,,,,,,,,,,,,,,,,,,,,,,,,,,,,,,,,,,,,,,,,,,,,,,,,,,,,,,,,,,,,,,,,,,,,,,,,,,,,,,,,,,,,,,,,,,,,,,,,,,,,,,,,,,,,,,,,,,,,,,,,,,,,,,,,,,
,,698250f02c81242e57185b4f,2026-03-17_17h15.42.625,kallum_motion_pilot_GIST_update_2,2026.1.1,Win32,60.24096386,698250f02c81242e57185b4f,69b95efdef24cd8a694e89ee,69b9600d60f20d7fab57f71b,0.0896,0.0896,1,78,240,138,1,sixfive,,,,,,,,,,,,,,,,,,,,,,,,,,,,,,,,,,,,,,,,,,,,,,,,,,,,,,,,,,,,,,,,,,,,,,,,,,,,,,,,,,,,,,,,,,,,,,,,,,,,,,,,,,,,,,,,,,,,,,,,,,,,,,,,,,,,,,,,,
,,698250f02c81242e57185b4f,2026-03-17_17h15.42.625,kallum_motion_pilot_GIST_update_2,2026.1.1,Win32,60.24096386,698250f02c81242e57185b4f,69b95efdef24cd8a694e89ee,69b9600d60f20d7fab57f71b,0.0898,0.0898,1,79,241,77,1,threefour,,,,,,,,,,,,,,,,,,,,,,,,,,,,,,,,,,,,,,,,,,,,,,,,,,,,,,,,,,,,,,,,,,,,,,,,,,,,,,,,,,,,,,,,,,,,,,,,,,,,,,,,,,,,,,,,,,,,,,,,,,,,,,,,,,,,,,,,,
,,698250f02c81242e57185b4f,2026-03-17_17h15.42.625,kallum_motion_pilot_GIST_update_2,2026.1.1,Win32,60.24096386,698250f02c81242e57185b4f,69b95efdef24cd8a694e89ee,69b9600d60f20d7fab57f71b,0.0901,0.0901,1,80,242,22,1,fourtwo,,,,,,,,,,,,,,,,,,,,,,,,,,,,,,,,,,,,,,,,,,,,,,,,,,,,,,,,,,,,,,,,,,,,,,,,,,,,,,,,,,,,,,,,,,,,,,,,,,,,,,,,,,,,,,,,,,,,,,,,,,,,,,,,,,,,,,,,,
,,698250f02c81242e57185b4f,2026-03-17_17h15.42.625,kallum_motion_pilot_GIST_update_2,2026.1.1,Win32,60.24096386,698250f02c81242e57185b4f,69b95efdef24cd8a694e89ee,69b9600d60f20d7fab57f71b,0.0903,0.0903,1,81,243,9,1,onethree,,,,,,,,,,,,,,,,,,,,,,,,,,,,,,,,,,,,,,,,,,,,,,,,,,,,,,,,,,,,,,,,,,,,,,,,,,,,,,,,,,,,,,,,,,,,,,,,,,,,,,,,,,,,,,,,,,,,,,,,,,,,,,,,,,,,,,,,,
,,698250f02c81242e57185b4f,2026-03-17_17h15.42.625,kallum_motion_pilot_GIST_update_2,2026.1.1,Win32,60.24096386,698250f02c81242e57185b4f,69b95efdef24cd8a694e89ee,69b9600d60f20d7fab57f71b,0.0905,0.0905,1,82,244,146,1,sixfive,,,,,,,,,,,,,,,,,,,,,,,,,,,,,,,,,,,,,,,,,,,,,,,,,,,,,,,,,,,,,,,,,,,,,,,,,,,,,,,,,,,,,,,,,,,,,,,,,,,,,,,,,,,,,,,,,,,,,,,,,,,,,,,,,,,,,,,,,
,,698250f02c81242e57185b4f,2026-03-17_17h15.42.625,kallum_motion_pilot_GIST_update_2,2026.1.1,Win32,60.24096386,698250f02c81242e57185b4f,69b95efdef24cd8a694e89ee,69b9600d60f20d7fab57f71b,0.0908,0.0908,1,83,245,79,1,eightseven,,,,,,,,,,,,,,,,,,,,,,,,,,,,,,,,,,,,,,,,,,,,,,,,,,,,,,,,,,,,,,,,,,,,,,,,,,,,,,,,,,,,,,,,,,,,,,,,,,,,,,,,,,,,,,,,,,,,,,,,,,,,,,,,,,,,,,,,,
,,698250f02c81242e57185b4f,2026-03-17_17h15.42.625,kallum_motion_pilot_GIST_update_2,2026.1.1,Win32,60.24096386,698250f02c81242e57185b4f,69b95efdef24cd8a694e89ee,69b9600d60f20d7fab57f71b,0.091,0.091,1,84,246,119,1,eightseven,,,,,,,,,,,,,,,,,,,,,,,,,,,,,,,,,,,,,,,,,,,,,,,,,,,,,,,,,,,,,,,,,,,,,,,,,,,,,,,,,,,,,,,,,,,,,,,,,,,,,,,,,,,,,,,,,,,,,,,,,,,,,,,,,,,,,,,,,
,,698250f02c81242e57185b4f,2026-03-17_17h15.42.625,kallum_motion_pilot_GIST_update_2,2026.1.1,Win32,60.24096386,698250f02c81242e57185b4f,69b95efdef24cd8a694e89ee,69b9600d60f20d7fab57f71b,0.0912,0.0912,1,85,247,62,1,fourtwo,,,,,,,,,,,,,,,,,,,,,,,,,,,,,,,,,,,,,,,,,,,,,,,,,,,,,,,,,,,,,,,,,,,,,,,,,,,,,,,,,,,,,,,,,,,,,,,,,,,,,,,,,,,,,,,,,,,,,,,,,,,,,,,,,,,,,,,,,
,,698250f02c81242e57185b4f,2026-03-17_17h15.42.625,kallum_motion_pilot_GIST_update_2,2026.1.1,Win32,60.24096386,698250f02c81242e57185b4f,69b95efdef24cd8a694e89ee,69b9600d60f20d7fab57f71b,0.0915,0.0915,1,86,248,18,1,twoone,,,,,,,,,,,,,,,,,,,,,,,,,,,,,,,,,,,,,,,,,,,,,,,,,,,,,,,,,,,,,,,,,,,,,,,,,,,,,,,,,,,,,,,,,,,,,,,,,,,,,,,,,,,,,,,,,,,,,,,,,,,,,,,,,,,,,,,,,
,,698250f02c81242e57185b4f,2026-03-17_17h15.42.625,kallum_motion_pilot_GIST_update_2,2026.1.1,Win32,60.24096386,698250f02c81242e57185b4f,69b95efdef24cd8a694e89ee,69b9600d60f20d7fab57f71b,0.0917,0.0917,1,87,249,145,1,fiveseven,,,,,,,,,,,,,,,,,,,,,,,,,,,,,,,,,,,,,,,,,,,,,,,,,,,,,,,,,,,,,,,,,,,,,,,,,,,,,,,,,,,,,,,,,,,,,,,,,,,,,,,,,,,,,,,,,,,,,,,,,,,,,,,,,,,,,,,,,
,,698250f02c81242e57185b4f,2026-03-17_17h15.42.625,kallum_motion_pilot_GIST_update_2,2026.1.1,Win32,60.24096386,698250f02c81242e57185b4f,69b95efdef24cd8a694e89ee,69b9600d60f20d7fab57f71b,0.092,0.092,1,88,250,134,1,eightsix,,,,,,,,,,,,,,,,,,,,,,,,,,,,,,,,,,,,,,,,,,,,,,,,,,,,,,,,,,,,,,,,,,,,,,,,,,,,,,,,,,,,,,,,,,,,,,,,,,,,,,,,,,,,,,,,,,,,,,,,,,,,,,,,,,,,,,,,,
,,698250f02c81242e57185b4f,2026-03-17_17h15.42.625,kallum_motion_pilot_GIST_update_2,2026.1.1,Win32,60.24096386,698250f02c81242e57185b4f,69b95efdef24cd8a694e89ee,69b9600d60f20d7fab57f71b,0.0922,0.0922,1,89,251,105,1,fiveseven,,,,,,,,,,,,,,,,,,,,,,,,,,,,,,,,,,,,,,,,,,,,,,,,,,,,,,,,,,,,,,,,,,,,,,,,,,,,,,,,,,,,,,,,,,,,,,,,,,,,,,,,,,,,,,,,,,,,,,,,,,,,,,,,,,,,,,,,,
,,698250f02c81242e57185b4f,2026-03-17_17h15.42.625,kallum_motion_pilot_GIST_update_2,2026.1.1,Win32,60.24096386,698250f02c81242e57185b4f,69b95efdef24cd8a694e89ee,69b9600d60f20d7fab57f71b,0.0924,0.0924,1,90,252,85,1,seveneight,,,,,,,,,,,,,,,,,,,,,,,,,,,,,,,,,,,,,,,,,,,,,,,,,,,,,,,,,,,,,,,,,,,,,,,,,,,,,,,,,,,,,,,,,,,,,,,,,,,,,,,,,,,,,,,,,,,,,,,,,,,,,,,,,,,,,,,,,
,,698250f02c81242e57185b4f,2026-03-17_17h15.42.625,kallum_motion_pilot_GIST_update_2,2026.1.1,Win32,60.24096386,698250f02c81242e57185b4f,69b95efdef24cd8a694e89ee,69b9600d60f20d7fab57f71b,0.0926,0.0926,1,91,253,65,1,onethree,,,,,,,,,,,,,,,,,,,,,,,,,,,,,,,,,,,,,,,,,,,,,,,,,,,,,,,,,,,,,,,,,,,,,,,,,,,,,,,,,,,,,,,,,,,,,,,,,,,,,,,,,,,,,,,,,,,,,,,,,,,,,,,,,,,,,,,,,
,,698250f02c81242e57185b4f,2026-03-17_17h15.42.625,kallum_motion_pilot_GIST_update_2,2026.1.1,Win32,60.24096386,698250f02c81242e57185b4f,69b95efdef24cd8a694e89ee,69b9600d60f20d7fab57f71b,0.0929,0.0929,1,92,254,121,1,fiveseven,,,,,,,,,,,,,,,,,,,,,,,,,,,,,,,,,,,,,,,,,,,,,,,,,,,,,,,,,,,,,,,,,,,,,,,,,,,,,,,,,,,,,,,,,,,,,,,,,,,,,,,,,,,,,,,,,,,,,,,,,,,,,,,,,,,,,,,,,
,,698250f02c81242e57185b4f,2026-03-17_17h15.42.625,kallum_motion_pilot_GIST_update_2,2026.1.1,Win32,60.24096386,698250f02c81242e57185b4f,69b95efdef24cd8a694e89ee,69b9600d60f20d7fab57f71b,0.0933,0.0934,1,93,255,50,1,twoone,,,,,,,,,,,,,,,,,,,,,,,,,,,,,,,,,,,,,,,,,,,,,,,,,,,,,,,,,,,,,,,,,,,,,,,,,,,,,,,,,,,,,,,,,,,,,,,,,,,,,,,,,,,,,,,,,,,,,,,,,,,,,,,,,,,,,,,,,
,,698250f02c81242e57185b4f,2026-03-17_17h15.42.625,kallum_motion_pilot_GIST_update_2,2026.1.1,Win32,60.24096386,698250f02c81242e57185b4f,69b95efdef24cd8a694e89ee,69b9600d60f20d7fab57f71b,0.0937,0.0937,1,94,256,67,1,twofour,,,,,,,,,,,,,,,,,,,,,,,,,,,,,,,,,,,,,,,,,,,,,,,,,,,,,,,,,,,,,,,,,,,,,,,,,,,,,,,,,,,,,,,,,,,,,,,,,,,,,,,,,,,,,,,,,,,,,,,,,,,,,,,,,,,,,,,,,
,,698250f02c81242e57185b4f,2026-03-17_17h15.42.625,kallum_motion_pilot_GIST_update_2,2026.1.1,Win32,60.24096386,698250f02c81242e57185b4f,69b95efdef24cd8a694e89ee,69b9600d60f20d7fab57f71b,0.0938,0.0939,1,95,257,133,1,seveneight,,,,,,,,,,,,,,,,,,,,,,,,,,,,,,,,,,,,,,,,,,,,,,,,,,,,,,,,,,,,,,,,,,,,,,,,,,,,,,,,,,,,,,,,,,,,,,,,,,,,,,,,,,,,,,,,,,,,,,,,,,,,,,,,,,,,,,,,,
,,698250f02c81242e57185b4f,2026-03-17_17h15.42.625,kallum_motion_pilot_GIST_update_2,2026.1.1,Win32,60.24096386,698250f02c81242e57185b4f,69b95efdef24cd8a694e89ee,69b9600d60f20d7fab57f71b,0.0941,0.0941,1,96,258,153,1,fiveseven,,,,,,,,,,,,,,,,,,,,,,,,,,,,,,,,,,,,,,,,,,,,,,,,,,,,,,,,,,,,,,,,,,,,,,,,,,,,,,,,,,,,,,,,,,,,,,,,,,,,,,,,,,,,,,,,,,,,,,,,,,,,,,,,,,,,,,,,,
,,698250f02c81242e57185b4f,2026-03-17_17h15.42.625,kallum_motion_pilot_GIST_update_2,2026.1.1,Win32,60.24096386,698250f02c81242e57185b4f,69b95efdef24cd8a694e89ee,69b9600d60f20d7fab57f71b,0.0943,0.0943,1,97,259,100,1,sevenfive,,,,,,,,,,,,,,,,,,,,,,,,,,,,,,,,,,,,,,,,,,,,,,,,,,,,,,,,,,,,,,,,,,,,,,,,,,,,,,,,,,,,,,,,,,,,,,,,,,,,,,,,,,,,,,,,,,,,,,,,,,,,,,,,,,,,,,,,,
,,698250f02c81242e57185b4f,2026-03-17_17h15.42.625,kallum_motion_pilot_GIST_update_2,2026.1.1,Win32,60.24096386,698250f02c81242e57185b4f,69b95efdef24cd8a694e89ee,69b9600d60f20d7fab57f71b,0.0945,0.0945,1,98,260,124,1,sevenfive,,,,,,,,,,,,,,,,,,,,,,,,,,,,,,,,,,,,,,,,,,,,,,,,,,,,,,,,,,,,,,,,,,,,,,,,,,,,,,,,,,,,,,,,,,,,,,,,,,,,,,,,,,,,,,,,,,,,,,,,,,,,,,,,,,,,,,,,,
,,698250f02c81242e57185b4f,2026-03-17_17h15.42.625,kallum_motion_pilot_GIST_update_2,2026.1.1,Win32,60.24096386,698250f02c81242e57185b4f,69b95efdef24cd8a694e89ee,69b9600d60f20d7fab57f71b,0.0948,0.0948,1,99,261,82,1,sixfive,,,,,,,,,,,,,,,,,,,,,,,,,,,,,,,,,,,,,,,,,,,,,,,,,,,,,,,,,,,,,,,,,,,,,,,,,,,,,,,,,,,,,,,,,,,,,,,,,,,,,,,,,,,,,,,,,,,,,,,,,,,,,,,,,,,,,,,,,
,,698250f02c81242e57185b4f,2026-03-17_17h15.42.625,kallum_motion_pilot_GIST_update_2,2026.1.1,Win32,60.24096386,698250f02c81242e57185b4f,69b95efdef24cd8a694e89ee,69b9600d60f20d7fab57f71b,0.0951,0.0952,1,100,262,111,1,eightseven,,,,,,,,,,,,,,,,,,,,,,,,,,,,,,,,,,,,,,,,,,,,,,,,,,,,,,,,,,,,,,,,,,,,,,,,,,,,,,,,,,,,,,,,,,,,,,,,,,,,,,,,,,,,,,,,,,,,,,,,,,,,,,,,,,,,,,,,,
,,698250f02c81242e57185b4f,2026-03-17_17h15.42.625,kallum_motion_pilot_GIST_update_2,2026.1.1,Win32,60.24096386,698250f02c81242e57185b4f,69b95efdef24cd8a694e89ee,69b9600d60f20d7fab57f71b,0.0954,0.0954,1,101,263,108,1,sevenfive,,,,,,,,,,,,,,,,,,,,,,,,,,,,,,,,,,,,,,,,,,,,,,,,,,,,,,,,,,,,,,,,,,,,,,,,,,,,,,,,,,,,,,,,,,,,,,,,,,,,,,,,,,,,,,,,,,,,,,,,,,,,,,,,,,,,,,,,,
,,698250f02c81242e57185b4f,2026-03-17_17h15.42.625,kallum_motion_pilot_GIST_update_2,2026.1.1,Win32,60.24096386,698250f02c81242e57185b4f,69b95efdef24cd8a694e89ee,69b9600d60f20d7fab57f71b,0.0968,0.0968,1,102,264,155,1,sixeight,,,,,,,,,,,,,,,,,,,,,,,,,,,,,,,,,,,,,,,,,,,,,,,,,,,,,,,,,,,,,,,,,,,,,,,,,,,,,,,,,,,,,,,,,,,,,,,,,,,,,,,,,,,,,,,,,,,,,,,,,,,,,,,,,,,,,,,,,
,,698250f02c81242e57185b4f,2026-03-17_17h15.42.625,kallum_motion_pilot_GIST_update_2,2026.1.1,Win32,60.24096386,698250f02c81242e57185b4f,69b95efdef24cd8a694e89ee,69b9600d60f20d7fab57f71b,0.0972,0.0973,1,103,265,42,1,twoone,,,,,,,,,,,,,,,,,,,,,,,,,,,,,,,,,,,,,,,,,,,,,,,,,,,,,,,,,,,,,,,,,,,,,,,,,,,,,,,,,,,,,,,,,,,,,,,,,,,,,,,,,,,,,,,,,,,,,,,,,,,,,,,,,,,,,,,,,
,,698250f02c81242e57185b4f,2026-03-17_17h15.42.625,kallum_motion_pilot_GIST_update_2,2026.1.1,Win32,60.24096386,698250f02c81242e57185b4f,69b95efdef24cd8a694e89ee,69b9600d60f20d7fab57f71b,0.0974,0.0974,1,104,266,127,1,eightseven,,,,,,,,,,,,,,,,,,,,,,,,,,,,,,,,,,,,,,,,,,,,,,,,,,,,,,,,,,,,,,,,,,,,,,,,,,,,,,,,,,,,,,,,,,,,,,,,,,,,,,,,,,,,,,,,,,,,,,,,,,,,,,,,,,,,,,,,,
