startup.started,startup.stopped,Prolific ID*,date,expName,psychopyVersion,OS,frameRate,participant,study_id,session,stimpositions.started,stimpositions.stopped,hardcoded_stimulus_positions.thisRepN,hardcoded_stimulus_positions.thisTrialN,hardcoded_stimulus_positions.thisN,hardcoded_stimulus_positions.thisIndex,hardcoded_stimulus_positions.ran,StimulusPos,stimorientation.started,stimorientation.stopped,prac_stimorientation_import_loop.thisRepN,prac_stimorientation_import_loop.thisTrialN,prac_stimorientation_import_loop.thisN,prac_stimorientation_import_loop.thisIndex,prac_stimorientation_import_loop.ran,Stimorientation,welcome_instr.started,welcome_instr.stopped,key_resp.keys,key_resp.rt,key_resp.duration,response_steppedout_1.started,response_steppedout_1.stopped,key_resp_20.keys,key_resp_20.rt,key_resp_20.duration,response_steppedout_2.started,response_steppedout_2.stopped,key_resp_19.keys,key_resp_19.rt,key_resp_19.duration,stim_response_instr.started,stim_response_instr.stopped,key_resp_15.keys,key_resp_15.rt,key_resp_15.duration,direction_instr_2.started,direction_instr_2.stopped,key_resp_9.keys,key_resp_9.rt,key_resp_9.duration,instr_prac.started,instr_prac.stopped,key_resp_10.keys,key_resp_10.rt,key_resp_10.duration,Stim1_display_prac.started,Stim1_display_prac.stopped,Ecc,Circle1_ori,Circle2_ori,response_prac.started,similarity,response_time,response_prac.stopped,mouse_5.x,mouse_5.y,mouse_5.leftButton,mouse_5.midButton,mouse_5.rightButton,mouse_5.clicked_name,responseprac_feedback.started,responseprac_feedback.stopped,summary2_prac.started,summary2_prac.stopped,mouse_6.x,mouse_6.y,mouse_6.leftButton,mouse_6.midButton,mouse_6.rightButton,mouse_6.clicked_name,duringprac.thisRepN,duringprac.thisTrialN,duringprac.thisN,duringprac.thisIndex,duringprac.ran,begin.started,begin.stopped,key_resp_22.keys,key_resp_22.rt,key_resp_22.duration,Stim1_display.started,Stim1_display.stopped,circle1_ori,circle2_ori,circle1_SF,circle2_SF,response.started,response.stopped,mouse.x,mouse.y,mouse.leftButton,mouse.midButton,mouse.rightButton,mouse.clicked_name,trialnumber,double_pass.thisRepN,double_pass.thisTrialN,double_pass.thisN,double_pass.thisIndex,double_pass.ran,double_pass.order,main_trial.thisRepN,main_trial.thisTrialN,main_trial.thisN,main_trial.thisIndex,main_trial.ran,main_trial.order,Trial_Counter,Catch,Frequencies,response_2.started,response_2.stopped,mouse_2.x,mouse_2.y,mouse_2.leftButton,mouse_2.midButton,mouse_2.rightButton,mouse_2.clicked_name,special_trial.started,special_trial.stopped,catch_1.started,catch_1.stopped,mouse_3.x,mouse_3.y,mouse_3.leftButton,mouse_3.midButton,mouse_3.rightButton,catchresponse,catchnumber,response_time_catch,response_sum.started,response_sum.stopped,mouse_11.x,mouse_11.y,mouse_11.leftButton,mouse_11.midButton,mouse_11.rightButton,flip_presentation_sequence_for_double_pass.started,flip_presentation_sequence_for_double_pass.stopped,goodbye.started,goodbye.stopped,key_resp_3.keys,key_resp_3.rt,key_resp_3.duration
0.001,0.001,6982e022072cf2f69a036e17,2026-03-17_17h08.40.084,kallum_motion_pilot_GIST_update_2,2026.1.1,Win32,74.62686567,6982e022072cf2f69a036e17,69b95efdef24cd8a694e89ee,69b9601465e6f35f8f497715,,,,,,,,,,,,,,,,,,,,,,,,,,,,,,,,,,,,,,,,,,,,,,,,,,,,,,,,,,,,,,,,,,,,,,,,,,,,,,,,,,,,,,,,,,,,,,,,,,,,,,,,,,,,,,,,,,,,,,,,,,,,,,,,,,,,,,,,,,,,,,,,,
,,6982e022072cf2f69a036e17,2026-03-17_17h08.40.084,kallum_motion_pilot_GIST_update_2,2026.1.1,Win32,74.62686567,6982e022072cf2f69a036e17,69b95efdef24cd8a694e89ee,69b9601465e6f35f8f497715,0.04,0.04,0,0,0,116,1,sevenfive,,,,,,,,,,,,,,,,,,,,,,,,,,,,,,,,,,,,,,,,,,,,,,,,,,,,,,,,,,,,,,,,,,,,,,,,,,,,,,,,,,,,,,,,,,,,,,,,,,,,,,,,,,,,,,,,,,,,,,,,,,,,,,,,,,,,,,,,,
,,6982e022072cf2f69a036e17,2026-03-17_17h08.40.084,kallum_motion_pilot_GIST_update_2,2026.1.1,Win32,74.62686567,6982e022072cf2f69a036e17,69b95efdef24cd8a694e89ee,69b9601465e6f35f8f497715,0.041,0.041,0,1,1,56,1,onetwo,,,,,,,,,,,,,,,,,,,,,,,,,,,,,,,,,,,,,,,,,,,,,,,,,,,,,,,,,,,,,,,,,,,,,,,,,,,,,,,,,,,,,,,,,,,,,,,,,,,,,,,,,,,,,,,,,,,,,,,,,,,,,,,,,,,,,,,,,
,,6982e022072cf2f69a036e17,2026-03-17_17h08.40.084,kallum_motion_pilot_GIST_update_2,2026.1.1,Win32,74.62686567,6982e022072cf2f69a036e17,69b95efdef24cd8a694e89ee,69b9601465e6f35f8f497715,0.041,0.041,0,2,2,115,1,sixeight,,,,,,,,,,,,,,,,,,,,,,,,,,,,,,,,,,,,,,,,,,,,,,,,,,,,,,,,,,,,,,,,,,,,,,,,,,,,,,,,,,,,,,,,,,,,,,,,,,,,,,,,,,,,,,,,,,,,,,,,,,,,,,,,,,,,,,,,,
,,6982e022072cf2f69a036e17,2026-03-17_17h08.40.084,kallum_motion_pilot_GIST_update_2,2026.1.1,Win32,74.62686567,6982e022072cf2f69a036e17,69b95efdef24cd8a694e89ee,69b9601465e6f35f8f497715,0.042,0.042,0,3,3,161,1,fiveseven,,,,,,,,,,,,,,,,,,,,,,,,,,,,,,,,,,,,,,,,,,,,,,,,,,,,,,,,,,,,,,,,,,,,,,,,,,,,,,,,,,,,,,,,,,,,,,,,,,,,,,,,,,,,,,,,,,,,,,,,,,,,,,,,,,,,,,,,,
,,6982e022072cf2f69a036e17,2026-03-17_17h08.40.084,kallum_motion_pilot_GIST_update_2,2026.1.1,Win32,74.62686567,6982e022072cf2f69a036e17,69b95efdef24cd8a694e89ee,69b9601465e6f35f8f497715,0.042,0.042,0,4,4,46,1,fourtwo,,,,,,,,,,,,,,,,,,,,,,,,,,,,,,,,,,,,,,,,,,,,,,,,,,,,,,,,,,,,,,,,,,,,,,,,,,,,,,,,,,,,,,,,,,,,,,,,,,,,,,,,,,,,,,,,,,,,,,,,,,,,,,,,,,,,,,,,,
,,6982e022072cf2f69a036e17,2026-03-17_17h08.40.084,kallum_motion_pilot_GIST_update_2,2026.1.1,Win32,74.62686567,6982e022072cf2f69a036e17,69b95efdef24cd8a694e89ee,69b9601465e6f35f8f497715,0.042,0.042,0,5,5,75,1,twofour,,,,,,,,,,,,,,,,,,,,,,,,,,,,,,,,,,,,,,,,,,,,,,,,,,,,,,,,,,,,,,,,,,,,,,,,,,,,,,,,,,,,,,,,,,,,,,,,,,,,,,,,,,,,,,,,,,,,,,,,,,,,,,,,,,,,,,,,,
,,6982e022072cf2f69a036e17,2026-03-17_17h08.40.084,kallum_motion_pilot_GIST_update_2,2026.1.1,Win32,74.62686567,6982e022072cf2f69a036e17,69b95efdef24cd8a694e89ee,69b9601465e6f35f8f497715,0.042,0.042,0,6,6,83,1,sixeight,,,,,,,,,,,,,,,,,,,,,,,,,,,,,,,,,,,,,,,,,,,,,,,,,,,,,,,,,,,,,,,,,,,,,,,,,,,,,,,,,,,,,,,,,,,,,,,,,,,,,,,,,,,,,,,,,,,,,,,,,,,,,,,,,,,,,,,,,
,,6982e022072cf2f69a036e17,2026-03-17_17h08.40.084,kallum_motion_pilot_GIST_update_2,2026.1.1,Win32,74.62686567,6982e022072cf2f69a036e17,69b95efdef24cd8a694e89ee,69b9601465e6f35f8f497715,0.042,0.042,0,7,7,92,1,sevenfive,,,,,,,,,,,,,,,,,,,,,,,,,,,,,,,,,,,,,,,,,,,,,,,,,,,,,,,,,,,,,,,,,,,,,,,,,,,,,,,,,,,,,,,,,,,,,,,,,,,,,,,,,,,,,,,,,,,,,,,,,,,,,,,,,,,,,,,,,
,,6982e022072cf2f69a036e17,2026-03-17_17h08.40.084,kallum_motion_pilot_GIST_update_2,2026.1.1,Win32,74.62686567,6982e022072cf2f69a036e17,69b95efdef24cd8a694e89ee,69b9601465e6f35f8f497715,0.043,0.043,0,8,8,67,1,twofour,,,,,,,,,,,,,,,,,,,,,,,,,,,,,,,,,,,,,,,,,,,,,,,,,,,,,,,,,,,,,,,,,,,,,,,,,,,,,,,,,,,,,,,,,,,,,,,,,,,,,,,,,,,,,,,,,,,,,,,,,,,,,,,,,,,,,,,,,
,,6982e022072cf2f69a036e17,2026-03-17_17h08.40.084,kallum_motion_pilot_GIST_update_2,2026.1.1,Win32,74.62686567,6982e022072cf2f69a036e17,69b95efdef24cd8a694e89ee,69b9601465e6f35f8f497715,0.043,0.043,0,9,9,123,1,sixeight,,,,,,,,,,,,,,,,,,,,,,,,,,,,,,,,,,,,,,,,,,,,,,,,,,,,,,,,,,,,,,,,,,,,,,,,,,,,,,,,,,,,,,,,,,,,,,,,,,,,,,,,,,,,,,,,,,,,,,,,,,,,,,,,,,,,,,,,,
,,6982e022072cf2f69a036e17,2026-03-17_17h08.40.084,kallum_motion_pilot_GIST_update_2,2026.1.1,Win32,74.62686567,6982e022072cf2f69a036e17,69b95efdef24cd8a694e89ee,69b9601465e6f35f8f497715,0.043,0.043,0,10,10,127,1,eightseven,,,,,,,,,,,,,,,,,,,,,,,,,,,,,,,,,,,,,,,,,,,,,,,,,,,,,,,,,,,,,,,,,,,,,,,,,,,,,,,,,,,,,,,,,,,,,,,,,,,,,,,,,,,,,,,,,,,,,,,,,,,,,,,,,,,,,,,,,
,,6982e022072cf2f69a036e17,2026-03-17_17h08.40.084,kallum_motion_pilot_GIST_update_2,2026.1.1,Win32,74.62686567,6982e022072cf2f69a036e17,69b95efdef24cd8a694e89ee,69b9601465e6f35f8f497715,0.044,0.044,0,11,11,34,1,twoone,,,,,,,,,,,,,,,,,,,,,,,,,,,,,,,,,,,,,,,,,,,,,,,,,,,,,,,,,,,,,,,,,,,,,,,,,,,,,,,,,,,,,,,,,,,,,,,,,,,,,,,,,,,,,,,,,,,,,,,,,,,,,,,,,,,,,,,,,
,,6982e022072cf2f69a036e17,2026-03-17_17h08.40.084,kallum_motion_pilot_GIST_update_2,2026.1.1,Win32,74.62686567,6982e022072cf2f69a036e17,69b95efdef24cd8a694e89ee,69b9601465e6f35f8f497715,0.044,0.044,0,12,12,114,1,sixfive,,,,,,,,,,,,,,,,,,,,,,,,,,,,,,,,,,,,,,,,,,,,,,,,,,,,,,,,,,,,,,,,,,,,,,,,,,,,,,,,,,,,,,,,,,,,,,,,,,,,,,,,,,,,,,,,,,,,,,,,,,,,,,,,,,,,,,,,,
,,6982e022072cf2f69a036e17,2026-03-17_17h08.40.084,kallum_motion_pilot_GIST_update_2,2026.1.1,Win32,74.62686567,6982e022072cf2f69a036e17,69b95efdef24cd8a694e89ee,69b9601465e6f35f8f497715,0.044,0.044,0,13,13,28,1,threeone,,,,,,,,,,,,,,,,,,,,,,,,,,,,,,,,,,,,,,,,,,,,,,,,,,,,,,,,,,,,,,,,,,,,,,,,,,,,,,,,,,,,,,,,,,,,,,,,,,,,,,,,,,,,,,,,,,,,,,,,,,,,,,,,,,,,,,,,,
,,6982e022072cf2f69a036e17,2026-03-17_17h08.40.084,kallum_motion_pilot_GIST_update_2,2026.1.1,Win32,74.62686567,6982e022072cf2f69a036e17,69b95efdef24cd8a694e89ee,69b9601465e6f35f8f497715,0.044,0.044,0,14,14,113,1,fiveseven,,,,,,,,,,,,,,,,,,,,,,,,,,,,,,,,,,,,,,,,,,,,,,,,,,,,,,,,,,,,,,,,,,,,,,,,,,,,,,,,,,,,,,,,,,,,,,,,,,,,,,,,,,,,,,,,,,,,,,,,,,,,,,,,,,,,,,,,,
,,6982e022072cf2f69a036e17,2026-03-17_17h08.40.084,kallum_motion_pilot_GIST_update_2,2026.1.1,Win32,74.62686567,6982e022072cf2f69a036e17,69b95efdef24cd8a694e89ee,69b9601465e6f35f8f497715,0.044,0.044,0,15,15,120,1,fivesix,,,,,,,,,,,,,,,,,,,,,,,,,,,,,,,,,,,,,,,,,,,,,,,,,,,,,,,,,,,,,,,,,,,,,,,,,,,,,,,,,,,,,,,,,,,,,,,,,,,,,,,,,,,,,,,,,,,,,,,,,,,,,,,,,,,,,,,,,
,,6982e022072cf2f69a036e17,2026-03-17_17h08.40.084,kallum_motion_pilot_GIST_update_2,2026.1.1,Win32,74.62686567,6982e022072cf2f69a036e17,69b95efdef24cd8a694e89ee,69b9601465e6f35f8f497715,0.045,0.045,0,16,16,138,1,sixfive,,,,,,,,,,,,,,,,,,,,,,,,,,,,,,,,,,,,,,,,,,,,,,,,,,,,,,,,,,,,,,,,,,,,,,,,,,,,,,,,,,,,,,,,,,,,,,,,,,,,,,,,,,,,,,,,,,,,,,,,,,,,,,,,,,,,,,,,,
,,6982e022072cf2f69a036e17,2026-03-17_17h08.40.084,kallum_motion_pilot_GIST_update_2,2026.1.1,Win32,74.62686567,6982e022072cf2f69a036e17,69b95efdef24cd8a694e89ee,69b9601465e6f35f8f497715,0.045,0.045,0,17,17,3,1,twofour,,,,,,,,,,,,,,,,,,,,,,,,,,,,,,,,,,,,,,,,,,,,,,,,,,,,,,,,,,,,,,,,,,,,,,,,,,,,,,,,,,,,,,,,,,,,,,,,,,,,,,,,,,,,,,,,,,,,,,,,,,,,,,,,,,,,,,,,,
,,6982e022072cf2f69a036e17,2026-03-17_17h08.40.084,kallum_motion_pilot_GIST_update_2,2026.1.1,Win32,74.62686567,6982e022072cf2f69a036e17,69b95efdef24cd8a694e89ee,69b9601465e6f35f8f497715,0.045,0.045,0,18,18,32,1,onetwo,,,,,,,,,,,,,,,,,,,,,,,,,,,,,,,,,,,,,,,,,,,,,,,,,,,,,,,,,,,,,,,,,,,,,,,,,,,,,,,,,,,,,,,,,,,,,,,,,,,,,,,,,,,,,,,,,,,,,,,,,,,,,,,,,,,,,,,,,
,,6982e022072cf2f69a036e17,2026-03-17_17h08.40.084,kallum_motion_pilot_GIST_update_2,2026.1.1,Win32,74.62686567,6982e022072cf2f69a036e17,69b95efdef24cd8a694e89ee,69b9601465e6f35f8f497715,0.045,0.045,0,19,19,76,1,threeone,,,,,,,,,,,,,,,,,,,,,,,,,,,,,,,,,,,,,,,,,,,,,,,,,,,,,,,,,,,,,,,,,,,,,,,,,,,,,,,,,,,,,,,,,,,,,,,,,,,,,,,,,,,,,,,,,,,,,,,,,,,,,,,,,,,,,,,,,
,,6982e022072cf2f69a036e17,2026-03-17_17h08.40.084,kallum_motion_pilot_GIST_update_2,2026.1.1,Win32,74.62686567,6982e022072cf2f69a036e17,69b95efdef24cd8a694e89ee,69b9601465e6f35f8f497715,0.045,0.046,0,20,20,94,1,eightsix,,,,,,,,,,,,,,,,,,,,,,,,,,,,,,,,,,,,,,,,,,,,,,,,,,,,,,,,,,,,,,,,,,,,,,,,,,,,,,,,,,,,,,,,,,,,,,,,,,,,,,,,,,,,,,,,,,,,,,,,,,,,,,,,,,,,,,,,,
,,6982e022072cf2f69a036e17,2026-03-17_17h08.40.084,kallum_motion_pilot_GIST_update_2,2026.1.1,Win32,74.62686567,6982e022072cf2f69a036e17,69b95efdef24cd8a694e89ee,69b9601465e6f35f8f497715,0.046,0.046,0,21,21,15,1,fourthree,,,,,,,,,,,,,,,,,,,,,,,,,,,,,,,,,,,,,,,,,,,,,,,,,,,,,,,,,,,,,,,,,,,,,,,,,,,,,,,,,,,,,,,,,,,,,,,,,,,,,,,,,,,,,,,,,,,,,,,,,,,,,,,,,,,,,,,,,
,,6982e022072cf2f69a036e17,2026-03-17_17h08.40.084,kallum_motion_pilot_GIST_update_2,2026.1.1,Win32,74.62686567,6982e022072cf2f69a036e17,69b95efdef24cd8a694e89ee,69b9601465e6f35f8f497715,0.046,0.046,0,22,22,64,1,onetwo,,,,,,,,,,,,,,,,,,,,,,,,,,,,,,,,,,,,,,,,,,,,,,,,,,,,,,,,,,,,,,,,,,,,,,,,,,,,,,,,,,,,,,,,,,,,,,,,,,,,,,,,,,,,,,,,,,,,,,,,,,,,,,,,,,,,,,,,,
,,6982e022072cf2f69a036e17,2026-03-17_17h08.40.084,kallum_motion_pilot_GIST_update_2,2026.1.1,Win32,74.62686567,6982e022072cf2f69a036e17,69b95efdef24cd8a694e89ee,69b9601465e6f35f8f497715,0.046,0.046,0,23,23,126,1,eightsix,,,,,,,,,,,,,,,,,,,,,,,,,,,,,,,,,,,,,,,,,,,,,,,,,,,,,,,,,,,,,,,,,,,,,,,,,,,,,,,,,,,,,,,,,,,,,,,,,,,,,,,,,,,,,,,,,,,,,,,,,,,,,,,,,,,,,,,,,
,,6982e022072cf2f69a036e17,2026-03-17_17h08.40.084,kallum_motion_pilot_GIST_update_2,2026.1.1,Win32,74.62686567,6982e022072cf2f69a036e17,69b95efdef24cd8a694e89ee,69b9601465e6f35f8f497715,0.046,0.046,0,24,24,24,1,onetwo,,,,,,,,,,,,,,,,,,,,,,,,,,,,,,,,,,,,,,,,,,,,,,,,,,,,,,,,,,,,,,,,,,,,,,,,,,,,,,,,,,,,,,,,,,,,,,,,,,,,,,,,,,,,,,,,,,,,,,,,,,,,,,,,,,,,,,,,,
,,6982e022072cf2f69a036e17,2026-03-17_17h08.40.084,kallum_motion_pilot_GIST_update_2,2026.1.1,Win32,74.62686567,6982e022072cf2f69a036e17,69b95efdef24cd8a694e89ee,69b9601465e6f35f8f497715,0.047,0.047,0,25,25,2,1,twoone,,,,,,,,,,,,,,,,,,,,,,,,,,,,,,,,,,,,,,,,,,,,,,,,,,,,,,,,,,,,,,,,,,,,,,,,,,,,,,,,,,,,,,,,,,,,,,,,,,,,,,,,,,,,,,,,,,,,,,,,,,,,,,,,,,,,,,,,,
,,6982e022072cf2f69a036e17,2026-03-17_17h08.40.084,kallum_motion_pilot_GIST_update_2,2026.1.1,Win32,74.62686567,6982e022072cf2f69a036e17,69b95efdef24cd8a694e89ee,69b9601465e6f35f8f497715,0.047,0.047,0,26,26,4,1,threeone,,,,,,,,,,,,,,,,,,,,,,,,,,,,,,,,,,,,,,,,,,,,,,,,,,,,,,,,,,,,,,,,,,,,,,,,,,,,,,,,,,,,,,,,,,,,,,,,,,,,,,,,,,,,,,,,,,,,,,,,,,,,,,,,,,,,,,,,,
,,6982e022072cf2f69a036e17,2026-03-17_17h08.40.084,kallum_motion_pilot_GIST_update_2,2026.1.1,Win32,74.62686567,6982e022072cf2f69a036e17,69b95efdef24cd8a694e89ee,69b9601465e6f35f8f497715,0.047,0.047,0,27,27,143,1,eightseven,,,,,,,,,,,,,,,,,,,,,,,,,,,,,,,,,,,,,,,,,,,,,,,,,,,,,,,,,,,,,,,,,,,,,,,,,,,,,,,,,,,,,,,,,,,,,,,,,,,,,,,,,,,,,,,,,,,,,,,,,,,,,,,,,,,,,,,,,
,,6982e022072cf2f69a036e17,2026-03-17_17h08.40.084,kallum_motion_pilot_GIST_update_2,2026.1.1,Win32,74.62686567,6982e022072cf2f69a036e17,69b95efdef24cd8a694e89ee,69b9601465e6f35f8f497715,0.047,0.047,0,28,28,7,1,fourthree,,,,,,,,,,,,,,,,,,,,,,,,,,,,,,,,,,,,,,,,,,,,,,,,,,,,,,,,,,,,,,,,,,,,,,,,,,,,,,,,,,,,,,,,,,,,,,,,,,,,,,,,,,,,,,,,,,,,,,,,,,,,,,,,,,,,,,,,,
,,6982e022072cf2f69a036e17,2026-03-17_17h08.40.084,kallum_motion_pilot_GIST_update_2,2026.1.1,Win32,74.62686567,6982e022072cf2f69a036e17,69b95efdef24cd8a694e89ee,69b9601465e6f35f8f497715,0.048,0.048,0,29,29,70,1,fourtwo,,,,,,,,,,,,,,,,,,,,,,,,,,,,,,,,,,,,,,,,,,,,,,,,,,,,,,,,,,,,,,,,,,,,,,,,,,,,,,,,,,,,,,,,,,,,,,,,,,,,,,,,,,,,,,,,,,,,,,,,,,,,,,,,,,,,,,,,,
,,6982e022072cf2f69a036e17,2026-03-17_17h08.40.084,kallum_motion_pilot_GIST_update_2,2026.1.1,Win32,74.62686567,6982e022072cf2f69a036e17,69b95efdef24cd8a694e89ee,69b9601465e6f35f8f497715,0.048,0.048,0,30,30,108,1,sevenfive,,,,,,,,,,,,,,,,,,,,,,,,,,,,,,,,,,,,,,,,,,,,,,,,,,,,,,,,,,,,,,,,,,,,,,,,,,,,,,,,,,,,,,,,,,,,,,,,,,,,,,,,,,,,,,,,,,,,,,,,,,,,,,,,,,,,,,,,,
,,6982e022072cf2f69a036e17,2026-03-17_17h08.40.084,kallum_motion_pilot_GIST_update_2,2026.1.1,Win32,74.62686567,6982e022072cf2f69a036e17,69b95efdef24cd8a694e89ee,69b9601465e6f35f8f497715,0.05,0.05,0,31,31,125,1,seveneight,,,,,,,,,,,,,,,,,,,,,,,,,,,,,,,,,,,,,,,,,,,,,,,,,,,,,,,,,,,,,,,,,,,,,,,,,,,,,,,,,,,,,,,,,,,,,,,,,,,,,,,,,,,,,,,,,,,,,,,,,,,,,,,,,,,,,,,,,
,,6982e022072cf2f69a036e17,2026-03-17_17h08.40.084,kallum_motion_pilot_GIST_update_2,2026.1.1,Win32,74.62686567,6982e022072cf2f69a036e17,69b95efdef24cd8a694e89ee,69b9601465e6f35f8f497715,0.05,0.05,0,32,32,87,1,eightseven,,,,,,,,,,,,,,,,,,,,,,,,,,,,,,,,,,,,,,,,,,,,,,,,,,,,,,,,,,,,,,,,,,,,,,,,,,,,,,,,,,,,,,,,,,,,,,,,,,,,,,,,,,,,,,,,,,,,,,,,,,,,,,,,,,,,,,,,,
,,6982e022072cf2f69a036e17,2026-03-17_17h08.40.084,kallum_motion_pilot_GIST_update_2,2026.1.1,Win32,74.62686567,6982e022072cf2f69a036e17,69b95efdef24cd8a694e89ee,69b9601465e6f35f8f497715,0.05,0.05,0,33,33,26,1,twoone,,,,,,,,,,,,,,,,,,,,,,,,,,,,,,,,,,,,,,,,,,,,,,,,,,,,,,,,,,,,,,,,,,,,,,,,,,,,,,,,,,,,,,,,,,,,,,,,,,,,,,,,,,,,,,,,,,,,,,,,,,,,,,,,,,,,,,,,,
,,6982e022072cf2f69a036e17,2026-03-17_17h08.40.084,kallum_motion_pilot_GIST_update_2,2026.1.1,Win32,74.62686567,6982e022072cf2f69a036e17,69b95efdef24cd8a694e89ee,69b9601465e6f35f8f497715,0.05,0.05,0,34,34,89,1,fiveseven,,,,,,,,,,,,,,,,,,,,,,,,,,,,,,,,,,,,,,,,,,,,,,,,,,,,,,,,,,,,,,,,,,,,,,,,,,,,,,,,,,,,,,,,,,,,,,,,,,,,,,,,,,,,,,,,,,,,,,,,,,,,,,,,,,,,,,,,,
,,6982e022072cf2f69a036e17,2026-03-17_17h08.40.084,kallum_motion_pilot_GIST_update_2,2026.1.1,Win32,74.62686567,6982e022072cf2f69a036e17,69b95efdef24cd8a694e89ee,69b9601465e6f35f8f497715,0.051,0.051,0,35,35,42,1,twoone,,,,,,,,,,,,,,,,,,,,,,,,,,,,,,,,,,,,,,,,,,,,,,,,,,,,,,,,,,,,,,,,,,,,,,,,,,,,,,,,,,,,,,,,,,,,,,,,,,,,,,,,,,,,,,,,,,,,,,,,,,,,,,,,,,,,,,,,,
,,6982e022072cf2f69a036e17,2026-03-17_17h08.40.084,kallum_motion_pilot_GIST_update_2,2026.1.1,Win32,74.62686567,6982e022072cf2f69a036e17,69b95efdef24cd8a694e89ee,69b9601465e6f35f8f497715,0.051,0.051,0,36,36,97,1,fiveseven,,,,,,,,,,,,,,,,,,,,,,,,,,,,,,,,,,,,,,,,,,,,,,,,,,,,,,,,,,,,,,,,,,,,,,,,,,,,,,,,,,,,,,,,,,,,,,,,,,,,,,,,,,,,,,,,,,,,,,,,,,,,,,,,,,,,,,,,,
,,6982e022072cf2f69a036e17,2026-03-17_17h08.40.084,kallum_motion_pilot_GIST_update_2,2026.1.1,Win32,74.62686567,6982e022072cf2f69a036e17,69b95efdef24cd8a694e89ee,69b9601465e6f35f8f497715,0.051,0.051,0,37,37,1,1,onethree,,,,,,,,,,,,,,,,,,,,,,,,,,,,,,,,,,,,,,,,,,,,,,,,,,,,,,,,,,,,,,,,,,,,,,,,,,,,,,,,,,,,,,,,,,,,,,,,,,,,,,,,,,,,,,,,,,,,,,,,,,,,,,,,,,,,,,,,,
,,6982e022072cf2f69a036e17,2026-03-17_17h08.40.084,kallum_motion_pilot_GIST_update_2,2026.1.1,Win32,74.62686567,6982e022072cf2f69a036e17,69b95efdef24cd8a694e89ee,69b9601465e6f35f8f497715,0.052,0.052,0,38,38,77,1,threefour,,,,,,,,,,,,,,,,,,,,,,,,,,,,,,,,,,,,,,,,,,,,,,,,,,,,,,,,,,,,,,,,,,,,,,,,,,,,,,,,,,,,,,,,,,,,,,,,,,,,,,,,,,,,,,,,,,,,,,,,,,,,,,,,,,,,,,,,,
,,6982e022072cf2f69a036e17,2026-03-17_17h08.40.084,kallum_motion_pilot_GIST_update_2,2026.1.1,Win32,74.62686567,6982e022072cf2f69a036e17,69b95efdef24cd8a694e89ee,69b9601465e6f35f8f497715,0.052,0.052,0,39,39,140,1,sevenfive,,,,,,,,,,,,,,,,,,,,,,,,,,,,,,,,,,,,,,,,,,,,,,,,,,,,,,,,,,,,,,,,,,,,,,,,,,,,,,,,,,,,,,,,,,,,,,,,,,,,,,,,,,,,,,,,,,,,,,,,,,,,,,,,,,,,,,,,,
,,6982e022072cf2f69a036e17,2026-03-17_17h08.40.084,kallum_motion_pilot_GIST_update_2,2026.1.1,Win32,74.62686567,6982e022072cf2f69a036e17,69b95efdef24cd8a694e89ee,69b9601465e6f35f8f497715,0.052,0.052,0,40,40,130,1,sixfive,,,,,,,,,,,,,,,,,,,,,,,,,,,,,,,,,,,,,,,,,,,,,,,,,,,,,,,,,,,,,,,,,,,,,,,,,,,,,,,,,,,,,,,,,,,,,,,,,,,,,,,,,,,,,,,,,,,,,,,,,,,,,,,,,,,,,,,,,
,,6982e022072cf2f69a036e17,2026-03-17_17h08.40.084,kallum_motion_pilot_GIST_update_2,2026.1.1,Win32,74.62686567,6982e022072cf2f69a036e17,69b95efdef24cd8a694e89ee,69b9601465e6f35f8f497715,0.052,0.052,0,41,41,19,1,twofour,,,,,,,,,,,,,,,,,,,,,,,,,,,,,,,,,,,,,,,,,,,,,,,,,,,,,,,,,,,,,,,,,,,,,,,,,,,,,,,,,,,,,,,,,,,,,,,,,,,,,,,,,,,,,,,,,,,,,,,,,,,,,,,,,,,,,,,,,
,,6982e022072cf2f69a036e17,2026-03-17_17h08.40.084,kallum_motion_pilot_GIST_update_2,2026.1.1,Win32,74.62686567,6982e022072cf2f69a036e17,69b95efdef24cd8a694e89ee,69b9601465e6f35f8f497715,0.052,0.052,0,42,42,149,1,seveneight,,,,,,,,,,,,,,,,,,,,,,,,,,,,,,,,,,,,,,,,,,,,,,,,,,,,,,,,,,,,,,,,,,,,,,,,,,,,,,,,,,,,,,,,,,,,,,,,,,,,,,,,,,,,,,,,,,,,,,,,,,,,,,,,,,,,,,,,,
,,6982e022072cf2f69a036e17,2026-03-17_17h08.40.084,kallum_motion_pilot_GIST_update_2,2026.1.1,Win32,74.62686567,6982e022072cf2f69a036e17,69b95efdef24cd8a694e89ee,69b9601465e6f35f8f497715,0.053,0.053,0,43,43,136,1,fivesix,,,,,,,,,,,,,,,,,,,,,,,,,,,,,,,,,,,,,,,,,,,,,,,,,,,,,,,,,,,,,,,,,,,,,,,,,,,,,,,,,,,,,,,,,,,,,,,,,,,,,,,,,,,,,,,,,,,,,,,,,,,,,,,,,,,,,,,,,
,,6982e022072cf2f69a036e17,2026-03-17_17h08.40.084,kallum_motion_pilot_GIST_update_2,2026.1.1,Win32,74.62686567,6982e022072cf2f69a036e17,69b95efdef24cd8a694e89ee,69b9601465e6f35f8f497715,0.053,0.053,0,44,44,91,1,sixeight,,,,,,,,,,,,,,,,,,,,,,,,,,,,,,,,,,,,,,,,,,,,,,,,,,,,,,,,,,,,,,,,,,,,,,,,,,,,,,,,,,,,,,,,,,,,,,,,,,,,,,,,,,,,,,,,,,,,,,,,,,,,,,,,,,,,,,,,,
,,6982e022072cf2f69a036e17,2026-03-17_17h08.40.084,kallum_motion_pilot_GIST_update_2,2026.1.1,Win32,74.62686567,6982e022072cf2f69a036e17,69b95efdef24cd8a694e89ee,69b9601465e6f35f8f497715,0.053,0.053,0,45,45,118,1,eightsix,,,,,,,,,,,,,,,,,,,,,,,,,,,,,,,,,,,,,,,,,,,,,,,,,,,,,,,,,,,,,,,,,,,,,,,,,,,,,,,,,,,,,,,,,,,,,,,,,,,,,,,,,,,,,,,,,,,,,,,,,,,,,,,,,,,,,,,,,
,,6982e022072cf2f69a036e17,2026-03-17_17h08.40.084,kallum_motion_pilot_GIST_update_2,2026.1.1,Win32,74.62686567,6982e022072cf2f69a036e17,69b95efdef24cd8a694e89ee,69b9601465e6f35f8f497715,0.053,0.053,0,46,46,82,1,sixfive,,,,,,,,,,,,,,,,,,,,,,,,,,,,,,,,,,,,,,,,,,,,,,,,,,,,,,,,,,,,,,,,,,,,,,,,,,,,,,,,,,,,,,,,,,,,,,,,,,,,,,,,,,,,,,,,,,,,,,,,,,,,,,,,,,,,,,,,,
,,6982e022072cf2f69a036e17,2026-03-17_17h08.40.084,kallum_motion_pilot_GIST_update_2,2026.1.1,Win32,74.62686567,6982e022072cf2f69a036e17,69b95efdef24cd8a694e89ee,69b9601465e6f35f8f497715,0.054,0.054,0,47,47,48,1,onetwo,,,,,,,,,,,,,,,,,,,,,,,,,,,,,,,,,,,,,,,,,,,,,,,,,,,,,,,,,,,,,,,,,,,,,,,,,,,,,,,,,,,,,,,,,,,,,,,,,,,,,,,,,,,,,,,,,,,,,,,,,,,,,,,,,,,,,,,,,
,,6982e022072cf2f69a036e17,2026-03-17_17h08.40.084,kallum_motion_pilot_GIST_update_2,2026.1.1,Win32,74.62686567,6982e022072cf2f69a036e17,69b95efdef24cd8a694e89ee,69b9601465e6f35f8f497715,0.054,0.054,0,48,48,60,1,threeone,,,,,,,,,,,,,,,,,,,,,,,,,,,,,,,,,,,,,,,,,,,,,,,,,,,,,,,,,,,,,,,,,,,,,,,,,,,,,,,,,,,,,,,,,,,,,,,,,,,,,,,,,,,,,,,,,,,,,,,,,,,,,,,,,,,,,,,,,
,,6982e022072cf2f69a036e17,2026-03-17_17h08.40.084,kallum_motion_pilot_GIST_update_2,2026.1.1,Win32,74.62686567,6982e022072cf2f69a036e17,69b95efdef24cd8a694e89ee,69b9601465e6f35f8f497715,0.054,0.054,0,49,49,21,1,threefour,,,,,,,,,,,,,,,,,,,,,,,,,,,,,,,,,,,,,,,,,,,,,,,,,,,,,,,,,,,,,,,,,,,,,,,,,,,,,,,,,,,,,,,,,,,,,,,,,,,,,,,,,,,,,,,,,,,,,,,,,,,,,,,,,,,,,,,,,
,,6982e022072cf2f69a036e17,2026-03-17_17h08.40.084,kallum_motion_pilot_GIST_update_2,2026.1.1,Win32,74.62686567,6982e022072cf2f69a036e17,69b95efdef24cd8a694e89ee,69b9601465e6f35f8f497715,0.054,0.054,0,50,50,65,1,onethree,,,,,,,,,,,,,,,,,,,,,,,,,,,,,,,,,,,,,,,,,,,,,,,,,,,,,,,,,,,,,,,,,,,,,,,,,,,,,,,,,,,,,,,,,,,,,,,,,,,,,,,,,,,,,,,,,,,,,,,,,,,,,,,,,,,,,,,,,
,,6982e022072cf2f69a036e17,2026-03-17_17h08.40.084,kallum_motion_pilot_GIST_update_2,2026.1.1,Win32,74.62686567,6982e022072cf2f69a036e17,69b95efdef24cd8a694e89ee,69b9601465e6f35f8f497715,0.055,0.055,0,51,51,86,1,eightsix,,,,,,,,,,,,,,,,,,,,,,,,,,,,,,,,,,,,,,,,,,,,,,,,,,,,,,,,,,,,,,,,,,,,,,,,,,,,,,,,,,,,,,,,,,,,,,,,,,,,,,,,,,,,,,,,,,,,,,,,,,,,,,,,,,,,,,,,,
,,6982e022072cf2f69a036e17,2026-03-17_17h08.40.084,kallum_motion_pilot_GIST_update_2,2026.1.1,Win32,74.62686567,6982e022072cf2f69a036e17,69b95efdef24cd8a694e89ee,69b9601465e6f35f8f497715,0.055,0.055,0,52,52,159,1,eightseven,,,,,,,,,,,,,,,,,,,,,,,,,,,,,,,,,,,,,,,,,,,,,,,,,,,,,,,,,,,,,,,,,,,,,,,,,,,,,,,,,,,,,,,,,,,,,,,,,,,,,,,,,,,,,,,,,,,,,,,,,,,,,,,,,,,,,,,,,
,,6982e022072cf2f69a036e17,2026-03-17_17h08.40.084,kallum_motion_pilot_GIST_update_2,2026.1.1,Win32,74.62686567,6982e022072cf2f69a036e17,69b95efdef24cd8a694e89ee,69b9601465e6f35f8f497715,0.055,0.055,0,53,53,85,1,seveneight,,,,,,,,,,,,,,,,,,,,,,,,,,,,,,,,,,,,,,,,,,,,,,,,,,,,,,,,,,,,,,,,,,,,,,,,,,,,,,,,,,,,,,,,,,,,,,,,,,,,,,,,,,,,,,,,,,,,,,,,,,,,,,,,,,,,,,,,,
,,6982e022072cf2f69a036e17,2026-03-17_17h08.40.084,kallum_motion_pilot_GIST_update_2,2026.1.1,Win32,74.62686567,6982e022072cf2f69a036e17,69b95efdef24cd8a694e89ee,69b9601465e6f35f8f497715,0.055,0.055,0,54,54,41,1,onethree,,,,,,,,,,,,,,,,,,,,,,,,,,,,,,,,,,,,,,,,,,,,,,,,,,,,,,,,,,,,,,,,,,,,,,,,,,,,,,,,,,,,,,,,,,,,,,,,,,,,,,,,,,,,,,,,,,,,,,,,,,,,,,,,,,,,,,,,,
,,6982e022072cf2f69a036e17,2026-03-17_17h08.40.084,kallum_motion_pilot_GIST_update_2,2026.1.1,Win32,74.62686567,6982e022072cf2f69a036e17,69b95efdef24cd8a694e89ee,69b9601465e6f35f8f497715,0.055,0.055,0,55,55,119,1,eightseven,,,,,,,,,,,,,,,,,,,,,,,,,,,,,,,,,,,,,,,,,,,,,,,,,,,,,,,,,,,,,,,,,,,,,,,,,,,,,,,,,,,,,,,,,,,,,,,,,,,,,,,,,,,,,,,,,,,,,,,,,,,,,,,,,,,,,,,,,
,,6982e022072cf2f69a036e17,2026-03-17_17h08.40.084,kallum_motion_pilot_GIST_update_2,2026.1.1,Win32,74.62686567,6982e022072cf2f69a036e17,69b95efdef24cd8a694e89ee,69b9601465e6f35f8f497715,0.056,0.056,0,56,56,71,1,fourthree,,,,,,,,,,,,,,,,,,,,,,,,,,,,,,,,,,,,,,,,,,,,,,,,,,,,,,,,,,,,,,,,,,,,,,,,,,,,,,,,,,,,,,,,,,,,,,,,,,,,,,,,,,,,,,,,,,,,,,,,,,,,,,,,,,,,,,,,,
,,6982e022072cf2f69a036e17,2026-03-17_17h08.40.084,kallum_motion_pilot_GIST_update_2,2026.1.1,Win32,74.62686567,6982e022072cf2f69a036e17,69b95efdef24cd8a694e89ee,69b9601465e6f35f8f497715,0.056,0.056,0,57,57,105,1,fiveseven,,,,,,,,,,,,,,,,,,,,,,,,,,,,,,,,,,,,,,,,,,,,,,,,,,,,,,,,,,,,,,,,,,,,,,,,,,,,,,,,,,,,,,,,,,,,,,,,,,,,,,,,,,,,,,,,,,,,,,,,,,,,,,,,,,,,,,,,,
,,6982e022072cf2f69a036e17,2026-03-17_17h08.40.084,kallum_motion_pilot_GIST_update_2,2026.1.1,Win32,74.62686567,6982e022072cf2f69a036e17,69b95efdef24cd8a694e89ee,69b9601465e6f35f8f497715,0.056,0.056,0,58,58,18,1,twoone,,,,,,,,,,,,,,,,,,,,,,,,,,,,,,,,,,,,,,,,,,,,,,,,,,,,,,,,,,,,,,,,,,,,,,,,,,,,,,,,,,,,,,,,,,,,,,,,,,,,,,,,,,,,,,,,,,,,,,,,,,,,,,,,,,,,,,,,,
,,6982e022072cf2f69a036e17,2026-03-17_17h08.40.084,kallum_motion_pilot_GIST_update_2,2026.1.1,Win32,74.62686567,6982e022072cf2f69a036e17,69b95efdef24cd8a694e89ee,69b9601465e6f35f8f497715,0.056,0.056,0,59,59,69,1,threefour,,,,,,,,,,,,,,,,,,,,,,,,,,,,,,,,,,,,,,,,,,,,,,,,,,,,,,,,,,,,,,,,,,,,,,,,,,,,,,,,,,,,,,,,,,,,,,,,,,,,,,,,,,,,,,,,,,,,,,,,,,,,,,,,,,,,,,,,,
,,6982e022072cf2f69a036e17,2026-03-17_17h08.40.084,kallum_motion_pilot_GIST_update_2,2026.1.1,Win32,74.62686567,6982e022072cf2f69a036e17,69b95efdef24cd8a694e89ee,69b9601465e6f35f8f497715,0.057,0.057,0,60,60,147,1,sixeight,,,,,,,,,,,,,,,,,,,,,,,,,,,,,,,,,,,,,,,,,,,,,,,,,,,,,,,,,,,,,,,,,,,,,,,,,,,,,,,,,,,,,,,,,,,,,,,,,,,,,,,,,,,,,,,,,,,,,,,,,,,,,,,,,,,,,,,,,
,,6982e022072cf2f69a036e17,2026-03-17_17h08.40.084,kallum_motion_pilot_GIST_update_2,2026.1.1,Win32,74.62686567,6982e022072cf2f69a036e17,69b95efdef24cd8a694e89ee,69b9601465e6f35f8f497715,0.057,0.057,0,61,61,23,1,fourthree,,,,,,,,,,,,,,,,,,,,,,,,,,,,,,,,,,,,,,,,,,,,,,,,,,,,,,,,,,,,,,,,,,,,,,,,,,,,,,,,,,,,,,,,,,,,,,,,,,,,,,,,,,,,,,,,,,,,,,,,,,,,,,,,,,,,,,,,,
,,6982e022072cf2f69a036e17,2026-03-17_17h08.40.084,kallum_motion_pilot_GIST_update_2,2026.1.1,Win32,74.62686567,6982e022072cf2f69a036e17,69b95efdef24cd8a694e89ee,69b9601465e6f35f8f497715,0.057,0.057,0,62,62,84,1,sevenfive,,,,,,,,,,,,,,,,,,,,,,,,,,,,,,,,,,,,,,,,,,,,,,,,,,,,,,,,,,,,,,,,,,,,,,,,,,,,,,,,,,,,,,,,,,,,,,,,,,,,,,,,,,,,,,,,,,,,,,,,,,,,,,,,,,,,,,,,,
,,6982e022072cf2f69a036e17,2026-03-17_17h08.40.084,kallum_motion_pilot_GIST_update_2,2026.1.1,Win32,74.62686567,6982e022072cf2f69a036e17,69b95efdef24cd8a694e89ee,69b9601465e6f35f8f497715,0.058,0.058,0,63,63,109,1,seveneight,,,,,,,,,,,,,,,,,,,,,,,,,,,,,,,,,,,,,,,,,,,,,,,,,,,,,,,,,,,,,,,,,,,,,,,,,,,,,,,,,,,,,,,,,,,,,,,,,,,,,,,,,,,,,,,,,,,,,,,,,,,,,,,,,,,,,,,,,
,,6982e022072cf2f69a036e17,2026-03-17_17h08.40.084,kallum_motion_pilot_GIST_update_2,2026.1.1,Win32,74.62686567,6982e022072cf2f69a036e17,69b95efdef24cd8a694e89ee,69b9601465e6f35f8f497715,0.058,0.058,0,64,64,90,1,sixfive,,,,,,,,,,,,,,,,,,,,,,,,,,,,,,,,,,,,,,,,,,,,,,,,,,,,,,,,,,,,,,,,,,,,,,,,,,,,,,,,,,,,,,,,,,,,,,,,,,,,,,,,,,,,,,,,,,,,,,,,,,,,,,,,,,,,,,,,,
,,6982e022072cf2f69a036e17,2026-03-17_17h08.40.084,kallum_motion_pilot_GIST_update_2,2026.1.1,Win32,74.62686567,6982e022072cf2f69a036e17,69b95efdef24cd8a694e89ee,69b9601465e6f35f8f497715,0.058,0.058,0,65,65,13,1,threefour,,,,,,,,,,,,,,,,,,,,,,,,,,,,,,,,,,,,,,,,,,,,,,,,,,,,,,,,,,,,,,,,,,,,,,,,,,,,,,,,,,,,,,,,,,,,,,,,,,,,,,,,,,,,,,,,,,,,,,,,,,,,,,,,,,,,,,,,,
,,6982e022072cf2f69a036e17,2026-03-17_17h08.40.084,kallum_motion_pilot_GIST_update_2,2026.1.1,Win32,74.62686567,6982e022072cf2f69a036e17,69b95efdef24cd8a694e89ee,69b9601465e6f35f8f497715,0.059,0.059,0,66,66,93,1,seveneight,,,,,,,,,,,,,,,,,,,,,,,,,,,,,,,,,,,,,,,,,,,,,,,,,,,,,,,,,,,,,,,,,,,,,,,,,,,,,,,,,,,,,,,,,,,,,,,,,,,,,,,,,,,,,,,,,,,,,,,,,,,,,,,,,,,,,,,,,
,,6982e022072cf2f69a036e17,2026-03-17_17h08.40.084,kallum_motion_pilot_GIST_update_2,2026.1.1,Win32,74.62686567,6982e022072cf2f69a036e17,69b95efdef24cd8a694e89ee,69b9601465e6f35f8f497715,0.059,0.059,0,67,67,150,1,eightsix,,,,,,,,,,,,,,,,,,,,,,,,,,,,,,,,,,,,,,,,,,,,,,,,,,,,,,,,,,,,,,,,,,,,,,,,,,,,,,,,,,,,,,,,,,,,,,,,,,,,,,,,,,,,,,,,,,,,,,,,,,,,,,,,,,,,,,,,,
,,6982e022072cf2f69a036e17,2026-03-17_17h08.40.084,kallum_motion_pilot_GIST_update_2,2026.1.1,Win32,74.62686567,6982e022072cf2f69a036e17,69b95efdef24cd8a694e89ee,69b9601465e6f35f8f497715,0.059,0.059,0,68,68,10,1,twoone,,,,,,,,,,,,,,,,,,,,,,,,,,,,,,,,,,,,,,,,,,,,,,,,,,,,,,,,,,,,,,,,,,,,,,,,,,,,,,,,,,,,,,,,,,,,,,,,,,,,,,,,,,,,,,,,,,,,,,,,,,,,,,,,,,,,,,,,,
,,6982e022072cf2f69a036e17,2026-03-17_17h08.40.084,kallum_motion_pilot_GIST_update_2,2026.1.1,Win32,74.62686567,6982e022072cf2f69a036e17,69b95efdef24cd8a694e89ee,69b9601465e6f35f8f497715,0.06,0.06,0,69,69,100,1,sevenfive,,,,,,,,,,,,,,,,,,,,,,,,,,,,,,,,,,,,,,,,,,,,,,,,,,,,,,,,,,,,,,,,,,,,,,,,,,,,,,,,,,,,,,,,,,,,,,,,,,,,,,,,,,,,,,,,,,,,,,,,,,,,,,,,,,,,,,,,,
,,6982e022072cf2f69a036e17,2026-03-17_17h08.40.084,kallum_motion_pilot_GIST_update_2,2026.1.1,Win32,74.62686567,6982e022072cf2f69a036e17,69b95efdef24cd8a694e89ee,69b9601465e6f35f8f497715,0.06,0.06,0,70,70,112,1,fivesix,,,,,,,,,,,,,,,,,,,,,,,,,,,,,,,,,,,,,,,,,,,,,,,,,,,,,,,,,,,,,,,,,,,,,,,,,,,,,,,,,,,,,,,,,,,,,,,,,,,,,,,,,,,,,,,,,,,,,,,,,,,,,,,,,,,,,,,,,
,,6982e022072cf2f69a036e17,2026-03-17_17h08.40.084,kallum_motion_pilot_GIST_update_2,2026.1.1,Win32,74.62686567,6982e022072cf2f69a036e17,69b95efdef24cd8a694e89ee,69b9601465e6f35f8f497715,0.06,0.06,0,71,71,59,1,twofour,,,,,,,,,,,,,,,,,,,,,,,,,,,,,,,,,,,,,,,,,,,,,,,,,,,,,,,,,,,,,,,,,,,,,,,,,,,,,,,,,,,,,,,,,,,,,,,,,,,,,,,,,,,,,,,,,,,,,,,,,,,,,,,,,,,,,,,,,
,,6982e022072cf2f69a036e17,2026-03-17_17h08.40.084,kallum_motion_pilot_GIST_update_2,2026.1.1,Win32,74.62686567,6982e022072cf2f69a036e17,69b95efdef24cd8a694e89ee,69b9601465e6f35f8f497715,0.061,0.061,0,72,72,96,1,fivesix,,,,,,,,,,,,,,,,,,,,,,,,,,,,,,,,,,,,,,,,,,,,,,,,,,,,,,,,,,,,,,,,,,,,,,,,,,,,,,,,,,,,,,,,,,,,,,,,,,,,,,,,,,,,,,,,,,,,,,,,,,,,,,,,,,,,,,,,,
,,6982e022072cf2f69a036e17,2026-03-17_17h08.40.084,kallum_motion_pilot_GIST_update_2,2026.1.1,Win32,74.62686567,6982e022072cf2f69a036e17,69b95efdef24cd8a694e89ee,69b9601465e6f35f8f497715,0.061,0.061,0,73,73,62,1,fourtwo,,,,,,,,,,,,,,,,,,,,,,,,,,,,,,,,,,,,,,,,,,,,,,,,,,,,,,,,,,,,,,,,,,,,,,,,,,,,,,,,,,,,,,,,,,,,,,,,,,,,,,,,,,,,,,,,,,,,,,,,,,,,,,,,,,,,,,,,,
,,6982e022072cf2f69a036e17,2026-03-17_17h08.40.084,kallum_motion_pilot_GIST_update_2,2026.1.1,Win32,74.62686567,6982e022072cf2f69a036e17,69b95efdef24cd8a694e89ee,69b9601465e6f35f8f497715,0.061,0.061,0,74,74,36,1,threeone,,,,,,,,,,,,,,,,,,,,,,,,,,,,,,,,,,,,,,,,,,,,,,,,,,,,,,,,,,,,,,,,,,,,,,,,,,,,,,,,,,,,,,,,,,,,,,,,,,,,,,,,,,,,,,,,,,,,,,,,,,,,,,,,,,,,,,,,,
,,6982e022072cf2f69a036e17,2026-03-17_17h08.40.084,kallum_motion_pilot_GIST_update_2,2026.1.1,Win32,74.62686567,6982e022072cf2f69a036e17,69b95efdef24cd8a694e89ee,69b9601465e6f35f8f497715,0.061,0.061,0,75,75,30,1,fourtwo,,,,,,,,,,,,,,,,,,,,,,,,,,,,,,,,,,,,,,,,,,,,,,,,,,,,,,,,,,,,,,,,,,,,,,,,,,,,,,,,,,,,,,,,,,,,,,,,,,,,,,,,,,,,,,,,,,,,,,,,,,,,,,,,,,,,,,,,,
,,6982e022072cf2f69a036e17,2026-03-17_17h08.40.084,kallum_motion_pilot_GIST_update_2,2026.1.1,Win32,74.62686567,6982e022072cf2f69a036e17,69b95efdef24cd8a694e89ee,69b9601465e6f35f8f497715,0.061,0.061,0,76,76,151,1,eightseven,,,,,,,,,,,,,,,,,,,,,,,,,,,,,,,,,,,,,,,,,,,,,,,,,,,,,,,,,,,,,,,,,,,,,,,,,,,,,,,,,,,,,,,,,,,,,,,,,,,,,,,,,,,,,,,,,,,,,,,,,,,,,,,,,,,,,,,,,
,,6982e022072cf2f69a036e17,2026-03-17_17h08.40.084,kallum_motion_pilot_GIST_update_2,2026.1.1,Win32,74.62686567,6982e022072cf2f69a036e17,69b95efdef24cd8a694e89ee,69b9601465e6f35f8f497715,0.062,0.062,0,77,77,145,1,fiveseven,,,,,,,,,,,,,,,,,,,,,,,,,,,,,,,,,,,,,,,,,,,,,,,,,,,,,,,,,,,,,,,,,,,,,,,,,,,,,,,,,,,,,,,,,,,,,,,,,,,,,,,,,,,,,,,,,,,,,,,,,,,,,,,,,,,,,,,,,
,,6982e022072cf2f69a036e17,2026-03-17_17h08.40.084,kallum_motion_pilot_GIST_update_2,2026.1.1,Win32,74.62686567,6982e022072cf2f69a036e17,69b95efdef24cd8a694e89ee,69b9601465e6f35f8f497715,0.062,0.062,0,78,78,52,1,threeone,,,,,,,,,,,,,,,,,,,,,,,,,,,,,,,,,,,,,,,,,,,,,,,,,,,,,,,,,,,,,,,,,,,,,,,,,,,,,,,,,,,,,,,,,,,,,,,,,,,,,,,,,,,,,,,,,,,,,,,,,,,,,,,,,,,,,,,,,
,,6982e022072cf2f69a036e17,2026-03-17_17h08.40.084,kallum_motion_pilot_GIST_update_2,2026.1.1,Win32,74.62686567,6982e022072cf2f69a036e17,69b95efdef24cd8a694e89ee,69b9601465e6f35f8f497715,0.062,0.062,0,79,79,80,1,fivesix,,,,,,,,,,,,,,,,,,,,,,,,,,,,,,,,,,,,,,,,,,,,,,,,,,,,,,,,,,,,,,,,,,,,,,,,,,,,,,,,,,,,,,,,,,,,,,,,,,,,,,,,,,,,,,,,,,,,,,,,,,,,,,,,,,,,,,,,,
,,6982e022072cf2f69a036e17,2026-03-17_17h08.40.084,kallum_motion_pilot_GIST_update_2,2026.1.1,Win32,74.62686567,6982e022072cf2f69a036e17,69b95efdef24cd8a694e89ee,69b9601465e6f35f8f497715,0.063,0.063,0,80,80,33,1,onethree,,,,,,,,,,,,,,,,,,,,,,,,,,,,,,,,,,,,,,,,,,,,,,,,,,,,,,,,,,,,,,,,,,,,,,,,,,,,,,,,,,,,,,,,,,,,,,,,,,,,,,,,,,,,,,,,,,,,,,,,,,,,,,,,,,,,,,,,,
,,6982e022072cf2f69a036e17,2026-03-17_17h08.40.084,kallum_motion_pilot_GIST_update_2,2026.1.1,Win32,74.62686567,6982e022072cf2f69a036e17,69b95efdef24cd8a694e89ee,69b9601465e6f35f8f497715,0.063,0.063,0,81,81,25,1,onethree,,,,,,,,,,,,,,,,,,,,,,,,,,,,,,,,,,,,,,,,,,,,,,,,,,,,,,,,,,,,,,,,,,,,,,,,,,,,,,,,,,,,,,,,,,,,,,,,,,,,,,,,,,,,,,,,,,,,,,,,,,,,,,,,,,,,,,,,,
,,6982e022072cf2f69a036e17,2026-03-17_17h08.40.084,kallum_motion_pilot_GIST_update_2,2026.1.1,Win32,74.62686567,6982e022072cf2f69a036e17,69b95efdef24cd8a694e89ee,69b9601465e6f35f8f497715,0.063,0.063,0,82,82,9,1,onethree,,,,,,,,,,,,,,,,,,,,,,,,,,,,,,,,,,,,,,,,,,,,,,,,,,,,,,,,,,,,,,,,,,,,,,,,,,,,,,,,,,,,,,,,,,,,,,,,,,,,,,,,,,,,,,,,,,,,,,,,,,,,,,,,,,,,,,,,,
,,6982e022072cf2f69a036e17,2026-03-17_17h08.40.084,kallum_motion_pilot_GIST_update_2,2026.1.1,Win32,74.62686567,6982e022072cf2f69a036e17,69b95efdef24cd8a694e89ee,69b9601465e6f35f8f497715,0.063,0.063,0,83,83,142,1,eightsix,,,,,,,,,,,,,,,,,,,,,,,,,,,,,,,,,,,,,,,,,,,,,,,,,,,,,,,,,,,,,,,,,,,,,,,,,,,,,,,,,,,,,,,,,,,,,,,,,,,,,,,,,,,,,,,,,,,,,,,,,,,,,,,,,,,,,,,,,
,,6982e022072cf2f69a036e17,2026-03-17_17h08.40.084,kallum_motion_pilot_GIST_update_2,2026.1.1,Win32,74.62686567,6982e022072cf2f69a036e17,69b95efdef24cd8a694e89ee,69b9601465e6f35f8f497715,0.064,0.064,0,84,84,99,1,sixeight,,,,,,,,,,,,,,,,,,,,,,,,,,,,,,,,,,,,,,,,,,,,,,,,,,,,,,,,,,,,,,,,,,,,,,,,,,,,,,,,,,,,,,,,,,,,,,,,,,,,,,,,,,,,,,,,,,,,,,,,,,,,,,,,,,,,,,,,,
,,6982e022072cf2f69a036e17,2026-03-17_17h08.40.084,kallum_motion_pilot_GIST_update_2,2026.1.1,Win32,74.62686567,6982e022072cf2f69a036e17,69b95efdef24cd8a694e89ee,69b9601465e6f35f8f497715,0.064,0.064,0,85,85,37,1,threefour,,,,,,,,,,,,,,,,,,,,,,,,,,,,,,,,,,,,,,,,,,,,,,,,,,,,,,,,,,,,,,,,,,,,,,,,,,,,,,,,,,,,,,,,,,,,,,,,,,,,,,,,,,,,,,,,,,,,,,,,,,,,,,,,,,,,,,,,,
,,6982e022072cf2f69a036e17,2026-03-17_17h08.40.084,kallum_motion_pilot_GIST_update_2,2026.1.1,Win32,74.62686567,6982e022072cf2f69a036e17,69b95efdef24cd8a694e89ee,69b9601465e6f35f8f497715,0.064,0.064,0,86,86,103,1,eightseven,,,,,,,,,,,,,,,,,,,,,,,,,,,,,,,,,,,,,,,,,,,,,,,,,,,,,,,,,,,,,,,,,,,,,,,,,,,,,,,,,,,,,,,,,,,,,,,,,,,,,,,,,,,,,,,,,,,,,,,,,,,,,,,,,,,,,,,,,
,,6982e022072cf2f69a036e17,2026-03-17_17h08.40.084,kallum_motion_pilot_GIST_update_2,2026.1.1,Win32,74.62686567,6982e022072cf2f69a036e17,69b95efdef24cd8a694e89ee,69b9601465e6f35f8f497715,0.064,0.064,0,87,87,51,1,twofour,,,,,,,,,,,,,,,,,,,,,,,,,,,,,,,,,,,,,,,,,,,,,,,,,,,,,,,,,,,,,,,,,,,,,,,,,,,,,,,,,,,,,,,,,,,,,,,,,,,,,,,,,,,,,,,,,,,,,,,,,,,,,,,,,,,,,,,,,
,,6982e022072cf2f69a036e17,2026-03-17_17h08.40.084,kallum_motion_pilot_GIST_update_2,2026.1.1,Win32,74.62686567,6982e022072cf2f69a036e17,69b95efdef24cd8a694e89ee,69b9601465e6f35f8f497715,0.064,0.065,0,88,88,73,1,onethree,,,,,,,,,,,,,,,,,,,,,,,,,,,,,,,,,,,,,,,,,,,,,,,,,,,,,,,,,,,,,,,,,,,,,,,,,,,,,,,,,,,,,,,,,,,,,,,,,,,,,,,,,,,,,,,,,,,,,,,,,,,,,,,,,,,,,,,,,
,,6982e022072cf2f69a036e17,2026-03-17_17h08.40.084,kallum_motion_pilot_GIST_update_2,2026.1.1,Win32,74.62686567,6982e022072cf2f69a036e17,69b95efdef24cd8a694e89ee,69b9601465e6f35f8f497715,0.065,0.065,0,89,89,111,1,eightseven,,,,,,,,,,,,,,,,,,,,,,,,,,,,,,,,,,,,,,,,,,,,,,,,,,,,,,,,,,,,,,,,,,,,,,,,,,,,,,,,,,,,,,,,,,,,,,,,,,,,,,,,,,,,,,,,,,,,,,,,,,,,,,,,,,,,,,,,,
,,6982e022072cf2f69a036e17,2026-03-17_17h08.40.084,kallum_motion_pilot_GIST_update_2,2026.1.1,Win32,74.62686567,6982e022072cf2f69a036e17,69b95efdef24cd8a694e89ee,69b9601465e6f35f8f497715,0.065,0.065,0,90,90,78,1,fourtwo,,,,,,,,,,,,,,,,,,,,,,,,,,,,,,,,,,,,,,,,,,,,,,,,,,,,,,,,,,,,,,,,,,,,,,,,,,,,,,,,,,,,,,,,,,,,,,,,,,,,,,,,,,,,,,,,,,,,,,,,,,,,,,,,,,,,,,,,,
,,6982e022072cf2f69a036e17,2026-03-17_17h08.40.084,kallum_motion_pilot_GIST_update_2,2026.1.1,Win32,74.62686567,6982e022072cf2f69a036e17,69b95efdef24cd8a694e89ee,69b9601465e6f35f8f497715,0.066,0.066,0,91,91,157,1,seveneight,,,,,,,,,,,,,,,,,,,,,,,,,,,,,,,,,,,,,,,,,,,,,,,,,,,,,,,,,,,,,,,,,,,,,,,,,,,,,,,,,,,,,,,,,,,,,,,,,,,,,,,,,,,,,,,,,,,,,,,,,,,,,,,,,,,,,,,,,
,,6982e022072cf2f69a036e17,2026-03-17_17h08.40.084,kallum_motion_pilot_GIST_update_2,2026.1.1,Win32,74.62686567,6982e022072cf2f69a036e17,69b95efdef24cd8a694e89ee,69b9601465e6f35f8f497715,0.066,0.066,0,92,92,154,1,sixfive,,,,,,,,,,,,,,,,,,,,,,,,,,,,,,,,,,,,,,,,,,,,,,,,,,,,,,,,,,,,,,,,,,,,,,,,,,,,,,,,,,,,,,,,,,,,,,,,,,,,,,,,,,,,,,,,,,,,,,,,,,,,,,,,,,,,,,,,,
,,6982e022072cf2f69a036e17,2026-03-17_17h08.40.084,kallum_motion_pilot_GIST_update_2,2026.1.1,Win32,74.62686567,6982e022072cf2f69a036e17,69b95efdef24cd8a694e89ee,69b9601465e6f35f8f497715,0.066,0.066,0,93,93,50,1,twoone,,,,,,,,,,,,,,,,,,,,,,,,,,,,,,,,,,,,,,,,,,,,,,,,,,,,,,,,,,,,,,,,,,,,,,,,,,,,,,,,,,,,,,,,,,,,,,,,,,,,,,,,,,,,,,,,,,,,,,,,,,,,,,,,,,,,,,,,,
,,6982e022072cf2f69a036e17,2026-03-17_17h08.40.084,kallum_motion_pilot_GIST_update_2,2026.1.1,Win32,74.62686567,6982e022072cf2f69a036e17,69b95efdef24cd8a694e89ee,69b9601465e6f35f8f497715,0.066,0.066,0,94,94,74,1,twoone,,,,,,,,,,,,,,,,,,,,,,,,,,,,,,,,,,,,,,,,,,,,,,,,,,,,,,,,,,,,,,,,,,,,,,,,,,,,,,,,,,,,,,,,,,,,,,,,,,,,,,,,,,,,,,,,,,,,,,,,,,,,,,,,,,,,,,,,,
,,6982e022072cf2f69a036e17,2026-03-17_17h08.40.084,kallum_motion_pilot_GIST_update_2,2026.1.1,Win32,74.62686567,6982e022072cf2f69a036e17,69b95efdef24cd8a694e89ee,69b9601465e6f35f8f497715,0.067,0.067,0,95,95,144,1,fivesix,,,,,,,,,,,,,,,,,,,,,,,,,,,,,,,,,,,,,,,,,,,,,,,,,,,,,,,,,,,,,,,,,,,,,,,,,,,,,,,,,,,,,,,,,,,,,,,,,,,,,,,,,,,,,,,,,,,,,,,,,,,,,,,,,,,,,,,,,
,,6982e022072cf2f69a036e17,2026-03-17_17h08.40.084,kallum_motion_pilot_GIST_update_2,2026.1.1,Win32,74.62686567,6982e022072cf2f69a036e17,69b95efdef24cd8a694e89ee,69b9601465e6f35f8f497715,0.067,0.067,0,96,96,40,1,onetwo,,,,,,,,,,,,,,,,,,,,,,,,,,,,,,,,,,,,,,,,,,,,,,,,,,,,,,,,,,,,,,,,,,,,,,,,,,,,,,,,,,,,,,,,,,,,,,,,,,,,,,,,,,,,,,,,,,,,,,,,,,,,,,,,,,,,,,,,,
,,6982e022072cf2f69a036e17,2026-03-17_17h08.40.084,kallum_motion_pilot_GIST_update_2,2026.1.1,Win32,74.62686567,6982e022072cf2f69a036e17,69b95efdef24cd8a694e89ee,69b9601465e6f35f8f497715,0.067,0.067,0,97,97,139,1,sixeight,,,,,,,,,,,,,,,,,,,,,,,,,,,,,,,,,,,,,,,,,,,,,,,,,,,,,,,,,,,,,,,,,,,,,,,,,,,,,,,,,,,,,,,,,,,,,,,,,,,,,,,,,,,,,,,,,,,,,,,,,,,,,,,,,,,,,,,,,
,,6982e022072cf2f69a036e17,2026-03-17_17h08.40.084,kallum_motion_pilot_GIST_update_2,2026.1.1,Win32,74.62686567,6982e022072cf2f69a036e17,69b95efdef24cd8a694e89ee,69b9601465e6f35f8f497715,0.067,0.067,0,98,98,44,1,threeone,,,,,,,,,,,,,,,,,,,,,,,,,,,,,,,,,,,,,,,,,,,,,,,,,,,,,,,,,,,,,,,,,,,,,,,,,,,,,,,,,,,,,,,,,,,,,,,,,,,,,,,,,,,,,,,,,,,,,,,,,,,,,,,,,,,,,,,,,
,,6982e022072cf2f69a036e17,2026-03-17_17h08.40.084,kallum_motion_pilot_GIST_update_2,2026.1.1,Win32,74.62686567,6982e022072cf2f69a036e17,69b95efdef24cd8a694e89ee,69b9601465e6f35f8f497715,0.068,0.068,0,99,99,17,1,onethree,,,,,,,,,,,,,,,,,,,,,,,,,,,,,,,,,,,,,,,,,,,,,,,,,,,,,,,,,,,,,,,,,,,,,,,,,,,,,,,,,,,,,,,,,,,,,,,,,,,,,,,,,,,,,,,,,,,,,,,,,,,,,,,,,,,,,,,,,
,,6982e022072cf2f69a036e17,2026-03-17_17h08.40.084,kallum_motion_pilot_GIST_update_2,2026.1.1,Win32,74.62686567,6982e022072cf2f69a036e17,69b95efdef24cd8a694e89ee,69b9601465e6f35f8f497715,0.068,0.068,0,100,100,121,1,fiveseven,,,,,,,,,,,,,,,,,,,,,,,,,,,,,,,,,,,,,,,,,,,,,,,,,,,,,,,,,,,,,,,,,,,,,,,,,,,,,,,,,,,,,,,,,,,,,,,,,,,,,,,,,,,,,,,,,,,,,,,,,,,,,,,,,,,,,,,,,
,,6982e022072cf2f69a036e17,2026-03-17_17h08.40.084,kallum_motion_pilot_GIST_update_2,2026.1.1,Win32,74.62686567,6982e022072cf2f69a036e17,69b95efdef24cd8a694e89ee,69b9601465e6f35f8f497715,0.068,0.068,0,101,101,6,1,fourtwo,,,,,,,,,,,,,,,,,,,,,,,,,,,,,,,,,,,,,,,,,,,,,,,,,,,,,,,,,,,,,,,,,,,,,,,,,,,,,,,,,,,,,,,,,,,,,,,,,,,,,,,,,,,,,,,,,,,,,,,,,,,,,,,,,,,,,,,,,
,,6982e022072cf2f69a036e17,2026-03-17_17h08.40.084,kallum_motion_pilot_GIST_update_2,2026.1.1,Win32,74.62686567,6982e022072cf2f69a036e17,69b95efdef24cd8a694e89ee,69b9601465e6f35f8f497715,0.069,0.069,0,102,102,35,1,twofour,,,,,,,,,,,,,,,,,,,,,,,,,,,,,,,,,,,,,,,,,,,,,,,,,,,,,,,,,,,,,,,,,,,,,,,,,,,,,,,,,,,,,,,,,,,,,,,,,,,,,,,,,,,,,,,,,,,,,,,,,,,,,,,,,,,,,,,,,
,,6982e022072cf2f69a036e17,2026-03-17_17h08.40.084,kallum_motion_pilot_GIST_update_2,2026.1.1,Win32,74.62686567,6982e022072cf2f69a036e17,69b95efdef24cd8a694e89ee,69b9601465e6f35f8f497715,0.069,0.069,0,103,103,110,1,eightsix,,,,,,,,,,,,,,,,,,,,,,,,,,,,,,,,,,,,,,,,,,,,,,,,,,,,,,,,,,,,,,,,,,,,,,,,,,,,,,,,,,,,,,,,,,,,,,,,,,,,,,,,,,,,,,,,,,,,,,,,,,,,,,,,,,,,,,,,,
,,6982e022072cf2f69a036e17,2026-03-17_17h08.40.084,kallum_motion_pilot_GIST_update_2,2026.1.1,Win32,74.62686567,6982e022072cf2f69a036e17,69b95efdef24cd8a694e89ee,69b9601465e6f35f8f497715,0.069,0.069,0,104,104,79,1,eightseven,,,,,,,,,,,,,,,,,,,,,,,,,,,,,,,,,,,,,,,,,,,,,,,,,,,,,,,,,,,,,,,,,,,,,,,,,,,,,,,,,,,,,,,,,,,,,,,,,,,,,,,,,,,,,,,,,,,,,,,,,,,,,,,,,,,,,,,,,
,,6982e022072cf2f69a036e17,2026-03-17_17h08.40.084,kallum_motion_pilot_GIST_update_2,2026.1.1,Win32,74.62686567,6982e022072cf2f69a036e17,69b95efdef24cd8a694e89ee,69b9601465e6f35f8f497715,0.069,0.069,0,105,105,58,1,twoone,,,,,,,,,,,,,,,,,,,,,,,,,,,,,,,,,,,,,,,,,,,,,,,,,,,,,,,,,,,,,,,,,,,,,,,,,,,,,,,,,,,,,,,,,,,,,,,,,,,,,,,,,,,,,,,,,,,,,,,,,,,,,,,,,,,,,,,,,
,,6982e022072cf2f69a036e17,2026-03-17_17h08.40.084,kallum_motion_pilot_GIST_update_2,2026.1.1,Win32,74.62686567,6982e022072cf2f69a036e17,69b95efdef24cd8a694e89ee,69b9601465e6f35f8f497715,0.07,0.07,0,106,106,155,1,sixeight,,,,,,,,,,,,,,,,,,,,,,,,,,,,,,,,,,,,,,,,,,,,,,,,,,,,,,,,,,,,,,,,,,,,,,,,,,,,,,,,,,,,,,,,,,,,,,,,,,,,,,,,,,,,,,,,,,,,,,,,,,,,,,,,,,,,,,,,,
,,6982e022072cf2f69a036e17,2026-03-17_17h08.40.084,kallum_motion_pilot_GIST_update_2,2026.1.1,Win32,74.62686567,6982e022072cf2f69a036e17,69b95efdef24cd8a694e89ee,69b9601465e6f35f8f497715,0.07,0.07,0,107,107,81,1,fiveseven,,,,,,,,,,,,,,,,,,,,,,,,,,,,,,,,,,,,,,,,,,,,,,,,,,,,,,,,,,,,,,,,,,,,,,,,,,,,,,,,,,,,,,,,,,,,,,,,,,,,,,,,,,,,,,,,,,,,,,,,,,,,,,,,,,,,,,,,,
,,6982e022072cf2f69a036e17,2026-03-17_17h08.40.084,kallum_motion_pilot_GIST_update_2,2026.1.1,Win32,74.62686567,6982e022072cf2f69a036e17,69b95efdef24cd8a694e89ee,69b9601465e6f35f8f497715,0.07,0.07,0,108,108,12,1,threeone,,,,,,,,,,,,,,,,,,,,,,,,,,,,,,,,,,,,,,,,,,,,,,,,,,,,,,,,,,,,,,,,,,,,,,,,,,,,,,,,,,,,,,,,,,,,,,,,,,,,,,,,,,,,,,,,,,,,,,,,,,,,,,,,,,,,,,,,,
,,6982e022072cf2f69a036e17,2026-03-17_17h08.40.084,kallum_motion_pilot_GIST_update_2,2026.1.1,Win32,74.62686567,6982e022072cf2f69a036e17,69b95efdef24cd8a694e89ee,69b9601465e6f35f8f497715,0.07,0.07,0,109,109,0,1,onetwo,,,,,,,,,,,,,,,,,,,,,,,,,,,,,,,,,,,,,,,,,,,,,,,,,,,,,,,,,,,,,,,,,,,,,,,,,,,,,,,,,,,,,,,,,,,,,,,,,,,,,,,,,,,,,,,,,,,,,,,,,,,,,,,,,,,,,,,,,
,,6982e022072cf2f69a036e17,2026-03-17_17h08.40.084,kallum_motion_pilot_GIST_update_2,2026.1.1,Win32,74.62686567,6982e022072cf2f69a036e17,69b95efdef24cd8a694e89ee,69b9601465e6f35f8f497715,0.071,0.071,0,110,110,22,1,fourtwo,,,,,,,,,,,,,,,,,,,,,,,,,,,,,,,,,,,,,,,,,,,,,,,,,,,,,,,,,,,,,,,,,,,,,,,,,,,,,,,,,,,,,,,,,,,,,,,,,,,,,,,,,,,,,,,,,,,,,,,,,,,,,,,,,,,,,,,,,
,,6982e022072cf2f69a036e17,2026-03-17_17h08.40.084,kallum_motion_pilot_GIST_update_2,2026.1.1,Win32,74.62686567,6982e022072cf2f69a036e17,69b95efdef24cd8a694e89ee,69b9601465e6f35f8f497715,0.071,0.071,0,111,111,31,1,fourthree,,,,,,,,,,,,,,,,,,,,,,,,,,,,,,,,,,,,,,,,,,,,,,,,,,,,,,,,,,,,,,,,,,,,,,,,,,,,,,,,,,,,,,,,,,,,,,,,,,,,,,,,,,,,,,,,,,,,,,,,,,,,,,,,,,,,,,,,,
,,6982e022072cf2f69a036e17,2026-03-17_17h08.40.084,kallum_motion_pilot_GIST_update_2,2026.1.1,Win32,74.62686567,6982e022072cf2f69a036e17,69b95efdef24cd8a694e89ee,69b9601465e6f35f8f497715,0.071,0.071,0,112,112,55,1,fourthree,,,,,,,,,,,,,,,,,,,,,,,,,,,,,,,,,,,,,,,,,,,,,,,,,,,,,,,,,,,,,,,,,,,,,,,,,,,,,,,,,,,,,,,,,,,,,,,,,,,,,,,,,,,,,,,,,,,,,,,,,,,,,,,,,,,,,,,,,
,,6982e022072cf2f69a036e17,2026-03-17_17h08.40.084,kallum_motion_pilot_GIST_update_2,2026.1.1,Win32,74.62686567,6982e022072cf2f69a036e17,69b95efdef24cd8a694e89ee,69b9601465e6f35f8f497715,0.071,0.071,0,113,113,141,1,seveneight,,,,,,,,,,,,,,,,,,,,,,,,,,,,,,,,,,,,,,,,,,,,,,,,,,,,,,,,,,,,,,,,,,,,,,,,,,,,,,,,,,,,,,,,,,,,,,,,,,,,,,,,,,,,,,,,,,,,,,,,,,,,,,,,,,,,,,,,,
,,6982e022072cf2f69a036e17,2026-03-17_17h08.40.084,kallum_motion_pilot_GIST_update_2,2026.1.1,Win32,74.62686567,6982e022072cf2f69a036e17,69b95efdef24cd8a694e89ee,69b9601465e6f35f8f497715,0.072,0.072,0,114,114,5,1,threefour,,,,,,,,,,,,,,,,,,,,,,,,,,,,,,,,,,,,,,,,,,,,,,,,,,,,,,,,,,,,,,,,,,,,,,,,,,,,,,,,,,,,,,,,,,,,,,,,,,,,,,,,,,,,,,,,,,,,,,,,,,,,,,,,,,,,,,,,,
,,6982e022072cf2f69a036e17,2026-03-17_17h08.40.084,kallum_motion_pilot_GIST_update_2,2026.1.1,Win32,74.62686567,6982e022072cf2f69a036e17,69b95efdef24cd8a694e89ee,69b9601465e6f35f8f497715,0.072,0.072,0,115,115,122,1,sixfive,,,,,,,,,,,,,,,,,,,,,,,,,,,,,,,,,,,,,,,,,,,,,,,,,,,,,,,,,,,,,,,,,,,,,,,,,,,,,,,,,,,,,,,,,,,,,,,,,,,,,,,,,,,,,,,,,,,,,,,,,,,,,,,,,,,,,,,,,
,,6982e022072cf2f69a036e17,2026-03-17_17h08.40.084,kallum_motion_pilot_GIST_update_2,2026.1.1,Win32,74.62686567,6982e022072cf2f69a036e17,69b95efdef24cd8a694e89ee,69b9601465e6f35f8f497715,0.072,0.072,0,116,116,137,1,fiveseven,,,,,,,,,,,,,,,,,,,,,,,,,,,,,,,,,,,,,,,,,,,,,,,,,,,,,,,,,,,,,,,,,,,,,,,,,,,,,,,,,,,,,,,,,,,,,,,,,,,,,,,,,,,,,,,,,,,,,,,,,,,,,,,,,,,,,,,,,
,,6982e022072cf2f69a036e17,2026-03-17_17h08.40.084,kallum_motion_pilot_GIST_update_2,2026.1.1,Win32,74.62686567,6982e022072cf2f69a036e17,69b95efdef24cd8a694e89ee,69b9601465e6f35f8f497715,0.072,0.072,0,117,117,49,1,onethree,,,,,,,,,,,,,,,,,,,,,,,,,,,,,,,,,,,,,,,,,,,,,,,,,,,,,,,,,,,,,,,,,,,,,,,,,,,,,,,,,,,,,,,,,,,,,,,,,,,,,,,,,,,,,,,,,,,,,,,,,,,,,,,,,,,,,,,,,
,,6982e022072cf2f69a036e17,2026-03-17_17h08.40.084,kallum_motion_pilot_GIST_update_2,2026.1.1,Win32,74.62686567,6982e022072cf2f69a036e17,69b95efdef24cd8a694e89ee,69b9601465e6f35f8f497715,0.073,0.073,0,118,118,102,1,eightsix,,,,,,,,,,,,,,,,,,,,,,,,,,,,,,,,,,,,,,,,,,,,,,,,,,,,,,,,,,,,,,,,,,,,,,,,,,,,,,,,,,,,,,,,,,,,,,,,,,,,,,,,,,,,,,,,,,,,,,,,,,,,,,,,,,,,,,,,,
,,6982e022072cf2f69a036e17,2026-03-17_17h08.40.084,kallum_motion_pilot_GIST_update_2,2026.1.1,Win32,74.62686567,6982e022072cf2f69a036e17,69b95efdef24cd8a694e89ee,69b9601465e6f35f8f497715,0.073,0.073,0,119,119,57,1,onethree,,,,,,,,,,,,,,,,,,,,,,,,,,,,,,,,,,,,,,,,,,,,,,,,,,,,,,,,,,,,,,,,,,,,,,,,,,,,,,,,,,,,,,,,,,,,,,,,,,,,,,,,,,,,,,,,,,,,,,,,,,,,,,,,,,,,,,,,,
,,6982e022072cf2f69a036e17,2026-03-17_17h08.40.084,kallum_motion_pilot_GIST_update_2,2026.1.1,Win32,74.62686567,6982e022072cf2f69a036e17,69b95efdef24cd8a694e89ee,69b9601465e6f35f8f497715,0.073,0.073,0,120,120,101,1,seveneight,,,,,,,,,,,,,,,,,,,,,,,,,,,,,,,,,,,,,,,,,,,,,,,,,,,,,,,,,,,,,,,,,,,,,,,,,,,,,,,,,,,,,,,,,,,,,,,,,,,,,,,,,,,,,,,,,,,,,,,,,,,,,,,,,,,,,,,,,
,,6982e022072cf2f69a036e17,2026-03-17_17h08.40.084,kallum_motion_pilot_GIST_update_2,2026.1.1,Win32,74.62686567,6982e022072cf2f69a036e17,69b95efdef24cd8a694e89ee,69b9601465e6f35f8f497715,0.073,0.073,0,121,121,98,1,sixfive,,,,,,,,,,,,,,,,,,,,,,,,,,,,,,,,,,,,,,,,,,,,,,,,,,,,,,,,,,,,,,,,,,,,,,,,,,,,,,,,,,,,,,,,,,,,,,,,,,,,,,,,,,,,,,,,,,,,,,,,,,,,,,,,,,,,,,,,,
,,6982e022072cf2f69a036e17,2026-03-17_17h08.40.084,kallum_motion_pilot_GIST_update_2,2026.1.1,Win32,74.62686567,6982e022072cf2f69a036e17,69b95efdef24cd8a694e89ee,69b9601465e6f35f8f497715,0.074,0.074,0,122,122,68,1,threeone,,,,,,,,,,,,,,,,,,,,,,,,,,,,,,,,,,,,,,,,,,,,,,,,,,,,,,,,,,,,,,,,,,,,,,,,,,,,,,,,,,,,,,,,,,,,,,,,,,,,,,,,,,,,,,,,,,,,,,,,,,,,,,,,,,,,,,,,,
,,6982e022072cf2f69a036e17,2026-03-17_17h08.40.084,kallum_motion_pilot_GIST_update_2,2026.1.1,Win32,74.62686567,6982e022072cf2f69a036e17,69b95efdef24cd8a694e89ee,69b9601465e6f35f8f497715,0.074,0.074,0,123,123,29,1,threefour,,,,,,,,,,,,,,,,,,,,,,,,,,,,,,,,,,,,,,,,,,,,,,,,,,,,,,,,,,,,,,,,,,,,,,,,,,,,,,,,,,,,,,,,,,,,,,,,,,,,,,,,,,,,,,,,,,,,,,,,,,,,,,,,,,,,,,,,,
,,6982e022072cf2f69a036e17,2026-03-17_17h08.40.084,kallum_motion_pilot_GIST_update_2,2026.1.1,Win32,74.62686567,6982e022072cf2f69a036e17,69b95efdef24cd8a694e89ee,69b9601465e6f35f8f497715,0.074,0.074,0,124,124,134,1,eightsix,,,,,,,,,,,,,,,,,,,,,,,,,,,,,,,,,,,,,,,,,,,,,,,,,,,,,,,,,,,,,,,,,,,,,,,,,,,,,,,,,,,,,,,,,,,,,,,,,,,,,,,,,,,,,,,,,,,,,,,,,,,,,,,,,,,,,,,,,
,,6982e022072cf2f69a036e17,2026-03-17_17h08.40.084,kallum_motion_pilot_GIST_update_2,2026.1.1,Win32,74.62686567,6982e022072cf2f69a036e17,69b95efdef24cd8a694e89ee,69b9601465e6f35f8f497715,0.074,0.075,0,125,125,20,1,threeone,,,,,,,,,,,,,,,,,,,,,,,,,,,,,,,,,,,,,,,,,,,,,,,,,,,,,,,,,,,,,,,,,,,,,,,,,,,,,,,,,,,,,,,,,,,,,,,,,,,,,,,,,,,,,,,,,,,,,,,,,,,,,,,,,,,,,,,,,
,,6982e022072cf2f69a036e17,2026-03-17_17h08.40.084,kallum_motion_pilot_GIST_update_2,2026.1.1,Win32,74.62686567,6982e022072cf2f69a036e17,69b95efdef24cd8a694e89ee,69b9601465e6f35f8f497715,0.075,0.075,0,126,126,104,1,fivesix,,,,,,,,,,,,,,,,,,,,,,,,,,,,,,,,,,,,,,,,,,,,,,,,,,,,,,,,,,,,,,,,,,,,,,,,,,,,,,,,,,,,,,,,,,,,,,,,,,,,,,,,,,,,,,,,,,,,,,,,,,,,,,,,,,,,,,,,,
,,6982e022072cf2f69a036e17,2026-03-17_17h08.40.084,kallum_motion_pilot_GIST_update_2,2026.1.1,Win32,74.62686567,6982e022072cf2f69a036e17,69b95efdef24cd8a694e89ee,69b9601465e6f35f8f497715,0.075,0.075,0,127,127,16,1,onetwo,,,,,,,,,,,,,,,,,,,,,,,,,,,,,,,,,,,,,,,,,,,,,,,,,,,,,,,,,,,,,,,,,,,,,,,,,,,,,,,,,,,,,,,,,,,,,,,,,,,,,,,,,,,,,,,,,,,,,,,,,,,,,,,,,,,,,,,,,
,,6982e022072cf2f69a036e17,2026-03-17_17h08.40.084,kallum_motion_pilot_GIST_update_2,2026.1.1,Win32,74.62686567,6982e022072cf2f69a036e17,69b95efdef24cd8a694e89ee,69b9601465e6f35f8f497715,0.075,0.075,0,128,128,39,1,fourthree,,,,,,,,,,,,,,,,,,,,,,,,,,,,,,,,,,,,,,,,,,,,,,,,,,,,,,,,,,,,,,,,,,,,,,,,,,,,,,,,,,,,,,,,,,,,,,,,,,,,,,,,,,,,,,,,,,,,,,,,,,,,,,,,,,,,,,,,,
,,6982e022072cf2f69a036e17,2026-03-17_17h08.40.084,kallum_motion_pilot_GIST_update_2,2026.1.1,Win32,74.62686567,6982e022072cf2f69a036e17,69b95efdef24cd8a694e89ee,69b9601465e6f35f8f497715,0.076,0.076,0,129,129,95,1,eightseven,,,,,,,,,,,,,,,,,,,,,,,,,,,,,,,,,,,,,,,,,,,,,,,,,,,,,,,,,,,,,,,,,,,,,,,,,,,,,,,,,,,,,,,,,,,,,,,,,,,,,,,,,,,,,,,,,,,,,,,,,,,,,,,,,,,,,,,,,
,,6982e022072cf2f69a036e17,2026-03-17_17h08.40.084,kallum_motion_pilot_GIST_update_2,2026.1.1,Win32,74.62686567,6982e022072cf2f69a036e17,69b95efdef24cd8a694e89ee,69b9601465e6f35f8f497715,0.076,0.076,0,130,130,106,1,sixfive,,,,,,,,,,,,,,,,,,,,,,,,,,,,,,,,,,,,,,,,,,,,,,,,,,,,,,,,,,,,,,,,,,,,,,,,,,,,,,,,,,,,,,,,,,,,,,,,,,,,,,,,,,,,,,,,,,,,,,,,,,,,,,,,,,,,,,,,,
,,6982e022072cf2f69a036e17,2026-03-17_17h08.40.084,kallum_motion_pilot_GIST_update_2,2026.1.1,Win32,74.62686567,6982e022072cf2f69a036e17,69b95efdef24cd8a694e89ee,69b9601465e6f35f8f497715,0.076,0.076,0,131,131,63,1,fourthree,,,,,,,,,,,,,,,,,,,,,,,,,,,,,,,,,,,,,,,,,,,,,,,,,,,,,,,,,,,,,,,,,,,,,,,,,,,,,,,,,,,,,,,,,,,,,,,,,,,,,,,,,,,,,,,,,,,,,,,,,,,,,,,,,,,,,,,,,
,,6982e022072cf2f69a036e17,2026-03-17_17h08.40.084,kallum_motion_pilot_GIST_update_2,2026.1.1,Win32,74.62686567,6982e022072cf2f69a036e17,69b95efdef24cd8a694e89ee,69b9601465e6f35f8f497715,0.077,0.077,0,132,132,14,1,fourtwo,,,,,,,,,,,,,,,,,,,,,,,,,,,,,,,,,,,,,,,,,,,,,,,,,,,,,,,,,,,,,,,,,,,,,,,,,,,,,,,,,,,,,,,,,,,,,,,,,,,,,,,,,,,,,,,,,,,,,,,,,,,,,,,,,,,,,,,,,
,,6982e022072cf2f69a036e17,2026-03-17_17h08.40.084,kallum_motion_pilot_GIST_update_2,2026.1.1,Win32,74.62686567,6982e022072cf2f69a036e17,69b95efdef24cd8a694e89ee,69b9601465e6f35f8f497715,0.077,0.077,0,133,133,132,1,sevenfive,,,,,,,,,,,,,,,,,,,,,,,,,,,,,,,,,,,,,,,,,,,,,,,,,,,,,,,,,,,,,,,,,,,,,,,,,,,,,,,,,,,,,,,,,,,,,,,,,,,,,,,,,,,,,,,,,,,,,,,,,,,,,,,,,,,,,,,,,
,,6982e022072cf2f69a036e17,2026-03-17_17h08.40.084,kallum_motion_pilot_GIST_update_2,2026.1.1,Win32,74.62686567,6982e022072cf2f69a036e17,69b95efdef24cd8a694e89ee,69b9601465e6f35f8f497715,0.077,0.077,0,134,134,128,1,fivesix,,,,,,,,,,,,,,,,,,,,,,,,,,,,,,,,,,,,,,,,,,,,,,,,,,,,,,,,,,,,,,,,,,,,,,,,,,,,,,,,,,,,,,,,,,,,,,,,,,,,,,,,,,,,,,,,,,,,,,,,,,,,,,,,,,,,,,,,,
,,6982e022072cf2f69a036e17,2026-03-17_17h08.40.084,kallum_motion_pilot_GIST_update_2,2026.1.1,Win32,74.62686567,6982e022072cf2f69a036e17,69b95efdef24cd8a694e89ee,69b9601465e6f35f8f497715,0.078,0.078,0,135,135,131,1,sixeight,,,,,,,,,,,,,,,,,,,,,,,,,,,,,,,,,,,,,,,,,,,,,,,,,,,,,,,,,,,,,,,,,,,,,,,,,,,,,,,,,,,,,,,,,,,,,,,,,,,,,,,,,,,,,,,,,,,,,,,,,,,,,,,,,,,,,,,,,
,,6982e022072cf2f69a036e17,2026-03-17_17h08.40.084,kallum_motion_pilot_GIST_update_2,2026.1.1,Win32,74.62686567,6982e022072cf2f69a036e17,69b95efdef24cd8a694e89ee,69b9601465e6f35f8f497715,0.078,0.078,0,136,136,124,1,sevenfive,,,,,,,,,,,,,,,,,,,,,,,,,,,,,,,,,,,,,,,,,,,,,,,,,,,,,,,,,,,,,,,,,,,,,,,,,,,,,,,,,,,,,,,,,,,,,,,,,,,,,,,,,,,,,,,,,,,,,,,,,,,,,,,,,,,,,,,,,
,,6982e022072cf2f69a036e17,2026-03-17_17h08.40.084,kallum_motion_pilot_GIST_update_2,2026.1.1,Win32,74.62686567,6982e022072cf2f69a036e17,69b95efdef24cd8a694e89ee,69b9601465e6f35f8f497715,0.079,0.079,0,137,137,117,1,seveneight,,,,,,,,,,,,,,,,,,,,,,,,,,,,,,,,,,,,,,,,,,,,,,,,,,,,,,,,,,,,,,,,,,,,,,,,,,,,,,,,,,,,,,,,,,,,,,,,,,,,,,,,,,,,,,,,,,,,,,,,,,,,,,,,,,,,,,,,,
,,6982e022072cf2f69a036e17,2026-03-17_17h08.40.084,kallum_motion_pilot_GIST_update_2,2026.1.1,Win32,74.62686567,6982e022072cf2f69a036e17,69b95efdef24cd8a694e89ee,69b9601465e6f35f8f497715,0.08,0.08,0,138,138,53,1,threefour,,,,,,,,,,,,,,,,,,,,,,,,,,,,,,,,,,,,,,,,,,,,,,,,,,,,,,,,,,,,,,,,,,,,,,,,,,,,,,,,,,,,,,,,,,,,,,,,,,,,,,,,,,,,,,,,,,,,,,,,,,,,,,,,,,,,,,,,,
,,6982e022072cf2f69a036e17,2026-03-17_17h08.40.084,kallum_motion_pilot_GIST_update_2,2026.1.1,Win32,74.62686567,6982e022072cf2f69a036e17,69b95efdef24cd8a694e89ee,69b9601465e6f35f8f497715,0.081,0.081,0,139,139,61,1,threefour,,,,,,,,,,,,,,,,,,,,,,,,,,,,,,,,,,,,,,,,,,,,,,,,,,,,,,,,,,,,,,,,,,,,,,,,,,,,,,,,,,,,,,,,,,,,,,,,,,,,,,,,,,,,,,,,,,,,,,,,,,,,,,,,,,,,,,,,,
,,6982e022072cf2f69a036e17,2026-03-17_17h08.40.084,kallum_motion_pilot_GIST_update_2,2026.1.1,Win32,74.62686567,6982e022072cf2f69a036e17,69b95efdef24cd8a694e89ee,69b9601465e6f35f8f497715,0.081,0.081,0,140,140,156,1,sevenfive,,,,,,,,,,,,,,,,,,,,,,,,,,,,,,,,,,,,,,,,,,,,,,,,,,,,,,,,,,,,,,,,,,,,,,,,,,,,,,,,,,,,,,,,,,,,,,,,,,,,,,,,,,,,,,,,,,,,,,,,,,,,,,,,,,,,,,,,,
,,6982e022072cf2f69a036e17,2026-03-17_17h08.40.084,kallum_motion_pilot_GIST_update_2,2026.1.1,Win32,74.62686567,6982e022072cf2f69a036e17,69b95efdef24cd8a694e89ee,69b9601465e6f35f8f497715,0.082,0.082,0,141,141,54,1,fourtwo,,,,,,,,,,,,,,,,,,,,,,,,,,,,,,,,,,,,,,,,,,,,,,,,,,,,,,,,,,,,,,,,,,,,,,,,,,,,,,,,,,,,,,,,,,,,,,,,,,,,,,,,,,,,,,,,,,,,,,,,,,,,,,,,,,,,,,,,,
,,6982e022072cf2f69a036e17,2026-03-17_17h08.40.084,kallum_motion_pilot_GIST_update_2,2026.1.1,Win32,74.62686567,6982e022072cf2f69a036e17,69b95efdef24cd8a694e89ee,69b9601465e6f35f8f497715,0.082,0.082,0,142,142,38,1,fourtwo,,,,,,,,,,,,,,,,,,,,,,,,,,,,,,,,,,,,,,,,,,,,,,,,,,,,,,,,,,,,,,,,,,,,,,,,,,,,,,,,,,,,,,,,,,,,,,,,,,,,,,,,,,,,,,,,,,,,,,,,,,,,,,,,,,,,,,,,,
,,6982e022072cf2f69a036e17,2026-03-17_17h08.40.084,kallum_motion_pilot_GIST_update_2,2026.1.1,Win32,74.62686567,6982e022072cf2f69a036e17,69b95efdef24cd8a694e89ee,69b9601465e6f35f8f497715,0.082,0.082,0,143,143,8,1,onetwo,,,,,,,,,,,,,,,,,,,,,,,,,,,,,,,,,,,,,,,,,,,,,,,,,,,,,,,,,,,,,,,,,,,,,,,,,,,,,,,,,,,,,,,,,,,,,,,,,,,,,,,,,,,,,,,,,,,,,,,,,,,,,,,,,,,,,,,,,
,,6982e022072cf2f69a036e17,2026-03-17_17h08.40.084,kallum_motion_pilot_GIST_update_2,2026.1.1,Win32,74.62686567,6982e022072cf2f69a036e17,69b95efdef24cd8a694e89ee,69b9601465e6f35f8f497715,0.083,0.083,0,144,144,158,1,eightsix,,,,,,,,,,,,,,,,,,,,,,,,,,,,,,,,,,,,,,,,,,,,,,,,,,,,,,,,,,,,,,,,,,,,,,,,,,,,,,,,,,,,,,,,,,,,,,,,,,,,,,,,,,,,,,,,,,,,,,,,,,,,,,,,,,,,,,,,,
,,6982e022072cf2f69a036e17,2026-03-17_17h08.40.084,kallum_motion_pilot_GIST_update_2,2026.1.1,Win32,74.62686567,6982e022072cf2f69a036e17,69b95efdef24cd8a694e89ee,69b9601465e6f35f8f497715,0.083,0.083,0,145,145,88,1,fivesix,,,,,,,,,,,,,,,,,,,,,,,,,,,,,,,,,,,,,,,,,,,,,,,,,,,,,,,,,,,,,,,,,,,,,,,,,,,,,,,,,,,,,,,,,,,,,,,,,,,,,,,,,,,,,,,,,,,,,,,,,,,,,,,,,,,,,,,,,
,,6982e022072cf2f69a036e17,2026-03-17_17h08.40.084,kallum_motion_pilot_GIST_update_2,2026.1.1,Win32,74.62686567,6982e022072cf2f69a036e17,69b95efdef24cd8a694e89ee,69b9601465e6f35f8f497715,0.083,0.083,0,146,146,129,1,fiveseven,,,,,,,,,,,,,,,,,,,,,,,,,,,,,,,,,,,,,,,,,,,,,,,,,,,,,,,,,,,,,,,,,,,,,,,,,,,,,,,,,,,,,,,,,,,,,,,,,,,,,,,,,,,,,,,,,,,,,,,,,,,,,,,,,,,,,,,,,
,,6982e022072cf2f69a036e17,2026-03-17_17h08.40.084,kallum_motion_pilot_GIST_update_2,2026.1.1,Win32,74.62686567,6982e022072cf2f69a036e17,69b95efdef24cd8a694e89ee,69b9601465e6f35f8f497715,0.084,0.084,0,147,147,45,1,threefour,,,,,,,,,,,,,,,,,,,,,,,,,,,,,,,,,,,,,,,,,,,,,,,,,,,,,,,,,,,,,,,,,,,,,,,,,,,,,,,,,,,,,,,,,,,,,,,,,,,,,,,,,,,,,,,,,,,,,,,,,,,,,,,,,,,,,,,,,
,,6982e022072cf2f69a036e17,2026-03-17_17h08.40.084,kallum_motion_pilot_GIST_update_2,2026.1.1,Win32,74.62686567,6982e022072cf2f69a036e17,69b95efdef24cd8a694e89ee,69b9601465e6f35f8f497715,0.085,0.085,0,148,148,66,1,twoone,,,,,,,,,,,,,,,,,,,,,,,,,,,,,,,,,,,,,,,,,,,,,,,,,,,,,,,,,,,,,,,,,,,,,,,,,,,,,,,,,,,,,,,,,,,,,,,,,,,,,,,,,,,,,,,,,,,,,,,,,,,,,,,,,,,,,,,,,
,,6982e022072cf2f69a036e17,2026-03-17_17h08.40.084,kallum_motion_pilot_GIST_update_2,2026.1.1,Win32,74.62686567,6982e022072cf2f69a036e17,69b95efdef24cd8a694e89ee,69b9601465e6f35f8f497715,0.085,0.085,0,149,149,135,1,eightseven,,,,,,,,,,,,,,,,,,,,,,,,,,,,,,,,,,,,,,,,,,,,,,,,,,,,,,,,,,,,,,,,,,,,,,,,,,,,,,,,,,,,,,,,,,,,,,,,,,,,,,,,,,,,,,,,,,,,,,,,,,,,,,,,,,,,,,,,,
,,6982e022072cf2f69a036e17,2026-03-17_17h08.40.084,kallum_motion_pilot_GIST_update_2,2026.1.1,Win32,74.62686567,6982e022072cf2f69a036e17,69b95efdef24cd8a694e89ee,69b9601465e6f35f8f497715,0.085,0.085,0,150,150,11,1,twofour,,,,,,,,,,,,,,,,,,,,,,,,,,,,,,,,,,,,,,,,,,,,,,,,,,,,,,,,,,,,,,,,,,,,,,,,,,,,,,,,,,,,,,,,,,,,,,,,,,,,,,,,,,,,,,,,,,,,,,,,,,,,,,,,,,,,,,,,,
,,6982e022072cf2f69a036e17,2026-03-17_17h08.40.084,kallum_motion_pilot_GIST_update_2,2026.1.1,Win32,74.62686567,6982e022072cf2f69a036e17,69b95efdef24cd8a694e89ee,69b9601465e6f35f8f497715,0.086,0.086,0,151,151,72,1,onetwo,,,,,,,,,,,,,,,,,,,,,,,,,,,,,,,,,,,,,,,,,,,,,,,,,,,,,,,,,,,,,,,,,,,,,,,,,,,,,,,,,,,,,,,,,,,,,,,,,,,,,,,,,,,,,,,,,,,,,,,,,,,,,,,,,,,,,,,,,
,,6982e022072cf2f69a036e17,2026-03-17_17h08.40.084,kallum_motion_pilot_GIST_update_2,2026.1.1,Win32,74.62686567,6982e022072cf2f69a036e17,69b95efdef24cd8a694e89ee,69b9601465e6f35f8f497715,0.086,0.086,0,152,152,160,1,fivesix,,,,,,,,,,,,,,,,,,,,,,,,,,,,,,,,,,,,,,,,,,,,,,,,,,,,,,,,,,,,,,,,,,,,,,,,,,,,,,,,,,,,,,,,,,,,,,,,,,,,,,,,,,,,,,,,,,,,,,,,,,,,,,,,,,,,,,,,,
,,6982e022072cf2f69a036e17,2026-03-17_17h08.40.084,kallum_motion_pilot_GIST_update_2,2026.1.1,Win32,74.62686567,6982e022072cf2f69a036e17,69b95efdef24cd8a694e89ee,69b9601465e6f35f8f497715,0.086,0.086,0,153,153,47,1,fourthree,,,,,,,,,,,,,,,,,,,,,,,,,,,,,,,,,,,,,,,,,,,,,,,,,,,,,,,,,,,,,,,,,,,,,,,,,,,,,,,,,,,,,,,,,,,,,,,,,,,,,,,,,,,,,,,,,,,,,,,,,,,,,,,,,,,,,,,,,
,,6982e022072cf2f69a036e17,2026-03-17_17h08.40.084,kallum_motion_pilot_GIST_update_2,2026.1.1,Win32,74.62686567,6982e022072cf2f69a036e17,69b95efdef24cd8a694e89ee,69b9601465e6f35f8f497715,0.086,0.086,0,154,154,43,1,twofour,,,,,,,,,,,,,,,,,,,,,,,,,,,,,,,,,,,,,,,,,,,,,,,,,,,,,,,,,,,,,,,,,,,,,,,,,,,,,,,,,,,,,,,,,,,,,,,,,,,,,,,,,,,,,,,,,,,,,,,,,,,,,,,,,,,,,,,,,
,,6982e022072cf2f69a036e17,2026-03-17_17h08.40.084,kallum_motion_pilot_GIST_update_2,2026.1.1,Win32,74.62686567,6982e022072cf2f69a036e17,69b95efdef24cd8a694e89ee,69b9601465e6f35f8f497715,0.087,0.087,0,155,155,133,1,seveneight,,,,,,,,,,,,,,,,,,,,,,,,,,,,,,,,,,,,,,,,,,,,,,,,,,,,,,,,,,,,,,,,,,,,,,,,,,,,,,,,,,,,,,,,,,,,,,,,,,,,,,,,,,,,,,,,,,,,,,,,,,,,,,,,,,,,,,,,,
,,6982e022072cf2f69a036e17,2026-03-17_17h08.40.084,kallum_motion_pilot_GIST_update_2,2026.1.1,Win32,74.62686567,6982e022072cf2f69a036e17,69b95efdef24cd8a694e89ee,69b9601465e6f35f8f497715,0.087,0.087,0,156,156,152,1,fivesix,,,,,,,,,,,,,,,,,,,,,,,,,,,,,,,,,,,,,,,,,,,,,,,,,,,,,,,,,,,,,,,,,,,,,,,,,,,,,,,,,,,,,,,,,,,,,,,,,,,,,,,,,,,,,,,,,,,,,,,,,,,,,,,,,,,,,,,,,
,,6982e022072cf2f69a036e17,2026-03-17_17h08.40.084,kallum_motion_pilot_GIST_update_2,2026.1.1,Win32,74.62686567,6982e022072cf2f69a036e17,69b95efdef24cd8a694e89ee,69b9601465e6f35f8f497715,0.088,0.088,0,157,157,146,1,sixfive,,,,,,,,,,,,,,,,,,,,,,,,,,,,,,,,,,,,,,,,,,,,,,,,,,,,,,,,,,,,,,,,,,,,,,,,,,,,,,,,,,,,,,,,,,,,,,,,,,,,,,,,,,,,,,,,,,,,,,,,,,,,,,,,,,,,,,,,,
,,6982e022072cf2f69a036e17,2026-03-17_17h08.40.084,kallum_motion_pilot_GIST_update_2,2026.1.1,Win32,74.62686567,6982e022072cf2f69a036e17,69b95efdef24cd8a694e89ee,69b9601465e6f35f8f497715,0.088,0.088,0,158,158,27,1,twofour,,,,,,,,,,,,,,,,,,,,,,,,,,,,,,,,,,,,,,,,,,,,,,,,,,,,,,,,,,,,,,,,,,,,,,,,,,,,,,,,,,,,,,,,,,,,,,,,,,,,,,,,,,,,,,,,,,,,,,,,,,,,,,,,,,,,,,,,,
,,6982e022072cf2f69a036e17,2026-03-17_17h08.40.084,kallum_motion_pilot_GIST_update_2,2026.1.1,Win32,74.62686567,6982e022072cf2f69a036e17,69b95efdef24cd8a694e89ee,69b9601465e6f35f8f497715,0.088,0.088,0,159,159,107,1,sixeight,,,,,,,,,,,,,,,,,,,,,,,,,,,,,,,,,,,,,,,,,,,,,,,,,,,,,,,,,,,,,,,,,,,,,,,,,,,,,,,,,,,,,,,,,,,,,,,,,,,,,,,,,,,,,,,,,,,,,,,,,,,,,,,,,,,,,,,,,
,,6982e022072cf2f69a036e17,2026-03-17_17h08.40.084,kallum_motion_pilot_GIST_update_2,2026.1.1,Win32,74.62686567,6982e022072cf2f69a036e17,69b95efdef24cd8a694e89ee,69b9601465e6f35f8f497715,0.089,0.089,0,160,160,153,1,fiveseven,,,,,,,,,,,,,,,,,,,,,,,,,,,,,,,,,,,,,,,,,,,,,,,,,,,,,,,,,,,,,,,,,,,,,,,,,,,,,,,,,,,,,,,,,,,,,,,,,,,,,,,,,,,,,,,,,,,,,,,,,,,,,,,,,,,,,,,,,
,,6982e022072cf2f69a036e17,2026-03-17_17h08.40.084,kallum_motion_pilot_GIST_update_2,2026.1.1,Win32,74.62686567,6982e022072cf2f69a036e17,69b95efdef24cd8a694e89ee,69b9601465e6f35f8f497715,0.089,0.089,0,161,161,148,1,sevenfive,,,,,,,,,,,,,,,,,,,,,,,,,,,,,,,,,,,,,,,,,,,,,,,,,,,,,,,,,,,,,,,,,,,,,,,,,,,,,,,,,,,,,,,,,,,,,,,,,,,,,,,,,,,,,,,,,,,,,,,,,,,,,,,,,,,,,,,,,
,,6982e022072cf2f69a036e17,2026-03-17_17h08.40.084,kallum_motion_pilot_GIST_update_2,2026.1.1,Win32,74.62686567,6982e022072cf2f69a036e17,69b95efdef24cd8a694e89ee,69b9601465e6f35f8f497715,0.089,0.089,1,0,162,85,1,seveneight,,,,,,,,,,,,,,,,,,,,,,,,,,,,,,,,,,,,,,,,,,,,,,,,,,,,,,,,,,,,,,,,,,,,,,,,,,,,,,,,,,,,,,,,,,,,,,,,,,,,,,,,,,,,,,,,,,,,,,,,,,,,,,,,,,,,,,,,,
,,6982e022072cf2f69a036e17,2026-03-17_17h08.40.084,kallum_motion_pilot_GIST_update_2,2026.1.1,Win32,74.62686567,6982e022072cf2f69a036e17,69b95efdef24cd8a694e89ee,69b9601465e6f35f8f497715,0.09,0.09,1,1,163,10,1,twoone,,,,,,,,,,,,,,,,,,,,,,,,,,,,,,,,,,,,,,,,,,,,,,,,,,,,,,,,,,,,,,,,,,,,,,,,,,,,,,,,,,,,,,,,,,,,,,,,,,,,,,,,,,,,,,,,,,,,,,,,,,,,,,,,,,,,,,,,,
,,6982e022072cf2f69a036e17,2026-03-17_17h08.40.084,kallum_motion_pilot_GIST_update_2,2026.1.1,Win32,74.62686567,6982e022072cf2f69a036e17,69b95efdef24cd8a694e89ee,69b9601465e6f35f8f497715,0.09,0.09,1,2,164,98,1,sixfive,,,,,,,,,,,,,,,,,,,,,,,,,,,,,,,,,,,,,,,,,,,,,,,,,,,,,,,,,,,,,,,,,,,,,,,,,,,,,,,,,,,,,,,,,,,,,,,,,,,,,,,,,,,,,,,,,,,,,,,,,,,,,,,,,,,,,,,,,
,,6982e022072cf2f69a036e17,2026-03-17_17h08.40.084,kallum_motion_pilot_GIST_update_2,2026.1.1,Win32,74.62686567,6982e022072cf2f69a036e17,69b95efdef24cd8a694e89ee,69b9601465e6f35f8f497715,0.09,0.09,1,3,165,87,1,eightseven,,,,,,,,,,,,,,,,,,,,,,,,,,,,,,,,,,,,,,,,,,,,,,,,,,,,,,,,,,,,,,,,,,,,,,,,,,,,,,,,,,,,,,,,,,,,,,,,,,,,,,,,,,,,,,,,,,,,,,,,,,,,,,,,,,,,,,,,,
,,6982e022072cf2f69a036e17,2026-03-17_17h08.40.084,kallum_motion_pilot_GIST_update_2,2026.1.1,Win32,74.62686567,6982e022072cf2f69a036e17,69b95efdef24cd8a694e89ee,69b9601465e6f35f8f497715,0.09,0.09,1,4,166,112,1,fivesix,,,,,,,,,,,,,,,,,,,,,,,,,,,,,,,,,,,,,,,,,,,,,,,,,,,,,,,,,,,,,,,,,,,,,,,,,,,,,,,,,,,,,,,,,,,,,,,,,,,,,,,,,,,,,,,,,,,,,,,,,,,,,,,,,,,,,,,,,
,,6982e022072cf2f69a036e17,2026-03-17_17h08.40.084,kallum_motion_pilot_GIST_update_2,2026.1.1,Win32,74.62686567,6982e022072cf2f69a036e17,69b95efdef24cd8a694e89ee,69b9601465e6f35f8f497715,0.091,0.091,1,5,167,119,1,eightseven,,,,,,,,,,,,,,,,,,,,,,,,,,,,,,,,,,,,,,,,,,,,,,,,,,,,,,,,,,,,,,,,,,,,,,,,,,,,,,,,,,,,,,,,,,,,,,,,,,,,,,,,,,,,,,,,,,,,,,,,,,,,,,,,,,,,,,,,,
,,6982e022072cf2f69a036e17,2026-03-17_17h08.40.084,kallum_motion_pilot_GIST_update_2,2026.1.1,Win32,74.62686567,6982e022072cf2f69a036e17,69b95efdef24cd8a694e89ee,69b9601465e6f35f8f497715,0.091,0.091,1,6,168,4,1,threeone,,,,,,,,,,,,,,,,,,,,,,,,,,,,,,,,,,,,,,,,,,,,,,,,,,,,,,,,,,,,,,,,,,,,,,,,,,,,,,,,,,,,,,,,,,,,,,,,,,,,,,,,,,,,,,,,,,,,,,,,,,,,,,,,,,,,,,,,,
,,6982e022072cf2f69a036e17,2026-03-17_17h08.40.084,kallum_motion_pilot_GIST_update_2,2026.1.1,Win32,74.62686567,6982e022072cf2f69a036e17,69b95efdef24cd8a694e89ee,69b9601465e6f35f8f497715,0.091,0.091,1,7,169,148,1,sevenfive,,,,,,,,,,,,,,,,,,,,,,,,,,,,,,,,,,,,,,,,,,,,,,,,,,,,,,,,,,,,,,,,,,,,,,,,,,,,,,,,,,,,,,,,,,,,,,,,,,,,,,,,,,,,,,,,,,,,,,,,,,,,,,,,,,,,,,,,,
,,6982e022072cf2f69a036e17,2026-03-17_17h08.40.084,kallum_motion_pilot_GIST_update_2,2026.1.1,Win32,74.62686567,6982e022072cf2f69a036e17,69b95efdef24cd8a694e89ee,69b9601465e6f35f8f497715,0.091,0.091,1,8,170,69,1,threefour,,,,,,,,,,,,,,,,,,,,,,,,,,,,,,,,,,,,,,,,,,,,,,,,,,,,,,,,,,,,,,,,,,,,,,,,,,,,,,,,,,,,,,,,,,,,,,,,,,,,,,,,,,,,,,,,,,,,,,,,,,,,,,,,,,,,,,,,,
,,6982e022072cf2f69a036e17,2026-03-17_17h08.40.084,kallum_motion_pilot_GIST_update_2,2026.1.1,Win32,74.62686567,6982e022072cf2f69a036e17,69b95efdef24cd8a694e89ee,69b9601465e6f35f8f497715,0.092,0.092,1,9,171,107,1,sixeight,,,,,,,,,,,,,,,,,,,,,,,,,,,,,,,,,,,,,,,,,,,,,,,,,,,,,,,,,,,,,,,,,,,,,,,,,,,,,,,,,,,,,,,,,,,,,,,,,,,,,,,,,,,,,,,,,,,,,,,,,,,,,,,,,,,,,,,,,
,,6982e022072cf2f69a036e17,2026-03-17_17h08.40.084,kallum_motion_pilot_GIST_update_2,2026.1.1,Win32,74.62686567,6982e022072cf2f69a036e17,69b95efdef24cd8a694e89ee,69b9601465e6f35f8f497715,0.092,0.092,1,10,172,29,1,threefour,,,,,,,,,,,,,,,,,,,,,,,,,,,,,,,,,,,,,,,,,,,,,,,,,,,,,,,,,,,,,,,,,,,,,,,,,,,,,,,,,,,,,,,,,,,,,,,,,,,,,,,,,,,,,,,,,,,,,,,,,,,,,,,,,,,,,,,,,
,,6982e022072cf2f69a036e17,2026-03-17_17h08.40.084,kallum_motion_pilot_GIST_update_2,2026.1.1,Win32,74.62686567,6982e022072cf2f69a036e17,69b95efdef24cd8a694e89ee,69b9601465e6f35f8f497715,0.092,0.092,1,11,173,33,1,onethree,,,,,,,,,,,,,,,,,,,,,,,,,,,,,,,,,,,,,,,,,,,,,,,,,,,,,,,,,,,,,,,,,,,,,,,,,,,,,,,,,,,,,,,,,,,,,,,,,,,,,,,,,,,,,,,,,,,,,,,,,,,,,,,,,,,,,,,,,
,,6982e022072cf2f69a036e17,2026-03-17_17h08.40.084,kallum_motion_pilot_GIST_update_2,2026.1.1,Win32,74.62686567,6982e022072cf2f69a036e17,69b95efdef24cd8a694e89ee,69b9601465e6f35f8f497715,0.093,0.093,1,12,174,141,1,seveneight,,,,,,,,,,,,,,,,,,,,,,,,,,,,,,,,,,,,,,,,,,,,,,,,,,,,,,,,,,,,,,,,,,,,,,,,,,,,,,,,,,,,,,,,,,,,,,,,,,,,,,,,,,,,,,,,,,,,,,,,,,,,,,,,,,,,,,,,,
,,6982e022072cf2f69a036e17,2026-03-17_17h08.40.084,kallum_motion_pilot_GIST_update_2,2026.1.1,Win32,74.62686567,6982e022072cf2f69a036e17,69b95efdef24cd8a694e89ee,69b9601465e6f35f8f497715,0.093,0.093,1,13,175,62,1,fourtwo,,,,,,,,,,,,,,,,,,,,,,,,,,,,,,,,,,,,,,,,,,,,,,,,,,,,,,,,,,,,,,,,,,,,,,,,,,,,,,,,,,,,,,,,,,,,,,,,,,,,,,,,,,,,,,,,,,,,,,,,,,,,,,,,,,,,,,,,,
,,6982e022072cf2f69a036e17,2026-03-17_17h08.40.084,kallum_motion_pilot_GIST_update_2,2026.1.1,Win32,74.62686567,6982e022072cf2f69a036e17,69b95efdef24cd8a694e89ee,69b9601465e6f35f8f497715,0.093,0.093,1,14,176,22,1,fourtwo,,,,,,,,,,,,,,,,,,,,,,,,,,,,,,,,,,,,,,,,,,,,,,,,,,,,,,,,,,,,,,,,,,,,,,,,,,,,,,,,,,,,,,,,,,,,,,,,,,,,,,,,,,,,,,,,,,,,,,,,,,,,,,,,,,,,,,,,,
,,6982e022072cf2f69a036e17,2026-03-17_17h08.40.084,kallum_motion_pilot_GIST_update_2,2026.1.1,Win32,74.62686567,6982e022072cf2f69a036e17,69b95efdef24cd8a694e89ee,69b9601465e6f35f8f497715,0.093,0.093,1,15,177,63,1,fourthree,,,,,,,,,,,,,,,,,,,,,,,,,,,,,,,,,,,,,,,,,,,,,,,,,,,,,,,,,,,,,,,,,,,,,,,,,,,,,,,,,,,,,,,,,,,,,,,,,,,,,,,,,,,,,,,,,,,,,,,,,,,,,,,,,,,,,,,,,
,,6982e022072cf2f69a036e17,2026-03-17_17h08.40.084,kallum_motion_pilot_GIST_update_2,2026.1.1,Win32,74.62686567,6982e022072cf2f69a036e17,69b95efdef24cd8a694e89ee,69b9601465e6f35f8f497715,0.094,0.094,1,16,178,8,1,onetwo,,,,,,,,,,,,,,,,,,,,,,,,,,,,,,,,,,,,,,,,,,,,,,,,,,,,,,,,,,,,,,,,,,,,,,,,,,,,,,,,,,,,,,,,,,,,,,,,,,,,,,,,,,,,,,,,,,,,,,,,,,,,,,,,,,,,,,,,,
,,6982e022072cf2f69a036e17,2026-03-17_17h08.40.084,kallum_motion_pilot_GIST_update_2,2026.1.1,Win32,74.62686567,6982e022072cf2f69a036e17,69b95efdef24cd8a694e89ee,69b9601465e6f35f8f497715,0.094,0.094,1,17,179,57,1,onethree,,,,,,,,,,,,,,,,,,,,,,,,,,,,,,,,,,,,,,,,,,,,,,,,,,,,,,,,,,,,,,,,,,,,,,,,,,,,,,,,,,,,,,,,,,,,,,,,,,,,,,,,,,,,,,,,,,,,,,,,,,,,,,,,,,,,,,,,,
,,6982e022072cf2f69a036e17,2026-03-17_17h08.40.084,kallum_motion_pilot_GIST_update_2,2026.1.1,Win32,74.62686567,6982e022072cf2f69a036e17,69b95efdef24cd8a694e89ee,69b9601465e6f35f8f497715,0.094,0.094,1,18,180,67,1,twofour,,,,,,,,,,,,,,,,,,,,,,,,,,,,,,,,,,,,,,,,,,,,,,,,,,,,,,,,,,,,,,,,,,,,,,,,,,,,,,,,,,,,,,,,,,,,,,,,,,,,,,,,,,,,,,,,,,,,,,,,,,,,,,,,,,,,,,,,,
,,6982e022072cf2f69a036e17,2026-03-17_17h08.40.084,kallum_motion_pilot_GIST_update_2,2026.1.1,Win32,74.62686567,6982e022072cf2f69a036e17,69b95efdef24cd8a694e89ee,69b9601465e6f35f8f497715,0.095,0.095,1,19,181,65,1,onethree,,,,,,,,,,,,,,,,,,,,,,,,,,,,,,,,,,,,,,,,,,,,,,,,,,,,,,,,,,,,,,,,,,,,,,,,,,,,,,,,,,,,,,,,,,,,,,,,,,,,,,,,,,,,,,,,,,,,,,,,,,,,,,,,,,,,,,,,,
,,6982e022072cf2f69a036e17,2026-03-17_17h08.40.084,kallum_motion_pilot_GIST_update_2,2026.1.1,Win32,74.62686567,6982e022072cf2f69a036e17,69b95efdef24cd8a694e89ee,69b9601465e6f35f8f497715,0.095,0.095,1,20,182,32,1,onetwo,,,,,,,,,,,,,,,,,,,,,,,,,,,,,,,,,,,,,,,,,,,,,,,,,,,,,,,,,,,,,,,,,,,,,,,,,,,,,,,,,,,,,,,,,,,,,,,,,,,,,,,,,,,,,,,,,,,,,,,,,,,,,,,,,,,,,,,,,
,,6982e022072cf2f69a036e17,2026-03-17_17h08.40.084,kallum_motion_pilot_GIST_update_2,2026.1.1,Win32,74.62686567,6982e022072cf2f69a036e17,69b95efdef24cd8a694e89ee,69b9601465e6f35f8f497715,0.095,0.095,1,21,183,48,1,onetwo,,,,,,,,,,,,,,,,,,,,,,,,,,,,,,,,,,,,,,,,,,,,,,,,,,,,,,,,,,,,,,,,,,,,,,,,,,,,,,,,,,,,,,,,,,,,,,,,,,,,,,,,,,,,,,,,,,,,,,,,,,,,,,,,,,,,,,,,,
,,6982e022072cf2f69a036e17,2026-03-17_17h08.40.084,kallum_motion_pilot_GIST_update_2,2026.1.1,Win32,74.62686567,6982e022072cf2f69a036e17,69b95efdef24cd8a694e89ee,69b9601465e6f35f8f497715,0.095,0.095,1,22,184,122,1,sixfive,,,,,,,,,,,,,,,,,,,,,,,,,,,,,,,,,,,,,,,,,,,,,,,,,,,,,,,,,,,,,,,,,,,,,,,,,,,,,,,,,,,,,,,,,,,,,,,,,,,,,,,,,,,,,,,,,,,,,,,,,,,,,,,,,,,,,,,,,
,,6982e022072cf2f69a036e17,2026-03-17_17h08.40.084,kallum_motion_pilot_GIST_update_2,2026.1.1,Win32,74.62686567,6982e022072cf2f69a036e17,69b95efdef24cd8a694e89ee,69b9601465e6f35f8f497715,0.096,0.096,1,23,185,35,1,twofour,,,,,,,,,,,,,,,,,,,,,,,,,,,,,,,,,,,,,,,,,,,,,,,,,,,,,,,,,,,,,,,,,,,,,,,,,,,,,,,,,,,,,,,,,,,,,,,,,,,,,,,,,,,,,,,,,,,,,,,,,,,,,,,,,,,,,,,,,
,,6982e022072cf2f69a036e17,2026-03-17_17h08.40.084,kallum_motion_pilot_GIST_update_2,2026.1.1,Win32,74.62686567,6982e022072cf2f69a036e17,69b95efdef24cd8a694e89ee,69b9601465e6f35f8f497715,0.096,0.096,1,24,186,115,1,sixeight,,,,,,,,,,,,,,,,,,,,,,,,,,,,,,,,,,,,,,,,,,,,,,,,,,,,,,,,,,,,,,,,,,,,,,,,,,,,,,,,,,,,,,,,,,,,,,,,,,,,,,,,,,,,,,,,,,,,,,,,,,,,,,,,,,,,,,,,,
,,6982e022072cf2f69a036e17,2026-03-17_17h08.40.084,kallum_motion_pilot_GIST_update_2,2026.1.1,Win32,74.62686567,6982e022072cf2f69a036e17,69b95efdef24cd8a694e89ee,69b9601465e6f35f8f497715,0.097,0.097,1,25,187,139,1,sixeight,,,,,,,,,,,,,,,,,,,,,,,,,,,,,,,,,,,,,,,,,,,,,,,,,,,,,,,,,,,,,,,,,,,,,,,,,,,,,,,,,,,,,,,,,,,,,,,,,,,,,,,,,,,,,,,,,,,,,,,,,,,,,,,,,,,,,,,,,
,,6982e022072cf2f69a036e17,2026-03-17_17h08.40.084,kallum_motion_pilot_GIST_update_2,2026.1.1,Win32,74.62686567,6982e022072cf2f69a036e17,69b95efdef24cd8a694e89ee,69b9601465e6f35f8f497715,0.097,0.097,1,26,188,134,1,eightsix,,,,,,,,,,,,,,,,,,,,,,,,,,,,,,,,,,,,,,,,,,,,,,,,,,,,,,,,,,,,,,,,,,,,,,,,,,,,,,,,,,,,,,,,,,,,,,,,,,,,,,,,,,,,,,,,,,,,,,,,,,,,,,,,,,,,,,,,,
,,6982e022072cf2f69a036e17,2026-03-17_17h08.40.084,kallum_motion_pilot_GIST_update_2,2026.1.1,Win32,74.62686567,6982e022072cf2f69a036e17,69b95efdef24cd8a694e89ee,69b9601465e6f35f8f497715,0.098,0.098,1,27,189,26,1,twoone,,,,,,,,,,,,,,,,,,,,,,,,,,,,,,,,,,,,,,,,,,,,,,,,,,,,,,,,,,,,,,,,,,,,,,,,,,,,,,,,,,,,,,,,,,,,,,,,,,,,,,,,,,,,,,,,,,,,,,,,,,,,,,,,,,,,,,,,,
,,6982e022072cf2f69a036e17,2026-03-17_17h08.40.084,kallum_motion_pilot_GIST_update_2,2026.1.1,Win32,74.62686567,6982e022072cf2f69a036e17,69b95efdef24cd8a694e89ee,69b9601465e6f35f8f497715,0.098,0.098,1,28,190,13,1,threefour,,,,,,,,,,,,,,,,,,,,,,,,,,,,,,,,,,,,,,,,,,,,,,,,,,,,,,,,,,,,,,,,,,,,,,,,,,,,,,,,,,,,,,,,,,,,,,,,,,,,,,,,,,,,,,,,,,,,,,,,,,,,,,,,,,,,,,,,,
,,6982e022072cf2f69a036e17,2026-03-17_17h08.40.084,kallum_motion_pilot_GIST_update_2,2026.1.1,Win32,74.62686567,6982e022072cf2f69a036e17,69b95efdef24cd8a694e89ee,69b9601465e6f35f8f497715,0.098,0.098,1,29,191,71,1,fourthree,,,,,,,,,,,,,,,,,,,,,,,,,,,,,,,,,,,,,,,,,,,,,,,,,,,,,,,,,,,,,,,,,,,,,,,,,,,,,,,,,,,,,,,,,,,,,,,,,,,,,,,,,,,,,,,,,,,,,,,,,,,,,,,,,,,,,,,,,
,,6982e022072cf2f69a036e17,2026-03-17_17h08.40.084,kallum_motion_pilot_GIST_update_2,2026.1.1,Win32,74.62686567,6982e022072cf2f69a036e17,69b95efdef24cd8a694e89ee,69b9601465e6f35f8f497715,0.099,0.099,1,30,192,154,1,sixfive,,,,,,,,,,,,,,,,,,,,,,,,,,,,,,,,,,,,,,,,,,,,,,,,,,,,,,,,,,,,,,,,,,,,,,,,,,,,,,,,,,,,,,,,,,,,,,,,,,,,,,,,,,,,,,,,,,,,,,,,,,,,,,,,,,,,,,,,,
,,6982e022072cf2f69a036e17,2026-03-17_17h08.40.084,kallum_motion_pilot_GIST_update_2,2026.1.1,Win32,74.62686567,6982e022072cf2f69a036e17,69b95efdef24cd8a694e89ee,69b9601465e6f35f8f497715,0.099,0.099,1,31,193,38,1,fourtwo,,,,,,,,,,,,,,,,,,,,,,,,,,,,,,,,,,,,,,,,,,,,,,,,,,,,,,,,,,,,,,,,,,,,,,,,,,,,,,,,,,,,,,,,,,,,,,,,,,,,,,,,,,,,,,,,,,,,,,,,,,,,,,,,,,,,,,,,,
,,6982e022072cf2f69a036e17,2026-03-17_17h08.40.084,kallum_motion_pilot_GIST_update_2,2026.1.1,Win32,74.62686567,6982e022072cf2f69a036e17,69b95efdef24cd8a694e89ee,69b9601465e6f35f8f497715,0.1,0.1,1,32,194,105,1,fiveseven,,,,,,,,,,,,,,,,,,,,,,,,,,,,,,,,,,,,,,,,,,,,,,,,,,,,,,,,,,,,,,,,,,,,,,,,,,,,,,,,,,,,,,,,,,,,,,,,,,,,,,,,,,,,,,,,,,,,,,,,,,,,,,,,,,,,,,,,,
,,6982e022072cf2f69a036e17,2026-03-17_17h08.40.084,kallum_motion_pilot_GIST_update_2,2026.1.1,Win32,74.62686567,6982e022072cf2f69a036e17,69b95efdef24cd8a694e89ee,69b9601465e6f35f8f497715,0.1,0.1,1,33,195,99,1,sixeight,,,,,,,,,,,,,,,,,,,,,,,,,,,,,,,,,,,,,,,,,,,,,,,,,,,,,,,,,,,,,,,,,,,,,,,,,,,,,,,,,,,,,,,,,,,,,,,,,,,,,,,,,,,,,,,,,,,,,,,,,,,,,,,,,,,,,,,,,
,,6982e022072cf2f69a036e17,2026-03-17_17h08.40.084,kallum_motion_pilot_GIST_update_2,2026.1.1,Win32,74.62686567,6982e022072cf2f69a036e17,69b95efdef24cd8a694e89ee,69b9601465e6f35f8f497715,0.1,0.1,1,34,196,86,1,eightsix,,,,,,,,,,,,,,,,,,,,,,,,,,,,,,,,,,,,,,,,,,,,,,,,,,,,,,,,,,,,,,,,,,,,,,,,,,,,,,,,,,,,,,,,,,,,,,,,,,,,,,,,,,,,,,,,,,,,,,,,,,,,,,,,,,,,,,,,,
,,6982e022072cf2f69a036e17,2026-03-17_17h08.40.084,kallum_motion_pilot_GIST_update_2,2026.1.1,Win32,74.62686567,6982e022072cf2f69a036e17,69b95efdef24cd8a694e89ee,69b9601465e6f35f8f497715,0.1,0.101,1,35,197,125,1,seveneight,,,,,,,,,,,,,,,,,,,,,,,,,,,,,,,,,,,,,,,,,,,,,,,,,,,,,,,,,,,,,,,,,,,,,,,,,,,,,,,,,,,,,,,,,,,,,,,,,,,,,,,,,,,,,,,,,,,,,,,,,,,,,,,,,,,,,,,,,
,,6982e022072cf2f69a036e17,2026-03-17_17h08.40.084,kallum_motion_pilot_GIST_update_2,2026.1.1,Win32,74.62686567,6982e022072cf2f69a036e17,69b95efdef24cd8a694e89ee,69b9601465e6f35f8f497715,0.101,0.101,1,36,198,90,1,sixfive,,,,,,,,,,,,,,,,,,,,,,,,,,,,,,,,,,,,,,,,,,,,,,,,,,,,,,,,,,,,,,,,,,,,,,,,,,,,,,,,,,,,,,,,,,,,,,,,,,,,,,,,,,,,,,,,,,,,,,,,,,,,,,,,,,,,,,,,,
,,6982e022072cf2f69a036e17,2026-03-17_17h08.40.084,kallum_motion_pilot_GIST_update_2,2026.1.1,Win32,74.62686567,6982e022072cf2f69a036e17,69b95efdef24cd8a694e89ee,69b9601465e6f35f8f497715,0.101,0.101,1,37,199,131,1,sixeight,,,,,,,,,,,,,,,,,,,,,,,,,,,,,,,,,,,,,,,,,,,,,,,,,,,,,,,,,,,,,,,,,,,,,,,,,,,,,,,,,,,,,,,,,,,,,,,,,,,,,,,,,,,,,,,,,,,,,,,,,,,,,,,,,,,,,,,,,
,,6982e022072cf2f69a036e17,2026-03-17_17h08.40.084,kallum_motion_pilot_GIST_update_2,2026.1.1,Win32,74.62686567,6982e022072cf2f69a036e17,69b95efdef24cd8a694e89ee,69b9601465e6f35f8f497715,0.101,0.101,1,38,200,70,1,fourtwo,,,,,,,,,,,,,,,,,,,,,,,,,,,,,,,,,,,,,,,,,,,,,,,,,,,,,,,,,,,,,,,,,,,,,,,,,,,,,,,,,,,,,,,,,,,,,,,,,,,,,,,,,,,,,,,,,,,,,,,,,,,,,,,,,,,,,,,,,
,,6982e022072cf2f69a036e17,2026-03-17_17h08.40.084,kallum_motion_pilot_GIST_update_2,2026.1.1,Win32,74.62686567,6982e022072cf2f69a036e17,69b95efdef24cd8a694e89ee,69b9601465e6f35f8f497715,0.102,0.102,1,39,201,60,1,threeone,,,,,,,,,,,,,,,,,,,,,,,,,,,,,,,,,,,,,,,,,,,,,,,,,,,,,,,,,,,,,,,,,,,,,,,,,,,,,,,,,,,,,,,,,,,,,,,,,,,,,,,,,,,,,,,,,,,,,,,,,,,,,,,,,,,,,,,,,
,,6982e022072cf2f69a036e17,2026-03-17_17h08.40.084,kallum_motion_pilot_GIST_update_2,2026.1.1,Win32,74.62686567,6982e022072cf2f69a036e17,69b95efdef24cd8a694e89ee,69b9601465e6f35f8f497715,0.102,0.102,1,40,202,83,1,sixeight,,,,,,,,,,,,,,,,,,,,,,,,,,,,,,,,,,,,,,,,,,,,,,,,,,,,,,,,,,,,,,,,,,,,,,,,,,,,,,,,,,,,,,,,,,,,,,,,,,,,,,,,,,,,,,,,,,,,,,,,,,,,,,,,,,,,,,,,,
,,6982e022072cf2f69a036e17,2026-03-17_17h08.40.084,kallum_motion_pilot_GIST_update_2,2026.1.1,Win32,74.62686567,6982e022072cf2f69a036e17,69b95efdef24cd8a694e89ee,69b9601465e6f35f8f497715,0.102,0.102,1,41,203,77,1,threefour,,,,,,,,,,,,,,,,,,,,,,,,,,,,,,,,,,,,,,,,,,,,,,,,,,,,,,,,,,,,,,,,,,,,,,,,,,,,,,,,,,,,,,,,,,,,,,,,,,,,,,,,,,,,,,,,,,,,,,,,,,,,,,,,,,,,,,,,,
,,6982e022072cf2f69a036e17,2026-03-17_17h08.40.084,kallum_motion_pilot_GIST_update_2,2026.1.1,Win32,74.62686567,6982e022072cf2f69a036e17,69b95efdef24cd8a694e89ee,69b9601465e6f35f8f497715,0.102,0.103,1,42,204,84,1,sevenfive,,,,,,,,,,,,,,,,,,,,,,,,,,,,,,,,,,,,,,,,,,,,,,,,,,,,,,,,,,,,,,,,,,,,,,,,,,,,,,,,,,,,,,,,,,,,,,,,,,,,,,,,,,,,,,,,,,,,,,,,,,,,,,,,,,,,,,,,,
,,6982e022072cf2f69a036e17,2026-03-17_17h08.40.084,kallum_motion_pilot_GIST_update_2,2026.1.1,Win32,74.62686567,6982e022072cf2f69a036e17,69b95efdef24cd8a694e89ee,69b9601465e6f35f8f497715,0.103,0.103,1,43,205,43,1,twofour,,,,,,,,,,,,,,,,,,,,,,,,,,,,,,,,,,,,,,,,,,,,,,,,,,,,,,,,,,,,,,,,,,,,,,,,,,,,,,,,,,,,,,,,,,,,,,,,,,,,,,,,,,,,,,,,,,,,,,,,,,,,,,,,,,,,,,,,,
,,6982e022072cf2f69a036e17,2026-03-17_17h08.40.084,kallum_motion_pilot_GIST_update_2,2026.1.1,Win32,74.62686567,6982e022072cf2f69a036e17,69b95efdef24cd8a694e89ee,69b9601465e6f35f8f497715,0.103,0.103,1,44,206,54,1,fourtwo,,,,,,,,,,,,,,,,,,,,,,,,,,,,,,,,,,,,,,,,,,,,,,,,,,,,,,,,,,,,,,,,,,,,,,,,,,,,,,,,,,,,,,,,,,,,,,,,,,,,,,,,,,,,,,,,,,,,,,,,,,,,,,,,,,,,,,,,,
,,6982e022072cf2f69a036e17,2026-03-17_17h08.40.084,kallum_motion_pilot_GIST_update_2,2026.1.1,Win32,74.62686567,6982e022072cf2f69a036e17,69b95efdef24cd8a694e89ee,69b9601465e6f35f8f497715,0.103,0.103,1,45,207,150,1,eightsix,,,,,,,,,,,,,,,,,,,,,,,,,,,,,,,,,,,,,,,,,,,,,,,,,,,,,,,,,,,,,,,,,,,,,,,,,,,,,,,,,,,,,,,,,,,,,,,,,,,,,,,,,,,,,,,,,,,,,,,,,,,,,,,,,,,,,,,,,
,,6982e022072cf2f69a036e17,2026-03-17_17h08.40.084,kallum_motion_pilot_GIST_update_2,2026.1.1,Win32,74.62686567,6982e022072cf2f69a036e17,69b95efdef24cd8a694e89ee,69b9601465e6f35f8f497715,0.104,0.104,1,46,208,128,1,fivesix,,,,,,,,,,,,,,,,,,,,,,,,,,,,,,,,,,,,,,,,,,,,,,,,,,,,,,,,,,,,,,,,,,,,,,,,,,,,,,,,,,,,,,,,,,,,,,,,,,,,,,,,,,,,,,,,,,,,,,,,,,,,,,,,,,,,,,,,,
,,6982e022072cf2f69a036e17,2026-03-17_17h08.40.084,kallum_motion_pilot_GIST_update_2,2026.1.1,Win32,74.62686567,6982e022072cf2f69a036e17,69b95efdef24cd8a694e89ee,69b9601465e6f35f8f497715,0.104,0.104,1,47,209,20,1,threeone,,,,,,,,,,,,,,,,,,,,,,,,,,,,,,,,,,,,,,,,,,,,,,,,,,,,,,,,,,,,,,,,,,,,,,,,,,,,,,,,,,,,,,,,,,,,,,,,,,,,,,,,,,,,,,,,,,,,,,,,,,,,,,,,,,,,,,,,,
,,6982e022072cf2f69a036e17,2026-03-17_17h08.40.084,kallum_motion_pilot_GIST_update_2,2026.1.1,Win32,74.62686567,6982e022072cf2f69a036e17,69b95efdef24cd8a694e89ee,69b9601465e6f35f8f497715,0.104,0.104,1,48,210,147,1,sixeight,,,,,,,,,,,,,,,,,,,,,,,,,,,,,,,,,,,,,,,,,,,,,,,,,,,,,,,,,,,,,,,,,,,,,,,,,,,,,,,,,,,,,,,,,,,,,,,,,,,,,,,,,,,,,,,,,,,,,,,,,,,,,,,,,,,,,,,,,
,,6982e022072cf2f69a036e17,2026-03-17_17h08.40.084,kallum_motion_pilot_GIST_update_2,2026.1.1,Win32,74.62686567,6982e022072cf2f69a036e17,69b95efdef24cd8a694e89ee,69b9601465e6f35f8f497715,0.105,0.105,1,49,211,96,1,fivesix,,,,,,,,,,,,,,,,,,,,,,,,,,,,,,,,,,,,,,,,,,,,,,,,,,,,,,,,,,,,,,,,,,,,,,,,,,,,,,,,,,,,,,,,,,,,,,,,,,,,,,,,,,,,,,,,,,,,,,,,,,,,,,,,,,,,,,,,,
,,6982e022072cf2f69a036e17,2026-03-17_17h08.40.084,kallum_motion_pilot_GIST_update_2,2026.1.1,Win32,74.62686567,6982e022072cf2f69a036e17,69b95efdef24cd8a694e89ee,69b9601465e6f35f8f497715,0.105,0.105,1,50,212,47,1,fourthree,,,,,,,,,,,,,,,,,,,,,,,,,,,,,,,,,,,,,,,,,,,,,,,,,,,,,,,,,,,,,,,,,,,,,,,,,,,,,,,,,,,,,,,,,,,,,,,,,,,,,,,,,,,,,,,,,,,,,,,,,,,,,,,,,,,,,,,,,
,,6982e022072cf2f69a036e17,2026-03-17_17h08.40.084,kallum_motion_pilot_GIST_update_2,2026.1.1,Win32,74.62686567,6982e022072cf2f69a036e17,69b95efdef24cd8a694e89ee,69b9601465e6f35f8f497715,0.105,0.105,1,51,213,88,1,fivesix,,,,,,,,,,,,,,,,,,,,,,,,,,,,,,,,,,,,,,,,,,,,,,,,,,,,,,,,,,,,,,,,,,,,,,,,,,,,,,,,,,,,,,,,,,,,,,,,,,,,,,,,,,,,,,,,,,,,,,,,,,,,,,,,,,,,,,,,,
,,6982e022072cf2f69a036e17,2026-03-17_17h08.40.084,kallum_motion_pilot_GIST_update_2,2026.1.1,Win32,74.62686567,6982e022072cf2f69a036e17,69b95efdef24cd8a694e89ee,69b9601465e6f35f8f497715,0.106,0.106,1,52,214,1,1,onethree,,,,,,,,,,,,,,,,,,,,,,,,,,,,,,,,,,,,,,,,,,,,,,,,,,,,,,,,,,,,,,,,,,,,,,,,,,,,,,,,,,,,,,,,,,,,,,,,,,,,,,,,,,,,,,,,,,,,,,,,,,,,,,,,,,,,,,,,,
,,6982e022072cf2f69a036e17,2026-03-17_17h08.40.084,kallum_motion_pilot_GIST_update_2,2026.1.1,Win32,74.62686567,6982e022072cf2f69a036e17,69b95efdef24cd8a694e89ee,69b9601465e6f35f8f497715,0.106,0.106,1,53,215,59,1,twofour,,,,,,,,,,,,,,,,,,,,,,,,,,,,,,,,,,,,,,,,,,,,,,,,,,,,,,,,,,,,,,,,,,,,,,,,,,,,,,,,,,,,,,,,,,,,,,,,,,,,,,,,,,,,,,,,,,,,,,,,,,,,,,,,,,,,,,,,,
,,6982e022072cf2f69a036e17,2026-03-17_17h08.40.084,kallum_motion_pilot_GIST_update_2,2026.1.1,Win32,74.62686567,6982e022072cf2f69a036e17,69b95efdef24cd8a694e89ee,69b9601465e6f35f8f497715,0.106,0.106,1,54,216,140,1,sevenfive,,,,,,,,,,,,,,,,,,,,,,,,,,,,,,,,,,,,,,,,,,,,,,,,,,,,,,,,,,,,,,,,,,,,,,,,,,,,,,,,,,,,,,,,,,,,,,,,,,,,,,,,,,,,,,,,,,,,,,,,,,,,,,,,,,,,,,,,,
,,6982e022072cf2f69a036e17,2026-03-17_17h08.40.084,kallum_motion_pilot_GIST_update_2,2026.1.1,Win32,74.62686567,6982e022072cf2f69a036e17,69b95efdef24cd8a694e89ee,69b9601465e6f35f8f497715,0.107,0.107,1,55,217,108,1,sevenfive,,,,,,,,,,,,,,,,,,,,,,,,,,,,,,,,,,,,,,,,,,,,,,,,,,,,,,,,,,,,,,,,,,,,,,,,,,,,,,,,,,,,,,,,,,,,,,,,,,,,,,,,,,,,,,,,,,,,,,,,,,,,,,,,,,,,,,,,,
,,6982e022072cf2f69a036e17,2026-03-17_17h08.40.084,kallum_motion_pilot_GIST_update_2,2026.1.1,Win32,74.62686567,6982e022072cf2f69a036e17,69b95efdef24cd8a694e89ee,69b9601465e6f35f8f497715,0.107,0.107,1,56,218,91,1,sixeight,,,,,,,,,,,,,,,,,,,,,,,,,,,,,,,,,,,,,,,,,,,,,,,,,,,,,,,,,,,,,,,,,,,,,,,,,,,,,,,,,,,,,,,,,,,,,,,,,,,,,,,,,,,,,,,,,,,,,,,,,,,,,,,,,,,,,,,,,
,,6982e022072cf2f69a036e17,2026-03-17_17h08.40.084,kallum_motion_pilot_GIST_update_2,2026.1.1,Win32,74.62686567,6982e022072cf2f69a036e17,69b95efdef24cd8a694e89ee,69b9601465e6f35f8f497715,0.107,0.107,1,57,219,160,1,fivesix,,,,,,,,,,,,,,,,,,,,,,,,,,,,,,,,,,,,,,,,,,,,,,,,,,,,,,,,,,,,,,,,,,,,,,,,,,,,,,,,,,,,,,,,,,,,,,,,,,,,,,,,,,,,,,,,,,,,,,,,,,,,,,,,,,,,,,,,,
,,6982e022072cf2f69a036e17,2026-03-17_17h08.40.084,kallum_motion_pilot_GIST_update_2,2026.1.1,Win32,74.62686567,6982e022072cf2f69a036e17,69b95efdef24cd8a694e89ee,69b9601465e6f35f8f497715,0.108,0.108,1,58,220,73,1,onethree,,,,,,,,,,,,,,,,,,,,,,,,,,,,,,,,,,,,,,,,,,,,,,,,,,,,,,,,,,,,,,,,,,,,,,,,,,,,,,,,,,,,,,,,,,,,,,,,,,,,,,,,,,,,,,,,,,,,,,,,,,,,,,,,,,,,,,,,,
,,6982e022072cf2f69a036e17,2026-03-17_17h08.40.084,kallum_motion_pilot_GIST_update_2,2026.1.1,Win32,74.62686567,6982e022072cf2f69a036e17,69b95efdef24cd8a694e89ee,69b9601465e6f35f8f497715,0.108,0.108,1,59,221,19,1,twofour,,,,,,,,,,,,,,,,,,,,,,,,,,,,,,,,,,,,,,,,,,,,,,,,,,,,,,,,,,,,,,,,,,,,,,,,,,,,,,,,,,,,,,,,,,,,,,,,,,,,,,,,,,,,,,,,,,,,,,,,,,,,,,,,,,,,,,,,,
,,6982e022072cf2f69a036e17,2026-03-17_17h08.40.084,kallum_motion_pilot_GIST_update_2,2026.1.1,Win32,74.62686567,6982e022072cf2f69a036e17,69b95efdef24cd8a694e89ee,69b9601465e6f35f8f497715,0.108,0.108,1,60,222,97,1,fiveseven,,,,,,,,,,,,,,,,,,,,,,,,,,,,,,,,,,,,,,,,,,,,,,,,,,,,,,,,,,,,,,,,,,,,,,,,,,,,,,,,,,,,,,,,,,,,,,,,,,,,,,,,,,,,,,,,,,,,,,,,,,,,,,,,,,,,,,,,,
,,6982e022072cf2f69a036e17,2026-03-17_17h08.40.084,kallum_motion_pilot_GIST_update_2,2026.1.1,Win32,74.62686567,6982e022072cf2f69a036e17,69b95efdef24cd8a694e89ee,69b9601465e6f35f8f497715,0.108,0.108,1,61,223,120,1,fivesix,,,,,,,,,,,,,,,,,,,,,,,,,,,,,,,,,,,,,,,,,,,,,,,,,,,,,,,,,,,,,,,,,,,,,,,,,,,,,,,,,,,,,,,,,,,,,,,,,,,,,,,,,,,,,,,,,,,,,,,,,,,,,,,,,,,,,,,,,
,,6982e022072cf2f69a036e17,2026-03-17_17h08.40.084,kallum_motion_pilot_GIST_update_2,2026.1.1,Win32,74.62686567,6982e022072cf2f69a036e17,69b95efdef24cd8a694e89ee,69b9601465e6f35f8f497715,0.109,0.109,1,62,224,72,1,onetwo,,,,,,,,,,,,,,,,,,,,,,,,,,,,,,,,,,,,,,,,,,,,,,,,,,,,,,,,,,,,,,,,,,,,,,,,,,,,,,,,,,,,,,,,,,,,,,,,,,,,,,,,,,,,,,,,,,,,,,,,,,,,,,,,,,,,,,,,,
,,6982e022072cf2f69a036e17,2026-03-17_17h08.40.084,kallum_motion_pilot_GIST_update_2,2026.1.1,Win32,74.62686567,6982e022072cf2f69a036e17,69b95efdef24cd8a694e89ee,69b9601465e6f35f8f497715,0.109,0.109,1,63,225,7,1,fourthree,,,,,,,,,,,,,,,,,,,,,,,,,,,,,,,,,,,,,,,,,,,,,,,,,,,,,,,,,,,,,,,,,,,,,,,,,,,,,,,,,,,,,,,,,,,,,,,,,,,,,,,,,,,,,,,,,,,,,,,,,,,,,,,,,,,,,,,,,
,,6982e022072cf2f69a036e17,2026-03-17_17h08.40.084,kallum_motion_pilot_GIST_update_2,2026.1.1,Win32,74.62686567,6982e022072cf2f69a036e17,69b95efdef24cd8a694e89ee,69b9601465e6f35f8f497715,0.109,0.109,1,64,226,101,1,seveneight,,,,,,,,,,,,,,,,,,,,,,,,,,,,,,,,,,,,,,,,,,,,,,,,,,,,,,,,,,,,,,,,,,,,,,,,,,,,,,,,,,,,,,,,,,,,,,,,,,,,,,,,,,,,,,,,,,,,,,,,,,,,,,,,,,,,,,,,,
,,6982e022072cf2f69a036e17,2026-03-17_17h08.40.084,kallum_motion_pilot_GIST_update_2,2026.1.1,Win32,74.62686567,6982e022072cf2f69a036e17,69b95efdef24cd8a694e89ee,69b9601465e6f35f8f497715,0.11,0.11,1,65,227,0,1,onetwo,,,,,,,,,,,,,,,,,,,,,,,,,,,,,,,,,,,,,,,,,,,,,,,,,,,,,,,,,,,,,,,,,,,,,,,,,,,,,,,,,,,,,,,,,,,,,,,,,,,,,,,,,,,,,,,,,,,,,,,,,,,,,,,,,,,,,,,,,
,,6982e022072cf2f69a036e17,2026-03-17_17h08.40.084,kallum_motion_pilot_GIST_update_2,2026.1.1,Win32,74.62686567,6982e022072cf2f69a036e17,69b95efdef24cd8a694e89ee,69b9601465e6f35f8f497715,0.11,0.11,1,66,228,15,1,fourthree,,,,,,,,,,,,,,,,,,,,,,,,,,,,,,,,,,,,,,,,,,,,,,,,,,,,,,,,,,,,,,,,,,,,,,,,,,,,,,,,,,,,,,,,,,,,,,,,,,,,,,,,,,,,,,,,,,,,,,,,,,,,,,,,,,,,,,,,,
,,6982e022072cf2f69a036e17,2026-03-17_17h08.40.084,kallum_motion_pilot_GIST_update_2,2026.1.1,Win32,74.62686567,6982e022072cf2f69a036e17,69b95efdef24cd8a694e89ee,69b9601465e6f35f8f497715,0.11,0.11,1,67,229,132,1,sevenfive,,,,,,,,,,,,,,,,,,,,,,,,,,,,,,,,,,,,,,,,,,,,,,,,,,,,,,,,,,,,,,,,,,,,,,,,,,,,,,,,,,,,,,,,,,,,,,,,,,,,,,,,,,,,,,,,,,,,,,,,,,,,,,,,,,,,,,,,,
,,6982e022072cf2f69a036e17,2026-03-17_17h08.40.084,kallum_motion_pilot_GIST_update_2,2026.1.1,Win32,74.62686567,6982e022072cf2f69a036e17,69b95efdef24cd8a694e89ee,69b9601465e6f35f8f497715,0.11,0.11,1,68,230,36,1,threeone,,,,,,,,,,,,,,,,,,,,,,,,,,,,,,,,,,,,,,,,,,,,,,,,,,,,,,,,,,,,,,,,,,,,,,,,,,,,,,,,,,,,,,,,,,,,,,,,,,,,,,,,,,,,,,,,,,,,,,,,,,,,,,,,,,,,,,,,,
,,6982e022072cf2f69a036e17,2026-03-17_17h08.40.084,kallum_motion_pilot_GIST_update_2,2026.1.1,Win32,74.62686567,6982e022072cf2f69a036e17,69b95efdef24cd8a694e89ee,69b9601465e6f35f8f497715,0.111,0.111,1,69,231,155,1,sixeight,,,,,,,,,,,,,,,,,,,,,,,,,,,,,,,,,,,,,,,,,,,,,,,,,,,,,,,,,,,,,,,,,,,,,,,,,,,,,,,,,,,,,,,,,,,,,,,,,,,,,,,,,,,,,,,,,,,,,,,,,,,,,,,,,,,,,,,,,
,,6982e022072cf2f69a036e17,2026-03-17_17h08.40.084,kallum_motion_pilot_GIST_update_2,2026.1.1,Win32,74.62686567,6982e022072cf2f69a036e17,69b95efdef24cd8a694e89ee,69b9601465e6f35f8f497715,0.111,0.111,1,70,232,111,1,eightseven,,,,,,,,,,,,,,,,,,,,,,,,,,,,,,,,,,,,,,,,,,,,,,,,,,,,,,,,,,,,,,,,,,,,,,,,,,,,,,,,,,,,,,,,,,,,,,,,,,,,,,,,,,,,,,,,,,,,,,,,,,,,,,,,,,,,,,,,,
,,6982e022072cf2f69a036e17,2026-03-17_17h08.40.084,kallum_motion_pilot_GIST_update_2,2026.1.1,Win32,74.62686567,6982e022072cf2f69a036e17,69b95efdef24cd8a694e89ee,69b9601465e6f35f8f497715,0.111,0.111,1,71,233,61,1,threefour,,,,,,,,,,,,,,,,,,,,,,,,,,,,,,,,,,,,,,,,,,,,,,,,,,,,,,,,,,,,,,,,,,,,,,,,,,,,,,,,,,,,,,,,,,,,,,,,,,,,,,,,,,,,,,,,,,,,,,,,,,,,,,,,,,,,,,,,,
,,6982e022072cf2f69a036e17,2026-03-17_17h08.40.084,kallum_motion_pilot_GIST_update_2,2026.1.1,Win32,74.62686567,6982e022072cf2f69a036e17,69b95efdef24cd8a694e89ee,69b9601465e6f35f8f497715,0.112,0.112,1,72,234,118,1,eightsix,,,,,,,,,,,,,,,,,,,,,,,,,,,,,,,,,,,,,,,,,,,,,,,,,,,,,,,,,,,,,,,,,,,,,,,,,,,,,,,,,,,,,,,,,,,,,,,,,,,,,,,,,,,,,,,,,,,,,,,,,,,,,,,,,,,,,,,,,
,,6982e022072cf2f69a036e17,2026-03-17_17h08.40.084,kallum_motion_pilot_GIST_update_2,2026.1.1,Win32,74.62686567,6982e022072cf2f69a036e17,69b95efdef24cd8a694e89ee,69b9601465e6f35f8f497715,0.112,0.112,1,73,235,137,1,fiveseven,,,,,,,,,,,,,,,,,,,,,,,,,,,,,,,,,,,,,,,,,,,,,,,,,,,,,,,,,,,,,,,,,,,,,,,,,,,,,,,,,,,,,,,,,,,,,,,,,,,,,,,,,,,,,,,,,,,,,,,,,,,,,,,,,,,,,,,,,
,,6982e022072cf2f69a036e17,2026-03-17_17h08.40.084,kallum_motion_pilot_GIST_update_2,2026.1.1,Win32,74.62686567,6982e022072cf2f69a036e17,69b95efdef24cd8a694e89ee,69b9601465e6f35f8f497715,0.112,0.112,1,74,236,64,1,onetwo,,,,,,,,,,,,,,,,,,,,,,,,,,,,,,,,,,,,,,,,,,,,,,,,,,,,,,,,,,,,,,,,,,,,,,,,,,,,,,,,,,,,,,,,,,,,,,,,,,,,,,,,,,,,,,,,,,,,,,,,,,,,,,,,,,,,,,,,,
,,6982e022072cf2f69a036e17,2026-03-17_17h08.40.084,kallum_motion_pilot_GIST_update_2,2026.1.1,Win32,74.62686567,6982e022072cf2f69a036e17,69b95efdef24cd8a694e89ee,69b9601465e6f35f8f497715,0.112,0.112,1,75,237,12,1,threeone,,,,,,,,,,,,,,,,,,,,,,,,,,,,,,,,,,,,,,,,,,,,,,,,,,,,,,,,,,,,,,,,,,,,,,,,,,,,,,,,,,,,,,,,,,,,,,,,,,,,,,,,,,,,,,,,,,,,,,,,,,,,,,,,,,,,,,,,,
,,6982e022072cf2f69a036e17,2026-03-17_17h08.40.084,kallum_motion_pilot_GIST_update_2,2026.1.1,Win32,74.62686567,6982e022072cf2f69a036e17,69b95efdef24cd8a694e89ee,69b9601465e6f35f8f497715,0.113,0.113,1,76,238,121,1,fiveseven,,,,,,,,,,,,,,,,,,,,,,,,,,,,,,,,,,,,,,,,,,,,,,,,,,,,,,,,,,,,,,,,,,,,,,,,,,,,,,,,,,,,,,,,,,,,,,,,,,,,,,,,,,,,,,,,,,,,,,,,,,,,,,,,,,,,,,,,,
,,6982e022072cf2f69a036e17,2026-03-17_17h08.40.084,kallum_motion_pilot_GIST_update_2,2026.1.1,Win32,74.62686567,6982e022072cf2f69a036e17,69b95efdef24cd8a694e89ee,69b9601465e6f35f8f497715,0.113,0.113,1,77,239,34,1,twoone,,,,,,,,,,,,,,,,,,,,,,,,,,,,,,,,,,,,,,,,,,,,,,,,,,,,,,,,,,,,,,,,,,,,,,,,,,,,,,,,,,,,,,,,,,,,,,,,,,,,,,,,,,,,,,,,,,,,,,,,,,,,,,,,,,,,,,,,,
,,6982e022072cf2f69a036e17,2026-03-17_17h08.40.084,kallum_motion_pilot_GIST_update_2,2026.1.1,Win32,74.62686567,6982e022072cf2f69a036e17,69b95efdef24cd8a694e89ee,69b9601465e6f35f8f497715,0.114,0.114,1,78,240,52,1,threeone,,,,,,,,,,,,,,,,,,,,,,,,,,,,,,,,,,,,,,,,,,,,,,,,,,,,,,,,,,,,,,,,,,,,,,,,,,,,,,,,,,,,,,,,,,,,,,,,,,,,,,,,,,,,,,,,,,,,,,,,,,,,,,,,,,,,,,,,,
,,6982e022072cf2f69a036e17,2026-03-17_17h08.40.084,kallum_motion_pilot_GIST_update_2,2026.1.1,Win32,74.62686567,6982e022072cf2f69a036e17,69b95efdef24cd8a694e89ee,69b9601465e6f35f8f497715,0.114,0.114,1,79,241,82,1,sixfive,,,,,,,,,,,,,,,,,,,,,,,,,,,,,,,,,,,,,,,,,,,,,,,,,,,,,,,,,,,,,,,,,,,,,,,,,,,,,,,,,,,,,,,,,,,,,,,,,,,,,,,,,,,,,,,,,,,,,,,,,,,,,,,,,,,,,,,,,
,,6982e022072cf2f69a036e17,2026-03-17_17h08.40.084,kallum_motion_pilot_GIST_update_2,2026.1.1,Win32,74.62686567,6982e022072cf2f69a036e17,69b95efdef24cd8a694e89ee,69b9601465e6f35f8f497715,0.114,0.114,1,80,242,37,1,threefour,,,,,,,,,,,,,,,,,,,,,,,,,,,,,,,,,,,,,,,,,,,,,,,,,,,,,,,,,,,,,,,,,,,,,,,,,,,,,,,,,,,,,,,,,,,,,,,,,,,,,,,,,,,,,,,,,,,,,,,,,,,,,,,,,,,,,,,,,
,,6982e022072cf2f69a036e17,2026-03-17_17h08.40.084,kallum_motion_pilot_GIST_update_2,2026.1.1,Win32,74.62686567,6982e022072cf2f69a036e17,69b95efdef24cd8a694e89ee,69b9601465e6f35f8f497715,0.115,0.115,1,81,243,49,1,onethree,,,,,,,,,,,,,,,,,,,,,,,,,,,,,,,,,,,,,,,,,,,,,,,,,,,,,,,,,,,,,,,,,,,,,,,,,,,,,,,,,,,,,,,,,,,,,,,,,,,,,,,,,,,,,,,,,,,,,,,,,,,,,,,,,,,,,,,,,
,,6982e022072cf2f69a036e17,2026-03-17_17h08.40.084,kallum_motion_pilot_GIST_update_2,2026.1.1,Win32,74.62686567,6982e022072cf2f69a036e17,69b95efdef24cd8a694e89ee,69b9601465e6f35f8f497715,0.115,0.115,1,82,244,25,1,onethree,,,,,,,,,,,,,,,,,,,,,,,,,,,,,,,,,,,,,,,,,,,,,,,,,,,,,,,,,,,,,,,,,,,,,,,,,,,,,,,,,,,,,,,,,,,,,,,,,,,,,,,,,,,,,,,,,,,,,,,,,,,,,,,,,,,,,,,,,
,,6982e022072cf2f69a036e17,2026-03-17_17h08.40.084,kallum_motion_pilot_GIST_update_2,2026.1.1,Win32,74.62686567,6982e022072cf2f69a036e17,69b95efdef24cd8a694e89ee,69b9601465e6f35f8f497715,0.115,0.115,1,83,245,159,1,eightseven,,,,,,,,,,,,,,,,,,,,,,,,,,,,,,,,,,,,,,,,,,,,,,,,,,,,,,,,,,,,,,,,,,,,,,,,,,,,,,,,,,,,,,,,,,,,,,,,,,,,,,,,,,,,,,,,,,,,,,,,,,,,,,,,,,,,,,,,,
,,6982e022072cf2f69a036e17,2026-03-17_17h08.40.084,kallum_motion_pilot_GIST_update_2,2026.1.1,Win32,74.62686567,6982e022072cf2f69a036e17,69b95efdef24cd8a694e89ee,69b9601465e6f35f8f497715,0.116,0.116,1,84,246,42,1,twoone,,,,,,,,,,,,,,,,,,,,,,,,,,,,,,,,,,,,,,,,,,,,,,,,,,,,,,,,,,,,,,,,,,,,,,,,,,,,,,,,,,,,,,,,,,,,,,,,,,,,,,,,,,,,,,,,,,,,,,,,,,,,,,,,,,,,,,,,,
,,6982e022072cf2f69a036e17,2026-03-17_17h08.40.084,kallum_motion_pilot_GIST_update_2,2026.1.1,Win32,74.62686567,6982e022072cf2f69a036e17,69b95efdef24cd8a694e89ee,69b9601465e6f35f8f497715,0.116,0.116,1,85,247,14,1,fourtwo,,,,,,,,,,,,,,,,,,,,,,,,,,,,,,,,,,,,,,,,,,,,,,,,,,,,,,,,,,,,,,,,,,,,,,,,,,,,,,,,,,,,,,,,,,,,,,,,,,,,,,,,,,,,,,,,,,,,,,,,,,,,,,,,,,,,,,,,,
,,6982e022072cf2f69a036e17,2026-03-17_17h08.40.084,kallum_motion_pilot_GIST_update_2,2026.1.1,Win32,74.62686567,6982e022072cf2f69a036e17,69b95efdef24cd8a694e89ee,69b9601465e6f35f8f497715,0.116,0.116,1,86,248,113,1,fiveseven,,,,,,,,,,,,,,,,,,,,,,,,,,,,,,,,,,,,,,,,,,,,,,,,,,,,,,,,,,,,,,,,,,,,,,,,,,,,,,,,,,,,,,,,,,,,,,,,,,,,,,,,,,,,,,,,,,,,,,,,,,,,,,,,,,,,,,,,,
,,6982e022072cf2f69a036e17,2026-03-17_17h08.40.084,kallum_motion_pilot_GIST_update_2,2026.1.1,Win32,74.62686567,6982e022072cf2f69a036e17,69b95efdef24cd8a694e89ee,69b9601465e6f35f8f497715,0.117,0.117,1,87,249,127,1,eightseven,,,,,,,,,,,,,,,,,,,,,,,,,,,,,,,,,,,,,,,,,,,,,,,,,,,,,,,,,,,,,,,,,,,,,,,,,,,,,,,,,,,,,,,,,,,,,,,,,,,,,,,,,,,,,,,,,,,,,,,,,,,,,,,,,,,,,,,,,
,,6982e022072cf2f69a036e17,2026-03-17_17h08.40.084,kallum_motion_pilot_GIST_update_2,2026.1.1,Win32,74.62686567,6982e022072cf2f69a036e17,69b95efdef24cd8a694e89ee,69b9601465e6f35f8f497715,0.117,0.117,1,88,250,135,1,eightseven,,,,,,,,,,,,,,,,,,,,,,,,,,,,,,,,,,,,,,,,,,,,,,,,,,,,,,,,,,,,,,,,,,,,,,,,,,,,,,,,,,,,,,,,,,,,,,,,,,,,,,,,,,,,,,,,,,,,,,,,,,,,,,,,,,,,,,,,,
,,6982e022072cf2f69a036e17,2026-03-17_17h08.40.084,kallum_motion_pilot_GIST_update_2,2026.1.1,Win32,74.62686567,6982e022072cf2f69a036e17,69b95efdef24cd8a694e89ee,69b9601465e6f35f8f497715,0.118,0.118,1,89,251,95,1,eightseven,,,,,,,,,,,,,,,,,,,,,,,,,,,,,,,,,,,,,,,,,,,,,,,,,,,,,,,,,,,,,,,,,,,,,,,,,,,,,,,,,,,,,,,,,,,,,,,,,,,,,,,,,,,,,,,,,,,,,,,,,,,,,,,,,,,,,,,,,
,,6982e022072cf2f69a036e17,2026-03-17_17h08.40.084,kallum_motion_pilot_GIST_update_2,2026.1.1,Win32,74.62686567,6982e022072cf2f69a036e17,69b95efdef24cd8a694e89ee,69b9601465e6f35f8f497715,0.118,0.118,1,90,252,40,1,onetwo,,,,,,,,,,,,,,,,,,,,,,,,,,,,,,,,,,,,,,,,,,,,,,,,,,,,,,,,,,,,,,,,,,,,,,,,,,,,,,,,,,,,,,,,,,,,,,,,,,,,,,,,,,,,,,,,,,,,,,,,,,,,,,,,,,,,,,,,,
,,6982e022072cf2f69a036e17,2026-03-17_17h08.40.084,kallum_motion_pilot_GIST_update_2,2026.1.1,Win32,74.62686567,6982e022072cf2f69a036e17,69b95efdef24cd8a694e89ee,69b9601465e6f35f8f497715,0.118,0.118,1,91,253,93,1,seveneight,,,,,,,,,,,,,,,,,,,,,,,,,,,,,,,,,,,,,,,,,,,,,,,,,,,,,,,,,,,,,,,,,,,,,,,,,,,,,,,,,,,,,,,,,,,,,,,,,,,,,,,,,,,,,,,,,,,,,,,,,,,,,,,,,,,,,,,,,
,,6982e022072cf2f69a036e17,2026-03-17_17h08.40.084,kallum_motion_pilot_GIST_update_2,2026.1.1,Win32,74.62686567,6982e022072cf2f69a036e17,69b95efdef24cd8a694e89ee,69b9601465e6f35f8f497715,0.119,0.119,1,92,254,130,1,sixfive,,,,,,,,,,,,,,,,,,,,,,,,,,,,,,,,,,,,,,,,,,,,,,,,,,,,,,,,,,,,,,,,,,,,,,,,,,,,,,,,,,,,,,,,,,,,,,,,,,,,,,,,,,,,,,,,,,,,,,,,,,,,,,,,,,,,,,,,,
,,6982e022072cf2f69a036e17,2026-03-17_17h08.40.084,kallum_motion_pilot_GIST_update_2,2026.1.1,Win32,74.62686567,6982e022072cf2f69a036e17,69b95efdef24cd8a694e89ee,69b9601465e6f35f8f497715,0.119,0.119,1,93,255,2,1,twoone,,,,,,,,,,,,,,,,,,,,,,,,,,,,,,,,,,,,,,,,,,,,,,,,,,,,,,,,,,,,,,,,,,,,,,,,,,,,,,,,,,,,,,,,,,,,,,,,,,,,,,,,,,,,,,,,,,,,,,,,,,,,,,,,,,,,,,,,,
,,6982e022072cf2f69a036e17,2026-03-17_17h08.40.084,kallum_motion_pilot_GIST_update_2,2026.1.1,Win32,74.62686567,6982e022072cf2f69a036e17,69b95efdef24cd8a694e89ee,69b9601465e6f35f8f497715,0.12,0.12,1,94,256,151,1,eightseven,,,,,,,,,,,,,,,,,,,,,,,,,,,,,,,,,,,,,,,,,,,,,,,,,,,,,,,,,,,,,,,,,,,,,,,,,,,,,,,,,,,,,,,,,,,,,,,,,,,,,,,,,,,,,,,,,,,,,,,,,,,,,,,,,,,,,,,,,
,,6982e022072cf2f69a036e17,2026-03-17_17h08.40.084,kallum_motion_pilot_GIST_update_2,2026.1.1,Win32,74.62686567,6982e022072cf2f69a036e17,69b95efdef24cd8a694e89ee,69b9601465e6f35f8f497715,0.12,0.12,1,95,257,58,1,twoone,,,,,,,,,,,,,,,,,,,,,,,,,,,,,,,,,,,,,,,,,,,,,,,,,,,,,,,,,,,,,,,,,,,,,,,,,,,,,,,,,,,,,,,,,,,,,,,,,,,,,,,,,,,,,,,,,,,,,,,,,,,,,,,,,,,,,,,,,
,,6982e022072cf2f69a036e17,2026-03-17_17h08.40.084,kallum_motion_pilot_GIST_update_2,2026.1.1,Win32,74.62686567,6982e022072cf2f69a036e17,69b95efdef24cd8a694e89ee,69b9601465e6f35f8f497715,0.12,0.12,1,96,258,6,1,fourtwo,,,,,,,,,,,,,,,,,,,,,,,,,,,,,,,,,,,,,,,,,,,,,,,,,,,,,,,,,,,,,,,,,,,,,,,,,,,,,,,,,,,,,,,,,,,,,,,,,,,,,,,,,,,,,,,,,,,,,,,,,,,,,,,,,,,,,,,,,
,,6982e022072cf2f69a036e17,2026-03-17_17h08.40.084,kallum_motion_pilot_GIST_update_2,2026.1.1,Win32,74.62686567,6982e022072cf2f69a036e17,69b95efdef24cd8a694e89ee,69b9601465e6f35f8f497715,0.121,0.121,1,97,259,143,1,eightseven,,,,,,,,,,,,,,,,,,,,,,,,,,,,,,,,,,,,,,,,,,,,,,,,,,,,,,,,,,,,,,,,,,,,,,,,,,,,,,,,,,,,,,,,,,,,,,,,,,,,,,,,,,,,,,,,,,,,,,,,,,,,,,,,,,,,,,,,,
,,6982e022072cf2f69a036e17,2026-03-17_17h08.40.084,kallum_motion_pilot_GIST_update_2,2026.1.1,Win32,74.62686567,6982e022072cf2f69a036e17,69b95efdef24cd8a694e89ee,69b9601465e6f35f8f497715,0.121,0.121,1,98,260,9,1,onethree,,,,,,,,,,,,,,,,,,,,,,,,,,,,,,,,,,,,,,,,,,,,,,,,,,,,,,,,,,,,,,,,,,,,,,,,,,,,,,,,,,,,,,,,,,,,,,,,,,,,,,,,,,,,,,,,,,,,,,,,,,,,,,,,,,,,,,,,,
,,6982e022072cf2f69a036e17,2026-03-17_17h08.40.084,kallum_motion_pilot_GIST_update_2,2026.1.1,Win32,74.62686567,6982e022072cf2f69a036e17,69b95efdef24cd8a694e89ee,69b9601465e6f35f8f497715,0.121,0.121,1,99,261,39,1,fourthree,,,,,,,,,,,,,,,,,,,,,,,,,,,,,,,,,,,,,,,,,,,,,,,,,,,,,,,,,,,,,,,,,,,,,,,,,,,,,,,,,,,,,,,,,,,,,,,,,,,,,,,,,,,,,,,,,,,,,,,,,,,,,,,,,,,,,,,,,
,,6982e022072cf2f69a036e17,2026-03-17_17h08.40.084,kallum_motion_pilot_GIST_update_2,2026.1.1,Win32,74.62686567,6982e022072cf2f69a036e17,69b95efdef24cd8a694e89ee,69b9601465e6f35f8f497715,0.122,0.122,1,100,262,138,1,sixfive,,,,,,,,,,,,,,,,,,,,,,,,,,,,,,,,,,,,,,,,,,,,,,,,,,,,,,,,,,,,,,,,,,,,,,,,,,,,,,,,,,,,,,,,,,,,,,,,,,,,,,,,,,,,,,,,,,,,,,,,,,,,,,,,,,,,,,,,,
,,6982e022072cf2f69a036e17,2026-03-17_17h08.40.084,kallum_motion_pilot_GIST_update_2,2026.1.1,Win32,74.62686567,6982e022072cf2f69a036e17,69b95efdef24cd8a694e89ee,69b9601465e6f35f8f497715,0.122,0.122,1,101,263,78,1,fourtwo,,,,,,,,,,,,,,,,,,,,,,,,,,,,,,,,,,,,,,,,,,,,,,,,,,,,,,,,,,,,,,,,,,,,,,,,,,,,,,,,,,,,,,,,,,,,,,,,,,,,,,,,,,,,,,,,,,,,,,,,,,,,,,,,,,,,,,,,,
,,6982e022072cf2f69a036e17,2026-03-17_17h08.40.084,kallum_motion_pilot_GIST_update_2,2026.1.1,Win32,74.62686567,6982e022072cf2f69a036e17,69b95efdef24cd8a694e89ee,69b9601465e6f35f8f497715,0.122,0.122,1,102,264,50,1,twoone,,,,,,,,,,,,,,,,,,,,,,,,,,,,,,,,,,,,,,,,,,,,,,,,,,,,,,,,,,,,,,,,,,,,,,,,,,,,,,,,,,,,,,,,,,,,,,,,,,,,,,,,,,,,,,,,,,,,,,,,,,,,,,,,,,,,,,,,,
,,6982e022072cf2f69a036e17,2026-03-17_17h08.40.084,kallum_motion_pilot_GIST_update_2,2026.1.1,Win32,74.62686567,6982e022072cf2f69a036e17,69b95efdef24cd8a694e89ee,69b9601465e6f35f8f497715,0.123,0.123,1,103,265,144,1,fivesix,,,,,,,,,,,,,,,,,,,,,,,,,,,,,,,,,,,,,,,,,,,,,,,,,,,,,,,,,,,,,,,,,,,,,,,,,,,,,,,,,,,,,,,,,,,,,,,,,,,,,,,,,,,,,,,,,,,,,,,,,,,,,,,,,,,,,,,,,
,,6982e022072cf2f69a036e17,2026-03-17_17h08.40.084,kallum_motion_pilot_GIST_update_2,2026.1.1,Win32,74.62686567,6982e022072cf2f69a036e17,69b95efdef24cd8a694e89ee,69b9601465e6f35f8f497715,0.123,0.123,1,104,266,55,1,fourthree,,,,,,,,,,,,,,,,,,,,,,,,,,,,,,,,,,,,,,,,,,,,,,,,,,,,,,,,,,,,,,,,,,,,,,,,,,,,,,,,,,,,,,,,,,,,,,,,,,,,,,,,,,,,,,,,,,,,,,,,,,,,,,,,,,,,,,,,,
,,6982e022072cf2f69a036e17,2026-03-17_17h08.40.084,kallum_motion_pilot_GIST_update_2,2026.1.1,Win32,74.62686567,6982e022072cf2f69a036e17,69b95efdef24cd8a694e89ee,69b9601465e6f35f8f497715,0.124,0.124,1,105,267,27,1,twofour,,,,,,,,,,,,,,,,,,,,,,,,,,,,,,,,,,,,,,,,,,,,,,,,,,,,,,,,,,,,,,,,,,,,,,,,,,,,,,,,,,,,,,,,,,,,,,,,,,,,,,,,,,,,,,,,,,,,,,,,,,,,,,,,,,,,,,,,,
