startup.started,startup.stopped,Prolific ID*,date,expName,psychopyVersion,OS,frameRate,participant,study_id,session,stimpositions.started,stimpositions.stopped,hardcoded_stimulus_positions.thisRepN,hardcoded_stimulus_positions.thisTrialN,hardcoded_stimulus_positions.thisN,hardcoded_stimulus_positions.thisIndex,hardcoded_stimulus_positions.ran,StimulusPos,stimorientation.started,stimorientation.stopped,prac_stimorientation_import_loop.thisRepN,prac_stimorientation_import_loop.thisTrialN,prac_stimorientation_import_loop.thisN,prac_stimorientation_import_loop.thisIndex,prac_stimorientation_import_loop.ran,Stimorientation,welcome_instr.started,welcome_instr.stopped,key_resp.keys,key_resp.rt,key_resp.duration,response_steppedout_1.started,response_steppedout_1.stopped,key_resp_20.keys,key_resp_20.rt,key_resp_20.duration,response_steppedout_2.started,response_steppedout_2.stopped,key_resp_19.keys,key_resp_19.rt,key_resp_19.duration,stim_response_instr.started,stim_response_instr.stopped,key_resp_15.keys,key_resp_15.rt,key_resp_15.duration,direction_instr_2.started,direction_instr_2.stopped,key_resp_9.keys,key_resp_9.rt,key_resp_9.duration,instr_prac.started,instr_prac.stopped,key_resp_10.keys,key_resp_10.rt,key_resp_10.duration,Stim1_display_prac.started,Stim1_display_prac.stopped,Ecc,Circle1_ori,Circle2_ori,response_prac.started,similarity,response_time,response_prac.stopped,mouse_5.x,mouse_5.y,mouse_5.leftButton,mouse_5.midButton,mouse_5.rightButton,mouse_5.clicked_name,responseprac_feedback.started,responseprac_feedback.stopped,summary2_prac.started,summary2_prac.stopped,mouse_6.x,mouse_6.y,mouse_6.leftButton,mouse_6.midButton,mouse_6.rightButton,mouse_6.clicked_name,duringprac.thisRepN,duringprac.thisTrialN,duringprac.thisN,duringprac.thisIndex,duringprac.ran,begin.started,begin.stopped,key_resp_22.keys,key_resp_22.rt,key_resp_22.duration,Stim1_display.started,Stim1_display.stopped,circle1_ori,circle2_ori,circle1_SF,circle2_SF,response.started,response.stopped,mouse.x,mouse.y,mouse.leftButton,mouse.midButton,mouse.rightButton,mouse.clicked_name,trialnumber,double_pass.thisRepN,double_pass.thisTrialN,double_pass.thisN,double_pass.thisIndex,double_pass.ran,double_pass.order,main_trial.thisRepN,main_trial.thisTrialN,main_trial.thisN,main_trial.thisIndex,main_trial.ran,main_trial.order,Trial_Counter,Catch,Frequencies,response_2.started,response_2.stopped,mouse_2.x,mouse_2.y,mouse_2.leftButton,mouse_2.midButton,mouse_2.rightButton,mouse_2.clicked_name,special_trial.started,special_trial.stopped,catch_1.started,catch_1.stopped,mouse_3.x,mouse_3.y,mouse_3.leftButton,mouse_3.midButton,mouse_3.rightButton,catchresponse,catchnumber,response_time_catch,response_sum.started,response_sum.stopped,mouse_11.x,mouse_11.y,mouse_11.leftButton,mouse_11.midButton,mouse_11.rightButton,flip_presentation_sequence_for_double_pass.started,flip_presentation_sequence_for_double_pass.stopped,goodbye.started,goodbye.stopped,key_resp_3.keys,key_resp_3.rt,key_resp_3.duration
0,0,69831160674482b915185b49,2026-03-17_17h08.52.127,kallum_motion_pilot_GIST_update_2,2026.1.1,Win32,60.0240096,69831160674482b915185b49,69b95efdef24cd8a694e89ee,69b96036eb9addb4fccd898a,,,,,,,,,,,,,,,,,,,,,,,,,,,,,,,,,,,,,,,,,,,,,,,,,,,,,,,,,,,,,,,,,,,,,,,,,,,,,,,,,,,,,,,,,,,,,,,,,,,,,,,,,,,,,,,,,,,,,,,,,,,,,,,,,,,,,,,,,,,,,,,,,
,,69831160674482b915185b49,2026-03-17_17h08.52.127,kallum_motion_pilot_GIST_update_2,2026.1.1,Win32,60.0240096,69831160674482b915185b49,69b95efdef24cd8a694e89ee,69b96036eb9addb4fccd898a,0.023,0.023,0,0,0,128,1,fivesix,,,,,,,,,,,,,,,,,,,,,,,,,,,,,,,,,,,,,,,,,,,,,,,,,,,,,,,,,,,,,,,,,,,,,,,,,,,,,,,,,,,,,,,,,,,,,,,,,,,,,,,,,,,,,,,,,,,,,,,,,,,,,,,,,,,,,,,,,
,,69831160674482b915185b49,2026-03-17_17h08.52.127,kallum_motion_pilot_GIST_update_2,2026.1.1,Win32,60.0240096,69831160674482b915185b49,69b95efdef24cd8a694e89ee,69b96036eb9addb4fccd898a,0.023,0.023,0,1,1,138,1,sixfive,,,,,,,,,,,,,,,,,,,,,,,,,,,,,,,,,,,,,,,,,,,,,,,,,,,,,,,,,,,,,,,,,,,,,,,,,,,,,,,,,,,,,,,,,,,,,,,,,,,,,,,,,,,,,,,,,,,,,,,,,,,,,,,,,,,,,,,,,
,,69831160674482b915185b49,2026-03-17_17h08.52.127,kallum_motion_pilot_GIST_update_2,2026.1.1,Win32,60.0240096,69831160674482b915185b49,69b95efdef24cd8a694e89ee,69b96036eb9addb4fccd898a,0.023,0.023,0,2,2,48,1,onetwo,,,,,,,,,,,,,,,,,,,,,,,,,,,,,,,,,,,,,,,,,,,,,,,,,,,,,,,,,,,,,,,,,,,,,,,,,,,,,,,,,,,,,,,,,,,,,,,,,,,,,,,,,,,,,,,,,,,,,,,,,,,,,,,,,,,,,,,,,
,,69831160674482b915185b49,2026-03-17_17h08.52.127,kallum_motion_pilot_GIST_update_2,2026.1.1,Win32,60.0240096,69831160674482b915185b49,69b95efdef24cd8a694e89ee,69b96036eb9addb4fccd898a,0.023,0.023,0,3,3,2,1,twoone,,,,,,,,,,,,,,,,,,,,,,,,,,,,,,,,,,,,,,,,,,,,,,,,,,,,,,,,,,,,,,,,,,,,,,,,,,,,,,,,,,,,,,,,,,,,,,,,,,,,,,,,,,,,,,,,,,,,,,,,,,,,,,,,,,,,,,,,,
,,69831160674482b915185b49,2026-03-17_17h08.52.127,kallum_motion_pilot_GIST_update_2,2026.1.1,Win32,60.0240096,69831160674482b915185b49,69b95efdef24cd8a694e89ee,69b96036eb9addb4fccd898a,0.024,0.024,0,4,4,152,1,fivesix,,,,,,,,,,,,,,,,,,,,,,,,,,,,,,,,,,,,,,,,,,,,,,,,,,,,,,,,,,,,,,,,,,,,,,,,,,,,,,,,,,,,,,,,,,,,,,,,,,,,,,,,,,,,,,,,,,,,,,,,,,,,,,,,,,,,,,,,,
,,69831160674482b915185b49,2026-03-17_17h08.52.127,kallum_motion_pilot_GIST_update_2,2026.1.1,Win32,60.0240096,69831160674482b915185b49,69b95efdef24cd8a694e89ee,69b96036eb9addb4fccd898a,0.024,0.024,0,5,5,45,1,threefour,,,,,,,,,,,,,,,,,,,,,,,,,,,,,,,,,,,,,,,,,,,,,,,,,,,,,,,,,,,,,,,,,,,,,,,,,,,,,,,,,,,,,,,,,,,,,,,,,,,,,,,,,,,,,,,,,,,,,,,,,,,,,,,,,,,,,,,,,
,,69831160674482b915185b49,2026-03-17_17h08.52.127,kallum_motion_pilot_GIST_update_2,2026.1.1,Win32,60.0240096,69831160674482b915185b49,69b95efdef24cd8a694e89ee,69b96036eb9addb4fccd898a,0.024,0.024,0,6,6,106,1,sixfive,,,,,,,,,,,,,,,,,,,,,,,,,,,,,,,,,,,,,,,,,,,,,,,,,,,,,,,,,,,,,,,,,,,,,,,,,,,,,,,,,,,,,,,,,,,,,,,,,,,,,,,,,,,,,,,,,,,,,,,,,,,,,,,,,,,,,,,,,
,,69831160674482b915185b49,2026-03-17_17h08.52.127,kallum_motion_pilot_GIST_update_2,2026.1.1,Win32,60.0240096,69831160674482b915185b49,69b95efdef24cd8a694e89ee,69b96036eb9addb4fccd898a,0.024,0.024,0,7,7,75,1,twofour,,,,,,,,,,,,,,,,,,,,,,,,,,,,,,,,,,,,,,,,,,,,,,,,,,,,,,,,,,,,,,,,,,,,,,,,,,,,,,,,,,,,,,,,,,,,,,,,,,,,,,,,,,,,,,,,,,,,,,,,,,,,,,,,,,,,,,,,,
,,69831160674482b915185b49,2026-03-17_17h08.52.127,kallum_motion_pilot_GIST_update_2,2026.1.1,Win32,60.0240096,69831160674482b915185b49,69b95efdef24cd8a694e89ee,69b96036eb9addb4fccd898a,0.024,0.024,0,8,8,144,1,fivesix,,,,,,,,,,,,,,,,,,,,,,,,,,,,,,,,,,,,,,,,,,,,,,,,,,,,,,,,,,,,,,,,,,,,,,,,,,,,,,,,,,,,,,,,,,,,,,,,,,,,,,,,,,,,,,,,,,,,,,,,,,,,,,,,,,,,,,,,,
,,69831160674482b915185b49,2026-03-17_17h08.52.127,kallum_motion_pilot_GIST_update_2,2026.1.1,Win32,60.0240096,69831160674482b915185b49,69b95efdef24cd8a694e89ee,69b96036eb9addb4fccd898a,0.024,0.024,0,9,9,84,1,sevenfive,,,,,,,,,,,,,,,,,,,,,,,,,,,,,,,,,,,,,,,,,,,,,,,,,,,,,,,,,,,,,,,,,,,,,,,,,,,,,,,,,,,,,,,,,,,,,,,,,,,,,,,,,,,,,,,,,,,,,,,,,,,,,,,,,,,,,,,,,
,,69831160674482b915185b49,2026-03-17_17h08.52.127,kallum_motion_pilot_GIST_update_2,2026.1.1,Win32,60.0240096,69831160674482b915185b49,69b95efdef24cd8a694e89ee,69b96036eb9addb4fccd898a,0.024,0.024,0,10,10,154,1,sixfive,,,,,,,,,,,,,,,,,,,,,,,,,,,,,,,,,,,,,,,,,,,,,,,,,,,,,,,,,,,,,,,,,,,,,,,,,,,,,,,,,,,,,,,,,,,,,,,,,,,,,,,,,,,,,,,,,,,,,,,,,,,,,,,,,,,,,,,,,
,,69831160674482b915185b49,2026-03-17_17h08.52.127,kallum_motion_pilot_GIST_update_2,2026.1.1,Win32,60.0240096,69831160674482b915185b49,69b95efdef24cd8a694e89ee,69b96036eb9addb4fccd898a,0.024,0.024,0,11,11,59,1,twofour,,,,,,,,,,,,,,,,,,,,,,,,,,,,,,,,,,,,,,,,,,,,,,,,,,,,,,,,,,,,,,,,,,,,,,,,,,,,,,,,,,,,,,,,,,,,,,,,,,,,,,,,,,,,,,,,,,,,,,,,,,,,,,,,,,,,,,,,,
,,69831160674482b915185b49,2026-03-17_17h08.52.127,kallum_motion_pilot_GIST_update_2,2026.1.1,Win32,60.0240096,69831160674482b915185b49,69b95efdef24cd8a694e89ee,69b96036eb9addb4fccd898a,0.025,0.025,0,12,12,94,1,eightsix,,,,,,,,,,,,,,,,,,,,,,,,,,,,,,,,,,,,,,,,,,,,,,,,,,,,,,,,,,,,,,,,,,,,,,,,,,,,,,,,,,,,,,,,,,,,,,,,,,,,,,,,,,,,,,,,,,,,,,,,,,,,,,,,,,,,,,,,,
,,69831160674482b915185b49,2026-03-17_17h08.52.127,kallum_motion_pilot_GIST_update_2,2026.1.1,Win32,60.0240096,69831160674482b915185b49,69b95efdef24cd8a694e89ee,69b96036eb9addb4fccd898a,0.025,0.025,0,13,13,68,1,threeone,,,,,,,,,,,,,,,,,,,,,,,,,,,,,,,,,,,,,,,,,,,,,,,,,,,,,,,,,,,,,,,,,,,,,,,,,,,,,,,,,,,,,,,,,,,,,,,,,,,,,,,,,,,,,,,,,,,,,,,,,,,,,,,,,,,,,,,,,
,,69831160674482b915185b49,2026-03-17_17h08.52.127,kallum_motion_pilot_GIST_update_2,2026.1.1,Win32,60.0240096,69831160674482b915185b49,69b95efdef24cd8a694e89ee,69b96036eb9addb4fccd898a,0.025,0.025,0,14,14,125,1,seveneight,,,,,,,,,,,,,,,,,,,,,,,,,,,,,,,,,,,,,,,,,,,,,,,,,,,,,,,,,,,,,,,,,,,,,,,,,,,,,,,,,,,,,,,,,,,,,,,,,,,,,,,,,,,,,,,,,,,,,,,,,,,,,,,,,,,,,,,,,
,,69831160674482b915185b49,2026-03-17_17h08.52.127,kallum_motion_pilot_GIST_update_2,2026.1.1,Win32,60.0240096,69831160674482b915185b49,69b95efdef24cd8a694e89ee,69b96036eb9addb4fccd898a,0.025,0.025,0,15,15,73,1,onethree,,,,,,,,,,,,,,,,,,,,,,,,,,,,,,,,,,,,,,,,,,,,,,,,,,,,,,,,,,,,,,,,,,,,,,,,,,,,,,,,,,,,,,,,,,,,,,,,,,,,,,,,,,,,,,,,,,,,,,,,,,,,,,,,,,,,,,,,,
,,69831160674482b915185b49,2026-03-17_17h08.52.127,kallum_motion_pilot_GIST_update_2,2026.1.1,Win32,60.0240096,69831160674482b915185b49,69b95efdef24cd8a694e89ee,69b96036eb9addb4fccd898a,0.025,0.025,0,16,16,117,1,seveneight,,,,,,,,,,,,,,,,,,,,,,,,,,,,,,,,,,,,,,,,,,,,,,,,,,,,,,,,,,,,,,,,,,,,,,,,,,,,,,,,,,,,,,,,,,,,,,,,,,,,,,,,,,,,,,,,,,,,,,,,,,,,,,,,,,,,,,,,,
,,69831160674482b915185b49,2026-03-17_17h08.52.127,kallum_motion_pilot_GIST_update_2,2026.1.1,Win32,60.0240096,69831160674482b915185b49,69b95efdef24cd8a694e89ee,69b96036eb9addb4fccd898a,0.025,0.025,0,17,17,21,1,threefour,,,,,,,,,,,,,,,,,,,,,,,,,,,,,,,,,,,,,,,,,,,,,,,,,,,,,,,,,,,,,,,,,,,,,,,,,,,,,,,,,,,,,,,,,,,,,,,,,,,,,,,,,,,,,,,,,,,,,,,,,,,,,,,,,,,,,,,,,
,,69831160674482b915185b49,2026-03-17_17h08.52.127,kallum_motion_pilot_GIST_update_2,2026.1.1,Win32,60.0240096,69831160674482b915185b49,69b95efdef24cd8a694e89ee,69b96036eb9addb4fccd898a,0.025,0.025,0,18,18,49,1,onethree,,,,,,,,,,,,,,,,,,,,,,,,,,,,,,,,,,,,,,,,,,,,,,,,,,,,,,,,,,,,,,,,,,,,,,,,,,,,,,,,,,,,,,,,,,,,,,,,,,,,,,,,,,,,,,,,,,,,,,,,,,,,,,,,,,,,,,,,,
,,69831160674482b915185b49,2026-03-17_17h08.52.127,kallum_motion_pilot_GIST_update_2,2026.1.1,Win32,60.0240096,69831160674482b915185b49,69b95efdef24cd8a694e89ee,69b96036eb9addb4fccd898a,0.026,0.026,0,19,19,52,1,threeone,,,,,,,,,,,,,,,,,,,,,,,,,,,,,,,,,,,,,,,,,,,,,,,,,,,,,,,,,,,,,,,,,,,,,,,,,,,,,,,,,,,,,,,,,,,,,,,,,,,,,,,,,,,,,,,,,,,,,,,,,,,,,,,,,,,,,,,,,
,,69831160674482b915185b49,2026-03-17_17h08.52.127,kallum_motion_pilot_GIST_update_2,2026.1.1,Win32,60.0240096,69831160674482b915185b49,69b95efdef24cd8a694e89ee,69b96036eb9addb4fccd898a,0.026,0.026,0,20,20,85,1,seveneight,,,,,,,,,,,,,,,,,,,,,,,,,,,,,,,,,,,,,,,,,,,,,,,,,,,,,,,,,,,,,,,,,,,,,,,,,,,,,,,,,,,,,,,,,,,,,,,,,,,,,,,,,,,,,,,,,,,,,,,,,,,,,,,,,,,,,,,,,
,,69831160674482b915185b49,2026-03-17_17h08.52.127,kallum_motion_pilot_GIST_update_2,2026.1.1,Win32,60.0240096,69831160674482b915185b49,69b95efdef24cd8a694e89ee,69b96036eb9addb4fccd898a,0.026,0.026,0,21,21,30,1,fourtwo,,,,,,,,,,,,,,,,,,,,,,,,,,,,,,,,,,,,,,,,,,,,,,,,,,,,,,,,,,,,,,,,,,,,,,,,,,,,,,,,,,,,,,,,,,,,,,,,,,,,,,,,,,,,,,,,,,,,,,,,,,,,,,,,,,,,,,,,,
,,69831160674482b915185b49,2026-03-17_17h08.52.127,kallum_motion_pilot_GIST_update_2,2026.1.1,Win32,60.0240096,69831160674482b915185b49,69b95efdef24cd8a694e89ee,69b96036eb9addb4fccd898a,0.026,0.026,0,22,22,23,1,fourthree,,,,,,,,,,,,,,,,,,,,,,,,,,,,,,,,,,,,,,,,,,,,,,,,,,,,,,,,,,,,,,,,,,,,,,,,,,,,,,,,,,,,,,,,,,,,,,,,,,,,,,,,,,,,,,,,,,,,,,,,,,,,,,,,,,,,,,,,,
,,69831160674482b915185b49,2026-03-17_17h08.52.127,kallum_motion_pilot_GIST_update_2,2026.1.1,Win32,60.0240096,69831160674482b915185b49,69b95efdef24cd8a694e89ee,69b96036eb9addb4fccd898a,0.026,0.026,0,23,23,13,1,threefour,,,,,,,,,,,,,,,,,,,,,,,,,,,,,,,,,,,,,,,,,,,,,,,,,,,,,,,,,,,,,,,,,,,,,,,,,,,,,,,,,,,,,,,,,,,,,,,,,,,,,,,,,,,,,,,,,,,,,,,,,,,,,,,,,,,,,,,,,
,,69831160674482b915185b49,2026-03-17_17h08.52.127,kallum_motion_pilot_GIST_update_2,2026.1.1,Win32,60.0240096,69831160674482b915185b49,69b95efdef24cd8a694e89ee,69b96036eb9addb4fccd898a,0.026,0.026,0,24,24,24,1,onetwo,,,,,,,,,,,,,,,,,,,,,,,,,,,,,,,,,,,,,,,,,,,,,,,,,,,,,,,,,,,,,,,,,,,,,,,,,,,,,,,,,,,,,,,,,,,,,,,,,,,,,,,,,,,,,,,,,,,,,,,,,,,,,,,,,,,,,,,,,
,,69831160674482b915185b49,2026-03-17_17h08.52.127,kallum_motion_pilot_GIST_update_2,2026.1.1,Win32,60.0240096,69831160674482b915185b49,69b95efdef24cd8a694e89ee,69b96036eb9addb4fccd898a,0.026,0.026,0,25,25,53,1,threefour,,,,,,,,,,,,,,,,,,,,,,,,,,,,,,,,,,,,,,,,,,,,,,,,,,,,,,,,,,,,,,,,,,,,,,,,,,,,,,,,,,,,,,,,,,,,,,,,,,,,,,,,,,,,,,,,,,,,,,,,,,,,,,,,,,,,,,,,,
,,69831160674482b915185b49,2026-03-17_17h08.52.127,kallum_motion_pilot_GIST_update_2,2026.1.1,Win32,60.0240096,69831160674482b915185b49,69b95efdef24cd8a694e89ee,69b96036eb9addb4fccd898a,0.027,0.027,0,26,26,1,1,onethree,,,,,,,,,,,,,,,,,,,,,,,,,,,,,,,,,,,,,,,,,,,,,,,,,,,,,,,,,,,,,,,,,,,,,,,,,,,,,,,,,,,,,,,,,,,,,,,,,,,,,,,,,,,,,,,,,,,,,,,,,,,,,,,,,,,,,,,,,
,,69831160674482b915185b49,2026-03-17_17h08.52.127,kallum_motion_pilot_GIST_update_2,2026.1.1,Win32,60.0240096,69831160674482b915185b49,69b95efdef24cd8a694e89ee,69b96036eb9addb4fccd898a,0.027,0.027,0,27,27,135,1,eightseven,,,,,,,,,,,,,,,,,,,,,,,,,,,,,,,,,,,,,,,,,,,,,,,,,,,,,,,,,,,,,,,,,,,,,,,,,,,,,,,,,,,,,,,,,,,,,,,,,,,,,,,,,,,,,,,,,,,,,,,,,,,,,,,,,,,,,,,,,
,,69831160674482b915185b49,2026-03-17_17h08.52.127,kallum_motion_pilot_GIST_update_2,2026.1.1,Win32,60.0240096,69831160674482b915185b49,69b95efdef24cd8a694e89ee,69b96036eb9addb4fccd898a,0.027,0.027,0,28,28,35,1,twofour,,,,,,,,,,,,,,,,,,,,,,,,,,,,,,,,,,,,,,,,,,,,,,,,,,,,,,,,,,,,,,,,,,,,,,,,,,,,,,,,,,,,,,,,,,,,,,,,,,,,,,,,,,,,,,,,,,,,,,,,,,,,,,,,,,,,,,,,,
,,69831160674482b915185b49,2026-03-17_17h08.52.127,kallum_motion_pilot_GIST_update_2,2026.1.1,Win32,60.0240096,69831160674482b915185b49,69b95efdef24cd8a694e89ee,69b96036eb9addb4fccd898a,0.027,0.027,0,29,29,102,1,eightsix,,,,,,,,,,,,,,,,,,,,,,,,,,,,,,,,,,,,,,,,,,,,,,,,,,,,,,,,,,,,,,,,,,,,,,,,,,,,,,,,,,,,,,,,,,,,,,,,,,,,,,,,,,,,,,,,,,,,,,,,,,,,,,,,,,,,,,,,,
,,69831160674482b915185b49,2026-03-17_17h08.52.127,kallum_motion_pilot_GIST_update_2,2026.1.1,Win32,60.0240096,69831160674482b915185b49,69b95efdef24cd8a694e89ee,69b96036eb9addb4fccd898a,0.027,0.027,0,30,30,146,1,sixfive,,,,,,,,,,,,,,,,,,,,,,,,,,,,,,,,,,,,,,,,,,,,,,,,,,,,,,,,,,,,,,,,,,,,,,,,,,,,,,,,,,,,,,,,,,,,,,,,,,,,,,,,,,,,,,,,,,,,,,,,,,,,,,,,,,,,,,,,,
,,69831160674482b915185b49,2026-03-17_17h08.52.127,kallum_motion_pilot_GIST_update_2,2026.1.1,Win32,60.0240096,69831160674482b915185b49,69b95efdef24cd8a694e89ee,69b96036eb9addb4fccd898a,0.027,0.027,0,31,31,121,1,fiveseven,,,,,,,,,,,,,,,,,,,,,,,,,,,,,,,,,,,,,,,,,,,,,,,,,,,,,,,,,,,,,,,,,,,,,,,,,,,,,,,,,,,,,,,,,,,,,,,,,,,,,,,,,,,,,,,,,,,,,,,,,,,,,,,,,,,,,,,,,
,,69831160674482b915185b49,2026-03-17_17h08.52.127,kallum_motion_pilot_GIST_update_2,2026.1.1,Win32,60.0240096,69831160674482b915185b49,69b95efdef24cd8a694e89ee,69b96036eb9addb4fccd898a,0.028,0.028,0,32,32,42,1,twoone,,,,,,,,,,,,,,,,,,,,,,,,,,,,,,,,,,,,,,,,,,,,,,,,,,,,,,,,,,,,,,,,,,,,,,,,,,,,,,,,,,,,,,,,,,,,,,,,,,,,,,,,,,,,,,,,,,,,,,,,,,,,,,,,,,,,,,,,,
,,69831160674482b915185b49,2026-03-17_17h08.52.127,kallum_motion_pilot_GIST_update_2,2026.1.1,Win32,60.0240096,69831160674482b915185b49,69b95efdef24cd8a694e89ee,69b96036eb9addb4fccd898a,0.028,0.028,0,33,33,109,1,seveneight,,,,,,,,,,,,,,,,,,,,,,,,,,,,,,,,,,,,,,,,,,,,,,,,,,,,,,,,,,,,,,,,,,,,,,,,,,,,,,,,,,,,,,,,,,,,,,,,,,,,,,,,,,,,,,,,,,,,,,,,,,,,,,,,,,,,,,,,,
,,69831160674482b915185b49,2026-03-17_17h08.52.127,kallum_motion_pilot_GIST_update_2,2026.1.1,Win32,60.0240096,69831160674482b915185b49,69b95efdef24cd8a694e89ee,69b96036eb9addb4fccd898a,0.028,0.028,0,34,34,131,1,sixeight,,,,,,,,,,,,,,,,,,,,,,,,,,,,,,,,,,,,,,,,,,,,,,,,,,,,,,,,,,,,,,,,,,,,,,,,,,,,,,,,,,,,,,,,,,,,,,,,,,,,,,,,,,,,,,,,,,,,,,,,,,,,,,,,,,,,,,,,,
,,69831160674482b915185b49,2026-03-17_17h08.52.127,kallum_motion_pilot_GIST_update_2,2026.1.1,Win32,60.0240096,69831160674482b915185b49,69b95efdef24cd8a694e89ee,69b96036eb9addb4fccd898a,0.028,0.028,0,35,35,55,1,fourthree,,,,,,,,,,,,,,,,,,,,,,,,,,,,,,,,,,,,,,,,,,,,,,,,,,,,,,,,,,,,,,,,,,,,,,,,,,,,,,,,,,,,,,,,,,,,,,,,,,,,,,,,,,,,,,,,,,,,,,,,,,,,,,,,,,,,,,,,,
,,69831160674482b915185b49,2026-03-17_17h08.52.127,kallum_motion_pilot_GIST_update_2,2026.1.1,Win32,60.0240096,69831160674482b915185b49,69b95efdef24cd8a694e89ee,69b96036eb9addb4fccd898a,0.028,0.028,0,36,36,54,1,fourtwo,,,,,,,,,,,,,,,,,,,,,,,,,,,,,,,,,,,,,,,,,,,,,,,,,,,,,,,,,,,,,,,,,,,,,,,,,,,,,,,,,,,,,,,,,,,,,,,,,,,,,,,,,,,,,,,,,,,,,,,,,,,,,,,,,,,,,,,,,
,,69831160674482b915185b49,2026-03-17_17h08.52.127,kallum_motion_pilot_GIST_update_2,2026.1.1,Win32,60.0240096,69831160674482b915185b49,69b95efdef24cd8a694e89ee,69b96036eb9addb4fccd898a,0.028,0.028,0,37,37,88,1,fivesix,,,,,,,,,,,,,,,,,,,,,,,,,,,,,,,,,,,,,,,,,,,,,,,,,,,,,,,,,,,,,,,,,,,,,,,,,,,,,,,,,,,,,,,,,,,,,,,,,,,,,,,,,,,,,,,,,,,,,,,,,,,,,,,,,,,,,,,,,
,,69831160674482b915185b49,2026-03-17_17h08.52.127,kallum_motion_pilot_GIST_update_2,2026.1.1,Win32,60.0240096,69831160674482b915185b49,69b95efdef24cd8a694e89ee,69b96036eb9addb4fccd898a,0.029,0.029,0,38,38,127,1,eightseven,,,,,,,,,,,,,,,,,,,,,,,,,,,,,,,,,,,,,,,,,,,,,,,,,,,,,,,,,,,,,,,,,,,,,,,,,,,,,,,,,,,,,,,,,,,,,,,,,,,,,,,,,,,,,,,,,,,,,,,,,,,,,,,,,,,,,,,,,
,,69831160674482b915185b49,2026-03-17_17h08.52.127,kallum_motion_pilot_GIST_update_2,2026.1.1,Win32,60.0240096,69831160674482b915185b49,69b95efdef24cd8a694e89ee,69b96036eb9addb4fccd898a,0.029,0.029,0,39,39,40,1,onetwo,,,,,,,,,,,,,,,,,,,,,,,,,,,,,,,,,,,,,,,,,,,,,,,,,,,,,,,,,,,,,,,,,,,,,,,,,,,,,,,,,,,,,,,,,,,,,,,,,,,,,,,,,,,,,,,,,,,,,,,,,,,,,,,,,,,,,,,,,
,,69831160674482b915185b49,2026-03-17_17h08.52.127,kallum_motion_pilot_GIST_update_2,2026.1.1,Win32,60.0240096,69831160674482b915185b49,69b95efdef24cd8a694e89ee,69b96036eb9addb4fccd898a,0.029,0.029,0,40,40,32,1,onetwo,,,,,,,,,,,,,,,,,,,,,,,,,,,,,,,,,,,,,,,,,,,,,,,,,,,,,,,,,,,,,,,,,,,,,,,,,,,,,,,,,,,,,,,,,,,,,,,,,,,,,,,,,,,,,,,,,,,,,,,,,,,,,,,,,,,,,,,,,
,,69831160674482b915185b49,2026-03-17_17h08.52.127,kallum_motion_pilot_GIST_update_2,2026.1.1,Win32,60.0240096,69831160674482b915185b49,69b95efdef24cd8a694e89ee,69b96036eb9addb4fccd898a,0.029,0.029,0,41,41,132,1,sevenfive,,,,,,,,,,,,,,,,,,,,,,,,,,,,,,,,,,,,,,,,,,,,,,,,,,,,,,,,,,,,,,,,,,,,,,,,,,,,,,,,,,,,,,,,,,,,,,,,,,,,,,,,,,,,,,,,,,,,,,,,,,,,,,,,,,,,,,,,,
,,69831160674482b915185b49,2026-03-17_17h08.52.127,kallum_motion_pilot_GIST_update_2,2026.1.1,Win32,60.0240096,69831160674482b915185b49,69b95efdef24cd8a694e89ee,69b96036eb9addb4fccd898a,0.029,0.029,0,42,42,61,1,threefour,,,,,,,,,,,,,,,,,,,,,,,,,,,,,,,,,,,,,,,,,,,,,,,,,,,,,,,,,,,,,,,,,,,,,,,,,,,,,,,,,,,,,,,,,,,,,,,,,,,,,,,,,,,,,,,,,,,,,,,,,,,,,,,,,,,,,,,,,
,,69831160674482b915185b49,2026-03-17_17h08.52.127,kallum_motion_pilot_GIST_update_2,2026.1.1,Win32,60.0240096,69831160674482b915185b49,69b95efdef24cd8a694e89ee,69b96036eb9addb4fccd898a,0.029,0.029,0,43,43,43,1,twofour,,,,,,,,,,,,,,,,,,,,,,,,,,,,,,,,,,,,,,,,,,,,,,,,,,,,,,,,,,,,,,,,,,,,,,,,,,,,,,,,,,,,,,,,,,,,,,,,,,,,,,,,,,,,,,,,,,,,,,,,,,,,,,,,,,,,,,,,,
,,69831160674482b915185b49,2026-03-17_17h08.52.127,kallum_motion_pilot_GIST_update_2,2026.1.1,Win32,60.0240096,69831160674482b915185b49,69b95efdef24cd8a694e89ee,69b96036eb9addb4fccd898a,0.029,0.029,0,44,44,123,1,sixeight,,,,,,,,,,,,,,,,,,,,,,,,,,,,,,,,,,,,,,,,,,,,,,,,,,,,,,,,,,,,,,,,,,,,,,,,,,,,,,,,,,,,,,,,,,,,,,,,,,,,,,,,,,,,,,,,,,,,,,,,,,,,,,,,,,,,,,,,,
,,69831160674482b915185b49,2026-03-17_17h08.52.127,kallum_motion_pilot_GIST_update_2,2026.1.1,Win32,60.0240096,69831160674482b915185b49,69b95efdef24cd8a694e89ee,69b96036eb9addb4fccd898a,0.03,0.03,0,45,45,97,1,fiveseven,,,,,,,,,,,,,,,,,,,,,,,,,,,,,,,,,,,,,,,,,,,,,,,,,,,,,,,,,,,,,,,,,,,,,,,,,,,,,,,,,,,,,,,,,,,,,,,,,,,,,,,,,,,,,,,,,,,,,,,,,,,,,,,,,,,,,,,,,
,,69831160674482b915185b49,2026-03-17_17h08.52.127,kallum_motion_pilot_GIST_update_2,2026.1.1,Win32,60.0240096,69831160674482b915185b49,69b95efdef24cd8a694e89ee,69b96036eb9addb4fccd898a,0.03,0.03,0,46,46,147,1,sixeight,,,,,,,,,,,,,,,,,,,,,,,,,,,,,,,,,,,,,,,,,,,,,,,,,,,,,,,,,,,,,,,,,,,,,,,,,,,,,,,,,,,,,,,,,,,,,,,,,,,,,,,,,,,,,,,,,,,,,,,,,,,,,,,,,,,,,,,,,
,,69831160674482b915185b49,2026-03-17_17h08.52.127,kallum_motion_pilot_GIST_update_2,2026.1.1,Win32,60.0240096,69831160674482b915185b49,69b95efdef24cd8a694e89ee,69b96036eb9addb4fccd898a,0.03,0.03,0,47,47,114,1,sixfive,,,,,,,,,,,,,,,,,,,,,,,,,,,,,,,,,,,,,,,,,,,,,,,,,,,,,,,,,,,,,,,,,,,,,,,,,,,,,,,,,,,,,,,,,,,,,,,,,,,,,,,,,,,,,,,,,,,,,,,,,,,,,,,,,,,,,,,,,
,,69831160674482b915185b49,2026-03-17_17h08.52.127,kallum_motion_pilot_GIST_update_2,2026.1.1,Win32,60.0240096,69831160674482b915185b49,69b95efdef24cd8a694e89ee,69b96036eb9addb4fccd898a,0.03,0.03,0,48,48,130,1,sixfive,,,,,,,,,,,,,,,,,,,,,,,,,,,,,,,,,,,,,,,,,,,,,,,,,,,,,,,,,,,,,,,,,,,,,,,,,,,,,,,,,,,,,,,,,,,,,,,,,,,,,,,,,,,,,,,,,,,,,,,,,,,,,,,,,,,,,,,,,
,,69831160674482b915185b49,2026-03-17_17h08.52.127,kallum_motion_pilot_GIST_update_2,2026.1.1,Win32,60.0240096,69831160674482b915185b49,69b95efdef24cd8a694e89ee,69b96036eb9addb4fccd898a,0.03,0.03,0,49,49,50,1,twoone,,,,,,,,,,,,,,,,,,,,,,,,,,,,,,,,,,,,,,,,,,,,,,,,,,,,,,,,,,,,,,,,,,,,,,,,,,,,,,,,,,,,,,,,,,,,,,,,,,,,,,,,,,,,,,,,,,,,,,,,,,,,,,,,,,,,,,,,,
,,69831160674482b915185b49,2026-03-17_17h08.52.127,kallum_motion_pilot_GIST_update_2,2026.1.1,Win32,60.0240096,69831160674482b915185b49,69b95efdef24cd8a694e89ee,69b96036eb9addb4fccd898a,0.03,0.03,0,50,50,160,1,fivesix,,,,,,,,,,,,,,,,,,,,,,,,,,,,,,,,,,,,,,,,,,,,,,,,,,,,,,,,,,,,,,,,,,,,,,,,,,,,,,,,,,,,,,,,,,,,,,,,,,,,,,,,,,,,,,,,,,,,,,,,,,,,,,,,,,,,,,,,,
,,69831160674482b915185b49,2026-03-17_17h08.52.127,kallum_motion_pilot_GIST_update_2,2026.1.1,Win32,60.0240096,69831160674482b915185b49,69b95efdef24cd8a694e89ee,69b96036eb9addb4fccd898a,0.03,0.03,0,51,51,7,1,fourthree,,,,,,,,,,,,,,,,,,,,,,,,,,,,,,,,,,,,,,,,,,,,,,,,,,,,,,,,,,,,,,,,,,,,,,,,,,,,,,,,,,,,,,,,,,,,,,,,,,,,,,,,,,,,,,,,,,,,,,,,,,,,,,,,,,,,,,,,,
,,69831160674482b915185b49,2026-03-17_17h08.52.127,kallum_motion_pilot_GIST_update_2,2026.1.1,Win32,60.0240096,69831160674482b915185b49,69b95efdef24cd8a694e89ee,69b96036eb9addb4fccd898a,0.03,0.03,0,52,52,100,1,sevenfive,,,,,,,,,,,,,,,,,,,,,,,,,,,,,,,,,,,,,,,,,,,,,,,,,,,,,,,,,,,,,,,,,,,,,,,,,,,,,,,,,,,,,,,,,,,,,,,,,,,,,,,,,,,,,,,,,,,,,,,,,,,,,,,,,,,,,,,,,
,,69831160674482b915185b49,2026-03-17_17h08.52.127,kallum_motion_pilot_GIST_update_2,2026.1.1,Win32,60.0240096,69831160674482b915185b49,69b95efdef24cd8a694e89ee,69b96036eb9addb4fccd898a,0.03,0.03,0,53,53,3,1,twofour,,,,,,,,,,,,,,,,,,,,,,,,,,,,,,,,,,,,,,,,,,,,,,,,,,,,,,,,,,,,,,,,,,,,,,,,,,,,,,,,,,,,,,,,,,,,,,,,,,,,,,,,,,,,,,,,,,,,,,,,,,,,,,,,,,,,,,,,,
,,69831160674482b915185b49,2026-03-17_17h08.52.127,kallum_motion_pilot_GIST_update_2,2026.1.1,Win32,60.0240096,69831160674482b915185b49,69b95efdef24cd8a694e89ee,69b96036eb9addb4fccd898a,0.031,0.031,0,54,54,81,1,fiveseven,,,,,,,,,,,,,,,,,,,,,,,,,,,,,,,,,,,,,,,,,,,,,,,,,,,,,,,,,,,,,,,,,,,,,,,,,,,,,,,,,,,,,,,,,,,,,,,,,,,,,,,,,,,,,,,,,,,,,,,,,,,,,,,,,,,,,,,,,
,,69831160674482b915185b49,2026-03-17_17h08.52.127,kallum_motion_pilot_GIST_update_2,2026.1.1,Win32,60.0240096,69831160674482b915185b49,69b95efdef24cd8a694e89ee,69b96036eb9addb4fccd898a,0.031,0.031,0,55,55,64,1,onetwo,,,,,,,,,,,,,,,,,,,,,,,,,,,,,,,,,,,,,,,,,,,,,,,,,,,,,,,,,,,,,,,,,,,,,,,,,,,,,,,,,,,,,,,,,,,,,,,,,,,,,,,,,,,,,,,,,,,,,,,,,,,,,,,,,,,,,,,,,
,,69831160674482b915185b49,2026-03-17_17h08.52.127,kallum_motion_pilot_GIST_update_2,2026.1.1,Win32,60.0240096,69831160674482b915185b49,69b95efdef24cd8a694e89ee,69b96036eb9addb4fccd898a,0.031,0.031,0,56,56,44,1,threeone,,,,,,,,,,,,,,,,,,,,,,,,,,,,,,,,,,,,,,,,,,,,,,,,,,,,,,,,,,,,,,,,,,,,,,,,,,,,,,,,,,,,,,,,,,,,,,,,,,,,,,,,,,,,,,,,,,,,,,,,,,,,,,,,,,,,,,,,,
,,69831160674482b915185b49,2026-03-17_17h08.52.127,kallum_motion_pilot_GIST_update_2,2026.1.1,Win32,60.0240096,69831160674482b915185b49,69b95efdef24cd8a694e89ee,69b96036eb9addb4fccd898a,0.031,0.031,0,57,57,17,1,onethree,,,,,,,,,,,,,,,,,,,,,,,,,,,,,,,,,,,,,,,,,,,,,,,,,,,,,,,,,,,,,,,,,,,,,,,,,,,,,,,,,,,,,,,,,,,,,,,,,,,,,,,,,,,,,,,,,,,,,,,,,,,,,,,,,,,,,,,,,
,,69831160674482b915185b49,2026-03-17_17h08.52.127,kallum_motion_pilot_GIST_update_2,2026.1.1,Win32,60.0240096,69831160674482b915185b49,69b95efdef24cd8a694e89ee,69b96036eb9addb4fccd898a,0.031,0.031,0,58,58,19,1,twofour,,,,,,,,,,,,,,,,,,,,,,,,,,,,,,,,,,,,,,,,,,,,,,,,,,,,,,,,,,,,,,,,,,,,,,,,,,,,,,,,,,,,,,,,,,,,,,,,,,,,,,,,,,,,,,,,,,,,,,,,,,,,,,,,,,,,,,,,,
,,69831160674482b915185b49,2026-03-17_17h08.52.127,kallum_motion_pilot_GIST_update_2,2026.1.1,Win32,60.0240096,69831160674482b915185b49,69b95efdef24cd8a694e89ee,69b96036eb9addb4fccd898a,0.031,0.031,0,59,59,91,1,sixeight,,,,,,,,,,,,,,,,,,,,,,,,,,,,,,,,,,,,,,,,,,,,,,,,,,,,,,,,,,,,,,,,,,,,,,,,,,,,,,,,,,,,,,,,,,,,,,,,,,,,,,,,,,,,,,,,,,,,,,,,,,,,,,,,,,,,,,,,,
,,69831160674482b915185b49,2026-03-17_17h08.52.127,kallum_motion_pilot_GIST_update_2,2026.1.1,Win32,60.0240096,69831160674482b915185b49,69b95efdef24cd8a694e89ee,69b96036eb9addb4fccd898a,0.031,0.031,0,60,60,76,1,threeone,,,,,,,,,,,,,,,,,,,,,,,,,,,,,,,,,,,,,,,,,,,,,,,,,,,,,,,,,,,,,,,,,,,,,,,,,,,,,,,,,,,,,,,,,,,,,,,,,,,,,,,,,,,,,,,,,,,,,,,,,,,,,,,,,,,,,,,,,
,,69831160674482b915185b49,2026-03-17_17h08.52.127,kallum_motion_pilot_GIST_update_2,2026.1.1,Win32,60.0240096,69831160674482b915185b49,69b95efdef24cd8a694e89ee,69b96036eb9addb4fccd898a,0.031,0.031,0,61,61,134,1,eightsix,,,,,,,,,,,,,,,,,,,,,,,,,,,,,,,,,,,,,,,,,,,,,,,,,,,,,,,,,,,,,,,,,,,,,,,,,,,,,,,,,,,,,,,,,,,,,,,,,,,,,,,,,,,,,,,,,,,,,,,,,,,,,,,,,,,,,,,,,
,,69831160674482b915185b49,2026-03-17_17h08.52.127,kallum_motion_pilot_GIST_update_2,2026.1.1,Win32,60.0240096,69831160674482b915185b49,69b95efdef24cd8a694e89ee,69b96036eb9addb4fccd898a,0.031,0.031,0,62,62,63,1,fourthree,,,,,,,,,,,,,,,,,,,,,,,,,,,,,,,,,,,,,,,,,,,,,,,,,,,,,,,,,,,,,,,,,,,,,,,,,,,,,,,,,,,,,,,,,,,,,,,,,,,,,,,,,,,,,,,,,,,,,,,,,,,,,,,,,,,,,,,,,
,,69831160674482b915185b49,2026-03-17_17h08.52.127,kallum_motion_pilot_GIST_update_2,2026.1.1,Win32,60.0240096,69831160674482b915185b49,69b95efdef24cd8a694e89ee,69b96036eb9addb4fccd898a,0.031,0.031,0,63,63,67,1,twofour,,,,,,,,,,,,,,,,,,,,,,,,,,,,,,,,,,,,,,,,,,,,,,,,,,,,,,,,,,,,,,,,,,,,,,,,,,,,,,,,,,,,,,,,,,,,,,,,,,,,,,,,,,,,,,,,,,,,,,,,,,,,,,,,,,,,,,,,,
,,69831160674482b915185b49,2026-03-17_17h08.52.127,kallum_motion_pilot_GIST_update_2,2026.1.1,Win32,60.0240096,69831160674482b915185b49,69b95efdef24cd8a694e89ee,69b96036eb9addb4fccd898a,0.031,0.031,0,64,64,57,1,onethree,,,,,,,,,,,,,,,,,,,,,,,,,,,,,,,,,,,,,,,,,,,,,,,,,,,,,,,,,,,,,,,,,,,,,,,,,,,,,,,,,,,,,,,,,,,,,,,,,,,,,,,,,,,,,,,,,,,,,,,,,,,,,,,,,,,,,,,,,
,,69831160674482b915185b49,2026-03-17_17h08.52.127,kallum_motion_pilot_GIST_update_2,2026.1.1,Win32,60.0240096,69831160674482b915185b49,69b95efdef24cd8a694e89ee,69b96036eb9addb4fccd898a,0.031,0.031,0,65,65,157,1,seveneight,,,,,,,,,,,,,,,,,,,,,,,,,,,,,,,,,,,,,,,,,,,,,,,,,,,,,,,,,,,,,,,,,,,,,,,,,,,,,,,,,,,,,,,,,,,,,,,,,,,,,,,,,,,,,,,,,,,,,,,,,,,,,,,,,,,,,,,,,
,,69831160674482b915185b49,2026-03-17_17h08.52.127,kallum_motion_pilot_GIST_update_2,2026.1.1,Win32,60.0240096,69831160674482b915185b49,69b95efdef24cd8a694e89ee,69b96036eb9addb4fccd898a,0.032,0.032,0,66,66,133,1,seveneight,,,,,,,,,,,,,,,,,,,,,,,,,,,,,,,,,,,,,,,,,,,,,,,,,,,,,,,,,,,,,,,,,,,,,,,,,,,,,,,,,,,,,,,,,,,,,,,,,,,,,,,,,,,,,,,,,,,,,,,,,,,,,,,,,,,,,,,,,
,,69831160674482b915185b49,2026-03-17_17h08.52.127,kallum_motion_pilot_GIST_update_2,2026.1.1,Win32,60.0240096,69831160674482b915185b49,69b95efdef24cd8a694e89ee,69b96036eb9addb4fccd898a,0.032,0.032,0,67,67,56,1,onetwo,,,,,,,,,,,,,,,,,,,,,,,,,,,,,,,,,,,,,,,,,,,,,,,,,,,,,,,,,,,,,,,,,,,,,,,,,,,,,,,,,,,,,,,,,,,,,,,,,,,,,,,,,,,,,,,,,,,,,,,,,,,,,,,,,,,,,,,,,
,,69831160674482b915185b49,2026-03-17_17h08.52.127,kallum_motion_pilot_GIST_update_2,2026.1.1,Win32,60.0240096,69831160674482b915185b49,69b95efdef24cd8a694e89ee,69b96036eb9addb4fccd898a,0.032,0.032,0,68,68,39,1,fourthree,,,,,,,,,,,,,,,,,,,,,,,,,,,,,,,,,,,,,,,,,,,,,,,,,,,,,,,,,,,,,,,,,,,,,,,,,,,,,,,,,,,,,,,,,,,,,,,,,,,,,,,,,,,,,,,,,,,,,,,,,,,,,,,,,,,,,,,,,
,,69831160674482b915185b49,2026-03-17_17h08.52.127,kallum_motion_pilot_GIST_update_2,2026.1.1,Win32,60.0240096,69831160674482b915185b49,69b95efdef24cd8a694e89ee,69b96036eb9addb4fccd898a,0.032,0.032,0,69,69,104,1,fivesix,,,,,,,,,,,,,,,,,,,,,,,,,,,,,,,,,,,,,,,,,,,,,,,,,,,,,,,,,,,,,,,,,,,,,,,,,,,,,,,,,,,,,,,,,,,,,,,,,,,,,,,,,,,,,,,,,,,,,,,,,,,,,,,,,,,,,,,,,
,,69831160674482b915185b49,2026-03-17_17h08.52.127,kallum_motion_pilot_GIST_update_2,2026.1.1,Win32,60.0240096,69831160674482b915185b49,69b95efdef24cd8a694e89ee,69b96036eb9addb4fccd898a,0.032,0.032,0,70,70,33,1,onethree,,,,,,,,,,,,,,,,,,,,,,,,,,,,,,,,,,,,,,,,,,,,,,,,,,,,,,,,,,,,,,,,,,,,,,,,,,,,,,,,,,,,,,,,,,,,,,,,,,,,,,,,,,,,,,,,,,,,,,,,,,,,,,,,,,,,,,,,,
,,69831160674482b915185b49,2026-03-17_17h08.52.127,kallum_motion_pilot_GIST_update_2,2026.1.1,Win32,60.0240096,69831160674482b915185b49,69b95efdef24cd8a694e89ee,69b96036eb9addb4fccd898a,0.032,0.032,0,71,71,155,1,sixeight,,,,,,,,,,,,,,,,,,,,,,,,,,,,,,,,,,,,,,,,,,,,,,,,,,,,,,,,,,,,,,,,,,,,,,,,,,,,,,,,,,,,,,,,,,,,,,,,,,,,,,,,,,,,,,,,,,,,,,,,,,,,,,,,,,,,,,,,,
,,69831160674482b915185b49,2026-03-17_17h08.52.127,kallum_motion_pilot_GIST_update_2,2026.1.1,Win32,60.0240096,69831160674482b915185b49,69b95efdef24cd8a694e89ee,69b96036eb9addb4fccd898a,0.032,0.032,0,72,72,36,1,threeone,,,,,,,,,,,,,,,,,,,,,,,,,,,,,,,,,,,,,,,,,,,,,,,,,,,,,,,,,,,,,,,,,,,,,,,,,,,,,,,,,,,,,,,,,,,,,,,,,,,,,,,,,,,,,,,,,,,,,,,,,,,,,,,,,,,,,,,,,
,,69831160674482b915185b49,2026-03-17_17h08.52.127,kallum_motion_pilot_GIST_update_2,2026.1.1,Win32,60.0240096,69831160674482b915185b49,69b95efdef24cd8a694e89ee,69b96036eb9addb4fccd898a,0.032,0.032,0,73,73,38,1,fourtwo,,,,,,,,,,,,,,,,,,,,,,,,,,,,,,,,,,,,,,,,,,,,,,,,,,,,,,,,,,,,,,,,,,,,,,,,,,,,,,,,,,,,,,,,,,,,,,,,,,,,,,,,,,,,,,,,,,,,,,,,,,,,,,,,,,,,,,,,,
,,69831160674482b915185b49,2026-03-17_17h08.52.127,kallum_motion_pilot_GIST_update_2,2026.1.1,Win32,60.0240096,69831160674482b915185b49,69b95efdef24cd8a694e89ee,69b96036eb9addb4fccd898a,0.032,0.032,0,74,74,78,1,fourtwo,,,,,,,,,,,,,,,,,,,,,,,,,,,,,,,,,,,,,,,,,,,,,,,,,,,,,,,,,,,,,,,,,,,,,,,,,,,,,,,,,,,,,,,,,,,,,,,,,,,,,,,,,,,,,,,,,,,,,,,,,,,,,,,,,,,,,,,,,
,,69831160674482b915185b49,2026-03-17_17h08.52.127,kallum_motion_pilot_GIST_update_2,2026.1.1,Win32,60.0240096,69831160674482b915185b49,69b95efdef24cd8a694e89ee,69b96036eb9addb4fccd898a,0.032,0.032,0,75,75,150,1,eightsix,,,,,,,,,,,,,,,,,,,,,,,,,,,,,,,,,,,,,,,,,,,,,,,,,,,,,,,,,,,,,,,,,,,,,,,,,,,,,,,,,,,,,,,,,,,,,,,,,,,,,,,,,,,,,,,,,,,,,,,,,,,,,,,,,,,,,,,,,
,,69831160674482b915185b49,2026-03-17_17h08.52.127,kallum_motion_pilot_GIST_update_2,2026.1.1,Win32,60.0240096,69831160674482b915185b49,69b95efdef24cd8a694e89ee,69b96036eb9addb4fccd898a,0.033,0.033,0,76,76,145,1,fiveseven,,,,,,,,,,,,,,,,,,,,,,,,,,,,,,,,,,,,,,,,,,,,,,,,,,,,,,,,,,,,,,,,,,,,,,,,,,,,,,,,,,,,,,,,,,,,,,,,,,,,,,,,,,,,,,,,,,,,,,,,,,,,,,,,,,,,,,,,,
,,69831160674482b915185b49,2026-03-17_17h08.52.127,kallum_motion_pilot_GIST_update_2,2026.1.1,Win32,60.0240096,69831160674482b915185b49,69b95efdef24cd8a694e89ee,69b96036eb9addb4fccd898a,0.033,0.033,0,77,77,95,1,eightseven,,,,,,,,,,,,,,,,,,,,,,,,,,,,,,,,,,,,,,,,,,,,,,,,,,,,,,,,,,,,,,,,,,,,,,,,,,,,,,,,,,,,,,,,,,,,,,,,,,,,,,,,,,,,,,,,,,,,,,,,,,,,,,,,,,,,,,,,,
,,69831160674482b915185b49,2026-03-17_17h08.52.127,kallum_motion_pilot_GIST_update_2,2026.1.1,Win32,60.0240096,69831160674482b915185b49,69b95efdef24cd8a694e89ee,69b96036eb9addb4fccd898a,0.033,0.033,0,78,78,143,1,eightseven,,,,,,,,,,,,,,,,,,,,,,,,,,,,,,,,,,,,,,,,,,,,,,,,,,,,,,,,,,,,,,,,,,,,,,,,,,,,,,,,,,,,,,,,,,,,,,,,,,,,,,,,,,,,,,,,,,,,,,,,,,,,,,,,,,,,,,,,,
,,69831160674482b915185b49,2026-03-17_17h08.52.127,kallum_motion_pilot_GIST_update_2,2026.1.1,Win32,60.0240096,69831160674482b915185b49,69b95efdef24cd8a694e89ee,69b96036eb9addb4fccd898a,0.033,0.033,0,79,79,14,1,fourtwo,,,,,,,,,,,,,,,,,,,,,,,,,,,,,,,,,,,,,,,,,,,,,,,,,,,,,,,,,,,,,,,,,,,,,,,,,,,,,,,,,,,,,,,,,,,,,,,,,,,,,,,,,,,,,,,,,,,,,,,,,,,,,,,,,,,,,,,,,
,,69831160674482b915185b49,2026-03-17_17h08.52.127,kallum_motion_pilot_GIST_update_2,2026.1.1,Win32,60.0240096,69831160674482b915185b49,69b95efdef24cd8a694e89ee,69b96036eb9addb4fccd898a,0.033,0.033,0,80,80,105,1,fiveseven,,,,,,,,,,,,,,,,,,,,,,,,,,,,,,,,,,,,,,,,,,,,,,,,,,,,,,,,,,,,,,,,,,,,,,,,,,,,,,,,,,,,,,,,,,,,,,,,,,,,,,,,,,,,,,,,,,,,,,,,,,,,,,,,,,,,,,,,,
,,69831160674482b915185b49,2026-03-17_17h08.52.127,kallum_motion_pilot_GIST_update_2,2026.1.1,Win32,60.0240096,69831160674482b915185b49,69b95efdef24cd8a694e89ee,69b96036eb9addb4fccd898a,0.033,0.033,0,81,81,101,1,seveneight,,,,,,,,,,,,,,,,,,,,,,,,,,,,,,,,,,,,,,,,,,,,,,,,,,,,,,,,,,,,,,,,,,,,,,,,,,,,,,,,,,,,,,,,,,,,,,,,,,,,,,,,,,,,,,,,,,,,,,,,,,,,,,,,,,,,,,,,,
,,69831160674482b915185b49,2026-03-17_17h08.52.127,kallum_motion_pilot_GIST_update_2,2026.1.1,Win32,60.0240096,69831160674482b915185b49,69b95efdef24cd8a694e89ee,69b96036eb9addb4fccd898a,0.033,0.033,0,82,82,119,1,eightseven,,,,,,,,,,,,,,,,,,,,,,,,,,,,,,,,,,,,,,,,,,,,,,,,,,,,,,,,,,,,,,,,,,,,,,,,,,,,,,,,,,,,,,,,,,,,,,,,,,,,,,,,,,,,,,,,,,,,,,,,,,,,,,,,,,,,,,,,,
,,69831160674482b915185b49,2026-03-17_17h08.52.127,kallum_motion_pilot_GIST_update_2,2026.1.1,Win32,60.0240096,69831160674482b915185b49,69b95efdef24cd8a694e89ee,69b96036eb9addb4fccd898a,0.033,0.033,0,83,83,148,1,sevenfive,,,,,,,,,,,,,,,,,,,,,,,,,,,,,,,,,,,,,,,,,,,,,,,,,,,,,,,,,,,,,,,,,,,,,,,,,,,,,,,,,,,,,,,,,,,,,,,,,,,,,,,,,,,,,,,,,,,,,,,,,,,,,,,,,,,,,,,,,
,,69831160674482b915185b49,2026-03-17_17h08.52.127,kallum_motion_pilot_GIST_update_2,2026.1.1,Win32,60.0240096,69831160674482b915185b49,69b95efdef24cd8a694e89ee,69b96036eb9addb4fccd898a,0.033,0.033,0,84,84,70,1,fourtwo,,,,,,,,,,,,,,,,,,,,,,,,,,,,,,,,,,,,,,,,,,,,,,,,,,,,,,,,,,,,,,,,,,,,,,,,,,,,,,,,,,,,,,,,,,,,,,,,,,,,,,,,,,,,,,,,,,,,,,,,,,,,,,,,,,,,,,,,,
,,69831160674482b915185b49,2026-03-17_17h08.52.127,kallum_motion_pilot_GIST_update_2,2026.1.1,Win32,60.0240096,69831160674482b915185b49,69b95efdef24cd8a694e89ee,69b96036eb9addb4fccd898a,0.033,0.033,0,85,85,115,1,sixeight,,,,,,,,,,,,,,,,,,,,,,,,,,,,,,,,,,,,,,,,,,,,,,,,,,,,,,,,,,,,,,,,,,,,,,,,,,,,,,,,,,,,,,,,,,,,,,,,,,,,,,,,,,,,,,,,,,,,,,,,,,,,,,,,,,,,,,,,,
,,69831160674482b915185b49,2026-03-17_17h08.52.127,kallum_motion_pilot_GIST_update_2,2026.1.1,Win32,60.0240096,69831160674482b915185b49,69b95efdef24cd8a694e89ee,69b96036eb9addb4fccd898a,0.033,0.033,0,86,86,60,1,threeone,,,,,,,,,,,,,,,,,,,,,,,,,,,,,,,,,,,,,,,,,,,,,,,,,,,,,,,,,,,,,,,,,,,,,,,,,,,,,,,,,,,,,,,,,,,,,,,,,,,,,,,,,,,,,,,,,,,,,,,,,,,,,,,,,,,,,,,,,
,,69831160674482b915185b49,2026-03-17_17h08.52.127,kallum_motion_pilot_GIST_update_2,2026.1.1,Win32,60.0240096,69831160674482b915185b49,69b95efdef24cd8a694e89ee,69b96036eb9addb4fccd898a,0.034,0.034,0,87,87,161,1,fiveseven,,,,,,,,,,,,,,,,,,,,,,,,,,,,,,,,,,,,,,,,,,,,,,,,,,,,,,,,,,,,,,,,,,,,,,,,,,,,,,,,,,,,,,,,,,,,,,,,,,,,,,,,,,,,,,,,,,,,,,,,,,,,,,,,,,,,,,,,,
,,69831160674482b915185b49,2026-03-17_17h08.52.127,kallum_motion_pilot_GIST_update_2,2026.1.1,Win32,60.0240096,69831160674482b915185b49,69b95efdef24cd8a694e89ee,69b96036eb9addb4fccd898a,0.034,0.034,0,88,88,126,1,eightsix,,,,,,,,,,,,,,,,,,,,,,,,,,,,,,,,,,,,,,,,,,,,,,,,,,,,,,,,,,,,,,,,,,,,,,,,,,,,,,,,,,,,,,,,,,,,,,,,,,,,,,,,,,,,,,,,,,,,,,,,,,,,,,,,,,,,,,,,,
,,69831160674482b915185b49,2026-03-17_17h08.52.127,kallum_motion_pilot_GIST_update_2,2026.1.1,Win32,60.0240096,69831160674482b915185b49,69b95efdef24cd8a694e89ee,69b96036eb9addb4fccd898a,0.034,0.034,0,89,89,159,1,eightseven,,,,,,,,,,,,,,,,,,,,,,,,,,,,,,,,,,,,,,,,,,,,,,,,,,,,,,,,,,,,,,,,,,,,,,,,,,,,,,,,,,,,,,,,,,,,,,,,,,,,,,,,,,,,,,,,,,,,,,,,,,,,,,,,,,,,,,,,,
,,69831160674482b915185b49,2026-03-17_17h08.52.127,kallum_motion_pilot_GIST_update_2,2026.1.1,Win32,60.0240096,69831160674482b915185b49,69b95efdef24cd8a694e89ee,69b96036eb9addb4fccd898a,0.034,0.034,0,90,90,10,1,twoone,,,,,,,,,,,,,,,,,,,,,,,,,,,,,,,,,,,,,,,,,,,,,,,,,,,,,,,,,,,,,,,,,,,,,,,,,,,,,,,,,,,,,,,,,,,,,,,,,,,,,,,,,,,,,,,,,,,,,,,,,,,,,,,,,,,,,,,,,
,,69831160674482b915185b49,2026-03-17_17h08.52.127,kallum_motion_pilot_GIST_update_2,2026.1.1,Win32,60.0240096,69831160674482b915185b49,69b95efdef24cd8a694e89ee,69b96036eb9addb4fccd898a,0.034,0.034,0,91,91,72,1,onetwo,,,,,,,,,,,,,,,,,,,,,,,,,,,,,,,,,,,,,,,,,,,,,,,,,,,,,,,,,,,,,,,,,,,,,,,,,,,,,,,,,,,,,,,,,,,,,,,,,,,,,,,,,,,,,,,,,,,,,,,,,,,,,,,,,,,,,,,,,
,,69831160674482b915185b49,2026-03-17_17h08.52.127,kallum_motion_pilot_GIST_update_2,2026.1.1,Win32,60.0240096,69831160674482b915185b49,69b95efdef24cd8a694e89ee,69b96036eb9addb4fccd898a,0.034,0.034,0,92,92,90,1,sixfive,,,,,,,,,,,,,,,,,,,,,,,,,,,,,,,,,,,,,,,,,,,,,,,,,,,,,,,,,,,,,,,,,,,,,,,,,,,,,,,,,,,,,,,,,,,,,,,,,,,,,,,,,,,,,,,,,,,,,,,,,,,,,,,,,,,,,,,,,
,,69831160674482b915185b49,2026-03-17_17h08.52.127,kallum_motion_pilot_GIST_update_2,2026.1.1,Win32,60.0240096,69831160674482b915185b49,69b95efdef24cd8a694e89ee,69b96036eb9addb4fccd898a,0.034,0.034,0,93,93,107,1,sixeight,,,,,,,,,,,,,,,,,,,,,,,,,,,,,,,,,,,,,,,,,,,,,,,,,,,,,,,,,,,,,,,,,,,,,,,,,,,,,,,,,,,,,,,,,,,,,,,,,,,,,,,,,,,,,,,,,,,,,,,,,,,,,,,,,,,,,,,,,
,,69831160674482b915185b49,2026-03-17_17h08.52.127,kallum_motion_pilot_GIST_update_2,2026.1.1,Win32,60.0240096,69831160674482b915185b49,69b95efdef24cd8a694e89ee,69b96036eb9addb4fccd898a,0.034,0.034,0,94,94,6,1,fourtwo,,,,,,,,,,,,,,,,,,,,,,,,,,,,,,,,,,,,,,,,,,,,,,,,,,,,,,,,,,,,,,,,,,,,,,,,,,,,,,,,,,,,,,,,,,,,,,,,,,,,,,,,,,,,,,,,,,,,,,,,,,,,,,,,,,,,,,,,,
,,69831160674482b915185b49,2026-03-17_17h08.52.127,kallum_motion_pilot_GIST_update_2,2026.1.1,Win32,60.0240096,69831160674482b915185b49,69b95efdef24cd8a694e89ee,69b96036eb9addb4fccd898a,0.034,0.034,0,95,95,15,1,fourthree,,,,,,,,,,,,,,,,,,,,,,,,,,,,,,,,,,,,,,,,,,,,,,,,,,,,,,,,,,,,,,,,,,,,,,,,,,,,,,,,,,,,,,,,,,,,,,,,,,,,,,,,,,,,,,,,,,,,,,,,,,,,,,,,,,,,,,,,,
,,69831160674482b915185b49,2026-03-17_17h08.52.127,kallum_motion_pilot_GIST_update_2,2026.1.1,Win32,60.0240096,69831160674482b915185b49,69b95efdef24cd8a694e89ee,69b96036eb9addb4fccd898a,0.034,0.034,0,96,96,8,1,onetwo,,,,,,,,,,,,,,,,,,,,,,,,,,,,,,,,,,,,,,,,,,,,,,,,,,,,,,,,,,,,,,,,,,,,,,,,,,,,,,,,,,,,,,,,,,,,,,,,,,,,,,,,,,,,,,,,,,,,,,,,,,,,,,,,,,,,,,,,,
,,69831160674482b915185b49,2026-03-17_17h08.52.127,kallum_motion_pilot_GIST_update_2,2026.1.1,Win32,60.0240096,69831160674482b915185b49,69b95efdef24cd8a694e89ee,69b96036eb9addb4fccd898a,0.034,0.034,0,97,97,58,1,twoone,,,,,,,,,,,,,,,,,,,,,,,,,,,,,,,,,,,,,,,,,,,,,,,,,,,,,,,,,,,,,,,,,,,,,,,,,,,,,,,,,,,,,,,,,,,,,,,,,,,,,,,,,,,,,,,,,,,,,,,,,,,,,,,,,,,,,,,,,
,,69831160674482b915185b49,2026-03-17_17h08.52.127,kallum_motion_pilot_GIST_update_2,2026.1.1,Win32,60.0240096,69831160674482b915185b49,69b95efdef24cd8a694e89ee,69b96036eb9addb4fccd898a,0.035,0.035,0,98,98,149,1,seveneight,,,,,,,,,,,,,,,,,,,,,,,,,,,,,,,,,,,,,,,,,,,,,,,,,,,,,,,,,,,,,,,,,,,,,,,,,,,,,,,,,,,,,,,,,,,,,,,,,,,,,,,,,,,,,,,,,,,,,,,,,,,,,,,,,,,,,,,,,
,,69831160674482b915185b49,2026-03-17_17h08.52.127,kallum_motion_pilot_GIST_update_2,2026.1.1,Win32,60.0240096,69831160674482b915185b49,69b95efdef24cd8a694e89ee,69b96036eb9addb4fccd898a,0.035,0.035,0,99,99,12,1,threeone,,,,,,,,,,,,,,,,,,,,,,,,,,,,,,,,,,,,,,,,,,,,,,,,,,,,,,,,,,,,,,,,,,,,,,,,,,,,,,,,,,,,,,,,,,,,,,,,,,,,,,,,,,,,,,,,,,,,,,,,,,,,,,,,,,,,,,,,,
,,69831160674482b915185b49,2026-03-17_17h08.52.127,kallum_motion_pilot_GIST_update_2,2026.1.1,Win32,60.0240096,69831160674482b915185b49,69b95efdef24cd8a694e89ee,69b96036eb9addb4fccd898a,0.035,0.035,0,100,100,82,1,sixfive,,,,,,,,,,,,,,,,,,,,,,,,,,,,,,,,,,,,,,,,,,,,,,,,,,,,,,,,,,,,,,,,,,,,,,,,,,,,,,,,,,,,,,,,,,,,,,,,,,,,,,,,,,,,,,,,,,,,,,,,,,,,,,,,,,,,,,,,,
,,69831160674482b915185b49,2026-03-17_17h08.52.127,kallum_motion_pilot_GIST_update_2,2026.1.1,Win32,60.0240096,69831160674482b915185b49,69b95efdef24cd8a694e89ee,69b96036eb9addb4fccd898a,0.035,0.035,0,101,101,103,1,eightseven,,,,,,,,,,,,,,,,,,,,,,,,,,,,,,,,,,,,,,,,,,,,,,,,,,,,,,,,,,,,,,,,,,,,,,,,,,,,,,,,,,,,,,,,,,,,,,,,,,,,,,,,,,,,,,,,,,,,,,,,,,,,,,,,,,,,,,,,,
,,69831160674482b915185b49,2026-03-17_17h08.52.127,kallum_motion_pilot_GIST_update_2,2026.1.1,Win32,60.0240096,69831160674482b915185b49,69b95efdef24cd8a694e89ee,69b96036eb9addb4fccd898a,0.035,0.035,0,102,102,37,1,threefour,,,,,,,,,,,,,,,,,,,,,,,,,,,,,,,,,,,,,,,,,,,,,,,,,,,,,,,,,,,,,,,,,,,,,,,,,,,,,,,,,,,,,,,,,,,,,,,,,,,,,,,,,,,,,,,,,,,,,,,,,,,,,,,,,,,,,,,,,
,,69831160674482b915185b49,2026-03-17_17h08.52.127,kallum_motion_pilot_GIST_update_2,2026.1.1,Win32,60.0240096,69831160674482b915185b49,69b95efdef24cd8a694e89ee,69b96036eb9addb4fccd898a,0.035,0.035,0,103,103,89,1,fiveseven,,,,,,,,,,,,,,,,,,,,,,,,,,,,,,,,,,,,,,,,,,,,,,,,,,,,,,,,,,,,,,,,,,,,,,,,,,,,,,,,,,,,,,,,,,,,,,,,,,,,,,,,,,,,,,,,,,,,,,,,,,,,,,,,,,,,,,,,,
,,69831160674482b915185b49,2026-03-17_17h08.52.127,kallum_motion_pilot_GIST_update_2,2026.1.1,Win32,60.0240096,69831160674482b915185b49,69b95efdef24cd8a694e89ee,69b96036eb9addb4fccd898a,0.035,0.035,0,104,104,9,1,onethree,,,,,,,,,,,,,,,,,,,,,,,,,,,,,,,,,,,,,,,,,,,,,,,,,,,,,,,,,,,,,,,,,,,,,,,,,,,,,,,,,,,,,,,,,,,,,,,,,,,,,,,,,,,,,,,,,,,,,,,,,,,,,,,,,,,,,,,,,
,,69831160674482b915185b49,2026-03-17_17h08.52.127,kallum_motion_pilot_GIST_update_2,2026.1.1,Win32,60.0240096,69831160674482b915185b49,69b95efdef24cd8a694e89ee,69b96036eb9addb4fccd898a,0.035,0.035,0,105,105,87,1,eightseven,,,,,,,,,,,,,,,,,,,,,,,,,,,,,,,,,,,,,,,,,,,,,,,,,,,,,,,,,,,,,,,,,,,,,,,,,,,,,,,,,,,,,,,,,,,,,,,,,,,,,,,,,,,,,,,,,,,,,,,,,,,,,,,,,,,,,,,,,
,,69831160674482b915185b49,2026-03-17_17h08.52.127,kallum_motion_pilot_GIST_update_2,2026.1.1,Win32,60.0240096,69831160674482b915185b49,69b95efdef24cd8a694e89ee,69b96036eb9addb4fccd898a,0.035,0.035,0,106,106,120,1,fivesix,,,,,,,,,,,,,,,,,,,,,,,,,,,,,,,,,,,,,,,,,,,,,,,,,,,,,,,,,,,,,,,,,,,,,,,,,,,,,,,,,,,,,,,,,,,,,,,,,,,,,,,,,,,,,,,,,,,,,,,,,,,,,,,,,,,,,,,,,
,,69831160674482b915185b49,2026-03-17_17h08.52.127,kallum_motion_pilot_GIST_update_2,2026.1.1,Win32,60.0240096,69831160674482b915185b49,69b95efdef24cd8a694e89ee,69b96036eb9addb4fccd898a,0.035,0.035,0,107,107,118,1,eightsix,,,,,,,,,,,,,,,,,,,,,,,,,,,,,,,,,,,,,,,,,,,,,,,,,,,,,,,,,,,,,,,,,,,,,,,,,,,,,,,,,,,,,,,,,,,,,,,,,,,,,,,,,,,,,,,,,,,,,,,,,,,,,,,,,,,,,,,,,
,,69831160674482b915185b49,2026-03-17_17h08.52.127,kallum_motion_pilot_GIST_update_2,2026.1.1,Win32,60.0240096,69831160674482b915185b49,69b95efdef24cd8a694e89ee,69b96036eb9addb4fccd898a,0.035,0.035,0,108,108,112,1,fivesix,,,,,,,,,,,,,,,,,,,,,,,,,,,,,,,,,,,,,,,,,,,,,,,,,,,,,,,,,,,,,,,,,,,,,,,,,,,,,,,,,,,,,,,,,,,,,,,,,,,,,,,,,,,,,,,,,,,,,,,,,,,,,,,,,,,,,,,,,
,,69831160674482b915185b49,2026-03-17_17h08.52.127,kallum_motion_pilot_GIST_update_2,2026.1.1,Win32,60.0240096,69831160674482b915185b49,69b95efdef24cd8a694e89ee,69b96036eb9addb4fccd898a,0.035,0.035,0,109,109,4,1,threeone,,,,,,,,,,,,,,,,,,,,,,,,,,,,,,,,,,,,,,,,,,,,,,,,,,,,,,,,,,,,,,,,,,,,,,,,,,,,,,,,,,,,,,,,,,,,,,,,,,,,,,,,,,,,,,,,,,,,,,,,,,,,,,,,,,,,,,,,,
,,69831160674482b915185b49,2026-03-17_17h08.52.127,kallum_motion_pilot_GIST_update_2,2026.1.1,Win32,60.0240096,69831160674482b915185b49,69b95efdef24cd8a694e89ee,69b96036eb9addb4fccd898a,0.036,0.036,0,110,110,153,1,fiveseven,,,,,,,,,,,,,,,,,,,,,,,,,,,,,,,,,,,,,,,,,,,,,,,,,,,,,,,,,,,,,,,,,,,,,,,,,,,,,,,,,,,,,,,,,,,,,,,,,,,,,,,,,,,,,,,,,,,,,,,,,,,,,,,,,,,,,,,,,
,,69831160674482b915185b49,2026-03-17_17h08.52.127,kallum_motion_pilot_GIST_update_2,2026.1.1,Win32,60.0240096,69831160674482b915185b49,69b95efdef24cd8a694e89ee,69b96036eb9addb4fccd898a,0.036,0.036,0,111,111,69,1,threefour,,,,,,,,,,,,,,,,,,,,,,,,,,,,,,,,,,,,,,,,,,,,,,,,,,,,,,,,,,,,,,,,,,,,,,,,,,,,,,,,,,,,,,,,,,,,,,,,,,,,,,,,,,,,,,,,,,,,,,,,,,,,,,,,,,,,,,,,,
,,69831160674482b915185b49,2026-03-17_17h08.52.127,kallum_motion_pilot_GIST_update_2,2026.1.1,Win32,60.0240096,69831160674482b915185b49,69b95efdef24cd8a694e89ee,69b96036eb9addb4fccd898a,0.036,0.036,0,112,112,20,1,threeone,,,,,,,,,,,,,,,,,,,,,,,,,,,,,,,,,,,,,,,,,,,,,,,,,,,,,,,,,,,,,,,,,,,,,,,,,,,,,,,,,,,,,,,,,,,,,,,,,,,,,,,,,,,,,,,,,,,,,,,,,,,,,,,,,,,,,,,,,
,,69831160674482b915185b49,2026-03-17_17h08.52.127,kallum_motion_pilot_GIST_update_2,2026.1.1,Win32,60.0240096,69831160674482b915185b49,69b95efdef24cd8a694e89ee,69b96036eb9addb4fccd898a,0.036,0.036,0,113,113,62,1,fourtwo,,,,,,,,,,,,,,,,,,,,,,,,,,,,,,,,,,,,,,,,,,,,,,,,,,,,,,,,,,,,,,,,,,,,,,,,,,,,,,,,,,,,,,,,,,,,,,,,,,,,,,,,,,,,,,,,,,,,,,,,,,,,,,,,,,,,,,,,,
,,69831160674482b915185b49,2026-03-17_17h08.52.127,kallum_motion_pilot_GIST_update_2,2026.1.1,Win32,60.0240096,69831160674482b915185b49,69b95efdef24cd8a694e89ee,69b96036eb9addb4fccd898a,0.036,0.036,0,114,114,92,1,sevenfive,,,,,,,,,,,,,,,,,,,,,,,,,,,,,,,,,,,,,,,,,,,,,,,,,,,,,,,,,,,,,,,,,,,,,,,,,,,,,,,,,,,,,,,,,,,,,,,,,,,,,,,,,,,,,,,,,,,,,,,,,,,,,,,,,,,,,,,,,
,,69831160674482b915185b49,2026-03-17_17h08.52.127,kallum_motion_pilot_GIST_update_2,2026.1.1,Win32,60.0240096,69831160674482b915185b49,69b95efdef24cd8a694e89ee,69b96036eb9addb4fccd898a,0.036,0.036,0,115,115,18,1,twoone,,,,,,,,,,,,,,,,,,,,,,,,,,,,,,,,,,,,,,,,,,,,,,,,,,,,,,,,,,,,,,,,,,,,,,,,,,,,,,,,,,,,,,,,,,,,,,,,,,,,,,,,,,,,,,,,,,,,,,,,,,,,,,,,,,,,,,,,,
,,69831160674482b915185b49,2026-03-17_17h08.52.127,kallum_motion_pilot_GIST_update_2,2026.1.1,Win32,60.0240096,69831160674482b915185b49,69b95efdef24cd8a694e89ee,69b96036eb9addb4fccd898a,0.036,0.036,0,116,116,99,1,sixeight,,,,,,,,,,,,,,,,,,,,,,,,,,,,,,,,,,,,,,,,,,,,,,,,,,,,,,,,,,,,,,,,,,,,,,,,,,,,,,,,,,,,,,,,,,,,,,,,,,,,,,,,,,,,,,,,,,,,,,,,,,,,,,,,,,,,,,,,,
,,69831160674482b915185b49,2026-03-17_17h08.52.127,kallum_motion_pilot_GIST_update_2,2026.1.1,Win32,60.0240096,69831160674482b915185b49,69b95efdef24cd8a694e89ee,69b96036eb9addb4fccd898a,0.036,0.036,0,117,117,34,1,twoone,,,,,,,,,,,,,,,,,,,,,,,,,,,,,,,,,,,,,,,,,,,,,,,,,,,,,,,,,,,,,,,,,,,,,,,,,,,,,,,,,,,,,,,,,,,,,,,,,,,,,,,,,,,,,,,,,,,,,,,,,,,,,,,,,,,,,,,,,
,,69831160674482b915185b49,2026-03-17_17h08.52.127,kallum_motion_pilot_GIST_update_2,2026.1.1,Win32,60.0240096,69831160674482b915185b49,69b95efdef24cd8a694e89ee,69b96036eb9addb4fccd898a,0.036,0.036,0,118,118,79,1,eightseven,,,,,,,,,,,,,,,,,,,,,,,,,,,,,,,,,,,,,,,,,,,,,,,,,,,,,,,,,,,,,,,,,,,,,,,,,,,,,,,,,,,,,,,,,,,,,,,,,,,,,,,,,,,,,,,,,,,,,,,,,,,,,,,,,,,,,,,,,
,,69831160674482b915185b49,2026-03-17_17h08.52.127,kallum_motion_pilot_GIST_update_2,2026.1.1,Win32,60.0240096,69831160674482b915185b49,69b95efdef24cd8a694e89ee,69b96036eb9addb4fccd898a,0.036,0.036,0,119,119,5,1,threefour,,,,,,,,,,,,,,,,,,,,,,,,,,,,,,,,,,,,,,,,,,,,,,,,,,,,,,,,,,,,,,,,,,,,,,,,,,,,,,,,,,,,,,,,,,,,,,,,,,,,,,,,,,,,,,,,,,,,,,,,,,,,,,,,,,,,,,,,,
,,69831160674482b915185b49,2026-03-17_17h08.52.127,kallum_motion_pilot_GIST_update_2,2026.1.1,Win32,60.0240096,69831160674482b915185b49,69b95efdef24cd8a694e89ee,69b96036eb9addb4fccd898a,0.036,0.036,0,120,120,11,1,twofour,,,,,,,,,,,,,,,,,,,,,,,,,,,,,,,,,,,,,,,,,,,,,,,,,,,,,,,,,,,,,,,,,,,,,,,,,,,,,,,,,,,,,,,,,,,,,,,,,,,,,,,,,,,,,,,,,,,,,,,,,,,,,,,,,,,,,,,,,
,,69831160674482b915185b49,2026-03-17_17h08.52.127,kallum_motion_pilot_GIST_update_2,2026.1.1,Win32,60.0240096,69831160674482b915185b49,69b95efdef24cd8a694e89ee,69b96036eb9addb4fccd898a,0.036,0.036,0,121,121,25,1,onethree,,,,,,,,,,,,,,,,,,,,,,,,,,,,,,,,,,,,,,,,,,,,,,,,,,,,,,,,,,,,,,,,,,,,,,,,,,,,,,,,,,,,,,,,,,,,,,,,,,,,,,,,,,,,,,,,,,,,,,,,,,,,,,,,,,,,,,,,,
,,69831160674482b915185b49,2026-03-17_17h08.52.127,kallum_motion_pilot_GIST_update_2,2026.1.1,Win32,60.0240096,69831160674482b915185b49,69b95efdef24cd8a694e89ee,69b96036eb9addb4fccd898a,0.037,0.037,0,122,122,22,1,fourtwo,,,,,,,,,,,,,,,,,,,,,,,,,,,,,,,,,,,,,,,,,,,,,,,,,,,,,,,,,,,,,,,,,,,,,,,,,,,,,,,,,,,,,,,,,,,,,,,,,,,,,,,,,,,,,,,,,,,,,,,,,,,,,,,,,,,,,,,,,
,,69831160674482b915185b49,2026-03-17_17h08.52.127,kallum_motion_pilot_GIST_update_2,2026.1.1,Win32,60.0240096,69831160674482b915185b49,69b95efdef24cd8a694e89ee,69b96036eb9addb4fccd898a,0.037,0.037,0,123,123,86,1,eightsix,,,,,,,,,,,,,,,,,,,,,,,,,,,,,,,,,,,,,,,,,,,,,,,,,,,,,,,,,,,,,,,,,,,,,,,,,,,,,,,,,,,,,,,,,,,,,,,,,,,,,,,,,,,,,,,,,,,,,,,,,,,,,,,,,,,,,,,,,
,,69831160674482b915185b49,2026-03-17_17h08.52.127,kallum_motion_pilot_GIST_update_2,2026.1.1,Win32,60.0240096,69831160674482b915185b49,69b95efdef24cd8a694e89ee,69b96036eb9addb4fccd898a,0.037,0.037,0,124,124,29,1,threefour,,,,,,,,,,,,,,,,,,,,,,,,,,,,,,,,,,,,,,,,,,,,,,,,,,,,,,,,,,,,,,,,,,,,,,,,,,,,,,,,,,,,,,,,,,,,,,,,,,,,,,,,,,,,,,,,,,,,,,,,,,,,,,,,,,,,,,,,,
,,69831160674482b915185b49,2026-03-17_17h08.52.127,kallum_motion_pilot_GIST_update_2,2026.1.1,Win32,60.0240096,69831160674482b915185b49,69b95efdef24cd8a694e89ee,69b96036eb9addb4fccd898a,0.038,0.038,0,125,125,136,1,fivesix,,,,,,,,,,,,,,,,,,,,,,,,,,,,,,,,,,,,,,,,,,,,,,,,,,,,,,,,,,,,,,,,,,,,,,,,,,,,,,,,,,,,,,,,,,,,,,,,,,,,,,,,,,,,,,,,,,,,,,,,,,,,,,,,,,,,,,,,,
,,69831160674482b915185b49,2026-03-17_17h08.52.127,kallum_motion_pilot_GIST_update_2,2026.1.1,Win32,60.0240096,69831160674482b915185b49,69b95efdef24cd8a694e89ee,69b96036eb9addb4fccd898a,0.038,0.038,0,126,126,51,1,twofour,,,,,,,,,,,,,,,,,,,,,,,,,,,,,,,,,,,,,,,,,,,,,,,,,,,,,,,,,,,,,,,,,,,,,,,,,,,,,,,,,,,,,,,,,,,,,,,,,,,,,,,,,,,,,,,,,,,,,,,,,,,,,,,,,,,,,,,,,
,,69831160674482b915185b49,2026-03-17_17h08.52.127,kallum_motion_pilot_GIST_update_2,2026.1.1,Win32,60.0240096,69831160674482b915185b49,69b95efdef24cd8a694e89ee,69b96036eb9addb4fccd898a,0.038,0.038,0,127,127,141,1,seveneight,,,,,,,,,,,,,,,,,,,,,,,,,,,,,,,,,,,,,,,,,,,,,,,,,,,,,,,,,,,,,,,,,,,,,,,,,,,,,,,,,,,,,,,,,,,,,,,,,,,,,,,,,,,,,,,,,,,,,,,,,,,,,,,,,,,,,,,,,
,,69831160674482b915185b49,2026-03-17_17h08.52.127,kallum_motion_pilot_GIST_update_2,2026.1.1,Win32,60.0240096,69831160674482b915185b49,69b95efdef24cd8a694e89ee,69b96036eb9addb4fccd898a,0.038,0.038,0,128,128,27,1,twofour,,,,,,,,,,,,,,,,,,,,,,,,,,,,,,,,,,,,,,,,,,,,,,,,,,,,,,,,,,,,,,,,,,,,,,,,,,,,,,,,,,,,,,,,,,,,,,,,,,,,,,,,,,,,,,,,,,,,,,,,,,,,,,,,,,,,,,,,,
,,69831160674482b915185b49,2026-03-17_17h08.52.127,kallum_motion_pilot_GIST_update_2,2026.1.1,Win32,60.0240096,69831160674482b915185b49,69b95efdef24cd8a694e89ee,69b96036eb9addb4fccd898a,0.038,0.038,0,129,129,26,1,twoone,,,,,,,,,,,,,,,,,,,,,,,,,,,,,,,,,,,,,,,,,,,,,,,,,,,,,,,,,,,,,,,,,,,,,,,,,,,,,,,,,,,,,,,,,,,,,,,,,,,,,,,,,,,,,,,,,,,,,,,,,,,,,,,,,,,,,,,,,
,,69831160674482b915185b49,2026-03-17_17h08.52.127,kallum_motion_pilot_GIST_update_2,2026.1.1,Win32,60.0240096,69831160674482b915185b49,69b95efdef24cd8a694e89ee,69b96036eb9addb4fccd898a,0.038,0.038,0,130,130,0,1,onetwo,,,,,,,,,,,,,,,,,,,,,,,,,,,,,,,,,,,,,,,,,,,,,,,,,,,,,,,,,,,,,,,,,,,,,,,,,,,,,,,,,,,,,,,,,,,,,,,,,,,,,,,,,,,,,,,,,,,,,,,,,,,,,,,,,,,,,,,,,
,,69831160674482b915185b49,2026-03-17_17h08.52.127,kallum_motion_pilot_GIST_update_2,2026.1.1,Win32,60.0240096,69831160674482b915185b49,69b95efdef24cd8a694e89ee,69b96036eb9addb4fccd898a,0.038,0.038,0,131,131,31,1,fourthree,,,,,,,,,,,,,,,,,,,,,,,,,,,,,,,,,,,,,,,,,,,,,,,,,,,,,,,,,,,,,,,,,,,,,,,,,,,,,,,,,,,,,,,,,,,,,,,,,,,,,,,,,,,,,,,,,,,,,,,,,,,,,,,,,,,,,,,,,
,,69831160674482b915185b49,2026-03-17_17h08.52.127,kallum_motion_pilot_GIST_update_2,2026.1.1,Win32,60.0240096,69831160674482b915185b49,69b95efdef24cd8a694e89ee,69b96036eb9addb4fccd898a,0.038,0.038,0,132,132,83,1,sixeight,,,,,,,,,,,,,,,,,,,,,,,,,,,,,,,,,,,,,,,,,,,,,,,,,,,,,,,,,,,,,,,,,,,,,,,,,,,,,,,,,,,,,,,,,,,,,,,,,,,,,,,,,,,,,,,,,,,,,,,,,,,,,,,,,,,,,,,,,
,,69831160674482b915185b49,2026-03-17_17h08.52.127,kallum_motion_pilot_GIST_update_2,2026.1.1,Win32,60.0240096,69831160674482b915185b49,69b95efdef24cd8a694e89ee,69b96036eb9addb4fccd898a,0.039,0.039,0,133,133,93,1,seveneight,,,,,,,,,,,,,,,,,,,,,,,,,,,,,,,,,,,,,,,,,,,,,,,,,,,,,,,,,,,,,,,,,,,,,,,,,,,,,,,,,,,,,,,,,,,,,,,,,,,,,,,,,,,,,,,,,,,,,,,,,,,,,,,,,,,,,,,,,
,,69831160674482b915185b49,2026-03-17_17h08.52.127,kallum_motion_pilot_GIST_update_2,2026.1.1,Win32,60.0240096,69831160674482b915185b49,69b95efdef24cd8a694e89ee,69b96036eb9addb4fccd898a,0.039,0.039,0,134,134,98,1,sixfive,,,,,,,,,,,,,,,,,,,,,,,,,,,,,,,,,,,,,,,,,,,,,,,,,,,,,,,,,,,,,,,,,,,,,,,,,,,,,,,,,,,,,,,,,,,,,,,,,,,,,,,,,,,,,,,,,,,,,,,,,,,,,,,,,,,,,,,,,
,,69831160674482b915185b49,2026-03-17_17h08.52.127,kallum_motion_pilot_GIST_update_2,2026.1.1,Win32,60.0240096,69831160674482b915185b49,69b95efdef24cd8a694e89ee,69b96036eb9addb4fccd898a,0.039,0.039,0,135,135,122,1,sixfive,,,,,,,,,,,,,,,,,,,,,,,,,,,,,,,,,,,,,,,,,,,,,,,,,,,,,,,,,,,,,,,,,,,,,,,,,,,,,,,,,,,,,,,,,,,,,,,,,,,,,,,,,,,,,,,,,,,,,,,,,,,,,,,,,,,,,,,,,
,,69831160674482b915185b49,2026-03-17_17h08.52.127,kallum_motion_pilot_GIST_update_2,2026.1.1,Win32,60.0240096,69831160674482b915185b49,69b95efdef24cd8a694e89ee,69b96036eb9addb4fccd898a,0.039,0.039,0,136,136,110,1,eightsix,,,,,,,,,,,,,,,,,,,,,,,,,,,,,,,,,,,,,,,,,,,,,,,,,,,,,,,,,,,,,,,,,,,,,,,,,,,,,,,,,,,,,,,,,,,,,,,,,,,,,,,,,,,,,,,,,,,,,,,,,,,,,,,,,,,,,,,,,
,,69831160674482b915185b49,2026-03-17_17h08.52.127,kallum_motion_pilot_GIST_update_2,2026.1.1,Win32,60.0240096,69831160674482b915185b49,69b95efdef24cd8a694e89ee,69b96036eb9addb4fccd898a,0.039,0.039,0,137,137,129,1,fiveseven,,,,,,,,,,,,,,,,,,,,,,,,,,,,,,,,,,,,,,,,,,,,,,,,,,,,,,,,,,,,,,,,,,,,,,,,,,,,,,,,,,,,,,,,,,,,,,,,,,,,,,,,,,,,,,,,,,,,,,,,,,,,,,,,,,,,,,,,,
,,69831160674482b915185b49,2026-03-17_17h08.52.127,kallum_motion_pilot_GIST_update_2,2026.1.1,Win32,60.0240096,69831160674482b915185b49,69b95efdef24cd8a694e89ee,69b96036eb9addb4fccd898a,0.039,0.039,0,138,138,108,1,sevenfive,,,,,,,,,,,,,,,,,,,,,,,,,,,,,,,,,,,,,,,,,,,,,,,,,,,,,,,,,,,,,,,,,,,,,,,,,,,,,,,,,,,,,,,,,,,,,,,,,,,,,,,,,,,,,,,,,,,,,,,,,,,,,,,,,,,,,,,,,
,,69831160674482b915185b49,2026-03-17_17h08.52.127,kallum_motion_pilot_GIST_update_2,2026.1.1,Win32,60.0240096,69831160674482b915185b49,69b95efdef24cd8a694e89ee,69b96036eb9addb4fccd898a,0.039,0.039,0,139,139,96,1,fivesix,,,,,,,,,,,,,,,,,,,,,,,,,,,,,,,,,,,,,,,,,,,,,,,,,,,,,,,,,,,,,,,,,,,,,,,,,,,,,,,,,,,,,,,,,,,,,,,,,,,,,,,,,,,,,,,,,,,,,,,,,,,,,,,,,,,,,,,,,
,,69831160674482b915185b49,2026-03-17_17h08.52.127,kallum_motion_pilot_GIST_update_2,2026.1.1,Win32,60.0240096,69831160674482b915185b49,69b95efdef24cd8a694e89ee,69b96036eb9addb4fccd898a,0.039,0.039,0,140,140,139,1,sixeight,,,,,,,,,,,,,,,,,,,,,,,,,,,,,,,,,,,,,,,,,,,,,,,,,,,,,,,,,,,,,,,,,,,,,,,,,,,,,,,,,,,,,,,,,,,,,,,,,,,,,,,,,,,,,,,,,,,,,,,,,,,,,,,,,,,,,,,,,
,,69831160674482b915185b49,2026-03-17_17h08.52.127,kallum_motion_pilot_GIST_update_2,2026.1.1,Win32,60.0240096,69831160674482b915185b49,69b95efdef24cd8a694e89ee,69b96036eb9addb4fccd898a,0.039,0.039,0,141,141,80,1,fivesix,,,,,,,,,,,,,,,,,,,,,,,,,,,,,,,,,,,,,,,,,,,,,,,,,,,,,,,,,,,,,,,,,,,,,,,,,,,,,,,,,,,,,,,,,,,,,,,,,,,,,,,,,,,,,,,,,,,,,,,,,,,,,,,,,,,,,,,,,
,,69831160674482b915185b49,2026-03-17_17h08.52.127,kallum_motion_pilot_GIST_update_2,2026.1.1,Win32,60.0240096,69831160674482b915185b49,69b95efdef24cd8a694e89ee,69b96036eb9addb4fccd898a,0.039,0.039,0,142,142,156,1,sevenfive,,,,,,,,,,,,,,,,,,,,,,,,,,,,,,,,,,,,,,,,,,,,,,,,,,,,,,,,,,,,,,,,,,,,,,,,,,,,,,,,,,,,,,,,,,,,,,,,,,,,,,,,,,,,,,,,,,,,,,,,,,,,,,,,,,,,,,,,,
,,69831160674482b915185b49,2026-03-17_17h08.52.127,kallum_motion_pilot_GIST_update_2,2026.1.1,Win32,60.0240096,69831160674482b915185b49,69b95efdef24cd8a694e89ee,69b96036eb9addb4fccd898a,0.039,0.039,0,143,143,74,1,twoone,,,,,,,,,,,,,,,,,,,,,,,,,,,,,,,,,,,,,,,,,,,,,,,,,,,,,,,,,,,,,,,,,,,,,,,,,,,,,,,,,,,,,,,,,,,,,,,,,,,,,,,,,,,,,,,,,,,,,,,,,,,,,,,,,,,,,,,,,
,,69831160674482b915185b49,2026-03-17_17h08.52.127,kallum_motion_pilot_GIST_update_2,2026.1.1,Win32,60.0240096,69831160674482b915185b49,69b95efdef24cd8a694e89ee,69b96036eb9addb4fccd898a,0.039,0.039,0,144,144,158,1,eightsix,,,,,,,,,,,,,,,,,,,,,,,,,,,,,,,,,,,,,,,,,,,,,,,,,,,,,,,,,,,,,,,,,,,,,,,,,,,,,,,,,,,,,,,,,,,,,,,,,,,,,,,,,,,,,,,,,,,,,,,,,,,,,,,,,,,,,,,,,
,,69831160674482b915185b49,2026-03-17_17h08.52.127,kallum_motion_pilot_GIST_update_2,2026.1.1,Win32,60.0240096,69831160674482b915185b49,69b95efdef24cd8a694e89ee,69b96036eb9addb4fccd898a,0.039,0.039,0,145,145,140,1,sevenfive,,,,,,,,,,,,,,,,,,,,,,,,,,,,,,,,,,,,,,,,,,,,,,,,,,,,,,,,,,,,,,,,,,,,,,,,,,,,,,,,,,,,,,,,,,,,,,,,,,,,,,,,,,,,,,,,,,,,,,,,,,,,,,,,,,,,,,,,,
,,69831160674482b915185b49,2026-03-17_17h08.52.127,kallum_motion_pilot_GIST_update_2,2026.1.1,Win32,60.0240096,69831160674482b915185b49,69b95efdef24cd8a694e89ee,69b96036eb9addb4fccd898a,0.04,0.04,0,146,146,46,1,fourtwo,,,,,,,,,,,,,,,,,,,,,,,,,,,,,,,,,,,,,,,,,,,,,,,,,,,,,,,,,,,,,,,,,,,,,,,,,,,,,,,,,,,,,,,,,,,,,,,,,,,,,,,,,,,,,,,,,,,,,,,,,,,,,,,,,,,,,,,,,
,,69831160674482b915185b49,2026-03-17_17h08.52.127,kallum_motion_pilot_GIST_update_2,2026.1.1,Win32,60.0240096,69831160674482b915185b49,69b95efdef24cd8a694e89ee,69b96036eb9addb4fccd898a,0.04,0.04,0,147,147,113,1,fiveseven,,,,,,,,,,,,,,,,,,,,,,,,,,,,,,,,,,,,,,,,,,,,,,,,,,,,,,,,,,,,,,,,,,,,,,,,,,,,,,,,,,,,,,,,,,,,,,,,,,,,,,,,,,,,,,,,,,,,,,,,,,,,,,,,,,,,,,,,,
,,69831160674482b915185b49,2026-03-17_17h08.52.127,kallum_motion_pilot_GIST_update_2,2026.1.1,Win32,60.0240096,69831160674482b915185b49,69b95efdef24cd8a694e89ee,69b96036eb9addb4fccd898a,0.04,0.04,0,148,148,71,1,fourthree,,,,,,,,,,,,,,,,,,,,,,,,,,,,,,,,,,,,,,,,,,,,,,,,,,,,,,,,,,,,,,,,,,,,,,,,,,,,,,,,,,,,,,,,,,,,,,,,,,,,,,,,,,,,,,,,,,,,,,,,,,,,,,,,,,,,,,,,,
,,69831160674482b915185b49,2026-03-17_17h08.52.127,kallum_motion_pilot_GIST_update_2,2026.1.1,Win32,60.0240096,69831160674482b915185b49,69b95efdef24cd8a694e89ee,69b96036eb9addb4fccd898a,0.04,0.04,0,149,149,28,1,threeone,,,,,,,,,,,,,,,,,,,,,,,,,,,,,,,,,,,,,,,,,,,,,,,,,,,,,,,,,,,,,,,,,,,,,,,,,,,,,,,,,,,,,,,,,,,,,,,,,,,,,,,,,,,,,,,,,,,,,,,,,,,,,,,,,,,,,,,,,
,,69831160674482b915185b49,2026-03-17_17h08.52.127,kallum_motion_pilot_GIST_update_2,2026.1.1,Win32,60.0240096,69831160674482b915185b49,69b95efdef24cd8a694e89ee,69b96036eb9addb4fccd898a,0.04,0.04,0,150,150,137,1,fiveseven,,,,,,,,,,,,,,,,,,,,,,,,,,,,,,,,,,,,,,,,,,,,,,,,,,,,,,,,,,,,,,,,,,,,,,,,,,,,,,,,,,,,,,,,,,,,,,,,,,,,,,,,,,,,,,,,,,,,,,,,,,,,,,,,,,,,,,,,,
,,69831160674482b915185b49,2026-03-17_17h08.52.127,kallum_motion_pilot_GIST_update_2,2026.1.1,Win32,60.0240096,69831160674482b915185b49,69b95efdef24cd8a694e89ee,69b96036eb9addb4fccd898a,0.04,0.04,0,151,151,111,1,eightseven,,,,,,,,,,,,,,,,,,,,,,,,,,,,,,,,,,,,,,,,,,,,,,,,,,,,,,,,,,,,,,,,,,,,,,,,,,,,,,,,,,,,,,,,,,,,,,,,,,,,,,,,,,,,,,,,,,,,,,,,,,,,,,,,,,,,,,,,,
,,69831160674482b915185b49,2026-03-17_17h08.52.127,kallum_motion_pilot_GIST_update_2,2026.1.1,Win32,60.0240096,69831160674482b915185b49,69b95efdef24cd8a694e89ee,69b96036eb9addb4fccd898a,0.04,0.04,0,152,152,142,1,eightsix,,,,,,,,,,,,,,,,,,,,,,,,,,,,,,,,,,,,,,,,,,,,,,,,,,,,,,,,,,,,,,,,,,,,,,,,,,,,,,,,,,,,,,,,,,,,,,,,,,,,,,,,,,,,,,,,,,,,,,,,,,,,,,,,,,,,,,,,,
,,69831160674482b915185b49,2026-03-17_17h08.52.127,kallum_motion_pilot_GIST_update_2,2026.1.1,Win32,60.0240096,69831160674482b915185b49,69b95efdef24cd8a694e89ee,69b96036eb9addb4fccd898a,0.04,0.04,0,153,153,47,1,fourthree,,,,,,,,,,,,,,,,,,,,,,,,,,,,,,,,,,,,,,,,,,,,,,,,,,,,,,,,,,,,,,,,,,,,,,,,,,,,,,,,,,,,,,,,,,,,,,,,,,,,,,,,,,,,,,,,,,,,,,,,,,,,,,,,,,,,,,,,,
,,69831160674482b915185b49,2026-03-17_17h08.52.127,kallum_motion_pilot_GIST_update_2,2026.1.1,Win32,60.0240096,69831160674482b915185b49,69b95efdef24cd8a694e89ee,69b96036eb9addb4fccd898a,0.04,0.04,0,154,154,77,1,threefour,,,,,,,,,,,,,,,,,,,,,,,,,,,,,,,,,,,,,,,,,,,,,,,,,,,,,,,,,,,,,,,,,,,,,,,,,,,,,,,,,,,,,,,,,,,,,,,,,,,,,,,,,,,,,,,,,,,,,,,,,,,,,,,,,,,,,,,,,
,,69831160674482b915185b49,2026-03-17_17h08.52.127,kallum_motion_pilot_GIST_update_2,2026.1.1,Win32,60.0240096,69831160674482b915185b49,69b95efdef24cd8a694e89ee,69b96036eb9addb4fccd898a,0.04,0.04,0,155,155,16,1,onetwo,,,,,,,,,,,,,,,,,,,,,,,,,,,,,,,,,,,,,,,,,,,,,,,,,,,,,,,,,,,,,,,,,,,,,,,,,,,,,,,,,,,,,,,,,,,,,,,,,,,,,,,,,,,,,,,,,,,,,,,,,,,,,,,,,,,,,,,,,
,,69831160674482b915185b49,2026-03-17_17h08.52.127,kallum_motion_pilot_GIST_update_2,2026.1.1,Win32,60.0240096,69831160674482b915185b49,69b95efdef24cd8a694e89ee,69b96036eb9addb4fccd898a,0.04,0.04,0,156,156,116,1,sevenfive,,,,,,,,,,,,,,,,,,,,,,,,,,,,,,,,,,,,,,,,,,,,,,,,,,,,,,,,,,,,,,,,,,,,,,,,,,,,,,,,,,,,,,,,,,,,,,,,,,,,,,,,,,,,,,,,,,,,,,,,,,,,,,,,,,,,,,,,,
,,69831160674482b915185b49,2026-03-17_17h08.52.127,kallum_motion_pilot_GIST_update_2,2026.1.1,Win32,60.0240096,69831160674482b915185b49,69b95efdef24cd8a694e89ee,69b96036eb9addb4fccd898a,0.04,0.04,0,157,157,65,1,onethree,,,,,,,,,,,,,,,,,,,,,,,,,,,,,,,,,,,,,,,,,,,,,,,,,,,,,,,,,,,,,,,,,,,,,,,,,,,,,,,,,,,,,,,,,,,,,,,,,,,,,,,,,,,,,,,,,,,,,,,,,,,,,,,,,,,,,,,,,
,,69831160674482b915185b49,2026-03-17_17h08.52.127,kallum_motion_pilot_GIST_update_2,2026.1.1,Win32,60.0240096,69831160674482b915185b49,69b95efdef24cd8a694e89ee,69b96036eb9addb4fccd898a,0.04,0.04,0,158,158,41,1,onethree,,,,,,,,,,,,,,,,,,,,,,,,,,,,,,,,,,,,,,,,,,,,,,,,,,,,,,,,,,,,,,,,,,,,,,,,,,,,,,,,,,,,,,,,,,,,,,,,,,,,,,,,,,,,,,,,,,,,,,,,,,,,,,,,,,,,,,,,,
,,69831160674482b915185b49,2026-03-17_17h08.52.127,kallum_motion_pilot_GIST_update_2,2026.1.1,Win32,60.0240096,69831160674482b915185b49,69b95efdef24cd8a694e89ee,69b96036eb9addb4fccd898a,0.041,0.041,0,159,159,151,1,eightseven,,,,,,,,,,,,,,,,,,,,,,,,,,,,,,,,,,,,,,,,,,,,,,,,,,,,,,,,,,,,,,,,,,,,,,,,,,,,,,,,,,,,,,,,,,,,,,,,,,,,,,,,,,,,,,,,,,,,,,,,,,,,,,,,,,,,,,,,,
,,69831160674482b915185b49,2026-03-17_17h08.52.127,kallum_motion_pilot_GIST_update_2,2026.1.1,Win32,60.0240096,69831160674482b915185b49,69b95efdef24cd8a694e89ee,69b96036eb9addb4fccd898a,0.041,0.041,0,160,160,124,1,sevenfive,,,,,,,,,,,,,,,,,,,,,,,,,,,,,,,,,,,,,,,,,,,,,,,,,,,,,,,,,,,,,,,,,,,,,,,,,,,,,,,,,,,,,,,,,,,,,,,,,,,,,,,,,,,,,,,,,,,,,,,,,,,,,,,,,,,,,,,,,
,,69831160674482b915185b49,2026-03-17_17h08.52.127,kallum_motion_pilot_GIST_update_2,2026.1.1,Win32,60.0240096,69831160674482b915185b49,69b95efdef24cd8a694e89ee,69b96036eb9addb4fccd898a,0.041,0.041,0,161,161,66,1,twoone,,,,,,,,,,,,,,,,,,,,,,,,,,,,,,,,,,,,,,,,,,,,,,,,,,,,,,,,,,,,,,,,,,,,,,,,,,,,,,,,,,,,,,,,,,,,,,,,,,,,,,,,,,,,,,,,,,,,,,,,,,,,,,,,,,,,,,,,,
,,69831160674482b915185b49,2026-03-17_17h08.52.127,kallum_motion_pilot_GIST_update_2,2026.1.1,Win32,60.0240096,69831160674482b915185b49,69b95efdef24cd8a694e89ee,69b96036eb9addb4fccd898a,0.041,0.041,1,0,162,1,1,onethree,,,,,,,,,,,,,,,,,,,,,,,,,,,,,,,,,,,,,,,,,,,,,,,,,,,,,,,,,,,,,,,,,,,,,,,,,,,,,,,,,,,,,,,,,,,,,,,,,,,,,,,,,,,,,,,,,,,,,,,,,,,,,,,,,,,,,,,,,
,,69831160674482b915185b49,2026-03-17_17h08.52.127,kallum_motion_pilot_GIST_update_2,2026.1.1,Win32,60.0240096,69831160674482b915185b49,69b95efdef24cd8a694e89ee,69b96036eb9addb4fccd898a,0.041,0.041,1,1,163,5,1,threefour,,,,,,,,,,,,,,,,,,,,,,,,,,,,,,,,,,,,,,,,,,,,,,,,,,,,,,,,,,,,,,,,,,,,,,,,,,,,,,,,,,,,,,,,,,,,,,,,,,,,,,,,,,,,,,,,,,,,,,,,,,,,,,,,,,,,,,,,,
,,69831160674482b915185b49,2026-03-17_17h08.52.127,kallum_motion_pilot_GIST_update_2,2026.1.1,Win32,60.0240096,69831160674482b915185b49,69b95efdef24cd8a694e89ee,69b96036eb9addb4fccd898a,0.042,0.042,1,2,164,64,1,onetwo,,,,,,,,,,,,,,,,,,,,,,,,,,,,,,,,,,,,,,,,,,,,,,,,,,,,,,,,,,,,,,,,,,,,,,,,,,,,,,,,,,,,,,,,,,,,,,,,,,,,,,,,,,,,,,,,,,,,,,,,,,,,,,,,,,,,,,,,,
,,69831160674482b915185b49,2026-03-17_17h08.52.127,kallum_motion_pilot_GIST_update_2,2026.1.1,Win32,60.0240096,69831160674482b915185b49,69b95efdef24cd8a694e89ee,69b96036eb9addb4fccd898a,0.042,0.042,1,3,165,96,1,fivesix,,,,,,,,,,,,,,,,,,,,,,,,,,,,,,,,,,,,,,,,,,,,,,,,,,,,,,,,,,,,,,,,,,,,,,,,,,,,,,,,,,,,,,,,,,,,,,,,,,,,,,,,,,,,,,,,,,,,,,,,,,,,,,,,,,,,,,,,,
,,69831160674482b915185b49,2026-03-17_17h08.52.127,kallum_motion_pilot_GIST_update_2,2026.1.1,Win32,60.0240096,69831160674482b915185b49,69b95efdef24cd8a694e89ee,69b96036eb9addb4fccd898a,0.042,0.042,1,4,166,108,1,sevenfive,,,,,,,,,,,,,,,,,,,,,,,,,,,,,,,,,,,,,,,,,,,,,,,,,,,,,,,,,,,,,,,,,,,,,,,,,,,,,,,,,,,,,,,,,,,,,,,,,,,,,,,,,,,,,,,,,,,,,,,,,,,,,,,,,,,,,,,,,
,,69831160674482b915185b49,2026-03-17_17h08.52.127,kallum_motion_pilot_GIST_update_2,2026.1.1,Win32,60.0240096,69831160674482b915185b49,69b95efdef24cd8a694e89ee,69b96036eb9addb4fccd898a,0.042,0.042,1,5,167,148,1,sevenfive,,,,,,,,,,,,,,,,,,,,,,,,,,,,,,,,,,,,,,,,,,,,,,,,,,,,,,,,,,,,,,,,,,,,,,,,,,,,,,,,,,,,,,,,,,,,,,,,,,,,,,,,,,,,,,,,,,,,,,,,,,,,,,,,,,,,,,,,,
,,69831160674482b915185b49,2026-03-17_17h08.52.127,kallum_motion_pilot_GIST_update_2,2026.1.1,Win32,60.0240096,69831160674482b915185b49,69b95efdef24cd8a694e89ee,69b96036eb9addb4fccd898a,0.042,0.042,1,6,168,2,1,twoone,,,,,,,,,,,,,,,,,,,,,,,,,,,,,,,,,,,,,,,,,,,,,,,,,,,,,,,,,,,,,,,,,,,,,,,,,,,,,,,,,,,,,,,,,,,,,,,,,,,,,,,,,,,,,,,,,,,,,,,,,,,,,,,,,,,,,,,,,
,,69831160674482b915185b49,2026-03-17_17h08.52.127,kallum_motion_pilot_GIST_update_2,2026.1.1,Win32,60.0240096,69831160674482b915185b49,69b95efdef24cd8a694e89ee,69b96036eb9addb4fccd898a,0.042,0.042,1,7,169,29,1,threefour,,,,,,,,,,,,,,,,,,,,,,,,,,,,,,,,,,,,,,,,,,,,,,,,,,,,,,,,,,,,,,,,,,,,,,,,,,,,,,,,,,,,,,,,,,,,,,,,,,,,,,,,,,,,,,,,,,,,,,,,,,,,,,,,,,,,,,,,,
,,69831160674482b915185b49,2026-03-17_17h08.52.127,kallum_motion_pilot_GIST_update_2,2026.1.1,Win32,60.0240096,69831160674482b915185b49,69b95efdef24cd8a694e89ee,69b96036eb9addb4fccd898a,0.042,0.042,1,8,170,92,1,sevenfive,,,,,,,,,,,,,,,,,,,,,,,,,,,,,,,,,,,,,,,,,,,,,,,,,,,,,,,,,,,,,,,,,,,,,,,,,,,,,,,,,,,,,,,,,,,,,,,,,,,,,,,,,,,,,,,,,,,,,,,,,,,,,,,,,,,,,,,,,
,,69831160674482b915185b49,2026-03-17_17h08.52.127,kallum_motion_pilot_GIST_update_2,2026.1.1,Win32,60.0240096,69831160674482b915185b49,69b95efdef24cd8a694e89ee,69b96036eb9addb4fccd898a,0.042,0.042,1,9,171,97,1,fiveseven,,,,,,,,,,,,,,,,,,,,,,,,,,,,,,,,,,,,,,,,,,,,,,,,,,,,,,,,,,,,,,,,,,,,,,,,,,,,,,,,,,,,,,,,,,,,,,,,,,,,,,,,,,,,,,,,,,,,,,,,,,,,,,,,,,,,,,,,,
,,69831160674482b915185b49,2026-03-17_17h08.52.127,kallum_motion_pilot_GIST_update_2,2026.1.1,Win32,60.0240096,69831160674482b915185b49,69b95efdef24cd8a694e89ee,69b96036eb9addb4fccd898a,0.042,0.042,1,10,172,133,1,seveneight,,,,,,,,,,,,,,,,,,,,,,,,,,,,,,,,,,,,,,,,,,,,,,,,,,,,,,,,,,,,,,,,,,,,,,,,,,,,,,,,,,,,,,,,,,,,,,,,,,,,,,,,,,,,,,,,,,,,,,,,,,,,,,,,,,,,,,,,,
,,69831160674482b915185b49,2026-03-17_17h08.52.127,kallum_motion_pilot_GIST_update_2,2026.1.1,Win32,60.0240096,69831160674482b915185b49,69b95efdef24cd8a694e89ee,69b96036eb9addb4fccd898a,0.042,0.042,1,11,173,130,1,sixfive,,,,,,,,,,,,,,,,,,,,,,,,,,,,,,,,,,,,,,,,,,,,,,,,,,,,,,,,,,,,,,,,,,,,,,,,,,,,,,,,,,,,,,,,,,,,,,,,,,,,,,,,,,,,,,,,,,,,,,,,,,,,,,,,,,,,,,,,,
,,69831160674482b915185b49,2026-03-17_17h08.52.127,kallum_motion_pilot_GIST_update_2,2026.1.1,Win32,60.0240096,69831160674482b915185b49,69b95efdef24cd8a694e89ee,69b96036eb9addb4fccd898a,0.042,0.042,1,12,174,16,1,onetwo,,,,,,,,,,,,,,,,,,,,,,,,,,,,,,,,,,,,,,,,,,,,,,,,,,,,,,,,,,,,,,,,,,,,,,,,,,,,,,,,,,,,,,,,,,,,,,,,,,,,,,,,,,,,,,,,,,,,,,,,,,,,,,,,,,,,,,,,,
,,69831160674482b915185b49,2026-03-17_17h08.52.127,kallum_motion_pilot_GIST_update_2,2026.1.1,Win32,60.0240096,69831160674482b915185b49,69b95efdef24cd8a694e89ee,69b96036eb9addb4fccd898a,0.043,0.043,1,13,175,157,1,seveneight,,,,,,,,,,,,,,,,,,,,,,,,,,,,,,,,,,,,,,,,,,,,,,,,,,,,,,,,,,,,,,,,,,,,,,,,,,,,,,,,,,,,,,,,,,,,,,,,,,,,,,,,,,,,,,,,,,,,,,,,,,,,,,,,,,,,,,,,,
,,69831160674482b915185b49,2026-03-17_17h08.52.127,kallum_motion_pilot_GIST_update_2,2026.1.1,Win32,60.0240096,69831160674482b915185b49,69b95efdef24cd8a694e89ee,69b96036eb9addb4fccd898a,0.043,0.043,1,14,176,82,1,sixfive,,,,,,,,,,,,,,,,,,,,,,,,,,,,,,,,,,,,,,,,,,,,,,,,,,,,,,,,,,,,,,,,,,,,,,,,,,,,,,,,,,,,,,,,,,,,,,,,,,,,,,,,,,,,,,,,,,,,,,,,,,,,,,,,,,,,,,,,,
,,69831160674482b915185b49,2026-03-17_17h08.52.127,kallum_motion_pilot_GIST_update_2,2026.1.1,Win32,60.0240096,69831160674482b915185b49,69b95efdef24cd8a694e89ee,69b96036eb9addb4fccd898a,0.043,0.043,1,15,177,11,1,twofour,,,,,,,,,,,,,,,,,,,,,,,,,,,,,,,,,,,,,,,,,,,,,,,,,,,,,,,,,,,,,,,,,,,,,,,,,,,,,,,,,,,,,,,,,,,,,,,,,,,,,,,,,,,,,,,,,,,,,,,,,,,,,,,,,,,,,,,,,
,,69831160674482b915185b49,2026-03-17_17h08.52.127,kallum_motion_pilot_GIST_update_2,2026.1.1,Win32,60.0240096,69831160674482b915185b49,69b95efdef24cd8a694e89ee,69b96036eb9addb4fccd898a,0.043,0.043,1,16,178,132,1,sevenfive,,,,,,,,,,,,,,,,,,,,,,,,,,,,,,,,,,,,,,,,,,,,,,,,,,,,,,,,,,,,,,,,,,,,,,,,,,,,,,,,,,,,,,,,,,,,,,,,,,,,,,,,,,,,,,,,,,,,,,,,,,,,,,,,,,,,,,,,,
,,69831160674482b915185b49,2026-03-17_17h08.52.127,kallum_motion_pilot_GIST_update_2,2026.1.1,Win32,60.0240096,69831160674482b915185b49,69b95efdef24cd8a694e89ee,69b96036eb9addb4fccd898a,0.043,0.043,1,17,179,161,1,fiveseven,,,,,,,,,,,,,,,,,,,,,,,,,,,,,,,,,,,,,,,,,,,,,,,,,,,,,,,,,,,,,,,,,,,,,,,,,,,,,,,,,,,,,,,,,,,,,,,,,,,,,,,,,,,,,,,,,,,,,,,,,,,,,,,,,,,,,,,,,
,,69831160674482b915185b49,2026-03-17_17h08.52.127,kallum_motion_pilot_GIST_update_2,2026.1.1,Win32,60.0240096,69831160674482b915185b49,69b95efdef24cd8a694e89ee,69b96036eb9addb4fccd898a,0.043,0.043,1,18,180,28,1,threeone,,,,,,,,,,,,,,,,,,,,,,,,,,,,,,,,,,,,,,,,,,,,,,,,,,,,,,,,,,,,,,,,,,,,,,,,,,,,,,,,,,,,,,,,,,,,,,,,,,,,,,,,,,,,,,,,,,,,,,,,,,,,,,,,,,,,,,,,,
,,69831160674482b915185b49,2026-03-17_17h08.52.127,kallum_motion_pilot_GIST_update_2,2026.1.1,Win32,60.0240096,69831160674482b915185b49,69b95efdef24cd8a694e89ee,69b96036eb9addb4fccd898a,0.043,0.043,1,19,181,83,1,sixeight,,,,,,,,,,,,,,,,,,,,,,,,,,,,,,,,,,,,,,,,,,,,,,,,,,,,,,,,,,,,,,,,,,,,,,,,,,,,,,,,,,,,,,,,,,,,,,,,,,,,,,,,,,,,,,,,,,,,,,,,,,,,,,,,,,,,,,,,,
,,69831160674482b915185b49,2026-03-17_17h08.52.127,kallum_motion_pilot_GIST_update_2,2026.1.1,Win32,60.0240096,69831160674482b915185b49,69b95efdef24cd8a694e89ee,69b96036eb9addb4fccd898a,0.043,0.043,1,20,182,52,1,threeone,,,,,,,,,,,,,,,,,,,,,,,,,,,,,,,,,,,,,,,,,,,,,,,,,,,,,,,,,,,,,,,,,,,,,,,,,,,,,,,,,,,,,,,,,,,,,,,,,,,,,,,,,,,,,,,,,,,,,,,,,,,,,,,,,,,,,,,,,
,,69831160674482b915185b49,2026-03-17_17h08.52.127,kallum_motion_pilot_GIST_update_2,2026.1.1,Win32,60.0240096,69831160674482b915185b49,69b95efdef24cd8a694e89ee,69b96036eb9addb4fccd898a,0.043,0.043,1,21,183,32,1,onetwo,,,,,,,,,,,,,,,,,,,,,,,,,,,,,,,,,,,,,,,,,,,,,,,,,,,,,,,,,,,,,,,,,,,,,,,,,,,,,,,,,,,,,,,,,,,,,,,,,,,,,,,,,,,,,,,,,,,,,,,,,,,,,,,,,,,,,,,,,
,,69831160674482b915185b49,2026-03-17_17h08.52.127,kallum_motion_pilot_GIST_update_2,2026.1.1,Win32,60.0240096,69831160674482b915185b49,69b95efdef24cd8a694e89ee,69b96036eb9addb4fccd898a,0.043,0.043,1,22,184,70,1,fourtwo,,,,,,,,,,,,,,,,,,,,,,,,,,,,,,,,,,,,,,,,,,,,,,,,,,,,,,,,,,,,,,,,,,,,,,,,,,,,,,,,,,,,,,,,,,,,,,,,,,,,,,,,,,,,,,,,,,,,,,,,,,,,,,,,,,,,,,,,,
,,69831160674482b915185b49,2026-03-17_17h08.52.127,kallum_motion_pilot_GIST_update_2,2026.1.1,Win32,60.0240096,69831160674482b915185b49,69b95efdef24cd8a694e89ee,69b96036eb9addb4fccd898a,0.043,0.043,1,23,185,131,1,sixeight,,,,,,,,,,,,,,,,,,,,,,,,,,,,,,,,,,,,,,,,,,,,,,,,,,,,,,,,,,,,,,,,,,,,,,,,,,,,,,,,,,,,,,,,,,,,,,,,,,,,,,,,,,,,,,,,,,,,,,,,,,,,,,,,,,,,,,,,,
,,69831160674482b915185b49,2026-03-17_17h08.52.127,kallum_motion_pilot_GIST_update_2,2026.1.1,Win32,60.0240096,69831160674482b915185b49,69b95efdef24cd8a694e89ee,69b96036eb9addb4fccd898a,0.044,0.044,1,24,186,93,1,seveneight,,,,,,,,,,,,,,,,,,,,,,,,,,,,,,,,,,,,,,,,,,,,,,,,,,,,,,,,,,,,,,,,,,,,,,,,,,,,,,,,,,,,,,,,,,,,,,,,,,,,,,,,,,,,,,,,,,,,,,,,,,,,,,,,,,,,,,,,,
,,69831160674482b915185b49,2026-03-17_17h08.52.127,kallum_motion_pilot_GIST_update_2,2026.1.1,Win32,60.0240096,69831160674482b915185b49,69b95efdef24cd8a694e89ee,69b96036eb9addb4fccd898a,0.044,0.044,1,25,187,127,1,eightseven,,,,,,,,,,,,,,,,,,,,,,,,,,,,,,,,,,,,,,,,,,,,,,,,,,,,,,,,,,,,,,,,,,,,,,,,,,,,,,,,,,,,,,,,,,,,,,,,,,,,,,,,,,,,,,,,,,,,,,,,,,,,,,,,,,,,,,,,,
,,69831160674482b915185b49,2026-03-17_17h08.52.127,kallum_motion_pilot_GIST_update_2,2026.1.1,Win32,60.0240096,69831160674482b915185b49,69b95efdef24cd8a694e89ee,69b96036eb9addb4fccd898a,0.044,0.044,1,26,188,90,1,sixfive,,,,,,,,,,,,,,,,,,,,,,,,,,,,,,,,,,,,,,,,,,,,,,,,,,,,,,,,,,,,,,,,,,,,,,,,,,,,,,,,,,,,,,,,,,,,,,,,,,,,,,,,,,,,,,,,,,,,,,,,,,,,,,,,,,,,,,,,,
,,69831160674482b915185b49,2026-03-17_17h08.52.127,kallum_motion_pilot_GIST_update_2,2026.1.1,Win32,60.0240096,69831160674482b915185b49,69b95efdef24cd8a694e89ee,69b96036eb9addb4fccd898a,0.044,0.044,1,27,189,0,1,onetwo,,,,,,,,,,,,,,,,,,,,,,,,,,,,,,,,,,,,,,,,,,,,,,,,,,,,,,,,,,,,,,,,,,,,,,,,,,,,,,,,,,,,,,,,,,,,,,,,,,,,,,,,,,,,,,,,,,,,,,,,,,,,,,,,,,,,,,,,,
,,69831160674482b915185b49,2026-03-17_17h08.52.127,kallum_motion_pilot_GIST_update_2,2026.1.1,Win32,60.0240096,69831160674482b915185b49,69b95efdef24cd8a694e89ee,69b96036eb9addb4fccd898a,0.044,0.044,1,28,190,6,1,fourtwo,,,,,,,,,,,,,,,,,,,,,,,,,,,,,,,,,,,,,,,,,,,,,,,,,,,,,,,,,,,,,,,,,,,,,,,,,,,,,,,,,,,,,,,,,,,,,,,,,,,,,,,,,,,,,,,,,,,,,,,,,,,,,,,,,,,,,,,,,
,,69831160674482b915185b49,2026-03-17_17h08.52.127,kallum_motion_pilot_GIST_update_2,2026.1.1,Win32,60.0240096,69831160674482b915185b49,69b95efdef24cd8a694e89ee,69b96036eb9addb4fccd898a,0.044,0.044,1,29,191,75,1,twofour,,,,,,,,,,,,,,,,,,,,,,,,,,,,,,,,,,,,,,,,,,,,,,,,,,,,,,,,,,,,,,,,,,,,,,,,,,,,,,,,,,,,,,,,,,,,,,,,,,,,,,,,,,,,,,,,,,,,,,,,,,,,,,,,,,,,,,,,,
,,69831160674482b915185b49,2026-03-17_17h08.52.127,kallum_motion_pilot_GIST_update_2,2026.1.1,Win32,60.0240096,69831160674482b915185b49,69b95efdef24cd8a694e89ee,69b96036eb9addb4fccd898a,0.044,0.044,1,30,192,150,1,eightsix,,,,,,,,,,,,,,,,,,,,,,,,,,,,,,,,,,,,,,,,,,,,,,,,,,,,,,,,,,,,,,,,,,,,,,,,,,,,,,,,,,,,,,,,,,,,,,,,,,,,,,,,,,,,,,,,,,,,,,,,,,,,,,,,,,,,,,,,,
,,69831160674482b915185b49,2026-03-17_17h08.52.127,kallum_motion_pilot_GIST_update_2,2026.1.1,Win32,60.0240096,69831160674482b915185b49,69b95efdef24cd8a694e89ee,69b96036eb9addb4fccd898a,0.044,0.044,1,31,193,31,1,fourthree,,,,,,,,,,,,,,,,,,,,,,,,,,,,,,,,,,,,,,,,,,,,,,,,,,,,,,,,,,,,,,,,,,,,,,,,,,,,,,,,,,,,,,,,,,,,,,,,,,,,,,,,,,,,,,,,,,,,,,,,,,,,,,,,,,,,,,,,,
,,69831160674482b915185b49,2026-03-17_17h08.52.127,kallum_motion_pilot_GIST_update_2,2026.1.1,Win32,60.0240096,69831160674482b915185b49,69b95efdef24cd8a694e89ee,69b96036eb9addb4fccd898a,0.044,0.044,1,32,194,48,1,onetwo,,,,,,,,,,,,,,,,,,,,,,,,,,,,,,,,,,,,,,,,,,,,,,,,,,,,,,,,,,,,,,,,,,,,,,,,,,,,,,,,,,,,,,,,,,,,,,,,,,,,,,,,,,,,,,,,,,,,,,,,,,,,,,,,,,,,,,,,,
,,69831160674482b915185b49,2026-03-17_17h08.52.127,kallum_motion_pilot_GIST_update_2,2026.1.1,Win32,60.0240096,69831160674482b915185b49,69b95efdef24cd8a694e89ee,69b96036eb9addb4fccd898a,0.044,0.044,1,33,195,115,1,sixeight,,,,,,,,,,,,,,,,,,,,,,,,,,,,,,,,,,,,,,,,,,,,,,,,,,,,,,,,,,,,,,,,,,,,,,,,,,,,,,,,,,,,,,,,,,,,,,,,,,,,,,,,,,,,,,,,,,,,,,,,,,,,,,,,,,,,,,,,,
,,69831160674482b915185b49,2026-03-17_17h08.52.127,kallum_motion_pilot_GIST_update_2,2026.1.1,Win32,60.0240096,69831160674482b915185b49,69b95efdef24cd8a694e89ee,69b96036eb9addb4fccd898a,0.044,0.044,1,34,196,98,1,sixfive,,,,,,,,,,,,,,,,,,,,,,,,,,,,,,,,,,,,,,,,,,,,,,,,,,,,,,,,,,,,,,,,,,,,,,,,,,,,,,,,,,,,,,,,,,,,,,,,,,,,,,,,,,,,,,,,,,,,,,,,,,,,,,,,,,,,,,,,,
,,69831160674482b915185b49,2026-03-17_17h08.52.127,kallum_motion_pilot_GIST_update_2,2026.1.1,Win32,60.0240096,69831160674482b915185b49,69b95efdef24cd8a694e89ee,69b96036eb9addb4fccd898a,0.044,0.044,1,35,197,121,1,fiveseven,,,,,,,,,,,,,,,,,,,,,,,,,,,,,,,,,,,,,,,,,,,,,,,,,,,,,,,,,,,,,,,,,,,,,,,,,,,,,,,,,,,,,,,,,,,,,,,,,,,,,,,,,,,,,,,,,,,,,,,,,,,,,,,,,,,,,,,,,
,,69831160674482b915185b49,2026-03-17_17h08.52.127,kallum_motion_pilot_GIST_update_2,2026.1.1,Win32,60.0240096,69831160674482b915185b49,69b95efdef24cd8a694e89ee,69b96036eb9addb4fccd898a,0.044,0.044,1,36,198,40,1,onetwo,,,,,,,,,,,,,,,,,,,,,,,,,,,,,,,,,,,,,,,,,,,,,,,,,,,,,,,,,,,,,,,,,,,,,,,,,,,,,,,,,,,,,,,,,,,,,,,,,,,,,,,,,,,,,,,,,,,,,,,,,,,,,,,,,,,,,,,,,
,,69831160674482b915185b49,2026-03-17_17h08.52.127,kallum_motion_pilot_GIST_update_2,2026.1.1,Win32,60.0240096,69831160674482b915185b49,69b95efdef24cd8a694e89ee,69b96036eb9addb4fccd898a,0.044,0.044,1,37,199,30,1,fourtwo,,,,,,,,,,,,,,,,,,,,,,,,,,,,,,,,,,,,,,,,,,,,,,,,,,,,,,,,,,,,,,,,,,,,,,,,,,,,,,,,,,,,,,,,,,,,,,,,,,,,,,,,,,,,,,,,,,,,,,,,,,,,,,,,,,,,,,,,,
,,69831160674482b915185b49,2026-03-17_17h08.52.127,kallum_motion_pilot_GIST_update_2,2026.1.1,Win32,60.0240096,69831160674482b915185b49,69b95efdef24cd8a694e89ee,69b96036eb9addb4fccd898a,0.045,0.045,1,38,200,87,1,eightseven,,,,,,,,,,,,,,,,,,,,,,,,,,,,,,,,,,,,,,,,,,,,,,,,,,,,,,,,,,,,,,,,,,,,,,,,,,,,,,,,,,,,,,,,,,,,,,,,,,,,,,,,,,,,,,,,,,,,,,,,,,,,,,,,,,,,,,,,,
,,69831160674482b915185b49,2026-03-17_17h08.52.127,kallum_motion_pilot_GIST_update_2,2026.1.1,Win32,60.0240096,69831160674482b915185b49,69b95efdef24cd8a694e89ee,69b96036eb9addb4fccd898a,0.045,0.045,1,39,201,145,1,fiveseven,,,,,,,,,,,,,,,,,,,,,,,,,,,,,,,,,,,,,,,,,,,,,,,,,,,,,,,,,,,,,,,,,,,,,,,,,,,,,,,,,,,,,,,,,,,,,,,,,,,,,,,,,,,,,,,,,,,,,,,,,,,,,,,,,,,,,,,,,
,,69831160674482b915185b49,2026-03-17_17h08.52.127,kallum_motion_pilot_GIST_update_2,2026.1.1,Win32,60.0240096,69831160674482b915185b49,69b95efdef24cd8a694e89ee,69b96036eb9addb4fccd898a,0.045,0.045,1,40,202,66,1,twoone,,,,,,,,,,,,,,,,,,,,,,,,,,,,,,,,,,,,,,,,,,,,,,,,,,,,,,,,,,,,,,,,,,,,,,,,,,,,,,,,,,,,,,,,,,,,,,,,,,,,,,,,,,,,,,,,,,,,,,,,,,,,,,,,,,,,,,,,,
,,69831160674482b915185b49,2026-03-17_17h08.52.127,kallum_motion_pilot_GIST_update_2,2026.1.1,Win32,60.0240096,69831160674482b915185b49,69b95efdef24cd8a694e89ee,69b96036eb9addb4fccd898a,0.045,0.045,1,41,203,138,1,sixfive,,,,,,,,,,,,,,,,,,,,,,,,,,,,,,,,,,,,,,,,,,,,,,,,,,,,,,,,,,,,,,,,,,,,,,,,,,,,,,,,,,,,,,,,,,,,,,,,,,,,,,,,,,,,,,,,,,,,,,,,,,,,,,,,,,,,,,,,,
,,69831160674482b915185b49,2026-03-17_17h08.52.127,kallum_motion_pilot_GIST_update_2,2026.1.1,Win32,60.0240096,69831160674482b915185b49,69b95efdef24cd8a694e89ee,69b96036eb9addb4fccd898a,0.045,0.045,1,42,204,77,1,threefour,,,,,,,,,,,,,,,,,,,,,,,,,,,,,,,,,,,,,,,,,,,,,,,,,,,,,,,,,,,,,,,,,,,,,,,,,,,,,,,,,,,,,,,,,,,,,,,,,,,,,,,,,,,,,,,,,,,,,,,,,,,,,,,,,,,,,,,,,
,,69831160674482b915185b49,2026-03-17_17h08.52.127,kallum_motion_pilot_GIST_update_2,2026.1.1,Win32,60.0240096,69831160674482b915185b49,69b95efdef24cd8a694e89ee,69b96036eb9addb4fccd898a,0.045,0.045,1,43,205,68,1,threeone,,,,,,,,,,,,,,,,,,,,,,,,,,,,,,,,,,,,,,,,,,,,,,,,,,,,,,,,,,,,,,,,,,,,,,,,,,,,,,,,,,,,,,,,,,,,,,,,,,,,,,,,,,,,,,,,,,,,,,,,,,,,,,,,,,,,,,,,,
,,69831160674482b915185b49,2026-03-17_17h08.52.127,kallum_motion_pilot_GIST_update_2,2026.1.1,Win32,60.0240096,69831160674482b915185b49,69b95efdef24cd8a694e89ee,69b96036eb9addb4fccd898a,0.045,0.045,1,44,206,65,1,onethree,,,,,,,,,,,,,,,,,,,,,,,,,,,,,,,,,,,,,,,,,,,,,,,,,,,,,,,,,,,,,,,,,,,,,,,,,,,,,,,,,,,,,,,,,,,,,,,,,,,,,,,,,,,,,,,,,,,,,,,,,,,,,,,,,,,,,,,,,
,,69831160674482b915185b49,2026-03-17_17h08.52.127,kallum_motion_pilot_GIST_update_2,2026.1.1,Win32,60.0240096,69831160674482b915185b49,69b95efdef24cd8a694e89ee,69b96036eb9addb4fccd898a,0.046,0.046,1,45,207,45,1,threefour,,,,,,,,,,,,,,,,,,,,,,,,,,,,,,,,,,,,,,,,,,,,,,,,,,,,,,,,,,,,,,,,,,,,,,,,,,,,,,,,,,,,,,,,,,,,,,,,,,,,,,,,,,,,,,,,,,,,,,,,,,,,,,,,,,,,,,,,,
,,69831160674482b915185b49,2026-03-17_17h08.52.127,kallum_motion_pilot_GIST_update_2,2026.1.1,Win32,60.0240096,69831160674482b915185b49,69b95efdef24cd8a694e89ee,69b96036eb9addb4fccd898a,0.046,0.046,1,46,208,78,1,fourtwo,,,,,,,,,,,,,,,,,,,,,,,,,,,,,,,,,,,,,,,,,,,,,,,,,,,,,,,,,,,,,,,,,,,,,,,,,,,,,,,,,,,,,,,,,,,,,,,,,,,,,,,,,,,,,,,,,,,,,,,,,,,,,,,,,,,,,,,,,
,,69831160674482b915185b49,2026-03-17_17h08.52.127,kallum_motion_pilot_GIST_update_2,2026.1.1,Win32,60.0240096,69831160674482b915185b49,69b95efdef24cd8a694e89ee,69b96036eb9addb4fccd898a,0.046,0.046,1,47,209,122,1,sixfive,,,,,,,,,,,,,,,,,,,,,,,,,,,,,,,,,,,,,,,,,,,,,,,,,,,,,,,,,,,,,,,,,,,,,,,,,,,,,,,,,,,,,,,,,,,,,,,,,,,,,,,,,,,,,,,,,,,,,,,,,,,,,,,,,,,,,,,,,
,,69831160674482b915185b49,2026-03-17_17h08.52.127,kallum_motion_pilot_GIST_update_2,2026.1.1,Win32,60.0240096,69831160674482b915185b49,69b95efdef24cd8a694e89ee,69b96036eb9addb4fccd898a,0.046,0.046,1,48,210,69,1,threefour,,,,,,,,,,,,,,,,,,,,,,,,,,,,,,,,,,,,,,,,,,,,,,,,,,,,,,,,,,,,,,,,,,,,,,,,,,,,,,,,,,,,,,,,,,,,,,,,,,,,,,,,,,,,,,,,,,,,,,,,,,,,,,,,,,,,,,,,,
,,69831160674482b915185b49,2026-03-17_17h08.52.127,kallum_motion_pilot_GIST_update_2,2026.1.1,Win32,60.0240096,69831160674482b915185b49,69b95efdef24cd8a694e89ee,69b96036eb9addb4fccd898a,0.046,0.046,1,49,211,42,1,twoone,,,,,,,,,,,,,,,,,,,,,,,,,,,,,,,,,,,,,,,,,,,,,,,,,,,,,,,,,,,,,,,,,,,,,,,,,,,,,,,,,,,,,,,,,,,,,,,,,,,,,,,,,,,,,,,,,,,,,,,,,,,,,,,,,,,,,,,,,
,,69831160674482b915185b49,2026-03-17_17h08.52.127,kallum_motion_pilot_GIST_update_2,2026.1.1,Win32,60.0240096,69831160674482b915185b49,69b95efdef24cd8a694e89ee,69b96036eb9addb4fccd898a,0.046,0.046,1,50,212,73,1,onethree,,,,,,,,,,,,,,,,,,,,,,,,,,,,,,,,,,,,,,,,,,,,,,,,,,,,,,,,,,,,,,,,,,,,,,,,,,,,,,,,,,,,,,,,,,,,,,,,,,,,,,,,,,,,,,,,,,,,,,,,,,,,,,,,,,,,,,,,,
,,69831160674482b915185b49,2026-03-17_17h08.52.127,kallum_motion_pilot_GIST_update_2,2026.1.1,Win32,60.0240096,69831160674482b915185b49,69b95efdef24cd8a694e89ee,69b96036eb9addb4fccd898a,0.046,0.046,1,51,213,107,1,sixeight,,,,,,,,,,,,,,,,,,,,,,,,,,,,,,,,,,,,,,,,,,,,,,,,,,,,,,,,,,,,,,,,,,,,,,,,,,,,,,,,,,,,,,,,,,,,,,,,,,,,,,,,,,,,,,,,,,,,,,,,,,,,,,,,,,,,,,,,,
,,69831160674482b915185b49,2026-03-17_17h08.52.127,kallum_motion_pilot_GIST_update_2,2026.1.1,Win32,60.0240096,69831160674482b915185b49,69b95efdef24cd8a694e89ee,69b96036eb9addb4fccd898a,0.046,0.046,1,52,214,112,1,fivesix,,,,,,,,,,,,,,,,,,,,,,,,,,,,,,,,,,,,,,,,,,,,,,,,,,,,,,,,,,,,,,,,,,,,,,,,,,,,,,,,,,,,,,,,,,,,,,,,,,,,,,,,,,,,,,,,,,,,,,,,,,,,,,,,,,,,,,,,,
,,69831160674482b915185b49,2026-03-17_17h08.52.127,kallum_motion_pilot_GIST_update_2,2026.1.1,Win32,60.0240096,69831160674482b915185b49,69b95efdef24cd8a694e89ee,69b96036eb9addb4fccd898a,0.047,0.047,1,53,215,111,1,eightseven,,,,,,,,,,,,,,,,,,,,,,,,,,,,,,,,,,,,,,,,,,,,,,,,,,,,,,,,,,,,,,,,,,,,,,,,,,,,,,,,,,,,,,,,,,,,,,,,,,,,,,,,,,,,,,,,,,,,,,,,,,,,,,,,,,,,,,,,,
,,69831160674482b915185b49,2026-03-17_17h08.52.127,kallum_motion_pilot_GIST_update_2,2026.1.1,Win32,60.0240096,69831160674482b915185b49,69b95efdef24cd8a694e89ee,69b96036eb9addb4fccd898a,0.047,0.047,1,54,216,113,1,fiveseven,,,,,,,,,,,,,,,,,,,,,,,,,,,,,,,,,,,,,,,,,,,,,,,,,,,,,,,,,,,,,,,,,,,,,,,,,,,,,,,,,,,,,,,,,,,,,,,,,,,,,,,,,,,,,,,,,,,,,,,,,,,,,,,,,,,,,,,,,
,,69831160674482b915185b49,2026-03-17_17h08.52.127,kallum_motion_pilot_GIST_update_2,2026.1.1,Win32,60.0240096,69831160674482b915185b49,69b95efdef24cd8a694e89ee,69b96036eb9addb4fccd898a,0.047,0.047,1,55,217,57,1,onethree,,,,,,,,,,,,,,,,,,,,,,,,,,,,,,,,,,,,,,,,,,,,,,,,,,,,,,,,,,,,,,,,,,,,,,,,,,,,,,,,,,,,,,,,,,,,,,,,,,,,,,,,,,,,,,,,,,,,,,,,,,,,,,,,,,,,,,,,,
,,69831160674482b915185b49,2026-03-17_17h08.52.127,kallum_motion_pilot_GIST_update_2,2026.1.1,Win32,60.0240096,69831160674482b915185b49,69b95efdef24cd8a694e89ee,69b96036eb9addb4fccd898a,0.047,0.047,1,56,218,103,1,eightseven,,,,,,,,,,,,,,,,,,,,,,,,,,,,,,,,,,,,,,,,,,,,,,,,,,,,,,,,,,,,,,,,,,,,,,,,,,,,,,,,,,,,,,,,,,,,,,,,,,,,,,,,,,,,,,,,,,,,,,,,,,,,,,,,,,,,,,,,,
,,69831160674482b915185b49,2026-03-17_17h08.52.127,kallum_motion_pilot_GIST_update_2,2026.1.1,Win32,60.0240096,69831160674482b915185b49,69b95efdef24cd8a694e89ee,69b96036eb9addb4fccd898a,0.047,0.047,1,57,219,10,1,twoone,,,,,,,,,,,,,,,,,,,,,,,,,,,,,,,,,,,,,,,,,,,,,,,,,,,,,,,,,,,,,,,,,,,,,,,,,,,,,,,,,,,,,,,,,,,,,,,,,,,,,,,,,,,,,,,,,,,,,,,,,,,,,,,,,,,,,,,,,
,,69831160674482b915185b49,2026-03-17_17h08.52.127,kallum_motion_pilot_GIST_update_2,2026.1.1,Win32,60.0240096,69831160674482b915185b49,69b95efdef24cd8a694e89ee,69b96036eb9addb4fccd898a,0.047,0.047,1,58,220,38,1,fourtwo,,,,,,,,,,,,,,,,,,,,,,,,,,,,,,,,,,,,,,,,,,,,,,,,,,,,,,,,,,,,,,,,,,,,,,,,,,,,,,,,,,,,,,,,,,,,,,,,,,,,,,,,,,,,,,,,,,,,,,,,,,,,,,,,,,,,,,,,,
,,69831160674482b915185b49,2026-03-17_17h08.52.127,kallum_motion_pilot_GIST_update_2,2026.1.1,Win32,60.0240096,69831160674482b915185b49,69b95efdef24cd8a694e89ee,69b96036eb9addb4fccd898a,0.047,0.047,1,59,221,37,1,threefour,,,,,,,,,,,,,,,,,,,,,,,,,,,,,,,,,,,,,,,,,,,,,,,,,,,,,,,,,,,,,,,,,,,,,,,,,,,,,,,,,,,,,,,,,,,,,,,,,,,,,,,,,,,,,,,,,,,,,,,,,,,,,,,,,,,,,,,,,
,,69831160674482b915185b49,2026-03-17_17h08.52.127,kallum_motion_pilot_GIST_update_2,2026.1.1,Win32,60.0240096,69831160674482b915185b49,69b95efdef24cd8a694e89ee,69b96036eb9addb4fccd898a,0.047,0.047,1,60,222,134,1,eightsix,,,,,,,,,,,,,,,,,,,,,,,,,,,,,,,,,,,,,,,,,,,,,,,,,,,,,,,,,,,,,,,,,,,,,,,,,,,,,,,,,,,,,,,,,,,,,,,,,,,,,,,,,,,,,,,,,,,,,,,,,,,,,,,,,,,,,,,,,
,,69831160674482b915185b49,2026-03-17_17h08.52.127,kallum_motion_pilot_GIST_update_2,2026.1.1,Win32,60.0240096,69831160674482b915185b49,69b95efdef24cd8a694e89ee,69b96036eb9addb4fccd898a,0.047,0.047,1,61,223,143,1,eightseven,,,,,,,,,,,,,,,,,,,,,,,,,,,,,,,,,,,,,,,,,,,,,,,,,,,,,,,,,,,,,,,,,,,,,,,,,,,,,,,,,,,,,,,,,,,,,,,,,,,,,,,,,,,,,,,,,,,,,,,,,,,,,,,,,,,,,,,,,
,,69831160674482b915185b49,2026-03-17_17h08.52.127,kallum_motion_pilot_GIST_update_2,2026.1.1,Win32,60.0240096,69831160674482b915185b49,69b95efdef24cd8a694e89ee,69b96036eb9addb4fccd898a,0.047,0.047,1,62,224,109,1,seveneight,,,,,,,,,,,,,,,,,,,,,,,,,,,,,,,,,,,,,,,,,,,,,,,,,,,,,,,,,,,,,,,,,,,,,,,,,,,,,,,,,,,,,,,,,,,,,,,,,,,,,,,,,,,,,,,,,,,,,,,,,,,,,,,,,,,,,,,,,
,,69831160674482b915185b49,2026-03-17_17h08.52.127,kallum_motion_pilot_GIST_update_2,2026.1.1,Win32,60.0240096,69831160674482b915185b49,69b95efdef24cd8a694e89ee,69b96036eb9addb4fccd898a,0.048,0.048,1,63,225,136,1,fivesix,,,,,,,,,,,,,,,,,,,,,,,,,,,,,,,,,,,,,,,,,,,,,,,,,,,,,,,,,,,,,,,,,,,,,,,,,,,,,,,,,,,,,,,,,,,,,,,,,,,,,,,,,,,,,,,,,,,,,,,,,,,,,,,,,,,,,,,,,
,,69831160674482b915185b49,2026-03-17_17h08.52.127,kallum_motion_pilot_GIST_update_2,2026.1.1,Win32,60.0240096,69831160674482b915185b49,69b95efdef24cd8a694e89ee,69b96036eb9addb4fccd898a,0.048,0.048,1,64,226,46,1,fourtwo,,,,,,,,,,,,,,,,,,,,,,,,,,,,,,,,,,,,,,,,,,,,,,,,,,,,,,,,,,,,,,,,,,,,,,,,,,,,,,,,,,,,,,,,,,,,,,,,,,,,,,,,,,,,,,,,,,,,,,,,,,,,,,,,,,,,,,,,,
,,69831160674482b915185b49,2026-03-17_17h08.52.127,kallum_motion_pilot_GIST_update_2,2026.1.1,Win32,60.0240096,69831160674482b915185b49,69b95efdef24cd8a694e89ee,69b96036eb9addb4fccd898a,0.048,0.048,1,65,227,137,1,fiveseven,,,,,,,,,,,,,,,,,,,,,,,,,,,,,,,,,,,,,,,,,,,,,,,,,,,,,,,,,,,,,,,,,,,,,,,,,,,,,,,,,,,,,,,,,,,,,,,,,,,,,,,,,,,,,,,,,,,,,,,,,,,,,,,,,,,,,,,,,
,,69831160674482b915185b49,2026-03-17_17h08.52.127,kallum_motion_pilot_GIST_update_2,2026.1.1,Win32,60.0240096,69831160674482b915185b49,69b95efdef24cd8a694e89ee,69b96036eb9addb4fccd898a,0.048,0.048,1,66,228,95,1,eightseven,,,,,,,,,,,,,,,,,,,,,,,,,,,,,,,,,,,,,,,,,,,,,,,,,,,,,,,,,,,,,,,,,,,,,,,,,,,,,,,,,,,,,,,,,,,,,,,,,,,,,,,,,,,,,,,,,,,,,,,,,,,,,,,,,,,,,,,,,
,,69831160674482b915185b49,2026-03-17_17h08.52.127,kallum_motion_pilot_GIST_update_2,2026.1.1,Win32,60.0240096,69831160674482b915185b49,69b95efdef24cd8a694e89ee,69b96036eb9addb4fccd898a,0.048,0.048,1,67,229,147,1,sixeight,,,,,,,,,,,,,,,,,,,,,,,,,,,,,,,,,,,,,,,,,,,,,,,,,,,,,,,,,,,,,,,,,,,,,,,,,,,,,,,,,,,,,,,,,,,,,,,,,,,,,,,,,,,,,,,,,,,,,,,,,,,,,,,,,,,,,,,,,
,,69831160674482b915185b49,2026-03-17_17h08.52.127,kallum_motion_pilot_GIST_update_2,2026.1.1,Win32,60.0240096,69831160674482b915185b49,69b95efdef24cd8a694e89ee,69b96036eb9addb4fccd898a,0.048,0.048,1,68,230,110,1,eightsix,,,,,,,,,,,,,,,,,,,,,,,,,,,,,,,,,,,,,,,,,,,,,,,,,,,,,,,,,,,,,,,,,,,,,,,,,,,,,,,,,,,,,,,,,,,,,,,,,,,,,,,,,,,,,,,,,,,,,,,,,,,,,,,,,,,,,,,,,
,,69831160674482b915185b49,2026-03-17_17h08.52.127,kallum_motion_pilot_GIST_update_2,2026.1.1,Win32,60.0240096,69831160674482b915185b49,69b95efdef24cd8a694e89ee,69b96036eb9addb4fccd898a,0.048,0.048,1,69,231,79,1,eightseven,,,,,,,,,,,,,,,,,,,,,,,,,,,,,,,,,,,,,,,,,,,,,,,,,,,,,,,,,,,,,,,,,,,,,,,,,,,,,,,,,,,,,,,,,,,,,,,,,,,,,,,,,,,,,,,,,,,,,,,,,,,,,,,,,,,,,,,,,
,,69831160674482b915185b49,2026-03-17_17h08.52.127,kallum_motion_pilot_GIST_update_2,2026.1.1,Win32,60.0240096,69831160674482b915185b49,69b95efdef24cd8a694e89ee,69b96036eb9addb4fccd898a,0.048,0.048,1,70,232,21,1,threefour,,,,,,,,,,,,,,,,,,,,,,,,,,,,,,,,,,,,,,,,,,,,,,,,,,,,,,,,,,,,,,,,,,,,,,,,,,,,,,,,,,,,,,,,,,,,,,,,,,,,,,,,,,,,,,,,,,,,,,,,,,,,,,,,,,,,,,,,,
,,69831160674482b915185b49,2026-03-17_17h08.52.127,kallum_motion_pilot_GIST_update_2,2026.1.1,Win32,60.0240096,69831160674482b915185b49,69b95efdef24cd8a694e89ee,69b96036eb9addb4fccd898a,0.048,0.048,1,71,233,43,1,twofour,,,,,,,,,,,,,,,,,,,,,,,,,,,,,,,,,,,,,,,,,,,,,,,,,,,,,,,,,,,,,,,,,,,,,,,,,,,,,,,,,,,,,,,,,,,,,,,,,,,,,,,,,,,,,,,,,,,,,,,,,,,,,,,,,,,,,,,,,
,,69831160674482b915185b49,2026-03-17_17h08.52.127,kallum_motion_pilot_GIST_update_2,2026.1.1,Win32,60.0240096,69831160674482b915185b49,69b95efdef24cd8a694e89ee,69b96036eb9addb4fccd898a,0.048,0.048,1,72,234,84,1,sevenfive,,,,,,,,,,,,,,,,,,,,,,,,,,,,,,,,,,,,,,,,,,,,,,,,,,,,,,,,,,,,,,,,,,,,,,,,,,,,,,,,,,,,,,,,,,,,,,,,,,,,,,,,,,,,,,,,,,,,,,,,,,,,,,,,,,,,,,,,,
,,69831160674482b915185b49,2026-03-17_17h08.52.127,kallum_motion_pilot_GIST_update_2,2026.1.1,Win32,60.0240096,69831160674482b915185b49,69b95efdef24cd8a694e89ee,69b96036eb9addb4fccd898a,0.048,0.048,1,73,235,7,1,fourthree,,,,,,,,,,,,,,,,,,,,,,,,,,,,,,,,,,,,,,,,,,,,,,,,,,,,,,,,,,,,,,,,,,,,,,,,,,,,,,,,,,,,,,,,,,,,,,,,,,,,,,,,,,,,,,,,,,,,,,,,,,,,,,,,,,,,,,,,,
,,69831160674482b915185b49,2026-03-17_17h08.52.127,kallum_motion_pilot_GIST_update_2,2026.1.1,Win32,60.0240096,69831160674482b915185b49,69b95efdef24cd8a694e89ee,69b96036eb9addb4fccd898a,0.049,0.049,1,74,236,80,1,fivesix,,,,,,,,,,,,,,,,,,,,,,,,,,,,,,,,,,,,,,,,,,,,,,,,,,,,,,,,,,,,,,,,,,,,,,,,,,,,,,,,,,,,,,,,,,,,,,,,,,,,,,,,,,,,,,,,,,,,,,,,,,,,,,,,,,,,,,,,,
,,69831160674482b915185b49,2026-03-17_17h08.52.127,kallum_motion_pilot_GIST_update_2,2026.1.1,Win32,60.0240096,69831160674482b915185b49,69b95efdef24cd8a694e89ee,69b96036eb9addb4fccd898a,0.049,0.049,1,75,237,118,1,eightsix,,,,,,,,,,,,,,,,,,,,,,,,,,,,,,,,,,,,,,,,,,,,,,,,,,,,,,,,,,,,,,,,,,,,,,,,,,,,,,,,,,,,,,,,,,,,,,,,,,,,,,,,,,,,,,,,,,,,,,,,,,,,,,,,,,,,,,,,,
,,69831160674482b915185b49,2026-03-17_17h08.52.127,kallum_motion_pilot_GIST_update_2,2026.1.1,Win32,60.0240096,69831160674482b915185b49,69b95efdef24cd8a694e89ee,69b96036eb9addb4fccd898a,0.049,0.049,1,76,238,128,1,fivesix,,,,,,,,,,,,,,,,,,,,,,,,,,,,,,,,,,,,,,,,,,,,,,,,,,,,,,,,,,,,,,,,,,,,,,,,,,,,,,,,,,,,,,,,,,,,,,,,,,,,,,,,,,,,,,,,,,,,,,,,,,,,,,,,,,,,,,,,,
,,69831160674482b915185b49,2026-03-17_17h08.52.127,kallum_motion_pilot_GIST_update_2,2026.1.1,Win32,60.0240096,69831160674482b915185b49,69b95efdef24cd8a694e89ee,69b96036eb9addb4fccd898a,0.049,0.049,1,77,239,124,1,sevenfive,,,,,,,,,,,,,,,,,,,,,,,,,,,,,,,,,,,,,,,,,,,,,,,,,,,,,,,,,,,,,,,,,,,,,,,,,,,,,,,,,,,,,,,,,,,,,,,,,,,,,,,,,,,,,,,,,,,,,,,,,,,,,,,,,,,,,,,,,
,,69831160674482b915185b49,2026-03-17_17h08.52.127,kallum_motion_pilot_GIST_update_2,2026.1.1,Win32,60.0240096,69831160674482b915185b49,69b95efdef24cd8a694e89ee,69b96036eb9addb4fccd898a,0.049,0.049,1,78,240,125,1,seveneight,,,,,,,,,,,,,,,,,,,,,,,,,,,,,,,,,,,,,,,,,,,,,,,,,,,,,,,,,,,,,,,,,,,,,,,,,,,,,,,,,,,,,,,,,,,,,,,,,,,,,,,,,,,,,,,,,,,,,,,,,,,,,,,,,,,,,,,,,
,,69831160674482b915185b49,2026-03-17_17h08.52.127,kallum_motion_pilot_GIST_update_2,2026.1.1,Win32,60.0240096,69831160674482b915185b49,69b95efdef24cd8a694e89ee,69b96036eb9addb4fccd898a,0.049,0.049,1,79,241,72,1,onetwo,,,,,,,,,,,,,,,,,,,,,,,,,,,,,,,,,,,,,,,,,,,,,,,,,,,,,,,,,,,,,,,,,,,,,,,,,,,,,,,,,,,,,,,,,,,,,,,,,,,,,,,,,,,,,,,,,,,,,,,,,,,,,,,,,,,,,,,,,
,,69831160674482b915185b49,2026-03-17_17h08.52.127,kallum_motion_pilot_GIST_update_2,2026.1.1,Win32,60.0240096,69831160674482b915185b49,69b95efdef24cd8a694e89ee,69b96036eb9addb4fccd898a,0.049,0.049,1,80,242,154,1,sixfive,,,,,,,,,,,,,,,,,,,,,,,,,,,,,,,,,,,,,,,,,,,,,,,,,,,,,,,,,,,,,,,,,,,,,,,,,,,,,,,,,,,,,,,,,,,,,,,,,,,,,,,,,,,,,,,,,,,,,,,,,,,,,,,,,,,,,,,,,
,,69831160674482b915185b49,2026-03-17_17h08.52.127,kallum_motion_pilot_GIST_update_2,2026.1.1,Win32,60.0240096,69831160674482b915185b49,69b95efdef24cd8a694e89ee,69b96036eb9addb4fccd898a,0.049,0.049,1,81,243,159,1,eightseven,,,,,,,,,,,,,,,,,,,,,,,,,,,,,,,,,,,,,,,,,,,,,,,,,,,,,,,,,,,,,,,,,,,,,,,,,,,,,,,,,,,,,,,,,,,,,,,,,,,,,,,,,,,,,,,,,,,,,,,,,,,,,,,,,,,,,,,,,
,,69831160674482b915185b49,2026-03-17_17h08.52.127,kallum_motion_pilot_GIST_update_2,2026.1.1,Win32,60.0240096,69831160674482b915185b49,69b95efdef24cd8a694e89ee,69b96036eb9addb4fccd898a,0.049,0.049,1,82,244,61,1,threefour,,,,,,,,,,,,,,,,,,,,,,,,,,,,,,,,,,,,,,,,,,,,,,,,,,,,,,,,,,,,,,,,,,,,,,,,,,,,,,,,,,,,,,,,,,,,,,,,,,,,,,,,,,,,,,,,,,,,,,,,,,,,,,,,,,,,,,,,,
,,69831160674482b915185b49,2026-03-17_17h08.52.127,kallum_motion_pilot_GIST_update_2,2026.1.1,Win32,60.0240096,69831160674482b915185b49,69b95efdef24cd8a694e89ee,69b96036eb9addb4fccd898a,0.049,0.049,1,83,245,34,1,twoone,,,,,,,,,,,,,,,,,,,,,,,,,,,,,,,,,,,,,,,,,,,,,,,,,,,,,,,,,,,,,,,,,,,,,,,,,,,,,,,,,,,,,,,,,,,,,,,,,,,,,,,,,,,,,,,,,,,,,,,,,,,,,,,,,,,,,,,,,
,,69831160674482b915185b49,2026-03-17_17h08.52.127,kallum_motion_pilot_GIST_update_2,2026.1.1,Win32,60.0240096,69831160674482b915185b49,69b95efdef24cd8a694e89ee,69b96036eb9addb4fccd898a,0.049,0.049,1,84,246,91,1,sixeight,,,,,,,,,,,,,,,,,,,,,,,,,,,,,,,,,,,,,,,,,,,,,,,,,,,,,,,,,,,,,,,,,,,,,,,,,,,,,,,,,,,,,,,,,,,,,,,,,,,,,,,,,,,,,,,,,,,,,,,,,,,,,,,,,,,,,,,,,
,,69831160674482b915185b49,2026-03-17_17h08.52.127,kallum_motion_pilot_GIST_update_2,2026.1.1,Win32,60.0240096,69831160674482b915185b49,69b95efdef24cd8a694e89ee,69b96036eb9addb4fccd898a,0.049,0.049,1,85,247,55,1,fourthree,,,,,,,,,,,,,,,,,,,,,,,,,,,,,,,,,,,,,,,,,,,,,,,,,,,,,,,,,,,,,,,,,,,,,,,,,,,,,,,,,,,,,,,,,,,,,,,,,,,,,,,,,,,,,,,,,,,,,,,,,,,,,,,,,,,,,,,,,
,,69831160674482b915185b49,2026-03-17_17h08.52.127,kallum_motion_pilot_GIST_update_2,2026.1.1,Win32,60.0240096,69831160674482b915185b49,69b95efdef24cd8a694e89ee,69b96036eb9addb4fccd898a,0.05,0.05,1,86,248,105,1,fiveseven,,,,,,,,,,,,,,,,,,,,,,,,,,,,,,,,,,,,,,,,,,,,,,,,,,,,,,,,,,,,,,,,,,,,,,,,,,,,,,,,,,,,,,,,,,,,,,,,,,,,,,,,,,,,,,,,,,,,,,,,,,,,,,,,,,,,,,,,,
,,69831160674482b915185b49,2026-03-17_17h08.52.127,kallum_motion_pilot_GIST_update_2,2026.1.1,Win32,60.0240096,69831160674482b915185b49,69b95efdef24cd8a694e89ee,69b96036eb9addb4fccd898a,0.05,0.05,1,87,249,12,1,threeone,,,,,,,,,,,,,,,,,,,,,,,,,,,,,,,,,,,,,,,,,,,,,,,,,,,,,,,,,,,,,,,,,,,,,,,,,,,,,,,,,,,,,,,,,,,,,,,,,,,,,,,,,,,,,,,,,,,,,,,,,,,,,,,,,,,,,,,,,
,,69831160674482b915185b49,2026-03-17_17h08.52.127,kallum_motion_pilot_GIST_update_2,2026.1.1,Win32,60.0240096,69831160674482b915185b49,69b95efdef24cd8a694e89ee,69b96036eb9addb4fccd898a,0.05,0.05,1,88,250,85,1,seveneight,,,,,,,,,,,,,,,,,,,,,,,,,,,,,,,,,,,,,,,,,,,,,,,,,,,,,,,,,,,,,,,,,,,,,,,,,,,,,,,,,,,,,,,,,,,,,,,,,,,,,,,,,,,,,,,,,,,,,,,,,,,,,,,,,,,,,,,,,
,,69831160674482b915185b49,2026-03-17_17h08.52.127,kallum_motion_pilot_GIST_update_2,2026.1.1,Win32,60.0240096,69831160674482b915185b49,69b95efdef24cd8a694e89ee,69b96036eb9addb4fccd898a,0.05,0.05,1,89,251,141,1,seveneight,,,,,,,,,,,,,,,,,,,,,,,,,,,,,,,,,,,,,,,,,,,,,,,,,,,,,,,,,,,,,,,,,,,,,,,,,,,,,,,,,,,,,,,,,,,,,,,,,,,,,,,,,,,,,,,,,,,,,,,,,,,,,,,,,,,,,,,,,
,,69831160674482b915185b49,2026-03-17_17h08.52.127,kallum_motion_pilot_GIST_update_2,2026.1.1,Win32,60.0240096,69831160674482b915185b49,69b95efdef24cd8a694e89ee,69b96036eb9addb4fccd898a,0.05,0.05,1,90,252,62,1,fourtwo,,,,,,,,,,,,,,,,,,,,,,,,,,,,,,,,,,,,,,,,,,,,,,,,,,,,,,,,,,,,,,,,,,,,,,,,,,,,,,,,,,,,,,,,,,,,,,,,,,,,,,,,,,,,,,,,,,,,,,,,,,,,,,,,,,,,,,,,,
,,69831160674482b915185b49,2026-03-17_17h08.52.127,kallum_motion_pilot_GIST_update_2,2026.1.1,Win32,60.0240096,69831160674482b915185b49,69b95efdef24cd8a694e89ee,69b96036eb9addb4fccd898a,0.05,0.05,1,91,253,54,1,fourtwo,,,,,,,,,,,,,,,,,,,,,,,,,,,,,,,,,,,,,,,,,,,,,,,,,,,,,,,,,,,,,,,,,,,,,,,,,,,,,,,,,,,,,,,,,,,,,,,,,,,,,,,,,,,,,,,,,,,,,,,,,,,,,,,,,,,,,,,,,
,,69831160674482b915185b49,2026-03-17_17h08.52.127,kallum_motion_pilot_GIST_update_2,2026.1.1,Win32,60.0240096,69831160674482b915185b49,69b95efdef24cd8a694e89ee,69b96036eb9addb4fccd898a,0.05,0.05,1,92,254,53,1,threefour,,,,,,,,,,,,,,,,,,,,,,,,,,,,,,,,,,,,,,,,,,,,,,,,,,,,,,,,,,,,,,,,,,,,,,,,,,,,,,,,,,,,,,,,,,,,,,,,,,,,,,,,,,,,,,,,,,,,,,,,,,,,,,,,,,,,,,,,,
,,69831160674482b915185b49,2026-03-17_17h08.52.127,kallum_motion_pilot_GIST_update_2,2026.1.1,Win32,60.0240096,69831160674482b915185b49,69b95efdef24cd8a694e89ee,69b96036eb9addb4fccd898a,0.05,0.05,1,93,255,160,1,fivesix,,,,,,,,,,,,,,,,,,,,,,,,,,,,,,,,,,,,,,,,,,,,,,,,,,,,,,,,,,,,,,,,,,,,,,,,,,,,,,,,,,,,,,,,,,,,,,,,,,,,,,,,,,,,,,,,,,,,,,,,,,,,,,,,,,,,,,,,,
,,69831160674482b915185b49,2026-03-17_17h08.52.127,kallum_motion_pilot_GIST_update_2,2026.1.1,Win32,60.0240096,69831160674482b915185b49,69b95efdef24cd8a694e89ee,69b96036eb9addb4fccd898a,0.05,0.05,1,94,256,60,1,threeone,,,,,,,,,,,,,,,,,,,,,,,,,,,,,,,,,,,,,,,,,,,,,,,,,,,,,,,,,,,,,,,,,,,,,,,,,,,,,,,,,,,,,,,,,,,,,,,,,,,,,,,,,,,,,,,,,,,,,,,,,,,,,,,,,,,,,,,,,
,,69831160674482b915185b49,2026-03-17_17h08.52.127,kallum_motion_pilot_GIST_update_2,2026.1.1,Win32,60.0240096,69831160674482b915185b49,69b95efdef24cd8a694e89ee,69b96036eb9addb4fccd898a,0.05,0.05,1,95,257,144,1,fivesix,,,,,,,,,,,,,,,,,,,,,,,,,,,,,,,,,,,,,,,,,,,,,,,,,,,,,,,,,,,,,,,,,,,,,,,,,,,,,,,,,,,,,,,,,,,,,,,,,,,,,,,,,,,,,,,,,,,,,,,,,,,,,,,,,,,,,,,,,
,,69831160674482b915185b49,2026-03-17_17h08.52.127,kallum_motion_pilot_GIST_update_2,2026.1.1,Win32,60.0240096,69831160674482b915185b49,69b95efdef24cd8a694e89ee,69b96036eb9addb4fccd898a,0.05,0.05,1,96,258,18,1,twoone,,,,,,,,,,,,,,,,,,,,,,,,,,,,,,,,,,,,,,,,,,,,,,,,,,,,,,,,,,,,,,,,,,,,,,,,,,,,,,,,,,,,,,,,,,,,,,,,,,,,,,,,,,,,,,,,,,,,,,,,,,,,,,,,,,,,,,,,,
,,69831160674482b915185b49,2026-03-17_17h08.52.127,kallum_motion_pilot_GIST_update_2,2026.1.1,Win32,60.0240096,69831160674482b915185b49,69b95efdef24cd8a694e89ee,69b96036eb9addb4fccd898a,0.05,0.05,1,97,259,142,1,eightsix,,,,,,,,,,,,,,,,,,,,,,,,,,,,,,,,,,,,,,,,,,,,,,,,,,,,,,,,,,,,,,,,,,,,,,,,,,,,,,,,,,,,,,,,,,,,,,,,,,,,,,,,,,,,,,,,,,,,,,,,,,,,,,,,,,,,,,,,,
,,69831160674482b915185b49,2026-03-17_17h08.52.127,kallum_motion_pilot_GIST_update_2,2026.1.1,Win32,60.0240096,69831160674482b915185b49,69b95efdef24cd8a694e89ee,69b96036eb9addb4fccd898a,0.051,0.051,1,98,260,47,1,fourthree,,,,,,,,,,,,,,,,,,,,,,,,,,,,,,,,,,,,,,,,,,,,,,,,,,,,,,,,,,,,,,,,,,,,,,,,,,,,,,,,,,,,,,,,,,,,,,,,,,,,,,,,,,,,,,,,,,,,,,,,,,,,,,,,,,,,,,,,,
,,69831160674482b915185b49,2026-03-17_17h08.52.127,kallum_motion_pilot_GIST_update_2,2026.1.1,Win32,60.0240096,69831160674482b915185b49,69b95efdef24cd8a694e89ee,69b96036eb9addb4fccd898a,0.051,0.051,1,99,261,156,1,sevenfive,,,,,,,,,,,,,,,,,,,,,,,,,,,,,,,,,,,,,,,,,,,,,,,,,,,,,,,,,,,,,,,,,,,,,,,,,,,,,,,,,,,,,,,,,,,,,,,,,,,,,,,,,,,,,,,,,,,,,,,,,,,,,,,,,,,,,,,,,
,,69831160674482b915185b49,2026-03-17_17h08.52.127,kallum_motion_pilot_GIST_update_2,2026.1.1,Win32,60.0240096,69831160674482b915185b49,69b95efdef24cd8a694e89ee,69b96036eb9addb4fccd898a,0.051,0.051,1,100,262,88,1,fivesix,,,,,,,,,,,,,,,,,,,,,,,,,,,,,,,,,,,,,,,,,,,,,,,,,,,,,,,,,,,,,,,,,,,,,,,,,,,,,,,,,,,,,,,,,,,,,,,,,,,,,,,,,,,,,,,,,,,,,,,,,,,,,,,,,,,,,,,,,
,,69831160674482b915185b49,2026-03-17_17h08.52.127,kallum_motion_pilot_GIST_update_2,2026.1.1,Win32,60.0240096,69831160674482b915185b49,69b95efdef24cd8a694e89ee,69b96036eb9addb4fccd898a,0.051,0.051,1,101,263,155,1,sixeight,,,,,,,,,,,,,,,,,,,,,,,,,,,,,,,,,,,,,,,,,,,,,,,,,,,,,,,,,,,,,,,,,,,,,,,,,,,,,,,,,,,,,,,,,,,,,,,,,,,,,,,,,,,,,,,,,,,,,,,,,,,,,,,,,,,,,,,,,
,,69831160674482b915185b49,2026-03-17_17h08.52.127,kallum_motion_pilot_GIST_update_2,2026.1.1,Win32,60.0240096,69831160674482b915185b49,69b95efdef24cd8a694e89ee,69b96036eb9addb4fccd898a,0.051,0.051,1,102,264,58,1,twoone,,,,,,,,,,,,,,,,,,,,,,,,,,,,,,,,,,,,,,,,,,,,,,,,,,,,,,,,,,,,,,,,,,,,,,,,,,,,,,,,,,,,,,,,,,,,,,,,,,,,,,,,,,,,,,,,,,,,,,,,,,,,,,,,,,,,,,,,,
,,69831160674482b915185b49,2026-03-17_17h08.52.127,kallum_motion_pilot_GIST_update_2,2026.1.1,Win32,60.0240096,69831160674482b915185b49,69b95efdef24cd8a694e89ee,69b96036eb9addb4fccd898a,0.051,0.051,1,103,265,114,1,sixfive,,,,,,,,,,,,,,,,,,,,,,,,,,,,,,,,,,,,,,,,,,,,,,,,,,,,,,,,,,,,,,,,,,,,,,,,,,,,,,,,,,,,,,,,,,,,,,,,,,,,,,,,,,,,,,,,,,,,,,,,,,,,,,,,,,,,,,,,,
,,69831160674482b915185b49,2026-03-17_17h08.52.127,kallum_motion_pilot_GIST_update_2,2026.1.1,Win32,60.0240096,69831160674482b915185b49,69b95efdef24cd8a694e89ee,69b96036eb9addb4fccd898a,0.051,0.051,1,104,266,153,1,fiveseven,,,,,,,,,,,,,,,,,,,,,,,,,,,,,,,,,,,,,,,,,,,,,,,,,,,,,,,,,,,,,,,,,,,,,,,,,,,,,,,,,,,,,,,,,,,,,,,,,,,,,,,,,,,,,,,,,,,,,,,,,,,,,,,,,,,,,,,,,
,,69831160674482b915185b49,2026-03-17_17h08.52.127,kallum_motion_pilot_GIST_update_2,2026.1.1,Win32,60.0240096,69831160674482b915185b49,69b95efdef24cd8a694e89ee,69b96036eb9addb4fccd898a,0.051,0.051,1,105,267,102,1,eightsix,,,,,,,,,,,,,,,,,,,,,,,,,,,,,,,,,,,,,,,,,,,,,,,,,,,,,,,,,,,,,,,,,,,,,,,,,,,,,,,,,,,,,,,,,,,,,,,,,,,,,,,,,,,,,,,,,,,,,,,,,,,,,,,,,,,,,,,,,
,,69831160674482b915185b49,2026-03-17_17h08.52.127,kallum_motion_pilot_GIST_update_2,2026.1.1,Win32,60.0240096,69831160674482b915185b49,69b95efdef24cd8a694e89ee,69b96036eb9addb4fccd898a,0.051,0.051,1,106,268,117,1,seveneight,,,,,,,,,,,,,,,,,,,,,,,,,,,,,,,,,,,,,,,,,,,,,,,,,,,,,,,,,,,,,,,,,,,,,,,,,,,,,,,,,,,,,,,,,,,,,,,,,,,,,,,,,,,,,,,,,,,,,,,,,,,,,,,,,,,,,,,,,
