startup.started,startup.stopped,Prolific ID*,date,expName,psychopyVersion,OS,frameRate,participant,study_id,session,stimpositions.started,stimpositions.stopped,hardcoded_stimulus_positions.thisRepN,hardcoded_stimulus_positions.thisTrialN,hardcoded_stimulus_positions.thisN,hardcoded_stimulus_positions.thisIndex,hardcoded_stimulus_positions.ran,StimulusPos,stimorientation.started,stimorientation.stopped,prac_stimorientation_import_loop.thisRepN,prac_stimorientation_import_loop.thisTrialN,prac_stimorientation_import_loop.thisN,prac_stimorientation_import_loop.thisIndex,prac_stimorientation_import_loop.ran,Stimorientation,welcome_instr.started,welcome_instr.stopped,key_resp.keys,key_resp.rt,key_resp.duration,response_steppedout_1.started,response_steppedout_1.stopped,key_resp_20.keys,key_resp_20.rt,key_resp_20.duration,response_steppedout_2.started,response_steppedout_2.stopped,key_resp_19.keys,key_resp_19.rt,key_resp_19.duration,stim_response_instr.started,stim_response_instr.stopped,key_resp_15.keys,key_resp_15.rt,key_resp_15.duration,direction_instr_2.started,direction_instr_2.stopped,key_resp_9.keys,key_resp_9.rt,key_resp_9.duration,instr_prac.started,instr_prac.stopped,key_resp_10.keys,key_resp_10.rt,key_resp_10.duration,Stim1_display_prac.started,Stim1_display_prac.stopped,Ecc,Circle1_ori,Circle2_ori,response_prac.started,similarity,response_time,response_prac.stopped,mouse_5.x,mouse_5.y,mouse_5.leftButton,mouse_5.midButton,mouse_5.rightButton,mouse_5.clicked_name,responseprac_feedback.started,responseprac_feedback.stopped,summary2_prac.started,summary2_prac.stopped,mouse_6.x,mouse_6.y,mouse_6.leftButton,mouse_6.midButton,mouse_6.rightButton,mouse_6.clicked_name,duringprac.thisRepN,duringprac.thisTrialN,duringprac.thisN,duringprac.thisIndex,duringprac.ran,begin.started,begin.stopped,key_resp_22.keys,key_resp_22.rt,key_resp_22.duration,Stim1_display.started,Stim1_display.stopped,circle1_ori,circle2_ori,circle1_SF,circle2_SF,response.started,response.stopped,mouse.x,mouse.y,mouse.leftButton,mouse.midButton,mouse.rightButton,mouse.clicked_name,trialnumber,double_pass.thisRepN,double_pass.thisTrialN,double_pass.thisN,double_pass.thisIndex,double_pass.ran,double_pass.order,main_trial.thisRepN,main_trial.thisTrialN,main_trial.thisN,main_trial.thisIndex,main_trial.ran,main_trial.order,Trial_Counter,Catch,Frequencies,response_2.started,response_2.stopped,mouse_2.x,mouse_2.y,mouse_2.leftButton,mouse_2.midButton,mouse_2.rightButton,mouse_2.clicked_name,special_trial.started,special_trial.stopped,catch_1.started,catch_1.stopped,mouse_3.x,mouse_3.y,mouse_3.leftButton,mouse_3.midButton,mouse_3.rightButton,catchresponse,catchnumber,response_time_catch,response_sum.started,response_sum.stopped,mouse_11.x,mouse_11.y,mouse_11.leftButton,mouse_11.midButton,mouse_11.rightButton,flip_presentation_sequence_for_double_pass.started,flip_presentation_sequence_for_double_pass.stopped,goodbye.started,goodbye.stopped,key_resp_3.keys,key_resp_3.rt,key_resp_3.duration
0.0002,0.0002,6984b719db2917412dfc3135,2026-03-17_11h20.33.438,kallum_motion_pilot_GIST_update_2,2026.1.1,MacIntel,59.88023952,6984b719db2917412dfc3135,69b92ab4aef6dee357cd729a,69b92ae13f1a506ba98e780f,,,,,,,,,,,,,,,,,,,,,,,,,,,,,,,,,,,,,,,,,,,,,,,,,,,,,,,,,,,,,,,,,,,,,,,,,,,,,,,,,,,,,,,,,,,,,,,,,,,,,,,,,,,,,,,,,,,,,,,,,,,,,,,,,,,,,,,,,,,,,,,,,
,,6984b719db2917412dfc3135,2026-03-17_11h20.33.438,kallum_motion_pilot_GIST_update_2,2026.1.1,MacIntel,59.88023952,6984b719db2917412dfc3135,69b92ab4aef6dee357cd729a,69b92ae13f1a506ba98e780f,0.0141,0.0141,0,0,0,125,1,seveneight,,,,,,,,,,,,,,,,,,,,,,,,,,,,,,,,,,,,,,,,,,,,,,,,,,,,,,,,,,,,,,,,,,,,,,,,,,,,,,,,,,,,,,,,,,,,,,,,,,,,,,,,,,,,,,,,,,,,,,,,,,,,,,,,,,,,,,,,,
,,6984b719db2917412dfc3135,2026-03-17_11h20.33.438,kallum_motion_pilot_GIST_update_2,2026.1.1,MacIntel,59.88023952,6984b719db2917412dfc3135,69b92ab4aef6dee357cd729a,69b92ae13f1a506ba98e780f,0.0142,0.0142,0,1,1,105,1,fiveseven,,,,,,,,,,,,,,,,,,,,,,,,,,,,,,,,,,,,,,,,,,,,,,,,,,,,,,,,,,,,,,,,,,,,,,,,,,,,,,,,,,,,,,,,,,,,,,,,,,,,,,,,,,,,,,,,,,,,,,,,,,,,,,,,,,,,,,,,,
,,6984b719db2917412dfc3135,2026-03-17_11h20.33.438,kallum_motion_pilot_GIST_update_2,2026.1.1,MacIntel,59.88023952,6984b719db2917412dfc3135,69b92ab4aef6dee357cd729a,69b92ae13f1a506ba98e780f,0.0143,0.0143,0,2,2,82,1,sixfive,,,,,,,,,,,,,,,,,,,,,,,,,,,,,,,,,,,,,,,,,,,,,,,,,,,,,,,,,,,,,,,,,,,,,,,,,,,,,,,,,,,,,,,,,,,,,,,,,,,,,,,,,,,,,,,,,,,,,,,,,,,,,,,,,,,,,,,,,
,,6984b719db2917412dfc3135,2026-03-17_11h20.33.438,kallum_motion_pilot_GIST_update_2,2026.1.1,MacIntel,59.88023952,6984b719db2917412dfc3135,69b92ab4aef6dee357cd729a,69b92ae13f1a506ba98e780f,0.0143,0.0143,0,3,3,30,1,fourtwo,,,,,,,,,,,,,,,,,,,,,,,,,,,,,,,,,,,,,,,,,,,,,,,,,,,,,,,,,,,,,,,,,,,,,,,,,,,,,,,,,,,,,,,,,,,,,,,,,,,,,,,,,,,,,,,,,,,,,,,,,,,,,,,,,,,,,,,,,
,,6984b719db2917412dfc3135,2026-03-17_11h20.33.438,kallum_motion_pilot_GIST_update_2,2026.1.1,MacIntel,59.88023952,6984b719db2917412dfc3135,69b92ab4aef6dee357cd729a,69b92ae13f1a506ba98e780f,0.0145,0.0145,0,4,4,89,1,fiveseven,,,,,,,,,,,,,,,,,,,,,,,,,,,,,,,,,,,,,,,,,,,,,,,,,,,,,,,,,,,,,,,,,,,,,,,,,,,,,,,,,,,,,,,,,,,,,,,,,,,,,,,,,,,,,,,,,,,,,,,,,,,,,,,,,,,,,,,,,
,,6984b719db2917412dfc3135,2026-03-17_11h20.33.438,kallum_motion_pilot_GIST_update_2,2026.1.1,MacIntel,59.88023952,6984b719db2917412dfc3135,69b92ab4aef6dee357cd729a,69b92ae13f1a506ba98e780f,0.0145,0.0145,0,5,5,34,1,twoone,,,,,,,,,,,,,,,,,,,,,,,,,,,,,,,,,,,,,,,,,,,,,,,,,,,,,,,,,,,,,,,,,,,,,,,,,,,,,,,,,,,,,,,,,,,,,,,,,,,,,,,,,,,,,,,,,,,,,,,,,,,,,,,,,,,,,,,,,
,,6984b719db2917412dfc3135,2026-03-17_11h20.33.438,kallum_motion_pilot_GIST_update_2,2026.1.1,MacIntel,59.88023952,6984b719db2917412dfc3135,69b92ab4aef6dee357cd729a,69b92ae13f1a506ba98e780f,0.0145,0.0145,0,6,6,38,1,fourtwo,,,,,,,,,,,,,,,,,,,,,,,,,,,,,,,,,,,,,,,,,,,,,,,,,,,,,,,,,,,,,,,,,,,,,,,,,,,,,,,,,,,,,,,,,,,,,,,,,,,,,,,,,,,,,,,,,,,,,,,,,,,,,,,,,,,,,,,,,
,,6984b719db2917412dfc3135,2026-03-17_11h20.33.438,kallum_motion_pilot_GIST_update_2,2026.1.1,MacIntel,59.88023952,6984b719db2917412dfc3135,69b92ab4aef6dee357cd729a,69b92ae13f1a506ba98e780f,0.0146,0.0147,0,7,7,20,1,threeone,,,,,,,,,,,,,,,,,,,,,,,,,,,,,,,,,,,,,,,,,,,,,,,,,,,,,,,,,,,,,,,,,,,,,,,,,,,,,,,,,,,,,,,,,,,,,,,,,,,,,,,,,,,,,,,,,,,,,,,,,,,,,,,,,,,,,,,,,
,,6984b719db2917412dfc3135,2026-03-17_11h20.33.438,kallum_motion_pilot_GIST_update_2,2026.1.1,MacIntel,59.88023952,6984b719db2917412dfc3135,69b92ab4aef6dee357cd729a,69b92ae13f1a506ba98e780f,0.0147,0.0147,0,8,8,77,1,threefour,,,,,,,,,,,,,,,,,,,,,,,,,,,,,,,,,,,,,,,,,,,,,,,,,,,,,,,,,,,,,,,,,,,,,,,,,,,,,,,,,,,,,,,,,,,,,,,,,,,,,,,,,,,,,,,,,,,,,,,,,,,,,,,,,,,,,,,,,
,,6984b719db2917412dfc3135,2026-03-17_11h20.33.438,kallum_motion_pilot_GIST_update_2,2026.1.1,MacIntel,59.88023952,6984b719db2917412dfc3135,69b92ab4aef6dee357cd729a,69b92ae13f1a506ba98e780f,0.0149,0.0149,0,9,9,116,1,sevenfive,,,,,,,,,,,,,,,,,,,,,,,,,,,,,,,,,,,,,,,,,,,,,,,,,,,,,,,,,,,,,,,,,,,,,,,,,,,,,,,,,,,,,,,,,,,,,,,,,,,,,,,,,,,,,,,,,,,,,,,,,,,,,,,,,,,,,,,,,
,,6984b719db2917412dfc3135,2026-03-17_11h20.33.438,kallum_motion_pilot_GIST_update_2,2026.1.1,MacIntel,59.88023952,6984b719db2917412dfc3135,69b92ab4aef6dee357cd729a,69b92ae13f1a506ba98e780f,0.0149,0.0149,0,10,10,12,1,threeone,,,,,,,,,,,,,,,,,,,,,,,,,,,,,,,,,,,,,,,,,,,,,,,,,,,,,,,,,,,,,,,,,,,,,,,,,,,,,,,,,,,,,,,,,,,,,,,,,,,,,,,,,,,,,,,,,,,,,,,,,,,,,,,,,,,,,,,,,
,,6984b719db2917412dfc3135,2026-03-17_11h20.33.438,kallum_motion_pilot_GIST_update_2,2026.1.1,MacIntel,59.88023952,6984b719db2917412dfc3135,69b92ab4aef6dee357cd729a,69b92ae13f1a506ba98e780f,0.015,0.015,0,11,11,143,1,eightseven,,,,,,,,,,,,,,,,,,,,,,,,,,,,,,,,,,,,,,,,,,,,,,,,,,,,,,,,,,,,,,,,,,,,,,,,,,,,,,,,,,,,,,,,,,,,,,,,,,,,,,,,,,,,,,,,,,,,,,,,,,,,,,,,,,,,,,,,,
,,6984b719db2917412dfc3135,2026-03-17_11h20.33.438,kallum_motion_pilot_GIST_update_2,2026.1.1,MacIntel,59.88023952,6984b719db2917412dfc3135,69b92ab4aef6dee357cd729a,69b92ae13f1a506ba98e780f,0.015,0.015,0,12,12,146,1,sixfive,,,,,,,,,,,,,,,,,,,,,,,,,,,,,,,,,,,,,,,,,,,,,,,,,,,,,,,,,,,,,,,,,,,,,,,,,,,,,,,,,,,,,,,,,,,,,,,,,,,,,,,,,,,,,,,,,,,,,,,,,,,,,,,,,,,,,,,,,
,,6984b719db2917412dfc3135,2026-03-17_11h20.33.438,kallum_motion_pilot_GIST_update_2,2026.1.1,MacIntel,59.88023952,6984b719db2917412dfc3135,69b92ab4aef6dee357cd729a,69b92ae13f1a506ba98e780f,0.015,0.015,0,13,13,94,1,eightsix,,,,,,,,,,,,,,,,,,,,,,,,,,,,,,,,,,,,,,,,,,,,,,,,,,,,,,,,,,,,,,,,,,,,,,,,,,,,,,,,,,,,,,,,,,,,,,,,,,,,,,,,,,,,,,,,,,,,,,,,,,,,,,,,,,,,,,,,,
,,6984b719db2917412dfc3135,2026-03-17_11h20.33.438,kallum_motion_pilot_GIST_update_2,2026.1.1,MacIntel,59.88023952,6984b719db2917412dfc3135,69b92ab4aef6dee357cd729a,69b92ae13f1a506ba98e780f,0.0155,0.0155,0,14,14,56,1,onetwo,,,,,,,,,,,,,,,,,,,,,,,,,,,,,,,,,,,,,,,,,,,,,,,,,,,,,,,,,,,,,,,,,,,,,,,,,,,,,,,,,,,,,,,,,,,,,,,,,,,,,,,,,,,,,,,,,,,,,,,,,,,,,,,,,,,,,,,,,
,,6984b719db2917412dfc3135,2026-03-17_11h20.33.438,kallum_motion_pilot_GIST_update_2,2026.1.1,MacIntel,59.88023952,6984b719db2917412dfc3135,69b92ab4aef6dee357cd729a,69b92ae13f1a506ba98e780f,0.0156,0.0156,0,15,15,52,1,threeone,,,,,,,,,,,,,,,,,,,,,,,,,,,,,,,,,,,,,,,,,,,,,,,,,,,,,,,,,,,,,,,,,,,,,,,,,,,,,,,,,,,,,,,,,,,,,,,,,,,,,,,,,,,,,,,,,,,,,,,,,,,,,,,,,,,,,,,,,
,,6984b719db2917412dfc3135,2026-03-17_11h20.33.438,kallum_motion_pilot_GIST_update_2,2026.1.1,MacIntel,59.88023952,6984b719db2917412dfc3135,69b92ab4aef6dee357cd729a,69b92ae13f1a506ba98e780f,0.0156,0.0156,0,16,16,42,1,twoone,,,,,,,,,,,,,,,,,,,,,,,,,,,,,,,,,,,,,,,,,,,,,,,,,,,,,,,,,,,,,,,,,,,,,,,,,,,,,,,,,,,,,,,,,,,,,,,,,,,,,,,,,,,,,,,,,,,,,,,,,,,,,,,,,,,,,,,,,
,,6984b719db2917412dfc3135,2026-03-17_11h20.33.438,kallum_motion_pilot_GIST_update_2,2026.1.1,MacIntel,59.88023952,6984b719db2917412dfc3135,69b92ab4aef6dee357cd729a,69b92ae13f1a506ba98e780f,0.0156,0.0156,0,17,17,148,1,sevenfive,,,,,,,,,,,,,,,,,,,,,,,,,,,,,,,,,,,,,,,,,,,,,,,,,,,,,,,,,,,,,,,,,,,,,,,,,,,,,,,,,,,,,,,,,,,,,,,,,,,,,,,,,,,,,,,,,,,,,,,,,,,,,,,,,,,,,,,,,
,,6984b719db2917412dfc3135,2026-03-17_11h20.33.438,kallum_motion_pilot_GIST_update_2,2026.1.1,MacIntel,59.88023952,6984b719db2917412dfc3135,69b92ab4aef6dee357cd729a,69b92ae13f1a506ba98e780f,0.0157,0.0157,0,18,18,153,1,fiveseven,,,,,,,,,,,,,,,,,,,,,,,,,,,,,,,,,,,,,,,,,,,,,,,,,,,,,,,,,,,,,,,,,,,,,,,,,,,,,,,,,,,,,,,,,,,,,,,,,,,,,,,,,,,,,,,,,,,,,,,,,,,,,,,,,,,,,,,,,
,,6984b719db2917412dfc3135,2026-03-17_11h20.33.438,kallum_motion_pilot_GIST_update_2,2026.1.1,MacIntel,59.88023952,6984b719db2917412dfc3135,69b92ab4aef6dee357cd729a,69b92ae13f1a506ba98e780f,0.0157,0.0158,0,19,19,117,1,seveneight,,,,,,,,,,,,,,,,,,,,,,,,,,,,,,,,,,,,,,,,,,,,,,,,,,,,,,,,,,,,,,,,,,,,,,,,,,,,,,,,,,,,,,,,,,,,,,,,,,,,,,,,,,,,,,,,,,,,,,,,,,,,,,,,,,,,,,,,,
,,6984b719db2917412dfc3135,2026-03-17_11h20.33.438,kallum_motion_pilot_GIST_update_2,2026.1.1,MacIntel,59.88023952,6984b719db2917412dfc3135,69b92ab4aef6dee357cd729a,69b92ae13f1a506ba98e780f,0.0158,0.0158,0,20,20,128,1,fivesix,,,,,,,,,,,,,,,,,,,,,,,,,,,,,,,,,,,,,,,,,,,,,,,,,,,,,,,,,,,,,,,,,,,,,,,,,,,,,,,,,,,,,,,,,,,,,,,,,,,,,,,,,,,,,,,,,,,,,,,,,,,,,,,,,,,,,,,,,
,,6984b719db2917412dfc3135,2026-03-17_11h20.33.438,kallum_motion_pilot_GIST_update_2,2026.1.1,MacIntel,59.88023952,6984b719db2917412dfc3135,69b92ab4aef6dee357cd729a,69b92ae13f1a506ba98e780f,0.0159,0.0159,0,21,21,13,1,threefour,,,,,,,,,,,,,,,,,,,,,,,,,,,,,,,,,,,,,,,,,,,,,,,,,,,,,,,,,,,,,,,,,,,,,,,,,,,,,,,,,,,,,,,,,,,,,,,,,,,,,,,,,,,,,,,,,,,,,,,,,,,,,,,,,,,,,,,,,
,,6984b719db2917412dfc3135,2026-03-17_11h20.33.438,kallum_motion_pilot_GIST_update_2,2026.1.1,MacIntel,59.88023952,6984b719db2917412dfc3135,69b92ab4aef6dee357cd729a,69b92ae13f1a506ba98e780f,0.0159,0.0159,0,22,22,99,1,sixeight,,,,,,,,,,,,,,,,,,,,,,,,,,,,,,,,,,,,,,,,,,,,,,,,,,,,,,,,,,,,,,,,,,,,,,,,,,,,,,,,,,,,,,,,,,,,,,,,,,,,,,,,,,,,,,,,,,,,,,,,,,,,,,,,,,,,,,,,,
,,6984b719db2917412dfc3135,2026-03-17_11h20.33.438,kallum_motion_pilot_GIST_update_2,2026.1.1,MacIntel,59.88023952,6984b719db2917412dfc3135,69b92ab4aef6dee357cd729a,69b92ae13f1a506ba98e780f,0.016,0.016,0,23,23,147,1,sixeight,,,,,,,,,,,,,,,,,,,,,,,,,,,,,,,,,,,,,,,,,,,,,,,,,,,,,,,,,,,,,,,,,,,,,,,,,,,,,,,,,,,,,,,,,,,,,,,,,,,,,,,,,,,,,,,,,,,,,,,,,,,,,,,,,,,,,,,,,
,,6984b719db2917412dfc3135,2026-03-17_11h20.33.438,kallum_motion_pilot_GIST_update_2,2026.1.1,MacIntel,59.88023952,6984b719db2917412dfc3135,69b92ab4aef6dee357cd729a,69b92ae13f1a506ba98e780f,0.016,0.016,0,24,24,133,1,seveneight,,,,,,,,,,,,,,,,,,,,,,,,,,,,,,,,,,,,,,,,,,,,,,,,,,,,,,,,,,,,,,,,,,,,,,,,,,,,,,,,,,,,,,,,,,,,,,,,,,,,,,,,,,,,,,,,,,,,,,,,,,,,,,,,,,,,,,,,,
,,6984b719db2917412dfc3135,2026-03-17_11h20.33.438,kallum_motion_pilot_GIST_update_2,2026.1.1,MacIntel,59.88023952,6984b719db2917412dfc3135,69b92ab4aef6dee357cd729a,69b92ae13f1a506ba98e780f,0.016,0.016,0,25,25,7,1,fourthree,,,,,,,,,,,,,,,,,,,,,,,,,,,,,,,,,,,,,,,,,,,,,,,,,,,,,,,,,,,,,,,,,,,,,,,,,,,,,,,,,,,,,,,,,,,,,,,,,,,,,,,,,,,,,,,,,,,,,,,,,,,,,,,,,,,,,,,,,
,,6984b719db2917412dfc3135,2026-03-17_11h20.33.438,kallum_motion_pilot_GIST_update_2,2026.1.1,MacIntel,59.88023952,6984b719db2917412dfc3135,69b92ab4aef6dee357cd729a,69b92ae13f1a506ba98e780f,0.0161,0.0161,0,26,26,47,1,fourthree,,,,,,,,,,,,,,,,,,,,,,,,,,,,,,,,,,,,,,,,,,,,,,,,,,,,,,,,,,,,,,,,,,,,,,,,,,,,,,,,,,,,,,,,,,,,,,,,,,,,,,,,,,,,,,,,,,,,,,,,,,,,,,,,,,,,,,,,,
,,6984b719db2917412dfc3135,2026-03-17_11h20.33.438,kallum_motion_pilot_GIST_update_2,2026.1.1,MacIntel,59.88023952,6984b719db2917412dfc3135,69b92ab4aef6dee357cd729a,69b92ae13f1a506ba98e780f,0.0161,0.0161,0,27,27,136,1,fivesix,,,,,,,,,,,,,,,,,,,,,,,,,,,,,,,,,,,,,,,,,,,,,,,,,,,,,,,,,,,,,,,,,,,,,,,,,,,,,,,,,,,,,,,,,,,,,,,,,,,,,,,,,,,,,,,,,,,,,,,,,,,,,,,,,,,,,,,,,
,,6984b719db2917412dfc3135,2026-03-17_11h20.33.438,kallum_motion_pilot_GIST_update_2,2026.1.1,MacIntel,59.88023952,6984b719db2917412dfc3135,69b92ab4aef6dee357cd729a,69b92ae13f1a506ba98e780f,0.0162,0.0162,0,28,28,118,1,eightsix,,,,,,,,,,,,,,,,,,,,,,,,,,,,,,,,,,,,,,,,,,,,,,,,,,,,,,,,,,,,,,,,,,,,,,,,,,,,,,,,,,,,,,,,,,,,,,,,,,,,,,,,,,,,,,,,,,,,,,,,,,,,,,,,,,,,,,,,,
,,6984b719db2917412dfc3135,2026-03-17_11h20.33.438,kallum_motion_pilot_GIST_update_2,2026.1.1,MacIntel,59.88023952,6984b719db2917412dfc3135,69b92ab4aef6dee357cd729a,69b92ae13f1a506ba98e780f,0.0163,0.0163,0,29,29,123,1,sixeight,,,,,,,,,,,,,,,,,,,,,,,,,,,,,,,,,,,,,,,,,,,,,,,,,,,,,,,,,,,,,,,,,,,,,,,,,,,,,,,,,,,,,,,,,,,,,,,,,,,,,,,,,,,,,,,,,,,,,,,,,,,,,,,,,,,,,,,,,
,,6984b719db2917412dfc3135,2026-03-17_11h20.33.438,kallum_motion_pilot_GIST_update_2,2026.1.1,MacIntel,59.88023952,6984b719db2917412dfc3135,69b92ab4aef6dee357cd729a,69b92ae13f1a506ba98e780f,0.0163,0.0163,0,30,30,67,1,twofour,,,,,,,,,,,,,,,,,,,,,,,,,,,,,,,,,,,,,,,,,,,,,,,,,,,,,,,,,,,,,,,,,,,,,,,,,,,,,,,,,,,,,,,,,,,,,,,,,,,,,,,,,,,,,,,,,,,,,,,,,,,,,,,,,,,,,,,,,
,,6984b719db2917412dfc3135,2026-03-17_11h20.33.438,kallum_motion_pilot_GIST_update_2,2026.1.1,MacIntel,59.88023952,6984b719db2917412dfc3135,69b92ab4aef6dee357cd729a,69b92ae13f1a506ba98e780f,0.0163,0.0164,0,31,31,135,1,eightseven,,,,,,,,,,,,,,,,,,,,,,,,,,,,,,,,,,,,,,,,,,,,,,,,,,,,,,,,,,,,,,,,,,,,,,,,,,,,,,,,,,,,,,,,,,,,,,,,,,,,,,,,,,,,,,,,,,,,,,,,,,,,,,,,,,,,,,,,,
,,6984b719db2917412dfc3135,2026-03-17_11h20.33.438,kallum_motion_pilot_GIST_update_2,2026.1.1,MacIntel,59.88023952,6984b719db2917412dfc3135,69b92ab4aef6dee357cd729a,69b92ae13f1a506ba98e780f,0.0164,0.0164,0,32,32,151,1,eightseven,,,,,,,,,,,,,,,,,,,,,,,,,,,,,,,,,,,,,,,,,,,,,,,,,,,,,,,,,,,,,,,,,,,,,,,,,,,,,,,,,,,,,,,,,,,,,,,,,,,,,,,,,,,,,,,,,,,,,,,,,,,,,,,,,,,,,,,,,
,,6984b719db2917412dfc3135,2026-03-17_11h20.33.438,kallum_motion_pilot_GIST_update_2,2026.1.1,MacIntel,59.88023952,6984b719db2917412dfc3135,69b92ab4aef6dee357cd729a,69b92ae13f1a506ba98e780f,0.0165,0.0165,0,33,33,104,1,fivesix,,,,,,,,,,,,,,,,,,,,,,,,,,,,,,,,,,,,,,,,,,,,,,,,,,,,,,,,,,,,,,,,,,,,,,,,,,,,,,,,,,,,,,,,,,,,,,,,,,,,,,,,,,,,,,,,,,,,,,,,,,,,,,,,,,,,,,,,,
,,6984b719db2917412dfc3135,2026-03-17_11h20.33.438,kallum_motion_pilot_GIST_update_2,2026.1.1,MacIntel,59.88023952,6984b719db2917412dfc3135,69b92ab4aef6dee357cd729a,69b92ae13f1a506ba98e780f,0.0165,0.0165,0,34,34,87,1,eightseven,,,,,,,,,,,,,,,,,,,,,,,,,,,,,,,,,,,,,,,,,,,,,,,,,,,,,,,,,,,,,,,,,,,,,,,,,,,,,,,,,,,,,,,,,,,,,,,,,,,,,,,,,,,,,,,,,,,,,,,,,,,,,,,,,,,,,,,,,
,,6984b719db2917412dfc3135,2026-03-17_11h20.33.438,kallum_motion_pilot_GIST_update_2,2026.1.1,MacIntel,59.88023952,6984b719db2917412dfc3135,69b92ab4aef6dee357cd729a,69b92ae13f1a506ba98e780f,0.0165,0.0165,0,35,35,6,1,fourtwo,,,,,,,,,,,,,,,,,,,,,,,,,,,,,,,,,,,,,,,,,,,,,,,,,,,,,,,,,,,,,,,,,,,,,,,,,,,,,,,,,,,,,,,,,,,,,,,,,,,,,,,,,,,,,,,,,,,,,,,,,,,,,,,,,,,,,,,,,
,,6984b719db2917412dfc3135,2026-03-17_11h20.33.438,kallum_motion_pilot_GIST_update_2,2026.1.1,MacIntel,59.88023952,6984b719db2917412dfc3135,69b92ab4aef6dee357cd729a,69b92ae13f1a506ba98e780f,0.0166,0.0166,0,36,36,113,1,fiveseven,,,,,,,,,,,,,,,,,,,,,,,,,,,,,,,,,,,,,,,,,,,,,,,,,,,,,,,,,,,,,,,,,,,,,,,,,,,,,,,,,,,,,,,,,,,,,,,,,,,,,,,,,,,,,,,,,,,,,,,,,,,,,,,,,,,,,,,,,
,,6984b719db2917412dfc3135,2026-03-17_11h20.33.438,kallum_motion_pilot_GIST_update_2,2026.1.1,MacIntel,59.88023952,6984b719db2917412dfc3135,69b92ab4aef6dee357cd729a,69b92ae13f1a506ba98e780f,0.0166,0.0166,0,37,37,69,1,threefour,,,,,,,,,,,,,,,,,,,,,,,,,,,,,,,,,,,,,,,,,,,,,,,,,,,,,,,,,,,,,,,,,,,,,,,,,,,,,,,,,,,,,,,,,,,,,,,,,,,,,,,,,,,,,,,,,,,,,,,,,,,,,,,,,,,,,,,,,
,,6984b719db2917412dfc3135,2026-03-17_11h20.33.438,kallum_motion_pilot_GIST_update_2,2026.1.1,MacIntel,59.88023952,6984b719db2917412dfc3135,69b92ab4aef6dee357cd729a,69b92ae13f1a506ba98e780f,0.0167,0.0167,0,38,38,27,1,twofour,,,,,,,,,,,,,,,,,,,,,,,,,,,,,,,,,,,,,,,,,,,,,,,,,,,,,,,,,,,,,,,,,,,,,,,,,,,,,,,,,,,,,,,,,,,,,,,,,,,,,,,,,,,,,,,,,,,,,,,,,,,,,,,,,,,,,,,,,
,,6984b719db2917412dfc3135,2026-03-17_11h20.33.438,kallum_motion_pilot_GIST_update_2,2026.1.1,MacIntel,59.88023952,6984b719db2917412dfc3135,69b92ab4aef6dee357cd729a,69b92ae13f1a506ba98e780f,0.0167,0.0167,0,39,39,43,1,twofour,,,,,,,,,,,,,,,,,,,,,,,,,,,,,,,,,,,,,,,,,,,,,,,,,,,,,,,,,,,,,,,,,,,,,,,,,,,,,,,,,,,,,,,,,,,,,,,,,,,,,,,,,,,,,,,,,,,,,,,,,,,,,,,,,,,,,,,,,
,,6984b719db2917412dfc3135,2026-03-17_11h20.33.438,kallum_motion_pilot_GIST_update_2,2026.1.1,MacIntel,59.88023952,6984b719db2917412dfc3135,69b92ab4aef6dee357cd729a,69b92ae13f1a506ba98e780f,0.0167,0.0167,0,40,40,98,1,sixfive,,,,,,,,,,,,,,,,,,,,,,,,,,,,,,,,,,,,,,,,,,,,,,,,,,,,,,,,,,,,,,,,,,,,,,,,,,,,,,,,,,,,,,,,,,,,,,,,,,,,,,,,,,,,,,,,,,,,,,,,,,,,,,,,,,,,,,,,,
,,6984b719db2917412dfc3135,2026-03-17_11h20.33.438,kallum_motion_pilot_GIST_update_2,2026.1.1,MacIntel,59.88023952,6984b719db2917412dfc3135,69b92ab4aef6dee357cd729a,69b92ae13f1a506ba98e780f,0.0168,0.0168,0,41,41,37,1,threefour,,,,,,,,,,,,,,,,,,,,,,,,,,,,,,,,,,,,,,,,,,,,,,,,,,,,,,,,,,,,,,,,,,,,,,,,,,,,,,,,,,,,,,,,,,,,,,,,,,,,,,,,,,,,,,,,,,,,,,,,,,,,,,,,,,,,,,,,,
,,6984b719db2917412dfc3135,2026-03-17_11h20.33.438,kallum_motion_pilot_GIST_update_2,2026.1.1,MacIntel,59.88023952,6984b719db2917412dfc3135,69b92ab4aef6dee357cd729a,69b92ae13f1a506ba98e780f,0.0168,0.0168,0,42,42,131,1,sixeight,,,,,,,,,,,,,,,,,,,,,,,,,,,,,,,,,,,,,,,,,,,,,,,,,,,,,,,,,,,,,,,,,,,,,,,,,,,,,,,,,,,,,,,,,,,,,,,,,,,,,,,,,,,,,,,,,,,,,,,,,,,,,,,,,,,,,,,,,
,,6984b719db2917412dfc3135,2026-03-17_11h20.33.438,kallum_motion_pilot_GIST_update_2,2026.1.1,MacIntel,59.88023952,6984b719db2917412dfc3135,69b92ab4aef6dee357cd729a,69b92ae13f1a506ba98e780f,0.0169,0.0169,0,43,43,154,1,sixfive,,,,,,,,,,,,,,,,,,,,,,,,,,,,,,,,,,,,,,,,,,,,,,,,,,,,,,,,,,,,,,,,,,,,,,,,,,,,,,,,,,,,,,,,,,,,,,,,,,,,,,,,,,,,,,,,,,,,,,,,,,,,,,,,,,,,,,,,,
,,6984b719db2917412dfc3135,2026-03-17_11h20.33.438,kallum_motion_pilot_GIST_update_2,2026.1.1,MacIntel,59.88023952,6984b719db2917412dfc3135,69b92ab4aef6dee357cd729a,69b92ae13f1a506ba98e780f,0.0169,0.0169,0,44,44,91,1,sixeight,,,,,,,,,,,,,,,,,,,,,,,,,,,,,,,,,,,,,,,,,,,,,,,,,,,,,,,,,,,,,,,,,,,,,,,,,,,,,,,,,,,,,,,,,,,,,,,,,,,,,,,,,,,,,,,,,,,,,,,,,,,,,,,,,,,,,,,,,
,,6984b719db2917412dfc3135,2026-03-17_11h20.33.438,kallum_motion_pilot_GIST_update_2,2026.1.1,MacIntel,59.88023952,6984b719db2917412dfc3135,69b92ab4aef6dee357cd729a,69b92ae13f1a506ba98e780f,0.017,0.017,0,45,45,11,1,twofour,,,,,,,,,,,,,,,,,,,,,,,,,,,,,,,,,,,,,,,,,,,,,,,,,,,,,,,,,,,,,,,,,,,,,,,,,,,,,,,,,,,,,,,,,,,,,,,,,,,,,,,,,,,,,,,,,,,,,,,,,,,,,,,,,,,,,,,,,
,,6984b719db2917412dfc3135,2026-03-17_11h20.33.438,kallum_motion_pilot_GIST_update_2,2026.1.1,MacIntel,59.88023952,6984b719db2917412dfc3135,69b92ab4aef6dee357cd729a,69b92ae13f1a506ba98e780f,0.017,0.017,0,46,46,23,1,fourthree,,,,,,,,,,,,,,,,,,,,,,,,,,,,,,,,,,,,,,,,,,,,,,,,,,,,,,,,,,,,,,,,,,,,,,,,,,,,,,,,,,,,,,,,,,,,,,,,,,,,,,,,,,,,,,,,,,,,,,,,,,,,,,,,,,,,,,,,,
,,6984b719db2917412dfc3135,2026-03-17_11h20.33.438,kallum_motion_pilot_GIST_update_2,2026.1.1,MacIntel,59.88023952,6984b719db2917412dfc3135,69b92ab4aef6dee357cd729a,69b92ae13f1a506ba98e780f,0.017,0.0171,0,47,47,44,1,threeone,,,,,,,,,,,,,,,,,,,,,,,,,,,,,,,,,,,,,,,,,,,,,,,,,,,,,,,,,,,,,,,,,,,,,,,,,,,,,,,,,,,,,,,,,,,,,,,,,,,,,,,,,,,,,,,,,,,,,,,,,,,,,,,,,,,,,,,,,
,,6984b719db2917412dfc3135,2026-03-17_11h20.33.438,kallum_motion_pilot_GIST_update_2,2026.1.1,MacIntel,59.88023952,6984b719db2917412dfc3135,69b92ab4aef6dee357cd729a,69b92ae13f1a506ba98e780f,0.0171,0.0171,0,48,48,102,1,eightsix,,,,,,,,,,,,,,,,,,,,,,,,,,,,,,,,,,,,,,,,,,,,,,,,,,,,,,,,,,,,,,,,,,,,,,,,,,,,,,,,,,,,,,,,,,,,,,,,,,,,,,,,,,,,,,,,,,,,,,,,,,,,,,,,,,,,,,,,,
,,6984b719db2917412dfc3135,2026-03-17_11h20.33.438,kallum_motion_pilot_GIST_update_2,2026.1.1,MacIntel,59.88023952,6984b719db2917412dfc3135,69b92ab4aef6dee357cd729a,69b92ae13f1a506ba98e780f,0.0172,0.0172,0,49,49,45,1,threefour,,,,,,,,,,,,,,,,,,,,,,,,,,,,,,,,,,,,,,,,,,,,,,,,,,,,,,,,,,,,,,,,,,,,,,,,,,,,,,,,,,,,,,,,,,,,,,,,,,,,,,,,,,,,,,,,,,,,,,,,,,,,,,,,,,,,,,,,,
,,6984b719db2917412dfc3135,2026-03-17_11h20.33.438,kallum_motion_pilot_GIST_update_2,2026.1.1,MacIntel,59.88023952,6984b719db2917412dfc3135,69b92ab4aef6dee357cd729a,69b92ae13f1a506ba98e780f,0.0172,0.0172,0,50,50,84,1,sevenfive,,,,,,,,,,,,,,,,,,,,,,,,,,,,,,,,,,,,,,,,,,,,,,,,,,,,,,,,,,,,,,,,,,,,,,,,,,,,,,,,,,,,,,,,,,,,,,,,,,,,,,,,,,,,,,,,,,,,,,,,,,,,,,,,,,,,,,,,,
,,6984b719db2917412dfc3135,2026-03-17_11h20.33.438,kallum_motion_pilot_GIST_update_2,2026.1.1,MacIntel,59.88023952,6984b719db2917412dfc3135,69b92ab4aef6dee357cd729a,69b92ae13f1a506ba98e780f,0.0173,0.0173,0,51,51,132,1,sevenfive,,,,,,,,,,,,,,,,,,,,,,,,,,,,,,,,,,,,,,,,,,,,,,,,,,,,,,,,,,,,,,,,,,,,,,,,,,,,,,,,,,,,,,,,,,,,,,,,,,,,,,,,,,,,,,,,,,,,,,,,,,,,,,,,,,,,,,,,,
,,6984b719db2917412dfc3135,2026-03-17_11h20.33.438,kallum_motion_pilot_GIST_update_2,2026.1.1,MacIntel,59.88023952,6984b719db2917412dfc3135,69b92ab4aef6dee357cd729a,69b92ae13f1a506ba98e780f,0.0173,0.0173,0,52,52,149,1,seveneight,,,,,,,,,,,,,,,,,,,,,,,,,,,,,,,,,,,,,,,,,,,,,,,,,,,,,,,,,,,,,,,,,,,,,,,,,,,,,,,,,,,,,,,,,,,,,,,,,,,,,,,,,,,,,,,,,,,,,,,,,,,,,,,,,,,,,,,,,
,,6984b719db2917412dfc3135,2026-03-17_11h20.33.438,kallum_motion_pilot_GIST_update_2,2026.1.1,MacIntel,59.88023952,6984b719db2917412dfc3135,69b92ab4aef6dee357cd729a,69b92ae13f1a506ba98e780f,0.0173,0.0173,0,53,53,50,1,twoone,,,,,,,,,,,,,,,,,,,,,,,,,,,,,,,,,,,,,,,,,,,,,,,,,,,,,,,,,,,,,,,,,,,,,,,,,,,,,,,,,,,,,,,,,,,,,,,,,,,,,,,,,,,,,,,,,,,,,,,,,,,,,,,,,,,,,,,,,
,,6984b719db2917412dfc3135,2026-03-17_11h20.33.438,kallum_motion_pilot_GIST_update_2,2026.1.1,MacIntel,59.88023952,6984b719db2917412dfc3135,69b92ab4aef6dee357cd729a,69b92ae13f1a506ba98e780f,0.0174,0.0174,0,54,54,120,1,fivesix,,,,,,,,,,,,,,,,,,,,,,,,,,,,,,,,,,,,,,,,,,,,,,,,,,,,,,,,,,,,,,,,,,,,,,,,,,,,,,,,,,,,,,,,,,,,,,,,,,,,,,,,,,,,,,,,,,,,,,,,,,,,,,,,,,,,,,,,,
,,6984b719db2917412dfc3135,2026-03-17_11h20.33.438,kallum_motion_pilot_GIST_update_2,2026.1.1,MacIntel,59.88023952,6984b719db2917412dfc3135,69b92ab4aef6dee357cd729a,69b92ae13f1a506ba98e780f,0.0175,0.0175,0,55,55,48,1,onetwo,,,,,,,,,,,,,,,,,,,,,,,,,,,,,,,,,,,,,,,,,,,,,,,,,,,,,,,,,,,,,,,,,,,,,,,,,,,,,,,,,,,,,,,,,,,,,,,,,,,,,,,,,,,,,,,,,,,,,,,,,,,,,,,,,,,,,,,,,
,,6984b719db2917412dfc3135,2026-03-17_11h20.33.438,kallum_motion_pilot_GIST_update_2,2026.1.1,MacIntel,59.88023952,6984b719db2917412dfc3135,69b92ab4aef6dee357cd729a,69b92ae13f1a506ba98e780f,0.0175,0.0175,0,56,56,76,1,threeone,,,,,,,,,,,,,,,,,,,,,,,,,,,,,,,,,,,,,,,,,,,,,,,,,,,,,,,,,,,,,,,,,,,,,,,,,,,,,,,,,,,,,,,,,,,,,,,,,,,,,,,,,,,,,,,,,,,,,,,,,,,,,,,,,,,,,,,,,
,,6984b719db2917412dfc3135,2026-03-17_11h20.33.438,kallum_motion_pilot_GIST_update_2,2026.1.1,MacIntel,59.88023952,6984b719db2917412dfc3135,69b92ab4aef6dee357cd729a,69b92ae13f1a506ba98e780f,0.0175,0.0175,0,57,57,21,1,threefour,,,,,,,,,,,,,,,,,,,,,,,,,,,,,,,,,,,,,,,,,,,,,,,,,,,,,,,,,,,,,,,,,,,,,,,,,,,,,,,,,,,,,,,,,,,,,,,,,,,,,,,,,,,,,,,,,,,,,,,,,,,,,,,,,,,,,,,,,
,,6984b719db2917412dfc3135,2026-03-17_11h20.33.438,kallum_motion_pilot_GIST_update_2,2026.1.1,MacIntel,59.88023952,6984b719db2917412dfc3135,69b92ab4aef6dee357cd729a,69b92ae13f1a506ba98e780f,0.0176,0.0176,0,58,58,26,1,twoone,,,,,,,,,,,,,,,,,,,,,,,,,,,,,,,,,,,,,,,,,,,,,,,,,,,,,,,,,,,,,,,,,,,,,,,,,,,,,,,,,,,,,,,,,,,,,,,,,,,,,,,,,,,,,,,,,,,,,,,,,,,,,,,,,,,,,,,,,
,,6984b719db2917412dfc3135,2026-03-17_11h20.33.438,kallum_motion_pilot_GIST_update_2,2026.1.1,MacIntel,59.88023952,6984b719db2917412dfc3135,69b92ab4aef6dee357cd729a,69b92ae13f1a506ba98e780f,0.0176,0.0176,0,59,59,54,1,fourtwo,,,,,,,,,,,,,,,,,,,,,,,,,,,,,,,,,,,,,,,,,,,,,,,,,,,,,,,,,,,,,,,,,,,,,,,,,,,,,,,,,,,,,,,,,,,,,,,,,,,,,,,,,,,,,,,,,,,,,,,,,,,,,,,,,,,,,,,,,
,,6984b719db2917412dfc3135,2026-03-17_11h20.33.438,kallum_motion_pilot_GIST_update_2,2026.1.1,MacIntel,59.88023952,6984b719db2917412dfc3135,69b92ab4aef6dee357cd729a,69b92ae13f1a506ba98e780f,0.0176,0.0176,0,60,60,127,1,eightseven,,,,,,,,,,,,,,,,,,,,,,,,,,,,,,,,,,,,,,,,,,,,,,,,,,,,,,,,,,,,,,,,,,,,,,,,,,,,,,,,,,,,,,,,,,,,,,,,,,,,,,,,,,,,,,,,,,,,,,,,,,,,,,,,,,,,,,,,,
,,6984b719db2917412dfc3135,2026-03-17_11h20.33.438,kallum_motion_pilot_GIST_update_2,2026.1.1,MacIntel,59.88023952,6984b719db2917412dfc3135,69b92ab4aef6dee357cd729a,69b92ae13f1a506ba98e780f,0.0177,0.0177,0,61,61,61,1,threefour,,,,,,,,,,,,,,,,,,,,,,,,,,,,,,,,,,,,,,,,,,,,,,,,,,,,,,,,,,,,,,,,,,,,,,,,,,,,,,,,,,,,,,,,,,,,,,,,,,,,,,,,,,,,,,,,,,,,,,,,,,,,,,,,,,,,,,,,,
,,6984b719db2917412dfc3135,2026-03-17_11h20.33.438,kallum_motion_pilot_GIST_update_2,2026.1.1,MacIntel,59.88023952,6984b719db2917412dfc3135,69b92ab4aef6dee357cd729a,69b92ae13f1a506ba98e780f,0.0177,0.0177,0,62,62,59,1,twofour,,,,,,,,,,,,,,,,,,,,,,,,,,,,,,,,,,,,,,,,,,,,,,,,,,,,,,,,,,,,,,,,,,,,,,,,,,,,,,,,,,,,,,,,,,,,,,,,,,,,,,,,,,,,,,,,,,,,,,,,,,,,,,,,,,,,,,,,,
,,6984b719db2917412dfc3135,2026-03-17_11h20.33.438,kallum_motion_pilot_GIST_update_2,2026.1.1,MacIntel,59.88023952,6984b719db2917412dfc3135,69b92ab4aef6dee357cd729a,69b92ae13f1a506ba98e780f,0.0178,0.0178,0,63,63,60,1,threeone,,,,,,,,,,,,,,,,,,,,,,,,,,,,,,,,,,,,,,,,,,,,,,,,,,,,,,,,,,,,,,,,,,,,,,,,,,,,,,,,,,,,,,,,,,,,,,,,,,,,,,,,,,,,,,,,,,,,,,,,,,,,,,,,,,,,,,,,,
,,6984b719db2917412dfc3135,2026-03-17_11h20.33.438,kallum_motion_pilot_GIST_update_2,2026.1.1,MacIntel,59.88023952,6984b719db2917412dfc3135,69b92ab4aef6dee357cd729a,69b92ae13f1a506ba98e780f,0.0178,0.0178,0,64,64,53,1,threefour,,,,,,,,,,,,,,,,,,,,,,,,,,,,,,,,,,,,,,,,,,,,,,,,,,,,,,,,,,,,,,,,,,,,,,,,,,,,,,,,,,,,,,,,,,,,,,,,,,,,,,,,,,,,,,,,,,,,,,,,,,,,,,,,,,,,,,,,,
,,6984b719db2917412dfc3135,2026-03-17_11h20.33.438,kallum_motion_pilot_GIST_update_2,2026.1.1,MacIntel,59.88023952,6984b719db2917412dfc3135,69b92ab4aef6dee357cd729a,69b92ae13f1a506ba98e780f,0.0179,0.0179,0,65,65,144,1,fivesix,,,,,,,,,,,,,,,,,,,,,,,,,,,,,,,,,,,,,,,,,,,,,,,,,,,,,,,,,,,,,,,,,,,,,,,,,,,,,,,,,,,,,,,,,,,,,,,,,,,,,,,,,,,,,,,,,,,,,,,,,,,,,,,,,,,,,,,,,
,,6984b719db2917412dfc3135,2026-03-17_11h20.33.438,kallum_motion_pilot_GIST_update_2,2026.1.1,MacIntel,59.88023952,6984b719db2917412dfc3135,69b92ab4aef6dee357cd729a,69b92ae13f1a506ba98e780f,0.0179,0.0179,0,66,66,155,1,sixeight,,,,,,,,,,,,,,,,,,,,,,,,,,,,,,,,,,,,,,,,,,,,,,,,,,,,,,,,,,,,,,,,,,,,,,,,,,,,,,,,,,,,,,,,,,,,,,,,,,,,,,,,,,,,,,,,,,,,,,,,,,,,,,,,,,,,,,,,,
,,6984b719db2917412dfc3135,2026-03-17_11h20.33.438,kallum_motion_pilot_GIST_update_2,2026.1.1,MacIntel,59.88023952,6984b719db2917412dfc3135,69b92ab4aef6dee357cd729a,69b92ae13f1a506ba98e780f,0.018,0.018,0,67,67,130,1,sixfive,,,,,,,,,,,,,,,,,,,,,,,,,,,,,,,,,,,,,,,,,,,,,,,,,,,,,,,,,,,,,,,,,,,,,,,,,,,,,,,,,,,,,,,,,,,,,,,,,,,,,,,,,,,,,,,,,,,,,,,,,,,,,,,,,,,,,,,,,
,,6984b719db2917412dfc3135,2026-03-17_11h20.33.438,kallum_motion_pilot_GIST_update_2,2026.1.1,MacIntel,59.88023952,6984b719db2917412dfc3135,69b92ab4aef6dee357cd729a,69b92ae13f1a506ba98e780f,0.0181,0.0181,0,68,68,14,1,fourtwo,,,,,,,,,,,,,,,,,,,,,,,,,,,,,,,,,,,,,,,,,,,,,,,,,,,,,,,,,,,,,,,,,,,,,,,,,,,,,,,,,,,,,,,,,,,,,,,,,,,,,,,,,,,,,,,,,,,,,,,,,,,,,,,,,,,,,,,,,
,,6984b719db2917412dfc3135,2026-03-17_11h20.33.438,kallum_motion_pilot_GIST_update_2,2026.1.1,MacIntel,59.88023952,6984b719db2917412dfc3135,69b92ab4aef6dee357cd729a,69b92ae13f1a506ba98e780f,0.0181,0.0181,0,69,69,81,1,fiveseven,,,,,,,,,,,,,,,,,,,,,,,,,,,,,,,,,,,,,,,,,,,,,,,,,,,,,,,,,,,,,,,,,,,,,,,,,,,,,,,,,,,,,,,,,,,,,,,,,,,,,,,,,,,,,,,,,,,,,,,,,,,,,,,,,,,,,,,,,
,,6984b719db2917412dfc3135,2026-03-17_11h20.33.438,kallum_motion_pilot_GIST_update_2,2026.1.1,MacIntel,59.88023952,6984b719db2917412dfc3135,69b92ab4aef6dee357cd729a,69b92ae13f1a506ba98e780f,0.0182,0.0182,0,70,70,3,1,twofour,,,,,,,,,,,,,,,,,,,,,,,,,,,,,,,,,,,,,,,,,,,,,,,,,,,,,,,,,,,,,,,,,,,,,,,,,,,,,,,,,,,,,,,,,,,,,,,,,,,,,,,,,,,,,,,,,,,,,,,,,,,,,,,,,,,,,,,,,
,,6984b719db2917412dfc3135,2026-03-17_11h20.33.438,kallum_motion_pilot_GIST_update_2,2026.1.1,MacIntel,59.88023952,6984b719db2917412dfc3135,69b92ab4aef6dee357cd729a,69b92ae13f1a506ba98e780f,0.0182,0.0182,0,71,71,93,1,seveneight,,,,,,,,,,,,,,,,,,,,,,,,,,,,,,,,,,,,,,,,,,,,,,,,,,,,,,,,,,,,,,,,,,,,,,,,,,,,,,,,,,,,,,,,,,,,,,,,,,,,,,,,,,,,,,,,,,,,,,,,,,,,,,,,,,,,,,,,,
,,6984b719db2917412dfc3135,2026-03-17_11h20.33.438,kallum_motion_pilot_GIST_update_2,2026.1.1,MacIntel,59.88023952,6984b719db2917412dfc3135,69b92ab4aef6dee357cd729a,69b92ae13f1a506ba98e780f,0.0182,0.0182,0,72,72,160,1,fivesix,,,,,,,,,,,,,,,,,,,,,,,,,,,,,,,,,,,,,,,,,,,,,,,,,,,,,,,,,,,,,,,,,,,,,,,,,,,,,,,,,,,,,,,,,,,,,,,,,,,,,,,,,,,,,,,,,,,,,,,,,,,,,,,,,,,,,,,,,
,,6984b719db2917412dfc3135,2026-03-17_11h20.33.438,kallum_motion_pilot_GIST_update_2,2026.1.1,MacIntel,59.88023952,6984b719db2917412dfc3135,69b92ab4aef6dee357cd729a,69b92ae13f1a506ba98e780f,0.0183,0.0183,0,73,73,55,1,fourthree,,,,,,,,,,,,,,,,,,,,,,,,,,,,,,,,,,,,,,,,,,,,,,,,,,,,,,,,,,,,,,,,,,,,,,,,,,,,,,,,,,,,,,,,,,,,,,,,,,,,,,,,,,,,,,,,,,,,,,,,,,,,,,,,,,,,,,,,,
,,6984b719db2917412dfc3135,2026-03-17_11h20.33.438,kallum_motion_pilot_GIST_update_2,2026.1.1,MacIntel,59.88023952,6984b719db2917412dfc3135,69b92ab4aef6dee357cd729a,69b92ae13f1a506ba98e780f,0.0183,0.0183,0,74,74,58,1,twoone,,,,,,,,,,,,,,,,,,,,,,,,,,,,,,,,,,,,,,,,,,,,,,,,,,,,,,,,,,,,,,,,,,,,,,,,,,,,,,,,,,,,,,,,,,,,,,,,,,,,,,,,,,,,,,,,,,,,,,,,,,,,,,,,,,,,,,,,,
,,6984b719db2917412dfc3135,2026-03-17_11h20.33.438,kallum_motion_pilot_GIST_update_2,2026.1.1,MacIntel,59.88023952,6984b719db2917412dfc3135,69b92ab4aef6dee357cd729a,69b92ae13f1a506ba98e780f,0.0184,0.0184,0,75,75,32,1,onetwo,,,,,,,,,,,,,,,,,,,,,,,,,,,,,,,,,,,,,,,,,,,,,,,,,,,,,,,,,,,,,,,,,,,,,,,,,,,,,,,,,,,,,,,,,,,,,,,,,,,,,,,,,,,,,,,,,,,,,,,,,,,,,,,,,,,,,,,,,
,,6984b719db2917412dfc3135,2026-03-17_11h20.33.438,kallum_motion_pilot_GIST_update_2,2026.1.1,MacIntel,59.88023952,6984b719db2917412dfc3135,69b92ab4aef6dee357cd729a,69b92ae13f1a506ba98e780f,0.0185,0.0185,0,76,76,80,1,fivesix,,,,,,,,,,,,,,,,,,,,,,,,,,,,,,,,,,,,,,,,,,,,,,,,,,,,,,,,,,,,,,,,,,,,,,,,,,,,,,,,,,,,,,,,,,,,,,,,,,,,,,,,,,,,,,,,,,,,,,,,,,,,,,,,,,,,,,,,,
,,6984b719db2917412dfc3135,2026-03-17_11h20.33.438,kallum_motion_pilot_GIST_update_2,2026.1.1,MacIntel,59.88023952,6984b719db2917412dfc3135,69b92ab4aef6dee357cd729a,69b92ae13f1a506ba98e780f,0.0185,0.0185,0,77,77,121,1,fiveseven,,,,,,,,,,,,,,,,,,,,,,,,,,,,,,,,,,,,,,,,,,,,,,,,,,,,,,,,,,,,,,,,,,,,,,,,,,,,,,,,,,,,,,,,,,,,,,,,,,,,,,,,,,,,,,,,,,,,,,,,,,,,,,,,,,,,,,,,,
,,6984b719db2917412dfc3135,2026-03-17_11h20.33.438,kallum_motion_pilot_GIST_update_2,2026.1.1,MacIntel,59.88023952,6984b719db2917412dfc3135,69b92ab4aef6dee357cd729a,69b92ae13f1a506ba98e780f,0.0186,0.0186,0,78,78,111,1,eightseven,,,,,,,,,,,,,,,,,,,,,,,,,,,,,,,,,,,,,,,,,,,,,,,,,,,,,,,,,,,,,,,,,,,,,,,,,,,,,,,,,,,,,,,,,,,,,,,,,,,,,,,,,,,,,,,,,,,,,,,,,,,,,,,,,,,,,,,,,
,,6984b719db2917412dfc3135,2026-03-17_11h20.33.438,kallum_motion_pilot_GIST_update_2,2026.1.1,MacIntel,59.88023952,6984b719db2917412dfc3135,69b92ab4aef6dee357cd729a,69b92ae13f1a506ba98e780f,0.0186,0.0186,0,79,79,25,1,onethree,,,,,,,,,,,,,,,,,,,,,,,,,,,,,,,,,,,,,,,,,,,,,,,,,,,,,,,,,,,,,,,,,,,,,,,,,,,,,,,,,,,,,,,,,,,,,,,,,,,,,,,,,,,,,,,,,,,,,,,,,,,,,,,,,,,,,,,,,
,,6984b719db2917412dfc3135,2026-03-17_11h20.33.438,kallum_motion_pilot_GIST_update_2,2026.1.1,MacIntel,59.88023952,6984b719db2917412dfc3135,69b92ab4aef6dee357cd729a,69b92ae13f1a506ba98e780f,0.0187,0.0187,0,80,80,8,1,onetwo,,,,,,,,,,,,,,,,,,,,,,,,,,,,,,,,,,,,,,,,,,,,,,,,,,,,,,,,,,,,,,,,,,,,,,,,,,,,,,,,,,,,,,,,,,,,,,,,,,,,,,,,,,,,,,,,,,,,,,,,,,,,,,,,,,,,,,,,,
,,6984b719db2917412dfc3135,2026-03-17_11h20.33.438,kallum_motion_pilot_GIST_update_2,2026.1.1,MacIntel,59.88023952,6984b719db2917412dfc3135,69b92ab4aef6dee357cd729a,69b92ae13f1a506ba98e780f,0.0187,0.0187,0,81,81,139,1,sixeight,,,,,,,,,,,,,,,,,,,,,,,,,,,,,,,,,,,,,,,,,,,,,,,,,,,,,,,,,,,,,,,,,,,,,,,,,,,,,,,,,,,,,,,,,,,,,,,,,,,,,,,,,,,,,,,,,,,,,,,,,,,,,,,,,,,,,,,,,
,,6984b719db2917412dfc3135,2026-03-17_11h20.33.438,kallum_motion_pilot_GIST_update_2,2026.1.1,MacIntel,59.88023952,6984b719db2917412dfc3135,69b92ab4aef6dee357cd729a,69b92ae13f1a506ba98e780f,0.0188,0.0188,0,82,82,31,1,fourthree,,,,,,,,,,,,,,,,,,,,,,,,,,,,,,,,,,,,,,,,,,,,,,,,,,,,,,,,,,,,,,,,,,,,,,,,,,,,,,,,,,,,,,,,,,,,,,,,,,,,,,,,,,,,,,,,,,,,,,,,,,,,,,,,,,,,,,,,,
,,6984b719db2917412dfc3135,2026-03-17_11h20.33.438,kallum_motion_pilot_GIST_update_2,2026.1.1,MacIntel,59.88023952,6984b719db2917412dfc3135,69b92ab4aef6dee357cd729a,69b92ae13f1a506ba98e780f,0.0188,0.0188,0,83,83,75,1,twofour,,,,,,,,,,,,,,,,,,,,,,,,,,,,,,,,,,,,,,,,,,,,,,,,,,,,,,,,,,,,,,,,,,,,,,,,,,,,,,,,,,,,,,,,,,,,,,,,,,,,,,,,,,,,,,,,,,,,,,,,,,,,,,,,,,,,,,,,,
,,6984b719db2917412dfc3135,2026-03-17_11h20.33.438,kallum_motion_pilot_GIST_update_2,2026.1.1,MacIntel,59.88023952,6984b719db2917412dfc3135,69b92ab4aef6dee357cd729a,69b92ae13f1a506ba98e780f,0.0188,0.0188,0,84,84,33,1,onethree,,,,,,,,,,,,,,,,,,,,,,,,,,,,,,,,,,,,,,,,,,,,,,,,,,,,,,,,,,,,,,,,,,,,,,,,,,,,,,,,,,,,,,,,,,,,,,,,,,,,,,,,,,,,,,,,,,,,,,,,,,,,,,,,,,,,,,,,,
,,6984b719db2917412dfc3135,2026-03-17_11h20.33.438,kallum_motion_pilot_GIST_update_2,2026.1.1,MacIntel,59.88023952,6984b719db2917412dfc3135,69b92ab4aef6dee357cd729a,69b92ae13f1a506ba98e780f,0.019,0.019,0,85,85,28,1,threeone,,,,,,,,,,,,,,,,,,,,,,,,,,,,,,,,,,,,,,,,,,,,,,,,,,,,,,,,,,,,,,,,,,,,,,,,,,,,,,,,,,,,,,,,,,,,,,,,,,,,,,,,,,,,,,,,,,,,,,,,,,,,,,,,,,,,,,,,,
,,6984b719db2917412dfc3135,2026-03-17_11h20.33.438,kallum_motion_pilot_GIST_update_2,2026.1.1,MacIntel,59.88023952,6984b719db2917412dfc3135,69b92ab4aef6dee357cd729a,69b92ae13f1a506ba98e780f,0.019,0.019,0,86,86,129,1,fiveseven,,,,,,,,,,,,,,,,,,,,,,,,,,,,,,,,,,,,,,,,,,,,,,,,,,,,,,,,,,,,,,,,,,,,,,,,,,,,,,,,,,,,,,,,,,,,,,,,,,,,,,,,,,,,,,,,,,,,,,,,,,,,,,,,,,,,,,,,,
,,6984b719db2917412dfc3135,2026-03-17_11h20.33.438,kallum_motion_pilot_GIST_update_2,2026.1.1,MacIntel,59.88023952,6984b719db2917412dfc3135,69b92ab4aef6dee357cd729a,69b92ae13f1a506ba98e780f,0.019,0.019,0,87,87,119,1,eightseven,,,,,,,,,,,,,,,,,,,,,,,,,,,,,,,,,,,,,,,,,,,,,,,,,,,,,,,,,,,,,,,,,,,,,,,,,,,,,,,,,,,,,,,,,,,,,,,,,,,,,,,,,,,,,,,,,,,,,,,,,,,,,,,,,,,,,,,,,
,,6984b719db2917412dfc3135,2026-03-17_11h20.33.438,kallum_motion_pilot_GIST_update_2,2026.1.1,MacIntel,59.88023952,6984b719db2917412dfc3135,69b92ab4aef6dee357cd729a,69b92ae13f1a506ba98e780f,0.0191,0.0191,0,88,88,73,1,onethree,,,,,,,,,,,,,,,,,,,,,,,,,,,,,,,,,,,,,,,,,,,,,,,,,,,,,,,,,,,,,,,,,,,,,,,,,,,,,,,,,,,,,,,,,,,,,,,,,,,,,,,,,,,,,,,,,,,,,,,,,,,,,,,,,,,,,,,,,
,,6984b719db2917412dfc3135,2026-03-17_11h20.33.438,kallum_motion_pilot_GIST_update_2,2026.1.1,MacIntel,59.88023952,6984b719db2917412dfc3135,69b92ab4aef6dee357cd729a,69b92ae13f1a506ba98e780f,0.0191,0.0191,0,89,89,115,1,sixeight,,,,,,,,,,,,,,,,,,,,,,,,,,,,,,,,,,,,,,,,,,,,,,,,,,,,,,,,,,,,,,,,,,,,,,,,,,,,,,,,,,,,,,,,,,,,,,,,,,,,,,,,,,,,,,,,,,,,,,,,,,,,,,,,,,,,,,,,,
,,6984b719db2917412dfc3135,2026-03-17_11h20.33.438,kallum_motion_pilot_GIST_update_2,2026.1.1,MacIntel,59.88023952,6984b719db2917412dfc3135,69b92ab4aef6dee357cd729a,69b92ae13f1a506ba98e780f,0.0192,0.0192,0,90,90,114,1,sixfive,,,,,,,,,,,,,,,,,,,,,,,,,,,,,,,,,,,,,,,,,,,,,,,,,,,,,,,,,,,,,,,,,,,,,,,,,,,,,,,,,,,,,,,,,,,,,,,,,,,,,,,,,,,,,,,,,,,,,,,,,,,,,,,,,,,,,,,,,
,,6984b719db2917412dfc3135,2026-03-17_11h20.33.438,kallum_motion_pilot_GIST_update_2,2026.1.1,MacIntel,59.88023952,6984b719db2917412dfc3135,69b92ab4aef6dee357cd729a,69b92ae13f1a506ba98e780f,0.0192,0.0192,0,91,91,112,1,fivesix,,,,,,,,,,,,,,,,,,,,,,,,,,,,,,,,,,,,,,,,,,,,,,,,,,,,,,,,,,,,,,,,,,,,,,,,,,,,,,,,,,,,,,,,,,,,,,,,,,,,,,,,,,,,,,,,,,,,,,,,,,,,,,,,,,,,,,,,,
,,6984b719db2917412dfc3135,2026-03-17_11h20.33.438,kallum_motion_pilot_GIST_update_2,2026.1.1,MacIntel,59.88023952,6984b719db2917412dfc3135,69b92ab4aef6dee357cd729a,69b92ae13f1a506ba98e780f,0.0193,0.0193,0,92,92,71,1,fourthree,,,,,,,,,,,,,,,,,,,,,,,,,,,,,,,,,,,,,,,,,,,,,,,,,,,,,,,,,,,,,,,,,,,,,,,,,,,,,,,,,,,,,,,,,,,,,,,,,,,,,,,,,,,,,,,,,,,,,,,,,,,,,,,,,,,,,,,,,
,,6984b719db2917412dfc3135,2026-03-17_11h20.33.438,kallum_motion_pilot_GIST_update_2,2026.1.1,MacIntel,59.88023952,6984b719db2917412dfc3135,69b92ab4aef6dee357cd729a,69b92ae13f1a506ba98e780f,0.0193,0.0193,0,93,93,150,1,eightsix,,,,,,,,,,,,,,,,,,,,,,,,,,,,,,,,,,,,,,,,,,,,,,,,,,,,,,,,,,,,,,,,,,,,,,,,,,,,,,,,,,,,,,,,,,,,,,,,,,,,,,,,,,,,,,,,,,,,,,,,,,,,,,,,,,,,,,,,,
,,6984b719db2917412dfc3135,2026-03-17_11h20.33.438,kallum_motion_pilot_GIST_update_2,2026.1.1,MacIntel,59.88023952,6984b719db2917412dfc3135,69b92ab4aef6dee357cd729a,69b92ae13f1a506ba98e780f,0.0194,0.0194,0,94,94,124,1,sevenfive,,,,,,,,,,,,,,,,,,,,,,,,,,,,,,,,,,,,,,,,,,,,,,,,,,,,,,,,,,,,,,,,,,,,,,,,,,,,,,,,,,,,,,,,,,,,,,,,,,,,,,,,,,,,,,,,,,,,,,,,,,,,,,,,,,,,,,,,,
,,6984b719db2917412dfc3135,2026-03-17_11h20.33.438,kallum_motion_pilot_GIST_update_2,2026.1.1,MacIntel,59.88023952,6984b719db2917412dfc3135,69b92ab4aef6dee357cd729a,69b92ae13f1a506ba98e780f,0.0194,0.0195,0,95,95,159,1,eightseven,,,,,,,,,,,,,,,,,,,,,,,,,,,,,,,,,,,,,,,,,,,,,,,,,,,,,,,,,,,,,,,,,,,,,,,,,,,,,,,,,,,,,,,,,,,,,,,,,,,,,,,,,,,,,,,,,,,,,,,,,,,,,,,,,,,,,,,,,
,,6984b719db2917412dfc3135,2026-03-17_11h20.33.438,kallum_motion_pilot_GIST_update_2,2026.1.1,MacIntel,59.88023952,6984b719db2917412dfc3135,69b92ab4aef6dee357cd729a,69b92ae13f1a506ba98e780f,0.0195,0.0195,0,96,96,5,1,threefour,,,,,,,,,,,,,,,,,,,,,,,,,,,,,,,,,,,,,,,,,,,,,,,,,,,,,,,,,,,,,,,,,,,,,,,,,,,,,,,,,,,,,,,,,,,,,,,,,,,,,,,,,,,,,,,,,,,,,,,,,,,,,,,,,,,,,,,,,
,,6984b719db2917412dfc3135,2026-03-17_11h20.33.438,kallum_motion_pilot_GIST_update_2,2026.1.1,MacIntel,59.88023952,6984b719db2917412dfc3135,69b92ab4aef6dee357cd729a,69b92ae13f1a506ba98e780f,0.0196,0.0196,0,97,97,16,1,onetwo,,,,,,,,,,,,,,,,,,,,,,,,,,,,,,,,,,,,,,,,,,,,,,,,,,,,,,,,,,,,,,,,,,,,,,,,,,,,,,,,,,,,,,,,,,,,,,,,,,,,,,,,,,,,,,,,,,,,,,,,,,,,,,,,,,,,,,,,,
,,6984b719db2917412dfc3135,2026-03-17_11h20.33.438,kallum_motion_pilot_GIST_update_2,2026.1.1,MacIntel,59.88023952,6984b719db2917412dfc3135,69b92ab4aef6dee357cd729a,69b92ae13f1a506ba98e780f,0.0196,0.0196,0,98,98,86,1,eightsix,,,,,,,,,,,,,,,,,,,,,,,,,,,,,,,,,,,,,,,,,,,,,,,,,,,,,,,,,,,,,,,,,,,,,,,,,,,,,,,,,,,,,,,,,,,,,,,,,,,,,,,,,,,,,,,,,,,,,,,,,,,,,,,,,,,,,,,,,
,,6984b719db2917412dfc3135,2026-03-17_11h20.33.438,kallum_motion_pilot_GIST_update_2,2026.1.1,MacIntel,59.88023952,6984b719db2917412dfc3135,69b92ab4aef6dee357cd729a,69b92ae13f1a506ba98e780f,0.0196,0.0197,0,99,99,108,1,sevenfive,,,,,,,,,,,,,,,,,,,,,,,,,,,,,,,,,,,,,,,,,,,,,,,,,,,,,,,,,,,,,,,,,,,,,,,,,,,,,,,,,,,,,,,,,,,,,,,,,,,,,,,,,,,,,,,,,,,,,,,,,,,,,,,,,,,,,,,,,
,,6984b719db2917412dfc3135,2026-03-17_11h20.33.438,kallum_motion_pilot_GIST_update_2,2026.1.1,MacIntel,59.88023952,6984b719db2917412dfc3135,69b92ab4aef6dee357cd729a,69b92ae13f1a506ba98e780f,0.0197,0.0197,0,100,100,106,1,sixfive,,,,,,,,,,,,,,,,,,,,,,,,,,,,,,,,,,,,,,,,,,,,,,,,,,,,,,,,,,,,,,,,,,,,,,,,,,,,,,,,,,,,,,,,,,,,,,,,,,,,,,,,,,,,,,,,,,,,,,,,,,,,,,,,,,,,,,,,,
,,6984b719db2917412dfc3135,2026-03-17_11h20.33.438,kallum_motion_pilot_GIST_update_2,2026.1.1,MacIntel,59.88023952,6984b719db2917412dfc3135,69b92ab4aef6dee357cd729a,69b92ae13f1a506ba98e780f,0.0198,0.0198,0,101,101,9,1,onethree,,,,,,,,,,,,,,,,,,,,,,,,,,,,,,,,,,,,,,,,,,,,,,,,,,,,,,,,,,,,,,,,,,,,,,,,,,,,,,,,,,,,,,,,,,,,,,,,,,,,,,,,,,,,,,,,,,,,,,,,,,,,,,,,,,,,,,,,,
,,6984b719db2917412dfc3135,2026-03-17_11h20.33.438,kallum_motion_pilot_GIST_update_2,2026.1.1,MacIntel,59.88023952,6984b719db2917412dfc3135,69b92ab4aef6dee357cd729a,69b92ae13f1a506ba98e780f,0.0198,0.0198,0,102,102,158,1,eightsix,,,,,,,,,,,,,,,,,,,,,,,,,,,,,,,,,,,,,,,,,,,,,,,,,,,,,,,,,,,,,,,,,,,,,,,,,,,,,,,,,,,,,,,,,,,,,,,,,,,,,,,,,,,,,,,,,,,,,,,,,,,,,,,,,,,,,,,,,
,,6984b719db2917412dfc3135,2026-03-17_11h20.33.438,kallum_motion_pilot_GIST_update_2,2026.1.1,MacIntel,59.88023952,6984b719db2917412dfc3135,69b92ab4aef6dee357cd729a,69b92ae13f1a506ba98e780f,0.0199,0.0199,0,103,103,78,1,fourtwo,,,,,,,,,,,,,,,,,,,,,,,,,,,,,,,,,,,,,,,,,,,,,,,,,,,,,,,,,,,,,,,,,,,,,,,,,,,,,,,,,,,,,,,,,,,,,,,,,,,,,,,,,,,,,,,,,,,,,,,,,,,,,,,,,,,,,,,,,
,,6984b719db2917412dfc3135,2026-03-17_11h20.33.438,kallum_motion_pilot_GIST_update_2,2026.1.1,MacIntel,59.88023952,6984b719db2917412dfc3135,69b92ab4aef6dee357cd729a,69b92ae13f1a506ba98e780f,0.0199,0.0199,0,104,104,70,1,fourtwo,,,,,,,,,,,,,,,,,,,,,,,,,,,,,,,,,,,,,,,,,,,,,,,,,,,,,,,,,,,,,,,,,,,,,,,,,,,,,,,,,,,,,,,,,,,,,,,,,,,,,,,,,,,,,,,,,,,,,,,,,,,,,,,,,,,,,,,,,
,,6984b719db2917412dfc3135,2026-03-17_11h20.33.438,kallum_motion_pilot_GIST_update_2,2026.1.1,MacIntel,59.88023952,6984b719db2917412dfc3135,69b92ab4aef6dee357cd729a,69b92ae13f1a506ba98e780f,0.02,0.02,0,105,105,79,1,eightseven,,,,,,,,,,,,,,,,,,,,,,,,,,,,,,,,,,,,,,,,,,,,,,,,,,,,,,,,,,,,,,,,,,,,,,,,,,,,,,,,,,,,,,,,,,,,,,,,,,,,,,,,,,,,,,,,,,,,,,,,,,,,,,,,,,,,,,,,,
,,6984b719db2917412dfc3135,2026-03-17_11h20.33.438,kallum_motion_pilot_GIST_update_2,2026.1.1,MacIntel,59.88023952,6984b719db2917412dfc3135,69b92ab4aef6dee357cd729a,69b92ae13f1a506ba98e780f,0.02,0.02,0,106,106,29,1,threefour,,,,,,,,,,,,,,,,,,,,,,,,,,,,,,,,,,,,,,,,,,,,,,,,,,,,,,,,,,,,,,,,,,,,,,,,,,,,,,,,,,,,,,,,,,,,,,,,,,,,,,,,,,,,,,,,,,,,,,,,,,,,,,,,,,,,,,,,,
,,6984b719db2917412dfc3135,2026-03-17_11h20.33.438,kallum_motion_pilot_GIST_update_2,2026.1.1,MacIntel,59.88023952,6984b719db2917412dfc3135,69b92ab4aef6dee357cd729a,69b92ae13f1a506ba98e780f,0.02,0.02,0,107,107,122,1,sixfive,,,,,,,,,,,,,,,,,,,,,,,,,,,,,,,,,,,,,,,,,,,,,,,,,,,,,,,,,,,,,,,,,,,,,,,,,,,,,,,,,,,,,,,,,,,,,,,,,,,,,,,,,,,,,,,,,,,,,,,,,,,,,,,,,,,,,,,,,
,,6984b719db2917412dfc3135,2026-03-17_11h20.33.438,kallum_motion_pilot_GIST_update_2,2026.1.1,MacIntel,59.88023952,6984b719db2917412dfc3135,69b92ab4aef6dee357cd729a,69b92ae13f1a506ba98e780f,0.0201,0.0201,0,108,108,140,1,sevenfive,,,,,,,,,,,,,,,,,,,,,,,,,,,,,,,,,,,,,,,,,,,,,,,,,,,,,,,,,,,,,,,,,,,,,,,,,,,,,,,,,,,,,,,,,,,,,,,,,,,,,,,,,,,,,,,,,,,,,,,,,,,,,,,,,,,,,,,,,
,,6984b719db2917412dfc3135,2026-03-17_11h20.33.438,kallum_motion_pilot_GIST_update_2,2026.1.1,MacIntel,59.88023952,6984b719db2917412dfc3135,69b92ab4aef6dee357cd729a,69b92ae13f1a506ba98e780f,0.0201,0.0201,0,109,109,90,1,sixfive,,,,,,,,,,,,,,,,,,,,,,,,,,,,,,,,,,,,,,,,,,,,,,,,,,,,,,,,,,,,,,,,,,,,,,,,,,,,,,,,,,,,,,,,,,,,,,,,,,,,,,,,,,,,,,,,,,,,,,,,,,,,,,,,,,,,,,,,,
,,6984b719db2917412dfc3135,2026-03-17_11h20.33.438,kallum_motion_pilot_GIST_update_2,2026.1.1,MacIntel,59.88023952,6984b719db2917412dfc3135,69b92ab4aef6dee357cd729a,69b92ae13f1a506ba98e780f,0.0202,0.0202,0,110,110,103,1,eightseven,,,,,,,,,,,,,,,,,,,,,,,,,,,,,,,,,,,,,,,,,,,,,,,,,,,,,,,,,,,,,,,,,,,,,,,,,,,,,,,,,,,,,,,,,,,,,,,,,,,,,,,,,,,,,,,,,,,,,,,,,,,,,,,,,,,,,,,,,
,,6984b719db2917412dfc3135,2026-03-17_11h20.33.438,kallum_motion_pilot_GIST_update_2,2026.1.1,MacIntel,59.88023952,6984b719db2917412dfc3135,69b92ab4aef6dee357cd729a,69b92ae13f1a506ba98e780f,0.0203,0.0203,0,111,111,51,1,twofour,,,,,,,,,,,,,,,,,,,,,,,,,,,,,,,,,,,,,,,,,,,,,,,,,,,,,,,,,,,,,,,,,,,,,,,,,,,,,,,,,,,,,,,,,,,,,,,,,,,,,,,,,,,,,,,,,,,,,,,,,,,,,,,,,,,,,,,,,
,,6984b719db2917412dfc3135,2026-03-17_11h20.33.438,kallum_motion_pilot_GIST_update_2,2026.1.1,MacIntel,59.88023952,6984b719db2917412dfc3135,69b92ab4aef6dee357cd729a,69b92ae13f1a506ba98e780f,0.0204,0.0204,0,112,112,141,1,seveneight,,,,,,,,,,,,,,,,,,,,,,,,,,,,,,,,,,,,,,,,,,,,,,,,,,,,,,,,,,,,,,,,,,,,,,,,,,,,,,,,,,,,,,,,,,,,,,,,,,,,,,,,,,,,,,,,,,,,,,,,,,,,,,,,,,,,,,,,,
,,6984b719db2917412dfc3135,2026-03-17_11h20.33.438,kallum_motion_pilot_GIST_update_2,2026.1.1,MacIntel,59.88023952,6984b719db2917412dfc3135,69b92ab4aef6dee357cd729a,69b92ae13f1a506ba98e780f,0.0204,0.0204,0,113,113,97,1,fiveseven,,,,,,,,,,,,,,,,,,,,,,,,,,,,,,,,,,,,,,,,,,,,,,,,,,,,,,,,,,,,,,,,,,,,,,,,,,,,,,,,,,,,,,,,,,,,,,,,,,,,,,,,,,,,,,,,,,,,,,,,,,,,,,,,,,,,,,,,,
,,6984b719db2917412dfc3135,2026-03-17_11h20.33.438,kallum_motion_pilot_GIST_update_2,2026.1.1,MacIntel,59.88023952,6984b719db2917412dfc3135,69b92ab4aef6dee357cd729a,69b92ae13f1a506ba98e780f,0.0204,0.0204,0,114,114,4,1,threeone,,,,,,,,,,,,,,,,,,,,,,,,,,,,,,,,,,,,,,,,,,,,,,,,,,,,,,,,,,,,,,,,,,,,,,,,,,,,,,,,,,,,,,,,,,,,,,,,,,,,,,,,,,,,,,,,,,,,,,,,,,,,,,,,,,,,,,,,,
,,6984b719db2917412dfc3135,2026-03-17_11h20.33.438,kallum_motion_pilot_GIST_update_2,2026.1.1,MacIntel,59.88023952,6984b719db2917412dfc3135,69b92ab4aef6dee357cd729a,69b92ae13f1a506ba98e780f,0.0205,0.0205,0,115,115,72,1,onetwo,,,,,,,,,,,,,,,,,,,,,,,,,,,,,,,,,,,,,,,,,,,,,,,,,,,,,,,,,,,,,,,,,,,,,,,,,,,,,,,,,,,,,,,,,,,,,,,,,,,,,,,,,,,,,,,,,,,,,,,,,,,,,,,,,,,,,,,,,
,,6984b719db2917412dfc3135,2026-03-17_11h20.33.438,kallum_motion_pilot_GIST_update_2,2026.1.1,MacIntel,59.88023952,6984b719db2917412dfc3135,69b92ab4aef6dee357cd729a,69b92ae13f1a506ba98e780f,0.0206,0.0206,0,116,116,152,1,fivesix,,,,,,,,,,,,,,,,,,,,,,,,,,,,,,,,,,,,,,,,,,,,,,,,,,,,,,,,,,,,,,,,,,,,,,,,,,,,,,,,,,,,,,,,,,,,,,,,,,,,,,,,,,,,,,,,,,,,,,,,,,,,,,,,,,,,,,,,,
,,6984b719db2917412dfc3135,2026-03-17_11h20.33.438,kallum_motion_pilot_GIST_update_2,2026.1.1,MacIntel,59.88023952,6984b719db2917412dfc3135,69b92ab4aef6dee357cd729a,69b92ae13f1a506ba98e780f,0.0206,0.0206,0,117,117,36,1,threeone,,,,,,,,,,,,,,,,,,,,,,,,,,,,,,,,,,,,,,,,,,,,,,,,,,,,,,,,,,,,,,,,,,,,,,,,,,,,,,,,,,,,,,,,,,,,,,,,,,,,,,,,,,,,,,,,,,,,,,,,,,,,,,,,,,,,,,,,,
,,6984b719db2917412dfc3135,2026-03-17_11h20.33.438,kallum_motion_pilot_GIST_update_2,2026.1.1,MacIntel,59.88023952,6984b719db2917412dfc3135,69b92ab4aef6dee357cd729a,69b92ae13f1a506ba98e780f,0.0206,0.0206,0,118,118,18,1,twoone,,,,,,,,,,,,,,,,,,,,,,,,,,,,,,,,,,,,,,,,,,,,,,,,,,,,,,,,,,,,,,,,,,,,,,,,,,,,,,,,,,,,,,,,,,,,,,,,,,,,,,,,,,,,,,,,,,,,,,,,,,,,,,,,,,,,,,,,,
,,6984b719db2917412dfc3135,2026-03-17_11h20.33.438,kallum_motion_pilot_GIST_update_2,2026.1.1,MacIntel,59.88023952,6984b719db2917412dfc3135,69b92ab4aef6dee357cd729a,69b92ae13f1a506ba98e780f,0.0207,0.0207,0,119,119,49,1,onethree,,,,,,,,,,,,,,,,,,,,,,,,,,,,,,,,,,,,,,,,,,,,,,,,,,,,,,,,,,,,,,,,,,,,,,,,,,,,,,,,,,,,,,,,,,,,,,,,,,,,,,,,,,,,,,,,,,,,,,,,,,,,,,,,,,,,,,,,,
,,6984b719db2917412dfc3135,2026-03-17_11h20.33.438,kallum_motion_pilot_GIST_update_2,2026.1.1,MacIntel,59.88023952,6984b719db2917412dfc3135,69b92ab4aef6dee357cd729a,69b92ae13f1a506ba98e780f,0.0208,0.0208,0,120,120,19,1,twofour,,,,,,,,,,,,,,,,,,,,,,,,,,,,,,,,,,,,,,,,,,,,,,,,,,,,,,,,,,,,,,,,,,,,,,,,,,,,,,,,,,,,,,,,,,,,,,,,,,,,,,,,,,,,,,,,,,,,,,,,,,,,,,,,,,,,,,,,,
,,6984b719db2917412dfc3135,2026-03-17_11h20.33.438,kallum_motion_pilot_GIST_update_2,2026.1.1,MacIntel,59.88023952,6984b719db2917412dfc3135,69b92ab4aef6dee357cd729a,69b92ae13f1a506ba98e780f,0.0208,0.0208,0,121,121,10,1,twoone,,,,,,,,,,,,,,,,,,,,,,,,,,,,,,,,,,,,,,,,,,,,,,,,,,,,,,,,,,,,,,,,,,,,,,,,,,,,,,,,,,,,,,,,,,,,,,,,,,,,,,,,,,,,,,,,,,,,,,,,,,,,,,,,,,,,,,,,,
,,6984b719db2917412dfc3135,2026-03-17_11h20.33.438,kallum_motion_pilot_GIST_update_2,2026.1.1,MacIntel,59.88023952,6984b719db2917412dfc3135,69b92ab4aef6dee357cd729a,69b92ae13f1a506ba98e780f,0.0209,0.0209,0,122,122,2,1,twoone,,,,,,,,,,,,,,,,,,,,,,,,,,,,,,,,,,,,,,,,,,,,,,,,,,,,,,,,,,,,,,,,,,,,,,,,,,,,,,,,,,,,,,,,,,,,,,,,,,,,,,,,,,,,,,,,,,,,,,,,,,,,,,,,,,,,,,,,,
,,6984b719db2917412dfc3135,2026-03-17_11h20.33.438,kallum_motion_pilot_GIST_update_2,2026.1.1,MacIntel,59.88023952,6984b719db2917412dfc3135,69b92ab4aef6dee357cd729a,69b92ae13f1a506ba98e780f,0.0209,0.0209,0,123,123,24,1,onetwo,,,,,,,,,,,,,,,,,,,,,,,,,,,,,,,,,,,,,,,,,,,,,,,,,,,,,,,,,,,,,,,,,,,,,,,,,,,,,,,,,,,,,,,,,,,,,,,,,,,,,,,,,,,,,,,,,,,,,,,,,,,,,,,,,,,,,,,,,
,,6984b719db2917412dfc3135,2026-03-17_11h20.33.438,kallum_motion_pilot_GIST_update_2,2026.1.1,MacIntel,59.88023952,6984b719db2917412dfc3135,69b92ab4aef6dee357cd729a,69b92ae13f1a506ba98e780f,0.021,0.021,0,124,124,1,1,onethree,,,,,,,,,,,,,,,,,,,,,,,,,,,,,,,,,,,,,,,,,,,,,,,,,,,,,,,,,,,,,,,,,,,,,,,,,,,,,,,,,,,,,,,,,,,,,,,,,,,,,,,,,,,,,,,,,,,,,,,,,,,,,,,,,,,,,,,,,
,,6984b719db2917412dfc3135,2026-03-17_11h20.33.438,kallum_motion_pilot_GIST_update_2,2026.1.1,MacIntel,59.88023952,6984b719db2917412dfc3135,69b92ab4aef6dee357cd729a,69b92ae13f1a506ba98e780f,0.021,0.021,0,125,125,85,1,seveneight,,,,,,,,,,,,,,,,,,,,,,,,,,,,,,,,,,,,,,,,,,,,,,,,,,,,,,,,,,,,,,,,,,,,,,,,,,,,,,,,,,,,,,,,,,,,,,,,,,,,,,,,,,,,,,,,,,,,,,,,,,,,,,,,,,,,,,,,,
,,6984b719db2917412dfc3135,2026-03-17_11h20.33.438,kallum_motion_pilot_GIST_update_2,2026.1.1,MacIntel,59.88023952,6984b719db2917412dfc3135,69b92ab4aef6dee357cd729a,69b92ae13f1a506ba98e780f,0.0211,0.0211,0,126,126,107,1,sixeight,,,,,,,,,,,,,,,,,,,,,,,,,,,,,,,,,,,,,,,,,,,,,,,,,,,,,,,,,,,,,,,,,,,,,,,,,,,,,,,,,,,,,,,,,,,,,,,,,,,,,,,,,,,,,,,,,,,,,,,,,,,,,,,,,,,,,,,,,
,,6984b719db2917412dfc3135,2026-03-17_11h20.33.438,kallum_motion_pilot_GIST_update_2,2026.1.1,MacIntel,59.88023952,6984b719db2917412dfc3135,69b92ab4aef6dee357cd729a,69b92ae13f1a506ba98e780f,0.0212,0.0212,0,127,127,65,1,onethree,,,,,,,,,,,,,,,,,,,,,,,,,,,,,,,,,,,,,,,,,,,,,,,,,,,,,,,,,,,,,,,,,,,,,,,,,,,,,,,,,,,,,,,,,,,,,,,,,,,,,,,,,,,,,,,,,,,,,,,,,,,,,,,,,,,,,,,,,
,,6984b719db2917412dfc3135,2026-03-17_11h20.33.438,kallum_motion_pilot_GIST_update_2,2026.1.1,MacIntel,59.88023952,6984b719db2917412dfc3135,69b92ab4aef6dee357cd729a,69b92ae13f1a506ba98e780f,0.0212,0.0212,0,128,128,101,1,seveneight,,,,,,,,,,,,,,,,,,,,,,,,,,,,,,,,,,,,,,,,,,,,,,,,,,,,,,,,,,,,,,,,,,,,,,,,,,,,,,,,,,,,,,,,,,,,,,,,,,,,,,,,,,,,,,,,,,,,,,,,,,,,,,,,,,,,,,,,,
,,6984b719db2917412dfc3135,2026-03-17_11h20.33.438,kallum_motion_pilot_GIST_update_2,2026.1.1,MacIntel,59.88023952,6984b719db2917412dfc3135,69b92ab4aef6dee357cd729a,69b92ae13f1a506ba98e780f,0.0212,0.0212,0,129,129,110,1,eightsix,,,,,,,,,,,,,,,,,,,,,,,,,,,,,,,,,,,,,,,,,,,,,,,,,,,,,,,,,,,,,,,,,,,,,,,,,,,,,,,,,,,,,,,,,,,,,,,,,,,,,,,,,,,,,,,,,,,,,,,,,,,,,,,,,,,,,,,,,
,,6984b719db2917412dfc3135,2026-03-17_11h20.33.438,kallum_motion_pilot_GIST_update_2,2026.1.1,MacIntel,59.88023952,6984b719db2917412dfc3135,69b92ab4aef6dee357cd729a,69b92ae13f1a506ba98e780f,0.0214,0.0214,0,130,130,40,1,onetwo,,,,,,,,,,,,,,,,,,,,,,,,,,,,,,,,,,,,,,,,,,,,,,,,,,,,,,,,,,,,,,,,,,,,,,,,,,,,,,,,,,,,,,,,,,,,,,,,,,,,,,,,,,,,,,,,,,,,,,,,,,,,,,,,,,,,,,,,,
,,6984b719db2917412dfc3135,2026-03-17_11h20.33.438,kallum_motion_pilot_GIST_update_2,2026.1.1,MacIntel,59.88023952,6984b719db2917412dfc3135,69b92ab4aef6dee357cd729a,69b92ae13f1a506ba98e780f,0.0214,0.0214,0,131,131,96,1,fivesix,,,,,,,,,,,,,,,,,,,,,,,,,,,,,,,,,,,,,,,,,,,,,,,,,,,,,,,,,,,,,,,,,,,,,,,,,,,,,,,,,,,,,,,,,,,,,,,,,,,,,,,,,,,,,,,,,,,,,,,,,,,,,,,,,,,,,,,,,
,,6984b719db2917412dfc3135,2026-03-17_11h20.33.438,kallum_motion_pilot_GIST_update_2,2026.1.1,MacIntel,59.88023952,6984b719db2917412dfc3135,69b92ab4aef6dee357cd729a,69b92ae13f1a506ba98e780f,0.0214,0.0214,0,132,132,92,1,sevenfive,,,,,,,,,,,,,,,,,,,,,,,,,,,,,,,,,,,,,,,,,,,,,,,,,,,,,,,,,,,,,,,,,,,,,,,,,,,,,,,,,,,,,,,,,,,,,,,,,,,,,,,,,,,,,,,,,,,,,,,,,,,,,,,,,,,,,,,,,
,,6984b719db2917412dfc3135,2026-03-17_11h20.33.438,kallum_motion_pilot_GIST_update_2,2026.1.1,MacIntel,59.88023952,6984b719db2917412dfc3135,69b92ab4aef6dee357cd729a,69b92ae13f1a506ba98e780f,0.0215,0.0215,0,133,133,134,1,eightsix,,,,,,,,,,,,,,,,,,,,,,,,,,,,,,,,,,,,,,,,,,,,,,,,,,,,,,,,,,,,,,,,,,,,,,,,,,,,,,,,,,,,,,,,,,,,,,,,,,,,,,,,,,,,,,,,,,,,,,,,,,,,,,,,,,,,,,,,,
,,6984b719db2917412dfc3135,2026-03-17_11h20.33.438,kallum_motion_pilot_GIST_update_2,2026.1.1,MacIntel,59.88023952,6984b719db2917412dfc3135,69b92ab4aef6dee357cd729a,69b92ae13f1a506ba98e780f,0.0216,0.0216,0,134,134,95,1,eightseven,,,,,,,,,,,,,,,,,,,,,,,,,,,,,,,,,,,,,,,,,,,,,,,,,,,,,,,,,,,,,,,,,,,,,,,,,,,,,,,,,,,,,,,,,,,,,,,,,,,,,,,,,,,,,,,,,,,,,,,,,,,,,,,,,,,,,,,,,
,,6984b719db2917412dfc3135,2026-03-17_11h20.33.438,kallum_motion_pilot_GIST_update_2,2026.1.1,MacIntel,59.88023952,6984b719db2917412dfc3135,69b92ab4aef6dee357cd729a,69b92ae13f1a506ba98e780f,0.0216,0.0216,0,135,135,57,1,onethree,,,,,,,,,,,,,,,,,,,,,,,,,,,,,,,,,,,,,,,,,,,,,,,,,,,,,,,,,,,,,,,,,,,,,,,,,,,,,,,,,,,,,,,,,,,,,,,,,,,,,,,,,,,,,,,,,,,,,,,,,,,,,,,,,,,,,,,,,
,,6984b719db2917412dfc3135,2026-03-17_11h20.33.438,kallum_motion_pilot_GIST_update_2,2026.1.1,MacIntel,59.88023952,6984b719db2917412dfc3135,69b92ab4aef6dee357cd729a,69b92ae13f1a506ba98e780f,0.0216,0.0216,0,136,136,138,1,sixfive,,,,,,,,,,,,,,,,,,,,,,,,,,,,,,,,,,,,,,,,,,,,,,,,,,,,,,,,,,,,,,,,,,,,,,,,,,,,,,,,,,,,,,,,,,,,,,,,,,,,,,,,,,,,,,,,,,,,,,,,,,,,,,,,,,,,,,,,,
,,6984b719db2917412dfc3135,2026-03-17_11h20.33.438,kallum_motion_pilot_GIST_update_2,2026.1.1,MacIntel,59.88023952,6984b719db2917412dfc3135,69b92ab4aef6dee357cd729a,69b92ae13f1a506ba98e780f,0.0217,0.0217,0,137,137,68,1,threeone,,,,,,,,,,,,,,,,,,,,,,,,,,,,,,,,,,,,,,,,,,,,,,,,,,,,,,,,,,,,,,,,,,,,,,,,,,,,,,,,,,,,,,,,,,,,,,,,,,,,,,,,,,,,,,,,,,,,,,,,,,,,,,,,,,,,,,,,,
,,6984b719db2917412dfc3135,2026-03-17_11h20.33.438,kallum_motion_pilot_GIST_update_2,2026.1.1,MacIntel,59.88023952,6984b719db2917412dfc3135,69b92ab4aef6dee357cd729a,69b92ae13f1a506ba98e780f,0.0218,0.0218,0,138,138,35,1,twofour,,,,,,,,,,,,,,,,,,,,,,,,,,,,,,,,,,,,,,,,,,,,,,,,,,,,,,,,,,,,,,,,,,,,,,,,,,,,,,,,,,,,,,,,,,,,,,,,,,,,,,,,,,,,,,,,,,,,,,,,,,,,,,,,,,,,,,,,,
,,6984b719db2917412dfc3135,2026-03-17_11h20.33.438,kallum_motion_pilot_GIST_update_2,2026.1.1,MacIntel,59.88023952,6984b719db2917412dfc3135,69b92ab4aef6dee357cd729a,69b92ae13f1a506ba98e780f,0.0218,0.0218,0,139,139,137,1,fiveseven,,,,,,,,,,,,,,,,,,,,,,,,,,,,,,,,,,,,,,,,,,,,,,,,,,,,,,,,,,,,,,,,,,,,,,,,,,,,,,,,,,,,,,,,,,,,,,,,,,,,,,,,,,,,,,,,,,,,,,,,,,,,,,,,,,,,,,,,,
,,6984b719db2917412dfc3135,2026-03-17_11h20.33.438,kallum_motion_pilot_GIST_update_2,2026.1.1,MacIntel,59.88023952,6984b719db2917412dfc3135,69b92ab4aef6dee357cd729a,69b92ae13f1a506ba98e780f,0.0219,0.0219,0,140,140,15,1,fourthree,,,,,,,,,,,,,,,,,,,,,,,,,,,,,,,,,,,,,,,,,,,,,,,,,,,,,,,,,,,,,,,,,,,,,,,,,,,,,,,,,,,,,,,,,,,,,,,,,,,,,,,,,,,,,,,,,,,,,,,,,,,,,,,,,,,,,,,,,
,,6984b719db2917412dfc3135,2026-03-17_11h20.33.438,kallum_motion_pilot_GIST_update_2,2026.1.1,MacIntel,59.88023952,6984b719db2917412dfc3135,69b92ab4aef6dee357cd729a,69b92ae13f1a506ba98e780f,0.0219,0.0219,0,141,141,145,1,fiveseven,,,,,,,,,,,,,,,,,,,,,,,,,,,,,,,,,,,,,,,,,,,,,,,,,,,,,,,,,,,,,,,,,,,,,,,,,,,,,,,,,,,,,,,,,,,,,,,,,,,,,,,,,,,,,,,,,,,,,,,,,,,,,,,,,,,,,,,,,
,,6984b719db2917412dfc3135,2026-03-17_11h20.33.438,kallum_motion_pilot_GIST_update_2,2026.1.1,MacIntel,59.88023952,6984b719db2917412dfc3135,69b92ab4aef6dee357cd729a,69b92ae13f1a506ba98e780f,0.022,0.022,0,142,142,0,1,onetwo,,,,,,,,,,,,,,,,,,,,,,,,,,,,,,,,,,,,,,,,,,,,,,,,,,,,,,,,,,,,,,,,,,,,,,,,,,,,,,,,,,,,,,,,,,,,,,,,,,,,,,,,,,,,,,,,,,,,,,,,,,,,,,,,,,,,,,,,,
,,6984b719db2917412dfc3135,2026-03-17_11h20.33.438,kallum_motion_pilot_GIST_update_2,2026.1.1,MacIntel,59.88023952,6984b719db2917412dfc3135,69b92ab4aef6dee357cd729a,69b92ae13f1a506ba98e780f,0.0221,0.0221,0,143,143,142,1,eightsix,,,,,,,,,,,,,,,,,,,,,,,,,,,,,,,,,,,,,,,,,,,,,,,,,,,,,,,,,,,,,,,,,,,,,,,,,,,,,,,,,,,,,,,,,,,,,,,,,,,,,,,,,,,,,,,,,,,,,,,,,,,,,,,,,,,,,,,,,
,,6984b719db2917412dfc3135,2026-03-17_11h20.33.438,kallum_motion_pilot_GIST_update_2,2026.1.1,MacIntel,59.88023952,6984b719db2917412dfc3135,69b92ab4aef6dee357cd729a,69b92ae13f1a506ba98e780f,0.0221,0.0221,0,144,144,41,1,onethree,,,,,,,,,,,,,,,,,,,,,,,,,,,,,,,,,,,,,,,,,,,,,,,,,,,,,,,,,,,,,,,,,,,,,,,,,,,,,,,,,,,,,,,,,,,,,,,,,,,,,,,,,,,,,,,,,,,,,,,,,,,,,,,,,,,,,,,,,
,,6984b719db2917412dfc3135,2026-03-17_11h20.33.438,kallum_motion_pilot_GIST_update_2,2026.1.1,MacIntel,59.88023952,6984b719db2917412dfc3135,69b92ab4aef6dee357cd729a,69b92ae13f1a506ba98e780f,0.0222,0.0222,0,145,145,83,1,sixeight,,,,,,,,,,,,,,,,,,,,,,,,,,,,,,,,,,,,,,,,,,,,,,,,,,,,,,,,,,,,,,,,,,,,,,,,,,,,,,,,,,,,,,,,,,,,,,,,,,,,,,,,,,,,,,,,,,,,,,,,,,,,,,,,,,,,,,,,,
,,6984b719db2917412dfc3135,2026-03-17_11h20.33.438,kallum_motion_pilot_GIST_update_2,2026.1.1,MacIntel,59.88023952,6984b719db2917412dfc3135,69b92ab4aef6dee357cd729a,69b92ae13f1a506ba98e780f,0.0222,0.0222,0,146,146,17,1,onethree,,,,,,,,,,,,,,,,,,,,,,,,,,,,,,,,,,,,,,,,,,,,,,,,,,,,,,,,,,,,,,,,,,,,,,,,,,,,,,,,,,,,,,,,,,,,,,,,,,,,,,,,,,,,,,,,,,,,,,,,,,,,,,,,,,,,,,,,,
,,6984b719db2917412dfc3135,2026-03-17_11h20.33.438,kallum_motion_pilot_GIST_update_2,2026.1.1,MacIntel,59.88023952,6984b719db2917412dfc3135,69b92ab4aef6dee357cd729a,69b92ae13f1a506ba98e780f,0.0223,0.0223,0,147,147,62,1,fourtwo,,,,,,,,,,,,,,,,,,,,,,,,,,,,,,,,,,,,,,,,,,,,,,,,,,,,,,,,,,,,,,,,,,,,,,,,,,,,,,,,,,,,,,,,,,,,,,,,,,,,,,,,,,,,,,,,,,,,,,,,,,,,,,,,,,,,,,,,,
,,6984b719db2917412dfc3135,2026-03-17_11h20.33.438,kallum_motion_pilot_GIST_update_2,2026.1.1,MacIntel,59.88023952,6984b719db2917412dfc3135,69b92ab4aef6dee357cd729a,69b92ae13f1a506ba98e780f,0.0223,0.0223,0,148,148,63,1,fourthree,,,,,,,,,,,,,,,,,,,,,,,,,,,,,,,,,,,,,,,,,,,,,,,,,,,,,,,,,,,,,,,,,,,,,,,,,,,,,,,,,,,,,,,,,,,,,,,,,,,,,,,,,,,,,,,,,,,,,,,,,,,,,,,,,,,,,,,,,
,,6984b719db2917412dfc3135,2026-03-17_11h20.33.438,kallum_motion_pilot_GIST_update_2,2026.1.1,MacIntel,59.88023952,6984b719db2917412dfc3135,69b92ab4aef6dee357cd729a,69b92ae13f1a506ba98e780f,0.0223,0.0223,0,149,149,74,1,twoone,,,,,,,,,,,,,,,,,,,,,,,,,,,,,,,,,,,,,,,,,,,,,,,,,,,,,,,,,,,,,,,,,,,,,,,,,,,,,,,,,,,,,,,,,,,,,,,,,,,,,,,,,,,,,,,,,,,,,,,,,,,,,,,,,,,,,,,,,
,,6984b719db2917412dfc3135,2026-03-17_11h20.33.438,kallum_motion_pilot_GIST_update_2,2026.1.1,MacIntel,59.88023952,6984b719db2917412dfc3135,69b92ab4aef6dee357cd729a,69b92ae13f1a506ba98e780f,0.0224,0.0224,0,150,150,66,1,twoone,,,,,,,,,,,,,,,,,,,,,,,,,,,,,,,,,,,,,,,,,,,,,,,,,,,,,,,,,,,,,,,,,,,,,,,,,,,,,,,,,,,,,,,,,,,,,,,,,,,,,,,,,,,,,,,,,,,,,,,,,,,,,,,,,,,,,,,,,
,,6984b719db2917412dfc3135,2026-03-17_11h20.33.438,kallum_motion_pilot_GIST_update_2,2026.1.1,MacIntel,59.88023952,6984b719db2917412dfc3135,69b92ab4aef6dee357cd729a,69b92ae13f1a506ba98e780f,0.0224,0.0224,0,151,151,88,1,fivesix,,,,,,,,,,,,,,,,,,,,,,,,,,,,,,,,,,,,,,,,,,,,,,,,,,,,,,,,,,,,,,,,,,,,,,,,,,,,,,,,,,,,,,,,,,,,,,,,,,,,,,,,,,,,,,,,,,,,,,,,,,,,,,,,,,,,,,,,,
,,6984b719db2917412dfc3135,2026-03-17_11h20.33.438,kallum_motion_pilot_GIST_update_2,2026.1.1,MacIntel,59.88023952,6984b719db2917412dfc3135,69b92ab4aef6dee357cd729a,69b92ae13f1a506ba98e780f,0.0225,0.0225,0,152,152,39,1,fourthree,,,,,,,,,,,,,,,,,,,,,,,,,,,,,,,,,,,,,,,,,,,,,,,,,,,,,,,,,,,,,,,,,,,,,,,,,,,,,,,,,,,,,,,,,,,,,,,,,,,,,,,,,,,,,,,,,,,,,,,,,,,,,,,,,,,,,,,,,
,,6984b719db2917412dfc3135,2026-03-17_11h20.33.438,kallum_motion_pilot_GIST_update_2,2026.1.1,MacIntel,59.88023952,6984b719db2917412dfc3135,69b92ab4aef6dee357cd729a,69b92ae13f1a506ba98e780f,0.0226,0.0226,0,153,153,109,1,seveneight,,,,,,,,,,,,,,,,,,,,,,,,,,,,,,,,,,,,,,,,,,,,,,,,,,,,,,,,,,,,,,,,,,,,,,,,,,,,,,,,,,,,,,,,,,,,,,,,,,,,,,,,,,,,,,,,,,,,,,,,,,,,,,,,,,,,,,,,,
,,6984b719db2917412dfc3135,2026-03-17_11h20.33.438,kallum_motion_pilot_GIST_update_2,2026.1.1,MacIntel,59.88023952,6984b719db2917412dfc3135,69b92ab4aef6dee357cd729a,69b92ae13f1a506ba98e780f,0.0226,0.0226,0,154,154,46,1,fourtwo,,,,,,,,,,,,,,,,,,,,,,,,,,,,,,,,,,,,,,,,,,,,,,,,,,,,,,,,,,,,,,,,,,,,,,,,,,,,,,,,,,,,,,,,,,,,,,,,,,,,,,,,,,,,,,,,,,,,,,,,,,,,,,,,,,,,,,,,,
,,6984b719db2917412dfc3135,2026-03-17_11h20.33.438,kallum_motion_pilot_GIST_update_2,2026.1.1,MacIntel,59.88023952,6984b719db2917412dfc3135,69b92ab4aef6dee357cd729a,69b92ae13f1a506ba98e780f,0.0226,0.0226,0,155,155,100,1,sevenfive,,,,,,,,,,,,,,,,,,,,,,,,,,,,,,,,,,,,,,,,,,,,,,,,,,,,,,,,,,,,,,,,,,,,,,,,,,,,,,,,,,,,,,,,,,,,,,,,,,,,,,,,,,,,,,,,,,,,,,,,,,,,,,,,,,,,,,,,,
,,6984b719db2917412dfc3135,2026-03-17_11h20.33.438,kallum_motion_pilot_GIST_update_2,2026.1.1,MacIntel,59.88023952,6984b719db2917412dfc3135,69b92ab4aef6dee357cd729a,69b92ae13f1a506ba98e780f,0.0227,0.0227,0,156,156,22,1,fourtwo,,,,,,,,,,,,,,,,,,,,,,,,,,,,,,,,,,,,,,,,,,,,,,,,,,,,,,,,,,,,,,,,,,,,,,,,,,,,,,,,,,,,,,,,,,,,,,,,,,,,,,,,,,,,,,,,,,,,,,,,,,,,,,,,,,,,,,,,,
,,6984b719db2917412dfc3135,2026-03-17_11h20.33.438,kallum_motion_pilot_GIST_update_2,2026.1.1,MacIntel,59.88023952,6984b719db2917412dfc3135,69b92ab4aef6dee357cd729a,69b92ae13f1a506ba98e780f,0.0228,0.0228,0,157,157,126,1,eightsix,,,,,,,,,,,,,,,,,,,,,,,,,,,,,,,,,,,,,,,,,,,,,,,,,,,,,,,,,,,,,,,,,,,,,,,,,,,,,,,,,,,,,,,,,,,,,,,,,,,,,,,,,,,,,,,,,,,,,,,,,,,,,,,,,,,,,,,,,
,,6984b719db2917412dfc3135,2026-03-17_11h20.33.438,kallum_motion_pilot_GIST_update_2,2026.1.1,MacIntel,59.88023952,6984b719db2917412dfc3135,69b92ab4aef6dee357cd729a,69b92ae13f1a506ba98e780f,0.0229,0.0229,0,158,158,156,1,sevenfive,,,,,,,,,,,,,,,,,,,,,,,,,,,,,,,,,,,,,,,,,,,,,,,,,,,,,,,,,,,,,,,,,,,,,,,,,,,,,,,,,,,,,,,,,,,,,,,,,,,,,,,,,,,,,,,,,,,,,,,,,,,,,,,,,,,,,,,,,
,,6984b719db2917412dfc3135,2026-03-17_11h20.33.438,kallum_motion_pilot_GIST_update_2,2026.1.1,MacIntel,59.88023952,6984b719db2917412dfc3135,69b92ab4aef6dee357cd729a,69b92ae13f1a506ba98e780f,0.0229,0.0229,0,159,159,161,1,fiveseven,,,,,,,,,,,,,,,,,,,,,,,,,,,,,,,,,,,,,,,,,,,,,,,,,,,,,,,,,,,,,,,,,,,,,,,,,,,,,,,,,,,,,,,,,,,,,,,,,,,,,,,,,,,,,,,,,,,,,,,,,,,,,,,,,,,,,,,,,
,,6984b719db2917412dfc3135,2026-03-17_11h20.33.438,kallum_motion_pilot_GIST_update_2,2026.1.1,MacIntel,59.88023952,6984b719db2917412dfc3135,69b92ab4aef6dee357cd729a,69b92ae13f1a506ba98e780f,0.0229,0.0229,0,160,160,157,1,seveneight,,,,,,,,,,,,,,,,,,,,,,,,,,,,,,,,,,,,,,,,,,,,,,,,,,,,,,,,,,,,,,,,,,,,,,,,,,,,,,,,,,,,,,,,,,,,,,,,,,,,,,,,,,,,,,,,,,,,,,,,,,,,,,,,,,,,,,,,,
,,6984b719db2917412dfc3135,2026-03-17_11h20.33.438,kallum_motion_pilot_GIST_update_2,2026.1.1,MacIntel,59.88023952,6984b719db2917412dfc3135,69b92ab4aef6dee357cd729a,69b92ae13f1a506ba98e780f,0.0231,0.0231,0,161,161,64,1,onetwo,,,,,,,,,,,,,,,,,,,,,,,,,,,,,,,,,,,,,,,,,,,,,,,,,,,,,,,,,,,,,,,,,,,,,,,,,,,,,,,,,,,,,,,,,,,,,,,,,,,,,,,,,,,,,,,,,,,,,,,,,,,,,,,,,,,,,,,,,
,,6984b719db2917412dfc3135,2026-03-17_11h20.33.438,kallum_motion_pilot_GIST_update_2,2026.1.1,MacIntel,59.88023952,6984b719db2917412dfc3135,69b92ab4aef6dee357cd729a,69b92ae13f1a506ba98e780f,0.0231,0.0231,1,0,162,74,1,twoone,,,,,,,,,,,,,,,,,,,,,,,,,,,,,,,,,,,,,,,,,,,,,,,,,,,,,,,,,,,,,,,,,,,,,,,,,,,,,,,,,,,,,,,,,,,,,,,,,,,,,,,,,,,,,,,,,,,,,,,,,,,,,,,,,,,,,,,,,
,,6984b719db2917412dfc3135,2026-03-17_11h20.33.438,kallum_motion_pilot_GIST_update_2,2026.1.1,MacIntel,59.88023952,6984b719db2917412dfc3135,69b92ab4aef6dee357cd729a,69b92ae13f1a506ba98e780f,0.0231,0.0231,1,1,163,134,1,eightsix,,,,,,,,,,,,,,,,,,,,,,,,,,,,,,,,,,,,,,,,,,,,,,,,,,,,,,,,,,,,,,,,,,,,,,,,,,,,,,,,,,,,,,,,,,,,,,,,,,,,,,,,,,,,,,,,,,,,,,,,,,,,,,,,,,,,,,,,,
,,6984b719db2917412dfc3135,2026-03-17_11h20.33.438,kallum_motion_pilot_GIST_update_2,2026.1.1,MacIntel,59.88023952,6984b719db2917412dfc3135,69b92ab4aef6dee357cd729a,69b92ae13f1a506ba98e780f,0.0232,0.0232,1,2,164,30,1,fourtwo,,,,,,,,,,,,,,,,,,,,,,,,,,,,,,,,,,,,,,,,,,,,,,,,,,,,,,,,,,,,,,,,,,,,,,,,,,,,,,,,,,,,,,,,,,,,,,,,,,,,,,,,,,,,,,,,,,,,,,,,,,,,,,,,,,,,,,,,,
,,6984b719db2917412dfc3135,2026-03-17_11h20.33.438,kallum_motion_pilot_GIST_update_2,2026.1.1,MacIntel,59.88023952,6984b719db2917412dfc3135,69b92ab4aef6dee357cd729a,69b92ae13f1a506ba98e780f,0.0233,0.0233,1,3,165,125,1,seveneight,,,,,,,,,,,,,,,,,,,,,,,,,,,,,,,,,,,,,,,,,,,,,,,,,,,,,,,,,,,,,,,,,,,,,,,,,,,,,,,,,,,,,,,,,,,,,,,,,,,,,,,,,,,,,,,,,,,,,,,,,,,,,,,,,,,,,,,,,
,,6984b719db2917412dfc3135,2026-03-17_11h20.33.438,kallum_motion_pilot_GIST_update_2,2026.1.1,MacIntel,59.88023952,6984b719db2917412dfc3135,69b92ab4aef6dee357cd729a,69b92ae13f1a506ba98e780f,0.0233,0.0233,1,4,166,131,1,sixeight,,,,,,,,,,,,,,,,,,,,,,,,,,,,,,,,,,,,,,,,,,,,,,,,,,,,,,,,,,,,,,,,,,,,,,,,,,,,,,,,,,,,,,,,,,,,,,,,,,,,,,,,,,,,,,,,,,,,,,,,,,,,,,,,,,,,,,,,,
,,6984b719db2917412dfc3135,2026-03-17_11h20.33.438,kallum_motion_pilot_GIST_update_2,2026.1.1,MacIntel,59.88023952,6984b719db2917412dfc3135,69b92ab4aef6dee357cd729a,69b92ae13f1a506ba98e780f,0.0234,0.0234,1,5,167,160,1,fivesix,,,,,,,,,,,,,,,,,,,,,,,,,,,,,,,,,,,,,,,,,,,,,,,,,,,,,,,,,,,,,,,,,,,,,,,,,,,,,,,,,,,,,,,,,,,,,,,,,,,,,,,,,,,,,,,,,,,,,,,,,,,,,,,,,,,,,,,,,
,,6984b719db2917412dfc3135,2026-03-17_11h20.33.438,kallum_motion_pilot_GIST_update_2,2026.1.1,MacIntel,59.88023952,6984b719db2917412dfc3135,69b92ab4aef6dee357cd729a,69b92ae13f1a506ba98e780f,0.0235,0.0235,1,6,168,23,1,fourthree,,,,,,,,,,,,,,,,,,,,,,,,,,,,,,,,,,,,,,,,,,,,,,,,,,,,,,,,,,,,,,,,,,,,,,,,,,,,,,,,,,,,,,,,,,,,,,,,,,,,,,,,,,,,,,,,,,,,,,,,,,,,,,,,,,,,,,,,,
,,6984b719db2917412dfc3135,2026-03-17_11h20.33.438,kallum_motion_pilot_GIST_update_2,2026.1.1,MacIntel,59.88023952,6984b719db2917412dfc3135,69b92ab4aef6dee357cd729a,69b92ae13f1a506ba98e780f,0.0235,0.0235,1,7,169,4,1,threeone,,,,,,,,,,,,,,,,,,,,,,,,,,,,,,,,,,,,,,,,,,,,,,,,,,,,,,,,,,,,,,,,,,,,,,,,,,,,,,,,,,,,,,,,,,,,,,,,,,,,,,,,,,,,,,,,,,,,,,,,,,,,,,,,,,,,,,,,,
,,6984b719db2917412dfc3135,2026-03-17_11h20.33.438,kallum_motion_pilot_GIST_update_2,2026.1.1,MacIntel,59.88023952,6984b719db2917412dfc3135,69b92ab4aef6dee357cd729a,69b92ae13f1a506ba98e780f,0.0235,0.0235,1,8,170,26,1,twoone,,,,,,,,,,,,,,,,,,,,,,,,,,,,,,,,,,,,,,,,,,,,,,,,,,,,,,,,,,,,,,,,,,,,,,,,,,,,,,,,,,,,,,,,,,,,,,,,,,,,,,,,,,,,,,,,,,,,,,,,,,,,,,,,,,,,,,,,,
,,6984b719db2917412dfc3135,2026-03-17_11h20.33.438,kallum_motion_pilot_GIST_update_2,2026.1.1,MacIntel,59.88023952,6984b719db2917412dfc3135,69b92ab4aef6dee357cd729a,69b92ae13f1a506ba98e780f,0.0236,0.0236,1,9,171,102,1,eightsix,,,,,,,,,,,,,,,,,,,,,,,,,,,,,,,,,,,,,,,,,,,,,,,,,,,,,,,,,,,,,,,,,,,,,,,,,,,,,,,,,,,,,,,,,,,,,,,,,,,,,,,,,,,,,,,,,,,,,,,,,,,,,,,,,,,,,,,,,
,,6984b719db2917412dfc3135,2026-03-17_11h20.33.438,kallum_motion_pilot_GIST_update_2,2026.1.1,MacIntel,59.88023952,6984b719db2917412dfc3135,69b92ab4aef6dee357cd729a,69b92ae13f1a506ba98e780f,0.0236,0.0236,1,10,172,152,1,fivesix,,,,,,,,,,,,,,,,,,,,,,,,,,,,,,,,,,,,,,,,,,,,,,,,,,,,,,,,,,,,,,,,,,,,,,,,,,,,,,,,,,,,,,,,,,,,,,,,,,,,,,,,,,,,,,,,,,,,,,,,,,,,,,,,,,,,,,,,,
,,6984b719db2917412dfc3135,2026-03-17_11h20.33.438,kallum_motion_pilot_GIST_update_2,2026.1.1,MacIntel,59.88023952,6984b719db2917412dfc3135,69b92ab4aef6dee357cd729a,69b92ae13f1a506ba98e780f,0.0237,0.0237,1,11,173,83,1,sixeight,,,,,,,,,,,,,,,,,,,,,,,,,,,,,,,,,,,,,,,,,,,,,,,,,,,,,,,,,,,,,,,,,,,,,,,,,,,,,,,,,,,,,,,,,,,,,,,,,,,,,,,,,,,,,,,,,,,,,,,,,,,,,,,,,,,,,,,,,
,,6984b719db2917412dfc3135,2026-03-17_11h20.33.438,kallum_motion_pilot_GIST_update_2,2026.1.1,MacIntel,59.88023952,6984b719db2917412dfc3135,69b92ab4aef6dee357cd729a,69b92ae13f1a506ba98e780f,0.0237,0.0237,1,12,174,109,1,seveneight,,,,,,,,,,,,,,,,,,,,,,,,,,,,,,,,,,,,,,,,,,,,,,,,,,,,,,,,,,,,,,,,,,,,,,,,,,,,,,,,,,,,,,,,,,,,,,,,,,,,,,,,,,,,,,,,,,,,,,,,,,,,,,,,,,,,,,,,,
,,6984b719db2917412dfc3135,2026-03-17_11h20.33.438,kallum_motion_pilot_GIST_update_2,2026.1.1,MacIntel,59.88023952,6984b719db2917412dfc3135,69b92ab4aef6dee357cd729a,69b92ae13f1a506ba98e780f,0.0238,0.0239,1,13,175,129,1,fiveseven,,,,,,,,,,,,,,,,,,,,,,,,,,,,,,,,,,,,,,,,,,,,,,,,,,,,,,,,,,,,,,,,,,,,,,,,,,,,,,,,,,,,,,,,,,,,,,,,,,,,,,,,,,,,,,,,,,,,,,,,,,,,,,,,,,,,,,,,,
,,6984b719db2917412dfc3135,2026-03-17_11h20.33.438,kallum_motion_pilot_GIST_update_2,2026.1.1,MacIntel,59.88023952,6984b719db2917412dfc3135,69b92ab4aef6dee357cd729a,69b92ae13f1a506ba98e780f,0.0239,0.0239,1,14,176,68,1,threeone,,,,,,,,,,,,,,,,,,,,,,,,,,,,,,,,,,,,,,,,,,,,,,,,,,,,,,,,,,,,,,,,,,,,,,,,,,,,,,,,,,,,,,,,,,,,,,,,,,,,,,,,,,,,,,,,,,,,,,,,,,,,,,,,,,,,,,,,,
,,6984b719db2917412dfc3135,2026-03-17_11h20.33.438,kallum_motion_pilot_GIST_update_2,2026.1.1,MacIntel,59.88023952,6984b719db2917412dfc3135,69b92ab4aef6dee357cd729a,69b92ae13f1a506ba98e780f,0.0239,0.0239,1,15,177,155,1,sixeight,,,,,,,,,,,,,,,,,,,,,,,,,,,,,,,,,,,,,,,,,,,,,,,,,,,,,,,,,,,,,,,,,,,,,,,,,,,,,,,,,,,,,,,,,,,,,,,,,,,,,,,,,,,,,,,,,,,,,,,,,,,,,,,,,,,,,,,,,
,,6984b719db2917412dfc3135,2026-03-17_11h20.33.438,kallum_motion_pilot_GIST_update_2,2026.1.1,MacIntel,59.88023952,6984b719db2917412dfc3135,69b92ab4aef6dee357cd729a,69b92ae13f1a506ba98e780f,0.024,0.024,1,16,178,51,1,twofour,,,,,,,,,,,,,,,,,,,,,,,,,,,,,,,,,,,,,,,,,,,,,,,,,,,,,,,,,,,,,,,,,,,,,,,,,,,,,,,,,,,,,,,,,,,,,,,,,,,,,,,,,,,,,,,,,,,,,,,,,,,,,,,,,,,,,,,,,
,,6984b719db2917412dfc3135,2026-03-17_11h20.33.438,kallum_motion_pilot_GIST_update_2,2026.1.1,MacIntel,59.88023952,6984b719db2917412dfc3135,69b92ab4aef6dee357cd729a,69b92ae13f1a506ba98e780f,0.024,0.024,1,17,179,101,1,seveneight,,,,,,,,,,,,,,,,,,,,,,,,,,,,,,,,,,,,,,,,,,,,,,,,,,,,,,,,,,,,,,,,,,,,,,,,,,,,,,,,,,,,,,,,,,,,,,,,,,,,,,,,,,,,,,,,,,,,,,,,,,,,,,,,,,,,,,,,,
,,6984b719db2917412dfc3135,2026-03-17_11h20.33.438,kallum_motion_pilot_GIST_update_2,2026.1.1,MacIntel,59.88023952,6984b719db2917412dfc3135,69b92ab4aef6dee357cd729a,69b92ae13f1a506ba98e780f,0.0241,0.0241,1,18,180,14,1,fourtwo,,,,,,,,,,,,,,,,,,,,,,,,,,,,,,,,,,,,,,,,,,,,,,,,,,,,,,,,,,,,,,,,,,,,,,,,,,,,,,,,,,,,,,,,,,,,,,,,,,,,,,,,,,,,,,,,,,,,,,,,,,,,,,,,,,,,,,,,,
,,6984b719db2917412dfc3135,2026-03-17_11h20.33.438,kallum_motion_pilot_GIST_update_2,2026.1.1,MacIntel,59.88023952,6984b719db2917412dfc3135,69b92ab4aef6dee357cd729a,69b92ae13f1a506ba98e780f,0.0241,0.0241,1,19,181,60,1,threeone,,,,,,,,,,,,,,,,,,,,,,,,,,,,,,,,,,,,,,,,,,,,,,,,,,,,,,,,,,,,,,,,,,,,,,,,,,,,,,,,,,,,,,,,,,,,,,,,,,,,,,,,,,,,,,,,,,,,,,,,,,,,,,,,,,,,,,,,,
,,6984b719db2917412dfc3135,2026-03-17_11h20.33.438,kallum_motion_pilot_GIST_update_2,2026.1.1,MacIntel,59.88023952,6984b719db2917412dfc3135,69b92ab4aef6dee357cd729a,69b92ae13f1a506ba98e780f,0.0242,0.0242,1,20,182,97,1,fiveseven,,,,,,,,,,,,,,,,,,,,,,,,,,,,,,,,,,,,,,,,,,,,,,,,,,,,,,,,,,,,,,,,,,,,,,,,,,,,,,,,,,,,,,,,,,,,,,,,,,,,,,,,,,,,,,,,,,,,,,,,,,,,,,,,,,,,,,,,,
,,6984b719db2917412dfc3135,2026-03-17_11h20.33.438,kallum_motion_pilot_GIST_update_2,2026.1.1,MacIntel,59.88023952,6984b719db2917412dfc3135,69b92ab4aef6dee357cd729a,69b92ae13f1a506ba98e780f,0.0243,0.0243,1,21,183,120,1,fivesix,,,,,,,,,,,,,,,,,,,,,,,,,,,,,,,,,,,,,,,,,,,,,,,,,,,,,,,,,,,,,,,,,,,,,,,,,,,,,,,,,,,,,,,,,,,,,,,,,,,,,,,,,,,,,,,,,,,,,,,,,,,,,,,,,,,,,,,,,
,,6984b719db2917412dfc3135,2026-03-17_11h20.33.438,kallum_motion_pilot_GIST_update_2,2026.1.1,MacIntel,59.88023952,6984b719db2917412dfc3135,69b92ab4aef6dee357cd729a,69b92ae13f1a506ba98e780f,0.0243,0.0243,1,22,184,145,1,fiveseven,,,,,,,,,,,,,,,,,,,,,,,,,,,,,,,,,,,,,,,,,,,,,,,,,,,,,,,,,,,,,,,,,,,,,,,,,,,,,,,,,,,,,,,,,,,,,,,,,,,,,,,,,,,,,,,,,,,,,,,,,,,,,,,,,,,,,,,,,
,,6984b719db2917412dfc3135,2026-03-17_11h20.33.438,kallum_motion_pilot_GIST_update_2,2026.1.1,MacIntel,59.88023952,6984b719db2917412dfc3135,69b92ab4aef6dee357cd729a,69b92ae13f1a506ba98e780f,0.0244,0.0244,1,23,185,25,1,onethree,,,,,,,,,,,,,,,,,,,,,,,,,,,,,,,,,,,,,,,,,,,,,,,,,,,,,,,,,,,,,,,,,,,,,,,,,,,,,,,,,,,,,,,,,,,,,,,,,,,,,,,,,,,,,,,,,,,,,,,,,,,,,,,,,,,,,,,,,
,,6984b719db2917412dfc3135,2026-03-17_11h20.33.438,kallum_motion_pilot_GIST_update_2,2026.1.1,MacIntel,59.88023952,6984b719db2917412dfc3135,69b92ab4aef6dee357cd729a,69b92ae13f1a506ba98e780f,0.0244,0.0244,1,24,186,21,1,threefour,,,,,,,,,,,,,,,,,,,,,,,,,,,,,,,,,,,,,,,,,,,,,,,,,,,,,,,,,,,,,,,,,,,,,,,,,,,,,,,,,,,,,,,,,,,,,,,,,,,,,,,,,,,,,,,,,,,,,,,,,,,,,,,,,,,,,,,,,
,,6984b719db2917412dfc3135,2026-03-17_11h20.33.438,kallum_motion_pilot_GIST_update_2,2026.1.1,MacIntel,59.88023952,6984b719db2917412dfc3135,69b92ab4aef6dee357cd729a,69b92ae13f1a506ba98e780f,0.0245,0.0245,1,25,187,36,1,threeone,,,,,,,,,,,,,,,,,,,,,,,,,,,,,,,,,,,,,,,,,,,,,,,,,,,,,,,,,,,,,,,,,,,,,,,,,,,,,,,,,,,,,,,,,,,,,,,,,,,,,,,,,,,,,,,,,,,,,,,,,,,,,,,,,,,,,,,,,
,,6984b719db2917412dfc3135,2026-03-17_11h20.33.438,kallum_motion_pilot_GIST_update_2,2026.1.1,MacIntel,59.88023952,6984b719db2917412dfc3135,69b92ab4aef6dee357cd729a,69b92ae13f1a506ba98e780f,0.0246,0.0246,1,26,188,31,1,fourthree,,,,,,,,,,,,,,,,,,,,,,,,,,,,,,,,,,,,,,,,,,,,,,,,,,,,,,,,,,,,,,,,,,,,,,,,,,,,,,,,,,,,,,,,,,,,,,,,,,,,,,,,,,,,,,,,,,,,,,,,,,,,,,,,,,,,,,,,,
,,6984b719db2917412dfc3135,2026-03-17_11h20.33.438,kallum_motion_pilot_GIST_update_2,2026.1.1,MacIntel,59.88023952,6984b719db2917412dfc3135,69b92ab4aef6dee357cd729a,69b92ae13f1a506ba98e780f,0.0246,0.0246,1,27,189,67,1,twofour,,,,,,,,,,,,,,,,,,,,,,,,,,,,,,,,,,,,,,,,,,,,,,,,,,,,,,,,,,,,,,,,,,,,,,,,,,,,,,,,,,,,,,,,,,,,,,,,,,,,,,,,,,,,,,,,,,,,,,,,,,,,,,,,,,,,,,,,,
,,6984b719db2917412dfc3135,2026-03-17_11h20.33.438,kallum_motion_pilot_GIST_update_2,2026.1.1,MacIntel,59.88023952,6984b719db2917412dfc3135,69b92ab4aef6dee357cd729a,69b92ae13f1a506ba98e780f,0.0246,0.0247,1,28,190,128,1,fivesix,,,,,,,,,,,,,,,,,,,,,,,,,,,,,,,,,,,,,,,,,,,,,,,,,,,,,,,,,,,,,,,,,,,,,,,,,,,,,,,,,,,,,,,,,,,,,,,,,,,,,,,,,,,,,,,,,,,,,,,,,,,,,,,,,,,,,,,,,
,,6984b719db2917412dfc3135,2026-03-17_11h20.33.438,kallum_motion_pilot_GIST_update_2,2026.1.1,MacIntel,59.88023952,6984b719db2917412dfc3135,69b92ab4aef6dee357cd729a,69b92ae13f1a506ba98e780f,0.0247,0.0247,1,29,191,50,1,twoone,,,,,,,,,,,,,,,,,,,,,,,,,,,,,,,,,,,,,,,,,,,,,,,,,,,,,,,,,,,,,,,,,,,,,,,,,,,,,,,,,,,,,,,,,,,,,,,,,,,,,,,,,,,,,,,,,,,,,,,,,,,,,,,,,,,,,,,,,
,,6984b719db2917412dfc3135,2026-03-17_11h20.33.438,kallum_motion_pilot_GIST_update_2,2026.1.1,MacIntel,59.88023952,6984b719db2917412dfc3135,69b92ab4aef6dee357cd729a,69b92ae13f1a506ba98e780f,0.0248,0.0248,1,30,192,1,1,onethree,,,,,,,,,,,,,,,,,,,,,,,,,,,,,,,,,,,,,,,,,,,,,,,,,,,,,,,,,,,,,,,,,,,,,,,,,,,,,,,,,,,,,,,,,,,,,,,,,,,,,,,,,,,,,,,,,,,,,,,,,,,,,,,,,,,,,,,,,
,,6984b719db2917412dfc3135,2026-03-17_11h20.33.438,kallum_motion_pilot_GIST_update_2,2026.1.1,MacIntel,59.88023952,6984b719db2917412dfc3135,69b92ab4aef6dee357cd729a,69b92ae13f1a506ba98e780f,0.0249,0.0249,1,31,193,90,1,sixfive,,,,,,,,,,,,,,,,,,,,,,,,,,,,,,,,,,,,,,,,,,,,,,,,,,,,,,,,,,,,,,,,,,,,,,,,,,,,,,,,,,,,,,,,,,,,,,,,,,,,,,,,,,,,,,,,,,,,,,,,,,,,,,,,,,,,,,,,,
,,6984b719db2917412dfc3135,2026-03-17_11h20.33.438,kallum_motion_pilot_GIST_update_2,2026.1.1,MacIntel,59.88023952,6984b719db2917412dfc3135,69b92ab4aef6dee357cd729a,69b92ae13f1a506ba98e780f,0.0249,0.0249,1,32,194,118,1,eightsix,,,,,,,,,,,,,,,,,,,,,,,,,,,,,,,,,,,,,,,,,,,,,,,,,,,,,,,,,,,,,,,,,,,,,,,,,,,,,,,,,,,,,,,,,,,,,,,,,,,,,,,,,,,,,,,,,,,,,,,,,,,,,,,,,,,,,,,,,
,,6984b719db2917412dfc3135,2026-03-17_11h20.33.438,kallum_motion_pilot_GIST_update_2,2026.1.1,MacIntel,59.88023952,6984b719db2917412dfc3135,69b92ab4aef6dee357cd729a,69b92ae13f1a506ba98e780f,0.0249,0.0249,1,33,195,143,1,eightseven,,,,,,,,,,,,,,,,,,,,,,,,,,,,,,,,,,,,,,,,,,,,,,,,,,,,,,,,,,,,,,,,,,,,,,,,,,,,,,,,,,,,,,,,,,,,,,,,,,,,,,,,,,,,,,,,,,,,,,,,,,,,,,,,,,,,,,,,,
,,6984b719db2917412dfc3135,2026-03-17_11h20.33.438,kallum_motion_pilot_GIST_update_2,2026.1.1,MacIntel,59.88023952,6984b719db2917412dfc3135,69b92ab4aef6dee357cd729a,69b92ae13f1a506ba98e780f,0.025,0.025,1,34,196,116,1,sevenfive,,,,,,,,,,,,,,,,,,,,,,,,,,,,,,,,,,,,,,,,,,,,,,,,,,,,,,,,,,,,,,,,,,,,,,,,,,,,,,,,,,,,,,,,,,,,,,,,,,,,,,,,,,,,,,,,,,,,,,,,,,,,,,,,,,,,,,,,,
,,6984b719db2917412dfc3135,2026-03-17_11h20.33.438,kallum_motion_pilot_GIST_update_2,2026.1.1,MacIntel,59.88023952,6984b719db2917412dfc3135,69b92ab4aef6dee357cd729a,69b92ae13f1a506ba98e780f,0.025,0.025,1,35,197,17,1,onethree,,,,,,,,,,,,,,,,,,,,,,,,,,,,,,,,,,,,,,,,,,,,,,,,,,,,,,,,,,,,,,,,,,,,,,,,,,,,,,,,,,,,,,,,,,,,,,,,,,,,,,,,,,,,,,,,,,,,,,,,,,,,,,,,,,,,,,,,,
,,6984b719db2917412dfc3135,2026-03-17_11h20.33.438,kallum_motion_pilot_GIST_update_2,2026.1.1,MacIntel,59.88023952,6984b719db2917412dfc3135,69b92ab4aef6dee357cd729a,69b92ae13f1a506ba98e780f,0.0251,0.0251,1,36,198,88,1,fivesix,,,,,,,,,,,,,,,,,,,,,,,,,,,,,,,,,,,,,,,,,,,,,,,,,,,,,,,,,,,,,,,,,,,,,,,,,,,,,,,,,,,,,,,,,,,,,,,,,,,,,,,,,,,,,,,,,,,,,,,,,,,,,,,,,,,,,,,,,
,,6984b719db2917412dfc3135,2026-03-17_11h20.33.438,kallum_motion_pilot_GIST_update_2,2026.1.1,MacIntel,59.88023952,6984b719db2917412dfc3135,69b92ab4aef6dee357cd729a,69b92ae13f1a506ba98e780f,0.0253,0.0253,1,37,199,27,1,twofour,,,,,,,,,,,,,,,,,,,,,,,,,,,,,,,,,,,,,,,,,,,,,,,,,,,,,,,,,,,,,,,,,,,,,,,,,,,,,,,,,,,,,,,,,,,,,,,,,,,,,,,,,,,,,,,,,,,,,,,,,,,,,,,,,,,,,,,,,
,,6984b719db2917412dfc3135,2026-03-17_11h20.33.438,kallum_motion_pilot_GIST_update_2,2026.1.1,MacIntel,59.88023952,6984b719db2917412dfc3135,69b92ab4aef6dee357cd729a,69b92ae13f1a506ba98e780f,0.0253,0.0253,1,38,200,92,1,sevenfive,,,,,,,,,,,,,,,,,,,,,,,,,,,,,,,,,,,,,,,,,,,,,,,,,,,,,,,,,,,,,,,,,,,,,,,,,,,,,,,,,,,,,,,,,,,,,,,,,,,,,,,,,,,,,,,,,,,,,,,,,,,,,,,,,,,,,,,,,
,,6984b719db2917412dfc3135,2026-03-17_11h20.33.438,kallum_motion_pilot_GIST_update_2,2026.1.1,MacIntel,59.88023952,6984b719db2917412dfc3135,69b92ab4aef6dee357cd729a,69b92ae13f1a506ba98e780f,0.0254,0.0254,1,39,201,107,1,sixeight,,,,,,,,,,,,,,,,,,,,,,,,,,,,,,,,,,,,,,,,,,,,,,,,,,,,,,,,,,,,,,,,,,,,,,,,,,,,,,,,,,,,,,,,,,,,,,,,,,,,,,,,,,,,,,,,,,,,,,,,,,,,,,,,,,,,,,,,,
,,6984b719db2917412dfc3135,2026-03-17_11h20.33.438,kallum_motion_pilot_GIST_update_2,2026.1.1,MacIntel,59.88023952,6984b719db2917412dfc3135,69b92ab4aef6dee357cd729a,69b92ae13f1a506ba98e780f,0.0254,0.0254,1,40,202,156,1,sevenfive,,,,,,,,,,,,,,,,,,,,,,,,,,,,,,,,,,,,,,,,,,,,,,,,,,,,,,,,,,,,,,,,,,,,,,,,,,,,,,,,,,,,,,,,,,,,,,,,,,,,,,,,,,,,,,,,,,,,,,,,,,,,,,,,,,,,,,,,,
,,6984b719db2917412dfc3135,2026-03-17_11h20.33.438,kallum_motion_pilot_GIST_update_2,2026.1.1,MacIntel,59.88023952,6984b719db2917412dfc3135,69b92ab4aef6dee357cd729a,69b92ae13f1a506ba98e780f,0.0254,0.0254,1,41,203,58,1,twoone,,,,,,,,,,,,,,,,,,,,,,,,,,,,,,,,,,,,,,,,,,,,,,,,,,,,,,,,,,,,,,,,,,,,,,,,,,,,,,,,,,,,,,,,,,,,,,,,,,,,,,,,,,,,,,,,,,,,,,,,,,,,,,,,,,,,,,,,,
,,6984b719db2917412dfc3135,2026-03-17_11h20.33.438,kallum_motion_pilot_GIST_update_2,2026.1.1,MacIntel,59.88023952,6984b719db2917412dfc3135,69b92ab4aef6dee357cd729a,69b92ae13f1a506ba98e780f,0.0255,0.0255,1,42,204,135,1,eightseven,,,,,,,,,,,,,,,,,,,,,,,,,,,,,,,,,,,,,,,,,,,,,,,,,,,,,,,,,,,,,,,,,,,,,,,,,,,,,,,,,,,,,,,,,,,,,,,,,,,,,,,,,,,,,,,,,,,,,,,,,,,,,,,,,,,,,,,,,
,,6984b719db2917412dfc3135,2026-03-17_11h20.33.438,kallum_motion_pilot_GIST_update_2,2026.1.1,MacIntel,59.88023952,6984b719db2917412dfc3135,69b92ab4aef6dee357cd729a,69b92ae13f1a506ba98e780f,0.0256,0.0256,1,43,205,137,1,fiveseven,,,,,,,,,,,,,,,,,,,,,,,,,,,,,,,,,,,,,,,,,,,,,,,,,,,,,,,,,,,,,,,,,,,,,,,,,,,,,,,,,,,,,,,,,,,,,,,,,,,,,,,,,,,,,,,,,,,,,,,,,,,,,,,,,,,,,,,,,
,,6984b719db2917412dfc3135,2026-03-17_11h20.33.438,kallum_motion_pilot_GIST_update_2,2026.1.1,MacIntel,59.88023952,6984b719db2917412dfc3135,69b92ab4aef6dee357cd729a,69b92ae13f1a506ba98e780f,0.0256,0.0256,1,44,206,75,1,twofour,,,,,,,,,,,,,,,,,,,,,,,,,,,,,,,,,,,,,,,,,,,,,,,,,,,,,,,,,,,,,,,,,,,,,,,,,,,,,,,,,,,,,,,,,,,,,,,,,,,,,,,,,,,,,,,,,,,,,,,,,,,,,,,,,,,,,,,,,
,,6984b719db2917412dfc3135,2026-03-17_11h20.33.438,kallum_motion_pilot_GIST_update_2,2026.1.1,MacIntel,59.88023952,6984b719db2917412dfc3135,69b92ab4aef6dee357cd729a,69b92ae13f1a506ba98e780f,0.0256,0.0256,1,45,207,65,1,onethree,,,,,,,,,,,,,,,,,,,,,,,,,,,,,,,,,,,,,,,,,,,,,,,,,,,,,,,,,,,,,,,,,,,,,,,,,,,,,,,,,,,,,,,,,,,,,,,,,,,,,,,,,,,,,,,,,,,,,,,,,,,,,,,,,,,,,,,,,
,,6984b719db2917412dfc3135,2026-03-17_11h20.33.438,kallum_motion_pilot_GIST_update_2,2026.1.1,MacIntel,59.88023952,6984b719db2917412dfc3135,69b92ab4aef6dee357cd729a,69b92ae13f1a506ba98e780f,0.0258,0.0258,1,46,208,93,1,seveneight,,,,,,,,,,,,,,,,,,,,,,,,,,,,,,,,,,,,,,,,,,,,,,,,,,,,,,,,,,,,,,,,,,,,,,,,,,,,,,,,,,,,,,,,,,,,,,,,,,,,,,,,,,,,,,,,,,,,,,,,,,,,,,,,,,,,,,,,,
,,6984b719db2917412dfc3135,2026-03-17_11h20.33.438,kallum_motion_pilot_GIST_update_2,2026.1.1,MacIntel,59.88023952,6984b719db2917412dfc3135,69b92ab4aef6dee357cd729a,69b92ae13f1a506ba98e780f,0.0258,0.0258,1,47,209,91,1,sixeight,,,,,,,,,,,,,,,,,,,,,,,,,,,,,,,,,,,,,,,,,,,,,,,,,,,,,,,,,,,,,,,,,,,,,,,,,,,,,,,,,,,,,,,,,,,,,,,,,,,,,,,,,,,,,,,,,,,,,,,,,,,,,,,,,,,,,,,,,
,,6984b719db2917412dfc3135,2026-03-17_11h20.33.438,kallum_motion_pilot_GIST_update_2,2026.1.1,MacIntel,59.88023952,6984b719db2917412dfc3135,69b92ab4aef6dee357cd729a,69b92ae13f1a506ba98e780f,0.0258,0.0258,1,48,210,121,1,fiveseven,,,,,,,,,,,,,,,,,,,,,,,,,,,,,,,,,,,,,,,,,,,,,,,,,,,,,,,,,,,,,,,,,,,,,,,,,,,,,,,,,,,,,,,,,,,,,,,,,,,,,,,,,,,,,,,,,,,,,,,,,,,,,,,,,,,,,,,,,
,,6984b719db2917412dfc3135,2026-03-17_11h20.33.438,kallum_motion_pilot_GIST_update_2,2026.1.1,MacIntel,59.88023952,6984b719db2917412dfc3135,69b92ab4aef6dee357cd729a,69b92ae13f1a506ba98e780f,0.0259,0.0259,1,49,211,43,1,twofour,,,,,,,,,,,,,,,,,,,,,,,,,,,,,,,,,,,,,,,,,,,,,,,,,,,,,,,,,,,,,,,,,,,,,,,,,,,,,,,,,,,,,,,,,,,,,,,,,,,,,,,,,,,,,,,,,,,,,,,,,,,,,,,,,,,,,,,,,
,,6984b719db2917412dfc3135,2026-03-17_11h20.33.438,kallum_motion_pilot_GIST_update_2,2026.1.1,MacIntel,59.88023952,6984b719db2917412dfc3135,69b92ab4aef6dee357cd729a,69b92ae13f1a506ba98e780f,0.0259,0.0259,1,50,212,72,1,onetwo,,,,,,,,,,,,,,,,,,,,,,,,,,,,,,,,,,,,,,,,,,,,,,,,,,,,,,,,,,,,,,,,,,,,,,,,,,,,,,,,,,,,,,,,,,,,,,,,,,,,,,,,,,,,,,,,,,,,,,,,,,,,,,,,,,,,,,,,,
,,6984b719db2917412dfc3135,2026-03-17_11h20.33.438,kallum_motion_pilot_GIST_update_2,2026.1.1,MacIntel,59.88023952,6984b719db2917412dfc3135,69b92ab4aef6dee357cd729a,69b92ae13f1a506ba98e780f,0.0261,0.0261,1,51,213,46,1,fourtwo,,,,,,,,,,,,,,,,,,,,,,,,,,,,,,,,,,,,,,,,,,,,,,,,,,,,,,,,,,,,,,,,,,,,,,,,,,,,,,,,,,,,,,,,,,,,,,,,,,,,,,,,,,,,,,,,,,,,,,,,,,,,,,,,,,,,,,,,,
,,6984b719db2917412dfc3135,2026-03-17_11h20.33.438,kallum_motion_pilot_GIST_update_2,2026.1.1,MacIntel,59.88023952,6984b719db2917412dfc3135,69b92ab4aef6dee357cd729a,69b92ae13f1a506ba98e780f,0.0261,0.0261,1,52,214,84,1,sevenfive,,,,,,,,,,,,,,,,,,,,,,,,,,,,,,,,,,,,,,,,,,,,,,,,,,,,,,,,,,,,,,,,,,,,,,,,,,,,,,,,,,,,,,,,,,,,,,,,,,,,,,,,,,,,,,,,,,,,,,,,,,,,,,,,,,,,,,,,,
,,6984b719db2917412dfc3135,2026-03-17_11h20.33.438,kallum_motion_pilot_GIST_update_2,2026.1.1,MacIntel,59.88023952,6984b719db2917412dfc3135,69b92ab4aef6dee357cd729a,69b92ae13f1a506ba98e780f,0.0261,0.0261,1,53,215,117,1,seveneight,,,,,,,,,,,,,,,,,,,,,,,,,,,,,,,,,,,,,,,,,,,,,,,,,,,,,,,,,,,,,,,,,,,,,,,,,,,,,,,,,,,,,,,,,,,,,,,,,,,,,,,,,,,,,,,,,,,,,,,,,,,,,,,,,,,,,,,,,
,,6984b719db2917412dfc3135,2026-03-17_11h20.33.438,kallum_motion_pilot_GIST_update_2,2026.1.1,MacIntel,59.88023952,6984b719db2917412dfc3135,69b92ab4aef6dee357cd729a,69b92ae13f1a506ba98e780f,0.0262,0.0262,1,54,216,12,1,threeone,,,,,,,,,,,,,,,,,,,,,,,,,,,,,,,,,,,,,,,,,,,,,,,,,,,,,,,,,,,,,,,,,,,,,,,,,,,,,,,,,,,,,,,,,,,,,,,,,,,,,,,,,,,,,,,,,,,,,,,,,,,,,,,,,,,,,,,,,
,,6984b719db2917412dfc3135,2026-03-17_11h20.33.438,kallum_motion_pilot_GIST_update_2,2026.1.1,MacIntel,59.88023952,6984b719db2917412dfc3135,69b92ab4aef6dee357cd729a,69b92ae13f1a506ba98e780f,0.0262,0.0263,1,55,217,18,1,twoone,,,,,,,,,,,,,,,,,,,,,,,,,,,,,,,,,,,,,,,,,,,,,,,,,,,,,,,,,,,,,,,,,,,,,,,,,,,,,,,,,,,,,,,,,,,,,,,,,,,,,,,,,,,,,,,,,,,,,,,,,,,,,,,,,,,,,,,,,
,,6984b719db2917412dfc3135,2026-03-17_11h20.33.438,kallum_motion_pilot_GIST_update_2,2026.1.1,MacIntel,59.88023952,6984b719db2917412dfc3135,69b92ab4aef6dee357cd729a,69b92ae13f1a506ba98e780f,0.0263,0.0263,1,56,218,22,1,fourtwo,,,,,,,,,,,,,,,,,,,,,,,,,,,,,,,,,,,,,,,,,,,,,,,,,,,,,,,,,,,,,,,,,,,,,,,,,,,,,,,,,,,,,,,,,,,,,,,,,,,,,,,,,,,,,,,,,,,,,,,,,,,,,,,,,,,,,,,,,
,,6984b719db2917412dfc3135,2026-03-17_11h20.33.438,kallum_motion_pilot_GIST_update_2,2026.1.1,MacIntel,59.88023952,6984b719db2917412dfc3135,69b92ab4aef6dee357cd729a,69b92ae13f1a506ba98e780f,0.0264,0.0264,1,57,219,146,1,sixfive,,,,,,,,,,,,,,,,,,,,,,,,,,,,,,,,,,,,,,,,,,,,,,,,,,,,,,,,,,,,,,,,,,,,,,,,,,,,,,,,,,,,,,,,,,,,,,,,,,,,,,,,,,,,,,,,,,,,,,,,,,,,,,,,,,,,,,,,,
,,6984b719db2917412dfc3135,2026-03-17_11h20.33.438,kallum_motion_pilot_GIST_update_2,2026.1.1,MacIntel,59.88023952,6984b719db2917412dfc3135,69b92ab4aef6dee357cd729a,69b92ae13f1a506ba98e780f,0.0265,0.0265,1,58,220,28,1,threeone,,,,,,,,,,,,,,,,,,,,,,,,,,,,,,,,,,,,,,,,,,,,,,,,,,,,,,,,,,,,,,,,,,,,,,,,,,,,,,,,,,,,,,,,,,,,,,,,,,,,,,,,,,,,,,,,,,,,,,,,,,,,,,,,,,,,,,,,,
,,6984b719db2917412dfc3135,2026-03-17_11h20.33.438,kallum_motion_pilot_GIST_update_2,2026.1.1,MacIntel,59.88023952,6984b719db2917412dfc3135,69b92ab4aef6dee357cd729a,69b92ae13f1a506ba98e780f,0.0265,0.0265,1,59,221,54,1,fourtwo,,,,,,,,,,,,,,,,,,,,,,,,,,,,,,,,,,,,,,,,,,,,,,,,,,,,,,,,,,,,,,,,,,,,,,,,,,,,,,,,,,,,,,,,,,,,,,,,,,,,,,,,,,,,,,,,,,,,,,,,,,,,,,,,,,,,,,,,,
,,6984b719db2917412dfc3135,2026-03-17_11h20.33.438,kallum_motion_pilot_GIST_update_2,2026.1.1,MacIntel,59.88023952,6984b719db2917412dfc3135,69b92ab4aef6dee357cd729a,69b92ae13f1a506ba98e780f,0.0266,0.0266,1,60,222,9,1,onethree,,,,,,,,,,,,,,,,,,,,,,,,,,,,,,,,,,,,,,,,,,,,,,,,,,,,,,,,,,,,,,,,,,,,,,,,,,,,,,,,,,,,,,,,,,,,,,,,,,,,,,,,,,,,,,,,,,,,,,,,,,,,,,,,,,,,,,,,,
,,6984b719db2917412dfc3135,2026-03-17_11h20.33.438,kallum_motion_pilot_GIST_update_2,2026.1.1,MacIntel,59.88023952,6984b719db2917412dfc3135,69b92ab4aef6dee357cd729a,69b92ae13f1a506ba98e780f,0.0267,0.0267,1,61,223,20,1,threeone,,,,,,,,,,,,,,,,,,,,,,,,,,,,,,,,,,,,,,,,,,,,,,,,,,,,,,,,,,,,,,,,,,,,,,,,,,,,,,,,,,,,,,,,,,,,,,,,,,,,,,,,,,,,,,,,,,,,,,,,,,,,,,,,,,,,,,,,,
,,6984b719db2917412dfc3135,2026-03-17_11h20.33.438,kallum_motion_pilot_GIST_update_2,2026.1.1,MacIntel,59.88023952,6984b719db2917412dfc3135,69b92ab4aef6dee357cd729a,69b92ae13f1a506ba98e780f,0.0267,0.0267,1,62,224,80,1,fivesix,,,,,,,,,,,,,,,,,,,,,,,,,,,,,,,,,,,,,,,,,,,,,,,,,,,,,,,,,,,,,,,,,,,,,,,,,,,,,,,,,,,,,,,,,,,,,,,,,,,,,,,,,,,,,,,,,,,,,,,,,,,,,,,,,,,,,,,,,
,,6984b719db2917412dfc3135,2026-03-17_11h20.33.438,kallum_motion_pilot_GIST_update_2,2026.1.1,MacIntel,59.88023952,6984b719db2917412dfc3135,69b92ab4aef6dee357cd729a,69b92ae13f1a506ba98e780f,0.0267,0.0267,1,63,225,32,1,onetwo,,,,,,,,,,,,,,,,,,,,,,,,,,,,,,,,,,,,,,,,,,,,,,,,,,,,,,,,,,,,,,,,,,,,,,,,,,,,,,,,,,,,,,,,,,,,,,,,,,,,,,,,,,,,,,,,,,,,,,,,,,,,,,,,,,,,,,,,,
,,6984b719db2917412dfc3135,2026-03-17_11h20.33.438,kallum_motion_pilot_GIST_update_2,2026.1.1,MacIntel,59.88023952,6984b719db2917412dfc3135,69b92ab4aef6dee357cd729a,69b92ae13f1a506ba98e780f,0.0268,0.0268,1,64,226,161,1,fiveseven,,,,,,,,,,,,,,,,,,,,,,,,,,,,,,,,,,,,,,,,,,,,,,,,,,,,,,,,,,,,,,,,,,,,,,,,,,,,,,,,,,,,,,,,,,,,,,,,,,,,,,,,,,,,,,,,,,,,,,,,,,,,,,,,,,,,,,,,,
,,6984b719db2917412dfc3135,2026-03-17_11h20.33.438,kallum_motion_pilot_GIST_update_2,2026.1.1,MacIntel,59.88023952,6984b719db2917412dfc3135,69b92ab4aef6dee357cd729a,69b92ae13f1a506ba98e780f,0.0269,0.0269,1,65,227,140,1,sevenfive,,,,,,,,,,,,,,,,,,,,,,,,,,,,,,,,,,,,,,,,,,,,,,,,,,,,,,,,,,,,,,,,,,,,,,,,,,,,,,,,,,,,,,,,,,,,,,,,,,,,,,,,,,,,,,,,,,,,,,,,,,,,,,,,,,,,,,,,,
,,6984b719db2917412dfc3135,2026-03-17_11h20.33.438,kallum_motion_pilot_GIST_update_2,2026.1.1,MacIntel,59.88023952,6984b719db2917412dfc3135,69b92ab4aef6dee357cd729a,69b92ae13f1a506ba98e780f,0.0269,0.0269,1,66,228,159,1,eightseven,,,,,,,,,,,,,,,,,,,,,,,,,,,,,,,,,,,,,,,,,,,,,,,,,,,,,,,,,,,,,,,,,,,,,,,,,,,,,,,,,,,,,,,,,,,,,,,,,,,,,,,,,,,,,,,,,,,,,,,,,,,,,,,,,,,,,,,,,
,,6984b719db2917412dfc3135,2026-03-17_11h20.33.438,kallum_motion_pilot_GIST_update_2,2026.1.1,MacIntel,59.88023952,6984b719db2917412dfc3135,69b92ab4aef6dee357cd729a,69b92ae13f1a506ba98e780f,0.0269,0.0269,1,67,229,98,1,sixfive,,,,,,,,,,,,,,,,,,,,,,,,,,,,,,,,,,,,,,,,,,,,,,,,,,,,,,,,,,,,,,,,,,,,,,,,,,,,,,,,,,,,,,,,,,,,,,,,,,,,,,,,,,,,,,,,,,,,,,,,,,,,,,,,,,,,,,,,,
,,6984b719db2917412dfc3135,2026-03-17_11h20.33.438,kallum_motion_pilot_GIST_update_2,2026.1.1,MacIntel,59.88023952,6984b719db2917412dfc3135,69b92ab4aef6dee357cd729a,69b92ae13f1a506ba98e780f,0.027,0.027,1,68,230,139,1,sixeight,,,,,,,,,,,,,,,,,,,,,,,,,,,,,,,,,,,,,,,,,,,,,,,,,,,,,,,,,,,,,,,,,,,,,,,,,,,,,,,,,,,,,,,,,,,,,,,,,,,,,,,,,,,,,,,,,,,,,,,,,,,,,,,,,,,,,,,,,
,,6984b719db2917412dfc3135,2026-03-17_11h20.33.438,kallum_motion_pilot_GIST_update_2,2026.1.1,MacIntel,59.88023952,6984b719db2917412dfc3135,69b92ab4aef6dee357cd729a,69b92ae13f1a506ba98e780f,0.0271,0.0271,1,69,231,16,1,onetwo,,,,,,,,,,,,,,,,,,,,,,,,,,,,,,,,,,,,,,,,,,,,,,,,,,,,,,,,,,,,,,,,,,,,,,,,,,,,,,,,,,,,,,,,,,,,,,,,,,,,,,,,,,,,,,,,,,,,,,,,,,,,,,,,,,,,,,,,,
,,6984b719db2917412dfc3135,2026-03-17_11h20.33.438,kallum_motion_pilot_GIST_update_2,2026.1.1,MacIntel,59.88023952,6984b719db2917412dfc3135,69b92ab4aef6dee357cd729a,69b92ae13f1a506ba98e780f,0.0271,0.0272,1,70,232,151,1,eightseven,,,,,,,,,,,,,,,,,,,,,,,,,,,,,,,,,,,,,,,,,,,,,,,,,,,,,,,,,,,,,,,,,,,,,,,,,,,,,,,,,,,,,,,,,,,,,,,,,,,,,,,,,,,,,,,,,,,,,,,,,,,,,,,,,,,,,,,,,
,,6984b719db2917412dfc3135,2026-03-17_11h20.33.438,kallum_motion_pilot_GIST_update_2,2026.1.1,MacIntel,59.88023952,6984b719db2917412dfc3135,69b92ab4aef6dee357cd729a,69b92ae13f1a506ba98e780f,0.0272,0.0272,1,71,233,119,1,eightseven,,,,,,,,,,,,,,,,,,,,,,,,,,,,,,,,,,,,,,,,,,,,,,,,,,,,,,,,,,,,,,,,,,,,,,,,,,,,,,,,,,,,,,,,,,,,,,,,,,,,,,,,,,,,,,,,,,,,,,,,,,,,,,,,,,,,,,,,,
,,6984b719db2917412dfc3135,2026-03-17_11h20.33.438,kallum_motion_pilot_GIST_update_2,2026.1.1,MacIntel,59.88023952,6984b719db2917412dfc3135,69b92ab4aef6dee357cd729a,69b92ae13f1a506ba98e780f,0.0272,0.0272,1,72,234,77,1,threefour,,,,,,,,,,,,,,,,,,,,,,,,,,,,,,,,,,,,,,,,,,,,,,,,,,,,,,,,,,,,,,,,,,,,,,,,,,,,,,,,,,,,,,,,,,,,,,,,,,,,,,,,,,,,,,,,,,,,,,,,,,,,,,,,,,,,,,,,,
,,6984b719db2917412dfc3135,2026-03-17_11h20.33.438,kallum_motion_pilot_GIST_update_2,2026.1.1,MacIntel,59.88023952,6984b719db2917412dfc3135,69b92ab4aef6dee357cd729a,69b92ae13f1a506ba98e780f,0.0273,0.0273,1,73,235,61,1,threefour,,,,,,,,,,,,,,,,,,,,,,,,,,,,,,,,,,,,,,,,,,,,,,,,,,,,,,,,,,,,,,,,,,,,,,,,,,,,,,,,,,,,,,,,,,,,,,,,,,,,,,,,,,,,,,,,,,,,,,,,,,,,,,,,,,,,,,,,,
,,6984b719db2917412dfc3135,2026-03-17_11h20.33.438,kallum_motion_pilot_GIST_update_2,2026.1.1,MacIntel,59.88023952,6984b719db2917412dfc3135,69b92ab4aef6dee357cd729a,69b92ae13f1a506ba98e780f,0.0274,0.0274,1,74,236,15,1,fourthree,,,,,,,,,,,,,,,,,,,,,,,,,,,,,,,,,,,,,,,,,,,,,,,,,,,,,,,,,,,,,,,,,,,,,,,,,,,,,,,,,,,,,,,,,,,,,,,,,,,,,,,,,,,,,,,,,,,,,,,,,,,,,,,,,,,,,,,,,
,,6984b719db2917412dfc3135,2026-03-17_11h20.33.438,kallum_motion_pilot_GIST_update_2,2026.1.1,MacIntel,59.88023952,6984b719db2917412dfc3135,69b92ab4aef6dee357cd729a,69b92ae13f1a506ba98e780f,0.0274,0.0274,1,75,237,123,1,sixeight,,,,,,,,,,,,,,,,,,,,,,,,,,,,,,,,,,,,,,,,,,,,,,,,,,,,,,,,,,,,,,,,,,,,,,,,,,,,,,,,,,,,,,,,,,,,,,,,,,,,,,,,,,,,,,,,,,,,,,,,,,,,,,,,,,,,,,,,,
,,6984b719db2917412dfc3135,2026-03-17_11h20.33.438,kallum_motion_pilot_GIST_update_2,2026.1.1,MacIntel,59.88023952,6984b719db2917412dfc3135,69b92ab4aef6dee357cd729a,69b92ae13f1a506ba98e780f,0.0275,0.0275,1,76,238,45,1,threefour,,,,,,,,,,,,,,,,,,,,,,,,,,,,,,,,,,,,,,,,,,,,,,,,,,,,,,,,,,,,,,,,,,,,,,,,,,,,,,,,,,,,,,,,,,,,,,,,,,,,,,,,,,,,,,,,,,,,,,,,,,,,,,,,,,,,,,,,,
,,6984b719db2917412dfc3135,2026-03-17_11h20.33.438,kallum_motion_pilot_GIST_update_2,2026.1.1,MacIntel,59.88023952,6984b719db2917412dfc3135,69b92ab4aef6dee357cd729a,69b92ae13f1a506ba98e780f,0.0276,0.0276,1,77,239,47,1,fourthree,,,,,,,,,,,,,,,,,,,,,,,,,,,,,,,,,,,,,,,,,,,,,,,,,,,,,,,,,,,,,,,,,,,,,,,,,,,,,,,,,,,,,,,,,,,,,,,,,,,,,,,,,,,,,,,,,,,,,,,,,,,,,,,,,,,,,,,,,
,,6984b719db2917412dfc3135,2026-03-17_11h20.33.438,kallum_motion_pilot_GIST_update_2,2026.1.1,MacIntel,59.88023952,6984b719db2917412dfc3135,69b92ab4aef6dee357cd729a,69b92ae13f1a506ba98e780f,0.0277,0.0277,1,78,240,39,1,fourthree,,,,,,,,,,,,,,,,,,,,,,,,,,,,,,,,,,,,,,,,,,,,,,,,,,,,,,,,,,,,,,,,,,,,,,,,,,,,,,,,,,,,,,,,,,,,,,,,,,,,,,,,,,,,,,,,,,,,,,,,,,,,,,,,,,,,,,,,,
,,6984b719db2917412dfc3135,2026-03-17_11h20.33.438,kallum_motion_pilot_GIST_update_2,2026.1.1,MacIntel,59.88023952,6984b719db2917412dfc3135,69b92ab4aef6dee357cd729a,69b92ae13f1a506ba98e780f,0.0277,0.0277,1,79,241,104,1,fivesix,,,,,,,,,,,,,,,,,,,,,,,,,,,,,,,,,,,,,,,,,,,,,,,,,,,,,,,,,,,,,,,,,,,,,,,,,,,,,,,,,,,,,,,,,,,,,,,,,,,,,,,,,,,,,,,,,,,,,,,,,,,,,,,,,,,,,,,,,
,,6984b719db2917412dfc3135,2026-03-17_11h20.33.438,kallum_motion_pilot_GIST_update_2,2026.1.1,MacIntel,59.88023952,6984b719db2917412dfc3135,69b92ab4aef6dee357cd729a,69b92ae13f1a506ba98e780f,0.0277,0.0277,1,80,242,86,1,eightsix,,,,,,,,,,,,,,,,,,,,,,,,,,,,,,,,,,,,,,,,,,,,,,,,,,,,,,,,,,,,,,,,,,,,,,,,,,,,,,,,,,,,,,,,,,,,,,,,,,,,,,,,,,,,,,,,,,,,,,,,,,,,,,,,,,,,,,,,,
,,6984b719db2917412dfc3135,2026-03-17_11h20.33.438,kallum_motion_pilot_GIST_update_2,2026.1.1,MacIntel,59.88023952,6984b719db2917412dfc3135,69b92ab4aef6dee357cd729a,69b92ae13f1a506ba98e780f,0.0278,0.0278,1,81,243,35,1,twofour,,,,,,,,,,,,,,,,,,,,,,,,,,,,,,,,,,,,,,,,,,,,,,,,,,,,,,,,,,,,,,,,,,,,,,,,,,,,,,,,,,,,,,,,,,,,,,,,,,,,,,,,,,,,,,,,,,,,,,,,,,,,,,,,,,,,,,,,,
,,6984b719db2917412dfc3135,2026-03-17_11h20.33.438,kallum_motion_pilot_GIST_update_2,2026.1.1,MacIntel,59.88023952,6984b719db2917412dfc3135,69b92ab4aef6dee357cd729a,69b92ae13f1a506ba98e780f,0.0278,0.0278,1,82,244,69,1,threefour,,,,,,,,,,,,,,,,,,,,,,,,,,,,,,,,,,,,,,,,,,,,,,,,,,,,,,,,,,,,,,,,,,,,,,,,,,,,,,,,,,,,,,,,,,,,,,,,,,,,,,,,,,,,,,,,,,,,,,,,,,,,,,,,,,,,,,,,,
,,6984b719db2917412dfc3135,2026-03-17_11h20.33.438,kallum_motion_pilot_GIST_update_2,2026.1.1,MacIntel,59.88023952,6984b719db2917412dfc3135,69b92ab4aef6dee357cd729a,69b92ae13f1a506ba98e780f,0.0279,0.0279,1,83,245,158,1,eightsix,,,,,,,,,,,,,,,,,,,,,,,,,,,,,,,,,,,,,,,,,,,,,,,,,,,,,,,,,,,,,,,,,,,,,,,,,,,,,,,,,,,,,,,,,,,,,,,,,,,,,,,,,,,,,,,,,,,,,,,,,,,,,,,,,,,,,,,,,
,,6984b719db2917412dfc3135,2026-03-17_11h20.33.438,kallum_motion_pilot_GIST_update_2,2026.1.1,MacIntel,59.88023952,6984b719db2917412dfc3135,69b92ab4aef6dee357cd729a,69b92ae13f1a506ba98e780f,0.028,0.028,1,84,246,7,1,fourthree,,,,,,,,,,,,,,,,,,,,,,,,,,,,,,,,,,,,,,,,,,,,,,,,,,,,,,,,,,,,,,,,,,,,,,,,,,,,,,,,,,,,,,,,,,,,,,,,,,,,,,,,,,,,,,,,,,,,,,,,,,,,,,,,,,,,,,,,,
,,6984b719db2917412dfc3135,2026-03-17_11h20.33.438,kallum_motion_pilot_GIST_update_2,2026.1.1,MacIntel,59.88023952,6984b719db2917412dfc3135,69b92ab4aef6dee357cd729a,69b92ae13f1a506ba98e780f,0.028,0.028,1,85,247,127,1,eightseven,,,,,,,,,,,,,,,,,,,,,,,,,,,,,,,,,,,,,,,,,,,,,,,,,,,,,,,,,,,,,,,,,,,,,,,,,,,,,,,,,,,,,,,,,,,,,,,,,,,,,,,,,,,,,,,,,,,,,,,,,,,,,,,,,,,,,,,,,
,,6984b719db2917412dfc3135,2026-03-17_11h20.33.438,kallum_motion_pilot_GIST_update_2,2026.1.1,MacIntel,59.88023952,6984b719db2917412dfc3135,69b92ab4aef6dee357cd729a,69b92ae13f1a506ba98e780f,0.0281,0.0281,1,86,248,55,1,fourthree,,,,,,,,,,,,,,,,,,,,,,,,,,,,,,,,,,,,,,,,,,,,,,,,,,,,,,,,,,,,,,,,,,,,,,,,,,,,,,,,,,,,,,,,,,,,,,,,,,,,,,,,,,,,,,,,,,,,,,,,,,,,,,,,,,,,,,,,,
,,6984b719db2917412dfc3135,2026-03-17_11h20.33.438,kallum_motion_pilot_GIST_update_2,2026.1.1,MacIntel,59.88023952,6984b719db2917412dfc3135,69b92ab4aef6dee357cd729a,69b92ae13f1a506ba98e780f,0.0281,0.0281,1,87,249,148,1,sevenfive,,,,,,,,,,,,,,,,,,,,,,,,,,,,,,,,,,,,,,,,,,,,,,,,,,,,,,,,,,,,,,,,,,,,,,,,,,,,,,,,,,,,,,,,,,,,,,,,,,,,,,,,,,,,,,,,,,,,,,,,,,,,,,,,,,,,,,,,,
,,6984b719db2917412dfc3135,2026-03-17_11h20.33.438,kallum_motion_pilot_GIST_update_2,2026.1.1,MacIntel,59.88023952,6984b719db2917412dfc3135,69b92ab4aef6dee357cd729a,69b92ae13f1a506ba98e780f,0.0282,0.0282,1,88,250,49,1,onethree,,,,,,,,,,,,,,,,,,,,,,,,,,,,,,,,,,,,,,,,,,,,,,,,,,,,,,,,,,,,,,,,,,,,,,,,,,,,,,,,,,,,,,,,,,,,,,,,,,,,,,,,,,,,,,,,,,,,,,,,,,,,,,,,,,,,,,,,,
,,6984b719db2917412dfc3135,2026-03-17_11h20.33.438,kallum_motion_pilot_GIST_update_2,2026.1.1,MacIntel,59.88023952,6984b719db2917412dfc3135,69b92ab4aef6dee357cd729a,69b92ae13f1a506ba98e780f,0.0283,0.0283,1,89,251,66,1,twoone,,,,,,,,,,,,,,,,,,,,,,,,,,,,,,,,,,,,,,,,,,,,,,,,,,,,,,,,,,,,,,,,,,,,,,,,,,,,,,,,,,,,,,,,,,,,,,,,,,,,,,,,,,,,,,,,,,,,,,,,,,,,,,,,,,,,,,,,,
,,6984b719db2917412dfc3135,2026-03-17_11h20.33.438,kallum_motion_pilot_GIST_update_2,2026.1.1,MacIntel,59.88023952,6984b719db2917412dfc3135,69b92ab4aef6dee357cd729a,69b92ae13f1a506ba98e780f,0.0283,0.0283,1,90,252,114,1,sixfive,,,,,,,,,,,,,,,,,,,,,,,,,,,,,,,,,,,,,,,,,,,,,,,,,,,,,,,,,,,,,,,,,,,,,,,,,,,,,,,,,,,,,,,,,,,,,,,,,,,,,,,,,,,,,,,,,,,,,,,,,,,,,,,,,,,,,,,,,
,,6984b719db2917412dfc3135,2026-03-17_11h20.33.438,kallum_motion_pilot_GIST_update_2,2026.1.1,MacIntel,59.88023952,6984b719db2917412dfc3135,69b92ab4aef6dee357cd729a,69b92ae13f1a506ba98e780f,0.0284,0.0284,1,91,253,64,1,onetwo,,,,,,,,,,,,,,,,,,,,,,,,,,,,,,,,,,,,,,,,,,,,,,,,,,,,,,,,,,,,,,,,,,,,,,,,,,,,,,,,,,,,,,,,,,,,,,,,,,,,,,,,,,,,,,,,,,,,,,,,,,,,,,,,,,,,,,,,,
,,6984b719db2917412dfc3135,2026-03-17_11h20.33.438,kallum_motion_pilot_GIST_update_2,2026.1.1,MacIntel,59.88023952,6984b719db2917412dfc3135,69b92ab4aef6dee357cd729a,69b92ae13f1a506ba98e780f,0.0285,0.0285,1,92,254,106,1,sixfive,,,,,,,,,,,,,,,,,,,,,,,,,,,,,,,,,,,,,,,,,,,,,,,,,,,,,,,,,,,,,,,,,,,,,,,,,,,,,,,,,,,,,,,,,,,,,,,,,,,,,,,,,,,,,,,,,,,,,,,,,,,,,,,,,,,,,,,,,
,,6984b719db2917412dfc3135,2026-03-17_11h20.33.438,kallum_motion_pilot_GIST_update_2,2026.1.1,MacIntel,59.88023952,6984b719db2917412dfc3135,69b92ab4aef6dee357cd729a,69b92ae13f1a506ba98e780f,0.0285,0.0285,1,93,255,99,1,sixeight,,,,,,,,,,,,,,,,,,,,,,,,,,,,,,,,,,,,,,,,,,,,,,,,,,,,,,,,,,,,,,,,,,,,,,,,,,,,,,,,,,,,,,,,,,,,,,,,,,,,,,,,,,,,,,,,,,,,,,,,,,,,,,,,,,,,,,,,,
,,6984b719db2917412dfc3135,2026-03-17_11h20.33.438,kallum_motion_pilot_GIST_update_2,2026.1.1,MacIntel,59.88023952,6984b719db2917412dfc3135,69b92ab4aef6dee357cd729a,69b92ae13f1a506ba98e780f,0.0286,0.0286,1,94,256,153,1,fiveseven,,,,,,,,,,,,,,,,,,,,,,,,,,,,,,,,,,,,,,,,,,,,,,,,,,,,,,,,,,,,,,,,,,,,,,,,,,,,,,,,,,,,,,,,,,,,,,,,,,,,,,,,,,,,,,,,,,,,,,,,,,,,,,,,,,,,,,,,,
,,6984b719db2917412dfc3135,2026-03-17_11h20.33.438,kallum_motion_pilot_GIST_update_2,2026.1.1,MacIntel,59.88023952,6984b719db2917412dfc3135,69b92ab4aef6dee357cd729a,69b92ae13f1a506ba98e780f,0.0287,0.0287,1,95,257,130,1,sixfive,,,,,,,,,,,,,,,,,,,,,,,,,,,,,,,,,,,,,,,,,,,,,,,,,,,,,,,,,,,,,,,,,,,,,,,,,,,,,,,,,,,,,,,,,,,,,,,,,,,,,,,,,,,,,,,,,,,,,,,,,,,,,,,,,,,,,,,,,
,,6984b719db2917412dfc3135,2026-03-17_11h20.33.438,kallum_motion_pilot_GIST_update_2,2026.1.1,MacIntel,59.88023952,6984b719db2917412dfc3135,69b92ab4aef6dee357cd729a,69b92ae13f1a506ba98e780f,0.0287,0.0287,1,96,258,141,1,seveneight,,,,,,,,,,,,,,,,,,,,,,,,,,,,,,,,,,,,,,,,,,,,,,,,,,,,,,,,,,,,,,,,,,,,,,,,,,,,,,,,,,,,,,,,,,,,,,,,,,,,,,,,,,,,,,,,,,,,,,,,,,,,,,,,,,,,,,,,,
,,6984b719db2917412dfc3135,2026-03-17_11h20.33.438,kallum_motion_pilot_GIST_update_2,2026.1.1,MacIntel,59.88023952,6984b719db2917412dfc3135,69b92ab4aef6dee357cd729a,69b92ae13f1a506ba98e780f,0.0287,0.0287,1,97,259,142,1,eightsix,,,,,,,,,,,,,,,,,,,,,,,,,,,,,,,,,,,,,,,,,,,,,,,,,,,,,,,,,,,,,,,,,,,,,,,,,,,,,,,,,,,,,,,,,,,,,,,,,,,,,,,,,,,,,,,,,,,,,,,,,,,,,,,,,,,,,,,,,
,,6984b719db2917412dfc3135,2026-03-17_11h20.33.438,kallum_motion_pilot_GIST_update_2,2026.1.1,MacIntel,59.88023952,6984b719db2917412dfc3135,69b92ab4aef6dee357cd729a,69b92ae13f1a506ba98e780f,0.0288,0.0288,1,98,260,2,1,twoone,,,,,,,,,,,,,,,,,,,,,,,,,,,,,,,,,,,,,,,,,,,,,,,,,,,,,,,,,,,,,,,,,,,,,,,,,,,,,,,,,,,,,,,,,,,,,,,,,,,,,,,,,,,,,,,,,,,,,,,,,,,,,,,,,,,,,,,,,
,,6984b719db2917412dfc3135,2026-03-17_11h20.33.438,kallum_motion_pilot_GIST_update_2,2026.1.1,MacIntel,59.88023952,6984b719db2917412dfc3135,69b92ab4aef6dee357cd729a,69b92ae13f1a506ba98e780f,0.0289,0.0289,1,99,261,48,1,onetwo,,,,,,,,,,,,,,,,,,,,,,,,,,,,,,,,,,,,,,,,,,,,,,,,,,,,,,,,,,,,,,,,,,,,,,,,,,,,,,,,,,,,,,,,,,,,,,,,,,,,,,,,,,,,,,,,,,,,,,,,,,,,,,,,,,,,,,,,,
,,6984b719db2917412dfc3135,2026-03-17_11h20.33.438,kallum_motion_pilot_GIST_update_2,2026.1.1,MacIntel,59.88023952,6984b719db2917412dfc3135,69b92ab4aef6dee357cd729a,69b92ae13f1a506ba98e780f,0.029,0.029,1,100,262,37,1,threefour,,,,,,,,,,,,,,,,,,,,,,,,,,,,,,,,,,,,,,,,,,,,,,,,,,,,,,,,,,,,,,,,,,,,,,,,,,,,,,,,,,,,,,,,,,,,,,,,,,,,,,,,,,,,,,,,,,,,,,,,,,,,,,,,,,,,,,,,,
,,6984b719db2917412dfc3135,2026-03-17_11h20.33.438,kallum_motion_pilot_GIST_update_2,2026.1.1,MacIntel,59.88023952,6984b719db2917412dfc3135,69b92ab4aef6dee357cd729a,69b92ae13f1a506ba98e780f,0.029,0.029,1,101,263,44,1,threeone,,,,,,,,,,,,,,,,,,,,,,,,,,,,,,,,,,,,,,,,,,,,,,,,,,,,,,,,,,,,,,,,,,,,,,,,,,,,,,,,,,,,,,,,,,,,,,,,,,,,,,,,,,,,,,,,,,,,,,,,,,,,,,,,,,,,,,,,,
