startup.started,startup.stopped,Prolific ID*,date,expName,psychopyVersion,OS,frameRate,participant,study_id,session,stimpositions.started,stimpositions.stopped,hardcoded_stimulus_positions.thisRepN,hardcoded_stimulus_positions.thisTrialN,hardcoded_stimulus_positions.thisN,hardcoded_stimulus_positions.thisIndex,hardcoded_stimulus_positions.ran,StimulusPos,stimorientation.started,stimorientation.stopped,prac_stimorientation_import_loop.thisRepN,prac_stimorientation_import_loop.thisTrialN,prac_stimorientation_import_loop.thisN,prac_stimorientation_import_loop.thisIndex,prac_stimorientation_import_loop.ran,Stimorientation,welcome_instr.started,welcome_instr.stopped,key_resp.keys,key_resp.rt,key_resp.duration,response_steppedout_1.started,response_steppedout_1.stopped,key_resp_20.keys,key_resp_20.rt,key_resp_20.duration,response_steppedout_2.started,response_steppedout_2.stopped,key_resp_19.keys,key_resp_19.rt,key_resp_19.duration,stim_response_instr.started,stim_response_instr.stopped,key_resp_15.keys,key_resp_15.rt,key_resp_15.duration,direction_instr_2.started,direction_instr_2.stopped,key_resp_9.keys,key_resp_9.rt,key_resp_9.duration,instr_prac.started,instr_prac.stopped,key_resp_10.keys,key_resp_10.rt,key_resp_10.duration,Stim1_display_prac.started,Stim1_display_prac.stopped,Ecc,Circle1_ori,Circle2_ori,response_prac.started,similarity,response_time,response_prac.stopped,mouse_5.x,mouse_5.y,mouse_5.leftButton,mouse_5.midButton,mouse_5.rightButton,mouse_5.clicked_name,responseprac_feedback.started,responseprac_feedback.stopped,summary2_prac.started,summary2_prac.stopped,mouse_6.x,mouse_6.y,mouse_6.leftButton,mouse_6.midButton,mouse_6.rightButton,mouse_6.clicked_name,duringprac.thisRepN,duringprac.thisTrialN,duringprac.thisN,duringprac.thisIndex,duringprac.ran,begin.started,begin.stopped,key_resp_22.keys,key_resp_22.rt,key_resp_22.duration,Stim1_display.started,Stim1_display.stopped,circle1_ori,circle2_ori,circle1_SF,circle2_SF,response.started,response.stopped,mouse.x,mouse.y,mouse.leftButton,mouse.midButton,mouse.rightButton,mouse.clicked_name,trialnumber,double_pass.thisRepN,double_pass.thisTrialN,double_pass.thisN,double_pass.thisIndex,double_pass.ran,double_pass.order,main_trial.thisRepN,main_trial.thisTrialN,main_trial.thisN,main_trial.thisIndex,main_trial.ran,main_trial.order,Trial_Counter,Catch,Frequencies,response_2.started,response_2.stopped,mouse_2.x,mouse_2.y,mouse_2.leftButton,mouse_2.midButton,mouse_2.rightButton,mouse_2.clicked_name,special_trial.started,special_trial.stopped,catch_1.started,catch_1.stopped,mouse_3.x,mouse_3.y,mouse_3.leftButton,mouse_3.midButton,mouse_3.rightButton,catchresponse,catchnumber,response_time_catch,response_sum.started,response_sum.stopped,mouse_11.x,mouse_11.y,mouse_11.leftButton,mouse_11.midButton,mouse_11.rightButton,flip_presentation_sequence_for_double_pass.started,flip_presentation_sequence_for_double_pass.stopped,goodbye.started,goodbye.stopped,key_resp_3.keys,key_resp_3.rt,key_resp_3.duration
0.0002,0.0004,6988878f7b811934dbd31f51,2026-03-17_06h31.18.586,kallum_motion_pilot_GIST_update_2,2026.1.1,Win32,59.52380952,6988878f7b811934dbd31f51,69b92ab4aef6dee357cd729a,69b92d1f55b40456ab8a6181,,,,,,,,,,,,,,,,,,,,,,,,,,,,,,,,,,,,,,,,,,,,,,,,,,,,,,,,,,,,,,,,,,,,,,,,,,,,,,,,,,,,,,,,,,,,,,,,,,,,,,,,,,,,,,,,,,,,,,,,,,,,,,,,,,,,,,,,,,,,,,,,,
,,6988878f7b811934dbd31f51,2026-03-17_06h31.18.586,kallum_motion_pilot_GIST_update_2,2026.1.1,Win32,59.52380952,6988878f7b811934dbd31f51,69b92ab4aef6dee357cd729a,69b92d1f55b40456ab8a6181,0.0751,0.0753,0,0,0,148,1,sevenfive,,,,,,,,,,,,,,,,,,,,,,,,,,,,,,,,,,,,,,,,,,,,,,,,,,,,,,,,,,,,,,,,,,,,,,,,,,,,,,,,,,,,,,,,,,,,,,,,,,,,,,,,,,,,,,,,,,,,,,,,,,,,,,,,,,,,,,,,,
,,6988878f7b811934dbd31f51,2026-03-17_06h31.18.586,kallum_motion_pilot_GIST_update_2,2026.1.1,Win32,59.52380952,6988878f7b811934dbd31f51,69b92ab4aef6dee357cd729a,69b92d1f55b40456ab8a6181,0.0756,0.0756,0,1,1,16,1,onetwo,,,,,,,,,,,,,,,,,,,,,,,,,,,,,,,,,,,,,,,,,,,,,,,,,,,,,,,,,,,,,,,,,,,,,,,,,,,,,,,,,,,,,,,,,,,,,,,,,,,,,,,,,,,,,,,,,,,,,,,,,,,,,,,,,,,,,,,,,
,,6988878f7b811934dbd31f51,2026-03-17_06h31.18.586,kallum_motion_pilot_GIST_update_2,2026.1.1,Win32,59.52380952,6988878f7b811934dbd31f51,69b92ab4aef6dee357cd729a,69b92d1f55b40456ab8a6181,0.0759,0.0759,0,2,2,1,1,onethree,,,,,,,,,,,,,,,,,,,,,,,,,,,,,,,,,,,,,,,,,,,,,,,,,,,,,,,,,,,,,,,,,,,,,,,,,,,,,,,,,,,,,,,,,,,,,,,,,,,,,,,,,,,,,,,,,,,,,,,,,,,,,,,,,,,,,,,,,
,,6988878f7b811934dbd31f51,2026-03-17_06h31.18.586,kallum_motion_pilot_GIST_update_2,2026.1.1,Win32,59.52380952,6988878f7b811934dbd31f51,69b92ab4aef6dee357cd729a,69b92d1f55b40456ab8a6181,0.0761,0.0761,0,3,3,9,1,onethree,,,,,,,,,,,,,,,,,,,,,,,,,,,,,,,,,,,,,,,,,,,,,,,,,,,,,,,,,,,,,,,,,,,,,,,,,,,,,,,,,,,,,,,,,,,,,,,,,,,,,,,,,,,,,,,,,,,,,,,,,,,,,,,,,,,,,,,,,
,,6988878f7b811934dbd31f51,2026-03-17_06h31.18.586,kallum_motion_pilot_GIST_update_2,2026.1.1,Win32,59.52380952,6988878f7b811934dbd31f51,69b92ab4aef6dee357cd729a,69b92d1f55b40456ab8a6181,0.0762,0.0762,0,4,4,43,1,twofour,,,,,,,,,,,,,,,,,,,,,,,,,,,,,,,,,,,,,,,,,,,,,,,,,,,,,,,,,,,,,,,,,,,,,,,,,,,,,,,,,,,,,,,,,,,,,,,,,,,,,,,,,,,,,,,,,,,,,,,,,,,,,,,,,,,,,,,,,
,,6988878f7b811934dbd31f51,2026-03-17_06h31.18.586,kallum_motion_pilot_GIST_update_2,2026.1.1,Win32,59.52380952,6988878f7b811934dbd31f51,69b92ab4aef6dee357cd729a,69b92d1f55b40456ab8a6181,0.0765,0.0765,0,5,5,144,1,fivesix,,,,,,,,,,,,,,,,,,,,,,,,,,,,,,,,,,,,,,,,,,,,,,,,,,,,,,,,,,,,,,,,,,,,,,,,,,,,,,,,,,,,,,,,,,,,,,,,,,,,,,,,,,,,,,,,,,,,,,,,,,,,,,,,,,,,,,,,,
,,6988878f7b811934dbd31f51,2026-03-17_06h31.18.586,kallum_motion_pilot_GIST_update_2,2026.1.1,Win32,59.52380952,6988878f7b811934dbd31f51,69b92ab4aef6dee357cd729a,69b92d1f55b40456ab8a6181,0.0767,0.0767,0,6,6,60,1,threeone,,,,,,,,,,,,,,,,,,,,,,,,,,,,,,,,,,,,,,,,,,,,,,,,,,,,,,,,,,,,,,,,,,,,,,,,,,,,,,,,,,,,,,,,,,,,,,,,,,,,,,,,,,,,,,,,,,,,,,,,,,,,,,,,,,,,,,,,,
,,6988878f7b811934dbd31f51,2026-03-17_06h31.18.586,kallum_motion_pilot_GIST_update_2,2026.1.1,Win32,59.52380952,6988878f7b811934dbd31f51,69b92ab4aef6dee357cd729a,69b92d1f55b40456ab8a6181,0.0769,0.0769,0,7,7,64,1,onetwo,,,,,,,,,,,,,,,,,,,,,,,,,,,,,,,,,,,,,,,,,,,,,,,,,,,,,,,,,,,,,,,,,,,,,,,,,,,,,,,,,,,,,,,,,,,,,,,,,,,,,,,,,,,,,,,,,,,,,,,,,,,,,,,,,,,,,,,,,
,,6988878f7b811934dbd31f51,2026-03-17_06h31.18.586,kallum_motion_pilot_GIST_update_2,2026.1.1,Win32,59.52380952,6988878f7b811934dbd31f51,69b92ab4aef6dee357cd729a,69b92d1f55b40456ab8a6181,0.077,0.077,0,8,8,150,1,eightsix,,,,,,,,,,,,,,,,,,,,,,,,,,,,,,,,,,,,,,,,,,,,,,,,,,,,,,,,,,,,,,,,,,,,,,,,,,,,,,,,,,,,,,,,,,,,,,,,,,,,,,,,,,,,,,,,,,,,,,,,,,,,,,,,,,,,,,,,,
,,6988878f7b811934dbd31f51,2026-03-17_06h31.18.586,kallum_motion_pilot_GIST_update_2,2026.1.1,Win32,59.52380952,6988878f7b811934dbd31f51,69b92ab4aef6dee357cd729a,69b92d1f55b40456ab8a6181,0.0772,0.0773,0,9,9,32,1,onetwo,,,,,,,,,,,,,,,,,,,,,,,,,,,,,,,,,,,,,,,,,,,,,,,,,,,,,,,,,,,,,,,,,,,,,,,,,,,,,,,,,,,,,,,,,,,,,,,,,,,,,,,,,,,,,,,,,,,,,,,,,,,,,,,,,,,,,,,,,
,,6988878f7b811934dbd31f51,2026-03-17_06h31.18.586,kallum_motion_pilot_GIST_update_2,2026.1.1,Win32,59.52380952,6988878f7b811934dbd31f51,69b92ab4aef6dee357cd729a,69b92d1f55b40456ab8a6181,0.0774,0.0774,0,10,10,114,1,sixfive,,,,,,,,,,,,,,,,,,,,,,,,,,,,,,,,,,,,,,,,,,,,,,,,,,,,,,,,,,,,,,,,,,,,,,,,,,,,,,,,,,,,,,,,,,,,,,,,,,,,,,,,,,,,,,,,,,,,,,,,,,,,,,,,,,,,,,,,,
,,6988878f7b811934dbd31f51,2026-03-17_06h31.18.586,kallum_motion_pilot_GIST_update_2,2026.1.1,Win32,59.52380952,6988878f7b811934dbd31f51,69b92ab4aef6dee357cd729a,69b92d1f55b40456ab8a6181,0.0775,0.0775,0,11,11,96,1,fivesix,,,,,,,,,,,,,,,,,,,,,,,,,,,,,,,,,,,,,,,,,,,,,,,,,,,,,,,,,,,,,,,,,,,,,,,,,,,,,,,,,,,,,,,,,,,,,,,,,,,,,,,,,,,,,,,,,,,,,,,,,,,,,,,,,,,,,,,,,
,,6988878f7b811934dbd31f51,2026-03-17_06h31.18.586,kallum_motion_pilot_GIST_update_2,2026.1.1,Win32,59.52380952,6988878f7b811934dbd31f51,69b92ab4aef6dee357cd729a,69b92d1f55b40456ab8a6181,0.0777,0.0778,0,12,12,58,1,twoone,,,,,,,,,,,,,,,,,,,,,,,,,,,,,,,,,,,,,,,,,,,,,,,,,,,,,,,,,,,,,,,,,,,,,,,,,,,,,,,,,,,,,,,,,,,,,,,,,,,,,,,,,,,,,,,,,,,,,,,,,,,,,,,,,,,,,,,,,
,,6988878f7b811934dbd31f51,2026-03-17_06h31.18.586,kallum_motion_pilot_GIST_update_2,2026.1.1,Win32,59.52380952,6988878f7b811934dbd31f51,69b92ab4aef6dee357cd729a,69b92d1f55b40456ab8a6181,0.0778,0.0778,0,13,13,160,1,fivesix,,,,,,,,,,,,,,,,,,,,,,,,,,,,,,,,,,,,,,,,,,,,,,,,,,,,,,,,,,,,,,,,,,,,,,,,,,,,,,,,,,,,,,,,,,,,,,,,,,,,,,,,,,,,,,,,,,,,,,,,,,,,,,,,,,,,,,,,,
,,6988878f7b811934dbd31f51,2026-03-17_06h31.18.586,kallum_motion_pilot_GIST_update_2,2026.1.1,Win32,59.52380952,6988878f7b811934dbd31f51,69b92ab4aef6dee357cd729a,69b92d1f55b40456ab8a6181,0.078,0.078,0,14,14,81,1,fiveseven,,,,,,,,,,,,,,,,,,,,,,,,,,,,,,,,,,,,,,,,,,,,,,,,,,,,,,,,,,,,,,,,,,,,,,,,,,,,,,,,,,,,,,,,,,,,,,,,,,,,,,,,,,,,,,,,,,,,,,,,,,,,,,,,,,,,,,,,,
,,6988878f7b811934dbd31f51,2026-03-17_06h31.18.586,kallum_motion_pilot_GIST_update_2,2026.1.1,Win32,59.52380952,6988878f7b811934dbd31f51,69b92ab4aef6dee357cd729a,69b92d1f55b40456ab8a6181,0.0781,0.0781,0,15,15,45,1,threefour,,,,,,,,,,,,,,,,,,,,,,,,,,,,,,,,,,,,,,,,,,,,,,,,,,,,,,,,,,,,,,,,,,,,,,,,,,,,,,,,,,,,,,,,,,,,,,,,,,,,,,,,,,,,,,,,,,,,,,,,,,,,,,,,,,,,,,,,,
,,6988878f7b811934dbd31f51,2026-03-17_06h31.18.586,kallum_motion_pilot_GIST_update_2,2026.1.1,Win32,59.52380952,6988878f7b811934dbd31f51,69b92ab4aef6dee357cd729a,69b92d1f55b40456ab8a6181,0.0782,0.0782,0,16,16,4,1,threeone,,,,,,,,,,,,,,,,,,,,,,,,,,,,,,,,,,,,,,,,,,,,,,,,,,,,,,,,,,,,,,,,,,,,,,,,,,,,,,,,,,,,,,,,,,,,,,,,,,,,,,,,,,,,,,,,,,,,,,,,,,,,,,,,,,,,,,,,,
,,6988878f7b811934dbd31f51,2026-03-17_06h31.18.586,kallum_motion_pilot_GIST_update_2,2026.1.1,Win32,59.52380952,6988878f7b811934dbd31f51,69b92ab4aef6dee357cd729a,69b92d1f55b40456ab8a6181,0.0784,0.0784,0,17,17,116,1,sevenfive,,,,,,,,,,,,,,,,,,,,,,,,,,,,,,,,,,,,,,,,,,,,,,,,,,,,,,,,,,,,,,,,,,,,,,,,,,,,,,,,,,,,,,,,,,,,,,,,,,,,,,,,,,,,,,,,,,,,,,,,,,,,,,,,,,,,,,,,,
,,6988878f7b811934dbd31f51,2026-03-17_06h31.18.586,kallum_motion_pilot_GIST_update_2,2026.1.1,Win32,59.52380952,6988878f7b811934dbd31f51,69b92ab4aef6dee357cd729a,69b92d1f55b40456ab8a6181,0.0785,0.0785,0,18,18,143,1,eightseven,,,,,,,,,,,,,,,,,,,,,,,,,,,,,,,,,,,,,,,,,,,,,,,,,,,,,,,,,,,,,,,,,,,,,,,,,,,,,,,,,,,,,,,,,,,,,,,,,,,,,,,,,,,,,,,,,,,,,,,,,,,,,,,,,,,,,,,,,
,,6988878f7b811934dbd31f51,2026-03-17_06h31.18.586,kallum_motion_pilot_GIST_update_2,2026.1.1,Win32,59.52380952,6988878f7b811934dbd31f51,69b92ab4aef6dee357cd729a,69b92d1f55b40456ab8a6181,0.0786,0.0786,0,19,19,112,1,fivesix,,,,,,,,,,,,,,,,,,,,,,,,,,,,,,,,,,,,,,,,,,,,,,,,,,,,,,,,,,,,,,,,,,,,,,,,,,,,,,,,,,,,,,,,,,,,,,,,,,,,,,,,,,,,,,,,,,,,,,,,,,,,,,,,,,,,,,,,,
,,6988878f7b811934dbd31f51,2026-03-17_06h31.18.586,kallum_motion_pilot_GIST_update_2,2026.1.1,Win32,59.52380952,6988878f7b811934dbd31f51,69b92ab4aef6dee357cd729a,69b92d1f55b40456ab8a6181,0.0787,0.0787,0,20,20,131,1,sixeight,,,,,,,,,,,,,,,,,,,,,,,,,,,,,,,,,,,,,,,,,,,,,,,,,,,,,,,,,,,,,,,,,,,,,,,,,,,,,,,,,,,,,,,,,,,,,,,,,,,,,,,,,,,,,,,,,,,,,,,,,,,,,,,,,,,,,,,,,
,,6988878f7b811934dbd31f51,2026-03-17_06h31.18.586,kallum_motion_pilot_GIST_update_2,2026.1.1,Win32,59.52380952,6988878f7b811934dbd31f51,69b92ab4aef6dee357cd729a,69b92d1f55b40456ab8a6181,0.0788,0.0789,0,21,21,105,1,fiveseven,,,,,,,,,,,,,,,,,,,,,,,,,,,,,,,,,,,,,,,,,,,,,,,,,,,,,,,,,,,,,,,,,,,,,,,,,,,,,,,,,,,,,,,,,,,,,,,,,,,,,,,,,,,,,,,,,,,,,,,,,,,,,,,,,,,,,,,,,
,,6988878f7b811934dbd31f51,2026-03-17_06h31.18.586,kallum_motion_pilot_GIST_update_2,2026.1.1,Win32,59.52380952,6988878f7b811934dbd31f51,69b92ab4aef6dee357cd729a,69b92d1f55b40456ab8a6181,0.079,0.079,0,22,22,36,1,threeone,,,,,,,,,,,,,,,,,,,,,,,,,,,,,,,,,,,,,,,,,,,,,,,,,,,,,,,,,,,,,,,,,,,,,,,,,,,,,,,,,,,,,,,,,,,,,,,,,,,,,,,,,,,,,,,,,,,,,,,,,,,,,,,,,,,,,,,,,
,,6988878f7b811934dbd31f51,2026-03-17_06h31.18.586,kallum_motion_pilot_GIST_update_2,2026.1.1,Win32,59.52380952,6988878f7b811934dbd31f51,69b92ab4aef6dee357cd729a,69b92d1f55b40456ab8a6181,0.0791,0.0791,0,23,23,139,1,sixeight,,,,,,,,,,,,,,,,,,,,,,,,,,,,,,,,,,,,,,,,,,,,,,,,,,,,,,,,,,,,,,,,,,,,,,,,,,,,,,,,,,,,,,,,,,,,,,,,,,,,,,,,,,,,,,,,,,,,,,,,,,,,,,,,,,,,,,,,,
,,6988878f7b811934dbd31f51,2026-03-17_06h31.18.586,kallum_motion_pilot_GIST_update_2,2026.1.1,Win32,59.52380952,6988878f7b811934dbd31f51,69b92ab4aef6dee357cd729a,69b92d1f55b40456ab8a6181,0.0792,0.0792,0,24,24,54,1,fourtwo,,,,,,,,,,,,,,,,,,,,,,,,,,,,,,,,,,,,,,,,,,,,,,,,,,,,,,,,,,,,,,,,,,,,,,,,,,,,,,,,,,,,,,,,,,,,,,,,,,,,,,,,,,,,,,,,,,,,,,,,,,,,,,,,,,,,,,,,,
,,6988878f7b811934dbd31f51,2026-03-17_06h31.18.586,kallum_motion_pilot_GIST_update_2,2026.1.1,Win32,59.52380952,6988878f7b811934dbd31f51,69b92ab4aef6dee357cd729a,69b92d1f55b40456ab8a6181,0.0793,0.0794,0,25,25,132,1,sevenfive,,,,,,,,,,,,,,,,,,,,,,,,,,,,,,,,,,,,,,,,,,,,,,,,,,,,,,,,,,,,,,,,,,,,,,,,,,,,,,,,,,,,,,,,,,,,,,,,,,,,,,,,,,,,,,,,,,,,,,,,,,,,,,,,,,,,,,,,,
,,6988878f7b811934dbd31f51,2026-03-17_06h31.18.586,kallum_motion_pilot_GIST_update_2,2026.1.1,Win32,59.52380952,6988878f7b811934dbd31f51,69b92ab4aef6dee357cd729a,69b92d1f55b40456ab8a6181,0.0794,0.0794,0,26,26,17,1,onethree,,,,,,,,,,,,,,,,,,,,,,,,,,,,,,,,,,,,,,,,,,,,,,,,,,,,,,,,,,,,,,,,,,,,,,,,,,,,,,,,,,,,,,,,,,,,,,,,,,,,,,,,,,,,,,,,,,,,,,,,,,,,,,,,,,,,,,,,,
,,6988878f7b811934dbd31f51,2026-03-17_06h31.18.586,kallum_motion_pilot_GIST_update_2,2026.1.1,Win32,59.52380952,6988878f7b811934dbd31f51,69b92ab4aef6dee357cd729a,69b92d1f55b40456ab8a6181,0.0795,0.0795,0,27,27,113,1,fiveseven,,,,,,,,,,,,,,,,,,,,,,,,,,,,,,,,,,,,,,,,,,,,,,,,,,,,,,,,,,,,,,,,,,,,,,,,,,,,,,,,,,,,,,,,,,,,,,,,,,,,,,,,,,,,,,,,,,,,,,,,,,,,,,,,,,,,,,,,,
,,6988878f7b811934dbd31f51,2026-03-17_06h31.18.586,kallum_motion_pilot_GIST_update_2,2026.1.1,Win32,59.52380952,6988878f7b811934dbd31f51,69b92ab4aef6dee357cd729a,69b92d1f55b40456ab8a6181,0.0796,0.0796,0,28,28,71,1,fourthree,,,,,,,,,,,,,,,,,,,,,,,,,,,,,,,,,,,,,,,,,,,,,,,,,,,,,,,,,,,,,,,,,,,,,,,,,,,,,,,,,,,,,,,,,,,,,,,,,,,,,,,,,,,,,,,,,,,,,,,,,,,,,,,,,,,,,,,,,
,,6988878f7b811934dbd31f51,2026-03-17_06h31.18.586,kallum_motion_pilot_GIST_update_2,2026.1.1,Win32,59.52380952,6988878f7b811934dbd31f51,69b92ab4aef6dee357cd729a,69b92d1f55b40456ab8a6181,0.0796,0.0796,0,29,29,126,1,eightsix,,,,,,,,,,,,,,,,,,,,,,,,,,,,,,,,,,,,,,,,,,,,,,,,,,,,,,,,,,,,,,,,,,,,,,,,,,,,,,,,,,,,,,,,,,,,,,,,,,,,,,,,,,,,,,,,,,,,,,,,,,,,,,,,,,,,,,,,,
,,6988878f7b811934dbd31f51,2026-03-17_06h31.18.586,kallum_motion_pilot_GIST_update_2,2026.1.1,Win32,59.52380952,6988878f7b811934dbd31f51,69b92ab4aef6dee357cd729a,69b92d1f55b40456ab8a6181,0.0798,0.0798,0,30,30,145,1,fiveseven,,,,,,,,,,,,,,,,,,,,,,,,,,,,,,,,,,,,,,,,,,,,,,,,,,,,,,,,,,,,,,,,,,,,,,,,,,,,,,,,,,,,,,,,,,,,,,,,,,,,,,,,,,,,,,,,,,,,,,,,,,,,,,,,,,,,,,,,,
,,6988878f7b811934dbd31f51,2026-03-17_06h31.18.586,kallum_motion_pilot_GIST_update_2,2026.1.1,Win32,59.52380952,6988878f7b811934dbd31f51,69b92ab4aef6dee357cd729a,69b92d1f55b40456ab8a6181,0.0798,0.0798,0,31,31,125,1,seveneight,,,,,,,,,,,,,,,,,,,,,,,,,,,,,,,,,,,,,,,,,,,,,,,,,,,,,,,,,,,,,,,,,,,,,,,,,,,,,,,,,,,,,,,,,,,,,,,,,,,,,,,,,,,,,,,,,,,,,,,,,,,,,,,,,,,,,,,,,
,,6988878f7b811934dbd31f51,2026-03-17_06h31.18.586,kallum_motion_pilot_GIST_update_2,2026.1.1,Win32,59.52380952,6988878f7b811934dbd31f51,69b92ab4aef6dee357cd729a,69b92d1f55b40456ab8a6181,0.0799,0.0799,0,32,32,128,1,fivesix,,,,,,,,,,,,,,,,,,,,,,,,,,,,,,,,,,,,,,,,,,,,,,,,,,,,,,,,,,,,,,,,,,,,,,,,,,,,,,,,,,,,,,,,,,,,,,,,,,,,,,,,,,,,,,,,,,,,,,,,,,,,,,,,,,,,,,,,,
,,6988878f7b811934dbd31f51,2026-03-17_06h31.18.586,kallum_motion_pilot_GIST_update_2,2026.1.1,Win32,59.52380952,6988878f7b811934dbd31f51,69b92ab4aef6dee357cd729a,69b92d1f55b40456ab8a6181,0.0801,0.0801,0,33,33,78,1,fourtwo,,,,,,,,,,,,,,,,,,,,,,,,,,,,,,,,,,,,,,,,,,,,,,,,,,,,,,,,,,,,,,,,,,,,,,,,,,,,,,,,,,,,,,,,,,,,,,,,,,,,,,,,,,,,,,,,,,,,,,,,,,,,,,,,,,,,,,,,,
,,6988878f7b811934dbd31f51,2026-03-17_06h31.18.586,kallum_motion_pilot_GIST_update_2,2026.1.1,Win32,59.52380952,6988878f7b811934dbd31f51,69b92ab4aef6dee357cd729a,69b92d1f55b40456ab8a6181,0.0802,0.0802,0,34,34,55,1,fourthree,,,,,,,,,,,,,,,,,,,,,,,,,,,,,,,,,,,,,,,,,,,,,,,,,,,,,,,,,,,,,,,,,,,,,,,,,,,,,,,,,,,,,,,,,,,,,,,,,,,,,,,,,,,,,,,,,,,,,,,,,,,,,,,,,,,,,,,,,
,,6988878f7b811934dbd31f51,2026-03-17_06h31.18.586,kallum_motion_pilot_GIST_update_2,2026.1.1,Win32,59.52380952,6988878f7b811934dbd31f51,69b92ab4aef6dee357cd729a,69b92d1f55b40456ab8a6181,0.0803,0.0803,0,35,35,86,1,eightsix,,,,,,,,,,,,,,,,,,,,,,,,,,,,,,,,,,,,,,,,,,,,,,,,,,,,,,,,,,,,,,,,,,,,,,,,,,,,,,,,,,,,,,,,,,,,,,,,,,,,,,,,,,,,,,,,,,,,,,,,,,,,,,,,,,,,,,,,,
,,6988878f7b811934dbd31f51,2026-03-17_06h31.18.586,kallum_motion_pilot_GIST_update_2,2026.1.1,Win32,59.52380952,6988878f7b811934dbd31f51,69b92ab4aef6dee357cd729a,69b92d1f55b40456ab8a6181,0.0804,0.0804,0,36,36,65,1,onethree,,,,,,,,,,,,,,,,,,,,,,,,,,,,,,,,,,,,,,,,,,,,,,,,,,,,,,,,,,,,,,,,,,,,,,,,,,,,,,,,,,,,,,,,,,,,,,,,,,,,,,,,,,,,,,,,,,,,,,,,,,,,,,,,,,,,,,,,,
,,6988878f7b811934dbd31f51,2026-03-17_06h31.18.586,kallum_motion_pilot_GIST_update_2,2026.1.1,Win32,59.52380952,6988878f7b811934dbd31f51,69b92ab4aef6dee357cd729a,69b92d1f55b40456ab8a6181,0.0805,0.0805,0,37,37,97,1,fiveseven,,,,,,,,,,,,,,,,,,,,,,,,,,,,,,,,,,,,,,,,,,,,,,,,,,,,,,,,,,,,,,,,,,,,,,,,,,,,,,,,,,,,,,,,,,,,,,,,,,,,,,,,,,,,,,,,,,,,,,,,,,,,,,,,,,,,,,,,,
,,6988878f7b811934dbd31f51,2026-03-17_06h31.18.586,kallum_motion_pilot_GIST_update_2,2026.1.1,Win32,59.52380952,6988878f7b811934dbd31f51,69b92ab4aef6dee357cd729a,69b92d1f55b40456ab8a6181,0.0805,0.0805,0,38,38,101,1,seveneight,,,,,,,,,,,,,,,,,,,,,,,,,,,,,,,,,,,,,,,,,,,,,,,,,,,,,,,,,,,,,,,,,,,,,,,,,,,,,,,,,,,,,,,,,,,,,,,,,,,,,,,,,,,,,,,,,,,,,,,,,,,,,,,,,,,,,,,,,
,,6988878f7b811934dbd31f51,2026-03-17_06h31.18.586,kallum_motion_pilot_GIST_update_2,2026.1.1,Win32,59.52380952,6988878f7b811934dbd31f51,69b92ab4aef6dee357cd729a,69b92d1f55b40456ab8a6181,0.0806,0.0806,0,39,39,79,1,eightseven,,,,,,,,,,,,,,,,,,,,,,,,,,,,,,,,,,,,,,,,,,,,,,,,,,,,,,,,,,,,,,,,,,,,,,,,,,,,,,,,,,,,,,,,,,,,,,,,,,,,,,,,,,,,,,,,,,,,,,,,,,,,,,,,,,,,,,,,,
,,6988878f7b811934dbd31f51,2026-03-17_06h31.18.586,kallum_motion_pilot_GIST_update_2,2026.1.1,Win32,59.52380952,6988878f7b811934dbd31f51,69b92ab4aef6dee357cd729a,69b92d1f55b40456ab8a6181,0.0806,0.0806,0,40,40,90,1,sixfive,,,,,,,,,,,,,,,,,,,,,,,,,,,,,,,,,,,,,,,,,,,,,,,,,,,,,,,,,,,,,,,,,,,,,,,,,,,,,,,,,,,,,,,,,,,,,,,,,,,,,,,,,,,,,,,,,,,,,,,,,,,,,,,,,,,,,,,,,
,,6988878f7b811934dbd31f51,2026-03-17_06h31.18.586,kallum_motion_pilot_GIST_update_2,2026.1.1,Win32,59.52380952,6988878f7b811934dbd31f51,69b92ab4aef6dee357cd729a,69b92d1f55b40456ab8a6181,0.0808,0.0808,0,41,41,80,1,fivesix,,,,,,,,,,,,,,,,,,,,,,,,,,,,,,,,,,,,,,,,,,,,,,,,,,,,,,,,,,,,,,,,,,,,,,,,,,,,,,,,,,,,,,,,,,,,,,,,,,,,,,,,,,,,,,,,,,,,,,,,,,,,,,,,,,,,,,,,,
,,6988878f7b811934dbd31f51,2026-03-17_06h31.18.586,kallum_motion_pilot_GIST_update_2,2026.1.1,Win32,59.52380952,6988878f7b811934dbd31f51,69b92ab4aef6dee357cd729a,69b92d1f55b40456ab8a6181,0.0808,0.0808,0,42,42,63,1,fourthree,,,,,,,,,,,,,,,,,,,,,,,,,,,,,,,,,,,,,,,,,,,,,,,,,,,,,,,,,,,,,,,,,,,,,,,,,,,,,,,,,,,,,,,,,,,,,,,,,,,,,,,,,,,,,,,,,,,,,,,,,,,,,,,,,,,,,,,,,
,,6988878f7b811934dbd31f51,2026-03-17_06h31.18.586,kallum_motion_pilot_GIST_update_2,2026.1.1,Win32,59.52380952,6988878f7b811934dbd31f51,69b92ab4aef6dee357cd729a,69b92d1f55b40456ab8a6181,0.0809,0.0809,0,43,43,21,1,threefour,,,,,,,,,,,,,,,,,,,,,,,,,,,,,,,,,,,,,,,,,,,,,,,,,,,,,,,,,,,,,,,,,,,,,,,,,,,,,,,,,,,,,,,,,,,,,,,,,,,,,,,,,,,,,,,,,,,,,,,,,,,,,,,,,,,,,,,,,
,,6988878f7b811934dbd31f51,2026-03-17_06h31.18.586,kallum_motion_pilot_GIST_update_2,2026.1.1,Win32,59.52380952,6988878f7b811934dbd31f51,69b92ab4aef6dee357cd729a,69b92d1f55b40456ab8a6181,0.081,0.081,0,44,44,151,1,eightseven,,,,,,,,,,,,,,,,,,,,,,,,,,,,,,,,,,,,,,,,,,,,,,,,,,,,,,,,,,,,,,,,,,,,,,,,,,,,,,,,,,,,,,,,,,,,,,,,,,,,,,,,,,,,,,,,,,,,,,,,,,,,,,,,,,,,,,,,,
,,6988878f7b811934dbd31f51,2026-03-17_06h31.18.586,kallum_motion_pilot_GIST_update_2,2026.1.1,Win32,59.52380952,6988878f7b811934dbd31f51,69b92ab4aef6dee357cd729a,69b92d1f55b40456ab8a6181,0.0811,0.0811,0,45,45,69,1,threefour,,,,,,,,,,,,,,,,,,,,,,,,,,,,,,,,,,,,,,,,,,,,,,,,,,,,,,,,,,,,,,,,,,,,,,,,,,,,,,,,,,,,,,,,,,,,,,,,,,,,,,,,,,,,,,,,,,,,,,,,,,,,,,,,,,,,,,,,,
,,6988878f7b811934dbd31f51,2026-03-17_06h31.18.586,kallum_motion_pilot_GIST_update_2,2026.1.1,Win32,59.52380952,6988878f7b811934dbd31f51,69b92ab4aef6dee357cd729a,69b92d1f55b40456ab8a6181,0.0812,0.0812,0,46,46,98,1,sixfive,,,,,,,,,,,,,,,,,,,,,,,,,,,,,,,,,,,,,,,,,,,,,,,,,,,,,,,,,,,,,,,,,,,,,,,,,,,,,,,,,,,,,,,,,,,,,,,,,,,,,,,,,,,,,,,,,,,,,,,,,,,,,,,,,,,,,,,,,
,,6988878f7b811934dbd31f51,2026-03-17_06h31.18.586,kallum_motion_pilot_GIST_update_2,2026.1.1,Win32,59.52380952,6988878f7b811934dbd31f51,69b92ab4aef6dee357cd729a,69b92d1f55b40456ab8a6181,0.0813,0.0813,0,47,47,142,1,eightsix,,,,,,,,,,,,,,,,,,,,,,,,,,,,,,,,,,,,,,,,,,,,,,,,,,,,,,,,,,,,,,,,,,,,,,,,,,,,,,,,,,,,,,,,,,,,,,,,,,,,,,,,,,,,,,,,,,,,,,,,,,,,,,,,,,,,,,,,,
,,6988878f7b811934dbd31f51,2026-03-17_06h31.18.586,kallum_motion_pilot_GIST_update_2,2026.1.1,Win32,59.52380952,6988878f7b811934dbd31f51,69b92ab4aef6dee357cd729a,69b92d1f55b40456ab8a6181,0.0815,0.0815,0,48,48,25,1,onethree,,,,,,,,,,,,,,,,,,,,,,,,,,,,,,,,,,,,,,,,,,,,,,,,,,,,,,,,,,,,,,,,,,,,,,,,,,,,,,,,,,,,,,,,,,,,,,,,,,,,,,,,,,,,,,,,,,,,,,,,,,,,,,,,,,,,,,,,,
,,6988878f7b811934dbd31f51,2026-03-17_06h31.18.586,kallum_motion_pilot_GIST_update_2,2026.1.1,Win32,59.52380952,6988878f7b811934dbd31f51,69b92ab4aef6dee357cd729a,69b92d1f55b40456ab8a6181,0.0816,0.0816,0,49,49,127,1,eightseven,,,,,,,,,,,,,,,,,,,,,,,,,,,,,,,,,,,,,,,,,,,,,,,,,,,,,,,,,,,,,,,,,,,,,,,,,,,,,,,,,,,,,,,,,,,,,,,,,,,,,,,,,,,,,,,,,,,,,,,,,,,,,,,,,,,,,,,,,
,,6988878f7b811934dbd31f51,2026-03-17_06h31.18.586,kallum_motion_pilot_GIST_update_2,2026.1.1,Win32,59.52380952,6988878f7b811934dbd31f51,69b92ab4aef6dee357cd729a,69b92d1f55b40456ab8a6181,0.0816,0.0816,0,50,50,15,1,fourthree,,,,,,,,,,,,,,,,,,,,,,,,,,,,,,,,,,,,,,,,,,,,,,,,,,,,,,,,,,,,,,,,,,,,,,,,,,,,,,,,,,,,,,,,,,,,,,,,,,,,,,,,,,,,,,,,,,,,,,,,,,,,,,,,,,,,,,,,,
,,6988878f7b811934dbd31f51,2026-03-17_06h31.18.586,kallum_motion_pilot_GIST_update_2,2026.1.1,Win32,59.52380952,6988878f7b811934dbd31f51,69b92ab4aef6dee357cd729a,69b92d1f55b40456ab8a6181,0.0817,0.0817,0,51,51,76,1,threeone,,,,,,,,,,,,,,,,,,,,,,,,,,,,,,,,,,,,,,,,,,,,,,,,,,,,,,,,,,,,,,,,,,,,,,,,,,,,,,,,,,,,,,,,,,,,,,,,,,,,,,,,,,,,,,,,,,,,,,,,,,,,,,,,,,,,,,,,,
,,6988878f7b811934dbd31f51,2026-03-17_06h31.18.586,kallum_motion_pilot_GIST_update_2,2026.1.1,Win32,59.52380952,6988878f7b811934dbd31f51,69b92ab4aef6dee357cd729a,69b92d1f55b40456ab8a6181,0.0818,0.0818,0,52,52,33,1,onethree,,,,,,,,,,,,,,,,,,,,,,,,,,,,,,,,,,,,,,,,,,,,,,,,,,,,,,,,,,,,,,,,,,,,,,,,,,,,,,,,,,,,,,,,,,,,,,,,,,,,,,,,,,,,,,,,,,,,,,,,,,,,,,,,,,,,,,,,,
,,6988878f7b811934dbd31f51,2026-03-17_06h31.18.586,kallum_motion_pilot_GIST_update_2,2026.1.1,Win32,59.52380952,6988878f7b811934dbd31f51,69b92ab4aef6dee357cd729a,69b92d1f55b40456ab8a6181,0.0819,0.0819,0,53,53,133,1,seveneight,,,,,,,,,,,,,,,,,,,,,,,,,,,,,,,,,,,,,,,,,,,,,,,,,,,,,,,,,,,,,,,,,,,,,,,,,,,,,,,,,,,,,,,,,,,,,,,,,,,,,,,,,,,,,,,,,,,,,,,,,,,,,,,,,,,,,,,,,
,,6988878f7b811934dbd31f51,2026-03-17_06h31.18.586,kallum_motion_pilot_GIST_update_2,2026.1.1,Win32,59.52380952,6988878f7b811934dbd31f51,69b92ab4aef6dee357cd729a,69b92d1f55b40456ab8a6181,0.082,0.082,0,54,54,57,1,onethree,,,,,,,,,,,,,,,,,,,,,,,,,,,,,,,,,,,,,,,,,,,,,,,,,,,,,,,,,,,,,,,,,,,,,,,,,,,,,,,,,,,,,,,,,,,,,,,,,,,,,,,,,,,,,,,,,,,,,,,,,,,,,,,,,,,,,,,,,
,,6988878f7b811934dbd31f51,2026-03-17_06h31.18.586,kallum_motion_pilot_GIST_update_2,2026.1.1,Win32,59.52380952,6988878f7b811934dbd31f51,69b92ab4aef6dee357cd729a,69b92d1f55b40456ab8a6181,0.082,0.082,0,55,55,52,1,threeone,,,,,,,,,,,,,,,,,,,,,,,,,,,,,,,,,,,,,,,,,,,,,,,,,,,,,,,,,,,,,,,,,,,,,,,,,,,,,,,,,,,,,,,,,,,,,,,,,,,,,,,,,,,,,,,,,,,,,,,,,,,,,,,,,,,,,,,,,
,,6988878f7b811934dbd31f51,2026-03-17_06h31.18.586,kallum_motion_pilot_GIST_update_2,2026.1.1,Win32,59.52380952,6988878f7b811934dbd31f51,69b92ab4aef6dee357cd729a,69b92d1f55b40456ab8a6181,0.0821,0.0822,0,56,56,83,1,sixeight,,,,,,,,,,,,,,,,,,,,,,,,,,,,,,,,,,,,,,,,,,,,,,,,,,,,,,,,,,,,,,,,,,,,,,,,,,,,,,,,,,,,,,,,,,,,,,,,,,,,,,,,,,,,,,,,,,,,,,,,,,,,,,,,,,,,,,,,,
,,6988878f7b811934dbd31f51,2026-03-17_06h31.18.586,kallum_motion_pilot_GIST_update_2,2026.1.1,Win32,59.52380952,6988878f7b811934dbd31f51,69b92ab4aef6dee357cd729a,69b92d1f55b40456ab8a6181,0.0823,0.0823,0,57,57,130,1,sixfive,,,,,,,,,,,,,,,,,,,,,,,,,,,,,,,,,,,,,,,,,,,,,,,,,,,,,,,,,,,,,,,,,,,,,,,,,,,,,,,,,,,,,,,,,,,,,,,,,,,,,,,,,,,,,,,,,,,,,,,,,,,,,,,,,,,,,,,,,
,,6988878f7b811934dbd31f51,2026-03-17_06h31.18.586,kallum_motion_pilot_GIST_update_2,2026.1.1,Win32,59.52380952,6988878f7b811934dbd31f51,69b92ab4aef6dee357cd729a,69b92d1f55b40456ab8a6181,0.0824,0.0824,0,58,58,137,1,fiveseven,,,,,,,,,,,,,,,,,,,,,,,,,,,,,,,,,,,,,,,,,,,,,,,,,,,,,,,,,,,,,,,,,,,,,,,,,,,,,,,,,,,,,,,,,,,,,,,,,,,,,,,,,,,,,,,,,,,,,,,,,,,,,,,,,,,,,,,,,
,,6988878f7b811934dbd31f51,2026-03-17_06h31.18.586,kallum_motion_pilot_GIST_update_2,2026.1.1,Win32,59.52380952,6988878f7b811934dbd31f51,69b92ab4aef6dee357cd729a,69b92d1f55b40456ab8a6181,0.0825,0.0825,0,59,59,35,1,twofour,,,,,,,,,,,,,,,,,,,,,,,,,,,,,,,,,,,,,,,,,,,,,,,,,,,,,,,,,,,,,,,,,,,,,,,,,,,,,,,,,,,,,,,,,,,,,,,,,,,,,,,,,,,,,,,,,,,,,,,,,,,,,,,,,,,,,,,,,
,,6988878f7b811934dbd31f51,2026-03-17_06h31.18.586,kallum_motion_pilot_GIST_update_2,2026.1.1,Win32,59.52380952,6988878f7b811934dbd31f51,69b92ab4aef6dee357cd729a,69b92d1f55b40456ab8a6181,0.0826,0.0826,0,60,60,5,1,threefour,,,,,,,,,,,,,,,,,,,,,,,,,,,,,,,,,,,,,,,,,,,,,,,,,,,,,,,,,,,,,,,,,,,,,,,,,,,,,,,,,,,,,,,,,,,,,,,,,,,,,,,,,,,,,,,,,,,,,,,,,,,,,,,,,,,,,,,,,
,,6988878f7b811934dbd31f51,2026-03-17_06h31.18.586,kallum_motion_pilot_GIST_update_2,2026.1.1,Win32,59.52380952,6988878f7b811934dbd31f51,69b92ab4aef6dee357cd729a,69b92d1f55b40456ab8a6181,0.0827,0.0827,0,61,61,61,1,threefour,,,,,,,,,,,,,,,,,,,,,,,,,,,,,,,,,,,,,,,,,,,,,,,,,,,,,,,,,,,,,,,,,,,,,,,,,,,,,,,,,,,,,,,,,,,,,,,,,,,,,,,,,,,,,,,,,,,,,,,,,,,,,,,,,,,,,,,,,
,,6988878f7b811934dbd31f51,2026-03-17_06h31.18.586,kallum_motion_pilot_GIST_update_2,2026.1.1,Win32,59.52380952,6988878f7b811934dbd31f51,69b92ab4aef6dee357cd729a,69b92d1f55b40456ab8a6181,0.0827,0.0828,0,62,62,70,1,fourtwo,,,,,,,,,,,,,,,,,,,,,,,,,,,,,,,,,,,,,,,,,,,,,,,,,,,,,,,,,,,,,,,,,,,,,,,,,,,,,,,,,,,,,,,,,,,,,,,,,,,,,,,,,,,,,,,,,,,,,,,,,,,,,,,,,,,,,,,,,
,,6988878f7b811934dbd31f51,2026-03-17_06h31.18.586,kallum_motion_pilot_GIST_update_2,2026.1.1,Win32,59.52380952,6988878f7b811934dbd31f51,69b92ab4aef6dee357cd729a,69b92d1f55b40456ab8a6181,0.0829,0.0829,0,63,63,158,1,eightsix,,,,,,,,,,,,,,,,,,,,,,,,,,,,,,,,,,,,,,,,,,,,,,,,,,,,,,,,,,,,,,,,,,,,,,,,,,,,,,,,,,,,,,,,,,,,,,,,,,,,,,,,,,,,,,,,,,,,,,,,,,,,,,,,,,,,,,,,,
,,6988878f7b811934dbd31f51,2026-03-17_06h31.18.586,kallum_motion_pilot_GIST_update_2,2026.1.1,Win32,59.52380952,6988878f7b811934dbd31f51,69b92ab4aef6dee357cd729a,69b92d1f55b40456ab8a6181,0.083,0.083,0,64,64,67,1,twofour,,,,,,,,,,,,,,,,,,,,,,,,,,,,,,,,,,,,,,,,,,,,,,,,,,,,,,,,,,,,,,,,,,,,,,,,,,,,,,,,,,,,,,,,,,,,,,,,,,,,,,,,,,,,,,,,,,,,,,,,,,,,,,,,,,,,,,,,,
,,6988878f7b811934dbd31f51,2026-03-17_06h31.18.586,kallum_motion_pilot_GIST_update_2,2026.1.1,Win32,59.52380952,6988878f7b811934dbd31f51,69b92ab4aef6dee357cd729a,69b92d1f55b40456ab8a6181,0.0831,0.0831,0,65,65,94,1,eightsix,,,,,,,,,,,,,,,,,,,,,,,,,,,,,,,,,,,,,,,,,,,,,,,,,,,,,,,,,,,,,,,,,,,,,,,,,,,,,,,,,,,,,,,,,,,,,,,,,,,,,,,,,,,,,,,,,,,,,,,,,,,,,,,,,,,,,,,,,
,,6988878f7b811934dbd31f51,2026-03-17_06h31.18.586,kallum_motion_pilot_GIST_update_2,2026.1.1,Win32,59.52380952,6988878f7b811934dbd31f51,69b92ab4aef6dee357cd729a,69b92d1f55b40456ab8a6181,0.0833,0.0833,0,66,66,84,1,sevenfive,,,,,,,,,,,,,,,,,,,,,,,,,,,,,,,,,,,,,,,,,,,,,,,,,,,,,,,,,,,,,,,,,,,,,,,,,,,,,,,,,,,,,,,,,,,,,,,,,,,,,,,,,,,,,,,,,,,,,,,,,,,,,,,,,,,,,,,,,
,,6988878f7b811934dbd31f51,2026-03-17_06h31.18.586,kallum_motion_pilot_GIST_update_2,2026.1.1,Win32,59.52380952,6988878f7b811934dbd31f51,69b92ab4aef6dee357cd729a,69b92d1f55b40456ab8a6181,0.0834,0.0834,0,67,67,95,1,eightseven,,,,,,,,,,,,,,,,,,,,,,,,,,,,,,,,,,,,,,,,,,,,,,,,,,,,,,,,,,,,,,,,,,,,,,,,,,,,,,,,,,,,,,,,,,,,,,,,,,,,,,,,,,,,,,,,,,,,,,,,,,,,,,,,,,,,,,,,,
,,6988878f7b811934dbd31f51,2026-03-17_06h31.18.586,kallum_motion_pilot_GIST_update_2,2026.1.1,Win32,59.52380952,6988878f7b811934dbd31f51,69b92ab4aef6dee357cd729a,69b92d1f55b40456ab8a6181,0.0835,0.0835,0,68,68,92,1,sevenfive,,,,,,,,,,,,,,,,,,,,,,,,,,,,,,,,,,,,,,,,,,,,,,,,,,,,,,,,,,,,,,,,,,,,,,,,,,,,,,,,,,,,,,,,,,,,,,,,,,,,,,,,,,,,,,,,,,,,,,,,,,,,,,,,,,,,,,,,,
,,6988878f7b811934dbd31f51,2026-03-17_06h31.18.586,kallum_motion_pilot_GIST_update_2,2026.1.1,Win32,59.52380952,6988878f7b811934dbd31f51,69b92ab4aef6dee357cd729a,69b92d1f55b40456ab8a6181,0.0837,0.0837,0,69,69,100,1,sevenfive,,,,,,,,,,,,,,,,,,,,,,,,,,,,,,,,,,,,,,,,,,,,,,,,,,,,,,,,,,,,,,,,,,,,,,,,,,,,,,,,,,,,,,,,,,,,,,,,,,,,,,,,,,,,,,,,,,,,,,,,,,,,,,,,,,,,,,,,,
,,6988878f7b811934dbd31f51,2026-03-17_06h31.18.586,kallum_motion_pilot_GIST_update_2,2026.1.1,Win32,59.52380952,6988878f7b811934dbd31f51,69b92ab4aef6dee357cd729a,69b92d1f55b40456ab8a6181,0.0839,0.0839,0,70,70,47,1,fourthree,,,,,,,,,,,,,,,,,,,,,,,,,,,,,,,,,,,,,,,,,,,,,,,,,,,,,,,,,,,,,,,,,,,,,,,,,,,,,,,,,,,,,,,,,,,,,,,,,,,,,,,,,,,,,,,,,,,,,,,,,,,,,,,,,,,,,,,,,
,,6988878f7b811934dbd31f51,2026-03-17_06h31.18.586,kallum_motion_pilot_GIST_update_2,2026.1.1,Win32,59.52380952,6988878f7b811934dbd31f51,69b92ab4aef6dee357cd729a,69b92d1f55b40456ab8a6181,0.084,0.084,0,71,71,39,1,fourthree,,,,,,,,,,,,,,,,,,,,,,,,,,,,,,,,,,,,,,,,,,,,,,,,,,,,,,,,,,,,,,,,,,,,,,,,,,,,,,,,,,,,,,,,,,,,,,,,,,,,,,,,,,,,,,,,,,,,,,,,,,,,,,,,,,,,,,,,,
,,6988878f7b811934dbd31f51,2026-03-17_06h31.18.586,kallum_motion_pilot_GIST_update_2,2026.1.1,Win32,59.52380952,6988878f7b811934dbd31f51,69b92ab4aef6dee357cd729a,69b92d1f55b40456ab8a6181,0.0841,0.0841,0,72,72,12,1,threeone,,,,,,,,,,,,,,,,,,,,,,,,,,,,,,,,,,,,,,,,,,,,,,,,,,,,,,,,,,,,,,,,,,,,,,,,,,,,,,,,,,,,,,,,,,,,,,,,,,,,,,,,,,,,,,,,,,,,,,,,,,,,,,,,,,,,,,,,,
,,6988878f7b811934dbd31f51,2026-03-17_06h31.18.586,kallum_motion_pilot_GIST_update_2,2026.1.1,Win32,59.52380952,6988878f7b811934dbd31f51,69b92ab4aef6dee357cd729a,69b92d1f55b40456ab8a6181,0.0841,0.0841,0,73,73,11,1,twofour,,,,,,,,,,,,,,,,,,,,,,,,,,,,,,,,,,,,,,,,,,,,,,,,,,,,,,,,,,,,,,,,,,,,,,,,,,,,,,,,,,,,,,,,,,,,,,,,,,,,,,,,,,,,,,,,,,,,,,,,,,,,,,,,,,,,,,,,,
,,6988878f7b811934dbd31f51,2026-03-17_06h31.18.586,kallum_motion_pilot_GIST_update_2,2026.1.1,Win32,59.52380952,6988878f7b811934dbd31f51,69b92ab4aef6dee357cd729a,69b92d1f55b40456ab8a6181,0.0842,0.0842,0,74,74,28,1,threeone,,,,,,,,,,,,,,,,,,,,,,,,,,,,,,,,,,,,,,,,,,,,,,,,,,,,,,,,,,,,,,,,,,,,,,,,,,,,,,,,,,,,,,,,,,,,,,,,,,,,,,,,,,,,,,,,,,,,,,,,,,,,,,,,,,,,,,,,,
,,6988878f7b811934dbd31f51,2026-03-17_06h31.18.586,kallum_motion_pilot_GIST_update_2,2026.1.1,Win32,59.52380952,6988878f7b811934dbd31f51,69b92ab4aef6dee357cd729a,69b92d1f55b40456ab8a6181,0.0843,0.0843,0,75,75,103,1,eightseven,,,,,,,,,,,,,,,,,,,,,,,,,,,,,,,,,,,,,,,,,,,,,,,,,,,,,,,,,,,,,,,,,,,,,,,,,,,,,,,,,,,,,,,,,,,,,,,,,,,,,,,,,,,,,,,,,,,,,,,,,,,,,,,,,,,,,,,,,
,,6988878f7b811934dbd31f51,2026-03-17_06h31.18.586,kallum_motion_pilot_GIST_update_2,2026.1.1,Win32,59.52380952,6988878f7b811934dbd31f51,69b92ab4aef6dee357cd729a,69b92d1f55b40456ab8a6181,0.0844,0.0844,0,76,76,8,1,onetwo,,,,,,,,,,,,,,,,,,,,,,,,,,,,,,,,,,,,,,,,,,,,,,,,,,,,,,,,,,,,,,,,,,,,,,,,,,,,,,,,,,,,,,,,,,,,,,,,,,,,,,,,,,,,,,,,,,,,,,,,,,,,,,,,,,,,,,,,,
,,6988878f7b811934dbd31f51,2026-03-17_06h31.18.586,kallum_motion_pilot_GIST_update_2,2026.1.1,Win32,59.52380952,6988878f7b811934dbd31f51,69b92ab4aef6dee357cd729a,69b92d1f55b40456ab8a6181,0.0844,0.0844,0,77,77,138,1,sixfive,,,,,,,,,,,,,,,,,,,,,,,,,,,,,,,,,,,,,,,,,,,,,,,,,,,,,,,,,,,,,,,,,,,,,,,,,,,,,,,,,,,,,,,,,,,,,,,,,,,,,,,,,,,,,,,,,,,,,,,,,,,,,,,,,,,,,,,,,
,,6988878f7b811934dbd31f51,2026-03-17_06h31.18.586,kallum_motion_pilot_GIST_update_2,2026.1.1,Win32,59.52380952,6988878f7b811934dbd31f51,69b92ab4aef6dee357cd729a,69b92d1f55b40456ab8a6181,0.0846,0.0846,0,78,78,117,1,seveneight,,,,,,,,,,,,,,,,,,,,,,,,,,,,,,,,,,,,,,,,,,,,,,,,,,,,,,,,,,,,,,,,,,,,,,,,,,,,,,,,,,,,,,,,,,,,,,,,,,,,,,,,,,,,,,,,,,,,,,,,,,,,,,,,,,,,,,,,,
,,6988878f7b811934dbd31f51,2026-03-17_06h31.18.586,kallum_motion_pilot_GIST_update_2,2026.1.1,Win32,59.52380952,6988878f7b811934dbd31f51,69b92ab4aef6dee357cd729a,69b92d1f55b40456ab8a6181,0.0846,0.0846,0,79,79,154,1,sixfive,,,,,,,,,,,,,,,,,,,,,,,,,,,,,,,,,,,,,,,,,,,,,,,,,,,,,,,,,,,,,,,,,,,,,,,,,,,,,,,,,,,,,,,,,,,,,,,,,,,,,,,,,,,,,,,,,,,,,,,,,,,,,,,,,,,,,,,,,
,,6988878f7b811934dbd31f51,2026-03-17_06h31.18.586,kallum_motion_pilot_GIST_update_2,2026.1.1,Win32,59.52380952,6988878f7b811934dbd31f51,69b92ab4aef6dee357cd729a,69b92d1f55b40456ab8a6181,0.0848,0.0848,0,80,80,122,1,sixfive,,,,,,,,,,,,,,,,,,,,,,,,,,,,,,,,,,,,,,,,,,,,,,,,,,,,,,,,,,,,,,,,,,,,,,,,,,,,,,,,,,,,,,,,,,,,,,,,,,,,,,,,,,,,,,,,,,,,,,,,,,,,,,,,,,,,,,,,,
,,6988878f7b811934dbd31f51,2026-03-17_06h31.18.586,kallum_motion_pilot_GIST_update_2,2026.1.1,Win32,59.52380952,6988878f7b811934dbd31f51,69b92ab4aef6dee357cd729a,69b92d1f55b40456ab8a6181,0.0849,0.0849,0,81,81,38,1,fourtwo,,,,,,,,,,,,,,,,,,,,,,,,,,,,,,,,,,,,,,,,,,,,,,,,,,,,,,,,,,,,,,,,,,,,,,,,,,,,,,,,,,,,,,,,,,,,,,,,,,,,,,,,,,,,,,,,,,,,,,,,,,,,,,,,,,,,,,,,,
,,6988878f7b811934dbd31f51,2026-03-17_06h31.18.586,kallum_motion_pilot_GIST_update_2,2026.1.1,Win32,59.52380952,6988878f7b811934dbd31f51,69b92ab4aef6dee357cd729a,69b92d1f55b40456ab8a6181,0.0849,0.0849,0,82,82,56,1,onetwo,,,,,,,,,,,,,,,,,,,,,,,,,,,,,,,,,,,,,,,,,,,,,,,,,,,,,,,,,,,,,,,,,,,,,,,,,,,,,,,,,,,,,,,,,,,,,,,,,,,,,,,,,,,,,,,,,,,,,,,,,,,,,,,,,,,,,,,,,
,,6988878f7b811934dbd31f51,2026-03-17_06h31.18.586,kallum_motion_pilot_GIST_update_2,2026.1.1,Win32,59.52380952,6988878f7b811934dbd31f51,69b92ab4aef6dee357cd729a,69b92d1f55b40456ab8a6181,0.0851,0.0851,0,83,83,109,1,seveneight,,,,,,,,,,,,,,,,,,,,,,,,,,,,,,,,,,,,,,,,,,,,,,,,,,,,,,,,,,,,,,,,,,,,,,,,,,,,,,,,,,,,,,,,,,,,,,,,,,,,,,,,,,,,,,,,,,,,,,,,,,,,,,,,,,,,,,,,,
,,6988878f7b811934dbd31f51,2026-03-17_06h31.18.586,kallum_motion_pilot_GIST_update_2,2026.1.1,Win32,59.52380952,6988878f7b811934dbd31f51,69b92ab4aef6dee357cd729a,69b92d1f55b40456ab8a6181,0.0851,0.0851,0,84,84,159,1,eightseven,,,,,,,,,,,,,,,,,,,,,,,,,,,,,,,,,,,,,,,,,,,,,,,,,,,,,,,,,,,,,,,,,,,,,,,,,,,,,,,,,,,,,,,,,,,,,,,,,,,,,,,,,,,,,,,,,,,,,,,,,,,,,,,,,,,,,,,,,
,,6988878f7b811934dbd31f51,2026-03-17_06h31.18.586,kallum_motion_pilot_GIST_update_2,2026.1.1,Win32,59.52380952,6988878f7b811934dbd31f51,69b92ab4aef6dee357cd729a,69b92d1f55b40456ab8a6181,0.0853,0.0853,0,85,85,18,1,twoone,,,,,,,,,,,,,,,,,,,,,,,,,,,,,,,,,,,,,,,,,,,,,,,,,,,,,,,,,,,,,,,,,,,,,,,,,,,,,,,,,,,,,,,,,,,,,,,,,,,,,,,,,,,,,,,,,,,,,,,,,,,,,,,,,,,,,,,,,
,,6988878f7b811934dbd31f51,2026-03-17_06h31.18.586,kallum_motion_pilot_GIST_update_2,2026.1.1,Win32,59.52380952,6988878f7b811934dbd31f51,69b92ab4aef6dee357cd729a,69b92d1f55b40456ab8a6181,0.0854,0.0854,0,86,86,104,1,fivesix,,,,,,,,,,,,,,,,,,,,,,,,,,,,,,,,,,,,,,,,,,,,,,,,,,,,,,,,,,,,,,,,,,,,,,,,,,,,,,,,,,,,,,,,,,,,,,,,,,,,,,,,,,,,,,,,,,,,,,,,,,,,,,,,,,,,,,,,,
,,6988878f7b811934dbd31f51,2026-03-17_06h31.18.586,kallum_motion_pilot_GIST_update_2,2026.1.1,Win32,59.52380952,6988878f7b811934dbd31f51,69b92ab4aef6dee357cd729a,69b92d1f55b40456ab8a6181,0.0855,0.0855,0,87,87,42,1,twoone,,,,,,,,,,,,,,,,,,,,,,,,,,,,,,,,,,,,,,,,,,,,,,,,,,,,,,,,,,,,,,,,,,,,,,,,,,,,,,,,,,,,,,,,,,,,,,,,,,,,,,,,,,,,,,,,,,,,,,,,,,,,,,,,,,,,,,,,,
,,6988878f7b811934dbd31f51,2026-03-17_06h31.18.586,kallum_motion_pilot_GIST_update_2,2026.1.1,Win32,59.52380952,6988878f7b811934dbd31f51,69b92ab4aef6dee357cd729a,69b92d1f55b40456ab8a6181,0.0856,0.0857,0,88,88,34,1,twoone,,,,,,,,,,,,,,,,,,,,,,,,,,,,,,,,,,,,,,,,,,,,,,,,,,,,,,,,,,,,,,,,,,,,,,,,,,,,,,,,,,,,,,,,,,,,,,,,,,,,,,,,,,,,,,,,,,,,,,,,,,,,,,,,,,,,,,,,,
,,6988878f7b811934dbd31f51,2026-03-17_06h31.18.586,kallum_motion_pilot_GIST_update_2,2026.1.1,Win32,59.52380952,6988878f7b811934dbd31f51,69b92ab4aef6dee357cd729a,69b92d1f55b40456ab8a6181,0.0857,0.0857,0,89,89,68,1,threeone,,,,,,,,,,,,,,,,,,,,,,,,,,,,,,,,,,,,,,,,,,,,,,,,,,,,,,,,,,,,,,,,,,,,,,,,,,,,,,,,,,,,,,,,,,,,,,,,,,,,,,,,,,,,,,,,,,,,,,,,,,,,,,,,,,,,,,,,,
,,6988878f7b811934dbd31f51,2026-03-17_06h31.18.586,kallum_motion_pilot_GIST_update_2,2026.1.1,Win32,59.52380952,6988878f7b811934dbd31f51,69b92ab4aef6dee357cd729a,69b92d1f55b40456ab8a6181,0.0858,0.0858,0,90,90,27,1,twofour,,,,,,,,,,,,,,,,,,,,,,,,,,,,,,,,,,,,,,,,,,,,,,,,,,,,,,,,,,,,,,,,,,,,,,,,,,,,,,,,,,,,,,,,,,,,,,,,,,,,,,,,,,,,,,,,,,,,,,,,,,,,,,,,,,,,,,,,,
,,6988878f7b811934dbd31f51,2026-03-17_06h31.18.586,kallum_motion_pilot_GIST_update_2,2026.1.1,Win32,59.52380952,6988878f7b811934dbd31f51,69b92ab4aef6dee357cd729a,69b92d1f55b40456ab8a6181,0.0859,0.0859,0,91,91,62,1,fourtwo,,,,,,,,,,,,,,,,,,,,,,,,,,,,,,,,,,,,,,,,,,,,,,,,,,,,,,,,,,,,,,,,,,,,,,,,,,,,,,,,,,,,,,,,,,,,,,,,,,,,,,,,,,,,,,,,,,,,,,,,,,,,,,,,,,,,,,,,,
,,6988878f7b811934dbd31f51,2026-03-17_06h31.18.586,kallum_motion_pilot_GIST_update_2,2026.1.1,Win32,59.52380952,6988878f7b811934dbd31f51,69b92ab4aef6dee357cd729a,69b92d1f55b40456ab8a6181,0.0861,0.0861,0,92,92,41,1,onethree,,,,,,,,,,,,,,,,,,,,,,,,,,,,,,,,,,,,,,,,,,,,,,,,,,,,,,,,,,,,,,,,,,,,,,,,,,,,,,,,,,,,,,,,,,,,,,,,,,,,,,,,,,,,,,,,,,,,,,,,,,,,,,,,,,,,,,,,,
,,6988878f7b811934dbd31f51,2026-03-17_06h31.18.586,kallum_motion_pilot_GIST_update_2,2026.1.1,Win32,59.52380952,6988878f7b811934dbd31f51,69b92ab4aef6dee357cd729a,69b92d1f55b40456ab8a6181,0.0861,0.0861,0,93,93,87,1,eightseven,,,,,,,,,,,,,,,,,,,,,,,,,,,,,,,,,,,,,,,,,,,,,,,,,,,,,,,,,,,,,,,,,,,,,,,,,,,,,,,,,,,,,,,,,,,,,,,,,,,,,,,,,,,,,,,,,,,,,,,,,,,,,,,,,,,,,,,,,
,,6988878f7b811934dbd31f51,2026-03-17_06h31.18.586,kallum_motion_pilot_GIST_update_2,2026.1.1,Win32,59.52380952,6988878f7b811934dbd31f51,69b92ab4aef6dee357cd729a,69b92d1f55b40456ab8a6181,0.0862,0.0862,0,94,94,0,1,onetwo,,,,,,,,,,,,,,,,,,,,,,,,,,,,,,,,,,,,,,,,,,,,,,,,,,,,,,,,,,,,,,,,,,,,,,,,,,,,,,,,,,,,,,,,,,,,,,,,,,,,,,,,,,,,,,,,,,,,,,,,,,,,,,,,,,,,,,,,,
,,6988878f7b811934dbd31f51,2026-03-17_06h31.18.586,kallum_motion_pilot_GIST_update_2,2026.1.1,Win32,59.52380952,6988878f7b811934dbd31f51,69b92ab4aef6dee357cd729a,69b92d1f55b40456ab8a6181,0.0863,0.0863,0,95,95,155,1,sixeight,,,,,,,,,,,,,,,,,,,,,,,,,,,,,,,,,,,,,,,,,,,,,,,,,,,,,,,,,,,,,,,,,,,,,,,,,,,,,,,,,,,,,,,,,,,,,,,,,,,,,,,,,,,,,,,,,,,,,,,,,,,,,,,,,,,,,,,,,
,,6988878f7b811934dbd31f51,2026-03-17_06h31.18.586,kallum_motion_pilot_GIST_update_2,2026.1.1,Win32,59.52380952,6988878f7b811934dbd31f51,69b92ab4aef6dee357cd729a,69b92d1f55b40456ab8a6181,0.0864,0.0864,0,96,96,7,1,fourthree,,,,,,,,,,,,,,,,,,,,,,,,,,,,,,,,,,,,,,,,,,,,,,,,,,,,,,,,,,,,,,,,,,,,,,,,,,,,,,,,,,,,,,,,,,,,,,,,,,,,,,,,,,,,,,,,,,,,,,,,,,,,,,,,,,,,,,,,,
,,6988878f7b811934dbd31f51,2026-03-17_06h31.18.586,kallum_motion_pilot_GIST_update_2,2026.1.1,Win32,59.52380952,6988878f7b811934dbd31f51,69b92ab4aef6dee357cd729a,69b92d1f55b40456ab8a6181,0.0866,0.0866,0,97,97,22,1,fourtwo,,,,,,,,,,,,,,,,,,,,,,,,,,,,,,,,,,,,,,,,,,,,,,,,,,,,,,,,,,,,,,,,,,,,,,,,,,,,,,,,,,,,,,,,,,,,,,,,,,,,,,,,,,,,,,,,,,,,,,,,,,,,,,,,,,,,,,,,,
,,6988878f7b811934dbd31f51,2026-03-17_06h31.18.586,kallum_motion_pilot_GIST_update_2,2026.1.1,Win32,59.52380952,6988878f7b811934dbd31f51,69b92ab4aef6dee357cd729a,69b92d1f55b40456ab8a6181,0.0867,0.0867,0,98,98,118,1,eightsix,,,,,,,,,,,,,,,,,,,,,,,,,,,,,,,,,,,,,,,,,,,,,,,,,,,,,,,,,,,,,,,,,,,,,,,,,,,,,,,,,,,,,,,,,,,,,,,,,,,,,,,,,,,,,,,,,,,,,,,,,,,,,,,,,,,,,,,,,
,,6988878f7b811934dbd31f51,2026-03-17_06h31.18.586,kallum_motion_pilot_GIST_update_2,2026.1.1,Win32,59.52380952,6988878f7b811934dbd31f51,69b92ab4aef6dee357cd729a,69b92d1f55b40456ab8a6181,0.0868,0.0868,0,99,99,51,1,twofour,,,,,,,,,,,,,,,,,,,,,,,,,,,,,,,,,,,,,,,,,,,,,,,,,,,,,,,,,,,,,,,,,,,,,,,,,,,,,,,,,,,,,,,,,,,,,,,,,,,,,,,,,,,,,,,,,,,,,,,,,,,,,,,,,,,,,,,,,
,,6988878f7b811934dbd31f51,2026-03-17_06h31.18.586,kallum_motion_pilot_GIST_update_2,2026.1.1,Win32,59.52380952,6988878f7b811934dbd31f51,69b92ab4aef6dee357cd729a,69b92d1f55b40456ab8a6181,0.0869,0.0869,0,100,100,123,1,sixeight,,,,,,,,,,,,,,,,,,,,,,,,,,,,,,,,,,,,,,,,,,,,,,,,,,,,,,,,,,,,,,,,,,,,,,,,,,,,,,,,,,,,,,,,,,,,,,,,,,,,,,,,,,,,,,,,,,,,,,,,,,,,,,,,,,,,,,,,,
,,6988878f7b811934dbd31f51,2026-03-17_06h31.18.586,kallum_motion_pilot_GIST_update_2,2026.1.1,Win32,59.52380952,6988878f7b811934dbd31f51,69b92ab4aef6dee357cd729a,69b92d1f55b40456ab8a6181,0.087,0.087,0,101,101,59,1,twofour,,,,,,,,,,,,,,,,,,,,,,,,,,,,,,,,,,,,,,,,,,,,,,,,,,,,,,,,,,,,,,,,,,,,,,,,,,,,,,,,,,,,,,,,,,,,,,,,,,,,,,,,,,,,,,,,,,,,,,,,,,,,,,,,,,,,,,,,,
,,6988878f7b811934dbd31f51,2026-03-17_06h31.18.586,kallum_motion_pilot_GIST_update_2,2026.1.1,Win32,59.52380952,6988878f7b811934dbd31f51,69b92ab4aef6dee357cd729a,69b92d1f55b40456ab8a6181,0.087,0.0871,0,102,102,156,1,sevenfive,,,,,,,,,,,,,,,,,,,,,,,,,,,,,,,,,,,,,,,,,,,,,,,,,,,,,,,,,,,,,,,,,,,,,,,,,,,,,,,,,,,,,,,,,,,,,,,,,,,,,,,,,,,,,,,,,,,,,,,,,,,,,,,,,,,,,,,,,
,,6988878f7b811934dbd31f51,2026-03-17_06h31.18.586,kallum_motion_pilot_GIST_update_2,2026.1.1,Win32,59.52380952,6988878f7b811934dbd31f51,69b92ab4aef6dee357cd729a,69b92d1f55b40456ab8a6181,0.0872,0.0872,0,103,103,2,1,twoone,,,,,,,,,,,,,,,,,,,,,,,,,,,,,,,,,,,,,,,,,,,,,,,,,,,,,,,,,,,,,,,,,,,,,,,,,,,,,,,,,,,,,,,,,,,,,,,,,,,,,,,,,,,,,,,,,,,,,,,,,,,,,,,,,,,,,,,,,
,,6988878f7b811934dbd31f51,2026-03-17_06h31.18.586,kallum_motion_pilot_GIST_update_2,2026.1.1,Win32,59.52380952,6988878f7b811934dbd31f51,69b92ab4aef6dee357cd729a,69b92d1f55b40456ab8a6181,0.0873,0.0873,0,104,104,29,1,threefour,,,,,,,,,,,,,,,,,,,,,,,,,,,,,,,,,,,,,,,,,,,,,,,,,,,,,,,,,,,,,,,,,,,,,,,,,,,,,,,,,,,,,,,,,,,,,,,,,,,,,,,,,,,,,,,,,,,,,,,,,,,,,,,,,,,,,,,,,
,,6988878f7b811934dbd31f51,2026-03-17_06h31.18.586,kallum_motion_pilot_GIST_update_2,2026.1.1,Win32,59.52380952,6988878f7b811934dbd31f51,69b92ab4aef6dee357cd729a,69b92d1f55b40456ab8a6181,0.0874,0.0874,0,105,105,48,1,onetwo,,,,,,,,,,,,,,,,,,,,,,,,,,,,,,,,,,,,,,,,,,,,,,,,,,,,,,,,,,,,,,,,,,,,,,,,,,,,,,,,,,,,,,,,,,,,,,,,,,,,,,,,,,,,,,,,,,,,,,,,,,,,,,,,,,,,,,,,,
,,6988878f7b811934dbd31f51,2026-03-17_06h31.18.586,kallum_motion_pilot_GIST_update_2,2026.1.1,Win32,59.52380952,6988878f7b811934dbd31f51,69b92ab4aef6dee357cd729a,69b92d1f55b40456ab8a6181,0.0875,0.0875,0,106,106,13,1,threefour,,,,,,,,,,,,,,,,,,,,,,,,,,,,,,,,,,,,,,,,,,,,,,,,,,,,,,,,,,,,,,,,,,,,,,,,,,,,,,,,,,,,,,,,,,,,,,,,,,,,,,,,,,,,,,,,,,,,,,,,,,,,,,,,,,,,,,,,,
,,6988878f7b811934dbd31f51,2026-03-17_06h31.18.586,kallum_motion_pilot_GIST_update_2,2026.1.1,Win32,59.52380952,6988878f7b811934dbd31f51,69b92ab4aef6dee357cd729a,69b92d1f55b40456ab8a6181,0.0876,0.0876,0,107,107,157,1,seveneight,,,,,,,,,,,,,,,,,,,,,,,,,,,,,,,,,,,,,,,,,,,,,,,,,,,,,,,,,,,,,,,,,,,,,,,,,,,,,,,,,,,,,,,,,,,,,,,,,,,,,,,,,,,,,,,,,,,,,,,,,,,,,,,,,,,,,,,,,
,,6988878f7b811934dbd31f51,2026-03-17_06h31.18.586,kallum_motion_pilot_GIST_update_2,2026.1.1,Win32,59.52380952,6988878f7b811934dbd31f51,69b92ab4aef6dee357cd729a,69b92d1f55b40456ab8a6181,0.0877,0.0877,0,108,108,75,1,twofour,,,,,,,,,,,,,,,,,,,,,,,,,,,,,,,,,,,,,,,,,,,,,,,,,,,,,,,,,,,,,,,,,,,,,,,,,,,,,,,,,,,,,,,,,,,,,,,,,,,,,,,,,,,,,,,,,,,,,,,,,,,,,,,,,,,,,,,,,
,,6988878f7b811934dbd31f51,2026-03-17_06h31.18.586,kallum_motion_pilot_GIST_update_2,2026.1.1,Win32,59.52380952,6988878f7b811934dbd31f51,69b92ab4aef6dee357cd729a,69b92d1f55b40456ab8a6181,0.0878,0.0878,0,109,109,140,1,sevenfive,,,,,,,,,,,,,,,,,,,,,,,,,,,,,,,,,,,,,,,,,,,,,,,,,,,,,,,,,,,,,,,,,,,,,,,,,,,,,,,,,,,,,,,,,,,,,,,,,,,,,,,,,,,,,,,,,,,,,,,,,,,,,,,,,,,,,,,,,
,,6988878f7b811934dbd31f51,2026-03-17_06h31.18.586,kallum_motion_pilot_GIST_update_2,2026.1.1,Win32,59.52380952,6988878f7b811934dbd31f51,69b92ab4aef6dee357cd729a,69b92d1f55b40456ab8a6181,0.0878,0.0878,0,110,110,49,1,onethree,,,,,,,,,,,,,,,,,,,,,,,,,,,,,,,,,,,,,,,,,,,,,,,,,,,,,,,,,,,,,,,,,,,,,,,,,,,,,,,,,,,,,,,,,,,,,,,,,,,,,,,,,,,,,,,,,,,,,,,,,,,,,,,,,,,,,,,,,
,,6988878f7b811934dbd31f51,2026-03-17_06h31.18.586,kallum_motion_pilot_GIST_update_2,2026.1.1,Win32,59.52380952,6988878f7b811934dbd31f51,69b92ab4aef6dee357cd729a,69b92d1f55b40456ab8a6181,0.0879,0.0879,0,111,111,106,1,sixfive,,,,,,,,,,,,,,,,,,,,,,,,,,,,,,,,,,,,,,,,,,,,,,,,,,,,,,,,,,,,,,,,,,,,,,,,,,,,,,,,,,,,,,,,,,,,,,,,,,,,,,,,,,,,,,,,,,,,,,,,,,,,,,,,,,,,,,,,,
,,6988878f7b811934dbd31f51,2026-03-17_06h31.18.586,kallum_motion_pilot_GIST_update_2,2026.1.1,Win32,59.52380952,6988878f7b811934dbd31f51,69b92ab4aef6dee357cd729a,69b92d1f55b40456ab8a6181,0.088,0.088,0,112,112,110,1,eightsix,,,,,,,,,,,,,,,,,,,,,,,,,,,,,,,,,,,,,,,,,,,,,,,,,,,,,,,,,,,,,,,,,,,,,,,,,,,,,,,,,,,,,,,,,,,,,,,,,,,,,,,,,,,,,,,,,,,,,,,,,,,,,,,,,,,,,,,,,
,,6988878f7b811934dbd31f51,2026-03-17_06h31.18.586,kallum_motion_pilot_GIST_update_2,2026.1.1,Win32,59.52380952,6988878f7b811934dbd31f51,69b92ab4aef6dee357cd729a,69b92d1f55b40456ab8a6181,0.0881,0.0881,0,113,113,85,1,seveneight,,,,,,,,,,,,,,,,,,,,,,,,,,,,,,,,,,,,,,,,,,,,,,,,,,,,,,,,,,,,,,,,,,,,,,,,,,,,,,,,,,,,,,,,,,,,,,,,,,,,,,,,,,,,,,,,,,,,,,,,,,,,,,,,,,,,,,,,,
,,6988878f7b811934dbd31f51,2026-03-17_06h31.18.586,kallum_motion_pilot_GIST_update_2,2026.1.1,Win32,59.52380952,6988878f7b811934dbd31f51,69b92ab4aef6dee357cd729a,69b92d1f55b40456ab8a6181,0.0882,0.0882,0,114,114,134,1,eightsix,,,,,,,,,,,,,,,,,,,,,,,,,,,,,,,,,,,,,,,,,,,,,,,,,,,,,,,,,,,,,,,,,,,,,,,,,,,,,,,,,,,,,,,,,,,,,,,,,,,,,,,,,,,,,,,,,,,,,,,,,,,,,,,,,,,,,,,,,
,,6988878f7b811934dbd31f51,2026-03-17_06h31.18.586,kallum_motion_pilot_GIST_update_2,2026.1.1,Win32,59.52380952,6988878f7b811934dbd31f51,69b92ab4aef6dee357cd729a,69b92d1f55b40456ab8a6181,0.0882,0.0882,0,115,115,26,1,twoone,,,,,,,,,,,,,,,,,,,,,,,,,,,,,,,,,,,,,,,,,,,,,,,,,,,,,,,,,,,,,,,,,,,,,,,,,,,,,,,,,,,,,,,,,,,,,,,,,,,,,,,,,,,,,,,,,,,,,,,,,,,,,,,,,,,,,,,,,
,,6988878f7b811934dbd31f51,2026-03-17_06h31.18.586,kallum_motion_pilot_GIST_update_2,2026.1.1,Win32,59.52380952,6988878f7b811934dbd31f51,69b92ab4aef6dee357cd729a,69b92d1f55b40456ab8a6181,0.0883,0.0883,0,116,116,152,1,fivesix,,,,,,,,,,,,,,,,,,,,,,,,,,,,,,,,,,,,,,,,,,,,,,,,,,,,,,,,,,,,,,,,,,,,,,,,,,,,,,,,,,,,,,,,,,,,,,,,,,,,,,,,,,,,,,,,,,,,,,,,,,,,,,,,,,,,,,,,,
,,6988878f7b811934dbd31f51,2026-03-17_06h31.18.586,kallum_motion_pilot_GIST_update_2,2026.1.1,Win32,59.52380952,6988878f7b811934dbd31f51,69b92ab4aef6dee357cd729a,69b92d1f55b40456ab8a6181,0.0884,0.0884,0,117,117,115,1,sixeight,,,,,,,,,,,,,,,,,,,,,,,,,,,,,,,,,,,,,,,,,,,,,,,,,,,,,,,,,,,,,,,,,,,,,,,,,,,,,,,,,,,,,,,,,,,,,,,,,,,,,,,,,,,,,,,,,,,,,,,,,,,,,,,,,,,,,,,,,
,,6988878f7b811934dbd31f51,2026-03-17_06h31.18.586,kallum_motion_pilot_GIST_update_2,2026.1.1,Win32,59.52380952,6988878f7b811934dbd31f51,69b92ab4aef6dee357cd729a,69b92d1f55b40456ab8a6181,0.0885,0.0885,0,118,118,30,1,fourtwo,,,,,,,,,,,,,,,,,,,,,,,,,,,,,,,,,,,,,,,,,,,,,,,,,,,,,,,,,,,,,,,,,,,,,,,,,,,,,,,,,,,,,,,,,,,,,,,,,,,,,,,,,,,,,,,,,,,,,,,,,,,,,,,,,,,,,,,,,
,,6988878f7b811934dbd31f51,2026-03-17_06h31.18.586,kallum_motion_pilot_GIST_update_2,2026.1.1,Win32,59.52380952,6988878f7b811934dbd31f51,69b92ab4aef6dee357cd729a,69b92d1f55b40456ab8a6181,0.0886,0.0886,0,119,119,136,1,fivesix,,,,,,,,,,,,,,,,,,,,,,,,,,,,,,,,,,,,,,,,,,,,,,,,,,,,,,,,,,,,,,,,,,,,,,,,,,,,,,,,,,,,,,,,,,,,,,,,,,,,,,,,,,,,,,,,,,,,,,,,,,,,,,,,,,,,,,,,,
,,6988878f7b811934dbd31f51,2026-03-17_06h31.18.586,kallum_motion_pilot_GIST_update_2,2026.1.1,Win32,59.52380952,6988878f7b811934dbd31f51,69b92ab4aef6dee357cd729a,69b92d1f55b40456ab8a6181,0.0886,0.0886,0,120,120,93,1,seveneight,,,,,,,,,,,,,,,,,,,,,,,,,,,,,,,,,,,,,,,,,,,,,,,,,,,,,,,,,,,,,,,,,,,,,,,,,,,,,,,,,,,,,,,,,,,,,,,,,,,,,,,,,,,,,,,,,,,,,,,,,,,,,,,,,,,,,,,,,
,,6988878f7b811934dbd31f51,2026-03-17_06h31.18.586,kallum_motion_pilot_GIST_update_2,2026.1.1,Win32,59.52380952,6988878f7b811934dbd31f51,69b92ab4aef6dee357cd729a,69b92d1f55b40456ab8a6181,0.0888,0.0888,0,121,121,3,1,twofour,,,,,,,,,,,,,,,,,,,,,,,,,,,,,,,,,,,,,,,,,,,,,,,,,,,,,,,,,,,,,,,,,,,,,,,,,,,,,,,,,,,,,,,,,,,,,,,,,,,,,,,,,,,,,,,,,,,,,,,,,,,,,,,,,,,,,,,,,
,,6988878f7b811934dbd31f51,2026-03-17_06h31.18.586,kallum_motion_pilot_GIST_update_2,2026.1.1,Win32,59.52380952,6988878f7b811934dbd31f51,69b92ab4aef6dee357cd729a,69b92d1f55b40456ab8a6181,0.0889,0.0889,0,122,122,37,1,threefour,,,,,,,,,,,,,,,,,,,,,,,,,,,,,,,,,,,,,,,,,,,,,,,,,,,,,,,,,,,,,,,,,,,,,,,,,,,,,,,,,,,,,,,,,,,,,,,,,,,,,,,,,,,,,,,,,,,,,,,,,,,,,,,,,,,,,,,,,
,,6988878f7b811934dbd31f51,2026-03-17_06h31.18.586,kallum_motion_pilot_GIST_update_2,2026.1.1,Win32,59.52380952,6988878f7b811934dbd31f51,69b92ab4aef6dee357cd729a,69b92d1f55b40456ab8a6181,0.089,0.089,0,123,123,72,1,onetwo,,,,,,,,,,,,,,,,,,,,,,,,,,,,,,,,,,,,,,,,,,,,,,,,,,,,,,,,,,,,,,,,,,,,,,,,,,,,,,,,,,,,,,,,,,,,,,,,,,,,,,,,,,,,,,,,,,,,,,,,,,,,,,,,,,,,,,,,,
,,6988878f7b811934dbd31f51,2026-03-17_06h31.18.586,kallum_motion_pilot_GIST_update_2,2026.1.1,Win32,59.52380952,6988878f7b811934dbd31f51,69b92ab4aef6dee357cd729a,69b92d1f55b40456ab8a6181,0.0891,0.0891,0,124,124,141,1,seveneight,,,,,,,,,,,,,,,,,,,,,,,,,,,,,,,,,,,,,,,,,,,,,,,,,,,,,,,,,,,,,,,,,,,,,,,,,,,,,,,,,,,,,,,,,,,,,,,,,,,,,,,,,,,,,,,,,,,,,,,,,,,,,,,,,,,,,,,,,
,,6988878f7b811934dbd31f51,2026-03-17_06h31.18.586,kallum_motion_pilot_GIST_update_2,2026.1.1,Win32,59.52380952,6988878f7b811934dbd31f51,69b92ab4aef6dee357cd729a,69b92d1f55b40456ab8a6181,0.0892,0.0892,0,125,125,19,1,twofour,,,,,,,,,,,,,,,,,,,,,,,,,,,,,,,,,,,,,,,,,,,,,,,,,,,,,,,,,,,,,,,,,,,,,,,,,,,,,,,,,,,,,,,,,,,,,,,,,,,,,,,,,,,,,,,,,,,,,,,,,,,,,,,,,,,,,,,,,
,,6988878f7b811934dbd31f51,2026-03-17_06h31.18.586,kallum_motion_pilot_GIST_update_2,2026.1.1,Win32,59.52380952,6988878f7b811934dbd31f51,69b92ab4aef6dee357cd729a,69b92d1f55b40456ab8a6181,0.0893,0.0893,0,126,126,74,1,twoone,,,,,,,,,,,,,,,,,,,,,,,,,,,,,,,,,,,,,,,,,,,,,,,,,,,,,,,,,,,,,,,,,,,,,,,,,,,,,,,,,,,,,,,,,,,,,,,,,,,,,,,,,,,,,,,,,,,,,,,,,,,,,,,,,,,,,,,,,
,,6988878f7b811934dbd31f51,2026-03-17_06h31.18.586,kallum_motion_pilot_GIST_update_2,2026.1.1,Win32,59.52380952,6988878f7b811934dbd31f51,69b92ab4aef6dee357cd729a,69b92d1f55b40456ab8a6181,0.0893,0.0893,0,127,127,10,1,twoone,,,,,,,,,,,,,,,,,,,,,,,,,,,,,,,,,,,,,,,,,,,,,,,,,,,,,,,,,,,,,,,,,,,,,,,,,,,,,,,,,,,,,,,,,,,,,,,,,,,,,,,,,,,,,,,,,,,,,,,,,,,,,,,,,,,,,,,,,
,,6988878f7b811934dbd31f51,2026-03-17_06h31.18.586,kallum_motion_pilot_GIST_update_2,2026.1.1,Win32,59.52380952,6988878f7b811934dbd31f51,69b92ab4aef6dee357cd729a,69b92d1f55b40456ab8a6181,0.0895,0.0895,0,128,128,23,1,fourthree,,,,,,,,,,,,,,,,,,,,,,,,,,,,,,,,,,,,,,,,,,,,,,,,,,,,,,,,,,,,,,,,,,,,,,,,,,,,,,,,,,,,,,,,,,,,,,,,,,,,,,,,,,,,,,,,,,,,,,,,,,,,,,,,,,,,,,,,,
,,6988878f7b811934dbd31f51,2026-03-17_06h31.18.586,kallum_motion_pilot_GIST_update_2,2026.1.1,Win32,59.52380952,6988878f7b811934dbd31f51,69b92ab4aef6dee357cd729a,69b92d1f55b40456ab8a6181,0.0895,0.0895,0,129,129,31,1,fourthree,,,,,,,,,,,,,,,,,,,,,,,,,,,,,,,,,,,,,,,,,,,,,,,,,,,,,,,,,,,,,,,,,,,,,,,,,,,,,,,,,,,,,,,,,,,,,,,,,,,,,,,,,,,,,,,,,,,,,,,,,,,,,,,,,,,,,,,,,
,,6988878f7b811934dbd31f51,2026-03-17_06h31.18.586,kallum_motion_pilot_GIST_update_2,2026.1.1,Win32,59.52380952,6988878f7b811934dbd31f51,69b92ab4aef6dee357cd729a,69b92d1f55b40456ab8a6181,0.0896,0.0896,0,130,130,40,1,onetwo,,,,,,,,,,,,,,,,,,,,,,,,,,,,,,,,,,,,,,,,,,,,,,,,,,,,,,,,,,,,,,,,,,,,,,,,,,,,,,,,,,,,,,,,,,,,,,,,,,,,,,,,,,,,,,,,,,,,,,,,,,,,,,,,,,,,,,,,,
,,6988878f7b811934dbd31f51,2026-03-17_06h31.18.586,kallum_motion_pilot_GIST_update_2,2026.1.1,Win32,59.52380952,6988878f7b811934dbd31f51,69b92ab4aef6dee357cd729a,69b92d1f55b40456ab8a6181,0.0898,0.0898,0,131,131,46,1,fourtwo,,,,,,,,,,,,,,,,,,,,,,,,,,,,,,,,,,,,,,,,,,,,,,,,,,,,,,,,,,,,,,,,,,,,,,,,,,,,,,,,,,,,,,,,,,,,,,,,,,,,,,,,,,,,,,,,,,,,,,,,,,,,,,,,,,,,,,,,,
,,6988878f7b811934dbd31f51,2026-03-17_06h31.18.586,kallum_motion_pilot_GIST_update_2,2026.1.1,Win32,59.52380952,6988878f7b811934dbd31f51,69b92ab4aef6dee357cd729a,69b92d1f55b40456ab8a6181,0.0898,0.0898,0,132,132,111,1,eightseven,,,,,,,,,,,,,,,,,,,,,,,,,,,,,,,,,,,,,,,,,,,,,,,,,,,,,,,,,,,,,,,,,,,,,,,,,,,,,,,,,,,,,,,,,,,,,,,,,,,,,,,,,,,,,,,,,,,,,,,,,,,,,,,,,,,,,,,,,
,,6988878f7b811934dbd31f51,2026-03-17_06h31.18.586,kallum_motion_pilot_GIST_update_2,2026.1.1,Win32,59.52380952,6988878f7b811934dbd31f51,69b92ab4aef6dee357cd729a,69b92d1f55b40456ab8a6181,0.0899,0.0899,0,133,133,89,1,fiveseven,,,,,,,,,,,,,,,,,,,,,,,,,,,,,,,,,,,,,,,,,,,,,,,,,,,,,,,,,,,,,,,,,,,,,,,,,,,,,,,,,,,,,,,,,,,,,,,,,,,,,,,,,,,,,,,,,,,,,,,,,,,,,,,,,,,,,,,,,
,,6988878f7b811934dbd31f51,2026-03-17_06h31.18.586,kallum_motion_pilot_GIST_update_2,2026.1.1,Win32,59.52380952,6988878f7b811934dbd31f51,69b92ab4aef6dee357cd729a,69b92d1f55b40456ab8a6181,0.09,0.09,0,134,134,135,1,eightseven,,,,,,,,,,,,,,,,,,,,,,,,,,,,,,,,,,,,,,,,,,,,,,,,,,,,,,,,,,,,,,,,,,,,,,,,,,,,,,,,,,,,,,,,,,,,,,,,,,,,,,,,,,,,,,,,,,,,,,,,,,,,,,,,,,,,,,,,,
,,6988878f7b811934dbd31f51,2026-03-17_06h31.18.586,kallum_motion_pilot_GIST_update_2,2026.1.1,Win32,59.52380952,6988878f7b811934dbd31f51,69b92ab4aef6dee357cd729a,69b92d1f55b40456ab8a6181,0.0901,0.0901,0,135,135,82,1,sixfive,,,,,,,,,,,,,,,,,,,,,,,,,,,,,,,,,,,,,,,,,,,,,,,,,,,,,,,,,,,,,,,,,,,,,,,,,,,,,,,,,,,,,,,,,,,,,,,,,,,,,,,,,,,,,,,,,,,,,,,,,,,,,,,,,,,,,,,,,
,,6988878f7b811934dbd31f51,2026-03-17_06h31.18.586,kallum_motion_pilot_GIST_update_2,2026.1.1,Win32,59.52380952,6988878f7b811934dbd31f51,69b92ab4aef6dee357cd729a,69b92d1f55b40456ab8a6181,0.0902,0.0902,0,136,136,153,1,fiveseven,,,,,,,,,,,,,,,,,,,,,,,,,,,,,,,,,,,,,,,,,,,,,,,,,,,,,,,,,,,,,,,,,,,,,,,,,,,,,,,,,,,,,,,,,,,,,,,,,,,,,,,,,,,,,,,,,,,,,,,,,,,,,,,,,,,,,,,,,
,,6988878f7b811934dbd31f51,2026-03-17_06h31.18.586,kallum_motion_pilot_GIST_update_2,2026.1.1,Win32,59.52380952,6988878f7b811934dbd31f51,69b92ab4aef6dee357cd729a,69b92d1f55b40456ab8a6181,0.0903,0.0903,0,137,137,24,1,onetwo,,,,,,,,,,,,,,,,,,,,,,,,,,,,,,,,,,,,,,,,,,,,,,,,,,,,,,,,,,,,,,,,,,,,,,,,,,,,,,,,,,,,,,,,,,,,,,,,,,,,,,,,,,,,,,,,,,,,,,,,,,,,,,,,,,,,,,,,,
,,6988878f7b811934dbd31f51,2026-03-17_06h31.18.586,kallum_motion_pilot_GIST_update_2,2026.1.1,Win32,59.52380952,6988878f7b811934dbd31f51,69b92ab4aef6dee357cd729a,69b92d1f55b40456ab8a6181,0.0903,0.0903,0,138,138,119,1,eightseven,,,,,,,,,,,,,,,,,,,,,,,,,,,,,,,,,,,,,,,,,,,,,,,,,,,,,,,,,,,,,,,,,,,,,,,,,,,,,,,,,,,,,,,,,,,,,,,,,,,,,,,,,,,,,,,,,,,,,,,,,,,,,,,,,,,,,,,,,
,,6988878f7b811934dbd31f51,2026-03-17_06h31.18.586,kallum_motion_pilot_GIST_update_2,2026.1.1,Win32,59.52380952,6988878f7b811934dbd31f51,69b92ab4aef6dee357cd729a,69b92d1f55b40456ab8a6181,0.0904,0.0904,0,139,139,108,1,sevenfive,,,,,,,,,,,,,,,,,,,,,,,,,,,,,,,,,,,,,,,,,,,,,,,,,,,,,,,,,,,,,,,,,,,,,,,,,,,,,,,,,,,,,,,,,,,,,,,,,,,,,,,,,,,,,,,,,,,,,,,,,,,,,,,,,,,,,,,,,
,,6988878f7b811934dbd31f51,2026-03-17_06h31.18.586,kallum_motion_pilot_GIST_update_2,2026.1.1,Win32,59.52380952,6988878f7b811934dbd31f51,69b92ab4aef6dee357cd729a,69b92d1f55b40456ab8a6181,0.0906,0.0906,0,140,140,121,1,fiveseven,,,,,,,,,,,,,,,,,,,,,,,,,,,,,,,,,,,,,,,,,,,,,,,,,,,,,,,,,,,,,,,,,,,,,,,,,,,,,,,,,,,,,,,,,,,,,,,,,,,,,,,,,,,,,,,,,,,,,,,,,,,,,,,,,,,,,,,,,
,,6988878f7b811934dbd31f51,2026-03-17_06h31.18.586,kallum_motion_pilot_GIST_update_2,2026.1.1,Win32,59.52380952,6988878f7b811934dbd31f51,69b92ab4aef6dee357cd729a,69b92d1f55b40456ab8a6181,0.0906,0.0906,0,141,141,147,1,sixeight,,,,,,,,,,,,,,,,,,,,,,,,,,,,,,,,,,,,,,,,,,,,,,,,,,,,,,,,,,,,,,,,,,,,,,,,,,,,,,,,,,,,,,,,,,,,,,,,,,,,,,,,,,,,,,,,,,,,,,,,,,,,,,,,,,,,,,,,,
,,6988878f7b811934dbd31f51,2026-03-17_06h31.18.586,kallum_motion_pilot_GIST_update_2,2026.1.1,Win32,59.52380952,6988878f7b811934dbd31f51,69b92ab4aef6dee357cd729a,69b92d1f55b40456ab8a6181,0.0907,0.0907,0,142,142,102,1,eightsix,,,,,,,,,,,,,,,,,,,,,,,,,,,,,,,,,,,,,,,,,,,,,,,,,,,,,,,,,,,,,,,,,,,,,,,,,,,,,,,,,,,,,,,,,,,,,,,,,,,,,,,,,,,,,,,,,,,,,,,,,,,,,,,,,,,,,,,,,
,,6988878f7b811934dbd31f51,2026-03-17_06h31.18.586,kallum_motion_pilot_GIST_update_2,2026.1.1,Win32,59.52380952,6988878f7b811934dbd31f51,69b92ab4aef6dee357cd729a,69b92d1f55b40456ab8a6181,0.0908,0.0908,0,143,143,66,1,twoone,,,,,,,,,,,,,,,,,,,,,,,,,,,,,,,,,,,,,,,,,,,,,,,,,,,,,,,,,,,,,,,,,,,,,,,,,,,,,,,,,,,,,,,,,,,,,,,,,,,,,,,,,,,,,,,,,,,,,,,,,,,,,,,,,,,,,,,,,
,,6988878f7b811934dbd31f51,2026-03-17_06h31.18.586,kallum_motion_pilot_GIST_update_2,2026.1.1,Win32,59.52380952,6988878f7b811934dbd31f51,69b92ab4aef6dee357cd729a,69b92d1f55b40456ab8a6181,0.0909,0.0909,0,144,144,6,1,fourtwo,,,,,,,,,,,,,,,,,,,,,,,,,,,,,,,,,,,,,,,,,,,,,,,,,,,,,,,,,,,,,,,,,,,,,,,,,,,,,,,,,,,,,,,,,,,,,,,,,,,,,,,,,,,,,,,,,,,,,,,,,,,,,,,,,,,,,,,,,
,,6988878f7b811934dbd31f51,2026-03-17_06h31.18.586,kallum_motion_pilot_GIST_update_2,2026.1.1,Win32,59.52380952,6988878f7b811934dbd31f51,69b92ab4aef6dee357cd729a,69b92d1f55b40456ab8a6181,0.091,0.091,0,145,145,161,1,fiveseven,,,,,,,,,,,,,,,,,,,,,,,,,,,,,,,,,,,,,,,,,,,,,,,,,,,,,,,,,,,,,,,,,,,,,,,,,,,,,,,,,,,,,,,,,,,,,,,,,,,,,,,,,,,,,,,,,,,,,,,,,,,,,,,,,,,,,,,,,
,,6988878f7b811934dbd31f51,2026-03-17_06h31.18.586,kallum_motion_pilot_GIST_update_2,2026.1.1,Win32,59.52380952,6988878f7b811934dbd31f51,69b92ab4aef6dee357cd729a,69b92d1f55b40456ab8a6181,0.0911,0.0911,0,146,146,50,1,twoone,,,,,,,,,,,,,,,,,,,,,,,,,,,,,,,,,,,,,,,,,,,,,,,,,,,,,,,,,,,,,,,,,,,,,,,,,,,,,,,,,,,,,,,,,,,,,,,,,,,,,,,,,,,,,,,,,,,,,,,,,,,,,,,,,,,,,,,,,
,,6988878f7b811934dbd31f51,2026-03-17_06h31.18.586,kallum_motion_pilot_GIST_update_2,2026.1.1,Win32,59.52380952,6988878f7b811934dbd31f51,69b92ab4aef6dee357cd729a,69b92d1f55b40456ab8a6181,0.0912,0.0912,0,147,147,73,1,onethree,,,,,,,,,,,,,,,,,,,,,,,,,,,,,,,,,,,,,,,,,,,,,,,,,,,,,,,,,,,,,,,,,,,,,,,,,,,,,,,,,,,,,,,,,,,,,,,,,,,,,,,,,,,,,,,,,,,,,,,,,,,,,,,,,,,,,,,,,
,,6988878f7b811934dbd31f51,2026-03-17_06h31.18.586,kallum_motion_pilot_GIST_update_2,2026.1.1,Win32,59.52380952,6988878f7b811934dbd31f51,69b92ab4aef6dee357cd729a,69b92d1f55b40456ab8a6181,0.0913,0.0913,0,148,148,124,1,sevenfive,,,,,,,,,,,,,,,,,,,,,,,,,,,,,,,,,,,,,,,,,,,,,,,,,,,,,,,,,,,,,,,,,,,,,,,,,,,,,,,,,,,,,,,,,,,,,,,,,,,,,,,,,,,,,,,,,,,,,,,,,,,,,,,,,,,,,,,,,
,,6988878f7b811934dbd31f51,2026-03-17_06h31.18.586,kallum_motion_pilot_GIST_update_2,2026.1.1,Win32,59.52380952,6988878f7b811934dbd31f51,69b92ab4aef6dee357cd729a,69b92d1f55b40456ab8a6181,0.0914,0.0914,0,149,149,44,1,threeone,,,,,,,,,,,,,,,,,,,,,,,,,,,,,,,,,,,,,,,,,,,,,,,,,,,,,,,,,,,,,,,,,,,,,,,,,,,,,,,,,,,,,,,,,,,,,,,,,,,,,,,,,,,,,,,,,,,,,,,,,,,,,,,,,,,,,,,,,
,,6988878f7b811934dbd31f51,2026-03-17_06h31.18.586,kallum_motion_pilot_GIST_update_2,2026.1.1,Win32,59.52380952,6988878f7b811934dbd31f51,69b92ab4aef6dee357cd729a,69b92d1f55b40456ab8a6181,0.0915,0.0915,0,150,150,107,1,sixeight,,,,,,,,,,,,,,,,,,,,,,,,,,,,,,,,,,,,,,,,,,,,,,,,,,,,,,,,,,,,,,,,,,,,,,,,,,,,,,,,,,,,,,,,,,,,,,,,,,,,,,,,,,,,,,,,,,,,,,,,,,,,,,,,,,,,,,,,,
,,6988878f7b811934dbd31f51,2026-03-17_06h31.18.586,kallum_motion_pilot_GIST_update_2,2026.1.1,Win32,59.52380952,6988878f7b811934dbd31f51,69b92ab4aef6dee357cd729a,69b92d1f55b40456ab8a6181,0.0916,0.0916,0,151,151,14,1,fourtwo,,,,,,,,,,,,,,,,,,,,,,,,,,,,,,,,,,,,,,,,,,,,,,,,,,,,,,,,,,,,,,,,,,,,,,,,,,,,,,,,,,,,,,,,,,,,,,,,,,,,,,,,,,,,,,,,,,,,,,,,,,,,,,,,,,,,,,,,,
,,6988878f7b811934dbd31f51,2026-03-17_06h31.18.586,kallum_motion_pilot_GIST_update_2,2026.1.1,Win32,59.52380952,6988878f7b811934dbd31f51,69b92ab4aef6dee357cd729a,69b92d1f55b40456ab8a6181,0.0925,0.0925,0,152,152,77,1,threefour,,,,,,,,,,,,,,,,,,,,,,,,,,,,,,,,,,,,,,,,,,,,,,,,,,,,,,,,,,,,,,,,,,,,,,,,,,,,,,,,,,,,,,,,,,,,,,,,,,,,,,,,,,,,,,,,,,,,,,,,,,,,,,,,,,,,,,,,,
,,6988878f7b811934dbd31f51,2026-03-17_06h31.18.586,kallum_motion_pilot_GIST_update_2,2026.1.1,Win32,59.52380952,6988878f7b811934dbd31f51,69b92ab4aef6dee357cd729a,69b92d1f55b40456ab8a6181,0.0926,0.0926,0,153,153,99,1,sixeight,,,,,,,,,,,,,,,,,,,,,,,,,,,,,,,,,,,,,,,,,,,,,,,,,,,,,,,,,,,,,,,,,,,,,,,,,,,,,,,,,,,,,,,,,,,,,,,,,,,,,,,,,,,,,,,,,,,,,,,,,,,,,,,,,,,,,,,,,
,,6988878f7b811934dbd31f51,2026-03-17_06h31.18.586,kallum_motion_pilot_GIST_update_2,2026.1.1,Win32,59.52380952,6988878f7b811934dbd31f51,69b92ab4aef6dee357cd729a,69b92d1f55b40456ab8a6181,0.0927,0.0927,0,154,154,146,1,sixfive,,,,,,,,,,,,,,,,,,,,,,,,,,,,,,,,,,,,,,,,,,,,,,,,,,,,,,,,,,,,,,,,,,,,,,,,,,,,,,,,,,,,,,,,,,,,,,,,,,,,,,,,,,,,,,,,,,,,,,,,,,,,,,,,,,,,,,,,,
,,6988878f7b811934dbd31f51,2026-03-17_06h31.18.586,kallum_motion_pilot_GIST_update_2,2026.1.1,Win32,59.52380952,6988878f7b811934dbd31f51,69b92ab4aef6dee357cd729a,69b92d1f55b40456ab8a6181,0.0928,0.0928,0,155,155,53,1,threefour,,,,,,,,,,,,,,,,,,,,,,,,,,,,,,,,,,,,,,,,,,,,,,,,,,,,,,,,,,,,,,,,,,,,,,,,,,,,,,,,,,,,,,,,,,,,,,,,,,,,,,,,,,,,,,,,,,,,,,,,,,,,,,,,,,,,,,,,,
,,6988878f7b811934dbd31f51,2026-03-17_06h31.18.586,kallum_motion_pilot_GIST_update_2,2026.1.1,Win32,59.52380952,6988878f7b811934dbd31f51,69b92ab4aef6dee357cd729a,69b92d1f55b40456ab8a6181,0.0929,0.0929,0,156,156,149,1,seveneight,,,,,,,,,,,,,,,,,,,,,,,,,,,,,,,,,,,,,,,,,,,,,,,,,,,,,,,,,,,,,,,,,,,,,,,,,,,,,,,,,,,,,,,,,,,,,,,,,,,,,,,,,,,,,,,,,,,,,,,,,,,,,,,,,,,,,,,,,
,,6988878f7b811934dbd31f51,2026-03-17_06h31.18.586,kallum_motion_pilot_GIST_update_2,2026.1.1,Win32,59.52380952,6988878f7b811934dbd31f51,69b92ab4aef6dee357cd729a,69b92d1f55b40456ab8a6181,0.093,0.093,0,157,157,91,1,sixeight,,,,,,,,,,,,,,,,,,,,,,,,,,,,,,,,,,,,,,,,,,,,,,,,,,,,,,,,,,,,,,,,,,,,,,,,,,,,,,,,,,,,,,,,,,,,,,,,,,,,,,,,,,,,,,,,,,,,,,,,,,,,,,,,,,,,,,,,,
,,6988878f7b811934dbd31f51,2026-03-17_06h31.18.586,kallum_motion_pilot_GIST_update_2,2026.1.1,Win32,59.52380952,6988878f7b811934dbd31f51,69b92ab4aef6dee357cd729a,69b92d1f55b40456ab8a6181,0.0931,0.0931,0,158,158,88,1,fivesix,,,,,,,,,,,,,,,,,,,,,,,,,,,,,,,,,,,,,,,,,,,,,,,,,,,,,,,,,,,,,,,,,,,,,,,,,,,,,,,,,,,,,,,,,,,,,,,,,,,,,,,,,,,,,,,,,,,,,,,,,,,,,,,,,,,,,,,,,
,,6988878f7b811934dbd31f51,2026-03-17_06h31.18.586,kallum_motion_pilot_GIST_update_2,2026.1.1,Win32,59.52380952,6988878f7b811934dbd31f51,69b92ab4aef6dee357cd729a,69b92d1f55b40456ab8a6181,0.0932,0.0932,0,159,159,129,1,fiveseven,,,,,,,,,,,,,,,,,,,,,,,,,,,,,,,,,,,,,,,,,,,,,,,,,,,,,,,,,,,,,,,,,,,,,,,,,,,,,,,,,,,,,,,,,,,,,,,,,,,,,,,,,,,,,,,,,,,,,,,,,,,,,,,,,,,,,,,,,
,,6988878f7b811934dbd31f51,2026-03-17_06h31.18.586,kallum_motion_pilot_GIST_update_2,2026.1.1,Win32,59.52380952,6988878f7b811934dbd31f51,69b92ab4aef6dee357cd729a,69b92d1f55b40456ab8a6181,0.0933,0.0933,0,160,160,20,1,threeone,,,,,,,,,,,,,,,,,,,,,,,,,,,,,,,,,,,,,,,,,,,,,,,,,,,,,,,,,,,,,,,,,,,,,,,,,,,,,,,,,,,,,,,,,,,,,,,,,,,,,,,,,,,,,,,,,,,,,,,,,,,,,,,,,,,,,,,,,
,,6988878f7b811934dbd31f51,2026-03-17_06h31.18.586,kallum_motion_pilot_GIST_update_2,2026.1.1,Win32,59.52380952,6988878f7b811934dbd31f51,69b92ab4aef6dee357cd729a,69b92d1f55b40456ab8a6181,0.0934,0.0934,0,161,161,120,1,fivesix,,,,,,,,,,,,,,,,,,,,,,,,,,,,,,,,,,,,,,,,,,,,,,,,,,,,,,,,,,,,,,,,,,,,,,,,,,,,,,,,,,,,,,,,,,,,,,,,,,,,,,,,,,,,,,,,,,,,,,,,,,,,,,,,,,,,,,,,,
,,6988878f7b811934dbd31f51,2026-03-17_06h31.18.586,kallum_motion_pilot_GIST_update_2,2026.1.1,Win32,59.52380952,6988878f7b811934dbd31f51,69b92ab4aef6dee357cd729a,69b92d1f55b40456ab8a6181,0.0935,0.0936,1,0,162,105,1,fiveseven,,,,,,,,,,,,,,,,,,,,,,,,,,,,,,,,,,,,,,,,,,,,,,,,,,,,,,,,,,,,,,,,,,,,,,,,,,,,,,,,,,,,,,,,,,,,,,,,,,,,,,,,,,,,,,,,,,,,,,,,,,,,,,,,,,,,,,,,,
,,6988878f7b811934dbd31f51,2026-03-17_06h31.18.586,kallum_motion_pilot_GIST_update_2,2026.1.1,Win32,59.52380952,6988878f7b811934dbd31f51,69b92ab4aef6dee357cd729a,69b92d1f55b40456ab8a6181,0.0936,0.0936,1,1,163,146,1,sixfive,,,,,,,,,,,,,,,,,,,,,,,,,,,,,,,,,,,,,,,,,,,,,,,,,,,,,,,,,,,,,,,,,,,,,,,,,,,,,,,,,,,,,,,,,,,,,,,,,,,,,,,,,,,,,,,,,,,,,,,,,,,,,,,,,,,,,,,,,
,,6988878f7b811934dbd31f51,2026-03-17_06h31.18.586,kallum_motion_pilot_GIST_update_2,2026.1.1,Win32,59.52380952,6988878f7b811934dbd31f51,69b92ab4aef6dee357cd729a,69b92d1f55b40456ab8a6181,0.0936,0.0936,1,2,164,54,1,fourtwo,,,,,,,,,,,,,,,,,,,,,,,,,,,,,,,,,,,,,,,,,,,,,,,,,,,,,,,,,,,,,,,,,,,,,,,,,,,,,,,,,,,,,,,,,,,,,,,,,,,,,,,,,,,,,,,,,,,,,,,,,,,,,,,,,,,,,,,,,
,,6988878f7b811934dbd31f51,2026-03-17_06h31.18.586,kallum_motion_pilot_GIST_update_2,2026.1.1,Win32,59.52380952,6988878f7b811934dbd31f51,69b92ab4aef6dee357cd729a,69b92d1f55b40456ab8a6181,0.0938,0.0938,1,3,165,108,1,sevenfive,,,,,,,,,,,,,,,,,,,,,,,,,,,,,,,,,,,,,,,,,,,,,,,,,,,,,,,,,,,,,,,,,,,,,,,,,,,,,,,,,,,,,,,,,,,,,,,,,,,,,,,,,,,,,,,,,,,,,,,,,,,,,,,,,,,,,,,,,
,,6988878f7b811934dbd31f51,2026-03-17_06h31.18.586,kallum_motion_pilot_GIST_update_2,2026.1.1,Win32,59.52380952,6988878f7b811934dbd31f51,69b92ab4aef6dee357cd729a,69b92d1f55b40456ab8a6181,0.0939,0.0939,1,4,166,160,1,fivesix,,,,,,,,,,,,,,,,,,,,,,,,,,,,,,,,,,,,,,,,,,,,,,,,,,,,,,,,,,,,,,,,,,,,,,,,,,,,,,,,,,,,,,,,,,,,,,,,,,,,,,,,,,,,,,,,,,,,,,,,,,,,,,,,,,,,,,,,,
,,6988878f7b811934dbd31f51,2026-03-17_06h31.18.586,kallum_motion_pilot_GIST_update_2,2026.1.1,Win32,59.52380952,6988878f7b811934dbd31f51,69b92ab4aef6dee357cd729a,69b92d1f55b40456ab8a6181,0.094,0.094,1,5,167,53,1,threefour,,,,,,,,,,,,,,,,,,,,,,,,,,,,,,,,,,,,,,,,,,,,,,,,,,,,,,,,,,,,,,,,,,,,,,,,,,,,,,,,,,,,,,,,,,,,,,,,,,,,,,,,,,,,,,,,,,,,,,,,,,,,,,,,,,,,,,,,,
,,6988878f7b811934dbd31f51,2026-03-17_06h31.18.586,kallum_motion_pilot_GIST_update_2,2026.1.1,Win32,59.52380952,6988878f7b811934dbd31f51,69b92ab4aef6dee357cd729a,69b92d1f55b40456ab8a6181,0.094,0.094,1,6,168,85,1,seveneight,,,,,,,,,,,,,,,,,,,,,,,,,,,,,,,,,,,,,,,,,,,,,,,,,,,,,,,,,,,,,,,,,,,,,,,,,,,,,,,,,,,,,,,,,,,,,,,,,,,,,,,,,,,,,,,,,,,,,,,,,,,,,,,,,,,,,,,,,
,,6988878f7b811934dbd31f51,2026-03-17_06h31.18.586,kallum_motion_pilot_GIST_update_2,2026.1.1,Win32,59.52380952,6988878f7b811934dbd31f51,69b92ab4aef6dee357cd729a,69b92d1f55b40456ab8a6181,0.0941,0.0941,1,7,169,140,1,sevenfive,,,,,,,,,,,,,,,,,,,,,,,,,,,,,,,,,,,,,,,,,,,,,,,,,,,,,,,,,,,,,,,,,,,,,,,,,,,,,,,,,,,,,,,,,,,,,,,,,,,,,,,,,,,,,,,,,,,,,,,,,,,,,,,,,,,,,,,,,
,,6988878f7b811934dbd31f51,2026-03-17_06h31.18.586,kallum_motion_pilot_GIST_update_2,2026.1.1,Win32,59.52380952,6988878f7b811934dbd31f51,69b92ab4aef6dee357cd729a,69b92d1f55b40456ab8a6181,0.0942,0.0943,1,8,170,128,1,fivesix,,,,,,,,,,,,,,,,,,,,,,,,,,,,,,,,,,,,,,,,,,,,,,,,,,,,,,,,,,,,,,,,,,,,,,,,,,,,,,,,,,,,,,,,,,,,,,,,,,,,,,,,,,,,,,,,,,,,,,,,,,,,,,,,,,,,,,,,,
,,6988878f7b811934dbd31f51,2026-03-17_06h31.18.586,kallum_motion_pilot_GIST_update_2,2026.1.1,Win32,59.52380952,6988878f7b811934dbd31f51,69b92ab4aef6dee357cd729a,69b92d1f55b40456ab8a6181,0.0943,0.0943,1,9,171,136,1,fivesix,,,,,,,,,,,,,,,,,,,,,,,,,,,,,,,,,,,,,,,,,,,,,,,,,,,,,,,,,,,,,,,,,,,,,,,,,,,,,,,,,,,,,,,,,,,,,,,,,,,,,,,,,,,,,,,,,,,,,,,,,,,,,,,,,,,,,,,,,
,,6988878f7b811934dbd31f51,2026-03-17_06h31.18.586,kallum_motion_pilot_GIST_update_2,2026.1.1,Win32,59.52380952,6988878f7b811934dbd31f51,69b92ab4aef6dee357cd729a,69b92d1f55b40456ab8a6181,0.0944,0.0944,1,10,172,15,1,fourthree,,,,,,,,,,,,,,,,,,,,,,,,,,,,,,,,,,,,,,,,,,,,,,,,,,,,,,,,,,,,,,,,,,,,,,,,,,,,,,,,,,,,,,,,,,,,,,,,,,,,,,,,,,,,,,,,,,,,,,,,,,,,,,,,,,,,,,,,,
,,6988878f7b811934dbd31f51,2026-03-17_06h31.18.586,kallum_motion_pilot_GIST_update_2,2026.1.1,Win32,59.52380952,6988878f7b811934dbd31f51,69b92ab4aef6dee357cd729a,69b92d1f55b40456ab8a6181,0.0945,0.0945,1,11,173,87,1,eightseven,,,,,,,,,,,,,,,,,,,,,,,,,,,,,,,,,,,,,,,,,,,,,,,,,,,,,,,,,,,,,,,,,,,,,,,,,,,,,,,,,,,,,,,,,,,,,,,,,,,,,,,,,,,,,,,,,,,,,,,,,,,,,,,,,,,,,,,,,
,,6988878f7b811934dbd31f51,2026-03-17_06h31.18.586,kallum_motion_pilot_GIST_update_2,2026.1.1,Win32,59.52380952,6988878f7b811934dbd31f51,69b92ab4aef6dee357cd729a,69b92d1f55b40456ab8a6181,0.0946,0.0946,1,12,174,55,1,fourthree,,,,,,,,,,,,,,,,,,,,,,,,,,,,,,,,,,,,,,,,,,,,,,,,,,,,,,,,,,,,,,,,,,,,,,,,,,,,,,,,,,,,,,,,,,,,,,,,,,,,,,,,,,,,,,,,,,,,,,,,,,,,,,,,,,,,,,,,,
,,6988878f7b811934dbd31f51,2026-03-17_06h31.18.586,kallum_motion_pilot_GIST_update_2,2026.1.1,Win32,59.52380952,6988878f7b811934dbd31f51,69b92ab4aef6dee357cd729a,69b92d1f55b40456ab8a6181,0.0946,0.0946,1,13,175,50,1,twoone,,,,,,,,,,,,,,,,,,,,,,,,,,,,,,,,,,,,,,,,,,,,,,,,,,,,,,,,,,,,,,,,,,,,,,,,,,,,,,,,,,,,,,,,,,,,,,,,,,,,,,,,,,,,,,,,,,,,,,,,,,,,,,,,,,,,,,,,,
,,6988878f7b811934dbd31f51,2026-03-17_06h31.18.586,kallum_motion_pilot_GIST_update_2,2026.1.1,Win32,59.52380952,6988878f7b811934dbd31f51,69b92ab4aef6dee357cd729a,69b92d1f55b40456ab8a6181,0.0948,0.0948,1,14,176,78,1,fourtwo,,,,,,,,,,,,,,,,,,,,,,,,,,,,,,,,,,,,,,,,,,,,,,,,,,,,,,,,,,,,,,,,,,,,,,,,,,,,,,,,,,,,,,,,,,,,,,,,,,,,,,,,,,,,,,,,,,,,,,,,,,,,,,,,,,,,,,,,,
,,6988878f7b811934dbd31f51,2026-03-17_06h31.18.586,kallum_motion_pilot_GIST_update_2,2026.1.1,Win32,59.52380952,6988878f7b811934dbd31f51,69b92ab4aef6dee357cd729a,69b92d1f55b40456ab8a6181,0.0948,0.0948,1,15,177,2,1,twoone,,,,,,,,,,,,,,,,,,,,,,,,,,,,,,,,,,,,,,,,,,,,,,,,,,,,,,,,,,,,,,,,,,,,,,,,,,,,,,,,,,,,,,,,,,,,,,,,,,,,,,,,,,,,,,,,,,,,,,,,,,,,,,,,,,,,,,,,,
,,6988878f7b811934dbd31f51,2026-03-17_06h31.18.586,kallum_motion_pilot_GIST_update_2,2026.1.1,Win32,59.52380952,6988878f7b811934dbd31f51,69b92ab4aef6dee357cd729a,69b92d1f55b40456ab8a6181,0.0949,0.0949,1,16,178,40,1,onetwo,,,,,,,,,,,,,,,,,,,,,,,,,,,,,,,,,,,,,,,,,,,,,,,,,,,,,,,,,,,,,,,,,,,,,,,,,,,,,,,,,,,,,,,,,,,,,,,,,,,,,,,,,,,,,,,,,,,,,,,,,,,,,,,,,,,,,,,,,
,,6988878f7b811934dbd31f51,2026-03-17_06h31.18.586,kallum_motion_pilot_GIST_update_2,2026.1.1,Win32,59.52380952,6988878f7b811934dbd31f51,69b92ab4aef6dee357cd729a,69b92d1f55b40456ab8a6181,0.095,0.095,1,17,179,45,1,threefour,,,,,,,,,,,,,,,,,,,,,,,,,,,,,,,,,,,,,,,,,,,,,,,,,,,,,,,,,,,,,,,,,,,,,,,,,,,,,,,,,,,,,,,,,,,,,,,,,,,,,,,,,,,,,,,,,,,,,,,,,,,,,,,,,,,,,,,,,
,,6988878f7b811934dbd31f51,2026-03-17_06h31.18.586,kallum_motion_pilot_GIST_update_2,2026.1.1,Win32,59.52380952,6988878f7b811934dbd31f51,69b92ab4aef6dee357cd729a,69b92d1f55b40456ab8a6181,0.0951,0.0951,1,18,180,95,1,eightseven,,,,,,,,,,,,,,,,,,,,,,,,,,,,,,,,,,,,,,,,,,,,,,,,,,,,,,,,,,,,,,,,,,,,,,,,,,,,,,,,,,,,,,,,,,,,,,,,,,,,,,,,,,,,,,,,,,,,,,,,,,,,,,,,,,,,,,,,,
,,6988878f7b811934dbd31f51,2026-03-17_06h31.18.586,kallum_motion_pilot_GIST_update_2,2026.1.1,Win32,59.52380952,6988878f7b811934dbd31f51,69b92ab4aef6dee357cd729a,69b92d1f55b40456ab8a6181,0.0952,0.0952,1,19,181,32,1,onetwo,,,,,,,,,,,,,,,,,,,,,,,,,,,,,,,,,,,,,,,,,,,,,,,,,,,,,,,,,,,,,,,,,,,,,,,,,,,,,,,,,,,,,,,,,,,,,,,,,,,,,,,,,,,,,,,,,,,,,,,,,,,,,,,,,,,,,,,,,
,,6988878f7b811934dbd31f51,2026-03-17_06h31.18.586,kallum_motion_pilot_GIST_update_2,2026.1.1,Win32,59.52380952,6988878f7b811934dbd31f51,69b92ab4aef6dee357cd729a,69b92d1f55b40456ab8a6181,0.0953,0.0953,1,20,182,6,1,fourtwo,,,,,,,,,,,,,,,,,,,,,,,,,,,,,,,,,,,,,,,,,,,,,,,,,,,,,,,,,,,,,,,,,,,,,,,,,,,,,,,,,,,,,,,,,,,,,,,,,,,,,,,,,,,,,,,,,,,,,,,,,,,,,,,,,,,,,,,,,
,,6988878f7b811934dbd31f51,2026-03-17_06h31.18.586,kallum_motion_pilot_GIST_update_2,2026.1.1,Win32,59.52380952,6988878f7b811934dbd31f51,69b92ab4aef6dee357cd729a,69b92d1f55b40456ab8a6181,0.0953,0.0953,1,21,183,88,1,fivesix,,,,,,,,,,,,,,,,,,,,,,,,,,,,,,,,,,,,,,,,,,,,,,,,,,,,,,,,,,,,,,,,,,,,,,,,,,,,,,,,,,,,,,,,,,,,,,,,,,,,,,,,,,,,,,,,,,,,,,,,,,,,,,,,,,,,,,,,,
,,6988878f7b811934dbd31f51,2026-03-17_06h31.18.586,kallum_motion_pilot_GIST_update_2,2026.1.1,Win32,59.52380952,6988878f7b811934dbd31f51,69b92ab4aef6dee357cd729a,69b92d1f55b40456ab8a6181,0.0955,0.0955,1,22,184,107,1,sixeight,,,,,,,,,,,,,,,,,,,,,,,,,,,,,,,,,,,,,,,,,,,,,,,,,,,,,,,,,,,,,,,,,,,,,,,,,,,,,,,,,,,,,,,,,,,,,,,,,,,,,,,,,,,,,,,,,,,,,,,,,,,,,,,,,,,,,,,,,
,,6988878f7b811934dbd31f51,2026-03-17_06h31.18.586,kallum_motion_pilot_GIST_update_2,2026.1.1,Win32,59.52380952,6988878f7b811934dbd31f51,69b92ab4aef6dee357cd729a,69b92d1f55b40456ab8a6181,0.0955,0.0955,1,23,185,71,1,fourthree,,,,,,,,,,,,,,,,,,,,,,,,,,,,,,,,,,,,,,,,,,,,,,,,,,,,,,,,,,,,,,,,,,,,,,,,,,,,,,,,,,,,,,,,,,,,,,,,,,,,,,,,,,,,,,,,,,,,,,,,,,,,,,,,,,,,,,,,,
,,6988878f7b811934dbd31f51,2026-03-17_06h31.18.586,kallum_motion_pilot_GIST_update_2,2026.1.1,Win32,59.52380952,6988878f7b811934dbd31f51,69b92ab4aef6dee357cd729a,69b92d1f55b40456ab8a6181,0.0956,0.0956,1,24,186,47,1,fourthree,,,,,,,,,,,,,,,,,,,,,,,,,,,,,,,,,,,,,,,,,,,,,,,,,,,,,,,,,,,,,,,,,,,,,,,,,,,,,,,,,,,,,,,,,,,,,,,,,,,,,,,,,,,,,,,,,,,,,,,,,,,,,,,,,,,,,,,,,
,,6988878f7b811934dbd31f51,2026-03-17_06h31.18.586,kallum_motion_pilot_GIST_update_2,2026.1.1,Win32,59.52380952,6988878f7b811934dbd31f51,69b92ab4aef6dee357cd729a,69b92d1f55b40456ab8a6181,0.0957,0.0957,1,25,187,161,1,fiveseven,,,,,,,,,,,,,,,,,,,,,,,,,,,,,,,,,,,,,,,,,,,,,,,,,,,,,,,,,,,,,,,,,,,,,,,,,,,,,,,,,,,,,,,,,,,,,,,,,,,,,,,,,,,,,,,,,,,,,,,,,,,,,,,,,,,,,,,,,
,,6988878f7b811934dbd31f51,2026-03-17_06h31.18.586,kallum_motion_pilot_GIST_update_2,2026.1.1,Win32,59.52380952,6988878f7b811934dbd31f51,69b92ab4aef6dee357cd729a,69b92d1f55b40456ab8a6181,0.0958,0.0958,1,26,188,84,1,sevenfive,,,,,,,,,,,,,,,,,,,,,,,,,,,,,,,,,,,,,,,,,,,,,,,,,,,,,,,,,,,,,,,,,,,,,,,,,,,,,,,,,,,,,,,,,,,,,,,,,,,,,,,,,,,,,,,,,,,,,,,,,,,,,,,,,,,,,,,,,
,,6988878f7b811934dbd31f51,2026-03-17_06h31.18.586,kallum_motion_pilot_GIST_update_2,2026.1.1,Win32,59.52380952,6988878f7b811934dbd31f51,69b92ab4aef6dee357cd729a,69b92d1f55b40456ab8a6181,0.0959,0.0959,1,27,189,137,1,fiveseven,,,,,,,,,,,,,,,,,,,,,,,,,,,,,,,,,,,,,,,,,,,,,,,,,,,,,,,,,,,,,,,,,,,,,,,,,,,,,,,,,,,,,,,,,,,,,,,,,,,,,,,,,,,,,,,,,,,,,,,,,,,,,,,,,,,,,,,,,
,,6988878f7b811934dbd31f51,2026-03-17_06h31.18.586,kallum_motion_pilot_GIST_update_2,2026.1.1,Win32,59.52380952,6988878f7b811934dbd31f51,69b92ab4aef6dee357cd729a,69b92d1f55b40456ab8a6181,0.096,0.096,1,28,190,72,1,onetwo,,,,,,,,,,,,,,,,,,,,,,,,,,,,,,,,,,,,,,,,,,,,,,,,,,,,,,,,,,,,,,,,,,,,,,,,,,,,,,,,,,,,,,,,,,,,,,,,,,,,,,,,,,,,,,,,,,,,,,,,,,,,,,,,,,,,,,,,,
,,6988878f7b811934dbd31f51,2026-03-17_06h31.18.586,kallum_motion_pilot_GIST_update_2,2026.1.1,Win32,59.52380952,6988878f7b811934dbd31f51,69b92ab4aef6dee357cd729a,69b92d1f55b40456ab8a6181,0.096,0.096,1,29,191,70,1,fourtwo,,,,,,,,,,,,,,,,,,,,,,,,,,,,,,,,,,,,,,,,,,,,,,,,,,,,,,,,,,,,,,,,,,,,,,,,,,,,,,,,,,,,,,,,,,,,,,,,,,,,,,,,,,,,,,,,,,,,,,,,,,,,,,,,,,,,,,,,,
,,6988878f7b811934dbd31f51,2026-03-17_06h31.18.586,kallum_motion_pilot_GIST_update_2,2026.1.1,Win32,59.52380952,6988878f7b811934dbd31f51,69b92ab4aef6dee357cd729a,69b92d1f55b40456ab8a6181,0.0961,0.0961,1,30,192,73,1,onethree,,,,,,,,,,,,,,,,,,,,,,,,,,,,,,,,,,,,,,,,,,,,,,,,,,,,,,,,,,,,,,,,,,,,,,,,,,,,,,,,,,,,,,,,,,,,,,,,,,,,,,,,,,,,,,,,,,,,,,,,,,,,,,,,,,,,,,,,,
,,6988878f7b811934dbd31f51,2026-03-17_06h31.18.586,kallum_motion_pilot_GIST_update_2,2026.1.1,Win32,59.52380952,6988878f7b811934dbd31f51,69b92ab4aef6dee357cd729a,69b92d1f55b40456ab8a6181,0.0962,0.0962,1,31,193,94,1,eightsix,,,,,,,,,,,,,,,,,,,,,,,,,,,,,,,,,,,,,,,,,,,,,,,,,,,,,,,,,,,,,,,,,,,,,,,,,,,,,,,,,,,,,,,,,,,,,,,,,,,,,,,,,,,,,,,,,,,,,,,,,,,,,,,,,,,,,,,,,
,,6988878f7b811934dbd31f51,2026-03-17_06h31.18.586,kallum_motion_pilot_GIST_update_2,2026.1.1,Win32,59.52380952,6988878f7b811934dbd31f51,69b92ab4aef6dee357cd729a,69b92d1f55b40456ab8a6181,0.0964,0.0964,1,32,194,17,1,onethree,,,,,,,,,,,,,,,,,,,,,,,,,,,,,,,,,,,,,,,,,,,,,,,,,,,,,,,,,,,,,,,,,,,,,,,,,,,,,,,,,,,,,,,,,,,,,,,,,,,,,,,,,,,,,,,,,,,,,,,,,,,,,,,,,,,,,,,,,
,,6988878f7b811934dbd31f51,2026-03-17_06h31.18.586,kallum_motion_pilot_GIST_update_2,2026.1.1,Win32,59.52380952,6988878f7b811934dbd31f51,69b92ab4aef6dee357cd729a,69b92d1f55b40456ab8a6181,0.0964,0.0964,1,33,195,26,1,twoone,,,,,,,,,,,,,,,,,,,,,,,,,,,,,,,,,,,,,,,,,,,,,,,,,,,,,,,,,,,,,,,,,,,,,,,,,,,,,,,,,,,,,,,,,,,,,,,,,,,,,,,,,,,,,,,,,,,,,,,,,,,,,,,,,,,,,,,,,
,,6988878f7b811934dbd31f51,2026-03-17_06h31.18.586,kallum_motion_pilot_GIST_update_2,2026.1.1,Win32,59.52380952,6988878f7b811934dbd31f51,69b92ab4aef6dee357cd729a,69b92d1f55b40456ab8a6181,0.0965,0.0965,1,34,196,159,1,eightseven,,,,,,,,,,,,,,,,,,,,,,,,,,,,,,,,,,,,,,,,,,,,,,,,,,,,,,,,,,,,,,,,,,,,,,,,,,,,,,,,,,,,,,,,,,,,,,,,,,,,,,,,,,,,,,,,,,,,,,,,,,,,,,,,,,,,,,,,,
,,6988878f7b811934dbd31f51,2026-03-17_06h31.18.586,kallum_motion_pilot_GIST_update_2,2026.1.1,Win32,59.52380952,6988878f7b811934dbd31f51,69b92ab4aef6dee357cd729a,69b92d1f55b40456ab8a6181,0.0966,0.0966,1,35,197,28,1,threeone,,,,,,,,,,,,,,,,,,,,,,,,,,,,,,,,,,,,,,,,,,,,,,,,,,,,,,,,,,,,,,,,,,,,,,,,,,,,,,,,,,,,,,,,,,,,,,,,,,,,,,,,,,,,,,,,,,,,,,,,,,,,,,,,,,,,,,,,,
,,6988878f7b811934dbd31f51,2026-03-17_06h31.18.586,kallum_motion_pilot_GIST_update_2,2026.1.1,Win32,59.52380952,6988878f7b811934dbd31f51,69b92ab4aef6dee357cd729a,69b92d1f55b40456ab8a6181,0.0967,0.0967,1,36,198,119,1,eightseven,,,,,,,,,,,,,,,,,,,,,,,,,,,,,,,,,,,,,,,,,,,,,,,,,,,,,,,,,,,,,,,,,,,,,,,,,,,,,,,,,,,,,,,,,,,,,,,,,,,,,,,,,,,,,,,,,,,,,,,,,,,,,,,,,,,,,,,,,
,,6988878f7b811934dbd31f51,2026-03-17_06h31.18.586,kallum_motion_pilot_GIST_update_2,2026.1.1,Win32,59.52380952,6988878f7b811934dbd31f51,69b92ab4aef6dee357cd729a,69b92d1f55b40456ab8a6181,0.0968,0.0968,1,37,199,124,1,sevenfive,,,,,,,,,,,,,,,,,,,,,,,,,,,,,,,,,,,,,,,,,,,,,,,,,,,,,,,,,,,,,,,,,,,,,,,,,,,,,,,,,,,,,,,,,,,,,,,,,,,,,,,,,,,,,,,,,,,,,,,,,,,,,,,,,,,,,,,,,
,,6988878f7b811934dbd31f51,2026-03-17_06h31.18.586,kallum_motion_pilot_GIST_update_2,2026.1.1,Win32,59.52380952,6988878f7b811934dbd31f51,69b92ab4aef6dee357cd729a,69b92d1f55b40456ab8a6181,0.0969,0.0969,1,38,200,44,1,threeone,,,,,,,,,,,,,,,,,,,,,,,,,,,,,,,,,,,,,,,,,,,,,,,,,,,,,,,,,,,,,,,,,,,,,,,,,,,,,,,,,,,,,,,,,,,,,,,,,,,,,,,,,,,,,,,,,,,,,,,,,,,,,,,,,,,,,,,,,
,,6988878f7b811934dbd31f51,2026-03-17_06h31.18.586,kallum_motion_pilot_GIST_update_2,2026.1.1,Win32,59.52380952,6988878f7b811934dbd31f51,69b92ab4aef6dee357cd729a,69b92d1f55b40456ab8a6181,0.097,0.097,1,39,201,38,1,fourtwo,,,,,,,,,,,,,,,,,,,,,,,,,,,,,,,,,,,,,,,,,,,,,,,,,,,,,,,,,,,,,,,,,,,,,,,,,,,,,,,,,,,,,,,,,,,,,,,,,,,,,,,,,,,,,,,,,,,,,,,,,,,,,,,,,,,,,,,,,
,,6988878f7b811934dbd31f51,2026-03-17_06h31.18.586,kallum_motion_pilot_GIST_update_2,2026.1.1,Win32,59.52380952,6988878f7b811934dbd31f51,69b92ab4aef6dee357cd729a,69b92d1f55b40456ab8a6181,0.0971,0.0971,1,40,202,99,1,sixeight,,,,,,,,,,,,,,,,,,,,,,,,,,,,,,,,,,,,,,,,,,,,,,,,,,,,,,,,,,,,,,,,,,,,,,,,,,,,,,,,,,,,,,,,,,,,,,,,,,,,,,,,,,,,,,,,,,,,,,,,,,,,,,,,,,,,,,,,,
,,6988878f7b811934dbd31f51,2026-03-17_06h31.18.586,kallum_motion_pilot_GIST_update_2,2026.1.1,Win32,59.52380952,6988878f7b811934dbd31f51,69b92ab4aef6dee357cd729a,69b92d1f55b40456ab8a6181,0.0972,0.0972,1,41,203,157,1,seveneight,,,,,,,,,,,,,,,,,,,,,,,,,,,,,,,,,,,,,,,,,,,,,,,,,,,,,,,,,,,,,,,,,,,,,,,,,,,,,,,,,,,,,,,,,,,,,,,,,,,,,,,,,,,,,,,,,,,,,,,,,,,,,,,,,,,,,,,,,
,,6988878f7b811934dbd31f51,2026-03-17_06h31.18.586,kallum_motion_pilot_GIST_update_2,2026.1.1,Win32,59.52380952,6988878f7b811934dbd31f51,69b92ab4aef6dee357cd729a,69b92d1f55b40456ab8a6181,0.0972,0.0972,1,42,204,49,1,onethree,,,,,,,,,,,,,,,,,,,,,,,,,,,,,,,,,,,,,,,,,,,,,,,,,,,,,,,,,,,,,,,,,,,,,,,,,,,,,,,,,,,,,,,,,,,,,,,,,,,,,,,,,,,,,,,,,,,,,,,,,,,,,,,,,,,,,,,,,
,,6988878f7b811934dbd31f51,2026-03-17_06h31.18.586,kallum_motion_pilot_GIST_update_2,2026.1.1,Win32,59.52380952,6988878f7b811934dbd31f51,69b92ab4aef6dee357cd729a,69b92d1f55b40456ab8a6181,0.0974,0.0974,1,43,205,121,1,fiveseven,,,,,,,,,,,,,,,,,,,,,,,,,,,,,,,,,,,,,,,,,,,,,,,,,,,,,,,,,,,,,,,,,,,,,,,,,,,,,,,,,,,,,,,,,,,,,,,,,,,,,,,,,,,,,,,,,,,,,,,,,,,,,,,,,,,,,,,,,
,,6988878f7b811934dbd31f51,2026-03-17_06h31.18.586,kallum_motion_pilot_GIST_update_2,2026.1.1,Win32,59.52380952,6988878f7b811934dbd31f51,69b92ab4aef6dee357cd729a,69b92d1f55b40456ab8a6181,0.0975,0.0975,1,44,206,62,1,fourtwo,,,,,,,,,,,,,,,,,,,,,,,,,,,,,,,,,,,,,,,,,,,,,,,,,,,,,,,,,,,,,,,,,,,,,,,,,,,,,,,,,,,,,,,,,,,,,,,,,,,,,,,,,,,,,,,,,,,,,,,,,,,,,,,,,,,,,,,,,
,,6988878f7b811934dbd31f51,2026-03-17_06h31.18.586,kallum_motion_pilot_GIST_update_2,2026.1.1,Win32,59.52380952,6988878f7b811934dbd31f51,69b92ab4aef6dee357cd729a,69b92d1f55b40456ab8a6181,0.0976,0.0976,1,45,207,156,1,sevenfive,,,,,,,,,,,,,,,,,,,,,,,,,,,,,,,,,,,,,,,,,,,,,,,,,,,,,,,,,,,,,,,,,,,,,,,,,,,,,,,,,,,,,,,,,,,,,,,,,,,,,,,,,,,,,,,,,,,,,,,,,,,,,,,,,,,,,,,,,
,,6988878f7b811934dbd31f51,2026-03-17_06h31.18.586,kallum_motion_pilot_GIST_update_2,2026.1.1,Win32,59.52380952,6988878f7b811934dbd31f51,69b92ab4aef6dee357cd729a,69b92d1f55b40456ab8a6181,0.0976,0.0976,1,46,208,0,1,onetwo,,,,,,,,,,,,,,,,,,,,,,,,,,,,,,,,,,,,,,,,,,,,,,,,,,,,,,,,,,,,,,,,,,,,,,,,,,,,,,,,,,,,,,,,,,,,,,,,,,,,,,,,,,,,,,,,,,,,,,,,,,,,,,,,,,,,,,,,,
,,6988878f7b811934dbd31f51,2026-03-17_06h31.18.586,kallum_motion_pilot_GIST_update_2,2026.1.1,Win32,59.52380952,6988878f7b811934dbd31f51,69b92ab4aef6dee357cd729a,69b92d1f55b40456ab8a6181,0.0977,0.0977,1,47,209,64,1,onetwo,,,,,,,,,,,,,,,,,,,,,,,,,,,,,,,,,,,,,,,,,,,,,,,,,,,,,,,,,,,,,,,,,,,,,,,,,,,,,,,,,,,,,,,,,,,,,,,,,,,,,,,,,,,,,,,,,,,,,,,,,,,,,,,,,,,,,,,,,
,,6988878f7b811934dbd31f51,2026-03-17_06h31.18.586,kallum_motion_pilot_GIST_update_2,2026.1.1,Win32,59.52380952,6988878f7b811934dbd31f51,69b92ab4aef6dee357cd729a,69b92d1f55b40456ab8a6181,0.0979,0.0979,1,48,210,86,1,eightsix,,,,,,,,,,,,,,,,,,,,,,,,,,,,,,,,,,,,,,,,,,,,,,,,,,,,,,,,,,,,,,,,,,,,,,,,,,,,,,,,,,,,,,,,,,,,,,,,,,,,,,,,,,,,,,,,,,,,,,,,,,,,,,,,,,,,,,,,,
,,6988878f7b811934dbd31f51,2026-03-17_06h31.18.586,kallum_motion_pilot_GIST_update_2,2026.1.1,Win32,59.52380952,6988878f7b811934dbd31f51,69b92ab4aef6dee357cd729a,69b92d1f55b40456ab8a6181,0.0979,0.0979,1,49,211,25,1,onethree,,,,,,,,,,,,,,,,,,,,,,,,,,,,,,,,,,,,,,,,,,,,,,,,,,,,,,,,,,,,,,,,,,,,,,,,,,,,,,,,,,,,,,,,,,,,,,,,,,,,,,,,,,,,,,,,,,,,,,,,,,,,,,,,,,,,,,,,,
,,6988878f7b811934dbd31f51,2026-03-17_06h31.18.586,kallum_motion_pilot_GIST_update_2,2026.1.1,Win32,59.52380952,6988878f7b811934dbd31f51,69b92ab4aef6dee357cd729a,69b92d1f55b40456ab8a6181,0.098,0.098,1,50,212,24,1,onetwo,,,,,,,,,,,,,,,,,,,,,,,,,,,,,,,,,,,,,,,,,,,,,,,,,,,,,,,,,,,,,,,,,,,,,,,,,,,,,,,,,,,,,,,,,,,,,,,,,,,,,,,,,,,,,,,,,,,,,,,,,,,,,,,,,,,,,,,,,
,,6988878f7b811934dbd31f51,2026-03-17_06h31.18.586,kallum_motion_pilot_GIST_update_2,2026.1.1,Win32,59.52380952,6988878f7b811934dbd31f51,69b92ab4aef6dee357cd729a,69b92d1f55b40456ab8a6181,0.0981,0.0981,1,51,213,76,1,threeone,,,,,,,,,,,,,,,,,,,,,,,,,,,,,,,,,,,,,,,,,,,,,,,,,,,,,,,,,,,,,,,,,,,,,,,,,,,,,,,,,,,,,,,,,,,,,,,,,,,,,,,,,,,,,,,,,,,,,,,,,,,,,,,,,,,,,,,,,
,,6988878f7b811934dbd31f51,2026-03-17_06h31.18.586,kallum_motion_pilot_GIST_update_2,2026.1.1,Win32,59.52380952,6988878f7b811934dbd31f51,69b92ab4aef6dee357cd729a,69b92d1f55b40456ab8a6181,0.0982,0.0982,1,52,214,93,1,seveneight,,,,,,,,,,,,,,,,,,,,,,,,,,,,,,,,,,,,,,,,,,,,,,,,,,,,,,,,,,,,,,,,,,,,,,,,,,,,,,,,,,,,,,,,,,,,,,,,,,,,,,,,,,,,,,,,,,,,,,,,,,,,,,,,,,,,,,,,,
,,6988878f7b811934dbd31f51,2026-03-17_06h31.18.586,kallum_motion_pilot_GIST_update_2,2026.1.1,Win32,59.52380952,6988878f7b811934dbd31f51,69b92ab4aef6dee357cd729a,69b92d1f55b40456ab8a6181,0.0983,0.0983,1,53,215,114,1,sixfive,,,,,,,,,,,,,,,,,,,,,,,,,,,,,,,,,,,,,,,,,,,,,,,,,,,,,,,,,,,,,,,,,,,,,,,,,,,,,,,,,,,,,,,,,,,,,,,,,,,,,,,,,,,,,,,,,,,,,,,,,,,,,,,,,,,,,,,,,
,,6988878f7b811934dbd31f51,2026-03-17_06h31.18.586,kallum_motion_pilot_GIST_update_2,2026.1.1,Win32,59.52380952,6988878f7b811934dbd31f51,69b92ab4aef6dee357cd729a,69b92d1f55b40456ab8a6181,0.0984,0.0984,1,54,216,91,1,sixeight,,,,,,,,,,,,,,,,,,,,,,,,,,,,,,,,,,,,,,,,,,,,,,,,,,,,,,,,,,,,,,,,,,,,,,,,,,,,,,,,,,,,,,,,,,,,,,,,,,,,,,,,,,,,,,,,,,,,,,,,,,,,,,,,,,,,,,,,,
,,6988878f7b811934dbd31f51,2026-03-17_06h31.18.586,kallum_motion_pilot_GIST_update_2,2026.1.1,Win32,59.52380952,6988878f7b811934dbd31f51,69b92ab4aef6dee357cd729a,69b92d1f55b40456ab8a6181,0.0985,0.0985,1,55,217,23,1,fourthree,,,,,,,,,,,,,,,,,,,,,,,,,,,,,,,,,,,,,,,,,,,,,,,,,,,,,,,,,,,,,,,,,,,,,,,,,,,,,,,,,,,,,,,,,,,,,,,,,,,,,,,,,,,,,,,,,,,,,,,,,,,,,,,,,,,,,,,,,
,,6988878f7b811934dbd31f51,2026-03-17_06h31.18.586,kallum_motion_pilot_GIST_update_2,2026.1.1,Win32,59.52380952,6988878f7b811934dbd31f51,69b92ab4aef6dee357cd729a,69b92d1f55b40456ab8a6181,0.0986,0.0986,1,56,218,11,1,twofour,,,,,,,,,,,,,,,,,,,,,,,,,,,,,,,,,,,,,,,,,,,,,,,,,,,,,,,,,,,,,,,,,,,,,,,,,,,,,,,,,,,,,,,,,,,,,,,,,,,,,,,,,,,,,,,,,,,,,,,,,,,,,,,,,,,,,,,,,
,,6988878f7b811934dbd31f51,2026-03-17_06h31.18.586,kallum_motion_pilot_GIST_update_2,2026.1.1,Win32,59.52380952,6988878f7b811934dbd31f51,69b92ab4aef6dee357cd729a,69b92d1f55b40456ab8a6181,0.0986,0.0987,1,57,219,37,1,threefour,,,,,,,,,,,,,,,,,,,,,,,,,,,,,,,,,,,,,,,,,,,,,,,,,,,,,,,,,,,,,,,,,,,,,,,,,,,,,,,,,,,,,,,,,,,,,,,,,,,,,,,,,,,,,,,,,,,,,,,,,,,,,,,,,,,,,,,,,
,,6988878f7b811934dbd31f51,2026-03-17_06h31.18.586,kallum_motion_pilot_GIST_update_2,2026.1.1,Win32,59.52380952,6988878f7b811934dbd31f51,69b92ab4aef6dee357cd729a,69b92d1f55b40456ab8a6181,0.0987,0.0987,1,58,220,35,1,twofour,,,,,,,,,,,,,,,,,,,,,,,,,,,,,,,,,,,,,,,,,,,,,,,,,,,,,,,,,,,,,,,,,,,,,,,,,,,,,,,,,,,,,,,,,,,,,,,,,,,,,,,,,,,,,,,,,,,,,,,,,,,,,,,,,,,,,,,,,
,,6988878f7b811934dbd31f51,2026-03-17_06h31.18.586,kallum_motion_pilot_GIST_update_2,2026.1.1,Win32,59.52380952,6988878f7b811934dbd31f51,69b92ab4aef6dee357cd729a,69b92d1f55b40456ab8a6181,0.0988,0.0988,1,59,221,143,1,eightseven,,,,,,,,,,,,,,,,,,,,,,,,,,,,,,,,,,,,,,,,,,,,,,,,,,,,,,,,,,,,,,,,,,,,,,,,,,,,,,,,,,,,,,,,,,,,,,,,,,,,,,,,,,,,,,,,,,,,,,,,,,,,,,,,,,,,,,,,,
,,6988878f7b811934dbd31f51,2026-03-17_06h31.18.586,kallum_motion_pilot_GIST_update_2,2026.1.1,Win32,59.52380952,6988878f7b811934dbd31f51,69b92ab4aef6dee357cd729a,69b92d1f55b40456ab8a6181,0.0989,0.0989,1,60,222,22,1,fourtwo,,,,,,,,,,,,,,,,,,,,,,,,,,,,,,,,,,,,,,,,,,,,,,,,,,,,,,,,,,,,,,,,,,,,,,,,,,,,,,,,,,,,,,,,,,,,,,,,,,,,,,,,,,,,,,,,,,,,,,,,,,,,,,,,,,,,,,,,,
,,6988878f7b811934dbd31f51,2026-03-17_06h31.18.586,kallum_motion_pilot_GIST_update_2,2026.1.1,Win32,59.52380952,6988878f7b811934dbd31f51,69b92ab4aef6dee357cd729a,69b92d1f55b40456ab8a6181,0.099,0.099,1,61,223,120,1,fivesix,,,,,,,,,,,,,,,,,,,,,,,,,,,,,,,,,,,,,,,,,,,,,,,,,,,,,,,,,,,,,,,,,,,,,,,,,,,,,,,,,,,,,,,,,,,,,,,,,,,,,,,,,,,,,,,,,,,,,,,,,,,,,,,,,,,,,,,,,
,,6988878f7b811934dbd31f51,2026-03-17_06h31.18.586,kallum_motion_pilot_GIST_update_2,2026.1.1,Win32,59.52380952,6988878f7b811934dbd31f51,69b92ab4aef6dee357cd729a,69b92d1f55b40456ab8a6181,0.0991,0.0991,1,62,224,48,1,onetwo,,,,,,,,,,,,,,,,,,,,,,,,,,,,,,,,,,,,,,,,,,,,,,,,,,,,,,,,,,,,,,,,,,,,,,,,,,,,,,,,,,,,,,,,,,,,,,,,,,,,,,,,,,,,,,,,,,,,,,,,,,,,,,,,,,,,,,,,,
,,6988878f7b811934dbd31f51,2026-03-17_06h31.18.586,kallum_motion_pilot_GIST_update_2,2026.1.1,Win32,59.52380952,6988878f7b811934dbd31f51,69b92ab4aef6dee357cd729a,69b92d1f55b40456ab8a6181,0.0992,0.0992,1,63,225,81,1,fiveseven,,,,,,,,,,,,,,,,,,,,,,,,,,,,,,,,,,,,,,,,,,,,,,,,,,,,,,,,,,,,,,,,,,,,,,,,,,,,,,,,,,,,,,,,,,,,,,,,,,,,,,,,,,,,,,,,,,,,,,,,,,,,,,,,,,,,,,,,,
,,6988878f7b811934dbd31f51,2026-03-17_06h31.18.586,kallum_motion_pilot_GIST_update_2,2026.1.1,Win32,59.52380952,6988878f7b811934dbd31f51,69b92ab4aef6dee357cd729a,69b92d1f55b40456ab8a6181,0.0993,0.0993,1,64,226,57,1,onethree,,,,,,,,,,,,,,,,,,,,,,,,,,,,,,,,,,,,,,,,,,,,,,,,,,,,,,,,,,,,,,,,,,,,,,,,,,,,,,,,,,,,,,,,,,,,,,,,,,,,,,,,,,,,,,,,,,,,,,,,,,,,,,,,,,,,,,,,,
,,6988878f7b811934dbd31f51,2026-03-17_06h31.18.586,kallum_motion_pilot_GIST_update_2,2026.1.1,Win32,59.52380952,6988878f7b811934dbd31f51,69b92ab4aef6dee357cd729a,69b92d1f55b40456ab8a6181,0.0994,0.0994,1,65,227,153,1,fiveseven,,,,,,,,,,,,,,,,,,,,,,,,,,,,,,,,,,,,,,,,,,,,,,,,,,,,,,,,,,,,,,,,,,,,,,,,,,,,,,,,,,,,,,,,,,,,,,,,,,,,,,,,,,,,,,,,,,,,,,,,,,,,,,,,,,,,,,,,,
,,6988878f7b811934dbd31f51,2026-03-17_06h31.18.586,kallum_motion_pilot_GIST_update_2,2026.1.1,Win32,59.52380952,6988878f7b811934dbd31f51,69b92ab4aef6dee357cd729a,69b92d1f55b40456ab8a6181,0.0994,0.0994,1,66,228,63,1,fourthree,,,,,,,,,,,,,,,,,,,,,,,,,,,,,,,,,,,,,,,,,,,,,,,,,,,,,,,,,,,,,,,,,,,,,,,,,,,,,,,,,,,,,,,,,,,,,,,,,,,,,,,,,,,,,,,,,,,,,,,,,,,,,,,,,,,,,,,,,
,,6988878f7b811934dbd31f51,2026-03-17_06h31.18.586,kallum_motion_pilot_GIST_update_2,2026.1.1,Win32,59.52380952,6988878f7b811934dbd31f51,69b92ab4aef6dee357cd729a,69b92d1f55b40456ab8a6181,0.0996,0.0996,1,67,229,20,1,threeone,,,,,,,,,,,,,,,,,,,,,,,,,,,,,,,,,,,,,,,,,,,,,,,,,,,,,,,,,,,,,,,,,,,,,,,,,,,,,,,,,,,,,,,,,,,,,,,,,,,,,,,,,,,,,,,,,,,,,,,,,,,,,,,,,,,,,,,,,
,,6988878f7b811934dbd31f51,2026-03-17_06h31.18.586,kallum_motion_pilot_GIST_update_2,2026.1.1,Win32,59.52380952,6988878f7b811934dbd31f51,69b92ab4aef6dee357cd729a,69b92d1f55b40456ab8a6181,0.0997,0.0997,1,68,230,5,1,threefour,,,,,,,,,,,,,,,,,,,,,,,,,,,,,,,,,,,,,,,,,,,,,,,,,,,,,,,,,,,,,,,,,,,,,,,,,,,,,,,,,,,,,,,,,,,,,,,,,,,,,,,,,,,,,,,,,,,,,,,,,,,,,,,,,,,,,,,,,
,,6988878f7b811934dbd31f51,2026-03-17_06h31.18.586,kallum_motion_pilot_GIST_update_2,2026.1.1,Win32,59.52380952,6988878f7b811934dbd31f51,69b92ab4aef6dee357cd729a,69b92d1f55b40456ab8a6181,0.0998,0.0998,1,69,231,27,1,twofour,,,,,,,,,,,,,,,,,,,,,,,,,,,,,,,,,,,,,,,,,,,,,,,,,,,,,,,,,,,,,,,,,,,,,,,,,,,,,,,,,,,,,,,,,,,,,,,,,,,,,,,,,,,,,,,,,,,,,,,,,,,,,,,,,,,,,,,,,
,,6988878f7b811934dbd31f51,2026-03-17_06h31.18.586,kallum_motion_pilot_GIST_update_2,2026.1.1,Win32,59.52380952,6988878f7b811934dbd31f51,69b92ab4aef6dee357cd729a,69b92d1f55b40456ab8a6181,0.0998,0.0998,1,70,232,126,1,eightsix,,,,,,,,,,,,,,,,,,,,,,,,,,,,,,,,,,,,,,,,,,,,,,,,,,,,,,,,,,,,,,,,,,,,,,,,,,,,,,,,,,,,,,,,,,,,,,,,,,,,,,,,,,,,,,,,,,,,,,,,,,,,,,,,,,,,,,,,,
,,6988878f7b811934dbd31f51,2026-03-17_06h31.18.586,kallum_motion_pilot_GIST_update_2,2026.1.1,Win32,59.52380952,6988878f7b811934dbd31f51,69b92ab4aef6dee357cd729a,69b92d1f55b40456ab8a6181,0.1,0.1,1,71,233,7,1,fourthree,,,,,,,,,,,,,,,,,,,,,,,,,,,,,,,,,,,,,,,,,,,,,,,,,,,,,,,,,,,,,,,,,,,,,,,,,,,,,,,,,,,,,,,,,,,,,,,,,,,,,,,,,,,,,,,,,,,,,,,,,,,,,,,,,,,,,,,,,
,,6988878f7b811934dbd31f51,2026-03-17_06h31.18.586,kallum_motion_pilot_GIST_update_2,2026.1.1,Win32,59.52380952,6988878f7b811934dbd31f51,69b92ab4aef6dee357cd729a,69b92d1f55b40456ab8a6181,0.1,0.1,1,72,234,96,1,fivesix,,,,,,,,,,,,,,,,,,,,,,,,,,,,,,,,,,,,,,,,,,,,,,,,,,,,,,,,,,,,,,,,,,,,,,,,,,,,,,,,,,,,,,,,,,,,,,,,,,,,,,,,,,,,,,,,,,,,,,,,,,,,,,,,,,,,,,,,,
,,6988878f7b811934dbd31f51,2026-03-17_06h31.18.586,kallum_motion_pilot_GIST_update_2,2026.1.1,Win32,59.52380952,6988878f7b811934dbd31f51,69b92ab4aef6dee357cd729a,69b92d1f55b40456ab8a6181,0.1001,0.1001,1,73,235,68,1,threeone,,,,,,,,,,,,,,,,,,,,,,,,,,,,,,,,,,,,,,,,,,,,,,,,,,,,,,,,,,,,,,,,,,,,,,,,,,,,,,,,,,,,,,,,,,,,,,,,,,,,,,,,,,,,,,,,,,,,,,,,,,,,,,,,,,,,,,,,,
,,6988878f7b811934dbd31f51,2026-03-17_06h31.18.586,kallum_motion_pilot_GIST_update_2,2026.1.1,Win32,59.52380952,6988878f7b811934dbd31f51,69b92ab4aef6dee357cd729a,69b92d1f55b40456ab8a6181,0.1002,0.1002,1,74,236,42,1,twoone,,,,,,,,,,,,,,,,,,,,,,,,,,,,,,,,,,,,,,,,,,,,,,,,,,,,,,,,,,,,,,,,,,,,,,,,,,,,,,,,,,,,,,,,,,,,,,,,,,,,,,,,,,,,,,,,,,,,,,,,,,,,,,,,,,,,,,,,,
,,6988878f7b811934dbd31f51,2026-03-17_06h31.18.586,kallum_motion_pilot_GIST_update_2,2026.1.1,Win32,59.52380952,6988878f7b811934dbd31f51,69b92ab4aef6dee357cd729a,69b92d1f55b40456ab8a6181,0.1003,0.1003,1,75,237,34,1,twoone,,,,,,,,,,,,,,,,,,,,,,,,,,,,,,,,,,,,,,,,,,,,,,,,,,,,,,,,,,,,,,,,,,,,,,,,,,,,,,,,,,,,,,,,,,,,,,,,,,,,,,,,,,,,,,,,,,,,,,,,,,,,,,,,,,,,,,,,,
,,6988878f7b811934dbd31f51,2026-03-17_06h31.18.586,kallum_motion_pilot_GIST_update_2,2026.1.1,Win32,59.52380952,6988878f7b811934dbd31f51,69b92ab4aef6dee357cd729a,69b92d1f55b40456ab8a6181,0.1004,0.1004,1,76,238,83,1,sixeight,,,,,,,,,,,,,,,,,,,,,,,,,,,,,,,,,,,,,,,,,,,,,,,,,,,,,,,,,,,,,,,,,,,,,,,,,,,,,,,,,,,,,,,,,,,,,,,,,,,,,,,,,,,,,,,,,,,,,,,,,,,,,,,,,,,,,,,,,
,,6988878f7b811934dbd31f51,2026-03-17_06h31.18.586,kallum_motion_pilot_GIST_update_2,2026.1.1,Win32,59.52380952,6988878f7b811934dbd31f51,69b92ab4aef6dee357cd729a,69b92d1f55b40456ab8a6181,0.1005,0.1005,1,77,239,130,1,sixfive,,,,,,,,,,,,,,,,,,,,,,,,,,,,,,,,,,,,,,,,,,,,,,,,,,,,,,,,,,,,,,,,,,,,,,,,,,,,,,,,,,,,,,,,,,,,,,,,,,,,,,,,,,,,,,,,,,,,,,,,,,,,,,,,,,,,,,,,,
,,6988878f7b811934dbd31f51,2026-03-17_06h31.18.586,kallum_motion_pilot_GIST_update_2,2026.1.1,Win32,59.52380952,6988878f7b811934dbd31f51,69b92ab4aef6dee357cd729a,69b92d1f55b40456ab8a6181,0.1006,0.1006,1,78,240,75,1,twofour,,,,,,,,,,,,,,,,,,,,,,,,,,,,,,,,,,,,,,,,,,,,,,,,,,,,,,,,,,,,,,,,,,,,,,,,,,,,,,,,,,,,,,,,,,,,,,,,,,,,,,,,,,,,,,,,,,,,,,,,,,,,,,,,,,,,,,,,,
,,6988878f7b811934dbd31f51,2026-03-17_06h31.18.586,kallum_motion_pilot_GIST_update_2,2026.1.1,Win32,59.52380952,6988878f7b811934dbd31f51,69b92ab4aef6dee357cd729a,69b92d1f55b40456ab8a6181,0.1007,0.1007,1,79,241,1,1,onethree,,,,,,,,,,,,,,,,,,,,,,,,,,,,,,,,,,,,,,,,,,,,,,,,,,,,,,,,,,,,,,,,,,,,,,,,,,,,,,,,,,,,,,,,,,,,,,,,,,,,,,,,,,,,,,,,,,,,,,,,,,,,,,,,,,,,,,,,,
,,6988878f7b811934dbd31f51,2026-03-17_06h31.18.586,kallum_motion_pilot_GIST_update_2,2026.1.1,Win32,59.52380952,6988878f7b811934dbd31f51,69b92ab4aef6dee357cd729a,69b92d1f55b40456ab8a6181,0.1008,0.1008,1,80,242,82,1,sixfive,,,,,,,,,,,,,,,,,,,,,,,,,,,,,,,,,,,,,,,,,,,,,,,,,,,,,,,,,,,,,,,,,,,,,,,,,,,,,,,,,,,,,,,,,,,,,,,,,,,,,,,,,,,,,,,,,,,,,,,,,,,,,,,,,,,,,,,,,
,,6988878f7b811934dbd31f51,2026-03-17_06h31.18.586,kallum_motion_pilot_GIST_update_2,2026.1.1,Win32,59.52380952,6988878f7b811934dbd31f51,69b92ab4aef6dee357cd729a,69b92d1f55b40456ab8a6181,0.1009,0.1009,1,81,243,115,1,sixeight,,,,,,,,,,,,,,,,,,,,,,,,,,,,,,,,,,,,,,,,,,,,,,,,,,,,,,,,,,,,,,,,,,,,,,,,,,,,,,,,,,,,,,,,,,,,,,,,,,,,,,,,,,,,,,,,,,,,,,,,,,,,,,,,,,,,,,,,,
,,6988878f7b811934dbd31f51,2026-03-17_06h31.18.586,kallum_motion_pilot_GIST_update_2,2026.1.1,Win32,59.52380952,6988878f7b811934dbd31f51,69b92ab4aef6dee357cd729a,69b92d1f55b40456ab8a6181,0.101,0.101,1,82,244,66,1,twoone,,,,,,,,,,,,,,,,,,,,,,,,,,,,,,,,,,,,,,,,,,,,,,,,,,,,,,,,,,,,,,,,,,,,,,,,,,,,,,,,,,,,,,,,,,,,,,,,,,,,,,,,,,,,,,,,,,,,,,,,,,,,,,,,,,,,,,,,,
,,6988878f7b811934dbd31f51,2026-03-17_06h31.18.586,kallum_motion_pilot_GIST_update_2,2026.1.1,Win32,59.52380952,6988878f7b811934dbd31f51,69b92ab4aef6dee357cd729a,69b92d1f55b40456ab8a6181,0.1011,0.1011,1,83,245,59,1,twofour,,,,,,,,,,,,,,,,,,,,,,,,,,,,,,,,,,,,,,,,,,,,,,,,,,,,,,,,,,,,,,,,,,,,,,,,,,,,,,,,,,,,,,,,,,,,,,,,,,,,,,,,,,,,,,,,,,,,,,,,,,,,,,,,,,,,,,,,,
,,6988878f7b811934dbd31f51,2026-03-17_06h31.18.586,kallum_motion_pilot_GIST_update_2,2026.1.1,Win32,59.52380952,6988878f7b811934dbd31f51,69b92ab4aef6dee357cd729a,69b92d1f55b40456ab8a6181,0.1011,0.1011,1,84,246,106,1,sixfive,,,,,,,,,,,,,,,,,,,,,,,,,,,,,,,,,,,,,,,,,,,,,,,,,,,,,,,,,,,,,,,,,,,,,,,,,,,,,,,,,,,,,,,,,,,,,,,,,,,,,,,,,,,,,,,,,,,,,,,,,,,,,,,,,,,,,,,,,
,,6988878f7b811934dbd31f51,2026-03-17_06h31.18.586,kallum_motion_pilot_GIST_update_2,2026.1.1,Win32,59.52380952,6988878f7b811934dbd31f51,69b92ab4aef6dee357cd729a,69b92d1f55b40456ab8a6181,0.1012,0.1012,1,85,247,141,1,seveneight,,,,,,,,,,,,,,,,,,,,,,,,,,,,,,,,,,,,,,,,,,,,,,,,,,,,,,,,,,,,,,,,,,,,,,,,,,,,,,,,,,,,,,,,,,,,,,,,,,,,,,,,,,,,,,,,,,,,,,,,,,,,,,,,,,,,,,,,,
,,6988878f7b811934dbd31f51,2026-03-17_06h31.18.586,kallum_motion_pilot_GIST_update_2,2026.1.1,Win32,59.52380952,6988878f7b811934dbd31f51,69b92ab4aef6dee357cd729a,69b92d1f55b40456ab8a6181,0.1013,0.1013,1,86,248,127,1,eightseven,,,,,,,,,,,,,,,,,,,,,,,,,,,,,,,,,,,,,,,,,,,,,,,,,,,,,,,,,,,,,,,,,,,,,,,,,,,,,,,,,,,,,,,,,,,,,,,,,,,,,,,,,,,,,,,,,,,,,,,,,,,,,,,,,,,,,,,,,
,,6988878f7b811934dbd31f51,2026-03-17_06h31.18.586,kallum_motion_pilot_GIST_update_2,2026.1.1,Win32,59.52380952,6988878f7b811934dbd31f51,69b92ab4aef6dee357cd729a,69b92d1f55b40456ab8a6181,0.1014,0.1014,1,87,249,19,1,twofour,,,,,,,,,,,,,,,,,,,,,,,,,,,,,,,,,,,,,,,,,,,,,,,,,,,,,,,,,,,,,,,,,,,,,,,,,,,,,,,,,,,,,,,,,,,,,,,,,,,,,,,,,,,,,,,,,,,,,,,,,,,,,,,,,,,,,,,,,
,,6988878f7b811934dbd31f51,2026-03-17_06h31.18.586,kallum_motion_pilot_GIST_update_2,2026.1.1,Win32,59.52380952,6988878f7b811934dbd31f51,69b92ab4aef6dee357cd729a,69b92d1f55b40456ab8a6181,0.1015,0.1015,1,88,250,30,1,fourtwo,,,,,,,,,,,,,,,,,,,,,,,,,,,,,,,,,,,,,,,,,,,,,,,,,,,,,,,,,,,,,,,,,,,,,,,,,,,,,,,,,,,,,,,,,,,,,,,,,,,,,,,,,,,,,,,,,,,,,,,,,,,,,,,,,,,,,,,,,
,,6988878f7b811934dbd31f51,2026-03-17_06h31.18.586,kallum_motion_pilot_GIST_update_2,2026.1.1,Win32,59.52380952,6988878f7b811934dbd31f51,69b92ab4aef6dee357cd729a,69b92d1f55b40456ab8a6181,0.1016,0.1016,1,89,251,113,1,fiveseven,,,,,,,,,,,,,,,,,,,,,,,,,,,,,,,,,,,,,,,,,,,,,,,,,,,,,,,,,,,,,,,,,,,,,,,,,,,,,,,,,,,,,,,,,,,,,,,,,,,,,,,,,,,,,,,,,,,,,,,,,,,,,,,,,,,,,,,,,
,,6988878f7b811934dbd31f51,2026-03-17_06h31.18.586,kallum_motion_pilot_GIST_update_2,2026.1.1,Win32,59.52380952,6988878f7b811934dbd31f51,69b92ab4aef6dee357cd729a,69b92d1f55b40456ab8a6181,0.1017,0.1017,1,90,252,8,1,onetwo,,,,,,,,,,,,,,,,,,,,,,,,,,,,,,,,,,,,,,,,,,,,,,,,,,,,,,,,,,,,,,,,,,,,,,,,,,,,,,,,,,,,,,,,,,,,,,,,,,,,,,,,,,,,,,,,,,,,,,,,,,,,,,,,,,,,,,,,,
,,6988878f7b811934dbd31f51,2026-03-17_06h31.18.586,kallum_motion_pilot_GIST_update_2,2026.1.1,Win32,59.52380952,6988878f7b811934dbd31f51,69b92ab4aef6dee357cd729a,69b92d1f55b40456ab8a6181,0.1018,0.1018,1,91,253,147,1,sixeight,,,,,,,,,,,,,,,,,,,,,,,,,,,,,,,,,,,,,,,,,,,,,,,,,,,,,,,,,,,,,,,,,,,,,,,,,,,,,,,,,,,,,,,,,,,,,,,,,,,,,,,,,,,,,,,,,,,,,,,,,,,,,,,,,,,,,,,,,
,,6988878f7b811934dbd31f51,2026-03-17_06h31.18.586,kallum_motion_pilot_GIST_update_2,2026.1.1,Win32,59.52380952,6988878f7b811934dbd31f51,69b92ab4aef6dee357cd729a,69b92d1f55b40456ab8a6181,0.1019,0.1019,1,92,254,139,1,sixeight,,,,,,,,,,,,,,,,,,,,,,,,,,,,,,,,,,,,,,,,,,,,,,,,,,,,,,,,,,,,,,,,,,,,,,,,,,,,,,,,,,,,,,,,,,,,,,,,,,,,,,,,,,,,,,,,,,,,,,,,,,,,,,,,,,,,,,,,,
,,6988878f7b811934dbd31f51,2026-03-17_06h31.18.586,kallum_motion_pilot_GIST_update_2,2026.1.1,Win32,59.52380952,6988878f7b811934dbd31f51,69b92ab4aef6dee357cd729a,69b92d1f55b40456ab8a6181,0.102,0.102,1,93,255,29,1,threefour,,,,,,,,,,,,,,,,,,,,,,,,,,,,,,,,,,,,,,,,,,,,,,,,,,,,,,,,,,,,,,,,,,,,,,,,,,,,,,,,,,,,,,,,,,,,,,,,,,,,,,,,,,,,,,,,,,,,,,,,,,,,,,,,,,,,,,,,,
,,6988878f7b811934dbd31f51,2026-03-17_06h31.18.586,kallum_motion_pilot_GIST_update_2,2026.1.1,Win32,59.52380952,6988878f7b811934dbd31f51,69b92ab4aef6dee357cd729a,69b92d1f55b40456ab8a6181,0.1021,0.1021,1,94,256,112,1,fivesix,,,,,,,,,,,,,,,,,,,,,,,,,,,,,,,,,,,,,,,,,,,,,,,,,,,,,,,,,,,,,,,,,,,,,,,,,,,,,,,,,,,,,,,,,,,,,,,,,,,,,,,,,,,,,,,,,,,,,,,,,,,,,,,,,,,,,,,,,
,,6988878f7b811934dbd31f51,2026-03-17_06h31.18.586,kallum_motion_pilot_GIST_update_2,2026.1.1,Win32,59.52380952,6988878f7b811934dbd31f51,69b92ab4aef6dee357cd729a,69b92d1f55b40456ab8a6181,0.1022,0.1023,1,95,257,144,1,fivesix,,,,,,,,,,,,,,,,,,,,,,,,,,,,,,,,,,,,,,,,,,,,,,,,,,,,,,,,,,,,,,,,,,,,,,,,,,,,,,,,,,,,,,,,,,,,,,,,,,,,,,,,,,,,,,,,,,,,,,,,,,,,,,,,,,,,,,,,,
,,6988878f7b811934dbd31f51,2026-03-17_06h31.18.586,kallum_motion_pilot_GIST_update_2,2026.1.1,Win32,59.52380952,6988878f7b811934dbd31f51,69b92ab4aef6dee357cd729a,69b92d1f55b40456ab8a6181,0.1023,0.1023,1,96,258,3,1,twofour,,,,,,,,,,,,,,,,,,,,,,,,,,,,,,,,,,,,,,,,,,,,,,,,,,,,,,,,,,,,,,,,,,,,,,,,,,,,,,,,,,,,,,,,,,,,,,,,,,,,,,,,,,,,,,,,,,,,,,,,,,,,,,,,,,,,,,,,,
,,6988878f7b811934dbd31f51,2026-03-17_06h31.18.586,kallum_motion_pilot_GIST_update_2,2026.1.1,Win32,59.52380952,6988878f7b811934dbd31f51,69b92ab4aef6dee357cd729a,69b92d1f55b40456ab8a6181,0.1024,0.1024,1,97,259,21,1,threefour,,,,,,,,,,,,,,,,,,,,,,,,,,,,,,,,,,,,,,,,,,,,,,,,,,,,,,,,,,,,,,,,,,,,,,,,,,,,,,,,,,,,,,,,,,,,,,,,,,,,,,,,,,,,,,,,,,,,,,,,,,,,,,,,,,,,,,,,,
,,6988878f7b811934dbd31f51,2026-03-17_06h31.18.586,kallum_motion_pilot_GIST_update_2,2026.1.1,Win32,59.52380952,6988878f7b811934dbd31f51,69b92ab4aef6dee357cd729a,69b92d1f55b40456ab8a6181,0.1025,0.1025,1,98,260,100,1,sevenfive,,,,,,,,,,,,,,,,,,,,,,,,,,,,,,,,,,,,,,,,,,,,,,,,,,,,,,,,,,,,,,,,,,,,,,,,,,,,,,,,,,,,,,,,,,,,,,,,,,,,,,,,,,,,,,,,,,,,,,,,,,,,,,,,,,,,,,,,,
,,6988878f7b811934dbd31f51,2026-03-17_06h31.18.586,kallum_motion_pilot_GIST_update_2,2026.1.1,Win32,59.52380952,6988878f7b811934dbd31f51,69b92ab4aef6dee357cd729a,69b92d1f55b40456ab8a6181,0.1026,0.1026,1,99,261,58,1,twoone,,,,,,,,,,,,,,,,,,,,,,,,,,,,,,,,,,,,,,,,,,,,,,,,,,,,,,,,,,,,,,,,,,,,,,,,,,,,,,,,,,,,,,,,,,,,,,,,,,,,,,,,,,,,,,,,,,,,,,,,,,,,,,,,,,,,,,,,,
,,6988878f7b811934dbd31f51,2026-03-17_06h31.18.586,kallum_motion_pilot_GIST_update_2,2026.1.1,Win32,59.52380952,6988878f7b811934dbd31f51,69b92ab4aef6dee357cd729a,69b92d1f55b40456ab8a6181,0.1027,0.1027,1,100,262,46,1,fourtwo,,,,,,,,,,,,,,,,,,,,,,,,,,,,,,,,,,,,,,,,,,,,,,,,,,,,,,,,,,,,,,,,,,,,,,,,,,,,,,,,,,,,,,,,,,,,,,,,,,,,,,,,,,,,,,,,,,,,,,,,,,,,,,,,,,,,,,,,,
,,6988878f7b811934dbd31f51,2026-03-17_06h31.18.586,kallum_motion_pilot_GIST_update_2,2026.1.1,Win32,59.52380952,6988878f7b811934dbd31f51,69b92ab4aef6dee357cd729a,69b92d1f55b40456ab8a6181,0.1029,0.1029,1,101,263,14,1,fourtwo,,,,,,,,,,,,,,,,,,,,,,,,,,,,,,,,,,,,,,,,,,,,,,,,,,,,,,,,,,,,,,,,,,,,,,,,,,,,,,,,,,,,,,,,,,,,,,,,,,,,,,,,,,,,,,,,,,,,,,,,,,,,,,,,,,,,,,,,,
,,6988878f7b811934dbd31f51,2026-03-17_06h31.18.586,kallum_motion_pilot_GIST_update_2,2026.1.1,Win32,59.52380952,6988878f7b811934dbd31f51,69b92ab4aef6dee357cd729a,69b92d1f55b40456ab8a6181,0.103,0.103,1,102,264,89,1,fiveseven,,,,,,,,,,,,,,,,,,,,,,,,,,,,,,,,,,,,,,,,,,,,,,,,,,,,,,,,,,,,,,,,,,,,,,,,,,,,,,,,,,,,,,,,,,,,,,,,,,,,,,,,,,,,,,,,,,,,,,,,,,,,,,,,,,,,,,,,,
,,6988878f7b811934dbd31f51,2026-03-17_06h31.18.586,kallum_motion_pilot_GIST_update_2,2026.1.1,Win32,59.52380952,6988878f7b811934dbd31f51,69b92ab4aef6dee357cd729a,69b92d1f55b40456ab8a6181,0.1031,0.1031,1,103,265,98,1,sixfive,,,,,,,,,,,,,,,,,,,,,,,,,,,,,,,,,,,,,,,,,,,,,,,,,,,,,,,,,,,,,,,,,,,,,,,,,,,,,,,,,,,,,,,,,,,,,,,,,,,,,,,,,,,,,,,,,,,,,,,,,,,,,,,,,,,,,,,,,
,,6988878f7b811934dbd31f51,2026-03-17_06h31.18.586,kallum_motion_pilot_GIST_update_2,2026.1.1,Win32,59.52380952,6988878f7b811934dbd31f51,69b92ab4aef6dee357cd729a,69b92d1f55b40456ab8a6181,0.1032,0.1032,1,104,266,74,1,twoone,,,,,,,,,,,,,,,,,,,,,,,,,,,,,,,,,,,,,,,,,,,,,,,,,,,,,,,,,,,,,,,,,,,,,,,,,,,,,,,,,,,,,,,,,,,,,,,,,,,,,,,,,,,,,,,,,,,,,,,,,,,,,,,,,,,,,,,,,
