startup.started,startup.stopped,Prolific ID*,date,expName,psychopyVersion,OS,frameRate,participant,study_id,session,stimpositions.started,stimpositions.stopped,hardcoded_stimulus_positions.thisRepN,hardcoded_stimulus_positions.thisTrialN,hardcoded_stimulus_positions.thisN,hardcoded_stimulus_positions.thisIndex,hardcoded_stimulus_positions.ran,StimulusPos,stimorientation.started,stimorientation.stopped,prac_stimorientation_import_loop.thisRepN,prac_stimorientation_import_loop.thisTrialN,prac_stimorientation_import_loop.thisN,prac_stimorientation_import_loop.thisIndex,prac_stimorientation_import_loop.ran,Stimorientation,welcome_instr.started,welcome_instr.stopped,key_resp.keys,key_resp.rt,key_resp.duration,response_steppedout_1.started,response_steppedout_1.stopped,key_resp_20.keys,key_resp_20.rt,key_resp_20.duration,response_steppedout_2.started,response_steppedout_2.stopped,key_resp_19.keys,key_resp_19.rt,key_resp_19.duration,stim_response_instr.started,stim_response_instr.stopped,key_resp_15.keys,key_resp_15.rt,key_resp_15.duration,direction_instr_2.started,direction_instr_2.stopped,key_resp_9.keys,key_resp_9.rt,key_resp_9.duration,instr_prac.started,instr_prac.stopped,key_resp_10.keys,key_resp_10.rt,key_resp_10.duration,Stim1_display_prac.started,Stim1_display_prac.stopped,Ecc,Circle1_ori,Circle2_ori,response_prac.started,similarity,response_time,response_prac.stopped,mouse_5.x,mouse_5.y,mouse_5.leftButton,mouse_5.midButton,mouse_5.rightButton,mouse_5.clicked_name,responseprac_feedback.started,responseprac_feedback.stopped,summary2_prac.started,summary2_prac.stopped,mouse_6.x,mouse_6.y,mouse_6.leftButton,mouse_6.midButton,mouse_6.rightButton,mouse_6.clicked_name,duringprac.thisRepN,duringprac.thisTrialN,duringprac.thisN,duringprac.thisIndex,duringprac.ran,begin.started,begin.stopped,key_resp_22.keys,key_resp_22.rt,key_resp_22.duration,Stim1_display.started,Stim1_display.stopped,circle1_ori,circle2_ori,circle1_SF,circle2_SF,response.started,response.stopped,mouse.x,mouse.y,mouse.leftButton,mouse.midButton,mouse.rightButton,mouse.clicked_name,trialnumber,double_pass.thisRepN,double_pass.thisTrialN,double_pass.thisN,double_pass.thisIndex,double_pass.ran,double_pass.order,main_trial.thisRepN,main_trial.thisTrialN,main_trial.thisN,main_trial.thisIndex,main_trial.ran,main_trial.order,Trial_Counter,Catch,Frequencies,response_2.started,response_2.stopped,mouse_2.x,mouse_2.y,mouse_2.leftButton,mouse_2.midButton,mouse_2.rightButton,mouse_2.clicked_name,special_trial.started,special_trial.stopped,catch_1.started,catch_1.stopped,mouse_3.x,mouse_3.y,mouse_3.leftButton,mouse_3.midButton,mouse_3.rightButton,catchresponse,catchnumber,response_time_catch,response_sum.started,response_sum.stopped,mouse_11.x,mouse_11.y,mouse_11.leftButton,mouse_11.midButton,mouse_11.rightButton,flip_presentation_sequence_for_double_pass.started,flip_presentation_sequence_for_double_pass.stopped,goodbye.started,goodbye.stopped,key_resp_3.keys,key_resp_3.rt,key_resp_3.duration
0.0002,0.0002,6989df4ce6bf3a2e4b6479e1,2026-03-17_11h28.35.988,kallum_motion_pilot_GIST_update_2,2026.1.1,Win32,140.8450704,6989df4ce6bf3a2e4b6479e1,69b92ab4aef6dee357cd729a,69b92bc43f1a506ba98e781a,,,,,,,,,,,,,,,,,,,,,,,,,,,,,,,,,,,,,,,,,,,,,,,,,,,,,,,,,,,,,,,,,,,,,,,,,,,,,,,,,,,,,,,,,,,,,,,,,,,,,,,,,,,,,,,,,,,,,,,,,,,,,,,,,,,,,,,,,,,,,,,,,
,,6989df4ce6bf3a2e4b6479e1,2026-03-17_11h28.35.988,kallum_motion_pilot_GIST_update_2,2026.1.1,Win32,140.8450704,6989df4ce6bf3a2e4b6479e1,69b92ab4aef6dee357cd729a,69b92bc43f1a506ba98e781a,0.0129,0.0129,0,0,0,145,1,fiveseven,,,,,,,,,,,,,,,,,,,,,,,,,,,,,,,,,,,,,,,,,,,,,,,,,,,,,,,,,,,,,,,,,,,,,,,,,,,,,,,,,,,,,,,,,,,,,,,,,,,,,,,,,,,,,,,,,,,,,,,,,,,,,,,,,,,,,,,,,
,,6989df4ce6bf3a2e4b6479e1,2026-03-17_11h28.35.988,kallum_motion_pilot_GIST_update_2,2026.1.1,Win32,140.8450704,6989df4ce6bf3a2e4b6479e1,69b92ab4aef6dee357cd729a,69b92bc43f1a506ba98e781a,0.0131,0.0132,0,1,1,161,1,fiveseven,,,,,,,,,,,,,,,,,,,,,,,,,,,,,,,,,,,,,,,,,,,,,,,,,,,,,,,,,,,,,,,,,,,,,,,,,,,,,,,,,,,,,,,,,,,,,,,,,,,,,,,,,,,,,,,,,,,,,,,,,,,,,,,,,,,,,,,,,
,,6989df4ce6bf3a2e4b6479e1,2026-03-17_11h28.35.988,kallum_motion_pilot_GIST_update_2,2026.1.1,Win32,140.8450704,6989df4ce6bf3a2e4b6479e1,69b92ab4aef6dee357cd729a,69b92bc43f1a506ba98e781a,0.0132,0.0132,0,2,2,70,1,fourtwo,,,,,,,,,,,,,,,,,,,,,,,,,,,,,,,,,,,,,,,,,,,,,,,,,,,,,,,,,,,,,,,,,,,,,,,,,,,,,,,,,,,,,,,,,,,,,,,,,,,,,,,,,,,,,,,,,,,,,,,,,,,,,,,,,,,,,,,,,
,,6989df4ce6bf3a2e4b6479e1,2026-03-17_11h28.35.988,kallum_motion_pilot_GIST_update_2,2026.1.1,Win32,140.8450704,6989df4ce6bf3a2e4b6479e1,69b92ab4aef6dee357cd729a,69b92bc43f1a506ba98e781a,0.0134,0.0134,0,3,3,160,1,fivesix,,,,,,,,,,,,,,,,,,,,,,,,,,,,,,,,,,,,,,,,,,,,,,,,,,,,,,,,,,,,,,,,,,,,,,,,,,,,,,,,,,,,,,,,,,,,,,,,,,,,,,,,,,,,,,,,,,,,,,,,,,,,,,,,,,,,,,,,,
,,6989df4ce6bf3a2e4b6479e1,2026-03-17_11h28.35.988,kallum_motion_pilot_GIST_update_2,2026.1.1,Win32,140.8450704,6989df4ce6bf3a2e4b6479e1,69b92ab4aef6dee357cd729a,69b92bc43f1a506ba98e781a,0.0135,0.0135,0,4,4,159,1,eightseven,,,,,,,,,,,,,,,,,,,,,,,,,,,,,,,,,,,,,,,,,,,,,,,,,,,,,,,,,,,,,,,,,,,,,,,,,,,,,,,,,,,,,,,,,,,,,,,,,,,,,,,,,,,,,,,,,,,,,,,,,,,,,,,,,,,,,,,,,
,,6989df4ce6bf3a2e4b6479e1,2026-03-17_11h28.35.988,kallum_motion_pilot_GIST_update_2,2026.1.1,Win32,140.8450704,6989df4ce6bf3a2e4b6479e1,69b92ab4aef6dee357cd729a,69b92bc43f1a506ba98e781a,0.0135,0.0136,0,5,5,94,1,eightsix,,,,,,,,,,,,,,,,,,,,,,,,,,,,,,,,,,,,,,,,,,,,,,,,,,,,,,,,,,,,,,,,,,,,,,,,,,,,,,,,,,,,,,,,,,,,,,,,,,,,,,,,,,,,,,,,,,,,,,,,,,,,,,,,,,,,,,,,,
,,6989df4ce6bf3a2e4b6479e1,2026-03-17_11h28.35.988,kallum_motion_pilot_GIST_update_2,2026.1.1,Win32,140.8450704,6989df4ce6bf3a2e4b6479e1,69b92ab4aef6dee357cd729a,69b92bc43f1a506ba98e781a,0.0138,0.0138,0,6,6,47,1,fourthree,,,,,,,,,,,,,,,,,,,,,,,,,,,,,,,,,,,,,,,,,,,,,,,,,,,,,,,,,,,,,,,,,,,,,,,,,,,,,,,,,,,,,,,,,,,,,,,,,,,,,,,,,,,,,,,,,,,,,,,,,,,,,,,,,,,,,,,,,
,,6989df4ce6bf3a2e4b6479e1,2026-03-17_11h28.35.988,kallum_motion_pilot_GIST_update_2,2026.1.1,Win32,140.8450704,6989df4ce6bf3a2e4b6479e1,69b92ab4aef6dee357cd729a,69b92bc43f1a506ba98e781a,0.0139,0.0139,0,7,7,42,1,twoone,,,,,,,,,,,,,,,,,,,,,,,,,,,,,,,,,,,,,,,,,,,,,,,,,,,,,,,,,,,,,,,,,,,,,,,,,,,,,,,,,,,,,,,,,,,,,,,,,,,,,,,,,,,,,,,,,,,,,,,,,,,,,,,,,,,,,,,,,
,,6989df4ce6bf3a2e4b6479e1,2026-03-17_11h28.35.988,kallum_motion_pilot_GIST_update_2,2026.1.1,Win32,140.8450704,6989df4ce6bf3a2e4b6479e1,69b92ab4aef6dee357cd729a,69b92bc43f1a506ba98e781a,0.0139,0.014,0,8,8,133,1,seveneight,,,,,,,,,,,,,,,,,,,,,,,,,,,,,,,,,,,,,,,,,,,,,,,,,,,,,,,,,,,,,,,,,,,,,,,,,,,,,,,,,,,,,,,,,,,,,,,,,,,,,,,,,,,,,,,,,,,,,,,,,,,,,,,,,,,,,,,,,
,,6989df4ce6bf3a2e4b6479e1,2026-03-17_11h28.35.988,kallum_motion_pilot_GIST_update_2,2026.1.1,Win32,140.8450704,6989df4ce6bf3a2e4b6479e1,69b92ab4aef6dee357cd729a,69b92bc43f1a506ba98e781a,0.0141,0.0141,0,9,9,64,1,onetwo,,,,,,,,,,,,,,,,,,,,,,,,,,,,,,,,,,,,,,,,,,,,,,,,,,,,,,,,,,,,,,,,,,,,,,,,,,,,,,,,,,,,,,,,,,,,,,,,,,,,,,,,,,,,,,,,,,,,,,,,,,,,,,,,,,,,,,,,,
,,6989df4ce6bf3a2e4b6479e1,2026-03-17_11h28.35.988,kallum_motion_pilot_GIST_update_2,2026.1.1,Win32,140.8450704,6989df4ce6bf3a2e4b6479e1,69b92ab4aef6dee357cd729a,69b92bc43f1a506ba98e781a,0.0142,0.0142,0,10,10,27,1,twofour,,,,,,,,,,,,,,,,,,,,,,,,,,,,,,,,,,,,,,,,,,,,,,,,,,,,,,,,,,,,,,,,,,,,,,,,,,,,,,,,,,,,,,,,,,,,,,,,,,,,,,,,,,,,,,,,,,,,,,,,,,,,,,,,,,,,,,,,,
,,6989df4ce6bf3a2e4b6479e1,2026-03-17_11h28.35.988,kallum_motion_pilot_GIST_update_2,2026.1.1,Win32,140.8450704,6989df4ce6bf3a2e4b6479e1,69b92ab4aef6dee357cd729a,69b92bc43f1a506ba98e781a,0.0143,0.0143,0,11,11,79,1,eightseven,,,,,,,,,,,,,,,,,,,,,,,,,,,,,,,,,,,,,,,,,,,,,,,,,,,,,,,,,,,,,,,,,,,,,,,,,,,,,,,,,,,,,,,,,,,,,,,,,,,,,,,,,,,,,,,,,,,,,,,,,,,,,,,,,,,,,,,,,
,,6989df4ce6bf3a2e4b6479e1,2026-03-17_11h28.35.988,kallum_motion_pilot_GIST_update_2,2026.1.1,Win32,140.8450704,6989df4ce6bf3a2e4b6479e1,69b92ab4aef6dee357cd729a,69b92bc43f1a506ba98e781a,0.0144,0.0144,0,12,12,48,1,onetwo,,,,,,,,,,,,,,,,,,,,,,,,,,,,,,,,,,,,,,,,,,,,,,,,,,,,,,,,,,,,,,,,,,,,,,,,,,,,,,,,,,,,,,,,,,,,,,,,,,,,,,,,,,,,,,,,,,,,,,,,,,,,,,,,,,,,,,,,,
,,6989df4ce6bf3a2e4b6479e1,2026-03-17_11h28.35.988,kallum_motion_pilot_GIST_update_2,2026.1.1,Win32,140.8450704,6989df4ce6bf3a2e4b6479e1,69b92ab4aef6dee357cd729a,69b92bc43f1a506ba98e781a,0.0145,0.0145,0,13,13,60,1,threeone,,,,,,,,,,,,,,,,,,,,,,,,,,,,,,,,,,,,,,,,,,,,,,,,,,,,,,,,,,,,,,,,,,,,,,,,,,,,,,,,,,,,,,,,,,,,,,,,,,,,,,,,,,,,,,,,,,,,,,,,,,,,,,,,,,,,,,,,,
,,6989df4ce6bf3a2e4b6479e1,2026-03-17_11h28.35.988,kallum_motion_pilot_GIST_update_2,2026.1.1,Win32,140.8450704,6989df4ce6bf3a2e4b6479e1,69b92ab4aef6dee357cd729a,69b92bc43f1a506ba98e781a,0.0145,0.0145,0,14,14,118,1,eightsix,,,,,,,,,,,,,,,,,,,,,,,,,,,,,,,,,,,,,,,,,,,,,,,,,,,,,,,,,,,,,,,,,,,,,,,,,,,,,,,,,,,,,,,,,,,,,,,,,,,,,,,,,,,,,,,,,,,,,,,,,,,,,,,,,,,,,,,,,
,,6989df4ce6bf3a2e4b6479e1,2026-03-17_11h28.35.988,kallum_motion_pilot_GIST_update_2,2026.1.1,Win32,140.8450704,6989df4ce6bf3a2e4b6479e1,69b92ab4aef6dee357cd729a,69b92bc43f1a506ba98e781a,0.0147,0.0147,0,15,15,110,1,eightsix,,,,,,,,,,,,,,,,,,,,,,,,,,,,,,,,,,,,,,,,,,,,,,,,,,,,,,,,,,,,,,,,,,,,,,,,,,,,,,,,,,,,,,,,,,,,,,,,,,,,,,,,,,,,,,,,,,,,,,,,,,,,,,,,,,,,,,,,,
,,6989df4ce6bf3a2e4b6479e1,2026-03-17_11h28.35.988,kallum_motion_pilot_GIST_update_2,2026.1.1,Win32,140.8450704,6989df4ce6bf3a2e4b6479e1,69b92ab4aef6dee357cd729a,69b92bc43f1a506ba98e781a,0.0147,0.0147,0,16,16,81,1,fiveseven,,,,,,,,,,,,,,,,,,,,,,,,,,,,,,,,,,,,,,,,,,,,,,,,,,,,,,,,,,,,,,,,,,,,,,,,,,,,,,,,,,,,,,,,,,,,,,,,,,,,,,,,,,,,,,,,,,,,,,,,,,,,,,,,,,,,,,,,,
,,6989df4ce6bf3a2e4b6479e1,2026-03-17_11h28.35.988,kallum_motion_pilot_GIST_update_2,2026.1.1,Win32,140.8450704,6989df4ce6bf3a2e4b6479e1,69b92ab4aef6dee357cd729a,69b92bc43f1a506ba98e781a,0.0148,0.0148,0,17,17,91,1,sixeight,,,,,,,,,,,,,,,,,,,,,,,,,,,,,,,,,,,,,,,,,,,,,,,,,,,,,,,,,,,,,,,,,,,,,,,,,,,,,,,,,,,,,,,,,,,,,,,,,,,,,,,,,,,,,,,,,,,,,,,,,,,,,,,,,,,,,,,,,
,,6989df4ce6bf3a2e4b6479e1,2026-03-17_11h28.35.988,kallum_motion_pilot_GIST_update_2,2026.1.1,Win32,140.8450704,6989df4ce6bf3a2e4b6479e1,69b92ab4aef6dee357cd729a,69b92bc43f1a506ba98e781a,0.0149,0.0149,0,18,18,78,1,fourtwo,,,,,,,,,,,,,,,,,,,,,,,,,,,,,,,,,,,,,,,,,,,,,,,,,,,,,,,,,,,,,,,,,,,,,,,,,,,,,,,,,,,,,,,,,,,,,,,,,,,,,,,,,,,,,,,,,,,,,,,,,,,,,,,,,,,,,,,,,
,,6989df4ce6bf3a2e4b6479e1,2026-03-17_11h28.35.988,kallum_motion_pilot_GIST_update_2,2026.1.1,Win32,140.8450704,6989df4ce6bf3a2e4b6479e1,69b92ab4aef6dee357cd729a,69b92bc43f1a506ba98e781a,0.015,0.0151,0,19,19,77,1,threefour,,,,,,,,,,,,,,,,,,,,,,,,,,,,,,,,,,,,,,,,,,,,,,,,,,,,,,,,,,,,,,,,,,,,,,,,,,,,,,,,,,,,,,,,,,,,,,,,,,,,,,,,,,,,,,,,,,,,,,,,,,,,,,,,,,,,,,,,,
,,6989df4ce6bf3a2e4b6479e1,2026-03-17_11h28.35.988,kallum_motion_pilot_GIST_update_2,2026.1.1,Win32,140.8450704,6989df4ce6bf3a2e4b6479e1,69b92ab4aef6dee357cd729a,69b92bc43f1a506ba98e781a,0.0151,0.0151,0,20,20,2,1,twoone,,,,,,,,,,,,,,,,,,,,,,,,,,,,,,,,,,,,,,,,,,,,,,,,,,,,,,,,,,,,,,,,,,,,,,,,,,,,,,,,,,,,,,,,,,,,,,,,,,,,,,,,,,,,,,,,,,,,,,,,,,,,,,,,,,,,,,,,,
,,6989df4ce6bf3a2e4b6479e1,2026-03-17_11h28.35.988,kallum_motion_pilot_GIST_update_2,2026.1.1,Win32,140.8450704,6989df4ce6bf3a2e4b6479e1,69b92ab4aef6dee357cd729a,69b92bc43f1a506ba98e781a,0.0152,0.0152,0,21,21,98,1,sixfive,,,,,,,,,,,,,,,,,,,,,,,,,,,,,,,,,,,,,,,,,,,,,,,,,,,,,,,,,,,,,,,,,,,,,,,,,,,,,,,,,,,,,,,,,,,,,,,,,,,,,,,,,,,,,,,,,,,,,,,,,,,,,,,,,,,,,,,,,
,,6989df4ce6bf3a2e4b6479e1,2026-03-17_11h28.35.988,kallum_motion_pilot_GIST_update_2,2026.1.1,Win32,140.8450704,6989df4ce6bf3a2e4b6479e1,69b92ab4aef6dee357cd729a,69b92bc43f1a506ba98e781a,0.0153,0.0153,0,22,22,34,1,twoone,,,,,,,,,,,,,,,,,,,,,,,,,,,,,,,,,,,,,,,,,,,,,,,,,,,,,,,,,,,,,,,,,,,,,,,,,,,,,,,,,,,,,,,,,,,,,,,,,,,,,,,,,,,,,,,,,,,,,,,,,,,,,,,,,,,,,,,,,
,,6989df4ce6bf3a2e4b6479e1,2026-03-17_11h28.35.988,kallum_motion_pilot_GIST_update_2,2026.1.1,Win32,140.8450704,6989df4ce6bf3a2e4b6479e1,69b92ab4aef6dee357cd729a,69b92bc43f1a506ba98e781a,0.0154,0.0154,0,23,23,17,1,onethree,,,,,,,,,,,,,,,,,,,,,,,,,,,,,,,,,,,,,,,,,,,,,,,,,,,,,,,,,,,,,,,,,,,,,,,,,,,,,,,,,,,,,,,,,,,,,,,,,,,,,,,,,,,,,,,,,,,,,,,,,,,,,,,,,,,,,,,,,
,,6989df4ce6bf3a2e4b6479e1,2026-03-17_11h28.35.988,kallum_motion_pilot_GIST_update_2,2026.1.1,Win32,140.8450704,6989df4ce6bf3a2e4b6479e1,69b92ab4aef6dee357cd729a,69b92bc43f1a506ba98e781a,0.0154,0.0155,0,24,24,87,1,eightseven,,,,,,,,,,,,,,,,,,,,,,,,,,,,,,,,,,,,,,,,,,,,,,,,,,,,,,,,,,,,,,,,,,,,,,,,,,,,,,,,,,,,,,,,,,,,,,,,,,,,,,,,,,,,,,,,,,,,,,,,,,,,,,,,,,,,,,,,,
,,6989df4ce6bf3a2e4b6479e1,2026-03-17_11h28.35.988,kallum_motion_pilot_GIST_update_2,2026.1.1,Win32,140.8450704,6989df4ce6bf3a2e4b6479e1,69b92ab4aef6dee357cd729a,69b92bc43f1a506ba98e781a,0.0155,0.0155,0,25,25,83,1,sixeight,,,,,,,,,,,,,,,,,,,,,,,,,,,,,,,,,,,,,,,,,,,,,,,,,,,,,,,,,,,,,,,,,,,,,,,,,,,,,,,,,,,,,,,,,,,,,,,,,,,,,,,,,,,,,,,,,,,,,,,,,,,,,,,,,,,,,,,,,
,,6989df4ce6bf3a2e4b6479e1,2026-03-17_11h28.35.988,kallum_motion_pilot_GIST_update_2,2026.1.1,Win32,140.8450704,6989df4ce6bf3a2e4b6479e1,69b92ab4aef6dee357cd729a,69b92bc43f1a506ba98e781a,0.0157,0.0157,0,26,26,129,1,fiveseven,,,,,,,,,,,,,,,,,,,,,,,,,,,,,,,,,,,,,,,,,,,,,,,,,,,,,,,,,,,,,,,,,,,,,,,,,,,,,,,,,,,,,,,,,,,,,,,,,,,,,,,,,,,,,,,,,,,,,,,,,,,,,,,,,,,,,,,,,
,,6989df4ce6bf3a2e4b6479e1,2026-03-17_11h28.35.988,kallum_motion_pilot_GIST_update_2,2026.1.1,Win32,140.8450704,6989df4ce6bf3a2e4b6479e1,69b92ab4aef6dee357cd729a,69b92bc43f1a506ba98e781a,0.0158,0.0158,0,27,27,92,1,sevenfive,,,,,,,,,,,,,,,,,,,,,,,,,,,,,,,,,,,,,,,,,,,,,,,,,,,,,,,,,,,,,,,,,,,,,,,,,,,,,,,,,,,,,,,,,,,,,,,,,,,,,,,,,,,,,,,,,,,,,,,,,,,,,,,,,,,,,,,,,
,,6989df4ce6bf3a2e4b6479e1,2026-03-17_11h28.35.988,kallum_motion_pilot_GIST_update_2,2026.1.1,Win32,140.8450704,6989df4ce6bf3a2e4b6479e1,69b92ab4aef6dee357cd729a,69b92bc43f1a506ba98e781a,0.0158,0.0159,0,28,28,82,1,sixfive,,,,,,,,,,,,,,,,,,,,,,,,,,,,,,,,,,,,,,,,,,,,,,,,,,,,,,,,,,,,,,,,,,,,,,,,,,,,,,,,,,,,,,,,,,,,,,,,,,,,,,,,,,,,,,,,,,,,,,,,,,,,,,,,,,,,,,,,,
,,6989df4ce6bf3a2e4b6479e1,2026-03-17_11h28.35.988,kallum_motion_pilot_GIST_update_2,2026.1.1,Win32,140.8450704,6989df4ce6bf3a2e4b6479e1,69b92ab4aef6dee357cd729a,69b92bc43f1a506ba98e781a,0.016,0.016,0,29,29,144,1,fivesix,,,,,,,,,,,,,,,,,,,,,,,,,,,,,,,,,,,,,,,,,,,,,,,,,,,,,,,,,,,,,,,,,,,,,,,,,,,,,,,,,,,,,,,,,,,,,,,,,,,,,,,,,,,,,,,,,,,,,,,,,,,,,,,,,,,,,,,,,
,,6989df4ce6bf3a2e4b6479e1,2026-03-17_11h28.35.988,kallum_motion_pilot_GIST_update_2,2026.1.1,Win32,140.8450704,6989df4ce6bf3a2e4b6479e1,69b92ab4aef6dee357cd729a,69b92bc43f1a506ba98e781a,0.0161,0.0161,0,30,30,125,1,seveneight,,,,,,,,,,,,,,,,,,,,,,,,,,,,,,,,,,,,,,,,,,,,,,,,,,,,,,,,,,,,,,,,,,,,,,,,,,,,,,,,,,,,,,,,,,,,,,,,,,,,,,,,,,,,,,,,,,,,,,,,,,,,,,,,,,,,,,,,,
,,6989df4ce6bf3a2e4b6479e1,2026-03-17_11h28.35.988,kallum_motion_pilot_GIST_update_2,2026.1.1,Win32,140.8450704,6989df4ce6bf3a2e4b6479e1,69b92ab4aef6dee357cd729a,69b92bc43f1a506ba98e781a,0.0162,0.0162,0,31,31,76,1,threeone,,,,,,,,,,,,,,,,,,,,,,,,,,,,,,,,,,,,,,,,,,,,,,,,,,,,,,,,,,,,,,,,,,,,,,,,,,,,,,,,,,,,,,,,,,,,,,,,,,,,,,,,,,,,,,,,,,,,,,,,,,,,,,,,,,,,,,,,,
,,6989df4ce6bf3a2e4b6479e1,2026-03-17_11h28.35.988,kallum_motion_pilot_GIST_update_2,2026.1.1,Win32,140.8450704,6989df4ce6bf3a2e4b6479e1,69b92ab4aef6dee357cd729a,69b92bc43f1a506ba98e781a,0.0163,0.0163,0,32,32,124,1,sevenfive,,,,,,,,,,,,,,,,,,,,,,,,,,,,,,,,,,,,,,,,,,,,,,,,,,,,,,,,,,,,,,,,,,,,,,,,,,,,,,,,,,,,,,,,,,,,,,,,,,,,,,,,,,,,,,,,,,,,,,,,,,,,,,,,,,,,,,,,,
,,6989df4ce6bf3a2e4b6479e1,2026-03-17_11h28.35.988,kallum_motion_pilot_GIST_update_2,2026.1.1,Win32,140.8450704,6989df4ce6bf3a2e4b6479e1,69b92ab4aef6dee357cd729a,69b92bc43f1a506ba98e781a,0.0164,0.0164,0,33,33,63,1,fourthree,,,,,,,,,,,,,,,,,,,,,,,,,,,,,,,,,,,,,,,,,,,,,,,,,,,,,,,,,,,,,,,,,,,,,,,,,,,,,,,,,,,,,,,,,,,,,,,,,,,,,,,,,,,,,,,,,,,,,,,,,,,,,,,,,,,,,,,,,
,,6989df4ce6bf3a2e4b6479e1,2026-03-17_11h28.35.988,kallum_motion_pilot_GIST_update_2,2026.1.1,Win32,140.8450704,6989df4ce6bf3a2e4b6479e1,69b92ab4aef6dee357cd729a,69b92bc43f1a506ba98e781a,0.0164,0.0164,0,34,34,35,1,twofour,,,,,,,,,,,,,,,,,,,,,,,,,,,,,,,,,,,,,,,,,,,,,,,,,,,,,,,,,,,,,,,,,,,,,,,,,,,,,,,,,,,,,,,,,,,,,,,,,,,,,,,,,,,,,,,,,,,,,,,,,,,,,,,,,,,,,,,,,
,,6989df4ce6bf3a2e4b6479e1,2026-03-17_11h28.35.988,kallum_motion_pilot_GIST_update_2,2026.1.1,Win32,140.8450704,6989df4ce6bf3a2e4b6479e1,69b92ab4aef6dee357cd729a,69b92bc43f1a506ba98e781a,0.0165,0.0166,0,35,35,11,1,twofour,,,,,,,,,,,,,,,,,,,,,,,,,,,,,,,,,,,,,,,,,,,,,,,,,,,,,,,,,,,,,,,,,,,,,,,,,,,,,,,,,,,,,,,,,,,,,,,,,,,,,,,,,,,,,,,,,,,,,,,,,,,,,,,,,,,,,,,,,
,,6989df4ce6bf3a2e4b6479e1,2026-03-17_11h28.35.988,kallum_motion_pilot_GIST_update_2,2026.1.1,Win32,140.8450704,6989df4ce6bf3a2e4b6479e1,69b92ab4aef6dee357cd729a,69b92bc43f1a506ba98e781a,0.0167,0.0167,0,36,36,28,1,threeone,,,,,,,,,,,,,,,,,,,,,,,,,,,,,,,,,,,,,,,,,,,,,,,,,,,,,,,,,,,,,,,,,,,,,,,,,,,,,,,,,,,,,,,,,,,,,,,,,,,,,,,,,,,,,,,,,,,,,,,,,,,,,,,,,,,,,,,,,
,,6989df4ce6bf3a2e4b6479e1,2026-03-17_11h28.35.988,kallum_motion_pilot_GIST_update_2,2026.1.1,Win32,140.8450704,6989df4ce6bf3a2e4b6479e1,69b92ab4aef6dee357cd729a,69b92bc43f1a506ba98e781a,0.0168,0.0168,0,37,37,155,1,sixeight,,,,,,,,,,,,,,,,,,,,,,,,,,,,,,,,,,,,,,,,,,,,,,,,,,,,,,,,,,,,,,,,,,,,,,,,,,,,,,,,,,,,,,,,,,,,,,,,,,,,,,,,,,,,,,,,,,,,,,,,,,,,,,,,,,,,,,,,,
,,6989df4ce6bf3a2e4b6479e1,2026-03-17_11h28.35.988,kallum_motion_pilot_GIST_update_2,2026.1.1,Win32,140.8450704,6989df4ce6bf3a2e4b6479e1,69b92ab4aef6dee357cd729a,69b92bc43f1a506ba98e781a,0.0169,0.0169,0,38,38,52,1,threeone,,,,,,,,,,,,,,,,,,,,,,,,,,,,,,,,,,,,,,,,,,,,,,,,,,,,,,,,,,,,,,,,,,,,,,,,,,,,,,,,,,,,,,,,,,,,,,,,,,,,,,,,,,,,,,,,,,,,,,,,,,,,,,,,,,,,,,,,,
,,6989df4ce6bf3a2e4b6479e1,2026-03-17_11h28.35.988,kallum_motion_pilot_GIST_update_2,2026.1.1,Win32,140.8450704,6989df4ce6bf3a2e4b6479e1,69b92ab4aef6dee357cd729a,69b92bc43f1a506ba98e781a,0.017,0.017,0,39,39,85,1,seveneight,,,,,,,,,,,,,,,,,,,,,,,,,,,,,,,,,,,,,,,,,,,,,,,,,,,,,,,,,,,,,,,,,,,,,,,,,,,,,,,,,,,,,,,,,,,,,,,,,,,,,,,,,,,,,,,,,,,,,,,,,,,,,,,,,,,,,,,,,
,,6989df4ce6bf3a2e4b6479e1,2026-03-17_11h28.35.988,kallum_motion_pilot_GIST_update_2,2026.1.1,Win32,140.8450704,6989df4ce6bf3a2e4b6479e1,69b92ab4aef6dee357cd729a,69b92bc43f1a506ba98e781a,0.0171,0.0171,0,40,40,75,1,twofour,,,,,,,,,,,,,,,,,,,,,,,,,,,,,,,,,,,,,,,,,,,,,,,,,,,,,,,,,,,,,,,,,,,,,,,,,,,,,,,,,,,,,,,,,,,,,,,,,,,,,,,,,,,,,,,,,,,,,,,,,,,,,,,,,,,,,,,,,
,,6989df4ce6bf3a2e4b6479e1,2026-03-17_11h28.35.988,kallum_motion_pilot_GIST_update_2,2026.1.1,Win32,140.8450704,6989df4ce6bf3a2e4b6479e1,69b92ab4aef6dee357cd729a,69b92bc43f1a506ba98e781a,0.0172,0.0172,0,41,41,126,1,eightsix,,,,,,,,,,,,,,,,,,,,,,,,,,,,,,,,,,,,,,,,,,,,,,,,,,,,,,,,,,,,,,,,,,,,,,,,,,,,,,,,,,,,,,,,,,,,,,,,,,,,,,,,,,,,,,,,,,,,,,,,,,,,,,,,,,,,,,,,,
,,6989df4ce6bf3a2e4b6479e1,2026-03-17_11h28.35.988,kallum_motion_pilot_GIST_update_2,2026.1.1,Win32,140.8450704,6989df4ce6bf3a2e4b6479e1,69b92ab4aef6dee357cd729a,69b92bc43f1a506ba98e781a,0.0173,0.0173,0,42,42,103,1,eightseven,,,,,,,,,,,,,,,,,,,,,,,,,,,,,,,,,,,,,,,,,,,,,,,,,,,,,,,,,,,,,,,,,,,,,,,,,,,,,,,,,,,,,,,,,,,,,,,,,,,,,,,,,,,,,,,,,,,,,,,,,,,,,,,,,,,,,,,,,
,,6989df4ce6bf3a2e4b6479e1,2026-03-17_11h28.35.988,kallum_motion_pilot_GIST_update_2,2026.1.1,Win32,140.8450704,6989df4ce6bf3a2e4b6479e1,69b92ab4aef6dee357cd729a,69b92bc43f1a506ba98e781a,0.0173,0.0174,0,43,43,62,1,fourtwo,,,,,,,,,,,,,,,,,,,,,,,,,,,,,,,,,,,,,,,,,,,,,,,,,,,,,,,,,,,,,,,,,,,,,,,,,,,,,,,,,,,,,,,,,,,,,,,,,,,,,,,,,,,,,,,,,,,,,,,,,,,,,,,,,,,,,,,,,
,,6989df4ce6bf3a2e4b6479e1,2026-03-17_11h28.35.988,kallum_motion_pilot_GIST_update_2,2026.1.1,Win32,140.8450704,6989df4ce6bf3a2e4b6479e1,69b92ab4aef6dee357cd729a,69b92bc43f1a506ba98e781a,0.0174,0.0175,0,44,44,71,1,fourthree,,,,,,,,,,,,,,,,,,,,,,,,,,,,,,,,,,,,,,,,,,,,,,,,,,,,,,,,,,,,,,,,,,,,,,,,,,,,,,,,,,,,,,,,,,,,,,,,,,,,,,,,,,,,,,,,,,,,,,,,,,,,,,,,,,,,,,,,,
,,6989df4ce6bf3a2e4b6479e1,2026-03-17_11h28.35.988,kallum_motion_pilot_GIST_update_2,2026.1.1,Win32,140.8450704,6989df4ce6bf3a2e4b6479e1,69b92ab4aef6dee357cd729a,69b92bc43f1a506ba98e781a,0.0175,0.0175,0,45,45,54,1,fourtwo,,,,,,,,,,,,,,,,,,,,,,,,,,,,,,,,,,,,,,,,,,,,,,,,,,,,,,,,,,,,,,,,,,,,,,,,,,,,,,,,,,,,,,,,,,,,,,,,,,,,,,,,,,,,,,,,,,,,,,,,,,,,,,,,,,,,,,,,,
,,6989df4ce6bf3a2e4b6479e1,2026-03-17_11h28.35.988,kallum_motion_pilot_GIST_update_2,2026.1.1,Win32,140.8450704,6989df4ce6bf3a2e4b6479e1,69b92ab4aef6dee357cd729a,69b92bc43f1a506ba98e781a,0.0176,0.0176,0,46,46,157,1,seveneight,,,,,,,,,,,,,,,,,,,,,,,,,,,,,,,,,,,,,,,,,,,,,,,,,,,,,,,,,,,,,,,,,,,,,,,,,,,,,,,,,,,,,,,,,,,,,,,,,,,,,,,,,,,,,,,,,,,,,,,,,,,,,,,,,,,,,,,,,
,,6989df4ce6bf3a2e4b6479e1,2026-03-17_11h28.35.988,kallum_motion_pilot_GIST_update_2,2026.1.1,Win32,140.8450704,6989df4ce6bf3a2e4b6479e1,69b92ab4aef6dee357cd729a,69b92bc43f1a506ba98e781a,0.0177,0.0177,0,47,47,5,1,threefour,,,,,,,,,,,,,,,,,,,,,,,,,,,,,,,,,,,,,,,,,,,,,,,,,,,,,,,,,,,,,,,,,,,,,,,,,,,,,,,,,,,,,,,,,,,,,,,,,,,,,,,,,,,,,,,,,,,,,,,,,,,,,,,,,,,,,,,,,
,,6989df4ce6bf3a2e4b6479e1,2026-03-17_11h28.35.988,kallum_motion_pilot_GIST_update_2,2026.1.1,Win32,140.8450704,6989df4ce6bf3a2e4b6479e1,69b92ab4aef6dee357cd729a,69b92bc43f1a506ba98e781a,0.0178,0.0178,0,48,48,69,1,threefour,,,,,,,,,,,,,,,,,,,,,,,,,,,,,,,,,,,,,,,,,,,,,,,,,,,,,,,,,,,,,,,,,,,,,,,,,,,,,,,,,,,,,,,,,,,,,,,,,,,,,,,,,,,,,,,,,,,,,,,,,,,,,,,,,,,,,,,,,
,,6989df4ce6bf3a2e4b6479e1,2026-03-17_11h28.35.988,kallum_motion_pilot_GIST_update_2,2026.1.1,Win32,140.8450704,6989df4ce6bf3a2e4b6479e1,69b92ab4aef6dee357cd729a,69b92bc43f1a506ba98e781a,0.0179,0.0179,0,49,49,14,1,fourtwo,,,,,,,,,,,,,,,,,,,,,,,,,,,,,,,,,,,,,,,,,,,,,,,,,,,,,,,,,,,,,,,,,,,,,,,,,,,,,,,,,,,,,,,,,,,,,,,,,,,,,,,,,,,,,,,,,,,,,,,,,,,,,,,,,,,,,,,,,
,,6989df4ce6bf3a2e4b6479e1,2026-03-17_11h28.35.988,kallum_motion_pilot_GIST_update_2,2026.1.1,Win32,140.8450704,6989df4ce6bf3a2e4b6479e1,69b92ab4aef6dee357cd729a,69b92bc43f1a506ba98e781a,0.018,0.018,0,50,50,56,1,onetwo,,,,,,,,,,,,,,,,,,,,,,,,,,,,,,,,,,,,,,,,,,,,,,,,,,,,,,,,,,,,,,,,,,,,,,,,,,,,,,,,,,,,,,,,,,,,,,,,,,,,,,,,,,,,,,,,,,,,,,,,,,,,,,,,,,,,,,,,,
,,6989df4ce6bf3a2e4b6479e1,2026-03-17_11h28.35.988,kallum_motion_pilot_GIST_update_2,2026.1.1,Win32,140.8450704,6989df4ce6bf3a2e4b6479e1,69b92ab4aef6dee357cd729a,69b92bc43f1a506ba98e781a,0.0181,0.0182,0,51,51,130,1,sixfive,,,,,,,,,,,,,,,,,,,,,,,,,,,,,,,,,,,,,,,,,,,,,,,,,,,,,,,,,,,,,,,,,,,,,,,,,,,,,,,,,,,,,,,,,,,,,,,,,,,,,,,,,,,,,,,,,,,,,,,,,,,,,,,,,,,,,,,,,
,,6989df4ce6bf3a2e4b6479e1,2026-03-17_11h28.35.988,kallum_motion_pilot_GIST_update_2,2026.1.1,Win32,140.8450704,6989df4ce6bf3a2e4b6479e1,69b92ab4aef6dee357cd729a,69b92bc43f1a506ba98e781a,0.0182,0.0183,0,52,52,38,1,fourtwo,,,,,,,,,,,,,,,,,,,,,,,,,,,,,,,,,,,,,,,,,,,,,,,,,,,,,,,,,,,,,,,,,,,,,,,,,,,,,,,,,,,,,,,,,,,,,,,,,,,,,,,,,,,,,,,,,,,,,,,,,,,,,,,,,,,,,,,,,
,,6989df4ce6bf3a2e4b6479e1,2026-03-17_11h28.35.988,kallum_motion_pilot_GIST_update_2,2026.1.1,Win32,140.8450704,6989df4ce6bf3a2e4b6479e1,69b92ab4aef6dee357cd729a,69b92bc43f1a506ba98e781a,0.0184,0.0184,0,53,53,13,1,threefour,,,,,,,,,,,,,,,,,,,,,,,,,,,,,,,,,,,,,,,,,,,,,,,,,,,,,,,,,,,,,,,,,,,,,,,,,,,,,,,,,,,,,,,,,,,,,,,,,,,,,,,,,,,,,,,,,,,,,,,,,,,,,,,,,,,,,,,,,
,,6989df4ce6bf3a2e4b6479e1,2026-03-17_11h28.35.988,kallum_motion_pilot_GIST_update_2,2026.1.1,Win32,140.8450704,6989df4ce6bf3a2e4b6479e1,69b92ab4aef6dee357cd729a,69b92bc43f1a506ba98e781a,0.0184,0.0185,0,54,54,21,1,threefour,,,,,,,,,,,,,,,,,,,,,,,,,,,,,,,,,,,,,,,,,,,,,,,,,,,,,,,,,,,,,,,,,,,,,,,,,,,,,,,,,,,,,,,,,,,,,,,,,,,,,,,,,,,,,,,,,,,,,,,,,,,,,,,,,,,,,,,,,
,,6989df4ce6bf3a2e4b6479e1,2026-03-17_11h28.35.988,kallum_motion_pilot_GIST_update_2,2026.1.1,Win32,140.8450704,6989df4ce6bf3a2e4b6479e1,69b92ab4aef6dee357cd729a,69b92bc43f1a506ba98e781a,0.0185,0.0186,0,55,55,99,1,sixeight,,,,,,,,,,,,,,,,,,,,,,,,,,,,,,,,,,,,,,,,,,,,,,,,,,,,,,,,,,,,,,,,,,,,,,,,,,,,,,,,,,,,,,,,,,,,,,,,,,,,,,,,,,,,,,,,,,,,,,,,,,,,,,,,,,,,,,,,,
,,6989df4ce6bf3a2e4b6479e1,2026-03-17_11h28.35.988,kallum_motion_pilot_GIST_update_2,2026.1.1,Win32,140.8450704,6989df4ce6bf3a2e4b6479e1,69b92ab4aef6dee357cd729a,69b92bc43f1a506ba98e781a,0.0187,0.0187,0,56,56,19,1,twofour,,,,,,,,,,,,,,,,,,,,,,,,,,,,,,,,,,,,,,,,,,,,,,,,,,,,,,,,,,,,,,,,,,,,,,,,,,,,,,,,,,,,,,,,,,,,,,,,,,,,,,,,,,,,,,,,,,,,,,,,,,,,,,,,,,,,,,,,,
,,6989df4ce6bf3a2e4b6479e1,2026-03-17_11h28.35.988,kallum_motion_pilot_GIST_update_2,2026.1.1,Win32,140.8450704,6989df4ce6bf3a2e4b6479e1,69b92ab4aef6dee357cd729a,69b92bc43f1a506ba98e781a,0.0188,0.0188,0,57,57,111,1,eightseven,,,,,,,,,,,,,,,,,,,,,,,,,,,,,,,,,,,,,,,,,,,,,,,,,,,,,,,,,,,,,,,,,,,,,,,,,,,,,,,,,,,,,,,,,,,,,,,,,,,,,,,,,,,,,,,,,,,,,,,,,,,,,,,,,,,,,,,,,
,,6989df4ce6bf3a2e4b6479e1,2026-03-17_11h28.35.988,kallum_motion_pilot_GIST_update_2,2026.1.1,Win32,140.8450704,6989df4ce6bf3a2e4b6479e1,69b92ab4aef6dee357cd729a,69b92bc43f1a506ba98e781a,0.0189,0.0189,0,58,58,127,1,eightseven,,,,,,,,,,,,,,,,,,,,,,,,,,,,,,,,,,,,,,,,,,,,,,,,,,,,,,,,,,,,,,,,,,,,,,,,,,,,,,,,,,,,,,,,,,,,,,,,,,,,,,,,,,,,,,,,,,,,,,,,,,,,,,,,,,,,,,,,,
,,6989df4ce6bf3a2e4b6479e1,2026-03-17_11h28.35.988,kallum_motion_pilot_GIST_update_2,2026.1.1,Win32,140.8450704,6989df4ce6bf3a2e4b6479e1,69b92ab4aef6dee357cd729a,69b92bc43f1a506ba98e781a,0.0191,0.0191,0,59,59,31,1,fourthree,,,,,,,,,,,,,,,,,,,,,,,,,,,,,,,,,,,,,,,,,,,,,,,,,,,,,,,,,,,,,,,,,,,,,,,,,,,,,,,,,,,,,,,,,,,,,,,,,,,,,,,,,,,,,,,,,,,,,,,,,,,,,,,,,,,,,,,,,
,,6989df4ce6bf3a2e4b6479e1,2026-03-17_11h28.35.988,kallum_motion_pilot_GIST_update_2,2026.1.1,Win32,140.8450704,6989df4ce6bf3a2e4b6479e1,69b92ab4aef6dee357cd729a,69b92bc43f1a506ba98e781a,0.0193,0.0193,0,60,60,135,1,eightseven,,,,,,,,,,,,,,,,,,,,,,,,,,,,,,,,,,,,,,,,,,,,,,,,,,,,,,,,,,,,,,,,,,,,,,,,,,,,,,,,,,,,,,,,,,,,,,,,,,,,,,,,,,,,,,,,,,,,,,,,,,,,,,,,,,,,,,,,,
,,6989df4ce6bf3a2e4b6479e1,2026-03-17_11h28.35.988,kallum_motion_pilot_GIST_update_2,2026.1.1,Win32,140.8450704,6989df4ce6bf3a2e4b6479e1,69b92ab4aef6dee357cd729a,69b92bc43f1a506ba98e781a,0.0195,0.0195,0,61,61,33,1,onethree,,,,,,,,,,,,,,,,,,,,,,,,,,,,,,,,,,,,,,,,,,,,,,,,,,,,,,,,,,,,,,,,,,,,,,,,,,,,,,,,,,,,,,,,,,,,,,,,,,,,,,,,,,,,,,,,,,,,,,,,,,,,,,,,,,,,,,,,,
,,6989df4ce6bf3a2e4b6479e1,2026-03-17_11h28.35.988,kallum_motion_pilot_GIST_update_2,2026.1.1,Win32,140.8450704,6989df4ce6bf3a2e4b6479e1,69b92ab4aef6dee357cd729a,69b92bc43f1a506ba98e781a,0.0196,0.0197,0,62,62,72,1,onetwo,,,,,,,,,,,,,,,,,,,,,,,,,,,,,,,,,,,,,,,,,,,,,,,,,,,,,,,,,,,,,,,,,,,,,,,,,,,,,,,,,,,,,,,,,,,,,,,,,,,,,,,,,,,,,,,,,,,,,,,,,,,,,,,,,,,,,,,,,
,,6989df4ce6bf3a2e4b6479e1,2026-03-17_11h28.35.988,kallum_motion_pilot_GIST_update_2,2026.1.1,Win32,140.8450704,6989df4ce6bf3a2e4b6479e1,69b92ab4aef6dee357cd729a,69b92bc43f1a506ba98e781a,0.0198,0.0198,0,63,63,65,1,onethree,,,,,,,,,,,,,,,,,,,,,,,,,,,,,,,,,,,,,,,,,,,,,,,,,,,,,,,,,,,,,,,,,,,,,,,,,,,,,,,,,,,,,,,,,,,,,,,,,,,,,,,,,,,,,,,,,,,,,,,,,,,,,,,,,,,,,,,,,
,,6989df4ce6bf3a2e4b6479e1,2026-03-17_11h28.35.988,kallum_motion_pilot_GIST_update_2,2026.1.1,Win32,140.8450704,6989df4ce6bf3a2e4b6479e1,69b92ab4aef6dee357cd729a,69b92bc43f1a506ba98e781a,0.02,0.02,0,64,64,25,1,onethree,,,,,,,,,,,,,,,,,,,,,,,,,,,,,,,,,,,,,,,,,,,,,,,,,,,,,,,,,,,,,,,,,,,,,,,,,,,,,,,,,,,,,,,,,,,,,,,,,,,,,,,,,,,,,,,,,,,,,,,,,,,,,,,,,,,,,,,,,
,,6989df4ce6bf3a2e4b6479e1,2026-03-17_11h28.35.988,kallum_motion_pilot_GIST_update_2,2026.1.1,Win32,140.8450704,6989df4ce6bf3a2e4b6479e1,69b92ab4aef6dee357cd729a,69b92bc43f1a506ba98e781a,0.0201,0.0202,0,65,65,68,1,threeone,,,,,,,,,,,,,,,,,,,,,,,,,,,,,,,,,,,,,,,,,,,,,,,,,,,,,,,,,,,,,,,,,,,,,,,,,,,,,,,,,,,,,,,,,,,,,,,,,,,,,,,,,,,,,,,,,,,,,,,,,,,,,,,,,,,,,,,,,
,,6989df4ce6bf3a2e4b6479e1,2026-03-17_11h28.35.988,kallum_motion_pilot_GIST_update_2,2026.1.1,Win32,140.8450704,6989df4ce6bf3a2e4b6479e1,69b92ab4aef6dee357cd729a,69b92bc43f1a506ba98e781a,0.0204,0.0204,0,66,66,122,1,sixfive,,,,,,,,,,,,,,,,,,,,,,,,,,,,,,,,,,,,,,,,,,,,,,,,,,,,,,,,,,,,,,,,,,,,,,,,,,,,,,,,,,,,,,,,,,,,,,,,,,,,,,,,,,,,,,,,,,,,,,,,,,,,,,,,,,,,,,,,,
,,6989df4ce6bf3a2e4b6479e1,2026-03-17_11h28.35.988,kallum_motion_pilot_GIST_update_2,2026.1.1,Win32,140.8450704,6989df4ce6bf3a2e4b6479e1,69b92ab4aef6dee357cd729a,69b92bc43f1a506ba98e781a,0.0205,0.0206,0,67,67,18,1,twoone,,,,,,,,,,,,,,,,,,,,,,,,,,,,,,,,,,,,,,,,,,,,,,,,,,,,,,,,,,,,,,,,,,,,,,,,,,,,,,,,,,,,,,,,,,,,,,,,,,,,,,,,,,,,,,,,,,,,,,,,,,,,,,,,,,,,,,,,,
,,6989df4ce6bf3a2e4b6479e1,2026-03-17_11h28.35.988,kallum_motion_pilot_GIST_update_2,2026.1.1,Win32,140.8450704,6989df4ce6bf3a2e4b6479e1,69b92ab4aef6dee357cd729a,69b92bc43f1a506ba98e781a,0.0207,0.0207,0,68,68,12,1,threeone,,,,,,,,,,,,,,,,,,,,,,,,,,,,,,,,,,,,,,,,,,,,,,,,,,,,,,,,,,,,,,,,,,,,,,,,,,,,,,,,,,,,,,,,,,,,,,,,,,,,,,,,,,,,,,,,,,,,,,,,,,,,,,,,,,,,,,,,,
,,6989df4ce6bf3a2e4b6479e1,2026-03-17_11h28.35.988,kallum_motion_pilot_GIST_update_2,2026.1.1,Win32,140.8450704,6989df4ce6bf3a2e4b6479e1,69b92ab4aef6dee357cd729a,69b92bc43f1a506ba98e781a,0.0207,0.0207,0,69,69,0,1,onetwo,,,,,,,,,,,,,,,,,,,,,,,,,,,,,,,,,,,,,,,,,,,,,,,,,,,,,,,,,,,,,,,,,,,,,,,,,,,,,,,,,,,,,,,,,,,,,,,,,,,,,,,,,,,,,,,,,,,,,,,,,,,,,,,,,,,,,,,,,
,,6989df4ce6bf3a2e4b6479e1,2026-03-17_11h28.35.988,kallum_motion_pilot_GIST_update_2,2026.1.1,Win32,140.8450704,6989df4ce6bf3a2e4b6479e1,69b92ab4aef6dee357cd729a,69b92bc43f1a506ba98e781a,0.0208,0.0208,0,70,70,100,1,sevenfive,,,,,,,,,,,,,,,,,,,,,,,,,,,,,,,,,,,,,,,,,,,,,,,,,,,,,,,,,,,,,,,,,,,,,,,,,,,,,,,,,,,,,,,,,,,,,,,,,,,,,,,,,,,,,,,,,,,,,,,,,,,,,,,,,,,,,,,,,
,,6989df4ce6bf3a2e4b6479e1,2026-03-17_11h28.35.988,kallum_motion_pilot_GIST_update_2,2026.1.1,Win32,140.8450704,6989df4ce6bf3a2e4b6479e1,69b92ab4aef6dee357cd729a,69b92bc43f1a506ba98e781a,0.0209,0.0209,0,71,71,8,1,onetwo,,,,,,,,,,,,,,,,,,,,,,,,,,,,,,,,,,,,,,,,,,,,,,,,,,,,,,,,,,,,,,,,,,,,,,,,,,,,,,,,,,,,,,,,,,,,,,,,,,,,,,,,,,,,,,,,,,,,,,,,,,,,,,,,,,,,,,,,,
,,6989df4ce6bf3a2e4b6479e1,2026-03-17_11h28.35.988,kallum_motion_pilot_GIST_update_2,2026.1.1,Win32,140.8450704,6989df4ce6bf3a2e4b6479e1,69b92ab4aef6dee357cd729a,69b92bc43f1a506ba98e781a,0.021,0.021,0,72,72,24,1,onetwo,,,,,,,,,,,,,,,,,,,,,,,,,,,,,,,,,,,,,,,,,,,,,,,,,,,,,,,,,,,,,,,,,,,,,,,,,,,,,,,,,,,,,,,,,,,,,,,,,,,,,,,,,,,,,,,,,,,,,,,,,,,,,,,,,,,,,,,,,
,,6989df4ce6bf3a2e4b6479e1,2026-03-17_11h28.35.988,kallum_motion_pilot_GIST_update_2,2026.1.1,Win32,140.8450704,6989df4ce6bf3a2e4b6479e1,69b92ab4aef6dee357cd729a,69b92bc43f1a506ba98e781a,0.0211,0.0211,0,73,73,107,1,sixeight,,,,,,,,,,,,,,,,,,,,,,,,,,,,,,,,,,,,,,,,,,,,,,,,,,,,,,,,,,,,,,,,,,,,,,,,,,,,,,,,,,,,,,,,,,,,,,,,,,,,,,,,,,,,,,,,,,,,,,,,,,,,,,,,,,,,,,,,,
,,6989df4ce6bf3a2e4b6479e1,2026-03-17_11h28.35.988,kallum_motion_pilot_GIST_update_2,2026.1.1,Win32,140.8450704,6989df4ce6bf3a2e4b6479e1,69b92ab4aef6dee357cd729a,69b92bc43f1a506ba98e781a,0.0211,0.0211,0,74,74,120,1,fivesix,,,,,,,,,,,,,,,,,,,,,,,,,,,,,,,,,,,,,,,,,,,,,,,,,,,,,,,,,,,,,,,,,,,,,,,,,,,,,,,,,,,,,,,,,,,,,,,,,,,,,,,,,,,,,,,,,,,,,,,,,,,,,,,,,,,,,,,,,
,,6989df4ce6bf3a2e4b6479e1,2026-03-17_11h28.35.988,kallum_motion_pilot_GIST_update_2,2026.1.1,Win32,140.8450704,6989df4ce6bf3a2e4b6479e1,69b92ab4aef6dee357cd729a,69b92bc43f1a506ba98e781a,0.0212,0.0213,0,75,75,137,1,fiveseven,,,,,,,,,,,,,,,,,,,,,,,,,,,,,,,,,,,,,,,,,,,,,,,,,,,,,,,,,,,,,,,,,,,,,,,,,,,,,,,,,,,,,,,,,,,,,,,,,,,,,,,,,,,,,,,,,,,,,,,,,,,,,,,,,,,,,,,,,
,,6989df4ce6bf3a2e4b6479e1,2026-03-17_11h28.35.988,kallum_motion_pilot_GIST_update_2,2026.1.1,Win32,140.8450704,6989df4ce6bf3a2e4b6479e1,69b92ab4aef6dee357cd729a,69b92bc43f1a506ba98e781a,0.0213,0.0213,0,76,76,23,1,fourthree,,,,,,,,,,,,,,,,,,,,,,,,,,,,,,,,,,,,,,,,,,,,,,,,,,,,,,,,,,,,,,,,,,,,,,,,,,,,,,,,,,,,,,,,,,,,,,,,,,,,,,,,,,,,,,,,,,,,,,,,,,,,,,,,,,,,,,,,,
,,6989df4ce6bf3a2e4b6479e1,2026-03-17_11h28.35.988,kallum_motion_pilot_GIST_update_2,2026.1.1,Win32,140.8450704,6989df4ce6bf3a2e4b6479e1,69b92ab4aef6dee357cd729a,69b92bc43f1a506ba98e781a,0.0214,0.0214,0,77,77,102,1,eightsix,,,,,,,,,,,,,,,,,,,,,,,,,,,,,,,,,,,,,,,,,,,,,,,,,,,,,,,,,,,,,,,,,,,,,,,,,,,,,,,,,,,,,,,,,,,,,,,,,,,,,,,,,,,,,,,,,,,,,,,,,,,,,,,,,,,,,,,,,
,,6989df4ce6bf3a2e4b6479e1,2026-03-17_11h28.35.988,kallum_motion_pilot_GIST_update_2,2026.1.1,Win32,140.8450704,6989df4ce6bf3a2e4b6479e1,69b92ab4aef6dee357cd729a,69b92bc43f1a506ba98e781a,0.0215,0.0215,0,78,78,4,1,threeone,,,,,,,,,,,,,,,,,,,,,,,,,,,,,,,,,,,,,,,,,,,,,,,,,,,,,,,,,,,,,,,,,,,,,,,,,,,,,,,,,,,,,,,,,,,,,,,,,,,,,,,,,,,,,,,,,,,,,,,,,,,,,,,,,,,,,,,,,
,,6989df4ce6bf3a2e4b6479e1,2026-03-17_11h28.35.988,kallum_motion_pilot_GIST_update_2,2026.1.1,Win32,140.8450704,6989df4ce6bf3a2e4b6479e1,69b92ab4aef6dee357cd729a,69b92bc43f1a506ba98e781a,0.0216,0.0217,0,79,79,119,1,eightseven,,,,,,,,,,,,,,,,,,,,,,,,,,,,,,,,,,,,,,,,,,,,,,,,,,,,,,,,,,,,,,,,,,,,,,,,,,,,,,,,,,,,,,,,,,,,,,,,,,,,,,,,,,,,,,,,,,,,,,,,,,,,,,,,,,,,,,,,,
,,6989df4ce6bf3a2e4b6479e1,2026-03-17_11h28.35.988,kallum_motion_pilot_GIST_update_2,2026.1.1,Win32,140.8450704,6989df4ce6bf3a2e4b6479e1,69b92ab4aef6dee357cd729a,69b92bc43f1a506ba98e781a,0.0218,0.0219,0,80,80,139,1,sixeight,,,,,,,,,,,,,,,,,,,,,,,,,,,,,,,,,,,,,,,,,,,,,,,,,,,,,,,,,,,,,,,,,,,,,,,,,,,,,,,,,,,,,,,,,,,,,,,,,,,,,,,,,,,,,,,,,,,,,,,,,,,,,,,,,,,,,,,,,
,,6989df4ce6bf3a2e4b6479e1,2026-03-17_11h28.35.988,kallum_motion_pilot_GIST_update_2,2026.1.1,Win32,140.8450704,6989df4ce6bf3a2e4b6479e1,69b92ab4aef6dee357cd729a,69b92bc43f1a506ba98e781a,0.022,0.022,0,81,81,3,1,twofour,,,,,,,,,,,,,,,,,,,,,,,,,,,,,,,,,,,,,,,,,,,,,,,,,,,,,,,,,,,,,,,,,,,,,,,,,,,,,,,,,,,,,,,,,,,,,,,,,,,,,,,,,,,,,,,,,,,,,,,,,,,,,,,,,,,,,,,,,
,,6989df4ce6bf3a2e4b6479e1,2026-03-17_11h28.35.988,kallum_motion_pilot_GIST_update_2,2026.1.1,Win32,140.8450704,6989df4ce6bf3a2e4b6479e1,69b92ab4aef6dee357cd729a,69b92bc43f1a506ba98e781a,0.0222,0.0222,0,82,82,86,1,eightsix,,,,,,,,,,,,,,,,,,,,,,,,,,,,,,,,,,,,,,,,,,,,,,,,,,,,,,,,,,,,,,,,,,,,,,,,,,,,,,,,,,,,,,,,,,,,,,,,,,,,,,,,,,,,,,,,,,,,,,,,,,,,,,,,,,,,,,,,,
,,6989df4ce6bf3a2e4b6479e1,2026-03-17_11h28.35.988,kallum_motion_pilot_GIST_update_2,2026.1.1,Win32,140.8450704,6989df4ce6bf3a2e4b6479e1,69b92ab4aef6dee357cd729a,69b92bc43f1a506ba98e781a,0.0223,0.0223,0,83,83,116,1,sevenfive,,,,,,,,,,,,,,,,,,,,,,,,,,,,,,,,,,,,,,,,,,,,,,,,,,,,,,,,,,,,,,,,,,,,,,,,,,,,,,,,,,,,,,,,,,,,,,,,,,,,,,,,,,,,,,,,,,,,,,,,,,,,,,,,,,,,,,,,,
,,6989df4ce6bf3a2e4b6479e1,2026-03-17_11h28.35.988,kallum_motion_pilot_GIST_update_2,2026.1.1,Win32,140.8450704,6989df4ce6bf3a2e4b6479e1,69b92ab4aef6dee357cd729a,69b92bc43f1a506ba98e781a,0.0224,0.0225,0,84,84,113,1,fiveseven,,,,,,,,,,,,,,,,,,,,,,,,,,,,,,,,,,,,,,,,,,,,,,,,,,,,,,,,,,,,,,,,,,,,,,,,,,,,,,,,,,,,,,,,,,,,,,,,,,,,,,,,,,,,,,,,,,,,,,,,,,,,,,,,,,,,,,,,,
,,6989df4ce6bf3a2e4b6479e1,2026-03-17_11h28.35.988,kallum_motion_pilot_GIST_update_2,2026.1.1,Win32,140.8450704,6989df4ce6bf3a2e4b6479e1,69b92ab4aef6dee357cd729a,69b92bc43f1a506ba98e781a,0.0226,0.0226,0,85,85,128,1,fivesix,,,,,,,,,,,,,,,,,,,,,,,,,,,,,,,,,,,,,,,,,,,,,,,,,,,,,,,,,,,,,,,,,,,,,,,,,,,,,,,,,,,,,,,,,,,,,,,,,,,,,,,,,,,,,,,,,,,,,,,,,,,,,,,,,,,,,,,,,
,,6989df4ce6bf3a2e4b6479e1,2026-03-17_11h28.35.988,kallum_motion_pilot_GIST_update_2,2026.1.1,Win32,140.8450704,6989df4ce6bf3a2e4b6479e1,69b92ab4aef6dee357cd729a,69b92bc43f1a506ba98e781a,0.0227,0.023,0,86,86,131,1,sixeight,,,,,,,,,,,,,,,,,,,,,,,,,,,,,,,,,,,,,,,,,,,,,,,,,,,,,,,,,,,,,,,,,,,,,,,,,,,,,,,,,,,,,,,,,,,,,,,,,,,,,,,,,,,,,,,,,,,,,,,,,,,,,,,,,,,,,,,,,
,,6989df4ce6bf3a2e4b6479e1,2026-03-17_11h28.35.988,kallum_motion_pilot_GIST_update_2,2026.1.1,Win32,140.8450704,6989df4ce6bf3a2e4b6479e1,69b92ab4aef6dee357cd729a,69b92bc43f1a506ba98e781a,0.0232,0.0232,0,87,87,138,1,sixfive,,,,,,,,,,,,,,,,,,,,,,,,,,,,,,,,,,,,,,,,,,,,,,,,,,,,,,,,,,,,,,,,,,,,,,,,,,,,,,,,,,,,,,,,,,,,,,,,,,,,,,,,,,,,,,,,,,,,,,,,,,,,,,,,,,,,,,,,,
,,6989df4ce6bf3a2e4b6479e1,2026-03-17_11h28.35.988,kallum_motion_pilot_GIST_update_2,2026.1.1,Win32,140.8450704,6989df4ce6bf3a2e4b6479e1,69b92ab4aef6dee357cd729a,69b92bc43f1a506ba98e781a,0.0233,0.0234,0,88,88,143,1,eightseven,,,,,,,,,,,,,,,,,,,,,,,,,,,,,,,,,,,,,,,,,,,,,,,,,,,,,,,,,,,,,,,,,,,,,,,,,,,,,,,,,,,,,,,,,,,,,,,,,,,,,,,,,,,,,,,,,,,,,,,,,,,,,,,,,,,,,,,,,
,,6989df4ce6bf3a2e4b6479e1,2026-03-17_11h28.35.988,kallum_motion_pilot_GIST_update_2,2026.1.1,Win32,140.8450704,6989df4ce6bf3a2e4b6479e1,69b92ab4aef6dee357cd729a,69b92bc43f1a506ba98e781a,0.0235,0.0235,0,89,89,29,1,threefour,,,,,,,,,,,,,,,,,,,,,,,,,,,,,,,,,,,,,,,,,,,,,,,,,,,,,,,,,,,,,,,,,,,,,,,,,,,,,,,,,,,,,,,,,,,,,,,,,,,,,,,,,,,,,,,,,,,,,,,,,,,,,,,,,,,,,,,,,
,,6989df4ce6bf3a2e4b6479e1,2026-03-17_11h28.35.988,kallum_motion_pilot_GIST_update_2,2026.1.1,Win32,140.8450704,6989df4ce6bf3a2e4b6479e1,69b92ab4aef6dee357cd729a,69b92bc43f1a506ba98e781a,0.0236,0.0236,0,90,90,53,1,threefour,,,,,,,,,,,,,,,,,,,,,,,,,,,,,,,,,,,,,,,,,,,,,,,,,,,,,,,,,,,,,,,,,,,,,,,,,,,,,,,,,,,,,,,,,,,,,,,,,,,,,,,,,,,,,,,,,,,,,,,,,,,,,,,,,,,,,,,,,
,,6989df4ce6bf3a2e4b6479e1,2026-03-17_11h28.35.988,kallum_motion_pilot_GIST_update_2,2026.1.1,Win32,140.8450704,6989df4ce6bf3a2e4b6479e1,69b92ab4aef6dee357cd729a,69b92bc43f1a506ba98e781a,0.0237,0.0237,0,91,91,50,1,twoone,,,,,,,,,,,,,,,,,,,,,,,,,,,,,,,,,,,,,,,,,,,,,,,,,,,,,,,,,,,,,,,,,,,,,,,,,,,,,,,,,,,,,,,,,,,,,,,,,,,,,,,,,,,,,,,,,,,,,,,,,,,,,,,,,,,,,,,,,
,,6989df4ce6bf3a2e4b6479e1,2026-03-17_11h28.35.988,kallum_motion_pilot_GIST_update_2,2026.1.1,Win32,140.8450704,6989df4ce6bf3a2e4b6479e1,69b92ab4aef6dee357cd729a,69b92bc43f1a506ba98e781a,0.0238,0.0238,0,92,92,10,1,twoone,,,,,,,,,,,,,,,,,,,,,,,,,,,,,,,,,,,,,,,,,,,,,,,,,,,,,,,,,,,,,,,,,,,,,,,,,,,,,,,,,,,,,,,,,,,,,,,,,,,,,,,,,,,,,,,,,,,,,,,,,,,,,,,,,,,,,,,,,
,,6989df4ce6bf3a2e4b6479e1,2026-03-17_11h28.35.988,kallum_motion_pilot_GIST_update_2,2026.1.1,Win32,140.8450704,6989df4ce6bf3a2e4b6479e1,69b92ab4aef6dee357cd729a,69b92bc43f1a506ba98e781a,0.0239,0.0239,0,93,93,115,1,sixeight,,,,,,,,,,,,,,,,,,,,,,,,,,,,,,,,,,,,,,,,,,,,,,,,,,,,,,,,,,,,,,,,,,,,,,,,,,,,,,,,,,,,,,,,,,,,,,,,,,,,,,,,,,,,,,,,,,,,,,,,,,,,,,,,,,,,,,,,,
,,6989df4ce6bf3a2e4b6479e1,2026-03-17_11h28.35.988,kallum_motion_pilot_GIST_update_2,2026.1.1,Win32,140.8450704,6989df4ce6bf3a2e4b6479e1,69b92ab4aef6dee357cd729a,69b92bc43f1a506ba98e781a,0.0239,0.024,0,94,94,123,1,sixeight,,,,,,,,,,,,,,,,,,,,,,,,,,,,,,,,,,,,,,,,,,,,,,,,,,,,,,,,,,,,,,,,,,,,,,,,,,,,,,,,,,,,,,,,,,,,,,,,,,,,,,,,,,,,,,,,,,,,,,,,,,,,,,,,,,,,,,,,,
,,6989df4ce6bf3a2e4b6479e1,2026-03-17_11h28.35.988,kallum_motion_pilot_GIST_update_2,2026.1.1,Win32,140.8450704,6989df4ce6bf3a2e4b6479e1,69b92ab4aef6dee357cd729a,69b92bc43f1a506ba98e781a,0.024,0.024,0,95,95,104,1,fivesix,,,,,,,,,,,,,,,,,,,,,,,,,,,,,,,,,,,,,,,,,,,,,,,,,,,,,,,,,,,,,,,,,,,,,,,,,,,,,,,,,,,,,,,,,,,,,,,,,,,,,,,,,,,,,,,,,,,,,,,,,,,,,,,,,,,,,,,,,
,,6989df4ce6bf3a2e4b6479e1,2026-03-17_11h28.35.988,kallum_motion_pilot_GIST_update_2,2026.1.1,Win32,140.8450704,6989df4ce6bf3a2e4b6479e1,69b92ab4aef6dee357cd729a,69b92bc43f1a506ba98e781a,0.0242,0.0242,0,96,96,90,1,sixfive,,,,,,,,,,,,,,,,,,,,,,,,,,,,,,,,,,,,,,,,,,,,,,,,,,,,,,,,,,,,,,,,,,,,,,,,,,,,,,,,,,,,,,,,,,,,,,,,,,,,,,,,,,,,,,,,,,,,,,,,,,,,,,,,,,,,,,,,,
,,6989df4ce6bf3a2e4b6479e1,2026-03-17_11h28.35.988,kallum_motion_pilot_GIST_update_2,2026.1.1,Win32,140.8450704,6989df4ce6bf3a2e4b6479e1,69b92ab4aef6dee357cd729a,69b92bc43f1a506ba98e781a,0.0242,0.0242,0,97,97,105,1,fiveseven,,,,,,,,,,,,,,,,,,,,,,,,,,,,,,,,,,,,,,,,,,,,,,,,,,,,,,,,,,,,,,,,,,,,,,,,,,,,,,,,,,,,,,,,,,,,,,,,,,,,,,,,,,,,,,,,,,,,,,,,,,,,,,,,,,,,,,,,,
,,6989df4ce6bf3a2e4b6479e1,2026-03-17_11h28.35.988,kallum_motion_pilot_GIST_update_2,2026.1.1,Win32,140.8450704,6989df4ce6bf3a2e4b6479e1,69b92ab4aef6dee357cd729a,69b92bc43f1a506ba98e781a,0.0243,0.0243,0,98,98,73,1,onethree,,,,,,,,,,,,,,,,,,,,,,,,,,,,,,,,,,,,,,,,,,,,,,,,,,,,,,,,,,,,,,,,,,,,,,,,,,,,,,,,,,,,,,,,,,,,,,,,,,,,,,,,,,,,,,,,,,,,,,,,,,,,,,,,,,,,,,,,,
,,6989df4ce6bf3a2e4b6479e1,2026-03-17_11h28.35.988,kallum_motion_pilot_GIST_update_2,2026.1.1,Win32,140.8450704,6989df4ce6bf3a2e4b6479e1,69b92ab4aef6dee357cd729a,69b92bc43f1a506ba98e781a,0.0244,0.0245,0,99,99,158,1,eightsix,,,,,,,,,,,,,,,,,,,,,,,,,,,,,,,,,,,,,,,,,,,,,,,,,,,,,,,,,,,,,,,,,,,,,,,,,,,,,,,,,,,,,,,,,,,,,,,,,,,,,,,,,,,,,,,,,,,,,,,,,,,,,,,,,,,,,,,,,
,,6989df4ce6bf3a2e4b6479e1,2026-03-17_11h28.35.988,kallum_motion_pilot_GIST_update_2,2026.1.1,Win32,140.8450704,6989df4ce6bf3a2e4b6479e1,69b92ab4aef6dee357cd729a,69b92bc43f1a506ba98e781a,0.0245,0.0245,0,100,100,132,1,sevenfive,,,,,,,,,,,,,,,,,,,,,,,,,,,,,,,,,,,,,,,,,,,,,,,,,,,,,,,,,,,,,,,,,,,,,,,,,,,,,,,,,,,,,,,,,,,,,,,,,,,,,,,,,,,,,,,,,,,,,,,,,,,,,,,,,,,,,,,,,
,,6989df4ce6bf3a2e4b6479e1,2026-03-17_11h28.35.988,kallum_motion_pilot_GIST_update_2,2026.1.1,Win32,140.8450704,6989df4ce6bf3a2e4b6479e1,69b92ab4aef6dee357cd729a,69b92bc43f1a506ba98e781a,0.0247,0.0247,0,101,101,51,1,twofour,,,,,,,,,,,,,,,,,,,,,,,,,,,,,,,,,,,,,,,,,,,,,,,,,,,,,,,,,,,,,,,,,,,,,,,,,,,,,,,,,,,,,,,,,,,,,,,,,,,,,,,,,,,,,,,,,,,,,,,,,,,,,,,,,,,,,,,,,
,,6989df4ce6bf3a2e4b6479e1,2026-03-17_11h28.35.988,kallum_motion_pilot_GIST_update_2,2026.1.1,Win32,140.8450704,6989df4ce6bf3a2e4b6479e1,69b92ab4aef6dee357cd729a,69b92bc43f1a506ba98e781a,0.0248,0.0248,0,102,102,58,1,twoone,,,,,,,,,,,,,,,,,,,,,,,,,,,,,,,,,,,,,,,,,,,,,,,,,,,,,,,,,,,,,,,,,,,,,,,,,,,,,,,,,,,,,,,,,,,,,,,,,,,,,,,,,,,,,,,,,,,,,,,,,,,,,,,,,,,,,,,,,
,,6989df4ce6bf3a2e4b6479e1,2026-03-17_11h28.35.988,kallum_motion_pilot_GIST_update_2,2026.1.1,Win32,140.8450704,6989df4ce6bf3a2e4b6479e1,69b92ab4aef6dee357cd729a,69b92bc43f1a506ba98e781a,0.0248,0.0249,0,103,103,114,1,sixfive,,,,,,,,,,,,,,,,,,,,,,,,,,,,,,,,,,,,,,,,,,,,,,,,,,,,,,,,,,,,,,,,,,,,,,,,,,,,,,,,,,,,,,,,,,,,,,,,,,,,,,,,,,,,,,,,,,,,,,,,,,,,,,,,,,,,,,,,,
,,6989df4ce6bf3a2e4b6479e1,2026-03-17_11h28.35.988,kallum_motion_pilot_GIST_update_2,2026.1.1,Win32,140.8450704,6989df4ce6bf3a2e4b6479e1,69b92ab4aef6dee357cd729a,69b92bc43f1a506ba98e781a,0.025,0.025,0,104,104,146,1,sixfive,,,,,,,,,,,,,,,,,,,,,,,,,,,,,,,,,,,,,,,,,,,,,,,,,,,,,,,,,,,,,,,,,,,,,,,,,,,,,,,,,,,,,,,,,,,,,,,,,,,,,,,,,,,,,,,,,,,,,,,,,,,,,,,,,,,,,,,,,
,,6989df4ce6bf3a2e4b6479e1,2026-03-17_11h28.35.988,kallum_motion_pilot_GIST_update_2,2026.1.1,Win32,140.8450704,6989df4ce6bf3a2e4b6479e1,69b92ab4aef6dee357cd729a,69b92bc43f1a506ba98e781a,0.025,0.025,0,105,105,15,1,fourthree,,,,,,,,,,,,,,,,,,,,,,,,,,,,,,,,,,,,,,,,,,,,,,,,,,,,,,,,,,,,,,,,,,,,,,,,,,,,,,,,,,,,,,,,,,,,,,,,,,,,,,,,,,,,,,,,,,,,,,,,,,,,,,,,,,,,,,,,,
,,6989df4ce6bf3a2e4b6479e1,2026-03-17_11h28.35.988,kallum_motion_pilot_GIST_update_2,2026.1.1,Win32,140.8450704,6989df4ce6bf3a2e4b6479e1,69b92ab4aef6dee357cd729a,69b92bc43f1a506ba98e781a,0.0252,0.0252,0,106,106,26,1,twoone,,,,,,,,,,,,,,,,,,,,,,,,,,,,,,,,,,,,,,,,,,,,,,,,,,,,,,,,,,,,,,,,,,,,,,,,,,,,,,,,,,,,,,,,,,,,,,,,,,,,,,,,,,,,,,,,,,,,,,,,,,,,,,,,,,,,,,,,,
,,6989df4ce6bf3a2e4b6479e1,2026-03-17_11h28.35.988,kallum_motion_pilot_GIST_update_2,2026.1.1,Win32,140.8450704,6989df4ce6bf3a2e4b6479e1,69b92ab4aef6dee357cd729a,69b92bc43f1a506ba98e781a,0.0252,0.0252,0,107,107,152,1,fivesix,,,,,,,,,,,,,,,,,,,,,,,,,,,,,,,,,,,,,,,,,,,,,,,,,,,,,,,,,,,,,,,,,,,,,,,,,,,,,,,,,,,,,,,,,,,,,,,,,,,,,,,,,,,,,,,,,,,,,,,,,,,,,,,,,,,,,,,,,
,,6989df4ce6bf3a2e4b6479e1,2026-03-17_11h28.35.988,kallum_motion_pilot_GIST_update_2,2026.1.1,Win32,140.8450704,6989df4ce6bf3a2e4b6479e1,69b92ab4aef6dee357cd729a,69b92bc43f1a506ba98e781a,0.0253,0.0254,0,108,108,16,1,onetwo,,,,,,,,,,,,,,,,,,,,,,,,,,,,,,,,,,,,,,,,,,,,,,,,,,,,,,,,,,,,,,,,,,,,,,,,,,,,,,,,,,,,,,,,,,,,,,,,,,,,,,,,,,,,,,,,,,,,,,,,,,,,,,,,,,,,,,,,,
,,6989df4ce6bf3a2e4b6479e1,2026-03-17_11h28.35.988,kallum_motion_pilot_GIST_update_2,2026.1.1,Win32,140.8450704,6989df4ce6bf3a2e4b6479e1,69b92ab4aef6dee357cd729a,69b92bc43f1a506ba98e781a,0.0254,0.0254,0,109,109,154,1,sixfive,,,,,,,,,,,,,,,,,,,,,,,,,,,,,,,,,,,,,,,,,,,,,,,,,,,,,,,,,,,,,,,,,,,,,,,,,,,,,,,,,,,,,,,,,,,,,,,,,,,,,,,,,,,,,,,,,,,,,,,,,,,,,,,,,,,,,,,,,
,,6989df4ce6bf3a2e4b6479e1,2026-03-17_11h28.35.988,kallum_motion_pilot_GIST_update_2,2026.1.1,Win32,140.8450704,6989df4ce6bf3a2e4b6479e1,69b92ab4aef6dee357cd729a,69b92bc43f1a506ba98e781a,0.0255,0.0255,0,110,110,151,1,eightseven,,,,,,,,,,,,,,,,,,,,,,,,,,,,,,,,,,,,,,,,,,,,,,,,,,,,,,,,,,,,,,,,,,,,,,,,,,,,,,,,,,,,,,,,,,,,,,,,,,,,,,,,,,,,,,,,,,,,,,,,,,,,,,,,,,,,,,,,,
,,6989df4ce6bf3a2e4b6479e1,2026-03-17_11h28.35.988,kallum_motion_pilot_GIST_update_2,2026.1.1,Win32,140.8450704,6989df4ce6bf3a2e4b6479e1,69b92ab4aef6dee357cd729a,69b92bc43f1a506ba98e781a,0.0255,0.0256,0,111,111,37,1,threefour,,,,,,,,,,,,,,,,,,,,,,,,,,,,,,,,,,,,,,,,,,,,,,,,,,,,,,,,,,,,,,,,,,,,,,,,,,,,,,,,,,,,,,,,,,,,,,,,,,,,,,,,,,,,,,,,,,,,,,,,,,,,,,,,,,,,,,,,,
,,6989df4ce6bf3a2e4b6479e1,2026-03-17_11h28.35.988,kallum_motion_pilot_GIST_update_2,2026.1.1,Win32,140.8450704,6989df4ce6bf3a2e4b6479e1,69b92ab4aef6dee357cd729a,69b92bc43f1a506ba98e781a,0.0256,0.0257,0,112,112,74,1,twoone,,,,,,,,,,,,,,,,,,,,,,,,,,,,,,,,,,,,,,,,,,,,,,,,,,,,,,,,,,,,,,,,,,,,,,,,,,,,,,,,,,,,,,,,,,,,,,,,,,,,,,,,,,,,,,,,,,,,,,,,,,,,,,,,,,,,,,,,,
,,6989df4ce6bf3a2e4b6479e1,2026-03-17_11h28.35.988,kallum_motion_pilot_GIST_update_2,2026.1.1,Win32,140.8450704,6989df4ce6bf3a2e4b6479e1,69b92ab4aef6dee357cd729a,69b92bc43f1a506ba98e781a,0.0258,0.0258,0,113,113,59,1,twofour,,,,,,,,,,,,,,,,,,,,,,,,,,,,,,,,,,,,,,,,,,,,,,,,,,,,,,,,,,,,,,,,,,,,,,,,,,,,,,,,,,,,,,,,,,,,,,,,,,,,,,,,,,,,,,,,,,,,,,,,,,,,,,,,,,,,,,,,,
,,6989df4ce6bf3a2e4b6479e1,2026-03-17_11h28.35.988,kallum_motion_pilot_GIST_update_2,2026.1.1,Win32,140.8450704,6989df4ce6bf3a2e4b6479e1,69b92ab4aef6dee357cd729a,69b92bc43f1a506ba98e781a,0.0258,0.0259,0,114,114,55,1,fourthree,,,,,,,,,,,,,,,,,,,,,,,,,,,,,,,,,,,,,,,,,,,,,,,,,,,,,,,,,,,,,,,,,,,,,,,,,,,,,,,,,,,,,,,,,,,,,,,,,,,,,,,,,,,,,,,,,,,,,,,,,,,,,,,,,,,,,,,,,
,,6989df4ce6bf3a2e4b6479e1,2026-03-17_11h28.35.988,kallum_motion_pilot_GIST_update_2,2026.1.1,Win32,140.8450704,6989df4ce6bf3a2e4b6479e1,69b92ab4aef6dee357cd729a,69b92bc43f1a506ba98e781a,0.026,0.026,0,115,115,148,1,sevenfive,,,,,,,,,,,,,,,,,,,,,,,,,,,,,,,,,,,,,,,,,,,,,,,,,,,,,,,,,,,,,,,,,,,,,,,,,,,,,,,,,,,,,,,,,,,,,,,,,,,,,,,,,,,,,,,,,,,,,,,,,,,,,,,,,,,,,,,,,
,,6989df4ce6bf3a2e4b6479e1,2026-03-17_11h28.35.988,kallum_motion_pilot_GIST_update_2,2026.1.1,Win32,140.8450704,6989df4ce6bf3a2e4b6479e1,69b92ab4aef6dee357cd729a,69b92bc43f1a506ba98e781a,0.0261,0.0262,0,116,116,1,1,onethree,,,,,,,,,,,,,,,,,,,,,,,,,,,,,,,,,,,,,,,,,,,,,,,,,,,,,,,,,,,,,,,,,,,,,,,,,,,,,,,,,,,,,,,,,,,,,,,,,,,,,,,,,,,,,,,,,,,,,,,,,,,,,,,,,,,,,,,,,
,,6989df4ce6bf3a2e4b6479e1,2026-03-17_11h28.35.988,kallum_motion_pilot_GIST_update_2,2026.1.1,Win32,140.8450704,6989df4ce6bf3a2e4b6479e1,69b92ab4aef6dee357cd729a,69b92bc43f1a506ba98e781a,0.0263,0.0263,0,117,117,149,1,seveneight,,,,,,,,,,,,,,,,,,,,,,,,,,,,,,,,,,,,,,,,,,,,,,,,,,,,,,,,,,,,,,,,,,,,,,,,,,,,,,,,,,,,,,,,,,,,,,,,,,,,,,,,,,,,,,,,,,,,,,,,,,,,,,,,,,,,,,,,,
,,6989df4ce6bf3a2e4b6479e1,2026-03-17_11h28.35.988,kallum_motion_pilot_GIST_update_2,2026.1.1,Win32,140.8450704,6989df4ce6bf3a2e4b6479e1,69b92ab4aef6dee357cd729a,69b92bc43f1a506ba98e781a,0.0264,0.0265,0,118,118,45,1,threefour,,,,,,,,,,,,,,,,,,,,,,,,,,,,,,,,,,,,,,,,,,,,,,,,,,,,,,,,,,,,,,,,,,,,,,,,,,,,,,,,,,,,,,,,,,,,,,,,,,,,,,,,,,,,,,,,,,,,,,,,,,,,,,,,,,,,,,,,,
,,6989df4ce6bf3a2e4b6479e1,2026-03-17_11h28.35.988,kallum_motion_pilot_GIST_update_2,2026.1.1,Win32,140.8450704,6989df4ce6bf3a2e4b6479e1,69b92ab4aef6dee357cd729a,69b92bc43f1a506ba98e781a,0.0266,0.0266,0,119,119,112,1,fivesix,,,,,,,,,,,,,,,,,,,,,,,,,,,,,,,,,,,,,,,,,,,,,,,,,,,,,,,,,,,,,,,,,,,,,,,,,,,,,,,,,,,,,,,,,,,,,,,,,,,,,,,,,,,,,,,,,,,,,,,,,,,,,,,,,,,,,,,,,
,,6989df4ce6bf3a2e4b6479e1,2026-03-17_11h28.35.988,kallum_motion_pilot_GIST_update_2,2026.1.1,Win32,140.8450704,6989df4ce6bf3a2e4b6479e1,69b92ab4aef6dee357cd729a,69b92bc43f1a506ba98e781a,0.0268,0.0268,0,120,120,20,1,threeone,,,,,,,,,,,,,,,,,,,,,,,,,,,,,,,,,,,,,,,,,,,,,,,,,,,,,,,,,,,,,,,,,,,,,,,,,,,,,,,,,,,,,,,,,,,,,,,,,,,,,,,,,,,,,,,,,,,,,,,,,,,,,,,,,,,,,,,,,
,,6989df4ce6bf3a2e4b6479e1,2026-03-17_11h28.35.988,kallum_motion_pilot_GIST_update_2,2026.1.1,Win32,140.8450704,6989df4ce6bf3a2e4b6479e1,69b92ab4aef6dee357cd729a,69b92bc43f1a506ba98e781a,0.0269,0.0269,0,121,121,142,1,eightsix,,,,,,,,,,,,,,,,,,,,,,,,,,,,,,,,,,,,,,,,,,,,,,,,,,,,,,,,,,,,,,,,,,,,,,,,,,,,,,,,,,,,,,,,,,,,,,,,,,,,,,,,,,,,,,,,,,,,,,,,,,,,,,,,,,,,,,,,,
,,6989df4ce6bf3a2e4b6479e1,2026-03-17_11h28.35.988,kallum_motion_pilot_GIST_update_2,2026.1.1,Win32,140.8450704,6989df4ce6bf3a2e4b6479e1,69b92ab4aef6dee357cd729a,69b92bc43f1a506ba98e781a,0.027,0.027,0,122,122,9,1,onethree,,,,,,,,,,,,,,,,,,,,,,,,,,,,,,,,,,,,,,,,,,,,,,,,,,,,,,,,,,,,,,,,,,,,,,,,,,,,,,,,,,,,,,,,,,,,,,,,,,,,,,,,,,,,,,,,,,,,,,,,,,,,,,,,,,,,,,,,,
,,6989df4ce6bf3a2e4b6479e1,2026-03-17_11h28.35.988,kallum_motion_pilot_GIST_update_2,2026.1.1,Win32,140.8450704,6989df4ce6bf3a2e4b6479e1,69b92ab4aef6dee357cd729a,69b92bc43f1a506ba98e781a,0.0272,0.0272,0,123,123,156,1,sevenfive,,,,,,,,,,,,,,,,,,,,,,,,,,,,,,,,,,,,,,,,,,,,,,,,,,,,,,,,,,,,,,,,,,,,,,,,,,,,,,,,,,,,,,,,,,,,,,,,,,,,,,,,,,,,,,,,,,,,,,,,,,,,,,,,,,,,,,,,,
,,6989df4ce6bf3a2e4b6479e1,2026-03-17_11h28.35.988,kallum_motion_pilot_GIST_update_2,2026.1.1,Win32,140.8450704,6989df4ce6bf3a2e4b6479e1,69b92ab4aef6dee357cd729a,69b92bc43f1a506ba98e781a,0.0273,0.0273,0,124,124,46,1,fourtwo,,,,,,,,,,,,,,,,,,,,,,,,,,,,,,,,,,,,,,,,,,,,,,,,,,,,,,,,,,,,,,,,,,,,,,,,,,,,,,,,,,,,,,,,,,,,,,,,,,,,,,,,,,,,,,,,,,,,,,,,,,,,,,,,,,,,,,,,,
,,6989df4ce6bf3a2e4b6479e1,2026-03-17_11h28.35.988,kallum_motion_pilot_GIST_update_2,2026.1.1,Win32,140.8450704,6989df4ce6bf3a2e4b6479e1,69b92ab4aef6dee357cd729a,69b92bc43f1a506ba98e781a,0.0275,0.0275,0,125,125,39,1,fourthree,,,,,,,,,,,,,,,,,,,,,,,,,,,,,,,,,,,,,,,,,,,,,,,,,,,,,,,,,,,,,,,,,,,,,,,,,,,,,,,,,,,,,,,,,,,,,,,,,,,,,,,,,,,,,,,,,,,,,,,,,,,,,,,,,,,,,,,,,
,,6989df4ce6bf3a2e4b6479e1,2026-03-17_11h28.35.988,kallum_motion_pilot_GIST_update_2,2026.1.1,Win32,140.8450704,6989df4ce6bf3a2e4b6479e1,69b92ab4aef6dee357cd729a,69b92bc43f1a506ba98e781a,0.0276,0.0276,0,126,126,88,1,fivesix,,,,,,,,,,,,,,,,,,,,,,,,,,,,,,,,,,,,,,,,,,,,,,,,,,,,,,,,,,,,,,,,,,,,,,,,,,,,,,,,,,,,,,,,,,,,,,,,,,,,,,,,,,,,,,,,,,,,,,,,,,,,,,,,,,,,,,,,,
,,6989df4ce6bf3a2e4b6479e1,2026-03-17_11h28.35.988,kallum_motion_pilot_GIST_update_2,2026.1.1,Win32,140.8450704,6989df4ce6bf3a2e4b6479e1,69b92ab4aef6dee357cd729a,69b92bc43f1a506ba98e781a,0.0277,0.0277,0,127,127,121,1,fiveseven,,,,,,,,,,,,,,,,,,,,,,,,,,,,,,,,,,,,,,,,,,,,,,,,,,,,,,,,,,,,,,,,,,,,,,,,,,,,,,,,,,,,,,,,,,,,,,,,,,,,,,,,,,,,,,,,,,,,,,,,,,,,,,,,,,,,,,,,,
,,6989df4ce6bf3a2e4b6479e1,2026-03-17_11h28.35.988,kallum_motion_pilot_GIST_update_2,2026.1.1,Win32,140.8450704,6989df4ce6bf3a2e4b6479e1,69b92ab4aef6dee357cd729a,69b92bc43f1a506ba98e781a,0.0279,0.0279,0,128,128,22,1,fourtwo,,,,,,,,,,,,,,,,,,,,,,,,,,,,,,,,,,,,,,,,,,,,,,,,,,,,,,,,,,,,,,,,,,,,,,,,,,,,,,,,,,,,,,,,,,,,,,,,,,,,,,,,,,,,,,,,,,,,,,,,,,,,,,,,,,,,,,,,,
,,6989df4ce6bf3a2e4b6479e1,2026-03-17_11h28.35.988,kallum_motion_pilot_GIST_update_2,2026.1.1,Win32,140.8450704,6989df4ce6bf3a2e4b6479e1,69b92ab4aef6dee357cd729a,69b92bc43f1a506ba98e781a,0.0279,0.0279,0,129,129,61,1,threefour,,,,,,,,,,,,,,,,,,,,,,,,,,,,,,,,,,,,,,,,,,,,,,,,,,,,,,,,,,,,,,,,,,,,,,,,,,,,,,,,,,,,,,,,,,,,,,,,,,,,,,,,,,,,,,,,,,,,,,,,,,,,,,,,,,,,,,,,,
,,6989df4ce6bf3a2e4b6479e1,2026-03-17_11h28.35.988,kallum_motion_pilot_GIST_update_2,2026.1.1,Win32,140.8450704,6989df4ce6bf3a2e4b6479e1,69b92ab4aef6dee357cd729a,69b92bc43f1a506ba98e781a,0.028,0.028,0,130,130,96,1,fivesix,,,,,,,,,,,,,,,,,,,,,,,,,,,,,,,,,,,,,,,,,,,,,,,,,,,,,,,,,,,,,,,,,,,,,,,,,,,,,,,,,,,,,,,,,,,,,,,,,,,,,,,,,,,,,,,,,,,,,,,,,,,,,,,,,,,,,,,,,
,,6989df4ce6bf3a2e4b6479e1,2026-03-17_11h28.35.988,kallum_motion_pilot_GIST_update_2,2026.1.1,Win32,140.8450704,6989df4ce6bf3a2e4b6479e1,69b92ab4aef6dee357cd729a,69b92bc43f1a506ba98e781a,0.0281,0.0281,0,131,131,109,1,seveneight,,,,,,,,,,,,,,,,,,,,,,,,,,,,,,,,,,,,,,,,,,,,,,,,,,,,,,,,,,,,,,,,,,,,,,,,,,,,,,,,,,,,,,,,,,,,,,,,,,,,,,,,,,,,,,,,,,,,,,,,,,,,,,,,,,,,,,,,,
,,6989df4ce6bf3a2e4b6479e1,2026-03-17_11h28.35.988,kallum_motion_pilot_GIST_update_2,2026.1.1,Win32,140.8450704,6989df4ce6bf3a2e4b6479e1,69b92ab4aef6dee357cd729a,69b92bc43f1a506ba98e781a,0.0281,0.0281,0,132,132,84,1,sevenfive,,,,,,,,,,,,,,,,,,,,,,,,,,,,,,,,,,,,,,,,,,,,,,,,,,,,,,,,,,,,,,,,,,,,,,,,,,,,,,,,,,,,,,,,,,,,,,,,,,,,,,,,,,,,,,,,,,,,,,,,,,,,,,,,,,,,,,,,,
,,6989df4ce6bf3a2e4b6479e1,2026-03-17_11h28.35.988,kallum_motion_pilot_GIST_update_2,2026.1.1,Win32,140.8450704,6989df4ce6bf3a2e4b6479e1,69b92ab4aef6dee357cd729a,69b92bc43f1a506ba98e781a,0.0282,0.0282,0,133,133,93,1,seveneight,,,,,,,,,,,,,,,,,,,,,,,,,,,,,,,,,,,,,,,,,,,,,,,,,,,,,,,,,,,,,,,,,,,,,,,,,,,,,,,,,,,,,,,,,,,,,,,,,,,,,,,,,,,,,,,,,,,,,,,,,,,,,,,,,,,,,,,,,
,,6989df4ce6bf3a2e4b6479e1,2026-03-17_11h28.35.988,kallum_motion_pilot_GIST_update_2,2026.1.1,Win32,140.8450704,6989df4ce6bf3a2e4b6479e1,69b92ab4aef6dee357cd729a,69b92bc43f1a506ba98e781a,0.0283,0.0283,0,134,134,106,1,sixfive,,,,,,,,,,,,,,,,,,,,,,,,,,,,,,,,,,,,,,,,,,,,,,,,,,,,,,,,,,,,,,,,,,,,,,,,,,,,,,,,,,,,,,,,,,,,,,,,,,,,,,,,,,,,,,,,,,,,,,,,,,,,,,,,,,,,,,,,,
,,6989df4ce6bf3a2e4b6479e1,2026-03-17_11h28.35.988,kallum_motion_pilot_GIST_update_2,2026.1.1,Win32,140.8450704,6989df4ce6bf3a2e4b6479e1,69b92ab4aef6dee357cd729a,69b92bc43f1a506ba98e781a,0.0285,0.0285,0,135,135,117,1,seveneight,,,,,,,,,,,,,,,,,,,,,,,,,,,,,,,,,,,,,,,,,,,,,,,,,,,,,,,,,,,,,,,,,,,,,,,,,,,,,,,,,,,,,,,,,,,,,,,,,,,,,,,,,,,,,,,,,,,,,,,,,,,,,,,,,,,,,,,,,
,,6989df4ce6bf3a2e4b6479e1,2026-03-17_11h28.35.988,kallum_motion_pilot_GIST_update_2,2026.1.1,Win32,140.8450704,6989df4ce6bf3a2e4b6479e1,69b92ab4aef6dee357cd729a,69b92bc43f1a506ba98e781a,0.0285,0.0285,0,136,136,66,1,twoone,,,,,,,,,,,,,,,,,,,,,,,,,,,,,,,,,,,,,,,,,,,,,,,,,,,,,,,,,,,,,,,,,,,,,,,,,,,,,,,,,,,,,,,,,,,,,,,,,,,,,,,,,,,,,,,,,,,,,,,,,,,,,,,,,,,,,,,,,
,,6989df4ce6bf3a2e4b6479e1,2026-03-17_11h28.35.988,kallum_motion_pilot_GIST_update_2,2026.1.1,Win32,140.8450704,6989df4ce6bf3a2e4b6479e1,69b92ab4aef6dee357cd729a,69b92bc43f1a506ba98e781a,0.0286,0.0286,0,137,137,49,1,onethree,,,,,,,,,,,,,,,,,,,,,,,,,,,,,,,,,,,,,,,,,,,,,,,,,,,,,,,,,,,,,,,,,,,,,,,,,,,,,,,,,,,,,,,,,,,,,,,,,,,,,,,,,,,,,,,,,,,,,,,,,,,,,,,,,,,,,,,,,
,,6989df4ce6bf3a2e4b6479e1,2026-03-17_11h28.35.988,kallum_motion_pilot_GIST_update_2,2026.1.1,Win32,140.8450704,6989df4ce6bf3a2e4b6479e1,69b92ab4aef6dee357cd729a,69b92bc43f1a506ba98e781a,0.0287,0.0287,0,138,138,41,1,onethree,,,,,,,,,,,,,,,,,,,,,,,,,,,,,,,,,,,,,,,,,,,,,,,,,,,,,,,,,,,,,,,,,,,,,,,,,,,,,,,,,,,,,,,,,,,,,,,,,,,,,,,,,,,,,,,,,,,,,,,,,,,,,,,,,,,,,,,,,
,,6989df4ce6bf3a2e4b6479e1,2026-03-17_11h28.35.988,kallum_motion_pilot_GIST_update_2,2026.1.1,Win32,140.8450704,6989df4ce6bf3a2e4b6479e1,69b92ab4aef6dee357cd729a,69b92bc43f1a506ba98e781a,0.0287,0.0288,0,139,139,43,1,twofour,,,,,,,,,,,,,,,,,,,,,,,,,,,,,,,,,,,,,,,,,,,,,,,,,,,,,,,,,,,,,,,,,,,,,,,,,,,,,,,,,,,,,,,,,,,,,,,,,,,,,,,,,,,,,,,,,,,,,,,,,,,,,,,,,,,,,,,,,
,,6989df4ce6bf3a2e4b6479e1,2026-03-17_11h28.35.988,kallum_motion_pilot_GIST_update_2,2026.1.1,Win32,140.8450704,6989df4ce6bf3a2e4b6479e1,69b92ab4aef6dee357cd729a,69b92bc43f1a506ba98e781a,0.0289,0.0289,0,140,140,136,1,fivesix,,,,,,,,,,,,,,,,,,,,,,,,,,,,,,,,,,,,,,,,,,,,,,,,,,,,,,,,,,,,,,,,,,,,,,,,,,,,,,,,,,,,,,,,,,,,,,,,,,,,,,,,,,,,,,,,,,,,,,,,,,,,,,,,,,,,,,,,,
,,6989df4ce6bf3a2e4b6479e1,2026-03-17_11h28.35.988,kallum_motion_pilot_GIST_update_2,2026.1.1,Win32,140.8450704,6989df4ce6bf3a2e4b6479e1,69b92ab4aef6dee357cd729a,69b92bc43f1a506ba98e781a,0.0289,0.0289,0,141,141,147,1,sixeight,,,,,,,,,,,,,,,,,,,,,,,,,,,,,,,,,,,,,,,,,,,,,,,,,,,,,,,,,,,,,,,,,,,,,,,,,,,,,,,,,,,,,,,,,,,,,,,,,,,,,,,,,,,,,,,,,,,,,,,,,,,,,,,,,,,,,,,,,
,,6989df4ce6bf3a2e4b6479e1,2026-03-17_11h28.35.988,kallum_motion_pilot_GIST_update_2,2026.1.1,Win32,140.8450704,6989df4ce6bf3a2e4b6479e1,69b92ab4aef6dee357cd729a,69b92bc43f1a506ba98e781a,0.029,0.029,0,142,142,101,1,seveneight,,,,,,,,,,,,,,,,,,,,,,,,,,,,,,,,,,,,,,,,,,,,,,,,,,,,,,,,,,,,,,,,,,,,,,,,,,,,,,,,,,,,,,,,,,,,,,,,,,,,,,,,,,,,,,,,,,,,,,,,,,,,,,,,,,,,,,,,,
,,6989df4ce6bf3a2e4b6479e1,2026-03-17_11h28.35.988,kallum_motion_pilot_GIST_update_2,2026.1.1,Win32,140.8450704,6989df4ce6bf3a2e4b6479e1,69b92ab4aef6dee357cd729a,69b92bc43f1a506ba98e781a,0.0291,0.0291,0,143,143,30,1,fourtwo,,,,,,,,,,,,,,,,,,,,,,,,,,,,,,,,,,,,,,,,,,,,,,,,,,,,,,,,,,,,,,,,,,,,,,,,,,,,,,,,,,,,,,,,,,,,,,,,,,,,,,,,,,,,,,,,,,,,,,,,,,,,,,,,,,,,,,,,,
,,6989df4ce6bf3a2e4b6479e1,2026-03-17_11h28.35.988,kallum_motion_pilot_GIST_update_2,2026.1.1,Win32,140.8450704,6989df4ce6bf3a2e4b6479e1,69b92ab4aef6dee357cd729a,69b92bc43f1a506ba98e781a,0.0291,0.0291,0,144,144,153,1,fiveseven,,,,,,,,,,,,,,,,,,,,,,,,,,,,,,,,,,,,,,,,,,,,,,,,,,,,,,,,,,,,,,,,,,,,,,,,,,,,,,,,,,,,,,,,,,,,,,,,,,,,,,,,,,,,,,,,,,,,,,,,,,,,,,,,,,,,,,,,,
,,6989df4ce6bf3a2e4b6479e1,2026-03-17_11h28.35.988,kallum_motion_pilot_GIST_update_2,2026.1.1,Win32,140.8450704,6989df4ce6bf3a2e4b6479e1,69b92ab4aef6dee357cd729a,69b92bc43f1a506ba98e781a,0.0292,0.0292,0,145,145,40,1,onetwo,,,,,,,,,,,,,,,,,,,,,,,,,,,,,,,,,,,,,,,,,,,,,,,,,,,,,,,,,,,,,,,,,,,,,,,,,,,,,,,,,,,,,,,,,,,,,,,,,,,,,,,,,,,,,,,,,,,,,,,,,,,,,,,,,,,,,,,,,
,,6989df4ce6bf3a2e4b6479e1,2026-03-17_11h28.35.988,kallum_motion_pilot_GIST_update_2,2026.1.1,Win32,140.8450704,6989df4ce6bf3a2e4b6479e1,69b92ab4aef6dee357cd729a,69b92bc43f1a506ba98e781a,0.0293,0.0294,0,146,146,134,1,eightsix,,,,,,,,,,,,,,,,,,,,,,,,,,,,,,,,,,,,,,,,,,,,,,,,,,,,,,,,,,,,,,,,,,,,,,,,,,,,,,,,,,,,,,,,,,,,,,,,,,,,,,,,,,,,,,,,,,,,,,,,,,,,,,,,,,,,,,,,,
,,6989df4ce6bf3a2e4b6479e1,2026-03-17_11h28.35.988,kallum_motion_pilot_GIST_update_2,2026.1.1,Win32,140.8450704,6989df4ce6bf3a2e4b6479e1,69b92ab4aef6dee357cd729a,69b92bc43f1a506ba98e781a,0.0295,0.0296,0,147,147,95,1,eightseven,,,,,,,,,,,,,,,,,,,,,,,,,,,,,,,,,,,,,,,,,,,,,,,,,,,,,,,,,,,,,,,,,,,,,,,,,,,,,,,,,,,,,,,,,,,,,,,,,,,,,,,,,,,,,,,,,,,,,,,,,,,,,,,,,,,,,,,,,
,,6989df4ce6bf3a2e4b6479e1,2026-03-17_11h28.35.988,kallum_motion_pilot_GIST_update_2,2026.1.1,Win32,140.8450704,6989df4ce6bf3a2e4b6479e1,69b92ab4aef6dee357cd729a,69b92bc43f1a506ba98e781a,0.0297,0.0297,0,148,148,6,1,fourtwo,,,,,,,,,,,,,,,,,,,,,,,,,,,,,,,,,,,,,,,,,,,,,,,,,,,,,,,,,,,,,,,,,,,,,,,,,,,,,,,,,,,,,,,,,,,,,,,,,,,,,,,,,,,,,,,,,,,,,,,,,,,,,,,,,,,,,,,,,
,,6989df4ce6bf3a2e4b6479e1,2026-03-17_11h28.35.988,kallum_motion_pilot_GIST_update_2,2026.1.1,Win32,140.8450704,6989df4ce6bf3a2e4b6479e1,69b92ab4aef6dee357cd729a,69b92bc43f1a506ba98e781a,0.0298,0.0298,0,149,149,108,1,sevenfive,,,,,,,,,,,,,,,,,,,,,,,,,,,,,,,,,,,,,,,,,,,,,,,,,,,,,,,,,,,,,,,,,,,,,,,,,,,,,,,,,,,,,,,,,,,,,,,,,,,,,,,,,,,,,,,,,,,,,,,,,,,,,,,,,,,,,,,,,
,,6989df4ce6bf3a2e4b6479e1,2026-03-17_11h28.35.988,kallum_motion_pilot_GIST_update_2,2026.1.1,Win32,140.8450704,6989df4ce6bf3a2e4b6479e1,69b92ab4aef6dee357cd729a,69b92bc43f1a506ba98e781a,0.0299,0.0299,0,150,150,89,1,fiveseven,,,,,,,,,,,,,,,,,,,,,,,,,,,,,,,,,,,,,,,,,,,,,,,,,,,,,,,,,,,,,,,,,,,,,,,,,,,,,,,,,,,,,,,,,,,,,,,,,,,,,,,,,,,,,,,,,,,,,,,,,,,,,,,,,,,,,,,,,
,,6989df4ce6bf3a2e4b6479e1,2026-03-17_11h28.35.988,kallum_motion_pilot_GIST_update_2,2026.1.1,Win32,140.8450704,6989df4ce6bf3a2e4b6479e1,69b92ab4aef6dee357cd729a,69b92bc43f1a506ba98e781a,0.03,0.03,0,151,151,97,1,fiveseven,,,,,,,,,,,,,,,,,,,,,,,,,,,,,,,,,,,,,,,,,,,,,,,,,,,,,,,,,,,,,,,,,,,,,,,,,,,,,,,,,,,,,,,,,,,,,,,,,,,,,,,,,,,,,,,,,,,,,,,,,,,,,,,,,,,,,,,,,
,,6989df4ce6bf3a2e4b6479e1,2026-03-17_11h28.35.988,kallum_motion_pilot_GIST_update_2,2026.1.1,Win32,140.8450704,6989df4ce6bf3a2e4b6479e1,69b92ab4aef6dee357cd729a,69b92bc43f1a506ba98e781a,0.0301,0.0301,0,152,152,140,1,sevenfive,,,,,,,,,,,,,,,,,,,,,,,,,,,,,,,,,,,,,,,,,,,,,,,,,,,,,,,,,,,,,,,,,,,,,,,,,,,,,,,,,,,,,,,,,,,,,,,,,,,,,,,,,,,,,,,,,,,,,,,,,,,,,,,,,,,,,,,,,
,,6989df4ce6bf3a2e4b6479e1,2026-03-17_11h28.35.988,kallum_motion_pilot_GIST_update_2,2026.1.1,Win32,140.8450704,6989df4ce6bf3a2e4b6479e1,69b92ab4aef6dee357cd729a,69b92bc43f1a506ba98e781a,0.0301,0.0302,0,153,153,57,1,onethree,,,,,,,,,,,,,,,,,,,,,,,,,,,,,,,,,,,,,,,,,,,,,,,,,,,,,,,,,,,,,,,,,,,,,,,,,,,,,,,,,,,,,,,,,,,,,,,,,,,,,,,,,,,,,,,,,,,,,,,,,,,,,,,,,,,,,,,,,
,,6989df4ce6bf3a2e4b6479e1,2026-03-17_11h28.35.988,kallum_motion_pilot_GIST_update_2,2026.1.1,Win32,140.8450704,6989df4ce6bf3a2e4b6479e1,69b92ab4aef6dee357cd729a,69b92bc43f1a506ba98e781a,0.0303,0.0303,0,154,154,80,1,fivesix,,,,,,,,,,,,,,,,,,,,,,,,,,,,,,,,,,,,,,,,,,,,,,,,,,,,,,,,,,,,,,,,,,,,,,,,,,,,,,,,,,,,,,,,,,,,,,,,,,,,,,,,,,,,,,,,,,,,,,,,,,,,,,,,,,,,,,,,,
,,6989df4ce6bf3a2e4b6479e1,2026-03-17_11h28.35.988,kallum_motion_pilot_GIST_update_2,2026.1.1,Win32,140.8450704,6989df4ce6bf3a2e4b6479e1,69b92ab4aef6dee357cd729a,69b92bc43f1a506ba98e781a,0.0304,0.0304,0,155,155,32,1,onetwo,,,,,,,,,,,,,,,,,,,,,,,,,,,,,,,,,,,,,,,,,,,,,,,,,,,,,,,,,,,,,,,,,,,,,,,,,,,,,,,,,,,,,,,,,,,,,,,,,,,,,,,,,,,,,,,,,,,,,,,,,,,,,,,,,,,,,,,,,
,,6989df4ce6bf3a2e4b6479e1,2026-03-17_11h28.35.988,kallum_motion_pilot_GIST_update_2,2026.1.1,Win32,140.8450704,6989df4ce6bf3a2e4b6479e1,69b92ab4aef6dee357cd729a,69b92bc43f1a506ba98e781a,0.0305,0.0305,0,156,156,36,1,threeone,,,,,,,,,,,,,,,,,,,,,,,,,,,,,,,,,,,,,,,,,,,,,,,,,,,,,,,,,,,,,,,,,,,,,,,,,,,,,,,,,,,,,,,,,,,,,,,,,,,,,,,,,,,,,,,,,,,,,,,,,,,,,,,,,,,,,,,,,
,,6989df4ce6bf3a2e4b6479e1,2026-03-17_11h28.35.988,kallum_motion_pilot_GIST_update_2,2026.1.1,Win32,140.8450704,6989df4ce6bf3a2e4b6479e1,69b92ab4aef6dee357cd729a,69b92bc43f1a506ba98e781a,0.0305,0.0306,0,157,157,44,1,threeone,,,,,,,,,,,,,,,,,,,,,,,,,,,,,,,,,,,,,,,,,,,,,,,,,,,,,,,,,,,,,,,,,,,,,,,,,,,,,,,,,,,,,,,,,,,,,,,,,,,,,,,,,,,,,,,,,,,,,,,,,,,,,,,,,,,,,,,,,
,,6989df4ce6bf3a2e4b6479e1,2026-03-17_11h28.35.988,kallum_motion_pilot_GIST_update_2,2026.1.1,Win32,140.8450704,6989df4ce6bf3a2e4b6479e1,69b92ab4aef6dee357cd729a,69b92bc43f1a506ba98e781a,0.0307,0.0307,0,158,158,150,1,eightsix,,,,,,,,,,,,,,,,,,,,,,,,,,,,,,,,,,,,,,,,,,,,,,,,,,,,,,,,,,,,,,,,,,,,,,,,,,,,,,,,,,,,,,,,,,,,,,,,,,,,,,,,,,,,,,,,,,,,,,,,,,,,,,,,,,,,,,,,,
,,6989df4ce6bf3a2e4b6479e1,2026-03-17_11h28.35.988,kallum_motion_pilot_GIST_update_2,2026.1.1,Win32,140.8450704,6989df4ce6bf3a2e4b6479e1,69b92ab4aef6dee357cd729a,69b92bc43f1a506ba98e781a,0.0308,0.0308,0,159,159,67,1,twofour,,,,,,,,,,,,,,,,,,,,,,,,,,,,,,,,,,,,,,,,,,,,,,,,,,,,,,,,,,,,,,,,,,,,,,,,,,,,,,,,,,,,,,,,,,,,,,,,,,,,,,,,,,,,,,,,,,,,,,,,,,,,,,,,,,,,,,,,,
,,6989df4ce6bf3a2e4b6479e1,2026-03-17_11h28.35.988,kallum_motion_pilot_GIST_update_2,2026.1.1,Win32,140.8450704,6989df4ce6bf3a2e4b6479e1,69b92ab4aef6dee357cd729a,69b92bc43f1a506ba98e781a,0.031,0.031,0,160,160,7,1,fourthree,,,,,,,,,,,,,,,,,,,,,,,,,,,,,,,,,,,,,,,,,,,,,,,,,,,,,,,,,,,,,,,,,,,,,,,,,,,,,,,,,,,,,,,,,,,,,,,,,,,,,,,,,,,,,,,,,,,,,,,,,,,,,,,,,,,,,,,,,
,,6989df4ce6bf3a2e4b6479e1,2026-03-17_11h28.35.988,kallum_motion_pilot_GIST_update_2,2026.1.1,Win32,140.8450704,6989df4ce6bf3a2e4b6479e1,69b92ab4aef6dee357cd729a,69b92bc43f1a506ba98e781a,0.0311,0.0312,0,161,161,141,1,seveneight,,,,,,,,,,,,,,,,,,,,,,,,,,,,,,,,,,,,,,,,,,,,,,,,,,,,,,,,,,,,,,,,,,,,,,,,,,,,,,,,,,,,,,,,,,,,,,,,,,,,,,,,,,,,,,,,,,,,,,,,,,,,,,,,,,,,,,,,,
,,6989df4ce6bf3a2e4b6479e1,2026-03-17_11h28.35.988,kallum_motion_pilot_GIST_update_2,2026.1.1,Win32,140.8450704,6989df4ce6bf3a2e4b6479e1,69b92ab4aef6dee357cd729a,69b92bc43f1a506ba98e781a,0.0313,0.0313,1,0,162,123,1,sixeight,,,,,,,,,,,,,,,,,,,,,,,,,,,,,,,,,,,,,,,,,,,,,,,,,,,,,,,,,,,,,,,,,,,,,,,,,,,,,,,,,,,,,,,,,,,,,,,,,,,,,,,,,,,,,,,,,,,,,,,,,,,,,,,,,,,,,,,,,
,,6989df4ce6bf3a2e4b6479e1,2026-03-17_11h28.35.988,kallum_motion_pilot_GIST_update_2,2026.1.1,Win32,140.8450704,6989df4ce6bf3a2e4b6479e1,69b92ab4aef6dee357cd729a,69b92bc43f1a506ba98e781a,0.0314,0.0314,1,1,163,63,1,fourthree,,,,,,,,,,,,,,,,,,,,,,,,,,,,,,,,,,,,,,,,,,,,,,,,,,,,,,,,,,,,,,,,,,,,,,,,,,,,,,,,,,,,,,,,,,,,,,,,,,,,,,,,,,,,,,,,,,,,,,,,,,,,,,,,,,,,,,,,,
,,6989df4ce6bf3a2e4b6479e1,2026-03-17_11h28.35.988,kallum_motion_pilot_GIST_update_2,2026.1.1,Win32,140.8450704,6989df4ce6bf3a2e4b6479e1,69b92ab4aef6dee357cd729a,69b92bc43f1a506ba98e781a,0.0315,0.0315,1,2,164,4,1,threeone,,,,,,,,,,,,,,,,,,,,,,,,,,,,,,,,,,,,,,,,,,,,,,,,,,,,,,,,,,,,,,,,,,,,,,,,,,,,,,,,,,,,,,,,,,,,,,,,,,,,,,,,,,,,,,,,,,,,,,,,,,,,,,,,,,,,,,,,,
,,6989df4ce6bf3a2e4b6479e1,2026-03-17_11h28.35.988,kallum_motion_pilot_GIST_update_2,2026.1.1,Win32,140.8450704,6989df4ce6bf3a2e4b6479e1,69b92ab4aef6dee357cd729a,69b92bc43f1a506ba98e781a,0.0345,0.0345,1,3,165,71,1,fourthree,,,,,,,,,,,,,,,,,,,,,,,,,,,,,,,,,,,,,,,,,,,,,,,,,,,,,,,,,,,,,,,,,,,,,,,,,,,,,,,,,,,,,,,,,,,,,,,,,,,,,,,,,,,,,,,,,,,,,,,,,,,,,,,,,,,,,,,,,
,,6989df4ce6bf3a2e4b6479e1,2026-03-17_11h28.35.988,kallum_motion_pilot_GIST_update_2,2026.1.1,Win32,140.8450704,6989df4ce6bf3a2e4b6479e1,69b92ab4aef6dee357cd729a,69b92bc43f1a506ba98e781a,0.0347,0.0347,1,4,166,55,1,fourthree,,,,,,,,,,,,,,,,,,,,,,,,,,,,,,,,,,,,,,,,,,,,,,,,,,,,,,,,,,,,,,,,,,,,,,,,,,,,,,,,,,,,,,,,,,,,,,,,,,,,,,,,,,,,,,,,,,,,,,,,,,,,,,,,,,,,,,,,,
,,6989df4ce6bf3a2e4b6479e1,2026-03-17_11h28.35.988,kallum_motion_pilot_GIST_update_2,2026.1.1,Win32,140.8450704,6989df4ce6bf3a2e4b6479e1,69b92ab4aef6dee357cd729a,69b92bc43f1a506ba98e781a,0.0347,0.0347,1,5,167,131,1,sixeight,,,,,,,,,,,,,,,,,,,,,,,,,,,,,,,,,,,,,,,,,,,,,,,,,,,,,,,,,,,,,,,,,,,,,,,,,,,,,,,,,,,,,,,,,,,,,,,,,,,,,,,,,,,,,,,,,,,,,,,,,,,,,,,,,,,,,,,,,
,,6989df4ce6bf3a2e4b6479e1,2026-03-17_11h28.35.988,kallum_motion_pilot_GIST_update_2,2026.1.1,Win32,140.8450704,6989df4ce6bf3a2e4b6479e1,69b92ab4aef6dee357cd729a,69b92bc43f1a506ba98e781a,0.0347,0.0347,1,6,168,156,1,sevenfive,,,,,,,,,,,,,,,,,,,,,,,,,,,,,,,,,,,,,,,,,,,,,,,,,,,,,,,,,,,,,,,,,,,,,,,,,,,,,,,,,,,,,,,,,,,,,,,,,,,,,,,,,,,,,,,,,,,,,,,,,,,,,,,,,,,,,,,,,
,,6989df4ce6bf3a2e4b6479e1,2026-03-17_11h28.35.988,kallum_motion_pilot_GIST_update_2,2026.1.1,Win32,140.8450704,6989df4ce6bf3a2e4b6479e1,69b92ab4aef6dee357cd729a,69b92bc43f1a506ba98e781a,0.0348,0.0348,1,7,169,135,1,eightseven,,,,,,,,,,,,,,,,,,,,,,,,,,,,,,,,,,,,,,,,,,,,,,,,,,,,,,,,,,,,,,,,,,,,,,,,,,,,,,,,,,,,,,,,,,,,,,,,,,,,,,,,,,,,,,,,,,,,,,,,,,,,,,,,,,,,,,,,,
,,6989df4ce6bf3a2e4b6479e1,2026-03-17_11h28.35.988,kallum_motion_pilot_GIST_update_2,2026.1.1,Win32,140.8450704,6989df4ce6bf3a2e4b6479e1,69b92ab4aef6dee357cd729a,69b92bc43f1a506ba98e781a,0.0349,0.0349,1,8,170,147,1,sixeight,,,,,,,,,,,,,,,,,,,,,,,,,,,,,,,,,,,,,,,,,,,,,,,,,,,,,,,,,,,,,,,,,,,,,,,,,,,,,,,,,,,,,,,,,,,,,,,,,,,,,,,,,,,,,,,,,,,,,,,,,,,,,,,,,,,,,,,,,
,,6989df4ce6bf3a2e4b6479e1,2026-03-17_11h28.35.988,kallum_motion_pilot_GIST_update_2,2026.1.1,Win32,140.8450704,6989df4ce6bf3a2e4b6479e1,69b92ab4aef6dee357cd729a,69b92bc43f1a506ba98e781a,0.035,0.035,1,9,171,90,1,sixfive,,,,,,,,,,,,,,,,,,,,,,,,,,,,,,,,,,,,,,,,,,,,,,,,,,,,,,,,,,,,,,,,,,,,,,,,,,,,,,,,,,,,,,,,,,,,,,,,,,,,,,,,,,,,,,,,,,,,,,,,,,,,,,,,,,,,,,,,,
,,6989df4ce6bf3a2e4b6479e1,2026-03-17_11h28.35.988,kallum_motion_pilot_GIST_update_2,2026.1.1,Win32,140.8450704,6989df4ce6bf3a2e4b6479e1,69b92ab4aef6dee357cd729a,69b92bc43f1a506ba98e781a,0.035,0.0351,1,10,172,134,1,eightsix,,,,,,,,,,,,,,,,,,,,,,,,,,,,,,,,,,,,,,,,,,,,,,,,,,,,,,,,,,,,,,,,,,,,,,,,,,,,,,,,,,,,,,,,,,,,,,,,,,,,,,,,,,,,,,,,,,,,,,,,,,,,,,,,,,,,,,,,,
,,6989df4ce6bf3a2e4b6479e1,2026-03-17_11h28.35.988,kallum_motion_pilot_GIST_update_2,2026.1.1,Win32,140.8450704,6989df4ce6bf3a2e4b6479e1,69b92ab4aef6dee357cd729a,69b92bc43f1a506ba98e781a,0.0351,0.0351,1,11,173,112,1,fivesix,,,,,,,,,,,,,,,,,,,,,,,,,,,,,,,,,,,,,,,,,,,,,,,,,,,,,,,,,,,,,,,,,,,,,,,,,,,,,,,,,,,,,,,,,,,,,,,,,,,,,,,,,,,,,,,,,,,,,,,,,,,,,,,,,,,,,,,,,
,,6989df4ce6bf3a2e4b6479e1,2026-03-17_11h28.35.988,kallum_motion_pilot_GIST_update_2,2026.1.1,Win32,140.8450704,6989df4ce6bf3a2e4b6479e1,69b92ab4aef6dee357cd729a,69b92bc43f1a506ba98e781a,0.0352,0.0352,1,12,174,38,1,fourtwo,,,,,,,,,,,,,,,,,,,,,,,,,,,,,,,,,,,,,,,,,,,,,,,,,,,,,,,,,,,,,,,,,,,,,,,,,,,,,,,,,,,,,,,,,,,,,,,,,,,,,,,,,,,,,,,,,,,,,,,,,,,,,,,,,,,,,,,,,
,,6989df4ce6bf3a2e4b6479e1,2026-03-17_11h28.35.988,kallum_motion_pilot_GIST_update_2,2026.1.1,Win32,140.8450704,6989df4ce6bf3a2e4b6479e1,69b92ab4aef6dee357cd729a,69b92bc43f1a506ba98e781a,0.0352,0.0352,1,13,175,141,1,seveneight,,,,,,,,,,,,,,,,,,,,,,,,,,,,,,,,,,,,,,,,,,,,,,,,,,,,,,,,,,,,,,,,,,,,,,,,,,,,,,,,,,,,,,,,,,,,,,,,,,,,,,,,,,,,,,,,,,,,,,,,,,,,,,,,,,,,,,,,,
,,6989df4ce6bf3a2e4b6479e1,2026-03-17_11h28.35.988,kallum_motion_pilot_GIST_update_2,2026.1.1,Win32,140.8450704,6989df4ce6bf3a2e4b6479e1,69b92ab4aef6dee357cd729a,69b92bc43f1a506ba98e781a,0.0353,0.0353,1,14,176,49,1,onethree,,,,,,,,,,,,,,,,,,,,,,,,,,,,,,,,,,,,,,,,,,,,,,,,,,,,,,,,,,,,,,,,,,,,,,,,,,,,,,,,,,,,,,,,,,,,,,,,,,,,,,,,,,,,,,,,,,,,,,,,,,,,,,,,,,,,,,,,,
,,6989df4ce6bf3a2e4b6479e1,2026-03-17_11h28.35.988,kallum_motion_pilot_GIST_update_2,2026.1.1,Win32,140.8450704,6989df4ce6bf3a2e4b6479e1,69b92ab4aef6dee357cd729a,69b92bc43f1a506ba98e781a,0.0354,0.0354,1,15,177,136,1,fivesix,,,,,,,,,,,,,,,,,,,,,,,,,,,,,,,,,,,,,,,,,,,,,,,,,,,,,,,,,,,,,,,,,,,,,,,,,,,,,,,,,,,,,,,,,,,,,,,,,,,,,,,,,,,,,,,,,,,,,,,,,,,,,,,,,,,,,,,,,
,,6989df4ce6bf3a2e4b6479e1,2026-03-17_11h28.35.988,kallum_motion_pilot_GIST_update_2,2026.1.1,Win32,140.8450704,6989df4ce6bf3a2e4b6479e1,69b92ab4aef6dee357cd729a,69b92bc43f1a506ba98e781a,0.0355,0.0355,1,16,178,126,1,eightsix,,,,,,,,,,,,,,,,,,,,,,,,,,,,,,,,,,,,,,,,,,,,,,,,,,,,,,,,,,,,,,,,,,,,,,,,,,,,,,,,,,,,,,,,,,,,,,,,,,,,,,,,,,,,,,,,,,,,,,,,,,,,,,,,,,,,,,,,,
,,6989df4ce6bf3a2e4b6479e1,2026-03-17_11h28.35.988,kallum_motion_pilot_GIST_update_2,2026.1.1,Win32,140.8450704,6989df4ce6bf3a2e4b6479e1,69b92ab4aef6dee357cd729a,69b92bc43f1a506ba98e781a,0.0355,0.0355,1,17,179,122,1,sixfive,,,,,,,,,,,,,,,,,,,,,,,,,,,,,,,,,,,,,,,,,,,,,,,,,,,,,,,,,,,,,,,,,,,,,,,,,,,,,,,,,,,,,,,,,,,,,,,,,,,,,,,,,,,,,,,,,,,,,,,,,,,,,,,,,,,,,,,,,
,,6989df4ce6bf3a2e4b6479e1,2026-03-17_11h28.35.988,kallum_motion_pilot_GIST_update_2,2026.1.1,Win32,140.8450704,6989df4ce6bf3a2e4b6479e1,69b92ab4aef6dee357cd729a,69b92bc43f1a506ba98e781a,0.0356,0.0356,1,18,180,22,1,fourtwo,,,,,,,,,,,,,,,,,,,,,,,,,,,,,,,,,,,,,,,,,,,,,,,,,,,,,,,,,,,,,,,,,,,,,,,,,,,,,,,,,,,,,,,,,,,,,,,,,,,,,,,,,,,,,,,,,,,,,,,,,,,,,,,,,,,,,,,,,
,,6989df4ce6bf3a2e4b6479e1,2026-03-17_11h28.35.988,kallum_motion_pilot_GIST_update_2,2026.1.1,Win32,140.8450704,6989df4ce6bf3a2e4b6479e1,69b92ab4aef6dee357cd729a,69b92bc43f1a506ba98e781a,0.0356,0.0356,1,19,181,69,1,threefour,,,,,,,,,,,,,,,,,,,,,,,,,,,,,,,,,,,,,,,,,,,,,,,,,,,,,,,,,,,,,,,,,,,,,,,,,,,,,,,,,,,,,,,,,,,,,,,,,,,,,,,,,,,,,,,,,,,,,,,,,,,,,,,,,,,,,,,,,
,,6989df4ce6bf3a2e4b6479e1,2026-03-17_11h28.35.988,kallum_motion_pilot_GIST_update_2,2026.1.1,Win32,140.8450704,6989df4ce6bf3a2e4b6479e1,69b92ab4aef6dee357cd729a,69b92bc43f1a506ba98e781a,0.0358,0.0358,1,20,182,51,1,twofour,,,,,,,,,,,,,,,,,,,,,,,,,,,,,,,,,,,,,,,,,,,,,,,,,,,,,,,,,,,,,,,,,,,,,,,,,,,,,,,,,,,,,,,,,,,,,,,,,,,,,,,,,,,,,,,,,,,,,,,,,,,,,,,,,,,,,,,,,
,,6989df4ce6bf3a2e4b6479e1,2026-03-17_11h28.35.988,kallum_motion_pilot_GIST_update_2,2026.1.1,Win32,140.8450704,6989df4ce6bf3a2e4b6479e1,69b92ab4aef6dee357cd729a,69b92bc43f1a506ba98e781a,0.0358,0.0358,1,21,183,161,1,fiveseven,,,,,,,,,,,,,,,,,,,,,,,,,,,,,,,,,,,,,,,,,,,,,,,,,,,,,,,,,,,,,,,,,,,,,,,,,,,,,,,,,,,,,,,,,,,,,,,,,,,,,,,,,,,,,,,,,,,,,,,,,,,,,,,,,,,,,,,,,
,,6989df4ce6bf3a2e4b6479e1,2026-03-17_11h28.35.988,kallum_motion_pilot_GIST_update_2,2026.1.1,Win32,140.8450704,6989df4ce6bf3a2e4b6479e1,69b92ab4aef6dee357cd729a,69b92bc43f1a506ba98e781a,0.0358,0.0358,1,22,184,87,1,eightseven,,,,,,,,,,,,,,,,,,,,,,,,,,,,,,,,,,,,,,,,,,,,,,,,,,,,,,,,,,,,,,,,,,,,,,,,,,,,,,,,,,,,,,,,,,,,,,,,,,,,,,,,,,,,,,,,,,,,,,,,,,,,,,,,,,,,,,,,,
,,6989df4ce6bf3a2e4b6479e1,2026-03-17_11h28.35.988,kallum_motion_pilot_GIST_update_2,2026.1.1,Win32,140.8450704,6989df4ce6bf3a2e4b6479e1,69b92ab4aef6dee357cd729a,69b92bc43f1a506ba98e781a,0.0359,0.0359,1,23,185,41,1,onethree,,,,,,,,,,,,,,,,,,,,,,,,,,,,,,,,,,,,,,,,,,,,,,,,,,,,,,,,,,,,,,,,,,,,,,,,,,,,,,,,,,,,,,,,,,,,,,,,,,,,,,,,,,,,,,,,,,,,,,,,,,,,,,,,,,,,,,,,,
,,6989df4ce6bf3a2e4b6479e1,2026-03-17_11h28.35.988,kallum_motion_pilot_GIST_update_2,2026.1.1,Win32,140.8450704,6989df4ce6bf3a2e4b6479e1,69b92ab4aef6dee357cd729a,69b92bc43f1a506ba98e781a,0.0359,0.0359,1,24,186,149,1,seveneight,,,,,,,,,,,,,,,,,,,,,,,,,,,,,,,,,,,,,,,,,,,,,,,,,,,,,,,,,,,,,,,,,,,,,,,,,,,,,,,,,,,,,,,,,,,,,,,,,,,,,,,,,,,,,,,,,,,,,,,,,,,,,,,,,,,,,,,,,
,,6989df4ce6bf3a2e4b6479e1,2026-03-17_11h28.35.988,kallum_motion_pilot_GIST_update_2,2026.1.1,Win32,140.8450704,6989df4ce6bf3a2e4b6479e1,69b92ab4aef6dee357cd729a,69b92bc43f1a506ba98e781a,0.036,0.036,1,25,187,146,1,sixfive,,,,,,,,,,,,,,,,,,,,,,,,,,,,,,,,,,,,,,,,,,,,,,,,,,,,,,,,,,,,,,,,,,,,,,,,,,,,,,,,,,,,,,,,,,,,,,,,,,,,,,,,,,,,,,,,,,,,,,,,,,,,,,,,,,,,,,,,,
,,6989df4ce6bf3a2e4b6479e1,2026-03-17_11h28.35.988,kallum_motion_pilot_GIST_update_2,2026.1.1,Win32,140.8450704,6989df4ce6bf3a2e4b6479e1,69b92ab4aef6dee357cd729a,69b92bc43f1a506ba98e781a,0.0361,0.0361,1,26,188,20,1,threeone,,,,,,,,,,,,,,,,,,,,,,,,,,,,,,,,,,,,,,,,,,,,,,,,,,,,,,,,,,,,,,,,,,,,,,,,,,,,,,,,,,,,,,,,,,,,,,,,,,,,,,,,,,,,,,,,,,,,,,,,,,,,,,,,,,,,,,,,,
,,6989df4ce6bf3a2e4b6479e1,2026-03-17_11h28.35.988,kallum_motion_pilot_GIST_update_2,2026.1.1,Win32,140.8450704,6989df4ce6bf3a2e4b6479e1,69b92ab4aef6dee357cd729a,69b92bc43f1a506ba98e781a,0.0361,0.0361,1,27,189,65,1,onethree,,,,,,,,,,,,,,,,,,,,,,,,,,,,,,,,,,,,,,,,,,,,,,,,,,,,,,,,,,,,,,,,,,,,,,,,,,,,,,,,,,,,,,,,,,,,,,,,,,,,,,,,,,,,,,,,,,,,,,,,,,,,,,,,,,,,,,,,,
,,6989df4ce6bf3a2e4b6479e1,2026-03-17_11h28.35.988,kallum_motion_pilot_GIST_update_2,2026.1.1,Win32,140.8450704,6989df4ce6bf3a2e4b6479e1,69b92ab4aef6dee357cd729a,69b92bc43f1a506ba98e781a,0.0362,0.0362,1,28,190,143,1,eightseven,,,,,,,,,,,,,,,,,,,,,,,,,,,,,,,,,,,,,,,,,,,,,,,,,,,,,,,,,,,,,,,,,,,,,,,,,,,,,,,,,,,,,,,,,,,,,,,,,,,,,,,,,,,,,,,,,,,,,,,,,,,,,,,,,,,,,,,,,
,,6989df4ce6bf3a2e4b6479e1,2026-03-17_11h28.35.988,kallum_motion_pilot_GIST_update_2,2026.1.1,Win32,140.8450704,6989df4ce6bf3a2e4b6479e1,69b92ab4aef6dee357cd729a,69b92bc43f1a506ba98e781a,0.0362,0.0362,1,29,191,100,1,sevenfive,,,,,,,,,,,,,,,,,,,,,,,,,,,,,,,,,,,,,,,,,,,,,,,,,,,,,,,,,,,,,,,,,,,,,,,,,,,,,,,,,,,,,,,,,,,,,,,,,,,,,,,,,,,,,,,,,,,,,,,,,,,,,,,,,,,,,,,,,
,,6989df4ce6bf3a2e4b6479e1,2026-03-17_11h28.35.988,kallum_motion_pilot_GIST_update_2,2026.1.1,Win32,140.8450704,6989df4ce6bf3a2e4b6479e1,69b92ab4aef6dee357cd729a,69b92bc43f1a506ba98e781a,0.0363,0.0363,1,30,192,116,1,sevenfive,,,,,,,,,,,,,,,,,,,,,,,,,,,,,,,,,,,,,,,,,,,,,,,,,,,,,,,,,,,,,,,,,,,,,,,,,,,,,,,,,,,,,,,,,,,,,,,,,,,,,,,,,,,,,,,,,,,,,,,,,,,,,,,,,,,,,,,,,
,,6989df4ce6bf3a2e4b6479e1,2026-03-17_11h28.35.988,kallum_motion_pilot_GIST_update_2,2026.1.1,Win32,140.8450704,6989df4ce6bf3a2e4b6479e1,69b92ab4aef6dee357cd729a,69b92bc43f1a506ba98e781a,0.0365,0.0365,1,31,193,48,1,onetwo,,,,,,,,,,,,,,,,,,,,,,,,,,,,,,,,,,,,,,,,,,,,,,,,,,,,,,,,,,,,,,,,,,,,,,,,,,,,,,,,,,,,,,,,,,,,,,,,,,,,,,,,,,,,,,,,,,,,,,,,,,,,,,,,,,,,,,,,,
,,6989df4ce6bf3a2e4b6479e1,2026-03-17_11h28.35.988,kallum_motion_pilot_GIST_update_2,2026.1.1,Win32,140.8450704,6989df4ce6bf3a2e4b6479e1,69b92ab4aef6dee357cd729a,69b92bc43f1a506ba98e781a,0.0366,0.0366,1,32,194,31,1,fourthree,,,,,,,,,,,,,,,,,,,,,,,,,,,,,,,,,,,,,,,,,,,,,,,,,,,,,,,,,,,,,,,,,,,,,,,,,,,,,,,,,,,,,,,,,,,,,,,,,,,,,,,,,,,,,,,,,,,,,,,,,,,,,,,,,,,,,,,,,
,,6989df4ce6bf3a2e4b6479e1,2026-03-17_11h28.35.988,kallum_motion_pilot_GIST_update_2,2026.1.1,Win32,140.8450704,6989df4ce6bf3a2e4b6479e1,69b92ab4aef6dee357cd729a,69b92bc43f1a506ba98e781a,0.0366,0.0366,1,33,195,23,1,fourthree,,,,,,,,,,,,,,,,,,,,,,,,,,,,,,,,,,,,,,,,,,,,,,,,,,,,,,,,,,,,,,,,,,,,,,,,,,,,,,,,,,,,,,,,,,,,,,,,,,,,,,,,,,,,,,,,,,,,,,,,,,,,,,,,,,,,,,,,,
,,6989df4ce6bf3a2e4b6479e1,2026-03-17_11h28.35.988,kallum_motion_pilot_GIST_update_2,2026.1.1,Win32,140.8450704,6989df4ce6bf3a2e4b6479e1,69b92ab4aef6dee357cd729a,69b92bc43f1a506ba98e781a,0.0366,0.0366,1,34,196,32,1,onetwo,,,,,,,,,,,,,,,,,,,,,,,,,,,,,,,,,,,,,,,,,,,,,,,,,,,,,,,,,,,,,,,,,,,,,,,,,,,,,,,,,,,,,,,,,,,,,,,,,,,,,,,,,,,,,,,,,,,,,,,,,,,,,,,,,,,,,,,,,
,,6989df4ce6bf3a2e4b6479e1,2026-03-17_11h28.35.988,kallum_motion_pilot_GIST_update_2,2026.1.1,Win32,140.8450704,6989df4ce6bf3a2e4b6479e1,69b92ab4aef6dee357cd729a,69b92bc43f1a506ba98e781a,0.0367,0.0367,1,35,197,57,1,onethree,,,,,,,,,,,,,,,,,,,,,,,,,,,,,,,,,,,,,,,,,,,,,,,,,,,,,,,,,,,,,,,,,,,,,,,,,,,,,,,,,,,,,,,,,,,,,,,,,,,,,,,,,,,,,,,,,,,,,,,,,,,,,,,,,,,,,,,,,
,,6989df4ce6bf3a2e4b6479e1,2026-03-17_11h28.35.988,kallum_motion_pilot_GIST_update_2,2026.1.1,Win32,140.8450704,6989df4ce6bf3a2e4b6479e1,69b92ab4aef6dee357cd729a,69b92bc43f1a506ba98e781a,0.0368,0.0368,1,36,198,121,1,fiveseven,,,,,,,,,,,,,,,,,,,,,,,,,,,,,,,,,,,,,,,,,,,,,,,,,,,,,,,,,,,,,,,,,,,,,,,,,,,,,,,,,,,,,,,,,,,,,,,,,,,,,,,,,,,,,,,,,,,,,,,,,,,,,,,,,,,,,,,,,
,,6989df4ce6bf3a2e4b6479e1,2026-03-17_11h28.35.988,kallum_motion_pilot_GIST_update_2,2026.1.1,Win32,140.8450704,6989df4ce6bf3a2e4b6479e1,69b92ab4aef6dee357cd729a,69b92bc43f1a506ba98e781a,0.0368,0.0368,1,37,199,45,1,threefour,,,,,,,,,,,,,,,,,,,,,,,,,,,,,,,,,,,,,,,,,,,,,,,,,,,,,,,,,,,,,,,,,,,,,,,,,,,,,,,,,,,,,,,,,,,,,,,,,,,,,,,,,,,,,,,,,,,,,,,,,,,,,,,,,,,,,,,,,
,,6989df4ce6bf3a2e4b6479e1,2026-03-17_11h28.35.988,kallum_motion_pilot_GIST_update_2,2026.1.1,Win32,140.8450704,6989df4ce6bf3a2e4b6479e1,69b92ab4aef6dee357cd729a,69b92bc43f1a506ba98e781a,0.0369,0.0369,1,38,200,154,1,sixfive,,,,,,,,,,,,,,,,,,,,,,,,,,,,,,,,,,,,,,,,,,,,,,,,,,,,,,,,,,,,,,,,,,,,,,,,,,,,,,,,,,,,,,,,,,,,,,,,,,,,,,,,,,,,,,,,,,,,,,,,,,,,,,,,,,,,,,,,,
,,6989df4ce6bf3a2e4b6479e1,2026-03-17_11h28.35.988,kallum_motion_pilot_GIST_update_2,2026.1.1,Win32,140.8450704,6989df4ce6bf3a2e4b6479e1,69b92ab4aef6dee357cd729a,69b92bc43f1a506ba98e781a,0.037,0.037,1,39,201,88,1,fivesix,,,,,,,,,,,,,,,,,,,,,,,,,,,,,,,,,,,,,,,,,,,,,,,,,,,,,,,,,,,,,,,,,,,,,,,,,,,,,,,,,,,,,,,,,,,,,,,,,,,,,,,,,,,,,,,,,,,,,,,,,,,,,,,,,,,,,,,,,
,,6989df4ce6bf3a2e4b6479e1,2026-03-17_11h28.35.988,kallum_motion_pilot_GIST_update_2,2026.1.1,Win32,140.8450704,6989df4ce6bf3a2e4b6479e1,69b92ab4aef6dee357cd729a,69b92bc43f1a506ba98e781a,0.0371,0.0371,1,40,202,0,1,onetwo,,,,,,,,,,,,,,,,,,,,,,,,,,,,,,,,,,,,,,,,,,,,,,,,,,,,,,,,,,,,,,,,,,,,,,,,,,,,,,,,,,,,,,,,,,,,,,,,,,,,,,,,,,,,,,,,,,,,,,,,,,,,,,,,,,,,,,,,,
,,6989df4ce6bf3a2e4b6479e1,2026-03-17_11h28.35.988,kallum_motion_pilot_GIST_update_2,2026.1.1,Win32,140.8450704,6989df4ce6bf3a2e4b6479e1,69b92ab4aef6dee357cd729a,69b92bc43f1a506ba98e781a,0.0372,0.0372,1,41,203,52,1,threeone,,,,,,,,,,,,,,,,,,,,,,,,,,,,,,,,,,,,,,,,,,,,,,,,,,,,,,,,,,,,,,,,,,,,,,,,,,,,,,,,,,,,,,,,,,,,,,,,,,,,,,,,,,,,,,,,,,,,,,,,,,,,,,,,,,,,,,,,,
,,6989df4ce6bf3a2e4b6479e1,2026-03-17_11h28.35.988,kallum_motion_pilot_GIST_update_2,2026.1.1,Win32,140.8450704,6989df4ce6bf3a2e4b6479e1,69b92ab4aef6dee357cd729a,69b92bc43f1a506ba98e781a,0.0372,0.0372,1,42,204,27,1,twofour,,,,,,,,,,,,,,,,,,,,,,,,,,,,,,,,,,,,,,,,,,,,,,,,,,,,,,,,,,,,,,,,,,,,,,,,,,,,,,,,,,,,,,,,,,,,,,,,,,,,,,,,,,,,,,,,,,,,,,,,,,,,,,,,,,,,,,,,,
,,6989df4ce6bf3a2e4b6479e1,2026-03-17_11h28.35.988,kallum_motion_pilot_GIST_update_2,2026.1.1,Win32,140.8450704,6989df4ce6bf3a2e4b6479e1,69b92ab4aef6dee357cd729a,69b92bc43f1a506ba98e781a,0.0372,0.0373,1,43,205,81,1,fiveseven,,,,,,,,,,,,,,,,,,,,,,,,,,,,,,,,,,,,,,,,,,,,,,,,,,,,,,,,,,,,,,,,,,,,,,,,,,,,,,,,,,,,,,,,,,,,,,,,,,,,,,,,,,,,,,,,,,,,,,,,,,,,,,,,,,,,,,,,,
,,6989df4ce6bf3a2e4b6479e1,2026-03-17_11h28.35.988,kallum_motion_pilot_GIST_update_2,2026.1.1,Win32,140.8450704,6989df4ce6bf3a2e4b6479e1,69b92ab4aef6dee357cd729a,69b92bc43f1a506ba98e781a,0.0373,0.0373,1,44,206,5,1,threefour,,,,,,,,,,,,,,,,,,,,,,,,,,,,,,,,,,,,,,,,,,,,,,,,,,,,,,,,,,,,,,,,,,,,,,,,,,,,,,,,,,,,,,,,,,,,,,,,,,,,,,,,,,,,,,,,,,,,,,,,,,,,,,,,,,,,,,,,,
,,6989df4ce6bf3a2e4b6479e1,2026-03-17_11h28.35.988,kallum_motion_pilot_GIST_update_2,2026.1.1,Win32,140.8450704,6989df4ce6bf3a2e4b6479e1,69b92ab4aef6dee357cd729a,69b92bc43f1a506ba98e781a,0.0374,0.0374,1,45,207,15,1,fourthree,,,,,,,,,,,,,,,,,,,,,,,,,,,,,,,,,,,,,,,,,,,,,,,,,,,,,,,,,,,,,,,,,,,,,,,,,,,,,,,,,,,,,,,,,,,,,,,,,,,,,,,,,,,,,,,,,,,,,,,,,,,,,,,,,,,,,,,,,
,,6989df4ce6bf3a2e4b6479e1,2026-03-17_11h28.35.988,kallum_motion_pilot_GIST_update_2,2026.1.1,Win32,140.8450704,6989df4ce6bf3a2e4b6479e1,69b92ab4aef6dee357cd729a,69b92bc43f1a506ba98e781a,0.0375,0.0375,1,46,208,145,1,fiveseven,,,,,,,,,,,,,,,,,,,,,,,,,,,,,,,,,,,,,,,,,,,,,,,,,,,,,,,,,,,,,,,,,,,,,,,,,,,,,,,,,,,,,,,,,,,,,,,,,,,,,,,,,,,,,,,,,,,,,,,,,,,,,,,,,,,,,,,,,
,,6989df4ce6bf3a2e4b6479e1,2026-03-17_11h28.35.988,kallum_motion_pilot_GIST_update_2,2026.1.1,Win32,140.8450704,6989df4ce6bf3a2e4b6479e1,69b92ab4aef6dee357cd729a,69b92bc43f1a506ba98e781a,0.0376,0.0376,1,47,209,56,1,onetwo,,,,,,,,,,,,,,,,,,,,,,,,,,,,,,,,,,,,,,,,,,,,,,,,,,,,,,,,,,,,,,,,,,,,,,,,,,,,,,,,,,,,,,,,,,,,,,,,,,,,,,,,,,,,,,,,,,,,,,,,,,,,,,,,,,,,,,,,,
,,6989df4ce6bf3a2e4b6479e1,2026-03-17_11h28.35.988,kallum_motion_pilot_GIST_update_2,2026.1.1,Win32,140.8450704,6989df4ce6bf3a2e4b6479e1,69b92ab4aef6dee357cd729a,69b92bc43f1a506ba98e781a,0.0377,0.0377,1,48,210,37,1,threefour,,,,,,,,,,,,,,,,,,,,,,,,,,,,,,,,,,,,,,,,,,,,,,,,,,,,,,,,,,,,,,,,,,,,,,,,,,,,,,,,,,,,,,,,,,,,,,,,,,,,,,,,,,,,,,,,,,,,,,,,,,,,,,,,,,,,,,,,,
,,6989df4ce6bf3a2e4b6479e1,2026-03-17_11h28.35.988,kallum_motion_pilot_GIST_update_2,2026.1.1,Win32,140.8450704,6989df4ce6bf3a2e4b6479e1,69b92ab4aef6dee357cd729a,69b92bc43f1a506ba98e781a,0.0377,0.0377,1,49,211,1,1,onethree,,,,,,,,,,,,,,,,,,,,,,,,,,,,,,,,,,,,,,,,,,,,,,,,,,,,,,,,,,,,,,,,,,,,,,,,,,,,,,,,,,,,,,,,,,,,,,,,,,,,,,,,,,,,,,,,,,,,,,,,,,,,,,,,,,,,,,,,,
,,6989df4ce6bf3a2e4b6479e1,2026-03-17_11h28.35.988,kallum_motion_pilot_GIST_update_2,2026.1.1,Win32,140.8450704,6989df4ce6bf3a2e4b6479e1,69b92ab4aef6dee357cd729a,69b92bc43f1a506ba98e781a,0.0378,0.0378,1,50,212,12,1,threeone,,,,,,,,,,,,,,,,,,,,,,,,,,,,,,,,,,,,,,,,,,,,,,,,,,,,,,,,,,,,,,,,,,,,,,,,,,,,,,,,,,,,,,,,,,,,,,,,,,,,,,,,,,,,,,,,,,,,,,,,,,,,,,,,,,,,,,,,,
,,6989df4ce6bf3a2e4b6479e1,2026-03-17_11h28.35.988,kallum_motion_pilot_GIST_update_2,2026.1.1,Win32,140.8450704,6989df4ce6bf3a2e4b6479e1,69b92ab4aef6dee357cd729a,69b92bc43f1a506ba98e781a,0.0379,0.0379,1,51,213,42,1,twoone,,,,,,,,,,,,,,,,,,,,,,,,,,,,,,,,,,,,,,,,,,,,,,,,,,,,,,,,,,,,,,,,,,,,,,,,,,,,,,,,,,,,,,,,,,,,,,,,,,,,,,,,,,,,,,,,,,,,,,,,,,,,,,,,,,,,,,,,,
,,6989df4ce6bf3a2e4b6479e1,2026-03-17_11h28.35.988,kallum_motion_pilot_GIST_update_2,2026.1.1,Win32,140.8450704,6989df4ce6bf3a2e4b6479e1,69b92ab4aef6dee357cd729a,69b92bc43f1a506ba98e781a,0.038,0.038,1,52,214,158,1,eightsix,,,,,,,,,,,,,,,,,,,,,,,,,,,,,,,,,,,,,,,,,,,,,,,,,,,,,,,,,,,,,,,,,,,,,,,,,,,,,,,,,,,,,,,,,,,,,,,,,,,,,,,,,,,,,,,,,,,,,,,,,,,,,,,,,,,,,,,,,
,,6989df4ce6bf3a2e4b6479e1,2026-03-17_11h28.35.988,kallum_motion_pilot_GIST_update_2,2026.1.1,Win32,140.8450704,6989df4ce6bf3a2e4b6479e1,69b92ab4aef6dee357cd729a,69b92bc43f1a506ba98e781a,0.038,0.038,1,53,215,75,1,twofour,,,,,,,,,,,,,,,,,,,,,,,,,,,,,,,,,,,,,,,,,,,,,,,,,,,,,,,,,,,,,,,,,,,,,,,,,,,,,,,,,,,,,,,,,,,,,,,,,,,,,,,,,,,,,,,,,,,,,,,,,,,,,,,,,,,,,,,,,
,,6989df4ce6bf3a2e4b6479e1,2026-03-17_11h28.35.988,kallum_motion_pilot_GIST_update_2,2026.1.1,Win32,140.8450704,6989df4ce6bf3a2e4b6479e1,69b92ab4aef6dee357cd729a,69b92bc43f1a506ba98e781a,0.0381,0.0381,1,54,216,34,1,twoone,,,,,,,,,,,,,,,,,,,,,,,,,,,,,,,,,,,,,,,,,,,,,,,,,,,,,,,,,,,,,,,,,,,,,,,,,,,,,,,,,,,,,,,,,,,,,,,,,,,,,,,,,,,,,,,,,,,,,,,,,,,,,,,,,,,,,,,,,
,,6989df4ce6bf3a2e4b6479e1,2026-03-17_11h28.35.988,kallum_motion_pilot_GIST_update_2,2026.1.1,Win32,140.8450704,6989df4ce6bf3a2e4b6479e1,69b92ab4aef6dee357cd729a,69b92bc43f1a506ba98e781a,0.0382,0.0382,1,55,217,132,1,sevenfive,,,,,,,,,,,,,,,,,,,,,,,,,,,,,,,,,,,,,,,,,,,,,,,,,,,,,,,,,,,,,,,,,,,,,,,,,,,,,,,,,,,,,,,,,,,,,,,,,,,,,,,,,,,,,,,,,,,,,,,,,,,,,,,,,,,,,,,,,
,,6989df4ce6bf3a2e4b6479e1,2026-03-17_11h28.35.988,kallum_motion_pilot_GIST_update_2,2026.1.1,Win32,140.8450704,6989df4ce6bf3a2e4b6479e1,69b92ab4aef6dee357cd729a,69b92bc43f1a506ba98e781a,0.0383,0.0383,1,56,218,144,1,fivesix,,,,,,,,,,,,,,,,,,,,,,,,,,,,,,,,,,,,,,,,,,,,,,,,,,,,,,,,,,,,,,,,,,,,,,,,,,,,,,,,,,,,,,,,,,,,,,,,,,,,,,,,,,,,,,,,,,,,,,,,,,,,,,,,,,,,,,,,,
,,6989df4ce6bf3a2e4b6479e1,2026-03-17_11h28.35.988,kallum_motion_pilot_GIST_update_2,2026.1.1,Win32,140.8450704,6989df4ce6bf3a2e4b6479e1,69b92ab4aef6dee357cd729a,69b92bc43f1a506ba98e781a,0.0383,0.0383,1,57,219,129,1,fiveseven,,,,,,,,,,,,,,,,,,,,,,,,,,,,,,,,,,,,,,,,,,,,,,,,,,,,,,,,,,,,,,,,,,,,,,,,,,,,,,,,,,,,,,,,,,,,,,,,,,,,,,,,,,,,,,,,,,,,,,,,,,,,,,,,,,,,,,,,,
,,6989df4ce6bf3a2e4b6479e1,2026-03-17_11h28.35.988,kallum_motion_pilot_GIST_update_2,2026.1.1,Win32,140.8450704,6989df4ce6bf3a2e4b6479e1,69b92ab4aef6dee357cd729a,69b92bc43f1a506ba98e781a,0.0384,0.0384,1,58,220,92,1,sevenfive,,,,,,,,,,,,,,,,,,,,,,,,,,,,,,,,,,,,,,,,,,,,,,,,,,,,,,,,,,,,,,,,,,,,,,,,,,,,,,,,,,,,,,,,,,,,,,,,,,,,,,,,,,,,,,,,,,,,,,,,,,,,,,,,,,,,,,,,,
,,6989df4ce6bf3a2e4b6479e1,2026-03-17_11h28.35.988,kallum_motion_pilot_GIST_update_2,2026.1.1,Win32,140.8450704,6989df4ce6bf3a2e4b6479e1,69b92ab4aef6dee357cd729a,69b92bc43f1a506ba98e781a,0.0385,0.0385,1,59,221,106,1,sixfive,,,,,,,,,,,,,,,,,,,,,,,,,,,,,,,,,,,,,,,,,,,,,,,,,,,,,,,,,,,,,,,,,,,,,,,,,,,,,,,,,,,,,,,,,,,,,,,,,,,,,,,,,,,,,,,,,,,,,,,,,,,,,,,,,,,,,,,,,
,,6989df4ce6bf3a2e4b6479e1,2026-03-17_11h28.35.988,kallum_motion_pilot_GIST_update_2,2026.1.1,Win32,140.8450704,6989df4ce6bf3a2e4b6479e1,69b92ab4aef6dee357cd729a,69b92bc43f1a506ba98e781a,0.0385,0.0385,1,60,222,102,1,eightsix,,,,,,,,,,,,,,,,,,,,,,,,,,,,,,,,,,,,,,,,,,,,,,,,,,,,,,,,,,,,,,,,,,,,,,,,,,,,,,,,,,,,,,,,,,,,,,,,,,,,,,,,,,,,,,,,,,,,,,,,,,,,,,,,,,,,,,,,,
,,6989df4ce6bf3a2e4b6479e1,2026-03-17_11h28.35.988,kallum_motion_pilot_GIST_update_2,2026.1.1,Win32,140.8450704,6989df4ce6bf3a2e4b6479e1,69b92ab4aef6dee357cd729a,69b92bc43f1a506ba98e781a,0.0386,0.0386,1,61,223,96,1,fivesix,,,,,,,,,,,,,,,,,,,,,,,,,,,,,,,,,,,,,,,,,,,,,,,,,,,,,,,,,,,,,,,,,,,,,,,,,,,,,,,,,,,,,,,,,,,,,,,,,,,,,,,,,,,,,,,,,,,,,,,,,,,,,,,,,,,,,,,,,
,,6989df4ce6bf3a2e4b6479e1,2026-03-17_11h28.35.988,kallum_motion_pilot_GIST_update_2,2026.1.1,Win32,140.8450704,6989df4ce6bf3a2e4b6479e1,69b92ab4aef6dee357cd729a,69b92bc43f1a506ba98e781a,0.0386,0.0386,1,62,224,53,1,threefour,,,,,,,,,,,,,,,,,,,,,,,,,,,,,,,,,,,,,,,,,,,,,,,,,,,,,,,,,,,,,,,,,,,,,,,,,,,,,,,,,,,,,,,,,,,,,,,,,,,,,,,,,,,,,,,,,,,,,,,,,,,,,,,,,,,,,,,,,
,,6989df4ce6bf3a2e4b6479e1,2026-03-17_11h28.35.988,kallum_motion_pilot_GIST_update_2,2026.1.1,Win32,140.8450704,6989df4ce6bf3a2e4b6479e1,69b92ab4aef6dee357cd729a,69b92bc43f1a506ba98e781a,0.0387,0.0387,1,63,225,127,1,eightseven,,,,,,,,,,,,,,,,,,,,,,,,,,,,,,,,,,,,,,,,,,,,,,,,,,,,,,,,,,,,,,,,,,,,,,,,,,,,,,,,,,,,,,,,,,,,,,,,,,,,,,,,,,,,,,,,,,,,,,,,,,,,,,,,,,,,,,,,,
,,6989df4ce6bf3a2e4b6479e1,2026-03-17_11h28.35.988,kallum_motion_pilot_GIST_update_2,2026.1.1,Win32,140.8450704,6989df4ce6bf3a2e4b6479e1,69b92ab4aef6dee357cd729a,69b92bc43f1a506ba98e781a,0.0388,0.0388,1,64,226,80,1,fivesix,,,,,,,,,,,,,,,,,,,,,,,,,,,,,,,,,,,,,,,,,,,,,,,,,,,,,,,,,,,,,,,,,,,,,,,,,,,,,,,,,,,,,,,,,,,,,,,,,,,,,,,,,,,,,,,,,,,,,,,,,,,,,,,,,,,,,,,,,
,,6989df4ce6bf3a2e4b6479e1,2026-03-17_11h28.35.988,kallum_motion_pilot_GIST_update_2,2026.1.1,Win32,140.8450704,6989df4ce6bf3a2e4b6479e1,69b92ab4aef6dee357cd729a,69b92bc43f1a506ba98e781a,0.0389,0.0389,1,65,227,89,1,fiveseven,,,,,,,,,,,,,,,,,,,,,,,,,,,,,,,,,,,,,,,,,,,,,,,,,,,,,,,,,,,,,,,,,,,,,,,,,,,,,,,,,,,,,,,,,,,,,,,,,,,,,,,,,,,,,,,,,,,,,,,,,,,,,,,,,,,,,,,,,
,,6989df4ce6bf3a2e4b6479e1,2026-03-17_11h28.35.988,kallum_motion_pilot_GIST_update_2,2026.1.1,Win32,140.8450704,6989df4ce6bf3a2e4b6479e1,69b92ab4aef6dee357cd729a,69b92bc43f1a506ba98e781a,0.0389,0.0389,1,66,228,74,1,twoone,,,,,,,,,,,,,,,,,,,,,,,,,,,,,,,,,,,,,,,,,,,,,,,,,,,,,,,,,,,,,,,,,,,,,,,,,,,,,,,,,,,,,,,,,,,,,,,,,,,,,,,,,,,,,,,,,,,,,,,,,,,,,,,,,,,,,,,,,
,,6989df4ce6bf3a2e4b6479e1,2026-03-17_11h28.35.988,kallum_motion_pilot_GIST_update_2,2026.1.1,Win32,140.8450704,6989df4ce6bf3a2e4b6479e1,69b92ab4aef6dee357cd729a,69b92bc43f1a506ba98e781a,0.039,0.039,1,67,229,91,1,sixeight,,,,,,,,,,,,,,,,,,,,,,,,,,,,,,,,,,,,,,,,,,,,,,,,,,,,,,,,,,,,,,,,,,,,,,,,,,,,,,,,,,,,,,,,,,,,,,,,,,,,,,,,,,,,,,,,,,,,,,,,,,,,,,,,,,,,,,,,,
,,6989df4ce6bf3a2e4b6479e1,2026-03-17_11h28.35.988,kallum_motion_pilot_GIST_update_2,2026.1.1,Win32,140.8450704,6989df4ce6bf3a2e4b6479e1,69b92ab4aef6dee357cd729a,69b92bc43f1a506ba98e781a,0.0392,0.0392,1,68,230,152,1,fivesix,,,,,,,,,,,,,,,,,,,,,,,,,,,,,,,,,,,,,,,,,,,,,,,,,,,,,,,,,,,,,,,,,,,,,,,,,,,,,,,,,,,,,,,,,,,,,,,,,,,,,,,,,,,,,,,,,,,,,,,,,,,,,,,,,,,,,,,,,
,,6989df4ce6bf3a2e4b6479e1,2026-03-17_11h28.35.988,kallum_motion_pilot_GIST_update_2,2026.1.1,Win32,140.8450704,6989df4ce6bf3a2e4b6479e1,69b92ab4aef6dee357cd729a,69b92bc43f1a506ba98e781a,0.0392,0.0392,1,69,231,72,1,onetwo,,,,,,,,,,,,,,,,,,,,,,,,,,,,,,,,,,,,,,,,,,,,,,,,,,,,,,,,,,,,,,,,,,,,,,,,,,,,,,,,,,,,,,,,,,,,,,,,,,,,,,,,,,,,,,,,,,,,,,,,,,,,,,,,,,,,,,,,,
,,6989df4ce6bf3a2e4b6479e1,2026-03-17_11h28.35.988,kallum_motion_pilot_GIST_update_2,2026.1.1,Win32,140.8450704,6989df4ce6bf3a2e4b6479e1,69b92ab4aef6dee357cd729a,69b92bc43f1a506ba98e781a,0.0393,0.0393,1,70,232,47,1,fourthree,,,,,,,,,,,,,,,,,,,,,,,,,,,,,,,,,,,,,,,,,,,,,,,,,,,,,,,,,,,,,,,,,,,,,,,,,,,,,,,,,,,,,,,,,,,,,,,,,,,,,,,,,,,,,,,,,,,,,,,,,,,,,,,,,,,,,,,,,
,,6989df4ce6bf3a2e4b6479e1,2026-03-17_11h28.35.988,kallum_motion_pilot_GIST_update_2,2026.1.1,Win32,140.8450704,6989df4ce6bf3a2e4b6479e1,69b92ab4aef6dee357cd729a,69b92bc43f1a506ba98e781a,0.0394,0.0394,1,71,233,33,1,onethree,,,,,,,,,,,,,,,,,,,,,,,,,,,,,,,,,,,,,,,,,,,,,,,,,,,,,,,,,,,,,,,,,,,,,,,,,,,,,,,,,,,,,,,,,,,,,,,,,,,,,,,,,,,,,,,,,,,,,,,,,,,,,,,,,,,,,,,,,
,,6989df4ce6bf3a2e4b6479e1,2026-03-17_11h28.35.988,kallum_motion_pilot_GIST_update_2,2026.1.1,Win32,140.8450704,6989df4ce6bf3a2e4b6479e1,69b92ab4aef6dee357cd729a,69b92bc43f1a506ba98e781a,0.0396,0.0396,1,72,234,46,1,fourtwo,,,,,,,,,,,,,,,,,,,,,,,,,,,,,,,,,,,,,,,,,,,,,,,,,,,,,,,,,,,,,,,,,,,,,,,,,,,,,,,,,,,,,,,,,,,,,,,,,,,,,,,,,,,,,,,,,,,,,,,,,,,,,,,,,,,,,,,,,
,,6989df4ce6bf3a2e4b6479e1,2026-03-17_11h28.35.988,kallum_motion_pilot_GIST_update_2,2026.1.1,Win32,140.8450704,6989df4ce6bf3a2e4b6479e1,69b92ab4aef6dee357cd729a,69b92bc43f1a506ba98e781a,0.0397,0.0397,1,73,235,97,1,fiveseven,,,,,,,,,,,,,,,,,,,,,,,,,,,,,,,,,,,,,,,,,,,,,,,,,,,,,,,,,,,,,,,,,,,,,,,,,,,,,,,,,,,,,,,,,,,,,,,,,,,,,,,,,,,,,,,,,,,,,,,,,,,,,,,,,,,,,,,,,
,,6989df4ce6bf3a2e4b6479e1,2026-03-17_11h28.35.988,kallum_motion_pilot_GIST_update_2,2026.1.1,Win32,140.8450704,6989df4ce6bf3a2e4b6479e1,69b92ab4aef6dee357cd729a,69b92bc43f1a506ba98e781a,0.0398,0.0398,1,74,236,40,1,onetwo,,,,,,,,,,,,,,,,,,,,,,,,,,,,,,,,,,,,,,,,,,,,,,,,,,,,,,,,,,,,,,,,,,,,,,,,,,,,,,,,,,,,,,,,,,,,,,,,,,,,,,,,,,,,,,,,,,,,,,,,,,,,,,,,,,,,,,,,,
,,6989df4ce6bf3a2e4b6479e1,2026-03-17_11h28.35.988,kallum_motion_pilot_GIST_update_2,2026.1.1,Win32,140.8450704,6989df4ce6bf3a2e4b6479e1,69b92ab4aef6dee357cd729a,69b92bc43f1a506ba98e781a,0.0399,0.0399,1,75,237,124,1,sevenfive,,,,,,,,,,,,,,,,,,,,,,,,,,,,,,,,,,,,,,,,,,,,,,,,,,,,,,,,,,,,,,,,,,,,,,,,,,,,,,,,,,,,,,,,,,,,,,,,,,,,,,,,,,,,,,,,,,,,,,,,,,,,,,,,,,,,,,,,,
,,6989df4ce6bf3a2e4b6479e1,2026-03-17_11h28.35.988,kallum_motion_pilot_GIST_update_2,2026.1.1,Win32,140.8450704,6989df4ce6bf3a2e4b6479e1,69b92ab4aef6dee357cd729a,69b92bc43f1a506ba98e781a,0.0399,0.04,1,76,238,150,1,eightsix,,,,,,,,,,,,,,,,,,,,,,,,,,,,,,,,,,,,,,,,,,,,,,,,,,,,,,,,,,,,,,,,,,,,,,,,,,,,,,,,,,,,,,,,,,,,,,,,,,,,,,,,,,,,,,,,,,,,,,,,,,,,,,,,,,,,,,,,,
,,6989df4ce6bf3a2e4b6479e1,2026-03-17_11h28.35.988,kallum_motion_pilot_GIST_update_2,2026.1.1,Win32,140.8450704,6989df4ce6bf3a2e4b6479e1,69b92ab4aef6dee357cd729a,69b92bc43f1a506ba98e781a,0.04,0.04,1,77,239,10,1,twoone,,,,,,,,,,,,,,,,,,,,,,,,,,,,,,,,,,,,,,,,,,,,,,,,,,,,,,,,,,,,,,,,,,,,,,,,,,,,,,,,,,,,,,,,,,,,,,,,,,,,,,,,,,,,,,,,,,,,,,,,,,,,,,,,,,,,,,,,,
,,6989df4ce6bf3a2e4b6479e1,2026-03-17_11h28.35.988,kallum_motion_pilot_GIST_update_2,2026.1.1,Win32,140.8450704,6989df4ce6bf3a2e4b6479e1,69b92ab4aef6dee357cd729a,69b92bc43f1a506ba98e781a,0.0401,0.0401,1,78,240,159,1,eightseven,,,,,,,,,,,,,,,,,,,,,,,,,,,,,,,,,,,,,,,,,,,,,,,,,,,,,,,,,,,,,,,,,,,,,,,,,,,,,,,,,,,,,,,,,,,,,,,,,,,,,,,,,,,,,,,,,,,,,,,,,,,,,,,,,,,,,,,,,
,,6989df4ce6bf3a2e4b6479e1,2026-03-17_11h28.35.988,kallum_motion_pilot_GIST_update_2,2026.1.1,Win32,140.8450704,6989df4ce6bf3a2e4b6479e1,69b92ab4aef6dee357cd729a,69b92bc43f1a506ba98e781a,0.0401,0.0401,1,79,241,29,1,threefour,,,,,,,,,,,,,,,,,,,,,,,,,,,,,,,,,,,,,,,,,,,,,,,,,,,,,,,,,,,,,,,,,,,,,,,,,,,,,,,,,,,,,,,,,,,,,,,,,,,,,,,,,,,,,,,,,,,,,,,,,,,,,,,,,,,,,,,,,
,,6989df4ce6bf3a2e4b6479e1,2026-03-17_11h28.35.988,kallum_motion_pilot_GIST_update_2,2026.1.1,Win32,140.8450704,6989df4ce6bf3a2e4b6479e1,69b92ab4aef6dee357cd729a,69b92bc43f1a506ba98e781a,0.0402,0.0402,1,80,242,25,1,onethree,,,,,,,,,,,,,,,,,,,,,,,,,,,,,,,,,,,,,,,,,,,,,,,,,,,,,,,,,,,,,,,,,,,,,,,,,,,,,,,,,,,,,,,,,,,,,,,,,,,,,,,,,,,,,,,,,,,,,,,,,,,,,,,,,,,,,,,,,
,,6989df4ce6bf3a2e4b6479e1,2026-03-17_11h28.35.988,kallum_motion_pilot_GIST_update_2,2026.1.1,Win32,140.8450704,6989df4ce6bf3a2e4b6479e1,69b92ab4aef6dee357cd729a,69b92bc43f1a506ba98e781a,0.0403,0.0403,1,81,243,107,1,sixeight,,,,,,,,,,,,,,,,,,,,,,,,,,,,,,,,,,,,,,,,,,,,,,,,,,,,,,,,,,,,,,,,,,,,,,,,,,,,,,,,,,,,,,,,,,,,,,,,,,,,,,,,,,,,,,,,,,,,,,,,,,,,,,,,,,,,,,,,,
,,6989df4ce6bf3a2e4b6479e1,2026-03-17_11h28.35.988,kallum_motion_pilot_GIST_update_2,2026.1.1,Win32,140.8450704,6989df4ce6bf3a2e4b6479e1,69b92ab4aef6dee357cd729a,69b92bc43f1a506ba98e781a,0.0403,0.0403,1,82,244,160,1,fivesix,,,,,,,,,,,,,,,,,,,,,,,,,,,,,,,,,,,,,,,,,,,,,,,,,,,,,,,,,,,,,,,,,,,,,,,,,,,,,,,,,,,,,,,,,,,,,,,,,,,,,,,,,,,,,,,,,,,,,,,,,,,,,,,,,,,,,,,,,
,,6989df4ce6bf3a2e4b6479e1,2026-03-17_11h28.35.988,kallum_motion_pilot_GIST_update_2,2026.1.1,Win32,140.8450704,6989df4ce6bf3a2e4b6479e1,69b92ab4aef6dee357cd729a,69b92bc43f1a506ba98e781a,0.0404,0.0404,1,83,245,103,1,eightseven,,,,,,,,,,,,,,,,,,,,,,,,,,,,,,,,,,,,,,,,,,,,,,,,,,,,,,,,,,,,,,,,,,,,,,,,,,,,,,,,,,,,,,,,,,,,,,,,,,,,,,,,,,,,,,,,,,,,,,,,,,,,,,,,,,,,,,,,,
,,6989df4ce6bf3a2e4b6479e1,2026-03-17_11h28.35.988,kallum_motion_pilot_GIST_update_2,2026.1.1,Win32,140.8450704,6989df4ce6bf3a2e4b6479e1,69b92ab4aef6dee357cd729a,69b92bc43f1a506ba98e781a,0.0404,0.0404,1,84,246,130,1,sixfive,,,,,,,,,,,,,,,,,,,,,,,,,,,,,,,,,,,,,,,,,,,,,,,,,,,,,,,,,,,,,,,,,,,,,,,,,,,,,,,,,,,,,,,,,,,,,,,,,,,,,,,,,,,,,,,,,,,,,,,,,,,,,,,,,,,,,,,,,
,,6989df4ce6bf3a2e4b6479e1,2026-03-17_11h28.35.988,kallum_motion_pilot_GIST_update_2,2026.1.1,Win32,140.8450704,6989df4ce6bf3a2e4b6479e1,69b92ab4aef6dee357cd729a,69b92bc43f1a506ba98e781a,0.0405,0.0405,1,85,247,118,1,eightsix,,,,,,,,,,,,,,,,,,,,,,,,,,,,,,,,,,,,,,,,,,,,,,,,,,,,,,,,,,,,,,,,,,,,,,,,,,,,,,,,,,,,,,,,,,,,,,,,,,,,,,,,,,,,,,,,,,,,,,,,,,,,,,,,,,,,,,,,,
,,6989df4ce6bf3a2e4b6479e1,2026-03-17_11h28.35.988,kallum_motion_pilot_GIST_update_2,2026.1.1,Win32,140.8450704,6989df4ce6bf3a2e4b6479e1,69b92ab4aef6dee357cd729a,69b92bc43f1a506ba98e781a,0.0405,0.0405,1,86,248,128,1,fivesix,,,,,,,,,,,,,,,,,,,,,,,,,,,,,,,,,,,,,,,,,,,,,,,,,,,,,,,,,,,,,,,,,,,,,,,,,,,,,,,,,,,,,,,,,,,,,,,,,,,,,,,,,,,,,,,,,,,,,,,,,,,,,,,,,,,,,,,,,
,,6989df4ce6bf3a2e4b6479e1,2026-03-17_11h28.35.988,kallum_motion_pilot_GIST_update_2,2026.1.1,Win32,140.8450704,6989df4ce6bf3a2e4b6479e1,69b92ab4aef6dee357cd729a,69b92bc43f1a506ba98e781a,0.0406,0.0406,1,87,249,101,1,seveneight,,,,,,,,,,,,,,,,,,,,,,,,,,,,,,,,,,,,,,,,,,,,,,,,,,,,,,,,,,,,,,,,,,,,,,,,,,,,,,,,,,,,,,,,,,,,,,,,,,,,,,,,,,,,,,,,,,,,,,,,,,,,,,,,,,,,,,,,,
,,6989df4ce6bf3a2e4b6479e1,2026-03-17_11h28.35.988,kallum_motion_pilot_GIST_update_2,2026.1.1,Win32,140.8450704,6989df4ce6bf3a2e4b6479e1,69b92ab4aef6dee357cd729a,69b92bc43f1a506ba98e781a,0.0406,0.0406,1,88,250,67,1,twofour,,,,,,,,,,,,,,,,,,,,,,,,,,,,,,,,,,,,,,,,,,,,,,,,,,,,,,,,,,,,,,,,,,,,,,,,,,,,,,,,,,,,,,,,,,,,,,,,,,,,,,,,,,,,,,,,,,,,,,,,,,,,,,,,,,,,,,,,,
,,6989df4ce6bf3a2e4b6479e1,2026-03-17_11h28.35.988,kallum_motion_pilot_GIST_update_2,2026.1.1,Win32,140.8450704,6989df4ce6bf3a2e4b6479e1,69b92ab4aef6dee357cd729a,69b92bc43f1a506ba98e781a,0.0406,0.0406,1,89,251,82,1,sixfive,,,,,,,,,,,,,,,,,,,,,,,,,,,,,,,,,,,,,,,,,,,,,,,,,,,,,,,,,,,,,,,,,,,,,,,,,,,,,,,,,,,,,,,,,,,,,,,,,,,,,,,,,,,,,,,,,,,,,,,,,,,,,,,,,,,,,,,,,
,,6989df4ce6bf3a2e4b6479e1,2026-03-17_11h28.35.988,kallum_motion_pilot_GIST_update_2,2026.1.1,Win32,140.8450704,6989df4ce6bf3a2e4b6479e1,69b92ab4aef6dee357cd729a,69b92bc43f1a506ba98e781a,0.0408,0.0408,1,90,252,120,1,fivesix,,,,,,,,,,,,,,,,,,,,,,,,,,,,,,,,,,,,,,,,,,,,,,,,,,,,,,,,,,,,,,,,,,,,,,,,,,,,,,,,,,,,,,,,,,,,,,,,,,,,,,,,,,,,,,,,,,,,,,,,,,,,,,,,,,,,,,,,,
,,6989df4ce6bf3a2e4b6479e1,2026-03-17_11h28.35.988,kallum_motion_pilot_GIST_update_2,2026.1.1,Win32,140.8450704,6989df4ce6bf3a2e4b6479e1,69b92ab4aef6dee357cd729a,69b92bc43f1a506ba98e781a,0.0408,0.0408,1,91,253,62,1,fourtwo,,,,,,,,,,,,,,,,,,,,,,,,,,,,,,,,,,,,,,,,,,,,,,,,,,,,,,,,,,,,,,,,,,,,,,,,,,,,,,,,,,,,,,,,,,,,,,,,,,,,,,,,,,,,,,,,,,,,,,,,,,,,,,,,,,,,,,,,,
,,6989df4ce6bf3a2e4b6479e1,2026-03-17_11h28.35.988,kallum_motion_pilot_GIST_update_2,2026.1.1,Win32,140.8450704,6989df4ce6bf3a2e4b6479e1,69b92ab4aef6dee357cd729a,69b92bc43f1a506ba98e781a,0.0409,0.0409,1,92,254,115,1,sixeight,,,,,,,,,,,,,,,,,,,,,,,,,,,,,,,,,,,,,,,,,,,,,,,,,,,,,,,,,,,,,,,,,,,,,,,,,,,,,,,,,,,,,,,,,,,,,,,,,,,,,,,,,,,,,,,,,,,,,,,,,,,,,,,,,,,,,,,,,
,,6989df4ce6bf3a2e4b6479e1,2026-03-17_11h28.35.988,kallum_motion_pilot_GIST_update_2,2026.1.1,Win32,140.8450704,6989df4ce6bf3a2e4b6479e1,69b92ab4aef6dee357cd729a,69b92bc43f1a506ba98e781a,0.041,0.041,1,93,255,44,1,threeone,,,,,,,,,,,,,,,,,,,,,,,,,,,,,,,,,,,,,,,,,,,,,,,,,,,,,,,,,,,,,,,,,,,,,,,,,,,,,,,,,,,,,,,,,,,,,,,,,,,,,,,,,,,,,,,,,,,,,,,,,,,,,,,,,,,,,,,,,
,,6989df4ce6bf3a2e4b6479e1,2026-03-17_11h28.35.988,kallum_motion_pilot_GIST_update_2,2026.1.1,Win32,140.8450704,6989df4ce6bf3a2e4b6479e1,69b92ab4aef6dee357cd729a,69b92bc43f1a506ba98e781a,0.0411,0.0411,1,94,256,155,1,sixeight,,,,,,,,,,,,,,,,,,,,,,,,,,,,,,,,,,,,,,,,,,,,,,,,,,,,,,,,,,,,,,,,,,,,,,,,,,,,,,,,,,,,,,,,,,,,,,,,,,,,,,,,,,,,,,,,,,,,,,,,,,,,,,,,,,,,,,,,,
,,6989df4ce6bf3a2e4b6479e1,2026-03-17_11h28.35.988,kallum_motion_pilot_GIST_update_2,2026.1.1,Win32,140.8450704,6989df4ce6bf3a2e4b6479e1,69b92ab4aef6dee357cd729a,69b92bc43f1a506ba98e781a,0.0412,0.0412,1,95,257,39,1,fourthree,,,,,,,,,,,,,,,,,,,,,,,,,,,,,,,,,,,,,,,,,,,,,,,,,,,,,,,,,,,,,,,,,,,,,,,,,,,,,,,,,,,,,,,,,,,,,,,,,,,,,,,,,,,,,,,,,,,,,,,,,,,,,,,,,,,,,,,,,
,,6989df4ce6bf3a2e4b6479e1,2026-03-17_11h28.35.988,kallum_motion_pilot_GIST_update_2,2026.1.1,Win32,140.8450704,6989df4ce6bf3a2e4b6479e1,69b92ab4aef6dee357cd729a,69b92bc43f1a506ba98e781a,0.0412,0.0412,1,96,258,85,1,seveneight,,,,,,,,,,,,,,,,,,,,,,,,,,,,,,,,,,,,,,,,,,,,,,,,,,,,,,,,,,,,,,,,,,,,,,,,,,,,,,,,,,,,,,,,,,,,,,,,,,,,,,,,,,,,,,,,,,,,,,,,,,,,,,,,,,,,,,,,,
,,6989df4ce6bf3a2e4b6479e1,2026-03-17_11h28.35.988,kallum_motion_pilot_GIST_update_2,2026.1.1,Win32,140.8450704,6989df4ce6bf3a2e4b6479e1,69b92ab4aef6dee357cd729a,69b92bc43f1a506ba98e781a,0.0413,0.0413,1,97,259,139,1,sixeight,,,,,,,,,,,,,,,,,,,,,,,,,,,,,,,,,,,,,,,,,,,,,,,,,,,,,,,,,,,,,,,,,,,,,,,,,,,,,,,,,,,,,,,,,,,,,,,,,,,,,,,,,,,,,,,,,,,,,,,,,,,,,,,,,,,,,,,,,
,,6989df4ce6bf3a2e4b6479e1,2026-03-17_11h28.35.988,kallum_motion_pilot_GIST_update_2,2026.1.1,Win32,140.8450704,6989df4ce6bf3a2e4b6479e1,69b92ab4aef6dee357cd729a,69b92bc43f1a506ba98e781a,0.0414,0.0414,1,98,260,9,1,onethree,,,,,,,,,,,,,,,,,,,,,,,,,,,,,,,,,,,,,,,,,,,,,,,,,,,,,,,,,,,,,,,,,,,,,,,,,,,,,,,,,,,,,,,,,,,,,,,,,,,,,,,,,,,,,,,,,,,,,,,,,,,,,,,,,,,,,,,,,
,,6989df4ce6bf3a2e4b6479e1,2026-03-17_11h28.35.988,kallum_motion_pilot_GIST_update_2,2026.1.1,Win32,140.8450704,6989df4ce6bf3a2e4b6479e1,69b92ab4aef6dee357cd729a,69b92bc43f1a506ba98e781a,0.0414,0.0414,1,99,261,2,1,twoone,,,,,,,,,,,,,,,,,,,,,,,,,,,,,,,,,,,,,,,,,,,,,,,,,,,,,,,,,,,,,,,,,,,,,,,,,,,,,,,,,,,,,,,,,,,,,,,,,,,,,,,,,,,,,,,,,,,,,,,,,,,,,,,,,,,,,,,,,
,,6989df4ce6bf3a2e4b6479e1,2026-03-17_11h28.35.988,kallum_motion_pilot_GIST_update_2,2026.1.1,Win32,140.8450704,6989df4ce6bf3a2e4b6479e1,69b92ab4aef6dee357cd729a,69b92bc43f1a506ba98e781a,0.0416,0.0416,1,100,262,157,1,seveneight,,,,,,,,,,,,,,,,,,,,,,,,,,,,,,,,,,,,,,,,,,,,,,,,,,,,,,,,,,,,,,,,,,,,,,,,,,,,,,,,,,,,,,,,,,,,,,,,,,,,,,,,,,,,,,,,,,,,,,,,,,,,,,,,,,,,,,,,,
,,6989df4ce6bf3a2e4b6479e1,2026-03-17_11h28.35.988,kallum_motion_pilot_GIST_update_2,2026.1.1,Win32,140.8450704,6989df4ce6bf3a2e4b6479e1,69b92ab4aef6dee357cd729a,69b92bc43f1a506ba98e781a,0.0417,0.0417,1,101,263,105,1,fiveseven,,,,,,,,,,,,,,,,,,,,,,,,,,,,,,,,,,,,,,,,,,,,,,,,,,,,,,,,,,,,,,,,,,,,,,,,,,,,,,,,,,,,,,,,,,,,,,,,,,,,,,,,,,,,,,,,,,,,,,,,,,,,,,,,,,,,,,,,,
,,6989df4ce6bf3a2e4b6479e1,2026-03-17_11h28.35.988,kallum_motion_pilot_GIST_update_2,2026.1.1,Win32,140.8450704,6989df4ce6bf3a2e4b6479e1,69b92ab4aef6dee357cd729a,69b92bc43f1a506ba98e781a,0.0417,0.0417,1,102,264,24,1,onetwo,,,,,,,,,,,,,,,,,,,,,,,,,,,,,,,,,,,,,,,,,,,,,,,,,,,,,,,,,,,,,,,,,,,,,,,,,,,,,,,,,,,,,,,,,,,,,,,,,,,,,,,,,,,,,,,,,,,,,,,,,,,,,,,,,,,,,,,,,
,,6989df4ce6bf3a2e4b6479e1,2026-03-17_11h28.35.988,kallum_motion_pilot_GIST_update_2,2026.1.1,Win32,140.8450704,6989df4ce6bf3a2e4b6479e1,69b92ab4aef6dee357cd729a,69b92bc43f1a506ba98e781a,0.0418,0.0418,1,103,265,113,1,fiveseven,,,,,,,,,,,,,,,,,,,,,,,,,,,,,,,,,,,,,,,,,,,,,,,,,,,,,,,,,,,,,,,,,,,,,,,,,,,,,,,,,,,,,,,,,,,,,,,,,,,,,,,,,,,,,,,,,,,,,,,,,,,,,,,,,,,,,,,,,
,,6989df4ce6bf3a2e4b6479e1,2026-03-17_11h28.35.988,kallum_motion_pilot_GIST_update_2,2026.1.1,Win32,140.8450704,6989df4ce6bf3a2e4b6479e1,69b92ab4aef6dee357cd729a,69b92bc43f1a506ba98e781a,0.0419,0.0419,1,104,266,50,1,twoone,,,,,,,,,,,,,,,,,,,,,,,,,,,,,,,,,,,,,,,,,,,,,,,,,,,,,,,,,,,,,,,,,,,,,,,,,,,,,,,,,,,,,,,,,,,,,,,,,,,,,,,,,,,,,,,,,,,,,,,,,,,,,,,,,,,,,,,,,
