startup.started,startup.stopped,Prolific ID*,date,expName,psychopyVersion,OS,frameRate,participant,study_id,session,stimpositions.started,stimpositions.stopped,hardcoded_stimulus_positions.thisRepN,hardcoded_stimulus_positions.thisTrialN,hardcoded_stimulus_positions.thisN,hardcoded_stimulus_positions.thisIndex,hardcoded_stimulus_positions.ran,StimulusPos,stimorientation.started,stimorientation.stopped,prac_stimorientation_import_loop.thisRepN,prac_stimorientation_import_loop.thisTrialN,prac_stimorientation_import_loop.thisN,prac_stimorientation_import_loop.thisIndex,prac_stimorientation_import_loop.ran,Stimorientation,welcome_instr.started,welcome_instr.stopped,key_resp.keys,key_resp.rt,key_resp.duration,response_steppedout_1.started,response_steppedout_1.stopped,key_resp_20.keys,key_resp_20.rt,key_resp_20.duration,response_steppedout_2.started,response_steppedout_2.stopped,key_resp_19.keys,key_resp_19.rt,key_resp_19.duration,stim_response_instr.started,stim_response_instr.stopped,key_resp_15.keys,key_resp_15.rt,key_resp_15.duration,direction_instr_2.started,direction_instr_2.stopped,key_resp_9.keys,key_resp_9.rt,key_resp_9.duration,instr_prac.started,instr_prac.stopped,key_resp_10.keys,key_resp_10.rt,key_resp_10.duration,Stim1_display_prac.started,Stim1_display_prac.stopped,Ecc,Circle1_ori,Circle2_ori,response_prac.started,similarity,response_time,response_prac.stopped,mouse_5.x,mouse_5.y,mouse_5.leftButton,mouse_5.midButton,mouse_5.rightButton,mouse_5.clicked_name,responseprac_feedback.started,responseprac_feedback.stopped,summary2_prac.started,summary2_prac.stopped,mouse_6.x,mouse_6.y,mouse_6.leftButton,mouse_6.midButton,mouse_6.rightButton,mouse_6.clicked_name,duringprac.thisRepN,duringprac.thisTrialN,duringprac.thisN,duringprac.thisIndex,duringprac.ran,begin.started,begin.stopped,key_resp_22.keys,key_resp_22.rt,key_resp_22.duration,Stim1_display.started,Stim1_display.stopped,circle1_ori,circle2_ori,circle1_SF,circle2_SF,response.started,response.stopped,mouse.x,mouse.y,mouse.leftButton,mouse.midButton,mouse.rightButton,mouse.clicked_name,trialnumber,double_pass.thisRepN,double_pass.thisTrialN,double_pass.thisN,double_pass.thisIndex,double_pass.ran,double_pass.order,main_trial.thisRepN,main_trial.thisTrialN,main_trial.thisN,main_trial.thisIndex,main_trial.ran,main_trial.order,Trial_Counter,Catch,Frequencies,response_2.started,response_2.stopped,mouse_2.x,mouse_2.y,mouse_2.leftButton,mouse_2.midButton,mouse_2.rightButton,mouse_2.clicked_name,special_trial.started,special_trial.stopped,catch_1.started,catch_1.stopped,mouse_3.x,mouse_3.y,mouse_3.leftButton,mouse_3.midButton,mouse_3.rightButton,catchresponse,catchnumber,response_time_catch,response_sum.started,response_sum.stopped,mouse_11.x,mouse_11.y,mouse_11.leftButton,mouse_11.midButton,mouse_11.rightButton,flip_presentation_sequence_for_double_pass.started,flip_presentation_sequence_for_double_pass.stopped,goodbye.started,goodbye.stopped,key_resp_3.keys,key_resp_3.rt,key_resp_3.duration
0.0002,0.0003,698e0c45e7907168d29d5b02,2026-03-17_09h09.30.955,kallum_motion_pilot_GIST_update_2,2026.1.1,Win32,59.52380952,698e0c45e7907168d29d5b02,69b95efdef24cd8a694e89ee,69b96079858224eeb6c56c77,,,,,,,,,,,,,,,,,,,,,,,,,,,,,,,,,,,,,,,,,,,,,,,,,,,,,,,,,,,,,,,,,,,,,,,,,,,,,,,,,,,,,,,,,,,,,,,,,,,,,,,,,,,,,,,,,,,,,,,,,,,,,,,,,,,,,,,,,,,,,,,,,
,,698e0c45e7907168d29d5b02,2026-03-17_09h09.30.955,kallum_motion_pilot_GIST_update_2,2026.1.1,Win32,59.52380952,698e0c45e7907168d29d5b02,69b95efdef24cd8a694e89ee,69b96079858224eeb6c56c77,0.0231,0.0233,0,0,0,130,1,sixfive,,,,,,,,,,,,,,,,,,,,,,,,,,,,,,,,,,,,,,,,,,,,,,,,,,,,,,,,,,,,,,,,,,,,,,,,,,,,,,,,,,,,,,,,,,,,,,,,,,,,,,,,,,,,,,,,,,,,,,,,,,,,,,,,,,,,,,,,,
,,698e0c45e7907168d29d5b02,2026-03-17_09h09.30.955,kallum_motion_pilot_GIST_update_2,2026.1.1,Win32,59.52380952,698e0c45e7907168d29d5b02,69b95efdef24cd8a694e89ee,69b96079858224eeb6c56c77,0.0235,0.0235,0,1,1,101,1,seveneight,,,,,,,,,,,,,,,,,,,,,,,,,,,,,,,,,,,,,,,,,,,,,,,,,,,,,,,,,,,,,,,,,,,,,,,,,,,,,,,,,,,,,,,,,,,,,,,,,,,,,,,,,,,,,,,,,,,,,,,,,,,,,,,,,,,,,,,,,
,,698e0c45e7907168d29d5b02,2026-03-17_09h09.30.955,kallum_motion_pilot_GIST_update_2,2026.1.1,Win32,59.52380952,698e0c45e7907168d29d5b02,69b95efdef24cd8a694e89ee,69b96079858224eeb6c56c77,0.0237,0.0237,0,2,2,123,1,sixeight,,,,,,,,,,,,,,,,,,,,,,,,,,,,,,,,,,,,,,,,,,,,,,,,,,,,,,,,,,,,,,,,,,,,,,,,,,,,,,,,,,,,,,,,,,,,,,,,,,,,,,,,,,,,,,,,,,,,,,,,,,,,,,,,,,,,,,,,,
,,698e0c45e7907168d29d5b02,2026-03-17_09h09.30.955,kallum_motion_pilot_GIST_update_2,2026.1.1,Win32,59.52380952,698e0c45e7907168d29d5b02,69b95efdef24cd8a694e89ee,69b96079858224eeb6c56c77,0.024,0.024,0,3,3,74,1,twoone,,,,,,,,,,,,,,,,,,,,,,,,,,,,,,,,,,,,,,,,,,,,,,,,,,,,,,,,,,,,,,,,,,,,,,,,,,,,,,,,,,,,,,,,,,,,,,,,,,,,,,,,,,,,,,,,,,,,,,,,,,,,,,,,,,,,,,,,,
,,698e0c45e7907168d29d5b02,2026-03-17_09h09.30.955,kallum_motion_pilot_GIST_update_2,2026.1.1,Win32,59.52380952,698e0c45e7907168d29d5b02,69b95efdef24cd8a694e89ee,69b96079858224eeb6c56c77,0.0251,0.0251,0,4,4,151,1,eightseven,,,,,,,,,,,,,,,,,,,,,,,,,,,,,,,,,,,,,,,,,,,,,,,,,,,,,,,,,,,,,,,,,,,,,,,,,,,,,,,,,,,,,,,,,,,,,,,,,,,,,,,,,,,,,,,,,,,,,,,,,,,,,,,,,,,,,,,,,
,,698e0c45e7907168d29d5b02,2026-03-17_09h09.30.955,kallum_motion_pilot_GIST_update_2,2026.1.1,Win32,59.52380952,698e0c45e7907168d29d5b02,69b95efdef24cd8a694e89ee,69b96079858224eeb6c56c77,0.0254,0.0254,0,5,5,93,1,seveneight,,,,,,,,,,,,,,,,,,,,,,,,,,,,,,,,,,,,,,,,,,,,,,,,,,,,,,,,,,,,,,,,,,,,,,,,,,,,,,,,,,,,,,,,,,,,,,,,,,,,,,,,,,,,,,,,,,,,,,,,,,,,,,,,,,,,,,,,,
,,698e0c45e7907168d29d5b02,2026-03-17_09h09.30.955,kallum_motion_pilot_GIST_update_2,2026.1.1,Win32,59.52380952,698e0c45e7907168d29d5b02,69b95efdef24cd8a694e89ee,69b96079858224eeb6c56c77,0.0255,0.0255,0,6,6,33,1,onethree,,,,,,,,,,,,,,,,,,,,,,,,,,,,,,,,,,,,,,,,,,,,,,,,,,,,,,,,,,,,,,,,,,,,,,,,,,,,,,,,,,,,,,,,,,,,,,,,,,,,,,,,,,,,,,,,,,,,,,,,,,,,,,,,,,,,,,,,,
,,698e0c45e7907168d29d5b02,2026-03-17_09h09.30.955,kallum_motion_pilot_GIST_update_2,2026.1.1,Win32,59.52380952,698e0c45e7907168d29d5b02,69b95efdef24cd8a694e89ee,69b96079858224eeb6c56c77,0.0258,0.0258,0,7,7,78,1,fourtwo,,,,,,,,,,,,,,,,,,,,,,,,,,,,,,,,,,,,,,,,,,,,,,,,,,,,,,,,,,,,,,,,,,,,,,,,,,,,,,,,,,,,,,,,,,,,,,,,,,,,,,,,,,,,,,,,,,,,,,,,,,,,,,,,,,,,,,,,,
,,698e0c45e7907168d29d5b02,2026-03-17_09h09.30.955,kallum_motion_pilot_GIST_update_2,2026.1.1,Win32,59.52380952,698e0c45e7907168d29d5b02,69b95efdef24cd8a694e89ee,69b96079858224eeb6c56c77,0.0259,0.0259,0,8,8,98,1,sixfive,,,,,,,,,,,,,,,,,,,,,,,,,,,,,,,,,,,,,,,,,,,,,,,,,,,,,,,,,,,,,,,,,,,,,,,,,,,,,,,,,,,,,,,,,,,,,,,,,,,,,,,,,,,,,,,,,,,,,,,,,,,,,,,,,,,,,,,,,
,,698e0c45e7907168d29d5b02,2026-03-17_09h09.30.955,kallum_motion_pilot_GIST_update_2,2026.1.1,Win32,59.52380952,698e0c45e7907168d29d5b02,69b95efdef24cd8a694e89ee,69b96079858224eeb6c56c77,0.026,0.026,0,9,9,125,1,seveneight,,,,,,,,,,,,,,,,,,,,,,,,,,,,,,,,,,,,,,,,,,,,,,,,,,,,,,,,,,,,,,,,,,,,,,,,,,,,,,,,,,,,,,,,,,,,,,,,,,,,,,,,,,,,,,,,,,,,,,,,,,,,,,,,,,,,,,,,,
,,698e0c45e7907168d29d5b02,2026-03-17_09h09.30.955,kallum_motion_pilot_GIST_update_2,2026.1.1,Win32,59.52380952,698e0c45e7907168d29d5b02,69b95efdef24cd8a694e89ee,69b96079858224eeb6c56c77,0.0262,0.0262,0,10,10,156,1,sevenfive,,,,,,,,,,,,,,,,,,,,,,,,,,,,,,,,,,,,,,,,,,,,,,,,,,,,,,,,,,,,,,,,,,,,,,,,,,,,,,,,,,,,,,,,,,,,,,,,,,,,,,,,,,,,,,,,,,,,,,,,,,,,,,,,,,,,,,,,,
,,698e0c45e7907168d29d5b02,2026-03-17_09h09.30.955,kallum_motion_pilot_GIST_update_2,2026.1.1,Win32,59.52380952,698e0c45e7907168d29d5b02,69b95efdef24cd8a694e89ee,69b96079858224eeb6c56c77,0.0264,0.0264,0,11,11,70,1,fourtwo,,,,,,,,,,,,,,,,,,,,,,,,,,,,,,,,,,,,,,,,,,,,,,,,,,,,,,,,,,,,,,,,,,,,,,,,,,,,,,,,,,,,,,,,,,,,,,,,,,,,,,,,,,,,,,,,,,,,,,,,,,,,,,,,,,,,,,,,,
,,698e0c45e7907168d29d5b02,2026-03-17_09h09.30.955,kallum_motion_pilot_GIST_update_2,2026.1.1,Win32,59.52380952,698e0c45e7907168d29d5b02,69b95efdef24cd8a694e89ee,69b96079858224eeb6c56c77,0.0266,0.0266,0,12,12,69,1,threefour,,,,,,,,,,,,,,,,,,,,,,,,,,,,,,,,,,,,,,,,,,,,,,,,,,,,,,,,,,,,,,,,,,,,,,,,,,,,,,,,,,,,,,,,,,,,,,,,,,,,,,,,,,,,,,,,,,,,,,,,,,,,,,,,,,,,,,,,,
,,698e0c45e7907168d29d5b02,2026-03-17_09h09.30.955,kallum_motion_pilot_GIST_update_2,2026.1.1,Win32,59.52380952,698e0c45e7907168d29d5b02,69b95efdef24cd8a694e89ee,69b96079858224eeb6c56c77,0.0268,0.0268,0,13,13,22,1,fourtwo,,,,,,,,,,,,,,,,,,,,,,,,,,,,,,,,,,,,,,,,,,,,,,,,,,,,,,,,,,,,,,,,,,,,,,,,,,,,,,,,,,,,,,,,,,,,,,,,,,,,,,,,,,,,,,,,,,,,,,,,,,,,,,,,,,,,,,,,,
,,698e0c45e7907168d29d5b02,2026-03-17_09h09.30.955,kallum_motion_pilot_GIST_update_2,2026.1.1,Win32,59.52380952,698e0c45e7907168d29d5b02,69b95efdef24cd8a694e89ee,69b96079858224eeb6c56c77,0.0269,0.0269,0,14,14,145,1,fiveseven,,,,,,,,,,,,,,,,,,,,,,,,,,,,,,,,,,,,,,,,,,,,,,,,,,,,,,,,,,,,,,,,,,,,,,,,,,,,,,,,,,,,,,,,,,,,,,,,,,,,,,,,,,,,,,,,,,,,,,,,,,,,,,,,,,,,,,,,,
,,698e0c45e7907168d29d5b02,2026-03-17_09h09.30.955,kallum_motion_pilot_GIST_update_2,2026.1.1,Win32,59.52380952,698e0c45e7907168d29d5b02,69b95efdef24cd8a694e89ee,69b96079858224eeb6c56c77,0.027,0.027,0,15,15,44,1,threeone,,,,,,,,,,,,,,,,,,,,,,,,,,,,,,,,,,,,,,,,,,,,,,,,,,,,,,,,,,,,,,,,,,,,,,,,,,,,,,,,,,,,,,,,,,,,,,,,,,,,,,,,,,,,,,,,,,,,,,,,,,,,,,,,,,,,,,,,,
,,698e0c45e7907168d29d5b02,2026-03-17_09h09.30.955,kallum_motion_pilot_GIST_update_2,2026.1.1,Win32,59.52380952,698e0c45e7907168d29d5b02,69b95efdef24cd8a694e89ee,69b96079858224eeb6c56c77,0.0272,0.0272,0,16,16,84,1,sevenfive,,,,,,,,,,,,,,,,,,,,,,,,,,,,,,,,,,,,,,,,,,,,,,,,,,,,,,,,,,,,,,,,,,,,,,,,,,,,,,,,,,,,,,,,,,,,,,,,,,,,,,,,,,,,,,,,,,,,,,,,,,,,,,,,,,,,,,,,,
,,698e0c45e7907168d29d5b02,2026-03-17_09h09.30.955,kallum_motion_pilot_GIST_update_2,2026.1.1,Win32,59.52380952,698e0c45e7907168d29d5b02,69b95efdef24cd8a694e89ee,69b96079858224eeb6c56c77,0.0273,0.0273,0,17,17,45,1,threefour,,,,,,,,,,,,,,,,,,,,,,,,,,,,,,,,,,,,,,,,,,,,,,,,,,,,,,,,,,,,,,,,,,,,,,,,,,,,,,,,,,,,,,,,,,,,,,,,,,,,,,,,,,,,,,,,,,,,,,,,,,,,,,,,,,,,,,,,,
,,698e0c45e7907168d29d5b02,2026-03-17_09h09.30.955,kallum_motion_pilot_GIST_update_2,2026.1.1,Win32,59.52380952,698e0c45e7907168d29d5b02,69b95efdef24cd8a694e89ee,69b96079858224eeb6c56c77,0.0275,0.0275,0,18,18,25,1,onethree,,,,,,,,,,,,,,,,,,,,,,,,,,,,,,,,,,,,,,,,,,,,,,,,,,,,,,,,,,,,,,,,,,,,,,,,,,,,,,,,,,,,,,,,,,,,,,,,,,,,,,,,,,,,,,,,,,,,,,,,,,,,,,,,,,,,,,,,,
,,698e0c45e7907168d29d5b02,2026-03-17_09h09.30.955,kallum_motion_pilot_GIST_update_2,2026.1.1,Win32,59.52380952,698e0c45e7907168d29d5b02,69b95efdef24cd8a694e89ee,69b96079858224eeb6c56c77,0.0275,0.0275,0,19,19,99,1,sixeight,,,,,,,,,,,,,,,,,,,,,,,,,,,,,,,,,,,,,,,,,,,,,,,,,,,,,,,,,,,,,,,,,,,,,,,,,,,,,,,,,,,,,,,,,,,,,,,,,,,,,,,,,,,,,,,,,,,,,,,,,,,,,,,,,,,,,,,,,
,,698e0c45e7907168d29d5b02,2026-03-17_09h09.30.955,kallum_motion_pilot_GIST_update_2,2026.1.1,Win32,59.52380952,698e0c45e7907168d29d5b02,69b95efdef24cd8a694e89ee,69b96079858224eeb6c56c77,0.0277,0.0277,0,20,20,42,1,twoone,,,,,,,,,,,,,,,,,,,,,,,,,,,,,,,,,,,,,,,,,,,,,,,,,,,,,,,,,,,,,,,,,,,,,,,,,,,,,,,,,,,,,,,,,,,,,,,,,,,,,,,,,,,,,,,,,,,,,,,,,,,,,,,,,,,,,,,,,
,,698e0c45e7907168d29d5b02,2026-03-17_09h09.30.955,kallum_motion_pilot_GIST_update_2,2026.1.1,Win32,59.52380952,698e0c45e7907168d29d5b02,69b95efdef24cd8a694e89ee,69b96079858224eeb6c56c77,0.0278,0.0279,0,21,21,10,1,twoone,,,,,,,,,,,,,,,,,,,,,,,,,,,,,,,,,,,,,,,,,,,,,,,,,,,,,,,,,,,,,,,,,,,,,,,,,,,,,,,,,,,,,,,,,,,,,,,,,,,,,,,,,,,,,,,,,,,,,,,,,,,,,,,,,,,,,,,,,
,,698e0c45e7907168d29d5b02,2026-03-17_09h09.30.955,kallum_motion_pilot_GIST_update_2,2026.1.1,Win32,59.52380952,698e0c45e7907168d29d5b02,69b95efdef24cd8a694e89ee,69b96079858224eeb6c56c77,0.028,0.028,0,22,22,36,1,threeone,,,,,,,,,,,,,,,,,,,,,,,,,,,,,,,,,,,,,,,,,,,,,,,,,,,,,,,,,,,,,,,,,,,,,,,,,,,,,,,,,,,,,,,,,,,,,,,,,,,,,,,,,,,,,,,,,,,,,,,,,,,,,,,,,,,,,,,,,
,,698e0c45e7907168d29d5b02,2026-03-17_09h09.30.955,kallum_motion_pilot_GIST_update_2,2026.1.1,Win32,59.52380952,698e0c45e7907168d29d5b02,69b95efdef24cd8a694e89ee,69b96079858224eeb6c56c77,0.0281,0.0281,0,23,23,31,1,fourthree,,,,,,,,,,,,,,,,,,,,,,,,,,,,,,,,,,,,,,,,,,,,,,,,,,,,,,,,,,,,,,,,,,,,,,,,,,,,,,,,,,,,,,,,,,,,,,,,,,,,,,,,,,,,,,,,,,,,,,,,,,,,,,,,,,,,,,,,,
,,698e0c45e7907168d29d5b02,2026-03-17_09h09.30.955,kallum_motion_pilot_GIST_update_2,2026.1.1,Win32,59.52380952,698e0c45e7907168d29d5b02,69b95efdef24cd8a694e89ee,69b96079858224eeb6c56c77,0.0283,0.0283,0,24,24,41,1,onethree,,,,,,,,,,,,,,,,,,,,,,,,,,,,,,,,,,,,,,,,,,,,,,,,,,,,,,,,,,,,,,,,,,,,,,,,,,,,,,,,,,,,,,,,,,,,,,,,,,,,,,,,,,,,,,,,,,,,,,,,,,,,,,,,,,,,,,,,,
,,698e0c45e7907168d29d5b02,2026-03-17_09h09.30.955,kallum_motion_pilot_GIST_update_2,2026.1.1,Win32,59.52380952,698e0c45e7907168d29d5b02,69b95efdef24cd8a694e89ee,69b96079858224eeb6c56c77,0.0285,0.0285,0,25,25,120,1,fivesix,,,,,,,,,,,,,,,,,,,,,,,,,,,,,,,,,,,,,,,,,,,,,,,,,,,,,,,,,,,,,,,,,,,,,,,,,,,,,,,,,,,,,,,,,,,,,,,,,,,,,,,,,,,,,,,,,,,,,,,,,,,,,,,,,,,,,,,,,
,,698e0c45e7907168d29d5b02,2026-03-17_09h09.30.955,kallum_motion_pilot_GIST_update_2,2026.1.1,Win32,59.52380952,698e0c45e7907168d29d5b02,69b95efdef24cd8a694e89ee,69b96079858224eeb6c56c77,0.0286,0.0286,0,26,26,32,1,onetwo,,,,,,,,,,,,,,,,,,,,,,,,,,,,,,,,,,,,,,,,,,,,,,,,,,,,,,,,,,,,,,,,,,,,,,,,,,,,,,,,,,,,,,,,,,,,,,,,,,,,,,,,,,,,,,,,,,,,,,,,,,,,,,,,,,,,,,,,,
,,698e0c45e7907168d29d5b02,2026-03-17_09h09.30.955,kallum_motion_pilot_GIST_update_2,2026.1.1,Win32,59.52380952,698e0c45e7907168d29d5b02,69b95efdef24cd8a694e89ee,69b96079858224eeb6c56c77,0.0287,0.0287,0,27,27,92,1,sevenfive,,,,,,,,,,,,,,,,,,,,,,,,,,,,,,,,,,,,,,,,,,,,,,,,,,,,,,,,,,,,,,,,,,,,,,,,,,,,,,,,,,,,,,,,,,,,,,,,,,,,,,,,,,,,,,,,,,,,,,,,,,,,,,,,,,,,,,,,,
,,698e0c45e7907168d29d5b02,2026-03-17_09h09.30.955,kallum_motion_pilot_GIST_update_2,2026.1.1,Win32,59.52380952,698e0c45e7907168d29d5b02,69b95efdef24cd8a694e89ee,69b96079858224eeb6c56c77,0.0289,0.0289,0,28,28,53,1,threefour,,,,,,,,,,,,,,,,,,,,,,,,,,,,,,,,,,,,,,,,,,,,,,,,,,,,,,,,,,,,,,,,,,,,,,,,,,,,,,,,,,,,,,,,,,,,,,,,,,,,,,,,,,,,,,,,,,,,,,,,,,,,,,,,,,,,,,,,,
,,698e0c45e7907168d29d5b02,2026-03-17_09h09.30.955,kallum_motion_pilot_GIST_update_2,2026.1.1,Win32,59.52380952,698e0c45e7907168d29d5b02,69b95efdef24cd8a694e89ee,69b96079858224eeb6c56c77,0.0291,0.0291,0,29,29,131,1,sixeight,,,,,,,,,,,,,,,,,,,,,,,,,,,,,,,,,,,,,,,,,,,,,,,,,,,,,,,,,,,,,,,,,,,,,,,,,,,,,,,,,,,,,,,,,,,,,,,,,,,,,,,,,,,,,,,,,,,,,,,,,,,,,,,,,,,,,,,,,
,,698e0c45e7907168d29d5b02,2026-03-17_09h09.30.955,kallum_motion_pilot_GIST_update_2,2026.1.1,Win32,59.52380952,698e0c45e7907168d29d5b02,69b95efdef24cd8a694e89ee,69b96079858224eeb6c56c77,0.0293,0.0293,0,30,30,112,1,fivesix,,,,,,,,,,,,,,,,,,,,,,,,,,,,,,,,,,,,,,,,,,,,,,,,,,,,,,,,,,,,,,,,,,,,,,,,,,,,,,,,,,,,,,,,,,,,,,,,,,,,,,,,,,,,,,,,,,,,,,,,,,,,,,,,,,,,,,,,,
,,698e0c45e7907168d29d5b02,2026-03-17_09h09.30.955,kallum_motion_pilot_GIST_update_2,2026.1.1,Win32,59.52380952,698e0c45e7907168d29d5b02,69b95efdef24cd8a694e89ee,69b96079858224eeb6c56c77,0.0294,0.0294,0,31,31,94,1,eightsix,,,,,,,,,,,,,,,,,,,,,,,,,,,,,,,,,,,,,,,,,,,,,,,,,,,,,,,,,,,,,,,,,,,,,,,,,,,,,,,,,,,,,,,,,,,,,,,,,,,,,,,,,,,,,,,,,,,,,,,,,,,,,,,,,,,,,,,,,
,,698e0c45e7907168d29d5b02,2026-03-17_09h09.30.955,kallum_motion_pilot_GIST_update_2,2026.1.1,Win32,59.52380952,698e0c45e7907168d29d5b02,69b95efdef24cd8a694e89ee,69b96079858224eeb6c56c77,0.0295,0.0295,0,32,32,114,1,sixfive,,,,,,,,,,,,,,,,,,,,,,,,,,,,,,,,,,,,,,,,,,,,,,,,,,,,,,,,,,,,,,,,,,,,,,,,,,,,,,,,,,,,,,,,,,,,,,,,,,,,,,,,,,,,,,,,,,,,,,,,,,,,,,,,,,,,,,,,,
,,698e0c45e7907168d29d5b02,2026-03-17_09h09.30.955,kallum_motion_pilot_GIST_update_2,2026.1.1,Win32,59.52380952,698e0c45e7907168d29d5b02,69b95efdef24cd8a694e89ee,69b96079858224eeb6c56c77,0.0296,0.0296,0,33,33,161,1,fiveseven,,,,,,,,,,,,,,,,,,,,,,,,,,,,,,,,,,,,,,,,,,,,,,,,,,,,,,,,,,,,,,,,,,,,,,,,,,,,,,,,,,,,,,,,,,,,,,,,,,,,,,,,,,,,,,,,,,,,,,,,,,,,,,,,,,,,,,,,,
,,698e0c45e7907168d29d5b02,2026-03-17_09h09.30.955,kallum_motion_pilot_GIST_update_2,2026.1.1,Win32,59.52380952,698e0c45e7907168d29d5b02,69b95efdef24cd8a694e89ee,69b96079858224eeb6c56c77,0.0298,0.0299,0,34,34,160,1,fivesix,,,,,,,,,,,,,,,,,,,,,,,,,,,,,,,,,,,,,,,,,,,,,,,,,,,,,,,,,,,,,,,,,,,,,,,,,,,,,,,,,,,,,,,,,,,,,,,,,,,,,,,,,,,,,,,,,,,,,,,,,,,,,,,,,,,,,,,,,
,,698e0c45e7907168d29d5b02,2026-03-17_09h09.30.955,kallum_motion_pilot_GIST_update_2,2026.1.1,Win32,59.52380952,698e0c45e7907168d29d5b02,69b95efdef24cd8a694e89ee,69b96079858224eeb6c56c77,0.0299,0.0299,0,35,35,28,1,threeone,,,,,,,,,,,,,,,,,,,,,,,,,,,,,,,,,,,,,,,,,,,,,,,,,,,,,,,,,,,,,,,,,,,,,,,,,,,,,,,,,,,,,,,,,,,,,,,,,,,,,,,,,,,,,,,,,,,,,,,,,,,,,,,,,,,,,,,,,
,,698e0c45e7907168d29d5b02,2026-03-17_09h09.30.955,kallum_motion_pilot_GIST_update_2,2026.1.1,Win32,59.52380952,698e0c45e7907168d29d5b02,69b95efdef24cd8a694e89ee,69b96079858224eeb6c56c77,0.0301,0.0301,0,36,36,117,1,seveneight,,,,,,,,,,,,,,,,,,,,,,,,,,,,,,,,,,,,,,,,,,,,,,,,,,,,,,,,,,,,,,,,,,,,,,,,,,,,,,,,,,,,,,,,,,,,,,,,,,,,,,,,,,,,,,,,,,,,,,,,,,,,,,,,,,,,,,,,,
,,698e0c45e7907168d29d5b02,2026-03-17_09h09.30.955,kallum_motion_pilot_GIST_update_2,2026.1.1,Win32,59.52380952,698e0c45e7907168d29d5b02,69b95efdef24cd8a694e89ee,69b96079858224eeb6c56c77,0.0302,0.0302,0,37,37,6,1,fourtwo,,,,,,,,,,,,,,,,,,,,,,,,,,,,,,,,,,,,,,,,,,,,,,,,,,,,,,,,,,,,,,,,,,,,,,,,,,,,,,,,,,,,,,,,,,,,,,,,,,,,,,,,,,,,,,,,,,,,,,,,,,,,,,,,,,,,,,,,,
,,698e0c45e7907168d29d5b02,2026-03-17_09h09.30.955,kallum_motion_pilot_GIST_update_2,2026.1.1,Win32,59.52380952,698e0c45e7907168d29d5b02,69b95efdef24cd8a694e89ee,69b96079858224eeb6c56c77,0.0305,0.0305,0,38,38,68,1,threeone,,,,,,,,,,,,,,,,,,,,,,,,,,,,,,,,,,,,,,,,,,,,,,,,,,,,,,,,,,,,,,,,,,,,,,,,,,,,,,,,,,,,,,,,,,,,,,,,,,,,,,,,,,,,,,,,,,,,,,,,,,,,,,,,,,,,,,,,,
,,698e0c45e7907168d29d5b02,2026-03-17_09h09.30.955,kallum_motion_pilot_GIST_update_2,2026.1.1,Win32,59.52380952,698e0c45e7907168d29d5b02,69b95efdef24cd8a694e89ee,69b96079858224eeb6c56c77,0.0305,0.0305,0,39,39,40,1,onetwo,,,,,,,,,,,,,,,,,,,,,,,,,,,,,,,,,,,,,,,,,,,,,,,,,,,,,,,,,,,,,,,,,,,,,,,,,,,,,,,,,,,,,,,,,,,,,,,,,,,,,,,,,,,,,,,,,,,,,,,,,,,,,,,,,,,,,,,,,
,,698e0c45e7907168d29d5b02,2026-03-17_09h09.30.955,kallum_motion_pilot_GIST_update_2,2026.1.1,Win32,59.52380952,698e0c45e7907168d29d5b02,69b95efdef24cd8a694e89ee,69b96079858224eeb6c56c77,0.0307,0.0307,0,40,40,80,1,fivesix,,,,,,,,,,,,,,,,,,,,,,,,,,,,,,,,,,,,,,,,,,,,,,,,,,,,,,,,,,,,,,,,,,,,,,,,,,,,,,,,,,,,,,,,,,,,,,,,,,,,,,,,,,,,,,,,,,,,,,,,,,,,,,,,,,,,,,,,,
,,698e0c45e7907168d29d5b02,2026-03-17_09h09.30.955,kallum_motion_pilot_GIST_update_2,2026.1.1,Win32,59.52380952,698e0c45e7907168d29d5b02,69b95efdef24cd8a694e89ee,69b96079858224eeb6c56c77,0.0308,0.0308,0,41,41,12,1,threeone,,,,,,,,,,,,,,,,,,,,,,,,,,,,,,,,,,,,,,,,,,,,,,,,,,,,,,,,,,,,,,,,,,,,,,,,,,,,,,,,,,,,,,,,,,,,,,,,,,,,,,,,,,,,,,,,,,,,,,,,,,,,,,,,,,,,,,,,,
,,698e0c45e7907168d29d5b02,2026-03-17_09h09.30.955,kallum_motion_pilot_GIST_update_2,2026.1.1,Win32,59.52380952,698e0c45e7907168d29d5b02,69b95efdef24cd8a694e89ee,69b96079858224eeb6c56c77,0.031,0.031,0,42,42,79,1,eightseven,,,,,,,,,,,,,,,,,,,,,,,,,,,,,,,,,,,,,,,,,,,,,,,,,,,,,,,,,,,,,,,,,,,,,,,,,,,,,,,,,,,,,,,,,,,,,,,,,,,,,,,,,,,,,,,,,,,,,,,,,,,,,,,,,,,,,,,,,
,,698e0c45e7907168d29d5b02,2026-03-17_09h09.30.955,kallum_motion_pilot_GIST_update_2,2026.1.1,Win32,59.52380952,698e0c45e7907168d29d5b02,69b95efdef24cd8a694e89ee,69b96079858224eeb6c56c77,0.0311,0.0311,0,43,43,72,1,onetwo,,,,,,,,,,,,,,,,,,,,,,,,,,,,,,,,,,,,,,,,,,,,,,,,,,,,,,,,,,,,,,,,,,,,,,,,,,,,,,,,,,,,,,,,,,,,,,,,,,,,,,,,,,,,,,,,,,,,,,,,,,,,,,,,,,,,,,,,,
,,698e0c45e7907168d29d5b02,2026-03-17_09h09.30.955,kallum_motion_pilot_GIST_update_2,2026.1.1,Win32,59.52380952,698e0c45e7907168d29d5b02,69b95efdef24cd8a694e89ee,69b96079858224eeb6c56c77,0.0313,0.0313,0,44,44,64,1,onetwo,,,,,,,,,,,,,,,,,,,,,,,,,,,,,,,,,,,,,,,,,,,,,,,,,,,,,,,,,,,,,,,,,,,,,,,,,,,,,,,,,,,,,,,,,,,,,,,,,,,,,,,,,,,,,,,,,,,,,,,,,,,,,,,,,,,,,,,,,
,,698e0c45e7907168d29d5b02,2026-03-17_09h09.30.955,kallum_motion_pilot_GIST_update_2,2026.1.1,Win32,59.52380952,698e0c45e7907168d29d5b02,69b95efdef24cd8a694e89ee,69b96079858224eeb6c56c77,0.0314,0.0314,0,45,45,127,1,eightseven,,,,,,,,,,,,,,,,,,,,,,,,,,,,,,,,,,,,,,,,,,,,,,,,,,,,,,,,,,,,,,,,,,,,,,,,,,,,,,,,,,,,,,,,,,,,,,,,,,,,,,,,,,,,,,,,,,,,,,,,,,,,,,,,,,,,,,,,,
,,698e0c45e7907168d29d5b02,2026-03-17_09h09.30.955,kallum_motion_pilot_GIST_update_2,2026.1.1,Win32,59.52380952,698e0c45e7907168d29d5b02,69b95efdef24cd8a694e89ee,69b96079858224eeb6c56c77,0.0316,0.0316,0,46,46,97,1,fiveseven,,,,,,,,,,,,,,,,,,,,,,,,,,,,,,,,,,,,,,,,,,,,,,,,,,,,,,,,,,,,,,,,,,,,,,,,,,,,,,,,,,,,,,,,,,,,,,,,,,,,,,,,,,,,,,,,,,,,,,,,,,,,,,,,,,,,,,,,,
,,698e0c45e7907168d29d5b02,2026-03-17_09h09.30.955,kallum_motion_pilot_GIST_update_2,2026.1.1,Win32,59.52380952,698e0c45e7907168d29d5b02,69b95efdef24cd8a694e89ee,69b96079858224eeb6c56c77,0.0317,0.0318,0,47,47,136,1,fivesix,,,,,,,,,,,,,,,,,,,,,,,,,,,,,,,,,,,,,,,,,,,,,,,,,,,,,,,,,,,,,,,,,,,,,,,,,,,,,,,,,,,,,,,,,,,,,,,,,,,,,,,,,,,,,,,,,,,,,,,,,,,,,,,,,,,,,,,,,
,,698e0c45e7907168d29d5b02,2026-03-17_09h09.30.955,kallum_motion_pilot_GIST_update_2,2026.1.1,Win32,59.52380952,698e0c45e7907168d29d5b02,69b95efdef24cd8a694e89ee,69b96079858224eeb6c56c77,0.0319,0.0319,0,48,48,62,1,fourtwo,,,,,,,,,,,,,,,,,,,,,,,,,,,,,,,,,,,,,,,,,,,,,,,,,,,,,,,,,,,,,,,,,,,,,,,,,,,,,,,,,,,,,,,,,,,,,,,,,,,,,,,,,,,,,,,,,,,,,,,,,,,,,,,,,,,,,,,,,
,,698e0c45e7907168d29d5b02,2026-03-17_09h09.30.955,kallum_motion_pilot_GIST_update_2,2026.1.1,Win32,59.52380952,698e0c45e7907168d29d5b02,69b95efdef24cd8a694e89ee,69b96079858224eeb6c56c77,0.0321,0.0321,0,49,49,61,1,threefour,,,,,,,,,,,,,,,,,,,,,,,,,,,,,,,,,,,,,,,,,,,,,,,,,,,,,,,,,,,,,,,,,,,,,,,,,,,,,,,,,,,,,,,,,,,,,,,,,,,,,,,,,,,,,,,,,,,,,,,,,,,,,,,,,,,,,,,,,
,,698e0c45e7907168d29d5b02,2026-03-17_09h09.30.955,kallum_motion_pilot_GIST_update_2,2026.1.1,Win32,59.52380952,698e0c45e7907168d29d5b02,69b95efdef24cd8a694e89ee,69b96079858224eeb6c56c77,0.0322,0.0323,0,50,50,71,1,fourthree,,,,,,,,,,,,,,,,,,,,,,,,,,,,,,,,,,,,,,,,,,,,,,,,,,,,,,,,,,,,,,,,,,,,,,,,,,,,,,,,,,,,,,,,,,,,,,,,,,,,,,,,,,,,,,,,,,,,,,,,,,,,,,,,,,,,,,,,,
,,698e0c45e7907168d29d5b02,2026-03-17_09h09.30.955,kallum_motion_pilot_GIST_update_2,2026.1.1,Win32,59.52380952,698e0c45e7907168d29d5b02,69b95efdef24cd8a694e89ee,69b96079858224eeb6c56c77,0.0324,0.0324,0,51,51,8,1,onetwo,,,,,,,,,,,,,,,,,,,,,,,,,,,,,,,,,,,,,,,,,,,,,,,,,,,,,,,,,,,,,,,,,,,,,,,,,,,,,,,,,,,,,,,,,,,,,,,,,,,,,,,,,,,,,,,,,,,,,,,,,,,,,,,,,,,,,,,,,
,,698e0c45e7907168d29d5b02,2026-03-17_09h09.30.955,kallum_motion_pilot_GIST_update_2,2026.1.1,Win32,59.52380952,698e0c45e7907168d29d5b02,69b95efdef24cd8a694e89ee,69b96079858224eeb6c56c77,0.0327,0.0327,0,52,52,56,1,onetwo,,,,,,,,,,,,,,,,,,,,,,,,,,,,,,,,,,,,,,,,,,,,,,,,,,,,,,,,,,,,,,,,,,,,,,,,,,,,,,,,,,,,,,,,,,,,,,,,,,,,,,,,,,,,,,,,,,,,,,,,,,,,,,,,,,,,,,,,,
,,698e0c45e7907168d29d5b02,2026-03-17_09h09.30.955,kallum_motion_pilot_GIST_update_2,2026.1.1,Win32,59.52380952,698e0c45e7907168d29d5b02,69b95efdef24cd8a694e89ee,69b96079858224eeb6c56c77,0.0328,0.0328,0,53,53,49,1,onethree,,,,,,,,,,,,,,,,,,,,,,,,,,,,,,,,,,,,,,,,,,,,,,,,,,,,,,,,,,,,,,,,,,,,,,,,,,,,,,,,,,,,,,,,,,,,,,,,,,,,,,,,,,,,,,,,,,,,,,,,,,,,,,,,,,,,,,,,,
,,698e0c45e7907168d29d5b02,2026-03-17_09h09.30.955,kallum_motion_pilot_GIST_update_2,2026.1.1,Win32,59.52380952,698e0c45e7907168d29d5b02,69b95efdef24cd8a694e89ee,69b96079858224eeb6c56c77,0.0329,0.0329,0,54,54,159,1,eightseven,,,,,,,,,,,,,,,,,,,,,,,,,,,,,,,,,,,,,,,,,,,,,,,,,,,,,,,,,,,,,,,,,,,,,,,,,,,,,,,,,,,,,,,,,,,,,,,,,,,,,,,,,,,,,,,,,,,,,,,,,,,,,,,,,,,,,,,,,
,,698e0c45e7907168d29d5b02,2026-03-17_09h09.30.955,kallum_motion_pilot_GIST_update_2,2026.1.1,Win32,59.52380952,698e0c45e7907168d29d5b02,69b95efdef24cd8a694e89ee,69b96079858224eeb6c56c77,0.0331,0.0331,0,55,55,150,1,eightsix,,,,,,,,,,,,,,,,,,,,,,,,,,,,,,,,,,,,,,,,,,,,,,,,,,,,,,,,,,,,,,,,,,,,,,,,,,,,,,,,,,,,,,,,,,,,,,,,,,,,,,,,,,,,,,,,,,,,,,,,,,,,,,,,,,,,,,,,,
,,698e0c45e7907168d29d5b02,2026-03-17_09h09.30.955,kallum_motion_pilot_GIST_update_2,2026.1.1,Win32,59.52380952,698e0c45e7907168d29d5b02,69b95efdef24cd8a694e89ee,69b96079858224eeb6c56c77,0.0332,0.0332,0,56,56,18,1,twoone,,,,,,,,,,,,,,,,,,,,,,,,,,,,,,,,,,,,,,,,,,,,,,,,,,,,,,,,,,,,,,,,,,,,,,,,,,,,,,,,,,,,,,,,,,,,,,,,,,,,,,,,,,,,,,,,,,,,,,,,,,,,,,,,,,,,,,,,,
,,698e0c45e7907168d29d5b02,2026-03-17_09h09.30.955,kallum_motion_pilot_GIST_update_2,2026.1.1,Win32,59.52380952,698e0c45e7907168d29d5b02,69b95efdef24cd8a694e89ee,69b96079858224eeb6c56c77,0.0334,0.0334,0,57,57,86,1,eightsix,,,,,,,,,,,,,,,,,,,,,,,,,,,,,,,,,,,,,,,,,,,,,,,,,,,,,,,,,,,,,,,,,,,,,,,,,,,,,,,,,,,,,,,,,,,,,,,,,,,,,,,,,,,,,,,,,,,,,,,,,,,,,,,,,,,,,,,,,
,,698e0c45e7907168d29d5b02,2026-03-17_09h09.30.955,kallum_motion_pilot_GIST_update_2,2026.1.1,Win32,59.52380952,698e0c45e7907168d29d5b02,69b95efdef24cd8a694e89ee,69b96079858224eeb6c56c77,0.0335,0.0335,0,58,58,7,1,fourthree,,,,,,,,,,,,,,,,,,,,,,,,,,,,,,,,,,,,,,,,,,,,,,,,,,,,,,,,,,,,,,,,,,,,,,,,,,,,,,,,,,,,,,,,,,,,,,,,,,,,,,,,,,,,,,,,,,,,,,,,,,,,,,,,,,,,,,,,,
,,698e0c45e7907168d29d5b02,2026-03-17_09h09.30.955,kallum_motion_pilot_GIST_update_2,2026.1.1,Win32,59.52380952,698e0c45e7907168d29d5b02,69b95efdef24cd8a694e89ee,69b96079858224eeb6c56c77,0.0336,0.0336,0,59,59,132,1,sevenfive,,,,,,,,,,,,,,,,,,,,,,,,,,,,,,,,,,,,,,,,,,,,,,,,,,,,,,,,,,,,,,,,,,,,,,,,,,,,,,,,,,,,,,,,,,,,,,,,,,,,,,,,,,,,,,,,,,,,,,,,,,,,,,,,,,,,,,,,,
,,698e0c45e7907168d29d5b02,2026-03-17_09h09.30.955,kallum_motion_pilot_GIST_update_2,2026.1.1,Win32,59.52380952,698e0c45e7907168d29d5b02,69b95efdef24cd8a694e89ee,69b96079858224eeb6c56c77,0.0336,0.0337,0,60,60,106,1,sixfive,,,,,,,,,,,,,,,,,,,,,,,,,,,,,,,,,,,,,,,,,,,,,,,,,,,,,,,,,,,,,,,,,,,,,,,,,,,,,,,,,,,,,,,,,,,,,,,,,,,,,,,,,,,,,,,,,,,,,,,,,,,,,,,,,,,,,,,,,
,,698e0c45e7907168d29d5b02,2026-03-17_09h09.30.955,kallum_motion_pilot_GIST_update_2,2026.1.1,Win32,59.52380952,698e0c45e7907168d29d5b02,69b95efdef24cd8a694e89ee,69b96079858224eeb6c56c77,0.0337,0.0337,0,61,61,89,1,fiveseven,,,,,,,,,,,,,,,,,,,,,,,,,,,,,,,,,,,,,,,,,,,,,,,,,,,,,,,,,,,,,,,,,,,,,,,,,,,,,,,,,,,,,,,,,,,,,,,,,,,,,,,,,,,,,,,,,,,,,,,,,,,,,,,,,,,,,,,,,
,,698e0c45e7907168d29d5b02,2026-03-17_09h09.30.955,kallum_motion_pilot_GIST_update_2,2026.1.1,Win32,59.52380952,698e0c45e7907168d29d5b02,69b95efdef24cd8a694e89ee,69b96079858224eeb6c56c77,0.0338,0.0338,0,62,62,139,1,sixeight,,,,,,,,,,,,,,,,,,,,,,,,,,,,,,,,,,,,,,,,,,,,,,,,,,,,,,,,,,,,,,,,,,,,,,,,,,,,,,,,,,,,,,,,,,,,,,,,,,,,,,,,,,,,,,,,,,,,,,,,,,,,,,,,,,,,,,,,,
,,698e0c45e7907168d29d5b02,2026-03-17_09h09.30.955,kallum_motion_pilot_GIST_update_2,2026.1.1,Win32,59.52380952,698e0c45e7907168d29d5b02,69b95efdef24cd8a694e89ee,69b96079858224eeb6c56c77,0.034,0.034,0,63,63,14,1,fourtwo,,,,,,,,,,,,,,,,,,,,,,,,,,,,,,,,,,,,,,,,,,,,,,,,,,,,,,,,,,,,,,,,,,,,,,,,,,,,,,,,,,,,,,,,,,,,,,,,,,,,,,,,,,,,,,,,,,,,,,,,,,,,,,,,,,,,,,,,,
,,698e0c45e7907168d29d5b02,2026-03-17_09h09.30.955,kallum_motion_pilot_GIST_update_2,2026.1.1,Win32,59.52380952,698e0c45e7907168d29d5b02,69b95efdef24cd8a694e89ee,69b96079858224eeb6c56c77,0.0341,0.0341,0,64,64,138,1,sixfive,,,,,,,,,,,,,,,,,,,,,,,,,,,,,,,,,,,,,,,,,,,,,,,,,,,,,,,,,,,,,,,,,,,,,,,,,,,,,,,,,,,,,,,,,,,,,,,,,,,,,,,,,,,,,,,,,,,,,,,,,,,,,,,,,,,,,,,,,
,,698e0c45e7907168d29d5b02,2026-03-17_09h09.30.955,kallum_motion_pilot_GIST_update_2,2026.1.1,Win32,59.52380952,698e0c45e7907168d29d5b02,69b95efdef24cd8a694e89ee,69b96079858224eeb6c56c77,0.0342,0.0342,0,65,65,1,1,onethree,,,,,,,,,,,,,,,,,,,,,,,,,,,,,,,,,,,,,,,,,,,,,,,,,,,,,,,,,,,,,,,,,,,,,,,,,,,,,,,,,,,,,,,,,,,,,,,,,,,,,,,,,,,,,,,,,,,,,,,,,,,,,,,,,,,,,,,,,
,,698e0c45e7907168d29d5b02,2026-03-17_09h09.30.955,kallum_motion_pilot_GIST_update_2,2026.1.1,Win32,59.52380952,698e0c45e7907168d29d5b02,69b95efdef24cd8a694e89ee,69b96079858224eeb6c56c77,0.0343,0.0343,0,66,66,29,1,threefour,,,,,,,,,,,,,,,,,,,,,,,,,,,,,,,,,,,,,,,,,,,,,,,,,,,,,,,,,,,,,,,,,,,,,,,,,,,,,,,,,,,,,,,,,,,,,,,,,,,,,,,,,,,,,,,,,,,,,,,,,,,,,,,,,,,,,,,,,
,,698e0c45e7907168d29d5b02,2026-03-17_09h09.30.955,kallum_motion_pilot_GIST_update_2,2026.1.1,Win32,59.52380952,698e0c45e7907168d29d5b02,69b95efdef24cd8a694e89ee,69b96079858224eeb6c56c77,0.0344,0.0344,0,67,67,102,1,eightsix,,,,,,,,,,,,,,,,,,,,,,,,,,,,,,,,,,,,,,,,,,,,,,,,,,,,,,,,,,,,,,,,,,,,,,,,,,,,,,,,,,,,,,,,,,,,,,,,,,,,,,,,,,,,,,,,,,,,,,,,,,,,,,,,,,,,,,,,,
,,698e0c45e7907168d29d5b02,2026-03-17_09h09.30.955,kallum_motion_pilot_GIST_update_2,2026.1.1,Win32,59.52380952,698e0c45e7907168d29d5b02,69b95efdef24cd8a694e89ee,69b96079858224eeb6c56c77,0.0346,0.0346,0,68,68,155,1,sixeight,,,,,,,,,,,,,,,,,,,,,,,,,,,,,,,,,,,,,,,,,,,,,,,,,,,,,,,,,,,,,,,,,,,,,,,,,,,,,,,,,,,,,,,,,,,,,,,,,,,,,,,,,,,,,,,,,,,,,,,,,,,,,,,,,,,,,,,,,
,,698e0c45e7907168d29d5b02,2026-03-17_09h09.30.955,kallum_motion_pilot_GIST_update_2,2026.1.1,Win32,59.52380952,698e0c45e7907168d29d5b02,69b95efdef24cd8a694e89ee,69b96079858224eeb6c56c77,0.0348,0.0348,0,69,69,118,1,eightsix,,,,,,,,,,,,,,,,,,,,,,,,,,,,,,,,,,,,,,,,,,,,,,,,,,,,,,,,,,,,,,,,,,,,,,,,,,,,,,,,,,,,,,,,,,,,,,,,,,,,,,,,,,,,,,,,,,,,,,,,,,,,,,,,,,,,,,,,,
,,698e0c45e7907168d29d5b02,2026-03-17_09h09.30.955,kallum_motion_pilot_GIST_update_2,2026.1.1,Win32,59.52380952,698e0c45e7907168d29d5b02,69b95efdef24cd8a694e89ee,69b96079858224eeb6c56c77,0.0348,0.0349,0,70,70,30,1,fourtwo,,,,,,,,,,,,,,,,,,,,,,,,,,,,,,,,,,,,,,,,,,,,,,,,,,,,,,,,,,,,,,,,,,,,,,,,,,,,,,,,,,,,,,,,,,,,,,,,,,,,,,,,,,,,,,,,,,,,,,,,,,,,,,,,,,,,,,,,,
,,698e0c45e7907168d29d5b02,2026-03-17_09h09.30.955,kallum_motion_pilot_GIST_update_2,2026.1.1,Win32,59.52380952,698e0c45e7907168d29d5b02,69b95efdef24cd8a694e89ee,69b96079858224eeb6c56c77,0.035,0.035,0,71,71,96,1,fivesix,,,,,,,,,,,,,,,,,,,,,,,,,,,,,,,,,,,,,,,,,,,,,,,,,,,,,,,,,,,,,,,,,,,,,,,,,,,,,,,,,,,,,,,,,,,,,,,,,,,,,,,,,,,,,,,,,,,,,,,,,,,,,,,,,,,,,,,,,
,,698e0c45e7907168d29d5b02,2026-03-17_09h09.30.955,kallum_motion_pilot_GIST_update_2,2026.1.1,Win32,59.52380952,698e0c45e7907168d29d5b02,69b95efdef24cd8a694e89ee,69b96079858224eeb6c56c77,0.0352,0.0352,0,72,72,124,1,sevenfive,,,,,,,,,,,,,,,,,,,,,,,,,,,,,,,,,,,,,,,,,,,,,,,,,,,,,,,,,,,,,,,,,,,,,,,,,,,,,,,,,,,,,,,,,,,,,,,,,,,,,,,,,,,,,,,,,,,,,,,,,,,,,,,,,,,,,,,,,
,,698e0c45e7907168d29d5b02,2026-03-17_09h09.30.955,kallum_motion_pilot_GIST_update_2,2026.1.1,Win32,59.52380952,698e0c45e7907168d29d5b02,69b95efdef24cd8a694e89ee,69b96079858224eeb6c56c77,0.0354,0.0354,0,73,73,48,1,onetwo,,,,,,,,,,,,,,,,,,,,,,,,,,,,,,,,,,,,,,,,,,,,,,,,,,,,,,,,,,,,,,,,,,,,,,,,,,,,,,,,,,,,,,,,,,,,,,,,,,,,,,,,,,,,,,,,,,,,,,,,,,,,,,,,,,,,,,,,,
,,698e0c45e7907168d29d5b02,2026-03-17_09h09.30.955,kallum_motion_pilot_GIST_update_2,2026.1.1,Win32,59.52380952,698e0c45e7907168d29d5b02,69b95efdef24cd8a694e89ee,69b96079858224eeb6c56c77,0.0355,0.0355,0,74,74,129,1,fiveseven,,,,,,,,,,,,,,,,,,,,,,,,,,,,,,,,,,,,,,,,,,,,,,,,,,,,,,,,,,,,,,,,,,,,,,,,,,,,,,,,,,,,,,,,,,,,,,,,,,,,,,,,,,,,,,,,,,,,,,,,,,,,,,,,,,,,,,,,,
,,698e0c45e7907168d29d5b02,2026-03-17_09h09.30.955,kallum_motion_pilot_GIST_update_2,2026.1.1,Win32,59.52380952,698e0c45e7907168d29d5b02,69b95efdef24cd8a694e89ee,69b96079858224eeb6c56c77,0.0356,0.0356,0,75,75,142,1,eightsix,,,,,,,,,,,,,,,,,,,,,,,,,,,,,,,,,,,,,,,,,,,,,,,,,,,,,,,,,,,,,,,,,,,,,,,,,,,,,,,,,,,,,,,,,,,,,,,,,,,,,,,,,,,,,,,,,,,,,,,,,,,,,,,,,,,,,,,,,
,,698e0c45e7907168d29d5b02,2026-03-17_09h09.30.955,kallum_motion_pilot_GIST_update_2,2026.1.1,Win32,59.52380952,698e0c45e7907168d29d5b02,69b95efdef24cd8a694e89ee,69b96079858224eeb6c56c77,0.0357,0.0357,0,76,76,76,1,threeone,,,,,,,,,,,,,,,,,,,,,,,,,,,,,,,,,,,,,,,,,,,,,,,,,,,,,,,,,,,,,,,,,,,,,,,,,,,,,,,,,,,,,,,,,,,,,,,,,,,,,,,,,,,,,,,,,,,,,,,,,,,,,,,,,,,,,,,,,
,,698e0c45e7907168d29d5b02,2026-03-17_09h09.30.955,kallum_motion_pilot_GIST_update_2,2026.1.1,Win32,59.52380952,698e0c45e7907168d29d5b02,69b95efdef24cd8a694e89ee,69b96079858224eeb6c56c77,0.0359,0.0359,0,77,77,115,1,sixeight,,,,,,,,,,,,,,,,,,,,,,,,,,,,,,,,,,,,,,,,,,,,,,,,,,,,,,,,,,,,,,,,,,,,,,,,,,,,,,,,,,,,,,,,,,,,,,,,,,,,,,,,,,,,,,,,,,,,,,,,,,,,,,,,,,,,,,,,,
,,698e0c45e7907168d29d5b02,2026-03-17_09h09.30.955,kallum_motion_pilot_GIST_update_2,2026.1.1,Win32,59.52380952,698e0c45e7907168d29d5b02,69b95efdef24cd8a694e89ee,69b96079858224eeb6c56c77,0.0361,0.0361,0,78,78,52,1,threeone,,,,,,,,,,,,,,,,,,,,,,,,,,,,,,,,,,,,,,,,,,,,,,,,,,,,,,,,,,,,,,,,,,,,,,,,,,,,,,,,,,,,,,,,,,,,,,,,,,,,,,,,,,,,,,,,,,,,,,,,,,,,,,,,,,,,,,,,,
,,698e0c45e7907168d29d5b02,2026-03-17_09h09.30.955,kallum_motion_pilot_GIST_update_2,2026.1.1,Win32,59.52380952,698e0c45e7907168d29d5b02,69b95efdef24cd8a694e89ee,69b96079858224eeb6c56c77,0.0362,0.0362,0,79,79,154,1,sixfive,,,,,,,,,,,,,,,,,,,,,,,,,,,,,,,,,,,,,,,,,,,,,,,,,,,,,,,,,,,,,,,,,,,,,,,,,,,,,,,,,,,,,,,,,,,,,,,,,,,,,,,,,,,,,,,,,,,,,,,,,,,,,,,,,,,,,,,,,
,,698e0c45e7907168d29d5b02,2026-03-17_09h09.30.955,kallum_motion_pilot_GIST_update_2,2026.1.1,Win32,59.52380952,698e0c45e7907168d29d5b02,69b95efdef24cd8a694e89ee,69b96079858224eeb6c56c77,0.0364,0.0364,0,80,80,38,1,fourtwo,,,,,,,,,,,,,,,,,,,,,,,,,,,,,,,,,,,,,,,,,,,,,,,,,,,,,,,,,,,,,,,,,,,,,,,,,,,,,,,,,,,,,,,,,,,,,,,,,,,,,,,,,,,,,,,,,,,,,,,,,,,,,,,,,,,,,,,,,
,,698e0c45e7907168d29d5b02,2026-03-17_09h09.30.955,kallum_motion_pilot_GIST_update_2,2026.1.1,Win32,59.52380952,698e0c45e7907168d29d5b02,69b95efdef24cd8a694e89ee,69b96079858224eeb6c56c77,0.0365,0.0365,0,81,81,109,1,seveneight,,,,,,,,,,,,,,,,,,,,,,,,,,,,,,,,,,,,,,,,,,,,,,,,,,,,,,,,,,,,,,,,,,,,,,,,,,,,,,,,,,,,,,,,,,,,,,,,,,,,,,,,,,,,,,,,,,,,,,,,,,,,,,,,,,,,,,,,,
,,698e0c45e7907168d29d5b02,2026-03-17_09h09.30.955,kallum_motion_pilot_GIST_update_2,2026.1.1,Win32,59.52380952,698e0c45e7907168d29d5b02,69b95efdef24cd8a694e89ee,69b96079858224eeb6c56c77,0.0366,0.0366,0,82,82,116,1,sevenfive,,,,,,,,,,,,,,,,,,,,,,,,,,,,,,,,,,,,,,,,,,,,,,,,,,,,,,,,,,,,,,,,,,,,,,,,,,,,,,,,,,,,,,,,,,,,,,,,,,,,,,,,,,,,,,,,,,,,,,,,,,,,,,,,,,,,,,,,,
,,698e0c45e7907168d29d5b02,2026-03-17_09h09.30.955,kallum_motion_pilot_GIST_update_2,2026.1.1,Win32,59.52380952,698e0c45e7907168d29d5b02,69b95efdef24cd8a694e89ee,69b96079858224eeb6c56c77,0.0368,0.0368,0,83,83,75,1,twofour,,,,,,,,,,,,,,,,,,,,,,,,,,,,,,,,,,,,,,,,,,,,,,,,,,,,,,,,,,,,,,,,,,,,,,,,,,,,,,,,,,,,,,,,,,,,,,,,,,,,,,,,,,,,,,,,,,,,,,,,,,,,,,,,,,,,,,,,,
,,698e0c45e7907168d29d5b02,2026-03-17_09h09.30.955,kallum_motion_pilot_GIST_update_2,2026.1.1,Win32,59.52380952,698e0c45e7907168d29d5b02,69b95efdef24cd8a694e89ee,69b96079858224eeb6c56c77,0.0368,0.0368,0,84,84,149,1,seveneight,,,,,,,,,,,,,,,,,,,,,,,,,,,,,,,,,,,,,,,,,,,,,,,,,,,,,,,,,,,,,,,,,,,,,,,,,,,,,,,,,,,,,,,,,,,,,,,,,,,,,,,,,,,,,,,,,,,,,,,,,,,,,,,,,,,,,,,,,
,,698e0c45e7907168d29d5b02,2026-03-17_09h09.30.955,kallum_motion_pilot_GIST_update_2,2026.1.1,Win32,59.52380952,698e0c45e7907168d29d5b02,69b95efdef24cd8a694e89ee,69b96079858224eeb6c56c77,0.0369,0.0369,0,85,85,43,1,twofour,,,,,,,,,,,,,,,,,,,,,,,,,,,,,,,,,,,,,,,,,,,,,,,,,,,,,,,,,,,,,,,,,,,,,,,,,,,,,,,,,,,,,,,,,,,,,,,,,,,,,,,,,,,,,,,,,,,,,,,,,,,,,,,,,,,,,,,,,
,,698e0c45e7907168d29d5b02,2026-03-17_09h09.30.955,kallum_motion_pilot_GIST_update_2,2026.1.1,Win32,59.52380952,698e0c45e7907168d29d5b02,69b95efdef24cd8a694e89ee,69b96079858224eeb6c56c77,0.0371,0.0371,0,86,86,81,1,fiveseven,,,,,,,,,,,,,,,,,,,,,,,,,,,,,,,,,,,,,,,,,,,,,,,,,,,,,,,,,,,,,,,,,,,,,,,,,,,,,,,,,,,,,,,,,,,,,,,,,,,,,,,,,,,,,,,,,,,,,,,,,,,,,,,,,,,,,,,,,
,,698e0c45e7907168d29d5b02,2026-03-17_09h09.30.955,kallum_motion_pilot_GIST_update_2,2026.1.1,Win32,59.52380952,698e0c45e7907168d29d5b02,69b95efdef24cd8a694e89ee,69b96079858224eeb6c56c77,0.0371,0.0371,0,87,87,152,1,fivesix,,,,,,,,,,,,,,,,,,,,,,,,,,,,,,,,,,,,,,,,,,,,,,,,,,,,,,,,,,,,,,,,,,,,,,,,,,,,,,,,,,,,,,,,,,,,,,,,,,,,,,,,,,,,,,,,,,,,,,,,,,,,,,,,,,,,,,,,,
,,698e0c45e7907168d29d5b02,2026-03-17_09h09.30.955,kallum_motion_pilot_GIST_update_2,2026.1.1,Win32,59.52380952,698e0c45e7907168d29d5b02,69b95efdef24cd8a694e89ee,69b96079858224eeb6c56c77,0.0373,0.0373,0,88,88,147,1,sixeight,,,,,,,,,,,,,,,,,,,,,,,,,,,,,,,,,,,,,,,,,,,,,,,,,,,,,,,,,,,,,,,,,,,,,,,,,,,,,,,,,,,,,,,,,,,,,,,,,,,,,,,,,,,,,,,,,,,,,,,,,,,,,,,,,,,,,,,,,
,,698e0c45e7907168d29d5b02,2026-03-17_09h09.30.955,kallum_motion_pilot_GIST_update_2,2026.1.1,Win32,59.52380952,698e0c45e7907168d29d5b02,69b95efdef24cd8a694e89ee,69b96079858224eeb6c56c77,0.0374,0.0374,0,89,89,11,1,twofour,,,,,,,,,,,,,,,,,,,,,,,,,,,,,,,,,,,,,,,,,,,,,,,,,,,,,,,,,,,,,,,,,,,,,,,,,,,,,,,,,,,,,,,,,,,,,,,,,,,,,,,,,,,,,,,,,,,,,,,,,,,,,,,,,,,,,,,,,
,,698e0c45e7907168d29d5b02,2026-03-17_09h09.30.955,kallum_motion_pilot_GIST_update_2,2026.1.1,Win32,59.52380952,698e0c45e7907168d29d5b02,69b95efdef24cd8a694e89ee,69b96079858224eeb6c56c77,0.0375,0.0375,0,90,90,90,1,sixfive,,,,,,,,,,,,,,,,,,,,,,,,,,,,,,,,,,,,,,,,,,,,,,,,,,,,,,,,,,,,,,,,,,,,,,,,,,,,,,,,,,,,,,,,,,,,,,,,,,,,,,,,,,,,,,,,,,,,,,,,,,,,,,,,,,,,,,,,,
,,698e0c45e7907168d29d5b02,2026-03-17_09h09.30.955,kallum_motion_pilot_GIST_update_2,2026.1.1,Win32,59.52380952,698e0c45e7907168d29d5b02,69b95efdef24cd8a694e89ee,69b96079858224eeb6c56c77,0.0376,0.0376,0,91,91,140,1,sevenfive,,,,,,,,,,,,,,,,,,,,,,,,,,,,,,,,,,,,,,,,,,,,,,,,,,,,,,,,,,,,,,,,,,,,,,,,,,,,,,,,,,,,,,,,,,,,,,,,,,,,,,,,,,,,,,,,,,,,,,,,,,,,,,,,,,,,,,,,,
,,698e0c45e7907168d29d5b02,2026-03-17_09h09.30.955,kallum_motion_pilot_GIST_update_2,2026.1.1,Win32,59.52380952,698e0c45e7907168d29d5b02,69b95efdef24cd8a694e89ee,69b96079858224eeb6c56c77,0.0377,0.0377,0,92,92,16,1,onetwo,,,,,,,,,,,,,,,,,,,,,,,,,,,,,,,,,,,,,,,,,,,,,,,,,,,,,,,,,,,,,,,,,,,,,,,,,,,,,,,,,,,,,,,,,,,,,,,,,,,,,,,,,,,,,,,,,,,,,,,,,,,,,,,,,,,,,,,,,
,,698e0c45e7907168d29d5b02,2026-03-17_09h09.30.955,kallum_motion_pilot_GIST_update_2,2026.1.1,Win32,59.52380952,698e0c45e7907168d29d5b02,69b95efdef24cd8a694e89ee,69b96079858224eeb6c56c77,0.0378,0.0378,0,93,93,66,1,twoone,,,,,,,,,,,,,,,,,,,,,,,,,,,,,,,,,,,,,,,,,,,,,,,,,,,,,,,,,,,,,,,,,,,,,,,,,,,,,,,,,,,,,,,,,,,,,,,,,,,,,,,,,,,,,,,,,,,,,,,,,,,,,,,,,,,,,,,,,
,,698e0c45e7907168d29d5b02,2026-03-17_09h09.30.955,kallum_motion_pilot_GIST_update_2,2026.1.1,Win32,59.52380952,698e0c45e7907168d29d5b02,69b95efdef24cd8a694e89ee,69b96079858224eeb6c56c77,0.038,0.038,0,94,94,144,1,fivesix,,,,,,,,,,,,,,,,,,,,,,,,,,,,,,,,,,,,,,,,,,,,,,,,,,,,,,,,,,,,,,,,,,,,,,,,,,,,,,,,,,,,,,,,,,,,,,,,,,,,,,,,,,,,,,,,,,,,,,,,,,,,,,,,,,,,,,,,,
,,698e0c45e7907168d29d5b02,2026-03-17_09h09.30.955,kallum_motion_pilot_GIST_update_2,2026.1.1,Win32,59.52380952,698e0c45e7907168d29d5b02,69b95efdef24cd8a694e89ee,69b96079858224eeb6c56c77,0.0381,0.0381,0,95,95,82,1,sixfive,,,,,,,,,,,,,,,,,,,,,,,,,,,,,,,,,,,,,,,,,,,,,,,,,,,,,,,,,,,,,,,,,,,,,,,,,,,,,,,,,,,,,,,,,,,,,,,,,,,,,,,,,,,,,,,,,,,,,,,,,,,,,,,,,,,,,,,,,
,,698e0c45e7907168d29d5b02,2026-03-17_09h09.30.955,kallum_motion_pilot_GIST_update_2,2026.1.1,Win32,59.52380952,698e0c45e7907168d29d5b02,69b95efdef24cd8a694e89ee,69b96079858224eeb6c56c77,0.0383,0.0383,0,96,96,5,1,threefour,,,,,,,,,,,,,,,,,,,,,,,,,,,,,,,,,,,,,,,,,,,,,,,,,,,,,,,,,,,,,,,,,,,,,,,,,,,,,,,,,,,,,,,,,,,,,,,,,,,,,,,,,,,,,,,,,,,,,,,,,,,,,,,,,,,,,,,,,
,,698e0c45e7907168d29d5b02,2026-03-17_09h09.30.955,kallum_motion_pilot_GIST_update_2,2026.1.1,Win32,59.52380952,698e0c45e7907168d29d5b02,69b95efdef24cd8a694e89ee,69b96079858224eeb6c56c77,0.0384,0.0384,0,97,97,67,1,twofour,,,,,,,,,,,,,,,,,,,,,,,,,,,,,,,,,,,,,,,,,,,,,,,,,,,,,,,,,,,,,,,,,,,,,,,,,,,,,,,,,,,,,,,,,,,,,,,,,,,,,,,,,,,,,,,,,,,,,,,,,,,,,,,,,,,,,,,,,
,,698e0c45e7907168d29d5b02,2026-03-17_09h09.30.955,kallum_motion_pilot_GIST_update_2,2026.1.1,Win32,59.52380952,698e0c45e7907168d29d5b02,69b95efdef24cd8a694e89ee,69b96079858224eeb6c56c77,0.0386,0.0386,0,98,98,105,1,fiveseven,,,,,,,,,,,,,,,,,,,,,,,,,,,,,,,,,,,,,,,,,,,,,,,,,,,,,,,,,,,,,,,,,,,,,,,,,,,,,,,,,,,,,,,,,,,,,,,,,,,,,,,,,,,,,,,,,,,,,,,,,,,,,,,,,,,,,,,,,
,,698e0c45e7907168d29d5b02,2026-03-17_09h09.30.955,kallum_motion_pilot_GIST_update_2,2026.1.1,Win32,59.52380952,698e0c45e7907168d29d5b02,69b95efdef24cd8a694e89ee,69b96079858224eeb6c56c77,0.0386,0.0386,0,99,99,51,1,twofour,,,,,,,,,,,,,,,,,,,,,,,,,,,,,,,,,,,,,,,,,,,,,,,,,,,,,,,,,,,,,,,,,,,,,,,,,,,,,,,,,,,,,,,,,,,,,,,,,,,,,,,,,,,,,,,,,,,,,,,,,,,,,,,,,,,,,,,,,
,,698e0c45e7907168d29d5b02,2026-03-17_09h09.30.955,kallum_motion_pilot_GIST_update_2,2026.1.1,Win32,59.52380952,698e0c45e7907168d29d5b02,69b95efdef24cd8a694e89ee,69b96079858224eeb6c56c77,0.0388,0.0388,0,100,100,85,1,seveneight,,,,,,,,,,,,,,,,,,,,,,,,,,,,,,,,,,,,,,,,,,,,,,,,,,,,,,,,,,,,,,,,,,,,,,,,,,,,,,,,,,,,,,,,,,,,,,,,,,,,,,,,,,,,,,,,,,,,,,,,,,,,,,,,,,,,,,,,,
,,698e0c45e7907168d29d5b02,2026-03-17_09h09.30.955,kallum_motion_pilot_GIST_update_2,2026.1.1,Win32,59.52380952,698e0c45e7907168d29d5b02,69b95efdef24cd8a694e89ee,69b96079858224eeb6c56c77,0.0389,0.0389,0,101,101,146,1,sixfive,,,,,,,,,,,,,,,,,,,,,,,,,,,,,,,,,,,,,,,,,,,,,,,,,,,,,,,,,,,,,,,,,,,,,,,,,,,,,,,,,,,,,,,,,,,,,,,,,,,,,,,,,,,,,,,,,,,,,,,,,,,,,,,,,,,,,,,,,
,,698e0c45e7907168d29d5b02,2026-03-17_09h09.30.955,kallum_motion_pilot_GIST_update_2,2026.1.1,Win32,59.52380952,698e0c45e7907168d29d5b02,69b95efdef24cd8a694e89ee,69b96079858224eeb6c56c77,0.039,0.039,0,102,102,121,1,fiveseven,,,,,,,,,,,,,,,,,,,,,,,,,,,,,,,,,,,,,,,,,,,,,,,,,,,,,,,,,,,,,,,,,,,,,,,,,,,,,,,,,,,,,,,,,,,,,,,,,,,,,,,,,,,,,,,,,,,,,,,,,,,,,,,,,,,,,,,,,
,,698e0c45e7907168d29d5b02,2026-03-17_09h09.30.955,kallum_motion_pilot_GIST_update_2,2026.1.1,Win32,59.52380952,698e0c45e7907168d29d5b02,69b95efdef24cd8a694e89ee,69b96079858224eeb6c56c77,0.039,0.0391,0,103,103,55,1,fourthree,,,,,,,,,,,,,,,,,,,,,,,,,,,,,,,,,,,,,,,,,,,,,,,,,,,,,,,,,,,,,,,,,,,,,,,,,,,,,,,,,,,,,,,,,,,,,,,,,,,,,,,,,,,,,,,,,,,,,,,,,,,,,,,,,,,,,,,,,
,,698e0c45e7907168d29d5b02,2026-03-17_09h09.30.955,kallum_motion_pilot_GIST_update_2,2026.1.1,Win32,59.52380952,698e0c45e7907168d29d5b02,69b95efdef24cd8a694e89ee,69b96079858224eeb6c56c77,0.0392,0.0392,0,104,104,91,1,sixeight,,,,,,,,,,,,,,,,,,,,,,,,,,,,,,,,,,,,,,,,,,,,,,,,,,,,,,,,,,,,,,,,,,,,,,,,,,,,,,,,,,,,,,,,,,,,,,,,,,,,,,,,,,,,,,,,,,,,,,,,,,,,,,,,,,,,,,,,,
,,698e0c45e7907168d29d5b02,2026-03-17_09h09.30.955,kallum_motion_pilot_GIST_update_2,2026.1.1,Win32,59.52380952,698e0c45e7907168d29d5b02,69b95efdef24cd8a694e89ee,69b96079858224eeb6c56c77,0.0393,0.0394,0,105,105,2,1,twoone,,,,,,,,,,,,,,,,,,,,,,,,,,,,,,,,,,,,,,,,,,,,,,,,,,,,,,,,,,,,,,,,,,,,,,,,,,,,,,,,,,,,,,,,,,,,,,,,,,,,,,,,,,,,,,,,,,,,,,,,,,,,,,,,,,,,,,,,,
,,698e0c45e7907168d29d5b02,2026-03-17_09h09.30.955,kallum_motion_pilot_GIST_update_2,2026.1.1,Win32,59.52380952,698e0c45e7907168d29d5b02,69b95efdef24cd8a694e89ee,69b96079858224eeb6c56c77,0.0394,0.0394,0,106,106,122,1,sixfive,,,,,,,,,,,,,,,,,,,,,,,,,,,,,,,,,,,,,,,,,,,,,,,,,,,,,,,,,,,,,,,,,,,,,,,,,,,,,,,,,,,,,,,,,,,,,,,,,,,,,,,,,,,,,,,,,,,,,,,,,,,,,,,,,,,,,,,,,
,,698e0c45e7907168d29d5b02,2026-03-17_09h09.30.955,kallum_motion_pilot_GIST_update_2,2026.1.1,Win32,59.52380952,698e0c45e7907168d29d5b02,69b95efdef24cd8a694e89ee,69b96079858224eeb6c56c77,0.0396,0.0396,0,107,107,60,1,threeone,,,,,,,,,,,,,,,,,,,,,,,,,,,,,,,,,,,,,,,,,,,,,,,,,,,,,,,,,,,,,,,,,,,,,,,,,,,,,,,,,,,,,,,,,,,,,,,,,,,,,,,,,,,,,,,,,,,,,,,,,,,,,,,,,,,,,,,,,
,,698e0c45e7907168d29d5b02,2026-03-17_09h09.30.955,kallum_motion_pilot_GIST_update_2,2026.1.1,Win32,59.52380952,698e0c45e7907168d29d5b02,69b95efdef24cd8a694e89ee,69b96079858224eeb6c56c77,0.0396,0.0396,0,108,108,50,1,twoone,,,,,,,,,,,,,,,,,,,,,,,,,,,,,,,,,,,,,,,,,,,,,,,,,,,,,,,,,,,,,,,,,,,,,,,,,,,,,,,,,,,,,,,,,,,,,,,,,,,,,,,,,,,,,,,,,,,,,,,,,,,,,,,,,,,,,,,,,
,,698e0c45e7907168d29d5b02,2026-03-17_09h09.30.955,kallum_motion_pilot_GIST_update_2,2026.1.1,Win32,59.52380952,698e0c45e7907168d29d5b02,69b95efdef24cd8a694e89ee,69b96079858224eeb6c56c77,0.0398,0.0398,0,109,109,110,1,eightsix,,,,,,,,,,,,,,,,,,,,,,,,,,,,,,,,,,,,,,,,,,,,,,,,,,,,,,,,,,,,,,,,,,,,,,,,,,,,,,,,,,,,,,,,,,,,,,,,,,,,,,,,,,,,,,,,,,,,,,,,,,,,,,,,,,,,,,,,,
,,698e0c45e7907168d29d5b02,2026-03-17_09h09.30.955,kallum_motion_pilot_GIST_update_2,2026.1.1,Win32,59.52380952,698e0c45e7907168d29d5b02,69b95efdef24cd8a694e89ee,69b96079858224eeb6c56c77,0.0398,0.0398,0,110,110,95,1,eightseven,,,,,,,,,,,,,,,,,,,,,,,,,,,,,,,,,,,,,,,,,,,,,,,,,,,,,,,,,,,,,,,,,,,,,,,,,,,,,,,,,,,,,,,,,,,,,,,,,,,,,,,,,,,,,,,,,,,,,,,,,,,,,,,,,,,,,,,,,
,,698e0c45e7907168d29d5b02,2026-03-17_09h09.30.955,kallum_motion_pilot_GIST_update_2,2026.1.1,Win32,59.52380952,698e0c45e7907168d29d5b02,69b95efdef24cd8a694e89ee,69b96079858224eeb6c56c77,0.04,0.04,0,111,111,108,1,sevenfive,,,,,,,,,,,,,,,,,,,,,,,,,,,,,,,,,,,,,,,,,,,,,,,,,,,,,,,,,,,,,,,,,,,,,,,,,,,,,,,,,,,,,,,,,,,,,,,,,,,,,,,,,,,,,,,,,,,,,,,,,,,,,,,,,,,,,,,,,
,,698e0c45e7907168d29d5b02,2026-03-17_09h09.30.955,kallum_motion_pilot_GIST_update_2,2026.1.1,Win32,59.52380952,698e0c45e7907168d29d5b02,69b95efdef24cd8a694e89ee,69b96079858224eeb6c56c77,0.04,0.04,0,112,112,87,1,eightseven,,,,,,,,,,,,,,,,,,,,,,,,,,,,,,,,,,,,,,,,,,,,,,,,,,,,,,,,,,,,,,,,,,,,,,,,,,,,,,,,,,,,,,,,,,,,,,,,,,,,,,,,,,,,,,,,,,,,,,,,,,,,,,,,,,,,,,,,,
,,698e0c45e7907168d29d5b02,2026-03-17_09h09.30.955,kallum_motion_pilot_GIST_update_2,2026.1.1,Win32,59.52380952,698e0c45e7907168d29d5b02,69b95efdef24cd8a694e89ee,69b96079858224eeb6c56c77,0.0402,0.0402,0,113,113,26,1,twoone,,,,,,,,,,,,,,,,,,,,,,,,,,,,,,,,,,,,,,,,,,,,,,,,,,,,,,,,,,,,,,,,,,,,,,,,,,,,,,,,,,,,,,,,,,,,,,,,,,,,,,,,,,,,,,,,,,,,,,,,,,,,,,,,,,,,,,,,,
,,698e0c45e7907168d29d5b02,2026-03-17_09h09.30.955,kallum_motion_pilot_GIST_update_2,2026.1.1,Win32,59.52380952,698e0c45e7907168d29d5b02,69b95efdef24cd8a694e89ee,69b96079858224eeb6c56c77,0.0403,0.0404,0,114,114,57,1,onethree,,,,,,,,,,,,,,,,,,,,,,,,,,,,,,,,,,,,,,,,,,,,,,,,,,,,,,,,,,,,,,,,,,,,,,,,,,,,,,,,,,,,,,,,,,,,,,,,,,,,,,,,,,,,,,,,,,,,,,,,,,,,,,,,,,,,,,,,,
,,698e0c45e7907168d29d5b02,2026-03-17_09h09.30.955,kallum_motion_pilot_GIST_update_2,2026.1.1,Win32,59.52380952,698e0c45e7907168d29d5b02,69b95efdef24cd8a694e89ee,69b96079858224eeb6c56c77,0.0405,0.0405,0,115,115,143,1,eightseven,,,,,,,,,,,,,,,,,,,,,,,,,,,,,,,,,,,,,,,,,,,,,,,,,,,,,,,,,,,,,,,,,,,,,,,,,,,,,,,,,,,,,,,,,,,,,,,,,,,,,,,,,,,,,,,,,,,,,,,,,,,,,,,,,,,,,,,,,
,,698e0c45e7907168d29d5b02,2026-03-17_09h09.30.955,kallum_motion_pilot_GIST_update_2,2026.1.1,Win32,59.52380952,698e0c45e7907168d29d5b02,69b95efdef24cd8a694e89ee,69b96079858224eeb6c56c77,0.0407,0.0407,0,116,116,73,1,onethree,,,,,,,,,,,,,,,,,,,,,,,,,,,,,,,,,,,,,,,,,,,,,,,,,,,,,,,,,,,,,,,,,,,,,,,,,,,,,,,,,,,,,,,,,,,,,,,,,,,,,,,,,,,,,,,,,,,,,,,,,,,,,,,,,,,,,,,,,
,,698e0c45e7907168d29d5b02,2026-03-17_09h09.30.955,kallum_motion_pilot_GIST_update_2,2026.1.1,Win32,59.52380952,698e0c45e7907168d29d5b02,69b95efdef24cd8a694e89ee,69b96079858224eeb6c56c77,0.0408,0.0409,0,117,117,107,1,sixeight,,,,,,,,,,,,,,,,,,,,,,,,,,,,,,,,,,,,,,,,,,,,,,,,,,,,,,,,,,,,,,,,,,,,,,,,,,,,,,,,,,,,,,,,,,,,,,,,,,,,,,,,,,,,,,,,,,,,,,,,,,,,,,,,,,,,,,,,,
,,698e0c45e7907168d29d5b02,2026-03-17_09h09.30.955,kallum_motion_pilot_GIST_update_2,2026.1.1,Win32,59.52380952,698e0c45e7907168d29d5b02,69b95efdef24cd8a694e89ee,69b96079858224eeb6c56c77,0.0411,0.0411,0,118,118,113,1,fiveseven,,,,,,,,,,,,,,,,,,,,,,,,,,,,,,,,,,,,,,,,,,,,,,,,,,,,,,,,,,,,,,,,,,,,,,,,,,,,,,,,,,,,,,,,,,,,,,,,,,,,,,,,,,,,,,,,,,,,,,,,,,,,,,,,,,,,,,,,,
,,698e0c45e7907168d29d5b02,2026-03-17_09h09.30.955,kallum_motion_pilot_GIST_update_2,2026.1.1,Win32,59.52380952,698e0c45e7907168d29d5b02,69b95efdef24cd8a694e89ee,69b96079858224eeb6c56c77,0.0412,0.0412,0,119,119,47,1,fourthree,,,,,,,,,,,,,,,,,,,,,,,,,,,,,,,,,,,,,,,,,,,,,,,,,,,,,,,,,,,,,,,,,,,,,,,,,,,,,,,,,,,,,,,,,,,,,,,,,,,,,,,,,,,,,,,,,,,,,,,,,,,,,,,,,,,,,,,,,
,,698e0c45e7907168d29d5b02,2026-03-17_09h09.30.955,kallum_motion_pilot_GIST_update_2,2026.1.1,Win32,59.52380952,698e0c45e7907168d29d5b02,69b95efdef24cd8a694e89ee,69b96079858224eeb6c56c77,0.0414,0.0414,0,120,120,59,1,twofour,,,,,,,,,,,,,,,,,,,,,,,,,,,,,,,,,,,,,,,,,,,,,,,,,,,,,,,,,,,,,,,,,,,,,,,,,,,,,,,,,,,,,,,,,,,,,,,,,,,,,,,,,,,,,,,,,,,,,,,,,,,,,,,,,,,,,,,,,
,,698e0c45e7907168d29d5b02,2026-03-17_09h09.30.955,kallum_motion_pilot_GIST_update_2,2026.1.1,Win32,59.52380952,698e0c45e7907168d29d5b02,69b95efdef24cd8a694e89ee,69b96079858224eeb6c56c77,0.0415,0.0416,0,121,121,133,1,seveneight,,,,,,,,,,,,,,,,,,,,,,,,,,,,,,,,,,,,,,,,,,,,,,,,,,,,,,,,,,,,,,,,,,,,,,,,,,,,,,,,,,,,,,,,,,,,,,,,,,,,,,,,,,,,,,,,,,,,,,,,,,,,,,,,,,,,,,,,,
,,698e0c45e7907168d29d5b02,2026-03-17_09h09.30.955,kallum_motion_pilot_GIST_update_2,2026.1.1,Win32,59.52380952,698e0c45e7907168d29d5b02,69b95efdef24cd8a694e89ee,69b96079858224eeb6c56c77,0.0418,0.0418,0,122,122,63,1,fourthree,,,,,,,,,,,,,,,,,,,,,,,,,,,,,,,,,,,,,,,,,,,,,,,,,,,,,,,,,,,,,,,,,,,,,,,,,,,,,,,,,,,,,,,,,,,,,,,,,,,,,,,,,,,,,,,,,,,,,,,,,,,,,,,,,,,,,,,,,
,,698e0c45e7907168d29d5b02,2026-03-17_09h09.30.955,kallum_motion_pilot_GIST_update_2,2026.1.1,Win32,59.52380952,698e0c45e7907168d29d5b02,69b95efdef24cd8a694e89ee,69b96079858224eeb6c56c77,0.0419,0.0419,0,123,123,3,1,twofour,,,,,,,,,,,,,,,,,,,,,,,,,,,,,,,,,,,,,,,,,,,,,,,,,,,,,,,,,,,,,,,,,,,,,,,,,,,,,,,,,,,,,,,,,,,,,,,,,,,,,,,,,,,,,,,,,,,,,,,,,,,,,,,,,,,,,,,,,
,,698e0c45e7907168d29d5b02,2026-03-17_09h09.30.955,kallum_motion_pilot_GIST_update_2,2026.1.1,Win32,59.52380952,698e0c45e7907168d29d5b02,69b95efdef24cd8a694e89ee,69b96079858224eeb6c56c77,0.0421,0.0421,0,124,124,37,1,threefour,,,,,,,,,,,,,,,,,,,,,,,,,,,,,,,,,,,,,,,,,,,,,,,,,,,,,,,,,,,,,,,,,,,,,,,,,,,,,,,,,,,,,,,,,,,,,,,,,,,,,,,,,,,,,,,,,,,,,,,,,,,,,,,,,,,,,,,,,
,,698e0c45e7907168d29d5b02,2026-03-17_09h09.30.955,kallum_motion_pilot_GIST_update_2,2026.1.1,Win32,59.52380952,698e0c45e7907168d29d5b02,69b95efdef24cd8a694e89ee,69b96079858224eeb6c56c77,0.0422,0.0422,0,125,125,23,1,fourthree,,,,,,,,,,,,,,,,,,,,,,,,,,,,,,,,,,,,,,,,,,,,,,,,,,,,,,,,,,,,,,,,,,,,,,,,,,,,,,,,,,,,,,,,,,,,,,,,,,,,,,,,,,,,,,,,,,,,,,,,,,,,,,,,,,,,,,,,,
,,698e0c45e7907168d29d5b02,2026-03-17_09h09.30.955,kallum_motion_pilot_GIST_update_2,2026.1.1,Win32,59.52380952,698e0c45e7907168d29d5b02,69b95efdef24cd8a694e89ee,69b96079858224eeb6c56c77,0.0424,0.0424,0,126,126,24,1,onetwo,,,,,,,,,,,,,,,,,,,,,,,,,,,,,,,,,,,,,,,,,,,,,,,,,,,,,,,,,,,,,,,,,,,,,,,,,,,,,,,,,,,,,,,,,,,,,,,,,,,,,,,,,,,,,,,,,,,,,,,,,,,,,,,,,,,,,,,,,
,,698e0c45e7907168d29d5b02,2026-03-17_09h09.30.955,kallum_motion_pilot_GIST_update_2,2026.1.1,Win32,59.52380952,698e0c45e7907168d29d5b02,69b95efdef24cd8a694e89ee,69b96079858224eeb6c56c77,0.0426,0.0426,0,127,127,34,1,twoone,,,,,,,,,,,,,,,,,,,,,,,,,,,,,,,,,,,,,,,,,,,,,,,,,,,,,,,,,,,,,,,,,,,,,,,,,,,,,,,,,,,,,,,,,,,,,,,,,,,,,,,,,,,,,,,,,,,,,,,,,,,,,,,,,,,,,,,,,
,,698e0c45e7907168d29d5b02,2026-03-17_09h09.30.955,kallum_motion_pilot_GIST_update_2,2026.1.1,Win32,59.52380952,698e0c45e7907168d29d5b02,69b95efdef24cd8a694e89ee,69b96079858224eeb6c56c77,0.0428,0.0428,0,128,128,17,1,onethree,,,,,,,,,,,,,,,,,,,,,,,,,,,,,,,,,,,,,,,,,,,,,,,,,,,,,,,,,,,,,,,,,,,,,,,,,,,,,,,,,,,,,,,,,,,,,,,,,,,,,,,,,,,,,,,,,,,,,,,,,,,,,,,,,,,,,,,,,
,,698e0c45e7907168d29d5b02,2026-03-17_09h09.30.955,kallum_motion_pilot_GIST_update_2,2026.1.1,Win32,59.52380952,698e0c45e7907168d29d5b02,69b95efdef24cd8a694e89ee,69b96079858224eeb6c56c77,0.043,0.043,0,129,129,46,1,fourtwo,,,,,,,,,,,,,,,,,,,,,,,,,,,,,,,,,,,,,,,,,,,,,,,,,,,,,,,,,,,,,,,,,,,,,,,,,,,,,,,,,,,,,,,,,,,,,,,,,,,,,,,,,,,,,,,,,,,,,,,,,,,,,,,,,,,,,,,,,
,,698e0c45e7907168d29d5b02,2026-03-17_09h09.30.955,kallum_motion_pilot_GIST_update_2,2026.1.1,Win32,59.52380952,698e0c45e7907168d29d5b02,69b95efdef24cd8a694e89ee,69b96079858224eeb6c56c77,0.0431,0.0431,0,130,130,126,1,eightsix,,,,,,,,,,,,,,,,,,,,,,,,,,,,,,,,,,,,,,,,,,,,,,,,,,,,,,,,,,,,,,,,,,,,,,,,,,,,,,,,,,,,,,,,,,,,,,,,,,,,,,,,,,,,,,,,,,,,,,,,,,,,,,,,,,,,,,,,,
,,698e0c45e7907168d29d5b02,2026-03-17_09h09.30.955,kallum_motion_pilot_GIST_update_2,2026.1.1,Win32,59.52380952,698e0c45e7907168d29d5b02,69b95efdef24cd8a694e89ee,69b96079858224eeb6c56c77,0.0433,0.0433,0,131,131,35,1,twofour,,,,,,,,,,,,,,,,,,,,,,,,,,,,,,,,,,,,,,,,,,,,,,,,,,,,,,,,,,,,,,,,,,,,,,,,,,,,,,,,,,,,,,,,,,,,,,,,,,,,,,,,,,,,,,,,,,,,,,,,,,,,,,,,,,,,,,,,,
,,698e0c45e7907168d29d5b02,2026-03-17_09h09.30.955,kallum_motion_pilot_GIST_update_2,2026.1.1,Win32,59.52380952,698e0c45e7907168d29d5b02,69b95efdef24cd8a694e89ee,69b96079858224eeb6c56c77,0.0434,0.0434,0,132,132,15,1,fourthree,,,,,,,,,,,,,,,,,,,,,,,,,,,,,,,,,,,,,,,,,,,,,,,,,,,,,,,,,,,,,,,,,,,,,,,,,,,,,,,,,,,,,,,,,,,,,,,,,,,,,,,,,,,,,,,,,,,,,,,,,,,,,,,,,,,,,,,,,
,,698e0c45e7907168d29d5b02,2026-03-17_09h09.30.955,kallum_motion_pilot_GIST_update_2,2026.1.1,Win32,59.52380952,698e0c45e7907168d29d5b02,69b95efdef24cd8a694e89ee,69b96079858224eeb6c56c77,0.0436,0.0436,0,133,133,103,1,eightseven,,,,,,,,,,,,,,,,,,,,,,,,,,,,,,,,,,,,,,,,,,,,,,,,,,,,,,,,,,,,,,,,,,,,,,,,,,,,,,,,,,,,,,,,,,,,,,,,,,,,,,,,,,,,,,,,,,,,,,,,,,,,,,,,,,,,,,,,,
,,698e0c45e7907168d29d5b02,2026-03-17_09h09.30.955,kallum_motion_pilot_GIST_update_2,2026.1.1,Win32,59.52380952,698e0c45e7907168d29d5b02,69b95efdef24cd8a694e89ee,69b96079858224eeb6c56c77,0.0437,0.0437,0,134,134,100,1,sevenfive,,,,,,,,,,,,,,,,,,,,,,,,,,,,,,,,,,,,,,,,,,,,,,,,,,,,,,,,,,,,,,,,,,,,,,,,,,,,,,,,,,,,,,,,,,,,,,,,,,,,,,,,,,,,,,,,,,,,,,,,,,,,,,,,,,,,,,,,,
,,698e0c45e7907168d29d5b02,2026-03-17_09h09.30.955,kallum_motion_pilot_GIST_update_2,2026.1.1,Win32,59.52380952,698e0c45e7907168d29d5b02,69b95efdef24cd8a694e89ee,69b96079858224eeb6c56c77,0.0439,0.0439,0,135,135,83,1,sixeight,,,,,,,,,,,,,,,,,,,,,,,,,,,,,,,,,,,,,,,,,,,,,,,,,,,,,,,,,,,,,,,,,,,,,,,,,,,,,,,,,,,,,,,,,,,,,,,,,,,,,,,,,,,,,,,,,,,,,,,,,,,,,,,,,,,,,,,,,
,,698e0c45e7907168d29d5b02,2026-03-17_09h09.30.955,kallum_motion_pilot_GIST_update_2,2026.1.1,Win32,59.52380952,698e0c45e7907168d29d5b02,69b95efdef24cd8a694e89ee,69b96079858224eeb6c56c77,0.0441,0.0441,0,136,136,0,1,onetwo,,,,,,,,,,,,,,,,,,,,,,,,,,,,,,,,,,,,,,,,,,,,,,,,,,,,,,,,,,,,,,,,,,,,,,,,,,,,,,,,,,,,,,,,,,,,,,,,,,,,,,,,,,,,,,,,,,,,,,,,,,,,,,,,,,,,,,,,,
,,698e0c45e7907168d29d5b02,2026-03-17_09h09.30.955,kallum_motion_pilot_GIST_update_2,2026.1.1,Win32,59.52380952,698e0c45e7907168d29d5b02,69b95efdef24cd8a694e89ee,69b96079858224eeb6c56c77,0.0442,0.0442,0,137,137,58,1,twoone,,,,,,,,,,,,,,,,,,,,,,,,,,,,,,,,,,,,,,,,,,,,,,,,,,,,,,,,,,,,,,,,,,,,,,,,,,,,,,,,,,,,,,,,,,,,,,,,,,,,,,,,,,,,,,,,,,,,,,,,,,,,,,,,,,,,,,,,,
,,698e0c45e7907168d29d5b02,2026-03-17_09h09.30.955,kallum_motion_pilot_GIST_update_2,2026.1.1,Win32,59.52380952,698e0c45e7907168d29d5b02,69b95efdef24cd8a694e89ee,69b96079858224eeb6c56c77,0.0443,0.0443,0,138,138,54,1,fourtwo,,,,,,,,,,,,,,,,,,,,,,,,,,,,,,,,,,,,,,,,,,,,,,,,,,,,,,,,,,,,,,,,,,,,,,,,,,,,,,,,,,,,,,,,,,,,,,,,,,,,,,,,,,,,,,,,,,,,,,,,,,,,,,,,,,,,,,,,,
,,698e0c45e7907168d29d5b02,2026-03-17_09h09.30.955,kallum_motion_pilot_GIST_update_2,2026.1.1,Win32,59.52380952,698e0c45e7907168d29d5b02,69b95efdef24cd8a694e89ee,69b96079858224eeb6c56c77,0.0445,0.0445,0,139,139,134,1,eightsix,,,,,,,,,,,,,,,,,,,,,,,,,,,,,,,,,,,,,,,,,,,,,,,,,,,,,,,,,,,,,,,,,,,,,,,,,,,,,,,,,,,,,,,,,,,,,,,,,,,,,,,,,,,,,,,,,,,,,,,,,,,,,,,,,,,,,,,,,
,,698e0c45e7907168d29d5b02,2026-03-17_09h09.30.955,kallum_motion_pilot_GIST_update_2,2026.1.1,Win32,59.52380952,698e0c45e7907168d29d5b02,69b95efdef24cd8a694e89ee,69b96079858224eeb6c56c77,0.0446,0.0447,0,140,140,77,1,threefour,,,,,,,,,,,,,,,,,,,,,,,,,,,,,,,,,,,,,,,,,,,,,,,,,,,,,,,,,,,,,,,,,,,,,,,,,,,,,,,,,,,,,,,,,,,,,,,,,,,,,,,,,,,,,,,,,,,,,,,,,,,,,,,,,,,,,,,,,
,,698e0c45e7907168d29d5b02,2026-03-17_09h09.30.955,kallum_motion_pilot_GIST_update_2,2026.1.1,Win32,59.52380952,698e0c45e7907168d29d5b02,69b95efdef24cd8a694e89ee,69b96079858224eeb6c56c77,0.0447,0.0447,0,141,141,119,1,eightseven,,,,,,,,,,,,,,,,,,,,,,,,,,,,,,,,,,,,,,,,,,,,,,,,,,,,,,,,,,,,,,,,,,,,,,,,,,,,,,,,,,,,,,,,,,,,,,,,,,,,,,,,,,,,,,,,,,,,,,,,,,,,,,,,,,,,,,,,,
,,698e0c45e7907168d29d5b02,2026-03-17_09h09.30.955,kallum_motion_pilot_GIST_update_2,2026.1.1,Win32,59.52380952,698e0c45e7907168d29d5b02,69b95efdef24cd8a694e89ee,69b96079858224eeb6c56c77,0.0448,0.0448,0,142,142,157,1,seveneight,,,,,,,,,,,,,,,,,,,,,,,,,,,,,,,,,,,,,,,,,,,,,,,,,,,,,,,,,,,,,,,,,,,,,,,,,,,,,,,,,,,,,,,,,,,,,,,,,,,,,,,,,,,,,,,,,,,,,,,,,,,,,,,,,,,,,,,,,
,,698e0c45e7907168d29d5b02,2026-03-17_09h09.30.955,kallum_motion_pilot_GIST_update_2,2026.1.1,Win32,59.52380952,698e0c45e7907168d29d5b02,69b95efdef24cd8a694e89ee,69b96079858224eeb6c56c77,0.045,0.045,0,143,143,27,1,twofour,,,,,,,,,,,,,,,,,,,,,,,,,,,,,,,,,,,,,,,,,,,,,,,,,,,,,,,,,,,,,,,,,,,,,,,,,,,,,,,,,,,,,,,,,,,,,,,,,,,,,,,,,,,,,,,,,,,,,,,,,,,,,,,,,,,,,,,,,
,,698e0c45e7907168d29d5b02,2026-03-17_09h09.30.955,kallum_motion_pilot_GIST_update_2,2026.1.1,Win32,59.52380952,698e0c45e7907168d29d5b02,69b95efdef24cd8a694e89ee,69b96079858224eeb6c56c77,0.045,0.045,0,144,144,39,1,fourthree,,,,,,,,,,,,,,,,,,,,,,,,,,,,,,,,,,,,,,,,,,,,,,,,,,,,,,,,,,,,,,,,,,,,,,,,,,,,,,,,,,,,,,,,,,,,,,,,,,,,,,,,,,,,,,,,,,,,,,,,,,,,,,,,,,,,,,,,,
,,698e0c45e7907168d29d5b02,2026-03-17_09h09.30.955,kallum_motion_pilot_GIST_update_2,2026.1.1,Win32,59.52380952,698e0c45e7907168d29d5b02,69b95efdef24cd8a694e89ee,69b96079858224eeb6c56c77,0.0452,0.0452,0,145,145,158,1,eightsix,,,,,,,,,,,,,,,,,,,,,,,,,,,,,,,,,,,,,,,,,,,,,,,,,,,,,,,,,,,,,,,,,,,,,,,,,,,,,,,,,,,,,,,,,,,,,,,,,,,,,,,,,,,,,,,,,,,,,,,,,,,,,,,,,,,,,,,,,
,,698e0c45e7907168d29d5b02,2026-03-17_09h09.30.955,kallum_motion_pilot_GIST_update_2,2026.1.1,Win32,59.52380952,698e0c45e7907168d29d5b02,69b95efdef24cd8a694e89ee,69b96079858224eeb6c56c77,0.0453,0.0453,0,146,146,104,1,fivesix,,,,,,,,,,,,,,,,,,,,,,,,,,,,,,,,,,,,,,,,,,,,,,,,,,,,,,,,,,,,,,,,,,,,,,,,,,,,,,,,,,,,,,,,,,,,,,,,,,,,,,,,,,,,,,,,,,,,,,,,,,,,,,,,,,,,,,,,,
,,698e0c45e7907168d29d5b02,2026-03-17_09h09.30.955,kallum_motion_pilot_GIST_update_2,2026.1.1,Win32,59.52380952,698e0c45e7907168d29d5b02,69b95efdef24cd8a694e89ee,69b96079858224eeb6c56c77,0.0454,0.0454,0,147,147,20,1,threeone,,,,,,,,,,,,,,,,,,,,,,,,,,,,,,,,,,,,,,,,,,,,,,,,,,,,,,,,,,,,,,,,,,,,,,,,,,,,,,,,,,,,,,,,,,,,,,,,,,,,,,,,,,,,,,,,,,,,,,,,,,,,,,,,,,,,,,,,,
,,698e0c45e7907168d29d5b02,2026-03-17_09h09.30.955,kallum_motion_pilot_GIST_update_2,2026.1.1,Win32,59.52380952,698e0c45e7907168d29d5b02,69b95efdef24cd8a694e89ee,69b96079858224eeb6c56c77,0.0455,0.0455,0,148,148,141,1,seveneight,,,,,,,,,,,,,,,,,,,,,,,,,,,,,,,,,,,,,,,,,,,,,,,,,,,,,,,,,,,,,,,,,,,,,,,,,,,,,,,,,,,,,,,,,,,,,,,,,,,,,,,,,,,,,,,,,,,,,,,,,,,,,,,,,,,,,,,,,
,,698e0c45e7907168d29d5b02,2026-03-17_09h09.30.955,kallum_motion_pilot_GIST_update_2,2026.1.1,Win32,59.52380952,698e0c45e7907168d29d5b02,69b95efdef24cd8a694e89ee,69b96079858224eeb6c56c77,0.0456,0.0456,0,149,149,13,1,threefour,,,,,,,,,,,,,,,,,,,,,,,,,,,,,,,,,,,,,,,,,,,,,,,,,,,,,,,,,,,,,,,,,,,,,,,,,,,,,,,,,,,,,,,,,,,,,,,,,,,,,,,,,,,,,,,,,,,,,,,,,,,,,,,,,,,,,,,,,
,,698e0c45e7907168d29d5b02,2026-03-17_09h09.30.955,kallum_motion_pilot_GIST_update_2,2026.1.1,Win32,59.52380952,698e0c45e7907168d29d5b02,69b95efdef24cd8a694e89ee,69b96079858224eeb6c56c77,0.0457,0.0457,0,150,150,88,1,fivesix,,,,,,,,,,,,,,,,,,,,,,,,,,,,,,,,,,,,,,,,,,,,,,,,,,,,,,,,,,,,,,,,,,,,,,,,,,,,,,,,,,,,,,,,,,,,,,,,,,,,,,,,,,,,,,,,,,,,,,,,,,,,,,,,,,,,,,,,,
,,698e0c45e7907168d29d5b02,2026-03-17_09h09.30.955,kallum_motion_pilot_GIST_update_2,2026.1.1,Win32,59.52380952,698e0c45e7907168d29d5b02,69b95efdef24cd8a694e89ee,69b96079858224eeb6c56c77,0.0457,0.0457,0,151,151,153,1,fiveseven,,,,,,,,,,,,,,,,,,,,,,,,,,,,,,,,,,,,,,,,,,,,,,,,,,,,,,,,,,,,,,,,,,,,,,,,,,,,,,,,,,,,,,,,,,,,,,,,,,,,,,,,,,,,,,,,,,,,,,,,,,,,,,,,,,,,,,,,,
,,698e0c45e7907168d29d5b02,2026-03-17_09h09.30.955,kallum_motion_pilot_GIST_update_2,2026.1.1,Win32,59.52380952,698e0c45e7907168d29d5b02,69b95efdef24cd8a694e89ee,69b96079858224eeb6c56c77,0.0459,0.0459,0,152,152,19,1,twofour,,,,,,,,,,,,,,,,,,,,,,,,,,,,,,,,,,,,,,,,,,,,,,,,,,,,,,,,,,,,,,,,,,,,,,,,,,,,,,,,,,,,,,,,,,,,,,,,,,,,,,,,,,,,,,,,,,,,,,,,,,,,,,,,,,,,,,,,,
,,698e0c45e7907168d29d5b02,2026-03-17_09h09.30.955,kallum_motion_pilot_GIST_update_2,2026.1.1,Win32,59.52380952,698e0c45e7907168d29d5b02,69b95efdef24cd8a694e89ee,69b96079858224eeb6c56c77,0.046,0.046,0,153,153,111,1,eightseven,,,,,,,,,,,,,,,,,,,,,,,,,,,,,,,,,,,,,,,,,,,,,,,,,,,,,,,,,,,,,,,,,,,,,,,,,,,,,,,,,,,,,,,,,,,,,,,,,,,,,,,,,,,,,,,,,,,,,,,,,,,,,,,,,,,,,,,,,
,,698e0c45e7907168d29d5b02,2026-03-17_09h09.30.955,kallum_motion_pilot_GIST_update_2,2026.1.1,Win32,59.52380952,698e0c45e7907168d29d5b02,69b95efdef24cd8a694e89ee,69b96079858224eeb6c56c77,0.0462,0.0462,0,154,154,137,1,fiveseven,,,,,,,,,,,,,,,,,,,,,,,,,,,,,,,,,,,,,,,,,,,,,,,,,,,,,,,,,,,,,,,,,,,,,,,,,,,,,,,,,,,,,,,,,,,,,,,,,,,,,,,,,,,,,,,,,,,,,,,,,,,,,,,,,,,,,,,,,
,,698e0c45e7907168d29d5b02,2026-03-17_09h09.30.955,kallum_motion_pilot_GIST_update_2,2026.1.1,Win32,59.52380952,698e0c45e7907168d29d5b02,69b95efdef24cd8a694e89ee,69b96079858224eeb6c56c77,0.0463,0.0463,0,155,155,4,1,threeone,,,,,,,,,,,,,,,,,,,,,,,,,,,,,,,,,,,,,,,,,,,,,,,,,,,,,,,,,,,,,,,,,,,,,,,,,,,,,,,,,,,,,,,,,,,,,,,,,,,,,,,,,,,,,,,,,,,,,,,,,,,,,,,,,,,,,,,,,
,,698e0c45e7907168d29d5b02,2026-03-17_09h09.30.955,kallum_motion_pilot_GIST_update_2,2026.1.1,Win32,59.52380952,698e0c45e7907168d29d5b02,69b95efdef24cd8a694e89ee,69b96079858224eeb6c56c77,0.0464,0.0464,0,156,156,9,1,onethree,,,,,,,,,,,,,,,,,,,,,,,,,,,,,,,,,,,,,,,,,,,,,,,,,,,,,,,,,,,,,,,,,,,,,,,,,,,,,,,,,,,,,,,,,,,,,,,,,,,,,,,,,,,,,,,,,,,,,,,,,,,,,,,,,,,,,,,,,
,,698e0c45e7907168d29d5b02,2026-03-17_09h09.30.955,kallum_motion_pilot_GIST_update_2,2026.1.1,Win32,59.52380952,698e0c45e7907168d29d5b02,69b95efdef24cd8a694e89ee,69b96079858224eeb6c56c77,0.0465,0.0465,0,157,157,21,1,threefour,,,,,,,,,,,,,,,,,,,,,,,,,,,,,,,,,,,,,,,,,,,,,,,,,,,,,,,,,,,,,,,,,,,,,,,,,,,,,,,,,,,,,,,,,,,,,,,,,,,,,,,,,,,,,,,,,,,,,,,,,,,,,,,,,,,,,,,,,
,,698e0c45e7907168d29d5b02,2026-03-17_09h09.30.955,kallum_motion_pilot_GIST_update_2,2026.1.1,Win32,59.52380952,698e0c45e7907168d29d5b02,69b95efdef24cd8a694e89ee,69b96079858224eeb6c56c77,0.0466,0.0466,0,158,158,148,1,sevenfive,,,,,,,,,,,,,,,,,,,,,,,,,,,,,,,,,,,,,,,,,,,,,,,,,,,,,,,,,,,,,,,,,,,,,,,,,,,,,,,,,,,,,,,,,,,,,,,,,,,,,,,,,,,,,,,,,,,,,,,,,,,,,,,,,,,,,,,,,
,,698e0c45e7907168d29d5b02,2026-03-17_09h09.30.955,kallum_motion_pilot_GIST_update_2,2026.1.1,Win32,59.52380952,698e0c45e7907168d29d5b02,69b95efdef24cd8a694e89ee,69b96079858224eeb6c56c77,0.0467,0.0467,0,159,159,128,1,fivesix,,,,,,,,,,,,,,,,,,,,,,,,,,,,,,,,,,,,,,,,,,,,,,,,,,,,,,,,,,,,,,,,,,,,,,,,,,,,,,,,,,,,,,,,,,,,,,,,,,,,,,,,,,,,,,,,,,,,,,,,,,,,,,,,,,,,,,,,,
,,698e0c45e7907168d29d5b02,2026-03-17_09h09.30.955,kallum_motion_pilot_GIST_update_2,2026.1.1,Win32,59.52380952,698e0c45e7907168d29d5b02,69b95efdef24cd8a694e89ee,69b96079858224eeb6c56c77,0.0467,0.0467,0,160,160,135,1,eightseven,,,,,,,,,,,,,,,,,,,,,,,,,,,,,,,,,,,,,,,,,,,,,,,,,,,,,,,,,,,,,,,,,,,,,,,,,,,,,,,,,,,,,,,,,,,,,,,,,,,,,,,,,,,,,,,,,,,,,,,,,,,,,,,,,,,,,,,,,
,,698e0c45e7907168d29d5b02,2026-03-17_09h09.30.955,kallum_motion_pilot_GIST_update_2,2026.1.1,Win32,59.52380952,698e0c45e7907168d29d5b02,69b95efdef24cd8a694e89ee,69b96079858224eeb6c56c77,0.0469,0.0469,0,161,161,65,1,onethree,,,,,,,,,,,,,,,,,,,,,,,,,,,,,,,,,,,,,,,,,,,,,,,,,,,,,,,,,,,,,,,,,,,,,,,,,,,,,,,,,,,,,,,,,,,,,,,,,,,,,,,,,,,,,,,,,,,,,,,,,,,,,,,,,,,,,,,,,
,,698e0c45e7907168d29d5b02,2026-03-17_09h09.30.955,kallum_motion_pilot_GIST_update_2,2026.1.1,Win32,59.52380952,698e0c45e7907168d29d5b02,69b95efdef24cd8a694e89ee,69b96079858224eeb6c56c77,0.047,0.047,1,0,162,73,1,onethree,,,,,,,,,,,,,,,,,,,,,,,,,,,,,,,,,,,,,,,,,,,,,,,,,,,,,,,,,,,,,,,,,,,,,,,,,,,,,,,,,,,,,,,,,,,,,,,,,,,,,,,,,,,,,,,,,,,,,,,,,,,,,,,,,,,,,,,,,
,,698e0c45e7907168d29d5b02,2026-03-17_09h09.30.955,kallum_motion_pilot_GIST_update_2,2026.1.1,Win32,59.52380952,698e0c45e7907168d29d5b02,69b95efdef24cd8a694e89ee,69b96079858224eeb6c56c77,0.0471,0.0471,1,1,163,121,1,fiveseven,,,,,,,,,,,,,,,,,,,,,,,,,,,,,,,,,,,,,,,,,,,,,,,,,,,,,,,,,,,,,,,,,,,,,,,,,,,,,,,,,,,,,,,,,,,,,,,,,,,,,,,,,,,,,,,,,,,,,,,,,,,,,,,,,,,,,,,,,
,,698e0c45e7907168d29d5b02,2026-03-17_09h09.30.955,kallum_motion_pilot_GIST_update_2,2026.1.1,Win32,59.52380952,698e0c45e7907168d29d5b02,69b95efdef24cd8a694e89ee,69b96079858224eeb6c56c77,0.0472,0.0472,1,2,164,124,1,sevenfive,,,,,,,,,,,,,,,,,,,,,,,,,,,,,,,,,,,,,,,,,,,,,,,,,,,,,,,,,,,,,,,,,,,,,,,,,,,,,,,,,,,,,,,,,,,,,,,,,,,,,,,,,,,,,,,,,,,,,,,,,,,,,,,,,,,,,,,,,
,,698e0c45e7907168d29d5b02,2026-03-17_09h09.30.955,kallum_motion_pilot_GIST_update_2,2026.1.1,Win32,59.52380952,698e0c45e7907168d29d5b02,69b95efdef24cd8a694e89ee,69b96079858224eeb6c56c77,0.0474,0.0474,1,3,165,34,1,twoone,,,,,,,,,,,,,,,,,,,,,,,,,,,,,,,,,,,,,,,,,,,,,,,,,,,,,,,,,,,,,,,,,,,,,,,,,,,,,,,,,,,,,,,,,,,,,,,,,,,,,,,,,,,,,,,,,,,,,,,,,,,,,,,,,,,,,,,,,
,,698e0c45e7907168d29d5b02,2026-03-17_09h09.30.955,kallum_motion_pilot_GIST_update_2,2026.1.1,Win32,59.52380952,698e0c45e7907168d29d5b02,69b95efdef24cd8a694e89ee,69b96079858224eeb6c56c77,0.0475,0.0475,1,4,166,2,1,twoone,,,,,,,,,,,,,,,,,,,,,,,,,,,,,,,,,,,,,,,,,,,,,,,,,,,,,,,,,,,,,,,,,,,,,,,,,,,,,,,,,,,,,,,,,,,,,,,,,,,,,,,,,,,,,,,,,,,,,,,,,,,,,,,,,,,,,,,,,
,,698e0c45e7907168d29d5b02,2026-03-17_09h09.30.955,kallum_motion_pilot_GIST_update_2,2026.1.1,Win32,59.52380952,698e0c45e7907168d29d5b02,69b95efdef24cd8a694e89ee,69b96079858224eeb6c56c77,0.0476,0.0476,1,5,167,148,1,sevenfive,,,,,,,,,,,,,,,,,,,,,,,,,,,,,,,,,,,,,,,,,,,,,,,,,,,,,,,,,,,,,,,,,,,,,,,,,,,,,,,,,,,,,,,,,,,,,,,,,,,,,,,,,,,,,,,,,,,,,,,,,,,,,,,,,,,,,,,,,
,,698e0c45e7907168d29d5b02,2026-03-17_09h09.30.955,kallum_motion_pilot_GIST_update_2,2026.1.1,Win32,59.52380952,698e0c45e7907168d29d5b02,69b95efdef24cd8a694e89ee,69b96079858224eeb6c56c77,0.0476,0.0476,1,6,168,142,1,eightsix,,,,,,,,,,,,,,,,,,,,,,,,,,,,,,,,,,,,,,,,,,,,,,,,,,,,,,,,,,,,,,,,,,,,,,,,,,,,,,,,,,,,,,,,,,,,,,,,,,,,,,,,,,,,,,,,,,,,,,,,,,,,,,,,,,,,,,,,,
,,698e0c45e7907168d29d5b02,2026-03-17_09h09.30.955,kallum_motion_pilot_GIST_update_2,2026.1.1,Win32,59.52380952,698e0c45e7907168d29d5b02,69b95efdef24cd8a694e89ee,69b96079858224eeb6c56c77,0.0478,0.0478,1,7,169,147,1,sixeight,,,,,,,,,,,,,,,,,,,,,,,,,,,,,,,,,,,,,,,,,,,,,,,,,,,,,,,,,,,,,,,,,,,,,,,,,,,,,,,,,,,,,,,,,,,,,,,,,,,,,,,,,,,,,,,,,,,,,,,,,,,,,,,,,,,,,,,,,
,,698e0c45e7907168d29d5b02,2026-03-17_09h09.30.955,kallum_motion_pilot_GIST_update_2,2026.1.1,Win32,59.52380952,698e0c45e7907168d29d5b02,69b95efdef24cd8a694e89ee,69b96079858224eeb6c56c77,0.0478,0.0478,1,8,170,25,1,onethree,,,,,,,,,,,,,,,,,,,,,,,,,,,,,,,,,,,,,,,,,,,,,,,,,,,,,,,,,,,,,,,,,,,,,,,,,,,,,,,,,,,,,,,,,,,,,,,,,,,,,,,,,,,,,,,,,,,,,,,,,,,,,,,,,,,,,,,,,
,,698e0c45e7907168d29d5b02,2026-03-17_09h09.30.955,kallum_motion_pilot_GIST_update_2,2026.1.1,Win32,59.52380952,698e0c45e7907168d29d5b02,69b95efdef24cd8a694e89ee,69b96079858224eeb6c56c77,0.048,0.048,1,9,171,15,1,fourthree,,,,,,,,,,,,,,,,,,,,,,,,,,,,,,,,,,,,,,,,,,,,,,,,,,,,,,,,,,,,,,,,,,,,,,,,,,,,,,,,,,,,,,,,,,,,,,,,,,,,,,,,,,,,,,,,,,,,,,,,,,,,,,,,,,,,,,,,,
,,698e0c45e7907168d29d5b02,2026-03-17_09h09.30.955,kallum_motion_pilot_GIST_update_2,2026.1.1,Win32,59.52380952,698e0c45e7907168d29d5b02,69b95efdef24cd8a694e89ee,69b96079858224eeb6c56c77,0.0481,0.0481,1,10,172,30,1,fourtwo,,,,,,,,,,,,,,,,,,,,,,,,,,,,,,,,,,,,,,,,,,,,,,,,,,,,,,,,,,,,,,,,,,,,,,,,,,,,,,,,,,,,,,,,,,,,,,,,,,,,,,,,,,,,,,,,,,,,,,,,,,,,,,,,,,,,,,,,,
,,698e0c45e7907168d29d5b02,2026-03-17_09h09.30.955,kallum_motion_pilot_GIST_update_2,2026.1.1,Win32,59.52380952,698e0c45e7907168d29d5b02,69b95efdef24cd8a694e89ee,69b96079858224eeb6c56c77,0.0482,0.0482,1,11,173,135,1,eightseven,,,,,,,,,,,,,,,,,,,,,,,,,,,,,,,,,,,,,,,,,,,,,,,,,,,,,,,,,,,,,,,,,,,,,,,,,,,,,,,,,,,,,,,,,,,,,,,,,,,,,,,,,,,,,,,,,,,,,,,,,,,,,,,,,,,,,,,,,
,,698e0c45e7907168d29d5b02,2026-03-17_09h09.30.955,kallum_motion_pilot_GIST_update_2,2026.1.1,Win32,59.52380952,698e0c45e7907168d29d5b02,69b95efdef24cd8a694e89ee,69b96079858224eeb6c56c77,0.0484,0.0484,1,12,174,115,1,sixeight,,,,,,,,,,,,,,,,,,,,,,,,,,,,,,,,,,,,,,,,,,,,,,,,,,,,,,,,,,,,,,,,,,,,,,,,,,,,,,,,,,,,,,,,,,,,,,,,,,,,,,,,,,,,,,,,,,,,,,,,,,,,,,,,,,,,,,,,,
,,698e0c45e7907168d29d5b02,2026-03-17_09h09.30.955,kallum_motion_pilot_GIST_update_2,2026.1.1,Win32,59.52380952,698e0c45e7907168d29d5b02,69b95efdef24cd8a694e89ee,69b96079858224eeb6c56c77,0.0484,0.0484,1,13,175,131,1,sixeight,,,,,,,,,,,,,,,,,,,,,,,,,,,,,,,,,,,,,,,,,,,,,,,,,,,,,,,,,,,,,,,,,,,,,,,,,,,,,,,,,,,,,,,,,,,,,,,,,,,,,,,,,,,,,,,,,,,,,,,,,,,,,,,,,,,,,,,,,
,,698e0c45e7907168d29d5b02,2026-03-17_09h09.30.955,kallum_motion_pilot_GIST_update_2,2026.1.1,Win32,59.52380952,698e0c45e7907168d29d5b02,69b95efdef24cd8a694e89ee,69b96079858224eeb6c56c77,0.0486,0.0486,1,14,176,9,1,onethree,,,,,,,,,,,,,,,,,,,,,,,,,,,,,,,,,,,,,,,,,,,,,,,,,,,,,,,,,,,,,,,,,,,,,,,,,,,,,,,,,,,,,,,,,,,,,,,,,,,,,,,,,,,,,,,,,,,,,,,,,,,,,,,,,,,,,,,,,
,,698e0c45e7907168d29d5b02,2026-03-17_09h09.30.955,kallum_motion_pilot_GIST_update_2,2026.1.1,Win32,59.52380952,698e0c45e7907168d29d5b02,69b95efdef24cd8a694e89ee,69b96079858224eeb6c56c77,0.0486,0.0486,1,15,177,160,1,fivesix,,,,,,,,,,,,,,,,,,,,,,,,,,,,,,,,,,,,,,,,,,,,,,,,,,,,,,,,,,,,,,,,,,,,,,,,,,,,,,,,,,,,,,,,,,,,,,,,,,,,,,,,,,,,,,,,,,,,,,,,,,,,,,,,,,,,,,,,,
,,698e0c45e7907168d29d5b02,2026-03-17_09h09.30.955,kallum_motion_pilot_GIST_update_2,2026.1.1,Win32,59.52380952,698e0c45e7907168d29d5b02,69b95efdef24cd8a694e89ee,69b96079858224eeb6c56c77,0.0488,0.0488,1,16,178,4,1,threeone,,,,,,,,,,,,,,,,,,,,,,,,,,,,,,,,,,,,,,,,,,,,,,,,,,,,,,,,,,,,,,,,,,,,,,,,,,,,,,,,,,,,,,,,,,,,,,,,,,,,,,,,,,,,,,,,,,,,,,,,,,,,,,,,,,,,,,,,,
,,698e0c45e7907168d29d5b02,2026-03-17_09h09.30.955,kallum_motion_pilot_GIST_update_2,2026.1.1,Win32,59.52380952,698e0c45e7907168d29d5b02,69b95efdef24cd8a694e89ee,69b96079858224eeb6c56c77,0.0489,0.0489,1,17,179,90,1,sixfive,,,,,,,,,,,,,,,,,,,,,,,,,,,,,,,,,,,,,,,,,,,,,,,,,,,,,,,,,,,,,,,,,,,,,,,,,,,,,,,,,,,,,,,,,,,,,,,,,,,,,,,,,,,,,,,,,,,,,,,,,,,,,,,,,,,,,,,,,
,,698e0c45e7907168d29d5b02,2026-03-17_09h09.30.955,kallum_motion_pilot_GIST_update_2,2026.1.1,Win32,59.52380952,698e0c45e7907168d29d5b02,69b95efdef24cd8a694e89ee,69b96079858224eeb6c56c77,0.0489,0.049,1,18,180,130,1,sixfive,,,,,,,,,,,,,,,,,,,,,,,,,,,,,,,,,,,,,,,,,,,,,,,,,,,,,,,,,,,,,,,,,,,,,,,,,,,,,,,,,,,,,,,,,,,,,,,,,,,,,,,,,,,,,,,,,,,,,,,,,,,,,,,,,,,,,,,,,
,,698e0c45e7907168d29d5b02,2026-03-17_09h09.30.955,kallum_motion_pilot_GIST_update_2,2026.1.1,Win32,59.52380952,698e0c45e7907168d29d5b02,69b95efdef24cd8a694e89ee,69b96079858224eeb6c56c77,0.0491,0.0491,1,19,181,86,1,eightsix,,,,,,,,,,,,,,,,,,,,,,,,,,,,,,,,,,,,,,,,,,,,,,,,,,,,,,,,,,,,,,,,,,,,,,,,,,,,,,,,,,,,,,,,,,,,,,,,,,,,,,,,,,,,,,,,,,,,,,,,,,,,,,,,,,,,,,,,,
,,698e0c45e7907168d29d5b02,2026-03-17_09h09.30.955,kallum_motion_pilot_GIST_update_2,2026.1.1,Win32,59.52380952,698e0c45e7907168d29d5b02,69b95efdef24cd8a694e89ee,69b96079858224eeb6c56c77,0.0491,0.0491,1,20,182,77,1,threefour,,,,,,,,,,,,,,,,,,,,,,,,,,,,,,,,,,,,,,,,,,,,,,,,,,,,,,,,,,,,,,,,,,,,,,,,,,,,,,,,,,,,,,,,,,,,,,,,,,,,,,,,,,,,,,,,,,,,,,,,,,,,,,,,,,,,,,,,,
,,698e0c45e7907168d29d5b02,2026-03-17_09h09.30.955,kallum_motion_pilot_GIST_update_2,2026.1.1,Win32,59.52380952,698e0c45e7907168d29d5b02,69b95efdef24cd8a694e89ee,69b96079858224eeb6c56c77,0.0492,0.0492,1,21,183,42,1,twoone,,,,,,,,,,,,,,,,,,,,,,,,,,,,,,,,,,,,,,,,,,,,,,,,,,,,,,,,,,,,,,,,,,,,,,,,,,,,,,,,,,,,,,,,,,,,,,,,,,,,,,,,,,,,,,,,,,,,,,,,,,,,,,,,,,,,,,,,,
,,698e0c45e7907168d29d5b02,2026-03-17_09h09.30.955,kallum_motion_pilot_GIST_update_2,2026.1.1,Win32,59.52380952,698e0c45e7907168d29d5b02,69b95efdef24cd8a694e89ee,69b96079858224eeb6c56c77,0.0495,0.0495,1,22,184,104,1,fivesix,,,,,,,,,,,,,,,,,,,,,,,,,,,,,,,,,,,,,,,,,,,,,,,,,,,,,,,,,,,,,,,,,,,,,,,,,,,,,,,,,,,,,,,,,,,,,,,,,,,,,,,,,,,,,,,,,,,,,,,,,,,,,,,,,,,,,,,,,
,,698e0c45e7907168d29d5b02,2026-03-17_09h09.30.955,kallum_motion_pilot_GIST_update_2,2026.1.1,Win32,59.52380952,698e0c45e7907168d29d5b02,69b95efdef24cd8a694e89ee,69b96079858224eeb6c56c77,0.0496,0.0496,1,23,185,71,1,fourthree,,,,,,,,,,,,,,,,,,,,,,,,,,,,,,,,,,,,,,,,,,,,,,,,,,,,,,,,,,,,,,,,,,,,,,,,,,,,,,,,,,,,,,,,,,,,,,,,,,,,,,,,,,,,,,,,,,,,,,,,,,,,,,,,,,,,,,,,,
,,698e0c45e7907168d29d5b02,2026-03-17_09h09.30.955,kallum_motion_pilot_GIST_update_2,2026.1.1,Win32,59.52380952,698e0c45e7907168d29d5b02,69b95efdef24cd8a694e89ee,69b96079858224eeb6c56c77,0.0496,0.0496,1,24,186,74,1,twoone,,,,,,,,,,,,,,,,,,,,,,,,,,,,,,,,,,,,,,,,,,,,,,,,,,,,,,,,,,,,,,,,,,,,,,,,,,,,,,,,,,,,,,,,,,,,,,,,,,,,,,,,,,,,,,,,,,,,,,,,,,,,,,,,,,,,,,,,,
,,698e0c45e7907168d29d5b02,2026-03-17_09h09.30.955,kallum_motion_pilot_GIST_update_2,2026.1.1,Win32,59.52380952,698e0c45e7907168d29d5b02,69b95efdef24cd8a694e89ee,69b96079858224eeb6c56c77,0.0499,0.0499,1,25,187,52,1,threeone,,,,,,,,,,,,,,,,,,,,,,,,,,,,,,,,,,,,,,,,,,,,,,,,,,,,,,,,,,,,,,,,,,,,,,,,,,,,,,,,,,,,,,,,,,,,,,,,,,,,,,,,,,,,,,,,,,,,,,,,,,,,,,,,,,,,,,,,,
,,698e0c45e7907168d29d5b02,2026-03-17_09h09.30.955,kallum_motion_pilot_GIST_update_2,2026.1.1,Win32,59.52380952,698e0c45e7907168d29d5b02,69b95efdef24cd8a694e89ee,69b96079858224eeb6c56c77,0.0501,0.0501,1,26,188,94,1,eightsix,,,,,,,,,,,,,,,,,,,,,,,,,,,,,,,,,,,,,,,,,,,,,,,,,,,,,,,,,,,,,,,,,,,,,,,,,,,,,,,,,,,,,,,,,,,,,,,,,,,,,,,,,,,,,,,,,,,,,,,,,,,,,,,,,,,,,,,,,
,,698e0c45e7907168d29d5b02,2026-03-17_09h09.30.955,kallum_motion_pilot_GIST_update_2,2026.1.1,Win32,59.52380952,698e0c45e7907168d29d5b02,69b95efdef24cd8a694e89ee,69b96079858224eeb6c56c77,0.0501,0.0501,1,27,189,0,1,onetwo,,,,,,,,,,,,,,,,,,,,,,,,,,,,,,,,,,,,,,,,,,,,,,,,,,,,,,,,,,,,,,,,,,,,,,,,,,,,,,,,,,,,,,,,,,,,,,,,,,,,,,,,,,,,,,,,,,,,,,,,,,,,,,,,,,,,,,,,,
,,698e0c45e7907168d29d5b02,2026-03-17_09h09.30.955,kallum_motion_pilot_GIST_update_2,2026.1.1,Win32,59.52380952,698e0c45e7907168d29d5b02,69b95efdef24cd8a694e89ee,69b96079858224eeb6c56c77,0.0504,0.0504,1,28,190,51,1,twofour,,,,,,,,,,,,,,,,,,,,,,,,,,,,,,,,,,,,,,,,,,,,,,,,,,,,,,,,,,,,,,,,,,,,,,,,,,,,,,,,,,,,,,,,,,,,,,,,,,,,,,,,,,,,,,,,,,,,,,,,,,,,,,,,,,,,,,,,,
,,698e0c45e7907168d29d5b02,2026-03-17_09h09.30.955,kallum_motion_pilot_GIST_update_2,2026.1.1,Win32,59.52380952,698e0c45e7907168d29d5b02,69b95efdef24cd8a694e89ee,69b96079858224eeb6c56c77,0.0505,0.0505,1,29,191,101,1,seveneight,,,,,,,,,,,,,,,,,,,,,,,,,,,,,,,,,,,,,,,,,,,,,,,,,,,,,,,,,,,,,,,,,,,,,,,,,,,,,,,,,,,,,,,,,,,,,,,,,,,,,,,,,,,,,,,,,,,,,,,,,,,,,,,,,,,,,,,,,
,,698e0c45e7907168d29d5b02,2026-03-17_09h09.30.955,kallum_motion_pilot_GIST_update_2,2026.1.1,Win32,59.52380952,698e0c45e7907168d29d5b02,69b95efdef24cd8a694e89ee,69b96079858224eeb6c56c77,0.0506,0.0506,1,30,192,14,1,fourtwo,,,,,,,,,,,,,,,,,,,,,,,,,,,,,,,,,,,,,,,,,,,,,,,,,,,,,,,,,,,,,,,,,,,,,,,,,,,,,,,,,,,,,,,,,,,,,,,,,,,,,,,,,,,,,,,,,,,,,,,,,,,,,,,,,,,,,,,,,
,,698e0c45e7907168d29d5b02,2026-03-17_09h09.30.955,kallum_motion_pilot_GIST_update_2,2026.1.1,Win32,59.52380952,698e0c45e7907168d29d5b02,69b95efdef24cd8a694e89ee,69b96079858224eeb6c56c77,0.0507,0.0508,1,31,193,133,1,seveneight,,,,,,,,,,,,,,,,,,,,,,,,,,,,,,,,,,,,,,,,,,,,,,,,,,,,,,,,,,,,,,,,,,,,,,,,,,,,,,,,,,,,,,,,,,,,,,,,,,,,,,,,,,,,,,,,,,,,,,,,,,,,,,,,,,,,,,,,,
,,698e0c45e7907168d29d5b02,2026-03-17_09h09.30.955,kallum_motion_pilot_GIST_update_2,2026.1.1,Win32,59.52380952,698e0c45e7907168d29d5b02,69b95efdef24cd8a694e89ee,69b96079858224eeb6c56c77,0.051,0.051,1,32,194,141,1,seveneight,,,,,,,,,,,,,,,,,,,,,,,,,,,,,,,,,,,,,,,,,,,,,,,,,,,,,,,,,,,,,,,,,,,,,,,,,,,,,,,,,,,,,,,,,,,,,,,,,,,,,,,,,,,,,,,,,,,,,,,,,,,,,,,,,,,,,,,,,
,,698e0c45e7907168d29d5b02,2026-03-17_09h09.30.955,kallum_motion_pilot_GIST_update_2,2026.1.1,Win32,59.52380952,698e0c45e7907168d29d5b02,69b95efdef24cd8a694e89ee,69b96079858224eeb6c56c77,0.0511,0.0511,1,33,195,123,1,sixeight,,,,,,,,,,,,,,,,,,,,,,,,,,,,,,,,,,,,,,,,,,,,,,,,,,,,,,,,,,,,,,,,,,,,,,,,,,,,,,,,,,,,,,,,,,,,,,,,,,,,,,,,,,,,,,,,,,,,,,,,,,,,,,,,,,,,,,,,,
,,698e0c45e7907168d29d5b02,2026-03-17_09h09.30.955,kallum_motion_pilot_GIST_update_2,2026.1.1,Win32,59.52380952,698e0c45e7907168d29d5b02,69b95efdef24cd8a694e89ee,69b96079858224eeb6c56c77,0.0512,0.0512,1,34,196,49,1,onethree,,,,,,,,,,,,,,,,,,,,,,,,,,,,,,,,,,,,,,,,,,,,,,,,,,,,,,,,,,,,,,,,,,,,,,,,,,,,,,,,,,,,,,,,,,,,,,,,,,,,,,,,,,,,,,,,,,,,,,,,,,,,,,,,,,,,,,,,,
,,698e0c45e7907168d29d5b02,2026-03-17_09h09.30.955,kallum_motion_pilot_GIST_update_2,2026.1.1,Win32,59.52380952,698e0c45e7907168d29d5b02,69b95efdef24cd8a694e89ee,69b96079858224eeb6c56c77,0.0513,0.0513,1,35,197,21,1,threefour,,,,,,,,,,,,,,,,,,,,,,,,,,,,,,,,,,,,,,,,,,,,,,,,,,,,,,,,,,,,,,,,,,,,,,,,,,,,,,,,,,,,,,,,,,,,,,,,,,,,,,,,,,,,,,,,,,,,,,,,,,,,,,,,,,,,,,,,,
,,698e0c45e7907168d29d5b02,2026-03-17_09h09.30.955,kallum_motion_pilot_GIST_update_2,2026.1.1,Win32,59.52380952,698e0c45e7907168d29d5b02,69b95efdef24cd8a694e89ee,69b96079858224eeb6c56c77,0.0514,0.0514,1,36,198,98,1,sixfive,,,,,,,,,,,,,,,,,,,,,,,,,,,,,,,,,,,,,,,,,,,,,,,,,,,,,,,,,,,,,,,,,,,,,,,,,,,,,,,,,,,,,,,,,,,,,,,,,,,,,,,,,,,,,,,,,,,,,,,,,,,,,,,,,,,,,,,,,
,,698e0c45e7907168d29d5b02,2026-03-17_09h09.30.955,kallum_motion_pilot_GIST_update_2,2026.1.1,Win32,59.52380952,698e0c45e7907168d29d5b02,69b95efdef24cd8a694e89ee,69b96079858224eeb6c56c77,0.0515,0.0516,1,37,199,109,1,seveneight,,,,,,,,,,,,,,,,,,,,,,,,,,,,,,,,,,,,,,,,,,,,,,,,,,,,,,,,,,,,,,,,,,,,,,,,,,,,,,,,,,,,,,,,,,,,,,,,,,,,,,,,,,,,,,,,,,,,,,,,,,,,,,,,,,,,,,,,,
,,698e0c45e7907168d29d5b02,2026-03-17_09h09.30.955,kallum_motion_pilot_GIST_update_2,2026.1.1,Win32,59.52380952,698e0c45e7907168d29d5b02,69b95efdef24cd8a694e89ee,69b96079858224eeb6c56c77,0.0517,0.0517,1,38,200,127,1,eightseven,,,,,,,,,,,,,,,,,,,,,,,,,,,,,,,,,,,,,,,,,,,,,,,,,,,,,,,,,,,,,,,,,,,,,,,,,,,,,,,,,,,,,,,,,,,,,,,,,,,,,,,,,,,,,,,,,,,,,,,,,,,,,,,,,,,,,,,,,
,,698e0c45e7907168d29d5b02,2026-03-17_09h09.30.955,kallum_motion_pilot_GIST_update_2,2026.1.1,Win32,59.52380952,698e0c45e7907168d29d5b02,69b95efdef24cd8a694e89ee,69b96079858224eeb6c56c77,0.052,0.052,1,39,201,143,1,eightseven,,,,,,,,,,,,,,,,,,,,,,,,,,,,,,,,,,,,,,,,,,,,,,,,,,,,,,,,,,,,,,,,,,,,,,,,,,,,,,,,,,,,,,,,,,,,,,,,,,,,,,,,,,,,,,,,,,,,,,,,,,,,,,,,,,,,,,,,,
,,698e0c45e7907168d29d5b02,2026-03-17_09h09.30.955,kallum_motion_pilot_GIST_update_2,2026.1.1,Win32,59.52380952,698e0c45e7907168d29d5b02,69b95efdef24cd8a694e89ee,69b96079858224eeb6c56c77,0.0522,0.0522,1,40,202,79,1,eightseven,,,,,,,,,,,,,,,,,,,,,,,,,,,,,,,,,,,,,,,,,,,,,,,,,,,,,,,,,,,,,,,,,,,,,,,,,,,,,,,,,,,,,,,,,,,,,,,,,,,,,,,,,,,,,,,,,,,,,,,,,,,,,,,,,,,,,,,,,
,,698e0c45e7907168d29d5b02,2026-03-17_09h09.30.955,kallum_motion_pilot_GIST_update_2,2026.1.1,Win32,59.52380952,698e0c45e7907168d29d5b02,69b95efdef24cd8a694e89ee,69b96079858224eeb6c56c77,0.0523,0.0523,1,41,203,110,1,eightsix,,,,,,,,,,,,,,,,,,,,,,,,,,,,,,,,,,,,,,,,,,,,,,,,,,,,,,,,,,,,,,,,,,,,,,,,,,,,,,,,,,,,,,,,,,,,,,,,,,,,,,,,,,,,,,,,,,,,,,,,,,,,,,,,,,,,,,,,,
,,698e0c45e7907168d29d5b02,2026-03-17_09h09.30.955,kallum_motion_pilot_GIST_update_2,2026.1.1,Win32,59.52380952,698e0c45e7907168d29d5b02,69b95efdef24cd8a694e89ee,69b96079858224eeb6c56c77,0.0524,0.0524,1,42,204,100,1,sevenfive,,,,,,,,,,,,,,,,,,,,,,,,,,,,,,,,,,,,,,,,,,,,,,,,,,,,,,,,,,,,,,,,,,,,,,,,,,,,,,,,,,,,,,,,,,,,,,,,,,,,,,,,,,,,,,,,,,,,,,,,,,,,,,,,,,,,,,,,,
,,698e0c45e7907168d29d5b02,2026-03-17_09h09.30.955,kallum_motion_pilot_GIST_update_2,2026.1.1,Win32,59.52380952,698e0c45e7907168d29d5b02,69b95efdef24cd8a694e89ee,69b96079858224eeb6c56c77,0.0525,0.0525,1,43,205,13,1,threefour,,,,,,,,,,,,,,,,,,,,,,,,,,,,,,,,,,,,,,,,,,,,,,,,,,,,,,,,,,,,,,,,,,,,,,,,,,,,,,,,,,,,,,,,,,,,,,,,,,,,,,,,,,,,,,,,,,,,,,,,,,,,,,,,,,,,,,,,,
,,698e0c45e7907168d29d5b02,2026-03-17_09h09.30.955,kallum_motion_pilot_GIST_update_2,2026.1.1,Win32,59.52380952,698e0c45e7907168d29d5b02,69b95efdef24cd8a694e89ee,69b96079858224eeb6c56c77,0.0527,0.0527,1,44,206,152,1,fivesix,,,,,,,,,,,,,,,,,,,,,,,,,,,,,,,,,,,,,,,,,,,,,,,,,,,,,,,,,,,,,,,,,,,,,,,,,,,,,,,,,,,,,,,,,,,,,,,,,,,,,,,,,,,,,,,,,,,,,,,,,,,,,,,,,,,,,,,,,
,,698e0c45e7907168d29d5b02,2026-03-17_09h09.30.955,kallum_motion_pilot_GIST_update_2,2026.1.1,Win32,59.52380952,698e0c45e7907168d29d5b02,69b95efdef24cd8a694e89ee,69b96079858224eeb6c56c77,0.0529,0.0529,1,45,207,20,1,threeone,,,,,,,,,,,,,,,,,,,,,,,,,,,,,,,,,,,,,,,,,,,,,,,,,,,,,,,,,,,,,,,,,,,,,,,,,,,,,,,,,,,,,,,,,,,,,,,,,,,,,,,,,,,,,,,,,,,,,,,,,,,,,,,,,,,,,,,,,
,,698e0c45e7907168d29d5b02,2026-03-17_09h09.30.955,kallum_motion_pilot_GIST_update_2,2026.1.1,Win32,59.52380952,698e0c45e7907168d29d5b02,69b95efdef24cd8a694e89ee,69b96079858224eeb6c56c77,0.0531,0.0531,1,46,208,122,1,sixfive,,,,,,,,,,,,,,,,,,,,,,,,,,,,,,,,,,,,,,,,,,,,,,,,,,,,,,,,,,,,,,,,,,,,,,,,,,,,,,,,,,,,,,,,,,,,,,,,,,,,,,,,,,,,,,,,,,,,,,,,,,,,,,,,,,,,,,,,,
,,698e0c45e7907168d29d5b02,2026-03-17_09h09.30.955,kallum_motion_pilot_GIST_update_2,2026.1.1,Win32,59.52380952,698e0c45e7907168d29d5b02,69b95efdef24cd8a694e89ee,69b96079858224eeb6c56c77,0.0534,0.0534,1,47,209,24,1,onetwo,,,,,,,,,,,,,,,,,,,,,,,,,,,,,,,,,,,,,,,,,,,,,,,,,,,,,,,,,,,,,,,,,,,,,,,,,,,,,,,,,,,,,,,,,,,,,,,,,,,,,,,,,,,,,,,,,,,,,,,,,,,,,,,,,,,,,,,,,
,,698e0c45e7907168d29d5b02,2026-03-17_09h09.30.955,kallum_motion_pilot_GIST_update_2,2026.1.1,Win32,59.52380952,698e0c45e7907168d29d5b02,69b95efdef24cd8a694e89ee,69b96079858224eeb6c56c77,0.0535,0.0535,1,48,210,19,1,twofour,,,,,,,,,,,,,,,,,,,,,,,,,,,,,,,,,,,,,,,,,,,,,,,,,,,,,,,,,,,,,,,,,,,,,,,,,,,,,,,,,,,,,,,,,,,,,,,,,,,,,,,,,,,,,,,,,,,,,,,,,,,,,,,,,,,,,,,,,
,,698e0c45e7907168d29d5b02,2026-03-17_09h09.30.955,kallum_motion_pilot_GIST_update_2,2026.1.1,Win32,59.52380952,698e0c45e7907168d29d5b02,69b95efdef24cd8a694e89ee,69b96079858224eeb6c56c77,0.0537,0.0537,1,49,211,106,1,sixfive,,,,,,,,,,,,,,,,,,,,,,,,,,,,,,,,,,,,,,,,,,,,,,,,,,,,,,,,,,,,,,,,,,,,,,,,,,,,,,,,,,,,,,,,,,,,,,,,,,,,,,,,,,,,,,,,,,,,,,,,,,,,,,,,,,,,,,,,,
,,698e0c45e7907168d29d5b02,2026-03-17_09h09.30.955,kallum_motion_pilot_GIST_update_2,2026.1.1,Win32,59.52380952,698e0c45e7907168d29d5b02,69b95efdef24cd8a694e89ee,69b96079858224eeb6c56c77,0.0539,0.0539,1,50,212,60,1,threeone,,,,,,,,,,,,,,,,,,,,,,,,,,,,,,,,,,,,,,,,,,,,,,,,,,,,,,,,,,,,,,,,,,,,,,,,,,,,,,,,,,,,,,,,,,,,,,,,,,,,,,,,,,,,,,,,,,,,,,,,,,,,,,,,,,,,,,,,,
,,698e0c45e7907168d29d5b02,2026-03-17_09h09.30.955,kallum_motion_pilot_GIST_update_2,2026.1.1,Win32,59.52380952,698e0c45e7907168d29d5b02,69b95efdef24cd8a694e89ee,69b96079858224eeb6c56c77,0.054,0.0541,1,51,213,38,1,fourtwo,,,,,,,,,,,,,,,,,,,,,,,,,,,,,,,,,,,,,,,,,,,,,,,,,,,,,,,,,,,,,,,,,,,,,,,,,,,,,,,,,,,,,,,,,,,,,,,,,,,,,,,,,,,,,,,,,,,,,,,,,,,,,,,,,,,,,,,,,
,,698e0c45e7907168d29d5b02,2026-03-17_09h09.30.955,kallum_motion_pilot_GIST_update_2,2026.1.1,Win32,59.52380952,698e0c45e7907168d29d5b02,69b95efdef24cd8a694e89ee,69b96079858224eeb6c56c77,0.0542,0.0542,1,52,214,102,1,eightsix,,,,,,,,,,,,,,,,,,,,,,,,,,,,,,,,,,,,,,,,,,,,,,,,,,,,,,,,,,,,,,,,,,,,,,,,,,,,,,,,,,,,,,,,,,,,,,,,,,,,,,,,,,,,,,,,,,,,,,,,,,,,,,,,,,,,,,,,,
,,698e0c45e7907168d29d5b02,2026-03-17_09h09.30.955,kallum_motion_pilot_GIST_update_2,2026.1.1,Win32,59.52380952,698e0c45e7907168d29d5b02,69b95efdef24cd8a694e89ee,69b96079858224eeb6c56c77,0.0544,0.0544,1,53,215,33,1,onethree,,,,,,,,,,,,,,,,,,,,,,,,,,,,,,,,,,,,,,,,,,,,,,,,,,,,,,,,,,,,,,,,,,,,,,,,,,,,,,,,,,,,,,,,,,,,,,,,,,,,,,,,,,,,,,,,,,,,,,,,,,,,,,,,,,,,,,,,,
,,698e0c45e7907168d29d5b02,2026-03-17_09h09.30.955,kallum_motion_pilot_GIST_update_2,2026.1.1,Win32,59.52380952,698e0c45e7907168d29d5b02,69b95efdef24cd8a694e89ee,69b96079858224eeb6c56c77,0.0545,0.0545,1,54,216,140,1,sevenfive,,,,,,,,,,,,,,,,,,,,,,,,,,,,,,,,,,,,,,,,,,,,,,,,,,,,,,,,,,,,,,,,,,,,,,,,,,,,,,,,,,,,,,,,,,,,,,,,,,,,,,,,,,,,,,,,,,,,,,,,,,,,,,,,,,,,,,,,,
,,698e0c45e7907168d29d5b02,2026-03-17_09h09.30.955,kallum_motion_pilot_GIST_update_2,2026.1.1,Win32,59.52380952,698e0c45e7907168d29d5b02,69b95efdef24cd8a694e89ee,69b96079858224eeb6c56c77,0.0547,0.0547,1,55,217,145,1,fiveseven,,,,,,,,,,,,,,,,,,,,,,,,,,,,,,,,,,,,,,,,,,,,,,,,,,,,,,,,,,,,,,,,,,,,,,,,,,,,,,,,,,,,,,,,,,,,,,,,,,,,,,,,,,,,,,,,,,,,,,,,,,,,,,,,,,,,,,,,,
,,698e0c45e7907168d29d5b02,2026-03-17_09h09.30.955,kallum_motion_pilot_GIST_update_2,2026.1.1,Win32,59.52380952,698e0c45e7907168d29d5b02,69b95efdef24cd8a694e89ee,69b96079858224eeb6c56c77,0.055,0.055,1,56,218,95,1,eightseven,,,,,,,,,,,,,,,,,,,,,,,,,,,,,,,,,,,,,,,,,,,,,,,,,,,,,,,,,,,,,,,,,,,,,,,,,,,,,,,,,,,,,,,,,,,,,,,,,,,,,,,,,,,,,,,,,,,,,,,,,,,,,,,,,,,,,,,,,
,,698e0c45e7907168d29d5b02,2026-03-17_09h09.30.955,kallum_motion_pilot_GIST_update_2,2026.1.1,Win32,59.52380952,698e0c45e7907168d29d5b02,69b95efdef24cd8a694e89ee,69b96079858224eeb6c56c77,0.0552,0.0552,1,57,219,125,1,seveneight,,,,,,,,,,,,,,,,,,,,,,,,,,,,,,,,,,,,,,,,,,,,,,,,,,,,,,,,,,,,,,,,,,,,,,,,,,,,,,,,,,,,,,,,,,,,,,,,,,,,,,,,,,,,,,,,,,,,,,,,,,,,,,,,,,,,,,,,,
,,698e0c45e7907168d29d5b02,2026-03-17_09h09.30.955,kallum_motion_pilot_GIST_update_2,2026.1.1,Win32,59.52380952,698e0c45e7907168d29d5b02,69b95efdef24cd8a694e89ee,69b96079858224eeb6c56c77,0.0554,0.0554,1,58,220,82,1,sixfive,,,,,,,,,,,,,,,,,,,,,,,,,,,,,,,,,,,,,,,,,,,,,,,,,,,,,,,,,,,,,,,,,,,,,,,,,,,,,,,,,,,,,,,,,,,,,,,,,,,,,,,,,,,,,,,,,,,,,,,,,,,,,,,,,,,,,,,,,
,,698e0c45e7907168d29d5b02,2026-03-17_09h09.30.955,kallum_motion_pilot_GIST_update_2,2026.1.1,Win32,59.52380952,698e0c45e7907168d29d5b02,69b95efdef24cd8a694e89ee,69b96079858224eeb6c56c77,0.0556,0.0556,1,59,221,23,1,fourthree,,,,,,,,,,,,,,,,,,,,,,,,,,,,,,,,,,,,,,,,,,,,,,,,,,,,,,,,,,,,,,,,,,,,,,,,,,,,,,,,,,,,,,,,,,,,,,,,,,,,,,,,,,,,,,,,,,,,,,,,,,,,,,,,,,,,,,,,,
,,698e0c45e7907168d29d5b02,2026-03-17_09h09.30.955,kallum_motion_pilot_GIST_update_2,2026.1.1,Win32,59.52380952,698e0c45e7907168d29d5b02,69b95efdef24cd8a694e89ee,69b96079858224eeb6c56c77,0.0557,0.0557,1,60,222,107,1,sixeight,,,,,,,,,,,,,,,,,,,,,,,,,,,,,,,,,,,,,,,,,,,,,,,,,,,,,,,,,,,,,,,,,,,,,,,,,,,,,,,,,,,,,,,,,,,,,,,,,,,,,,,,,,,,,,,,,,,,,,,,,,,,,,,,,,,,,,,,,
,,698e0c45e7907168d29d5b02,2026-03-17_09h09.30.955,kallum_motion_pilot_GIST_update_2,2026.1.1,Win32,59.52380952,698e0c45e7907168d29d5b02,69b95efdef24cd8a694e89ee,69b96079858224eeb6c56c77,0.0558,0.0558,1,61,223,67,1,twofour,,,,,,,,,,,,,,,,,,,,,,,,,,,,,,,,,,,,,,,,,,,,,,,,,,,,,,,,,,,,,,,,,,,,,,,,,,,,,,,,,,,,,,,,,,,,,,,,,,,,,,,,,,,,,,,,,,,,,,,,,,,,,,,,,,,,,,,,,
,,698e0c45e7907168d29d5b02,2026-03-17_09h09.30.955,kallum_motion_pilot_GIST_update_2,2026.1.1,Win32,59.52380952,698e0c45e7907168d29d5b02,69b95efdef24cd8a694e89ee,69b96079858224eeb6c56c77,0.056,0.056,1,62,224,53,1,threefour,,,,,,,,,,,,,,,,,,,,,,,,,,,,,,,,,,,,,,,,,,,,,,,,,,,,,,,,,,,,,,,,,,,,,,,,,,,,,,,,,,,,,,,,,,,,,,,,,,,,,,,,,,,,,,,,,,,,,,,,,,,,,,,,,,,,,,,,,
,,698e0c45e7907168d29d5b02,2026-03-17_09h09.30.955,kallum_motion_pilot_GIST_update_2,2026.1.1,Win32,59.52380952,698e0c45e7907168d29d5b02,69b95efdef24cd8a694e89ee,69b96079858224eeb6c56c77,0.0561,0.0561,1,63,225,150,1,eightsix,,,,,,,,,,,,,,,,,,,,,,,,,,,,,,,,,,,,,,,,,,,,,,,,,,,,,,,,,,,,,,,,,,,,,,,,,,,,,,,,,,,,,,,,,,,,,,,,,,,,,,,,,,,,,,,,,,,,,,,,,,,,,,,,,,,,,,,,,
,,698e0c45e7907168d29d5b02,2026-03-17_09h09.30.955,kallum_motion_pilot_GIST_update_2,2026.1.1,Win32,59.52380952,698e0c45e7907168d29d5b02,69b95efdef24cd8a694e89ee,69b96079858224eeb6c56c77,0.0562,0.0562,1,64,226,48,1,onetwo,,,,,,,,,,,,,,,,,,,,,,,,,,,,,,,,,,,,,,,,,,,,,,,,,,,,,,,,,,,,,,,,,,,,,,,,,,,,,,,,,,,,,,,,,,,,,,,,,,,,,,,,,,,,,,,,,,,,,,,,,,,,,,,,,,,,,,,,,
,,698e0c45e7907168d29d5b02,2026-03-17_09h09.30.955,kallum_motion_pilot_GIST_update_2,2026.1.1,Win32,59.52380952,698e0c45e7907168d29d5b02,69b95efdef24cd8a694e89ee,69b96079858224eeb6c56c77,0.0563,0.0563,1,65,227,63,1,fourthree,,,,,,,,,,,,,,,,,,,,,,,,,,,,,,,,,,,,,,,,,,,,,,,,,,,,,,,,,,,,,,,,,,,,,,,,,,,,,,,,,,,,,,,,,,,,,,,,,,,,,,,,,,,,,,,,,,,,,,,,,,,,,,,,,,,,,,,,,
,,698e0c45e7907168d29d5b02,2026-03-17_09h09.30.955,kallum_motion_pilot_GIST_update_2,2026.1.1,Win32,59.52380952,698e0c45e7907168d29d5b02,69b95efdef24cd8a694e89ee,69b96079858224eeb6c56c77,0.0565,0.0565,1,66,228,80,1,fivesix,,,,,,,,,,,,,,,,,,,,,,,,,,,,,,,,,,,,,,,,,,,,,,,,,,,,,,,,,,,,,,,,,,,,,,,,,,,,,,,,,,,,,,,,,,,,,,,,,,,,,,,,,,,,,,,,,,,,,,,,,,,,,,,,,,,,,,,,,
,,698e0c45e7907168d29d5b02,2026-03-17_09h09.30.955,kallum_motion_pilot_GIST_update_2,2026.1.1,Win32,59.52380952,698e0c45e7907168d29d5b02,69b95efdef24cd8a694e89ee,69b96079858224eeb6c56c77,0.0565,0.0565,1,67,229,155,1,sixeight,,,,,,,,,,,,,,,,,,,,,,,,,,,,,,,,,,,,,,,,,,,,,,,,,,,,,,,,,,,,,,,,,,,,,,,,,,,,,,,,,,,,,,,,,,,,,,,,,,,,,,,,,,,,,,,,,,,,,,,,,,,,,,,,,,,,,,,,,
,,698e0c45e7907168d29d5b02,2026-03-17_09h09.30.955,kallum_motion_pilot_GIST_update_2,2026.1.1,Win32,59.52380952,698e0c45e7907168d29d5b02,69b95efdef24cd8a694e89ee,69b96079858224eeb6c56c77,0.0566,0.0566,1,68,230,108,1,sevenfive,,,,,,,,,,,,,,,,,,,,,,,,,,,,,,,,,,,,,,,,,,,,,,,,,,,,,,,,,,,,,,,,,,,,,,,,,,,,,,,,,,,,,,,,,,,,,,,,,,,,,,,,,,,,,,,,,,,,,,,,,,,,,,,,,,,,,,,,,
,,698e0c45e7907168d29d5b02,2026-03-17_09h09.30.955,kallum_motion_pilot_GIST_update_2,2026.1.1,Win32,59.52380952,698e0c45e7907168d29d5b02,69b95efdef24cd8a694e89ee,69b96079858224eeb6c56c77,0.0568,0.0568,1,69,231,26,1,twoone,,,,,,,,,,,,,,,,,,,,,,,,,,,,,,,,,,,,,,,,,,,,,,,,,,,,,,,,,,,,,,,,,,,,,,,,,,,,,,,,,,,,,,,,,,,,,,,,,,,,,,,,,,,,,,,,,,,,,,,,,,,,,,,,,,,,,,,,,
,,698e0c45e7907168d29d5b02,2026-03-17_09h09.30.955,kallum_motion_pilot_GIST_update_2,2026.1.1,Win32,59.52380952,698e0c45e7907168d29d5b02,69b95efdef24cd8a694e89ee,69b96079858224eeb6c56c77,0.0569,0.0569,1,70,232,156,1,sevenfive,,,,,,,,,,,,,,,,,,,,,,,,,,,,,,,,,,,,,,,,,,,,,,,,,,,,,,,,,,,,,,,,,,,,,,,,,,,,,,,,,,,,,,,,,,,,,,,,,,,,,,,,,,,,,,,,,,,,,,,,,,,,,,,,,,,,,,,,,
,,698e0c45e7907168d29d5b02,2026-03-17_09h09.30.955,kallum_motion_pilot_GIST_update_2,2026.1.1,Win32,59.52380952,698e0c45e7907168d29d5b02,69b95efdef24cd8a694e89ee,69b96079858224eeb6c56c77,0.057,0.0571,1,71,233,146,1,sixfive,,,,,,,,,,,,,,,,,,,,,,,,,,,,,,,,,,,,,,,,,,,,,,,,,,,,,,,,,,,,,,,,,,,,,,,,,,,,,,,,,,,,,,,,,,,,,,,,,,,,,,,,,,,,,,,,,,,,,,,,,,,,,,,,,,,,,,,,,
,,698e0c45e7907168d29d5b02,2026-03-17_09h09.30.955,kallum_motion_pilot_GIST_update_2,2026.1.1,Win32,59.52380952,698e0c45e7907168d29d5b02,69b95efdef24cd8a694e89ee,69b96079858224eeb6c56c77,0.0571,0.0571,1,72,234,87,1,eightseven,,,,,,,,,,,,,,,,,,,,,,,,,,,,,,,,,,,,,,,,,,,,,,,,,,,,,,,,,,,,,,,,,,,,,,,,,,,,,,,,,,,,,,,,,,,,,,,,,,,,,,,,,,,,,,,,,,,,,,,,,,,,,,,,,,,,,,,,,
,,698e0c45e7907168d29d5b02,2026-03-17_09h09.30.955,kallum_motion_pilot_GIST_update_2,2026.1.1,Win32,59.52380952,698e0c45e7907168d29d5b02,69b95efdef24cd8a694e89ee,69b96079858224eeb6c56c77,0.0573,0.0573,1,73,235,45,1,threefour,,,,,,,,,,,,,,,,,,,,,,,,,,,,,,,,,,,,,,,,,,,,,,,,,,,,,,,,,,,,,,,,,,,,,,,,,,,,,,,,,,,,,,,,,,,,,,,,,,,,,,,,,,,,,,,,,,,,,,,,,,,,,,,,,,,,,,,,,
,,698e0c45e7907168d29d5b02,2026-03-17_09h09.30.955,kallum_motion_pilot_GIST_update_2,2026.1.1,Win32,59.52380952,698e0c45e7907168d29d5b02,69b95efdef24cd8a694e89ee,69b96079858224eeb6c56c77,0.0574,0.0574,1,74,236,103,1,eightseven,,,,,,,,,,,,,,,,,,,,,,,,,,,,,,,,,,,,,,,,,,,,,,,,,,,,,,,,,,,,,,,,,,,,,,,,,,,,,,,,,,,,,,,,,,,,,,,,,,,,,,,,,,,,,,,,,,,,,,,,,,,,,,,,,,,,,,,,,
,,698e0c45e7907168d29d5b02,2026-03-17_09h09.30.955,kallum_motion_pilot_GIST_update_2,2026.1.1,Win32,59.52380952,698e0c45e7907168d29d5b02,69b95efdef24cd8a694e89ee,69b96079858224eeb6c56c77,0.0575,0.0575,1,75,237,114,1,sixfive,,,,,,,,,,,,,,,,,,,,,,,,,,,,,,,,,,,,,,,,,,,,,,,,,,,,,,,,,,,,,,,,,,,,,,,,,,,,,,,,,,,,,,,,,,,,,,,,,,,,,,,,,,,,,,,,,,,,,,,,,,,,,,,,,,,,,,,,,
,,698e0c45e7907168d29d5b02,2026-03-17_09h09.30.955,kallum_motion_pilot_GIST_update_2,2026.1.1,Win32,59.52380952,698e0c45e7907168d29d5b02,69b95efdef24cd8a694e89ee,69b96079858224eeb6c56c77,0.0576,0.0576,1,76,238,149,1,seveneight,,,,,,,,,,,,,,,,,,,,,,,,,,,,,,,,,,,,,,,,,,,,,,,,,,,,,,,,,,,,,,,,,,,,,,,,,,,,,,,,,,,,,,,,,,,,,,,,,,,,,,,,,,,,,,,,,,,,,,,,,,,,,,,,,,,,,,,,,
,,698e0c45e7907168d29d5b02,2026-03-17_09h09.30.955,kallum_motion_pilot_GIST_update_2,2026.1.1,Win32,59.52380952,698e0c45e7907168d29d5b02,69b95efdef24cd8a694e89ee,69b96079858224eeb6c56c77,0.0577,0.0577,1,77,239,76,1,threeone,,,,,,,,,,,,,,,,,,,,,,,,,,,,,,,,,,,,,,,,,,,,,,,,,,,,,,,,,,,,,,,,,,,,,,,,,,,,,,,,,,,,,,,,,,,,,,,,,,,,,,,,,,,,,,,,,,,,,,,,,,,,,,,,,,,,,,,,,
,,698e0c45e7907168d29d5b02,2026-03-17_09h09.30.955,kallum_motion_pilot_GIST_update_2,2026.1.1,Win32,59.52380952,698e0c45e7907168d29d5b02,69b95efdef24cd8a694e89ee,69b96079858224eeb6c56c77,0.0578,0.0578,1,78,240,88,1,fivesix,,,,,,,,,,,,,,,,,,,,,,,,,,,,,,,,,,,,,,,,,,,,,,,,,,,,,,,,,,,,,,,,,,,,,,,,,,,,,,,,,,,,,,,,,,,,,,,,,,,,,,,,,,,,,,,,,,,,,,,,,,,,,,,,,,,,,,,,,
,,698e0c45e7907168d29d5b02,2026-03-17_09h09.30.955,kallum_motion_pilot_GIST_update_2,2026.1.1,Win32,59.52380952,698e0c45e7907168d29d5b02,69b95efdef24cd8a694e89ee,69b96079858224eeb6c56c77,0.0579,0.0579,1,79,241,11,1,twofour,,,,,,,,,,,,,,,,,,,,,,,,,,,,,,,,,,,,,,,,,,,,,,,,,,,,,,,,,,,,,,,,,,,,,,,,,,,,,,,,,,,,,,,,,,,,,,,,,,,,,,,,,,,,,,,,,,,,,,,,,,,,,,,,,,,,,,,,,
,,698e0c45e7907168d29d5b02,2026-03-17_09h09.30.955,kallum_motion_pilot_GIST_update_2,2026.1.1,Win32,59.52380952,698e0c45e7907168d29d5b02,69b95efdef24cd8a694e89ee,69b96079858224eeb6c56c77,0.0581,0.0581,1,80,242,5,1,threefour,,,,,,,,,,,,,,,,,,,,,,,,,,,,,,,,,,,,,,,,,,,,,,,,,,,,,,,,,,,,,,,,,,,,,,,,,,,,,,,,,,,,,,,,,,,,,,,,,,,,,,,,,,,,,,,,,,,,,,,,,,,,,,,,,,,,,,,,,
,,698e0c45e7907168d29d5b02,2026-03-17_09h09.30.955,kallum_motion_pilot_GIST_update_2,2026.1.1,Win32,59.52380952,698e0c45e7907168d29d5b02,69b95efdef24cd8a694e89ee,69b96079858224eeb6c56c77,0.0582,0.0582,1,81,243,120,1,fivesix,,,,,,,,,,,,,,,,,,,,,,,,,,,,,,,,,,,,,,,,,,,,,,,,,,,,,,,,,,,,,,,,,,,,,,,,,,,,,,,,,,,,,,,,,,,,,,,,,,,,,,,,,,,,,,,,,,,,,,,,,,,,,,,,,,,,,,,,,
,,698e0c45e7907168d29d5b02,2026-03-17_09h09.30.955,kallum_motion_pilot_GIST_update_2,2026.1.1,Win32,59.52380952,698e0c45e7907168d29d5b02,69b95efdef24cd8a694e89ee,69b96079858224eeb6c56c77,0.0583,0.0584,1,82,244,46,1,fourtwo,,,,,,,,,,,,,,,,,,,,,,,,,,,,,,,,,,,,,,,,,,,,,,,,,,,,,,,,,,,,,,,,,,,,,,,,,,,,,,,,,,,,,,,,,,,,,,,,,,,,,,,,,,,,,,,,,,,,,,,,,,,,,,,,,,,,,,,,,
,,698e0c45e7907168d29d5b02,2026-03-17_09h09.30.955,kallum_motion_pilot_GIST_update_2,2026.1.1,Win32,59.52380952,698e0c45e7907168d29d5b02,69b95efdef24cd8a694e89ee,69b96079858224eeb6c56c77,0.0584,0.0584,1,83,245,16,1,onetwo,,,,,,,,,,,,,,,,,,,,,,,,,,,,,,,,,,,,,,,,,,,,,,,,,,,,,,,,,,,,,,,,,,,,,,,,,,,,,,,,,,,,,,,,,,,,,,,,,,,,,,,,,,,,,,,,,,,,,,,,,,,,,,,,,,,,,,,,,
,,698e0c45e7907168d29d5b02,2026-03-17_09h09.30.955,kallum_motion_pilot_GIST_update_2,2026.1.1,Win32,59.52380952,698e0c45e7907168d29d5b02,69b95efdef24cd8a694e89ee,69b96079858224eeb6c56c77,0.0586,0.0586,1,84,246,10,1,twoone,,,,,,,,,,,,,,,,,,,,,,,,,,,,,,,,,,,,,,,,,,,,,,,,,,,,,,,,,,,,,,,,,,,,,,,,,,,,,,,,,,,,,,,,,,,,,,,,,,,,,,,,,,,,,,,,,,,,,,,,,,,,,,,,,,,,,,,,,
,,698e0c45e7907168d29d5b02,2026-03-17_09h09.30.955,kallum_motion_pilot_GIST_update_2,2026.1.1,Win32,59.52380952,698e0c45e7907168d29d5b02,69b95efdef24cd8a694e89ee,69b96079858224eeb6c56c77,0.0587,0.0587,1,85,247,8,1,onetwo,,,,,,,,,,,,,,,,,,,,,,,,,,,,,,,,,,,,,,,,,,,,,,,,,,,,,,,,,,,,,,,,,,,,,,,,,,,,,,,,,,,,,,,,,,,,,,,,,,,,,,,,,,,,,,,,,,,,,,,,,,,,,,,,,,,,,,,,,
,,698e0c45e7907168d29d5b02,2026-03-17_09h09.30.955,kallum_motion_pilot_GIST_update_2,2026.1.1,Win32,59.52380952,698e0c45e7907168d29d5b02,69b95efdef24cd8a694e89ee,69b96079858224eeb6c56c77,0.0588,0.0588,1,86,248,57,1,onethree,,,,,,,,,,,,,,,,,,,,,,,,,,,,,,,,,,,,,,,,,,,,,,,,,,,,,,,,,,,,,,,,,,,,,,,,,,,,,,,,,,,,,,,,,,,,,,,,,,,,,,,,,,,,,,,,,,,,,,,,,,,,,,,,,,,,,,,,,
,,698e0c45e7907168d29d5b02,2026-03-17_09h09.30.955,kallum_motion_pilot_GIST_update_2,2026.1.1,Win32,59.52380952,698e0c45e7907168d29d5b02,69b95efdef24cd8a694e89ee,69b96079858224eeb6c56c77,0.0589,0.0589,1,87,249,29,1,threefour,,,,,,,,,,,,,,,,,,,,,,,,,,,,,,,,,,,,,,,,,,,,,,,,,,,,,,,,,,,,,,,,,,,,,,,,,,,,,,,,,,,,,,,,,,,,,,,,,,,,,,,,,,,,,,,,,,,,,,,,,,,,,,,,,,,,,,,,,
,,698e0c45e7907168d29d5b02,2026-03-17_09h09.30.955,kallum_motion_pilot_GIST_update_2,2026.1.1,Win32,59.52380952,698e0c45e7907168d29d5b02,69b95efdef24cd8a694e89ee,69b96079858224eeb6c56c77,0.0591,0.0591,1,88,250,119,1,eightseven,,,,,,,,,,,,,,,,,,,,,,,,,,,,,,,,,,,,,,,,,,,,,,,,,,,,,,,,,,,,,,,,,,,,,,,,,,,,,,,,,,,,,,,,,,,,,,,,,,,,,,,,,,,,,,,,,,,,,,,,,,,,,,,,,,,,,,,,,
,,698e0c45e7907168d29d5b02,2026-03-17_09h09.30.955,kallum_motion_pilot_GIST_update_2,2026.1.1,Win32,59.52380952,698e0c45e7907168d29d5b02,69b95efdef24cd8a694e89ee,69b96079858224eeb6c56c77,0.0592,0.0592,1,89,251,66,1,twoone,,,,,,,,,,,,,,,,,,,,,,,,,,,,,,,,,,,,,,,,,,,,,,,,,,,,,,,,,,,,,,,,,,,,,,,,,,,,,,,,,,,,,,,,,,,,,,,,,,,,,,,,,,,,,,,,,,,,,,,,,,,,,,,,,,,,,,,,,
,,698e0c45e7907168d29d5b02,2026-03-17_09h09.30.955,kallum_motion_pilot_GIST_update_2,2026.1.1,Win32,59.52380952,698e0c45e7907168d29d5b02,69b95efdef24cd8a694e89ee,69b96079858224eeb6c56c77,0.0593,0.0593,1,90,252,96,1,fivesix,,,,,,,,,,,,,,,,,,,,,,,,,,,,,,,,,,,,,,,,,,,,,,,,,,,,,,,,,,,,,,,,,,,,,,,,,,,,,,,,,,,,,,,,,,,,,,,,,,,,,,,,,,,,,,,,,,,,,,,,,,,,,,,,,,,,,,,,,
,,698e0c45e7907168d29d5b02,2026-03-17_09h09.30.955,kallum_motion_pilot_GIST_update_2,2026.1.1,Win32,59.52380952,698e0c45e7907168d29d5b02,69b95efdef24cd8a694e89ee,69b96079858224eeb6c56c77,0.0594,0.0594,1,91,253,31,1,fourthree,,,,,,,,,,,,,,,,,,,,,,,,,,,,,,,,,,,,,,,,,,,,,,,,,,,,,,,,,,,,,,,,,,,,,,,,,,,,,,,,,,,,,,,,,,,,,,,,,,,,,,,,,,,,,,,,,,,,,,,,,,,,,,,,,,,,,,,,,
,,698e0c45e7907168d29d5b02,2026-03-17_09h09.30.955,kallum_motion_pilot_GIST_update_2,2026.1.1,Win32,59.52380952,698e0c45e7907168d29d5b02,69b95efdef24cd8a694e89ee,69b96079858224eeb6c56c77,0.0595,0.0595,1,92,254,64,1,onetwo,,,,,,,,,,,,,,,,,,,,,,,,,,,,,,,,,,,,,,,,,,,,,,,,,,,,,,,,,,,,,,,,,,,,,,,,,,,,,,,,,,,,,,,,,,,,,,,,,,,,,,,,,,,,,,,,,,,,,,,,,,,,,,,,,,,,,,,,,
,,698e0c45e7907168d29d5b02,2026-03-17_09h09.30.955,kallum_motion_pilot_GIST_update_2,2026.1.1,Win32,59.52380952,698e0c45e7907168d29d5b02,69b95efdef24cd8a694e89ee,69b96079858224eeb6c56c77,0.0598,0.0598,1,93,255,35,1,twofour,,,,,,,,,,,,,,,,,,,,,,,,,,,,,,,,,,,,,,,,,,,,,,,,,,,,,,,,,,,,,,,,,,,,,,,,,,,,,,,,,,,,,,,,,,,,,,,,,,,,,,,,,,,,,,,,,,,,,,,,,,,,,,,,,,,,,,,,,
,,698e0c45e7907168d29d5b02,2026-03-17_09h09.30.955,kallum_motion_pilot_GIST_update_2,2026.1.1,Win32,59.52380952,698e0c45e7907168d29d5b02,69b95efdef24cd8a694e89ee,69b96079858224eeb6c56c77,0.0601,0.0601,1,94,256,97,1,fiveseven,,,,,,,,,,,,,,,,,,,,,,,,,,,,,,,,,,,,,,,,,,,,,,,,,,,,,,,,,,,,,,,,,,,,,,,,,,,,,,,,,,,,,,,,,,,,,,,,,,,,,,,,,,,,,,,,,,,,,,,,,,,,,,,,,,,,,,,,,
,,698e0c45e7907168d29d5b02,2026-03-17_09h09.30.955,kallum_motion_pilot_GIST_update_2,2026.1.1,Win32,59.52380952,698e0c45e7907168d29d5b02,69b95efdef24cd8a694e89ee,69b96079858224eeb6c56c77,0.0602,0.0602,1,95,257,56,1,onetwo,,,,,,,,,,,,,,,,,,,,,,,,,,,,,,,,,,,,,,,,,,,,,,,,,,,,,,,,,,,,,,,,,,,,,,,,,,,,,,,,,,,,,,,,,,,,,,,,,,,,,,,,,,,,,,,,,,,,,,,,,,,,,,,,,,,,,,,,,
,,698e0c45e7907168d29d5b02,2026-03-17_09h09.30.955,kallum_motion_pilot_GIST_update_2,2026.1.1,Win32,59.52380952,698e0c45e7907168d29d5b02,69b95efdef24cd8a694e89ee,69b96079858224eeb6c56c77,0.0605,0.0605,1,96,258,7,1,fourthree,,,,,,,,,,,,,,,,,,,,,,,,,,,,,,,,,,,,,,,,,,,,,,,,,,,,,,,,,,,,,,,,,,,,,,,,,,,,,,,,,,,,,,,,,,,,,,,,,,,,,,,,,,,,,,,,,,,,,,,,,,,,,,,,,,,,,,,,,
,,698e0c45e7907168d29d5b02,2026-03-17_09h09.30.955,kallum_motion_pilot_GIST_update_2,2026.1.1,Win32,59.52380952,698e0c45e7907168d29d5b02,69b95efdef24cd8a694e89ee,69b96079858224eeb6c56c77,0.0607,0.0607,1,97,259,28,1,threeone,,,,,,,,,,,,,,,,,,,,,,,,,,,,,,,,,,,,,,,,,,,,,,,,,,,,,,,,,,,,,,,,,,,,,,,,,,,,,,,,,,,,,,,,,,,,,,,,,,,,,,,,,,,,,,,,,,,,,,,,,,,,,,,,,,,,,,,,,
,,698e0c45e7907168d29d5b02,2026-03-17_09h09.30.955,kallum_motion_pilot_GIST_update_2,2026.1.1,Win32,59.52380952,698e0c45e7907168d29d5b02,69b95efdef24cd8a694e89ee,69b96079858224eeb6c56c77,0.0609,0.0609,1,98,260,137,1,fiveseven,,,,,,,,,,,,,,,,,,,,,,,,,,,,,,,,,,,,,,,,,,,,,,,,,,,,,,,,,,,,,,,,,,,,,,,,,,,,,,,,,,,,,,,,,,,,,,,,,,,,,,,,,,,,,,,,,,,,,,,,,,,,,,,,,,,,,,,,,
,,698e0c45e7907168d29d5b02,2026-03-17_09h09.30.955,kallum_motion_pilot_GIST_update_2,2026.1.1,Win32,59.52380952,698e0c45e7907168d29d5b02,69b95efdef24cd8a694e89ee,69b96079858224eeb6c56c77,0.061,0.061,1,99,261,154,1,sixfive,,,,,,,,,,,,,,,,,,,,,,,,,,,,,,,,,,,,,,,,,,,,,,,,,,,,,,,,,,,,,,,,,,,,,,,,,,,,,,,,,,,,,,,,,,,,,,,,,,,,,,,,,,,,,,,,,,,,,,,,,,,,,,,,,,,,,,,,,
,,698e0c45e7907168d29d5b02,2026-03-17_09h09.30.955,kallum_motion_pilot_GIST_update_2,2026.1.1,Win32,59.52380952,698e0c45e7907168d29d5b02,69b95efdef24cd8a694e89ee,69b96079858224eeb6c56c77,0.0613,0.0613,1,100,262,68,1,threeone,,,,,,,,,,,,,,,,,,,,,,,,,,,,,,,,,,,,,,,,,,,,,,,,,,,,,,,,,,,,,,,,,,,,,,,,,,,,,,,,,,,,,,,,,,,,,,,,,,,,,,,,,,,,,,,,,,,,,,,,,,,,,,,,,,,,,,,,,
,,698e0c45e7907168d29d5b02,2026-03-17_09h09.30.955,kallum_motion_pilot_GIST_update_2,2026.1.1,Win32,59.52380952,698e0c45e7907168d29d5b02,69b95efdef24cd8a694e89ee,69b96079858224eeb6c56c77,0.0614,0.0614,1,101,263,93,1,seveneight,,,,,,,,,,,,,,,,,,,,,,,,,,,,,,,,,,,,,,,,,,,,,,,,,,,,,,,,,,,,,,,,,,,,,,,,,,,,,,,,,,,,,,,,,,,,,,,,,,,,,,,,,,,,,,,,,,,,,,,,,,,,,,,,,,,,,,,,,
,,698e0c45e7907168d29d5b02,2026-03-17_09h09.30.955,kallum_motion_pilot_GIST_update_2,2026.1.1,Win32,59.52380952,698e0c45e7907168d29d5b02,69b95efdef24cd8a694e89ee,69b96079858224eeb6c56c77,0.0617,0.0617,1,102,264,59,1,twofour,,,,,,,,,,,,,,,,,,,,,,,,,,,,,,,,,,,,,,,,,,,,,,,,,,,,,,,,,,,,,,,,,,,,,,,,,,,,,,,,,,,,,,,,,,,,,,,,,,,,,,,,,,,,,,,,,,,,,,,,,,,,,,,,,,,,,,,,,
,,698e0c45e7907168d29d5b02,2026-03-17_09h09.30.955,kallum_motion_pilot_GIST_update_2,2026.1.1,Win32,59.52380952,698e0c45e7907168d29d5b02,69b95efdef24cd8a694e89ee,69b96079858224eeb6c56c77,0.0619,0.0619,1,103,265,72,1,onetwo,,,,,,,,,,,,,,,,,,,,,,,,,,,,,,,,,,,,,,,,,,,,,,,,,,,,,,,,,,,,,,,,,,,,,,,,,,,,,,,,,,,,,,,,,,,,,,,,,,,,,,,,,,,,,,,,,,,,,,,,,,,,,,,,,,,,,,,,,
,,698e0c45e7907168d29d5b02,2026-03-17_09h09.30.955,kallum_motion_pilot_GIST_update_2,2026.1.1,Win32,59.52380952,698e0c45e7907168d29d5b02,69b95efdef24cd8a694e89ee,69b96079858224eeb6c56c77,0.062,0.062,1,104,266,37,1,threefour,,,,,,,,,,,,,,,,,,,,,,,,,,,,,,,,,,,,,,,,,,,,,,,,,,,,,,,,,,,,,,,,,,,,,,,,,,,,,,,,,,,,,,,,,,,,,,,,,,,,,,,,,,,,,,,,,,,,,,,,,,,,,,,,,,,,,,,,,
