startup.started,startup.stopped,Prolific ID*,date,expName,psychopyVersion,OS,frameRate,participant,study_id,session,stimpositions.started,stimpositions.stopped,hardcoded_stimulus_positions.thisRepN,hardcoded_stimulus_positions.thisTrialN,hardcoded_stimulus_positions.thisN,hardcoded_stimulus_positions.thisIndex,hardcoded_stimulus_positions.ran,StimulusPos,stimorientation.started,stimorientation.stopped,prac_stimorientation_import_loop.thisRepN,prac_stimorientation_import_loop.thisTrialN,prac_stimorientation_import_loop.thisN,prac_stimorientation_import_loop.thisIndex,prac_stimorientation_import_loop.ran,Stimorientation,welcome_instr.started,welcome_instr.stopped,key_resp.keys,key_resp.rt,key_resp.duration,response_steppedout_1.started,response_steppedout_1.stopped,key_resp_20.keys,key_resp_20.rt,key_resp_20.duration,response_steppedout_2.started,response_steppedout_2.stopped,key_resp_19.keys,key_resp_19.rt,key_resp_19.duration,stim_response_instr.started,stim_response_instr.stopped,key_resp_15.keys,key_resp_15.rt,key_resp_15.duration,direction_instr_2.started,direction_instr_2.stopped,key_resp_9.keys,key_resp_9.rt,key_resp_9.duration,instr_prac.started,instr_prac.stopped,key_resp_10.keys,key_resp_10.rt,key_resp_10.duration,Stim1_display_prac.started,Stim1_display_prac.stopped,Ecc,Circle1_ori,Circle2_ori,response_prac.started,similarity,response_time,response_prac.stopped,mouse_5.x,mouse_5.y,mouse_5.leftButton,mouse_5.midButton,mouse_5.rightButton,mouse_5.clicked_name,responseprac_feedback.started,responseprac_feedback.stopped,summary2_prac.started,summary2_prac.stopped,mouse_6.x,mouse_6.y,mouse_6.leftButton,mouse_6.midButton,mouse_6.rightButton,mouse_6.clicked_name,duringprac.thisRepN,duringprac.thisTrialN,duringprac.thisN,duringprac.thisIndex,duringprac.ran,begin.started,begin.stopped,key_resp_22.keys,key_resp_22.rt,key_resp_22.duration,Stim1_display.started,Stim1_display.stopped,circle1_ori,circle2_ori,circle1_SF,circle2_SF,response.started,response.stopped,mouse.x,mouse.y,mouse.leftButton,mouse.midButton,mouse.rightButton,mouse.clicked_name,trialnumber,double_pass.thisRepN,double_pass.thisTrialN,double_pass.thisN,double_pass.thisIndex,double_pass.ran,double_pass.order,main_trial.thisRepN,main_trial.thisTrialN,main_trial.thisN,main_trial.thisIndex,main_trial.ran,main_trial.order,Trial_Counter,Catch,Frequencies,response_2.started,response_2.stopped,mouse_2.x,mouse_2.y,mouse_2.leftButton,mouse_2.midButton,mouse_2.rightButton,mouse_2.clicked_name,special_trial.started,special_trial.stopped,catch_1.started,catch_1.stopped,mouse_3.x,mouse_3.y,mouse_3.leftButton,mouse_3.midButton,mouse_3.rightButton,catchresponse,catchnumber,response_time_catch,response_sum.started,response_sum.stopped,mouse_11.x,mouse_11.y,mouse_11.leftButton,mouse_11.midButton,mouse_11.rightButton,flip_presentation_sequence_for_double_pass.started,flip_presentation_sequence_for_double_pass.stopped,goodbye.started,goodbye.stopped,key_resp_3.keys,key_resp_3.rt,key_resp_3.duration
0.0004,0.0007,6994c0c96df19159622d6e63,2026-03-17_12h25.26.014,kallum_motion_pilot_GIST_update_2,2026.1.1,Win32,60.24096386,6994c0c96df19159622d6e63,69b92ab4aef6dee357cd729a,69b92b77db62e537c6d8dbf0,,,,,,,,,,,,,,,,,,,,,,,,,,,,,,,,,,,,,,,,,,,,,,,,,,,,,,,,,,,,,,,,,,,,,,,,,,,,,,,,,,,,,,,,,,,,,,,,,,,,,,,,,,,,,,,,,,,,,,,,,,,,,,,,,,,,,,,,,,,,,,,,,
,,6994c0c96df19159622d6e63,2026-03-17_12h25.26.014,kallum_motion_pilot_GIST_update_2,2026.1.1,Win32,60.24096386,6994c0c96df19159622d6e63,69b92ab4aef6dee357cd729a,69b92b77db62e537c6d8dbf0,0.0318,0.0318,0,0,0,103,1,eightseven,,,,,,,,,,,,,,,,,,,,,,,,,,,,,,,,,,,,,,,,,,,,,,,,,,,,,,,,,,,,,,,,,,,,,,,,,,,,,,,,,,,,,,,,,,,,,,,,,,,,,,,,,,,,,,,,,,,,,,,,,,,,,,,,,,,,,,,,,
,,6994c0c96df19159622d6e63,2026-03-17_12h25.26.014,kallum_motion_pilot_GIST_update_2,2026.1.1,Win32,60.24096386,6994c0c96df19159622d6e63,69b92ab4aef6dee357cd729a,69b92b77db62e537c6d8dbf0,0.0321,0.0321,0,1,1,102,1,eightsix,,,,,,,,,,,,,,,,,,,,,,,,,,,,,,,,,,,,,,,,,,,,,,,,,,,,,,,,,,,,,,,,,,,,,,,,,,,,,,,,,,,,,,,,,,,,,,,,,,,,,,,,,,,,,,,,,,,,,,,,,,,,,,,,,,,,,,,,,
,,6994c0c96df19159622d6e63,2026-03-17_12h25.26.014,kallum_motion_pilot_GIST_update_2,2026.1.1,Win32,60.24096386,6994c0c96df19159622d6e63,69b92ab4aef6dee357cd729a,69b92b77db62e537c6d8dbf0,0.0324,0.0324,0,2,2,113,1,fiveseven,,,,,,,,,,,,,,,,,,,,,,,,,,,,,,,,,,,,,,,,,,,,,,,,,,,,,,,,,,,,,,,,,,,,,,,,,,,,,,,,,,,,,,,,,,,,,,,,,,,,,,,,,,,,,,,,,,,,,,,,,,,,,,,,,,,,,,,,,
,,6994c0c96df19159622d6e63,2026-03-17_12h25.26.014,kallum_motion_pilot_GIST_update_2,2026.1.1,Win32,60.24096386,6994c0c96df19159622d6e63,69b92ab4aef6dee357cd729a,69b92b77db62e537c6d8dbf0,0.0326,0.0326,0,3,3,10,1,twoone,,,,,,,,,,,,,,,,,,,,,,,,,,,,,,,,,,,,,,,,,,,,,,,,,,,,,,,,,,,,,,,,,,,,,,,,,,,,,,,,,,,,,,,,,,,,,,,,,,,,,,,,,,,,,,,,,,,,,,,,,,,,,,,,,,,,,,,,,
,,6994c0c96df19159622d6e63,2026-03-17_12h25.26.014,kallum_motion_pilot_GIST_update_2,2026.1.1,Win32,60.24096386,6994c0c96df19159622d6e63,69b92ab4aef6dee357cd729a,69b92b77db62e537c6d8dbf0,0.0328,0.0328,0,4,4,112,1,fivesix,,,,,,,,,,,,,,,,,,,,,,,,,,,,,,,,,,,,,,,,,,,,,,,,,,,,,,,,,,,,,,,,,,,,,,,,,,,,,,,,,,,,,,,,,,,,,,,,,,,,,,,,,,,,,,,,,,,,,,,,,,,,,,,,,,,,,,,,,
,,6994c0c96df19159622d6e63,2026-03-17_12h25.26.014,kallum_motion_pilot_GIST_update_2,2026.1.1,Win32,60.24096386,6994c0c96df19159622d6e63,69b92ab4aef6dee357cd729a,69b92b77db62e537c6d8dbf0,0.0329,0.0329,0,5,5,99,1,sixeight,,,,,,,,,,,,,,,,,,,,,,,,,,,,,,,,,,,,,,,,,,,,,,,,,,,,,,,,,,,,,,,,,,,,,,,,,,,,,,,,,,,,,,,,,,,,,,,,,,,,,,,,,,,,,,,,,,,,,,,,,,,,,,,,,,,,,,,,,
,,6994c0c96df19159622d6e63,2026-03-17_12h25.26.014,kallum_motion_pilot_GIST_update_2,2026.1.1,Win32,60.24096386,6994c0c96df19159622d6e63,69b92ab4aef6dee357cd729a,69b92b77db62e537c6d8dbf0,0.033,0.033,0,6,6,6,1,fourtwo,,,,,,,,,,,,,,,,,,,,,,,,,,,,,,,,,,,,,,,,,,,,,,,,,,,,,,,,,,,,,,,,,,,,,,,,,,,,,,,,,,,,,,,,,,,,,,,,,,,,,,,,,,,,,,,,,,,,,,,,,,,,,,,,,,,,,,,,,
,,6994c0c96df19159622d6e63,2026-03-17_12h25.26.014,kallum_motion_pilot_GIST_update_2,2026.1.1,Win32,60.24096386,6994c0c96df19159622d6e63,69b92ab4aef6dee357cd729a,69b92b77db62e537c6d8dbf0,0.0332,0.0332,0,7,7,119,1,eightseven,,,,,,,,,,,,,,,,,,,,,,,,,,,,,,,,,,,,,,,,,,,,,,,,,,,,,,,,,,,,,,,,,,,,,,,,,,,,,,,,,,,,,,,,,,,,,,,,,,,,,,,,,,,,,,,,,,,,,,,,,,,,,,,,,,,,,,,,,
,,6994c0c96df19159622d6e63,2026-03-17_12h25.26.014,kallum_motion_pilot_GIST_update_2,2026.1.1,Win32,60.24096386,6994c0c96df19159622d6e63,69b92ab4aef6dee357cd729a,69b92b77db62e537c6d8dbf0,0.0334,0.0334,0,8,8,94,1,eightsix,,,,,,,,,,,,,,,,,,,,,,,,,,,,,,,,,,,,,,,,,,,,,,,,,,,,,,,,,,,,,,,,,,,,,,,,,,,,,,,,,,,,,,,,,,,,,,,,,,,,,,,,,,,,,,,,,,,,,,,,,,,,,,,,,,,,,,,,,
,,6994c0c96df19159622d6e63,2026-03-17_12h25.26.014,kallum_motion_pilot_GIST_update_2,2026.1.1,Win32,60.24096386,6994c0c96df19159622d6e63,69b92ab4aef6dee357cd729a,69b92b77db62e537c6d8dbf0,0.0336,0.0336,0,9,9,160,1,fivesix,,,,,,,,,,,,,,,,,,,,,,,,,,,,,,,,,,,,,,,,,,,,,,,,,,,,,,,,,,,,,,,,,,,,,,,,,,,,,,,,,,,,,,,,,,,,,,,,,,,,,,,,,,,,,,,,,,,,,,,,,,,,,,,,,,,,,,,,,
,,6994c0c96df19159622d6e63,2026-03-17_12h25.26.014,kallum_motion_pilot_GIST_update_2,2026.1.1,Win32,60.24096386,6994c0c96df19159622d6e63,69b92ab4aef6dee357cd729a,69b92b77db62e537c6d8dbf0,0.0338,0.0338,0,10,10,157,1,seveneight,,,,,,,,,,,,,,,,,,,,,,,,,,,,,,,,,,,,,,,,,,,,,,,,,,,,,,,,,,,,,,,,,,,,,,,,,,,,,,,,,,,,,,,,,,,,,,,,,,,,,,,,,,,,,,,,,,,,,,,,,,,,,,,,,,,,,,,,,
,,6994c0c96df19159622d6e63,2026-03-17_12h25.26.014,kallum_motion_pilot_GIST_update_2,2026.1.1,Win32,60.24096386,6994c0c96df19159622d6e63,69b92ab4aef6dee357cd729a,69b92b77db62e537c6d8dbf0,0.0339,0.0339,0,11,11,146,1,sixfive,,,,,,,,,,,,,,,,,,,,,,,,,,,,,,,,,,,,,,,,,,,,,,,,,,,,,,,,,,,,,,,,,,,,,,,,,,,,,,,,,,,,,,,,,,,,,,,,,,,,,,,,,,,,,,,,,,,,,,,,,,,,,,,,,,,,,,,,,
,,6994c0c96df19159622d6e63,2026-03-17_12h25.26.014,kallum_motion_pilot_GIST_update_2,2026.1.1,Win32,60.24096386,6994c0c96df19159622d6e63,69b92ab4aef6dee357cd729a,69b92b77db62e537c6d8dbf0,0.034,0.034,0,12,12,73,1,onethree,,,,,,,,,,,,,,,,,,,,,,,,,,,,,,,,,,,,,,,,,,,,,,,,,,,,,,,,,,,,,,,,,,,,,,,,,,,,,,,,,,,,,,,,,,,,,,,,,,,,,,,,,,,,,,,,,,,,,,,,,,,,,,,,,,,,,,,,,
,,6994c0c96df19159622d6e63,2026-03-17_12h25.26.014,kallum_motion_pilot_GIST_update_2,2026.1.1,Win32,60.24096386,6994c0c96df19159622d6e63,69b92ab4aef6dee357cd729a,69b92b77db62e537c6d8dbf0,0.0342,0.0342,0,13,13,25,1,onethree,,,,,,,,,,,,,,,,,,,,,,,,,,,,,,,,,,,,,,,,,,,,,,,,,,,,,,,,,,,,,,,,,,,,,,,,,,,,,,,,,,,,,,,,,,,,,,,,,,,,,,,,,,,,,,,,,,,,,,,,,,,,,,,,,,,,,,,,,
,,6994c0c96df19159622d6e63,2026-03-17_12h25.26.014,kallum_motion_pilot_GIST_update_2,2026.1.1,Win32,60.24096386,6994c0c96df19159622d6e63,69b92ab4aef6dee357cd729a,69b92b77db62e537c6d8dbf0,0.0343,0.0344,0,14,14,121,1,fiveseven,,,,,,,,,,,,,,,,,,,,,,,,,,,,,,,,,,,,,,,,,,,,,,,,,,,,,,,,,,,,,,,,,,,,,,,,,,,,,,,,,,,,,,,,,,,,,,,,,,,,,,,,,,,,,,,,,,,,,,,,,,,,,,,,,,,,,,,,,
,,6994c0c96df19159622d6e63,2026-03-17_12h25.26.014,kallum_motion_pilot_GIST_update_2,2026.1.1,Win32,60.24096386,6994c0c96df19159622d6e63,69b92ab4aef6dee357cd729a,69b92b77db62e537c6d8dbf0,0.0346,0.0346,0,15,15,143,1,eightseven,,,,,,,,,,,,,,,,,,,,,,,,,,,,,,,,,,,,,,,,,,,,,,,,,,,,,,,,,,,,,,,,,,,,,,,,,,,,,,,,,,,,,,,,,,,,,,,,,,,,,,,,,,,,,,,,,,,,,,,,,,,,,,,,,,,,,,,,,
,,6994c0c96df19159622d6e63,2026-03-17_12h25.26.014,kallum_motion_pilot_GIST_update_2,2026.1.1,Win32,60.24096386,6994c0c96df19159622d6e63,69b92ab4aef6dee357cd729a,69b92b77db62e537c6d8dbf0,0.0347,0.0347,0,16,16,42,1,twoone,,,,,,,,,,,,,,,,,,,,,,,,,,,,,,,,,,,,,,,,,,,,,,,,,,,,,,,,,,,,,,,,,,,,,,,,,,,,,,,,,,,,,,,,,,,,,,,,,,,,,,,,,,,,,,,,,,,,,,,,,,,,,,,,,,,,,,,,,
,,6994c0c96df19159622d6e63,2026-03-17_12h25.26.014,kallum_motion_pilot_GIST_update_2,2026.1.1,Win32,60.24096386,6994c0c96df19159622d6e63,69b92ab4aef6dee357cd729a,69b92b77db62e537c6d8dbf0,0.0349,0.0349,0,17,17,97,1,fiveseven,,,,,,,,,,,,,,,,,,,,,,,,,,,,,,,,,,,,,,,,,,,,,,,,,,,,,,,,,,,,,,,,,,,,,,,,,,,,,,,,,,,,,,,,,,,,,,,,,,,,,,,,,,,,,,,,,,,,,,,,,,,,,,,,,,,,,,,,,
,,6994c0c96df19159622d6e63,2026-03-17_12h25.26.014,kallum_motion_pilot_GIST_update_2,2026.1.1,Win32,60.24096386,6994c0c96df19159622d6e63,69b92ab4aef6dee357cd729a,69b92b77db62e537c6d8dbf0,0.035,0.035,0,18,18,64,1,onetwo,,,,,,,,,,,,,,,,,,,,,,,,,,,,,,,,,,,,,,,,,,,,,,,,,,,,,,,,,,,,,,,,,,,,,,,,,,,,,,,,,,,,,,,,,,,,,,,,,,,,,,,,,,,,,,,,,,,,,,,,,,,,,,,,,,,,,,,,,
,,6994c0c96df19159622d6e63,2026-03-17_12h25.26.014,kallum_motion_pilot_GIST_update_2,2026.1.1,Win32,60.24096386,6994c0c96df19159622d6e63,69b92ab4aef6dee357cd729a,69b92b77db62e537c6d8dbf0,0.0351,0.0351,0,19,19,71,1,fourthree,,,,,,,,,,,,,,,,,,,,,,,,,,,,,,,,,,,,,,,,,,,,,,,,,,,,,,,,,,,,,,,,,,,,,,,,,,,,,,,,,,,,,,,,,,,,,,,,,,,,,,,,,,,,,,,,,,,,,,,,,,,,,,,,,,,,,,,,,
,,6994c0c96df19159622d6e63,2026-03-17_12h25.26.014,kallum_motion_pilot_GIST_update_2,2026.1.1,Win32,60.24096386,6994c0c96df19159622d6e63,69b92ab4aef6dee357cd729a,69b92b77db62e537c6d8dbf0,0.0353,0.0353,0,20,20,140,1,sevenfive,,,,,,,,,,,,,,,,,,,,,,,,,,,,,,,,,,,,,,,,,,,,,,,,,,,,,,,,,,,,,,,,,,,,,,,,,,,,,,,,,,,,,,,,,,,,,,,,,,,,,,,,,,,,,,,,,,,,,,,,,,,,,,,,,,,,,,,,,
,,6994c0c96df19159622d6e63,2026-03-17_12h25.26.014,kallum_motion_pilot_GIST_update_2,2026.1.1,Win32,60.24096386,6994c0c96df19159622d6e63,69b92ab4aef6dee357cd729a,69b92b77db62e537c6d8dbf0,0.0354,0.0354,0,21,21,22,1,fourtwo,,,,,,,,,,,,,,,,,,,,,,,,,,,,,,,,,,,,,,,,,,,,,,,,,,,,,,,,,,,,,,,,,,,,,,,,,,,,,,,,,,,,,,,,,,,,,,,,,,,,,,,,,,,,,,,,,,,,,,,,,,,,,,,,,,,,,,,,,
,,6994c0c96df19159622d6e63,2026-03-17_12h25.26.014,kallum_motion_pilot_GIST_update_2,2026.1.1,Win32,60.24096386,6994c0c96df19159622d6e63,69b92ab4aef6dee357cd729a,69b92b77db62e537c6d8dbf0,0.0355,0.0355,0,22,22,65,1,onethree,,,,,,,,,,,,,,,,,,,,,,,,,,,,,,,,,,,,,,,,,,,,,,,,,,,,,,,,,,,,,,,,,,,,,,,,,,,,,,,,,,,,,,,,,,,,,,,,,,,,,,,,,,,,,,,,,,,,,,,,,,,,,,,,,,,,,,,,,
,,6994c0c96df19159622d6e63,2026-03-17_12h25.26.014,kallum_motion_pilot_GIST_update_2,2026.1.1,Win32,60.24096386,6994c0c96df19159622d6e63,69b92ab4aef6dee357cd729a,69b92b77db62e537c6d8dbf0,0.0356,0.0356,0,23,23,8,1,onetwo,,,,,,,,,,,,,,,,,,,,,,,,,,,,,,,,,,,,,,,,,,,,,,,,,,,,,,,,,,,,,,,,,,,,,,,,,,,,,,,,,,,,,,,,,,,,,,,,,,,,,,,,,,,,,,,,,,,,,,,,,,,,,,,,,,,,,,,,,
,,6994c0c96df19159622d6e63,2026-03-17_12h25.26.014,kallum_motion_pilot_GIST_update_2,2026.1.1,Win32,60.24096386,6994c0c96df19159622d6e63,69b92ab4aef6dee357cd729a,69b92b77db62e537c6d8dbf0,0.0358,0.0358,0,24,24,133,1,seveneight,,,,,,,,,,,,,,,,,,,,,,,,,,,,,,,,,,,,,,,,,,,,,,,,,,,,,,,,,,,,,,,,,,,,,,,,,,,,,,,,,,,,,,,,,,,,,,,,,,,,,,,,,,,,,,,,,,,,,,,,,,,,,,,,,,,,,,,,,
,,6994c0c96df19159622d6e63,2026-03-17_12h25.26.014,kallum_motion_pilot_GIST_update_2,2026.1.1,Win32,60.24096386,6994c0c96df19159622d6e63,69b92ab4aef6dee357cd729a,69b92b77db62e537c6d8dbf0,0.036,0.036,0,25,25,125,1,seveneight,,,,,,,,,,,,,,,,,,,,,,,,,,,,,,,,,,,,,,,,,,,,,,,,,,,,,,,,,,,,,,,,,,,,,,,,,,,,,,,,,,,,,,,,,,,,,,,,,,,,,,,,,,,,,,,,,,,,,,,,,,,,,,,,,,,,,,,,,
,,6994c0c96df19159622d6e63,2026-03-17_12h25.26.014,kallum_motion_pilot_GIST_update_2,2026.1.1,Win32,60.24096386,6994c0c96df19159622d6e63,69b92ab4aef6dee357cd729a,69b92b77db62e537c6d8dbf0,0.0362,0.0362,0,26,26,116,1,sevenfive,,,,,,,,,,,,,,,,,,,,,,,,,,,,,,,,,,,,,,,,,,,,,,,,,,,,,,,,,,,,,,,,,,,,,,,,,,,,,,,,,,,,,,,,,,,,,,,,,,,,,,,,,,,,,,,,,,,,,,,,,,,,,,,,,,,,,,,,,
,,6994c0c96df19159622d6e63,2026-03-17_12h25.26.014,kallum_motion_pilot_GIST_update_2,2026.1.1,Win32,60.24096386,6994c0c96df19159622d6e63,69b92ab4aef6dee357cd729a,69b92b77db62e537c6d8dbf0,0.0363,0.0363,0,27,27,129,1,fiveseven,,,,,,,,,,,,,,,,,,,,,,,,,,,,,,,,,,,,,,,,,,,,,,,,,,,,,,,,,,,,,,,,,,,,,,,,,,,,,,,,,,,,,,,,,,,,,,,,,,,,,,,,,,,,,,,,,,,,,,,,,,,,,,,,,,,,,,,,,
,,6994c0c96df19159622d6e63,2026-03-17_12h25.26.014,kallum_motion_pilot_GIST_update_2,2026.1.1,Win32,60.24096386,6994c0c96df19159622d6e63,69b92ab4aef6dee357cd729a,69b92b77db62e537c6d8dbf0,0.0364,0.0364,0,28,28,135,1,eightseven,,,,,,,,,,,,,,,,,,,,,,,,,,,,,,,,,,,,,,,,,,,,,,,,,,,,,,,,,,,,,,,,,,,,,,,,,,,,,,,,,,,,,,,,,,,,,,,,,,,,,,,,,,,,,,,,,,,,,,,,,,,,,,,,,,,,,,,,,
,,6994c0c96df19159622d6e63,2026-03-17_12h25.26.014,kallum_motion_pilot_GIST_update_2,2026.1.1,Win32,60.24096386,6994c0c96df19159622d6e63,69b92ab4aef6dee357cd729a,69b92b77db62e537c6d8dbf0,0.0365,0.0365,0,29,29,18,1,twoone,,,,,,,,,,,,,,,,,,,,,,,,,,,,,,,,,,,,,,,,,,,,,,,,,,,,,,,,,,,,,,,,,,,,,,,,,,,,,,,,,,,,,,,,,,,,,,,,,,,,,,,,,,,,,,,,,,,,,,,,,,,,,,,,,,,,,,,,,
,,6994c0c96df19159622d6e63,2026-03-17_12h25.26.014,kallum_motion_pilot_GIST_update_2,2026.1.1,Win32,60.24096386,6994c0c96df19159622d6e63,69b92ab4aef6dee357cd729a,69b92b77db62e537c6d8dbf0,0.0366,0.0366,0,30,30,5,1,threefour,,,,,,,,,,,,,,,,,,,,,,,,,,,,,,,,,,,,,,,,,,,,,,,,,,,,,,,,,,,,,,,,,,,,,,,,,,,,,,,,,,,,,,,,,,,,,,,,,,,,,,,,,,,,,,,,,,,,,,,,,,,,,,,,,,,,,,,,,
,,6994c0c96df19159622d6e63,2026-03-17_12h25.26.014,kallum_motion_pilot_GIST_update_2,2026.1.1,Win32,60.24096386,6994c0c96df19159622d6e63,69b92ab4aef6dee357cd729a,69b92b77db62e537c6d8dbf0,0.0368,0.0368,0,31,31,86,1,eightsix,,,,,,,,,,,,,,,,,,,,,,,,,,,,,,,,,,,,,,,,,,,,,,,,,,,,,,,,,,,,,,,,,,,,,,,,,,,,,,,,,,,,,,,,,,,,,,,,,,,,,,,,,,,,,,,,,,,,,,,,,,,,,,,,,,,,,,,,,
,,6994c0c96df19159622d6e63,2026-03-17_12h25.26.014,kallum_motion_pilot_GIST_update_2,2026.1.1,Win32,60.24096386,6994c0c96df19159622d6e63,69b92ab4aef6dee357cd729a,69b92b77db62e537c6d8dbf0,0.037,0.037,0,32,32,96,1,fivesix,,,,,,,,,,,,,,,,,,,,,,,,,,,,,,,,,,,,,,,,,,,,,,,,,,,,,,,,,,,,,,,,,,,,,,,,,,,,,,,,,,,,,,,,,,,,,,,,,,,,,,,,,,,,,,,,,,,,,,,,,,,,,,,,,,,,,,,,,
,,6994c0c96df19159622d6e63,2026-03-17_12h25.26.014,kallum_motion_pilot_GIST_update_2,2026.1.1,Win32,60.24096386,6994c0c96df19159622d6e63,69b92ab4aef6dee357cd729a,69b92b77db62e537c6d8dbf0,0.037,0.037,0,33,33,56,1,onetwo,,,,,,,,,,,,,,,,,,,,,,,,,,,,,,,,,,,,,,,,,,,,,,,,,,,,,,,,,,,,,,,,,,,,,,,,,,,,,,,,,,,,,,,,,,,,,,,,,,,,,,,,,,,,,,,,,,,,,,,,,,,,,,,,,,,,,,,,,
,,6994c0c96df19159622d6e63,2026-03-17_12h25.26.014,kallum_motion_pilot_GIST_update_2,2026.1.1,Win32,60.24096386,6994c0c96df19159622d6e63,69b92ab4aef6dee357cd729a,69b92b77db62e537c6d8dbf0,0.0372,0.0372,0,34,34,77,1,threefour,,,,,,,,,,,,,,,,,,,,,,,,,,,,,,,,,,,,,,,,,,,,,,,,,,,,,,,,,,,,,,,,,,,,,,,,,,,,,,,,,,,,,,,,,,,,,,,,,,,,,,,,,,,,,,,,,,,,,,,,,,,,,,,,,,,,,,,,,
,,6994c0c96df19159622d6e63,2026-03-17_12h25.26.014,kallum_motion_pilot_GIST_update_2,2026.1.1,Win32,60.24096386,6994c0c96df19159622d6e63,69b92ab4aef6dee357cd729a,69b92b77db62e537c6d8dbf0,0.0373,0.0374,0,35,35,100,1,sevenfive,,,,,,,,,,,,,,,,,,,,,,,,,,,,,,,,,,,,,,,,,,,,,,,,,,,,,,,,,,,,,,,,,,,,,,,,,,,,,,,,,,,,,,,,,,,,,,,,,,,,,,,,,,,,,,,,,,,,,,,,,,,,,,,,,,,,,,,,,
,,6994c0c96df19159622d6e63,2026-03-17_12h25.26.014,kallum_motion_pilot_GIST_update_2,2026.1.1,Win32,60.24096386,6994c0c96df19159622d6e63,69b92ab4aef6dee357cd729a,69b92b77db62e537c6d8dbf0,0.0375,0.0375,0,36,36,70,1,fourtwo,,,,,,,,,,,,,,,,,,,,,,,,,,,,,,,,,,,,,,,,,,,,,,,,,,,,,,,,,,,,,,,,,,,,,,,,,,,,,,,,,,,,,,,,,,,,,,,,,,,,,,,,,,,,,,,,,,,,,,,,,,,,,,,,,,,,,,,,,
,,6994c0c96df19159622d6e63,2026-03-17_12h25.26.014,kallum_motion_pilot_GIST_update_2,2026.1.1,Win32,60.24096386,6994c0c96df19159622d6e63,69b92ab4aef6dee357cd729a,69b92b77db62e537c6d8dbf0,0.0377,0.0378,0,37,37,123,1,sixeight,,,,,,,,,,,,,,,,,,,,,,,,,,,,,,,,,,,,,,,,,,,,,,,,,,,,,,,,,,,,,,,,,,,,,,,,,,,,,,,,,,,,,,,,,,,,,,,,,,,,,,,,,,,,,,,,,,,,,,,,,,,,,,,,,,,,,,,,,
,,6994c0c96df19159622d6e63,2026-03-17_12h25.26.014,kallum_motion_pilot_GIST_update_2,2026.1.1,Win32,60.24096386,6994c0c96df19159622d6e63,69b92ab4aef6dee357cd729a,69b92b77db62e537c6d8dbf0,0.0378,0.0378,0,38,38,80,1,fivesix,,,,,,,,,,,,,,,,,,,,,,,,,,,,,,,,,,,,,,,,,,,,,,,,,,,,,,,,,,,,,,,,,,,,,,,,,,,,,,,,,,,,,,,,,,,,,,,,,,,,,,,,,,,,,,,,,,,,,,,,,,,,,,,,,,,,,,,,,
,,6994c0c96df19159622d6e63,2026-03-17_12h25.26.014,kallum_motion_pilot_GIST_update_2,2026.1.1,Win32,60.24096386,6994c0c96df19159622d6e63,69b92ab4aef6dee357cd729a,69b92b77db62e537c6d8dbf0,0.038,0.038,0,39,39,54,1,fourtwo,,,,,,,,,,,,,,,,,,,,,,,,,,,,,,,,,,,,,,,,,,,,,,,,,,,,,,,,,,,,,,,,,,,,,,,,,,,,,,,,,,,,,,,,,,,,,,,,,,,,,,,,,,,,,,,,,,,,,,,,,,,,,,,,,,,,,,,,,
,,6994c0c96df19159622d6e63,2026-03-17_12h25.26.014,kallum_motion_pilot_GIST_update_2,2026.1.1,Win32,60.24096386,6994c0c96df19159622d6e63,69b92ab4aef6dee357cd729a,69b92b77db62e537c6d8dbf0,0.038,0.038,0,40,40,84,1,sevenfive,,,,,,,,,,,,,,,,,,,,,,,,,,,,,,,,,,,,,,,,,,,,,,,,,,,,,,,,,,,,,,,,,,,,,,,,,,,,,,,,,,,,,,,,,,,,,,,,,,,,,,,,,,,,,,,,,,,,,,,,,,,,,,,,,,,,,,,,,
,,6994c0c96df19159622d6e63,2026-03-17_12h25.26.014,kallum_motion_pilot_GIST_update_2,2026.1.1,Win32,60.24096386,6994c0c96df19159622d6e63,69b92ab4aef6dee357cd729a,69b92b77db62e537c6d8dbf0,0.0381,0.0381,0,41,41,117,1,seveneight,,,,,,,,,,,,,,,,,,,,,,,,,,,,,,,,,,,,,,,,,,,,,,,,,,,,,,,,,,,,,,,,,,,,,,,,,,,,,,,,,,,,,,,,,,,,,,,,,,,,,,,,,,,,,,,,,,,,,,,,,,,,,,,,,,,,,,,,,
,,6994c0c96df19159622d6e63,2026-03-17_12h25.26.014,kallum_motion_pilot_GIST_update_2,2026.1.1,Win32,60.24096386,6994c0c96df19159622d6e63,69b92ab4aef6dee357cd729a,69b92b77db62e537c6d8dbf0,0.0383,0.0383,0,42,42,149,1,seveneight,,,,,,,,,,,,,,,,,,,,,,,,,,,,,,,,,,,,,,,,,,,,,,,,,,,,,,,,,,,,,,,,,,,,,,,,,,,,,,,,,,,,,,,,,,,,,,,,,,,,,,,,,,,,,,,,,,,,,,,,,,,,,,,,,,,,,,,,,
,,6994c0c96df19159622d6e63,2026-03-17_12h25.26.014,kallum_motion_pilot_GIST_update_2,2026.1.1,Win32,60.24096386,6994c0c96df19159622d6e63,69b92ab4aef6dee357cd729a,69b92b77db62e537c6d8dbf0,0.0385,0.0385,0,43,43,161,1,fiveseven,,,,,,,,,,,,,,,,,,,,,,,,,,,,,,,,,,,,,,,,,,,,,,,,,,,,,,,,,,,,,,,,,,,,,,,,,,,,,,,,,,,,,,,,,,,,,,,,,,,,,,,,,,,,,,,,,,,,,,,,,,,,,,,,,,,,,,,,,
,,6994c0c96df19159622d6e63,2026-03-17_12h25.26.014,kallum_motion_pilot_GIST_update_2,2026.1.1,Win32,60.24096386,6994c0c96df19159622d6e63,69b92ab4aef6dee357cd729a,69b92b77db62e537c6d8dbf0,0.0387,0.0387,0,44,44,136,1,fivesix,,,,,,,,,,,,,,,,,,,,,,,,,,,,,,,,,,,,,,,,,,,,,,,,,,,,,,,,,,,,,,,,,,,,,,,,,,,,,,,,,,,,,,,,,,,,,,,,,,,,,,,,,,,,,,,,,,,,,,,,,,,,,,,,,,,,,,,,,
,,6994c0c96df19159622d6e63,2026-03-17_12h25.26.014,kallum_motion_pilot_GIST_update_2,2026.1.1,Win32,60.24096386,6994c0c96df19159622d6e63,69b92ab4aef6dee357cd729a,69b92b77db62e537c6d8dbf0,0.0389,0.0389,0,45,45,156,1,sevenfive,,,,,,,,,,,,,,,,,,,,,,,,,,,,,,,,,,,,,,,,,,,,,,,,,,,,,,,,,,,,,,,,,,,,,,,,,,,,,,,,,,,,,,,,,,,,,,,,,,,,,,,,,,,,,,,,,,,,,,,,,,,,,,,,,,,,,,,,,
,,6994c0c96df19159622d6e63,2026-03-17_12h25.26.014,kallum_motion_pilot_GIST_update_2,2026.1.1,Win32,60.24096386,6994c0c96df19159622d6e63,69b92ab4aef6dee357cd729a,69b92b77db62e537c6d8dbf0,0.0391,0.0391,0,46,46,101,1,seveneight,,,,,,,,,,,,,,,,,,,,,,,,,,,,,,,,,,,,,,,,,,,,,,,,,,,,,,,,,,,,,,,,,,,,,,,,,,,,,,,,,,,,,,,,,,,,,,,,,,,,,,,,,,,,,,,,,,,,,,,,,,,,,,,,,,,,,,,,,
,,6994c0c96df19159622d6e63,2026-03-17_12h25.26.014,kallum_motion_pilot_GIST_update_2,2026.1.1,Win32,60.24096386,6994c0c96df19159622d6e63,69b92ab4aef6dee357cd729a,69b92b77db62e537c6d8dbf0,0.0393,0.0393,0,47,47,159,1,eightseven,,,,,,,,,,,,,,,,,,,,,,,,,,,,,,,,,,,,,,,,,,,,,,,,,,,,,,,,,,,,,,,,,,,,,,,,,,,,,,,,,,,,,,,,,,,,,,,,,,,,,,,,,,,,,,,,,,,,,,,,,,,,,,,,,,,,,,,,,
,,6994c0c96df19159622d6e63,2026-03-17_12h25.26.014,kallum_motion_pilot_GIST_update_2,2026.1.1,Win32,60.24096386,6994c0c96df19159622d6e63,69b92ab4aef6dee357cd729a,69b92b77db62e537c6d8dbf0,0.0395,0.0395,0,48,48,0,1,onetwo,,,,,,,,,,,,,,,,,,,,,,,,,,,,,,,,,,,,,,,,,,,,,,,,,,,,,,,,,,,,,,,,,,,,,,,,,,,,,,,,,,,,,,,,,,,,,,,,,,,,,,,,,,,,,,,,,,,,,,,,,,,,,,,,,,,,,,,,,
,,6994c0c96df19159622d6e63,2026-03-17_12h25.26.014,kallum_motion_pilot_GIST_update_2,2026.1.1,Win32,60.24096386,6994c0c96df19159622d6e63,69b92ab4aef6dee357cd729a,69b92b77db62e537c6d8dbf0,0.0397,0.0397,0,49,49,155,1,sixeight,,,,,,,,,,,,,,,,,,,,,,,,,,,,,,,,,,,,,,,,,,,,,,,,,,,,,,,,,,,,,,,,,,,,,,,,,,,,,,,,,,,,,,,,,,,,,,,,,,,,,,,,,,,,,,,,,,,,,,,,,,,,,,,,,,,,,,,,,
,,6994c0c96df19159622d6e63,2026-03-17_12h25.26.014,kallum_motion_pilot_GIST_update_2,2026.1.1,Win32,60.24096386,6994c0c96df19159622d6e63,69b92ab4aef6dee357cd729a,69b92b77db62e537c6d8dbf0,0.0399,0.0399,0,50,50,79,1,eightseven,,,,,,,,,,,,,,,,,,,,,,,,,,,,,,,,,,,,,,,,,,,,,,,,,,,,,,,,,,,,,,,,,,,,,,,,,,,,,,,,,,,,,,,,,,,,,,,,,,,,,,,,,,,,,,,,,,,,,,,,,,,,,,,,,,,,,,,,,
,,6994c0c96df19159622d6e63,2026-03-17_12h25.26.014,kallum_motion_pilot_GIST_update_2,2026.1.1,Win32,60.24096386,6994c0c96df19159622d6e63,69b92ab4aef6dee357cd729a,69b92b77db62e537c6d8dbf0,0.0401,0.0401,0,51,51,31,1,fourthree,,,,,,,,,,,,,,,,,,,,,,,,,,,,,,,,,,,,,,,,,,,,,,,,,,,,,,,,,,,,,,,,,,,,,,,,,,,,,,,,,,,,,,,,,,,,,,,,,,,,,,,,,,,,,,,,,,,,,,,,,,,,,,,,,,,,,,,,,
,,6994c0c96df19159622d6e63,2026-03-17_12h25.26.014,kallum_motion_pilot_GIST_update_2,2026.1.1,Win32,60.24096386,6994c0c96df19159622d6e63,69b92ab4aef6dee357cd729a,69b92b77db62e537c6d8dbf0,0.0402,0.0402,0,52,52,158,1,eightsix,,,,,,,,,,,,,,,,,,,,,,,,,,,,,,,,,,,,,,,,,,,,,,,,,,,,,,,,,,,,,,,,,,,,,,,,,,,,,,,,,,,,,,,,,,,,,,,,,,,,,,,,,,,,,,,,,,,,,,,,,,,,,,,,,,,,,,,,,
,,6994c0c96df19159622d6e63,2026-03-17_12h25.26.014,kallum_motion_pilot_GIST_update_2,2026.1.1,Win32,60.24096386,6994c0c96df19159622d6e63,69b92ab4aef6dee357cd729a,69b92b77db62e537c6d8dbf0,0.0404,0.0405,0,53,53,132,1,sevenfive,,,,,,,,,,,,,,,,,,,,,,,,,,,,,,,,,,,,,,,,,,,,,,,,,,,,,,,,,,,,,,,,,,,,,,,,,,,,,,,,,,,,,,,,,,,,,,,,,,,,,,,,,,,,,,,,,,,,,,,,,,,,,,,,,,,,,,,,,
,,6994c0c96df19159622d6e63,2026-03-17_12h25.26.014,kallum_motion_pilot_GIST_update_2,2026.1.1,Win32,60.24096386,6994c0c96df19159622d6e63,69b92ab4aef6dee357cd729a,69b92b77db62e537c6d8dbf0,0.0407,0.0407,0,54,54,154,1,sixfive,,,,,,,,,,,,,,,,,,,,,,,,,,,,,,,,,,,,,,,,,,,,,,,,,,,,,,,,,,,,,,,,,,,,,,,,,,,,,,,,,,,,,,,,,,,,,,,,,,,,,,,,,,,,,,,,,,,,,,,,,,,,,,,,,,,,,,,,,
,,6994c0c96df19159622d6e63,2026-03-17_12h25.26.014,kallum_motion_pilot_GIST_update_2,2026.1.1,Win32,60.24096386,6994c0c96df19159622d6e63,69b92ab4aef6dee357cd729a,69b92b77db62e537c6d8dbf0,0.041,0.041,0,55,55,139,1,sixeight,,,,,,,,,,,,,,,,,,,,,,,,,,,,,,,,,,,,,,,,,,,,,,,,,,,,,,,,,,,,,,,,,,,,,,,,,,,,,,,,,,,,,,,,,,,,,,,,,,,,,,,,,,,,,,,,,,,,,,,,,,,,,,,,,,,,,,,,,
,,6994c0c96df19159622d6e63,2026-03-17_12h25.26.014,kallum_motion_pilot_GIST_update_2,2026.1.1,Win32,60.24096386,6994c0c96df19159622d6e63,69b92ab4aef6dee357cd729a,69b92b77db62e537c6d8dbf0,0.0412,0.0412,0,56,56,35,1,twofour,,,,,,,,,,,,,,,,,,,,,,,,,,,,,,,,,,,,,,,,,,,,,,,,,,,,,,,,,,,,,,,,,,,,,,,,,,,,,,,,,,,,,,,,,,,,,,,,,,,,,,,,,,,,,,,,,,,,,,,,,,,,,,,,,,,,,,,,,
,,6994c0c96df19159622d6e63,2026-03-17_12h25.26.014,kallum_motion_pilot_GIST_update_2,2026.1.1,Win32,60.24096386,6994c0c96df19159622d6e63,69b92ab4aef6dee357cd729a,69b92b77db62e537c6d8dbf0,0.0414,0.0415,0,57,57,60,1,threeone,,,,,,,,,,,,,,,,,,,,,,,,,,,,,,,,,,,,,,,,,,,,,,,,,,,,,,,,,,,,,,,,,,,,,,,,,,,,,,,,,,,,,,,,,,,,,,,,,,,,,,,,,,,,,,,,,,,,,,,,,,,,,,,,,,,,,,,,,
,,6994c0c96df19159622d6e63,2026-03-17_12h25.26.014,kallum_motion_pilot_GIST_update_2,2026.1.1,Win32,60.24096386,6994c0c96df19159622d6e63,69b92ab4aef6dee357cd729a,69b92b77db62e537c6d8dbf0,0.0417,0.0417,0,58,58,124,1,sevenfive,,,,,,,,,,,,,,,,,,,,,,,,,,,,,,,,,,,,,,,,,,,,,,,,,,,,,,,,,,,,,,,,,,,,,,,,,,,,,,,,,,,,,,,,,,,,,,,,,,,,,,,,,,,,,,,,,,,,,,,,,,,,,,,,,,,,,,,,,
,,6994c0c96df19159622d6e63,2026-03-17_12h25.26.014,kallum_motion_pilot_GIST_update_2,2026.1.1,Win32,60.24096386,6994c0c96df19159622d6e63,69b92ab4aef6dee357cd729a,69b92b77db62e537c6d8dbf0,0.0418,0.0418,0,59,59,13,1,threefour,,,,,,,,,,,,,,,,,,,,,,,,,,,,,,,,,,,,,,,,,,,,,,,,,,,,,,,,,,,,,,,,,,,,,,,,,,,,,,,,,,,,,,,,,,,,,,,,,,,,,,,,,,,,,,,,,,,,,,,,,,,,,,,,,,,,,,,,,
,,6994c0c96df19159622d6e63,2026-03-17_12h25.26.014,kallum_motion_pilot_GIST_update_2,2026.1.1,Win32,60.24096386,6994c0c96df19159622d6e63,69b92ab4aef6dee357cd729a,69b92b77db62e537c6d8dbf0,0.042,0.042,0,60,60,83,1,sixeight,,,,,,,,,,,,,,,,,,,,,,,,,,,,,,,,,,,,,,,,,,,,,,,,,,,,,,,,,,,,,,,,,,,,,,,,,,,,,,,,,,,,,,,,,,,,,,,,,,,,,,,,,,,,,,,,,,,,,,,,,,,,,,,,,,,,,,,,,
,,6994c0c96df19159622d6e63,2026-03-17_12h25.26.014,kallum_motion_pilot_GIST_update_2,2026.1.1,Win32,60.24096386,6994c0c96df19159622d6e63,69b92ab4aef6dee357cd729a,69b92b77db62e537c6d8dbf0,0.0421,0.0422,0,61,61,127,1,eightseven,,,,,,,,,,,,,,,,,,,,,,,,,,,,,,,,,,,,,,,,,,,,,,,,,,,,,,,,,,,,,,,,,,,,,,,,,,,,,,,,,,,,,,,,,,,,,,,,,,,,,,,,,,,,,,,,,,,,,,,,,,,,,,,,,,,,,,,,,
,,6994c0c96df19159622d6e63,2026-03-17_12h25.26.014,kallum_motion_pilot_GIST_update_2,2026.1.1,Win32,60.24096386,6994c0c96df19159622d6e63,69b92ab4aef6dee357cd729a,69b92b77db62e537c6d8dbf0,0.0423,0.0423,0,62,62,19,1,twofour,,,,,,,,,,,,,,,,,,,,,,,,,,,,,,,,,,,,,,,,,,,,,,,,,,,,,,,,,,,,,,,,,,,,,,,,,,,,,,,,,,,,,,,,,,,,,,,,,,,,,,,,,,,,,,,,,,,,,,,,,,,,,,,,,,,,,,,,,
,,6994c0c96df19159622d6e63,2026-03-17_12h25.26.014,kallum_motion_pilot_GIST_update_2,2026.1.1,Win32,60.24096386,6994c0c96df19159622d6e63,69b92ab4aef6dee357cd729a,69b92b77db62e537c6d8dbf0,0.0426,0.0426,0,63,63,114,1,sixfive,,,,,,,,,,,,,,,,,,,,,,,,,,,,,,,,,,,,,,,,,,,,,,,,,,,,,,,,,,,,,,,,,,,,,,,,,,,,,,,,,,,,,,,,,,,,,,,,,,,,,,,,,,,,,,,,,,,,,,,,,,,,,,,,,,,,,,,,,
,,6994c0c96df19159622d6e63,2026-03-17_12h25.26.014,kallum_motion_pilot_GIST_update_2,2026.1.1,Win32,60.24096386,6994c0c96df19159622d6e63,69b92ab4aef6dee357cd729a,69b92b77db62e537c6d8dbf0,0.0428,0.0428,0,64,64,150,1,eightsix,,,,,,,,,,,,,,,,,,,,,,,,,,,,,,,,,,,,,,,,,,,,,,,,,,,,,,,,,,,,,,,,,,,,,,,,,,,,,,,,,,,,,,,,,,,,,,,,,,,,,,,,,,,,,,,,,,,,,,,,,,,,,,,,,,,,,,,,,
,,6994c0c96df19159622d6e63,2026-03-17_12h25.26.014,kallum_motion_pilot_GIST_update_2,2026.1.1,Win32,60.24096386,6994c0c96df19159622d6e63,69b92ab4aef6dee357cd729a,69b92b77db62e537c6d8dbf0,0.0431,0.0431,0,65,65,30,1,fourtwo,,,,,,,,,,,,,,,,,,,,,,,,,,,,,,,,,,,,,,,,,,,,,,,,,,,,,,,,,,,,,,,,,,,,,,,,,,,,,,,,,,,,,,,,,,,,,,,,,,,,,,,,,,,,,,,,,,,,,,,,,,,,,,,,,,,,,,,,,
,,6994c0c96df19159622d6e63,2026-03-17_12h25.26.014,kallum_motion_pilot_GIST_update_2,2026.1.1,Win32,60.24096386,6994c0c96df19159622d6e63,69b92ab4aef6dee357cd729a,69b92b77db62e537c6d8dbf0,0.0434,0.0434,0,66,66,15,1,fourthree,,,,,,,,,,,,,,,,,,,,,,,,,,,,,,,,,,,,,,,,,,,,,,,,,,,,,,,,,,,,,,,,,,,,,,,,,,,,,,,,,,,,,,,,,,,,,,,,,,,,,,,,,,,,,,,,,,,,,,,,,,,,,,,,,,,,,,,,,
,,6994c0c96df19159622d6e63,2026-03-17_12h25.26.014,kallum_motion_pilot_GIST_update_2,2026.1.1,Win32,60.24096386,6994c0c96df19159622d6e63,69b92ab4aef6dee357cd729a,69b92b77db62e537c6d8dbf0,0.0436,0.0436,0,67,67,115,1,sixeight,,,,,,,,,,,,,,,,,,,,,,,,,,,,,,,,,,,,,,,,,,,,,,,,,,,,,,,,,,,,,,,,,,,,,,,,,,,,,,,,,,,,,,,,,,,,,,,,,,,,,,,,,,,,,,,,,,,,,,,,,,,,,,,,,,,,,,,,,
,,6994c0c96df19159622d6e63,2026-03-17_12h25.26.014,kallum_motion_pilot_GIST_update_2,2026.1.1,Win32,60.24096386,6994c0c96df19159622d6e63,69b92ab4aef6dee357cd729a,69b92b77db62e537c6d8dbf0,0.0439,0.0439,0,68,68,151,1,eightseven,,,,,,,,,,,,,,,,,,,,,,,,,,,,,,,,,,,,,,,,,,,,,,,,,,,,,,,,,,,,,,,,,,,,,,,,,,,,,,,,,,,,,,,,,,,,,,,,,,,,,,,,,,,,,,,,,,,,,,,,,,,,,,,,,,,,,,,,,
,,6994c0c96df19159622d6e63,2026-03-17_12h25.26.014,kallum_motion_pilot_GIST_update_2,2026.1.1,Win32,60.24096386,6994c0c96df19159622d6e63,69b92ab4aef6dee357cd729a,69b92b77db62e537c6d8dbf0,0.044,0.0441,0,69,69,46,1,fourtwo,,,,,,,,,,,,,,,,,,,,,,,,,,,,,,,,,,,,,,,,,,,,,,,,,,,,,,,,,,,,,,,,,,,,,,,,,,,,,,,,,,,,,,,,,,,,,,,,,,,,,,,,,,,,,,,,,,,,,,,,,,,,,,,,,,,,,,,,,
,,6994c0c96df19159622d6e63,2026-03-17_12h25.26.014,kallum_motion_pilot_GIST_update_2,2026.1.1,Win32,60.24096386,6994c0c96df19159622d6e63,69b92ab4aef6dee357cd729a,69b92b77db62e537c6d8dbf0,0.0442,0.0442,0,70,70,20,1,threeone,,,,,,,,,,,,,,,,,,,,,,,,,,,,,,,,,,,,,,,,,,,,,,,,,,,,,,,,,,,,,,,,,,,,,,,,,,,,,,,,,,,,,,,,,,,,,,,,,,,,,,,,,,,,,,,,,,,,,,,,,,,,,,,,,,,,,,,,,
,,6994c0c96df19159622d6e63,2026-03-17_12h25.26.014,kallum_motion_pilot_GIST_update_2,2026.1.1,Win32,60.24096386,6994c0c96df19159622d6e63,69b92ab4aef6dee357cd729a,69b92b77db62e537c6d8dbf0,0.0443,0.0444,0,71,71,51,1,twofour,,,,,,,,,,,,,,,,,,,,,,,,,,,,,,,,,,,,,,,,,,,,,,,,,,,,,,,,,,,,,,,,,,,,,,,,,,,,,,,,,,,,,,,,,,,,,,,,,,,,,,,,,,,,,,,,,,,,,,,,,,,,,,,,,,,,,,,,,
,,6994c0c96df19159622d6e63,2026-03-17_12h25.26.014,kallum_motion_pilot_GIST_update_2,2026.1.1,Win32,60.24096386,6994c0c96df19159622d6e63,69b92ab4aef6dee357cd729a,69b92b77db62e537c6d8dbf0,0.0445,0.0445,0,72,72,92,1,sevenfive,,,,,,,,,,,,,,,,,,,,,,,,,,,,,,,,,,,,,,,,,,,,,,,,,,,,,,,,,,,,,,,,,,,,,,,,,,,,,,,,,,,,,,,,,,,,,,,,,,,,,,,,,,,,,,,,,,,,,,,,,,,,,,,,,,,,,,,,,
,,6994c0c96df19159622d6e63,2026-03-17_12h25.26.014,kallum_motion_pilot_GIST_update_2,2026.1.1,Win32,60.24096386,6994c0c96df19159622d6e63,69b92ab4aef6dee357cd729a,69b92b77db62e537c6d8dbf0,0.0447,0.0447,0,73,73,36,1,threeone,,,,,,,,,,,,,,,,,,,,,,,,,,,,,,,,,,,,,,,,,,,,,,,,,,,,,,,,,,,,,,,,,,,,,,,,,,,,,,,,,,,,,,,,,,,,,,,,,,,,,,,,,,,,,,,,,,,,,,,,,,,,,,,,,,,,,,,,,
,,6994c0c96df19159622d6e63,2026-03-17_12h25.26.014,kallum_motion_pilot_GIST_update_2,2026.1.1,Win32,60.24096386,6994c0c96df19159622d6e63,69b92ab4aef6dee357cd729a,69b92b77db62e537c6d8dbf0,0.045,0.045,0,74,74,104,1,fivesix,,,,,,,,,,,,,,,,,,,,,,,,,,,,,,,,,,,,,,,,,,,,,,,,,,,,,,,,,,,,,,,,,,,,,,,,,,,,,,,,,,,,,,,,,,,,,,,,,,,,,,,,,,,,,,,,,,,,,,,,,,,,,,,,,,,,,,,,,
,,6994c0c96df19159622d6e63,2026-03-17_12h25.26.014,kallum_motion_pilot_GIST_update_2,2026.1.1,Win32,60.24096386,6994c0c96df19159622d6e63,69b92ab4aef6dee357cd729a,69b92b77db62e537c6d8dbf0,0.0451,0.0451,0,75,75,59,1,twofour,,,,,,,,,,,,,,,,,,,,,,,,,,,,,,,,,,,,,,,,,,,,,,,,,,,,,,,,,,,,,,,,,,,,,,,,,,,,,,,,,,,,,,,,,,,,,,,,,,,,,,,,,,,,,,,,,,,,,,,,,,,,,,,,,,,,,,,,,
,,6994c0c96df19159622d6e63,2026-03-17_12h25.26.014,kallum_motion_pilot_GIST_update_2,2026.1.1,Win32,60.24096386,6994c0c96df19159622d6e63,69b92ab4aef6dee357cd729a,69b92b77db62e537c6d8dbf0,0.0453,0.0453,0,76,76,74,1,twoone,,,,,,,,,,,,,,,,,,,,,,,,,,,,,,,,,,,,,,,,,,,,,,,,,,,,,,,,,,,,,,,,,,,,,,,,,,,,,,,,,,,,,,,,,,,,,,,,,,,,,,,,,,,,,,,,,,,,,,,,,,,,,,,,,,,,,,,,,
,,6994c0c96df19159622d6e63,2026-03-17_12h25.26.014,kallum_motion_pilot_GIST_update_2,2026.1.1,Win32,60.24096386,6994c0c96df19159622d6e63,69b92ab4aef6dee357cd729a,69b92b77db62e537c6d8dbf0,0.0455,0.0455,0,77,77,106,1,sixfive,,,,,,,,,,,,,,,,,,,,,,,,,,,,,,,,,,,,,,,,,,,,,,,,,,,,,,,,,,,,,,,,,,,,,,,,,,,,,,,,,,,,,,,,,,,,,,,,,,,,,,,,,,,,,,,,,,,,,,,,,,,,,,,,,,,,,,,,,
,,6994c0c96df19159622d6e63,2026-03-17_12h25.26.014,kallum_motion_pilot_GIST_update_2,2026.1.1,Win32,60.24096386,6994c0c96df19159622d6e63,69b92ab4aef6dee357cd729a,69b92b77db62e537c6d8dbf0,0.0456,0.0456,0,78,78,118,1,eightsix,,,,,,,,,,,,,,,,,,,,,,,,,,,,,,,,,,,,,,,,,,,,,,,,,,,,,,,,,,,,,,,,,,,,,,,,,,,,,,,,,,,,,,,,,,,,,,,,,,,,,,,,,,,,,,,,,,,,,,,,,,,,,,,,,,,,,,,,,
,,6994c0c96df19159622d6e63,2026-03-17_12h25.26.014,kallum_motion_pilot_GIST_update_2,2026.1.1,Win32,60.24096386,6994c0c96df19159622d6e63,69b92ab4aef6dee357cd729a,69b92b77db62e537c6d8dbf0,0.0458,0.0458,0,79,79,141,1,seveneight,,,,,,,,,,,,,,,,,,,,,,,,,,,,,,,,,,,,,,,,,,,,,,,,,,,,,,,,,,,,,,,,,,,,,,,,,,,,,,,,,,,,,,,,,,,,,,,,,,,,,,,,,,,,,,,,,,,,,,,,,,,,,,,,,,,,,,,,,
,,6994c0c96df19159622d6e63,2026-03-17_12h25.26.014,kallum_motion_pilot_GIST_update_2,2026.1.1,Win32,60.24096386,6994c0c96df19159622d6e63,69b92ab4aef6dee357cd729a,69b92b77db62e537c6d8dbf0,0.0461,0.0461,0,80,80,33,1,onethree,,,,,,,,,,,,,,,,,,,,,,,,,,,,,,,,,,,,,,,,,,,,,,,,,,,,,,,,,,,,,,,,,,,,,,,,,,,,,,,,,,,,,,,,,,,,,,,,,,,,,,,,,,,,,,,,,,,,,,,,,,,,,,,,,,,,,,,,,
,,6994c0c96df19159622d6e63,2026-03-17_12h25.26.014,kallum_motion_pilot_GIST_update_2,2026.1.1,Win32,60.24096386,6994c0c96df19159622d6e63,69b92ab4aef6dee357cd729a,69b92b77db62e537c6d8dbf0,0.0463,0.0463,0,81,81,138,1,sixfive,,,,,,,,,,,,,,,,,,,,,,,,,,,,,,,,,,,,,,,,,,,,,,,,,,,,,,,,,,,,,,,,,,,,,,,,,,,,,,,,,,,,,,,,,,,,,,,,,,,,,,,,,,,,,,,,,,,,,,,,,,,,,,,,,,,,,,,,,
,,6994c0c96df19159622d6e63,2026-03-17_12h25.26.014,kallum_motion_pilot_GIST_update_2,2026.1.1,Win32,60.24096386,6994c0c96df19159622d6e63,69b92ab4aef6dee357cd729a,69b92b77db62e537c6d8dbf0,0.0466,0.0466,0,82,82,43,1,twofour,,,,,,,,,,,,,,,,,,,,,,,,,,,,,,,,,,,,,,,,,,,,,,,,,,,,,,,,,,,,,,,,,,,,,,,,,,,,,,,,,,,,,,,,,,,,,,,,,,,,,,,,,,,,,,,,,,,,,,,,,,,,,,,,,,,,,,,,,
,,6994c0c96df19159622d6e63,2026-03-17_12h25.26.014,kallum_motion_pilot_GIST_update_2,2026.1.1,Win32,60.24096386,6994c0c96df19159622d6e63,69b92ab4aef6dee357cd729a,69b92b77db62e537c6d8dbf0,0.0467,0.0467,0,83,83,131,1,sixeight,,,,,,,,,,,,,,,,,,,,,,,,,,,,,,,,,,,,,,,,,,,,,,,,,,,,,,,,,,,,,,,,,,,,,,,,,,,,,,,,,,,,,,,,,,,,,,,,,,,,,,,,,,,,,,,,,,,,,,,,,,,,,,,,,,,,,,,,,
,,6994c0c96df19159622d6e63,2026-03-17_12h25.26.014,kallum_motion_pilot_GIST_update_2,2026.1.1,Win32,60.24096386,6994c0c96df19159622d6e63,69b92ab4aef6dee357cd729a,69b92b77db62e537c6d8dbf0,0.0469,0.0469,0,84,84,75,1,twofour,,,,,,,,,,,,,,,,,,,,,,,,,,,,,,,,,,,,,,,,,,,,,,,,,,,,,,,,,,,,,,,,,,,,,,,,,,,,,,,,,,,,,,,,,,,,,,,,,,,,,,,,,,,,,,,,,,,,,,,,,,,,,,,,,,,,,,,,,
,,6994c0c96df19159622d6e63,2026-03-17_12h25.26.014,kallum_motion_pilot_GIST_update_2,2026.1.1,Win32,60.24096386,6994c0c96df19159622d6e63,69b92ab4aef6dee357cd729a,69b92b77db62e537c6d8dbf0,0.0473,0.0473,0,85,85,48,1,onetwo,,,,,,,,,,,,,,,,,,,,,,,,,,,,,,,,,,,,,,,,,,,,,,,,,,,,,,,,,,,,,,,,,,,,,,,,,,,,,,,,,,,,,,,,,,,,,,,,,,,,,,,,,,,,,,,,,,,,,,,,,,,,,,,,,,,,,,,,,
,,6994c0c96df19159622d6e63,2026-03-17_12h25.26.014,kallum_motion_pilot_GIST_update_2,2026.1.1,Win32,60.24096386,6994c0c96df19159622d6e63,69b92ab4aef6dee357cd729a,69b92b77db62e537c6d8dbf0,0.0475,0.0475,0,86,86,9,1,onethree,,,,,,,,,,,,,,,,,,,,,,,,,,,,,,,,,,,,,,,,,,,,,,,,,,,,,,,,,,,,,,,,,,,,,,,,,,,,,,,,,,,,,,,,,,,,,,,,,,,,,,,,,,,,,,,,,,,,,,,,,,,,,,,,,,,,,,,,,
,,6994c0c96df19159622d6e63,2026-03-17_12h25.26.014,kallum_motion_pilot_GIST_update_2,2026.1.1,Win32,60.24096386,6994c0c96df19159622d6e63,69b92ab4aef6dee357cd729a,69b92b77db62e537c6d8dbf0,0.0477,0.0477,0,87,87,40,1,onetwo,,,,,,,,,,,,,,,,,,,,,,,,,,,,,,,,,,,,,,,,,,,,,,,,,,,,,,,,,,,,,,,,,,,,,,,,,,,,,,,,,,,,,,,,,,,,,,,,,,,,,,,,,,,,,,,,,,,,,,,,,,,,,,,,,,,,,,,,,
,,6994c0c96df19159622d6e63,2026-03-17_12h25.26.014,kallum_motion_pilot_GIST_update_2,2026.1.1,Win32,60.24096386,6994c0c96df19159622d6e63,69b92ab4aef6dee357cd729a,69b92b77db62e537c6d8dbf0,0.048,0.048,0,88,88,4,1,threeone,,,,,,,,,,,,,,,,,,,,,,,,,,,,,,,,,,,,,,,,,,,,,,,,,,,,,,,,,,,,,,,,,,,,,,,,,,,,,,,,,,,,,,,,,,,,,,,,,,,,,,,,,,,,,,,,,,,,,,,,,,,,,,,,,,,,,,,,,
,,6994c0c96df19159622d6e63,2026-03-17_12h25.26.014,kallum_motion_pilot_GIST_update_2,2026.1.1,Win32,60.24096386,6994c0c96df19159622d6e63,69b92ab4aef6dee357cd729a,69b92b77db62e537c6d8dbf0,0.0483,0.0483,0,89,89,14,1,fourtwo,,,,,,,,,,,,,,,,,,,,,,,,,,,,,,,,,,,,,,,,,,,,,,,,,,,,,,,,,,,,,,,,,,,,,,,,,,,,,,,,,,,,,,,,,,,,,,,,,,,,,,,,,,,,,,,,,,,,,,,,,,,,,,,,,,,,,,,,,
,,6994c0c96df19159622d6e63,2026-03-17_12h25.26.014,kallum_motion_pilot_GIST_update_2,2026.1.1,Win32,60.24096386,6994c0c96df19159622d6e63,69b92ab4aef6dee357cd729a,69b92b77db62e537c6d8dbf0,0.0485,0.0485,0,90,90,21,1,threefour,,,,,,,,,,,,,,,,,,,,,,,,,,,,,,,,,,,,,,,,,,,,,,,,,,,,,,,,,,,,,,,,,,,,,,,,,,,,,,,,,,,,,,,,,,,,,,,,,,,,,,,,,,,,,,,,,,,,,,,,,,,,,,,,,,,,,,,,,
,,6994c0c96df19159622d6e63,2026-03-17_12h25.26.014,kallum_motion_pilot_GIST_update_2,2026.1.1,Win32,60.24096386,6994c0c96df19159622d6e63,69b92ab4aef6dee357cd729a,69b92b77db62e537c6d8dbf0,0.0487,0.0487,0,91,91,111,1,eightseven,,,,,,,,,,,,,,,,,,,,,,,,,,,,,,,,,,,,,,,,,,,,,,,,,,,,,,,,,,,,,,,,,,,,,,,,,,,,,,,,,,,,,,,,,,,,,,,,,,,,,,,,,,,,,,,,,,,,,,,,,,,,,,,,,,,,,,,,,
,,6994c0c96df19159622d6e63,2026-03-17_12h25.26.014,kallum_motion_pilot_GIST_update_2,2026.1.1,Win32,60.24096386,6994c0c96df19159622d6e63,69b92ab4aef6dee357cd729a,69b92b77db62e537c6d8dbf0,0.0489,0.0489,0,92,92,53,1,threefour,,,,,,,,,,,,,,,,,,,,,,,,,,,,,,,,,,,,,,,,,,,,,,,,,,,,,,,,,,,,,,,,,,,,,,,,,,,,,,,,,,,,,,,,,,,,,,,,,,,,,,,,,,,,,,,,,,,,,,,,,,,,,,,,,,,,,,,,,
,,6994c0c96df19159622d6e63,2026-03-17_12h25.26.014,kallum_motion_pilot_GIST_update_2,2026.1.1,Win32,60.24096386,6994c0c96df19159622d6e63,69b92ab4aef6dee357cd729a,69b92b77db62e537c6d8dbf0,0.049,0.049,0,93,93,27,1,twofour,,,,,,,,,,,,,,,,,,,,,,,,,,,,,,,,,,,,,,,,,,,,,,,,,,,,,,,,,,,,,,,,,,,,,,,,,,,,,,,,,,,,,,,,,,,,,,,,,,,,,,,,,,,,,,,,,,,,,,,,,,,,,,,,,,,,,,,,,
,,6994c0c96df19159622d6e63,2026-03-17_12h25.26.014,kallum_motion_pilot_GIST_update_2,2026.1.1,Win32,60.24096386,6994c0c96df19159622d6e63,69b92ab4aef6dee357cd729a,69b92b77db62e537c6d8dbf0,0.0492,0.0492,0,94,94,24,1,onetwo,,,,,,,,,,,,,,,,,,,,,,,,,,,,,,,,,,,,,,,,,,,,,,,,,,,,,,,,,,,,,,,,,,,,,,,,,,,,,,,,,,,,,,,,,,,,,,,,,,,,,,,,,,,,,,,,,,,,,,,,,,,,,,,,,,,,,,,,,
,,6994c0c96df19159622d6e63,2026-03-17_12h25.26.014,kallum_motion_pilot_GIST_update_2,2026.1.1,Win32,60.24096386,6994c0c96df19159622d6e63,69b92ab4aef6dee357cd729a,69b92b77db62e537c6d8dbf0,0.0494,0.0495,0,95,95,108,1,sevenfive,,,,,,,,,,,,,,,,,,,,,,,,,,,,,,,,,,,,,,,,,,,,,,,,,,,,,,,,,,,,,,,,,,,,,,,,,,,,,,,,,,,,,,,,,,,,,,,,,,,,,,,,,,,,,,,,,,,,,,,,,,,,,,,,,,,,,,,,,
,,6994c0c96df19159622d6e63,2026-03-17_12h25.26.014,kallum_motion_pilot_GIST_update_2,2026.1.1,Win32,60.24096386,6994c0c96df19159622d6e63,69b92ab4aef6dee357cd729a,69b92b77db62e537c6d8dbf0,0.0497,0.0497,0,96,96,28,1,threeone,,,,,,,,,,,,,,,,,,,,,,,,,,,,,,,,,,,,,,,,,,,,,,,,,,,,,,,,,,,,,,,,,,,,,,,,,,,,,,,,,,,,,,,,,,,,,,,,,,,,,,,,,,,,,,,,,,,,,,,,,,,,,,,,,,,,,,,,,
,,6994c0c96df19159622d6e63,2026-03-17_12h25.26.014,kallum_motion_pilot_GIST_update_2,2026.1.1,Win32,60.24096386,6994c0c96df19159622d6e63,69b92ab4aef6dee357cd729a,69b92b77db62e537c6d8dbf0,0.0499,0.0499,0,97,97,39,1,fourthree,,,,,,,,,,,,,,,,,,,,,,,,,,,,,,,,,,,,,,,,,,,,,,,,,,,,,,,,,,,,,,,,,,,,,,,,,,,,,,,,,,,,,,,,,,,,,,,,,,,,,,,,,,,,,,,,,,,,,,,,,,,,,,,,,,,,,,,,,
,,6994c0c96df19159622d6e63,2026-03-17_12h25.26.014,kallum_motion_pilot_GIST_update_2,2026.1.1,Win32,60.24096386,6994c0c96df19159622d6e63,69b92ab4aef6dee357cd729a,69b92b77db62e537c6d8dbf0,0.05,0.05,0,98,98,63,1,fourthree,,,,,,,,,,,,,,,,,,,,,,,,,,,,,,,,,,,,,,,,,,,,,,,,,,,,,,,,,,,,,,,,,,,,,,,,,,,,,,,,,,,,,,,,,,,,,,,,,,,,,,,,,,,,,,,,,,,,,,,,,,,,,,,,,,,,,,,,,
,,6994c0c96df19159622d6e63,2026-03-17_12h25.26.014,kallum_motion_pilot_GIST_update_2,2026.1.1,Win32,60.24096386,6994c0c96df19159622d6e63,69b92ab4aef6dee357cd729a,69b92b77db62e537c6d8dbf0,0.0502,0.0502,0,99,99,145,1,fiveseven,,,,,,,,,,,,,,,,,,,,,,,,,,,,,,,,,,,,,,,,,,,,,,,,,,,,,,,,,,,,,,,,,,,,,,,,,,,,,,,,,,,,,,,,,,,,,,,,,,,,,,,,,,,,,,,,,,,,,,,,,,,,,,,,,,,,,,,,,
,,6994c0c96df19159622d6e63,2026-03-17_12h25.26.014,kallum_motion_pilot_GIST_update_2,2026.1.1,Win32,60.24096386,6994c0c96df19159622d6e63,69b92ab4aef6dee357cd729a,69b92b77db62e537c6d8dbf0,0.0503,0.0503,0,100,100,72,1,onetwo,,,,,,,,,,,,,,,,,,,,,,,,,,,,,,,,,,,,,,,,,,,,,,,,,,,,,,,,,,,,,,,,,,,,,,,,,,,,,,,,,,,,,,,,,,,,,,,,,,,,,,,,,,,,,,,,,,,,,,,,,,,,,,,,,,,,,,,,,
,,6994c0c96df19159622d6e63,2026-03-17_12h25.26.014,kallum_motion_pilot_GIST_update_2,2026.1.1,Win32,60.24096386,6994c0c96df19159622d6e63,69b92ab4aef6dee357cd729a,69b92b77db62e537c6d8dbf0,0.0505,0.0505,0,101,101,76,1,threeone,,,,,,,,,,,,,,,,,,,,,,,,,,,,,,,,,,,,,,,,,,,,,,,,,,,,,,,,,,,,,,,,,,,,,,,,,,,,,,,,,,,,,,,,,,,,,,,,,,,,,,,,,,,,,,,,,,,,,,,,,,,,,,,,,,,,,,,,,
,,6994c0c96df19159622d6e63,2026-03-17_12h25.26.014,kallum_motion_pilot_GIST_update_2,2026.1.1,Win32,60.24096386,6994c0c96df19159622d6e63,69b92ab4aef6dee357cd729a,69b92b77db62e537c6d8dbf0,0.0506,0.0506,0,102,102,153,1,fiveseven,,,,,,,,,,,,,,,,,,,,,,,,,,,,,,,,,,,,,,,,,,,,,,,,,,,,,,,,,,,,,,,,,,,,,,,,,,,,,,,,,,,,,,,,,,,,,,,,,,,,,,,,,,,,,,,,,,,,,,,,,,,,,,,,,,,,,,,,,
,,6994c0c96df19159622d6e63,2026-03-17_12h25.26.014,kallum_motion_pilot_GIST_update_2,2026.1.1,Win32,60.24096386,6994c0c96df19159622d6e63,69b92ab4aef6dee357cd729a,69b92b77db62e537c6d8dbf0,0.0509,0.0509,0,103,103,137,1,fiveseven,,,,,,,,,,,,,,,,,,,,,,,,,,,,,,,,,,,,,,,,,,,,,,,,,,,,,,,,,,,,,,,,,,,,,,,,,,,,,,,,,,,,,,,,,,,,,,,,,,,,,,,,,,,,,,,,,,,,,,,,,,,,,,,,,,,,,,,,,
,,6994c0c96df19159622d6e63,2026-03-17_12h25.26.014,kallum_motion_pilot_GIST_update_2,2026.1.1,Win32,60.24096386,6994c0c96df19159622d6e63,69b92ab4aef6dee357cd729a,69b92b77db62e537c6d8dbf0,0.0512,0.0512,0,104,104,148,1,sevenfive,,,,,,,,,,,,,,,,,,,,,,,,,,,,,,,,,,,,,,,,,,,,,,,,,,,,,,,,,,,,,,,,,,,,,,,,,,,,,,,,,,,,,,,,,,,,,,,,,,,,,,,,,,,,,,,,,,,,,,,,,,,,,,,,,,,,,,,,,
,,6994c0c96df19159622d6e63,2026-03-17_12h25.26.014,kallum_motion_pilot_GIST_update_2,2026.1.1,Win32,60.24096386,6994c0c96df19159622d6e63,69b92ab4aef6dee357cd729a,69b92b77db62e537c6d8dbf0,0.0513,0.0513,0,105,105,34,1,twoone,,,,,,,,,,,,,,,,,,,,,,,,,,,,,,,,,,,,,,,,,,,,,,,,,,,,,,,,,,,,,,,,,,,,,,,,,,,,,,,,,,,,,,,,,,,,,,,,,,,,,,,,,,,,,,,,,,,,,,,,,,,,,,,,,,,,,,,,,
,,6994c0c96df19159622d6e63,2026-03-17_12h25.26.014,kallum_motion_pilot_GIST_update_2,2026.1.1,Win32,60.24096386,6994c0c96df19159622d6e63,69b92ab4aef6dee357cd729a,69b92b77db62e537c6d8dbf0,0.0514,0.0514,0,106,106,29,1,threefour,,,,,,,,,,,,,,,,,,,,,,,,,,,,,,,,,,,,,,,,,,,,,,,,,,,,,,,,,,,,,,,,,,,,,,,,,,,,,,,,,,,,,,,,,,,,,,,,,,,,,,,,,,,,,,,,,,,,,,,,,,,,,,,,,,,,,,,,,
,,6994c0c96df19159622d6e63,2026-03-17_12h25.26.014,kallum_motion_pilot_GIST_update_2,2026.1.1,Win32,60.24096386,6994c0c96df19159622d6e63,69b92ab4aef6dee357cd729a,69b92b77db62e537c6d8dbf0,0.0516,0.0516,0,107,107,147,1,sixeight,,,,,,,,,,,,,,,,,,,,,,,,,,,,,,,,,,,,,,,,,,,,,,,,,,,,,,,,,,,,,,,,,,,,,,,,,,,,,,,,,,,,,,,,,,,,,,,,,,,,,,,,,,,,,,,,,,,,,,,,,,,,,,,,,,,,,,,,,
,,6994c0c96df19159622d6e63,2026-03-17_12h25.26.014,kallum_motion_pilot_GIST_update_2,2026.1.1,Win32,60.24096386,6994c0c96df19159622d6e63,69b92ab4aef6dee357cd729a,69b92b77db62e537c6d8dbf0,0.0518,0.0518,0,108,108,58,1,twoone,,,,,,,,,,,,,,,,,,,,,,,,,,,,,,,,,,,,,,,,,,,,,,,,,,,,,,,,,,,,,,,,,,,,,,,,,,,,,,,,,,,,,,,,,,,,,,,,,,,,,,,,,,,,,,,,,,,,,,,,,,,,,,,,,,,,,,,,,
,,6994c0c96df19159622d6e63,2026-03-17_12h25.26.014,kallum_motion_pilot_GIST_update_2,2026.1.1,Win32,60.24096386,6994c0c96df19159622d6e63,69b92ab4aef6dee357cd729a,69b92b77db62e537c6d8dbf0,0.0519,0.052,0,109,109,45,1,threefour,,,,,,,,,,,,,,,,,,,,,,,,,,,,,,,,,,,,,,,,,,,,,,,,,,,,,,,,,,,,,,,,,,,,,,,,,,,,,,,,,,,,,,,,,,,,,,,,,,,,,,,,,,,,,,,,,,,,,,,,,,,,,,,,,,,,,,,,,
,,6994c0c96df19159622d6e63,2026-03-17_12h25.26.014,kallum_motion_pilot_GIST_update_2,2026.1.1,Win32,60.24096386,6994c0c96df19159622d6e63,69b92ab4aef6dee357cd729a,69b92b77db62e537c6d8dbf0,0.0521,0.0521,0,110,110,78,1,fourtwo,,,,,,,,,,,,,,,,,,,,,,,,,,,,,,,,,,,,,,,,,,,,,,,,,,,,,,,,,,,,,,,,,,,,,,,,,,,,,,,,,,,,,,,,,,,,,,,,,,,,,,,,,,,,,,,,,,,,,,,,,,,,,,,,,,,,,,,,,
,,6994c0c96df19159622d6e63,2026-03-17_12h25.26.014,kallum_motion_pilot_GIST_update_2,2026.1.1,Win32,60.24096386,6994c0c96df19159622d6e63,69b92ab4aef6dee357cd729a,69b92b77db62e537c6d8dbf0,0.0522,0.0522,0,111,111,52,1,threeone,,,,,,,,,,,,,,,,,,,,,,,,,,,,,,,,,,,,,,,,,,,,,,,,,,,,,,,,,,,,,,,,,,,,,,,,,,,,,,,,,,,,,,,,,,,,,,,,,,,,,,,,,,,,,,,,,,,,,,,,,,,,,,,,,,,,,,,,,
,,6994c0c96df19159622d6e63,2026-03-17_12h25.26.014,kallum_motion_pilot_GIST_update_2,2026.1.1,Win32,60.24096386,6994c0c96df19159622d6e63,69b92ab4aef6dee357cd729a,69b92b77db62e537c6d8dbf0,0.0523,0.0524,0,112,112,152,1,fivesix,,,,,,,,,,,,,,,,,,,,,,,,,,,,,,,,,,,,,,,,,,,,,,,,,,,,,,,,,,,,,,,,,,,,,,,,,,,,,,,,,,,,,,,,,,,,,,,,,,,,,,,,,,,,,,,,,,,,,,,,,,,,,,,,,,,,,,,,,
,,6994c0c96df19159622d6e63,2026-03-17_12h25.26.014,kallum_motion_pilot_GIST_update_2,2026.1.1,Win32,60.24096386,6994c0c96df19159622d6e63,69b92ab4aef6dee357cd729a,69b92b77db62e537c6d8dbf0,0.0526,0.0526,0,113,113,98,1,sixfive,,,,,,,,,,,,,,,,,,,,,,,,,,,,,,,,,,,,,,,,,,,,,,,,,,,,,,,,,,,,,,,,,,,,,,,,,,,,,,,,,,,,,,,,,,,,,,,,,,,,,,,,,,,,,,,,,,,,,,,,,,,,,,,,,,,,,,,,,
,,6994c0c96df19159622d6e63,2026-03-17_12h25.26.014,kallum_motion_pilot_GIST_update_2,2026.1.1,Win32,60.24096386,6994c0c96df19159622d6e63,69b92ab4aef6dee357cd729a,69b92b77db62e537c6d8dbf0,0.0528,0.0528,0,114,114,88,1,fivesix,,,,,,,,,,,,,,,,,,,,,,,,,,,,,,,,,,,,,,,,,,,,,,,,,,,,,,,,,,,,,,,,,,,,,,,,,,,,,,,,,,,,,,,,,,,,,,,,,,,,,,,,,,,,,,,,,,,,,,,,,,,,,,,,,,,,,,,,,
,,6994c0c96df19159622d6e63,2026-03-17_12h25.26.014,kallum_motion_pilot_GIST_update_2,2026.1.1,Win32,60.24096386,6994c0c96df19159622d6e63,69b92ab4aef6dee357cd729a,69b92b77db62e537c6d8dbf0,0.0529,0.0529,0,115,115,68,1,threeone,,,,,,,,,,,,,,,,,,,,,,,,,,,,,,,,,,,,,,,,,,,,,,,,,,,,,,,,,,,,,,,,,,,,,,,,,,,,,,,,,,,,,,,,,,,,,,,,,,,,,,,,,,,,,,,,,,,,,,,,,,,,,,,,,,,,,,,,,
,,6994c0c96df19159622d6e63,2026-03-17_12h25.26.014,kallum_motion_pilot_GIST_update_2,2026.1.1,Win32,60.24096386,6994c0c96df19159622d6e63,69b92ab4aef6dee357cd729a,69b92b77db62e537c6d8dbf0,0.0532,0.0532,0,116,116,50,1,twoone,,,,,,,,,,,,,,,,,,,,,,,,,,,,,,,,,,,,,,,,,,,,,,,,,,,,,,,,,,,,,,,,,,,,,,,,,,,,,,,,,,,,,,,,,,,,,,,,,,,,,,,,,,,,,,,,,,,,,,,,,,,,,,,,,,,,,,,,,
,,6994c0c96df19159622d6e63,2026-03-17_12h25.26.014,kallum_motion_pilot_GIST_update_2,2026.1.1,Win32,60.24096386,6994c0c96df19159622d6e63,69b92ab4aef6dee357cd729a,69b92b77db62e537c6d8dbf0,0.0535,0.0535,0,117,117,47,1,fourthree,,,,,,,,,,,,,,,,,,,,,,,,,,,,,,,,,,,,,,,,,,,,,,,,,,,,,,,,,,,,,,,,,,,,,,,,,,,,,,,,,,,,,,,,,,,,,,,,,,,,,,,,,,,,,,,,,,,,,,,,,,,,,,,,,,,,,,,,,
,,6994c0c96df19159622d6e63,2026-03-17_12h25.26.014,kallum_motion_pilot_GIST_update_2,2026.1.1,Win32,60.24096386,6994c0c96df19159622d6e63,69b92ab4aef6dee357cd729a,69b92b77db62e537c6d8dbf0,0.0538,0.0538,0,118,118,3,1,twofour,,,,,,,,,,,,,,,,,,,,,,,,,,,,,,,,,,,,,,,,,,,,,,,,,,,,,,,,,,,,,,,,,,,,,,,,,,,,,,,,,,,,,,,,,,,,,,,,,,,,,,,,,,,,,,,,,,,,,,,,,,,,,,,,,,,,,,,,,
,,6994c0c96df19159622d6e63,2026-03-17_12h25.26.014,kallum_motion_pilot_GIST_update_2,2026.1.1,Win32,60.24096386,6994c0c96df19159622d6e63,69b92ab4aef6dee357cd729a,69b92b77db62e537c6d8dbf0,0.0541,0.0541,0,119,119,105,1,fiveseven,,,,,,,,,,,,,,,,,,,,,,,,,,,,,,,,,,,,,,,,,,,,,,,,,,,,,,,,,,,,,,,,,,,,,,,,,,,,,,,,,,,,,,,,,,,,,,,,,,,,,,,,,,,,,,,,,,,,,,,,,,,,,,,,,,,,,,,,,
,,6994c0c96df19159622d6e63,2026-03-17_12h25.26.014,kallum_motion_pilot_GIST_update_2,2026.1.1,Win32,60.24096386,6994c0c96df19159622d6e63,69b92ab4aef6dee357cd729a,69b92b77db62e537c6d8dbf0,0.0543,0.0543,0,120,120,128,1,fivesix,,,,,,,,,,,,,,,,,,,,,,,,,,,,,,,,,,,,,,,,,,,,,,,,,,,,,,,,,,,,,,,,,,,,,,,,,,,,,,,,,,,,,,,,,,,,,,,,,,,,,,,,,,,,,,,,,,,,,,,,,,,,,,,,,,,,,,,,,
,,6994c0c96df19159622d6e63,2026-03-17_12h25.26.014,kallum_motion_pilot_GIST_update_2,2026.1.1,Win32,60.24096386,6994c0c96df19159622d6e63,69b92ab4aef6dee357cd729a,69b92b77db62e537c6d8dbf0,0.0546,0.0546,0,121,121,69,1,threefour,,,,,,,,,,,,,,,,,,,,,,,,,,,,,,,,,,,,,,,,,,,,,,,,,,,,,,,,,,,,,,,,,,,,,,,,,,,,,,,,,,,,,,,,,,,,,,,,,,,,,,,,,,,,,,,,,,,,,,,,,,,,,,,,,,,,,,,,,
,,6994c0c96df19159622d6e63,2026-03-17_12h25.26.014,kallum_motion_pilot_GIST_update_2,2026.1.1,Win32,60.24096386,6994c0c96df19159622d6e63,69b92ab4aef6dee357cd729a,69b92b77db62e537c6d8dbf0,0.055,0.055,0,122,122,23,1,fourthree,,,,,,,,,,,,,,,,,,,,,,,,,,,,,,,,,,,,,,,,,,,,,,,,,,,,,,,,,,,,,,,,,,,,,,,,,,,,,,,,,,,,,,,,,,,,,,,,,,,,,,,,,,,,,,,,,,,,,,,,,,,,,,,,,,,,,,,,,
,,6994c0c96df19159622d6e63,2026-03-17_12h25.26.014,kallum_motion_pilot_GIST_update_2,2026.1.1,Win32,60.24096386,6994c0c96df19159622d6e63,69b92ab4aef6dee357cd729a,69b92b77db62e537c6d8dbf0,0.0552,0.0552,0,123,123,41,1,onethree,,,,,,,,,,,,,,,,,,,,,,,,,,,,,,,,,,,,,,,,,,,,,,,,,,,,,,,,,,,,,,,,,,,,,,,,,,,,,,,,,,,,,,,,,,,,,,,,,,,,,,,,,,,,,,,,,,,,,,,,,,,,,,,,,,,,,,,,,
,,6994c0c96df19159622d6e63,2026-03-17_12h25.26.014,kallum_motion_pilot_GIST_update_2,2026.1.1,Win32,60.24096386,6994c0c96df19159622d6e63,69b92ab4aef6dee357cd729a,69b92b77db62e537c6d8dbf0,0.0555,0.0555,0,124,124,81,1,fiveseven,,,,,,,,,,,,,,,,,,,,,,,,,,,,,,,,,,,,,,,,,,,,,,,,,,,,,,,,,,,,,,,,,,,,,,,,,,,,,,,,,,,,,,,,,,,,,,,,,,,,,,,,,,,,,,,,,,,,,,,,,,,,,,,,,,,,,,,,,
,,6994c0c96df19159622d6e63,2026-03-17_12h25.26.014,kallum_motion_pilot_GIST_update_2,2026.1.1,Win32,60.24096386,6994c0c96df19159622d6e63,69b92ab4aef6dee357cd729a,69b92b77db62e537c6d8dbf0,0.0558,0.0558,0,125,125,120,1,fivesix,,,,,,,,,,,,,,,,,,,,,,,,,,,,,,,,,,,,,,,,,,,,,,,,,,,,,,,,,,,,,,,,,,,,,,,,,,,,,,,,,,,,,,,,,,,,,,,,,,,,,,,,,,,,,,,,,,,,,,,,,,,,,,,,,,,,,,,,,
,,6994c0c96df19159622d6e63,2026-03-17_12h25.26.014,kallum_motion_pilot_GIST_update_2,2026.1.1,Win32,60.24096386,6994c0c96df19159622d6e63,69b92ab4aef6dee357cd729a,69b92b77db62e537c6d8dbf0,0.0561,0.0561,0,126,126,1,1,onethree,,,,,,,,,,,,,,,,,,,,,,,,,,,,,,,,,,,,,,,,,,,,,,,,,,,,,,,,,,,,,,,,,,,,,,,,,,,,,,,,,,,,,,,,,,,,,,,,,,,,,,,,,,,,,,,,,,,,,,,,,,,,,,,,,,,,,,,,,
,,6994c0c96df19159622d6e63,2026-03-17_12h25.26.014,kallum_motion_pilot_GIST_update_2,2026.1.1,Win32,60.24096386,6994c0c96df19159622d6e63,69b92ab4aef6dee357cd729a,69b92b77db62e537c6d8dbf0,0.0563,0.0563,0,127,127,38,1,fourtwo,,,,,,,,,,,,,,,,,,,,,,,,,,,,,,,,,,,,,,,,,,,,,,,,,,,,,,,,,,,,,,,,,,,,,,,,,,,,,,,,,,,,,,,,,,,,,,,,,,,,,,,,,,,,,,,,,,,,,,,,,,,,,,,,,,,,,,,,,
,,6994c0c96df19159622d6e63,2026-03-17_12h25.26.014,kallum_motion_pilot_GIST_update_2,2026.1.1,Win32,60.24096386,6994c0c96df19159622d6e63,69b92ab4aef6dee357cd729a,69b92b77db62e537c6d8dbf0,0.0564,0.0564,0,128,128,49,1,onethree,,,,,,,,,,,,,,,,,,,,,,,,,,,,,,,,,,,,,,,,,,,,,,,,,,,,,,,,,,,,,,,,,,,,,,,,,,,,,,,,,,,,,,,,,,,,,,,,,,,,,,,,,,,,,,,,,,,,,,,,,,,,,,,,,,,,,,,,,
,,6994c0c96df19159622d6e63,2026-03-17_12h25.26.014,kallum_motion_pilot_GIST_update_2,2026.1.1,Win32,60.24096386,6994c0c96df19159622d6e63,69b92ab4aef6dee357cd729a,69b92b77db62e537c6d8dbf0,0.0566,0.0566,0,129,129,122,1,sixfive,,,,,,,,,,,,,,,,,,,,,,,,,,,,,,,,,,,,,,,,,,,,,,,,,,,,,,,,,,,,,,,,,,,,,,,,,,,,,,,,,,,,,,,,,,,,,,,,,,,,,,,,,,,,,,,,,,,,,,,,,,,,,,,,,,,,,,,,,
,,6994c0c96df19159622d6e63,2026-03-17_12h25.26.014,kallum_motion_pilot_GIST_update_2,2026.1.1,Win32,60.24096386,6994c0c96df19159622d6e63,69b92ab4aef6dee357cd729a,69b92b77db62e537c6d8dbf0,0.0567,0.0567,0,130,130,134,1,eightsix,,,,,,,,,,,,,,,,,,,,,,,,,,,,,,,,,,,,,,,,,,,,,,,,,,,,,,,,,,,,,,,,,,,,,,,,,,,,,,,,,,,,,,,,,,,,,,,,,,,,,,,,,,,,,,,,,,,,,,,,,,,,,,,,,,,,,,,,,
,,6994c0c96df19159622d6e63,2026-03-17_12h25.26.014,kallum_motion_pilot_GIST_update_2,2026.1.1,Win32,60.24096386,6994c0c96df19159622d6e63,69b92ab4aef6dee357cd729a,69b92b77db62e537c6d8dbf0,0.0568,0.0568,0,131,131,109,1,seveneight,,,,,,,,,,,,,,,,,,,,,,,,,,,,,,,,,,,,,,,,,,,,,,,,,,,,,,,,,,,,,,,,,,,,,,,,,,,,,,,,,,,,,,,,,,,,,,,,,,,,,,,,,,,,,,,,,,,,,,,,,,,,,,,,,,,,,,,,,
,,6994c0c96df19159622d6e63,2026-03-17_12h25.26.014,kallum_motion_pilot_GIST_update_2,2026.1.1,Win32,60.24096386,6994c0c96df19159622d6e63,69b92ab4aef6dee357cd729a,69b92b77db62e537c6d8dbf0,0.057,0.057,0,132,132,87,1,eightseven,,,,,,,,,,,,,,,,,,,,,,,,,,,,,,,,,,,,,,,,,,,,,,,,,,,,,,,,,,,,,,,,,,,,,,,,,,,,,,,,,,,,,,,,,,,,,,,,,,,,,,,,,,,,,,,,,,,,,,,,,,,,,,,,,,,,,,,,,
,,6994c0c96df19159622d6e63,2026-03-17_12h25.26.014,kallum_motion_pilot_GIST_update_2,2026.1.1,Win32,60.24096386,6994c0c96df19159622d6e63,69b92ab4aef6dee357cd729a,69b92b77db62e537c6d8dbf0,0.0572,0.0572,0,133,133,16,1,onetwo,,,,,,,,,,,,,,,,,,,,,,,,,,,,,,,,,,,,,,,,,,,,,,,,,,,,,,,,,,,,,,,,,,,,,,,,,,,,,,,,,,,,,,,,,,,,,,,,,,,,,,,,,,,,,,,,,,,,,,,,,,,,,,,,,,,,,,,,,
,,6994c0c96df19159622d6e63,2026-03-17_12h25.26.014,kallum_motion_pilot_GIST_update_2,2026.1.1,Win32,60.24096386,6994c0c96df19159622d6e63,69b92ab4aef6dee357cd729a,69b92b77db62e537c6d8dbf0,0.0588,0.0588,0,134,134,2,1,twoone,,,,,,,,,,,,,,,,,,,,,,,,,,,,,,,,,,,,,,,,,,,,,,,,,,,,,,,,,,,,,,,,,,,,,,,,,,,,,,,,,,,,,,,,,,,,,,,,,,,,,,,,,,,,,,,,,,,,,,,,,,,,,,,,,,,,,,,,,
,,6994c0c96df19159622d6e63,2026-03-17_12h25.26.014,kallum_motion_pilot_GIST_update_2,2026.1.1,Win32,60.24096386,6994c0c96df19159622d6e63,69b92ab4aef6dee357cd729a,69b92b77db62e537c6d8dbf0,0.0589,0.059,0,135,135,89,1,fiveseven,,,,,,,,,,,,,,,,,,,,,,,,,,,,,,,,,,,,,,,,,,,,,,,,,,,,,,,,,,,,,,,,,,,,,,,,,,,,,,,,,,,,,,,,,,,,,,,,,,,,,,,,,,,,,,,,,,,,,,,,,,,,,,,,,,,,,,,,,
,,6994c0c96df19159622d6e63,2026-03-17_12h25.26.014,kallum_motion_pilot_GIST_update_2,2026.1.1,Win32,60.24096386,6994c0c96df19159622d6e63,69b92ab4aef6dee357cd729a,69b92b77db62e537c6d8dbf0,0.0592,0.0592,0,136,136,26,1,twoone,,,,,,,,,,,,,,,,,,,,,,,,,,,,,,,,,,,,,,,,,,,,,,,,,,,,,,,,,,,,,,,,,,,,,,,,,,,,,,,,,,,,,,,,,,,,,,,,,,,,,,,,,,,,,,,,,,,,,,,,,,,,,,,,,,,,,,,,,
,,6994c0c96df19159622d6e63,2026-03-17_12h25.26.014,kallum_motion_pilot_GIST_update_2,2026.1.1,Win32,60.24096386,6994c0c96df19159622d6e63,69b92ab4aef6dee357cd729a,69b92b77db62e537c6d8dbf0,0.0593,0.0593,0,137,137,90,1,sixfive,,,,,,,,,,,,,,,,,,,,,,,,,,,,,,,,,,,,,,,,,,,,,,,,,,,,,,,,,,,,,,,,,,,,,,,,,,,,,,,,,,,,,,,,,,,,,,,,,,,,,,,,,,,,,,,,,,,,,,,,,,,,,,,,,,,,,,,,,
,,6994c0c96df19159622d6e63,2026-03-17_12h25.26.014,kallum_motion_pilot_GIST_update_2,2026.1.1,Win32,60.24096386,6994c0c96df19159622d6e63,69b92ab4aef6dee357cd729a,69b92b77db62e537c6d8dbf0,0.0594,0.0594,0,138,138,57,1,onethree,,,,,,,,,,,,,,,,,,,,,,,,,,,,,,,,,,,,,,,,,,,,,,,,,,,,,,,,,,,,,,,,,,,,,,,,,,,,,,,,,,,,,,,,,,,,,,,,,,,,,,,,,,,,,,,,,,,,,,,,,,,,,,,,,,,,,,,,,
,,6994c0c96df19159622d6e63,2026-03-17_12h25.26.014,kallum_motion_pilot_GIST_update_2,2026.1.1,Win32,60.24096386,6994c0c96df19159622d6e63,69b92ab4aef6dee357cd729a,69b92b77db62e537c6d8dbf0,0.0597,0.0597,0,139,139,91,1,sixeight,,,,,,,,,,,,,,,,,,,,,,,,,,,,,,,,,,,,,,,,,,,,,,,,,,,,,,,,,,,,,,,,,,,,,,,,,,,,,,,,,,,,,,,,,,,,,,,,,,,,,,,,,,,,,,,,,,,,,,,,,,,,,,,,,,,,,,,,,
,,6994c0c96df19159622d6e63,2026-03-17_12h25.26.014,kallum_motion_pilot_GIST_update_2,2026.1.1,Win32,60.24096386,6994c0c96df19159622d6e63,69b92ab4aef6dee357cd729a,69b92b77db62e537c6d8dbf0,0.0599,0.06,0,140,140,11,1,twofour,,,,,,,,,,,,,,,,,,,,,,,,,,,,,,,,,,,,,,,,,,,,,,,,,,,,,,,,,,,,,,,,,,,,,,,,,,,,,,,,,,,,,,,,,,,,,,,,,,,,,,,,,,,,,,,,,,,,,,,,,,,,,,,,,,,,,,,,,
,,6994c0c96df19159622d6e63,2026-03-17_12h25.26.014,kallum_motion_pilot_GIST_update_2,2026.1.1,Win32,60.24096386,6994c0c96df19159622d6e63,69b92ab4aef6dee357cd729a,69b92b77db62e537c6d8dbf0,0.0602,0.0602,0,141,141,85,1,seveneight,,,,,,,,,,,,,,,,,,,,,,,,,,,,,,,,,,,,,,,,,,,,,,,,,,,,,,,,,,,,,,,,,,,,,,,,,,,,,,,,,,,,,,,,,,,,,,,,,,,,,,,,,,,,,,,,,,,,,,,,,,,,,,,,,,,,,,,,,
,,6994c0c96df19159622d6e63,2026-03-17_12h25.26.014,kallum_motion_pilot_GIST_update_2,2026.1.1,Win32,60.24096386,6994c0c96df19159622d6e63,69b92ab4aef6dee357cd729a,69b92b77db62e537c6d8dbf0,0.0605,0.0605,0,142,142,126,1,eightsix,,,,,,,,,,,,,,,,,,,,,,,,,,,,,,,,,,,,,,,,,,,,,,,,,,,,,,,,,,,,,,,,,,,,,,,,,,,,,,,,,,,,,,,,,,,,,,,,,,,,,,,,,,,,,,,,,,,,,,,,,,,,,,,,,,,,,,,,,
,,6994c0c96df19159622d6e63,2026-03-17_12h25.26.014,kallum_motion_pilot_GIST_update_2,2026.1.1,Win32,60.24096386,6994c0c96df19159622d6e63,69b92ab4aef6dee357cd729a,69b92b77db62e537c6d8dbf0,0.0609,0.0609,0,143,143,144,1,fivesix,,,,,,,,,,,,,,,,,,,,,,,,,,,,,,,,,,,,,,,,,,,,,,,,,,,,,,,,,,,,,,,,,,,,,,,,,,,,,,,,,,,,,,,,,,,,,,,,,,,,,,,,,,,,,,,,,,,,,,,,,,,,,,,,,,,,,,,,,
,,6994c0c96df19159622d6e63,2026-03-17_12h25.26.014,kallum_motion_pilot_GIST_update_2,2026.1.1,Win32,60.24096386,6994c0c96df19159622d6e63,69b92ab4aef6dee357cd729a,69b92b77db62e537c6d8dbf0,0.0612,0.0612,0,144,144,110,1,eightsix,,,,,,,,,,,,,,,,,,,,,,,,,,,,,,,,,,,,,,,,,,,,,,,,,,,,,,,,,,,,,,,,,,,,,,,,,,,,,,,,,,,,,,,,,,,,,,,,,,,,,,,,,,,,,,,,,,,,,,,,,,,,,,,,,,,,,,,,,
,,6994c0c96df19159622d6e63,2026-03-17_12h25.26.014,kallum_motion_pilot_GIST_update_2,2026.1.1,Win32,60.24096386,6994c0c96df19159622d6e63,69b92ab4aef6dee357cd729a,69b92b77db62e537c6d8dbf0,0.0615,0.0615,0,145,145,142,1,eightsix,,,,,,,,,,,,,,,,,,,,,,,,,,,,,,,,,,,,,,,,,,,,,,,,,,,,,,,,,,,,,,,,,,,,,,,,,,,,,,,,,,,,,,,,,,,,,,,,,,,,,,,,,,,,,,,,,,,,,,,,,,,,,,,,,,,,,,,,,
,,6994c0c96df19159622d6e63,2026-03-17_12h25.26.014,kallum_motion_pilot_GIST_update_2,2026.1.1,Win32,60.24096386,6994c0c96df19159622d6e63,69b92ab4aef6dee357cd729a,69b92b77db62e537c6d8dbf0,0.0618,0.0618,0,146,146,130,1,sixfive,,,,,,,,,,,,,,,,,,,,,,,,,,,,,,,,,,,,,,,,,,,,,,,,,,,,,,,,,,,,,,,,,,,,,,,,,,,,,,,,,,,,,,,,,,,,,,,,,,,,,,,,,,,,,,,,,,,,,,,,,,,,,,,,,,,,,,,,,
,,6994c0c96df19159622d6e63,2026-03-17_12h25.26.014,kallum_motion_pilot_GIST_update_2,2026.1.1,Win32,60.24096386,6994c0c96df19159622d6e63,69b92ab4aef6dee357cd729a,69b92b77db62e537c6d8dbf0,0.0621,0.0621,0,147,147,7,1,fourthree,,,,,,,,,,,,,,,,,,,,,,,,,,,,,,,,,,,,,,,,,,,,,,,,,,,,,,,,,,,,,,,,,,,,,,,,,,,,,,,,,,,,,,,,,,,,,,,,,,,,,,,,,,,,,,,,,,,,,,,,,,,,,,,,,,,,,,,,,
,,6994c0c96df19159622d6e63,2026-03-17_12h25.26.014,kallum_motion_pilot_GIST_update_2,2026.1.1,Win32,60.24096386,6994c0c96df19159622d6e63,69b92ab4aef6dee357cd729a,69b92b77db62e537c6d8dbf0,0.0624,0.0624,0,148,148,32,1,onetwo,,,,,,,,,,,,,,,,,,,,,,,,,,,,,,,,,,,,,,,,,,,,,,,,,,,,,,,,,,,,,,,,,,,,,,,,,,,,,,,,,,,,,,,,,,,,,,,,,,,,,,,,,,,,,,,,,,,,,,,,,,,,,,,,,,,,,,,,,
,,6994c0c96df19159622d6e63,2026-03-17_12h25.26.014,kallum_motion_pilot_GIST_update_2,2026.1.1,Win32,60.24096386,6994c0c96df19159622d6e63,69b92ab4aef6dee357cd729a,69b92b77db62e537c6d8dbf0,0.0626,0.0626,0,149,149,66,1,twoone,,,,,,,,,,,,,,,,,,,,,,,,,,,,,,,,,,,,,,,,,,,,,,,,,,,,,,,,,,,,,,,,,,,,,,,,,,,,,,,,,,,,,,,,,,,,,,,,,,,,,,,,,,,,,,,,,,,,,,,,,,,,,,,,,,,,,,,,,
,,6994c0c96df19159622d6e63,2026-03-17_12h25.26.014,kallum_motion_pilot_GIST_update_2,2026.1.1,Win32,60.24096386,6994c0c96df19159622d6e63,69b92ab4aef6dee357cd729a,69b92b77db62e537c6d8dbf0,0.0628,0.0628,0,150,150,61,1,threefour,,,,,,,,,,,,,,,,,,,,,,,,,,,,,,,,,,,,,,,,,,,,,,,,,,,,,,,,,,,,,,,,,,,,,,,,,,,,,,,,,,,,,,,,,,,,,,,,,,,,,,,,,,,,,,,,,,,,,,,,,,,,,,,,,,,,,,,,,
,,6994c0c96df19159622d6e63,2026-03-17_12h25.26.014,kallum_motion_pilot_GIST_update_2,2026.1.1,Win32,60.24096386,6994c0c96df19159622d6e63,69b92ab4aef6dee357cd729a,69b92b77db62e537c6d8dbf0,0.0629,0.0629,0,151,151,44,1,threeone,,,,,,,,,,,,,,,,,,,,,,,,,,,,,,,,,,,,,,,,,,,,,,,,,,,,,,,,,,,,,,,,,,,,,,,,,,,,,,,,,,,,,,,,,,,,,,,,,,,,,,,,,,,,,,,,,,,,,,,,,,,,,,,,,,,,,,,,,
,,6994c0c96df19159622d6e63,2026-03-17_12h25.26.014,kallum_motion_pilot_GIST_update_2,2026.1.1,Win32,60.24096386,6994c0c96df19159622d6e63,69b92ab4aef6dee357cd729a,69b92b77db62e537c6d8dbf0,0.0631,0.0631,0,152,152,93,1,seveneight,,,,,,,,,,,,,,,,,,,,,,,,,,,,,,,,,,,,,,,,,,,,,,,,,,,,,,,,,,,,,,,,,,,,,,,,,,,,,,,,,,,,,,,,,,,,,,,,,,,,,,,,,,,,,,,,,,,,,,,,,,,,,,,,,,,,,,,,,
,,6994c0c96df19159622d6e63,2026-03-17_12h25.26.014,kallum_motion_pilot_GIST_update_2,2026.1.1,Win32,60.24096386,6994c0c96df19159622d6e63,69b92ab4aef6dee357cd729a,69b92b77db62e537c6d8dbf0,0.0634,0.0634,0,153,153,55,1,fourthree,,,,,,,,,,,,,,,,,,,,,,,,,,,,,,,,,,,,,,,,,,,,,,,,,,,,,,,,,,,,,,,,,,,,,,,,,,,,,,,,,,,,,,,,,,,,,,,,,,,,,,,,,,,,,,,,,,,,,,,,,,,,,,,,,,,,,,,,,
,,6994c0c96df19159622d6e63,2026-03-17_12h25.26.014,kallum_motion_pilot_GIST_update_2,2026.1.1,Win32,60.24096386,6994c0c96df19159622d6e63,69b92ab4aef6dee357cd729a,69b92b77db62e537c6d8dbf0,0.0635,0.0635,0,154,154,62,1,fourtwo,,,,,,,,,,,,,,,,,,,,,,,,,,,,,,,,,,,,,,,,,,,,,,,,,,,,,,,,,,,,,,,,,,,,,,,,,,,,,,,,,,,,,,,,,,,,,,,,,,,,,,,,,,,,,,,,,,,,,,,,,,,,,,,,,,,,,,,,,
,,6994c0c96df19159622d6e63,2026-03-17_12h25.26.014,kallum_motion_pilot_GIST_update_2,2026.1.1,Win32,60.24096386,6994c0c96df19159622d6e63,69b92ab4aef6dee357cd729a,69b92b77db62e537c6d8dbf0,0.0636,0.0636,0,155,155,37,1,threefour,,,,,,,,,,,,,,,,,,,,,,,,,,,,,,,,,,,,,,,,,,,,,,,,,,,,,,,,,,,,,,,,,,,,,,,,,,,,,,,,,,,,,,,,,,,,,,,,,,,,,,,,,,,,,,,,,,,,,,,,,,,,,,,,,,,,,,,,,
,,6994c0c96df19159622d6e63,2026-03-17_12h25.26.014,kallum_motion_pilot_GIST_update_2,2026.1.1,Win32,60.24096386,6994c0c96df19159622d6e63,69b92ab4aef6dee357cd729a,69b92b77db62e537c6d8dbf0,0.0639,0.0639,0,156,156,82,1,sixfive,,,,,,,,,,,,,,,,,,,,,,,,,,,,,,,,,,,,,,,,,,,,,,,,,,,,,,,,,,,,,,,,,,,,,,,,,,,,,,,,,,,,,,,,,,,,,,,,,,,,,,,,,,,,,,,,,,,,,,,,,,,,,,,,,,,,,,,,,
,,6994c0c96df19159622d6e63,2026-03-17_12h25.26.014,kallum_motion_pilot_GIST_update_2,2026.1.1,Win32,60.24096386,6994c0c96df19159622d6e63,69b92ab4aef6dee357cd729a,69b92b77db62e537c6d8dbf0,0.064,0.064,0,157,157,95,1,eightseven,,,,,,,,,,,,,,,,,,,,,,,,,,,,,,,,,,,,,,,,,,,,,,,,,,,,,,,,,,,,,,,,,,,,,,,,,,,,,,,,,,,,,,,,,,,,,,,,,,,,,,,,,,,,,,,,,,,,,,,,,,,,,,,,,,,,,,,,,
,,6994c0c96df19159622d6e63,2026-03-17_12h25.26.014,kallum_motion_pilot_GIST_update_2,2026.1.1,Win32,60.24096386,6994c0c96df19159622d6e63,69b92ab4aef6dee357cd729a,69b92b77db62e537c6d8dbf0,0.0643,0.0643,0,158,158,67,1,twofour,,,,,,,,,,,,,,,,,,,,,,,,,,,,,,,,,,,,,,,,,,,,,,,,,,,,,,,,,,,,,,,,,,,,,,,,,,,,,,,,,,,,,,,,,,,,,,,,,,,,,,,,,,,,,,,,,,,,,,,,,,,,,,,,,,,,,,,,,
,,6994c0c96df19159622d6e63,2026-03-17_12h25.26.014,kallum_motion_pilot_GIST_update_2,2026.1.1,Win32,60.24096386,6994c0c96df19159622d6e63,69b92ab4aef6dee357cd729a,69b92b77db62e537c6d8dbf0,0.0645,0.0645,0,159,159,17,1,onethree,,,,,,,,,,,,,,,,,,,,,,,,,,,,,,,,,,,,,,,,,,,,,,,,,,,,,,,,,,,,,,,,,,,,,,,,,,,,,,,,,,,,,,,,,,,,,,,,,,,,,,,,,,,,,,,,,,,,,,,,,,,,,,,,,,,,,,,,,
,,6994c0c96df19159622d6e63,2026-03-17_12h25.26.014,kallum_motion_pilot_GIST_update_2,2026.1.1,Win32,60.24096386,6994c0c96df19159622d6e63,69b92ab4aef6dee357cd729a,69b92b77db62e537c6d8dbf0,0.0647,0.0647,0,160,160,12,1,threeone,,,,,,,,,,,,,,,,,,,,,,,,,,,,,,,,,,,,,,,,,,,,,,,,,,,,,,,,,,,,,,,,,,,,,,,,,,,,,,,,,,,,,,,,,,,,,,,,,,,,,,,,,,,,,,,,,,,,,,,,,,,,,,,,,,,,,,,,,
,,6994c0c96df19159622d6e63,2026-03-17_12h25.26.014,kallum_motion_pilot_GIST_update_2,2026.1.1,Win32,60.24096386,6994c0c96df19159622d6e63,69b92ab4aef6dee357cd729a,69b92b77db62e537c6d8dbf0,0.0649,0.0649,0,161,161,107,1,sixeight,,,,,,,,,,,,,,,,,,,,,,,,,,,,,,,,,,,,,,,,,,,,,,,,,,,,,,,,,,,,,,,,,,,,,,,,,,,,,,,,,,,,,,,,,,,,,,,,,,,,,,,,,,,,,,,,,,,,,,,,,,,,,,,,,,,,,,,,,
,,6994c0c96df19159622d6e63,2026-03-17_12h25.26.014,kallum_motion_pilot_GIST_update_2,2026.1.1,Win32,60.24096386,6994c0c96df19159622d6e63,69b92ab4aef6dee357cd729a,69b92b77db62e537c6d8dbf0,0.0652,0.0652,1,0,162,95,1,eightseven,,,,,,,,,,,,,,,,,,,,,,,,,,,,,,,,,,,,,,,,,,,,,,,,,,,,,,,,,,,,,,,,,,,,,,,,,,,,,,,,,,,,,,,,,,,,,,,,,,,,,,,,,,,,,,,,,,,,,,,,,,,,,,,,,,,,,,,,,
,,6994c0c96df19159622d6e63,2026-03-17_12h25.26.014,kallum_motion_pilot_GIST_update_2,2026.1.1,Win32,60.24096386,6994c0c96df19159622d6e63,69b92ab4aef6dee357cd729a,69b92b77db62e537c6d8dbf0,0.0654,0.0654,1,1,163,143,1,eightseven,,,,,,,,,,,,,,,,,,,,,,,,,,,,,,,,,,,,,,,,,,,,,,,,,,,,,,,,,,,,,,,,,,,,,,,,,,,,,,,,,,,,,,,,,,,,,,,,,,,,,,,,,,,,,,,,,,,,,,,,,,,,,,,,,,,,,,,,,
,,6994c0c96df19159622d6e63,2026-03-17_12h25.26.014,kallum_motion_pilot_GIST_update_2,2026.1.1,Win32,60.24096386,6994c0c96df19159622d6e63,69b92ab4aef6dee357cd729a,69b92b77db62e537c6d8dbf0,0.0656,0.0656,1,2,164,88,1,fivesix,,,,,,,,,,,,,,,,,,,,,,,,,,,,,,,,,,,,,,,,,,,,,,,,,,,,,,,,,,,,,,,,,,,,,,,,,,,,,,,,,,,,,,,,,,,,,,,,,,,,,,,,,,,,,,,,,,,,,,,,,,,,,,,,,,,,,,,,,
,,6994c0c96df19159622d6e63,2026-03-17_12h25.26.014,kallum_motion_pilot_GIST_update_2,2026.1.1,Win32,60.24096386,6994c0c96df19159622d6e63,69b92ab4aef6dee357cd729a,69b92b77db62e537c6d8dbf0,0.0657,0.0657,1,3,165,129,1,fiveseven,,,,,,,,,,,,,,,,,,,,,,,,,,,,,,,,,,,,,,,,,,,,,,,,,,,,,,,,,,,,,,,,,,,,,,,,,,,,,,,,,,,,,,,,,,,,,,,,,,,,,,,,,,,,,,,,,,,,,,,,,,,,,,,,,,,,,,,,,
,,6994c0c96df19159622d6e63,2026-03-17_12h25.26.014,kallum_motion_pilot_GIST_update_2,2026.1.1,Win32,60.24096386,6994c0c96df19159622d6e63,69b92ab4aef6dee357cd729a,69b92b77db62e537c6d8dbf0,0.0659,0.0659,1,4,166,90,1,sixfive,,,,,,,,,,,,,,,,,,,,,,,,,,,,,,,,,,,,,,,,,,,,,,,,,,,,,,,,,,,,,,,,,,,,,,,,,,,,,,,,,,,,,,,,,,,,,,,,,,,,,,,,,,,,,,,,,,,,,,,,,,,,,,,,,,,,,,,,,
,,6994c0c96df19159622d6e63,2026-03-17_12h25.26.014,kallum_motion_pilot_GIST_update_2,2026.1.1,Win32,60.24096386,6994c0c96df19159622d6e63,69b92ab4aef6dee357cd729a,69b92b77db62e537c6d8dbf0,0.0662,0.0662,1,5,167,38,1,fourtwo,,,,,,,,,,,,,,,,,,,,,,,,,,,,,,,,,,,,,,,,,,,,,,,,,,,,,,,,,,,,,,,,,,,,,,,,,,,,,,,,,,,,,,,,,,,,,,,,,,,,,,,,,,,,,,,,,,,,,,,,,,,,,,,,,,,,,,,,,
,,6994c0c96df19159622d6e63,2026-03-17_12h25.26.014,kallum_motion_pilot_GIST_update_2,2026.1.1,Win32,60.24096386,6994c0c96df19159622d6e63,69b92ab4aef6dee357cd729a,69b92b77db62e537c6d8dbf0,0.0664,0.0664,1,6,168,154,1,sixfive,,,,,,,,,,,,,,,,,,,,,,,,,,,,,,,,,,,,,,,,,,,,,,,,,,,,,,,,,,,,,,,,,,,,,,,,,,,,,,,,,,,,,,,,,,,,,,,,,,,,,,,,,,,,,,,,,,,,,,,,,,,,,,,,,,,,,,,,,
,,6994c0c96df19159622d6e63,2026-03-17_12h25.26.014,kallum_motion_pilot_GIST_update_2,2026.1.1,Win32,60.24096386,6994c0c96df19159622d6e63,69b92ab4aef6dee357cd729a,69b92b77db62e537c6d8dbf0,0.0665,0.0665,1,7,169,64,1,onetwo,,,,,,,,,,,,,,,,,,,,,,,,,,,,,,,,,,,,,,,,,,,,,,,,,,,,,,,,,,,,,,,,,,,,,,,,,,,,,,,,,,,,,,,,,,,,,,,,,,,,,,,,,,,,,,,,,,,,,,,,,,,,,,,,,,,,,,,,,
,,6994c0c96df19159622d6e63,2026-03-17_12h25.26.014,kallum_motion_pilot_GIST_update_2,2026.1.1,Win32,60.24096386,6994c0c96df19159622d6e63,69b92ab4aef6dee357cd729a,69b92b77db62e537c6d8dbf0,0.067,0.067,1,8,170,119,1,eightseven,,,,,,,,,,,,,,,,,,,,,,,,,,,,,,,,,,,,,,,,,,,,,,,,,,,,,,,,,,,,,,,,,,,,,,,,,,,,,,,,,,,,,,,,,,,,,,,,,,,,,,,,,,,,,,,,,,,,,,,,,,,,,,,,,,,,,,,,,
,,6994c0c96df19159622d6e63,2026-03-17_12h25.26.014,kallum_motion_pilot_GIST_update_2,2026.1.1,Win32,60.24096386,6994c0c96df19159622d6e63,69b92ab4aef6dee357cd729a,69b92b77db62e537c6d8dbf0,0.0673,0.0673,1,9,171,150,1,eightsix,,,,,,,,,,,,,,,,,,,,,,,,,,,,,,,,,,,,,,,,,,,,,,,,,,,,,,,,,,,,,,,,,,,,,,,,,,,,,,,,,,,,,,,,,,,,,,,,,,,,,,,,,,,,,,,,,,,,,,,,,,,,,,,,,,,,,,,,,
,,6994c0c96df19159622d6e63,2026-03-17_12h25.26.014,kallum_motion_pilot_GIST_update_2,2026.1.1,Win32,60.24096386,6994c0c96df19159622d6e63,69b92ab4aef6dee357cd729a,69b92b77db62e537c6d8dbf0,0.0674,0.0674,1,10,172,24,1,onetwo,,,,,,,,,,,,,,,,,,,,,,,,,,,,,,,,,,,,,,,,,,,,,,,,,,,,,,,,,,,,,,,,,,,,,,,,,,,,,,,,,,,,,,,,,,,,,,,,,,,,,,,,,,,,,,,,,,,,,,,,,,,,,,,,,,,,,,,,,
,,6994c0c96df19159622d6e63,2026-03-17_12h25.26.014,kallum_motion_pilot_GIST_update_2,2026.1.1,Win32,60.24096386,6994c0c96df19159622d6e63,69b92ab4aef6dee357cd729a,69b92b77db62e537c6d8dbf0,0.0676,0.0676,1,11,173,110,1,eightsix,,,,,,,,,,,,,,,,,,,,,,,,,,,,,,,,,,,,,,,,,,,,,,,,,,,,,,,,,,,,,,,,,,,,,,,,,,,,,,,,,,,,,,,,,,,,,,,,,,,,,,,,,,,,,,,,,,,,,,,,,,,,,,,,,,,,,,,,,
,,6994c0c96df19159622d6e63,2026-03-17_12h25.26.014,kallum_motion_pilot_GIST_update_2,2026.1.1,Win32,60.24096386,6994c0c96df19159622d6e63,69b92ab4aef6dee357cd729a,69b92b77db62e537c6d8dbf0,0.0677,0.0677,1,12,174,67,1,twofour,,,,,,,,,,,,,,,,,,,,,,,,,,,,,,,,,,,,,,,,,,,,,,,,,,,,,,,,,,,,,,,,,,,,,,,,,,,,,,,,,,,,,,,,,,,,,,,,,,,,,,,,,,,,,,,,,,,,,,,,,,,,,,,,,,,,,,,,,
,,6994c0c96df19159622d6e63,2026-03-17_12h25.26.014,kallum_motion_pilot_GIST_update_2,2026.1.1,Win32,60.24096386,6994c0c96df19159622d6e63,69b92ab4aef6dee357cd729a,69b92b77db62e537c6d8dbf0,0.0678,0.0678,1,13,175,144,1,fivesix,,,,,,,,,,,,,,,,,,,,,,,,,,,,,,,,,,,,,,,,,,,,,,,,,,,,,,,,,,,,,,,,,,,,,,,,,,,,,,,,,,,,,,,,,,,,,,,,,,,,,,,,,,,,,,,,,,,,,,,,,,,,,,,,,,,,,,,,,
,,6994c0c96df19159622d6e63,2026-03-17_12h25.26.014,kallum_motion_pilot_GIST_update_2,2026.1.1,Win32,60.24096386,6994c0c96df19159622d6e63,69b92ab4aef6dee357cd729a,69b92b77db62e537c6d8dbf0,0.068,0.068,1,14,176,10,1,twoone,,,,,,,,,,,,,,,,,,,,,,,,,,,,,,,,,,,,,,,,,,,,,,,,,,,,,,,,,,,,,,,,,,,,,,,,,,,,,,,,,,,,,,,,,,,,,,,,,,,,,,,,,,,,,,,,,,,,,,,,,,,,,,,,,,,,,,,,,
,,6994c0c96df19159622d6e63,2026-03-17_12h25.26.014,kallum_motion_pilot_GIST_update_2,2026.1.1,Win32,60.24096386,6994c0c96df19159622d6e63,69b92ab4aef6dee357cd729a,69b92b77db62e537c6d8dbf0,0.0682,0.0682,1,15,177,3,1,twofour,,,,,,,,,,,,,,,,,,,,,,,,,,,,,,,,,,,,,,,,,,,,,,,,,,,,,,,,,,,,,,,,,,,,,,,,,,,,,,,,,,,,,,,,,,,,,,,,,,,,,,,,,,,,,,,,,,,,,,,,,,,,,,,,,,,,,,,,,
,,6994c0c96df19159622d6e63,2026-03-17_12h25.26.014,kallum_motion_pilot_GIST_update_2,2026.1.1,Win32,60.24096386,6994c0c96df19159622d6e63,69b92ab4aef6dee357cd729a,69b92b77db62e537c6d8dbf0,0.0683,0.0683,1,16,178,100,1,sevenfive,,,,,,,,,,,,,,,,,,,,,,,,,,,,,,,,,,,,,,,,,,,,,,,,,,,,,,,,,,,,,,,,,,,,,,,,,,,,,,,,,,,,,,,,,,,,,,,,,,,,,,,,,,,,,,,,,,,,,,,,,,,,,,,,,,,,,,,,,
,,6994c0c96df19159622d6e63,2026-03-17_12h25.26.014,kallum_motion_pilot_GIST_update_2,2026.1.1,Win32,60.24096386,6994c0c96df19159622d6e63,69b92ab4aef6dee357cd729a,69b92b77db62e537c6d8dbf0,0.0687,0.0687,1,17,179,15,1,fourthree,,,,,,,,,,,,,,,,,,,,,,,,,,,,,,,,,,,,,,,,,,,,,,,,,,,,,,,,,,,,,,,,,,,,,,,,,,,,,,,,,,,,,,,,,,,,,,,,,,,,,,,,,,,,,,,,,,,,,,,,,,,,,,,,,,,,,,,,,
,,6994c0c96df19159622d6e63,2026-03-17_12h25.26.014,kallum_motion_pilot_GIST_update_2,2026.1.1,Win32,60.24096386,6994c0c96df19159622d6e63,69b92ab4aef6dee357cd729a,69b92b77db62e537c6d8dbf0,0.0689,0.0689,1,18,180,151,1,eightseven,,,,,,,,,,,,,,,,,,,,,,,,,,,,,,,,,,,,,,,,,,,,,,,,,,,,,,,,,,,,,,,,,,,,,,,,,,,,,,,,,,,,,,,,,,,,,,,,,,,,,,,,,,,,,,,,,,,,,,,,,,,,,,,,,,,,,,,,,
,,6994c0c96df19159622d6e63,2026-03-17_12h25.26.014,kallum_motion_pilot_GIST_update_2,2026.1.1,Win32,60.24096386,6994c0c96df19159622d6e63,69b92ab4aef6dee357cd729a,69b92b77db62e537c6d8dbf0,0.0691,0.0691,1,19,181,84,1,sevenfive,,,,,,,,,,,,,,,,,,,,,,,,,,,,,,,,,,,,,,,,,,,,,,,,,,,,,,,,,,,,,,,,,,,,,,,,,,,,,,,,,,,,,,,,,,,,,,,,,,,,,,,,,,,,,,,,,,,,,,,,,,,,,,,,,,,,,,,,,
,,6994c0c96df19159622d6e63,2026-03-17_12h25.26.014,kallum_motion_pilot_GIST_update_2,2026.1.1,Win32,60.24096386,6994c0c96df19159622d6e63,69b92ab4aef6dee357cd729a,69b92b77db62e537c6d8dbf0,0.0694,0.0694,1,20,182,21,1,threefour,,,,,,,,,,,,,,,,,,,,,,,,,,,,,,,,,,,,,,,,,,,,,,,,,,,,,,,,,,,,,,,,,,,,,,,,,,,,,,,,,,,,,,,,,,,,,,,,,,,,,,,,,,,,,,,,,,,,,,,,,,,,,,,,,,,,,,,,,
,,6994c0c96df19159622d6e63,2026-03-17_12h25.26.014,kallum_motion_pilot_GIST_update_2,2026.1.1,Win32,60.24096386,6994c0c96df19159622d6e63,69b92ab4aef6dee357cd729a,69b92b77db62e537c6d8dbf0,0.0695,0.0695,1,21,183,99,1,sixeight,,,,,,,,,,,,,,,,,,,,,,,,,,,,,,,,,,,,,,,,,,,,,,,,,,,,,,,,,,,,,,,,,,,,,,,,,,,,,,,,,,,,,,,,,,,,,,,,,,,,,,,,,,,,,,,,,,,,,,,,,,,,,,,,,,,,,,,,,
,,6994c0c96df19159622d6e63,2026-03-17_12h25.26.014,kallum_motion_pilot_GIST_update_2,2026.1.1,Win32,60.24096386,6994c0c96df19159622d6e63,69b92ab4aef6dee357cd729a,69b92b77db62e537c6d8dbf0,0.0698,0.0698,1,22,184,54,1,fourtwo,,,,,,,,,,,,,,,,,,,,,,,,,,,,,,,,,,,,,,,,,,,,,,,,,,,,,,,,,,,,,,,,,,,,,,,,,,,,,,,,,,,,,,,,,,,,,,,,,,,,,,,,,,,,,,,,,,,,,,,,,,,,,,,,,,,,,,,,,
,,6994c0c96df19159622d6e63,2026-03-17_12h25.26.014,kallum_motion_pilot_GIST_update_2,2026.1.1,Win32,60.24096386,6994c0c96df19159622d6e63,69b92ab4aef6dee357cd729a,69b92b77db62e537c6d8dbf0,0.07,0.07,1,23,185,63,1,fourthree,,,,,,,,,,,,,,,,,,,,,,,,,,,,,,,,,,,,,,,,,,,,,,,,,,,,,,,,,,,,,,,,,,,,,,,,,,,,,,,,,,,,,,,,,,,,,,,,,,,,,,,,,,,,,,,,,,,,,,,,,,,,,,,,,,,,,,,,,
,,6994c0c96df19159622d6e63,2026-03-17_12h25.26.014,kallum_motion_pilot_GIST_update_2,2026.1.1,Win32,60.24096386,6994c0c96df19159622d6e63,69b92ab4aef6dee357cd729a,69b92b77db62e537c6d8dbf0,0.0702,0.0702,1,24,186,137,1,fiveseven,,,,,,,,,,,,,,,,,,,,,,,,,,,,,,,,,,,,,,,,,,,,,,,,,,,,,,,,,,,,,,,,,,,,,,,,,,,,,,,,,,,,,,,,,,,,,,,,,,,,,,,,,,,,,,,,,,,,,,,,,,,,,,,,,,,,,,,,,
,,6994c0c96df19159622d6e63,2026-03-17_12h25.26.014,kallum_motion_pilot_GIST_update_2,2026.1.1,Win32,60.24096386,6994c0c96df19159622d6e63,69b92ab4aef6dee357cd729a,69b92b77db62e537c6d8dbf0,0.0704,0.0704,1,25,187,109,1,seveneight,,,,,,,,,,,,,,,,,,,,,,,,,,,,,,,,,,,,,,,,,,,,,,,,,,,,,,,,,,,,,,,,,,,,,,,,,,,,,,,,,,,,,,,,,,,,,,,,,,,,,,,,,,,,,,,,,,,,,,,,,,,,,,,,,,,,,,,,,
,,6994c0c96df19159622d6e63,2026-03-17_12h25.26.014,kallum_motion_pilot_GIST_update_2,2026.1.1,Win32,60.24096386,6994c0c96df19159622d6e63,69b92ab4aef6dee357cd729a,69b92b77db62e537c6d8dbf0,0.0708,0.0708,1,26,188,121,1,fiveseven,,,,,,,,,,,,,,,,,,,,,,,,,,,,,,,,,,,,,,,,,,,,,,,,,,,,,,,,,,,,,,,,,,,,,,,,,,,,,,,,,,,,,,,,,,,,,,,,,,,,,,,,,,,,,,,,,,,,,,,,,,,,,,,,,,,,,,,,,
,,6994c0c96df19159622d6e63,2026-03-17_12h25.26.014,kallum_motion_pilot_GIST_update_2,2026.1.1,Win32,60.24096386,6994c0c96df19159622d6e63,69b92ab4aef6dee357cd729a,69b92b77db62e537c6d8dbf0,0.0712,0.0712,1,27,189,11,1,twofour,,,,,,,,,,,,,,,,,,,,,,,,,,,,,,,,,,,,,,,,,,,,,,,,,,,,,,,,,,,,,,,,,,,,,,,,,,,,,,,,,,,,,,,,,,,,,,,,,,,,,,,,,,,,,,,,,,,,,,,,,,,,,,,,,,,,,,,,,
,,6994c0c96df19159622d6e63,2026-03-17_12h25.26.014,kallum_motion_pilot_GIST_update_2,2026.1.1,Win32,60.24096386,6994c0c96df19159622d6e63,69b92ab4aef6dee357cd729a,69b92b77db62e537c6d8dbf0,0.0714,0.0714,1,28,190,35,1,twofour,,,,,,,,,,,,,,,,,,,,,,,,,,,,,,,,,,,,,,,,,,,,,,,,,,,,,,,,,,,,,,,,,,,,,,,,,,,,,,,,,,,,,,,,,,,,,,,,,,,,,,,,,,,,,,,,,,,,,,,,,,,,,,,,,,,,,,,,,
,,6994c0c96df19159622d6e63,2026-03-17_12h25.26.014,kallum_motion_pilot_GIST_update_2,2026.1.1,Win32,60.24096386,6994c0c96df19159622d6e63,69b92ab4aef6dee357cd729a,69b92b77db62e537c6d8dbf0,0.0716,0.0716,1,29,191,132,1,sevenfive,,,,,,,,,,,,,,,,,,,,,,,,,,,,,,,,,,,,,,,,,,,,,,,,,,,,,,,,,,,,,,,,,,,,,,,,,,,,,,,,,,,,,,,,,,,,,,,,,,,,,,,,,,,,,,,,,,,,,,,,,,,,,,,,,,,,,,,,,
,,6994c0c96df19159622d6e63,2026-03-17_12h25.26.014,kallum_motion_pilot_GIST_update_2,2026.1.1,Win32,60.24096386,6994c0c96df19159622d6e63,69b92ab4aef6dee357cd729a,69b92b77db62e537c6d8dbf0,0.0719,0.0719,1,30,192,51,1,twofour,,,,,,,,,,,,,,,,,,,,,,,,,,,,,,,,,,,,,,,,,,,,,,,,,,,,,,,,,,,,,,,,,,,,,,,,,,,,,,,,,,,,,,,,,,,,,,,,,,,,,,,,,,,,,,,,,,,,,,,,,,,,,,,,,,,,,,,,,
,,6994c0c96df19159622d6e63,2026-03-17_12h25.26.014,kallum_motion_pilot_GIST_update_2,2026.1.1,Win32,60.24096386,6994c0c96df19159622d6e63,69b92ab4aef6dee357cd729a,69b92b77db62e537c6d8dbf0,0.0723,0.0723,1,31,193,115,1,sixeight,,,,,,,,,,,,,,,,,,,,,,,,,,,,,,,,,,,,,,,,,,,,,,,,,,,,,,,,,,,,,,,,,,,,,,,,,,,,,,,,,,,,,,,,,,,,,,,,,,,,,,,,,,,,,,,,,,,,,,,,,,,,,,,,,,,,,,,,,
,,6994c0c96df19159622d6e63,2026-03-17_12h25.26.014,kallum_motion_pilot_GIST_update_2,2026.1.1,Win32,60.24096386,6994c0c96df19159622d6e63,69b92ab4aef6dee357cd729a,69b92b77db62e537c6d8dbf0,0.0727,0.0727,1,32,194,20,1,threeone,,,,,,,,,,,,,,,,,,,,,,,,,,,,,,,,,,,,,,,,,,,,,,,,,,,,,,,,,,,,,,,,,,,,,,,,,,,,,,,,,,,,,,,,,,,,,,,,,,,,,,,,,,,,,,,,,,,,,,,,,,,,,,,,,,,,,,,,,
,,6994c0c96df19159622d6e63,2026-03-17_12h25.26.014,kallum_motion_pilot_GIST_update_2,2026.1.1,Win32,60.24096386,6994c0c96df19159622d6e63,69b92ab4aef6dee357cd729a,69b92b77db62e537c6d8dbf0,0.073,0.073,1,33,195,22,1,fourtwo,,,,,,,,,,,,,,,,,,,,,,,,,,,,,,,,,,,,,,,,,,,,,,,,,,,,,,,,,,,,,,,,,,,,,,,,,,,,,,,,,,,,,,,,,,,,,,,,,,,,,,,,,,,,,,,,,,,,,,,,,,,,,,,,,,,,,,,,,
,,6994c0c96df19159622d6e63,2026-03-17_12h25.26.014,kallum_motion_pilot_GIST_update_2,2026.1.1,Win32,60.24096386,6994c0c96df19159622d6e63,69b92ab4aef6dee357cd729a,69b92b77db62e537c6d8dbf0,0.0733,0.0733,1,34,196,30,1,fourtwo,,,,,,,,,,,,,,,,,,,,,,,,,,,,,,,,,,,,,,,,,,,,,,,,,,,,,,,,,,,,,,,,,,,,,,,,,,,,,,,,,,,,,,,,,,,,,,,,,,,,,,,,,,,,,,,,,,,,,,,,,,,,,,,,,,,,,,,,,
,,6994c0c96df19159622d6e63,2026-03-17_12h25.26.014,kallum_motion_pilot_GIST_update_2,2026.1.1,Win32,60.24096386,6994c0c96df19159622d6e63,69b92ab4aef6dee357cd729a,69b92b77db62e537c6d8dbf0,0.0737,0.0737,1,35,197,28,1,threeone,,,,,,,,,,,,,,,,,,,,,,,,,,,,,,,,,,,,,,,,,,,,,,,,,,,,,,,,,,,,,,,,,,,,,,,,,,,,,,,,,,,,,,,,,,,,,,,,,,,,,,,,,,,,,,,,,,,,,,,,,,,,,,,,,,,,,,,,,
,,6994c0c96df19159622d6e63,2026-03-17_12h25.26.014,kallum_motion_pilot_GIST_update_2,2026.1.1,Win32,60.24096386,6994c0c96df19159622d6e63,69b92ab4aef6dee357cd729a,69b92b77db62e537c6d8dbf0,0.074,0.074,1,36,198,133,1,seveneight,,,,,,,,,,,,,,,,,,,,,,,,,,,,,,,,,,,,,,,,,,,,,,,,,,,,,,,,,,,,,,,,,,,,,,,,,,,,,,,,,,,,,,,,,,,,,,,,,,,,,,,,,,,,,,,,,,,,,,,,,,,,,,,,,,,,,,,,,
,,6994c0c96df19159622d6e63,2026-03-17_12h25.26.014,kallum_motion_pilot_GIST_update_2,2026.1.1,Win32,60.24096386,6994c0c96df19159622d6e63,69b92ab4aef6dee357cd729a,69b92b77db62e537c6d8dbf0,0.0743,0.0743,1,37,199,93,1,seveneight,,,,,,,,,,,,,,,,,,,,,,,,,,,,,,,,,,,,,,,,,,,,,,,,,,,,,,,,,,,,,,,,,,,,,,,,,,,,,,,,,,,,,,,,,,,,,,,,,,,,,,,,,,,,,,,,,,,,,,,,,,,,,,,,,,,,,,,,,
,,6994c0c96df19159622d6e63,2026-03-17_12h25.26.014,kallum_motion_pilot_GIST_update_2,2026.1.1,Win32,60.24096386,6994c0c96df19159622d6e63,69b92ab4aef6dee357cd729a,69b92b77db62e537c6d8dbf0,0.0747,0.0747,1,38,200,89,1,fiveseven,,,,,,,,,,,,,,,,,,,,,,,,,,,,,,,,,,,,,,,,,,,,,,,,,,,,,,,,,,,,,,,,,,,,,,,,,,,,,,,,,,,,,,,,,,,,,,,,,,,,,,,,,,,,,,,,,,,,,,,,,,,,,,,,,,,,,,,,,
,,6994c0c96df19159622d6e63,2026-03-17_12h25.26.014,kallum_motion_pilot_GIST_update_2,2026.1.1,Win32,60.24096386,6994c0c96df19159622d6e63,69b92ab4aef6dee357cd729a,69b92b77db62e537c6d8dbf0,0.075,0.075,1,39,201,92,1,sevenfive,,,,,,,,,,,,,,,,,,,,,,,,,,,,,,,,,,,,,,,,,,,,,,,,,,,,,,,,,,,,,,,,,,,,,,,,,,,,,,,,,,,,,,,,,,,,,,,,,,,,,,,,,,,,,,,,,,,,,,,,,,,,,,,,,,,,,,,,,
,,6994c0c96df19159622d6e63,2026-03-17_12h25.26.014,kallum_motion_pilot_GIST_update_2,2026.1.1,Win32,60.24096386,6994c0c96df19159622d6e63,69b92ab4aef6dee357cd729a,69b92b77db62e537c6d8dbf0,0.0753,0.0754,1,40,202,134,1,eightsix,,,,,,,,,,,,,,,,,,,,,,,,,,,,,,,,,,,,,,,,,,,,,,,,,,,,,,,,,,,,,,,,,,,,,,,,,,,,,,,,,,,,,,,,,,,,,,,,,,,,,,,,,,,,,,,,,,,,,,,,,,,,,,,,,,,,,,,,,
,,6994c0c96df19159622d6e63,2026-03-17_12h25.26.014,kallum_motion_pilot_GIST_update_2,2026.1.1,Win32,60.24096386,6994c0c96df19159622d6e63,69b92ab4aef6dee357cd729a,69b92b77db62e537c6d8dbf0,0.0756,0.0756,1,41,203,0,1,onetwo,,,,,,,,,,,,,,,,,,,,,,,,,,,,,,,,,,,,,,,,,,,,,,,,,,,,,,,,,,,,,,,,,,,,,,,,,,,,,,,,,,,,,,,,,,,,,,,,,,,,,,,,,,,,,,,,,,,,,,,,,,,,,,,,,,,,,,,,,
,,6994c0c96df19159622d6e63,2026-03-17_12h25.26.014,kallum_motion_pilot_GIST_update_2,2026.1.1,Win32,60.24096386,6994c0c96df19159622d6e63,69b92ab4aef6dee357cd729a,69b92b77db62e537c6d8dbf0,0.076,0.076,1,42,204,26,1,twoone,,,,,,,,,,,,,,,,,,,,,,,,,,,,,,,,,,,,,,,,,,,,,,,,,,,,,,,,,,,,,,,,,,,,,,,,,,,,,,,,,,,,,,,,,,,,,,,,,,,,,,,,,,,,,,,,,,,,,,,,,,,,,,,,,,,,,,,,,
,,6994c0c96df19159622d6e63,2026-03-17_12h25.26.014,kallum_motion_pilot_GIST_update_2,2026.1.1,Win32,60.24096386,6994c0c96df19159622d6e63,69b92ab4aef6dee357cd729a,69b92b77db62e537c6d8dbf0,0.0763,0.0763,1,43,205,146,1,sixfive,,,,,,,,,,,,,,,,,,,,,,,,,,,,,,,,,,,,,,,,,,,,,,,,,,,,,,,,,,,,,,,,,,,,,,,,,,,,,,,,,,,,,,,,,,,,,,,,,,,,,,,,,,,,,,,,,,,,,,,,,,,,,,,,,,,,,,,,,
,,6994c0c96df19159622d6e63,2026-03-17_12h25.26.014,kallum_motion_pilot_GIST_update_2,2026.1.1,Win32,60.24096386,6994c0c96df19159622d6e63,69b92ab4aef6dee357cd729a,69b92b77db62e537c6d8dbf0,0.0766,0.0766,1,44,206,57,1,onethree,,,,,,,,,,,,,,,,,,,,,,,,,,,,,,,,,,,,,,,,,,,,,,,,,,,,,,,,,,,,,,,,,,,,,,,,,,,,,,,,,,,,,,,,,,,,,,,,,,,,,,,,,,,,,,,,,,,,,,,,,,,,,,,,,,,,,,,,,
,,6994c0c96df19159622d6e63,2026-03-17_12h25.26.014,kallum_motion_pilot_GIST_update_2,2026.1.1,Win32,60.24096386,6994c0c96df19159622d6e63,69b92ab4aef6dee357cd729a,69b92b77db62e537c6d8dbf0,0.0769,0.0769,1,45,207,141,1,seveneight,,,,,,,,,,,,,,,,,,,,,,,,,,,,,,,,,,,,,,,,,,,,,,,,,,,,,,,,,,,,,,,,,,,,,,,,,,,,,,,,,,,,,,,,,,,,,,,,,,,,,,,,,,,,,,,,,,,,,,,,,,,,,,,,,,,,,,,,,
,,6994c0c96df19159622d6e63,2026-03-17_12h25.26.014,kallum_motion_pilot_GIST_update_2,2026.1.1,Win32,60.24096386,6994c0c96df19159622d6e63,69b92ab4aef6dee357cd729a,69b92b77db62e537c6d8dbf0,0.0771,0.0772,1,46,208,7,1,fourthree,,,,,,,,,,,,,,,,,,,,,,,,,,,,,,,,,,,,,,,,,,,,,,,,,,,,,,,,,,,,,,,,,,,,,,,,,,,,,,,,,,,,,,,,,,,,,,,,,,,,,,,,,,,,,,,,,,,,,,,,,,,,,,,,,,,,,,,,,
,,6994c0c96df19159622d6e63,2026-03-17_12h25.26.014,kallum_motion_pilot_GIST_update_2,2026.1.1,Win32,60.24096386,6994c0c96df19159622d6e63,69b92ab4aef6dee357cd729a,69b92b77db62e537c6d8dbf0,0.0774,0.0775,1,47,209,56,1,onetwo,,,,,,,,,,,,,,,,,,,,,,,,,,,,,,,,,,,,,,,,,,,,,,,,,,,,,,,,,,,,,,,,,,,,,,,,,,,,,,,,,,,,,,,,,,,,,,,,,,,,,,,,,,,,,,,,,,,,,,,,,,,,,,,,,,,,,,,,,
,,6994c0c96df19159622d6e63,2026-03-17_12h25.26.014,kallum_motion_pilot_GIST_update_2,2026.1.1,Win32,60.24096386,6994c0c96df19159622d6e63,69b92ab4aef6dee357cd729a,69b92b77db62e537c6d8dbf0,0.0778,0.0778,1,48,210,66,1,twoone,,,,,,,,,,,,,,,,,,,,,,,,,,,,,,,,,,,,,,,,,,,,,,,,,,,,,,,,,,,,,,,,,,,,,,,,,,,,,,,,,,,,,,,,,,,,,,,,,,,,,,,,,,,,,,,,,,,,,,,,,,,,,,,,,,,,,,,,,
,,6994c0c96df19159622d6e63,2026-03-17_12h25.26.014,kallum_motion_pilot_GIST_update_2,2026.1.1,Win32,60.24096386,6994c0c96df19159622d6e63,69b92ab4aef6dee357cd729a,69b92b77db62e537c6d8dbf0,0.078,0.078,1,49,211,149,1,seveneight,,,,,,,,,,,,,,,,,,,,,,,,,,,,,,,,,,,,,,,,,,,,,,,,,,,,,,,,,,,,,,,,,,,,,,,,,,,,,,,,,,,,,,,,,,,,,,,,,,,,,,,,,,,,,,,,,,,,,,,,,,,,,,,,,,,,,,,,,
,,6994c0c96df19159622d6e63,2026-03-17_12h25.26.014,kallum_motion_pilot_GIST_update_2,2026.1.1,Win32,60.24096386,6994c0c96df19159622d6e63,69b92ab4aef6dee357cd729a,69b92b77db62e537c6d8dbf0,0.0781,0.0781,1,50,212,153,1,fiveseven,,,,,,,,,,,,,,,,,,,,,,,,,,,,,,,,,,,,,,,,,,,,,,,,,,,,,,,,,,,,,,,,,,,,,,,,,,,,,,,,,,,,,,,,,,,,,,,,,,,,,,,,,,,,,,,,,,,,,,,,,,,,,,,,,,,,,,,,,
,,6994c0c96df19159622d6e63,2026-03-17_12h25.26.014,kallum_motion_pilot_GIST_update_2,2026.1.1,Win32,60.24096386,6994c0c96df19159622d6e63,69b92ab4aef6dee357cd729a,69b92b77db62e537c6d8dbf0,0.0783,0.0783,1,51,213,136,1,fivesix,,,,,,,,,,,,,,,,,,,,,,,,,,,,,,,,,,,,,,,,,,,,,,,,,,,,,,,,,,,,,,,,,,,,,,,,,,,,,,,,,,,,,,,,,,,,,,,,,,,,,,,,,,,,,,,,,,,,,,,,,,,,,,,,,,,,,,,,,
,,6994c0c96df19159622d6e63,2026-03-17_12h25.26.014,kallum_motion_pilot_GIST_update_2,2026.1.1,Win32,60.24096386,6994c0c96df19159622d6e63,69b92ab4aef6dee357cd729a,69b92b77db62e537c6d8dbf0,0.0785,0.0786,1,52,214,135,1,eightseven,,,,,,,,,,,,,,,,,,,,,,,,,,,,,,,,,,,,,,,,,,,,,,,,,,,,,,,,,,,,,,,,,,,,,,,,,,,,,,,,,,,,,,,,,,,,,,,,,,,,,,,,,,,,,,,,,,,,,,,,,,,,,,,,,,,,,,,,,
,,6994c0c96df19159622d6e63,2026-03-17_12h25.26.014,kallum_motion_pilot_GIST_update_2,2026.1.1,Win32,60.24096386,6994c0c96df19159622d6e63,69b92ab4aef6dee357cd729a,69b92b77db62e537c6d8dbf0,0.0787,0.0787,1,53,215,39,1,fourthree,,,,,,,,,,,,,,,,,,,,,,,,,,,,,,,,,,,,,,,,,,,,,,,,,,,,,,,,,,,,,,,,,,,,,,,,,,,,,,,,,,,,,,,,,,,,,,,,,,,,,,,,,,,,,,,,,,,,,,,,,,,,,,,,,,,,,,,,,
,,6994c0c96df19159622d6e63,2026-03-17_12h25.26.014,kallum_motion_pilot_GIST_update_2,2026.1.1,Win32,60.24096386,6994c0c96df19159622d6e63,69b92ab4aef6dee357cd729a,69b92b77db62e537c6d8dbf0,0.0789,0.0789,1,54,216,97,1,fiveseven,,,,,,,,,,,,,,,,,,,,,,,,,,,,,,,,,,,,,,,,,,,,,,,,,,,,,,,,,,,,,,,,,,,,,,,,,,,,,,,,,,,,,,,,,,,,,,,,,,,,,,,,,,,,,,,,,,,,,,,,,,,,,,,,,,,,,,,,,
,,6994c0c96df19159622d6e63,2026-03-17_12h25.26.014,kallum_motion_pilot_GIST_update_2,2026.1.1,Win32,60.24096386,6994c0c96df19159622d6e63,69b92ab4aef6dee357cd729a,69b92b77db62e537c6d8dbf0,0.079,0.079,1,55,217,17,1,onethree,,,,,,,,,,,,,,,,,,,,,,,,,,,,,,,,,,,,,,,,,,,,,,,,,,,,,,,,,,,,,,,,,,,,,,,,,,,,,,,,,,,,,,,,,,,,,,,,,,,,,,,,,,,,,,,,,,,,,,,,,,,,,,,,,,,,,,,,,
,,6994c0c96df19159622d6e63,2026-03-17_12h25.26.014,kallum_motion_pilot_GIST_update_2,2026.1.1,Win32,60.24096386,6994c0c96df19159622d6e63,69b92ab4aef6dee357cd729a,69b92b77db62e537c6d8dbf0,0.0791,0.0791,1,56,218,29,1,threefour,,,,,,,,,,,,,,,,,,,,,,,,,,,,,,,,,,,,,,,,,,,,,,,,,,,,,,,,,,,,,,,,,,,,,,,,,,,,,,,,,,,,,,,,,,,,,,,,,,,,,,,,,,,,,,,,,,,,,,,,,,,,,,,,,,,,,,,,,
,,6994c0c96df19159622d6e63,2026-03-17_12h25.26.014,kallum_motion_pilot_GIST_update_2,2026.1.1,Win32,60.24096386,6994c0c96df19159622d6e63,69b92ab4aef6dee357cd729a,69b92b77db62e537c6d8dbf0,0.0794,0.0795,1,57,219,48,1,onetwo,,,,,,,,,,,,,,,,,,,,,,,,,,,,,,,,,,,,,,,,,,,,,,,,,,,,,,,,,,,,,,,,,,,,,,,,,,,,,,,,,,,,,,,,,,,,,,,,,,,,,,,,,,,,,,,,,,,,,,,,,,,,,,,,,,,,,,,,,
,,6994c0c96df19159622d6e63,2026-03-17_12h25.26.014,kallum_motion_pilot_GIST_update_2,2026.1.1,Win32,60.24096386,6994c0c96df19159622d6e63,69b92ab4aef6dee357cd729a,69b92b77db62e537c6d8dbf0,0.0796,0.0796,1,58,220,124,1,sevenfive,,,,,,,,,,,,,,,,,,,,,,,,,,,,,,,,,,,,,,,,,,,,,,,,,,,,,,,,,,,,,,,,,,,,,,,,,,,,,,,,,,,,,,,,,,,,,,,,,,,,,,,,,,,,,,,,,,,,,,,,,,,,,,,,,,,,,,,,,
,,6994c0c96df19159622d6e63,2026-03-17_12h25.26.014,kallum_motion_pilot_GIST_update_2,2026.1.1,Win32,60.24096386,6994c0c96df19159622d6e63,69b92ab4aef6dee357cd729a,69b92b77db62e537c6d8dbf0,0.0797,0.0797,1,59,221,83,1,sixeight,,,,,,,,,,,,,,,,,,,,,,,,,,,,,,,,,,,,,,,,,,,,,,,,,,,,,,,,,,,,,,,,,,,,,,,,,,,,,,,,,,,,,,,,,,,,,,,,,,,,,,,,,,,,,,,,,,,,,,,,,,,,,,,,,,,,,,,,,
,,6994c0c96df19159622d6e63,2026-03-17_12h25.26.014,kallum_motion_pilot_GIST_update_2,2026.1.1,Win32,60.24096386,6994c0c96df19159622d6e63,69b92ab4aef6dee357cd729a,69b92b77db62e537c6d8dbf0,0.0799,0.0799,1,60,222,49,1,onethree,,,,,,,,,,,,,,,,,,,,,,,,,,,,,,,,,,,,,,,,,,,,,,,,,,,,,,,,,,,,,,,,,,,,,,,,,,,,,,,,,,,,,,,,,,,,,,,,,,,,,,,,,,,,,,,,,,,,,,,,,,,,,,,,,,,,,,,,,
,,6994c0c96df19159622d6e63,2026-03-17_12h25.26.014,kallum_motion_pilot_GIST_update_2,2026.1.1,Win32,60.24096386,6994c0c96df19159622d6e63,69b92ab4aef6dee357cd729a,69b92b77db62e537c6d8dbf0,0.0801,0.0801,1,61,223,102,1,eightsix,,,,,,,,,,,,,,,,,,,,,,,,,,,,,,,,,,,,,,,,,,,,,,,,,,,,,,,,,,,,,,,,,,,,,,,,,,,,,,,,,,,,,,,,,,,,,,,,,,,,,,,,,,,,,,,,,,,,,,,,,,,,,,,,,,,,,,,,,
,,6994c0c96df19159622d6e63,2026-03-17_12h25.26.014,kallum_motion_pilot_GIST_update_2,2026.1.1,Win32,60.24096386,6994c0c96df19159622d6e63,69b92ab4aef6dee357cd729a,69b92b77db62e537c6d8dbf0,0.0803,0.0803,1,62,224,25,1,onethree,,,,,,,,,,,,,,,,,,,,,,,,,,,,,,,,,,,,,,,,,,,,,,,,,,,,,,,,,,,,,,,,,,,,,,,,,,,,,,,,,,,,,,,,,,,,,,,,,,,,,,,,,,,,,,,,,,,,,,,,,,,,,,,,,,,,,,,,,
,,6994c0c96df19159622d6e63,2026-03-17_12h25.26.014,kallum_motion_pilot_GIST_update_2,2026.1.1,Win32,60.24096386,6994c0c96df19159622d6e63,69b92ab4aef6dee357cd729a,69b92b77db62e537c6d8dbf0,0.0804,0.0804,1,63,225,46,1,fourtwo,,,,,,,,,,,,,,,,,,,,,,,,,,,,,,,,,,,,,,,,,,,,,,,,,,,,,,,,,,,,,,,,,,,,,,,,,,,,,,,,,,,,,,,,,,,,,,,,,,,,,,,,,,,,,,,,,,,,,,,,,,,,,,,,,,,,,,,,,
,,6994c0c96df19159622d6e63,2026-03-17_12h25.26.014,kallum_motion_pilot_GIST_update_2,2026.1.1,Win32,60.24096386,6994c0c96df19159622d6e63,69b92ab4aef6dee357cd729a,69b92b77db62e537c6d8dbf0,0.0806,0.0806,1,64,226,96,1,fivesix,,,,,,,,,,,,,,,,,,,,,,,,,,,,,,,,,,,,,,,,,,,,,,,,,,,,,,,,,,,,,,,,,,,,,,,,,,,,,,,,,,,,,,,,,,,,,,,,,,,,,,,,,,,,,,,,,,,,,,,,,,,,,,,,,,,,,,,,,
,,6994c0c96df19159622d6e63,2026-03-17_12h25.26.014,kallum_motion_pilot_GIST_update_2,2026.1.1,Win32,60.24096386,6994c0c96df19159622d6e63,69b92ab4aef6dee357cd729a,69b92b77db62e537c6d8dbf0,0.0808,0.0808,1,65,227,80,1,fivesix,,,,,,,,,,,,,,,,,,,,,,,,,,,,,,,,,,,,,,,,,,,,,,,,,,,,,,,,,,,,,,,,,,,,,,,,,,,,,,,,,,,,,,,,,,,,,,,,,,,,,,,,,,,,,,,,,,,,,,,,,,,,,,,,,,,,,,,,,
,,6994c0c96df19159622d6e63,2026-03-17_12h25.26.014,kallum_motion_pilot_GIST_update_2,2026.1.1,Win32,60.24096386,6994c0c96df19159622d6e63,69b92ab4aef6dee357cd729a,69b92b77db62e537c6d8dbf0,0.0811,0.0811,1,66,228,85,1,seveneight,,,,,,,,,,,,,,,,,,,,,,,,,,,,,,,,,,,,,,,,,,,,,,,,,,,,,,,,,,,,,,,,,,,,,,,,,,,,,,,,,,,,,,,,,,,,,,,,,,,,,,,,,,,,,,,,,,,,,,,,,,,,,,,,,,,,,,,,,
,,6994c0c96df19159622d6e63,2026-03-17_12h25.26.014,kallum_motion_pilot_GIST_update_2,2026.1.1,Win32,60.24096386,6994c0c96df19159622d6e63,69b92ab4aef6dee357cd729a,69b92b77db62e537c6d8dbf0,0.0812,0.0812,1,67,229,87,1,eightseven,,,,,,,,,,,,,,,,,,,,,,,,,,,,,,,,,,,,,,,,,,,,,,,,,,,,,,,,,,,,,,,,,,,,,,,,,,,,,,,,,,,,,,,,,,,,,,,,,,,,,,,,,,,,,,,,,,,,,,,,,,,,,,,,,,,,,,,,,
,,6994c0c96df19159622d6e63,2026-03-17_12h25.26.014,kallum_motion_pilot_GIST_update_2,2026.1.1,Win32,60.24096386,6994c0c96df19159622d6e63,69b92ab4aef6dee357cd729a,69b92b77db62e537c6d8dbf0,0.0814,0.0814,1,68,230,58,1,twoone,,,,,,,,,,,,,,,,,,,,,,,,,,,,,,,,,,,,,,,,,,,,,,,,,,,,,,,,,,,,,,,,,,,,,,,,,,,,,,,,,,,,,,,,,,,,,,,,,,,,,,,,,,,,,,,,,,,,,,,,,,,,,,,,,,,,,,,,,
,,6994c0c96df19159622d6e63,2026-03-17_12h25.26.014,kallum_motion_pilot_GIST_update_2,2026.1.1,Win32,60.24096386,6994c0c96df19159622d6e63,69b92ab4aef6dee357cd729a,69b92b77db62e537c6d8dbf0,0.0816,0.0816,1,69,231,53,1,threefour,,,,,,,,,,,,,,,,,,,,,,,,,,,,,,,,,,,,,,,,,,,,,,,,,,,,,,,,,,,,,,,,,,,,,,,,,,,,,,,,,,,,,,,,,,,,,,,,,,,,,,,,,,,,,,,,,,,,,,,,,,,,,,,,,,,,,,,,,
,,6994c0c96df19159622d6e63,2026-03-17_12h25.26.014,kallum_motion_pilot_GIST_update_2,2026.1.1,Win32,60.24096386,6994c0c96df19159622d6e63,69b92ab4aef6dee357cd729a,69b92b77db62e537c6d8dbf0,0.0818,0.0818,1,70,232,4,1,threeone,,,,,,,,,,,,,,,,,,,,,,,,,,,,,,,,,,,,,,,,,,,,,,,,,,,,,,,,,,,,,,,,,,,,,,,,,,,,,,,,,,,,,,,,,,,,,,,,,,,,,,,,,,,,,,,,,,,,,,,,,,,,,,,,,,,,,,,,,
,,6994c0c96df19159622d6e63,2026-03-17_12h25.26.014,kallum_motion_pilot_GIST_update_2,2026.1.1,Win32,60.24096386,6994c0c96df19159622d6e63,69b92ab4aef6dee357cd729a,69b92b77db62e537c6d8dbf0,0.082,0.082,1,71,233,34,1,twoone,,,,,,,,,,,,,,,,,,,,,,,,,,,,,,,,,,,,,,,,,,,,,,,,,,,,,,,,,,,,,,,,,,,,,,,,,,,,,,,,,,,,,,,,,,,,,,,,,,,,,,,,,,,,,,,,,,,,,,,,,,,,,,,,,,,,,,,,,
,,6994c0c96df19159622d6e63,2026-03-17_12h25.26.014,kallum_motion_pilot_GIST_update_2,2026.1.1,Win32,60.24096386,6994c0c96df19159622d6e63,69b92ab4aef6dee357cd729a,69b92b77db62e537c6d8dbf0,0.0822,0.0822,1,72,234,65,1,onethree,,,,,,,,,,,,,,,,,,,,,,,,,,,,,,,,,,,,,,,,,,,,,,,,,,,,,,,,,,,,,,,,,,,,,,,,,,,,,,,,,,,,,,,,,,,,,,,,,,,,,,,,,,,,,,,,,,,,,,,,,,,,,,,,,,,,,,,,,
,,6994c0c96df19159622d6e63,2026-03-17_12h25.26.014,kallum_motion_pilot_GIST_update_2,2026.1.1,Win32,60.24096386,6994c0c96df19159622d6e63,69b92ab4aef6dee357cd729a,69b92b77db62e537c6d8dbf0,0.0823,0.0823,1,73,235,138,1,sixfive,,,,,,,,,,,,,,,,,,,,,,,,,,,,,,,,,,,,,,,,,,,,,,,,,,,,,,,,,,,,,,,,,,,,,,,,,,,,,,,,,,,,,,,,,,,,,,,,,,,,,,,,,,,,,,,,,,,,,,,,,,,,,,,,,,,,,,,,,
,,6994c0c96df19159622d6e63,2026-03-17_12h25.26.014,kallum_motion_pilot_GIST_update_2,2026.1.1,Win32,60.24096386,6994c0c96df19159622d6e63,69b92ab4aef6dee357cd729a,69b92b77db62e537c6d8dbf0,0.0825,0.0825,1,74,236,77,1,threefour,,,,,,,,,,,,,,,,,,,,,,,,,,,,,,,,,,,,,,,,,,,,,,,,,,,,,,,,,,,,,,,,,,,,,,,,,,,,,,,,,,,,,,,,,,,,,,,,,,,,,,,,,,,,,,,,,,,,,,,,,,,,,,,,,,,,,,,,,
,,6994c0c96df19159622d6e63,2026-03-17_12h25.26.014,kallum_motion_pilot_GIST_update_2,2026.1.1,Win32,60.24096386,6994c0c96df19159622d6e63,69b92ab4aef6dee357cd729a,69b92b77db62e537c6d8dbf0,0.0827,0.0827,1,75,237,76,1,threeone,,,,,,,,,,,,,,,,,,,,,,,,,,,,,,,,,,,,,,,,,,,,,,,,,,,,,,,,,,,,,,,,,,,,,,,,,,,,,,,,,,,,,,,,,,,,,,,,,,,,,,,,,,,,,,,,,,,,,,,,,,,,,,,,,,,,,,,,,
,,6994c0c96df19159622d6e63,2026-03-17_12h25.26.014,kallum_motion_pilot_GIST_update_2,2026.1.1,Win32,60.24096386,6994c0c96df19159622d6e63,69b92ab4aef6dee357cd729a,69b92b77db62e537c6d8dbf0,0.0828,0.0828,1,76,238,128,1,fivesix,,,,,,,,,,,,,,,,,,,,,,,,,,,,,,,,,,,,,,,,,,,,,,,,,,,,,,,,,,,,,,,,,,,,,,,,,,,,,,,,,,,,,,,,,,,,,,,,,,,,,,,,,,,,,,,,,,,,,,,,,,,,,,,,,,,,,,,,,
,,6994c0c96df19159622d6e63,2026-03-17_12h25.26.014,kallum_motion_pilot_GIST_update_2,2026.1.1,Win32,60.24096386,6994c0c96df19159622d6e63,69b92ab4aef6dee357cd729a,69b92b77db62e537c6d8dbf0,0.0831,0.0831,1,77,239,6,1,fourtwo,,,,,,,,,,,,,,,,,,,,,,,,,,,,,,,,,,,,,,,,,,,,,,,,,,,,,,,,,,,,,,,,,,,,,,,,,,,,,,,,,,,,,,,,,,,,,,,,,,,,,,,,,,,,,,,,,,,,,,,,,,,,,,,,,,,,,,,,,
,,6994c0c96df19159622d6e63,2026-03-17_12h25.26.014,kallum_motion_pilot_GIST_update_2,2026.1.1,Win32,60.24096386,6994c0c96df19159622d6e63,69b92ab4aef6dee357cd729a,69b92b77db62e537c6d8dbf0,0.0832,0.0832,1,78,240,148,1,sevenfive,,,,,,,,,,,,,,,,,,,,,,,,,,,,,,,,,,,,,,,,,,,,,,,,,,,,,,,,,,,,,,,,,,,,,,,,,,,,,,,,,,,,,,,,,,,,,,,,,,,,,,,,,,,,,,,,,,,,,,,,,,,,,,,,,,,,,,,,,
,,6994c0c96df19159622d6e63,2026-03-17_12h25.26.014,kallum_motion_pilot_GIST_update_2,2026.1.1,Win32,60.24096386,6994c0c96df19159622d6e63,69b92ab4aef6dee357cd729a,69b92b77db62e537c6d8dbf0,0.0834,0.0834,1,79,241,61,1,threefour,,,,,,,,,,,,,,,,,,,,,,,,,,,,,,,,,,,,,,,,,,,,,,,,,,,,,,,,,,,,,,,,,,,,,,,,,,,,,,,,,,,,,,,,,,,,,,,,,,,,,,,,,,,,,,,,,,,,,,,,,,,,,,,,,,,,,,,,,
,,6994c0c96df19159622d6e63,2026-03-17_12h25.26.014,kallum_motion_pilot_GIST_update_2,2026.1.1,Win32,60.24096386,6994c0c96df19159622d6e63,69b92ab4aef6dee357cd729a,69b92b77db62e537c6d8dbf0,0.0836,0.0836,1,80,242,69,1,threefour,,,,,,,,,,,,,,,,,,,,,,,,,,,,,,,,,,,,,,,,,,,,,,,,,,,,,,,,,,,,,,,,,,,,,,,,,,,,,,,,,,,,,,,,,,,,,,,,,,,,,,,,,,,,,,,,,,,,,,,,,,,,,,,,,,,,,,,,,
,,6994c0c96df19159622d6e63,2026-03-17_12h25.26.014,kallum_motion_pilot_GIST_update_2,2026.1.1,Win32,60.24096386,6994c0c96df19159622d6e63,69b92ab4aef6dee357cd729a,69b92b77db62e537c6d8dbf0,0.0837,0.0837,1,81,243,156,1,sevenfive,,,,,,,,,,,,,,,,,,,,,,,,,,,,,,,,,,,,,,,,,,,,,,,,,,,,,,,,,,,,,,,,,,,,,,,,,,,,,,,,,,,,,,,,,,,,,,,,,,,,,,,,,,,,,,,,,,,,,,,,,,,,,,,,,,,,,,,,,
,,6994c0c96df19159622d6e63,2026-03-17_12h25.26.014,kallum_motion_pilot_GIST_update_2,2026.1.1,Win32,60.24096386,6994c0c96df19159622d6e63,69b92ab4aef6dee357cd729a,69b92b77db62e537c6d8dbf0,0.0839,0.0839,1,82,244,43,1,twofour,,,,,,,,,,,,,,,,,,,,,,,,,,,,,,,,,,,,,,,,,,,,,,,,,,,,,,,,,,,,,,,,,,,,,,,,,,,,,,,,,,,,,,,,,,,,,,,,,,,,,,,,,,,,,,,,,,,,,,,,,,,,,,,,,,,,,,,,,
,,6994c0c96df19159622d6e63,2026-03-17_12h25.26.014,kallum_motion_pilot_GIST_update_2,2026.1.1,Win32,60.24096386,6994c0c96df19159622d6e63,69b92ab4aef6dee357cd729a,69b92b77db62e537c6d8dbf0,0.0841,0.0841,1,83,245,5,1,threefour,,,,,,,,,,,,,,,,,,,,,,,,,,,,,,,,,,,,,,,,,,,,,,,,,,,,,,,,,,,,,,,,,,,,,,,,,,,,,,,,,,,,,,,,,,,,,,,,,,,,,,,,,,,,,,,,,,,,,,,,,,,,,,,,,,,,,,,,,
,,6994c0c96df19159622d6e63,2026-03-17_12h25.26.014,kallum_motion_pilot_GIST_update_2,2026.1.1,Win32,60.24096386,6994c0c96df19159622d6e63,69b92ab4aef6dee357cd729a,69b92b77db62e537c6d8dbf0,0.0842,0.0842,1,84,246,55,1,fourthree,,,,,,,,,,,,,,,,,,,,,,,,,,,,,,,,,,,,,,,,,,,,,,,,,,,,,,,,,,,,,,,,,,,,,,,,,,,,,,,,,,,,,,,,,,,,,,,,,,,,,,,,,,,,,,,,,,,,,,,,,,,,,,,,,,,,,,,,,
,,6994c0c96df19159622d6e63,2026-03-17_12h25.26.014,kallum_motion_pilot_GIST_update_2,2026.1.1,Win32,60.24096386,6994c0c96df19159622d6e63,69b92ab4aef6dee357cd729a,69b92b77db62e537c6d8dbf0,0.0845,0.0845,1,85,247,130,1,sixfive,,,,,,,,,,,,,,,,,,,,,,,,,,,,,,,,,,,,,,,,,,,,,,,,,,,,,,,,,,,,,,,,,,,,,,,,,,,,,,,,,,,,,,,,,,,,,,,,,,,,,,,,,,,,,,,,,,,,,,,,,,,,,,,,,,,,,,,,,
,,6994c0c96df19159622d6e63,2026-03-17_12h25.26.014,kallum_motion_pilot_GIST_update_2,2026.1.1,Win32,60.24096386,6994c0c96df19159622d6e63,69b92ab4aef6dee357cd729a,69b92b77db62e537c6d8dbf0,0.0845,0.0845,1,86,248,152,1,fivesix,,,,,,,,,,,,,,,,,,,,,,,,,,,,,,,,,,,,,,,,,,,,,,,,,,,,,,,,,,,,,,,,,,,,,,,,,,,,,,,,,,,,,,,,,,,,,,,,,,,,,,,,,,,,,,,,,,,,,,,,,,,,,,,,,,,,,,,,,
,,6994c0c96df19159622d6e63,2026-03-17_12h25.26.014,kallum_motion_pilot_GIST_update_2,2026.1.1,Win32,60.24096386,6994c0c96df19159622d6e63,69b92ab4aef6dee357cd729a,69b92b77db62e537c6d8dbf0,0.0848,0.0848,1,87,249,139,1,sixeight,,,,,,,,,,,,,,,,,,,,,,,,,,,,,,,,,,,,,,,,,,,,,,,,,,,,,,,,,,,,,,,,,,,,,,,,,,,,,,,,,,,,,,,,,,,,,,,,,,,,,,,,,,,,,,,,,,,,,,,,,,,,,,,,,,,,,,,,,
,,6994c0c96df19159622d6e63,2026-03-17_12h25.26.014,kallum_motion_pilot_GIST_update_2,2026.1.1,Win32,60.24096386,6994c0c96df19159622d6e63,69b92ab4aef6dee357cd729a,69b92b77db62e537c6d8dbf0,0.0849,0.0849,1,88,250,122,1,sixfive,,,,,,,,,,,,,,,,,,,,,,,,,,,,,,,,,,,,,,,,,,,,,,,,,,,,,,,,,,,,,,,,,,,,,,,,,,,,,,,,,,,,,,,,,,,,,,,,,,,,,,,,,,,,,,,,,,,,,,,,,,,,,,,,,,,,,,,,,
,,6994c0c96df19159622d6e63,2026-03-17_12h25.26.014,kallum_motion_pilot_GIST_update_2,2026.1.1,Win32,60.24096386,6994c0c96df19159622d6e63,69b92ab4aef6dee357cd729a,69b92b77db62e537c6d8dbf0,0.0851,0.0851,1,89,251,33,1,onethree,,,,,,,,,,,,,,,,,,,,,,,,,,,,,,,,,,,,,,,,,,,,,,,,,,,,,,,,,,,,,,,,,,,,,,,,,,,,,,,,,,,,,,,,,,,,,,,,,,,,,,,,,,,,,,,,,,,,,,,,,,,,,,,,,,,,,,,,,
,,6994c0c96df19159622d6e63,2026-03-17_12h25.26.014,kallum_motion_pilot_GIST_update_2,2026.1.1,Win32,60.24096386,6994c0c96df19159622d6e63,69b92ab4aef6dee357cd729a,69b92b77db62e537c6d8dbf0,0.0853,0.0853,1,90,252,50,1,twoone,,,,,,,,,,,,,,,,,,,,,,,,,,,,,,,,,,,,,,,,,,,,,,,,,,,,,,,,,,,,,,,,,,,,,,,,,,,,,,,,,,,,,,,,,,,,,,,,,,,,,,,,,,,,,,,,,,,,,,,,,,,,,,,,,,,,,,,,,
,,6994c0c96df19159622d6e63,2026-03-17_12h25.26.014,kallum_motion_pilot_GIST_update_2,2026.1.1,Win32,60.24096386,6994c0c96df19159622d6e63,69b92ab4aef6dee357cd729a,69b92b77db62e537c6d8dbf0,0.0854,0.0854,1,91,253,111,1,eightseven,,,,,,,,,,,,,,,,,,,,,,,,,,,,,,,,,,,,,,,,,,,,,,,,,,,,,,,,,,,,,,,,,,,,,,,,,,,,,,,,,,,,,,,,,,,,,,,,,,,,,,,,,,,,,,,,,,,,,,,,,,,,,,,,,,,,,,,,,
,,6994c0c96df19159622d6e63,2026-03-17_12h25.26.014,kallum_motion_pilot_GIST_update_2,2026.1.1,Win32,60.24096386,6994c0c96df19159622d6e63,69b92ab4aef6dee357cd729a,69b92b77db62e537c6d8dbf0,0.0856,0.0856,1,92,254,60,1,threeone,,,,,,,,,,,,,,,,,,,,,,,,,,,,,,,,,,,,,,,,,,,,,,,,,,,,,,,,,,,,,,,,,,,,,,,,,,,,,,,,,,,,,,,,,,,,,,,,,,,,,,,,,,,,,,,,,,,,,,,,,,,,,,,,,,,,,,,,,
,,6994c0c96df19159622d6e63,2026-03-17_12h25.26.014,kallum_motion_pilot_GIST_update_2,2026.1.1,Win32,60.24096386,6994c0c96df19159622d6e63,69b92ab4aef6dee357cd729a,69b92b77db62e537c6d8dbf0,0.0859,0.0859,1,93,255,59,1,twofour,,,,,,,,,,,,,,,,,,,,,,,,,,,,,,,,,,,,,,,,,,,,,,,,,,,,,,,,,,,,,,,,,,,,,,,,,,,,,,,,,,,,,,,,,,,,,,,,,,,,,,,,,,,,,,,,,,,,,,,,,,,,,,,,,,,,,,,,,
,,6994c0c96df19159622d6e63,2026-03-17_12h25.26.014,kallum_motion_pilot_GIST_update_2,2026.1.1,Win32,60.24096386,6994c0c96df19159622d6e63,69b92ab4aef6dee357cd729a,69b92b77db62e537c6d8dbf0,0.0861,0.0861,1,94,256,82,1,sixfive,,,,,,,,,,,,,,,,,,,,,,,,,,,,,,,,,,,,,,,,,,,,,,,,,,,,,,,,,,,,,,,,,,,,,,,,,,,,,,,,,,,,,,,,,,,,,,,,,,,,,,,,,,,,,,,,,,,,,,,,,,,,,,,,,,,,,,,,,
,,6994c0c96df19159622d6e63,2026-03-17_12h25.26.014,kallum_motion_pilot_GIST_update_2,2026.1.1,Win32,60.24096386,6994c0c96df19159622d6e63,69b92ab4aef6dee357cd729a,69b92b77db62e537c6d8dbf0,0.0863,0.0863,1,95,257,125,1,seveneight,,,,,,,,,,,,,,,,,,,,,,,,,,,,,,,,,,,,,,,,,,,,,,,,,,,,,,,,,,,,,,,,,,,,,,,,,,,,,,,,,,,,,,,,,,,,,,,,,,,,,,,,,,,,,,,,,,,,,,,,,,,,,,,,,,,,,,,,,
,,6994c0c96df19159622d6e63,2026-03-17_12h25.26.014,kallum_motion_pilot_GIST_update_2,2026.1.1,Win32,60.24096386,6994c0c96df19159622d6e63,69b92ab4aef6dee357cd729a,69b92b77db62e537c6d8dbf0,0.0865,0.0865,1,96,258,101,1,seveneight,,,,,,,,,,,,,,,,,,,,,,,,,,,,,,,,,,,,,,,,,,,,,,,,,,,,,,,,,,,,,,,,,,,,,,,,,,,,,,,,,,,,,,,,,,,,,,,,,,,,,,,,,,,,,,,,,,,,,,,,,,,,,,,,,,,,,,,,,
,,6994c0c96df19159622d6e63,2026-03-17_12h25.26.014,kallum_motion_pilot_GIST_update_2,2026.1.1,Win32,60.24096386,6994c0c96df19159622d6e63,69b92ab4aef6dee357cd729a,69b92b77db62e537c6d8dbf0,0.0866,0.0866,1,97,259,42,1,twoone,,,,,,,,,,,,,,,,,,,,,,,,,,,,,,,,,,,,,,,,,,,,,,,,,,,,,,,,,,,,,,,,,,,,,,,,,,,,,,,,,,,,,,,,,,,,,,,,,,,,,,,,,,,,,,,,,,,,,,,,,,,,,,,,,,,,,,,,,
,,6994c0c96df19159622d6e63,2026-03-17_12h25.26.014,kallum_motion_pilot_GIST_update_2,2026.1.1,Win32,60.24096386,6994c0c96df19159622d6e63,69b92ab4aef6dee357cd729a,69b92b77db62e537c6d8dbf0,0.0867,0.0868,1,98,260,1,1,onethree,,,,,,,,,,,,,,,,,,,,,,,,,,,,,,,,,,,,,,,,,,,,,,,,,,,,,,,,,,,,,,,,,,,,,,,,,,,,,,,,,,,,,,,,,,,,,,,,,,,,,,,,,,,,,,,,,,,,,,,,,,,,,,,,,,,,,,,,,
,,6994c0c96df19159622d6e63,2026-03-17_12h25.26.014,kallum_motion_pilot_GIST_update_2,2026.1.1,Win32,60.24096386,6994c0c96df19159622d6e63,69b92ab4aef6dee357cd729a,69b92b77db62e537c6d8dbf0,0.0869,0.0869,1,99,261,158,1,eightsix,,,,,,,,,,,,,,,,,,,,,,,,,,,,,,,,,,,,,,,,,,,,,,,,,,,,,,,,,,,,,,,,,,,,,,,,,,,,,,,,,,,,,,,,,,,,,,,,,,,,,,,,,,,,,,,,,,,,,,,,,,,,,,,,,,,,,,,,,
,,6994c0c96df19159622d6e63,2026-03-17_12h25.26.014,kallum_motion_pilot_GIST_update_2,2026.1.1,Win32,60.24096386,6994c0c96df19159622d6e63,69b92ab4aef6dee357cd729a,69b92b77db62e537c6d8dbf0,0.0872,0.0872,1,100,262,14,1,fourtwo,,,,,,,,,,,,,,,,,,,,,,,,,,,,,,,,,,,,,,,,,,,,,,,,,,,,,,,,,,,,,,,,,,,,,,,,,,,,,,,,,,,,,,,,,,,,,,,,,,,,,,,,,,,,,,,,,,,,,,,,,,,,,,,,,,,,,,,,,
,,6994c0c96df19159622d6e63,2026-03-17_12h25.26.014,kallum_motion_pilot_GIST_update_2,2026.1.1,Win32,60.24096386,6994c0c96df19159622d6e63,69b92ab4aef6dee357cd729a,69b92b77db62e537c6d8dbf0,0.0875,0.0875,1,101,263,12,1,threeone,,,,,,,,,,,,,,,,,,,,,,,,,,,,,,,,,,,,,,,,,,,,,,,,,,,,,,,,,,,,,,,,,,,,,,,,,,,,,,,,,,,,,,,,,,,,,,,,,,,,,,,,,,,,,,,,,,,,,,,,,,,,,,,,,,,,,,,,,
,,6994c0c96df19159622d6e63,2026-03-17_12h25.26.014,kallum_motion_pilot_GIST_update_2,2026.1.1,Win32,60.24096386,6994c0c96df19159622d6e63,69b92ab4aef6dee357cd729a,69b92b77db62e537c6d8dbf0,0.0878,0.0878,1,102,264,13,1,threefour,,,,,,,,,,,,,,,,,,,,,,,,,,,,,,,,,,,,,,,,,,,,,,,,,,,,,,,,,,,,,,,,,,,,,,,,,,,,,,,,,,,,,,,,,,,,,,,,,,,,,,,,,,,,,,,,,,,,,,,,,,,,,,,,,,,,,,,,,
,,6994c0c96df19159622d6e63,2026-03-17_12h25.26.014,kallum_motion_pilot_GIST_update_2,2026.1.1,Win32,60.24096386,6994c0c96df19159622d6e63,69b92ab4aef6dee357cd729a,69b92b77db62e537c6d8dbf0,0.088,0.088,1,103,265,36,1,threeone,,,,,,,,,,,,,,,,,,,,,,,,,,,,,,,,,,,,,,,,,,,,,,,,,,,,,,,,,,,,,,,,,,,,,,,,,,,,,,,,,,,,,,,,,,,,,,,,,,,,,,,,,,,,,,,,,,,,,,,,,,,,,,,,,,,,,,,,,
,,6994c0c96df19159622d6e63,2026-03-17_12h25.26.014,kallum_motion_pilot_GIST_update_2,2026.1.1,Win32,60.24096386,6994c0c96df19159622d6e63,69b92ab4aef6dee357cd729a,69b92b77db62e537c6d8dbf0,0.0882,0.0882,1,104,266,112,1,fivesix,,,,,,,,,,,,,,,,,,,,,,,,,,,,,,,,,,,,,,,,,,,,,,,,,,,,,,,,,,,,,,,,,,,,,,,,,,,,,,,,,,,,,,,,,,,,,,,,,,,,,,,,,,,,,,,,,,,,,,,,,,,,,,,,,,,,,,,,,
