startup.started,startup.stopped,Prolific ID*,date,expName,psychopyVersion,OS,frameRate,participant,study_id,session,stimpositions.started,stimpositions.stopped,hardcoded_stimulus_positions.thisRepN,hardcoded_stimulus_positions.thisTrialN,hardcoded_stimulus_positions.thisN,hardcoded_stimulus_positions.thisIndex,hardcoded_stimulus_positions.ran,StimulusPos,stimorientation.started,stimorientation.stopped,prac_stimorientation_import_loop.thisRepN,prac_stimorientation_import_loop.thisTrialN,prac_stimorientation_import_loop.thisN,prac_stimorientation_import_loop.thisIndex,prac_stimorientation_import_loop.ran,Stimorientation,welcome_instr.started,welcome_instr.stopped,key_resp.keys,key_resp.rt,key_resp.duration,response_steppedout_1.started,response_steppedout_1.stopped,key_resp_20.keys,key_resp_20.rt,key_resp_20.duration,response_steppedout_2.started,response_steppedout_2.stopped,key_resp_19.keys,key_resp_19.rt,key_resp_19.duration,stim_response_instr.started,stim_response_instr.stopped,key_resp_15.keys,key_resp_15.rt,key_resp_15.duration,direction_instr_2.started,direction_instr_2.stopped,key_resp_9.keys,key_resp_9.rt,key_resp_9.duration,instr_prac.started,instr_prac.stopped,key_resp_10.keys,key_resp_10.rt,key_resp_10.duration,Stim1_display_prac.started,Stim1_display_prac.stopped,Ecc,Circle1_ori,Circle2_ori,response_prac.started,similarity,response_time,response_prac.stopped,mouse_5.x,mouse_5.y,mouse_5.leftButton,mouse_5.midButton,mouse_5.rightButton,mouse_5.clicked_name,responseprac_feedback.started,responseprac_feedback.stopped,summary2_prac.started,summary2_prac.stopped,mouse_6.x,mouse_6.y,mouse_6.leftButton,mouse_6.midButton,mouse_6.rightButton,mouse_6.clicked_name,duringprac.thisRepN,duringprac.thisTrialN,duringprac.thisN,duringprac.thisIndex,duringprac.ran,begin.started,begin.stopped,key_resp_22.keys,key_resp_22.rt,key_resp_22.duration,Stim1_display.started,Stim1_display.stopped,circle1_ori,circle2_ori,circle1_SF,circle2_SF,response.started,response.stopped,mouse.x,mouse.y,mouse.leftButton,mouse.midButton,mouse.rightButton,mouse.clicked_name,trialnumber,double_pass.thisRepN,double_pass.thisTrialN,double_pass.thisN,double_pass.thisIndex,double_pass.ran,double_pass.order,main_trial.thisRepN,main_trial.thisTrialN,main_trial.thisN,main_trial.thisIndex,main_trial.ran,main_trial.order,Trial_Counter,Catch,Frequencies,response_2.started,response_2.stopped,mouse_2.x,mouse_2.y,mouse_2.leftButton,mouse_2.midButton,mouse_2.rightButton,mouse_2.clicked_name,special_trial.started,special_trial.stopped,catch_1.started,catch_1.stopped,mouse_3.x,mouse_3.y,mouse_3.leftButton,mouse_3.midButton,mouse_3.rightButton,catchresponse,catchnumber,response_time_catch,response_sum.started,response_sum.stopped,mouse_11.x,mouse_11.y,mouse_11.leftButton,mouse_11.midButton,mouse_11.rightButton,flip_presentation_sequence_for_double_pass.started,flip_presentation_sequence_for_double_pass.stopped,goodbye.started,goodbye.stopped,key_resp_3.keys,key_resp_3.rt,key_resp_3.duration
0.0005,0.0006,69a1a730604a58240a529d37,2026-03-17_10h31.56.741,kallum_motion_pilot_GIST_update_2,2026.1.1,Win32,59.88023952,69a1a730604a58240a529d37,69b92ab4aef6dee357cd729a,69b92ae73146493b1a4792a9,,,,,,,,,,,,,,,,,,,,,,,,,,,,,,,,,,,,,,,,,,,,,,,,,,,,,,,,,,,,,,,,,,,,,,,,,,,,,,,,,,,,,,,,,,,,,,,,,,,,,,,,,,,,,,,,,,,,,,,,,,,,,,,,,,,,,,,,,,,,,,,,,
,,69a1a730604a58240a529d37,2026-03-17_10h31.56.741,kallum_motion_pilot_GIST_update_2,2026.1.1,Win32,59.88023952,69a1a730604a58240a529d37,69b92ab4aef6dee357cd729a,69b92ae73146493b1a4792a9,0.0298,0.0298,0,0,0,156,1,sevenfive,,,,,,,,,,,,,,,,,,,,,,,,,,,,,,,,,,,,,,,,,,,,,,,,,,,,,,,,,,,,,,,,,,,,,,,,,,,,,,,,,,,,,,,,,,,,,,,,,,,,,,,,,,,,,,,,,,,,,,,,,,,,,,,,,,,,,,,,,
,,69a1a730604a58240a529d37,2026-03-17_10h31.56.741,kallum_motion_pilot_GIST_update_2,2026.1.1,Win32,59.88023952,69a1a730604a58240a529d37,69b92ab4aef6dee357cd729a,69b92ae73146493b1a4792a9,0.0301,0.0301,0,1,1,117,1,seveneight,,,,,,,,,,,,,,,,,,,,,,,,,,,,,,,,,,,,,,,,,,,,,,,,,,,,,,,,,,,,,,,,,,,,,,,,,,,,,,,,,,,,,,,,,,,,,,,,,,,,,,,,,,,,,,,,,,,,,,,,,,,,,,,,,,,,,,,,,
,,69a1a730604a58240a529d37,2026-03-17_10h31.56.741,kallum_motion_pilot_GIST_update_2,2026.1.1,Win32,59.88023952,69a1a730604a58240a529d37,69b92ab4aef6dee357cd729a,69b92ae73146493b1a4792a9,0.0302,0.0302,0,2,2,28,1,threeone,,,,,,,,,,,,,,,,,,,,,,,,,,,,,,,,,,,,,,,,,,,,,,,,,,,,,,,,,,,,,,,,,,,,,,,,,,,,,,,,,,,,,,,,,,,,,,,,,,,,,,,,,,,,,,,,,,,,,,,,,,,,,,,,,,,,,,,,,
,,69a1a730604a58240a529d37,2026-03-17_10h31.56.741,kallum_motion_pilot_GIST_update_2,2026.1.1,Win32,59.88023952,69a1a730604a58240a529d37,69b92ab4aef6dee357cd729a,69b92ae73146493b1a4792a9,0.0304,0.0304,0,3,3,56,1,onetwo,,,,,,,,,,,,,,,,,,,,,,,,,,,,,,,,,,,,,,,,,,,,,,,,,,,,,,,,,,,,,,,,,,,,,,,,,,,,,,,,,,,,,,,,,,,,,,,,,,,,,,,,,,,,,,,,,,,,,,,,,,,,,,,,,,,,,,,,,
,,69a1a730604a58240a529d37,2026-03-17_10h31.56.741,kallum_motion_pilot_GIST_update_2,2026.1.1,Win32,59.88023952,69a1a730604a58240a529d37,69b92ab4aef6dee357cd729a,69b92ae73146493b1a4792a9,0.0305,0.0305,0,4,4,31,1,fourthree,,,,,,,,,,,,,,,,,,,,,,,,,,,,,,,,,,,,,,,,,,,,,,,,,,,,,,,,,,,,,,,,,,,,,,,,,,,,,,,,,,,,,,,,,,,,,,,,,,,,,,,,,,,,,,,,,,,,,,,,,,,,,,,,,,,,,,,,,
,,69a1a730604a58240a529d37,2026-03-17_10h31.56.741,kallum_motion_pilot_GIST_update_2,2026.1.1,Win32,59.88023952,69a1a730604a58240a529d37,69b92ab4aef6dee357cd729a,69b92ae73146493b1a4792a9,0.0306,0.0306,0,5,5,66,1,twoone,,,,,,,,,,,,,,,,,,,,,,,,,,,,,,,,,,,,,,,,,,,,,,,,,,,,,,,,,,,,,,,,,,,,,,,,,,,,,,,,,,,,,,,,,,,,,,,,,,,,,,,,,,,,,,,,,,,,,,,,,,,,,,,,,,,,,,,,,
,,69a1a730604a58240a529d37,2026-03-17_10h31.56.741,kallum_motion_pilot_GIST_update_2,2026.1.1,Win32,59.88023952,69a1a730604a58240a529d37,69b92ab4aef6dee357cd729a,69b92ae73146493b1a4792a9,0.0307,0.0307,0,6,6,54,1,fourtwo,,,,,,,,,,,,,,,,,,,,,,,,,,,,,,,,,,,,,,,,,,,,,,,,,,,,,,,,,,,,,,,,,,,,,,,,,,,,,,,,,,,,,,,,,,,,,,,,,,,,,,,,,,,,,,,,,,,,,,,,,,,,,,,,,,,,,,,,,
,,69a1a730604a58240a529d37,2026-03-17_10h31.56.741,kallum_motion_pilot_GIST_update_2,2026.1.1,Win32,59.88023952,69a1a730604a58240a529d37,69b92ab4aef6dee357cd729a,69b92ae73146493b1a4792a9,0.0309,0.0309,0,7,7,158,1,eightsix,,,,,,,,,,,,,,,,,,,,,,,,,,,,,,,,,,,,,,,,,,,,,,,,,,,,,,,,,,,,,,,,,,,,,,,,,,,,,,,,,,,,,,,,,,,,,,,,,,,,,,,,,,,,,,,,,,,,,,,,,,,,,,,,,,,,,,,,,
,,69a1a730604a58240a529d37,2026-03-17_10h31.56.741,kallum_motion_pilot_GIST_update_2,2026.1.1,Win32,59.88023952,69a1a730604a58240a529d37,69b92ab4aef6dee357cd729a,69b92ae73146493b1a4792a9,0.031,0.031,0,8,8,116,1,sevenfive,,,,,,,,,,,,,,,,,,,,,,,,,,,,,,,,,,,,,,,,,,,,,,,,,,,,,,,,,,,,,,,,,,,,,,,,,,,,,,,,,,,,,,,,,,,,,,,,,,,,,,,,,,,,,,,,,,,,,,,,,,,,,,,,,,,,,,,,,
,,69a1a730604a58240a529d37,2026-03-17_10h31.56.741,kallum_motion_pilot_GIST_update_2,2026.1.1,Win32,59.88023952,69a1a730604a58240a529d37,69b92ab4aef6dee357cd729a,69b92ae73146493b1a4792a9,0.0311,0.0311,0,9,9,101,1,seveneight,,,,,,,,,,,,,,,,,,,,,,,,,,,,,,,,,,,,,,,,,,,,,,,,,,,,,,,,,,,,,,,,,,,,,,,,,,,,,,,,,,,,,,,,,,,,,,,,,,,,,,,,,,,,,,,,,,,,,,,,,,,,,,,,,,,,,,,,,
,,69a1a730604a58240a529d37,2026-03-17_10h31.56.741,kallum_motion_pilot_GIST_update_2,2026.1.1,Win32,59.88023952,69a1a730604a58240a529d37,69b92ab4aef6dee357cd729a,69b92ae73146493b1a4792a9,0.0311,0.0311,0,10,10,25,1,onethree,,,,,,,,,,,,,,,,,,,,,,,,,,,,,,,,,,,,,,,,,,,,,,,,,,,,,,,,,,,,,,,,,,,,,,,,,,,,,,,,,,,,,,,,,,,,,,,,,,,,,,,,,,,,,,,,,,,,,,,,,,,,,,,,,,,,,,,,,
,,69a1a730604a58240a529d37,2026-03-17_10h31.56.741,kallum_motion_pilot_GIST_update_2,2026.1.1,Win32,59.88023952,69a1a730604a58240a529d37,69b92ab4aef6dee357cd729a,69b92ae73146493b1a4792a9,0.0313,0.0313,0,11,11,1,1,onethree,,,,,,,,,,,,,,,,,,,,,,,,,,,,,,,,,,,,,,,,,,,,,,,,,,,,,,,,,,,,,,,,,,,,,,,,,,,,,,,,,,,,,,,,,,,,,,,,,,,,,,,,,,,,,,,,,,,,,,,,,,,,,,,,,,,,,,,,,
,,69a1a730604a58240a529d37,2026-03-17_10h31.56.741,kallum_motion_pilot_GIST_update_2,2026.1.1,Win32,59.88023952,69a1a730604a58240a529d37,69b92ab4aef6dee357cd729a,69b92ae73146493b1a4792a9,0.0313,0.0313,0,12,12,43,1,twofour,,,,,,,,,,,,,,,,,,,,,,,,,,,,,,,,,,,,,,,,,,,,,,,,,,,,,,,,,,,,,,,,,,,,,,,,,,,,,,,,,,,,,,,,,,,,,,,,,,,,,,,,,,,,,,,,,,,,,,,,,,,,,,,,,,,,,,,,,
,,69a1a730604a58240a529d37,2026-03-17_10h31.56.741,kallum_motion_pilot_GIST_update_2,2026.1.1,Win32,59.88023952,69a1a730604a58240a529d37,69b92ab4aef6dee357cd729a,69b92ae73146493b1a4792a9,0.0314,0.0314,0,13,13,19,1,twofour,,,,,,,,,,,,,,,,,,,,,,,,,,,,,,,,,,,,,,,,,,,,,,,,,,,,,,,,,,,,,,,,,,,,,,,,,,,,,,,,,,,,,,,,,,,,,,,,,,,,,,,,,,,,,,,,,,,,,,,,,,,,,,,,,,,,,,,,,
,,69a1a730604a58240a529d37,2026-03-17_10h31.56.741,kallum_motion_pilot_GIST_update_2,2026.1.1,Win32,59.88023952,69a1a730604a58240a529d37,69b92ab4aef6dee357cd729a,69b92ae73146493b1a4792a9,0.0315,0.0315,0,14,14,126,1,eightsix,,,,,,,,,,,,,,,,,,,,,,,,,,,,,,,,,,,,,,,,,,,,,,,,,,,,,,,,,,,,,,,,,,,,,,,,,,,,,,,,,,,,,,,,,,,,,,,,,,,,,,,,,,,,,,,,,,,,,,,,,,,,,,,,,,,,,,,,,
,,69a1a730604a58240a529d37,2026-03-17_10h31.56.741,kallum_motion_pilot_GIST_update_2,2026.1.1,Win32,59.88023952,69a1a730604a58240a529d37,69b92ab4aef6dee357cd729a,69b92ae73146493b1a4792a9,0.0315,0.0315,0,15,15,115,1,sixeight,,,,,,,,,,,,,,,,,,,,,,,,,,,,,,,,,,,,,,,,,,,,,,,,,,,,,,,,,,,,,,,,,,,,,,,,,,,,,,,,,,,,,,,,,,,,,,,,,,,,,,,,,,,,,,,,,,,,,,,,,,,,,,,,,,,,,,,,,
,,69a1a730604a58240a529d37,2026-03-17_10h31.56.741,kallum_motion_pilot_GIST_update_2,2026.1.1,Win32,59.88023952,69a1a730604a58240a529d37,69b92ab4aef6dee357cd729a,69b92ae73146493b1a4792a9,0.0316,0.0316,0,16,16,65,1,onethree,,,,,,,,,,,,,,,,,,,,,,,,,,,,,,,,,,,,,,,,,,,,,,,,,,,,,,,,,,,,,,,,,,,,,,,,,,,,,,,,,,,,,,,,,,,,,,,,,,,,,,,,,,,,,,,,,,,,,,,,,,,,,,,,,,,,,,,,,
,,69a1a730604a58240a529d37,2026-03-17_10h31.56.741,kallum_motion_pilot_GIST_update_2,2026.1.1,Win32,59.88023952,69a1a730604a58240a529d37,69b92ab4aef6dee357cd729a,69b92ae73146493b1a4792a9,0.0317,0.0317,0,17,17,22,1,fourtwo,,,,,,,,,,,,,,,,,,,,,,,,,,,,,,,,,,,,,,,,,,,,,,,,,,,,,,,,,,,,,,,,,,,,,,,,,,,,,,,,,,,,,,,,,,,,,,,,,,,,,,,,,,,,,,,,,,,,,,,,,,,,,,,,,,,,,,,,,
,,69a1a730604a58240a529d37,2026-03-17_10h31.56.741,kallum_motion_pilot_GIST_update_2,2026.1.1,Win32,59.88023952,69a1a730604a58240a529d37,69b92ab4aef6dee357cd729a,69b92ae73146493b1a4792a9,0.0318,0.0318,0,18,18,134,1,eightsix,,,,,,,,,,,,,,,,,,,,,,,,,,,,,,,,,,,,,,,,,,,,,,,,,,,,,,,,,,,,,,,,,,,,,,,,,,,,,,,,,,,,,,,,,,,,,,,,,,,,,,,,,,,,,,,,,,,,,,,,,,,,,,,,,,,,,,,,,
,,69a1a730604a58240a529d37,2026-03-17_10h31.56.741,kallum_motion_pilot_GIST_update_2,2026.1.1,Win32,59.88023952,69a1a730604a58240a529d37,69b92ab4aef6dee357cd729a,69b92ae73146493b1a4792a9,0.0319,0.0319,0,19,19,100,1,sevenfive,,,,,,,,,,,,,,,,,,,,,,,,,,,,,,,,,,,,,,,,,,,,,,,,,,,,,,,,,,,,,,,,,,,,,,,,,,,,,,,,,,,,,,,,,,,,,,,,,,,,,,,,,,,,,,,,,,,,,,,,,,,,,,,,,,,,,,,,,
,,69a1a730604a58240a529d37,2026-03-17_10h31.56.741,kallum_motion_pilot_GIST_update_2,2026.1.1,Win32,59.88023952,69a1a730604a58240a529d37,69b92ab4aef6dee357cd729a,69b92ae73146493b1a4792a9,0.0319,0.0319,0,20,20,99,1,sixeight,,,,,,,,,,,,,,,,,,,,,,,,,,,,,,,,,,,,,,,,,,,,,,,,,,,,,,,,,,,,,,,,,,,,,,,,,,,,,,,,,,,,,,,,,,,,,,,,,,,,,,,,,,,,,,,,,,,,,,,,,,,,,,,,,,,,,,,,,
,,69a1a730604a58240a529d37,2026-03-17_10h31.56.741,kallum_motion_pilot_GIST_update_2,2026.1.1,Win32,59.88023952,69a1a730604a58240a529d37,69b92ab4aef6dee357cd729a,69b92ae73146493b1a4792a9,0.0321,0.0321,0,21,21,36,1,threeone,,,,,,,,,,,,,,,,,,,,,,,,,,,,,,,,,,,,,,,,,,,,,,,,,,,,,,,,,,,,,,,,,,,,,,,,,,,,,,,,,,,,,,,,,,,,,,,,,,,,,,,,,,,,,,,,,,,,,,,,,,,,,,,,,,,,,,,,,
,,69a1a730604a58240a529d37,2026-03-17_10h31.56.741,kallum_motion_pilot_GIST_update_2,2026.1.1,Win32,59.88023952,69a1a730604a58240a529d37,69b92ab4aef6dee357cd729a,69b92ae73146493b1a4792a9,0.0321,0.0322,0,22,22,139,1,sixeight,,,,,,,,,,,,,,,,,,,,,,,,,,,,,,,,,,,,,,,,,,,,,,,,,,,,,,,,,,,,,,,,,,,,,,,,,,,,,,,,,,,,,,,,,,,,,,,,,,,,,,,,,,,,,,,,,,,,,,,,,,,,,,,,,,,,,,,,,
,,69a1a730604a58240a529d37,2026-03-17_10h31.56.741,kallum_motion_pilot_GIST_update_2,2026.1.1,Win32,59.88023952,69a1a730604a58240a529d37,69b92ab4aef6dee357cd729a,69b92ae73146493b1a4792a9,0.0322,0.0322,0,23,23,103,1,eightseven,,,,,,,,,,,,,,,,,,,,,,,,,,,,,,,,,,,,,,,,,,,,,,,,,,,,,,,,,,,,,,,,,,,,,,,,,,,,,,,,,,,,,,,,,,,,,,,,,,,,,,,,,,,,,,,,,,,,,,,,,,,,,,,,,,,,,,,,,
,,69a1a730604a58240a529d37,2026-03-17_10h31.56.741,kallum_motion_pilot_GIST_update_2,2026.1.1,Win32,59.88023952,69a1a730604a58240a529d37,69b92ab4aef6dee357cd729a,69b92ae73146493b1a4792a9,0.0324,0.0324,0,24,24,144,1,fivesix,,,,,,,,,,,,,,,,,,,,,,,,,,,,,,,,,,,,,,,,,,,,,,,,,,,,,,,,,,,,,,,,,,,,,,,,,,,,,,,,,,,,,,,,,,,,,,,,,,,,,,,,,,,,,,,,,,,,,,,,,,,,,,,,,,,,,,,,,
,,69a1a730604a58240a529d37,2026-03-17_10h31.56.741,kallum_motion_pilot_GIST_update_2,2026.1.1,Win32,59.88023952,69a1a730604a58240a529d37,69b92ab4aef6dee357cd729a,69b92ae73146493b1a4792a9,0.0326,0.0326,0,25,25,141,1,seveneight,,,,,,,,,,,,,,,,,,,,,,,,,,,,,,,,,,,,,,,,,,,,,,,,,,,,,,,,,,,,,,,,,,,,,,,,,,,,,,,,,,,,,,,,,,,,,,,,,,,,,,,,,,,,,,,,,,,,,,,,,,,,,,,,,,,,,,,,,
,,69a1a730604a58240a529d37,2026-03-17_10h31.56.741,kallum_motion_pilot_GIST_update_2,2026.1.1,Win32,59.88023952,69a1a730604a58240a529d37,69b92ab4aef6dee357cd729a,69b92ae73146493b1a4792a9,0.0326,0.0327,0,26,26,160,1,fivesix,,,,,,,,,,,,,,,,,,,,,,,,,,,,,,,,,,,,,,,,,,,,,,,,,,,,,,,,,,,,,,,,,,,,,,,,,,,,,,,,,,,,,,,,,,,,,,,,,,,,,,,,,,,,,,,,,,,,,,,,,,,,,,,,,,,,,,,,,
,,69a1a730604a58240a529d37,2026-03-17_10h31.56.741,kallum_motion_pilot_GIST_update_2,2026.1.1,Win32,59.88023952,69a1a730604a58240a529d37,69b92ab4aef6dee357cd729a,69b92ae73146493b1a4792a9,0.0327,0.0328,0,27,27,151,1,eightseven,,,,,,,,,,,,,,,,,,,,,,,,,,,,,,,,,,,,,,,,,,,,,,,,,,,,,,,,,,,,,,,,,,,,,,,,,,,,,,,,,,,,,,,,,,,,,,,,,,,,,,,,,,,,,,,,,,,,,,,,,,,,,,,,,,,,,,,,,
,,69a1a730604a58240a529d37,2026-03-17_10h31.56.741,kallum_motion_pilot_GIST_update_2,2026.1.1,Win32,59.88023952,69a1a730604a58240a529d37,69b92ab4aef6dee357cd729a,69b92ae73146493b1a4792a9,0.0328,0.0328,0,28,28,142,1,eightsix,,,,,,,,,,,,,,,,,,,,,,,,,,,,,,,,,,,,,,,,,,,,,,,,,,,,,,,,,,,,,,,,,,,,,,,,,,,,,,,,,,,,,,,,,,,,,,,,,,,,,,,,,,,,,,,,,,,,,,,,,,,,,,,,,,,,,,,,,
,,69a1a730604a58240a529d37,2026-03-17_10h31.56.741,kallum_motion_pilot_GIST_update_2,2026.1.1,Win32,59.88023952,69a1a730604a58240a529d37,69b92ab4aef6dee357cd729a,69b92ae73146493b1a4792a9,0.0329,0.0329,0,29,29,107,1,sixeight,,,,,,,,,,,,,,,,,,,,,,,,,,,,,,,,,,,,,,,,,,,,,,,,,,,,,,,,,,,,,,,,,,,,,,,,,,,,,,,,,,,,,,,,,,,,,,,,,,,,,,,,,,,,,,,,,,,,,,,,,,,,,,,,,,,,,,,,,
,,69a1a730604a58240a529d37,2026-03-17_10h31.56.741,kallum_motion_pilot_GIST_update_2,2026.1.1,Win32,59.88023952,69a1a730604a58240a529d37,69b92ab4aef6dee357cd729a,69b92ae73146493b1a4792a9,0.033,0.033,0,30,30,61,1,threefour,,,,,,,,,,,,,,,,,,,,,,,,,,,,,,,,,,,,,,,,,,,,,,,,,,,,,,,,,,,,,,,,,,,,,,,,,,,,,,,,,,,,,,,,,,,,,,,,,,,,,,,,,,,,,,,,,,,,,,,,,,,,,,,,,,,,,,,,,
,,69a1a730604a58240a529d37,2026-03-17_10h31.56.741,kallum_motion_pilot_GIST_update_2,2026.1.1,Win32,59.88023952,69a1a730604a58240a529d37,69b92ab4aef6dee357cd729a,69b92ae73146493b1a4792a9,0.0331,0.0331,0,31,31,109,1,seveneight,,,,,,,,,,,,,,,,,,,,,,,,,,,,,,,,,,,,,,,,,,,,,,,,,,,,,,,,,,,,,,,,,,,,,,,,,,,,,,,,,,,,,,,,,,,,,,,,,,,,,,,,,,,,,,,,,,,,,,,,,,,,,,,,,,,,,,,,,
,,69a1a730604a58240a529d37,2026-03-17_10h31.56.741,kallum_motion_pilot_GIST_update_2,2026.1.1,Win32,59.88023952,69a1a730604a58240a529d37,69b92ab4aef6dee357cd729a,69b92ae73146493b1a4792a9,0.0332,0.0332,0,32,32,143,1,eightseven,,,,,,,,,,,,,,,,,,,,,,,,,,,,,,,,,,,,,,,,,,,,,,,,,,,,,,,,,,,,,,,,,,,,,,,,,,,,,,,,,,,,,,,,,,,,,,,,,,,,,,,,,,,,,,,,,,,,,,,,,,,,,,,,,,,,,,,,,
,,69a1a730604a58240a529d37,2026-03-17_10h31.56.741,kallum_motion_pilot_GIST_update_2,2026.1.1,Win32,59.88023952,69a1a730604a58240a529d37,69b92ab4aef6dee357cd729a,69b92ae73146493b1a4792a9,0.0333,0.0333,0,33,33,72,1,onetwo,,,,,,,,,,,,,,,,,,,,,,,,,,,,,,,,,,,,,,,,,,,,,,,,,,,,,,,,,,,,,,,,,,,,,,,,,,,,,,,,,,,,,,,,,,,,,,,,,,,,,,,,,,,,,,,,,,,,,,,,,,,,,,,,,,,,,,,,,
,,69a1a730604a58240a529d37,2026-03-17_10h31.56.741,kallum_motion_pilot_GIST_update_2,2026.1.1,Win32,59.88023952,69a1a730604a58240a529d37,69b92ab4aef6dee357cd729a,69b92ae73146493b1a4792a9,0.0333,0.0334,0,34,34,37,1,threefour,,,,,,,,,,,,,,,,,,,,,,,,,,,,,,,,,,,,,,,,,,,,,,,,,,,,,,,,,,,,,,,,,,,,,,,,,,,,,,,,,,,,,,,,,,,,,,,,,,,,,,,,,,,,,,,,,,,,,,,,,,,,,,,,,,,,,,,,,
,,69a1a730604a58240a529d37,2026-03-17_10h31.56.741,kallum_motion_pilot_GIST_update_2,2026.1.1,Win32,59.88023952,69a1a730604a58240a529d37,69b92ab4aef6dee357cd729a,69b92ae73146493b1a4792a9,0.0335,0.0335,0,35,35,46,1,fourtwo,,,,,,,,,,,,,,,,,,,,,,,,,,,,,,,,,,,,,,,,,,,,,,,,,,,,,,,,,,,,,,,,,,,,,,,,,,,,,,,,,,,,,,,,,,,,,,,,,,,,,,,,,,,,,,,,,,,,,,,,,,,,,,,,,,,,,,,,,
,,69a1a730604a58240a529d37,2026-03-17_10h31.56.741,kallum_motion_pilot_GIST_update_2,2026.1.1,Win32,59.88023952,69a1a730604a58240a529d37,69b92ab4aef6dee357cd729a,69b92ae73146493b1a4792a9,0.0336,0.0336,0,36,36,125,1,seveneight,,,,,,,,,,,,,,,,,,,,,,,,,,,,,,,,,,,,,,,,,,,,,,,,,,,,,,,,,,,,,,,,,,,,,,,,,,,,,,,,,,,,,,,,,,,,,,,,,,,,,,,,,,,,,,,,,,,,,,,,,,,,,,,,,,,,,,,,,
,,69a1a730604a58240a529d37,2026-03-17_10h31.56.741,kallum_motion_pilot_GIST_update_2,2026.1.1,Win32,59.88023952,69a1a730604a58240a529d37,69b92ab4aef6dee357cd729a,69b92ae73146493b1a4792a9,0.0336,0.0336,0,37,37,120,1,fivesix,,,,,,,,,,,,,,,,,,,,,,,,,,,,,,,,,,,,,,,,,,,,,,,,,,,,,,,,,,,,,,,,,,,,,,,,,,,,,,,,,,,,,,,,,,,,,,,,,,,,,,,,,,,,,,,,,,,,,,,,,,,,,,,,,,,,,,,,,
,,69a1a730604a58240a529d37,2026-03-17_10h31.56.741,kallum_motion_pilot_GIST_update_2,2026.1.1,Win32,59.88023952,69a1a730604a58240a529d37,69b92ab4aef6dee357cd729a,69b92ae73146493b1a4792a9,0.0337,0.0337,0,38,38,133,1,seveneight,,,,,,,,,,,,,,,,,,,,,,,,,,,,,,,,,,,,,,,,,,,,,,,,,,,,,,,,,,,,,,,,,,,,,,,,,,,,,,,,,,,,,,,,,,,,,,,,,,,,,,,,,,,,,,,,,,,,,,,,,,,,,,,,,,,,,,,,,
,,69a1a730604a58240a529d37,2026-03-17_10h31.56.741,kallum_motion_pilot_GIST_update_2,2026.1.1,Win32,59.88023952,69a1a730604a58240a529d37,69b92ab4aef6dee357cd729a,69b92ae73146493b1a4792a9,0.0338,0.0338,0,39,39,106,1,sixfive,,,,,,,,,,,,,,,,,,,,,,,,,,,,,,,,,,,,,,,,,,,,,,,,,,,,,,,,,,,,,,,,,,,,,,,,,,,,,,,,,,,,,,,,,,,,,,,,,,,,,,,,,,,,,,,,,,,,,,,,,,,,,,,,,,,,,,,,,
,,69a1a730604a58240a529d37,2026-03-17_10h31.56.741,kallum_motion_pilot_GIST_update_2,2026.1.1,Win32,59.88023952,69a1a730604a58240a529d37,69b92ab4aef6dee357cd729a,69b92ae73146493b1a4792a9,0.0339,0.0339,0,40,40,47,1,fourthree,,,,,,,,,,,,,,,,,,,,,,,,,,,,,,,,,,,,,,,,,,,,,,,,,,,,,,,,,,,,,,,,,,,,,,,,,,,,,,,,,,,,,,,,,,,,,,,,,,,,,,,,,,,,,,,,,,,,,,,,,,,,,,,,,,,,,,,,,
,,69a1a730604a58240a529d37,2026-03-17_10h31.56.741,kallum_motion_pilot_GIST_update_2,2026.1.1,Win32,59.88023952,69a1a730604a58240a529d37,69b92ab4aef6dee357cd729a,69b92ae73146493b1a4792a9,0.034,0.034,0,41,41,86,1,eightsix,,,,,,,,,,,,,,,,,,,,,,,,,,,,,,,,,,,,,,,,,,,,,,,,,,,,,,,,,,,,,,,,,,,,,,,,,,,,,,,,,,,,,,,,,,,,,,,,,,,,,,,,,,,,,,,,,,,,,,,,,,,,,,,,,,,,,,,,,
,,69a1a730604a58240a529d37,2026-03-17_10h31.56.741,kallum_motion_pilot_GIST_update_2,2026.1.1,Win32,59.88023952,69a1a730604a58240a529d37,69b92ab4aef6dee357cd729a,69b92ae73146493b1a4792a9,0.0341,0.0341,0,42,42,113,1,fiveseven,,,,,,,,,,,,,,,,,,,,,,,,,,,,,,,,,,,,,,,,,,,,,,,,,,,,,,,,,,,,,,,,,,,,,,,,,,,,,,,,,,,,,,,,,,,,,,,,,,,,,,,,,,,,,,,,,,,,,,,,,,,,,,,,,,,,,,,,,
,,69a1a730604a58240a529d37,2026-03-17_10h31.56.741,kallum_motion_pilot_GIST_update_2,2026.1.1,Win32,59.88023952,69a1a730604a58240a529d37,69b92ab4aef6dee357cd729a,69b92ae73146493b1a4792a9,0.0341,0.0341,0,43,43,127,1,eightseven,,,,,,,,,,,,,,,,,,,,,,,,,,,,,,,,,,,,,,,,,,,,,,,,,,,,,,,,,,,,,,,,,,,,,,,,,,,,,,,,,,,,,,,,,,,,,,,,,,,,,,,,,,,,,,,,,,,,,,,,,,,,,,,,,,,,,,,,,
,,69a1a730604a58240a529d37,2026-03-17_10h31.56.741,kallum_motion_pilot_GIST_update_2,2026.1.1,Win32,59.88023952,69a1a730604a58240a529d37,69b92ab4aef6dee357cd729a,69b92ae73146493b1a4792a9,0.0342,0.0342,0,44,44,155,1,sixeight,,,,,,,,,,,,,,,,,,,,,,,,,,,,,,,,,,,,,,,,,,,,,,,,,,,,,,,,,,,,,,,,,,,,,,,,,,,,,,,,,,,,,,,,,,,,,,,,,,,,,,,,,,,,,,,,,,,,,,,,,,,,,,,,,,,,,,,,,
,,69a1a730604a58240a529d37,2026-03-17_10h31.56.741,kallum_motion_pilot_GIST_update_2,2026.1.1,Win32,59.88023952,69a1a730604a58240a529d37,69b92ab4aef6dee357cd729a,69b92ae73146493b1a4792a9,0.0343,0.0343,0,45,45,94,1,eightsix,,,,,,,,,,,,,,,,,,,,,,,,,,,,,,,,,,,,,,,,,,,,,,,,,,,,,,,,,,,,,,,,,,,,,,,,,,,,,,,,,,,,,,,,,,,,,,,,,,,,,,,,,,,,,,,,,,,,,,,,,,,,,,,,,,,,,,,,,
,,69a1a730604a58240a529d37,2026-03-17_10h31.56.741,kallum_motion_pilot_GIST_update_2,2026.1.1,Win32,59.88023952,69a1a730604a58240a529d37,69b92ab4aef6dee357cd729a,69b92ae73146493b1a4792a9,0.0345,0.0345,0,46,46,64,1,onetwo,,,,,,,,,,,,,,,,,,,,,,,,,,,,,,,,,,,,,,,,,,,,,,,,,,,,,,,,,,,,,,,,,,,,,,,,,,,,,,,,,,,,,,,,,,,,,,,,,,,,,,,,,,,,,,,,,,,,,,,,,,,,,,,,,,,,,,,,,
,,69a1a730604a58240a529d37,2026-03-17_10h31.56.741,kallum_motion_pilot_GIST_update_2,2026.1.1,Win32,59.88023952,69a1a730604a58240a529d37,69b92ab4aef6dee357cd729a,69b92ae73146493b1a4792a9,0.0345,0.0345,0,47,47,161,1,fiveseven,,,,,,,,,,,,,,,,,,,,,,,,,,,,,,,,,,,,,,,,,,,,,,,,,,,,,,,,,,,,,,,,,,,,,,,,,,,,,,,,,,,,,,,,,,,,,,,,,,,,,,,,,,,,,,,,,,,,,,,,,,,,,,,,,,,,,,,,,
,,69a1a730604a58240a529d37,2026-03-17_10h31.56.741,kallum_motion_pilot_GIST_update_2,2026.1.1,Win32,59.88023952,69a1a730604a58240a529d37,69b92ab4aef6dee357cd729a,69b92ae73146493b1a4792a9,0.0346,0.0346,0,48,48,146,1,sixfive,,,,,,,,,,,,,,,,,,,,,,,,,,,,,,,,,,,,,,,,,,,,,,,,,,,,,,,,,,,,,,,,,,,,,,,,,,,,,,,,,,,,,,,,,,,,,,,,,,,,,,,,,,,,,,,,,,,,,,,,,,,,,,,,,,,,,,,,,
,,69a1a730604a58240a529d37,2026-03-17_10h31.56.741,kallum_motion_pilot_GIST_update_2,2026.1.1,Win32,59.88023952,69a1a730604a58240a529d37,69b92ab4aef6dee357cd729a,69b92ae73146493b1a4792a9,0.0347,0.0347,0,49,49,123,1,sixeight,,,,,,,,,,,,,,,,,,,,,,,,,,,,,,,,,,,,,,,,,,,,,,,,,,,,,,,,,,,,,,,,,,,,,,,,,,,,,,,,,,,,,,,,,,,,,,,,,,,,,,,,,,,,,,,,,,,,,,,,,,,,,,,,,,,,,,,,,
,,69a1a730604a58240a529d37,2026-03-17_10h31.56.741,kallum_motion_pilot_GIST_update_2,2026.1.1,Win32,59.88023952,69a1a730604a58240a529d37,69b92ab4aef6dee357cd729a,69b92ae73146493b1a4792a9,0.0347,0.0347,0,50,50,104,1,fivesix,,,,,,,,,,,,,,,,,,,,,,,,,,,,,,,,,,,,,,,,,,,,,,,,,,,,,,,,,,,,,,,,,,,,,,,,,,,,,,,,,,,,,,,,,,,,,,,,,,,,,,,,,,,,,,,,,,,,,,,,,,,,,,,,,,,,,,,,,
,,69a1a730604a58240a529d37,2026-03-17_10h31.56.741,kallum_motion_pilot_GIST_update_2,2026.1.1,Win32,59.88023952,69a1a730604a58240a529d37,69b92ab4aef6dee357cd729a,69b92ae73146493b1a4792a9,0.0348,0.0348,0,51,51,5,1,threefour,,,,,,,,,,,,,,,,,,,,,,,,,,,,,,,,,,,,,,,,,,,,,,,,,,,,,,,,,,,,,,,,,,,,,,,,,,,,,,,,,,,,,,,,,,,,,,,,,,,,,,,,,,,,,,,,,,,,,,,,,,,,,,,,,,,,,,,,,
,,69a1a730604a58240a529d37,2026-03-17_10h31.56.741,kallum_motion_pilot_GIST_update_2,2026.1.1,Win32,59.88023952,69a1a730604a58240a529d37,69b92ab4aef6dee357cd729a,69b92ae73146493b1a4792a9,0.0349,0.0349,0,52,52,15,1,fourthree,,,,,,,,,,,,,,,,,,,,,,,,,,,,,,,,,,,,,,,,,,,,,,,,,,,,,,,,,,,,,,,,,,,,,,,,,,,,,,,,,,,,,,,,,,,,,,,,,,,,,,,,,,,,,,,,,,,,,,,,,,,,,,,,,,,,,,,,,
,,69a1a730604a58240a529d37,2026-03-17_10h31.56.741,kallum_motion_pilot_GIST_update_2,2026.1.1,Win32,59.88023952,69a1a730604a58240a529d37,69b92ab4aef6dee357cd729a,69b92ae73146493b1a4792a9,0.035,0.035,0,53,53,135,1,eightseven,,,,,,,,,,,,,,,,,,,,,,,,,,,,,,,,,,,,,,,,,,,,,,,,,,,,,,,,,,,,,,,,,,,,,,,,,,,,,,,,,,,,,,,,,,,,,,,,,,,,,,,,,,,,,,,,,,,,,,,,,,,,,,,,,,,,,,,,,
,,69a1a730604a58240a529d37,2026-03-17_10h31.56.741,kallum_motion_pilot_GIST_update_2,2026.1.1,Win32,59.88023952,69a1a730604a58240a529d37,69b92ab4aef6dee357cd729a,69b92ae73146493b1a4792a9,0.0351,0.0351,0,54,54,88,1,fivesix,,,,,,,,,,,,,,,,,,,,,,,,,,,,,,,,,,,,,,,,,,,,,,,,,,,,,,,,,,,,,,,,,,,,,,,,,,,,,,,,,,,,,,,,,,,,,,,,,,,,,,,,,,,,,,,,,,,,,,,,,,,,,,,,,,,,,,,,,
,,69a1a730604a58240a529d37,2026-03-17_10h31.56.741,kallum_motion_pilot_GIST_update_2,2026.1.1,Win32,59.88023952,69a1a730604a58240a529d37,69b92ab4aef6dee357cd729a,69b92ae73146493b1a4792a9,0.0352,0.0352,0,55,55,131,1,sixeight,,,,,,,,,,,,,,,,,,,,,,,,,,,,,,,,,,,,,,,,,,,,,,,,,,,,,,,,,,,,,,,,,,,,,,,,,,,,,,,,,,,,,,,,,,,,,,,,,,,,,,,,,,,,,,,,,,,,,,,,,,,,,,,,,,,,,,,,,
,,69a1a730604a58240a529d37,2026-03-17_10h31.56.741,kallum_motion_pilot_GIST_update_2,2026.1.1,Win32,59.88023952,69a1a730604a58240a529d37,69b92ab4aef6dee357cd729a,69b92ae73146493b1a4792a9,0.0353,0.0353,0,56,56,27,1,twofour,,,,,,,,,,,,,,,,,,,,,,,,,,,,,,,,,,,,,,,,,,,,,,,,,,,,,,,,,,,,,,,,,,,,,,,,,,,,,,,,,,,,,,,,,,,,,,,,,,,,,,,,,,,,,,,,,,,,,,,,,,,,,,,,,,,,,,,,,
,,69a1a730604a58240a529d37,2026-03-17_10h31.56.741,kallum_motion_pilot_GIST_update_2,2026.1.1,Win32,59.88023952,69a1a730604a58240a529d37,69b92ab4aef6dee357cd729a,69b92ae73146493b1a4792a9,0.0354,0.0354,0,57,57,112,1,fivesix,,,,,,,,,,,,,,,,,,,,,,,,,,,,,,,,,,,,,,,,,,,,,,,,,,,,,,,,,,,,,,,,,,,,,,,,,,,,,,,,,,,,,,,,,,,,,,,,,,,,,,,,,,,,,,,,,,,,,,,,,,,,,,,,,,,,,,,,,
,,69a1a730604a58240a529d37,2026-03-17_10h31.56.741,kallum_motion_pilot_GIST_update_2,2026.1.1,Win32,59.88023952,69a1a730604a58240a529d37,69b92ab4aef6dee357cd729a,69b92ae73146493b1a4792a9,0.0355,0.0355,0,58,58,93,1,seveneight,,,,,,,,,,,,,,,,,,,,,,,,,,,,,,,,,,,,,,,,,,,,,,,,,,,,,,,,,,,,,,,,,,,,,,,,,,,,,,,,,,,,,,,,,,,,,,,,,,,,,,,,,,,,,,,,,,,,,,,,,,,,,,,,,,,,,,,,,
,,69a1a730604a58240a529d37,2026-03-17_10h31.56.741,kallum_motion_pilot_GIST_update_2,2026.1.1,Win32,59.88023952,69a1a730604a58240a529d37,69b92ab4aef6dee357cd729a,69b92ae73146493b1a4792a9,0.0356,0.0356,0,59,59,157,1,seveneight,,,,,,,,,,,,,,,,,,,,,,,,,,,,,,,,,,,,,,,,,,,,,,,,,,,,,,,,,,,,,,,,,,,,,,,,,,,,,,,,,,,,,,,,,,,,,,,,,,,,,,,,,,,,,,,,,,,,,,,,,,,,,,,,,,,,,,,,,
,,69a1a730604a58240a529d37,2026-03-17_10h31.56.741,kallum_motion_pilot_GIST_update_2,2026.1.1,Win32,59.88023952,69a1a730604a58240a529d37,69b92ab4aef6dee357cd729a,69b92ae73146493b1a4792a9,0.0357,0.0357,0,60,60,98,1,sixfive,,,,,,,,,,,,,,,,,,,,,,,,,,,,,,,,,,,,,,,,,,,,,,,,,,,,,,,,,,,,,,,,,,,,,,,,,,,,,,,,,,,,,,,,,,,,,,,,,,,,,,,,,,,,,,,,,,,,,,,,,,,,,,,,,,,,,,,,,
,,69a1a730604a58240a529d37,2026-03-17_10h31.56.741,kallum_motion_pilot_GIST_update_2,2026.1.1,Win32,59.88023952,69a1a730604a58240a529d37,69b92ab4aef6dee357cd729a,69b92ae73146493b1a4792a9,0.0358,0.0358,0,61,61,50,1,twoone,,,,,,,,,,,,,,,,,,,,,,,,,,,,,,,,,,,,,,,,,,,,,,,,,,,,,,,,,,,,,,,,,,,,,,,,,,,,,,,,,,,,,,,,,,,,,,,,,,,,,,,,,,,,,,,,,,,,,,,,,,,,,,,,,,,,,,,,,
,,69a1a730604a58240a529d37,2026-03-17_10h31.56.741,kallum_motion_pilot_GIST_update_2,2026.1.1,Win32,59.88023952,69a1a730604a58240a529d37,69b92ab4aef6dee357cd729a,69b92ae73146493b1a4792a9,0.0358,0.0358,0,62,62,16,1,onetwo,,,,,,,,,,,,,,,,,,,,,,,,,,,,,,,,,,,,,,,,,,,,,,,,,,,,,,,,,,,,,,,,,,,,,,,,,,,,,,,,,,,,,,,,,,,,,,,,,,,,,,,,,,,,,,,,,,,,,,,,,,,,,,,,,,,,,,,,,
,,69a1a730604a58240a529d37,2026-03-17_10h31.56.741,kallum_motion_pilot_GIST_update_2,2026.1.1,Win32,59.88023952,69a1a730604a58240a529d37,69b92ab4aef6dee357cd729a,69b92ae73146493b1a4792a9,0.0359,0.0359,0,63,63,0,1,onetwo,,,,,,,,,,,,,,,,,,,,,,,,,,,,,,,,,,,,,,,,,,,,,,,,,,,,,,,,,,,,,,,,,,,,,,,,,,,,,,,,,,,,,,,,,,,,,,,,,,,,,,,,,,,,,,,,,,,,,,,,,,,,,,,,,,,,,,,,,
,,69a1a730604a58240a529d37,2026-03-17_10h31.56.741,kallum_motion_pilot_GIST_update_2,2026.1.1,Win32,59.88023952,69a1a730604a58240a529d37,69b92ab4aef6dee357cd729a,69b92ae73146493b1a4792a9,0.036,0.0361,0,64,64,40,1,onetwo,,,,,,,,,,,,,,,,,,,,,,,,,,,,,,,,,,,,,,,,,,,,,,,,,,,,,,,,,,,,,,,,,,,,,,,,,,,,,,,,,,,,,,,,,,,,,,,,,,,,,,,,,,,,,,,,,,,,,,,,,,,,,,,,,,,,,,,,,
,,69a1a730604a58240a529d37,2026-03-17_10h31.56.741,kallum_motion_pilot_GIST_update_2,2026.1.1,Win32,59.88023952,69a1a730604a58240a529d37,69b92ab4aef6dee357cd729a,69b92ae73146493b1a4792a9,0.0361,0.0361,0,65,65,63,1,fourthree,,,,,,,,,,,,,,,,,,,,,,,,,,,,,,,,,,,,,,,,,,,,,,,,,,,,,,,,,,,,,,,,,,,,,,,,,,,,,,,,,,,,,,,,,,,,,,,,,,,,,,,,,,,,,,,,,,,,,,,,,,,,,,,,,,,,,,,,,
,,69a1a730604a58240a529d37,2026-03-17_10h31.56.741,kallum_motion_pilot_GIST_update_2,2026.1.1,Win32,59.88023952,69a1a730604a58240a529d37,69b92ab4aef6dee357cd729a,69b92ae73146493b1a4792a9,0.0362,0.0362,0,66,66,149,1,seveneight,,,,,,,,,,,,,,,,,,,,,,,,,,,,,,,,,,,,,,,,,,,,,,,,,,,,,,,,,,,,,,,,,,,,,,,,,,,,,,,,,,,,,,,,,,,,,,,,,,,,,,,,,,,,,,,,,,,,,,,,,,,,,,,,,,,,,,,,,
,,69a1a730604a58240a529d37,2026-03-17_10h31.56.741,kallum_motion_pilot_GIST_update_2,2026.1.1,Win32,59.88023952,69a1a730604a58240a529d37,69b92ab4aef6dee357cd729a,69b92ae73146493b1a4792a9,0.0363,0.0363,0,67,67,74,1,twoone,,,,,,,,,,,,,,,,,,,,,,,,,,,,,,,,,,,,,,,,,,,,,,,,,,,,,,,,,,,,,,,,,,,,,,,,,,,,,,,,,,,,,,,,,,,,,,,,,,,,,,,,,,,,,,,,,,,,,,,,,,,,,,,,,,,,,,,,,
,,69a1a730604a58240a529d37,2026-03-17_10h31.56.741,kallum_motion_pilot_GIST_update_2,2026.1.1,Win32,59.88023952,69a1a730604a58240a529d37,69b92ab4aef6dee357cd729a,69b92ae73146493b1a4792a9,0.0365,0.0365,0,68,68,108,1,sevenfive,,,,,,,,,,,,,,,,,,,,,,,,,,,,,,,,,,,,,,,,,,,,,,,,,,,,,,,,,,,,,,,,,,,,,,,,,,,,,,,,,,,,,,,,,,,,,,,,,,,,,,,,,,,,,,,,,,,,,,,,,,,,,,,,,,,,,,,,,
,,69a1a730604a58240a529d37,2026-03-17_10h31.56.741,kallum_motion_pilot_GIST_update_2,2026.1.1,Win32,59.88023952,69a1a730604a58240a529d37,69b92ab4aef6dee357cd729a,69b92ae73146493b1a4792a9,0.0365,0.0365,0,69,69,4,1,threeone,,,,,,,,,,,,,,,,,,,,,,,,,,,,,,,,,,,,,,,,,,,,,,,,,,,,,,,,,,,,,,,,,,,,,,,,,,,,,,,,,,,,,,,,,,,,,,,,,,,,,,,,,,,,,,,,,,,,,,,,,,,,,,,,,,,,,,,,,
,,69a1a730604a58240a529d37,2026-03-17_10h31.56.741,kallum_motion_pilot_GIST_update_2,2026.1.1,Win32,59.88023952,69a1a730604a58240a529d37,69b92ab4aef6dee357cd729a,69b92ae73146493b1a4792a9,0.0366,0.0366,0,70,70,78,1,fourtwo,,,,,,,,,,,,,,,,,,,,,,,,,,,,,,,,,,,,,,,,,,,,,,,,,,,,,,,,,,,,,,,,,,,,,,,,,,,,,,,,,,,,,,,,,,,,,,,,,,,,,,,,,,,,,,,,,,,,,,,,,,,,,,,,,,,,,,,,,
,,69a1a730604a58240a529d37,2026-03-17_10h31.56.741,kallum_motion_pilot_GIST_update_2,2026.1.1,Win32,59.88023952,69a1a730604a58240a529d37,69b92ab4aef6dee357cd729a,69b92ae73146493b1a4792a9,0.0366,0.0366,0,71,71,26,1,twoone,,,,,,,,,,,,,,,,,,,,,,,,,,,,,,,,,,,,,,,,,,,,,,,,,,,,,,,,,,,,,,,,,,,,,,,,,,,,,,,,,,,,,,,,,,,,,,,,,,,,,,,,,,,,,,,,,,,,,,,,,,,,,,,,,,,,,,,,,
,,69a1a730604a58240a529d37,2026-03-17_10h31.56.741,kallum_motion_pilot_GIST_update_2,2026.1.1,Win32,59.88023952,69a1a730604a58240a529d37,69b92ab4aef6dee357cd729a,69b92ae73146493b1a4792a9,0.0368,0.0368,0,72,72,60,1,threeone,,,,,,,,,,,,,,,,,,,,,,,,,,,,,,,,,,,,,,,,,,,,,,,,,,,,,,,,,,,,,,,,,,,,,,,,,,,,,,,,,,,,,,,,,,,,,,,,,,,,,,,,,,,,,,,,,,,,,,,,,,,,,,,,,,,,,,,,,
,,69a1a730604a58240a529d37,2026-03-17_10h31.56.741,kallum_motion_pilot_GIST_update_2,2026.1.1,Win32,59.88023952,69a1a730604a58240a529d37,69b92ab4aef6dee357cd729a,69b92ae73146493b1a4792a9,0.0368,0.0368,0,73,73,150,1,eightsix,,,,,,,,,,,,,,,,,,,,,,,,,,,,,,,,,,,,,,,,,,,,,,,,,,,,,,,,,,,,,,,,,,,,,,,,,,,,,,,,,,,,,,,,,,,,,,,,,,,,,,,,,,,,,,,,,,,,,,,,,,,,,,,,,,,,,,,,,
,,69a1a730604a58240a529d37,2026-03-17_10h31.56.741,kallum_motion_pilot_GIST_update_2,2026.1.1,Win32,59.88023952,69a1a730604a58240a529d37,69b92ab4aef6dee357cd729a,69b92ae73146493b1a4792a9,0.0369,0.0369,0,74,74,38,1,fourtwo,,,,,,,,,,,,,,,,,,,,,,,,,,,,,,,,,,,,,,,,,,,,,,,,,,,,,,,,,,,,,,,,,,,,,,,,,,,,,,,,,,,,,,,,,,,,,,,,,,,,,,,,,,,,,,,,,,,,,,,,,,,,,,,,,,,,,,,,,
,,69a1a730604a58240a529d37,2026-03-17_10h31.56.741,kallum_motion_pilot_GIST_update_2,2026.1.1,Win32,59.88023952,69a1a730604a58240a529d37,69b92ab4aef6dee357cd729a,69b92ae73146493b1a4792a9,0.037,0.037,0,75,75,85,1,seveneight,,,,,,,,,,,,,,,,,,,,,,,,,,,,,,,,,,,,,,,,,,,,,,,,,,,,,,,,,,,,,,,,,,,,,,,,,,,,,,,,,,,,,,,,,,,,,,,,,,,,,,,,,,,,,,,,,,,,,,,,,,,,,,,,,,,,,,,,,
,,69a1a730604a58240a529d37,2026-03-17_10h31.56.741,kallum_motion_pilot_GIST_update_2,2026.1.1,Win32,59.88023952,69a1a730604a58240a529d37,69b92ab4aef6dee357cd729a,69b92ae73146493b1a4792a9,0.0371,0.0371,0,76,76,105,1,fiveseven,,,,,,,,,,,,,,,,,,,,,,,,,,,,,,,,,,,,,,,,,,,,,,,,,,,,,,,,,,,,,,,,,,,,,,,,,,,,,,,,,,,,,,,,,,,,,,,,,,,,,,,,,,,,,,,,,,,,,,,,,,,,,,,,,,,,,,,,,
,,69a1a730604a58240a529d37,2026-03-17_10h31.56.741,kallum_motion_pilot_GIST_update_2,2026.1.1,Win32,59.88023952,69a1a730604a58240a529d37,69b92ab4aef6dee357cd729a,69b92ae73146493b1a4792a9,0.0372,0.0372,0,77,77,8,1,onetwo,,,,,,,,,,,,,,,,,,,,,,,,,,,,,,,,,,,,,,,,,,,,,,,,,,,,,,,,,,,,,,,,,,,,,,,,,,,,,,,,,,,,,,,,,,,,,,,,,,,,,,,,,,,,,,,,,,,,,,,,,,,,,,,,,,,,,,,,,
,,69a1a730604a58240a529d37,2026-03-17_10h31.56.741,kallum_motion_pilot_GIST_update_2,2026.1.1,Win32,59.88023952,69a1a730604a58240a529d37,69b92ab4aef6dee357cd729a,69b92ae73146493b1a4792a9,0.0373,0.0373,0,78,78,111,1,eightseven,,,,,,,,,,,,,,,,,,,,,,,,,,,,,,,,,,,,,,,,,,,,,,,,,,,,,,,,,,,,,,,,,,,,,,,,,,,,,,,,,,,,,,,,,,,,,,,,,,,,,,,,,,,,,,,,,,,,,,,,,,,,,,,,,,,,,,,,,
,,69a1a730604a58240a529d37,2026-03-17_10h31.56.741,kallum_motion_pilot_GIST_update_2,2026.1.1,Win32,59.88023952,69a1a730604a58240a529d37,69b92ab4aef6dee357cd729a,69b92ae73146493b1a4792a9,0.0373,0.0373,0,79,79,148,1,sevenfive,,,,,,,,,,,,,,,,,,,,,,,,,,,,,,,,,,,,,,,,,,,,,,,,,,,,,,,,,,,,,,,,,,,,,,,,,,,,,,,,,,,,,,,,,,,,,,,,,,,,,,,,,,,,,,,,,,,,,,,,,,,,,,,,,,,,,,,,,
,,69a1a730604a58240a529d37,2026-03-17_10h31.56.741,kallum_motion_pilot_GIST_update_2,2026.1.1,Win32,59.88023952,69a1a730604a58240a529d37,69b92ab4aef6dee357cd729a,69b92ae73146493b1a4792a9,0.0374,0.0374,0,80,80,154,1,sixfive,,,,,,,,,,,,,,,,,,,,,,,,,,,,,,,,,,,,,,,,,,,,,,,,,,,,,,,,,,,,,,,,,,,,,,,,,,,,,,,,,,,,,,,,,,,,,,,,,,,,,,,,,,,,,,,,,,,,,,,,,,,,,,,,,,,,,,,,,
,,69a1a730604a58240a529d37,2026-03-17_10h31.56.741,kallum_motion_pilot_GIST_update_2,2026.1.1,Win32,59.88023952,69a1a730604a58240a529d37,69b92ab4aef6dee357cd729a,69b92ae73146493b1a4792a9,0.0376,0.0376,0,81,81,33,1,onethree,,,,,,,,,,,,,,,,,,,,,,,,,,,,,,,,,,,,,,,,,,,,,,,,,,,,,,,,,,,,,,,,,,,,,,,,,,,,,,,,,,,,,,,,,,,,,,,,,,,,,,,,,,,,,,,,,,,,,,,,,,,,,,,,,,,,,,,,,
,,69a1a730604a58240a529d37,2026-03-17_10h31.56.741,kallum_motion_pilot_GIST_update_2,2026.1.1,Win32,59.88023952,69a1a730604a58240a529d37,69b92ab4aef6dee357cd729a,69b92ae73146493b1a4792a9,0.0376,0.0376,0,82,82,18,1,twoone,,,,,,,,,,,,,,,,,,,,,,,,,,,,,,,,,,,,,,,,,,,,,,,,,,,,,,,,,,,,,,,,,,,,,,,,,,,,,,,,,,,,,,,,,,,,,,,,,,,,,,,,,,,,,,,,,,,,,,,,,,,,,,,,,,,,,,,,,
,,69a1a730604a58240a529d37,2026-03-17_10h31.56.741,kallum_motion_pilot_GIST_update_2,2026.1.1,Win32,59.88023952,69a1a730604a58240a529d37,69b92ab4aef6dee357cd729a,69b92ae73146493b1a4792a9,0.0377,0.0377,0,83,83,81,1,fiveseven,,,,,,,,,,,,,,,,,,,,,,,,,,,,,,,,,,,,,,,,,,,,,,,,,,,,,,,,,,,,,,,,,,,,,,,,,,,,,,,,,,,,,,,,,,,,,,,,,,,,,,,,,,,,,,,,,,,,,,,,,,,,,,,,,,,,,,,,,
,,69a1a730604a58240a529d37,2026-03-17_10h31.56.741,kallum_motion_pilot_GIST_update_2,2026.1.1,Win32,59.88023952,69a1a730604a58240a529d37,69b92ab4aef6dee357cd729a,69b92ae73146493b1a4792a9,0.0379,0.0379,0,84,84,95,1,eightseven,,,,,,,,,,,,,,,,,,,,,,,,,,,,,,,,,,,,,,,,,,,,,,,,,,,,,,,,,,,,,,,,,,,,,,,,,,,,,,,,,,,,,,,,,,,,,,,,,,,,,,,,,,,,,,,,,,,,,,,,,,,,,,,,,,,,,,,,,
,,69a1a730604a58240a529d37,2026-03-17_10h31.56.741,kallum_motion_pilot_GIST_update_2,2026.1.1,Win32,59.88023952,69a1a730604a58240a529d37,69b92ab4aef6dee357cd729a,69b92ae73146493b1a4792a9,0.0379,0.0379,0,85,85,89,1,fiveseven,,,,,,,,,,,,,,,,,,,,,,,,,,,,,,,,,,,,,,,,,,,,,,,,,,,,,,,,,,,,,,,,,,,,,,,,,,,,,,,,,,,,,,,,,,,,,,,,,,,,,,,,,,,,,,,,,,,,,,,,,,,,,,,,,,,,,,,,,
,,69a1a730604a58240a529d37,2026-03-17_10h31.56.741,kallum_motion_pilot_GIST_update_2,2026.1.1,Win32,59.88023952,69a1a730604a58240a529d37,69b92ab4aef6dee357cd729a,69b92ae73146493b1a4792a9,0.038,0.0381,0,86,86,132,1,sevenfive,,,,,,,,,,,,,,,,,,,,,,,,,,,,,,,,,,,,,,,,,,,,,,,,,,,,,,,,,,,,,,,,,,,,,,,,,,,,,,,,,,,,,,,,,,,,,,,,,,,,,,,,,,,,,,,,,,,,,,,,,,,,,,,,,,,,,,,,,
,,69a1a730604a58240a529d37,2026-03-17_10h31.56.741,kallum_motion_pilot_GIST_update_2,2026.1.1,Win32,59.88023952,69a1a730604a58240a529d37,69b92ab4aef6dee357cd729a,69b92ae73146493b1a4792a9,0.0381,0.0381,0,87,87,69,1,threefour,,,,,,,,,,,,,,,,,,,,,,,,,,,,,,,,,,,,,,,,,,,,,,,,,,,,,,,,,,,,,,,,,,,,,,,,,,,,,,,,,,,,,,,,,,,,,,,,,,,,,,,,,,,,,,,,,,,,,,,,,,,,,,,,,,,,,,,,,
,,69a1a730604a58240a529d37,2026-03-17_10h31.56.741,kallum_motion_pilot_GIST_update_2,2026.1.1,Win32,59.88023952,69a1a730604a58240a529d37,69b92ab4aef6dee357cd729a,69b92ae73146493b1a4792a9,0.0382,0.0382,0,88,88,42,1,twoone,,,,,,,,,,,,,,,,,,,,,,,,,,,,,,,,,,,,,,,,,,,,,,,,,,,,,,,,,,,,,,,,,,,,,,,,,,,,,,,,,,,,,,,,,,,,,,,,,,,,,,,,,,,,,,,,,,,,,,,,,,,,,,,,,,,,,,,,,
,,69a1a730604a58240a529d37,2026-03-17_10h31.56.741,kallum_motion_pilot_GIST_update_2,2026.1.1,Win32,59.88023952,69a1a730604a58240a529d37,69b92ab4aef6dee357cd729a,69b92ae73146493b1a4792a9,0.0383,0.0383,0,89,89,84,1,sevenfive,,,,,,,,,,,,,,,,,,,,,,,,,,,,,,,,,,,,,,,,,,,,,,,,,,,,,,,,,,,,,,,,,,,,,,,,,,,,,,,,,,,,,,,,,,,,,,,,,,,,,,,,,,,,,,,,,,,,,,,,,,,,,,,,,,,,,,,,,
,,69a1a730604a58240a529d37,2026-03-17_10h31.56.741,kallum_motion_pilot_GIST_update_2,2026.1.1,Win32,59.88023952,69a1a730604a58240a529d37,69b92ab4aef6dee357cd729a,69b92ae73146493b1a4792a9,0.0384,0.0384,0,90,90,110,1,eightsix,,,,,,,,,,,,,,,,,,,,,,,,,,,,,,,,,,,,,,,,,,,,,,,,,,,,,,,,,,,,,,,,,,,,,,,,,,,,,,,,,,,,,,,,,,,,,,,,,,,,,,,,,,,,,,,,,,,,,,,,,,,,,,,,,,,,,,,,,
,,69a1a730604a58240a529d37,2026-03-17_10h31.56.741,kallum_motion_pilot_GIST_update_2,2026.1.1,Win32,59.88023952,69a1a730604a58240a529d37,69b92ab4aef6dee357cd729a,69b92ae73146493b1a4792a9,0.0385,0.0385,0,91,91,55,1,fourthree,,,,,,,,,,,,,,,,,,,,,,,,,,,,,,,,,,,,,,,,,,,,,,,,,,,,,,,,,,,,,,,,,,,,,,,,,,,,,,,,,,,,,,,,,,,,,,,,,,,,,,,,,,,,,,,,,,,,,,,,,,,,,,,,,,,,,,,,,
,,69a1a730604a58240a529d37,2026-03-17_10h31.56.741,kallum_motion_pilot_GIST_update_2,2026.1.1,Win32,59.88023952,69a1a730604a58240a529d37,69b92ab4aef6dee357cd729a,69b92ae73146493b1a4792a9,0.0386,0.0386,0,92,92,124,1,sevenfive,,,,,,,,,,,,,,,,,,,,,,,,,,,,,,,,,,,,,,,,,,,,,,,,,,,,,,,,,,,,,,,,,,,,,,,,,,,,,,,,,,,,,,,,,,,,,,,,,,,,,,,,,,,,,,,,,,,,,,,,,,,,,,,,,,,,,,,,,
,,69a1a730604a58240a529d37,2026-03-17_10h31.56.741,kallum_motion_pilot_GIST_update_2,2026.1.1,Win32,59.88023952,69a1a730604a58240a529d37,69b92ab4aef6dee357cd729a,69b92ae73146493b1a4792a9,0.0386,0.0386,0,93,93,23,1,fourthree,,,,,,,,,,,,,,,,,,,,,,,,,,,,,,,,,,,,,,,,,,,,,,,,,,,,,,,,,,,,,,,,,,,,,,,,,,,,,,,,,,,,,,,,,,,,,,,,,,,,,,,,,,,,,,,,,,,,,,,,,,,,,,,,,,,,,,,,,
,,69a1a730604a58240a529d37,2026-03-17_10h31.56.741,kallum_motion_pilot_GIST_update_2,2026.1.1,Win32,59.88023952,69a1a730604a58240a529d37,69b92ab4aef6dee357cd729a,69b92ae73146493b1a4792a9,0.0387,0.0387,0,94,94,73,1,onethree,,,,,,,,,,,,,,,,,,,,,,,,,,,,,,,,,,,,,,,,,,,,,,,,,,,,,,,,,,,,,,,,,,,,,,,,,,,,,,,,,,,,,,,,,,,,,,,,,,,,,,,,,,,,,,,,,,,,,,,,,,,,,,,,,,,,,,,,,
,,69a1a730604a58240a529d37,2026-03-17_10h31.56.741,kallum_motion_pilot_GIST_update_2,2026.1.1,Win32,59.88023952,69a1a730604a58240a529d37,69b92ab4aef6dee357cd729a,69b92ae73146493b1a4792a9,0.0389,0.0389,0,95,95,153,1,fiveseven,,,,,,,,,,,,,,,,,,,,,,,,,,,,,,,,,,,,,,,,,,,,,,,,,,,,,,,,,,,,,,,,,,,,,,,,,,,,,,,,,,,,,,,,,,,,,,,,,,,,,,,,,,,,,,,,,,,,,,,,,,,,,,,,,,,,,,,,,
,,69a1a730604a58240a529d37,2026-03-17_10h31.56.741,kallum_motion_pilot_GIST_update_2,2026.1.1,Win32,59.88023952,69a1a730604a58240a529d37,69b92ab4aef6dee357cd729a,69b92ae73146493b1a4792a9,0.0389,0.0389,0,96,96,71,1,fourthree,,,,,,,,,,,,,,,,,,,,,,,,,,,,,,,,,,,,,,,,,,,,,,,,,,,,,,,,,,,,,,,,,,,,,,,,,,,,,,,,,,,,,,,,,,,,,,,,,,,,,,,,,,,,,,,,,,,,,,,,,,,,,,,,,,,,,,,,,
,,69a1a730604a58240a529d37,2026-03-17_10h31.56.741,kallum_motion_pilot_GIST_update_2,2026.1.1,Win32,59.88023952,69a1a730604a58240a529d37,69b92ab4aef6dee357cd729a,69b92ae73146493b1a4792a9,0.039,0.0391,0,97,97,114,1,sixfive,,,,,,,,,,,,,,,,,,,,,,,,,,,,,,,,,,,,,,,,,,,,,,,,,,,,,,,,,,,,,,,,,,,,,,,,,,,,,,,,,,,,,,,,,,,,,,,,,,,,,,,,,,,,,,,,,,,,,,,,,,,,,,,,,,,,,,,,,
,,69a1a730604a58240a529d37,2026-03-17_10h31.56.741,kallum_motion_pilot_GIST_update_2,2026.1.1,Win32,59.88023952,69a1a730604a58240a529d37,69b92ab4aef6dee357cd729a,69b92ae73146493b1a4792a9,0.0392,0.0392,0,98,98,49,1,onethree,,,,,,,,,,,,,,,,,,,,,,,,,,,,,,,,,,,,,,,,,,,,,,,,,,,,,,,,,,,,,,,,,,,,,,,,,,,,,,,,,,,,,,,,,,,,,,,,,,,,,,,,,,,,,,,,,,,,,,,,,,,,,,,,,,,,,,,,,
,,69a1a730604a58240a529d37,2026-03-17_10h31.56.741,kallum_motion_pilot_GIST_update_2,2026.1.1,Win32,59.88023952,69a1a730604a58240a529d37,69b92ab4aef6dee357cd729a,69b92ae73146493b1a4792a9,0.0392,0.0392,0,99,99,130,1,sixfive,,,,,,,,,,,,,,,,,,,,,,,,,,,,,,,,,,,,,,,,,,,,,,,,,,,,,,,,,,,,,,,,,,,,,,,,,,,,,,,,,,,,,,,,,,,,,,,,,,,,,,,,,,,,,,,,,,,,,,,,,,,,,,,,,,,,,,,,,
,,69a1a730604a58240a529d37,2026-03-17_10h31.56.741,kallum_motion_pilot_GIST_update_2,2026.1.1,Win32,59.88023952,69a1a730604a58240a529d37,69b92ab4aef6dee357cd729a,69b92ae73146493b1a4792a9,0.0393,0.0393,0,100,100,24,1,onetwo,,,,,,,,,,,,,,,,,,,,,,,,,,,,,,,,,,,,,,,,,,,,,,,,,,,,,,,,,,,,,,,,,,,,,,,,,,,,,,,,,,,,,,,,,,,,,,,,,,,,,,,,,,,,,,,,,,,,,,,,,,,,,,,,,,,,,,,,,
,,69a1a730604a58240a529d37,2026-03-17_10h31.56.741,kallum_motion_pilot_GIST_update_2,2026.1.1,Win32,59.88023952,69a1a730604a58240a529d37,69b92ab4aef6dee357cd729a,69b92ae73146493b1a4792a9,0.0394,0.0394,0,101,101,12,1,threeone,,,,,,,,,,,,,,,,,,,,,,,,,,,,,,,,,,,,,,,,,,,,,,,,,,,,,,,,,,,,,,,,,,,,,,,,,,,,,,,,,,,,,,,,,,,,,,,,,,,,,,,,,,,,,,,,,,,,,,,,,,,,,,,,,,,,,,,,,
,,69a1a730604a58240a529d37,2026-03-17_10h31.56.741,kallum_motion_pilot_GIST_update_2,2026.1.1,Win32,59.88023952,69a1a730604a58240a529d37,69b92ab4aef6dee357cd729a,69b92ae73146493b1a4792a9,0.0395,0.0395,0,102,102,51,1,twofour,,,,,,,,,,,,,,,,,,,,,,,,,,,,,,,,,,,,,,,,,,,,,,,,,,,,,,,,,,,,,,,,,,,,,,,,,,,,,,,,,,,,,,,,,,,,,,,,,,,,,,,,,,,,,,,,,,,,,,,,,,,,,,,,,,,,,,,,,
,,69a1a730604a58240a529d37,2026-03-17_10h31.56.741,kallum_motion_pilot_GIST_update_2,2026.1.1,Win32,59.88023952,69a1a730604a58240a529d37,69b92ab4aef6dee357cd729a,69b92ae73146493b1a4792a9,0.0396,0.0396,0,103,103,67,1,twofour,,,,,,,,,,,,,,,,,,,,,,,,,,,,,,,,,,,,,,,,,,,,,,,,,,,,,,,,,,,,,,,,,,,,,,,,,,,,,,,,,,,,,,,,,,,,,,,,,,,,,,,,,,,,,,,,,,,,,,,,,,,,,,,,,,,,,,,,,
,,69a1a730604a58240a529d37,2026-03-17_10h31.56.741,kallum_motion_pilot_GIST_update_2,2026.1.1,Win32,59.88023952,69a1a730604a58240a529d37,69b92ab4aef6dee357cd729a,69b92ae73146493b1a4792a9,0.0397,0.0397,0,104,104,53,1,threefour,,,,,,,,,,,,,,,,,,,,,,,,,,,,,,,,,,,,,,,,,,,,,,,,,,,,,,,,,,,,,,,,,,,,,,,,,,,,,,,,,,,,,,,,,,,,,,,,,,,,,,,,,,,,,,,,,,,,,,,,,,,,,,,,,,,,,,,,,
,,69a1a730604a58240a529d37,2026-03-17_10h31.56.741,kallum_motion_pilot_GIST_update_2,2026.1.1,Win32,59.88023952,69a1a730604a58240a529d37,69b92ab4aef6dee357cd729a,69b92ae73146493b1a4792a9,0.0398,0.0398,0,105,105,75,1,twofour,,,,,,,,,,,,,,,,,,,,,,,,,,,,,,,,,,,,,,,,,,,,,,,,,,,,,,,,,,,,,,,,,,,,,,,,,,,,,,,,,,,,,,,,,,,,,,,,,,,,,,,,,,,,,,,,,,,,,,,,,,,,,,,,,,,,,,,,,
,,69a1a730604a58240a529d37,2026-03-17_10h31.56.741,kallum_motion_pilot_GIST_update_2,2026.1.1,Win32,59.88023952,69a1a730604a58240a529d37,69b92ab4aef6dee357cd729a,69b92ae73146493b1a4792a9,0.0399,0.0399,0,106,106,92,1,sevenfive,,,,,,,,,,,,,,,,,,,,,,,,,,,,,,,,,,,,,,,,,,,,,,,,,,,,,,,,,,,,,,,,,,,,,,,,,,,,,,,,,,,,,,,,,,,,,,,,,,,,,,,,,,,,,,,,,,,,,,,,,,,,,,,,,,,,,,,,,
,,69a1a730604a58240a529d37,2026-03-17_10h31.56.741,kallum_motion_pilot_GIST_update_2,2026.1.1,Win32,59.88023952,69a1a730604a58240a529d37,69b92ab4aef6dee357cd729a,69b92ae73146493b1a4792a9,0.0401,0.0401,0,107,107,57,1,onethree,,,,,,,,,,,,,,,,,,,,,,,,,,,,,,,,,,,,,,,,,,,,,,,,,,,,,,,,,,,,,,,,,,,,,,,,,,,,,,,,,,,,,,,,,,,,,,,,,,,,,,,,,,,,,,,,,,,,,,,,,,,,,,,,,,,,,,,,,
,,69a1a730604a58240a529d37,2026-03-17_10h31.56.741,kallum_motion_pilot_GIST_update_2,2026.1.1,Win32,59.88023952,69a1a730604a58240a529d37,69b92ab4aef6dee357cd729a,69b92ae73146493b1a4792a9,0.0401,0.0401,0,108,108,35,1,twofour,,,,,,,,,,,,,,,,,,,,,,,,,,,,,,,,,,,,,,,,,,,,,,,,,,,,,,,,,,,,,,,,,,,,,,,,,,,,,,,,,,,,,,,,,,,,,,,,,,,,,,,,,,,,,,,,,,,,,,,,,,,,,,,,,,,,,,,,,
,,69a1a730604a58240a529d37,2026-03-17_10h31.56.741,kallum_motion_pilot_GIST_update_2,2026.1.1,Win32,59.88023952,69a1a730604a58240a529d37,69b92ab4aef6dee357cd729a,69b92ae73146493b1a4792a9,0.0402,0.0402,0,109,109,138,1,sixfive,,,,,,,,,,,,,,,,,,,,,,,,,,,,,,,,,,,,,,,,,,,,,,,,,,,,,,,,,,,,,,,,,,,,,,,,,,,,,,,,,,,,,,,,,,,,,,,,,,,,,,,,,,,,,,,,,,,,,,,,,,,,,,,,,,,,,,,,,
,,69a1a730604a58240a529d37,2026-03-17_10h31.56.741,kallum_motion_pilot_GIST_update_2,2026.1.1,Win32,59.88023952,69a1a730604a58240a529d37,69b92ab4aef6dee357cd729a,69b92ae73146493b1a4792a9,0.0404,0.0404,0,110,110,145,1,fiveseven,,,,,,,,,,,,,,,,,,,,,,,,,,,,,,,,,,,,,,,,,,,,,,,,,,,,,,,,,,,,,,,,,,,,,,,,,,,,,,,,,,,,,,,,,,,,,,,,,,,,,,,,,,,,,,,,,,,,,,,,,,,,,,,,,,,,,,,,,
,,69a1a730604a58240a529d37,2026-03-17_10h31.56.741,kallum_motion_pilot_GIST_update_2,2026.1.1,Win32,59.88023952,69a1a730604a58240a529d37,69b92ab4aef6dee357cd729a,69b92ae73146493b1a4792a9,0.0405,0.0405,0,111,111,34,1,twoone,,,,,,,,,,,,,,,,,,,,,,,,,,,,,,,,,,,,,,,,,,,,,,,,,,,,,,,,,,,,,,,,,,,,,,,,,,,,,,,,,,,,,,,,,,,,,,,,,,,,,,,,,,,,,,,,,,,,,,,,,,,,,,,,,,,,,,,,,
,,69a1a730604a58240a529d37,2026-03-17_10h31.56.741,kallum_motion_pilot_GIST_update_2,2026.1.1,Win32,59.88023952,69a1a730604a58240a529d37,69b92ab4aef6dee357cd729a,69b92ae73146493b1a4792a9,0.0406,0.0406,0,112,112,29,1,threefour,,,,,,,,,,,,,,,,,,,,,,,,,,,,,,,,,,,,,,,,,,,,,,,,,,,,,,,,,,,,,,,,,,,,,,,,,,,,,,,,,,,,,,,,,,,,,,,,,,,,,,,,,,,,,,,,,,,,,,,,,,,,,,,,,,,,,,,,,
,,69a1a730604a58240a529d37,2026-03-17_10h31.56.741,kallum_motion_pilot_GIST_update_2,2026.1.1,Win32,59.88023952,69a1a730604a58240a529d37,69b92ab4aef6dee357cd729a,69b92ae73146493b1a4792a9,0.0408,0.0408,0,113,113,9,1,onethree,,,,,,,,,,,,,,,,,,,,,,,,,,,,,,,,,,,,,,,,,,,,,,,,,,,,,,,,,,,,,,,,,,,,,,,,,,,,,,,,,,,,,,,,,,,,,,,,,,,,,,,,,,,,,,,,,,,,,,,,,,,,,,,,,,,,,,,,,
,,69a1a730604a58240a529d37,2026-03-17_10h31.56.741,kallum_motion_pilot_GIST_update_2,2026.1.1,Win32,59.88023952,69a1a730604a58240a529d37,69b92ab4aef6dee357cd729a,69b92ae73146493b1a4792a9,0.0409,0.0409,0,114,114,39,1,fourthree,,,,,,,,,,,,,,,,,,,,,,,,,,,,,,,,,,,,,,,,,,,,,,,,,,,,,,,,,,,,,,,,,,,,,,,,,,,,,,,,,,,,,,,,,,,,,,,,,,,,,,,,,,,,,,,,,,,,,,,,,,,,,,,,,,,,,,,,,
,,69a1a730604a58240a529d37,2026-03-17_10h31.56.741,kallum_motion_pilot_GIST_update_2,2026.1.1,Win32,59.88023952,69a1a730604a58240a529d37,69b92ab4aef6dee357cd729a,69b92ae73146493b1a4792a9,0.041,0.041,0,115,115,48,1,onetwo,,,,,,,,,,,,,,,,,,,,,,,,,,,,,,,,,,,,,,,,,,,,,,,,,,,,,,,,,,,,,,,,,,,,,,,,,,,,,,,,,,,,,,,,,,,,,,,,,,,,,,,,,,,,,,,,,,,,,,,,,,,,,,,,,,,,,,,,,
,,69a1a730604a58240a529d37,2026-03-17_10h31.56.741,kallum_motion_pilot_GIST_update_2,2026.1.1,Win32,59.88023952,69a1a730604a58240a529d37,69b92ab4aef6dee357cd729a,69b92ae73146493b1a4792a9,0.0412,0.0412,0,116,116,14,1,fourtwo,,,,,,,,,,,,,,,,,,,,,,,,,,,,,,,,,,,,,,,,,,,,,,,,,,,,,,,,,,,,,,,,,,,,,,,,,,,,,,,,,,,,,,,,,,,,,,,,,,,,,,,,,,,,,,,,,,,,,,,,,,,,,,,,,,,,,,,,,
,,69a1a730604a58240a529d37,2026-03-17_10h31.56.741,kallum_motion_pilot_GIST_update_2,2026.1.1,Win32,59.88023952,69a1a730604a58240a529d37,69b92ab4aef6dee357cd729a,69b92ae73146493b1a4792a9,0.0413,0.0413,0,117,117,77,1,threefour,,,,,,,,,,,,,,,,,,,,,,,,,,,,,,,,,,,,,,,,,,,,,,,,,,,,,,,,,,,,,,,,,,,,,,,,,,,,,,,,,,,,,,,,,,,,,,,,,,,,,,,,,,,,,,,,,,,,,,,,,,,,,,,,,,,,,,,,,
,,69a1a730604a58240a529d37,2026-03-17_10h31.56.741,kallum_motion_pilot_GIST_update_2,2026.1.1,Win32,59.88023952,69a1a730604a58240a529d37,69b92ab4aef6dee357cd729a,69b92ae73146493b1a4792a9,0.0415,0.0415,0,118,118,41,1,onethree,,,,,,,,,,,,,,,,,,,,,,,,,,,,,,,,,,,,,,,,,,,,,,,,,,,,,,,,,,,,,,,,,,,,,,,,,,,,,,,,,,,,,,,,,,,,,,,,,,,,,,,,,,,,,,,,,,,,,,,,,,,,,,,,,,,,,,,,,
,,69a1a730604a58240a529d37,2026-03-17_10h31.56.741,kallum_motion_pilot_GIST_update_2,2026.1.1,Win32,59.88023952,69a1a730604a58240a529d37,69b92ab4aef6dee357cd729a,69b92ae73146493b1a4792a9,0.0416,0.0416,0,119,119,79,1,eightseven,,,,,,,,,,,,,,,,,,,,,,,,,,,,,,,,,,,,,,,,,,,,,,,,,,,,,,,,,,,,,,,,,,,,,,,,,,,,,,,,,,,,,,,,,,,,,,,,,,,,,,,,,,,,,,,,,,,,,,,,,,,,,,,,,,,,,,,,,
,,69a1a730604a58240a529d37,2026-03-17_10h31.56.741,kallum_motion_pilot_GIST_update_2,2026.1.1,Win32,59.88023952,69a1a730604a58240a529d37,69b92ab4aef6dee357cd729a,69b92ae73146493b1a4792a9,0.0418,0.0418,0,120,120,128,1,fivesix,,,,,,,,,,,,,,,,,,,,,,,,,,,,,,,,,,,,,,,,,,,,,,,,,,,,,,,,,,,,,,,,,,,,,,,,,,,,,,,,,,,,,,,,,,,,,,,,,,,,,,,,,,,,,,,,,,,,,,,,,,,,,,,,,,,,,,,,,
,,69a1a730604a58240a529d37,2026-03-17_10h31.56.741,kallum_motion_pilot_GIST_update_2,2026.1.1,Win32,59.88023952,69a1a730604a58240a529d37,69b92ab4aef6dee357cd729a,69b92ae73146493b1a4792a9,0.0419,0.0419,0,121,121,83,1,sixeight,,,,,,,,,,,,,,,,,,,,,,,,,,,,,,,,,,,,,,,,,,,,,,,,,,,,,,,,,,,,,,,,,,,,,,,,,,,,,,,,,,,,,,,,,,,,,,,,,,,,,,,,,,,,,,,,,,,,,,,,,,,,,,,,,,,,,,,,,
,,69a1a730604a58240a529d37,2026-03-17_10h31.56.741,kallum_motion_pilot_GIST_update_2,2026.1.1,Win32,59.88023952,69a1a730604a58240a529d37,69b92ab4aef6dee357cd729a,69b92ae73146493b1a4792a9,0.042,0.042,0,122,122,11,1,twofour,,,,,,,,,,,,,,,,,,,,,,,,,,,,,,,,,,,,,,,,,,,,,,,,,,,,,,,,,,,,,,,,,,,,,,,,,,,,,,,,,,,,,,,,,,,,,,,,,,,,,,,,,,,,,,,,,,,,,,,,,,,,,,,,,,,,,,,,,
,,69a1a730604a58240a529d37,2026-03-17_10h31.56.741,kallum_motion_pilot_GIST_update_2,2026.1.1,Win32,59.88023952,69a1a730604a58240a529d37,69b92ab4aef6dee357cd729a,69b92ae73146493b1a4792a9,0.042,0.042,0,123,123,20,1,threeone,,,,,,,,,,,,,,,,,,,,,,,,,,,,,,,,,,,,,,,,,,,,,,,,,,,,,,,,,,,,,,,,,,,,,,,,,,,,,,,,,,,,,,,,,,,,,,,,,,,,,,,,,,,,,,,,,,,,,,,,,,,,,,,,,,,,,,,,,
,,69a1a730604a58240a529d37,2026-03-17_10h31.56.741,kallum_motion_pilot_GIST_update_2,2026.1.1,Win32,59.88023952,69a1a730604a58240a529d37,69b92ab4aef6dee357cd729a,69b92ae73146493b1a4792a9,0.0422,0.0422,0,124,124,97,1,fiveseven,,,,,,,,,,,,,,,,,,,,,,,,,,,,,,,,,,,,,,,,,,,,,,,,,,,,,,,,,,,,,,,,,,,,,,,,,,,,,,,,,,,,,,,,,,,,,,,,,,,,,,,,,,,,,,,,,,,,,,,,,,,,,,,,,,,,,,,,,
,,69a1a730604a58240a529d37,2026-03-17_10h31.56.741,kallum_motion_pilot_GIST_update_2,2026.1.1,Win32,59.88023952,69a1a730604a58240a529d37,69b92ab4aef6dee357cd729a,69b92ae73146493b1a4792a9,0.0423,0.0423,0,125,125,10,1,twoone,,,,,,,,,,,,,,,,,,,,,,,,,,,,,,,,,,,,,,,,,,,,,,,,,,,,,,,,,,,,,,,,,,,,,,,,,,,,,,,,,,,,,,,,,,,,,,,,,,,,,,,,,,,,,,,,,,,,,,,,,,,,,,,,,,,,,,,,,
,,69a1a730604a58240a529d37,2026-03-17_10h31.56.741,kallum_motion_pilot_GIST_update_2,2026.1.1,Win32,59.88023952,69a1a730604a58240a529d37,69b92ab4aef6dee357cd729a,69b92ae73146493b1a4792a9,0.0425,0.0425,0,126,126,159,1,eightseven,,,,,,,,,,,,,,,,,,,,,,,,,,,,,,,,,,,,,,,,,,,,,,,,,,,,,,,,,,,,,,,,,,,,,,,,,,,,,,,,,,,,,,,,,,,,,,,,,,,,,,,,,,,,,,,,,,,,,,,,,,,,,,,,,,,,,,,,,
,,69a1a730604a58240a529d37,2026-03-17_10h31.56.741,kallum_motion_pilot_GIST_update_2,2026.1.1,Win32,59.88023952,69a1a730604a58240a529d37,69b92ab4aef6dee357cd729a,69b92ae73146493b1a4792a9,0.0426,0.0426,0,127,127,17,1,onethree,,,,,,,,,,,,,,,,,,,,,,,,,,,,,,,,,,,,,,,,,,,,,,,,,,,,,,,,,,,,,,,,,,,,,,,,,,,,,,,,,,,,,,,,,,,,,,,,,,,,,,,,,,,,,,,,,,,,,,,,,,,,,,,,,,,,,,,,,
,,69a1a730604a58240a529d37,2026-03-17_10h31.56.741,kallum_motion_pilot_GIST_update_2,2026.1.1,Win32,59.88023952,69a1a730604a58240a529d37,69b92ab4aef6dee357cd729a,69b92ae73146493b1a4792a9,0.0427,0.0427,0,128,128,82,1,sixfive,,,,,,,,,,,,,,,,,,,,,,,,,,,,,,,,,,,,,,,,,,,,,,,,,,,,,,,,,,,,,,,,,,,,,,,,,,,,,,,,,,,,,,,,,,,,,,,,,,,,,,,,,,,,,,,,,,,,,,,,,,,,,,,,,,,,,,,,,
,,69a1a730604a58240a529d37,2026-03-17_10h31.56.741,kallum_motion_pilot_GIST_update_2,2026.1.1,Win32,59.88023952,69a1a730604a58240a529d37,69b92ab4aef6dee357cd729a,69b92ae73146493b1a4792a9,0.0427,0.0428,0,129,129,45,1,threefour,,,,,,,,,,,,,,,,,,,,,,,,,,,,,,,,,,,,,,,,,,,,,,,,,,,,,,,,,,,,,,,,,,,,,,,,,,,,,,,,,,,,,,,,,,,,,,,,,,,,,,,,,,,,,,,,,,,,,,,,,,,,,,,,,,,,,,,,,
,,69a1a730604a58240a529d37,2026-03-17_10h31.56.741,kallum_motion_pilot_GIST_update_2,2026.1.1,Win32,59.88023952,69a1a730604a58240a529d37,69b92ab4aef6dee357cd729a,69b92ae73146493b1a4792a9,0.0429,0.0429,0,130,130,136,1,fivesix,,,,,,,,,,,,,,,,,,,,,,,,,,,,,,,,,,,,,,,,,,,,,,,,,,,,,,,,,,,,,,,,,,,,,,,,,,,,,,,,,,,,,,,,,,,,,,,,,,,,,,,,,,,,,,,,,,,,,,,,,,,,,,,,,,,,,,,,,
,,69a1a730604a58240a529d37,2026-03-17_10h31.56.741,kallum_motion_pilot_GIST_update_2,2026.1.1,Win32,59.88023952,69a1a730604a58240a529d37,69b92ab4aef6dee357cd729a,69b92ae73146493b1a4792a9,0.043,0.043,0,131,131,140,1,sevenfive,,,,,,,,,,,,,,,,,,,,,,,,,,,,,,,,,,,,,,,,,,,,,,,,,,,,,,,,,,,,,,,,,,,,,,,,,,,,,,,,,,,,,,,,,,,,,,,,,,,,,,,,,,,,,,,,,,,,,,,,,,,,,,,,,,,,,,,,,
,,69a1a730604a58240a529d37,2026-03-17_10h31.56.741,kallum_motion_pilot_GIST_update_2,2026.1.1,Win32,59.88023952,69a1a730604a58240a529d37,69b92ab4aef6dee357cd729a,69b92ae73146493b1a4792a9,0.0431,0.0431,0,132,132,6,1,fourtwo,,,,,,,,,,,,,,,,,,,,,,,,,,,,,,,,,,,,,,,,,,,,,,,,,,,,,,,,,,,,,,,,,,,,,,,,,,,,,,,,,,,,,,,,,,,,,,,,,,,,,,,,,,,,,,,,,,,,,,,,,,,,,,,,,,,,,,,,,
,,69a1a730604a58240a529d37,2026-03-17_10h31.56.741,kallum_motion_pilot_GIST_update_2,2026.1.1,Win32,59.88023952,69a1a730604a58240a529d37,69b92ab4aef6dee357cd729a,69b92ae73146493b1a4792a9,0.0432,0.0432,0,133,133,118,1,eightsix,,,,,,,,,,,,,,,,,,,,,,,,,,,,,,,,,,,,,,,,,,,,,,,,,,,,,,,,,,,,,,,,,,,,,,,,,,,,,,,,,,,,,,,,,,,,,,,,,,,,,,,,,,,,,,,,,,,,,,,,,,,,,,,,,,,,,,,,,
,,69a1a730604a58240a529d37,2026-03-17_10h31.56.741,kallum_motion_pilot_GIST_update_2,2026.1.1,Win32,59.88023952,69a1a730604a58240a529d37,69b92ab4aef6dee357cd729a,69b92ae73146493b1a4792a9,0.0432,0.0432,0,134,134,90,1,sixfive,,,,,,,,,,,,,,,,,,,,,,,,,,,,,,,,,,,,,,,,,,,,,,,,,,,,,,,,,,,,,,,,,,,,,,,,,,,,,,,,,,,,,,,,,,,,,,,,,,,,,,,,,,,,,,,,,,,,,,,,,,,,,,,,,,,,,,,,,
,,69a1a730604a58240a529d37,2026-03-17_10h31.56.741,kallum_motion_pilot_GIST_update_2,2026.1.1,Win32,59.88023952,69a1a730604a58240a529d37,69b92ab4aef6dee357cd729a,69b92ae73146493b1a4792a9,0.0434,0.0434,0,135,135,91,1,sixeight,,,,,,,,,,,,,,,,,,,,,,,,,,,,,,,,,,,,,,,,,,,,,,,,,,,,,,,,,,,,,,,,,,,,,,,,,,,,,,,,,,,,,,,,,,,,,,,,,,,,,,,,,,,,,,,,,,,,,,,,,,,,,,,,,,,,,,,,,
,,69a1a730604a58240a529d37,2026-03-17_10h31.56.741,kallum_motion_pilot_GIST_update_2,2026.1.1,Win32,59.88023952,69a1a730604a58240a529d37,69b92ab4aef6dee357cd729a,69b92ae73146493b1a4792a9,0.0435,0.0435,0,136,136,58,1,twoone,,,,,,,,,,,,,,,,,,,,,,,,,,,,,,,,,,,,,,,,,,,,,,,,,,,,,,,,,,,,,,,,,,,,,,,,,,,,,,,,,,,,,,,,,,,,,,,,,,,,,,,,,,,,,,,,,,,,,,,,,,,,,,,,,,,,,,,,,
,,69a1a730604a58240a529d37,2026-03-17_10h31.56.741,kallum_motion_pilot_GIST_update_2,2026.1.1,Win32,59.88023952,69a1a730604a58240a529d37,69b92ab4aef6dee357cd729a,69b92ae73146493b1a4792a9,0.0436,0.0436,0,137,137,87,1,eightseven,,,,,,,,,,,,,,,,,,,,,,,,,,,,,,,,,,,,,,,,,,,,,,,,,,,,,,,,,,,,,,,,,,,,,,,,,,,,,,,,,,,,,,,,,,,,,,,,,,,,,,,,,,,,,,,,,,,,,,,,,,,,,,,,,,,,,,,,,
,,69a1a730604a58240a529d37,2026-03-17_10h31.56.741,kallum_motion_pilot_GIST_update_2,2026.1.1,Win32,59.88023952,69a1a730604a58240a529d37,69b92ab4aef6dee357cd729a,69b92ae73146493b1a4792a9,0.0437,0.0438,0,138,138,7,1,fourthree,,,,,,,,,,,,,,,,,,,,,,,,,,,,,,,,,,,,,,,,,,,,,,,,,,,,,,,,,,,,,,,,,,,,,,,,,,,,,,,,,,,,,,,,,,,,,,,,,,,,,,,,,,,,,,,,,,,,,,,,,,,,,,,,,,,,,,,,,
,,69a1a730604a58240a529d37,2026-03-17_10h31.56.741,kallum_motion_pilot_GIST_update_2,2026.1.1,Win32,59.88023952,69a1a730604a58240a529d37,69b92ab4aef6dee357cd729a,69b92ae73146493b1a4792a9,0.0438,0.0438,0,139,139,76,1,threeone,,,,,,,,,,,,,,,,,,,,,,,,,,,,,,,,,,,,,,,,,,,,,,,,,,,,,,,,,,,,,,,,,,,,,,,,,,,,,,,,,,,,,,,,,,,,,,,,,,,,,,,,,,,,,,,,,,,,,,,,,,,,,,,,,,,,,,,,,
,,69a1a730604a58240a529d37,2026-03-17_10h31.56.741,kallum_motion_pilot_GIST_update_2,2026.1.1,Win32,59.88023952,69a1a730604a58240a529d37,69b92ab4aef6dee357cd729a,69b92ae73146493b1a4792a9,0.0439,0.0439,0,140,140,13,1,threefour,,,,,,,,,,,,,,,,,,,,,,,,,,,,,,,,,,,,,,,,,,,,,,,,,,,,,,,,,,,,,,,,,,,,,,,,,,,,,,,,,,,,,,,,,,,,,,,,,,,,,,,,,,,,,,,,,,,,,,,,,,,,,,,,,,,,,,,,,
,,69a1a730604a58240a529d37,2026-03-17_10h31.56.741,kallum_motion_pilot_GIST_update_2,2026.1.1,Win32,59.88023952,69a1a730604a58240a529d37,69b92ab4aef6dee357cd729a,69b92ae73146493b1a4792a9,0.044,0.0441,0,141,141,102,1,eightsix,,,,,,,,,,,,,,,,,,,,,,,,,,,,,,,,,,,,,,,,,,,,,,,,,,,,,,,,,,,,,,,,,,,,,,,,,,,,,,,,,,,,,,,,,,,,,,,,,,,,,,,,,,,,,,,,,,,,,,,,,,,,,,,,,,,,,,,,,
,,69a1a730604a58240a529d37,2026-03-17_10h31.56.741,kallum_motion_pilot_GIST_update_2,2026.1.1,Win32,59.88023952,69a1a730604a58240a529d37,69b92ab4aef6dee357cd729a,69b92ae73146493b1a4792a9,0.0441,0.0441,0,142,142,68,1,threeone,,,,,,,,,,,,,,,,,,,,,,,,,,,,,,,,,,,,,,,,,,,,,,,,,,,,,,,,,,,,,,,,,,,,,,,,,,,,,,,,,,,,,,,,,,,,,,,,,,,,,,,,,,,,,,,,,,,,,,,,,,,,,,,,,,,,,,,,,
,,69a1a730604a58240a529d37,2026-03-17_10h31.56.741,kallum_motion_pilot_GIST_update_2,2026.1.1,Win32,59.88023952,69a1a730604a58240a529d37,69b92ab4aef6dee357cd729a,69b92ae73146493b1a4792a9,0.0442,0.0442,0,143,143,62,1,fourtwo,,,,,,,,,,,,,,,,,,,,,,,,,,,,,,,,,,,,,,,,,,,,,,,,,,,,,,,,,,,,,,,,,,,,,,,,,,,,,,,,,,,,,,,,,,,,,,,,,,,,,,,,,,,,,,,,,,,,,,,,,,,,,,,,,,,,,,,,,
,,69a1a730604a58240a529d37,2026-03-17_10h31.56.741,kallum_motion_pilot_GIST_update_2,2026.1.1,Win32,59.88023952,69a1a730604a58240a529d37,69b92ab4aef6dee357cd729a,69b92ae73146493b1a4792a9,0.0443,0.0443,0,144,144,70,1,fourtwo,,,,,,,,,,,,,,,,,,,,,,,,,,,,,,,,,,,,,,,,,,,,,,,,,,,,,,,,,,,,,,,,,,,,,,,,,,,,,,,,,,,,,,,,,,,,,,,,,,,,,,,,,,,,,,,,,,,,,,,,,,,,,,,,,,,,,,,,,
,,69a1a730604a58240a529d37,2026-03-17_10h31.56.741,kallum_motion_pilot_GIST_update_2,2026.1.1,Win32,59.88023952,69a1a730604a58240a529d37,69b92ab4aef6dee357cd729a,69b92ae73146493b1a4792a9,0.0444,0.0444,0,145,145,80,1,fivesix,,,,,,,,,,,,,,,,,,,,,,,,,,,,,,,,,,,,,,,,,,,,,,,,,,,,,,,,,,,,,,,,,,,,,,,,,,,,,,,,,,,,,,,,,,,,,,,,,,,,,,,,,,,,,,,,,,,,,,,,,,,,,,,,,,,,,,,,,
,,69a1a730604a58240a529d37,2026-03-17_10h31.56.741,kallum_motion_pilot_GIST_update_2,2026.1.1,Win32,59.88023952,69a1a730604a58240a529d37,69b92ab4aef6dee357cd729a,69b92ae73146493b1a4792a9,0.0446,0.0446,0,146,146,121,1,fiveseven,,,,,,,,,,,,,,,,,,,,,,,,,,,,,,,,,,,,,,,,,,,,,,,,,,,,,,,,,,,,,,,,,,,,,,,,,,,,,,,,,,,,,,,,,,,,,,,,,,,,,,,,,,,,,,,,,,,,,,,,,,,,,,,,,,,,,,,,,
,,69a1a730604a58240a529d37,2026-03-17_10h31.56.741,kallum_motion_pilot_GIST_update_2,2026.1.1,Win32,59.88023952,69a1a730604a58240a529d37,69b92ab4aef6dee357cd729a,69b92ae73146493b1a4792a9,0.0447,0.0447,0,147,147,21,1,threefour,,,,,,,,,,,,,,,,,,,,,,,,,,,,,,,,,,,,,,,,,,,,,,,,,,,,,,,,,,,,,,,,,,,,,,,,,,,,,,,,,,,,,,,,,,,,,,,,,,,,,,,,,,,,,,,,,,,,,,,,,,,,,,,,,,,,,,,,,
,,69a1a730604a58240a529d37,2026-03-17_10h31.56.741,kallum_motion_pilot_GIST_update_2,2026.1.1,Win32,59.88023952,69a1a730604a58240a529d37,69b92ab4aef6dee357cd729a,69b92ae73146493b1a4792a9,0.0448,0.0448,0,148,148,2,1,twoone,,,,,,,,,,,,,,,,,,,,,,,,,,,,,,,,,,,,,,,,,,,,,,,,,,,,,,,,,,,,,,,,,,,,,,,,,,,,,,,,,,,,,,,,,,,,,,,,,,,,,,,,,,,,,,,,,,,,,,,,,,,,,,,,,,,,,,,,,
,,69a1a730604a58240a529d37,2026-03-17_10h31.56.741,kallum_motion_pilot_GIST_update_2,2026.1.1,Win32,59.88023952,69a1a730604a58240a529d37,69b92ab4aef6dee357cd729a,69b92ae73146493b1a4792a9,0.0449,0.0449,0,149,149,44,1,threeone,,,,,,,,,,,,,,,,,,,,,,,,,,,,,,,,,,,,,,,,,,,,,,,,,,,,,,,,,,,,,,,,,,,,,,,,,,,,,,,,,,,,,,,,,,,,,,,,,,,,,,,,,,,,,,,,,,,,,,,,,,,,,,,,,,,,,,,,,
,,69a1a730604a58240a529d37,2026-03-17_10h31.56.741,kallum_motion_pilot_GIST_update_2,2026.1.1,Win32,59.88023952,69a1a730604a58240a529d37,69b92ab4aef6dee357cd729a,69b92ae73146493b1a4792a9,0.045,0.045,0,150,150,129,1,fiveseven,,,,,,,,,,,,,,,,,,,,,,,,,,,,,,,,,,,,,,,,,,,,,,,,,,,,,,,,,,,,,,,,,,,,,,,,,,,,,,,,,,,,,,,,,,,,,,,,,,,,,,,,,,,,,,,,,,,,,,,,,,,,,,,,,,,,,,,,,
,,69a1a730604a58240a529d37,2026-03-17_10h31.56.741,kallum_motion_pilot_GIST_update_2,2026.1.1,Win32,59.88023952,69a1a730604a58240a529d37,69b92ab4aef6dee357cd729a,69b92ae73146493b1a4792a9,0.0452,0.0452,0,151,151,3,1,twofour,,,,,,,,,,,,,,,,,,,,,,,,,,,,,,,,,,,,,,,,,,,,,,,,,,,,,,,,,,,,,,,,,,,,,,,,,,,,,,,,,,,,,,,,,,,,,,,,,,,,,,,,,,,,,,,,,,,,,,,,,,,,,,,,,,,,,,,,,
,,69a1a730604a58240a529d37,2026-03-17_10h31.56.741,kallum_motion_pilot_GIST_update_2,2026.1.1,Win32,59.88023952,69a1a730604a58240a529d37,69b92ab4aef6dee357cd729a,69b92ae73146493b1a4792a9,0.0452,0.0452,0,152,152,32,1,onetwo,,,,,,,,,,,,,,,,,,,,,,,,,,,,,,,,,,,,,,,,,,,,,,,,,,,,,,,,,,,,,,,,,,,,,,,,,,,,,,,,,,,,,,,,,,,,,,,,,,,,,,,,,,,,,,,,,,,,,,,,,,,,,,,,,,,,,,,,,
,,69a1a730604a58240a529d37,2026-03-17_10h31.56.741,kallum_motion_pilot_GIST_update_2,2026.1.1,Win32,59.88023952,69a1a730604a58240a529d37,69b92ab4aef6dee357cd729a,69b92ae73146493b1a4792a9,0.0454,0.0454,0,153,153,30,1,fourtwo,,,,,,,,,,,,,,,,,,,,,,,,,,,,,,,,,,,,,,,,,,,,,,,,,,,,,,,,,,,,,,,,,,,,,,,,,,,,,,,,,,,,,,,,,,,,,,,,,,,,,,,,,,,,,,,,,,,,,,,,,,,,,,,,,,,,,,,,,
,,69a1a730604a58240a529d37,2026-03-17_10h31.56.741,kallum_motion_pilot_GIST_update_2,2026.1.1,Win32,59.88023952,69a1a730604a58240a529d37,69b92ab4aef6dee357cd729a,69b92ae73146493b1a4792a9,0.0455,0.0455,0,154,154,122,1,sixfive,,,,,,,,,,,,,,,,,,,,,,,,,,,,,,,,,,,,,,,,,,,,,,,,,,,,,,,,,,,,,,,,,,,,,,,,,,,,,,,,,,,,,,,,,,,,,,,,,,,,,,,,,,,,,,,,,,,,,,,,,,,,,,,,,,,,,,,,,
,,69a1a730604a58240a529d37,2026-03-17_10h31.56.741,kallum_motion_pilot_GIST_update_2,2026.1.1,Win32,59.88023952,69a1a730604a58240a529d37,69b92ab4aef6dee357cd729a,69b92ae73146493b1a4792a9,0.0456,0.0456,0,155,155,137,1,fiveseven,,,,,,,,,,,,,,,,,,,,,,,,,,,,,,,,,,,,,,,,,,,,,,,,,,,,,,,,,,,,,,,,,,,,,,,,,,,,,,,,,,,,,,,,,,,,,,,,,,,,,,,,,,,,,,,,,,,,,,,,,,,,,,,,,,,,,,,,,
,,69a1a730604a58240a529d37,2026-03-17_10h31.56.741,kallum_motion_pilot_GIST_update_2,2026.1.1,Win32,59.88023952,69a1a730604a58240a529d37,69b92ab4aef6dee357cd729a,69b92ae73146493b1a4792a9,0.0457,0.0457,0,156,156,152,1,fivesix,,,,,,,,,,,,,,,,,,,,,,,,,,,,,,,,,,,,,,,,,,,,,,,,,,,,,,,,,,,,,,,,,,,,,,,,,,,,,,,,,,,,,,,,,,,,,,,,,,,,,,,,,,,,,,,,,,,,,,,,,,,,,,,,,,,,,,,,,
,,69a1a730604a58240a529d37,2026-03-17_10h31.56.741,kallum_motion_pilot_GIST_update_2,2026.1.1,Win32,59.88023952,69a1a730604a58240a529d37,69b92ab4aef6dee357cd729a,69b92ae73146493b1a4792a9,0.0457,0.0457,0,157,157,52,1,threeone,,,,,,,,,,,,,,,,,,,,,,,,,,,,,,,,,,,,,,,,,,,,,,,,,,,,,,,,,,,,,,,,,,,,,,,,,,,,,,,,,,,,,,,,,,,,,,,,,,,,,,,,,,,,,,,,,,,,,,,,,,,,,,,,,,,,,,,,,
,,69a1a730604a58240a529d37,2026-03-17_10h31.56.741,kallum_motion_pilot_GIST_update_2,2026.1.1,Win32,59.88023952,69a1a730604a58240a529d37,69b92ab4aef6dee357cd729a,69b92ae73146493b1a4792a9,0.0458,0.0459,0,158,158,96,1,fivesix,,,,,,,,,,,,,,,,,,,,,,,,,,,,,,,,,,,,,,,,,,,,,,,,,,,,,,,,,,,,,,,,,,,,,,,,,,,,,,,,,,,,,,,,,,,,,,,,,,,,,,,,,,,,,,,,,,,,,,,,,,,,,,,,,,,,,,,,,
,,69a1a730604a58240a529d37,2026-03-17_10h31.56.741,kallum_motion_pilot_GIST_update_2,2026.1.1,Win32,59.88023952,69a1a730604a58240a529d37,69b92ab4aef6dee357cd729a,69b92ae73146493b1a4792a9,0.046,0.046,0,159,159,59,1,twofour,,,,,,,,,,,,,,,,,,,,,,,,,,,,,,,,,,,,,,,,,,,,,,,,,,,,,,,,,,,,,,,,,,,,,,,,,,,,,,,,,,,,,,,,,,,,,,,,,,,,,,,,,,,,,,,,,,,,,,,,,,,,,,,,,,,,,,,,,
,,69a1a730604a58240a529d37,2026-03-17_10h31.56.741,kallum_motion_pilot_GIST_update_2,2026.1.1,Win32,59.88023952,69a1a730604a58240a529d37,69b92ab4aef6dee357cd729a,69b92ae73146493b1a4792a9,0.0462,0.0462,0,160,160,147,1,sixeight,,,,,,,,,,,,,,,,,,,,,,,,,,,,,,,,,,,,,,,,,,,,,,,,,,,,,,,,,,,,,,,,,,,,,,,,,,,,,,,,,,,,,,,,,,,,,,,,,,,,,,,,,,,,,,,,,,,,,,,,,,,,,,,,,,,,,,,,,
,,69a1a730604a58240a529d37,2026-03-17_10h31.56.741,kallum_motion_pilot_GIST_update_2,2026.1.1,Win32,59.88023952,69a1a730604a58240a529d37,69b92ab4aef6dee357cd729a,69b92ae73146493b1a4792a9,0.0463,0.0463,0,161,161,119,1,eightseven,,,,,,,,,,,,,,,,,,,,,,,,,,,,,,,,,,,,,,,,,,,,,,,,,,,,,,,,,,,,,,,,,,,,,,,,,,,,,,,,,,,,,,,,,,,,,,,,,,,,,,,,,,,,,,,,,,,,,,,,,,,,,,,,,,,,,,,,,
,,69a1a730604a58240a529d37,2026-03-17_10h31.56.741,kallum_motion_pilot_GIST_update_2,2026.1.1,Win32,59.88023952,69a1a730604a58240a529d37,69b92ab4aef6dee357cd729a,69b92ae73146493b1a4792a9,0.0463,0.0463,1,0,162,6,1,fourtwo,,,,,,,,,,,,,,,,,,,,,,,,,,,,,,,,,,,,,,,,,,,,,,,,,,,,,,,,,,,,,,,,,,,,,,,,,,,,,,,,,,,,,,,,,,,,,,,,,,,,,,,,,,,,,,,,,,,,,,,,,,,,,,,,,,,,,,,,,
,,69a1a730604a58240a529d37,2026-03-17_10h31.56.741,kallum_motion_pilot_GIST_update_2,2026.1.1,Win32,59.88023952,69a1a730604a58240a529d37,69b92ab4aef6dee357cd729a,69b92ae73146493b1a4792a9,0.0465,0.0465,1,1,163,85,1,seveneight,,,,,,,,,,,,,,,,,,,,,,,,,,,,,,,,,,,,,,,,,,,,,,,,,,,,,,,,,,,,,,,,,,,,,,,,,,,,,,,,,,,,,,,,,,,,,,,,,,,,,,,,,,,,,,,,,,,,,,,,,,,,,,,,,,,,,,,,,
,,69a1a730604a58240a529d37,2026-03-17_10h31.56.741,kallum_motion_pilot_GIST_update_2,2026.1.1,Win32,59.88023952,69a1a730604a58240a529d37,69b92ab4aef6dee357cd729a,69b92ae73146493b1a4792a9,0.0466,0.0466,1,2,164,23,1,fourthree,,,,,,,,,,,,,,,,,,,,,,,,,,,,,,,,,,,,,,,,,,,,,,,,,,,,,,,,,,,,,,,,,,,,,,,,,,,,,,,,,,,,,,,,,,,,,,,,,,,,,,,,,,,,,,,,,,,,,,,,,,,,,,,,,,,,,,,,,
,,69a1a730604a58240a529d37,2026-03-17_10h31.56.741,kallum_motion_pilot_GIST_update_2,2026.1.1,Win32,59.88023952,69a1a730604a58240a529d37,69b92ab4aef6dee357cd729a,69b92ae73146493b1a4792a9,0.0467,0.0467,1,3,165,156,1,sevenfive,,,,,,,,,,,,,,,,,,,,,,,,,,,,,,,,,,,,,,,,,,,,,,,,,,,,,,,,,,,,,,,,,,,,,,,,,,,,,,,,,,,,,,,,,,,,,,,,,,,,,,,,,,,,,,,,,,,,,,,,,,,,,,,,,,,,,,,,,
,,69a1a730604a58240a529d37,2026-03-17_10h31.56.741,kallum_motion_pilot_GIST_update_2,2026.1.1,Win32,59.88023952,69a1a730604a58240a529d37,69b92ab4aef6dee357cd729a,69b92ae73146493b1a4792a9,0.0468,0.0468,1,4,166,160,1,fivesix,,,,,,,,,,,,,,,,,,,,,,,,,,,,,,,,,,,,,,,,,,,,,,,,,,,,,,,,,,,,,,,,,,,,,,,,,,,,,,,,,,,,,,,,,,,,,,,,,,,,,,,,,,,,,,,,,,,,,,,,,,,,,,,,,,,,,,,,,
,,69a1a730604a58240a529d37,2026-03-17_10h31.56.741,kallum_motion_pilot_GIST_update_2,2026.1.1,Win32,59.88023952,69a1a730604a58240a529d37,69b92ab4aef6dee357cd729a,69b92ae73146493b1a4792a9,0.0469,0.0469,1,5,167,147,1,sixeight,,,,,,,,,,,,,,,,,,,,,,,,,,,,,,,,,,,,,,,,,,,,,,,,,,,,,,,,,,,,,,,,,,,,,,,,,,,,,,,,,,,,,,,,,,,,,,,,,,,,,,,,,,,,,,,,,,,,,,,,,,,,,,,,,,,,,,,,,
,,69a1a730604a58240a529d37,2026-03-17_10h31.56.741,kallum_motion_pilot_GIST_update_2,2026.1.1,Win32,59.88023952,69a1a730604a58240a529d37,69b92ab4aef6dee357cd729a,69b92ae73146493b1a4792a9,0.0469,0.0469,1,6,168,56,1,onetwo,,,,,,,,,,,,,,,,,,,,,,,,,,,,,,,,,,,,,,,,,,,,,,,,,,,,,,,,,,,,,,,,,,,,,,,,,,,,,,,,,,,,,,,,,,,,,,,,,,,,,,,,,,,,,,,,,,,,,,,,,,,,,,,,,,,,,,,,,
,,69a1a730604a58240a529d37,2026-03-17_10h31.56.741,kallum_motion_pilot_GIST_update_2,2026.1.1,Win32,59.88023952,69a1a730604a58240a529d37,69b92ab4aef6dee357cd729a,69b92ae73146493b1a4792a9,0.047,0.047,1,7,169,154,1,sixfive,,,,,,,,,,,,,,,,,,,,,,,,,,,,,,,,,,,,,,,,,,,,,,,,,,,,,,,,,,,,,,,,,,,,,,,,,,,,,,,,,,,,,,,,,,,,,,,,,,,,,,,,,,,,,,,,,,,,,,,,,,,,,,,,,,,,,,,,,
,,69a1a730604a58240a529d37,2026-03-17_10h31.56.741,kallum_motion_pilot_GIST_update_2,2026.1.1,Win32,59.88023952,69a1a730604a58240a529d37,69b92ab4aef6dee357cd729a,69b92ae73146493b1a4792a9,0.0472,0.0472,1,8,170,87,1,eightseven,,,,,,,,,,,,,,,,,,,,,,,,,,,,,,,,,,,,,,,,,,,,,,,,,,,,,,,,,,,,,,,,,,,,,,,,,,,,,,,,,,,,,,,,,,,,,,,,,,,,,,,,,,,,,,,,,,,,,,,,,,,,,,,,,,,,,,,,,
,,69a1a730604a58240a529d37,2026-03-17_10h31.56.741,kallum_motion_pilot_GIST_update_2,2026.1.1,Win32,59.88023952,69a1a730604a58240a529d37,69b92ab4aef6dee357cd729a,69b92ae73146493b1a4792a9,0.0473,0.0473,1,9,171,79,1,eightseven,,,,,,,,,,,,,,,,,,,,,,,,,,,,,,,,,,,,,,,,,,,,,,,,,,,,,,,,,,,,,,,,,,,,,,,,,,,,,,,,,,,,,,,,,,,,,,,,,,,,,,,,,,,,,,,,,,,,,,,,,,,,,,,,,,,,,,,,,
,,69a1a730604a58240a529d37,2026-03-17_10h31.56.741,kallum_motion_pilot_GIST_update_2,2026.1.1,Win32,59.88023952,69a1a730604a58240a529d37,69b92ab4aef6dee357cd729a,69b92ae73146493b1a4792a9,0.0474,0.0474,1,10,172,113,1,fiveseven,,,,,,,,,,,,,,,,,,,,,,,,,,,,,,,,,,,,,,,,,,,,,,,,,,,,,,,,,,,,,,,,,,,,,,,,,,,,,,,,,,,,,,,,,,,,,,,,,,,,,,,,,,,,,,,,,,,,,,,,,,,,,,,,,,,,,,,,,
,,69a1a730604a58240a529d37,2026-03-17_10h31.56.741,kallum_motion_pilot_GIST_update_2,2026.1.1,Win32,59.88023952,69a1a730604a58240a529d37,69b92ab4aef6dee357cd729a,69b92ae73146493b1a4792a9,0.0475,0.0475,1,11,173,92,1,sevenfive,,,,,,,,,,,,,,,,,,,,,,,,,,,,,,,,,,,,,,,,,,,,,,,,,,,,,,,,,,,,,,,,,,,,,,,,,,,,,,,,,,,,,,,,,,,,,,,,,,,,,,,,,,,,,,,,,,,,,,,,,,,,,,,,,,,,,,,,,
,,69a1a730604a58240a529d37,2026-03-17_10h31.56.741,kallum_motion_pilot_GIST_update_2,2026.1.1,Win32,59.88023952,69a1a730604a58240a529d37,69b92ab4aef6dee357cd729a,69b92ae73146493b1a4792a9,0.0476,0.0476,1,12,174,59,1,twofour,,,,,,,,,,,,,,,,,,,,,,,,,,,,,,,,,,,,,,,,,,,,,,,,,,,,,,,,,,,,,,,,,,,,,,,,,,,,,,,,,,,,,,,,,,,,,,,,,,,,,,,,,,,,,,,,,,,,,,,,,,,,,,,,,,,,,,,,,
,,69a1a730604a58240a529d37,2026-03-17_10h31.56.741,kallum_motion_pilot_GIST_update_2,2026.1.1,Win32,59.88023952,69a1a730604a58240a529d37,69b92ab4aef6dee357cd729a,69b92ae73146493b1a4792a9,0.0477,0.0477,1,13,175,111,1,eightseven,,,,,,,,,,,,,,,,,,,,,,,,,,,,,,,,,,,,,,,,,,,,,,,,,,,,,,,,,,,,,,,,,,,,,,,,,,,,,,,,,,,,,,,,,,,,,,,,,,,,,,,,,,,,,,,,,,,,,,,,,,,,,,,,,,,,,,,,,
,,69a1a730604a58240a529d37,2026-03-17_10h31.56.741,kallum_motion_pilot_GIST_update_2,2026.1.1,Win32,59.88023952,69a1a730604a58240a529d37,69b92ab4aef6dee357cd729a,69b92ae73146493b1a4792a9,0.0478,0.0479,1,14,176,119,1,eightseven,,,,,,,,,,,,,,,,,,,,,,,,,,,,,,,,,,,,,,,,,,,,,,,,,,,,,,,,,,,,,,,,,,,,,,,,,,,,,,,,,,,,,,,,,,,,,,,,,,,,,,,,,,,,,,,,,,,,,,,,,,,,,,,,,,,,,,,,,
,,69a1a730604a58240a529d37,2026-03-17_10h31.56.741,kallum_motion_pilot_GIST_update_2,2026.1.1,Win32,59.88023952,69a1a730604a58240a529d37,69b92ab4aef6dee357cd729a,69b92ae73146493b1a4792a9,0.0479,0.0479,1,15,177,10,1,twoone,,,,,,,,,,,,,,,,,,,,,,,,,,,,,,,,,,,,,,,,,,,,,,,,,,,,,,,,,,,,,,,,,,,,,,,,,,,,,,,,,,,,,,,,,,,,,,,,,,,,,,,,,,,,,,,,,,,,,,,,,,,,,,,,,,,,,,,,,
,,69a1a730604a58240a529d37,2026-03-17_10h31.56.741,kallum_motion_pilot_GIST_update_2,2026.1.1,Win32,59.88023952,69a1a730604a58240a529d37,69b92ab4aef6dee357cd729a,69b92ae73146493b1a4792a9,0.048,0.0481,1,16,178,26,1,twoone,,,,,,,,,,,,,,,,,,,,,,,,,,,,,,,,,,,,,,,,,,,,,,,,,,,,,,,,,,,,,,,,,,,,,,,,,,,,,,,,,,,,,,,,,,,,,,,,,,,,,,,,,,,,,,,,,,,,,,,,,,,,,,,,,,,,,,,,,
,,69a1a730604a58240a529d37,2026-03-17_10h31.56.741,kallum_motion_pilot_GIST_update_2,2026.1.1,Win32,59.88023952,69a1a730604a58240a529d37,69b92ab4aef6dee357cd729a,69b92ae73146493b1a4792a9,0.0481,0.0481,1,17,179,105,1,fiveseven,,,,,,,,,,,,,,,,,,,,,,,,,,,,,,,,,,,,,,,,,,,,,,,,,,,,,,,,,,,,,,,,,,,,,,,,,,,,,,,,,,,,,,,,,,,,,,,,,,,,,,,,,,,,,,,,,,,,,,,,,,,,,,,,,,,,,,,,,
,,69a1a730604a58240a529d37,2026-03-17_10h31.56.741,kallum_motion_pilot_GIST_update_2,2026.1.1,Win32,59.88023952,69a1a730604a58240a529d37,69b92ab4aef6dee357cd729a,69b92ae73146493b1a4792a9,0.0482,0.0482,1,18,180,78,1,fourtwo,,,,,,,,,,,,,,,,,,,,,,,,,,,,,,,,,,,,,,,,,,,,,,,,,,,,,,,,,,,,,,,,,,,,,,,,,,,,,,,,,,,,,,,,,,,,,,,,,,,,,,,,,,,,,,,,,,,,,,,,,,,,,,,,,,,,,,,,,
,,69a1a730604a58240a529d37,2026-03-17_10h31.56.741,kallum_motion_pilot_GIST_update_2,2026.1.1,Win32,59.88023952,69a1a730604a58240a529d37,69b92ab4aef6dee357cd729a,69b92ae73146493b1a4792a9,0.0484,0.0484,1,19,181,94,1,eightsix,,,,,,,,,,,,,,,,,,,,,,,,,,,,,,,,,,,,,,,,,,,,,,,,,,,,,,,,,,,,,,,,,,,,,,,,,,,,,,,,,,,,,,,,,,,,,,,,,,,,,,,,,,,,,,,,,,,,,,,,,,,,,,,,,,,,,,,,,
,,69a1a730604a58240a529d37,2026-03-17_10h31.56.741,kallum_motion_pilot_GIST_update_2,2026.1.1,Win32,59.88023952,69a1a730604a58240a529d37,69b92ab4aef6dee357cd729a,69b92ae73146493b1a4792a9,0.0484,0.0485,1,20,182,60,1,threeone,,,,,,,,,,,,,,,,,,,,,,,,,,,,,,,,,,,,,,,,,,,,,,,,,,,,,,,,,,,,,,,,,,,,,,,,,,,,,,,,,,,,,,,,,,,,,,,,,,,,,,,,,,,,,,,,,,,,,,,,,,,,,,,,,,,,,,,,,
,,69a1a730604a58240a529d37,2026-03-17_10h31.56.741,kallum_motion_pilot_GIST_update_2,2026.1.1,Win32,59.88023952,69a1a730604a58240a529d37,69b92ab4aef6dee357cd729a,69b92ae73146493b1a4792a9,0.0485,0.0485,1,21,183,53,1,threefour,,,,,,,,,,,,,,,,,,,,,,,,,,,,,,,,,,,,,,,,,,,,,,,,,,,,,,,,,,,,,,,,,,,,,,,,,,,,,,,,,,,,,,,,,,,,,,,,,,,,,,,,,,,,,,,,,,,,,,,,,,,,,,,,,,,,,,,,,
,,69a1a730604a58240a529d37,2026-03-17_10h31.56.741,kallum_motion_pilot_GIST_update_2,2026.1.1,Win32,59.88023952,69a1a730604a58240a529d37,69b92ab4aef6dee357cd729a,69b92ae73146493b1a4792a9,0.0486,0.0486,1,22,184,61,1,threefour,,,,,,,,,,,,,,,,,,,,,,,,,,,,,,,,,,,,,,,,,,,,,,,,,,,,,,,,,,,,,,,,,,,,,,,,,,,,,,,,,,,,,,,,,,,,,,,,,,,,,,,,,,,,,,,,,,,,,,,,,,,,,,,,,,,,,,,,,
,,69a1a730604a58240a529d37,2026-03-17_10h31.56.741,kallum_motion_pilot_GIST_update_2,2026.1.1,Win32,59.88023952,69a1a730604a58240a529d37,69b92ab4aef6dee357cd729a,69b92ae73146493b1a4792a9,0.0488,0.0488,1,23,185,86,1,eightsix,,,,,,,,,,,,,,,,,,,,,,,,,,,,,,,,,,,,,,,,,,,,,,,,,,,,,,,,,,,,,,,,,,,,,,,,,,,,,,,,,,,,,,,,,,,,,,,,,,,,,,,,,,,,,,,,,,,,,,,,,,,,,,,,,,,,,,,,,
,,69a1a730604a58240a529d37,2026-03-17_10h31.56.741,kallum_motion_pilot_GIST_update_2,2026.1.1,Win32,59.88023952,69a1a730604a58240a529d37,69b92ab4aef6dee357cd729a,69b92ae73146493b1a4792a9,0.0489,0.0489,1,24,186,17,1,onethree,,,,,,,,,,,,,,,,,,,,,,,,,,,,,,,,,,,,,,,,,,,,,,,,,,,,,,,,,,,,,,,,,,,,,,,,,,,,,,,,,,,,,,,,,,,,,,,,,,,,,,,,,,,,,,,,,,,,,,,,,,,,,,,,,,,,,,,,,
,,69a1a730604a58240a529d37,2026-03-17_10h31.56.741,kallum_motion_pilot_GIST_update_2,2026.1.1,Win32,59.88023952,69a1a730604a58240a529d37,69b92ab4aef6dee357cd729a,69b92ae73146493b1a4792a9,0.0492,0.0492,1,25,187,73,1,onethree,,,,,,,,,,,,,,,,,,,,,,,,,,,,,,,,,,,,,,,,,,,,,,,,,,,,,,,,,,,,,,,,,,,,,,,,,,,,,,,,,,,,,,,,,,,,,,,,,,,,,,,,,,,,,,,,,,,,,,,,,,,,,,,,,,,,,,,,,
,,69a1a730604a58240a529d37,2026-03-17_10h31.56.741,kallum_motion_pilot_GIST_update_2,2026.1.1,Win32,59.88023952,69a1a730604a58240a529d37,69b92ab4aef6dee357cd729a,69b92ae73146493b1a4792a9,0.0495,0.0495,1,26,188,66,1,twoone,,,,,,,,,,,,,,,,,,,,,,,,,,,,,,,,,,,,,,,,,,,,,,,,,,,,,,,,,,,,,,,,,,,,,,,,,,,,,,,,,,,,,,,,,,,,,,,,,,,,,,,,,,,,,,,,,,,,,,,,,,,,,,,,,,,,,,,,,
,,69a1a730604a58240a529d37,2026-03-17_10h31.56.741,kallum_motion_pilot_GIST_update_2,2026.1.1,Win32,59.88023952,69a1a730604a58240a529d37,69b92ab4aef6dee357cd729a,69b92ae73146493b1a4792a9,0.0497,0.0497,1,27,189,34,1,twoone,,,,,,,,,,,,,,,,,,,,,,,,,,,,,,,,,,,,,,,,,,,,,,,,,,,,,,,,,,,,,,,,,,,,,,,,,,,,,,,,,,,,,,,,,,,,,,,,,,,,,,,,,,,,,,,,,,,,,,,,,,,,,,,,,,,,,,,,,
,,69a1a730604a58240a529d37,2026-03-17_10h31.56.741,kallum_motion_pilot_GIST_update_2,2026.1.1,Win32,59.88023952,69a1a730604a58240a529d37,69b92ab4aef6dee357cd729a,69b92ae73146493b1a4792a9,0.0499,0.0499,1,28,190,27,1,twofour,,,,,,,,,,,,,,,,,,,,,,,,,,,,,,,,,,,,,,,,,,,,,,,,,,,,,,,,,,,,,,,,,,,,,,,,,,,,,,,,,,,,,,,,,,,,,,,,,,,,,,,,,,,,,,,,,,,,,,,,,,,,,,,,,,,,,,,,,
,,69a1a730604a58240a529d37,2026-03-17_10h31.56.741,kallum_motion_pilot_GIST_update_2,2026.1.1,Win32,59.88023952,69a1a730604a58240a529d37,69b92ab4aef6dee357cd729a,69b92ae73146493b1a4792a9,0.05,0.0501,1,29,191,104,1,fivesix,,,,,,,,,,,,,,,,,,,,,,,,,,,,,,,,,,,,,,,,,,,,,,,,,,,,,,,,,,,,,,,,,,,,,,,,,,,,,,,,,,,,,,,,,,,,,,,,,,,,,,,,,,,,,,,,,,,,,,,,,,,,,,,,,,,,,,,,,
,,69a1a730604a58240a529d37,2026-03-17_10h31.56.741,kallum_motion_pilot_GIST_update_2,2026.1.1,Win32,59.88023952,69a1a730604a58240a529d37,69b92ab4aef6dee357cd729a,69b92ae73146493b1a4792a9,0.0501,0.0502,1,30,192,96,1,fivesix,,,,,,,,,,,,,,,,,,,,,,,,,,,,,,,,,,,,,,,,,,,,,,,,,,,,,,,,,,,,,,,,,,,,,,,,,,,,,,,,,,,,,,,,,,,,,,,,,,,,,,,,,,,,,,,,,,,,,,,,,,,,,,,,,,,,,,,,,
,,69a1a730604a58240a529d37,2026-03-17_10h31.56.741,kallum_motion_pilot_GIST_update_2,2026.1.1,Win32,59.88023952,69a1a730604a58240a529d37,69b92ab4aef6dee357cd729a,69b92ae73146493b1a4792a9,0.0503,0.0503,1,31,193,39,1,fourthree,,,,,,,,,,,,,,,,,,,,,,,,,,,,,,,,,,,,,,,,,,,,,,,,,,,,,,,,,,,,,,,,,,,,,,,,,,,,,,,,,,,,,,,,,,,,,,,,,,,,,,,,,,,,,,,,,,,,,,,,,,,,,,,,,,,,,,,,,
,,69a1a730604a58240a529d37,2026-03-17_10h31.56.741,kallum_motion_pilot_GIST_update_2,2026.1.1,Win32,59.88023952,69a1a730604a58240a529d37,69b92ab4aef6dee357cd729a,69b92ae73146493b1a4792a9,0.0504,0.0504,1,32,194,133,1,seveneight,,,,,,,,,,,,,,,,,,,,,,,,,,,,,,,,,,,,,,,,,,,,,,,,,,,,,,,,,,,,,,,,,,,,,,,,,,,,,,,,,,,,,,,,,,,,,,,,,,,,,,,,,,,,,,,,,,,,,,,,,,,,,,,,,,,,,,,,,
,,69a1a730604a58240a529d37,2026-03-17_10h31.56.741,kallum_motion_pilot_GIST_update_2,2026.1.1,Win32,59.88023952,69a1a730604a58240a529d37,69b92ab4aef6dee357cd729a,69b92ae73146493b1a4792a9,0.0505,0.0505,1,33,195,143,1,eightseven,,,,,,,,,,,,,,,,,,,,,,,,,,,,,,,,,,,,,,,,,,,,,,,,,,,,,,,,,,,,,,,,,,,,,,,,,,,,,,,,,,,,,,,,,,,,,,,,,,,,,,,,,,,,,,,,,,,,,,,,,,,,,,,,,,,,,,,,,
,,69a1a730604a58240a529d37,2026-03-17_10h31.56.741,kallum_motion_pilot_GIST_update_2,2026.1.1,Win32,59.88023952,69a1a730604a58240a529d37,69b92ab4aef6dee357cd729a,69b92ae73146493b1a4792a9,0.0507,0.0507,1,34,196,139,1,sixeight,,,,,,,,,,,,,,,,,,,,,,,,,,,,,,,,,,,,,,,,,,,,,,,,,,,,,,,,,,,,,,,,,,,,,,,,,,,,,,,,,,,,,,,,,,,,,,,,,,,,,,,,,,,,,,,,,,,,,,,,,,,,,,,,,,,,,,,,,
,,69a1a730604a58240a529d37,2026-03-17_10h31.56.741,kallum_motion_pilot_GIST_update_2,2026.1.1,Win32,59.88023952,69a1a730604a58240a529d37,69b92ab4aef6dee357cd729a,69b92ae73146493b1a4792a9,0.0508,0.0508,1,35,197,130,1,sixfive,,,,,,,,,,,,,,,,,,,,,,,,,,,,,,,,,,,,,,,,,,,,,,,,,,,,,,,,,,,,,,,,,,,,,,,,,,,,,,,,,,,,,,,,,,,,,,,,,,,,,,,,,,,,,,,,,,,,,,,,,,,,,,,,,,,,,,,,,
,,69a1a730604a58240a529d37,2026-03-17_10h31.56.741,kallum_motion_pilot_GIST_update_2,2026.1.1,Win32,59.88023952,69a1a730604a58240a529d37,69b92ab4aef6dee357cd729a,69b92ae73146493b1a4792a9,0.0509,0.0509,1,36,198,11,1,twofour,,,,,,,,,,,,,,,,,,,,,,,,,,,,,,,,,,,,,,,,,,,,,,,,,,,,,,,,,,,,,,,,,,,,,,,,,,,,,,,,,,,,,,,,,,,,,,,,,,,,,,,,,,,,,,,,,,,,,,,,,,,,,,,,,,,,,,,,,
,,69a1a730604a58240a529d37,2026-03-17_10h31.56.741,kallum_motion_pilot_GIST_update_2,2026.1.1,Win32,59.88023952,69a1a730604a58240a529d37,69b92ab4aef6dee357cd729a,69b92ae73146493b1a4792a9,0.0511,0.0511,1,37,199,77,1,threefour,,,,,,,,,,,,,,,,,,,,,,,,,,,,,,,,,,,,,,,,,,,,,,,,,,,,,,,,,,,,,,,,,,,,,,,,,,,,,,,,,,,,,,,,,,,,,,,,,,,,,,,,,,,,,,,,,,,,,,,,,,,,,,,,,,,,,,,,,
,,69a1a730604a58240a529d37,2026-03-17_10h31.56.741,kallum_motion_pilot_GIST_update_2,2026.1.1,Win32,59.88023952,69a1a730604a58240a529d37,69b92ab4aef6dee357cd729a,69b92ae73146493b1a4792a9,0.0511,0.0511,1,38,200,22,1,fourtwo,,,,,,,,,,,,,,,,,,,,,,,,,,,,,,,,,,,,,,,,,,,,,,,,,,,,,,,,,,,,,,,,,,,,,,,,,,,,,,,,,,,,,,,,,,,,,,,,,,,,,,,,,,,,,,,,,,,,,,,,,,,,,,,,,,,,,,,,,
,,69a1a730604a58240a529d37,2026-03-17_10h31.56.741,kallum_motion_pilot_GIST_update_2,2026.1.1,Win32,59.88023952,69a1a730604a58240a529d37,69b92ab4aef6dee357cd729a,69b92ae73146493b1a4792a9,0.0513,0.0513,1,39,201,159,1,eightseven,,,,,,,,,,,,,,,,,,,,,,,,,,,,,,,,,,,,,,,,,,,,,,,,,,,,,,,,,,,,,,,,,,,,,,,,,,,,,,,,,,,,,,,,,,,,,,,,,,,,,,,,,,,,,,,,,,,,,,,,,,,,,,,,,,,,,,,,,
,,69a1a730604a58240a529d37,2026-03-17_10h31.56.741,kallum_motion_pilot_GIST_update_2,2026.1.1,Win32,59.88023952,69a1a730604a58240a529d37,69b92ab4aef6dee357cd729a,69b92ae73146493b1a4792a9,0.0514,0.0514,1,40,202,68,1,threeone,,,,,,,,,,,,,,,,,,,,,,,,,,,,,,,,,,,,,,,,,,,,,,,,,,,,,,,,,,,,,,,,,,,,,,,,,,,,,,,,,,,,,,,,,,,,,,,,,,,,,,,,,,,,,,,,,,,,,,,,,,,,,,,,,,,,,,,,,
,,69a1a730604a58240a529d37,2026-03-17_10h31.56.741,kallum_motion_pilot_GIST_update_2,2026.1.1,Win32,59.88023952,69a1a730604a58240a529d37,69b92ab4aef6dee357cd729a,69b92ae73146493b1a4792a9,0.0515,0.0515,1,41,203,71,1,fourthree,,,,,,,,,,,,,,,,,,,,,,,,,,,,,,,,,,,,,,,,,,,,,,,,,,,,,,,,,,,,,,,,,,,,,,,,,,,,,,,,,,,,,,,,,,,,,,,,,,,,,,,,,,,,,,,,,,,,,,,,,,,,,,,,,,,,,,,,,
,,69a1a730604a58240a529d37,2026-03-17_10h31.56.741,kallum_motion_pilot_GIST_update_2,2026.1.1,Win32,59.88023952,69a1a730604a58240a529d37,69b92ab4aef6dee357cd729a,69b92ae73146493b1a4792a9,0.0516,0.0516,1,42,204,69,1,threefour,,,,,,,,,,,,,,,,,,,,,,,,,,,,,,,,,,,,,,,,,,,,,,,,,,,,,,,,,,,,,,,,,,,,,,,,,,,,,,,,,,,,,,,,,,,,,,,,,,,,,,,,,,,,,,,,,,,,,,,,,,,,,,,,,,,,,,,,,
,,69a1a730604a58240a529d37,2026-03-17_10h31.56.741,kallum_motion_pilot_GIST_update_2,2026.1.1,Win32,59.88023952,69a1a730604a58240a529d37,69b92ab4aef6dee357cd729a,69b92ae73146493b1a4792a9,0.0517,0.0517,1,43,205,98,1,sixfive,,,,,,,,,,,,,,,,,,,,,,,,,,,,,,,,,,,,,,,,,,,,,,,,,,,,,,,,,,,,,,,,,,,,,,,,,,,,,,,,,,,,,,,,,,,,,,,,,,,,,,,,,,,,,,,,,,,,,,,,,,,,,,,,,,,,,,,,,
,,69a1a730604a58240a529d37,2026-03-17_10h31.56.741,kallum_motion_pilot_GIST_update_2,2026.1.1,Win32,59.88023952,69a1a730604a58240a529d37,69b92ab4aef6dee357cd729a,69b92ae73146493b1a4792a9,0.0519,0.0519,1,44,206,134,1,eightsix,,,,,,,,,,,,,,,,,,,,,,,,,,,,,,,,,,,,,,,,,,,,,,,,,,,,,,,,,,,,,,,,,,,,,,,,,,,,,,,,,,,,,,,,,,,,,,,,,,,,,,,,,,,,,,,,,,,,,,,,,,,,,,,,,,,,,,,,,
,,69a1a730604a58240a529d37,2026-03-17_10h31.56.741,kallum_motion_pilot_GIST_update_2,2026.1.1,Win32,59.88023952,69a1a730604a58240a529d37,69b92ab4aef6dee357cd729a,69b92ae73146493b1a4792a9,0.052,0.052,1,45,207,5,1,threefour,,,,,,,,,,,,,,,,,,,,,,,,,,,,,,,,,,,,,,,,,,,,,,,,,,,,,,,,,,,,,,,,,,,,,,,,,,,,,,,,,,,,,,,,,,,,,,,,,,,,,,,,,,,,,,,,,,,,,,,,,,,,,,,,,,,,,,,,,
,,69a1a730604a58240a529d37,2026-03-17_10h31.56.741,kallum_motion_pilot_GIST_update_2,2026.1.1,Win32,59.88023952,69a1a730604a58240a529d37,69b92ab4aef6dee357cd729a,69b92ae73146493b1a4792a9,0.052,0.0521,1,46,208,38,1,fourtwo,,,,,,,,,,,,,,,,,,,,,,,,,,,,,,,,,,,,,,,,,,,,,,,,,,,,,,,,,,,,,,,,,,,,,,,,,,,,,,,,,,,,,,,,,,,,,,,,,,,,,,,,,,,,,,,,,,,,,,,,,,,,,,,,,,,,,,,,,
,,69a1a730604a58240a529d37,2026-03-17_10h31.56.741,kallum_motion_pilot_GIST_update_2,2026.1.1,Win32,59.88023952,69a1a730604a58240a529d37,69b92ab4aef6dee357cd729a,69b92ae73146493b1a4792a9,0.0522,0.0522,1,47,209,74,1,twoone,,,,,,,,,,,,,,,,,,,,,,,,,,,,,,,,,,,,,,,,,,,,,,,,,,,,,,,,,,,,,,,,,,,,,,,,,,,,,,,,,,,,,,,,,,,,,,,,,,,,,,,,,,,,,,,,,,,,,,,,,,,,,,,,,,,,,,,,,
,,69a1a730604a58240a529d37,2026-03-17_10h31.56.741,kallum_motion_pilot_GIST_update_2,2026.1.1,Win32,59.88023952,69a1a730604a58240a529d37,69b92ab4aef6dee357cd729a,69b92ae73146493b1a4792a9,0.0523,0.0523,1,48,210,97,1,fiveseven,,,,,,,,,,,,,,,,,,,,,,,,,,,,,,,,,,,,,,,,,,,,,,,,,,,,,,,,,,,,,,,,,,,,,,,,,,,,,,,,,,,,,,,,,,,,,,,,,,,,,,,,,,,,,,,,,,,,,,,,,,,,,,,,,,,,,,,,,
,,69a1a730604a58240a529d37,2026-03-17_10h31.56.741,kallum_motion_pilot_GIST_update_2,2026.1.1,Win32,59.88023952,69a1a730604a58240a529d37,69b92ab4aef6dee357cd729a,69b92ae73146493b1a4792a9,0.0524,0.0524,1,49,211,51,1,twofour,,,,,,,,,,,,,,,,,,,,,,,,,,,,,,,,,,,,,,,,,,,,,,,,,,,,,,,,,,,,,,,,,,,,,,,,,,,,,,,,,,,,,,,,,,,,,,,,,,,,,,,,,,,,,,,,,,,,,,,,,,,,,,,,,,,,,,,,,
,,69a1a730604a58240a529d37,2026-03-17_10h31.56.741,kallum_motion_pilot_GIST_update_2,2026.1.1,Win32,59.88023952,69a1a730604a58240a529d37,69b92ab4aef6dee357cd729a,69b92ae73146493b1a4792a9,0.0525,0.0526,1,50,212,95,1,eightseven,,,,,,,,,,,,,,,,,,,,,,,,,,,,,,,,,,,,,,,,,,,,,,,,,,,,,,,,,,,,,,,,,,,,,,,,,,,,,,,,,,,,,,,,,,,,,,,,,,,,,,,,,,,,,,,,,,,,,,,,,,,,,,,,,,,,,,,,,
,,69a1a730604a58240a529d37,2026-03-17_10h31.56.741,kallum_motion_pilot_GIST_update_2,2026.1.1,Win32,59.88023952,69a1a730604a58240a529d37,69b92ab4aef6dee357cd729a,69b92ae73146493b1a4792a9,0.0527,0.0527,1,51,213,29,1,threefour,,,,,,,,,,,,,,,,,,,,,,,,,,,,,,,,,,,,,,,,,,,,,,,,,,,,,,,,,,,,,,,,,,,,,,,,,,,,,,,,,,,,,,,,,,,,,,,,,,,,,,,,,,,,,,,,,,,,,,,,,,,,,,,,,,,,,,,,,
,,69a1a730604a58240a529d37,2026-03-17_10h31.56.741,kallum_motion_pilot_GIST_update_2,2026.1.1,Win32,59.88023952,69a1a730604a58240a529d37,69b92ab4aef6dee357cd729a,69b92ae73146493b1a4792a9,0.0528,0.0528,1,52,214,108,1,sevenfive,,,,,,,,,,,,,,,,,,,,,,,,,,,,,,,,,,,,,,,,,,,,,,,,,,,,,,,,,,,,,,,,,,,,,,,,,,,,,,,,,,,,,,,,,,,,,,,,,,,,,,,,,,,,,,,,,,,,,,,,,,,,,,,,,,,,,,,,,
,,69a1a730604a58240a529d37,2026-03-17_10h31.56.741,kallum_motion_pilot_GIST_update_2,2026.1.1,Win32,59.88023952,69a1a730604a58240a529d37,69b92ab4aef6dee357cd729a,69b92ae73146493b1a4792a9,0.0529,0.0529,1,53,215,21,1,threefour,,,,,,,,,,,,,,,,,,,,,,,,,,,,,,,,,,,,,,,,,,,,,,,,,,,,,,,,,,,,,,,,,,,,,,,,,,,,,,,,,,,,,,,,,,,,,,,,,,,,,,,,,,,,,,,,,,,,,,,,,,,,,,,,,,,,,,,,,
,,69a1a730604a58240a529d37,2026-03-17_10h31.56.741,kallum_motion_pilot_GIST_update_2,2026.1.1,Win32,59.88023952,69a1a730604a58240a529d37,69b92ab4aef6dee357cd729a,69b92ae73146493b1a4792a9,0.0531,0.0531,1,54,216,115,1,sixeight,,,,,,,,,,,,,,,,,,,,,,,,,,,,,,,,,,,,,,,,,,,,,,,,,,,,,,,,,,,,,,,,,,,,,,,,,,,,,,,,,,,,,,,,,,,,,,,,,,,,,,,,,,,,,,,,,,,,,,,,,,,,,,,,,,,,,,,,,
,,69a1a730604a58240a529d37,2026-03-17_10h31.56.741,kallum_motion_pilot_GIST_update_2,2026.1.1,Win32,59.88023952,69a1a730604a58240a529d37,69b92ab4aef6dee357cd729a,69b92ae73146493b1a4792a9,0.0532,0.0532,1,55,217,122,1,sixfive,,,,,,,,,,,,,,,,,,,,,,,,,,,,,,,,,,,,,,,,,,,,,,,,,,,,,,,,,,,,,,,,,,,,,,,,,,,,,,,,,,,,,,,,,,,,,,,,,,,,,,,,,,,,,,,,,,,,,,,,,,,,,,,,,,,,,,,,,
,,69a1a730604a58240a529d37,2026-03-17_10h31.56.741,kallum_motion_pilot_GIST_update_2,2026.1.1,Win32,59.88023952,69a1a730604a58240a529d37,69b92ab4aef6dee357cd729a,69b92ae73146493b1a4792a9,0.0534,0.0534,1,56,218,42,1,twoone,,,,,,,,,,,,,,,,,,,,,,,,,,,,,,,,,,,,,,,,,,,,,,,,,,,,,,,,,,,,,,,,,,,,,,,,,,,,,,,,,,,,,,,,,,,,,,,,,,,,,,,,,,,,,,,,,,,,,,,,,,,,,,,,,,,,,,,,,
,,69a1a730604a58240a529d37,2026-03-17_10h31.56.741,kallum_motion_pilot_GIST_update_2,2026.1.1,Win32,59.88023952,69a1a730604a58240a529d37,69b92ab4aef6dee357cd729a,69b92ae73146493b1a4792a9,0.0535,0.0535,1,57,219,63,1,fourthree,,,,,,,,,,,,,,,,,,,,,,,,,,,,,,,,,,,,,,,,,,,,,,,,,,,,,,,,,,,,,,,,,,,,,,,,,,,,,,,,,,,,,,,,,,,,,,,,,,,,,,,,,,,,,,,,,,,,,,,,,,,,,,,,,,,,,,,,,
,,69a1a730604a58240a529d37,2026-03-17_10h31.56.741,kallum_motion_pilot_GIST_update_2,2026.1.1,Win32,59.88023952,69a1a730604a58240a529d37,69b92ab4aef6dee357cd729a,69b92ae73146493b1a4792a9,0.0537,0.0537,1,58,220,100,1,sevenfive,,,,,,,,,,,,,,,,,,,,,,,,,,,,,,,,,,,,,,,,,,,,,,,,,,,,,,,,,,,,,,,,,,,,,,,,,,,,,,,,,,,,,,,,,,,,,,,,,,,,,,,,,,,,,,,,,,,,,,,,,,,,,,,,,,,,,,,,,
,,69a1a730604a58240a529d37,2026-03-17_10h31.56.741,kallum_motion_pilot_GIST_update_2,2026.1.1,Win32,59.88023952,69a1a730604a58240a529d37,69b92ab4aef6dee357cd729a,69b92ae73146493b1a4792a9,0.0537,0.0537,1,59,221,45,1,threefour,,,,,,,,,,,,,,,,,,,,,,,,,,,,,,,,,,,,,,,,,,,,,,,,,,,,,,,,,,,,,,,,,,,,,,,,,,,,,,,,,,,,,,,,,,,,,,,,,,,,,,,,,,,,,,,,,,,,,,,,,,,,,,,,,,,,,,,,,
,,69a1a730604a58240a529d37,2026-03-17_10h31.56.741,kallum_motion_pilot_GIST_update_2,2026.1.1,Win32,59.88023952,69a1a730604a58240a529d37,69b92ab4aef6dee357cd729a,69b92ae73146493b1a4792a9,0.0538,0.0538,1,60,222,121,1,fiveseven,,,,,,,,,,,,,,,,,,,,,,,,,,,,,,,,,,,,,,,,,,,,,,,,,,,,,,,,,,,,,,,,,,,,,,,,,,,,,,,,,,,,,,,,,,,,,,,,,,,,,,,,,,,,,,,,,,,,,,,,,,,,,,,,,,,,,,,,,
,,69a1a730604a58240a529d37,2026-03-17_10h31.56.741,kallum_motion_pilot_GIST_update_2,2026.1.1,Win32,59.88023952,69a1a730604a58240a529d37,69b92ab4aef6dee357cd729a,69b92ae73146493b1a4792a9,0.0539,0.054,1,61,223,116,1,sevenfive,,,,,,,,,,,,,,,,,,,,,,,,,,,,,,,,,,,,,,,,,,,,,,,,,,,,,,,,,,,,,,,,,,,,,,,,,,,,,,,,,,,,,,,,,,,,,,,,,,,,,,,,,,,,,,,,,,,,,,,,,,,,,,,,,,,,,,,,,
,,69a1a730604a58240a529d37,2026-03-17_10h31.56.741,kallum_motion_pilot_GIST_update_2,2026.1.1,Win32,59.88023952,69a1a730604a58240a529d37,69b92ab4aef6dee357cd729a,69b92ae73146493b1a4792a9,0.054,0.054,1,62,224,89,1,fiveseven,,,,,,,,,,,,,,,,,,,,,,,,,,,,,,,,,,,,,,,,,,,,,,,,,,,,,,,,,,,,,,,,,,,,,,,,,,,,,,,,,,,,,,,,,,,,,,,,,,,,,,,,,,,,,,,,,,,,,,,,,,,,,,,,,,,,,,,,,
,,69a1a730604a58240a529d37,2026-03-17_10h31.56.741,kallum_motion_pilot_GIST_update_2,2026.1.1,Win32,59.88023952,69a1a730604a58240a529d37,69b92ab4aef6dee357cd729a,69b92ae73146493b1a4792a9,0.0541,0.0542,1,63,225,2,1,twoone,,,,,,,,,,,,,,,,,,,,,,,,,,,,,,,,,,,,,,,,,,,,,,,,,,,,,,,,,,,,,,,,,,,,,,,,,,,,,,,,,,,,,,,,,,,,,,,,,,,,,,,,,,,,,,,,,,,,,,,,,,,,,,,,,,,,,,,,,
,,69a1a730604a58240a529d37,2026-03-17_10h31.56.741,kallum_motion_pilot_GIST_update_2,2026.1.1,Win32,59.88023952,69a1a730604a58240a529d37,69b92ab4aef6dee357cd729a,69b92ae73146493b1a4792a9,0.0543,0.0543,1,64,226,152,1,fivesix,,,,,,,,,,,,,,,,,,,,,,,,,,,,,,,,,,,,,,,,,,,,,,,,,,,,,,,,,,,,,,,,,,,,,,,,,,,,,,,,,,,,,,,,,,,,,,,,,,,,,,,,,,,,,,,,,,,,,,,,,,,,,,,,,,,,,,,,,
,,69a1a730604a58240a529d37,2026-03-17_10h31.56.741,kallum_motion_pilot_GIST_update_2,2026.1.1,Win32,59.88023952,69a1a730604a58240a529d37,69b92ab4aef6dee357cd729a,69b92ae73146493b1a4792a9,0.0544,0.0544,1,65,227,24,1,onetwo,,,,,,,,,,,,,,,,,,,,,,,,,,,,,,,,,,,,,,,,,,,,,,,,,,,,,,,,,,,,,,,,,,,,,,,,,,,,,,,,,,,,,,,,,,,,,,,,,,,,,,,,,,,,,,,,,,,,,,,,,,,,,,,,,,,,,,,,,
,,69a1a730604a58240a529d37,2026-03-17_10h31.56.741,kallum_motion_pilot_GIST_update_2,2026.1.1,Win32,59.88023952,69a1a730604a58240a529d37,69b92ab4aef6dee357cd729a,69b92ae73146493b1a4792a9,0.0545,0.0545,1,66,228,123,1,sixeight,,,,,,,,,,,,,,,,,,,,,,,,,,,,,,,,,,,,,,,,,,,,,,,,,,,,,,,,,,,,,,,,,,,,,,,,,,,,,,,,,,,,,,,,,,,,,,,,,,,,,,,,,,,,,,,,,,,,,,,,,,,,,,,,,,,,,,,,,
,,69a1a730604a58240a529d37,2026-03-17_10h31.56.741,kallum_motion_pilot_GIST_update_2,2026.1.1,Win32,59.88023952,69a1a730604a58240a529d37,69b92ab4aef6dee357cd729a,69b92ae73146493b1a4792a9,0.0547,0.0547,1,67,229,9,1,onethree,,,,,,,,,,,,,,,,,,,,,,,,,,,,,,,,,,,,,,,,,,,,,,,,,,,,,,,,,,,,,,,,,,,,,,,,,,,,,,,,,,,,,,,,,,,,,,,,,,,,,,,,,,,,,,,,,,,,,,,,,,,,,,,,,,,,,,,,,
,,69a1a730604a58240a529d37,2026-03-17_10h31.56.741,kallum_motion_pilot_GIST_update_2,2026.1.1,Win32,59.88023952,69a1a730604a58240a529d37,69b92ab4aef6dee357cd729a,69b92ae73146493b1a4792a9,0.0548,0.0548,1,68,230,54,1,fourtwo,,,,,,,,,,,,,,,,,,,,,,,,,,,,,,,,,,,,,,,,,,,,,,,,,,,,,,,,,,,,,,,,,,,,,,,,,,,,,,,,,,,,,,,,,,,,,,,,,,,,,,,,,,,,,,,,,,,,,,,,,,,,,,,,,,,,,,,,,
,,69a1a730604a58240a529d37,2026-03-17_10h31.56.741,kallum_motion_pilot_GIST_update_2,2026.1.1,Win32,59.88023952,69a1a730604a58240a529d37,69b92ab4aef6dee357cd729a,69b92ae73146493b1a4792a9,0.0549,0.0549,1,69,231,106,1,sixfive,,,,,,,,,,,,,,,,,,,,,,,,,,,,,,,,,,,,,,,,,,,,,,,,,,,,,,,,,,,,,,,,,,,,,,,,,,,,,,,,,,,,,,,,,,,,,,,,,,,,,,,,,,,,,,,,,,,,,,,,,,,,,,,,,,,,,,,,,
,,69a1a730604a58240a529d37,2026-03-17_10h31.56.741,kallum_motion_pilot_GIST_update_2,2026.1.1,Win32,59.88023952,69a1a730604a58240a529d37,69b92ab4aef6dee357cd729a,69b92ae73146493b1a4792a9,0.0549,0.0549,1,70,232,93,1,seveneight,,,,,,,,,,,,,,,,,,,,,,,,,,,,,,,,,,,,,,,,,,,,,,,,,,,,,,,,,,,,,,,,,,,,,,,,,,,,,,,,,,,,,,,,,,,,,,,,,,,,,,,,,,,,,,,,,,,,,,,,,,,,,,,,,,,,,,,,,
,,69a1a730604a58240a529d37,2026-03-17_10h31.56.741,kallum_motion_pilot_GIST_update_2,2026.1.1,Win32,59.88023952,69a1a730604a58240a529d37,69b92ab4aef6dee357cd729a,69b92ae73146493b1a4792a9,0.0551,0.0551,1,71,233,43,1,twofour,,,,,,,,,,,,,,,,,,,,,,,,,,,,,,,,,,,,,,,,,,,,,,,,,,,,,,,,,,,,,,,,,,,,,,,,,,,,,,,,,,,,,,,,,,,,,,,,,,,,,,,,,,,,,,,,,,,,,,,,,,,,,,,,,,,,,,,,,
,,69a1a730604a58240a529d37,2026-03-17_10h31.56.741,kallum_motion_pilot_GIST_update_2,2026.1.1,Win32,59.88023952,69a1a730604a58240a529d37,69b92ab4aef6dee357cd729a,69b92ae73146493b1a4792a9,0.0552,0.0552,1,72,234,12,1,threeone,,,,,,,,,,,,,,,,,,,,,,,,,,,,,,,,,,,,,,,,,,,,,,,,,,,,,,,,,,,,,,,,,,,,,,,,,,,,,,,,,,,,,,,,,,,,,,,,,,,,,,,,,,,,,,,,,,,,,,,,,,,,,,,,,,,,,,,,,
,,69a1a730604a58240a529d37,2026-03-17_10h31.56.741,kallum_motion_pilot_GIST_update_2,2026.1.1,Win32,59.88023952,69a1a730604a58240a529d37,69b92ab4aef6dee357cd729a,69b92ae73146493b1a4792a9,0.0553,0.0553,1,73,235,40,1,onetwo,,,,,,,,,,,,,,,,,,,,,,,,,,,,,,,,,,,,,,,,,,,,,,,,,,,,,,,,,,,,,,,,,,,,,,,,,,,,,,,,,,,,,,,,,,,,,,,,,,,,,,,,,,,,,,,,,,,,,,,,,,,,,,,,,,,,,,,,,
,,69a1a730604a58240a529d37,2026-03-17_10h31.56.741,kallum_motion_pilot_GIST_update_2,2026.1.1,Win32,59.88023952,69a1a730604a58240a529d37,69b92ab4aef6dee357cd729a,69b92ae73146493b1a4792a9,0.0555,0.0555,1,74,236,101,1,seveneight,,,,,,,,,,,,,,,,,,,,,,,,,,,,,,,,,,,,,,,,,,,,,,,,,,,,,,,,,,,,,,,,,,,,,,,,,,,,,,,,,,,,,,,,,,,,,,,,,,,,,,,,,,,,,,,,,,,,,,,,,,,,,,,,,,,,,,,,,
,,69a1a730604a58240a529d37,2026-03-17_10h31.56.741,kallum_motion_pilot_GIST_update_2,2026.1.1,Win32,59.88023952,69a1a730604a58240a529d37,69b92ab4aef6dee357cd729a,69b92ae73146493b1a4792a9,0.0555,0.0555,1,75,237,31,1,fourthree,,,,,,,,,,,,,,,,,,,,,,,,,,,,,,,,,,,,,,,,,,,,,,,,,,,,,,,,,,,,,,,,,,,,,,,,,,,,,,,,,,,,,,,,,,,,,,,,,,,,,,,,,,,,,,,,,,,,,,,,,,,,,,,,,,,,,,,,,
,,69a1a730604a58240a529d37,2026-03-17_10h31.56.741,kallum_motion_pilot_GIST_update_2,2026.1.1,Win32,59.88023952,69a1a730604a58240a529d37,69b92ab4aef6dee357cd729a,69b92ae73146493b1a4792a9,0.0556,0.0556,1,76,238,33,1,onethree,,,,,,,,,,,,,,,,,,,,,,,,,,,,,,,,,,,,,,,,,,,,,,,,,,,,,,,,,,,,,,,,,,,,,,,,,,,,,,,,,,,,,,,,,,,,,,,,,,,,,,,,,,,,,,,,,,,,,,,,,,,,,,,,,,,,,,,,,
,,69a1a730604a58240a529d37,2026-03-17_10h31.56.741,kallum_motion_pilot_GIST_update_2,2026.1.1,Win32,59.88023952,69a1a730604a58240a529d37,69b92ab4aef6dee357cd729a,69b92ae73146493b1a4792a9,0.0557,0.0557,1,77,239,157,1,seveneight,,,,,,,,,,,,,,,,,,,,,,,,,,,,,,,,,,,,,,,,,,,,,,,,,,,,,,,,,,,,,,,,,,,,,,,,,,,,,,,,,,,,,,,,,,,,,,,,,,,,,,,,,,,,,,,,,,,,,,,,,,,,,,,,,,,,,,,,,
,,69a1a730604a58240a529d37,2026-03-17_10h31.56.741,kallum_motion_pilot_GIST_update_2,2026.1.1,Win32,59.88023952,69a1a730604a58240a529d37,69b92ab4aef6dee357cd729a,69b92ae73146493b1a4792a9,0.0559,0.0559,1,78,240,120,1,fivesix,,,,,,,,,,,,,,,,,,,,,,,,,,,,,,,,,,,,,,,,,,,,,,,,,,,,,,,,,,,,,,,,,,,,,,,,,,,,,,,,,,,,,,,,,,,,,,,,,,,,,,,,,,,,,,,,,,,,,,,,,,,,,,,,,,,,,,,,,
,,69a1a730604a58240a529d37,2026-03-17_10h31.56.741,kallum_motion_pilot_GIST_update_2,2026.1.1,Win32,59.88023952,69a1a730604a58240a529d37,69b92ab4aef6dee357cd729a,69b92ae73146493b1a4792a9,0.056,0.056,1,79,241,137,1,fiveseven,,,,,,,,,,,,,,,,,,,,,,,,,,,,,,,,,,,,,,,,,,,,,,,,,,,,,,,,,,,,,,,,,,,,,,,,,,,,,,,,,,,,,,,,,,,,,,,,,,,,,,,,,,,,,,,,,,,,,,,,,,,,,,,,,,,,,,,,,
,,69a1a730604a58240a529d37,2026-03-17_10h31.56.741,kallum_motion_pilot_GIST_update_2,2026.1.1,Win32,59.88023952,69a1a730604a58240a529d37,69b92ab4aef6dee357cd729a,69b92ae73146493b1a4792a9,0.0561,0.0561,1,80,242,41,1,onethree,,,,,,,,,,,,,,,,,,,,,,,,,,,,,,,,,,,,,,,,,,,,,,,,,,,,,,,,,,,,,,,,,,,,,,,,,,,,,,,,,,,,,,,,,,,,,,,,,,,,,,,,,,,,,,,,,,,,,,,,,,,,,,,,,,,,,,,,,
,,69a1a730604a58240a529d37,2026-03-17_10h31.56.741,kallum_motion_pilot_GIST_update_2,2026.1.1,Win32,59.88023952,69a1a730604a58240a529d37,69b92ab4aef6dee357cd729a,69b92ae73146493b1a4792a9,0.0561,0.0561,1,81,243,64,1,onetwo,,,,,,,,,,,,,,,,,,,,,,,,,,,,,,,,,,,,,,,,,,,,,,,,,,,,,,,,,,,,,,,,,,,,,,,,,,,,,,,,,,,,,,,,,,,,,,,,,,,,,,,,,,,,,,,,,,,,,,,,,,,,,,,,,,,,,,,,,
,,69a1a730604a58240a529d37,2026-03-17_10h31.56.741,kallum_motion_pilot_GIST_update_2,2026.1.1,Win32,59.88023952,69a1a730604a58240a529d37,69b92ab4aef6dee357cd729a,69b92ae73146493b1a4792a9,0.0563,0.0563,1,82,244,158,1,eightsix,,,,,,,,,,,,,,,,,,,,,,,,,,,,,,,,,,,,,,,,,,,,,,,,,,,,,,,,,,,,,,,,,,,,,,,,,,,,,,,,,,,,,,,,,,,,,,,,,,,,,,,,,,,,,,,,,,,,,,,,,,,,,,,,,,,,,,,,,
,,69a1a730604a58240a529d37,2026-03-17_10h31.56.741,kallum_motion_pilot_GIST_update_2,2026.1.1,Win32,59.88023952,69a1a730604a58240a529d37,69b92ab4aef6dee357cd729a,69b92ae73146493b1a4792a9,0.0564,0.0564,1,83,245,90,1,sixfive,,,,,,,,,,,,,,,,,,,,,,,,,,,,,,,,,,,,,,,,,,,,,,,,,,,,,,,,,,,,,,,,,,,,,,,,,,,,,,,,,,,,,,,,,,,,,,,,,,,,,,,,,,,,,,,,,,,,,,,,,,,,,,,,,,,,,,,,,
,,69a1a730604a58240a529d37,2026-03-17_10h31.56.741,kallum_motion_pilot_GIST_update_2,2026.1.1,Win32,59.88023952,69a1a730604a58240a529d37,69b92ab4aef6dee357cd729a,69b92ae73146493b1a4792a9,0.0565,0.0565,1,84,246,150,1,eightsix,,,,,,,,,,,,,,,,,,,,,,,,,,,,,,,,,,,,,,,,,,,,,,,,,,,,,,,,,,,,,,,,,,,,,,,,,,,,,,,,,,,,,,,,,,,,,,,,,,,,,,,,,,,,,,,,,,,,,,,,,,,,,,,,,,,,,,,,,
,,69a1a730604a58240a529d37,2026-03-17_10h31.56.741,kallum_motion_pilot_GIST_update_2,2026.1.1,Win32,59.88023952,69a1a730604a58240a529d37,69b92ab4aef6dee357cd729a,69b92ae73146493b1a4792a9,0.0566,0.0566,1,85,247,48,1,onetwo,,,,,,,,,,,,,,,,,,,,,,,,,,,,,,,,,,,,,,,,,,,,,,,,,,,,,,,,,,,,,,,,,,,,,,,,,,,,,,,,,,,,,,,,,,,,,,,,,,,,,,,,,,,,,,,,,,,,,,,,,,,,,,,,,,,,,,,,,
,,69a1a730604a58240a529d37,2026-03-17_10h31.56.741,kallum_motion_pilot_GIST_update_2,2026.1.1,Win32,59.88023952,69a1a730604a58240a529d37,69b92ab4aef6dee357cd729a,69b92ae73146493b1a4792a9,0.0567,0.0567,1,86,248,44,1,threeone,,,,,,,,,,,,,,,,,,,,,,,,,,,,,,,,,,,,,,,,,,,,,,,,,,,,,,,,,,,,,,,,,,,,,,,,,,,,,,,,,,,,,,,,,,,,,,,,,,,,,,,,,,,,,,,,,,,,,,,,,,,,,,,,,,,,,,,,,
,,69a1a730604a58240a529d37,2026-03-17_10h31.56.741,kallum_motion_pilot_GIST_update_2,2026.1.1,Win32,59.88023952,69a1a730604a58240a529d37,69b92ab4aef6dee357cd729a,69b92ae73146493b1a4792a9,0.0569,0.0569,1,87,249,102,1,eightsix,,,,,,,,,,,,,,,,,,,,,,,,,,,,,,,,,,,,,,,,,,,,,,,,,,,,,,,,,,,,,,,,,,,,,,,,,,,,,,,,,,,,,,,,,,,,,,,,,,,,,,,,,,,,,,,,,,,,,,,,,,,,,,,,,,,,,,,,,
,,69a1a730604a58240a529d37,2026-03-17_10h31.56.741,kallum_motion_pilot_GIST_update_2,2026.1.1,Win32,59.88023952,69a1a730604a58240a529d37,69b92ab4aef6dee357cd729a,69b92ae73146493b1a4792a9,0.057,0.057,1,88,250,19,1,twofour,,,,,,,,,,,,,,,,,,,,,,,,,,,,,,,,,,,,,,,,,,,,,,,,,,,,,,,,,,,,,,,,,,,,,,,,,,,,,,,,,,,,,,,,,,,,,,,,,,,,,,,,,,,,,,,,,,,,,,,,,,,,,,,,,,,,,,,,,
,,69a1a730604a58240a529d37,2026-03-17_10h31.56.741,kallum_motion_pilot_GIST_update_2,2026.1.1,Win32,59.88023952,69a1a730604a58240a529d37,69b92ab4aef6dee357cd729a,69b92ae73146493b1a4792a9,0.0571,0.0571,1,89,251,118,1,eightsix,,,,,,,,,,,,,,,,,,,,,,,,,,,,,,,,,,,,,,,,,,,,,,,,,,,,,,,,,,,,,,,,,,,,,,,,,,,,,,,,,,,,,,,,,,,,,,,,,,,,,,,,,,,,,,,,,,,,,,,,,,,,,,,,,,,,,,,,,
,,69a1a730604a58240a529d37,2026-03-17_10h31.56.741,kallum_motion_pilot_GIST_update_2,2026.1.1,Win32,59.88023952,69a1a730604a58240a529d37,69b92ab4aef6dee357cd729a,69b92ae73146493b1a4792a9,0.0572,0.0572,1,90,252,149,1,seveneight,,,,,,,,,,,,,,,,,,,,,,,,,,,,,,,,,,,,,,,,,,,,,,,,,,,,,,,,,,,,,,,,,,,,,,,,,,,,,,,,,,,,,,,,,,,,,,,,,,,,,,,,,,,,,,,,,,,,,,,,,,,,,,,,,,,,,,,,,
,,69a1a730604a58240a529d37,2026-03-17_10h31.56.741,kallum_motion_pilot_GIST_update_2,2026.1.1,Win32,59.88023952,69a1a730604a58240a529d37,69b92ab4aef6dee357cd729a,69b92ae73146493b1a4792a9,0.0573,0.0573,1,91,253,25,1,onethree,,,,,,,,,,,,,,,,,,,,,,,,,,,,,,,,,,,,,,,,,,,,,,,,,,,,,,,,,,,,,,,,,,,,,,,,,,,,,,,,,,,,,,,,,,,,,,,,,,,,,,,,,,,,,,,,,,,,,,,,,,,,,,,,,,,,,,,,,
,,69a1a730604a58240a529d37,2026-03-17_10h31.56.741,kallum_motion_pilot_GIST_update_2,2026.1.1,Win32,59.88023952,69a1a730604a58240a529d37,69b92ab4aef6dee357cd729a,69b92ae73146493b1a4792a9,0.0574,0.0574,1,92,254,16,1,onetwo,,,,,,,,,,,,,,,,,,,,,,,,,,,,,,,,,,,,,,,,,,,,,,,,,,,,,,,,,,,,,,,,,,,,,,,,,,,,,,,,,,,,,,,,,,,,,,,,,,,,,,,,,,,,,,,,,,,,,,,,,,,,,,,,,,,,,,,,,
,,69a1a730604a58240a529d37,2026-03-17_10h31.56.741,kallum_motion_pilot_GIST_update_2,2026.1.1,Win32,59.88023952,69a1a730604a58240a529d37,69b92ab4aef6dee357cd729a,69b92ae73146493b1a4792a9,0.0577,0.0577,1,93,255,91,1,sixeight,,,,,,,,,,,,,,,,,,,,,,,,,,,,,,,,,,,,,,,,,,,,,,,,,,,,,,,,,,,,,,,,,,,,,,,,,,,,,,,,,,,,,,,,,,,,,,,,,,,,,,,,,,,,,,,,,,,,,,,,,,,,,,,,,,,,,,,,,
,,69a1a730604a58240a529d37,2026-03-17_10h31.56.741,kallum_motion_pilot_GIST_update_2,2026.1.1,Win32,59.88023952,69a1a730604a58240a529d37,69b92ab4aef6dee357cd729a,69b92ae73146493b1a4792a9,0.0578,0.0578,1,94,256,37,1,threefour,,,,,,,,,,,,,,,,,,,,,,,,,,,,,,,,,,,,,,,,,,,,,,,,,,,,,,,,,,,,,,,,,,,,,,,,,,,,,,,,,,,,,,,,,,,,,,,,,,,,,,,,,,,,,,,,,,,,,,,,,,,,,,,,,,,,,,,,,
,,69a1a730604a58240a529d37,2026-03-17_10h31.56.741,kallum_motion_pilot_GIST_update_2,2026.1.1,Win32,59.88023952,69a1a730604a58240a529d37,69b92ab4aef6dee357cd729a,69b92ae73146493b1a4792a9,0.0579,0.0579,1,95,257,84,1,sevenfive,,,,,,,,,,,,,,,,,,,,,,,,,,,,,,,,,,,,,,,,,,,,,,,,,,,,,,,,,,,,,,,,,,,,,,,,,,,,,,,,,,,,,,,,,,,,,,,,,,,,,,,,,,,,,,,,,,,,,,,,,,,,,,,,,,,,,,,,,
,,69a1a730604a58240a529d37,2026-03-17_10h31.56.741,kallum_motion_pilot_GIST_update_2,2026.1.1,Win32,59.88023952,69a1a730604a58240a529d37,69b92ab4aef6dee357cd729a,69b92ae73146493b1a4792a9,0.0581,0.0581,1,96,258,52,1,threeone,,,,,,,,,,,,,,,,,,,,,,,,,,,,,,,,,,,,,,,,,,,,,,,,,,,,,,,,,,,,,,,,,,,,,,,,,,,,,,,,,,,,,,,,,,,,,,,,,,,,,,,,,,,,,,,,,,,,,,,,,,,,,,,,,,,,,,,,,
,,69a1a730604a58240a529d37,2026-03-17_10h31.56.741,kallum_motion_pilot_GIST_update_2,2026.1.1,Win32,59.88023952,69a1a730604a58240a529d37,69b92ab4aef6dee357cd729a,69b92ae73146493b1a4792a9,0.0581,0.0581,1,97,259,145,1,fiveseven,,,,,,,,,,,,,,,,,,,,,,,,,,,,,,,,,,,,,,,,,,,,,,,,,,,,,,,,,,,,,,,,,,,,,,,,,,,,,,,,,,,,,,,,,,,,,,,,,,,,,,,,,,,,,,,,,,,,,,,,,,,,,,,,,,,,,,,,,
,,69a1a730604a58240a529d37,2026-03-17_10h31.56.741,kallum_motion_pilot_GIST_update_2,2026.1.1,Win32,59.88023952,69a1a730604a58240a529d37,69b92ab4aef6dee357cd729a,69b92ae73146493b1a4792a9,0.0583,0.0583,1,98,260,76,1,threeone,,,,,,,,,,,,,,,,,,,,,,,,,,,,,,,,,,,,,,,,,,,,,,,,,,,,,,,,,,,,,,,,,,,,,,,,,,,,,,,,,,,,,,,,,,,,,,,,,,,,,,,,,,,,,,,,,,,,,,,,,,,,,,,,,,,,,,,,,
,,69a1a730604a58240a529d37,2026-03-17_10h31.56.741,kallum_motion_pilot_GIST_update_2,2026.1.1,Win32,59.88023952,69a1a730604a58240a529d37,69b92ab4aef6dee357cd729a,69b92ae73146493b1a4792a9,0.0584,0.0584,1,99,261,55,1,fourthree,,,,,,,,,,,,,,,,,,,,,,,,,,,,,,,,,,,,,,,,,,,,,,,,,,,,,,,,,,,,,,,,,,,,,,,,,,,,,,,,,,,,,,,,,,,,,,,,,,,,,,,,,,,,,,,,,,,,,,,,,,,,,,,,,,,,,,,,,
,,69a1a730604a58240a529d37,2026-03-17_10h31.56.741,kallum_motion_pilot_GIST_update_2,2026.1.1,Win32,59.88023952,69a1a730604a58240a529d37,69b92ab4aef6dee357cd729a,69b92ae73146493b1a4792a9,0.0586,0.0586,1,100,262,117,1,seveneight,,,,,,,,,,,,,,,,,,,,,,,,,,,,,,,,,,,,,,,,,,,,,,,,,,,,,,,,,,,,,,,,,,,,,,,,,,,,,,,,,,,,,,,,,,,,,,,,,,,,,,,,,,,,,,,,,,,,,,,,,,,,,,,,,,,,,,,,,
,,69a1a730604a58240a529d37,2026-03-17_10h31.56.741,kallum_motion_pilot_GIST_update_2,2026.1.1,Win32,59.88023952,69a1a730604a58240a529d37,69b92ab4aef6dee357cd729a,69b92ae73146493b1a4792a9,0.0587,0.0587,1,101,263,148,1,sevenfive,,,,,,,,,,,,,,,,,,,,,,,,,,,,,,,,,,,,,,,,,,,,,,,,,,,,,,,,,,,,,,,,,,,,,,,,,,,,,,,,,,,,,,,,,,,,,,,,,,,,,,,,,,,,,,,,,,,,,,,,,,,,,,,,,,,,,,,,,
,,69a1a730604a58240a529d37,2026-03-17_10h31.56.741,kallum_motion_pilot_GIST_update_2,2026.1.1,Win32,59.88023952,69a1a730604a58240a529d37,69b92ab4aef6dee357cd729a,69b92ae73146493b1a4792a9,0.0589,0.0589,1,102,264,151,1,eightseven,,,,,,,,,,,,,,,,,,,,,,,,,,,,,,,,,,,,,,,,,,,,,,,,,,,,,,,,,,,,,,,,,,,,,,,,,,,,,,,,,,,,,,,,,,,,,,,,,,,,,,,,,,,,,,,,,,,,,,,,,,,,,,,,,,,,,,,,,
,,69a1a730604a58240a529d37,2026-03-17_10h31.56.741,kallum_motion_pilot_GIST_update_2,2026.1.1,Win32,59.88023952,69a1a730604a58240a529d37,69b92ab4aef6dee357cd729a,69b92ae73146493b1a4792a9,0.059,0.059,1,103,265,49,1,onethree,,,,,,,,,,,,,,,,,,,,,,,,,,,,,,,,,,,,,,,,,,,,,,,,,,,,,,,,,,,,,,,,,,,,,,,,,,,,,,,,,,,,,,,,,,,,,,,,,,,,,,,,,,,,,,,,,,,,,,,,,,,,,,,,,,,,,,,,,
,,69a1a730604a58240a529d37,2026-03-17_10h31.56.741,kallum_motion_pilot_GIST_update_2,2026.1.1,Win32,59.88023952,69a1a730604a58240a529d37,69b92ab4aef6dee357cd729a,69b92ae73146493b1a4792a9,0.0591,0.0591,1,104,266,109,1,seveneight,,,,,,,,,,,,,,,,,,,,,,,,,,,,,,,,,,,,,,,,,,,,,,,,,,,,,,,,,,,,,,,,,,,,,,,,,,,,,,,,,,,,,,,,,,,,,,,,,,,,,,,,,,,,,,,,,,,,,,,,,,,,,,,,,,,,,,,,,
