startup.started,startup.stopped,Prolific ID*,date,expName,psychopyVersion,OS,frameRate,participant,study_id,session,stimpositions.started,stimpositions.stopped,hardcoded_stimulus_positions.thisRepN,hardcoded_stimulus_positions.thisTrialN,hardcoded_stimulus_positions.thisN,hardcoded_stimulus_positions.thisIndex,hardcoded_stimulus_positions.ran,StimulusPos,stimorientation.started,stimorientation.stopped,prac_stimorientation_import_loop.thisRepN,prac_stimorientation_import_loop.thisTrialN,prac_stimorientation_import_loop.thisN,prac_stimorientation_import_loop.thisIndex,prac_stimorientation_import_loop.ran,Stimorientation,welcome_instr.started,welcome_instr.stopped,key_resp.keys,key_resp.rt,key_resp.duration,response_steppedout_1.started,response_steppedout_1.stopped,key_resp_20.keys,key_resp_20.rt,key_resp_20.duration,response_steppedout_2.started,response_steppedout_2.stopped,key_resp_19.keys,key_resp_19.rt,key_resp_19.duration,stim_response_instr.started,stim_response_instr.stopped,key_resp_15.keys,key_resp_15.rt,key_resp_15.duration,direction_instr_2.started,direction_instr_2.stopped,key_resp_9.keys,key_resp_9.rt,key_resp_9.duration,instr_prac.started,instr_prac.stopped,key_resp_10.keys,key_resp_10.rt,key_resp_10.duration,Stim1_display_prac.started,Stim1_display_prac.stopped,Ecc,Circle1_ori,Circle2_ori,response_prac.started,similarity,response_time,response_prac.stopped,mouse_5.x,mouse_5.y,mouse_5.leftButton,mouse_5.midButton,mouse_5.rightButton,mouse_5.clicked_name,responseprac_feedback.started,responseprac_feedback.stopped,summary2_prac.started,summary2_prac.stopped,mouse_6.x,mouse_6.y,mouse_6.leftButton,mouse_6.midButton,mouse_6.rightButton,mouse_6.clicked_name,duringprac.thisRepN,duringprac.thisTrialN,duringprac.thisN,duringprac.thisIndex,duringprac.ran,begin.started,begin.stopped,key_resp_22.keys,key_resp_22.rt,key_resp_22.duration,Stim1_display.started,Stim1_display.stopped,circle1_ori,circle2_ori,circle1_SF,circle2_SF,response.started,response.stopped,mouse.x,mouse.y,mouse.leftButton,mouse.midButton,mouse.rightButton,mouse.clicked_name,trialnumber,double_pass.thisRepN,double_pass.thisTrialN,double_pass.thisN,double_pass.thisIndex,double_pass.ran,double_pass.order,main_trial.thisRepN,main_trial.thisTrialN,main_trial.thisN,main_trial.thisIndex,main_trial.ran,main_trial.order,Trial_Counter,Catch,Frequencies,response_2.started,response_2.stopped,mouse_2.x,mouse_2.y,mouse_2.leftButton,mouse_2.midButton,mouse_2.rightButton,mouse_2.clicked_name,special_trial.started,special_trial.stopped,catch_1.started,catch_1.stopped,mouse_3.x,mouse_3.y,mouse_3.leftButton,mouse_3.midButton,mouse_3.rightButton,catchresponse,catchnumber,response_time_catch,response_sum.started,response_sum.stopped,mouse_11.x,mouse_11.y,mouse_11.leftButton,mouse_11.midButton,mouse_11.rightButton,flip_presentation_sequence_for_double_pass.started,flip_presentation_sequence_for_double_pass.stopped,goodbye.started,goodbye.stopped,key_resp_3.keys,key_resp_3.rt,key_resp_3.duration
0.0002,0.0003,69a5f3c806b4fe129f9de2d9,2026-03-17_12h23.18.846,kallum_motion_pilot_GIST_update_2,2026.1.1,MacIntel,62.11180124,69a5f3c806b4fe129f9de2d9,69b92ab4aef6dee357cd729a,69b92afe72826cb87b31e95f,,,,,,,,,,,,,,,,,,,,,,,,,,,,,,,,,,,,,,,,,,,,,,,,,,,,,,,,,,,,,,,,,,,,,,,,,,,,,,,,,,,,,,,,,,,,,,,,,,,,,,,,,,,,,,,,,,,,,,,,,,,,,,,,,,,,,,,,,,,,,,,,,
,,69a5f3c806b4fe129f9de2d9,2026-03-17_12h23.18.846,kallum_motion_pilot_GIST_update_2,2026.1.1,MacIntel,62.11180124,69a5f3c806b4fe129f9de2d9,69b92ab4aef6dee357cd729a,69b92afe72826cb87b31e95f,0.0139,0.014,0,0,0,90,1,sixfive,,,,,,,,,,,,,,,,,,,,,,,,,,,,,,,,,,,,,,,,,,,,,,,,,,,,,,,,,,,,,,,,,,,,,,,,,,,,,,,,,,,,,,,,,,,,,,,,,,,,,,,,,,,,,,,,,,,,,,,,,,,,,,,,,,,,,,,,,
,,69a5f3c806b4fe129f9de2d9,2026-03-17_12h23.18.846,kallum_motion_pilot_GIST_update_2,2026.1.1,MacIntel,62.11180124,69a5f3c806b4fe129f9de2d9,69b92ab4aef6dee357cd729a,69b92afe72826cb87b31e95f,0.0142,0.0142,0,1,1,81,1,fiveseven,,,,,,,,,,,,,,,,,,,,,,,,,,,,,,,,,,,,,,,,,,,,,,,,,,,,,,,,,,,,,,,,,,,,,,,,,,,,,,,,,,,,,,,,,,,,,,,,,,,,,,,,,,,,,,,,,,,,,,,,,,,,,,,,,,,,,,,,,
,,69a5f3c806b4fe129f9de2d9,2026-03-17_12h23.18.846,kallum_motion_pilot_GIST_update_2,2026.1.1,MacIntel,62.11180124,69a5f3c806b4fe129f9de2d9,69b92ab4aef6dee357cd729a,69b92afe72826cb87b31e95f,0.0143,0.0143,0,2,2,128,1,fivesix,,,,,,,,,,,,,,,,,,,,,,,,,,,,,,,,,,,,,,,,,,,,,,,,,,,,,,,,,,,,,,,,,,,,,,,,,,,,,,,,,,,,,,,,,,,,,,,,,,,,,,,,,,,,,,,,,,,,,,,,,,,,,,,,,,,,,,,,,
,,69a5f3c806b4fe129f9de2d9,2026-03-17_12h23.18.846,kallum_motion_pilot_GIST_update_2,2026.1.1,MacIntel,62.11180124,69a5f3c806b4fe129f9de2d9,69b92ab4aef6dee357cd729a,69b92afe72826cb87b31e95f,0.0144,0.0144,0,3,3,16,1,onetwo,,,,,,,,,,,,,,,,,,,,,,,,,,,,,,,,,,,,,,,,,,,,,,,,,,,,,,,,,,,,,,,,,,,,,,,,,,,,,,,,,,,,,,,,,,,,,,,,,,,,,,,,,,,,,,,,,,,,,,,,,,,,,,,,,,,,,,,,,
,,69a5f3c806b4fe129f9de2d9,2026-03-17_12h23.18.846,kallum_motion_pilot_GIST_update_2,2026.1.1,MacIntel,62.11180124,69a5f3c806b4fe129f9de2d9,69b92ab4aef6dee357cd729a,69b92afe72826cb87b31e95f,0.0145,0.0145,0,4,4,154,1,sixfive,,,,,,,,,,,,,,,,,,,,,,,,,,,,,,,,,,,,,,,,,,,,,,,,,,,,,,,,,,,,,,,,,,,,,,,,,,,,,,,,,,,,,,,,,,,,,,,,,,,,,,,,,,,,,,,,,,,,,,,,,,,,,,,,,,,,,,,,,
,,69a5f3c806b4fe129f9de2d9,2026-03-17_12h23.18.846,kallum_motion_pilot_GIST_update_2,2026.1.1,MacIntel,62.11180124,69a5f3c806b4fe129f9de2d9,69b92ab4aef6dee357cd729a,69b92afe72826cb87b31e95f,0.0146,0.0147,0,5,5,99,1,sixeight,,,,,,,,,,,,,,,,,,,,,,,,,,,,,,,,,,,,,,,,,,,,,,,,,,,,,,,,,,,,,,,,,,,,,,,,,,,,,,,,,,,,,,,,,,,,,,,,,,,,,,,,,,,,,,,,,,,,,,,,,,,,,,,,,,,,,,,,,
,,69a5f3c806b4fe129f9de2d9,2026-03-17_12h23.18.846,kallum_motion_pilot_GIST_update_2,2026.1.1,MacIntel,62.11180124,69a5f3c806b4fe129f9de2d9,69b92ab4aef6dee357cd729a,69b92afe72826cb87b31e95f,0.0147,0.0147,0,6,6,118,1,eightsix,,,,,,,,,,,,,,,,,,,,,,,,,,,,,,,,,,,,,,,,,,,,,,,,,,,,,,,,,,,,,,,,,,,,,,,,,,,,,,,,,,,,,,,,,,,,,,,,,,,,,,,,,,,,,,,,,,,,,,,,,,,,,,,,,,,,,,,,,
,,69a5f3c806b4fe129f9de2d9,2026-03-17_12h23.18.846,kallum_motion_pilot_GIST_update_2,2026.1.1,MacIntel,62.11180124,69a5f3c806b4fe129f9de2d9,69b92ab4aef6dee357cd729a,69b92afe72826cb87b31e95f,0.0148,0.0148,0,7,7,127,1,eightseven,,,,,,,,,,,,,,,,,,,,,,,,,,,,,,,,,,,,,,,,,,,,,,,,,,,,,,,,,,,,,,,,,,,,,,,,,,,,,,,,,,,,,,,,,,,,,,,,,,,,,,,,,,,,,,,,,,,,,,,,,,,,,,,,,,,,,,,,,
,,69a5f3c806b4fe129f9de2d9,2026-03-17_12h23.18.846,kallum_motion_pilot_GIST_update_2,2026.1.1,MacIntel,62.11180124,69a5f3c806b4fe129f9de2d9,69b92ab4aef6dee357cd729a,69b92afe72826cb87b31e95f,0.015,0.015,0,8,8,3,1,twofour,,,,,,,,,,,,,,,,,,,,,,,,,,,,,,,,,,,,,,,,,,,,,,,,,,,,,,,,,,,,,,,,,,,,,,,,,,,,,,,,,,,,,,,,,,,,,,,,,,,,,,,,,,,,,,,,,,,,,,,,,,,,,,,,,,,,,,,,,
,,69a5f3c806b4fe129f9de2d9,2026-03-17_12h23.18.846,kallum_motion_pilot_GIST_update_2,2026.1.1,MacIntel,62.11180124,69a5f3c806b4fe129f9de2d9,69b92ab4aef6dee357cd729a,69b92afe72826cb87b31e95f,0.0151,0.0151,0,9,9,147,1,sixeight,,,,,,,,,,,,,,,,,,,,,,,,,,,,,,,,,,,,,,,,,,,,,,,,,,,,,,,,,,,,,,,,,,,,,,,,,,,,,,,,,,,,,,,,,,,,,,,,,,,,,,,,,,,,,,,,,,,,,,,,,,,,,,,,,,,,,,,,,
,,69a5f3c806b4fe129f9de2d9,2026-03-17_12h23.18.846,kallum_motion_pilot_GIST_update_2,2026.1.1,MacIntel,62.11180124,69a5f3c806b4fe129f9de2d9,69b92ab4aef6dee357cd729a,69b92afe72826cb87b31e95f,0.0151,0.0152,0,10,10,71,1,fourthree,,,,,,,,,,,,,,,,,,,,,,,,,,,,,,,,,,,,,,,,,,,,,,,,,,,,,,,,,,,,,,,,,,,,,,,,,,,,,,,,,,,,,,,,,,,,,,,,,,,,,,,,,,,,,,,,,,,,,,,,,,,,,,,,,,,,,,,,,
,,69a5f3c806b4fe129f9de2d9,2026-03-17_12h23.18.846,kallum_motion_pilot_GIST_update_2,2026.1.1,MacIntel,62.11180124,69a5f3c806b4fe129f9de2d9,69b92ab4aef6dee357cd729a,69b92afe72826cb87b31e95f,0.0153,0.0153,0,11,11,105,1,fiveseven,,,,,,,,,,,,,,,,,,,,,,,,,,,,,,,,,,,,,,,,,,,,,,,,,,,,,,,,,,,,,,,,,,,,,,,,,,,,,,,,,,,,,,,,,,,,,,,,,,,,,,,,,,,,,,,,,,,,,,,,,,,,,,,,,,,,,,,,,
,,69a5f3c806b4fe129f9de2d9,2026-03-17_12h23.18.846,kallum_motion_pilot_GIST_update_2,2026.1.1,MacIntel,62.11180124,69a5f3c806b4fe129f9de2d9,69b92ab4aef6dee357cd729a,69b92afe72826cb87b31e95f,0.0153,0.0154,0,12,12,102,1,eightsix,,,,,,,,,,,,,,,,,,,,,,,,,,,,,,,,,,,,,,,,,,,,,,,,,,,,,,,,,,,,,,,,,,,,,,,,,,,,,,,,,,,,,,,,,,,,,,,,,,,,,,,,,,,,,,,,,,,,,,,,,,,,,,,,,,,,,,,,,
,,69a5f3c806b4fe129f9de2d9,2026-03-17_12h23.18.846,kallum_motion_pilot_GIST_update_2,2026.1.1,MacIntel,62.11180124,69a5f3c806b4fe129f9de2d9,69b92ab4aef6dee357cd729a,69b92afe72826cb87b31e95f,0.0155,0.0155,0,13,13,131,1,sixeight,,,,,,,,,,,,,,,,,,,,,,,,,,,,,,,,,,,,,,,,,,,,,,,,,,,,,,,,,,,,,,,,,,,,,,,,,,,,,,,,,,,,,,,,,,,,,,,,,,,,,,,,,,,,,,,,,,,,,,,,,,,,,,,,,,,,,,,,,
,,69a5f3c806b4fe129f9de2d9,2026-03-17_12h23.18.846,kallum_motion_pilot_GIST_update_2,2026.1.1,MacIntel,62.11180124,69a5f3c806b4fe129f9de2d9,69b92ab4aef6dee357cd729a,69b92afe72826cb87b31e95f,0.0156,0.0156,0,14,14,129,1,fiveseven,,,,,,,,,,,,,,,,,,,,,,,,,,,,,,,,,,,,,,,,,,,,,,,,,,,,,,,,,,,,,,,,,,,,,,,,,,,,,,,,,,,,,,,,,,,,,,,,,,,,,,,,,,,,,,,,,,,,,,,,,,,,,,,,,,,,,,,,,
,,69a5f3c806b4fe129f9de2d9,2026-03-17_12h23.18.846,kallum_motion_pilot_GIST_update_2,2026.1.1,MacIntel,62.11180124,69a5f3c806b4fe129f9de2d9,69b92ab4aef6dee357cd729a,69b92afe72826cb87b31e95f,0.0157,0.0157,0,15,15,49,1,onethree,,,,,,,,,,,,,,,,,,,,,,,,,,,,,,,,,,,,,,,,,,,,,,,,,,,,,,,,,,,,,,,,,,,,,,,,,,,,,,,,,,,,,,,,,,,,,,,,,,,,,,,,,,,,,,,,,,,,,,,,,,,,,,,,,,,,,,,,,
,,69a5f3c806b4fe129f9de2d9,2026-03-17_12h23.18.846,kallum_motion_pilot_GIST_update_2,2026.1.1,MacIntel,62.11180124,69a5f3c806b4fe129f9de2d9,69b92ab4aef6dee357cd729a,69b92afe72826cb87b31e95f,0.0158,0.0158,0,16,16,5,1,threefour,,,,,,,,,,,,,,,,,,,,,,,,,,,,,,,,,,,,,,,,,,,,,,,,,,,,,,,,,,,,,,,,,,,,,,,,,,,,,,,,,,,,,,,,,,,,,,,,,,,,,,,,,,,,,,,,,,,,,,,,,,,,,,,,,,,,,,,,,
,,69a5f3c806b4fe129f9de2d9,2026-03-17_12h23.18.846,kallum_motion_pilot_GIST_update_2,2026.1.1,MacIntel,62.11180124,69a5f3c806b4fe129f9de2d9,69b92ab4aef6dee357cd729a,69b92afe72826cb87b31e95f,0.0158,0.0158,0,17,17,157,1,seveneight,,,,,,,,,,,,,,,,,,,,,,,,,,,,,,,,,,,,,,,,,,,,,,,,,,,,,,,,,,,,,,,,,,,,,,,,,,,,,,,,,,,,,,,,,,,,,,,,,,,,,,,,,,,,,,,,,,,,,,,,,,,,,,,,,,,,,,,,,
,,69a5f3c806b4fe129f9de2d9,2026-03-17_12h23.18.846,kallum_motion_pilot_GIST_update_2,2026.1.1,MacIntel,62.11180124,69a5f3c806b4fe129f9de2d9,69b92ab4aef6dee357cd729a,69b92afe72826cb87b31e95f,0.0159,0.016,0,18,18,31,1,fourthree,,,,,,,,,,,,,,,,,,,,,,,,,,,,,,,,,,,,,,,,,,,,,,,,,,,,,,,,,,,,,,,,,,,,,,,,,,,,,,,,,,,,,,,,,,,,,,,,,,,,,,,,,,,,,,,,,,,,,,,,,,,,,,,,,,,,,,,,,
,,69a5f3c806b4fe129f9de2d9,2026-03-17_12h23.18.846,kallum_motion_pilot_GIST_update_2,2026.1.1,MacIntel,62.11180124,69a5f3c806b4fe129f9de2d9,69b92ab4aef6dee357cd729a,69b92afe72826cb87b31e95f,0.0161,0.0161,0,19,19,69,1,threefour,,,,,,,,,,,,,,,,,,,,,,,,,,,,,,,,,,,,,,,,,,,,,,,,,,,,,,,,,,,,,,,,,,,,,,,,,,,,,,,,,,,,,,,,,,,,,,,,,,,,,,,,,,,,,,,,,,,,,,,,,,,,,,,,,,,,,,,,,
,,69a5f3c806b4fe129f9de2d9,2026-03-17_12h23.18.846,kallum_motion_pilot_GIST_update_2,2026.1.1,MacIntel,62.11180124,69a5f3c806b4fe129f9de2d9,69b92ab4aef6dee357cd729a,69b92afe72826cb87b31e95f,0.0162,0.0162,0,20,20,107,1,sixeight,,,,,,,,,,,,,,,,,,,,,,,,,,,,,,,,,,,,,,,,,,,,,,,,,,,,,,,,,,,,,,,,,,,,,,,,,,,,,,,,,,,,,,,,,,,,,,,,,,,,,,,,,,,,,,,,,,,,,,,,,,,,,,,,,,,,,,,,,
,,69a5f3c806b4fe129f9de2d9,2026-03-17_12h23.18.846,kallum_motion_pilot_GIST_update_2,2026.1.1,MacIntel,62.11180124,69a5f3c806b4fe129f9de2d9,69b92ab4aef6dee357cd729a,69b92afe72826cb87b31e95f,0.0162,0.0163,0,21,21,95,1,eightseven,,,,,,,,,,,,,,,,,,,,,,,,,,,,,,,,,,,,,,,,,,,,,,,,,,,,,,,,,,,,,,,,,,,,,,,,,,,,,,,,,,,,,,,,,,,,,,,,,,,,,,,,,,,,,,,,,,,,,,,,,,,,,,,,,,,,,,,,,
,,69a5f3c806b4fe129f9de2d9,2026-03-17_12h23.18.846,kallum_motion_pilot_GIST_update_2,2026.1.1,MacIntel,62.11180124,69a5f3c806b4fe129f9de2d9,69b92ab4aef6dee357cd729a,69b92afe72826cb87b31e95f,0.0164,0.0164,0,22,22,130,1,sixfive,,,,,,,,,,,,,,,,,,,,,,,,,,,,,,,,,,,,,,,,,,,,,,,,,,,,,,,,,,,,,,,,,,,,,,,,,,,,,,,,,,,,,,,,,,,,,,,,,,,,,,,,,,,,,,,,,,,,,,,,,,,,,,,,,,,,,,,,,
,,69a5f3c806b4fe129f9de2d9,2026-03-17_12h23.18.846,kallum_motion_pilot_GIST_update_2,2026.1.1,MacIntel,62.11180124,69a5f3c806b4fe129f9de2d9,69b92ab4aef6dee357cd729a,69b92afe72826cb87b31e95f,0.0164,0.0164,0,23,23,101,1,seveneight,,,,,,,,,,,,,,,,,,,,,,,,,,,,,,,,,,,,,,,,,,,,,,,,,,,,,,,,,,,,,,,,,,,,,,,,,,,,,,,,,,,,,,,,,,,,,,,,,,,,,,,,,,,,,,,,,,,,,,,,,,,,,,,,,,,,,,,,,
,,69a5f3c806b4fe129f9de2d9,2026-03-17_12h23.18.846,kallum_motion_pilot_GIST_update_2,2026.1.1,MacIntel,62.11180124,69a5f3c806b4fe129f9de2d9,69b92ab4aef6dee357cd729a,69b92afe72826cb87b31e95f,0.0165,0.0165,0,24,24,7,1,fourthree,,,,,,,,,,,,,,,,,,,,,,,,,,,,,,,,,,,,,,,,,,,,,,,,,,,,,,,,,,,,,,,,,,,,,,,,,,,,,,,,,,,,,,,,,,,,,,,,,,,,,,,,,,,,,,,,,,,,,,,,,,,,,,,,,,,,,,,,,
,,69a5f3c806b4fe129f9de2d9,2026-03-17_12h23.18.846,kallum_motion_pilot_GIST_update_2,2026.1.1,MacIntel,62.11180124,69a5f3c806b4fe129f9de2d9,69b92ab4aef6dee357cd729a,69b92afe72826cb87b31e95f,0.0167,0.0167,0,25,25,60,1,threeone,,,,,,,,,,,,,,,,,,,,,,,,,,,,,,,,,,,,,,,,,,,,,,,,,,,,,,,,,,,,,,,,,,,,,,,,,,,,,,,,,,,,,,,,,,,,,,,,,,,,,,,,,,,,,,,,,,,,,,,,,,,,,,,,,,,,,,,,,
,,69a5f3c806b4fe129f9de2d9,2026-03-17_12h23.18.846,kallum_motion_pilot_GIST_update_2,2026.1.1,MacIntel,62.11180124,69a5f3c806b4fe129f9de2d9,69b92ab4aef6dee357cd729a,69b92afe72826cb87b31e95f,0.0167,0.0167,0,26,26,140,1,sevenfive,,,,,,,,,,,,,,,,,,,,,,,,,,,,,,,,,,,,,,,,,,,,,,,,,,,,,,,,,,,,,,,,,,,,,,,,,,,,,,,,,,,,,,,,,,,,,,,,,,,,,,,,,,,,,,,,,,,,,,,,,,,,,,,,,,,,,,,,,
,,69a5f3c806b4fe129f9de2d9,2026-03-17_12h23.18.846,kallum_motion_pilot_GIST_update_2,2026.1.1,MacIntel,62.11180124,69a5f3c806b4fe129f9de2d9,69b92ab4aef6dee357cd729a,69b92afe72826cb87b31e95f,0.0168,0.0168,0,27,27,55,1,fourthree,,,,,,,,,,,,,,,,,,,,,,,,,,,,,,,,,,,,,,,,,,,,,,,,,,,,,,,,,,,,,,,,,,,,,,,,,,,,,,,,,,,,,,,,,,,,,,,,,,,,,,,,,,,,,,,,,,,,,,,,,,,,,,,,,,,,,,,,,
,,69a5f3c806b4fe129f9de2d9,2026-03-17_12h23.18.846,kallum_motion_pilot_GIST_update_2,2026.1.1,MacIntel,62.11180124,69a5f3c806b4fe129f9de2d9,69b92ab4aef6dee357cd729a,69b92afe72826cb87b31e95f,0.0169,0.0169,0,28,28,13,1,threefour,,,,,,,,,,,,,,,,,,,,,,,,,,,,,,,,,,,,,,,,,,,,,,,,,,,,,,,,,,,,,,,,,,,,,,,,,,,,,,,,,,,,,,,,,,,,,,,,,,,,,,,,,,,,,,,,,,,,,,,,,,,,,,,,,,,,,,,,,
,,69a5f3c806b4fe129f9de2d9,2026-03-17_12h23.18.846,kallum_motion_pilot_GIST_update_2,2026.1.1,MacIntel,62.11180124,69a5f3c806b4fe129f9de2d9,69b92ab4aef6dee357cd729a,69b92afe72826cb87b31e95f,0.017,0.0171,0,29,29,153,1,fiveseven,,,,,,,,,,,,,,,,,,,,,,,,,,,,,,,,,,,,,,,,,,,,,,,,,,,,,,,,,,,,,,,,,,,,,,,,,,,,,,,,,,,,,,,,,,,,,,,,,,,,,,,,,,,,,,,,,,,,,,,,,,,,,,,,,,,,,,,,,
,,69a5f3c806b4fe129f9de2d9,2026-03-17_12h23.18.846,kallum_motion_pilot_GIST_update_2,2026.1.1,MacIntel,62.11180124,69a5f3c806b4fe129f9de2d9,69b92ab4aef6dee357cd729a,69b92afe72826cb87b31e95f,0.0171,0.0171,0,30,30,87,1,eightseven,,,,,,,,,,,,,,,,,,,,,,,,,,,,,,,,,,,,,,,,,,,,,,,,,,,,,,,,,,,,,,,,,,,,,,,,,,,,,,,,,,,,,,,,,,,,,,,,,,,,,,,,,,,,,,,,,,,,,,,,,,,,,,,,,,,,,,,,,
,,69a5f3c806b4fe129f9de2d9,2026-03-17_12h23.18.846,kallum_motion_pilot_GIST_update_2,2026.1.1,MacIntel,62.11180124,69a5f3c806b4fe129f9de2d9,69b92ab4aef6dee357cd729a,69b92afe72826cb87b31e95f,0.0172,0.0172,0,31,31,92,1,sevenfive,,,,,,,,,,,,,,,,,,,,,,,,,,,,,,,,,,,,,,,,,,,,,,,,,,,,,,,,,,,,,,,,,,,,,,,,,,,,,,,,,,,,,,,,,,,,,,,,,,,,,,,,,,,,,,,,,,,,,,,,,,,,,,,,,,,,,,,,,
,,69a5f3c806b4fe129f9de2d9,2026-03-17_12h23.18.846,kallum_motion_pilot_GIST_update_2,2026.1.1,MacIntel,62.11180124,69a5f3c806b4fe129f9de2d9,69b92ab4aef6dee357cd729a,69b92afe72826cb87b31e95f,0.0173,0.0173,0,32,32,141,1,seveneight,,,,,,,,,,,,,,,,,,,,,,,,,,,,,,,,,,,,,,,,,,,,,,,,,,,,,,,,,,,,,,,,,,,,,,,,,,,,,,,,,,,,,,,,,,,,,,,,,,,,,,,,,,,,,,,,,,,,,,,,,,,,,,,,,,,,,,,,,
,,69a5f3c806b4fe129f9de2d9,2026-03-17_12h23.18.846,kallum_motion_pilot_GIST_update_2,2026.1.1,MacIntel,62.11180124,69a5f3c806b4fe129f9de2d9,69b92ab4aef6dee357cd729a,69b92afe72826cb87b31e95f,0.0174,0.0174,0,33,33,103,1,eightseven,,,,,,,,,,,,,,,,,,,,,,,,,,,,,,,,,,,,,,,,,,,,,,,,,,,,,,,,,,,,,,,,,,,,,,,,,,,,,,,,,,,,,,,,,,,,,,,,,,,,,,,,,,,,,,,,,,,,,,,,,,,,,,,,,,,,,,,,,
,,69a5f3c806b4fe129f9de2d9,2026-03-17_12h23.18.846,kallum_motion_pilot_GIST_update_2,2026.1.1,MacIntel,62.11180124,69a5f3c806b4fe129f9de2d9,69b92ab4aef6dee357cd729a,69b92afe72826cb87b31e95f,0.0175,0.0175,0,34,34,138,1,sixfive,,,,,,,,,,,,,,,,,,,,,,,,,,,,,,,,,,,,,,,,,,,,,,,,,,,,,,,,,,,,,,,,,,,,,,,,,,,,,,,,,,,,,,,,,,,,,,,,,,,,,,,,,,,,,,,,,,,,,,,,,,,,,,,,,,,,,,,,,
,,69a5f3c806b4fe129f9de2d9,2026-03-17_12h23.18.846,kallum_motion_pilot_GIST_update_2,2026.1.1,MacIntel,62.11180124,69a5f3c806b4fe129f9de2d9,69b92ab4aef6dee357cd729a,69b92afe72826cb87b31e95f,0.0176,0.0177,0,35,35,68,1,threeone,,,,,,,,,,,,,,,,,,,,,,,,,,,,,,,,,,,,,,,,,,,,,,,,,,,,,,,,,,,,,,,,,,,,,,,,,,,,,,,,,,,,,,,,,,,,,,,,,,,,,,,,,,,,,,,,,,,,,,,,,,,,,,,,,,,,,,,,,
,,69a5f3c806b4fe129f9de2d9,2026-03-17_12h23.18.846,kallum_motion_pilot_GIST_update_2,2026.1.1,MacIntel,62.11180124,69a5f3c806b4fe129f9de2d9,69b92ab4aef6dee357cd729a,69b92afe72826cb87b31e95f,0.0177,0.0177,0,36,36,2,1,twoone,,,,,,,,,,,,,,,,,,,,,,,,,,,,,,,,,,,,,,,,,,,,,,,,,,,,,,,,,,,,,,,,,,,,,,,,,,,,,,,,,,,,,,,,,,,,,,,,,,,,,,,,,,,,,,,,,,,,,,,,,,,,,,,,,,,,,,,,,
,,69a5f3c806b4fe129f9de2d9,2026-03-17_12h23.18.846,kallum_motion_pilot_GIST_update_2,2026.1.1,MacIntel,62.11180124,69a5f3c806b4fe129f9de2d9,69b92ab4aef6dee357cd729a,69b92afe72826cb87b31e95f,0.0177,0.0179,0,37,37,84,1,sevenfive,,,,,,,,,,,,,,,,,,,,,,,,,,,,,,,,,,,,,,,,,,,,,,,,,,,,,,,,,,,,,,,,,,,,,,,,,,,,,,,,,,,,,,,,,,,,,,,,,,,,,,,,,,,,,,,,,,,,,,,,,,,,,,,,,,,,,,,,,
,,69a5f3c806b4fe129f9de2d9,2026-03-17_12h23.18.846,kallum_motion_pilot_GIST_update_2,2026.1.1,MacIntel,62.11180124,69a5f3c806b4fe129f9de2d9,69b92ab4aef6dee357cd729a,69b92afe72826cb87b31e95f,0.0179,0.0179,0,38,38,12,1,threeone,,,,,,,,,,,,,,,,,,,,,,,,,,,,,,,,,,,,,,,,,,,,,,,,,,,,,,,,,,,,,,,,,,,,,,,,,,,,,,,,,,,,,,,,,,,,,,,,,,,,,,,,,,,,,,,,,,,,,,,,,,,,,,,,,,,,,,,,,
,,69a5f3c806b4fe129f9de2d9,2026-03-17_12h23.18.846,kallum_motion_pilot_GIST_update_2,2026.1.1,MacIntel,62.11180124,69a5f3c806b4fe129f9de2d9,69b92ab4aef6dee357cd729a,69b92afe72826cb87b31e95f,0.018,0.018,0,39,39,120,1,fivesix,,,,,,,,,,,,,,,,,,,,,,,,,,,,,,,,,,,,,,,,,,,,,,,,,,,,,,,,,,,,,,,,,,,,,,,,,,,,,,,,,,,,,,,,,,,,,,,,,,,,,,,,,,,,,,,,,,,,,,,,,,,,,,,,,,,,,,,,,
,,69a5f3c806b4fe129f9de2d9,2026-03-17_12h23.18.846,kallum_motion_pilot_GIST_update_2,2026.1.1,MacIntel,62.11180124,69a5f3c806b4fe129f9de2d9,69b92ab4aef6dee357cd729a,69b92afe72826cb87b31e95f,0.0181,0.0181,0,40,40,20,1,threeone,,,,,,,,,,,,,,,,,,,,,,,,,,,,,,,,,,,,,,,,,,,,,,,,,,,,,,,,,,,,,,,,,,,,,,,,,,,,,,,,,,,,,,,,,,,,,,,,,,,,,,,,,,,,,,,,,,,,,,,,,,,,,,,,,,,,,,,,,
,,69a5f3c806b4fe129f9de2d9,2026-03-17_12h23.18.846,kallum_motion_pilot_GIST_update_2,2026.1.1,MacIntel,62.11180124,69a5f3c806b4fe129f9de2d9,69b92ab4aef6dee357cd729a,69b92afe72826cb87b31e95f,0.0182,0.0182,0,41,41,106,1,sixfive,,,,,,,,,,,,,,,,,,,,,,,,,,,,,,,,,,,,,,,,,,,,,,,,,,,,,,,,,,,,,,,,,,,,,,,,,,,,,,,,,,,,,,,,,,,,,,,,,,,,,,,,,,,,,,,,,,,,,,,,,,,,,,,,,,,,,,,,,
,,69a5f3c806b4fe129f9de2d9,2026-03-17_12h23.18.846,kallum_motion_pilot_GIST_update_2,2026.1.1,MacIntel,62.11180124,69a5f3c806b4fe129f9de2d9,69b92ab4aef6dee357cd729a,69b92afe72826cb87b31e95f,0.0183,0.0183,0,42,42,66,1,twoone,,,,,,,,,,,,,,,,,,,,,,,,,,,,,,,,,,,,,,,,,,,,,,,,,,,,,,,,,,,,,,,,,,,,,,,,,,,,,,,,,,,,,,,,,,,,,,,,,,,,,,,,,,,,,,,,,,,,,,,,,,,,,,,,,,,,,,,,,
,,69a5f3c806b4fe129f9de2d9,2026-03-17_12h23.18.846,kallum_motion_pilot_GIST_update_2,2026.1.1,MacIntel,62.11180124,69a5f3c806b4fe129f9de2d9,69b92ab4aef6dee357cd729a,69b92afe72826cb87b31e95f,0.0184,0.0184,0,43,43,142,1,eightsix,,,,,,,,,,,,,,,,,,,,,,,,,,,,,,,,,,,,,,,,,,,,,,,,,,,,,,,,,,,,,,,,,,,,,,,,,,,,,,,,,,,,,,,,,,,,,,,,,,,,,,,,,,,,,,,,,,,,,,,,,,,,,,,,,,,,,,,,,
,,69a5f3c806b4fe129f9de2d9,2026-03-17_12h23.18.846,kallum_motion_pilot_GIST_update_2,2026.1.1,MacIntel,62.11180124,69a5f3c806b4fe129f9de2d9,69b92ab4aef6dee357cd729a,69b92afe72826cb87b31e95f,0.0184,0.0184,0,44,44,29,1,threefour,,,,,,,,,,,,,,,,,,,,,,,,,,,,,,,,,,,,,,,,,,,,,,,,,,,,,,,,,,,,,,,,,,,,,,,,,,,,,,,,,,,,,,,,,,,,,,,,,,,,,,,,,,,,,,,,,,,,,,,,,,,,,,,,,,,,,,,,,
,,69a5f3c806b4fe129f9de2d9,2026-03-17_12h23.18.846,kallum_motion_pilot_GIST_update_2,2026.1.1,MacIntel,62.11180124,69a5f3c806b4fe129f9de2d9,69b92ab4aef6dee357cd729a,69b92afe72826cb87b31e95f,0.0186,0.0186,0,45,45,134,1,eightsix,,,,,,,,,,,,,,,,,,,,,,,,,,,,,,,,,,,,,,,,,,,,,,,,,,,,,,,,,,,,,,,,,,,,,,,,,,,,,,,,,,,,,,,,,,,,,,,,,,,,,,,,,,,,,,,,,,,,,,,,,,,,,,,,,,,,,,,,,
,,69a5f3c806b4fe129f9de2d9,2026-03-17_12h23.18.846,kallum_motion_pilot_GIST_update_2,2026.1.1,MacIntel,62.11180124,69a5f3c806b4fe129f9de2d9,69b92ab4aef6dee357cd729a,69b92afe72826cb87b31e95f,0.0186,0.0186,0,46,46,24,1,onetwo,,,,,,,,,,,,,,,,,,,,,,,,,,,,,,,,,,,,,,,,,,,,,,,,,,,,,,,,,,,,,,,,,,,,,,,,,,,,,,,,,,,,,,,,,,,,,,,,,,,,,,,,,,,,,,,,,,,,,,,,,,,,,,,,,,,,,,,,,
,,69a5f3c806b4fe129f9de2d9,2026-03-17_12h23.18.846,kallum_motion_pilot_GIST_update_2,2026.1.1,MacIntel,62.11180124,69a5f3c806b4fe129f9de2d9,69b92ab4aef6dee357cd729a,69b92afe72826cb87b31e95f,0.0187,0.0187,0,47,47,46,1,fourtwo,,,,,,,,,,,,,,,,,,,,,,,,,,,,,,,,,,,,,,,,,,,,,,,,,,,,,,,,,,,,,,,,,,,,,,,,,,,,,,,,,,,,,,,,,,,,,,,,,,,,,,,,,,,,,,,,,,,,,,,,,,,,,,,,,,,,,,,,,
,,69a5f3c806b4fe129f9de2d9,2026-03-17_12h23.18.846,kallum_motion_pilot_GIST_update_2,2026.1.1,MacIntel,62.11180124,69a5f3c806b4fe129f9de2d9,69b92ab4aef6dee357cd729a,69b92afe72826cb87b31e95f,0.0188,0.0188,0,48,48,133,1,seveneight,,,,,,,,,,,,,,,,,,,,,,,,,,,,,,,,,,,,,,,,,,,,,,,,,,,,,,,,,,,,,,,,,,,,,,,,,,,,,,,,,,,,,,,,,,,,,,,,,,,,,,,,,,,,,,,,,,,,,,,,,,,,,,,,,,,,,,,,,
,,69a5f3c806b4fe129f9de2d9,2026-03-17_12h23.18.846,kallum_motion_pilot_GIST_update_2,2026.1.1,MacIntel,62.11180124,69a5f3c806b4fe129f9de2d9,69b92ab4aef6dee357cd729a,69b92afe72826cb87b31e95f,0.0189,0.019,0,49,49,53,1,threefour,,,,,,,,,,,,,,,,,,,,,,,,,,,,,,,,,,,,,,,,,,,,,,,,,,,,,,,,,,,,,,,,,,,,,,,,,,,,,,,,,,,,,,,,,,,,,,,,,,,,,,,,,,,,,,,,,,,,,,,,,,,,,,,,,,,,,,,,,
,,69a5f3c806b4fe129f9de2d9,2026-03-17_12h23.18.846,kallum_motion_pilot_GIST_update_2,2026.1.1,MacIntel,62.11180124,69a5f3c806b4fe129f9de2d9,69b92ab4aef6dee357cd729a,69b92afe72826cb87b31e95f,0.019,0.019,0,50,50,88,1,fivesix,,,,,,,,,,,,,,,,,,,,,,,,,,,,,,,,,,,,,,,,,,,,,,,,,,,,,,,,,,,,,,,,,,,,,,,,,,,,,,,,,,,,,,,,,,,,,,,,,,,,,,,,,,,,,,,,,,,,,,,,,,,,,,,,,,,,,,,,,
,,69a5f3c806b4fe129f9de2d9,2026-03-17_12h23.18.846,kallum_motion_pilot_GIST_update_2,2026.1.1,MacIntel,62.11180124,69a5f3c806b4fe129f9de2d9,69b92ab4aef6dee357cd729a,69b92afe72826cb87b31e95f,0.0191,0.0191,0,51,51,122,1,sixfive,,,,,,,,,,,,,,,,,,,,,,,,,,,,,,,,,,,,,,,,,,,,,,,,,,,,,,,,,,,,,,,,,,,,,,,,,,,,,,,,,,,,,,,,,,,,,,,,,,,,,,,,,,,,,,,,,,,,,,,,,,,,,,,,,,,,,,,,,
,,69a5f3c806b4fe129f9de2d9,2026-03-17_12h23.18.846,kallum_motion_pilot_GIST_update_2,2026.1.1,MacIntel,62.11180124,69a5f3c806b4fe129f9de2d9,69b92ab4aef6dee357cd729a,69b92afe72826cb87b31e95f,0.0192,0.0192,0,52,52,1,1,onethree,,,,,,,,,,,,,,,,,,,,,,,,,,,,,,,,,,,,,,,,,,,,,,,,,,,,,,,,,,,,,,,,,,,,,,,,,,,,,,,,,,,,,,,,,,,,,,,,,,,,,,,,,,,,,,,,,,,,,,,,,,,,,,,,,,,,,,,,,
,,69a5f3c806b4fe129f9de2d9,2026-03-17_12h23.18.846,kallum_motion_pilot_GIST_update_2,2026.1.1,MacIntel,62.11180124,69a5f3c806b4fe129f9de2d9,69b92ab4aef6dee357cd729a,69b92afe72826cb87b31e95f,0.0193,0.0194,0,53,53,93,1,seveneight,,,,,,,,,,,,,,,,,,,,,,,,,,,,,,,,,,,,,,,,,,,,,,,,,,,,,,,,,,,,,,,,,,,,,,,,,,,,,,,,,,,,,,,,,,,,,,,,,,,,,,,,,,,,,,,,,,,,,,,,,,,,,,,,,,,,,,,,,
,,69a5f3c806b4fe129f9de2d9,2026-03-17_12h23.18.846,kallum_motion_pilot_GIST_update_2,2026.1.1,MacIntel,62.11180124,69a5f3c806b4fe129f9de2d9,69b92ab4aef6dee357cd729a,69b92afe72826cb87b31e95f,0.0194,0.0194,0,54,54,22,1,fourtwo,,,,,,,,,,,,,,,,,,,,,,,,,,,,,,,,,,,,,,,,,,,,,,,,,,,,,,,,,,,,,,,,,,,,,,,,,,,,,,,,,,,,,,,,,,,,,,,,,,,,,,,,,,,,,,,,,,,,,,,,,,,,,,,,,,,,,,,,,
,,69a5f3c806b4fe129f9de2d9,2026-03-17_12h23.18.846,kallum_motion_pilot_GIST_update_2,2026.1.1,MacIntel,62.11180124,69a5f3c806b4fe129f9de2d9,69b92ab4aef6dee357cd729a,69b92afe72826cb87b31e95f,0.0195,0.0195,0,55,55,56,1,onetwo,,,,,,,,,,,,,,,,,,,,,,,,,,,,,,,,,,,,,,,,,,,,,,,,,,,,,,,,,,,,,,,,,,,,,,,,,,,,,,,,,,,,,,,,,,,,,,,,,,,,,,,,,,,,,,,,,,,,,,,,,,,,,,,,,,,,,,,,,
,,69a5f3c806b4fe129f9de2d9,2026-03-17_12h23.18.846,kallum_motion_pilot_GIST_update_2,2026.1.1,MacIntel,62.11180124,69a5f3c806b4fe129f9de2d9,69b92ab4aef6dee357cd729a,69b92afe72826cb87b31e95f,0.0196,0.0197,0,56,56,75,1,twofour,,,,,,,,,,,,,,,,,,,,,,,,,,,,,,,,,,,,,,,,,,,,,,,,,,,,,,,,,,,,,,,,,,,,,,,,,,,,,,,,,,,,,,,,,,,,,,,,,,,,,,,,,,,,,,,,,,,,,,,,,,,,,,,,,,,,,,,,,
,,69a5f3c806b4fe129f9de2d9,2026-03-17_12h23.18.846,kallum_motion_pilot_GIST_update_2,2026.1.1,MacIntel,62.11180124,69a5f3c806b4fe129f9de2d9,69b92ab4aef6dee357cd729a,69b92afe72826cb87b31e95f,0.0197,0.0197,0,57,57,116,1,sevenfive,,,,,,,,,,,,,,,,,,,,,,,,,,,,,,,,,,,,,,,,,,,,,,,,,,,,,,,,,,,,,,,,,,,,,,,,,,,,,,,,,,,,,,,,,,,,,,,,,,,,,,,,,,,,,,,,,,,,,,,,,,,,,,,,,,,,,,,,,
,,69a5f3c806b4fe129f9de2d9,2026-03-17_12h23.18.846,kallum_motion_pilot_GIST_update_2,2026.1.1,MacIntel,62.11180124,69a5f3c806b4fe129f9de2d9,69b92ab4aef6dee357cd729a,69b92afe72826cb87b31e95f,0.0198,0.0198,0,58,58,62,1,fourtwo,,,,,,,,,,,,,,,,,,,,,,,,,,,,,,,,,,,,,,,,,,,,,,,,,,,,,,,,,,,,,,,,,,,,,,,,,,,,,,,,,,,,,,,,,,,,,,,,,,,,,,,,,,,,,,,,,,,,,,,,,,,,,,,,,,,,,,,,,
,,69a5f3c806b4fe129f9de2d9,2026-03-17_12h23.18.846,kallum_motion_pilot_GIST_update_2,2026.1.1,MacIntel,62.11180124,69a5f3c806b4fe129f9de2d9,69b92ab4aef6dee357cd729a,69b92afe72826cb87b31e95f,0.0199,0.0199,0,59,59,144,1,fivesix,,,,,,,,,,,,,,,,,,,,,,,,,,,,,,,,,,,,,,,,,,,,,,,,,,,,,,,,,,,,,,,,,,,,,,,,,,,,,,,,,,,,,,,,,,,,,,,,,,,,,,,,,,,,,,,,,,,,,,,,,,,,,,,,,,,,,,,,,
,,69a5f3c806b4fe129f9de2d9,2026-03-17_12h23.18.846,kallum_motion_pilot_GIST_update_2,2026.1.1,MacIntel,62.11180124,69a5f3c806b4fe129f9de2d9,69b92ab4aef6dee357cd729a,69b92afe72826cb87b31e95f,0.02,0.02,0,60,60,73,1,onethree,,,,,,,,,,,,,,,,,,,,,,,,,,,,,,,,,,,,,,,,,,,,,,,,,,,,,,,,,,,,,,,,,,,,,,,,,,,,,,,,,,,,,,,,,,,,,,,,,,,,,,,,,,,,,,,,,,,,,,,,,,,,,,,,,,,,,,,,,
,,69a5f3c806b4fe129f9de2d9,2026-03-17_12h23.18.846,kallum_motion_pilot_GIST_update_2,2026.1.1,MacIntel,62.11180124,69a5f3c806b4fe129f9de2d9,69b92ab4aef6dee357cd729a,69b92afe72826cb87b31e95f,0.0201,0.0201,0,61,61,11,1,twofour,,,,,,,,,,,,,,,,,,,,,,,,,,,,,,,,,,,,,,,,,,,,,,,,,,,,,,,,,,,,,,,,,,,,,,,,,,,,,,,,,,,,,,,,,,,,,,,,,,,,,,,,,,,,,,,,,,,,,,,,,,,,,,,,,,,,,,,,,
,,69a5f3c806b4fe129f9de2d9,2026-03-17_12h23.18.846,kallum_motion_pilot_GIST_update_2,2026.1.1,MacIntel,62.11180124,69a5f3c806b4fe129f9de2d9,69b92ab4aef6dee357cd729a,69b92afe72826cb87b31e95f,0.0202,0.0202,0,62,62,72,1,onetwo,,,,,,,,,,,,,,,,,,,,,,,,,,,,,,,,,,,,,,,,,,,,,,,,,,,,,,,,,,,,,,,,,,,,,,,,,,,,,,,,,,,,,,,,,,,,,,,,,,,,,,,,,,,,,,,,,,,,,,,,,,,,,,,,,,,,,,,,,
,,69a5f3c806b4fe129f9de2d9,2026-03-17_12h23.18.846,kallum_motion_pilot_GIST_update_2,2026.1.1,MacIntel,62.11180124,69a5f3c806b4fe129f9de2d9,69b92ab4aef6dee357cd729a,69b92afe72826cb87b31e95f,0.0203,0.0203,0,63,63,158,1,eightsix,,,,,,,,,,,,,,,,,,,,,,,,,,,,,,,,,,,,,,,,,,,,,,,,,,,,,,,,,,,,,,,,,,,,,,,,,,,,,,,,,,,,,,,,,,,,,,,,,,,,,,,,,,,,,,,,,,,,,,,,,,,,,,,,,,,,,,,,,
,,69a5f3c806b4fe129f9de2d9,2026-03-17_12h23.18.846,kallum_motion_pilot_GIST_update_2,2026.1.1,MacIntel,62.11180124,69a5f3c806b4fe129f9de2d9,69b92ab4aef6dee357cd729a,69b92afe72826cb87b31e95f,0.0203,0.0204,0,64,64,47,1,fourthree,,,,,,,,,,,,,,,,,,,,,,,,,,,,,,,,,,,,,,,,,,,,,,,,,,,,,,,,,,,,,,,,,,,,,,,,,,,,,,,,,,,,,,,,,,,,,,,,,,,,,,,,,,,,,,,,,,,,,,,,,,,,,,,,,,,,,,,,,
,,69a5f3c806b4fe129f9de2d9,2026-03-17_12h23.18.846,kallum_motion_pilot_GIST_update_2,2026.1.1,MacIntel,62.11180124,69a5f3c806b4fe129f9de2d9,69b92ab4aef6dee357cd729a,69b92afe72826cb87b31e95f,0.0204,0.0204,0,65,65,100,1,sevenfive,,,,,,,,,,,,,,,,,,,,,,,,,,,,,,,,,,,,,,,,,,,,,,,,,,,,,,,,,,,,,,,,,,,,,,,,,,,,,,,,,,,,,,,,,,,,,,,,,,,,,,,,,,,,,,,,,,,,,,,,,,,,,,,,,,,,,,,,,
,,69a5f3c806b4fe129f9de2d9,2026-03-17_12h23.18.846,kallum_motion_pilot_GIST_update_2,2026.1.1,MacIntel,62.11180124,69a5f3c806b4fe129f9de2d9,69b92ab4aef6dee357cd729a,69b92afe72826cb87b31e95f,0.0205,0.0205,0,66,66,136,1,fivesix,,,,,,,,,,,,,,,,,,,,,,,,,,,,,,,,,,,,,,,,,,,,,,,,,,,,,,,,,,,,,,,,,,,,,,,,,,,,,,,,,,,,,,,,,,,,,,,,,,,,,,,,,,,,,,,,,,,,,,,,,,,,,,,,,,,,,,,,,
,,69a5f3c806b4fe129f9de2d9,2026-03-17_12h23.18.846,kallum_motion_pilot_GIST_update_2,2026.1.1,MacIntel,62.11180124,69a5f3c806b4fe129f9de2d9,69b92ab4aef6dee357cd729a,69b92afe72826cb87b31e95f,0.0207,0.0207,0,67,67,113,1,fiveseven,,,,,,,,,,,,,,,,,,,,,,,,,,,,,,,,,,,,,,,,,,,,,,,,,,,,,,,,,,,,,,,,,,,,,,,,,,,,,,,,,,,,,,,,,,,,,,,,,,,,,,,,,,,,,,,,,,,,,,,,,,,,,,,,,,,,,,,,,
,,69a5f3c806b4fe129f9de2d9,2026-03-17_12h23.18.846,kallum_motion_pilot_GIST_update_2,2026.1.1,MacIntel,62.11180124,69a5f3c806b4fe129f9de2d9,69b92ab4aef6dee357cd729a,69b92afe72826cb87b31e95f,0.0207,0.0208,0,68,68,43,1,twofour,,,,,,,,,,,,,,,,,,,,,,,,,,,,,,,,,,,,,,,,,,,,,,,,,,,,,,,,,,,,,,,,,,,,,,,,,,,,,,,,,,,,,,,,,,,,,,,,,,,,,,,,,,,,,,,,,,,,,,,,,,,,,,,,,,,,,,,,,
,,69a5f3c806b4fe129f9de2d9,2026-03-17_12h23.18.846,kallum_motion_pilot_GIST_update_2,2026.1.1,MacIntel,62.11180124,69a5f3c806b4fe129f9de2d9,69b92ab4aef6dee357cd729a,69b92afe72826cb87b31e95f,0.0209,0.021,0,69,69,61,1,threefour,,,,,,,,,,,,,,,,,,,,,,,,,,,,,,,,,,,,,,,,,,,,,,,,,,,,,,,,,,,,,,,,,,,,,,,,,,,,,,,,,,,,,,,,,,,,,,,,,,,,,,,,,,,,,,,,,,,,,,,,,,,,,,,,,,,,,,,,,
,,69a5f3c806b4fe129f9de2d9,2026-03-17_12h23.18.846,kallum_motion_pilot_GIST_update_2,2026.1.1,MacIntel,62.11180124,69a5f3c806b4fe129f9de2d9,69b92ab4aef6dee357cd729a,69b92afe72826cb87b31e95f,0.021,0.021,0,70,70,63,1,fourthree,,,,,,,,,,,,,,,,,,,,,,,,,,,,,,,,,,,,,,,,,,,,,,,,,,,,,,,,,,,,,,,,,,,,,,,,,,,,,,,,,,,,,,,,,,,,,,,,,,,,,,,,,,,,,,,,,,,,,,,,,,,,,,,,,,,,,,,,,
,,69a5f3c806b4fe129f9de2d9,2026-03-17_12h23.18.846,kallum_motion_pilot_GIST_update_2,2026.1.1,MacIntel,62.11180124,69a5f3c806b4fe129f9de2d9,69b92ab4aef6dee357cd729a,69b92afe72826cb87b31e95f,0.0211,0.0212,0,71,71,96,1,fivesix,,,,,,,,,,,,,,,,,,,,,,,,,,,,,,,,,,,,,,,,,,,,,,,,,,,,,,,,,,,,,,,,,,,,,,,,,,,,,,,,,,,,,,,,,,,,,,,,,,,,,,,,,,,,,,,,,,,,,,,,,,,,,,,,,,,,,,,,,
,,69a5f3c806b4fe129f9de2d9,2026-03-17_12h23.18.846,kallum_motion_pilot_GIST_update_2,2026.1.1,MacIntel,62.11180124,69a5f3c806b4fe129f9de2d9,69b92ab4aef6dee357cd729a,69b92afe72826cb87b31e95f,0.0212,0.0213,0,72,72,160,1,fivesix,,,,,,,,,,,,,,,,,,,,,,,,,,,,,,,,,,,,,,,,,,,,,,,,,,,,,,,,,,,,,,,,,,,,,,,,,,,,,,,,,,,,,,,,,,,,,,,,,,,,,,,,,,,,,,,,,,,,,,,,,,,,,,,,,,,,,,,,,
,,69a5f3c806b4fe129f9de2d9,2026-03-17_12h23.18.846,kallum_motion_pilot_GIST_update_2,2026.1.1,MacIntel,62.11180124,69a5f3c806b4fe129f9de2d9,69b92ab4aef6dee357cd729a,69b92afe72826cb87b31e95f,0.0213,0.0214,0,73,73,104,1,fivesix,,,,,,,,,,,,,,,,,,,,,,,,,,,,,,,,,,,,,,,,,,,,,,,,,,,,,,,,,,,,,,,,,,,,,,,,,,,,,,,,,,,,,,,,,,,,,,,,,,,,,,,,,,,,,,,,,,,,,,,,,,,,,,,,,,,,,,,,,
,,69a5f3c806b4fe129f9de2d9,2026-03-17_12h23.18.846,kallum_motion_pilot_GIST_update_2,2026.1.1,MacIntel,62.11180124,69a5f3c806b4fe129f9de2d9,69b92ab4aef6dee357cd729a,69b92afe72826cb87b31e95f,0.0215,0.0215,0,74,74,19,1,twofour,,,,,,,,,,,,,,,,,,,,,,,,,,,,,,,,,,,,,,,,,,,,,,,,,,,,,,,,,,,,,,,,,,,,,,,,,,,,,,,,,,,,,,,,,,,,,,,,,,,,,,,,,,,,,,,,,,,,,,,,,,,,,,,,,,,,,,,,,
,,69a5f3c806b4fe129f9de2d9,2026-03-17_12h23.18.846,kallum_motion_pilot_GIST_update_2,2026.1.1,MacIntel,62.11180124,69a5f3c806b4fe129f9de2d9,69b92ab4aef6dee357cd729a,69b92afe72826cb87b31e95f,0.0215,0.0215,0,75,75,83,1,sixeight,,,,,,,,,,,,,,,,,,,,,,,,,,,,,,,,,,,,,,,,,,,,,,,,,,,,,,,,,,,,,,,,,,,,,,,,,,,,,,,,,,,,,,,,,,,,,,,,,,,,,,,,,,,,,,,,,,,,,,,,,,,,,,,,,,,,,,,,,
,,69a5f3c806b4fe129f9de2d9,2026-03-17_12h23.18.846,kallum_motion_pilot_GIST_update_2,2026.1.1,MacIntel,62.11180124,69a5f3c806b4fe129f9de2d9,69b92ab4aef6dee357cd729a,69b92afe72826cb87b31e95f,0.0216,0.0217,0,76,76,30,1,fourtwo,,,,,,,,,,,,,,,,,,,,,,,,,,,,,,,,,,,,,,,,,,,,,,,,,,,,,,,,,,,,,,,,,,,,,,,,,,,,,,,,,,,,,,,,,,,,,,,,,,,,,,,,,,,,,,,,,,,,,,,,,,,,,,,,,,,,,,,,,
,,69a5f3c806b4fe129f9de2d9,2026-03-17_12h23.18.846,kallum_motion_pilot_GIST_update_2,2026.1.1,MacIntel,62.11180124,69a5f3c806b4fe129f9de2d9,69b92ab4aef6dee357cd729a,69b92afe72826cb87b31e95f,0.0218,0.0218,0,77,77,124,1,sevenfive,,,,,,,,,,,,,,,,,,,,,,,,,,,,,,,,,,,,,,,,,,,,,,,,,,,,,,,,,,,,,,,,,,,,,,,,,,,,,,,,,,,,,,,,,,,,,,,,,,,,,,,,,,,,,,,,,,,,,,,,,,,,,,,,,,,,,,,,,
,,69a5f3c806b4fe129f9de2d9,2026-03-17_12h23.18.846,kallum_motion_pilot_GIST_update_2,2026.1.1,MacIntel,62.11180124,69a5f3c806b4fe129f9de2d9,69b92ab4aef6dee357cd729a,69b92afe72826cb87b31e95f,0.0218,0.0219,0,78,78,23,1,fourthree,,,,,,,,,,,,,,,,,,,,,,,,,,,,,,,,,,,,,,,,,,,,,,,,,,,,,,,,,,,,,,,,,,,,,,,,,,,,,,,,,,,,,,,,,,,,,,,,,,,,,,,,,,,,,,,,,,,,,,,,,,,,,,,,,,,,,,,,,
,,69a5f3c806b4fe129f9de2d9,2026-03-17_12h23.18.846,kallum_motion_pilot_GIST_update_2,2026.1.1,MacIntel,62.11180124,69a5f3c806b4fe129f9de2d9,69b92ab4aef6dee357cd729a,69b92afe72826cb87b31e95f,0.022,0.022,0,79,79,115,1,sixeight,,,,,,,,,,,,,,,,,,,,,,,,,,,,,,,,,,,,,,,,,,,,,,,,,,,,,,,,,,,,,,,,,,,,,,,,,,,,,,,,,,,,,,,,,,,,,,,,,,,,,,,,,,,,,,,,,,,,,,,,,,,,,,,,,,,,,,,,,
,,69a5f3c806b4fe129f9de2d9,2026-03-17_12h23.18.846,kallum_motion_pilot_GIST_update_2,2026.1.1,MacIntel,62.11180124,69a5f3c806b4fe129f9de2d9,69b92ab4aef6dee357cd729a,69b92afe72826cb87b31e95f,0.022,0.0222,0,80,80,51,1,twofour,,,,,,,,,,,,,,,,,,,,,,,,,,,,,,,,,,,,,,,,,,,,,,,,,,,,,,,,,,,,,,,,,,,,,,,,,,,,,,,,,,,,,,,,,,,,,,,,,,,,,,,,,,,,,,,,,,,,,,,,,,,,,,,,,,,,,,,,,
,,69a5f3c806b4fe129f9de2d9,2026-03-17_12h23.18.846,kallum_motion_pilot_GIST_update_2,2026.1.1,MacIntel,62.11180124,69a5f3c806b4fe129f9de2d9,69b92ab4aef6dee357cd729a,69b92afe72826cb87b31e95f,0.0222,0.0222,0,81,81,52,1,threeone,,,,,,,,,,,,,,,,,,,,,,,,,,,,,,,,,,,,,,,,,,,,,,,,,,,,,,,,,,,,,,,,,,,,,,,,,,,,,,,,,,,,,,,,,,,,,,,,,,,,,,,,,,,,,,,,,,,,,,,,,,,,,,,,,,,,,,,,,
,,69a5f3c806b4fe129f9de2d9,2026-03-17_12h23.18.846,kallum_motion_pilot_GIST_update_2,2026.1.1,MacIntel,62.11180124,69a5f3c806b4fe129f9de2d9,69b92ab4aef6dee357cd729a,69b92afe72826cb87b31e95f,0.0223,0.0223,0,82,82,97,1,fiveseven,,,,,,,,,,,,,,,,,,,,,,,,,,,,,,,,,,,,,,,,,,,,,,,,,,,,,,,,,,,,,,,,,,,,,,,,,,,,,,,,,,,,,,,,,,,,,,,,,,,,,,,,,,,,,,,,,,,,,,,,,,,,,,,,,,,,,,,,,
,,69a5f3c806b4fe129f9de2d9,2026-03-17_12h23.18.846,kallum_motion_pilot_GIST_update_2,2026.1.1,MacIntel,62.11180124,69a5f3c806b4fe129f9de2d9,69b92ab4aef6dee357cd729a,69b92afe72826cb87b31e95f,0.0224,0.0224,0,83,83,119,1,eightseven,,,,,,,,,,,,,,,,,,,,,,,,,,,,,,,,,,,,,,,,,,,,,,,,,,,,,,,,,,,,,,,,,,,,,,,,,,,,,,,,,,,,,,,,,,,,,,,,,,,,,,,,,,,,,,,,,,,,,,,,,,,,,,,,,,,,,,,,,
,,69a5f3c806b4fe129f9de2d9,2026-03-17_12h23.18.846,kallum_motion_pilot_GIST_update_2,2026.1.1,MacIntel,62.11180124,69a5f3c806b4fe129f9de2d9,69b92ab4aef6dee357cd729a,69b92afe72826cb87b31e95f,0.0225,0.0225,0,84,84,0,1,onetwo,,,,,,,,,,,,,,,,,,,,,,,,,,,,,,,,,,,,,,,,,,,,,,,,,,,,,,,,,,,,,,,,,,,,,,,,,,,,,,,,,,,,,,,,,,,,,,,,,,,,,,,,,,,,,,,,,,,,,,,,,,,,,,,,,,,,,,,,,
,,69a5f3c806b4fe129f9de2d9,2026-03-17_12h23.18.846,kallum_motion_pilot_GIST_update_2,2026.1.1,MacIntel,62.11180124,69a5f3c806b4fe129f9de2d9,69b92ab4aef6dee357cd729a,69b92afe72826cb87b31e95f,0.0226,0.0226,0,85,85,109,1,seveneight,,,,,,,,,,,,,,,,,,,,,,,,,,,,,,,,,,,,,,,,,,,,,,,,,,,,,,,,,,,,,,,,,,,,,,,,,,,,,,,,,,,,,,,,,,,,,,,,,,,,,,,,,,,,,,,,,,,,,,,,,,,,,,,,,,,,,,,,,
,,69a5f3c806b4fe129f9de2d9,2026-03-17_12h23.18.846,kallum_motion_pilot_GIST_update_2,2026.1.1,MacIntel,62.11180124,69a5f3c806b4fe129f9de2d9,69b92ab4aef6dee357cd729a,69b92afe72826cb87b31e95f,0.0228,0.0228,0,86,86,70,1,fourtwo,,,,,,,,,,,,,,,,,,,,,,,,,,,,,,,,,,,,,,,,,,,,,,,,,,,,,,,,,,,,,,,,,,,,,,,,,,,,,,,,,,,,,,,,,,,,,,,,,,,,,,,,,,,,,,,,,,,,,,,,,,,,,,,,,,,,,,,,,
,,69a5f3c806b4fe129f9de2d9,2026-03-17_12h23.18.846,kallum_motion_pilot_GIST_update_2,2026.1.1,MacIntel,62.11180124,69a5f3c806b4fe129f9de2d9,69b92ab4aef6dee357cd729a,69b92afe72826cb87b31e95f,0.0229,0.0229,0,87,87,114,1,sixfive,,,,,,,,,,,,,,,,,,,,,,,,,,,,,,,,,,,,,,,,,,,,,,,,,,,,,,,,,,,,,,,,,,,,,,,,,,,,,,,,,,,,,,,,,,,,,,,,,,,,,,,,,,,,,,,,,,,,,,,,,,,,,,,,,,,,,,,,,
,,69a5f3c806b4fe129f9de2d9,2026-03-17_12h23.18.846,kallum_motion_pilot_GIST_update_2,2026.1.1,MacIntel,62.11180124,69a5f3c806b4fe129f9de2d9,69b92ab4aef6dee357cd729a,69b92afe72826cb87b31e95f,0.023,0.023,0,88,88,58,1,twoone,,,,,,,,,,,,,,,,,,,,,,,,,,,,,,,,,,,,,,,,,,,,,,,,,,,,,,,,,,,,,,,,,,,,,,,,,,,,,,,,,,,,,,,,,,,,,,,,,,,,,,,,,,,,,,,,,,,,,,,,,,,,,,,,,,,,,,,,,
,,69a5f3c806b4fe129f9de2d9,2026-03-17_12h23.18.846,kallum_motion_pilot_GIST_update_2,2026.1.1,MacIntel,62.11180124,69a5f3c806b4fe129f9de2d9,69b92ab4aef6dee357cd729a,69b92afe72826cb87b31e95f,0.0231,0.0231,0,89,89,98,1,sixfive,,,,,,,,,,,,,,,,,,,,,,,,,,,,,,,,,,,,,,,,,,,,,,,,,,,,,,,,,,,,,,,,,,,,,,,,,,,,,,,,,,,,,,,,,,,,,,,,,,,,,,,,,,,,,,,,,,,,,,,,,,,,,,,,,,,,,,,,,
,,69a5f3c806b4fe129f9de2d9,2026-03-17_12h23.18.846,kallum_motion_pilot_GIST_update_2,2026.1.1,MacIntel,62.11180124,69a5f3c806b4fe129f9de2d9,69b92ab4aef6dee357cd729a,69b92afe72826cb87b31e95f,0.0232,0.0232,0,90,90,77,1,threefour,,,,,,,,,,,,,,,,,,,,,,,,,,,,,,,,,,,,,,,,,,,,,,,,,,,,,,,,,,,,,,,,,,,,,,,,,,,,,,,,,,,,,,,,,,,,,,,,,,,,,,,,,,,,,,,,,,,,,,,,,,,,,,,,,,,,,,,,,
,,69a5f3c806b4fe129f9de2d9,2026-03-17_12h23.18.846,kallum_motion_pilot_GIST_update_2,2026.1.1,MacIntel,62.11180124,69a5f3c806b4fe129f9de2d9,69b92ab4aef6dee357cd729a,69b92afe72826cb87b31e95f,0.0232,0.0233,0,91,91,38,1,fourtwo,,,,,,,,,,,,,,,,,,,,,,,,,,,,,,,,,,,,,,,,,,,,,,,,,,,,,,,,,,,,,,,,,,,,,,,,,,,,,,,,,,,,,,,,,,,,,,,,,,,,,,,,,,,,,,,,,,,,,,,,,,,,,,,,,,,,,,,,,
,,69a5f3c806b4fe129f9de2d9,2026-03-17_12h23.18.846,kallum_motion_pilot_GIST_update_2,2026.1.1,MacIntel,62.11180124,69a5f3c806b4fe129f9de2d9,69b92ab4aef6dee357cd729a,69b92afe72826cb87b31e95f,0.0234,0.0234,0,92,92,26,1,twoone,,,,,,,,,,,,,,,,,,,,,,,,,,,,,,,,,,,,,,,,,,,,,,,,,,,,,,,,,,,,,,,,,,,,,,,,,,,,,,,,,,,,,,,,,,,,,,,,,,,,,,,,,,,,,,,,,,,,,,,,,,,,,,,,,,,,,,,,,
,,69a5f3c806b4fe129f9de2d9,2026-03-17_12h23.18.846,kallum_motion_pilot_GIST_update_2,2026.1.1,MacIntel,62.11180124,69a5f3c806b4fe129f9de2d9,69b92ab4aef6dee357cd729a,69b92afe72826cb87b31e95f,0.0234,0.0235,0,93,93,15,1,fourthree,,,,,,,,,,,,,,,,,,,,,,,,,,,,,,,,,,,,,,,,,,,,,,,,,,,,,,,,,,,,,,,,,,,,,,,,,,,,,,,,,,,,,,,,,,,,,,,,,,,,,,,,,,,,,,,,,,,,,,,,,,,,,,,,,,,,,,,,,
,,69a5f3c806b4fe129f9de2d9,2026-03-17_12h23.18.846,kallum_motion_pilot_GIST_update_2,2026.1.1,MacIntel,62.11180124,69a5f3c806b4fe129f9de2d9,69b92ab4aef6dee357cd729a,69b92afe72826cb87b31e95f,0.0236,0.0236,0,94,94,17,1,onethree,,,,,,,,,,,,,,,,,,,,,,,,,,,,,,,,,,,,,,,,,,,,,,,,,,,,,,,,,,,,,,,,,,,,,,,,,,,,,,,,,,,,,,,,,,,,,,,,,,,,,,,,,,,,,,,,,,,,,,,,,,,,,,,,,,,,,,,,,
,,69a5f3c806b4fe129f9de2d9,2026-03-17_12h23.18.846,kallum_motion_pilot_GIST_update_2,2026.1.1,MacIntel,62.11180124,69a5f3c806b4fe129f9de2d9,69b92ab4aef6dee357cd729a,69b92afe72826cb87b31e95f,0.0238,0.0238,0,95,95,64,1,onetwo,,,,,,,,,,,,,,,,,,,,,,,,,,,,,,,,,,,,,,,,,,,,,,,,,,,,,,,,,,,,,,,,,,,,,,,,,,,,,,,,,,,,,,,,,,,,,,,,,,,,,,,,,,,,,,,,,,,,,,,,,,,,,,,,,,,,,,,,,
,,69a5f3c806b4fe129f9de2d9,2026-03-17_12h23.18.846,kallum_motion_pilot_GIST_update_2,2026.1.1,MacIntel,62.11180124,69a5f3c806b4fe129f9de2d9,69b92ab4aef6dee357cd729a,69b92afe72826cb87b31e95f,0.0239,0.024,0,96,96,54,1,fourtwo,,,,,,,,,,,,,,,,,,,,,,,,,,,,,,,,,,,,,,,,,,,,,,,,,,,,,,,,,,,,,,,,,,,,,,,,,,,,,,,,,,,,,,,,,,,,,,,,,,,,,,,,,,,,,,,,,,,,,,,,,,,,,,,,,,,,,,,,,
,,69a5f3c806b4fe129f9de2d9,2026-03-17_12h23.18.846,kallum_motion_pilot_GIST_update_2,2026.1.1,MacIntel,62.11180124,69a5f3c806b4fe129f9de2d9,69b92ab4aef6dee357cd729a,69b92afe72826cb87b31e95f,0.024,0.024,0,97,97,79,1,eightseven,,,,,,,,,,,,,,,,,,,,,,,,,,,,,,,,,,,,,,,,,,,,,,,,,,,,,,,,,,,,,,,,,,,,,,,,,,,,,,,,,,,,,,,,,,,,,,,,,,,,,,,,,,,,,,,,,,,,,,,,,,,,,,,,,,,,,,,,,
,,69a5f3c806b4fe129f9de2d9,2026-03-17_12h23.18.846,kallum_motion_pilot_GIST_update_2,2026.1.1,MacIntel,62.11180124,69a5f3c806b4fe129f9de2d9,69b92ab4aef6dee357cd729a,69b92afe72826cb87b31e95f,0.0241,0.0241,0,98,98,42,1,twoone,,,,,,,,,,,,,,,,,,,,,,,,,,,,,,,,,,,,,,,,,,,,,,,,,,,,,,,,,,,,,,,,,,,,,,,,,,,,,,,,,,,,,,,,,,,,,,,,,,,,,,,,,,,,,,,,,,,,,,,,,,,,,,,,,,,,,,,,,
,,69a5f3c806b4fe129f9de2d9,2026-03-17_12h23.18.846,kallum_motion_pilot_GIST_update_2,2026.1.1,MacIntel,62.11180124,69a5f3c806b4fe129f9de2d9,69b92ab4aef6dee357cd729a,69b92afe72826cb87b31e95f,0.0242,0.0242,0,99,99,41,1,onethree,,,,,,,,,,,,,,,,,,,,,,,,,,,,,,,,,,,,,,,,,,,,,,,,,,,,,,,,,,,,,,,,,,,,,,,,,,,,,,,,,,,,,,,,,,,,,,,,,,,,,,,,,,,,,,,,,,,,,,,,,,,,,,,,,,,,,,,,,
,,69a5f3c806b4fe129f9de2d9,2026-03-17_12h23.18.846,kallum_motion_pilot_GIST_update_2,2026.1.1,MacIntel,62.11180124,69a5f3c806b4fe129f9de2d9,69b92ab4aef6dee357cd729a,69b92afe72826cb87b31e95f,0.0242,0.0244,0,100,100,121,1,fiveseven,,,,,,,,,,,,,,,,,,,,,,,,,,,,,,,,,,,,,,,,,,,,,,,,,,,,,,,,,,,,,,,,,,,,,,,,,,,,,,,,,,,,,,,,,,,,,,,,,,,,,,,,,,,,,,,,,,,,,,,,,,,,,,,,,,,,,,,,,
,,69a5f3c806b4fe129f9de2d9,2026-03-17_12h23.18.846,kallum_motion_pilot_GIST_update_2,2026.1.1,MacIntel,62.11180124,69a5f3c806b4fe129f9de2d9,69b92ab4aef6dee357cd729a,69b92afe72826cb87b31e95f,0.0244,0.0244,0,101,101,39,1,fourthree,,,,,,,,,,,,,,,,,,,,,,,,,,,,,,,,,,,,,,,,,,,,,,,,,,,,,,,,,,,,,,,,,,,,,,,,,,,,,,,,,,,,,,,,,,,,,,,,,,,,,,,,,,,,,,,,,,,,,,,,,,,,,,,,,,,,,,,,,
,,69a5f3c806b4fe129f9de2d9,2026-03-17_12h23.18.846,kallum_motion_pilot_GIST_update_2,2026.1.1,MacIntel,62.11180124,69a5f3c806b4fe129f9de2d9,69b92ab4aef6dee357cd729a,69b92afe72826cb87b31e95f,0.0245,0.0246,0,102,102,111,1,eightseven,,,,,,,,,,,,,,,,,,,,,,,,,,,,,,,,,,,,,,,,,,,,,,,,,,,,,,,,,,,,,,,,,,,,,,,,,,,,,,,,,,,,,,,,,,,,,,,,,,,,,,,,,,,,,,,,,,,,,,,,,,,,,,,,,,,,,,,,,
,,69a5f3c806b4fe129f9de2d9,2026-03-17_12h23.18.846,kallum_motion_pilot_GIST_update_2,2026.1.1,MacIntel,62.11180124,69a5f3c806b4fe129f9de2d9,69b92ab4aef6dee357cd729a,69b92afe72826cb87b31e95f,0.0246,0.0246,0,103,103,37,1,threefour,,,,,,,,,,,,,,,,,,,,,,,,,,,,,,,,,,,,,,,,,,,,,,,,,,,,,,,,,,,,,,,,,,,,,,,,,,,,,,,,,,,,,,,,,,,,,,,,,,,,,,,,,,,,,,,,,,,,,,,,,,,,,,,,,,,,,,,,,
,,69a5f3c806b4fe129f9de2d9,2026-03-17_12h23.18.846,kallum_motion_pilot_GIST_update_2,2026.1.1,MacIntel,62.11180124,69a5f3c806b4fe129f9de2d9,69b92ab4aef6dee357cd729a,69b92afe72826cb87b31e95f,0.0247,0.0247,0,104,104,156,1,sevenfive,,,,,,,,,,,,,,,,,,,,,,,,,,,,,,,,,,,,,,,,,,,,,,,,,,,,,,,,,,,,,,,,,,,,,,,,,,,,,,,,,,,,,,,,,,,,,,,,,,,,,,,,,,,,,,,,,,,,,,,,,,,,,,,,,,,,,,,,,
,,69a5f3c806b4fe129f9de2d9,2026-03-17_12h23.18.846,kallum_motion_pilot_GIST_update_2,2026.1.1,MacIntel,62.11180124,69a5f3c806b4fe129f9de2d9,69b92ab4aef6dee357cd729a,69b92afe72826cb87b31e95f,0.0248,0.0248,0,105,105,86,1,eightsix,,,,,,,,,,,,,,,,,,,,,,,,,,,,,,,,,,,,,,,,,,,,,,,,,,,,,,,,,,,,,,,,,,,,,,,,,,,,,,,,,,,,,,,,,,,,,,,,,,,,,,,,,,,,,,,,,,,,,,,,,,,,,,,,,,,,,,,,,
,,69a5f3c806b4fe129f9de2d9,2026-03-17_12h23.18.846,kallum_motion_pilot_GIST_update_2,2026.1.1,MacIntel,62.11180124,69a5f3c806b4fe129f9de2d9,69b92ab4aef6dee357cd729a,69b92afe72826cb87b31e95f,0.0249,0.0249,0,106,106,155,1,sixeight,,,,,,,,,,,,,,,,,,,,,,,,,,,,,,,,,,,,,,,,,,,,,,,,,,,,,,,,,,,,,,,,,,,,,,,,,,,,,,,,,,,,,,,,,,,,,,,,,,,,,,,,,,,,,,,,,,,,,,,,,,,,,,,,,,,,,,,,,
,,69a5f3c806b4fe129f9de2d9,2026-03-17_12h23.18.846,kallum_motion_pilot_GIST_update_2,2026.1.1,MacIntel,62.11180124,69a5f3c806b4fe129f9de2d9,69b92ab4aef6dee357cd729a,69b92afe72826cb87b31e95f,0.025,0.025,0,107,107,4,1,threeone,,,,,,,,,,,,,,,,,,,,,,,,,,,,,,,,,,,,,,,,,,,,,,,,,,,,,,,,,,,,,,,,,,,,,,,,,,,,,,,,,,,,,,,,,,,,,,,,,,,,,,,,,,,,,,,,,,,,,,,,,,,,,,,,,,,,,,,,,
,,69a5f3c806b4fe129f9de2d9,2026-03-17_12h23.18.846,kallum_motion_pilot_GIST_update_2,2026.1.1,MacIntel,62.11180124,69a5f3c806b4fe129f9de2d9,69b92ab4aef6dee357cd729a,69b92afe72826cb87b31e95f,0.0251,0.0251,0,108,108,143,1,eightseven,,,,,,,,,,,,,,,,,,,,,,,,,,,,,,,,,,,,,,,,,,,,,,,,,,,,,,,,,,,,,,,,,,,,,,,,,,,,,,,,,,,,,,,,,,,,,,,,,,,,,,,,,,,,,,,,,,,,,,,,,,,,,,,,,,,,,,,,,
,,69a5f3c806b4fe129f9de2d9,2026-03-17_12h23.18.846,kallum_motion_pilot_GIST_update_2,2026.1.1,MacIntel,62.11180124,69a5f3c806b4fe129f9de2d9,69b92ab4aef6dee357cd729a,69b92afe72826cb87b31e95f,0.0252,0.0252,0,109,109,10,1,twoone,,,,,,,,,,,,,,,,,,,,,,,,,,,,,,,,,,,,,,,,,,,,,,,,,,,,,,,,,,,,,,,,,,,,,,,,,,,,,,,,,,,,,,,,,,,,,,,,,,,,,,,,,,,,,,,,,,,,,,,,,,,,,,,,,,,,,,,,,
,,69a5f3c806b4fe129f9de2d9,2026-03-17_12h23.18.846,kallum_motion_pilot_GIST_update_2,2026.1.1,MacIntel,62.11180124,69a5f3c806b4fe129f9de2d9,69b92ab4aef6dee357cd729a,69b92afe72826cb87b31e95f,0.0253,0.0253,0,110,110,150,1,eightsix,,,,,,,,,,,,,,,,,,,,,,,,,,,,,,,,,,,,,,,,,,,,,,,,,,,,,,,,,,,,,,,,,,,,,,,,,,,,,,,,,,,,,,,,,,,,,,,,,,,,,,,,,,,,,,,,,,,,,,,,,,,,,,,,,,,,,,,,,
,,69a5f3c806b4fe129f9de2d9,2026-03-17_12h23.18.846,kallum_motion_pilot_GIST_update_2,2026.1.1,MacIntel,62.11180124,69a5f3c806b4fe129f9de2d9,69b92ab4aef6dee357cd729a,69b92afe72826cb87b31e95f,0.0253,0.0253,0,111,111,57,1,onethree,,,,,,,,,,,,,,,,,,,,,,,,,,,,,,,,,,,,,,,,,,,,,,,,,,,,,,,,,,,,,,,,,,,,,,,,,,,,,,,,,,,,,,,,,,,,,,,,,,,,,,,,,,,,,,,,,,,,,,,,,,,,,,,,,,,,,,,,,
,,69a5f3c806b4fe129f9de2d9,2026-03-17_12h23.18.846,kallum_motion_pilot_GIST_update_2,2026.1.1,MacIntel,62.11180124,69a5f3c806b4fe129f9de2d9,69b92ab4aef6dee357cd729a,69b92afe72826cb87b31e95f,0.0254,0.0255,0,112,112,148,1,sevenfive,,,,,,,,,,,,,,,,,,,,,,,,,,,,,,,,,,,,,,,,,,,,,,,,,,,,,,,,,,,,,,,,,,,,,,,,,,,,,,,,,,,,,,,,,,,,,,,,,,,,,,,,,,,,,,,,,,,,,,,,,,,,,,,,,,,,,,,,,
,,69a5f3c806b4fe129f9de2d9,2026-03-17_12h23.18.846,kallum_motion_pilot_GIST_update_2,2026.1.1,MacIntel,62.11180124,69a5f3c806b4fe129f9de2d9,69b92ab4aef6dee357cd729a,69b92afe72826cb87b31e95f,0.0256,0.0256,0,113,113,36,1,threeone,,,,,,,,,,,,,,,,,,,,,,,,,,,,,,,,,,,,,,,,,,,,,,,,,,,,,,,,,,,,,,,,,,,,,,,,,,,,,,,,,,,,,,,,,,,,,,,,,,,,,,,,,,,,,,,,,,,,,,,,,,,,,,,,,,,,,,,,,
,,69a5f3c806b4fe129f9de2d9,2026-03-17_12h23.18.846,kallum_motion_pilot_GIST_update_2,2026.1.1,MacIntel,62.11180124,69a5f3c806b4fe129f9de2d9,69b92ab4aef6dee357cd729a,69b92afe72826cb87b31e95f,0.0256,0.0256,0,114,114,135,1,eightseven,,,,,,,,,,,,,,,,,,,,,,,,,,,,,,,,,,,,,,,,,,,,,,,,,,,,,,,,,,,,,,,,,,,,,,,,,,,,,,,,,,,,,,,,,,,,,,,,,,,,,,,,,,,,,,,,,,,,,,,,,,,,,,,,,,,,,,,,,
,,69a5f3c806b4fe129f9de2d9,2026-03-17_12h23.18.846,kallum_motion_pilot_GIST_update_2,2026.1.1,MacIntel,62.11180124,69a5f3c806b4fe129f9de2d9,69b92ab4aef6dee357cd729a,69b92afe72826cb87b31e95f,0.0257,0.0258,0,115,115,89,1,fiveseven,,,,,,,,,,,,,,,,,,,,,,,,,,,,,,,,,,,,,,,,,,,,,,,,,,,,,,,,,,,,,,,,,,,,,,,,,,,,,,,,,,,,,,,,,,,,,,,,,,,,,,,,,,,,,,,,,,,,,,,,,,,,,,,,,,,,,,,,,
,,69a5f3c806b4fe129f9de2d9,2026-03-17_12h23.18.846,kallum_motion_pilot_GIST_update_2,2026.1.1,MacIntel,62.11180124,69a5f3c806b4fe129f9de2d9,69b92ab4aef6dee357cd729a,69b92afe72826cb87b31e95f,0.0258,0.0258,0,116,116,151,1,eightseven,,,,,,,,,,,,,,,,,,,,,,,,,,,,,,,,,,,,,,,,,,,,,,,,,,,,,,,,,,,,,,,,,,,,,,,,,,,,,,,,,,,,,,,,,,,,,,,,,,,,,,,,,,,,,,,,,,,,,,,,,,,,,,,,,,,,,,,,,
,,69a5f3c806b4fe129f9de2d9,2026-03-17_12h23.18.846,kallum_motion_pilot_GIST_update_2,2026.1.1,MacIntel,62.11180124,69a5f3c806b4fe129f9de2d9,69b92ab4aef6dee357cd729a,69b92afe72826cb87b31e95f,0.0259,0.026,0,117,117,110,1,eightsix,,,,,,,,,,,,,,,,,,,,,,,,,,,,,,,,,,,,,,,,,,,,,,,,,,,,,,,,,,,,,,,,,,,,,,,,,,,,,,,,,,,,,,,,,,,,,,,,,,,,,,,,,,,,,,,,,,,,,,,,,,,,,,,,,,,,,,,,,
,,69a5f3c806b4fe129f9de2d9,2026-03-17_12h23.18.846,kallum_motion_pilot_GIST_update_2,2026.1.1,MacIntel,62.11180124,69a5f3c806b4fe129f9de2d9,69b92ab4aef6dee357cd729a,69b92afe72826cb87b31e95f,0.026,0.026,0,118,118,33,1,onethree,,,,,,,,,,,,,,,,,,,,,,,,,,,,,,,,,,,,,,,,,,,,,,,,,,,,,,,,,,,,,,,,,,,,,,,,,,,,,,,,,,,,,,,,,,,,,,,,,,,,,,,,,,,,,,,,,,,,,,,,,,,,,,,,,,,,,,,,,
,,69a5f3c806b4fe129f9de2d9,2026-03-17_12h23.18.846,kallum_motion_pilot_GIST_update_2,2026.1.1,MacIntel,62.11180124,69a5f3c806b4fe129f9de2d9,69b92ab4aef6dee357cd729a,69b92afe72826cb87b31e95f,0.0261,0.0262,0,119,119,149,1,seveneight,,,,,,,,,,,,,,,,,,,,,,,,,,,,,,,,,,,,,,,,,,,,,,,,,,,,,,,,,,,,,,,,,,,,,,,,,,,,,,,,,,,,,,,,,,,,,,,,,,,,,,,,,,,,,,,,,,,,,,,,,,,,,,,,,,,,,,,,,
,,69a5f3c806b4fe129f9de2d9,2026-03-17_12h23.18.846,kallum_motion_pilot_GIST_update_2,2026.1.1,MacIntel,62.11180124,69a5f3c806b4fe129f9de2d9,69b92ab4aef6dee357cd729a,69b92afe72826cb87b31e95f,0.0262,0.0262,0,120,120,146,1,sixfive,,,,,,,,,,,,,,,,,,,,,,,,,,,,,,,,,,,,,,,,,,,,,,,,,,,,,,,,,,,,,,,,,,,,,,,,,,,,,,,,,,,,,,,,,,,,,,,,,,,,,,,,,,,,,,,,,,,,,,,,,,,,,,,,,,,,,,,,,
,,69a5f3c806b4fe129f9de2d9,2026-03-17_12h23.18.846,kallum_motion_pilot_GIST_update_2,2026.1.1,MacIntel,62.11180124,69a5f3c806b4fe129f9de2d9,69b92ab4aef6dee357cd729a,69b92afe72826cb87b31e95f,0.0262,0.0262,0,121,121,123,1,sixeight,,,,,,,,,,,,,,,,,,,,,,,,,,,,,,,,,,,,,,,,,,,,,,,,,,,,,,,,,,,,,,,,,,,,,,,,,,,,,,,,,,,,,,,,,,,,,,,,,,,,,,,,,,,,,,,,,,,,,,,,,,,,,,,,,,,,,,,,,
,,69a5f3c806b4fe129f9de2d9,2026-03-17_12h23.18.846,kallum_motion_pilot_GIST_update_2,2026.1.1,MacIntel,62.11180124,69a5f3c806b4fe129f9de2d9,69b92ab4aef6dee357cd729a,69b92afe72826cb87b31e95f,0.0264,0.0264,0,122,122,67,1,twofour,,,,,,,,,,,,,,,,,,,,,,,,,,,,,,,,,,,,,,,,,,,,,,,,,,,,,,,,,,,,,,,,,,,,,,,,,,,,,,,,,,,,,,,,,,,,,,,,,,,,,,,,,,,,,,,,,,,,,,,,,,,,,,,,,,,,,,,,,
,,69a5f3c806b4fe129f9de2d9,2026-03-17_12h23.18.846,kallum_motion_pilot_GIST_update_2,2026.1.1,MacIntel,62.11180124,69a5f3c806b4fe129f9de2d9,69b92ab4aef6dee357cd729a,69b92afe72826cb87b31e95f,0.0265,0.0265,0,123,123,32,1,onetwo,,,,,,,,,,,,,,,,,,,,,,,,,,,,,,,,,,,,,,,,,,,,,,,,,,,,,,,,,,,,,,,,,,,,,,,,,,,,,,,,,,,,,,,,,,,,,,,,,,,,,,,,,,,,,,,,,,,,,,,,,,,,,,,,,,,,,,,,,
,,69a5f3c806b4fe129f9de2d9,2026-03-17_12h23.18.846,kallum_motion_pilot_GIST_update_2,2026.1.1,MacIntel,62.11180124,69a5f3c806b4fe129f9de2d9,69b92ab4aef6dee357cd729a,69b92afe72826cb87b31e95f,0.0266,0.0266,0,124,124,80,1,fivesix,,,,,,,,,,,,,,,,,,,,,,,,,,,,,,,,,,,,,,,,,,,,,,,,,,,,,,,,,,,,,,,,,,,,,,,,,,,,,,,,,,,,,,,,,,,,,,,,,,,,,,,,,,,,,,,,,,,,,,,,,,,,,,,,,,,,,,,,,
,,69a5f3c806b4fe129f9de2d9,2026-03-17_12h23.18.846,kallum_motion_pilot_GIST_update_2,2026.1.1,MacIntel,62.11180124,69a5f3c806b4fe129f9de2d9,69b92ab4aef6dee357cd729a,69b92afe72826cb87b31e95f,0.0266,0.0266,0,125,125,28,1,threeone,,,,,,,,,,,,,,,,,,,,,,,,,,,,,,,,,,,,,,,,,,,,,,,,,,,,,,,,,,,,,,,,,,,,,,,,,,,,,,,,,,,,,,,,,,,,,,,,,,,,,,,,,,,,,,,,,,,,,,,,,,,,,,,,,,,,,,,,,
,,69a5f3c806b4fe129f9de2d9,2026-03-17_12h23.18.846,kallum_motion_pilot_GIST_update_2,2026.1.1,MacIntel,62.11180124,69a5f3c806b4fe129f9de2d9,69b92ab4aef6dee357cd729a,69b92afe72826cb87b31e95f,0.0267,0.0268,0,126,126,74,1,twoone,,,,,,,,,,,,,,,,,,,,,,,,,,,,,,,,,,,,,,,,,,,,,,,,,,,,,,,,,,,,,,,,,,,,,,,,,,,,,,,,,,,,,,,,,,,,,,,,,,,,,,,,,,,,,,,,,,,,,,,,,,,,,,,,,,,,,,,,,
,,69a5f3c806b4fe129f9de2d9,2026-03-17_12h23.18.846,kallum_motion_pilot_GIST_update_2,2026.1.1,MacIntel,62.11180124,69a5f3c806b4fe129f9de2d9,69b92ab4aef6dee357cd729a,69b92afe72826cb87b31e95f,0.0268,0.0268,0,127,127,21,1,threefour,,,,,,,,,,,,,,,,,,,,,,,,,,,,,,,,,,,,,,,,,,,,,,,,,,,,,,,,,,,,,,,,,,,,,,,,,,,,,,,,,,,,,,,,,,,,,,,,,,,,,,,,,,,,,,,,,,,,,,,,,,,,,,,,,,,,,,,,,
,,69a5f3c806b4fe129f9de2d9,2026-03-17_12h23.18.846,kallum_motion_pilot_GIST_update_2,2026.1.1,MacIntel,62.11180124,69a5f3c806b4fe129f9de2d9,69b92ab4aef6dee357cd729a,69b92afe72826cb87b31e95f,0.0269,0.0269,0,128,128,59,1,twofour,,,,,,,,,,,,,,,,,,,,,,,,,,,,,,,,,,,,,,,,,,,,,,,,,,,,,,,,,,,,,,,,,,,,,,,,,,,,,,,,,,,,,,,,,,,,,,,,,,,,,,,,,,,,,,,,,,,,,,,,,,,,,,,,,,,,,,,,,
,,69a5f3c806b4fe129f9de2d9,2026-03-17_12h23.18.846,kallum_motion_pilot_GIST_update_2,2026.1.1,MacIntel,62.11180124,69a5f3c806b4fe129f9de2d9,69b92ab4aef6dee357cd729a,69b92afe72826cb87b31e95f,0.027,0.027,0,129,129,132,1,sevenfive,,,,,,,,,,,,,,,,,,,,,,,,,,,,,,,,,,,,,,,,,,,,,,,,,,,,,,,,,,,,,,,,,,,,,,,,,,,,,,,,,,,,,,,,,,,,,,,,,,,,,,,,,,,,,,,,,,,,,,,,,,,,,,,,,,,,,,,,,
,,69a5f3c806b4fe129f9de2d9,2026-03-17_12h23.18.846,kallum_motion_pilot_GIST_update_2,2026.1.1,MacIntel,62.11180124,69a5f3c806b4fe129f9de2d9,69b92ab4aef6dee357cd729a,69b92afe72826cb87b31e95f,0.0271,0.0271,0,130,130,85,1,seveneight,,,,,,,,,,,,,,,,,,,,,,,,,,,,,,,,,,,,,,,,,,,,,,,,,,,,,,,,,,,,,,,,,,,,,,,,,,,,,,,,,,,,,,,,,,,,,,,,,,,,,,,,,,,,,,,,,,,,,,,,,,,,,,,,,,,,,,,,,
,,69a5f3c806b4fe129f9de2d9,2026-03-17_12h23.18.846,kallum_motion_pilot_GIST_update_2,2026.1.1,MacIntel,62.11180124,69a5f3c806b4fe129f9de2d9,69b92ab4aef6dee357cd729a,69b92afe72826cb87b31e95f,0.0272,0.0272,0,131,131,44,1,threeone,,,,,,,,,,,,,,,,,,,,,,,,,,,,,,,,,,,,,,,,,,,,,,,,,,,,,,,,,,,,,,,,,,,,,,,,,,,,,,,,,,,,,,,,,,,,,,,,,,,,,,,,,,,,,,,,,,,,,,,,,,,,,,,,,,,,,,,,,
,,69a5f3c806b4fe129f9de2d9,2026-03-17_12h23.18.846,kallum_motion_pilot_GIST_update_2,2026.1.1,MacIntel,62.11180124,69a5f3c806b4fe129f9de2d9,69b92ab4aef6dee357cd729a,69b92afe72826cb87b31e95f,0.0273,0.0273,0,132,132,125,1,seveneight,,,,,,,,,,,,,,,,,,,,,,,,,,,,,,,,,,,,,,,,,,,,,,,,,,,,,,,,,,,,,,,,,,,,,,,,,,,,,,,,,,,,,,,,,,,,,,,,,,,,,,,,,,,,,,,,,,,,,,,,,,,,,,,,,,,,,,,,,
,,69a5f3c806b4fe129f9de2d9,2026-03-17_12h23.18.846,kallum_motion_pilot_GIST_update_2,2026.1.1,MacIntel,62.11180124,69a5f3c806b4fe129f9de2d9,69b92ab4aef6dee357cd729a,69b92afe72826cb87b31e95f,0.0274,0.0274,0,133,133,9,1,onethree,,,,,,,,,,,,,,,,,,,,,,,,,,,,,,,,,,,,,,,,,,,,,,,,,,,,,,,,,,,,,,,,,,,,,,,,,,,,,,,,,,,,,,,,,,,,,,,,,,,,,,,,,,,,,,,,,,,,,,,,,,,,,,,,,,,,,,,,,
,,69a5f3c806b4fe129f9de2d9,2026-03-17_12h23.18.846,kallum_motion_pilot_GIST_update_2,2026.1.1,MacIntel,62.11180124,69a5f3c806b4fe129f9de2d9,69b92ab4aef6dee357cd729a,69b92afe72826cb87b31e95f,0.0275,0.0275,0,134,134,117,1,seveneight,,,,,,,,,,,,,,,,,,,,,,,,,,,,,,,,,,,,,,,,,,,,,,,,,,,,,,,,,,,,,,,,,,,,,,,,,,,,,,,,,,,,,,,,,,,,,,,,,,,,,,,,,,,,,,,,,,,,,,,,,,,,,,,,,,,,,,,,,
,,69a5f3c806b4fe129f9de2d9,2026-03-17_12h23.18.846,kallum_motion_pilot_GIST_update_2,2026.1.1,MacIntel,62.11180124,69a5f3c806b4fe129f9de2d9,69b92ab4aef6dee357cd729a,69b92afe72826cb87b31e95f,0.0275,0.0276,0,135,135,40,1,onetwo,,,,,,,,,,,,,,,,,,,,,,,,,,,,,,,,,,,,,,,,,,,,,,,,,,,,,,,,,,,,,,,,,,,,,,,,,,,,,,,,,,,,,,,,,,,,,,,,,,,,,,,,,,,,,,,,,,,,,,,,,,,,,,,,,,,,,,,,,
,,69a5f3c806b4fe129f9de2d9,2026-03-17_12h23.18.846,kallum_motion_pilot_GIST_update_2,2026.1.1,MacIntel,62.11180124,69a5f3c806b4fe129f9de2d9,69b92ab4aef6dee357cd729a,69b92afe72826cb87b31e95f,0.0277,0.0277,0,136,136,27,1,twofour,,,,,,,,,,,,,,,,,,,,,,,,,,,,,,,,,,,,,,,,,,,,,,,,,,,,,,,,,,,,,,,,,,,,,,,,,,,,,,,,,,,,,,,,,,,,,,,,,,,,,,,,,,,,,,,,,,,,,,,,,,,,,,,,,,,,,,,,,
,,69a5f3c806b4fe129f9de2d9,2026-03-17_12h23.18.846,kallum_motion_pilot_GIST_update_2,2026.1.1,MacIntel,62.11180124,69a5f3c806b4fe129f9de2d9,69b92ab4aef6dee357cd729a,69b92afe72826cb87b31e95f,0.0277,0.0277,0,137,137,139,1,sixeight,,,,,,,,,,,,,,,,,,,,,,,,,,,,,,,,,,,,,,,,,,,,,,,,,,,,,,,,,,,,,,,,,,,,,,,,,,,,,,,,,,,,,,,,,,,,,,,,,,,,,,,,,,,,,,,,,,,,,,,,,,,,,,,,,,,,,,,,,
,,69a5f3c806b4fe129f9de2d9,2026-03-17_12h23.18.846,kallum_motion_pilot_GIST_update_2,2026.1.1,MacIntel,62.11180124,69a5f3c806b4fe129f9de2d9,69b92ab4aef6dee357cd729a,69b92afe72826cb87b31e95f,0.0279,0.0279,0,138,138,137,1,fiveseven,,,,,,,,,,,,,,,,,,,,,,,,,,,,,,,,,,,,,,,,,,,,,,,,,,,,,,,,,,,,,,,,,,,,,,,,,,,,,,,,,,,,,,,,,,,,,,,,,,,,,,,,,,,,,,,,,,,,,,,,,,,,,,,,,,,,,,,,,
,,69a5f3c806b4fe129f9de2d9,2026-03-17_12h23.18.846,kallum_motion_pilot_GIST_update_2,2026.1.1,MacIntel,62.11180124,69a5f3c806b4fe129f9de2d9,69b92ab4aef6dee357cd729a,69b92afe72826cb87b31e95f,0.0279,0.028,0,139,139,18,1,twoone,,,,,,,,,,,,,,,,,,,,,,,,,,,,,,,,,,,,,,,,,,,,,,,,,,,,,,,,,,,,,,,,,,,,,,,,,,,,,,,,,,,,,,,,,,,,,,,,,,,,,,,,,,,,,,,,,,,,,,,,,,,,,,,,,,,,,,,,,
,,69a5f3c806b4fe129f9de2d9,2026-03-17_12h23.18.846,kallum_motion_pilot_GIST_update_2,2026.1.1,MacIntel,62.11180124,69a5f3c806b4fe129f9de2d9,69b92ab4aef6dee357cd729a,69b92afe72826cb87b31e95f,0.028,0.0281,0,140,140,6,1,fourtwo,,,,,,,,,,,,,,,,,,,,,,,,,,,,,,,,,,,,,,,,,,,,,,,,,,,,,,,,,,,,,,,,,,,,,,,,,,,,,,,,,,,,,,,,,,,,,,,,,,,,,,,,,,,,,,,,,,,,,,,,,,,,,,,,,,,,,,,,,
,,69a5f3c806b4fe129f9de2d9,2026-03-17_12h23.18.846,kallum_motion_pilot_GIST_update_2,2026.1.1,MacIntel,62.11180124,69a5f3c806b4fe129f9de2d9,69b92ab4aef6dee357cd729a,69b92afe72826cb87b31e95f,0.0281,0.0282,0,141,141,45,1,threefour,,,,,,,,,,,,,,,,,,,,,,,,,,,,,,,,,,,,,,,,,,,,,,,,,,,,,,,,,,,,,,,,,,,,,,,,,,,,,,,,,,,,,,,,,,,,,,,,,,,,,,,,,,,,,,,,,,,,,,,,,,,,,,,,,,,,,,,,,
,,69a5f3c806b4fe129f9de2d9,2026-03-17_12h23.18.846,kallum_motion_pilot_GIST_update_2,2026.1.1,MacIntel,62.11180124,69a5f3c806b4fe129f9de2d9,69b92ab4aef6dee357cd729a,69b92afe72826cb87b31e95f,0.0283,0.0283,0,142,142,112,1,fivesix,,,,,,,,,,,,,,,,,,,,,,,,,,,,,,,,,,,,,,,,,,,,,,,,,,,,,,,,,,,,,,,,,,,,,,,,,,,,,,,,,,,,,,,,,,,,,,,,,,,,,,,,,,,,,,,,,,,,,,,,,,,,,,,,,,,,,,,,,
,,69a5f3c806b4fe129f9de2d9,2026-03-17_12h23.18.846,kallum_motion_pilot_GIST_update_2,2026.1.1,MacIntel,62.11180124,69a5f3c806b4fe129f9de2d9,69b92ab4aef6dee357cd729a,69b92afe72826cb87b31e95f,0.0283,0.0284,0,143,143,50,1,twoone,,,,,,,,,,,,,,,,,,,,,,,,,,,,,,,,,,,,,,,,,,,,,,,,,,,,,,,,,,,,,,,,,,,,,,,,,,,,,,,,,,,,,,,,,,,,,,,,,,,,,,,,,,,,,,,,,,,,,,,,,,,,,,,,,,,,,,,,,
,,69a5f3c806b4fe129f9de2d9,2026-03-17_12h23.18.846,kallum_motion_pilot_GIST_update_2,2026.1.1,MacIntel,62.11180124,69a5f3c806b4fe129f9de2d9,69b92ab4aef6dee357cd729a,69b92afe72826cb87b31e95f,0.0284,0.0284,0,144,144,48,1,onetwo,,,,,,,,,,,,,,,,,,,,,,,,,,,,,,,,,,,,,,,,,,,,,,,,,,,,,,,,,,,,,,,,,,,,,,,,,,,,,,,,,,,,,,,,,,,,,,,,,,,,,,,,,,,,,,,,,,,,,,,,,,,,,,,,,,,,,,,,,
,,69a5f3c806b4fe129f9de2d9,2026-03-17_12h23.18.846,kallum_motion_pilot_GIST_update_2,2026.1.1,MacIntel,62.11180124,69a5f3c806b4fe129f9de2d9,69b92ab4aef6dee357cd729a,69b92afe72826cb87b31e95f,0.0285,0.0285,0,145,145,159,1,eightseven,,,,,,,,,,,,,,,,,,,,,,,,,,,,,,,,,,,,,,,,,,,,,,,,,,,,,,,,,,,,,,,,,,,,,,,,,,,,,,,,,,,,,,,,,,,,,,,,,,,,,,,,,,,,,,,,,,,,,,,,,,,,,,,,,,,,,,,,,
,,69a5f3c806b4fe129f9de2d9,2026-03-17_12h23.18.846,kallum_motion_pilot_GIST_update_2,2026.1.1,MacIntel,62.11180124,69a5f3c806b4fe129f9de2d9,69b92ab4aef6dee357cd729a,69b92afe72826cb87b31e95f,0.0286,0.0286,0,146,146,25,1,onethree,,,,,,,,,,,,,,,,,,,,,,,,,,,,,,,,,,,,,,,,,,,,,,,,,,,,,,,,,,,,,,,,,,,,,,,,,,,,,,,,,,,,,,,,,,,,,,,,,,,,,,,,,,,,,,,,,,,,,,,,,,,,,,,,,,,,,,,,,
,,69a5f3c806b4fe129f9de2d9,2026-03-17_12h23.18.846,kallum_motion_pilot_GIST_update_2,2026.1.1,MacIntel,62.11180124,69a5f3c806b4fe129f9de2d9,69b92ab4aef6dee357cd729a,69b92afe72826cb87b31e95f,0.0287,0.0287,0,147,147,94,1,eightsix,,,,,,,,,,,,,,,,,,,,,,,,,,,,,,,,,,,,,,,,,,,,,,,,,,,,,,,,,,,,,,,,,,,,,,,,,,,,,,,,,,,,,,,,,,,,,,,,,,,,,,,,,,,,,,,,,,,,,,,,,,,,,,,,,,,,,,,,,
,,69a5f3c806b4fe129f9de2d9,2026-03-17_12h23.18.846,kallum_motion_pilot_GIST_update_2,2026.1.1,MacIntel,62.11180124,69a5f3c806b4fe129f9de2d9,69b92ab4aef6dee357cd729a,69b92afe72826cb87b31e95f,0.0287,0.0287,0,148,148,152,1,fivesix,,,,,,,,,,,,,,,,,,,,,,,,,,,,,,,,,,,,,,,,,,,,,,,,,,,,,,,,,,,,,,,,,,,,,,,,,,,,,,,,,,,,,,,,,,,,,,,,,,,,,,,,,,,,,,,,,,,,,,,,,,,,,,,,,,,,,,,,,
,,69a5f3c806b4fe129f9de2d9,2026-03-17_12h23.18.846,kallum_motion_pilot_GIST_update_2,2026.1.1,MacIntel,62.11180124,69a5f3c806b4fe129f9de2d9,69b92ab4aef6dee357cd729a,69b92afe72826cb87b31e95f,0.0288,0.0288,0,149,149,126,1,eightsix,,,,,,,,,,,,,,,,,,,,,,,,,,,,,,,,,,,,,,,,,,,,,,,,,,,,,,,,,,,,,,,,,,,,,,,,,,,,,,,,,,,,,,,,,,,,,,,,,,,,,,,,,,,,,,,,,,,,,,,,,,,,,,,,,,,,,,,,,
,,69a5f3c806b4fe129f9de2d9,2026-03-17_12h23.18.846,kallum_motion_pilot_GIST_update_2,2026.1.1,MacIntel,62.11180124,69a5f3c806b4fe129f9de2d9,69b92ab4aef6dee357cd729a,69b92afe72826cb87b31e95f,0.0289,0.029,0,150,150,14,1,fourtwo,,,,,,,,,,,,,,,,,,,,,,,,,,,,,,,,,,,,,,,,,,,,,,,,,,,,,,,,,,,,,,,,,,,,,,,,,,,,,,,,,,,,,,,,,,,,,,,,,,,,,,,,,,,,,,,,,,,,,,,,,,,,,,,,,,,,,,,,,
,,69a5f3c806b4fe129f9de2d9,2026-03-17_12h23.18.846,kallum_motion_pilot_GIST_update_2,2026.1.1,MacIntel,62.11180124,69a5f3c806b4fe129f9de2d9,69b92ab4aef6dee357cd729a,69b92afe72826cb87b31e95f,0.029,0.029,0,151,151,65,1,onethree,,,,,,,,,,,,,,,,,,,,,,,,,,,,,,,,,,,,,,,,,,,,,,,,,,,,,,,,,,,,,,,,,,,,,,,,,,,,,,,,,,,,,,,,,,,,,,,,,,,,,,,,,,,,,,,,,,,,,,,,,,,,,,,,,,,,,,,,,
,,69a5f3c806b4fe129f9de2d9,2026-03-17_12h23.18.846,kallum_motion_pilot_GIST_update_2,2026.1.1,MacIntel,62.11180124,69a5f3c806b4fe129f9de2d9,69b92ab4aef6dee357cd729a,69b92afe72826cb87b31e95f,0.0291,0.0291,0,152,152,78,1,fourtwo,,,,,,,,,,,,,,,,,,,,,,,,,,,,,,,,,,,,,,,,,,,,,,,,,,,,,,,,,,,,,,,,,,,,,,,,,,,,,,,,,,,,,,,,,,,,,,,,,,,,,,,,,,,,,,,,,,,,,,,,,,,,,,,,,,,,,,,,,
,,69a5f3c806b4fe129f9de2d9,2026-03-17_12h23.18.846,kallum_motion_pilot_GIST_update_2,2026.1.1,MacIntel,62.11180124,69a5f3c806b4fe129f9de2d9,69b92ab4aef6dee357cd729a,69b92afe72826cb87b31e95f,0.0292,0.0292,0,153,153,91,1,sixeight,,,,,,,,,,,,,,,,,,,,,,,,,,,,,,,,,,,,,,,,,,,,,,,,,,,,,,,,,,,,,,,,,,,,,,,,,,,,,,,,,,,,,,,,,,,,,,,,,,,,,,,,,,,,,,,,,,,,,,,,,,,,,,,,,,,,,,,,,
,,69a5f3c806b4fe129f9de2d9,2026-03-17_12h23.18.846,kallum_motion_pilot_GIST_update_2,2026.1.1,MacIntel,62.11180124,69a5f3c806b4fe129f9de2d9,69b92ab4aef6dee357cd729a,69b92afe72826cb87b31e95f,0.0293,0.0293,0,154,154,8,1,onetwo,,,,,,,,,,,,,,,,,,,,,,,,,,,,,,,,,,,,,,,,,,,,,,,,,,,,,,,,,,,,,,,,,,,,,,,,,,,,,,,,,,,,,,,,,,,,,,,,,,,,,,,,,,,,,,,,,,,,,,,,,,,,,,,,,,,,,,,,,
,,69a5f3c806b4fe129f9de2d9,2026-03-17_12h23.18.846,kallum_motion_pilot_GIST_update_2,2026.1.1,MacIntel,62.11180124,69a5f3c806b4fe129f9de2d9,69b92ab4aef6dee357cd729a,69b92afe72826cb87b31e95f,0.0294,0.0294,0,155,155,35,1,twofour,,,,,,,,,,,,,,,,,,,,,,,,,,,,,,,,,,,,,,,,,,,,,,,,,,,,,,,,,,,,,,,,,,,,,,,,,,,,,,,,,,,,,,,,,,,,,,,,,,,,,,,,,,,,,,,,,,,,,,,,,,,,,,,,,,,,,,,,,
,,69a5f3c806b4fe129f9de2d9,2026-03-17_12h23.18.846,kallum_motion_pilot_GIST_update_2,2026.1.1,MacIntel,62.11180124,69a5f3c806b4fe129f9de2d9,69b92ab4aef6dee357cd729a,69b92afe72826cb87b31e95f,0.0295,0.0295,0,156,156,161,1,fiveseven,,,,,,,,,,,,,,,,,,,,,,,,,,,,,,,,,,,,,,,,,,,,,,,,,,,,,,,,,,,,,,,,,,,,,,,,,,,,,,,,,,,,,,,,,,,,,,,,,,,,,,,,,,,,,,,,,,,,,,,,,,,,,,,,,,,,,,,,,
,,69a5f3c806b4fe129f9de2d9,2026-03-17_12h23.18.846,kallum_motion_pilot_GIST_update_2,2026.1.1,MacIntel,62.11180124,69a5f3c806b4fe129f9de2d9,69b92ab4aef6dee357cd729a,69b92afe72826cb87b31e95f,0.0296,0.0296,0,157,157,145,1,fiveseven,,,,,,,,,,,,,,,,,,,,,,,,,,,,,,,,,,,,,,,,,,,,,,,,,,,,,,,,,,,,,,,,,,,,,,,,,,,,,,,,,,,,,,,,,,,,,,,,,,,,,,,,,,,,,,,,,,,,,,,,,,,,,,,,,,,,,,,,,
,,69a5f3c806b4fe129f9de2d9,2026-03-17_12h23.18.846,kallum_motion_pilot_GIST_update_2,2026.1.1,MacIntel,62.11180124,69a5f3c806b4fe129f9de2d9,69b92ab4aef6dee357cd729a,69b92afe72826cb87b31e95f,0.0297,0.0297,0,158,158,108,1,sevenfive,,,,,,,,,,,,,,,,,,,,,,,,,,,,,,,,,,,,,,,,,,,,,,,,,,,,,,,,,,,,,,,,,,,,,,,,,,,,,,,,,,,,,,,,,,,,,,,,,,,,,,,,,,,,,,,,,,,,,,,,,,,,,,,,,,,,,,,,,
,,69a5f3c806b4fe129f9de2d9,2026-03-17_12h23.18.846,kallum_motion_pilot_GIST_update_2,2026.1.1,MacIntel,62.11180124,69a5f3c806b4fe129f9de2d9,69b92ab4aef6dee357cd729a,69b92afe72826cb87b31e95f,0.0298,0.0298,0,159,159,76,1,threeone,,,,,,,,,,,,,,,,,,,,,,,,,,,,,,,,,,,,,,,,,,,,,,,,,,,,,,,,,,,,,,,,,,,,,,,,,,,,,,,,,,,,,,,,,,,,,,,,,,,,,,,,,,,,,,,,,,,,,,,,,,,,,,,,,,,,,,,,,
,,69a5f3c806b4fe129f9de2d9,2026-03-17_12h23.18.846,kallum_motion_pilot_GIST_update_2,2026.1.1,MacIntel,62.11180124,69a5f3c806b4fe129f9de2d9,69b92ab4aef6dee357cd729a,69b92afe72826cb87b31e95f,0.0299,0.0299,0,160,160,34,1,twoone,,,,,,,,,,,,,,,,,,,,,,,,,,,,,,,,,,,,,,,,,,,,,,,,,,,,,,,,,,,,,,,,,,,,,,,,,,,,,,,,,,,,,,,,,,,,,,,,,,,,,,,,,,,,,,,,,,,,,,,,,,,,,,,,,,,,,,,,,
,,69a5f3c806b4fe129f9de2d9,2026-03-17_12h23.18.846,kallum_motion_pilot_GIST_update_2,2026.1.1,MacIntel,62.11180124,69a5f3c806b4fe129f9de2d9,69b92ab4aef6dee357cd729a,69b92afe72826cb87b31e95f,0.03,0.03,0,161,161,82,1,sixfive,,,,,,,,,,,,,,,,,,,,,,,,,,,,,,,,,,,,,,,,,,,,,,,,,,,,,,,,,,,,,,,,,,,,,,,,,,,,,,,,,,,,,,,,,,,,,,,,,,,,,,,,,,,,,,,,,,,,,,,,,,,,,,,,,,,,,,,,,
,,69a5f3c806b4fe129f9de2d9,2026-03-17_12h23.18.846,kallum_motion_pilot_GIST_update_2,2026.1.1,MacIntel,62.11180124,69a5f3c806b4fe129f9de2d9,69b92ab4aef6dee357cd729a,69b92afe72826cb87b31e95f,0.03,0.0301,1,0,162,45,1,threefour,,,,,,,,,,,,,,,,,,,,,,,,,,,,,,,,,,,,,,,,,,,,,,,,,,,,,,,,,,,,,,,,,,,,,,,,,,,,,,,,,,,,,,,,,,,,,,,,,,,,,,,,,,,,,,,,,,,,,,,,,,,,,,,,,,,,,,,,,
,,69a5f3c806b4fe129f9de2d9,2026-03-17_12h23.18.846,kallum_motion_pilot_GIST_update_2,2026.1.1,MacIntel,62.11180124,69a5f3c806b4fe129f9de2d9,69b92ab4aef6dee357cd729a,69b92afe72826cb87b31e95f,0.0302,0.0302,1,1,163,145,1,fiveseven,,,,,,,,,,,,,,,,,,,,,,,,,,,,,,,,,,,,,,,,,,,,,,,,,,,,,,,,,,,,,,,,,,,,,,,,,,,,,,,,,,,,,,,,,,,,,,,,,,,,,,,,,,,,,,,,,,,,,,,,,,,,,,,,,,,,,,,,,
,,69a5f3c806b4fe129f9de2d9,2026-03-17_12h23.18.846,kallum_motion_pilot_GIST_update_2,2026.1.1,MacIntel,62.11180124,69a5f3c806b4fe129f9de2d9,69b92ab4aef6dee357cd729a,69b92afe72826cb87b31e95f,0.0303,0.0303,1,2,164,96,1,fivesix,,,,,,,,,,,,,,,,,,,,,,,,,,,,,,,,,,,,,,,,,,,,,,,,,,,,,,,,,,,,,,,,,,,,,,,,,,,,,,,,,,,,,,,,,,,,,,,,,,,,,,,,,,,,,,,,,,,,,,,,,,,,,,,,,,,,,,,,,
,,69a5f3c806b4fe129f9de2d9,2026-03-17_12h23.18.846,kallum_motion_pilot_GIST_update_2,2026.1.1,MacIntel,62.11180124,69a5f3c806b4fe129f9de2d9,69b92ab4aef6dee357cd729a,69b92afe72826cb87b31e95f,0.0303,0.0303,1,3,165,119,1,eightseven,,,,,,,,,,,,,,,,,,,,,,,,,,,,,,,,,,,,,,,,,,,,,,,,,,,,,,,,,,,,,,,,,,,,,,,,,,,,,,,,,,,,,,,,,,,,,,,,,,,,,,,,,,,,,,,,,,,,,,,,,,,,,,,,,,,,,,,,,
,,69a5f3c806b4fe129f9de2d9,2026-03-17_12h23.18.846,kallum_motion_pilot_GIST_update_2,2026.1.1,MacIntel,62.11180124,69a5f3c806b4fe129f9de2d9,69b92ab4aef6dee357cd729a,69b92afe72826cb87b31e95f,0.0304,0.0304,1,4,166,113,1,fiveseven,,,,,,,,,,,,,,,,,,,,,,,,,,,,,,,,,,,,,,,,,,,,,,,,,,,,,,,,,,,,,,,,,,,,,,,,,,,,,,,,,,,,,,,,,,,,,,,,,,,,,,,,,,,,,,,,,,,,,,,,,,,,,,,,,,,,,,,,,
,,69a5f3c806b4fe129f9de2d9,2026-03-17_12h23.18.846,kallum_motion_pilot_GIST_update_2,2026.1.1,MacIntel,62.11180124,69a5f3c806b4fe129f9de2d9,69b92ab4aef6dee357cd729a,69b92afe72826cb87b31e95f,0.0305,0.0305,1,5,167,6,1,fourtwo,,,,,,,,,,,,,,,,,,,,,,,,,,,,,,,,,,,,,,,,,,,,,,,,,,,,,,,,,,,,,,,,,,,,,,,,,,,,,,,,,,,,,,,,,,,,,,,,,,,,,,,,,,,,,,,,,,,,,,,,,,,,,,,,,,,,,,,,,
,,69a5f3c806b4fe129f9de2d9,2026-03-17_12h23.18.846,kallum_motion_pilot_GIST_update_2,2026.1.1,MacIntel,62.11180124,69a5f3c806b4fe129f9de2d9,69b92ab4aef6dee357cd729a,69b92afe72826cb87b31e95f,0.0306,0.0306,1,6,168,161,1,fiveseven,,,,,,,,,,,,,,,,,,,,,,,,,,,,,,,,,,,,,,,,,,,,,,,,,,,,,,,,,,,,,,,,,,,,,,,,,,,,,,,,,,,,,,,,,,,,,,,,,,,,,,,,,,,,,,,,,,,,,,,,,,,,,,,,,,,,,,,,,
,,69a5f3c806b4fe129f9de2d9,2026-03-17_12h23.18.846,kallum_motion_pilot_GIST_update_2,2026.1.1,MacIntel,62.11180124,69a5f3c806b4fe129f9de2d9,69b92ab4aef6dee357cd729a,69b92afe72826cb87b31e95f,0.0307,0.0307,1,7,169,14,1,fourtwo,,,,,,,,,,,,,,,,,,,,,,,,,,,,,,,,,,,,,,,,,,,,,,,,,,,,,,,,,,,,,,,,,,,,,,,,,,,,,,,,,,,,,,,,,,,,,,,,,,,,,,,,,,,,,,,,,,,,,,,,,,,,,,,,,,,,,,,,,
,,69a5f3c806b4fe129f9de2d9,2026-03-17_12h23.18.846,kallum_motion_pilot_GIST_update_2,2026.1.1,MacIntel,62.11180124,69a5f3c806b4fe129f9de2d9,69b92ab4aef6dee357cd729a,69b92afe72826cb87b31e95f,0.0308,0.0308,1,8,170,36,1,threeone,,,,,,,,,,,,,,,,,,,,,,,,,,,,,,,,,,,,,,,,,,,,,,,,,,,,,,,,,,,,,,,,,,,,,,,,,,,,,,,,,,,,,,,,,,,,,,,,,,,,,,,,,,,,,,,,,,,,,,,,,,,,,,,,,,,,,,,,,
,,69a5f3c806b4fe129f9de2d9,2026-03-17_12h23.18.846,kallum_motion_pilot_GIST_update_2,2026.1.1,MacIntel,62.11180124,69a5f3c806b4fe129f9de2d9,69b92ab4aef6dee357cd729a,69b92afe72826cb87b31e95f,0.0309,0.0309,1,9,171,17,1,onethree,,,,,,,,,,,,,,,,,,,,,,,,,,,,,,,,,,,,,,,,,,,,,,,,,,,,,,,,,,,,,,,,,,,,,,,,,,,,,,,,,,,,,,,,,,,,,,,,,,,,,,,,,,,,,,,,,,,,,,,,,,,,,,,,,,,,,,,,,
,,69a5f3c806b4fe129f9de2d9,2026-03-17_12h23.18.846,kallum_motion_pilot_GIST_update_2,2026.1.1,MacIntel,62.11180124,69a5f3c806b4fe129f9de2d9,69b92ab4aef6dee357cd729a,69b92afe72826cb87b31e95f,0.031,0.031,1,10,172,62,1,fourtwo,,,,,,,,,,,,,,,,,,,,,,,,,,,,,,,,,,,,,,,,,,,,,,,,,,,,,,,,,,,,,,,,,,,,,,,,,,,,,,,,,,,,,,,,,,,,,,,,,,,,,,,,,,,,,,,,,,,,,,,,,,,,,,,,,,,,,,,,,
,,69a5f3c806b4fe129f9de2d9,2026-03-17_12h23.18.846,kallum_motion_pilot_GIST_update_2,2026.1.1,MacIntel,62.11180124,69a5f3c806b4fe129f9de2d9,69b92ab4aef6dee357cd729a,69b92afe72826cb87b31e95f,0.0311,0.0311,1,11,173,70,1,fourtwo,,,,,,,,,,,,,,,,,,,,,,,,,,,,,,,,,,,,,,,,,,,,,,,,,,,,,,,,,,,,,,,,,,,,,,,,,,,,,,,,,,,,,,,,,,,,,,,,,,,,,,,,,,,,,,,,,,,,,,,,,,,,,,,,,,,,,,,,,
,,69a5f3c806b4fe129f9de2d9,2026-03-17_12h23.18.846,kallum_motion_pilot_GIST_update_2,2026.1.1,MacIntel,62.11180124,69a5f3c806b4fe129f9de2d9,69b92ab4aef6dee357cd729a,69b92afe72826cb87b31e95f,0.0312,0.0312,1,12,174,78,1,fourtwo,,,,,,,,,,,,,,,,,,,,,,,,,,,,,,,,,,,,,,,,,,,,,,,,,,,,,,,,,,,,,,,,,,,,,,,,,,,,,,,,,,,,,,,,,,,,,,,,,,,,,,,,,,,,,,,,,,,,,,,,,,,,,,,,,,,,,,,,,
,,69a5f3c806b4fe129f9de2d9,2026-03-17_12h23.18.846,kallum_motion_pilot_GIST_update_2,2026.1.1,MacIntel,62.11180124,69a5f3c806b4fe129f9de2d9,69b92ab4aef6dee357cd729a,69b92afe72826cb87b31e95f,0.0313,0.0313,1,13,175,123,1,sixeight,,,,,,,,,,,,,,,,,,,,,,,,,,,,,,,,,,,,,,,,,,,,,,,,,,,,,,,,,,,,,,,,,,,,,,,,,,,,,,,,,,,,,,,,,,,,,,,,,,,,,,,,,,,,,,,,,,,,,,,,,,,,,,,,,,,,,,,,,
,,69a5f3c806b4fe129f9de2d9,2026-03-17_12h23.18.846,kallum_motion_pilot_GIST_update_2,2026.1.1,MacIntel,62.11180124,69a5f3c806b4fe129f9de2d9,69b92ab4aef6dee357cd729a,69b92afe72826cb87b31e95f,0.0313,0.0314,1,14,176,82,1,sixfive,,,,,,,,,,,,,,,,,,,,,,,,,,,,,,,,,,,,,,,,,,,,,,,,,,,,,,,,,,,,,,,,,,,,,,,,,,,,,,,,,,,,,,,,,,,,,,,,,,,,,,,,,,,,,,,,,,,,,,,,,,,,,,,,,,,,,,,,,
,,69a5f3c806b4fe129f9de2d9,2026-03-17_12h23.18.846,kallum_motion_pilot_GIST_update_2,2026.1.1,MacIntel,62.11180124,69a5f3c806b4fe129f9de2d9,69b92ab4aef6dee357cd729a,69b92afe72826cb87b31e95f,0.0315,0.0315,1,15,177,125,1,seveneight,,,,,,,,,,,,,,,,,,,,,,,,,,,,,,,,,,,,,,,,,,,,,,,,,,,,,,,,,,,,,,,,,,,,,,,,,,,,,,,,,,,,,,,,,,,,,,,,,,,,,,,,,,,,,,,,,,,,,,,,,,,,,,,,,,,,,,,,,
,,69a5f3c806b4fe129f9de2d9,2026-03-17_12h23.18.846,kallum_motion_pilot_GIST_update_2,2026.1.1,MacIntel,62.11180124,69a5f3c806b4fe129f9de2d9,69b92ab4aef6dee357cd729a,69b92afe72826cb87b31e95f,0.0315,0.0315,1,16,178,15,1,fourthree,,,,,,,,,,,,,,,,,,,,,,,,,,,,,,,,,,,,,,,,,,,,,,,,,,,,,,,,,,,,,,,,,,,,,,,,,,,,,,,,,,,,,,,,,,,,,,,,,,,,,,,,,,,,,,,,,,,,,,,,,,,,,,,,,,,,,,,,,
,,69a5f3c806b4fe129f9de2d9,2026-03-17_12h23.18.846,kallum_motion_pilot_GIST_update_2,2026.1.1,MacIntel,62.11180124,69a5f3c806b4fe129f9de2d9,69b92ab4aef6dee357cd729a,69b92afe72826cb87b31e95f,0.0317,0.0317,1,17,179,12,1,threeone,,,,,,,,,,,,,,,,,,,,,,,,,,,,,,,,,,,,,,,,,,,,,,,,,,,,,,,,,,,,,,,,,,,,,,,,,,,,,,,,,,,,,,,,,,,,,,,,,,,,,,,,,,,,,,,,,,,,,,,,,,,,,,,,,,,,,,,,,
,,69a5f3c806b4fe129f9de2d9,2026-03-17_12h23.18.846,kallum_motion_pilot_GIST_update_2,2026.1.1,MacIntel,62.11180124,69a5f3c806b4fe129f9de2d9,69b92ab4aef6dee357cd729a,69b92afe72826cb87b31e95f,0.0318,0.0318,1,18,180,77,1,threefour,,,,,,,,,,,,,,,,,,,,,,,,,,,,,,,,,,,,,,,,,,,,,,,,,,,,,,,,,,,,,,,,,,,,,,,,,,,,,,,,,,,,,,,,,,,,,,,,,,,,,,,,,,,,,,,,,,,,,,,,,,,,,,,,,,,,,,,,,
,,69a5f3c806b4fe129f9de2d9,2026-03-17_12h23.18.846,kallum_motion_pilot_GIST_update_2,2026.1.1,MacIntel,62.11180124,69a5f3c806b4fe129f9de2d9,69b92ab4aef6dee357cd729a,69b92afe72826cb87b31e95f,0.0318,0.0319,1,19,181,116,1,sevenfive,,,,,,,,,,,,,,,,,,,,,,,,,,,,,,,,,,,,,,,,,,,,,,,,,,,,,,,,,,,,,,,,,,,,,,,,,,,,,,,,,,,,,,,,,,,,,,,,,,,,,,,,,,,,,,,,,,,,,,,,,,,,,,,,,,,,,,,,,
,,69a5f3c806b4fe129f9de2d9,2026-03-17_12h23.18.846,kallum_motion_pilot_GIST_update_2,2026.1.1,MacIntel,62.11180124,69a5f3c806b4fe129f9de2d9,69b92ab4aef6dee357cd729a,69b92afe72826cb87b31e95f,0.0319,0.032,1,20,182,40,1,onetwo,,,,,,,,,,,,,,,,,,,,,,,,,,,,,,,,,,,,,,,,,,,,,,,,,,,,,,,,,,,,,,,,,,,,,,,,,,,,,,,,,,,,,,,,,,,,,,,,,,,,,,,,,,,,,,,,,,,,,,,,,,,,,,,,,,,,,,,,,
,,69a5f3c806b4fe129f9de2d9,2026-03-17_12h23.18.846,kallum_motion_pilot_GIST_update_2,2026.1.1,MacIntel,62.11180124,69a5f3c806b4fe129f9de2d9,69b92ab4aef6dee357cd729a,69b92afe72826cb87b31e95f,0.032,0.0321,1,21,183,86,1,eightsix,,,,,,,,,,,,,,,,,,,,,,,,,,,,,,,,,,,,,,,,,,,,,,,,,,,,,,,,,,,,,,,,,,,,,,,,,,,,,,,,,,,,,,,,,,,,,,,,,,,,,,,,,,,,,,,,,,,,,,,,,,,,,,,,,,,,,,,,,
,,69a5f3c806b4fe129f9de2d9,2026-03-17_12h23.18.846,kallum_motion_pilot_GIST_update_2,2026.1.1,MacIntel,62.11180124,69a5f3c806b4fe129f9de2d9,69b92ab4aef6dee357cd729a,69b92afe72826cb87b31e95f,0.0321,0.0321,1,22,184,80,1,fivesix,,,,,,,,,,,,,,,,,,,,,,,,,,,,,,,,,,,,,,,,,,,,,,,,,,,,,,,,,,,,,,,,,,,,,,,,,,,,,,,,,,,,,,,,,,,,,,,,,,,,,,,,,,,,,,,,,,,,,,,,,,,,,,,,,,,,,,,,,
,,69a5f3c806b4fe129f9de2d9,2026-03-17_12h23.18.846,kallum_motion_pilot_GIST_update_2,2026.1.1,MacIntel,62.11180124,69a5f3c806b4fe129f9de2d9,69b92ab4aef6dee357cd729a,69b92afe72826cb87b31e95f,0.0322,0.0322,1,23,185,50,1,twoone,,,,,,,,,,,,,,,,,,,,,,,,,,,,,,,,,,,,,,,,,,,,,,,,,,,,,,,,,,,,,,,,,,,,,,,,,,,,,,,,,,,,,,,,,,,,,,,,,,,,,,,,,,,,,,,,,,,,,,,,,,,,,,,,,,,,,,,,,
,,69a5f3c806b4fe129f9de2d9,2026-03-17_12h23.18.846,kallum_motion_pilot_GIST_update_2,2026.1.1,MacIntel,62.11180124,69a5f3c806b4fe129f9de2d9,69b92ab4aef6dee357cd729a,69b92afe72826cb87b31e95f,0.0322,0.0322,1,24,186,13,1,threefour,,,,,,,,,,,,,,,,,,,,,,,,,,,,,,,,,,,,,,,,,,,,,,,,,,,,,,,,,,,,,,,,,,,,,,,,,,,,,,,,,,,,,,,,,,,,,,,,,,,,,,,,,,,,,,,,,,,,,,,,,,,,,,,,,,,,,,,,,
,,69a5f3c806b4fe129f9de2d9,2026-03-17_12h23.18.846,kallum_motion_pilot_GIST_update_2,2026.1.1,MacIntel,62.11180124,69a5f3c806b4fe129f9de2d9,69b92ab4aef6dee357cd729a,69b92afe72826cb87b31e95f,0.0324,0.0324,1,25,187,20,1,threeone,,,,,,,,,,,,,,,,,,,,,,,,,,,,,,,,,,,,,,,,,,,,,,,,,,,,,,,,,,,,,,,,,,,,,,,,,,,,,,,,,,,,,,,,,,,,,,,,,,,,,,,,,,,,,,,,,,,,,,,,,,,,,,,,,,,,,,,,,
,,69a5f3c806b4fe129f9de2d9,2026-03-17_12h23.18.846,kallum_motion_pilot_GIST_update_2,2026.1.1,MacIntel,62.11180124,69a5f3c806b4fe129f9de2d9,69b92ab4aef6dee357cd729a,69b92afe72826cb87b31e95f,0.0324,0.0325,1,26,188,74,1,twoone,,,,,,,,,,,,,,,,,,,,,,,,,,,,,,,,,,,,,,,,,,,,,,,,,,,,,,,,,,,,,,,,,,,,,,,,,,,,,,,,,,,,,,,,,,,,,,,,,,,,,,,,,,,,,,,,,,,,,,,,,,,,,,,,,,,,,,,,,
,,69a5f3c806b4fe129f9de2d9,2026-03-17_12h23.18.846,kallum_motion_pilot_GIST_update_2,2026.1.1,MacIntel,62.11180124,69a5f3c806b4fe129f9de2d9,69b92ab4aef6dee357cd729a,69b92afe72826cb87b31e95f,0.0325,0.0326,1,27,189,1,1,onethree,,,,,,,,,,,,,,,,,,,,,,,,,,,,,,,,,,,,,,,,,,,,,,,,,,,,,,,,,,,,,,,,,,,,,,,,,,,,,,,,,,,,,,,,,,,,,,,,,,,,,,,,,,,,,,,,,,,,,,,,,,,,,,,,,,,,,,,,,
,,69a5f3c806b4fe129f9de2d9,2026-03-17_12h23.18.846,kallum_motion_pilot_GIST_update_2,2026.1.1,MacIntel,62.11180124,69a5f3c806b4fe129f9de2d9,69b92ab4aef6dee357cd729a,69b92afe72826cb87b31e95f,0.0326,0.0327,1,28,190,110,1,eightsix,,,,,,,,,,,,,,,,,,,,,,,,,,,,,,,,,,,,,,,,,,,,,,,,,,,,,,,,,,,,,,,,,,,,,,,,,,,,,,,,,,,,,,,,,,,,,,,,,,,,,,,,,,,,,,,,,,,,,,,,,,,,,,,,,,,,,,,,,
,,69a5f3c806b4fe129f9de2d9,2026-03-17_12h23.18.846,kallum_motion_pilot_GIST_update_2,2026.1.1,MacIntel,62.11180124,69a5f3c806b4fe129f9de2d9,69b92ab4aef6dee357cd729a,69b92afe72826cb87b31e95f,0.0328,0.0328,1,29,191,71,1,fourthree,,,,,,,,,,,,,,,,,,,,,,,,,,,,,,,,,,,,,,,,,,,,,,,,,,,,,,,,,,,,,,,,,,,,,,,,,,,,,,,,,,,,,,,,,,,,,,,,,,,,,,,,,,,,,,,,,,,,,,,,,,,,,,,,,,,,,,,,,
,,69a5f3c806b4fe129f9de2d9,2026-03-17_12h23.18.846,kallum_motion_pilot_GIST_update_2,2026.1.1,MacIntel,62.11180124,69a5f3c806b4fe129f9de2d9,69b92ab4aef6dee357cd729a,69b92afe72826cb87b31e95f,0.0328,0.0328,1,30,192,150,1,eightsix,,,,,,,,,,,,,,,,,,,,,,,,,,,,,,,,,,,,,,,,,,,,,,,,,,,,,,,,,,,,,,,,,,,,,,,,,,,,,,,,,,,,,,,,,,,,,,,,,,,,,,,,,,,,,,,,,,,,,,,,,,,,,,,,,,,,,,,,,
,,69a5f3c806b4fe129f9de2d9,2026-03-17_12h23.18.846,kallum_motion_pilot_GIST_update_2,2026.1.1,MacIntel,62.11180124,69a5f3c806b4fe129f9de2d9,69b92ab4aef6dee357cd729a,69b92afe72826cb87b31e95f,0.0329,0.0329,1,31,193,47,1,fourthree,,,,,,,,,,,,,,,,,,,,,,,,,,,,,,,,,,,,,,,,,,,,,,,,,,,,,,,,,,,,,,,,,,,,,,,,,,,,,,,,,,,,,,,,,,,,,,,,,,,,,,,,,,,,,,,,,,,,,,,,,,,,,,,,,,,,,,,,,
,,69a5f3c806b4fe129f9de2d9,2026-03-17_12h23.18.846,kallum_motion_pilot_GIST_update_2,2026.1.1,MacIntel,62.11180124,69a5f3c806b4fe129f9de2d9,69b92ab4aef6dee357cd729a,69b92afe72826cb87b31e95f,0.0331,0.0331,1,32,194,132,1,sevenfive,,,,,,,,,,,,,,,,,,,,,,,,,,,,,,,,,,,,,,,,,,,,,,,,,,,,,,,,,,,,,,,,,,,,,,,,,,,,,,,,,,,,,,,,,,,,,,,,,,,,,,,,,,,,,,,,,,,,,,,,,,,,,,,,,,,,,,,,,
,,69a5f3c806b4fe129f9de2d9,2026-03-17_12h23.18.846,kallum_motion_pilot_GIST_update_2,2026.1.1,MacIntel,62.11180124,69a5f3c806b4fe129f9de2d9,69b92ab4aef6dee357cd729a,69b92afe72826cb87b31e95f,0.0331,0.0331,1,33,195,144,1,fivesix,,,,,,,,,,,,,,,,,,,,,,,,,,,,,,,,,,,,,,,,,,,,,,,,,,,,,,,,,,,,,,,,,,,,,,,,,,,,,,,,,,,,,,,,,,,,,,,,,,,,,,,,,,,,,,,,,,,,,,,,,,,,,,,,,,,,,,,,,
,,69a5f3c806b4fe129f9de2d9,2026-03-17_12h23.18.846,kallum_motion_pilot_GIST_update_2,2026.1.1,MacIntel,62.11180124,69a5f3c806b4fe129f9de2d9,69b92ab4aef6dee357cd729a,69b92afe72826cb87b31e95f,0.0332,0.0332,1,34,196,98,1,sixfive,,,,,,,,,,,,,,,,,,,,,,,,,,,,,,,,,,,,,,,,,,,,,,,,,,,,,,,,,,,,,,,,,,,,,,,,,,,,,,,,,,,,,,,,,,,,,,,,,,,,,,,,,,,,,,,,,,,,,,,,,,,,,,,,,,,,,,,,,
,,69a5f3c806b4fe129f9de2d9,2026-03-17_12h23.18.846,kallum_motion_pilot_GIST_update_2,2026.1.1,MacIntel,62.11180124,69a5f3c806b4fe129f9de2d9,69b92ab4aef6dee357cd729a,69b92afe72826cb87b31e95f,0.0333,0.0333,1,35,197,59,1,twofour,,,,,,,,,,,,,,,,,,,,,,,,,,,,,,,,,,,,,,,,,,,,,,,,,,,,,,,,,,,,,,,,,,,,,,,,,,,,,,,,,,,,,,,,,,,,,,,,,,,,,,,,,,,,,,,,,,,,,,,,,,,,,,,,,,,,,,,,,
,,69a5f3c806b4fe129f9de2d9,2026-03-17_12h23.18.846,kallum_motion_pilot_GIST_update_2,2026.1.1,MacIntel,62.11180124,69a5f3c806b4fe129f9de2d9,69b92ab4aef6dee357cd729a,69b92afe72826cb87b31e95f,0.0333,0.0334,1,36,198,10,1,twoone,,,,,,,,,,,,,,,,,,,,,,,,,,,,,,,,,,,,,,,,,,,,,,,,,,,,,,,,,,,,,,,,,,,,,,,,,,,,,,,,,,,,,,,,,,,,,,,,,,,,,,,,,,,,,,,,,,,,,,,,,,,,,,,,,,,,,,,,,
,,69a5f3c806b4fe129f9de2d9,2026-03-17_12h23.18.846,kallum_motion_pilot_GIST_update_2,2026.1.1,MacIntel,62.11180124,69a5f3c806b4fe129f9de2d9,69b92ab4aef6dee357cd729a,69b92afe72826cb87b31e95f,0.0334,0.0335,1,37,199,151,1,eightseven,,,,,,,,,,,,,,,,,,,,,,,,,,,,,,,,,,,,,,,,,,,,,,,,,,,,,,,,,,,,,,,,,,,,,,,,,,,,,,,,,,,,,,,,,,,,,,,,,,,,,,,,,,,,,,,,,,,,,,,,,,,,,,,,,,,,,,,,,
,,69a5f3c806b4fe129f9de2d9,2026-03-17_12h23.18.846,kallum_motion_pilot_GIST_update_2,2026.1.1,MacIntel,62.11180124,69a5f3c806b4fe129f9de2d9,69b92ab4aef6dee357cd729a,69b92afe72826cb87b31e95f,0.0335,0.0335,1,38,200,147,1,sixeight,,,,,,,,,,,,,,,,,,,,,,,,,,,,,,,,,,,,,,,,,,,,,,,,,,,,,,,,,,,,,,,,,,,,,,,,,,,,,,,,,,,,,,,,,,,,,,,,,,,,,,,,,,,,,,,,,,,,,,,,,,,,,,,,,,,,,,,,,
,,69a5f3c806b4fe129f9de2d9,2026-03-17_12h23.18.846,kallum_motion_pilot_GIST_update_2,2026.1.1,MacIntel,62.11180124,69a5f3c806b4fe129f9de2d9,69b92ab4aef6dee357cd729a,69b92afe72826cb87b31e95f,0.0336,0.0336,1,39,201,11,1,twofour,,,,,,,,,,,,,,,,,,,,,,,,,,,,,,,,,,,,,,,,,,,,,,,,,,,,,,,,,,,,,,,,,,,,,,,,,,,,,,,,,,,,,,,,,,,,,,,,,,,,,,,,,,,,,,,,,,,,,,,,,,,,,,,,,,,,,,,,,
,,69a5f3c806b4fe129f9de2d9,2026-03-17_12h23.18.846,kallum_motion_pilot_GIST_update_2,2026.1.1,MacIntel,62.11180124,69a5f3c806b4fe129f9de2d9,69b92ab4aef6dee357cd729a,69b92afe72826cb87b31e95f,0.0338,0.0338,1,40,202,58,1,twoone,,,,,,,,,,,,,,,,,,,,,,,,,,,,,,,,,,,,,,,,,,,,,,,,,,,,,,,,,,,,,,,,,,,,,,,,,,,,,,,,,,,,,,,,,,,,,,,,,,,,,,,,,,,,,,,,,,,,,,,,,,,,,,,,,,,,,,,,,
,,69a5f3c806b4fe129f9de2d9,2026-03-17_12h23.18.846,kallum_motion_pilot_GIST_update_2,2026.1.1,MacIntel,62.11180124,69a5f3c806b4fe129f9de2d9,69b92ab4aef6dee357cd729a,69b92afe72826cb87b31e95f,0.0338,0.0338,1,41,203,111,1,eightseven,,,,,,,,,,,,,,,,,,,,,,,,,,,,,,,,,,,,,,,,,,,,,,,,,,,,,,,,,,,,,,,,,,,,,,,,,,,,,,,,,,,,,,,,,,,,,,,,,,,,,,,,,,,,,,,,,,,,,,,,,,,,,,,,,,,,,,,,,
,,69a5f3c806b4fe129f9de2d9,2026-03-17_12h23.18.846,kallum_motion_pilot_GIST_update_2,2026.1.1,MacIntel,62.11180124,69a5f3c806b4fe129f9de2d9,69b92ab4aef6dee357cd729a,69b92afe72826cb87b31e95f,0.0339,0.034,1,42,204,105,1,fiveseven,,,,,,,,,,,,,,,,,,,,,,,,,,,,,,,,,,,,,,,,,,,,,,,,,,,,,,,,,,,,,,,,,,,,,,,,,,,,,,,,,,,,,,,,,,,,,,,,,,,,,,,,,,,,,,,,,,,,,,,,,,,,,,,,,,,,,,,,,
,,69a5f3c806b4fe129f9de2d9,2026-03-17_12h23.18.846,kallum_motion_pilot_GIST_update_2,2026.1.1,MacIntel,62.11180124,69a5f3c806b4fe129f9de2d9,69b92ab4aef6dee357cd729a,69b92afe72826cb87b31e95f,0.034,0.0341,1,43,205,129,1,fiveseven,,,,,,,,,,,,,,,,,,,,,,,,,,,,,,,,,,,,,,,,,,,,,,,,,,,,,,,,,,,,,,,,,,,,,,,,,,,,,,,,,,,,,,,,,,,,,,,,,,,,,,,,,,,,,,,,,,,,,,,,,,,,,,,,,,,,,,,,,
,,69a5f3c806b4fe129f9de2d9,2026-03-17_12h23.18.846,kallum_motion_pilot_GIST_update_2,2026.1.1,MacIntel,62.11180124,69a5f3c806b4fe129f9de2d9,69b92ab4aef6dee357cd729a,69b92afe72826cb87b31e95f,0.0341,0.0341,1,44,206,42,1,twoone,,,,,,,,,,,,,,,,,,,,,,,,,,,,,,,,,,,,,,,,,,,,,,,,,,,,,,,,,,,,,,,,,,,,,,,,,,,,,,,,,,,,,,,,,,,,,,,,,,,,,,,,,,,,,,,,,,,,,,,,,,,,,,,,,,,,,,,,,
,,69a5f3c806b4fe129f9de2d9,2026-03-17_12h23.18.846,kallum_motion_pilot_GIST_update_2,2026.1.1,MacIntel,62.11180124,69a5f3c806b4fe129f9de2d9,69b92ab4aef6dee357cd729a,69b92afe72826cb87b31e95f,0.0341,0.0342,1,45,207,18,1,twoone,,,,,,,,,,,,,,,,,,,,,,,,,,,,,,,,,,,,,,,,,,,,,,,,,,,,,,,,,,,,,,,,,,,,,,,,,,,,,,,,,,,,,,,,,,,,,,,,,,,,,,,,,,,,,,,,,,,,,,,,,,,,,,,,,,,,,,,,,
,,69a5f3c806b4fe129f9de2d9,2026-03-17_12h23.18.846,kallum_motion_pilot_GIST_update_2,2026.1.1,MacIntel,62.11180124,69a5f3c806b4fe129f9de2d9,69b92ab4aef6dee357cd729a,69b92afe72826cb87b31e95f,0.0343,0.0344,1,46,208,22,1,fourtwo,,,,,,,,,,,,,,,,,,,,,,,,,,,,,,,,,,,,,,,,,,,,,,,,,,,,,,,,,,,,,,,,,,,,,,,,,,,,,,,,,,,,,,,,,,,,,,,,,,,,,,,,,,,,,,,,,,,,,,,,,,,,,,,,,,,,,,,,,
,,69a5f3c806b4fe129f9de2d9,2026-03-17_12h23.18.846,kallum_motion_pilot_GIST_update_2,2026.1.1,MacIntel,62.11180124,69a5f3c806b4fe129f9de2d9,69b92ab4aef6dee357cd729a,69b92afe72826cb87b31e95f,0.0344,0.0344,1,47,209,137,1,fiveseven,,,,,,,,,,,,,,,,,,,,,,,,,,,,,,,,,,,,,,,,,,,,,,,,,,,,,,,,,,,,,,,,,,,,,,,,,,,,,,,,,,,,,,,,,,,,,,,,,,,,,,,,,,,,,,,,,,,,,,,,,,,,,,,,,,,,,,,,,
,,69a5f3c806b4fe129f9de2d9,2026-03-17_12h23.18.846,kallum_motion_pilot_GIST_update_2,2026.1.1,MacIntel,62.11180124,69a5f3c806b4fe129f9de2d9,69b92ab4aef6dee357cd729a,69b92afe72826cb87b31e95f,0.0344,0.0344,1,48,210,66,1,twoone,,,,,,,,,,,,,,,,,,,,,,,,,,,,,,,,,,,,,,,,,,,,,,,,,,,,,,,,,,,,,,,,,,,,,,,,,,,,,,,,,,,,,,,,,,,,,,,,,,,,,,,,,,,,,,,,,,,,,,,,,,,,,,,,,,,,,,,,,
,,69a5f3c806b4fe129f9de2d9,2026-03-17_12h23.18.846,kallum_motion_pilot_GIST_update_2,2026.1.1,MacIntel,62.11180124,69a5f3c806b4fe129f9de2d9,69b92ab4aef6dee357cd729a,69b92afe72826cb87b31e95f,0.0346,0.0346,1,49,211,153,1,fiveseven,,,,,,,,,,,,,,,,,,,,,,,,,,,,,,,,,,,,,,,,,,,,,,,,,,,,,,,,,,,,,,,,,,,,,,,,,,,,,,,,,,,,,,,,,,,,,,,,,,,,,,,,,,,,,,,,,,,,,,,,,,,,,,,,,,,,,,,,,
,,69a5f3c806b4fe129f9de2d9,2026-03-17_12h23.18.846,kallum_motion_pilot_GIST_update_2,2026.1.1,MacIntel,62.11180124,69a5f3c806b4fe129f9de2d9,69b92ab4aef6dee357cd729a,69b92afe72826cb87b31e95f,0.0347,0.0347,1,50,212,7,1,fourthree,,,,,,,,,,,,,,,,,,,,,,,,,,,,,,,,,,,,,,,,,,,,,,,,,,,,,,,,,,,,,,,,,,,,,,,,,,,,,,,,,,,,,,,,,,,,,,,,,,,,,,,,,,,,,,,,,,,,,,,,,,,,,,,,,,,,,,,,,
,,69a5f3c806b4fe129f9de2d9,2026-03-17_12h23.18.846,kallum_motion_pilot_GIST_update_2,2026.1.1,MacIntel,62.11180124,69a5f3c806b4fe129f9de2d9,69b92ab4aef6dee357cd729a,69b92afe72826cb87b31e95f,0.0347,0.0347,1,51,213,114,1,sixfive,,,,,,,,,,,,,,,,,,,,,,,,,,,,,,,,,,,,,,,,,,,,,,,,,,,,,,,,,,,,,,,,,,,,,,,,,,,,,,,,,,,,,,,,,,,,,,,,,,,,,,,,,,,,,,,,,,,,,,,,,,,,,,,,,,,,,,,,,
,,69a5f3c806b4fe129f9de2d9,2026-03-17_12h23.18.846,kallum_motion_pilot_GIST_update_2,2026.1.1,MacIntel,62.11180124,69a5f3c806b4fe129f9de2d9,69b92ab4aef6dee357cd729a,69b92afe72826cb87b31e95f,0.0348,0.0348,1,52,214,102,1,eightsix,,,,,,,,,,,,,,,,,,,,,,,,,,,,,,,,,,,,,,,,,,,,,,,,,,,,,,,,,,,,,,,,,,,,,,,,,,,,,,,,,,,,,,,,,,,,,,,,,,,,,,,,,,,,,,,,,,,,,,,,,,,,,,,,,,,,,,,,,
,,69a5f3c806b4fe129f9de2d9,2026-03-17_12h23.18.846,kallum_motion_pilot_GIST_update_2,2026.1.1,MacIntel,62.11180124,69a5f3c806b4fe129f9de2d9,69b92ab4aef6dee357cd729a,69b92afe72826cb87b31e95f,0.0349,0.0349,1,53,215,122,1,sixfive,,,,,,,,,,,,,,,,,,,,,,,,,,,,,,,,,,,,,,,,,,,,,,,,,,,,,,,,,,,,,,,,,,,,,,,,,,,,,,,,,,,,,,,,,,,,,,,,,,,,,,,,,,,,,,,,,,,,,,,,,,,,,,,,,,,,,,,,,
,,69a5f3c806b4fe129f9de2d9,2026-03-17_12h23.18.846,kallum_motion_pilot_GIST_update_2,2026.1.1,MacIntel,62.11180124,69a5f3c806b4fe129f9de2d9,69b92ab4aef6dee357cd729a,69b92afe72826cb87b31e95f,0.035,0.0351,1,54,216,33,1,onethree,,,,,,,,,,,,,,,,,,,,,,,,,,,,,,,,,,,,,,,,,,,,,,,,,,,,,,,,,,,,,,,,,,,,,,,,,,,,,,,,,,,,,,,,,,,,,,,,,,,,,,,,,,,,,,,,,,,,,,,,,,,,,,,,,,,,,,,,,
,,69a5f3c806b4fe129f9de2d9,2026-03-17_12h23.18.846,kallum_motion_pilot_GIST_update_2,2026.1.1,MacIntel,62.11180124,69a5f3c806b4fe129f9de2d9,69b92ab4aef6dee357cd729a,69b92afe72826cb87b31e95f,0.0351,0.0352,1,55,217,52,1,threeone,,,,,,,,,,,,,,,,,,,,,,,,,,,,,,,,,,,,,,,,,,,,,,,,,,,,,,,,,,,,,,,,,,,,,,,,,,,,,,,,,,,,,,,,,,,,,,,,,,,,,,,,,,,,,,,,,,,,,,,,,,,,,,,,,,,,,,,,,
,,69a5f3c806b4fe129f9de2d9,2026-03-17_12h23.18.846,kallum_motion_pilot_GIST_update_2,2026.1.1,MacIntel,62.11180124,69a5f3c806b4fe129f9de2d9,69b92ab4aef6dee357cd729a,69b92afe72826cb87b31e95f,0.0352,0.0352,1,56,218,81,1,fiveseven,,,,,,,,,,,,,,,,,,,,,,,,,,,,,,,,,,,,,,,,,,,,,,,,,,,,,,,,,,,,,,,,,,,,,,,,,,,,,,,,,,,,,,,,,,,,,,,,,,,,,,,,,,,,,,,,,,,,,,,,,,,,,,,,,,,,,,,,,
,,69a5f3c806b4fe129f9de2d9,2026-03-17_12h23.18.846,kallum_motion_pilot_GIST_update_2,2026.1.1,MacIntel,62.11180124,69a5f3c806b4fe129f9de2d9,69b92ab4aef6dee357cd729a,69b92afe72826cb87b31e95f,0.0353,0.0353,1,57,219,57,1,onethree,,,,,,,,,,,,,,,,,,,,,,,,,,,,,,,,,,,,,,,,,,,,,,,,,,,,,,,,,,,,,,,,,,,,,,,,,,,,,,,,,,,,,,,,,,,,,,,,,,,,,,,,,,,,,,,,,,,,,,,,,,,,,,,,,,,,,,,,,
,,69a5f3c806b4fe129f9de2d9,2026-03-17_12h23.18.846,kallum_motion_pilot_GIST_update_2,2026.1.1,MacIntel,62.11180124,69a5f3c806b4fe129f9de2d9,69b92ab4aef6dee357cd729a,69b92afe72826cb87b31e95f,0.0354,0.0354,1,58,220,118,1,eightsix,,,,,,,,,,,,,,,,,,,,,,,,,,,,,,,,,,,,,,,,,,,,,,,,,,,,,,,,,,,,,,,,,,,,,,,,,,,,,,,,,,,,,,,,,,,,,,,,,,,,,,,,,,,,,,,,,,,,,,,,,,,,,,,,,,,,,,,,,
,,69a5f3c806b4fe129f9de2d9,2026-03-17_12h23.18.846,kallum_motion_pilot_GIST_update_2,2026.1.1,MacIntel,62.11180124,69a5f3c806b4fe129f9de2d9,69b92ab4aef6dee357cd729a,69b92afe72826cb87b31e95f,0.0354,0.0355,1,59,221,141,1,seveneight,,,,,,,,,,,,,,,,,,,,,,,,,,,,,,,,,,,,,,,,,,,,,,,,,,,,,,,,,,,,,,,,,,,,,,,,,,,,,,,,,,,,,,,,,,,,,,,,,,,,,,,,,,,,,,,,,,,,,,,,,,,,,,,,,,,,,,,,,
,,69a5f3c806b4fe129f9de2d9,2026-03-17_12h23.18.846,kallum_motion_pilot_GIST_update_2,2026.1.1,MacIntel,62.11180124,69a5f3c806b4fe129f9de2d9,69b92ab4aef6dee357cd729a,69b92afe72826cb87b31e95f,0.0356,0.0356,1,60,222,108,1,sevenfive,,,,,,,,,,,,,,,,,,,,,,,,,,,,,,,,,,,,,,,,,,,,,,,,,,,,,,,,,,,,,,,,,,,,,,,,,,,,,,,,,,,,,,,,,,,,,,,,,,,,,,,,,,,,,,,,,,,,,,,,,,,,,,,,,,,,,,,,,
,,69a5f3c806b4fe129f9de2d9,2026-03-17_12h23.18.846,kallum_motion_pilot_GIST_update_2,2026.1.1,MacIntel,62.11180124,69a5f3c806b4fe129f9de2d9,69b92ab4aef6dee357cd729a,69b92afe72826cb87b31e95f,0.0357,0.0357,1,61,223,159,1,eightseven,,,,,,,,,,,,,,,,,,,,,,,,,,,,,,,,,,,,,,,,,,,,,,,,,,,,,,,,,,,,,,,,,,,,,,,,,,,,,,,,,,,,,,,,,,,,,,,,,,,,,,,,,,,,,,,,,,,,,,,,,,,,,,,,,,,,,,,,,
,,69a5f3c806b4fe129f9de2d9,2026-03-17_12h23.18.846,kallum_motion_pilot_GIST_update_2,2026.1.1,MacIntel,62.11180124,69a5f3c806b4fe129f9de2d9,69b92ab4aef6dee357cd729a,69b92afe72826cb87b31e95f,0.0357,0.0358,1,62,224,93,1,seveneight,,,,,,,,,,,,,,,,,,,,,,,,,,,,,,,,,,,,,,,,,,,,,,,,,,,,,,,,,,,,,,,,,,,,,,,,,,,,,,,,,,,,,,,,,,,,,,,,,,,,,,,,,,,,,,,,,,,,,,,,,,,,,,,,,,,,,,,,,
,,69a5f3c806b4fe129f9de2d9,2026-03-17_12h23.18.846,kallum_motion_pilot_GIST_update_2,2026.1.1,MacIntel,62.11180124,69a5f3c806b4fe129f9de2d9,69b92ab4aef6dee357cd729a,69b92afe72826cb87b31e95f,0.0358,0.0358,1,63,225,44,1,threeone,,,,,,,,,,,,,,,,,,,,,,,,,,,,,,,,,,,,,,,,,,,,,,,,,,,,,,,,,,,,,,,,,,,,,,,,,,,,,,,,,,,,,,,,,,,,,,,,,,,,,,,,,,,,,,,,,,,,,,,,,,,,,,,,,,,,,,,,,
,,69a5f3c806b4fe129f9de2d9,2026-03-17_12h23.18.846,kallum_motion_pilot_GIST_update_2,2026.1.1,MacIntel,62.11180124,69a5f3c806b4fe129f9de2d9,69b92ab4aef6dee357cd729a,69b92afe72826cb87b31e95f,0.0359,0.036,1,64,226,67,1,twofour,,,,,,,,,,,,,,,,,,,,,,,,,,,,,,,,,,,,,,,,,,,,,,,,,,,,,,,,,,,,,,,,,,,,,,,,,,,,,,,,,,,,,,,,,,,,,,,,,,,,,,,,,,,,,,,,,,,,,,,,,,,,,,,,,,,,,,,,,
,,69a5f3c806b4fe129f9de2d9,2026-03-17_12h23.18.846,kallum_motion_pilot_GIST_update_2,2026.1.1,MacIntel,62.11180124,69a5f3c806b4fe129f9de2d9,69b92ab4aef6dee357cd729a,69b92afe72826cb87b31e95f,0.036,0.036,1,65,227,26,1,twoone,,,,,,,,,,,,,,,,,,,,,,,,,,,,,,,,,,,,,,,,,,,,,,,,,,,,,,,,,,,,,,,,,,,,,,,,,,,,,,,,,,,,,,,,,,,,,,,,,,,,,,,,,,,,,,,,,,,,,,,,,,,,,,,,,,,,,,,,,
,,69a5f3c806b4fe129f9de2d9,2026-03-17_12h23.18.846,kallum_motion_pilot_GIST_update_2,2026.1.1,MacIntel,62.11180124,69a5f3c806b4fe129f9de2d9,69b92ab4aef6dee357cd729a,69b92afe72826cb87b31e95f,0.0361,0.0361,1,66,228,127,1,eightseven,,,,,,,,,,,,,,,,,,,,,,,,,,,,,,,,,,,,,,,,,,,,,,,,,,,,,,,,,,,,,,,,,,,,,,,,,,,,,,,,,,,,,,,,,,,,,,,,,,,,,,,,,,,,,,,,,,,,,,,,,,,,,,,,,,,,,,,,,
,,69a5f3c806b4fe129f9de2d9,2026-03-17_12h23.18.846,kallum_motion_pilot_GIST_update_2,2026.1.1,MacIntel,62.11180124,69a5f3c806b4fe129f9de2d9,69b92ab4aef6dee357cd729a,69b92afe72826cb87b31e95f,0.0362,0.0362,1,67,229,54,1,fourtwo,,,,,,,,,,,,,,,,,,,,,,,,,,,,,,,,,,,,,,,,,,,,,,,,,,,,,,,,,,,,,,,,,,,,,,,,,,,,,,,,,,,,,,,,,,,,,,,,,,,,,,,,,,,,,,,,,,,,,,,,,,,,,,,,,,,,,,,,,
,,69a5f3c806b4fe129f9de2d9,2026-03-17_12h23.18.846,kallum_motion_pilot_GIST_update_2,2026.1.1,MacIntel,62.11180124,69a5f3c806b4fe129f9de2d9,69b92ab4aef6dee357cd729a,69b92afe72826cb87b31e95f,0.0363,0.0363,1,68,230,139,1,sixeight,,,,,,,,,,,,,,,,,,,,,,,,,,,,,,,,,,,,,,,,,,,,,,,,,,,,,,,,,,,,,,,,,,,,,,,,,,,,,,,,,,,,,,,,,,,,,,,,,,,,,,,,,,,,,,,,,,,,,,,,,,,,,,,,,,,,,,,,,
,,69a5f3c806b4fe129f9de2d9,2026-03-17_12h23.18.846,kallum_motion_pilot_GIST_update_2,2026.1.1,MacIntel,62.11180124,69a5f3c806b4fe129f9de2d9,69b92ab4aef6dee357cd729a,69b92afe72826cb87b31e95f,0.0364,0.0364,1,69,231,148,1,sevenfive,,,,,,,,,,,,,,,,,,,,,,,,,,,,,,,,,,,,,,,,,,,,,,,,,,,,,,,,,,,,,,,,,,,,,,,,,,,,,,,,,,,,,,,,,,,,,,,,,,,,,,,,,,,,,,,,,,,,,,,,,,,,,,,,,,,,,,,,,
,,69a5f3c806b4fe129f9de2d9,2026-03-17_12h23.18.846,kallum_motion_pilot_GIST_update_2,2026.1.1,MacIntel,62.11180124,69a5f3c806b4fe129f9de2d9,69b92ab4aef6dee357cd729a,69b92afe72826cb87b31e95f,0.0365,0.0365,1,70,232,156,1,sevenfive,,,,,,,,,,,,,,,,,,,,,,,,,,,,,,,,,,,,,,,,,,,,,,,,,,,,,,,,,,,,,,,,,,,,,,,,,,,,,,,,,,,,,,,,,,,,,,,,,,,,,,,,,,,,,,,,,,,,,,,,,,,,,,,,,,,,,,,,,
,,69a5f3c806b4fe129f9de2d9,2026-03-17_12h23.18.846,kallum_motion_pilot_GIST_update_2,2026.1.1,MacIntel,62.11180124,69a5f3c806b4fe129f9de2d9,69b92ab4aef6dee357cd729a,69b92afe72826cb87b31e95f,0.0366,0.0366,1,71,233,157,1,seveneight,,,,,,,,,,,,,,,,,,,,,,,,,,,,,,,,,,,,,,,,,,,,,,,,,,,,,,,,,,,,,,,,,,,,,,,,,,,,,,,,,,,,,,,,,,,,,,,,,,,,,,,,,,,,,,,,,,,,,,,,,,,,,,,,,,,,,,,,,
,,69a5f3c806b4fe129f9de2d9,2026-03-17_12h23.18.846,kallum_motion_pilot_GIST_update_2,2026.1.1,MacIntel,62.11180124,69a5f3c806b4fe129f9de2d9,69b92ab4aef6dee357cd729a,69b92afe72826cb87b31e95f,0.0366,0.0366,1,72,234,140,1,sevenfive,,,,,,,,,,,,,,,,,,,,,,,,,,,,,,,,,,,,,,,,,,,,,,,,,,,,,,,,,,,,,,,,,,,,,,,,,,,,,,,,,,,,,,,,,,,,,,,,,,,,,,,,,,,,,,,,,,,,,,,,,,,,,,,,,,,,,,,,,
,,69a5f3c806b4fe129f9de2d9,2026-03-17_12h23.18.846,kallum_motion_pilot_GIST_update_2,2026.1.1,MacIntel,62.11180124,69a5f3c806b4fe129f9de2d9,69b92ab4aef6dee357cd729a,69b92afe72826cb87b31e95f,0.0367,0.0367,1,73,235,0,1,onetwo,,,,,,,,,,,,,,,,,,,,,,,,,,,,,,,,,,,,,,,,,,,,,,,,,,,,,,,,,,,,,,,,,,,,,,,,,,,,,,,,,,,,,,,,,,,,,,,,,,,,,,,,,,,,,,,,,,,,,,,,,,,,,,,,,,,,,,,,,
,,69a5f3c806b4fe129f9de2d9,2026-03-17_12h23.18.846,kallum_motion_pilot_GIST_update_2,2026.1.1,MacIntel,62.11180124,69a5f3c806b4fe129f9de2d9,69b92ab4aef6dee357cd729a,69b92afe72826cb87b31e95f,0.0368,0.0368,1,74,236,149,1,seveneight,,,,,,,,,,,,,,,,,,,,,,,,,,,,,,,,,,,,,,,,,,,,,,,,,,,,,,,,,,,,,,,,,,,,,,,,,,,,,,,,,,,,,,,,,,,,,,,,,,,,,,,,,,,,,,,,,,,,,,,,,,,,,,,,,,,,,,,,,
,,69a5f3c806b4fe129f9de2d9,2026-03-17_12h23.18.846,kallum_motion_pilot_GIST_update_2,2026.1.1,MacIntel,62.11180124,69a5f3c806b4fe129f9de2d9,69b92ab4aef6dee357cd729a,69b92afe72826cb87b31e95f,0.0369,0.0369,1,75,237,155,1,sixeight,,,,,,,,,,,,,,,,,,,,,,,,,,,,,,,,,,,,,,,,,,,,,,,,,,,,,,,,,,,,,,,,,,,,,,,,,,,,,,,,,,,,,,,,,,,,,,,,,,,,,,,,,,,,,,,,,,,,,,,,,,,,,,,,,,,,,,,,,
,,69a5f3c806b4fe129f9de2d9,2026-03-17_12h23.18.846,kallum_motion_pilot_GIST_update_2,2026.1.1,MacIntel,62.11180124,69a5f3c806b4fe129f9de2d9,69b92ab4aef6dee357cd729a,69b92afe72826cb87b31e95f,0.037,0.037,1,76,238,152,1,fivesix,,,,,,,,,,,,,,,,,,,,,,,,,,,,,,,,,,,,,,,,,,,,,,,,,,,,,,,,,,,,,,,,,,,,,,,,,,,,,,,,,,,,,,,,,,,,,,,,,,,,,,,,,,,,,,,,,,,,,,,,,,,,,,,,,,,,,,,,,
,,69a5f3c806b4fe129f9de2d9,2026-03-17_12h23.18.846,kallum_motion_pilot_GIST_update_2,2026.1.1,MacIntel,62.11180124,69a5f3c806b4fe129f9de2d9,69b92ab4aef6dee357cd729a,69b92afe72826cb87b31e95f,0.0371,0.0371,1,77,239,41,1,onethree,,,,,,,,,,,,,,,,,,,,,,,,,,,,,,,,,,,,,,,,,,,,,,,,,,,,,,,,,,,,,,,,,,,,,,,,,,,,,,,,,,,,,,,,,,,,,,,,,,,,,,,,,,,,,,,,,,,,,,,,,,,,,,,,,,,,,,,,,
,,69a5f3c806b4fe129f9de2d9,2026-03-17_12h23.18.846,kallum_motion_pilot_GIST_update_2,2026.1.1,MacIntel,62.11180124,69a5f3c806b4fe129f9de2d9,69b92ab4aef6dee357cd729a,69b92afe72826cb87b31e95f,0.0372,0.0372,1,78,240,91,1,sixeight,,,,,,,,,,,,,,,,,,,,,,,,,,,,,,,,,,,,,,,,,,,,,,,,,,,,,,,,,,,,,,,,,,,,,,,,,,,,,,,,,,,,,,,,,,,,,,,,,,,,,,,,,,,,,,,,,,,,,,,,,,,,,,,,,,,,,,,,,
,,69a5f3c806b4fe129f9de2d9,2026-03-17_12h23.18.846,kallum_motion_pilot_GIST_update_2,2026.1.1,MacIntel,62.11180124,69a5f3c806b4fe129f9de2d9,69b92ab4aef6dee357cd729a,69b92afe72826cb87b31e95f,0.0372,0.0372,1,79,241,104,1,fivesix,,,,,,,,,,,,,,,,,,,,,,,,,,,,,,,,,,,,,,,,,,,,,,,,,,,,,,,,,,,,,,,,,,,,,,,,,,,,,,,,,,,,,,,,,,,,,,,,,,,,,,,,,,,,,,,,,,,,,,,,,,,,,,,,,,,,,,,,,
,,69a5f3c806b4fe129f9de2d9,2026-03-17_12h23.18.846,kallum_motion_pilot_GIST_update_2,2026.1.1,MacIntel,62.11180124,69a5f3c806b4fe129f9de2d9,69b92ab4aef6dee357cd729a,69b92afe72826cb87b31e95f,0.0373,0.0373,1,80,242,51,1,twofour,,,,,,,,,,,,,,,,,,,,,,,,,,,,,,,,,,,,,,,,,,,,,,,,,,,,,,,,,,,,,,,,,,,,,,,,,,,,,,,,,,,,,,,,,,,,,,,,,,,,,,,,,,,,,,,,,,,,,,,,,,,,,,,,,,,,,,,,,
,,69a5f3c806b4fe129f9de2d9,2026-03-17_12h23.18.846,kallum_motion_pilot_GIST_update_2,2026.1.1,MacIntel,62.11180124,69a5f3c806b4fe129f9de2d9,69b92ab4aef6dee357cd729a,69b92afe72826cb87b31e95f,0.0375,0.0375,1,81,243,136,1,fivesix,,,,,,,,,,,,,,,,,,,,,,,,,,,,,,,,,,,,,,,,,,,,,,,,,,,,,,,,,,,,,,,,,,,,,,,,,,,,,,,,,,,,,,,,,,,,,,,,,,,,,,,,,,,,,,,,,,,,,,,,,,,,,,,,,,,,,,,,,
,,69a5f3c806b4fe129f9de2d9,2026-03-17_12h23.18.846,kallum_motion_pilot_GIST_update_2,2026.1.1,MacIntel,62.11180124,69a5f3c806b4fe129f9de2d9,69b92ab4aef6dee357cd729a,69b92afe72826cb87b31e95f,0.0376,0.0376,1,82,244,106,1,sixfive,,,,,,,,,,,,,,,,,,,,,,,,,,,,,,,,,,,,,,,,,,,,,,,,,,,,,,,,,,,,,,,,,,,,,,,,,,,,,,,,,,,,,,,,,,,,,,,,,,,,,,,,,,,,,,,,,,,,,,,,,,,,,,,,,,,,,,,,,
,,69a5f3c806b4fe129f9de2d9,2026-03-17_12h23.18.846,kallum_motion_pilot_GIST_update_2,2026.1.1,MacIntel,62.11180124,69a5f3c806b4fe129f9de2d9,69b92ab4aef6dee357cd729a,69b92afe72826cb87b31e95f,0.0376,0.0376,1,83,245,109,1,seveneight,,,,,,,,,,,,,,,,,,,,,,,,,,,,,,,,,,,,,,,,,,,,,,,,,,,,,,,,,,,,,,,,,,,,,,,,,,,,,,,,,,,,,,,,,,,,,,,,,,,,,,,,,,,,,,,,,,,,,,,,,,,,,,,,,,,,,,,,,
,,69a5f3c806b4fe129f9de2d9,2026-03-17_12h23.18.846,kallum_motion_pilot_GIST_update_2,2026.1.1,MacIntel,62.11180124,69a5f3c806b4fe129f9de2d9,69b92ab4aef6dee357cd729a,69b92afe72826cb87b31e95f,0.0377,0.0377,1,84,246,72,1,onetwo,,,,,,,,,,,,,,,,,,,,,,,,,,,,,,,,,,,,,,,,,,,,,,,,,,,,,,,,,,,,,,,,,,,,,,,,,,,,,,,,,,,,,,,,,,,,,,,,,,,,,,,,,,,,,,,,,,,,,,,,,,,,,,,,,,,,,,,,,
,,69a5f3c806b4fe129f9de2d9,2026-03-17_12h23.18.846,kallum_motion_pilot_GIST_update_2,2026.1.1,MacIntel,62.11180124,69a5f3c806b4fe129f9de2d9,69b92ab4aef6dee357cd729a,69b92afe72826cb87b31e95f,0.0378,0.0378,1,85,247,133,1,seveneight,,,,,,,,,,,,,,,,,,,,,,,,,,,,,,,,,,,,,,,,,,,,,,,,,,,,,,,,,,,,,,,,,,,,,,,,,,,,,,,,,,,,,,,,,,,,,,,,,,,,,,,,,,,,,,,,,,,,,,,,,,,,,,,,,,,,,,,,,
,,69a5f3c806b4fe129f9de2d9,2026-03-17_12h23.18.846,kallum_motion_pilot_GIST_update_2,2026.1.1,MacIntel,62.11180124,69a5f3c806b4fe129f9de2d9,69b92ab4aef6dee357cd729a,69b92afe72826cb87b31e95f,0.0379,0.0379,1,86,248,90,1,sixfive,,,,,,,,,,,,,,,,,,,,,,,,,,,,,,,,,,,,,,,,,,,,,,,,,,,,,,,,,,,,,,,,,,,,,,,,,,,,,,,,,,,,,,,,,,,,,,,,,,,,,,,,,,,,,,,,,,,,,,,,,,,,,,,,,,,,,,,,,
,,69a5f3c806b4fe129f9de2d9,2026-03-17_12h23.18.846,kallum_motion_pilot_GIST_update_2,2026.1.1,MacIntel,62.11180124,69a5f3c806b4fe129f9de2d9,69b92ab4aef6dee357cd729a,69b92afe72826cb87b31e95f,0.038,0.038,1,87,249,32,1,onetwo,,,,,,,,,,,,,,,,,,,,,,,,,,,,,,,,,,,,,,,,,,,,,,,,,,,,,,,,,,,,,,,,,,,,,,,,,,,,,,,,,,,,,,,,,,,,,,,,,,,,,,,,,,,,,,,,,,,,,,,,,,,,,,,,,,,,,,,,,
,,69a5f3c806b4fe129f9de2d9,2026-03-17_12h23.18.846,kallum_motion_pilot_GIST_update_2,2026.1.1,MacIntel,62.11180124,69a5f3c806b4fe129f9de2d9,69b92ab4aef6dee357cd729a,69b92afe72826cb87b31e95f,0.0381,0.0381,1,88,250,146,1,sixfive,,,,,,,,,,,,,,,,,,,,,,,,,,,,,,,,,,,,,,,,,,,,,,,,,,,,,,,,,,,,,,,,,,,,,,,,,,,,,,,,,,,,,,,,,,,,,,,,,,,,,,,,,,,,,,,,,,,,,,,,,,,,,,,,,,,,,,,,,
,,69a5f3c806b4fe129f9de2d9,2026-03-17_12h23.18.846,kallum_motion_pilot_GIST_update_2,2026.1.1,MacIntel,62.11180124,69a5f3c806b4fe129f9de2d9,69b92ab4aef6dee357cd729a,69b92afe72826cb87b31e95f,0.0382,0.0382,1,89,251,134,1,eightsix,,,,,,,,,,,,,,,,,,,,,,,,,,,,,,,,,,,,,,,,,,,,,,,,,,,,,,,,,,,,,,,,,,,,,,,,,,,,,,,,,,,,,,,,,,,,,,,,,,,,,,,,,,,,,,,,,,,,,,,,,,,,,,,,,,,,,,,,,
,,69a5f3c806b4fe129f9de2d9,2026-03-17_12h23.18.846,kallum_motion_pilot_GIST_update_2,2026.1.1,MacIntel,62.11180124,69a5f3c806b4fe129f9de2d9,69b92ab4aef6dee357cd729a,69b92afe72826cb87b31e95f,0.0382,0.0382,1,90,252,117,1,seveneight,,,,,,,,,,,,,,,,,,,,,,,,,,,,,,,,,,,,,,,,,,,,,,,,,,,,,,,,,,,,,,,,,,,,,,,,,,,,,,,,,,,,,,,,,,,,,,,,,,,,,,,,,,,,,,,,,,,,,,,,,,,,,,,,,,,,,,,,,
,,69a5f3c806b4fe129f9de2d9,2026-03-17_12h23.18.846,kallum_motion_pilot_GIST_update_2,2026.1.1,MacIntel,62.11180124,69a5f3c806b4fe129f9de2d9,69b92ab4aef6dee357cd729a,69b92afe72826cb87b31e95f,0.0383,0.0383,1,91,253,84,1,sevenfive,,,,,,,,,,,,,,,,,,,,,,,,,,,,,,,,,,,,,,,,,,,,,,,,,,,,,,,,,,,,,,,,,,,,,,,,,,,,,,,,,,,,,,,,,,,,,,,,,,,,,,,,,,,,,,,,,,,,,,,,,,,,,,,,,,,,,,,,,
,,69a5f3c806b4fe129f9de2d9,2026-03-17_12h23.18.846,kallum_motion_pilot_GIST_update_2,2026.1.1,MacIntel,62.11180124,69a5f3c806b4fe129f9de2d9,69b92ab4aef6dee357cd729a,69b92afe72826cb87b31e95f,0.0384,0.0384,1,92,254,39,1,fourthree,,,,,,,,,,,,,,,,,,,,,,,,,,,,,,,,,,,,,,,,,,,,,,,,,,,,,,,,,,,,,,,,,,,,,,,,,,,,,,,,,,,,,,,,,,,,,,,,,,,,,,,,,,,,,,,,,,,,,,,,,,,,,,,,,,,,,,,,,
,,69a5f3c806b4fe129f9de2d9,2026-03-17_12h23.18.846,kallum_motion_pilot_GIST_update_2,2026.1.1,MacIntel,62.11180124,69a5f3c806b4fe129f9de2d9,69b92ab4aef6dee357cd729a,69b92afe72826cb87b31e95f,0.0385,0.0385,1,93,255,135,1,eightseven,,,,,,,,,,,,,,,,,,,,,,,,,,,,,,,,,,,,,,,,,,,,,,,,,,,,,,,,,,,,,,,,,,,,,,,,,,,,,,,,,,,,,,,,,,,,,,,,,,,,,,,,,,,,,,,,,,,,,,,,,,,,,,,,,,,,,,,,,
,,69a5f3c806b4fe129f9de2d9,2026-03-17_12h23.18.846,kallum_motion_pilot_GIST_update_2,2026.1.1,MacIntel,62.11180124,69a5f3c806b4fe129f9de2d9,69b92ab4aef6dee357cd729a,69b92afe72826cb87b31e95f,0.0387,0.0387,1,94,256,112,1,fivesix,,,,,,,,,,,,,,,,,,,,,,,,,,,,,,,,,,,,,,,,,,,,,,,,,,,,,,,,,,,,,,,,,,,,,,,,,,,,,,,,,,,,,,,,,,,,,,,,,,,,,,,,,,,,,,,,,,,,,,,,,,,,,,,,,,,,,,,,,
,,69a5f3c806b4fe129f9de2d9,2026-03-17_12h23.18.846,kallum_motion_pilot_GIST_update_2,2026.1.1,MacIntel,62.11180124,69a5f3c806b4fe129f9de2d9,69b92ab4aef6dee357cd729a,69b92afe72826cb87b31e95f,0.0387,0.0387,1,95,257,76,1,threeone,,,,,,,,,,,,,,,,,,,,,,,,,,,,,,,,,,,,,,,,,,,,,,,,,,,,,,,,,,,,,,,,,,,,,,,,,,,,,,,,,,,,,,,,,,,,,,,,,,,,,,,,,,,,,,,,,,,,,,,,,,,,,,,,,,,,,,,,,
,,69a5f3c806b4fe129f9de2d9,2026-03-17_12h23.18.846,kallum_motion_pilot_GIST_update_2,2026.1.1,MacIntel,62.11180124,69a5f3c806b4fe129f9de2d9,69b92ab4aef6dee357cd729a,69b92afe72826cb87b31e95f,0.0387,0.0387,1,96,258,120,1,fivesix,,,,,,,,,,,,,,,,,,,,,,,,,,,,,,,,,,,,,,,,,,,,,,,,,,,,,,,,,,,,,,,,,,,,,,,,,,,,,,,,,,,,,,,,,,,,,,,,,,,,,,,,,,,,,,,,,,,,,,,,,,,,,,,,,,,,,,,,,
,,69a5f3c806b4fe129f9de2d9,2026-03-17_12h23.18.846,kallum_motion_pilot_GIST_update_2,2026.1.1,MacIntel,62.11180124,69a5f3c806b4fe129f9de2d9,69b92ab4aef6dee357cd729a,69b92afe72826cb87b31e95f,0.0389,0.0389,1,97,259,89,1,fiveseven,,,,,,,,,,,,,,,,,,,,,,,,,,,,,,,,,,,,,,,,,,,,,,,,,,,,,,,,,,,,,,,,,,,,,,,,,,,,,,,,,,,,,,,,,,,,,,,,,,,,,,,,,,,,,,,,,,,,,,,,,,,,,,,,,,,,,,,,,
,,69a5f3c806b4fe129f9de2d9,2026-03-17_12h23.18.846,kallum_motion_pilot_GIST_update_2,2026.1.1,MacIntel,62.11180124,69a5f3c806b4fe129f9de2d9,69b92ab4aef6dee357cd729a,69b92afe72826cb87b31e95f,0.039,0.039,1,98,260,100,1,sevenfive,,,,,,,,,,,,,,,,,,,,,,,,,,,,,,,,,,,,,,,,,,,,,,,,,,,,,,,,,,,,,,,,,,,,,,,,,,,,,,,,,,,,,,,,,,,,,,,,,,,,,,,,,,,,,,,,,,,,,,,,,,,,,,,,,,,,,,,,,
,,69a5f3c806b4fe129f9de2d9,2026-03-17_12h23.18.846,kallum_motion_pilot_GIST_update_2,2026.1.1,MacIntel,62.11180124,69a5f3c806b4fe129f9de2d9,69b92ab4aef6dee357cd729a,69b92afe72826cb87b31e95f,0.0391,0.0391,1,99,261,124,1,sevenfive,,,,,,,,,,,,,,,,,,,,,,,,,,,,,,,,,,,,,,,,,,,,,,,,,,,,,,,,,,,,,,,,,,,,,,,,,,,,,,,,,,,,,,,,,,,,,,,,,,,,,,,,,,,,,,,,,,,,,,,,,,,,,,,,,,,,,,,,,
,,69a5f3c806b4fe129f9de2d9,2026-03-17_12h23.18.846,kallum_motion_pilot_GIST_update_2,2026.1.1,MacIntel,62.11180124,69a5f3c806b4fe129f9de2d9,69b92ab4aef6dee357cd729a,69b92afe72826cb87b31e95f,0.0392,0.0393,1,100,262,64,1,onetwo,,,,,,,,,,,,,,,,,,,,,,,,,,,,,,,,,,,,,,,,,,,,,,,,,,,,,,,,,,,,,,,,,,,,,,,,,,,,,,,,,,,,,,,,,,,,,,,,,,,,,,,,,,,,,,,,,,,,,,,,,,,,,,,,,,,,,,,,,
,,69a5f3c806b4fe129f9de2d9,2026-03-17_12h23.18.846,kallum_motion_pilot_GIST_update_2,2026.1.1,MacIntel,62.11180124,69a5f3c806b4fe129f9de2d9,69b92ab4aef6dee357cd729a,69b92afe72826cb87b31e95f,0.0393,0.0393,1,101,263,37,1,threefour,,,,,,,,,,,,,,,,,,,,,,,,,,,,,,,,,,,,,,,,,,,,,,,,,,,,,,,,,,,,,,,,,,,,,,,,,,,,,,,,,,,,,,,,,,,,,,,,,,,,,,,,,,,,,,,,,,,,,,,,,,,,,,,,,,,,,,,,,
