startup.started,startup.stopped,Prolific ID*,date,expName,psychopyVersion,OS,frameRate,participant,study_id,session,stimpositions.started,stimpositions.stopped,hardcoded_stimulus_positions.thisRepN,hardcoded_stimulus_positions.thisTrialN,hardcoded_stimulus_positions.thisN,hardcoded_stimulus_positions.thisIndex,hardcoded_stimulus_positions.ran,StimulusPos,stimorientation.started,stimorientation.stopped,prac_stimorientation_import_loop.thisRepN,prac_stimorientation_import_loop.thisTrialN,prac_stimorientation_import_loop.thisN,prac_stimorientation_import_loop.thisIndex,prac_stimorientation_import_loop.ran,Stimorientation,welcome_instr.started,welcome_instr.stopped,key_resp.keys,key_resp.rt,key_resp.duration,response_steppedout_1.started,response_steppedout_1.stopped,key_resp_20.keys,key_resp_20.rt,key_resp_20.duration,response_steppedout_2.started,response_steppedout_2.stopped,key_resp_19.keys,key_resp_19.rt,key_resp_19.duration,stim_response_instr.started,stim_response_instr.stopped,key_resp_15.keys,key_resp_15.rt,key_resp_15.duration,direction_instr_2.started,direction_instr_2.stopped,key_resp_9.keys,key_resp_9.rt,key_resp_9.duration,instr_prac.started,instr_prac.stopped,key_resp_10.keys,key_resp_10.rt,key_resp_10.duration,Stim1_display_prac.started,Stim1_display_prac.stopped,Ecc,Circle1_ori,Circle2_ori,response_prac.started,similarity,response_time,response_prac.stopped,mouse_5.x,mouse_5.y,mouse_5.leftButton,mouse_5.midButton,mouse_5.rightButton,mouse_5.clicked_name,responseprac_feedback.started,responseprac_feedback.stopped,summary2_prac.started,summary2_prac.stopped,mouse_6.x,mouse_6.y,mouse_6.leftButton,mouse_6.midButton,mouse_6.rightButton,mouse_6.clicked_name,duringprac.thisRepN,duringprac.thisTrialN,duringprac.thisN,duringprac.thisIndex,duringprac.ran,begin.started,begin.stopped,key_resp_22.keys,key_resp_22.rt,key_resp_22.duration,Stim1_display.started,Stim1_display.stopped,circle1_ori,circle2_ori,circle1_SF,circle2_SF,response.started,response.stopped,mouse.x,mouse.y,mouse.leftButton,mouse.midButton,mouse.rightButton,mouse.clicked_name,trialnumber,double_pass.thisRepN,double_pass.thisTrialN,double_pass.thisN,double_pass.thisIndex,double_pass.ran,double_pass.order,main_trial.thisRepN,main_trial.thisTrialN,main_trial.thisN,main_trial.thisIndex,main_trial.ran,main_trial.order,Trial_Counter,Catch,Frequencies,response_2.started,response_2.stopped,mouse_2.x,mouse_2.y,mouse_2.leftButton,mouse_2.midButton,mouse_2.rightButton,mouse_2.clicked_name,special_trial.started,special_trial.stopped,catch_1.started,catch_1.stopped,mouse_3.x,mouse_3.y,mouse_3.leftButton,mouse_3.midButton,mouse_3.rightButton,catchresponse,catchnumber,response_time_catch,response_sum.started,response_sum.stopped,mouse_11.x,mouse_11.y,mouse_11.leftButton,mouse_11.midButton,mouse_11.rightButton,flip_presentation_sequence_for_double_pass.started,flip_presentation_sequence_for_double_pass.stopped,goodbye.started,goodbye.stopped,key_resp_3.keys,key_resp_3.rt,key_resp_3.duration
0.0003,0.0004,69a7f38b36ee9d5acad39b24,2026-03-17_07h10.16.623,kallum_motion_pilot_GIST_update_2,2026.1.1,MacIntel,62.11180124,69a7f38b36ee9d5acad39b24,69b95efdef24cd8a694e89ee,69b96003e52fd7b5ae76fd95,,,,,,,,,,,,,,,,,,,,,,,,,,,,,,,,,,,,,,,,,,,,,,,,,,,,,,,,,,,,,,,,,,,,,,,,,,,,,,,,,,,,,,,,,,,,,,,,,,,,,,,,,,,,,,,,,,,,,,,,,,,,,,,,,,,,,,,,,,,,,,,,,
,,69a7f38b36ee9d5acad39b24,2026-03-17_07h10.16.623,kallum_motion_pilot_GIST_update_2,2026.1.1,MacIntel,62.11180124,69a7f38b36ee9d5acad39b24,69b95efdef24cd8a694e89ee,69b96003e52fd7b5ae76fd95,0.0229,0.023,0,0,0,15,1,fourthree,,,,,,,,,,,,,,,,,,,,,,,,,,,,,,,,,,,,,,,,,,,,,,,,,,,,,,,,,,,,,,,,,,,,,,,,,,,,,,,,,,,,,,,,,,,,,,,,,,,,,,,,,,,,,,,,,,,,,,,,,,,,,,,,,,,,,,,,,
,,69a7f38b36ee9d5acad39b24,2026-03-17_07h10.16.623,kallum_motion_pilot_GIST_update_2,2026.1.1,MacIntel,62.11180124,69a7f38b36ee9d5acad39b24,69b95efdef24cd8a694e89ee,69b96003e52fd7b5ae76fd95,0.0232,0.0232,0,1,1,7,1,fourthree,,,,,,,,,,,,,,,,,,,,,,,,,,,,,,,,,,,,,,,,,,,,,,,,,,,,,,,,,,,,,,,,,,,,,,,,,,,,,,,,,,,,,,,,,,,,,,,,,,,,,,,,,,,,,,,,,,,,,,,,,,,,,,,,,,,,,,,,,
,,69a7f38b36ee9d5acad39b24,2026-03-17_07h10.16.623,kallum_motion_pilot_GIST_update_2,2026.1.1,MacIntel,62.11180124,69a7f38b36ee9d5acad39b24,69b95efdef24cd8a694e89ee,69b96003e52fd7b5ae76fd95,0.0233,0.0233,0,2,2,109,1,seveneight,,,,,,,,,,,,,,,,,,,,,,,,,,,,,,,,,,,,,,,,,,,,,,,,,,,,,,,,,,,,,,,,,,,,,,,,,,,,,,,,,,,,,,,,,,,,,,,,,,,,,,,,,,,,,,,,,,,,,,,,,,,,,,,,,,,,,,,,,
,,69a7f38b36ee9d5acad39b24,2026-03-17_07h10.16.623,kallum_motion_pilot_GIST_update_2,2026.1.1,MacIntel,62.11180124,69a7f38b36ee9d5acad39b24,69b95efdef24cd8a694e89ee,69b96003e52fd7b5ae76fd95,0.0234,0.0234,0,3,3,96,1,fivesix,,,,,,,,,,,,,,,,,,,,,,,,,,,,,,,,,,,,,,,,,,,,,,,,,,,,,,,,,,,,,,,,,,,,,,,,,,,,,,,,,,,,,,,,,,,,,,,,,,,,,,,,,,,,,,,,,,,,,,,,,,,,,,,,,,,,,,,,,
,,69a7f38b36ee9d5acad39b24,2026-03-17_07h10.16.623,kallum_motion_pilot_GIST_update_2,2026.1.1,MacIntel,62.11180124,69a7f38b36ee9d5acad39b24,69b95efdef24cd8a694e89ee,69b96003e52fd7b5ae76fd95,0.0235,0.0235,0,4,4,54,1,fourtwo,,,,,,,,,,,,,,,,,,,,,,,,,,,,,,,,,,,,,,,,,,,,,,,,,,,,,,,,,,,,,,,,,,,,,,,,,,,,,,,,,,,,,,,,,,,,,,,,,,,,,,,,,,,,,,,,,,,,,,,,,,,,,,,,,,,,,,,,,
,,69a7f38b36ee9d5acad39b24,2026-03-17_07h10.16.623,kallum_motion_pilot_GIST_update_2,2026.1.1,MacIntel,62.11180124,69a7f38b36ee9d5acad39b24,69b95efdef24cd8a694e89ee,69b96003e52fd7b5ae76fd95,0.0236,0.0236,0,5,5,16,1,onetwo,,,,,,,,,,,,,,,,,,,,,,,,,,,,,,,,,,,,,,,,,,,,,,,,,,,,,,,,,,,,,,,,,,,,,,,,,,,,,,,,,,,,,,,,,,,,,,,,,,,,,,,,,,,,,,,,,,,,,,,,,,,,,,,,,,,,,,,,,
,,69a7f38b36ee9d5acad39b24,2026-03-17_07h10.16.623,kallum_motion_pilot_GIST_update_2,2026.1.1,MacIntel,62.11180124,69a7f38b36ee9d5acad39b24,69b95efdef24cd8a694e89ee,69b96003e52fd7b5ae76fd95,0.0237,0.0238,0,6,6,125,1,seveneight,,,,,,,,,,,,,,,,,,,,,,,,,,,,,,,,,,,,,,,,,,,,,,,,,,,,,,,,,,,,,,,,,,,,,,,,,,,,,,,,,,,,,,,,,,,,,,,,,,,,,,,,,,,,,,,,,,,,,,,,,,,,,,,,,,,,,,,,,
,,69a7f38b36ee9d5acad39b24,2026-03-17_07h10.16.623,kallum_motion_pilot_GIST_update_2,2026.1.1,MacIntel,62.11180124,69a7f38b36ee9d5acad39b24,69b95efdef24cd8a694e89ee,69b96003e52fd7b5ae76fd95,0.0243,0.0243,0,7,7,144,1,fivesix,,,,,,,,,,,,,,,,,,,,,,,,,,,,,,,,,,,,,,,,,,,,,,,,,,,,,,,,,,,,,,,,,,,,,,,,,,,,,,,,,,,,,,,,,,,,,,,,,,,,,,,,,,,,,,,,,,,,,,,,,,,,,,,,,,,,,,,,,
,,69a7f38b36ee9d5acad39b24,2026-03-17_07h10.16.623,kallum_motion_pilot_GIST_update_2,2026.1.1,MacIntel,62.11180124,69a7f38b36ee9d5acad39b24,69b95efdef24cd8a694e89ee,69b96003e52fd7b5ae76fd95,0.0244,0.0244,0,8,8,140,1,sevenfive,,,,,,,,,,,,,,,,,,,,,,,,,,,,,,,,,,,,,,,,,,,,,,,,,,,,,,,,,,,,,,,,,,,,,,,,,,,,,,,,,,,,,,,,,,,,,,,,,,,,,,,,,,,,,,,,,,,,,,,,,,,,,,,,,,,,,,,,,
,,69a7f38b36ee9d5acad39b24,2026-03-17_07h10.16.623,kallum_motion_pilot_GIST_update_2,2026.1.1,MacIntel,62.11180124,69a7f38b36ee9d5acad39b24,69b95efdef24cd8a694e89ee,69b96003e52fd7b5ae76fd95,0.0245,0.0245,0,9,9,39,1,fourthree,,,,,,,,,,,,,,,,,,,,,,,,,,,,,,,,,,,,,,,,,,,,,,,,,,,,,,,,,,,,,,,,,,,,,,,,,,,,,,,,,,,,,,,,,,,,,,,,,,,,,,,,,,,,,,,,,,,,,,,,,,,,,,,,,,,,,,,,,
,,69a7f38b36ee9d5acad39b24,2026-03-17_07h10.16.623,kallum_motion_pilot_GIST_update_2,2026.1.1,MacIntel,62.11180124,69a7f38b36ee9d5acad39b24,69b95efdef24cd8a694e89ee,69b96003e52fd7b5ae76fd95,0.0246,0.0246,0,10,10,23,1,fourthree,,,,,,,,,,,,,,,,,,,,,,,,,,,,,,,,,,,,,,,,,,,,,,,,,,,,,,,,,,,,,,,,,,,,,,,,,,,,,,,,,,,,,,,,,,,,,,,,,,,,,,,,,,,,,,,,,,,,,,,,,,,,,,,,,,,,,,,,,
,,69a7f38b36ee9d5acad39b24,2026-03-17_07h10.16.623,kallum_motion_pilot_GIST_update_2,2026.1.1,MacIntel,62.11180124,69a7f38b36ee9d5acad39b24,69b95efdef24cd8a694e89ee,69b96003e52fd7b5ae76fd95,0.0247,0.0247,0,11,11,17,1,onethree,,,,,,,,,,,,,,,,,,,,,,,,,,,,,,,,,,,,,,,,,,,,,,,,,,,,,,,,,,,,,,,,,,,,,,,,,,,,,,,,,,,,,,,,,,,,,,,,,,,,,,,,,,,,,,,,,,,,,,,,,,,,,,,,,,,,,,,,,
,,69a7f38b36ee9d5acad39b24,2026-03-17_07h10.16.623,kallum_motion_pilot_GIST_update_2,2026.1.1,MacIntel,62.11180124,69a7f38b36ee9d5acad39b24,69b95efdef24cd8a694e89ee,69b96003e52fd7b5ae76fd95,0.0247,0.0247,0,12,12,101,1,seveneight,,,,,,,,,,,,,,,,,,,,,,,,,,,,,,,,,,,,,,,,,,,,,,,,,,,,,,,,,,,,,,,,,,,,,,,,,,,,,,,,,,,,,,,,,,,,,,,,,,,,,,,,,,,,,,,,,,,,,,,,,,,,,,,,,,,,,,,,,
,,69a7f38b36ee9d5acad39b24,2026-03-17_07h10.16.623,kallum_motion_pilot_GIST_update_2,2026.1.1,MacIntel,62.11180124,69a7f38b36ee9d5acad39b24,69b95efdef24cd8a694e89ee,69b96003e52fd7b5ae76fd95,0.0248,0.0248,0,13,13,157,1,seveneight,,,,,,,,,,,,,,,,,,,,,,,,,,,,,,,,,,,,,,,,,,,,,,,,,,,,,,,,,,,,,,,,,,,,,,,,,,,,,,,,,,,,,,,,,,,,,,,,,,,,,,,,,,,,,,,,,,,,,,,,,,,,,,,,,,,,,,,,,
,,69a7f38b36ee9d5acad39b24,2026-03-17_07h10.16.623,kallum_motion_pilot_GIST_update_2,2026.1.1,MacIntel,62.11180124,69a7f38b36ee9d5acad39b24,69b95efdef24cd8a694e89ee,69b96003e52fd7b5ae76fd95,0.0249,0.0249,0,14,14,19,1,twofour,,,,,,,,,,,,,,,,,,,,,,,,,,,,,,,,,,,,,,,,,,,,,,,,,,,,,,,,,,,,,,,,,,,,,,,,,,,,,,,,,,,,,,,,,,,,,,,,,,,,,,,,,,,,,,,,,,,,,,,,,,,,,,,,,,,,,,,,,
,,69a7f38b36ee9d5acad39b24,2026-03-17_07h10.16.623,kallum_motion_pilot_GIST_update_2,2026.1.1,MacIntel,62.11180124,69a7f38b36ee9d5acad39b24,69b95efdef24cd8a694e89ee,69b96003e52fd7b5ae76fd95,0.0249,0.0249,0,15,15,29,1,threefour,,,,,,,,,,,,,,,,,,,,,,,,,,,,,,,,,,,,,,,,,,,,,,,,,,,,,,,,,,,,,,,,,,,,,,,,,,,,,,,,,,,,,,,,,,,,,,,,,,,,,,,,,,,,,,,,,,,,,,,,,,,,,,,,,,,,,,,,,
,,69a7f38b36ee9d5acad39b24,2026-03-17_07h10.16.623,kallum_motion_pilot_GIST_update_2,2026.1.1,MacIntel,62.11180124,69a7f38b36ee9d5acad39b24,69b95efdef24cd8a694e89ee,69b96003e52fd7b5ae76fd95,0.025,0.025,0,16,16,42,1,twoone,,,,,,,,,,,,,,,,,,,,,,,,,,,,,,,,,,,,,,,,,,,,,,,,,,,,,,,,,,,,,,,,,,,,,,,,,,,,,,,,,,,,,,,,,,,,,,,,,,,,,,,,,,,,,,,,,,,,,,,,,,,,,,,,,,,,,,,,,
,,69a7f38b36ee9d5acad39b24,2026-03-17_07h10.16.623,kallum_motion_pilot_GIST_update_2,2026.1.1,MacIntel,62.11180124,69a7f38b36ee9d5acad39b24,69b95efdef24cd8a694e89ee,69b96003e52fd7b5ae76fd95,0.0251,0.0251,0,17,17,27,1,twofour,,,,,,,,,,,,,,,,,,,,,,,,,,,,,,,,,,,,,,,,,,,,,,,,,,,,,,,,,,,,,,,,,,,,,,,,,,,,,,,,,,,,,,,,,,,,,,,,,,,,,,,,,,,,,,,,,,,,,,,,,,,,,,,,,,,,,,,,,
,,69a7f38b36ee9d5acad39b24,2026-03-17_07h10.16.623,kallum_motion_pilot_GIST_update_2,2026.1.1,MacIntel,62.11180124,69a7f38b36ee9d5acad39b24,69b95efdef24cd8a694e89ee,69b96003e52fd7b5ae76fd95,0.0252,0.0252,0,18,18,84,1,sevenfive,,,,,,,,,,,,,,,,,,,,,,,,,,,,,,,,,,,,,,,,,,,,,,,,,,,,,,,,,,,,,,,,,,,,,,,,,,,,,,,,,,,,,,,,,,,,,,,,,,,,,,,,,,,,,,,,,,,,,,,,,,,,,,,,,,,,,,,,,
,,69a7f38b36ee9d5acad39b24,2026-03-17_07h10.16.623,kallum_motion_pilot_GIST_update_2,2026.1.1,MacIntel,62.11180124,69a7f38b36ee9d5acad39b24,69b95efdef24cd8a694e89ee,69b96003e52fd7b5ae76fd95,0.0253,0.0253,0,19,19,32,1,onetwo,,,,,,,,,,,,,,,,,,,,,,,,,,,,,,,,,,,,,,,,,,,,,,,,,,,,,,,,,,,,,,,,,,,,,,,,,,,,,,,,,,,,,,,,,,,,,,,,,,,,,,,,,,,,,,,,,,,,,,,,,,,,,,,,,,,,,,,,,
,,69a7f38b36ee9d5acad39b24,2026-03-17_07h10.16.623,kallum_motion_pilot_GIST_update_2,2026.1.1,MacIntel,62.11180124,69a7f38b36ee9d5acad39b24,69b95efdef24cd8a694e89ee,69b96003e52fd7b5ae76fd95,0.0254,0.0254,0,20,20,46,1,fourtwo,,,,,,,,,,,,,,,,,,,,,,,,,,,,,,,,,,,,,,,,,,,,,,,,,,,,,,,,,,,,,,,,,,,,,,,,,,,,,,,,,,,,,,,,,,,,,,,,,,,,,,,,,,,,,,,,,,,,,,,,,,,,,,,,,,,,,,,,,
,,69a7f38b36ee9d5acad39b24,2026-03-17_07h10.16.623,kallum_motion_pilot_GIST_update_2,2026.1.1,MacIntel,62.11180124,69a7f38b36ee9d5acad39b24,69b95efdef24cd8a694e89ee,69b96003e52fd7b5ae76fd95,0.0255,0.0255,0,21,21,132,1,sevenfive,,,,,,,,,,,,,,,,,,,,,,,,,,,,,,,,,,,,,,,,,,,,,,,,,,,,,,,,,,,,,,,,,,,,,,,,,,,,,,,,,,,,,,,,,,,,,,,,,,,,,,,,,,,,,,,,,,,,,,,,,,,,,,,,,,,,,,,,,
,,69a7f38b36ee9d5acad39b24,2026-03-17_07h10.16.623,kallum_motion_pilot_GIST_update_2,2026.1.1,MacIntel,62.11180124,69a7f38b36ee9d5acad39b24,69b95efdef24cd8a694e89ee,69b96003e52fd7b5ae76fd95,0.0255,0.0255,0,22,22,10,1,twoone,,,,,,,,,,,,,,,,,,,,,,,,,,,,,,,,,,,,,,,,,,,,,,,,,,,,,,,,,,,,,,,,,,,,,,,,,,,,,,,,,,,,,,,,,,,,,,,,,,,,,,,,,,,,,,,,,,,,,,,,,,,,,,,,,,,,,,,,,
,,69a7f38b36ee9d5acad39b24,2026-03-17_07h10.16.623,kallum_motion_pilot_GIST_update_2,2026.1.1,MacIntel,62.11180124,69a7f38b36ee9d5acad39b24,69b95efdef24cd8a694e89ee,69b96003e52fd7b5ae76fd95,0.0256,0.0256,0,23,23,124,1,sevenfive,,,,,,,,,,,,,,,,,,,,,,,,,,,,,,,,,,,,,,,,,,,,,,,,,,,,,,,,,,,,,,,,,,,,,,,,,,,,,,,,,,,,,,,,,,,,,,,,,,,,,,,,,,,,,,,,,,,,,,,,,,,,,,,,,,,,,,,,,
,,69a7f38b36ee9d5acad39b24,2026-03-17_07h10.16.623,kallum_motion_pilot_GIST_update_2,2026.1.1,MacIntel,62.11180124,69a7f38b36ee9d5acad39b24,69b95efdef24cd8a694e89ee,69b96003e52fd7b5ae76fd95,0.0257,0.0257,0,24,24,98,1,sixfive,,,,,,,,,,,,,,,,,,,,,,,,,,,,,,,,,,,,,,,,,,,,,,,,,,,,,,,,,,,,,,,,,,,,,,,,,,,,,,,,,,,,,,,,,,,,,,,,,,,,,,,,,,,,,,,,,,,,,,,,,,,,,,,,,,,,,,,,,
,,69a7f38b36ee9d5acad39b24,2026-03-17_07h10.16.623,kallum_motion_pilot_GIST_update_2,2026.1.1,MacIntel,62.11180124,69a7f38b36ee9d5acad39b24,69b95efdef24cd8a694e89ee,69b96003e52fd7b5ae76fd95,0.0258,0.0258,0,25,25,88,1,fivesix,,,,,,,,,,,,,,,,,,,,,,,,,,,,,,,,,,,,,,,,,,,,,,,,,,,,,,,,,,,,,,,,,,,,,,,,,,,,,,,,,,,,,,,,,,,,,,,,,,,,,,,,,,,,,,,,,,,,,,,,,,,,,,,,,,,,,,,,,
,,69a7f38b36ee9d5acad39b24,2026-03-17_07h10.16.623,kallum_motion_pilot_GIST_update_2,2026.1.1,MacIntel,62.11180124,69a7f38b36ee9d5acad39b24,69b95efdef24cd8a694e89ee,69b96003e52fd7b5ae76fd95,0.0261,0.0261,0,26,26,94,1,eightsix,,,,,,,,,,,,,,,,,,,,,,,,,,,,,,,,,,,,,,,,,,,,,,,,,,,,,,,,,,,,,,,,,,,,,,,,,,,,,,,,,,,,,,,,,,,,,,,,,,,,,,,,,,,,,,,,,,,,,,,,,,,,,,,,,,,,,,,,,
,,69a7f38b36ee9d5acad39b24,2026-03-17_07h10.16.623,kallum_motion_pilot_GIST_update_2,2026.1.1,MacIntel,62.11180124,69a7f38b36ee9d5acad39b24,69b95efdef24cd8a694e89ee,69b96003e52fd7b5ae76fd95,0.0262,0.0262,0,27,27,91,1,sixeight,,,,,,,,,,,,,,,,,,,,,,,,,,,,,,,,,,,,,,,,,,,,,,,,,,,,,,,,,,,,,,,,,,,,,,,,,,,,,,,,,,,,,,,,,,,,,,,,,,,,,,,,,,,,,,,,,,,,,,,,,,,,,,,,,,,,,,,,,
,,69a7f38b36ee9d5acad39b24,2026-03-17_07h10.16.623,kallum_motion_pilot_GIST_update_2,2026.1.1,MacIntel,62.11180124,69a7f38b36ee9d5acad39b24,69b95efdef24cd8a694e89ee,69b96003e52fd7b5ae76fd95,0.0263,0.0263,0,28,28,8,1,onetwo,,,,,,,,,,,,,,,,,,,,,,,,,,,,,,,,,,,,,,,,,,,,,,,,,,,,,,,,,,,,,,,,,,,,,,,,,,,,,,,,,,,,,,,,,,,,,,,,,,,,,,,,,,,,,,,,,,,,,,,,,,,,,,,,,,,,,,,,,
,,69a7f38b36ee9d5acad39b24,2026-03-17_07h10.16.623,kallum_motion_pilot_GIST_update_2,2026.1.1,MacIntel,62.11180124,69a7f38b36ee9d5acad39b24,69b95efdef24cd8a694e89ee,69b96003e52fd7b5ae76fd95,0.0263,0.0263,0,29,29,31,1,fourthree,,,,,,,,,,,,,,,,,,,,,,,,,,,,,,,,,,,,,,,,,,,,,,,,,,,,,,,,,,,,,,,,,,,,,,,,,,,,,,,,,,,,,,,,,,,,,,,,,,,,,,,,,,,,,,,,,,,,,,,,,,,,,,,,,,,,,,,,,
,,69a7f38b36ee9d5acad39b24,2026-03-17_07h10.16.623,kallum_motion_pilot_GIST_update_2,2026.1.1,MacIntel,62.11180124,69a7f38b36ee9d5acad39b24,69b95efdef24cd8a694e89ee,69b96003e52fd7b5ae76fd95,0.0265,0.0265,0,30,30,81,1,fiveseven,,,,,,,,,,,,,,,,,,,,,,,,,,,,,,,,,,,,,,,,,,,,,,,,,,,,,,,,,,,,,,,,,,,,,,,,,,,,,,,,,,,,,,,,,,,,,,,,,,,,,,,,,,,,,,,,,,,,,,,,,,,,,,,,,,,,,,,,,
,,69a7f38b36ee9d5acad39b24,2026-03-17_07h10.16.623,kallum_motion_pilot_GIST_update_2,2026.1.1,MacIntel,62.11180124,69a7f38b36ee9d5acad39b24,69b95efdef24cd8a694e89ee,69b96003e52fd7b5ae76fd95,0.0265,0.0265,0,31,31,102,1,eightsix,,,,,,,,,,,,,,,,,,,,,,,,,,,,,,,,,,,,,,,,,,,,,,,,,,,,,,,,,,,,,,,,,,,,,,,,,,,,,,,,,,,,,,,,,,,,,,,,,,,,,,,,,,,,,,,,,,,,,,,,,,,,,,,,,,,,,,,,,
,,69a7f38b36ee9d5acad39b24,2026-03-17_07h10.16.623,kallum_motion_pilot_GIST_update_2,2026.1.1,MacIntel,62.11180124,69a7f38b36ee9d5acad39b24,69b95efdef24cd8a694e89ee,69b96003e52fd7b5ae76fd95,0.0266,0.0266,0,32,32,67,1,twofour,,,,,,,,,,,,,,,,,,,,,,,,,,,,,,,,,,,,,,,,,,,,,,,,,,,,,,,,,,,,,,,,,,,,,,,,,,,,,,,,,,,,,,,,,,,,,,,,,,,,,,,,,,,,,,,,,,,,,,,,,,,,,,,,,,,,,,,,,
,,69a7f38b36ee9d5acad39b24,2026-03-17_07h10.16.623,kallum_motion_pilot_GIST_update_2,2026.1.1,MacIntel,62.11180124,69a7f38b36ee9d5acad39b24,69b95efdef24cd8a694e89ee,69b96003e52fd7b5ae76fd95,0.0267,0.0267,0,33,33,128,1,fivesix,,,,,,,,,,,,,,,,,,,,,,,,,,,,,,,,,,,,,,,,,,,,,,,,,,,,,,,,,,,,,,,,,,,,,,,,,,,,,,,,,,,,,,,,,,,,,,,,,,,,,,,,,,,,,,,,,,,,,,,,,,,,,,,,,,,,,,,,,
,,69a7f38b36ee9d5acad39b24,2026-03-17_07h10.16.623,kallum_motion_pilot_GIST_update_2,2026.1.1,MacIntel,62.11180124,69a7f38b36ee9d5acad39b24,69b95efdef24cd8a694e89ee,69b96003e52fd7b5ae76fd95,0.0267,0.0267,0,34,34,2,1,twoone,,,,,,,,,,,,,,,,,,,,,,,,,,,,,,,,,,,,,,,,,,,,,,,,,,,,,,,,,,,,,,,,,,,,,,,,,,,,,,,,,,,,,,,,,,,,,,,,,,,,,,,,,,,,,,,,,,,,,,,,,,,,,,,,,,,,,,,,,
,,69a7f38b36ee9d5acad39b24,2026-03-17_07h10.16.623,kallum_motion_pilot_GIST_update_2,2026.1.1,MacIntel,62.11180124,69a7f38b36ee9d5acad39b24,69b95efdef24cd8a694e89ee,69b96003e52fd7b5ae76fd95,0.0268,0.0268,0,35,35,59,1,twofour,,,,,,,,,,,,,,,,,,,,,,,,,,,,,,,,,,,,,,,,,,,,,,,,,,,,,,,,,,,,,,,,,,,,,,,,,,,,,,,,,,,,,,,,,,,,,,,,,,,,,,,,,,,,,,,,,,,,,,,,,,,,,,,,,,,,,,,,,
,,69a7f38b36ee9d5acad39b24,2026-03-17_07h10.16.623,kallum_motion_pilot_GIST_update_2,2026.1.1,MacIntel,62.11180124,69a7f38b36ee9d5acad39b24,69b95efdef24cd8a694e89ee,69b96003e52fd7b5ae76fd95,0.0269,0.0269,0,36,36,60,1,threeone,,,,,,,,,,,,,,,,,,,,,,,,,,,,,,,,,,,,,,,,,,,,,,,,,,,,,,,,,,,,,,,,,,,,,,,,,,,,,,,,,,,,,,,,,,,,,,,,,,,,,,,,,,,,,,,,,,,,,,,,,,,,,,,,,,,,,,,,,
,,69a7f38b36ee9d5acad39b24,2026-03-17_07h10.16.623,kallum_motion_pilot_GIST_update_2,2026.1.1,MacIntel,62.11180124,69a7f38b36ee9d5acad39b24,69b95efdef24cd8a694e89ee,69b96003e52fd7b5ae76fd95,0.027,0.027,0,37,37,68,1,threeone,,,,,,,,,,,,,,,,,,,,,,,,,,,,,,,,,,,,,,,,,,,,,,,,,,,,,,,,,,,,,,,,,,,,,,,,,,,,,,,,,,,,,,,,,,,,,,,,,,,,,,,,,,,,,,,,,,,,,,,,,,,,,,,,,,,,,,,,,
,,69a7f38b36ee9d5acad39b24,2026-03-17_07h10.16.623,kallum_motion_pilot_GIST_update_2,2026.1.1,MacIntel,62.11180124,69a7f38b36ee9d5acad39b24,69b95efdef24cd8a694e89ee,69b96003e52fd7b5ae76fd95,0.0271,0.0271,0,38,38,40,1,onetwo,,,,,,,,,,,,,,,,,,,,,,,,,,,,,,,,,,,,,,,,,,,,,,,,,,,,,,,,,,,,,,,,,,,,,,,,,,,,,,,,,,,,,,,,,,,,,,,,,,,,,,,,,,,,,,,,,,,,,,,,,,,,,,,,,,,,,,,,,
,,69a7f38b36ee9d5acad39b24,2026-03-17_07h10.16.623,kallum_motion_pilot_GIST_update_2,2026.1.1,MacIntel,62.11180124,69a7f38b36ee9d5acad39b24,69b95efdef24cd8a694e89ee,69b96003e52fd7b5ae76fd95,0.0271,0.0271,0,39,39,154,1,sixfive,,,,,,,,,,,,,,,,,,,,,,,,,,,,,,,,,,,,,,,,,,,,,,,,,,,,,,,,,,,,,,,,,,,,,,,,,,,,,,,,,,,,,,,,,,,,,,,,,,,,,,,,,,,,,,,,,,,,,,,,,,,,,,,,,,,,,,,,,
,,69a7f38b36ee9d5acad39b24,2026-03-17_07h10.16.623,kallum_motion_pilot_GIST_update_2,2026.1.1,MacIntel,62.11180124,69a7f38b36ee9d5acad39b24,69b95efdef24cd8a694e89ee,69b96003e52fd7b5ae76fd95,0.0272,0.0272,0,40,40,86,1,eightsix,,,,,,,,,,,,,,,,,,,,,,,,,,,,,,,,,,,,,,,,,,,,,,,,,,,,,,,,,,,,,,,,,,,,,,,,,,,,,,,,,,,,,,,,,,,,,,,,,,,,,,,,,,,,,,,,,,,,,,,,,,,,,,,,,,,,,,,,,
,,69a7f38b36ee9d5acad39b24,2026-03-17_07h10.16.623,kallum_motion_pilot_GIST_update_2,2026.1.1,MacIntel,62.11180124,69a7f38b36ee9d5acad39b24,69b95efdef24cd8a694e89ee,69b96003e52fd7b5ae76fd95,0.0273,0.0273,0,41,41,111,1,eightseven,,,,,,,,,,,,,,,,,,,,,,,,,,,,,,,,,,,,,,,,,,,,,,,,,,,,,,,,,,,,,,,,,,,,,,,,,,,,,,,,,,,,,,,,,,,,,,,,,,,,,,,,,,,,,,,,,,,,,,,,,,,,,,,,,,,,,,,,,
,,69a7f38b36ee9d5acad39b24,2026-03-17_07h10.16.623,kallum_motion_pilot_GIST_update_2,2026.1.1,MacIntel,62.11180124,69a7f38b36ee9d5acad39b24,69b95efdef24cd8a694e89ee,69b96003e52fd7b5ae76fd95,0.0274,0.0274,0,42,42,35,1,twofour,,,,,,,,,,,,,,,,,,,,,,,,,,,,,,,,,,,,,,,,,,,,,,,,,,,,,,,,,,,,,,,,,,,,,,,,,,,,,,,,,,,,,,,,,,,,,,,,,,,,,,,,,,,,,,,,,,,,,,,,,,,,,,,,,,,,,,,,,
,,69a7f38b36ee9d5acad39b24,2026-03-17_07h10.16.623,kallum_motion_pilot_GIST_update_2,2026.1.1,MacIntel,62.11180124,69a7f38b36ee9d5acad39b24,69b95efdef24cd8a694e89ee,69b96003e52fd7b5ae76fd95,0.0275,0.0275,0,43,43,34,1,twoone,,,,,,,,,,,,,,,,,,,,,,,,,,,,,,,,,,,,,,,,,,,,,,,,,,,,,,,,,,,,,,,,,,,,,,,,,,,,,,,,,,,,,,,,,,,,,,,,,,,,,,,,,,,,,,,,,,,,,,,,,,,,,,,,,,,,,,,,,
,,69a7f38b36ee9d5acad39b24,2026-03-17_07h10.16.623,kallum_motion_pilot_GIST_update_2,2026.1.1,MacIntel,62.11180124,69a7f38b36ee9d5acad39b24,69b95efdef24cd8a694e89ee,69b96003e52fd7b5ae76fd95,0.0275,0.0275,0,44,44,64,1,onetwo,,,,,,,,,,,,,,,,,,,,,,,,,,,,,,,,,,,,,,,,,,,,,,,,,,,,,,,,,,,,,,,,,,,,,,,,,,,,,,,,,,,,,,,,,,,,,,,,,,,,,,,,,,,,,,,,,,,,,,,,,,,,,,,,,,,,,,,,,
,,69a7f38b36ee9d5acad39b24,2026-03-17_07h10.16.623,kallum_motion_pilot_GIST_update_2,2026.1.1,MacIntel,62.11180124,69a7f38b36ee9d5acad39b24,69b95efdef24cd8a694e89ee,69b96003e52fd7b5ae76fd95,0.0276,0.0276,0,45,45,11,1,twofour,,,,,,,,,,,,,,,,,,,,,,,,,,,,,,,,,,,,,,,,,,,,,,,,,,,,,,,,,,,,,,,,,,,,,,,,,,,,,,,,,,,,,,,,,,,,,,,,,,,,,,,,,,,,,,,,,,,,,,,,,,,,,,,,,,,,,,,,,
,,69a7f38b36ee9d5acad39b24,2026-03-17_07h10.16.623,kallum_motion_pilot_GIST_update_2,2026.1.1,MacIntel,62.11180124,69a7f38b36ee9d5acad39b24,69b95efdef24cd8a694e89ee,69b96003e52fd7b5ae76fd95,0.0276,0.0276,0,46,46,52,1,threeone,,,,,,,,,,,,,,,,,,,,,,,,,,,,,,,,,,,,,,,,,,,,,,,,,,,,,,,,,,,,,,,,,,,,,,,,,,,,,,,,,,,,,,,,,,,,,,,,,,,,,,,,,,,,,,,,,,,,,,,,,,,,,,,,,,,,,,,,,
,,69a7f38b36ee9d5acad39b24,2026-03-17_07h10.16.623,kallum_motion_pilot_GIST_update_2,2026.1.1,MacIntel,62.11180124,69a7f38b36ee9d5acad39b24,69b95efdef24cd8a694e89ee,69b96003e52fd7b5ae76fd95,0.0278,0.0278,0,47,47,134,1,eightsix,,,,,,,,,,,,,,,,,,,,,,,,,,,,,,,,,,,,,,,,,,,,,,,,,,,,,,,,,,,,,,,,,,,,,,,,,,,,,,,,,,,,,,,,,,,,,,,,,,,,,,,,,,,,,,,,,,,,,,,,,,,,,,,,,,,,,,,,,
,,69a7f38b36ee9d5acad39b24,2026-03-17_07h10.16.623,kallum_motion_pilot_GIST_update_2,2026.1.1,MacIntel,62.11180124,69a7f38b36ee9d5acad39b24,69b95efdef24cd8a694e89ee,69b96003e52fd7b5ae76fd95,0.0278,0.0278,0,48,48,113,1,fiveseven,,,,,,,,,,,,,,,,,,,,,,,,,,,,,,,,,,,,,,,,,,,,,,,,,,,,,,,,,,,,,,,,,,,,,,,,,,,,,,,,,,,,,,,,,,,,,,,,,,,,,,,,,,,,,,,,,,,,,,,,,,,,,,,,,,,,,,,,,
,,69a7f38b36ee9d5acad39b24,2026-03-17_07h10.16.623,kallum_motion_pilot_GIST_update_2,2026.1.1,MacIntel,62.11180124,69a7f38b36ee9d5acad39b24,69b95efdef24cd8a694e89ee,69b96003e52fd7b5ae76fd95,0.0279,0.0279,0,49,49,63,1,fourthree,,,,,,,,,,,,,,,,,,,,,,,,,,,,,,,,,,,,,,,,,,,,,,,,,,,,,,,,,,,,,,,,,,,,,,,,,,,,,,,,,,,,,,,,,,,,,,,,,,,,,,,,,,,,,,,,,,,,,,,,,,,,,,,,,,,,,,,,,
,,69a7f38b36ee9d5acad39b24,2026-03-17_07h10.16.623,kallum_motion_pilot_GIST_update_2,2026.1.1,MacIntel,62.11180124,69a7f38b36ee9d5acad39b24,69b95efdef24cd8a694e89ee,69b96003e52fd7b5ae76fd95,0.028,0.028,0,50,50,97,1,fiveseven,,,,,,,,,,,,,,,,,,,,,,,,,,,,,,,,,,,,,,,,,,,,,,,,,,,,,,,,,,,,,,,,,,,,,,,,,,,,,,,,,,,,,,,,,,,,,,,,,,,,,,,,,,,,,,,,,,,,,,,,,,,,,,,,,,,,,,,,,
,,69a7f38b36ee9d5acad39b24,2026-03-17_07h10.16.623,kallum_motion_pilot_GIST_update_2,2026.1.1,MacIntel,62.11180124,69a7f38b36ee9d5acad39b24,69b95efdef24cd8a694e89ee,69b96003e52fd7b5ae76fd95,0.0281,0.0281,0,51,51,71,1,fourthree,,,,,,,,,,,,,,,,,,,,,,,,,,,,,,,,,,,,,,,,,,,,,,,,,,,,,,,,,,,,,,,,,,,,,,,,,,,,,,,,,,,,,,,,,,,,,,,,,,,,,,,,,,,,,,,,,,,,,,,,,,,,,,,,,,,,,,,,,
,,69a7f38b36ee9d5acad39b24,2026-03-17_07h10.16.623,kallum_motion_pilot_GIST_update_2,2026.1.1,MacIntel,62.11180124,69a7f38b36ee9d5acad39b24,69b95efdef24cd8a694e89ee,69b96003e52fd7b5ae76fd95,0.0282,0.0282,0,52,52,24,1,onetwo,,,,,,,,,,,,,,,,,,,,,,,,,,,,,,,,,,,,,,,,,,,,,,,,,,,,,,,,,,,,,,,,,,,,,,,,,,,,,,,,,,,,,,,,,,,,,,,,,,,,,,,,,,,,,,,,,,,,,,,,,,,,,,,,,,,,,,,,,
,,69a7f38b36ee9d5acad39b24,2026-03-17_07h10.16.623,kallum_motion_pilot_GIST_update_2,2026.1.1,MacIntel,62.11180124,69a7f38b36ee9d5acad39b24,69b95efdef24cd8a694e89ee,69b96003e52fd7b5ae76fd95,0.0282,0.0282,0,53,53,139,1,sixeight,,,,,,,,,,,,,,,,,,,,,,,,,,,,,,,,,,,,,,,,,,,,,,,,,,,,,,,,,,,,,,,,,,,,,,,,,,,,,,,,,,,,,,,,,,,,,,,,,,,,,,,,,,,,,,,,,,,,,,,,,,,,,,,,,,,,,,,,,
,,69a7f38b36ee9d5acad39b24,2026-03-17_07h10.16.623,kallum_motion_pilot_GIST_update_2,2026.1.1,MacIntel,62.11180124,69a7f38b36ee9d5acad39b24,69b95efdef24cd8a694e89ee,69b96003e52fd7b5ae76fd95,0.0283,0.0283,0,54,54,150,1,eightsix,,,,,,,,,,,,,,,,,,,,,,,,,,,,,,,,,,,,,,,,,,,,,,,,,,,,,,,,,,,,,,,,,,,,,,,,,,,,,,,,,,,,,,,,,,,,,,,,,,,,,,,,,,,,,,,,,,,,,,,,,,,,,,,,,,,,,,,,,
,,69a7f38b36ee9d5acad39b24,2026-03-17_07h10.16.623,kallum_motion_pilot_GIST_update_2,2026.1.1,MacIntel,62.11180124,69a7f38b36ee9d5acad39b24,69b95efdef24cd8a694e89ee,69b96003e52fd7b5ae76fd95,0.0284,0.0284,0,55,55,47,1,fourthree,,,,,,,,,,,,,,,,,,,,,,,,,,,,,,,,,,,,,,,,,,,,,,,,,,,,,,,,,,,,,,,,,,,,,,,,,,,,,,,,,,,,,,,,,,,,,,,,,,,,,,,,,,,,,,,,,,,,,,,,,,,,,,,,,,,,,,,,,
,,69a7f38b36ee9d5acad39b24,2026-03-17_07h10.16.623,kallum_motion_pilot_GIST_update_2,2026.1.1,MacIntel,62.11180124,69a7f38b36ee9d5acad39b24,69b95efdef24cd8a694e89ee,69b96003e52fd7b5ae76fd95,0.0286,0.0286,0,56,56,130,1,sixfive,,,,,,,,,,,,,,,,,,,,,,,,,,,,,,,,,,,,,,,,,,,,,,,,,,,,,,,,,,,,,,,,,,,,,,,,,,,,,,,,,,,,,,,,,,,,,,,,,,,,,,,,,,,,,,,,,,,,,,,,,,,,,,,,,,,,,,,,,
,,69a7f38b36ee9d5acad39b24,2026-03-17_07h10.16.623,kallum_motion_pilot_GIST_update_2,2026.1.1,MacIntel,62.11180124,69a7f38b36ee9d5acad39b24,69b95efdef24cd8a694e89ee,69b96003e52fd7b5ae76fd95,0.0286,0.0286,0,57,57,135,1,eightseven,,,,,,,,,,,,,,,,,,,,,,,,,,,,,,,,,,,,,,,,,,,,,,,,,,,,,,,,,,,,,,,,,,,,,,,,,,,,,,,,,,,,,,,,,,,,,,,,,,,,,,,,,,,,,,,,,,,,,,,,,,,,,,,,,,,,,,,,,
,,69a7f38b36ee9d5acad39b24,2026-03-17_07h10.16.623,kallum_motion_pilot_GIST_update_2,2026.1.1,MacIntel,62.11180124,69a7f38b36ee9d5acad39b24,69b95efdef24cd8a694e89ee,69b96003e52fd7b5ae76fd95,0.0287,0.0287,0,58,58,145,1,fiveseven,,,,,,,,,,,,,,,,,,,,,,,,,,,,,,,,,,,,,,,,,,,,,,,,,,,,,,,,,,,,,,,,,,,,,,,,,,,,,,,,,,,,,,,,,,,,,,,,,,,,,,,,,,,,,,,,,,,,,,,,,,,,,,,,,,,,,,,,,
,,69a7f38b36ee9d5acad39b24,2026-03-17_07h10.16.623,kallum_motion_pilot_GIST_update_2,2026.1.1,MacIntel,62.11180124,69a7f38b36ee9d5acad39b24,69b95efdef24cd8a694e89ee,69b96003e52fd7b5ae76fd95,0.0288,0.0288,0,59,59,159,1,eightseven,,,,,,,,,,,,,,,,,,,,,,,,,,,,,,,,,,,,,,,,,,,,,,,,,,,,,,,,,,,,,,,,,,,,,,,,,,,,,,,,,,,,,,,,,,,,,,,,,,,,,,,,,,,,,,,,,,,,,,,,,,,,,,,,,,,,,,,,,
,,69a7f38b36ee9d5acad39b24,2026-03-17_07h10.16.623,kallum_motion_pilot_GIST_update_2,2026.1.1,MacIntel,62.11180124,69a7f38b36ee9d5acad39b24,69b95efdef24cd8a694e89ee,69b96003e52fd7b5ae76fd95,0.0289,0.0289,0,60,60,127,1,eightseven,,,,,,,,,,,,,,,,,,,,,,,,,,,,,,,,,,,,,,,,,,,,,,,,,,,,,,,,,,,,,,,,,,,,,,,,,,,,,,,,,,,,,,,,,,,,,,,,,,,,,,,,,,,,,,,,,,,,,,,,,,,,,,,,,,,,,,,,,
,,69a7f38b36ee9d5acad39b24,2026-03-17_07h10.16.623,kallum_motion_pilot_GIST_update_2,2026.1.1,MacIntel,62.11180124,69a7f38b36ee9d5acad39b24,69b95efdef24cd8a694e89ee,69b96003e52fd7b5ae76fd95,0.029,0.029,0,61,61,158,1,eightsix,,,,,,,,,,,,,,,,,,,,,,,,,,,,,,,,,,,,,,,,,,,,,,,,,,,,,,,,,,,,,,,,,,,,,,,,,,,,,,,,,,,,,,,,,,,,,,,,,,,,,,,,,,,,,,,,,,,,,,,,,,,,,,,,,,,,,,,,,
,,69a7f38b36ee9d5acad39b24,2026-03-17_07h10.16.623,kallum_motion_pilot_GIST_update_2,2026.1.1,MacIntel,62.11180124,69a7f38b36ee9d5acad39b24,69b95efdef24cd8a694e89ee,69b96003e52fd7b5ae76fd95,0.0291,0.0291,0,62,62,65,1,onethree,,,,,,,,,,,,,,,,,,,,,,,,,,,,,,,,,,,,,,,,,,,,,,,,,,,,,,,,,,,,,,,,,,,,,,,,,,,,,,,,,,,,,,,,,,,,,,,,,,,,,,,,,,,,,,,,,,,,,,,,,,,,,,,,,,,,,,,,,
,,69a7f38b36ee9d5acad39b24,2026-03-17_07h10.16.623,kallum_motion_pilot_GIST_update_2,2026.1.1,MacIntel,62.11180124,69a7f38b36ee9d5acad39b24,69b95efdef24cd8a694e89ee,69b96003e52fd7b5ae76fd95,0.0291,0.0291,0,63,63,148,1,sevenfive,,,,,,,,,,,,,,,,,,,,,,,,,,,,,,,,,,,,,,,,,,,,,,,,,,,,,,,,,,,,,,,,,,,,,,,,,,,,,,,,,,,,,,,,,,,,,,,,,,,,,,,,,,,,,,,,,,,,,,,,,,,,,,,,,,,,,,,,,
,,69a7f38b36ee9d5acad39b24,2026-03-17_07h10.16.623,kallum_motion_pilot_GIST_update_2,2026.1.1,MacIntel,62.11180124,69a7f38b36ee9d5acad39b24,69b95efdef24cd8a694e89ee,69b96003e52fd7b5ae76fd95,0.0292,0.0292,0,64,64,48,1,onetwo,,,,,,,,,,,,,,,,,,,,,,,,,,,,,,,,,,,,,,,,,,,,,,,,,,,,,,,,,,,,,,,,,,,,,,,,,,,,,,,,,,,,,,,,,,,,,,,,,,,,,,,,,,,,,,,,,,,,,,,,,,,,,,,,,,,,,,,,,
,,69a7f38b36ee9d5acad39b24,2026-03-17_07h10.16.623,kallum_motion_pilot_GIST_update_2,2026.1.1,MacIntel,62.11180124,69a7f38b36ee9d5acad39b24,69b95efdef24cd8a694e89ee,69b96003e52fd7b5ae76fd95,0.0293,0.0293,0,65,65,161,1,fiveseven,,,,,,,,,,,,,,,,,,,,,,,,,,,,,,,,,,,,,,,,,,,,,,,,,,,,,,,,,,,,,,,,,,,,,,,,,,,,,,,,,,,,,,,,,,,,,,,,,,,,,,,,,,,,,,,,,,,,,,,,,,,,,,,,,,,,,,,,,
,,69a7f38b36ee9d5acad39b24,2026-03-17_07h10.16.623,kallum_motion_pilot_GIST_update_2,2026.1.1,MacIntel,62.11180124,69a7f38b36ee9d5acad39b24,69b95efdef24cd8a694e89ee,69b96003e52fd7b5ae76fd95,0.0294,0.0294,0,66,66,131,1,sixeight,,,,,,,,,,,,,,,,,,,,,,,,,,,,,,,,,,,,,,,,,,,,,,,,,,,,,,,,,,,,,,,,,,,,,,,,,,,,,,,,,,,,,,,,,,,,,,,,,,,,,,,,,,,,,,,,,,,,,,,,,,,,,,,,,,,,,,,,,
,,69a7f38b36ee9d5acad39b24,2026-03-17_07h10.16.623,kallum_motion_pilot_GIST_update_2,2026.1.1,MacIntel,62.11180124,69a7f38b36ee9d5acad39b24,69b95efdef24cd8a694e89ee,69b96003e52fd7b5ae76fd95,0.0295,0.0295,0,67,67,69,1,threefour,,,,,,,,,,,,,,,,,,,,,,,,,,,,,,,,,,,,,,,,,,,,,,,,,,,,,,,,,,,,,,,,,,,,,,,,,,,,,,,,,,,,,,,,,,,,,,,,,,,,,,,,,,,,,,,,,,,,,,,,,,,,,,,,,,,,,,,,,
,,69a7f38b36ee9d5acad39b24,2026-03-17_07h10.16.623,kallum_motion_pilot_GIST_update_2,2026.1.1,MacIntel,62.11180124,69a7f38b36ee9d5acad39b24,69b95efdef24cd8a694e89ee,69b96003e52fd7b5ae76fd95,0.0298,0.0299,0,68,68,133,1,seveneight,,,,,,,,,,,,,,,,,,,,,,,,,,,,,,,,,,,,,,,,,,,,,,,,,,,,,,,,,,,,,,,,,,,,,,,,,,,,,,,,,,,,,,,,,,,,,,,,,,,,,,,,,,,,,,,,,,,,,,,,,,,,,,,,,,,,,,,,,
,,69a7f38b36ee9d5acad39b24,2026-03-17_07h10.16.623,kallum_motion_pilot_GIST_update_2,2026.1.1,MacIntel,62.11180124,69a7f38b36ee9d5acad39b24,69b95efdef24cd8a694e89ee,69b96003e52fd7b5ae76fd95,0.03,0.03,0,69,69,149,1,seveneight,,,,,,,,,,,,,,,,,,,,,,,,,,,,,,,,,,,,,,,,,,,,,,,,,,,,,,,,,,,,,,,,,,,,,,,,,,,,,,,,,,,,,,,,,,,,,,,,,,,,,,,,,,,,,,,,,,,,,,,,,,,,,,,,,,,,,,,,,
,,69a7f38b36ee9d5acad39b24,2026-03-17_07h10.16.623,kallum_motion_pilot_GIST_update_2,2026.1.1,MacIntel,62.11180124,69a7f38b36ee9d5acad39b24,69b95efdef24cd8a694e89ee,69b96003e52fd7b5ae76fd95,0.0301,0.0301,0,70,70,41,1,onethree,,,,,,,,,,,,,,,,,,,,,,,,,,,,,,,,,,,,,,,,,,,,,,,,,,,,,,,,,,,,,,,,,,,,,,,,,,,,,,,,,,,,,,,,,,,,,,,,,,,,,,,,,,,,,,,,,,,,,,,,,,,,,,,,,,,,,,,,,
,,69a7f38b36ee9d5acad39b24,2026-03-17_07h10.16.623,kallum_motion_pilot_GIST_update_2,2026.1.1,MacIntel,62.11180124,69a7f38b36ee9d5acad39b24,69b95efdef24cd8a694e89ee,69b96003e52fd7b5ae76fd95,0.0302,0.0302,0,71,71,142,1,eightsix,,,,,,,,,,,,,,,,,,,,,,,,,,,,,,,,,,,,,,,,,,,,,,,,,,,,,,,,,,,,,,,,,,,,,,,,,,,,,,,,,,,,,,,,,,,,,,,,,,,,,,,,,,,,,,,,,,,,,,,,,,,,,,,,,,,,,,,,,
,,69a7f38b36ee9d5acad39b24,2026-03-17_07h10.16.623,kallum_motion_pilot_GIST_update_2,2026.1.1,MacIntel,62.11180124,69a7f38b36ee9d5acad39b24,69b95efdef24cd8a694e89ee,69b96003e52fd7b5ae76fd95,0.0303,0.0303,0,72,72,79,1,eightseven,,,,,,,,,,,,,,,,,,,,,,,,,,,,,,,,,,,,,,,,,,,,,,,,,,,,,,,,,,,,,,,,,,,,,,,,,,,,,,,,,,,,,,,,,,,,,,,,,,,,,,,,,,,,,,,,,,,,,,,,,,,,,,,,,,,,,,,,,
,,69a7f38b36ee9d5acad39b24,2026-03-17_07h10.16.623,kallum_motion_pilot_GIST_update_2,2026.1.1,MacIntel,62.11180124,69a7f38b36ee9d5acad39b24,69b95efdef24cd8a694e89ee,69b96003e52fd7b5ae76fd95,0.0303,0.0303,0,73,73,5,1,threefour,,,,,,,,,,,,,,,,,,,,,,,,,,,,,,,,,,,,,,,,,,,,,,,,,,,,,,,,,,,,,,,,,,,,,,,,,,,,,,,,,,,,,,,,,,,,,,,,,,,,,,,,,,,,,,,,,,,,,,,,,,,,,,,,,,,,,,,,,
,,69a7f38b36ee9d5acad39b24,2026-03-17_07h10.16.623,kallum_motion_pilot_GIST_update_2,2026.1.1,MacIntel,62.11180124,69a7f38b36ee9d5acad39b24,69b95efdef24cd8a694e89ee,69b96003e52fd7b5ae76fd95,0.0305,0.0305,0,74,74,0,1,onetwo,,,,,,,,,,,,,,,,,,,,,,,,,,,,,,,,,,,,,,,,,,,,,,,,,,,,,,,,,,,,,,,,,,,,,,,,,,,,,,,,,,,,,,,,,,,,,,,,,,,,,,,,,,,,,,,,,,,,,,,,,,,,,,,,,,,,,,,,,
,,69a7f38b36ee9d5acad39b24,2026-03-17_07h10.16.623,kallum_motion_pilot_GIST_update_2,2026.1.1,MacIntel,62.11180124,69a7f38b36ee9d5acad39b24,69b95efdef24cd8a694e89ee,69b96003e52fd7b5ae76fd95,0.0306,0.0306,0,75,75,100,1,sevenfive,,,,,,,,,,,,,,,,,,,,,,,,,,,,,,,,,,,,,,,,,,,,,,,,,,,,,,,,,,,,,,,,,,,,,,,,,,,,,,,,,,,,,,,,,,,,,,,,,,,,,,,,,,,,,,,,,,,,,,,,,,,,,,,,,,,,,,,,,
,,69a7f38b36ee9d5acad39b24,2026-03-17_07h10.16.623,kallum_motion_pilot_GIST_update_2,2026.1.1,MacIntel,62.11180124,69a7f38b36ee9d5acad39b24,69b95efdef24cd8a694e89ee,69b96003e52fd7b5ae76fd95,0.0307,0.0307,0,76,76,22,1,fourtwo,,,,,,,,,,,,,,,,,,,,,,,,,,,,,,,,,,,,,,,,,,,,,,,,,,,,,,,,,,,,,,,,,,,,,,,,,,,,,,,,,,,,,,,,,,,,,,,,,,,,,,,,,,,,,,,,,,,,,,,,,,,,,,,,,,,,,,,,,
,,69a7f38b36ee9d5acad39b24,2026-03-17_07h10.16.623,kallum_motion_pilot_GIST_update_2,2026.1.1,MacIntel,62.11180124,69a7f38b36ee9d5acad39b24,69b95efdef24cd8a694e89ee,69b96003e52fd7b5ae76fd95,0.0311,0.0311,0,77,77,105,1,fiveseven,,,,,,,,,,,,,,,,,,,,,,,,,,,,,,,,,,,,,,,,,,,,,,,,,,,,,,,,,,,,,,,,,,,,,,,,,,,,,,,,,,,,,,,,,,,,,,,,,,,,,,,,,,,,,,,,,,,,,,,,,,,,,,,,,,,,,,,,,
,,69a7f38b36ee9d5acad39b24,2026-03-17_07h10.16.623,kallum_motion_pilot_GIST_update_2,2026.1.1,MacIntel,62.11180124,69a7f38b36ee9d5acad39b24,69b95efdef24cd8a694e89ee,69b96003e52fd7b5ae76fd95,0.0312,0.0313,0,78,78,6,1,fourtwo,,,,,,,,,,,,,,,,,,,,,,,,,,,,,,,,,,,,,,,,,,,,,,,,,,,,,,,,,,,,,,,,,,,,,,,,,,,,,,,,,,,,,,,,,,,,,,,,,,,,,,,,,,,,,,,,,,,,,,,,,,,,,,,,,,,,,,,,,
,,69a7f38b36ee9d5acad39b24,2026-03-17_07h10.16.623,kallum_motion_pilot_GIST_update_2,2026.1.1,MacIntel,62.11180124,69a7f38b36ee9d5acad39b24,69b95efdef24cd8a694e89ee,69b96003e52fd7b5ae76fd95,0.0313,0.0314,0,79,79,37,1,threefour,,,,,,,,,,,,,,,,,,,,,,,,,,,,,,,,,,,,,,,,,,,,,,,,,,,,,,,,,,,,,,,,,,,,,,,,,,,,,,,,,,,,,,,,,,,,,,,,,,,,,,,,,,,,,,,,,,,,,,,,,,,,,,,,,,,,,,,,,
,,69a7f38b36ee9d5acad39b24,2026-03-17_07h10.16.623,kallum_motion_pilot_GIST_update_2,2026.1.1,MacIntel,62.11180124,69a7f38b36ee9d5acad39b24,69b95efdef24cd8a694e89ee,69b96003e52fd7b5ae76fd95,0.0315,0.0315,0,80,80,122,1,sixfive,,,,,,,,,,,,,,,,,,,,,,,,,,,,,,,,,,,,,,,,,,,,,,,,,,,,,,,,,,,,,,,,,,,,,,,,,,,,,,,,,,,,,,,,,,,,,,,,,,,,,,,,,,,,,,,,,,,,,,,,,,,,,,,,,,,,,,,,,
,,69a7f38b36ee9d5acad39b24,2026-03-17_07h10.16.623,kallum_motion_pilot_GIST_update_2,2026.1.1,MacIntel,62.11180124,69a7f38b36ee9d5acad39b24,69b95efdef24cd8a694e89ee,69b96003e52fd7b5ae76fd95,0.0316,0.0316,0,81,81,66,1,twoone,,,,,,,,,,,,,,,,,,,,,,,,,,,,,,,,,,,,,,,,,,,,,,,,,,,,,,,,,,,,,,,,,,,,,,,,,,,,,,,,,,,,,,,,,,,,,,,,,,,,,,,,,,,,,,,,,,,,,,,,,,,,,,,,,,,,,,,,,
,,69a7f38b36ee9d5acad39b24,2026-03-17_07h10.16.623,kallum_motion_pilot_GIST_update_2,2026.1.1,MacIntel,62.11180124,69a7f38b36ee9d5acad39b24,69b95efdef24cd8a694e89ee,69b96003e52fd7b5ae76fd95,0.0316,0.0316,0,82,82,44,1,threeone,,,,,,,,,,,,,,,,,,,,,,,,,,,,,,,,,,,,,,,,,,,,,,,,,,,,,,,,,,,,,,,,,,,,,,,,,,,,,,,,,,,,,,,,,,,,,,,,,,,,,,,,,,,,,,,,,,,,,,,,,,,,,,,,,,,,,,,,,
,,69a7f38b36ee9d5acad39b24,2026-03-17_07h10.16.623,kallum_motion_pilot_GIST_update_2,2026.1.1,MacIntel,62.11180124,69a7f38b36ee9d5acad39b24,69b95efdef24cd8a694e89ee,69b96003e52fd7b5ae76fd95,0.0317,0.0317,0,83,83,112,1,fivesix,,,,,,,,,,,,,,,,,,,,,,,,,,,,,,,,,,,,,,,,,,,,,,,,,,,,,,,,,,,,,,,,,,,,,,,,,,,,,,,,,,,,,,,,,,,,,,,,,,,,,,,,,,,,,,,,,,,,,,,,,,,,,,,,,,,,,,,,,
,,69a7f38b36ee9d5acad39b24,2026-03-17_07h10.16.623,kallum_motion_pilot_GIST_update_2,2026.1.1,MacIntel,62.11180124,69a7f38b36ee9d5acad39b24,69b95efdef24cd8a694e89ee,69b96003e52fd7b5ae76fd95,0.0318,0.0318,0,84,84,123,1,sixeight,,,,,,,,,,,,,,,,,,,,,,,,,,,,,,,,,,,,,,,,,,,,,,,,,,,,,,,,,,,,,,,,,,,,,,,,,,,,,,,,,,,,,,,,,,,,,,,,,,,,,,,,,,,,,,,,,,,,,,,,,,,,,,,,,,,,,,,,,
,,69a7f38b36ee9d5acad39b24,2026-03-17_07h10.16.623,kallum_motion_pilot_GIST_update_2,2026.1.1,MacIntel,62.11180124,69a7f38b36ee9d5acad39b24,69b95efdef24cd8a694e89ee,69b96003e52fd7b5ae76fd95,0.0319,0.0319,0,85,85,129,1,fiveseven,,,,,,,,,,,,,,,,,,,,,,,,,,,,,,,,,,,,,,,,,,,,,,,,,,,,,,,,,,,,,,,,,,,,,,,,,,,,,,,,,,,,,,,,,,,,,,,,,,,,,,,,,,,,,,,,,,,,,,,,,,,,,,,,,,,,,,,,,
,,69a7f38b36ee9d5acad39b24,2026-03-17_07h10.16.623,kallum_motion_pilot_GIST_update_2,2026.1.1,MacIntel,62.11180124,69a7f38b36ee9d5acad39b24,69b95efdef24cd8a694e89ee,69b96003e52fd7b5ae76fd95,0.0321,0.0321,0,86,86,55,1,fourthree,,,,,,,,,,,,,,,,,,,,,,,,,,,,,,,,,,,,,,,,,,,,,,,,,,,,,,,,,,,,,,,,,,,,,,,,,,,,,,,,,,,,,,,,,,,,,,,,,,,,,,,,,,,,,,,,,,,,,,,,,,,,,,,,,,,,,,,,,
,,69a7f38b36ee9d5acad39b24,2026-03-17_07h10.16.623,kallum_motion_pilot_GIST_update_2,2026.1.1,MacIntel,62.11180124,69a7f38b36ee9d5acad39b24,69b95efdef24cd8a694e89ee,69b96003e52fd7b5ae76fd95,0.0322,0.0323,0,87,87,89,1,fiveseven,,,,,,,,,,,,,,,,,,,,,,,,,,,,,,,,,,,,,,,,,,,,,,,,,,,,,,,,,,,,,,,,,,,,,,,,,,,,,,,,,,,,,,,,,,,,,,,,,,,,,,,,,,,,,,,,,,,,,,,,,,,,,,,,,,,,,,,,,
,,69a7f38b36ee9d5acad39b24,2026-03-17_07h10.16.623,kallum_motion_pilot_GIST_update_2,2026.1.1,MacIntel,62.11180124,69a7f38b36ee9d5acad39b24,69b95efdef24cd8a694e89ee,69b96003e52fd7b5ae76fd95,0.0323,0.0323,0,88,88,76,1,threeone,,,,,,,,,,,,,,,,,,,,,,,,,,,,,,,,,,,,,,,,,,,,,,,,,,,,,,,,,,,,,,,,,,,,,,,,,,,,,,,,,,,,,,,,,,,,,,,,,,,,,,,,,,,,,,,,,,,,,,,,,,,,,,,,,,,,,,,,,
,,69a7f38b36ee9d5acad39b24,2026-03-17_07h10.16.623,kallum_motion_pilot_GIST_update_2,2026.1.1,MacIntel,62.11180124,69a7f38b36ee9d5acad39b24,69b95efdef24cd8a694e89ee,69b96003e52fd7b5ae76fd95,0.0325,0.0325,0,89,89,25,1,onethree,,,,,,,,,,,,,,,,,,,,,,,,,,,,,,,,,,,,,,,,,,,,,,,,,,,,,,,,,,,,,,,,,,,,,,,,,,,,,,,,,,,,,,,,,,,,,,,,,,,,,,,,,,,,,,,,,,,,,,,,,,,,,,,,,,,,,,,,,
,,69a7f38b36ee9d5acad39b24,2026-03-17_07h10.16.623,kallum_motion_pilot_GIST_update_2,2026.1.1,MacIntel,62.11180124,69a7f38b36ee9d5acad39b24,69b95efdef24cd8a694e89ee,69b96003e52fd7b5ae76fd95,0.0326,0.0326,0,90,90,12,1,threeone,,,,,,,,,,,,,,,,,,,,,,,,,,,,,,,,,,,,,,,,,,,,,,,,,,,,,,,,,,,,,,,,,,,,,,,,,,,,,,,,,,,,,,,,,,,,,,,,,,,,,,,,,,,,,,,,,,,,,,,,,,,,,,,,,,,,,,,,,
,,69a7f38b36ee9d5acad39b24,2026-03-17_07h10.16.623,kallum_motion_pilot_GIST_update_2,2026.1.1,MacIntel,62.11180124,69a7f38b36ee9d5acad39b24,69b95efdef24cd8a694e89ee,69b96003e52fd7b5ae76fd95,0.0327,0.0327,0,91,91,93,1,seveneight,,,,,,,,,,,,,,,,,,,,,,,,,,,,,,,,,,,,,,,,,,,,,,,,,,,,,,,,,,,,,,,,,,,,,,,,,,,,,,,,,,,,,,,,,,,,,,,,,,,,,,,,,,,,,,,,,,,,,,,,,,,,,,,,,,,,,,,,,
,,69a7f38b36ee9d5acad39b24,2026-03-17_07h10.16.623,kallum_motion_pilot_GIST_update_2,2026.1.1,MacIntel,62.11180124,69a7f38b36ee9d5acad39b24,69b95efdef24cd8a694e89ee,69b96003e52fd7b5ae76fd95,0.0328,0.0328,0,92,92,80,1,fivesix,,,,,,,,,,,,,,,,,,,,,,,,,,,,,,,,,,,,,,,,,,,,,,,,,,,,,,,,,,,,,,,,,,,,,,,,,,,,,,,,,,,,,,,,,,,,,,,,,,,,,,,,,,,,,,,,,,,,,,,,,,,,,,,,,,,,,,,,,
,,69a7f38b36ee9d5acad39b24,2026-03-17_07h10.16.623,kallum_motion_pilot_GIST_update_2,2026.1.1,MacIntel,62.11180124,69a7f38b36ee9d5acad39b24,69b95efdef24cd8a694e89ee,69b96003e52fd7b5ae76fd95,0.0329,0.0329,0,93,93,116,1,sevenfive,,,,,,,,,,,,,,,,,,,,,,,,,,,,,,,,,,,,,,,,,,,,,,,,,,,,,,,,,,,,,,,,,,,,,,,,,,,,,,,,,,,,,,,,,,,,,,,,,,,,,,,,,,,,,,,,,,,,,,,,,,,,,,,,,,,,,,,,,
,,69a7f38b36ee9d5acad39b24,2026-03-17_07h10.16.623,kallum_motion_pilot_GIST_update_2,2026.1.1,MacIntel,62.11180124,69a7f38b36ee9d5acad39b24,69b95efdef24cd8a694e89ee,69b96003e52fd7b5ae76fd95,0.0329,0.0329,0,94,94,106,1,sixfive,,,,,,,,,,,,,,,,,,,,,,,,,,,,,,,,,,,,,,,,,,,,,,,,,,,,,,,,,,,,,,,,,,,,,,,,,,,,,,,,,,,,,,,,,,,,,,,,,,,,,,,,,,,,,,,,,,,,,,,,,,,,,,,,,,,,,,,,,
,,69a7f38b36ee9d5acad39b24,2026-03-17_07h10.16.623,kallum_motion_pilot_GIST_update_2,2026.1.1,MacIntel,62.11180124,69a7f38b36ee9d5acad39b24,69b95efdef24cd8a694e89ee,69b96003e52fd7b5ae76fd95,0.0331,0.0331,0,95,95,120,1,fivesix,,,,,,,,,,,,,,,,,,,,,,,,,,,,,,,,,,,,,,,,,,,,,,,,,,,,,,,,,,,,,,,,,,,,,,,,,,,,,,,,,,,,,,,,,,,,,,,,,,,,,,,,,,,,,,,,,,,,,,,,,,,,,,,,,,,,,,,,,
,,69a7f38b36ee9d5acad39b24,2026-03-17_07h10.16.623,kallum_motion_pilot_GIST_update_2,2026.1.1,MacIntel,62.11180124,69a7f38b36ee9d5acad39b24,69b95efdef24cd8a694e89ee,69b96003e52fd7b5ae76fd95,0.0331,0.0331,0,96,96,14,1,fourtwo,,,,,,,,,,,,,,,,,,,,,,,,,,,,,,,,,,,,,,,,,,,,,,,,,,,,,,,,,,,,,,,,,,,,,,,,,,,,,,,,,,,,,,,,,,,,,,,,,,,,,,,,,,,,,,,,,,,,,,,,,,,,,,,,,,,,,,,,,
,,69a7f38b36ee9d5acad39b24,2026-03-17_07h10.16.623,kallum_motion_pilot_GIST_update_2,2026.1.1,MacIntel,62.11180124,69a7f38b36ee9d5acad39b24,69b95efdef24cd8a694e89ee,69b96003e52fd7b5ae76fd95,0.0332,0.0332,0,97,97,50,1,twoone,,,,,,,,,,,,,,,,,,,,,,,,,,,,,,,,,,,,,,,,,,,,,,,,,,,,,,,,,,,,,,,,,,,,,,,,,,,,,,,,,,,,,,,,,,,,,,,,,,,,,,,,,,,,,,,,,,,,,,,,,,,,,,,,,,,,,,,,,
,,69a7f38b36ee9d5acad39b24,2026-03-17_07h10.16.623,kallum_motion_pilot_GIST_update_2,2026.1.1,MacIntel,62.11180124,69a7f38b36ee9d5acad39b24,69b95efdef24cd8a694e89ee,69b96003e52fd7b5ae76fd95,0.0333,0.0333,0,98,98,95,1,eightseven,,,,,,,,,,,,,,,,,,,,,,,,,,,,,,,,,,,,,,,,,,,,,,,,,,,,,,,,,,,,,,,,,,,,,,,,,,,,,,,,,,,,,,,,,,,,,,,,,,,,,,,,,,,,,,,,,,,,,,,,,,,,,,,,,,,,,,,,,
,,69a7f38b36ee9d5acad39b24,2026-03-17_07h10.16.623,kallum_motion_pilot_GIST_update_2,2026.1.1,MacIntel,62.11180124,69a7f38b36ee9d5acad39b24,69b95efdef24cd8a694e89ee,69b96003e52fd7b5ae76fd95,0.0334,0.0334,0,99,99,3,1,twofour,,,,,,,,,,,,,,,,,,,,,,,,,,,,,,,,,,,,,,,,,,,,,,,,,,,,,,,,,,,,,,,,,,,,,,,,,,,,,,,,,,,,,,,,,,,,,,,,,,,,,,,,,,,,,,,,,,,,,,,,,,,,,,,,,,,,,,,,,
,,69a7f38b36ee9d5acad39b24,2026-03-17_07h10.16.623,kallum_motion_pilot_GIST_update_2,2026.1.1,MacIntel,62.11180124,69a7f38b36ee9d5acad39b24,69b95efdef24cd8a694e89ee,69b96003e52fd7b5ae76fd95,0.0335,0.0335,0,100,100,21,1,threefour,,,,,,,,,,,,,,,,,,,,,,,,,,,,,,,,,,,,,,,,,,,,,,,,,,,,,,,,,,,,,,,,,,,,,,,,,,,,,,,,,,,,,,,,,,,,,,,,,,,,,,,,,,,,,,,,,,,,,,,,,,,,,,,,,,,,,,,,,
,,69a7f38b36ee9d5acad39b24,2026-03-17_07h10.16.623,kallum_motion_pilot_GIST_update_2,2026.1.1,MacIntel,62.11180124,69a7f38b36ee9d5acad39b24,69b95efdef24cd8a694e89ee,69b96003e52fd7b5ae76fd95,0.0336,0.0336,0,101,101,45,1,threefour,,,,,,,,,,,,,,,,,,,,,,,,,,,,,,,,,,,,,,,,,,,,,,,,,,,,,,,,,,,,,,,,,,,,,,,,,,,,,,,,,,,,,,,,,,,,,,,,,,,,,,,,,,,,,,,,,,,,,,,,,,,,,,,,,,,,,,,,,
,,69a7f38b36ee9d5acad39b24,2026-03-17_07h10.16.623,kallum_motion_pilot_GIST_update_2,2026.1.1,MacIntel,62.11180124,69a7f38b36ee9d5acad39b24,69b95efdef24cd8a694e89ee,69b96003e52fd7b5ae76fd95,0.0338,0.0338,0,102,102,156,1,sevenfive,,,,,,,,,,,,,,,,,,,,,,,,,,,,,,,,,,,,,,,,,,,,,,,,,,,,,,,,,,,,,,,,,,,,,,,,,,,,,,,,,,,,,,,,,,,,,,,,,,,,,,,,,,,,,,,,,,,,,,,,,,,,,,,,,,,,,,,,,
,,69a7f38b36ee9d5acad39b24,2026-03-17_07h10.16.623,kallum_motion_pilot_GIST_update_2,2026.1.1,MacIntel,62.11180124,69a7f38b36ee9d5acad39b24,69b95efdef24cd8a694e89ee,69b96003e52fd7b5ae76fd95,0.0338,0.0339,0,103,103,13,1,threefour,,,,,,,,,,,,,,,,,,,,,,,,,,,,,,,,,,,,,,,,,,,,,,,,,,,,,,,,,,,,,,,,,,,,,,,,,,,,,,,,,,,,,,,,,,,,,,,,,,,,,,,,,,,,,,,,,,,,,,,,,,,,,,,,,,,,,,,,,
,,69a7f38b36ee9d5acad39b24,2026-03-17_07h10.16.623,kallum_motion_pilot_GIST_update_2,2026.1.1,MacIntel,62.11180124,69a7f38b36ee9d5acad39b24,69b95efdef24cd8a694e89ee,69b96003e52fd7b5ae76fd95,0.0339,0.0339,0,104,104,53,1,threefour,,,,,,,,,,,,,,,,,,,,,,,,,,,,,,,,,,,,,,,,,,,,,,,,,,,,,,,,,,,,,,,,,,,,,,,,,,,,,,,,,,,,,,,,,,,,,,,,,,,,,,,,,,,,,,,,,,,,,,,,,,,,,,,,,,,,,,,,,
,,69a7f38b36ee9d5acad39b24,2026-03-17_07h10.16.623,kallum_motion_pilot_GIST_update_2,2026.1.1,MacIntel,62.11180124,69a7f38b36ee9d5acad39b24,69b95efdef24cd8a694e89ee,69b96003e52fd7b5ae76fd95,0.034,0.034,0,105,105,56,1,onetwo,,,,,,,,,,,,,,,,,,,,,,,,,,,,,,,,,,,,,,,,,,,,,,,,,,,,,,,,,,,,,,,,,,,,,,,,,,,,,,,,,,,,,,,,,,,,,,,,,,,,,,,,,,,,,,,,,,,,,,,,,,,,,,,,,,,,,,,,,
,,69a7f38b36ee9d5acad39b24,2026-03-17_07h10.16.623,kallum_motion_pilot_GIST_update_2,2026.1.1,MacIntel,62.11180124,69a7f38b36ee9d5acad39b24,69b95efdef24cd8a694e89ee,69b96003e52fd7b5ae76fd95,0.0341,0.0341,0,106,106,18,1,twoone,,,,,,,,,,,,,,,,,,,,,,,,,,,,,,,,,,,,,,,,,,,,,,,,,,,,,,,,,,,,,,,,,,,,,,,,,,,,,,,,,,,,,,,,,,,,,,,,,,,,,,,,,,,,,,,,,,,,,,,,,,,,,,,,,,,,,,,,,
,,69a7f38b36ee9d5acad39b24,2026-03-17_07h10.16.623,kallum_motion_pilot_GIST_update_2,2026.1.1,MacIntel,62.11180124,69a7f38b36ee9d5acad39b24,69b95efdef24cd8a694e89ee,69b96003e52fd7b5ae76fd95,0.0342,0.0342,0,107,107,20,1,threeone,,,,,,,,,,,,,,,,,,,,,,,,,,,,,,,,,,,,,,,,,,,,,,,,,,,,,,,,,,,,,,,,,,,,,,,,,,,,,,,,,,,,,,,,,,,,,,,,,,,,,,,,,,,,,,,,,,,,,,,,,,,,,,,,,,,,,,,,,
,,69a7f38b36ee9d5acad39b24,2026-03-17_07h10.16.623,kallum_motion_pilot_GIST_update_2,2026.1.1,MacIntel,62.11180124,69a7f38b36ee9d5acad39b24,69b95efdef24cd8a694e89ee,69b96003e52fd7b5ae76fd95,0.0343,0.0343,0,108,108,136,1,fivesix,,,,,,,,,,,,,,,,,,,,,,,,,,,,,,,,,,,,,,,,,,,,,,,,,,,,,,,,,,,,,,,,,,,,,,,,,,,,,,,,,,,,,,,,,,,,,,,,,,,,,,,,,,,,,,,,,,,,,,,,,,,,,,,,,,,,,,,,,
,,69a7f38b36ee9d5acad39b24,2026-03-17_07h10.16.623,kallum_motion_pilot_GIST_update_2,2026.1.1,MacIntel,62.11180124,69a7f38b36ee9d5acad39b24,69b95efdef24cd8a694e89ee,69b96003e52fd7b5ae76fd95,0.0344,0.0344,0,109,109,49,1,onethree,,,,,,,,,,,,,,,,,,,,,,,,,,,,,,,,,,,,,,,,,,,,,,,,,,,,,,,,,,,,,,,,,,,,,,,,,,,,,,,,,,,,,,,,,,,,,,,,,,,,,,,,,,,,,,,,,,,,,,,,,,,,,,,,,,,,,,,,,
,,69a7f38b36ee9d5acad39b24,2026-03-17_07h10.16.623,kallum_motion_pilot_GIST_update_2,2026.1.1,MacIntel,62.11180124,69a7f38b36ee9d5acad39b24,69b95efdef24cd8a694e89ee,69b96003e52fd7b5ae76fd95,0.0346,0.0346,0,110,110,117,1,seveneight,,,,,,,,,,,,,,,,,,,,,,,,,,,,,,,,,,,,,,,,,,,,,,,,,,,,,,,,,,,,,,,,,,,,,,,,,,,,,,,,,,,,,,,,,,,,,,,,,,,,,,,,,,,,,,,,,,,,,,,,,,,,,,,,,,,,,,,,,
,,69a7f38b36ee9d5acad39b24,2026-03-17_07h10.16.623,kallum_motion_pilot_GIST_update_2,2026.1.1,MacIntel,62.11180124,69a7f38b36ee9d5acad39b24,69b95efdef24cd8a694e89ee,69b96003e52fd7b5ae76fd95,0.0346,0.0346,0,111,111,87,1,eightseven,,,,,,,,,,,,,,,,,,,,,,,,,,,,,,,,,,,,,,,,,,,,,,,,,,,,,,,,,,,,,,,,,,,,,,,,,,,,,,,,,,,,,,,,,,,,,,,,,,,,,,,,,,,,,,,,,,,,,,,,,,,,,,,,,,,,,,,,,
,,69a7f38b36ee9d5acad39b24,2026-03-17_07h10.16.623,kallum_motion_pilot_GIST_update_2,2026.1.1,MacIntel,62.11180124,69a7f38b36ee9d5acad39b24,69b95efdef24cd8a694e89ee,69b96003e52fd7b5ae76fd95,0.0347,0.0347,0,112,112,61,1,threefour,,,,,,,,,,,,,,,,,,,,,,,,,,,,,,,,,,,,,,,,,,,,,,,,,,,,,,,,,,,,,,,,,,,,,,,,,,,,,,,,,,,,,,,,,,,,,,,,,,,,,,,,,,,,,,,,,,,,,,,,,,,,,,,,,,,,,,,,,
,,69a7f38b36ee9d5acad39b24,2026-03-17_07h10.16.623,kallum_motion_pilot_GIST_update_2,2026.1.1,MacIntel,62.11180124,69a7f38b36ee9d5acad39b24,69b95efdef24cd8a694e89ee,69b96003e52fd7b5ae76fd95,0.0349,0.0349,0,113,113,85,1,seveneight,,,,,,,,,,,,,,,,,,,,,,,,,,,,,,,,,,,,,,,,,,,,,,,,,,,,,,,,,,,,,,,,,,,,,,,,,,,,,,,,,,,,,,,,,,,,,,,,,,,,,,,,,,,,,,,,,,,,,,,,,,,,,,,,,,,,,,,,,
,,69a7f38b36ee9d5acad39b24,2026-03-17_07h10.16.623,kallum_motion_pilot_GIST_update_2,2026.1.1,MacIntel,62.11180124,69a7f38b36ee9d5acad39b24,69b95efdef24cd8a694e89ee,69b96003e52fd7b5ae76fd95,0.0349,0.0349,0,114,114,160,1,fivesix,,,,,,,,,,,,,,,,,,,,,,,,,,,,,,,,,,,,,,,,,,,,,,,,,,,,,,,,,,,,,,,,,,,,,,,,,,,,,,,,,,,,,,,,,,,,,,,,,,,,,,,,,,,,,,,,,,,,,,,,,,,,,,,,,,,,,,,,,
,,69a7f38b36ee9d5acad39b24,2026-03-17_07h10.16.623,kallum_motion_pilot_GIST_update_2,2026.1.1,MacIntel,62.11180124,69a7f38b36ee9d5acad39b24,69b95efdef24cd8a694e89ee,69b96003e52fd7b5ae76fd95,0.035,0.035,0,115,115,99,1,sixeight,,,,,,,,,,,,,,,,,,,,,,,,,,,,,,,,,,,,,,,,,,,,,,,,,,,,,,,,,,,,,,,,,,,,,,,,,,,,,,,,,,,,,,,,,,,,,,,,,,,,,,,,,,,,,,,,,,,,,,,,,,,,,,,,,,,,,,,,,
,,69a7f38b36ee9d5acad39b24,2026-03-17_07h10.16.623,kallum_motion_pilot_GIST_update_2,2026.1.1,MacIntel,62.11180124,69a7f38b36ee9d5acad39b24,69b95efdef24cd8a694e89ee,69b96003e52fd7b5ae76fd95,0.0351,0.0351,0,116,116,30,1,fourtwo,,,,,,,,,,,,,,,,,,,,,,,,,,,,,,,,,,,,,,,,,,,,,,,,,,,,,,,,,,,,,,,,,,,,,,,,,,,,,,,,,,,,,,,,,,,,,,,,,,,,,,,,,,,,,,,,,,,,,,,,,,,,,,,,,,,,,,,,,
,,69a7f38b36ee9d5acad39b24,2026-03-17_07h10.16.623,kallum_motion_pilot_GIST_update_2,2026.1.1,MacIntel,62.11180124,69a7f38b36ee9d5acad39b24,69b95efdef24cd8a694e89ee,69b96003e52fd7b5ae76fd95,0.0351,0.0352,0,117,117,73,1,onethree,,,,,,,,,,,,,,,,,,,,,,,,,,,,,,,,,,,,,,,,,,,,,,,,,,,,,,,,,,,,,,,,,,,,,,,,,,,,,,,,,,,,,,,,,,,,,,,,,,,,,,,,,,,,,,,,,,,,,,,,,,,,,,,,,,,,,,,,,
,,69a7f38b36ee9d5acad39b24,2026-03-17_07h10.16.623,kallum_motion_pilot_GIST_update_2,2026.1.1,MacIntel,62.11180124,69a7f38b36ee9d5acad39b24,69b95efdef24cd8a694e89ee,69b96003e52fd7b5ae76fd95,0.0353,0.0353,0,118,118,92,1,sevenfive,,,,,,,,,,,,,,,,,,,,,,,,,,,,,,,,,,,,,,,,,,,,,,,,,,,,,,,,,,,,,,,,,,,,,,,,,,,,,,,,,,,,,,,,,,,,,,,,,,,,,,,,,,,,,,,,,,,,,,,,,,,,,,,,,,,,,,,,,
,,69a7f38b36ee9d5acad39b24,2026-03-17_07h10.16.623,kallum_motion_pilot_GIST_update_2,2026.1.1,MacIntel,62.11180124,69a7f38b36ee9d5acad39b24,69b95efdef24cd8a694e89ee,69b96003e52fd7b5ae76fd95,0.0355,0.0355,0,119,119,104,1,fivesix,,,,,,,,,,,,,,,,,,,,,,,,,,,,,,,,,,,,,,,,,,,,,,,,,,,,,,,,,,,,,,,,,,,,,,,,,,,,,,,,,,,,,,,,,,,,,,,,,,,,,,,,,,,,,,,,,,,,,,,,,,,,,,,,,,,,,,,,,
,,69a7f38b36ee9d5acad39b24,2026-03-17_07h10.16.623,kallum_motion_pilot_GIST_update_2,2026.1.1,MacIntel,62.11180124,69a7f38b36ee9d5acad39b24,69b95efdef24cd8a694e89ee,69b96003e52fd7b5ae76fd95,0.0358,0.0358,0,120,120,75,1,twofour,,,,,,,,,,,,,,,,,,,,,,,,,,,,,,,,,,,,,,,,,,,,,,,,,,,,,,,,,,,,,,,,,,,,,,,,,,,,,,,,,,,,,,,,,,,,,,,,,,,,,,,,,,,,,,,,,,,,,,,,,,,,,,,,,,,,,,,,,
,,69a7f38b36ee9d5acad39b24,2026-03-17_07h10.16.623,kallum_motion_pilot_GIST_update_2,2026.1.1,MacIntel,62.11180124,69a7f38b36ee9d5acad39b24,69b95efdef24cd8a694e89ee,69b96003e52fd7b5ae76fd95,0.036,0.036,0,121,121,90,1,sixfive,,,,,,,,,,,,,,,,,,,,,,,,,,,,,,,,,,,,,,,,,,,,,,,,,,,,,,,,,,,,,,,,,,,,,,,,,,,,,,,,,,,,,,,,,,,,,,,,,,,,,,,,,,,,,,,,,,,,,,,,,,,,,,,,,,,,,,,,,
,,69a7f38b36ee9d5acad39b24,2026-03-17_07h10.16.623,kallum_motion_pilot_GIST_update_2,2026.1.1,MacIntel,62.11180124,69a7f38b36ee9d5acad39b24,69b95efdef24cd8a694e89ee,69b96003e52fd7b5ae76fd95,0.0361,0.0361,0,122,122,62,1,fourtwo,,,,,,,,,,,,,,,,,,,,,,,,,,,,,,,,,,,,,,,,,,,,,,,,,,,,,,,,,,,,,,,,,,,,,,,,,,,,,,,,,,,,,,,,,,,,,,,,,,,,,,,,,,,,,,,,,,,,,,,,,,,,,,,,,,,,,,,,,
,,69a7f38b36ee9d5acad39b24,2026-03-17_07h10.16.623,kallum_motion_pilot_GIST_update_2,2026.1.1,MacIntel,62.11180124,69a7f38b36ee9d5acad39b24,69b95efdef24cd8a694e89ee,69b96003e52fd7b5ae76fd95,0.0361,0.0361,0,123,123,28,1,threeone,,,,,,,,,,,,,,,,,,,,,,,,,,,,,,,,,,,,,,,,,,,,,,,,,,,,,,,,,,,,,,,,,,,,,,,,,,,,,,,,,,,,,,,,,,,,,,,,,,,,,,,,,,,,,,,,,,,,,,,,,,,,,,,,,,,,,,,,,
,,69a7f38b36ee9d5acad39b24,2026-03-17_07h10.16.623,kallum_motion_pilot_GIST_update_2,2026.1.1,MacIntel,62.11180124,69a7f38b36ee9d5acad39b24,69b95efdef24cd8a694e89ee,69b96003e52fd7b5ae76fd95,0.0363,0.0363,0,124,124,26,1,twoone,,,,,,,,,,,,,,,,,,,,,,,,,,,,,,,,,,,,,,,,,,,,,,,,,,,,,,,,,,,,,,,,,,,,,,,,,,,,,,,,,,,,,,,,,,,,,,,,,,,,,,,,,,,,,,,,,,,,,,,,,,,,,,,,,,,,,,,,,
,,69a7f38b36ee9d5acad39b24,2026-03-17_07h10.16.623,kallum_motion_pilot_GIST_update_2,2026.1.1,MacIntel,62.11180124,69a7f38b36ee9d5acad39b24,69b95efdef24cd8a694e89ee,69b96003e52fd7b5ae76fd95,0.0364,0.0364,0,125,125,33,1,onethree,,,,,,,,,,,,,,,,,,,,,,,,,,,,,,,,,,,,,,,,,,,,,,,,,,,,,,,,,,,,,,,,,,,,,,,,,,,,,,,,,,,,,,,,,,,,,,,,,,,,,,,,,,,,,,,,,,,,,,,,,,,,,,,,,,,,,,,,,
,,69a7f38b36ee9d5acad39b24,2026-03-17_07h10.16.623,kallum_motion_pilot_GIST_update_2,2026.1.1,MacIntel,62.11180124,69a7f38b36ee9d5acad39b24,69b95efdef24cd8a694e89ee,69b96003e52fd7b5ae76fd95,0.0365,0.0365,0,126,126,110,1,eightsix,,,,,,,,,,,,,,,,,,,,,,,,,,,,,,,,,,,,,,,,,,,,,,,,,,,,,,,,,,,,,,,,,,,,,,,,,,,,,,,,,,,,,,,,,,,,,,,,,,,,,,,,,,,,,,,,,,,,,,,,,,,,,,,,,,,,,,,,,
,,69a7f38b36ee9d5acad39b24,2026-03-17_07h10.16.623,kallum_motion_pilot_GIST_update_2,2026.1.1,MacIntel,62.11180124,69a7f38b36ee9d5acad39b24,69b95efdef24cd8a694e89ee,69b96003e52fd7b5ae76fd95,0.0367,0.0367,0,127,127,77,1,threefour,,,,,,,,,,,,,,,,,,,,,,,,,,,,,,,,,,,,,,,,,,,,,,,,,,,,,,,,,,,,,,,,,,,,,,,,,,,,,,,,,,,,,,,,,,,,,,,,,,,,,,,,,,,,,,,,,,,,,,,,,,,,,,,,,,,,,,,,,
,,69a7f38b36ee9d5acad39b24,2026-03-17_07h10.16.623,kallum_motion_pilot_GIST_update_2,2026.1.1,MacIntel,62.11180124,69a7f38b36ee9d5acad39b24,69b95efdef24cd8a694e89ee,69b96003e52fd7b5ae76fd95,0.0367,0.0367,0,128,128,43,1,twofour,,,,,,,,,,,,,,,,,,,,,,,,,,,,,,,,,,,,,,,,,,,,,,,,,,,,,,,,,,,,,,,,,,,,,,,,,,,,,,,,,,,,,,,,,,,,,,,,,,,,,,,,,,,,,,,,,,,,,,,,,,,,,,,,,,,,,,,,,
,,69a7f38b36ee9d5acad39b24,2026-03-17_07h10.16.623,kallum_motion_pilot_GIST_update_2,2026.1.1,MacIntel,62.11180124,69a7f38b36ee9d5acad39b24,69b95efdef24cd8a694e89ee,69b96003e52fd7b5ae76fd95,0.0369,0.0369,0,129,129,38,1,fourtwo,,,,,,,,,,,,,,,,,,,,,,,,,,,,,,,,,,,,,,,,,,,,,,,,,,,,,,,,,,,,,,,,,,,,,,,,,,,,,,,,,,,,,,,,,,,,,,,,,,,,,,,,,,,,,,,,,,,,,,,,,,,,,,,,,,,,,,,,,
,,69a7f38b36ee9d5acad39b24,2026-03-17_07h10.16.623,kallum_motion_pilot_GIST_update_2,2026.1.1,MacIntel,62.11180124,69a7f38b36ee9d5acad39b24,69b95efdef24cd8a694e89ee,69b96003e52fd7b5ae76fd95,0.0369,0.0369,0,130,130,126,1,eightsix,,,,,,,,,,,,,,,,,,,,,,,,,,,,,,,,,,,,,,,,,,,,,,,,,,,,,,,,,,,,,,,,,,,,,,,,,,,,,,,,,,,,,,,,,,,,,,,,,,,,,,,,,,,,,,,,,,,,,,,,,,,,,,,,,,,,,,,,,
,,69a7f38b36ee9d5acad39b24,2026-03-17_07h10.16.623,kallum_motion_pilot_GIST_update_2,2026.1.1,MacIntel,62.11180124,69a7f38b36ee9d5acad39b24,69b95efdef24cd8a694e89ee,69b96003e52fd7b5ae76fd95,0.0371,0.0371,0,131,131,121,1,fiveseven,,,,,,,,,,,,,,,,,,,,,,,,,,,,,,,,,,,,,,,,,,,,,,,,,,,,,,,,,,,,,,,,,,,,,,,,,,,,,,,,,,,,,,,,,,,,,,,,,,,,,,,,,,,,,,,,,,,,,,,,,,,,,,,,,,,,,,,,,
,,69a7f38b36ee9d5acad39b24,2026-03-17_07h10.16.623,kallum_motion_pilot_GIST_update_2,2026.1.1,MacIntel,62.11180124,69a7f38b36ee9d5acad39b24,69b95efdef24cd8a694e89ee,69b96003e52fd7b5ae76fd95,0.0384,0.0384,0,132,132,155,1,sixeight,,,,,,,,,,,,,,,,,,,,,,,,,,,,,,,,,,,,,,,,,,,,,,,,,,,,,,,,,,,,,,,,,,,,,,,,,,,,,,,,,,,,,,,,,,,,,,,,,,,,,,,,,,,,,,,,,,,,,,,,,,,,,,,,,,,,,,,,,
,,69a7f38b36ee9d5acad39b24,2026-03-17_07h10.16.623,kallum_motion_pilot_GIST_update_2,2026.1.1,MacIntel,62.11180124,69a7f38b36ee9d5acad39b24,69b95efdef24cd8a694e89ee,69b96003e52fd7b5ae76fd95,0.0386,0.0386,0,133,133,151,1,eightseven,,,,,,,,,,,,,,,,,,,,,,,,,,,,,,,,,,,,,,,,,,,,,,,,,,,,,,,,,,,,,,,,,,,,,,,,,,,,,,,,,,,,,,,,,,,,,,,,,,,,,,,,,,,,,,,,,,,,,,,,,,,,,,,,,,,,,,,,,
,,69a7f38b36ee9d5acad39b24,2026-03-17_07h10.16.623,kallum_motion_pilot_GIST_update_2,2026.1.1,MacIntel,62.11180124,69a7f38b36ee9d5acad39b24,69b95efdef24cd8a694e89ee,69b96003e52fd7b5ae76fd95,0.0387,0.0387,0,134,134,115,1,sixeight,,,,,,,,,,,,,,,,,,,,,,,,,,,,,,,,,,,,,,,,,,,,,,,,,,,,,,,,,,,,,,,,,,,,,,,,,,,,,,,,,,,,,,,,,,,,,,,,,,,,,,,,,,,,,,,,,,,,,,,,,,,,,,,,,,,,,,,,,
,,69a7f38b36ee9d5acad39b24,2026-03-17_07h10.16.623,kallum_motion_pilot_GIST_update_2,2026.1.1,MacIntel,62.11180124,69a7f38b36ee9d5acad39b24,69b95efdef24cd8a694e89ee,69b96003e52fd7b5ae76fd95,0.0388,0.0388,0,135,135,143,1,eightseven,,,,,,,,,,,,,,,,,,,,,,,,,,,,,,,,,,,,,,,,,,,,,,,,,,,,,,,,,,,,,,,,,,,,,,,,,,,,,,,,,,,,,,,,,,,,,,,,,,,,,,,,,,,,,,,,,,,,,,,,,,,,,,,,,,,,,,,,,
,,69a7f38b36ee9d5acad39b24,2026-03-17_07h10.16.623,kallum_motion_pilot_GIST_update_2,2026.1.1,MacIntel,62.11180124,69a7f38b36ee9d5acad39b24,69b95efdef24cd8a694e89ee,69b96003e52fd7b5ae76fd95,0.0389,0.0389,0,136,136,78,1,fourtwo,,,,,,,,,,,,,,,,,,,,,,,,,,,,,,,,,,,,,,,,,,,,,,,,,,,,,,,,,,,,,,,,,,,,,,,,,,,,,,,,,,,,,,,,,,,,,,,,,,,,,,,,,,,,,,,,,,,,,,,,,,,,,,,,,,,,,,,,,
,,69a7f38b36ee9d5acad39b24,2026-03-17_07h10.16.623,kallum_motion_pilot_GIST_update_2,2026.1.1,MacIntel,62.11180124,69a7f38b36ee9d5acad39b24,69b95efdef24cd8a694e89ee,69b96003e52fd7b5ae76fd95,0.0389,0.039,0,137,137,118,1,eightsix,,,,,,,,,,,,,,,,,,,,,,,,,,,,,,,,,,,,,,,,,,,,,,,,,,,,,,,,,,,,,,,,,,,,,,,,,,,,,,,,,,,,,,,,,,,,,,,,,,,,,,,,,,,,,,,,,,,,,,,,,,,,,,,,,,,,,,,,,
,,69a7f38b36ee9d5acad39b24,2026-03-17_07h10.16.623,kallum_motion_pilot_GIST_update_2,2026.1.1,MacIntel,62.11180124,69a7f38b36ee9d5acad39b24,69b95efdef24cd8a694e89ee,69b96003e52fd7b5ae76fd95,0.0391,0.0391,0,138,138,147,1,sixeight,,,,,,,,,,,,,,,,,,,,,,,,,,,,,,,,,,,,,,,,,,,,,,,,,,,,,,,,,,,,,,,,,,,,,,,,,,,,,,,,,,,,,,,,,,,,,,,,,,,,,,,,,,,,,,,,,,,,,,,,,,,,,,,,,,,,,,,,,
,,69a7f38b36ee9d5acad39b24,2026-03-17_07h10.16.623,kallum_motion_pilot_GIST_update_2,2026.1.1,MacIntel,62.11180124,69a7f38b36ee9d5acad39b24,69b95efdef24cd8a694e89ee,69b96003e52fd7b5ae76fd95,0.0392,0.0392,0,139,139,58,1,twoone,,,,,,,,,,,,,,,,,,,,,,,,,,,,,,,,,,,,,,,,,,,,,,,,,,,,,,,,,,,,,,,,,,,,,,,,,,,,,,,,,,,,,,,,,,,,,,,,,,,,,,,,,,,,,,,,,,,,,,,,,,,,,,,,,,,,,,,,,
,,69a7f38b36ee9d5acad39b24,2026-03-17_07h10.16.623,kallum_motion_pilot_GIST_update_2,2026.1.1,MacIntel,62.11180124,69a7f38b36ee9d5acad39b24,69b95efdef24cd8a694e89ee,69b96003e52fd7b5ae76fd95,0.0394,0.0394,0,140,140,9,1,onethree,,,,,,,,,,,,,,,,,,,,,,,,,,,,,,,,,,,,,,,,,,,,,,,,,,,,,,,,,,,,,,,,,,,,,,,,,,,,,,,,,,,,,,,,,,,,,,,,,,,,,,,,,,,,,,,,,,,,,,,,,,,,,,,,,,,,,,,,,
,,69a7f38b36ee9d5acad39b24,2026-03-17_07h10.16.623,kallum_motion_pilot_GIST_update_2,2026.1.1,MacIntel,62.11180124,69a7f38b36ee9d5acad39b24,69b95efdef24cd8a694e89ee,69b96003e52fd7b5ae76fd95,0.0395,0.0395,0,141,141,141,1,seveneight,,,,,,,,,,,,,,,,,,,,,,,,,,,,,,,,,,,,,,,,,,,,,,,,,,,,,,,,,,,,,,,,,,,,,,,,,,,,,,,,,,,,,,,,,,,,,,,,,,,,,,,,,,,,,,,,,,,,,,,,,,,,,,,,,,,,,,,,,
,,69a7f38b36ee9d5acad39b24,2026-03-17_07h10.16.623,kallum_motion_pilot_GIST_update_2,2026.1.1,MacIntel,62.11180124,69a7f38b36ee9d5acad39b24,69b95efdef24cd8a694e89ee,69b96003e52fd7b5ae76fd95,0.0395,0.0395,0,142,142,1,1,onethree,,,,,,,,,,,,,,,,,,,,,,,,,,,,,,,,,,,,,,,,,,,,,,,,,,,,,,,,,,,,,,,,,,,,,,,,,,,,,,,,,,,,,,,,,,,,,,,,,,,,,,,,,,,,,,,,,,,,,,,,,,,,,,,,,,,,,,,,,
,,69a7f38b36ee9d5acad39b24,2026-03-17_07h10.16.623,kallum_motion_pilot_GIST_update_2,2026.1.1,MacIntel,62.11180124,69a7f38b36ee9d5acad39b24,69b95efdef24cd8a694e89ee,69b96003e52fd7b5ae76fd95,0.0397,0.0397,0,143,143,70,1,fourtwo,,,,,,,,,,,,,,,,,,,,,,,,,,,,,,,,,,,,,,,,,,,,,,,,,,,,,,,,,,,,,,,,,,,,,,,,,,,,,,,,,,,,,,,,,,,,,,,,,,,,,,,,,,,,,,,,,,,,,,,,,,,,,,,,,,,,,,,,,
,,69a7f38b36ee9d5acad39b24,2026-03-17_07h10.16.623,kallum_motion_pilot_GIST_update_2,2026.1.1,MacIntel,62.11180124,69a7f38b36ee9d5acad39b24,69b95efdef24cd8a694e89ee,69b96003e52fd7b5ae76fd95,0.0398,0.0398,0,144,144,72,1,onetwo,,,,,,,,,,,,,,,,,,,,,,,,,,,,,,,,,,,,,,,,,,,,,,,,,,,,,,,,,,,,,,,,,,,,,,,,,,,,,,,,,,,,,,,,,,,,,,,,,,,,,,,,,,,,,,,,,,,,,,,,,,,,,,,,,,,,,,,,,
,,69a7f38b36ee9d5acad39b24,2026-03-17_07h10.16.623,kallum_motion_pilot_GIST_update_2,2026.1.1,MacIntel,62.11180124,69a7f38b36ee9d5acad39b24,69b95efdef24cd8a694e89ee,69b96003e52fd7b5ae76fd95,0.04,0.04,0,145,145,107,1,sixeight,,,,,,,,,,,,,,,,,,,,,,,,,,,,,,,,,,,,,,,,,,,,,,,,,,,,,,,,,,,,,,,,,,,,,,,,,,,,,,,,,,,,,,,,,,,,,,,,,,,,,,,,,,,,,,,,,,,,,,,,,,,,,,,,,,,,,,,,,
,,69a7f38b36ee9d5acad39b24,2026-03-17_07h10.16.623,kallum_motion_pilot_GIST_update_2,2026.1.1,MacIntel,62.11180124,69a7f38b36ee9d5acad39b24,69b95efdef24cd8a694e89ee,69b96003e52fd7b5ae76fd95,0.0401,0.0401,0,146,146,103,1,eightseven,,,,,,,,,,,,,,,,,,,,,,,,,,,,,,,,,,,,,,,,,,,,,,,,,,,,,,,,,,,,,,,,,,,,,,,,,,,,,,,,,,,,,,,,,,,,,,,,,,,,,,,,,,,,,,,,,,,,,,,,,,,,,,,,,,,,,,,,,
,,69a7f38b36ee9d5acad39b24,2026-03-17_07h10.16.623,kallum_motion_pilot_GIST_update_2,2026.1.1,MacIntel,62.11180124,69a7f38b36ee9d5acad39b24,69b95efdef24cd8a694e89ee,69b96003e52fd7b5ae76fd95,0.0402,0.0403,0,147,147,57,1,onethree,,,,,,,,,,,,,,,,,,,,,,,,,,,,,,,,,,,,,,,,,,,,,,,,,,,,,,,,,,,,,,,,,,,,,,,,,,,,,,,,,,,,,,,,,,,,,,,,,,,,,,,,,,,,,,,,,,,,,,,,,,,,,,,,,,,,,,,,,
,,69a7f38b36ee9d5acad39b24,2026-03-17_07h10.16.623,kallum_motion_pilot_GIST_update_2,2026.1.1,MacIntel,62.11180124,69a7f38b36ee9d5acad39b24,69b95efdef24cd8a694e89ee,69b96003e52fd7b5ae76fd95,0.0403,0.0403,0,148,148,82,1,sixfive,,,,,,,,,,,,,,,,,,,,,,,,,,,,,,,,,,,,,,,,,,,,,,,,,,,,,,,,,,,,,,,,,,,,,,,,,,,,,,,,,,,,,,,,,,,,,,,,,,,,,,,,,,,,,,,,,,,,,,,,,,,,,,,,,,,,,,,,,
,,69a7f38b36ee9d5acad39b24,2026-03-17_07h10.16.623,kallum_motion_pilot_GIST_update_2,2026.1.1,MacIntel,62.11180124,69a7f38b36ee9d5acad39b24,69b95efdef24cd8a694e89ee,69b96003e52fd7b5ae76fd95,0.0404,0.0404,0,149,149,4,1,threeone,,,,,,,,,,,,,,,,,,,,,,,,,,,,,,,,,,,,,,,,,,,,,,,,,,,,,,,,,,,,,,,,,,,,,,,,,,,,,,,,,,,,,,,,,,,,,,,,,,,,,,,,,,,,,,,,,,,,,,,,,,,,,,,,,,,,,,,,,
,,69a7f38b36ee9d5acad39b24,2026-03-17_07h10.16.623,kallum_motion_pilot_GIST_update_2,2026.1.1,MacIntel,62.11180124,69a7f38b36ee9d5acad39b24,69b95efdef24cd8a694e89ee,69b96003e52fd7b5ae76fd95,0.0405,0.0405,0,150,150,83,1,sixeight,,,,,,,,,,,,,,,,,,,,,,,,,,,,,,,,,,,,,,,,,,,,,,,,,,,,,,,,,,,,,,,,,,,,,,,,,,,,,,,,,,,,,,,,,,,,,,,,,,,,,,,,,,,,,,,,,,,,,,,,,,,,,,,,,,,,,,,,,
,,69a7f38b36ee9d5acad39b24,2026-03-17_07h10.16.623,kallum_motion_pilot_GIST_update_2,2026.1.1,MacIntel,62.11180124,69a7f38b36ee9d5acad39b24,69b95efdef24cd8a694e89ee,69b96003e52fd7b5ae76fd95,0.0407,0.0407,0,151,151,51,1,twofour,,,,,,,,,,,,,,,,,,,,,,,,,,,,,,,,,,,,,,,,,,,,,,,,,,,,,,,,,,,,,,,,,,,,,,,,,,,,,,,,,,,,,,,,,,,,,,,,,,,,,,,,,,,,,,,,,,,,,,,,,,,,,,,,,,,,,,,,,
,,69a7f38b36ee9d5acad39b24,2026-03-17_07h10.16.623,kallum_motion_pilot_GIST_update_2,2026.1.1,MacIntel,62.11180124,69a7f38b36ee9d5acad39b24,69b95efdef24cd8a694e89ee,69b96003e52fd7b5ae76fd95,0.0407,0.0407,0,152,152,153,1,fiveseven,,,,,,,,,,,,,,,,,,,,,,,,,,,,,,,,,,,,,,,,,,,,,,,,,,,,,,,,,,,,,,,,,,,,,,,,,,,,,,,,,,,,,,,,,,,,,,,,,,,,,,,,,,,,,,,,,,,,,,,,,,,,,,,,,,,,,,,,,
,,69a7f38b36ee9d5acad39b24,2026-03-17_07h10.16.623,kallum_motion_pilot_GIST_update_2,2026.1.1,MacIntel,62.11180124,69a7f38b36ee9d5acad39b24,69b95efdef24cd8a694e89ee,69b96003e52fd7b5ae76fd95,0.0408,0.0408,0,153,153,152,1,fivesix,,,,,,,,,,,,,,,,,,,,,,,,,,,,,,,,,,,,,,,,,,,,,,,,,,,,,,,,,,,,,,,,,,,,,,,,,,,,,,,,,,,,,,,,,,,,,,,,,,,,,,,,,,,,,,,,,,,,,,,,,,,,,,,,,,,,,,,,,
,,69a7f38b36ee9d5acad39b24,2026-03-17_07h10.16.623,kallum_motion_pilot_GIST_update_2,2026.1.1,MacIntel,62.11180124,69a7f38b36ee9d5acad39b24,69b95efdef24cd8a694e89ee,69b96003e52fd7b5ae76fd95,0.0409,0.0409,0,154,154,36,1,threeone,,,,,,,,,,,,,,,,,,,,,,,,,,,,,,,,,,,,,,,,,,,,,,,,,,,,,,,,,,,,,,,,,,,,,,,,,,,,,,,,,,,,,,,,,,,,,,,,,,,,,,,,,,,,,,,,,,,,,,,,,,,,,,,,,,,,,,,,,
,,69a7f38b36ee9d5acad39b24,2026-03-17_07h10.16.623,kallum_motion_pilot_GIST_update_2,2026.1.1,MacIntel,62.11180124,69a7f38b36ee9d5acad39b24,69b95efdef24cd8a694e89ee,69b96003e52fd7b5ae76fd95,0.0411,0.0411,0,155,155,114,1,sixfive,,,,,,,,,,,,,,,,,,,,,,,,,,,,,,,,,,,,,,,,,,,,,,,,,,,,,,,,,,,,,,,,,,,,,,,,,,,,,,,,,,,,,,,,,,,,,,,,,,,,,,,,,,,,,,,,,,,,,,,,,,,,,,,,,,,,,,,,,
,,69a7f38b36ee9d5acad39b24,2026-03-17_07h10.16.623,kallum_motion_pilot_GIST_update_2,2026.1.1,MacIntel,62.11180124,69a7f38b36ee9d5acad39b24,69b95efdef24cd8a694e89ee,69b96003e52fd7b5ae76fd95,0.0411,0.0411,0,156,156,137,1,fiveseven,,,,,,,,,,,,,,,,,,,,,,,,,,,,,,,,,,,,,,,,,,,,,,,,,,,,,,,,,,,,,,,,,,,,,,,,,,,,,,,,,,,,,,,,,,,,,,,,,,,,,,,,,,,,,,,,,,,,,,,,,,,,,,,,,,,,,,,,,
,,69a7f38b36ee9d5acad39b24,2026-03-17_07h10.16.623,kallum_motion_pilot_GIST_update_2,2026.1.1,MacIntel,62.11180124,69a7f38b36ee9d5acad39b24,69b95efdef24cd8a694e89ee,69b96003e52fd7b5ae76fd95,0.0416,0.0416,0,157,157,119,1,eightseven,,,,,,,,,,,,,,,,,,,,,,,,,,,,,,,,,,,,,,,,,,,,,,,,,,,,,,,,,,,,,,,,,,,,,,,,,,,,,,,,,,,,,,,,,,,,,,,,,,,,,,,,,,,,,,,,,,,,,,,,,,,,,,,,,,,,,,,,,
,,69a7f38b36ee9d5acad39b24,2026-03-17_07h10.16.623,kallum_motion_pilot_GIST_update_2,2026.1.1,MacIntel,62.11180124,69a7f38b36ee9d5acad39b24,69b95efdef24cd8a694e89ee,69b96003e52fd7b5ae76fd95,0.0417,0.0417,0,158,158,74,1,twoone,,,,,,,,,,,,,,,,,,,,,,,,,,,,,,,,,,,,,,,,,,,,,,,,,,,,,,,,,,,,,,,,,,,,,,,,,,,,,,,,,,,,,,,,,,,,,,,,,,,,,,,,,,,,,,,,,,,,,,,,,,,,,,,,,,,,,,,,,
,,69a7f38b36ee9d5acad39b24,2026-03-17_07h10.16.623,kallum_motion_pilot_GIST_update_2,2026.1.1,MacIntel,62.11180124,69a7f38b36ee9d5acad39b24,69b95efdef24cd8a694e89ee,69b96003e52fd7b5ae76fd95,0.0418,0.0418,0,159,159,146,1,sixfive,,,,,,,,,,,,,,,,,,,,,,,,,,,,,,,,,,,,,,,,,,,,,,,,,,,,,,,,,,,,,,,,,,,,,,,,,,,,,,,,,,,,,,,,,,,,,,,,,,,,,,,,,,,,,,,,,,,,,,,,,,,,,,,,,,,,,,,,,
,,69a7f38b36ee9d5acad39b24,2026-03-17_07h10.16.623,kallum_motion_pilot_GIST_update_2,2026.1.1,MacIntel,62.11180124,69a7f38b36ee9d5acad39b24,69b95efdef24cd8a694e89ee,69b96003e52fd7b5ae76fd95,0.042,0.042,0,160,160,138,1,sixfive,,,,,,,,,,,,,,,,,,,,,,,,,,,,,,,,,,,,,,,,,,,,,,,,,,,,,,,,,,,,,,,,,,,,,,,,,,,,,,,,,,,,,,,,,,,,,,,,,,,,,,,,,,,,,,,,,,,,,,,,,,,,,,,,,,,,,,,,,
,,69a7f38b36ee9d5acad39b24,2026-03-17_07h10.16.623,kallum_motion_pilot_GIST_update_2,2026.1.1,MacIntel,62.11180124,69a7f38b36ee9d5acad39b24,69b95efdef24cd8a694e89ee,69b96003e52fd7b5ae76fd95,0.0421,0.0421,0,161,161,108,1,sevenfive,,,,,,,,,,,,,,,,,,,,,,,,,,,,,,,,,,,,,,,,,,,,,,,,,,,,,,,,,,,,,,,,,,,,,,,,,,,,,,,,,,,,,,,,,,,,,,,,,,,,,,,,,,,,,,,,,,,,,,,,,,,,,,,,,,,,,,,,,
,,69a7f38b36ee9d5acad39b24,2026-03-17_07h10.16.623,kallum_motion_pilot_GIST_update_2,2026.1.1,MacIntel,62.11180124,69a7f38b36ee9d5acad39b24,69b95efdef24cd8a694e89ee,69b96003e52fd7b5ae76fd95,0.0422,0.0422,1,0,162,75,1,twofour,,,,,,,,,,,,,,,,,,,,,,,,,,,,,,,,,,,,,,,,,,,,,,,,,,,,,,,,,,,,,,,,,,,,,,,,,,,,,,,,,,,,,,,,,,,,,,,,,,,,,,,,,,,,,,,,,,,,,,,,,,,,,,,,,,,,,,,,,
,,69a7f38b36ee9d5acad39b24,2026-03-17_07h10.16.623,kallum_motion_pilot_GIST_update_2,2026.1.1,MacIntel,62.11180124,69a7f38b36ee9d5acad39b24,69b95efdef24cd8a694e89ee,69b96003e52fd7b5ae76fd95,0.0423,0.0423,1,1,163,94,1,eightsix,,,,,,,,,,,,,,,,,,,,,,,,,,,,,,,,,,,,,,,,,,,,,,,,,,,,,,,,,,,,,,,,,,,,,,,,,,,,,,,,,,,,,,,,,,,,,,,,,,,,,,,,,,,,,,,,,,,,,,,,,,,,,,,,,,,,,,,,,
,,69a7f38b36ee9d5acad39b24,2026-03-17_07h10.16.623,kallum_motion_pilot_GIST_update_2,2026.1.1,MacIntel,62.11180124,69a7f38b36ee9d5acad39b24,69b95efdef24cd8a694e89ee,69b96003e52fd7b5ae76fd95,0.0424,0.0424,1,2,164,101,1,seveneight,,,,,,,,,,,,,,,,,,,,,,,,,,,,,,,,,,,,,,,,,,,,,,,,,,,,,,,,,,,,,,,,,,,,,,,,,,,,,,,,,,,,,,,,,,,,,,,,,,,,,,,,,,,,,,,,,,,,,,,,,,,,,,,,,,,,,,,,,
,,69a7f38b36ee9d5acad39b24,2026-03-17_07h10.16.623,kallum_motion_pilot_GIST_update_2,2026.1.1,MacIntel,62.11180124,69a7f38b36ee9d5acad39b24,69b95efdef24cd8a694e89ee,69b96003e52fd7b5ae76fd95,0.0426,0.0426,1,3,165,149,1,seveneight,,,,,,,,,,,,,,,,,,,,,,,,,,,,,,,,,,,,,,,,,,,,,,,,,,,,,,,,,,,,,,,,,,,,,,,,,,,,,,,,,,,,,,,,,,,,,,,,,,,,,,,,,,,,,,,,,,,,,,,,,,,,,,,,,,,,,,,,,
,,69a7f38b36ee9d5acad39b24,2026-03-17_07h10.16.623,kallum_motion_pilot_GIST_update_2,2026.1.1,MacIntel,62.11180124,69a7f38b36ee9d5acad39b24,69b95efdef24cd8a694e89ee,69b96003e52fd7b5ae76fd95,0.0426,0.0426,1,4,166,4,1,threeone,,,,,,,,,,,,,,,,,,,,,,,,,,,,,,,,,,,,,,,,,,,,,,,,,,,,,,,,,,,,,,,,,,,,,,,,,,,,,,,,,,,,,,,,,,,,,,,,,,,,,,,,,,,,,,,,,,,,,,,,,,,,,,,,,,,,,,,,,
,,69a7f38b36ee9d5acad39b24,2026-03-17_07h10.16.623,kallum_motion_pilot_GIST_update_2,2026.1.1,MacIntel,62.11180124,69a7f38b36ee9d5acad39b24,69b95efdef24cd8a694e89ee,69b96003e52fd7b5ae76fd95,0.0427,0.0427,1,5,167,18,1,twoone,,,,,,,,,,,,,,,,,,,,,,,,,,,,,,,,,,,,,,,,,,,,,,,,,,,,,,,,,,,,,,,,,,,,,,,,,,,,,,,,,,,,,,,,,,,,,,,,,,,,,,,,,,,,,,,,,,,,,,,,,,,,,,,,,,,,,,,,,
,,69a7f38b36ee9d5acad39b24,2026-03-17_07h10.16.623,kallum_motion_pilot_GIST_update_2,2026.1.1,MacIntel,62.11180124,69a7f38b36ee9d5acad39b24,69b95efdef24cd8a694e89ee,69b96003e52fd7b5ae76fd95,0.0428,0.0428,1,6,168,28,1,threeone,,,,,,,,,,,,,,,,,,,,,,,,,,,,,,,,,,,,,,,,,,,,,,,,,,,,,,,,,,,,,,,,,,,,,,,,,,,,,,,,,,,,,,,,,,,,,,,,,,,,,,,,,,,,,,,,,,,,,,,,,,,,,,,,,,,,,,,,,
,,69a7f38b36ee9d5acad39b24,2026-03-17_07h10.16.623,kallum_motion_pilot_GIST_update_2,2026.1.1,MacIntel,62.11180124,69a7f38b36ee9d5acad39b24,69b95efdef24cd8a694e89ee,69b96003e52fd7b5ae76fd95,0.043,0.043,1,7,169,151,1,eightseven,,,,,,,,,,,,,,,,,,,,,,,,,,,,,,,,,,,,,,,,,,,,,,,,,,,,,,,,,,,,,,,,,,,,,,,,,,,,,,,,,,,,,,,,,,,,,,,,,,,,,,,,,,,,,,,,,,,,,,,,,,,,,,,,,,,,,,,,,
,,69a7f38b36ee9d5acad39b24,2026-03-17_07h10.16.623,kallum_motion_pilot_GIST_update_2,2026.1.1,MacIntel,62.11180124,69a7f38b36ee9d5acad39b24,69b95efdef24cd8a694e89ee,69b96003e52fd7b5ae76fd95,0.043,0.043,1,8,170,60,1,threeone,,,,,,,,,,,,,,,,,,,,,,,,,,,,,,,,,,,,,,,,,,,,,,,,,,,,,,,,,,,,,,,,,,,,,,,,,,,,,,,,,,,,,,,,,,,,,,,,,,,,,,,,,,,,,,,,,,,,,,,,,,,,,,,,,,,,,,,,,
,,69a7f38b36ee9d5acad39b24,2026-03-17_07h10.16.623,kallum_motion_pilot_GIST_update_2,2026.1.1,MacIntel,62.11180124,69a7f38b36ee9d5acad39b24,69b95efdef24cd8a694e89ee,69b96003e52fd7b5ae76fd95,0.0432,0.0432,1,9,171,84,1,sevenfive,,,,,,,,,,,,,,,,,,,,,,,,,,,,,,,,,,,,,,,,,,,,,,,,,,,,,,,,,,,,,,,,,,,,,,,,,,,,,,,,,,,,,,,,,,,,,,,,,,,,,,,,,,,,,,,,,,,,,,,,,,,,,,,,,,,,,,,,,
,,69a7f38b36ee9d5acad39b24,2026-03-17_07h10.16.623,kallum_motion_pilot_GIST_update_2,2026.1.1,MacIntel,62.11180124,69a7f38b36ee9d5acad39b24,69b95efdef24cd8a694e89ee,69b96003e52fd7b5ae76fd95,0.0432,0.0432,1,10,172,153,1,fiveseven,,,,,,,,,,,,,,,,,,,,,,,,,,,,,,,,,,,,,,,,,,,,,,,,,,,,,,,,,,,,,,,,,,,,,,,,,,,,,,,,,,,,,,,,,,,,,,,,,,,,,,,,,,,,,,,,,,,,,,,,,,,,,,,,,,,,,,,,,
,,69a7f38b36ee9d5acad39b24,2026-03-17_07h10.16.623,kallum_motion_pilot_GIST_update_2,2026.1.1,MacIntel,62.11180124,69a7f38b36ee9d5acad39b24,69b95efdef24cd8a694e89ee,69b96003e52fd7b5ae76fd95,0.0433,0.0434,1,11,173,42,1,twoone,,,,,,,,,,,,,,,,,,,,,,,,,,,,,,,,,,,,,,,,,,,,,,,,,,,,,,,,,,,,,,,,,,,,,,,,,,,,,,,,,,,,,,,,,,,,,,,,,,,,,,,,,,,,,,,,,,,,,,,,,,,,,,,,,,,,,,,,,
,,69a7f38b36ee9d5acad39b24,2026-03-17_07h10.16.623,kallum_motion_pilot_GIST_update_2,2026.1.1,MacIntel,62.11180124,69a7f38b36ee9d5acad39b24,69b95efdef24cd8a694e89ee,69b96003e52fd7b5ae76fd95,0.0435,0.0435,1,12,174,41,1,onethree,,,,,,,,,,,,,,,,,,,,,,,,,,,,,,,,,,,,,,,,,,,,,,,,,,,,,,,,,,,,,,,,,,,,,,,,,,,,,,,,,,,,,,,,,,,,,,,,,,,,,,,,,,,,,,,,,,,,,,,,,,,,,,,,,,,,,,,,,
,,69a7f38b36ee9d5acad39b24,2026-03-17_07h10.16.623,kallum_motion_pilot_GIST_update_2,2026.1.1,MacIntel,62.11180124,69a7f38b36ee9d5acad39b24,69b95efdef24cd8a694e89ee,69b96003e52fd7b5ae76fd95,0.0436,0.0436,1,13,175,120,1,fivesix,,,,,,,,,,,,,,,,,,,,,,,,,,,,,,,,,,,,,,,,,,,,,,,,,,,,,,,,,,,,,,,,,,,,,,,,,,,,,,,,,,,,,,,,,,,,,,,,,,,,,,,,,,,,,,,,,,,,,,,,,,,,,,,,,,,,,,,,,
,,69a7f38b36ee9d5acad39b24,2026-03-17_07h10.16.623,kallum_motion_pilot_GIST_update_2,2026.1.1,MacIntel,62.11180124,69a7f38b36ee9d5acad39b24,69b95efdef24cd8a694e89ee,69b96003e52fd7b5ae76fd95,0.0436,0.0436,1,14,176,148,1,sevenfive,,,,,,,,,,,,,,,,,,,,,,,,,,,,,,,,,,,,,,,,,,,,,,,,,,,,,,,,,,,,,,,,,,,,,,,,,,,,,,,,,,,,,,,,,,,,,,,,,,,,,,,,,,,,,,,,,,,,,,,,,,,,,,,,,,,,,,,,,
,,69a7f38b36ee9d5acad39b24,2026-03-17_07h10.16.623,kallum_motion_pilot_GIST_update_2,2026.1.1,MacIntel,62.11180124,69a7f38b36ee9d5acad39b24,69b95efdef24cd8a694e89ee,69b96003e52fd7b5ae76fd95,0.0438,0.0438,1,15,177,150,1,eightsix,,,,,,,,,,,,,,,,,,,,,,,,,,,,,,,,,,,,,,,,,,,,,,,,,,,,,,,,,,,,,,,,,,,,,,,,,,,,,,,,,,,,,,,,,,,,,,,,,,,,,,,,,,,,,,,,,,,,,,,,,,,,,,,,,,,,,,,,,
,,69a7f38b36ee9d5acad39b24,2026-03-17_07h10.16.623,kallum_motion_pilot_GIST_update_2,2026.1.1,MacIntel,62.11180124,69a7f38b36ee9d5acad39b24,69b95efdef24cd8a694e89ee,69b96003e52fd7b5ae76fd95,0.0439,0.0439,1,16,178,138,1,sixfive,,,,,,,,,,,,,,,,,,,,,,,,,,,,,,,,,,,,,,,,,,,,,,,,,,,,,,,,,,,,,,,,,,,,,,,,,,,,,,,,,,,,,,,,,,,,,,,,,,,,,,,,,,,,,,,,,,,,,,,,,,,,,,,,,,,,,,,,,
,,69a7f38b36ee9d5acad39b24,2026-03-17_07h10.16.623,kallum_motion_pilot_GIST_update_2,2026.1.1,MacIntel,62.11180124,69a7f38b36ee9d5acad39b24,69b95efdef24cd8a694e89ee,69b96003e52fd7b5ae76fd95,0.044,0.044,1,17,179,145,1,fiveseven,,,,,,,,,,,,,,,,,,,,,,,,,,,,,,,,,,,,,,,,,,,,,,,,,,,,,,,,,,,,,,,,,,,,,,,,,,,,,,,,,,,,,,,,,,,,,,,,,,,,,,,,,,,,,,,,,,,,,,,,,,,,,,,,,,,,,,,,,
,,69a7f38b36ee9d5acad39b24,2026-03-17_07h10.16.623,kallum_motion_pilot_GIST_update_2,2026.1.1,MacIntel,62.11180124,69a7f38b36ee9d5acad39b24,69b95efdef24cd8a694e89ee,69b96003e52fd7b5ae76fd95,0.0441,0.0441,1,18,180,158,1,eightsix,,,,,,,,,,,,,,,,,,,,,,,,,,,,,,,,,,,,,,,,,,,,,,,,,,,,,,,,,,,,,,,,,,,,,,,,,,,,,,,,,,,,,,,,,,,,,,,,,,,,,,,,,,,,,,,,,,,,,,,,,,,,,,,,,,,,,,,,,
,,69a7f38b36ee9d5acad39b24,2026-03-17_07h10.16.623,kallum_motion_pilot_GIST_update_2,2026.1.1,MacIntel,62.11180124,69a7f38b36ee9d5acad39b24,69b95efdef24cd8a694e89ee,69b96003e52fd7b5ae76fd95,0.0442,0.0442,1,19,181,88,1,fivesix,,,,,,,,,,,,,,,,,,,,,,,,,,,,,,,,,,,,,,,,,,,,,,,,,,,,,,,,,,,,,,,,,,,,,,,,,,,,,,,,,,,,,,,,,,,,,,,,,,,,,,,,,,,,,,,,,,,,,,,,,,,,,,,,,,,,,,,,,
,,69a7f38b36ee9d5acad39b24,2026-03-17_07h10.16.623,kallum_motion_pilot_GIST_update_2,2026.1.1,MacIntel,62.11180124,69a7f38b36ee9d5acad39b24,69b95efdef24cd8a694e89ee,69b96003e52fd7b5ae76fd95,0.0443,0.0443,1,20,182,135,1,eightseven,,,,,,,,,,,,,,,,,,,,,,,,,,,,,,,,,,,,,,,,,,,,,,,,,,,,,,,,,,,,,,,,,,,,,,,,,,,,,,,,,,,,,,,,,,,,,,,,,,,,,,,,,,,,,,,,,,,,,,,,,,,,,,,,,,,,,,,,,
,,69a7f38b36ee9d5acad39b24,2026-03-17_07h10.16.623,kallum_motion_pilot_GIST_update_2,2026.1.1,MacIntel,62.11180124,69a7f38b36ee9d5acad39b24,69b95efdef24cd8a694e89ee,69b96003e52fd7b5ae76fd95,0.0444,0.0444,1,21,183,109,1,seveneight,,,,,,,,,,,,,,,,,,,,,,,,,,,,,,,,,,,,,,,,,,,,,,,,,,,,,,,,,,,,,,,,,,,,,,,,,,,,,,,,,,,,,,,,,,,,,,,,,,,,,,,,,,,,,,,,,,,,,,,,,,,,,,,,,,,,,,,,,
,,69a7f38b36ee9d5acad39b24,2026-03-17_07h10.16.623,kallum_motion_pilot_GIST_update_2,2026.1.1,MacIntel,62.11180124,69a7f38b36ee9d5acad39b24,69b95efdef24cd8a694e89ee,69b96003e52fd7b5ae76fd95,0.0445,0.0445,1,22,184,112,1,fivesix,,,,,,,,,,,,,,,,,,,,,,,,,,,,,,,,,,,,,,,,,,,,,,,,,,,,,,,,,,,,,,,,,,,,,,,,,,,,,,,,,,,,,,,,,,,,,,,,,,,,,,,,,,,,,,,,,,,,,,,,,,,,,,,,,,,,,,,,,
,,69a7f38b36ee9d5acad39b24,2026-03-17_07h10.16.623,kallum_motion_pilot_GIST_update_2,2026.1.1,MacIntel,62.11180124,69a7f38b36ee9d5acad39b24,69b95efdef24cd8a694e89ee,69b96003e52fd7b5ae76fd95,0.0447,0.0447,1,23,185,115,1,sixeight,,,,,,,,,,,,,,,,,,,,,,,,,,,,,,,,,,,,,,,,,,,,,,,,,,,,,,,,,,,,,,,,,,,,,,,,,,,,,,,,,,,,,,,,,,,,,,,,,,,,,,,,,,,,,,,,,,,,,,,,,,,,,,,,,,,,,,,,,
,,69a7f38b36ee9d5acad39b24,2026-03-17_07h10.16.623,kallum_motion_pilot_GIST_update_2,2026.1.1,MacIntel,62.11180124,69a7f38b36ee9d5acad39b24,69b95efdef24cd8a694e89ee,69b96003e52fd7b5ae76fd95,0.0447,0.0447,1,24,186,40,1,onetwo,,,,,,,,,,,,,,,,,,,,,,,,,,,,,,,,,,,,,,,,,,,,,,,,,,,,,,,,,,,,,,,,,,,,,,,,,,,,,,,,,,,,,,,,,,,,,,,,,,,,,,,,,,,,,,,,,,,,,,,,,,,,,,,,,,,,,,,,,
,,69a7f38b36ee9d5acad39b24,2026-03-17_07h10.16.623,kallum_motion_pilot_GIST_update_2,2026.1.1,MacIntel,62.11180124,69a7f38b36ee9d5acad39b24,69b95efdef24cd8a694e89ee,69b96003e52fd7b5ae76fd95,0.0448,0.0448,1,25,187,49,1,onethree,,,,,,,,,,,,,,,,,,,,,,,,,,,,,,,,,,,,,,,,,,,,,,,,,,,,,,,,,,,,,,,,,,,,,,,,,,,,,,,,,,,,,,,,,,,,,,,,,,,,,,,,,,,,,,,,,,,,,,,,,,,,,,,,,,,,,,,,,
,,69a7f38b36ee9d5acad39b24,2026-03-17_07h10.16.623,kallum_motion_pilot_GIST_update_2,2026.1.1,MacIntel,62.11180124,69a7f38b36ee9d5acad39b24,69b95efdef24cd8a694e89ee,69b96003e52fd7b5ae76fd95,0.045,0.045,1,26,188,66,1,twoone,,,,,,,,,,,,,,,,,,,,,,,,,,,,,,,,,,,,,,,,,,,,,,,,,,,,,,,,,,,,,,,,,,,,,,,,,,,,,,,,,,,,,,,,,,,,,,,,,,,,,,,,,,,,,,,,,,,,,,,,,,,,,,,,,,,,,,,,,
,,69a7f38b36ee9d5acad39b24,2026-03-17_07h10.16.623,kallum_motion_pilot_GIST_update_2,2026.1.1,MacIntel,62.11180124,69a7f38b36ee9d5acad39b24,69b95efdef24cd8a694e89ee,69b96003e52fd7b5ae76fd95,0.0451,0.0451,1,27,189,143,1,eightseven,,,,,,,,,,,,,,,,,,,,,,,,,,,,,,,,,,,,,,,,,,,,,,,,,,,,,,,,,,,,,,,,,,,,,,,,,,,,,,,,,,,,,,,,,,,,,,,,,,,,,,,,,,,,,,,,,,,,,,,,,,,,,,,,,,,,,,,,,
,,69a7f38b36ee9d5acad39b24,2026-03-17_07h10.16.623,kallum_motion_pilot_GIST_update_2,2026.1.1,MacIntel,62.11180124,69a7f38b36ee9d5acad39b24,69b95efdef24cd8a694e89ee,69b96003e52fd7b5ae76fd95,0.0452,0.0452,1,28,190,140,1,sevenfive,,,,,,,,,,,,,,,,,,,,,,,,,,,,,,,,,,,,,,,,,,,,,,,,,,,,,,,,,,,,,,,,,,,,,,,,,,,,,,,,,,,,,,,,,,,,,,,,,,,,,,,,,,,,,,,,,,,,,,,,,,,,,,,,,,,,,,,,,
,,69a7f38b36ee9d5acad39b24,2026-03-17_07h10.16.623,kallum_motion_pilot_GIST_update_2,2026.1.1,MacIntel,62.11180124,69a7f38b36ee9d5acad39b24,69b95efdef24cd8a694e89ee,69b96003e52fd7b5ae76fd95,0.0453,0.0453,1,29,191,53,1,threefour,,,,,,,,,,,,,,,,,,,,,,,,,,,,,,,,,,,,,,,,,,,,,,,,,,,,,,,,,,,,,,,,,,,,,,,,,,,,,,,,,,,,,,,,,,,,,,,,,,,,,,,,,,,,,,,,,,,,,,,,,,,,,,,,,,,,,,,,,
,,69a7f38b36ee9d5acad39b24,2026-03-17_07h10.16.623,kallum_motion_pilot_GIST_update_2,2026.1.1,MacIntel,62.11180124,69a7f38b36ee9d5acad39b24,69b95efdef24cd8a694e89ee,69b96003e52fd7b5ae76fd95,0.0454,0.0454,1,30,192,98,1,sixfive,,,,,,,,,,,,,,,,,,,,,,,,,,,,,,,,,,,,,,,,,,,,,,,,,,,,,,,,,,,,,,,,,,,,,,,,,,,,,,,,,,,,,,,,,,,,,,,,,,,,,,,,,,,,,,,,,,,,,,,,,,,,,,,,,,,,,,,,,
,,69a7f38b36ee9d5acad39b24,2026-03-17_07h10.16.623,kallum_motion_pilot_GIST_update_2,2026.1.1,MacIntel,62.11180124,69a7f38b36ee9d5acad39b24,69b95efdef24cd8a694e89ee,69b96003e52fd7b5ae76fd95,0.0456,0.0456,1,31,193,20,1,threeone,,,,,,,,,,,,,,,,,,,,,,,,,,,,,,,,,,,,,,,,,,,,,,,,,,,,,,,,,,,,,,,,,,,,,,,,,,,,,,,,,,,,,,,,,,,,,,,,,,,,,,,,,,,,,,,,,,,,,,,,,,,,,,,,,,,,,,,,,
,,69a7f38b36ee9d5acad39b24,2026-03-17_07h10.16.623,kallum_motion_pilot_GIST_update_2,2026.1.1,MacIntel,62.11180124,69a7f38b36ee9d5acad39b24,69b95efdef24cd8a694e89ee,69b96003e52fd7b5ae76fd95,0.0457,0.0457,1,32,194,81,1,fiveseven,,,,,,,,,,,,,,,,,,,,,,,,,,,,,,,,,,,,,,,,,,,,,,,,,,,,,,,,,,,,,,,,,,,,,,,,,,,,,,,,,,,,,,,,,,,,,,,,,,,,,,,,,,,,,,,,,,,,,,,,,,,,,,,,,,,,,,,,,
,,69a7f38b36ee9d5acad39b24,2026-03-17_07h10.16.623,kallum_motion_pilot_GIST_update_2,2026.1.1,MacIntel,62.11180124,69a7f38b36ee9d5acad39b24,69b95efdef24cd8a694e89ee,69b96003e52fd7b5ae76fd95,0.0463,0.0463,1,33,195,29,1,threefour,,,,,,,,,,,,,,,,,,,,,,,,,,,,,,,,,,,,,,,,,,,,,,,,,,,,,,,,,,,,,,,,,,,,,,,,,,,,,,,,,,,,,,,,,,,,,,,,,,,,,,,,,,,,,,,,,,,,,,,,,,,,,,,,,,,,,,,,,
,,69a7f38b36ee9d5acad39b24,2026-03-17_07h10.16.623,kallum_motion_pilot_GIST_update_2,2026.1.1,MacIntel,62.11180124,69a7f38b36ee9d5acad39b24,69b95efdef24cd8a694e89ee,69b96003e52fd7b5ae76fd95,0.0464,0.0464,1,34,196,147,1,sixeight,,,,,,,,,,,,,,,,,,,,,,,,,,,,,,,,,,,,,,,,,,,,,,,,,,,,,,,,,,,,,,,,,,,,,,,,,,,,,,,,,,,,,,,,,,,,,,,,,,,,,,,,,,,,,,,,,,,,,,,,,,,,,,,,,,,,,,,,,
,,69a7f38b36ee9d5acad39b24,2026-03-17_07h10.16.623,kallum_motion_pilot_GIST_update_2,2026.1.1,MacIntel,62.11180124,69a7f38b36ee9d5acad39b24,69b95efdef24cd8a694e89ee,69b96003e52fd7b5ae76fd95,0.0466,0.0466,1,35,197,26,1,twoone,,,,,,,,,,,,,,,,,,,,,,,,,,,,,,,,,,,,,,,,,,,,,,,,,,,,,,,,,,,,,,,,,,,,,,,,,,,,,,,,,,,,,,,,,,,,,,,,,,,,,,,,,,,,,,,,,,,,,,,,,,,,,,,,,,,,,,,,,
,,69a7f38b36ee9d5acad39b24,2026-03-17_07h10.16.623,kallum_motion_pilot_GIST_update_2,2026.1.1,MacIntel,62.11180124,69a7f38b36ee9d5acad39b24,69b95efdef24cd8a694e89ee,69b96003e52fd7b5ae76fd95,0.0466,0.0466,1,36,198,19,1,twofour,,,,,,,,,,,,,,,,,,,,,,,,,,,,,,,,,,,,,,,,,,,,,,,,,,,,,,,,,,,,,,,,,,,,,,,,,,,,,,,,,,,,,,,,,,,,,,,,,,,,,,,,,,,,,,,,,,,,,,,,,,,,,,,,,,,,,,,,,
,,69a7f38b36ee9d5acad39b24,2026-03-17_07h10.16.623,kallum_motion_pilot_GIST_update_2,2026.1.1,MacIntel,62.11180124,69a7f38b36ee9d5acad39b24,69b95efdef24cd8a694e89ee,69b96003e52fd7b5ae76fd95,0.0468,0.0468,1,37,199,69,1,threefour,,,,,,,,,,,,,,,,,,,,,,,,,,,,,,,,,,,,,,,,,,,,,,,,,,,,,,,,,,,,,,,,,,,,,,,,,,,,,,,,,,,,,,,,,,,,,,,,,,,,,,,,,,,,,,,,,,,,,,,,,,,,,,,,,,,,,,,,,
,,69a7f38b36ee9d5acad39b24,2026-03-17_07h10.16.623,kallum_motion_pilot_GIST_update_2,2026.1.1,MacIntel,62.11180124,69a7f38b36ee9d5acad39b24,69b95efdef24cd8a694e89ee,69b96003e52fd7b5ae76fd95,0.0469,0.0469,1,38,200,102,1,eightsix,,,,,,,,,,,,,,,,,,,,,,,,,,,,,,,,,,,,,,,,,,,,,,,,,,,,,,,,,,,,,,,,,,,,,,,,,,,,,,,,,,,,,,,,,,,,,,,,,,,,,,,,,,,,,,,,,,,,,,,,,,,,,,,,,,,,,,,,,
,,69a7f38b36ee9d5acad39b24,2026-03-17_07h10.16.623,kallum_motion_pilot_GIST_update_2,2026.1.1,MacIntel,62.11180124,69a7f38b36ee9d5acad39b24,69b95efdef24cd8a694e89ee,69b96003e52fd7b5ae76fd95,0.0473,0.0473,1,39,201,31,1,fourthree,,,,,,,,,,,,,,,,,,,,,,,,,,,,,,,,,,,,,,,,,,,,,,,,,,,,,,,,,,,,,,,,,,,,,,,,,,,,,,,,,,,,,,,,,,,,,,,,,,,,,,,,,,,,,,,,,,,,,,,,,,,,,,,,,,,,,,,,,
,,69a7f38b36ee9d5acad39b24,2026-03-17_07h10.16.623,kallum_motion_pilot_GIST_update_2,2026.1.1,MacIntel,62.11180124,69a7f38b36ee9d5acad39b24,69b95efdef24cd8a694e89ee,69b96003e52fd7b5ae76fd95,0.0474,0.0474,1,40,202,52,1,threeone,,,,,,,,,,,,,,,,,,,,,,,,,,,,,,,,,,,,,,,,,,,,,,,,,,,,,,,,,,,,,,,,,,,,,,,,,,,,,,,,,,,,,,,,,,,,,,,,,,,,,,,,,,,,,,,,,,,,,,,,,,,,,,,,,,,,,,,,,
,,69a7f38b36ee9d5acad39b24,2026-03-17_07h10.16.623,kallum_motion_pilot_GIST_update_2,2026.1.1,MacIntel,62.11180124,69a7f38b36ee9d5acad39b24,69b95efdef24cd8a694e89ee,69b96003e52fd7b5ae76fd95,0.0475,0.0475,1,41,203,155,1,sixeight,,,,,,,,,,,,,,,,,,,,,,,,,,,,,,,,,,,,,,,,,,,,,,,,,,,,,,,,,,,,,,,,,,,,,,,,,,,,,,,,,,,,,,,,,,,,,,,,,,,,,,,,,,,,,,,,,,,,,,,,,,,,,,,,,,,,,,,,,
,,69a7f38b36ee9d5acad39b24,2026-03-17_07h10.16.623,kallum_motion_pilot_GIST_update_2,2026.1.1,MacIntel,62.11180124,69a7f38b36ee9d5acad39b24,69b95efdef24cd8a694e89ee,69b96003e52fd7b5ae76fd95,0.0477,0.0477,1,42,204,0,1,onetwo,,,,,,,,,,,,,,,,,,,,,,,,,,,,,,,,,,,,,,,,,,,,,,,,,,,,,,,,,,,,,,,,,,,,,,,,,,,,,,,,,,,,,,,,,,,,,,,,,,,,,,,,,,,,,,,,,,,,,,,,,,,,,,,,,,,,,,,,,
,,69a7f38b36ee9d5acad39b24,2026-03-17_07h10.16.623,kallum_motion_pilot_GIST_update_2,2026.1.1,MacIntel,62.11180124,69a7f38b36ee9d5acad39b24,69b95efdef24cd8a694e89ee,69b96003e52fd7b5ae76fd95,0.0478,0.0478,1,43,205,78,1,fourtwo,,,,,,,,,,,,,,,,,,,,,,,,,,,,,,,,,,,,,,,,,,,,,,,,,,,,,,,,,,,,,,,,,,,,,,,,,,,,,,,,,,,,,,,,,,,,,,,,,,,,,,,,,,,,,,,,,,,,,,,,,,,,,,,,,,,,,,,,,
,,69a7f38b36ee9d5acad39b24,2026-03-17_07h10.16.623,kallum_motion_pilot_GIST_update_2,2026.1.1,MacIntel,62.11180124,69a7f38b36ee9d5acad39b24,69b95efdef24cd8a694e89ee,69b96003e52fd7b5ae76fd95,0.0478,0.0478,1,44,206,139,1,sixeight,,,,,,,,,,,,,,,,,,,,,,,,,,,,,,,,,,,,,,,,,,,,,,,,,,,,,,,,,,,,,,,,,,,,,,,,,,,,,,,,,,,,,,,,,,,,,,,,,,,,,,,,,,,,,,,,,,,,,,,,,,,,,,,,,,,,,,,,,
,,69a7f38b36ee9d5acad39b24,2026-03-17_07h10.16.623,kallum_motion_pilot_GIST_update_2,2026.1.1,MacIntel,62.11180124,69a7f38b36ee9d5acad39b24,69b95efdef24cd8a694e89ee,69b96003e52fd7b5ae76fd95,0.0479,0.048,1,45,207,79,1,eightseven,,,,,,,,,,,,,,,,,,,,,,,,,,,,,,,,,,,,,,,,,,,,,,,,,,,,,,,,,,,,,,,,,,,,,,,,,,,,,,,,,,,,,,,,,,,,,,,,,,,,,,,,,,,,,,,,,,,,,,,,,,,,,,,,,,,,,,,,,
,,69a7f38b36ee9d5acad39b24,2026-03-17_07h10.16.623,kallum_motion_pilot_GIST_update_2,2026.1.1,MacIntel,62.11180124,69a7f38b36ee9d5acad39b24,69b95efdef24cd8a694e89ee,69b96003e52fd7b5ae76fd95,0.0481,0.0481,1,46,208,65,1,onethree,,,,,,,,,,,,,,,,,,,,,,,,,,,,,,,,,,,,,,,,,,,,,,,,,,,,,,,,,,,,,,,,,,,,,,,,,,,,,,,,,,,,,,,,,,,,,,,,,,,,,,,,,,,,,,,,,,,,,,,,,,,,,,,,,,,,,,,,,
,,69a7f38b36ee9d5acad39b24,2026-03-17_07h10.16.623,kallum_motion_pilot_GIST_update_2,2026.1.1,MacIntel,62.11180124,69a7f38b36ee9d5acad39b24,69b95efdef24cd8a694e89ee,69b96003e52fd7b5ae76fd95,0.0482,0.0482,1,47,209,48,1,onetwo,,,,,,,,,,,,,,,,,,,,,,,,,,,,,,,,,,,,,,,,,,,,,,,,,,,,,,,,,,,,,,,,,,,,,,,,,,,,,,,,,,,,,,,,,,,,,,,,,,,,,,,,,,,,,,,,,,,,,,,,,,,,,,,,,,,,,,,,,
,,69a7f38b36ee9d5acad39b24,2026-03-17_07h10.16.623,kallum_motion_pilot_GIST_update_2,2026.1.1,MacIntel,62.11180124,69a7f38b36ee9d5acad39b24,69b95efdef24cd8a694e89ee,69b96003e52fd7b5ae76fd95,0.0483,0.0483,1,48,210,9,1,onethree,,,,,,,,,,,,,,,,,,,,,,,,,,,,,,,,,,,,,,,,,,,,,,,,,,,,,,,,,,,,,,,,,,,,,,,,,,,,,,,,,,,,,,,,,,,,,,,,,,,,,,,,,,,,,,,,,,,,,,,,,,,,,,,,,,,,,,,,,
,,69a7f38b36ee9d5acad39b24,2026-03-17_07h10.16.623,kallum_motion_pilot_GIST_update_2,2026.1.1,MacIntel,62.11180124,69a7f38b36ee9d5acad39b24,69b95efdef24cd8a694e89ee,69b96003e52fd7b5ae76fd95,0.0485,0.0485,1,49,211,22,1,fourtwo,,,,,,,,,,,,,,,,,,,,,,,,,,,,,,,,,,,,,,,,,,,,,,,,,,,,,,,,,,,,,,,,,,,,,,,,,,,,,,,,,,,,,,,,,,,,,,,,,,,,,,,,,,,,,,,,,,,,,,,,,,,,,,,,,,,,,,,,,
,,69a7f38b36ee9d5acad39b24,2026-03-17_07h10.16.623,kallum_motion_pilot_GIST_update_2,2026.1.1,MacIntel,62.11180124,69a7f38b36ee9d5acad39b24,69b95efdef24cd8a694e89ee,69b96003e52fd7b5ae76fd95,0.0485,0.0485,1,50,212,58,1,twoone,,,,,,,,,,,,,,,,,,,,,,,,,,,,,,,,,,,,,,,,,,,,,,,,,,,,,,,,,,,,,,,,,,,,,,,,,,,,,,,,,,,,,,,,,,,,,,,,,,,,,,,,,,,,,,,,,,,,,,,,,,,,,,,,,,,,,,,,,
,,69a7f38b36ee9d5acad39b24,2026-03-17_07h10.16.623,kallum_motion_pilot_GIST_update_2,2026.1.1,MacIntel,62.11180124,69a7f38b36ee9d5acad39b24,69b95efdef24cd8a694e89ee,69b96003e52fd7b5ae76fd95,0.0487,0.0487,1,51,213,96,1,fivesix,,,,,,,,,,,,,,,,,,,,,,,,,,,,,,,,,,,,,,,,,,,,,,,,,,,,,,,,,,,,,,,,,,,,,,,,,,,,,,,,,,,,,,,,,,,,,,,,,,,,,,,,,,,,,,,,,,,,,,,,,,,,,,,,,,,,,,,,,
,,69a7f38b36ee9d5acad39b24,2026-03-17_07h10.16.623,kallum_motion_pilot_GIST_update_2,2026.1.1,MacIntel,62.11180124,69a7f38b36ee9d5acad39b24,69b95efdef24cd8a694e89ee,69b96003e52fd7b5ae76fd95,0.0488,0.0488,1,52,214,46,1,fourtwo,,,,,,,,,,,,,,,,,,,,,,,,,,,,,,,,,,,,,,,,,,,,,,,,,,,,,,,,,,,,,,,,,,,,,,,,,,,,,,,,,,,,,,,,,,,,,,,,,,,,,,,,,,,,,,,,,,,,,,,,,,,,,,,,,,,,,,,,,
,,69a7f38b36ee9d5acad39b24,2026-03-17_07h10.16.623,kallum_motion_pilot_GIST_update_2,2026.1.1,MacIntel,62.11180124,69a7f38b36ee9d5acad39b24,69b95efdef24cd8a694e89ee,69b96003e52fd7b5ae76fd95,0.0489,0.0489,1,53,215,5,1,threefour,,,,,,,,,,,,,,,,,,,,,,,,,,,,,,,,,,,,,,,,,,,,,,,,,,,,,,,,,,,,,,,,,,,,,,,,,,,,,,,,,,,,,,,,,,,,,,,,,,,,,,,,,,,,,,,,,,,,,,,,,,,,,,,,,,,,,,,,,
,,69a7f38b36ee9d5acad39b24,2026-03-17_07h10.16.623,kallum_motion_pilot_GIST_update_2,2026.1.1,MacIntel,62.11180124,69a7f38b36ee9d5acad39b24,69b95efdef24cd8a694e89ee,69b96003e52fd7b5ae76fd95,0.049,0.049,1,54,216,128,1,fivesix,,,,,,,,,,,,,,,,,,,,,,,,,,,,,,,,,,,,,,,,,,,,,,,,,,,,,,,,,,,,,,,,,,,,,,,,,,,,,,,,,,,,,,,,,,,,,,,,,,,,,,,,,,,,,,,,,,,,,,,,,,,,,,,,,,,,,,,,,
,,69a7f38b36ee9d5acad39b24,2026-03-17_07h10.16.623,kallum_motion_pilot_GIST_update_2,2026.1.1,MacIntel,62.11180124,69a7f38b36ee9d5acad39b24,69b95efdef24cd8a694e89ee,69b96003e52fd7b5ae76fd95,0.0491,0.0491,1,55,217,87,1,eightseven,,,,,,,,,,,,,,,,,,,,,,,,,,,,,,,,,,,,,,,,,,,,,,,,,,,,,,,,,,,,,,,,,,,,,,,,,,,,,,,,,,,,,,,,,,,,,,,,,,,,,,,,,,,,,,,,,,,,,,,,,,,,,,,,,,,,,,,,,
,,69a7f38b36ee9d5acad39b24,2026-03-17_07h10.16.623,kallum_motion_pilot_GIST_update_2,2026.1.1,MacIntel,62.11180124,69a7f38b36ee9d5acad39b24,69b95efdef24cd8a694e89ee,69b96003e52fd7b5ae76fd95,0.0494,0.0494,1,56,218,7,1,fourthree,,,,,,,,,,,,,,,,,,,,,,,,,,,,,,,,,,,,,,,,,,,,,,,,,,,,,,,,,,,,,,,,,,,,,,,,,,,,,,,,,,,,,,,,,,,,,,,,,,,,,,,,,,,,,,,,,,,,,,,,,,,,,,,,,,,,,,,,,
,,69a7f38b36ee9d5acad39b24,2026-03-17_07h10.16.623,kallum_motion_pilot_GIST_update_2,2026.1.1,MacIntel,62.11180124,69a7f38b36ee9d5acad39b24,69b95efdef24cd8a694e89ee,69b96003e52fd7b5ae76fd95,0.0495,0.0495,1,57,219,61,1,threefour,,,,,,,,,,,,,,,,,,,,,,,,,,,,,,,,,,,,,,,,,,,,,,,,,,,,,,,,,,,,,,,,,,,,,,,,,,,,,,,,,,,,,,,,,,,,,,,,,,,,,,,,,,,,,,,,,,,,,,,,,,,,,,,,,,,,,,,,,
,,69a7f38b36ee9d5acad39b24,2026-03-17_07h10.16.623,kallum_motion_pilot_GIST_update_2,2026.1.1,MacIntel,62.11180124,69a7f38b36ee9d5acad39b24,69b95efdef24cd8a694e89ee,69b96003e52fd7b5ae76fd95,0.0497,0.0497,1,58,220,100,1,sevenfive,,,,,,,,,,,,,,,,,,,,,,,,,,,,,,,,,,,,,,,,,,,,,,,,,,,,,,,,,,,,,,,,,,,,,,,,,,,,,,,,,,,,,,,,,,,,,,,,,,,,,,,,,,,,,,,,,,,,,,,,,,,,,,,,,,,,,,,,,
,,69a7f38b36ee9d5acad39b24,2026-03-17_07h10.16.623,kallum_motion_pilot_GIST_update_2,2026.1.1,MacIntel,62.11180124,69a7f38b36ee9d5acad39b24,69b95efdef24cd8a694e89ee,69b96003e52fd7b5ae76fd95,0.0498,0.0498,1,59,221,127,1,eightseven,,,,,,,,,,,,,,,,,,,,,,,,,,,,,,,,,,,,,,,,,,,,,,,,,,,,,,,,,,,,,,,,,,,,,,,,,,,,,,,,,,,,,,,,,,,,,,,,,,,,,,,,,,,,,,,,,,,,,,,,,,,,,,,,,,,,,,,,,
,,69a7f38b36ee9d5acad39b24,2026-03-17_07h10.16.623,kallum_motion_pilot_GIST_update_2,2026.1.1,MacIntel,62.11180124,69a7f38b36ee9d5acad39b24,69b95efdef24cd8a694e89ee,69b96003e52fd7b5ae76fd95,0.0499,0.0499,1,60,222,91,1,sixeight,,,,,,,,,,,,,,,,,,,,,,,,,,,,,,,,,,,,,,,,,,,,,,,,,,,,,,,,,,,,,,,,,,,,,,,,,,,,,,,,,,,,,,,,,,,,,,,,,,,,,,,,,,,,,,,,,,,,,,,,,,,,,,,,,,,,,,,,,
,,69a7f38b36ee9d5acad39b24,2026-03-17_07h10.16.623,kallum_motion_pilot_GIST_update_2,2026.1.1,MacIntel,62.11180124,69a7f38b36ee9d5acad39b24,69b95efdef24cd8a694e89ee,69b96003e52fd7b5ae76fd95,0.0501,0.0501,1,61,223,6,1,fourtwo,,,,,,,,,,,,,,,,,,,,,,,,,,,,,,,,,,,,,,,,,,,,,,,,,,,,,,,,,,,,,,,,,,,,,,,,,,,,,,,,,,,,,,,,,,,,,,,,,,,,,,,,,,,,,,,,,,,,,,,,,,,,,,,,,,,,,,,,,
,,69a7f38b36ee9d5acad39b24,2026-03-17_07h10.16.623,kallum_motion_pilot_GIST_update_2,2026.1.1,MacIntel,62.11180124,69a7f38b36ee9d5acad39b24,69b95efdef24cd8a694e89ee,69b96003e52fd7b5ae76fd95,0.0502,0.0502,1,62,224,80,1,fivesix,,,,,,,,,,,,,,,,,,,,,,,,,,,,,,,,,,,,,,,,,,,,,,,,,,,,,,,,,,,,,,,,,,,,,,,,,,,,,,,,,,,,,,,,,,,,,,,,,,,,,,,,,,,,,,,,,,,,,,,,,,,,,,,,,,,,,,,,,
,,69a7f38b36ee9d5acad39b24,2026-03-17_07h10.16.623,kallum_motion_pilot_GIST_update_2,2026.1.1,MacIntel,62.11180124,69a7f38b36ee9d5acad39b24,69b95efdef24cd8a694e89ee,69b96003e52fd7b5ae76fd95,0.0503,0.0503,1,63,225,99,1,sixeight,,,,,,,,,,,,,,,,,,,,,,,,,,,,,,,,,,,,,,,,,,,,,,,,,,,,,,,,,,,,,,,,,,,,,,,,,,,,,,,,,,,,,,,,,,,,,,,,,,,,,,,,,,,,,,,,,,,,,,,,,,,,,,,,,,,,,,,,,
,,69a7f38b36ee9d5acad39b24,2026-03-17_07h10.16.623,kallum_motion_pilot_GIST_update_2,2026.1.1,MacIntel,62.11180124,69a7f38b36ee9d5acad39b24,69b95efdef24cd8a694e89ee,69b96003e52fd7b5ae76fd95,0.0505,0.0505,1,64,226,159,1,eightseven,,,,,,,,,,,,,,,,,,,,,,,,,,,,,,,,,,,,,,,,,,,,,,,,,,,,,,,,,,,,,,,,,,,,,,,,,,,,,,,,,,,,,,,,,,,,,,,,,,,,,,,,,,,,,,,,,,,,,,,,,,,,,,,,,,,,,,,,,
,,69a7f38b36ee9d5acad39b24,2026-03-17_07h10.16.623,kallum_motion_pilot_GIST_update_2,2026.1.1,MacIntel,62.11180124,69a7f38b36ee9d5acad39b24,69b95efdef24cd8a694e89ee,69b96003e52fd7b5ae76fd95,0.0505,0.0505,1,65,227,90,1,sixfive,,,,,,,,,,,,,,,,,,,,,,,,,,,,,,,,,,,,,,,,,,,,,,,,,,,,,,,,,,,,,,,,,,,,,,,,,,,,,,,,,,,,,,,,,,,,,,,,,,,,,,,,,,,,,,,,,,,,,,,,,,,,,,,,,,,,,,,,,
,,69a7f38b36ee9d5acad39b24,2026-03-17_07h10.16.623,kallum_motion_pilot_GIST_update_2,2026.1.1,MacIntel,62.11180124,69a7f38b36ee9d5acad39b24,69b95efdef24cd8a694e89ee,69b96003e52fd7b5ae76fd95,0.0506,0.0506,1,66,228,59,1,twofour,,,,,,,,,,,,,,,,,,,,,,,,,,,,,,,,,,,,,,,,,,,,,,,,,,,,,,,,,,,,,,,,,,,,,,,,,,,,,,,,,,,,,,,,,,,,,,,,,,,,,,,,,,,,,,,,,,,,,,,,,,,,,,,,,,,,,,,,,
,,69a7f38b36ee9d5acad39b24,2026-03-17_07h10.16.623,kallum_motion_pilot_GIST_update_2,2026.1.1,MacIntel,62.11180124,69a7f38b36ee9d5acad39b24,69b95efdef24cd8a694e89ee,69b96003e52fd7b5ae76fd95,0.0508,0.0508,1,67,229,73,1,onethree,,,,,,,,,,,,,,,,,,,,,,,,,,,,,,,,,,,,,,,,,,,,,,,,,,,,,,,,,,,,,,,,,,,,,,,,,,,,,,,,,,,,,,,,,,,,,,,,,,,,,,,,,,,,,,,,,,,,,,,,,,,,,,,,,,,,,,,,,
,,69a7f38b36ee9d5acad39b24,2026-03-17_07h10.16.623,kallum_motion_pilot_GIST_update_2,2026.1.1,MacIntel,62.11180124,69a7f38b36ee9d5acad39b24,69b95efdef24cd8a694e89ee,69b96003e52fd7b5ae76fd95,0.0509,0.0509,1,68,230,157,1,seveneight,,,,,,,,,,,,,,,,,,,,,,,,,,,,,,,,,,,,,,,,,,,,,,,,,,,,,,,,,,,,,,,,,,,,,,,,,,,,,,,,,,,,,,,,,,,,,,,,,,,,,,,,,,,,,,,,,,,,,,,,,,,,,,,,,,,,,,,,,
,,69a7f38b36ee9d5acad39b24,2026-03-17_07h10.16.623,kallum_motion_pilot_GIST_update_2,2026.1.1,MacIntel,62.11180124,69a7f38b36ee9d5acad39b24,69b95efdef24cd8a694e89ee,69b96003e52fd7b5ae76fd95,0.0511,0.0511,1,69,231,93,1,seveneight,,,,,,,,,,,,,,,,,,,,,,,,,,,,,,,,,,,,,,,,,,,,,,,,,,,,,,,,,,,,,,,,,,,,,,,,,,,,,,,,,,,,,,,,,,,,,,,,,,,,,,,,,,,,,,,,,,,,,,,,,,,,,,,,,,,,,,,,,
,,69a7f38b36ee9d5acad39b24,2026-03-17_07h10.16.623,kallum_motion_pilot_GIST_update_2,2026.1.1,MacIntel,62.11180124,69a7f38b36ee9d5acad39b24,69b95efdef24cd8a694e89ee,69b96003e52fd7b5ae76fd95,0.0511,0.0511,1,70,232,137,1,fiveseven,,,,,,,,,,,,,,,,,,,,,,,,,,,,,,,,,,,,,,,,,,,,,,,,,,,,,,,,,,,,,,,,,,,,,,,,,,,,,,,,,,,,,,,,,,,,,,,,,,,,,,,,,,,,,,,,,,,,,,,,,,,,,,,,,,,,,,,,,
,,69a7f38b36ee9d5acad39b24,2026-03-17_07h10.16.623,kallum_motion_pilot_GIST_update_2,2026.1.1,MacIntel,62.11180124,69a7f38b36ee9d5acad39b24,69b95efdef24cd8a694e89ee,69b96003e52fd7b5ae76fd95,0.0513,0.0513,1,71,233,116,1,sevenfive,,,,,,,,,,,,,,,,,,,,,,,,,,,,,,,,,,,,,,,,,,,,,,,,,,,,,,,,,,,,,,,,,,,,,,,,,,,,,,,,,,,,,,,,,,,,,,,,,,,,,,,,,,,,,,,,,,,,,,,,,,,,,,,,,,,,,,,,,
,,69a7f38b36ee9d5acad39b24,2026-03-17_07h10.16.623,kallum_motion_pilot_GIST_update_2,2026.1.1,MacIntel,62.11180124,69a7f38b36ee9d5acad39b24,69b95efdef24cd8a694e89ee,69b96003e52fd7b5ae76fd95,0.0515,0.0515,1,72,234,77,1,threefour,,,,,,,,,,,,,,,,,,,,,,,,,,,,,,,,,,,,,,,,,,,,,,,,,,,,,,,,,,,,,,,,,,,,,,,,,,,,,,,,,,,,,,,,,,,,,,,,,,,,,,,,,,,,,,,,,,,,,,,,,,,,,,,,,,,,,,,,,
,,69a7f38b36ee9d5acad39b24,2026-03-17_07h10.16.623,kallum_motion_pilot_GIST_update_2,2026.1.1,MacIntel,62.11180124,69a7f38b36ee9d5acad39b24,69b95efdef24cd8a694e89ee,69b96003e52fd7b5ae76fd95,0.0516,0.0516,1,73,235,126,1,eightsix,,,,,,,,,,,,,,,,,,,,,,,,,,,,,,,,,,,,,,,,,,,,,,,,,,,,,,,,,,,,,,,,,,,,,,,,,,,,,,,,,,,,,,,,,,,,,,,,,,,,,,,,,,,,,,,,,,,,,,,,,,,,,,,,,,,,,,,,,
,,69a7f38b36ee9d5acad39b24,2026-03-17_07h10.16.623,kallum_motion_pilot_GIST_update_2,2026.1.1,MacIntel,62.11180124,69a7f38b36ee9d5acad39b24,69b95efdef24cd8a694e89ee,69b96003e52fd7b5ae76fd95,0.0517,0.0517,1,74,236,76,1,threeone,,,,,,,,,,,,,,,,,,,,,,,,,,,,,,,,,,,,,,,,,,,,,,,,,,,,,,,,,,,,,,,,,,,,,,,,,,,,,,,,,,,,,,,,,,,,,,,,,,,,,,,,,,,,,,,,,,,,,,,,,,,,,,,,,,,,,,,,,
,,69a7f38b36ee9d5acad39b24,2026-03-17_07h10.16.623,kallum_motion_pilot_GIST_update_2,2026.1.1,MacIntel,62.11180124,69a7f38b36ee9d5acad39b24,69b95efdef24cd8a694e89ee,69b96003e52fd7b5ae76fd95,0.0519,0.0519,1,75,237,12,1,threeone,,,,,,,,,,,,,,,,,,,,,,,,,,,,,,,,,,,,,,,,,,,,,,,,,,,,,,,,,,,,,,,,,,,,,,,,,,,,,,,,,,,,,,,,,,,,,,,,,,,,,,,,,,,,,,,,,,,,,,,,,,,,,,,,,,,,,,,,,
,,69a7f38b36ee9d5acad39b24,2026-03-17_07h10.16.623,kallum_motion_pilot_GIST_update_2,2026.1.1,MacIntel,62.11180124,69a7f38b36ee9d5acad39b24,69b95efdef24cd8a694e89ee,69b96003e52fd7b5ae76fd95,0.0519,0.0519,1,76,238,129,1,fiveseven,,,,,,,,,,,,,,,,,,,,,,,,,,,,,,,,,,,,,,,,,,,,,,,,,,,,,,,,,,,,,,,,,,,,,,,,,,,,,,,,,,,,,,,,,,,,,,,,,,,,,,,,,,,,,,,,,,,,,,,,,,,,,,,,,,,,,,,,,
,,69a7f38b36ee9d5acad39b24,2026-03-17_07h10.16.623,kallum_motion_pilot_GIST_update_2,2026.1.1,MacIntel,62.11180124,69a7f38b36ee9d5acad39b24,69b95efdef24cd8a694e89ee,69b96003e52fd7b5ae76fd95,0.052,0.052,1,77,239,56,1,onetwo,,,,,,,,,,,,,,,,,,,,,,,,,,,,,,,,,,,,,,,,,,,,,,,,,,,,,,,,,,,,,,,,,,,,,,,,,,,,,,,,,,,,,,,,,,,,,,,,,,,,,,,,,,,,,,,,,,,,,,,,,,,,,,,,,,,,,,,,,
,,69a7f38b36ee9d5acad39b24,2026-03-17_07h10.16.623,kallum_motion_pilot_GIST_update_2,2026.1.1,MacIntel,62.11180124,69a7f38b36ee9d5acad39b24,69b95efdef24cd8a694e89ee,69b96003e52fd7b5ae76fd95,0.0523,0.0523,1,78,240,111,1,eightseven,,,,,,,,,,,,,,,,,,,,,,,,,,,,,,,,,,,,,,,,,,,,,,,,,,,,,,,,,,,,,,,,,,,,,,,,,,,,,,,,,,,,,,,,,,,,,,,,,,,,,,,,,,,,,,,,,,,,,,,,,,,,,,,,,,,,,,,,,
,,69a7f38b36ee9d5acad39b24,2026-03-17_07h10.16.623,kallum_motion_pilot_GIST_update_2,2026.1.1,MacIntel,62.11180124,69a7f38b36ee9d5acad39b24,69b95efdef24cd8a694e89ee,69b96003e52fd7b5ae76fd95,0.0523,0.0523,1,79,241,132,1,sevenfive,,,,,,,,,,,,,,,,,,,,,,,,,,,,,,,,,,,,,,,,,,,,,,,,,,,,,,,,,,,,,,,,,,,,,,,,,,,,,,,,,,,,,,,,,,,,,,,,,,,,,,,,,,,,,,,,,,,,,,,,,,,,,,,,,,,,,,,,,
,,69a7f38b36ee9d5acad39b24,2026-03-17_07h10.16.623,kallum_motion_pilot_GIST_update_2,2026.1.1,MacIntel,62.11180124,69a7f38b36ee9d5acad39b24,69b95efdef24cd8a694e89ee,69b96003e52fd7b5ae76fd95,0.0525,0.0525,1,80,242,55,1,fourthree,,,,,,,,,,,,,,,,,,,,,,,,,,,,,,,,,,,,,,,,,,,,,,,,,,,,,,,,,,,,,,,,,,,,,,,,,,,,,,,,,,,,,,,,,,,,,,,,,,,,,,,,,,,,,,,,,,,,,,,,,,,,,,,,,,,,,,,,,
,,69a7f38b36ee9d5acad39b24,2026-03-17_07h10.16.623,kallum_motion_pilot_GIST_update_2,2026.1.1,MacIntel,62.11180124,69a7f38b36ee9d5acad39b24,69b95efdef24cd8a694e89ee,69b96003e52fd7b5ae76fd95,0.0526,0.0526,1,81,243,121,1,fiveseven,,,,,,,,,,,,,,,,,,,,,,,,,,,,,,,,,,,,,,,,,,,,,,,,,,,,,,,,,,,,,,,,,,,,,,,,,,,,,,,,,,,,,,,,,,,,,,,,,,,,,,,,,,,,,,,,,,,,,,,,,,,,,,,,,,,,,,,,,
,,69a7f38b36ee9d5acad39b24,2026-03-17_07h10.16.623,kallum_motion_pilot_GIST_update_2,2026.1.1,MacIntel,62.11180124,69a7f38b36ee9d5acad39b24,69b95efdef24cd8a694e89ee,69b96003e52fd7b5ae76fd95,0.0527,0.0527,1,82,244,10,1,twoone,,,,,,,,,,,,,,,,,,,,,,,,,,,,,,,,,,,,,,,,,,,,,,,,,,,,,,,,,,,,,,,,,,,,,,,,,,,,,,,,,,,,,,,,,,,,,,,,,,,,,,,,,,,,,,,,,,,,,,,,,,,,,,,,,,,,,,,,,
,,69a7f38b36ee9d5acad39b24,2026-03-17_07h10.16.623,kallum_motion_pilot_GIST_update_2,2026.1.1,MacIntel,62.11180124,69a7f38b36ee9d5acad39b24,69b95efdef24cd8a694e89ee,69b96003e52fd7b5ae76fd95,0.0529,0.0529,1,83,245,125,1,seveneight,,,,,,,,,,,,,,,,,,,,,,,,,,,,,,,,,,,,,,,,,,,,,,,,,,,,,,,,,,,,,,,,,,,,,,,,,,,,,,,,,,,,,,,,,,,,,,,,,,,,,,,,,,,,,,,,,,,,,,,,,,,,,,,,,,,,,,,,,
,,69a7f38b36ee9d5acad39b24,2026-03-17_07h10.16.623,kallum_motion_pilot_GIST_update_2,2026.1.1,MacIntel,62.11180124,69a7f38b36ee9d5acad39b24,69b95efdef24cd8a694e89ee,69b96003e52fd7b5ae76fd95,0.0531,0.0531,1,84,246,13,1,threefour,,,,,,,,,,,,,,,,,,,,,,,,,,,,,,,,,,,,,,,,,,,,,,,,,,,,,,,,,,,,,,,,,,,,,,,,,,,,,,,,,,,,,,,,,,,,,,,,,,,,,,,,,,,,,,,,,,,,,,,,,,,,,,,,,,,,,,,,,
,,69a7f38b36ee9d5acad39b24,2026-03-17_07h10.16.623,kallum_motion_pilot_GIST_update_2,2026.1.1,MacIntel,62.11180124,69a7f38b36ee9d5acad39b24,69b95efdef24cd8a694e89ee,69b96003e52fd7b5ae76fd95,0.0532,0.0532,1,85,247,136,1,fivesix,,,,,,,,,,,,,,,,,,,,,,,,,,,,,,,,,,,,,,,,,,,,,,,,,,,,,,,,,,,,,,,,,,,,,,,,,,,,,,,,,,,,,,,,,,,,,,,,,,,,,,,,,,,,,,,,,,,,,,,,,,,,,,,,,,,,,,,,,
,,69a7f38b36ee9d5acad39b24,2026-03-17_07h10.16.623,kallum_motion_pilot_GIST_update_2,2026.1.1,MacIntel,62.11180124,69a7f38b36ee9d5acad39b24,69b95efdef24cd8a694e89ee,69b96003e52fd7b5ae76fd95,0.0534,0.0534,1,86,248,23,1,fourthree,,,,,,,,,,,,,,,,,,,,,,,,,,,,,,,,,,,,,,,,,,,,,,,,,,,,,,,,,,,,,,,,,,,,,,,,,,,,,,,,,,,,,,,,,,,,,,,,,,,,,,,,,,,,,,,,,,,,,,,,,,,,,,,,,,,,,,,,,
,,69a7f38b36ee9d5acad39b24,2026-03-17_07h10.16.623,kallum_motion_pilot_GIST_update_2,2026.1.1,MacIntel,62.11180124,69a7f38b36ee9d5acad39b24,69b95efdef24cd8a694e89ee,69b96003e52fd7b5ae76fd95,0.0535,0.0535,1,87,249,113,1,fiveseven,,,,,,,,,,,,,,,,,,,,,,,,,,,,,,,,,,,,,,,,,,,,,,,,,,,,,,,,,,,,,,,,,,,,,,,,,,,,,,,,,,,,,,,,,,,,,,,,,,,,,,,,,,,,,,,,,,,,,,,,,,,,,,,,,,,,,,,,,
,,69a7f38b36ee9d5acad39b24,2026-03-17_07h10.16.623,kallum_motion_pilot_GIST_update_2,2026.1.1,MacIntel,62.11180124,69a7f38b36ee9d5acad39b24,69b95efdef24cd8a694e89ee,69b96003e52fd7b5ae76fd95,0.0535,0.0535,1,88,250,133,1,seveneight,,,,,,,,,,,,,,,,,,,,,,,,,,,,,,,,,,,,,,,,,,,,,,,,,,,,,,,,,,,,,,,,,,,,,,,,,,,,,,,,,,,,,,,,,,,,,,,,,,,,,,,,,,,,,,,,,,,,,,,,,,,,,,,,,,,,,,,,,
,,69a7f38b36ee9d5acad39b24,2026-03-17_07h10.16.623,kallum_motion_pilot_GIST_update_2,2026.1.1,MacIntel,62.11180124,69a7f38b36ee9d5acad39b24,69b95efdef24cd8a694e89ee,69b96003e52fd7b5ae76fd95,0.0537,0.0537,1,89,251,89,1,fiveseven,,,,,,,,,,,,,,,,,,,,,,,,,,,,,,,,,,,,,,,,,,,,,,,,,,,,,,,,,,,,,,,,,,,,,,,,,,,,,,,,,,,,,,,,,,,,,,,,,,,,,,,,,,,,,,,,,,,,,,,,,,,,,,,,,,,,,,,,,
,,69a7f38b36ee9d5acad39b24,2026-03-17_07h10.16.623,kallum_motion_pilot_GIST_update_2,2026.1.1,MacIntel,62.11180124,69a7f38b36ee9d5acad39b24,69b95efdef24cd8a694e89ee,69b96003e52fd7b5ae76fd95,0.0539,0.0539,1,90,252,39,1,fourthree,,,,,,,,,,,,,,,,,,,,,,,,,,,,,,,,,,,,,,,,,,,,,,,,,,,,,,,,,,,,,,,,,,,,,,,,,,,,,,,,,,,,,,,,,,,,,,,,,,,,,,,,,,,,,,,,,,,,,,,,,,,,,,,,,,,,,,,,,
,,69a7f38b36ee9d5acad39b24,2026-03-17_07h10.16.623,kallum_motion_pilot_GIST_update_2,2026.1.1,MacIntel,62.11180124,69a7f38b36ee9d5acad39b24,69b95efdef24cd8a694e89ee,69b96003e52fd7b5ae76fd95,0.054,0.054,1,91,253,130,1,sixfive,,,,,,,,,,,,,,,,,,,,,,,,,,,,,,,,,,,,,,,,,,,,,,,,,,,,,,,,,,,,,,,,,,,,,,,,,,,,,,,,,,,,,,,,,,,,,,,,,,,,,,,,,,,,,,,,,,,,,,,,,,,,,,,,,,,,,,,,,
,,69a7f38b36ee9d5acad39b24,2026-03-17_07h10.16.623,kallum_motion_pilot_GIST_update_2,2026.1.1,MacIntel,62.11180124,69a7f38b36ee9d5acad39b24,69b95efdef24cd8a694e89ee,69b96003e52fd7b5ae76fd95,0.0541,0.0542,1,92,254,24,1,onetwo,,,,,,,,,,,,,,,,,,,,,,,,,,,,,,,,,,,,,,,,,,,,,,,,,,,,,,,,,,,,,,,,,,,,,,,,,,,,,,,,,,,,,,,,,,,,,,,,,,,,,,,,,,,,,,,,,,,,,,,,,,,,,,,,,,,,,,,,,
,,69a7f38b36ee9d5acad39b24,2026-03-17_07h10.16.623,kallum_motion_pilot_GIST_update_2,2026.1.1,MacIntel,62.11180124,69a7f38b36ee9d5acad39b24,69b95efdef24cd8a694e89ee,69b96003e52fd7b5ae76fd95,0.0542,0.0542,1,93,255,35,1,twofour,,,,,,,,,,,,,,,,,,,,,,,,,,,,,,,,,,,,,,,,,,,,,,,,,,,,,,,,,,,,,,,,,,,,,,,,,,,,,,,,,,,,,,,,,,,,,,,,,,,,,,,,,,,,,,,,,,,,,,,,,,,,,,,,,,,,,,,,,
,,69a7f38b36ee9d5acad39b24,2026-03-17_07h10.16.623,kallum_motion_pilot_GIST_update_2,2026.1.1,MacIntel,62.11180124,69a7f38b36ee9d5acad39b24,69b95efdef24cd8a694e89ee,69b96003e52fd7b5ae76fd95,0.0544,0.0544,1,94,256,131,1,sixeight,,,,,,,,,,,,,,,,,,,,,,,,,,,,,,,,,,,,,,,,,,,,,,,,,,,,,,,,,,,,,,,,,,,,,,,,,,,,,,,,,,,,,,,,,,,,,,,,,,,,,,,,,,,,,,,,,,,,,,,,,,,,,,,,,,,,,,,,,
,,69a7f38b36ee9d5acad39b24,2026-03-17_07h10.16.623,kallum_motion_pilot_GIST_update_2,2026.1.1,MacIntel,62.11180124,69a7f38b36ee9d5acad39b24,69b95efdef24cd8a694e89ee,69b96003e52fd7b5ae76fd95,0.0545,0.0545,1,95,257,67,1,twofour,,,,,,,,,,,,,,,,,,,,,,,,,,,,,,,,,,,,,,,,,,,,,,,,,,,,,,,,,,,,,,,,,,,,,,,,,,,,,,,,,,,,,,,,,,,,,,,,,,,,,,,,,,,,,,,,,,,,,,,,,,,,,,,,,,,,,,,,,
,,69a7f38b36ee9d5acad39b24,2026-03-17_07h10.16.623,kallum_motion_pilot_GIST_update_2,2026.1.1,MacIntel,62.11180124,69a7f38b36ee9d5acad39b24,69b95efdef24cd8a694e89ee,69b96003e52fd7b5ae76fd95,0.0546,0.0546,1,96,258,85,1,seveneight,,,,,,,,,,,,,,,,,,,,,,,,,,,,,,,,,,,,,,,,,,,,,,,,,,,,,,,,,,,,,,,,,,,,,,,,,,,,,,,,,,,,,,,,,,,,,,,,,,,,,,,,,,,,,,,,,,,,,,,,,,,,,,,,,,,,,,,,,
,,69a7f38b36ee9d5acad39b24,2026-03-17_07h10.16.623,kallum_motion_pilot_GIST_update_2,2026.1.1,MacIntel,62.11180124,69a7f38b36ee9d5acad39b24,69b95efdef24cd8a694e89ee,69b96003e52fd7b5ae76fd95,0.0548,0.0548,1,97,259,92,1,sevenfive,,,,,,,,,,,,,,,,,,,,,,,,,,,,,,,,,,,,,,,,,,,,,,,,,,,,,,,,,,,,,,,,,,,,,,,,,,,,,,,,,,,,,,,,,,,,,,,,,,,,,,,,,,,,,,,,,,,,,,,,,,,,,,,,,,,,,,,,,
,,69a7f38b36ee9d5acad39b24,2026-03-17_07h10.16.623,kallum_motion_pilot_GIST_update_2,2026.1.1,MacIntel,62.11180124,69a7f38b36ee9d5acad39b24,69b95efdef24cd8a694e89ee,69b96003e52fd7b5ae76fd95,0.0549,0.0549,1,98,260,71,1,fourthree,,,,,,,,,,,,,,,,,,,,,,,,,,,,,,,,,,,,,,,,,,,,,,,,,,,,,,,,,,,,,,,,,,,,,,,,,,,,,,,,,,,,,,,,,,,,,,,,,,,,,,,,,,,,,,,,,,,,,,,,,,,,,,,,,,,,,,,,,
,,69a7f38b36ee9d5acad39b24,2026-03-17_07h10.16.623,kallum_motion_pilot_GIST_update_2,2026.1.1,MacIntel,62.11180124,69a7f38b36ee9d5acad39b24,69b95efdef24cd8a694e89ee,69b96003e52fd7b5ae76fd95,0.055,0.055,1,99,261,144,1,fivesix,,,,,,,,,,,,,,,,,,,,,,,,,,,,,,,,,,,,,,,,,,,,,,,,,,,,,,,,,,,,,,,,,,,,,,,,,,,,,,,,,,,,,,,,,,,,,,,,,,,,,,,,,,,,,,,,,,,,,,,,,,,,,,,,,,,,,,,,,
,,69a7f38b36ee9d5acad39b24,2026-03-17_07h10.16.623,kallum_motion_pilot_GIST_update_2,2026.1.1,MacIntel,62.11180124,69a7f38b36ee9d5acad39b24,69b95efdef24cd8a694e89ee,69b96003e52fd7b5ae76fd95,0.0552,0.0552,1,100,262,134,1,eightsix,,,,,,,,,,,,,,,,,,,,,,,,,,,,,,,,,,,,,,,,,,,,,,,,,,,,,,,,,,,,,,,,,,,,,,,,,,,,,,,,,,,,,,,,,,,,,,,,,,,,,,,,,,,,,,,,,,,,,,,,,,,,,,,,,,,,,,,,,
,,69a7f38b36ee9d5acad39b24,2026-03-17_07h10.16.623,kallum_motion_pilot_GIST_update_2,2026.1.1,MacIntel,62.11180124,69a7f38b36ee9d5acad39b24,69b95efdef24cd8a694e89ee,69b96003e52fd7b5ae76fd95,0.0554,0.0554,1,101,263,72,1,onetwo,,,,,,,,,,,,,,,,,,,,,,,,,,,,,,,,,,,,,,,,,,,,,,,,,,,,,,,,,,,,,,,,,,,,,,,,,,,,,,,,,,,,,,,,,,,,,,,,,,,,,,,,,,,,,,,,,,,,,,,,,,,,,,,,,,,,,,,,,
