startup.started,startup.stopped,Prolific ID*,date,expName,psychopyVersion,OS,frameRate,participant,study_id,session,stimpositions.started,stimpositions.stopped,hardcoded_stimulus_positions.thisRepN,hardcoded_stimulus_positions.thisTrialN,hardcoded_stimulus_positions.thisN,hardcoded_stimulus_positions.thisIndex,hardcoded_stimulus_positions.ran,StimulusPos,stimorientation.started,stimorientation.stopped,prac_stimorientation_import_loop.thisRepN,prac_stimorientation_import_loop.thisTrialN,prac_stimorientation_import_loop.thisN,prac_stimorientation_import_loop.thisIndex,prac_stimorientation_import_loop.ran,Stimorientation,welcome_instr.started,welcome_instr.stopped,key_resp.keys,key_resp.rt,key_resp.duration,response_steppedout_1.started,response_steppedout_1.stopped,key_resp_20.keys,key_resp_20.rt,key_resp_20.duration,response_steppedout_2.started,response_steppedout_2.stopped,key_resp_19.keys,key_resp_19.rt,key_resp_19.duration,stim_response_instr.started,stim_response_instr.stopped,key_resp_15.keys,key_resp_15.rt,key_resp_15.duration,direction_instr_2.started,direction_instr_2.stopped,key_resp_9.keys,key_resp_9.rt,key_resp_9.duration,instr_prac.started,instr_prac.stopped,key_resp_10.keys,key_resp_10.rt,key_resp_10.duration,Stim1_display_prac.started,Stim1_display_prac.stopped,Ecc,Circle1_ori,Circle2_ori,response_prac.started,similarity,response_time,response_prac.stopped,mouse_5.x,mouse_5.y,mouse_5.leftButton,mouse_5.midButton,mouse_5.rightButton,mouse_5.clicked_name,responseprac_feedback.started,responseprac_feedback.stopped,summary2_prac.started,summary2_prac.stopped,mouse_6.x,mouse_6.y,mouse_6.leftButton,mouse_6.midButton,mouse_6.rightButton,mouse_6.clicked_name,duringprac.thisRepN,duringprac.thisTrialN,duringprac.thisN,duringprac.thisIndex,duringprac.ran,begin.started,begin.stopped,key_resp_22.keys,key_resp_22.rt,key_resp_22.duration,Stim1_display.started,Stim1_display.stopped,circle1_ori,circle2_ori,circle1_SF,circle2_SF,response.started,response.stopped,mouse.x,mouse.y,mouse.leftButton,mouse.midButton,mouse.rightButton,mouse.clicked_name,trialnumber,double_pass.thisRepN,double_pass.thisTrialN,double_pass.thisN,double_pass.thisIndex,double_pass.ran,double_pass.order,main_trial.thisRepN,main_trial.thisTrialN,main_trial.thisN,main_trial.thisIndex,main_trial.ran,main_trial.order,Trial_Counter,Catch,Frequencies,response_2.started,response_2.stopped,mouse_2.x,mouse_2.y,mouse_2.leftButton,mouse_2.midButton,mouse_2.rightButton,mouse_2.clicked_name,special_trial.started,special_trial.stopped,catch_1.started,catch_1.stopped,mouse_3.x,mouse_3.y,mouse_3.leftButton,mouse_3.midButton,mouse_3.rightButton,catchresponse,catchnumber,response_time_catch,response_sum.started,response_sum.stopped,mouse_11.x,mouse_11.y,mouse_11.leftButton,mouse_11.midButton,mouse_11.rightButton,flip_presentation_sequence_for_double_pass.started,flip_presentation_sequence_for_double_pass.stopped,goodbye.started,goodbye.stopped,key_resp_3.keys,key_resp_3.rt,key_resp_3.duration
0.0004,0.0005,69b306d0aabcb968f7ca7ec5,2026-03-17_03h37.45.259,kallum_motion_pilot_GIST_update_2,2026.1.1,Win32,59.88023952,69b306d0aabcb968f7ca7ec5,69b92ab4aef6dee357cd729a,69b92edce48e1470e1ca717f,,,,,,,,,,,,,,,,,,,,,,,,,,,,,,,,,,,,,,,,,,,,,,,,,,,,,,,,,,,,,,,,,,,,,,,,,,,,,,,,,,,,,,,,,,,,,,,,,,,,,,,,,,,,,,,,,,,,,,,,,,,,,,,,,,,,,,,,,,,,,,,,,
,,69b306d0aabcb968f7ca7ec5,2026-03-17_03h37.45.259,kallum_motion_pilot_GIST_update_2,2026.1.1,Win32,59.88023952,69b306d0aabcb968f7ca7ec5,69b92ab4aef6dee357cd729a,69b92edce48e1470e1ca717f,0.0168,0.0168,0,0,0,119,1,eightseven,,,,,,,,,,,,,,,,,,,,,,,,,,,,,,,,,,,,,,,,,,,,,,,,,,,,,,,,,,,,,,,,,,,,,,,,,,,,,,,,,,,,,,,,,,,,,,,,,,,,,,,,,,,,,,,,,,,,,,,,,,,,,,,,,,,,,,,,,
,,69b306d0aabcb968f7ca7ec5,2026-03-17_03h37.45.259,kallum_motion_pilot_GIST_update_2,2026.1.1,Win32,59.88023952,69b306d0aabcb968f7ca7ec5,69b92ab4aef6dee357cd729a,69b92edce48e1470e1ca717f,0.017,0.017,0,1,1,122,1,sixfive,,,,,,,,,,,,,,,,,,,,,,,,,,,,,,,,,,,,,,,,,,,,,,,,,,,,,,,,,,,,,,,,,,,,,,,,,,,,,,,,,,,,,,,,,,,,,,,,,,,,,,,,,,,,,,,,,,,,,,,,,,,,,,,,,,,,,,,,,
,,69b306d0aabcb968f7ca7ec5,2026-03-17_03h37.45.259,kallum_motion_pilot_GIST_update_2,2026.1.1,Win32,59.88023952,69b306d0aabcb968f7ca7ec5,69b92ab4aef6dee357cd729a,69b92edce48e1470e1ca717f,0.0171,0.0171,0,2,2,97,1,fiveseven,,,,,,,,,,,,,,,,,,,,,,,,,,,,,,,,,,,,,,,,,,,,,,,,,,,,,,,,,,,,,,,,,,,,,,,,,,,,,,,,,,,,,,,,,,,,,,,,,,,,,,,,,,,,,,,,,,,,,,,,,,,,,,,,,,,,,,,,,
,,69b306d0aabcb968f7ca7ec5,2026-03-17_03h37.45.259,kallum_motion_pilot_GIST_update_2,2026.1.1,Win32,59.88023952,69b306d0aabcb968f7ca7ec5,69b92ab4aef6dee357cd729a,69b92edce48e1470e1ca717f,0.0173,0.0173,0,3,3,52,1,threeone,,,,,,,,,,,,,,,,,,,,,,,,,,,,,,,,,,,,,,,,,,,,,,,,,,,,,,,,,,,,,,,,,,,,,,,,,,,,,,,,,,,,,,,,,,,,,,,,,,,,,,,,,,,,,,,,,,,,,,,,,,,,,,,,,,,,,,,,,
,,69b306d0aabcb968f7ca7ec5,2026-03-17_03h37.45.259,kallum_motion_pilot_GIST_update_2,2026.1.1,Win32,59.88023952,69b306d0aabcb968f7ca7ec5,69b92ab4aef6dee357cd729a,69b92edce48e1470e1ca717f,0.0174,0.0174,0,4,4,75,1,twofour,,,,,,,,,,,,,,,,,,,,,,,,,,,,,,,,,,,,,,,,,,,,,,,,,,,,,,,,,,,,,,,,,,,,,,,,,,,,,,,,,,,,,,,,,,,,,,,,,,,,,,,,,,,,,,,,,,,,,,,,,,,,,,,,,,,,,,,,,
,,69b306d0aabcb968f7ca7ec5,2026-03-17_03h37.45.259,kallum_motion_pilot_GIST_update_2,2026.1.1,Win32,59.88023952,69b306d0aabcb968f7ca7ec5,69b92ab4aef6dee357cd729a,69b92edce48e1470e1ca717f,0.0174,0.0174,0,5,5,77,1,threefour,,,,,,,,,,,,,,,,,,,,,,,,,,,,,,,,,,,,,,,,,,,,,,,,,,,,,,,,,,,,,,,,,,,,,,,,,,,,,,,,,,,,,,,,,,,,,,,,,,,,,,,,,,,,,,,,,,,,,,,,,,,,,,,,,,,,,,,,,
,,69b306d0aabcb968f7ca7ec5,2026-03-17_03h37.45.259,kallum_motion_pilot_GIST_update_2,2026.1.1,Win32,59.88023952,69b306d0aabcb968f7ca7ec5,69b92ab4aef6dee357cd729a,69b92edce48e1470e1ca717f,0.0176,0.0176,0,6,6,138,1,sixfive,,,,,,,,,,,,,,,,,,,,,,,,,,,,,,,,,,,,,,,,,,,,,,,,,,,,,,,,,,,,,,,,,,,,,,,,,,,,,,,,,,,,,,,,,,,,,,,,,,,,,,,,,,,,,,,,,,,,,,,,,,,,,,,,,,,,,,,,,
,,69b306d0aabcb968f7ca7ec5,2026-03-17_03h37.45.259,kallum_motion_pilot_GIST_update_2,2026.1.1,Win32,59.88023952,69b306d0aabcb968f7ca7ec5,69b92ab4aef6dee357cd729a,69b92edce48e1470e1ca717f,0.0176,0.0176,0,7,7,16,1,onetwo,,,,,,,,,,,,,,,,,,,,,,,,,,,,,,,,,,,,,,,,,,,,,,,,,,,,,,,,,,,,,,,,,,,,,,,,,,,,,,,,,,,,,,,,,,,,,,,,,,,,,,,,,,,,,,,,,,,,,,,,,,,,,,,,,,,,,,,,,
,,69b306d0aabcb968f7ca7ec5,2026-03-17_03h37.45.259,kallum_motion_pilot_GIST_update_2,2026.1.1,Win32,59.88023952,69b306d0aabcb968f7ca7ec5,69b92ab4aef6dee357cd729a,69b92edce48e1470e1ca717f,0.0177,0.0177,0,8,8,133,1,seveneight,,,,,,,,,,,,,,,,,,,,,,,,,,,,,,,,,,,,,,,,,,,,,,,,,,,,,,,,,,,,,,,,,,,,,,,,,,,,,,,,,,,,,,,,,,,,,,,,,,,,,,,,,,,,,,,,,,,,,,,,,,,,,,,,,,,,,,,,,
,,69b306d0aabcb968f7ca7ec5,2026-03-17_03h37.45.259,kallum_motion_pilot_GIST_update_2,2026.1.1,Win32,59.88023952,69b306d0aabcb968f7ca7ec5,69b92ab4aef6dee357cd729a,69b92edce48e1470e1ca717f,0.0178,0.0179,0,9,9,135,1,eightseven,,,,,,,,,,,,,,,,,,,,,,,,,,,,,,,,,,,,,,,,,,,,,,,,,,,,,,,,,,,,,,,,,,,,,,,,,,,,,,,,,,,,,,,,,,,,,,,,,,,,,,,,,,,,,,,,,,,,,,,,,,,,,,,,,,,,,,,,,
,,69b306d0aabcb968f7ca7ec5,2026-03-17_03h37.45.259,kallum_motion_pilot_GIST_update_2,2026.1.1,Win32,59.88023952,69b306d0aabcb968f7ca7ec5,69b92ab4aef6dee357cd729a,69b92edce48e1470e1ca717f,0.0179,0.0179,0,10,10,100,1,sevenfive,,,,,,,,,,,,,,,,,,,,,,,,,,,,,,,,,,,,,,,,,,,,,,,,,,,,,,,,,,,,,,,,,,,,,,,,,,,,,,,,,,,,,,,,,,,,,,,,,,,,,,,,,,,,,,,,,,,,,,,,,,,,,,,,,,,,,,,,,
,,69b306d0aabcb968f7ca7ec5,2026-03-17_03h37.45.259,kallum_motion_pilot_GIST_update_2,2026.1.1,Win32,59.88023952,69b306d0aabcb968f7ca7ec5,69b92ab4aef6dee357cd729a,69b92edce48e1470e1ca717f,0.018,0.018,0,11,11,131,1,sixeight,,,,,,,,,,,,,,,,,,,,,,,,,,,,,,,,,,,,,,,,,,,,,,,,,,,,,,,,,,,,,,,,,,,,,,,,,,,,,,,,,,,,,,,,,,,,,,,,,,,,,,,,,,,,,,,,,,,,,,,,,,,,,,,,,,,,,,,,,
,,69b306d0aabcb968f7ca7ec5,2026-03-17_03h37.45.259,kallum_motion_pilot_GIST_update_2,2026.1.1,Win32,59.88023952,69b306d0aabcb968f7ca7ec5,69b92ab4aef6dee357cd729a,69b92edce48e1470e1ca717f,0.0181,0.0181,0,12,12,149,1,seveneight,,,,,,,,,,,,,,,,,,,,,,,,,,,,,,,,,,,,,,,,,,,,,,,,,,,,,,,,,,,,,,,,,,,,,,,,,,,,,,,,,,,,,,,,,,,,,,,,,,,,,,,,,,,,,,,,,,,,,,,,,,,,,,,,,,,,,,,,,
,,69b306d0aabcb968f7ca7ec5,2026-03-17_03h37.45.259,kallum_motion_pilot_GIST_update_2,2026.1.1,Win32,59.88023952,69b306d0aabcb968f7ca7ec5,69b92ab4aef6dee357cd729a,69b92edce48e1470e1ca717f,0.0181,0.0181,0,13,13,40,1,onetwo,,,,,,,,,,,,,,,,,,,,,,,,,,,,,,,,,,,,,,,,,,,,,,,,,,,,,,,,,,,,,,,,,,,,,,,,,,,,,,,,,,,,,,,,,,,,,,,,,,,,,,,,,,,,,,,,,,,,,,,,,,,,,,,,,,,,,,,,,
,,69b306d0aabcb968f7ca7ec5,2026-03-17_03h37.45.259,kallum_motion_pilot_GIST_update_2,2026.1.1,Win32,59.88023952,69b306d0aabcb968f7ca7ec5,69b92ab4aef6dee357cd729a,69b92edce48e1470e1ca717f,0.0182,0.0182,0,14,14,69,1,threefour,,,,,,,,,,,,,,,,,,,,,,,,,,,,,,,,,,,,,,,,,,,,,,,,,,,,,,,,,,,,,,,,,,,,,,,,,,,,,,,,,,,,,,,,,,,,,,,,,,,,,,,,,,,,,,,,,,,,,,,,,,,,,,,,,,,,,,,,,
,,69b306d0aabcb968f7ca7ec5,2026-03-17_03h37.45.259,kallum_motion_pilot_GIST_update_2,2026.1.1,Win32,59.88023952,69b306d0aabcb968f7ca7ec5,69b92ab4aef6dee357cd729a,69b92edce48e1470e1ca717f,0.0183,0.0183,0,15,15,124,1,sevenfive,,,,,,,,,,,,,,,,,,,,,,,,,,,,,,,,,,,,,,,,,,,,,,,,,,,,,,,,,,,,,,,,,,,,,,,,,,,,,,,,,,,,,,,,,,,,,,,,,,,,,,,,,,,,,,,,,,,,,,,,,,,,,,,,,,,,,,,,,
,,69b306d0aabcb968f7ca7ec5,2026-03-17_03h37.45.259,kallum_motion_pilot_GIST_update_2,2026.1.1,Win32,59.88023952,69b306d0aabcb968f7ca7ec5,69b92ab4aef6dee357cd729a,69b92edce48e1470e1ca717f,0.0183,0.0183,0,16,16,78,1,fourtwo,,,,,,,,,,,,,,,,,,,,,,,,,,,,,,,,,,,,,,,,,,,,,,,,,,,,,,,,,,,,,,,,,,,,,,,,,,,,,,,,,,,,,,,,,,,,,,,,,,,,,,,,,,,,,,,,,,,,,,,,,,,,,,,,,,,,,,,,,
,,69b306d0aabcb968f7ca7ec5,2026-03-17_03h37.45.259,kallum_motion_pilot_GIST_update_2,2026.1.1,Win32,59.88023952,69b306d0aabcb968f7ca7ec5,69b92ab4aef6dee357cd729a,69b92edce48e1470e1ca717f,0.0184,0.0184,0,17,17,47,1,fourthree,,,,,,,,,,,,,,,,,,,,,,,,,,,,,,,,,,,,,,,,,,,,,,,,,,,,,,,,,,,,,,,,,,,,,,,,,,,,,,,,,,,,,,,,,,,,,,,,,,,,,,,,,,,,,,,,,,,,,,,,,,,,,,,,,,,,,,,,,
,,69b306d0aabcb968f7ca7ec5,2026-03-17_03h37.45.259,kallum_motion_pilot_GIST_update_2,2026.1.1,Win32,59.88023952,69b306d0aabcb968f7ca7ec5,69b92ab4aef6dee357cd729a,69b92edce48e1470e1ca717f,0.0184,0.0184,0,18,18,48,1,onetwo,,,,,,,,,,,,,,,,,,,,,,,,,,,,,,,,,,,,,,,,,,,,,,,,,,,,,,,,,,,,,,,,,,,,,,,,,,,,,,,,,,,,,,,,,,,,,,,,,,,,,,,,,,,,,,,,,,,,,,,,,,,,,,,,,,,,,,,,,
,,69b306d0aabcb968f7ca7ec5,2026-03-17_03h37.45.259,kallum_motion_pilot_GIST_update_2,2026.1.1,Win32,59.88023952,69b306d0aabcb968f7ca7ec5,69b92ab4aef6dee357cd729a,69b92edce48e1470e1ca717f,0.0185,0.0185,0,19,19,60,1,threeone,,,,,,,,,,,,,,,,,,,,,,,,,,,,,,,,,,,,,,,,,,,,,,,,,,,,,,,,,,,,,,,,,,,,,,,,,,,,,,,,,,,,,,,,,,,,,,,,,,,,,,,,,,,,,,,,,,,,,,,,,,,,,,,,,,,,,,,,,
,,69b306d0aabcb968f7ca7ec5,2026-03-17_03h37.45.259,kallum_motion_pilot_GIST_update_2,2026.1.1,Win32,59.88023952,69b306d0aabcb968f7ca7ec5,69b92ab4aef6dee357cd729a,69b92edce48e1470e1ca717f,0.0185,0.0185,0,20,20,110,1,eightsix,,,,,,,,,,,,,,,,,,,,,,,,,,,,,,,,,,,,,,,,,,,,,,,,,,,,,,,,,,,,,,,,,,,,,,,,,,,,,,,,,,,,,,,,,,,,,,,,,,,,,,,,,,,,,,,,,,,,,,,,,,,,,,,,,,,,,,,,,
,,69b306d0aabcb968f7ca7ec5,2026-03-17_03h37.45.259,kallum_motion_pilot_GIST_update_2,2026.1.1,Win32,59.88023952,69b306d0aabcb968f7ca7ec5,69b92ab4aef6dee357cd729a,69b92edce48e1470e1ca717f,0.0187,0.0187,0,21,21,86,1,eightsix,,,,,,,,,,,,,,,,,,,,,,,,,,,,,,,,,,,,,,,,,,,,,,,,,,,,,,,,,,,,,,,,,,,,,,,,,,,,,,,,,,,,,,,,,,,,,,,,,,,,,,,,,,,,,,,,,,,,,,,,,,,,,,,,,,,,,,,,,
,,69b306d0aabcb968f7ca7ec5,2026-03-17_03h37.45.259,kallum_motion_pilot_GIST_update_2,2026.1.1,Win32,59.88023952,69b306d0aabcb968f7ca7ec5,69b92ab4aef6dee357cd729a,69b92edce48e1470e1ca717f,0.0187,0.0187,0,22,22,132,1,sevenfive,,,,,,,,,,,,,,,,,,,,,,,,,,,,,,,,,,,,,,,,,,,,,,,,,,,,,,,,,,,,,,,,,,,,,,,,,,,,,,,,,,,,,,,,,,,,,,,,,,,,,,,,,,,,,,,,,,,,,,,,,,,,,,,,,,,,,,,,,
,,69b306d0aabcb968f7ca7ec5,2026-03-17_03h37.45.259,kallum_motion_pilot_GIST_update_2,2026.1.1,Win32,59.88023952,69b306d0aabcb968f7ca7ec5,69b92ab4aef6dee357cd729a,69b92edce48e1470e1ca717f,0.0187,0.0187,0,23,23,150,1,eightsix,,,,,,,,,,,,,,,,,,,,,,,,,,,,,,,,,,,,,,,,,,,,,,,,,,,,,,,,,,,,,,,,,,,,,,,,,,,,,,,,,,,,,,,,,,,,,,,,,,,,,,,,,,,,,,,,,,,,,,,,,,,,,,,,,,,,,,,,,
,,69b306d0aabcb968f7ca7ec5,2026-03-17_03h37.45.259,kallum_motion_pilot_GIST_update_2,2026.1.1,Win32,59.88023952,69b306d0aabcb968f7ca7ec5,69b92ab4aef6dee357cd729a,69b92edce48e1470e1ca717f,0.0188,0.0188,0,24,24,30,1,fourtwo,,,,,,,,,,,,,,,,,,,,,,,,,,,,,,,,,,,,,,,,,,,,,,,,,,,,,,,,,,,,,,,,,,,,,,,,,,,,,,,,,,,,,,,,,,,,,,,,,,,,,,,,,,,,,,,,,,,,,,,,,,,,,,,,,,,,,,,,,
,,69b306d0aabcb968f7ca7ec5,2026-03-17_03h37.45.259,kallum_motion_pilot_GIST_update_2,2026.1.1,Win32,59.88023952,69b306d0aabcb968f7ca7ec5,69b92ab4aef6dee357cd729a,69b92edce48e1470e1ca717f,0.0189,0.0189,0,25,25,141,1,seveneight,,,,,,,,,,,,,,,,,,,,,,,,,,,,,,,,,,,,,,,,,,,,,,,,,,,,,,,,,,,,,,,,,,,,,,,,,,,,,,,,,,,,,,,,,,,,,,,,,,,,,,,,,,,,,,,,,,,,,,,,,,,,,,,,,,,,,,,,,
,,69b306d0aabcb968f7ca7ec5,2026-03-17_03h37.45.259,kallum_motion_pilot_GIST_update_2,2026.1.1,Win32,59.88023952,69b306d0aabcb968f7ca7ec5,69b92ab4aef6dee357cd729a,69b92edce48e1470e1ca717f,0.019,0.019,0,26,26,129,1,fiveseven,,,,,,,,,,,,,,,,,,,,,,,,,,,,,,,,,,,,,,,,,,,,,,,,,,,,,,,,,,,,,,,,,,,,,,,,,,,,,,,,,,,,,,,,,,,,,,,,,,,,,,,,,,,,,,,,,,,,,,,,,,,,,,,,,,,,,,,,,
,,69b306d0aabcb968f7ca7ec5,2026-03-17_03h37.45.259,kallum_motion_pilot_GIST_update_2,2026.1.1,Win32,59.88023952,69b306d0aabcb968f7ca7ec5,69b92ab4aef6dee357cd729a,69b92edce48e1470e1ca717f,0.019,0.019,0,27,27,80,1,fivesix,,,,,,,,,,,,,,,,,,,,,,,,,,,,,,,,,,,,,,,,,,,,,,,,,,,,,,,,,,,,,,,,,,,,,,,,,,,,,,,,,,,,,,,,,,,,,,,,,,,,,,,,,,,,,,,,,,,,,,,,,,,,,,,,,,,,,,,,,
,,69b306d0aabcb968f7ca7ec5,2026-03-17_03h37.45.259,kallum_motion_pilot_GIST_update_2,2026.1.1,Win32,59.88023952,69b306d0aabcb968f7ca7ec5,69b92ab4aef6dee357cd729a,69b92edce48e1470e1ca717f,0.0191,0.0191,0,28,28,54,1,fourtwo,,,,,,,,,,,,,,,,,,,,,,,,,,,,,,,,,,,,,,,,,,,,,,,,,,,,,,,,,,,,,,,,,,,,,,,,,,,,,,,,,,,,,,,,,,,,,,,,,,,,,,,,,,,,,,,,,,,,,,,,,,,,,,,,,,,,,,,,,
,,69b306d0aabcb968f7ca7ec5,2026-03-17_03h37.45.259,kallum_motion_pilot_GIST_update_2,2026.1.1,Win32,59.88023952,69b306d0aabcb968f7ca7ec5,69b92ab4aef6dee357cd729a,69b92edce48e1470e1ca717f,0.0192,0.0192,0,29,29,105,1,fiveseven,,,,,,,,,,,,,,,,,,,,,,,,,,,,,,,,,,,,,,,,,,,,,,,,,,,,,,,,,,,,,,,,,,,,,,,,,,,,,,,,,,,,,,,,,,,,,,,,,,,,,,,,,,,,,,,,,,,,,,,,,,,,,,,,,,,,,,,,,
,,69b306d0aabcb968f7ca7ec5,2026-03-17_03h37.45.259,kallum_motion_pilot_GIST_update_2,2026.1.1,Win32,59.88023952,69b306d0aabcb968f7ca7ec5,69b92ab4aef6dee357cd729a,69b92edce48e1470e1ca717f,0.0192,0.0192,0,30,30,112,1,fivesix,,,,,,,,,,,,,,,,,,,,,,,,,,,,,,,,,,,,,,,,,,,,,,,,,,,,,,,,,,,,,,,,,,,,,,,,,,,,,,,,,,,,,,,,,,,,,,,,,,,,,,,,,,,,,,,,,,,,,,,,,,,,,,,,,,,,,,,,,
,,69b306d0aabcb968f7ca7ec5,2026-03-17_03h37.45.259,kallum_motion_pilot_GIST_update_2,2026.1.1,Win32,59.88023952,69b306d0aabcb968f7ca7ec5,69b92ab4aef6dee357cd729a,69b92edce48e1470e1ca717f,0.0192,0.0192,0,31,31,13,1,threefour,,,,,,,,,,,,,,,,,,,,,,,,,,,,,,,,,,,,,,,,,,,,,,,,,,,,,,,,,,,,,,,,,,,,,,,,,,,,,,,,,,,,,,,,,,,,,,,,,,,,,,,,,,,,,,,,,,,,,,,,,,,,,,,,,,,,,,,,,
,,69b306d0aabcb968f7ca7ec5,2026-03-17_03h37.45.259,kallum_motion_pilot_GIST_update_2,2026.1.1,Win32,59.88023952,69b306d0aabcb968f7ca7ec5,69b92ab4aef6dee357cd729a,69b92edce48e1470e1ca717f,0.0193,0.0193,0,32,32,146,1,sixfive,,,,,,,,,,,,,,,,,,,,,,,,,,,,,,,,,,,,,,,,,,,,,,,,,,,,,,,,,,,,,,,,,,,,,,,,,,,,,,,,,,,,,,,,,,,,,,,,,,,,,,,,,,,,,,,,,,,,,,,,,,,,,,,,,,,,,,,,,
,,69b306d0aabcb968f7ca7ec5,2026-03-17_03h37.45.259,kallum_motion_pilot_GIST_update_2,2026.1.1,Win32,59.88023952,69b306d0aabcb968f7ca7ec5,69b92ab4aef6dee357cd729a,69b92edce48e1470e1ca717f,0.0193,0.0193,0,33,33,36,1,threeone,,,,,,,,,,,,,,,,,,,,,,,,,,,,,,,,,,,,,,,,,,,,,,,,,,,,,,,,,,,,,,,,,,,,,,,,,,,,,,,,,,,,,,,,,,,,,,,,,,,,,,,,,,,,,,,,,,,,,,,,,,,,,,,,,,,,,,,,,
,,69b306d0aabcb968f7ca7ec5,2026-03-17_03h37.45.259,kallum_motion_pilot_GIST_update_2,2026.1.1,Win32,59.88023952,69b306d0aabcb968f7ca7ec5,69b92ab4aef6dee357cd729a,69b92edce48e1470e1ca717f,0.0194,0.0194,0,34,34,116,1,sevenfive,,,,,,,,,,,,,,,,,,,,,,,,,,,,,,,,,,,,,,,,,,,,,,,,,,,,,,,,,,,,,,,,,,,,,,,,,,,,,,,,,,,,,,,,,,,,,,,,,,,,,,,,,,,,,,,,,,,,,,,,,,,,,,,,,,,,,,,,,
,,69b306d0aabcb968f7ca7ec5,2026-03-17_03h37.45.259,kallum_motion_pilot_GIST_update_2,2026.1.1,Win32,59.88023952,69b306d0aabcb968f7ca7ec5,69b92ab4aef6dee357cd729a,69b92edce48e1470e1ca717f,0.0195,0.0195,0,35,35,137,1,fiveseven,,,,,,,,,,,,,,,,,,,,,,,,,,,,,,,,,,,,,,,,,,,,,,,,,,,,,,,,,,,,,,,,,,,,,,,,,,,,,,,,,,,,,,,,,,,,,,,,,,,,,,,,,,,,,,,,,,,,,,,,,,,,,,,,,,,,,,,,,
,,69b306d0aabcb968f7ca7ec5,2026-03-17_03h37.45.259,kallum_motion_pilot_GIST_update_2,2026.1.1,Win32,59.88023952,69b306d0aabcb968f7ca7ec5,69b92ab4aef6dee357cd729a,69b92edce48e1470e1ca717f,0.0196,0.0196,0,36,36,56,1,onetwo,,,,,,,,,,,,,,,,,,,,,,,,,,,,,,,,,,,,,,,,,,,,,,,,,,,,,,,,,,,,,,,,,,,,,,,,,,,,,,,,,,,,,,,,,,,,,,,,,,,,,,,,,,,,,,,,,,,,,,,,,,,,,,,,,,,,,,,,,
,,69b306d0aabcb968f7ca7ec5,2026-03-17_03h37.45.259,kallum_motion_pilot_GIST_update_2,2026.1.1,Win32,59.88023952,69b306d0aabcb968f7ca7ec5,69b92ab4aef6dee357cd729a,69b92edce48e1470e1ca717f,0.0196,0.0196,0,37,37,72,1,onetwo,,,,,,,,,,,,,,,,,,,,,,,,,,,,,,,,,,,,,,,,,,,,,,,,,,,,,,,,,,,,,,,,,,,,,,,,,,,,,,,,,,,,,,,,,,,,,,,,,,,,,,,,,,,,,,,,,,,,,,,,,,,,,,,,,,,,,,,,,
,,69b306d0aabcb968f7ca7ec5,2026-03-17_03h37.45.259,kallum_motion_pilot_GIST_update_2,2026.1.1,Win32,59.88023952,69b306d0aabcb968f7ca7ec5,69b92ab4aef6dee357cd729a,69b92edce48e1470e1ca717f,0.0197,0.0197,0,38,38,74,1,twoone,,,,,,,,,,,,,,,,,,,,,,,,,,,,,,,,,,,,,,,,,,,,,,,,,,,,,,,,,,,,,,,,,,,,,,,,,,,,,,,,,,,,,,,,,,,,,,,,,,,,,,,,,,,,,,,,,,,,,,,,,,,,,,,,,,,,,,,,,
,,69b306d0aabcb968f7ca7ec5,2026-03-17_03h37.45.259,kallum_motion_pilot_GIST_update_2,2026.1.1,Win32,59.88023952,69b306d0aabcb968f7ca7ec5,69b92ab4aef6dee357cd729a,69b92edce48e1470e1ca717f,0.0197,0.0197,0,39,39,93,1,seveneight,,,,,,,,,,,,,,,,,,,,,,,,,,,,,,,,,,,,,,,,,,,,,,,,,,,,,,,,,,,,,,,,,,,,,,,,,,,,,,,,,,,,,,,,,,,,,,,,,,,,,,,,,,,,,,,,,,,,,,,,,,,,,,,,,,,,,,,,,
,,69b306d0aabcb968f7ca7ec5,2026-03-17_03h37.45.259,kallum_motion_pilot_GIST_update_2,2026.1.1,Win32,59.88023952,69b306d0aabcb968f7ca7ec5,69b92ab4aef6dee357cd729a,69b92edce48e1470e1ca717f,0.0198,0.0198,0,40,40,31,1,fourthree,,,,,,,,,,,,,,,,,,,,,,,,,,,,,,,,,,,,,,,,,,,,,,,,,,,,,,,,,,,,,,,,,,,,,,,,,,,,,,,,,,,,,,,,,,,,,,,,,,,,,,,,,,,,,,,,,,,,,,,,,,,,,,,,,,,,,,,,,
,,69b306d0aabcb968f7ca7ec5,2026-03-17_03h37.45.259,kallum_motion_pilot_GIST_update_2,2026.1.1,Win32,59.88023952,69b306d0aabcb968f7ca7ec5,69b92ab4aef6dee357cd729a,69b92edce48e1470e1ca717f,0.0198,0.0198,0,41,41,147,1,sixeight,,,,,,,,,,,,,,,,,,,,,,,,,,,,,,,,,,,,,,,,,,,,,,,,,,,,,,,,,,,,,,,,,,,,,,,,,,,,,,,,,,,,,,,,,,,,,,,,,,,,,,,,,,,,,,,,,,,,,,,,,,,,,,,,,,,,,,,,,
,,69b306d0aabcb968f7ca7ec5,2026-03-17_03h37.45.259,kallum_motion_pilot_GIST_update_2,2026.1.1,Win32,59.88023952,69b306d0aabcb968f7ca7ec5,69b92ab4aef6dee357cd729a,69b92edce48e1470e1ca717f,0.0198,0.0198,0,42,42,107,1,sixeight,,,,,,,,,,,,,,,,,,,,,,,,,,,,,,,,,,,,,,,,,,,,,,,,,,,,,,,,,,,,,,,,,,,,,,,,,,,,,,,,,,,,,,,,,,,,,,,,,,,,,,,,,,,,,,,,,,,,,,,,,,,,,,,,,,,,,,,,,
,,69b306d0aabcb968f7ca7ec5,2026-03-17_03h37.45.259,kallum_motion_pilot_GIST_update_2,2026.1.1,Win32,59.88023952,69b306d0aabcb968f7ca7ec5,69b92ab4aef6dee357cd729a,69b92edce48e1470e1ca717f,0.02,0.02,0,43,43,65,1,onethree,,,,,,,,,,,,,,,,,,,,,,,,,,,,,,,,,,,,,,,,,,,,,,,,,,,,,,,,,,,,,,,,,,,,,,,,,,,,,,,,,,,,,,,,,,,,,,,,,,,,,,,,,,,,,,,,,,,,,,,,,,,,,,,,,,,,,,,,,
,,69b306d0aabcb968f7ca7ec5,2026-03-17_03h37.45.259,kallum_motion_pilot_GIST_update_2,2026.1.1,Win32,59.88023952,69b306d0aabcb968f7ca7ec5,69b92ab4aef6dee357cd729a,69b92edce48e1470e1ca717f,0.02,0.02,0,44,44,43,1,twofour,,,,,,,,,,,,,,,,,,,,,,,,,,,,,,,,,,,,,,,,,,,,,,,,,,,,,,,,,,,,,,,,,,,,,,,,,,,,,,,,,,,,,,,,,,,,,,,,,,,,,,,,,,,,,,,,,,,,,,,,,,,,,,,,,,,,,,,,,
,,69b306d0aabcb968f7ca7ec5,2026-03-17_03h37.45.259,kallum_motion_pilot_GIST_update_2,2026.1.1,Win32,59.88023952,69b306d0aabcb968f7ca7ec5,69b92ab4aef6dee357cd729a,69b92edce48e1470e1ca717f,0.0201,0.0201,0,45,45,134,1,eightsix,,,,,,,,,,,,,,,,,,,,,,,,,,,,,,,,,,,,,,,,,,,,,,,,,,,,,,,,,,,,,,,,,,,,,,,,,,,,,,,,,,,,,,,,,,,,,,,,,,,,,,,,,,,,,,,,,,,,,,,,,,,,,,,,,,,,,,,,,
,,69b306d0aabcb968f7ca7ec5,2026-03-17_03h37.45.259,kallum_motion_pilot_GIST_update_2,2026.1.1,Win32,59.88023952,69b306d0aabcb968f7ca7ec5,69b92ab4aef6dee357cd729a,69b92edce48e1470e1ca717f,0.0201,0.0201,0,46,46,8,1,onetwo,,,,,,,,,,,,,,,,,,,,,,,,,,,,,,,,,,,,,,,,,,,,,,,,,,,,,,,,,,,,,,,,,,,,,,,,,,,,,,,,,,,,,,,,,,,,,,,,,,,,,,,,,,,,,,,,,,,,,,,,,,,,,,,,,,,,,,,,,
,,69b306d0aabcb968f7ca7ec5,2026-03-17_03h37.45.259,kallum_motion_pilot_GIST_update_2,2026.1.1,Win32,59.88023952,69b306d0aabcb968f7ca7ec5,69b92ab4aef6dee357cd729a,69b92edce48e1470e1ca717f,0.0201,0.0201,0,47,47,111,1,eightseven,,,,,,,,,,,,,,,,,,,,,,,,,,,,,,,,,,,,,,,,,,,,,,,,,,,,,,,,,,,,,,,,,,,,,,,,,,,,,,,,,,,,,,,,,,,,,,,,,,,,,,,,,,,,,,,,,,,,,,,,,,,,,,,,,,,,,,,,,
,,69b306d0aabcb968f7ca7ec5,2026-03-17_03h37.45.259,kallum_motion_pilot_GIST_update_2,2026.1.1,Win32,59.88023952,69b306d0aabcb968f7ca7ec5,69b92ab4aef6dee357cd729a,69b92edce48e1470e1ca717f,0.0202,0.0202,0,48,48,73,1,onethree,,,,,,,,,,,,,,,,,,,,,,,,,,,,,,,,,,,,,,,,,,,,,,,,,,,,,,,,,,,,,,,,,,,,,,,,,,,,,,,,,,,,,,,,,,,,,,,,,,,,,,,,,,,,,,,,,,,,,,,,,,,,,,,,,,,,,,,,,
,,69b306d0aabcb968f7ca7ec5,2026-03-17_03h37.45.259,kallum_motion_pilot_GIST_update_2,2026.1.1,Win32,59.88023952,69b306d0aabcb968f7ca7ec5,69b92ab4aef6dee357cd729a,69b92edce48e1470e1ca717f,0.0202,0.0202,0,49,49,151,1,eightseven,,,,,,,,,,,,,,,,,,,,,,,,,,,,,,,,,,,,,,,,,,,,,,,,,,,,,,,,,,,,,,,,,,,,,,,,,,,,,,,,,,,,,,,,,,,,,,,,,,,,,,,,,,,,,,,,,,,,,,,,,,,,,,,,,,,,,,,,,
,,69b306d0aabcb968f7ca7ec5,2026-03-17_03h37.45.259,kallum_motion_pilot_GIST_update_2,2026.1.1,Win32,59.88023952,69b306d0aabcb968f7ca7ec5,69b92ab4aef6dee357cd729a,69b92edce48e1470e1ca717f,0.0203,0.0203,0,50,50,127,1,eightseven,,,,,,,,,,,,,,,,,,,,,,,,,,,,,,,,,,,,,,,,,,,,,,,,,,,,,,,,,,,,,,,,,,,,,,,,,,,,,,,,,,,,,,,,,,,,,,,,,,,,,,,,,,,,,,,,,,,,,,,,,,,,,,,,,,,,,,,,,
,,69b306d0aabcb968f7ca7ec5,2026-03-17_03h37.45.259,kallum_motion_pilot_GIST_update_2,2026.1.1,Win32,59.88023952,69b306d0aabcb968f7ca7ec5,69b92ab4aef6dee357cd729a,69b92edce48e1470e1ca717f,0.0205,0.0205,0,51,51,10,1,twoone,,,,,,,,,,,,,,,,,,,,,,,,,,,,,,,,,,,,,,,,,,,,,,,,,,,,,,,,,,,,,,,,,,,,,,,,,,,,,,,,,,,,,,,,,,,,,,,,,,,,,,,,,,,,,,,,,,,,,,,,,,,,,,,,,,,,,,,,,
,,69b306d0aabcb968f7ca7ec5,2026-03-17_03h37.45.259,kallum_motion_pilot_GIST_update_2,2026.1.1,Win32,59.88023952,69b306d0aabcb968f7ca7ec5,69b92ab4aef6dee357cd729a,69b92edce48e1470e1ca717f,0.0205,0.0205,0,52,52,39,1,fourthree,,,,,,,,,,,,,,,,,,,,,,,,,,,,,,,,,,,,,,,,,,,,,,,,,,,,,,,,,,,,,,,,,,,,,,,,,,,,,,,,,,,,,,,,,,,,,,,,,,,,,,,,,,,,,,,,,,,,,,,,,,,,,,,,,,,,,,,,,
,,69b306d0aabcb968f7ca7ec5,2026-03-17_03h37.45.259,kallum_motion_pilot_GIST_update_2,2026.1.1,Win32,59.88023952,69b306d0aabcb968f7ca7ec5,69b92ab4aef6dee357cd729a,69b92edce48e1470e1ca717f,0.0205,0.0205,0,53,53,130,1,sixfive,,,,,,,,,,,,,,,,,,,,,,,,,,,,,,,,,,,,,,,,,,,,,,,,,,,,,,,,,,,,,,,,,,,,,,,,,,,,,,,,,,,,,,,,,,,,,,,,,,,,,,,,,,,,,,,,,,,,,,,,,,,,,,,,,,,,,,,,,
,,69b306d0aabcb968f7ca7ec5,2026-03-17_03h37.45.259,kallum_motion_pilot_GIST_update_2,2026.1.1,Win32,59.88023952,69b306d0aabcb968f7ca7ec5,69b92ab4aef6dee357cd729a,69b92edce48e1470e1ca717f,0.0207,0.0207,0,54,54,66,1,twoone,,,,,,,,,,,,,,,,,,,,,,,,,,,,,,,,,,,,,,,,,,,,,,,,,,,,,,,,,,,,,,,,,,,,,,,,,,,,,,,,,,,,,,,,,,,,,,,,,,,,,,,,,,,,,,,,,,,,,,,,,,,,,,,,,,,,,,,,,
,,69b306d0aabcb968f7ca7ec5,2026-03-17_03h37.45.259,kallum_motion_pilot_GIST_update_2,2026.1.1,Win32,59.88023952,69b306d0aabcb968f7ca7ec5,69b92ab4aef6dee357cd729a,69b92edce48e1470e1ca717f,0.0207,0.0207,0,55,55,50,1,twoone,,,,,,,,,,,,,,,,,,,,,,,,,,,,,,,,,,,,,,,,,,,,,,,,,,,,,,,,,,,,,,,,,,,,,,,,,,,,,,,,,,,,,,,,,,,,,,,,,,,,,,,,,,,,,,,,,,,,,,,,,,,,,,,,,,,,,,,,,
,,69b306d0aabcb968f7ca7ec5,2026-03-17_03h37.45.259,kallum_motion_pilot_GIST_update_2,2026.1.1,Win32,59.88023952,69b306d0aabcb968f7ca7ec5,69b92ab4aef6dee357cd729a,69b92edce48e1470e1ca717f,0.0207,0.0207,0,56,56,109,1,seveneight,,,,,,,,,,,,,,,,,,,,,,,,,,,,,,,,,,,,,,,,,,,,,,,,,,,,,,,,,,,,,,,,,,,,,,,,,,,,,,,,,,,,,,,,,,,,,,,,,,,,,,,,,,,,,,,,,,,,,,,,,,,,,,,,,,,,,,,,,
,,69b306d0aabcb968f7ca7ec5,2026-03-17_03h37.45.259,kallum_motion_pilot_GIST_update_2,2026.1.1,Win32,59.88023952,69b306d0aabcb968f7ca7ec5,69b92ab4aef6dee357cd729a,69b92edce48e1470e1ca717f,0.0208,0.0208,0,57,57,17,1,onethree,,,,,,,,,,,,,,,,,,,,,,,,,,,,,,,,,,,,,,,,,,,,,,,,,,,,,,,,,,,,,,,,,,,,,,,,,,,,,,,,,,,,,,,,,,,,,,,,,,,,,,,,,,,,,,,,,,,,,,,,,,,,,,,,,,,,,,,,,
,,69b306d0aabcb968f7ca7ec5,2026-03-17_03h37.45.259,kallum_motion_pilot_GIST_update_2,2026.1.1,Win32,59.88023952,69b306d0aabcb968f7ca7ec5,69b92ab4aef6dee357cd729a,69b92edce48e1470e1ca717f,0.0209,0.0209,0,58,58,143,1,eightseven,,,,,,,,,,,,,,,,,,,,,,,,,,,,,,,,,,,,,,,,,,,,,,,,,,,,,,,,,,,,,,,,,,,,,,,,,,,,,,,,,,,,,,,,,,,,,,,,,,,,,,,,,,,,,,,,,,,,,,,,,,,,,,,,,,,,,,,,,
,,69b306d0aabcb968f7ca7ec5,2026-03-17_03h37.45.259,kallum_motion_pilot_GIST_update_2,2026.1.1,Win32,59.88023952,69b306d0aabcb968f7ca7ec5,69b92ab4aef6dee357cd729a,69b92edce48e1470e1ca717f,0.0209,0.0209,0,59,59,46,1,fourtwo,,,,,,,,,,,,,,,,,,,,,,,,,,,,,,,,,,,,,,,,,,,,,,,,,,,,,,,,,,,,,,,,,,,,,,,,,,,,,,,,,,,,,,,,,,,,,,,,,,,,,,,,,,,,,,,,,,,,,,,,,,,,,,,,,,,,,,,,,
,,69b306d0aabcb968f7ca7ec5,2026-03-17_03h37.45.259,kallum_motion_pilot_GIST_update_2,2026.1.1,Win32,59.88023952,69b306d0aabcb968f7ca7ec5,69b92ab4aef6dee357cd729a,69b92edce48e1470e1ca717f,0.021,0.021,0,60,60,159,1,eightseven,,,,,,,,,,,,,,,,,,,,,,,,,,,,,,,,,,,,,,,,,,,,,,,,,,,,,,,,,,,,,,,,,,,,,,,,,,,,,,,,,,,,,,,,,,,,,,,,,,,,,,,,,,,,,,,,,,,,,,,,,,,,,,,,,,,,,,,,,
,,69b306d0aabcb968f7ca7ec5,2026-03-17_03h37.45.259,kallum_motion_pilot_GIST_update_2,2026.1.1,Win32,59.88023952,69b306d0aabcb968f7ca7ec5,69b92ab4aef6dee357cd729a,69b92edce48e1470e1ca717f,0.021,0.021,0,61,61,95,1,eightseven,,,,,,,,,,,,,,,,,,,,,,,,,,,,,,,,,,,,,,,,,,,,,,,,,,,,,,,,,,,,,,,,,,,,,,,,,,,,,,,,,,,,,,,,,,,,,,,,,,,,,,,,,,,,,,,,,,,,,,,,,,,,,,,,,,,,,,,,,
,,69b306d0aabcb968f7ca7ec5,2026-03-17_03h37.45.259,kallum_motion_pilot_GIST_update_2,2026.1.1,Win32,59.88023952,69b306d0aabcb968f7ca7ec5,69b92ab4aef6dee357cd729a,69b92edce48e1470e1ca717f,0.0211,0.0211,0,62,62,53,1,threefour,,,,,,,,,,,,,,,,,,,,,,,,,,,,,,,,,,,,,,,,,,,,,,,,,,,,,,,,,,,,,,,,,,,,,,,,,,,,,,,,,,,,,,,,,,,,,,,,,,,,,,,,,,,,,,,,,,,,,,,,,,,,,,,,,,,,,,,,,
,,69b306d0aabcb968f7ca7ec5,2026-03-17_03h37.45.259,kallum_motion_pilot_GIST_update_2,2026.1.1,Win32,59.88023952,69b306d0aabcb968f7ca7ec5,69b92ab4aef6dee357cd729a,69b92edce48e1470e1ca717f,0.0212,0.0212,0,63,63,33,1,onethree,,,,,,,,,,,,,,,,,,,,,,,,,,,,,,,,,,,,,,,,,,,,,,,,,,,,,,,,,,,,,,,,,,,,,,,,,,,,,,,,,,,,,,,,,,,,,,,,,,,,,,,,,,,,,,,,,,,,,,,,,,,,,,,,,,,,,,,,,
,,69b306d0aabcb968f7ca7ec5,2026-03-17_03h37.45.259,kallum_motion_pilot_GIST_update_2,2026.1.1,Win32,59.88023952,69b306d0aabcb968f7ca7ec5,69b92ab4aef6dee357cd729a,69b92edce48e1470e1ca717f,0.0213,0.0213,0,64,64,98,1,sixfive,,,,,,,,,,,,,,,,,,,,,,,,,,,,,,,,,,,,,,,,,,,,,,,,,,,,,,,,,,,,,,,,,,,,,,,,,,,,,,,,,,,,,,,,,,,,,,,,,,,,,,,,,,,,,,,,,,,,,,,,,,,,,,,,,,,,,,,,,
,,69b306d0aabcb968f7ca7ec5,2026-03-17_03h37.45.259,kallum_motion_pilot_GIST_update_2,2026.1.1,Win32,59.88023952,69b306d0aabcb968f7ca7ec5,69b92ab4aef6dee357cd729a,69b92edce48e1470e1ca717f,0.0213,0.0213,0,65,65,55,1,fourthree,,,,,,,,,,,,,,,,,,,,,,,,,,,,,,,,,,,,,,,,,,,,,,,,,,,,,,,,,,,,,,,,,,,,,,,,,,,,,,,,,,,,,,,,,,,,,,,,,,,,,,,,,,,,,,,,,,,,,,,,,,,,,,,,,,,,,,,,,
,,69b306d0aabcb968f7ca7ec5,2026-03-17_03h37.45.259,kallum_motion_pilot_GIST_update_2,2026.1.1,Win32,59.88023952,69b306d0aabcb968f7ca7ec5,69b92ab4aef6dee357cd729a,69b92edce48e1470e1ca717f,0.0214,0.0214,0,66,66,160,1,fivesix,,,,,,,,,,,,,,,,,,,,,,,,,,,,,,,,,,,,,,,,,,,,,,,,,,,,,,,,,,,,,,,,,,,,,,,,,,,,,,,,,,,,,,,,,,,,,,,,,,,,,,,,,,,,,,,,,,,,,,,,,,,,,,,,,,,,,,,,,
,,69b306d0aabcb968f7ca7ec5,2026-03-17_03h37.45.259,kallum_motion_pilot_GIST_update_2,2026.1.1,Win32,59.88023952,69b306d0aabcb968f7ca7ec5,69b92ab4aef6dee357cd729a,69b92edce48e1470e1ca717f,0.0215,0.0216,0,67,67,0,1,onetwo,,,,,,,,,,,,,,,,,,,,,,,,,,,,,,,,,,,,,,,,,,,,,,,,,,,,,,,,,,,,,,,,,,,,,,,,,,,,,,,,,,,,,,,,,,,,,,,,,,,,,,,,,,,,,,,,,,,,,,,,,,,,,,,,,,,,,,,,,
,,69b306d0aabcb968f7ca7ec5,2026-03-17_03h37.45.259,kallum_motion_pilot_GIST_update_2,2026.1.1,Win32,59.88023952,69b306d0aabcb968f7ca7ec5,69b92ab4aef6dee357cd729a,69b92edce48e1470e1ca717f,0.0217,0.0217,0,68,68,71,1,fourthree,,,,,,,,,,,,,,,,,,,,,,,,,,,,,,,,,,,,,,,,,,,,,,,,,,,,,,,,,,,,,,,,,,,,,,,,,,,,,,,,,,,,,,,,,,,,,,,,,,,,,,,,,,,,,,,,,,,,,,,,,,,,,,,,,,,,,,,,,
,,69b306d0aabcb968f7ca7ec5,2026-03-17_03h37.45.259,kallum_motion_pilot_GIST_update_2,2026.1.1,Win32,59.88023952,69b306d0aabcb968f7ca7ec5,69b92ab4aef6dee357cd729a,69b92edce48e1470e1ca717f,0.0218,0.0218,0,69,69,82,1,sixfive,,,,,,,,,,,,,,,,,,,,,,,,,,,,,,,,,,,,,,,,,,,,,,,,,,,,,,,,,,,,,,,,,,,,,,,,,,,,,,,,,,,,,,,,,,,,,,,,,,,,,,,,,,,,,,,,,,,,,,,,,,,,,,,,,,,,,,,,,
,,69b306d0aabcb968f7ca7ec5,2026-03-17_03h37.45.259,kallum_motion_pilot_GIST_update_2,2026.1.1,Win32,59.88023952,69b306d0aabcb968f7ca7ec5,69b92ab4aef6dee357cd729a,69b92edce48e1470e1ca717f,0.0219,0.0219,0,70,70,21,1,threefour,,,,,,,,,,,,,,,,,,,,,,,,,,,,,,,,,,,,,,,,,,,,,,,,,,,,,,,,,,,,,,,,,,,,,,,,,,,,,,,,,,,,,,,,,,,,,,,,,,,,,,,,,,,,,,,,,,,,,,,,,,,,,,,,,,,,,,,,,
,,69b306d0aabcb968f7ca7ec5,2026-03-17_03h37.45.259,kallum_motion_pilot_GIST_update_2,2026.1.1,Win32,59.88023952,69b306d0aabcb968f7ca7ec5,69b92ab4aef6dee357cd729a,69b92edce48e1470e1ca717f,0.022,0.022,0,71,71,27,1,twofour,,,,,,,,,,,,,,,,,,,,,,,,,,,,,,,,,,,,,,,,,,,,,,,,,,,,,,,,,,,,,,,,,,,,,,,,,,,,,,,,,,,,,,,,,,,,,,,,,,,,,,,,,,,,,,,,,,,,,,,,,,,,,,,,,,,,,,,,,
,,69b306d0aabcb968f7ca7ec5,2026-03-17_03h37.45.259,kallum_motion_pilot_GIST_update_2,2026.1.1,Win32,59.88023952,69b306d0aabcb968f7ca7ec5,69b92ab4aef6dee357cd729a,69b92edce48e1470e1ca717f,0.0221,0.0221,0,72,72,45,1,threefour,,,,,,,,,,,,,,,,,,,,,,,,,,,,,,,,,,,,,,,,,,,,,,,,,,,,,,,,,,,,,,,,,,,,,,,,,,,,,,,,,,,,,,,,,,,,,,,,,,,,,,,,,,,,,,,,,,,,,,,,,,,,,,,,,,,,,,,,,
,,69b306d0aabcb968f7ca7ec5,2026-03-17_03h37.45.259,kallum_motion_pilot_GIST_update_2,2026.1.1,Win32,59.88023952,69b306d0aabcb968f7ca7ec5,69b92ab4aef6dee357cd729a,69b92edce48e1470e1ca717f,0.0221,0.0221,0,73,73,68,1,threeone,,,,,,,,,,,,,,,,,,,,,,,,,,,,,,,,,,,,,,,,,,,,,,,,,,,,,,,,,,,,,,,,,,,,,,,,,,,,,,,,,,,,,,,,,,,,,,,,,,,,,,,,,,,,,,,,,,,,,,,,,,,,,,,,,,,,,,,,,
,,69b306d0aabcb968f7ca7ec5,2026-03-17_03h37.45.259,kallum_motion_pilot_GIST_update_2,2026.1.1,Win32,59.88023952,69b306d0aabcb968f7ca7ec5,69b92ab4aef6dee357cd729a,69b92edce48e1470e1ca717f,0.0222,0.0222,0,74,74,4,1,threeone,,,,,,,,,,,,,,,,,,,,,,,,,,,,,,,,,,,,,,,,,,,,,,,,,,,,,,,,,,,,,,,,,,,,,,,,,,,,,,,,,,,,,,,,,,,,,,,,,,,,,,,,,,,,,,,,,,,,,,,,,,,,,,,,,,,,,,,,,
,,69b306d0aabcb968f7ca7ec5,2026-03-17_03h37.45.259,kallum_motion_pilot_GIST_update_2,2026.1.1,Win32,59.88023952,69b306d0aabcb968f7ca7ec5,69b92ab4aef6dee357cd729a,69b92edce48e1470e1ca717f,0.0222,0.0222,0,75,75,118,1,eightsix,,,,,,,,,,,,,,,,,,,,,,,,,,,,,,,,,,,,,,,,,,,,,,,,,,,,,,,,,,,,,,,,,,,,,,,,,,,,,,,,,,,,,,,,,,,,,,,,,,,,,,,,,,,,,,,,,,,,,,,,,,,,,,,,,,,,,,,,,
,,69b306d0aabcb968f7ca7ec5,2026-03-17_03h37.45.259,kallum_motion_pilot_GIST_update_2,2026.1.1,Win32,59.88023952,69b306d0aabcb968f7ca7ec5,69b92ab4aef6dee357cd729a,69b92edce48e1470e1ca717f,0.0222,0.0223,0,76,76,104,1,fivesix,,,,,,,,,,,,,,,,,,,,,,,,,,,,,,,,,,,,,,,,,,,,,,,,,,,,,,,,,,,,,,,,,,,,,,,,,,,,,,,,,,,,,,,,,,,,,,,,,,,,,,,,,,,,,,,,,,,,,,,,,,,,,,,,,,,,,,,,,
,,69b306d0aabcb968f7ca7ec5,2026-03-17_03h37.45.259,kallum_motion_pilot_GIST_update_2,2026.1.1,Win32,59.88023952,69b306d0aabcb968f7ca7ec5,69b92ab4aef6dee357cd729a,69b92edce48e1470e1ca717f,0.0224,0.0224,0,77,77,22,1,fourtwo,,,,,,,,,,,,,,,,,,,,,,,,,,,,,,,,,,,,,,,,,,,,,,,,,,,,,,,,,,,,,,,,,,,,,,,,,,,,,,,,,,,,,,,,,,,,,,,,,,,,,,,,,,,,,,,,,,,,,,,,,,,,,,,,,,,,,,,,,
,,69b306d0aabcb968f7ca7ec5,2026-03-17_03h37.45.259,kallum_motion_pilot_GIST_update_2,2026.1.1,Win32,59.88023952,69b306d0aabcb968f7ca7ec5,69b92ab4aef6dee357cd729a,69b92edce48e1470e1ca717f,0.0224,0.0224,0,78,78,63,1,fourthree,,,,,,,,,,,,,,,,,,,,,,,,,,,,,,,,,,,,,,,,,,,,,,,,,,,,,,,,,,,,,,,,,,,,,,,,,,,,,,,,,,,,,,,,,,,,,,,,,,,,,,,,,,,,,,,,,,,,,,,,,,,,,,,,,,,,,,,,,
,,69b306d0aabcb968f7ca7ec5,2026-03-17_03h37.45.259,kallum_motion_pilot_GIST_update_2,2026.1.1,Win32,59.88023952,69b306d0aabcb968f7ca7ec5,69b92ab4aef6dee357cd729a,69b92edce48e1470e1ca717f,0.0225,0.0225,0,79,79,152,1,fivesix,,,,,,,,,,,,,,,,,,,,,,,,,,,,,,,,,,,,,,,,,,,,,,,,,,,,,,,,,,,,,,,,,,,,,,,,,,,,,,,,,,,,,,,,,,,,,,,,,,,,,,,,,,,,,,,,,,,,,,,,,,,,,,,,,,,,,,,,,
,,69b306d0aabcb968f7ca7ec5,2026-03-17_03h37.45.259,kallum_motion_pilot_GIST_update_2,2026.1.1,Win32,59.88023952,69b306d0aabcb968f7ca7ec5,69b92ab4aef6dee357cd729a,69b92edce48e1470e1ca717f,0.0226,0.0226,0,80,80,115,1,sixeight,,,,,,,,,,,,,,,,,,,,,,,,,,,,,,,,,,,,,,,,,,,,,,,,,,,,,,,,,,,,,,,,,,,,,,,,,,,,,,,,,,,,,,,,,,,,,,,,,,,,,,,,,,,,,,,,,,,,,,,,,,,,,,,,,,,,,,,,,
,,69b306d0aabcb968f7ca7ec5,2026-03-17_03h37.45.259,kallum_motion_pilot_GIST_update_2,2026.1.1,Win32,59.88023952,69b306d0aabcb968f7ca7ec5,69b92ab4aef6dee357cd729a,69b92edce48e1470e1ca717f,0.0227,0.0227,0,81,81,156,1,sevenfive,,,,,,,,,,,,,,,,,,,,,,,,,,,,,,,,,,,,,,,,,,,,,,,,,,,,,,,,,,,,,,,,,,,,,,,,,,,,,,,,,,,,,,,,,,,,,,,,,,,,,,,,,,,,,,,,,,,,,,,,,,,,,,,,,,,,,,,,,
,,69b306d0aabcb968f7ca7ec5,2026-03-17_03h37.45.259,kallum_motion_pilot_GIST_update_2,2026.1.1,Win32,59.88023952,69b306d0aabcb968f7ca7ec5,69b92ab4aef6dee357cd729a,69b92edce48e1470e1ca717f,0.0227,0.0227,0,82,82,26,1,twoone,,,,,,,,,,,,,,,,,,,,,,,,,,,,,,,,,,,,,,,,,,,,,,,,,,,,,,,,,,,,,,,,,,,,,,,,,,,,,,,,,,,,,,,,,,,,,,,,,,,,,,,,,,,,,,,,,,,,,,,,,,,,,,,,,,,,,,,,,
,,69b306d0aabcb968f7ca7ec5,2026-03-17_03h37.45.259,kallum_motion_pilot_GIST_update_2,2026.1.1,Win32,59.88023952,69b306d0aabcb968f7ca7ec5,69b92ab4aef6dee357cd729a,69b92edce48e1470e1ca717f,0.0228,0.0228,0,83,83,102,1,eightsix,,,,,,,,,,,,,,,,,,,,,,,,,,,,,,,,,,,,,,,,,,,,,,,,,,,,,,,,,,,,,,,,,,,,,,,,,,,,,,,,,,,,,,,,,,,,,,,,,,,,,,,,,,,,,,,,,,,,,,,,,,,,,,,,,,,,,,,,,
,,69b306d0aabcb968f7ca7ec5,2026-03-17_03h37.45.259,kallum_motion_pilot_GIST_update_2,2026.1.1,Win32,59.88023952,69b306d0aabcb968f7ca7ec5,69b92ab4aef6dee357cd729a,69b92edce48e1470e1ca717f,0.0229,0.0229,0,84,84,89,1,fiveseven,,,,,,,,,,,,,,,,,,,,,,,,,,,,,,,,,,,,,,,,,,,,,,,,,,,,,,,,,,,,,,,,,,,,,,,,,,,,,,,,,,,,,,,,,,,,,,,,,,,,,,,,,,,,,,,,,,,,,,,,,,,,,,,,,,,,,,,,,
,,69b306d0aabcb968f7ca7ec5,2026-03-17_03h37.45.259,kallum_motion_pilot_GIST_update_2,2026.1.1,Win32,59.88023952,69b306d0aabcb968f7ca7ec5,69b92ab4aef6dee357cd729a,69b92edce48e1470e1ca717f,0.0229,0.0229,0,85,85,157,1,seveneight,,,,,,,,,,,,,,,,,,,,,,,,,,,,,,,,,,,,,,,,,,,,,,,,,,,,,,,,,,,,,,,,,,,,,,,,,,,,,,,,,,,,,,,,,,,,,,,,,,,,,,,,,,,,,,,,,,,,,,,,,,,,,,,,,,,,,,,,,
,,69b306d0aabcb968f7ca7ec5,2026-03-17_03h37.45.259,kallum_motion_pilot_GIST_update_2,2026.1.1,Win32,59.88023952,69b306d0aabcb968f7ca7ec5,69b92ab4aef6dee357cd729a,69b92edce48e1470e1ca717f,0.023,0.023,0,86,86,42,1,twoone,,,,,,,,,,,,,,,,,,,,,,,,,,,,,,,,,,,,,,,,,,,,,,,,,,,,,,,,,,,,,,,,,,,,,,,,,,,,,,,,,,,,,,,,,,,,,,,,,,,,,,,,,,,,,,,,,,,,,,,,,,,,,,,,,,,,,,,,,
,,69b306d0aabcb968f7ca7ec5,2026-03-17_03h37.45.259,kallum_motion_pilot_GIST_update_2,2026.1.1,Win32,59.88023952,69b306d0aabcb968f7ca7ec5,69b92ab4aef6dee357cd729a,69b92edce48e1470e1ca717f,0.0231,0.0231,0,87,87,106,1,sixfive,,,,,,,,,,,,,,,,,,,,,,,,,,,,,,,,,,,,,,,,,,,,,,,,,,,,,,,,,,,,,,,,,,,,,,,,,,,,,,,,,,,,,,,,,,,,,,,,,,,,,,,,,,,,,,,,,,,,,,,,,,,,,,,,,,,,,,,,,
,,69b306d0aabcb968f7ca7ec5,2026-03-17_03h37.45.259,kallum_motion_pilot_GIST_update_2,2026.1.1,Win32,59.88023952,69b306d0aabcb968f7ca7ec5,69b92ab4aef6dee357cd729a,69b92edce48e1470e1ca717f,0.0231,0.0231,0,88,88,121,1,fiveseven,,,,,,,,,,,,,,,,,,,,,,,,,,,,,,,,,,,,,,,,,,,,,,,,,,,,,,,,,,,,,,,,,,,,,,,,,,,,,,,,,,,,,,,,,,,,,,,,,,,,,,,,,,,,,,,,,,,,,,,,,,,,,,,,,,,,,,,,,
,,69b306d0aabcb968f7ca7ec5,2026-03-17_03h37.45.259,kallum_motion_pilot_GIST_update_2,2026.1.1,Win32,59.88023952,69b306d0aabcb968f7ca7ec5,69b92ab4aef6dee357cd729a,69b92edce48e1470e1ca717f,0.0232,0.0232,0,89,89,64,1,onetwo,,,,,,,,,,,,,,,,,,,,,,,,,,,,,,,,,,,,,,,,,,,,,,,,,,,,,,,,,,,,,,,,,,,,,,,,,,,,,,,,,,,,,,,,,,,,,,,,,,,,,,,,,,,,,,,,,,,,,,,,,,,,,,,,,,,,,,,,,
,,69b306d0aabcb968f7ca7ec5,2026-03-17_03h37.45.259,kallum_motion_pilot_GIST_update_2,2026.1.1,Win32,59.88023952,69b306d0aabcb968f7ca7ec5,69b92ab4aef6dee357cd729a,69b92edce48e1470e1ca717f,0.0233,0.0233,0,90,90,114,1,sixfive,,,,,,,,,,,,,,,,,,,,,,,,,,,,,,,,,,,,,,,,,,,,,,,,,,,,,,,,,,,,,,,,,,,,,,,,,,,,,,,,,,,,,,,,,,,,,,,,,,,,,,,,,,,,,,,,,,,,,,,,,,,,,,,,,,,,,,,,,
,,69b306d0aabcb968f7ca7ec5,2026-03-17_03h37.45.259,kallum_motion_pilot_GIST_update_2,2026.1.1,Win32,59.88023952,69b306d0aabcb968f7ca7ec5,69b92ab4aef6dee357cd729a,69b92edce48e1470e1ca717f,0.0233,0.0233,0,91,91,11,1,twofour,,,,,,,,,,,,,,,,,,,,,,,,,,,,,,,,,,,,,,,,,,,,,,,,,,,,,,,,,,,,,,,,,,,,,,,,,,,,,,,,,,,,,,,,,,,,,,,,,,,,,,,,,,,,,,,,,,,,,,,,,,,,,,,,,,,,,,,,,
,,69b306d0aabcb968f7ca7ec5,2026-03-17_03h37.45.259,kallum_motion_pilot_GIST_update_2,2026.1.1,Win32,59.88023952,69b306d0aabcb968f7ca7ec5,69b92ab4aef6dee357cd729a,69b92edce48e1470e1ca717f,0.0233,0.0233,0,92,92,90,1,sixfive,,,,,,,,,,,,,,,,,,,,,,,,,,,,,,,,,,,,,,,,,,,,,,,,,,,,,,,,,,,,,,,,,,,,,,,,,,,,,,,,,,,,,,,,,,,,,,,,,,,,,,,,,,,,,,,,,,,,,,,,,,,,,,,,,,,,,,,,,
,,69b306d0aabcb968f7ca7ec5,2026-03-17_03h37.45.259,kallum_motion_pilot_GIST_update_2,2026.1.1,Win32,59.88023952,69b306d0aabcb968f7ca7ec5,69b92ab4aef6dee357cd729a,69b92edce48e1470e1ca717f,0.0235,0.0235,0,93,93,58,1,twoone,,,,,,,,,,,,,,,,,,,,,,,,,,,,,,,,,,,,,,,,,,,,,,,,,,,,,,,,,,,,,,,,,,,,,,,,,,,,,,,,,,,,,,,,,,,,,,,,,,,,,,,,,,,,,,,,,,,,,,,,,,,,,,,,,,,,,,,,,
,,69b306d0aabcb968f7ca7ec5,2026-03-17_03h37.45.259,kallum_motion_pilot_GIST_update_2,2026.1.1,Win32,59.88023952,69b306d0aabcb968f7ca7ec5,69b92ab4aef6dee357cd729a,69b92edce48e1470e1ca717f,0.0235,0.0235,0,94,94,142,1,eightsix,,,,,,,,,,,,,,,,,,,,,,,,,,,,,,,,,,,,,,,,,,,,,,,,,,,,,,,,,,,,,,,,,,,,,,,,,,,,,,,,,,,,,,,,,,,,,,,,,,,,,,,,,,,,,,,,,,,,,,,,,,,,,,,,,,,,,,,,,
,,69b306d0aabcb968f7ca7ec5,2026-03-17_03h37.45.259,kallum_motion_pilot_GIST_update_2,2026.1.1,Win32,59.88023952,69b306d0aabcb968f7ca7ec5,69b92ab4aef6dee357cd729a,69b92edce48e1470e1ca717f,0.0236,0.0236,0,95,95,91,1,sixeight,,,,,,,,,,,,,,,,,,,,,,,,,,,,,,,,,,,,,,,,,,,,,,,,,,,,,,,,,,,,,,,,,,,,,,,,,,,,,,,,,,,,,,,,,,,,,,,,,,,,,,,,,,,,,,,,,,,,,,,,,,,,,,,,,,,,,,,,,
,,69b306d0aabcb968f7ca7ec5,2026-03-17_03h37.45.259,kallum_motion_pilot_GIST_update_2,2026.1.1,Win32,59.88023952,69b306d0aabcb968f7ca7ec5,69b92ab4aef6dee357cd729a,69b92edce48e1470e1ca717f,0.0236,0.0236,0,96,96,161,1,fiveseven,,,,,,,,,,,,,,,,,,,,,,,,,,,,,,,,,,,,,,,,,,,,,,,,,,,,,,,,,,,,,,,,,,,,,,,,,,,,,,,,,,,,,,,,,,,,,,,,,,,,,,,,,,,,,,,,,,,,,,,,,,,,,,,,,,,,,,,,,
,,69b306d0aabcb968f7ca7ec5,2026-03-17_03h37.45.259,kallum_motion_pilot_GIST_update_2,2026.1.1,Win32,59.88023952,69b306d0aabcb968f7ca7ec5,69b92ab4aef6dee357cd729a,69b92edce48e1470e1ca717f,0.0237,0.0237,0,97,97,148,1,sevenfive,,,,,,,,,,,,,,,,,,,,,,,,,,,,,,,,,,,,,,,,,,,,,,,,,,,,,,,,,,,,,,,,,,,,,,,,,,,,,,,,,,,,,,,,,,,,,,,,,,,,,,,,,,,,,,,,,,,,,,,,,,,,,,,,,,,,,,,,,
,,69b306d0aabcb968f7ca7ec5,2026-03-17_03h37.45.259,kallum_motion_pilot_GIST_update_2,2026.1.1,Win32,59.88023952,69b306d0aabcb968f7ca7ec5,69b92ab4aef6dee357cd729a,69b92edce48e1470e1ca717f,0.0238,0.0238,0,98,98,62,1,fourtwo,,,,,,,,,,,,,,,,,,,,,,,,,,,,,,,,,,,,,,,,,,,,,,,,,,,,,,,,,,,,,,,,,,,,,,,,,,,,,,,,,,,,,,,,,,,,,,,,,,,,,,,,,,,,,,,,,,,,,,,,,,,,,,,,,,,,,,,,,
,,69b306d0aabcb968f7ca7ec5,2026-03-17_03h37.45.259,kallum_motion_pilot_GIST_update_2,2026.1.1,Win32,59.88023952,69b306d0aabcb968f7ca7ec5,69b92ab4aef6dee357cd729a,69b92edce48e1470e1ca717f,0.0238,0.0238,0,99,99,51,1,twofour,,,,,,,,,,,,,,,,,,,,,,,,,,,,,,,,,,,,,,,,,,,,,,,,,,,,,,,,,,,,,,,,,,,,,,,,,,,,,,,,,,,,,,,,,,,,,,,,,,,,,,,,,,,,,,,,,,,,,,,,,,,,,,,,,,,,,,,,,
,,69b306d0aabcb968f7ca7ec5,2026-03-17_03h37.45.259,kallum_motion_pilot_GIST_update_2,2026.1.1,Win32,59.88023952,69b306d0aabcb968f7ca7ec5,69b92ab4aef6dee357cd729a,69b92edce48e1470e1ca717f,0.0245,0.0245,0,100,100,12,1,threeone,,,,,,,,,,,,,,,,,,,,,,,,,,,,,,,,,,,,,,,,,,,,,,,,,,,,,,,,,,,,,,,,,,,,,,,,,,,,,,,,,,,,,,,,,,,,,,,,,,,,,,,,,,,,,,,,,,,,,,,,,,,,,,,,,,,,,,,,,
,,69b306d0aabcb968f7ca7ec5,2026-03-17_03h37.45.259,kallum_motion_pilot_GIST_update_2,2026.1.1,Win32,59.88023952,69b306d0aabcb968f7ca7ec5,69b92ab4aef6dee357cd729a,69b92edce48e1470e1ca717f,0.0246,0.0246,0,101,101,34,1,twoone,,,,,,,,,,,,,,,,,,,,,,,,,,,,,,,,,,,,,,,,,,,,,,,,,,,,,,,,,,,,,,,,,,,,,,,,,,,,,,,,,,,,,,,,,,,,,,,,,,,,,,,,,,,,,,,,,,,,,,,,,,,,,,,,,,,,,,,,,
,,69b306d0aabcb968f7ca7ec5,2026-03-17_03h37.45.259,kallum_motion_pilot_GIST_update_2,2026.1.1,Win32,59.88023952,69b306d0aabcb968f7ca7ec5,69b92ab4aef6dee357cd729a,69b92edce48e1470e1ca717f,0.0247,0.0247,0,102,102,59,1,twofour,,,,,,,,,,,,,,,,,,,,,,,,,,,,,,,,,,,,,,,,,,,,,,,,,,,,,,,,,,,,,,,,,,,,,,,,,,,,,,,,,,,,,,,,,,,,,,,,,,,,,,,,,,,,,,,,,,,,,,,,,,,,,,,,,,,,,,,,,
,,69b306d0aabcb968f7ca7ec5,2026-03-17_03h37.45.259,kallum_motion_pilot_GIST_update_2,2026.1.1,Win32,59.88023952,69b306d0aabcb968f7ca7ec5,69b92ab4aef6dee357cd729a,69b92edce48e1470e1ca717f,0.0247,0.0247,0,103,103,3,1,twofour,,,,,,,,,,,,,,,,,,,,,,,,,,,,,,,,,,,,,,,,,,,,,,,,,,,,,,,,,,,,,,,,,,,,,,,,,,,,,,,,,,,,,,,,,,,,,,,,,,,,,,,,,,,,,,,,,,,,,,,,,,,,,,,,,,,,,,,,,
,,69b306d0aabcb968f7ca7ec5,2026-03-17_03h37.45.259,kallum_motion_pilot_GIST_update_2,2026.1.1,Win32,59.88023952,69b306d0aabcb968f7ca7ec5,69b92ab4aef6dee357cd729a,69b92edce48e1470e1ca717f,0.0249,0.0249,0,104,104,23,1,fourthree,,,,,,,,,,,,,,,,,,,,,,,,,,,,,,,,,,,,,,,,,,,,,,,,,,,,,,,,,,,,,,,,,,,,,,,,,,,,,,,,,,,,,,,,,,,,,,,,,,,,,,,,,,,,,,,,,,,,,,,,,,,,,,,,,,,,,,,,,
,,69b306d0aabcb968f7ca7ec5,2026-03-17_03h37.45.259,kallum_motion_pilot_GIST_update_2,2026.1.1,Win32,59.88023952,69b306d0aabcb968f7ca7ec5,69b92ab4aef6dee357cd729a,69b92edce48e1470e1ca717f,0.0249,0.0249,0,105,105,123,1,sixeight,,,,,,,,,,,,,,,,,,,,,,,,,,,,,,,,,,,,,,,,,,,,,,,,,,,,,,,,,,,,,,,,,,,,,,,,,,,,,,,,,,,,,,,,,,,,,,,,,,,,,,,,,,,,,,,,,,,,,,,,,,,,,,,,,,,,,,,,,
,,69b306d0aabcb968f7ca7ec5,2026-03-17_03h37.45.259,kallum_motion_pilot_GIST_update_2,2026.1.1,Win32,59.88023952,69b306d0aabcb968f7ca7ec5,69b92ab4aef6dee357cd729a,69b92edce48e1470e1ca717f,0.0249,0.0249,0,106,106,94,1,eightsix,,,,,,,,,,,,,,,,,,,,,,,,,,,,,,,,,,,,,,,,,,,,,,,,,,,,,,,,,,,,,,,,,,,,,,,,,,,,,,,,,,,,,,,,,,,,,,,,,,,,,,,,,,,,,,,,,,,,,,,,,,,,,,,,,,,,,,,,,
,,69b306d0aabcb968f7ca7ec5,2026-03-17_03h37.45.259,kallum_motion_pilot_GIST_update_2,2026.1.1,Win32,59.88023952,69b306d0aabcb968f7ca7ec5,69b92ab4aef6dee357cd729a,69b92edce48e1470e1ca717f,0.025,0.025,0,107,107,32,1,onetwo,,,,,,,,,,,,,,,,,,,,,,,,,,,,,,,,,,,,,,,,,,,,,,,,,,,,,,,,,,,,,,,,,,,,,,,,,,,,,,,,,,,,,,,,,,,,,,,,,,,,,,,,,,,,,,,,,,,,,,,,,,,,,,,,,,,,,,,,,
,,69b306d0aabcb968f7ca7ec5,2026-03-17_03h37.45.259,kallum_motion_pilot_GIST_update_2,2026.1.1,Win32,59.88023952,69b306d0aabcb968f7ca7ec5,69b92ab4aef6dee357cd729a,69b92edce48e1470e1ca717f,0.0251,0.0251,0,108,108,67,1,twofour,,,,,,,,,,,,,,,,,,,,,,,,,,,,,,,,,,,,,,,,,,,,,,,,,,,,,,,,,,,,,,,,,,,,,,,,,,,,,,,,,,,,,,,,,,,,,,,,,,,,,,,,,,,,,,,,,,,,,,,,,,,,,,,,,,,,,,,,,
,,69b306d0aabcb968f7ca7ec5,2026-03-17_03h37.45.259,kallum_motion_pilot_GIST_update_2,2026.1.1,Win32,59.88023952,69b306d0aabcb968f7ca7ec5,69b92ab4aef6dee357cd729a,69b92edce48e1470e1ca717f,0.0252,0.0252,0,109,109,145,1,fiveseven,,,,,,,,,,,,,,,,,,,,,,,,,,,,,,,,,,,,,,,,,,,,,,,,,,,,,,,,,,,,,,,,,,,,,,,,,,,,,,,,,,,,,,,,,,,,,,,,,,,,,,,,,,,,,,,,,,,,,,,,,,,,,,,,,,,,,,,,,
,,69b306d0aabcb968f7ca7ec5,2026-03-17_03h37.45.259,kallum_motion_pilot_GIST_update_2,2026.1.1,Win32,59.88023952,69b306d0aabcb968f7ca7ec5,69b92ab4aef6dee357cd729a,69b92edce48e1470e1ca717f,0.0253,0.0253,0,110,110,38,1,fourtwo,,,,,,,,,,,,,,,,,,,,,,,,,,,,,,,,,,,,,,,,,,,,,,,,,,,,,,,,,,,,,,,,,,,,,,,,,,,,,,,,,,,,,,,,,,,,,,,,,,,,,,,,,,,,,,,,,,,,,,,,,,,,,,,,,,,,,,,,,
,,69b306d0aabcb968f7ca7ec5,2026-03-17_03h37.45.259,kallum_motion_pilot_GIST_update_2,2026.1.1,Win32,59.88023952,69b306d0aabcb968f7ca7ec5,69b92ab4aef6dee357cd729a,69b92edce48e1470e1ca717f,0.0253,0.0253,0,111,111,136,1,fivesix,,,,,,,,,,,,,,,,,,,,,,,,,,,,,,,,,,,,,,,,,,,,,,,,,,,,,,,,,,,,,,,,,,,,,,,,,,,,,,,,,,,,,,,,,,,,,,,,,,,,,,,,,,,,,,,,,,,,,,,,,,,,,,,,,,,,,,,,,
,,69b306d0aabcb968f7ca7ec5,2026-03-17_03h37.45.259,kallum_motion_pilot_GIST_update_2,2026.1.1,Win32,59.88023952,69b306d0aabcb968f7ca7ec5,69b92ab4aef6dee357cd729a,69b92edce48e1470e1ca717f,0.0254,0.0254,0,112,112,25,1,onethree,,,,,,,,,,,,,,,,,,,,,,,,,,,,,,,,,,,,,,,,,,,,,,,,,,,,,,,,,,,,,,,,,,,,,,,,,,,,,,,,,,,,,,,,,,,,,,,,,,,,,,,,,,,,,,,,,,,,,,,,,,,,,,,,,,,,,,,,,
,,69b306d0aabcb968f7ca7ec5,2026-03-17_03h37.45.259,kallum_motion_pilot_GIST_update_2,2026.1.1,Win32,59.88023952,69b306d0aabcb968f7ca7ec5,69b92ab4aef6dee357cd729a,69b92edce48e1470e1ca717f,0.0254,0.0254,0,113,113,24,1,onetwo,,,,,,,,,,,,,,,,,,,,,,,,,,,,,,,,,,,,,,,,,,,,,,,,,,,,,,,,,,,,,,,,,,,,,,,,,,,,,,,,,,,,,,,,,,,,,,,,,,,,,,,,,,,,,,,,,,,,,,,,,,,,,,,,,,,,,,,,,
,,69b306d0aabcb968f7ca7ec5,2026-03-17_03h37.45.259,kallum_motion_pilot_GIST_update_2,2026.1.1,Win32,59.88023952,69b306d0aabcb968f7ca7ec5,69b92ab4aef6dee357cd729a,69b92edce48e1470e1ca717f,0.0255,0.0255,0,114,114,35,1,twofour,,,,,,,,,,,,,,,,,,,,,,,,,,,,,,,,,,,,,,,,,,,,,,,,,,,,,,,,,,,,,,,,,,,,,,,,,,,,,,,,,,,,,,,,,,,,,,,,,,,,,,,,,,,,,,,,,,,,,,,,,,,,,,,,,,,,,,,,,
,,69b306d0aabcb968f7ca7ec5,2026-03-17_03h37.45.259,kallum_motion_pilot_GIST_update_2,2026.1.1,Win32,59.88023952,69b306d0aabcb968f7ca7ec5,69b92ab4aef6dee357cd729a,69b92edce48e1470e1ca717f,0.0256,0.0256,0,115,115,126,1,eightsix,,,,,,,,,,,,,,,,,,,,,,,,,,,,,,,,,,,,,,,,,,,,,,,,,,,,,,,,,,,,,,,,,,,,,,,,,,,,,,,,,,,,,,,,,,,,,,,,,,,,,,,,,,,,,,,,,,,,,,,,,,,,,,,,,,,,,,,,,
,,69b306d0aabcb968f7ca7ec5,2026-03-17_03h37.45.259,kallum_motion_pilot_GIST_update_2,2026.1.1,Win32,59.88023952,69b306d0aabcb968f7ca7ec5,69b92ab4aef6dee357cd729a,69b92edce48e1470e1ca717f,0.0257,0.0257,0,116,116,15,1,fourthree,,,,,,,,,,,,,,,,,,,,,,,,,,,,,,,,,,,,,,,,,,,,,,,,,,,,,,,,,,,,,,,,,,,,,,,,,,,,,,,,,,,,,,,,,,,,,,,,,,,,,,,,,,,,,,,,,,,,,,,,,,,,,,,,,,,,,,,,,
,,69b306d0aabcb968f7ca7ec5,2026-03-17_03h37.45.259,kallum_motion_pilot_GIST_update_2,2026.1.1,Win32,59.88023952,69b306d0aabcb968f7ca7ec5,69b92ab4aef6dee357cd729a,69b92edce48e1470e1ca717f,0.0257,0.0257,0,117,117,7,1,fourthree,,,,,,,,,,,,,,,,,,,,,,,,,,,,,,,,,,,,,,,,,,,,,,,,,,,,,,,,,,,,,,,,,,,,,,,,,,,,,,,,,,,,,,,,,,,,,,,,,,,,,,,,,,,,,,,,,,,,,,,,,,,,,,,,,,,,,,,,,
,,69b306d0aabcb968f7ca7ec5,2026-03-17_03h37.45.259,kallum_motion_pilot_GIST_update_2,2026.1.1,Win32,59.88023952,69b306d0aabcb968f7ca7ec5,69b92ab4aef6dee357cd729a,69b92edce48e1470e1ca717f,0.0258,0.0258,0,118,118,99,1,sixeight,,,,,,,,,,,,,,,,,,,,,,,,,,,,,,,,,,,,,,,,,,,,,,,,,,,,,,,,,,,,,,,,,,,,,,,,,,,,,,,,,,,,,,,,,,,,,,,,,,,,,,,,,,,,,,,,,,,,,,,,,,,,,,,,,,,,,,,,,
,,69b306d0aabcb968f7ca7ec5,2026-03-17_03h37.45.259,kallum_motion_pilot_GIST_update_2,2026.1.1,Win32,59.88023952,69b306d0aabcb968f7ca7ec5,69b92ab4aef6dee357cd729a,69b92edce48e1470e1ca717f,0.0259,0.0259,0,119,119,79,1,eightseven,,,,,,,,,,,,,,,,,,,,,,,,,,,,,,,,,,,,,,,,,,,,,,,,,,,,,,,,,,,,,,,,,,,,,,,,,,,,,,,,,,,,,,,,,,,,,,,,,,,,,,,,,,,,,,,,,,,,,,,,,,,,,,,,,,,,,,,,,
,,69b306d0aabcb968f7ca7ec5,2026-03-17_03h37.45.259,kallum_motion_pilot_GIST_update_2,2026.1.1,Win32,59.88023952,69b306d0aabcb968f7ca7ec5,69b92ab4aef6dee357cd729a,69b92edce48e1470e1ca717f,0.026,0.026,0,120,120,41,1,onethree,,,,,,,,,,,,,,,,,,,,,,,,,,,,,,,,,,,,,,,,,,,,,,,,,,,,,,,,,,,,,,,,,,,,,,,,,,,,,,,,,,,,,,,,,,,,,,,,,,,,,,,,,,,,,,,,,,,,,,,,,,,,,,,,,,,,,,,,,
,,69b306d0aabcb968f7ca7ec5,2026-03-17_03h37.45.259,kallum_motion_pilot_GIST_update_2,2026.1.1,Win32,59.88023952,69b306d0aabcb968f7ca7ec5,69b92ab4aef6dee357cd729a,69b92edce48e1470e1ca717f,0.0261,0.0261,0,121,121,113,1,fiveseven,,,,,,,,,,,,,,,,,,,,,,,,,,,,,,,,,,,,,,,,,,,,,,,,,,,,,,,,,,,,,,,,,,,,,,,,,,,,,,,,,,,,,,,,,,,,,,,,,,,,,,,,,,,,,,,,,,,,,,,,,,,,,,,,,,,,,,,,,
,,69b306d0aabcb968f7ca7ec5,2026-03-17_03h37.45.259,kallum_motion_pilot_GIST_update_2,2026.1.1,Win32,59.88023952,69b306d0aabcb968f7ca7ec5,69b92ab4aef6dee357cd729a,69b92edce48e1470e1ca717f,0.0261,0.0261,0,122,122,103,1,eightseven,,,,,,,,,,,,,,,,,,,,,,,,,,,,,,,,,,,,,,,,,,,,,,,,,,,,,,,,,,,,,,,,,,,,,,,,,,,,,,,,,,,,,,,,,,,,,,,,,,,,,,,,,,,,,,,,,,,,,,,,,,,,,,,,,,,,,,,,,
,,69b306d0aabcb968f7ca7ec5,2026-03-17_03h37.45.259,kallum_motion_pilot_GIST_update_2,2026.1.1,Win32,59.88023952,69b306d0aabcb968f7ca7ec5,69b92ab4aef6dee357cd729a,69b92edce48e1470e1ca717f,0.0263,0.0263,0,123,123,49,1,onethree,,,,,,,,,,,,,,,,,,,,,,,,,,,,,,,,,,,,,,,,,,,,,,,,,,,,,,,,,,,,,,,,,,,,,,,,,,,,,,,,,,,,,,,,,,,,,,,,,,,,,,,,,,,,,,,,,,,,,,,,,,,,,,,,,,,,,,,,,
,,69b306d0aabcb968f7ca7ec5,2026-03-17_03h37.45.259,kallum_motion_pilot_GIST_update_2,2026.1.1,Win32,59.88023952,69b306d0aabcb968f7ca7ec5,69b92ab4aef6dee357cd729a,69b92edce48e1470e1ca717f,0.0263,0.0263,0,124,124,18,1,twoone,,,,,,,,,,,,,,,,,,,,,,,,,,,,,,,,,,,,,,,,,,,,,,,,,,,,,,,,,,,,,,,,,,,,,,,,,,,,,,,,,,,,,,,,,,,,,,,,,,,,,,,,,,,,,,,,,,,,,,,,,,,,,,,,,,,,,,,,,
,,69b306d0aabcb968f7ca7ec5,2026-03-17_03h37.45.259,kallum_motion_pilot_GIST_update_2,2026.1.1,Win32,59.88023952,69b306d0aabcb968f7ca7ec5,69b92ab4aef6dee357cd729a,69b92edce48e1470e1ca717f,0.0264,0.0264,0,125,125,19,1,twofour,,,,,,,,,,,,,,,,,,,,,,,,,,,,,,,,,,,,,,,,,,,,,,,,,,,,,,,,,,,,,,,,,,,,,,,,,,,,,,,,,,,,,,,,,,,,,,,,,,,,,,,,,,,,,,,,,,,,,,,,,,,,,,,,,,,,,,,,,
,,69b306d0aabcb968f7ca7ec5,2026-03-17_03h37.45.259,kallum_motion_pilot_GIST_update_2,2026.1.1,Win32,59.88023952,69b306d0aabcb968f7ca7ec5,69b92ab4aef6dee357cd729a,69b92edce48e1470e1ca717f,0.0265,0.0265,0,126,126,85,1,seveneight,,,,,,,,,,,,,,,,,,,,,,,,,,,,,,,,,,,,,,,,,,,,,,,,,,,,,,,,,,,,,,,,,,,,,,,,,,,,,,,,,,,,,,,,,,,,,,,,,,,,,,,,,,,,,,,,,,,,,,,,,,,,,,,,,,,,,,,,,
,,69b306d0aabcb968f7ca7ec5,2026-03-17_03h37.45.259,kallum_motion_pilot_GIST_update_2,2026.1.1,Win32,59.88023952,69b306d0aabcb968f7ca7ec5,69b92ab4aef6dee357cd729a,69b92edce48e1470e1ca717f,0.0266,0.0266,0,127,127,57,1,onethree,,,,,,,,,,,,,,,,,,,,,,,,,,,,,,,,,,,,,,,,,,,,,,,,,,,,,,,,,,,,,,,,,,,,,,,,,,,,,,,,,,,,,,,,,,,,,,,,,,,,,,,,,,,,,,,,,,,,,,,,,,,,,,,,,,,,,,,,,
,,69b306d0aabcb968f7ca7ec5,2026-03-17_03h37.45.259,kallum_motion_pilot_GIST_update_2,2026.1.1,Win32,59.88023952,69b306d0aabcb968f7ca7ec5,69b92ab4aef6dee357cd729a,69b92edce48e1470e1ca717f,0.0267,0.0267,0,128,128,108,1,sevenfive,,,,,,,,,,,,,,,,,,,,,,,,,,,,,,,,,,,,,,,,,,,,,,,,,,,,,,,,,,,,,,,,,,,,,,,,,,,,,,,,,,,,,,,,,,,,,,,,,,,,,,,,,,,,,,,,,,,,,,,,,,,,,,,,,,,,,,,,,
,,69b306d0aabcb968f7ca7ec5,2026-03-17_03h37.45.259,kallum_motion_pilot_GIST_update_2,2026.1.1,Win32,59.88023952,69b306d0aabcb968f7ca7ec5,69b92ab4aef6dee357cd729a,69b92edce48e1470e1ca717f,0.0267,0.0267,0,129,129,140,1,sevenfive,,,,,,,,,,,,,,,,,,,,,,,,,,,,,,,,,,,,,,,,,,,,,,,,,,,,,,,,,,,,,,,,,,,,,,,,,,,,,,,,,,,,,,,,,,,,,,,,,,,,,,,,,,,,,,,,,,,,,,,,,,,,,,,,,,,,,,,,,
,,69b306d0aabcb968f7ca7ec5,2026-03-17_03h37.45.259,kallum_motion_pilot_GIST_update_2,2026.1.1,Win32,59.88023952,69b306d0aabcb968f7ca7ec5,69b92ab4aef6dee357cd729a,69b92edce48e1470e1ca717f,0.0268,0.0268,0,130,130,6,1,fourtwo,,,,,,,,,,,,,,,,,,,,,,,,,,,,,,,,,,,,,,,,,,,,,,,,,,,,,,,,,,,,,,,,,,,,,,,,,,,,,,,,,,,,,,,,,,,,,,,,,,,,,,,,,,,,,,,,,,,,,,,,,,,,,,,,,,,,,,,,,
,,69b306d0aabcb968f7ca7ec5,2026-03-17_03h37.45.259,kallum_motion_pilot_GIST_update_2,2026.1.1,Win32,59.88023952,69b306d0aabcb968f7ca7ec5,69b92ab4aef6dee357cd729a,69b92edce48e1470e1ca717f,0.027,0.027,0,131,131,14,1,fourtwo,,,,,,,,,,,,,,,,,,,,,,,,,,,,,,,,,,,,,,,,,,,,,,,,,,,,,,,,,,,,,,,,,,,,,,,,,,,,,,,,,,,,,,,,,,,,,,,,,,,,,,,,,,,,,,,,,,,,,,,,,,,,,,,,,,,,,,,,,
,,69b306d0aabcb968f7ca7ec5,2026-03-17_03h37.45.259,kallum_motion_pilot_GIST_update_2,2026.1.1,Win32,59.88023952,69b306d0aabcb968f7ca7ec5,69b92ab4aef6dee357cd729a,69b92edce48e1470e1ca717f,0.0271,0.0271,0,132,132,101,1,seveneight,,,,,,,,,,,,,,,,,,,,,,,,,,,,,,,,,,,,,,,,,,,,,,,,,,,,,,,,,,,,,,,,,,,,,,,,,,,,,,,,,,,,,,,,,,,,,,,,,,,,,,,,,,,,,,,,,,,,,,,,,,,,,,,,,,,,,,,,,
,,69b306d0aabcb968f7ca7ec5,2026-03-17_03h37.45.259,kallum_motion_pilot_GIST_update_2,2026.1.1,Win32,59.88023952,69b306d0aabcb968f7ca7ec5,69b92ab4aef6dee357cd729a,69b92edce48e1470e1ca717f,0.0272,0.0272,0,133,133,158,1,eightsix,,,,,,,,,,,,,,,,,,,,,,,,,,,,,,,,,,,,,,,,,,,,,,,,,,,,,,,,,,,,,,,,,,,,,,,,,,,,,,,,,,,,,,,,,,,,,,,,,,,,,,,,,,,,,,,,,,,,,,,,,,,,,,,,,,,,,,,,,
,,69b306d0aabcb968f7ca7ec5,2026-03-17_03h37.45.259,kallum_motion_pilot_GIST_update_2,2026.1.1,Win32,59.88023952,69b306d0aabcb968f7ca7ec5,69b92ab4aef6dee357cd729a,69b92edce48e1470e1ca717f,0.0273,0.0273,0,134,134,20,1,threeone,,,,,,,,,,,,,,,,,,,,,,,,,,,,,,,,,,,,,,,,,,,,,,,,,,,,,,,,,,,,,,,,,,,,,,,,,,,,,,,,,,,,,,,,,,,,,,,,,,,,,,,,,,,,,,,,,,,,,,,,,,,,,,,,,,,,,,,,,
,,69b306d0aabcb968f7ca7ec5,2026-03-17_03h37.45.259,kallum_motion_pilot_GIST_update_2,2026.1.1,Win32,59.88023952,69b306d0aabcb968f7ca7ec5,69b92ab4aef6dee357cd729a,69b92edce48e1470e1ca717f,0.0274,0.0274,0,135,135,70,1,fourtwo,,,,,,,,,,,,,,,,,,,,,,,,,,,,,,,,,,,,,,,,,,,,,,,,,,,,,,,,,,,,,,,,,,,,,,,,,,,,,,,,,,,,,,,,,,,,,,,,,,,,,,,,,,,,,,,,,,,,,,,,,,,,,,,,,,,,,,,,,
,,69b306d0aabcb968f7ca7ec5,2026-03-17_03h37.45.259,kallum_motion_pilot_GIST_update_2,2026.1.1,Win32,59.88023952,69b306d0aabcb968f7ca7ec5,69b92ab4aef6dee357cd729a,69b92edce48e1470e1ca717f,0.0274,0.0274,0,136,136,44,1,threeone,,,,,,,,,,,,,,,,,,,,,,,,,,,,,,,,,,,,,,,,,,,,,,,,,,,,,,,,,,,,,,,,,,,,,,,,,,,,,,,,,,,,,,,,,,,,,,,,,,,,,,,,,,,,,,,,,,,,,,,,,,,,,,,,,,,,,,,,,
,,69b306d0aabcb968f7ca7ec5,2026-03-17_03h37.45.259,kallum_motion_pilot_GIST_update_2,2026.1.1,Win32,59.88023952,69b306d0aabcb968f7ca7ec5,69b92ab4aef6dee357cd729a,69b92edce48e1470e1ca717f,0.0275,0.0275,0,137,137,37,1,threefour,,,,,,,,,,,,,,,,,,,,,,,,,,,,,,,,,,,,,,,,,,,,,,,,,,,,,,,,,,,,,,,,,,,,,,,,,,,,,,,,,,,,,,,,,,,,,,,,,,,,,,,,,,,,,,,,,,,,,,,,,,,,,,,,,,,,,,,,,
,,69b306d0aabcb968f7ca7ec5,2026-03-17_03h37.45.259,kallum_motion_pilot_GIST_update_2,2026.1.1,Win32,59.88023952,69b306d0aabcb968f7ca7ec5,69b92ab4aef6dee357cd729a,69b92edce48e1470e1ca717f,0.0276,0.0276,0,138,138,61,1,threefour,,,,,,,,,,,,,,,,,,,,,,,,,,,,,,,,,,,,,,,,,,,,,,,,,,,,,,,,,,,,,,,,,,,,,,,,,,,,,,,,,,,,,,,,,,,,,,,,,,,,,,,,,,,,,,,,,,,,,,,,,,,,,,,,,,,,,,,,,
,,69b306d0aabcb968f7ca7ec5,2026-03-17_03h37.45.259,kallum_motion_pilot_GIST_update_2,2026.1.1,Win32,59.88023952,69b306d0aabcb968f7ca7ec5,69b92ab4aef6dee357cd729a,69b92edce48e1470e1ca717f,0.0277,0.0277,0,139,139,117,1,seveneight,,,,,,,,,,,,,,,,,,,,,,,,,,,,,,,,,,,,,,,,,,,,,,,,,,,,,,,,,,,,,,,,,,,,,,,,,,,,,,,,,,,,,,,,,,,,,,,,,,,,,,,,,,,,,,,,,,,,,,,,,,,,,,,,,,,,,,,,,
,,69b306d0aabcb968f7ca7ec5,2026-03-17_03h37.45.259,kallum_motion_pilot_GIST_update_2,2026.1.1,Win32,59.88023952,69b306d0aabcb968f7ca7ec5,69b92ab4aef6dee357cd729a,69b92edce48e1470e1ca717f,0.0277,0.0277,0,140,140,83,1,sixeight,,,,,,,,,,,,,,,,,,,,,,,,,,,,,,,,,,,,,,,,,,,,,,,,,,,,,,,,,,,,,,,,,,,,,,,,,,,,,,,,,,,,,,,,,,,,,,,,,,,,,,,,,,,,,,,,,,,,,,,,,,,,,,,,,,,,,,,,,
,,69b306d0aabcb968f7ca7ec5,2026-03-17_03h37.45.259,kallum_motion_pilot_GIST_update_2,2026.1.1,Win32,59.88023952,69b306d0aabcb968f7ca7ec5,69b92ab4aef6dee357cd729a,69b92edce48e1470e1ca717f,0.0278,0.0279,0,141,141,84,1,sevenfive,,,,,,,,,,,,,,,,,,,,,,,,,,,,,,,,,,,,,,,,,,,,,,,,,,,,,,,,,,,,,,,,,,,,,,,,,,,,,,,,,,,,,,,,,,,,,,,,,,,,,,,,,,,,,,,,,,,,,,,,,,,,,,,,,,,,,,,,,
,,69b306d0aabcb968f7ca7ec5,2026-03-17_03h37.45.259,kallum_motion_pilot_GIST_update_2,2026.1.1,Win32,59.88023952,69b306d0aabcb968f7ca7ec5,69b92ab4aef6dee357cd729a,69b92edce48e1470e1ca717f,0.0279,0.0279,0,142,142,29,1,threefour,,,,,,,,,,,,,,,,,,,,,,,,,,,,,,,,,,,,,,,,,,,,,,,,,,,,,,,,,,,,,,,,,,,,,,,,,,,,,,,,,,,,,,,,,,,,,,,,,,,,,,,,,,,,,,,,,,,,,,,,,,,,,,,,,,,,,,,,,
,,69b306d0aabcb968f7ca7ec5,2026-03-17_03h37.45.259,kallum_motion_pilot_GIST_update_2,2026.1.1,Win32,59.88023952,69b306d0aabcb968f7ca7ec5,69b92ab4aef6dee357cd729a,69b92edce48e1470e1ca717f,0.0279,0.0279,0,143,143,76,1,threeone,,,,,,,,,,,,,,,,,,,,,,,,,,,,,,,,,,,,,,,,,,,,,,,,,,,,,,,,,,,,,,,,,,,,,,,,,,,,,,,,,,,,,,,,,,,,,,,,,,,,,,,,,,,,,,,,,,,,,,,,,,,,,,,,,,,,,,,,,
,,69b306d0aabcb968f7ca7ec5,2026-03-17_03h37.45.259,kallum_motion_pilot_GIST_update_2,2026.1.1,Win32,59.88023952,69b306d0aabcb968f7ca7ec5,69b92ab4aef6dee357cd729a,69b92edce48e1470e1ca717f,0.0281,0.0281,0,144,144,125,1,seveneight,,,,,,,,,,,,,,,,,,,,,,,,,,,,,,,,,,,,,,,,,,,,,,,,,,,,,,,,,,,,,,,,,,,,,,,,,,,,,,,,,,,,,,,,,,,,,,,,,,,,,,,,,,,,,,,,,,,,,,,,,,,,,,,,,,,,,,,,,
,,69b306d0aabcb968f7ca7ec5,2026-03-17_03h37.45.259,kallum_motion_pilot_GIST_update_2,2026.1.1,Win32,59.88023952,69b306d0aabcb968f7ca7ec5,69b92ab4aef6dee357cd729a,69b92edce48e1470e1ca717f,0.0281,0.0281,0,145,145,5,1,threefour,,,,,,,,,,,,,,,,,,,,,,,,,,,,,,,,,,,,,,,,,,,,,,,,,,,,,,,,,,,,,,,,,,,,,,,,,,,,,,,,,,,,,,,,,,,,,,,,,,,,,,,,,,,,,,,,,,,,,,,,,,,,,,,,,,,,,,,,,
,,69b306d0aabcb968f7ca7ec5,2026-03-17_03h37.45.259,kallum_motion_pilot_GIST_update_2,2026.1.1,Win32,59.88023952,69b306d0aabcb968f7ca7ec5,69b92ab4aef6dee357cd729a,69b92edce48e1470e1ca717f,0.0282,0.0282,0,146,146,155,1,sixeight,,,,,,,,,,,,,,,,,,,,,,,,,,,,,,,,,,,,,,,,,,,,,,,,,,,,,,,,,,,,,,,,,,,,,,,,,,,,,,,,,,,,,,,,,,,,,,,,,,,,,,,,,,,,,,,,,,,,,,,,,,,,,,,,,,,,,,,,,
,,69b306d0aabcb968f7ca7ec5,2026-03-17_03h37.45.259,kallum_motion_pilot_GIST_update_2,2026.1.1,Win32,59.88023952,69b306d0aabcb968f7ca7ec5,69b92ab4aef6dee357cd729a,69b92edce48e1470e1ca717f,0.0283,0.0283,0,147,147,92,1,sevenfive,,,,,,,,,,,,,,,,,,,,,,,,,,,,,,,,,,,,,,,,,,,,,,,,,,,,,,,,,,,,,,,,,,,,,,,,,,,,,,,,,,,,,,,,,,,,,,,,,,,,,,,,,,,,,,,,,,,,,,,,,,,,,,,,,,,,,,,,,
,,69b306d0aabcb968f7ca7ec5,2026-03-17_03h37.45.259,kallum_motion_pilot_GIST_update_2,2026.1.1,Win32,59.88023952,69b306d0aabcb968f7ca7ec5,69b92ab4aef6dee357cd729a,69b92edce48e1470e1ca717f,0.0283,0.0283,0,148,148,2,1,twoone,,,,,,,,,,,,,,,,,,,,,,,,,,,,,,,,,,,,,,,,,,,,,,,,,,,,,,,,,,,,,,,,,,,,,,,,,,,,,,,,,,,,,,,,,,,,,,,,,,,,,,,,,,,,,,,,,,,,,,,,,,,,,,,,,,,,,,,,,
,,69b306d0aabcb968f7ca7ec5,2026-03-17_03h37.45.259,kallum_motion_pilot_GIST_update_2,2026.1.1,Win32,59.88023952,69b306d0aabcb968f7ca7ec5,69b92ab4aef6dee357cd729a,69b92edce48e1470e1ca717f,0.0285,0.0285,0,149,149,120,1,fivesix,,,,,,,,,,,,,,,,,,,,,,,,,,,,,,,,,,,,,,,,,,,,,,,,,,,,,,,,,,,,,,,,,,,,,,,,,,,,,,,,,,,,,,,,,,,,,,,,,,,,,,,,,,,,,,,,,,,,,,,,,,,,,,,,,,,,,,,,,
,,69b306d0aabcb968f7ca7ec5,2026-03-17_03h37.45.259,kallum_motion_pilot_GIST_update_2,2026.1.1,Win32,59.88023952,69b306d0aabcb968f7ca7ec5,69b92ab4aef6dee357cd729a,69b92edce48e1470e1ca717f,0.0285,0.0285,0,150,150,81,1,fiveseven,,,,,,,,,,,,,,,,,,,,,,,,,,,,,,,,,,,,,,,,,,,,,,,,,,,,,,,,,,,,,,,,,,,,,,,,,,,,,,,,,,,,,,,,,,,,,,,,,,,,,,,,,,,,,,,,,,,,,,,,,,,,,,,,,,,,,,,,,
,,69b306d0aabcb968f7ca7ec5,2026-03-17_03h37.45.259,kallum_motion_pilot_GIST_update_2,2026.1.1,Win32,59.88023952,69b306d0aabcb968f7ca7ec5,69b92ab4aef6dee357cd729a,69b92edce48e1470e1ca717f,0.0285,0.0285,0,151,151,28,1,threeone,,,,,,,,,,,,,,,,,,,,,,,,,,,,,,,,,,,,,,,,,,,,,,,,,,,,,,,,,,,,,,,,,,,,,,,,,,,,,,,,,,,,,,,,,,,,,,,,,,,,,,,,,,,,,,,,,,,,,,,,,,,,,,,,,,,,,,,,,
,,69b306d0aabcb968f7ca7ec5,2026-03-17_03h37.45.259,kallum_motion_pilot_GIST_update_2,2026.1.1,Win32,59.88023952,69b306d0aabcb968f7ca7ec5,69b92ab4aef6dee357cd729a,69b92edce48e1470e1ca717f,0.0286,0.0286,0,152,152,144,1,fivesix,,,,,,,,,,,,,,,,,,,,,,,,,,,,,,,,,,,,,,,,,,,,,,,,,,,,,,,,,,,,,,,,,,,,,,,,,,,,,,,,,,,,,,,,,,,,,,,,,,,,,,,,,,,,,,,,,,,,,,,,,,,,,,,,,,,,,,,,,
,,69b306d0aabcb968f7ca7ec5,2026-03-17_03h37.45.259,kallum_motion_pilot_GIST_update_2,2026.1.1,Win32,59.88023952,69b306d0aabcb968f7ca7ec5,69b92ab4aef6dee357cd729a,69b92edce48e1470e1ca717f,0.0287,0.0287,0,153,153,88,1,fivesix,,,,,,,,,,,,,,,,,,,,,,,,,,,,,,,,,,,,,,,,,,,,,,,,,,,,,,,,,,,,,,,,,,,,,,,,,,,,,,,,,,,,,,,,,,,,,,,,,,,,,,,,,,,,,,,,,,,,,,,,,,,,,,,,,,,,,,,,,
,,69b306d0aabcb968f7ca7ec5,2026-03-17_03h37.45.259,kallum_motion_pilot_GIST_update_2,2026.1.1,Win32,59.88023952,69b306d0aabcb968f7ca7ec5,69b92ab4aef6dee357cd729a,69b92edce48e1470e1ca717f,0.0288,0.0288,0,154,154,154,1,sixfive,,,,,,,,,,,,,,,,,,,,,,,,,,,,,,,,,,,,,,,,,,,,,,,,,,,,,,,,,,,,,,,,,,,,,,,,,,,,,,,,,,,,,,,,,,,,,,,,,,,,,,,,,,,,,,,,,,,,,,,,,,,,,,,,,,,,,,,,,
,,69b306d0aabcb968f7ca7ec5,2026-03-17_03h37.45.259,kallum_motion_pilot_GIST_update_2,2026.1.1,Win32,59.88023952,69b306d0aabcb968f7ca7ec5,69b92ab4aef6dee357cd729a,69b92edce48e1470e1ca717f,0.0288,0.0288,0,155,155,153,1,fiveseven,,,,,,,,,,,,,,,,,,,,,,,,,,,,,,,,,,,,,,,,,,,,,,,,,,,,,,,,,,,,,,,,,,,,,,,,,,,,,,,,,,,,,,,,,,,,,,,,,,,,,,,,,,,,,,,,,,,,,,,,,,,,,,,,,,,,,,,,,
,,69b306d0aabcb968f7ca7ec5,2026-03-17_03h37.45.259,kallum_motion_pilot_GIST_update_2,2026.1.1,Win32,59.88023952,69b306d0aabcb968f7ca7ec5,69b92ab4aef6dee357cd729a,69b92edce48e1470e1ca717f,0.029,0.029,0,156,156,96,1,fivesix,,,,,,,,,,,,,,,,,,,,,,,,,,,,,,,,,,,,,,,,,,,,,,,,,,,,,,,,,,,,,,,,,,,,,,,,,,,,,,,,,,,,,,,,,,,,,,,,,,,,,,,,,,,,,,,,,,,,,,,,,,,,,,,,,,,,,,,,,
,,69b306d0aabcb968f7ca7ec5,2026-03-17_03h37.45.259,kallum_motion_pilot_GIST_update_2,2026.1.1,Win32,59.88023952,69b306d0aabcb968f7ca7ec5,69b92ab4aef6dee357cd729a,69b92edce48e1470e1ca717f,0.029,0.029,0,157,157,128,1,fivesix,,,,,,,,,,,,,,,,,,,,,,,,,,,,,,,,,,,,,,,,,,,,,,,,,,,,,,,,,,,,,,,,,,,,,,,,,,,,,,,,,,,,,,,,,,,,,,,,,,,,,,,,,,,,,,,,,,,,,,,,,,,,,,,,,,,,,,,,,
,,69b306d0aabcb968f7ca7ec5,2026-03-17_03h37.45.259,kallum_motion_pilot_GIST_update_2,2026.1.1,Win32,59.88023952,69b306d0aabcb968f7ca7ec5,69b92ab4aef6dee357cd729a,69b92edce48e1470e1ca717f,0.0291,0.0291,0,158,158,139,1,sixeight,,,,,,,,,,,,,,,,,,,,,,,,,,,,,,,,,,,,,,,,,,,,,,,,,,,,,,,,,,,,,,,,,,,,,,,,,,,,,,,,,,,,,,,,,,,,,,,,,,,,,,,,,,,,,,,,,,,,,,,,,,,,,,,,,,,,,,,,,
,,69b306d0aabcb968f7ca7ec5,2026-03-17_03h37.45.259,kallum_motion_pilot_GIST_update_2,2026.1.1,Win32,59.88023952,69b306d0aabcb968f7ca7ec5,69b92ab4aef6dee357cd729a,69b92edce48e1470e1ca717f,0.0292,0.0292,0,159,159,9,1,onethree,,,,,,,,,,,,,,,,,,,,,,,,,,,,,,,,,,,,,,,,,,,,,,,,,,,,,,,,,,,,,,,,,,,,,,,,,,,,,,,,,,,,,,,,,,,,,,,,,,,,,,,,,,,,,,,,,,,,,,,,,,,,,,,,,,,,,,,,,
,,69b306d0aabcb968f7ca7ec5,2026-03-17_03h37.45.259,kallum_motion_pilot_GIST_update_2,2026.1.1,Win32,59.88023952,69b306d0aabcb968f7ca7ec5,69b92ab4aef6dee357cd729a,69b92edce48e1470e1ca717f,0.0292,0.0292,0,160,160,87,1,eightseven,,,,,,,,,,,,,,,,,,,,,,,,,,,,,,,,,,,,,,,,,,,,,,,,,,,,,,,,,,,,,,,,,,,,,,,,,,,,,,,,,,,,,,,,,,,,,,,,,,,,,,,,,,,,,,,,,,,,,,,,,,,,,,,,,,,,,,,,,
,,69b306d0aabcb968f7ca7ec5,2026-03-17_03h37.45.259,kallum_motion_pilot_GIST_update_2,2026.1.1,Win32,59.88023952,69b306d0aabcb968f7ca7ec5,69b92ab4aef6dee357cd729a,69b92edce48e1470e1ca717f,0.0293,0.0293,0,161,161,1,1,onethree,,,,,,,,,,,,,,,,,,,,,,,,,,,,,,,,,,,,,,,,,,,,,,,,,,,,,,,,,,,,,,,,,,,,,,,,,,,,,,,,,,,,,,,,,,,,,,,,,,,,,,,,,,,,,,,,,,,,,,,,,,,,,,,,,,,,,,,,,
,,69b306d0aabcb968f7ca7ec5,2026-03-17_03h37.45.259,kallum_motion_pilot_GIST_update_2,2026.1.1,Win32,59.88023952,69b306d0aabcb968f7ca7ec5,69b92ab4aef6dee357cd729a,69b92edce48e1470e1ca717f,0.0294,0.0294,1,0,162,98,1,sixfive,,,,,,,,,,,,,,,,,,,,,,,,,,,,,,,,,,,,,,,,,,,,,,,,,,,,,,,,,,,,,,,,,,,,,,,,,,,,,,,,,,,,,,,,,,,,,,,,,,,,,,,,,,,,,,,,,,,,,,,,,,,,,,,,,,,,,,,,,
,,69b306d0aabcb968f7ca7ec5,2026-03-17_03h37.45.259,kallum_motion_pilot_GIST_update_2,2026.1.1,Win32,59.88023952,69b306d0aabcb968f7ca7ec5,69b92ab4aef6dee357cd729a,69b92edce48e1470e1ca717f,0.0295,0.0295,1,1,163,109,1,seveneight,,,,,,,,,,,,,,,,,,,,,,,,,,,,,,,,,,,,,,,,,,,,,,,,,,,,,,,,,,,,,,,,,,,,,,,,,,,,,,,,,,,,,,,,,,,,,,,,,,,,,,,,,,,,,,,,,,,,,,,,,,,,,,,,,,,,,,,,,
,,69b306d0aabcb968f7ca7ec5,2026-03-17_03h37.45.259,kallum_motion_pilot_GIST_update_2,2026.1.1,Win32,59.88023952,69b306d0aabcb968f7ca7ec5,69b92ab4aef6dee357cd729a,69b92edce48e1470e1ca717f,0.0296,0.0296,1,2,164,1,1,onethree,,,,,,,,,,,,,,,,,,,,,,,,,,,,,,,,,,,,,,,,,,,,,,,,,,,,,,,,,,,,,,,,,,,,,,,,,,,,,,,,,,,,,,,,,,,,,,,,,,,,,,,,,,,,,,,,,,,,,,,,,,,,,,,,,,,,,,,,,
,,69b306d0aabcb968f7ca7ec5,2026-03-17_03h37.45.259,kallum_motion_pilot_GIST_update_2,2026.1.1,Win32,59.88023952,69b306d0aabcb968f7ca7ec5,69b92ab4aef6dee357cd729a,69b92edce48e1470e1ca717f,0.0297,0.0297,1,3,165,143,1,eightseven,,,,,,,,,,,,,,,,,,,,,,,,,,,,,,,,,,,,,,,,,,,,,,,,,,,,,,,,,,,,,,,,,,,,,,,,,,,,,,,,,,,,,,,,,,,,,,,,,,,,,,,,,,,,,,,,,,,,,,,,,,,,,,,,,,,,,,,,,
,,69b306d0aabcb968f7ca7ec5,2026-03-17_03h37.45.259,kallum_motion_pilot_GIST_update_2,2026.1.1,Win32,59.88023952,69b306d0aabcb968f7ca7ec5,69b92ab4aef6dee357cd729a,69b92edce48e1470e1ca717f,0.0297,0.0297,1,4,166,59,1,twofour,,,,,,,,,,,,,,,,,,,,,,,,,,,,,,,,,,,,,,,,,,,,,,,,,,,,,,,,,,,,,,,,,,,,,,,,,,,,,,,,,,,,,,,,,,,,,,,,,,,,,,,,,,,,,,,,,,,,,,,,,,,,,,,,,,,,,,,,,
,,69b306d0aabcb968f7ca7ec5,2026-03-17_03h37.45.259,kallum_motion_pilot_GIST_update_2,2026.1.1,Win32,59.88023952,69b306d0aabcb968f7ca7ec5,69b92ab4aef6dee357cd729a,69b92edce48e1470e1ca717f,0.0298,0.0298,1,5,167,110,1,eightsix,,,,,,,,,,,,,,,,,,,,,,,,,,,,,,,,,,,,,,,,,,,,,,,,,,,,,,,,,,,,,,,,,,,,,,,,,,,,,,,,,,,,,,,,,,,,,,,,,,,,,,,,,,,,,,,,,,,,,,,,,,,,,,,,,,,,,,,,,
,,69b306d0aabcb968f7ca7ec5,2026-03-17_03h37.45.259,kallum_motion_pilot_GIST_update_2,2026.1.1,Win32,59.88023952,69b306d0aabcb968f7ca7ec5,69b92ab4aef6dee357cd729a,69b92edce48e1470e1ca717f,0.0299,0.0299,1,6,168,14,1,fourtwo,,,,,,,,,,,,,,,,,,,,,,,,,,,,,,,,,,,,,,,,,,,,,,,,,,,,,,,,,,,,,,,,,,,,,,,,,,,,,,,,,,,,,,,,,,,,,,,,,,,,,,,,,,,,,,,,,,,,,,,,,,,,,,,,,,,,,,,,,
,,69b306d0aabcb968f7ca7ec5,2026-03-17_03h37.45.259,kallum_motion_pilot_GIST_update_2,2026.1.1,Win32,59.88023952,69b306d0aabcb968f7ca7ec5,69b92ab4aef6dee357cd729a,69b92edce48e1470e1ca717f,0.03,0.03,1,7,169,158,1,eightsix,,,,,,,,,,,,,,,,,,,,,,,,,,,,,,,,,,,,,,,,,,,,,,,,,,,,,,,,,,,,,,,,,,,,,,,,,,,,,,,,,,,,,,,,,,,,,,,,,,,,,,,,,,,,,,,,,,,,,,,,,,,,,,,,,,,,,,,,,
,,69b306d0aabcb968f7ca7ec5,2026-03-17_03h37.45.259,kallum_motion_pilot_GIST_update_2,2026.1.1,Win32,59.88023952,69b306d0aabcb968f7ca7ec5,69b92ab4aef6dee357cd729a,69b92edce48e1470e1ca717f,0.03,0.03,1,8,170,57,1,onethree,,,,,,,,,,,,,,,,,,,,,,,,,,,,,,,,,,,,,,,,,,,,,,,,,,,,,,,,,,,,,,,,,,,,,,,,,,,,,,,,,,,,,,,,,,,,,,,,,,,,,,,,,,,,,,,,,,,,,,,,,,,,,,,,,,,,,,,,,
,,69b306d0aabcb968f7ca7ec5,2026-03-17_03h37.45.259,kallum_motion_pilot_GIST_update_2,2026.1.1,Win32,59.88023952,69b306d0aabcb968f7ca7ec5,69b92ab4aef6dee357cd729a,69b92edce48e1470e1ca717f,0.0301,0.0301,1,9,171,128,1,fivesix,,,,,,,,,,,,,,,,,,,,,,,,,,,,,,,,,,,,,,,,,,,,,,,,,,,,,,,,,,,,,,,,,,,,,,,,,,,,,,,,,,,,,,,,,,,,,,,,,,,,,,,,,,,,,,,,,,,,,,,,,,,,,,,,,,,,,,,,,
,,69b306d0aabcb968f7ca7ec5,2026-03-17_03h37.45.259,kallum_motion_pilot_GIST_update_2,2026.1.1,Win32,59.88023952,69b306d0aabcb968f7ca7ec5,69b92ab4aef6dee357cd729a,69b92edce48e1470e1ca717f,0.0302,0.0302,1,10,172,154,1,sixfive,,,,,,,,,,,,,,,,,,,,,,,,,,,,,,,,,,,,,,,,,,,,,,,,,,,,,,,,,,,,,,,,,,,,,,,,,,,,,,,,,,,,,,,,,,,,,,,,,,,,,,,,,,,,,,,,,,,,,,,,,,,,,,,,,,,,,,,,,
,,69b306d0aabcb968f7ca7ec5,2026-03-17_03h37.45.259,kallum_motion_pilot_GIST_update_2,2026.1.1,Win32,59.88023952,69b306d0aabcb968f7ca7ec5,69b92ab4aef6dee357cd729a,69b92edce48e1470e1ca717f,0.0302,0.0302,1,11,173,148,1,sevenfive,,,,,,,,,,,,,,,,,,,,,,,,,,,,,,,,,,,,,,,,,,,,,,,,,,,,,,,,,,,,,,,,,,,,,,,,,,,,,,,,,,,,,,,,,,,,,,,,,,,,,,,,,,,,,,,,,,,,,,,,,,,,,,,,,,,,,,,,,
,,69b306d0aabcb968f7ca7ec5,2026-03-17_03h37.45.259,kallum_motion_pilot_GIST_update_2,2026.1.1,Win32,59.88023952,69b306d0aabcb968f7ca7ec5,69b92ab4aef6dee357cd729a,69b92edce48e1470e1ca717f,0.0303,0.0303,1,12,174,79,1,eightseven,,,,,,,,,,,,,,,,,,,,,,,,,,,,,,,,,,,,,,,,,,,,,,,,,,,,,,,,,,,,,,,,,,,,,,,,,,,,,,,,,,,,,,,,,,,,,,,,,,,,,,,,,,,,,,,,,,,,,,,,,,,,,,,,,,,,,,,,,
,,69b306d0aabcb968f7ca7ec5,2026-03-17_03h37.45.259,kallum_motion_pilot_GIST_update_2,2026.1.1,Win32,59.88023952,69b306d0aabcb968f7ca7ec5,69b92ab4aef6dee357cd729a,69b92edce48e1470e1ca717f,0.0304,0.0304,1,13,175,129,1,fiveseven,,,,,,,,,,,,,,,,,,,,,,,,,,,,,,,,,,,,,,,,,,,,,,,,,,,,,,,,,,,,,,,,,,,,,,,,,,,,,,,,,,,,,,,,,,,,,,,,,,,,,,,,,,,,,,,,,,,,,,,,,,,,,,,,,,,,,,,,,
,,69b306d0aabcb968f7ca7ec5,2026-03-17_03h37.45.259,kallum_motion_pilot_GIST_update_2,2026.1.1,Win32,59.88023952,69b306d0aabcb968f7ca7ec5,69b92ab4aef6dee357cd729a,69b92edce48e1470e1ca717f,0.0305,0.0305,1,14,176,6,1,fourtwo,,,,,,,,,,,,,,,,,,,,,,,,,,,,,,,,,,,,,,,,,,,,,,,,,,,,,,,,,,,,,,,,,,,,,,,,,,,,,,,,,,,,,,,,,,,,,,,,,,,,,,,,,,,,,,,,,,,,,,,,,,,,,,,,,,,,,,,,,
,,69b306d0aabcb968f7ca7ec5,2026-03-17_03h37.45.259,kallum_motion_pilot_GIST_update_2,2026.1.1,Win32,59.88023952,69b306d0aabcb968f7ca7ec5,69b92ab4aef6dee357cd729a,69b92edce48e1470e1ca717f,0.0306,0.0306,1,15,177,96,1,fivesix,,,,,,,,,,,,,,,,,,,,,,,,,,,,,,,,,,,,,,,,,,,,,,,,,,,,,,,,,,,,,,,,,,,,,,,,,,,,,,,,,,,,,,,,,,,,,,,,,,,,,,,,,,,,,,,,,,,,,,,,,,,,,,,,,,,,,,,,,
,,69b306d0aabcb968f7ca7ec5,2026-03-17_03h37.45.259,kallum_motion_pilot_GIST_update_2,2026.1.1,Win32,59.88023952,69b306d0aabcb968f7ca7ec5,69b92ab4aef6dee357cd729a,69b92edce48e1470e1ca717f,0.0307,0.0307,1,16,178,10,1,twoone,,,,,,,,,,,,,,,,,,,,,,,,,,,,,,,,,,,,,,,,,,,,,,,,,,,,,,,,,,,,,,,,,,,,,,,,,,,,,,,,,,,,,,,,,,,,,,,,,,,,,,,,,,,,,,,,,,,,,,,,,,,,,,,,,,,,,,,,,
,,69b306d0aabcb968f7ca7ec5,2026-03-17_03h37.45.259,kallum_motion_pilot_GIST_update_2,2026.1.1,Win32,59.88023952,69b306d0aabcb968f7ca7ec5,69b92ab4aef6dee357cd729a,69b92edce48e1470e1ca717f,0.0307,0.0307,1,17,179,34,1,twoone,,,,,,,,,,,,,,,,,,,,,,,,,,,,,,,,,,,,,,,,,,,,,,,,,,,,,,,,,,,,,,,,,,,,,,,,,,,,,,,,,,,,,,,,,,,,,,,,,,,,,,,,,,,,,,,,,,,,,,,,,,,,,,,,,,,,,,,,,
,,69b306d0aabcb968f7ca7ec5,2026-03-17_03h37.45.259,kallum_motion_pilot_GIST_update_2,2026.1.1,Win32,59.88023952,69b306d0aabcb968f7ca7ec5,69b92ab4aef6dee357cd729a,69b92edce48e1470e1ca717f,0.0308,0.0308,1,18,180,157,1,seveneight,,,,,,,,,,,,,,,,,,,,,,,,,,,,,,,,,,,,,,,,,,,,,,,,,,,,,,,,,,,,,,,,,,,,,,,,,,,,,,,,,,,,,,,,,,,,,,,,,,,,,,,,,,,,,,,,,,,,,,,,,,,,,,,,,,,,,,,,,
,,69b306d0aabcb968f7ca7ec5,2026-03-17_03h37.45.259,kallum_motion_pilot_GIST_update_2,2026.1.1,Win32,59.88023952,69b306d0aabcb968f7ca7ec5,69b92ab4aef6dee357cd729a,69b92edce48e1470e1ca717f,0.0309,0.0309,1,19,181,46,1,fourtwo,,,,,,,,,,,,,,,,,,,,,,,,,,,,,,,,,,,,,,,,,,,,,,,,,,,,,,,,,,,,,,,,,,,,,,,,,,,,,,,,,,,,,,,,,,,,,,,,,,,,,,,,,,,,,,,,,,,,,,,,,,,,,,,,,,,,,,,,,
,,69b306d0aabcb968f7ca7ec5,2026-03-17_03h37.45.259,kallum_motion_pilot_GIST_update_2,2026.1.1,Win32,59.88023952,69b306d0aabcb968f7ca7ec5,69b92ab4aef6dee357cd729a,69b92edce48e1470e1ca717f,0.031,0.031,1,20,182,123,1,sixeight,,,,,,,,,,,,,,,,,,,,,,,,,,,,,,,,,,,,,,,,,,,,,,,,,,,,,,,,,,,,,,,,,,,,,,,,,,,,,,,,,,,,,,,,,,,,,,,,,,,,,,,,,,,,,,,,,,,,,,,,,,,,,,,,,,,,,,,,,
,,69b306d0aabcb968f7ca7ec5,2026-03-17_03h37.45.259,kallum_motion_pilot_GIST_update_2,2026.1.1,Win32,59.88023952,69b306d0aabcb968f7ca7ec5,69b92ab4aef6dee357cd729a,69b92edce48e1470e1ca717f,0.0311,0.0311,1,21,183,152,1,fivesix,,,,,,,,,,,,,,,,,,,,,,,,,,,,,,,,,,,,,,,,,,,,,,,,,,,,,,,,,,,,,,,,,,,,,,,,,,,,,,,,,,,,,,,,,,,,,,,,,,,,,,,,,,,,,,,,,,,,,,,,,,,,,,,,,,,,,,,,,
,,69b306d0aabcb968f7ca7ec5,2026-03-17_03h37.45.259,kallum_motion_pilot_GIST_update_2,2026.1.1,Win32,59.88023952,69b306d0aabcb968f7ca7ec5,69b92ab4aef6dee357cd729a,69b92edce48e1470e1ca717f,0.0312,0.0312,1,22,184,24,1,onetwo,,,,,,,,,,,,,,,,,,,,,,,,,,,,,,,,,,,,,,,,,,,,,,,,,,,,,,,,,,,,,,,,,,,,,,,,,,,,,,,,,,,,,,,,,,,,,,,,,,,,,,,,,,,,,,,,,,,,,,,,,,,,,,,,,,,,,,,,,
,,69b306d0aabcb968f7ca7ec5,2026-03-17_03h37.45.259,kallum_motion_pilot_GIST_update_2,2026.1.1,Win32,59.88023952,69b306d0aabcb968f7ca7ec5,69b92ab4aef6dee357cd729a,69b92edce48e1470e1ca717f,0.0313,0.0313,1,23,185,156,1,sevenfive,,,,,,,,,,,,,,,,,,,,,,,,,,,,,,,,,,,,,,,,,,,,,,,,,,,,,,,,,,,,,,,,,,,,,,,,,,,,,,,,,,,,,,,,,,,,,,,,,,,,,,,,,,,,,,,,,,,,,,,,,,,,,,,,,,,,,,,,,
,,69b306d0aabcb968f7ca7ec5,2026-03-17_03h37.45.259,kallum_motion_pilot_GIST_update_2,2026.1.1,Win32,59.88023952,69b306d0aabcb968f7ca7ec5,69b92ab4aef6dee357cd729a,69b92edce48e1470e1ca717f,0.0313,0.0313,1,24,186,99,1,sixeight,,,,,,,,,,,,,,,,,,,,,,,,,,,,,,,,,,,,,,,,,,,,,,,,,,,,,,,,,,,,,,,,,,,,,,,,,,,,,,,,,,,,,,,,,,,,,,,,,,,,,,,,,,,,,,,,,,,,,,,,,,,,,,,,,,,,,,,,,
,,69b306d0aabcb968f7ca7ec5,2026-03-17_03h37.45.259,kallum_motion_pilot_GIST_update_2,2026.1.1,Win32,59.88023952,69b306d0aabcb968f7ca7ec5,69b92ab4aef6dee357cd729a,69b92edce48e1470e1ca717f,0.0314,0.0314,1,25,187,36,1,threeone,,,,,,,,,,,,,,,,,,,,,,,,,,,,,,,,,,,,,,,,,,,,,,,,,,,,,,,,,,,,,,,,,,,,,,,,,,,,,,,,,,,,,,,,,,,,,,,,,,,,,,,,,,,,,,,,,,,,,,,,,,,,,,,,,,,,,,,,,
,,69b306d0aabcb968f7ca7ec5,2026-03-17_03h37.45.259,kallum_motion_pilot_GIST_update_2,2026.1.1,Win32,59.88023952,69b306d0aabcb968f7ca7ec5,69b92ab4aef6dee357cd729a,69b92edce48e1470e1ca717f,0.0314,0.0314,1,26,188,28,1,threeone,,,,,,,,,,,,,,,,,,,,,,,,,,,,,,,,,,,,,,,,,,,,,,,,,,,,,,,,,,,,,,,,,,,,,,,,,,,,,,,,,,,,,,,,,,,,,,,,,,,,,,,,,,,,,,,,,,,,,,,,,,,,,,,,,,,,,,,,,
,,69b306d0aabcb968f7ca7ec5,2026-03-17_03h37.45.259,kallum_motion_pilot_GIST_update_2,2026.1.1,Win32,59.88023952,69b306d0aabcb968f7ca7ec5,69b92ab4aef6dee357cd729a,69b92edce48e1470e1ca717f,0.0315,0.0315,1,27,189,155,1,sixeight,,,,,,,,,,,,,,,,,,,,,,,,,,,,,,,,,,,,,,,,,,,,,,,,,,,,,,,,,,,,,,,,,,,,,,,,,,,,,,,,,,,,,,,,,,,,,,,,,,,,,,,,,,,,,,,,,,,,,,,,,,,,,,,,,,,,,,,,,
,,69b306d0aabcb968f7ca7ec5,2026-03-17_03h37.45.259,kallum_motion_pilot_GIST_update_2,2026.1.1,Win32,59.88023952,69b306d0aabcb968f7ca7ec5,69b92ab4aef6dee357cd729a,69b92edce48e1470e1ca717f,0.0316,0.0316,1,28,190,112,1,fivesix,,,,,,,,,,,,,,,,,,,,,,,,,,,,,,,,,,,,,,,,,,,,,,,,,,,,,,,,,,,,,,,,,,,,,,,,,,,,,,,,,,,,,,,,,,,,,,,,,,,,,,,,,,,,,,,,,,,,,,,,,,,,,,,,,,,,,,,,,
,,69b306d0aabcb968f7ca7ec5,2026-03-17_03h37.45.259,kallum_motion_pilot_GIST_update_2,2026.1.1,Win32,59.88023952,69b306d0aabcb968f7ca7ec5,69b92ab4aef6dee357cd729a,69b92edce48e1470e1ca717f,0.0317,0.0317,1,29,191,86,1,eightsix,,,,,,,,,,,,,,,,,,,,,,,,,,,,,,,,,,,,,,,,,,,,,,,,,,,,,,,,,,,,,,,,,,,,,,,,,,,,,,,,,,,,,,,,,,,,,,,,,,,,,,,,,,,,,,,,,,,,,,,,,,,,,,,,,,,,,,,,,
,,69b306d0aabcb968f7ca7ec5,2026-03-17_03h37.45.259,kallum_motion_pilot_GIST_update_2,2026.1.1,Win32,59.88023952,69b306d0aabcb968f7ca7ec5,69b92ab4aef6dee357cd729a,69b92edce48e1470e1ca717f,0.0318,0.0318,1,30,192,137,1,fiveseven,,,,,,,,,,,,,,,,,,,,,,,,,,,,,,,,,,,,,,,,,,,,,,,,,,,,,,,,,,,,,,,,,,,,,,,,,,,,,,,,,,,,,,,,,,,,,,,,,,,,,,,,,,,,,,,,,,,,,,,,,,,,,,,,,,,,,,,,,
,,69b306d0aabcb968f7ca7ec5,2026-03-17_03h37.45.259,kallum_motion_pilot_GIST_update_2,2026.1.1,Win32,59.88023952,69b306d0aabcb968f7ca7ec5,69b92ab4aef6dee357cd729a,69b92edce48e1470e1ca717f,0.0319,0.0319,1,31,193,95,1,eightseven,,,,,,,,,,,,,,,,,,,,,,,,,,,,,,,,,,,,,,,,,,,,,,,,,,,,,,,,,,,,,,,,,,,,,,,,,,,,,,,,,,,,,,,,,,,,,,,,,,,,,,,,,,,,,,,,,,,,,,,,,,,,,,,,,,,,,,,,,
,,69b306d0aabcb968f7ca7ec5,2026-03-17_03h37.45.259,kallum_motion_pilot_GIST_update_2,2026.1.1,Win32,59.88023952,69b306d0aabcb968f7ca7ec5,69b92ab4aef6dee357cd729a,69b92edce48e1470e1ca717f,0.032,0.032,1,32,194,132,1,sevenfive,,,,,,,,,,,,,,,,,,,,,,,,,,,,,,,,,,,,,,,,,,,,,,,,,,,,,,,,,,,,,,,,,,,,,,,,,,,,,,,,,,,,,,,,,,,,,,,,,,,,,,,,,,,,,,,,,,,,,,,,,,,,,,,,,,,,,,,,,
,,69b306d0aabcb968f7ca7ec5,2026-03-17_03h37.45.259,kallum_motion_pilot_GIST_update_2,2026.1.1,Win32,59.88023952,69b306d0aabcb968f7ca7ec5,69b92ab4aef6dee357cd729a,69b92edce48e1470e1ca717f,0.032,0.032,1,33,195,56,1,onetwo,,,,,,,,,,,,,,,,,,,,,,,,,,,,,,,,,,,,,,,,,,,,,,,,,,,,,,,,,,,,,,,,,,,,,,,,,,,,,,,,,,,,,,,,,,,,,,,,,,,,,,,,,,,,,,,,,,,,,,,,,,,,,,,,,,,,,,,,,
,,69b306d0aabcb968f7ca7ec5,2026-03-17_03h37.45.259,kallum_motion_pilot_GIST_update_2,2026.1.1,Win32,59.88023952,69b306d0aabcb968f7ca7ec5,69b92ab4aef6dee357cd729a,69b92edce48e1470e1ca717f,0.0322,0.0322,1,34,196,90,1,sixfive,,,,,,,,,,,,,,,,,,,,,,,,,,,,,,,,,,,,,,,,,,,,,,,,,,,,,,,,,,,,,,,,,,,,,,,,,,,,,,,,,,,,,,,,,,,,,,,,,,,,,,,,,,,,,,,,,,,,,,,,,,,,,,,,,,,,,,,,,
,,69b306d0aabcb968f7ca7ec5,2026-03-17_03h37.45.259,kallum_motion_pilot_GIST_update_2,2026.1.1,Win32,59.88023952,69b306d0aabcb968f7ca7ec5,69b92ab4aef6dee357cd729a,69b92edce48e1470e1ca717f,0.0322,0.0322,1,35,197,16,1,onetwo,,,,,,,,,,,,,,,,,,,,,,,,,,,,,,,,,,,,,,,,,,,,,,,,,,,,,,,,,,,,,,,,,,,,,,,,,,,,,,,,,,,,,,,,,,,,,,,,,,,,,,,,,,,,,,,,,,,,,,,,,,,,,,,,,,,,,,,,,
,,69b306d0aabcb968f7ca7ec5,2026-03-17_03h37.45.259,kallum_motion_pilot_GIST_update_2,2026.1.1,Win32,59.88023952,69b306d0aabcb968f7ca7ec5,69b92ab4aef6dee357cd729a,69b92edce48e1470e1ca717f,0.0323,0.0323,1,36,198,77,1,threefour,,,,,,,,,,,,,,,,,,,,,,,,,,,,,,,,,,,,,,,,,,,,,,,,,,,,,,,,,,,,,,,,,,,,,,,,,,,,,,,,,,,,,,,,,,,,,,,,,,,,,,,,,,,,,,,,,,,,,,,,,,,,,,,,,,,,,,,,,
,,69b306d0aabcb968f7ca7ec5,2026-03-17_03h37.45.259,kallum_motion_pilot_GIST_update_2,2026.1.1,Win32,59.88023952,69b306d0aabcb968f7ca7ec5,69b92ab4aef6dee357cd729a,69b92edce48e1470e1ca717f,0.0324,0.0324,1,37,199,9,1,onethree,,,,,,,,,,,,,,,,,,,,,,,,,,,,,,,,,,,,,,,,,,,,,,,,,,,,,,,,,,,,,,,,,,,,,,,,,,,,,,,,,,,,,,,,,,,,,,,,,,,,,,,,,,,,,,,,,,,,,,,,,,,,,,,,,,,,,,,,,
,,69b306d0aabcb968f7ca7ec5,2026-03-17_03h37.45.259,kallum_motion_pilot_GIST_update_2,2026.1.1,Win32,59.88023952,69b306d0aabcb968f7ca7ec5,69b92ab4aef6dee357cd729a,69b92edce48e1470e1ca717f,0.0325,0.0325,1,38,200,92,1,sevenfive,,,,,,,,,,,,,,,,,,,,,,,,,,,,,,,,,,,,,,,,,,,,,,,,,,,,,,,,,,,,,,,,,,,,,,,,,,,,,,,,,,,,,,,,,,,,,,,,,,,,,,,,,,,,,,,,,,,,,,,,,,,,,,,,,,,,,,,,,
,,69b306d0aabcb968f7ca7ec5,2026-03-17_03h37.45.259,kallum_motion_pilot_GIST_update_2,2026.1.1,Win32,59.88023952,69b306d0aabcb968f7ca7ec5,69b92ab4aef6dee357cd729a,69b92edce48e1470e1ca717f,0.0326,0.0326,1,39,201,38,1,fourtwo,,,,,,,,,,,,,,,,,,,,,,,,,,,,,,,,,,,,,,,,,,,,,,,,,,,,,,,,,,,,,,,,,,,,,,,,,,,,,,,,,,,,,,,,,,,,,,,,,,,,,,,,,,,,,,,,,,,,,,,,,,,,,,,,,,,,,,,,,
,,69b306d0aabcb968f7ca7ec5,2026-03-17_03h37.45.259,kallum_motion_pilot_GIST_update_2,2026.1.1,Win32,59.88023952,69b306d0aabcb968f7ca7ec5,69b92ab4aef6dee357cd729a,69b92edce48e1470e1ca717f,0.0326,0.0326,1,40,202,65,1,onethree,,,,,,,,,,,,,,,,,,,,,,,,,,,,,,,,,,,,,,,,,,,,,,,,,,,,,,,,,,,,,,,,,,,,,,,,,,,,,,,,,,,,,,,,,,,,,,,,,,,,,,,,,,,,,,,,,,,,,,,,,,,,,,,,,,,,,,,,,
,,69b306d0aabcb968f7ca7ec5,2026-03-17_03h37.45.259,kallum_motion_pilot_GIST_update_2,2026.1.1,Win32,59.88023952,69b306d0aabcb968f7ca7ec5,69b92ab4aef6dee357cd729a,69b92edce48e1470e1ca717f,0.0327,0.0327,1,41,203,116,1,sevenfive,,,,,,,,,,,,,,,,,,,,,,,,,,,,,,,,,,,,,,,,,,,,,,,,,,,,,,,,,,,,,,,,,,,,,,,,,,,,,,,,,,,,,,,,,,,,,,,,,,,,,,,,,,,,,,,,,,,,,,,,,,,,,,,,,,,,,,,,,
,,69b306d0aabcb968f7ca7ec5,2026-03-17_03h37.45.259,kallum_motion_pilot_GIST_update_2,2026.1.1,Win32,59.88023952,69b306d0aabcb968f7ca7ec5,69b92ab4aef6dee357cd729a,69b92edce48e1470e1ca717f,0.0328,0.0328,1,42,204,135,1,eightseven,,,,,,,,,,,,,,,,,,,,,,,,,,,,,,,,,,,,,,,,,,,,,,,,,,,,,,,,,,,,,,,,,,,,,,,,,,,,,,,,,,,,,,,,,,,,,,,,,,,,,,,,,,,,,,,,,,,,,,,,,,,,,,,,,,,,,,,,,
,,69b306d0aabcb968f7ca7ec5,2026-03-17_03h37.45.259,kallum_motion_pilot_GIST_update_2,2026.1.1,Win32,59.88023952,69b306d0aabcb968f7ca7ec5,69b92ab4aef6dee357cd729a,69b92edce48e1470e1ca717f,0.033,0.033,1,43,205,30,1,fourtwo,,,,,,,,,,,,,,,,,,,,,,,,,,,,,,,,,,,,,,,,,,,,,,,,,,,,,,,,,,,,,,,,,,,,,,,,,,,,,,,,,,,,,,,,,,,,,,,,,,,,,,,,,,,,,,,,,,,,,,,,,,,,,,,,,,,,,,,,,
,,69b306d0aabcb968f7ca7ec5,2026-03-17_03h37.45.259,kallum_motion_pilot_GIST_update_2,2026.1.1,Win32,59.88023952,69b306d0aabcb968f7ca7ec5,69b92ab4aef6dee357cd729a,69b92edce48e1470e1ca717f,0.033,0.033,1,44,206,11,1,twofour,,,,,,,,,,,,,,,,,,,,,,,,,,,,,,,,,,,,,,,,,,,,,,,,,,,,,,,,,,,,,,,,,,,,,,,,,,,,,,,,,,,,,,,,,,,,,,,,,,,,,,,,,,,,,,,,,,,,,,,,,,,,,,,,,,,,,,,,,
,,69b306d0aabcb968f7ca7ec5,2026-03-17_03h37.45.259,kallum_motion_pilot_GIST_update_2,2026.1.1,Win32,59.88023952,69b306d0aabcb968f7ca7ec5,69b92ab4aef6dee357cd729a,69b92edce48e1470e1ca717f,0.0331,0.0331,1,45,207,118,1,eightsix,,,,,,,,,,,,,,,,,,,,,,,,,,,,,,,,,,,,,,,,,,,,,,,,,,,,,,,,,,,,,,,,,,,,,,,,,,,,,,,,,,,,,,,,,,,,,,,,,,,,,,,,,,,,,,,,,,,,,,,,,,,,,,,,,,,,,,,,,
,,69b306d0aabcb968f7ca7ec5,2026-03-17_03h37.45.259,kallum_motion_pilot_GIST_update_2,2026.1.1,Win32,59.88023952,69b306d0aabcb968f7ca7ec5,69b92ab4aef6dee357cd729a,69b92edce48e1470e1ca717f,0.0332,0.0332,1,46,208,151,1,eightseven,,,,,,,,,,,,,,,,,,,,,,,,,,,,,,,,,,,,,,,,,,,,,,,,,,,,,,,,,,,,,,,,,,,,,,,,,,,,,,,,,,,,,,,,,,,,,,,,,,,,,,,,,,,,,,,,,,,,,,,,,,,,,,,,,,,,,,,,,
,,69b306d0aabcb968f7ca7ec5,2026-03-17_03h37.45.259,kallum_motion_pilot_GIST_update_2,2026.1.1,Win32,59.88023952,69b306d0aabcb968f7ca7ec5,69b92ab4aef6dee357cd729a,69b92edce48e1470e1ca717f,0.0332,0.0332,1,47,209,17,1,onethree,,,,,,,,,,,,,,,,,,,,,,,,,,,,,,,,,,,,,,,,,,,,,,,,,,,,,,,,,,,,,,,,,,,,,,,,,,,,,,,,,,,,,,,,,,,,,,,,,,,,,,,,,,,,,,,,,,,,,,,,,,,,,,,,,,,,,,,,,
,,69b306d0aabcb968f7ca7ec5,2026-03-17_03h37.45.259,kallum_motion_pilot_GIST_update_2,2026.1.1,Win32,59.88023952,69b306d0aabcb968f7ca7ec5,69b92ab4aef6dee357cd729a,69b92edce48e1470e1ca717f,0.0333,0.0333,1,48,210,13,1,threefour,,,,,,,,,,,,,,,,,,,,,,,,,,,,,,,,,,,,,,,,,,,,,,,,,,,,,,,,,,,,,,,,,,,,,,,,,,,,,,,,,,,,,,,,,,,,,,,,,,,,,,,,,,,,,,,,,,,,,,,,,,,,,,,,,,,,,,,,,
,,69b306d0aabcb968f7ca7ec5,2026-03-17_03h37.45.259,kallum_motion_pilot_GIST_update_2,2026.1.1,Win32,59.88023952,69b306d0aabcb968f7ca7ec5,69b92ab4aef6dee357cd729a,69b92edce48e1470e1ca717f,0.0334,0.0334,1,49,211,3,1,twofour,,,,,,,,,,,,,,,,,,,,,,,,,,,,,,,,,,,,,,,,,,,,,,,,,,,,,,,,,,,,,,,,,,,,,,,,,,,,,,,,,,,,,,,,,,,,,,,,,,,,,,,,,,,,,,,,,,,,,,,,,,,,,,,,,,,,,,,,,
,,69b306d0aabcb968f7ca7ec5,2026-03-17_03h37.45.259,kallum_motion_pilot_GIST_update_2,2026.1.1,Win32,59.88023952,69b306d0aabcb968f7ca7ec5,69b92ab4aef6dee357cd729a,69b92edce48e1470e1ca717f,0.0335,0.0335,1,50,212,122,1,sixfive,,,,,,,,,,,,,,,,,,,,,,,,,,,,,,,,,,,,,,,,,,,,,,,,,,,,,,,,,,,,,,,,,,,,,,,,,,,,,,,,,,,,,,,,,,,,,,,,,,,,,,,,,,,,,,,,,,,,,,,,,,,,,,,,,,,,,,,,,
,,69b306d0aabcb968f7ca7ec5,2026-03-17_03h37.45.259,kallum_motion_pilot_GIST_update_2,2026.1.1,Win32,59.88023952,69b306d0aabcb968f7ca7ec5,69b92ab4aef6dee357cd729a,69b92edce48e1470e1ca717f,0.0335,0.0335,1,51,213,70,1,fourtwo,,,,,,,,,,,,,,,,,,,,,,,,,,,,,,,,,,,,,,,,,,,,,,,,,,,,,,,,,,,,,,,,,,,,,,,,,,,,,,,,,,,,,,,,,,,,,,,,,,,,,,,,,,,,,,,,,,,,,,,,,,,,,,,,,,,,,,,,,
,,69b306d0aabcb968f7ca7ec5,2026-03-17_03h37.45.259,kallum_motion_pilot_GIST_update_2,2026.1.1,Win32,59.88023952,69b306d0aabcb968f7ca7ec5,69b92ab4aef6dee357cd729a,69b92edce48e1470e1ca717f,0.0336,0.0337,1,52,214,66,1,twoone,,,,,,,,,,,,,,,,,,,,,,,,,,,,,,,,,,,,,,,,,,,,,,,,,,,,,,,,,,,,,,,,,,,,,,,,,,,,,,,,,,,,,,,,,,,,,,,,,,,,,,,,,,,,,,,,,,,,,,,,,,,,,,,,,,,,,,,,,
,,69b306d0aabcb968f7ca7ec5,2026-03-17_03h37.45.259,kallum_motion_pilot_GIST_update_2,2026.1.1,Win32,59.88023952,69b306d0aabcb968f7ca7ec5,69b92ab4aef6dee357cd729a,69b92edce48e1470e1ca717f,0.0337,0.0337,1,53,215,29,1,threefour,,,,,,,,,,,,,,,,,,,,,,,,,,,,,,,,,,,,,,,,,,,,,,,,,,,,,,,,,,,,,,,,,,,,,,,,,,,,,,,,,,,,,,,,,,,,,,,,,,,,,,,,,,,,,,,,,,,,,,,,,,,,,,,,,,,,,,,,,
,,69b306d0aabcb968f7ca7ec5,2026-03-17_03h37.45.259,kallum_motion_pilot_GIST_update_2,2026.1.1,Win32,59.88023952,69b306d0aabcb968f7ca7ec5,69b92ab4aef6dee357cd729a,69b92edce48e1470e1ca717f,0.0338,0.0338,1,54,216,18,1,twoone,,,,,,,,,,,,,,,,,,,,,,,,,,,,,,,,,,,,,,,,,,,,,,,,,,,,,,,,,,,,,,,,,,,,,,,,,,,,,,,,,,,,,,,,,,,,,,,,,,,,,,,,,,,,,,,,,,,,,,,,,,,,,,,,,,,,,,,,,
,,69b306d0aabcb968f7ca7ec5,2026-03-17_03h37.45.259,kallum_motion_pilot_GIST_update_2,2026.1.1,Win32,59.88023952,69b306d0aabcb968f7ca7ec5,69b92ab4aef6dee357cd729a,69b92edce48e1470e1ca717f,0.0339,0.0339,1,55,217,124,1,sevenfive,,,,,,,,,,,,,,,,,,,,,,,,,,,,,,,,,,,,,,,,,,,,,,,,,,,,,,,,,,,,,,,,,,,,,,,,,,,,,,,,,,,,,,,,,,,,,,,,,,,,,,,,,,,,,,,,,,,,,,,,,,,,,,,,,,,,,,,,,
,,69b306d0aabcb968f7ca7ec5,2026-03-17_03h37.45.259,kallum_motion_pilot_GIST_update_2,2026.1.1,Win32,59.88023952,69b306d0aabcb968f7ca7ec5,69b92ab4aef6dee357cd729a,69b92edce48e1470e1ca717f,0.034,0.034,1,56,218,134,1,eightsix,,,,,,,,,,,,,,,,,,,,,,,,,,,,,,,,,,,,,,,,,,,,,,,,,,,,,,,,,,,,,,,,,,,,,,,,,,,,,,,,,,,,,,,,,,,,,,,,,,,,,,,,,,,,,,,,,,,,,,,,,,,,,,,,,,,,,,,,,
,,69b306d0aabcb968f7ca7ec5,2026-03-17_03h37.45.259,kallum_motion_pilot_GIST_update_2,2026.1.1,Win32,59.88023952,69b306d0aabcb968f7ca7ec5,69b92ab4aef6dee357cd729a,69b92edce48e1470e1ca717f,0.0341,0.0341,1,57,219,89,1,fiveseven,,,,,,,,,,,,,,,,,,,,,,,,,,,,,,,,,,,,,,,,,,,,,,,,,,,,,,,,,,,,,,,,,,,,,,,,,,,,,,,,,,,,,,,,,,,,,,,,,,,,,,,,,,,,,,,,,,,,,,,,,,,,,,,,,,,,,,,,,
,,69b306d0aabcb968f7ca7ec5,2026-03-17_03h37.45.259,kallum_motion_pilot_GIST_update_2,2026.1.1,Win32,59.88023952,69b306d0aabcb968f7ca7ec5,69b92ab4aef6dee357cd729a,69b92edce48e1470e1ca717f,0.0341,0.0341,1,58,220,0,1,onetwo,,,,,,,,,,,,,,,,,,,,,,,,,,,,,,,,,,,,,,,,,,,,,,,,,,,,,,,,,,,,,,,,,,,,,,,,,,,,,,,,,,,,,,,,,,,,,,,,,,,,,,,,,,,,,,,,,,,,,,,,,,,,,,,,,,,,,,,,,
,,69b306d0aabcb968f7ca7ec5,2026-03-17_03h37.45.259,kallum_motion_pilot_GIST_update_2,2026.1.1,Win32,59.88023952,69b306d0aabcb968f7ca7ec5,69b92ab4aef6dee357cd729a,69b92edce48e1470e1ca717f,0.0342,0.0342,1,59,221,21,1,threefour,,,,,,,,,,,,,,,,,,,,,,,,,,,,,,,,,,,,,,,,,,,,,,,,,,,,,,,,,,,,,,,,,,,,,,,,,,,,,,,,,,,,,,,,,,,,,,,,,,,,,,,,,,,,,,,,,,,,,,,,,,,,,,,,,,,,,,,,,
,,69b306d0aabcb968f7ca7ec5,2026-03-17_03h37.45.259,kallum_motion_pilot_GIST_update_2,2026.1.1,Win32,59.88023952,69b306d0aabcb968f7ca7ec5,69b92ab4aef6dee357cd729a,69b92edce48e1470e1ca717f,0.0343,0.0343,1,60,222,72,1,onetwo,,,,,,,,,,,,,,,,,,,,,,,,,,,,,,,,,,,,,,,,,,,,,,,,,,,,,,,,,,,,,,,,,,,,,,,,,,,,,,,,,,,,,,,,,,,,,,,,,,,,,,,,,,,,,,,,,,,,,,,,,,,,,,,,,,,,,,,,,
,,69b306d0aabcb968f7ca7ec5,2026-03-17_03h37.45.259,kallum_motion_pilot_GIST_update_2,2026.1.1,Win32,59.88023952,69b306d0aabcb968f7ca7ec5,69b92ab4aef6dee357cd729a,69b92edce48e1470e1ca717f,0.0344,0.0344,1,61,223,88,1,fivesix,,,,,,,,,,,,,,,,,,,,,,,,,,,,,,,,,,,,,,,,,,,,,,,,,,,,,,,,,,,,,,,,,,,,,,,,,,,,,,,,,,,,,,,,,,,,,,,,,,,,,,,,,,,,,,,,,,,,,,,,,,,,,,,,,,,,,,,,,
,,69b306d0aabcb968f7ca7ec5,2026-03-17_03h37.45.259,kallum_motion_pilot_GIST_update_2,2026.1.1,Win32,59.88023952,69b306d0aabcb968f7ca7ec5,69b92ab4aef6dee357cd729a,69b92edce48e1470e1ca717f,0.0345,0.0345,1,62,224,82,1,sixfive,,,,,,,,,,,,,,,,,,,,,,,,,,,,,,,,,,,,,,,,,,,,,,,,,,,,,,,,,,,,,,,,,,,,,,,,,,,,,,,,,,,,,,,,,,,,,,,,,,,,,,,,,,,,,,,,,,,,,,,,,,,,,,,,,,,,,,,,,
,,69b306d0aabcb968f7ca7ec5,2026-03-17_03h37.45.259,kallum_motion_pilot_GIST_update_2,2026.1.1,Win32,59.88023952,69b306d0aabcb968f7ca7ec5,69b92ab4aef6dee357cd729a,69b92edce48e1470e1ca717f,0.0346,0.0346,1,63,225,26,1,twoone,,,,,,,,,,,,,,,,,,,,,,,,,,,,,,,,,,,,,,,,,,,,,,,,,,,,,,,,,,,,,,,,,,,,,,,,,,,,,,,,,,,,,,,,,,,,,,,,,,,,,,,,,,,,,,,,,,,,,,,,,,,,,,,,,,,,,,,,,
,,69b306d0aabcb968f7ca7ec5,2026-03-17_03h37.45.259,kallum_motion_pilot_GIST_update_2,2026.1.1,Win32,59.88023952,69b306d0aabcb968f7ca7ec5,69b92ab4aef6dee357cd729a,69b92edce48e1470e1ca717f,0.0346,0.0346,1,64,226,136,1,fivesix,,,,,,,,,,,,,,,,,,,,,,,,,,,,,,,,,,,,,,,,,,,,,,,,,,,,,,,,,,,,,,,,,,,,,,,,,,,,,,,,,,,,,,,,,,,,,,,,,,,,,,,,,,,,,,,,,,,,,,,,,,,,,,,,,,,,,,,,,
,,69b306d0aabcb968f7ca7ec5,2026-03-17_03h37.45.259,kallum_motion_pilot_GIST_update_2,2026.1.1,Win32,59.88023952,69b306d0aabcb968f7ca7ec5,69b92ab4aef6dee357cd729a,69b92edce48e1470e1ca717f,0.0347,0.0347,1,65,227,81,1,fiveseven,,,,,,,,,,,,,,,,,,,,,,,,,,,,,,,,,,,,,,,,,,,,,,,,,,,,,,,,,,,,,,,,,,,,,,,,,,,,,,,,,,,,,,,,,,,,,,,,,,,,,,,,,,,,,,,,,,,,,,,,,,,,,,,,,,,,,,,,,
,,69b306d0aabcb968f7ca7ec5,2026-03-17_03h37.45.259,kallum_motion_pilot_GIST_update_2,2026.1.1,Win32,59.88023952,69b306d0aabcb968f7ca7ec5,69b92ab4aef6dee357cd729a,69b92edce48e1470e1ca717f,0.0348,0.0348,1,66,228,27,1,twofour,,,,,,,,,,,,,,,,,,,,,,,,,,,,,,,,,,,,,,,,,,,,,,,,,,,,,,,,,,,,,,,,,,,,,,,,,,,,,,,,,,,,,,,,,,,,,,,,,,,,,,,,,,,,,,,,,,,,,,,,,,,,,,,,,,,,,,,,,
,,69b306d0aabcb968f7ca7ec5,2026-03-17_03h37.45.259,kallum_motion_pilot_GIST_update_2,2026.1.1,Win32,59.88023952,69b306d0aabcb968f7ca7ec5,69b92ab4aef6dee357cd729a,69b92edce48e1470e1ca717f,0.0349,0.0349,1,67,229,146,1,sixfive,,,,,,,,,,,,,,,,,,,,,,,,,,,,,,,,,,,,,,,,,,,,,,,,,,,,,,,,,,,,,,,,,,,,,,,,,,,,,,,,,,,,,,,,,,,,,,,,,,,,,,,,,,,,,,,,,,,,,,,,,,,,,,,,,,,,,,,,,
,,69b306d0aabcb968f7ca7ec5,2026-03-17_03h37.45.259,kallum_motion_pilot_GIST_update_2,2026.1.1,Win32,59.88023952,69b306d0aabcb968f7ca7ec5,69b92ab4aef6dee357cd729a,69b92edce48e1470e1ca717f,0.0349,0.0349,1,68,230,25,1,onethree,,,,,,,,,,,,,,,,,,,,,,,,,,,,,,,,,,,,,,,,,,,,,,,,,,,,,,,,,,,,,,,,,,,,,,,,,,,,,,,,,,,,,,,,,,,,,,,,,,,,,,,,,,,,,,,,,,,,,,,,,,,,,,,,,,,,,,,,,
,,69b306d0aabcb968f7ca7ec5,2026-03-17_03h37.45.259,kallum_motion_pilot_GIST_update_2,2026.1.1,Win32,59.88023952,69b306d0aabcb968f7ca7ec5,69b92ab4aef6dee357cd729a,69b92edce48e1470e1ca717f,0.0351,0.0351,1,69,231,22,1,fourtwo,,,,,,,,,,,,,,,,,,,,,,,,,,,,,,,,,,,,,,,,,,,,,,,,,,,,,,,,,,,,,,,,,,,,,,,,,,,,,,,,,,,,,,,,,,,,,,,,,,,,,,,,,,,,,,,,,,,,,,,,,,,,,,,,,,,,,,,,,
,,69b306d0aabcb968f7ca7ec5,2026-03-17_03h37.45.259,kallum_motion_pilot_GIST_update_2,2026.1.1,Win32,59.88023952,69b306d0aabcb968f7ca7ec5,69b92ab4aef6dee357cd729a,69b92edce48e1470e1ca717f,0.0352,0.0352,1,70,232,37,1,threefour,,,,,,,,,,,,,,,,,,,,,,,,,,,,,,,,,,,,,,,,,,,,,,,,,,,,,,,,,,,,,,,,,,,,,,,,,,,,,,,,,,,,,,,,,,,,,,,,,,,,,,,,,,,,,,,,,,,,,,,,,,,,,,,,,,,,,,,,,
,,69b306d0aabcb968f7ca7ec5,2026-03-17_03h37.45.259,kallum_motion_pilot_GIST_update_2,2026.1.1,Win32,59.88023952,69b306d0aabcb968f7ca7ec5,69b92ab4aef6dee357cd729a,69b92edce48e1470e1ca717f,0.0353,0.0353,1,71,233,8,1,onetwo,,,,,,,,,,,,,,,,,,,,,,,,,,,,,,,,,,,,,,,,,,,,,,,,,,,,,,,,,,,,,,,,,,,,,,,,,,,,,,,,,,,,,,,,,,,,,,,,,,,,,,,,,,,,,,,,,,,,,,,,,,,,,,,,,,,,,,,,,
,,69b306d0aabcb968f7ca7ec5,2026-03-17_03h37.45.259,kallum_motion_pilot_GIST_update_2,2026.1.1,Win32,59.88023952,69b306d0aabcb968f7ca7ec5,69b92ab4aef6dee357cd729a,69b92edce48e1470e1ca717f,0.0353,0.0353,1,72,234,39,1,fourthree,,,,,,,,,,,,,,,,,,,,,,,,,,,,,,,,,,,,,,,,,,,,,,,,,,,,,,,,,,,,,,,,,,,,,,,,,,,,,,,,,,,,,,,,,,,,,,,,,,,,,,,,,,,,,,,,,,,,,,,,,,,,,,,,,,,,,,,,,
,,69b306d0aabcb968f7ca7ec5,2026-03-17_03h37.45.259,kallum_motion_pilot_GIST_update_2,2026.1.1,Win32,59.88023952,69b306d0aabcb968f7ca7ec5,69b92ab4aef6dee357cd729a,69b92edce48e1470e1ca717f,0.0354,0.0354,1,73,235,69,1,threefour,,,,,,,,,,,,,,,,,,,,,,,,,,,,,,,,,,,,,,,,,,,,,,,,,,,,,,,,,,,,,,,,,,,,,,,,,,,,,,,,,,,,,,,,,,,,,,,,,,,,,,,,,,,,,,,,,,,,,,,,,,,,,,,,,,,,,,,,,
,,69b306d0aabcb968f7ca7ec5,2026-03-17_03h37.45.259,kallum_motion_pilot_GIST_update_2,2026.1.1,Win32,59.88023952,69b306d0aabcb968f7ca7ec5,69b92ab4aef6dee357cd729a,69b92edce48e1470e1ca717f,0.0355,0.0355,1,74,236,84,1,sevenfive,,,,,,,,,,,,,,,,,,,,,,,,,,,,,,,,,,,,,,,,,,,,,,,,,,,,,,,,,,,,,,,,,,,,,,,,,,,,,,,,,,,,,,,,,,,,,,,,,,,,,,,,,,,,,,,,,,,,,,,,,,,,,,,,,,,,,,,,,
,,69b306d0aabcb968f7ca7ec5,2026-03-17_03h37.45.259,kallum_motion_pilot_GIST_update_2,2026.1.1,Win32,59.88023952,69b306d0aabcb968f7ca7ec5,69b92ab4aef6dee357cd729a,69b92edce48e1470e1ca717f,0.0355,0.0355,1,75,237,61,1,threefour,,,,,,,,,,,,,,,,,,,,,,,,,,,,,,,,,,,,,,,,,,,,,,,,,,,,,,,,,,,,,,,,,,,,,,,,,,,,,,,,,,,,,,,,,,,,,,,,,,,,,,,,,,,,,,,,,,,,,,,,,,,,,,,,,,,,,,,,,
,,69b306d0aabcb968f7ca7ec5,2026-03-17_03h37.45.259,kallum_motion_pilot_GIST_update_2,2026.1.1,Win32,59.88023952,69b306d0aabcb968f7ca7ec5,69b92ab4aef6dee357cd729a,69b92edce48e1470e1ca717f,0.0356,0.0356,1,76,238,83,1,sixeight,,,,,,,,,,,,,,,,,,,,,,,,,,,,,,,,,,,,,,,,,,,,,,,,,,,,,,,,,,,,,,,,,,,,,,,,,,,,,,,,,,,,,,,,,,,,,,,,,,,,,,,,,,,,,,,,,,,,,,,,,,,,,,,,,,,,,,,,,
,,69b306d0aabcb968f7ca7ec5,2026-03-17_03h37.45.259,kallum_motion_pilot_GIST_update_2,2026.1.1,Win32,59.88023952,69b306d0aabcb968f7ca7ec5,69b92ab4aef6dee357cd729a,69b92edce48e1470e1ca717f,0.0357,0.0357,1,77,239,104,1,fivesix,,,,,,,,,,,,,,,,,,,,,,,,,,,,,,,,,,,,,,,,,,,,,,,,,,,,,,,,,,,,,,,,,,,,,,,,,,,,,,,,,,,,,,,,,,,,,,,,,,,,,,,,,,,,,,,,,,,,,,,,,,,,,,,,,,,,,,,,,
,,69b306d0aabcb968f7ca7ec5,2026-03-17_03h37.45.259,kallum_motion_pilot_GIST_update_2,2026.1.1,Win32,59.88023952,69b306d0aabcb968f7ca7ec5,69b92ab4aef6dee357cd729a,69b92edce48e1470e1ca717f,0.0358,0.0358,1,78,240,12,1,threeone,,,,,,,,,,,,,,,,,,,,,,,,,,,,,,,,,,,,,,,,,,,,,,,,,,,,,,,,,,,,,,,,,,,,,,,,,,,,,,,,,,,,,,,,,,,,,,,,,,,,,,,,,,,,,,,,,,,,,,,,,,,,,,,,,,,,,,,,,
,,69b306d0aabcb968f7ca7ec5,2026-03-17_03h37.45.259,kallum_motion_pilot_GIST_update_2,2026.1.1,Win32,59.88023952,69b306d0aabcb968f7ca7ec5,69b92ab4aef6dee357cd729a,69b92edce48e1470e1ca717f,0.0359,0.0359,1,79,241,141,1,seveneight,,,,,,,,,,,,,,,,,,,,,,,,,,,,,,,,,,,,,,,,,,,,,,,,,,,,,,,,,,,,,,,,,,,,,,,,,,,,,,,,,,,,,,,,,,,,,,,,,,,,,,,,,,,,,,,,,,,,,,,,,,,,,,,,,,,,,,,,,
,,69b306d0aabcb968f7ca7ec5,2026-03-17_03h37.45.259,kallum_motion_pilot_GIST_update_2,2026.1.1,Win32,59.88023952,69b306d0aabcb968f7ca7ec5,69b92ab4aef6dee357cd729a,69b92edce48e1470e1ca717f,0.036,0.036,1,80,242,93,1,seveneight,,,,,,,,,,,,,,,,,,,,,,,,,,,,,,,,,,,,,,,,,,,,,,,,,,,,,,,,,,,,,,,,,,,,,,,,,,,,,,,,,,,,,,,,,,,,,,,,,,,,,,,,,,,,,,,,,,,,,,,,,,,,,,,,,,,,,,,,,
,,69b306d0aabcb968f7ca7ec5,2026-03-17_03h37.45.259,kallum_motion_pilot_GIST_update_2,2026.1.1,Win32,59.88023952,69b306d0aabcb968f7ca7ec5,69b92ab4aef6dee357cd729a,69b92edce48e1470e1ca717f,0.036,0.036,1,81,243,23,1,fourthree,,,,,,,,,,,,,,,,,,,,,,,,,,,,,,,,,,,,,,,,,,,,,,,,,,,,,,,,,,,,,,,,,,,,,,,,,,,,,,,,,,,,,,,,,,,,,,,,,,,,,,,,,,,,,,,,,,,,,,,,,,,,,,,,,,,,,,,,,
,,69b306d0aabcb968f7ca7ec5,2026-03-17_03h37.45.259,kallum_motion_pilot_GIST_update_2,2026.1.1,Win32,59.88023952,69b306d0aabcb968f7ca7ec5,69b92ab4aef6dee357cd729a,69b92edce48e1470e1ca717f,0.0362,0.0362,1,82,244,35,1,twofour,,,,,,,,,,,,,,,,,,,,,,,,,,,,,,,,,,,,,,,,,,,,,,,,,,,,,,,,,,,,,,,,,,,,,,,,,,,,,,,,,,,,,,,,,,,,,,,,,,,,,,,,,,,,,,,,,,,,,,,,,,,,,,,,,,,,,,,,,
,,69b306d0aabcb968f7ca7ec5,2026-03-17_03h37.45.259,kallum_motion_pilot_GIST_update_2,2026.1.1,Win32,59.88023952,69b306d0aabcb968f7ca7ec5,69b92ab4aef6dee357cd729a,69b92edce48e1470e1ca717f,0.0363,0.0363,1,83,245,58,1,twoone,,,,,,,,,,,,,,,,,,,,,,,,,,,,,,,,,,,,,,,,,,,,,,,,,,,,,,,,,,,,,,,,,,,,,,,,,,,,,,,,,,,,,,,,,,,,,,,,,,,,,,,,,,,,,,,,,,,,,,,,,,,,,,,,,,,,,,,,,
,,69b306d0aabcb968f7ca7ec5,2026-03-17_03h37.45.259,kallum_motion_pilot_GIST_update_2,2026.1.1,Win32,59.88023952,69b306d0aabcb968f7ca7ec5,69b92ab4aef6dee357cd729a,69b92edce48e1470e1ca717f,0.0363,0.0363,1,84,246,62,1,fourtwo,,,,,,,,,,,,,,,,,,,,,,,,,,,,,,,,,,,,,,,,,,,,,,,,,,,,,,,,,,,,,,,,,,,,,,,,,,,,,,,,,,,,,,,,,,,,,,,,,,,,,,,,,,,,,,,,,,,,,,,,,,,,,,,,,,,,,,,,,
,,69b306d0aabcb968f7ca7ec5,2026-03-17_03h37.45.259,kallum_motion_pilot_GIST_update_2,2026.1.1,Win32,59.88023952,69b306d0aabcb968f7ca7ec5,69b92ab4aef6dee357cd729a,69b92edce48e1470e1ca717f,0.0364,0.0364,1,85,247,68,1,threeone,,,,,,,,,,,,,,,,,,,,,,,,,,,,,,,,,,,,,,,,,,,,,,,,,,,,,,,,,,,,,,,,,,,,,,,,,,,,,,,,,,,,,,,,,,,,,,,,,,,,,,,,,,,,,,,,,,,,,,,,,,,,,,,,,,,,,,,,,
,,69b306d0aabcb968f7ca7ec5,2026-03-17_03h37.45.259,kallum_motion_pilot_GIST_update_2,2026.1.1,Win32,59.88023952,69b306d0aabcb968f7ca7ec5,69b92ab4aef6dee357cd729a,69b92edce48e1470e1ca717f,0.0365,0.0365,1,86,248,102,1,eightsix,,,,,,,,,,,,,,,,,,,,,,,,,,,,,,,,,,,,,,,,,,,,,,,,,,,,,,,,,,,,,,,,,,,,,,,,,,,,,,,,,,,,,,,,,,,,,,,,,,,,,,,,,,,,,,,,,,,,,,,,,,,,,,,,,,,,,,,,,
,,69b306d0aabcb968f7ca7ec5,2026-03-17_03h37.45.259,kallum_motion_pilot_GIST_update_2,2026.1.1,Win32,59.88023952,69b306d0aabcb968f7ca7ec5,69b92ab4aef6dee357cd729a,69b92edce48e1470e1ca717f,0.0365,0.0365,1,87,249,51,1,twofour,,,,,,,,,,,,,,,,,,,,,,,,,,,,,,,,,,,,,,,,,,,,,,,,,,,,,,,,,,,,,,,,,,,,,,,,,,,,,,,,,,,,,,,,,,,,,,,,,,,,,,,,,,,,,,,,,,,,,,,,,,,,,,,,,,,,,,,,,
,,69b306d0aabcb968f7ca7ec5,2026-03-17_03h37.45.259,kallum_motion_pilot_GIST_update_2,2026.1.1,Win32,59.88023952,69b306d0aabcb968f7ca7ec5,69b92ab4aef6dee357cd729a,69b92edce48e1470e1ca717f,0.0367,0.0367,1,88,250,33,1,onethree,,,,,,,,,,,,,,,,,,,,,,,,,,,,,,,,,,,,,,,,,,,,,,,,,,,,,,,,,,,,,,,,,,,,,,,,,,,,,,,,,,,,,,,,,,,,,,,,,,,,,,,,,,,,,,,,,,,,,,,,,,,,,,,,,,,,,,,,,
,,69b306d0aabcb968f7ca7ec5,2026-03-17_03h37.45.259,kallum_motion_pilot_GIST_update_2,2026.1.1,Win32,59.88023952,69b306d0aabcb968f7ca7ec5,69b92ab4aef6dee357cd729a,69b92edce48e1470e1ca717f,0.0368,0.0368,1,89,251,73,1,onethree,,,,,,,,,,,,,,,,,,,,,,,,,,,,,,,,,,,,,,,,,,,,,,,,,,,,,,,,,,,,,,,,,,,,,,,,,,,,,,,,,,,,,,,,,,,,,,,,,,,,,,,,,,,,,,,,,,,,,,,,,,,,,,,,,,,,,,,,,
,,69b306d0aabcb968f7ca7ec5,2026-03-17_03h37.45.259,kallum_motion_pilot_GIST_update_2,2026.1.1,Win32,59.88023952,69b306d0aabcb968f7ca7ec5,69b92ab4aef6dee357cd729a,69b92edce48e1470e1ca717f,0.0368,0.0368,1,90,252,45,1,threefour,,,,,,,,,,,,,,,,,,,,,,,,,,,,,,,,,,,,,,,,,,,,,,,,,,,,,,,,,,,,,,,,,,,,,,,,,,,,,,,,,,,,,,,,,,,,,,,,,,,,,,,,,,,,,,,,,,,,,,,,,,,,,,,,,,,,,,,,,
,,69b306d0aabcb968f7ca7ec5,2026-03-17_03h37.45.259,kallum_motion_pilot_GIST_update_2,2026.1.1,Win32,59.88023952,69b306d0aabcb968f7ca7ec5,69b92ab4aef6dee357cd729a,69b92edce48e1470e1ca717f,0.0369,0.0369,1,91,253,130,1,sixfive,,,,,,,,,,,,,,,,,,,,,,,,,,,,,,,,,,,,,,,,,,,,,,,,,,,,,,,,,,,,,,,,,,,,,,,,,,,,,,,,,,,,,,,,,,,,,,,,,,,,,,,,,,,,,,,,,,,,,,,,,,,,,,,,,,,,,,,,,
,,69b306d0aabcb968f7ca7ec5,2026-03-17_03h37.45.259,kallum_motion_pilot_GIST_update_2,2026.1.1,Win32,59.88023952,69b306d0aabcb968f7ca7ec5,69b92ab4aef6dee357cd729a,69b92edce48e1470e1ca717f,0.037,0.037,1,92,254,94,1,eightsix,,,,,,,,,,,,,,,,,,,,,,,,,,,,,,,,,,,,,,,,,,,,,,,,,,,,,,,,,,,,,,,,,,,,,,,,,,,,,,,,,,,,,,,,,,,,,,,,,,,,,,,,,,,,,,,,,,,,,,,,,,,,,,,,,,,,,,,,,
,,69b306d0aabcb968f7ca7ec5,2026-03-17_03h37.45.259,kallum_motion_pilot_GIST_update_2,2026.1.1,Win32,59.88023952,69b306d0aabcb968f7ca7ec5,69b92ab4aef6dee357cd729a,69b92edce48e1470e1ca717f,0.0371,0.0371,1,93,255,76,1,threeone,,,,,,,,,,,,,,,,,,,,,,,,,,,,,,,,,,,,,,,,,,,,,,,,,,,,,,,,,,,,,,,,,,,,,,,,,,,,,,,,,,,,,,,,,,,,,,,,,,,,,,,,,,,,,,,,,,,,,,,,,,,,,,,,,,,,,,,,,
,,69b306d0aabcb968f7ca7ec5,2026-03-17_03h37.45.259,kallum_motion_pilot_GIST_update_2,2026.1.1,Win32,59.88023952,69b306d0aabcb968f7ca7ec5,69b92ab4aef6dee357cd729a,69b92edce48e1470e1ca717f,0.0372,0.0372,1,94,256,101,1,seveneight,,,,,,,,,,,,,,,,,,,,,,,,,,,,,,,,,,,,,,,,,,,,,,,,,,,,,,,,,,,,,,,,,,,,,,,,,,,,,,,,,,,,,,,,,,,,,,,,,,,,,,,,,,,,,,,,,,,,,,,,,,,,,,,,,,,,,,,,,
,,69b306d0aabcb968f7ca7ec5,2026-03-17_03h37.45.259,kallum_motion_pilot_GIST_update_2,2026.1.1,Win32,59.88023952,69b306d0aabcb968f7ca7ec5,69b92ab4aef6dee357cd729a,69b92edce48e1470e1ca717f,0.0373,0.0373,1,95,257,160,1,fivesix,,,,,,,,,,,,,,,,,,,,,,,,,,,,,,,,,,,,,,,,,,,,,,,,,,,,,,,,,,,,,,,,,,,,,,,,,,,,,,,,,,,,,,,,,,,,,,,,,,,,,,,,,,,,,,,,,,,,,,,,,,,,,,,,,,,,,,,,,
,,69b306d0aabcb968f7ca7ec5,2026-03-17_03h37.45.259,kallum_motion_pilot_GIST_update_2,2026.1.1,Win32,59.88023952,69b306d0aabcb968f7ca7ec5,69b92ab4aef6dee357cd729a,69b92edce48e1470e1ca717f,0.0374,0.0374,1,96,258,7,1,fourthree,,,,,,,,,,,,,,,,,,,,,,,,,,,,,,,,,,,,,,,,,,,,,,,,,,,,,,,,,,,,,,,,,,,,,,,,,,,,,,,,,,,,,,,,,,,,,,,,,,,,,,,,,,,,,,,,,,,,,,,,,,,,,,,,,,,,,,,,,
,,69b306d0aabcb968f7ca7ec5,2026-03-17_03h37.45.259,kallum_motion_pilot_GIST_update_2,2026.1.1,Win32,59.88023952,69b306d0aabcb968f7ca7ec5,69b92ab4aef6dee357cd729a,69b92edce48e1470e1ca717f,0.0374,0.0374,1,97,259,19,1,twofour,,,,,,,,,,,,,,,,,,,,,,,,,,,,,,,,,,,,,,,,,,,,,,,,,,,,,,,,,,,,,,,,,,,,,,,,,,,,,,,,,,,,,,,,,,,,,,,,,,,,,,,,,,,,,,,,,,,,,,,,,,,,,,,,,,,,,,,,,
,,69b306d0aabcb968f7ca7ec5,2026-03-17_03h37.45.259,kallum_motion_pilot_GIST_update_2,2026.1.1,Win32,59.88023952,69b306d0aabcb968f7ca7ec5,69b92ab4aef6dee357cd729a,69b92edce48e1470e1ca717f,0.0376,0.0376,1,98,260,20,1,threeone,,,,,,,,,,,,,,,,,,,,,,,,,,,,,,,,,,,,,,,,,,,,,,,,,,,,,,,,,,,,,,,,,,,,,,,,,,,,,,,,,,,,,,,,,,,,,,,,,,,,,,,,,,,,,,,,,,,,,,,,,,,,,,,,,,,,,,,,,
,,69b306d0aabcb968f7ca7ec5,2026-03-17_03h37.45.259,kallum_motion_pilot_GIST_update_2,2026.1.1,Win32,59.88023952,69b306d0aabcb968f7ca7ec5,69b92ab4aef6dee357cd729a,69b92edce48e1470e1ca717f,0.0376,0.0377,1,99,261,103,1,eightseven,,,,,,,,,,,,,,,,,,,,,,,,,,,,,,,,,,,,,,,,,,,,,,,,,,,,,,,,,,,,,,,,,,,,,,,,,,,,,,,,,,,,,,,,,,,,,,,,,,,,,,,,,,,,,,,,,,,,,,,,,,,,,,,,,,,,,,,,,
,,69b306d0aabcb968f7ca7ec5,2026-03-17_03h37.45.259,kallum_motion_pilot_GIST_update_2,2026.1.1,Win32,59.88023952,69b306d0aabcb968f7ca7ec5,69b92ab4aef6dee357cd729a,69b92edce48e1470e1ca717f,0.0377,0.0378,1,100,262,67,1,twofour,,,,,,,,,,,,,,,,,,,,,,,,,,,,,,,,,,,,,,,,,,,,,,,,,,,,,,,,,,,,,,,,,,,,,,,,,,,,,,,,,,,,,,,,,,,,,,,,,,,,,,,,,,,,,,,,,,,,,,,,,,,,,,,,,,,,,,,,,
,,69b306d0aabcb968f7ca7ec5,2026-03-17_03h37.45.259,kallum_motion_pilot_GIST_update_2,2026.1.1,Win32,59.88023952,69b306d0aabcb968f7ca7ec5,69b92ab4aef6dee357cd729a,69b92edce48e1470e1ca717f,0.0379,0.0379,1,101,263,114,1,sixfive,,,,,,,,,,,,,,,,,,,,,,,,,,,,,,,,,,,,,,,,,,,,,,,,,,,,,,,,,,,,,,,,,,,,,,,,,,,,,,,,,,,,,,,,,,,,,,,,,,,,,,,,,,,,,,,,,,,,,,,,,,,,,,,,,,,,,,,,,
,,69b306d0aabcb968f7ca7ec5,2026-03-17_03h37.45.259,kallum_motion_pilot_GIST_update_2,2026.1.1,Win32,59.88023952,69b306d0aabcb968f7ca7ec5,69b92ab4aef6dee357cd729a,69b92edce48e1470e1ca717f,0.038,0.038,1,102,264,43,1,twofour,,,,,,,,,,,,,,,,,,,,,,,,,,,,,,,,,,,,,,,,,,,,,,,,,,,,,,,,,,,,,,,,,,,,,,,,,,,,,,,,,,,,,,,,,,,,,,,,,,,,,,,,,,,,,,,,,,,,,,,,,,,,,,,,,,,,,,,,,
,,69b306d0aabcb968f7ca7ec5,2026-03-17_03h37.45.259,kallum_motion_pilot_GIST_update_2,2026.1.1,Win32,59.88023952,69b306d0aabcb968f7ca7ec5,69b92ab4aef6dee357cd729a,69b92edce48e1470e1ca717f,0.038,0.038,1,103,265,139,1,sixeight,,,,,,,,,,,,,,,,,,,,,,,,,,,,,,,,,,,,,,,,,,,,,,,,,,,,,,,,,,,,,,,,,,,,,,,,,,,,,,,,,,,,,,,,,,,,,,,,,,,,,,,,,,,,,,,,,,,,,,,,,,,,,,,,,,,,,,,,,
,,69b306d0aabcb968f7ca7ec5,2026-03-17_03h37.45.259,kallum_motion_pilot_GIST_update_2,2026.1.1,Win32,59.88023952,69b306d0aabcb968f7ca7ec5,69b92ab4aef6dee357cd729a,69b92edce48e1470e1ca717f,0.0382,0.0382,1,104,266,126,1,eightsix,,,,,,,,,,,,,,,,,,,,,,,,,,,,,,,,,,,,,,,,,,,,,,,,,,,,,,,,,,,,,,,,,,,,,,,,,,,,,,,,,,,,,,,,,,,,,,,,,,,,,,,,,,,,,,,,,,,,,,,,,,,,,,,,,,,,,,,,,
