startup.started,startup.stopped,Prolific ID*,date,expName,psychopyVersion,OS,frameRate,participant,study_id,session,stimpositions.started,stimpositions.stopped,hardcoded_stimulus_positions.thisRepN,hardcoded_stimulus_positions.thisTrialN,hardcoded_stimulus_positions.thisN,hardcoded_stimulus_positions.thisIndex,hardcoded_stimulus_positions.ran,StimulusPos,stimorientation.started,stimorientation.stopped,prac_stimorientation_import_loop.thisRepN,prac_stimorientation_import_loop.thisTrialN,prac_stimorientation_import_loop.thisN,prac_stimorientation_import_loop.thisIndex,prac_stimorientation_import_loop.ran,Stimorientation,welcome_instr.started,welcome_instr.stopped,key_resp.keys,key_resp.rt,key_resp.duration,response_steppedout_1.started,response_steppedout_1.stopped,key_resp_20.keys,key_resp_20.rt,key_resp_20.duration,response_steppedout_2.started,response_steppedout_2.stopped,key_resp_19.keys,key_resp_19.rt,key_resp_19.duration,stim_response_instr.started,stim_response_instr.stopped,key_resp_15.keys,key_resp_15.rt,key_resp_15.duration,direction_instr_2.started,direction_instr_2.stopped,key_resp_9.keys,key_resp_9.rt,key_resp_9.duration,instr_prac.started,instr_prac.stopped,key_resp_10.keys,key_resp_10.rt,key_resp_10.duration,Stim1_display_prac.started,Stim1_display_prac.stopped,Ecc,Circle1_ori,Circle2_ori,response_prac.started,similarity,response_time,response_prac.stopped,mouse_5.x,mouse_5.y,mouse_5.leftButton,mouse_5.midButton,mouse_5.rightButton,mouse_5.clicked_name,responseprac_feedback.started,responseprac_feedback.stopped,summary2_prac.started,summary2_prac.stopped,mouse_6.x,mouse_6.y,mouse_6.leftButton,mouse_6.midButton,mouse_6.rightButton,mouse_6.clicked_name,duringprac.thisRepN,duringprac.thisTrialN,duringprac.thisN,duringprac.thisIndex,duringprac.ran,begin.started,begin.stopped,key_resp_22.keys,key_resp_22.rt,key_resp_22.duration,Stim1_display.started,Stim1_display.stopped,circle1_ori,circle2_ori,blank.started,blank.stopped,response.started,response.stopped,mouse.x,mouse.y,mouse.leftButton,mouse.midButton,mouse.rightButton,mouse.clicked_name,response_2.started,response_2.stopped,mouse_2.x,mouse_2.y,mouse_2.leftButton,mouse_2.midButton,mouse_2.rightButton,mouse_2.clicked_name,special_trial.started,special_trial.stopped,catch_1.started,catch_1.stopped,mouse_3.x,mouse_3.y,mouse_3.leftButton,mouse_3.midButton,mouse_3.rightButton,catchresponse,catchnumber,response_time_catch,Catch,response_sum.started,response_sum.stopped,mouse_11.x,mouse_11.y,mouse_11.leftButton,mouse_11.midButton,mouse_11.rightButton,main_trial.thisRepN,main_trial.thisTrialN,main_trial.thisN,main_trial.thisIndex,main_trial.ran,Orientationtrialno,xcircle1_ori,xcircle2_ori,flip_presentation_sequence_for_double_pass.started,flip_presentation_sequence_for_double_pass.stopped,double_pass.thisRepN,double_pass.thisTrialN,double_pass.thisN,double_pass.thisIndex,double_pass.ran,goodbye.started,goodbye.stopped,key_resp_3.keys,key_resp_3.rt,key_resp_3.duration
0.0005,0.0006,5c6d938c79151c00017c7560,2023-12-07_06h29.10.420,kallum_motion_pilot,2023.2.3,Win32,143.4514417,5c6d938c79151c00017c7560,6560176e4d91f764e2a42c74,657157ec370a957374a21233,,,,,,,,,,,,,,,,,,,,,,,,,,,,,,,,,,,,,,,,,,,,,,,,,,,,,,,,,,,,,,,,,,,,,,,,,,,,,,,,,,,,,,,,,,,,,,,,,,,,,,,,,,,,,,,,,,,,,,,,,,,,,,,,,,,,,,,,,,,,,,,
,,5c6d938c79151c00017c7560,2023-12-07_06h29.10.420,kallum_motion_pilot,2023.2.3,Win32,143.4514417,5c6d938c79151c00017c7560,6560176e4d91f764e2a42c74,657157ec370a957374a21233,0.0286,0.0288,0,0,0,104,1,fivesix,,,,,,,,,,,,,,,,,,,,,,,,,,,,,,,,,,,,,,,,,,,,,,,,,,,,,,,,,,,,,,,,,,,,,,,,,,,,,,,,,,,,,,,,,,,,,,,,,,,,,,,,,,,,,,,,,,,,,,,,,,,,,,,,,,,,,,,
,,5c6d938c79151c00017c7560,2023-12-07_06h29.10.420,kallum_motion_pilot,2023.2.3,Win32,143.4514417,5c6d938c79151c00017c7560,6560176e4d91f764e2a42c74,657157ec370a957374a21233,0.0291,0.0291,0,1,1,91,1,sixeight,,,,,,,,,,,,,,,,,,,,,,,,,,,,,,,,,,,,,,,,,,,,,,,,,,,,,,,,,,,,,,,,,,,,,,,,,,,,,,,,,,,,,,,,,,,,,,,,,,,,,,,,,,,,,,,,,,,,,,,,,,,,,,,,,,,,,,,
,,5c6d938c79151c00017c7560,2023-12-07_06h29.10.420,kallum_motion_pilot,2023.2.3,Win32,143.4514417,5c6d938c79151c00017c7560,6560176e4d91f764e2a42c74,657157ec370a957374a21233,0.0292,0.0293,0,2,2,38,1,fourtwo,,,,,,,,,,,,,,,,,,,,,,,,,,,,,,,,,,,,,,,,,,,,,,,,,,,,,,,,,,,,,,,,,,,,,,,,,,,,,,,,,,,,,,,,,,,,,,,,,,,,,,,,,,,,,,,,,,,,,,,,,,,,,,,,,,,,,,,
,,5c6d938c79151c00017c7560,2023-12-07_06h29.10.420,kallum_motion_pilot,2023.2.3,Win32,143.4514417,5c6d938c79151c00017c7560,6560176e4d91f764e2a42c74,657157ec370a957374a21233,0.0294,0.0294,0,3,3,55,1,fourthree,,,,,,,,,,,,,,,,,,,,,,,,,,,,,,,,,,,,,,,,,,,,,,,,,,,,,,,,,,,,,,,,,,,,,,,,,,,,,,,,,,,,,,,,,,,,,,,,,,,,,,,,,,,,,,,,,,,,,,,,,,,,,,,,,,,,,,,
,,5c6d938c79151c00017c7560,2023-12-07_06h29.10.420,kallum_motion_pilot,2023.2.3,Win32,143.4514417,5c6d938c79151c00017c7560,6560176e4d91f764e2a42c74,657157ec370a957374a21233,0.0296,0.0296,0,4,4,56,1,onetwo,,,,,,,,,,,,,,,,,,,,,,,,,,,,,,,,,,,,,,,,,,,,,,,,,,,,,,,,,,,,,,,,,,,,,,,,,,,,,,,,,,,,,,,,,,,,,,,,,,,,,,,,,,,,,,,,,,,,,,,,,,,,,,,,,,,,,,,
,,5c6d938c79151c00017c7560,2023-12-07_06h29.10.420,kallum_motion_pilot,2023.2.3,Win32,143.4514417,5c6d938c79151c00017c7560,6560176e4d91f764e2a42c74,657157ec370a957374a21233,0.0298,0.0298,0,5,5,128,1,fivesix,,,,,,,,,,,,,,,,,,,,,,,,,,,,,,,,,,,,,,,,,,,,,,,,,,,,,,,,,,,,,,,,,,,,,,,,,,,,,,,,,,,,,,,,,,,,,,,,,,,,,,,,,,,,,,,,,,,,,,,,,,,,,,,,,,,,,,,
,,5c6d938c79151c00017c7560,2023-12-07_06h29.10.420,kallum_motion_pilot,2023.2.3,Win32,143.4514417,5c6d938c79151c00017c7560,6560176e4d91f764e2a42c74,657157ec370a957374a21233,0.0299,0.0299,0,6,6,6,1,fourtwo,,,,,,,,,,,,,,,,,,,,,,,,,,,,,,,,,,,,,,,,,,,,,,,,,,,,,,,,,,,,,,,,,,,,,,,,,,,,,,,,,,,,,,,,,,,,,,,,,,,,,,,,,,,,,,,,,,,,,,,,,,,,,,,,,,,,,,,
,,5c6d938c79151c00017c7560,2023-12-07_06h29.10.420,kallum_motion_pilot,2023.2.3,Win32,143.4514417,5c6d938c79151c00017c7560,6560176e4d91f764e2a42c74,657157ec370a957374a21233,0.03,0.03,0,7,7,150,1,eightsix,,,,,,,,,,,,,,,,,,,,,,,,,,,,,,,,,,,,,,,,,,,,,,,,,,,,,,,,,,,,,,,,,,,,,,,,,,,,,,,,,,,,,,,,,,,,,,,,,,,,,,,,,,,,,,,,,,,,,,,,,,,,,,,,,,,,,,,
,,5c6d938c79151c00017c7560,2023-12-07_06h29.10.420,kallum_motion_pilot,2023.2.3,Win32,143.4514417,5c6d938c79151c00017c7560,6560176e4d91f764e2a42c74,657157ec370a957374a21233,0.0302,0.0303,0,8,8,146,1,sixfive,,,,,,,,,,,,,,,,,,,,,,,,,,,,,,,,,,,,,,,,,,,,,,,,,,,,,,,,,,,,,,,,,,,,,,,,,,,,,,,,,,,,,,,,,,,,,,,,,,,,,,,,,,,,,,,,,,,,,,,,,,,,,,,,,,,,,,,
,,5c6d938c79151c00017c7560,2023-12-07_06h29.10.420,kallum_motion_pilot,2023.2.3,Win32,143.4514417,5c6d938c79151c00017c7560,6560176e4d91f764e2a42c74,657157ec370a957374a21233,0.0304,0.0305,0,9,9,78,1,fourtwo,,,,,,,,,,,,,,,,,,,,,,,,,,,,,,,,,,,,,,,,,,,,,,,,,,,,,,,,,,,,,,,,,,,,,,,,,,,,,,,,,,,,,,,,,,,,,,,,,,,,,,,,,,,,,,,,,,,,,,,,,,,,,,,,,,,,,,,
,,5c6d938c79151c00017c7560,2023-12-07_06h29.10.420,kallum_motion_pilot,2023.2.3,Win32,143.4514417,5c6d938c79151c00017c7560,6560176e4d91f764e2a42c74,657157ec370a957374a21233,0.0306,0.0306,0,10,10,130,1,sixfive,,,,,,,,,,,,,,,,,,,,,,,,,,,,,,,,,,,,,,,,,,,,,,,,,,,,,,,,,,,,,,,,,,,,,,,,,,,,,,,,,,,,,,,,,,,,,,,,,,,,,,,,,,,,,,,,,,,,,,,,,,,,,,,,,,,,,,,
,,5c6d938c79151c00017c7560,2023-12-07_06h29.10.420,kallum_motion_pilot,2023.2.3,Win32,143.4514417,5c6d938c79151c00017c7560,6560176e4d91f764e2a42c74,657157ec370a957374a21233,0.0307,0.0308,0,11,11,113,1,fiveseven,,,,,,,,,,,,,,,,,,,,,,,,,,,,,,,,,,,,,,,,,,,,,,,,,,,,,,,,,,,,,,,,,,,,,,,,,,,,,,,,,,,,,,,,,,,,,,,,,,,,,,,,,,,,,,,,,,,,,,,,,,,,,,,,,,,,,,,
,,5c6d938c79151c00017c7560,2023-12-07_06h29.10.420,kallum_motion_pilot,2023.2.3,Win32,143.4514417,5c6d938c79151c00017c7560,6560176e4d91f764e2a42c74,657157ec370a957374a21233,0.0309,0.0309,0,12,12,116,1,sevenfive,,,,,,,,,,,,,,,,,,,,,,,,,,,,,,,,,,,,,,,,,,,,,,,,,,,,,,,,,,,,,,,,,,,,,,,,,,,,,,,,,,,,,,,,,,,,,,,,,,,,,,,,,,,,,,,,,,,,,,,,,,,,,,,,,,,,,,,
,,5c6d938c79151c00017c7560,2023-12-07_06h29.10.420,kallum_motion_pilot,2023.2.3,Win32,143.4514417,5c6d938c79151c00017c7560,6560176e4d91f764e2a42c74,657157ec370a957374a21233,0.0309,0.031,0,13,13,14,1,fourtwo,,,,,,,,,,,,,,,,,,,,,,,,,,,,,,,,,,,,,,,,,,,,,,,,,,,,,,,,,,,,,,,,,,,,,,,,,,,,,,,,,,,,,,,,,,,,,,,,,,,,,,,,,,,,,,,,,,,,,,,,,,,,,,,,,,,,,,,
,,5c6d938c79151c00017c7560,2023-12-07_06h29.10.420,kallum_motion_pilot,2023.2.3,Win32,143.4514417,5c6d938c79151c00017c7560,6560176e4d91f764e2a42c74,657157ec370a957374a21233,0.031,0.0311,0,14,14,81,1,fiveseven,,,,,,,,,,,,,,,,,,,,,,,,,,,,,,,,,,,,,,,,,,,,,,,,,,,,,,,,,,,,,,,,,,,,,,,,,,,,,,,,,,,,,,,,,,,,,,,,,,,,,,,,,,,,,,,,,,,,,,,,,,,,,,,,,,,,,,,
,,5c6d938c79151c00017c7560,2023-12-07_06h29.10.420,kallum_motion_pilot,2023.2.3,Win32,143.4514417,5c6d938c79151c00017c7560,6560176e4d91f764e2a42c74,657157ec370a957374a21233,0.0311,0.0312,0,15,15,86,1,eightsix,,,,,,,,,,,,,,,,,,,,,,,,,,,,,,,,,,,,,,,,,,,,,,,,,,,,,,,,,,,,,,,,,,,,,,,,,,,,,,,,,,,,,,,,,,,,,,,,,,,,,,,,,,,,,,,,,,,,,,,,,,,,,,,,,,,,,,,
,,5c6d938c79151c00017c7560,2023-12-07_06h29.10.420,kallum_motion_pilot,2023.2.3,Win32,143.4514417,5c6d938c79151c00017c7560,6560176e4d91f764e2a42c74,657157ec370a957374a21233,0.0313,0.0313,0,16,16,89,1,fiveseven,,,,,,,,,,,,,,,,,,,,,,,,,,,,,,,,,,,,,,,,,,,,,,,,,,,,,,,,,,,,,,,,,,,,,,,,,,,,,,,,,,,,,,,,,,,,,,,,,,,,,,,,,,,,,,,,,,,,,,,,,,,,,,,,,,,,,,,
,,5c6d938c79151c00017c7560,2023-12-07_06h29.10.420,kallum_motion_pilot,2023.2.3,Win32,143.4514417,5c6d938c79151c00017c7560,6560176e4d91f764e2a42c74,657157ec370a957374a21233,0.0315,0.0315,0,17,17,68,1,threeone,,,,,,,,,,,,,,,,,,,,,,,,,,,,,,,,,,,,,,,,,,,,,,,,,,,,,,,,,,,,,,,,,,,,,,,,,,,,,,,,,,,,,,,,,,,,,,,,,,,,,,,,,,,,,,,,,,,,,,,,,,,,,,,,,,,,,,,
,,5c6d938c79151c00017c7560,2023-12-07_06h29.10.420,kallum_motion_pilot,2023.2.3,Win32,143.4514417,5c6d938c79151c00017c7560,6560176e4d91f764e2a42c74,657157ec370a957374a21233,0.0315,0.0316,0,18,18,23,1,fourthree,,,,,,,,,,,,,,,,,,,,,,,,,,,,,,,,,,,,,,,,,,,,,,,,,,,,,,,,,,,,,,,,,,,,,,,,,,,,,,,,,,,,,,,,,,,,,,,,,,,,,,,,,,,,,,,,,,,,,,,,,,,,,,,,,,,,,,,
,,5c6d938c79151c00017c7560,2023-12-07_06h29.10.420,kallum_motion_pilot,2023.2.3,Win32,143.4514417,5c6d938c79151c00017c7560,6560176e4d91f764e2a42c74,657157ec370a957374a21233,0.0317,0.0317,0,19,19,8,1,onetwo,,,,,,,,,,,,,,,,,,,,,,,,,,,,,,,,,,,,,,,,,,,,,,,,,,,,,,,,,,,,,,,,,,,,,,,,,,,,,,,,,,,,,,,,,,,,,,,,,,,,,,,,,,,,,,,,,,,,,,,,,,,,,,,,,,,,,,,
,,5c6d938c79151c00017c7560,2023-12-07_06h29.10.420,kallum_motion_pilot,2023.2.3,Win32,143.4514417,5c6d938c79151c00017c7560,6560176e4d91f764e2a42c74,657157ec370a957374a21233,0.0318,0.0318,0,20,20,45,1,threefour,,,,,,,,,,,,,,,,,,,,,,,,,,,,,,,,,,,,,,,,,,,,,,,,,,,,,,,,,,,,,,,,,,,,,,,,,,,,,,,,,,,,,,,,,,,,,,,,,,,,,,,,,,,,,,,,,,,,,,,,,,,,,,,,,,,,,,,
,,5c6d938c79151c00017c7560,2023-12-07_06h29.10.420,kallum_motion_pilot,2023.2.3,Win32,143.4514417,5c6d938c79151c00017c7560,6560176e4d91f764e2a42c74,657157ec370a957374a21233,0.0319,0.0319,0,21,21,95,1,eightseven,,,,,,,,,,,,,,,,,,,,,,,,,,,,,,,,,,,,,,,,,,,,,,,,,,,,,,,,,,,,,,,,,,,,,,,,,,,,,,,,,,,,,,,,,,,,,,,,,,,,,,,,,,,,,,,,,,,,,,,,,,,,,,,,,,,,,,,
,,5c6d938c79151c00017c7560,2023-12-07_06h29.10.420,kallum_motion_pilot,2023.2.3,Win32,143.4514417,5c6d938c79151c00017c7560,6560176e4d91f764e2a42c74,657157ec370a957374a21233,0.032,0.032,0,22,22,49,1,onethree,,,,,,,,,,,,,,,,,,,,,,,,,,,,,,,,,,,,,,,,,,,,,,,,,,,,,,,,,,,,,,,,,,,,,,,,,,,,,,,,,,,,,,,,,,,,,,,,,,,,,,,,,,,,,,,,,,,,,,,,,,,,,,,,,,,,,,,
,,5c6d938c79151c00017c7560,2023-12-07_06h29.10.420,kallum_motion_pilot,2023.2.3,Win32,143.4514417,5c6d938c79151c00017c7560,6560176e4d91f764e2a42c74,657157ec370a957374a21233,0.032,0.0321,0,23,23,70,1,fourtwo,,,,,,,,,,,,,,,,,,,,,,,,,,,,,,,,,,,,,,,,,,,,,,,,,,,,,,,,,,,,,,,,,,,,,,,,,,,,,,,,,,,,,,,,,,,,,,,,,,,,,,,,,,,,,,,,,,,,,,,,,,,,,,,,,,,,,,,
,,5c6d938c79151c00017c7560,2023-12-07_06h29.10.420,kallum_motion_pilot,2023.2.3,Win32,143.4514417,5c6d938c79151c00017c7560,6560176e4d91f764e2a42c74,657157ec370a957374a21233,0.0323,0.0323,0,24,24,99,1,sixeight,,,,,,,,,,,,,,,,,,,,,,,,,,,,,,,,,,,,,,,,,,,,,,,,,,,,,,,,,,,,,,,,,,,,,,,,,,,,,,,,,,,,,,,,,,,,,,,,,,,,,,,,,,,,,,,,,,,,,,,,,,,,,,,,,,,,,,,
,,5c6d938c79151c00017c7560,2023-12-07_06h29.10.420,kallum_motion_pilot,2023.2.3,Win32,143.4514417,5c6d938c79151c00017c7560,6560176e4d91f764e2a42c74,657157ec370a957374a21233,0.0324,0.0325,0,25,25,75,1,twofour,,,,,,,,,,,,,,,,,,,,,,,,,,,,,,,,,,,,,,,,,,,,,,,,,,,,,,,,,,,,,,,,,,,,,,,,,,,,,,,,,,,,,,,,,,,,,,,,,,,,,,,,,,,,,,,,,,,,,,,,,,,,,,,,,,,,,,,
,,5c6d938c79151c00017c7560,2023-12-07_06h29.10.420,kallum_motion_pilot,2023.2.3,Win32,143.4514417,5c6d938c79151c00017c7560,6560176e4d91f764e2a42c74,657157ec370a957374a21233,0.0325,0.0326,0,26,26,60,1,threeone,,,,,,,,,,,,,,,,,,,,,,,,,,,,,,,,,,,,,,,,,,,,,,,,,,,,,,,,,,,,,,,,,,,,,,,,,,,,,,,,,,,,,,,,,,,,,,,,,,,,,,,,,,,,,,,,,,,,,,,,,,,,,,,,,,,,,,,
,,5c6d938c79151c00017c7560,2023-12-07_06h29.10.420,kallum_motion_pilot,2023.2.3,Win32,143.4514417,5c6d938c79151c00017c7560,6560176e4d91f764e2a42c74,657157ec370a957374a21233,0.0327,0.0327,0,27,27,92,1,sevenfive,,,,,,,,,,,,,,,,,,,,,,,,,,,,,,,,,,,,,,,,,,,,,,,,,,,,,,,,,,,,,,,,,,,,,,,,,,,,,,,,,,,,,,,,,,,,,,,,,,,,,,,,,,,,,,,,,,,,,,,,,,,,,,,,,,,,,,,
,,5c6d938c79151c00017c7560,2023-12-07_06h29.10.420,kallum_motion_pilot,2023.2.3,Win32,143.4514417,5c6d938c79151c00017c7560,6560176e4d91f764e2a42c74,657157ec370a957374a21233,0.0328,0.0329,0,28,28,11,1,twofour,,,,,,,,,,,,,,,,,,,,,,,,,,,,,,,,,,,,,,,,,,,,,,,,,,,,,,,,,,,,,,,,,,,,,,,,,,,,,,,,,,,,,,,,,,,,,,,,,,,,,,,,,,,,,,,,,,,,,,,,,,,,,,,,,,,,,,,
,,5c6d938c79151c00017c7560,2023-12-07_06h29.10.420,kallum_motion_pilot,2023.2.3,Win32,143.4514417,5c6d938c79151c00017c7560,6560176e4d91f764e2a42c74,657157ec370a957374a21233,0.0331,0.0333,0,29,29,36,1,threeone,,,,,,,,,,,,,,,,,,,,,,,,,,,,,,,,,,,,,,,,,,,,,,,,,,,,,,,,,,,,,,,,,,,,,,,,,,,,,,,,,,,,,,,,,,,,,,,,,,,,,,,,,,,,,,,,,,,,,,,,,,,,,,,,,,,,,,,
,,5c6d938c79151c00017c7560,2023-12-07_06h29.10.420,kallum_motion_pilot,2023.2.3,Win32,143.4514417,5c6d938c79151c00017c7560,6560176e4d91f764e2a42c74,657157ec370a957374a21233,0.0337,0.0338,0,30,30,152,1,fivesix,,,,,,,,,,,,,,,,,,,,,,,,,,,,,,,,,,,,,,,,,,,,,,,,,,,,,,,,,,,,,,,,,,,,,,,,,,,,,,,,,,,,,,,,,,,,,,,,,,,,,,,,,,,,,,,,,,,,,,,,,,,,,,,,,,,,,,,
,,5c6d938c79151c00017c7560,2023-12-07_06h29.10.420,kallum_motion_pilot,2023.2.3,Win32,143.4514417,5c6d938c79151c00017c7560,6560176e4d91f764e2a42c74,657157ec370a957374a21233,0.0344,0.0345,0,31,31,103,1,eightseven,,,,,,,,,,,,,,,,,,,,,,,,,,,,,,,,,,,,,,,,,,,,,,,,,,,,,,,,,,,,,,,,,,,,,,,,,,,,,,,,,,,,,,,,,,,,,,,,,,,,,,,,,,,,,,,,,,,,,,,,,,,,,,,,,,,,,,,
,,5c6d938c79151c00017c7560,2023-12-07_06h29.10.420,kallum_motion_pilot,2023.2.3,Win32,143.4514417,5c6d938c79151c00017c7560,6560176e4d91f764e2a42c74,657157ec370a957374a21233,0.0347,0.0348,0,32,32,144,1,fivesix,,,,,,,,,,,,,,,,,,,,,,,,,,,,,,,,,,,,,,,,,,,,,,,,,,,,,,,,,,,,,,,,,,,,,,,,,,,,,,,,,,,,,,,,,,,,,,,,,,,,,,,,,,,,,,,,,,,,,,,,,,,,,,,,,,,,,,,
,,5c6d938c79151c00017c7560,2023-12-07_06h29.10.420,kallum_motion_pilot,2023.2.3,Win32,143.4514417,5c6d938c79151c00017c7560,6560176e4d91f764e2a42c74,657157ec370a957374a21233,0.0349,0.0349,0,33,33,120,1,fivesix,,,,,,,,,,,,,,,,,,,,,,,,,,,,,,,,,,,,,,,,,,,,,,,,,,,,,,,,,,,,,,,,,,,,,,,,,,,,,,,,,,,,,,,,,,,,,,,,,,,,,,,,,,,,,,,,,,,,,,,,,,,,,,,,,,,,,,,
,,5c6d938c79151c00017c7560,2023-12-07_06h29.10.420,kallum_motion_pilot,2023.2.3,Win32,143.4514417,5c6d938c79151c00017c7560,6560176e4d91f764e2a42c74,657157ec370a957374a21233,0.0352,0.0354,0,34,34,118,1,eightsix,,,,,,,,,,,,,,,,,,,,,,,,,,,,,,,,,,,,,,,,,,,,,,,,,,,,,,,,,,,,,,,,,,,,,,,,,,,,,,,,,,,,,,,,,,,,,,,,,,,,,,,,,,,,,,,,,,,,,,,,,,,,,,,,,,,,,,,
,,5c6d938c79151c00017c7560,2023-12-07_06h29.10.420,kallum_motion_pilot,2023.2.3,Win32,143.4514417,5c6d938c79151c00017c7560,6560176e4d91f764e2a42c74,657157ec370a957374a21233,0.0356,0.0356,0,35,35,48,1,onetwo,,,,,,,,,,,,,,,,,,,,,,,,,,,,,,,,,,,,,,,,,,,,,,,,,,,,,,,,,,,,,,,,,,,,,,,,,,,,,,,,,,,,,,,,,,,,,,,,,,,,,,,,,,,,,,,,,,,,,,,,,,,,,,,,,,,,,,,
,,5c6d938c79151c00017c7560,2023-12-07_06h29.10.420,kallum_motion_pilot,2023.2.3,Win32,143.4514417,5c6d938c79151c00017c7560,6560176e4d91f764e2a42c74,657157ec370a957374a21233,0.0357,0.0358,0,36,36,28,1,threeone,,,,,,,,,,,,,,,,,,,,,,,,,,,,,,,,,,,,,,,,,,,,,,,,,,,,,,,,,,,,,,,,,,,,,,,,,,,,,,,,,,,,,,,,,,,,,,,,,,,,,,,,,,,,,,,,,,,,,,,,,,,,,,,,,,,,,,,
,,5c6d938c79151c00017c7560,2023-12-07_06h29.10.420,kallum_motion_pilot,2023.2.3,Win32,143.4514417,5c6d938c79151c00017c7560,6560176e4d91f764e2a42c74,657157ec370a957374a21233,0.0359,0.036,0,37,37,51,1,twofour,,,,,,,,,,,,,,,,,,,,,,,,,,,,,,,,,,,,,,,,,,,,,,,,,,,,,,,,,,,,,,,,,,,,,,,,,,,,,,,,,,,,,,,,,,,,,,,,,,,,,,,,,,,,,,,,,,,,,,,,,,,,,,,,,,,,,,,
,,5c6d938c79151c00017c7560,2023-12-07_06h29.10.420,kallum_motion_pilot,2023.2.3,Win32,143.4514417,5c6d938c79151c00017c7560,6560176e4d91f764e2a42c74,657157ec370a957374a21233,0.0361,0.0361,0,38,38,138,1,sixfive,,,,,,,,,,,,,,,,,,,,,,,,,,,,,,,,,,,,,,,,,,,,,,,,,,,,,,,,,,,,,,,,,,,,,,,,,,,,,,,,,,,,,,,,,,,,,,,,,,,,,,,,,,,,,,,,,,,,,,,,,,,,,,,,,,,,,,,
,,5c6d938c79151c00017c7560,2023-12-07_06h29.10.420,kallum_motion_pilot,2023.2.3,Win32,143.4514417,5c6d938c79151c00017c7560,6560176e4d91f764e2a42c74,657157ec370a957374a21233,0.0364,0.0364,0,39,39,110,1,eightsix,,,,,,,,,,,,,,,,,,,,,,,,,,,,,,,,,,,,,,,,,,,,,,,,,,,,,,,,,,,,,,,,,,,,,,,,,,,,,,,,,,,,,,,,,,,,,,,,,,,,,,,,,,,,,,,,,,,,,,,,,,,,,,,,,,,,,,,
,,5c6d938c79151c00017c7560,2023-12-07_06h29.10.420,kallum_motion_pilot,2023.2.3,Win32,143.4514417,5c6d938c79151c00017c7560,6560176e4d91f764e2a42c74,657157ec370a957374a21233,0.0366,0.0366,0,40,40,84,1,sevenfive,,,,,,,,,,,,,,,,,,,,,,,,,,,,,,,,,,,,,,,,,,,,,,,,,,,,,,,,,,,,,,,,,,,,,,,,,,,,,,,,,,,,,,,,,,,,,,,,,,,,,,,,,,,,,,,,,,,,,,,,,,,,,,,,,,,,,,,
,,5c6d938c79151c00017c7560,2023-12-07_06h29.10.420,kallum_motion_pilot,2023.2.3,Win32,143.4514417,5c6d938c79151c00017c7560,6560176e4d91f764e2a42c74,657157ec370a957374a21233,0.0368,0.0368,0,41,41,105,1,fiveseven,,,,,,,,,,,,,,,,,,,,,,,,,,,,,,,,,,,,,,,,,,,,,,,,,,,,,,,,,,,,,,,,,,,,,,,,,,,,,,,,,,,,,,,,,,,,,,,,,,,,,,,,,,,,,,,,,,,,,,,,,,,,,,,,,,,,,,,
,,5c6d938c79151c00017c7560,2023-12-07_06h29.10.420,kallum_motion_pilot,2023.2.3,Win32,143.4514417,5c6d938c79151c00017c7560,6560176e4d91f764e2a42c74,657157ec370a957374a21233,0.0369,0.037,0,42,42,30,1,fourtwo,,,,,,,,,,,,,,,,,,,,,,,,,,,,,,,,,,,,,,,,,,,,,,,,,,,,,,,,,,,,,,,,,,,,,,,,,,,,,,,,,,,,,,,,,,,,,,,,,,,,,,,,,,,,,,,,,,,,,,,,,,,,,,,,,,,,,,,
,,5c6d938c79151c00017c7560,2023-12-07_06h29.10.420,kallum_motion_pilot,2023.2.3,Win32,143.4514417,5c6d938c79151c00017c7560,6560176e4d91f764e2a42c74,657157ec370a957374a21233,0.037,0.0371,0,43,43,119,1,eightseven,,,,,,,,,,,,,,,,,,,,,,,,,,,,,,,,,,,,,,,,,,,,,,,,,,,,,,,,,,,,,,,,,,,,,,,,,,,,,,,,,,,,,,,,,,,,,,,,,,,,,,,,,,,,,,,,,,,,,,,,,,,,,,,,,,,,,,,
,,5c6d938c79151c00017c7560,2023-12-07_06h29.10.420,kallum_motion_pilot,2023.2.3,Win32,143.4514417,5c6d938c79151c00017c7560,6560176e4d91f764e2a42c74,657157ec370a957374a21233,0.0373,0.0373,0,44,44,47,1,fourthree,,,,,,,,,,,,,,,,,,,,,,,,,,,,,,,,,,,,,,,,,,,,,,,,,,,,,,,,,,,,,,,,,,,,,,,,,,,,,,,,,,,,,,,,,,,,,,,,,,,,,,,,,,,,,,,,,,,,,,,,,,,,,,,,,,,,,,,
,,5c6d938c79151c00017c7560,2023-12-07_06h29.10.420,kallum_motion_pilot,2023.2.3,Win32,143.4514417,5c6d938c79151c00017c7560,6560176e4d91f764e2a42c74,657157ec370a957374a21233,0.0374,0.0375,0,45,45,67,1,twofour,,,,,,,,,,,,,,,,,,,,,,,,,,,,,,,,,,,,,,,,,,,,,,,,,,,,,,,,,,,,,,,,,,,,,,,,,,,,,,,,,,,,,,,,,,,,,,,,,,,,,,,,,,,,,,,,,,,,,,,,,,,,,,,,,,,,,,,
,,5c6d938c79151c00017c7560,2023-12-07_06h29.10.420,kallum_motion_pilot,2023.2.3,Win32,143.4514417,5c6d938c79151c00017c7560,6560176e4d91f764e2a42c74,657157ec370a957374a21233,0.0376,0.0377,0,46,46,111,1,eightseven,,,,,,,,,,,,,,,,,,,,,,,,,,,,,,,,,,,,,,,,,,,,,,,,,,,,,,,,,,,,,,,,,,,,,,,,,,,,,,,,,,,,,,,,,,,,,,,,,,,,,,,,,,,,,,,,,,,,,,,,,,,,,,,,,,,,,,,
,,5c6d938c79151c00017c7560,2023-12-07_06h29.10.420,kallum_motion_pilot,2023.2.3,Win32,143.4514417,5c6d938c79151c00017c7560,6560176e4d91f764e2a42c74,657157ec370a957374a21233,0.0378,0.0378,0,47,47,72,1,onetwo,,,,,,,,,,,,,,,,,,,,,,,,,,,,,,,,,,,,,,,,,,,,,,,,,,,,,,,,,,,,,,,,,,,,,,,,,,,,,,,,,,,,,,,,,,,,,,,,,,,,,,,,,,,,,,,,,,,,,,,,,,,,,,,,,,,,,,,
,,5c6d938c79151c00017c7560,2023-12-07_06h29.10.420,kallum_motion_pilot,2023.2.3,Win32,143.4514417,5c6d938c79151c00017c7560,6560176e4d91f764e2a42c74,657157ec370a957374a21233,0.038,0.038,0,48,48,74,1,twoone,,,,,,,,,,,,,,,,,,,,,,,,,,,,,,,,,,,,,,,,,,,,,,,,,,,,,,,,,,,,,,,,,,,,,,,,,,,,,,,,,,,,,,,,,,,,,,,,,,,,,,,,,,,,,,,,,,,,,,,,,,,,,,,,,,,,,,,
,,5c6d938c79151c00017c7560,2023-12-07_06h29.10.420,kallum_motion_pilot,2023.2.3,Win32,143.4514417,5c6d938c79151c00017c7560,6560176e4d91f764e2a42c74,657157ec370a957374a21233,0.0381,0.0382,0,49,49,21,1,threefour,,,,,,,,,,,,,,,,,,,,,,,,,,,,,,,,,,,,,,,,,,,,,,,,,,,,,,,,,,,,,,,,,,,,,,,,,,,,,,,,,,,,,,,,,,,,,,,,,,,,,,,,,,,,,,,,,,,,,,,,,,,,,,,,,,,,,,,
,,5c6d938c79151c00017c7560,2023-12-07_06h29.10.420,kallum_motion_pilot,2023.2.3,Win32,143.4514417,5c6d938c79151c00017c7560,6560176e4d91f764e2a42c74,657157ec370a957374a21233,0.0384,0.0385,0,50,50,35,1,twofour,,,,,,,,,,,,,,,,,,,,,,,,,,,,,,,,,,,,,,,,,,,,,,,,,,,,,,,,,,,,,,,,,,,,,,,,,,,,,,,,,,,,,,,,,,,,,,,,,,,,,,,,,,,,,,,,,,,,,,,,,,,,,,,,,,,,,,,
,,5c6d938c79151c00017c7560,2023-12-07_06h29.10.420,kallum_motion_pilot,2023.2.3,Win32,143.4514417,5c6d938c79151c00017c7560,6560176e4d91f764e2a42c74,657157ec370a957374a21233,0.0396,0.0396,0,51,51,121,1,fiveseven,,,,,,,,,,,,,,,,,,,,,,,,,,,,,,,,,,,,,,,,,,,,,,,,,,,,,,,,,,,,,,,,,,,,,,,,,,,,,,,,,,,,,,,,,,,,,,,,,,,,,,,,,,,,,,,,,,,,,,,,,,,,,,,,,,,,,,,
,,5c6d938c79151c00017c7560,2023-12-07_06h29.10.420,kallum_motion_pilot,2023.2.3,Win32,143.4514417,5c6d938c79151c00017c7560,6560176e4d91f764e2a42c74,657157ec370a957374a21233,0.04,0.0401,0,52,52,106,1,sixfive,,,,,,,,,,,,,,,,,,,,,,,,,,,,,,,,,,,,,,,,,,,,,,,,,,,,,,,,,,,,,,,,,,,,,,,,,,,,,,,,,,,,,,,,,,,,,,,,,,,,,,,,,,,,,,,,,,,,,,,,,,,,,,,,,,,,,,,
,,5c6d938c79151c00017c7560,2023-12-07_06h29.10.420,kallum_motion_pilot,2023.2.3,Win32,143.4514417,5c6d938c79151c00017c7560,6560176e4d91f764e2a42c74,657157ec370a957374a21233,0.0409,0.041,0,53,53,33,1,onethree,,,,,,,,,,,,,,,,,,,,,,,,,,,,,,,,,,,,,,,,,,,,,,,,,,,,,,,,,,,,,,,,,,,,,,,,,,,,,,,,,,,,,,,,,,,,,,,,,,,,,,,,,,,,,,,,,,,,,,,,,,,,,,,,,,,,,,,
,,5c6d938c79151c00017c7560,2023-12-07_06h29.10.420,kallum_motion_pilot,2023.2.3,Win32,143.4514417,5c6d938c79151c00017c7560,6560176e4d91f764e2a42c74,657157ec370a957374a21233,0.0415,0.0416,0,54,54,131,1,sixeight,,,,,,,,,,,,,,,,,,,,,,,,,,,,,,,,,,,,,,,,,,,,,,,,,,,,,,,,,,,,,,,,,,,,,,,,,,,,,,,,,,,,,,,,,,,,,,,,,,,,,,,,,,,,,,,,,,,,,,,,,,,,,,,,,,,,,,,
,,5c6d938c79151c00017c7560,2023-12-07_06h29.10.420,kallum_motion_pilot,2023.2.3,Win32,143.4514417,5c6d938c79151c00017c7560,6560176e4d91f764e2a42c74,657157ec370a957374a21233,0.0418,0.0419,0,55,55,85,1,seveneight,,,,,,,,,,,,,,,,,,,,,,,,,,,,,,,,,,,,,,,,,,,,,,,,,,,,,,,,,,,,,,,,,,,,,,,,,,,,,,,,,,,,,,,,,,,,,,,,,,,,,,,,,,,,,,,,,,,,,,,,,,,,,,,,,,,,,,,
,,5c6d938c79151c00017c7560,2023-12-07_06h29.10.420,kallum_motion_pilot,2023.2.3,Win32,143.4514417,5c6d938c79151c00017c7560,6560176e4d91f764e2a42c74,657157ec370a957374a21233,0.0421,0.0421,0,56,56,109,1,seveneight,,,,,,,,,,,,,,,,,,,,,,,,,,,,,,,,,,,,,,,,,,,,,,,,,,,,,,,,,,,,,,,,,,,,,,,,,,,,,,,,,,,,,,,,,,,,,,,,,,,,,,,,,,,,,,,,,,,,,,,,,,,,,,,,,,,,,,,
,,5c6d938c79151c00017c7560,2023-12-07_06h29.10.420,kallum_motion_pilot,2023.2.3,Win32,143.4514417,5c6d938c79151c00017c7560,6560176e4d91f764e2a42c74,657157ec370a957374a21233,0.0424,0.0425,0,57,57,129,1,fiveseven,,,,,,,,,,,,,,,,,,,,,,,,,,,,,,,,,,,,,,,,,,,,,,,,,,,,,,,,,,,,,,,,,,,,,,,,,,,,,,,,,,,,,,,,,,,,,,,,,,,,,,,,,,,,,,,,,,,,,,,,,,,,,,,,,,,,,,,
,,5c6d938c79151c00017c7560,2023-12-07_06h29.10.420,kallum_motion_pilot,2023.2.3,Win32,143.4514417,5c6d938c79151c00017c7560,6560176e4d91f764e2a42c74,657157ec370a957374a21233,0.0426,0.0427,0,58,58,159,1,eightseven,,,,,,,,,,,,,,,,,,,,,,,,,,,,,,,,,,,,,,,,,,,,,,,,,,,,,,,,,,,,,,,,,,,,,,,,,,,,,,,,,,,,,,,,,,,,,,,,,,,,,,,,,,,,,,,,,,,,,,,,,,,,,,,,,,,,,,,
,,5c6d938c79151c00017c7560,2023-12-07_06h29.10.420,kallum_motion_pilot,2023.2.3,Win32,143.4514417,5c6d938c79151c00017c7560,6560176e4d91f764e2a42c74,657157ec370a957374a21233,0.0428,0.0428,0,59,59,19,1,twofour,,,,,,,,,,,,,,,,,,,,,,,,,,,,,,,,,,,,,,,,,,,,,,,,,,,,,,,,,,,,,,,,,,,,,,,,,,,,,,,,,,,,,,,,,,,,,,,,,,,,,,,,,,,,,,,,,,,,,,,,,,,,,,,,,,,,,,,
,,5c6d938c79151c00017c7560,2023-12-07_06h29.10.420,kallum_motion_pilot,2023.2.3,Win32,143.4514417,5c6d938c79151c00017c7560,6560176e4d91f764e2a42c74,657157ec370a957374a21233,0.0429,0.043,0,60,60,157,1,seveneight,,,,,,,,,,,,,,,,,,,,,,,,,,,,,,,,,,,,,,,,,,,,,,,,,,,,,,,,,,,,,,,,,,,,,,,,,,,,,,,,,,,,,,,,,,,,,,,,,,,,,,,,,,,,,,,,,,,,,,,,,,,,,,,,,,,,,,,
,,5c6d938c79151c00017c7560,2023-12-07_06h29.10.420,kallum_motion_pilot,2023.2.3,Win32,143.4514417,5c6d938c79151c00017c7560,6560176e4d91f764e2a42c74,657157ec370a957374a21233,0.0432,0.0433,0,61,61,1,1,onethree,,,,,,,,,,,,,,,,,,,,,,,,,,,,,,,,,,,,,,,,,,,,,,,,,,,,,,,,,,,,,,,,,,,,,,,,,,,,,,,,,,,,,,,,,,,,,,,,,,,,,,,,,,,,,,,,,,,,,,,,,,,,,,,,,,,,,,,
,,5c6d938c79151c00017c7560,2023-12-07_06h29.10.420,kallum_motion_pilot,2023.2.3,Win32,143.4514417,5c6d938c79151c00017c7560,6560176e4d91f764e2a42c74,657157ec370a957374a21233,0.0435,0.0436,0,62,62,141,1,seveneight,,,,,,,,,,,,,,,,,,,,,,,,,,,,,,,,,,,,,,,,,,,,,,,,,,,,,,,,,,,,,,,,,,,,,,,,,,,,,,,,,,,,,,,,,,,,,,,,,,,,,,,,,,,,,,,,,,,,,,,,,,,,,,,,,,,,,,,
,,5c6d938c79151c00017c7560,2023-12-07_06h29.10.420,kallum_motion_pilot,2023.2.3,Win32,143.4514417,5c6d938c79151c00017c7560,6560176e4d91f764e2a42c74,657157ec370a957374a21233,0.0438,0.0439,0,63,63,102,1,eightsix,,,,,,,,,,,,,,,,,,,,,,,,,,,,,,,,,,,,,,,,,,,,,,,,,,,,,,,,,,,,,,,,,,,,,,,,,,,,,,,,,,,,,,,,,,,,,,,,,,,,,,,,,,,,,,,,,,,,,,,,,,,,,,,,,,,,,,,
,,5c6d938c79151c00017c7560,2023-12-07_06h29.10.420,kallum_motion_pilot,2023.2.3,Win32,143.4514417,5c6d938c79151c00017c7560,6560176e4d91f764e2a42c74,657157ec370a957374a21233,0.044,0.044,0,64,64,148,1,sevenfive,,,,,,,,,,,,,,,,,,,,,,,,,,,,,,,,,,,,,,,,,,,,,,,,,,,,,,,,,,,,,,,,,,,,,,,,,,,,,,,,,,,,,,,,,,,,,,,,,,,,,,,,,,,,,,,,,,,,,,,,,,,,,,,,,,,,,,,
,,5c6d938c79151c00017c7560,2023-12-07_06h29.10.420,kallum_motion_pilot,2023.2.3,Win32,143.4514417,5c6d938c79151c00017c7560,6560176e4d91f764e2a42c74,657157ec370a957374a21233,0.0442,0.0443,0,65,65,80,1,fivesix,,,,,,,,,,,,,,,,,,,,,,,,,,,,,,,,,,,,,,,,,,,,,,,,,,,,,,,,,,,,,,,,,,,,,,,,,,,,,,,,,,,,,,,,,,,,,,,,,,,,,,,,,,,,,,,,,,,,,,,,,,,,,,,,,,,,,,,
,,5c6d938c79151c00017c7560,2023-12-07_06h29.10.420,kallum_motion_pilot,2023.2.3,Win32,143.4514417,5c6d938c79151c00017c7560,6560176e4d91f764e2a42c74,657157ec370a957374a21233,0.0445,0.0445,0,66,66,156,1,sevenfive,,,,,,,,,,,,,,,,,,,,,,,,,,,,,,,,,,,,,,,,,,,,,,,,,,,,,,,,,,,,,,,,,,,,,,,,,,,,,,,,,,,,,,,,,,,,,,,,,,,,,,,,,,,,,,,,,,,,,,,,,,,,,,,,,,,,,,,
,,5c6d938c79151c00017c7560,2023-12-07_06h29.10.420,kallum_motion_pilot,2023.2.3,Win32,143.4514417,5c6d938c79151c00017c7560,6560176e4d91f764e2a42c74,657157ec370a957374a21233,0.0448,0.0448,0,67,67,115,1,sixeight,,,,,,,,,,,,,,,,,,,,,,,,,,,,,,,,,,,,,,,,,,,,,,,,,,,,,,,,,,,,,,,,,,,,,,,,,,,,,,,,,,,,,,,,,,,,,,,,,,,,,,,,,,,,,,,,,,,,,,,,,,,,,,,,,,,,,,,
,,5c6d938c79151c00017c7560,2023-12-07_06h29.10.420,kallum_motion_pilot,2023.2.3,Win32,143.4514417,5c6d938c79151c00017c7560,6560176e4d91f764e2a42c74,657157ec370a957374a21233,0.0449,0.045,0,68,68,149,1,seveneight,,,,,,,,,,,,,,,,,,,,,,,,,,,,,,,,,,,,,,,,,,,,,,,,,,,,,,,,,,,,,,,,,,,,,,,,,,,,,,,,,,,,,,,,,,,,,,,,,,,,,,,,,,,,,,,,,,,,,,,,,,,,,,,,,,,,,,,
,,5c6d938c79151c00017c7560,2023-12-07_06h29.10.420,kallum_motion_pilot,2023.2.3,Win32,143.4514417,5c6d938c79151c00017c7560,6560176e4d91f764e2a42c74,657157ec370a957374a21233,0.0452,0.0453,0,69,69,147,1,sixeight,,,,,,,,,,,,,,,,,,,,,,,,,,,,,,,,,,,,,,,,,,,,,,,,,,,,,,,,,,,,,,,,,,,,,,,,,,,,,,,,,,,,,,,,,,,,,,,,,,,,,,,,,,,,,,,,,,,,,,,,,,,,,,,,,,,,,,,
,,5c6d938c79151c00017c7560,2023-12-07_06h29.10.420,kallum_motion_pilot,2023.2.3,Win32,143.4514417,5c6d938c79151c00017c7560,6560176e4d91f764e2a42c74,657157ec370a957374a21233,0.0455,0.0456,0,70,70,34,1,twoone,,,,,,,,,,,,,,,,,,,,,,,,,,,,,,,,,,,,,,,,,,,,,,,,,,,,,,,,,,,,,,,,,,,,,,,,,,,,,,,,,,,,,,,,,,,,,,,,,,,,,,,,,,,,,,,,,,,,,,,,,,,,,,,,,,,,,,,
,,5c6d938c79151c00017c7560,2023-12-07_06h29.10.420,kallum_motion_pilot,2023.2.3,Win32,143.4514417,5c6d938c79151c00017c7560,6560176e4d91f764e2a42c74,657157ec370a957374a21233,0.0457,0.0459,0,71,71,101,1,seveneight,,,,,,,,,,,,,,,,,,,,,,,,,,,,,,,,,,,,,,,,,,,,,,,,,,,,,,,,,,,,,,,,,,,,,,,,,,,,,,,,,,,,,,,,,,,,,,,,,,,,,,,,,,,,,,,,,,,,,,,,,,,,,,,,,,,,,,,
,,5c6d938c79151c00017c7560,2023-12-07_06h29.10.420,kallum_motion_pilot,2023.2.3,Win32,143.4514417,5c6d938c79151c00017c7560,6560176e4d91f764e2a42c74,657157ec370a957374a21233,0.046,0.046,0,72,72,58,1,twoone,,,,,,,,,,,,,,,,,,,,,,,,,,,,,,,,,,,,,,,,,,,,,,,,,,,,,,,,,,,,,,,,,,,,,,,,,,,,,,,,,,,,,,,,,,,,,,,,,,,,,,,,,,,,,,,,,,,,,,,,,,,,,,,,,,,,,,,
,,5c6d938c79151c00017c7560,2023-12-07_06h29.10.420,kallum_motion_pilot,2023.2.3,Win32,143.4514417,5c6d938c79151c00017c7560,6560176e4d91f764e2a42c74,657157ec370a957374a21233,0.0463,0.0465,0,73,73,5,1,threefour,,,,,,,,,,,,,,,,,,,,,,,,,,,,,,,,,,,,,,,,,,,,,,,,,,,,,,,,,,,,,,,,,,,,,,,,,,,,,,,,,,,,,,,,,,,,,,,,,,,,,,,,,,,,,,,,,,,,,,,,,,,,,,,,,,,,,,,
,,5c6d938c79151c00017c7560,2023-12-07_06h29.10.420,kallum_motion_pilot,2023.2.3,Win32,143.4514417,5c6d938c79151c00017c7560,6560176e4d91f764e2a42c74,657157ec370a957374a21233,0.0466,0.0467,0,74,74,32,1,onetwo,,,,,,,,,,,,,,,,,,,,,,,,,,,,,,,,,,,,,,,,,,,,,,,,,,,,,,,,,,,,,,,,,,,,,,,,,,,,,,,,,,,,,,,,,,,,,,,,,,,,,,,,,,,,,,,,,,,,,,,,,,,,,,,,,,,,,,,
,,5c6d938c79151c00017c7560,2023-12-07_06h29.10.420,kallum_motion_pilot,2023.2.3,Win32,143.4514417,5c6d938c79151c00017c7560,6560176e4d91f764e2a42c74,657157ec370a957374a21233,0.0478,0.0479,0,75,75,63,1,fourthree,,,,,,,,,,,,,,,,,,,,,,,,,,,,,,,,,,,,,,,,,,,,,,,,,,,,,,,,,,,,,,,,,,,,,,,,,,,,,,,,,,,,,,,,,,,,,,,,,,,,,,,,,,,,,,,,,,,,,,,,,,,,,,,,,,,,,,,
,,5c6d938c79151c00017c7560,2023-12-07_06h29.10.420,kallum_motion_pilot,2023.2.3,Win32,143.4514417,5c6d938c79151c00017c7560,6560176e4d91f764e2a42c74,657157ec370a957374a21233,0.0484,0.0485,0,76,76,41,1,onethree,,,,,,,,,,,,,,,,,,,,,,,,,,,,,,,,,,,,,,,,,,,,,,,,,,,,,,,,,,,,,,,,,,,,,,,,,,,,,,,,,,,,,,,,,,,,,,,,,,,,,,,,,,,,,,,,,,,,,,,,,,,,,,,,,,,,,,,
,,5c6d938c79151c00017c7560,2023-12-07_06h29.10.420,kallum_motion_pilot,2023.2.3,Win32,143.4514417,5c6d938c79151c00017c7560,6560176e4d91f764e2a42c74,657157ec370a957374a21233,0.0488,0.0489,0,77,77,16,1,onetwo,,,,,,,,,,,,,,,,,,,,,,,,,,,,,,,,,,,,,,,,,,,,,,,,,,,,,,,,,,,,,,,,,,,,,,,,,,,,,,,,,,,,,,,,,,,,,,,,,,,,,,,,,,,,,,,,,,,,,,,,,,,,,,,,,,,,,,,
,,5c6d938c79151c00017c7560,2023-12-07_06h29.10.420,kallum_motion_pilot,2023.2.3,Win32,143.4514417,5c6d938c79151c00017c7560,6560176e4d91f764e2a42c74,657157ec370a957374a21233,0.049,0.0491,0,78,78,31,1,fourthree,,,,,,,,,,,,,,,,,,,,,,,,,,,,,,,,,,,,,,,,,,,,,,,,,,,,,,,,,,,,,,,,,,,,,,,,,,,,,,,,,,,,,,,,,,,,,,,,,,,,,,,,,,,,,,,,,,,,,,,,,,,,,,,,,,,,,,,
,,5c6d938c79151c00017c7560,2023-12-07_06h29.10.420,kallum_motion_pilot,2023.2.3,Win32,143.4514417,5c6d938c79151c00017c7560,6560176e4d91f764e2a42c74,657157ec370a957374a21233,0.0494,0.0496,0,79,79,17,1,onethree,,,,,,,,,,,,,,,,,,,,,,,,,,,,,,,,,,,,,,,,,,,,,,,,,,,,,,,,,,,,,,,,,,,,,,,,,,,,,,,,,,,,,,,,,,,,,,,,,,,,,,,,,,,,,,,,,,,,,,,,,,,,,,,,,,,,,,,
,,5c6d938c79151c00017c7560,2023-12-07_06h29.10.420,kallum_motion_pilot,2023.2.3,Win32,143.4514417,5c6d938c79151c00017c7560,6560176e4d91f764e2a42c74,657157ec370a957374a21233,0.0498,0.0499,0,80,80,50,1,twoone,,,,,,,,,,,,,,,,,,,,,,,,,,,,,,,,,,,,,,,,,,,,,,,,,,,,,,,,,,,,,,,,,,,,,,,,,,,,,,,,,,,,,,,,,,,,,,,,,,,,,,,,,,,,,,,,,,,,,,,,,,,,,,,,,,,,,,,
,,5c6d938c79151c00017c7560,2023-12-07_06h29.10.420,kallum_motion_pilot,2023.2.3,Win32,143.4514417,5c6d938c79151c00017c7560,6560176e4d91f764e2a42c74,657157ec370a957374a21233,0.0502,0.0503,0,81,81,158,1,eightsix,,,,,,,,,,,,,,,,,,,,,,,,,,,,,,,,,,,,,,,,,,,,,,,,,,,,,,,,,,,,,,,,,,,,,,,,,,,,,,,,,,,,,,,,,,,,,,,,,,,,,,,,,,,,,,,,,,,,,,,,,,,,,,,,,,,,,,,
,,5c6d938c79151c00017c7560,2023-12-07_06h29.10.420,kallum_motion_pilot,2023.2.3,Win32,143.4514417,5c6d938c79151c00017c7560,6560176e4d91f764e2a42c74,657157ec370a957374a21233,0.0508,0.0508,0,82,82,82,1,sixfive,,,,,,,,,,,,,,,,,,,,,,,,,,,,,,,,,,,,,,,,,,,,,,,,,,,,,,,,,,,,,,,,,,,,,,,,,,,,,,,,,,,,,,,,,,,,,,,,,,,,,,,,,,,,,,,,,,,,,,,,,,,,,,,,,,,,,,,
,,5c6d938c79151c00017c7560,2023-12-07_06h29.10.420,kallum_motion_pilot,2023.2.3,Win32,143.4514417,5c6d938c79151c00017c7560,6560176e4d91f764e2a42c74,657157ec370a957374a21233,0.0509,0.0511,0,83,83,44,1,threeone,,,,,,,,,,,,,,,,,,,,,,,,,,,,,,,,,,,,,,,,,,,,,,,,,,,,,,,,,,,,,,,,,,,,,,,,,,,,,,,,,,,,,,,,,,,,,,,,,,,,,,,,,,,,,,,,,,,,,,,,,,,,,,,,,,,,,,,
,,5c6d938c79151c00017c7560,2023-12-07_06h29.10.420,kallum_motion_pilot,2023.2.3,Win32,143.4514417,5c6d938c79151c00017c7560,6560176e4d91f764e2a42c74,657157ec370a957374a21233,0.0514,0.0514,0,84,84,20,1,threeone,,,,,,,,,,,,,,,,,,,,,,,,,,,,,,,,,,,,,,,,,,,,,,,,,,,,,,,,,,,,,,,,,,,,,,,,,,,,,,,,,,,,,,,,,,,,,,,,,,,,,,,,,,,,,,,,,,,,,,,,,,,,,,,,,,,,,,,
,,5c6d938c79151c00017c7560,2023-12-07_06h29.10.420,kallum_motion_pilot,2023.2.3,Win32,143.4514417,5c6d938c79151c00017c7560,6560176e4d91f764e2a42c74,657157ec370a957374a21233,0.0516,0.0518,0,85,85,137,1,fiveseven,,,,,,,,,,,,,,,,,,,,,,,,,,,,,,,,,,,,,,,,,,,,,,,,,,,,,,,,,,,,,,,,,,,,,,,,,,,,,,,,,,,,,,,,,,,,,,,,,,,,,,,,,,,,,,,,,,,,,,,,,,,,,,,,,,,,,,,
,,5c6d938c79151c00017c7560,2023-12-07_06h29.10.420,kallum_motion_pilot,2023.2.3,Win32,143.4514417,5c6d938c79151c00017c7560,6560176e4d91f764e2a42c74,657157ec370a957374a21233,0.0519,0.0519,0,86,86,29,1,threefour,,,,,,,,,,,,,,,,,,,,,,,,,,,,,,,,,,,,,,,,,,,,,,,,,,,,,,,,,,,,,,,,,,,,,,,,,,,,,,,,,,,,,,,,,,,,,,,,,,,,,,,,,,,,,,,,,,,,,,,,,,,,,,,,,,,,,,,
,,5c6d938c79151c00017c7560,2023-12-07_06h29.10.420,kallum_motion_pilot,2023.2.3,Win32,143.4514417,5c6d938c79151c00017c7560,6560176e4d91f764e2a42c74,657157ec370a957374a21233,0.0521,0.0522,0,87,87,54,1,fourtwo,,,,,,,,,,,,,,,,,,,,,,,,,,,,,,,,,,,,,,,,,,,,,,,,,,,,,,,,,,,,,,,,,,,,,,,,,,,,,,,,,,,,,,,,,,,,,,,,,,,,,,,,,,,,,,,,,,,,,,,,,,,,,,,,,,,,,,,
,,5c6d938c79151c00017c7560,2023-12-07_06h29.10.420,kallum_motion_pilot,2023.2.3,Win32,143.4514417,5c6d938c79151c00017c7560,6560176e4d91f764e2a42c74,657157ec370a957374a21233,0.0525,0.0526,0,88,88,114,1,sixfive,,,,,,,,,,,,,,,,,,,,,,,,,,,,,,,,,,,,,,,,,,,,,,,,,,,,,,,,,,,,,,,,,,,,,,,,,,,,,,,,,,,,,,,,,,,,,,,,,,,,,,,,,,,,,,,,,,,,,,,,,,,,,,,,,,,,,,,
,,5c6d938c79151c00017c7560,2023-12-07_06h29.10.420,kallum_motion_pilot,2023.2.3,Win32,143.4514417,5c6d938c79151c00017c7560,6560176e4d91f764e2a42c74,657157ec370a957374a21233,0.0527,0.0528,0,89,89,127,1,eightseven,,,,,,,,,,,,,,,,,,,,,,,,,,,,,,,,,,,,,,,,,,,,,,,,,,,,,,,,,,,,,,,,,,,,,,,,,,,,,,,,,,,,,,,,,,,,,,,,,,,,,,,,,,,,,,,,,,,,,,,,,,,,,,,,,,,,,,,
,,5c6d938c79151c00017c7560,2023-12-07_06h29.10.420,kallum_motion_pilot,2023.2.3,Win32,143.4514417,5c6d938c79151c00017c7560,6560176e4d91f764e2a42c74,657157ec370a957374a21233,0.0529,0.0531,0,90,90,0,1,onetwo,,,,,,,,,,,,,,,,,,,,,,,,,,,,,,,,,,,,,,,,,,,,,,,,,,,,,,,,,,,,,,,,,,,,,,,,,,,,,,,,,,,,,,,,,,,,,,,,,,,,,,,,,,,,,,,,,,,,,,,,,,,,,,,,,,,,,,,
,,5c6d938c79151c00017c7560,2023-12-07_06h29.10.420,kallum_motion_pilot,2023.2.3,Win32,143.4514417,5c6d938c79151c00017c7560,6560176e4d91f764e2a42c74,657157ec370a957374a21233,0.0535,0.0539,0,91,91,87,1,eightseven,,,,,,,,,,,,,,,,,,,,,,,,,,,,,,,,,,,,,,,,,,,,,,,,,,,,,,,,,,,,,,,,,,,,,,,,,,,,,,,,,,,,,,,,,,,,,,,,,,,,,,,,,,,,,,,,,,,,,,,,,,,,,,,,,,,,,,,
,,5c6d938c79151c00017c7560,2023-12-07_06h29.10.420,kallum_motion_pilot,2023.2.3,Win32,143.4514417,5c6d938c79151c00017c7560,6560176e4d91f764e2a42c74,657157ec370a957374a21233,0.0541,0.0546,0,92,92,15,1,fourthree,,,,,,,,,,,,,,,,,,,,,,,,,,,,,,,,,,,,,,,,,,,,,,,,,,,,,,,,,,,,,,,,,,,,,,,,,,,,,,,,,,,,,,,,,,,,,,,,,,,,,,,,,,,,,,,,,,,,,,,,,,,,,,,,,,,,,,,
,,5c6d938c79151c00017c7560,2023-12-07_06h29.10.420,kallum_motion_pilot,2023.2.3,Win32,143.4514417,5c6d938c79151c00017c7560,6560176e4d91f764e2a42c74,657157ec370a957374a21233,0.0548,0.055,0,93,93,59,1,twofour,,,,,,,,,,,,,,,,,,,,,,,,,,,,,,,,,,,,,,,,,,,,,,,,,,,,,,,,,,,,,,,,,,,,,,,,,,,,,,,,,,,,,,,,,,,,,,,,,,,,,,,,,,,,,,,,,,,,,,,,,,,,,,,,,,,,,,,
,,5c6d938c79151c00017c7560,2023-12-07_06h29.10.420,kallum_motion_pilot,2023.2.3,Win32,143.4514417,5c6d938c79151c00017c7560,6560176e4d91f764e2a42c74,657157ec370a957374a21233,0.0551,0.0552,0,94,94,37,1,threefour,,,,,,,,,,,,,,,,,,,,,,,,,,,,,,,,,,,,,,,,,,,,,,,,,,,,,,,,,,,,,,,,,,,,,,,,,,,,,,,,,,,,,,,,,,,,,,,,,,,,,,,,,,,,,,,,,,,,,,,,,,,,,,,,,,,,,,,
,,5c6d938c79151c00017c7560,2023-12-07_06h29.10.420,kallum_motion_pilot,2023.2.3,Win32,143.4514417,5c6d938c79151c00017c7560,6560176e4d91f764e2a42c74,657157ec370a957374a21233,0.0553,0.0554,0,95,95,96,1,fivesix,,,,,,,,,,,,,,,,,,,,,,,,,,,,,,,,,,,,,,,,,,,,,,,,,,,,,,,,,,,,,,,,,,,,,,,,,,,,,,,,,,,,,,,,,,,,,,,,,,,,,,,,,,,,,,,,,,,,,,,,,,,,,,,,,,,,,,,
,,5c6d938c79151c00017c7560,2023-12-07_06h29.10.420,kallum_motion_pilot,2023.2.3,Win32,143.4514417,5c6d938c79151c00017c7560,6560176e4d91f764e2a42c74,657157ec370a957374a21233,0.0557,0.0557,0,96,96,160,1,fivesix,,,,,,,,,,,,,,,,,,,,,,,,,,,,,,,,,,,,,,,,,,,,,,,,,,,,,,,,,,,,,,,,,,,,,,,,,,,,,,,,,,,,,,,,,,,,,,,,,,,,,,,,,,,,,,,,,,,,,,,,,,,,,,,,,,,,,,,
,,5c6d938c79151c00017c7560,2023-12-07_06h29.10.420,kallum_motion_pilot,2023.2.3,Win32,143.4514417,5c6d938c79151c00017c7560,6560176e4d91f764e2a42c74,657157ec370a957374a21233,0.0559,0.0559,0,97,97,135,1,eightseven,,,,,,,,,,,,,,,,,,,,,,,,,,,,,,,,,,,,,,,,,,,,,,,,,,,,,,,,,,,,,,,,,,,,,,,,,,,,,,,,,,,,,,,,,,,,,,,,,,,,,,,,,,,,,,,,,,,,,,,,,,,,,,,,,,,,,,,
,,5c6d938c79151c00017c7560,2023-12-07_06h29.10.420,kallum_motion_pilot,2023.2.3,Win32,143.4514417,5c6d938c79151c00017c7560,6560176e4d91f764e2a42c74,657157ec370a957374a21233,0.056,0.0561,0,98,98,69,1,threefour,,,,,,,,,,,,,,,,,,,,,,,,,,,,,,,,,,,,,,,,,,,,,,,,,,,,,,,,,,,,,,,,,,,,,,,,,,,,,,,,,,,,,,,,,,,,,,,,,,,,,,,,,,,,,,,,,,,,,,,,,,,,,,,,,,,,,,,
,,5c6d938c79151c00017c7560,2023-12-07_06h29.10.420,kallum_motion_pilot,2023.2.3,Win32,143.4514417,5c6d938c79151c00017c7560,6560176e4d91f764e2a42c74,657157ec370a957374a21233,0.0562,0.0563,0,99,99,26,1,twoone,,,,,,,,,,,,,,,,,,,,,,,,,,,,,,,,,,,,,,,,,,,,,,,,,,,,,,,,,,,,,,,,,,,,,,,,,,,,,,,,,,,,,,,,,,,,,,,,,,,,,,,,,,,,,,,,,,,,,,,,,,,,,,,,,,,,,,,
,,5c6d938c79151c00017c7560,2023-12-07_06h29.10.420,kallum_motion_pilot,2023.2.3,Win32,143.4514417,5c6d938c79151c00017c7560,6560176e4d91f764e2a42c74,657157ec370a957374a21233,0.0564,0.0565,0,100,100,88,1,fivesix,,,,,,,,,,,,,,,,,,,,,,,,,,,,,,,,,,,,,,,,,,,,,,,,,,,,,,,,,,,,,,,,,,,,,,,,,,,,,,,,,,,,,,,,,,,,,,,,,,,,,,,,,,,,,,,,,,,,,,,,,,,,,,,,,,,,,,,
,,5c6d938c79151c00017c7560,2023-12-07_06h29.10.420,kallum_motion_pilot,2023.2.3,Win32,143.4514417,5c6d938c79151c00017c7560,6560176e4d91f764e2a42c74,657157ec370a957374a21233,0.0566,0.0567,0,101,101,124,1,sevenfive,,,,,,,,,,,,,,,,,,,,,,,,,,,,,,,,,,,,,,,,,,,,,,,,,,,,,,,,,,,,,,,,,,,,,,,,,,,,,,,,,,,,,,,,,,,,,,,,,,,,,,,,,,,,,,,,,,,,,,,,,,,,,,,,,,,,,,,
,,5c6d938c79151c00017c7560,2023-12-07_06h29.10.420,kallum_motion_pilot,2023.2.3,Win32,143.4514417,5c6d938c79151c00017c7560,6560176e4d91f764e2a42c74,657157ec370a957374a21233,0.0568,0.0569,0,102,102,2,1,twoone,,,,,,,,,,,,,,,,,,,,,,,,,,,,,,,,,,,,,,,,,,,,,,,,,,,,,,,,,,,,,,,,,,,,,,,,,,,,,,,,,,,,,,,,,,,,,,,,,,,,,,,,,,,,,,,,,,,,,,,,,,,,,,,,,,,,,,,
,,5c6d938c79151c00017c7560,2023-12-07_06h29.10.420,kallum_motion_pilot,2023.2.3,Win32,143.4514417,5c6d938c79151c00017c7560,6560176e4d91f764e2a42c74,657157ec370a957374a21233,0.0571,0.0573,0,103,103,24,1,onetwo,,,,,,,,,,,,,,,,,,,,,,,,,,,,,,,,,,,,,,,,,,,,,,,,,,,,,,,,,,,,,,,,,,,,,,,,,,,,,,,,,,,,,,,,,,,,,,,,,,,,,,,,,,,,,,,,,,,,,,,,,,,,,,,,,,,,,,,
,,5c6d938c79151c00017c7560,2023-12-07_06h29.10.420,kallum_motion_pilot,2023.2.3,Win32,143.4514417,5c6d938c79151c00017c7560,6560176e4d91f764e2a42c74,657157ec370a957374a21233,0.0577,0.0578,0,104,104,25,1,onethree,,,,,,,,,,,,,,,,,,,,,,,,,,,,,,,,,,,,,,,,,,,,,,,,,,,,,,,,,,,,,,,,,,,,,,,,,,,,,,,,,,,,,,,,,,,,,,,,,,,,,,,,,,,,,,,,,,,,,,,,,,,,,,,,,,,,,,,
,,5c6d938c79151c00017c7560,2023-12-07_06h29.10.420,kallum_motion_pilot,2023.2.3,Win32,143.4514417,5c6d938c79151c00017c7560,6560176e4d91f764e2a42c74,657157ec370a957374a21233,0.058,0.058,0,105,105,90,1,sixfive,,,,,,,,,,,,,,,,,,,,,,,,,,,,,,,,,,,,,,,,,,,,,,,,,,,,,,,,,,,,,,,,,,,,,,,,,,,,,,,,,,,,,,,,,,,,,,,,,,,,,,,,,,,,,,,,,,,,,,,,,,,,,,,,,,,,,,,
,,5c6d938c79151c00017c7560,2023-12-07_06h29.10.420,kallum_motion_pilot,2023.2.3,Win32,143.4514417,5c6d938c79151c00017c7560,6560176e4d91f764e2a42c74,657157ec370a957374a21233,0.0585,0.0586,0,106,106,79,1,eightseven,,,,,,,,,,,,,,,,,,,,,,,,,,,,,,,,,,,,,,,,,,,,,,,,,,,,,,,,,,,,,,,,,,,,,,,,,,,,,,,,,,,,,,,,,,,,,,,,,,,,,,,,,,,,,,,,,,,,,,,,,,,,,,,,,,,,,,,
,,5c6d938c79151c00017c7560,2023-12-07_06h29.10.420,kallum_motion_pilot,2023.2.3,Win32,143.4514417,5c6d938c79151c00017c7560,6560176e4d91f764e2a42c74,657157ec370a957374a21233,0.0588,0.0589,0,107,107,77,1,threefour,,,,,,,,,,,,,,,,,,,,,,,,,,,,,,,,,,,,,,,,,,,,,,,,,,,,,,,,,,,,,,,,,,,,,,,,,,,,,,,,,,,,,,,,,,,,,,,,,,,,,,,,,,,,,,,,,,,,,,,,,,,,,,,,,,,,,,,
,,5c6d938c79151c00017c7560,2023-12-07_06h29.10.420,kallum_motion_pilot,2023.2.3,Win32,143.4514417,5c6d938c79151c00017c7560,6560176e4d91f764e2a42c74,657157ec370a957374a21233,0.059,0.0591,0,108,108,57,1,onethree,,,,,,,,,,,,,,,,,,,,,,,,,,,,,,,,,,,,,,,,,,,,,,,,,,,,,,,,,,,,,,,,,,,,,,,,,,,,,,,,,,,,,,,,,,,,,,,,,,,,,,,,,,,,,,,,,,,,,,,,,,,,,,,,,,,,,,,
,,5c6d938c79151c00017c7560,2023-12-07_06h29.10.420,kallum_motion_pilot,2023.2.3,Win32,143.4514417,5c6d938c79151c00017c7560,6560176e4d91f764e2a42c74,657157ec370a957374a21233,0.0593,0.0595,0,109,109,83,1,sixeight,,,,,,,,,,,,,,,,,,,,,,,,,,,,,,,,,,,,,,,,,,,,,,,,,,,,,,,,,,,,,,,,,,,,,,,,,,,,,,,,,,,,,,,,,,,,,,,,,,,,,,,,,,,,,,,,,,,,,,,,,,,,,,,,,,,,,,,
,,5c6d938c79151c00017c7560,2023-12-07_06h29.10.420,kallum_motion_pilot,2023.2.3,Win32,143.4514417,5c6d938c79151c00017c7560,6560176e4d91f764e2a42c74,657157ec370a957374a21233,0.0597,0.0597,0,110,110,154,1,sixfive,,,,,,,,,,,,,,,,,,,,,,,,,,,,,,,,,,,,,,,,,,,,,,,,,,,,,,,,,,,,,,,,,,,,,,,,,,,,,,,,,,,,,,,,,,,,,,,,,,,,,,,,,,,,,,,,,,,,,,,,,,,,,,,,,,,,,,,
,,5c6d938c79151c00017c7560,2023-12-07_06h29.10.420,kallum_motion_pilot,2023.2.3,Win32,143.4514417,5c6d938c79151c00017c7560,6560176e4d91f764e2a42c74,657157ec370a957374a21233,0.0599,0.0599,0,111,111,117,1,seveneight,,,,,,,,,,,,,,,,,,,,,,,,,,,,,,,,,,,,,,,,,,,,,,,,,,,,,,,,,,,,,,,,,,,,,,,,,,,,,,,,,,,,,,,,,,,,,,,,,,,,,,,,,,,,,,,,,,,,,,,,,,,,,,,,,,,,,,,
,,5c6d938c79151c00017c7560,2023-12-07_06h29.10.420,kallum_motion_pilot,2023.2.3,Win32,143.4514417,5c6d938c79151c00017c7560,6560176e4d91f764e2a42c74,657157ec370a957374a21233,0.06,0.06,0,112,112,27,1,twofour,,,,,,,,,,,,,,,,,,,,,,,,,,,,,,,,,,,,,,,,,,,,,,,,,,,,,,,,,,,,,,,,,,,,,,,,,,,,,,,,,,,,,,,,,,,,,,,,,,,,,,,,,,,,,,,,,,,,,,,,,,,,,,,,,,,,,,,
,,5c6d938c79151c00017c7560,2023-12-07_06h29.10.420,kallum_motion_pilot,2023.2.3,Win32,143.4514417,5c6d938c79151c00017c7560,6560176e4d91f764e2a42c74,657157ec370a957374a21233,0.0602,0.0602,0,113,113,71,1,fourthree,,,,,,,,,,,,,,,,,,,,,,,,,,,,,,,,,,,,,,,,,,,,,,,,,,,,,,,,,,,,,,,,,,,,,,,,,,,,,,,,,,,,,,,,,,,,,,,,,,,,,,,,,,,,,,,,,,,,,,,,,,,,,,,,,,,,,,,
,,5c6d938c79151c00017c7560,2023-12-07_06h29.10.420,kallum_motion_pilot,2023.2.3,Win32,143.4514417,5c6d938c79151c00017c7560,6560176e4d91f764e2a42c74,657157ec370a957374a21233,0.0604,0.0605,0,114,114,76,1,threeone,,,,,,,,,,,,,,,,,,,,,,,,,,,,,,,,,,,,,,,,,,,,,,,,,,,,,,,,,,,,,,,,,,,,,,,,,,,,,,,,,,,,,,,,,,,,,,,,,,,,,,,,,,,,,,,,,,,,,,,,,,,,,,,,,,,,,,,
,,5c6d938c79151c00017c7560,2023-12-07_06h29.10.420,kallum_motion_pilot,2023.2.3,Win32,143.4514417,5c6d938c79151c00017c7560,6560176e4d91f764e2a42c74,657157ec370a957374a21233,0.0608,0.0609,0,115,115,10,1,twoone,,,,,,,,,,,,,,,,,,,,,,,,,,,,,,,,,,,,,,,,,,,,,,,,,,,,,,,,,,,,,,,,,,,,,,,,,,,,,,,,,,,,,,,,,,,,,,,,,,,,,,,,,,,,,,,,,,,,,,,,,,,,,,,,,,,,,,,
,,5c6d938c79151c00017c7560,2023-12-07_06h29.10.420,kallum_motion_pilot,2023.2.3,Win32,143.4514417,5c6d938c79151c00017c7560,6560176e4d91f764e2a42c74,657157ec370a957374a21233,0.0615,0.0616,0,116,116,100,1,sevenfive,,,,,,,,,,,,,,,,,,,,,,,,,,,,,,,,,,,,,,,,,,,,,,,,,,,,,,,,,,,,,,,,,,,,,,,,,,,,,,,,,,,,,,,,,,,,,,,,,,,,,,,,,,,,,,,,,,,,,,,,,,,,,,,,,,,,,,,
,,5c6d938c79151c00017c7560,2023-12-07_06h29.10.420,kallum_motion_pilot,2023.2.3,Win32,143.4514417,5c6d938c79151c00017c7560,6560176e4d91f764e2a42c74,657157ec370a957374a21233,0.0618,0.0619,0,117,117,140,1,sevenfive,,,,,,,,,,,,,,,,,,,,,,,,,,,,,,,,,,,,,,,,,,,,,,,,,,,,,,,,,,,,,,,,,,,,,,,,,,,,,,,,,,,,,,,,,,,,,,,,,,,,,,,,,,,,,,,,,,,,,,,,,,,,,,,,,,,,,,,
,,5c6d938c79151c00017c7560,2023-12-07_06h29.10.420,kallum_motion_pilot,2023.2.3,Win32,143.4514417,5c6d938c79151c00017c7560,6560176e4d91f764e2a42c74,657157ec370a957374a21233,0.062,0.0621,0,118,118,142,1,eightsix,,,,,,,,,,,,,,,,,,,,,,,,,,,,,,,,,,,,,,,,,,,,,,,,,,,,,,,,,,,,,,,,,,,,,,,,,,,,,,,,,,,,,,,,,,,,,,,,,,,,,,,,,,,,,,,,,,,,,,,,,,,,,,,,,,,,,,,
,,5c6d938c79151c00017c7560,2023-12-07_06h29.10.420,kallum_motion_pilot,2023.2.3,Win32,143.4514417,5c6d938c79151c00017c7560,6560176e4d91f764e2a42c74,657157ec370a957374a21233,0.0623,0.0624,0,119,119,136,1,fivesix,,,,,,,,,,,,,,,,,,,,,,,,,,,,,,,,,,,,,,,,,,,,,,,,,,,,,,,,,,,,,,,,,,,,,,,,,,,,,,,,,,,,,,,,,,,,,,,,,,,,,,,,,,,,,,,,,,,,,,,,,,,,,,,,,,,,,,,
,,5c6d938c79151c00017c7560,2023-12-07_06h29.10.420,kallum_motion_pilot,2023.2.3,Win32,143.4514417,5c6d938c79151c00017c7560,6560176e4d91f764e2a42c74,657157ec370a957374a21233,0.0626,0.0627,0,120,120,126,1,eightsix,,,,,,,,,,,,,,,,,,,,,,,,,,,,,,,,,,,,,,,,,,,,,,,,,,,,,,,,,,,,,,,,,,,,,,,,,,,,,,,,,,,,,,,,,,,,,,,,,,,,,,,,,,,,,,,,,,,,,,,,,,,,,,,,,,,,,,,
,,5c6d938c79151c00017c7560,2023-12-07_06h29.10.420,kallum_motion_pilot,2023.2.3,Win32,143.4514417,5c6d938c79151c00017c7560,6560176e4d91f764e2a42c74,657157ec370a957374a21233,0.0628,0.0629,0,121,121,93,1,seveneight,,,,,,,,,,,,,,,,,,,,,,,,,,,,,,,,,,,,,,,,,,,,,,,,,,,,,,,,,,,,,,,,,,,,,,,,,,,,,,,,,,,,,,,,,,,,,,,,,,,,,,,,,,,,,,,,,,,,,,,,,,,,,,,,,,,,,,,
,,5c6d938c79151c00017c7560,2023-12-07_06h29.10.420,kallum_motion_pilot,2023.2.3,Win32,143.4514417,5c6d938c79151c00017c7560,6560176e4d91f764e2a42c74,657157ec370a957374a21233,0.063,0.063,0,122,122,64,1,onetwo,,,,,,,,,,,,,,,,,,,,,,,,,,,,,,,,,,,,,,,,,,,,,,,,,,,,,,,,,,,,,,,,,,,,,,,,,,,,,,,,,,,,,,,,,,,,,,,,,,,,,,,,,,,,,,,,,,,,,,,,,,,,,,,,,,,,,,,
,,5c6d938c79151c00017c7560,2023-12-07_06h29.10.420,kallum_motion_pilot,2023.2.3,Win32,143.4514417,5c6d938c79151c00017c7560,6560176e4d91f764e2a42c74,657157ec370a957374a21233,0.0631,0.0632,0,123,123,52,1,threeone,,,,,,,,,,,,,,,,,,,,,,,,,,,,,,,,,,,,,,,,,,,,,,,,,,,,,,,,,,,,,,,,,,,,,,,,,,,,,,,,,,,,,,,,,,,,,,,,,,,,,,,,,,,,,,,,,,,,,,,,,,,,,,,,,,,,,,,
,,5c6d938c79151c00017c7560,2023-12-07_06h29.10.420,kallum_motion_pilot,2023.2.3,Win32,143.4514417,5c6d938c79151c00017c7560,6560176e4d91f764e2a42c74,657157ec370a957374a21233,0.0634,0.0634,0,124,124,3,1,twofour,,,,,,,,,,,,,,,,,,,,,,,,,,,,,,,,,,,,,,,,,,,,,,,,,,,,,,,,,,,,,,,,,,,,,,,,,,,,,,,,,,,,,,,,,,,,,,,,,,,,,,,,,,,,,,,,,,,,,,,,,,,,,,,,,,,,,,,
,,5c6d938c79151c00017c7560,2023-12-07_06h29.10.420,kallum_motion_pilot,2023.2.3,Win32,143.4514417,5c6d938c79151c00017c7560,6560176e4d91f764e2a42c74,657157ec370a957374a21233,0.0636,0.0637,0,125,125,107,1,sixeight,,,,,,,,,,,,,,,,,,,,,,,,,,,,,,,,,,,,,,,,,,,,,,,,,,,,,,,,,,,,,,,,,,,,,,,,,,,,,,,,,,,,,,,,,,,,,,,,,,,,,,,,,,,,,,,,,,,,,,,,,,,,,,,,,,,,,,,
,,5c6d938c79151c00017c7560,2023-12-07_06h29.10.420,kallum_motion_pilot,2023.2.3,Win32,143.4514417,5c6d938c79151c00017c7560,6560176e4d91f764e2a42c74,657157ec370a957374a21233,0.0638,0.064,0,126,126,62,1,fourtwo,,,,,,,,,,,,,,,,,,,,,,,,,,,,,,,,,,,,,,,,,,,,,,,,,,,,,,,,,,,,,,,,,,,,,,,,,,,,,,,,,,,,,,,,,,,,,,,,,,,,,,,,,,,,,,,,,,,,,,,,,,,,,,,,,,,,,,,
,,5c6d938c79151c00017c7560,2023-12-07_06h29.10.420,kallum_motion_pilot,2023.2.3,Win32,143.4514417,5c6d938c79151c00017c7560,6560176e4d91f764e2a42c74,657157ec370a957374a21233,0.064,0.0648,0,127,127,132,1,sevenfive,,,,,,,,,,,,,,,,,,,,,,,,,,,,,,,,,,,,,,,,,,,,,,,,,,,,,,,,,,,,,,,,,,,,,,,,,,,,,,,,,,,,,,,,,,,,,,,,,,,,,,,,,,,,,,,,,,,,,,,,,,,,,,,,,,,,,,,
,,5c6d938c79151c00017c7560,2023-12-07_06h29.10.420,kallum_motion_pilot,2023.2.3,Win32,143.4514417,5c6d938c79151c00017c7560,6560176e4d91f764e2a42c74,657157ec370a957374a21233,0.065,0.065,0,128,128,139,1,sixeight,,,,,,,,,,,,,,,,,,,,,,,,,,,,,,,,,,,,,,,,,,,,,,,,,,,,,,,,,,,,,,,,,,,,,,,,,,,,,,,,,,,,,,,,,,,,,,,,,,,,,,,,,,,,,,,,,,,,,,,,,,,,,,,,,,,,,,,
,,5c6d938c79151c00017c7560,2023-12-07_06h29.10.420,kallum_motion_pilot,2023.2.3,Win32,143.4514417,5c6d938c79151c00017c7560,6560176e4d91f764e2a42c74,657157ec370a957374a21233,0.0652,0.0652,0,129,129,9,1,onethree,,,,,,,,,,,,,,,,,,,,,,,,,,,,,,,,,,,,,,,,,,,,,,,,,,,,,,,,,,,,,,,,,,,,,,,,,,,,,,,,,,,,,,,,,,,,,,,,,,,,,,,,,,,,,,,,,,,,,,,,,,,,,,,,,,,,,,,
,,5c6d938c79151c00017c7560,2023-12-07_06h29.10.420,kallum_motion_pilot,2023.2.3,Win32,143.4514417,5c6d938c79151c00017c7560,6560176e4d91f764e2a42c74,657157ec370a957374a21233,0.0654,0.0654,0,130,130,61,1,threefour,,,,,,,,,,,,,,,,,,,,,,,,,,,,,,,,,,,,,,,,,,,,,,,,,,,,,,,,,,,,,,,,,,,,,,,,,,,,,,,,,,,,,,,,,,,,,,,,,,,,,,,,,,,,,,,,,,,,,,,,,,,,,,,,,,,,,,,
,,5c6d938c79151c00017c7560,2023-12-07_06h29.10.420,kallum_motion_pilot,2023.2.3,Win32,143.4514417,5c6d938c79151c00017c7560,6560176e4d91f764e2a42c74,657157ec370a957374a21233,0.0655,0.0656,0,131,131,73,1,onethree,,,,,,,,,,,,,,,,,,,,,,,,,,,,,,,,,,,,,,,,,,,,,,,,,,,,,,,,,,,,,,,,,,,,,,,,,,,,,,,,,,,,,,,,,,,,,,,,,,,,,,,,,,,,,,,,,,,,,,,,,,,,,,,,,,,,,,,
,,5c6d938c79151c00017c7560,2023-12-07_06h29.10.420,kallum_motion_pilot,2023.2.3,Win32,143.4514417,5c6d938c79151c00017c7560,6560176e4d91f764e2a42c74,657157ec370a957374a21233,0.0657,0.0658,0,132,132,125,1,seveneight,,,,,,,,,,,,,,,,,,,,,,,,,,,,,,,,,,,,,,,,,,,,,,,,,,,,,,,,,,,,,,,,,,,,,,,,,,,,,,,,,,,,,,,,,,,,,,,,,,,,,,,,,,,,,,,,,,,,,,,,,,,,,,,,,,,,,,,
,,5c6d938c79151c00017c7560,2023-12-07_06h29.10.420,kallum_motion_pilot,2023.2.3,Win32,143.4514417,5c6d938c79151c00017c7560,6560176e4d91f764e2a42c74,657157ec370a957374a21233,0.0659,0.066,0,133,133,40,1,onetwo,,,,,,,,,,,,,,,,,,,,,,,,,,,,,,,,,,,,,,,,,,,,,,,,,,,,,,,,,,,,,,,,,,,,,,,,,,,,,,,,,,,,,,,,,,,,,,,,,,,,,,,,,,,,,,,,,,,,,,,,,,,,,,,,,,,,,,,
,,5c6d938c79151c00017c7560,2023-12-07_06h29.10.420,kallum_motion_pilot,2023.2.3,Win32,143.4514417,5c6d938c79151c00017c7560,6560176e4d91f764e2a42c74,657157ec370a957374a21233,0.066,0.066,0,134,134,18,1,twoone,,,,,,,,,,,,,,,,,,,,,,,,,,,,,,,,,,,,,,,,,,,,,,,,,,,,,,,,,,,,,,,,,,,,,,,,,,,,,,,,,,,,,,,,,,,,,,,,,,,,,,,,,,,,,,,,,,,,,,,,,,,,,,,,,,,,,,,
,,5c6d938c79151c00017c7560,2023-12-07_06h29.10.420,kallum_motion_pilot,2023.2.3,Win32,143.4514417,5c6d938c79151c00017c7560,6560176e4d91f764e2a42c74,657157ec370a957374a21233,0.0661,0.0663,0,135,135,134,1,eightsix,,,,,,,,,,,,,,,,,,,,,,,,,,,,,,,,,,,,,,,,,,,,,,,,,,,,,,,,,,,,,,,,,,,,,,,,,,,,,,,,,,,,,,,,,,,,,,,,,,,,,,,,,,,,,,,,,,,,,,,,,,,,,,,,,,,,,,,
,,5c6d938c79151c00017c7560,2023-12-07_06h29.10.420,kallum_motion_pilot,2023.2.3,Win32,143.4514417,5c6d938c79151c00017c7560,6560176e4d91f764e2a42c74,657157ec370a957374a21233,0.0664,0.0665,0,136,136,123,1,sixeight,,,,,,,,,,,,,,,,,,,,,,,,,,,,,,,,,,,,,,,,,,,,,,,,,,,,,,,,,,,,,,,,,,,,,,,,,,,,,,,,,,,,,,,,,,,,,,,,,,,,,,,,,,,,,,,,,,,,,,,,,,,,,,,,,,,,,,,
,,5c6d938c79151c00017c7560,2023-12-07_06h29.10.420,kallum_motion_pilot,2023.2.3,Win32,143.4514417,5c6d938c79151c00017c7560,6560176e4d91f764e2a42c74,657157ec370a957374a21233,0.0665,0.0666,0,137,137,98,1,sixfive,,,,,,,,,,,,,,,,,,,,,,,,,,,,,,,,,,,,,,,,,,,,,,,,,,,,,,,,,,,,,,,,,,,,,,,,,,,,,,,,,,,,,,,,,,,,,,,,,,,,,,,,,,,,,,,,,,,,,,,,,,,,,,,,,,,,,,,
,,5c6d938c79151c00017c7560,2023-12-07_06h29.10.420,kallum_motion_pilot,2023.2.3,Win32,143.4514417,5c6d938c79151c00017c7560,6560176e4d91f764e2a42c74,657157ec370a957374a21233,0.0667,0.0668,0,138,138,43,1,twofour,,,,,,,,,,,,,,,,,,,,,,,,,,,,,,,,,,,,,,,,,,,,,,,,,,,,,,,,,,,,,,,,,,,,,,,,,,,,,,,,,,,,,,,,,,,,,,,,,,,,,,,,,,,,,,,,,,,,,,,,,,,,,,,,,,,,,,,
,,5c6d938c79151c00017c7560,2023-12-07_06h29.10.420,kallum_motion_pilot,2023.2.3,Win32,143.4514417,5c6d938c79151c00017c7560,6560176e4d91f764e2a42c74,657157ec370a957374a21233,0.0668,0.0669,0,139,139,133,1,seveneight,,,,,,,,,,,,,,,,,,,,,,,,,,,,,,,,,,,,,,,,,,,,,,,,,,,,,,,,,,,,,,,,,,,,,,,,,,,,,,,,,,,,,,,,,,,,,,,,,,,,,,,,,,,,,,,,,,,,,,,,,,,,,,,,,,,,,,,
,,5c6d938c79151c00017c7560,2023-12-07_06h29.10.420,kallum_motion_pilot,2023.2.3,Win32,143.4514417,5c6d938c79151c00017c7560,6560176e4d91f764e2a42c74,657157ec370a957374a21233,0.0669,0.067,0,140,140,97,1,fiveseven,,,,,,,,,,,,,,,,,,,,,,,,,,,,,,,,,,,,,,,,,,,,,,,,,,,,,,,,,,,,,,,,,,,,,,,,,,,,,,,,,,,,,,,,,,,,,,,,,,,,,,,,,,,,,,,,,,,,,,,,,,,,,,,,,,,,,,,
,,5c6d938c79151c00017c7560,2023-12-07_06h29.10.420,kallum_motion_pilot,2023.2.3,Win32,143.4514417,5c6d938c79151c00017c7560,6560176e4d91f764e2a42c74,657157ec370a957374a21233,0.0671,0.0672,0,141,141,22,1,fourtwo,,,,,,,,,,,,,,,,,,,,,,,,,,,,,,,,,,,,,,,,,,,,,,,,,,,,,,,,,,,,,,,,,,,,,,,,,,,,,,,,,,,,,,,,,,,,,,,,,,,,,,,,,,,,,,,,,,,,,,,,,,,,,,,,,,,,,,,
,,5c6d938c79151c00017c7560,2023-12-07_06h29.10.420,kallum_motion_pilot,2023.2.3,Win32,143.4514417,5c6d938c79151c00017c7560,6560176e4d91f764e2a42c74,657157ec370a957374a21233,0.0673,0.0673,0,142,142,94,1,eightsix,,,,,,,,,,,,,,,,,,,,,,,,,,,,,,,,,,,,,,,,,,,,,,,,,,,,,,,,,,,,,,,,,,,,,,,,,,,,,,,,,,,,,,,,,,,,,,,,,,,,,,,,,,,,,,,,,,,,,,,,,,,,,,,,,,,,,,,
,,5c6d938c79151c00017c7560,2023-12-07_06h29.10.420,kallum_motion_pilot,2023.2.3,Win32,143.4514417,5c6d938c79151c00017c7560,6560176e4d91f764e2a42c74,657157ec370a957374a21233,0.0674,0.0677,0,143,143,42,1,twoone,,,,,,,,,,,,,,,,,,,,,,,,,,,,,,,,,,,,,,,,,,,,,,,,,,,,,,,,,,,,,,,,,,,,,,,,,,,,,,,,,,,,,,,,,,,,,,,,,,,,,,,,,,,,,,,,,,,,,,,,,,,,,,,,,,,,,,,
,,5c6d938c79151c00017c7560,2023-12-07_06h29.10.420,kallum_motion_pilot,2023.2.3,Win32,143.4514417,5c6d938c79151c00017c7560,6560176e4d91f764e2a42c74,657157ec370a957374a21233,0.0678,0.068,0,144,144,112,1,fivesix,,,,,,,,,,,,,,,,,,,,,,,,,,,,,,,,,,,,,,,,,,,,,,,,,,,,,,,,,,,,,,,,,,,,,,,,,,,,,,,,,,,,,,,,,,,,,,,,,,,,,,,,,,,,,,,,,,,,,,,,,,,,,,,,,,,,,,,
,,5c6d938c79151c00017c7560,2023-12-07_06h29.10.420,kallum_motion_pilot,2023.2.3,Win32,143.4514417,5c6d938c79151c00017c7560,6560176e4d91f764e2a42c74,657157ec370a957374a21233,0.0681,0.0685,0,145,145,161,1,fiveseven,,,,,,,,,,,,,,,,,,,,,,,,,,,,,,,,,,,,,,,,,,,,,,,,,,,,,,,,,,,,,,,,,,,,,,,,,,,,,,,,,,,,,,,,,,,,,,,,,,,,,,,,,,,,,,,,,,,,,,,,,,,,,,,,,,,,,,,
,,5c6d938c79151c00017c7560,2023-12-07_06h29.10.420,kallum_motion_pilot,2023.2.3,Win32,143.4514417,5c6d938c79151c00017c7560,6560176e4d91f764e2a42c74,657157ec370a957374a21233,0.0687,0.0688,0,146,146,53,1,threefour,,,,,,,,,,,,,,,,,,,,,,,,,,,,,,,,,,,,,,,,,,,,,,,,,,,,,,,,,,,,,,,,,,,,,,,,,,,,,,,,,,,,,,,,,,,,,,,,,,,,,,,,,,,,,,,,,,,,,,,,,,,,,,,,,,,,,,,
,,5c6d938c79151c00017c7560,2023-12-07_06h29.10.420,kallum_motion_pilot,2023.2.3,Win32,143.4514417,5c6d938c79151c00017c7560,6560176e4d91f764e2a42c74,657157ec370a957374a21233,0.0689,0.0689,0,147,147,145,1,fiveseven,,,,,,,,,,,,,,,,,,,,,,,,,,,,,,,,,,,,,,,,,,,,,,,,,,,,,,,,,,,,,,,,,,,,,,,,,,,,,,,,,,,,,,,,,,,,,,,,,,,,,,,,,,,,,,,,,,,,,,,,,,,,,,,,,,,,,,,
,,5c6d938c79151c00017c7560,2023-12-07_06h29.10.420,kallum_motion_pilot,2023.2.3,Win32,143.4514417,5c6d938c79151c00017c7560,6560176e4d91f764e2a42c74,657157ec370a957374a21233,0.0691,0.0692,0,148,148,108,1,sevenfive,,,,,,,,,,,,,,,,,,,,,,,,,,,,,,,,,,,,,,,,,,,,,,,,,,,,,,,,,,,,,,,,,,,,,,,,,,,,,,,,,,,,,,,,,,,,,,,,,,,,,,,,,,,,,,,,,,,,,,,,,,,,,,,,,,,,,,,
,,5c6d938c79151c00017c7560,2023-12-07_06h29.10.420,kallum_motion_pilot,2023.2.3,Win32,143.4514417,5c6d938c79151c00017c7560,6560176e4d91f764e2a42c74,657157ec370a957374a21233,0.0693,0.0693,0,149,149,155,1,sixeight,,,,,,,,,,,,,,,,,,,,,,,,,,,,,,,,,,,,,,,,,,,,,,,,,,,,,,,,,,,,,,,,,,,,,,,,,,,,,,,,,,,,,,,,,,,,,,,,,,,,,,,,,,,,,,,,,,,,,,,,,,,,,,,,,,,,,,,
,,5c6d938c79151c00017c7560,2023-12-07_06h29.10.420,kallum_motion_pilot,2023.2.3,Win32,143.4514417,5c6d938c79151c00017c7560,6560176e4d91f764e2a42c74,657157ec370a957374a21233,0.0695,0.0695,0,150,150,39,1,fourthree,,,,,,,,,,,,,,,,,,,,,,,,,,,,,,,,,,,,,,,,,,,,,,,,,,,,,,,,,,,,,,,,,,,,,,,,,,,,,,,,,,,,,,,,,,,,,,,,,,,,,,,,,,,,,,,,,,,,,,,,,,,,,,,,,,,,,,,
,,5c6d938c79151c00017c7560,2023-12-07_06h29.10.420,kallum_motion_pilot,2023.2.3,Win32,143.4514417,5c6d938c79151c00017c7560,6560176e4d91f764e2a42c74,657157ec370a957374a21233,0.0696,0.0697,0,151,151,66,1,twoone,,,,,,,,,,,,,,,,,,,,,,,,,,,,,,,,,,,,,,,,,,,,,,,,,,,,,,,,,,,,,,,,,,,,,,,,,,,,,,,,,,,,,,,,,,,,,,,,,,,,,,,,,,,,,,,,,,,,,,,,,,,,,,,,,,,,,,,
,,5c6d938c79151c00017c7560,2023-12-07_06h29.10.420,kallum_motion_pilot,2023.2.3,Win32,143.4514417,5c6d938c79151c00017c7560,6560176e4d91f764e2a42c74,657157ec370a957374a21233,0.0698,0.0698,0,152,152,153,1,fiveseven,,,,,,,,,,,,,,,,,,,,,,,,,,,,,,,,,,,,,,,,,,,,,,,,,,,,,,,,,,,,,,,,,,,,,,,,,,,,,,,,,,,,,,,,,,,,,,,,,,,,,,,,,,,,,,,,,,,,,,,,,,,,,,,,,,,,,,,
,,5c6d938c79151c00017c7560,2023-12-07_06h29.10.420,kallum_motion_pilot,2023.2.3,Win32,143.4514417,5c6d938c79151c00017c7560,6560176e4d91f764e2a42c74,657157ec370a957374a21233,0.07,0.07,0,153,153,151,1,eightseven,,,,,,,,,,,,,,,,,,,,,,,,,,,,,,,,,,,,,,,,,,,,,,,,,,,,,,,,,,,,,,,,,,,,,,,,,,,,,,,,,,,,,,,,,,,,,,,,,,,,,,,,,,,,,,,,,,,,,,,,,,,,,,,,,,,,,,,
,,5c6d938c79151c00017c7560,2023-12-07_06h29.10.420,kallum_motion_pilot,2023.2.3,Win32,143.4514417,5c6d938c79151c00017c7560,6560176e4d91f764e2a42c74,657157ec370a957374a21233,0.0701,0.0701,0,154,154,4,1,threeone,,,,,,,,,,,,,,,,,,,,,,,,,,,,,,,,,,,,,,,,,,,,,,,,,,,,,,,,,,,,,,,,,,,,,,,,,,,,,,,,,,,,,,,,,,,,,,,,,,,,,,,,,,,,,,,,,,,,,,,,,,,,,,,,,,,,,,,
,,5c6d938c79151c00017c7560,2023-12-07_06h29.10.420,kallum_motion_pilot,2023.2.3,Win32,143.4514417,5c6d938c79151c00017c7560,6560176e4d91f764e2a42c74,657157ec370a957374a21233,0.0703,0.0705,0,155,155,12,1,threeone,,,,,,,,,,,,,,,,,,,,,,,,,,,,,,,,,,,,,,,,,,,,,,,,,,,,,,,,,,,,,,,,,,,,,,,,,,,,,,,,,,,,,,,,,,,,,,,,,,,,,,,,,,,,,,,,,,,,,,,,,,,,,,,,,,,,,,,
,,5c6d938c79151c00017c7560,2023-12-07_06h29.10.420,kallum_motion_pilot,2023.2.3,Win32,143.4514417,5c6d938c79151c00017c7560,6560176e4d91f764e2a42c74,657157ec370a957374a21233,0.0706,0.0706,0,156,156,122,1,sixfive,,,,,,,,,,,,,,,,,,,,,,,,,,,,,,,,,,,,,,,,,,,,,,,,,,,,,,,,,,,,,,,,,,,,,,,,,,,,,,,,,,,,,,,,,,,,,,,,,,,,,,,,,,,,,,,,,,,,,,,,,,,,,,,,,,,,,,,
,,5c6d938c79151c00017c7560,2023-12-07_06h29.10.420,kallum_motion_pilot,2023.2.3,Win32,143.4514417,5c6d938c79151c00017c7560,6560176e4d91f764e2a42c74,657157ec370a957374a21233,0.0707,0.0708,0,157,157,13,1,threefour,,,,,,,,,,,,,,,,,,,,,,,,,,,,,,,,,,,,,,,,,,,,,,,,,,,,,,,,,,,,,,,,,,,,,,,,,,,,,,,,,,,,,,,,,,,,,,,,,,,,,,,,,,,,,,,,,,,,,,,,,,,,,,,,,,,,,,,
,,5c6d938c79151c00017c7560,2023-12-07_06h29.10.420,kallum_motion_pilot,2023.2.3,Win32,143.4514417,5c6d938c79151c00017c7560,6560176e4d91f764e2a42c74,657157ec370a957374a21233,0.0708,0.0709,0,158,158,7,1,fourthree,,,,,,,,,,,,,,,,,,,,,,,,,,,,,,,,,,,,,,,,,,,,,,,,,,,,,,,,,,,,,,,,,,,,,,,,,,,,,,,,,,,,,,,,,,,,,,,,,,,,,,,,,,,,,,,,,,,,,,,,,,,,,,,,,,,,,,,
,,5c6d938c79151c00017c7560,2023-12-07_06h29.10.420,kallum_motion_pilot,2023.2.3,Win32,143.4514417,5c6d938c79151c00017c7560,6560176e4d91f764e2a42c74,657157ec370a957374a21233,0.071,0.071,0,159,159,46,1,fourtwo,,,,,,,,,,,,,,,,,,,,,,,,,,,,,,,,,,,,,,,,,,,,,,,,,,,,,,,,,,,,,,,,,,,,,,,,,,,,,,,,,,,,,,,,,,,,,,,,,,,,,,,,,,,,,,,,,,,,,,,,,,,,,,,,,,,,,,,
,,5c6d938c79151c00017c7560,2023-12-07_06h29.10.420,kallum_motion_pilot,2023.2.3,Win32,143.4514417,5c6d938c79151c00017c7560,6560176e4d91f764e2a42c74,657157ec370a957374a21233,0.0712,0.0712,0,160,160,143,1,eightseven,,,,,,,,,,,,,,,,,,,,,,,,,,,,,,,,,,,,,,,,,,,,,,,,,,,,,,,,,,,,,,,,,,,,,,,,,,,,,,,,,,,,,,,,,,,,,,,,,,,,,,,,,,,,,,,,,,,,,,,,,,,,,,,,,,,,,,,
,,5c6d938c79151c00017c7560,2023-12-07_06h29.10.420,kallum_motion_pilot,2023.2.3,Win32,143.4514417,5c6d938c79151c00017c7560,6560176e4d91f764e2a42c74,657157ec370a957374a21233,0.0714,0.0715,0,161,161,65,1,onethree,,,,,,,,,,,,,,,,,,,,,,,,,,,,,,,,,,,,,,,,,,,,,,,,,,,,,,,,,,,,,,,,,,,,,,,,,,,,,,,,,,,,,,,,,,,,,,,,,,,,,,,,,,,,,,,,,,,,,,,,,,,,,,,,,,,,,,,
,,5c6d938c79151c00017c7560,2023-12-07_06h29.10.420,kallum_motion_pilot,2023.2.3,Win32,143.4514417,5c6d938c79151c00017c7560,6560176e4d91f764e2a42c74,657157ec370a957374a21233,0.0716,0.0717,1,0,162,75,1,twofour,,,,,,,,,,,,,,,,,,,,,,,,,,,,,,,,,,,,,,,,,,,,,,,,,,,,,,,,,,,,,,,,,,,,,,,,,,,,,,,,,,,,,,,,,,,,,,,,,,,,,,,,,,,,,,,,,,,,,,,,,,,,,,,,,,,,,,,
,,5c6d938c79151c00017c7560,2023-12-07_06h29.10.420,kallum_motion_pilot,2023.2.3,Win32,143.4514417,5c6d938c79151c00017c7560,6560176e4d91f764e2a42c74,657157ec370a957374a21233,0.0717,0.0718,1,1,163,40,1,onetwo,,,,,,,,,,,,,,,,,,,,,,,,,,,,,,,,,,,,,,,,,,,,,,,,,,,,,,,,,,,,,,,,,,,,,,,,,,,,,,,,,,,,,,,,,,,,,,,,,,,,,,,,,,,,,,,,,,,,,,,,,,,,,,,,,,,,,,,
,,5c6d938c79151c00017c7560,2023-12-07_06h29.10.420,kallum_motion_pilot,2023.2.3,Win32,143.4514417,5c6d938c79151c00017c7560,6560176e4d91f764e2a42c74,657157ec370a957374a21233,0.0719,0.0719,1,2,164,85,1,seveneight,,,,,,,,,,,,,,,,,,,,,,,,,,,,,,,,,,,,,,,,,,,,,,,,,,,,,,,,,,,,,,,,,,,,,,,,,,,,,,,,,,,,,,,,,,,,,,,,,,,,,,,,,,,,,,,,,,,,,,,,,,,,,,,,,,,,,,,
,,5c6d938c79151c00017c7560,2023-12-07_06h29.10.420,kallum_motion_pilot,2023.2.3,Win32,143.4514417,5c6d938c79151c00017c7560,6560176e4d91f764e2a42c74,657157ec370a957374a21233,0.072,0.0721,1,3,165,35,1,twofour,,,,,,,,,,,,,,,,,,,,,,,,,,,,,,,,,,,,,,,,,,,,,,,,,,,,,,,,,,,,,,,,,,,,,,,,,,,,,,,,,,,,,,,,,,,,,,,,,,,,,,,,,,,,,,,,,,,,,,,,,,,,,,,,,,,,,,,
,,5c6d938c79151c00017c7560,2023-12-07_06h29.10.420,kallum_motion_pilot,2023.2.3,Win32,143.4514417,5c6d938c79151c00017c7560,6560176e4d91f764e2a42c74,657157ec370a957374a21233,0.0722,0.0723,1,4,166,30,1,fourtwo,,,,,,,,,,,,,,,,,,,,,,,,,,,,,,,,,,,,,,,,,,,,,,,,,,,,,,,,,,,,,,,,,,,,,,,,,,,,,,,,,,,,,,,,,,,,,,,,,,,,,,,,,,,,,,,,,,,,,,,,,,,,,,,,,,,,,,,
,,5c6d938c79151c00017c7560,2023-12-07_06h29.10.420,kallum_motion_pilot,2023.2.3,Win32,143.4514417,5c6d938c79151c00017c7560,6560176e4d91f764e2a42c74,657157ec370a957374a21233,0.0723,0.0724,1,5,167,86,1,eightsix,,,,,,,,,,,,,,,,,,,,,,,,,,,,,,,,,,,,,,,,,,,,,,,,,,,,,,,,,,,,,,,,,,,,,,,,,,,,,,,,,,,,,,,,,,,,,,,,,,,,,,,,,,,,,,,,,,,,,,,,,,,,,,,,,,,,,,,
,,5c6d938c79151c00017c7560,2023-12-07_06h29.10.420,kallum_motion_pilot,2023.2.3,Win32,143.4514417,5c6d938c79151c00017c7560,6560176e4d91f764e2a42c74,657157ec370a957374a21233,0.0725,0.0726,1,6,168,44,1,threeone,,,,,,,,,,,,,,,,,,,,,,,,,,,,,,,,,,,,,,,,,,,,,,,,,,,,,,,,,,,,,,,,,,,,,,,,,,,,,,,,,,,,,,,,,,,,,,,,,,,,,,,,,,,,,,,,,,,,,,,,,,,,,,,,,,,,,,,
,,5c6d938c79151c00017c7560,2023-12-07_06h29.10.420,kallum_motion_pilot,2023.2.3,Win32,143.4514417,5c6d938c79151c00017c7560,6560176e4d91f764e2a42c74,657157ec370a957374a21233,0.0727,0.0728,1,7,169,154,1,sixfive,,,,,,,,,,,,,,,,,,,,,,,,,,,,,,,,,,,,,,,,,,,,,,,,,,,,,,,,,,,,,,,,,,,,,,,,,,,,,,,,,,,,,,,,,,,,,,,,,,,,,,,,,,,,,,,,,,,,,,,,,,,,,,,,,,,,,,,
,,5c6d938c79151c00017c7560,2023-12-07_06h29.10.420,kallum_motion_pilot,2023.2.3,Win32,143.4514417,5c6d938c79151c00017c7560,6560176e4d91f764e2a42c74,657157ec370a957374a21233,0.0728,0.073,1,8,170,6,1,fourtwo,,,,,,,,,,,,,,,,,,,,,,,,,,,,,,,,,,,,,,,,,,,,,,,,,,,,,,,,,,,,,,,,,,,,,,,,,,,,,,,,,,,,,,,,,,,,,,,,,,,,,,,,,,,,,,,,,,,,,,,,,,,,,,,,,,,,,,,
,,5c6d938c79151c00017c7560,2023-12-07_06h29.10.420,kallum_motion_pilot,2023.2.3,Win32,143.4514417,5c6d938c79151c00017c7560,6560176e4d91f764e2a42c74,657157ec370a957374a21233,0.073,0.073,1,9,171,134,1,eightsix,,,,,,,,,,,,,,,,,,,,,,,,,,,,,,,,,,,,,,,,,,,,,,,,,,,,,,,,,,,,,,,,,,,,,,,,,,,,,,,,,,,,,,,,,,,,,,,,,,,,,,,,,,,,,,,,,,,,,,,,,,,,,,,,,,,,,,,
,,5c6d938c79151c00017c7560,2023-12-07_06h29.10.420,kallum_motion_pilot,2023.2.3,Win32,143.4514417,5c6d938c79151c00017c7560,6560176e4d91f764e2a42c74,657157ec370a957374a21233,0.0731,0.0733,1,10,172,124,1,sevenfive,,,,,,,,,,,,,,,,,,,,,,,,,,,,,,,,,,,,,,,,,,,,,,,,,,,,,,,,,,,,,,,,,,,,,,,,,,,,,,,,,,,,,,,,,,,,,,,,,,,,,,,,,,,,,,,,,,,,,,,,,,,,,,,,,,,,,,,
,,5c6d938c79151c00017c7560,2023-12-07_06h29.10.420,kallum_motion_pilot,2023.2.3,Win32,143.4514417,5c6d938c79151c00017c7560,6560176e4d91f764e2a42c74,657157ec370a957374a21233,0.0734,0.0735,1,11,173,65,1,onethree,,,,,,,,,,,,,,,,,,,,,,,,,,,,,,,,,,,,,,,,,,,,,,,,,,,,,,,,,,,,,,,,,,,,,,,,,,,,,,,,,,,,,,,,,,,,,,,,,,,,,,,,,,,,,,,,,,,,,,,,,,,,,,,,,,,,,,,
,,5c6d938c79151c00017c7560,2023-12-07_06h29.10.420,kallum_motion_pilot,2023.2.3,Win32,143.4514417,5c6d938c79151c00017c7560,6560176e4d91f764e2a42c74,657157ec370a957374a21233,0.0736,0.0737,1,12,174,83,1,sixeight,,,,,,,,,,,,,,,,,,,,,,,,,,,,,,,,,,,,,,,,,,,,,,,,,,,,,,,,,,,,,,,,,,,,,,,,,,,,,,,,,,,,,,,,,,,,,,,,,,,,,,,,,,,,,,,,,,,,,,,,,,,,,,,,,,,,,,,
,,5c6d938c79151c00017c7560,2023-12-07_06h29.10.420,kallum_motion_pilot,2023.2.3,Win32,143.4514417,5c6d938c79151c00017c7560,6560176e4d91f764e2a42c74,657157ec370a957374a21233,0.0738,0.0739,1,13,175,78,1,fourtwo,,,,,,,,,,,,,,,,,,,,,,,,,,,,,,,,,,,,,,,,,,,,,,,,,,,,,,,,,,,,,,,,,,,,,,,,,,,,,,,,,,,,,,,,,,,,,,,,,,,,,,,,,,,,,,,,,,,,,,,,,,,,,,,,,,,,,,,
,,5c6d938c79151c00017c7560,2023-12-07_06h29.10.420,kallum_motion_pilot,2023.2.3,Win32,143.4514417,5c6d938c79151c00017c7560,6560176e4d91f764e2a42c74,657157ec370a957374a21233,0.0739,0.074,1,14,176,113,1,fiveseven,,,,,,,,,,,,,,,,,,,,,,,,,,,,,,,,,,,,,,,,,,,,,,,,,,,,,,,,,,,,,,,,,,,,,,,,,,,,,,,,,,,,,,,,,,,,,,,,,,,,,,,,,,,,,,,,,,,,,,,,,,,,,,,,,,,,,,,
,,5c6d938c79151c00017c7560,2023-12-07_06h29.10.420,kallum_motion_pilot,2023.2.3,Win32,143.4514417,5c6d938c79151c00017c7560,6560176e4d91f764e2a42c74,657157ec370a957374a21233,0.0741,0.0742,1,15,177,11,1,twofour,,,,,,,,,,,,,,,,,,,,,,,,,,,,,,,,,,,,,,,,,,,,,,,,,,,,,,,,,,,,,,,,,,,,,,,,,,,,,,,,,,,,,,,,,,,,,,,,,,,,,,,,,,,,,,,,,,,,,,,,,,,,,,,,,,,,,,,
,,5c6d938c79151c00017c7560,2023-12-07_06h29.10.420,kallum_motion_pilot,2023.2.3,Win32,143.4514417,5c6d938c79151c00017c7560,6560176e4d91f764e2a42c74,657157ec370a957374a21233,0.0742,0.0743,1,16,178,109,1,seveneight,,,,,,,,,,,,,,,,,,,,,,,,,,,,,,,,,,,,,,,,,,,,,,,,,,,,,,,,,,,,,,,,,,,,,,,,,,,,,,,,,,,,,,,,,,,,,,,,,,,,,,,,,,,,,,,,,,,,,,,,,,,,,,,,,,,,,,,
,,5c6d938c79151c00017c7560,2023-12-07_06h29.10.420,kallum_motion_pilot,2023.2.3,Win32,143.4514417,5c6d938c79151c00017c7560,6560176e4d91f764e2a42c74,657157ec370a957374a21233,0.0745,0.0747,1,17,179,91,1,sixeight,,,,,,,,,,,,,,,,,,,,,,,,,,,,,,,,,,,,,,,,,,,,,,,,,,,,,,,,,,,,,,,,,,,,,,,,,,,,,,,,,,,,,,,,,,,,,,,,,,,,,,,,,,,,,,,,,,,,,,,,,,,,,,,,,,,,,,,
,,5c6d938c79151c00017c7560,2023-12-07_06h29.10.420,kallum_motion_pilot,2023.2.3,Win32,143.4514417,5c6d938c79151c00017c7560,6560176e4d91f764e2a42c74,657157ec370a957374a21233,0.0748,0.075,1,18,180,93,1,seveneight,,,,,,,,,,,,,,,,,,,,,,,,,,,,,,,,,,,,,,,,,,,,,,,,,,,,,,,,,,,,,,,,,,,,,,,,,,,,,,,,,,,,,,,,,,,,,,,,,,,,,,,,,,,,,,,,,,,,,,,,,,,,,,,,,,,,,,,
,,5c6d938c79151c00017c7560,2023-12-07_06h29.10.420,kallum_motion_pilot,2023.2.3,Win32,143.4514417,5c6d938c79151c00017c7560,6560176e4d91f764e2a42c74,657157ec370a957374a21233,0.0753,0.0755,1,19,181,153,1,fiveseven,,,,,,,,,,,,,,,,,,,,,,,,,,,,,,,,,,,,,,,,,,,,,,,,,,,,,,,,,,,,,,,,,,,,,,,,,,,,,,,,,,,,,,,,,,,,,,,,,,,,,,,,,,,,,,,,,,,,,,,,,,,,,,,,,,,,,,,
,,5c6d938c79151c00017c7560,2023-12-07_06h29.10.420,kallum_motion_pilot,2023.2.3,Win32,143.4514417,5c6d938c79151c00017c7560,6560176e4d91f764e2a42c74,657157ec370a957374a21233,0.0757,0.0757,1,20,182,97,1,fiveseven,,,,,,,,,,,,,,,,,,,,,,,,,,,,,,,,,,,,,,,,,,,,,,,,,,,,,,,,,,,,,,,,,,,,,,,,,,,,,,,,,,,,,,,,,,,,,,,,,,,,,,,,,,,,,,,,,,,,,,,,,,,,,,,,,,,,,,,
,,5c6d938c79151c00017c7560,2023-12-07_06h29.10.420,kallum_motion_pilot,2023.2.3,Win32,143.4514417,5c6d938c79151c00017c7560,6560176e4d91f764e2a42c74,657157ec370a957374a21233,0.0758,0.0759,1,21,183,135,1,eightseven,,,,,,,,,,,,,,,,,,,,,,,,,,,,,,,,,,,,,,,,,,,,,,,,,,,,,,,,,,,,,,,,,,,,,,,,,,,,,,,,,,,,,,,,,,,,,,,,,,,,,,,,,,,,,,,,,,,,,,,,,,,,,,,,,,,,,,,
,,5c6d938c79151c00017c7560,2023-12-07_06h29.10.420,kallum_motion_pilot,2023.2.3,Win32,143.4514417,5c6d938c79151c00017c7560,6560176e4d91f764e2a42c74,657157ec370a957374a21233,0.076,0.0761,1,22,184,102,1,eightsix,,,,,,,,,,,,,,,,,,,,,,,,,,,,,,,,,,,,,,,,,,,,,,,,,,,,,,,,,,,,,,,,,,,,,,,,,,,,,,,,,,,,,,,,,,,,,,,,,,,,,,,,,,,,,,,,,,,,,,,,,,,,,,,,,,,,,,,
,,5c6d938c79151c00017c7560,2023-12-07_06h29.10.420,kallum_motion_pilot,2023.2.3,Win32,143.4514417,5c6d938c79151c00017c7560,6560176e4d91f764e2a42c74,657157ec370a957374a21233,0.0762,0.0764,1,23,185,98,1,sixfive,,,,,,,,,,,,,,,,,,,,,,,,,,,,,,,,,,,,,,,,,,,,,,,,,,,,,,,,,,,,,,,,,,,,,,,,,,,,,,,,,,,,,,,,,,,,,,,,,,,,,,,,,,,,,,,,,,,,,,,,,,,,,,,,,,,,,,,
,,5c6d938c79151c00017c7560,2023-12-07_06h29.10.420,kallum_motion_pilot,2023.2.3,Win32,143.4514417,5c6d938c79151c00017c7560,6560176e4d91f764e2a42c74,657157ec370a957374a21233,0.0765,0.0766,1,24,186,108,1,sevenfive,,,,,,,,,,,,,,,,,,,,,,,,,,,,,,,,,,,,,,,,,,,,,,,,,,,,,,,,,,,,,,,,,,,,,,,,,,,,,,,,,,,,,,,,,,,,,,,,,,,,,,,,,,,,,,,,,,,,,,,,,,,,,,,,,,,,,,,
,,5c6d938c79151c00017c7560,2023-12-07_06h29.10.420,kallum_motion_pilot,2023.2.3,Win32,143.4514417,5c6d938c79151c00017c7560,6560176e4d91f764e2a42c74,657157ec370a957374a21233,0.0767,0.0768,1,25,187,38,1,fourtwo,,,,,,,,,,,,,,,,,,,,,,,,,,,,,,,,,,,,,,,,,,,,,,,,,,,,,,,,,,,,,,,,,,,,,,,,,,,,,,,,,,,,,,,,,,,,,,,,,,,,,,,,,,,,,,,,,,,,,,,,,,,,,,,,,,,,,,,
,,5c6d938c79151c00017c7560,2023-12-07_06h29.10.420,kallum_motion_pilot,2023.2.3,Win32,143.4514417,5c6d938c79151c00017c7560,6560176e4d91f764e2a42c74,657157ec370a957374a21233,0.077,0.077,1,26,188,20,1,threeone,,,,,,,,,,,,,,,,,,,,,,,,,,,,,,,,,,,,,,,,,,,,,,,,,,,,,,,,,,,,,,,,,,,,,,,,,,,,,,,,,,,,,,,,,,,,,,,,,,,,,,,,,,,,,,,,,,,,,,,,,,,,,,,,,,,,,,,
,,5c6d938c79151c00017c7560,2023-12-07_06h29.10.420,kallum_motion_pilot,2023.2.3,Win32,143.4514417,5c6d938c79151c00017c7560,6560176e4d91f764e2a42c74,657157ec370a957374a21233,0.0771,0.0772,1,27,189,7,1,fourthree,,,,,,,,,,,,,,,,,,,,,,,,,,,,,,,,,,,,,,,,,,,,,,,,,,,,,,,,,,,,,,,,,,,,,,,,,,,,,,,,,,,,,,,,,,,,,,,,,,,,,,,,,,,,,,,,,,,,,,,,,,,,,,,,,,,,,,,
,,5c6d938c79151c00017c7560,2023-12-07_06h29.10.420,kallum_motion_pilot,2023.2.3,Win32,143.4514417,5c6d938c79151c00017c7560,6560176e4d91f764e2a42c74,657157ec370a957374a21233,0.0773,0.0773,1,28,190,74,1,twoone,,,,,,,,,,,,,,,,,,,,,,,,,,,,,,,,,,,,,,,,,,,,,,,,,,,,,,,,,,,,,,,,,,,,,,,,,,,,,,,,,,,,,,,,,,,,,,,,,,,,,,,,,,,,,,,,,,,,,,,,,,,,,,,,,,,,,,,
,,5c6d938c79151c00017c7560,2023-12-07_06h29.10.420,kallum_motion_pilot,2023.2.3,Win32,143.4514417,5c6d938c79151c00017c7560,6560176e4d91f764e2a42c74,657157ec370a957374a21233,0.0775,0.0775,1,29,191,130,1,sixfive,,,,,,,,,,,,,,,,,,,,,,,,,,,,,,,,,,,,,,,,,,,,,,,,,,,,,,,,,,,,,,,,,,,,,,,,,,,,,,,,,,,,,,,,,,,,,,,,,,,,,,,,,,,,,,,,,,,,,,,,,,,,,,,,,,,,,,,
,,5c6d938c79151c00017c7560,2023-12-07_06h29.10.420,kallum_motion_pilot,2023.2.3,Win32,143.4514417,5c6d938c79151c00017c7560,6560176e4d91f764e2a42c74,657157ec370a957374a21233,0.0776,0.0777,1,30,192,84,1,sevenfive,,,,,,,,,,,,,,,,,,,,,,,,,,,,,,,,,,,,,,,,,,,,,,,,,,,,,,,,,,,,,,,,,,,,,,,,,,,,,,,,,,,,,,,,,,,,,,,,,,,,,,,,,,,,,,,,,,,,,,,,,,,,,,,,,,,,,,,
,,5c6d938c79151c00017c7560,2023-12-07_06h29.10.420,kallum_motion_pilot,2023.2.3,Win32,143.4514417,5c6d938c79151c00017c7560,6560176e4d91f764e2a42c74,657157ec370a957374a21233,0.0778,0.0779,1,31,193,158,1,eightsix,,,,,,,,,,,,,,,,,,,,,,,,,,,,,,,,,,,,,,,,,,,,,,,,,,,,,,,,,,,,,,,,,,,,,,,,,,,,,,,,,,,,,,,,,,,,,,,,,,,,,,,,,,,,,,,,,,,,,,,,,,,,,,,,,,,,,,,
,,5c6d938c79151c00017c7560,2023-12-07_06h29.10.420,kallum_motion_pilot,2023.2.3,Win32,143.4514417,5c6d938c79151c00017c7560,6560176e4d91f764e2a42c74,657157ec370a957374a21233,0.078,0.078,1,32,194,66,1,twoone,,,,,,,,,,,,,,,,,,,,,,,,,,,,,,,,,,,,,,,,,,,,,,,,,,,,,,,,,,,,,,,,,,,,,,,,,,,,,,,,,,,,,,,,,,,,,,,,,,,,,,,,,,,,,,,,,,,,,,,,,,,,,,,,,,,,,,,
,,5c6d938c79151c00017c7560,2023-12-07_06h29.10.420,kallum_motion_pilot,2023.2.3,Win32,143.4514417,5c6d938c79151c00017c7560,6560176e4d91f764e2a42c74,657157ec370a957374a21233,0.0782,0.0782,1,33,195,155,1,sixeight,,,,,,,,,,,,,,,,,,,,,,,,,,,,,,,,,,,,,,,,,,,,,,,,,,,,,,,,,,,,,,,,,,,,,,,,,,,,,,,,,,,,,,,,,,,,,,,,,,,,,,,,,,,,,,,,,,,,,,,,,,,,,,,,,,,,,,,
,,5c6d938c79151c00017c7560,2023-12-07_06h29.10.420,kallum_motion_pilot,2023.2.3,Win32,143.4514417,5c6d938c79151c00017c7560,6560176e4d91f764e2a42c74,657157ec370a957374a21233,0.0783,0.0784,1,34,196,47,1,fourthree,,,,,,,,,,,,,,,,,,,,,,,,,,,,,,,,,,,,,,,,,,,,,,,,,,,,,,,,,,,,,,,,,,,,,,,,,,,,,,,,,,,,,,,,,,,,,,,,,,,,,,,,,,,,,,,,,,,,,,,,,,,,,,,,,,,,,,,
,,5c6d938c79151c00017c7560,2023-12-07_06h29.10.420,kallum_motion_pilot,2023.2.3,Win32,143.4514417,5c6d938c79151c00017c7560,6560176e4d91f764e2a42c74,657157ec370a957374a21233,0.0785,0.0786,1,35,197,53,1,threefour,,,,,,,,,,,,,,,,,,,,,,,,,,,,,,,,,,,,,,,,,,,,,,,,,,,,,,,,,,,,,,,,,,,,,,,,,,,,,,,,,,,,,,,,,,,,,,,,,,,,,,,,,,,,,,,,,,,,,,,,,,,,,,,,,,,,,,,
,,5c6d938c79151c00017c7560,2023-12-07_06h29.10.420,kallum_motion_pilot,2023.2.3,Win32,143.4514417,5c6d938c79151c00017c7560,6560176e4d91f764e2a42c74,657157ec370a957374a21233,0.0787,0.0788,1,36,198,1,1,onethree,,,,,,,,,,,,,,,,,,,,,,,,,,,,,,,,,,,,,,,,,,,,,,,,,,,,,,,,,,,,,,,,,,,,,,,,,,,,,,,,,,,,,,,,,,,,,,,,,,,,,,,,,,,,,,,,,,,,,,,,,,,,,,,,,,,,,,,
,,5c6d938c79151c00017c7560,2023-12-07_06h29.10.420,kallum_motion_pilot,2023.2.3,Win32,143.4514417,5c6d938c79151c00017c7560,6560176e4d91f764e2a42c74,657157ec370a957374a21233,0.0789,0.079,1,37,199,132,1,sevenfive,,,,,,,,,,,,,,,,,,,,,,,,,,,,,,,,,,,,,,,,,,,,,,,,,,,,,,,,,,,,,,,,,,,,,,,,,,,,,,,,,,,,,,,,,,,,,,,,,,,,,,,,,,,,,,,,,,,,,,,,,,,,,,,,,,,,,,,
,,5c6d938c79151c00017c7560,2023-12-07_06h29.10.420,kallum_motion_pilot,2023.2.3,Win32,143.4514417,5c6d938c79151c00017c7560,6560176e4d91f764e2a42c74,657157ec370a957374a21233,0.0791,0.0791,1,38,200,59,1,twofour,,,,,,,,,,,,,,,,,,,,,,,,,,,,,,,,,,,,,,,,,,,,,,,,,,,,,,,,,,,,,,,,,,,,,,,,,,,,,,,,,,,,,,,,,,,,,,,,,,,,,,,,,,,,,,,,,,,,,,,,,,,,,,,,,,,,,,,
,,5c6d938c79151c00017c7560,2023-12-07_06h29.10.420,kallum_motion_pilot,2023.2.3,Win32,143.4514417,5c6d938c79151c00017c7560,6560176e4d91f764e2a42c74,657157ec370a957374a21233,0.0793,0.0794,1,39,201,151,1,eightseven,,,,,,,,,,,,,,,,,,,,,,,,,,,,,,,,,,,,,,,,,,,,,,,,,,,,,,,,,,,,,,,,,,,,,,,,,,,,,,,,,,,,,,,,,,,,,,,,,,,,,,,,,,,,,,,,,,,,,,,,,,,,,,,,,,,,,,,
,,5c6d938c79151c00017c7560,2023-12-07_06h29.10.420,kallum_motion_pilot,2023.2.3,Win32,143.4514417,5c6d938c79151c00017c7560,6560176e4d91f764e2a42c74,657157ec370a957374a21233,0.0794,0.0795,1,40,202,63,1,fourthree,,,,,,,,,,,,,,,,,,,,,,,,,,,,,,,,,,,,,,,,,,,,,,,,,,,,,,,,,,,,,,,,,,,,,,,,,,,,,,,,,,,,,,,,,,,,,,,,,,,,,,,,,,,,,,,,,,,,,,,,,,,,,,,,,,,,,,,
,,5c6d938c79151c00017c7560,2023-12-07_06h29.10.420,kallum_motion_pilot,2023.2.3,Win32,143.4514417,5c6d938c79151c00017c7560,6560176e4d91f764e2a42c74,657157ec370a957374a21233,0.0797,0.0797,1,41,203,60,1,threeone,,,,,,,,,,,,,,,,,,,,,,,,,,,,,,,,,,,,,,,,,,,,,,,,,,,,,,,,,,,,,,,,,,,,,,,,,,,,,,,,,,,,,,,,,,,,,,,,,,,,,,,,,,,,,,,,,,,,,,,,,,,,,,,,,,,,,,,
,,5c6d938c79151c00017c7560,2023-12-07_06h29.10.420,kallum_motion_pilot,2023.2.3,Win32,143.4514417,5c6d938c79151c00017c7560,6560176e4d91f764e2a42c74,657157ec370a957374a21233,0.0798,0.0799,1,42,204,58,1,twoone,,,,,,,,,,,,,,,,,,,,,,,,,,,,,,,,,,,,,,,,,,,,,,,,,,,,,,,,,,,,,,,,,,,,,,,,,,,,,,,,,,,,,,,,,,,,,,,,,,,,,,,,,,,,,,,,,,,,,,,,,,,,,,,,,,,,,,,
,,5c6d938c79151c00017c7560,2023-12-07_06h29.10.420,kallum_motion_pilot,2023.2.3,Win32,143.4514417,5c6d938c79151c00017c7560,6560176e4d91f764e2a42c74,657157ec370a957374a21233,0.0799,0.08,1,43,205,82,1,sixfive,,,,,,,,,,,,,,,,,,,,,,,,,,,,,,,,,,,,,,,,,,,,,,,,,,,,,,,,,,,,,,,,,,,,,,,,,,,,,,,,,,,,,,,,,,,,,,,,,,,,,,,,,,,,,,,,,,,,,,,,,,,,,,,,,,,,,,,
,,5c6d938c79151c00017c7560,2023-12-07_06h29.10.420,kallum_motion_pilot,2023.2.3,Win32,143.4514417,5c6d938c79151c00017c7560,6560176e4d91f764e2a42c74,657157ec370a957374a21233,0.0801,0.0803,1,44,206,73,1,onethree,,,,,,,,,,,,,,,,,,,,,,,,,,,,,,,,,,,,,,,,,,,,,,,,,,,,,,,,,,,,,,,,,,,,,,,,,,,,,,,,,,,,,,,,,,,,,,,,,,,,,,,,,,,,,,,,,,,,,,,,,,,,,,,,,,,,,,,
,,5c6d938c79151c00017c7560,2023-12-07_06h29.10.420,kallum_motion_pilot,2023.2.3,Win32,143.4514417,5c6d938c79151c00017c7560,6560176e4d91f764e2a42c74,657157ec370a957374a21233,0.0805,0.0807,1,45,207,145,1,fiveseven,,,,,,,,,,,,,,,,,,,,,,,,,,,,,,,,,,,,,,,,,,,,,,,,,,,,,,,,,,,,,,,,,,,,,,,,,,,,,,,,,,,,,,,,,,,,,,,,,,,,,,,,,,,,,,,,,,,,,,,,,,,,,,,,,,,,,,,
,,5c6d938c79151c00017c7560,2023-12-07_06h29.10.420,kallum_motion_pilot,2023.2.3,Win32,143.4514417,5c6d938c79151c00017c7560,6560176e4d91f764e2a42c74,657157ec370a957374a21233,0.0809,0.081,1,46,208,26,1,twoone,,,,,,,,,,,,,,,,,,,,,,,,,,,,,,,,,,,,,,,,,,,,,,,,,,,,,,,,,,,,,,,,,,,,,,,,,,,,,,,,,,,,,,,,,,,,,,,,,,,,,,,,,,,,,,,,,,,,,,,,,,,,,,,,,,,,,,,
,,5c6d938c79151c00017c7560,2023-12-07_06h29.10.420,kallum_motion_pilot,2023.2.3,Win32,143.4514417,5c6d938c79151c00017c7560,6560176e4d91f764e2a42c74,657157ec370a957374a21233,0.0811,0.0811,1,47,209,149,1,seveneight,,,,,,,,,,,,,,,,,,,,,,,,,,,,,,,,,,,,,,,,,,,,,,,,,,,,,,,,,,,,,,,,,,,,,,,,,,,,,,,,,,,,,,,,,,,,,,,,,,,,,,,,,,,,,,,,,,,,,,,,,,,,,,,,,,,,,,,
,,5c6d938c79151c00017c7560,2023-12-07_06h29.10.420,kallum_motion_pilot,2023.2.3,Win32,143.4514417,5c6d938c79151c00017c7560,6560176e4d91f764e2a42c74,657157ec370a957374a21233,0.0813,0.0818,1,48,210,71,1,fourthree,,,,,,,,,,,,,,,,,,,,,,,,,,,,,,,,,,,,,,,,,,,,,,,,,,,,,,,,,,,,,,,,,,,,,,,,,,,,,,,,,,,,,,,,,,,,,,,,,,,,,,,,,,,,,,,,,,,,,,,,,,,,,,,,,,,,,,,
,,5c6d938c79151c00017c7560,2023-12-07_06h29.10.420,kallum_motion_pilot,2023.2.3,Win32,143.4514417,5c6d938c79151c00017c7560,6560176e4d91f764e2a42c74,657157ec370a957374a21233,0.082,0.0826,1,49,211,50,1,twoone,,,,,,,,,,,,,,,,,,,,,,,,,,,,,,,,,,,,,,,,,,,,,,,,,,,,,,,,,,,,,,,,,,,,,,,,,,,,,,,,,,,,,,,,,,,,,,,,,,,,,,,,,,,,,,,,,,,,,,,,,,,,,,,,,,,,,,,
,,5c6d938c79151c00017c7560,2023-12-07_06h29.10.420,kallum_motion_pilot,2023.2.3,Win32,143.4514417,5c6d938c79151c00017c7560,6560176e4d91f764e2a42c74,657157ec370a957374a21233,0.0829,0.0829,1,50,212,43,1,twofour,,,,,,,,,,,,,,,,,,,,,,,,,,,,,,,,,,,,,,,,,,,,,,,,,,,,,,,,,,,,,,,,,,,,,,,,,,,,,,,,,,,,,,,,,,,,,,,,,,,,,,,,,,,,,,,,,,,,,,,,,,,,,,,,,,,,,,,
,,5c6d938c79151c00017c7560,2023-12-07_06h29.10.420,kallum_motion_pilot,2023.2.3,Win32,143.4514417,5c6d938c79151c00017c7560,6560176e4d91f764e2a42c74,657157ec370a957374a21233,0.0831,0.0833,1,51,213,157,1,seveneight,,,,,,,,,,,,,,,,,,,,,,,,,,,,,,,,,,,,,,,,,,,,,,,,,,,,,,,,,,,,,,,,,,,,,,,,,,,,,,,,,,,,,,,,,,,,,,,,,,,,,,,,,,,,,,,,,,,,,,,,,,,,,,,,,,,,,,,
,,5c6d938c79151c00017c7560,2023-12-07_06h29.10.420,kallum_motion_pilot,2023.2.3,Win32,143.4514417,5c6d938c79151c00017c7560,6560176e4d91f764e2a42c74,657157ec370a957374a21233,0.0835,0.0837,1,52,214,141,1,seveneight,,,,,,,,,,,,,,,,,,,,,,,,,,,,,,,,,,,,,,,,,,,,,,,,,,,,,,,,,,,,,,,,,,,,,,,,,,,,,,,,,,,,,,,,,,,,,,,,,,,,,,,,,,,,,,,,,,,,,,,,,,,,,,,,,,,,,,,
,,5c6d938c79151c00017c7560,2023-12-07_06h29.10.420,kallum_motion_pilot,2023.2.3,Win32,143.4514417,5c6d938c79151c00017c7560,6560176e4d91f764e2a42c74,657157ec370a957374a21233,0.0838,0.0839,1,53,215,18,1,twoone,,,,,,,,,,,,,,,,,,,,,,,,,,,,,,,,,,,,,,,,,,,,,,,,,,,,,,,,,,,,,,,,,,,,,,,,,,,,,,,,,,,,,,,,,,,,,,,,,,,,,,,,,,,,,,,,,,,,,,,,,,,,,,,,,,,,,,,
,,5c6d938c79151c00017c7560,2023-12-07_06h29.10.420,kallum_motion_pilot,2023.2.3,Win32,143.4514417,5c6d938c79151c00017c7560,6560176e4d91f764e2a42c74,657157ec370a957374a21233,0.084,0.0841,1,54,216,104,1,fivesix,,,,,,,,,,,,,,,,,,,,,,,,,,,,,,,,,,,,,,,,,,,,,,,,,,,,,,,,,,,,,,,,,,,,,,,,,,,,,,,,,,,,,,,,,,,,,,,,,,,,,,,,,,,,,,,,,,,,,,,,,,,,,,,,,,,,,,,
,,5c6d938c79151c00017c7560,2023-12-07_06h29.10.420,kallum_motion_pilot,2023.2.3,Win32,143.4514417,5c6d938c79151c00017c7560,6560176e4d91f764e2a42c74,657157ec370a957374a21233,0.0843,0.0843,1,55,217,52,1,threeone,,,,,,,,,,,,,,,,,,,,,,,,,,,,,,,,,,,,,,,,,,,,,,,,,,,,,,,,,,,,,,,,,,,,,,,,,,,,,,,,,,,,,,,,,,,,,,,,,,,,,,,,,,,,,,,,,,,,,,,,,,,,,,,,,,,,,,,
,,5c6d938c79151c00017c7560,2023-12-07_06h29.10.420,kallum_motion_pilot,2023.2.3,Win32,143.4514417,5c6d938c79151c00017c7560,6560176e4d91f764e2a42c74,657157ec370a957374a21233,0.0845,0.0846,1,56,218,62,1,fourtwo,,,,,,,,,,,,,,,,,,,,,,,,,,,,,,,,,,,,,,,,,,,,,,,,,,,,,,,,,,,,,,,,,,,,,,,,,,,,,,,,,,,,,,,,,,,,,,,,,,,,,,,,,,,,,,,,,,,,,,,,,,,,,,,,,,,,,,,
,,5c6d938c79151c00017c7560,2023-12-07_06h29.10.420,kallum_motion_pilot,2023.2.3,Win32,143.4514417,5c6d938c79151c00017c7560,6560176e4d91f764e2a42c74,657157ec370a957374a21233,0.0847,0.0848,1,57,219,41,1,onethree,,,,,,,,,,,,,,,,,,,,,,,,,,,,,,,,,,,,,,,,,,,,,,,,,,,,,,,,,,,,,,,,,,,,,,,,,,,,,,,,,,,,,,,,,,,,,,,,,,,,,,,,,,,,,,,,,,,,,,,,,,,,,,,,,,,,,,,
,,5c6d938c79151c00017c7560,2023-12-07_06h29.10.420,kallum_motion_pilot,2023.2.3,Win32,143.4514417,5c6d938c79151c00017c7560,6560176e4d91f764e2a42c74,657157ec370a957374a21233,0.0849,0.085,1,58,220,54,1,fourtwo,,,,,,,,,,,,,,,,,,,,,,,,,,,,,,,,,,,,,,,,,,,,,,,,,,,,,,,,,,,,,,,,,,,,,,,,,,,,,,,,,,,,,,,,,,,,,,,,,,,,,,,,,,,,,,,,,,,,,,,,,,,,,,,,,,,,,,,
,,5c6d938c79151c00017c7560,2023-12-07_06h29.10.420,kallum_motion_pilot,2023.2.3,Win32,143.4514417,5c6d938c79151c00017c7560,6560176e4d91f764e2a42c74,657157ec370a957374a21233,0.0851,0.0853,1,59,221,120,1,fivesix,,,,,,,,,,,,,,,,,,,,,,,,,,,,,,,,,,,,,,,,,,,,,,,,,,,,,,,,,,,,,,,,,,,,,,,,,,,,,,,,,,,,,,,,,,,,,,,,,,,,,,,,,,,,,,,,,,,,,,,,,,,,,,,,,,,,,,,
,,5c6d938c79151c00017c7560,2023-12-07_06h29.10.420,kallum_motion_pilot,2023.2.3,Win32,143.4514417,5c6d938c79151c00017c7560,6560176e4d91f764e2a42c74,657157ec370a957374a21233,0.0856,0.0857,1,60,222,17,1,onethree,,,,,,,,,,,,,,,,,,,,,,,,,,,,,,,,,,,,,,,,,,,,,,,,,,,,,,,,,,,,,,,,,,,,,,,,,,,,,,,,,,,,,,,,,,,,,,,,,,,,,,,,,,,,,,,,,,,,,,,,,,,,,,,,,,,,,,,
,,5c6d938c79151c00017c7560,2023-12-07_06h29.10.420,kallum_motion_pilot,2023.2.3,Win32,143.4514417,5c6d938c79151c00017c7560,6560176e4d91f764e2a42c74,657157ec370a957374a21233,0.0859,0.086,1,61,223,103,1,eightseven,,,,,,,,,,,,,,,,,,,,,,,,,,,,,,,,,,,,,,,,,,,,,,,,,,,,,,,,,,,,,,,,,,,,,,,,,,,,,,,,,,,,,,,,,,,,,,,,,,,,,,,,,,,,,,,,,,,,,,,,,,,,,,,,,,,,,,,
,,5c6d938c79151c00017c7560,2023-12-07_06h29.10.420,kallum_motion_pilot,2023.2.3,Win32,143.4514417,5c6d938c79151c00017c7560,6560176e4d91f764e2a42c74,657157ec370a957374a21233,0.086,0.0862,1,62,224,23,1,fourthree,,,,,,,,,,,,,,,,,,,,,,,,,,,,,,,,,,,,,,,,,,,,,,,,,,,,,,,,,,,,,,,,,,,,,,,,,,,,,,,,,,,,,,,,,,,,,,,,,,,,,,,,,,,,,,,,,,,,,,,,,,,,,,,,,,,,,,,
,,5c6d938c79151c00017c7560,2023-12-07_06h29.10.420,kallum_motion_pilot,2023.2.3,Win32,143.4514417,5c6d938c79151c00017c7560,6560176e4d91f764e2a42c74,657157ec370a957374a21233,0.0864,0.0865,1,63,225,127,1,eightseven,,,,,,,,,,,,,,,,,,,,,,,,,,,,,,,,,,,,,,,,,,,,,,,,,,,,,,,,,,,,,,,,,,,,,,,,,,,,,,,,,,,,,,,,,,,,,,,,,,,,,,,,,,,,,,,,,,,,,,,,,,,,,,,,,,,,,,,
,,5c6d938c79151c00017c7560,2023-12-07_06h29.10.420,kallum_motion_pilot,2023.2.3,Win32,143.4514417,5c6d938c79151c00017c7560,6560176e4d91f764e2a42c74,657157ec370a957374a21233,0.0866,0.0868,1,64,226,45,1,threefour,,,,,,,,,,,,,,,,,,,,,,,,,,,,,,,,,,,,,,,,,,,,,,,,,,,,,,,,,,,,,,,,,,,,,,,,,,,,,,,,,,,,,,,,,,,,,,,,,,,,,,,,,,,,,,,,,,,,,,,,,,,,,,,,,,,,,,,
,,5c6d938c79151c00017c7560,2023-12-07_06h29.10.420,kallum_motion_pilot,2023.2.3,Win32,143.4514417,5c6d938c79151c00017c7560,6560176e4d91f764e2a42c74,657157ec370a957374a21233,0.0869,0.087,1,65,227,81,1,fiveseven,,,,,,,,,,,,,,,,,,,,,,,,,,,,,,,,,,,,,,,,,,,,,,,,,,,,,,,,,,,,,,,,,,,,,,,,,,,,,,,,,,,,,,,,,,,,,,,,,,,,,,,,,,,,,,,,,,,,,,,,,,,,,,,,,,,,,,,
,,5c6d938c79151c00017c7560,2023-12-07_06h29.10.420,kallum_motion_pilot,2023.2.3,Win32,143.4514417,5c6d938c79151c00017c7560,6560176e4d91f764e2a42c74,657157ec370a957374a21233,0.0871,0.0872,1,66,228,117,1,seveneight,,,,,,,,,,,,,,,,,,,,,,,,,,,,,,,,,,,,,,,,,,,,,,,,,,,,,,,,,,,,,,,,,,,,,,,,,,,,,,,,,,,,,,,,,,,,,,,,,,,,,,,,,,,,,,,,,,,,,,,,,,,,,,,,,,,,,,,
,,5c6d938c79151c00017c7560,2023-12-07_06h29.10.420,kallum_motion_pilot,2023.2.3,Win32,143.4514417,5c6d938c79151c00017c7560,6560176e4d91f764e2a42c74,657157ec370a957374a21233,0.0874,0.0875,1,67,229,147,1,sixeight,,,,,,,,,,,,,,,,,,,,,,,,,,,,,,,,,,,,,,,,,,,,,,,,,,,,,,,,,,,,,,,,,,,,,,,,,,,,,,,,,,,,,,,,,,,,,,,,,,,,,,,,,,,,,,,,,,,,,,,,,,,,,,,,,,,,,,,
,,5c6d938c79151c00017c7560,2023-12-07_06h29.10.420,kallum_motion_pilot,2023.2.3,Win32,143.4514417,5c6d938c79151c00017c7560,6560176e4d91f764e2a42c74,657157ec370a957374a21233,0.0876,0.0877,1,68,230,16,1,onetwo,,,,,,,,,,,,,,,,,,,,,,,,,,,,,,,,,,,,,,,,,,,,,,,,,,,,,,,,,,,,,,,,,,,,,,,,,,,,,,,,,,,,,,,,,,,,,,,,,,,,,,,,,,,,,,,,,,,,,,,,,,,,,,,,,,,,,,,
,,5c6d938c79151c00017c7560,2023-12-07_06h29.10.420,kallum_motion_pilot,2023.2.3,Win32,143.4514417,5c6d938c79151c00017c7560,6560176e4d91f764e2a42c74,657157ec370a957374a21233,0.0878,0.088,1,69,231,136,1,fivesix,,,,,,,,,,,,,,,,,,,,,,,,,,,,,,,,,,,,,,,,,,,,,,,,,,,,,,,,,,,,,,,,,,,,,,,,,,,,,,,,,,,,,,,,,,,,,,,,,,,,,,,,,,,,,,,,,,,,,,,,,,,,,,,,,,,,,,,
,,5c6d938c79151c00017c7560,2023-12-07_06h29.10.420,kallum_motion_pilot,2023.2.3,Win32,143.4514417,5c6d938c79151c00017c7560,6560176e4d91f764e2a42c74,657157ec370a957374a21233,0.0881,0.0882,1,70,232,49,1,onethree,,,,,,,,,,,,,,,,,,,,,,,,,,,,,,,,,,,,,,,,,,,,,,,,,,,,,,,,,,,,,,,,,,,,,,,,,,,,,,,,,,,,,,,,,,,,,,,,,,,,,,,,,,,,,,,,,,,,,,,,,,,,,,,,,,,,,,,
,,5c6d938c79151c00017c7560,2023-12-07_06h29.10.420,kallum_motion_pilot,2023.2.3,Win32,143.4514417,5c6d938c79151c00017c7560,6560176e4d91f764e2a42c74,657157ec370a957374a21233,0.0884,0.0897,1,71,233,143,1,eightseven,,,,,,,,,,,,,,,,,,,,,,,,,,,,,,,,,,,,,,,,,,,,,,,,,,,,,,,,,,,,,,,,,,,,,,,,,,,,,,,,,,,,,,,,,,,,,,,,,,,,,,,,,,,,,,,,,,,,,,,,,,,,,,,,,,,,,,,
,,5c6d938c79151c00017c7560,2023-12-07_06h29.10.420,kallum_motion_pilot,2023.2.3,Win32,143.4514417,5c6d938c79151c00017c7560,6560176e4d91f764e2a42c74,657157ec370a957374a21233,0.0901,0.0903,1,72,234,138,1,sixfive,,,,,,,,,,,,,,,,,,,,,,,,,,,,,,,,,,,,,,,,,,,,,,,,,,,,,,,,,,,,,,,,,,,,,,,,,,,,,,,,,,,,,,,,,,,,,,,,,,,,,,,,,,,,,,,,,,,,,,,,,,,,,,,,,,,,,,,
,,5c6d938c79151c00017c7560,2023-12-07_06h29.10.420,kallum_motion_pilot,2023.2.3,Win32,143.4514417,5c6d938c79151c00017c7560,6560176e4d91f764e2a42c74,657157ec370a957374a21233,0.0908,0.0909,1,73,235,3,1,twofour,,,,,,,,,,,,,,,,,,,,,,,,,,,,,,,,,,,,,,,,,,,,,,,,,,,,,,,,,,,,,,,,,,,,,,,,,,,,,,,,,,,,,,,,,,,,,,,,,,,,,,,,,,,,,,,,,,,,,,,,,,,,,,,,,,,,,,,
,,5c6d938c79151c00017c7560,2023-12-07_06h29.10.420,kallum_motion_pilot,2023.2.3,Win32,143.4514417,5c6d938c79151c00017c7560,6560176e4d91f764e2a42c74,657157ec370a957374a21233,0.0911,0.0914,1,74,236,115,1,sixeight,,,,,,,,,,,,,,,,,,,,,,,,,,,,,,,,,,,,,,,,,,,,,,,,,,,,,,,,,,,,,,,,,,,,,,,,,,,,,,,,,,,,,,,,,,,,,,,,,,,,,,,,,,,,,,,,,,,,,,,,,,,,,,,,,,,,,,,
,,5c6d938c79151c00017c7560,2023-12-07_06h29.10.420,kallum_motion_pilot,2023.2.3,Win32,143.4514417,5c6d938c79151c00017c7560,6560176e4d91f764e2a42c74,657157ec370a957374a21233,0.0917,0.0919,1,75,237,90,1,sixfive,,,,,,,,,,,,,,,,,,,,,,,,,,,,,,,,,,,,,,,,,,,,,,,,,,,,,,,,,,,,,,,,,,,,,,,,,,,,,,,,,,,,,,,,,,,,,,,,,,,,,,,,,,,,,,,,,,,,,,,,,,,,,,,,,,,,,,,
,,5c6d938c79151c00017c7560,2023-12-07_06h29.10.420,kallum_motion_pilot,2023.2.3,Win32,143.4514417,5c6d938c79151c00017c7560,6560176e4d91f764e2a42c74,657157ec370a957374a21233,0.0925,0.0926,1,76,238,94,1,eightsix,,,,,,,,,,,,,,,,,,,,,,,,,,,,,,,,,,,,,,,,,,,,,,,,,,,,,,,,,,,,,,,,,,,,,,,,,,,,,,,,,,,,,,,,,,,,,,,,,,,,,,,,,,,,,,,,,,,,,,,,,,,,,,,,,,,,,,,
,,5c6d938c79151c00017c7560,2023-12-07_06h29.10.420,kallum_motion_pilot,2023.2.3,Win32,143.4514417,5c6d938c79151c00017c7560,6560176e4d91f764e2a42c74,657157ec370a957374a21233,0.0927,0.0929,1,77,239,137,1,fiveseven,,,,,,,,,,,,,,,,,,,,,,,,,,,,,,,,,,,,,,,,,,,,,,,,,,,,,,,,,,,,,,,,,,,,,,,,,,,,,,,,,,,,,,,,,,,,,,,,,,,,,,,,,,,,,,,,,,,,,,,,,,,,,,,,,,,,,,,
,,5c6d938c79151c00017c7560,2023-12-07_06h29.10.420,kallum_motion_pilot,2023.2.3,Win32,143.4514417,5c6d938c79151c00017c7560,6560176e4d91f764e2a42c74,657157ec370a957374a21233,0.093,0.093,1,78,240,22,1,fourtwo,,,,,,,,,,,,,,,,,,,,,,,,,,,,,,,,,,,,,,,,,,,,,,,,,,,,,,,,,,,,,,,,,,,,,,,,,,,,,,,,,,,,,,,,,,,,,,,,,,,,,,,,,,,,,,,,,,,,,,,,,,,,,,,,,,,,,,,
,,5c6d938c79151c00017c7560,2023-12-07_06h29.10.420,kallum_motion_pilot,2023.2.3,Win32,143.4514417,5c6d938c79151c00017c7560,6560176e4d91f764e2a42c74,657157ec370a957374a21233,0.0933,0.0935,1,79,241,144,1,fivesix,,,,,,,,,,,,,,,,,,,,,,,,,,,,,,,,,,,,,,,,,,,,,,,,,,,,,,,,,,,,,,,,,,,,,,,,,,,,,,,,,,,,,,,,,,,,,,,,,,,,,,,,,,,,,,,,,,,,,,,,,,,,,,,,,,,,,,,
,,5c6d938c79151c00017c7560,2023-12-07_06h29.10.420,kallum_motion_pilot,2023.2.3,Win32,143.4514417,5c6d938c79151c00017c7560,6560176e4d91f764e2a42c74,657157ec370a957374a21233,0.0937,0.0937,1,80,242,114,1,sixfive,,,,,,,,,,,,,,,,,,,,,,,,,,,,,,,,,,,,,,,,,,,,,,,,,,,,,,,,,,,,,,,,,,,,,,,,,,,,,,,,,,,,,,,,,,,,,,,,,,,,,,,,,,,,,,,,,,,,,,,,,,,,,,,,,,,,,,,
,,5c6d938c79151c00017c7560,2023-12-07_06h29.10.420,kallum_motion_pilot,2023.2.3,Win32,143.4514417,5c6d938c79151c00017c7560,6560176e4d91f764e2a42c74,657157ec370a957374a21233,0.0939,0.0946,1,81,243,123,1,sixeight,,,,,,,,,,,,,,,,,,,,,,,,,,,,,,,,,,,,,,,,,,,,,,,,,,,,,,,,,,,,,,,,,,,,,,,,,,,,,,,,,,,,,,,,,,,,,,,,,,,,,,,,,,,,,,,,,,,,,,,,,,,,,,,,,,,,,,,
,,5c6d938c79151c00017c7560,2023-12-07_06h29.10.420,kallum_motion_pilot,2023.2.3,Win32,143.4514417,5c6d938c79151c00017c7560,6560176e4d91f764e2a42c74,657157ec370a957374a21233,0.0949,0.095,1,82,244,146,1,sixfive,,,,,,,,,,,,,,,,,,,,,,,,,,,,,,,,,,,,,,,,,,,,,,,,,,,,,,,,,,,,,,,,,,,,,,,,,,,,,,,,,,,,,,,,,,,,,,,,,,,,,,,,,,,,,,,,,,,,,,,,,,,,,,,,,,,,,,,
,,5c6d938c79151c00017c7560,2023-12-07_06h29.10.420,kallum_motion_pilot,2023.2.3,Win32,143.4514417,5c6d938c79151c00017c7560,6560176e4d91f764e2a42c74,657157ec370a957374a21233,0.0951,0.0952,1,83,245,69,1,threefour,,,,,,,,,,,,,,,,,,,,,,,,,,,,,,,,,,,,,,,,,,,,,,,,,,,,,,,,,,,,,,,,,,,,,,,,,,,,,,,,,,,,,,,,,,,,,,,,,,,,,,,,,,,,,,,,,,,,,,,,,,,,,,,,,,,,,,,
,,5c6d938c79151c00017c7560,2023-12-07_06h29.10.420,kallum_motion_pilot,2023.2.3,Win32,143.4514417,5c6d938c79151c00017c7560,6560176e4d91f764e2a42c74,657157ec370a957374a21233,0.0968,0.097,1,84,246,57,1,onethree,,,,,,,,,,,,,,,,,,,,,,,,,,,,,,,,,,,,,,,,,,,,,,,,,,,,,,,,,,,,,,,,,,,,,,,,,,,,,,,,,,,,,,,,,,,,,,,,,,,,,,,,,,,,,,,,,,,,,,,,,,,,,,,,,,,,,,,
,,5c6d938c79151c00017c7560,2023-12-07_06h29.10.420,kallum_motion_pilot,2023.2.3,Win32,143.4514417,5c6d938c79151c00017c7560,6560176e4d91f764e2a42c74,657157ec370a957374a21233,0.0972,0.0974,1,85,247,148,1,sevenfive,,,,,,,,,,,,,,,,,,,,,,,,,,,,,,,,,,,,,,,,,,,,,,,,,,,,,,,,,,,,,,,,,,,,,,,,,,,,,,,,,,,,,,,,,,,,,,,,,,,,,,,,,,,,,,,,,,,,,,,,,,,,,,,,,,,,,,,
,,5c6d938c79151c00017c7560,2023-12-07_06h29.10.420,kallum_motion_pilot,2023.2.3,Win32,143.4514417,5c6d938c79151c00017c7560,6560176e4d91f764e2a42c74,657157ec370a957374a21233,0.0976,0.0977,1,86,248,160,1,fivesix,,,,,,,,,,,,,,,,,,,,,,,,,,,,,,,,,,,,,,,,,,,,,,,,,,,,,,,,,,,,,,,,,,,,,,,,,,,,,,,,,,,,,,,,,,,,,,,,,,,,,,,,,,,,,,,,,,,,,,,,,,,,,,,,,,,,,,,
,,5c6d938c79151c00017c7560,2023-12-07_06h29.10.420,kallum_motion_pilot,2023.2.3,Win32,143.4514417,5c6d938c79151c00017c7560,6560176e4d91f764e2a42c74,657157ec370a957374a21233,0.0979,0.098,1,87,249,80,1,fivesix,,,,,,,,,,,,,,,,,,,,,,,,,,,,,,,,,,,,,,,,,,,,,,,,,,,,,,,,,,,,,,,,,,,,,,,,,,,,,,,,,,,,,,,,,,,,,,,,,,,,,,,,,,,,,,,,,,,,,,,,,,,,,,,,,,,,,,,
,,5c6d938c79151c00017c7560,2023-12-07_06h29.10.420,kallum_motion_pilot,2023.2.3,Win32,143.4514417,5c6d938c79151c00017c7560,6560176e4d91f764e2a42c74,657157ec370a957374a21233,0.0981,0.0982,1,88,250,76,1,threeone,,,,,,,,,,,,,,,,,,,,,,,,,,,,,,,,,,,,,,,,,,,,,,,,,,,,,,,,,,,,,,,,,,,,,,,,,,,,,,,,,,,,,,,,,,,,,,,,,,,,,,,,,,,,,,,,,,,,,,,,,,,,,,,,,,,,,,,
,,5c6d938c79151c00017c7560,2023-12-07_06h29.10.420,kallum_motion_pilot,2023.2.3,Win32,143.4514417,5c6d938c79151c00017c7560,6560176e4d91f764e2a42c74,657157ec370a957374a21233,0.0998,0.0999,1,89,251,107,1,sixeight,,,,,,,,,,,,,,,,,,,,,,,,,,,,,,,,,,,,,,,,,,,,,,,,,,,,,,,,,,,,,,,,,,,,,,,,,,,,,,,,,,,,,,,,,,,,,,,,,,,,,,,,,,,,,,,,,,,,,,,,,,,,,,,,,,,,,,,
,,5c6d938c79151c00017c7560,2023-12-07_06h29.10.420,kallum_motion_pilot,2023.2.3,Win32,143.4514417,5c6d938c79151c00017c7560,6560176e4d91f764e2a42c74,657157ec370a957374a21233,0.1,0.1001,1,90,252,96,1,fivesix,,,,,,,,,,,,,,,,,,,,,,,,,,,,,,,,,,,,,,,,,,,,,,,,,,,,,,,,,,,,,,,,,,,,,,,,,,,,,,,,,,,,,,,,,,,,,,,,,,,,,,,,,,,,,,,,,,,,,,,,,,,,,,,,,,,,,,,
,,5c6d938c79151c00017c7560,2023-12-07_06h29.10.420,kallum_motion_pilot,2023.2.3,Win32,143.4514417,5c6d938c79151c00017c7560,6560176e4d91f764e2a42c74,657157ec370a957374a21233,0.1005,0.1006,1,91,253,12,1,threeone,,,,,,,,,,,,,,,,,,,,,,,,,,,,,,,,,,,,,,,,,,,,,,,,,,,,,,,,,,,,,,,,,,,,,,,,,,,,,,,,,,,,,,,,,,,,,,,,,,,,,,,,,,,,,,,,,,,,,,,,,,,,,,,,,,,,,,,
,,5c6d938c79151c00017c7560,2023-12-07_06h29.10.420,kallum_motion_pilot,2023.2.3,Win32,143.4514417,5c6d938c79151c00017c7560,6560176e4d91f764e2a42c74,657157ec370a957374a21233,0.1008,0.1009,1,92,254,29,1,threefour,,,,,,,,,,,,,,,,,,,,,,,,,,,,,,,,,,,,,,,,,,,,,,,,,,,,,,,,,,,,,,,,,,,,,,,,,,,,,,,,,,,,,,,,,,,,,,,,,,,,,,,,,,,,,,,,,,,,,,,,,,,,,,,,,,,,,,,
,,5c6d938c79151c00017c7560,2023-12-07_06h29.10.420,kallum_motion_pilot,2023.2.3,Win32,143.4514417,5c6d938c79151c00017c7560,6560176e4d91f764e2a42c74,657157ec370a957374a21233,0.1014,0.1017,1,93,255,67,1,twofour,,,,,,,,,,,,,,,,,,,,,,,,,,,,,,,,,,,,,,,,,,,,,,,,,,,,,,,,,,,,,,,,,,,,,,,,,,,,,,,,,,,,,,,,,,,,,,,,,,,,,,,,,,,,,,,,,,,,,,,,,,,,,,,,,,,,,,,
,,5c6d938c79151c00017c7560,2023-12-07_06h29.10.420,kallum_motion_pilot,2023.2.3,Win32,143.4514417,5c6d938c79151c00017c7560,6560176e4d91f764e2a42c74,657157ec370a957374a21233,0.1018,0.102,1,94,256,121,1,fiveseven,,,,,,,,,,,,,,,,,,,,,,,,,,,,,,,,,,,,,,,,,,,,,,,,,,,,,,,,,,,,,,,,,,,,,,,,,,,,,,,,,,,,,,,,,,,,,,,,,,,,,,,,,,,,,,,,,,,,,,,,,,,,,,,,,,,,,,,
,,5c6d938c79151c00017c7560,2023-12-07_06h29.10.420,kallum_motion_pilot,2023.2.3,Win32,143.4514417,5c6d938c79151c00017c7560,6560176e4d91f764e2a42c74,657157ec370a957374a21233,0.1039,0.104,1,95,257,33,1,onethree,,,,,,,,,,,,,,,,,,,,,,,,,,,,,,,,,,,,,,,,,,,,,,,,,,,,,,,,,,,,,,,,,,,,,,,,,,,,,,,,,,,,,,,,,,,,,,,,,,,,,,,,,,,,,,,,,,,,,,,,,,,,,,,,,,,,,,,
,,5c6d938c79151c00017c7560,2023-12-07_06h29.10.420,kallum_motion_pilot,2023.2.3,Win32,143.4514417,5c6d938c79151c00017c7560,6560176e4d91f764e2a42c74,657157ec370a957374a21233,0.1041,0.1044,1,96,258,14,1,fourtwo,,,,,,,,,,,,,,,,,,,,,,,,,,,,,,,,,,,,,,,,,,,,,,,,,,,,,,,,,,,,,,,,,,,,,,,,,,,,,,,,,,,,,,,,,,,,,,,,,,,,,,,,,,,,,,,,,,,,,,,,,,,,,,,,,,,,,,,
,,5c6d938c79151c00017c7560,2023-12-07_06h29.10.420,kallum_motion_pilot,2023.2.3,Win32,143.4514417,5c6d938c79151c00017c7560,6560176e4d91f764e2a42c74,657157ec370a957374a21233,0.1045,0.1045,1,97,259,55,1,fourthree,,,,,,,,,,,,,,,,,,,,,,,,,,,,,,,,,,,,,,,,,,,,,,,,,,,,,,,,,,,,,,,,,,,,,,,,,,,,,,,,,,,,,,,,,,,,,,,,,,,,,,,,,,,,,,,,,,,,,,,,,,,,,,,,,,,,,,,
,,5c6d938c79151c00017c7560,2023-12-07_06h29.10.420,kallum_motion_pilot,2023.2.3,Win32,143.4514417,5c6d938c79151c00017c7560,6560176e4d91f764e2a42c74,657157ec370a957374a21233,0.1048,0.1048,1,98,260,64,1,onetwo,,,,,,,,,,,,,,,,,,,,,,,,,,,,,,,,,,,,,,,,,,,,,,,,,,,,,,,,,,,,,,,,,,,,,,,,,,,,,,,,,,,,,,,,,,,,,,,,,,,,,,,,,,,,,,,,,,,,,,,,,,,,,,,,,,,,,,,
,,5c6d938c79151c00017c7560,2023-12-07_06h29.10.420,kallum_motion_pilot,2023.2.3,Win32,143.4514417,5c6d938c79151c00017c7560,6560176e4d91f764e2a42c74,657157ec370a957374a21233,0.105,0.1051,1,99,261,142,1,eightsix,,,,,,,,,,,,,,,,,,,,,,,,,,,,,,,,,,,,,,,,,,,,,,,,,,,,,,,,,,,,,,,,,,,,,,,,,,,,,,,,,,,,,,,,,,,,,,,,,,,,,,,,,,,,,,,,,,,,,,,,,,,,,,,,,,,,,,,
,,5c6d938c79151c00017c7560,2023-12-07_06h29.10.420,kallum_motion_pilot,2023.2.3,Win32,143.4514417,5c6d938c79151c00017c7560,6560176e4d91f764e2a42c74,657157ec370a957374a21233,0.1053,0.1055,1,100,262,79,1,eightseven,,,,,,,,,,,,,,,,,,,,,,,,,,,,,,,,,,,,,,,,,,,,,,,,,,,,,,,,,,,,,,,,,,,,,,,,,,,,,,,,,,,,,,,,,,,,,,,,,,,,,,,,,,,,,,,,,,,,,,,,,,,,,,,,,,,,,,,
,,5c6d938c79151c00017c7560,2023-12-07_06h29.10.420,kallum_motion_pilot,2023.2.3,Win32,143.4514417,5c6d938c79151c00017c7560,6560176e4d91f764e2a42c74,657157ec370a957374a21233,0.1057,0.1058,1,101,263,152,1,fivesix,,,,,,,,,,,,,,,,,,,,,,,,,,,,,,,,,,,,,,,,,,,,,,,,,,,,,,,,,,,,,,,,,,,,,,,,,,,,,,,,,,,,,,,,,,,,,,,,,,,,,,,,,,,,,,,,,,,,,,,,,,,,,,,,,,,,,,,
,,5c6d938c79151c00017c7560,2023-12-07_06h29.10.420,kallum_motion_pilot,2023.2.3,Win32,143.4514417,5c6d938c79151c00017c7560,6560176e4d91f764e2a42c74,657157ec370a957374a21233,0.1059,0.106,1,102,264,118,1,eightsix,,,,,,,,,,,,,,,,,,,,,,,,,,,,,,,,,,,,,,,,,,,,,,,,,,,,,,,,,,,,,,,,,,,,,,,,,,,,,,,,,,,,,,,,,,,,,,,,,,,,,,,,,,,,,,,,,,,,,,,,,,,,,,,,,,,,,,,
,,5c6d938c79151c00017c7560,2023-12-07_06h29.10.420,kallum_motion_pilot,2023.2.3,Win32,143.4514417,5c6d938c79151c00017c7560,6560176e4d91f764e2a42c74,657157ec370a957374a21233,0.1062,0.1063,1,103,265,139,1,sixeight,,,,,,,,,,,,,,,,,,,,,,,,,,,,,,,,,,,,,,,,,,,,,,,,,,,,,,,,,,,,,,,,,,,,,,,,,,,,,,,,,,,,,,,,,,,,,,,,,,,,,,,,,,,,,,,,,,,,,,,,,,,,,,,,,,,,,,,
,,5c6d938c79151c00017c7560,2023-12-07_06h29.10.420,kallum_motion_pilot,2023.2.3,Win32,143.4514417,5c6d938c79151c00017c7560,6560176e4d91f764e2a42c74,657157ec370a957374a21233,0.1064,0.1065,1,104,266,10,1,twoone,,,,,,,,,,,,,,,,,,,,,,,,,,,,,,,,,,,,,,,,,,,,,,,,,,,,,,,,,,,,,,,,,,,,,,,,,,,,,,,,,,,,,,,,,,,,,,,,,,,,,,,,,,,,,,,,,,,,,,,,,,,,,,,,,,,,,,,
,,5c6d938c79151c00017c7560,2023-12-07_06h29.10.420,kallum_motion_pilot,2023.2.3,Win32,143.4514417,5c6d938c79151c00017c7560,6560176e4d91f764e2a42c74,657157ec370a957374a21233,0.1067,0.1068,1,105,267,92,1,sevenfive,,,,,,,,,,,,,,,,,,,,,,,,,,,,,,,,,,,,,,,,,,,,,,,,,,,,,,,,,,,,,,,,,,,,,,,,,,,,,,,,,,,,,,,,,,,,,,,,,,,,,,,,,,,,,,,,,,,,,,,,,,,,,,,,,,,,,,,
,,5c6d938c79151c00017c7560,2023-12-07_06h29.10.420,kallum_motion_pilot,2023.2.3,Win32,143.4514417,5c6d938c79151c00017c7560,6560176e4d91f764e2a42c74,657157ec370a957374a21233,0.1069,0.107,1,106,268,105,1,fiveseven,,,,,,,,,,,,,,,,,,,,,,,,,,,,,,,,,,,,,,,,,,,,,,,,,,,,,,,,,,,,,,,,,,,,,,,,,,,,,,,,,,,,,,,,,,,,,,,,,,,,,,,,,,,,,,,,,,,,,,,,,,,,,,,,,,,,,,,
,,5c6d938c79151c00017c7560,2023-12-07_06h29.10.420,kallum_motion_pilot,2023.2.3,Win32,143.4514417,5c6d938c79151c00017c7560,6560176e4d91f764e2a42c74,657157ec370a957374a21233,0.1072,0.1073,1,107,269,133,1,seveneight,,,,,,,,,,,,,,,,,,,,,,,,,,,,,,,,,,,,,,,,,,,,,,,,,,,,,,,,,,,,,,,,,,,,,,,,,,,,,,,,,,,,,,,,,,,,,,,,,,,,,,,,,,,,,,,,,,,,,,,,,,,,,,,,,,,,,,,
,,5c6d938c79151c00017c7560,2023-12-07_06h29.10.420,kallum_motion_pilot,2023.2.3,Win32,143.4514417,5c6d938c79151c00017c7560,6560176e4d91f764e2a42c74,657157ec370a957374a21233,0.1074,0.1075,1,108,270,77,1,threefour,,,,,,,,,,,,,,,,,,,,,,,,,,,,,,,,,,,,,,,,,,,,,,,,,,,,,,,,,,,,,,,,,,,,,,,,,,,,,,,,,,,,,,,,,,,,,,,,,,,,,,,,,,,,,,,,,,,,,,,,,,,,,,,,,,,,,,,
,,5c6d938c79151c00017c7560,2023-12-07_06h29.10.420,kallum_motion_pilot,2023.2.3,Win32,143.4514417,5c6d938c79151c00017c7560,6560176e4d91f764e2a42c74,657157ec370a957374a21233,0.1076,0.1077,1,109,271,125,1,seveneight,,,,,,,,,,,,,,,,,,,,,,,,,,,,,,,,,,,,,,,,,,,,,,,,,,,,,,,,,,,,,,,,,,,,,,,,,,,,,,,,,,,,,,,,,,,,,,,,,,,,,,,,,,,,,,,,,,,,,,,,,,,,,,,,,,,,,,,
,,5c6d938c79151c00017c7560,2023-12-07_06h29.10.420,kallum_motion_pilot,2023.2.3,Win32,143.4514417,5c6d938c79151c00017c7560,6560176e4d91f764e2a42c74,657157ec370a957374a21233,0.1078,0.1078,1,110,272,88,1,fivesix,,,,,,,,,,,,,,,,,,,,,,,,,,,,,,,,,,,,,,,,,,,,,,,,,,,,,,,,,,,,,,,,,,,,,,,,,,,,,,,,,,,,,,,,,,,,,,,,,,,,,,,,,,,,,,,,,,,,,,,,,,,,,,,,,,,,,,,
,,5c6d938c79151c00017c7560,2023-12-07_06h29.10.420,kallum_motion_pilot,2023.2.3,Win32,143.4514417,5c6d938c79151c00017c7560,6560176e4d91f764e2a42c74,657157ec370a957374a21233,0.108,0.108,1,111,273,0,1,onetwo,,,,,,,,,,,,,,,,,,,,,,,,,,,,,,,,,,,,,,,,,,,,,,,,,,,,,,,,,,,,,,,,,,,,,,,,,,,,,,,,,,,,,,,,,,,,,,,,,,,,,,,,,,,,,,,,,,,,,,,,,,,,,,,,,,,,,,,
,,5c6d938c79151c00017c7560,2023-12-07_06h29.10.420,kallum_motion_pilot,2023.2.3,Win32,143.4514417,5c6d938c79151c00017c7560,6560176e4d91f764e2a42c74,657157ec370a957374a21233,0.1082,0.1083,1,112,274,106,1,sixfive,,,,,,,,,,,,,,,,,,,,,,,,,,,,,,,,,,,,,,,,,,,,,,,,,,,,,,,,,,,,,,,,,,,,,,,,,,,,,,,,,,,,,,,,,,,,,,,,,,,,,,,,,,,,,,,,,,,,,,,,,,,,,,,,,,,,,,,
,,5c6d938c79151c00017c7560,2023-12-07_06h29.10.420,kallum_motion_pilot,2023.2.3,Win32,143.4514417,5c6d938c79151c00017c7560,6560176e4d91f764e2a42c74,657157ec370a957374a21233,0.1084,0.1085,1,113,275,70,1,fourtwo,,,,,,,,,,,,,,,,,,,,,,,,,,,,,,,,,,,,,,,,,,,,,,,,,,,,,,,,,,,,,,,,,,,,,,,,,,,,,,,,,,,,,,,,,,,,,,,,,,,,,,,,,,,,,,,,,,,,,,,,,,,,,,,,,,,,,,,
,,5c6d938c79151c00017c7560,2023-12-07_06h29.10.420,kallum_motion_pilot,2023.2.3,Win32,143.4514417,5c6d938c79151c00017c7560,6560176e4d91f764e2a42c74,657157ec370a957374a21233,0.1086,0.1087,1,114,276,56,1,onetwo,,,,,,,,,,,,,,,,,,,,,,,,,,,,,,,,,,,,,,,,,,,,,,,,,,,,,,,,,,,,,,,,,,,,,,,,,,,,,,,,,,,,,,,,,,,,,,,,,,,,,,,,,,,,,,,,,,,,,,,,,,,,,,,,,,,,,,,
,,5c6d938c79151c00017c7560,2023-12-07_06h29.10.420,kallum_motion_pilot,2023.2.3,Win32,143.4514417,5c6d938c79151c00017c7560,6560176e4d91f764e2a42c74,657157ec370a957374a21233,0.1088,0.1088,1,115,277,4,1,threeone,,,,,,,,,,,,,,,,,,,,,,,,,,,,,,,,,,,,,,,,,,,,,,,,,,,,,,,,,,,,,,,,,,,,,,,,,,,,,,,,,,,,,,,,,,,,,,,,,,,,,,,,,,,,,,,,,,,,,,,,,,,,,,,,,,,,,,,
,,5c6d938c79151c00017c7560,2023-12-07_06h29.10.420,kallum_motion_pilot,2023.2.3,Win32,143.4514417,5c6d938c79151c00017c7560,6560176e4d91f764e2a42c74,657157ec370a957374a21233,0.109,0.1091,1,116,278,116,1,sevenfive,,,,,,,,,,,,,,,,,,,,,,,,,,,,,,,,,,,,,,,,,,,,,,,,,,,,,,,,,,,,,,,,,,,,,,,,,,,,,,,,,,,,,,,,,,,,,,,,,,,,,,,,,,,,,,,,,,,,,,,,,,,,,,,,,,,,,,,
,,5c6d938c79151c00017c7560,2023-12-07_06h29.10.420,kallum_motion_pilot,2023.2.3,Win32,143.4514417,5c6d938c79151c00017c7560,6560176e4d91f764e2a42c74,657157ec370a957374a21233,0.1095,0.1096,1,117,279,2,1,twoone,,,,,,,,,,,,,,,,,,,,,,,,,,,,,,,,,,,,,,,,,,,,,,,,,,,,,,,,,,,,,,,,,,,,,,,,,,,,,,,,,,,,,,,,,,,,,,,,,,,,,,,,,,,,,,,,,,,,,,,,,,,,,,,,,,,,,,,
