startup.started,startup.stopped,Prolific ID*,date,expName,psychopyVersion,OS,frameRate,participant,study_id,session,stimpositions.started,stimpositions.stopped,hardcoded_stimulus_positions.thisRepN,hardcoded_stimulus_positions.thisTrialN,hardcoded_stimulus_positions.thisN,hardcoded_stimulus_positions.thisIndex,hardcoded_stimulus_positions.ran,StimulusPos,stimorientation.started,stimorientation.stopped,prac_stimorientation_import_loop.thisRepN,prac_stimorientation_import_loop.thisTrialN,prac_stimorientation_import_loop.thisN,prac_stimorientation_import_loop.thisIndex,prac_stimorientation_import_loop.ran,Stimorientation,welcome_instr.started,welcome_instr.stopped,key_resp.keys,key_resp.rt,key_resp.duration,response_steppedout_1.started,response_steppedout_1.stopped,key_resp_20.keys,key_resp_20.rt,key_resp_20.duration,response_steppedout_2.started,response_steppedout_2.stopped,key_resp_19.keys,key_resp_19.rt,key_resp_19.duration,stim_response_instr.started,stim_response_instr.stopped,key_resp_15.keys,key_resp_15.rt,key_resp_15.duration,direction_instr_2.started,direction_instr_2.stopped,key_resp_9.keys,key_resp_9.rt,key_resp_9.duration,instr_prac.started,instr_prac.stopped,key_resp_10.keys,key_resp_10.rt,key_resp_10.duration,Stim1_display_prac.started,Stim1_display_prac.stopped,Ecc,Circle1_ori,Circle2_ori,response_prac.started,similarity,response_time,response_prac.stopped,mouse_5.x,mouse_5.y,mouse_5.leftButton,mouse_5.midButton,mouse_5.rightButton,mouse_5.clicked_name,responseprac_feedback.started,responseprac_feedback.stopped,summary2_prac.started,summary2_prac.stopped,mouse_6.x,mouse_6.y,mouse_6.leftButton,mouse_6.midButton,mouse_6.rightButton,mouse_6.clicked_name,duringprac.thisRepN,duringprac.thisTrialN,duringprac.thisN,duringprac.thisIndex,duringprac.ran,begin.started,begin.stopped,key_resp_22.keys,key_resp_22.rt,key_resp_22.duration,Stim1_display.started,Stim1_display.stopped,circle1_ori,circle2_ori,blank.started,blank.stopped,response.started,response.stopped,mouse.x,mouse.y,mouse.leftButton,mouse.midButton,mouse.rightButton,mouse.clicked_name,response_2.started,response_2.stopped,mouse_2.x,mouse_2.y,mouse_2.leftButton,mouse_2.midButton,mouse_2.rightButton,mouse_2.clicked_name,special_trial.started,special_trial.stopped,catch_1.started,catch_1.stopped,mouse_3.x,mouse_3.y,mouse_3.leftButton,mouse_3.midButton,mouse_3.rightButton,catchresponse,catchnumber,response_time_catch,Catch,response_sum.started,response_sum.stopped,mouse_11.x,mouse_11.y,mouse_11.leftButton,mouse_11.midButton,mouse_11.rightButton,main_trial.thisRepN,main_trial.thisTrialN,main_trial.thisN,main_trial.thisIndex,main_trial.ran,Orientationtrialno,xcircle1_ori,xcircle2_ori,flip_presentation_sequence_for_double_pass.started,flip_presentation_sequence_for_double_pass.stopped,double_pass.thisRepN,double_pass.thisTrialN,double_pass.thisN,double_pass.thisIndex,double_pass.ran,goodbye.started,goodbye.stopped,key_resp_3.keys,key_resp_3.rt,key_resp_3.duration
0,0,5d7957036797da0019537ad1,2023-12-06_23h35.05.582,kallum_motion_pilot,2023.2.3,Win32,48.12319538,5d7957036797da0019537ad1,6560176e4d91f764e2a42c74,657159169e2550a2ba46fdf3,,,,,,,,,,,,,,,,,,,,,,,,,,,,,,,,,,,,,,,,,,,,,,,,,,,,,,,,,,,,,,,,,,,,,,,,,,,,,,,,,,,,,,,,,,,,,,,,,,,,,,,,,,,,,,,,,,,,,,,,,,,,,,,,,,,,,,,,,,,,,,,
,,5d7957036797da0019537ad1,2023-12-06_23h35.05.582,kallum_motion_pilot,2023.2.3,Win32,48.12319538,5d7957036797da0019537ad1,6560176e4d91f764e2a42c74,657159169e2550a2ba46fdf3,0.032,0.032,0,0,0,8,1,onetwo,,,,,,,,,,,,,,,,,,,,,,,,,,,,,,,,,,,,,,,,,,,,,,,,,,,,,,,,,,,,,,,,,,,,,,,,,,,,,,,,,,,,,,,,,,,,,,,,,,,,,,,,,,,,,,,,,,,,,,,,,,,,,,,,,,,,,,,
,,5d7957036797da0019537ad1,2023-12-06_23h35.05.582,kallum_motion_pilot,2023.2.3,Win32,48.12319538,5d7957036797da0019537ad1,6560176e4d91f764e2a42c74,657159169e2550a2ba46fdf3,0.032,0.032,0,1,1,61,1,threefour,,,,,,,,,,,,,,,,,,,,,,,,,,,,,,,,,,,,,,,,,,,,,,,,,,,,,,,,,,,,,,,,,,,,,,,,,,,,,,,,,,,,,,,,,,,,,,,,,,,,,,,,,,,,,,,,,,,,,,,,,,,,,,,,,,,,,,,
,,5d7957036797da0019537ad1,2023-12-06_23h35.05.582,kallum_motion_pilot,2023.2.3,Win32,48.12319538,5d7957036797da0019537ad1,6560176e4d91f764e2a42c74,657159169e2550a2ba46fdf3,0.032,0.032,0,2,2,31,1,fourthree,,,,,,,,,,,,,,,,,,,,,,,,,,,,,,,,,,,,,,,,,,,,,,,,,,,,,,,,,,,,,,,,,,,,,,,,,,,,,,,,,,,,,,,,,,,,,,,,,,,,,,,,,,,,,,,,,,,,,,,,,,,,,,,,,,,,,,,
,,5d7957036797da0019537ad1,2023-12-06_23h35.05.582,kallum_motion_pilot,2023.2.3,Win32,48.12319538,5d7957036797da0019537ad1,6560176e4d91f764e2a42c74,657159169e2550a2ba46fdf3,0.033,0.033,0,3,3,159,1,eightseven,,,,,,,,,,,,,,,,,,,,,,,,,,,,,,,,,,,,,,,,,,,,,,,,,,,,,,,,,,,,,,,,,,,,,,,,,,,,,,,,,,,,,,,,,,,,,,,,,,,,,,,,,,,,,,,,,,,,,,,,,,,,,,,,,,,,,,,
,,5d7957036797da0019537ad1,2023-12-06_23h35.05.582,kallum_motion_pilot,2023.2.3,Win32,48.12319538,5d7957036797da0019537ad1,6560176e4d91f764e2a42c74,657159169e2550a2ba46fdf3,0.033,0.033,0,4,4,7,1,fourthree,,,,,,,,,,,,,,,,,,,,,,,,,,,,,,,,,,,,,,,,,,,,,,,,,,,,,,,,,,,,,,,,,,,,,,,,,,,,,,,,,,,,,,,,,,,,,,,,,,,,,,,,,,,,,,,,,,,,,,,,,,,,,,,,,,,,,,,
,,5d7957036797da0019537ad1,2023-12-06_23h35.05.582,kallum_motion_pilot,2023.2.3,Win32,48.12319538,5d7957036797da0019537ad1,6560176e4d91f764e2a42c74,657159169e2550a2ba46fdf3,0.033,0.033,0,5,5,119,1,eightseven,,,,,,,,,,,,,,,,,,,,,,,,,,,,,,,,,,,,,,,,,,,,,,,,,,,,,,,,,,,,,,,,,,,,,,,,,,,,,,,,,,,,,,,,,,,,,,,,,,,,,,,,,,,,,,,,,,,,,,,,,,,,,,,,,,,,,,,
,,5d7957036797da0019537ad1,2023-12-06_23h35.05.582,kallum_motion_pilot,2023.2.3,Win32,48.12319538,5d7957036797da0019537ad1,6560176e4d91f764e2a42c74,657159169e2550a2ba46fdf3,0.033,0.033,0,6,6,120,1,fivesix,,,,,,,,,,,,,,,,,,,,,,,,,,,,,,,,,,,,,,,,,,,,,,,,,,,,,,,,,,,,,,,,,,,,,,,,,,,,,,,,,,,,,,,,,,,,,,,,,,,,,,,,,,,,,,,,,,,,,,,,,,,,,,,,,,,,,,,
,,5d7957036797da0019537ad1,2023-12-06_23h35.05.582,kallum_motion_pilot,2023.2.3,Win32,48.12319538,5d7957036797da0019537ad1,6560176e4d91f764e2a42c74,657159169e2550a2ba46fdf3,0.033,0.033,0,7,7,139,1,sixeight,,,,,,,,,,,,,,,,,,,,,,,,,,,,,,,,,,,,,,,,,,,,,,,,,,,,,,,,,,,,,,,,,,,,,,,,,,,,,,,,,,,,,,,,,,,,,,,,,,,,,,,,,,,,,,,,,,,,,,,,,,,,,,,,,,,,,,,
,,5d7957036797da0019537ad1,2023-12-06_23h35.05.582,kallum_motion_pilot,2023.2.3,Win32,48.12319538,5d7957036797da0019537ad1,6560176e4d91f764e2a42c74,657159169e2550a2ba46fdf3,0.034,0.034,0,8,8,84,1,sevenfive,,,,,,,,,,,,,,,,,,,,,,,,,,,,,,,,,,,,,,,,,,,,,,,,,,,,,,,,,,,,,,,,,,,,,,,,,,,,,,,,,,,,,,,,,,,,,,,,,,,,,,,,,,,,,,,,,,,,,,,,,,,,,,,,,,,,,,,
,,5d7957036797da0019537ad1,2023-12-06_23h35.05.582,kallum_motion_pilot,2023.2.3,Win32,48.12319538,5d7957036797da0019537ad1,6560176e4d91f764e2a42c74,657159169e2550a2ba46fdf3,0.034,0.034,0,9,9,113,1,fiveseven,,,,,,,,,,,,,,,,,,,,,,,,,,,,,,,,,,,,,,,,,,,,,,,,,,,,,,,,,,,,,,,,,,,,,,,,,,,,,,,,,,,,,,,,,,,,,,,,,,,,,,,,,,,,,,,,,,,,,,,,,,,,,,,,,,,,,,,
,,5d7957036797da0019537ad1,2023-12-06_23h35.05.582,kallum_motion_pilot,2023.2.3,Win32,48.12319538,5d7957036797da0019537ad1,6560176e4d91f764e2a42c74,657159169e2550a2ba46fdf3,0.034,0.034,0,10,10,152,1,fivesix,,,,,,,,,,,,,,,,,,,,,,,,,,,,,,,,,,,,,,,,,,,,,,,,,,,,,,,,,,,,,,,,,,,,,,,,,,,,,,,,,,,,,,,,,,,,,,,,,,,,,,,,,,,,,,,,,,,,,,,,,,,,,,,,,,,,,,,
,,5d7957036797da0019537ad1,2023-12-06_23h35.05.582,kallum_motion_pilot,2023.2.3,Win32,48.12319538,5d7957036797da0019537ad1,6560176e4d91f764e2a42c74,657159169e2550a2ba46fdf3,0.034,0.034,0,11,11,64,1,onetwo,,,,,,,,,,,,,,,,,,,,,,,,,,,,,,,,,,,,,,,,,,,,,,,,,,,,,,,,,,,,,,,,,,,,,,,,,,,,,,,,,,,,,,,,,,,,,,,,,,,,,,,,,,,,,,,,,,,,,,,,,,,,,,,,,,,,,,,
,,5d7957036797da0019537ad1,2023-12-06_23h35.05.582,kallum_motion_pilot,2023.2.3,Win32,48.12319538,5d7957036797da0019537ad1,6560176e4d91f764e2a42c74,657159169e2550a2ba46fdf3,0.034,0.034,0,12,12,145,1,fiveseven,,,,,,,,,,,,,,,,,,,,,,,,,,,,,,,,,,,,,,,,,,,,,,,,,,,,,,,,,,,,,,,,,,,,,,,,,,,,,,,,,,,,,,,,,,,,,,,,,,,,,,,,,,,,,,,,,,,,,,,,,,,,,,,,,,,,,,,
,,5d7957036797da0019537ad1,2023-12-06_23h35.05.582,kallum_motion_pilot,2023.2.3,Win32,48.12319538,5d7957036797da0019537ad1,6560176e4d91f764e2a42c74,657159169e2550a2ba46fdf3,0.034,0.034,0,13,13,81,1,fiveseven,,,,,,,,,,,,,,,,,,,,,,,,,,,,,,,,,,,,,,,,,,,,,,,,,,,,,,,,,,,,,,,,,,,,,,,,,,,,,,,,,,,,,,,,,,,,,,,,,,,,,,,,,,,,,,,,,,,,,,,,,,,,,,,,,,,,,,,
,,5d7957036797da0019537ad1,2023-12-06_23h35.05.582,kallum_motion_pilot,2023.2.3,Win32,48.12319538,5d7957036797da0019537ad1,6560176e4d91f764e2a42c74,657159169e2550a2ba46fdf3,0.034,0.034,0,14,14,124,1,sevenfive,,,,,,,,,,,,,,,,,,,,,,,,,,,,,,,,,,,,,,,,,,,,,,,,,,,,,,,,,,,,,,,,,,,,,,,,,,,,,,,,,,,,,,,,,,,,,,,,,,,,,,,,,,,,,,,,,,,,,,,,,,,,,,,,,,,,,,,
,,5d7957036797da0019537ad1,2023-12-06_23h35.05.582,kallum_motion_pilot,2023.2.3,Win32,48.12319538,5d7957036797da0019537ad1,6560176e4d91f764e2a42c74,657159169e2550a2ba46fdf3,0.035,0.035,0,15,15,157,1,seveneight,,,,,,,,,,,,,,,,,,,,,,,,,,,,,,,,,,,,,,,,,,,,,,,,,,,,,,,,,,,,,,,,,,,,,,,,,,,,,,,,,,,,,,,,,,,,,,,,,,,,,,,,,,,,,,,,,,,,,,,,,,,,,,,,,,,,,,,
,,5d7957036797da0019537ad1,2023-12-06_23h35.05.582,kallum_motion_pilot,2023.2.3,Win32,48.12319538,5d7957036797da0019537ad1,6560176e4d91f764e2a42c74,657159169e2550a2ba46fdf3,0.035,0.035,0,16,16,47,1,fourthree,,,,,,,,,,,,,,,,,,,,,,,,,,,,,,,,,,,,,,,,,,,,,,,,,,,,,,,,,,,,,,,,,,,,,,,,,,,,,,,,,,,,,,,,,,,,,,,,,,,,,,,,,,,,,,,,,,,,,,,,,,,,,,,,,,,,,,,
,,5d7957036797da0019537ad1,2023-12-06_23h35.05.582,kallum_motion_pilot,2023.2.3,Win32,48.12319538,5d7957036797da0019537ad1,6560176e4d91f764e2a42c74,657159169e2550a2ba46fdf3,0.035,0.035,0,17,17,147,1,sixeight,,,,,,,,,,,,,,,,,,,,,,,,,,,,,,,,,,,,,,,,,,,,,,,,,,,,,,,,,,,,,,,,,,,,,,,,,,,,,,,,,,,,,,,,,,,,,,,,,,,,,,,,,,,,,,,,,,,,,,,,,,,,,,,,,,,,,,,
,,5d7957036797da0019537ad1,2023-12-06_23h35.05.582,kallum_motion_pilot,2023.2.3,Win32,48.12319538,5d7957036797da0019537ad1,6560176e4d91f764e2a42c74,657159169e2550a2ba46fdf3,0.035,0.035,0,18,18,158,1,eightsix,,,,,,,,,,,,,,,,,,,,,,,,,,,,,,,,,,,,,,,,,,,,,,,,,,,,,,,,,,,,,,,,,,,,,,,,,,,,,,,,,,,,,,,,,,,,,,,,,,,,,,,,,,,,,,,,,,,,,,,,,,,,,,,,,,,,,,,
,,5d7957036797da0019537ad1,2023-12-06_23h35.05.582,kallum_motion_pilot,2023.2.3,Win32,48.12319538,5d7957036797da0019537ad1,6560176e4d91f764e2a42c74,657159169e2550a2ba46fdf3,0.035,0.035,0,19,19,98,1,sixfive,,,,,,,,,,,,,,,,,,,,,,,,,,,,,,,,,,,,,,,,,,,,,,,,,,,,,,,,,,,,,,,,,,,,,,,,,,,,,,,,,,,,,,,,,,,,,,,,,,,,,,,,,,,,,,,,,,,,,,,,,,,,,,,,,,,,,,,
,,5d7957036797da0019537ad1,2023-12-06_23h35.05.582,kallum_motion_pilot,2023.2.3,Win32,48.12319538,5d7957036797da0019537ad1,6560176e4d91f764e2a42c74,657159169e2550a2ba46fdf3,0.035,0.035,0,20,20,50,1,twoone,,,,,,,,,,,,,,,,,,,,,,,,,,,,,,,,,,,,,,,,,,,,,,,,,,,,,,,,,,,,,,,,,,,,,,,,,,,,,,,,,,,,,,,,,,,,,,,,,,,,,,,,,,,,,,,,,,,,,,,,,,,,,,,,,,,,,,,
,,5d7957036797da0019537ad1,2023-12-06_23h35.05.582,kallum_motion_pilot,2023.2.3,Win32,48.12319538,5d7957036797da0019537ad1,6560176e4d91f764e2a42c74,657159169e2550a2ba46fdf3,0.035,0.035,0,21,21,109,1,seveneight,,,,,,,,,,,,,,,,,,,,,,,,,,,,,,,,,,,,,,,,,,,,,,,,,,,,,,,,,,,,,,,,,,,,,,,,,,,,,,,,,,,,,,,,,,,,,,,,,,,,,,,,,,,,,,,,,,,,,,,,,,,,,,,,,,,,,,,
,,5d7957036797da0019537ad1,2023-12-06_23h35.05.582,kallum_motion_pilot,2023.2.3,Win32,48.12319538,5d7957036797da0019537ad1,6560176e4d91f764e2a42c74,657159169e2550a2ba46fdf3,0.035,0.035,0,22,22,140,1,sevenfive,,,,,,,,,,,,,,,,,,,,,,,,,,,,,,,,,,,,,,,,,,,,,,,,,,,,,,,,,,,,,,,,,,,,,,,,,,,,,,,,,,,,,,,,,,,,,,,,,,,,,,,,,,,,,,,,,,,,,,,,,,,,,,,,,,,,,,,
,,5d7957036797da0019537ad1,2023-12-06_23h35.05.582,kallum_motion_pilot,2023.2.3,Win32,48.12319538,5d7957036797da0019537ad1,6560176e4d91f764e2a42c74,657159169e2550a2ba46fdf3,0.035,0.036,0,23,23,56,1,onetwo,,,,,,,,,,,,,,,,,,,,,,,,,,,,,,,,,,,,,,,,,,,,,,,,,,,,,,,,,,,,,,,,,,,,,,,,,,,,,,,,,,,,,,,,,,,,,,,,,,,,,,,,,,,,,,,,,,,,,,,,,,,,,,,,,,,,,,,
,,5d7957036797da0019537ad1,2023-12-06_23h35.05.582,kallum_motion_pilot,2023.2.3,Win32,48.12319538,5d7957036797da0019537ad1,6560176e4d91f764e2a42c74,657159169e2550a2ba46fdf3,0.036,0.036,0,24,24,95,1,eightseven,,,,,,,,,,,,,,,,,,,,,,,,,,,,,,,,,,,,,,,,,,,,,,,,,,,,,,,,,,,,,,,,,,,,,,,,,,,,,,,,,,,,,,,,,,,,,,,,,,,,,,,,,,,,,,,,,,,,,,,,,,,,,,,,,,,,,,,
,,5d7957036797da0019537ad1,2023-12-06_23h35.05.582,kallum_motion_pilot,2023.2.3,Win32,48.12319538,5d7957036797da0019537ad1,6560176e4d91f764e2a42c74,657159169e2550a2ba46fdf3,0.036,0.036,0,25,25,90,1,sixfive,,,,,,,,,,,,,,,,,,,,,,,,,,,,,,,,,,,,,,,,,,,,,,,,,,,,,,,,,,,,,,,,,,,,,,,,,,,,,,,,,,,,,,,,,,,,,,,,,,,,,,,,,,,,,,,,,,,,,,,,,,,,,,,,,,,,,,,
,,5d7957036797da0019537ad1,2023-12-06_23h35.05.582,kallum_motion_pilot,2023.2.3,Win32,48.12319538,5d7957036797da0019537ad1,6560176e4d91f764e2a42c74,657159169e2550a2ba46fdf3,0.036,0.036,0,26,26,27,1,twofour,,,,,,,,,,,,,,,,,,,,,,,,,,,,,,,,,,,,,,,,,,,,,,,,,,,,,,,,,,,,,,,,,,,,,,,,,,,,,,,,,,,,,,,,,,,,,,,,,,,,,,,,,,,,,,,,,,,,,,,,,,,,,,,,,,,,,,,
,,5d7957036797da0019537ad1,2023-12-06_23h35.05.582,kallum_motion_pilot,2023.2.3,Win32,48.12319538,5d7957036797da0019537ad1,6560176e4d91f764e2a42c74,657159169e2550a2ba46fdf3,0.036,0.036,0,27,27,160,1,fivesix,,,,,,,,,,,,,,,,,,,,,,,,,,,,,,,,,,,,,,,,,,,,,,,,,,,,,,,,,,,,,,,,,,,,,,,,,,,,,,,,,,,,,,,,,,,,,,,,,,,,,,,,,,,,,,,,,,,,,,,,,,,,,,,,,,,,,,,
,,5d7957036797da0019537ad1,2023-12-06_23h35.05.582,kallum_motion_pilot,2023.2.3,Win32,48.12319538,5d7957036797da0019537ad1,6560176e4d91f764e2a42c74,657159169e2550a2ba46fdf3,0.036,0.036,0,28,28,0,1,onetwo,,,,,,,,,,,,,,,,,,,,,,,,,,,,,,,,,,,,,,,,,,,,,,,,,,,,,,,,,,,,,,,,,,,,,,,,,,,,,,,,,,,,,,,,,,,,,,,,,,,,,,,,,,,,,,,,,,,,,,,,,,,,,,,,,,,,,,,
,,5d7957036797da0019537ad1,2023-12-06_23h35.05.582,kallum_motion_pilot,2023.2.3,Win32,48.12319538,5d7957036797da0019537ad1,6560176e4d91f764e2a42c74,657159169e2550a2ba46fdf3,0.036,0.036,0,29,29,93,1,seveneight,,,,,,,,,,,,,,,,,,,,,,,,,,,,,,,,,,,,,,,,,,,,,,,,,,,,,,,,,,,,,,,,,,,,,,,,,,,,,,,,,,,,,,,,,,,,,,,,,,,,,,,,,,,,,,,,,,,,,,,,,,,,,,,,,,,,,,,
,,5d7957036797da0019537ad1,2023-12-06_23h35.05.582,kallum_motion_pilot,2023.2.3,Win32,48.12319538,5d7957036797da0019537ad1,6560176e4d91f764e2a42c74,657159169e2550a2ba46fdf3,0.036,0.036,0,30,30,14,1,fourtwo,,,,,,,,,,,,,,,,,,,,,,,,,,,,,,,,,,,,,,,,,,,,,,,,,,,,,,,,,,,,,,,,,,,,,,,,,,,,,,,,,,,,,,,,,,,,,,,,,,,,,,,,,,,,,,,,,,,,,,,,,,,,,,,,,,,,,,,
,,5d7957036797da0019537ad1,2023-12-06_23h35.05.582,kallum_motion_pilot,2023.2.3,Win32,48.12319538,5d7957036797da0019537ad1,6560176e4d91f764e2a42c74,657159169e2550a2ba46fdf3,0.036,0.036,0,31,31,49,1,onethree,,,,,,,,,,,,,,,,,,,,,,,,,,,,,,,,,,,,,,,,,,,,,,,,,,,,,,,,,,,,,,,,,,,,,,,,,,,,,,,,,,,,,,,,,,,,,,,,,,,,,,,,,,,,,,,,,,,,,,,,,,,,,,,,,,,,,,,
,,5d7957036797da0019537ad1,2023-12-06_23h35.05.582,kallum_motion_pilot,2023.2.3,Win32,48.12319538,5d7957036797da0019537ad1,6560176e4d91f764e2a42c74,657159169e2550a2ba46fdf3,0.036,0.036,0,32,32,76,1,threeone,,,,,,,,,,,,,,,,,,,,,,,,,,,,,,,,,,,,,,,,,,,,,,,,,,,,,,,,,,,,,,,,,,,,,,,,,,,,,,,,,,,,,,,,,,,,,,,,,,,,,,,,,,,,,,,,,,,,,,,,,,,,,,,,,,,,,,,
,,5d7957036797da0019537ad1,2023-12-06_23h35.05.582,kallum_motion_pilot,2023.2.3,Win32,48.12319538,5d7957036797da0019537ad1,6560176e4d91f764e2a42c74,657159169e2550a2ba46fdf3,0.036,0.036,0,33,33,66,1,twoone,,,,,,,,,,,,,,,,,,,,,,,,,,,,,,,,,,,,,,,,,,,,,,,,,,,,,,,,,,,,,,,,,,,,,,,,,,,,,,,,,,,,,,,,,,,,,,,,,,,,,,,,,,,,,,,,,,,,,,,,,,,,,,,,,,,,,,,
,,5d7957036797da0019537ad1,2023-12-06_23h35.05.582,kallum_motion_pilot,2023.2.3,Win32,48.12319538,5d7957036797da0019537ad1,6560176e4d91f764e2a42c74,657159169e2550a2ba46fdf3,0.037,0.037,0,34,34,117,1,seveneight,,,,,,,,,,,,,,,,,,,,,,,,,,,,,,,,,,,,,,,,,,,,,,,,,,,,,,,,,,,,,,,,,,,,,,,,,,,,,,,,,,,,,,,,,,,,,,,,,,,,,,,,,,,,,,,,,,,,,,,,,,,,,,,,,,,,,,,
,,5d7957036797da0019537ad1,2023-12-06_23h35.05.582,kallum_motion_pilot,2023.2.3,Win32,48.12319538,5d7957036797da0019537ad1,6560176e4d91f764e2a42c74,657159169e2550a2ba46fdf3,0.037,0.037,0,35,35,78,1,fourtwo,,,,,,,,,,,,,,,,,,,,,,,,,,,,,,,,,,,,,,,,,,,,,,,,,,,,,,,,,,,,,,,,,,,,,,,,,,,,,,,,,,,,,,,,,,,,,,,,,,,,,,,,,,,,,,,,,,,,,,,,,,,,,,,,,,,,,,,
,,5d7957036797da0019537ad1,2023-12-06_23h35.05.582,kallum_motion_pilot,2023.2.3,Win32,48.12319538,5d7957036797da0019537ad1,6560176e4d91f764e2a42c74,657159169e2550a2ba46fdf3,0.037,0.037,0,36,36,118,1,eightsix,,,,,,,,,,,,,,,,,,,,,,,,,,,,,,,,,,,,,,,,,,,,,,,,,,,,,,,,,,,,,,,,,,,,,,,,,,,,,,,,,,,,,,,,,,,,,,,,,,,,,,,,,,,,,,,,,,,,,,,,,,,,,,,,,,,,,,,
,,5d7957036797da0019537ad1,2023-12-06_23h35.05.582,kallum_motion_pilot,2023.2.3,Win32,48.12319538,5d7957036797da0019537ad1,6560176e4d91f764e2a42c74,657159169e2550a2ba46fdf3,0.037,0.037,0,37,37,129,1,fiveseven,,,,,,,,,,,,,,,,,,,,,,,,,,,,,,,,,,,,,,,,,,,,,,,,,,,,,,,,,,,,,,,,,,,,,,,,,,,,,,,,,,,,,,,,,,,,,,,,,,,,,,,,,,,,,,,,,,,,,,,,,,,,,,,,,,,,,,,
,,5d7957036797da0019537ad1,2023-12-06_23h35.05.582,kallum_motion_pilot,2023.2.3,Win32,48.12319538,5d7957036797da0019537ad1,6560176e4d91f764e2a42c74,657159169e2550a2ba46fdf3,0.037,0.037,0,38,38,21,1,threefour,,,,,,,,,,,,,,,,,,,,,,,,,,,,,,,,,,,,,,,,,,,,,,,,,,,,,,,,,,,,,,,,,,,,,,,,,,,,,,,,,,,,,,,,,,,,,,,,,,,,,,,,,,,,,,,,,,,,,,,,,,,,,,,,,,,,,,,
,,5d7957036797da0019537ad1,2023-12-06_23h35.05.582,kallum_motion_pilot,2023.2.3,Win32,48.12319538,5d7957036797da0019537ad1,6560176e4d91f764e2a42c74,657159169e2550a2ba46fdf3,0.037,0.037,0,39,39,10,1,twoone,,,,,,,,,,,,,,,,,,,,,,,,,,,,,,,,,,,,,,,,,,,,,,,,,,,,,,,,,,,,,,,,,,,,,,,,,,,,,,,,,,,,,,,,,,,,,,,,,,,,,,,,,,,,,,,,,,,,,,,,,,,,,,,,,,,,,,,
,,5d7957036797da0019537ad1,2023-12-06_23h35.05.582,kallum_motion_pilot,2023.2.3,Win32,48.12319538,5d7957036797da0019537ad1,6560176e4d91f764e2a42c74,657159169e2550a2ba46fdf3,0.037,0.037,0,40,40,142,1,eightsix,,,,,,,,,,,,,,,,,,,,,,,,,,,,,,,,,,,,,,,,,,,,,,,,,,,,,,,,,,,,,,,,,,,,,,,,,,,,,,,,,,,,,,,,,,,,,,,,,,,,,,,,,,,,,,,,,,,,,,,,,,,,,,,,,,,,,,,
,,5d7957036797da0019537ad1,2023-12-06_23h35.05.582,kallum_motion_pilot,2023.2.3,Win32,48.12319538,5d7957036797da0019537ad1,6560176e4d91f764e2a42c74,657159169e2550a2ba46fdf3,0.037,0.037,0,41,41,83,1,sixeight,,,,,,,,,,,,,,,,,,,,,,,,,,,,,,,,,,,,,,,,,,,,,,,,,,,,,,,,,,,,,,,,,,,,,,,,,,,,,,,,,,,,,,,,,,,,,,,,,,,,,,,,,,,,,,,,,,,,,,,,,,,,,,,,,,,,,,,
,,5d7957036797da0019537ad1,2023-12-06_23h35.05.582,kallum_motion_pilot,2023.2.3,Win32,48.12319538,5d7957036797da0019537ad1,6560176e4d91f764e2a42c74,657159169e2550a2ba46fdf3,0.037,0.037,0,42,42,130,1,sixfive,,,,,,,,,,,,,,,,,,,,,,,,,,,,,,,,,,,,,,,,,,,,,,,,,,,,,,,,,,,,,,,,,,,,,,,,,,,,,,,,,,,,,,,,,,,,,,,,,,,,,,,,,,,,,,,,,,,,,,,,,,,,,,,,,,,,,,,
,,5d7957036797da0019537ad1,2023-12-06_23h35.05.582,kallum_motion_pilot,2023.2.3,Win32,48.12319538,5d7957036797da0019537ad1,6560176e4d91f764e2a42c74,657159169e2550a2ba46fdf3,0.038,0.038,0,43,43,55,1,fourthree,,,,,,,,,,,,,,,,,,,,,,,,,,,,,,,,,,,,,,,,,,,,,,,,,,,,,,,,,,,,,,,,,,,,,,,,,,,,,,,,,,,,,,,,,,,,,,,,,,,,,,,,,,,,,,,,,,,,,,,,,,,,,,,,,,,,,,,
,,5d7957036797da0019537ad1,2023-12-06_23h35.05.582,kallum_motion_pilot,2023.2.3,Win32,48.12319538,5d7957036797da0019537ad1,6560176e4d91f764e2a42c74,657159169e2550a2ba46fdf3,0.038,0.038,0,44,44,87,1,eightseven,,,,,,,,,,,,,,,,,,,,,,,,,,,,,,,,,,,,,,,,,,,,,,,,,,,,,,,,,,,,,,,,,,,,,,,,,,,,,,,,,,,,,,,,,,,,,,,,,,,,,,,,,,,,,,,,,,,,,,,,,,,,,,,,,,,,,,,
,,5d7957036797da0019537ad1,2023-12-06_23h35.05.582,kallum_motion_pilot,2023.2.3,Win32,48.12319538,5d7957036797da0019537ad1,6560176e4d91f764e2a42c74,657159169e2550a2ba46fdf3,0.038,0.038,0,45,45,108,1,sevenfive,,,,,,,,,,,,,,,,,,,,,,,,,,,,,,,,,,,,,,,,,,,,,,,,,,,,,,,,,,,,,,,,,,,,,,,,,,,,,,,,,,,,,,,,,,,,,,,,,,,,,,,,,,,,,,,,,,,,,,,,,,,,,,,,,,,,,,,
,,5d7957036797da0019537ad1,2023-12-06_23h35.05.582,kallum_motion_pilot,2023.2.3,Win32,48.12319538,5d7957036797da0019537ad1,6560176e4d91f764e2a42c74,657159169e2550a2ba46fdf3,0.038,0.038,0,46,46,116,1,sevenfive,,,,,,,,,,,,,,,,,,,,,,,,,,,,,,,,,,,,,,,,,,,,,,,,,,,,,,,,,,,,,,,,,,,,,,,,,,,,,,,,,,,,,,,,,,,,,,,,,,,,,,,,,,,,,,,,,,,,,,,,,,,,,,,,,,,,,,,
,,5d7957036797da0019537ad1,2023-12-06_23h35.05.582,kallum_motion_pilot,2023.2.3,Win32,48.12319538,5d7957036797da0019537ad1,6560176e4d91f764e2a42c74,657159169e2550a2ba46fdf3,0.038,0.038,0,47,47,94,1,eightsix,,,,,,,,,,,,,,,,,,,,,,,,,,,,,,,,,,,,,,,,,,,,,,,,,,,,,,,,,,,,,,,,,,,,,,,,,,,,,,,,,,,,,,,,,,,,,,,,,,,,,,,,,,,,,,,,,,,,,,,,,,,,,,,,,,,,,,,
,,5d7957036797da0019537ad1,2023-12-06_23h35.05.582,kallum_motion_pilot,2023.2.3,Win32,48.12319538,5d7957036797da0019537ad1,6560176e4d91f764e2a42c74,657159169e2550a2ba46fdf3,0.038,0.038,0,48,48,115,1,sixeight,,,,,,,,,,,,,,,,,,,,,,,,,,,,,,,,,,,,,,,,,,,,,,,,,,,,,,,,,,,,,,,,,,,,,,,,,,,,,,,,,,,,,,,,,,,,,,,,,,,,,,,,,,,,,,,,,,,,,,,,,,,,,,,,,,,,,,,
,,5d7957036797da0019537ad1,2023-12-06_23h35.05.582,kallum_motion_pilot,2023.2.3,Win32,48.12319538,5d7957036797da0019537ad1,6560176e4d91f764e2a42c74,657159169e2550a2ba46fdf3,0.038,0.038,0,49,49,44,1,threeone,,,,,,,,,,,,,,,,,,,,,,,,,,,,,,,,,,,,,,,,,,,,,,,,,,,,,,,,,,,,,,,,,,,,,,,,,,,,,,,,,,,,,,,,,,,,,,,,,,,,,,,,,,,,,,,,,,,,,,,,,,,,,,,,,,,,,,,
,,5d7957036797da0019537ad1,2023-12-06_23h35.05.582,kallum_motion_pilot,2023.2.3,Win32,48.12319538,5d7957036797da0019537ad1,6560176e4d91f764e2a42c74,657159169e2550a2ba46fdf3,0.038,0.038,0,50,50,156,1,sevenfive,,,,,,,,,,,,,,,,,,,,,,,,,,,,,,,,,,,,,,,,,,,,,,,,,,,,,,,,,,,,,,,,,,,,,,,,,,,,,,,,,,,,,,,,,,,,,,,,,,,,,,,,,,,,,,,,,,,,,,,,,,,,,,,,,,,,,,,
,,5d7957036797da0019537ad1,2023-12-06_23h35.05.582,kallum_motion_pilot,2023.2.3,Win32,48.12319538,5d7957036797da0019537ad1,6560176e4d91f764e2a42c74,657159169e2550a2ba46fdf3,0.039,0.039,0,51,51,11,1,twofour,,,,,,,,,,,,,,,,,,,,,,,,,,,,,,,,,,,,,,,,,,,,,,,,,,,,,,,,,,,,,,,,,,,,,,,,,,,,,,,,,,,,,,,,,,,,,,,,,,,,,,,,,,,,,,,,,,,,,,,,,,,,,,,,,,,,,,,
,,5d7957036797da0019537ad1,2023-12-06_23h35.05.582,kallum_motion_pilot,2023.2.3,Win32,48.12319538,5d7957036797da0019537ad1,6560176e4d91f764e2a42c74,657159169e2550a2ba46fdf3,0.039,0.039,0,52,52,6,1,fourtwo,,,,,,,,,,,,,,,,,,,,,,,,,,,,,,,,,,,,,,,,,,,,,,,,,,,,,,,,,,,,,,,,,,,,,,,,,,,,,,,,,,,,,,,,,,,,,,,,,,,,,,,,,,,,,,,,,,,,,,,,,,,,,,,,,,,,,,,
,,5d7957036797da0019537ad1,2023-12-06_23h35.05.582,kallum_motion_pilot,2023.2.3,Win32,48.12319538,5d7957036797da0019537ad1,6560176e4d91f764e2a42c74,657159169e2550a2ba46fdf3,0.039,0.039,0,53,53,111,1,eightseven,,,,,,,,,,,,,,,,,,,,,,,,,,,,,,,,,,,,,,,,,,,,,,,,,,,,,,,,,,,,,,,,,,,,,,,,,,,,,,,,,,,,,,,,,,,,,,,,,,,,,,,,,,,,,,,,,,,,,,,,,,,,,,,,,,,,,,,
,,5d7957036797da0019537ad1,2023-12-06_23h35.05.582,kallum_motion_pilot,2023.2.3,Win32,48.12319538,5d7957036797da0019537ad1,6560176e4d91f764e2a42c74,657159169e2550a2ba46fdf3,0.039,0.039,0,54,54,136,1,fivesix,,,,,,,,,,,,,,,,,,,,,,,,,,,,,,,,,,,,,,,,,,,,,,,,,,,,,,,,,,,,,,,,,,,,,,,,,,,,,,,,,,,,,,,,,,,,,,,,,,,,,,,,,,,,,,,,,,,,,,,,,,,,,,,,,,,,,,,
,,5d7957036797da0019537ad1,2023-12-06_23h35.05.582,kallum_motion_pilot,2023.2.3,Win32,48.12319538,5d7957036797da0019537ad1,6560176e4d91f764e2a42c74,657159169e2550a2ba46fdf3,0.039,0.039,0,55,55,5,1,threefour,,,,,,,,,,,,,,,,,,,,,,,,,,,,,,,,,,,,,,,,,,,,,,,,,,,,,,,,,,,,,,,,,,,,,,,,,,,,,,,,,,,,,,,,,,,,,,,,,,,,,,,,,,,,,,,,,,,,,,,,,,,,,,,,,,,,,,,
,,5d7957036797da0019537ad1,2023-12-06_23h35.05.582,kallum_motion_pilot,2023.2.3,Win32,48.12319538,5d7957036797da0019537ad1,6560176e4d91f764e2a42c74,657159169e2550a2ba46fdf3,0.039,0.039,0,56,56,40,1,onetwo,,,,,,,,,,,,,,,,,,,,,,,,,,,,,,,,,,,,,,,,,,,,,,,,,,,,,,,,,,,,,,,,,,,,,,,,,,,,,,,,,,,,,,,,,,,,,,,,,,,,,,,,,,,,,,,,,,,,,,,,,,,,,,,,,,,,,,,
,,5d7957036797da0019537ad1,2023-12-06_23h35.05.582,kallum_motion_pilot,2023.2.3,Win32,48.12319538,5d7957036797da0019537ad1,6560176e4d91f764e2a42c74,657159169e2550a2ba46fdf3,0.039,0.039,0,57,57,99,1,sixeight,,,,,,,,,,,,,,,,,,,,,,,,,,,,,,,,,,,,,,,,,,,,,,,,,,,,,,,,,,,,,,,,,,,,,,,,,,,,,,,,,,,,,,,,,,,,,,,,,,,,,,,,,,,,,,,,,,,,,,,,,,,,,,,,,,,,,,,
,,5d7957036797da0019537ad1,2023-12-06_23h35.05.582,kallum_motion_pilot,2023.2.3,Win32,48.12319538,5d7957036797da0019537ad1,6560176e4d91f764e2a42c74,657159169e2550a2ba46fdf3,0.039,0.039,0,58,58,35,1,twofour,,,,,,,,,,,,,,,,,,,,,,,,,,,,,,,,,,,,,,,,,,,,,,,,,,,,,,,,,,,,,,,,,,,,,,,,,,,,,,,,,,,,,,,,,,,,,,,,,,,,,,,,,,,,,,,,,,,,,,,,,,,,,,,,,,,,,,,
,,5d7957036797da0019537ad1,2023-12-06_23h35.05.582,kallum_motion_pilot,2023.2.3,Win32,48.12319538,5d7957036797da0019537ad1,6560176e4d91f764e2a42c74,657159169e2550a2ba46fdf3,0.04,0.04,0,59,59,16,1,onetwo,,,,,,,,,,,,,,,,,,,,,,,,,,,,,,,,,,,,,,,,,,,,,,,,,,,,,,,,,,,,,,,,,,,,,,,,,,,,,,,,,,,,,,,,,,,,,,,,,,,,,,,,,,,,,,,,,,,,,,,,,,,,,,,,,,,,,,,
,,5d7957036797da0019537ad1,2023-12-06_23h35.05.582,kallum_motion_pilot,2023.2.3,Win32,48.12319538,5d7957036797da0019537ad1,6560176e4d91f764e2a42c74,657159169e2550a2ba46fdf3,0.04,0.04,0,60,60,101,1,seveneight,,,,,,,,,,,,,,,,,,,,,,,,,,,,,,,,,,,,,,,,,,,,,,,,,,,,,,,,,,,,,,,,,,,,,,,,,,,,,,,,,,,,,,,,,,,,,,,,,,,,,,,,,,,,,,,,,,,,,,,,,,,,,,,,,,,,,,,
,,5d7957036797da0019537ad1,2023-12-06_23h35.05.582,kallum_motion_pilot,2023.2.3,Win32,48.12319538,5d7957036797da0019537ad1,6560176e4d91f764e2a42c74,657159169e2550a2ba46fdf3,0.04,0.04,0,61,61,33,1,onethree,,,,,,,,,,,,,,,,,,,,,,,,,,,,,,,,,,,,,,,,,,,,,,,,,,,,,,,,,,,,,,,,,,,,,,,,,,,,,,,,,,,,,,,,,,,,,,,,,,,,,,,,,,,,,,,,,,,,,,,,,,,,,,,,,,,,,,,
,,5d7957036797da0019537ad1,2023-12-06_23h35.05.582,kallum_motion_pilot,2023.2.3,Win32,48.12319538,5d7957036797da0019537ad1,6560176e4d91f764e2a42c74,657159169e2550a2ba46fdf3,0.04,0.04,0,62,62,2,1,twoone,,,,,,,,,,,,,,,,,,,,,,,,,,,,,,,,,,,,,,,,,,,,,,,,,,,,,,,,,,,,,,,,,,,,,,,,,,,,,,,,,,,,,,,,,,,,,,,,,,,,,,,,,,,,,,,,,,,,,,,,,,,,,,,,,,,,,,,
,,5d7957036797da0019537ad1,2023-12-06_23h35.05.582,kallum_motion_pilot,2023.2.3,Win32,48.12319538,5d7957036797da0019537ad1,6560176e4d91f764e2a42c74,657159169e2550a2ba46fdf3,0.04,0.04,0,63,63,86,1,eightsix,,,,,,,,,,,,,,,,,,,,,,,,,,,,,,,,,,,,,,,,,,,,,,,,,,,,,,,,,,,,,,,,,,,,,,,,,,,,,,,,,,,,,,,,,,,,,,,,,,,,,,,,,,,,,,,,,,,,,,,,,,,,,,,,,,,,,,,
,,5d7957036797da0019537ad1,2023-12-06_23h35.05.582,kallum_motion_pilot,2023.2.3,Win32,48.12319538,5d7957036797da0019537ad1,6560176e4d91f764e2a42c74,657159169e2550a2ba46fdf3,0.04,0.04,0,64,64,77,1,threefour,,,,,,,,,,,,,,,,,,,,,,,,,,,,,,,,,,,,,,,,,,,,,,,,,,,,,,,,,,,,,,,,,,,,,,,,,,,,,,,,,,,,,,,,,,,,,,,,,,,,,,,,,,,,,,,,,,,,,,,,,,,,,,,,,,,,,,,
,,5d7957036797da0019537ad1,2023-12-06_23h35.05.582,kallum_motion_pilot,2023.2.3,Win32,48.12319538,5d7957036797da0019537ad1,6560176e4d91f764e2a42c74,657159169e2550a2ba46fdf3,0.04,0.04,0,65,65,96,1,fivesix,,,,,,,,,,,,,,,,,,,,,,,,,,,,,,,,,,,,,,,,,,,,,,,,,,,,,,,,,,,,,,,,,,,,,,,,,,,,,,,,,,,,,,,,,,,,,,,,,,,,,,,,,,,,,,,,,,,,,,,,,,,,,,,,,,,,,,,
,,5d7957036797da0019537ad1,2023-12-06_23h35.05.582,kallum_motion_pilot,2023.2.3,Win32,48.12319538,5d7957036797da0019537ad1,6560176e4d91f764e2a42c74,657159169e2550a2ba46fdf3,0.04,0.04,0,66,66,82,1,sixfive,,,,,,,,,,,,,,,,,,,,,,,,,,,,,,,,,,,,,,,,,,,,,,,,,,,,,,,,,,,,,,,,,,,,,,,,,,,,,,,,,,,,,,,,,,,,,,,,,,,,,,,,,,,,,,,,,,,,,,,,,,,,,,,,,,,,,,,
,,5d7957036797da0019537ad1,2023-12-06_23h35.05.582,kallum_motion_pilot,2023.2.3,Win32,48.12319538,5d7957036797da0019537ad1,6560176e4d91f764e2a42c74,657159169e2550a2ba46fdf3,0.04,0.04,0,67,67,1,1,onethree,,,,,,,,,,,,,,,,,,,,,,,,,,,,,,,,,,,,,,,,,,,,,,,,,,,,,,,,,,,,,,,,,,,,,,,,,,,,,,,,,,,,,,,,,,,,,,,,,,,,,,,,,,,,,,,,,,,,,,,,,,,,,,,,,,,,,,,
,,5d7957036797da0019537ad1,2023-12-06_23h35.05.582,kallum_motion_pilot,2023.2.3,Win32,48.12319538,5d7957036797da0019537ad1,6560176e4d91f764e2a42c74,657159169e2550a2ba46fdf3,0.04,0.04,0,68,68,154,1,sixfive,,,,,,,,,,,,,,,,,,,,,,,,,,,,,,,,,,,,,,,,,,,,,,,,,,,,,,,,,,,,,,,,,,,,,,,,,,,,,,,,,,,,,,,,,,,,,,,,,,,,,,,,,,,,,,,,,,,,,,,,,,,,,,,,,,,,,,,
,,5d7957036797da0019537ad1,2023-12-06_23h35.05.582,kallum_motion_pilot,2023.2.3,Win32,48.12319538,5d7957036797da0019537ad1,6560176e4d91f764e2a42c74,657159169e2550a2ba46fdf3,0.04,0.04,0,69,69,107,1,sixeight,,,,,,,,,,,,,,,,,,,,,,,,,,,,,,,,,,,,,,,,,,,,,,,,,,,,,,,,,,,,,,,,,,,,,,,,,,,,,,,,,,,,,,,,,,,,,,,,,,,,,,,,,,,,,,,,,,,,,,,,,,,,,,,,,,,,,,,
,,5d7957036797da0019537ad1,2023-12-06_23h35.05.582,kallum_motion_pilot,2023.2.3,Win32,48.12319538,5d7957036797da0019537ad1,6560176e4d91f764e2a42c74,657159169e2550a2ba46fdf3,0.04,0.04,0,70,70,131,1,sixeight,,,,,,,,,,,,,,,,,,,,,,,,,,,,,,,,,,,,,,,,,,,,,,,,,,,,,,,,,,,,,,,,,,,,,,,,,,,,,,,,,,,,,,,,,,,,,,,,,,,,,,,,,,,,,,,,,,,,,,,,,,,,,,,,,,,,,,,
,,5d7957036797da0019537ad1,2023-12-06_23h35.05.582,kallum_motion_pilot,2023.2.3,Win32,48.12319538,5d7957036797da0019537ad1,6560176e4d91f764e2a42c74,657159169e2550a2ba46fdf3,0.041,0.041,0,71,71,43,1,twofour,,,,,,,,,,,,,,,,,,,,,,,,,,,,,,,,,,,,,,,,,,,,,,,,,,,,,,,,,,,,,,,,,,,,,,,,,,,,,,,,,,,,,,,,,,,,,,,,,,,,,,,,,,,,,,,,,,,,,,,,,,,,,,,,,,,,,,,
,,5d7957036797da0019537ad1,2023-12-06_23h35.05.582,kallum_motion_pilot,2023.2.3,Win32,48.12319538,5d7957036797da0019537ad1,6560176e4d91f764e2a42c74,657159169e2550a2ba46fdf3,0.041,0.041,0,72,72,103,1,eightseven,,,,,,,,,,,,,,,,,,,,,,,,,,,,,,,,,,,,,,,,,,,,,,,,,,,,,,,,,,,,,,,,,,,,,,,,,,,,,,,,,,,,,,,,,,,,,,,,,,,,,,,,,,,,,,,,,,,,,,,,,,,,,,,,,,,,,,,
,,5d7957036797da0019537ad1,2023-12-06_23h35.05.582,kallum_motion_pilot,2023.2.3,Win32,48.12319538,5d7957036797da0019537ad1,6560176e4d91f764e2a42c74,657159169e2550a2ba46fdf3,0.042,0.042,0,73,73,88,1,fivesix,,,,,,,,,,,,,,,,,,,,,,,,,,,,,,,,,,,,,,,,,,,,,,,,,,,,,,,,,,,,,,,,,,,,,,,,,,,,,,,,,,,,,,,,,,,,,,,,,,,,,,,,,,,,,,,,,,,,,,,,,,,,,,,,,,,,,,,
,,5d7957036797da0019537ad1,2023-12-06_23h35.05.582,kallum_motion_pilot,2023.2.3,Win32,48.12319538,5d7957036797da0019537ad1,6560176e4d91f764e2a42c74,657159169e2550a2ba46fdf3,0.042,0.042,0,74,74,53,1,threefour,,,,,,,,,,,,,,,,,,,,,,,,,,,,,,,,,,,,,,,,,,,,,,,,,,,,,,,,,,,,,,,,,,,,,,,,,,,,,,,,,,,,,,,,,,,,,,,,,,,,,,,,,,,,,,,,,,,,,,,,,,,,,,,,,,,,,,,
,,5d7957036797da0019537ad1,2023-12-06_23h35.05.582,kallum_motion_pilot,2023.2.3,Win32,48.12319538,5d7957036797da0019537ad1,6560176e4d91f764e2a42c74,657159169e2550a2ba46fdf3,0.042,0.042,0,75,75,37,1,threefour,,,,,,,,,,,,,,,,,,,,,,,,,,,,,,,,,,,,,,,,,,,,,,,,,,,,,,,,,,,,,,,,,,,,,,,,,,,,,,,,,,,,,,,,,,,,,,,,,,,,,,,,,,,,,,,,,,,,,,,,,,,,,,,,,,,,,,,
,,5d7957036797da0019537ad1,2023-12-06_23h35.05.582,kallum_motion_pilot,2023.2.3,Win32,48.12319538,5d7957036797da0019537ad1,6560176e4d91f764e2a42c74,657159169e2550a2ba46fdf3,0.042,0.042,0,76,76,127,1,eightseven,,,,,,,,,,,,,,,,,,,,,,,,,,,,,,,,,,,,,,,,,,,,,,,,,,,,,,,,,,,,,,,,,,,,,,,,,,,,,,,,,,,,,,,,,,,,,,,,,,,,,,,,,,,,,,,,,,,,,,,,,,,,,,,,,,,,,,,
,,5d7957036797da0019537ad1,2023-12-06_23h35.05.582,kallum_motion_pilot,2023.2.3,Win32,48.12319538,5d7957036797da0019537ad1,6560176e4d91f764e2a42c74,657159169e2550a2ba46fdf3,0.042,0.042,0,77,77,105,1,fiveseven,,,,,,,,,,,,,,,,,,,,,,,,,,,,,,,,,,,,,,,,,,,,,,,,,,,,,,,,,,,,,,,,,,,,,,,,,,,,,,,,,,,,,,,,,,,,,,,,,,,,,,,,,,,,,,,,,,,,,,,,,,,,,,,,,,,,,,,
,,5d7957036797da0019537ad1,2023-12-06_23h35.05.582,kallum_motion_pilot,2023.2.3,Win32,48.12319538,5d7957036797da0019537ad1,6560176e4d91f764e2a42c74,657159169e2550a2ba46fdf3,0.042,0.042,0,78,78,63,1,fourthree,,,,,,,,,,,,,,,,,,,,,,,,,,,,,,,,,,,,,,,,,,,,,,,,,,,,,,,,,,,,,,,,,,,,,,,,,,,,,,,,,,,,,,,,,,,,,,,,,,,,,,,,,,,,,,,,,,,,,,,,,,,,,,,,,,,,,,,
,,5d7957036797da0019537ad1,2023-12-06_23h35.05.582,kallum_motion_pilot,2023.2.3,Win32,48.12319538,5d7957036797da0019537ad1,6560176e4d91f764e2a42c74,657159169e2550a2ba46fdf3,0.042,0.042,0,79,79,137,1,fiveseven,,,,,,,,,,,,,,,,,,,,,,,,,,,,,,,,,,,,,,,,,,,,,,,,,,,,,,,,,,,,,,,,,,,,,,,,,,,,,,,,,,,,,,,,,,,,,,,,,,,,,,,,,,,,,,,,,,,,,,,,,,,,,,,,,,,,,,,
,,5d7957036797da0019537ad1,2023-12-06_23h35.05.582,kallum_motion_pilot,2023.2.3,Win32,48.12319538,5d7957036797da0019537ad1,6560176e4d91f764e2a42c74,657159169e2550a2ba46fdf3,0.043,0.043,0,80,80,59,1,twofour,,,,,,,,,,,,,,,,,,,,,,,,,,,,,,,,,,,,,,,,,,,,,,,,,,,,,,,,,,,,,,,,,,,,,,,,,,,,,,,,,,,,,,,,,,,,,,,,,,,,,,,,,,,,,,,,,,,,,,,,,,,,,,,,,,,,,,,
,,5d7957036797da0019537ad1,2023-12-06_23h35.05.582,kallum_motion_pilot,2023.2.3,Win32,48.12319538,5d7957036797da0019537ad1,6560176e4d91f764e2a42c74,657159169e2550a2ba46fdf3,0.043,0.043,0,81,81,151,1,eightseven,,,,,,,,,,,,,,,,,,,,,,,,,,,,,,,,,,,,,,,,,,,,,,,,,,,,,,,,,,,,,,,,,,,,,,,,,,,,,,,,,,,,,,,,,,,,,,,,,,,,,,,,,,,,,,,,,,,,,,,,,,,,,,,,,,,,,,,
,,5d7957036797da0019537ad1,2023-12-06_23h35.05.582,kallum_motion_pilot,2023.2.3,Win32,48.12319538,5d7957036797da0019537ad1,6560176e4d91f764e2a42c74,657159169e2550a2ba46fdf3,0.043,0.043,0,82,82,30,1,fourtwo,,,,,,,,,,,,,,,,,,,,,,,,,,,,,,,,,,,,,,,,,,,,,,,,,,,,,,,,,,,,,,,,,,,,,,,,,,,,,,,,,,,,,,,,,,,,,,,,,,,,,,,,,,,,,,,,,,,,,,,,,,,,,,,,,,,,,,,
,,5d7957036797da0019537ad1,2023-12-06_23h35.05.582,kallum_motion_pilot,2023.2.3,Win32,48.12319538,5d7957036797da0019537ad1,6560176e4d91f764e2a42c74,657159169e2550a2ba46fdf3,0.043,0.043,0,83,83,29,1,threefour,,,,,,,,,,,,,,,,,,,,,,,,,,,,,,,,,,,,,,,,,,,,,,,,,,,,,,,,,,,,,,,,,,,,,,,,,,,,,,,,,,,,,,,,,,,,,,,,,,,,,,,,,,,,,,,,,,,,,,,,,,,,,,,,,,,,,,,
,,5d7957036797da0019537ad1,2023-12-06_23h35.05.582,kallum_motion_pilot,2023.2.3,Win32,48.12319538,5d7957036797da0019537ad1,6560176e4d91f764e2a42c74,657159169e2550a2ba46fdf3,0.043,0.043,0,84,84,48,1,onetwo,,,,,,,,,,,,,,,,,,,,,,,,,,,,,,,,,,,,,,,,,,,,,,,,,,,,,,,,,,,,,,,,,,,,,,,,,,,,,,,,,,,,,,,,,,,,,,,,,,,,,,,,,,,,,,,,,,,,,,,,,,,,,,,,,,,,,,,
,,5d7957036797da0019537ad1,2023-12-06_23h35.05.582,kallum_motion_pilot,2023.2.3,Win32,48.12319538,5d7957036797da0019537ad1,6560176e4d91f764e2a42c74,657159169e2550a2ba46fdf3,0.044,0.044,0,85,85,18,1,twoone,,,,,,,,,,,,,,,,,,,,,,,,,,,,,,,,,,,,,,,,,,,,,,,,,,,,,,,,,,,,,,,,,,,,,,,,,,,,,,,,,,,,,,,,,,,,,,,,,,,,,,,,,,,,,,,,,,,,,,,,,,,,,,,,,,,,,,,
,,5d7957036797da0019537ad1,2023-12-06_23h35.05.582,kallum_motion_pilot,2023.2.3,Win32,48.12319538,5d7957036797da0019537ad1,6560176e4d91f764e2a42c74,657159169e2550a2ba46fdf3,0.044,0.044,0,86,86,4,1,threeone,,,,,,,,,,,,,,,,,,,,,,,,,,,,,,,,,,,,,,,,,,,,,,,,,,,,,,,,,,,,,,,,,,,,,,,,,,,,,,,,,,,,,,,,,,,,,,,,,,,,,,,,,,,,,,,,,,,,,,,,,,,,,,,,,,,,,,,
,,5d7957036797da0019537ad1,2023-12-06_23h35.05.582,kallum_motion_pilot,2023.2.3,Win32,48.12319538,5d7957036797da0019537ad1,6560176e4d91f764e2a42c74,657159169e2550a2ba46fdf3,0.044,0.044,0,87,87,148,1,sevenfive,,,,,,,,,,,,,,,,,,,,,,,,,,,,,,,,,,,,,,,,,,,,,,,,,,,,,,,,,,,,,,,,,,,,,,,,,,,,,,,,,,,,,,,,,,,,,,,,,,,,,,,,,,,,,,,,,,,,,,,,,,,,,,,,,,,,,,,
,,5d7957036797da0019537ad1,2023-12-06_23h35.05.582,kallum_motion_pilot,2023.2.3,Win32,48.12319538,5d7957036797da0019537ad1,6560176e4d91f764e2a42c74,657159169e2550a2ba46fdf3,0.044,0.044,0,88,88,26,1,twoone,,,,,,,,,,,,,,,,,,,,,,,,,,,,,,,,,,,,,,,,,,,,,,,,,,,,,,,,,,,,,,,,,,,,,,,,,,,,,,,,,,,,,,,,,,,,,,,,,,,,,,,,,,,,,,,,,,,,,,,,,,,,,,,,,,,,,,,
,,5d7957036797da0019537ad1,2023-12-06_23h35.05.582,kallum_motion_pilot,2023.2.3,Win32,48.12319538,5d7957036797da0019537ad1,6560176e4d91f764e2a42c74,657159169e2550a2ba46fdf3,0.044,0.044,0,89,89,91,1,sixeight,,,,,,,,,,,,,,,,,,,,,,,,,,,,,,,,,,,,,,,,,,,,,,,,,,,,,,,,,,,,,,,,,,,,,,,,,,,,,,,,,,,,,,,,,,,,,,,,,,,,,,,,,,,,,,,,,,,,,,,,,,,,,,,,,,,,,,,
,,5d7957036797da0019537ad1,2023-12-06_23h35.05.582,kallum_motion_pilot,2023.2.3,Win32,48.12319538,5d7957036797da0019537ad1,6560176e4d91f764e2a42c74,657159169e2550a2ba46fdf3,0.044,0.044,0,90,90,70,1,fourtwo,,,,,,,,,,,,,,,,,,,,,,,,,,,,,,,,,,,,,,,,,,,,,,,,,,,,,,,,,,,,,,,,,,,,,,,,,,,,,,,,,,,,,,,,,,,,,,,,,,,,,,,,,,,,,,,,,,,,,,,,,,,,,,,,,,,,,,,
,,5d7957036797da0019537ad1,2023-12-06_23h35.05.582,kallum_motion_pilot,2023.2.3,Win32,48.12319538,5d7957036797da0019537ad1,6560176e4d91f764e2a42c74,657159169e2550a2ba46fdf3,0.044,0.044,0,91,91,112,1,fivesix,,,,,,,,,,,,,,,,,,,,,,,,,,,,,,,,,,,,,,,,,,,,,,,,,,,,,,,,,,,,,,,,,,,,,,,,,,,,,,,,,,,,,,,,,,,,,,,,,,,,,,,,,,,,,,,,,,,,,,,,,,,,,,,,,,,,,,,
,,5d7957036797da0019537ad1,2023-12-06_23h35.05.582,kallum_motion_pilot,2023.2.3,Win32,48.12319538,5d7957036797da0019537ad1,6560176e4d91f764e2a42c74,657159169e2550a2ba46fdf3,0.044,0.044,0,92,92,79,1,eightseven,,,,,,,,,,,,,,,,,,,,,,,,,,,,,,,,,,,,,,,,,,,,,,,,,,,,,,,,,,,,,,,,,,,,,,,,,,,,,,,,,,,,,,,,,,,,,,,,,,,,,,,,,,,,,,,,,,,,,,,,,,,,,,,,,,,,,,,
,,5d7957036797da0019537ad1,2023-12-06_23h35.05.582,kallum_motion_pilot,2023.2.3,Win32,48.12319538,5d7957036797da0019537ad1,6560176e4d91f764e2a42c74,657159169e2550a2ba46fdf3,0.044,0.044,0,93,93,20,1,threeone,,,,,,,,,,,,,,,,,,,,,,,,,,,,,,,,,,,,,,,,,,,,,,,,,,,,,,,,,,,,,,,,,,,,,,,,,,,,,,,,,,,,,,,,,,,,,,,,,,,,,,,,,,,,,,,,,,,,,,,,,,,,,,,,,,,,,,,
,,5d7957036797da0019537ad1,2023-12-06_23h35.05.582,kallum_motion_pilot,2023.2.3,Win32,48.12319538,5d7957036797da0019537ad1,6560176e4d91f764e2a42c74,657159169e2550a2ba46fdf3,0.044,0.044,0,94,94,144,1,fivesix,,,,,,,,,,,,,,,,,,,,,,,,,,,,,,,,,,,,,,,,,,,,,,,,,,,,,,,,,,,,,,,,,,,,,,,,,,,,,,,,,,,,,,,,,,,,,,,,,,,,,,,,,,,,,,,,,,,,,,,,,,,,,,,,,,,,,,,
,,5d7957036797da0019537ad1,2023-12-06_23h35.05.582,kallum_motion_pilot,2023.2.3,Win32,48.12319538,5d7957036797da0019537ad1,6560176e4d91f764e2a42c74,657159169e2550a2ba46fdf3,0.044,0.044,0,95,95,62,1,fourtwo,,,,,,,,,,,,,,,,,,,,,,,,,,,,,,,,,,,,,,,,,,,,,,,,,,,,,,,,,,,,,,,,,,,,,,,,,,,,,,,,,,,,,,,,,,,,,,,,,,,,,,,,,,,,,,,,,,,,,,,,,,,,,,,,,,,,,,,
,,5d7957036797da0019537ad1,2023-12-06_23h35.05.582,kallum_motion_pilot,2023.2.3,Win32,48.12319538,5d7957036797da0019537ad1,6560176e4d91f764e2a42c74,657159169e2550a2ba46fdf3,0.044,0.044,0,96,96,69,1,threefour,,,,,,,,,,,,,,,,,,,,,,,,,,,,,,,,,,,,,,,,,,,,,,,,,,,,,,,,,,,,,,,,,,,,,,,,,,,,,,,,,,,,,,,,,,,,,,,,,,,,,,,,,,,,,,,,,,,,,,,,,,,,,,,,,,,,,,,
,,5d7957036797da0019537ad1,2023-12-06_23h35.05.582,kallum_motion_pilot,2023.2.3,Win32,48.12319538,5d7957036797da0019537ad1,6560176e4d91f764e2a42c74,657159169e2550a2ba46fdf3,0.044,0.044,0,97,97,125,1,seveneight,,,,,,,,,,,,,,,,,,,,,,,,,,,,,,,,,,,,,,,,,,,,,,,,,,,,,,,,,,,,,,,,,,,,,,,,,,,,,,,,,,,,,,,,,,,,,,,,,,,,,,,,,,,,,,,,,,,,,,,,,,,,,,,,,,,,,,,
,,5d7957036797da0019537ad1,2023-12-06_23h35.05.582,kallum_motion_pilot,2023.2.3,Win32,48.12319538,5d7957036797da0019537ad1,6560176e4d91f764e2a42c74,657159169e2550a2ba46fdf3,0.044,0.044,0,98,98,155,1,sixeight,,,,,,,,,,,,,,,,,,,,,,,,,,,,,,,,,,,,,,,,,,,,,,,,,,,,,,,,,,,,,,,,,,,,,,,,,,,,,,,,,,,,,,,,,,,,,,,,,,,,,,,,,,,,,,,,,,,,,,,,,,,,,,,,,,,,,,,
,,5d7957036797da0019537ad1,2023-12-06_23h35.05.582,kallum_motion_pilot,2023.2.3,Win32,48.12319538,5d7957036797da0019537ad1,6560176e4d91f764e2a42c74,657159169e2550a2ba46fdf3,0.045,0.045,0,99,99,161,1,fiveseven,,,,,,,,,,,,,,,,,,,,,,,,,,,,,,,,,,,,,,,,,,,,,,,,,,,,,,,,,,,,,,,,,,,,,,,,,,,,,,,,,,,,,,,,,,,,,,,,,,,,,,,,,,,,,,,,,,,,,,,,,,,,,,,,,,,,,,,
,,5d7957036797da0019537ad1,2023-12-06_23h35.05.582,kallum_motion_pilot,2023.2.3,Win32,48.12319538,5d7957036797da0019537ad1,6560176e4d91f764e2a42c74,657159169e2550a2ba46fdf3,0.045,0.045,0,100,100,97,1,fiveseven,,,,,,,,,,,,,,,,,,,,,,,,,,,,,,,,,,,,,,,,,,,,,,,,,,,,,,,,,,,,,,,,,,,,,,,,,,,,,,,,,,,,,,,,,,,,,,,,,,,,,,,,,,,,,,,,,,,,,,,,,,,,,,,,,,,,,,,
,,5d7957036797da0019537ad1,2023-12-06_23h35.05.582,kallum_motion_pilot,2023.2.3,Win32,48.12319538,5d7957036797da0019537ad1,6560176e4d91f764e2a42c74,657159169e2550a2ba46fdf3,0.045,0.045,0,101,101,85,1,seveneight,,,,,,,,,,,,,,,,,,,,,,,,,,,,,,,,,,,,,,,,,,,,,,,,,,,,,,,,,,,,,,,,,,,,,,,,,,,,,,,,,,,,,,,,,,,,,,,,,,,,,,,,,,,,,,,,,,,,,,,,,,,,,,,,,,,,,,,
,,5d7957036797da0019537ad1,2023-12-06_23h35.05.582,kallum_motion_pilot,2023.2.3,Win32,48.12319538,5d7957036797da0019537ad1,6560176e4d91f764e2a42c74,657159169e2550a2ba46fdf3,0.045,0.045,0,102,102,106,1,sixfive,,,,,,,,,,,,,,,,,,,,,,,,,,,,,,,,,,,,,,,,,,,,,,,,,,,,,,,,,,,,,,,,,,,,,,,,,,,,,,,,,,,,,,,,,,,,,,,,,,,,,,,,,,,,,,,,,,,,,,,,,,,,,,,,,,,,,,,
,,5d7957036797da0019537ad1,2023-12-06_23h35.05.582,kallum_motion_pilot,2023.2.3,Win32,48.12319538,5d7957036797da0019537ad1,6560176e4d91f764e2a42c74,657159169e2550a2ba46fdf3,0.045,0.045,0,103,103,133,1,seveneight,,,,,,,,,,,,,,,,,,,,,,,,,,,,,,,,,,,,,,,,,,,,,,,,,,,,,,,,,,,,,,,,,,,,,,,,,,,,,,,,,,,,,,,,,,,,,,,,,,,,,,,,,,,,,,,,,,,,,,,,,,,,,,,,,,,,,,,
,,5d7957036797da0019537ad1,2023-12-06_23h35.05.582,kallum_motion_pilot,2023.2.3,Win32,48.12319538,5d7957036797da0019537ad1,6560176e4d91f764e2a42c74,657159169e2550a2ba46fdf3,0.045,0.046,0,104,104,28,1,threeone,,,,,,,,,,,,,,,,,,,,,,,,,,,,,,,,,,,,,,,,,,,,,,,,,,,,,,,,,,,,,,,,,,,,,,,,,,,,,,,,,,,,,,,,,,,,,,,,,,,,,,,,,,,,,,,,,,,,,,,,,,,,,,,,,,,,,,,
,,5d7957036797da0019537ad1,2023-12-06_23h35.05.582,kallum_motion_pilot,2023.2.3,Win32,48.12319538,5d7957036797da0019537ad1,6560176e4d91f764e2a42c74,657159169e2550a2ba46fdf3,0.046,0.046,0,105,105,52,1,threeone,,,,,,,,,,,,,,,,,,,,,,,,,,,,,,,,,,,,,,,,,,,,,,,,,,,,,,,,,,,,,,,,,,,,,,,,,,,,,,,,,,,,,,,,,,,,,,,,,,,,,,,,,,,,,,,,,,,,,,,,,,,,,,,,,,,,,,,
,,5d7957036797da0019537ad1,2023-12-06_23h35.05.582,kallum_motion_pilot,2023.2.3,Win32,48.12319538,5d7957036797da0019537ad1,6560176e4d91f764e2a42c74,657159169e2550a2ba46fdf3,0.046,0.046,0,106,106,51,1,twofour,,,,,,,,,,,,,,,,,,,,,,,,,,,,,,,,,,,,,,,,,,,,,,,,,,,,,,,,,,,,,,,,,,,,,,,,,,,,,,,,,,,,,,,,,,,,,,,,,,,,,,,,,,,,,,,,,,,,,,,,,,,,,,,,,,,,,,,
,,5d7957036797da0019537ad1,2023-12-06_23h35.05.582,kallum_motion_pilot,2023.2.3,Win32,48.12319538,5d7957036797da0019537ad1,6560176e4d91f764e2a42c74,657159169e2550a2ba46fdf3,0.046,0.046,0,107,107,9,1,onethree,,,,,,,,,,,,,,,,,,,,,,,,,,,,,,,,,,,,,,,,,,,,,,,,,,,,,,,,,,,,,,,,,,,,,,,,,,,,,,,,,,,,,,,,,,,,,,,,,,,,,,,,,,,,,,,,,,,,,,,,,,,,,,,,,,,,,,,
,,5d7957036797da0019537ad1,2023-12-06_23h35.05.582,kallum_motion_pilot,2023.2.3,Win32,48.12319538,5d7957036797da0019537ad1,6560176e4d91f764e2a42c74,657159169e2550a2ba46fdf3,0.046,0.046,0,108,108,15,1,fourthree,,,,,,,,,,,,,,,,,,,,,,,,,,,,,,,,,,,,,,,,,,,,,,,,,,,,,,,,,,,,,,,,,,,,,,,,,,,,,,,,,,,,,,,,,,,,,,,,,,,,,,,,,,,,,,,,,,,,,,,,,,,,,,,,,,,,,,,
,,5d7957036797da0019537ad1,2023-12-06_23h35.05.582,kallum_motion_pilot,2023.2.3,Win32,48.12319538,5d7957036797da0019537ad1,6560176e4d91f764e2a42c74,657159169e2550a2ba46fdf3,0.047,0.047,0,109,109,92,1,sevenfive,,,,,,,,,,,,,,,,,,,,,,,,,,,,,,,,,,,,,,,,,,,,,,,,,,,,,,,,,,,,,,,,,,,,,,,,,,,,,,,,,,,,,,,,,,,,,,,,,,,,,,,,,,,,,,,,,,,,,,,,,,,,,,,,,,,,,,,
,,5d7957036797da0019537ad1,2023-12-06_23h35.05.582,kallum_motion_pilot,2023.2.3,Win32,48.12319538,5d7957036797da0019537ad1,6560176e4d91f764e2a42c74,657159169e2550a2ba46fdf3,0.047,0.047,0,110,110,122,1,sixfive,,,,,,,,,,,,,,,,,,,,,,,,,,,,,,,,,,,,,,,,,,,,,,,,,,,,,,,,,,,,,,,,,,,,,,,,,,,,,,,,,,,,,,,,,,,,,,,,,,,,,,,,,,,,,,,,,,,,,,,,,,,,,,,,,,,,,,,
,,5d7957036797da0019537ad1,2023-12-06_23h35.05.582,kallum_motion_pilot,2023.2.3,Win32,48.12319538,5d7957036797da0019537ad1,6560176e4d91f764e2a42c74,657159169e2550a2ba46fdf3,0.047,0.047,0,111,111,121,1,fiveseven,,,,,,,,,,,,,,,,,,,,,,,,,,,,,,,,,,,,,,,,,,,,,,,,,,,,,,,,,,,,,,,,,,,,,,,,,,,,,,,,,,,,,,,,,,,,,,,,,,,,,,,,,,,,,,,,,,,,,,,,,,,,,,,,,,,,,,,
,,5d7957036797da0019537ad1,2023-12-06_23h35.05.582,kallum_motion_pilot,2023.2.3,Win32,48.12319538,5d7957036797da0019537ad1,6560176e4d91f764e2a42c74,657159169e2550a2ba46fdf3,0.047,0.047,0,112,112,12,1,threeone,,,,,,,,,,,,,,,,,,,,,,,,,,,,,,,,,,,,,,,,,,,,,,,,,,,,,,,,,,,,,,,,,,,,,,,,,,,,,,,,,,,,,,,,,,,,,,,,,,,,,,,,,,,,,,,,,,,,,,,,,,,,,,,,,,,,,,,
,,5d7957036797da0019537ad1,2023-12-06_23h35.05.582,kallum_motion_pilot,2023.2.3,Win32,48.12319538,5d7957036797da0019537ad1,6560176e4d91f764e2a42c74,657159169e2550a2ba46fdf3,0.047,0.047,0,113,113,146,1,sixfive,,,,,,,,,,,,,,,,,,,,,,,,,,,,,,,,,,,,,,,,,,,,,,,,,,,,,,,,,,,,,,,,,,,,,,,,,,,,,,,,,,,,,,,,,,,,,,,,,,,,,,,,,,,,,,,,,,,,,,,,,,,,,,,,,,,,,,,
,,5d7957036797da0019537ad1,2023-12-06_23h35.05.582,kallum_motion_pilot,2023.2.3,Win32,48.12319538,5d7957036797da0019537ad1,6560176e4d91f764e2a42c74,657159169e2550a2ba46fdf3,0.047,0.047,0,114,114,89,1,fiveseven,,,,,,,,,,,,,,,,,,,,,,,,,,,,,,,,,,,,,,,,,,,,,,,,,,,,,,,,,,,,,,,,,,,,,,,,,,,,,,,,,,,,,,,,,,,,,,,,,,,,,,,,,,,,,,,,,,,,,,,,,,,,,,,,,,,,,,,
,,5d7957036797da0019537ad1,2023-12-06_23h35.05.582,kallum_motion_pilot,2023.2.3,Win32,48.12319538,5d7957036797da0019537ad1,6560176e4d91f764e2a42c74,657159169e2550a2ba46fdf3,0.047,0.047,0,115,115,110,1,eightsix,,,,,,,,,,,,,,,,,,,,,,,,,,,,,,,,,,,,,,,,,,,,,,,,,,,,,,,,,,,,,,,,,,,,,,,,,,,,,,,,,,,,,,,,,,,,,,,,,,,,,,,,,,,,,,,,,,,,,,,,,,,,,,,,,,,,,,,
,,5d7957036797da0019537ad1,2023-12-06_23h35.05.582,kallum_motion_pilot,2023.2.3,Win32,48.12319538,5d7957036797da0019537ad1,6560176e4d91f764e2a42c74,657159169e2550a2ba46fdf3,0.047,0.047,0,116,116,25,1,onethree,,,,,,,,,,,,,,,,,,,,,,,,,,,,,,,,,,,,,,,,,,,,,,,,,,,,,,,,,,,,,,,,,,,,,,,,,,,,,,,,,,,,,,,,,,,,,,,,,,,,,,,,,,,,,,,,,,,,,,,,,,,,,,,,,,,,,,,
,,5d7957036797da0019537ad1,2023-12-06_23h35.05.582,kallum_motion_pilot,2023.2.3,Win32,48.12319538,5d7957036797da0019537ad1,6560176e4d91f764e2a42c74,657159169e2550a2ba46fdf3,0.048,0.048,0,117,117,128,1,fivesix,,,,,,,,,,,,,,,,,,,,,,,,,,,,,,,,,,,,,,,,,,,,,,,,,,,,,,,,,,,,,,,,,,,,,,,,,,,,,,,,,,,,,,,,,,,,,,,,,,,,,,,,,,,,,,,,,,,,,,,,,,,,,,,,,,,,,,,
,,5d7957036797da0019537ad1,2023-12-06_23h35.05.582,kallum_motion_pilot,2023.2.3,Win32,48.12319538,5d7957036797da0019537ad1,6560176e4d91f764e2a42c74,657159169e2550a2ba46fdf3,0.048,0.048,0,118,118,13,1,threefour,,,,,,,,,,,,,,,,,,,,,,,,,,,,,,,,,,,,,,,,,,,,,,,,,,,,,,,,,,,,,,,,,,,,,,,,,,,,,,,,,,,,,,,,,,,,,,,,,,,,,,,,,,,,,,,,,,,,,,,,,,,,,,,,,,,,,,,
,,5d7957036797da0019537ad1,2023-12-06_23h35.05.582,kallum_motion_pilot,2023.2.3,Win32,48.12319538,5d7957036797da0019537ad1,6560176e4d91f764e2a42c74,657159169e2550a2ba46fdf3,0.048,0.048,0,119,119,75,1,twofour,,,,,,,,,,,,,,,,,,,,,,,,,,,,,,,,,,,,,,,,,,,,,,,,,,,,,,,,,,,,,,,,,,,,,,,,,,,,,,,,,,,,,,,,,,,,,,,,,,,,,,,,,,,,,,,,,,,,,,,,,,,,,,,,,,,,,,,
,,5d7957036797da0019537ad1,2023-12-06_23h35.05.582,kallum_motion_pilot,2023.2.3,Win32,48.12319538,5d7957036797da0019537ad1,6560176e4d91f764e2a42c74,657159169e2550a2ba46fdf3,0.048,0.048,0,120,120,134,1,eightsix,,,,,,,,,,,,,,,,,,,,,,,,,,,,,,,,,,,,,,,,,,,,,,,,,,,,,,,,,,,,,,,,,,,,,,,,,,,,,,,,,,,,,,,,,,,,,,,,,,,,,,,,,,,,,,,,,,,,,,,,,,,,,,,,,,,,,,,
,,5d7957036797da0019537ad1,2023-12-06_23h35.05.582,kallum_motion_pilot,2023.2.3,Win32,48.12319538,5d7957036797da0019537ad1,6560176e4d91f764e2a42c74,657159169e2550a2ba46fdf3,0.048,0.048,0,121,121,153,1,fiveseven,,,,,,,,,,,,,,,,,,,,,,,,,,,,,,,,,,,,,,,,,,,,,,,,,,,,,,,,,,,,,,,,,,,,,,,,,,,,,,,,,,,,,,,,,,,,,,,,,,,,,,,,,,,,,,,,,,,,,,,,,,,,,,,,,,,,,,,
,,5d7957036797da0019537ad1,2023-12-06_23h35.05.582,kallum_motion_pilot,2023.2.3,Win32,48.12319538,5d7957036797da0019537ad1,6560176e4d91f764e2a42c74,657159169e2550a2ba46fdf3,0.048,0.048,0,122,122,17,1,onethree,,,,,,,,,,,,,,,,,,,,,,,,,,,,,,,,,,,,,,,,,,,,,,,,,,,,,,,,,,,,,,,,,,,,,,,,,,,,,,,,,,,,,,,,,,,,,,,,,,,,,,,,,,,,,,,,,,,,,,,,,,,,,,,,,,,,,,,
,,5d7957036797da0019537ad1,2023-12-06_23h35.05.582,kallum_motion_pilot,2023.2.3,Win32,48.12319538,5d7957036797da0019537ad1,6560176e4d91f764e2a42c74,657159169e2550a2ba46fdf3,0.049,0.049,0,123,123,45,1,threefour,,,,,,,,,,,,,,,,,,,,,,,,,,,,,,,,,,,,,,,,,,,,,,,,,,,,,,,,,,,,,,,,,,,,,,,,,,,,,,,,,,,,,,,,,,,,,,,,,,,,,,,,,,,,,,,,,,,,,,,,,,,,,,,,,,,,,,,
,,5d7957036797da0019537ad1,2023-12-06_23h35.05.582,kallum_motion_pilot,2023.2.3,Win32,48.12319538,5d7957036797da0019537ad1,6560176e4d91f764e2a42c74,657159169e2550a2ba46fdf3,0.049,0.049,0,124,124,60,1,threeone,,,,,,,,,,,,,,,,,,,,,,,,,,,,,,,,,,,,,,,,,,,,,,,,,,,,,,,,,,,,,,,,,,,,,,,,,,,,,,,,,,,,,,,,,,,,,,,,,,,,,,,,,,,,,,,,,,,,,,,,,,,,,,,,,,,,,,,
,,5d7957036797da0019537ad1,2023-12-06_23h35.05.582,kallum_motion_pilot,2023.2.3,Win32,48.12319538,5d7957036797da0019537ad1,6560176e4d91f764e2a42c74,657159169e2550a2ba46fdf3,0.049,0.049,0,125,125,135,1,eightseven,,,,,,,,,,,,,,,,,,,,,,,,,,,,,,,,,,,,,,,,,,,,,,,,,,,,,,,,,,,,,,,,,,,,,,,,,,,,,,,,,,,,,,,,,,,,,,,,,,,,,,,,,,,,,,,,,,,,,,,,,,,,,,,,,,,,,,,
,,5d7957036797da0019537ad1,2023-12-06_23h35.05.582,kallum_motion_pilot,2023.2.3,Win32,48.12319538,5d7957036797da0019537ad1,6560176e4d91f764e2a42c74,657159169e2550a2ba46fdf3,0.05,0.05,0,126,126,22,1,fourtwo,,,,,,,,,,,,,,,,,,,,,,,,,,,,,,,,,,,,,,,,,,,,,,,,,,,,,,,,,,,,,,,,,,,,,,,,,,,,,,,,,,,,,,,,,,,,,,,,,,,,,,,,,,,,,,,,,,,,,,,,,,,,,,,,,,,,,,,
,,5d7957036797da0019537ad1,2023-12-06_23h35.05.582,kallum_motion_pilot,2023.2.3,Win32,48.12319538,5d7957036797da0019537ad1,6560176e4d91f764e2a42c74,657159169e2550a2ba46fdf3,0.05,0.05,0,127,127,54,1,fourtwo,,,,,,,,,,,,,,,,,,,,,,,,,,,,,,,,,,,,,,,,,,,,,,,,,,,,,,,,,,,,,,,,,,,,,,,,,,,,,,,,,,,,,,,,,,,,,,,,,,,,,,,,,,,,,,,,,,,,,,,,,,,,,,,,,,,,,,,
,,5d7957036797da0019537ad1,2023-12-06_23h35.05.582,kallum_motion_pilot,2023.2.3,Win32,48.12319538,5d7957036797da0019537ad1,6560176e4d91f764e2a42c74,657159169e2550a2ba46fdf3,0.05,0.05,0,128,128,123,1,sixeight,,,,,,,,,,,,,,,,,,,,,,,,,,,,,,,,,,,,,,,,,,,,,,,,,,,,,,,,,,,,,,,,,,,,,,,,,,,,,,,,,,,,,,,,,,,,,,,,,,,,,,,,,,,,,,,,,,,,,,,,,,,,,,,,,,,,,,,
,,5d7957036797da0019537ad1,2023-12-06_23h35.05.582,kallum_motion_pilot,2023.2.3,Win32,48.12319538,5d7957036797da0019537ad1,6560176e4d91f764e2a42c74,657159169e2550a2ba46fdf3,0.05,0.05,0,129,129,36,1,threeone,,,,,,,,,,,,,,,,,,,,,,,,,,,,,,,,,,,,,,,,,,,,,,,,,,,,,,,,,,,,,,,,,,,,,,,,,,,,,,,,,,,,,,,,,,,,,,,,,,,,,,,,,,,,,,,,,,,,,,,,,,,,,,,,,,,,,,,
,,5d7957036797da0019537ad1,2023-12-06_23h35.05.582,kallum_motion_pilot,2023.2.3,Win32,48.12319538,5d7957036797da0019537ad1,6560176e4d91f764e2a42c74,657159169e2550a2ba46fdf3,0.05,0.05,0,130,130,23,1,fourthree,,,,,,,,,,,,,,,,,,,,,,,,,,,,,,,,,,,,,,,,,,,,,,,,,,,,,,,,,,,,,,,,,,,,,,,,,,,,,,,,,,,,,,,,,,,,,,,,,,,,,,,,,,,,,,,,,,,,,,,,,,,,,,,,,,,,,,,
,,5d7957036797da0019537ad1,2023-12-06_23h35.05.582,kallum_motion_pilot,2023.2.3,Win32,48.12319538,5d7957036797da0019537ad1,6560176e4d91f764e2a42c74,657159169e2550a2ba46fdf3,0.05,0.05,0,131,131,138,1,sixfive,,,,,,,,,,,,,,,,,,,,,,,,,,,,,,,,,,,,,,,,,,,,,,,,,,,,,,,,,,,,,,,,,,,,,,,,,,,,,,,,,,,,,,,,,,,,,,,,,,,,,,,,,,,,,,,,,,,,,,,,,,,,,,,,,,,,,,,
,,5d7957036797da0019537ad1,2023-12-06_23h35.05.582,kallum_motion_pilot,2023.2.3,Win32,48.12319538,5d7957036797da0019537ad1,6560176e4d91f764e2a42c74,657159169e2550a2ba46fdf3,0.051,0.051,0,132,132,132,1,sevenfive,,,,,,,,,,,,,,,,,,,,,,,,,,,,,,,,,,,,,,,,,,,,,,,,,,,,,,,,,,,,,,,,,,,,,,,,,,,,,,,,,,,,,,,,,,,,,,,,,,,,,,,,,,,,,,,,,,,,,,,,,,,,,,,,,,,,,,,
,,5d7957036797da0019537ad1,2023-12-06_23h35.05.582,kallum_motion_pilot,2023.2.3,Win32,48.12319538,5d7957036797da0019537ad1,6560176e4d91f764e2a42c74,657159169e2550a2ba46fdf3,0.051,0.051,0,133,133,71,1,fourthree,,,,,,,,,,,,,,,,,,,,,,,,,,,,,,,,,,,,,,,,,,,,,,,,,,,,,,,,,,,,,,,,,,,,,,,,,,,,,,,,,,,,,,,,,,,,,,,,,,,,,,,,,,,,,,,,,,,,,,,,,,,,,,,,,,,,,,,
,,5d7957036797da0019537ad1,2023-12-06_23h35.05.582,kallum_motion_pilot,2023.2.3,Win32,48.12319538,5d7957036797da0019537ad1,6560176e4d91f764e2a42c74,657159169e2550a2ba46fdf3,0.051,0.051,0,134,134,73,1,onethree,,,,,,,,,,,,,,,,,,,,,,,,,,,,,,,,,,,,,,,,,,,,,,,,,,,,,,,,,,,,,,,,,,,,,,,,,,,,,,,,,,,,,,,,,,,,,,,,,,,,,,,,,,,,,,,,,,,,,,,,,,,,,,,,,,,,,,,
,,5d7957036797da0019537ad1,2023-12-06_23h35.05.582,kallum_motion_pilot,2023.2.3,Win32,48.12319538,5d7957036797da0019537ad1,6560176e4d91f764e2a42c74,657159169e2550a2ba46fdf3,0.051,0.051,0,135,135,126,1,eightsix,,,,,,,,,,,,,,,,,,,,,,,,,,,,,,,,,,,,,,,,,,,,,,,,,,,,,,,,,,,,,,,,,,,,,,,,,,,,,,,,,,,,,,,,,,,,,,,,,,,,,,,,,,,,,,,,,,,,,,,,,,,,,,,,,,,,,,,
,,5d7957036797da0019537ad1,2023-12-06_23h35.05.582,kallum_motion_pilot,2023.2.3,Win32,48.12319538,5d7957036797da0019537ad1,6560176e4d91f764e2a42c74,657159169e2550a2ba46fdf3,0.051,0.051,0,136,136,143,1,eightseven,,,,,,,,,,,,,,,,,,,,,,,,,,,,,,,,,,,,,,,,,,,,,,,,,,,,,,,,,,,,,,,,,,,,,,,,,,,,,,,,,,,,,,,,,,,,,,,,,,,,,,,,,,,,,,,,,,,,,,,,,,,,,,,,,,,,,,,
,,5d7957036797da0019537ad1,2023-12-06_23h35.05.582,kallum_motion_pilot,2023.2.3,Win32,48.12319538,5d7957036797da0019537ad1,6560176e4d91f764e2a42c74,657159169e2550a2ba46fdf3,0.051,0.051,0,137,137,150,1,eightsix,,,,,,,,,,,,,,,,,,,,,,,,,,,,,,,,,,,,,,,,,,,,,,,,,,,,,,,,,,,,,,,,,,,,,,,,,,,,,,,,,,,,,,,,,,,,,,,,,,,,,,,,,,,,,,,,,,,,,,,,,,,,,,,,,,,,,,,
,,5d7957036797da0019537ad1,2023-12-06_23h35.05.582,kallum_motion_pilot,2023.2.3,Win32,48.12319538,5d7957036797da0019537ad1,6560176e4d91f764e2a42c74,657159169e2550a2ba46fdf3,0.051,0.051,0,138,138,72,1,onetwo,,,,,,,,,,,,,,,,,,,,,,,,,,,,,,,,,,,,,,,,,,,,,,,,,,,,,,,,,,,,,,,,,,,,,,,,,,,,,,,,,,,,,,,,,,,,,,,,,,,,,,,,,,,,,,,,,,,,,,,,,,,,,,,,,,,,,,,
,,5d7957036797da0019537ad1,2023-12-06_23h35.05.582,kallum_motion_pilot,2023.2.3,Win32,48.12319538,5d7957036797da0019537ad1,6560176e4d91f764e2a42c74,657159169e2550a2ba46fdf3,0.051,0.051,0,139,139,67,1,twofour,,,,,,,,,,,,,,,,,,,,,,,,,,,,,,,,,,,,,,,,,,,,,,,,,,,,,,,,,,,,,,,,,,,,,,,,,,,,,,,,,,,,,,,,,,,,,,,,,,,,,,,,,,,,,,,,,,,,,,,,,,,,,,,,,,,,,,,
,,5d7957036797da0019537ad1,2023-12-06_23h35.05.582,kallum_motion_pilot,2023.2.3,Win32,48.12319538,5d7957036797da0019537ad1,6560176e4d91f764e2a42c74,657159169e2550a2ba46fdf3,0.052,0.052,0,140,140,39,1,fourthree,,,,,,,,,,,,,,,,,,,,,,,,,,,,,,,,,,,,,,,,,,,,,,,,,,,,,,,,,,,,,,,,,,,,,,,,,,,,,,,,,,,,,,,,,,,,,,,,,,,,,,,,,,,,,,,,,,,,,,,,,,,,,,,,,,,,,,,
,,5d7957036797da0019537ad1,2023-12-06_23h35.05.582,kallum_motion_pilot,2023.2.3,Win32,48.12319538,5d7957036797da0019537ad1,6560176e4d91f764e2a42c74,657159169e2550a2ba46fdf3,0.052,0.052,0,141,141,3,1,twofour,,,,,,,,,,,,,,,,,,,,,,,,,,,,,,,,,,,,,,,,,,,,,,,,,,,,,,,,,,,,,,,,,,,,,,,,,,,,,,,,,,,,,,,,,,,,,,,,,,,,,,,,,,,,,,,,,,,,,,,,,,,,,,,,,,,,,,,
,,5d7957036797da0019537ad1,2023-12-06_23h35.05.582,kallum_motion_pilot,2023.2.3,Win32,48.12319538,5d7957036797da0019537ad1,6560176e4d91f764e2a42c74,657159169e2550a2ba46fdf3,0.053,0.053,0,142,142,102,1,eightsix,,,,,,,,,,,,,,,,,,,,,,,,,,,,,,,,,,,,,,,,,,,,,,,,,,,,,,,,,,,,,,,,,,,,,,,,,,,,,,,,,,,,,,,,,,,,,,,,,,,,,,,,,,,,,,,,,,,,,,,,,,,,,,,,,,,,,,,
,,5d7957036797da0019537ad1,2023-12-06_23h35.05.582,kallum_motion_pilot,2023.2.3,Win32,48.12319538,5d7957036797da0019537ad1,6560176e4d91f764e2a42c74,657159169e2550a2ba46fdf3,0.053,0.053,0,143,143,80,1,fivesix,,,,,,,,,,,,,,,,,,,,,,,,,,,,,,,,,,,,,,,,,,,,,,,,,,,,,,,,,,,,,,,,,,,,,,,,,,,,,,,,,,,,,,,,,,,,,,,,,,,,,,,,,,,,,,,,,,,,,,,,,,,,,,,,,,,,,,,
,,5d7957036797da0019537ad1,2023-12-06_23h35.05.582,kallum_motion_pilot,2023.2.3,Win32,48.12319538,5d7957036797da0019537ad1,6560176e4d91f764e2a42c74,657159169e2550a2ba46fdf3,0.053,0.053,0,144,144,65,1,onethree,,,,,,,,,,,,,,,,,,,,,,,,,,,,,,,,,,,,,,,,,,,,,,,,,,,,,,,,,,,,,,,,,,,,,,,,,,,,,,,,,,,,,,,,,,,,,,,,,,,,,,,,,,,,,,,,,,,,,,,,,,,,,,,,,,,,,,,
,,5d7957036797da0019537ad1,2023-12-06_23h35.05.582,kallum_motion_pilot,2023.2.3,Win32,48.12319538,5d7957036797da0019537ad1,6560176e4d91f764e2a42c74,657159169e2550a2ba46fdf3,0.053,0.053,0,145,145,42,1,twoone,,,,,,,,,,,,,,,,,,,,,,,,,,,,,,,,,,,,,,,,,,,,,,,,,,,,,,,,,,,,,,,,,,,,,,,,,,,,,,,,,,,,,,,,,,,,,,,,,,,,,,,,,,,,,,,,,,,,,,,,,,,,,,,,,,,,,,,
,,5d7957036797da0019537ad1,2023-12-06_23h35.05.582,kallum_motion_pilot,2023.2.3,Win32,48.12319538,5d7957036797da0019537ad1,6560176e4d91f764e2a42c74,657159169e2550a2ba46fdf3,0.053,0.053,0,146,146,41,1,onethree,,,,,,,,,,,,,,,,,,,,,,,,,,,,,,,,,,,,,,,,,,,,,,,,,,,,,,,,,,,,,,,,,,,,,,,,,,,,,,,,,,,,,,,,,,,,,,,,,,,,,,,,,,,,,,,,,,,,,,,,,,,,,,,,,,,,,,,
,,5d7957036797da0019537ad1,2023-12-06_23h35.05.582,kallum_motion_pilot,2023.2.3,Win32,48.12319538,5d7957036797da0019537ad1,6560176e4d91f764e2a42c74,657159169e2550a2ba46fdf3,0.053,0.053,0,147,147,68,1,threeone,,,,,,,,,,,,,,,,,,,,,,,,,,,,,,,,,,,,,,,,,,,,,,,,,,,,,,,,,,,,,,,,,,,,,,,,,,,,,,,,,,,,,,,,,,,,,,,,,,,,,,,,,,,,,,,,,,,,,,,,,,,,,,,,,,,,,,,
,,5d7957036797da0019537ad1,2023-12-06_23h35.05.582,kallum_motion_pilot,2023.2.3,Win32,48.12319538,5d7957036797da0019537ad1,6560176e4d91f764e2a42c74,657159169e2550a2ba46fdf3,0.053,0.053,0,148,148,58,1,twoone,,,,,,,,,,,,,,,,,,,,,,,,,,,,,,,,,,,,,,,,,,,,,,,,,,,,,,,,,,,,,,,,,,,,,,,,,,,,,,,,,,,,,,,,,,,,,,,,,,,,,,,,,,,,,,,,,,,,,,,,,,,,,,,,,,,,,,,
,,5d7957036797da0019537ad1,2023-12-06_23h35.05.582,kallum_motion_pilot,2023.2.3,Win32,48.12319538,5d7957036797da0019537ad1,6560176e4d91f764e2a42c74,657159169e2550a2ba46fdf3,0.053,0.053,0,149,149,19,1,twofour,,,,,,,,,,,,,,,,,,,,,,,,,,,,,,,,,,,,,,,,,,,,,,,,,,,,,,,,,,,,,,,,,,,,,,,,,,,,,,,,,,,,,,,,,,,,,,,,,,,,,,,,,,,,,,,,,,,,,,,,,,,,,,,,,,,,,,,
,,5d7957036797da0019537ad1,2023-12-06_23h35.05.582,kallum_motion_pilot,2023.2.3,Win32,48.12319538,5d7957036797da0019537ad1,6560176e4d91f764e2a42c74,657159169e2550a2ba46fdf3,0.054,0.054,0,150,150,34,1,twoone,,,,,,,,,,,,,,,,,,,,,,,,,,,,,,,,,,,,,,,,,,,,,,,,,,,,,,,,,,,,,,,,,,,,,,,,,,,,,,,,,,,,,,,,,,,,,,,,,,,,,,,,,,,,,,,,,,,,,,,,,,,,,,,,,,,,,,,
,,5d7957036797da0019537ad1,2023-12-06_23h35.05.582,kallum_motion_pilot,2023.2.3,Win32,48.12319538,5d7957036797da0019537ad1,6560176e4d91f764e2a42c74,657159169e2550a2ba46fdf3,0.055,0.055,0,151,151,46,1,fourtwo,,,,,,,,,,,,,,,,,,,,,,,,,,,,,,,,,,,,,,,,,,,,,,,,,,,,,,,,,,,,,,,,,,,,,,,,,,,,,,,,,,,,,,,,,,,,,,,,,,,,,,,,,,,,,,,,,,,,,,,,,,,,,,,,,,,,,,,
,,5d7957036797da0019537ad1,2023-12-06_23h35.05.582,kallum_motion_pilot,2023.2.3,Win32,48.12319538,5d7957036797da0019537ad1,6560176e4d91f764e2a42c74,657159169e2550a2ba46fdf3,0.055,0.055,0,152,152,149,1,seveneight,,,,,,,,,,,,,,,,,,,,,,,,,,,,,,,,,,,,,,,,,,,,,,,,,,,,,,,,,,,,,,,,,,,,,,,,,,,,,,,,,,,,,,,,,,,,,,,,,,,,,,,,,,,,,,,,,,,,,,,,,,,,,,,,,,,,,,,
,,5d7957036797da0019537ad1,2023-12-06_23h35.05.582,kallum_motion_pilot,2023.2.3,Win32,48.12319538,5d7957036797da0019537ad1,6560176e4d91f764e2a42c74,657159169e2550a2ba46fdf3,0.056,0.056,0,153,153,57,1,onethree,,,,,,,,,,,,,,,,,,,,,,,,,,,,,,,,,,,,,,,,,,,,,,,,,,,,,,,,,,,,,,,,,,,,,,,,,,,,,,,,,,,,,,,,,,,,,,,,,,,,,,,,,,,,,,,,,,,,,,,,,,,,,,,,,,,,,,,
,,5d7957036797da0019537ad1,2023-12-06_23h35.05.582,kallum_motion_pilot,2023.2.3,Win32,48.12319538,5d7957036797da0019537ad1,6560176e4d91f764e2a42c74,657159169e2550a2ba46fdf3,0.056,0.056,0,154,154,104,1,fivesix,,,,,,,,,,,,,,,,,,,,,,,,,,,,,,,,,,,,,,,,,,,,,,,,,,,,,,,,,,,,,,,,,,,,,,,,,,,,,,,,,,,,,,,,,,,,,,,,,,,,,,,,,,,,,,,,,,,,,,,,,,,,,,,,,,,,,,,
,,5d7957036797da0019537ad1,2023-12-06_23h35.05.582,kallum_motion_pilot,2023.2.3,Win32,48.12319538,5d7957036797da0019537ad1,6560176e4d91f764e2a42c74,657159169e2550a2ba46fdf3,0.056,0.056,0,155,155,74,1,twoone,,,,,,,,,,,,,,,,,,,,,,,,,,,,,,,,,,,,,,,,,,,,,,,,,,,,,,,,,,,,,,,,,,,,,,,,,,,,,,,,,,,,,,,,,,,,,,,,,,,,,,,,,,,,,,,,,,,,,,,,,,,,,,,,,,,,,,,
,,5d7957036797da0019537ad1,2023-12-06_23h35.05.582,kallum_motion_pilot,2023.2.3,Win32,48.12319538,5d7957036797da0019537ad1,6560176e4d91f764e2a42c74,657159169e2550a2ba46fdf3,0.056,0.056,0,156,156,141,1,seveneight,,,,,,,,,,,,,,,,,,,,,,,,,,,,,,,,,,,,,,,,,,,,,,,,,,,,,,,,,,,,,,,,,,,,,,,,,,,,,,,,,,,,,,,,,,,,,,,,,,,,,,,,,,,,,,,,,,,,,,,,,,,,,,,,,,,,,,,
,,5d7957036797da0019537ad1,2023-12-06_23h35.05.582,kallum_motion_pilot,2023.2.3,Win32,48.12319538,5d7957036797da0019537ad1,6560176e4d91f764e2a42c74,657159169e2550a2ba46fdf3,0.056,0.056,0,157,157,32,1,onetwo,,,,,,,,,,,,,,,,,,,,,,,,,,,,,,,,,,,,,,,,,,,,,,,,,,,,,,,,,,,,,,,,,,,,,,,,,,,,,,,,,,,,,,,,,,,,,,,,,,,,,,,,,,,,,,,,,,,,,,,,,,,,,,,,,,,,,,,
,,5d7957036797da0019537ad1,2023-12-06_23h35.05.582,kallum_motion_pilot,2023.2.3,Win32,48.12319538,5d7957036797da0019537ad1,6560176e4d91f764e2a42c74,657159169e2550a2ba46fdf3,0.056,0.056,0,158,158,114,1,sixfive,,,,,,,,,,,,,,,,,,,,,,,,,,,,,,,,,,,,,,,,,,,,,,,,,,,,,,,,,,,,,,,,,,,,,,,,,,,,,,,,,,,,,,,,,,,,,,,,,,,,,,,,,,,,,,,,,,,,,,,,,,,,,,,,,,,,,,,
,,5d7957036797da0019537ad1,2023-12-06_23h35.05.582,kallum_motion_pilot,2023.2.3,Win32,48.12319538,5d7957036797da0019537ad1,6560176e4d91f764e2a42c74,657159169e2550a2ba46fdf3,0.056,0.056,0,159,159,24,1,onetwo,,,,,,,,,,,,,,,,,,,,,,,,,,,,,,,,,,,,,,,,,,,,,,,,,,,,,,,,,,,,,,,,,,,,,,,,,,,,,,,,,,,,,,,,,,,,,,,,,,,,,,,,,,,,,,,,,,,,,,,,,,,,,,,,,,,,,,,
,,5d7957036797da0019537ad1,2023-12-06_23h35.05.582,kallum_motion_pilot,2023.2.3,Win32,48.12319538,5d7957036797da0019537ad1,6560176e4d91f764e2a42c74,657159169e2550a2ba46fdf3,0.057,0.057,0,160,160,100,1,sevenfive,,,,,,,,,,,,,,,,,,,,,,,,,,,,,,,,,,,,,,,,,,,,,,,,,,,,,,,,,,,,,,,,,,,,,,,,,,,,,,,,,,,,,,,,,,,,,,,,,,,,,,,,,,,,,,,,,,,,,,,,,,,,,,,,,,,,,,,
,,5d7957036797da0019537ad1,2023-12-06_23h35.05.582,kallum_motion_pilot,2023.2.3,Win32,48.12319538,5d7957036797da0019537ad1,6560176e4d91f764e2a42c74,657159169e2550a2ba46fdf3,0.057,0.057,0,161,161,38,1,fourtwo,,,,,,,,,,,,,,,,,,,,,,,,,,,,,,,,,,,,,,,,,,,,,,,,,,,,,,,,,,,,,,,,,,,,,,,,,,,,,,,,,,,,,,,,,,,,,,,,,,,,,,,,,,,,,,,,,,,,,,,,,,,,,,,,,,,,,,,
,,5d7957036797da0019537ad1,2023-12-06_23h35.05.582,kallum_motion_pilot,2023.2.3,Win32,48.12319538,5d7957036797da0019537ad1,6560176e4d91f764e2a42c74,657159169e2550a2ba46fdf3,0.057,0.057,1,0,162,67,1,twofour,,,,,,,,,,,,,,,,,,,,,,,,,,,,,,,,,,,,,,,,,,,,,,,,,,,,,,,,,,,,,,,,,,,,,,,,,,,,,,,,,,,,,,,,,,,,,,,,,,,,,,,,,,,,,,,,,,,,,,,,,,,,,,,,,,,,,,,
,,5d7957036797da0019537ad1,2023-12-06_23h35.05.582,kallum_motion_pilot,2023.2.3,Win32,48.12319538,5d7957036797da0019537ad1,6560176e4d91f764e2a42c74,657159169e2550a2ba46fdf3,0.057,0.057,1,1,163,90,1,sixfive,,,,,,,,,,,,,,,,,,,,,,,,,,,,,,,,,,,,,,,,,,,,,,,,,,,,,,,,,,,,,,,,,,,,,,,,,,,,,,,,,,,,,,,,,,,,,,,,,,,,,,,,,,,,,,,,,,,,,,,,,,,,,,,,,,,,,,,
,,5d7957036797da0019537ad1,2023-12-06_23h35.05.582,kallum_motion_pilot,2023.2.3,Win32,48.12319538,5d7957036797da0019537ad1,6560176e4d91f764e2a42c74,657159169e2550a2ba46fdf3,0.057,0.057,1,2,164,41,1,onethree,,,,,,,,,,,,,,,,,,,,,,,,,,,,,,,,,,,,,,,,,,,,,,,,,,,,,,,,,,,,,,,,,,,,,,,,,,,,,,,,,,,,,,,,,,,,,,,,,,,,,,,,,,,,,,,,,,,,,,,,,,,,,,,,,,,,,,,
,,5d7957036797da0019537ad1,2023-12-06_23h35.05.582,kallum_motion_pilot,2023.2.3,Win32,48.12319538,5d7957036797da0019537ad1,6560176e4d91f764e2a42c74,657159169e2550a2ba46fdf3,0.057,0.057,1,3,165,1,1,onethree,,,,,,,,,,,,,,,,,,,,,,,,,,,,,,,,,,,,,,,,,,,,,,,,,,,,,,,,,,,,,,,,,,,,,,,,,,,,,,,,,,,,,,,,,,,,,,,,,,,,,,,,,,,,,,,,,,,,,,,,,,,,,,,,,,,,,,,
,,5d7957036797da0019537ad1,2023-12-06_23h35.05.582,kallum_motion_pilot,2023.2.3,Win32,48.12319538,5d7957036797da0019537ad1,6560176e4d91f764e2a42c74,657159169e2550a2ba46fdf3,0.057,0.058,1,4,166,158,1,eightsix,,,,,,,,,,,,,,,,,,,,,,,,,,,,,,,,,,,,,,,,,,,,,,,,,,,,,,,,,,,,,,,,,,,,,,,,,,,,,,,,,,,,,,,,,,,,,,,,,,,,,,,,,,,,,,,,,,,,,,,,,,,,,,,,,,,,,,,
,,5d7957036797da0019537ad1,2023-12-06_23h35.05.582,kallum_motion_pilot,2023.2.3,Win32,48.12319538,5d7957036797da0019537ad1,6560176e4d91f764e2a42c74,657159169e2550a2ba46fdf3,0.058,0.058,1,5,167,46,1,fourtwo,,,,,,,,,,,,,,,,,,,,,,,,,,,,,,,,,,,,,,,,,,,,,,,,,,,,,,,,,,,,,,,,,,,,,,,,,,,,,,,,,,,,,,,,,,,,,,,,,,,,,,,,,,,,,,,,,,,,,,,,,,,,,,,,,,,,,,,
,,5d7957036797da0019537ad1,2023-12-06_23h35.05.582,kallum_motion_pilot,2023.2.3,Win32,48.12319538,5d7957036797da0019537ad1,6560176e4d91f764e2a42c74,657159169e2550a2ba46fdf3,0.058,0.058,1,6,168,39,1,fourthree,,,,,,,,,,,,,,,,,,,,,,,,,,,,,,,,,,,,,,,,,,,,,,,,,,,,,,,,,,,,,,,,,,,,,,,,,,,,,,,,,,,,,,,,,,,,,,,,,,,,,,,,,,,,,,,,,,,,,,,,,,,,,,,,,,,,,,,
,,5d7957036797da0019537ad1,2023-12-06_23h35.05.582,kallum_motion_pilot,2023.2.3,Win32,48.12319538,5d7957036797da0019537ad1,6560176e4d91f764e2a42c74,657159169e2550a2ba46fdf3,0.058,0.058,1,7,169,65,1,onethree,,,,,,,,,,,,,,,,,,,,,,,,,,,,,,,,,,,,,,,,,,,,,,,,,,,,,,,,,,,,,,,,,,,,,,,,,,,,,,,,,,,,,,,,,,,,,,,,,,,,,,,,,,,,,,,,,,,,,,,,,,,,,,,,,,,,,,,
,,5d7957036797da0019537ad1,2023-12-06_23h35.05.582,kallum_motion_pilot,2023.2.3,Win32,48.12319538,5d7957036797da0019537ad1,6560176e4d91f764e2a42c74,657159169e2550a2ba46fdf3,0.058,0.058,1,8,170,37,1,threefour,,,,,,,,,,,,,,,,,,,,,,,,,,,,,,,,,,,,,,,,,,,,,,,,,,,,,,,,,,,,,,,,,,,,,,,,,,,,,,,,,,,,,,,,,,,,,,,,,,,,,,,,,,,,,,,,,,,,,,,,,,,,,,,,,,,,,,,
,,5d7957036797da0019537ad1,2023-12-06_23h35.05.582,kallum_motion_pilot,2023.2.3,Win32,48.12319538,5d7957036797da0019537ad1,6560176e4d91f764e2a42c74,657159169e2550a2ba46fdf3,0.058,0.058,1,9,171,27,1,twofour,,,,,,,,,,,,,,,,,,,,,,,,,,,,,,,,,,,,,,,,,,,,,,,,,,,,,,,,,,,,,,,,,,,,,,,,,,,,,,,,,,,,,,,,,,,,,,,,,,,,,,,,,,,,,,,,,,,,,,,,,,,,,,,,,,,,,,,
,,5d7957036797da0019537ad1,2023-12-06_23h35.05.582,kallum_motion_pilot,2023.2.3,Win32,48.12319538,5d7957036797da0019537ad1,6560176e4d91f764e2a42c74,657159169e2550a2ba46fdf3,0.059,0.059,1,10,172,64,1,onetwo,,,,,,,,,,,,,,,,,,,,,,,,,,,,,,,,,,,,,,,,,,,,,,,,,,,,,,,,,,,,,,,,,,,,,,,,,,,,,,,,,,,,,,,,,,,,,,,,,,,,,,,,,,,,,,,,,,,,,,,,,,,,,,,,,,,,,,,
,,5d7957036797da0019537ad1,2023-12-06_23h35.05.582,kallum_motion_pilot,2023.2.3,Win32,48.12319538,5d7957036797da0019537ad1,6560176e4d91f764e2a42c74,657159169e2550a2ba46fdf3,0.059,0.059,1,11,173,139,1,sixeight,,,,,,,,,,,,,,,,,,,,,,,,,,,,,,,,,,,,,,,,,,,,,,,,,,,,,,,,,,,,,,,,,,,,,,,,,,,,,,,,,,,,,,,,,,,,,,,,,,,,,,,,,,,,,,,,,,,,,,,,,,,,,,,,,,,,,,,
,,5d7957036797da0019537ad1,2023-12-06_23h35.05.582,kallum_motion_pilot,2023.2.3,Win32,48.12319538,5d7957036797da0019537ad1,6560176e4d91f764e2a42c74,657159169e2550a2ba46fdf3,0.059,0.059,1,12,174,75,1,twofour,,,,,,,,,,,,,,,,,,,,,,,,,,,,,,,,,,,,,,,,,,,,,,,,,,,,,,,,,,,,,,,,,,,,,,,,,,,,,,,,,,,,,,,,,,,,,,,,,,,,,,,,,,,,,,,,,,,,,,,,,,,,,,,,,,,,,,,
,,5d7957036797da0019537ad1,2023-12-06_23h35.05.582,kallum_motion_pilot,2023.2.3,Win32,48.12319538,5d7957036797da0019537ad1,6560176e4d91f764e2a42c74,657159169e2550a2ba46fdf3,0.059,0.059,1,13,175,88,1,fivesix,,,,,,,,,,,,,,,,,,,,,,,,,,,,,,,,,,,,,,,,,,,,,,,,,,,,,,,,,,,,,,,,,,,,,,,,,,,,,,,,,,,,,,,,,,,,,,,,,,,,,,,,,,,,,,,,,,,,,,,,,,,,,,,,,,,,,,,
,,5d7957036797da0019537ad1,2023-12-06_23h35.05.582,kallum_motion_pilot,2023.2.3,Win32,48.12319538,5d7957036797da0019537ad1,6560176e4d91f764e2a42c74,657159169e2550a2ba46fdf3,0.059,0.059,1,14,176,49,1,onethree,,,,,,,,,,,,,,,,,,,,,,,,,,,,,,,,,,,,,,,,,,,,,,,,,,,,,,,,,,,,,,,,,,,,,,,,,,,,,,,,,,,,,,,,,,,,,,,,,,,,,,,,,,,,,,,,,,,,,,,,,,,,,,,,,,,,,,,
,,5d7957036797da0019537ad1,2023-12-06_23h35.05.582,kallum_motion_pilot,2023.2.3,Win32,48.12319538,5d7957036797da0019537ad1,6560176e4d91f764e2a42c74,657159169e2550a2ba46fdf3,0.059,0.059,1,15,177,23,1,fourthree,,,,,,,,,,,,,,,,,,,,,,,,,,,,,,,,,,,,,,,,,,,,,,,,,,,,,,,,,,,,,,,,,,,,,,,,,,,,,,,,,,,,,,,,,,,,,,,,,,,,,,,,,,,,,,,,,,,,,,,,,,,,,,,,,,,,,,,
,,5d7957036797da0019537ad1,2023-12-06_23h35.05.582,kallum_motion_pilot,2023.2.3,Win32,48.12319538,5d7957036797da0019537ad1,6560176e4d91f764e2a42c74,657159169e2550a2ba46fdf3,0.059,0.059,1,16,178,92,1,sevenfive,,,,,,,,,,,,,,,,,,,,,,,,,,,,,,,,,,,,,,,,,,,,,,,,,,,,,,,,,,,,,,,,,,,,,,,,,,,,,,,,,,,,,,,,,,,,,,,,,,,,,,,,,,,,,,,,,,,,,,,,,,,,,,,,,,,,,,,
,,5d7957036797da0019537ad1,2023-12-06_23h35.05.582,kallum_motion_pilot,2023.2.3,Win32,48.12319538,5d7957036797da0019537ad1,6560176e4d91f764e2a42c74,657159169e2550a2ba46fdf3,0.059,0.059,1,17,179,19,1,twofour,,,,,,,,,,,,,,,,,,,,,,,,,,,,,,,,,,,,,,,,,,,,,,,,,,,,,,,,,,,,,,,,,,,,,,,,,,,,,,,,,,,,,,,,,,,,,,,,,,,,,,,,,,,,,,,,,,,,,,,,,,,,,,,,,,,,,,,
,,5d7957036797da0019537ad1,2023-12-06_23h35.05.582,kallum_motion_pilot,2023.2.3,Win32,48.12319538,5d7957036797da0019537ad1,6560176e4d91f764e2a42c74,657159169e2550a2ba46fdf3,0.062,0.062,1,18,180,59,1,twofour,,,,,,,,,,,,,,,,,,,,,,,,,,,,,,,,,,,,,,,,,,,,,,,,,,,,,,,,,,,,,,,,,,,,,,,,,,,,,,,,,,,,,,,,,,,,,,,,,,,,,,,,,,,,,,,,,,,,,,,,,,,,,,,,,,,,,,,
,,5d7957036797da0019537ad1,2023-12-06_23h35.05.582,kallum_motion_pilot,2023.2.3,Win32,48.12319538,5d7957036797da0019537ad1,6560176e4d91f764e2a42c74,657159169e2550a2ba46fdf3,0.062,0.062,1,19,181,133,1,seveneight,,,,,,,,,,,,,,,,,,,,,,,,,,,,,,,,,,,,,,,,,,,,,,,,,,,,,,,,,,,,,,,,,,,,,,,,,,,,,,,,,,,,,,,,,,,,,,,,,,,,,,,,,,,,,,,,,,,,,,,,,,,,,,,,,,,,,,,
,,5d7957036797da0019537ad1,2023-12-06_23h35.05.582,kallum_motion_pilot,2023.2.3,Win32,48.12319538,5d7957036797da0019537ad1,6560176e4d91f764e2a42c74,657159169e2550a2ba46fdf3,0.062,0.062,1,20,182,55,1,fourthree,,,,,,,,,,,,,,,,,,,,,,,,,,,,,,,,,,,,,,,,,,,,,,,,,,,,,,,,,,,,,,,,,,,,,,,,,,,,,,,,,,,,,,,,,,,,,,,,,,,,,,,,,,,,,,,,,,,,,,,,,,,,,,,,,,,,,,,
,,5d7957036797da0019537ad1,2023-12-06_23h35.05.582,kallum_motion_pilot,2023.2.3,Win32,48.12319538,5d7957036797da0019537ad1,6560176e4d91f764e2a42c74,657159169e2550a2ba46fdf3,0.062,0.062,1,21,183,21,1,threefour,,,,,,,,,,,,,,,,,,,,,,,,,,,,,,,,,,,,,,,,,,,,,,,,,,,,,,,,,,,,,,,,,,,,,,,,,,,,,,,,,,,,,,,,,,,,,,,,,,,,,,,,,,,,,,,,,,,,,,,,,,,,,,,,,,,,,,,
,,5d7957036797da0019537ad1,2023-12-06_23h35.05.582,kallum_motion_pilot,2023.2.3,Win32,48.12319538,5d7957036797da0019537ad1,6560176e4d91f764e2a42c74,657159169e2550a2ba46fdf3,0.062,0.062,1,22,184,43,1,twofour,,,,,,,,,,,,,,,,,,,,,,,,,,,,,,,,,,,,,,,,,,,,,,,,,,,,,,,,,,,,,,,,,,,,,,,,,,,,,,,,,,,,,,,,,,,,,,,,,,,,,,,,,,,,,,,,,,,,,,,,,,,,,,,,,,,,,,,
,,5d7957036797da0019537ad1,2023-12-06_23h35.05.582,kallum_motion_pilot,2023.2.3,Win32,48.12319538,5d7957036797da0019537ad1,6560176e4d91f764e2a42c74,657159169e2550a2ba46fdf3,0.063,0.063,1,23,185,33,1,onethree,,,,,,,,,,,,,,,,,,,,,,,,,,,,,,,,,,,,,,,,,,,,,,,,,,,,,,,,,,,,,,,,,,,,,,,,,,,,,,,,,,,,,,,,,,,,,,,,,,,,,,,,,,,,,,,,,,,,,,,,,,,,,,,,,,,,,,,
,,5d7957036797da0019537ad1,2023-12-06_23h35.05.582,kallum_motion_pilot,2023.2.3,Win32,48.12319538,5d7957036797da0019537ad1,6560176e4d91f764e2a42c74,657159169e2550a2ba46fdf3,0.063,0.063,1,24,186,118,1,eightsix,,,,,,,,,,,,,,,,,,,,,,,,,,,,,,,,,,,,,,,,,,,,,,,,,,,,,,,,,,,,,,,,,,,,,,,,,,,,,,,,,,,,,,,,,,,,,,,,,,,,,,,,,,,,,,,,,,,,,,,,,,,,,,,,,,,,,,,
,,5d7957036797da0019537ad1,2023-12-06_23h35.05.582,kallum_motion_pilot,2023.2.3,Win32,48.12319538,5d7957036797da0019537ad1,6560176e4d91f764e2a42c74,657159169e2550a2ba46fdf3,0.063,0.063,1,25,187,93,1,seveneight,,,,,,,,,,,,,,,,,,,,,,,,,,,,,,,,,,,,,,,,,,,,,,,,,,,,,,,,,,,,,,,,,,,,,,,,,,,,,,,,,,,,,,,,,,,,,,,,,,,,,,,,,,,,,,,,,,,,,,,,,,,,,,,,,,,,,,,
,,5d7957036797da0019537ad1,2023-12-06_23h35.05.582,kallum_motion_pilot,2023.2.3,Win32,48.12319538,5d7957036797da0019537ad1,6560176e4d91f764e2a42c74,657159169e2550a2ba46fdf3,0.063,0.063,1,26,188,70,1,fourtwo,,,,,,,,,,,,,,,,,,,,,,,,,,,,,,,,,,,,,,,,,,,,,,,,,,,,,,,,,,,,,,,,,,,,,,,,,,,,,,,,,,,,,,,,,,,,,,,,,,,,,,,,,,,,,,,,,,,,,,,,,,,,,,,,,,,,,,,
,,5d7957036797da0019537ad1,2023-12-06_23h35.05.582,kallum_motion_pilot,2023.2.3,Win32,48.12319538,5d7957036797da0019537ad1,6560176e4d91f764e2a42c74,657159169e2550a2ba46fdf3,0.063,0.063,1,27,189,97,1,fiveseven,,,,,,,,,,,,,,,,,,,,,,,,,,,,,,,,,,,,,,,,,,,,,,,,,,,,,,,,,,,,,,,,,,,,,,,,,,,,,,,,,,,,,,,,,,,,,,,,,,,,,,,,,,,,,,,,,,,,,,,,,,,,,,,,,,,,,,,
,,5d7957036797da0019537ad1,2023-12-06_23h35.05.582,kallum_motion_pilot,2023.2.3,Win32,48.12319538,5d7957036797da0019537ad1,6560176e4d91f764e2a42c74,657159169e2550a2ba46fdf3,0.064,0.064,1,28,190,105,1,fiveseven,,,,,,,,,,,,,,,,,,,,,,,,,,,,,,,,,,,,,,,,,,,,,,,,,,,,,,,,,,,,,,,,,,,,,,,,,,,,,,,,,,,,,,,,,,,,,,,,,,,,,,,,,,,,,,,,,,,,,,,,,,,,,,,,,,,,,,,
,,5d7957036797da0019537ad1,2023-12-06_23h35.05.582,kallum_motion_pilot,2023.2.3,Win32,48.12319538,5d7957036797da0019537ad1,6560176e4d91f764e2a42c74,657159169e2550a2ba46fdf3,0.064,0.064,1,29,191,29,1,threefour,,,,,,,,,,,,,,,,,,,,,,,,,,,,,,,,,,,,,,,,,,,,,,,,,,,,,,,,,,,,,,,,,,,,,,,,,,,,,,,,,,,,,,,,,,,,,,,,,,,,,,,,,,,,,,,,,,,,,,,,,,,,,,,,,,,,,,,
,,5d7957036797da0019537ad1,2023-12-06_23h35.05.582,kallum_motion_pilot,2023.2.3,Win32,48.12319538,5d7957036797da0019537ad1,6560176e4d91f764e2a42c74,657159169e2550a2ba46fdf3,0.064,0.064,1,30,192,124,1,sevenfive,,,,,,,,,,,,,,,,,,,,,,,,,,,,,,,,,,,,,,,,,,,,,,,,,,,,,,,,,,,,,,,,,,,,,,,,,,,,,,,,,,,,,,,,,,,,,,,,,,,,,,,,,,,,,,,,,,,,,,,,,,,,,,,,,,,,,,,
,,5d7957036797da0019537ad1,2023-12-06_23h35.05.582,kallum_motion_pilot,2023.2.3,Win32,48.12319538,5d7957036797da0019537ad1,6560176e4d91f764e2a42c74,657159169e2550a2ba46fdf3,0.064,0.064,1,31,193,148,1,sevenfive,,,,,,,,,,,,,,,,,,,,,,,,,,,,,,,,,,,,,,,,,,,,,,,,,,,,,,,,,,,,,,,,,,,,,,,,,,,,,,,,,,,,,,,,,,,,,,,,,,,,,,,,,,,,,,,,,,,,,,,,,,,,,,,,,,,,,,,
,,5d7957036797da0019537ad1,2023-12-06_23h35.05.582,kallum_motion_pilot,2023.2.3,Win32,48.12319538,5d7957036797da0019537ad1,6560176e4d91f764e2a42c74,657159169e2550a2ba46fdf3,0.064,0.064,1,32,194,6,1,fourtwo,,,,,,,,,,,,,,,,,,,,,,,,,,,,,,,,,,,,,,,,,,,,,,,,,,,,,,,,,,,,,,,,,,,,,,,,,,,,,,,,,,,,,,,,,,,,,,,,,,,,,,,,,,,,,,,,,,,,,,,,,,,,,,,,,,,,,,,
,,5d7957036797da0019537ad1,2023-12-06_23h35.05.582,kallum_motion_pilot,2023.2.3,Win32,48.12319538,5d7957036797da0019537ad1,6560176e4d91f764e2a42c74,657159169e2550a2ba46fdf3,0.064,0.064,1,33,195,52,1,threeone,,,,,,,,,,,,,,,,,,,,,,,,,,,,,,,,,,,,,,,,,,,,,,,,,,,,,,,,,,,,,,,,,,,,,,,,,,,,,,,,,,,,,,,,,,,,,,,,,,,,,,,,,,,,,,,,,,,,,,,,,,,,,,,,,,,,,,,
,,5d7957036797da0019537ad1,2023-12-06_23h35.05.582,kallum_motion_pilot,2023.2.3,Win32,48.12319538,5d7957036797da0019537ad1,6560176e4d91f764e2a42c74,657159169e2550a2ba46fdf3,0.065,0.065,1,34,196,102,1,eightsix,,,,,,,,,,,,,,,,,,,,,,,,,,,,,,,,,,,,,,,,,,,,,,,,,,,,,,,,,,,,,,,,,,,,,,,,,,,,,,,,,,,,,,,,,,,,,,,,,,,,,,,,,,,,,,,,,,,,,,,,,,,,,,,,,,,,,,,
,,5d7957036797da0019537ad1,2023-12-06_23h35.05.582,kallum_motion_pilot,2023.2.3,Win32,48.12319538,5d7957036797da0019537ad1,6560176e4d91f764e2a42c74,657159169e2550a2ba46fdf3,0.065,0.065,1,35,197,30,1,fourtwo,,,,,,,,,,,,,,,,,,,,,,,,,,,,,,,,,,,,,,,,,,,,,,,,,,,,,,,,,,,,,,,,,,,,,,,,,,,,,,,,,,,,,,,,,,,,,,,,,,,,,,,,,,,,,,,,,,,,,,,,,,,,,,,,,,,,,,,
,,5d7957036797da0019537ad1,2023-12-06_23h35.05.582,kallum_motion_pilot,2023.2.3,Win32,48.12319538,5d7957036797da0019537ad1,6560176e4d91f764e2a42c74,657159169e2550a2ba46fdf3,0.065,0.065,1,36,198,138,1,sixfive,,,,,,,,,,,,,,,,,,,,,,,,,,,,,,,,,,,,,,,,,,,,,,,,,,,,,,,,,,,,,,,,,,,,,,,,,,,,,,,,,,,,,,,,,,,,,,,,,,,,,,,,,,,,,,,,,,,,,,,,,,,,,,,,,,,,,,,
,,5d7957036797da0019537ad1,2023-12-06_23h35.05.582,kallum_motion_pilot,2023.2.3,Win32,48.12319538,5d7957036797da0019537ad1,6560176e4d91f764e2a42c74,657159169e2550a2ba46fdf3,0.065,0.065,1,37,199,153,1,fiveseven,,,,,,,,,,,,,,,,,,,,,,,,,,,,,,,,,,,,,,,,,,,,,,,,,,,,,,,,,,,,,,,,,,,,,,,,,,,,,,,,,,,,,,,,,,,,,,,,,,,,,,,,,,,,,,,,,,,,,,,,,,,,,,,,,,,,,,,
,,5d7957036797da0019537ad1,2023-12-06_23h35.05.582,kallum_motion_pilot,2023.2.3,Win32,48.12319538,5d7957036797da0019537ad1,6560176e4d91f764e2a42c74,657159169e2550a2ba46fdf3,0.065,0.065,1,38,200,130,1,sixfive,,,,,,,,,,,,,,,,,,,,,,,,,,,,,,,,,,,,,,,,,,,,,,,,,,,,,,,,,,,,,,,,,,,,,,,,,,,,,,,,,,,,,,,,,,,,,,,,,,,,,,,,,,,,,,,,,,,,,,,,,,,,,,,,,,,,,,,
,,5d7957036797da0019537ad1,2023-12-06_23h35.05.582,kallum_motion_pilot,2023.2.3,Win32,48.12319538,5d7957036797da0019537ad1,6560176e4d91f764e2a42c74,657159169e2550a2ba46fdf3,0.065,0.065,1,39,201,78,1,fourtwo,,,,,,,,,,,,,,,,,,,,,,,,,,,,,,,,,,,,,,,,,,,,,,,,,,,,,,,,,,,,,,,,,,,,,,,,,,,,,,,,,,,,,,,,,,,,,,,,,,,,,,,,,,,,,,,,,,,,,,,,,,,,,,,,,,,,,,,
,,5d7957036797da0019537ad1,2023-12-06_23h35.05.582,kallum_motion_pilot,2023.2.3,Win32,48.12319538,5d7957036797da0019537ad1,6560176e4d91f764e2a42c74,657159169e2550a2ba46fdf3,0.065,0.065,1,40,202,119,1,eightseven,,,,,,,,,,,,,,,,,,,,,,,,,,,,,,,,,,,,,,,,,,,,,,,,,,,,,,,,,,,,,,,,,,,,,,,,,,,,,,,,,,,,,,,,,,,,,,,,,,,,,,,,,,,,,,,,,,,,,,,,,,,,,,,,,,,,,,,
,,5d7957036797da0019537ad1,2023-12-06_23h35.05.582,kallum_motion_pilot,2023.2.3,Win32,48.12319538,5d7957036797da0019537ad1,6560176e4d91f764e2a42c74,657159169e2550a2ba46fdf3,0.065,0.065,1,41,203,63,1,fourthree,,,,,,,,,,,,,,,,,,,,,,,,,,,,,,,,,,,,,,,,,,,,,,,,,,,,,,,,,,,,,,,,,,,,,,,,,,,,,,,,,,,,,,,,,,,,,,,,,,,,,,,,,,,,,,,,,,,,,,,,,,,,,,,,,,,,,,,
,,5d7957036797da0019537ad1,2023-12-06_23h35.05.582,kallum_motion_pilot,2023.2.3,Win32,48.12319538,5d7957036797da0019537ad1,6560176e4d91f764e2a42c74,657159169e2550a2ba46fdf3,0.065,0.065,1,42,204,5,1,threefour,,,,,,,,,,,,,,,,,,,,,,,,,,,,,,,,,,,,,,,,,,,,,,,,,,,,,,,,,,,,,,,,,,,,,,,,,,,,,,,,,,,,,,,,,,,,,,,,,,,,,,,,,,,,,,,,,,,,,,,,,,,,,,,,,,,,,,,
,,5d7957036797da0019537ad1,2023-12-06_23h35.05.582,kallum_motion_pilot,2023.2.3,Win32,48.12319538,5d7957036797da0019537ad1,6560176e4d91f764e2a42c74,657159169e2550a2ba46fdf3,0.066,0.066,1,43,205,95,1,eightseven,,,,,,,,,,,,,,,,,,,,,,,,,,,,,,,,,,,,,,,,,,,,,,,,,,,,,,,,,,,,,,,,,,,,,,,,,,,,,,,,,,,,,,,,,,,,,,,,,,,,,,,,,,,,,,,,,,,,,,,,,,,,,,,,,,,,,,,
,,5d7957036797da0019537ad1,2023-12-06_23h35.05.582,kallum_motion_pilot,2023.2.3,Win32,48.12319538,5d7957036797da0019537ad1,6560176e4d91f764e2a42c74,657159169e2550a2ba46fdf3,0.066,0.066,1,44,206,114,1,sixfive,,,,,,,,,,,,,,,,,,,,,,,,,,,,,,,,,,,,,,,,,,,,,,,,,,,,,,,,,,,,,,,,,,,,,,,,,,,,,,,,,,,,,,,,,,,,,,,,,,,,,,,,,,,,,,,,,,,,,,,,,,,,,,,,,,,,,,,
,,5d7957036797da0019537ad1,2023-12-06_23h35.05.582,kallum_motion_pilot,2023.2.3,Win32,48.12319538,5d7957036797da0019537ad1,6560176e4d91f764e2a42c74,657159169e2550a2ba46fdf3,0.066,0.066,1,45,207,16,1,onetwo,,,,,,,,,,,,,,,,,,,,,,,,,,,,,,,,,,,,,,,,,,,,,,,,,,,,,,,,,,,,,,,,,,,,,,,,,,,,,,,,,,,,,,,,,,,,,,,,,,,,,,,,,,,,,,,,,,,,,,,,,,,,,,,,,,,,,,,
,,5d7957036797da0019537ad1,2023-12-06_23h35.05.582,kallum_motion_pilot,2023.2.3,Win32,48.12319538,5d7957036797da0019537ad1,6560176e4d91f764e2a42c74,657159169e2550a2ba46fdf3,0.066,0.066,1,46,208,77,1,threefour,,,,,,,,,,,,,,,,,,,,,,,,,,,,,,,,,,,,,,,,,,,,,,,,,,,,,,,,,,,,,,,,,,,,,,,,,,,,,,,,,,,,,,,,,,,,,,,,,,,,,,,,,,,,,,,,,,,,,,,,,,,,,,,,,,,,,,,
,,5d7957036797da0019537ad1,2023-12-06_23h35.05.582,kallum_motion_pilot,2023.2.3,Win32,48.12319538,5d7957036797da0019537ad1,6560176e4d91f764e2a42c74,657159169e2550a2ba46fdf3,0.066,0.066,1,47,209,100,1,sevenfive,,,,,,,,,,,,,,,,,,,,,,,,,,,,,,,,,,,,,,,,,,,,,,,,,,,,,,,,,,,,,,,,,,,,,,,,,,,,,,,,,,,,,,,,,,,,,,,,,,,,,,,,,,,,,,,,,,,,,,,,,,,,,,,,,,,,,,,
,,5d7957036797da0019537ad1,2023-12-06_23h35.05.582,kallum_motion_pilot,2023.2.3,Win32,48.12319538,5d7957036797da0019537ad1,6560176e4d91f764e2a42c74,657159169e2550a2ba46fdf3,0.066,0.066,1,48,210,4,1,threeone,,,,,,,,,,,,,,,,,,,,,,,,,,,,,,,,,,,,,,,,,,,,,,,,,,,,,,,,,,,,,,,,,,,,,,,,,,,,,,,,,,,,,,,,,,,,,,,,,,,,,,,,,,,,,,,,,,,,,,,,,,,,,,,,,,,,,,,
,,5d7957036797da0019537ad1,2023-12-06_23h35.05.582,kallum_motion_pilot,2023.2.3,Win32,48.12319538,5d7957036797da0019537ad1,6560176e4d91f764e2a42c74,657159169e2550a2ba46fdf3,0.066,0.066,1,49,211,66,1,twoone,,,,,,,,,,,,,,,,,,,,,,,,,,,,,,,,,,,,,,,,,,,,,,,,,,,,,,,,,,,,,,,,,,,,,,,,,,,,,,,,,,,,,,,,,,,,,,,,,,,,,,,,,,,,,,,,,,,,,,,,,,,,,,,,,,,,,,,
,,5d7957036797da0019537ad1,2023-12-06_23h35.05.582,kallum_motion_pilot,2023.2.3,Win32,48.12319538,5d7957036797da0019537ad1,6560176e4d91f764e2a42c74,657159169e2550a2ba46fdf3,0.066,0.066,1,50,212,117,1,seveneight,,,,,,,,,,,,,,,,,,,,,,,,,,,,,,,,,,,,,,,,,,,,,,,,,,,,,,,,,,,,,,,,,,,,,,,,,,,,,,,,,,,,,,,,,,,,,,,,,,,,,,,,,,,,,,,,,,,,,,,,,,,,,,,,,,,,,,,
,,5d7957036797da0019537ad1,2023-12-06_23h35.05.582,kallum_motion_pilot,2023.2.3,Win32,48.12319538,5d7957036797da0019537ad1,6560176e4d91f764e2a42c74,657159169e2550a2ba46fdf3,0.066,0.066,1,51,213,149,1,seveneight,,,,,,,,,,,,,,,,,,,,,,,,,,,,,,,,,,,,,,,,,,,,,,,,,,,,,,,,,,,,,,,,,,,,,,,,,,,,,,,,,,,,,,,,,,,,,,,,,,,,,,,,,,,,,,,,,,,,,,,,,,,,,,,,,,,,,,,
,,5d7957036797da0019537ad1,2023-12-06_23h35.05.582,kallum_motion_pilot,2023.2.3,Win32,48.12319538,5d7957036797da0019537ad1,6560176e4d91f764e2a42c74,657159169e2550a2ba46fdf3,0.066,0.066,1,52,214,50,1,twoone,,,,,,,,,,,,,,,,,,,,,,,,,,,,,,,,,,,,,,,,,,,,,,,,,,,,,,,,,,,,,,,,,,,,,,,,,,,,,,,,,,,,,,,,,,,,,,,,,,,,,,,,,,,,,,,,,,,,,,,,,,,,,,,,,,,,,,,
,,5d7957036797da0019537ad1,2023-12-06_23h35.05.582,kallum_motion_pilot,2023.2.3,Win32,48.12319538,5d7957036797da0019537ad1,6560176e4d91f764e2a42c74,657159169e2550a2ba46fdf3,0.066,0.066,1,53,215,15,1,fourthree,,,,,,,,,,,,,,,,,,,,,,,,,,,,,,,,,,,,,,,,,,,,,,,,,,,,,,,,,,,,,,,,,,,,,,,,,,,,,,,,,,,,,,,,,,,,,,,,,,,,,,,,,,,,,,,,,,,,,,,,,,,,,,,,,,,,,,,
,,5d7957036797da0019537ad1,2023-12-06_23h35.05.582,kallum_motion_pilot,2023.2.3,Win32,48.12319538,5d7957036797da0019537ad1,6560176e4d91f764e2a42c74,657159169e2550a2ba46fdf3,0.066,0.066,1,54,216,134,1,eightsix,,,,,,,,,,,,,,,,,,,,,,,,,,,,,,,,,,,,,,,,,,,,,,,,,,,,,,,,,,,,,,,,,,,,,,,,,,,,,,,,,,,,,,,,,,,,,,,,,,,,,,,,,,,,,,,,,,,,,,,,,,,,,,,,,,,,,,,
,,5d7957036797da0019537ad1,2023-12-06_23h35.05.582,kallum_motion_pilot,2023.2.3,Win32,48.12319538,5d7957036797da0019537ad1,6560176e4d91f764e2a42c74,657159169e2550a2ba46fdf3,0.067,0.067,1,55,217,72,1,onetwo,,,,,,,,,,,,,,,,,,,,,,,,,,,,,,,,,,,,,,,,,,,,,,,,,,,,,,,,,,,,,,,,,,,,,,,,,,,,,,,,,,,,,,,,,,,,,,,,,,,,,,,,,,,,,,,,,,,,,,,,,,,,,,,,,,,,,,,
,,5d7957036797da0019537ad1,2023-12-06_23h35.05.582,kallum_motion_pilot,2023.2.3,Win32,48.12319538,5d7957036797da0019537ad1,6560176e4d91f764e2a42c74,657159169e2550a2ba46fdf3,0.067,0.067,1,56,218,26,1,twoone,,,,,,,,,,,,,,,,,,,,,,,,,,,,,,,,,,,,,,,,,,,,,,,,,,,,,,,,,,,,,,,,,,,,,,,,,,,,,,,,,,,,,,,,,,,,,,,,,,,,,,,,,,,,,,,,,,,,,,,,,,,,,,,,,,,,,,,
,,5d7957036797da0019537ad1,2023-12-06_23h35.05.582,kallum_motion_pilot,2023.2.3,Win32,48.12319538,5d7957036797da0019537ad1,6560176e4d91f764e2a42c74,657159169e2550a2ba46fdf3,0.067,0.067,1,57,219,123,1,sixeight,,,,,,,,,,,,,,,,,,,,,,,,,,,,,,,,,,,,,,,,,,,,,,,,,,,,,,,,,,,,,,,,,,,,,,,,,,,,,,,,,,,,,,,,,,,,,,,,,,,,,,,,,,,,,,,,,,,,,,,,,,,,,,,,,,,,,,,
,,5d7957036797da0019537ad1,2023-12-06_23h35.05.582,kallum_motion_pilot,2023.2.3,Win32,48.12319538,5d7957036797da0019537ad1,6560176e4d91f764e2a42c74,657159169e2550a2ba46fdf3,0.067,0.067,1,58,220,24,1,onetwo,,,,,,,,,,,,,,,,,,,,,,,,,,,,,,,,,,,,,,,,,,,,,,,,,,,,,,,,,,,,,,,,,,,,,,,,,,,,,,,,,,,,,,,,,,,,,,,,,,,,,,,,,,,,,,,,,,,,,,,,,,,,,,,,,,,,,,,
,,5d7957036797da0019537ad1,2023-12-06_23h35.05.582,kallum_motion_pilot,2023.2.3,Win32,48.12319538,5d7957036797da0019537ad1,6560176e4d91f764e2a42c74,657159169e2550a2ba46fdf3,0.067,0.067,1,59,221,51,1,twofour,,,,,,,,,,,,,,,,,,,,,,,,,,,,,,,,,,,,,,,,,,,,,,,,,,,,,,,,,,,,,,,,,,,,,,,,,,,,,,,,,,,,,,,,,,,,,,,,,,,,,,,,,,,,,,,,,,,,,,,,,,,,,,,,,,,,,,,
,,5d7957036797da0019537ad1,2023-12-06_23h35.05.582,kallum_motion_pilot,2023.2.3,Win32,48.12319538,5d7957036797da0019537ad1,6560176e4d91f764e2a42c74,657159169e2550a2ba46fdf3,0.067,0.067,1,60,222,146,1,sixfive,,,,,,,,,,,,,,,,,,,,,,,,,,,,,,,,,,,,,,,,,,,,,,,,,,,,,,,,,,,,,,,,,,,,,,,,,,,,,,,,,,,,,,,,,,,,,,,,,,,,,,,,,,,,,,,,,,,,,,,,,,,,,,,,,,,,,,,
,,5d7957036797da0019537ad1,2023-12-06_23h35.05.582,kallum_motion_pilot,2023.2.3,Win32,48.12319538,5d7957036797da0019537ad1,6560176e4d91f764e2a42c74,657159169e2550a2ba46fdf3,0.067,0.067,1,61,223,69,1,threefour,,,,,,,,,,,,,,,,,,,,,,,,,,,,,,,,,,,,,,,,,,,,,,,,,,,,,,,,,,,,,,,,,,,,,,,,,,,,,,,,,,,,,,,,,,,,,,,,,,,,,,,,,,,,,,,,,,,,,,,,,,,,,,,,,,,,,,,
,,5d7957036797da0019537ad1,2023-12-06_23h35.05.582,kallum_motion_pilot,2023.2.3,Win32,48.12319538,5d7957036797da0019537ad1,6560176e4d91f764e2a42c74,657159169e2550a2ba46fdf3,0.068,0.068,1,62,224,17,1,onethree,,,,,,,,,,,,,,,,,,,,,,,,,,,,,,,,,,,,,,,,,,,,,,,,,,,,,,,,,,,,,,,,,,,,,,,,,,,,,,,,,,,,,,,,,,,,,,,,,,,,,,,,,,,,,,,,,,,,,,,,,,,,,,,,,,,,,,,
,,5d7957036797da0019537ad1,2023-12-06_23h35.05.582,kallum_motion_pilot,2023.2.3,Win32,48.12319538,5d7957036797da0019537ad1,6560176e4d91f764e2a42c74,657159169e2550a2ba46fdf3,0.068,0.068,1,63,225,86,1,eightsix,,,,,,,,,,,,,,,,,,,,,,,,,,,,,,,,,,,,,,,,,,,,,,,,,,,,,,,,,,,,,,,,,,,,,,,,,,,,,,,,,,,,,,,,,,,,,,,,,,,,,,,,,,,,,,,,,,,,,,,,,,,,,,,,,,,,,,,
,,5d7957036797da0019537ad1,2023-12-06_23h35.05.582,kallum_motion_pilot,2023.2.3,Win32,48.12319538,5d7957036797da0019537ad1,6560176e4d91f764e2a42c74,657159169e2550a2ba46fdf3,0.068,0.068,1,64,226,80,1,fivesix,,,,,,,,,,,,,,,,,,,,,,,,,,,,,,,,,,,,,,,,,,,,,,,,,,,,,,,,,,,,,,,,,,,,,,,,,,,,,,,,,,,,,,,,,,,,,,,,,,,,,,,,,,,,,,,,,,,,,,,,,,,,,,,,,,,,,,,
,,5d7957036797da0019537ad1,2023-12-06_23h35.05.582,kallum_motion_pilot,2023.2.3,Win32,48.12319538,5d7957036797da0019537ad1,6560176e4d91f764e2a42c74,657159169e2550a2ba46fdf3,0.068,0.068,1,65,227,155,1,sixeight,,,,,,,,,,,,,,,,,,,,,,,,,,,,,,,,,,,,,,,,,,,,,,,,,,,,,,,,,,,,,,,,,,,,,,,,,,,,,,,,,,,,,,,,,,,,,,,,,,,,,,,,,,,,,,,,,,,,,,,,,,,,,,,,,,,,,,,
,,5d7957036797da0019537ad1,2023-12-06_23h35.05.582,kallum_motion_pilot,2023.2.3,Win32,48.12319538,5d7957036797da0019537ad1,6560176e4d91f764e2a42c74,657159169e2550a2ba46fdf3,0.069,0.069,1,66,228,111,1,eightseven,,,,,,,,,,,,,,,,,,,,,,,,,,,,,,,,,,,,,,,,,,,,,,,,,,,,,,,,,,,,,,,,,,,,,,,,,,,,,,,,,,,,,,,,,,,,,,,,,,,,,,,,,,,,,,,,,,,,,,,,,,,,,,,,,,,,,,,
,,5d7957036797da0019537ad1,2023-12-06_23h35.05.582,kallum_motion_pilot,2023.2.3,Win32,48.12319538,5d7957036797da0019537ad1,6560176e4d91f764e2a42c74,657159169e2550a2ba46fdf3,0.069,0.069,1,67,229,99,1,sixeight,,,,,,,,,,,,,,,,,,,,,,,,,,,,,,,,,,,,,,,,,,,,,,,,,,,,,,,,,,,,,,,,,,,,,,,,,,,,,,,,,,,,,,,,,,,,,,,,,,,,,,,,,,,,,,,,,,,,,,,,,,,,,,,,,,,,,,,
,,5d7957036797da0019537ad1,2023-12-06_23h35.05.582,kallum_motion_pilot,2023.2.3,Win32,48.12319538,5d7957036797da0019537ad1,6560176e4d91f764e2a42c74,657159169e2550a2ba46fdf3,0.069,0.069,1,68,230,11,1,twofour,,,,,,,,,,,,,,,,,,,,,,,,,,,,,,,,,,,,,,,,,,,,,,,,,,,,,,,,,,,,,,,,,,,,,,,,,,,,,,,,,,,,,,,,,,,,,,,,,,,,,,,,,,,,,,,,,,,,,,,,,,,,,,,,,,,,,,,
,,5d7957036797da0019537ad1,2023-12-06_23h35.05.582,kallum_motion_pilot,2023.2.3,Win32,48.12319538,5d7957036797da0019537ad1,6560176e4d91f764e2a42c74,657159169e2550a2ba46fdf3,0.069,0.069,1,69,231,82,1,sixfive,,,,,,,,,,,,,,,,,,,,,,,,,,,,,,,,,,,,,,,,,,,,,,,,,,,,,,,,,,,,,,,,,,,,,,,,,,,,,,,,,,,,,,,,,,,,,,,,,,,,,,,,,,,,,,,,,,,,,,,,,,,,,,,,,,,,,,,
,,5d7957036797da0019537ad1,2023-12-06_23h35.05.582,kallum_motion_pilot,2023.2.3,Win32,48.12319538,5d7957036797da0019537ad1,6560176e4d91f764e2a42c74,657159169e2550a2ba46fdf3,0.069,0.069,1,70,232,79,1,eightseven,,,,,,,,,,,,,,,,,,,,,,,,,,,,,,,,,,,,,,,,,,,,,,,,,,,,,,,,,,,,,,,,,,,,,,,,,,,,,,,,,,,,,,,,,,,,,,,,,,,,,,,,,,,,,,,,,,,,,,,,,,,,,,,,,,,,,,,
,,5d7957036797da0019537ad1,2023-12-06_23h35.05.582,kallum_motion_pilot,2023.2.3,Win32,48.12319538,5d7957036797da0019537ad1,6560176e4d91f764e2a42c74,657159169e2550a2ba46fdf3,0.069,0.069,1,71,233,32,1,onetwo,,,,,,,,,,,,,,,,,,,,,,,,,,,,,,,,,,,,,,,,,,,,,,,,,,,,,,,,,,,,,,,,,,,,,,,,,,,,,,,,,,,,,,,,,,,,,,,,,,,,,,,,,,,,,,,,,,,,,,,,,,,,,,,,,,,,,,,
,,5d7957036797da0019537ad1,2023-12-06_23h35.05.582,kallum_motion_pilot,2023.2.3,Win32,48.12319538,5d7957036797da0019537ad1,6560176e4d91f764e2a42c74,657159169e2550a2ba46fdf3,0.069,0.07,1,72,234,116,1,sevenfive,,,,,,,,,,,,,,,,,,,,,,,,,,,,,,,,,,,,,,,,,,,,,,,,,,,,,,,,,,,,,,,,,,,,,,,,,,,,,,,,,,,,,,,,,,,,,,,,,,,,,,,,,,,,,,,,,,,,,,,,,,,,,,,,,,,,,,,
,,5d7957036797da0019537ad1,2023-12-06_23h35.05.582,kallum_motion_pilot,2023.2.3,Win32,48.12319538,5d7957036797da0019537ad1,6560176e4d91f764e2a42c74,657159169e2550a2ba46fdf3,0.07,0.07,1,73,235,113,1,fiveseven,,,,,,,,,,,,,,,,,,,,,,,,,,,,,,,,,,,,,,,,,,,,,,,,,,,,,,,,,,,,,,,,,,,,,,,,,,,,,,,,,,,,,,,,,,,,,,,,,,,,,,,,,,,,,,,,,,,,,,,,,,,,,,,,,,,,,,,
,,5d7957036797da0019537ad1,2023-12-06_23h35.05.582,kallum_motion_pilot,2023.2.3,Win32,48.12319538,5d7957036797da0019537ad1,6560176e4d91f764e2a42c74,657159169e2550a2ba46fdf3,0.071,0.071,1,74,236,145,1,fiveseven,,,,,,,,,,,,,,,,,,,,,,,,,,,,,,,,,,,,,,,,,,,,,,,,,,,,,,,,,,,,,,,,,,,,,,,,,,,,,,,,,,,,,,,,,,,,,,,,,,,,,,,,,,,,,,,,,,,,,,,,,,,,,,,,,,,,,,,
,,5d7957036797da0019537ad1,2023-12-06_23h35.05.582,kallum_motion_pilot,2023.2.3,Win32,48.12319538,5d7957036797da0019537ad1,6560176e4d91f764e2a42c74,657159169e2550a2ba46fdf3,0.071,0.071,1,75,237,81,1,fiveseven,,,,,,,,,,,,,,,,,,,,,,,,,,,,,,,,,,,,,,,,,,,,,,,,,,,,,,,,,,,,,,,,,,,,,,,,,,,,,,,,,,,,,,,,,,,,,,,,,,,,,,,,,,,,,,,,,,,,,,,,,,,,,,,,,,,,,,,
,,5d7957036797da0019537ad1,2023-12-06_23h35.05.582,kallum_motion_pilot,2023.2.3,Win32,48.12319538,5d7957036797da0019537ad1,6560176e4d91f764e2a42c74,657159169e2550a2ba46fdf3,0.071,0.071,1,76,238,94,1,eightsix,,,,,,,,,,,,,,,,,,,,,,,,,,,,,,,,,,,,,,,,,,,,,,,,,,,,,,,,,,,,,,,,,,,,,,,,,,,,,,,,,,,,,,,,,,,,,,,,,,,,,,,,,,,,,,,,,,,,,,,,,,,,,,,,,,,,,,,
,,5d7957036797da0019537ad1,2023-12-06_23h35.05.582,kallum_motion_pilot,2023.2.3,Win32,48.12319538,5d7957036797da0019537ad1,6560176e4d91f764e2a42c74,657159169e2550a2ba46fdf3,0.071,0.071,1,77,239,157,1,seveneight,,,,,,,,,,,,,,,,,,,,,,,,,,,,,,,,,,,,,,,,,,,,,,,,,,,,,,,,,,,,,,,,,,,,,,,,,,,,,,,,,,,,,,,,,,,,,,,,,,,,,,,,,,,,,,,,,,,,,,,,,,,,,,,,,,,,,,,
,,5d7957036797da0019537ad1,2023-12-06_23h35.05.582,kallum_motion_pilot,2023.2.3,Win32,48.12319538,5d7957036797da0019537ad1,6560176e4d91f764e2a42c74,657159169e2550a2ba46fdf3,0.071,0.071,1,78,240,38,1,fourtwo,,,,,,,,,,,,,,,,,,,,,,,,,,,,,,,,,,,,,,,,,,,,,,,,,,,,,,,,,,,,,,,,,,,,,,,,,,,,,,,,,,,,,,,,,,,,,,,,,,,,,,,,,,,,,,,,,,,,,,,,,,,,,,,,,,,,,,,
,,5d7957036797da0019537ad1,2023-12-06_23h35.05.582,kallum_motion_pilot,2023.2.3,Win32,48.12319538,5d7957036797da0019537ad1,6560176e4d91f764e2a42c74,657159169e2550a2ba46fdf3,0.071,0.071,1,79,241,161,1,fiveseven,,,,,,,,,,,,,,,,,,,,,,,,,,,,,,,,,,,,,,,,,,,,,,,,,,,,,,,,,,,,,,,,,,,,,,,,,,,,,,,,,,,,,,,,,,,,,,,,,,,,,,,,,,,,,,,,,,,,,,,,,,,,,,,,,,,,,,,
,,5d7957036797da0019537ad1,2023-12-06_23h35.05.582,kallum_motion_pilot,2023.2.3,Win32,48.12319538,5d7957036797da0019537ad1,6560176e4d91f764e2a42c74,657159169e2550a2ba46fdf3,0.071,0.071,1,80,242,35,1,twofour,,,,,,,,,,,,,,,,,,,,,,,,,,,,,,,,,,,,,,,,,,,,,,,,,,,,,,,,,,,,,,,,,,,,,,,,,,,,,,,,,,,,,,,,,,,,,,,,,,,,,,,,,,,,,,,,,,,,,,,,,,,,,,,,,,,,,,,
,,5d7957036797da0019537ad1,2023-12-06_23h35.05.582,kallum_motion_pilot,2023.2.3,Win32,48.12319538,5d7957036797da0019537ad1,6560176e4d91f764e2a42c74,657159169e2550a2ba46fdf3,0.071,0.071,1,81,243,40,1,onetwo,,,,,,,,,,,,,,,,,,,,,,,,,,,,,,,,,,,,,,,,,,,,,,,,,,,,,,,,,,,,,,,,,,,,,,,,,,,,,,,,,,,,,,,,,,,,,,,,,,,,,,,,,,,,,,,,,,,,,,,,,,,,,,,,,,,,,,,
,,5d7957036797da0019537ad1,2023-12-06_23h35.05.582,kallum_motion_pilot,2023.2.3,Win32,48.12319538,5d7957036797da0019537ad1,6560176e4d91f764e2a42c74,657159169e2550a2ba46fdf3,0.071,0.071,1,82,244,18,1,twoone,,,,,,,,,,,,,,,,,,,,,,,,,,,,,,,,,,,,,,,,,,,,,,,,,,,,,,,,,,,,,,,,,,,,,,,,,,,,,,,,,,,,,,,,,,,,,,,,,,,,,,,,,,,,,,,,,,,,,,,,,,,,,,,,,,,,,,,
,,5d7957036797da0019537ad1,2023-12-06_23h35.05.582,kallum_motion_pilot,2023.2.3,Win32,48.12319538,5d7957036797da0019537ad1,6560176e4d91f764e2a42c74,657159169e2550a2ba46fdf3,0.071,0.071,1,83,245,36,1,threeone,,,,,,,,,,,,,,,,,,,,,,,,,,,,,,,,,,,,,,,,,,,,,,,,,,,,,,,,,,,,,,,,,,,,,,,,,,,,,,,,,,,,,,,,,,,,,,,,,,,,,,,,,,,,,,,,,,,,,,,,,,,,,,,,,,,,,,,
,,5d7957036797da0019537ad1,2023-12-06_23h35.05.582,kallum_motion_pilot,2023.2.3,Win32,48.12319538,5d7957036797da0019537ad1,6560176e4d91f764e2a42c74,657159169e2550a2ba46fdf3,0.071,0.071,1,84,246,89,1,fiveseven,,,,,,,,,,,,,,,,,,,,,,,,,,,,,,,,,,,,,,,,,,,,,,,,,,,,,,,,,,,,,,,,,,,,,,,,,,,,,,,,,,,,,,,,,,,,,,,,,,,,,,,,,,,,,,,,,,,,,,,,,,,,,,,,,,,,,,,
,,5d7957036797da0019537ad1,2023-12-06_23h35.05.582,kallum_motion_pilot,2023.2.3,Win32,48.12319538,5d7957036797da0019537ad1,6560176e4d91f764e2a42c74,657159169e2550a2ba46fdf3,0.071,0.071,1,85,247,129,1,fiveseven,,,,,,,,,,,,,,,,,,,,,,,,,,,,,,,,,,,,,,,,,,,,,,,,,,,,,,,,,,,,,,,,,,,,,,,,,,,,,,,,,,,,,,,,,,,,,,,,,,,,,,,,,,,,,,,,,,,,,,,,,,,,,,,,,,,,,,,
,,5d7957036797da0019537ad1,2023-12-06_23h35.05.582,kallum_motion_pilot,2023.2.3,Win32,48.12319538,5d7957036797da0019537ad1,6560176e4d91f764e2a42c74,657159169e2550a2ba46fdf3,0.071,0.071,1,86,248,76,1,threeone,,,,,,,,,,,,,,,,,,,,,,,,,,,,,,,,,,,,,,,,,,,,,,,,,,,,,,,,,,,,,,,,,,,,,,,,,,,,,,,,,,,,,,,,,,,,,,,,,,,,,,,,,,,,,,,,,,,,,,,,,,,,,,,,,,,,,,,
,,5d7957036797da0019537ad1,2023-12-06_23h35.05.582,kallum_motion_pilot,2023.2.3,Win32,48.12319538,5d7957036797da0019537ad1,6560176e4d91f764e2a42c74,657159169e2550a2ba46fdf3,0.072,0.072,1,87,249,104,1,fivesix,,,,,,,,,,,,,,,,,,,,,,,,,,,,,,,,,,,,,,,,,,,,,,,,,,,,,,,,,,,,,,,,,,,,,,,,,,,,,,,,,,,,,,,,,,,,,,,,,,,,,,,,,,,,,,,,,,,,,,,,,,,,,,,,,,,,,,,
,,5d7957036797da0019537ad1,2023-12-06_23h35.05.582,kallum_motion_pilot,2023.2.3,Win32,48.12319538,5d7957036797da0019537ad1,6560176e4d91f764e2a42c74,657159169e2550a2ba46fdf3,0.072,0.072,1,88,250,143,1,eightseven,,,,,,,,,,,,,,,,,,,,,,,,,,,,,,,,,,,,,,,,,,,,,,,,,,,,,,,,,,,,,,,,,,,,,,,,,,,,,,,,,,,,,,,,,,,,,,,,,,,,,,,,,,,,,,,,,,,,,,,,,,,,,,,,,,,,,,,
,,5d7957036797da0019537ad1,2023-12-06_23h35.05.582,kallum_motion_pilot,2023.2.3,Win32,48.12319538,5d7957036797da0019537ad1,6560176e4d91f764e2a42c74,657159169e2550a2ba46fdf3,0.072,0.072,1,89,251,132,1,sevenfive,,,,,,,,,,,,,,,,,,,,,,,,,,,,,,,,,,,,,,,,,,,,,,,,,,,,,,,,,,,,,,,,,,,,,,,,,,,,,,,,,,,,,,,,,,,,,,,,,,,,,,,,,,,,,,,,,,,,,,,,,,,,,,,,,,,,,,,
,,5d7957036797da0019537ad1,2023-12-06_23h35.05.582,kallum_motion_pilot,2023.2.3,Win32,48.12319538,5d7957036797da0019537ad1,6560176e4d91f764e2a42c74,657159169e2550a2ba46fdf3,0.072,0.072,1,90,252,42,1,twoone,,,,,,,,,,,,,,,,,,,,,,,,,,,,,,,,,,,,,,,,,,,,,,,,,,,,,,,,,,,,,,,,,,,,,,,,,,,,,,,,,,,,,,,,,,,,,,,,,,,,,,,,,,,,,,,,,,,,,,,,,,,,,,,,,,,,,,,
,,5d7957036797da0019537ad1,2023-12-06_23h35.05.582,kallum_motion_pilot,2023.2.3,Win32,48.12319538,5d7957036797da0019537ad1,6560176e4d91f764e2a42c74,657159169e2550a2ba46fdf3,0.072,0.072,1,91,253,10,1,twoone,,,,,,,,,,,,,,,,,,,,,,,,,,,,,,,,,,,,,,,,,,,,,,,,,,,,,,,,,,,,,,,,,,,,,,,,,,,,,,,,,,,,,,,,,,,,,,,,,,,,,,,,,,,,,,,,,,,,,,,,,,,,,,,,,,,,,,,
,,5d7957036797da0019537ad1,2023-12-06_23h35.05.582,kallum_motion_pilot,2023.2.3,Win32,48.12319538,5d7957036797da0019537ad1,6560176e4d91f764e2a42c74,657159169e2550a2ba46fdf3,0.072,0.072,1,92,254,85,1,seveneight,,,,,,,,,,,,,,,,,,,,,,,,,,,,,,,,,,,,,,,,,,,,,,,,,,,,,,,,,,,,,,,,,,,,,,,,,,,,,,,,,,,,,,,,,,,,,,,,,,,,,,,,,,,,,,,,,,,,,,,,,,,,,,,,,,,,,,,
,,5d7957036797da0019537ad1,2023-12-06_23h35.05.582,kallum_motion_pilot,2023.2.3,Win32,48.12319538,5d7957036797da0019537ad1,6560176e4d91f764e2a42c74,657159169e2550a2ba46fdf3,0.072,0.072,1,93,255,147,1,sixeight,,,,,,,,,,,,,,,,,,,,,,,,,,,,,,,,,,,,,,,,,,,,,,,,,,,,,,,,,,,,,,,,,,,,,,,,,,,,,,,,,,,,,,,,,,,,,,,,,,,,,,,,,,,,,,,,,,,,,,,,,,,,,,,,,,,,,,,
,,5d7957036797da0019537ad1,2023-12-06_23h35.05.582,kallum_motion_pilot,2023.2.3,Win32,48.12319538,5d7957036797da0019537ad1,6560176e4d91f764e2a42c74,657159169e2550a2ba46fdf3,0.072,0.072,1,94,256,61,1,threefour,,,,,,,,,,,,,,,,,,,,,,,,,,,,,,,,,,,,,,,,,,,,,,,,,,,,,,,,,,,,,,,,,,,,,,,,,,,,,,,,,,,,,,,,,,,,,,,,,,,,,,,,,,,,,,,,,,,,,,,,,,,,,,,,,,,,,,,
,,5d7957036797da0019537ad1,2023-12-06_23h35.05.582,kallum_motion_pilot,2023.2.3,Win32,48.12319538,5d7957036797da0019537ad1,6560176e4d91f764e2a42c74,657159169e2550a2ba46fdf3,0.072,0.072,1,95,257,20,1,threeone,,,,,,,,,,,,,,,,,,,,,,,,,,,,,,,,,,,,,,,,,,,,,,,,,,,,,,,,,,,,,,,,,,,,,,,,,,,,,,,,,,,,,,,,,,,,,,,,,,,,,,,,,,,,,,,,,,,,,,,,,,,,,,,,,,,,,,,
,,5d7957036797da0019537ad1,2023-12-06_23h35.05.582,kallum_motion_pilot,2023.2.3,Win32,48.12319538,5d7957036797da0019537ad1,6560176e4d91f764e2a42c74,657159169e2550a2ba46fdf3,0.073,0.073,1,96,258,0,1,onetwo,,,,,,,,,,,,,,,,,,,,,,,,,,,,,,,,,,,,,,,,,,,,,,,,,,,,,,,,,,,,,,,,,,,,,,,,,,,,,,,,,,,,,,,,,,,,,,,,,,,,,,,,,,,,,,,,,,,,,,,,,,,,,,,,,,,,,,,
,,5d7957036797da0019537ad1,2023-12-06_23h35.05.582,kallum_motion_pilot,2023.2.3,Win32,48.12319538,5d7957036797da0019537ad1,6560176e4d91f764e2a42c74,657159169e2550a2ba46fdf3,0.073,0.073,1,97,259,53,1,threefour,,,,,,,,,,,,,,,,,,,,,,,,,,,,,,,,,,,,,,,,,,,,,,,,,,,,,,,,,,,,,,,,,,,,,,,,,,,,,,,,,,,,,,,,,,,,,,,,,,,,,,,,,,,,,,,,,,,,,,,,,,,,,,,,,,,,,,,
,,5d7957036797da0019537ad1,2023-12-06_23h35.05.582,kallum_motion_pilot,2023.2.3,Win32,48.12319538,5d7957036797da0019537ad1,6560176e4d91f764e2a42c74,657159169e2550a2ba46fdf3,0.073,0.073,1,98,260,96,1,fivesix,,,,,,,,,,,,,,,,,,,,,,,,,,,,,,,,,,,,,,,,,,,,,,,,,,,,,,,,,,,,,,,,,,,,,,,,,,,,,,,,,,,,,,,,,,,,,,,,,,,,,,,,,,,,,,,,,,,,,,,,,,,,,,,,,,,,,,,
,,5d7957036797da0019537ad1,2023-12-06_23h35.05.582,kallum_motion_pilot,2023.2.3,Win32,48.12319538,5d7957036797da0019537ad1,6560176e4d91f764e2a42c74,657159169e2550a2ba46fdf3,0.073,0.073,1,99,261,3,1,twofour,,,,,,,,,,,,,,,,,,,,,,,,,,,,,,,,,,,,,,,,,,,,,,,,,,,,,,,,,,,,,,,,,,,,,,,,,,,,,,,,,,,,,,,,,,,,,,,,,,,,,,,,,,,,,,,,,,,,,,,,,,,,,,,,,,,,,,,
,,5d7957036797da0019537ad1,2023-12-06_23h35.05.582,kallum_motion_pilot,2023.2.3,Win32,48.12319538,5d7957036797da0019537ad1,6560176e4d91f764e2a42c74,657159169e2550a2ba46fdf3,0.073,0.073,1,100,262,150,1,eightsix,,,,,,,,,,,,,,,,,,,,,,,,,,,,,,,,,,,,,,,,,,,,,,,,,,,,,,,,,,,,,,,,,,,,,,,,,,,,,,,,,,,,,,,,,,,,,,,,,,,,,,,,,,,,,,,,,,,,,,,,,,,,,,,,,,,,,,,
,,5d7957036797da0019537ad1,2023-12-06_23h35.05.582,kallum_motion_pilot,2023.2.3,Win32,48.12319538,5d7957036797da0019537ad1,6560176e4d91f764e2a42c74,657159169e2550a2ba46fdf3,0.073,0.073,1,101,263,44,1,threeone,,,,,,,,,,,,,,,,,,,,,,,,,,,,,,,,,,,,,,,,,,,,,,,,,,,,,,,,,,,,,,,,,,,,,,,,,,,,,,,,,,,,,,,,,,,,,,,,,,,,,,,,,,,,,,,,,,,,,,,,,,,,,,,,,,,,,,,
,,5d7957036797da0019537ad1,2023-12-06_23h35.05.582,kallum_motion_pilot,2023.2.3,Win32,48.12319538,5d7957036797da0019537ad1,6560176e4d91f764e2a42c74,657159169e2550a2ba46fdf3,0.073,0.073,1,102,264,74,1,twoone,,,,,,,,,,,,,,,,,,,,,,,,,,,,,,,,,,,,,,,,,,,,,,,,,,,,,,,,,,,,,,,,,,,,,,,,,,,,,,,,,,,,,,,,,,,,,,,,,,,,,,,,,,,,,,,,,,,,,,,,,,,,,,,,,,,,,,,
,,5d7957036797da0019537ad1,2023-12-06_23h35.05.582,kallum_motion_pilot,2023.2.3,Win32,48.12319538,5d7957036797da0019537ad1,6560176e4d91f764e2a42c74,657159169e2550a2ba46fdf3,0.073,0.073,1,103,265,31,1,fourthree,,,,,,,,,,,,,,,,,,,,,,,,,,,,,,,,,,,,,,,,,,,,,,,,,,,,,,,,,,,,,,,,,,,,,,,,,,,,,,,,,,,,,,,,,,,,,,,,,,,,,,,,,,,,,,,,,,,,,,,,,,,,,,,,,,,,,,,
,,5d7957036797da0019537ad1,2023-12-06_23h35.05.582,kallum_motion_pilot,2023.2.3,Win32,48.12319538,5d7957036797da0019537ad1,6560176e4d91f764e2a42c74,657159169e2550a2ba46fdf3,0.073,0.073,1,104,266,135,1,eightseven,,,,,,,,,,,,,,,,,,,,,,,,,,,,,,,,,,,,,,,,,,,,,,,,,,,,,,,,,,,,,,,,,,,,,,,,,,,,,,,,,,,,,,,,,,,,,,,,,,,,,,,,,,,,,,,,,,,,,,,,,,,,,,,,,,,,,,,
,,5d7957036797da0019537ad1,2023-12-06_23h35.05.582,kallum_motion_pilot,2023.2.3,Win32,48.12319538,5d7957036797da0019537ad1,6560176e4d91f764e2a42c74,657159169e2550a2ba46fdf3,0.074,0.074,1,105,267,109,1,seveneight,,,,,,,,,,,,,,,,,,,,,,,,,,,,,,,,,,,,,,,,,,,,,,,,,,,,,,,,,,,,,,,,,,,,,,,,,,,,,,,,,,,,,,,,,,,,,,,,,,,,,,,,,,,,,,,,,,,,,,,,,,,,,,,,,,,,,,,
,,5d7957036797da0019537ad1,2023-12-06_23h35.05.582,kallum_motion_pilot,2023.2.3,Win32,48.12319538,5d7957036797da0019537ad1,6560176e4d91f764e2a42c74,657159169e2550a2ba46fdf3,0.074,0.074,1,106,268,14,1,fourtwo,,,,,,,,,,,,,,,,,,,,,,,,,,,,,,,,,,,,,,,,,,,,,,,,,,,,,,,,,,,,,,,,,,,,,,,,,,,,,,,,,,,,,,,,,,,,,,,,,,,,,,,,,,,,,,,,,,,,,,,,,,,,,,,,,,,,,,,
,,5d7957036797da0019537ad1,2023-12-06_23h35.05.582,kallum_motion_pilot,2023.2.3,Win32,48.12319538,5d7957036797da0019537ad1,6560176e4d91f764e2a42c74,657159169e2550a2ba46fdf3,0.074,0.074,1,107,269,2,1,twoone,,,,,,,,,,,,,,,,,,,,,,,,,,,,,,,,,,,,,,,,,,,,,,,,,,,,,,,,,,,,,,,,,,,,,,,,,,,,,,,,,,,,,,,,,,,,,,,,,,,,,,,,,,,,,,,,,,,,,,,,,,,,,,,,,,,,,,,
,,5d7957036797da0019537ad1,2023-12-06_23h35.05.582,kallum_motion_pilot,2023.2.3,Win32,48.12319538,5d7957036797da0019537ad1,6560176e4d91f764e2a42c74,657159169e2550a2ba46fdf3,0.074,0.074,1,108,270,136,1,fivesix,,,,,,,,,,,,,,,,,,,,,,,,,,,,,,,,,,,,,,,,,,,,,,,,,,,,,,,,,,,,,,,,,,,,,,,,,,,,,,,,,,,,,,,,,,,,,,,,,,,,,,,,,,,,,,,,,,,,,,,,,,,,,,,,,,,,,,,
,,5d7957036797da0019537ad1,2023-12-06_23h35.05.582,kallum_motion_pilot,2023.2.3,Win32,48.12319538,5d7957036797da0019537ad1,6560176e4d91f764e2a42c74,657159169e2550a2ba46fdf3,0.074,0.074,1,109,271,71,1,fourthree,,,,,,,,,,,,,,,,,,,,,,,,,,,,,,,,,,,,,,,,,,,,,,,,,,,,,,,,,,,,,,,,,,,,,,,,,,,,,,,,,,,,,,,,,,,,,,,,,,,,,,,,,,,,,,,,,,,,,,,,,,,,,,,,,,,,,,,
,,5d7957036797da0019537ad1,2023-12-06_23h35.05.582,kallum_motion_pilot,2023.2.3,Win32,48.12319538,5d7957036797da0019537ad1,6560176e4d91f764e2a42c74,657159169e2550a2ba46fdf3,0.074,0.074,1,110,272,156,1,sevenfive,,,,,,,,,,,,,,,,,,,,,,,,,,,,,,,,,,,,,,,,,,,,,,,,,,,,,,,,,,,,,,,,,,,,,,,,,,,,,,,,,,,,,,,,,,,,,,,,,,,,,,,,,,,,,,,,,,,,,,,,,,,,,,,,,,,,,,,
,,5d7957036797da0019537ad1,2023-12-06_23h35.05.582,kallum_motion_pilot,2023.2.3,Win32,48.12319538,5d7957036797da0019537ad1,6560176e4d91f764e2a42c74,657159169e2550a2ba46fdf3,0.074,0.074,1,111,273,140,1,sevenfive,,,,,,,,,,,,,,,,,,,,,,,,,,,,,,,,,,,,,,,,,,,,,,,,,,,,,,,,,,,,,,,,,,,,,,,,,,,,,,,,,,,,,,,,,,,,,,,,,,,,,,,,,,,,,,,,,,,,,,,,,,,,,,,,,,,,,,,
,,5d7957036797da0019537ad1,2023-12-06_23h35.05.582,kallum_motion_pilot,2023.2.3,Win32,48.12319538,5d7957036797da0019537ad1,6560176e4d91f764e2a42c74,657159169e2550a2ba46fdf3,0.074,0.074,1,112,274,7,1,fourthree,,,,,,,,,,,,,,,,,,,,,,,,,,,,,,,,,,,,,,,,,,,,,,,,,,,,,,,,,,,,,,,,,,,,,,,,,,,,,,,,,,,,,,,,,,,,,,,,,,,,,,,,,,,,,,,,,,,,,,,,,,,,,,,,,,,,,,,
,,5d7957036797da0019537ad1,2023-12-06_23h35.05.582,kallum_motion_pilot,2023.2.3,Win32,48.12319538,5d7957036797da0019537ad1,6560176e4d91f764e2a42c74,657159169e2550a2ba46fdf3,0.074,0.074,1,113,275,91,1,sixeight,,,,,,,,,,,,,,,,,,,,,,,,,,,,,,,,,,,,,,,,,,,,,,,,,,,,,,,,,,,,,,,,,,,,,,,,,,,,,,,,,,,,,,,,,,,,,,,,,,,,,,,,,,,,,,,,,,,,,,,,,,,,,,,,,,,,,,,
,,5d7957036797da0019537ad1,2023-12-06_23h35.05.582,kallum_motion_pilot,2023.2.3,Win32,48.12319538,5d7957036797da0019537ad1,6560176e4d91f764e2a42c74,657159169e2550a2ba46fdf3,0.074,0.074,1,114,276,108,1,sevenfive,,,,,,,,,,,,,,,,,,,,,,,,,,,,,,,,,,,,,,,,,,,,,,,,,,,,,,,,,,,,,,,,,,,,,,,,,,,,,,,,,,,,,,,,,,,,,,,,,,,,,,,,,,,,,,,,,,,,,,,,,,,,,,,,,,,,,,,
,,5d7957036797da0019537ad1,2023-12-06_23h35.05.582,kallum_motion_pilot,2023.2.3,Win32,48.12319538,5d7957036797da0019537ad1,6560176e4d91f764e2a42c74,657159169e2550a2ba46fdf3,0.074,0.074,1,115,277,101,1,seveneight,,,,,,,,,,,,,,,,,,,,,,,,,,,,,,,,,,,,,,,,,,,,,,,,,,,,,,,,,,,,,,,,,,,,,,,,,,,,,,,,,,,,,,,,,,,,,,,,,,,,,,,,,,,,,,,,,,,,,,,,,,,,,,,,,,,,,,,
,,5d7957036797da0019537ad1,2023-12-06_23h35.05.582,kallum_motion_pilot,2023.2.3,Win32,48.12319538,5d7957036797da0019537ad1,6560176e4d91f764e2a42c74,657159169e2550a2ba46fdf3,0.074,0.074,1,116,278,115,1,sixeight,,,,,,,,,,,,,,,,,,,,,,,,,,,,,,,,,,,,,,,,,,,,,,,,,,,,,,,,,,,,,,,,,,,,,,,,,,,,,,,,,,,,,,,,,,,,,,,,,,,,,,,,,,,,,,,,,,,,,,,,,,,,,,,,,,,,,,,
,,5d7957036797da0019537ad1,2023-12-06_23h35.05.582,kallum_motion_pilot,2023.2.3,Win32,48.12319538,5d7957036797da0019537ad1,6560176e4d91f764e2a42c74,657159169e2550a2ba46fdf3,0.074,0.074,1,117,279,107,1,sixeight,,,,,,,,,,,,,,,,,,,,,,,,,,,,,,,,,,,,,,,,,,,,,,,,,,,,,,,,,,,,,,,,,,,,,,,,,,,,,,,,,,,,,,,,,,,,,,,,,,,,,,,,,,,,,,,,,,,,,,,,,,,,,,,,,,,,,,,
,,5d7957036797da0019537ad1,2023-12-06_23h35.05.582,kallum_motion_pilot,2023.2.3,Win32,48.12319538,5d7957036797da0019537ad1,6560176e4d91f764e2a42c74,657159169e2550a2ba46fdf3,0.075,0.075,1,118,280,151,1,eightseven,,,,,,,,,,,,,,,,,,,,,,,,,,,,,,,,,,,,,,,,,,,,,,,,,,,,,,,,,,,,,,,,,,,,,,,,,,,,,,,,,,,,,,,,,,,,,,,,,,,,,,,,,,,,,,,,,,,,,,,,,,,,,,,,,,,,,,,
