startup.started,startup.stopped,Prolific ID*,date,expName,psychopyVersion,OS,frameRate,participant,study_id,session,stimpositions.started,stimpositions.stopped,hardcoded_stimulus_positions.thisRepN,hardcoded_stimulus_positions.thisTrialN,hardcoded_stimulus_positions.thisN,hardcoded_stimulus_positions.thisIndex,hardcoded_stimulus_positions.ran,StimulusPos,stimorientation.started,stimorientation.stopped,prac_stimorientation_import_loop.thisRepN,prac_stimorientation_import_loop.thisTrialN,prac_stimorientation_import_loop.thisN,prac_stimorientation_import_loop.thisIndex,prac_stimorientation_import_loop.ran,Stimorientation,welcome_instr.started,welcome_instr.stopped,key_resp.keys,key_resp.rt,key_resp.duration,response_steppedout_1.started,response_steppedout_1.stopped,key_resp_20.keys,key_resp_20.rt,key_resp_20.duration,response_steppedout_2.started,response_steppedout_2.stopped,key_resp_19.keys,key_resp_19.rt,key_resp_19.duration,stim_response_instr.started,stim_response_instr.stopped,key_resp_15.keys,key_resp_15.rt,key_resp_15.duration,direction_instr_2.started,direction_instr_2.stopped,key_resp_9.keys,key_resp_9.rt,key_resp_9.duration,instr_prac.started,instr_prac.stopped,key_resp_10.keys,key_resp_10.rt,key_resp_10.duration,Stim1_display_prac.started,Stim1_display_prac.stopped,Ecc,Circle1_ori,Circle2_ori,response_prac.started,similarity,response_time,response_prac.stopped,mouse_5.x,mouse_5.y,mouse_5.leftButton,mouse_5.midButton,mouse_5.rightButton,mouse_5.clicked_name,responseprac_feedback.started,responseprac_feedback.stopped,summary2_prac.started,summary2_prac.stopped,mouse_6.x,mouse_6.y,mouse_6.leftButton,mouse_6.midButton,mouse_6.rightButton,mouse_6.clicked_name,duringprac.thisRepN,duringprac.thisTrialN,duringprac.thisN,duringprac.thisIndex,duringprac.ran,begin.started,begin.stopped,key_resp_22.keys,key_resp_22.rt,key_resp_22.duration,Stim1_display.started,Stim1_display.stopped,circle1_ori,circle2_ori,blank.started,blank.stopped,response.started,response.stopped,mouse.x,mouse.y,mouse.leftButton,mouse.midButton,mouse.rightButton,mouse.clicked_name,response_2.started,response_2.stopped,mouse_2.x,mouse_2.y,mouse_2.leftButton,mouse_2.midButton,mouse_2.rightButton,mouse_2.clicked_name,special_trial.started,special_trial.stopped,catch_1.started,catch_1.stopped,mouse_3.x,mouse_3.y,mouse_3.leftButton,mouse_3.midButton,mouse_3.rightButton,catchresponse,catchnumber,response_time_catch,Catch,response_sum.started,response_sum.stopped,mouse_11.x,mouse_11.y,mouse_11.leftButton,mouse_11.midButton,mouse_11.rightButton,main_trial.thisRepN,main_trial.thisTrialN,main_trial.thisN,main_trial.thisIndex,main_trial.ran,Orientationtrialno,xcircle1_ori,xcircle2_ori,flip_presentation_sequence_for_double_pass.started,flip_presentation_sequence_for_double_pass.stopped,double_pass.thisRepN,double_pass.thisTrialN,double_pass.thisN,double_pass.thisIndex,double_pass.ran,goodbye.started,goodbye.stopped,key_resp_3.keys,key_resp_3.rt,key_resp_3.duration
0.0003,0.0006,5f27d05bbf1239014776fc3a,2023-12-07_07h32.09.901,kallum_motion_pilot,2023.2.3,Win32,59.88023952,5f27d05bbf1239014776fc3a,6560176e4d91f764e2a42c74,657158b6844a31242af23232,,,,,,,,,,,,,,,,,,,,,,,,,,,,,,,,,,,,,,,,,,,,,,,,,,,,,,,,,,,,,,,,,,,,,,,,,,,,,,,,,,,,,,,,,,,,,,,,,,,,,,,,,,,,,,,,,,,,,,,,,,,,,,,,,,,,,,,,,,,,,,,
,,5f27d05bbf1239014776fc3a,2023-12-07_07h32.09.901,kallum_motion_pilot,2023.2.3,Win32,59.88023952,5f27d05bbf1239014776fc3a,6560176e4d91f764e2a42c74,657158b6844a31242af23232,0.0452,0.0455,0,0,0,14,1,fourtwo,,,,,,,,,,,,,,,,,,,,,,,,,,,,,,,,,,,,,,,,,,,,,,,,,,,,,,,,,,,,,,,,,,,,,,,,,,,,,,,,,,,,,,,,,,,,,,,,,,,,,,,,,,,,,,,,,,,,,,,,,,,,,,,,,,,,,,,
,,5f27d05bbf1239014776fc3a,2023-12-07_07h32.09.901,kallum_motion_pilot,2023.2.3,Win32,59.88023952,5f27d05bbf1239014776fc3a,6560176e4d91f764e2a42c74,657158b6844a31242af23232,0.046,0.046,0,1,1,152,1,fivesix,,,,,,,,,,,,,,,,,,,,,,,,,,,,,,,,,,,,,,,,,,,,,,,,,,,,,,,,,,,,,,,,,,,,,,,,,,,,,,,,,,,,,,,,,,,,,,,,,,,,,,,,,,,,,,,,,,,,,,,,,,,,,,,,,,,,,,,
,,5f27d05bbf1239014776fc3a,2023-12-07_07h32.09.901,kallum_motion_pilot,2023.2.3,Win32,59.88023952,5f27d05bbf1239014776fc3a,6560176e4d91f764e2a42c74,657158b6844a31242af23232,0.0462,0.0463,0,2,2,37,1,threefour,,,,,,,,,,,,,,,,,,,,,,,,,,,,,,,,,,,,,,,,,,,,,,,,,,,,,,,,,,,,,,,,,,,,,,,,,,,,,,,,,,,,,,,,,,,,,,,,,,,,,,,,,,,,,,,,,,,,,,,,,,,,,,,,,,,,,,,
,,5f27d05bbf1239014776fc3a,2023-12-07_07h32.09.901,kallum_motion_pilot,2023.2.3,Win32,59.88023952,5f27d05bbf1239014776fc3a,6560176e4d91f764e2a42c74,657158b6844a31242af23232,0.0467,0.0468,0,3,3,43,1,twofour,,,,,,,,,,,,,,,,,,,,,,,,,,,,,,,,,,,,,,,,,,,,,,,,,,,,,,,,,,,,,,,,,,,,,,,,,,,,,,,,,,,,,,,,,,,,,,,,,,,,,,,,,,,,,,,,,,,,,,,,,,,,,,,,,,,,,,,
,,5f27d05bbf1239014776fc3a,2023-12-07_07h32.09.901,kallum_motion_pilot,2023.2.3,Win32,59.88023952,5f27d05bbf1239014776fc3a,6560176e4d91f764e2a42c74,657158b6844a31242af23232,0.0471,0.0471,0,4,4,127,1,eightseven,,,,,,,,,,,,,,,,,,,,,,,,,,,,,,,,,,,,,,,,,,,,,,,,,,,,,,,,,,,,,,,,,,,,,,,,,,,,,,,,,,,,,,,,,,,,,,,,,,,,,,,,,,,,,,,,,,,,,,,,,,,,,,,,,,,,,,,
,,5f27d05bbf1239014776fc3a,2023-12-07_07h32.09.901,kallum_motion_pilot,2023.2.3,Win32,59.88023952,5f27d05bbf1239014776fc3a,6560176e4d91f764e2a42c74,657158b6844a31242af23232,0.0473,0.0474,0,5,5,57,1,onethree,,,,,,,,,,,,,,,,,,,,,,,,,,,,,,,,,,,,,,,,,,,,,,,,,,,,,,,,,,,,,,,,,,,,,,,,,,,,,,,,,,,,,,,,,,,,,,,,,,,,,,,,,,,,,,,,,,,,,,,,,,,,,,,,,,,,,,,
,,5f27d05bbf1239014776fc3a,2023-12-07_07h32.09.901,kallum_motion_pilot,2023.2.3,Win32,59.88023952,5f27d05bbf1239014776fc3a,6560176e4d91f764e2a42c74,657158b6844a31242af23232,0.0476,0.0477,0,6,6,133,1,seveneight,,,,,,,,,,,,,,,,,,,,,,,,,,,,,,,,,,,,,,,,,,,,,,,,,,,,,,,,,,,,,,,,,,,,,,,,,,,,,,,,,,,,,,,,,,,,,,,,,,,,,,,,,,,,,,,,,,,,,,,,,,,,,,,,,,,,,,,
,,5f27d05bbf1239014776fc3a,2023-12-07_07h32.09.901,kallum_motion_pilot,2023.2.3,Win32,59.88023952,5f27d05bbf1239014776fc3a,6560176e4d91f764e2a42c74,657158b6844a31242af23232,0.0479,0.048,0,7,7,86,1,eightsix,,,,,,,,,,,,,,,,,,,,,,,,,,,,,,,,,,,,,,,,,,,,,,,,,,,,,,,,,,,,,,,,,,,,,,,,,,,,,,,,,,,,,,,,,,,,,,,,,,,,,,,,,,,,,,,,,,,,,,,,,,,,,,,,,,,,,,,
,,5f27d05bbf1239014776fc3a,2023-12-07_07h32.09.901,kallum_motion_pilot,2023.2.3,Win32,59.88023952,5f27d05bbf1239014776fc3a,6560176e4d91f764e2a42c74,657158b6844a31242af23232,0.0483,0.0483,0,8,8,126,1,eightsix,,,,,,,,,,,,,,,,,,,,,,,,,,,,,,,,,,,,,,,,,,,,,,,,,,,,,,,,,,,,,,,,,,,,,,,,,,,,,,,,,,,,,,,,,,,,,,,,,,,,,,,,,,,,,,,,,,,,,,,,,,,,,,,,,,,,,,,
,,5f27d05bbf1239014776fc3a,2023-12-07_07h32.09.901,kallum_motion_pilot,2023.2.3,Win32,59.88023952,5f27d05bbf1239014776fc3a,6560176e4d91f764e2a42c74,657158b6844a31242af23232,0.0486,0.0486,0,9,9,129,1,fiveseven,,,,,,,,,,,,,,,,,,,,,,,,,,,,,,,,,,,,,,,,,,,,,,,,,,,,,,,,,,,,,,,,,,,,,,,,,,,,,,,,,,,,,,,,,,,,,,,,,,,,,,,,,,,,,,,,,,,,,,,,,,,,,,,,,,,,,,,
,,5f27d05bbf1239014776fc3a,2023-12-07_07h32.09.901,kallum_motion_pilot,2023.2.3,Win32,59.88023952,5f27d05bbf1239014776fc3a,6560176e4d91f764e2a42c74,657158b6844a31242af23232,0.0489,0.0489,0,10,10,16,1,onetwo,,,,,,,,,,,,,,,,,,,,,,,,,,,,,,,,,,,,,,,,,,,,,,,,,,,,,,,,,,,,,,,,,,,,,,,,,,,,,,,,,,,,,,,,,,,,,,,,,,,,,,,,,,,,,,,,,,,,,,,,,,,,,,,,,,,,,,,
,,5f27d05bbf1239014776fc3a,2023-12-07_07h32.09.901,kallum_motion_pilot,2023.2.3,Win32,59.88023952,5f27d05bbf1239014776fc3a,6560176e4d91f764e2a42c74,657158b6844a31242af23232,0.0492,0.0492,0,11,11,157,1,seveneight,,,,,,,,,,,,,,,,,,,,,,,,,,,,,,,,,,,,,,,,,,,,,,,,,,,,,,,,,,,,,,,,,,,,,,,,,,,,,,,,,,,,,,,,,,,,,,,,,,,,,,,,,,,,,,,,,,,,,,,,,,,,,,,,,,,,,,,
,,5f27d05bbf1239014776fc3a,2023-12-07_07h32.09.901,kallum_motion_pilot,2023.2.3,Win32,59.88023952,5f27d05bbf1239014776fc3a,6560176e4d91f764e2a42c74,657158b6844a31242af23232,0.0494,0.0494,0,12,12,33,1,onethree,,,,,,,,,,,,,,,,,,,,,,,,,,,,,,,,,,,,,,,,,,,,,,,,,,,,,,,,,,,,,,,,,,,,,,,,,,,,,,,,,,,,,,,,,,,,,,,,,,,,,,,,,,,,,,,,,,,,,,,,,,,,,,,,,,,,,,,
,,5f27d05bbf1239014776fc3a,2023-12-07_07h32.09.901,kallum_motion_pilot,2023.2.3,Win32,59.88023952,5f27d05bbf1239014776fc3a,6560176e4d91f764e2a42c74,657158b6844a31242af23232,0.0497,0.0498,0,13,13,51,1,twofour,,,,,,,,,,,,,,,,,,,,,,,,,,,,,,,,,,,,,,,,,,,,,,,,,,,,,,,,,,,,,,,,,,,,,,,,,,,,,,,,,,,,,,,,,,,,,,,,,,,,,,,,,,,,,,,,,,,,,,,,,,,,,,,,,,,,,,,
,,5f27d05bbf1239014776fc3a,2023-12-07_07h32.09.901,kallum_motion_pilot,2023.2.3,Win32,59.88023952,5f27d05bbf1239014776fc3a,6560176e4d91f764e2a42c74,657158b6844a31242af23232,0.05,0.05,0,14,14,49,1,onethree,,,,,,,,,,,,,,,,,,,,,,,,,,,,,,,,,,,,,,,,,,,,,,,,,,,,,,,,,,,,,,,,,,,,,,,,,,,,,,,,,,,,,,,,,,,,,,,,,,,,,,,,,,,,,,,,,,,,,,,,,,,,,,,,,,,,,,,
,,5f27d05bbf1239014776fc3a,2023-12-07_07h32.09.901,kallum_motion_pilot,2023.2.3,Win32,59.88023952,5f27d05bbf1239014776fc3a,6560176e4d91f764e2a42c74,657158b6844a31242af23232,0.0502,0.0503,0,15,15,71,1,fourthree,,,,,,,,,,,,,,,,,,,,,,,,,,,,,,,,,,,,,,,,,,,,,,,,,,,,,,,,,,,,,,,,,,,,,,,,,,,,,,,,,,,,,,,,,,,,,,,,,,,,,,,,,,,,,,,,,,,,,,,,,,,,,,,,,,,,,,,
,,5f27d05bbf1239014776fc3a,2023-12-07_07h32.09.901,kallum_motion_pilot,2023.2.3,Win32,59.88023952,5f27d05bbf1239014776fc3a,6560176e4d91f764e2a42c74,657158b6844a31242af23232,0.0505,0.0506,0,16,16,155,1,sixeight,,,,,,,,,,,,,,,,,,,,,,,,,,,,,,,,,,,,,,,,,,,,,,,,,,,,,,,,,,,,,,,,,,,,,,,,,,,,,,,,,,,,,,,,,,,,,,,,,,,,,,,,,,,,,,,,,,,,,,,,,,,,,,,,,,,,,,,
,,5f27d05bbf1239014776fc3a,2023-12-07_07h32.09.901,kallum_motion_pilot,2023.2.3,Win32,59.88023952,5f27d05bbf1239014776fc3a,6560176e4d91f764e2a42c74,657158b6844a31242af23232,0.0507,0.0508,0,17,17,120,1,fivesix,,,,,,,,,,,,,,,,,,,,,,,,,,,,,,,,,,,,,,,,,,,,,,,,,,,,,,,,,,,,,,,,,,,,,,,,,,,,,,,,,,,,,,,,,,,,,,,,,,,,,,,,,,,,,,,,,,,,,,,,,,,,,,,,,,,,,,,
,,5f27d05bbf1239014776fc3a,2023-12-07_07h32.09.901,kallum_motion_pilot,2023.2.3,Win32,59.88023952,5f27d05bbf1239014776fc3a,6560176e4d91f764e2a42c74,657158b6844a31242af23232,0.051,0.0511,0,18,18,85,1,seveneight,,,,,,,,,,,,,,,,,,,,,,,,,,,,,,,,,,,,,,,,,,,,,,,,,,,,,,,,,,,,,,,,,,,,,,,,,,,,,,,,,,,,,,,,,,,,,,,,,,,,,,,,,,,,,,,,,,,,,,,,,,,,,,,,,,,,,,,
,,5f27d05bbf1239014776fc3a,2023-12-07_07h32.09.901,kallum_motion_pilot,2023.2.3,Win32,59.88023952,5f27d05bbf1239014776fc3a,6560176e4d91f764e2a42c74,657158b6844a31242af23232,0.0513,0.0513,0,19,19,110,1,eightsix,,,,,,,,,,,,,,,,,,,,,,,,,,,,,,,,,,,,,,,,,,,,,,,,,,,,,,,,,,,,,,,,,,,,,,,,,,,,,,,,,,,,,,,,,,,,,,,,,,,,,,,,,,,,,,,,,,,,,,,,,,,,,,,,,,,,,,,
,,5f27d05bbf1239014776fc3a,2023-12-07_07h32.09.901,kallum_motion_pilot,2023.2.3,Win32,59.88023952,5f27d05bbf1239014776fc3a,6560176e4d91f764e2a42c74,657158b6844a31242af23232,0.0516,0.0516,0,20,20,3,1,twofour,,,,,,,,,,,,,,,,,,,,,,,,,,,,,,,,,,,,,,,,,,,,,,,,,,,,,,,,,,,,,,,,,,,,,,,,,,,,,,,,,,,,,,,,,,,,,,,,,,,,,,,,,,,,,,,,,,,,,,,,,,,,,,,,,,,,,,,
,,5f27d05bbf1239014776fc3a,2023-12-07_07h32.09.901,kallum_motion_pilot,2023.2.3,Win32,59.88023952,5f27d05bbf1239014776fc3a,6560176e4d91f764e2a42c74,657158b6844a31242af23232,0.0519,0.0519,0,21,21,22,1,fourtwo,,,,,,,,,,,,,,,,,,,,,,,,,,,,,,,,,,,,,,,,,,,,,,,,,,,,,,,,,,,,,,,,,,,,,,,,,,,,,,,,,,,,,,,,,,,,,,,,,,,,,,,,,,,,,,,,,,,,,,,,,,,,,,,,,,,,,,,
,,5f27d05bbf1239014776fc3a,2023-12-07_07h32.09.901,kallum_motion_pilot,2023.2.3,Win32,59.88023952,5f27d05bbf1239014776fc3a,6560176e4d91f764e2a42c74,657158b6844a31242af23232,0.0521,0.0522,0,22,22,9,1,onethree,,,,,,,,,,,,,,,,,,,,,,,,,,,,,,,,,,,,,,,,,,,,,,,,,,,,,,,,,,,,,,,,,,,,,,,,,,,,,,,,,,,,,,,,,,,,,,,,,,,,,,,,,,,,,,,,,,,,,,,,,,,,,,,,,,,,,,,
,,5f27d05bbf1239014776fc3a,2023-12-07_07h32.09.901,kallum_motion_pilot,2023.2.3,Win32,59.88023952,5f27d05bbf1239014776fc3a,6560176e4d91f764e2a42c74,657158b6844a31242af23232,0.0525,0.0526,0,23,23,35,1,twofour,,,,,,,,,,,,,,,,,,,,,,,,,,,,,,,,,,,,,,,,,,,,,,,,,,,,,,,,,,,,,,,,,,,,,,,,,,,,,,,,,,,,,,,,,,,,,,,,,,,,,,,,,,,,,,,,,,,,,,,,,,,,,,,,,,,,,,,
,,5f27d05bbf1239014776fc3a,2023-12-07_07h32.09.901,kallum_motion_pilot,2023.2.3,Win32,59.88023952,5f27d05bbf1239014776fc3a,6560176e4d91f764e2a42c74,657158b6844a31242af23232,0.0541,0.0544,0,24,24,107,1,sixeight,,,,,,,,,,,,,,,,,,,,,,,,,,,,,,,,,,,,,,,,,,,,,,,,,,,,,,,,,,,,,,,,,,,,,,,,,,,,,,,,,,,,,,,,,,,,,,,,,,,,,,,,,,,,,,,,,,,,,,,,,,,,,,,,,,,,,,,
,,5f27d05bbf1239014776fc3a,2023-12-07_07h32.09.901,kallum_motion_pilot,2023.2.3,Win32,59.88023952,5f27d05bbf1239014776fc3a,6560176e4d91f764e2a42c74,657158b6844a31242af23232,0.0547,0.0547,0,25,25,7,1,fourthree,,,,,,,,,,,,,,,,,,,,,,,,,,,,,,,,,,,,,,,,,,,,,,,,,,,,,,,,,,,,,,,,,,,,,,,,,,,,,,,,,,,,,,,,,,,,,,,,,,,,,,,,,,,,,,,,,,,,,,,,,,,,,,,,,,,,,,,
,,5f27d05bbf1239014776fc3a,2023-12-07_07h32.09.901,kallum_motion_pilot,2023.2.3,Win32,59.88023952,5f27d05bbf1239014776fc3a,6560176e4d91f764e2a42c74,657158b6844a31242af23232,0.055,0.055,0,26,26,119,1,eightseven,,,,,,,,,,,,,,,,,,,,,,,,,,,,,,,,,,,,,,,,,,,,,,,,,,,,,,,,,,,,,,,,,,,,,,,,,,,,,,,,,,,,,,,,,,,,,,,,,,,,,,,,,,,,,,,,,,,,,,,,,,,,,,,,,,,,,,,
,,5f27d05bbf1239014776fc3a,2023-12-07_07h32.09.901,kallum_motion_pilot,2023.2.3,Win32,59.88023952,5f27d05bbf1239014776fc3a,6560176e4d91f764e2a42c74,657158b6844a31242af23232,0.0552,0.0552,0,27,27,132,1,sevenfive,,,,,,,,,,,,,,,,,,,,,,,,,,,,,,,,,,,,,,,,,,,,,,,,,,,,,,,,,,,,,,,,,,,,,,,,,,,,,,,,,,,,,,,,,,,,,,,,,,,,,,,,,,,,,,,,,,,,,,,,,,,,,,,,,,,,,,,
,,5f27d05bbf1239014776fc3a,2023-12-07_07h32.09.901,kallum_motion_pilot,2023.2.3,Win32,59.88023952,5f27d05bbf1239014776fc3a,6560176e4d91f764e2a42c74,657158b6844a31242af23232,0.0554,0.0571,0,28,28,10,1,twoone,,,,,,,,,,,,,,,,,,,,,,,,,,,,,,,,,,,,,,,,,,,,,,,,,,,,,,,,,,,,,,,,,,,,,,,,,,,,,,,,,,,,,,,,,,,,,,,,,,,,,,,,,,,,,,,,,,,,,,,,,,,,,,,,,,,,,,,
,,5f27d05bbf1239014776fc3a,2023-12-07_07h32.09.901,kallum_motion_pilot,2023.2.3,Win32,59.88023952,5f27d05bbf1239014776fc3a,6560176e4d91f764e2a42c74,657158b6844a31242af23232,0.0574,0.0574,0,29,29,139,1,sixeight,,,,,,,,,,,,,,,,,,,,,,,,,,,,,,,,,,,,,,,,,,,,,,,,,,,,,,,,,,,,,,,,,,,,,,,,,,,,,,,,,,,,,,,,,,,,,,,,,,,,,,,,,,,,,,,,,,,,,,,,,,,,,,,,,,,,,,,
,,5f27d05bbf1239014776fc3a,2023-12-07_07h32.09.901,kallum_motion_pilot,2023.2.3,Win32,59.88023952,5f27d05bbf1239014776fc3a,6560176e4d91f764e2a42c74,657158b6844a31242af23232,0.0576,0.0577,0,30,30,31,1,fourthree,,,,,,,,,,,,,,,,,,,,,,,,,,,,,,,,,,,,,,,,,,,,,,,,,,,,,,,,,,,,,,,,,,,,,,,,,,,,,,,,,,,,,,,,,,,,,,,,,,,,,,,,,,,,,,,,,,,,,,,,,,,,,,,,,,,,,,,
,,5f27d05bbf1239014776fc3a,2023-12-07_07h32.09.901,kallum_motion_pilot,2023.2.3,Win32,59.88023952,5f27d05bbf1239014776fc3a,6560176e4d91f764e2a42c74,657158b6844a31242af23232,0.0578,0.0579,0,31,31,123,1,sixeight,,,,,,,,,,,,,,,,,,,,,,,,,,,,,,,,,,,,,,,,,,,,,,,,,,,,,,,,,,,,,,,,,,,,,,,,,,,,,,,,,,,,,,,,,,,,,,,,,,,,,,,,,,,,,,,,,,,,,,,,,,,,,,,,,,,,,,,
,,5f27d05bbf1239014776fc3a,2023-12-07_07h32.09.901,kallum_motion_pilot,2023.2.3,Win32,59.88023952,5f27d05bbf1239014776fc3a,6560176e4d91f764e2a42c74,657158b6844a31242af23232,0.058,0.0581,0,32,32,11,1,twofour,,,,,,,,,,,,,,,,,,,,,,,,,,,,,,,,,,,,,,,,,,,,,,,,,,,,,,,,,,,,,,,,,,,,,,,,,,,,,,,,,,,,,,,,,,,,,,,,,,,,,,,,,,,,,,,,,,,,,,,,,,,,,,,,,,,,,,,
,,5f27d05bbf1239014776fc3a,2023-12-07_07h32.09.901,kallum_motion_pilot,2023.2.3,Win32,59.88023952,5f27d05bbf1239014776fc3a,6560176e4d91f764e2a42c74,657158b6844a31242af23232,0.0583,0.0583,0,33,33,150,1,eightsix,,,,,,,,,,,,,,,,,,,,,,,,,,,,,,,,,,,,,,,,,,,,,,,,,,,,,,,,,,,,,,,,,,,,,,,,,,,,,,,,,,,,,,,,,,,,,,,,,,,,,,,,,,,,,,,,,,,,,,,,,,,,,,,,,,,,,,,
,,5f27d05bbf1239014776fc3a,2023-12-07_07h32.09.901,kallum_motion_pilot,2023.2.3,Win32,59.88023952,5f27d05bbf1239014776fc3a,6560176e4d91f764e2a42c74,657158b6844a31242af23232,0.0586,0.0586,0,34,34,114,1,sixfive,,,,,,,,,,,,,,,,,,,,,,,,,,,,,,,,,,,,,,,,,,,,,,,,,,,,,,,,,,,,,,,,,,,,,,,,,,,,,,,,,,,,,,,,,,,,,,,,,,,,,,,,,,,,,,,,,,,,,,,,,,,,,,,,,,,,,,,
,,5f27d05bbf1239014776fc3a,2023-12-07_07h32.09.901,kallum_motion_pilot,2023.2.3,Win32,59.88023952,5f27d05bbf1239014776fc3a,6560176e4d91f764e2a42c74,657158b6844a31242af23232,0.0588,0.0589,0,35,35,61,1,threefour,,,,,,,,,,,,,,,,,,,,,,,,,,,,,,,,,,,,,,,,,,,,,,,,,,,,,,,,,,,,,,,,,,,,,,,,,,,,,,,,,,,,,,,,,,,,,,,,,,,,,,,,,,,,,,,,,,,,,,,,,,,,,,,,,,,,,,,
,,5f27d05bbf1239014776fc3a,2023-12-07_07h32.09.901,kallum_motion_pilot,2023.2.3,Win32,59.88023952,5f27d05bbf1239014776fc3a,6560176e4d91f764e2a42c74,657158b6844a31242af23232,0.059,0.0591,0,36,36,115,1,sixeight,,,,,,,,,,,,,,,,,,,,,,,,,,,,,,,,,,,,,,,,,,,,,,,,,,,,,,,,,,,,,,,,,,,,,,,,,,,,,,,,,,,,,,,,,,,,,,,,,,,,,,,,,,,,,,,,,,,,,,,,,,,,,,,,,,,,,,,
,,5f27d05bbf1239014776fc3a,2023-12-07_07h32.09.901,kallum_motion_pilot,2023.2.3,Win32,59.88023952,5f27d05bbf1239014776fc3a,6560176e4d91f764e2a42c74,657158b6844a31242af23232,0.0592,0.0592,0,37,37,20,1,threeone,,,,,,,,,,,,,,,,,,,,,,,,,,,,,,,,,,,,,,,,,,,,,,,,,,,,,,,,,,,,,,,,,,,,,,,,,,,,,,,,,,,,,,,,,,,,,,,,,,,,,,,,,,,,,,,,,,,,,,,,,,,,,,,,,,,,,,,
,,5f27d05bbf1239014776fc3a,2023-12-07_07h32.09.901,kallum_motion_pilot,2023.2.3,Win32,59.88023952,5f27d05bbf1239014776fc3a,6560176e4d91f764e2a42c74,657158b6844a31242af23232,0.0594,0.0595,0,38,38,111,1,eightseven,,,,,,,,,,,,,,,,,,,,,,,,,,,,,,,,,,,,,,,,,,,,,,,,,,,,,,,,,,,,,,,,,,,,,,,,,,,,,,,,,,,,,,,,,,,,,,,,,,,,,,,,,,,,,,,,,,,,,,,,,,,,,,,,,,,,,,,
,,5f27d05bbf1239014776fc3a,2023-12-07_07h32.09.901,kallum_motion_pilot,2023.2.3,Win32,59.88023952,5f27d05bbf1239014776fc3a,6560176e4d91f764e2a42c74,657158b6844a31242af23232,0.0596,0.0598,0,39,39,102,1,eightsix,,,,,,,,,,,,,,,,,,,,,,,,,,,,,,,,,,,,,,,,,,,,,,,,,,,,,,,,,,,,,,,,,,,,,,,,,,,,,,,,,,,,,,,,,,,,,,,,,,,,,,,,,,,,,,,,,,,,,,,,,,,,,,,,,,,,,,,
,,5f27d05bbf1239014776fc3a,2023-12-07_07h32.09.901,kallum_motion_pilot,2023.2.3,Win32,59.88023952,5f27d05bbf1239014776fc3a,6560176e4d91f764e2a42c74,657158b6844a31242af23232,0.0599,0.06,0,40,40,75,1,twofour,,,,,,,,,,,,,,,,,,,,,,,,,,,,,,,,,,,,,,,,,,,,,,,,,,,,,,,,,,,,,,,,,,,,,,,,,,,,,,,,,,,,,,,,,,,,,,,,,,,,,,,,,,,,,,,,,,,,,,,,,,,,,,,,,,,,,,,
,,5f27d05bbf1239014776fc3a,2023-12-07_07h32.09.901,kallum_motion_pilot,2023.2.3,Win32,59.88023952,5f27d05bbf1239014776fc3a,6560176e4d91f764e2a42c74,657158b6844a31242af23232,0.0601,0.0601,0,41,41,29,1,threefour,,,,,,,,,,,,,,,,,,,,,,,,,,,,,,,,,,,,,,,,,,,,,,,,,,,,,,,,,,,,,,,,,,,,,,,,,,,,,,,,,,,,,,,,,,,,,,,,,,,,,,,,,,,,,,,,,,,,,,,,,,,,,,,,,,,,,,,
,,5f27d05bbf1239014776fc3a,2023-12-07_07h32.09.901,kallum_motion_pilot,2023.2.3,Win32,59.88023952,5f27d05bbf1239014776fc3a,6560176e4d91f764e2a42c74,657158b6844a31242af23232,0.0604,0.0604,0,42,42,21,1,threefour,,,,,,,,,,,,,,,,,,,,,,,,,,,,,,,,,,,,,,,,,,,,,,,,,,,,,,,,,,,,,,,,,,,,,,,,,,,,,,,,,,,,,,,,,,,,,,,,,,,,,,,,,,,,,,,,,,,,,,,,,,,,,,,,,,,,,,,
,,5f27d05bbf1239014776fc3a,2023-12-07_07h32.09.901,kallum_motion_pilot,2023.2.3,Win32,59.88023952,5f27d05bbf1239014776fc3a,6560176e4d91f764e2a42c74,657158b6844a31242af23232,0.0606,0.0606,0,43,43,70,1,fourtwo,,,,,,,,,,,,,,,,,,,,,,,,,,,,,,,,,,,,,,,,,,,,,,,,,,,,,,,,,,,,,,,,,,,,,,,,,,,,,,,,,,,,,,,,,,,,,,,,,,,,,,,,,,,,,,,,,,,,,,,,,,,,,,,,,,,,,,,
,,5f27d05bbf1239014776fc3a,2023-12-07_07h32.09.901,kallum_motion_pilot,2023.2.3,Win32,59.88023952,5f27d05bbf1239014776fc3a,6560176e4d91f764e2a42c74,657158b6844a31242af23232,0.0608,0.0609,0,44,44,153,1,fiveseven,,,,,,,,,,,,,,,,,,,,,,,,,,,,,,,,,,,,,,,,,,,,,,,,,,,,,,,,,,,,,,,,,,,,,,,,,,,,,,,,,,,,,,,,,,,,,,,,,,,,,,,,,,,,,,,,,,,,,,,,,,,,,,,,,,,,,,,
,,5f27d05bbf1239014776fc3a,2023-12-07_07h32.09.901,kallum_motion_pilot,2023.2.3,Win32,59.88023952,5f27d05bbf1239014776fc3a,6560176e4d91f764e2a42c74,657158b6844a31242af23232,0.0611,0.0612,0,45,45,32,1,onetwo,,,,,,,,,,,,,,,,,,,,,,,,,,,,,,,,,,,,,,,,,,,,,,,,,,,,,,,,,,,,,,,,,,,,,,,,,,,,,,,,,,,,,,,,,,,,,,,,,,,,,,,,,,,,,,,,,,,,,,,,,,,,,,,,,,,,,,,
,,5f27d05bbf1239014776fc3a,2023-12-07_07h32.09.901,kallum_motion_pilot,2023.2.3,Win32,59.88023952,5f27d05bbf1239014776fc3a,6560176e4d91f764e2a42c74,657158b6844a31242af23232,0.0613,0.0613,0,46,46,52,1,threeone,,,,,,,,,,,,,,,,,,,,,,,,,,,,,,,,,,,,,,,,,,,,,,,,,,,,,,,,,,,,,,,,,,,,,,,,,,,,,,,,,,,,,,,,,,,,,,,,,,,,,,,,,,,,,,,,,,,,,,,,,,,,,,,,,,,,,,,
,,5f27d05bbf1239014776fc3a,2023-12-07_07h32.09.901,kallum_motion_pilot,2023.2.3,Win32,59.88023952,5f27d05bbf1239014776fc3a,6560176e4d91f764e2a42c74,657158b6844a31242af23232,0.0614,0.0616,0,47,47,118,1,eightsix,,,,,,,,,,,,,,,,,,,,,,,,,,,,,,,,,,,,,,,,,,,,,,,,,,,,,,,,,,,,,,,,,,,,,,,,,,,,,,,,,,,,,,,,,,,,,,,,,,,,,,,,,,,,,,,,,,,,,,,,,,,,,,,,,,,,,,,
,,5f27d05bbf1239014776fc3a,2023-12-07_07h32.09.901,kallum_motion_pilot,2023.2.3,Win32,59.88023952,5f27d05bbf1239014776fc3a,6560176e4d91f764e2a42c74,657158b6844a31242af23232,0.0618,0.0618,0,48,48,73,1,onethree,,,,,,,,,,,,,,,,,,,,,,,,,,,,,,,,,,,,,,,,,,,,,,,,,,,,,,,,,,,,,,,,,,,,,,,,,,,,,,,,,,,,,,,,,,,,,,,,,,,,,,,,,,,,,,,,,,,,,,,,,,,,,,,,,,,,,,,
,,5f27d05bbf1239014776fc3a,2023-12-07_07h32.09.901,kallum_motion_pilot,2023.2.3,Win32,59.88023952,5f27d05bbf1239014776fc3a,6560176e4d91f764e2a42c74,657158b6844a31242af23232,0.062,0.062,0,49,49,159,1,eightseven,,,,,,,,,,,,,,,,,,,,,,,,,,,,,,,,,,,,,,,,,,,,,,,,,,,,,,,,,,,,,,,,,,,,,,,,,,,,,,,,,,,,,,,,,,,,,,,,,,,,,,,,,,,,,,,,,,,,,,,,,,,,,,,,,,,,,,,
,,5f27d05bbf1239014776fc3a,2023-12-07_07h32.09.901,kallum_motion_pilot,2023.2.3,Win32,59.88023952,5f27d05bbf1239014776fc3a,6560176e4d91f764e2a42c74,657158b6844a31242af23232,0.0621,0.0622,0,50,50,62,1,fourtwo,,,,,,,,,,,,,,,,,,,,,,,,,,,,,,,,,,,,,,,,,,,,,,,,,,,,,,,,,,,,,,,,,,,,,,,,,,,,,,,,,,,,,,,,,,,,,,,,,,,,,,,,,,,,,,,,,,,,,,,,,,,,,,,,,,,,,,,
,,5f27d05bbf1239014776fc3a,2023-12-07_07h32.09.901,kallum_motion_pilot,2023.2.3,Win32,59.88023952,5f27d05bbf1239014776fc3a,6560176e4d91f764e2a42c74,657158b6844a31242af23232,0.0624,0.0626,0,51,51,125,1,seveneight,,,,,,,,,,,,,,,,,,,,,,,,,,,,,,,,,,,,,,,,,,,,,,,,,,,,,,,,,,,,,,,,,,,,,,,,,,,,,,,,,,,,,,,,,,,,,,,,,,,,,,,,,,,,,,,,,,,,,,,,,,,,,,,,,,,,,,,
,,5f27d05bbf1239014776fc3a,2023-12-07_07h32.09.901,kallum_motion_pilot,2023.2.3,Win32,59.88023952,5f27d05bbf1239014776fc3a,6560176e4d91f764e2a42c74,657158b6844a31242af23232,0.0628,0.0629,0,52,52,65,1,onethree,,,,,,,,,,,,,,,,,,,,,,,,,,,,,,,,,,,,,,,,,,,,,,,,,,,,,,,,,,,,,,,,,,,,,,,,,,,,,,,,,,,,,,,,,,,,,,,,,,,,,,,,,,,,,,,,,,,,,,,,,,,,,,,,,,,,,,,
,,5f27d05bbf1239014776fc3a,2023-12-07_07h32.09.901,kallum_motion_pilot,2023.2.3,Win32,59.88023952,5f27d05bbf1239014776fc3a,6560176e4d91f764e2a42c74,657158b6844a31242af23232,0.0631,0.0631,0,53,53,146,1,sixfive,,,,,,,,,,,,,,,,,,,,,,,,,,,,,,,,,,,,,,,,,,,,,,,,,,,,,,,,,,,,,,,,,,,,,,,,,,,,,,,,,,,,,,,,,,,,,,,,,,,,,,,,,,,,,,,,,,,,,,,,,,,,,,,,,,,,,,,
,,5f27d05bbf1239014776fc3a,2023-12-07_07h32.09.901,kallum_motion_pilot,2023.2.3,Win32,59.88023952,5f27d05bbf1239014776fc3a,6560176e4d91f764e2a42c74,657158b6844a31242af23232,0.0634,0.0634,0,54,54,108,1,sevenfive,,,,,,,,,,,,,,,,,,,,,,,,,,,,,,,,,,,,,,,,,,,,,,,,,,,,,,,,,,,,,,,,,,,,,,,,,,,,,,,,,,,,,,,,,,,,,,,,,,,,,,,,,,,,,,,,,,,,,,,,,,,,,,,,,,,,,,,
,,5f27d05bbf1239014776fc3a,2023-12-07_07h32.09.901,kallum_motion_pilot,2023.2.3,Win32,59.88023952,5f27d05bbf1239014776fc3a,6560176e4d91f764e2a42c74,657158b6844a31242af23232,0.0637,0.0637,0,55,55,88,1,fivesix,,,,,,,,,,,,,,,,,,,,,,,,,,,,,,,,,,,,,,,,,,,,,,,,,,,,,,,,,,,,,,,,,,,,,,,,,,,,,,,,,,,,,,,,,,,,,,,,,,,,,,,,,,,,,,,,,,,,,,,,,,,,,,,,,,,,,,,
,,5f27d05bbf1239014776fc3a,2023-12-07_07h32.09.901,kallum_motion_pilot,2023.2.3,Win32,59.88023952,5f27d05bbf1239014776fc3a,6560176e4d91f764e2a42c74,657158b6844a31242af23232,0.0639,0.064,0,56,56,137,1,fiveseven,,,,,,,,,,,,,,,,,,,,,,,,,,,,,,,,,,,,,,,,,,,,,,,,,,,,,,,,,,,,,,,,,,,,,,,,,,,,,,,,,,,,,,,,,,,,,,,,,,,,,,,,,,,,,,,,,,,,,,,,,,,,,,,,,,,,,,,
,,5f27d05bbf1239014776fc3a,2023-12-07_07h32.09.901,kallum_motion_pilot,2023.2.3,Win32,59.88023952,5f27d05bbf1239014776fc3a,6560176e4d91f764e2a42c74,657158b6844a31242af23232,0.0641,0.0642,0,57,57,53,1,threefour,,,,,,,,,,,,,,,,,,,,,,,,,,,,,,,,,,,,,,,,,,,,,,,,,,,,,,,,,,,,,,,,,,,,,,,,,,,,,,,,,,,,,,,,,,,,,,,,,,,,,,,,,,,,,,,,,,,,,,,,,,,,,,,,,,,,,,,
,,5f27d05bbf1239014776fc3a,2023-12-07_07h32.09.901,kallum_motion_pilot,2023.2.3,Win32,59.88023952,5f27d05bbf1239014776fc3a,6560176e4d91f764e2a42c74,657158b6844a31242af23232,0.0644,0.0644,0,58,58,87,1,eightseven,,,,,,,,,,,,,,,,,,,,,,,,,,,,,,,,,,,,,,,,,,,,,,,,,,,,,,,,,,,,,,,,,,,,,,,,,,,,,,,,,,,,,,,,,,,,,,,,,,,,,,,,,,,,,,,,,,,,,,,,,,,,,,,,,,,,,,,
,,5f27d05bbf1239014776fc3a,2023-12-07_07h32.09.901,kallum_motion_pilot,2023.2.3,Win32,59.88023952,5f27d05bbf1239014776fc3a,6560176e4d91f764e2a42c74,657158b6844a31242af23232,0.0646,0.0648,0,59,59,50,1,twoone,,,,,,,,,,,,,,,,,,,,,,,,,,,,,,,,,,,,,,,,,,,,,,,,,,,,,,,,,,,,,,,,,,,,,,,,,,,,,,,,,,,,,,,,,,,,,,,,,,,,,,,,,,,,,,,,,,,,,,,,,,,,,,,,,,,,,,,
,,5f27d05bbf1239014776fc3a,2023-12-07_07h32.09.901,kallum_motion_pilot,2023.2.3,Win32,59.88023952,5f27d05bbf1239014776fc3a,6560176e4d91f764e2a42c74,657158b6844a31242af23232,0.0652,0.0652,0,60,60,160,1,fivesix,,,,,,,,,,,,,,,,,,,,,,,,,,,,,,,,,,,,,,,,,,,,,,,,,,,,,,,,,,,,,,,,,,,,,,,,,,,,,,,,,,,,,,,,,,,,,,,,,,,,,,,,,,,,,,,,,,,,,,,,,,,,,,,,,,,,,,,
,,5f27d05bbf1239014776fc3a,2023-12-07_07h32.09.901,kallum_motion_pilot,2023.2.3,Win32,59.88023952,5f27d05bbf1239014776fc3a,6560176e4d91f764e2a42c74,657158b6844a31242af23232,0.0655,0.0655,0,61,61,90,1,sixfive,,,,,,,,,,,,,,,,,,,,,,,,,,,,,,,,,,,,,,,,,,,,,,,,,,,,,,,,,,,,,,,,,,,,,,,,,,,,,,,,,,,,,,,,,,,,,,,,,,,,,,,,,,,,,,,,,,,,,,,,,,,,,,,,,,,,,,,
,,5f27d05bbf1239014776fc3a,2023-12-07_07h32.09.901,kallum_motion_pilot,2023.2.3,Win32,59.88023952,5f27d05bbf1239014776fc3a,6560176e4d91f764e2a42c74,657158b6844a31242af23232,0.0657,0.0659,0,62,62,38,1,fourtwo,,,,,,,,,,,,,,,,,,,,,,,,,,,,,,,,,,,,,,,,,,,,,,,,,,,,,,,,,,,,,,,,,,,,,,,,,,,,,,,,,,,,,,,,,,,,,,,,,,,,,,,,,,,,,,,,,,,,,,,,,,,,,,,,,,,,,,,
,,5f27d05bbf1239014776fc3a,2023-12-07_07h32.09.901,kallum_motion_pilot,2023.2.3,Win32,59.88023952,5f27d05bbf1239014776fc3a,6560176e4d91f764e2a42c74,657158b6844a31242af23232,0.066,0.0662,0,63,63,79,1,eightseven,,,,,,,,,,,,,,,,,,,,,,,,,,,,,,,,,,,,,,,,,,,,,,,,,,,,,,,,,,,,,,,,,,,,,,,,,,,,,,,,,,,,,,,,,,,,,,,,,,,,,,,,,,,,,,,,,,,,,,,,,,,,,,,,,,,,,,,
,,5f27d05bbf1239014776fc3a,2023-12-07_07h32.09.901,kallum_motion_pilot,2023.2.3,Win32,59.88023952,5f27d05bbf1239014776fc3a,6560176e4d91f764e2a42c74,657158b6844a31242af23232,0.0664,0.0665,0,64,64,138,1,sixfive,,,,,,,,,,,,,,,,,,,,,,,,,,,,,,,,,,,,,,,,,,,,,,,,,,,,,,,,,,,,,,,,,,,,,,,,,,,,,,,,,,,,,,,,,,,,,,,,,,,,,,,,,,,,,,,,,,,,,,,,,,,,,,,,,,,,,,,
,,5f27d05bbf1239014776fc3a,2023-12-07_07h32.09.901,kallum_motion_pilot,2023.2.3,Win32,59.88023952,5f27d05bbf1239014776fc3a,6560176e4d91f764e2a42c74,657158b6844a31242af23232,0.0667,0.0668,0,65,65,158,1,eightsix,,,,,,,,,,,,,,,,,,,,,,,,,,,,,,,,,,,,,,,,,,,,,,,,,,,,,,,,,,,,,,,,,,,,,,,,,,,,,,,,,,,,,,,,,,,,,,,,,,,,,,,,,,,,,,,,,,,,,,,,,,,,,,,,,,,,,,,
,,5f27d05bbf1239014776fc3a,2023-12-07_07h32.09.901,kallum_motion_pilot,2023.2.3,Win32,59.88023952,5f27d05bbf1239014776fc3a,6560176e4d91f764e2a42c74,657158b6844a31242af23232,0.067,0.067,0,66,66,98,1,sixfive,,,,,,,,,,,,,,,,,,,,,,,,,,,,,,,,,,,,,,,,,,,,,,,,,,,,,,,,,,,,,,,,,,,,,,,,,,,,,,,,,,,,,,,,,,,,,,,,,,,,,,,,,,,,,,,,,,,,,,,,,,,,,,,,,,,,,,,
,,5f27d05bbf1239014776fc3a,2023-12-07_07h32.09.901,kallum_motion_pilot,2023.2.3,Win32,59.88023952,5f27d05bbf1239014776fc3a,6560176e4d91f764e2a42c74,657158b6844a31242af23232,0.0672,0.0673,0,67,67,113,1,fiveseven,,,,,,,,,,,,,,,,,,,,,,,,,,,,,,,,,,,,,,,,,,,,,,,,,,,,,,,,,,,,,,,,,,,,,,,,,,,,,,,,,,,,,,,,,,,,,,,,,,,,,,,,,,,,,,,,,,,,,,,,,,,,,,,,,,,,,,,
,,5f27d05bbf1239014776fc3a,2023-12-07_07h32.09.901,kallum_motion_pilot,2023.2.3,Win32,59.88023952,5f27d05bbf1239014776fc3a,6560176e4d91f764e2a42c74,657158b6844a31242af23232,0.0675,0.0675,0,68,68,104,1,fivesix,,,,,,,,,,,,,,,,,,,,,,,,,,,,,,,,,,,,,,,,,,,,,,,,,,,,,,,,,,,,,,,,,,,,,,,,,,,,,,,,,,,,,,,,,,,,,,,,,,,,,,,,,,,,,,,,,,,,,,,,,,,,,,,,,,,,,,,
,,5f27d05bbf1239014776fc3a,2023-12-07_07h32.09.901,kallum_motion_pilot,2023.2.3,Win32,59.88023952,5f27d05bbf1239014776fc3a,6560176e4d91f764e2a42c74,657158b6844a31242af23232,0.0677,0.0678,0,69,69,36,1,threeone,,,,,,,,,,,,,,,,,,,,,,,,,,,,,,,,,,,,,,,,,,,,,,,,,,,,,,,,,,,,,,,,,,,,,,,,,,,,,,,,,,,,,,,,,,,,,,,,,,,,,,,,,,,,,,,,,,,,,,,,,,,,,,,,,,,,,,,
,,5f27d05bbf1239014776fc3a,2023-12-07_07h32.09.901,kallum_motion_pilot,2023.2.3,Win32,59.88023952,5f27d05bbf1239014776fc3a,6560176e4d91f764e2a42c74,657158b6844a31242af23232,0.0679,0.068,0,70,70,69,1,threefour,,,,,,,,,,,,,,,,,,,,,,,,,,,,,,,,,,,,,,,,,,,,,,,,,,,,,,,,,,,,,,,,,,,,,,,,,,,,,,,,,,,,,,,,,,,,,,,,,,,,,,,,,,,,,,,,,,,,,,,,,,,,,,,,,,,,,,,
,,5f27d05bbf1239014776fc3a,2023-12-07_07h32.09.901,kallum_motion_pilot,2023.2.3,Win32,59.88023952,5f27d05bbf1239014776fc3a,6560176e4d91f764e2a42c74,657158b6844a31242af23232,0.0682,0.0683,0,71,71,46,1,fourtwo,,,,,,,,,,,,,,,,,,,,,,,,,,,,,,,,,,,,,,,,,,,,,,,,,,,,,,,,,,,,,,,,,,,,,,,,,,,,,,,,,,,,,,,,,,,,,,,,,,,,,,,,,,,,,,,,,,,,,,,,,,,,,,,,,,,,,,,
,,5f27d05bbf1239014776fc3a,2023-12-07_07h32.09.901,kallum_motion_pilot,2023.2.3,Win32,59.88023952,5f27d05bbf1239014776fc3a,6560176e4d91f764e2a42c74,657158b6844a31242af23232,0.0685,0.0686,0,72,72,149,1,seveneight,,,,,,,,,,,,,,,,,,,,,,,,,,,,,,,,,,,,,,,,,,,,,,,,,,,,,,,,,,,,,,,,,,,,,,,,,,,,,,,,,,,,,,,,,,,,,,,,,,,,,,,,,,,,,,,,,,,,,,,,,,,,,,,,,,,,,,,
,,5f27d05bbf1239014776fc3a,2023-12-07_07h32.09.901,kallum_motion_pilot,2023.2.3,Win32,59.88023952,5f27d05bbf1239014776fc3a,6560176e4d91f764e2a42c74,657158b6844a31242af23232,0.0688,0.0689,0,73,73,116,1,sevenfive,,,,,,,,,,,,,,,,,,,,,,,,,,,,,,,,,,,,,,,,,,,,,,,,,,,,,,,,,,,,,,,,,,,,,,,,,,,,,,,,,,,,,,,,,,,,,,,,,,,,,,,,,,,,,,,,,,,,,,,,,,,,,,,,,,,,,,,
,,5f27d05bbf1239014776fc3a,2023-12-07_07h32.09.901,kallum_motion_pilot,2023.2.3,Win32,59.88023952,5f27d05bbf1239014776fc3a,6560176e4d91f764e2a42c74,657158b6844a31242af23232,0.069,0.0691,0,74,74,131,1,sixeight,,,,,,,,,,,,,,,,,,,,,,,,,,,,,,,,,,,,,,,,,,,,,,,,,,,,,,,,,,,,,,,,,,,,,,,,,,,,,,,,,,,,,,,,,,,,,,,,,,,,,,,,,,,,,,,,,,,,,,,,,,,,,,,,,,,,,,,
,,5f27d05bbf1239014776fc3a,2023-12-07_07h32.09.901,kallum_motion_pilot,2023.2.3,Win32,59.88023952,5f27d05bbf1239014776fc3a,6560176e4d91f764e2a42c74,657158b6844a31242af23232,0.0697,0.07,0,75,75,145,1,fiveseven,,,,,,,,,,,,,,,,,,,,,,,,,,,,,,,,,,,,,,,,,,,,,,,,,,,,,,,,,,,,,,,,,,,,,,,,,,,,,,,,,,,,,,,,,,,,,,,,,,,,,,,,,,,,,,,,,,,,,,,,,,,,,,,,,,,,,,,
,,5f27d05bbf1239014776fc3a,2023-12-07_07h32.09.901,kallum_motion_pilot,2023.2.3,Win32,59.88023952,5f27d05bbf1239014776fc3a,6560176e4d91f764e2a42c74,657158b6844a31242af23232,0.0707,0.0709,0,76,76,25,1,onethree,,,,,,,,,,,,,,,,,,,,,,,,,,,,,,,,,,,,,,,,,,,,,,,,,,,,,,,,,,,,,,,,,,,,,,,,,,,,,,,,,,,,,,,,,,,,,,,,,,,,,,,,,,,,,,,,,,,,,,,,,,,,,,,,,,,,,,,
,,5f27d05bbf1239014776fc3a,2023-12-07_07h32.09.901,kallum_motion_pilot,2023.2.3,Win32,59.88023952,5f27d05bbf1239014776fc3a,6560176e4d91f764e2a42c74,657158b6844a31242af23232,0.0711,0.0712,0,77,77,19,1,twofour,,,,,,,,,,,,,,,,,,,,,,,,,,,,,,,,,,,,,,,,,,,,,,,,,,,,,,,,,,,,,,,,,,,,,,,,,,,,,,,,,,,,,,,,,,,,,,,,,,,,,,,,,,,,,,,,,,,,,,,,,,,,,,,,,,,,,,,
,,5f27d05bbf1239014776fc3a,2023-12-07_07h32.09.901,kallum_motion_pilot,2023.2.3,Win32,59.88023952,5f27d05bbf1239014776fc3a,6560176e4d91f764e2a42c74,657158b6844a31242af23232,0.0714,0.0715,0,78,78,45,1,threefour,,,,,,,,,,,,,,,,,,,,,,,,,,,,,,,,,,,,,,,,,,,,,,,,,,,,,,,,,,,,,,,,,,,,,,,,,,,,,,,,,,,,,,,,,,,,,,,,,,,,,,,,,,,,,,,,,,,,,,,,,,,,,,,,,,,,,,,
,,5f27d05bbf1239014776fc3a,2023-12-07_07h32.09.901,kallum_motion_pilot,2023.2.3,Win32,59.88023952,5f27d05bbf1239014776fc3a,6560176e4d91f764e2a42c74,657158b6844a31242af23232,0.0716,0.0717,0,79,79,105,1,fiveseven,,,,,,,,,,,,,,,,,,,,,,,,,,,,,,,,,,,,,,,,,,,,,,,,,,,,,,,,,,,,,,,,,,,,,,,,,,,,,,,,,,,,,,,,,,,,,,,,,,,,,,,,,,,,,,,,,,,,,,,,,,,,,,,,,,,,,,,
,,5f27d05bbf1239014776fc3a,2023-12-07_07h32.09.901,kallum_motion_pilot,2023.2.3,Win32,59.88023952,5f27d05bbf1239014776fc3a,6560176e4d91f764e2a42c74,657158b6844a31242af23232,0.0719,0.072,0,80,80,161,1,fiveseven,,,,,,,,,,,,,,,,,,,,,,,,,,,,,,,,,,,,,,,,,,,,,,,,,,,,,,,,,,,,,,,,,,,,,,,,,,,,,,,,,,,,,,,,,,,,,,,,,,,,,,,,,,,,,,,,,,,,,,,,,,,,,,,,,,,,,,,
,,5f27d05bbf1239014776fc3a,2023-12-07_07h32.09.901,kallum_motion_pilot,2023.2.3,Win32,59.88023952,5f27d05bbf1239014776fc3a,6560176e4d91f764e2a42c74,657158b6844a31242af23232,0.0721,0.0722,0,81,81,0,1,onetwo,,,,,,,,,,,,,,,,,,,,,,,,,,,,,,,,,,,,,,,,,,,,,,,,,,,,,,,,,,,,,,,,,,,,,,,,,,,,,,,,,,,,,,,,,,,,,,,,,,,,,,,,,,,,,,,,,,,,,,,,,,,,,,,,,,,,,,,
,,5f27d05bbf1239014776fc3a,2023-12-07_07h32.09.901,kallum_motion_pilot,2023.2.3,Win32,59.88023952,5f27d05bbf1239014776fc3a,6560176e4d91f764e2a42c74,657158b6844a31242af23232,0.0725,0.0727,0,82,82,23,1,fourthree,,,,,,,,,,,,,,,,,,,,,,,,,,,,,,,,,,,,,,,,,,,,,,,,,,,,,,,,,,,,,,,,,,,,,,,,,,,,,,,,,,,,,,,,,,,,,,,,,,,,,,,,,,,,,,,,,,,,,,,,,,,,,,,,,,,,,,,
,,5f27d05bbf1239014776fc3a,2023-12-07_07h32.09.901,kallum_motion_pilot,2023.2.3,Win32,59.88023952,5f27d05bbf1239014776fc3a,6560176e4d91f764e2a42c74,657158b6844a31242af23232,0.0729,0.073,0,83,83,1,1,onethree,,,,,,,,,,,,,,,,,,,,,,,,,,,,,,,,,,,,,,,,,,,,,,,,,,,,,,,,,,,,,,,,,,,,,,,,,,,,,,,,,,,,,,,,,,,,,,,,,,,,,,,,,,,,,,,,,,,,,,,,,,,,,,,,,,,,,,,
,,5f27d05bbf1239014776fc3a,2023-12-07_07h32.09.901,kallum_motion_pilot,2023.2.3,Win32,59.88023952,5f27d05bbf1239014776fc3a,6560176e4d91f764e2a42c74,657158b6844a31242af23232,0.0732,0.0733,0,84,84,124,1,sevenfive,,,,,,,,,,,,,,,,,,,,,,,,,,,,,,,,,,,,,,,,,,,,,,,,,,,,,,,,,,,,,,,,,,,,,,,,,,,,,,,,,,,,,,,,,,,,,,,,,,,,,,,,,,,,,,,,,,,,,,,,,,,,,,,,,,,,,,,
,,5f27d05bbf1239014776fc3a,2023-12-07_07h32.09.901,kallum_motion_pilot,2023.2.3,Win32,59.88023952,5f27d05bbf1239014776fc3a,6560176e4d91f764e2a42c74,657158b6844a31242af23232,0.0734,0.0735,0,85,85,67,1,twofour,,,,,,,,,,,,,,,,,,,,,,,,,,,,,,,,,,,,,,,,,,,,,,,,,,,,,,,,,,,,,,,,,,,,,,,,,,,,,,,,,,,,,,,,,,,,,,,,,,,,,,,,,,,,,,,,,,,,,,,,,,,,,,,,,,,,,,,
,,5f27d05bbf1239014776fc3a,2023-12-07_07h32.09.901,kallum_motion_pilot,2023.2.3,Win32,59.88023952,5f27d05bbf1239014776fc3a,6560176e4d91f764e2a42c74,657158b6844a31242af23232,0.0737,0.0738,0,86,86,136,1,fivesix,,,,,,,,,,,,,,,,,,,,,,,,,,,,,,,,,,,,,,,,,,,,,,,,,,,,,,,,,,,,,,,,,,,,,,,,,,,,,,,,,,,,,,,,,,,,,,,,,,,,,,,,,,,,,,,,,,,,,,,,,,,,,,,,,,,,,,,
,,5f27d05bbf1239014776fc3a,2023-12-07_07h32.09.901,kallum_motion_pilot,2023.2.3,Win32,59.88023952,5f27d05bbf1239014776fc3a,6560176e4d91f764e2a42c74,657158b6844a31242af23232,0.0739,0.074,0,87,87,84,1,sevenfive,,,,,,,,,,,,,,,,,,,,,,,,,,,,,,,,,,,,,,,,,,,,,,,,,,,,,,,,,,,,,,,,,,,,,,,,,,,,,,,,,,,,,,,,,,,,,,,,,,,,,,,,,,,,,,,,,,,,,,,,,,,,,,,,,,,,,,,
,,5f27d05bbf1239014776fc3a,2023-12-07_07h32.09.901,kallum_motion_pilot,2023.2.3,Win32,59.88023952,5f27d05bbf1239014776fc3a,6560176e4d91f764e2a42c74,657158b6844a31242af23232,0.0742,0.0743,0,88,88,72,1,onetwo,,,,,,,,,,,,,,,,,,,,,,,,,,,,,,,,,,,,,,,,,,,,,,,,,,,,,,,,,,,,,,,,,,,,,,,,,,,,,,,,,,,,,,,,,,,,,,,,,,,,,,,,,,,,,,,,,,,,,,,,,,,,,,,,,,,,,,,
,,5f27d05bbf1239014776fc3a,2023-12-07_07h32.09.901,kallum_motion_pilot,2023.2.3,Win32,59.88023952,5f27d05bbf1239014776fc3a,6560176e4d91f764e2a42c74,657158b6844a31242af23232,0.0744,0.0745,0,89,89,142,1,eightsix,,,,,,,,,,,,,,,,,,,,,,,,,,,,,,,,,,,,,,,,,,,,,,,,,,,,,,,,,,,,,,,,,,,,,,,,,,,,,,,,,,,,,,,,,,,,,,,,,,,,,,,,,,,,,,,,,,,,,,,,,,,,,,,,,,,,,,,
,,5f27d05bbf1239014776fc3a,2023-12-07_07h32.09.901,kallum_motion_pilot,2023.2.3,Win32,59.88023952,5f27d05bbf1239014776fc3a,6560176e4d91f764e2a42c74,657158b6844a31242af23232,0.0747,0.0747,0,90,90,97,1,fiveseven,,,,,,,,,,,,,,,,,,,,,,,,,,,,,,,,,,,,,,,,,,,,,,,,,,,,,,,,,,,,,,,,,,,,,,,,,,,,,,,,,,,,,,,,,,,,,,,,,,,,,,,,,,,,,,,,,,,,,,,,,,,,,,,,,,,,,,,
,,5f27d05bbf1239014776fc3a,2023-12-07_07h32.09.901,kallum_motion_pilot,2023.2.3,Win32,59.88023952,5f27d05bbf1239014776fc3a,6560176e4d91f764e2a42c74,657158b6844a31242af23232,0.0749,0.075,0,91,91,156,1,sevenfive,,,,,,,,,,,,,,,,,,,,,,,,,,,,,,,,,,,,,,,,,,,,,,,,,,,,,,,,,,,,,,,,,,,,,,,,,,,,,,,,,,,,,,,,,,,,,,,,,,,,,,,,,,,,,,,,,,,,,,,,,,,,,,,,,,,,,,,
,,5f27d05bbf1239014776fc3a,2023-12-07_07h32.09.901,kallum_motion_pilot,2023.2.3,Win32,59.88023952,5f27d05bbf1239014776fc3a,6560176e4d91f764e2a42c74,657158b6844a31242af23232,0.0751,0.0752,0,92,92,13,1,threefour,,,,,,,,,,,,,,,,,,,,,,,,,,,,,,,,,,,,,,,,,,,,,,,,,,,,,,,,,,,,,,,,,,,,,,,,,,,,,,,,,,,,,,,,,,,,,,,,,,,,,,,,,,,,,,,,,,,,,,,,,,,,,,,,,,,,,,,
,,5f27d05bbf1239014776fc3a,2023-12-07_07h32.09.901,kallum_motion_pilot,2023.2.3,Win32,59.88023952,5f27d05bbf1239014776fc3a,6560176e4d91f764e2a42c74,657158b6844a31242af23232,0.0755,0.0756,0,93,93,41,1,onethree,,,,,,,,,,,,,,,,,,,,,,,,,,,,,,,,,,,,,,,,,,,,,,,,,,,,,,,,,,,,,,,,,,,,,,,,,,,,,,,,,,,,,,,,,,,,,,,,,,,,,,,,,,,,,,,,,,,,,,,,,,,,,,,,,,,,,,,
,,5f27d05bbf1239014776fc3a,2023-12-07_07h32.09.901,kallum_motion_pilot,2023.2.3,Win32,59.88023952,5f27d05bbf1239014776fc3a,6560176e4d91f764e2a42c74,657158b6844a31242af23232,0.0758,0.076,0,94,94,47,1,fourthree,,,,,,,,,,,,,,,,,,,,,,,,,,,,,,,,,,,,,,,,,,,,,,,,,,,,,,,,,,,,,,,,,,,,,,,,,,,,,,,,,,,,,,,,,,,,,,,,,,,,,,,,,,,,,,,,,,,,,,,,,,,,,,,,,,,,,,,
,,5f27d05bbf1239014776fc3a,2023-12-07_07h32.09.901,kallum_motion_pilot,2023.2.3,Win32,59.88023952,5f27d05bbf1239014776fc3a,6560176e4d91f764e2a42c74,657158b6844a31242af23232,0.0761,0.0762,0,95,95,12,1,threeone,,,,,,,,,,,,,,,,,,,,,,,,,,,,,,,,,,,,,,,,,,,,,,,,,,,,,,,,,,,,,,,,,,,,,,,,,,,,,,,,,,,,,,,,,,,,,,,,,,,,,,,,,,,,,,,,,,,,,,,,,,,,,,,,,,,,,,,
,,5f27d05bbf1239014776fc3a,2023-12-07_07h32.09.901,kallum_motion_pilot,2023.2.3,Win32,59.88023952,5f27d05bbf1239014776fc3a,6560176e4d91f764e2a42c74,657158b6844a31242af23232,0.0764,0.0764,0,96,96,141,1,seveneight,,,,,,,,,,,,,,,,,,,,,,,,,,,,,,,,,,,,,,,,,,,,,,,,,,,,,,,,,,,,,,,,,,,,,,,,,,,,,,,,,,,,,,,,,,,,,,,,,,,,,,,,,,,,,,,,,,,,,,,,,,,,,,,,,,,,,,,
,,5f27d05bbf1239014776fc3a,2023-12-07_07h32.09.901,kallum_motion_pilot,2023.2.3,Win32,59.88023952,5f27d05bbf1239014776fc3a,6560176e4d91f764e2a42c74,657158b6844a31242af23232,0.0766,0.0768,0,97,97,63,1,fourthree,,,,,,,,,,,,,,,,,,,,,,,,,,,,,,,,,,,,,,,,,,,,,,,,,,,,,,,,,,,,,,,,,,,,,,,,,,,,,,,,,,,,,,,,,,,,,,,,,,,,,,,,,,,,,,,,,,,,,,,,,,,,,,,,,,,,,,,
,,5f27d05bbf1239014776fc3a,2023-12-07_07h32.09.901,kallum_motion_pilot,2023.2.3,Win32,59.88023952,5f27d05bbf1239014776fc3a,6560176e4d91f764e2a42c74,657158b6844a31242af23232,0.0783,0.0784,0,98,98,8,1,onetwo,,,,,,,,,,,,,,,,,,,,,,,,,,,,,,,,,,,,,,,,,,,,,,,,,,,,,,,,,,,,,,,,,,,,,,,,,,,,,,,,,,,,,,,,,,,,,,,,,,,,,,,,,,,,,,,,,,,,,,,,,,,,,,,,,,,,,,,
,,5f27d05bbf1239014776fc3a,2023-12-07_07h32.09.901,kallum_motion_pilot,2023.2.3,Win32,59.88023952,5f27d05bbf1239014776fc3a,6560176e4d91f764e2a42c74,657158b6844a31242af23232,0.0786,0.0787,0,99,99,24,1,onetwo,,,,,,,,,,,,,,,,,,,,,,,,,,,,,,,,,,,,,,,,,,,,,,,,,,,,,,,,,,,,,,,,,,,,,,,,,,,,,,,,,,,,,,,,,,,,,,,,,,,,,,,,,,,,,,,,,,,,,,,,,,,,,,,,,,,,,,,
,,5f27d05bbf1239014776fc3a,2023-12-07_07h32.09.901,kallum_motion_pilot,2023.2.3,Win32,59.88023952,5f27d05bbf1239014776fc3a,6560176e4d91f764e2a42c74,657158b6844a31242af23232,0.0789,0.079,0,100,100,140,1,sevenfive,,,,,,,,,,,,,,,,,,,,,,,,,,,,,,,,,,,,,,,,,,,,,,,,,,,,,,,,,,,,,,,,,,,,,,,,,,,,,,,,,,,,,,,,,,,,,,,,,,,,,,,,,,,,,,,,,,,,,,,,,,,,,,,,,,,,,,,
,,5f27d05bbf1239014776fc3a,2023-12-07_07h32.09.901,kallum_motion_pilot,2023.2.3,Win32,59.88023952,5f27d05bbf1239014776fc3a,6560176e4d91f764e2a42c74,657158b6844a31242af23232,0.0792,0.0793,0,101,101,77,1,threefour,,,,,,,,,,,,,,,,,,,,,,,,,,,,,,,,,,,,,,,,,,,,,,,,,,,,,,,,,,,,,,,,,,,,,,,,,,,,,,,,,,,,,,,,,,,,,,,,,,,,,,,,,,,,,,,,,,,,,,,,,,,,,,,,,,,,,,,
,,5f27d05bbf1239014776fc3a,2023-12-07_07h32.09.901,kallum_motion_pilot,2023.2.3,Win32,59.88023952,5f27d05bbf1239014776fc3a,6560176e4d91f764e2a42c74,657158b6844a31242af23232,0.0794,0.0796,0,102,102,109,1,seveneight,,,,,,,,,,,,,,,,,,,,,,,,,,,,,,,,,,,,,,,,,,,,,,,,,,,,,,,,,,,,,,,,,,,,,,,,,,,,,,,,,,,,,,,,,,,,,,,,,,,,,,,,,,,,,,,,,,,,,,,,,,,,,,,,,,,,,,,
,,5f27d05bbf1239014776fc3a,2023-12-07_07h32.09.901,kallum_motion_pilot,2023.2.3,Win32,59.88023952,5f27d05bbf1239014776fc3a,6560176e4d91f764e2a42c74,657158b6844a31242af23232,0.0797,0.0798,0,103,103,34,1,twoone,,,,,,,,,,,,,,,,,,,,,,,,,,,,,,,,,,,,,,,,,,,,,,,,,,,,,,,,,,,,,,,,,,,,,,,,,,,,,,,,,,,,,,,,,,,,,,,,,,,,,,,,,,,,,,,,,,,,,,,,,,,,,,,,,,,,,,,
,,5f27d05bbf1239014776fc3a,2023-12-07_07h32.09.901,kallum_motion_pilot,2023.2.3,Win32,59.88023952,5f27d05bbf1239014776fc3a,6560176e4d91f764e2a42c74,657158b6844a31242af23232,0.08,0.0801,0,104,104,68,1,threeone,,,,,,,,,,,,,,,,,,,,,,,,,,,,,,,,,,,,,,,,,,,,,,,,,,,,,,,,,,,,,,,,,,,,,,,,,,,,,,,,,,,,,,,,,,,,,,,,,,,,,,,,,,,,,,,,,,,,,,,,,,,,,,,,,,,,,,,
,,5f27d05bbf1239014776fc3a,2023-12-07_07h32.09.901,kallum_motion_pilot,2023.2.3,Win32,59.88023952,5f27d05bbf1239014776fc3a,6560176e4d91f764e2a42c74,657158b6844a31242af23232,0.0803,0.0804,0,105,105,26,1,twoone,,,,,,,,,,,,,,,,,,,,,,,,,,,,,,,,,,,,,,,,,,,,,,,,,,,,,,,,,,,,,,,,,,,,,,,,,,,,,,,,,,,,,,,,,,,,,,,,,,,,,,,,,,,,,,,,,,,,,,,,,,,,,,,,,,,,,,,
,,5f27d05bbf1239014776fc3a,2023-12-07_07h32.09.901,kallum_motion_pilot,2023.2.3,Win32,59.88023952,5f27d05bbf1239014776fc3a,6560176e4d91f764e2a42c74,657158b6844a31242af23232,0.0806,0.0806,0,106,106,122,1,sixfive,,,,,,,,,,,,,,,,,,,,,,,,,,,,,,,,,,,,,,,,,,,,,,,,,,,,,,,,,,,,,,,,,,,,,,,,,,,,,,,,,,,,,,,,,,,,,,,,,,,,,,,,,,,,,,,,,,,,,,,,,,,,,,,,,,,,,,,
,,5f27d05bbf1239014776fc3a,2023-12-07_07h32.09.901,kallum_motion_pilot,2023.2.3,Win32,59.88023952,5f27d05bbf1239014776fc3a,6560176e4d91f764e2a42c74,657158b6844a31242af23232,0.0808,0.0809,0,107,107,48,1,onetwo,,,,,,,,,,,,,,,,,,,,,,,,,,,,,,,,,,,,,,,,,,,,,,,,,,,,,,,,,,,,,,,,,,,,,,,,,,,,,,,,,,,,,,,,,,,,,,,,,,,,,,,,,,,,,,,,,,,,,,,,,,,,,,,,,,,,,,,
,,5f27d05bbf1239014776fc3a,2023-12-07_07h32.09.901,kallum_motion_pilot,2023.2.3,Win32,59.88023952,5f27d05bbf1239014776fc3a,6560176e4d91f764e2a42c74,657158b6844a31242af23232,0.0811,0.0812,0,108,108,78,1,fourtwo,,,,,,,,,,,,,,,,,,,,,,,,,,,,,,,,,,,,,,,,,,,,,,,,,,,,,,,,,,,,,,,,,,,,,,,,,,,,,,,,,,,,,,,,,,,,,,,,,,,,,,,,,,,,,,,,,,,,,,,,,,,,,,,,,,,,,,,
,,5f27d05bbf1239014776fc3a,2023-12-07_07h32.09.901,kallum_motion_pilot,2023.2.3,Win32,59.88023952,5f27d05bbf1239014776fc3a,6560176e4d91f764e2a42c74,657158b6844a31242af23232,0.0814,0.0814,0,109,109,147,1,sixeight,,,,,,,,,,,,,,,,,,,,,,,,,,,,,,,,,,,,,,,,,,,,,,,,,,,,,,,,,,,,,,,,,,,,,,,,,,,,,,,,,,,,,,,,,,,,,,,,,,,,,,,,,,,,,,,,,,,,,,,,,,,,,,,,,,,,,,,
,,5f27d05bbf1239014776fc3a,2023-12-07_07h32.09.901,kallum_motion_pilot,2023.2.3,Win32,59.88023952,5f27d05bbf1239014776fc3a,6560176e4d91f764e2a42c74,657158b6844a31242af23232,0.0817,0.0819,0,110,110,92,1,sevenfive,,,,,,,,,,,,,,,,,,,,,,,,,,,,,,,,,,,,,,,,,,,,,,,,,,,,,,,,,,,,,,,,,,,,,,,,,,,,,,,,,,,,,,,,,,,,,,,,,,,,,,,,,,,,,,,,,,,,,,,,,,,,,,,,,,,,,,,
,,5f27d05bbf1239014776fc3a,2023-12-07_07h32.09.901,kallum_motion_pilot,2023.2.3,Win32,59.88023952,5f27d05bbf1239014776fc3a,6560176e4d91f764e2a42c74,657158b6844a31242af23232,0.082,0.0821,0,111,111,6,1,fourtwo,,,,,,,,,,,,,,,,,,,,,,,,,,,,,,,,,,,,,,,,,,,,,,,,,,,,,,,,,,,,,,,,,,,,,,,,,,,,,,,,,,,,,,,,,,,,,,,,,,,,,,,,,,,,,,,,,,,,,,,,,,,,,,,,,,,,,,,
,,5f27d05bbf1239014776fc3a,2023-12-07_07h32.09.901,kallum_motion_pilot,2023.2.3,Win32,59.88023952,5f27d05bbf1239014776fc3a,6560176e4d91f764e2a42c74,657158b6844a31242af23232,0.0823,0.0824,0,112,112,28,1,threeone,,,,,,,,,,,,,,,,,,,,,,,,,,,,,,,,,,,,,,,,,,,,,,,,,,,,,,,,,,,,,,,,,,,,,,,,,,,,,,,,,,,,,,,,,,,,,,,,,,,,,,,,,,,,,,,,,,,,,,,,,,,,,,,,,,,,,,,
,,5f27d05bbf1239014776fc3a,2023-12-07_07h32.09.901,kallum_motion_pilot,2023.2.3,Win32,59.88023952,5f27d05bbf1239014776fc3a,6560176e4d91f764e2a42c74,657158b6844a31242af23232,0.0827,0.0828,0,113,113,93,1,seveneight,,,,,,,,,,,,,,,,,,,,,,,,,,,,,,,,,,,,,,,,,,,,,,,,,,,,,,,,,,,,,,,,,,,,,,,,,,,,,,,,,,,,,,,,,,,,,,,,,,,,,,,,,,,,,,,,,,,,,,,,,,,,,,,,,,,,,,,
,,5f27d05bbf1239014776fc3a,2023-12-07_07h32.09.901,kallum_motion_pilot,2023.2.3,Win32,59.88023952,5f27d05bbf1239014776fc3a,6560176e4d91f764e2a42c74,657158b6844a31242af23232,0.083,0.0832,0,114,114,17,1,onethree,,,,,,,,,,,,,,,,,,,,,,,,,,,,,,,,,,,,,,,,,,,,,,,,,,,,,,,,,,,,,,,,,,,,,,,,,,,,,,,,,,,,,,,,,,,,,,,,,,,,,,,,,,,,,,,,,,,,,,,,,,,,,,,,,,,,,,,
,,5f27d05bbf1239014776fc3a,2023-12-07_07h32.09.901,kallum_motion_pilot,2023.2.3,Win32,59.88023952,5f27d05bbf1239014776fc3a,6560176e4d91f764e2a42c74,657158b6844a31242af23232,0.0833,0.0835,0,115,115,27,1,twofour,,,,,,,,,,,,,,,,,,,,,,,,,,,,,,,,,,,,,,,,,,,,,,,,,,,,,,,,,,,,,,,,,,,,,,,,,,,,,,,,,,,,,,,,,,,,,,,,,,,,,,,,,,,,,,,,,,,,,,,,,,,,,,,,,,,,,,,
,,5f27d05bbf1239014776fc3a,2023-12-07_07h32.09.901,kallum_motion_pilot,2023.2.3,Win32,59.88023952,5f27d05bbf1239014776fc3a,6560176e4d91f764e2a42c74,657158b6844a31242af23232,0.0836,0.0837,0,116,116,30,1,fourtwo,,,,,,,,,,,,,,,,,,,,,,,,,,,,,,,,,,,,,,,,,,,,,,,,,,,,,,,,,,,,,,,,,,,,,,,,,,,,,,,,,,,,,,,,,,,,,,,,,,,,,,,,,,,,,,,,,,,,,,,,,,,,,,,,,,,,,,,
,,5f27d05bbf1239014776fc3a,2023-12-07_07h32.09.901,kallum_motion_pilot,2023.2.3,Win32,59.88023952,5f27d05bbf1239014776fc3a,6560176e4d91f764e2a42c74,657158b6844a31242af23232,0.0838,0.084,0,117,117,81,1,fiveseven,,,,,,,,,,,,,,,,,,,,,,,,,,,,,,,,,,,,,,,,,,,,,,,,,,,,,,,,,,,,,,,,,,,,,,,,,,,,,,,,,,,,,,,,,,,,,,,,,,,,,,,,,,,,,,,,,,,,,,,,,,,,,,,,,,,,,,,
,,5f27d05bbf1239014776fc3a,2023-12-07_07h32.09.901,kallum_motion_pilot,2023.2.3,Win32,59.88023952,5f27d05bbf1239014776fc3a,6560176e4d91f764e2a42c74,657158b6844a31242af23232,0.0842,0.0842,0,118,118,59,1,twofour,,,,,,,,,,,,,,,,,,,,,,,,,,,,,,,,,,,,,,,,,,,,,,,,,,,,,,,,,,,,,,,,,,,,,,,,,,,,,,,,,,,,,,,,,,,,,,,,,,,,,,,,,,,,,,,,,,,,,,,,,,,,,,,,,,,,,,,
,,5f27d05bbf1239014776fc3a,2023-12-07_07h32.09.901,kallum_motion_pilot,2023.2.3,Win32,59.88023952,5f27d05bbf1239014776fc3a,6560176e4d91f764e2a42c74,657158b6844a31242af23232,0.0844,0.0846,0,119,119,144,1,fivesix,,,,,,,,,,,,,,,,,,,,,,,,,,,,,,,,,,,,,,,,,,,,,,,,,,,,,,,,,,,,,,,,,,,,,,,,,,,,,,,,,,,,,,,,,,,,,,,,,,,,,,,,,,,,,,,,,,,,,,,,,,,,,,,,,,,,,,,
,,5f27d05bbf1239014776fc3a,2023-12-07_07h32.09.901,kallum_motion_pilot,2023.2.3,Win32,59.88023952,5f27d05bbf1239014776fc3a,6560176e4d91f764e2a42c74,657158b6844a31242af23232,0.0846,0.0847,0,120,120,89,1,fiveseven,,,,,,,,,,,,,,,,,,,,,,,,,,,,,,,,,,,,,,,,,,,,,,,,,,,,,,,,,,,,,,,,,,,,,,,,,,,,,,,,,,,,,,,,,,,,,,,,,,,,,,,,,,,,,,,,,,,,,,,,,,,,,,,,,,,,,,,
,,5f27d05bbf1239014776fc3a,2023-12-07_07h32.09.901,kallum_motion_pilot,2023.2.3,Win32,59.88023952,5f27d05bbf1239014776fc3a,6560176e4d91f764e2a42c74,657158b6844a31242af23232,0.085,0.085,0,121,121,60,1,threeone,,,,,,,,,,,,,,,,,,,,,,,,,,,,,,,,,,,,,,,,,,,,,,,,,,,,,,,,,,,,,,,,,,,,,,,,,,,,,,,,,,,,,,,,,,,,,,,,,,,,,,,,,,,,,,,,,,,,,,,,,,,,,,,,,,,,,,,
,,5f27d05bbf1239014776fc3a,2023-12-07_07h32.09.901,kallum_motion_pilot,2023.2.3,Win32,59.88023952,5f27d05bbf1239014776fc3a,6560176e4d91f764e2a42c74,657158b6844a31242af23232,0.0852,0.0853,0,122,122,74,1,twoone,,,,,,,,,,,,,,,,,,,,,,,,,,,,,,,,,,,,,,,,,,,,,,,,,,,,,,,,,,,,,,,,,,,,,,,,,,,,,,,,,,,,,,,,,,,,,,,,,,,,,,,,,,,,,,,,,,,,,,,,,,,,,,,,,,,,,,,
,,5f27d05bbf1239014776fc3a,2023-12-07_07h32.09.901,kallum_motion_pilot,2023.2.3,Win32,59.88023952,5f27d05bbf1239014776fc3a,6560176e4d91f764e2a42c74,657158b6844a31242af23232,0.0855,0.0856,0,123,123,103,1,eightseven,,,,,,,,,,,,,,,,,,,,,,,,,,,,,,,,,,,,,,,,,,,,,,,,,,,,,,,,,,,,,,,,,,,,,,,,,,,,,,,,,,,,,,,,,,,,,,,,,,,,,,,,,,,,,,,,,,,,,,,,,,,,,,,,,,,,,,,
,,5f27d05bbf1239014776fc3a,2023-12-07_07h32.09.901,kallum_motion_pilot,2023.2.3,Win32,59.88023952,5f27d05bbf1239014776fc3a,6560176e4d91f764e2a42c74,657158b6844a31242af23232,0.0858,0.086,0,124,124,82,1,sixfive,,,,,,,,,,,,,,,,,,,,,,,,,,,,,,,,,,,,,,,,,,,,,,,,,,,,,,,,,,,,,,,,,,,,,,,,,,,,,,,,,,,,,,,,,,,,,,,,,,,,,,,,,,,,,,,,,,,,,,,,,,,,,,,,,,,,,,,
,,5f27d05bbf1239014776fc3a,2023-12-07_07h32.09.901,kallum_motion_pilot,2023.2.3,Win32,59.88023952,5f27d05bbf1239014776fc3a,6560176e4d91f764e2a42c74,657158b6844a31242af23232,0.0867,0.0869,0,125,125,95,1,eightseven,,,,,,,,,,,,,,,,,,,,,,,,,,,,,,,,,,,,,,,,,,,,,,,,,,,,,,,,,,,,,,,,,,,,,,,,,,,,,,,,,,,,,,,,,,,,,,,,,,,,,,,,,,,,,,,,,,,,,,,,,,,,,,,,,,,,,,,
,,5f27d05bbf1239014776fc3a,2023-12-07_07h32.09.901,kallum_motion_pilot,2023.2.3,Win32,59.88023952,5f27d05bbf1239014776fc3a,6560176e4d91f764e2a42c74,657158b6844a31242af23232,0.0874,0.0875,0,126,126,39,1,fourthree,,,,,,,,,,,,,,,,,,,,,,,,,,,,,,,,,,,,,,,,,,,,,,,,,,,,,,,,,,,,,,,,,,,,,,,,,,,,,,,,,,,,,,,,,,,,,,,,,,,,,,,,,,,,,,,,,,,,,,,,,,,,,,,,,,,,,,,
,,5f27d05bbf1239014776fc3a,2023-12-07_07h32.09.901,kallum_motion_pilot,2023.2.3,Win32,59.88023952,5f27d05bbf1239014776fc3a,6560176e4d91f764e2a42c74,657158b6844a31242af23232,0.0878,0.0879,0,127,127,117,1,seveneight,,,,,,,,,,,,,,,,,,,,,,,,,,,,,,,,,,,,,,,,,,,,,,,,,,,,,,,,,,,,,,,,,,,,,,,,,,,,,,,,,,,,,,,,,,,,,,,,,,,,,,,,,,,,,,,,,,,,,,,,,,,,,,,,,,,,,,,
,,5f27d05bbf1239014776fc3a,2023-12-07_07h32.09.901,kallum_motion_pilot,2023.2.3,Win32,59.88023952,5f27d05bbf1239014776fc3a,6560176e4d91f764e2a42c74,657158b6844a31242af23232,0.0881,0.0882,0,128,128,135,1,eightseven,,,,,,,,,,,,,,,,,,,,,,,,,,,,,,,,,,,,,,,,,,,,,,,,,,,,,,,,,,,,,,,,,,,,,,,,,,,,,,,,,,,,,,,,,,,,,,,,,,,,,,,,,,,,,,,,,,,,,,,,,,,,,,,,,,,,,,,
,,5f27d05bbf1239014776fc3a,2023-12-07_07h32.09.901,kallum_motion_pilot,2023.2.3,Win32,59.88023952,5f27d05bbf1239014776fc3a,6560176e4d91f764e2a42c74,657158b6844a31242af23232,0.0884,0.0885,0,129,129,101,1,seveneight,,,,,,,,,,,,,,,,,,,,,,,,,,,,,,,,,,,,,,,,,,,,,,,,,,,,,,,,,,,,,,,,,,,,,,,,,,,,,,,,,,,,,,,,,,,,,,,,,,,,,,,,,,,,,,,,,,,,,,,,,,,,,,,,,,,,,,,
,,5f27d05bbf1239014776fc3a,2023-12-07_07h32.09.901,kallum_motion_pilot,2023.2.3,Win32,59.88023952,5f27d05bbf1239014776fc3a,6560176e4d91f764e2a42c74,657158b6844a31242af23232,0.0886,0.0887,0,130,130,148,1,sevenfive,,,,,,,,,,,,,,,,,,,,,,,,,,,,,,,,,,,,,,,,,,,,,,,,,,,,,,,,,,,,,,,,,,,,,,,,,,,,,,,,,,,,,,,,,,,,,,,,,,,,,,,,,,,,,,,,,,,,,,,,,,,,,,,,,,,,,,,
,,5f27d05bbf1239014776fc3a,2023-12-07_07h32.09.901,kallum_motion_pilot,2023.2.3,Win32,59.88023952,5f27d05bbf1239014776fc3a,6560176e4d91f764e2a42c74,657158b6844a31242af23232,0.089,0.089,0,131,131,4,1,threeone,,,,,,,,,,,,,,,,,,,,,,,,,,,,,,,,,,,,,,,,,,,,,,,,,,,,,,,,,,,,,,,,,,,,,,,,,,,,,,,,,,,,,,,,,,,,,,,,,,,,,,,,,,,,,,,,,,,,,,,,,,,,,,,,,,,,,,,
,,5f27d05bbf1239014776fc3a,2023-12-07_07h32.09.901,kallum_motion_pilot,2023.2.3,Win32,59.88023952,5f27d05bbf1239014776fc3a,6560176e4d91f764e2a42c74,657158b6844a31242af23232,0.0891,0.0893,0,132,132,83,1,sixeight,,,,,,,,,,,,,,,,,,,,,,,,,,,,,,,,,,,,,,,,,,,,,,,,,,,,,,,,,,,,,,,,,,,,,,,,,,,,,,,,,,,,,,,,,,,,,,,,,,,,,,,,,,,,,,,,,,,,,,,,,,,,,,,,,,,,,,,
,,5f27d05bbf1239014776fc3a,2023-12-07_07h32.09.901,kallum_motion_pilot,2023.2.3,Win32,59.88023952,5f27d05bbf1239014776fc3a,6560176e4d91f764e2a42c74,657158b6844a31242af23232,0.0895,0.0895,0,133,133,44,1,threeone,,,,,,,,,,,,,,,,,,,,,,,,,,,,,,,,,,,,,,,,,,,,,,,,,,,,,,,,,,,,,,,,,,,,,,,,,,,,,,,,,,,,,,,,,,,,,,,,,,,,,,,,,,,,,,,,,,,,,,,,,,,,,,,,,,,,,,,
,,5f27d05bbf1239014776fc3a,2023-12-07_07h32.09.901,kallum_motion_pilot,2023.2.3,Win32,59.88023952,5f27d05bbf1239014776fc3a,6560176e4d91f764e2a42c74,657158b6844a31242af23232,0.0898,0.0898,0,134,134,55,1,fourthree,,,,,,,,,,,,,,,,,,,,,,,,,,,,,,,,,,,,,,,,,,,,,,,,,,,,,,,,,,,,,,,,,,,,,,,,,,,,,,,,,,,,,,,,,,,,,,,,,,,,,,,,,,,,,,,,,,,,,,,,,,,,,,,,,,,,,,,
,,5f27d05bbf1239014776fc3a,2023-12-07_07h32.09.901,kallum_motion_pilot,2023.2.3,Win32,59.88023952,5f27d05bbf1239014776fc3a,6560176e4d91f764e2a42c74,657158b6844a31242af23232,0.09,0.0901,0,135,135,154,1,sixfive,,,,,,,,,,,,,,,,,,,,,,,,,,,,,,,,,,,,,,,,,,,,,,,,,,,,,,,,,,,,,,,,,,,,,,,,,,,,,,,,,,,,,,,,,,,,,,,,,,,,,,,,,,,,,,,,,,,,,,,,,,,,,,,,,,,,,,,
,,5f27d05bbf1239014776fc3a,2023-12-07_07h32.09.901,kallum_motion_pilot,2023.2.3,Win32,59.88023952,5f27d05bbf1239014776fc3a,6560176e4d91f764e2a42c74,657158b6844a31242af23232,0.0903,0.0904,0,136,136,121,1,fiveseven,,,,,,,,,,,,,,,,,,,,,,,,,,,,,,,,,,,,,,,,,,,,,,,,,,,,,,,,,,,,,,,,,,,,,,,,,,,,,,,,,,,,,,,,,,,,,,,,,,,,,,,,,,,,,,,,,,,,,,,,,,,,,,,,,,,,,,,
,,5f27d05bbf1239014776fc3a,2023-12-07_07h32.09.901,kallum_motion_pilot,2023.2.3,Win32,59.88023952,5f27d05bbf1239014776fc3a,6560176e4d91f764e2a42c74,657158b6844a31242af23232,0.0906,0.0906,0,137,137,96,1,fivesix,,,,,,,,,,,,,,,,,,,,,,,,,,,,,,,,,,,,,,,,,,,,,,,,,,,,,,,,,,,,,,,,,,,,,,,,,,,,,,,,,,,,,,,,,,,,,,,,,,,,,,,,,,,,,,,,,,,,,,,,,,,,,,,,,,,,,,,
,,5f27d05bbf1239014776fc3a,2023-12-07_07h32.09.901,kallum_motion_pilot,2023.2.3,Win32,59.88023952,5f27d05bbf1239014776fc3a,6560176e4d91f764e2a42c74,657158b6844a31242af23232,0.0908,0.0909,0,138,138,76,1,threeone,,,,,,,,,,,,,,,,,,,,,,,,,,,,,,,,,,,,,,,,,,,,,,,,,,,,,,,,,,,,,,,,,,,,,,,,,,,,,,,,,,,,,,,,,,,,,,,,,,,,,,,,,,,,,,,,,,,,,,,,,,,,,,,,,,,,,,,
,,5f27d05bbf1239014776fc3a,2023-12-07_07h32.09.901,kallum_motion_pilot,2023.2.3,Win32,59.88023952,5f27d05bbf1239014776fc3a,6560176e4d91f764e2a42c74,657158b6844a31242af23232,0.091,0.0912,0,139,139,130,1,sixfive,,,,,,,,,,,,,,,,,,,,,,,,,,,,,,,,,,,,,,,,,,,,,,,,,,,,,,,,,,,,,,,,,,,,,,,,,,,,,,,,,,,,,,,,,,,,,,,,,,,,,,,,,,,,,,,,,,,,,,,,,,,,,,,,,,,,,,,
,,5f27d05bbf1239014776fc3a,2023-12-07_07h32.09.901,kallum_motion_pilot,2023.2.3,Win32,59.88023952,5f27d05bbf1239014776fc3a,6560176e4d91f764e2a42c74,657158b6844a31242af23232,0.0914,0.0915,0,140,140,99,1,sixeight,,,,,,,,,,,,,,,,,,,,,,,,,,,,,,,,,,,,,,,,,,,,,,,,,,,,,,,,,,,,,,,,,,,,,,,,,,,,,,,,,,,,,,,,,,,,,,,,,,,,,,,,,,,,,,,,,,,,,,,,,,,,,,,,,,,,,,,
,,5f27d05bbf1239014776fc3a,2023-12-07_07h32.09.901,kallum_motion_pilot,2023.2.3,Win32,59.88023952,5f27d05bbf1239014776fc3a,6560176e4d91f764e2a42c74,657158b6844a31242af23232,0.0917,0.0917,0,141,141,5,1,threefour,,,,,,,,,,,,,,,,,,,,,,,,,,,,,,,,,,,,,,,,,,,,,,,,,,,,,,,,,,,,,,,,,,,,,,,,,,,,,,,,,,,,,,,,,,,,,,,,,,,,,,,,,,,,,,,,,,,,,,,,,,,,,,,,,,,,,,,
,,5f27d05bbf1239014776fc3a,2023-12-07_07h32.09.901,kallum_motion_pilot,2023.2.3,Win32,59.88023952,5f27d05bbf1239014776fc3a,6560176e4d91f764e2a42c74,657158b6844a31242af23232,0.0919,0.092,0,142,142,100,1,sevenfive,,,,,,,,,,,,,,,,,,,,,,,,,,,,,,,,,,,,,,,,,,,,,,,,,,,,,,,,,,,,,,,,,,,,,,,,,,,,,,,,,,,,,,,,,,,,,,,,,,,,,,,,,,,,,,,,,,,,,,,,,,,,,,,,,,,,,,,
,,5f27d05bbf1239014776fc3a,2023-12-07_07h32.09.901,kallum_motion_pilot,2023.2.3,Win32,59.88023952,5f27d05bbf1239014776fc3a,6560176e4d91f764e2a42c74,657158b6844a31242af23232,0.0921,0.0923,0,143,143,94,1,eightsix,,,,,,,,,,,,,,,,,,,,,,,,,,,,,,,,,,,,,,,,,,,,,,,,,,,,,,,,,,,,,,,,,,,,,,,,,,,,,,,,,,,,,,,,,,,,,,,,,,,,,,,,,,,,,,,,,,,,,,,,,,,,,,,,,,,,,,,
,,5f27d05bbf1239014776fc3a,2023-12-07_07h32.09.901,kallum_motion_pilot,2023.2.3,Win32,59.88023952,5f27d05bbf1239014776fc3a,6560176e4d91f764e2a42c74,657158b6844a31242af23232,0.0925,0.0926,0,144,144,56,1,onetwo,,,,,,,,,,,,,,,,,,,,,,,,,,,,,,,,,,,,,,,,,,,,,,,,,,,,,,,,,,,,,,,,,,,,,,,,,,,,,,,,,,,,,,,,,,,,,,,,,,,,,,,,,,,,,,,,,,,,,,,,,,,,,,,,,,,,,,,
,,5f27d05bbf1239014776fc3a,2023-12-07_07h32.09.901,kallum_motion_pilot,2023.2.3,Win32,59.88023952,5f27d05bbf1239014776fc3a,6560176e4d91f764e2a42c74,657158b6844a31242af23232,0.093,0.0933,0,145,145,66,1,twoone,,,,,,,,,,,,,,,,,,,,,,,,,,,,,,,,,,,,,,,,,,,,,,,,,,,,,,,,,,,,,,,,,,,,,,,,,,,,,,,,,,,,,,,,,,,,,,,,,,,,,,,,,,,,,,,,,,,,,,,,,,,,,,,,,,,,,,,
,,5f27d05bbf1239014776fc3a,2023-12-07_07h32.09.901,kallum_motion_pilot,2023.2.3,Win32,59.88023952,5f27d05bbf1239014776fc3a,6560176e4d91f764e2a42c74,657158b6844a31242af23232,0.0934,0.0935,0,146,146,58,1,twoone,,,,,,,,,,,,,,,,,,,,,,,,,,,,,,,,,,,,,,,,,,,,,,,,,,,,,,,,,,,,,,,,,,,,,,,,,,,,,,,,,,,,,,,,,,,,,,,,,,,,,,,,,,,,,,,,,,,,,,,,,,,,,,,,,,,,,,,
,,5f27d05bbf1239014776fc3a,2023-12-07_07h32.09.901,kallum_motion_pilot,2023.2.3,Win32,59.88023952,5f27d05bbf1239014776fc3a,6560176e4d91f764e2a42c74,657158b6844a31242af23232,0.0937,0.0939,0,147,147,2,1,twoone,,,,,,,,,,,,,,,,,,,,,,,,,,,,,,,,,,,,,,,,,,,,,,,,,,,,,,,,,,,,,,,,,,,,,,,,,,,,,,,,,,,,,,,,,,,,,,,,,,,,,,,,,,,,,,,,,,,,,,,,,,,,,,,,,,,,,,,
,,5f27d05bbf1239014776fc3a,2023-12-07_07h32.09.901,kallum_motion_pilot,2023.2.3,Win32,59.88023952,5f27d05bbf1239014776fc3a,6560176e4d91f764e2a42c74,657158b6844a31242af23232,0.094,0.0941,0,148,148,151,1,eightseven,,,,,,,,,,,,,,,,,,,,,,,,,,,,,,,,,,,,,,,,,,,,,,,,,,,,,,,,,,,,,,,,,,,,,,,,,,,,,,,,,,,,,,,,,,,,,,,,,,,,,,,,,,,,,,,,,,,,,,,,,,,,,,,,,,,,,,,
,,5f27d05bbf1239014776fc3a,2023-12-07_07h32.09.901,kallum_motion_pilot,2023.2.3,Win32,59.88023952,5f27d05bbf1239014776fc3a,6560176e4d91f764e2a42c74,657158b6844a31242af23232,0.0944,0.0945,0,149,149,64,1,onetwo,,,,,,,,,,,,,,,,,,,,,,,,,,,,,,,,,,,,,,,,,,,,,,,,,,,,,,,,,,,,,,,,,,,,,,,,,,,,,,,,,,,,,,,,,,,,,,,,,,,,,,,,,,,,,,,,,,,,,,,,,,,,,,,,,,,,,,,
,,5f27d05bbf1239014776fc3a,2023-12-07_07h32.09.901,kallum_motion_pilot,2023.2.3,Win32,59.88023952,5f27d05bbf1239014776fc3a,6560176e4d91f764e2a42c74,657158b6844a31242af23232,0.0947,0.0948,0,150,150,54,1,fourtwo,,,,,,,,,,,,,,,,,,,,,,,,,,,,,,,,,,,,,,,,,,,,,,,,,,,,,,,,,,,,,,,,,,,,,,,,,,,,,,,,,,,,,,,,,,,,,,,,,,,,,,,,,,,,,,,,,,,,,,,,,,,,,,,,,,,,,,,
,,5f27d05bbf1239014776fc3a,2023-12-07_07h32.09.901,kallum_motion_pilot,2023.2.3,Win32,59.88023952,5f27d05bbf1239014776fc3a,6560176e4d91f764e2a42c74,657158b6844a31242af23232,0.0949,0.0951,0,151,151,106,1,sixfive,,,,,,,,,,,,,,,,,,,,,,,,,,,,,,,,,,,,,,,,,,,,,,,,,,,,,,,,,,,,,,,,,,,,,,,,,,,,,,,,,,,,,,,,,,,,,,,,,,,,,,,,,,,,,,,,,,,,,,,,,,,,,,,,,,,,,,,
,,5f27d05bbf1239014776fc3a,2023-12-07_07h32.09.901,kallum_motion_pilot,2023.2.3,Win32,59.88023952,5f27d05bbf1239014776fc3a,6560176e4d91f764e2a42c74,657158b6844a31242af23232,0.0953,0.0954,0,152,152,15,1,fourthree,,,,,,,,,,,,,,,,,,,,,,,,,,,,,,,,,,,,,,,,,,,,,,,,,,,,,,,,,,,,,,,,,,,,,,,,,,,,,,,,,,,,,,,,,,,,,,,,,,,,,,,,,,,,,,,,,,,,,,,,,,,,,,,,,,,,,,,
,,5f27d05bbf1239014776fc3a,2023-12-07_07h32.09.901,kallum_motion_pilot,2023.2.3,Win32,59.88023952,5f27d05bbf1239014776fc3a,6560176e4d91f764e2a42c74,657158b6844a31242af23232,0.0956,0.0957,0,153,153,134,1,eightsix,,,,,,,,,,,,,,,,,,,,,,,,,,,,,,,,,,,,,,,,,,,,,,,,,,,,,,,,,,,,,,,,,,,,,,,,,,,,,,,,,,,,,,,,,,,,,,,,,,,,,,,,,,,,,,,,,,,,,,,,,,,,,,,,,,,,,,,
,,5f27d05bbf1239014776fc3a,2023-12-07_07h32.09.901,kallum_motion_pilot,2023.2.3,Win32,59.88023952,5f27d05bbf1239014776fc3a,6560176e4d91f764e2a42c74,657158b6844a31242af23232,0.0959,0.096,0,154,154,18,1,twoone,,,,,,,,,,,,,,,,,,,,,,,,,,,,,,,,,,,,,,,,,,,,,,,,,,,,,,,,,,,,,,,,,,,,,,,,,,,,,,,,,,,,,,,,,,,,,,,,,,,,,,,,,,,,,,,,,,,,,,,,,,,,,,,,,,,,,,,
,,5f27d05bbf1239014776fc3a,2023-12-07_07h32.09.901,kallum_motion_pilot,2023.2.3,Win32,59.88023952,5f27d05bbf1239014776fc3a,6560176e4d91f764e2a42c74,657158b6844a31242af23232,0.0962,0.0963,0,155,155,91,1,sixeight,,,,,,,,,,,,,,,,,,,,,,,,,,,,,,,,,,,,,,,,,,,,,,,,,,,,,,,,,,,,,,,,,,,,,,,,,,,,,,,,,,,,,,,,,,,,,,,,,,,,,,,,,,,,,,,,,,,,,,,,,,,,,,,,,,,,,,,
,,5f27d05bbf1239014776fc3a,2023-12-07_07h32.09.901,kallum_motion_pilot,2023.2.3,Win32,59.88023952,5f27d05bbf1239014776fc3a,6560176e4d91f764e2a42c74,657158b6844a31242af23232,0.0965,0.0966,0,156,156,128,1,fivesix,,,,,,,,,,,,,,,,,,,,,,,,,,,,,,,,,,,,,,,,,,,,,,,,,,,,,,,,,,,,,,,,,,,,,,,,,,,,,,,,,,,,,,,,,,,,,,,,,,,,,,,,,,,,,,,,,,,,,,,,,,,,,,,,,,,,,,,
,,5f27d05bbf1239014776fc3a,2023-12-07_07h32.09.901,kallum_motion_pilot,2023.2.3,Win32,59.88023952,5f27d05bbf1239014776fc3a,6560176e4d91f764e2a42c74,657158b6844a31242af23232,0.0968,0.0968,0,157,157,112,1,fivesix,,,,,,,,,,,,,,,,,,,,,,,,,,,,,,,,,,,,,,,,,,,,,,,,,,,,,,,,,,,,,,,,,,,,,,,,,,,,,,,,,,,,,,,,,,,,,,,,,,,,,,,,,,,,,,,,,,,,,,,,,,,,,,,,,,,,,,,
,,5f27d05bbf1239014776fc3a,2023-12-07_07h32.09.901,kallum_motion_pilot,2023.2.3,Win32,59.88023952,5f27d05bbf1239014776fc3a,6560176e4d91f764e2a42c74,657158b6844a31242af23232,0.0971,0.0972,0,158,158,143,1,eightseven,,,,,,,,,,,,,,,,,,,,,,,,,,,,,,,,,,,,,,,,,,,,,,,,,,,,,,,,,,,,,,,,,,,,,,,,,,,,,,,,,,,,,,,,,,,,,,,,,,,,,,,,,,,,,,,,,,,,,,,,,,,,,,,,,,,,,,,
,,5f27d05bbf1239014776fc3a,2023-12-07_07h32.09.901,kallum_motion_pilot,2023.2.3,Win32,59.88023952,5f27d05bbf1239014776fc3a,6560176e4d91f764e2a42c74,657158b6844a31242af23232,0.0973,0.0974,0,159,159,42,1,twoone,,,,,,,,,,,,,,,,,,,,,,,,,,,,,,,,,,,,,,,,,,,,,,,,,,,,,,,,,,,,,,,,,,,,,,,,,,,,,,,,,,,,,,,,,,,,,,,,,,,,,,,,,,,,,,,,,,,,,,,,,,,,,,,,,,,,,,,
,,5f27d05bbf1239014776fc3a,2023-12-07_07h32.09.901,kallum_motion_pilot,2023.2.3,Win32,59.88023952,5f27d05bbf1239014776fc3a,6560176e4d91f764e2a42c74,657158b6844a31242af23232,0.0976,0.0977,0,160,160,40,1,onetwo,,,,,,,,,,,,,,,,,,,,,,,,,,,,,,,,,,,,,,,,,,,,,,,,,,,,,,,,,,,,,,,,,,,,,,,,,,,,,,,,,,,,,,,,,,,,,,,,,,,,,,,,,,,,,,,,,,,,,,,,,,,,,,,,,,,,,,,
,,5f27d05bbf1239014776fc3a,2023-12-07_07h32.09.901,kallum_motion_pilot,2023.2.3,Win32,59.88023952,5f27d05bbf1239014776fc3a,6560176e4d91f764e2a42c74,657158b6844a31242af23232,0.0978,0.098,0,161,161,80,1,fivesix,,,,,,,,,,,,,,,,,,,,,,,,,,,,,,,,,,,,,,,,,,,,,,,,,,,,,,,,,,,,,,,,,,,,,,,,,,,,,,,,,,,,,,,,,,,,,,,,,,,,,,,,,,,,,,,,,,,,,,,,,,,,,,,,,,,,,,,
,,5f27d05bbf1239014776fc3a,2023-12-07_07h32.09.901,kallum_motion_pilot,2023.2.3,Win32,59.88023952,5f27d05bbf1239014776fc3a,6560176e4d91f764e2a42c74,657158b6844a31242af23232,0.0982,0.0983,1,0,162,145,1,fiveseven,,,,,,,,,,,,,,,,,,,,,,,,,,,,,,,,,,,,,,,,,,,,,,,,,,,,,,,,,,,,,,,,,,,,,,,,,,,,,,,,,,,,,,,,,,,,,,,,,,,,,,,,,,,,,,,,,,,,,,,,,,,,,,,,,,,,,,,
,,5f27d05bbf1239014776fc3a,2023-12-07_07h32.09.901,kallum_motion_pilot,2023.2.3,Win32,59.88023952,5f27d05bbf1239014776fc3a,6560176e4d91f764e2a42c74,657158b6844a31242af23232,0.0985,0.0986,1,1,163,26,1,twoone,,,,,,,,,,,,,,,,,,,,,,,,,,,,,,,,,,,,,,,,,,,,,,,,,,,,,,,,,,,,,,,,,,,,,,,,,,,,,,,,,,,,,,,,,,,,,,,,,,,,,,,,,,,,,,,,,,,,,,,,,,,,,,,,,,,,,,,
,,5f27d05bbf1239014776fc3a,2023-12-07_07h32.09.901,kallum_motion_pilot,2023.2.3,Win32,59.88023952,5f27d05bbf1239014776fc3a,6560176e4d91f764e2a42c74,657158b6844a31242af23232,0.0987,0.0988,1,2,164,24,1,onetwo,,,,,,,,,,,,,,,,,,,,,,,,,,,,,,,,,,,,,,,,,,,,,,,,,,,,,,,,,,,,,,,,,,,,,,,,,,,,,,,,,,,,,,,,,,,,,,,,,,,,,,,,,,,,,,,,,,,,,,,,,,,,,,,,,,,,,,,
,,5f27d05bbf1239014776fc3a,2023-12-07_07h32.09.901,kallum_motion_pilot,2023.2.3,Win32,59.88023952,5f27d05bbf1239014776fc3a,6560176e4d91f764e2a42c74,657158b6844a31242af23232,0.099,0.0992,1,3,165,113,1,fiveseven,,,,,,,,,,,,,,,,,,,,,,,,,,,,,,,,,,,,,,,,,,,,,,,,,,,,,,,,,,,,,,,,,,,,,,,,,,,,,,,,,,,,,,,,,,,,,,,,,,,,,,,,,,,,,,,,,,,,,,,,,,,,,,,,,,,,,,,
,,5f27d05bbf1239014776fc3a,2023-12-07_07h32.09.901,kallum_motion_pilot,2023.2.3,Win32,59.88023952,5f27d05bbf1239014776fc3a,6560176e4d91f764e2a42c74,657158b6844a31242af23232,0.0994,0.0995,1,4,166,18,1,twoone,,,,,,,,,,,,,,,,,,,,,,,,,,,,,,,,,,,,,,,,,,,,,,,,,,,,,,,,,,,,,,,,,,,,,,,,,,,,,,,,,,,,,,,,,,,,,,,,,,,,,,,,,,,,,,,,,,,,,,,,,,,,,,,,,,,,,,,
,,5f27d05bbf1239014776fc3a,2023-12-07_07h32.09.901,kallum_motion_pilot,2023.2.3,Win32,59.88023952,5f27d05bbf1239014776fc3a,6560176e4d91f764e2a42c74,657158b6844a31242af23232,0.0997,0.0999,1,5,167,75,1,twofour,,,,,,,,,,,,,,,,,,,,,,,,,,,,,,,,,,,,,,,,,,,,,,,,,,,,,,,,,,,,,,,,,,,,,,,,,,,,,,,,,,,,,,,,,,,,,,,,,,,,,,,,,,,,,,,,,,,,,,,,,,,,,,,,,,,,,,,
,,5f27d05bbf1239014776fc3a,2023-12-07_07h32.09.901,kallum_motion_pilot,2023.2.3,Win32,59.88023952,5f27d05bbf1239014776fc3a,6560176e4d91f764e2a42c74,657158b6844a31242af23232,0.1,0.1002,1,6,168,115,1,sixeight,,,,,,,,,,,,,,,,,,,,,,,,,,,,,,,,,,,,,,,,,,,,,,,,,,,,,,,,,,,,,,,,,,,,,,,,,,,,,,,,,,,,,,,,,,,,,,,,,,,,,,,,,,,,,,,,,,,,,,,,,,,,,,,,,,,,,,,
,,5f27d05bbf1239014776fc3a,2023-12-07_07h32.09.901,kallum_motion_pilot,2023.2.3,Win32,59.88023952,5f27d05bbf1239014776fc3a,6560176e4d91f764e2a42c74,657158b6844a31242af23232,0.1004,0.1005,1,7,169,52,1,threeone,,,,,,,,,,,,,,,,,,,,,,,,,,,,,,,,,,,,,,,,,,,,,,,,,,,,,,,,,,,,,,,,,,,,,,,,,,,,,,,,,,,,,,,,,,,,,,,,,,,,,,,,,,,,,,,,,,,,,,,,,,,,,,,,,,,,,,,
,,5f27d05bbf1239014776fc3a,2023-12-07_07h32.09.901,kallum_motion_pilot,2023.2.3,Win32,59.88023952,5f27d05bbf1239014776fc3a,6560176e4d91f764e2a42c74,657158b6844a31242af23232,0.1006,0.1008,1,8,170,92,1,sevenfive,,,,,,,,,,,,,,,,,,,,,,,,,,,,,,,,,,,,,,,,,,,,,,,,,,,,,,,,,,,,,,,,,,,,,,,,,,,,,,,,,,,,,,,,,,,,,,,,,,,,,,,,,,,,,,,,,,,,,,,,,,,,,,,,,,,,,,,
,,5f27d05bbf1239014776fc3a,2023-12-07_07h32.09.901,kallum_motion_pilot,2023.2.3,Win32,59.88023952,5f27d05bbf1239014776fc3a,6560176e4d91f764e2a42c74,657158b6844a31242af23232,0.1009,0.1011,1,9,171,116,1,sevenfive,,,,,,,,,,,,,,,,,,,,,,,,,,,,,,,,,,,,,,,,,,,,,,,,,,,,,,,,,,,,,,,,,,,,,,,,,,,,,,,,,,,,,,,,,,,,,,,,,,,,,,,,,,,,,,,,,,,,,,,,,,,,,,,,,,,,,,,
,,5f27d05bbf1239014776fc3a,2023-12-07_07h32.09.901,kallum_motion_pilot,2023.2.3,Win32,59.88023952,5f27d05bbf1239014776fc3a,6560176e4d91f764e2a42c74,657158b6844a31242af23232,0.1013,0.1014,1,10,172,83,1,sixeight,,,,,,,,,,,,,,,,,,,,,,,,,,,,,,,,,,,,,,,,,,,,,,,,,,,,,,,,,,,,,,,,,,,,,,,,,,,,,,,,,,,,,,,,,,,,,,,,,,,,,,,,,,,,,,,,,,,,,,,,,,,,,,,,,,,,,,,
,,5f27d05bbf1239014776fc3a,2023-12-07_07h32.09.901,kallum_motion_pilot,2023.2.3,Win32,59.88023952,5f27d05bbf1239014776fc3a,6560176e4d91f764e2a42c74,657158b6844a31242af23232,0.1016,0.1016,1,11,173,0,1,onetwo,,,,,,,,,,,,,,,,,,,,,,,,,,,,,,,,,,,,,,,,,,,,,,,,,,,,,,,,,,,,,,,,,,,,,,,,,,,,,,,,,,,,,,,,,,,,,,,,,,,,,,,,,,,,,,,,,,,,,,,,,,,,,,,,,,,,,,,
,,5f27d05bbf1239014776fc3a,2023-12-07_07h32.09.901,kallum_motion_pilot,2023.2.3,Win32,59.88023952,5f27d05bbf1239014776fc3a,6560176e4d91f764e2a42c74,657158b6844a31242af23232,0.1019,0.102,1,12,174,138,1,sixfive,,,,,,,,,,,,,,,,,,,,,,,,,,,,,,,,,,,,,,,,,,,,,,,,,,,,,,,,,,,,,,,,,,,,,,,,,,,,,,,,,,,,,,,,,,,,,,,,,,,,,,,,,,,,,,,,,,,,,,,,,,,,,,,,,,,,,,,
,,5f27d05bbf1239014776fc3a,2023-12-07_07h32.09.901,kallum_motion_pilot,2023.2.3,Win32,59.88023952,5f27d05bbf1239014776fc3a,6560176e4d91f764e2a42c74,657158b6844a31242af23232,0.1021,0.1023,1,13,175,1,1,onethree,,,,,,,,,,,,,,,,,,,,,,,,,,,,,,,,,,,,,,,,,,,,,,,,,,,,,,,,,,,,,,,,,,,,,,,,,,,,,,,,,,,,,,,,,,,,,,,,,,,,,,,,,,,,,,,,,,,,,,,,,,,,,,,,,,,,,,,
,,5f27d05bbf1239014776fc3a,2023-12-07_07h32.09.901,kallum_motion_pilot,2023.2.3,Win32,59.88023952,5f27d05bbf1239014776fc3a,6560176e4d91f764e2a42c74,657158b6844a31242af23232,0.1024,0.1026,1,14,176,109,1,seveneight,,,,,,,,,,,,,,,,,,,,,,,,,,,,,,,,,,,,,,,,,,,,,,,,,,,,,,,,,,,,,,,,,,,,,,,,,,,,,,,,,,,,,,,,,,,,,,,,,,,,,,,,,,,,,,,,,,,,,,,,,,,,,,,,,,,,,,,
,,5f27d05bbf1239014776fc3a,2023-12-07_07h32.09.901,kallum_motion_pilot,2023.2.3,Win32,59.88023952,5f27d05bbf1239014776fc3a,6560176e4d91f764e2a42c74,657158b6844a31242af23232,0.1033,0.1035,1,15,177,43,1,twofour,,,,,,,,,,,,,,,,,,,,,,,,,,,,,,,,,,,,,,,,,,,,,,,,,,,,,,,,,,,,,,,,,,,,,,,,,,,,,,,,,,,,,,,,,,,,,,,,,,,,,,,,,,,,,,,,,,,,,,,,,,,,,,,,,,,,,,,
,,5f27d05bbf1239014776fc3a,2023-12-07_07h32.09.901,kallum_motion_pilot,2023.2.3,Win32,59.88023952,5f27d05bbf1239014776fc3a,6560176e4d91f764e2a42c74,657158b6844a31242af23232,0.1038,0.1039,1,16,178,45,1,threefour,,,,,,,,,,,,,,,,,,,,,,,,,,,,,,,,,,,,,,,,,,,,,,,,,,,,,,,,,,,,,,,,,,,,,,,,,,,,,,,,,,,,,,,,,,,,,,,,,,,,,,,,,,,,,,,,,,,,,,,,,,,,,,,,,,,,,,,
,,5f27d05bbf1239014776fc3a,2023-12-07_07h32.09.901,kallum_motion_pilot,2023.2.3,Win32,59.88023952,5f27d05bbf1239014776fc3a,6560176e4d91f764e2a42c74,657158b6844a31242af23232,0.1041,0.1041,1,17,179,41,1,onethree,,,,,,,,,,,,,,,,,,,,,,,,,,,,,,,,,,,,,,,,,,,,,,,,,,,,,,,,,,,,,,,,,,,,,,,,,,,,,,,,,,,,,,,,,,,,,,,,,,,,,,,,,,,,,,,,,,,,,,,,,,,,,,,,,,,,,,,
,,5f27d05bbf1239014776fc3a,2023-12-07_07h32.09.901,kallum_motion_pilot,2023.2.3,Win32,59.88023952,5f27d05bbf1239014776fc3a,6560176e4d91f764e2a42c74,657158b6844a31242af23232,0.1044,0.1045,1,18,180,125,1,seveneight,,,,,,,,,,,,,,,,,,,,,,,,,,,,,,,,,,,,,,,,,,,,,,,,,,,,,,,,,,,,,,,,,,,,,,,,,,,,,,,,,,,,,,,,,,,,,,,,,,,,,,,,,,,,,,,,,,,,,,,,,,,,,,,,,,,,,,,
,,5f27d05bbf1239014776fc3a,2023-12-07_07h32.09.901,kallum_motion_pilot,2023.2.3,Win32,59.88023952,5f27d05bbf1239014776fc3a,6560176e4d91f764e2a42c74,657158b6844a31242af23232,0.1047,0.1048,1,19,181,19,1,twofour,,,,,,,,,,,,,,,,,,,,,,,,,,,,,,,,,,,,,,,,,,,,,,,,,,,,,,,,,,,,,,,,,,,,,,,,,,,,,,,,,,,,,,,,,,,,,,,,,,,,,,,,,,,,,,,,,,,,,,,,,,,,,,,,,,,,,,,
,,5f27d05bbf1239014776fc3a,2023-12-07_07h32.09.901,kallum_motion_pilot,2023.2.3,Win32,59.88023952,5f27d05bbf1239014776fc3a,6560176e4d91f764e2a42c74,657158b6844a31242af23232,0.1049,0.105,1,20,182,17,1,onethree,,,,,,,,,,,,,,,,,,,,,,,,,,,,,,,,,,,,,,,,,,,,,,,,,,,,,,,,,,,,,,,,,,,,,,,,,,,,,,,,,,,,,,,,,,,,,,,,,,,,,,,,,,,,,,,,,,,,,,,,,,,,,,,,,,,,,,,
,,5f27d05bbf1239014776fc3a,2023-12-07_07h32.09.901,kallum_motion_pilot,2023.2.3,Win32,59.88023952,5f27d05bbf1239014776fc3a,6560176e4d91f764e2a42c74,657158b6844a31242af23232,0.1052,0.1054,1,21,183,160,1,fivesix,,,,,,,,,,,,,,,,,,,,,,,,,,,,,,,,,,,,,,,,,,,,,,,,,,,,,,,,,,,,,,,,,,,,,,,,,,,,,,,,,,,,,,,,,,,,,,,,,,,,,,,,,,,,,,,,,,,,,,,,,,,,,,,,,,,,,,,
,,5f27d05bbf1239014776fc3a,2023-12-07_07h32.09.901,kallum_motion_pilot,2023.2.3,Win32,59.88023952,5f27d05bbf1239014776fc3a,6560176e4d91f764e2a42c74,657158b6844a31242af23232,0.1056,0.1059,1,22,184,36,1,threeone,,,,,,,,,,,,,,,,,,,,,,,,,,,,,,,,,,,,,,,,,,,,,,,,,,,,,,,,,,,,,,,,,,,,,,,,,,,,,,,,,,,,,,,,,,,,,,,,,,,,,,,,,,,,,,,,,,,,,,,,,,,,,,,,,,,,,,,
,,5f27d05bbf1239014776fc3a,2023-12-07_07h32.09.901,kallum_motion_pilot,2023.2.3,Win32,59.88023952,5f27d05bbf1239014776fc3a,6560176e4d91f764e2a42c74,657158b6844a31242af23232,0.1062,0.1063,1,23,185,77,1,threefour,,,,,,,,,,,,,,,,,,,,,,,,,,,,,,,,,,,,,,,,,,,,,,,,,,,,,,,,,,,,,,,,,,,,,,,,,,,,,,,,,,,,,,,,,,,,,,,,,,,,,,,,,,,,,,,,,,,,,,,,,,,,,,,,,,,,,,,
,,5f27d05bbf1239014776fc3a,2023-12-07_07h32.09.901,kallum_motion_pilot,2023.2.3,Win32,59.88023952,5f27d05bbf1239014776fc3a,6560176e4d91f764e2a42c74,657158b6844a31242af23232,0.1067,0.1067,1,24,186,129,1,fiveseven,,,,,,,,,,,,,,,,,,,,,,,,,,,,,,,,,,,,,,,,,,,,,,,,,,,,,,,,,,,,,,,,,,,,,,,,,,,,,,,,,,,,,,,,,,,,,,,,,,,,,,,,,,,,,,,,,,,,,,,,,,,,,,,,,,,,,,,
,,5f27d05bbf1239014776fc3a,2023-12-07_07h32.09.901,kallum_motion_pilot,2023.2.3,Win32,59.88023952,5f27d05bbf1239014776fc3a,6560176e4d91f764e2a42c74,657158b6844a31242af23232,0.1069,0.107,1,25,187,154,1,sixfive,,,,,,,,,,,,,,,,,,,,,,,,,,,,,,,,,,,,,,,,,,,,,,,,,,,,,,,,,,,,,,,,,,,,,,,,,,,,,,,,,,,,,,,,,,,,,,,,,,,,,,,,,,,,,,,,,,,,,,,,,,,,,,,,,,,,,,,
,,5f27d05bbf1239014776fc3a,2023-12-07_07h32.09.901,kallum_motion_pilot,2023.2.3,Win32,59.88023952,5f27d05bbf1239014776fc3a,6560176e4d91f764e2a42c74,657158b6844a31242af23232,0.1073,0.1075,1,26,188,63,1,fourthree,,,,,,,,,,,,,,,,,,,,,,,,,,,,,,,,,,,,,,,,,,,,,,,,,,,,,,,,,,,,,,,,,,,,,,,,,,,,,,,,,,,,,,,,,,,,,,,,,,,,,,,,,,,,,,,,,,,,,,,,,,,,,,,,,,,,,,,
,,5f27d05bbf1239014776fc3a,2023-12-07_07h32.09.901,kallum_motion_pilot,2023.2.3,Win32,59.88023952,5f27d05bbf1239014776fc3a,6560176e4d91f764e2a42c74,657158b6844a31242af23232,0.1076,0.1077,1,27,189,40,1,onetwo,,,,,,,,,,,,,,,,,,,,,,,,,,,,,,,,,,,,,,,,,,,,,,,,,,,,,,,,,,,,,,,,,,,,,,,,,,,,,,,,,,,,,,,,,,,,,,,,,,,,,,,,,,,,,,,,,,,,,,,,,,,,,,,,,,,,,,,
,,5f27d05bbf1239014776fc3a,2023-12-07_07h32.09.901,kallum_motion_pilot,2023.2.3,Win32,59.88023952,5f27d05bbf1239014776fc3a,6560176e4d91f764e2a42c74,657158b6844a31242af23232,0.108,0.1081,1,28,190,110,1,eightsix,,,,,,,,,,,,,,,,,,,,,,,,,,,,,,,,,,,,,,,,,,,,,,,,,,,,,,,,,,,,,,,,,,,,,,,,,,,,,,,,,,,,,,,,,,,,,,,,,,,,,,,,,,,,,,,,,,,,,,,,,,,,,,,,,,,,,,,
,,5f27d05bbf1239014776fc3a,2023-12-07_07h32.09.901,kallum_motion_pilot,2023.2.3,Win32,59.88023952,5f27d05bbf1239014776fc3a,6560176e4d91f764e2a42c74,657158b6844a31242af23232,0.1082,0.1084,1,29,191,30,1,fourtwo,,,,,,,,,,,,,,,,,,,,,,,,,,,,,,,,,,,,,,,,,,,,,,,,,,,,,,,,,,,,,,,,,,,,,,,,,,,,,,,,,,,,,,,,,,,,,,,,,,,,,,,,,,,,,,,,,,,,,,,,,,,,,,,,,,,,,,,
,,5f27d05bbf1239014776fc3a,2023-12-07_07h32.09.901,kallum_motion_pilot,2023.2.3,Win32,59.88023952,5f27d05bbf1239014776fc3a,6560176e4d91f764e2a42c74,657158b6844a31242af23232,0.1085,0.1087,1,30,192,88,1,fivesix,,,,,,,,,,,,,,,,,,,,,,,,,,,,,,,,,,,,,,,,,,,,,,,,,,,,,,,,,,,,,,,,,,,,,,,,,,,,,,,,,,,,,,,,,,,,,,,,,,,,,,,,,,,,,,,,,,,,,,,,,,,,,,,,,,,,,,,
,,5f27d05bbf1239014776fc3a,2023-12-07_07h32.09.901,kallum_motion_pilot,2023.2.3,Win32,59.88023952,5f27d05bbf1239014776fc3a,6560176e4d91f764e2a42c74,657158b6844a31242af23232,0.1088,0.109,1,31,193,4,1,threeone,,,,,,,,,,,,,,,,,,,,,,,,,,,,,,,,,,,,,,,,,,,,,,,,,,,,,,,,,,,,,,,,,,,,,,,,,,,,,,,,,,,,,,,,,,,,,,,,,,,,,,,,,,,,,,,,,,,,,,,,,,,,,,,,,,,,,,,
,,5f27d05bbf1239014776fc3a,2023-12-07_07h32.09.901,kallum_motion_pilot,2023.2.3,Win32,59.88023952,5f27d05bbf1239014776fc3a,6560176e4d91f764e2a42c74,657158b6844a31242af23232,0.1091,0.1092,1,32,194,60,1,threeone,,,,,,,,,,,,,,,,,,,,,,,,,,,,,,,,,,,,,,,,,,,,,,,,,,,,,,,,,,,,,,,,,,,,,,,,,,,,,,,,,,,,,,,,,,,,,,,,,,,,,,,,,,,,,,,,,,,,,,,,,,,,,,,,,,,,,,,
,,5f27d05bbf1239014776fc3a,2023-12-07_07h32.09.901,kallum_motion_pilot,2023.2.3,Win32,59.88023952,5f27d05bbf1239014776fc3a,6560176e4d91f764e2a42c74,657158b6844a31242af23232,0.1094,0.1095,1,33,195,150,1,eightsix,,,,,,,,,,,,,,,,,,,,,,,,,,,,,,,,,,,,,,,,,,,,,,,,,,,,,,,,,,,,,,,,,,,,,,,,,,,,,,,,,,,,,,,,,,,,,,,,,,,,,,,,,,,,,,,,,,,,,,,,,,,,,,,,,,,,,,,
,,5f27d05bbf1239014776fc3a,2023-12-07_07h32.09.901,kallum_motion_pilot,2023.2.3,Win32,59.88023952,5f27d05bbf1239014776fc3a,6560176e4d91f764e2a42c74,657158b6844a31242af23232,0.1097,0.1098,1,34,196,57,1,onethree,,,,,,,,,,,,,,,,,,,,,,,,,,,,,,,,,,,,,,,,,,,,,,,,,,,,,,,,,,,,,,,,,,,,,,,,,,,,,,,,,,,,,,,,,,,,,,,,,,,,,,,,,,,,,,,,,,,,,,,,,,,,,,,,,,,,,,,
,,5f27d05bbf1239014776fc3a,2023-12-07_07h32.09.901,kallum_motion_pilot,2023.2.3,Win32,59.88023952,5f27d05bbf1239014776fc3a,6560176e4d91f764e2a42c74,657158b6844a31242af23232,0.11,0.1101,1,35,197,37,1,threefour,,,,,,,,,,,,,,,,,,,,,,,,,,,,,,,,,,,,,,,,,,,,,,,,,,,,,,,,,,,,,,,,,,,,,,,,,,,,,,,,,,,,,,,,,,,,,,,,,,,,,,,,,,,,,,,,,,,,,,,,,,,,,,,,,,,,,,,
,,5f27d05bbf1239014776fc3a,2023-12-07_07h32.09.901,kallum_motion_pilot,2023.2.3,Win32,59.88023952,5f27d05bbf1239014776fc3a,6560176e4d91f764e2a42c74,657158b6844a31242af23232,0.1103,0.1104,1,36,198,111,1,eightseven,,,,,,,,,,,,,,,,,,,,,,,,,,,,,,,,,,,,,,,,,,,,,,,,,,,,,,,,,,,,,,,,,,,,,,,,,,,,,,,,,,,,,,,,,,,,,,,,,,,,,,,,,,,,,,,,,,,,,,,,,,,,,,,,,,,,,,,
,,5f27d05bbf1239014776fc3a,2023-12-07_07h32.09.901,kallum_motion_pilot,2023.2.3,Win32,59.88023952,5f27d05bbf1239014776fc3a,6560176e4d91f764e2a42c74,657158b6844a31242af23232,0.1105,0.1107,1,37,199,124,1,sevenfive,,,,,,,,,,,,,,,,,,,,,,,,,,,,,,,,,,,,,,,,,,,,,,,,,,,,,,,,,,,,,,,,,,,,,,,,,,,,,,,,,,,,,,,,,,,,,,,,,,,,,,,,,,,,,,,,,,,,,,,,,,,,,,,,,,,,,,,
,,5f27d05bbf1239014776fc3a,2023-12-07_07h32.09.901,kallum_motion_pilot,2023.2.3,Win32,59.88023952,5f27d05bbf1239014776fc3a,6560176e4d91f764e2a42c74,657158b6844a31242af23232,0.1114,0.1116,1,38,200,5,1,threefour,,,,,,,,,,,,,,,,,,,,,,,,,,,,,,,,,,,,,,,,,,,,,,,,,,,,,,,,,,,,,,,,,,,,,,,,,,,,,,,,,,,,,,,,,,,,,,,,,,,,,,,,,,,,,,,,,,,,,,,,,,,,,,,,,,,,,,,
,,5f27d05bbf1239014776fc3a,2023-12-07_07h32.09.901,kallum_motion_pilot,2023.2.3,Win32,59.88023952,5f27d05bbf1239014776fc3a,6560176e4d91f764e2a42c74,657158b6844a31242af23232,0.1118,0.1119,1,39,201,98,1,sixfive,,,,,,,,,,,,,,,,,,,,,,,,,,,,,,,,,,,,,,,,,,,,,,,,,,,,,,,,,,,,,,,,,,,,,,,,,,,,,,,,,,,,,,,,,,,,,,,,,,,,,,,,,,,,,,,,,,,,,,,,,,,,,,,,,,,,,,,
,,5f27d05bbf1239014776fc3a,2023-12-07_07h32.09.901,kallum_motion_pilot,2023.2.3,Win32,59.88023952,5f27d05bbf1239014776fc3a,6560176e4d91f764e2a42c74,657158b6844a31242af23232,0.1122,0.1122,1,40,202,133,1,seveneight,,,,,,,,,,,,,,,,,,,,,,,,,,,,,,,,,,,,,,,,,,,,,,,,,,,,,,,,,,,,,,,,,,,,,,,,,,,,,,,,,,,,,,,,,,,,,,,,,,,,,,,,,,,,,,,,,,,,,,,,,,,,,,,,,,,,,,,
,,5f27d05bbf1239014776fc3a,2023-12-07_07h32.09.901,kallum_motion_pilot,2023.2.3,Win32,59.88023952,5f27d05bbf1239014776fc3a,6560176e4d91f764e2a42c74,657158b6844a31242af23232,0.1124,0.1126,1,41,203,117,1,seveneight,,,,,,,,,,,,,,,,,,,,,,,,,,,,,,,,,,,,,,,,,,,,,,,,,,,,,,,,,,,,,,,,,,,,,,,,,,,,,,,,,,,,,,,,,,,,,,,,,,,,,,,,,,,,,,,,,,,,,,,,,,,,,,,,,,,,,,,
,,5f27d05bbf1239014776fc3a,2023-12-07_07h32.09.901,kallum_motion_pilot,2023.2.3,Win32,59.88023952,5f27d05bbf1239014776fc3a,6560176e4d91f764e2a42c74,657158b6844a31242af23232,0.1129,0.113,1,42,204,2,1,twoone,,,,,,,,,,,,,,,,,,,,,,,,,,,,,,,,,,,,,,,,,,,,,,,,,,,,,,,,,,,,,,,,,,,,,,,,,,,,,,,,,,,,,,,,,,,,,,,,,,,,,,,,,,,,,,,,,,,,,,,,,,,,,,,,,,,,,,,
,,5f27d05bbf1239014776fc3a,2023-12-07_07h32.09.901,kallum_motion_pilot,2023.2.3,Win32,59.88023952,5f27d05bbf1239014776fc3a,6560176e4d91f764e2a42c74,657158b6844a31242af23232,0.1133,0.1134,1,43,205,143,1,eightseven,,,,,,,,,,,,,,,,,,,,,,,,,,,,,,,,,,,,,,,,,,,,,,,,,,,,,,,,,,,,,,,,,,,,,,,,,,,,,,,,,,,,,,,,,,,,,,,,,,,,,,,,,,,,,,,,,,,,,,,,,,,,,,,,,,,,,,,
,,5f27d05bbf1239014776fc3a,2023-12-07_07h32.09.901,kallum_motion_pilot,2023.2.3,Win32,59.88023952,5f27d05bbf1239014776fc3a,6560176e4d91f764e2a42c74,657158b6844a31242af23232,0.1137,0.1137,1,44,206,135,1,eightseven,,,,,,,,,,,,,,,,,,,,,,,,,,,,,,,,,,,,,,,,,,,,,,,,,,,,,,,,,,,,,,,,,,,,,,,,,,,,,,,,,,,,,,,,,,,,,,,,,,,,,,,,,,,,,,,,,,,,,,,,,,,,,,,,,,,,,,,
,,5f27d05bbf1239014776fc3a,2023-12-07_07h32.09.901,kallum_motion_pilot,2023.2.3,Win32,59.88023952,5f27d05bbf1239014776fc3a,6560176e4d91f764e2a42c74,657158b6844a31242af23232,0.1139,0.114,1,45,207,34,1,twoone,,,,,,,,,,,,,,,,,,,,,,,,,,,,,,,,,,,,,,,,,,,,,,,,,,,,,,,,,,,,,,,,,,,,,,,,,,,,,,,,,,,,,,,,,,,,,,,,,,,,,,,,,,,,,,,,,,,,,,,,,,,,,,,,,,,,,,,
,,5f27d05bbf1239014776fc3a,2023-12-07_07h32.09.901,kallum_motion_pilot,2023.2.3,Win32,59.88023952,5f27d05bbf1239014776fc3a,6560176e4d91f764e2a42c74,657158b6844a31242af23232,0.1142,0.1143,1,46,208,114,1,sixfive,,,,,,,,,,,,,,,,,,,,,,,,,,,,,,,,,,,,,,,,,,,,,,,,,,,,,,,,,,,,,,,,,,,,,,,,,,,,,,,,,,,,,,,,,,,,,,,,,,,,,,,,,,,,,,,,,,,,,,,,,,,,,,,,,,,,,,,
,,5f27d05bbf1239014776fc3a,2023-12-07_07h32.09.901,kallum_motion_pilot,2023.2.3,Win32,59.88023952,5f27d05bbf1239014776fc3a,6560176e4d91f764e2a42c74,657158b6844a31242af23232,0.1145,0.1147,1,47,209,14,1,fourtwo,,,,,,,,,,,,,,,,,,,,,,,,,,,,,,,,,,,,,,,,,,,,,,,,,,,,,,,,,,,,,,,,,,,,,,,,,,,,,,,,,,,,,,,,,,,,,,,,,,,,,,,,,,,,,,,,,,,,,,,,,,,,,,,,,,,,,,,
,,5f27d05bbf1239014776fc3a,2023-12-07_07h32.09.901,kallum_motion_pilot,2023.2.3,Win32,59.88023952,5f27d05bbf1239014776fc3a,6560176e4d91f764e2a42c74,657158b6844a31242af23232,0.1147,0.1149,1,48,210,95,1,eightseven,,,,,,,,,,,,,,,,,,,,,,,,,,,,,,,,,,,,,,,,,,,,,,,,,,,,,,,,,,,,,,,,,,,,,,,,,,,,,,,,,,,,,,,,,,,,,,,,,,,,,,,,,,,,,,,,,,,,,,,,,,,,,,,,,,,,,,,
,,5f27d05bbf1239014776fc3a,2023-12-07_07h32.09.901,kallum_motion_pilot,2023.2.3,Win32,59.88023952,5f27d05bbf1239014776fc3a,6560176e4d91f764e2a42c74,657158b6844a31242af23232,0.1151,0.1152,1,49,211,106,1,sixfive,,,,,,,,,,,,,,,,,,,,,,,,,,,,,,,,,,,,,,,,,,,,,,,,,,,,,,,,,,,,,,,,,,,,,,,,,,,,,,,,,,,,,,,,,,,,,,,,,,,,,,,,,,,,,,,,,,,,,,,,,,,,,,,,,,,,,,,
,,5f27d05bbf1239014776fc3a,2023-12-07_07h32.09.901,kallum_motion_pilot,2023.2.3,Win32,59.88023952,5f27d05bbf1239014776fc3a,6560176e4d91f764e2a42c74,657158b6844a31242af23232,0.1154,0.1155,1,50,212,78,1,fourtwo,,,,,,,,,,,,,,,,,,,,,,,,,,,,,,,,,,,,,,,,,,,,,,,,,,,,,,,,,,,,,,,,,,,,,,,,,,,,,,,,,,,,,,,,,,,,,,,,,,,,,,,,,,,,,,,,,,,,,,,,,,,,,,,,,,,,,,,
,,5f27d05bbf1239014776fc3a,2023-12-07_07h32.09.901,kallum_motion_pilot,2023.2.3,Win32,59.88023952,5f27d05bbf1239014776fc3a,6560176e4d91f764e2a42c74,657158b6844a31242af23232,0.1157,0.1158,1,51,213,112,1,fivesix,,,,,,,,,,,,,,,,,,,,,,,,,,,,,,,,,,,,,,,,,,,,,,,,,,,,,,,,,,,,,,,,,,,,,,,,,,,,,,,,,,,,,,,,,,,,,,,,,,,,,,,,,,,,,,,,,,,,,,,,,,,,,,,,,,,,,,,
,,5f27d05bbf1239014776fc3a,2023-12-07_07h32.09.901,kallum_motion_pilot,2023.2.3,Win32,59.88023952,5f27d05bbf1239014776fc3a,6560176e4d91f764e2a42c74,657158b6844a31242af23232,0.116,0.1162,1,52,214,149,1,seveneight,,,,,,,,,,,,,,,,,,,,,,,,,,,,,,,,,,,,,,,,,,,,,,,,,,,,,,,,,,,,,,,,,,,,,,,,,,,,,,,,,,,,,,,,,,,,,,,,,,,,,,,,,,,,,,,,,,,,,,,,,,,,,,,,,,,,,,,
,,5f27d05bbf1239014776fc3a,2023-12-07_07h32.09.901,kallum_motion_pilot,2023.2.3,Win32,59.88023952,5f27d05bbf1239014776fc3a,6560176e4d91f764e2a42c74,657158b6844a31242af23232,0.1162,0.1165,1,53,215,56,1,onetwo,,,,,,,,,,,,,,,,,,,,,,,,,,,,,,,,,,,,,,,,,,,,,,,,,,,,,,,,,,,,,,,,,,,,,,,,,,,,,,,,,,,,,,,,,,,,,,,,,,,,,,,,,,,,,,,,,,,,,,,,,,,,,,,,,,,,,,,
,,5f27d05bbf1239014776fc3a,2023-12-07_07h32.09.901,kallum_motion_pilot,2023.2.3,Win32,59.88023952,5f27d05bbf1239014776fc3a,6560176e4d91f764e2a42c74,657158b6844a31242af23232,0.1166,0.1167,1,54,216,58,1,twoone,,,,,,,,,,,,,,,,,,,,,,,,,,,,,,,,,,,,,,,,,,,,,,,,,,,,,,,,,,,,,,,,,,,,,,,,,,,,,,,,,,,,,,,,,,,,,,,,,,,,,,,,,,,,,,,,,,,,,,,,,,,,,,,,,,,,,,,
,,5f27d05bbf1239014776fc3a,2023-12-07_07h32.09.901,kallum_motion_pilot,2023.2.3,Win32,59.88023952,5f27d05bbf1239014776fc3a,6560176e4d91f764e2a42c74,657158b6844a31242af23232,0.1169,0.1171,1,55,217,39,1,fourthree,,,,,,,,,,,,,,,,,,,,,,,,,,,,,,,,,,,,,,,,,,,,,,,,,,,,,,,,,,,,,,,,,,,,,,,,,,,,,,,,,,,,,,,,,,,,,,,,,,,,,,,,,,,,,,,,,,,,,,,,,,,,,,,,,,,,,,,
,,5f27d05bbf1239014776fc3a,2023-12-07_07h32.09.901,kallum_motion_pilot,2023.2.3,Win32,59.88023952,5f27d05bbf1239014776fc3a,6560176e4d91f764e2a42c74,657158b6844a31242af23232,0.1172,0.1174,1,56,218,141,1,seveneight,,,,,,,,,,,,,,,,,,,,,,,,,,,,,,,,,,,,,,,,,,,,,,,,,,,,,,,,,,,,,,,,,,,,,,,,,,,,,,,,,,,,,,,,,,,,,,,,,,,,,,,,,,,,,,,,,,,,,,,,,,,,,,,,,,,,,,,
,,5f27d05bbf1239014776fc3a,2023-12-07_07h32.09.901,kallum_motion_pilot,2023.2.3,Win32,59.88023952,5f27d05bbf1239014776fc3a,6560176e4d91f764e2a42c74,657158b6844a31242af23232,0.1176,0.1178,1,57,219,89,1,fiveseven,,,,,,,,,,,,,,,,,,,,,,,,,,,,,,,,,,,,,,,,,,,,,,,,,,,,,,,,,,,,,,,,,,,,,,,,,,,,,,,,,,,,,,,,,,,,,,,,,,,,,,,,,,,,,,,,,,,,,,,,,,,,,,,,,,,,,,,
,,5f27d05bbf1239014776fc3a,2023-12-07_07h32.09.901,kallum_motion_pilot,2023.2.3,Win32,59.88023952,5f27d05bbf1239014776fc3a,6560176e4d91f764e2a42c74,657158b6844a31242af23232,0.1181,0.1182,1,58,220,48,1,onetwo,,,,,,,,,,,,,,,,,,,,,,,,,,,,,,,,,,,,,,,,,,,,,,,,,,,,,,,,,,,,,,,,,,,,,,,,,,,,,,,,,,,,,,,,,,,,,,,,,,,,,,,,,,,,,,,,,,,,,,,,,,,,,,,,,,,,,,,
,,5f27d05bbf1239014776fc3a,2023-12-07_07h32.09.901,kallum_motion_pilot,2023.2.3,Win32,59.88023952,5f27d05bbf1239014776fc3a,6560176e4d91f764e2a42c74,657158b6844a31242af23232,0.1185,0.1187,1,59,221,65,1,onethree,,,,,,,,,,,,,,,,,,,,,,,,,,,,,,,,,,,,,,,,,,,,,,,,,,,,,,,,,,,,,,,,,,,,,,,,,,,,,,,,,,,,,,,,,,,,,,,,,,,,,,,,,,,,,,,,,,,,,,,,,,,,,,,,,,,,,,,
,,5f27d05bbf1239014776fc3a,2023-12-07_07h32.09.901,kallum_motion_pilot,2023.2.3,Win32,59.88023952,5f27d05bbf1239014776fc3a,6560176e4d91f764e2a42c74,657158b6844a31242af23232,0.119,0.1191,1,60,222,21,1,threefour,,,,,,,,,,,,,,,,,,,,,,,,,,,,,,,,,,,,,,,,,,,,,,,,,,,,,,,,,,,,,,,,,,,,,,,,,,,,,,,,,,,,,,,,,,,,,,,,,,,,,,,,,,,,,,,,,,,,,,,,,,,,,,,,,,,,,,,
,,5f27d05bbf1239014776fc3a,2023-12-07_07h32.09.901,kallum_motion_pilot,2023.2.3,Win32,59.88023952,5f27d05bbf1239014776fc3a,6560176e4d91f764e2a42c74,657158b6844a31242af23232,0.1195,0.1197,1,61,223,94,1,eightsix,,,,,,,,,,,,,,,,,,,,,,,,,,,,,,,,,,,,,,,,,,,,,,,,,,,,,,,,,,,,,,,,,,,,,,,,,,,,,,,,,,,,,,,,,,,,,,,,,,,,,,,,,,,,,,,,,,,,,,,,,,,,,,,,,,,,,,,
,,5f27d05bbf1239014776fc3a,2023-12-07_07h32.09.901,kallum_motion_pilot,2023.2.3,Win32,59.88023952,5f27d05bbf1239014776fc3a,6560176e4d91f764e2a42c74,657158b6844a31242af23232,0.12,0.1201,1,62,224,66,1,twoone,,,,,,,,,,,,,,,,,,,,,,,,,,,,,,,,,,,,,,,,,,,,,,,,,,,,,,,,,,,,,,,,,,,,,,,,,,,,,,,,,,,,,,,,,,,,,,,,,,,,,,,,,,,,,,,,,,,,,,,,,,,,,,,,,,,,,,,
,,5f27d05bbf1239014776fc3a,2023-12-07_07h32.09.901,kallum_motion_pilot,2023.2.3,Win32,59.88023952,5f27d05bbf1239014776fc3a,6560176e4d91f764e2a42c74,657158b6844a31242af23232,0.1203,0.1205,1,63,225,121,1,fiveseven,,,,,,,,,,,,,,,,,,,,,,,,,,,,,,,,,,,,,,,,,,,,,,,,,,,,,,,,,,,,,,,,,,,,,,,,,,,,,,,,,,,,,,,,,,,,,,,,,,,,,,,,,,,,,,,,,,,,,,,,,,,,,,,,,,,,,,,
,,5f27d05bbf1239014776fc3a,2023-12-07_07h32.09.901,kallum_motion_pilot,2023.2.3,Win32,59.88023952,5f27d05bbf1239014776fc3a,6560176e4d91f764e2a42c74,657158b6844a31242af23232,0.1207,0.1207,1,64,226,16,1,onetwo,,,,,,,,,,,,,,,,,,,,,,,,,,,,,,,,,,,,,,,,,,,,,,,,,,,,,,,,,,,,,,,,,,,,,,,,,,,,,,,,,,,,,,,,,,,,,,,,,,,,,,,,,,,,,,,,,,,,,,,,,,,,,,,,,,,,,,,
,,5f27d05bbf1239014776fc3a,2023-12-07_07h32.09.901,kallum_motion_pilot,2023.2.3,Win32,59.88023952,5f27d05bbf1239014776fc3a,6560176e4d91f764e2a42c74,657158b6844a31242af23232,0.1209,0.1211,1,65,227,100,1,sevenfive,,,,,,,,,,,,,,,,,,,,,,,,,,,,,,,,,,,,,,,,,,,,,,,,,,,,,,,,,,,,,,,,,,,,,,,,,,,,,,,,,,,,,,,,,,,,,,,,,,,,,,,,,,,,,,,,,,,,,,,,,,,,,,,,,,,,,,,
,,5f27d05bbf1239014776fc3a,2023-12-07_07h32.09.901,kallum_motion_pilot,2023.2.3,Win32,59.88023952,5f27d05bbf1239014776fc3a,6560176e4d91f764e2a42c74,657158b6844a31242af23232,0.1213,0.1214,1,66,228,51,1,twofour,,,,,,,,,,,,,,,,,,,,,,,,,,,,,,,,,,,,,,,,,,,,,,,,,,,,,,,,,,,,,,,,,,,,,,,,,,,,,,,,,,,,,,,,,,,,,,,,,,,,,,,,,,,,,,,,,,,,,,,,,,,,,,,,,,,,,,,
,,5f27d05bbf1239014776fc3a,2023-12-07_07h32.09.901,kallum_motion_pilot,2023.2.3,Win32,59.88023952,5f27d05bbf1239014776fc3a,6560176e4d91f764e2a42c74,657158b6844a31242af23232,0.1216,0.1218,1,67,229,147,1,sixeight,,,,,,,,,,,,,,,,,,,,,,,,,,,,,,,,,,,,,,,,,,,,,,,,,,,,,,,,,,,,,,,,,,,,,,,,,,,,,,,,,,,,,,,,,,,,,,,,,,,,,,,,,,,,,,,,,,,,,,,,,,,,,,,,,,,,,,,
,,5f27d05bbf1239014776fc3a,2023-12-07_07h32.09.901,kallum_motion_pilot,2023.2.3,Win32,59.88023952,5f27d05bbf1239014776fc3a,6560176e4d91f764e2a42c74,657158b6844a31242af23232,0.1219,0.1221,1,68,230,84,1,sevenfive,,,,,,,,,,,,,,,,,,,,,,,,,,,,,,,,,,,,,,,,,,,,,,,,,,,,,,,,,,,,,,,,,,,,,,,,,,,,,,,,,,,,,,,,,,,,,,,,,,,,,,,,,,,,,,,,,,,,,,,,,,,,,,,,,,,,,,,
,,5f27d05bbf1239014776fc3a,2023-12-07_07h32.09.901,kallum_motion_pilot,2023.2.3,Win32,59.88023952,5f27d05bbf1239014776fc3a,6560176e4d91f764e2a42c74,657158b6844a31242af23232,0.1223,0.1224,1,69,231,53,1,threefour,,,,,,,,,,,,,,,,,,,,,,,,,,,,,,,,,,,,,,,,,,,,,,,,,,,,,,,,,,,,,,,,,,,,,,,,,,,,,,,,,,,,,,,,,,,,,,,,,,,,,,,,,,,,,,,,,,,,,,,,,,,,,,,,,,,,,,,
,,5f27d05bbf1239014776fc3a,2023-12-07_07h32.09.901,kallum_motion_pilot,2023.2.3,Win32,59.88023952,5f27d05bbf1239014776fc3a,6560176e4d91f764e2a42c74,657158b6844a31242af23232,0.1225,0.1227,1,70,232,142,1,eightsix,,,,,,,,,,,,,,,,,,,,,,,,,,,,,,,,,,,,,,,,,,,,,,,,,,,,,,,,,,,,,,,,,,,,,,,,,,,,,,,,,,,,,,,,,,,,,,,,,,,,,,,,,,,,,,,,,,,,,,,,,,,,,,,,,,,,,,,
,,5f27d05bbf1239014776fc3a,2023-12-07_07h32.09.901,kallum_motion_pilot,2023.2.3,Win32,59.88023952,5f27d05bbf1239014776fc3a,6560176e4d91f764e2a42c74,657158b6844a31242af23232,0.123,0.1231,1,71,233,103,1,eightseven,,,,,,,,,,,,,,,,,,,,,,,,,,,,,,,,,,,,,,,,,,,,,,,,,,,,,,,,,,,,,,,,,,,,,,,,,,,,,,,,,,,,,,,,,,,,,,,,,,,,,,,,,,,,,,,,,,,,,,,,,,,,,,,,,,,,,,,
,,5f27d05bbf1239014776fc3a,2023-12-07_07h32.09.901,kallum_motion_pilot,2023.2.3,Win32,59.88023952,5f27d05bbf1239014776fc3a,6560176e4d91f764e2a42c74,657158b6844a31242af23232,0.1233,0.1235,1,72,234,122,1,sixfive,,,,,,,,,,,,,,,,,,,,,,,,,,,,,,,,,,,,,,,,,,,,,,,,,,,,,,,,,,,,,,,,,,,,,,,,,,,,,,,,,,,,,,,,,,,,,,,,,,,,,,,,,,,,,,,,,,,,,,,,,,,,,,,,,,,,,,,
,,5f27d05bbf1239014776fc3a,2023-12-07_07h32.09.901,kallum_motion_pilot,2023.2.3,Win32,59.88023952,5f27d05bbf1239014776fc3a,6560176e4d91f764e2a42c74,657158b6844a31242af23232,0.1237,0.1239,1,73,235,71,1,fourthree,,,,,,,,,,,,,,,,,,,,,,,,,,,,,,,,,,,,,,,,,,,,,,,,,,,,,,,,,,,,,,,,,,,,,,,,,,,,,,,,,,,,,,,,,,,,,,,,,,,,,,,,,,,,,,,,,,,,,,,,,,,,,,,,,,,,,,,
,,5f27d05bbf1239014776fc3a,2023-12-07_07h32.09.901,kallum_motion_pilot,2023.2.3,Win32,59.88023952,5f27d05bbf1239014776fc3a,6560176e4d91f764e2a42c74,657158b6844a31242af23232,0.124,0.1242,1,74,236,7,1,fourthree,,,,,,,,,,,,,,,,,,,,,,,,,,,,,,,,,,,,,,,,,,,,,,,,,,,,,,,,,,,,,,,,,,,,,,,,,,,,,,,,,,,,,,,,,,,,,,,,,,,,,,,,,,,,,,,,,,,,,,,,,,,,,,,,,,,,,,,
,,5f27d05bbf1239014776fc3a,2023-12-07_07h32.09.901,kallum_motion_pilot,2023.2.3,Win32,59.88023952,5f27d05bbf1239014776fc3a,6560176e4d91f764e2a42c74,657158b6844a31242af23232,0.1244,0.1245,1,75,237,159,1,eightseven,,,,,,,,,,,,,,,,,,,,,,,,,,,,,,,,,,,,,,,,,,,,,,,,,,,,,,,,,,,,,,,,,,,,,,,,,,,,,,,,,,,,,,,,,,,,,,,,,,,,,,,,,,,,,,,,,,,,,,,,,,,,,,,,,,,,,,,
,,5f27d05bbf1239014776fc3a,2023-12-07_07h32.09.901,kallum_motion_pilot,2023.2.3,Win32,59.88023952,5f27d05bbf1239014776fc3a,6560176e4d91f764e2a42c74,657158b6844a31242af23232,0.1246,0.1248,1,76,238,101,1,seveneight,,,,,,,,,,,,,,,,,,,,,,,,,,,,,,,,,,,,,,,,,,,,,,,,,,,,,,,,,,,,,,,,,,,,,,,,,,,,,,,,,,,,,,,,,,,,,,,,,,,,,,,,,,,,,,,,,,,,,,,,,,,,,,,,,,,,,,,
,,5f27d05bbf1239014776fc3a,2023-12-07_07h32.09.901,kallum_motion_pilot,2023.2.3,Win32,59.88023952,5f27d05bbf1239014776fc3a,6560176e4d91f764e2a42c74,657158b6844a31242af23232,0.125,0.1252,1,77,239,102,1,eightsix,,,,,,,,,,,,,,,,,,,,,,,,,,,,,,,,,,,,,,,,,,,,,,,,,,,,,,,,,,,,,,,,,,,,,,,,,,,,,,,,,,,,,,,,,,,,,,,,,,,,,,,,,,,,,,,,,,,,,,,,,,,,,,,,,,,,,,,
,,5f27d05bbf1239014776fc3a,2023-12-07_07h32.09.901,kallum_motion_pilot,2023.2.3,Win32,59.88023952,5f27d05bbf1239014776fc3a,6560176e4d91f764e2a42c74,657158b6844a31242af23232,0.1253,0.1254,1,78,240,38,1,fourtwo,,,,,,,,,,,,,,,,,,,,,,,,,,,,,,,,,,,,,,,,,,,,,,,,,,,,,,,,,,,,,,,,,,,,,,,,,,,,,,,,,,,,,,,,,,,,,,,,,,,,,,,,,,,,,,,,,,,,,,,,,,,,,,,,,,,,,,,
,,5f27d05bbf1239014776fc3a,2023-12-07_07h32.09.901,kallum_motion_pilot,2023.2.3,Win32,59.88023952,5f27d05bbf1239014776fc3a,6560176e4d91f764e2a42c74,657158b6844a31242af23232,0.1256,0.1257,1,79,241,120,1,fivesix,,,,,,,,,,,,,,,,,,,,,,,,,,,,,,,,,,,,,,,,,,,,,,,,,,,,,,,,,,,,,,,,,,,,,,,,,,,,,,,,,,,,,,,,,,,,,,,,,,,,,,,,,,,,,,,,,,,,,,,,,,,,,,,,,,,,,,,
,,5f27d05bbf1239014776fc3a,2023-12-07_07h32.09.901,kallum_motion_pilot,2023.2.3,Win32,59.88023952,5f27d05bbf1239014776fc3a,6560176e4d91f764e2a42c74,657158b6844a31242af23232,0.1259,0.1261,1,80,242,28,1,threeone,,,,,,,,,,,,,,,,,,,,,,,,,,,,,,,,,,,,,,,,,,,,,,,,,,,,,,,,,,,,,,,,,,,,,,,,,,,,,,,,,,,,,,,,,,,,,,,,,,,,,,,,,,,,,,,,,,,,,,,,,,,,,,,,,,,,,,,
,,5f27d05bbf1239014776fc3a,2023-12-07_07h32.09.901,kallum_motion_pilot,2023.2.3,Win32,59.88023952,5f27d05bbf1239014776fc3a,6560176e4d91f764e2a42c74,657158b6844a31242af23232,0.1262,0.1264,1,81,243,47,1,fourthree,,,,,,,,,,,,,,,,,,,,,,,,,,,,,,,,,,,,,,,,,,,,,,,,,,,,,,,,,,,,,,,,,,,,,,,,,,,,,,,,,,,,,,,,,,,,,,,,,,,,,,,,,,,,,,,,,,,,,,,,,,,,,,,,,,,,,,,
,,5f27d05bbf1239014776fc3a,2023-12-07_07h32.09.901,kallum_motion_pilot,2023.2.3,Win32,59.88023952,5f27d05bbf1239014776fc3a,6560176e4d91f764e2a42c74,657158b6844a31242af23232,0.1265,0.1267,1,82,244,11,1,twofour,,,,,,,,,,,,,,,,,,,,,,,,,,,,,,,,,,,,,,,,,,,,,,,,,,,,,,,,,,,,,,,,,,,,,,,,,,,,,,,,,,,,,,,,,,,,,,,,,,,,,,,,,,,,,,,,,,,,,,,,,,,,,,,,,,,,,,,
,,5f27d05bbf1239014776fc3a,2023-12-07_07h32.09.901,kallum_motion_pilot,2023.2.3,Win32,59.88023952,5f27d05bbf1239014776fc3a,6560176e4d91f764e2a42c74,657158b6844a31242af23232,0.1268,0.127,1,83,245,29,1,threefour,,,,,,,,,,,,,,,,,,,,,,,,,,,,,,,,,,,,,,,,,,,,,,,,,,,,,,,,,,,,,,,,,,,,,,,,,,,,,,,,,,,,,,,,,,,,,,,,,,,,,,,,,,,,,,,,,,,,,,,,,,,,,,,,,,,,,,,
,,5f27d05bbf1239014776fc3a,2023-12-07_07h32.09.901,kallum_motion_pilot,2023.2.3,Win32,59.88023952,5f27d05bbf1239014776fc3a,6560176e4d91f764e2a42c74,657158b6844a31242af23232,0.1272,0.1275,1,84,246,32,1,onetwo,,,,,,,,,,,,,,,,,,,,,,,,,,,,,,,,,,,,,,,,,,,,,,,,,,,,,,,,,,,,,,,,,,,,,,,,,,,,,,,,,,,,,,,,,,,,,,,,,,,,,,,,,,,,,,,,,,,,,,,,,,,,,,,,,,,,,,,
,,5f27d05bbf1239014776fc3a,2023-12-07_07h32.09.901,kallum_motion_pilot,2023.2.3,Win32,59.88023952,5f27d05bbf1239014776fc3a,6560176e4d91f764e2a42c74,657158b6844a31242af23232,0.1277,0.1279,1,85,247,44,1,threeone,,,,,,,,,,,,,,,,,,,,,,,,,,,,,,,,,,,,,,,,,,,,,,,,,,,,,,,,,,,,,,,,,,,,,,,,,,,,,,,,,,,,,,,,,,,,,,,,,,,,,,,,,,,,,,,,,,,,,,,,,,,,,,,,,,,,,,,
,,5f27d05bbf1239014776fc3a,2023-12-07_07h32.09.901,kallum_motion_pilot,2023.2.3,Win32,59.88023952,5f27d05bbf1239014776fc3a,6560176e4d91f764e2a42c74,657158b6844a31242af23232,0.1281,0.1282,1,86,248,130,1,sixfive,,,,,,,,,,,,,,,,,,,,,,,,,,,,,,,,,,,,,,,,,,,,,,,,,,,,,,,,,,,,,,,,,,,,,,,,,,,,,,,,,,,,,,,,,,,,,,,,,,,,,,,,,,,,,,,,,,,,,,,,,,,,,,,,,,,,,,,
,,5f27d05bbf1239014776fc3a,2023-12-07_07h32.09.901,kallum_motion_pilot,2023.2.3,Win32,59.88023952,5f27d05bbf1239014776fc3a,6560176e4d91f764e2a42c74,657158b6844a31242af23232,0.1284,0.1286,1,87,249,144,1,fivesix,,,,,,,,,,,,,,,,,,,,,,,,,,,,,,,,,,,,,,,,,,,,,,,,,,,,,,,,,,,,,,,,,,,,,,,,,,,,,,,,,,,,,,,,,,,,,,,,,,,,,,,,,,,,,,,,,,,,,,,,,,,,,,,,,,,,,,,
,,5f27d05bbf1239014776fc3a,2023-12-07_07h32.09.901,kallum_motion_pilot,2023.2.3,Win32,59.88023952,5f27d05bbf1239014776fc3a,6560176e4d91f764e2a42c74,657158b6844a31242af23232,0.1288,0.1289,1,88,250,12,1,threeone,,,,,,,,,,,,,,,,,,,,,,,,,,,,,,,,,,,,,,,,,,,,,,,,,,,,,,,,,,,,,,,,,,,,,,,,,,,,,,,,,,,,,,,,,,,,,,,,,,,,,,,,,,,,,,,,,,,,,,,,,,,,,,,,,,,,,,,
,,5f27d05bbf1239014776fc3a,2023-12-07_07h32.09.901,kallum_motion_pilot,2023.2.3,Win32,59.88023952,5f27d05bbf1239014776fc3a,6560176e4d91f764e2a42c74,657158b6844a31242af23232,0.1291,0.1293,1,89,251,46,1,fourtwo,,,,,,,,,,,,,,,,,,,,,,,,,,,,,,,,,,,,,,,,,,,,,,,,,,,,,,,,,,,,,,,,,,,,,,,,,,,,,,,,,,,,,,,,,,,,,,,,,,,,,,,,,,,,,,,,,,,,,,,,,,,,,,,,,,,,,,,
,,5f27d05bbf1239014776fc3a,2023-12-07_07h32.09.901,kallum_motion_pilot,2023.2.3,Win32,59.88023952,5f27d05bbf1239014776fc3a,6560176e4d91f764e2a42c74,657158b6844a31242af23232,0.1294,0.1296,1,90,252,91,1,sixeight,,,,,,,,,,,,,,,,,,,,,,,,,,,,,,,,,,,,,,,,,,,,,,,,,,,,,,,,,,,,,,,,,,,,,,,,,,,,,,,,,,,,,,,,,,,,,,,,,,,,,,,,,,,,,,,,,,,,,,,,,,,,,,,,,,,,,,,
,,5f27d05bbf1239014776fc3a,2023-12-07_07h32.09.901,kallum_motion_pilot,2023.2.3,Win32,59.88023952,5f27d05bbf1239014776fc3a,6560176e4d91f764e2a42c74,657158b6844a31242af23232,0.1298,0.13,1,91,253,96,1,fivesix,,,,,,,,,,,,,,,,,,,,,,,,,,,,,,,,,,,,,,,,,,,,,,,,,,,,,,,,,,,,,,,,,,,,,,,,,,,,,,,,,,,,,,,,,,,,,,,,,,,,,,,,,,,,,,,,,,,,,,,,,,,,,,,,,,,,,,,
,,5f27d05bbf1239014776fc3a,2023-12-07_07h32.09.901,kallum_motion_pilot,2023.2.3,Win32,59.88023952,5f27d05bbf1239014776fc3a,6560176e4d91f764e2a42c74,657158b6844a31242af23232,0.1301,0.1303,1,92,254,85,1,seveneight,,,,,,,,,,,,,,,,,,,,,,,,,,,,,,,,,,,,,,,,,,,,,,,,,,,,,,,,,,,,,,,,,,,,,,,,,,,,,,,,,,,,,,,,,,,,,,,,,,,,,,,,,,,,,,,,,,,,,,,,,,,,,,,,,,,,,,,
,,5f27d05bbf1239014776fc3a,2023-12-07_07h32.09.901,kallum_motion_pilot,2023.2.3,Win32,59.88023952,5f27d05bbf1239014776fc3a,6560176e4d91f764e2a42c74,657158b6844a31242af23232,0.1305,0.1308,1,93,255,119,1,eightseven,,,,,,,,,,,,,,,,,,,,,,,,,,,,,,,,,,,,,,,,,,,,,,,,,,,,,,,,,,,,,,,,,,,,,,,,,,,,,,,,,,,,,,,,,,,,,,,,,,,,,,,,,,,,,,,,,,,,,,,,,,,,,,,,,,,,,,,
,,5f27d05bbf1239014776fc3a,2023-12-07_07h32.09.901,kallum_motion_pilot,2023.2.3,Win32,59.88023952,5f27d05bbf1239014776fc3a,6560176e4d91f764e2a42c74,657158b6844a31242af23232,0.131,0.1311,1,94,256,86,1,eightsix,,,,,,,,,,,,,,,,,,,,,,,,,,,,,,,,,,,,,,,,,,,,,,,,,,,,,,,,,,,,,,,,,,,,,,,,,,,,,,,,,,,,,,,,,,,,,,,,,,,,,,,,,,,,,,,,,,,,,,,,,,,,,,,,,,,,,,,
,,5f27d05bbf1239014776fc3a,2023-12-07_07h32.09.901,kallum_motion_pilot,2023.2.3,Win32,59.88023952,5f27d05bbf1239014776fc3a,6560176e4d91f764e2a42c74,657158b6844a31242af23232,0.1313,0.1315,1,95,257,70,1,fourtwo,,,,,,,,,,,,,,,,,,,,,,,,,,,,,,,,,,,,,,,,,,,,,,,,,,,,,,,,,,,,,,,,,,,,,,,,,,,,,,,,,,,,,,,,,,,,,,,,,,,,,,,,,,,,,,,,,,,,,,,,,,,,,,,,,,,,,,,
,,5f27d05bbf1239014776fc3a,2023-12-07_07h32.09.901,kallum_motion_pilot,2023.2.3,Win32,59.88023952,5f27d05bbf1239014776fc3a,6560176e4d91f764e2a42c74,657158b6844a31242af23232,0.1316,0.1318,1,96,258,69,1,threefour,,,,,,,,,,,,,,,,,,,,,,,,,,,,,,,,,,,,,,,,,,,,,,,,,,,,,,,,,,,,,,,,,,,,,,,,,,,,,,,,,,,,,,,,,,,,,,,,,,,,,,,,,,,,,,,,,,,,,,,,,,,,,,,,,,,,,,,
,,5f27d05bbf1239014776fc3a,2023-12-07_07h32.09.901,kallum_motion_pilot,2023.2.3,Win32,59.88023952,5f27d05bbf1239014776fc3a,6560176e4d91f764e2a42c74,657158b6844a31242af23232,0.1319,0.1321,1,97,259,131,1,sixeight,,,,,,,,,,,,,,,,,,,,,,,,,,,,,,,,,,,,,,,,,,,,,,,,,,,,,,,,,,,,,,,,,,,,,,,,,,,,,,,,,,,,,,,,,,,,,,,,,,,,,,,,,,,,,,,,,,,,,,,,,,,,,,,,,,,,,,,
,,5f27d05bbf1239014776fc3a,2023-12-07_07h32.09.901,kallum_motion_pilot,2023.2.3,Win32,59.88023952,5f27d05bbf1239014776fc3a,6560176e4d91f764e2a42c74,657158b6844a31242af23232,0.1323,0.1324,1,98,260,35,1,twofour,,,,,,,,,,,,,,,,,,,,,,,,,,,,,,,,,,,,,,,,,,,,,,,,,,,,,,,,,,,,,,,,,,,,,,,,,,,,,,,,,,,,,,,,,,,,,,,,,,,,,,,,,,,,,,,,,,,,,,,,,,,,,,,,,,,,,,,
,,5f27d05bbf1239014776fc3a,2023-12-07_07h32.09.901,kallum_motion_pilot,2023.2.3,Win32,59.88023952,5f27d05bbf1239014776fc3a,6560176e4d91f764e2a42c74,657158b6844a31242af23232,0.1326,0.133,1,99,261,23,1,fourthree,,,,,,,,,,,,,,,,,,,,,,,,,,,,,,,,,,,,,,,,,,,,,,,,,,,,,,,,,,,,,,,,,,,,,,,,,,,,,,,,,,,,,,,,,,,,,,,,,,,,,,,,,,,,,,,,,,,,,,,,,,,,,,,,,,,,,,,
,,5f27d05bbf1239014776fc3a,2023-12-07_07h32.09.901,kallum_motion_pilot,2023.2.3,Win32,59.88023952,5f27d05bbf1239014776fc3a,6560176e4d91f764e2a42c74,657158b6844a31242af23232,0.1332,0.1334,1,100,262,161,1,fiveseven,,,,,,,,,,,,,,,,,,,,,,,,,,,,,,,,,,,,,,,,,,,,,,,,,,,,,,,,,,,,,,,,,,,,,,,,,,,,,,,,,,,,,,,,,,,,,,,,,,,,,,,,,,,,,,,,,,,,,,,,,,,,,,,,,,,,,,,
,,5f27d05bbf1239014776fc3a,2023-12-07_07h32.09.901,kallum_motion_pilot,2023.2.3,Win32,59.88023952,5f27d05bbf1239014776fc3a,6560176e4d91f764e2a42c74,657158b6844a31242af23232,0.1335,0.1337,1,101,263,99,1,sixeight,,,,,,,,,,,,,,,,,,,,,,,,,,,,,,,,,,,,,,,,,,,,,,,,,,,,,,,,,,,,,,,,,,,,,,,,,,,,,,,,,,,,,,,,,,,,,,,,,,,,,,,,,,,,,,,,,,,,,,,,,,,,,,,,,,,,,,,
,,5f27d05bbf1239014776fc3a,2023-12-07_07h32.09.901,kallum_motion_pilot,2023.2.3,Win32,59.88023952,5f27d05bbf1239014776fc3a,6560176e4d91f764e2a42c74,657158b6844a31242af23232,0.1339,0.134,1,102,264,22,1,fourtwo,,,,,,,,,,,,,,,,,,,,,,,,,,,,,,,,,,,,,,,,,,,,,,,,,,,,,,,,,,,,,,,,,,,,,,,,,,,,,,,,,,,,,,,,,,,,,,,,,,,,,,,,,,,,,,,,,,,,,,,,,,,,,,,,,,,,,,,
,,5f27d05bbf1239014776fc3a,2023-12-07_07h32.09.901,kallum_motion_pilot,2023.2.3,Win32,59.88023952,5f27d05bbf1239014776fc3a,6560176e4d91f764e2a42c74,657158b6844a31242af23232,0.1342,0.1344,1,103,265,59,1,twofour,,,,,,,,,,,,,,,,,,,,,,,,,,,,,,,,,,,,,,,,,,,,,,,,,,,,,,,,,,,,,,,,,,,,,,,,,,,,,,,,,,,,,,,,,,,,,,,,,,,,,,,,,,,,,,,,,,,,,,,,,,,,,,,,,,,,,,,
,,5f27d05bbf1239014776fc3a,2023-12-07_07h32.09.901,kallum_motion_pilot,2023.2.3,Win32,59.88023952,5f27d05bbf1239014776fc3a,6560176e4d91f764e2a42c74,657158b6844a31242af23232,0.1345,0.1347,1,104,266,139,1,sixeight,,,,,,,,,,,,,,,,,,,,,,,,,,,,,,,,,,,,,,,,,,,,,,,,,,,,,,,,,,,,,,,,,,,,,,,,,,,,,,,,,,,,,,,,,,,,,,,,,,,,,,,,,,,,,,,,,,,,,,,,,,,,,,,,,,,,,,,
,,5f27d05bbf1239014776fc3a,2023-12-07_07h32.09.901,kallum_motion_pilot,2023.2.3,Win32,59.88023952,5f27d05bbf1239014776fc3a,6560176e4d91f764e2a42c74,657158b6844a31242af23232,0.1348,0.135,1,105,267,42,1,twoone,,,,,,,,,,,,,,,,,,,,,,,,,,,,,,,,,,,,,,,,,,,,,,,,,,,,,,,,,,,,,,,,,,,,,,,,,,,,,,,,,,,,,,,,,,,,,,,,,,,,,,,,,,,,,,,,,,,,,,,,,,,,,,,,,,,,,,,
,,5f27d05bbf1239014776fc3a,2023-12-07_07h32.09.901,kallum_motion_pilot,2023.2.3,Win32,59.88023952,5f27d05bbf1239014776fc3a,6560176e4d91f764e2a42c74,657158b6844a31242af23232,0.1351,0.1353,1,106,268,49,1,onethree,,,,,,,,,,,,,,,,,,,,,,,,,,,,,,,,,,,,,,,,,,,,,,,,,,,,,,,,,,,,,,,,,,,,,,,,,,,,,,,,,,,,,,,,,,,,,,,,,,,,,,,,,,,,,,,,,,,,,,,,,,,,,,,,,,,,,,,
,,5f27d05bbf1239014776fc3a,2023-12-07_07h32.09.901,kallum_motion_pilot,2023.2.3,Win32,59.88023952,5f27d05bbf1239014776fc3a,6560176e4d91f764e2a42c74,657158b6844a31242af23232,0.1355,0.1356,1,107,269,87,1,eightseven,,,,,,,,,,,,,,,,,,,,,,,,,,,,,,,,,,,,,,,,,,,,,,,,,,,,,,,,,,,,,,,,,,,,,,,,,,,,,,,,,,,,,,,,,,,,,,,,,,,,,,,,,,,,,,,,,,,,,,,,,,,,,,,,,,,,,,,
,,5f27d05bbf1239014776fc3a,2023-12-07_07h32.09.901,kallum_motion_pilot,2023.2.3,Win32,59.88023952,5f27d05bbf1239014776fc3a,6560176e4d91f764e2a42c74,657158b6844a31242af23232,0.1358,0.136,1,108,270,68,1,threeone,,,,,,,,,,,,,,,,,,,,,,,,,,,,,,,,,,,,,,,,,,,,,,,,,,,,,,,,,,,,,,,,,,,,,,,,,,,,,,,,,,,,,,,,,,,,,,,,,,,,,,,,,,,,,,,,,,,,,,,,,,,,,,,,,,,,,,,
,,5f27d05bbf1239014776fc3a,2023-12-07_07h32.09.901,kallum_motion_pilot,2023.2.3,Win32,59.88023952,5f27d05bbf1239014776fc3a,6560176e4d91f764e2a42c74,657158b6844a31242af23232,0.1363,0.1364,1,109,271,15,1,fourthree,,,,,,,,,,,,,,,,,,,,,,,,,,,,,,,,,,,,,,,,,,,,,,,,,,,,,,,,,,,,,,,,,,,,,,,,,,,,,,,,,,,,,,,,,,,,,,,,,,,,,,,,,,,,,,,,,,,,,,,,,,,,,,,,,,,,,,,
,,5f27d05bbf1239014776fc3a,2023-12-07_07h32.09.901,kallum_motion_pilot,2023.2.3,Win32,59.88023952,5f27d05bbf1239014776fc3a,6560176e4d91f764e2a42c74,657158b6844a31242af23232,0.1366,0.1368,1,110,272,33,1,onethree,,,,,,,,,,,,,,,,,,,,,,,,,,,,,,,,,,,,,,,,,,,,,,,,,,,,,,,,,,,,,,,,,,,,,,,,,,,,,,,,,,,,,,,,,,,,,,,,,,,,,,,,,,,,,,,,,,,,,,,,,,,,,,,,,,,,,,,
,,5f27d05bbf1239014776fc3a,2023-12-07_07h32.09.901,kallum_motion_pilot,2023.2.3,Win32,59.88023952,5f27d05bbf1239014776fc3a,6560176e4d91f764e2a42c74,657158b6844a31242af23232,0.137,0.1371,1,111,273,157,1,seveneight,,,,,,,,,,,,,,,,,,,,,,,,,,,,,,,,,,,,,,,,,,,,,,,,,,,,,,,,,,,,,,,,,,,,,,,,,,,,,,,,,,,,,,,,,,,,,,,,,,,,,,,,,,,,,,,,,,,,,,,,,,,,,,,,,,,,,,,
,,5f27d05bbf1239014776fc3a,2023-12-07_07h32.09.901,kallum_motion_pilot,2023.2.3,Win32,59.88023952,5f27d05bbf1239014776fc3a,6560176e4d91f764e2a42c74,657158b6844a31242af23232,0.1373,0.1374,1,112,274,55,1,fourthree,,,,,,,,,,,,,,,,,,,,,,,,,,,,,,,,,,,,,,,,,,,,,,,,,,,,,,,,,,,,,,,,,,,,,,,,,,,,,,,,,,,,,,,,,,,,,,,,,,,,,,,,,,,,,,,,,,,,,,,,,,,,,,,,,,,,,,,
,,5f27d05bbf1239014776fc3a,2023-12-07_07h32.09.901,kallum_motion_pilot,2023.2.3,Win32,59.88023952,5f27d05bbf1239014776fc3a,6560176e4d91f764e2a42c74,657158b6844a31242af23232,0.1376,0.1378,1,113,275,61,1,threefour,,,,,,,,,,,,,,,,,,,,,,,,,,,,,,,,,,,,,,,,,,,,,,,,,,,,,,,,,,,,,,,,,,,,,,,,,,,,,,,,,,,,,,,,,,,,,,,,,,,,,,,,,,,,,,,,,,,,,,,,,,,,,,,,,,,,,,,
,,5f27d05bbf1239014776fc3a,2023-12-07_07h32.09.901,kallum_motion_pilot,2023.2.3,Win32,59.88023952,5f27d05bbf1239014776fc3a,6560176e4d91f764e2a42c74,657158b6844a31242af23232,0.138,0.1381,1,114,276,148,1,sevenfive,,,,,,,,,,,,,,,,,,,,,,,,,,,,,,,,,,,,,,,,,,,,,,,,,,,,,,,,,,,,,,,,,,,,,,,,,,,,,,,,,,,,,,,,,,,,,,,,,,,,,,,,,,,,,,,,,,,,,,,,,,,,,,,,,,,,,,,
,,5f27d05bbf1239014776fc3a,2023-12-07_07h32.09.901,kallum_motion_pilot,2023.2.3,Win32,59.88023952,5f27d05bbf1239014776fc3a,6560176e4d91f764e2a42c74,657158b6844a31242af23232,0.1383,0.1384,1,115,277,9,1,onethree,,,,,,,,,,,,,,,,,,,,,,,,,,,,,,,,,,,,,,,,,,,,,,,,,,,,,,,,,,,,,,,,,,,,,,,,,,,,,,,,,,,,,,,,,,,,,,,,,,,,,,,,,,,,,,,,,,,,,,,,,,,,,,,,,,,,,,,
,,5f27d05bbf1239014776fc3a,2023-12-07_07h32.09.901,kallum_motion_pilot,2023.2.3,Win32,59.88023952,5f27d05bbf1239014776fc3a,6560176e4d91f764e2a42c74,657158b6844a31242af23232,0.1386,0.1387,1,116,278,31,1,fourthree,,,,,,,,,,,,,,,,,,,,,,,,,,,,,,,,,,,,,,,,,,,,,,,,,,,,,,,,,,,,,,,,,,,,,,,,,,,,,,,,,,,,,,,,,,,,,,,,,,,,,,,,,,,,,,,,,,,,,,,,,,,,,,,,,,,,,,,
,,5f27d05bbf1239014776fc3a,2023-12-07_07h32.09.901,kallum_motion_pilot,2023.2.3,Win32,59.88023952,5f27d05bbf1239014776fc3a,6560176e4d91f764e2a42c74,657158b6844a31242af23232,0.1389,0.139,1,117,279,25,1,onethree,,,,,,,,,,,,,,,,,,,,,,,,,,,,,,,,,,,,,,,,,,,,,,,,,,,,,,,,,,,,,,,,,,,,,,,,,,,,,,,,,,,,,,,,,,,,,,,,,,,,,,,,,,,,,,,,,,,,,,,,,,,,,,,,,,,,,,,
